raw_reward_magnitude,stim_reward,stepwise_reward_magnitude,paired_with_stopping,stim_location,response,reaction_time,block,num_trial_presentations,which_phase,stop_signal_trial_type,left_SSD,right_SSD,accuracy,chosen_bidding_amount,chosen_bidding_level,possible_bid_1,possible_bid_2,possible_bid_3,possible_bid_4,possible_bid_5,possible_bid_6,color_text,shape_text
0.0,5.0,0.0,1.0,2.0,2.0,375.3669640282169,1.0,1.0,phase_1,,,,,,,,,,,,,green,I
0.0,1.0,0.0,0.0,1.0,1.0,404.3317589676007,1.0,1.0,phase_1,,,,,,,,,,,,,gray,hexagon
642.0,7.0,2.0,1.0,1.0,1.0,419.9660890153609,1.0,1.0,phase_1,,,,,,,,,,,,,yellow,square
317.0,6.0,1.0,1.0,1.0,1.0,318.3979520108551,1.0,1.0,phase_1,,,,,,,,,,,,,white,cross
1315.0,8.0,4.0,1.0,2.0,2.0,375.1069919671863,1.0,1.0,phase_1,,,,,,,,,,,,,magenta,flipped triangle
1319.0,8.0,4.0,1.0,4.0,4.0,289.1051640035584,1.0,1.0,phase_1,,,,,,,,,,,,,magenta,flipped triangle
0.0,3.0,0.0,0.0,4.0,4.0,345.0187999987975,1.0,1.0,phase_1,,,,,,,,,,,,,orange,diamond
1318.0,4.0,4.0,0.0,3.0,3.0,373.455710010603,1.0,1.0,phase_1,,,,,,,,,,,,,cyan,triangle
1279.0,4.0,4.0,0.0,4.0,4.0,336.182726023253,1.0,1.0,phase_1,,,,,,,,,,,,,cyan,triangle
335.0,2.0,1.0,0.0,1.0,1.0,373.5993400332518,1.0,1.0,phase_1,,,,,,,,,,,,,blue,circle
0.0,3.0,0.0,0.0,2.0,2.0,289.5920670125633,1.0,1.0,phase_1,,,,,,,,,,,,,orange,diamond
1298.0,4.0,4.0,0.0,4.0,4.0,382.5019910000264,1.0,1.0,phase_1,,,,,,,,,,,,,cyan,triangle
333.0,2.0,1.0,0.0,4.0,4.0,316.6905480320565,1.0,1.0,phase_1,,,,,,,,,,,,,blue,circle
0.0,2.0,0.0,0.0,1.0,1.0,308.7274329736829,1.0,1.0,phase_1,,,,,,,,,,,,,blue,circle
326.0,2.0,1.0,0.0,4.0,4.0,327.3737640120089,1.0,1.0,phase_1,,,,,,,,,,,,,blue,circle
171.0,5.0,0.5,1.0,3.0,3.0,335.8386949985288,1.0,1.0,phase_1,,,,,,,,,,,,,green,I
0.0,2.0,0.0,0.0,2.0,2.0,270.8683449891396,1.0,1.0,phase_1,,,,,,,,,,,,,blue,circle
323.0,2.0,1.0,0.0,1.0,1.0,298.4172870055772,1.0,1.0,phase_1,,,,,,,,,,,,,blue,circle
169.0,5.0,0.5,1.0,3.0,3.0,346.8539780005812,1.0,1.0,phase_1,,,,,,,,,,,,,green,I
670.0,3.0,2.0,0.0,2.0,2.0,365.8283420372754,1.0,1.0,phase_1,,,,,,,,,,,,,orange,diamond
155.0,5.0,0.5,1.0,1.0,1.0,346.2875930126756,1.0,1.0,phase_1,,,,,,,,,,,,,green,I
0.0,4.0,0.0,0.0,2.0,2.0,374.399859982077,1.0,1.0,phase_1,,,,,,,,,,,,,cyan,triangle
346.0,6.0,1.0,1.0,2.0,2.0,374.4474490522407,1.0,1.0,phase_1,,,,,,,,,,,,,white,cross
1310.0,4.0,4.0,0.0,2.0,2.0,289.4936090451665,1.0,1.0,phase_1,,,,,,,,,,,,,cyan,triangle
638.0,3.0,2.0,0.0,1.0,1.0,307.587877032347,1.0,1.0,phase_1,,,,,,,,,,,,,orange,diamond
649.0,7.0,2.0,1.0,1.0,1.0,316.4332319865934,1.0,1.0,phase_1,,,,,,,,,,,,,yellow,square
167.0,1.0,0.5,0.0,2.0,2.0,275.1678240019828,1.0,1.0,phase_1,,,,,,,,,,,,,gray,hexagon
0.0,5.0,0.0,1.0,3.0,3.0,280.2746649831533,1.0,1.0,phase_1,,,,,,,,,,,,,green,I
1289.0,4.0,4.0,0.0,1.0,1.0,317.4539449973963,1.0,1.0,phase_1,,,,,,,,,,,,,cyan,triangle
0.0,4.0,0.0,0.0,3.0,3.0,270.623511984013,1.0,1.0,phase_1,,,,,,,,,,,,,cyan,triangle
340.0,2.0,1.0,0.0,2.0,2.0,270.7132769864984,1.0,1.0,phase_1,,,,,,,,,,,,,blue,circle
640.0,3.0,2.0,0.0,3.0,3.0,448.3874039724469,1.0,2.0,phase_1,,,,,,,,,,,,,orange,diamond
658.0,7.0,2.0,1.0,1.0,1.0,354.6637340332381,1.0,1.0,phase_1,,,,,,,,,,,,,yellow,square
0.0,7.0,0.0,1.0,4.0,4.0,299.1938439663499,1.0,1.0,phase_1,,,,,,,,,,,,,yellow,square
1276.0,4.0,4.0,0.0,4.0,4.0,402.8953309752978,1.0,1.0,phase_1,,,,,,,,,,,,,cyan,triangle
658.0,3.0,2.0,0.0,4.0,4.0,335.6705019832589,1.0,1.0,phase_1,,,,,,,,,,,,,orange,diamond
0.0,6.0,0.0,1.0,3.0,3.0,308.7450610473752,1.0,1.0,phase_1,,,,,,,,,,,,,white,cross
154.0,5.0,0.5,1.0,2.0,2.0,401.1599089717492,1.0,1.0,phase_1,,,,,,,,,,,,,green,I
0.0,6.0,0.0,1.0,3.0,3.0,298.8615659996867,1.0,1.0,phase_1,,,,,,,,,,,,,white,cross
0.0,7.0,0.0,1.0,2.0,2.0,344.5504260016605,1.0,1.0,phase_1,,,,,,,,,,,,,yellow,square
0.0,5.0,0.0,1.0,1.0,1.0,345.873842947185,1.0,1.0,phase_1,,,,,,,,,,,,,green,I
647.0,3.0,2.0,0.0,2.0,2.0,299.1282029543072,1.0,1.0,phase_1,,,,,,,,,,,,,orange,diamond
144.0,1.0,0.5,0.0,2.0,2.0,336.4970759721473,1.0,1.0,phase_1,,,,,,,,,,,,,gray,hexagon
1282.0,4.0,4.0,0.0,3.0,3.0,291.0942020243965,1.0,1.0,phase_1,,,,,,,,,,,,,cyan,triangle
335.0,6.0,1.0,1.0,3.0,3.0,326.5217809821479,1.0,2.0,phase_1,,,,,,,,,,,,,white,cross
1321.0,8.0,4.0,1.0,2.0,2.0,345.3557199682109,1.0,1.0,phase_1,,,,,,,,,,,,,magenta,flipped triangle
636.0,3.0,2.0,0.0,3.0,3.0,341.5434089838527,1.0,1.0,phase_1,,,,,,,,,,,,,orange,diamond
179.0,1.0,0.5,0.0,2.0,2.0,289.2718199873343,1.0,1.0,phase_1,,,,,,,,,,,,,gray,hexagon
0.0,3.0,0.0,0.0,4.0,4.0,318.9443260198459,1.0,1.0,phase_1,,,,,,,,,,,,,orange,diamond
1297.0,4.0,4.0,0.0,4.0,4.0,298.2201330014504,1.0,1.0,phase_1,,,,,,,,,,,,,cyan,triangle
0.0,7.0,0.0,1.0,4.0,4.0,299.7173930052668,1.0,1.0,phase_1,,,,,,,,,,,,,yellow,square
632.0,3.0,2.0,0.0,3.0,3.0,299.0019519929774,1.0,1.0,phase_1,,,,,,,,,,,,,orange,diamond
627.0,3.0,2.0,0.0,4.0,4.0,317.9595350520685,1.0,1.0,phase_1,,,,,,,,,,,,,orange,diamond
144.0,5.0,0.5,1.0,2.0,2.0,328.3649639924988,1.0,1.0,phase_1,,,,,,,,,,,,,green,I
347.0,2.0,1.0,0.0,1.0,1.0,307.5026719598099,1.0,1.0,phase_1,,,,,,,,,,,,,blue,circle
162.0,1.0,0.5,0.0,1.0,1.0,353.5643569775857,1.0,1.0,phase_1,,,,,,,,,,,,,gray,hexagon
310.0,6.0,1.0,1.0,1.0,1.0,335.870751994662,1.0,2.0,phase_1,,,,,,,,,,,,,white,cross
1279.0,8.0,4.0,1.0,3.0,3.0,356.0965249780565,1.0,1.0,phase_1,,,,,,,,,,,,,magenta,flipped triangle
1321.0,4.0,4.0,0.0,3.0,3.0,401.5124089783057,1.0,1.0,phase_1,,,,,,,,,,,,,cyan,triangle
650.0,7.0,2.0,1.0,4.0,4.0,299.4654300273396,1.0,1.0,phase_1,,,,,,,,,,,,,yellow,square
0.0,6.0,0.0,1.0,1.0,1.0,354.1027060127817,1.0,1.0,phase_1,,,,,,,,,,,,,white,cross
333.0,6.0,1.0,1.0,4.0,4.0,308.8796840165742,1.0,1.0,phase_1,,,,,,,,,,,,,white,cross
0.0,2.0,0.0,0.0,4.0,4.0,356.2717960448935,1.0,1.0,phase_1,,,,,,,,,,,,,blue,circle
1281.0,8.0,4.0,1.0,4.0,4.0,318.8191200024448,1.0,1.0,phase_1,,,,,,,,,,,,,magenta,flipped triangle
1319.0,4.0,4.0,0.0,4.0,4.0,298.6654480337165,1.0,1.0,phase_1,,,,,,,,,,,,,cyan,triangle
0.0,6.0,0.0,1.0,3.0,3.0,355.310567014385,1.0,1.0,phase_1,,,,,,,,,,,,,white,cross
1297.0,8.0,4.0,1.0,1.0,1.0,457.2048630216159,1.0,1.0,phase_1,,,,,,,,,,,,,magenta,flipped triangle
658.0,7.0,2.0,1.0,3.0,3.0,382.2273159748874,1.0,1.0,phase_1,,,,,,,,,,,,,yellow,square
331.0,6.0,1.0,1.0,1.0,1.0,410.7701900065876,1.0,2.0,phase_1,,,,,,,,,,,,,white,cross
345.0,6.0,1.0,1.0,4.0,4.0,373.3482870156877,1.0,1.0,phase_1,,,,,,,,,,,,,white,cross
649.0,3.0,2.0,0.0,2.0,2.0,485.533444036264,1.0,1.0,phase_1,,,,,,,,,,,,,orange,diamond
321.0,2.0,1.0,0.0,2.0,2.0,484.083149000071,1.0,1.0,phase_1,,,,,,,,,,,,,blue,circle
659.0,7.0,2.0,1.0,1.0,1.0,374.1221430245787,1.0,1.0,phase_1,,,,,,,,,,,,,yellow,square
156.0,1.0,0.5,0.0,4.0,4.0,344.629678002093,1.0,1.0,phase_1,,,,,,,,,,,,,gray,hexagon
149.0,1.0,0.5,0.0,4.0,4.0,391.5098700090311,1.0,1.0,phase_1,,,,,,,,,,,,,gray,hexagon
675.0,7.0,2.0,1.0,4.0,4.0,355.0335170002654,1.0,1.0,phase_1,,,,,,,,,,,,,yellow,square
0.0,2.0,0.0,0.0,2.0,2.0,429.5434260275215,1.0,1.0,phase_1,,,,,,,,,,,,,blue,circle
1308.0,8.0,4.0,1.0,2.0,2.0,457.0643570041284,1.0,1.0,phase_1,,,,,,,,,,,,,magenta,flipped triangle
155.0,1.0,0.5,0.0,4.0,4.0,355.361370020546,1.0,1.0,phase_1,,,,,,,,,,,,,gray,hexagon
167.0,5.0,0.5,1.0,4.0,4.0,373.1612970004789,1.0,1.0,phase_1,,,,,,,,,,,,,green,I
151.0,1.0,0.5,0.0,3.0,3.0,347.2047559916973,1.0,1.0,phase_1,,,,,,,,,,,,,gray,hexagon
0.0,2.0,0.0,0.0,2.0,2.0,336.5382730262354,1.0,1.0,phase_1,,,,,,,,,,,,,blue,circle
303.0,6.0,1.0,1.0,1.0,1.0,465.2778689633123,1.0,1.0,phase_1,,,,,,,,,,,,,white,cross
0.0,5.0,0.0,1.0,3.0,3.0,336.7863079765811,1.0,1.0,phase_1,,,,,,,,,,,,,green,I
1282.0,4.0,4.0,0.0,1.0,1.0,401.7807390191592,1.0,1.0,phase_1,,,,,,,,,,,,,cyan,triangle
326.0,6.0,1.0,1.0,4.0,4.0,410.4942289995961,1.0,1.0,phase_1,,,,,,,,,,,,,white,cross
0.0,5.0,0.0,1.0,4.0,4.0,392.3036699998192,1.0,1.0,phase_1,,,,,,,,,,,,,green,I
627.0,7.0,2.0,1.0,1.0,1.0,448.2291709864512,1.0,2.0,phase_1,,,,,,,,,,,,,yellow,square
0.0,8.0,0.0,1.0,1.0,1.0,382.9358340008184,1.0,1.0,phase_1,,,,,,,,,,,,,magenta,flipped triangle
303.0,2.0,1.0,0.0,4.0,4.0,317.9971090285107,1.0,1.0,phase_1,,,,,,,,,,,,,blue,circle
630.0,3.0,2.0,0.0,1.0,1.0,428.7458829930983,1.0,1.0,phase_1,,,,,,,,,,,,,orange,diamond
163.0,1.0,0.5,0.0,4.0,4.0,391.8671290157363,1.0,1.0,phase_1,,,,,,,,,,,,,gray,hexagon
661.0,3.0,2.0,0.0,3.0,3.0,336.9855180499144,1.0,1.0,phase_1,,,,,,,,,,,,,orange,diamond
660.0,3.0,2.0,0.0,2.0,2.0,317.4422479933128,1.0,1.0,phase_1,,,,,,,,,,,,,orange,diamond
656.0,7.0,2.0,1.0,1.0,1.0,355.2537199575454,1.0,1.0,phase_1,,,,,,,,,,,,,yellow,square
1293.0,4.0,4.0,0.0,2.0,2.0,316.2774780066684,1.0,2.0,phase_1,,,,,,,,,,,,,cyan,triangle
0.0,1.0,0.0,0.0,4.0,4.0,344.7473340202123,1.0,1.0,phase_1,,,,,,,,,,,,,gray,hexagon
1291.0,4.0,4.0,0.0,4.0,4.0,371.8179939896799,1.0,1.0,phase_1,,,,,,,,,,,,,cyan,triangle
0.0,4.0,0.0,0.0,2.0,2.0,390.9356609801762,1.0,1.0,phase_1,,,,,,,,,,,,,cyan,triangle
668.0,7.0,2.0,1.0,1.0,1.0,513.4173690457828,1.0,1.0,phase_1,,,,,,,,,,,,,yellow,square
0.0,8.0,0.0,1.0,2.0,2.0,474.728622008115,2.0,1.0,phase_1,,,,,,,,,,,,,magenta,flipped triangle
331.0,6.0,1.0,1.0,1.0,1.0,382.9624410136603,2.0,1.0,phase_1,,,,,,,,,,,,,white,cross
660.0,7.0,2.0,1.0,2.0,2.0,373.0857070186175,2.0,1.0,phase_1,,,,,,,,,,,,,yellow,square
151.0,5.0,0.5,1.0,2.0,2.0,400.4593870486133,2.0,1.0,phase_1,,,,,,,,,,,,,green,I
0.0,2.0,0.0,0.0,4.0,4.0,298.9797830232419,2.0,1.0,phase_1,,,,,,,,,,,,,blue,circle
0.0,7.0,0.0,1.0,2.0,2.0,298.0561669683084,2.0,1.0,phase_1,,,,,,,,,,,,,yellow,square
1292.0,4.0,4.0,0.0,2.0,2.0,316.9039739877917,2.0,1.0,phase_1,,,,,,,,,,,,,cyan,triangle
0.0,4.0,0.0,0.0,1.0,1.0,288.6313190101646,2.0,1.0,phase_1,,,,,,,,,,,,,cyan,triangle
342.0,6.0,1.0,1.0,1.0,1.0,317.47708999319,2.0,1.0,phase_1,,,,,,,,,,,,,white,cross
641.0,3.0,2.0,0.0,3.0,3.0,373.7644079956226,2.0,2.0,phase_1,,,,,,,,,,,,,orange,diamond
171.0,1.0,0.5,0.0,3.0,3.0,381.4421219867654,2.0,1.0,phase_1,,,,,,,,,,,,,gray,hexagon
303.0,6.0,1.0,1.0,2.0,2.0,315.8446990419179,2.0,1.0,phase_1,,,,,,,,,,,,,white,cross
332.0,2.0,1.0,0.0,3.0,3.0,392.1510520158335,2.0,1.0,phase_1,,,,,,,,,,,,,blue,circle
1289.0,8.0,4.0,1.0,3.0,3.0,419.835754961241,2.0,1.0,phase_1,,,,,,,,,,,,,magenta,flipped triangle
634.0,3.0,2.0,0.0,1.0,1.0,504.7134270425886,2.0,1.0,phase_1,,,,,,,,,,,,,orange,diamond
303.0,2.0,1.0,0.0,3.0,3.0,372.6011199760251,2.0,1.0,phase_1,,,,,,,,,,,,,blue,circle
0.0,7.0,0.0,1.0,2.0,2.0,455.9897540020756,2.0,1.0,phase_1,,,,,,,,,,,,,yellow,square
1298.0,8.0,4.0,1.0,4.0,4.0,346.1848020087927,2.0,1.0,phase_1,,,,,,,,,,,,,magenta,flipped triangle
178.0,1.0,0.5,0.0,1.0,1.0,345.8154899999499,2.0,1.0,phase_1,,,,,,,,,,,,,gray,hexagon
629.0,3.0,2.0,0.0,2.0,2.0,475.357602990698,2.0,1.0,phase_1,,,,,,,,,,,,,orange,diamond
0.0,8.0,0.0,1.0,3.0,3.0,354.5265689608641,2.0,1.0,phase_1,,,,,,,,,,,,,magenta,flipped triangle
141.0,5.0,0.5,1.0,4.0,4.0,399.9832979752682,2.0,1.0,phase_1,,,,,,,,,,,,,green,I
335.0,2.0,1.0,0.0,1.0,1.0,512.7274389960803,2.0,1.0,phase_1,,,,,,,,,,,,,blue,circle
145.0,1.0,0.5,0.0,3.0,3.0,449.7472420334816,2.0,1.0,phase_1,,,,,,,,,,,,,gray,hexagon
0.0,8.0,0.0,1.0,2.0,2.0,336.3067029858939,2.0,1.0,phase_1,,,,,,,,,,,,,magenta,flipped triangle
671.0,3.0,2.0,0.0,2.0,2.0,383.1868410343304,2.0,1.0,phase_1,,,,,,,,,,,,,orange,diamond
306.0,6.0,1.0,1.0,2.0,2.0,344.1341050202027,2.0,1.0,phase_1,,,,,,,,,,,,,white,cross
660.0,3.0,2.0,0.0,3.0,3.0,261.9192939600907,2.0,1.0,phase_1,,,,,,,,,,,,,orange,diamond
0.0,2.0,0.0,0.0,2.0,2.0,392.0089739840477,2.0,1.0,phase_1,,,,,,,,,,,,,blue,circle
0.0,5.0,0.0,1.0,2.0,2.0,309.1413580114022,2.0,1.0,phase_1,,,,,,,,,,,,,green,I
0.0,8.0,0.0,1.0,1.0,1.0,431.3986410270445,2.0,1.0,phase_1,,,,,,,,,,,,,magenta,flipped triangle
658.0,7.0,2.0,1.0,2.0,2.0,410.271430038847,2.0,1.0,phase_1,,,,,,,,,,,,,yellow,square
0.0,4.0,0.0,0.0,1.0,1.0,457.3436270002275,2.0,1.0,phase_1,,,,,,,,,,,,,cyan,triangle
0.0,6.0,0.0,1.0,2.0,2.0,300.0127910054289,2.0,1.0,phase_1,,,,,,,,,,,,,white,cross
313.0,6.0,1.0,1.0,1.0,1.0,318.090740009211,2.0,1.0,phase_1,,,,,,,,,,,,,white,cross
1324.0,4.0,4.0,0.0,3.0,3.0,429.6781499870121,2.0,1.0,phase_1,,,,,,,,,,,,,cyan,triangle
346.0,2.0,1.0,0.0,2.0,2.0,316.1850130418315,2.0,1.0,phase_1,,,,,,,,,,,,,blue,circle
668.0,3.0,2.0,0.0,4.0,4.0,373.5312820062972,2.0,1.0,phase_1,,,,,,,,,,,,,orange,diamond
661.0,7.0,2.0,1.0,2.0,2.0,335.1496279938146,2.0,1.0,phase_1,,,,,,,,,,,,,yellow,square
137.0,1.0,0.5,0.0,1.0,1.0,475.6663360167295,2.0,1.0,phase_1,,,,,,,,,,,,,gray,hexagon
326.0,2.0,1.0,0.0,4.0,4.0,607.6275110244751,2.0,1.0,phase_1,,,,,,,,,,,,,blue,circle
342.0,2.0,1.0,0.0,3.0,3.0,364.6803689771332,2.0,1.0,phase_1,,,,,,,,,,,,,blue,circle
1304.0,4.0,4.0,0.0,1.0,1.0,396.4679409982636,2.0,1.0,phase_1,,,,,,,,,,,,,cyan,triangle
0.0,5.0,0.0,1.0,3.0,3.0,382.2789670084603,2.0,1.0,phase_1,,,,,,,,,,,,,green,I
638.0,7.0,2.0,1.0,1.0,1.0,420.0582370394841,2.0,1.0,phase_1,,,,,,,,,,,,,yellow,square
627.0,7.0,2.0,1.0,2.0,2.0,484.5949879963882,2.0,1.0,phase_1,,,,,,,,,,,,,yellow,square
0.0,4.0,0.0,0.0,4.0,4.0,475.016686017625,2.0,1.0,phase_1,,,,,,,,,,,,,cyan,triangle
184.0,1.0,0.5,0.0,1.0,1.0,465.729035960976,2.0,1.0,phase_1,,,,,,,,,,,,,gray,hexagon
141.0,1.0,0.5,0.0,1.0,1.0,457.0916250231676,2.0,1.0,phase_1,,,,,,,,,,,,,gray,hexagon
175.0,5.0,0.5,1.0,1.0,1.0,439.156559004914,2.0,1.0,phase_1,,,,,,,,,,,,,green,I
675.0,3.0,2.0,0.0,1.0,1.0,354.0415710303932,2.0,1.0,phase_1,,,,,,,,,,,,,orange,diamond
179.0,5.0,0.5,1.0,1.0,1.0,335.5012700194493,2.0,1.0,phase_1,,,,,,,,,,,,,green,I
157.0,5.0,0.5,1.0,1.0,1.0,375.5423160037026,2.0,1.0,phase_1,,,,,,,,,,,,,green,I
338.0,2.0,1.0,0.0,2.0,2.0,373.1581050087698,2.0,1.0,phase_1,,,,,,,,,,,,,blue,circle
650.0,3.0,2.0,0.0,1.0,1.0,335.3017790359445,2.0,1.0,phase_1,,,,,,,,,,,,,orange,diamond
1282.0,8.0,4.0,1.0,4.0,4.0,308.7564430315979,2.0,1.0,phase_1,,,,,,,,,,,,,magenta,flipped triangle
651.0,7.0,2.0,1.0,2.0,2.0,363.0152400000952,2.0,1.0,phase_1,,,,,,,,,,,,,yellow,square
141.0,5.0,0.5,1.0,4.0,4.0,344.8288959916681,2.0,1.0,phase_1,,,,,,,,,,,,,green,I
145.0,5.0,0.5,1.0,3.0,3.0,337.0230630389415,2.0,1.0,phase_1,,,,,,,,,,,,,green,I
668.0,7.0,2.0,1.0,1.0,1.0,335.8759830007329,2.0,1.0,phase_1,,,,,,,,,,,,,yellow,square
1293.0,8.0,4.0,1.0,2.0,2.0,346.1649140226654,2.0,1.0,phase_1,,,,,,,,,,,,,magenta,flipped triangle
0.0,6.0,0.0,1.0,1.0,1.0,456.9869979750365,2.0,1.0,phase_1,,,,,,,,,,,,,white,cross
143.0,1.0,0.5,0.0,4.0,4.0,308.1509909825399,2.0,1.0,phase_1,,,,,,,,,,,,,gray,hexagon
668.0,3.0,2.0,0.0,2.0,2.0,335.7709840056486,2.0,1.0,phase_1,,,,,,,,,,,,,orange,diamond
174.0,1.0,0.5,0.0,3.0,3.0,344.95992801385,2.0,1.0,phase_1,,,,,,,,,,,,,gray,hexagon
185.0,1.0,0.5,0.0,2.0,2.0,540.9742370247841,2.0,1.0,phase_1,,,,,,,,,,,,,gray,hexagon
1311.0,4.0,4.0,0.0,2.0,2.0,363.5051320306957,2.0,1.0,phase_1,,,,,,,,,,,,,cyan,triangle
1313.0,4.0,4.0,0.0,1.0,1.0,413.0449490039609,2.0,1.0,phase_1,,,,,,,,,,,,,cyan,triangle
335.0,6.0,1.0,1.0,3.0,3.0,392.1653940342366,2.0,1.0,phase_1,,,,,,,,,,,,,white,cross
181.0,1.0,0.5,0.0,2.0,2.0,336.3816430210136,2.0,1.0,phase_1,,,,,,,,,,,,,gray,hexagon
0.0,7.0,0.0,1.0,3.0,3.0,374.8499540379271,2.0,1.0,phase_1,,,,,,,,,,,,,yellow,square
303.0,2.0,1.0,0.0,2.0,2.0,364.002505026292,2.0,1.0,phase_1,,,,,,,,,,,,,blue,circle
0.0,6.0,0.0,1.0,4.0,4.0,299.2247340152971,2.0,1.0,phase_1,,,,,,,,,,,,,white,cross
343.0,2.0,1.0,0.0,4.0,4.0,298.6062910058535,2.0,1.0,phase_1,,,,,,,,,,,,,blue,circle
640.0,3.0,2.0,0.0,3.0,3.0,298.8718269625678,2.0,1.0,phase_1,,,,,,,,,,,,,orange,diamond
0.0,4.0,0.0,0.0,1.0,1.0,372.862073010765,2.0,1.0,phase_1,,,,,,,,,,,,,cyan,triangle
301.0,6.0,1.0,1.0,4.0,4.0,354.3147600139491,2.0,1.0,phase_1,,,,,,,,,,,,,white,cross
630.0,7.0,2.0,1.0,3.0,3.0,318.5563729493879,2.0,1.0,phase_1,,,,,,,,,,,,,yellow,square
654.0,3.0,2.0,0.0,3.0,3.0,364.8320839856751,2.0,1.0,phase_1,,,,,,,,,,,,,orange,diamond
0.0,7.0,0.0,1.0,3.0,3.0,297.876089985948,2.0,1.0,phase_1,,,,,,,,,,,,,yellow,square
317.0,2.0,1.0,0.0,4.0,4.0,318.7873139977455,2.0,1.0,phase_1,,,,,,,,,,,,,blue,circle
1297.0,4.0,4.0,0.0,3.0,3.0,374.0004759747535,2.0,1.0,phase_1,,,,,,,,,,,,,cyan,triangle
634.0,7.0,2.0,1.0,4.0,4.0,299.6146809891797,2.0,1.0,phase_1,,,,,,,,,,,,,yellow,square
0.0,3.0,0.0,0.0,1.0,1.0,447.1425110241398,2.0,2.0,phase_1,,,,,,,,,,,,,orange,diamond
313.0,2.0,1.0,0.0,1.0,1.0,372.4415040342137,2.0,1.0,phase_1,,,,,,,,,,,,,blue,circle
327.0,6.0,1.0,1.0,3.0,3.0,339.0484019764699,2.0,1.0,phase_1,,,,,,,,,,,,,white,cross
347.0,6.0,1.0,1.0,4.0,4.0,410.1725770160556,2.0,1.0,phase_1,,,,,,,,,,,,,white,cross
0.0,1.0,0.0,0.0,1.0,1.0,464.8004980408586,2.0,1.0,phase_1,,,,,,,,,,,,,gray,hexagon
0.0,7.0,0.0,1.0,2.0,2.0,437.8853570087813,2.0,1.0,phase_1,,,,,,,,,,,,,yellow,square
306.0,2.0,1.0,0.0,3.0,3.0,327.4754430167377,2.0,1.0,phase_1,,,,,,,,,,,,,blue,circle
327.0,6.0,1.0,1.0,3.0,3.0,363.8847240363247,2.0,2.0,phase_1,,,,,,,,,,,,,white,cross
0.0,5.0,0.0,1.0,2.0,2.0,327.4747059913352,2.0,1.0,phase_1,,,,,,,,,,,,,green,I
0.0,1.0,0.0,0.0,4.0,4.0,299.8203279566951,2.0,1.0,phase_1,,,,,,,,,,,,,gray,hexagon
175.0,1.0,0.5,0.0,2.0,2.0,354.4434260111302,2.0,1.0,phase_1,,,,,,,,,,,,,gray,hexagon
642.0,3.0,2.0,0.0,1.0,1.0,511.5020429948345,2.0,1.0,phase_1,,,,,,,,,,,,,orange,diamond
141.0,5.0,0.5,1.0,1.0,1.0,464.9991869810037,2.0,1.0,phase_1,,,,,,,,,,,,,green,I
630.0,3.0,2.0,0.0,1.0,1.0,392.0618030242622,2.0,1.0,phase_1,,,,,,,,,,,,,orange,diamond
333.0,2.0,1.0,0.0,4.0,4.0,400.8509789709933,2.0,1.0,phase_1,,,,,,,,,,,,,blue,circle
315.0,6.0,1.0,1.0,3.0,3.0,391.646348987706,2.0,1.0,phase_1,,,,,,,,,,,,,white,cross
1292.0,8.0,4.0,1.0,4.0,4.0,357.2825560113415,2.0,1.0,phase_1,,,,,,,,,,,,,magenta,flipped triangle
149.0,1.0,0.5,0.0,3.0,3.0,0.24441198911509998,3.0,2.0,phase_1,,,,,,,,,,,,,gray,hexagon
332.0,6.0,1.0,1.0,1.0,1.0,475.5063370103016,3.0,1.0,phase_1,,,,,,,,,,,,,white,cross
641.0,3.0,2.0,0.0,4.0,4.0,289.1288169776089,3.0,1.0,phase_1,,,,,,,,,,,,,orange,diamond
654.0,7.0,2.0,1.0,2.0,2.0,364.6762419957667,3.0,1.0,phase_1,,,,,,,,,,,,,yellow,square
338.0,6.0,1.0,1.0,1.0,1.0,438.8316590338945,3.0,1.0,phase_1,,,,,,,,,,,,,white,cross
1320.0,8.0,4.0,1.0,3.0,3.0,364.3378129927441,3.0,1.0,phase_1,,,,,,,,,,,,,magenta,flipped triangle
162.0,5.0,0.5,1.0,2.0,2.0,382.356580987107,3.0,1.0,phase_1,,,,,,,,,,,,,green,I
1319.0,4.0,4.0,0.0,2.0,2.0,428.7510379799641,3.0,1.0,phase_1,,,,,,,,,,,,,cyan,triangle
0.0,3.0,0.0,0.0,4.0,4.0,345.1992819900624,3.0,1.0,phase_1,,,,,,,,,,,,,orange,diamond
333.0,6.0,1.0,1.0,2.0,2.0,512.0206819847226,3.0,1.0,phase_1,,,,,,,,,,,,,white,cross
0.0,3.0,0.0,0.0,4.0,4.0,409.1327849891968,3.0,1.0,phase_1,,,,,,,,,,,,,orange,diamond
1315.0,8.0,4.0,1.0,2.0,2.0,335.4594979900867,3.0,1.0,phase_1,,,,,,,,,,,,,magenta,flipped triangle
0.0,4.0,0.0,0.0,3.0,3.0,484.6547550405375,3.0,1.0,phase_1,,,,,,,,,,,,,cyan,triangle
1297.0,8.0,4.0,1.0,3.0,3.0,438.1219170172699,3.0,1.0,phase_1,,,,,,,,,,,,,magenta,flipped triangle
154.0,1.0,0.5,0.0,1.0,1.0,633.0079669714905,3.0,1.0,phase_1,,,,,,,,,,,,,gray,hexagon
333.0,6.0,1.0,1.0,4.0,4.0,308.7184970499947,3.0,1.0,phase_1,,,,,,,,,,,,,white,cross
1281.0,4.0,4.0,0.0,1.0,1.0,494.7621390456334,3.0,1.0,phase_1,,,,,,,,,,,,,cyan,triangle
656.0,3.0,2.0,0.0,1.0,1.0,411.6217099945061,3.0,1.0,phase_1,,,,,,,,,,,,,orange,diamond
308.0,2.0,1.0,0.0,3.0,3.0,402.39229996223,3.0,1.0,phase_1,,,,,,,,,,,,,blue,circle
310.0,2.0,1.0,0.0,3.0,3.0,428.7520209909417,3.0,1.0,phase_1,,,,,,,,,,,,,blue,circle
1300.0,4.0,4.0,0.0,3.0,3.0,410.0754929822869,3.0,1.0,phase_1,,,,,,,,,,,,,cyan,triangle
0.0,1.0,0.0,0.0,2.0,2.0,345.6569320405833,3.0,1.0,phase_1,,,,,,,,,,,,,gray,hexagon
184.0,5.0,0.5,1.0,4.0,4.0,336.5110179875046,3.0,1.0,phase_1,,,,,,,,,,,,,green,I
632.0,7.0,2.0,1.0,3.0,3.0,364.2994299880229,3.0,1.0,phase_1,,,,,,,,,,,,,yellow,square
627.0,3.0,2.0,0.0,3.0,3.0,345.6580720376223,3.0,1.0,phase_1,,,,,,,,,,,,,orange,diamond
1319.0,4.0,4.0,0.0,4.0,4.0,355.4738680250011,3.0,1.0,phase_1,,,,,,,,,,,,,cyan,triangle
1291.0,8.0,4.0,1.0,1.0,1.0,392.0691920211538,3.0,1.0,phase_1,,,,,,,,,,,,,magenta,flipped triangle
165.0,1.0,0.5,0.0,4.0,4.0,411.4346919814124,3.0,1.0,phase_1,,,,,,,,,,,,,gray,hexagon
326.0,6.0,1.0,1.0,2.0,2.0,493.93765500281,3.0,1.0,phase_1,,,,,,,,,,,,,white,cross
1282.0,8.0,4.0,1.0,3.0,3.0,316.7023049900308,3.0,1.0,phase_1,,,,,,,,,,,,,magenta,flipped triangle
141.0,1.0,0.5,0.0,3.0,3.0,363.5460959631018,3.0,1.0,phase_1,,,,,,,,,,,,,gray,hexagon
1324.0,8.0,4.0,1.0,2.0,2.0,401.5310720424168,3.0,1.0,phase_1,,,,,,,,,,,,,magenta,flipped triangle
1300.0,8.0,4.0,1.0,3.0,3.0,336.6069170297123,3.0,1.0,phase_1,,,,,,,,,,,,,magenta,flipped triangle
0.0,5.0,0.0,1.0,4.0,4.0,390.7012169947848,3.0,1.0,phase_1,,,,,,,,,,,,,green,I
671.0,7.0,2.0,1.0,4.0,4.0,390.9862339496612,3.0,1.0,phase_1,,,,,,,,,,,,,yellow,square
169.0,1.0,0.5,0.0,1.0,1.0,419.7048830101266,3.0,1.0,phase_1,,,,,,,,,,,,,gray,hexagon
183.0,1.0,0.5,0.0,4.0,4.0,354.3183350120671,3.0,1.0,phase_1,,,,,,,,,,,,,gray,hexagon
350.0,2.0,1.0,0.0,3.0,3.0,373.9544780110009,3.0,1.0,phase_1,,,,,,,,,,,,,blue,circle
165.0,5.0,0.5,1.0,4.0,4.0,298.1072060065344,3.0,1.0,phase_1,,,,,,,,,,,,,green,I
656.0,3.0,2.0,0.0,2.0,2.0,419.4508780492469,3.0,1.0,phase_1,,,,,,,,,,,,,orange,diamond
0.0,3.0,0.0,0.0,1.0,1.0,456.8419930292293,3.0,1.0,phase_1,,,,,,,,,,,,,orange,diamond
1315.0,4.0,4.0,0.0,1.0,1.0,410.46695096883917,3.0,1.0,phase_1,,,,,,,,,,,,,cyan,triangle
163.0,5.0,0.5,1.0,3.0,3.0,344.923160970211,3.0,1.0,phase_1,,,,,,,,,,,,,green,I
0.0,8.0,0.0,1.0,4.0,4.0,364.7609559702687,3.0,1.0,phase_1,,,,,,,,,,,,,magenta,flipped triangle
636.0,7.0,2.0,1.0,4.0,4.0,345.6123339710757,3.0,1.0,phase_1,,,,,,,,,,,,,yellow,square
659.0,3.0,2.0,0.0,4.0,4.0,317.0721170026809,3.0,1.0,phase_1,,,,,,,,,,,,,orange,diamond
629.0,7.0,2.0,1.0,4.0,4.0,308.9671320049092,3.0,1.0,phase_1,,,,,,,,,,,,,yellow,square
301.0,2.0,1.0,0.0,2.0,2.0,513.6468359851278,3.0,1.0,phase_1,,,,,,,,,,,,,blue,circle
308.0,6.0,1.0,1.0,2.0,2.0,392.3660030122846,3.0,1.0,phase_1,,,,,,,,,,,,,white,cross
1304.0,8.0,4.0,1.0,1.0,1.0,437.5413780217059,3.0,1.0,phase_1,,,,,,,,,,,,,magenta,flipped triangle
1307.0,8.0,4.0,1.0,2.0,2.0,419.6660559973679,3.0,1.0,phase_1,,,,,,,,,,,,,magenta,flipped triangle
328.0,6.0,1.0,1.0,3.0,3.0,326.1806460213847,3.0,1.0,phase_1,,,,,,,,,,,,,white,cross
646.0,3.0,2.0,0.0,1.0,1.0,391.9584609684534,3.0,1.0,phase_1,,,,,,,,,,,,,orange,diamond
1294.0,4.0,4.0,0.0,1.0,1.0,403.2005079789087,3.0,1.0,phase_1,,,,,,,,,,,,,cyan,triangle
0.0,3.0,0.0,0.0,3.0,3.0,326.8717059982009,3.0,1.0,phase_1,,,,,,,,,,,,,orange,diamond
182.0,1.0,0.5,0.0,4.0,4.0,447.7143569965847,3.0,1.0,phase_1,,,,,,,,,,,,,gray,hexagon
185.0,1.0,0.5,0.0,2.0,2.0,561.0396509873681,3.0,1.0,phase_1,,,,,,,,,,,,,gray,hexagon
639.0,7.0,2.0,1.0,4.0,4.0,364.5102260052226,3.0,1.0,phase_1,,,,,,,,,,,,,yellow,square
0.0,7.0,0.0,1.0,1.0,1.0,661.4000640111044,3.0,1.0,phase_1,,,,,,,,,,,,,yellow,square
304.0,6.0,1.0,1.0,2.0,2.0,382.4274410144426,3.0,1.0,phase_1,,,,,,,,,,,,,white,cross
1297.0,4.0,4.0,0.0,3.0,3.0,495.0978200067766,3.0,1.0,phase_1,,,,,,,,,,,,,cyan,triangle
304.0,2.0,1.0,0.0,1.0,1.0,401.1152510065585,3.0,1.0,phase_1,,,,,,,,,,,,,blue,circle
142.0,5.0,0.5,1.0,1.0,1.0,457.0135760004632,3.0,1.0,phase_1,,,,,,,,,,,,,green,I
1283.0,8.0,4.0,1.0,1.0,1.0,374.020479968749,3.0,1.0,phase_1,,,,,,,,,,,,,magenta,flipped triangle
1294.0,8.0,4.0,1.0,4.0,4.0,352.7139090001583,3.0,1.0,phase_1,,,,,,,,,,,,,magenta,flipped triangle
1300.0,8.0,4.0,1.0,2.0,2.0,401.63532999577,3.0,1.0,phase_1,,,,,,,,,,,,,magenta,flipped triangle
0.0,1.0,0.0,0.0,4.0,4.0,345.0258359662257,3.0,1.0,phase_1,,,,,,,,,,,,,gray,hexagon
1308.0,4.0,4.0,0.0,2.0,2.0,394.4252849905751,3.0,1.0,phase_1,,,,,,,,,,,,,cyan,triangle
185.0,5.0,0.5,1.0,2.0,2.0,456.6496140323579,3.0,1.0,phase_1,,,,,,,,,,,,,green,I
1289.0,8.0,4.0,1.0,3.0,3.0,411.2630650051869,3.0,1.0,phase_1,,,,,,,,,,,,,magenta,flipped triangle
1289.0,4.0,4.0,0.0,2.0,2.0,541.3150920066983,3.0,1.0,phase_1,,,,,,,,,,,,,cyan,triangle
1308.0,4.0,4.0,0.0,3.0,3.0,372.7991050109267,3.0,1.0,phase_1,,,,,,,,,,,,,cyan,triangle
306.0,2.0,1.0,0.0,3.0,3.0,448.2804400031455,3.0,1.0,phase_1,,,,,,,,,,,,,blue,circle
1293.0,8.0,4.0,1.0,4.0,4.0,381.6581630380824,3.0,1.0,phase_1,,,,,,,,,,,,,magenta,flipped triangle
140.0,5.0,0.5,1.0,1.0,1.0,651.916901988443,3.0,1.0,phase_1,,,,,,,,,,,,,green,I
158.0,5.0,0.5,1.0,1.0,1.0,559.1357150115073,3.0,1.0,phase_1,,,,,,,,,,,,,green,I
140.0,1.0,0.5,0.0,3.0,3.0,391.9935940066352,3.0,1.0,phase_1,,,,,,,,,,,,,gray,hexagon
320.0,2.0,1.0,0.0,2.0,2.0,511.9246789836325,3.0,1.0,phase_1,,,,,,,,,,,,,blue,circle
350.0,6.0,1.0,1.0,4.0,4.0,345.6725070136599,3.0,1.0,phase_1,,,,,,,,,,,,,white,cross
674.0,7.0,2.0,1.0,2.0,2.0,344.5867450209334,3.0,1.0,phase_1,,,,,,,,,,,,,yellow,square
306.0,6.0,1.0,1.0,4.0,4.0,466.3085140055045,3.0,1.0,phase_1,,,,,,,,,,,,,white,cross
0.0,2.0,0.0,0.0,4.0,4.0,392.0256450073793,3.0,1.0,phase_1,,,,,,,,,,,,,blue,circle
149.0,5.0,0.5,1.0,4.0,4.0,335.461092996411,3.0,1.0,phase_1,,,,,,,,,,,,,green,I
643.0,7.0,2.0,1.0,3.0,3.0,438.0378050263971,3.0,1.0,phase_1,,,,,,,,,,,,,yellow,square
651.0,3.0,2.0,0.0,4.0,4.0,380.6116000050679,3.0,1.0,phase_1,,,,,,,,,,,,,orange,diamond
152.0,5.0,0.5,1.0,2.0,2.0,352.9715440236032,3.0,1.0,phase_1,,,,,,,,,,,,,green,I
177.0,1.0,0.5,0.0,2.0,2.0,437.6819499884732,3.0,1.0,phase_1,,,,,,,,,,,,,gray,hexagon
303.0,6.0,1.0,1.0,2.0,2.0,467.3137140343897,3.0,1.0,phase_1,,,,,,,,,,,,,white,cross
647.0,7.0,2.0,1.0,3.0,3.0,315.3506490052677,3.0,1.0,phase_1,,,,,,,,,,,,,yellow,square
0.0,1.0,0.0,0.0,2.0,2.0,494.1369480220601,3.0,1.0,phase_1,,,,,,,,,,,,,gray,hexagon
152.0,1.0,0.5,0.0,2.0,2.0,306.6791159799322,3.0,1.0,phase_1,,,,,,,,,,,,,gray,hexagon
0.0,8.0,0.0,1.0,1.0,1.0,503.6541590234265,3.0,1.0,phase_1,,,,,,,,,,,,,magenta,flipped triangle
1311.0,8.0,4.0,1.0,1.0,1.0,382.3274039896205,3.0,1.0,phase_1,,,,,,,,,,,,,magenta,flipped triangle
310.0,2.0,1.0,0.0,4.0,4.0,364.5129509968683,3.0,1.0,phase_1,,,,,,,,,,,,,blue,circle
660.0,7.0,2.0,1.0,3.0,3.0,401.1916409945115,3.0,1.0,phase_1,,,,,,,,,,,,,yellow,square
1292.0,4.0,4.0,0.0,1.0,1.0,672.2487889928743,3.0,1.0,phase_1,,,,,,,,,,,,,cyan,triangle
142.0,1.0,0.5,0.0,3.0,3.0,373.1069479836151,3.0,1.0,phase_1,,,,,,,,,,,,,gray,hexagon
1276.0,8.0,4.0,1.0,3.0,3.0,355.6185570196248,3.0,1.0,phase_1,,,,,,,,,,,,,magenta,flipped triangle
1306.0,8.0,4.0,1.0,1.0,1.0,736.5412529907189,3.0,1.0,phase_1,,,,,,,,,,,,,magenta,flipped triangle
1306.0,4.0,4.0,0.0,2.0,2.0,495.5406770459376,3.0,1.0,phase_1,,,,,,,,,,,,,cyan,triangle
173.0,1.0,0.5,0.0,3.0,3.0,353.7663460010662,4.0,1.0,phase_1,,,,,,,,,,,,,gray,hexagon
149.0,5.0,0.5,1.0,3.0,3.0,391.5375879732892,4.0,1.0,phase_1,,,,,,,,,,,,,green,I
1300.0,4.0,4.0,0.0,3.0,3.0,326.4589300379157,4.0,1.0,phase_1,,,,,,,,,,,,,cyan,triangle
0.0,4.0,0.0,0.0,3.0,3.0,93.7055789981968,4.0,1.0,phase_1,,,,,,,,,,,,,cyan,triangle
1319.0,8.0,4.0,1.0,4.0,4.0,363.587970030494,4.0,1.0,phase_1,,,,,,,,,,,,,magenta,flipped triangle
185.0,5.0,0.5,1.0,3.0,3.0,579.9453289946541,4.0,1.0,phase_1,,,,,,,,,,,,,green,I
1301.0,4.0,4.0,0.0,4.0,4.0,484.4937130110338,4.0,1.0,phase_1,,,,,,,,,,,,,cyan,triangle
158.0,1.0,0.5,0.0,4.0,4.0,559.4257949851453,4.0,1.0,phase_1,,,,,,,,,,,,,gray,hexagon
156.0,5.0,0.5,1.0,4.0,4.0,336.1627170233987,4.0,1.0,phase_1,,,,,,,,,,,,,green,I
1310.0,8.0,4.0,1.0,4.0,4.0,373.1225210358388,4.0,1.0,phase_1,,,,,,,,,,,,,magenta,flipped triangle
640.0,7.0,2.0,1.0,3.0,3.0,336.7303360137157,4.0,1.0,phase_1,,,,,,,,,,,,,yellow,square
1283.0,4.0,4.0,0.0,2.0,2.0,365.1444229763001,4.0,1.0,phase_1,,,,,,,,,,,,,cyan,triangle
175.0,5.0,0.5,1.0,3.0,3.0,401.2220749864355,4.0,1.0,phase_1,,,,,,,,,,,,,green,I
645.0,3.0,2.0,0.0,4.0,4.0,410.2883480372838,4.0,1.0,phase_1,,,,,,,,,,,,,orange,diamond
641.0,7.0,2.0,1.0,4.0,4.0,364.2884410219267,4.0,1.0,phase_1,,,,,,,,,,,,,yellow,square
1297.0,8.0,4.0,1.0,2.0,2.0,326.6028850339353,4.0,1.0,phase_1,,,,,,,,,,,,,magenta,flipped triangle
1301.0,8.0,4.0,1.0,3.0,3.0,494.8325250297785,4.0,1.0,phase_1,,,,,,,,,,,,,magenta,flipped triangle
340.0,6.0,1.0,1.0,3.0,3.0,400.4260820220224,4.0,1.0,phase_1,,,,,,,,,,,,,white,cross
333.0,2.0,1.0,0.0,1.0,1.0,484.6966549521312,4.0,1.0,phase_1,,,,,,,,,,,,,blue,circle
640.0,7.0,2.0,1.0,3.0,3.0,317.6270469557494,4.0,1.0,phase_1,,,,,,,,,,,,,yellow,square
0.0,3.0,0.0,0.0,4.0,4.0,346.0530739976093,4.0,1.0,phase_1,,,,,,,,,,,,,orange,diamond
674.0,3.0,2.0,0.0,3.0,3.0,317.5254699890502,4.0,1.0,phase_1,,,,,,,,,,,,,orange,diamond
331.0,2.0,1.0,0.0,2.0,2.0,373.3621769933961,4.0,1.0,phase_1,,,,,,,,,,,,,blue,circle
173.0,5.0,0.5,1.0,4.0,4.0,326.9237789791077,4.0,1.0,phase_1,,,,,,,,,,,,,green,I
141.0,1.0,0.5,0.0,3.0,3.0,345.8960859570652,4.0,1.0,phase_1,,,,,,,,,,,,,gray,hexagon
1307.0,4.0,4.0,0.0,3.0,3.0,390.282467007637,4.0,1.0,phase_1,,,,,,,,,,,,,cyan,triangle
630.0,7.0,2.0,1.0,3.0,3.0,354.7043990110978,4.0,1.0,phase_1,,,,,,,,,,,,,yellow,square
315.0,2.0,1.0,0.0,1.0,1.0,550.1795450109057,4.0,1.0,phase_1,,,,,,,,,,,,,blue,circle
670.0,7.0,2.0,1.0,1.0,1.0,466.9517000438645,4.0,1.0,phase_1,,,,,,,,,,,,,yellow,square
183.0,5.0,0.5,1.0,3.0,3.0,344.9529240024276,4.0,1.0,phase_1,,,,,,,,,,,,,green,I
137.0,5.0,0.5,1.0,1.0,1.0,409.3325830181129,4.0,1.0,phase_1,,,,,,,,,,,,,green,I
0.0,5.0,0.0,1.0,3.0,3.0,336.3576450501568,4.0,1.0,phase_1,,,,,,,,,,,,,green,I
0.0,4.0,0.0,0.0,3.0,3.0,363.6651140404865,4.0,1.0,phase_1,,,,,,,,,,,,,cyan,triangle
1308.0,8.0,4.0,1.0,1.0,1.0,457.8680709819309,4.0,1.0,phase_1,,,,,,,,,,,,,magenta,flipped triangle
185.0,1.0,0.5,0.0,2.0,2.0,372.0782590098679,4.0,1.0,phase_1,,,,,,,,,,,,,gray,hexagon
0.0,6.0,0.0,1.0,4.0,4.0,317.6078050164506,4.0,1.0,phase_1,,,,,,,,,,,,,white,cross
1313.0,8.0,4.0,1.0,1.0,1.0,410.2192479767836,4.0,1.0,phase_1,,,,,,,,,,,,,magenta,flipped triangle
327.0,2.0,1.0,0.0,1.0,1.0,400.3431919845752,4.0,1.0,phase_1,,,,,,,,,,,,,blue,circle
639.0,3.0,2.0,0.0,4.0,4.0,328.0580390128307,4.0,1.0,phase_1,,,,,,,,,,,,,orange,diamond
0.0,6.0,0.0,1.0,4.0,4.0,374.3530829669907,4.0,1.0,phase_1,,,,,,,,,,,,,white,cross
1276.0,4.0,4.0,0.0,1.0,1.0,392.5682500121183,4.0,1.0,phase_1,,,,,,,,,,,,,cyan,triangle
1320.0,4.0,4.0,0.0,2.0,2.0,364.6588000119664,4.0,1.0,phase_1,,,,,,,,,,,,,cyan,triangle
0.0,8.0,0.0,1.0,2.0,2.0,364.889029006008,4.0,1.0,phase_1,,,,,,,,,,,,,magenta,flipped triangle
641.0,7.0,2.0,1.0,4.0,4.0,326.9253939506598,4.0,1.0,phase_1,,,,,,,,,,,,,yellow,square
0.0,1.0,0.0,0.0,4.0,4.0,363.9229430118575,4.0,1.0,phase_1,,,,,,,,,,,,,gray,hexagon
0.0,1.0,0.0,0.0,4.0,4.0,326.2645650538616,4.0,1.0,phase_1,,,,,,,,,,,,,gray,hexagon
343.0,6.0,1.0,1.0,3.0,3.0,354.4530820217915,4.0,1.0,phase_1,,,,,,,,,,,,,white,cross
0.0,7.0,0.0,1.0,1.0,1.0,383.1706390483305,4.0,1.0,phase_1,,,,,,,,,,,,,yellow,square
174.0,5.0,0.5,1.0,3.0,3.0,364.1756630386226,4.0,1.0,phase_1,,,,,,,,,,,,,green,I
328.0,2.0,1.0,0.0,4.0,4.0,366.8826160137541,4.0,1.0,phase_1,,,,,,,,,,,,,blue,circle
323.0,6.0,1.0,1.0,4.0,4.0,364.2733379965648,4.0,1.0,phase_1,,,,,,,,,,,,,white,cross
321.0,2.0,1.0,0.0,4.0,4.0,326.5821669483557,4.0,1.0,phase_1,,,,,,,,,,,,,blue,circle
1319.0,8.0,4.0,1.0,4.0,4.0,325.6628499948419,4.0,1.0,phase_1,,,,,,,,,,,,,magenta,flipped triangle
0.0,8.0,0.0,1.0,3.0,3.0,335.1142539759166,4.0,1.0,phase_1,,,,,,,,,,,,,magenta,flipped triangle
157.0,1.0,0.5,0.0,4.0,4.0,307.0475339773111,4.0,1.0,phase_1,,,,,,,,,,,,,gray,hexagon
340.0,2.0,1.0,0.0,3.0,3.0,344.6740999934263,4.0,1.0,phase_1,,,,,,,,,,,,,blue,circle
149.0,1.0,0.5,0.0,1.0,1.0,392.5354570383206,4.0,1.0,phase_1,,,,,,,,,,,,,gray,hexagon
185.0,5.0,0.5,1.0,2.0,2.0,345.4917749622836,4.0,1.0,phase_1,,,,,,,,,,,,,green,I
1293.0,4.0,4.0,0.0,4.0,4.0,560.3330149897374,4.0,1.0,phase_1,,,,,,,,,,,,,cyan,triangle
658.0,3.0,2.0,0.0,2.0,2.0,367.3443730222061,4.0,1.0,phase_1,,,,,,,,,,,,,orange,diamond
1292.0,8.0,4.0,1.0,1.0,1.0,373.5827410127967,4.0,1.0,phase_1,,,,,,,,,,,,,magenta,flipped triangle
658.0,3.0,2.0,0.0,4.0,4.0,317.439452977851,4.0,1.0,phase_1,,,,,,,,,,,,,orange,diamond
0.0,2.0,0.0,0.0,1.0,1.0,429.2387479799799,4.0,1.0,phase_1,,,,,,,,,,,,,blue,circle
321.0,6.0,1.0,1.0,3.0,3.0,280.3520889719948,4.0,1.0,phase_1,,,,,,,,,,,,,white,cross
310.0,6.0,1.0,1.0,2.0,2.0,401.68186597293237,4.0,1.0,phase_1,,,,,,,,,,,,,white,cross
175.0,1.0,0.5,0.0,1.0,1.0,401.1716080131009,4.0,1.0,phase_1,,,,,,,,,,,,,gray,hexagon
331.0,2.0,1.0,0.0,1.0,1.0,411.5133649902418,4.0,1.0,phase_1,,,,,,,,,,,,,blue,circle
643.0,3.0,2.0,0.0,2.0,2.0,344.9014779762365,4.0,1.0,phase_1,,,,,,,,,,,,,orange,diamond
345.0,2.0,1.0,0.0,2.0,2.0,458.0051169614307,4.0,1.0,phase_1,,,,,,,,,,,,,blue,circle
175.0,1.0,0.5,0.0,1.0,1.0,419.4714239565655,4.0,1.0,phase_1,,,,,,,,,,,,,gray,hexagon
1281.0,4.0,4.0,0.0,1.0,1.0,419.9820880312472,4.0,1.0,phase_1,,,,,,,,,,,,,cyan,triangle
175.0,5.0,0.5,1.0,4.0,4.0,542.4957739887759,4.0,1.0,phase_1,,,,,,,,,,,,,green,I
177.0,5.0,0.5,1.0,2.0,2.0,317.7567920065485,4.0,1.0,phase_1,,,,,,,,,,,,,green,I
656.0,3.0,2.0,0.0,4.0,4.0,308.8805549778044,4.0,1.0,phase_1,,,,,,,,,,,,,orange,diamond
181.0,5.0,0.5,1.0,3.0,3.0,365.0786110083572,4.0,1.0,phase_1,,,,,,,,,,,,,green,I
182.0,5.0,0.5,1.0,2.0,2.0,335.9900829964317,4.0,1.0,phase_1,,,,,,,,,,,,,green,I
664.0,3.0,2.0,0.0,1.0,1.0,364.9098650203086,4.0,1.0,phase_1,,,,,,,,,,,,,orange,diamond
0.0,2.0,0.0,0.0,1.0,1.0,375.4991270252503,4.0,1.0,phase_1,,,,,,,,,,,,,blue,circle
0.0,3.0,0.0,0.0,3.0,3.0,356.788067962043,4.0,1.0,phase_1,,,,,,,,,,,,,orange,diamond
320.0,6.0,1.0,1.0,3.0,3.0,317.3234070418402,4.0,1.0,phase_1,,,,,,,,,,,,,white,cross
340.0,6.0,1.0,1.0,1.0,1.0,401.2142119463533,4.0,1.0,phase_1,,,,,,,,,,,,,white,cross
645.0,7.0,2.0,1.0,2.0,2.0,298.7302499823272,4.0,1.0,phase_1,,,,,,,,,,,,,yellow,square
0.0,6.0,0.0,1.0,2.0,2.0,317.0747580006718,4.0,1.0,phase_1,,,,,,,,,,,,,white,cross
1281.0,8.0,4.0,1.0,3.0,3.0,347.0530709601007,4.0,1.0,phase_1,,,,,,,,,,,,,magenta,flipped triangle
646.0,7.0,2.0,1.0,3.0,3.0,326.8172669922933,4.0,1.0,phase_1,,,,,,,,,,,,,yellow,square
1276.0,8.0,4.0,1.0,1.0,1.0,484.3193449778482,4.0,1.0,phase_1,,,,,,,,,,,,,magenta,flipped triangle
0.0,1.0,0.0,0.0,3.0,3.0,316.3989740423858,4.0,1.0,phase_1,,,,,,,,,,,,,gray,hexagon
149.0,5.0,0.5,1.0,1.0,1.0,410.8563349582255,4.0,1.0,phase_1,,,,,,,,,,,,,green,I
346.0,2.0,1.0,0.0,2.0,2.0,466.251948964782,4.0,1.0,phase_1,,,,,,,,,,,,,blue,circle
143.0,5.0,0.5,1.0,4.0,4.0,344.1746460157446,4.0,1.0,phase_1,,,,,,,,,,,,,green,I
178.0,5.0,0.5,1.0,2.0,2.0,419.2844000062905,4.0,1.0,phase_1,,,,,,,,,,,,,green,I
1315.0,4.0,4.0,0.0,4.0,4.0,319.0479259938001,4.0,1.0,phase_1,,,,,,,,,,,,,cyan,triangle
656.0,7.0,2.0,1.0,2.0,2.0,317.0700359623879,4.0,1.0,phase_1,,,,,,,,,,,,,yellow,square
321.0,6.0,1.0,1.0,2.0,2.0,363.2023700047284,4.0,1.0,phase_1,,,,,,,,,,,,,white,cross
346.0,6.0,1.0,1.0,4.0,4.0,343.4310770244337,4.0,1.0,phase_1,,,,,,,,,,,,,white,cross
0.0,8.0,0.0,1.0,3.0,3.0,402.0424159825779,4.0,1.0,phase_1,,,,,,,,,,,,,magenta,flipped triangle
1318.0,8.0,4.0,1.0,2.0,2.0,325.0478599802591,4.0,1.0,phase_1,,,,,,,,,,,,,magenta,flipped triangle
656.0,7.0,2.0,1.0,4.0,4.0,353.8143829791806,4.0,1.0,phase_1,,,,,,,,,,,,,yellow,square
327.0,2.0,1.0,0.0,3.0,3.0,335.703320975881,4.0,1.0,phase_1,,,,,,,,,,,,,blue,circle
664.0,7.0,2.0,1.0,2.0,2.0,326.6309489845298,4.0,1.0,phase_1,,,,,,,,,,,,,yellow,square
0.0,4.0,4.0,0.0,6.0,6.0,310.1901389891282,1.0,1.0,phase_2,go,250.0,250.0,1.0,,,,,,,,,cyan,triangle
0.0,7.0,2.0,1.0,6.0,0.0,0.0,1.0,1.0,phase_2,stop,250.0,250.0,4.0,,,,,,,,,yellow,square
0.0,6.0,1.0,1.0,6.0,6.0,331.3314769766293,1.0,1.0,phase_2,stop,250.0,300.0,3.0,,,,,,,,,white,cross
0.0,5.0,0.5,1.0,5.0,5.0,300.125413981732,1.0,1.0,phase_2,stop,250.0,250.0,3.0,,,,,,,,,green,I
0.0,3.0,2.0,0.0,5.0,5.0,321.9234520220198,1.0,1.0,phase_2,go,200.0,250.0,1.0,,,,,,,,,orange,diamond
0.0,6.0,1.0,1.0,6.0,6.0,284.6566159860231,1.0,1.0,phase_2,stop,200.0,250.0,3.0,,,,,,,,,white,cross
0.0,1.0,0.5,0.0,5.0,5.0,348.5730660031549,1.0,1.0,phase_2,go,200.0,200.0,1.0,,,,,,,,,gray,hexagon
0.0,3.0,2.0,0.0,6.0,6.0,254.7481739893555,1.0,1.0,phase_2,go,200.0,200.0,1.0,,,,,,,,,orange,diamond
0.0,7.0,2.0,1.0,5.0,5.0,245.0140190194361,1.0,1.0,phase_2,go,200.0,200.0,1.0,,,,,,,,,yellow,square
0.0,6.0,1.0,1.0,5.0,5.0,282.6184940058738,1.0,1.0,phase_2,stop,200.0,200.0,3.0,,,,,,,,,white,cross
0.0,4.0,4.0,0.0,6.0,6.0,273.714370036032,1.0,1.0,phase_2,go,150.0,200.0,1.0,,,,,,,,,cyan,triangle
0.0,7.0,2.0,1.0,5.0,5.0,275.3774039447307,1.0,1.0,phase_2,stop,150.0,200.0,3.0,,,,,,,,,yellow,square
0.0,1.0,0.5,0.0,6.0,6.0,271.7255339957773,1.0,1.0,phase_2,go,100.0,200.0,1.0,,,,,,,,,gray,hexagon
0.0,1.0,0.5,0.0,5.0,5.0,287.687401054427,1.0,1.0,phase_2,go,100.0,200.0,1.0,,,,,,,,,gray,hexagon
0.0,1.0,0.5,0.0,5.0,5.0,273.0210699955933,1.0,1.0,phase_2,go,100.0,200.0,1.0,,,,,,,,,gray,hexagon
0.0,5.0,0.5,1.0,5.0,5.0,608.0888459691778,1.0,1.0,phase_2,stop,100.0,200.0,3.0,,,,,,,,,green,I
0.0,8.0,4.0,1.0,6.0,6.0,370.5981689854525,1.0,1.0,phase_2,go,50.0,200.0,1.0,,,,,,,,,magenta,flipped triangle
0.0,2.0,1.0,0.0,5.0,5.0,285.2093040128238,1.0,1.0,phase_2,go,50.0,200.0,1.0,,,,,,,,,blue,circle
0.0,8.0,4.0,1.0,5.0,0.0,0.0,1.0,1.0,phase_2,stop,50.0,200.0,4.0,,,,,,,,,magenta,flipped triangle
0.0,2.0,1.0,0.0,6.0,6.0,319.70457802526647,1.0,1.0,phase_2,go,100.0,200.0,1.0,,,,,,,,,blue,circle
0.0,7.0,2.0,1.0,5.0,5.0,294.4566170335747,1.0,1.0,phase_2,stop,100.0,200.0,3.0,,,,,,,,,yellow,square
0.0,6.0,1.0,1.0,5.0,5.0,271.8732649809681,1.0,1.0,phase_2,stop,50.0,200.0,3.0,,,,,,,,,white,cross
0.0,4.0,4.0,0.0,5.0,5.0,444.3198679946363,1.0,1.0,phase_2,go,0.0,200.0,1.0,,,,,,,,,cyan,triangle
0.0,3.0,2.0,0.0,6.0,6.0,422.9202630231157,1.0,1.0,phase_2,go,0.0,200.0,1.0,,,,,,,,,orange,diamond
0.0,1.0,0.5,0.0,5.0,5.0,377.6394869782962,1.0,1.0,phase_2,go,0.0,200.0,1.0,,,,,,,,,gray,hexagon
0.0,5.0,0.5,1.0,5.0,0.0,0.0,1.0,1.0,phase_2,stop,0.0,200.0,4.0,,,,,,,,,green,I
0.0,8.0,4.0,1.0,5.0,0.0,0.0,1.0,1.0,phase_2,stop,50.0,200.0,4.0,,,,,,,,,magenta,flipped triangle
0.0,2.0,1.0,0.0,6.0,6.0,340.0179310119711,1.0,1.0,phase_2,go,100.0,200.0,1.0,,,,,,,,,blue,circle
0.0,8.0,4.0,1.0,6.0,6.0,360.9679500223137,1.0,1.0,phase_2,stop,100.0,200.0,3.0,,,,,,,,,magenta,flipped triangle
0.0,6.0,1.0,1.0,5.0,5.0,301.2888350058347,1.0,1.0,phase_2,go,100.0,150.0,1.0,,,,,,,,,white,cross
0.0,2.0,1.0,0.0,6.0,6.0,321.4750029728748,1.0,1.0,phase_2,go,100.0,150.0,1.0,,,,,,,,,blue,circle
0.0,3.0,2.0,0.0,5.0,5.0,342.3349869553931,1.0,1.0,phase_2,go,100.0,150.0,1.0,,,,,,,,,orange,diamond
0.0,4.0,4.0,0.0,6.0,6.0,292.5971910008229,1.0,1.0,phase_2,go,100.0,150.0,1.0,,,,,,,,,cyan,triangle
0.0,5.0,0.5,1.0,5.0,5.0,357.9423180199228,1.0,1.0,phase_2,go,100.0,150.0,1.0,,,,,,,,,green,I
0.0,2.0,1.0,0.0,5.0,5.0,535.7803910155781,1.0,1.0,phase_2,go,100.0,150.0,1.0,,,,,,,,,blue,circle
0.0,4.0,4.0,0.0,5.0,5.0,433.4523869911209,1.0,1.0,phase_2,go,100.0,150.0,1.0,,,,,,,,,cyan,triangle
0.0,5.0,0.5,1.0,6.0,6.0,400.7678069756366,2.0,1.0,phase_2,stop,100.0,150.0,3.0,,,,,,,,,green,I
0.0,4.0,4.0,0.0,6.0,6.0,545.38681905251,2.0,1.0,phase_2,go,100.0,100.0,1.0,,,,,,,,,cyan,triangle
0.0,2.0,1.0,0.0,5.0,5.0,394.4600310060195,2.0,1.0,phase_2,go,100.0,100.0,1.0,,,,,,,,,blue,circle
0.0,7.0,2.0,1.0,6.0,0.0,0.0,2.0,1.0,phase_2,stop,100.0,100.0,4.0,,,,,,,,,yellow,square
0.0,5.0,0.5,1.0,6.0,6.0,424.3876940454356,2.0,1.0,phase_2,go,100.0,150.0,1.0,,,,,,,,,green,I
0.0,4.0,4.0,0.0,5.0,5.0,425.4818320041522,2.0,1.0,phase_2,go,100.0,150.0,1.0,,,,,,,,,cyan,triangle
0.0,8.0,4.0,1.0,5.0,0.0,0.0,2.0,1.0,phase_2,stop,100.0,150.0,4.0,,,,,,,,,magenta,flipped triangle
0.0,1.0,0.5,0.0,5.0,5.0,385.9708770178258,2.0,1.0,phase_2,go,150.0,150.0,1.0,,,,,,,,,gray,hexagon
0.0,1.0,0.5,0.0,5.0,5.0,406.1994340154342,2.0,1.0,phase_2,go,150.0,150.0,1.0,,,,,,,,,gray,hexagon
0.0,6.0,1.0,1.0,5.0,0.0,0.0,2.0,1.0,phase_2,stop,150.0,150.0,4.0,,,,,,,,,white,cross
0.0,7.0,2.0,1.0,6.0,0.0,0.0,2.0,1.0,phase_2,stop,200.0,150.0,4.0,,,,,,,,,yellow,square
0.0,1.0,0.5,0.0,6.0,6.0,329.6263319789432,2.0,1.0,phase_2,go,200.0,200.0,1.0,,,,,,,,,gray,hexagon
0.0,3.0,2.0,0.0,5.0,5.0,385.611745994538,2.0,1.0,phase_2,go,200.0,200.0,1.0,,,,,,,,,orange,diamond
0.0,7.0,2.0,1.0,5.0,5.0,404.1019979631528,2.0,1.0,phase_2,go,200.0,200.0,1.0,,,,,,,,,yellow,square
0.0,3.0,2.0,0.0,5.0,5.0,339.3973410129547,2.0,1.0,phase_2,go,200.0,200.0,1.0,,,,,,,,,orange,diamond
0.0,7.0,2.0,1.0,5.0,5.0,308.6019370239228,2.0,1.0,phase_2,stop,200.0,200.0,3.0,,,,,,,,,yellow,square
0.0,7.0,2.0,1.0,5.0,0.0,0.0,2.0,1.0,phase_2,stop,150.0,200.0,4.0,,,,,,,,,yellow,square
0.0,4.0,4.0,0.0,6.0,6.0,328.5266740131192,2.0,1.0,phase_2,go,200.0,200.0,1.0,,,,,,,,,cyan,triangle
0.0,1.0,0.5,0.0,6.0,6.0,358.9538450469263,2.0,1.0,phase_2,go,200.0,200.0,1.0,,,,,,,,,gray,hexagon
0.0,7.0,2.0,1.0,5.0,5.0,348.2935299980454,2.0,1.0,phase_2,stop,200.0,200.0,3.0,,,,,,,,,yellow,square
0.0,8.0,4.0,1.0,6.0,0.0,0.0,2.0,1.0,phase_2,stop,150.0,200.0,4.0,,,,,,,,,magenta,flipped triangle
0.0,5.0,0.5,1.0,6.0,6.0,317.9939920082688,2.0,1.0,phase_2,stop,150.0,250.0,3.0,,,,,,,,,green,I
0.0,2.0,1.0,0.0,6.0,6.0,433.4814480389468,2.0,1.0,phase_2,go,150.0,200.0,1.0,,,,,,,,,blue,circle
0.0,5.0,0.5,1.0,6.0,0.0,0.0,2.0,1.0,phase_2,stop,150.0,200.0,4.0,,,,,,,,,green,I
0.0,6.0,1.0,1.0,6.0,0.0,0.0,2.0,1.0,phase_2,stop,150.0,250.0,4.0,,,,,,,,,white,cross
0.0,7.0,2.0,1.0,5.0,5.0,629.3941750191152,2.0,1.0,phase_2,go,150.0,300.0,1.0,,,,,,,,,yellow,square
0.0,8.0,4.0,1.0,5.0,0.0,0.0,2.0,1.0,phase_2,stop,150.0,300.0,4.0,,,,,,,,,magenta,flipped triangle
0.0,1.0,0.5,0.0,5.0,5.0,649.3352900142781,2.0,1.0,phase_2,go,200.0,300.0,1.0,,,,,,,,,gray,hexagon
0.0,5.0,0.5,1.0,6.0,0.0,0.0,2.0,1.0,phase_2,stop,200.0,300.0,4.0,,,,,,,,,green,I
0.0,4.0,4.0,0.0,6.0,6.0,546.034581027925,2.0,1.0,phase_2,go,200.0,350.0,1.0,,,,,,,,,cyan,triangle
0.0,1.0,0.5,0.0,6.0,6.0,518.0699760094285,2.0,1.0,phase_2,go,200.0,350.0,1.0,,,,,,,,,gray,hexagon
0.0,7.0,2.0,1.0,5.0,0.0,0.0,2.0,1.0,phase_2,stop,200.0,350.0,4.0,,,,,,,,,yellow,square
0.0,5.0,0.5,1.0,5.0,5.0,365.7851899624802,2.0,1.0,phase_2,go,250.0,350.0,1.0,,,,,,,,,green,I
0.0,2.0,1.0,0.0,5.0,5.0,602.0711550372653,2.0,1.0,phase_2,go,250.0,350.0,1.0,,,,,,,,,blue,circle
0.0,8.0,4.0,1.0,6.0,0.0,0.0,2.0,1.0,phase_2,stop,250.0,350.0,4.0,,,,,,,,,magenta,flipped triangle
0.0,5.0,0.5,1.0,5.0,0.0,0.0,2.0,1.0,phase_2,stop,250.0,400.0,4.0,,,,,,,,,green,I
0.0,8.0,4.0,1.0,5.0,5.0,355.7142100180499,3.0,1.0,phase_2,stop,300.0,400.0,3.0,,,,,,,,,magenta,flipped triangle
0.0,2.0,1.0,0.0,6.0,6.0,452.1875340142287,3.0,1.0,phase_2,go,250.0,400.0,1.0,,,,,,,,,blue,circle
0.0,7.0,2.0,1.0,6.0,6.0,424.6654139715247,3.0,1.0,phase_2,go,250.0,400.0,1.0,,,,,,,,,yellow,square
0.0,8.0,4.0,1.0,5.0,5.0,395.5575689906254,3.0,1.0,phase_2,go,250.0,400.0,1.0,,,,,,,,,magenta,flipped triangle
0.0,2.0,1.0,0.0,6.0,6.0,321.4035319979302,3.0,1.0,phase_2,go,250.0,400.0,1.0,,,,,,,,,blue,circle
0.0,1.0,0.5,0.0,5.0,5.0,480.2265639882535,3.0,1.0,phase_2,go,250.0,400.0,1.0,,,,,,,,,gray,hexagon
0.0,4.0,4.0,0.0,5.0,5.0,339.7878400282934,3.0,1.0,phase_2,go,250.0,400.0,1.0,,,,,,,,,cyan,triangle
0.0,1.0,0.5,0.0,5.0,5.0,442.1157469623722,3.0,1.0,phase_2,go,250.0,400.0,1.0,,,,,,,,,gray,hexagon
0.0,3.0,2.0,0.0,5.0,5.0,387.4165139859542,3.0,1.0,phase_2,go,250.0,400.0,1.0,,,,,,,,,orange,diamond
0.0,5.0,0.5,1.0,5.0,5.0,383.9172110310755,3.0,1.0,phase_2,stop,250.0,400.0,3.0,,,,,,,,,green,I
0.0,8.0,4.0,1.0,5.0,0.0,0.0,3.0,1.0,phase_2,stop,200.0,400.0,4.0,,,,,,,,,magenta,flipped triangle
0.0,7.0,2.0,1.0,5.0,5.0,462.6118509913794,3.0,1.0,phase_2,go,250.0,400.0,1.0,,,,,,,,,yellow,square
0.0,5.0,0.5,1.0,6.0,6.0,544.9840979999863,3.0,1.0,phase_2,go,250.0,400.0,1.0,,,,,,,,,green,I
0.0,7.0,2.0,1.0,5.0,5.0,398.1948020518757,3.0,1.0,phase_2,stop,250.0,400.0,3.0,,,,,,,,,yellow,square
0.0,1.0,0.5,0.0,6.0,6.0,630.9031019918621,3.0,1.0,phase_2,go,200.0,400.0,1.0,,,,,,,,,gray,hexagon
0.0,3.0,2.0,0.0,6.0,6.0,421.5033740038052,3.0,1.0,phase_2,go,200.0,400.0,1.0,,,,,,,,,orange,diamond
0.0,2.0,1.0,0.0,5.0,5.0,538.3103080093861,3.0,1.0,phase_2,go,200.0,400.0,1.0,,,,,,,,,blue,circle
0.0,2.0,1.0,0.0,5.0,5.0,629.2474420042709,3.0,1.0,phase_2,go,200.0,400.0,1.0,,,,,,,,,blue,circle
0.0,2.0,1.0,0.0,6.0,6.0,573.0318650021218,3.0,1.0,phase_2,go,200.0,400.0,1.0,,,,,,,,,blue,circle
0.0,7.0,2.0,1.0,6.0,6.0,339.3842779914848,3.0,1.0,phase_2,stop,200.0,400.0,3.0,,,,,,,,,yellow,square
0.0,3.0,2.0,0.0,5.0,5.0,444.1651219967752,3.0,1.0,phase_2,go,200.0,350.0,1.0,,,,,,,,,orange,diamond
0.0,1.0,0.5,0.0,5.0,5.0,557.7336979913525,3.0,1.0,phase_2,go,200.0,350.0,1.0,,,,,,,,,gray,hexagon
0.0,3.0,2.0,0.0,6.0,6.0,311.1983709968626,3.0,1.0,phase_2,go,200.0,350.0,1.0,,,,,,,,,orange,diamond
0.0,2.0,1.0,0.0,6.0,6.0,367.1017920132726,3.0,1.0,phase_2,go,200.0,350.0,1.0,,,,,,,,,blue,circle
0.0,4.0,4.0,0.0,5.0,5.0,414.6687579923309,3.0,1.0,phase_2,go,200.0,350.0,1.0,,,,,,,,,cyan,triangle
0.0,8.0,4.0,1.0,5.0,0.0,0.0,3.0,1.0,phase_2,stop,200.0,350.0,4.0,,,,,,,,,magenta,flipped triangle
0.0,8.0,4.0,1.0,5.0,5.0,461.1304069985635,3.0,1.0,phase_2,go,250.0,350.0,1.0,,,,,,,,,magenta,flipped triangle
0.0,1.0,0.5,0.0,6.0,6.0,546.693240001332,3.0,1.0,phase_2,go,250.0,350.0,1.0,,,,,,,,,gray,hexagon
0.0,3.0,2.0,0.0,5.0,5.0,321.2682909797877,3.0,1.0,phase_2,go,250.0,350.0,1.0,,,,,,,,,orange,diamond
0.0,8.0,4.0,1.0,5.0,5.0,573.9930770359933,3.0,1.0,phase_2,go,250.0,350.0,1.0,,,,,,,,,magenta,flipped triangle
0.0,1.0,0.5,0.0,5.0,5.0,366.1302659893408,3.0,1.0,phase_2,go,250.0,350.0,1.0,,,,,,,,,gray,hexagon
0.0,7.0,2.0,1.0,5.0,0.0,0.0,3.0,1.0,phase_2,stop,250.0,350.0,4.0,,,,,,,,,yellow,square
0.0,8.0,4.0,1.0,6.0,6.0,509.55133902607486,3.0,1.0,phase_2,stop,300.0,350.0,3.0,,,,,,,,,magenta,flipped triangle
0.0,5.0,0.5,1.0,5.0,0.0,0.0,3.0,1.0,phase_2,stop,300.0,300.0,4.0,,,,,,,,,green,I
0.0,4.0,4.0,0.0,5.0,5.0,742.9683019872755,3.0,1.0,phase_2,go,350.0,300.0,1.0,,,,,,,,,cyan,triangle
0.0,3.0,2.0,0.0,6.0,6.0,385.3334980085492,3.0,1.0,phase_2,go,350.0,300.0,1.0,,,,,,,,,orange,diamond
0.0,4.0,4.0,0.0,5.0,5.0,291.3575129932724,4.0,1.0,phase_2,go,350.0,300.0,1.0,,,,,,,,,cyan,triangle
0.0,3.0,2.0,0.0,6.0,6.0,348.8857320044189,4.0,1.0,phase_2,go,350.0,300.0,1.0,,,,,,,,,orange,diamond
0.0,8.0,4.0,1.0,5.0,5.0,329.1448830277659,4.0,1.0,phase_2,stop,350.0,300.0,3.0,,,,,,,,,magenta,flipped triangle
0.0,6.0,1.0,1.0,6.0,6.0,442.4337040400132,4.0,1.0,phase_2,go,300.0,300.0,1.0,,,,,,,,,white,cross
0.0,2.0,1.0,0.0,5.0,5.0,404.4386949972249,4.0,1.0,phase_2,go,300.0,300.0,1.0,,,,,,,,,blue,circle
0.0,2.0,1.0,0.0,6.0,6.0,499.5340600144118,4.0,1.0,phase_2,go,300.0,300.0,1.0,,,,,,,,,blue,circle
0.0,7.0,2.0,1.0,6.0,6.0,339.1972319805063,4.0,1.0,phase_2,stop,300.0,300.0,3.0,,,,,,,,,yellow,square
0.0,7.0,2.0,1.0,6.0,0.0,0.0,4.0,1.0,phase_2,stop,300.0,250.0,4.0,,,,,,,,,yellow,square
0.0,4.0,4.0,0.0,6.0,6.0,375.5233879783191,4.0,1.0,phase_2,go,300.0,300.0,1.0,,,,,,,,,cyan,triangle
0.0,2.0,1.0,0.0,6.0,6.0,497.2423650324344,4.0,1.0,phase_2,go,300.0,300.0,1.0,,,,,,,,,blue,circle
0.0,7.0,2.0,1.0,6.0,6.0,441.0481579834595,4.0,1.0,phase_2,go,300.0,300.0,1.0,,,,,,,,,yellow,square
0.0,2.0,1.0,0.0,6.0,6.0,545.952782034874,4.0,1.0,phase_2,go,300.0,300.0,1.0,,,,,,,,,blue,circle
0.0,3.0,2.0,0.0,6.0,6.0,413.6583150248043,4.0,1.0,phase_2,go,300.0,300.0,1.0,,,,,,,,,orange,diamond
0.0,6.0,1.0,1.0,5.0,5.0,409.9720029626041,4.0,1.0,phase_2,stop,300.0,300.0,3.0,,,,,,,,,white,cross
0.0,5.0,0.5,1.0,5.0,0.0,0.0,4.0,1.0,phase_2,stop,250.0,300.0,4.0,,,,,,,,,green,I
0.0,4.0,4.0,0.0,6.0,6.0,591.4207409950905,4.0,1.0,phase_2,go,300.0,300.0,1.0,,,,,,,,,cyan,triangle
0.0,8.0,4.0,1.0,6.0,0.0,0.0,4.0,1.0,phase_2,stop,300.0,300.0,4.0,,,,,,,,,magenta,flipped triangle
0.0,4.0,4.0,0.0,6.0,6.0,414.1307909740135,4.0,1.0,phase_2,go,300.0,350.0,1.0,,,,,,,,,cyan,triangle
0.0,6.0,1.0,1.0,6.0,0.0,0.0,4.0,1.0,phase_2,stop,300.0,350.0,4.0,,,,,,,,,white,cross
0.0,1.0,0.5,0.0,5.0,5.0,640.7763729803264,4.0,1.0,phase_2,go,300.0,400.0,1.0,,,,,,,,,gray,hexagon
0.0,2.0,1.0,0.0,5.0,5.0,592.8343949490227,4.0,1.0,phase_2,go,300.0,400.0,1.0,,,,,,,,,blue,circle
0.0,6.0,1.0,1.0,6.0,6.0,519.699097960256,4.0,1.0,phase_2,stop,300.0,400.0,3.0,,,,,,,,,white,cross
0.0,4.0,4.0,0.0,5.0,5.0,716.7142119724303,4.0,1.0,phase_2,go,300.0,350.0,1.0,,,,,,,,,cyan,triangle
0.0,6.0,1.0,1.0,5.0,0.0,0.0,4.0,1.0,phase_2,stop,300.0,350.0,4.0,,,,,,,,,white,cross
0.0,3.0,2.0,0.0,5.0,5.0,705.8388250297867,4.0,1.0,phase_2,go,350.0,350.0,1.0,,,,,,,,,orange,diamond
0.0,7.0,2.0,1.0,6.0,0.0,0.0,4.0,1.0,phase_2,stop,350.0,350.0,4.0,,,,,,,,,yellow,square
0.0,7.0,2.0,1.0,6.0,0.0,0.0,4.0,1.0,phase_2,stop,350.0,400.0,4.0,,,,,,,,,yellow,square
0.0,8.0,4.0,1.0,6.0,6.0,705.6745340232737,4.0,1.0,phase_2,go,350.0,450.0,1.0,,,,,,,,,magenta,flipped triangle
0.0,7.0,2.0,1.0,6.0,0.0,0.0,4.0,1.0,phase_2,stop,350.0,450.0,4.0,,,,,,,,,yellow,square
0.0,1.0,0.5,0.0,5.0,5.0,837.6420379499905,4.0,1.0,phase_2,go,350.0,500.0,1.0,,,,,,,,,gray,hexagon
0.0,8.0,4.0,1.0,5.0,0.0,0.0,4.0,1.0,phase_2,stop,350.0,500.0,4.0,,,,,,,,,magenta,flipped triangle
0.0,4.0,4.0,0.0,6.0,6.0,743.9971449784935,4.0,1.0,phase_2,go,400.0,500.0,1.0,,,,,,,,,cyan,triangle
0.0,6.0,1.0,1.0,5.0,5.0,1032.1680689812638,4.0,1.0,phase_2,go,400.0,500.0,1.0,,,,,,,,,white,cross
0.0,1.0,0.5,0.0,6.0,6.0,386.5976500092074,4.0,1.0,phase_2,go,400.0,500.0,1.0,,,,,,,,,gray,hexagon
0.0,6.0,1.0,1.0,6.0,0.0,0.0,4.0,1.0,phase_2,stop,400.0,500.0,4.0,,,,,,,,,white,cross
0.0,6.0,1.0,1.0,6.0,0.0,0.0,4.0,1.0,phase_2,stop,400.0,550.0,4.0,,,,,,,,,white,cross
0.0,3.0,2.0,0.0,5.0,5.0,329.161898989696,5.0,1.0,phase_2,go,400.0,600.0,1.0,,,,,,,,,orange,diamond
0.0,6.0,1.0,1.0,5.0,5.0,478.2748490106314,5.0,1.0,phase_2,go,400.0,600.0,1.0,,,,,,,,,white,cross
0.0,3.0,2.0,0.0,6.0,6.0,461.9396679918282,5.0,1.0,phase_2,go,400.0,600.0,1.0,,,,,,,,,orange,diamond
0.0,4.0,4.0,0.0,6.0,6.0,553.7740580039099,5.0,1.0,phase_2,go,400.0,600.0,1.0,,,,,,,,,cyan,triangle
0.0,8.0,4.0,1.0,5.0,5.0,520.6318729906343,5.0,1.0,phase_2,stop,400.0,600.0,3.0,,,,,,,,,magenta,flipped triangle
0.0,4.0,4.0,0.0,5.0,5.0,666.8794869910926,5.0,1.0,phase_2,go,350.0,600.0,1.0,,,,,,,,,cyan,triangle
0.0,3.0,2.0,0.0,6.0,6.0,713.3209019666538,5.0,1.0,phase_2,go,350.0,600.0,1.0,,,,,,,,,orange,diamond
0.0,3.0,2.0,0.0,5.0,5.0,733.6679529980756,5.0,1.0,phase_2,go,350.0,600.0,1.0,,,,,,,,,orange,diamond
0.0,8.0,4.0,1.0,6.0,6.0,750.453707005363,5.0,1.0,phase_2,go,350.0,600.0,1.0,,,,,,,,,magenta,flipped triangle
0.0,1.0,0.5,0.0,6.0,6.0,769.559113017749,5.0,1.0,phase_2,go,350.0,600.0,1.0,,,,,,,,,gray,hexagon
0.0,4.0,4.0,0.0,6.0,6.0,836.2224400043488,5.0,1.0,phase_2,go,350.0,600.0,1.0,,,,,,,,,cyan,triangle
0.0,4.0,4.0,0.0,6.0,6.0,929.6077649923972,5.0,1.0,phase_2,go,350.0,600.0,1.0,,,,,,,,,cyan,triangle
0.0,7.0,2.0,1.0,6.0,6.0,685.4946099920198,5.0,1.0,phase_2,stop,350.0,600.0,3.0,,,,,,,,,yellow,square
0.0,5.0,0.5,1.0,5.0,0.0,0.0,5.0,1.0,phase_2,stop,350.0,550.0,4.0,,,,,,,,,green,I
0.0,2.0,1.0,0.0,6.0,6.0,892.9668430355377,5.0,1.0,phase_2,go,400.0,550.0,1.0,,,,,,,,,blue,circle
0.0,4.0,4.0,0.0,5.0,5.0,844.3287520203739,5.0,1.0,phase_2,go,400.0,550.0,1.0,,,,,,,,,cyan,triangle
0.0,1.0,0.5,0.0,6.0,6.0,873.9886240218766,5.0,1.0,phase_2,go,400.0,550.0,1.0,,,,,,,,,gray,hexagon
0.0,6.0,1.0,1.0,5.0,5.0,910.2631830028258,5.0,1.0,phase_2,go,400.0,550.0,1.0,,,,,,,,,white,cross
0.0,5.0,0.5,1.0,6.0,0.0,0.0,5.0,1.0,phase_2,stop,400.0,550.0,4.0,,,,,,,,,green,I
0.0,3.0,2.0,0.0,6.0,6.0,798.4217230114155,5.0,1.0,phase_2,go,400.0,600.0,1.0,,,,,,,,,orange,diamond
0.0,2.0,1.0,0.0,5.0,5.0,902.4556059739552,5.0,1.0,phase_2,go,400.0,600.0,1.0,,,,,,,,,blue,circle
0.0,7.0,2.0,1.0,5.0,5.0,741.5801979950629,5.0,1.0,phase_2,go,400.0,600.0,1.0,,,,,,,,,yellow,square
0.0,2.0,1.0,0.0,5.0,5.0,752.4002979625948,5.0,1.0,phase_2,go,400.0,600.0,1.0,,,,,,,,,blue,circle
0.0,5.0,0.5,1.0,6.0,0.0,0.0,5.0,1.0,phase_2,stop,400.0,600.0,4.0,,,,,,,,,green,I
0.0,4.0,4.0,0.0,6.0,6.0,714.1158659942448,5.0,1.0,phase_2,go,400.0,650.0,1.0,,,,,,,,,cyan,triangle
0.0,5.0,0.5,1.0,5.0,5.0,450.553388975095,5.0,1.0,phase_2,go,400.0,650.0,1.0,,,,,,,,,green,I
0.0,4.0,4.0,0.0,6.0,6.0,385.9174179960973,5.0,1.0,phase_2,go,400.0,650.0,1.0,,,,,,,,,cyan,triangle
0.0,7.0,2.0,1.0,6.0,6.0,385.8702050056308,5.0,1.0,phase_2,stop,400.0,650.0,3.0,,,,,,,,,yellow,square
0.0,1.0,0.5,0.0,6.0,6.0,480.5579280364327,5.0,1.0,phase_2,go,400.0,600.0,1.0,,,,,,,,,gray,hexagon
0.0,5.0,0.5,1.0,6.0,0.0,0.0,5.0,1.0,phase_2,stop,400.0,600.0,4.0,,,,,,,,,green,I
0.0,8.0,4.0,1.0,6.0,6.0,479.251982003916,5.0,1.0,phase_2,stop,400.0,650.0,3.0,,,,,,,,,magenta,flipped triangle
0.0,1.0,0.5,0.0,6.0,6.0,357.4966189917177,5.0,1.0,phase_2,go,400.0,600.0,1.0,,,,,,,,,gray,hexagon
0.0,4.0,4.0,0.0,5.0,5.0,583.2027359865606,5.0,1.0,phase_2,go,400.0,600.0,1.0,,,,,,,,,cyan,triangle
0.0,3.0,2.0,0.0,5.0,5.0,545.5033119651489,5.0,1.0,phase_2,go,400.0,600.0,1.0,,,,,,,,,orange,diamond
0.0,6.0,1.0,1.0,5.0,5.0,337.7004149951972,5.0,1.0,phase_2,go,400.0,600.0,1.0,,,,,,,,,white,cross
0.0,8.0,4.0,1.0,6.0,6.0,272.8586189914495,5.0,1.0,phase_2,stop,400.0,600.0,3.0,,,,,,,,,magenta,flipped triangle
0.0,8.0,4.0,1.0,6.0,6.0,319.1179920104332,6.0,1.0,phase_2,stop,400.0,550.0,3.0,,,,,,,,,magenta,flipped triangle
0.0,2.0,1.0,0.0,5.0,5.0,271.7633030260913,6.0,1.0,phase_2,go,400.0,500.0,1.0,,,,,,,,,blue,circle
0.0,3.0,2.0,0.0,6.0,6.0,404.7924969927408,6.0,1.0,phase_2,go,400.0,500.0,1.0,,,,,,,,,orange,diamond
0.0,4.0,4.0,0.0,5.0,5.0,236.3523290259763,6.0,1.0,phase_2,go,400.0,500.0,1.0,,,,,,,,,cyan,triangle
0.0,3.0,2.0,0.0,5.0,5.0,329.2910670279525,6.0,1.0,phase_2,go,400.0,500.0,1.0,,,,,,,,,orange,diamond
0.0,8.0,4.0,1.0,6.0,6.0,263.1218240130692,6.0,1.0,phase_2,stop,400.0,500.0,3.0,,,,,,,,,magenta,flipped triangle
0.0,8.0,4.0,1.0,5.0,5.0,338.0257649696432,6.0,1.0,phase_2,stop,400.0,450.0,3.0,,,,,,,,,magenta,flipped triangle
0.0,8.0,4.0,1.0,6.0,6.0,431.5721640014089,6.0,1.0,phase_2,stop,350.0,450.0,3.0,,,,,,,,,magenta,flipped triangle
0.0,2.0,1.0,0.0,6.0,6.0,816.6107090073638,6.0,1.0,phase_2,go,350.0,400.0,1.0,,,,,,,,,blue,circle
0.0,2.0,1.0,0.0,6.0,6.0,864.2806279822253,6.0,1.0,phase_2,go,350.0,400.0,1.0,,,,,,,,,blue,circle
0.0,4.0,4.0,0.0,5.0,5.0,280.8469560113735,6.0,1.0,phase_2,go,350.0,400.0,1.0,,,,,,,,,cyan,triangle
0.0,3.0,2.0,0.0,6.0,6.0,206.8522949703037,6.0,1.0,phase_2,go,350.0,400.0,1.0,,,,,,,,,orange,diamond
0.0,5.0,0.5,1.0,5.0,5.0,263.6371129774488,6.0,1.0,phase_2,go,350.0,400.0,1.0,,,,,,,,,green,I
0.0,5.0,0.5,1.0,6.0,6.0,458.362705016043,6.0,1.0,phase_2,stop,350.0,400.0,3.0,,,,,,,,,green,I
0.0,8.0,4.0,1.0,5.0,0.0,0.0,6.0,1.0,phase_2,stop,350.0,350.0,4.0,,,,,,,,,magenta,flipped triangle
0.0,8.0,4.0,1.0,6.0,6.0,309.9996939999982,6.0,1.0,phase_2,stop,400.0,350.0,3.0,,,,,,,,,magenta,flipped triangle
0.0,6.0,1.0,1.0,5.0,5.0,394.8388560093008,6.0,1.0,phase_2,go,400.0,300.0,1.0,,,,,,,,,white,cross
0.0,6.0,1.0,1.0,5.0,0.0,0.0,6.0,1.0,phase_2,stop,400.0,300.0,4.0,,,,,,,,,white,cross
0.0,6.0,1.0,1.0,6.0,0.0,0.0,6.0,1.0,phase_2,stop,450.0,300.0,4.0,,,,,,,,,white,cross
0.0,8.0,4.0,1.0,6.0,0.0,0.0,6.0,1.0,phase_2,stop,450.0,350.0,4.0,,,,,,,,,magenta,flipped triangle
0.0,3.0,2.0,0.0,6.0,6.0,357.891024032142,6.0,1.0,phase_2,go,450.0,400.0,1.0,,,,,,,,,orange,diamond
0.0,5.0,0.5,1.0,5.0,5.0,507.0546259521507,6.0,1.0,phase_2,go,450.0,400.0,1.0,,,,,,,,,green,I
0.0,5.0,0.5,1.0,5.0,0.0,0.0,6.0,1.0,phase_2,stop,450.0,400.0,4.0,,,,,,,,,green,I
0.0,1.0,0.5,0.0,5.0,5.0,621.5032309992239,6.0,1.0,phase_2,go,500.0,400.0,1.0,,,,,,,,,gray,hexagon
0.0,8.0,4.0,1.0,6.0,6.0,597.4921580054797,6.0,1.0,phase_2,stop,500.0,400.0,3.0,,,,,,,,,magenta,flipped triangle
0.0,1.0,0.5,0.0,5.0,5.0,957.4996730079874,6.0,1.0,phase_2,go,500.0,350.0,1.0,,,,,,,,,gray,hexagon
0.0,5.0,0.5,1.0,5.0,5.0,300.1566040329635,6.0,1.0,phase_2,go,500.0,350.0,1.0,,,,,,,,,green,I
0.0,1.0,0.5,0.0,5.0,5.0,648.7552820472047,6.0,1.0,phase_2,go,500.0,350.0,1.0,,,,,,,,,gray,hexagon
0.0,6.0,1.0,1.0,5.0,5.0,319.8951949598267,6.0,1.0,phase_2,stop,500.0,350.0,3.0,,,,,,,,,white,cross
0.0,5.0,0.5,1.0,6.0,6.0,283.3492799545638,6.0,1.0,phase_2,stop,450.0,350.0,3.0,,,,,,,,,green,I
0.0,6.0,1.0,1.0,6.0,6.0,711.9809060241096,6.0,1.0,phase_2,go,450.0,300.0,1.0,,,,,,,,,white,cross
0.0,6.0,1.0,1.0,6.0,0.0,0.0,6.0,1.0,phase_2,stop,450.0,300.0,4.0,,,,,,,,,white,cross
0.0,2.0,1.0,0.0,5.0,5.0,357.6030450058169,6.0,1.0,phase_2,go,450.0,350.0,1.0,,,,,,,,,blue,circle
0.0,4.0,4.0,0.0,6.0,6.0,348.348205036018,6.0,1.0,phase_2,go,450.0,350.0,1.0,,,,,,,,,cyan,triangle
0.0,2.0,1.0,0.0,6.0,6.0,319.116736005526,6.0,1.0,phase_2,go,450.0,350.0,1.0,,,,,,,,,blue,circle
0.0,5.0,0.5,1.0,6.0,6.0,348.1841989560053,6.0,1.0,phase_2,stop,450.0,350.0,3.0,,,,,,,,,green,I
0.0,5.0,0.5,1.0,6.0,6.0,333.7467210367322,7.0,1.0,phase_2,stop,450.0,300.0,3.0,,,,,,,,,green,I
0.0,2.0,1.0,0.0,5.0,5.0,357.2792070335708,7.0,1.0,phase_2,go,450.0,250.0,1.0,,,,,,,,,blue,circle
0.0,7.0,2.0,1.0,5.0,5.0,422.0046490081586,7.0,1.0,phase_2,stop,450.0,250.0,3.0,,,,,,,,,yellow,square
0.0,8.0,4.0,1.0,6.0,6.0,703.8589370204136,7.0,1.0,phase_2,go,400.0,250.0,1.0,,,,,,,,,magenta,flipped triangle
0.0,3.0,2.0,0.0,5.0,5.0,585.0958910305053,7.0,1.0,phase_2,go,400.0,250.0,1.0,,,,,,,,,orange,diamond
0.0,4.0,4.0,0.0,5.0,5.0,545.3999330056831,7.0,1.0,phase_2,go,400.0,250.0,1.0,,,,,,,,,cyan,triangle
0.0,8.0,4.0,1.0,6.0,6.0,297.2244139527902,7.0,1.0,phase_2,stop,400.0,250.0,3.0,,,,,,,,,magenta,flipped triangle
0.0,2.0,1.0,0.0,6.0,6.0,319.0282779978588,7.0,1.0,phase_2,go,400.0,200.0,1.0,,,,,,,,,blue,circle
0.0,1.0,0.5,0.0,6.0,6.0,507.85845902282745,7.0,1.0,phase_2,go,400.0,200.0,1.0,,,,,,,,,gray,hexagon
0.0,5.0,0.5,1.0,6.0,6.0,287.7903659828007,7.0,1.0,phase_2,stop,400.0,200.0,3.0,,,,,,,,,green,I
0.0,3.0,2.0,0.0,6.0,6.0,553.8048279704526,7.0,1.0,phase_2,go,400.0,150.0,1.0,,,,,,,,,orange,diamond
0.0,2.0,1.0,0.0,5.0,5.0,468.385020038113,7.0,1.0,phase_2,go,400.0,150.0,1.0,,,,,,,,,blue,circle
0.0,7.0,2.0,1.0,6.0,6.0,496.8212319654412,7.0,1.0,phase_2,go,400.0,150.0,1.0,,,,,,,,,yellow,square
0.0,7.0,2.0,1.0,6.0,0.0,0.0,7.0,1.0,phase_2,stop,400.0,150.0,4.0,,,,,,,,,yellow,square
0.0,5.0,0.5,1.0,5.0,5.0,487.2927599935792,7.0,1.0,phase_2,go,400.0,200.0,1.0,,,,,,,,,green,I
0.0,5.0,0.5,1.0,6.0,0.0,0.0,7.0,1.0,phase_2,stop,400.0,200.0,4.0,,,,,,,,,green,I
0.0,2.0,1.0,0.0,5.0,5.0,309.6379580092616,7.0,1.0,phase_2,go,400.0,250.0,1.0,,,,,,,,,blue,circle
0.0,5.0,0.5,1.0,6.0,6.0,356.1821549665183,7.0,1.0,phase_2,stop,400.0,250.0,3.0,,,,,,,,,green,I
0.0,1.0,0.5,0.0,6.0,6.0,611.0345249762759,7.0,1.0,phase_2,go,400.0,200.0,1.0,,,,,,,,,gray,hexagon
0.0,7.0,2.0,1.0,6.0,6.0,537.5709400395863,7.0,1.0,phase_2,go,400.0,200.0,1.0,,,,,,,,,yellow,square
0.0,5.0,0.5,1.0,5.0,5.0,327.8565919608809,7.0,1.0,phase_2,stop,400.0,200.0,3.0,,,,,,,,,green,I
0.0,6.0,1.0,1.0,6.0,6.0,315.408956957981,7.0,1.0,phase_2,stop,350.0,200.0,3.0,,,,,,,,,white,cross
0.0,4.0,4.0,0.0,6.0,6.0,507.6718039927073,7.0,1.0,phase_2,go,350.0,150.0,1.0,,,,,,,,,cyan,triangle
0.0,6.0,1.0,1.0,5.0,0.0,0.0,7.0,1.0,phase_2,stop,350.0,150.0,4.0,,,,,,,,,white,cross
0.0,2.0,1.0,0.0,5.0,5.0,563.8921170029789,7.0,1.0,phase_2,go,400.0,150.0,1.0,,,,,,,,,blue,circle
0.0,6.0,1.0,1.0,5.0,0.0,0.0,7.0,1.0,phase_2,stop,400.0,150.0,4.0,,,,,,,,,white,cross
0.0,6.0,1.0,1.0,6.0,0.0,0.0,7.0,1.0,phase_2,stop,450.0,150.0,4.0,,,,,,,,,white,cross
0.0,2.0,1.0,0.0,5.0,5.0,582.023018039763,7.0,1.0,phase_2,go,450.0,200.0,1.0,,,,,,,,,blue,circle
0.0,7.0,2.0,1.0,5.0,0.0,0.0,7.0,1.0,phase_2,stop,450.0,200.0,4.0,,,,,,,,,yellow,square
0.0,6.0,1.0,1.0,6.0,6.0,295.0686719850637,7.0,1.0,phase_2,stop,500.0,200.0,3.0,,,,,,,,,white,cross
0.0,3.0,2.0,0.0,5.0,5.0,499.303377000615,7.0,1.0,phase_2,go,500.0,150.0,1.0,,,,,,,,,orange,diamond
0.0,7.0,2.0,1.0,6.0,0.0,0.0,7.0,1.0,phase_2,stop,500.0,150.0,4.0,,,,,,,,,yellow,square
0.0,1.0,0.5,0.0,6.0,6.0,619.0953089972027,7.0,1.0,phase_2,go,500.0,200.0,1.0,,,,,,,,,gray,hexagon
0.0,6.0,1.0,1.0,6.0,0.0,0.0,7.0,1.0,phase_2,stop,500.0,200.0,4.0,,,,,,,,,white,cross
0.0,4.0,4.0,0.0,5.0,5.0,394.0001290175132,7.0,1.0,phase_2,go,500.0,250.0,1.0,,,,,,,,,cyan,triangle
0.0,2.0,1.0,0.0,6.0,6.0,535.7529320172034,7.0,1.0,phase_2,go,500.0,250.0,1.0,,,,,,,,,blue,circle
0.0,6.0,1.0,1.0,5.0,5.0,450.3855369985103,8.0,1.0,phase_2,stop,500.0,250.0,3.0,,,,,,,,,white,cross
0.0,1.0,0.5,0.0,5.0,5.0,695.1468610204756,8.0,1.0,phase_2,go,450.0,250.0,1.0,,,,,,,,,gray,hexagon
0.0,2.0,1.0,0.0,6.0,6.0,301.691350992769,8.0,1.0,phase_2,go,450.0,250.0,1.0,,,,,,,,,blue,circle
0.0,5.0,0.5,1.0,5.0,5.0,272.5077340146526,8.0,1.0,phase_2,stop,450.0,250.0,3.0,,,,,,,,,green,I
0.0,3.0,2.0,0.0,5.0,5.0,490.0155889918096,8.0,1.0,phase_2,go,400.0,250.0,1.0,,,,,,,,,orange,diamond
0.0,3.0,2.0,0.0,6.0,6.0,282.7254729927517,8.0,1.0,phase_2,go,400.0,250.0,1.0,,,,,,,,,orange,diamond
0.0,6.0,1.0,1.0,5.0,5.0,310.2967489976436,8.0,1.0,phase_2,stop,400.0,250.0,3.0,,,,,,,,,white,cross
0.0,5.0,0.5,1.0,6.0,6.0,293.4170519583858,8.0,1.0,phase_2,stop,350.0,250.0,3.0,,,,,,,,,green,I
0.0,3.0,2.0,0.0,6.0,6.0,414.7153959493153,8.0,1.0,phase_2,go,350.0,200.0,1.0,,,,,,,,,orange,diamond
0.0,2.0,1.0,0.0,5.0,5.0,394.3140390329063,8.0,1.0,phase_2,go,350.0,200.0,1.0,,,,,,,,,blue,circle
0.0,6.0,1.0,1.0,5.0,5.0,527.3232239997014,8.0,1.0,phase_2,stop,350.0,200.0,3.0,,,,,,,,,white,cross
0.0,7.0,2.0,1.0,5.0,0.0,0.0,8.0,1.0,phase_2,stop,300.0,200.0,4.0,,,,,,,,,yellow,square
0.0,6.0,1.0,1.0,6.0,0.0,0.0,8.0,1.0,phase_2,stop,350.0,200.0,4.0,,,,,,,,,white,cross
0.0,1.0,0.5,0.0,6.0,6.0,657.5998989865184,8.0,1.0,phase_2,go,350.0,250.0,1.0,,,,,,,,,gray,hexagon
0.0,3.0,2.0,0.0,6.0,6.0,505.5343999993056,8.0,1.0,phase_2,go,350.0,250.0,1.0,,,,,,,,,orange,diamond
0.0,8.0,4.0,1.0,5.0,5.0,742.5898090004921,8.0,1.0,phase_2,go,350.0,250.0,1.0,,,,,,,,,magenta,flipped triangle
0.0,3.0,2.0,0.0,5.0,5.0,517.4186639487743,8.0,1.0,phase_2,go,350.0,250.0,1.0,,,,,,,,,orange,diamond
0.0,7.0,2.0,1.0,5.0,5.0,413.6171920108609,8.0,1.0,phase_2,stop,350.0,250.0,3.0,,,,,,,,,yellow,square
0.0,4.0,4.0,0.0,6.0,6.0,554.805954976473,8.0,1.0,phase_2,go,300.0,250.0,1.0,,,,,,,,,cyan,triangle
0.0,1.0,0.5,0.0,6.0,6.0,499.1729549947195,8.0,1.0,phase_2,go,300.0,250.0,1.0,,,,,,,,,gray,hexagon
0.0,3.0,2.0,0.0,5.0,5.0,696.6405329876579,8.0,1.0,phase_2,go,300.0,250.0,1.0,,,,,,,,,orange,diamond
0.0,8.0,4.0,1.0,5.0,5.0,372.3342699813656,8.0,1.0,phase_2,stop,300.0,250.0,3.0,,,,,,,,,magenta,flipped triangle
0.0,4.0,4.0,0.0,5.0,5.0,658.5983839468099,8.0,1.0,phase_2,go,250.0,250.0,1.0,,,,,,,,,cyan,triangle
0.0,3.0,2.0,0.0,6.0,6.0,797.7167829521932,8.0,1.0,phase_2,go,250.0,250.0,1.0,,,,,,,,,orange,diamond
0.0,7.0,2.0,1.0,6.0,6.0,327.8603900107555,8.0,1.0,phase_2,stop,250.0,250.0,3.0,,,,,,,,,yellow,square
0.0,3.0,2.0,0.0,5.0,5.0,395.8698930218816,8.0,1.0,phase_2,go,250.0,200.0,1.0,,,,,,,,,orange,diamond
0.0,1.0,0.5,0.0,5.0,5.0,562.2327210148796,8.0,1.0,phase_2,go,250.0,200.0,1.0,,,,,,,,,gray,hexagon
0.0,7.0,2.0,1.0,5.0,0.0,0.0,8.0,1.0,phase_2,stop,250.0,200.0,4.0,,,,,,,,,yellow,square
0.0,1.0,0.5,0.0,6.0,6.0,367.692416999489,8.0,1.0,phase_2,go,300.0,200.0,1.0,,,,,,,,,gray,hexagon
0.0,5.0,0.5,1.0,6.0,6.0,326.508428028319,8.0,1.0,phase_2,stop,300.0,200.0,3.0,,,,,,,,,green,I
0.0,4.0,4.0,0.0,5.0,5.0,507.60390399955213,8.0,1.0,phase_2,go,300.0,150.0,1.0,,,,,,,,,cyan,triangle
0.0,1.0,0.5,0.0,6.0,6.0,610.7240610290319,8.0,1.0,phase_2,go,300.0,150.0,1.0,,,,,,,,,gray,hexagon
0.0,6.0,1.0,1.0,6.0,0.0,0.0,8.0,1.0,phase_2,stop,300.0,150.0,4.0,,,,,,,,,white,cross
0.0,8.0,4.0,1.0,5.0,5.0,376.4368630363606,8.0,1.0,phase_2,go,300.0,200.0,1.0,,,,,,,,,magenta,flipped triangle
0.0,4.0,4.0,0.0,5.0,5.0,470.7569519523531,8.0,1.0,phase_2,go,300.0,200.0,1.0,,,,,,,,,cyan,triangle
0.0,6.0,1.0,1.0,6.0,6.0,451.4503950485959,8.0,1.0,phase_2,go,300.0,200.0,1.0,,,,,,,,,white,cross
0.0,4.0,4.0,0.0,7.0,5.0,767.2066770028323,1.0,2.0,phase_3,,,,,540.0,4.0,675.0,135.0,405.0,270.0,540.0,810.0,cyan,triangle
0.0,5.0,0.5,1.0,7.0,2.0,1771.2489209952764,1.0,1.0,phase_3,,,,,154.0,1.0,308.0,154.0,770.0,616.0,924.0,462.0,green,I
0.0,3.0,2.0,0.0,7.0,3.0,1909.7620400134476,1.0,1.0,phase_3,,,,,232.0,2.0,580.0,696.0,232.0,464.0,348.0,116.0,orange,diamond
0.0,8.0,4.0,1.0,7.0,1.0,1246.9899660209194,1.0,1.0,phase_3,,,,,346.0,2.0,346.0,519.0,1038.0,865.0,173.0,692.0,magenta,flipped triangle
0.0,5.0,0.5,1.0,7.0,2.0,1727.0799200050533,1.0,1.0,phase_3,,,,,865.0,5.0,1038.0,865.0,519.0,692.0,346.0,173.0,green,I
0.0,2.0,1.0,0.0,7.0,4.0,1461.6604869952423,1.0,1.0,phase_3,,,,,768.0,4.0,384.0,960.0,1152.0,768.0,576.0,192.0,blue,circle
0.0,7.0,2.0,1.0,7.0,5.0,1330.2770950249396,1.0,1.0,phase_3,,,,,346.0,2.0,1038.0,173.0,692.0,519.0,346.0,865.0,yellow,square
0.0,6.0,1.0,1.0,7.0,1.0,1796.3051149854437,1.0,1.0,phase_3,,,,,308.0,2.0,308.0,154.0,770.0,462.0,924.0,616.0,white,cross
0.0,6.0,1.0,1.0,7.0,1.0,1106.5702749765478,1.0,1.0,phase_3,,,,,384.0,2.0,384.0,576.0,192.0,960.0,1152.0,768.0,white,cross
0.0,7.0,2.0,1.0,7.0,4.0,1156.7158800316977,1.0,1.0,phase_3,,,,,308.0,2.0,154.0,924.0,770.0,308.0,616.0,462.0,yellow,square
0.0,8.0,4.0,1.0,7.0,3.0,1944.722218031529,1.0,1.0,phase_3,,,,,675.0,5.0,135.0,540.0,675.0,810.0,405.0,270.0,magenta,flipped triangle
0.0,1.0,0.5,0.0,7.0,1.0,2281.2275120522827,1.0,1.0,phase_3,,,,,810.0,6.0,810.0,270.0,540.0,675.0,135.0,405.0,gray,hexagon
0.0,6.0,1.0,1.0,7.0,5.0,1961.9330300483853,1.0,1.0,phase_3,,,,,692.0,4.0,346.0,1038.0,173.0,865.0,692.0,519.0,white,cross
0.0,8.0,4.0,1.0,7.0,5.0,2189.0893600066192,1.0,1.0,phase_3,,,,,675.0,5.0,270.0,135.0,540.0,810.0,675.0,405.0,magenta,flipped triangle
0.0,5.0,0.5,1.0,7.0,1.0,1460.612591996323,1.0,1.0,phase_3,,,,,675.0,5.0,675.0,540.0,135.0,270.0,405.0,810.0,green,I
0.0,4.0,4.0,0.0,7.0,6.0,2318.228229007218,1.0,1.0,phase_3,,,,,308.0,2.0,462.0,770.0,154.0,616.0,924.0,308.0,cyan,triangle
0.0,3.0,2.0,0.0,7.0,2.0,2769.642775994725,1.0,1.0,phase_3,,,,,692.0,4.0,1038.0,692.0,346.0,865.0,519.0,173.0,orange,diamond
0.0,2.0,1.0,0.0,7.0,2.0,2424.38406299334,1.0,1.0,phase_3,,,,,405.0,3.0,135.0,405.0,810.0,270.0,675.0,540.0,blue,circle
0.0,4.0,4.0,0.0,7.0,5.0,2547.9428920079954,1.0,1.0,phase_3,,,,,405.0,3.0,675.0,540.0,270.0,810.0,405.0,135.0,cyan,triangle
0.0,8.0,4.0,1.0,7.0,3.0,2064.1744510503486,1.0,1.0,phase_3,,,,,462.0,3.0,154.0,770.0,462.0,924.0,308.0,616.0,magenta,flipped triangle
0.0,8.0,4.0,1.0,7.0,3.0,1853.6221620161089,2.0,1.0,phase_3,,,,,192.0,1.0,768.0,384.0,192.0,960.0,576.0,1152.0,magenta,flipped triangle
0.0,7.0,2.0,1.0,7.0,3.0,1884.0494810137895,2.0,1.0,phase_3,,,,,384.0,2.0,960.0,192.0,384.0,576.0,1152.0,768.0,yellow,square
0.0,4.0,4.0,0.0,7.0,3.0,2773.946863017045,2.0,1.0,phase_3,,,,,768.0,4.0,960.0,384.0,768.0,576.0,1152.0,192.0,cyan,triangle
0.0,8.0,4.0,1.0,7.0,5.0,1729.5831610099413,2.0,1.0,phase_3,,,,,960.0,5.0,768.0,384.0,1152.0,576.0,960.0,192.0,magenta,flipped triangle
0.0,6.0,1.0,1.0,7.0,2.0,2133.5710690473206,2.0,1.0,phase_3,,,,,540.0,4.0,405.0,540.0,810.0,270.0,135.0,675.0,white,cross
0.0,4.0,4.0,0.0,7.0,4.0,1958.178407046944,2.0,1.0,phase_3,,,,,768.0,4.0,960.0,192.0,576.0,768.0,1152.0,384.0,cyan,triangle
0.0,2.0,1.0,0.0,7.0,2.0,2067.9137260303837,2.0,1.0,phase_3,,,,,576.0,3.0,192.0,576.0,960.0,384.0,1152.0,768.0,blue,circle
0.0,2.0,1.0,0.0,7.0,5.0,2421.2698949850164,2.0,1.0,phase_3,,,,,308.0,2.0,770.0,154.0,924.0,616.0,308.0,462.0,blue,circle
0.0,8.0,4.0,1.0,7.0,2.0,1949.793967010919,2.0,1.0,phase_3,,,,,696.0,6.0,232.0,696.0,348.0,580.0,464.0,116.0,magenta,flipped triangle
0.0,5.0,0.5,1.0,7.0,2.0,1866.2971640005708,2.0,1.0,phase_3,,,,,580.0,5.0,464.0,580.0,116.0,696.0,348.0,232.0,green,I
0.0,3.0,2.0,0.0,7.0,2.0,2000.196432985831,2.0,1.0,phase_3,,,,,1152.0,6.0,960.0,1152.0,192.0,768.0,384.0,576.0,orange,diamond
0.0,5.0,0.5,1.0,7.0,5.0,2953.946092980914,2.0,1.0,phase_3,,,,,675.0,5.0,810.0,270.0,135.0,405.0,675.0,540.0,green,I
0.0,4.0,4.0,0.0,7.0,6.0,2765.750165039208,2.0,1.0,phase_3,,,,,865.0,5.0,519.0,346.0,173.0,692.0,1038.0,865.0,cyan,triangle
0.0,5.0,0.5,1.0,7.0,5.0,795.2181149739772,2.0,1.0,phase_3,,,,,768.0,4.0,576.0,384.0,192.0,1152.0,768.0,960.0,green,I
0.0,7.0,2.0,1.0,7.0,4.0,1653.5469020018354,2.0,1.0,phase_3,,,,,576.0,3.0,960.0,1152.0,192.0,576.0,768.0,384.0,yellow,square
0.0,4.0,4.0,0.0,7.0,5.0,2246.8914189958014,2.0,1.0,phase_3,,,,,696.0,6.0,232.0,580.0,464.0,116.0,696.0,348.0,cyan,triangle
0.0,5.0,0.5,1.0,7.0,2.0,1556.807131972164,2.0,1.0,phase_3,,,,,576.0,3.0,1152.0,576.0,768.0,192.0,384.0,960.0,green,I
0.0,3.0,2.0,0.0,7.0,5.0,2386.953951965552,2.0,1.0,phase_3,,,,,810.0,6.0,135.0,270.0,405.0,540.0,810.0,675.0,orange,diamond
0.0,6.0,1.0,1.0,7.0,2.0,2659.729308972601,2.0,1.0,phase_3,,,,,464.0,4.0,580.0,464.0,232.0,696.0,348.0,116.0,white,cross
0.0,3.0,2.0,0.0,7.0,2.0,2368.2111560483463,2.0,1.0,phase_3,,,,,519.0,3.0,865.0,519.0,346.0,1038.0,173.0,692.0,orange,diamond
0.0,5.0,0.5,1.0,7.0,1.0,2384.743830014486,3.0,1.0,phase_3,,,,,464.0,4.0,464.0,580.0,116.0,232.0,348.0,696.0,green,I
0.0,6.0,1.0,1.0,7.0,2.0,1678.810890996829,3.0,1.0,phase_3,,,,,576.0,3.0,192.0,576.0,768.0,384.0,1152.0,960.0,white,cross
0.0,1.0,0.5,0.0,7.0,3.0,2885.496003960725,3.0,1.0,phase_3,,,,,770.0,5.0,616.0,924.0,770.0,462.0,154.0,308.0,gray,hexagon
0.0,7.0,2.0,1.0,7.0,4.0,2516.346486983821,3.0,1.0,phase_3,,,,,770.0,5.0,308.0,462.0,616.0,770.0,154.0,924.0,yellow,square
0.0,7.0,2.0,1.0,7.0,5.0,2880.2013469976373,3.0,1.0,phase_3,,,,,675.0,5.0,810.0,270.0,135.0,405.0,675.0,540.0,yellow,square
0.0,3.0,2.0,0.0,7.0,4.0,1909.680780954659,3.0,1.0,phase_3,,,,,462.0,3.0,770.0,154.0,616.0,462.0,924.0,308.0,orange,diamond
0.0,3.0,2.0,0.0,7.0,2.0,2400.1947520300746,3.0,1.0,phase_3,,,,,405.0,3.0,540.0,405.0,675.0,270.0,810.0,135.0,orange,diamond
0.0,6.0,1.0,1.0,7.0,2.0,2097.5297409459017,3.0,1.0,phase_3,,,,,616.0,4.0,154.0,616.0,308.0,924.0,770.0,462.0,white,cross
0.0,4.0,4.0,0.0,7.0,3.0,2287.4696680228226,3.0,1.0,phase_3,,,,,519.0,3.0,865.0,173.0,519.0,346.0,1038.0,692.0,cyan,triangle
0.0,2.0,1.0,0.0,7.0,5.0,2590.606042998843,3.0,1.0,phase_3,,,,,308.0,2.0,616.0,154.0,770.0,462.0,308.0,924.0,blue,circle
0.0,2.0,1.0,0.0,7.0,5.0,1509.731477999594,3.0,1.0,phase_3,,,,,348.0,3.0,696.0,580.0,232.0,116.0,348.0,464.0,blue,circle
0.0,2.0,1.0,0.0,7.0,6.0,2405.457013985142,3.0,1.0,phase_3,,,,,519.0,3.0,346.0,1038.0,865.0,173.0,692.0,519.0,blue,circle
0.0,1.0,0.5,0.0,7.0,5.0,1610.9476819983684,3.0,1.0,phase_3,,,,,348.0,3.0,232.0,464.0,116.0,580.0,348.0,696.0,gray,hexagon
0.0,3.0,2.0,0.0,7.0,5.0,1911.865008994937,3.0,1.0,phase_3,,,,,580.0,5.0,348.0,116.0,232.0,696.0,580.0,464.0,orange,diamond
0.0,8.0,4.0,1.0,7.0,2.0,2736.988056974951,3.0,1.0,phase_3,,,,,1038.0,6.0,692.0,1038.0,346.0,173.0,865.0,519.0,magenta,flipped triangle
0.0,1.0,0.5,0.0,7.0,5.0,2589.0363400103524,3.0,1.0,phase_3,,,,,692.0,4.0,865.0,173.0,346.0,1038.0,692.0,519.0,gray,hexagon
0.0,2.0,1.0,0.0,7.0,6.0,2222.4222639924847,3.0,1.0,phase_3,,,,,540.0,4.0,810.0,270.0,135.0,405.0,675.0,540.0,blue,circle
0.0,1.0,0.5,0.0,7.0,4.0,2539.088621037081,3.0,1.0,phase_3,,,,,462.0,3.0,308.0,924.0,154.0,462.0,616.0,770.0,gray,hexagon
0.0,3.0,2.0,0.0,7.0,5.0,1128.4977660398,3.0,1.0,phase_3,,,,,770.0,5.0,308.0,924.0,154.0,616.0,770.0,462.0,orange,diamond
0.0,2.0,1.0,0.0,7.0,6.0,2215.5151260085404,3.0,1.0,phase_3,,,,,346.0,2.0,1038.0,519.0,173.0,692.0,865.0,346.0,blue,circle
0.0,7.0,2.0,1.0,7.0,5.0,1311.9766080053523,4.0,1.0,phase_3,,,,,580.0,5.0,696.0,348.0,464.0,232.0,580.0,116.0,yellow,square
0.0,3.0,2.0,0.0,7.0,5.0,2090.7517119776458,4.0,1.0,phase_3,,,,,768.0,4.0,384.0,192.0,576.0,1152.0,768.0,960.0,orange,diamond
0.0,4.0,4.0,0.0,7.0,6.0,1220.326359034516,4.0,1.0,phase_3,,,,,696.0,6.0,580.0,464.0,116.0,232.0,348.0,696.0,cyan,triangle
0.0,6.0,1.0,1.0,7.0,6.0,2329.371727013495,4.0,1.0,phase_3,,,,,692.0,4.0,865.0,1038.0,346.0,519.0,173.0,692.0,white,cross
0.0,7.0,2.0,1.0,7.0,3.0,1232.6192629989237,4.0,1.0,phase_3,,,,,464.0,4.0,580.0,348.0,464.0,116.0,696.0,232.0,yellow,square
0.0,7.0,2.0,1.0,7.0,6.0,1407.054123992566,4.0,1.0,phase_3,,,,,346.0,2.0,865.0,1038.0,692.0,519.0,173.0,346.0,yellow,square
0.0,2.0,1.0,0.0,7.0,3.0,1154.8113960307091,4.0,1.0,phase_3,,,,,348.0,3.0,232.0,696.0,348.0,116.0,464.0,580.0,blue,circle
0.0,1.0,0.5,0.0,7.0,6.0,1062.3607899760827,4.0,1.0,phase_3,,,,,576.0,3.0,768.0,384.0,1152.0,960.0,192.0,576.0,gray,hexagon
0.0,7.0,2.0,1.0,7.0,5.0,1561.7092099855654,4.0,1.0,phase_3,,,,,810.0,6.0,540.0,270.0,675.0,405.0,810.0,135.0,yellow,square
0.0,6.0,1.0,1.0,7.0,5.0,1751.7330939881504,4.0,1.0,phase_3,,,,,696.0,6.0,232.0,580.0,464.0,348.0,696.0,116.0,white,cross
0.0,1.0,0.5,0.0,7.0,6.0,2362.80010396149,4.0,1.0,phase_3,,,,,960.0,5.0,576.0,384.0,768.0,192.0,1152.0,960.0,gray,hexagon
0.0,8.0,4.0,1.0,7.0,2.0,1984.5599959953688,4.0,1.0,phase_3,,,,,924.0,6.0,616.0,924.0,154.0,462.0,770.0,308.0,magenta,flipped triangle
0.0,8.0,4.0,1.0,7.0,4.0,3189.2518869717605,4.0,1.0,phase_3,,,,,696.0,6.0,464.0,580.0,232.0,696.0,116.0,348.0,magenta,flipped triangle
0.0,5.0,0.5,1.0,7.0,5.0,1332.8920140047558,4.0,1.0,phase_3,,,,,924.0,6.0,462.0,154.0,770.0,308.0,924.0,616.0,green,I
0.0,1.0,0.5,0.0,7.0,3.0,1868.5656290035693,4.0,1.0,phase_3,,,,,540.0,4.0,270.0,405.0,540.0,135.0,675.0,810.0,gray,hexagon
0.0,1.0,0.5,0.0,7.0,3.0,1927.086548006628,4.0,1.0,phase_3,,,,,519.0,3.0,346.0,173.0,519.0,1038.0,692.0,865.0,gray,hexagon
0.0,1.0,0.5,0.0,7.0,6.0,1582.9637610004283,4.0,1.0,phase_3,,,,,580.0,5.0,696.0,116.0,348.0,232.0,464.0,580.0,gray,hexagon
0.0,6.0,1.0,1.0,7.0,2.0,2442.957444000058,4.0,1.0,phase_3,,,,,540.0,4.0,810.0,540.0,405.0,135.0,270.0,675.0,white,cross
0.0,5.0,0.5,1.0,7.0,3.0,2523.406801978126,4.0,1.0,phase_3,,,,,865.0,5.0,346.0,519.0,865.0,173.0,1038.0,692.0,green,I
0.0,4.0,4.0,0.0,7.0,5.0,1530.1623329869471,4.0,1.0,phase_3,,,,,924.0,6.0,770.0,462.0,154.0,308.0,924.0,616.0,cyan,triangle
