raw_reward_magnitude,stim_reward,stepwise_reward_magnitude,paired_with_stopping,stim_location,response,reaction_time,block,num_trial_presentations,which_phase,stop_signal_trial_type,left_SSD,right_SSD,accuracy,chosen_bidding_amount,chosen_bidding_level,possible_bid_1,possible_bid_2,possible_bid_3,possible_bid_4,possible_bid_5,possible_bid_6,color_text,shape_text
151.0,1.0,1.0,0.0,4.0,4.0,444.7496309994676,1.0,1.0,phase_1,,,,,,,,,,,,,gray,flipped triangle
316.0,2.0,2.0,0.0,1.0,1.0,457.0807019999847,1.0,1.0,phase_1,,,,,,,,,,,,,magenta,circle
156.0,1.0,1.0,0.0,1.0,1.0,512.3950979996152,1.0,1.0,phase_1,,,,,,,,,,,,,gray,flipped triangle
331.0,2.0,2.0,0.0,3.0,3.0,430.2578180004275,1.0,1.0,phase_1,,,,,,,,,,,,,magenta,circle
161.0,5.0,1.0,1.0,2.0,2.0,410.169820000192,1.0,1.0,phase_1,,,,,,,,,,,,,white,triangle
644.0,3.0,3.0,0.0,1.0,1.0,445.0886380000156,1.0,1.0,phase_1,,,,,,,,,,,,,green,I
142.0,5.0,1.0,1.0,2.0,2.0,352.1399729997938,1.0,1.0,phase_1,,,,,,,,,,,,,white,triangle
0.0,5.0,0.0,1.0,2.0,2.0,419.0985879995423,1.0,1.0,phase_1,,,,,,,,,,,,,white,triangle
0.0,8.0,0.0,1.0,2.0,2.0,399.3024840001453,1.0,1.0,phase_1,,,,,,,,,,,,,cyan,hexagon
0.0,1.0,0.0,0.0,3.0,3.0,362.114699999438,1.0,1.0,phase_1,,,,,,,,,,,,,gray,flipped triangle
340.0,2.0,2.0,0.0,2.0,2.0,391.732265000428,1.0,1.0,phase_1,,,,,,,,,,,,,magenta,circle
664.0,3.0,3.0,0.0,1.0,1.0,380.75898399984,1.0,1.0,phase_1,,,,,,,,,,,,,green,I
665.0,7.0,3.0,1.0,4.0,4.0,298.7748619998456,1.0,1.0,phase_1,,,,,,,,,,,,,blue,cross
0.0,7.0,0.0,1.0,3.0,3.0,371.2491870001031,1.0,1.0,phase_1,,,,,,,,,,,,,blue,cross
334.0,6.0,2.0,1.0,4.0,4.0,345.0256579999404,1.0,1.0,phase_1,,,,,,,,,,,,,orange,square
0.0,7.0,0.0,1.0,4.0,4.0,352.7143599994815,1.0,1.0,phase_1,,,,,,,,,,,,,blue,cross
147.0,1.0,1.0,0.0,4.0,4.0,380.1770130003206,1.0,1.0,phase_1,,,,,,,,,,,,,gray,flipped triangle
349.0,6.0,2.0,1.0,2.0,2.0,335.5651349993422,1.0,1.0,phase_1,,,,,,,,,,,,,orange,square
144.0,5.0,1.0,1.0,4.0,4.0,335.5504740002288,1.0,1.0,phase_1,,,,,,,,,,,,,white,triangle
186.0,1.0,1.0,0.0,1.0,1.0,380.7484680000925,1.0,1.0,phase_1,,,,,,,,,,,,,gray,flipped triangle
636.0,7.0,3.0,1.0,3.0,3.0,400.2911070001573,1.0,1.0,phase_1,,,,,,,,,,,,,blue,cross
670.0,7.0,3.0,1.0,3.0,3.0,373.2616789993699,1.0,1.0,phase_1,,,,,,,,,,,,,blue,cross
1320.0,8.0,4.0,1.0,3.0,3.0,324.9507930004256,1.0,1.0,phase_1,,,,,,,,,,,,,cyan,hexagon
0.0,7.0,0.0,1.0,3.0,3.0,351.1463770000773,1.0,1.0,phase_1,,,,,,,,,,,,,blue,cross
332.0,2.0,2.0,0.0,3.0,3.0,371.961643000759,1.0,1.0,phase_1,,,,,,,,,,,,,magenta,circle
664.0,7.0,3.0,1.0,1.0,1.0,391.6434660004597,1.0,1.0,phase_1,,,,,,,,,,,,,blue,cross
170.0,1.0,1.0,0.0,4.0,4.0,408.7237069998082,1.0,1.0,phase_1,,,,,,,,,,,,,gray,flipped triangle
640.0,3.0,3.0,0.0,2.0,2.0,503.70196600033523,1.0,1.0,phase_1,,,,,,,,,,,,,green,I
183.0,5.0,1.0,1.0,4.0,4.0,389.7032869999748,1.0,1.0,phase_1,,,,,,,,,,,,,white,triangle
646.0,7.0,3.0,1.0,4.0,4.0,372.09156300014,1.0,1.0,phase_1,,,,,,,,,,,,,blue,cross
634.0,3.0,3.0,0.0,3.0,3.0,344.6671229994535,1.0,1.0,phase_1,,,,,,,,,,,,,green,I
333.0,6.0,2.0,1.0,3.0,3.0,380.122138999468,1.0,1.0,phase_1,,,,,,,,,,,,,orange,square
1294.0,8.0,4.0,1.0,4.0,4.0,373.740648000421,1.0,1.0,phase_1,,,,,,,,,,,,,cyan,hexagon
658.0,3.0,3.0,0.0,3.0,3.0,380.5943369998203,1.0,1.0,phase_1,,,,,,,,,,,,,green,I
175.0,5.0,1.0,1.0,4.0,4.0,362.4485270001969,1.0,1.0,phase_1,,,,,,,,,,,,,white,triangle
1283.0,8.0,4.0,1.0,3.0,3.0,334.6538180003335,1.0,1.0,phase_1,,,,,,,,,,,,,cyan,hexagon
0.0,4.0,0.0,0.0,2.0,2.0,578.0043369995838,1.0,1.0,phase_1,,,,,,,,,,,,,yellow,diamond
0.0,2.0,0.0,0.0,2.0,2.0,352.5030900000274,1.0,1.0,phase_1,,,,,,,,,,,,,magenta,circle
0.0,2.0,0.0,0.0,4.0,4.0,325.9261279999919,1.0,1.0,phase_1,,,,,,,,,,,,,magenta,circle
0.0,8.0,0.0,1.0,1.0,1.0,326.3633090000439,1.0,1.0,phase_1,,,,,,,,,,,,,cyan,hexagon
161.0,5.0,1.0,1.0,4.0,4.0,315.8396130002074,1.0,1.0,phase_1,,,,,,,,,,,,,white,triangle
0.0,7.0,0.0,1.0,4.0,4.0,436.6933040000731,1.0,1.0,phase_1,,,,,,,,,,,,,blue,cross
310.0,2.0,2.0,0.0,3.0,3.0,743.8203310002791,1.0,1.0,phase_1,,,,,,,,,,,,,magenta,circle
343.0,2.0,2.0,0.0,3.0,3.0,334.4648319998669,1.0,1.0,phase_1,,,,,,,,,,,,,magenta,circle
139.0,5.0,1.0,1.0,4.0,4.0,447.2123489995283,1.0,1.0,phase_1,,,,,,,,,,,,,white,triangle
665.0,7.0,3.0,1.0,1.0,1.0,345.7920130003913,1.0,1.0,phase_1,,,,,,,,,,,,,blue,cross
0.0,1.0,0.0,0.0,4.0,4.0,345.3330620004635,1.0,1.0,phase_1,,,,,,,,,,,,,gray,flipped triangle
0.0,7.0,0.0,1.0,3.0,3.0,343.5943269996642,1.0,1.0,phase_1,,,,,,,,,,,,,blue,cross
0.0,4.0,0.0,0.0,2.0,2.0,390.5819969995718,1.0,1.0,phase_1,,,,,,,,,,,,,yellow,diamond
156.0,5.0,1.0,1.0,2.0,2.0,351.9199790007405,1.0,1.0,phase_1,,,,,,,,,,,,,white,triangle
0.0,6.0,0.0,1.0,4.0,4.0,338.0075450004369,1.0,1.0,phase_1,,,,,,,,,,,,,orange,square
350.0,6.0,2.0,1.0,3.0,3.0,324.0629380006794,1.0,1.0,phase_1,,,,,,,,,,,,,orange,square
337.0,2.0,2.0,0.0,2.0,2.0,325.6289629998719,1.0,1.0,phase_1,,,,,,,,,,,,,magenta,circle
184.0,5.0,1.0,1.0,3.0,3.0,523.1659440005387,1.0,1.0,phase_1,,,,,,,,,,,,,white,triangle
0.0,4.0,0.0,0.0,1.0,1.0,363.294577000488,1.0,1.0,phase_1,,,,,,,,,,,,,yellow,diamond
306.0,6.0,2.0,1.0,1.0,1.0,362.4802190006448,1.0,1.0,phase_1,,,,,,,,,,,,,orange,square
1278.0,4.0,4.0,0.0,2.0,2.0,400.323501999992,1.0,1.0,phase_1,,,,,,,,,,,,,yellow,diamond
0.0,7.0,0.0,1.0,1.0,1.0,363.5497300001589,1.0,1.0,phase_1,,,,,,,,,,,,,blue,cross
169.0,1.0,1.0,0.0,1.0,1.0,307.7560550000271,1.0,1.0,phase_1,,,,,,,,,,,,,gray,flipped triangle
153.0,1.0,1.0,0.0,4.0,4.0,475.8576109998103,1.0,2.0,phase_1,,,,,,,,,,,,,gray,flipped triangle
175.0,1.0,1.0,0.0,3.0,3.0,344.561120000435,1.0,1.0,phase_1,,,,,,,,,,,,,gray,flipped triangle
1292.0,4.0,4.0,0.0,2.0,2.0,465.927664999981,1.0,1.0,phase_1,,,,,,,,,,,,,yellow,diamond
0.0,4.0,0.0,0.0,1.0,1.0,371.8359409995173,1.0,1.0,phase_1,,,,,,,,,,,,,yellow,diamond
1305.0,8.0,4.0,1.0,1.0,1.0,409.3210799992448,1.0,1.0,phase_1,,,,,,,,,,,,,cyan,hexagon
0.0,8.0,0.0,1.0,1.0,1.0,354.4752000007065,1.0,1.0,phase_1,,,,,,,,,,,,,cyan,hexagon
310.0,6.0,2.0,1.0,4.0,4.0,353.7848599999051,1.0,1.0,phase_1,,,,,,,,,,,,,orange,square
629.0,3.0,3.0,0.0,3.0,3.0,381.1467179993997,1.0,1.0,phase_1,,,,,,,,,,,,,green,I
639.0,7.0,3.0,1.0,4.0,4.0,456.6305210000791,1.0,1.0,phase_1,,,,,,,,,,,,,blue,cross
1280.0,8.0,4.0,1.0,4.0,4.0,318.9650710000933,1.0,1.0,phase_1,,,,,,,,,,,,,cyan,hexagon
647.0,7.0,3.0,1.0,2.0,2.0,354.1272789998402,1.0,1.0,phase_1,,,,,,,,,,,,,blue,cross
1320.0,8.0,4.0,1.0,3.0,3.0,352.8813310003897,1.0,1.0,phase_1,,,,,,,,,,,,,cyan,hexagon
181.0,5.0,1.0,1.0,3.0,3.0,345.2631579993976,1.0,1.0,phase_1,,,,,,,,,,,,,white,triangle
674.0,7.0,3.0,1.0,3.0,3.0,911.8681999998444,1.0,1.0,phase_1,,,,,,,,,,,,,blue,cross
0.0,6.0,0.0,1.0,3.0,3.0,344.4439599998077,1.0,1.0,phase_1,,,,,,,,,,,,,orange,square
179.0,5.0,1.0,1.0,2.0,2.0,298.1261539998741,1.0,1.0,phase_1,,,,,,,,,,,,,white,triangle
1296.0,8.0,4.0,1.0,1.0,1.0,382.1962760002861,1.0,1.0,phase_1,,,,,,,,,,,,,cyan,hexagon
343.0,6.0,2.0,1.0,1.0,1.0,455.6352230001721,1.0,1.0,phase_1,,,,,,,,,,,,,orange,square
1314.0,8.0,4.0,1.0,3.0,3.0,382.5051439998788,1.0,1.0,phase_1,,,,,,,,,,,,,cyan,hexagon
646.0,3.0,3.0,0.0,4.0,4.0,299.0884749997349,1.0,1.0,phase_1,,,,,,,,,,,,,green,I
1292.0,4.0,4.0,0.0,4.0,4.0,316.6536919998179,1.0,1.0,phase_1,,,,,,,,,,,,,yellow,diamond
1309.0,8.0,4.0,1.0,1.0,1.0,417.3800499993376,1.0,1.0,phase_1,,,,,,,,,,,,,cyan,hexagon
142.0,1.0,1.0,0.0,2.0,2.0,474.4938120002189,1.0,1.0,phase_1,,,,,,,,,,,,,gray,flipped triangle
1317.0,8.0,4.0,1.0,4.0,4.0,373.9603730000453,1.0,1.0,phase_1,,,,,,,,,,,,,cyan,hexagon
0.0,5.0,0.0,1.0,3.0,3.0,345.2175649999844,1.0,1.0,phase_1,,,,,,,,,,,,,white,triangle
140.0,1.0,1.0,0.0,2.0,2.0,473.4262389993091,1.0,1.0,phase_1,,,,,,,,,,,,,gray,flipped triangle
0.0,7.0,0.0,1.0,1.0,1.0,382.1100629993452,1.0,1.0,phase_1,,,,,,,,,,,,,blue,cross
0.0,8.0,0.0,1.0,4.0,4.0,363.7226379996718,1.0,1.0,phase_1,,,,,,,,,,,,,cyan,hexagon
0.0,2.0,0.0,0.0,3.0,3.0,307.5351759998739,1.0,1.0,phase_1,,,,,,,,,,,,,magenta,circle
629.0,7.0,3.0,1.0,3.0,3.0,354.2969849995643,1.0,1.0,phase_1,,,,,,,,,,,,,blue,cross
323.0,6.0,2.0,1.0,1.0,1.0,391.5706139996473,1.0,1.0,phase_1,,,,,,,,,,,,,orange,square
155.0,5.0,1.0,1.0,2.0,2.0,419.2752230001133,1.0,2.0,phase_1,,,,,,,,,,,,,white,triangle
173.0,1.0,1.0,0.0,2.0,2.0,437.4138330003916,1.0,1.0,phase_1,,,,,,,,,,,,,gray,flipped triangle
301.0,2.0,2.0,0.0,4.0,4.0,372.4979340004211,1.0,1.0,phase_1,,,,,,,,,,,,,magenta,circle
0.0,6.0,0.0,1.0,3.0,3.0,418.9361720000306,1.0,1.0,phase_1,,,,,,,,,,,,,orange,square
164.0,1.0,1.0,0.0,3.0,3.0,409.3420070003049,1.0,1.0,phase_1,,,,,,,,,,,,,gray,flipped triangle
153.0,5.0,1.0,1.0,2.0,2.0,371.373369000139,1.0,1.0,phase_1,,,,,,,,,,,,,white,triangle
321.0,6.0,2.0,1.0,1.0,1.0,474.94423799980717,1.0,1.0,phase_1,,,,,,,,,,,,,orange,square
0.0,5.0,0.0,1.0,1.0,1.0,409.1541560001133,1.0,1.0,phase_1,,,,,,,,,,,,,white,triangle
674.0,3.0,3.0,0.0,2.0,2.0,455.5026640000505,1.0,1.0,phase_1,,,,,,,,,,,,,green,I
155.0,1.0,1.0,0.0,1.0,1.0,372.3630280001089,1.0,1.0,phase_1,,,,,,,,,,,,,gray,flipped triangle
331.0,6.0,2.0,1.0,4.0,4.0,380.355025999961,2.0,1.0,phase_1,,,,,,,,,,,,,orange,square
0.0,6.0,0.0,1.0,1.0,1.0,344.4988920000469,2.0,1.0,phase_1,,,,,,,,,,,,,orange,square
631.0,3.0,3.0,0.0,4.0,4.0,437.4472809995495,2.0,1.0,phase_1,,,,,,,,,,,,,green,I
1307.0,4.0,4.0,0.0,1.0,1.0,512.1220490000269,2.0,1.0,phase_1,,,,,,,,,,,,,yellow,diamond
342.0,2.0,2.0,0.0,1.0,1.0,362.0131389998278,2.0,1.0,phase_1,,,,,,,,,,,,,magenta,circle
161.0,1.0,1.0,0.0,4.0,4.0,316.5286149996973,2.0,1.0,phase_1,,,,,,,,,,,,,gray,flipped triangle
1286.0,8.0,4.0,1.0,2.0,2.0,695.2510390001407,2.0,1.0,phase_1,,,,,,,,,,,,,cyan,hexagon
1296.0,4.0,4.0,0.0,3.0,3.0,308.2255670005907,2.0,1.0,phase_1,,,,,,,,,,,,,yellow,diamond
642.0,3.0,3.0,0.0,2.0,2.0,475.4142140000112,2.0,1.0,phase_1,,,,,,,,,,,,,green,I
629.0,3.0,3.0,0.0,4.0,4.0,316.8298430000504,2.0,1.0,phase_1,,,,,,,,,,,,,green,I
0.0,1.0,0.0,0.0,1.0,1.0,344.8490299997502,2.0,1.0,phase_1,,,,,,,,,,,,,gray,flipped triangle
1319.0,4.0,4.0,0.0,3.0,3.0,382.9539230000591,2.0,1.0,phase_1,,,,,,,,,,,,,yellow,diamond
173.0,5.0,1.0,1.0,1.0,1.0,381.6452720002417,2.0,1.0,phase_1,,,,,,,,,,,,,white,triangle
316.0,6.0,2.0,1.0,1.0,1.0,417.8918739999062,2.0,1.0,phase_1,,,,,,,,,,,,,orange,square
180.0,1.0,1.0,0.0,3.0,3.0,355.0709979999737,2.0,1.0,phase_1,,,,,,,,,,,,,gray,flipped triangle
625.0,7.0,3.0,1.0,1.0,1.0,335.4357700000037,2.0,1.0,phase_1,,,,,,,,,,,,,blue,cross
336.0,2.0,2.0,0.0,4.0,4.0,343.3198229995469,2.0,1.0,phase_1,,,,,,,,,,,,,magenta,circle
672.0,3.0,3.0,0.0,3.0,3.0,362.1076750005159,2.0,1.0,phase_1,,,,,,,,,,,,,green,I
169.0,1.0,1.0,0.0,4.0,4.0,353.6200790003931,2.0,1.0,phase_1,,,,,,,,,,,,,gray,flipped triangle
138.0,1.0,1.0,0.0,1.0,1.0,446.5671440002552,2.0,1.0,phase_1,,,,,,,,,,,,,gray,flipped triangle
184.0,1.0,1.0,0.0,4.0,4.0,362.7809039999192,2.0,1.0,phase_1,,,,,,,,,,,,,gray,flipped triangle
0.0,1.0,0.0,0.0,4.0,4.0,353.0763039998419,2.0,1.0,phase_1,,,,,,,,,,,,,gray,flipped triangle
1292.0,4.0,4.0,0.0,4.0,4.0,345.4186940007275,2.0,1.0,phase_1,,,,,,,,,,,,,yellow,diamond
1309.0,4.0,4.0,0.0,3.0,3.0,372.3116149994894,2.0,1.0,phase_1,,,,,,,,,,,,,yellow,diamond
301.0,6.0,2.0,1.0,2.0,2.0,509.6118480005316,2.0,1.0,phase_1,,,,,,,,,,,,,orange,square
632.0,3.0,3.0,0.0,4.0,4.0,362.1004160004304,2.0,1.0,phase_1,,,,,,,,,,,,,green,I
1321.0,4.0,4.0,0.0,3.0,3.0,325.6665009994322,2.0,1.0,phase_1,,,,,,,,,,,,,yellow,diamond
333.0,2.0,2.0,0.0,1.0,1.0,537.1066090001477,2.0,1.0,phase_1,,,,,,,,,,,,,magenta,circle
1318.0,8.0,4.0,1.0,4.0,4.0,325.2236309999716,2.0,1.0,phase_1,,,,,,,,,,,,,cyan,hexagon
306.0,6.0,2.0,1.0,2.0,2.0,364.1765499996836,2.0,1.0,phase_1,,,,,,,,,,,,,orange,square
311.0,2.0,2.0,0.0,3.0,3.0,956.6057880001608,2.0,1.0,phase_1,,,,,,,,,,,,,magenta,circle
323.0,2.0,2.0,0.0,4.0,4.0,466.5788530001009,2.0,1.0,phase_1,,,,,,,,,,,,,magenta,circle
316.0,6.0,2.0,1.0,2.0,2.0,502.14130399945134,2.0,1.0,phase_1,,,,,,,,,,,,,orange,square
0.0,3.0,0.0,0.0,1.0,1.0,511.35107099980814,2.0,1.0,phase_1,,,,,,,,,,,,,green,I
647.0,3.0,3.0,0.0,4.0,4.0,363.0498749998878,2.0,1.0,phase_1,,,,,,,,,,,,,green,I
0.0,5.0,0.0,1.0,1.0,1.0,410.233798000263,2.0,1.0,phase_1,,,,,,,,,,,,,white,triangle
0.0,6.0,0.0,1.0,4.0,4.0,390.7757879997007,2.0,1.0,phase_1,,,,,,,,,,,,,orange,square
0.0,4.0,0.0,0.0,2.0,2.0,371.3454890003049,2.0,1.0,phase_1,,,,,,,,,,,,,yellow,diamond
169.0,5.0,1.0,1.0,2.0,2.0,382.2172749996753,2.0,1.0,phase_1,,,,,,,,,,,,,white,triangle
1313.0,8.0,4.0,1.0,3.0,3.0,363.1280690005951,2.0,1.0,phase_1,,,,,,,,,,,,,cyan,hexagon
309.0,2.0,2.0,0.0,4.0,4.0,407.2597079994011,2.0,1.0,phase_1,,,,,,,,,,,,,magenta,circle
1324.0,8.0,4.0,1.0,2.0,2.0,361.9902319996981,2.0,1.0,phase_1,,,,,,,,,,,,,cyan,hexagon
649.0,3.0,3.0,0.0,1.0,1.0,390.4259649998494,2.0,1.0,phase_1,,,,,,,,,,,,,green,I
348.0,6.0,2.0,1.0,3.0,3.0,371.5088690005359,2.0,1.0,phase_1,,,,,,,,,,,,,orange,square
305.0,6.0,2.0,1.0,4.0,4.0,279.0591350003524,2.0,1.0,phase_1,,,,,,,,,,,,,orange,square
1322.0,8.0,4.0,1.0,2.0,2.0,475.3557659996659,2.0,1.0,phase_1,,,,,,,,,,,,,cyan,hexagon
652.0,7.0,3.0,1.0,2.0,2.0,399.4618510005239,2.0,1.0,phase_1,,,,,,,,,,,,,blue,cross
1302.0,4.0,4.0,0.0,3.0,3.0,325.3630159997556,2.0,1.0,phase_1,,,,,,,,,,,,,yellow,diamond
170.0,5.0,1.0,1.0,2.0,2.0,398.8967489995048,2.0,1.0,phase_1,,,,,,,,,,,,,white,triangle
1316.0,4.0,4.0,0.0,2.0,2.0,344.4907359998979,2.0,1.0,phase_1,,,,,,,,,,,,,yellow,diamond
314.0,6.0,2.0,1.0,4.0,4.0,297.1668260006481,2.0,1.0,phase_1,,,,,,,,,,,,,orange,square
175.0,5.0,1.0,1.0,3.0,3.0,409.4858990001739,2.0,1.0,phase_1,,,,,,,,,,,,,white,triangle
322.0,2.0,2.0,0.0,2.0,2.0,511.98957599990536,2.0,1.0,phase_1,,,,,,,,,,,,,magenta,circle
0.0,8.0,0.0,1.0,3.0,3.0,308.0850740007008,2.0,1.0,phase_1,,,,,,,,,,,,,cyan,hexagon
0.0,3.0,0.0,0.0,1.0,1.0,400.1766419996784,2.0,1.0,phase_1,,,,,,,,,,,,,green,I
171.0,5.0,1.0,1.0,3.0,3.0,344.6708860001308,2.0,1.0,phase_1,,,,,,,,,,,,,white,triangle
323.0,6.0,2.0,1.0,1.0,1.0,372.8040960004364,2.0,1.0,phase_1,,,,,,,,,,,,,orange,square
636.0,3.0,3.0,0.0,2.0,2.0,419.0688300004694,2.0,1.0,phase_1,,,,,,,,,,,,,green,I
348.0,2.0,2.0,0.0,1.0,1.0,390.5255129993747,2.0,1.0,phase_1,,,,,,,,,,,,,magenta,circle
657.0,3.0,3.0,0.0,3.0,3.0,335.5244379999931,2.0,1.0,phase_1,,,,,,,,,,,,,green,I
1307.0,8.0,4.0,1.0,1.0,1.0,363.224794999951,2.0,1.0,phase_1,,,,,,,,,,,,,cyan,hexagon
0.0,2.0,0.0,0.0,1.0,1.0,326.5229919998091,2.0,1.0,phase_1,,,,,,,,,,,,,magenta,circle
625.0,3.0,3.0,0.0,1.0,1.0,363.0550420002691,2.0,1.0,phase_1,,,,,,,,,,,,,green,I
0.0,8.0,0.0,1.0,3.0,3.0,306.737205999525,2.0,1.0,phase_1,,,,,,,,,,,,,cyan,hexagon
328.0,6.0,2.0,1.0,3.0,3.0,287.84583200013,2.0,1.0,phase_1,,,,,,,,,,,,,orange,square
344.0,6.0,2.0,1.0,4.0,4.0,678.8324660001308,2.0,2.0,phase_1,,,,,,,,,,,,,orange,square
1302.0,8.0,4.0,1.0,3.0,3.0,436.6906589993959,2.0,1.0,phase_1,,,,,,,,,,,,,cyan,hexagon
1315.0,4.0,4.0,0.0,1.0,1.0,326.1899380004252,2.0,1.0,phase_1,,,,,,,,,,,,,yellow,diamond
0.0,4.0,0.0,0.0,2.0,2.0,418.8692779998746,2.0,1.0,phase_1,,,,,,,,,,,,,yellow,diamond
155.0,5.0,1.0,1.0,3.0,3.0,530.5931140001121,2.0,1.0,phase_1,,,,,,,,,,,,,white,triangle
169.0,1.0,1.0,0.0,1.0,1.0,279.2876559997239,2.0,1.0,phase_1,,,,,,,,,,,,,gray,flipped triangle
336.0,2.0,2.0,0.0,1.0,1.0,315.0129819996436,2.0,1.0,phase_1,,,,,,,,,,,,,magenta,circle
0.0,5.0,0.0,1.0,1.0,1.0,334.6785020003153,2.0,1.0,phase_1,,,,,,,,,,,,,white,triangle
0.0,1.0,0.0,0.0,2.0,2.0,427.7541880001081,2.0,1.0,phase_1,,,,,,,,,,,,,gray,flipped triangle
658.0,7.0,3.0,1.0,4.0,4.0,307.3580310001489,2.0,1.0,phase_1,,,,,,,,,,,,,blue,cross
0.0,6.0,0.0,1.0,3.0,3.0,316.7487340006119,2.0,1.0,phase_1,,,,,,,,,,,,,orange,square
165.0,5.0,1.0,1.0,1.0,1.0,297.7945880002153,2.0,1.0,phase_1,,,,,,,,,,,,,white,triangle
322.0,2.0,2.0,0.0,1.0,1.0,390.1857979999477,2.0,1.0,phase_1,,,,,,,,,,,,,magenta,circle
647.0,7.0,3.0,1.0,1.0,1.0,326.00945700050937,2.0,1.0,phase_1,,,,,,,,,,,,,blue,cross
1300.0,4.0,4.0,0.0,2.0,2.0,400.564963000761,2.0,1.0,phase_1,,,,,,,,,,,,,yellow,diamond
0.0,6.0,0.0,1.0,4.0,4.0,438.4386750007252,2.0,1.0,phase_1,,,,,,,,,,,,,orange,square
180.0,5.0,1.0,1.0,1.0,1.0,474.1286130001754,2.0,1.0,phase_1,,,,,,,,,,,,,white,triangle
316.0,2.0,2.0,0.0,1.0,1.0,547.3964180000621,2.0,1.0,phase_1,,,,,,,,,,,,,magenta,circle
335.0,2.0,2.0,0.0,2.0,2.0,602.555377000499,2.0,1.0,phase_1,,,,,,,,,,,,,magenta,circle
1278.0,8.0,4.0,1.0,4.0,4.0,261.8002299996078,2.0,2.0,phase_1,,,,,,,,,,,,,cyan,hexagon
0.0,1.0,0.0,0.0,4.0,4.0,269.4418129995028,2.0,1.0,phase_1,,,,,,,,,,,,,gray,flipped triangle
322.0,6.0,2.0,1.0,2.0,2.0,399.2734869998458,2.0,1.0,phase_1,,,,,,,,,,,,,orange,square
340.0,6.0,2.0,1.0,4.0,4.0,297.6520819993311,2.0,1.0,phase_1,,,,,,,,,,,,,orange,square
638.0,7.0,3.0,1.0,3.0,3.0,483.2908719999977,2.0,1.0,phase_1,,,,,,,,,,,,,blue,cross
629.0,7.0,3.0,1.0,3.0,3.0,593.8662879998446,2.0,1.0,phase_1,,,,,,,,,,,,,blue,cross
309.0,6.0,2.0,1.0,3.0,3.0,325.7913819998066,2.0,1.0,phase_1,,,,,,,,,,,,,orange,square
668.0,7.0,3.0,1.0,2.0,2.0,407.5547649999862,2.0,1.0,phase_1,,,,,,,,,,,,,blue,cross
1295.0,4.0,4.0,0.0,2.0,2.0,400.7041080003546,2.0,1.0,phase_1,,,,,,,,,,,,,yellow,diamond
301.0,6.0,2.0,1.0,1.0,1.0,540.3651550004724,2.0,1.0,phase_1,,,,,,,,,,,,,orange,square
139.0,1.0,1.0,0.0,2.0,2.0,362.382747999618,2.0,1.0,phase_1,,,,,,,,,,,,,gray,flipped triangle
1280.0,4.0,4.0,0.0,1.0,1.0,344.0060339999036,2.0,1.0,phase_1,,,,,,,,,,,,,yellow,diamond
180.0,5.0,1.0,1.0,1.0,1.0,362.8825659998256,2.0,1.0,phase_1,,,,,,,,,,,,,white,triangle
0.0,3.0,0.0,0.0,2.0,2.0,409.029150000606,2.0,1.0,phase_1,,,,,,,,,,,,,green,I
183.0,1.0,1.0,0.0,2.0,2.0,391.2846359999093,2.0,1.0,phase_1,,,,,,,,,,,,,gray,flipped triangle
661.0,7.0,3.0,1.0,1.0,1.0,380.148119000296,2.0,2.0,phase_1,,,,,,,,,,,,,blue,cross
667.0,7.0,3.0,1.0,2.0,2.0,399.0094769997085,3.0,1.0,phase_1,,,,,,,,,,,,,blue,cross
1319.0,8.0,4.0,1.0,2.0,2.0,408.8745509998261,3.0,1.0,phase_1,,,,,,,,,,,,,cyan,hexagon
0.0,7.0,0.0,1.0,2.0,2.0,540.2865529995324,3.0,1.0,phase_1,,,,,,,,,,,,,blue,cross
1275.0,4.0,4.0,0.0,4.0,4.0,435.8448769999086,3.0,1.0,phase_1,,,,,,,,,,,,,yellow,diamond
669.0,7.0,3.0,1.0,1.0,1.0,373.481227999946,3.0,1.0,phase_1,,,,,,,,,,,,,blue,cross
149.0,5.0,1.0,1.0,3.0,3.0,362.176231000376,3.0,1.0,phase_1,,,,,,,,,,,,,white,triangle
643.0,3.0,3.0,0.0,3.0,3.0,400.2724309993937,3.0,1.0,phase_1,,,,,,,,,,,,,green,I
350.0,2.0,2.0,0.0,1.0,1.0,474.0737869997247,3.0,1.0,phase_1,,,,,,,,,,,,,magenta,circle
0.0,1.0,0.0,0.0,2.0,2.0,363.5935800002698,3.0,1.0,phase_1,,,,,,,,,,,,,gray,flipped triangle
649.0,7.0,3.0,1.0,1.0,1.0,539.48605900041,3.0,1.0,phase_1,,,,,,,,,,,,,blue,cross
0.0,7.0,0.0,1.0,2.0,2.0,390.6413249997058,3.0,1.0,phase_1,,,,,,,,,,,,,blue,cross
314.0,2.0,2.0,0.0,2.0,2.0,418.9516589995037,3.0,1.0,phase_1,,,,,,,,,,,,,magenta,circle
186.0,1.0,1.0,0.0,4.0,4.0,493.4725989996877,3.0,1.0,phase_1,,,,,,,,,,,,,gray,flipped triangle
0.0,8.0,0.0,1.0,3.0,3.0,473.5916239997095,3.0,1.0,phase_1,,,,,,,,,,,,,cyan,hexagon
668.0,3.0,3.0,0.0,2.0,2.0,400.1606419997188,3.0,1.0,phase_1,,,,,,,,,,,,,green,I
1318.0,4.0,4.0,0.0,4.0,4.0,334.5704949997525,3.0,1.0,phase_1,,,,,,,,,,,,,yellow,diamond
321.0,2.0,2.0,0.0,2.0,2.0,372.091377000288,3.0,1.0,phase_1,,,,,,,,,,,,,magenta,circle
0.0,5.0,0.0,1.0,4.0,4.0,315.7647170000928,3.0,1.0,phase_1,,,,,,,,,,,,,white,triangle
671.0,7.0,3.0,1.0,4.0,4.0,361.9945079999525,3.0,1.0,phase_1,,,,,,,,,,,,,blue,cross
147.0,5.0,1.0,1.0,4.0,4.0,335.9662740003841,3.0,1.0,phase_1,,,,,,,,,,,,,white,triangle
630.0,3.0,3.0,0.0,1.0,1.0,464.5800750004127,3.0,1.0,phase_1,,,,,,,,,,,,,green,I
665.0,3.0,3.0,0.0,4.0,4.0,325.0515250001626,3.0,1.0,phase_1,,,,,,,,,,,,,green,I
1305.0,4.0,4.0,0.0,1.0,1.0,345.4160240007695,3.0,1.0,phase_1,,,,,,,,,,,,,yellow,diamond
149.0,1.0,1.0,0.0,3.0,3.0,399.8629450006774,3.0,1.0,phase_1,,,,,,,,,,,,,gray,flipped triangle
337.0,6.0,2.0,1.0,2.0,2.0,354.0743510002357,3.0,1.0,phase_1,,,,,,,,,,,,,orange,square
667.0,3.0,3.0,0.0,1.0,1.0,548.8881599994784,3.0,1.0,phase_1,,,,,,,,,,,,,green,I
1321.0,8.0,4.0,1.0,3.0,3.0,336.3195620004262,3.0,1.0,phase_1,,,,,,,,,,,,,cyan,hexagon
162.0,5.0,1.0,1.0,4.0,4.0,333.8414170002579,3.0,1.0,phase_1,,,,,,,,,,,,,white,triangle
0.0,3.0,0.0,0.0,4.0,4.0,447.24018099987,3.0,1.0,phase_1,,,,,,,,,,,,,green,I
0.0,3.0,0.0,0.0,1.0,1.0,327.5089950002439,3.0,1.0,phase_1,,,,,,,,,,,,,green,I
0.0,4.0,0.0,0.0,3.0,3.0,289.829383000324,3.0,1.0,phase_1,,,,,,,,,,,,,yellow,diamond
180.0,1.0,1.0,0.0,3.0,3.0,428.6044479995325,3.0,1.0,phase_1,,,,,,,,,,,,,gray,flipped triangle
334.0,6.0,2.0,1.0,2.0,2.0,426.0793149996971,3.0,1.0,phase_1,,,,,,,,,,,,,orange,square
1317.0,4.0,4.0,0.0,1.0,1.0,353.9679819996308,3.0,2.0,phase_1,,,,,,,,,,,,,yellow,diamond
140.0,5.0,1.0,1.0,1.0,1.0,390.8599269998376,3.0,1.0,phase_1,,,,,,,,,,,,,white,triangle
0.0,6.0,0.0,1.0,4.0,4.0,568.5767179993491,3.0,1.0,phase_1,,,,,,,,,,,,,orange,square
627.0,3.0,3.0,0.0,1.0,1.0,391.3124219998281,3.0,1.0,phase_1,,,,,,,,,,,,,green,I
138.0,5.0,1.0,1.0,1.0,1.0,381.9076739991942,3.0,1.0,phase_1,,,,,,,,,,,,,white,triangle
627.0,7.0,3.0,1.0,2.0,2.0,352.8961679994609,3.0,1.0,phase_1,,,,,,,,,,,,,blue,cross
316.0,6.0,2.0,1.0,1.0,1.0,427.7378540000427,3.0,1.0,phase_1,,,,,,,,,,,,,orange,square
181.0,1.0,1.0,0.0,2.0,2.0,363.1843530001788,3.0,1.0,phase_1,,,,,,,,,,,,,gray,flipped triangle
311.0,2.0,2.0,0.0,4.0,4.0,363.9138990001811,3.0,1.0,phase_1,,,,,,,,,,,,,magenta,circle
147.0,5.0,1.0,1.0,1.0,1.0,437.8230809998058,3.0,1.0,phase_1,,,,,,,,,,,,,white,triangle
0.0,2.0,0.0,0.0,2.0,2.0,344.8382629994739,3.0,1.0,phase_1,,,,,,,,,,,,,magenta,circle
1294.0,4.0,4.0,0.0,1.0,1.0,334.0496800001347,3.0,1.0,phase_1,,,,,,,,,,,,,yellow,diamond
147.0,1.0,1.0,0.0,3.0,3.0,381.684377000056,3.0,1.0,phase_1,,,,,,,,,,,,,gray,flipped triangle
1295.0,8.0,4.0,1.0,4.0,4.0,364.0142589993047,3.0,1.0,phase_1,,,,,,,,,,,,,cyan,hexagon
0.0,3.0,0.0,0.0,1.0,1.0,531.0625510001046,3.0,1.0,phase_1,,,,,,,,,,,,,green,I
340.0,6.0,2.0,1.0,4.0,4.0,391.2913039994237,3.0,1.0,phase_1,,,,,,,,,,,,,orange,square
1283.0,8.0,4.0,1.0,3.0,3.0,530.7531210000889,3.0,1.0,phase_1,,,,,,,,,,,,,cyan,hexagon
323.0,2.0,2.0,0.0,2.0,2.0,438.2041409999146,3.0,1.0,phase_1,,,,,,,,,,,,,magenta,circle
1299.0,8.0,4.0,1.0,1.0,1.0,492.9514719997314,3.0,1.0,phase_1,,,,,,,,,,,,,cyan,hexagon
305.0,2.0,2.0,0.0,1.0,1.0,427.4196440001105,3.0,1.0,phase_1,,,,,,,,,,,,,magenta,circle
1313.0,4.0,4.0,0.0,1.0,1.0,410.0248089998786,3.0,1.0,phase_1,,,,,,,,,,,,,yellow,diamond
1302.0,4.0,4.0,0.0,4.0,4.0,437.3398699999598,3.0,1.0,phase_1,,,,,,,,,,,,,yellow,diamond
650.0,7.0,3.0,1.0,4.0,4.0,353.5546719995182,3.0,1.0,phase_1,,,,,,,,,,,,,blue,cross
341.0,6.0,2.0,1.0,2.0,2.0,373.2568180003,3.0,1.0,phase_1,,,,,,,,,,,,,orange,square
162.0,1.0,1.0,0.0,1.0,1.0,466.3023479997719,3.0,1.0,phase_1,,,,,,,,,,,,,gray,flipped triangle
634.0,7.0,3.0,1.0,4.0,4.0,474.037773999953,3.0,1.0,phase_1,,,,,,,,,,,,,blue,cross
169.0,5.0,1.0,1.0,1.0,1.0,474.196701999972,3.0,1.0,phase_1,,,,,,,,,,,,,white,triangle
0.0,8.0,0.0,1.0,3.0,3.0,361.9831949999934,3.0,1.0,phase_1,,,,,,,,,,,,,cyan,hexagon
0.0,6.0,0.0,1.0,4.0,4.0,335.5406900000162,3.0,1.0,phase_1,,,,,,,,,,,,,orange,square
639.0,3.0,3.0,0.0,1.0,1.0,399.7916129992518,3.0,1.0,phase_1,,,,,,,,,,,,,green,I
1279.0,8.0,4.0,1.0,2.0,2.0,699.6963969995704,3.0,1.0,phase_1,,,,,,,,,,,,,cyan,hexagon
1305.0,8.0,4.0,1.0,1.0,1.0,372.579783999754,3.0,1.0,phase_1,,,,,,,,,,,,,cyan,hexagon
1305.0,4.0,4.0,0.0,3.0,3.0,361.7904550001185,3.0,1.0,phase_1,,,,,,,,,,,,,yellow,diamond
0.0,1.0,0.0,0.0,2.0,2.0,427.9965750001793,3.0,1.0,phase_1,,,,,,,,,,,,,gray,flipped triangle
0.0,4.0,0.0,0.0,2.0,2.0,409.813774000213,3.0,1.0,phase_1,,,,,,,,,,,,,yellow,diamond
663.0,3.0,3.0,0.0,4.0,4.0,334.9966380001206,3.0,1.0,phase_1,,,,,,,,,,,,,green,I
652.0,3.0,3.0,0.0,2.0,2.0,503.28197599992563,3.0,1.0,phase_1,,,,,,,,,,,,,green,I
1320.0,4.0,4.0,0.0,2.0,2.0,373.0585610001071,3.0,1.0,phase_1,,,,,,,,,,,,,yellow,diamond
0.0,7.0,0.0,1.0,4.0,4.0,364.860077999765,3.0,1.0,phase_1,,,,,,,,,,,,,blue,cross
672.0,3.0,3.0,0.0,1.0,1.0,362.3998880002546,3.0,1.0,phase_1,,,,,,,,,,,,,green,I
0.0,5.0,0.0,1.0,1.0,1.0,438.0175229998713,3.0,1.0,phase_1,,,,,,,,,,,,,white,triangle
628.0,7.0,3.0,1.0,1.0,1.0,372.2043850002592,3.0,1.0,phase_1,,,,,,,,,,,,,blue,cross
340.0,2.0,2.0,0.0,3.0,3.0,343.7632649993247,3.0,1.0,phase_1,,,,,,,,,,,,,magenta,circle
164.0,1.0,1.0,0.0,4.0,4.0,547.967566000807,3.0,1.0,phase_1,,,,,,,,,,,,,gray,flipped triangle
642.0,7.0,3.0,1.0,4.0,4.0,473.4978250007771,3.0,1.0,phase_1,,,,,,,,,,,,,blue,cross
139.0,5.0,1.0,1.0,3.0,3.0,353.0026119997274,3.0,1.0,phase_1,,,,,,,,,,,,,white,triangle
1302.0,8.0,4.0,1.0,3.0,3.0,333.6943599997539,3.0,1.0,phase_1,,,,,,,,,,,,,cyan,hexagon
666.0,7.0,3.0,1.0,3.0,3.0,558.6242200006382,3.0,1.0,phase_1,,,,,,,,,,,,,blue,cross
341.0,2.0,2.0,0.0,3.0,3.0,436.9858170002771,3.0,1.0,phase_1,,,,,,,,,,,,,magenta,circle
322.0,6.0,2.0,1.0,4.0,4.0,436.2327509998067,3.0,1.0,phase_1,,,,,,,,,,,,,orange,square
1295.0,4.0,4.0,0.0,3.0,3.0,333.7344249994203,3.0,1.0,phase_1,,,,,,,,,,,,,yellow,diamond
342.0,6.0,2.0,1.0,1.0,1.0,353.1112390000999,3.0,1.0,phase_1,,,,,,,,,,,,,orange,square
164.0,5.0,1.0,1.0,2.0,2.0,741.3274040000033,3.0,1.0,phase_1,,,,,,,,,,,,,white,triangle
0.0,4.0,0.0,0.0,2.0,2.0,714.1109550002511,3.0,1.0,phase_1,,,,,,,,,,,,,yellow,diamond
1292.0,8.0,4.0,1.0,2.0,2.0,537.9203189995678,3.0,1.0,phase_1,,,,,,,,,,,,,cyan,hexagon
334.0,2.0,2.0,0.0,3.0,3.0,363.9318280002044,3.0,1.0,phase_1,,,,,,,,,,,,,magenta,circle
1280.0,4.0,4.0,0.0,2.0,2.0,400.53631799946737,3.0,1.0,phase_1,,,,,,,,,,,,,yellow,diamond
140.0,5.0,1.0,1.0,4.0,4.0,389.6038030006821,3.0,1.0,phase_1,,,,,,,,,,,,,white,triangle
1289.0,8.0,4.0,1.0,1.0,1.0,371.2636970003586,3.0,1.0,phase_1,,,,,,,,,,,,,cyan,hexagon
661.0,3.0,3.0,0.0,3.0,3.0,371.2738379999791,3.0,1.0,phase_1,,,,,,,,,,,,,green,I
638.0,3.0,3.0,0.0,1.0,1.0,392.3123880003913,3.0,2.0,phase_1,,,,,,,,,,,,,green,I
626.0,3.0,3.0,0.0,4.0,4.0,437.2113609997541,3.0,1.0,phase_1,,,,,,,,,,,,,green,I
672.0,7.0,3.0,1.0,3.0,3.0,333.9754919998086,3.0,1.0,phase_1,,,,,,,,,,,,,blue,cross
186.0,5.0,1.0,1.0,1.0,1.0,391.2406620002002,3.0,1.0,phase_1,,,,,,,,,,,,,white,triangle
328.0,2.0,2.0,0.0,4.0,4.0,363.8148789996194,3.0,1.0,phase_1,,,,,,,,,,,,,magenta,circle
335.0,6.0,2.0,1.0,3.0,3.0,409.6178259997032,3.0,1.0,phase_1,,,,,,,,,,,,,orange,square
1318.0,8.0,4.0,1.0,1.0,1.0,502.76887899963185,3.0,1.0,phase_1,,,,,,,,,,,,,cyan,hexagon
658.0,7.0,3.0,1.0,2.0,2.0,419.6694030006256,4.0,1.0,phase_1,,,,,,,,,,,,,blue,cross
0.0,4.0,0.0,0.0,2.0,2.0,401.2652159999561,4.0,1.0,phase_1,,,,,,,,,,,,,yellow,diamond
1286.0,4.0,4.0,0.0,2.0,2.0,439.0543009994871,4.0,1.0,phase_1,,,,,,,,,,,,,yellow,diamond
1320.0,4.0,4.0,0.0,1.0,1.0,438.0128660004629,4.0,1.0,phase_1,,,,,,,,,,,,,yellow,diamond
0.0,8.0,0.0,1.0,4.0,4.0,400.9430770001927,4.0,1.0,phase_1,,,,,,,,,,,,,cyan,hexagon
1324.0,4.0,4.0,0.0,4.0,4.0,532.6789299997472,4.0,1.0,phase_1,,,,,,,,,,,,,yellow,diamond
1283.0,4.0,4.0,0.0,4.0,4.0,363.6975339995842,4.0,1.0,phase_1,,,,,,,,,,,,,yellow,diamond
0.0,2.0,0.0,0.0,4.0,4.0,326.9230610003433,4.0,1.0,phase_1,,,,,,,,,,,,,magenta,circle
140.0,1.0,1.0,0.0,2.0,2.0,494.7953790006067,4.0,1.0,phase_1,,,,,,,,,,,,,gray,flipped triangle
0.0,5.0,0.0,1.0,3.0,3.0,326.3835300003848,4.0,1.0,phase_1,,,,,,,,,,,,,white,triangle
349.0,2.0,2.0,0.0,2.0,2.0,419.2522510002163,4.0,1.0,phase_1,,,,,,,,,,,,,magenta,circle
1280.0,8.0,4.0,1.0,4.0,4.0,410.7017400001496,4.0,1.0,phase_1,,,,,,,,,,,,,cyan,hexagon
1292.0,8.0,4.0,1.0,2.0,2.0,560.5628909997904,4.0,1.0,phase_1,,,,,,,,,,,,,cyan,hexagon
0.0,1.0,0.0,0.0,3.0,3.0,402.9080860000249,4.0,1.0,phase_1,,,,,,,,,,,,,gray,flipped triangle
632.0,7.0,3.0,1.0,2.0,2.0,447.4544680006147,4.0,1.0,phase_1,,,,,,,,,,,,,blue,cross
168.0,5.0,1.0,1.0,1.0,1.0,390.8122740003819,4.0,1.0,phase_1,,,,,,,,,,,,,white,triangle
0.0,6.0,0.0,1.0,2.0,2.0,430.6388120003248,4.0,1.0,phase_1,,,,,,,,,,,,,orange,square
160.0,1.0,1.0,0.0,2.0,2.0,586.7078570008744,4.0,1.0,phase_1,,,,,,,,,,,,,gray,flipped triangle
1277.0,8.0,4.0,1.0,4.0,4.0,327.2828629997093,4.0,1.0,phase_1,,,,,,,,,,,,,cyan,hexagon
301.0,2.0,2.0,0.0,4.0,4.0,410.6367320000572,4.0,1.0,phase_1,,,,,,,,,,,,,magenta,circle
344.0,2.0,2.0,0.0,1.0,1.0,457.5934499998766,4.0,1.0,phase_1,,,,,,,,,,,,,magenta,circle
0.0,2.0,0.0,0.0,3.0,3.0,358.0176039995422,4.0,1.0,phase_1,,,,,,,,,,,,,magenta,circle
316.0,2.0,2.0,0.0,3.0,3.0,349.6758920000502,4.0,1.0,phase_1,,,,,,,,,,,,,magenta,circle
325.0,6.0,2.0,1.0,2.0,2.0,485.874486999819,4.0,1.0,phase_1,,,,,,,,,,,,,orange,square
311.0,6.0,2.0,1.0,3.0,3.0,442.9893799997444,4.0,1.0,phase_1,,,,,,,,,,,,,orange,square
325.0,2.0,2.0,0.0,2.0,2.0,475.238777999948,4.0,1.0,phase_1,,,,,,,,,,,,,magenta,circle
168.0,1.0,1.0,0.0,1.0,1.0,428.1628940007067,4.0,2.0,phase_1,,,,,,,,,,,,,gray,flipped triangle
670.0,3.0,3.0,0.0,2.0,2.0,400.4145670005528,4.0,1.0,phase_1,,,,,,,,,,,,,green,I
171.0,1.0,1.0,0.0,2.0,2.0,466.8890839993764,4.0,1.0,phase_1,,,,,,,,,,,,,gray,flipped triangle
1316.0,8.0,4.0,1.0,1.0,1.0,402.7289039995594,4.0,1.0,phase_1,,,,,,,,,,,,,cyan,hexagon
1314.0,4.0,4.0,0.0,2.0,2.0,447.3256490000494,4.0,1.0,phase_1,,,,,,,,,,,,,yellow,diamond
336.0,6.0,2.0,1.0,3.0,3.0,354.4017620006343,4.0,1.0,phase_1,,,,,,,,,,,,,orange,square
303.0,2.0,2.0,0.0,4.0,4.0,335.8495649999895,4.0,1.0,phase_1,,,,,,,,,,,,,magenta,circle
306.0,2.0,2.0,0.0,3.0,3.0,317.4024250001821,4.0,1.0,phase_1,,,,,,,,,,,,,magenta,circle
169.0,5.0,1.0,1.0,3.0,3.0,315.8627450002313,4.0,1.0,phase_1,,,,,,,,,,,,,white,triangle
1292.0,8.0,4.0,1.0,2.0,2.0,501.5917069995339,4.0,1.0,phase_1,,,,,,,,,,,,,cyan,hexagon
1299.0,4.0,4.0,0.0,1.0,1.0,381.6955960000996,4.0,1.0,phase_1,,,,,,,,,,,,,yellow,diamond
0.0,5.0,0.0,1.0,2.0,2.0,381.3992209998105,4.0,1.0,phase_1,,,,,,,,,,,,,white,triangle
657.0,7.0,3.0,1.0,2.0,2.0,420.1942729996517,4.0,1.0,phase_1,,,,,,,,,,,,,blue,cross
147.0,1.0,1.0,0.0,3.0,3.0,316.4851210003689,4.0,1.0,phase_1,,,,,,,,,,,,,gray,flipped triangle
0.0,2.0,0.0,0.0,4.0,4.0,447.0828040002743,4.0,1.0,phase_1,,,,,,,,,,,,,magenta,circle
650.0,3.0,3.0,0.0,3.0,3.0,316.5051129999483,4.0,1.0,phase_1,,,,,,,,,,,,,green,I
311.0,2.0,2.0,0.0,4.0,4.0,447.3645059997579,4.0,1.0,phase_1,,,,,,,,,,,,,magenta,circle
186.0,5.0,1.0,1.0,3.0,3.0,336.3242040004479,4.0,1.0,phase_1,,,,,,,,,,,,,white,triangle
647.0,3.0,3.0,0.0,4.0,4.0,371.9082979996528,4.0,1.0,phase_1,,,,,,,,,,,,,green,I
1302.0,4.0,4.0,0.0,3.0,3.0,299.1436970005452,4.0,1.0,phase_1,,,,,,,,,,,,,yellow,diamond
161.0,1.0,1.0,0.0,1.0,1.0,382.145421000132,4.0,1.0,phase_1,,,,,,,,,,,,,gray,flipped triangle
147.0,5.0,1.0,1.0,4.0,4.0,381.7439680005918,4.0,1.0,phase_1,,,,,,,,,,,,,white,triangle
644.0,7.0,3.0,1.0,1.0,1.0,475.5649589997119,4.0,1.0,phase_1,,,,,,,,,,,,,blue,cross
1275.0,8.0,4.0,1.0,3.0,3.0,466.3506120004967,4.0,1.0,phase_1,,,,,,,,,,,,,cyan,hexagon
628.0,3.0,3.0,0.0,3.0,3.0,344.1963739996936,4.0,1.0,phase_1,,,,,,,,,,,,,green,I
1302.0,8.0,4.0,1.0,2.0,2.0,409.3659039999693,4.0,1.0,phase_1,,,,,,,,,,,,,cyan,hexagon
663.0,7.0,3.0,1.0,1.0,1.0,381.8950920003772,4.0,1.0,phase_1,,,,,,,,,,,,,blue,cross
1315.0,8.0,4.0,1.0,4.0,4.0,298.8561860001937,4.0,1.0,phase_1,,,,,,,,,,,,,cyan,hexagon
1300.0,8.0,4.0,1.0,4.0,4.0,354.1273310001998,4.0,1.0,phase_1,,,,,,,,,,,,,cyan,hexagon
631.0,7.0,3.0,1.0,2.0,2.0,363.9288280000983,4.0,1.0,phase_1,,,,,,,,,,,,,blue,cross
306.0,2.0,2.0,0.0,4.0,4.0,372.9830050006057,4.0,1.0,phase_1,,,,,,,,,,,,,magenta,circle
311.0,6.0,2.0,1.0,4.0,4.0,373.5460779998902,4.0,1.0,phase_1,,,,,,,,,,,,,orange,square
0.0,3.0,0.0,0.0,4.0,4.0,364.9080650002361,4.0,1.0,phase_1,,,,,,,,,,,,,green,I
179.0,1.0,1.0,0.0,3.0,3.0,344.8988570007714,4.0,1.0,phase_1,,,,,,,,,,,,,gray,flipped triangle
672.0,7.0,3.0,1.0,2.0,2.0,400.0629720003417,4.0,1.0,phase_1,,,,,,,,,,,,,blue,cross
658.0,3.0,3.0,0.0,2.0,2.0,419.3162370002028,4.0,1.0,phase_1,,,,,,,,,,,,,green,I
0.0,3.0,0.0,0.0,4.0,4.0,298.9351440000973,4.0,1.0,phase_1,,,,,,,,,,,,,green,I
175.0,1.0,1.0,0.0,2.0,2.0,428.8888269993549,4.0,1.0,phase_1,,,,,,,,,,,,,gray,flipped triangle
155.0,1.0,1.0,0.0,1.0,1.0,391.1714050000228,4.0,1.0,phase_1,,,,,,,,,,,,,gray,flipped triangle
1277.0,4.0,4.0,0.0,1.0,1.0,354.0287850000823,4.0,1.0,phase_1,,,,,,,,,,,,,yellow,diamond
0.0,5.0,0.0,1.0,3.0,3.0,344.3031339993467,4.0,1.0,phase_1,,,,,,,,,,,,,white,triangle
666.0,3.0,3.0,0.0,2.0,2.0,419.3945480001275,4.0,1.0,phase_1,,,,,,,,,,,,,green,I
303.0,6.0,2.0,1.0,3.0,3.0,324.6394440002405,4.0,1.0,phase_1,,,,,,,,,,,,,orange,square
1295.0,8.0,4.0,1.0,2.0,2.0,428.8938250001592,4.0,1.0,phase_1,,,,,,,,,,,,,cyan,hexagon
626.0,7.0,3.0,1.0,3.0,3.0,344.3929140003092,4.0,1.0,phase_1,,,,,,,,,,,,,blue,cross
164.0,5.0,1.0,1.0,2.0,2.0,400.9434529998543,4.0,1.0,phase_1,,,,,,,,,,,,,white,triangle
1318.0,4.0,4.0,0.0,4.0,4.0,342.9219750005359,4.0,1.0,phase_1,,,,,,,,,,,,,yellow,diamond
144.0,1.0,1.0,0.0,3.0,3.0,344.8416920000454,4.0,1.0,phase_1,,,,,,,,,,,,,gray,flipped triangle
640.0,7.0,3.0,1.0,3.0,3.0,335.5394239997622,4.0,1.0,phase_1,,,,,,,,,,,,,blue,cross
151.0,5.0,1.0,1.0,3.0,3.0,586.7026229998373,4.0,1.0,phase_1,,,,,,,,,,,,,white,triangle
139.0,1.0,1.0,0.0,3.0,3.0,326.84051400065067,4.0,1.0,phase_1,,,,,,,,,,,,,gray,flipped triangle
665.0,3.0,3.0,0.0,3.0,3.0,363.9204029996108,4.0,1.0,phase_1,,,,,,,,,,,,,green,I
1279.0,4.0,4.0,0.0,3.0,3.0,317.1447859995169,4.0,1.0,phase_1,,,,,,,,,,,,,yellow,diamond
311.0,6.0,2.0,1.0,3.0,3.0,335.3930089997448,4.0,1.0,phase_1,,,,,,,,,,,,,orange,square
643.0,7.0,3.0,1.0,4.0,4.0,491.9718689998262,4.0,1.0,phase_1,,,,,,,,,,,,,blue,cross
160.0,5.0,1.0,1.0,4.0,4.0,383.0805440002223,4.0,1.0,phase_1,,,,,,,,,,,,,white,triangle
0.0,3.0,0.0,0.0,4.0,4.0,483.9465630002451,4.0,1.0,phase_1,,,,,,,,,,,,,green,I
0.0,3.0,0.0,0.0,3.0,3.0,326.4208450000296,4.0,1.0,phase_1,,,,,,,,,,,,,green,I
1322.0,4.0,4.0,0.0,2.0,2.0,401.9967730000644,4.0,1.0,phase_1,,,,,,,,,,,,,yellow,diamond
630.0,7.0,3.0,1.0,4.0,4.0,409.1135829994528,4.0,1.0,phase_1,,,,,,,,,,,,,blue,cross
1289.0,4.0,4.0,0.0,3.0,3.0,482.5682849996155,4.0,1.0,phase_1,,,,,,,,,,,,,yellow,diamond
336.0,6.0,2.0,1.0,1.0,1.0,725.9048579999217,4.0,1.0,phase_1,,,,,,,,,,,,,orange,square
671.0,3.0,3.0,0.0,2.0,2.0,390.614904999893,4.0,2.0,phase_1,,,,,,,,,,,,,green,I
0.0,1.0,0.0,0.0,2.0,2.0,400.2009799996813,4.0,1.0,phase_1,,,,,,,,,,,,,gray,flipped triangle
1283.0,4.0,4.0,0.0,4.0,4.0,325.8789319997959,4.0,1.0,phase_1,,,,,,,,,,,,,yellow,diamond
334.0,2.0,2.0,0.0,2.0,2.0,390.4742149998128,4.0,1.0,phase_1,,,,,,,,,,,,,magenta,circle
669.0,3.0,3.0,0.0,4.0,4.0,363.2984759997271,4.0,1.0,phase_1,,,,,,,,,,,,,green,I
0.0,2.0,0.0,0.0,4.0,4.0,418.7855179998223,4.0,1.0,phase_1,,,,,,,,,,,,,magenta,circle
165.0,1.0,1.0,0.0,4.0,4.0,372.7075540000442,4.0,1.0,phase_1,,,,,,,,,,,,,gray,flipped triangle
1281.0,8.0,4.0,1.0,1.0,1.0,436.2912250007866,4.0,1.0,phase_1,,,,,,,,,,,,,cyan,hexagon
0.0,8.0,0.0,1.0,3.0,3.0,464.8881580005763,4.0,1.0,phase_1,,,,,,,,,,,,,cyan,hexagon
332.0,6.0,2.0,1.0,2.0,2.0,642.4150920001921,4.0,1.0,phase_1,,,,,,,,,,,,,orange,square
1281.0,4.0,4.0,0.0,4.0,4.0,418.8108739999734,4.0,1.0,phase_1,,,,,,,,,,,,,yellow,diamond
0.0,2.0,0.0,0.0,1.0,1.0,566.1992200002715,4.0,1.0,phase_1,,,,,,,,,,,,,magenta,circle
0.0,7.0,3.0,1.0,6.0,6.0,553.8908899998205,1.0,1.0,phase_2,go,250.0,250.0,1.0,,,,,,,,,blue,cross
0.0,7.0,3.0,1.0,5.0,5.0,617.3968309994962,1.0,1.0,phase_2,stop,250.0,250.0,3.0,,,,,,,,,blue,cross
0.0,2.0,2.0,0.0,6.0,6.0,618.63718099994,1.0,1.0,phase_2,go,200.0,250.0,1.0,,,,,,,,,magenta,circle
0.0,2.0,2.0,0.0,5.0,5.0,816.8486149997989,1.0,1.0,phase_2,go,200.0,250.0,1.0,,,,,,,,,magenta,circle
0.0,2.0,2.0,0.0,5.0,5.0,954.3159070008188,1.0,1.0,phase_2,go,200.0,250.0,1.0,,,,,,,,,magenta,circle
0.0,5.0,1.0,1.0,6.0,0.0,0.0,1.0,1.0,phase_2,stop,200.0,250.0,4.0,,,,,,,,,white,triangle
0.0,2.0,2.0,0.0,5.0,5.0,852.0591189999323,1.0,1.0,phase_2,go,200.0,300.0,1.0,,,,,,,,,magenta,circle
0.0,7.0,3.0,1.0,5.0,0.0,0.0,1.0,1.0,phase_2,stop,200.0,300.0,4.0,,,,,,,,,blue,cross
0.0,1.0,1.0,0.0,6.0,6.0,843.7859770001523,1.0,1.0,phase_2,go,250.0,300.0,1.0,,,,,,,,,gray,flipped triangle
0.0,3.0,3.0,0.0,5.0,5.0,1133.8431369995303,1.0,1.0,phase_2,go,250.0,300.0,1.0,,,,,,,,,green,I
0.0,5.0,1.0,1.0,5.0,0.0,0.0,1.0,1.0,phase_2,stop,250.0,300.0,4.0,,,,,,,,,white,triangle
0.0,3.0,3.0,0.0,6.0,6.0,384.8822999998447,1.0,1.0,phase_2,go,300.0,300.0,1.0,,,,,,,,,green,I
0.0,6.0,2.0,1.0,5.0,0.0,0.0,1.0,1.0,phase_2,stop,300.0,300.0,4.0,,,,,,,,,orange,square
0.0,1.0,1.0,0.0,6.0,6.0,506.06203000006644,1.0,1.0,phase_2,go,350.0,300.0,1.0,,,,,,,,,gray,flipped triangle
0.0,8.0,4.0,1.0,5.0,0.0,0.0,1.0,1.0,phase_2,stop,350.0,300.0,4.0,,,,,,,,,cyan,hexagon
0.0,8.0,4.0,1.0,6.0,0.0,0.0,1.0,1.0,phase_2,stop,400.0,300.0,4.0,,,,,,,,,cyan,hexagon
0.0,3.0,3.0,0.0,6.0,6.0,667.0725619997029,1.0,1.0,phase_2,go,400.0,350.0,1.0,,,,,,,,,green,I
0.0,6.0,2.0,1.0,6.0,0.0,0.0,1.0,1.0,phase_2,stop,400.0,350.0,4.0,,,,,,,,,orange,square
0.0,6.0,2.0,1.0,6.0,0.0,0.0,1.0,1.0,phase_2,stop,400.0,400.0,4.0,,,,,,,,,orange,square
0.0,4.0,4.0,0.0,6.0,6.0,628.7121330005903,1.0,1.0,phase_2,go,400.0,450.0,1.0,,,,,,,,,yellow,diamond
0.0,6.0,2.0,1.0,5.0,0.0,0.0,1.0,1.0,phase_2,stop,400.0,450.0,4.0,,,,,,,,,orange,square
0.0,2.0,2.0,0.0,5.0,5.0,724.1305790003025,1.0,1.0,phase_2,go,450.0,450.0,1.0,,,,,,,,,magenta,circle
0.0,4.0,4.0,0.0,5.0,5.0,1096.2914949996048,1.0,1.0,phase_2,go,450.0,450.0,1.0,,,,,,,,,yellow,diamond
0.0,3.0,3.0,0.0,6.0,6.0,758.2614939992709,1.0,1.0,phase_2,go,450.0,450.0,1.0,,,,,,,,,green,I
0.0,4.0,4.0,0.0,6.0,6.0,1320.081530000607,1.0,1.0,phase_2,go,450.0,450.0,1.0,,,,,,,,,yellow,diamond
0.0,8.0,4.0,1.0,5.0,0.0,0.0,1.0,1.0,phase_2,stop,450.0,450.0,4.0,,,,,,,,,cyan,hexagon
0.0,4.0,4.0,0.0,6.0,6.0,534.722409999631,1.0,1.0,phase_2,go,500.0,450.0,1.0,,,,,,,,,yellow,diamond
0.0,2.0,2.0,0.0,5.0,5.0,881.3866360005704,1.0,1.0,phase_2,go,500.0,450.0,1.0,,,,,,,,,magenta,circle
0.0,3.0,3.0,0.0,5.0,5.0,805.5149760002678,1.0,1.0,phase_2,go,500.0,450.0,1.0,,,,,,,,,green,I
0.0,2.0,2.0,0.0,5.0,5.0,1274.1863069995816,1.0,1.0,phase_2,go,500.0,450.0,1.0,,,,,,,,,magenta,circle
0.0,4.0,4.0,0.0,6.0,6.0,928.1932630001392,1.0,1.0,phase_2,go,500.0,450.0,1.0,,,,,,,,,yellow,diamond
0.0,1.0,1.0,0.0,5.0,5.0,721.7370069993194,1.0,1.0,phase_2,go,500.0,450.0,1.0,,,,,,,,,gray,flipped triangle
0.0,3.0,3.0,0.0,5.0,5.0,1104.8447709999891,1.0,1.0,phase_2,go,500.0,450.0,1.0,,,,,,,,,green,I
0.0,4.0,4.0,0.0,5.0,5.0,535.4607489998671,1.0,1.0,phase_2,go,500.0,450.0,1.0,,,,,,,,,yellow,diamond
0.0,5.0,1.0,1.0,5.0,0.0,0.0,1.0,1.0,phase_2,stop,500.0,450.0,4.0,,,,,,,,,white,triangle
0.0,7.0,3.0,1.0,5.0,0.0,0.0,1.0,1.0,phase_2,stop,550.0,450.0,4.0,,,,,,,,,blue,cross
0.0,3.0,3.0,0.0,5.0,5.0,404.1793010001129,2.0,1.0,phase_2,go,600.0,450.0,1.0,,,,,,,,,green,I
0.0,8.0,4.0,1.0,6.0,6.0,337.7610929992443,2.0,1.0,phase_2,stop,600.0,450.0,3.0,,,,,,,,,cyan,hexagon
0.0,4.0,4.0,0.0,6.0,6.0,450.8564160005335,2.0,1.0,phase_2,go,600.0,400.0,1.0,,,,,,,,,yellow,diamond
0.0,2.0,2.0,0.0,5.0,5.0,377.9438520004987,2.0,1.0,phase_2,go,600.0,400.0,1.0,,,,,,,,,magenta,circle
0.0,7.0,3.0,1.0,5.0,5.0,591.2560319993645,2.0,1.0,phase_2,stop,600.0,400.0,3.0,,,,,,,,,blue,cross
0.0,6.0,2.0,1.0,5.0,0.0,0.0,2.0,1.0,phase_2,stop,550.0,400.0,4.0,,,,,,,,,orange,square
0.0,7.0,3.0,1.0,5.0,0.0,0.0,2.0,1.0,phase_2,stop,600.0,400.0,4.0,,,,,,,,,blue,cross
0.0,1.0,1.0,0.0,6.0,6.0,730.7309719999466,2.0,1.0,phase_2,go,650.0,400.0,1.0,,,,,,,,,gray,flipped triangle
0.0,6.0,2.0,1.0,5.0,0.0,0.0,2.0,1.0,phase_2,stop,650.0,400.0,4.0,,,,,,,,,orange,square
0.0,8.0,4.0,1.0,6.0,6.0,328.6047729998245,2.0,1.0,phase_2,stop,700.0,400.0,3.0,,,,,,,,,cyan,hexagon
0.0,4.0,4.0,0.0,5.0,5.0,386.086943999544,2.0,1.0,phase_2,go,700.0,350.0,1.0,,,,,,,,,yellow,diamond
0.0,4.0,4.0,0.0,5.0,5.0,1002.9166750000511,2.0,1.0,phase_2,go,700.0,350.0,1.0,,,,,,,,,yellow,diamond
0.0,1.0,1.0,0.0,6.0,6.0,901.1194690001504,2.0,1.0,phase_2,go,700.0,350.0,1.0,,,,,,,,,gray,flipped triangle
0.0,2.0,2.0,0.0,6.0,6.0,592.2233480005161,2.0,1.0,phase_2,go,700.0,350.0,1.0,,,,,,,,,magenta,circle
0.0,5.0,1.0,1.0,5.0,5.0,821.8776530002287,2.0,1.0,phase_2,stop,700.0,350.0,3.0,,,,,,,,,white,triangle
0.0,3.0,3.0,0.0,5.0,0.0,0.0,2.0,1.0,phase_2,go,650.0,350.0,5.0,,,,,,,,,green,I
0.0,3.0,3.0,0.0,5.0,5.0,526.6961759998594,2.0,1.0,phase_2,go,650.0,350.0,1.0,,,,,,,,,green,I
0.0,1.0,1.0,0.0,5.0,5.0,668.4644029992342,2.0,1.0,phase_2,go,650.0,350.0,1.0,,,,,,,,,gray,flipped triangle
0.0,3.0,3.0,0.0,5.0,5.0,395.2604369997061,2.0,1.0,phase_2,go,650.0,350.0,1.0,,,,,,,,,green,I
0.0,2.0,2.0,0.0,5.0,5.0,516.8421050002507,2.0,1.0,phase_2,go,650.0,350.0,1.0,,,,,,,,,magenta,circle
0.0,3.0,3.0,0.0,6.0,6.0,440.3247119998923,2.0,1.0,phase_2,go,650.0,350.0,1.0,,,,,,,,,green,I
0.0,4.0,4.0,0.0,6.0,6.0,559.5925289999286,2.0,1.0,phase_2,go,650.0,350.0,1.0,,,,,,,,,yellow,diamond
0.0,7.0,3.0,1.0,5.0,5.0,452.0428279993211,2.0,1.0,phase_2,go,650.0,350.0,1.0,,,,,,,,,blue,cross
0.0,6.0,2.0,1.0,6.0,6.0,406.1209130004499,2.0,1.0,phase_2,stop,650.0,350.0,3.0,,,,,,,,,orange,square
0.0,3.0,3.0,0.0,6.0,6.0,582.2546709996459,2.0,1.0,phase_2,go,650.0,300.0,1.0,,,,,,,,,green,I
0.0,2.0,2.0,0.0,6.0,6.0,328.5201139997298,2.0,1.0,phase_2,go,650.0,300.0,1.0,,,,,,,,,magenta,circle
0.0,3.0,3.0,0.0,6.0,2.0,1015.1941909998641,2.0,1.0,phase_2,go,650.0,300.0,2.0,,,,,,,,,green,I
0.0,8.0,4.0,1.0,6.0,6.0,358.2882479995533,2.0,1.0,phase_2,stop,650.0,300.0,3.0,,,,,,,,,cyan,hexagon
0.0,6.0,2.0,1.0,6.0,0.0,0.0,2.0,1.0,phase_2,stop,650.0,250.0,4.0,,,,,,,,,orange,square
0.0,5.0,1.0,1.0,5.0,5.0,338.0547970000407,2.0,1.0,phase_2,stop,650.0,300.0,3.0,,,,,,,,,white,triangle
0.0,2.0,2.0,0.0,6.0,6.0,676.2203520002004,2.0,1.0,phase_2,go,600.0,300.0,1.0,,,,,,,,,magenta,circle
0.0,4.0,4.0,0.0,5.0,5.0,647.7384969994091,2.0,1.0,phase_2,go,600.0,300.0,1.0,,,,,,,,,yellow,diamond
0.0,1.0,1.0,0.0,6.0,6.0,403.4673490004934,2.0,1.0,phase_2,go,600.0,300.0,1.0,,,,,,,,,gray,flipped triangle
0.0,5.0,1.0,1.0,6.0,6.0,309.5432150003034,2.0,1.0,phase_2,go,600.0,300.0,1.0,,,,,,,,,white,triangle
0.0,3.0,3.0,0.0,6.0,6.0,713.3738180000364,2.0,1.0,phase_2,go,600.0,300.0,1.0,,,,,,,,,green,I
0.0,7.0,3.0,1.0,5.0,5.0,759.0933199999199,2.0,1.0,phase_2,go,600.0,300.0,1.0,,,,,,,,,blue,cross
0.0,7.0,3.0,1.0,5.0,5.0,487.6869079998869,3.0,1.0,phase_2,stop,600.0,300.0,3.0,,,,,,,,,blue,cross
0.0,8.0,4.0,1.0,5.0,0.0,0.0,3.0,1.0,phase_2,stop,550.0,300.0,4.0,,,,,,,,,cyan,hexagon
0.0,5.0,1.0,1.0,6.0,6.0,535.6753960004426,3.0,1.0,phase_2,go,600.0,300.0,1.0,,,,,,,,,white,triangle
0.0,7.0,3.0,1.0,5.0,0.0,0.0,3.0,1.0,phase_2,stop,600.0,300.0,4.0,,,,,,,,,blue,cross
0.0,4.0,4.0,0.0,5.0,5.0,965.0220630001058,3.0,1.0,phase_2,go,650.0,300.0,1.0,,,,,,,,,yellow,diamond
0.0,7.0,3.0,1.0,5.0,0.0,0.0,3.0,1.0,phase_2,stop,650.0,300.0,4.0,,,,,,,,,blue,cross
0.0,3.0,3.0,0.0,5.0,5.0,755.5884809999043,3.0,1.0,phase_2,go,700.0,300.0,1.0,,,,,,,,,green,I
0.0,2.0,2.0,0.0,5.0,5.0,703.5936329994001,3.0,1.0,phase_2,go,700.0,300.0,1.0,,,,,,,,,magenta,circle
0.0,2.0,2.0,0.0,5.0,5.0,377.3094910002328,3.0,1.0,phase_2,go,700.0,300.0,1.0,,,,,,,,,magenta,circle
0.0,8.0,4.0,1.0,5.0,5.0,847.6270950004618,3.0,1.0,phase_2,go,700.0,300.0,1.0,,,,,,,,,cyan,hexagon
0.0,4.0,4.0,0.0,5.0,5.0,356.3385799998286,3.0,1.0,phase_2,go,700.0,300.0,1.0,,,,,,,,,yellow,diamond
0.0,8.0,4.0,1.0,5.0,5.0,330.7616130005044,3.0,1.0,phase_2,stop,700.0,300.0,3.0,,,,,,,,,cyan,hexagon
0.0,6.0,2.0,1.0,5.0,5.0,762.0674859999781,3.0,1.0,phase_2,stop,650.0,300.0,3.0,,,,,,,,,orange,square
0.0,4.0,4.0,0.0,6.0,6.0,648.7245030002668,3.0,1.0,phase_2,go,600.0,300.0,1.0,,,,,,,,,yellow,diamond
0.0,4.0,4.0,0.0,6.0,6.0,376.913959000376,3.0,1.0,phase_2,go,600.0,300.0,1.0,,,,,,,,,yellow,diamond
0.0,7.0,3.0,1.0,5.0,5.0,534.9891590003608,3.0,1.0,phase_2,go,600.0,300.0,1.0,,,,,,,,,blue,cross
0.0,7.0,3.0,1.0,6.0,0.0,0.0,3.0,1.0,phase_2,stop,600.0,300.0,4.0,,,,,,,,,blue,cross
0.0,5.0,1.0,1.0,6.0,0.0,0.0,3.0,1.0,phase_2,stop,600.0,350.0,4.0,,,,,,,,,white,triangle
0.0,2.0,2.0,0.0,6.0,6.0,404.9982530004854,3.0,1.0,phase_2,go,600.0,400.0,1.0,,,,,,,,,magenta,circle
0.0,8.0,4.0,1.0,5.0,5.0,565.2100380002594,3.0,1.0,phase_2,stop,600.0,400.0,3.0,,,,,,,,,cyan,hexagon
0.0,6.0,2.0,1.0,6.0,6.0,348.8642289994459,3.0,1.0,phase_2,go,550.0,400.0,1.0,,,,,,,,,orange,square
0.0,3.0,3.0,0.0,6.0,6.0,386.3561909993223,3.0,1.0,phase_2,go,550.0,400.0,1.0,,,,,,,,,green,I
0.0,1.0,1.0,0.0,5.0,5.0,637.7427540001008,3.0,1.0,phase_2,go,550.0,400.0,1.0,,,,,,,,,gray,flipped triangle
0.0,6.0,2.0,1.0,6.0,6.0,483.9580950001618,3.0,1.0,phase_2,stop,550.0,400.0,3.0,,,,,,,,,orange,square
0.0,7.0,3.0,1.0,6.0,6.0,873.718992999784,3.0,1.0,phase_2,go,550.0,350.0,1.0,,,,,,,,,blue,cross
0.0,8.0,4.0,1.0,6.0,6.0,329.6340660008354,3.0,1.0,phase_2,stop,550.0,350.0,3.0,,,,,,,,,cyan,hexagon
0.0,2.0,2.0,0.0,5.0,5.0,846.453231999476,3.0,1.0,phase_2,go,550.0,300.0,1.0,,,,,,,,,magenta,circle
0.0,7.0,3.0,1.0,5.0,0.0,0.0,3.0,1.0,phase_2,stop,550.0,300.0,4.0,,,,,,,,,blue,cross
0.0,1.0,1.0,0.0,6.0,6.0,883.0639569996492,3.0,1.0,phase_2,go,600.0,300.0,1.0,,,,,,,,,gray,flipped triangle
0.0,7.0,3.0,1.0,5.0,0.0,0.0,3.0,1.0,phase_2,stop,600.0,300.0,4.0,,,,,,,,,blue,cross
0.0,5.0,1.0,1.0,6.0,0.0,0.0,3.0,1.0,phase_2,stop,650.0,300.0,4.0,,,,,,,,,white,triangle
0.0,7.0,3.0,1.0,6.0,0.0,0.0,3.0,1.0,phase_2,stop,650.0,350.0,4.0,,,,,,,,,blue,cross
0.0,3.0,3.0,0.0,6.0,6.0,648.2889070002784,3.0,1.0,phase_2,go,650.0,400.0,1.0,,,,,,,,,green,I
0.0,7.0,3.0,1.0,6.0,6.0,320.0491489997148,3.0,1.0,phase_2,stop,650.0,400.0,3.0,,,,,,,,,blue,cross
0.0,1.0,1.0,0.0,5.0,5.0,431.367598000179,3.0,1.0,phase_2,go,650.0,350.0,1.0,,,,,,,,,gray,flipped triangle
0.0,1.0,1.0,0.0,5.0,5.0,732.1607230005611,3.0,1.0,phase_2,go,650.0,350.0,1.0,,,,,,,,,gray,flipped triangle
0.0,7.0,3.0,1.0,6.0,6.0,479.4346560001941,4.0,1.0,phase_2,stop,650.0,350.0,3.0,,,,,,,,,blue,cross
0.0,5.0,1.0,1.0,6.0,0.0,0.0,4.0,1.0,phase_2,stop,650.0,300.0,4.0,,,,,,,,,white,triangle
0.0,1.0,1.0,0.0,5.0,5.0,603.2670750000761,4.0,1.0,phase_2,go,650.0,350.0,1.0,,,,,,,,,gray,flipped triangle
0.0,6.0,2.0,1.0,6.0,6.0,366.6334500003358,4.0,1.0,phase_2,go,650.0,350.0,1.0,,,,,,,,,orange,square
0.0,2.0,2.0,0.0,5.0,5.0,357.4902350001139,4.0,1.0,phase_2,go,650.0,350.0,1.0,,,,,,,,,magenta,circle
0.0,8.0,4.0,1.0,6.0,6.0,320.0904240002273,4.0,1.0,phase_2,stop,650.0,350.0,3.0,,,,,,,,,cyan,hexagon
0.0,1.0,1.0,0.0,5.0,5.0,845.8817040000213,4.0,1.0,phase_2,go,650.0,300.0,1.0,,,,,,,,,gray,flipped triangle
0.0,1.0,1.0,0.0,5.0,5.0,628.3298930002275,4.0,1.0,phase_2,go,650.0,300.0,1.0,,,,,,,,,gray,flipped triangle
0.0,4.0,4.0,0.0,5.0,5.0,386.9622550000713,4.0,1.0,phase_2,go,650.0,300.0,1.0,,,,,,,,,yellow,diamond
0.0,6.0,2.0,1.0,6.0,6.0,675.4411410001921,4.0,1.0,phase_2,go,650.0,300.0,1.0,,,,,,,,,orange,square
0.0,7.0,3.0,1.0,6.0,0.0,0.0,4.0,1.0,phase_2,stop,650.0,300.0,4.0,,,,,,,,,blue,cross
0.0,5.0,1.0,1.0,6.0,6.0,390.4360440001255,4.0,1.0,phase_2,stop,650.0,350.0,3.0,,,,,,,,,white,triangle
0.0,5.0,1.0,1.0,6.0,6.0,608.6208990000159,4.0,1.0,phase_2,stop,650.0,300.0,3.0,,,,,,,,,white,triangle
0.0,4.0,4.0,0.0,5.0,5.0,339.2686280003545,4.0,1.0,phase_2,go,650.0,250.0,1.0,,,,,,,,,yellow,diamond
0.0,8.0,4.0,1.0,6.0,0.0,0.0,4.0,1.0,phase_2,stop,650.0,250.0,4.0,,,,,,,,,cyan,hexagon
0.0,5.0,1.0,1.0,6.0,0.0,0.0,4.0,1.0,phase_2,stop,650.0,300.0,4.0,,,,,,,,,white,triangle
0.0,8.0,4.0,1.0,6.0,0.0,0.0,4.0,1.0,phase_2,stop,650.0,350.0,4.0,,,,,,,,,cyan,hexagon
0.0,2.0,2.0,0.0,5.0,5.0,283.9891019993956,4.0,1.0,phase_2,go,650.0,400.0,1.0,,,,,,,,,magenta,circle
0.0,8.0,4.0,1.0,6.0,0.0,0.0,4.0,1.0,phase_2,stop,650.0,400.0,4.0,,,,,,,,,cyan,hexagon
0.0,7.0,3.0,1.0,6.0,0.0,0.0,4.0,1.0,phase_2,stop,650.0,450.0,4.0,,,,,,,,,blue,cross
0.0,7.0,3.0,1.0,6.0,6.0,901.7412690000128,4.0,1.0,phase_2,go,650.0,500.0,1.0,,,,,,,,,blue,cross
0.0,3.0,3.0,0.0,6.0,6.0,906.9458839994696,4.0,1.0,phase_2,go,650.0,500.0,1.0,,,,,,,,,green,I
0.0,6.0,2.0,1.0,6.0,0.0,0.0,4.0,1.0,phase_2,stop,650.0,500.0,4.0,,,,,,,,,orange,square
0.0,8.0,4.0,1.0,5.0,5.0,748.352038000121,4.0,1.0,phase_2,stop,650.0,550.0,3.0,,,,,,,,,cyan,hexagon
0.0,6.0,2.0,1.0,6.0,6.0,975.6620590005696,4.0,1.0,phase_2,go,600.0,550.0,1.0,,,,,,,,,orange,square
0.0,8.0,4.0,1.0,6.0,6.0,393.2970119994934,4.0,1.0,phase_2,go,600.0,550.0,1.0,,,,,,,,,cyan,hexagon
0.0,1.0,1.0,0.0,6.0,6.0,848.3604379998724,4.0,1.0,phase_2,go,600.0,550.0,1.0,,,,,,,,,gray,flipped triangle
0.0,2.0,2.0,0.0,6.0,6.0,355.9322209994207,4.0,1.0,phase_2,go,600.0,550.0,1.0,,,,,,,,,magenta,circle
0.0,4.0,4.0,0.0,5.0,5.0,591.3882109998667,4.0,1.0,phase_2,go,600.0,550.0,1.0,,,,,,,,,yellow,diamond
0.0,6.0,2.0,1.0,5.0,5.0,348.0972340003063,4.0,1.0,phase_2,stop,600.0,550.0,3.0,,,,,,,,,orange,square
0.0,5.0,1.0,1.0,6.0,6.0,582.5187529999312,4.0,1.0,phase_2,stop,550.0,550.0,3.0,,,,,,,,,white,triangle
0.0,5.0,1.0,1.0,6.0,6.0,318.5528929998327,4.0,1.0,phase_2,stop,550.0,500.0,3.0,,,,,,,,,white,triangle
0.0,2.0,2.0,0.0,5.0,5.0,526.3278860002174,4.0,1.0,phase_2,go,550.0,450.0,1.0,,,,,,,,,magenta,circle
0.0,4.0,4.0,0.0,6.0,6.0,589.8365919993012,4.0,1.0,phase_2,go,550.0,450.0,1.0,,,,,,,,,yellow,diamond
0.0,5.0,1.0,1.0,5.0,5.0,374.6897569999419,4.0,1.0,phase_2,stop,550.0,450.0,3.0,,,,,,,,,white,triangle
0.0,6.0,2.0,1.0,5.0,5.0,862.1066280002196,4.0,1.0,phase_2,go,500.0,450.0,1.0,,,,,,,,,orange,square
0.0,6.0,2.0,1.0,5.0,0.0,0.0,5.0,1.0,phase_2,stop,500.0,450.0,4.0,,,,,,,,,orange,square
0.0,2.0,2.0,0.0,6.0,6.0,779.7929420003129,5.0,1.0,phase_2,go,550.0,450.0,1.0,,,,,,,,,magenta,circle
0.0,1.0,1.0,0.0,5.0,0.0,0.0,5.0,1.0,phase_2,go,550.0,450.0,5.0,,,,,,,,,gray,flipped triangle
0.0,4.0,4.0,0.0,5.0,0.0,0.0,5.0,1.0,phase_2,go,550.0,450.0,5.0,,,,,,,,,yellow,diamond
0.0,1.0,1.0,0.0,6.0,6.0,368.0100540004787,5.0,1.0,phase_2,go,550.0,450.0,1.0,,,,,,,,,gray,flipped triangle
0.0,5.0,1.0,1.0,6.0,6.0,431.3760590002857,5.0,1.0,phase_2,stop,550.0,450.0,3.0,,,,,,,,,white,triangle
0.0,1.0,1.0,0.0,6.0,6.0,414.5869730000413,5.0,1.0,phase_2,go,550.0,400.0,1.0,,,,,,,,,gray,flipped triangle
0.0,5.0,1.0,1.0,6.0,6.0,347.1758109999427,5.0,1.0,phase_2,go,550.0,400.0,1.0,,,,,,,,,white,triangle
0.0,7.0,3.0,1.0,6.0,6.0,318.8967520000005,5.0,1.0,phase_2,stop,550.0,400.0,3.0,,,,,,,,,blue,cross
0.0,8.0,4.0,1.0,5.0,5.0,376.0244479999528,5.0,1.0,phase_2,stop,550.0,350.0,3.0,,,,,,,,,cyan,hexagon
0.0,6.0,2.0,1.0,5.0,5.0,578.9270710001801,5.0,1.0,phase_2,stop,500.0,350.0,3.0,,,,,,,,,orange,square
0.0,4.0,4.0,0.0,6.0,6.0,713.3076270001766,5.0,1.0,phase_2,go,450.0,350.0,1.0,,,,,,,,,yellow,diamond
0.0,6.0,2.0,1.0,5.0,5.0,338.1327779998173,5.0,1.0,phase_2,stop,450.0,350.0,3.0,,,,,,,,,orange,square
0.0,7.0,3.0,1.0,6.0,6.0,676.2363230000119,5.0,1.0,phase_2,go,400.0,350.0,1.0,,,,,,,,,blue,cross
0.0,3.0,3.0,0.0,6.0,6.0,420.5262080004104,5.0,1.0,phase_2,go,400.0,350.0,1.0,,,,,,,,,green,I
0.0,6.0,2.0,1.0,5.0,5.0,348.1353780007339,5.0,1.0,phase_2,go,400.0,350.0,1.0,,,,,,,,,orange,square
0.0,1.0,1.0,0.0,5.0,5.0,355.7385309995879,5.0,1.0,phase_2,go,400.0,350.0,1.0,,,,,,,,,gray,flipped triangle
0.0,7.0,3.0,1.0,6.0,6.0,336.7820410003332,5.0,1.0,phase_2,stop,400.0,350.0,3.0,,,,,,,,,blue,cross
0.0,4.0,4.0,0.0,5.0,5.0,393.2678909995957,5.0,1.0,phase_2,go,400.0,300.0,1.0,,,,,,,,,yellow,diamond
0.0,8.0,4.0,1.0,5.0,0.0,0.0,5.0,1.0,phase_2,stop,400.0,300.0,4.0,,,,,,,,,cyan,hexagon
0.0,5.0,1.0,1.0,6.0,6.0,366.4729149995764,5.0,1.0,phase_2,go,450.0,300.0,1.0,,,,,,,,,white,triangle
0.0,2.0,2.0,0.0,6.0,6.0,675.8740430004764,5.0,1.0,phase_2,go,450.0,300.0,1.0,,,,,,,,,magenta,circle
0.0,8.0,4.0,1.0,5.0,0.0,0.0,5.0,1.0,phase_2,stop,450.0,300.0,4.0,,,,,,,,,cyan,hexagon
0.0,4.0,4.0,0.0,6.0,6.0,347.6443610006754,5.0,1.0,phase_2,go,500.0,300.0,1.0,,,,,,,,,yellow,diamond
0.0,2.0,2.0,0.0,6.0,6.0,675.1917389992741,5.0,1.0,phase_2,go,500.0,300.0,1.0,,,,,,,,,magenta,circle
0.0,4.0,4.0,0.0,6.0,6.0,676.9844990003548,5.0,1.0,phase_2,go,500.0,300.0,1.0,,,,,,,,,yellow,diamond
0.0,6.0,2.0,1.0,6.0,6.0,333.0241450003086,5.0,1.0,phase_2,stop,500.0,300.0,3.0,,,,,,,,,orange,square
0.0,4.0,4.0,0.0,5.0,5.0,693.8154460003716,5.0,1.0,phase_2,go,500.0,250.0,1.0,,,,,,,,,yellow,diamond
0.0,3.0,3.0,0.0,5.0,5.0,497.5112869997247,5.0,1.0,phase_2,go,500.0,250.0,1.0,,,,,,,,,green,I
0.0,8.0,4.0,1.0,5.0,5.0,787.6364009998724,5.0,1.0,phase_2,go,500.0,250.0,1.0,,,,,,,,,cyan,hexagon
0.0,4.0,4.0,0.0,6.0,6.0,451.0340559991164,5.0,1.0,phase_2,go,500.0,250.0,1.0,,,,,,,,,yellow,diamond
0.0,1.0,1.0,0.0,6.0,6.0,395.2160030003142,5.0,1.0,phase_2,go,500.0,250.0,1.0,,,,,,,,,gray,flipped triangle
0.0,1.0,1.0,0.0,5.0,5.0,619.3641499994555,5.0,1.0,phase_2,go,500.0,250.0,1.0,,,,,,,,,gray,flipped triangle
0.0,7.0,3.0,1.0,6.0,6.0,320.8442430004652,5.0,1.0,phase_2,stop,500.0,250.0,3.0,,,,,,,,,blue,cross
0.0,1.0,1.0,0.0,6.0,6.0,338.4143029998085,5.0,1.0,phase_2,go,500.0,200.0,1.0,,,,,,,,,gray,flipped triangle
0.0,6.0,2.0,1.0,6.0,6.0,300.4502799994952,5.0,1.0,phase_2,go,500.0,200.0,1.0,,,,,,,,,orange,square
0.0,1.0,1.0,0.0,6.0,6.0,328.2728100002714,6.0,1.0,phase_2,go,500.0,200.0,1.0,,,,,,,,,gray,flipped triangle
0.0,1.0,1.0,0.0,5.0,5.0,430.3528000000369,6.0,1.0,phase_2,go,500.0,200.0,1.0,,,,,,,,,gray,flipped triangle
0.0,2.0,2.0,0.0,5.0,5.0,534.3677680002656,6.0,1.0,phase_2,go,500.0,200.0,1.0,,,,,,,,,magenta,circle
0.0,4.0,4.0,0.0,6.0,6.0,272.0754539996051,6.0,1.0,phase_2,go,500.0,200.0,1.0,,,,,,,,,yellow,diamond
0.0,6.0,2.0,1.0,5.0,5.0,677.843337000013,6.0,1.0,phase_2,stop,500.0,200.0,3.0,,,,,,,,,orange,square
0.0,6.0,2.0,1.0,6.0,0.0,0.0,6.0,1.0,phase_2,stop,450.0,200.0,4.0,,,,,,,,,orange,square
0.0,5.0,1.0,1.0,5.0,5.0,619.6334779997414,6.0,1.0,phase_2,go,450.0,250.0,1.0,,,,,,,,,white,triangle
0.0,3.0,3.0,0.0,5.0,5.0,696.2656760006212,6.0,1.0,phase_2,go,450.0,250.0,1.0,,,,,,,,,green,I
0.0,3.0,3.0,0.0,5.0,5.0,685.8073970006444,6.0,1.0,phase_2,go,450.0,250.0,1.0,,,,,,,,,green,I
0.0,3.0,3.0,0.0,6.0,6.0,338.2365489997028,6.0,1.0,phase_2,go,450.0,250.0,1.0,,,,,,,,,green,I
0.0,1.0,1.0,0.0,6.0,6.0,881.1779039997418,6.0,1.0,phase_2,go,450.0,250.0,1.0,,,,,,,,,gray,flipped triangle
0.0,7.0,3.0,1.0,6.0,6.0,648.5522809998656,6.0,1.0,phase_2,go,450.0,250.0,1.0,,,,,,,,,blue,cross
0.0,8.0,4.0,1.0,5.0,0.0,0.0,6.0,1.0,phase_2,stop,450.0,250.0,4.0,,,,,,,,,cyan,hexagon
0.0,3.0,3.0,0.0,5.0,5.0,497.5860639997336,6.0,1.0,phase_2,go,500.0,250.0,1.0,,,,,,,,,green,I
0.0,2.0,2.0,0.0,6.0,6.0,702.3909790004836,6.0,1.0,phase_2,go,500.0,250.0,1.0,,,,,,,,,magenta,circle
0.0,3.0,3.0,0.0,5.0,5.0,365.7142319998456,6.0,1.0,phase_2,go,500.0,250.0,1.0,,,,,,,,,green,I
0.0,6.0,2.0,1.0,6.0,0.0,0.0,6.0,1.0,phase_2,stop,500.0,250.0,4.0,,,,,,,,,orange,square
0.0,8.0,4.0,1.0,5.0,0.0,0.0,6.0,1.0,phase_2,stop,500.0,300.0,4.0,,,,,,,,,cyan,hexagon
0.0,3.0,3.0,0.0,6.0,6.0,394.0892030004761,6.0,1.0,phase_2,go,550.0,300.0,1.0,,,,,,,,,green,I
0.0,2.0,2.0,0.0,6.0,6.0,548.515782999857,6.0,1.0,phase_2,go,550.0,300.0,1.0,,,,,,,,,magenta,circle
0.0,3.0,3.0,0.0,6.0,6.0,628.7988470003256,6.0,1.0,phase_2,go,550.0,300.0,1.0,,,,,,,,,green,I
0.0,7.0,3.0,1.0,5.0,0.0,0.0,6.0,1.0,phase_2,stop,550.0,300.0,4.0,,,,,,,,,blue,cross
0.0,5.0,1.0,1.0,5.0,5.0,345.5920289998175,6.0,1.0,phase_2,stop,600.0,300.0,3.0,,,,,,,,,white,triangle
0.0,8.0,4.0,1.0,6.0,6.0,424.7948010006439,6.0,1.0,phase_2,stop,550.0,300.0,3.0,,,,,,,,,cyan,hexagon
0.0,1.0,1.0,0.0,5.0,5.0,328.4475199998269,6.0,1.0,phase_2,go,550.0,250.0,1.0,,,,,,,,,gray,flipped triangle
0.0,8.0,4.0,1.0,5.0,5.0,310.2562089998173,6.0,1.0,phase_2,go,550.0,250.0,1.0,,,,,,,,,cyan,hexagon
0.0,4.0,4.0,0.0,5.0,5.0,384.2851019999216,6.0,1.0,phase_2,go,550.0,250.0,1.0,,,,,,,,,yellow,diamond
0.0,6.0,2.0,1.0,5.0,5.0,318.8531890000377,6.0,1.0,phase_2,stop,550.0,250.0,3.0,,,,,,,,,orange,square
0.0,5.0,1.0,1.0,5.0,5.0,656.1658809996516,6.0,1.0,phase_2,stop,500.0,250.0,3.0,,,,,,,,,white,triangle
0.0,2.0,2.0,0.0,6.0,6.0,458.9759860000413,6.0,1.0,phase_2,go,450.0,250.0,1.0,,,,,,,,,magenta,circle
0.0,6.0,2.0,1.0,5.0,5.0,589.7890070000358,6.0,1.0,phase_2,stop,450.0,250.0,3.0,,,,,,,,,orange,square
0.0,2.0,2.0,0.0,6.0,6.0,982.6475749996462,6.0,1.0,phase_2,go,400.0,250.0,1.0,,,,,,,,,magenta,circle
0.0,7.0,3.0,1.0,5.0,5.0,712.4230919998809,6.0,1.0,phase_2,go,400.0,250.0,1.0,,,,,,,,,blue,cross
0.0,5.0,1.0,1.0,5.0,0.0,0.0,6.0,1.0,phase_2,stop,400.0,250.0,4.0,,,,,,,,,white,triangle
0.0,7.0,3.0,1.0,5.0,0.0,0.0,6.0,1.0,phase_2,stop,450.0,250.0,4.0,,,,,,,,,blue,cross
0.0,6.0,2.0,1.0,6.0,0.0,0.0,6.0,1.0,phase_2,stop,500.0,250.0,4.0,,,,,,,,,orange,square
0.0,4.0,4.0,0.0,5.0,5.0,1416.0176120003598,7.0,1.0,phase_2,go,500.0,300.0,1.0,,,,,,,,,yellow,diamond
0.0,6.0,2.0,1.0,5.0,5.0,394.564664000427,7.0,1.0,phase_2,stop,500.0,300.0,3.0,,,,,,,,,orange,square
0.0,8.0,4.0,1.0,6.0,0.0,0.0,7.0,1.0,phase_2,go,450.0,300.0,5.0,,,,,,,,,cyan,hexagon
0.0,4.0,4.0,0.0,6.0,6.0,383.8411300002917,7.0,1.0,phase_2,go,450.0,300.0,1.0,,,,,,,,,yellow,diamond
0.0,5.0,1.0,1.0,5.0,5.0,347.8588230000241,7.0,1.0,phase_2,stop,450.0,300.0,3.0,,,,,,,,,white,triangle
0.0,2.0,2.0,0.0,5.0,5.0,373.3622359995934,7.0,1.0,phase_2,go,400.0,300.0,1.0,,,,,,,,,magenta,circle
0.0,3.0,3.0,0.0,5.0,5.0,328.2269219998852,7.0,1.0,phase_2,go,400.0,300.0,1.0,,,,,,,,,green,I
0.0,8.0,4.0,1.0,6.0,6.0,430.8398550001584,7.0,1.0,phase_2,go,400.0,300.0,1.0,,,,,,,,,cyan,hexagon
0.0,3.0,3.0,0.0,6.0,6.0,657.1086889998696,7.0,1.0,phase_2,go,400.0,300.0,1.0,,,,,,,,,green,I
0.0,5.0,1.0,1.0,5.0,5.0,711.0799470001439,7.0,1.0,phase_2,stop,400.0,300.0,3.0,,,,,,,,,white,triangle
0.0,8.0,4.0,1.0,6.0,6.0,641.1465439996391,7.0,1.0,phase_2,stop,350.0,300.0,3.0,,,,,,,,,cyan,hexagon
0.0,6.0,2.0,1.0,5.0,5.0,386.7713680001543,7.0,1.0,phase_2,stop,350.0,250.0,3.0,,,,,,,,,orange,square
0.0,1.0,1.0,0.0,6.0,6.0,702.6869589999478,7.0,1.0,phase_2,go,300.0,250.0,1.0,,,,,,,,,gray,flipped triangle
0.0,1.0,1.0,0.0,5.0,5.0,375.5449860000226,7.0,1.0,phase_2,go,300.0,250.0,1.0,,,,,,,,,gray,flipped triangle
0.0,1.0,1.0,0.0,5.0,5.0,310.1239770003303,7.0,1.0,phase_2,go,300.0,250.0,1.0,,,,,,,,,gray,flipped triangle
0.0,8.0,4.0,1.0,6.0,6.0,386.7141830005494,7.0,1.0,phase_2,stop,300.0,250.0,3.0,,,,,,,,,cyan,hexagon
0.0,7.0,3.0,1.0,6.0,6.0,358.2253750000745,7.0,1.0,phase_2,stop,300.0,200.0,3.0,,,,,,,,,blue,cross
0.0,1.0,1.0,0.0,5.0,5.0,581.1479209996833,7.0,1.0,phase_2,go,300.0,150.0,1.0,,,,,,,,,gray,flipped triangle
0.0,8.0,4.0,1.0,6.0,6.0,531.6748509994795,7.0,1.0,phase_2,stop,300.0,150.0,3.0,,,,,,,,,cyan,hexagon
0.0,5.0,1.0,1.0,5.0,5.0,492.739043000256,7.0,1.0,phase_2,stop,300.0,100.0,3.0,,,,,,,,,white,triangle
0.0,4.0,4.0,0.0,5.0,5.0,515.8323349996863,7.0,1.0,phase_2,go,250.0,100.0,1.0,,,,,,,,,yellow,diamond
0.0,4.0,4.0,0.0,6.0,6.0,346.86199799944,7.0,1.0,phase_2,go,250.0,100.0,1.0,,,,,,,,,yellow,diamond
0.0,3.0,3.0,0.0,5.0,5.0,393.2747219996599,7.0,1.0,phase_2,go,250.0,100.0,1.0,,,,,,,,,green,I
0.0,5.0,1.0,1.0,6.0,6.0,487.9639440005121,7.0,1.0,phase_2,go,250.0,100.0,1.0,,,,,,,,,white,triangle
0.0,6.0,2.0,1.0,5.0,5.0,837.7227809996839,7.0,1.0,phase_2,stop,250.0,100.0,3.0,,,,,,,,,orange,square
0.0,7.0,3.0,1.0,6.0,6.0,336.5879910006697,7.0,1.0,phase_2,stop,200.0,100.0,3.0,,,,,,,,,blue,cross
0.0,1.0,1.0,0.0,5.0,5.0,552.3854570001276,7.0,1.0,phase_2,go,200.0,50.0,1.0,,,,,,,,,gray,flipped triangle
0.0,1.0,1.0,0.0,6.0,6.0,543.1217600007585,7.0,1.0,phase_2,go,200.0,50.0,1.0,,,,,,,,,gray,flipped triangle
0.0,5.0,1.0,1.0,6.0,6.0,509.2393100003392,7.0,1.0,phase_2,stop,200.0,50.0,3.0,,,,,,,,,white,triangle
0.0,3.0,3.0,0.0,5.0,5.0,478.88355699979,7.0,1.0,phase_2,go,200.0,0.0,1.0,,,,,,,,,green,I
0.0,5.0,1.0,1.0,5.0,5.0,525.2784419999443,7.0,1.0,phase_2,go,200.0,0.0,1.0,,,,,,,,,white,triangle
0.0,8.0,4.0,1.0,5.0,5.0,356.6237819995876,7.0,1.0,phase_2,go,200.0,0.0,1.0,,,,,,,,,cyan,hexagon
0.0,3.0,3.0,0.0,6.0,6.0,375.6485619996965,7.0,1.0,phase_2,go,200.0,0.0,1.0,,,,,,,,,green,I
0.0,8.0,4.0,1.0,5.0,5.0,291.1686229999759,7.0,1.0,phase_2,stop,200.0,0.0,3.0,,,,,,,,,cyan,hexagon
0.0,2.0,2.0,0.0,6.0,6.0,882.0892350004215,7.0,1.0,phase_2,go,150.0,0.0,1.0,,,,,,,,,magenta,circle
0.0,2.0,2.0,0.0,6.0,6.0,469.3347450001965,7.0,1.0,phase_2,go,150.0,0.0,1.0,,,,,,,,,magenta,circle
0.0,3.0,3.0,0.0,5.0,5.0,571.9502869997086,8.0,1.0,phase_2,go,150.0,0.0,1.0,,,,,,,,,green,I
0.0,2.0,2.0,0.0,6.0,6.0,327.7910220003832,8.0,1.0,phase_2,go,150.0,0.0,1.0,,,,,,,,,magenta,circle
0.0,6.0,2.0,1.0,6.0,6.0,328.4237620000567,8.0,1.0,phase_2,stop,150.0,0.0,3.0,,,,,,,,,orange,square
0.0,2.0,2.0,0.0,5.0,5.0,356.5013940005883,8.0,1.0,phase_2,go,150.0,0.0,1.0,,,,,,,,,magenta,circle
0.0,7.0,3.0,1.0,6.0,6.0,321.3905890006572,8.0,1.0,phase_2,stop,150.0,0.0,3.0,,,,,,,,,blue,cross
0.0,2.0,2.0,0.0,6.0,6.0,917.9772019997472,8.0,1.0,phase_2,go,150.0,0.0,1.0,,,,,,,,,magenta,circle
0.0,1.0,1.0,0.0,6.0,6.0,853.3411879998312,8.0,1.0,phase_2,go,150.0,0.0,1.0,,,,,,,,,gray,flipped triangle
0.0,5.0,1.0,1.0,5.0,5.0,365.8695249996526,8.0,1.0,phase_2,stop,150.0,0.0,3.0,,,,,,,,,white,triangle
0.0,4.0,4.0,0.0,6.0,6.0,590.7467480001287,8.0,1.0,phase_2,go,100.0,0.0,1.0,,,,,,,,,yellow,diamond
0.0,1.0,1.0,0.0,5.0,5.0,424.6976679996805,8.0,1.0,phase_2,go,100.0,0.0,1.0,,,,,,,,,gray,flipped triangle
0.0,6.0,2.0,1.0,6.0,6.0,394.0202120002141,8.0,1.0,phase_2,stop,100.0,0.0,3.0,,,,,,,,,orange,square
0.0,6.0,2.0,1.0,5.0,5.0,477.4051079994024,8.0,1.0,phase_2,go,100.0,0.0,1.0,,,,,,,,,orange,square
0.0,5.0,1.0,1.0,6.0,0.0,0.0,8.0,1.0,phase_2,stop,100.0,0.0,4.0,,,,,,,,,white,triangle
0.0,5.0,1.0,1.0,6.0,6.0,898.0998450006155,8.0,1.0,phase_2,go,100.0,50.0,1.0,,,,,,,,,white,triangle
0.0,3.0,3.0,0.0,5.0,5.0,507.2376810003334,8.0,1.0,phase_2,go,100.0,50.0,1.0,,,,,,,,,green,I
0.0,1.0,1.0,0.0,6.0,6.0,648.0559569999969,8.0,1.0,phase_2,go,100.0,50.0,1.0,,,,,,,,,gray,flipped triangle
0.0,4.0,4.0,0.0,5.0,5.0,673.7453189998632,8.0,1.0,phase_2,go,100.0,50.0,1.0,,,,,,,,,yellow,diamond
0.0,8.0,4.0,1.0,6.0,6.0,374.6584460004669,8.0,1.0,phase_2,go,100.0,50.0,1.0,,,,,,,,,cyan,hexagon
0.0,7.0,3.0,1.0,5.0,5.0,485.7054530002642,8.0,1.0,phase_2,stop,100.0,50.0,3.0,,,,,,,,,blue,cross
0.0,3.0,3.0,0.0,6.0,6.0,477.8456460007874,8.0,1.0,phase_2,go,50.0,50.0,1.0,,,,,,,,,green,I
0.0,8.0,4.0,1.0,5.0,5.0,365.7199640001636,8.0,1.0,phase_2,go,50.0,50.0,1.0,,,,,,,,,cyan,hexagon
0.0,8.0,4.0,1.0,5.0,0.0,0.0,8.0,1.0,phase_2,stop,50.0,50.0,4.0,,,,,,,,,cyan,hexagon
0.0,3.0,3.0,0.0,6.0,6.0,412.9452380002476,8.0,1.0,phase_2,go,100.0,50.0,1.0,,,,,,,,,green,I
0.0,5.0,1.0,1.0,5.0,0.0,0.0,8.0,1.0,phase_2,stop,100.0,50.0,4.0,,,,,,,,,white,triangle
0.0,7.0,3.0,1.0,5.0,0.0,0.0,8.0,1.0,phase_2,stop,150.0,50.0,4.0,,,,,,,,,blue,cross
0.0,4.0,4.0,0.0,5.0,5.0,422.5922739997259,8.0,1.0,phase_2,go,200.0,50.0,1.0,,,,,,,,,yellow,diamond
0.0,7.0,3.0,1.0,6.0,0.0,0.0,8.0,1.0,phase_2,stop,200.0,50.0,4.0,,,,,,,,,blue,cross
0.0,1.0,1.0,0.0,6.0,6.0,692.220790000647,8.0,1.0,phase_2,go,200.0,100.0,1.0,,,,,,,,,gray,flipped triangle
0.0,5.0,1.0,1.0,5.0,5.0,543.8138419995084,8.0,1.0,phase_2,go,200.0,100.0,1.0,,,,,,,,,white,triangle
0.0,6.0,2.0,1.0,6.0,6.0,366.6376759993,8.0,1.0,phase_2,go,200.0,100.0,1.0,,,,,,,,,orange,square
0.0,8.0,4.0,1.0,6.0,6.0,315.09916899995,8.0,1.0,phase_2,stop,200.0,100.0,3.0,,,,,,,,,cyan,hexagon
0.0,5.0,1.0,1.0,5.0,5.0,377.0040240005983,8.0,1.0,phase_2,stop,200.0,50.0,3.0,,,,,,,,,white,triangle
0.0,5.0,1.0,1.0,5.0,0.0,0.0,8.0,1.0,phase_2,stop,150.0,50.0,4.0,,,,,,,,,white,triangle
0.0,2.0,2.0,0.0,6.0,6.0,525.1207680003063,8.0,1.0,phase_2,go,200.0,50.0,1.0,,,,,,,,,magenta,circle
0.0,4.0,4.0,0.0,6.0,6.0,431.1783729999661,8.0,1.0,phase_2,go,200.0,50.0,1.0,,,,,,,,,yellow,diamond
0.0,2.0,2.0,0.0,5.0,5.0,355.9895509997659,8.0,1.0,phase_2,go,200.0,50.0,1.0,,,,,,,,,magenta,circle
0.0,2.0,2.0,0.0,7.0,3.0,2409.0737050000826,1.0,1.0,phase_3,,,,,675.0,5.0,405.0,810.0,675.0,270.0,540.0,135.0,magenta,circle
0.0,7.0,3.0,1.0,7.0,2.0,1341.368880999653,1.0,1.0,phase_3,,,,,405.0,3.0,675.0,405.0,810.0,540.0,270.0,135.0,blue,cross
0.0,3.0,3.0,0.0,7.0,1.0,3898.292782999306,1.0,1.0,phase_3,,,,,540.0,4.0,540.0,270.0,675.0,405.0,135.0,810.0,green,I
0.0,7.0,3.0,1.0,7.0,6.0,3669.174325999848,1.0,1.0,phase_3,,,,,405.0,3.0,810.0,675.0,270.0,540.0,135.0,405.0,blue,cross
0.0,3.0,3.0,0.0,7.0,2.0,1892.502032000266,1.0,1.0,phase_3,,,,,692.0,4.0,1038.0,692.0,519.0,346.0,173.0,865.0,green,I
0.0,1.0,1.0,0.0,7.0,6.0,1957.8216019999672,1.0,1.0,phase_3,,,,,116.0,1.0,696.0,232.0,348.0,580.0,464.0,116.0,gray,flipped triangle
0.0,5.0,1.0,1.0,7.0,2.0,2378.937396000765,1.0,1.0,phase_3,,,,,232.0,2.0,580.0,232.0,348.0,696.0,464.0,116.0,white,triangle
0.0,8.0,4.0,1.0,7.0,4.0,2045.4189409992978,1.0,1.0,phase_3,,,,,770.0,5.0,154.0,924.0,616.0,770.0,308.0,462.0,cyan,hexagon
0.0,4.0,4.0,0.0,7.0,1.0,2672.046447999492,1.0,1.0,phase_3,,,,,770.0,5.0,770.0,308.0,154.0,462.0,924.0,616.0,yellow,diamond
0.0,8.0,4.0,1.0,7.0,5.0,2382.2611919995325,1.0,1.0,phase_3,,,,,696.0,6.0,580.0,464.0,232.0,348.0,696.0,116.0,cyan,hexagon
0.0,2.0,2.0,0.0,7.0,1.0,2338.4235909998097,1.0,1.0,phase_3,,,,,346.0,2.0,346.0,692.0,173.0,519.0,1038.0,865.0,magenta,circle
0.0,7.0,3.0,1.0,7.0,5.0,2861.5415960002792,1.0,1.0,phase_3,,,,,384.0,2.0,192.0,1152.0,576.0,768.0,384.0,960.0,blue,cross
0.0,2.0,2.0,0.0,7.0,3.0,2410.372407000068,1.0,1.0,phase_3,,,,,384.0,2.0,576.0,192.0,384.0,1152.0,768.0,960.0,magenta,circle
0.0,3.0,3.0,0.0,7.0,4.0,4476.073734000238,1.0,1.0,phase_3,,,,,232.0,2.0,348.0,696.0,464.0,232.0,580.0,116.0,green,I
0.0,4.0,4.0,0.0,7.0,1.0,2432.8470629998264,1.0,1.0,phase_3,,,,,675.0,5.0,675.0,135.0,270.0,405.0,540.0,810.0,yellow,diamond
0.0,4.0,4.0,0.0,7.0,5.0,3647.5520959993446,1.0,1.0,phase_3,,,,,580.0,5.0,116.0,696.0,464.0,232.0,580.0,348.0,yellow,diamond
0.0,2.0,2.0,0.0,7.0,4.0,2844.848359000025,1.0,1.0,phase_3,,,,,384.0,2.0,960.0,576.0,1152.0,384.0,192.0,768.0,magenta,circle
0.0,7.0,3.0,1.0,7.0,5.0,2493.3135559995208,1.0,1.0,phase_3,,,,,464.0,4.0,348.0,232.0,580.0,696.0,464.0,116.0,blue,cross
0.0,3.0,3.0,0.0,7.0,1.0,2790.569850999418,1.0,1.0,phase_3,,,,,348.0,3.0,348.0,464.0,116.0,580.0,232.0,696.0,green,I
0.0,1.0,1.0,0.0,7.0,1.0,1776.626892999957,1.0,1.0,phase_3,,,,,135.0,1.0,135.0,405.0,540.0,270.0,675.0,810.0,gray,flipped triangle
0.0,2.0,2.0,0.0,7.0,2.0,1728.7429099997098,2.0,1.0,phase_3,,,,,154.0,1.0,924.0,154.0,616.0,462.0,308.0,770.0,magenta,circle
0.0,5.0,1.0,1.0,7.0,1.0,1415.3692649997538,2.0,1.0,phase_3,,,,,154.0,1.0,154.0,308.0,462.0,924.0,770.0,616.0,white,triangle
0.0,6.0,2.0,1.0,7.0,5.0,2482.774768000126,2.0,1.0,phase_3,,,,,770.0,5.0,462.0,616.0,154.0,924.0,770.0,308.0,orange,square
0.0,2.0,2.0,0.0,7.0,1.0,3001.725449999867,2.0,1.0,phase_3,,,,,232.0,2.0,232.0,464.0,348.0,116.0,696.0,580.0,magenta,circle
0.0,6.0,2.0,1.0,7.0,3.0,2026.5286579997337,2.0,1.0,phase_3,,,,,464.0,4.0,580.0,696.0,464.0,232.0,348.0,116.0,orange,square
0.0,4.0,4.0,0.0,7.0,3.0,2256.833207999989,2.0,1.0,phase_3,,,,,580.0,5.0,464.0,696.0,580.0,348.0,232.0,116.0,yellow,diamond
0.0,3.0,3.0,0.0,7.0,2.0,4182.801618000667,2.0,1.0,phase_3,,,,,192.0,1.0,384.0,192.0,1152.0,960.0,768.0,576.0,green,I
0.0,7.0,3.0,1.0,7.0,4.0,3229.0265829997225,2.0,1.0,phase_3,,,,,346.0,2.0,173.0,865.0,519.0,346.0,1038.0,692.0,blue,cross
0.0,2.0,2.0,0.0,7.0,4.0,2997.305798000525,2.0,1.0,phase_3,,,,,270.0,2.0,675.0,135.0,540.0,270.0,810.0,405.0,magenta,circle
0.0,5.0,1.0,1.0,7.0,5.0,1731.548165999811,2.0,1.0,phase_3,,,,,135.0,1.0,810.0,405.0,540.0,270.0,135.0,675.0,white,triangle
0.0,5.0,1.0,1.0,7.0,4.0,3309.850583000298,2.0,1.0,phase_3,,,,,116.0,1.0,580.0,696.0,464.0,116.0,348.0,232.0,white,triangle
0.0,6.0,2.0,1.0,7.0,5.0,3690.297457999805,2.0,1.0,phase_3,,,,,692.0,4.0,865.0,519.0,346.0,173.0,692.0,1038.0,orange,square
0.0,7.0,3.0,1.0,7.0,2.0,3207.4719729998837,2.0,1.0,phase_3,,,,,348.0,3.0,696.0,348.0,232.0,580.0,116.0,464.0,blue,cross
0.0,7.0,3.0,1.0,7.0,5.0,2208.793114999935,2.0,1.0,phase_3,,,,,308.0,2.0,462.0,924.0,770.0,616.0,308.0,154.0,blue,cross
0.0,5.0,1.0,1.0,7.0,4.0,2368.4813079999003,2.0,1.0,phase_3,,,,,192.0,1.0,768.0,1152.0,384.0,192.0,576.0,960.0,white,triangle
0.0,4.0,4.0,0.0,7.0,3.0,2669.426595999539,2.0,1.0,phase_3,,,,,960.0,5.0,384.0,192.0,960.0,576.0,768.0,1152.0,yellow,diamond
0.0,2.0,2.0,0.0,7.0,1.0,2256.989688999965,2.0,1.0,phase_3,,,,,308.0,2.0,308.0,616.0,924.0,462.0,770.0,154.0,magenta,circle
0.0,1.0,1.0,0.0,7.0,3.0,2779.377055999248,2.0,1.0,phase_3,,,,,154.0,1.0,616.0,308.0,154.0,924.0,462.0,770.0,gray,flipped triangle
0.0,1.0,1.0,0.0,7.0,2.0,2966.3656299999275,2.0,1.0,phase_3,,,,,116.0,1.0,580.0,116.0,232.0,696.0,464.0,348.0,gray,flipped triangle
0.0,6.0,2.0,1.0,7.0,3.0,4702.529334000246,2.0,1.0,phase_3,,,,,405.0,3.0,540.0,675.0,405.0,135.0,270.0,810.0,orange,square
0.0,8.0,4.0,1.0,7.0,1.0,2684.8927580003874,3.0,1.0,phase_3,,,,,810.0,6.0,810.0,675.0,135.0,540.0,405.0,270.0,cyan,hexagon
0.0,5.0,1.0,1.0,7.0,6.0,3788.8925110000855,3.0,1.0,phase_3,,,,,173.0,1.0,346.0,519.0,865.0,1038.0,692.0,173.0,white,triangle
0.0,4.0,4.0,0.0,7.0,2.0,2251.0500840007808,3.0,1.0,phase_3,,,,,675.0,5.0,540.0,675.0,135.0,270.0,810.0,405.0,yellow,diamond
0.0,8.0,4.0,1.0,7.0,4.0,2653.39996900002,3.0,1.0,phase_3,,,,,696.0,6.0,464.0,232.0,580.0,696.0,348.0,116.0,cyan,hexagon
0.0,3.0,3.0,0.0,7.0,1.0,3804.859795000084,3.0,1.0,phase_3,,,,,384.0,2.0,384.0,1152.0,192.0,768.0,960.0,576.0,green,I
0.0,8.0,4.0,1.0,7.0,3.0,2230.330557999878,3.0,1.0,phase_3,,,,,1152.0,6.0,768.0,960.0,1152.0,192.0,576.0,384.0,cyan,hexagon
0.0,3.0,3.0,0.0,7.0,2.0,3038.752532000217,3.0,1.0,phase_3,,,,,270.0,2.0,540.0,270.0,135.0,405.0,675.0,810.0,green,I
0.0,4.0,4.0,0.0,7.0,3.0,2976.963782999519,3.0,1.0,phase_3,,,,,770.0,5.0,924.0,154.0,770.0,462.0,308.0,616.0,yellow,diamond
0.0,2.0,2.0,0.0,7.0,5.0,3188.656737999736,3.0,1.0,phase_3,,,,,346.0,2.0,173.0,1038.0,519.0,692.0,346.0,865.0,magenta,circle
0.0,4.0,4.0,0.0,7.0,2.0,3542.982747999304,3.0,1.0,phase_3,,,,,692.0,4.0,346.0,692.0,173.0,865.0,519.0,1038.0,yellow,diamond
0.0,1.0,1.0,0.0,7.0,5.0,2184.1842339999857,3.0,1.0,phase_3,,,,,173.0,1.0,346.0,519.0,865.0,1038.0,173.0,692.0,gray,flipped triangle
0.0,7.0,3.0,1.0,7.0,3.0,3071.2993369998003,3.0,1.0,phase_3,,,,,308.0,2.0,154.0,616.0,308.0,924.0,770.0,462.0,blue,cross
0.0,1.0,1.0,0.0,7.0,3.0,3545.6461459998536,3.0,1.0,phase_3,,,,,154.0,1.0,616.0,924.0,154.0,462.0,770.0,308.0,gray,flipped triangle
0.0,5.0,1.0,1.0,7.0,2.0,4045.391564000056,3.0,1.0,phase_3,,,,,346.0,2.0,173.0,346.0,865.0,1038.0,519.0,692.0,white,triangle
0.0,6.0,2.0,1.0,7.0,6.0,2710.433627000384,3.0,1.0,phase_3,,,,,384.0,2.0,192.0,576.0,768.0,1152.0,960.0,384.0,orange,square
0.0,1.0,1.0,0.0,7.0,2.0,2038.9572809999663,3.0,1.0,phase_3,,,,,192.0,1.0,960.0,192.0,1152.0,576.0,384.0,768.0,gray,flipped triangle
0.0,8.0,4.0,1.0,7.0,2.0,3799.441160000242,3.0,1.0,phase_3,,,,,675.0,5.0,135.0,675.0,810.0,270.0,405.0,540.0,cyan,hexagon
0.0,1.0,1.0,0.0,7.0,2.0,1976.2565110004289,3.0,1.0,phase_3,,,,,135.0,1.0,810.0,135.0,540.0,405.0,270.0,675.0,gray,flipped triangle
0.0,5.0,1.0,1.0,7.0,4.0,2863.5236179998174,3.0,1.0,phase_3,,,,,270.0,2.0,540.0,675.0,135.0,270.0,810.0,405.0,white,triangle
0.0,6.0,2.0,1.0,7.0,5.0,2377.757692999694,3.0,1.0,phase_3,,,,,519.0,3.0,173.0,1038.0,346.0,865.0,519.0,692.0,orange,square
0.0,4.0,4.0,0.0,7.0,6.0,2644.4216219997543,4.0,1.0,phase_3,,,,,519.0,3.0,692.0,1038.0,865.0,173.0,346.0,519.0,yellow,diamond
0.0,8.0,4.0,1.0,7.0,2.0,1390.9382660003755,4.0,1.0,phase_3,,,,,1038.0,6.0,173.0,1038.0,346.0,865.0,692.0,519.0,cyan,hexagon
0.0,4.0,4.0,0.0,7.0,5.0,1966.5082889996484,4.0,1.0,phase_3,,,,,768.0,4.0,576.0,1152.0,384.0,960.0,768.0,192.0,yellow,diamond
0.0,8.0,4.0,1.0,7.0,6.0,1865.5503259997204,4.0,1.0,phase_3,,,,,1152.0,6.0,384.0,960.0,768.0,576.0,192.0,1152.0,cyan,hexagon
0.0,7.0,3.0,1.0,7.0,2.0,3176.0964749992127,4.0,1.0,phase_3,,,,,576.0,3.0,192.0,576.0,1152.0,768.0,960.0,384.0,blue,cross
0.0,3.0,3.0,0.0,7.0,1.0,2257.252110999616,4.0,1.0,phase_3,,,,,308.0,2.0,308.0,154.0,616.0,462.0,770.0,924.0,green,I
0.0,5.0,1.0,1.0,7.0,1.0,3905.620507000094,4.0,1.0,phase_3,,,,,154.0,1.0,154.0,462.0,770.0,308.0,616.0,924.0,white,triangle
0.0,7.0,3.0,1.0,7.0,3.0,1609.3903549999595,4.0,1.0,phase_3,,,,,346.0,2.0,173.0,865.0,346.0,692.0,519.0,1038.0,blue,cross
0.0,6.0,2.0,1.0,7.0,3.0,2522.615861000304,4.0,1.0,phase_3,,,,,384.0,2.0,1152.0,960.0,384.0,768.0,192.0,576.0,orange,square
0.0,3.0,3.0,0.0,7.0,2.0,3169.7652499997275,4.0,1.0,phase_3,,,,,154.0,1.0,308.0,154.0,616.0,462.0,770.0,924.0,green,I
0.0,8.0,4.0,1.0,7.0,3.0,3996.9378260002486,4.0,1.0,phase_3,,,,,770.0,5.0,924.0,616.0,770.0,462.0,308.0,154.0,cyan,hexagon
0.0,5.0,1.0,1.0,7.0,4.0,3296.283286000289,4.0,1.0,phase_3,,,,,192.0,1.0,384.0,1152.0,576.0,192.0,960.0,768.0,white,triangle
0.0,1.0,1.0,0.0,7.0,5.0,3096.522360000563,4.0,1.0,phase_3,,,,,192.0,1.0,384.0,768.0,960.0,576.0,192.0,1152.0,gray,flipped triangle
0.0,1.0,1.0,0.0,7.0,2.0,2532.8511919997254,4.0,1.0,phase_3,,,,,346.0,2.0,1038.0,346.0,173.0,692.0,865.0,519.0,gray,flipped triangle
0.0,8.0,4.0,1.0,7.0,6.0,1334.957236000264,4.0,1.0,phase_3,,,,,1038.0,6.0,865.0,519.0,346.0,173.0,692.0,1038.0,cyan,hexagon
0.0,6.0,2.0,1.0,7.0,5.0,4056.0615519998464,4.0,1.0,phase_3,,,,,270.0,2.0,540.0,810.0,135.0,675.0,270.0,405.0,orange,square
0.0,6.0,2.0,1.0,7.0,5.0,924.714718999894,4.0,1.0,phase_3,,,,,232.0,2.0,464.0,348.0,580.0,116.0,232.0,696.0,orange,square
0.0,2.0,2.0,0.0,7.0,2.0,1090.1393099993584,4.0,1.0,phase_3,,,,,116.0,1.0,232.0,116.0,696.0,580.0,464.0,348.0,magenta,circle
0.0,6.0,2.0,1.0,7.0,6.0,3651.001004999671,4.0,1.0,phase_3,,,,,308.0,2.0,616.0,154.0,462.0,770.0,924.0,308.0,orange,square
0.0,3.0,3.0,0.0,7.0,2.0,1761.3125750003746,4.0,1.0,phase_3,,,,,173.0,1.0,519.0,173.0,346.0,1038.0,865.0,692.0,green,I
