raw_reward_magnitude,stim_reward,stepwise_reward_magnitude,paired_with_stopping,stim_location,response,reaction_time,block,num_trial_presentations,which_phase,stop_signal_trial_type,left_SSD,right_SSD,accuracy,chosen_bidding_amount,chosen_bidding_level,possible_bid_1,possible_bid_2,possible_bid_3,possible_bid_4,possible_bid_5,possible_bid_6,color_text,shape_text
0.0,8.0,0.0,1.0,2.0,2.0,432.747393000227,1.0,1.0,phase_1,,,,,,,,,,,,,orange,triangle
313.0,6.0,1.0,1.0,4.0,4.0,396.7511440000635,1.0,1.0,phase_1,,,,,,,,,,,,,gray,hexagon
0.0,2.0,0.0,0.0,2.0,2.0,359.2239039999185,1.0,1.0,phase_1,,,,,,,,,,,,,blue,diamond
655.0,7.0,2.0,1.0,3.0,3.0,487.4345240000366,1.0,1.0,phase_1,,,,,,,,,,,,,cyan,cross
0.0,7.0,0.0,1.0,3.0,3.0,404.0932090001661,1.0,1.0,phase_1,,,,,,,,,,,,,cyan,cross
154.0,5.0,0.5,1.0,3.0,3.0,487.3853499998404,1.0,1.0,phase_1,,,,,,,,,,,,,yellow,flipped triangle
176.0,1.0,0.5,0.0,2.0,2.0,543.1648779999705,1.0,1.0,phase_1,,,,,,,,,,,,,magenta,circle
309.0,6.0,1.0,1.0,2.0,2.0,377.2918730001038,1.0,1.0,phase_1,,,,,,,,,,,,,gray,hexagon
347.0,2.0,1.0,0.0,3.0,3.0,422.9579030002242,1.0,1.0,phase_1,,,,,,,,,,,,,blue,diamond
171.0,1.0,0.5,0.0,3.0,3.0,368.4378769999057,1.0,1.0,phase_1,,,,,,,,,,,,,magenta,circle
0.0,2.0,0.0,0.0,3.0,3.0,323.2365130002108,1.0,1.0,phase_1,,,,,,,,,,,,,blue,diamond
661.0,7.0,2.0,1.0,1.0,1.0,441.4276600000448,1.0,2.0,phase_1,,,,,,,,,,,,,cyan,cross
673.0,3.0,2.0,0.0,4.0,4.0,396.4643389999764,1.0,1.0,phase_1,,,,,,,,,,,,,white,square
1298.0,8.0,4.0,1.0,1.0,1.0,381.9232210003065,1.0,1.0,phase_1,,,,,,,,,,,,,orange,triangle
1296.0,8.0,4.0,1.0,2.0,2.0,432.3629509999591,1.0,1.0,phase_1,,,,,,,,,,,,,orange,triangle
630.0,7.0,2.0,1.0,1.0,1.0,533.7326929998198,1.0,1.0,phase_1,,,,,,,,,,,,,cyan,cross
306.0,6.0,1.0,1.0,3.0,3.0,441.9515640001918,1.0,1.0,phase_1,,,,,,,,,,,,,gray,hexagon
1287.0,4.0,4.0,0.0,1.0,1.0,396.0189250001349,1.0,1.0,phase_1,,,,,,,,,,,,,green,I
655.0,3.0,2.0,0.0,2.0,2.0,432.6081540002633,1.0,1.0,phase_1,,,,,,,,,,,,,white,square
324.0,6.0,1.0,1.0,3.0,3.0,330.8375920000799,1.0,1.0,phase_1,,,,,,,,,,,,,gray,hexagon
630.0,3.0,2.0,0.0,1.0,1.0,477.9087609999806,1.0,1.0,phase_1,,,,,,,,,,,,,white,square
1325.0,8.0,4.0,1.0,4.0,4.0,449.6663549998629,1.0,1.0,phase_1,,,,,,,,,,,,,orange,triangle
647.0,3.0,2.0,0.0,1.0,1.0,467.948682000042,1.0,1.0,phase_1,,,,,,,,,,,,,white,square
1320.0,8.0,4.0,1.0,3.0,3.0,524.2381399998521,1.0,1.0,phase_1,,,,,,,,,,,,,orange,triangle
627.0,7.0,2.0,1.0,4.0,4.0,477.403496000079,1.0,1.0,phase_1,,,,,,,,,,,,,cyan,cross
639.0,3.0,2.0,0.0,2.0,2.0,394.8306530000991,1.0,1.0,phase_1,,,,,,,,,,,,,white,square
0.0,4.0,0.0,0.0,3.0,3.0,469.2977340000652,1.0,1.0,phase_1,,,,,,,,,,,,,green,I
0.0,3.0,0.0,0.0,2.0,2.0,496.489506999751,1.0,1.0,phase_1,,,,,,,,,,,,,white,square
0.0,8.0,0.0,1.0,3.0,3.0,369.2248660004225,1.0,1.0,phase_1,,,,,,,,,,,,,orange,triangle
653.0,3.0,2.0,0.0,3.0,3.0,425.3509629998007,1.0,1.0,phase_1,,,,,,,,,,,,,white,square
1297.0,8.0,4.0,1.0,4.0,4.0,478.5028299997975,1.0,1.0,phase_1,,,,,,,,,,,,,orange,triangle
642.0,3.0,2.0,0.0,1.0,1.0,699.6058959998663,1.0,1.0,phase_1,,,,,,,,,,,,,white,square
311.0,6.0,1.0,1.0,1.0,1.0,461.3037429999167,1.0,1.0,phase_1,,,,,,,,,,,,,gray,hexagon
181.0,1.0,0.5,0.0,2.0,2.0,360.0274410000565,1.0,1.0,phase_1,,,,,,,,,,,,,magenta,circle
0.0,7.0,0.0,1.0,3.0,3.0,349.3420780000633,1.0,1.0,phase_1,,,,,,,,,,,,,cyan,cross
627.0,3.0,2.0,0.0,2.0,2.0,441.5651620001881,1.0,1.0,phase_1,,,,,,,,,,,,,white,square
1303.0,4.0,4.0,0.0,3.0,3.0,369.4549199999528,1.0,1.0,phase_1,,,,,,,,,,,,,green,I
1296.0,4.0,4.0,0.0,3.0,3.0,340.5053159999625,1.0,1.0,phase_1,,,,,,,,,,,,,green,I
0.0,5.0,0.0,1.0,3.0,3.0,358.7128620001749,1.0,1.0,phase_1,,,,,,,,,,,,,yellow,flipped triangle
174.0,5.0,0.5,1.0,2.0,2.0,395.6015819999265,1.0,1.0,phase_1,,,,,,,,,,,,,yellow,flipped triangle
628.0,3.0,2.0,0.0,3.0,3.0,333.7552560001313,1.0,1.0,phase_1,,,,,,,,,,,,,white,square
0.0,6.0,0.0,1.0,2.0,2.0,468.21161800016847,1.0,1.0,phase_1,,,,,,,,,,,,,gray,hexagon
181.0,5.0,0.5,1.0,1.0,1.0,542.123735000132,1.0,1.0,phase_1,,,,,,,,,,,,,yellow,flipped triangle
0.0,6.0,0.0,1.0,2.0,2.0,433.9373910001995,1.0,1.0,phase_1,,,,,,,,,,,,,gray,hexagon
673.0,7.0,2.0,1.0,4.0,4.0,469.3989120000879,1.0,1.0,phase_1,,,,,,,,,,,,,cyan,cross
168.0,5.0,0.5,1.0,1.0,1.0,634.8555299996406,1.0,1.0,phase_1,,,,,,,,,,,,,yellow,flipped triangle
0.0,8.0,0.0,1.0,4.0,4.0,580.9521129999666,1.0,1.0,phase_1,,,,,,,,,,,,,orange,triangle
338.0,6.0,1.0,1.0,1.0,1.0,534.3073579997508,1.0,1.0,phase_1,,,,,,,,,,,,,gray,hexagon
1307.0,4.0,4.0,0.0,2.0,2.0,340.8552820001205,1.0,1.0,phase_1,,,,,,,,,,,,,green,I
1301.0,4.0,4.0,0.0,3.0,3.0,396.1913339999228,1.0,1.0,phase_1,,,,,,,,,,,,,green,I
1301.0,8.0,4.0,1.0,1.0,1.0,486.2378349998835,1.0,1.0,phase_1,,,,,,,,,,,,,orange,triangle
153.0,5.0,0.5,1.0,1.0,1.0,545.5720039999505,1.0,1.0,phase_1,,,,,,,,,,,,,yellow,flipped triangle
154.0,1.0,0.5,0.0,3.0,3.0,369.663730999946,1.0,1.0,phase_1,,,,,,,,,,,,,magenta,circle
153.0,5.0,0.5,1.0,2.0,2.0,340.5595129997891,1.0,1.0,phase_1,,,,,,,,,,,,,yellow,flipped triangle
0.0,7.0,0.0,1.0,4.0,4.0,414.6819699999469,1.0,1.0,phase_1,,,,,,,,,,,,,cyan,cross
183.0,1.0,0.5,0.0,3.0,3.0,477.5360120002005,1.0,1.0,phase_1,,,,,,,,,,,,,magenta,circle
180.0,1.0,0.5,0.0,1.0,1.0,590.1293310002984,1.0,1.0,phase_1,,,,,,,,,,,,,magenta,circle
338.0,2.0,1.0,0.0,1.0,1.0,423.1156750001901,1.0,1.0,phase_1,,,,,,,,,,,,,blue,diamond
185.0,1.0,0.5,0.0,3.0,3.0,351.0807560001012,1.0,1.0,phase_1,,,,,,,,,,,,,magenta,circle
663.0,3.0,2.0,0.0,4.0,4.0,450.6421780001801,1.0,1.0,phase_1,,,,,,,,,,,,,white,square
0.0,7.0,0.0,1.0,3.0,3.0,357.5243969999064,1.0,1.0,phase_1,,,,,,,,,,,,,cyan,cross
1289.0,4.0,4.0,0.0,2.0,2.0,467.8089099998033,1.0,1.0,phase_1,,,,,,,,,,,,,green,I
0.0,6.0,0.0,1.0,1.0,1.0,431.9370490002256,1.0,1.0,phase_1,,,,,,,,,,,,,gray,hexagon
671.0,3.0,2.0,0.0,2.0,2.0,387.2750559999076,1.0,1.0,phase_1,,,,,,,,,,,,,white,square
654.0,3.0,2.0,0.0,4.0,4.0,424.3235819999427,1.0,1.0,phase_1,,,,,,,,,,,,,white,square
0.0,2.0,0.0,0.0,3.0,3.0,387.2815129998344,1.0,1.0,phase_1,,,,,,,,,,,,,blue,diamond
1287.0,4.0,4.0,0.0,2.0,2.0,716.7194519997793,1.0,1.0,phase_1,,,,,,,,,,,,,green,I
644.0,3.0,2.0,0.0,3.0,3.0,469.1737890002514,1.0,1.0,phase_1,,,,,,,,,,,,,white,square
185.0,5.0,0.5,1.0,3.0,3.0,405.6236420001369,1.0,1.0,phase_1,,,,,,,,,,,,,yellow,flipped triangle
346.0,2.0,1.0,0.0,1.0,1.0,377.7839409999615,1.0,1.0,phase_1,,,,,,,,,,,,,blue,diamond
158.0,1.0,0.5,0.0,4.0,4.0,396.3531949998469,1.0,1.0,phase_1,,,,,,,,,,,,,magenta,circle
632.0,3.0,2.0,0.0,2.0,2.0,432.9004989999703,1.0,1.0,phase_1,,,,,,,,,,,,,white,square
159.0,1.0,0.5,0.0,1.0,1.0,663.7563740000587,1.0,1.0,phase_1,,,,,,,,,,,,,magenta,circle
165.0,1.0,0.5,0.0,3.0,3.0,397.3171809998348,1.0,1.0,phase_1,,,,,,,,,,,,,magenta,circle
138.0,1.0,0.5,0.0,4.0,4.0,386.586268999963,1.0,1.0,phase_1,,,,,,,,,,,,,magenta,circle
1321.0,4.0,4.0,0.0,2.0,2.0,425.0210940003853,1.0,1.0,phase_1,,,,,,,,,,,,,green,I
0.0,5.0,0.0,1.0,4.0,4.0,597.8572889998759,1.0,1.0,phase_1,,,,,,,,,,,,,yellow,flipped triangle
158.0,5.0,0.5,1.0,1.0,1.0,468.558393999956,1.0,1.0,phase_1,,,,,,,,,,,,,yellow,flipped triangle
1284.0,4.0,4.0,0.0,4.0,4.0,451.1905280000974,1.0,1.0,phase_1,,,,,,,,,,,,,green,I
646.0,3.0,2.0,0.0,3.0,3.0,460.517372999675,1.0,1.0,phase_1,,,,,,,,,,,,,white,square
674.0,7.0,2.0,1.0,2.0,2.0,350.7612519997565,1.0,1.0,phase_1,,,,,,,,,,,,,cyan,cross
654.0,7.0,2.0,1.0,3.0,3.0,590.180059999966,1.0,1.0,phase_1,,,,,,,,,,,,,cyan,cross
643.0,7.0,2.0,1.0,3.0,3.0,412.01661900004177,1.0,1.0,phase_1,,,,,,,,,,,,,cyan,cross
0.0,6.0,0.0,1.0,2.0,2.0,469.8776149998593,1.0,1.0,phase_1,,,,,,,,,,,,,gray,hexagon
317.0,6.0,1.0,1.0,3.0,3.0,497.1024060000673,1.0,1.0,phase_1,,,,,,,,,,,,,gray,hexagon
1284.0,8.0,4.0,1.0,3.0,3.0,435.1144590000331,1.0,1.0,phase_1,,,,,,,,,,,,,orange,triangle
1282.0,8.0,4.0,1.0,3.0,3.0,367.8070660002959,1.0,1.0,phase_1,,,,,,,,,,,,,orange,triangle
1285.0,8.0,4.0,1.0,1.0,1.0,505.3904510000393,1.0,1.0,phase_1,,,,,,,,,,,,,orange,triangle
0.0,6.0,0.0,1.0,2.0,2.0,524.1084209997098,1.0,1.0,phase_1,,,,,,,,,,,,,gray,hexagon
345.0,2.0,1.0,0.0,4.0,4.0,340.509787999963,1.0,1.0,phase_1,,,,,,,,,,,,,blue,diamond
154.0,1.0,0.5,0.0,1.0,1.0,422.8412789998401,1.0,1.0,phase_1,,,,,,,,,,,,,magenta,circle
1311.0,8.0,4.0,1.0,3.0,3.0,442.7639849996012,1.0,1.0,phase_1,,,,,,,,,,,,,orange,triangle
175.0,5.0,0.5,1.0,1.0,1.0,607.5800449998496,1.0,1.0,phase_1,,,,,,,,,,,,,yellow,flipped triangle
661.0,3.0,2.0,0.0,4.0,4.0,477.6062529999763,1.0,1.0,phase_1,,,,,,,,,,,,,white,square
0.0,2.0,0.0,0.0,2.0,2.0,396.0660890002145,1.0,1.0,phase_1,,,,,,,,,,,,,blue,diamond
301.0,6.0,1.0,1.0,2.0,2.0,495.8372959999906,1.0,1.0,phase_1,,,,,,,,,,,,,gray,hexagon
1287.0,8.0,4.0,1.0,2.0,2.0,606.2132829997608,1.0,1.0,phase_1,,,,,,,,,,,,,orange,triangle
641.0,3.0,2.0,0.0,3.0,3.0,469.2218700001831,1.0,1.0,phase_1,,,,,,,,,,,,,white,square
1310.0,8.0,4.0,1.0,3.0,3.0,424.4409940001787,1.0,1.0,phase_1,,,,,,,,,,,,,orange,triangle
1292.0,8.0,4.0,1.0,2.0,2.0,379.1113430002042,1.0,1.0,phase_1,,,,,,,,,,,,,orange,triangle
0.0,4.0,0.0,0.0,3.0,3.0,387.864669999999,2.0,1.0,phase_1,,,,,,,,,,,,,green,I
1300.0,4.0,4.0,0.0,4.0,4.0,387.2919690002163,2.0,1.0,phase_1,,,,,,,,,,,,,green,I
347.0,6.0,1.0,1.0,1.0,1.0,562.409726000169,2.0,1.0,phase_1,,,,,,,,,,,,,gray,hexagon
1301.0,4.0,4.0,0.0,1.0,1.0,405.2935230001822,2.0,1.0,phase_1,,,,,,,,,,,,,green,I
145.0,1.0,0.5,0.0,3.0,3.0,441.7161149999629,2.0,1.0,phase_1,,,,,,,,,,,,,magenta,circle
664.0,3.0,2.0,0.0,3.0,3.0,414.3444800001816,2.0,1.0,phase_1,,,,,,,,,,,,,white,square
0.0,4.0,0.0,0.0,4.0,4.0,525.7780329998241,2.0,1.0,phase_1,,,,,,,,,,,,,green,I
0.0,6.0,0.0,1.0,3.0,3.0,376.836497000113,2.0,1.0,phase_1,,,,,,,,,,,,,gray,hexagon
1305.0,8.0,4.0,1.0,1.0,1.0,441.1765870004274,2.0,1.0,phase_1,,,,,,,,,,,,,orange,triangle
187.0,5.0,0.5,1.0,2.0,2.0,382.659956000225,2.0,1.0,phase_1,,,,,,,,,,,,,yellow,flipped triangle
307.0,6.0,1.0,1.0,2.0,2.0,424.6685719999732,2.0,1.0,phase_1,,,,,,,,,,,,,gray,hexagon
326.0,6.0,1.0,1.0,1.0,1.0,856.7176710002968,2.0,1.0,phase_1,,,,,,,,,,,,,gray,hexagon
308.0,6.0,1.0,1.0,1.0,1.0,422.4429870000676,2.0,1.0,phase_1,,,,,,,,,,,,,gray,hexagon
1305.0,4.0,4.0,0.0,3.0,3.0,313.6362049999661,2.0,1.0,phase_1,,,,,,,,,,,,,green,I
0.0,8.0,0.0,1.0,3.0,3.0,348.6222319997978,2.0,1.0,phase_1,,,,,,,,,,,,,orange,triangle
0.0,4.0,0.0,0.0,4.0,4.0,331.1630339999283,2.0,1.0,phase_1,,,,,,,,,,,,,green,I
0.0,2.0,0.0,0.0,2.0,2.0,542.9272979999951,2.0,1.0,phase_1,,,,,,,,,,,,,blue,diamond
632.0,7.0,2.0,1.0,2.0,2.0,744.3548539999938,2.0,1.0,phase_1,,,,,,,,,,,,,cyan,cross
0.0,1.0,0.0,0.0,2.0,2.0,566.307763000168,2.0,1.0,phase_1,,,,,,,,,,,,,magenta,circle
149.0,1.0,0.5,0.0,3.0,3.0,415.1880399999754,2.0,1.0,phase_1,,,,,,,,,,,,,magenta,circle
636.0,7.0,2.0,1.0,4.0,4.0,424.1079119997266,2.0,1.0,phase_1,,,,,,,,,,,,,cyan,cross
315.0,6.0,1.0,1.0,4.0,4.0,404.9013740000191,2.0,1.0,phase_1,,,,,,,,,,,,,gray,hexagon
0.0,5.0,0.0,1.0,2.0,2.0,452.4199369998314,2.0,1.0,phase_1,,,,,,,,,,,,,yellow,flipped triangle
647.0,7.0,2.0,1.0,2.0,2.0,405.4897709997931,2.0,1.0,phase_1,,,,,,,,,,,,,cyan,cross
671.0,3.0,2.0,0.0,4.0,4.0,562.6907710002342,2.0,1.0,phase_1,,,,,,,,,,,,,white,square
307.0,2.0,1.0,0.0,2.0,2.0,526.4722970000548,2.0,1.0,phase_1,,,,,,,,,,,,,blue,diamond
184.0,5.0,0.5,1.0,4.0,4.0,506.3218010000128,2.0,1.0,phase_1,,,,,,,,,,,,,yellow,flipped triangle
0.0,4.0,0.0,0.0,3.0,3.0,551.7096600001423,2.0,1.0,phase_1,,,,,,,,,,,,,green,I
0.0,7.0,0.0,1.0,4.0,4.0,424.5695339996018,2.0,1.0,phase_1,,,,,,,,,,,,,cyan,cross
309.0,2.0,1.0,0.0,4.0,4.0,451.8609970000398,2.0,1.0,phase_1,,,,,,,,,,,,,blue,diamond
333.0,2.0,1.0,0.0,4.0,4.0,516.4020100000926,2.0,1.0,phase_1,,,,,,,,,,,,,blue,diamond
0.0,2.0,0.0,0.0,1.0,1.0,645.2379269999255,2.0,1.0,phase_1,,,,,,,,,,,,,blue,diamond
1292.0,4.0,4.0,0.0,1.0,1.0,490.4420240000036,2.0,1.0,phase_1,,,,,,,,,,,,,green,I
139.0,1.0,0.5,0.0,2.0,2.0,664.100363000216,2.0,1.0,phase_1,,,,,,,,,,,,,magenta,circle
1307.0,8.0,4.0,1.0,1.0,1.0,368.1951959997604,2.0,1.0,phase_1,,,,,,,,,,,,,orange,triangle
0.0,4.0,0.0,0.0,2.0,2.0,496.526052000263,2.0,1.0,phase_1,,,,,,,,,,,,,green,I
646.0,7.0,2.0,1.0,1.0,1.0,543.7827789996845,2.0,1.0,phase_1,,,,,,,,,,,,,cyan,cross
0.0,2.0,0.0,0.0,4.0,4.0,460.0374110000302,2.0,1.0,phase_1,,,,,,,,,,,,,blue,diamond
1289.0,8.0,4.0,1.0,3.0,3.0,488.8936140000623,2.0,1.0,phase_1,,,,,,,,,,,,,orange,triangle
162.0,5.0,0.5,1.0,4.0,4.0,534.0469200000371,2.0,1.0,phase_1,,,,,,,,,,,,,yellow,flipped triangle
301.0,2.0,1.0,0.0,2.0,2.0,470.0980760003403,2.0,1.0,phase_1,,,,,,,,,,,,,blue,diamond
301.0,2.0,1.0,0.0,2.0,2.0,378.1389900000249,2.0,1.0,phase_1,,,,,,,,,,,,,blue,diamond
168.0,1.0,0.5,0.0,2.0,2.0,404.8081429996273,2.0,1.0,phase_1,,,,,,,,,,,,,magenta,circle
0.0,4.0,0.0,0.0,2.0,2.0,543.2660550000037,2.0,1.0,phase_1,,,,,,,,,,,,,green,I
140.0,5.0,0.5,1.0,3.0,3.0,617.0590289998472,2.0,1.0,phase_1,,,,,,,,,,,,,yellow,flipped triangle
1320.0,4.0,4.0,0.0,4.0,4.0,552.9409819996545,2.0,1.0,phase_1,,,,,,,,,,,,,green,I
658.0,3.0,2.0,0.0,3.0,3.0,542.4398469999687,2.0,1.0,phase_1,,,,,,,,,,,,,white,square
334.0,2.0,1.0,0.0,2.0,2.0,709.4382459999906,2.0,1.0,phase_1,,,,,,,,,,,,,blue,diamond
653.0,7.0,2.0,1.0,3.0,3.0,570.8156310001868,2.0,1.0,phase_1,,,,,,,,,,,,,cyan,cross
1309.0,8.0,4.0,1.0,2.0,2.0,571.3079390002349,2.0,1.0,phase_1,,,,,,,,,,,,,orange,triangle
184.0,1.0,0.5,0.0,4.0,4.0,413.6019100001249,2.0,1.0,phase_1,,,,,,,,,,,,,magenta,circle
0.0,5.0,0.0,1.0,3.0,3.0,524.2652669999188,2.0,1.0,phase_1,,,,,,,,,,,,,yellow,flipped triangle
165.0,5.0,0.5,1.0,2.0,2.0,571.259148000081,2.0,1.0,phase_1,,,,,,,,,,,,,yellow,flipped triangle
346.0,2.0,1.0,0.0,2.0,2.0,507.3839870001393,2.0,1.0,phase_1,,,,,,,,,,,,,blue,diamond
159.0,5.0,0.5,1.0,2.0,2.0,432.2107470002265,2.0,1.0,phase_1,,,,,,,,,,,,,yellow,flipped triangle
1289.0,4.0,4.0,0.0,3.0,3.0,524.4215949996942,2.0,1.0,phase_1,,,,,,,,,,,,,green,I
145.0,5.0,0.5,1.0,1.0,1.0,377.5725209998199,2.0,1.0,phase_1,,,,,,,,,,,,,yellow,flipped triangle
0.0,1.0,0.0,0.0,4.0,4.0,360.7465759996557,2.0,1.0,phase_1,,,,,,,,,,,,,magenta,circle
154.0,5.0,0.5,1.0,2.0,2.0,478.0821869999272,2.0,1.0,phase_1,,,,,,,,,,,,,yellow,flipped triangle
0.0,5.0,0.0,1.0,2.0,2.0,432.6836909999656,2.0,1.0,phase_1,,,,,,,,,,,,,yellow,flipped triangle
1278.0,8.0,4.0,1.0,4.0,4.0,452.0448899997973,2.0,1.0,phase_1,,,,,,,,,,,,,orange,triangle
346.0,6.0,1.0,1.0,4.0,4.0,553.7424889998874,2.0,1.0,phase_1,,,,,,,,,,,,,gray,hexagon
316.0,6.0,1.0,1.0,1.0,1.0,692.1529280002687,2.0,1.0,phase_1,,,,,,,,,,,,,gray,hexagon
170.0,5.0,0.5,1.0,3.0,3.0,459.8185489999196,2.0,1.0,phase_1,,,,,,,,,,,,,yellow,flipped triangle
0.0,8.0,0.0,1.0,4.0,4.0,396.448122000038,2.0,1.0,phase_1,,,,,,,,,,,,,orange,triangle
642.0,7.0,2.0,1.0,3.0,3.0,589.2698909997307,2.0,1.0,phase_1,,,,,,,,,,,,,cyan,cross
145.0,1.0,0.5,0.0,1.0,1.0,618.5338129998854,2.0,1.0,phase_1,,,,,,,,,,,,,magenta,circle
667.0,7.0,2.0,1.0,1.0,1.0,414.7942309996324,2.0,1.0,phase_1,,,,,,,,,,,,,cyan,cross
307.0,6.0,1.0,1.0,2.0,2.0,479.7559389999151,2.0,1.0,phase_1,,,,,,,,,,,,,gray,hexagon
144.0,5.0,0.5,1.0,4.0,4.0,515.5145079997965,2.0,1.0,phase_1,,,,,,,,,,,,,yellow,flipped triangle
314.0,6.0,1.0,1.0,3.0,3.0,415.6202150002173,2.0,1.0,phase_1,,,,,,,,,,,,,gray,hexagon
185.0,5.0,0.5,1.0,4.0,4.0,544.0711100000044,2.0,1.0,phase_1,,,,,,,,,,,,,yellow,flipped triangle
308.0,2.0,1.0,0.0,2.0,2.0,525.0870629997735,2.0,1.0,phase_1,,,,,,,,,,,,,blue,diamond
0.0,6.0,0.0,1.0,4.0,4.0,499.338758000249,2.0,1.0,phase_1,,,,,,,,,,,,,gray,hexagon
184.0,1.0,0.5,0.0,2.0,2.0,487.2112640000523,2.0,1.0,phase_1,,,,,,,,,,,,,magenta,circle
162.0,1.0,0.5,0.0,2.0,2.0,396.0363119999783,2.0,1.0,phase_1,,,,,,,,,,,,,magenta,circle
673.0,3.0,2.0,0.0,4.0,4.0,396.339063999676,2.0,1.0,phase_1,,,,,,,,,,,,,white,square
1301.0,8.0,4.0,1.0,4.0,4.0,349.9225079999633,2.0,1.0,phase_1,,,,,,,,,,,,,orange,triangle
143.0,5.0,0.5,1.0,4.0,4.0,443.9769300001899,2.0,1.0,phase_1,,,,,,,,,,,,,yellow,flipped triangle
171.0,5.0,0.5,1.0,1.0,1.0,506.8293110002742,2.0,1.0,phase_1,,,,,,,,,,,,,yellow,flipped triangle
162.0,5.0,0.5,1.0,1.0,1.0,432.6709490001121,2.0,1.0,phase_1,,,,,,,,,,,,,yellow,flipped triangle
143.0,1.0,0.5,0.0,1.0,1.0,507.35413200027324,2.0,1.0,phase_1,,,,,,,,,,,,,magenta,circle
648.0,7.0,2.0,1.0,2.0,2.0,884.1009200000371,2.0,1.0,phase_1,,,,,,,,,,,,,cyan,cross
1324.0,4.0,4.0,0.0,4.0,4.0,497.805628000151,2.0,1.0,phase_1,,,,,,,,,,,,,green,I
0.0,7.0,0.0,1.0,3.0,3.0,360.4161759999442,2.0,1.0,phase_1,,,,,,,,,,,,,cyan,cross
346.0,6.0,1.0,1.0,4.0,4.0,388.1263969997235,2.0,1.0,phase_1,,,,,,,,,,,,,gray,hexagon
1289.0,8.0,4.0,1.0,2.0,2.0,341.9952280000871,2.0,1.0,phase_1,,,,,,,,,,,,,orange,triangle
325.0,2.0,1.0,0.0,3.0,3.0,378.0157250002958,2.0,1.0,phase_1,,,,,,,,,,,,,blue,diamond
0.0,4.0,0.0,0.0,1.0,1.0,505.15080700006365,2.0,2.0,phase_1,,,,,,,,,,,,,green,I
0.0,1.0,0.0,0.0,3.0,3.0,396.465611000167,2.0,1.0,phase_1,,,,,,,,,,,,,magenta,circle
636.0,3.0,2.0,0.0,4.0,4.0,442.2956509997675,2.0,1.0,phase_1,,,,,,,,,,,,,white,square
184.0,5.0,0.5,1.0,4.0,4.0,553.0282839999927,2.0,1.0,phase_1,,,,,,,,,,,,,yellow,flipped triangle
647.0,7.0,2.0,1.0,4.0,4.0,450.54896600004207,2.0,1.0,phase_1,,,,,,,,,,,,,cyan,cross
0.0,5.0,0.0,1.0,2.0,2.0,476.8034560001979,2.0,1.0,phase_1,,,,,,,,,,,,,yellow,flipped triangle
303.0,6.0,1.0,1.0,1.0,1.0,569.2247440001665,2.0,1.0,phase_1,,,,,,,,,,,,,gray,hexagon
311.0,2.0,1.0,0.0,3.0,3.0,515.9060419996422,2.0,1.0,phase_1,,,,,,,,,,,,,blue,diamond
145.0,5.0,0.5,1.0,3.0,3.0,480.915191999884,2.0,1.0,phase_1,,,,,,,,,,,,,yellow,flipped triangle
653.0,7.0,2.0,1.0,1.0,1.0,552.9971740002111,2.0,1.0,phase_1,,,,,,,,,,,,,cyan,cross
345.0,2.0,1.0,0.0,2.0,2.0,542.6336599998649,2.0,1.0,phase_1,,,,,,,,,,,,,blue,diamond
0.0,2.0,0.0,0.0,4.0,4.0,608.9134320000085,2.0,1.0,phase_1,,,,,,,,,,,,,blue,diamond
162.0,1.0,0.5,0.0,4.0,4.0,416.3289020002594,3.0,1.0,phase_1,,,,,,,,,,,,,magenta,circle
0.0,2.0,0.0,0.0,4.0,4.0,349.1201920001003,3.0,1.0,phase_1,,,,,,,,,,,,,blue,diamond
326.0,2.0,1.0,0.0,1.0,1.0,385.8984640000926,3.0,1.0,phase_1,,,,,,,,,,,,,blue,diamond
1280.0,4.0,4.0,0.0,2.0,2.0,331.4304379996429,3.0,1.0,phase_1,,,,,,,,,,,,,green,I
652.0,3.0,2.0,0.0,1.0,1.0,376.430595000329,3.0,1.0,phase_1,,,,,,,,,,,,,white,square
1324.0,8.0,4.0,1.0,2.0,2.0,310.6570390000343,3.0,1.0,phase_1,,,,,,,,,,,,,orange,triangle
652.0,7.0,2.0,1.0,2.0,2.0,373.5869259999163,3.0,1.0,phase_1,,,,,,,,,,,,,cyan,cross
139.0,5.0,0.5,1.0,1.0,1.0,425.3667139996651,3.0,1.0,phase_1,,,,,,,,,,,,,yellow,flipped triangle
145.0,5.0,0.5,1.0,3.0,3.0,346.3641280000047,3.0,1.0,phase_1,,,,,,,,,,,,,yellow,flipped triangle
627.0,7.0,2.0,1.0,4.0,4.0,335.6993269999293,3.0,1.0,phase_1,,,,,,,,,,,,,cyan,cross
628.0,7.0,2.0,1.0,4.0,4.0,380.547000000206,3.0,1.0,phase_1,,,,,,,,,,,,,cyan,cross
0.0,1.0,0.0,0.0,1.0,1.0,447.3299820001557,3.0,1.0,phase_1,,,,,,,,,,,,,magenta,circle
1278.0,4.0,4.0,0.0,4.0,4.0,370.4006650000337,3.0,1.0,phase_1,,,,,,,,,,,,,green,I
307.0,6.0,1.0,1.0,2.0,2.0,348.751853000067,3.0,1.0,phase_1,,,,,,,,,,,,,gray,hexagon
0.0,8.0,0.0,1.0,1.0,1.0,422.8925229999731,3.0,1.0,phase_1,,,,,,,,,,,,,orange,triangle
632.0,3.0,2.0,0.0,1.0,1.0,419.312746000287,3.0,1.0,phase_1,,,,,,,,,,,,,white,square
159.0,1.0,0.5,0.0,4.0,4.0,409.3469129998084,3.0,1.0,phase_1,,,,,,,,,,,,,magenta,circle
0.0,1.0,0.0,0.0,2.0,2.0,490.5771180001466,3.0,1.0,phase_1,,,,,,,,,,,,,magenta,circle
653.0,3.0,2.0,0.0,1.0,1.0,492.9446449996248,3.0,1.0,phase_1,,,,,,,,,,,,,white,square
169.0,5.0,0.5,1.0,4.0,4.0,493.3127799999965,3.0,1.0,phase_1,,,,,,,,,,,,,yellow,flipped triangle
1303.0,8.0,4.0,1.0,1.0,1.0,731.4435000002959,3.0,1.0,phase_1,,,,,,,,,,,,,orange,triangle
1278.0,4.0,4.0,0.0,2.0,2.0,593.1277939998836,3.0,1.0,phase_1,,,,,,,,,,,,,green,I
349.0,2.0,1.0,0.0,3.0,3.0,821.3964870001291,3.0,1.0,phase_1,,,,,,,,,,,,,blue,diamond
346.0,6.0,1.0,1.0,4.0,4.0,470.0526289998379,3.0,1.0,phase_1,,,,,,,,,,,,,gray,hexagon
325.0,6.0,1.0,1.0,2.0,2.0,455.7875679997778,3.0,1.0,phase_1,,,,,,,,,,,,,gray,hexagon
663.0,7.0,2.0,1.0,2.0,2.0,488.1345509998027,3.0,1.0,phase_1,,,,,,,,,,,,,cyan,cross
1284.0,8.0,4.0,1.0,2.0,2.0,643.5148970003866,3.0,1.0,phase_1,,,,,,,,,,,,,orange,triangle
170.0,1.0,0.5,0.0,1.0,1.0,515.5290990001049,3.0,1.0,phase_1,,,,,,,,,,,,,magenta,circle
1310.0,4.0,4.0,0.0,1.0,1.0,757.3912590000873,3.0,1.0,phase_1,,,,,,,,,,,,,green,I
0.0,5.0,0.0,1.0,2.0,2.0,464.4126019998111,3.0,1.0,phase_1,,,,,,,,,,,,,yellow,flipped triangle
644.0,7.0,2.0,1.0,1.0,1.0,595.7534400004079,3.0,1.0,phase_1,,,,,,,,,,,,,cyan,cross
177.0,1.0,0.5,0.0,4.0,4.0,404.1922669998712,3.0,1.0,phase_1,,,,,,,,,,,,,magenta,circle
661.0,3.0,2.0,0.0,1.0,1.0,503.13288500001363,3.0,1.0,phase_1,,,,,,,,,,,,,white,square
138.0,5.0,0.5,1.0,4.0,4.0,351.6882539997823,3.0,1.0,phase_1,,,,,,,,,,,,,yellow,flipped triangle
176.0,5.0,0.5,1.0,4.0,4.0,358.9722750002693,3.0,1.0,phase_1,,,,,,,,,,,,,yellow,flipped triangle
158.0,5.0,0.5,1.0,3.0,3.0,386.3803740000548,3.0,1.0,phase_1,,,,,,,,,,,,,yellow,flipped triangle
1316.0,4.0,4.0,0.0,1.0,1.0,376.9927419998566,3.0,1.0,phase_1,,,,,,,,,,,,,green,I
638.0,7.0,2.0,1.0,4.0,4.0,373.4660670002085,3.0,1.0,phase_1,,,,,,,,,,,,,cyan,cross
1321.0,4.0,4.0,0.0,2.0,2.0,423.5254199998053,3.0,1.0,phase_1,,,,,,,,,,,,,green,I
1313.0,4.0,4.0,0.0,4.0,4.0,386.8768639999871,3.0,1.0,phase_1,,,,,,,,,,,,,green,I
345.0,6.0,1.0,1.0,4.0,4.0,396.7410519999248,3.0,1.0,phase_1,,,,,,,,,,,,,gray,hexagon
325.0,2.0,1.0,0.0,4.0,4.0,350.2344489997995,3.0,1.0,phase_1,,,,,,,,,,,,,blue,diamond
1309.0,4.0,4.0,0.0,3.0,3.0,376.5315949999603,3.0,1.0,phase_1,,,,,,,,,,,,,green,I
337.0,6.0,1.0,1.0,3.0,3.0,506.34807599999476,3.0,1.0,phase_1,,,,,,,,,,,,,gray,hexagon
627.0,7.0,2.0,1.0,1.0,1.0,431.4860380000027,3.0,1.0,phase_1,,,,,,,,,,,,,cyan,cross
671.0,7.0,2.0,1.0,3.0,3.0,405.5053249999218,3.0,1.0,phase_1,,,,,,,,,,,,,cyan,cross
152.0,5.0,0.5,1.0,3.0,3.0,331.9701640002677,3.0,1.0,phase_1,,,,,,,,,,,,,yellow,flipped triangle
639.0,7.0,2.0,1.0,3.0,3.0,323.5594309999214,3.0,1.0,phase_1,,,,,,,,,,,,,cyan,cross
1309.0,8.0,4.0,1.0,1.0,1.0,544.3842139998196,3.0,1.0,phase_1,,,,,,,,,,,,,orange,triangle
140.0,1.0,0.5,0.0,1.0,1.0,631.5919660000873,3.0,1.0,phase_1,,,,,,,,,,,,,magenta,circle
334.0,6.0,1.0,1.0,3.0,3.0,362.3461619999943,3.0,1.0,phase_1,,,,,,,,,,,,,gray,hexagon
0.0,5.0,0.0,1.0,1.0,1.0,413.0788319998828,3.0,1.0,phase_1,,,,,,,,,,,,,yellow,flipped triangle
0.0,5.0,0.0,1.0,1.0,1.0,485.7085799999368,3.0,1.0,phase_1,,,,,,,,,,,,,yellow,flipped triangle
301.0,6.0,1.0,1.0,3.0,3.0,430.4060099998423,3.0,1.0,phase_1,,,,,,,,,,,,,gray,hexagon
185.0,1.0,0.5,0.0,4.0,4.0,496.4089029999741,3.0,1.0,phase_1,,,,,,,,,,,,,magenta,circle
0.0,1.0,0.0,0.0,4.0,4.0,422.3198029999366,3.0,1.0,phase_1,,,,,,,,,,,,,magenta,circle
333.0,6.0,1.0,1.0,2.0,2.0,450.0202479998734,3.0,1.0,phase_1,,,,,,,,,,,,,gray,hexagon
337.0,2.0,1.0,0.0,1.0,1.0,559.7989610000695,3.0,1.0,phase_1,,,,,,,,,,,,,blue,diamond
1284.0,4.0,4.0,0.0,1.0,1.0,531.1922790001518,3.0,1.0,phase_1,,,,,,,,,,,,,green,I
1321.0,8.0,4.0,1.0,3.0,3.0,431.214822000129,3.0,1.0,phase_1,,,,,,,,,,,,,orange,triangle
1298.0,4.0,4.0,0.0,3.0,3.0,467.5762189999659,3.0,1.0,phase_1,,,,,,,,,,,,,green,I
0.0,3.0,0.0,0.0,1.0,1.0,560.1575730001969,3.0,1.0,phase_1,,,,,,,,,,,,,white,square
323.0,2.0,1.0,0.0,3.0,3.0,431.0571839996555,3.0,1.0,phase_1,,,,,,,,,,,,,blue,diamond
144.0,1.0,0.5,0.0,2.0,2.0,349.7762039996814,3.0,1.0,phase_1,,,,,,,,,,,,,magenta,circle
1313.0,8.0,4.0,1.0,3.0,3.0,368.293724999603,3.0,1.0,phase_1,,,,,,,,,,,,,orange,triangle
1289.0,8.0,4.0,1.0,3.0,3.0,403.9089069992769,3.0,1.0,phase_1,,,,,,,,,,,,,orange,triangle
153.0,1.0,0.5,0.0,3.0,3.0,449.5840280005723,3.0,1.0,phase_1,,,,,,,,,,,,,magenta,circle
0.0,4.0,0.0,0.0,1.0,1.0,478.3461489996625,3.0,1.0,phase_1,,,,,,,,,,,,,green,I
1289.0,4.0,4.0,0.0,2.0,2.0,441.6011160001289,3.0,1.0,phase_1,,,,,,,,,,,,,green,I
149.0,5.0,0.5,1.0,3.0,3.0,384.6305530005338,3.0,1.0,phase_1,,,,,,,,,,,,,yellow,flipped triangle
647.0,3.0,2.0,0.0,3.0,3.0,340.1792429995112,3.0,1.0,phase_1,,,,,,,,,,,,,white,square
343.0,2.0,1.0,0.0,1.0,1.0,431.6691340000034,3.0,1.0,phase_1,,,,,,,,,,,,,blue,diamond
1325.0,4.0,4.0,0.0,1.0,1.0,762.6419869993697,3.0,1.0,phase_1,,,,,,,,,,,,,green,I
0.0,3.0,0.0,0.0,3.0,3.0,624.0204309997353,3.0,1.0,phase_1,,,,,,,,,,,,,white,square
322.0,2.0,1.0,0.0,2.0,2.0,432.5898079996477,3.0,1.0,phase_1,,,,,,,,,,,,,blue,diamond
1317.0,4.0,4.0,0.0,2.0,2.0,421.9156019998991,3.0,1.0,phase_1,,,,,,,,,,,,,green,I
140.0,1.0,0.5,0.0,1.0,1.0,458.4519700001692,3.0,1.0,phase_1,,,,,,,,,,,,,magenta,circle
0.0,6.0,0.0,1.0,2.0,2.0,481.1378539998259,3.0,1.0,phase_1,,,,,,,,,,,,,gray,hexagon
349.0,6.0,1.0,1.0,1.0,1.0,585.8389939994595,3.0,1.0,phase_1,,,,,,,,,,,,,gray,hexagon
1301.0,4.0,4.0,0.0,1.0,1.0,430.9279449998939,3.0,1.0,phase_1,,,,,,,,,,,,,green,I
323.0,6.0,1.0,1.0,4.0,4.0,532.6434399994469,3.0,1.0,phase_1,,,,,,,,,,,,,gray,hexagon
333.0,6.0,1.0,1.0,2.0,2.0,678.7420539994855,3.0,1.0,phase_1,,,,,,,,,,,,,gray,hexagon
658.0,7.0,2.0,1.0,2.0,2.0,449.7898609997719,3.0,1.0,phase_1,,,,,,,,,,,,,cyan,cross
0.0,3.0,0.0,0.0,3.0,3.0,431.2020320003285,3.0,1.0,phase_1,,,,,,,,,,,,,white,square
341.0,2.0,1.0,0.0,3.0,3.0,387.5777229995947,3.0,1.0,phase_1,,,,,,,,,,,,,blue,diamond
643.0,3.0,2.0,0.0,3.0,3.0,568.2482789998176,3.0,1.0,phase_1,,,,,,,,,,,,,white,square
324.0,2.0,1.0,0.0,4.0,4.0,386.1692479995326,3.0,1.0,phase_1,,,,,,,,,,,,,blue,diamond
341.0,2.0,1.0,0.0,3.0,3.0,450.0170970004546,3.0,1.0,phase_1,,,,,,,,,,,,,blue,diamond
330.0,2.0,1.0,0.0,1.0,1.0,522.7541360000032,3.0,1.0,phase_1,,,,,,,,,,,,,blue,diamond
177.0,5.0,0.5,1.0,3.0,3.0,366.7033279998577,3.0,1.0,phase_1,,,,,,,,,,,,,yellow,flipped triangle
0.0,6.0,0.0,1.0,4.0,4.0,512.9414619996169,3.0,1.0,phase_1,,,,,,,,,,,,,gray,hexagon
1278.0,4.0,4.0,0.0,4.0,4.0,376.0234830006084,3.0,1.0,phase_1,,,,,,,,,,,,,green,I
301.0,6.0,1.0,1.0,2.0,2.0,514.5338180000181,3.0,1.0,phase_1,,,,,,,,,,,,,gray,hexagon
666.0,7.0,2.0,1.0,1.0,1.0,512.5141419994179,3.0,1.0,phase_1,,,,,,,,,,,,,cyan,cross
1317.0,8.0,4.0,1.0,4.0,4.0,549.8501410002063,3.0,1.0,phase_1,,,,,,,,,,,,,orange,triangle
343.0,6.0,1.0,1.0,4.0,4.0,550.357307000013,3.0,1.0,phase_1,,,,,,,,,,,,,gray,hexagon
0.0,3.0,0.0,0.0,3.0,3.0,403.6950209992938,3.0,1.0,phase_1,,,,,,,,,,,,,white,square
1297.0,4.0,4.0,0.0,1.0,1.0,916.8285790001393,3.0,1.0,phase_1,,,,,,,,,,,,,green,I
152.0,1.0,0.5,0.0,1.0,1.0,531.7009550008152,3.0,1.0,phase_1,,,,,,,,,,,,,magenta,circle
140.0,1.0,0.5,0.0,3.0,3.0,423.2314800001404,3.0,1.0,phase_1,,,,,,,,,,,,,magenta,circle
169.0,1.0,0.5,0.0,2.0,2.0,404.9402540003939,4.0,1.0,phase_1,,,,,,,,,,,,,magenta,circle
1301.0,8.0,4.0,1.0,4.0,4.0,412.9470560001209,4.0,1.0,phase_1,,,,,,,,,,,,,orange,triangle
664.0,7.0,2.0,1.0,2.0,2.0,349.8885319995679,4.0,1.0,phase_1,,,,,,,,,,,,,cyan,cross
0.0,2.0,0.0,0.0,3.0,3.0,293.4860750001462,4.0,1.0,phase_1,,,,,,,,,,,,,blue,diamond
175.0,1.0,0.5,0.0,2.0,2.0,394.9843190002866,4.0,1.0,phase_1,,,,,,,,,,,,,magenta,circle
627.0,3.0,2.0,0.0,4.0,4.0,313.0711960002372,4.0,1.0,phase_1,,,,,,,,,,,,,white,square
1316.0,8.0,4.0,1.0,1.0,1.0,413.2970290002049,4.0,1.0,phase_1,,,,,,,,,,,,,orange,triangle
341.0,6.0,1.0,1.0,3.0,3.0,358.3215379994726,4.0,1.0,phase_1,,,,,,,,,,,,,gray,hexagon
346.0,2.0,1.0,0.0,2.0,2.0,513.9266799997131,4.0,1.0,phase_1,,,,,,,,,,,,,blue,diamond
174.0,1.0,0.5,0.0,1.0,1.0,707.0595450004475,4.0,1.0,phase_1,,,,,,,,,,,,,magenta,circle
0.0,3.0,0.0,0.0,1.0,1.0,569.6758619997127,4.0,1.0,phase_1,,,,,,,,,,,,,white,square
324.0,2.0,1.0,0.0,3.0,3.0,412.5421409999035,4.0,1.0,phase_1,,,,,,,,,,,,,blue,diamond
673.0,7.0,2.0,1.0,1.0,1.0,551.1269069993432,4.0,1.0,phase_1,,,,,,,,,,,,,cyan,cross
1292.0,4.0,4.0,0.0,3.0,3.0,321.8551790005222,4.0,1.0,phase_1,,,,,,,,,,,,,green,I
313.0,2.0,1.0,0.0,1.0,1.0,403.2956009996269,4.0,1.0,phase_1,,,,,,,,,,,,,blue,diamond
0.0,1.0,0.0,0.0,4.0,4.0,349.9922999999398,4.0,1.0,phase_1,,,,,,,,,,,,,magenta,circle
166.0,5.0,0.5,1.0,4.0,4.0,441.1882510003124,4.0,1.0,phase_1,,,,,,,,,,,,,yellow,flipped triangle
153.0,1.0,0.5,0.0,3.0,3.0,285.7037179992403,4.0,1.0,phase_1,,,,,,,,,,,,,magenta,circle
0.0,8.0,0.0,1.0,1.0,1.0,395.0529390003794,4.0,1.0,phase_1,,,,,,,,,,,,,orange,triangle
657.0,7.0,2.0,1.0,4.0,4.0,376.9493489999149,4.0,1.0,phase_1,,,,,,,,,,,,,cyan,cross
674.0,3.0,2.0,0.0,1.0,1.0,568.9074789997903,4.0,1.0,phase_1,,,,,,,,,,,,,white,square
1292.0,8.0,4.0,1.0,4.0,4.0,350.5738459998611,4.0,1.0,phase_1,,,,,,,,,,,,,orange,triangle
0.0,7.0,0.0,1.0,3.0,3.0,385.8450460002132,4.0,1.0,phase_1,,,,,,,,,,,,,cyan,cross
661.0,7.0,2.0,1.0,2.0,2.0,578.68403700013,4.0,1.0,phase_1,,,,,,,,,,,,,cyan,cross
315.0,2.0,1.0,0.0,2.0,2.0,385.078930000418,4.0,1.0,phase_1,,,,,,,,,,,,,blue,diamond
1289.0,8.0,4.0,1.0,4.0,4.0,349.1106789997502,4.0,1.0,phase_1,,,,,,,,,,,,,orange,triangle
0.0,8.0,0.0,1.0,2.0,2.0,367.9895619998206,4.0,1.0,phase_1,,,,,,,,,,,,,orange,triangle
1311.0,4.0,4.0,0.0,4.0,4.0,422.8954520003753,4.0,1.0,phase_1,,,,,,,,,,,,,green,I
0.0,8.0,0.0,1.0,3.0,3.0,441.001862000121,4.0,1.0,phase_1,,,,,,,,,,,,,orange,triangle
330.0,6.0,1.0,1.0,3.0,3.0,469.4132189997617,4.0,1.0,phase_1,,,,,,,,,,,,,gray,hexagon
632.0,7.0,2.0,1.0,3.0,3.0,515.2047689998653,4.0,1.0,phase_1,,,,,,,,,,,,,cyan,cross
0.0,6.0,0.0,1.0,2.0,2.0,753.0919470000299,4.0,1.0,phase_1,,,,,,,,,,,,,gray,hexagon
335.0,6.0,1.0,1.0,3.0,3.0,377.1403450000434,4.0,1.0,phase_1,,,,,,,,,,,,,gray,hexagon
0.0,8.0,0.0,1.0,1.0,1.0,395.6309140003213,4.0,1.0,phase_1,,,,,,,,,,,,,orange,triangle
0.0,7.0,0.0,1.0,1.0,1.0,441.5186830001403,4.0,1.0,phase_1,,,,,,,,,,,,,cyan,cross
1282.0,4.0,4.0,0.0,4.0,4.0,357.5873730005696,4.0,1.0,phase_1,,,,,,,,,,,,,green,I
0.0,5.0,0.0,1.0,2.0,2.0,396.7098190005345,4.0,1.0,phase_1,,,,,,,,,,,,,yellow,flipped triangle
345.0,6.0,1.0,1.0,1.0,1.0,468.7495890002537,4.0,1.0,phase_1,,,,,,,,,,,,,gray,hexagon
1278.0,8.0,4.0,1.0,2.0,2.0,423.6868869993486,4.0,1.0,phase_1,,,,,,,,,,,,,orange,triangle
183.0,5.0,0.5,1.0,2.0,2.0,413.1805059996623,4.0,1.0,phase_1,,,,,,,,,,,,,yellow,flipped triangle
0.0,3.0,0.0,0.0,3.0,3.0,505.7973470002253,4.0,1.0,phase_1,,,,,,,,,,,,,white,square
159.0,5.0,0.5,1.0,2.0,2.0,396.5606769997976,4.0,1.0,phase_1,,,,,,,,,,,,,yellow,flipped triangle
166.0,1.0,0.5,0.0,4.0,4.0,331.5603820001342,4.0,1.0,phase_1,,,,,,,,,,,,,magenta,circle
0.0,1.0,0.0,0.0,2.0,2.0,469.1629450007895,4.0,1.0,phase_1,,,,,,,,,,,,,magenta,circle
1300.0,8.0,4.0,1.0,4.0,4.0,331.5101119997052,4.0,1.0,phase_1,,,,,,,,,,,,,orange,triangle
667.0,3.0,2.0,0.0,1.0,1.0,524.1132560004189,4.0,1.0,phase_1,,,,,,,,,,,,,white,square
145.0,1.0,0.5,0.0,4.0,4.0,442.1100059998935,4.0,1.0,phase_1,,,,,,,,,,,,,magenta,circle
1321.0,8.0,4.0,1.0,2.0,2.0,367.2307560000263,4.0,1.0,phase_1,,,,,,,,,,,,,orange,triangle
1307.0,4.0,4.0,0.0,1.0,1.0,624.9516280004173,4.0,1.0,phase_1,,,,,,,,,,,,,green,I
307.0,2.0,1.0,0.0,4.0,4.0,404.3216959998972,4.0,1.0,phase_1,,,,,,,,,,,,,blue,diamond
1309.0,4.0,4.0,0.0,2.0,2.0,413.7717160001557,4.0,1.0,phase_1,,,,,,,,,,,,,green,I
671.0,7.0,2.0,1.0,4.0,4.0,423.132966000594,4.0,1.0,phase_1,,,,,,,,,,,,,cyan,cross
0.0,4.0,0.0,0.0,3.0,3.0,367.8607510000802,4.0,1.0,phase_1,,,,,,,,,,,,,green,I
335.0,2.0,1.0,0.0,1.0,1.0,504.40522099961527,4.0,1.0,phase_1,,,,,,,,,,,,,blue,diamond
307.0,2.0,1.0,0.0,3.0,3.0,395.2094930000385,4.0,1.0,phase_1,,,,,,,,,,,,,blue,diamond
1311.0,8.0,4.0,1.0,2.0,2.0,514.6103679999214,4.0,1.0,phase_1,,,,,,,,,,,,,orange,triangle
180.0,5.0,0.5,1.0,2.0,2.0,497.6396829997611,4.0,1.0,phase_1,,,,,,,,,,,,,yellow,flipped triangle
627.0,3.0,2.0,0.0,2.0,2.0,460.2969520001352,4.0,1.0,phase_1,,,,,,,,,,,,,white,square
301.0,2.0,1.0,0.0,4.0,4.0,413.7587369996254,4.0,1.0,phase_1,,,,,,,,,,,,,blue,diamond
0.0,3.0,0.0,0.0,3.0,3.0,349.9932570002784,4.0,1.0,phase_1,,,,,,,,,,,,,white,square
316.0,2.0,1.0,0.0,4.0,4.0,378.135895000014,4.0,1.0,phase_1,,,,,,,,,,,,,blue,diamond
648.0,3.0,2.0,0.0,4.0,4.0,367.9861150003489,4.0,1.0,phase_1,,,,,,,,,,,,,white,square
324.0,6.0,1.0,1.0,2.0,2.0,423.5512939994805,4.0,1.0,phase_1,,,,,,,,,,,,,gray,hexagon
187.0,1.0,0.5,0.0,2.0,2.0,423.5654240001167,4.0,1.0,phase_1,,,,,,,,,,,,,magenta,circle
158.0,1.0,0.5,0.0,4.0,4.0,414.955080999789,4.0,1.0,phase_1,,,,,,,,,,,,,magenta,circle
0.0,3.0,0.0,0.0,3.0,3.0,360.0311589998455,4.0,1.0,phase_1,,,,,,,,,,,,,white,square
0.0,7.0,0.0,1.0,4.0,4.0,441.3454120003734,4.0,1.0,phase_1,,,,,,,,,,,,,cyan,cross
0.0,3.0,0.0,0.0,1.0,1.0,697.3158470000271,4.0,1.0,phase_1,,,,,,,,,,,,,white,square
317.0,2.0,1.0,0.0,4.0,4.0,478.9638050006033,4.0,1.0,phase_1,,,,,,,,,,,,,blue,diamond
325.0,6.0,1.0,1.0,4.0,4.0,449.551170999257,4.0,1.0,phase_1,,,,,,,,,,,,,gray,hexagon
303.0,2.0,1.0,0.0,3.0,3.0,386.3261389997205,4.0,1.0,phase_1,,,,,,,,,,,,,blue,diamond
647.0,3.0,2.0,0.0,4.0,4.0,350.328171000001,4.0,1.0,phase_1,,,,,,,,,,,,,white,square
654.0,7.0,2.0,1.0,3.0,3.0,322.7419500008182,4.0,1.0,phase_1,,,,,,,,,,,,,cyan,cross
140.0,5.0,0.5,1.0,1.0,1.0,550.0416150007368,4.0,1.0,phase_1,,,,,,,,,,,,,yellow,flipped triangle
661.0,3.0,2.0,0.0,2.0,2.0,479.4518680000692,4.0,1.0,phase_1,,,,,,,,,,,,,white,square
0.0,7.0,0.0,1.0,1.0,1.0,514.5962270007658,4.0,1.0,phase_1,,,,,,,,,,,,,cyan,cross
0.0,1.0,0.0,0.0,1.0,1.0,479.4868160006444,4.0,1.0,phase_1,,,,,,,,,,,,,magenta,circle
654.0,3.0,2.0,0.0,2.0,2.0,432.3479289996612,4.0,1.0,phase_1,,,,,,,,,,,,,white,square
306.0,2.0,1.0,0.0,4.0,4.0,626.0926230006589,4.0,1.0,phase_1,,,,,,,,,,,,,blue,diamond
638.0,3.0,2.0,0.0,1.0,1.0,617.1995880004033,4.0,1.0,phase_1,,,,,,,,,,,,,white,square
314.0,2.0,1.0,0.0,1.0,1.0,597.4470060000385,4.0,1.0,phase_1,,,,,,,,,,,,,blue,diamond
1285.0,4.0,4.0,0.0,4.0,4.0,377.080178000142,4.0,1.0,phase_1,,,,,,,,,,,,,green,I
140.0,5.0,0.5,1.0,2.0,2.0,370.4527700001563,4.0,1.0,phase_1,,,,,,,,,,,,,yellow,flipped triangle
1280.0,8.0,4.0,1.0,3.0,3.0,424.8104490006881,4.0,1.0,phase_1,,,,,,,,,,,,,orange,triangle
642.0,7.0,2.0,1.0,3.0,3.0,560.830960000203,4.0,1.0,phase_1,,,,,,,,,,,,,cyan,cross
1307.0,8.0,4.0,1.0,1.0,1.0,597.6632450001489,4.0,1.0,phase_1,,,,,,,,,,,,,orange,triangle
661.0,7.0,2.0,1.0,1.0,1.0,458.4399670002312,4.0,1.0,phase_1,,,,,,,,,,,,,cyan,cross
657.0,3.0,2.0,0.0,2.0,2.0,405.2330190006614,4.0,1.0,phase_1,,,,,,,,,,,,,white,square
322.0,6.0,1.0,1.0,4.0,4.0,323.0822289997377,4.0,1.0,phase_1,,,,,,,,,,,,,gray,hexagon
666.0,3.0,2.0,0.0,3.0,3.0,405.1317390003532,4.0,1.0,phase_1,,,,,,,,,,,,,white,square
641.0,7.0,2.0,1.0,4.0,4.0,441.7186779992335,4.0,1.0,phase_1,,,,,,,,,,,,,cyan,cross
341.0,6.0,1.0,1.0,1.0,1.0,477.8652750001129,4.0,1.0,phase_1,,,,,,,,,,,,,gray,hexagon
1278.0,8.0,4.0,1.0,1.0,1.0,459.6620980000807,4.0,1.0,phase_1,,,,,,,,,,,,,orange,triangle
1311.0,4.0,4.0,0.0,3.0,3.0,360.6822100000499,4.0,1.0,phase_1,,,,,,,,,,,,,green,I
642.0,3.0,2.0,0.0,2.0,2.0,551.7613780002648,4.0,1.0,phase_1,,,,,,,,,,,,,white,square
1289.0,4.0,4.0,0.0,3.0,3.0,376.7481670001871,4.0,1.0,phase_1,,,,,,,,,,,,,green,I
333.0,2.0,1.0,0.0,1.0,1.0,541.7468819996429,4.0,1.0,phase_1,,,,,,,,,,,,,blue,diamond
647.0,7.0,2.0,1.0,2.0,2.0,460.0523530007194,4.0,1.0,phase_1,,,,,,,,,,,,,cyan,cross
0.0,1.0,0.0,0.0,3.0,3.0,577.1955089994663,4.0,1.0,phase_1,,,,,,,,,,,,,magenta,circle
1287.0,8.0,4.0,1.0,4.0,4.0,496.088604999386,4.0,1.0,phase_1,,,,,,,,,,,,,orange,triangle
0.0,5.0,0.5,1.0,6.0,0.0,0.0,1.0,1.0,phase_2,stop,250.0,250.0,4.0,,,,,,,,,yellow,flipped triangle
0.0,7.0,2.0,1.0,5.0,5.0,287.5375239991626,1.0,1.0,phase_2,stop,250.0,300.0,3.0,,,,,,,,,cyan,cross
0.0,8.0,4.0,1.0,6.0,6.0,240.7502860005479,1.0,1.0,phase_2,go,200.0,300.0,1.0,,,,,,,,,orange,triangle
0.0,2.0,1.0,0.0,5.0,5.0,268.8552570007232,1.0,1.0,phase_2,go,200.0,300.0,1.0,,,,,,,,,blue,diamond
0.0,1.0,0.5,0.0,5.0,5.0,333.3157730003222,1.0,1.0,phase_2,go,200.0,300.0,1.0,,,,,,,,,magenta,circle
0.0,2.0,1.0,0.0,6.0,6.0,287.3500559999229,1.0,1.0,phase_2,go,200.0,300.0,1.0,,,,,,,,,blue,diamond
0.0,6.0,1.0,1.0,6.0,6.0,340.963422000641,1.0,1.0,phase_2,stop,200.0,300.0,3.0,,,,,,,,,gray,hexagon
0.0,5.0,0.5,1.0,5.0,5.0,295.8395800005746,1.0,1.0,phase_2,stop,200.0,250.0,3.0,,,,,,,,,yellow,flipped triangle
0.0,4.0,4.0,0.0,6.0,6.0,235.1394399993296,1.0,1.0,phase_2,go,150.0,250.0,1.0,,,,,,,,,green,I
0.0,1.0,0.5,0.0,6.0,6.0,361.7916760003936,1.0,1.0,phase_2,go,150.0,250.0,1.0,,,,,,,,,magenta,circle
0.0,1.0,0.5,0.0,5.0,5.0,279.1476060001514,1.0,1.0,phase_2,go,150.0,250.0,1.0,,,,,,,,,magenta,circle
0.0,5.0,0.5,1.0,6.0,6.0,329.545166000571,1.0,1.0,phase_2,stop,150.0,250.0,3.0,,,,,,,,,yellow,flipped triangle
0.0,3.0,2.0,0.0,6.0,6.0,327.6131040001928,1.0,1.0,phase_2,go,150.0,200.0,1.0,,,,,,,,,white,square
0.0,6.0,1.0,1.0,6.0,6.0,295.4128960000162,1.0,1.0,phase_2,stop,150.0,200.0,3.0,,,,,,,,,gray,hexagon
0.0,6.0,1.0,1.0,5.0,5.0,400.3566940000382,1.0,1.0,phase_2,stop,150.0,150.0,3.0,,,,,,,,,gray,hexagon
0.0,5.0,0.5,1.0,5.0,5.0,329.5027779995507,1.0,1.0,phase_2,stop,100.0,150.0,3.0,,,,,,,,,yellow,flipped triangle
0.0,3.0,2.0,0.0,5.0,5.0,602.6126489996386,1.0,1.0,phase_2,go,50.0,150.0,1.0,,,,,,,,,white,square
0.0,3.0,2.0,0.0,5.0,5.0,401.1468479993709,1.0,1.0,phase_2,go,50.0,150.0,1.0,,,,,,,,,white,square
0.0,4.0,4.0,0.0,6.0,6.0,342.8307570002289,1.0,1.0,phase_2,go,50.0,150.0,1.0,,,,,,,,,green,I
0.0,6.0,1.0,1.0,6.0,0.0,0.0,1.0,1.0,phase_2,stop,50.0,150.0,4.0,,,,,,,,,gray,hexagon
0.0,6.0,1.0,1.0,6.0,6.0,426.3408619999609,1.0,1.0,phase_2,stop,50.0,200.0,3.0,,,,,,,,,gray,hexagon
0.0,2.0,1.0,0.0,6.0,6.0,389.7877319996041,1.0,1.0,phase_2,go,50.0,150.0,1.0,,,,,,,,,blue,diamond
0.0,4.0,4.0,0.0,5.0,5.0,323.5211319997688,1.0,1.0,phase_2,go,50.0,150.0,1.0,,,,,,,,,green,I
0.0,8.0,4.0,1.0,5.0,5.0,347.0073939997746,1.0,1.0,phase_2,stop,50.0,150.0,3.0,,,,,,,,,orange,triangle
0.0,7.0,2.0,1.0,5.0,5.0,463.7685710004007,1.0,1.0,phase_2,go,0.0,150.0,1.0,,,,,,,,,cyan,cross
0.0,1.0,0.5,0.0,5.0,5.0,509.2098889999761,1.0,1.0,phase_2,go,0.0,150.0,1.0,,,,,,,,,magenta,circle
0.0,4.0,4.0,0.0,5.0,5.0,334.2493729996931,1.0,1.0,phase_2,go,0.0,150.0,1.0,,,,,,,,,green,I
0.0,2.0,1.0,0.0,5.0,5.0,334.5777209997322,1.0,1.0,phase_2,go,0.0,150.0,1.0,,,,,,,,,blue,diamond
0.0,8.0,4.0,1.0,5.0,0.0,0.0,1.0,1.0,phase_2,stop,0.0,150.0,4.0,,,,,,,,,orange,triangle
0.0,6.0,1.0,1.0,5.0,5.0,325.905165000222,1.0,1.0,phase_2,stop,50.0,150.0,3.0,,,,,,,,,gray,hexagon
0.0,2.0,1.0,0.0,6.0,6.0,492.345405999913,1.0,1.0,phase_2,go,0.0,150.0,1.0,,,,,,,,,blue,diamond
0.0,8.0,4.0,1.0,5.0,5.0,443.60197900005,1.0,1.0,phase_2,stop,0.0,150.0,3.0,,,,,,,,,orange,triangle
0.0,3.0,2.0,0.0,6.0,6.0,529.499078000299,1.0,1.0,phase_2,go,0.0,150.0,1.0,,,,,,,,,white,square
0.0,5.0,0.5,1.0,6.0,6.0,328.3389690004696,1.0,1.0,phase_2,stop,0.0,150.0,3.0,,,,,,,,,yellow,flipped triangle
0.0,7.0,2.0,1.0,5.0,0.0,0.0,1.0,1.0,phase_2,stop,0.0,100.0,4.0,,,,,,,,,cyan,cross
0.0,3.0,2.0,0.0,6.0,6.0,333.8623089994144,1.0,1.0,phase_2,go,50.0,100.0,1.0,,,,,,,,,white,square
0.0,5.0,0.5,1.0,6.0,6.0,485.7437199998458,2.0,1.0,phase_2,go,50.0,100.0,1.0,,,,,,,,,yellow,flipped triangle
0.0,2.0,1.0,0.0,5.0,5.0,354.0909459998147,2.0,1.0,phase_2,go,50.0,100.0,1.0,,,,,,,,,blue,diamond
0.0,2.0,1.0,0.0,5.0,5.0,390.8002380003381,2.0,1.0,phase_2,go,50.0,100.0,1.0,,,,,,,,,blue,diamond
0.0,1.0,0.5,0.0,6.0,6.0,415.6437669998922,2.0,1.0,phase_2,go,50.0,100.0,1.0,,,,,,,,,magenta,circle
0.0,7.0,2.0,1.0,5.0,0.0,0.0,2.0,1.0,phase_2,stop,50.0,100.0,4.0,,,,,,,,,cyan,cross
0.0,3.0,2.0,0.0,6.0,6.0,370.844572000351,2.0,1.0,phase_2,go,100.0,100.0,1.0,,,,,,,,,white,square
0.0,8.0,4.0,1.0,6.0,0.0,0.0,2.0,1.0,phase_2,stop,100.0,100.0,4.0,,,,,,,,,orange,triangle
0.0,3.0,2.0,0.0,6.0,6.0,437.2473280000122,2.0,1.0,phase_2,go,100.0,150.0,1.0,,,,,,,,,white,square
0.0,6.0,1.0,1.0,6.0,0.0,0.0,2.0,1.0,phase_2,stop,100.0,150.0,4.0,,,,,,,,,gray,hexagon
0.0,3.0,2.0,0.0,5.0,5.0,344.3273200000476,2.0,1.0,phase_2,go,100.0,200.0,1.0,,,,,,,,,white,square
0.0,1.0,0.5,0.0,5.0,5.0,390.37281000037177,2.0,1.0,phase_2,go,100.0,200.0,1.0,,,,,,,,,magenta,circle
0.0,2.0,1.0,0.0,6.0,6.0,492.3768339995149,2.0,1.0,phase_2,go,100.0,200.0,1.0,,,,,,,,,blue,diamond
0.0,4.0,4.0,0.0,6.0,6.0,434.0361240001584,2.0,1.0,phase_2,go,100.0,200.0,1.0,,,,,,,,,green,I
0.0,6.0,1.0,1.0,5.0,0.0,0.0,2.0,1.0,phase_2,stop,100.0,200.0,4.0,,,,,,,,,gray,hexagon
0.0,5.0,0.5,1.0,5.0,0.0,0.0,2.0,1.0,phase_2,stop,150.0,200.0,4.0,,,,,,,,,yellow,flipped triangle
0.0,8.0,4.0,1.0,5.0,0.0,0.0,2.0,1.0,phase_2,stop,200.0,200.0,4.0,,,,,,,,,orange,triangle
0.0,8.0,4.0,1.0,5.0,5.0,427.1148160005396,2.0,1.0,phase_2,go,250.0,200.0,1.0,,,,,,,,,orange,triangle
0.0,6.0,1.0,1.0,5.0,5.0,445.6483210005899,2.0,1.0,phase_2,stop,250.0,200.0,3.0,,,,,,,,,gray,hexagon
0.0,6.0,1.0,1.0,5.0,0.0,0.0,2.0,1.0,phase_2,stop,200.0,200.0,4.0,,,,,,,,,gray,hexagon
0.0,4.0,4.0,0.0,5.0,5.0,668.0077990004065,2.0,1.0,phase_2,go,250.0,200.0,1.0,,,,,,,,,green,I
0.0,5.0,0.5,1.0,6.0,6.0,320.6104609998874,2.0,1.0,phase_2,stop,250.0,200.0,3.0,,,,,,,,,yellow,flipped triangle
0.0,5.0,0.5,1.0,5.0,0.0,0.0,2.0,1.0,phase_2,stop,250.0,150.0,4.0,,,,,,,,,yellow,flipped triangle
0.0,2.0,1.0,0.0,6.0,6.0,528.8354510003046,2.0,1.0,phase_2,go,300.0,150.0,1.0,,,,,,,,,blue,diamond
0.0,3.0,2.0,0.0,5.0,5.0,630.6367170000158,2.0,1.0,phase_2,go,300.0,150.0,1.0,,,,,,,,,white,square
0.0,1.0,0.5,0.0,6.0,6.0,344.1905540003063,2.0,1.0,phase_2,go,300.0,150.0,1.0,,,,,,,,,magenta,circle
0.0,2.0,1.0,0.0,6.0,6.0,399.8064179995708,2.0,1.0,phase_2,go,300.0,150.0,1.0,,,,,,,,,blue,diamond
0.0,2.0,1.0,0.0,5.0,5.0,455.7846580000841,2.0,1.0,phase_2,go,300.0,150.0,1.0,,,,,,,,,blue,diamond
0.0,8.0,4.0,1.0,6.0,0.0,0.0,2.0,1.0,phase_2,stop,300.0,150.0,4.0,,,,,,,,,orange,triangle
0.0,7.0,2.0,1.0,5.0,0.0,0.0,2.0,1.0,phase_2,stop,300.0,200.0,4.0,,,,,,,,,cyan,cross
0.0,4.0,4.0,0.0,5.0,5.0,526.8366350001088,2.0,1.0,phase_2,go,350.0,200.0,1.0,,,,,,,,,green,I
0.0,2.0,1.0,0.0,6.0,6.0,629.7664899993833,2.0,1.0,phase_2,go,350.0,200.0,1.0,,,,,,,,,blue,diamond
0.0,7.0,2.0,1.0,6.0,0.0,0.0,2.0,1.0,phase_2,stop,350.0,200.0,4.0,,,,,,,,,cyan,cross
0.0,6.0,1.0,1.0,5.0,5.0,427.2210939998331,2.0,1.0,phase_2,go,350.0,250.0,1.0,,,,,,,,,gray,hexagon
0.0,7.0,2.0,1.0,6.0,0.0,0.0,2.0,1.0,phase_2,stop,350.0,250.0,4.0,,,,,,,,,cyan,cross
0.0,4.0,4.0,0.0,6.0,6.0,755.0083309997717,2.0,1.0,phase_2,go,350.0,300.0,1.0,,,,,,,,,green,I
0.0,7.0,2.0,1.0,5.0,0.0,0.0,2.0,1.0,phase_2,stop,350.0,300.0,4.0,,,,,,,,,cyan,cross
0.0,5.0,0.5,1.0,5.0,5.0,511.65084400054184,3.0,1.0,phase_2,stop,400.0,300.0,3.0,,,,,,,,,yellow,flipped triangle
0.0,8.0,4.0,1.0,6.0,0.0,0.0,3.0,1.0,phase_2,stop,350.0,300.0,4.0,,,,,,,,,orange,triangle
0.0,5.0,0.5,1.0,5.0,5.0,454.8886209995544,3.0,1.0,phase_2,go,350.0,350.0,1.0,,,,,,,,,yellow,flipped triangle
0.0,6.0,1.0,1.0,6.0,6.0,399.2734339999515,3.0,1.0,phase_2,stop,350.0,350.0,3.0,,,,,,,,,gray,hexagon
0.0,2.0,1.0,0.0,6.0,6.0,777.588372999162,3.0,1.0,phase_2,go,350.0,300.0,1.0,,,,,,,,,blue,diamond
0.0,5.0,0.5,1.0,6.0,6.0,621.5546670000549,3.0,1.0,phase_2,go,350.0,300.0,1.0,,,,,,,,,yellow,flipped triangle
0.0,1.0,0.5,0.0,6.0,6.0,434.8426320002545,3.0,1.0,phase_2,go,350.0,300.0,1.0,,,,,,,,,magenta,circle
0.0,6.0,1.0,1.0,6.0,6.0,379.5707879999099,3.0,1.0,phase_2,go,350.0,300.0,1.0,,,,,,,,,gray,hexagon
0.0,7.0,2.0,1.0,5.0,5.0,483.3227550006995,3.0,1.0,phase_2,stop,350.0,300.0,3.0,,,,,,,,,cyan,cross
0.0,6.0,1.0,1.0,6.0,0.0,0.0,3.0,1.0,phase_2,stop,300.0,300.0,4.0,,,,,,,,,gray,hexagon
0.0,1.0,0.5,0.0,6.0,6.0,704.2943249998643,3.0,1.0,phase_2,go,300.0,350.0,1.0,,,,,,,,,magenta,circle
0.0,8.0,4.0,1.0,6.0,0.0,0.0,3.0,1.0,phase_2,stop,300.0,350.0,4.0,,,,,,,,,orange,triangle
0.0,6.0,1.0,1.0,5.0,5.0,629.2289989996789,3.0,1.0,phase_2,go,300.0,400.0,1.0,,,,,,,,,gray,hexagon
0.0,7.0,2.0,1.0,6.0,6.0,398.1884210006683,3.0,1.0,phase_2,stop,300.0,400.0,3.0,,,,,,,,,cyan,cross
0.0,3.0,2.0,0.0,6.0,6.0,770.7369569998264,3.0,1.0,phase_2,go,300.0,350.0,1.0,,,,,,,,,white,square
0.0,5.0,0.5,1.0,5.0,0.0,0.0,3.0,1.0,phase_2,stop,300.0,350.0,4.0,,,,,,,,,yellow,flipped triangle
0.0,6.0,1.0,1.0,5.0,5.0,526.884457000051,3.0,1.0,phase_2,go,350.0,350.0,1.0,,,,,,,,,gray,hexagon
0.0,6.0,1.0,1.0,5.0,0.0,0.0,3.0,1.0,phase_2,stop,350.0,350.0,4.0,,,,,,,,,gray,hexagon
0.0,6.0,1.0,1.0,5.0,5.0,631.2052940002104,3.0,1.0,phase_2,go,400.0,350.0,1.0,,,,,,,,,gray,hexagon
0.0,1.0,0.5,0.0,5.0,5.0,352.474305999749,3.0,1.0,phase_2,go,400.0,350.0,1.0,,,,,,,,,magenta,circle
0.0,7.0,2.0,1.0,5.0,5.0,362.5657590000628,3.0,1.0,phase_2,go,400.0,350.0,1.0,,,,,,,,,cyan,cross
0.0,5.0,0.5,1.0,6.0,6.0,450.2472290005244,3.0,1.0,phase_2,stop,400.0,350.0,3.0,,,,,,,,,yellow,flipped triangle
0.0,5.0,0.5,1.0,6.0,6.0,610.4466400001911,3.0,1.0,phase_2,go,400.0,300.0,1.0,,,,,,,,,yellow,flipped triangle
0.0,6.0,1.0,1.0,5.0,5.0,370.4001870000866,3.0,1.0,phase_2,go,400.0,300.0,1.0,,,,,,,,,gray,hexagon
0.0,1.0,0.5,0.0,6.0,6.0,529.6069440000792,3.0,1.0,phase_2,go,400.0,300.0,1.0,,,,,,,,,magenta,circle
0.0,7.0,2.0,1.0,6.0,0.0,0.0,3.0,1.0,phase_2,stop,400.0,300.0,4.0,,,,,,,,,cyan,cross
0.0,4.0,4.0,0.0,6.0,6.0,565.8908870000232,3.0,1.0,phase_2,go,400.0,350.0,1.0,,,,,,,,,green,I
0.0,3.0,2.0,0.0,5.0,5.0,724.6860639997976,3.0,1.0,phase_2,go,400.0,350.0,1.0,,,,,,,,,white,square
0.0,5.0,0.5,1.0,5.0,5.0,469.7669389997827,3.0,1.0,phase_2,stop,400.0,350.0,3.0,,,,,,,,,yellow,flipped triangle
0.0,8.0,4.0,1.0,5.0,0.0,0.0,3.0,1.0,phase_2,stop,350.0,350.0,4.0,,,,,,,,,orange,triangle
0.0,5.0,0.5,1.0,5.0,5.0,669.4308470005126,3.0,1.0,phase_2,go,400.0,350.0,1.0,,,,,,,,,yellow,flipped triangle
0.0,8.0,4.0,1.0,6.0,6.0,422.9242150004211,3.0,1.0,phase_2,stop,400.0,350.0,3.0,,,,,,,,,orange,triangle
0.0,3.0,2.0,0.0,5.0,5.0,389.1677199999321,3.0,1.0,phase_2,go,400.0,300.0,1.0,,,,,,,,,white,square
0.0,7.0,2.0,1.0,6.0,6.0,753.7977860001774,3.0,1.0,phase_2,go,400.0,300.0,1.0,,,,,,,,,cyan,cross
0.0,2.0,1.0,0.0,5.0,5.0,731.2106350000249,3.0,1.0,phase_2,go,400.0,300.0,1.0,,,,,,,,,blue,diamond
0.0,4.0,4.0,0.0,6.0,6.0,490.4505989998142,3.0,1.0,phase_2,go,400.0,300.0,1.0,,,,,,,,,green,I
0.0,7.0,2.0,1.0,6.0,6.0,592.5636470001336,4.0,1.0,phase_2,go,400.0,300.0,1.0,,,,,,,,,cyan,cross
0.0,1.0,0.5,0.0,6.0,6.0,333.7655640007142,4.0,1.0,phase_2,go,400.0,300.0,1.0,,,,,,,,,magenta,circle
0.0,3.0,2.0,0.0,6.0,6.0,360.220018000291,4.0,1.0,phase_2,go,400.0,300.0,1.0,,,,,,,,,white,square
0.0,7.0,2.0,1.0,6.0,6.0,333.0553390005661,4.0,1.0,phase_2,go,400.0,300.0,1.0,,,,,,,,,cyan,cross
0.0,5.0,0.5,1.0,6.0,6.0,364.1951370000242,4.0,1.0,phase_2,stop,400.0,300.0,3.0,,,,,,,,,yellow,flipped triangle
0.0,5.0,0.5,1.0,6.0,0.0,0.0,4.0,1.0,phase_2,stop,400.0,250.0,4.0,,,,,,,,,yellow,flipped triangle
0.0,1.0,0.5,0.0,6.0,6.0,602.4478509998517,4.0,1.0,phase_2,go,400.0,300.0,1.0,,,,,,,,,magenta,circle
0.0,5.0,0.5,1.0,6.0,0.0,0.0,4.0,1.0,phase_2,stop,400.0,300.0,4.0,,,,,,,,,yellow,flipped triangle
0.0,4.0,4.0,0.0,6.0,6.0,604.65577100058,4.0,1.0,phase_2,go,400.0,350.0,1.0,,,,,,,,,green,I
0.0,4.0,4.0,0.0,5.0,5.0,397.4559960006445,4.0,1.0,phase_2,go,400.0,350.0,1.0,,,,,,,,,green,I
0.0,3.0,2.0,0.0,6.0,6.0,342.4504060003528,4.0,1.0,phase_2,go,400.0,350.0,1.0,,,,,,,,,white,square
0.0,6.0,1.0,1.0,6.0,6.0,344.2557239995949,4.0,1.0,phase_2,stop,400.0,350.0,3.0,,,,,,,,,gray,hexagon
0.0,3.0,2.0,0.0,5.0,5.0,462.5238700000409,4.0,1.0,phase_2,go,400.0,300.0,1.0,,,,,,,,,white,square
0.0,8.0,4.0,1.0,6.0,6.0,363.7177589998828,4.0,1.0,phase_2,stop,400.0,300.0,3.0,,,,,,,,,orange,triangle
0.0,4.0,4.0,0.0,5.0,5.0,483.8533409993033,4.0,1.0,phase_2,go,400.0,250.0,1.0,,,,,,,,,green,I
0.0,1.0,0.5,0.0,5.0,5.0,399.0598620002856,4.0,1.0,phase_2,go,400.0,250.0,1.0,,,,,,,,,magenta,circle
0.0,1.0,0.5,0.0,5.0,5.0,352.3647470001378,4.0,1.0,phase_2,go,400.0,250.0,1.0,,,,,,,,,magenta,circle
0.0,1.0,0.5,0.0,5.0,5.0,407.6546730002519,4.0,1.0,phase_2,go,400.0,250.0,1.0,,,,,,,,,magenta,circle
0.0,6.0,1.0,1.0,6.0,6.0,333.8613670002814,4.0,1.0,phase_2,go,400.0,250.0,1.0,,,,,,,,,gray,hexagon
0.0,2.0,1.0,0.0,6.0,6.0,416.7021549992569,4.0,1.0,phase_2,go,400.0,250.0,1.0,,,,,,,,,blue,diamond
0.0,4.0,4.0,0.0,5.0,5.0,342.0647720004126,4.0,1.0,phase_2,go,400.0,250.0,1.0,,,,,,,,,green,I
0.0,8.0,4.0,1.0,6.0,6.0,292.0478609994461,4.0,1.0,phase_2,stop,400.0,250.0,3.0,,,,,,,,,orange,triangle
0.0,3.0,2.0,0.0,6.0,6.0,389.4524890001776,4.0,1.0,phase_2,go,400.0,200.0,1.0,,,,,,,,,white,square
0.0,1.0,0.5,0.0,5.0,5.0,444.4785890000275,4.0,1.0,phase_2,go,400.0,200.0,1.0,,,,,,,,,magenta,circle
0.0,6.0,1.0,1.0,5.0,5.0,441.0883370001102,4.0,1.0,phase_2,stop,400.0,200.0,3.0,,,,,,,,,gray,hexagon
0.0,8.0,4.0,1.0,5.0,0.0,0.0,4.0,1.0,phase_2,stop,350.0,200.0,4.0,,,,,,,,,orange,triangle
0.0,2.0,1.0,0.0,6.0,6.0,296.5698060006616,4.0,1.0,phase_2,go,400.0,200.0,1.0,,,,,,,,,blue,diamond
0.0,6.0,1.0,1.0,6.0,6.0,342.1897230000468,4.0,1.0,phase_2,stop,400.0,200.0,3.0,,,,,,,,,gray,hexagon
0.0,7.0,2.0,1.0,6.0,0.0,0.0,4.0,1.0,phase_2,stop,400.0,150.0,4.0,,,,,,,,,cyan,cross
0.0,7.0,2.0,1.0,5.0,0.0,0.0,4.0,1.0,phase_2,stop,400.0,200.0,4.0,,,,,,,,,cyan,cross
0.0,8.0,4.0,1.0,5.0,5.0,861.0510529997555,4.0,1.0,phase_2,go,450.0,200.0,1.0,,,,,,,,,orange,triangle
0.0,1.0,0.5,0.0,6.0,6.0,463.3805590001429,4.0,1.0,phase_2,go,450.0,200.0,1.0,,,,,,,,,magenta,circle
0.0,4.0,4.0,0.0,6.0,6.0,465.0208189996192,4.0,1.0,phase_2,go,450.0,200.0,1.0,,,,,,,,,green,I
0.0,4.0,4.0,0.0,5.0,5.0,621.6063680003572,4.0,1.0,phase_2,go,450.0,200.0,1.0,,,,,,,,,green,I
0.0,7.0,2.0,1.0,6.0,6.0,377.118624999639,4.0,1.0,phase_2,stop,450.0,200.0,3.0,,,,,,,,,cyan,cross
0.0,3.0,2.0,0.0,5.0,5.0,620.5836609997277,4.0,1.0,phase_2,go,450.0,150.0,1.0,,,,,,,,,white,square
0.0,4.0,4.0,0.0,6.0,6.0,362.0943779997105,5.0,1.0,phase_2,go,450.0,150.0,1.0,,,,,,,,,green,I
0.0,2.0,1.0,0.0,5.0,5.0,315.1422979999552,5.0,1.0,phase_2,go,450.0,150.0,1.0,,,,,,,,,blue,diamond
0.0,5.0,0.5,1.0,5.0,5.0,327.1224430000075,5.0,1.0,phase_2,stop,450.0,150.0,3.0,,,,,,,,,yellow,flipped triangle
0.0,8.0,4.0,1.0,6.0,0.0,0.0,5.0,1.0,phase_2,stop,400.0,150.0,4.0,,,,,,,,,orange,triangle
0.0,2.0,1.0,0.0,6.0,6.0,435.2738380002847,5.0,1.0,phase_2,go,400.0,200.0,1.0,,,,,,,,,blue,diamond
0.0,8.0,4.0,1.0,5.0,5.0,482.629893000194,5.0,1.0,phase_2,go,400.0,200.0,1.0,,,,,,,,,orange,triangle
0.0,4.0,4.0,0.0,5.0,5.0,418.7134349995176,5.0,1.0,phase_2,go,400.0,200.0,1.0,,,,,,,,,green,I
0.0,7.0,2.0,1.0,5.0,5.0,473.2631090000723,5.0,1.0,phase_2,stop,400.0,200.0,3.0,,,,,,,,,cyan,cross
0.0,1.0,0.5,0.0,6.0,6.0,586.5459110000302,5.0,1.0,phase_2,go,350.0,200.0,1.0,,,,,,,,,magenta,circle
0.0,8.0,4.0,1.0,6.0,6.0,405.0848179995228,5.0,1.0,phase_2,stop,350.0,200.0,3.0,,,,,,,,,orange,triangle
0.0,3.0,2.0,0.0,5.0,5.0,651.5628540000762,5.0,1.0,phase_2,go,350.0,150.0,1.0,,,,,,,,,white,square
0.0,2.0,1.0,0.0,6.0,6.0,948.151269999471,5.0,1.0,phase_2,go,350.0,150.0,1.0,,,,,,,,,blue,diamond
0.0,2.0,1.0,0.0,5.0,5.0,464.3899330003478,5.0,1.0,phase_2,go,350.0,150.0,1.0,,,,,,,,,blue,diamond
0.0,3.0,2.0,0.0,5.0,5.0,409.281235999515,5.0,1.0,phase_2,go,350.0,150.0,1.0,,,,,,,,,white,square
0.0,3.0,2.0,0.0,6.0,6.0,398.13821699954127,5.0,1.0,phase_2,go,350.0,150.0,1.0,,,,,,,,,white,square
0.0,8.0,4.0,1.0,5.0,0.0,0.0,5.0,1.0,phase_2,stop,350.0,150.0,4.0,,,,,,,,,orange,triangle
0.0,2.0,1.0,0.0,6.0,6.0,517.92354600002,5.0,1.0,phase_2,go,400.0,150.0,1.0,,,,,,,,,blue,diamond
0.0,5.0,0.5,1.0,5.0,0.0,0.0,5.0,1.0,phase_2,stop,400.0,150.0,4.0,,,,,,,,,yellow,flipped triangle
0.0,1.0,0.5,0.0,6.0,6.0,779.3958100000964,5.0,1.0,phase_2,go,450.0,150.0,1.0,,,,,,,,,magenta,circle
0.0,1.0,0.5,0.0,6.0,6.0,547.6119599998128,5.0,1.0,phase_2,go,450.0,150.0,1.0,,,,,,,,,magenta,circle
0.0,7.0,2.0,1.0,5.0,0.0,0.0,5.0,1.0,phase_2,stop,450.0,150.0,4.0,,,,,,,,,cyan,cross
0.0,5.0,0.5,1.0,6.0,0.0,0.0,5.0,1.0,phase_2,stop,500.0,150.0,4.0,,,,,,,,,yellow,flipped triangle
0.0,6.0,1.0,1.0,5.0,5.0,362.5394539994886,5.0,1.0,phase_2,stop,500.0,200.0,3.0,,,,,,,,,gray,hexagon
0.0,4.0,4.0,0.0,5.0,5.0,632.2116219998861,5.0,1.0,phase_2,go,450.0,200.0,1.0,,,,,,,,,green,I
0.0,8.0,4.0,1.0,6.0,0.0,0.0,5.0,1.0,phase_2,stop,450.0,200.0,4.0,,,,,,,,,orange,triangle
0.0,3.0,2.0,0.0,6.0,6.0,760.7319999997344,5.0,1.0,phase_2,go,450.0,250.0,1.0,,,,,,,,,white,square
0.0,4.0,4.0,0.0,6.0,6.0,1012.1329399999013,5.0,1.0,phase_2,go,450.0,250.0,1.0,,,,,,,,,green,I
0.0,4.0,4.0,0.0,5.0,5.0,851.8765979997625,5.0,1.0,phase_2,go,450.0,250.0,1.0,,,,,,,,,green,I
0.0,1.0,0.5,0.0,6.0,6.0,341.9987590004893,5.0,1.0,phase_2,go,450.0,250.0,1.0,,,,,,,,,magenta,circle
0.0,7.0,2.0,1.0,6.0,0.0,0.0,5.0,1.0,phase_2,stop,450.0,250.0,4.0,,,,,,,,,cyan,cross
0.0,2.0,1.0,0.0,6.0,6.0,434.5564710001781,5.0,1.0,phase_2,go,450.0,300.0,1.0,,,,,,,,,blue,diamond
0.0,4.0,4.0,0.0,5.0,0.0,0.0,5.0,1.0,phase_2,go,450.0,300.0,5.0,,,,,,,,,green,I
0.0,4.0,4.0,0.0,6.0,6.0,369.8233519999121,5.0,1.0,phase_2,go,450.0,300.0,1.0,,,,,,,,,green,I
0.0,3.0,2.0,0.0,5.0,5.0,399.15456000017,5.0,1.0,phase_2,go,450.0,300.0,1.0,,,,,,,,,white,square
0.0,8.0,4.0,1.0,5.0,5.0,676.4465160003965,5.0,1.0,phase_2,go,450.0,300.0,1.0,,,,,,,,,orange,triangle
0.0,7.0,2.0,1.0,5.0,5.0,524.3957020002199,5.0,1.0,phase_2,stop,450.0,300.0,3.0,,,,,,,,,cyan,cross
0.0,3.0,2.0,0.0,6.0,6.0,380.7369779997316,6.0,1.0,phase_2,go,400.0,300.0,1.0,,,,,,,,,white,square
0.0,2.0,1.0,0.0,5.0,5.0,315.2425489997768,6.0,1.0,phase_2,go,400.0,300.0,1.0,,,,,,,,,blue,diamond
0.0,8.0,4.0,1.0,6.0,6.0,286.1137330000929,6.0,1.0,phase_2,stop,400.0,300.0,3.0,,,,,,,,,orange,triangle
0.0,8.0,4.0,1.0,5.0,5.0,287.4155160006921,6.0,1.0,phase_2,stop,400.0,250.0,3.0,,,,,,,,,orange,triangle
0.0,2.0,1.0,0.0,6.0,6.0,287.7994800001033,6.0,1.0,phase_2,go,350.0,250.0,1.0,,,,,,,,,blue,diamond
0.0,3.0,2.0,0.0,6.0,6.0,360.5905519998487,6.0,1.0,phase_2,go,350.0,250.0,1.0,,,,,,,,,white,square
0.0,6.0,1.0,1.0,6.0,6.0,416.058444000555,6.0,1.0,phase_2,go,350.0,250.0,1.0,,,,,,,,,gray,hexagon
0.0,7.0,2.0,1.0,5.0,5.0,572.1727519994602,6.0,1.0,phase_2,stop,350.0,250.0,3.0,,,,,,,,,cyan,cross
0.0,1.0,0.5,0.0,6.0,6.0,389.7581629998967,6.0,1.0,phase_2,go,300.0,250.0,1.0,,,,,,,,,magenta,circle
0.0,1.0,0.5,0.0,5.0,5.0,648.2840129992837,6.0,1.0,phase_2,go,300.0,250.0,1.0,,,,,,,,,magenta,circle
0.0,6.0,1.0,1.0,5.0,0.0,0.0,6.0,1.0,phase_2,stop,300.0,250.0,4.0,,,,,,,,,gray,hexagon
0.0,5.0,0.5,1.0,5.0,5.0,407.4504699992758,6.0,1.0,phase_2,stop,350.0,250.0,3.0,,,,,,,,,yellow,flipped triangle
0.0,1.0,0.5,0.0,6.0,6.0,352.5091420005992,6.0,1.0,phase_2,go,300.0,250.0,1.0,,,,,,,,,magenta,circle
0.0,7.0,2.0,1.0,5.0,0.0,0.0,6.0,1.0,phase_2,stop,300.0,250.0,4.0,,,,,,,,,cyan,cross
0.0,2.0,1.0,0.0,5.0,5.0,667.1670109999468,6.0,1.0,phase_2,go,350.0,250.0,1.0,,,,,,,,,blue,diamond
0.0,7.0,2.0,1.0,6.0,6.0,350.1652860004469,6.0,1.0,phase_2,stop,350.0,250.0,3.0,,,,,,,,,cyan,cross
0.0,4.0,4.0,0.0,6.0,6.0,482.974197000658,6.0,1.0,phase_2,go,350.0,200.0,1.0,,,,,,,,,green,I
0.0,4.0,4.0,0.0,6.0,6.0,770.6040250004662,6.0,1.0,phase_2,go,350.0,200.0,1.0,,,,,,,,,green,I
0.0,8.0,4.0,1.0,5.0,0.0,0.0,6.0,1.0,phase_2,stop,350.0,200.0,4.0,,,,,,,,,orange,triangle
0.0,5.0,0.5,1.0,6.0,6.0,647.367696999936,6.0,1.0,phase_2,go,400.0,200.0,1.0,,,,,,,,,yellow,flipped triangle
0.0,1.0,0.5,0.0,5.0,5.0,872.6044699997146,6.0,1.0,phase_2,go,400.0,200.0,1.0,,,,,,,,,magenta,circle
0.0,8.0,4.0,1.0,6.0,6.0,852.7518049995706,6.0,1.0,phase_2,go,400.0,200.0,1.0,,,,,,,,,orange,triangle
0.0,1.0,0.5,0.0,6.0,6.0,574.4722480003475,6.0,1.0,phase_2,go,400.0,200.0,1.0,,,,,,,,,magenta,circle
0.0,8.0,4.0,1.0,5.0,0.0,0.0,6.0,1.0,phase_2,stop,400.0,200.0,4.0,,,,,,,,,orange,triangle
0.0,5.0,0.5,1.0,5.0,0.0,0.0,6.0,1.0,phase_2,stop,450.0,200.0,4.0,,,,,,,,,yellow,flipped triangle
0.0,2.0,1.0,0.0,5.0,5.0,519.2430449997119,6.0,1.0,phase_2,go,500.0,200.0,1.0,,,,,,,,,blue,diamond
0.0,7.0,2.0,1.0,5.0,0.0,0.0,6.0,1.0,phase_2,go,500.0,200.0,5.0,,,,,,,,,cyan,cross
0.0,5.0,0.5,1.0,6.0,6.0,463.8309840001966,6.0,1.0,phase_2,go,500.0,200.0,1.0,,,,,,,,,yellow,flipped triangle
0.0,8.0,4.0,1.0,5.0,5.0,471.6698729998825,6.0,1.0,phase_2,stop,500.0,200.0,3.0,,,,,,,,,orange,triangle
0.0,5.0,0.5,1.0,5.0,5.0,408.397844999854,6.0,1.0,phase_2,stop,450.0,200.0,3.0,,,,,,,,,yellow,flipped triangle
0.0,1.0,0.5,0.0,5.0,5.0,362.6075500005754,6.0,1.0,phase_2,go,400.0,200.0,1.0,,,,,,,,,magenta,circle
0.0,7.0,2.0,1.0,6.0,6.0,430.2955179991841,6.0,1.0,phase_2,stop,400.0,200.0,3.0,,,,,,,,,cyan,cross
0.0,7.0,2.0,1.0,6.0,0.0,0.0,6.0,1.0,phase_2,stop,400.0,150.0,4.0,,,,,,,,,cyan,cross
0.0,3.0,2.0,0.0,5.0,5.0,584.158448999915,6.0,1.0,phase_2,go,400.0,200.0,1.0,,,,,,,,,white,square
0.0,7.0,2.0,1.0,6.0,6.0,375.5020409998906,6.0,1.0,phase_2,stop,400.0,200.0,3.0,,,,,,,,,cyan,cross
0.0,1.0,0.5,0.0,5.0,5.0,416.9992610004556,6.0,1.0,phase_2,go,400.0,150.0,1.0,,,,,,,,,magenta,circle
0.0,8.0,4.0,1.0,6.0,0.0,0.0,7.0,1.0,phase_2,go,400.0,150.0,5.0,,,,,,,,,orange,triangle
0.0,1.0,0.5,0.0,5.0,5.0,370.1543239994862,7.0,1.0,phase_2,go,400.0,150.0,1.0,,,,,,,,,magenta,circle
0.0,1.0,0.5,0.0,5.0,5.0,379.0547220005464,7.0,1.0,phase_2,go,400.0,150.0,1.0,,,,,,,,,magenta,circle
0.0,3.0,2.0,0.0,6.0,6.0,258.6690840007577,7.0,1.0,phase_2,go,400.0,150.0,1.0,,,,,,,,,white,square
0.0,3.0,2.0,0.0,5.0,5.0,351.5284380000594,7.0,1.0,phase_2,go,400.0,150.0,1.0,,,,,,,,,white,square
0.0,7.0,2.0,1.0,6.0,6.0,289.8883600000772,7.0,1.0,phase_2,stop,400.0,150.0,3.0,,,,,,,,,cyan,cross
0.0,8.0,4.0,1.0,6.0,0.0,0.0,7.0,1.0,phase_2,stop,400.0,100.0,4.0,,,,,,,,,orange,triangle
0.0,8.0,4.0,1.0,6.0,6.0,510.39914400007547,7.0,1.0,phase_2,go,400.0,150.0,1.0,,,,,,,,,orange,triangle
0.0,5.0,0.5,1.0,5.0,5.0,295.6836779994773,7.0,1.0,phase_2,stop,400.0,150.0,3.0,,,,,,,,,yellow,flipped triangle
0.0,2.0,1.0,0.0,5.0,5.0,537.6721859993268,7.0,1.0,phase_2,go,350.0,150.0,1.0,,,,,,,,,blue,diamond
0.0,2.0,1.0,0.0,6.0,6.0,398.4885300005771,7.0,1.0,phase_2,go,350.0,150.0,1.0,,,,,,,,,blue,diamond
0.0,3.0,2.0,0.0,5.0,5.0,416.8921499995122,7.0,1.0,phase_2,go,350.0,150.0,1.0,,,,,,,,,white,square
0.0,5.0,0.5,1.0,6.0,6.0,509.93991300038033,7.0,1.0,phase_2,go,350.0,150.0,1.0,,,,,,,,,yellow,flipped triangle
0.0,4.0,4.0,0.0,6.0,6.0,435.2630079993105,7.0,1.0,phase_2,go,350.0,150.0,1.0,,,,,,,,,green,I
0.0,5.0,0.5,1.0,5.0,5.0,434.0754940003535,7.0,1.0,phase_2,stop,350.0,150.0,3.0,,,,,,,,,yellow,flipped triangle
0.0,8.0,4.0,1.0,6.0,6.0,418.4440459994221,7.0,1.0,phase_2,stop,300.0,150.0,3.0,,,,,,,,,orange,triangle
0.0,4.0,4.0,0.0,5.0,5.0,696.37186700038,7.0,1.0,phase_2,go,300.0,100.0,1.0,,,,,,,,,green,I
0.0,5.0,0.5,1.0,6.0,0.0,0.0,7.0,1.0,phase_2,stop,300.0,100.0,4.0,,,,,,,,,yellow,flipped triangle
0.0,6.0,1.0,1.0,5.0,0.0,0.0,7.0,1.0,phase_2,stop,300.0,150.0,4.0,,,,,,,,,gray,hexagon
0.0,7.0,2.0,1.0,5.0,0.0,0.0,7.0,1.0,phase_2,stop,350.0,150.0,4.0,,,,,,,,,cyan,cross
0.0,2.0,1.0,0.0,5.0,5.0,694.9348529997224,7.0,1.0,phase_2,go,400.0,150.0,1.0,,,,,,,,,blue,diamond
0.0,3.0,2.0,0.0,5.0,5.0,369.5041000000856,7.0,1.0,phase_2,go,400.0,150.0,1.0,,,,,,,,,white,square
0.0,1.0,0.5,0.0,6.0,6.0,418.3245859994713,7.0,1.0,phase_2,go,400.0,150.0,1.0,,,,,,,,,magenta,circle
0.0,2.0,1.0,0.0,5.0,5.0,601.6872899999726,7.0,1.0,phase_2,go,400.0,150.0,1.0,,,,,,,,,blue,diamond
0.0,1.0,0.5,0.0,6.0,6.0,324.1450189998431,7.0,1.0,phase_2,go,400.0,150.0,1.0,,,,,,,,,magenta,circle
0.0,6.0,1.0,1.0,6.0,0.0,0.0,7.0,1.0,phase_2,stop,400.0,150.0,4.0,,,,,,,,,gray,hexagon
0.0,4.0,4.0,0.0,6.0,6.0,1165.0909569998475,7.0,1.0,phase_2,go,400.0,200.0,1.0,,,,,,,,,green,I
0.0,2.0,1.0,0.0,5.0,5.0,602.0570919999955,7.0,1.0,phase_2,go,400.0,200.0,1.0,,,,,,,,,blue,diamond
0.0,4.0,4.0,0.0,5.0,5.0,444.6549109998159,7.0,1.0,phase_2,go,400.0,200.0,1.0,,,,,,,,,green,I
0.0,1.0,0.5,0.0,5.0,5.0,415.9942659998705,7.0,1.0,phase_2,go,400.0,200.0,1.0,,,,,,,,,magenta,circle
0.0,5.0,0.5,1.0,6.0,6.0,452.5361939995491,7.0,1.0,phase_2,stop,400.0,200.0,3.0,,,,,,,,,yellow,flipped triangle
0.0,3.0,2.0,0.0,6.0,6.0,555.6846520003091,7.0,1.0,phase_2,go,400.0,150.0,1.0,,,,,,,,,white,square
0.0,3.0,2.0,0.0,5.0,5.0,470.1091340002676,7.0,1.0,phase_2,go,400.0,150.0,1.0,,,,,,,,,white,square
0.0,6.0,1.0,1.0,6.0,0.0,0.0,7.0,1.0,phase_2,stop,400.0,150.0,4.0,,,,,,,,,gray,hexagon
0.0,3.0,2.0,0.0,5.0,5.0,528.8918749993172,7.0,1.0,phase_2,go,400.0,200.0,1.0,,,,,,,,,white,square
0.0,2.0,1.0,0.0,5.0,5.0,831.9535669998004,7.0,1.0,phase_2,go,400.0,200.0,1.0,,,,,,,,,blue,diamond
0.0,3.0,2.0,0.0,6.0,6.0,481.7564989998573,8.0,1.0,phase_2,go,400.0,200.0,1.0,,,,,,,,,white,square
0.0,4.0,4.0,0.0,5.0,5.0,333.7999529994704,8.0,1.0,phase_2,go,400.0,200.0,1.0,,,,,,,,,green,I
0.0,3.0,2.0,0.0,5.0,5.0,325.5257380005787,8.0,1.0,phase_2,go,400.0,200.0,1.0,,,,,,,,,white,square
0.0,2.0,1.0,0.0,5.0,5.0,332.6106859994979,8.0,1.0,phase_2,go,400.0,200.0,1.0,,,,,,,,,blue,diamond
0.0,6.0,1.0,1.0,5.0,5.0,683.1158530003449,8.0,1.0,phase_2,stop,400.0,200.0,3.0,,,,,,,,,gray,hexagon
0.0,7.0,2.0,1.0,6.0,6.0,480.7360510003491,8.0,1.0,phase_2,go,350.0,200.0,1.0,,,,,,,,,cyan,cross
0.0,6.0,1.0,1.0,6.0,0.0,0.0,8.0,1.0,phase_2,stop,350.0,200.0,4.0,,,,,,,,,gray,hexagon
0.0,8.0,4.0,1.0,5.0,5.0,411.8287649998819,8.0,1.0,phase_2,stop,350.0,250.0,3.0,,,,,,,,,orange,triangle
0.0,4.0,4.0,0.0,5.0,5.0,702.4205540001276,8.0,1.0,phase_2,go,300.0,250.0,1.0,,,,,,,,,green,I
0.0,4.0,4.0,0.0,6.0,6.0,603.7484170001335,8.0,1.0,phase_2,go,300.0,250.0,1.0,,,,,,,,,green,I
0.0,4.0,4.0,0.0,5.0,5.0,739.7906930000318,8.0,1.0,phase_2,go,300.0,250.0,1.0,,,,,,,,,green,I
0.0,6.0,1.0,1.0,6.0,6.0,1442.3943820002023,8.0,1.0,phase_2,go,300.0,250.0,1.0,,,,,,,,,gray,hexagon
0.0,2.0,1.0,0.0,5.0,5.0,742.6434550006888,8.0,1.0,phase_2,go,300.0,250.0,1.0,,,,,,,,,blue,diamond
0.0,6.0,1.0,1.0,5.0,0.0,0.0,8.0,1.0,phase_2,stop,300.0,250.0,4.0,,,,,,,,,gray,hexagon
0.0,5.0,0.5,1.0,5.0,5.0,628.8534810000783,8.0,1.0,phase_2,go,350.0,250.0,1.0,,,,,,,,,yellow,flipped triangle
0.0,7.0,2.0,1.0,5.0,5.0,612.2797499992885,8.0,1.0,phase_2,go,350.0,250.0,1.0,,,,,,,,,cyan,cross
0.0,5.0,0.5,1.0,5.0,5.0,408.7677469997288,8.0,1.0,phase_2,stop,350.0,250.0,3.0,,,,,,,,,yellow,flipped triangle
0.0,7.0,2.0,1.0,6.0,6.0,656.8429400003879,8.0,1.0,phase_2,go,300.0,250.0,1.0,,,,,,,,,cyan,cross
0.0,6.0,1.0,1.0,6.0,0.0,0.0,8.0,1.0,phase_2,stop,300.0,250.0,4.0,,,,,,,,,gray,hexagon
0.0,4.0,4.0,0.0,6.0,6.0,510.2069920003487,8.0,1.0,phase_2,go,300.0,300.0,1.0,,,,,,,,,green,I
0.0,8.0,4.0,1.0,6.0,0.0,0.0,8.0,1.0,phase_2,go,300.0,300.0,5.0,,,,,,,,,orange,triangle
0.0,4.0,4.0,0.0,5.0,5.0,480.3982640005415,8.0,1.0,phase_2,go,300.0,300.0,1.0,,,,,,,,,green,I
0.0,2.0,1.0,0.0,6.0,6.0,277.5239060001695,8.0,1.0,phase_2,go,300.0,300.0,1.0,,,,,,,,,blue,diamond
0.0,4.0,4.0,0.0,6.0,6.0,370.4928380002457,8.0,1.0,phase_2,go,300.0,300.0,1.0,,,,,,,,,green,I
0.0,6.0,1.0,1.0,6.0,6.0,383.3889099996668,8.0,1.0,phase_2,stop,300.0,300.0,3.0,,,,,,,,,gray,hexagon
0.0,7.0,2.0,1.0,6.0,0.0,0.0,8.0,1.0,phase_2,stop,300.0,250.0,4.0,,,,,,,,,cyan,cross
0.0,3.0,2.0,0.0,6.0,6.0,703.7366579997979,8.0,1.0,phase_2,go,300.0,300.0,1.0,,,,,,,,,white,square
0.0,1.0,0.5,0.0,5.0,5.0,397.6123100001132,8.0,1.0,phase_2,go,300.0,300.0,1.0,,,,,,,,,magenta,circle
0.0,8.0,4.0,1.0,5.0,5.0,393.4407799997643,8.0,1.0,phase_2,stop,300.0,300.0,3.0,,,,,,,,,orange,triangle
0.0,5.0,0.5,1.0,6.0,0.0,0.0,8.0,1.0,phase_2,stop,250.0,300.0,4.0,,,,,,,,,yellow,flipped triangle
0.0,8.0,4.0,1.0,5.0,5.0,345.6156040001588,8.0,1.0,phase_2,stop,250.0,350.0,3.0,,,,,,,,,orange,triangle
0.0,3.0,2.0,0.0,6.0,6.0,519.0807700000732,8.0,1.0,phase_2,go,200.0,350.0,1.0,,,,,,,,,white,square
0.0,1.0,0.5,0.0,5.0,5.0,350.9614799995688,8.0,1.0,phase_2,go,200.0,350.0,1.0,,,,,,,,,magenta,circle
0.0,2.0,1.0,0.0,6.0,6.0,360.9286700002485,8.0,1.0,phase_2,go,200.0,350.0,1.0,,,,,,,,,blue,diamond
0.0,7.0,2.0,1.0,5.0,5.0,349.0033209991452,8.0,1.0,phase_2,stop,200.0,350.0,3.0,,,,,,,,,cyan,cross
0.0,6.0,1.0,1.0,5.0,0.0,0.0,8.0,1.0,phase_2,stop,150.0,350.0,4.0,,,,,,,,,gray,hexagon
0.0,1.0,0.5,0.0,7.0,3.0,1620.83204100054,1.0,2.0,phase_3,,,,,192.0,1.0,1152.0,960.0,192.0,768.0,384.0,576.0,magenta,circle
0.0,2.0,1.0,0.0,7.0,4.0,3097.287548000168,1.0,1.0,phase_3,,,,,270.0,2.0,135.0,810.0,675.0,270.0,405.0,540.0,blue,diamond
0.0,4.0,4.0,0.0,7.0,2.0,1372.8427850001026,1.0,1.0,phase_3,,,,,810.0,6.0,135.0,810.0,405.0,270.0,540.0,675.0,green,I
0.0,1.0,0.5,0.0,7.0,5.0,3179.4353199993566,1.0,1.0,phase_3,,,,,308.0,2.0,616.0,924.0,770.0,462.0,308.0,154.0,magenta,circle
0.0,1.0,0.5,0.0,7.0,4.0,4941.70202100031,1.0,1.0,phase_3,,,,,405.0,3.0,810.0,675.0,270.0,405.0,540.0,135.0,magenta,circle
0.0,3.0,2.0,0.0,7.0,3.0,2788.746863999222,1.0,1.0,phase_3,,,,,346.0,2.0,865.0,1038.0,346.0,173.0,519.0,692.0,white,square
0.0,5.0,0.5,1.0,7.0,3.0,1932.0359159992224,1.0,1.0,phase_3,,,,,462.0,3.0,308.0,154.0,462.0,924.0,770.0,616.0,yellow,flipped triangle
0.0,5.0,0.5,1.0,7.0,1.0,2032.1493820001706,1.0,1.0,phase_3,,,,,405.0,3.0,405.0,810.0,135.0,270.0,675.0,540.0,yellow,flipped triangle
0.0,4.0,4.0,0.0,7.0,3.0,1608.9195469994593,1.0,1.0,phase_3,,,,,308.0,2.0,462.0,154.0,308.0,924.0,616.0,770.0,green,I
0.0,7.0,2.0,1.0,7.0,3.0,1773.7402100001418,1.0,1.0,phase_3,,,,,770.0,5.0,308.0,154.0,770.0,462.0,924.0,616.0,cyan,cross
0.0,1.0,0.5,0.0,7.0,2.0,1888.3104870001264,1.0,1.0,phase_3,,,,,580.0,5.0,116.0,580.0,232.0,348.0,464.0,696.0,magenta,circle
0.0,4.0,4.0,0.0,7.0,5.0,2170.5633190003937,1.0,1.0,phase_3,,,,,173.0,1.0,865.0,692.0,519.0,1038.0,173.0,346.0,green,I
0.0,3.0,2.0,0.0,7.0,6.0,1230.0653629999942,1.0,1.0,phase_3,,,,,696.0,6.0,464.0,580.0,116.0,232.0,348.0,696.0,white,square
0.0,2.0,1.0,0.0,7.0,1.0,878.7346250001065,1.0,1.0,phase_3,,,,,462.0,3.0,462.0,154.0,616.0,308.0,770.0,924.0,blue,diamond
0.0,5.0,0.5,1.0,7.0,2.0,840.9167419995356,1.0,1.0,phase_3,,,,,576.0,3.0,768.0,576.0,384.0,1152.0,960.0,192.0,yellow,flipped triangle
0.0,3.0,2.0,0.0,7.0,4.0,1049.6488509998017,1.0,1.0,phase_3,,,,,768.0,4.0,960.0,1152.0,576.0,768.0,192.0,384.0,white,square
0.0,1.0,0.5,0.0,7.0,5.0,1022.961851999753,1.0,1.0,phase_3,,,,,192.0,1.0,384.0,576.0,1152.0,960.0,192.0,768.0,magenta,circle
0.0,1.0,0.5,0.0,7.0,1.0,2058.2184470003995,1.0,1.0,phase_3,,,,,462.0,3.0,462.0,770.0,616.0,924.0,308.0,154.0,magenta,circle
0.0,7.0,2.0,1.0,7.0,2.0,2033.881448000102,1.0,1.0,phase_3,,,,,405.0,3.0,135.0,405.0,675.0,270.0,810.0,540.0,cyan,cross
0.0,4.0,4.0,0.0,7.0,1.0,2261.064086999795,1.0,1.0,phase_3,,,,,1152.0,6.0,1152.0,768.0,192.0,960.0,384.0,576.0,green,I
0.0,5.0,0.5,1.0,7.0,4.0,1267.0007890001216,2.0,1.0,phase_3,,,,,192.0,1.0,768.0,384.0,576.0,192.0,960.0,1152.0,yellow,flipped triangle
0.0,4.0,4.0,0.0,7.0,2.0,423.7873089996355,2.0,1.0,phase_3,,,,,540.0,4.0,270.0,540.0,810.0,675.0,405.0,135.0,green,I
0.0,2.0,1.0,0.0,7.0,6.0,791.6101679993517,2.0,1.0,phase_3,,,,,384.0,2.0,192.0,576.0,768.0,1152.0,960.0,384.0,blue,diamond
0.0,6.0,1.0,1.0,7.0,1.0,1002.3453869998775,2.0,1.0,phase_3,,,,,464.0,4.0,464.0,580.0,696.0,232.0,348.0,116.0,gray,hexagon
0.0,6.0,1.0,1.0,7.0,6.0,1979.6253639997303,2.0,1.0,phase_3,,,,,865.0,5.0,692.0,173.0,1038.0,519.0,346.0,865.0,gray,hexagon
0.0,8.0,4.0,1.0,7.0,4.0,428.0541329999323,2.0,1.0,phase_3,,,,,580.0,5.0,696.0,348.0,116.0,580.0,232.0,464.0,orange,triangle
0.0,6.0,1.0,1.0,7.0,5.0,435.7325760001913,2.0,1.0,phase_3,,,,,810.0,6.0,270.0,135.0,675.0,540.0,810.0,405.0,gray,hexagon
0.0,7.0,2.0,1.0,7.0,2.0,434.4372079995082,2.0,1.0,phase_3,,,,,1152.0,6.0,960.0,1152.0,384.0,768.0,576.0,192.0,cyan,cross
0.0,7.0,2.0,1.0,7.0,4.0,790.7737850000558,2.0,1.0,phase_3,,,,,696.0,6.0,348.0,580.0,116.0,696.0,232.0,464.0,cyan,cross
0.0,2.0,1.0,0.0,7.0,6.0,534.5095920001768,2.0,1.0,phase_3,,,,,346.0,2.0,692.0,865.0,1038.0,173.0,519.0,346.0,blue,diamond
0.0,4.0,4.0,0.0,7.0,1.0,405.9277349997501,2.0,1.0,phase_3,,,,,384.0,2.0,384.0,1152.0,576.0,768.0,192.0,960.0,green,I
0.0,4.0,4.0,0.0,7.0,4.0,959.521517000212,2.0,1.0,phase_3,,,,,519.0,3.0,346.0,692.0,1038.0,519.0,173.0,865.0,green,I
0.0,2.0,1.0,0.0,7.0,4.0,1702.3667379999097,2.0,1.0,phase_3,,,,,692.0,4.0,1038.0,519.0,865.0,692.0,173.0,346.0,blue,diamond
0.0,4.0,4.0,0.0,7.0,1.0,1602.9907109996202,2.0,1.0,phase_3,,,,,462.0,3.0,462.0,616.0,154.0,924.0,770.0,308.0,green,I
0.0,3.0,2.0,0.0,7.0,6.0,1245.0818689994776,2.0,1.0,phase_3,,,,,270.0,2.0,675.0,135.0,405.0,540.0,810.0,270.0,white,square
0.0,1.0,0.5,0.0,7.0,4.0,2070.963701999972,2.0,1.0,phase_3,,,,,696.0,6.0,464.0,232.0,348.0,696.0,116.0,580.0,magenta,circle
0.0,4.0,4.0,0.0,7.0,1.0,1306.726391000666,2.0,1.0,phase_3,,,,,696.0,6.0,696.0,232.0,464.0,348.0,116.0,580.0,green,I
0.0,8.0,4.0,1.0,7.0,3.0,680.8753839995916,2.0,1.0,phase_3,,,,,405.0,3.0,270.0,810.0,405.0,540.0,675.0,135.0,orange,triangle
0.0,5.0,0.5,1.0,7.0,2.0,1029.22966099959,2.0,1.0,phase_3,,,,,308.0,2.0,616.0,308.0,462.0,924.0,154.0,770.0,yellow,flipped triangle
0.0,2.0,1.0,0.0,7.0,6.0,405.1449509997837,2.0,1.0,phase_3,,,,,308.0,2.0,924.0,770.0,616.0,154.0,462.0,308.0,blue,diamond
0.0,8.0,4.0,1.0,7.0,4.0,506.00292600029206,3.0,1.0,phase_3,,,,,692.0,4.0,519.0,1038.0,173.0,692.0,865.0,346.0,orange,triangle
0.0,3.0,2.0,0.0,7.0,3.0,285.1535280005919,3.0,1.0,phase_3,,,,,924.0,6.0,616.0,154.0,924.0,462.0,770.0,308.0,white,square
0.0,7.0,2.0,1.0,7.0,5.0,284.8912119998203,3.0,1.0,phase_3,,,,,232.0,2.0,348.0,116.0,696.0,464.0,232.0,580.0,cyan,cross
0.0,8.0,4.0,1.0,7.0,6.0,323.35423800032,3.0,1.0,phase_3,,,,,576.0,3.0,768.0,960.0,1152.0,384.0,192.0,576.0,orange,triangle
0.0,7.0,2.0,1.0,7.0,2.0,432.0396229995822,3.0,1.0,phase_3,,,,,770.0,5.0,462.0,770.0,308.0,616.0,924.0,154.0,cyan,cross
0.0,6.0,1.0,1.0,7.0,6.0,450.4975909994755,3.0,1.0,phase_3,,,,,192.0,1.0,768.0,1152.0,960.0,576.0,384.0,192.0,gray,hexagon
0.0,3.0,2.0,0.0,7.0,5.0,570.0714989998232,3.0,1.0,phase_3,,,,,1152.0,6.0,576.0,192.0,768.0,960.0,1152.0,384.0,white,square
0.0,5.0,0.5,1.0,7.0,4.0,450.9393549997185,3.0,1.0,phase_3,,,,,692.0,4.0,173.0,346.0,1038.0,692.0,519.0,865.0,yellow,flipped triangle
0.0,7.0,2.0,1.0,7.0,3.0,579.1804700002103,3.0,1.0,phase_3,,,,,192.0,1.0,576.0,1152.0,192.0,384.0,960.0,768.0,cyan,cross
0.0,1.0,0.5,0.0,7.0,2.0,616.3254800003415,3.0,1.0,phase_3,,,,,1038.0,6.0,692.0,1038.0,519.0,865.0,173.0,346.0,magenta,circle
0.0,1.0,0.5,0.0,7.0,4.0,1021.0295780007073,3.0,1.0,phase_3,,,,,1038.0,6.0,173.0,519.0,865.0,1038.0,692.0,346.0,magenta,circle
0.0,3.0,2.0,0.0,7.0,6.0,1809.9239290004332,3.0,1.0,phase_3,,,,,616.0,4.0,770.0,462.0,924.0,308.0,154.0,616.0,white,square
0.0,7.0,2.0,1.0,7.0,5.0,488.4292369997638,3.0,1.0,phase_3,,,,,346.0,2.0,865.0,692.0,519.0,1038.0,346.0,173.0,cyan,cross
0.0,8.0,4.0,1.0,7.0,3.0,303.0794159994912,3.0,1.0,phase_3,,,,,308.0,2.0,924.0,770.0,308.0,154.0,462.0,616.0,orange,triangle
0.0,8.0,4.0,1.0,7.0,5.0,853.6709720001454,3.0,1.0,phase_3,,,,,580.0,5.0,116.0,348.0,232.0,696.0,580.0,464.0,orange,triangle
0.0,8.0,4.0,1.0,7.0,4.0,752.1746259999418,3.0,1.0,phase_3,,,,,405.0,3.0,675.0,270.0,135.0,405.0,810.0,540.0,orange,triangle
0.0,4.0,4.0,0.0,7.0,3.0,974.7939520002546,3.0,1.0,phase_3,,,,,464.0,4.0,580.0,232.0,464.0,116.0,696.0,348.0,green,I
0.0,6.0,1.0,1.0,7.0,2.0,560.4863429998659,3.0,1.0,phase_3,,,,,1038.0,6.0,346.0,1038.0,692.0,519.0,173.0,865.0,gray,hexagon
0.0,6.0,1.0,1.0,7.0,6.0,992.3076969998874,3.0,1.0,phase_3,,,,,675.0,5.0,405.0,270.0,540.0,810.0,135.0,675.0,gray,hexagon
0.0,8.0,4.0,1.0,7.0,1.0,652.3356280004009,3.0,1.0,phase_3,,,,,692.0,4.0,692.0,519.0,173.0,865.0,1038.0,346.0,orange,triangle
0.0,2.0,1.0,0.0,7.0,5.0,596.2351340003806,4.0,1.0,phase_3,,,,,348.0,3.0,464.0,696.0,232.0,580.0,348.0,116.0,blue,diamond
0.0,3.0,2.0,0.0,7.0,3.0,276.9092930002443,4.0,1.0,phase_3,,,,,692.0,4.0,173.0,1038.0,692.0,346.0,865.0,519.0,white,square
0.0,8.0,4.0,1.0,7.0,6.0,332.3483829999532,4.0,1.0,phase_3,,,,,384.0,2.0,192.0,576.0,768.0,960.0,1152.0,384.0,orange,triangle
0.0,8.0,4.0,1.0,7.0,2.0,487.3042910003278,4.0,1.0,phase_3,,,,,924.0,6.0,770.0,924.0,154.0,462.0,616.0,308.0,orange,triangle
0.0,5.0,0.5,1.0,7.0,5.0,423.9424190000136,4.0,1.0,phase_3,,,,,696.0,6.0,116.0,232.0,464.0,348.0,696.0,580.0,yellow,flipped triangle
0.0,6.0,1.0,1.0,7.0,4.0,488.095634000274,4.0,1.0,phase_3,,,,,770.0,5.0,924.0,616.0,462.0,770.0,308.0,154.0,gray,hexagon
0.0,1.0,0.5,0.0,7.0,2.0,891.6638010005045,4.0,1.0,phase_3,,,,,270.0,2.0,810.0,270.0,675.0,405.0,540.0,135.0,magenta,circle
0.0,5.0,0.5,1.0,7.0,3.0,340.9099539994713,4.0,1.0,phase_3,,,,,692.0,4.0,519.0,1038.0,692.0,346.0,865.0,173.0,yellow,flipped triangle
0.0,6.0,1.0,1.0,7.0,6.0,541.5709210001296,4.0,1.0,phase_3,,,,,464.0,4.0,580.0,232.0,696.0,348.0,116.0,464.0,gray,hexagon
0.0,2.0,1.0,0.0,7.0,5.0,459.9566010001581,4.0,1.0,phase_3,,,,,696.0,6.0,580.0,116.0,348.0,464.0,696.0,232.0,blue,diamond
0.0,2.0,1.0,0.0,7.0,1.0,579.9898309996934,4.0,1.0,phase_3,,,,,405.0,3.0,405.0,270.0,135.0,810.0,675.0,540.0,blue,diamond
0.0,7.0,2.0,1.0,7.0,6.0,588.3404460000747,4.0,1.0,phase_3,,,,,519.0,3.0,865.0,346.0,173.0,1038.0,692.0,519.0,cyan,cross
0.0,3.0,2.0,0.0,7.0,5.0,472.5307970002177,4.0,1.0,phase_3,,,,,580.0,5.0,116.0,232.0,464.0,696.0,580.0,348.0,white,square
0.0,5.0,0.5,1.0,7.0,4.0,717.7926920003301,4.0,1.0,phase_3,,,,,135.0,1.0,810.0,540.0,405.0,135.0,675.0,270.0,yellow,flipped triangle
0.0,2.0,1.0,0.0,7.0,6.0,734.6850640005869,4.0,1.0,phase_3,,,,,1152.0,6.0,960.0,384.0,576.0,192.0,768.0,1152.0,blue,diamond
0.0,3.0,2.0,0.0,7.0,2.0,568.8669880000816,4.0,1.0,phase_3,,,,,270.0,2.0,135.0,270.0,675.0,540.0,810.0,405.0,white,square
0.0,7.0,2.0,1.0,7.0,6.0,487.2462459998132,4.0,1.0,phase_3,,,,,135.0,1.0,405.0,270.0,810.0,675.0,540.0,135.0,cyan,cross
0.0,5.0,0.5,1.0,7.0,4.0,432.9476049997538,4.0,1.0,phase_3,,,,,696.0,6.0,580.0,348.0,232.0,696.0,116.0,464.0,yellow,flipped triangle
0.0,6.0,1.0,1.0,7.0,5.0,432.5563980000879,4.0,1.0,phase_3,,,,,192.0,1.0,960.0,768.0,576.0,1152.0,192.0,384.0,gray,hexagon
0.0,6.0,1.0,1.0,7.0,2.0,479.4497990005766,4.0,1.0,phase_3,,,,,770.0,5.0,462.0,770.0,924.0,154.0,308.0,616.0,gray,hexagon
