raw_reward_magnitude,stim_reward,stepwise_reward_magnitude,paired_with_stopping,stim_location,response,reaction_time,block,num_trial_presentations,which_phase,stop_signal_trial_type,left_SSD,right_SSD,accuracy,chosen_bidding_amount,chosen_bidding_level,possible_bid_1,possible_bid_2,possible_bid_3,possible_bid_4,possible_bid_5,possible_bid_6,color_text,shape_text
344.0,6.0,1.0,1.0,2.0,2.0,549.5414160000109,1.0,1.0,phase_1,,,,,,,,,,,,,magenta,cross
306.0,6.0,1.0,1.0,3.0,3.0,501.2538199998744,1.0,1.0,phase_1,,,,,,,,,,,,,magenta,cross
647.0,7.0,2.0,1.0,1.0,1.0,436.5578190001997,1.0,1.0,phase_1,,,,,,,,,,,,,blue,square
1318.0,4.0,4.0,0.0,3.0,3.0,381.0440449999532,1.0,1.0,phase_1,,,,,,,,,,,,,green,diamond
0.0,3.0,0.0,0.0,1.0,1.0,417.2889159999613,1.0,1.0,phase_1,,,,,,,,,,,,,white,circle
1295.0,4.0,4.0,0.0,1.0,1.0,419.0199750000829,1.0,1.0,phase_1,,,,,,,,,,,,,green,diamond
0.0,2.0,0.0,0.0,1.0,1.0,409.2923469997913,1.0,1.0,phase_1,,,,,,,,,,,,,cyan,I
337.0,2.0,1.0,0.0,4.0,4.0,408.6555110000063,1.0,1.0,phase_1,,,,,,,,,,,,,cyan,I
0.0,4.0,0.0,0.0,1.0,1.0,398.0099780001183,1.0,2.0,phase_1,,,,,,,,,,,,,green,diamond
344.0,2.0,1.0,0.0,4.0,4.0,409.2573759999141,1.0,1.0,phase_1,,,,,,,,,,,,,cyan,I
328.0,2.0,1.0,0.0,4.0,4.0,427.4129519999405,1.0,1.0,phase_1,,,,,,,,,,,,,cyan,I
1314.0,4.0,4.0,0.0,4.0,4.0,352.4117650001699,1.0,1.0,phase_1,,,,,,,,,,,,,green,diamond
328.0,6.0,1.0,1.0,3.0,3.0,436.2005320001572,1.0,1.0,phase_1,,,,,,,,,,,,,magenta,cross
669.0,7.0,2.0,1.0,1.0,1.0,381.6731029999118,1.0,1.0,phase_1,,,,,,,,,,,,,blue,square
1292.0,4.0,4.0,0.0,1.0,1.0,323.8766770000438,1.0,1.0,phase_1,,,,,,,,,,,,,green,diamond
167.0,5.0,0.5,1.0,4.0,4.0,343.5001549999015,1.0,1.0,phase_1,,,,,,,,,,,,,yellow,hexagon
671.0,3.0,2.0,0.0,2.0,2.0,454.7579960001258,1.0,1.0,phase_1,,,,,,,,,,,,,white,circle
317.0,6.0,1.0,1.0,1.0,1.0,550.267710000071,1.0,1.0,phase_1,,,,,,,,,,,,,magenta,cross
307.0,6.0,1.0,1.0,2.0,2.0,380.455333999862,1.0,1.0,phase_1,,,,,,,,,,,,,magenta,cross
0.0,6.0,0.0,1.0,1.0,1.0,426.0921630000212,1.0,1.0,phase_1,,,,,,,,,,,,,magenta,cross
318.0,6.0,1.0,1.0,3.0,3.0,528.6115419999078,1.0,1.0,phase_1,,,,,,,,,,,,,magenta,cross
1299.0,8.0,4.0,1.0,3.0,3.0,362.2460589999718,1.0,1.0,phase_1,,,,,,,,,,,,,orange,triangle
315.0,6.0,1.0,1.0,1.0,1.0,436.5217090000897,1.0,1.0,phase_1,,,,,,,,,,,,,magenta,cross
166.0,1.0,0.5,0.0,4.0,4.0,371.3339070000074,1.0,1.0,phase_1,,,,,,,,,,,,,gray,flipped triangle
0.0,4.0,0.0,0.0,3.0,3.0,286.9680430001153,1.0,1.0,phase_1,,,,,,,,,,,,,green,diamond
138.0,5.0,0.5,1.0,3.0,3.0,288.7746799999604,1.0,1.0,phase_1,,,,,,,,,,,,,yellow,hexagon
165.0,5.0,0.5,1.0,2.0,2.0,325.116061000017,1.0,1.0,phase_1,,,,,,,,,,,,,yellow,hexagon
302.0,6.0,1.0,1.0,2.0,2.0,361.7500099999233,1.0,1.0,phase_1,,,,,,,,,,,,,magenta,cross
0.0,1.0,0.0,0.0,1.0,1.0,325.2558609999596,1.0,1.0,phase_1,,,,,,,,,,,,,gray,flipped triangle
181.0,5.0,0.5,1.0,1.0,1.0,399.3301300001803,1.0,1.0,phase_1,,,,,,,,,,,,,yellow,hexagon
347.0,2.0,1.0,0.0,3.0,3.0,380.5048840001745,1.0,1.0,phase_1,,,,,,,,,,,,,cyan,I
661.0,7.0,2.0,1.0,1.0,1.0,389.8952829999871,1.0,1.0,phase_1,,,,,,,,,,,,,blue,square
665.0,3.0,2.0,0.0,1.0,1.0,380.1373690000673,1.0,1.0,phase_1,,,,,,,,,,,,,white,circle
1277.0,8.0,4.0,1.0,2.0,2.0,343.929603000106,1.0,1.0,phase_1,,,,,,,,,,,,,orange,triangle
0.0,2.0,0.0,0.0,3.0,3.0,269.1013959999964,1.0,1.0,phase_1,,,,,,,,,,,,,cyan,I
1318.0,8.0,4.0,1.0,4.0,4.0,547.9737010000463,1.0,1.0,phase_1,,,,,,,,,,,,,orange,triangle
1306.0,8.0,4.0,1.0,4.0,4.0,361.9708160001664,1.0,1.0,phase_1,,,,,,,,,,,,,orange,triangle
0.0,5.0,0.0,1.0,3.0,3.0,389.8563440000089,1.0,1.0,phase_1,,,,,,,,,,,,,yellow,hexagon
171.0,5.0,0.5,1.0,3.0,3.0,361.8330320000495,1.0,1.0,phase_1,,,,,,,,,,,,,yellow,hexagon
158.0,5.0,0.5,1.0,2.0,2.0,343.1501709999338,1.0,1.0,phase_1,,,,,,,,,,,,,yellow,hexagon
669.0,3.0,2.0,0.0,3.0,3.0,362.2951159998138,1.0,1.0,phase_1,,,,,,,,,,,,,white,circle
672.0,7.0,2.0,1.0,1.0,1.0,455.4439099999854,1.0,1.0,phase_1,,,,,,,,,,,,,blue,square
661.0,3.0,2.0,0.0,1.0,1.0,407.1791789999679,1.0,1.0,phase_1,,,,,,,,,,,,,white,circle
322.0,6.0,1.0,1.0,1.0,1.0,323.8712410000062,1.0,1.0,phase_1,,,,,,,,,,,,,magenta,cross
183.0,1.0,0.5,0.0,4.0,4.0,509.03573899995536,1.0,1.0,phase_1,,,,,,,,,,,,,gray,flipped triangle
1286.0,8.0,4.0,1.0,3.0,3.0,306.4390500001082,1.0,1.0,phase_1,,,,,,,,,,,,,orange,triangle
0.0,3.0,0.0,0.0,1.0,1.0,415.2721499999643,1.0,1.0,phase_1,,,,,,,,,,,,,white,circle
1312.0,8.0,4.0,1.0,4.0,4.0,453.3947550000903,1.0,1.0,phase_1,,,,,,,,,,,,,orange,triangle
0.0,6.0,0.0,1.0,4.0,4.0,352.0873200000096,1.0,1.0,phase_1,,,,,,,,,,,,,magenta,cross
633.0,3.0,2.0,0.0,4.0,4.0,315.2597629998581,1.0,1.0,phase_1,,,,,,,,,,,,,white,circle
326.0,6.0,1.0,1.0,2.0,2.0,416.8954290000783,1.0,1.0,phase_1,,,,,,,,,,,,,magenta,cross
0.0,8.0,0.0,1.0,4.0,4.0,352.61871900002,1.0,1.0,phase_1,,,,,,,,,,,,,orange,triangle
142.0,5.0,0.5,1.0,4.0,4.0,314.7565550000308,1.0,1.0,phase_1,,,,,,,,,,,,,yellow,hexagon
628.0,7.0,2.0,1.0,4.0,4.0,406.1415779999606,1.0,1.0,phase_1,,,,,,,,,,,,,blue,square
1301.0,4.0,4.0,0.0,2.0,2.0,334.7943559999748,1.0,1.0,phase_1,,,,,,,,,,,,,green,diamond
175.0,5.0,0.5,1.0,4.0,4.0,362.0014299999639,1.0,1.0,phase_1,,,,,,,,,,,,,yellow,hexagon
657.0,7.0,2.0,1.0,1.0,1.0,473.5046999999213,1.0,1.0,phase_1,,,,,,,,,,,,,blue,square
151.0,1.0,0.5,0.0,2.0,2.0,381.0058280000703,1.0,1.0,phase_1,,,,,,,,,,,,,gray,flipped triangle
158.0,1.0,0.5,0.0,2.0,2.0,382.4396600000455,1.0,1.0,phase_1,,,,,,,,,,,,,gray,flipped triangle
0.0,4.0,0.0,0.0,3.0,3.0,324.9237229999835,1.0,1.0,phase_1,,,,,,,,,,,,,green,diamond
322.0,2.0,1.0,0.0,1.0,1.0,463.8909560001139,1.0,1.0,phase_1,,,,,,,,,,,,,cyan,I
638.0,3.0,2.0,0.0,1.0,1.0,379.3195289999858,1.0,1.0,phase_1,,,,,,,,,,,,,white,circle
651.0,3.0,2.0,0.0,2.0,2.0,352.6916619998701,1.0,1.0,phase_1,,,,,,,,,,,,,white,circle
1320.0,8.0,4.0,1.0,1.0,1.0,629.4988910001393,1.0,1.0,phase_1,,,,,,,,,,,,,orange,triangle
645.0,7.0,2.0,1.0,1.0,1.0,584.2637539999487,1.0,1.0,phase_1,,,,,,,,,,,,,blue,square
333.0,2.0,1.0,0.0,3.0,3.0,685.647673999938,1.0,1.0,phase_1,,,,,,,,,,,,,cyan,I
1310.0,8.0,4.0,1.0,2.0,2.0,378.6478130000432,1.0,1.0,phase_1,,,,,,,,,,,,,orange,triangle
348.0,6.0,1.0,1.0,2.0,2.0,333.9639810001245,1.0,1.0,phase_1,,,,,,,,,,,,,magenta,cross
0.0,5.0,0.0,1.0,2.0,2.0,362.4917160000223,1.0,1.0,phase_1,,,,,,,,,,,,,yellow,hexagon
152.0,5.0,0.5,1.0,1.0,1.0,388.8478470000791,1.0,1.0,phase_1,,,,,,,,,,,,,yellow,hexagon
0.0,1.0,0.0,0.0,4.0,4.0,435.4995260000578,1.0,1.0,phase_1,,,,,,,,,,,,,gray,flipped triangle
0.0,4.0,0.0,0.0,4.0,4.0,407.6926430000185,1.0,1.0,phase_1,,,,,,,,,,,,,green,diamond
319.0,6.0,1.0,1.0,2.0,2.0,399.1757310000139,1.0,1.0,phase_1,,,,,,,,,,,,,magenta,cross
325.0,2.0,1.0,0.0,1.0,1.0,798.2274169999073,1.0,1.0,phase_1,,,,,,,,,,,,,cyan,I
1293.0,8.0,4.0,1.0,1.0,1.0,584.9557579999782,1.0,1.0,phase_1,,,,,,,,,,,,,orange,triangle
1285.0,8.0,4.0,1.0,4.0,4.0,528.5543679999591,1.0,1.0,phase_1,,,,,,,,,,,,,orange,triangle
1309.0,8.0,4.0,1.0,2.0,2.0,379.0172159999656,1.0,1.0,phase_1,,,,,,,,,,,,,orange,triangle
639.0,7.0,2.0,1.0,4.0,4.0,563.8091839998651,1.0,1.0,phase_1,,,,,,,,,,,,,blue,square
669.0,3.0,2.0,0.0,2.0,2.0,379.2221620001328,1.0,1.0,phase_1,,,,,,,,,,,,,white,circle
168.0,5.0,0.5,1.0,1.0,1.0,473.8374599999133,1.0,1.0,phase_1,,,,,,,,,,,,,yellow,hexagon
153.0,5.0,0.5,1.0,3.0,3.0,473.7863350001134,1.0,1.0,phase_1,,,,,,,,,,,,,yellow,hexagon
305.0,6.0,1.0,1.0,2.0,2.0,574.5524629999181,1.0,1.0,phase_1,,,,,,,,,,,,,magenta,cross
1318.0,4.0,4.0,0.0,3.0,3.0,538.5116520001247,1.0,1.0,phase_1,,,,,,,,,,,,,green,diamond
639.0,3.0,2.0,0.0,4.0,4.0,398.1979420000243,1.0,1.0,phase_1,,,,,,,,,,,,,white,circle
0.0,5.0,0.0,1.0,2.0,2.0,661.0129840000809,1.0,2.0,phase_1,,,,,,,,,,,,,yellow,hexagon
168.0,1.0,0.5,0.0,3.0,3.0,408.8089309998395,1.0,1.0,phase_1,,,,,,,,,,,,,gray,flipped triangle
0.0,4.0,0.0,0.0,1.0,1.0,492.7052769999136,1.0,1.0,phase_1,,,,,,,,,,,,,green,diamond
1278.0,4.0,4.0,0.0,2.0,2.0,408.068915000058,1.0,1.0,phase_1,,,,,,,,,,,,,green,diamond
1290.0,4.0,4.0,0.0,1.0,1.0,493.5490549999031,1.0,1.0,phase_1,,,,,,,,,,,,,green,diamond
660.0,3.0,2.0,0.0,2.0,2.0,362.010643999838,1.0,1.0,phase_1,,,,,,,,,,,,,white,circle
0.0,4.0,0.0,0.0,1.0,1.0,380.7147099998929,1.0,1.0,phase_1,,,,,,,,,,,,,green,diamond
0.0,6.0,0.0,1.0,1.0,1.0,361.7086809999819,1.0,1.0,phase_1,,,,,,,,,,,,,magenta,cross
336.0,2.0,1.0,0.0,3.0,3.0,501.3533149999603,1.0,1.0,phase_1,,,,,,,,,,,,,cyan,I
154.0,1.0,0.5,0.0,2.0,2.0,425.903260000041,1.0,1.0,phase_1,,,,,,,,,,,,,gray,flipped triangle
0.0,5.0,0.0,1.0,2.0,2.0,398.3397029999196,1.0,1.0,phase_1,,,,,,,,,,,,,yellow,hexagon
0.0,8.0,0.0,1.0,1.0,1.0,620.5660499999794,1.0,1.0,phase_1,,,,,,,,,,,,,orange,triangle
1278.0,8.0,4.0,1.0,1.0,1.0,446.0551920001308,1.0,1.0,phase_1,,,,,,,,,,,,,orange,triangle
0.0,7.0,0.0,1.0,3.0,3.0,410.5610720000641,1.0,1.0,phase_1,,,,,,,,,,,,,blue,square
341.0,6.0,1.0,1.0,4.0,4.0,527.9933309998341,1.0,1.0,phase_1,,,,,,,,,,,,,magenta,cross
1303.0,4.0,4.0,0.0,2.0,2.0,611.5943489999154,1.0,1.0,phase_1,,,,,,,,,,,,,green,diamond
1301.0,8.0,4.0,1.0,3.0,3.0,492.283013999895,2.0,1.0,phase_1,,,,,,,,,,,,,orange,triangle
1304.0,8.0,4.0,1.0,2.0,2.0,555.011451999917,2.0,2.0,phase_1,,,,,,,,,,,,,orange,triangle
313.0,2.0,1.0,0.0,3.0,3.0,448.2752850001361,2.0,1.0,phase_1,,,,,,,,,,,,,cyan,I
659.0,3.0,2.0,0.0,3.0,3.0,390.0740490000771,2.0,1.0,phase_1,,,,,,,,,,,,,white,circle
0.0,6.0,0.0,1.0,1.0,1.0,574.9299669998891,2.0,1.0,phase_1,,,,,,,,,,,,,magenta,cross
1279.0,4.0,4.0,0.0,1.0,1.0,426.6204650000418,2.0,1.0,phase_1,,,,,,,,,,,,,green,diamond
1297.0,8.0,4.0,1.0,1.0,1.0,371.084122999946,2.0,1.0,phase_1,,,,,,,,,,,,,orange,triangle
653.0,3.0,2.0,0.0,3.0,3.0,361.8523819998245,2.0,1.0,phase_1,,,,,,,,,,,,,white,circle
338.0,6.0,1.0,1.0,2.0,2.0,483.2618479999837,2.0,1.0,phase_1,,,,,,,,,,,,,magenta,cross
184.0,5.0,0.5,1.0,2.0,2.0,464.4029819999105,2.0,1.0,phase_1,,,,,,,,,,,,,yellow,hexagon
0.0,2.0,0.0,0.0,1.0,1.0,620.7160910000766,2.0,1.0,phase_1,,,,,,,,,,,,,cyan,I
1304.0,4.0,4.0,0.0,3.0,3.0,341.7426099999829,2.0,1.0,phase_1,,,,,,,,,,,,,green,diamond
348.0,2.0,1.0,0.0,1.0,1.0,464.6551990001626,2.0,1.0,phase_1,,,,,,,,,,,,,cyan,I
1309.0,4.0,4.0,0.0,2.0,2.0,453.4363230000053,2.0,1.0,phase_1,,,,,,,,,,,,,green,diamond
167.0,1.0,0.5,0.0,1.0,1.0,434.3551060001118,2.0,1.0,phase_1,,,,,,,,,,,,,gray,flipped triangle
675.0,3.0,2.0,0.0,1.0,1.0,416.5591100002075,2.0,1.0,phase_1,,,,,,,,,,,,,white,circle
140.0,5.0,0.5,1.0,4.0,4.0,482.2677319998547,2.0,1.0,phase_1,,,,,,,,,,,,,yellow,hexagon
0.0,6.0,0.0,1.0,1.0,1.0,492.2357130001273,2.0,1.0,phase_1,,,,,,,,,,,,,magenta,cross
634.0,3.0,2.0,0.0,1.0,1.0,435.2127160000236,2.0,1.0,phase_1,,,,,,,,,,,,,white,circle
157.0,1.0,0.5,0.0,1.0,1.0,380.9320610000668,2.0,1.0,phase_1,,,,,,,,,,,,,gray,flipped triangle
171.0,1.0,0.5,0.0,2.0,2.0,426.3686110000435,2.0,1.0,phase_1,,,,,,,,,,,,,gray,flipped triangle
1316.0,4.0,4.0,0.0,4.0,4.0,472.6830759998393,2.0,1.0,phase_1,,,,,,,,,,,,,green,diamond
153.0,5.0,0.5,1.0,1.0,1.0,399.2288480001207,2.0,1.0,phase_1,,,,,,,,,,,,,yellow,hexagon
0.0,1.0,0.0,0.0,4.0,4.0,436.1333869999271,2.0,1.0,phase_1,,,,,,,,,,,,,gray,flipped triangle
322.0,2.0,1.0,0.0,4.0,4.0,379.2372749999231,2.0,1.0,phase_1,,,,,,,,,,,,,cyan,I
171.0,1.0,0.5,0.0,3.0,3.0,471.5630420000707,2.0,1.0,phase_1,,,,,,,,,,,,,gray,flipped triangle
333.0,6.0,1.0,1.0,1.0,1.0,593.2226059999266,2.0,1.0,phase_1,,,,,,,,,,,,,magenta,cross
645.0,3.0,2.0,0.0,2.0,2.0,389.6493909999208,2.0,1.0,phase_1,,,,,,,,,,,,,white,circle
1319.0,4.0,4.0,0.0,2.0,2.0,371.2143029999879,2.0,1.0,phase_1,,,,,,,,,,,,,green,diamond
671.0,7.0,2.0,1.0,4.0,4.0,539.6300059999248,2.0,1.0,phase_1,,,,,,,,,,,,,blue,square
340.0,2.0,1.0,0.0,2.0,2.0,500.8110569999644,2.0,1.0,phase_1,,,,,,,,,,,,,cyan,I
653.0,7.0,2.0,1.0,2.0,2.0,399.6227239999825,2.0,1.0,phase_1,,,,,,,,,,,,,blue,square
0.0,8.0,0.0,1.0,3.0,3.0,426.9587470000715,2.0,1.0,phase_1,,,,,,,,,,,,,orange,triangle
657.0,3.0,2.0,0.0,1.0,1.0,614.0096070000709,2.0,1.0,phase_1,,,,,,,,,,,,,white,circle
1321.0,4.0,4.0,0.0,2.0,2.0,379.7787140001674,2.0,1.0,phase_1,,,,,,,,,,,,,green,diamond
139.0,1.0,0.5,0.0,4.0,4.0,371.4094340000429,2.0,1.0,phase_1,,,,,,,,,,,,,gray,flipped triangle
1284.0,4.0,4.0,0.0,3.0,3.0,400.3689789999498,2.0,1.0,phase_1,,,,,,,,,,,,,green,diamond
661.0,3.0,2.0,0.0,3.0,3.0,399.9876699999731,2.0,1.0,phase_1,,,,,,,,,,,,,white,circle
1292.0,8.0,4.0,1.0,3.0,3.0,334.0332540001327,2.0,1.0,phase_1,,,,,,,,,,,,,orange,triangle
316.0,6.0,1.0,1.0,1.0,1.0,528.043253000078,2.0,1.0,phase_1,,,,,,,,,,,,,magenta,cross
0.0,5.0,0.0,1.0,1.0,1.0,370.8410400001867,2.0,1.0,phase_1,,,,,,,,,,,,,yellow,hexagon
343.0,6.0,1.0,1.0,1.0,1.0,362.8840379999474,2.0,1.0,phase_1,,,,,,,,,,,,,magenta,cross
1303.0,8.0,4.0,1.0,2.0,2.0,370.4440450001129,2.0,1.0,phase_1,,,,,,,,,,,,,orange,triangle
330.0,6.0,1.0,1.0,4.0,4.0,439.4097939998573,2.0,1.0,phase_1,,,,,,,,,,,,,magenta,cross
326.0,6.0,1.0,1.0,4.0,4.0,380.1694259998385,2.0,1.0,phase_1,,,,,,,,,,,,,magenta,cross
0.0,6.0,0.0,1.0,3.0,3.0,427.285220000158,2.0,1.0,phase_1,,,,,,,,,,,,,magenta,cross
1290.0,8.0,4.0,1.0,2.0,2.0,420.6116090001615,2.0,1.0,phase_1,,,,,,,,,,,,,orange,triangle
328.0,2.0,1.0,0.0,4.0,4.0,352.1738199999618,2.0,1.0,phase_1,,,,,,,,,,,,,cyan,I
0.0,8.0,0.0,1.0,3.0,3.0,372.0240999998623,2.0,1.0,phase_1,,,,,,,,,,,,,orange,triangle
0.0,2.0,0.0,0.0,3.0,3.0,389.7487379999802,2.0,1.0,phase_1,,,,,,,,,,,,,cyan,I
0.0,1.0,0.0,0.0,4.0,4.0,343.1711309999627,2.0,1.0,phase_1,,,,,,,,,,,,,gray,flipped triangle
302.0,2.0,1.0,0.0,1.0,1.0,462.8060899999582,2.0,1.0,phase_1,,,,,,,,,,,,,cyan,I
165.0,1.0,0.5,0.0,4.0,4.0,381.8899039999905,2.0,1.0,phase_1,,,,,,,,,,,,,gray,flipped triangle
1310.0,8.0,4.0,1.0,2.0,2.0,548.4882279999965,2.0,1.0,phase_1,,,,,,,,,,,,,orange,triangle
0.0,6.0,0.0,1.0,1.0,1.0,528.702734000035,2.0,1.0,phase_1,,,,,,,,,,,,,magenta,cross
653.0,3.0,2.0,0.0,2.0,2.0,556.7964209999445,2.0,2.0,phase_1,,,,,,,,,,,,,white,circle
1303.0,4.0,4.0,0.0,2.0,2.0,490.6133770000451,2.0,1.0,phase_1,,,,,,,,,,,,,green,diamond
0.0,3.0,0.0,0.0,1.0,1.0,435.3623560000415,2.0,1.0,phase_1,,,,,,,,,,,,,white,circle
630.0,3.0,2.0,0.0,2.0,2.0,444.0965249998498,2.0,1.0,phase_1,,,,,,,,,,,,,white,circle
1284.0,8.0,4.0,1.0,4.0,4.0,519.1904509999858,2.0,1.0,phase_1,,,,,,,,,,,,,orange,triangle
0.0,7.0,0.0,1.0,3.0,3.0,418.3104369999455,2.0,1.0,phase_1,,,,,,,,,,,,,blue,square
0.0,3.0,0.0,0.0,3.0,3.0,371.5302489999885,2.0,1.0,phase_1,,,,,,,,,,,,,white,circle
627.0,7.0,2.0,1.0,3.0,3.0,362.4231070000405,2.0,1.0,phase_1,,,,,,,,,,,,,blue,square
626.0,3.0,2.0,0.0,4.0,4.0,566.8916530000843,2.0,1.0,phase_1,,,,,,,,,,,,,white,circle
182.0,5.0,0.5,1.0,4.0,4.0,390.3550970001106,2.0,1.0,phase_1,,,,,,,,,,,,,yellow,hexagon
0.0,1.0,0.0,0.0,2.0,2.0,428.3482409998669,2.0,1.0,phase_1,,,,,,,,,,,,,gray,flipped triangle
349.0,6.0,1.0,1.0,4.0,4.0,520.6214800000453,2.0,1.0,phase_1,,,,,,,,,,,,,magenta,cross
325.0,6.0,1.0,1.0,1.0,1.0,659.0237650002564,2.0,1.0,phase_1,,,,,,,,,,,,,magenta,cross
0.0,3.0,0.0,0.0,4.0,4.0,519.8897910004234,2.0,1.0,phase_1,,,,,,,,,,,,,white,circle
1302.0,8.0,4.0,1.0,4.0,4.0,474.2274219997853,2.0,1.0,phase_1,,,,,,,,,,,,,orange,triangle
177.0,5.0,0.5,1.0,1.0,1.0,585.3668510003445,2.0,1.0,phase_1,,,,,,,,,,,,,yellow,hexagon
665.0,7.0,2.0,1.0,4.0,4.0,474.5079079998504,2.0,1.0,phase_1,,,,,,,,,,,,,blue,square
0.0,5.0,0.0,1.0,3.0,3.0,426.9448599998213,2.0,1.0,phase_1,,,,,,,,,,,,,yellow,hexagon
319.0,2.0,1.0,0.0,2.0,2.0,519.3433900003583,2.0,2.0,phase_1,,,,,,,,,,,,,cyan,I
1318.0,4.0,4.0,0.0,4.0,4.0,446.0995629997342,2.0,1.0,phase_1,,,,,,,,,,,,,green,diamond
0.0,3.0,0.0,0.0,3.0,3.0,417.6673079996362,2.0,1.0,phase_1,,,,,,,,,,,,,white,circle
137.0,5.0,0.5,1.0,3.0,3.0,399.6581999999762,2.0,1.0,phase_1,,,,,,,,,,,,,yellow,hexagon
147.0,1.0,0.5,0.0,4.0,4.0,639.5291229996474,2.0,1.0,phase_1,,,,,,,,,,,,,gray,flipped triangle
153.0,1.0,0.5,0.0,2.0,2.0,389.7762980000152,2.0,1.0,phase_1,,,,,,,,,,,,,gray,flipped triangle
1300.0,4.0,4.0,0.0,1.0,1.0,472.807677000219,2.0,1.0,phase_1,,,,,,,,,,,,,green,diamond
343.0,2.0,1.0,0.0,3.0,3.0,343.5729170000741,2.0,1.0,phase_1,,,,,,,,,,,,,cyan,I
142.0,1.0,0.5,0.0,4.0,4.0,398.9504050000505,2.0,1.0,phase_1,,,,,,,,,,,,,gray,flipped triangle
340.0,6.0,1.0,1.0,3.0,3.0,379.2726589999802,2.0,1.0,phase_1,,,,,,,,,,,,,magenta,cross
184.0,1.0,0.5,0.0,1.0,1.0,380.2247700000407,2.0,1.0,phase_1,,,,,,,,,,,,,gray,flipped triangle
176.0,1.0,0.5,0.0,2.0,2.0,399.1932550002275,2.0,1.0,phase_1,,,,,,,,,,,,,gray,flipped triangle
344.0,2.0,1.0,0.0,2.0,2.0,370.8191079999778,2.0,1.0,phase_1,,,,,,,,,,,,,cyan,I
0.0,4.0,0.0,0.0,2.0,2.0,361.39948500022,2.0,1.0,phase_1,,,,,,,,,,,,,green,diamond
0.0,4.0,0.0,0.0,4.0,4.0,390.5483500002447,2.0,1.0,phase_1,,,,,,,,,,,,,green,diamond
0.0,5.0,0.0,1.0,4.0,4.0,342.6109789998008,2.0,1.0,phase_1,,,,,,,,,,,,,yellow,hexagon
646.0,7.0,2.0,1.0,3.0,3.0,333.0610520001755,2.0,1.0,phase_1,,,,,,,,,,,,,blue,square
1321.0,8.0,4.0,1.0,2.0,2.0,325.8246989998952,2.0,1.0,phase_1,,,,,,,,,,,,,orange,triangle
317.0,2.0,1.0,0.0,4.0,4.0,334.0074090001508,2.0,1.0,phase_1,,,,,,,,,,,,,cyan,I
154.0,5.0,0.5,1.0,1.0,1.0,574.0632970000661,2.0,1.0,phase_1,,,,,,,,,,,,,yellow,hexagon
306.0,2.0,1.0,0.0,2.0,2.0,380.0781150002876,2.0,1.0,phase_1,,,,,,,,,,,,,cyan,I
182.0,1.0,0.5,0.0,2.0,2.0,390.1130129997909,2.0,1.0,phase_1,,,,,,,,,,,,,gray,flipped triangle
0.0,1.0,0.0,0.0,4.0,4.0,380.083476999971,2.0,1.0,phase_1,,,,,,,,,,,,,gray,flipped triangle
300.0,2.0,1.0,0.0,2.0,2.0,446.0036629998285,2.0,1.0,phase_1,,,,,,,,,,,,,cyan,I
634.0,7.0,2.0,1.0,3.0,3.0,325.8653309999317,2.0,1.0,phase_1,,,,,,,,,,,,,blue,square
1305.0,8.0,4.0,1.0,2.0,2.0,547.9614810001294,2.0,1.0,phase_1,,,,,,,,,,,,,orange,triangle
330.0,2.0,1.0,0.0,2.0,2.0,502.8069989998585,2.0,1.0,phase_1,,,,,,,,,,,,,cyan,I
0.0,6.0,0.0,1.0,1.0,1.0,463.1398680003258,3.0,1.0,phase_1,,,,,,,,,,,,,magenta,cross
672.0,7.0,2.0,1.0,1.0,1.0,436.4943330001551,3.0,1.0,phase_1,,,,,,,,,,,,,blue,square
630.0,7.0,2.0,1.0,3.0,3.0,398.6084269999992,3.0,1.0,phase_1,,,,,,,,,,,,,blue,square
0.0,2.0,0.0,0.0,2.0,2.0,360.9387309998055,3.0,1.0,phase_1,,,,,,,,,,,,,cyan,I
306.0,6.0,1.0,1.0,4.0,4.0,390.2383770000597,3.0,1.0,phase_1,,,,,,,,,,,,,magenta,cross
0.0,7.0,0.0,1.0,1.0,1.0,486.156559000392,3.0,1.0,phase_1,,,,,,,,,,,,,blue,square
139.0,1.0,0.5,0.0,1.0,1.0,511.1914290000641,3.0,1.0,phase_1,,,,,,,,,,,,,gray,flipped triangle
328.0,6.0,1.0,1.0,4.0,4.0,436.4677809999193,3.0,1.0,phase_1,,,,,,,,,,,,,magenta,cross
1314.0,4.0,4.0,0.0,3.0,3.0,370.8351830000538,3.0,1.0,phase_1,,,,,,,,,,,,,green,diamond
1319.0,8.0,4.0,1.0,3.0,3.0,325.6606159998227,3.0,1.0,phase_1,,,,,,,,,,,,,orange,triangle
1280.0,4.0,4.0,0.0,3.0,3.0,315.2783430000454,3.0,1.0,phase_1,,,,,,,,,,,,,green,diamond
651.0,7.0,2.0,1.0,1.0,1.0,438.6994670003332,3.0,1.0,phase_1,,,,,,,,,,,,,blue,square
637.0,3.0,2.0,0.0,1.0,1.0,362.6857310000559,3.0,1.0,phase_1,,,,,,,,,,,,,white,circle
1300.0,8.0,4.0,1.0,3.0,3.0,334.8151200002576,3.0,1.0,phase_1,,,,,,,,,,,,,orange,triangle
151.0,5.0,0.5,1.0,2.0,2.0,389.1541299999517,3.0,1.0,phase_1,,,,,,,,,,,,,yellow,hexagon
338.0,6.0,1.0,1.0,3.0,3.0,361.4384699999391,3.0,1.0,phase_1,,,,,,,,,,,,,magenta,cross
0.0,3.0,0.0,0.0,1.0,1.0,371.7141189999893,3.0,1.0,phase_1,,,,,,,,,,,,,white,circle
170.0,5.0,0.5,1.0,4.0,4.0,502.7280559997962,3.0,1.0,phase_1,,,,,,,,,,,,,yellow,hexagon
0.0,1.0,0.0,0.0,2.0,2.0,362.1491190001507,3.0,1.0,phase_1,,,,,,,,,,,,,gray,flipped triangle
149.0,5.0,0.5,1.0,1.0,1.0,335.2574989999084,3.0,1.0,phase_1,,,,,,,,,,,,,yellow,hexagon
304.0,6.0,1.0,1.0,3.0,3.0,324.4343159999516,3.0,1.0,phase_1,,,,,,,,,,,,,magenta,cross
647.0,3.0,2.0,0.0,3.0,3.0,390.6020269996588,3.0,1.0,phase_1,,,,,,,,,,,,,white,circle
0.0,3.0,0.0,0.0,4.0,4.0,380.6176389998654,3.0,1.0,phase_1,,,,,,,,,,,,,white,circle
0.0,3.0,0.0,0.0,1.0,1.0,343.5766210000111,3.0,1.0,phase_1,,,,,,,,,,,,,white,circle
1275.0,8.0,4.0,1.0,2.0,2.0,379.1479879996586,3.0,1.0,phase_1,,,,,,,,,,,,,orange,triangle
0.0,1.0,0.0,0.0,1.0,1.0,463.6539160001121,3.0,1.0,phase_1,,,,,,,,,,,,,gray,flipped triangle
326.0,2.0,1.0,0.0,1.0,1.0,388.9905959999851,3.0,1.0,phase_1,,,,,,,,,,,,,cyan,I
1279.0,8.0,4.0,1.0,1.0,1.0,379.9814369999694,3.0,1.0,phase_1,,,,,,,,,,,,,orange,triangle
1318.0,8.0,4.0,1.0,4.0,4.0,389.2421110003852,3.0,1.0,phase_1,,,,,,,,,,,,,orange,triangle
1286.0,4.0,4.0,0.0,2.0,2.0,528.318426000169,3.0,1.0,phase_1,,,,,,,,,,,,,green,diamond
665.0,7.0,2.0,1.0,2.0,2.0,371.0609640002076,3.0,1.0,phase_1,,,,,,,,,,,,,blue,square
1285.0,4.0,4.0,0.0,4.0,4.0,417.0021539998743,3.0,1.0,phase_1,,,,,,,,,,,,,green,diamond
0.0,2.0,0.0,0.0,2.0,2.0,372.2856159997718,3.0,1.0,phase_1,,,,,,,,,,,,,cyan,I
1290.0,8.0,4.0,1.0,3.0,3.0,344.2050829999061,3.0,1.0,phase_1,,,,,,,,,,,,,orange,triangle
0.0,7.0,0.0,1.0,2.0,2.0,427.6071209997099,3.0,1.0,phase_1,,,,,,,,,,,,,blue,square
180.0,1.0,0.5,0.0,3.0,3.0,334.3729009998242,3.0,1.0,phase_1,,,,,,,,,,,,,gray,flipped triangle
176.0,5.0,0.5,1.0,3.0,3.0,380.4255549998743,3.0,1.0,phase_1,,,,,,,,,,,,,yellow,hexagon
642.0,7.0,2.0,1.0,3.0,3.0,334.9453729997549,3.0,1.0,phase_1,,,,,,,,,,,,,blue,square
672.0,3.0,2.0,0.0,4.0,4.0,406.9158490001427,3.0,1.0,phase_1,,,,,,,,,,,,,white,circle
638.0,7.0,2.0,1.0,4.0,4.0,362.4339429998144,3.0,1.0,phase_1,,,,,,,,,,,,,blue,square
1316.0,8.0,4.0,1.0,4.0,4.0,351.6540440000426,3.0,1.0,phase_1,,,,,,,,,,,,,orange,triangle
137.0,1.0,0.5,0.0,3.0,3.0,369.7872070001722,3.0,1.0,phase_1,,,,,,,,,,,,,gray,flipped triangle
646.0,3.0,2.0,0.0,4.0,4.0,555.511905000003,3.0,1.0,phase_1,,,,,,,,,,,,,white,circle
1278.0,4.0,4.0,0.0,4.0,4.0,490.8251940000809,3.0,1.0,phase_1,,,,,,,,,,,,,green,diamond
143.0,5.0,0.5,1.0,3.0,3.0,528.5797779997665,3.0,1.0,phase_1,,,,,,,,,,,,,yellow,hexagon
1316.0,8.0,4.0,1.0,3.0,3.0,513.8002680000682,3.0,1.0,phase_1,,,,,,,,,,,,,orange,triangle
630.0,3.0,2.0,0.0,4.0,4.0,416.9941830000425,3.0,1.0,phase_1,,,,,,,,,,,,,white,circle
1299.0,4.0,4.0,0.0,4.0,4.0,499.7990290003145,3.0,1.0,phase_1,,,,,,,,,,,,,green,diamond
152.0,1.0,0.5,0.0,2.0,2.0,380.7634499999039,3.0,1.0,phase_1,,,,,,,,,,,,,gray,flipped triangle
0.0,7.0,0.0,1.0,2.0,2.0,354.0991499999109,3.0,1.0,phase_1,,,,,,,,,,,,,blue,square
337.0,6.0,1.0,1.0,3.0,3.0,287.8798509996159,3.0,1.0,phase_1,,,,,,,,,,,,,magenta,cross
322.0,6.0,1.0,1.0,4.0,4.0,362.0331619999888,3.0,1.0,phase_1,,,,,,,,,,,,,magenta,cross
321.0,6.0,1.0,1.0,4.0,4.0,417.307382999752,3.0,2.0,phase_1,,,,,,,,,,,,,magenta,cross
328.0,6.0,1.0,1.0,4.0,4.0,360.6567920000998,3.0,1.0,phase_1,,,,,,,,,,,,,magenta,cross
143.0,1.0,0.5,0.0,1.0,1.0,786.5846750000856,3.0,1.0,phase_1,,,,,,,,,,,,,gray,flipped triangle
0.0,8.0,0.0,1.0,4.0,4.0,407.7829750003729,3.0,1.0,phase_1,,,,,,,,,,,,,orange,triangle
0.0,7.0,0.0,1.0,2.0,2.0,574.7200850000809,3.0,1.0,phase_1,,,,,,,,,,,,,blue,square
0.0,3.0,0.0,0.0,4.0,4.0,639.2502260000583,3.0,1.0,phase_1,,,,,,,,,,,,,white,circle
630.0,7.0,2.0,1.0,4.0,4.0,491.7048259999319,3.0,1.0,phase_1,,,,,,,,,,,,,blue,square
1306.0,4.0,4.0,0.0,2.0,2.0,518.210014000033,3.0,1.0,phase_1,,,,,,,,,,,,,green,diamond
1309.0,8.0,4.0,1.0,4.0,4.0,397.7513089998865,3.0,1.0,phase_1,,,,,,,,,,,,,orange,triangle
178.0,5.0,0.5,1.0,3.0,3.0,360.6897750000826,3.0,1.0,phase_1,,,,,,,,,,,,,yellow,hexagon
305.0,2.0,1.0,0.0,1.0,1.0,592.6884249997784,3.0,1.0,phase_1,,,,,,,,,,,,,cyan,I
187.0,1.0,0.5,0.0,1.0,1.0,841.9433290000597,3.0,1.0,phase_1,,,,,,,,,,,,,gray,flipped triangle
182.0,1.0,0.5,0.0,4.0,4.0,435.0174430001061,3.0,1.0,phase_1,,,,,,,,,,,,,gray,flipped triangle
140.0,1.0,0.5,0.0,3.0,3.0,407.4986499999795,3.0,2.0,phase_1,,,,,,,,,,,,,gray,flipped triangle
0.0,5.0,0.0,1.0,3.0,3.0,371.082015000411,3.0,1.0,phase_1,,,,,,,,,,,,,yellow,hexagon
0.0,7.0,0.0,1.0,3.0,3.0,351.9925830000829,3.0,1.0,phase_1,,,,,,,,,,,,,blue,square
0.0,1.0,0.0,0.0,3.0,3.0,352.3185290000583,3.0,1.0,phase_1,,,,,,,,,,,,,gray,flipped triangle
652.0,7.0,2.0,1.0,3.0,3.0,352.0431960000678,3.0,1.0,phase_1,,,,,,,,,,,,,blue,square
170.0,1.0,0.5,0.0,4.0,4.0,371.1254750000989,3.0,1.0,phase_1,,,,,,,,,,,,,gray,flipped triangle
0.0,2.0,0.0,0.0,4.0,4.0,371.1334139998143,3.0,1.0,phase_1,,,,,,,,,,,,,cyan,I
633.0,7.0,2.0,1.0,2.0,2.0,481.6253730000426,3.0,1.0,phase_1,,,,,,,,,,,,,blue,square
344.0,6.0,1.0,1.0,1.0,1.0,529.6552360000533,3.0,1.0,phase_1,,,,,,,,,,,,,magenta,cross
0.0,8.0,0.0,1.0,3.0,3.0,352.9891060002228,3.0,1.0,phase_1,,,,,,,,,,,,,orange,triangle
1293.0,4.0,4.0,0.0,1.0,1.0,612.2419909997916,3.0,1.0,phase_1,,,,,,,,,,,,,green,diamond
157.0,5.0,0.5,1.0,1.0,1.0,416.7163920001258,3.0,1.0,phase_1,,,,,,,,,,,,,yellow,hexagon
659.0,7.0,2.0,1.0,1.0,1.0,426.7850589999398,3.0,1.0,phase_1,,,,,,,,,,,,,blue,square
670.0,3.0,2.0,0.0,1.0,1.0,409.5479299999169,3.0,1.0,phase_1,,,,,,,,,,,,,white,circle
649.0,3.0,2.0,0.0,3.0,3.0,380.1849179999408,3.0,1.0,phase_1,,,,,,,,,,,,,white,circle
626.0,7.0,2.0,1.0,3.0,3.0,362.8476039998531,3.0,1.0,phase_1,,,,,,,,,,,,,blue,square
300.0,6.0,1.0,1.0,2.0,2.0,426.1447719995885,3.0,1.0,phase_1,,,,,,,,,,,,,magenta,cross
306.0,2.0,1.0,0.0,2.0,2.0,444.547706999856,3.0,1.0,phase_1,,,,,,,,,,,,,cyan,I
338.0,2.0,1.0,0.0,2.0,2.0,380.043569999998,3.0,1.0,phase_1,,,,,,,,,,,,,cyan,I
670.0,7.0,2.0,1.0,1.0,1.0,428.1088259999706,3.0,2.0,phase_1,,,,,,,,,,,,,blue,square
630.0,3.0,2.0,0.0,4.0,4.0,370.0448300000971,3.0,1.0,phase_1,,,,,,,,,,,,,white,circle
642.0,3.0,2.0,0.0,2.0,2.0,648.2458400000723,3.0,1.0,phase_1,,,,,,,,,,,,,white,circle
158.0,5.0,0.5,1.0,4.0,4.0,437.6099290002457,3.0,1.0,phase_1,,,,,,,,,,,,,yellow,hexagon
1275.0,4.0,4.0,0.0,3.0,3.0,399.0163990001747,3.0,1.0,phase_1,,,,,,,,,,,,,green,diamond
637.0,7.0,2.0,1.0,2.0,2.0,398.8450780002495,3.0,1.0,phase_1,,,,,,,,,,,,,blue,square
338.0,2.0,1.0,0.0,1.0,1.0,538.0764739998085,3.0,1.0,phase_1,,,,,,,,,,,,,cyan,I
156.0,5.0,0.5,1.0,4.0,4.0,361.8066869998984,3.0,1.0,phase_1,,,,,,,,,,,,,yellow,hexagon
328.0,2.0,1.0,0.0,3.0,3.0,352.6704800001425,3.0,1.0,phase_1,,,,,,,,,,,,,cyan,I
628.0,3.0,2.0,0.0,3.0,3.0,352.4967690000267,3.0,1.0,phase_1,,,,,,,,,,,,,white,circle
341.0,2.0,1.0,0.0,3.0,3.0,343.7382000001889,3.0,1.0,phase_1,,,,,,,,,,,,,cyan,I
1295.0,8.0,4.0,1.0,1.0,1.0,555.0811289999729,3.0,1.0,phase_1,,,,,,,,,,,,,orange,triangle
139.0,5.0,0.5,1.0,1.0,1.0,443.8617910000175,3.0,1.0,phase_1,,,,,,,,,,,,,yellow,hexagon
307.0,2.0,1.0,0.0,1.0,1.0,418.6856490000537,3.0,1.0,phase_1,,,,,,,,,,,,,cyan,I
632.0,3.0,2.0,0.0,3.0,3.0,361.0114429998248,3.0,1.0,phase_1,,,,,,,,,,,,,white,circle
660.0,7.0,2.0,1.0,2.0,2.0,573.2916550000482,3.0,1.0,phase_1,,,,,,,,,,,,,blue,square
138.0,1.0,0.5,0.0,1.0,1.0,426.518254000257,4.0,1.0,phase_1,,,,,,,,,,,,,gray,flipped triangle
642.0,3.0,2.0,0.0,4.0,4.0,371.1350480002693,4.0,1.0,phase_1,,,,,,,,,,,,,white,circle
1305.0,4.0,4.0,0.0,4.0,4.0,342.6722949998293,4.0,1.0,phase_1,,,,,,,,,,,,,green,diamond
1283.0,8.0,4.0,1.0,3.0,3.0,389.5240100000592,4.0,1.0,phase_1,,,,,,,,,,,,,orange,triangle
0.0,4.0,0.0,0.0,3.0,3.0,362.0726459998877,4.0,1.0,phase_1,,,,,,,,,,,,,green,diamond
321.0,2.0,1.0,0.0,4.0,4.0,417.5481299998864,4.0,1.0,phase_1,,,,,,,,,,,,,cyan,I
181.0,1.0,0.5,0.0,1.0,1.0,435.4086190000998,4.0,1.0,phase_1,,,,,,,,,,,,,gray,flipped triangle
305.0,2.0,1.0,0.0,2.0,2.0,342.8725019998637,4.0,1.0,phase_1,,,,,,,,,,,,,cyan,I
659.0,3.0,2.0,0.0,4.0,4.0,398.5744409997096,4.0,1.0,phase_1,,,,,,,,,,,,,white,circle
166.0,5.0,0.5,1.0,2.0,2.0,407.572617000369,4.0,1.0,phase_1,,,,,,,,,,,,,yellow,hexagon
1314.0,8.0,4.0,1.0,1.0,1.0,417.3560740000539,4.0,1.0,phase_1,,,,,,,,,,,,,orange,triangle
651.0,7.0,2.0,1.0,2.0,2.0,379.9796820003394,4.0,1.0,phase_1,,,,,,,,,,,,,blue,square
155.0,1.0,0.5,0.0,3.0,3.0,602.5094169999647,4.0,1.0,phase_1,,,,,,,,,,,,,gray,flipped triangle
669.0,7.0,2.0,1.0,4.0,4.0,510.0358139998207,4.0,1.0,phase_1,,,,,,,,,,,,,blue,square
0.0,5.0,0.0,1.0,2.0,2.0,397.8644389999317,4.0,1.0,phase_1,,,,,,,,,,,,,yellow,hexagon
158.0,1.0,0.5,0.0,1.0,1.0,610.9457809998275,4.0,1.0,phase_1,,,,,,,,,,,,,gray,flipped triangle
675.0,7.0,2.0,1.0,4.0,4.0,407.8138859999853,4.0,1.0,phase_1,,,,,,,,,,,,,blue,square
1318.0,8.0,4.0,1.0,3.0,3.0,362.9942190000292,4.0,1.0,phase_1,,,,,,,,,,,,,orange,triangle
148.0,5.0,0.5,1.0,2.0,2.0,582.6334359999237,4.0,2.0,phase_1,,,,,,,,,,,,,yellow,hexagon
1303.0,8.0,4.0,1.0,1.0,1.0,445.5572290003147,4.0,1.0,phase_1,,,,,,,,,,,,,orange,triangle
326.0,2.0,1.0,0.0,3.0,3.0,408.636880999893,4.0,1.0,phase_1,,,,,,,,,,,,,cyan,I
175.0,1.0,0.5,0.0,4.0,4.0,399.8333479999019,4.0,1.0,phase_1,,,,,,,,,,,,,gray,flipped triangle
1320.0,4.0,4.0,0.0,1.0,1.0,557.0313769999302,4.0,1.0,phase_1,,,,,,,,,,,,,green,diamond
155.0,5.0,0.5,1.0,2.0,2.0,501.9960380000157,4.0,1.0,phase_1,,,,,,,,,,,,,yellow,hexagon
0.0,7.0,0.0,1.0,4.0,4.0,390.2937820002989,4.0,1.0,phase_1,,,,,,,,,,,,,blue,square
1302.0,4.0,4.0,0.0,3.0,3.0,444.5542369999202,4.0,1.0,phase_1,,,,,,,,,,,,,green,diamond
187.0,5.0,0.5,1.0,4.0,4.0,436.9021740003518,4.0,1.0,phase_1,,,,,,,,,,,,,yellow,hexagon
661.0,7.0,2.0,1.0,3.0,3.0,483.375920999606,4.0,1.0,phase_1,,,,,,,,,,,,,blue,square
167.0,5.0,0.5,1.0,4.0,4.0,389.7925890000806,4.0,1.0,phase_1,,,,,,,,,,,,,yellow,hexagon
1283.0,4.0,4.0,0.0,4.0,4.0,407.3256800002127,4.0,1.0,phase_1,,,,,,,,,,,,,green,diamond
148.0,1.0,0.5,0.0,3.0,3.0,400.0739289999728,4.0,1.0,phase_1,,,,,,,,,,,,,gray,flipped triangle
346.0,6.0,1.0,1.0,4.0,4.0,362.6520189995972,4.0,1.0,phase_1,,,,,,,,,,,,,magenta,cross
0.0,4.0,0.0,0.0,1.0,1.0,667.4027729995942,4.0,3.0,phase_1,,,,,,,,,,,,,green,diamond
0.0,8.0,0.0,1.0,1.0,1.0,537.6976779998586,4.0,1.0,phase_1,,,,,,,,,,,,,orange,triangle
1280.0,8.0,4.0,1.0,1.0,1.0,528.259184000035,4.0,1.0,phase_1,,,,,,,,,,,,,orange,triangle
304.0,2.0,1.0,0.0,4.0,4.0,389.8532620000878,4.0,1.0,phase_1,,,,,,,,,,,,,cyan,I
1277.0,4.0,4.0,0.0,4.0,4.0,436.919379000301,4.0,1.0,phase_1,,,,,,,,,,,,,green,diamond
632.0,7.0,2.0,1.0,2.0,2.0,490.2406640003391,4.0,1.0,phase_1,,,,,,,,,,,,,blue,square
174.0,1.0,0.5,0.0,2.0,2.0,370.845675000055,4.0,1.0,phase_1,,,,,,,,,,,,,gray,flipped triangle
1314.0,8.0,4.0,1.0,1.0,1.0,576.1392230001547,4.0,1.0,phase_1,,,,,,,,,,,,,orange,triangle
653.0,7.0,2.0,1.0,2.0,2.0,471.3021219999973,4.0,1.0,phase_1,,,,,,,,,,,,,blue,square
665.0,3.0,2.0,0.0,4.0,4.0,565.664643999753,4.0,1.0,phase_1,,,,,,,,,,,,,white,circle
316.0,2.0,1.0,0.0,1.0,1.0,445.460149000155,4.0,1.0,phase_1,,,,,,,,,,,,,cyan,I
0.0,8.0,0.0,1.0,1.0,1.0,361.7623009999988,4.0,1.0,phase_1,,,,,,,,,,,,,orange,triangle
0.0,8.0,0.0,1.0,1.0,1.0,370.8017189997008,4.0,1.0,phase_1,,,,,,,,,,,,,orange,triangle
312.0,2.0,1.0,0.0,3.0,3.0,380.3649069996027,4.0,1.0,phase_1,,,,,,,,,,,,,cyan,I
0.0,2.0,0.0,0.0,3.0,3.0,464.0637249999599,4.0,1.0,phase_1,,,,,,,,,,,,,cyan,I
627.0,3.0,2.0,0.0,3.0,3.0,396.8988320002609,4.0,1.0,phase_1,,,,,,,,,,,,,white,circle
0.0,6.0,0.0,1.0,2.0,2.0,415.6191619999845,4.0,1.0,phase_1,,,,,,,,,,,,,magenta,cross
1312.0,4.0,4.0,0.0,4.0,4.0,389.5216870000695,4.0,1.0,phase_1,,,,,,,,,,,,,green,diamond
1316.0,4.0,4.0,0.0,3.0,3.0,344.0891919999558,4.0,1.0,phase_1,,,,,,,,,,,,,green,diamond
1278.0,8.0,4.0,1.0,4.0,4.0,379.1296399999737,4.0,1.0,phase_1,,,,,,,,,,,,,orange,triangle
639.0,7.0,2.0,1.0,2.0,2.0,390.1396229998681,4.0,1.0,phase_1,,,,,,,,,,,,,blue,square
1310.0,4.0,4.0,0.0,2.0,2.0,379.4518650001919,4.0,1.0,phase_1,,,,,,,,,,,,,green,diamond
336.0,6.0,1.0,1.0,3.0,3.0,352.5728340000569,4.0,1.0,phase_1,,,,,,,,,,,,,magenta,cross
147.0,5.0,0.5,1.0,3.0,3.0,343.2201010000426,4.0,1.0,phase_1,,,,,,,,,,,,,yellow,hexagon
333.0,2.0,1.0,0.0,1.0,1.0,508.92155099973024,4.0,1.0,phase_1,,,,,,,,,,,,,cyan,I
0.0,8.0,0.0,1.0,3.0,3.0,361.3032560001556,4.0,1.0,phase_1,,,,,,,,,,,,,orange,triangle
0.0,7.0,0.0,1.0,2.0,2.0,638.5807470001055,4.0,1.0,phase_1,,,,,,,,,,,,,blue,square
659.0,7.0,2.0,1.0,3.0,3.0,593.0797390001317,4.0,1.0,phase_1,,,,,,,,,,,,,blue,square
1310.0,4.0,4.0,0.0,1.0,1.0,407.116201000008,4.0,1.0,phase_1,,,,,,,,,,,,,green,diamond
305.0,6.0,1.0,1.0,1.0,1.0,438.393946999895,4.0,1.0,phase_1,,,,,,,,,,,,,magenta,cross
177.0,1.0,0.5,0.0,3.0,3.0,343.8649970003098,4.0,1.0,phase_1,,,,,,,,,,,,,gray,flipped triangle
649.0,7.0,2.0,1.0,4.0,4.0,499.9632590001965,4.0,1.0,phase_1,,,,,,,,,,,,,blue,square
153.0,1.0,0.5,0.0,4.0,4.0,463.4247039998627,4.0,1.0,phase_1,,,,,,,,,,,,,gray,flipped triangle
639.0,3.0,2.0,0.0,2.0,2.0,436.9612709997454,4.0,1.0,phase_1,,,,,,,,,,,,,white,circle
178.0,1.0,0.5,0.0,3.0,3.0,557.0028500001172,4.0,1.0,phase_1,,,,,,,,,,,,,gray,flipped triangle
1309.0,4.0,4.0,0.0,1.0,1.0,465.8240769999793,4.0,1.0,phase_1,,,,,,,,,,,,,green,diamond
346.0,2.0,1.0,0.0,3.0,3.0,435.4409729999133,4.0,1.0,phase_1,,,,,,,,,,,,,cyan,I
180.0,5.0,0.5,1.0,3.0,3.0,408.3302130002266,4.0,1.0,phase_1,,,,,,,,,,,,,yellow,hexagon
171.0,5.0,0.5,1.0,2.0,2.0,583.9897689997997,4.0,1.0,phase_1,,,,,,,,,,,,,yellow,hexagon
630.0,7.0,2.0,1.0,4.0,4.0,390.1944320000439,4.0,1.0,phase_1,,,,,,,,,,,,,blue,square
0.0,2.0,0.0,0.0,3.0,3.0,390.2882729998964,4.0,1.0,phase_1,,,,,,,,,,,,,cyan,I
1290.0,4.0,4.0,0.0,3.0,3.0,389.9074079999991,4.0,1.0,phase_1,,,,,,,,,,,,,green,diamond
315.0,2.0,1.0,0.0,4.0,4.0,473.3371219999753,4.0,1.0,phase_1,,,,,,,,,,,,,cyan,I
313.0,6.0,1.0,1.0,3.0,3.0,879.5460449996426,4.0,1.0,phase_1,,,,,,,,,,,,,magenta,cross
0.0,6.0,0.0,1.0,3.0,3.0,464.2179209999995,4.0,1.0,phase_1,,,,,,,,,,,,,magenta,cross
652.0,3.0,2.0,0.0,3.0,3.0,484.9111190001167,4.0,1.0,phase_1,,,,,,,,,,,,,white,circle
0.0,2.0,0.0,0.0,1.0,1.0,435.4422420001356,4.0,1.0,phase_1,,,,,,,,,,,,,cyan,I
349.0,2.0,1.0,0.0,4.0,4.0,425.7450629997947,4.0,2.0,phase_1,,,,,,,,,,,,,cyan,I
347.0,6.0,1.0,1.0,2.0,2.0,398.6416640000243,4.0,1.0,phase_1,,,,,,,,,,,,,magenta,cross
333.0,6.0,1.0,1.0,1.0,1.0,482.1240040000702,4.0,1.0,phase_1,,,,,,,,,,,,,magenta,cross
174.0,5.0,0.5,1.0,2.0,2.0,472.6763550002033,4.0,1.0,phase_1,,,,,,,,,,,,,yellow,hexagon
651.0,3.0,2.0,0.0,1.0,1.0,455.9054420001303,4.0,1.0,phase_1,,,,,,,,,,,,,white,circle
167.0,1.0,0.5,0.0,1.0,1.0,392.3984389998622,4.0,1.0,phase_1,,,,,,,,,,,,,gray,flipped triangle
182.0,5.0,0.5,1.0,2.0,2.0,703.6037729999407,4.0,1.0,phase_1,,,,,,,,,,,,,yellow,hexagon
642.0,7.0,2.0,1.0,3.0,3.0,360.700813999756,4.0,1.0,phase_1,,,,,,,,,,,,,blue,square
650.0,3.0,2.0,0.0,1.0,1.0,455.3104050000911,4.0,1.0,phase_1,,,,,,,,,,,,,white,circle
650.0,7.0,2.0,1.0,2.0,2.0,612.1147899998505,4.0,1.0,phase_1,,,,,,,,,,,,,blue,square
156.0,1.0,0.5,0.0,3.0,3.0,379.2529719999038,4.0,1.0,phase_1,,,,,,,,,,,,,gray,flipped triangle
318.0,2.0,1.0,0.0,2.0,2.0,436.3729879996754,4.0,1.0,phase_1,,,,,,,,,,,,,cyan,I
149.0,1.0,0.5,0.0,2.0,2.0,399.4242779999695,4.0,1.0,phase_1,,,,,,,,,,,,,gray,flipped triangle
1297.0,4.0,4.0,0.0,1.0,1.0,463.0561789999774,4.0,1.0,phase_1,,,,,,,,,,,,,green,diamond
0.0,1.0,0.0,0.0,1.0,1.0,371.0831779999353,4.0,1.0,phase_1,,,,,,,,,,,,,gray,flipped triangle
312.0,6.0,1.0,1.0,3.0,3.0,338.3455749999484,4.0,1.0,phase_1,,,,,,,,,,,,,magenta,cross
139.0,5.0,0.5,1.0,3.0,3.0,352.4461370002427,4.0,1.0,phase_1,,,,,,,,,,,,,yellow,hexagon
0.0,7.0,0.0,1.0,3.0,3.0,380.7397860000492,4.0,1.0,phase_1,,,,,,,,,,,,,blue,square
183.0,5.0,0.5,1.0,1.0,1.0,444.6014009999999,4.0,1.0,phase_1,,,,,,,,,,,,,yellow,hexagon
0.0,5.0,0.0,1.0,2.0,2.0,519.6252119999372,4.0,1.0,phase_1,,,,,,,,,,,,,yellow,hexagon
672.0,3.0,2.0,0.0,2.0,2.0,400.1016180000079,4.0,1.0,phase_1,,,,,,,,,,,,,white,circle
0.0,6.0,1.0,1.0,6.0,0.0,0.0,1.0,1.0,phase_2,stop,250.0,250.0,4.0,,,,,,,,,magenta,cross
0.0,4.0,4.0,0.0,6.0,6.0,701.946098999997,1.0,1.0,phase_2,go,250.0,300.0,1.0,,,,,,,,,green,diamond
0.0,5.0,0.5,1.0,5.0,0.0,0.0,1.0,1.0,phase_2,stop,250.0,300.0,4.0,,,,,,,,,yellow,hexagon
0.0,3.0,2.0,0.0,6.0,6.0,774.6397129999423,1.0,1.0,phase_2,go,300.0,300.0,1.0,,,,,,,,,white,circle
0.0,8.0,4.0,1.0,5.0,0.0,0.0,1.0,1.0,phase_2,stop,300.0,300.0,4.0,,,,,,,,,orange,triangle
0.0,1.0,0.5,0.0,6.0,6.0,849.7626330004096,1.0,1.0,phase_2,go,350.0,300.0,1.0,,,,,,,,,gray,flipped triangle
0.0,7.0,2.0,1.0,6.0,0.0,0.0,1.0,1.0,phase_2,stop,350.0,300.0,4.0,,,,,,,,,blue,square
0.0,1.0,0.5,0.0,5.0,5.0,767.9086309999548,1.0,1.0,phase_2,go,350.0,350.0,1.0,,,,,,,,,gray,flipped triangle
0.0,4.0,4.0,0.0,5.0,5.0,719.9586480001017,1.0,1.0,phase_2,go,350.0,350.0,1.0,,,,,,,,,green,diamond
0.0,6.0,1.0,1.0,5.0,0.0,0.0,1.0,1.0,phase_2,stop,350.0,350.0,4.0,,,,,,,,,magenta,cross
0.0,4.0,4.0,0.0,5.0,5.0,934.4559979999758,1.0,1.0,phase_2,go,400.0,350.0,1.0,,,,,,,,,green,diamond
0.0,3.0,2.0,0.0,6.0,6.0,764.5676880001702,1.0,1.0,phase_2,go,400.0,350.0,1.0,,,,,,,,,white,circle
0.0,6.0,1.0,1.0,5.0,5.0,766.3944720002291,1.0,1.0,phase_2,go,400.0,350.0,1.0,,,,,,,,,magenta,cross
0.0,2.0,1.0,0.0,6.0,6.0,671.3888670001324,1.0,1.0,phase_2,go,400.0,350.0,1.0,,,,,,,,,cyan,I
0.0,8.0,4.0,1.0,6.0,6.0,728.6033899999893,1.0,1.0,phase_2,go,400.0,350.0,1.0,,,,,,,,,orange,triangle
0.0,5.0,0.5,1.0,5.0,0.0,0.0,1.0,1.0,phase_2,stop,400.0,350.0,4.0,,,,,,,,,yellow,hexagon
0.0,3.0,2.0,0.0,6.0,6.0,655.671681000058,1.0,1.0,phase_2,go,450.0,350.0,1.0,,,,,,,,,white,circle
0.0,8.0,4.0,1.0,6.0,6.0,712.6600830001735,1.0,1.0,phase_2,go,450.0,350.0,1.0,,,,,,,,,orange,triangle
0.0,3.0,2.0,0.0,6.0,6.0,776.6013579998798,1.0,1.0,phase_2,go,450.0,350.0,1.0,,,,,,,,,white,circle
0.0,2.0,1.0,0.0,5.0,5.0,849.8782229999051,1.0,1.0,phase_2,go,450.0,350.0,1.0,,,,,,,,,cyan,I
0.0,8.0,4.0,1.0,6.0,0.0,0.0,1.0,1.0,phase_2,stop,450.0,350.0,4.0,,,,,,,,,orange,triangle
0.0,4.0,4.0,0.0,5.0,5.0,802.987296000083,1.0,1.0,phase_2,go,450.0,400.0,1.0,,,,,,,,,green,diamond
0.0,6.0,1.0,1.0,5.0,0.0,0.0,1.0,1.0,phase_2,stop,450.0,400.0,4.0,,,,,,,,,magenta,cross
0.0,8.0,4.0,1.0,6.0,6.0,793.4285940000336,1.0,1.0,phase_2,go,500.0,400.0,1.0,,,,,,,,,orange,triangle
0.0,1.0,0.5,0.0,6.0,6.0,794.0408070003286,1.0,1.0,phase_2,go,500.0,400.0,1.0,,,,,,,,,gray,flipped triangle
0.0,7.0,2.0,1.0,6.0,0.0,0.0,1.0,1.0,phase_2,stop,500.0,400.0,4.0,,,,,,,,,blue,square
0.0,8.0,4.0,1.0,6.0,0.0,0.0,1.0,1.0,phase_2,stop,500.0,450.0,4.0,,,,,,,,,orange,triangle
0.0,7.0,2.0,1.0,6.0,0.0,0.0,1.0,1.0,phase_2,stop,500.0,500.0,4.0,,,,,,,,,blue,square
0.0,7.0,2.0,1.0,5.0,5.0,933.96444300015,1.0,1.0,phase_2,go,500.0,550.0,1.0,,,,,,,,,blue,square
0.0,5.0,0.5,1.0,5.0,0.0,0.0,1.0,1.0,phase_2,stop,500.0,550.0,4.0,,,,,,,,,yellow,hexagon
0.0,7.0,2.0,1.0,5.0,0.0,0.0,1.0,1.0,phase_2,stop,550.0,550.0,4.0,,,,,,,,,blue,square
0.0,6.0,1.0,1.0,5.0,5.0,701.8344850002904,1.0,1.0,phase_2,go,600.0,550.0,1.0,,,,,,,,,magenta,cross
0.0,6.0,1.0,1.0,6.0,0.0,0.0,1.0,1.0,phase_2,stop,600.0,550.0,4.0,,,,,,,,,magenta,cross
0.0,6.0,1.0,1.0,6.0,0.0,0.0,1.0,1.0,phase_2,stop,600.0,600.0,4.0,,,,,,,,,magenta,cross
0.0,1.0,0.5,0.0,6.0,6.0,747.7532840002823,1.0,1.0,phase_2,go,600.0,650.0,1.0,,,,,,,,,gray,flipped triangle
0.0,2.0,1.0,0.0,5.0,5.0,804.9082850002378,1.0,1.0,phase_2,go,600.0,650.0,1.0,,,,,,,,,cyan,I
0.0,8.0,4.0,1.0,5.0,5.0,762.42455900001,2.0,1.0,phase_2,stop,600.0,650.0,3.0,,,,,,,,,orange,triangle
0.0,4.0,4.0,0.0,5.0,5.0,640.7551760003116,2.0,1.0,phase_2,go,550.0,650.0,1.0,,,,,,,,,green,diamond
0.0,4.0,4.0,0.0,5.0,5.0,512.7035909999904,2.0,1.0,phase_2,go,550.0,650.0,1.0,,,,,,,,,green,diamond
0.0,8.0,4.0,1.0,5.0,0.0,0.0,2.0,1.0,phase_2,stop,550.0,650.0,4.0,,,,,,,,,orange,triangle
0.0,1.0,0.5,0.0,5.0,5.0,876.6844209999363,2.0,1.0,phase_2,go,600.0,650.0,1.0,,,,,,,,,gray,flipped triangle
0.0,5.0,0.5,1.0,6.0,6.0,635.6054859998039,2.0,1.0,phase_2,go,600.0,650.0,1.0,,,,,,,,,yellow,hexagon
0.0,1.0,0.5,0.0,6.0,6.0,689.859284999784,2.0,1.0,phase_2,go,600.0,650.0,1.0,,,,,,,,,gray,flipped triangle
0.0,8.0,4.0,1.0,6.0,6.0,596.6486879997319,2.0,1.0,phase_2,stop,600.0,650.0,3.0,,,,,,,,,orange,triangle
0.0,6.0,1.0,1.0,6.0,0.0,0.0,2.0,1.0,phase_2,stop,600.0,600.0,4.0,,,,,,,,,magenta,cross
0.0,1.0,0.5,0.0,6.0,6.0,812.3713999998472,2.0,1.0,phase_2,go,600.0,650.0,1.0,,,,,,,,,gray,flipped triangle
0.0,3.0,2.0,0.0,5.0,5.0,693.0558539997946,2.0,1.0,phase_2,go,600.0,650.0,1.0,,,,,,,,,white,circle
0.0,7.0,2.0,1.0,5.0,5.0,718.5252839999521,2.0,1.0,phase_2,stop,600.0,650.0,3.0,,,,,,,,,blue,square
0.0,5.0,0.5,1.0,5.0,5.0,792.8195770000457,2.0,1.0,phase_2,go,550.0,650.0,1.0,,,,,,,,,yellow,hexagon
0.0,7.0,2.0,1.0,6.0,0.0,0.0,2.0,1.0,phase_2,stop,550.0,650.0,4.0,,,,,,,,,blue,square
0.0,4.0,4.0,0.0,5.0,5.0,824.1277329998411,2.0,1.0,phase_2,go,550.0,700.0,1.0,,,,,,,,,green,diamond
0.0,8.0,4.0,1.0,5.0,5.0,623.5091690000445,2.0,1.0,phase_2,stop,550.0,700.0,3.0,,,,,,,,,orange,triangle
0.0,6.0,1.0,1.0,6.0,0.0,0.0,2.0,1.0,phase_2,stop,500.0,700.0,4.0,,,,,,,,,magenta,cross
0.0,7.0,2.0,1.0,6.0,6.0,802.1933129998615,2.0,1.0,phase_2,stop,500.0,750.0,3.0,,,,,,,,,blue,square
0.0,5.0,0.5,1.0,5.0,5.0,773.128571000143,2.0,1.0,phase_2,go,500.0,700.0,1.0,,,,,,,,,yellow,hexagon
0.0,1.0,0.5,0.0,5.0,5.0,924.2778149996412,2.0,1.0,phase_2,go,500.0,700.0,1.0,,,,,,,,,gray,flipped triangle
0.0,8.0,4.0,1.0,6.0,0.0,0.0,2.0,1.0,phase_2,stop,500.0,700.0,4.0,,,,,,,,,orange,triangle
0.0,2.0,1.0,0.0,5.0,5.0,960.862428999917,2.0,1.0,phase_2,go,500.0,750.0,1.0,,,,,,,,,cyan,I
0.0,1.0,0.5,0.0,6.0,6.0,819.2859390001104,2.0,1.0,phase_2,go,500.0,750.0,1.0,,,,,,,,,gray,flipped triangle
0.0,7.0,2.0,1.0,6.0,0.0,0.0,2.0,1.0,phase_2,stop,500.0,750.0,4.0,,,,,,,,,blue,square
0.0,2.0,1.0,0.0,5.0,5.0,894.3053789998885,2.0,1.0,phase_2,go,500.0,800.0,1.0,,,,,,,,,cyan,I
0.0,3.0,2.0,0.0,5.0,5.0,904.3930610000644,2.0,1.0,phase_2,go,500.0,800.0,1.0,,,,,,,,,white,circle
0.0,6.0,1.0,1.0,6.0,0.0,0.0,2.0,1.0,phase_2,stop,500.0,800.0,4.0,,,,,,,,,magenta,cross
0.0,5.0,0.5,1.0,5.0,5.0,599.5401239997591,2.0,1.0,phase_2,stop,500.0,850.0,3.0,,,,,,,,,yellow,hexagon
0.0,6.0,1.0,1.0,6.0,0.0,0.0,2.0,1.0,phase_2,stop,450.0,850.0,4.0,,,,,,,,,magenta,cross
0.0,1.0,0.5,0.0,6.0,6.0,739.9146870002369,2.0,1.0,phase_2,go,450.0,900.0,1.0,,,,,,,,,gray,flipped triangle
0.0,2.0,1.0,0.0,6.0,6.0,939.3265909998264,2.0,1.0,phase_2,go,450.0,900.0,1.0,,,,,,,,,cyan,I
0.0,8.0,4.0,1.0,6.0,6.0,781.7331769997509,2.0,1.0,phase_2,go,450.0,900.0,1.0,,,,,,,,,orange,triangle
0.0,4.0,4.0,0.0,6.0,6.0,710.9249369996178,2.0,1.0,phase_2,go,450.0,900.0,1.0,,,,,,,,,green,diamond
0.0,5.0,0.5,1.0,5.0,5.0,785.224535999987,2.0,1.0,phase_2,go,450.0,900.0,1.0,,,,,,,,,yellow,hexagon
0.0,2.0,1.0,0.0,6.0,6.0,663.9680650000628,2.0,1.0,phase_2,go,450.0,900.0,1.0,,,,,,,,,cyan,I
0.0,6.0,1.0,1.0,5.0,0.0,0.0,2.0,1.0,phase_2,stop,450.0,900.0,4.0,,,,,,,,,magenta,cross
0.0,5.0,0.5,1.0,6.0,6.0,512.0573539998077,3.0,1.0,phase_2,stop,500.0,900.0,3.0,,,,,,,,,yellow,hexagon
0.0,1.0,0.5,0.0,6.0,6.0,663.3190069996999,3.0,1.0,phase_2,go,500.0,850.0,1.0,,,,,,,,,gray,flipped triangle
0.0,8.0,4.0,1.0,6.0,6.0,588.0473900001562,3.0,1.0,phase_2,stop,500.0,850.0,3.0,,,,,,,,,orange,triangle
0.0,8.0,4.0,1.0,5.0,5.0,709.3268880003052,3.0,1.0,phase_2,go,500.0,800.0,1.0,,,,,,,,,orange,triangle
0.0,2.0,1.0,0.0,6.0,6.0,663.4764580003321,3.0,1.0,phase_2,go,500.0,800.0,1.0,,,,,,,,,cyan,I
0.0,4.0,4.0,0.0,5.0,5.0,643.6889960000372,3.0,1.0,phase_2,go,500.0,800.0,1.0,,,,,,,,,green,diamond
0.0,6.0,1.0,1.0,5.0,5.0,495.0447410001288,3.0,1.0,phase_2,stop,500.0,800.0,3.0,,,,,,,,,magenta,cross
0.0,6.0,1.0,1.0,5.0,5.0,592.8106649998881,3.0,1.0,phase_2,stop,450.0,800.0,3.0,,,,,,,,,magenta,cross
0.0,4.0,4.0,0.0,6.0,6.0,755.3168629997344,3.0,1.0,phase_2,go,400.0,800.0,1.0,,,,,,,,,green,diamond
0.0,7.0,2.0,1.0,5.0,0.0,0.0,3.0,1.0,phase_2,stop,400.0,800.0,4.0,,,,,,,,,blue,square
0.0,7.0,2.0,1.0,6.0,6.0,923.9084340001682,3.0,1.0,phase_2,go,450.0,800.0,1.0,,,,,,,,,blue,square
0.0,3.0,2.0,0.0,5.0,5.0,906.5097729999252,3.0,1.0,phase_2,go,450.0,800.0,1.0,,,,,,,,,white,circle
0.0,1.0,0.5,0.0,5.0,5.0,783.2777869998608,3.0,1.0,phase_2,go,450.0,800.0,1.0,,,,,,,,,gray,flipped triangle
0.0,7.0,2.0,1.0,5.0,5.0,439.7797689998697,3.0,1.0,phase_2,stop,450.0,800.0,3.0,,,,,,,,,blue,square
0.0,4.0,4.0,0.0,6.0,6.0,782.1382810002433,3.0,1.0,phase_2,go,400.0,800.0,1.0,,,,,,,,,green,diamond
0.0,1.0,0.5,0.0,5.0,5.0,764.7305909999886,3.0,1.0,phase_2,go,400.0,800.0,1.0,,,,,,,,,gray,flipped triangle
0.0,7.0,2.0,1.0,5.0,0.0,0.0,3.0,1.0,phase_2,stop,400.0,800.0,4.0,,,,,,,,,blue,square
0.0,3.0,2.0,0.0,5.0,5.0,635.2914950002742,3.0,1.0,phase_2,go,450.0,800.0,1.0,,,,,,,,,white,circle
0.0,2.0,1.0,0.0,6.0,6.0,618.0725539998093,3.0,1.0,phase_2,go,450.0,800.0,1.0,,,,,,,,,cyan,I
0.0,6.0,1.0,1.0,5.0,0.0,0.0,3.0,1.0,phase_2,stop,450.0,800.0,4.0,,,,,,,,,magenta,cross
0.0,3.0,2.0,0.0,6.0,6.0,509.4964559998516,3.0,1.0,phase_2,go,500.0,800.0,1.0,,,,,,,,,white,circle
0.0,4.0,4.0,0.0,6.0,6.0,711.1656859997311,3.0,1.0,phase_2,go,500.0,800.0,1.0,,,,,,,,,green,diamond
0.0,6.0,1.0,1.0,6.0,6.0,843.9129960001992,3.0,1.0,phase_2,go,500.0,800.0,1.0,,,,,,,,,magenta,cross
0.0,2.0,1.0,0.0,6.0,6.0,821.5955770001528,3.0,1.0,phase_2,go,500.0,800.0,1.0,,,,,,,,,cyan,I
0.0,6.0,1.0,1.0,5.0,0.0,0.0,3.0,1.0,phase_2,stop,500.0,800.0,4.0,,,,,,,,,magenta,cross
0.0,5.0,0.5,1.0,6.0,6.0,550.8252419999735,3.0,1.0,phase_2,stop,550.0,800.0,3.0,,,,,,,,,yellow,hexagon
0.0,5.0,0.5,1.0,6.0,6.0,801.3872809997338,3.0,1.0,phase_2,stop,550.0,750.0,3.0,,,,,,,,,yellow,hexagon
0.0,4.0,4.0,0.0,5.0,5.0,793.4273230002873,3.0,1.0,phase_2,go,550.0,700.0,1.0,,,,,,,,,green,diamond
0.0,2.0,1.0,0.0,5.0,5.0,720.3005249998569,3.0,1.0,phase_2,go,550.0,700.0,1.0,,,,,,,,,cyan,I
0.0,6.0,1.0,1.0,5.0,5.0,642.1639870000035,3.0,1.0,phase_2,stop,550.0,700.0,3.0,,,,,,,,,magenta,cross
0.0,1.0,0.5,0.0,6.0,6.0,671.2466949998088,3.0,1.0,phase_2,go,500.0,700.0,1.0,,,,,,,,,gray,flipped triangle
0.0,6.0,1.0,1.0,6.0,6.0,812.1713870000349,3.0,1.0,phase_2,stop,500.0,700.0,3.0,,,,,,,,,magenta,cross
0.0,6.0,1.0,1.0,6.0,0.0,0.0,3.0,1.0,phase_2,stop,500.0,650.0,4.0,,,,,,,,,magenta,cross
0.0,3.0,2.0,0.0,5.0,5.0,680.9616079999614,3.0,1.0,phase_2,go,500.0,700.0,1.0,,,,,,,,,white,circle
0.0,5.0,0.5,1.0,6.0,6.0,823.9628249998532,3.0,1.0,phase_2,stop,500.0,700.0,3.0,,,,,,,,,yellow,hexagon
0.0,4.0,4.0,0.0,6.0,6.0,1396.9028980000076,3.0,1.0,phase_2,go,500.0,650.0,1.0,,,,,,,,,green,diamond
0.0,6.0,1.0,1.0,5.0,5.0,599.3626330000552,4.0,1.0,phase_2,stop,500.0,650.0,3.0,,,,,,,,,magenta,cross
0.0,8.0,4.0,1.0,6.0,6.0,346.1233660000289,4.0,1.0,phase_2,stop,450.0,650.0,3.0,,,,,,,,,orange,triangle
0.0,5.0,0.5,1.0,5.0,5.0,554.301413000303,4.0,1.0,phase_2,stop,450.0,600.0,3.0,,,,,,,,,yellow,hexagon
0.0,3.0,2.0,0.0,5.0,5.0,578.2017090000409,4.0,1.0,phase_2,go,400.0,600.0,1.0,,,,,,,,,white,circle
0.0,1.0,0.5,0.0,5.0,5.0,457.1844090000923,4.0,1.0,phase_2,go,400.0,600.0,1.0,,,,,,,,,gray,flipped triangle
0.0,8.0,4.0,1.0,5.0,5.0,289.2796109999835,4.0,1.0,phase_2,stop,400.0,600.0,3.0,,,,,,,,,orange,triangle
0.0,5.0,0.5,1.0,6.0,6.0,467.1915450003325,4.0,1.0,phase_2,stop,350.0,600.0,3.0,,,,,,,,,yellow,hexagon
0.0,2.0,1.0,0.0,5.0,5.0,747.9982679997192,4.0,1.0,phase_2,go,350.0,550.0,1.0,,,,,,,,,cyan,I
0.0,3.0,2.0,0.0,6.0,6.0,616.6891269999724,4.0,1.0,phase_2,go,350.0,550.0,1.0,,,,,,,,,white,circle
0.0,3.0,2.0,0.0,5.0,5.0,559.9785829999746,4.0,1.0,phase_2,go,350.0,550.0,1.0,,,,,,,,,white,circle
0.0,7.0,2.0,1.0,5.0,5.0,607.8316339999219,4.0,1.0,phase_2,go,350.0,550.0,1.0,,,,,,,,,blue,square
0.0,5.0,0.5,1.0,5.0,0.0,0.0,4.0,1.0,phase_2,stop,350.0,550.0,4.0,,,,,,,,,yellow,hexagon
0.0,8.0,4.0,1.0,6.0,6.0,608.1589219998023,4.0,1.0,phase_2,stop,400.0,550.0,3.0,,,,,,,,,orange,triangle
0.0,2.0,1.0,0.0,5.0,5.0,494.8993500001961,4.0,1.0,phase_2,go,400.0,500.0,1.0,,,,,,,,,cyan,I
0.0,8.0,4.0,1.0,5.0,0.0,0.0,4.0,1.0,phase_2,stop,400.0,500.0,4.0,,,,,,,,,orange,triangle
0.0,4.0,4.0,0.0,6.0,6.0,627.2759869998481,4.0,1.0,phase_2,go,450.0,500.0,1.0,,,,,,,,,green,diamond
0.0,8.0,4.0,1.0,5.0,0.0,0.0,4.0,1.0,phase_2,stop,450.0,500.0,4.0,,,,,,,,,orange,triangle
0.0,7.0,2.0,1.0,6.0,0.0,0.0,4.0,1.0,phase_2,stop,500.0,500.0,4.0,,,,,,,,,blue,square
0.0,2.0,1.0,0.0,6.0,6.0,710.4795649997868,4.0,1.0,phase_2,go,500.0,550.0,1.0,,,,,,,,,cyan,I
0.0,3.0,2.0,0.0,6.0,6.0,551.0702199999287,4.0,1.0,phase_2,go,500.0,550.0,1.0,,,,,,,,,white,circle
0.0,3.0,2.0,0.0,5.0,5.0,625.9245579999515,4.0,1.0,phase_2,go,500.0,550.0,1.0,,,,,,,,,white,circle
0.0,3.0,2.0,0.0,5.0,5.0,580.9684649998417,4.0,1.0,phase_2,go,500.0,550.0,1.0,,,,,,,,,white,circle
0.0,1.0,0.5,0.0,5.0,5.0,719.6544260000337,4.0,1.0,phase_2,go,500.0,550.0,1.0,,,,,,,,,gray,flipped triangle
0.0,2.0,1.0,0.0,5.0,5.0,736.357446999591,4.0,1.0,phase_2,go,500.0,550.0,1.0,,,,,,,,,cyan,I
0.0,4.0,4.0,0.0,6.0,6.0,663.0372180002269,4.0,1.0,phase_2,go,500.0,550.0,1.0,,,,,,,,,green,diamond
0.0,5.0,0.5,1.0,6.0,6.0,522.0182999996723,4.0,1.0,phase_2,go,500.0,550.0,1.0,,,,,,,,,yellow,hexagon
0.0,5.0,0.5,1.0,5.0,5.0,446.2097840000751,4.0,1.0,phase_2,stop,500.0,550.0,3.0,,,,,,,,,yellow,hexagon
0.0,2.0,1.0,0.0,5.0,5.0,709.1517920002843,4.0,1.0,phase_2,go,450.0,550.0,1.0,,,,,,,,,cyan,I
0.0,4.0,4.0,0.0,6.0,6.0,616.2831019996702,4.0,1.0,phase_2,go,450.0,550.0,1.0,,,,,,,,,green,diamond
0.0,5.0,0.5,1.0,6.0,6.0,619.6392860001652,4.0,1.0,phase_2,stop,450.0,550.0,3.0,,,,,,,,,yellow,hexagon
0.0,6.0,1.0,1.0,6.0,6.0,716.5954659999443,4.0,1.0,phase_2,go,450.0,500.0,1.0,,,,,,,,,magenta,cross
0.0,4.0,4.0,0.0,5.0,5.0,597.4011919997793,4.0,1.0,phase_2,go,450.0,500.0,1.0,,,,,,,,,green,diamond
0.0,8.0,4.0,1.0,6.0,6.0,639.6832200002791,4.0,1.0,phase_2,stop,450.0,500.0,3.0,,,,,,,,,orange,triangle
0.0,8.0,4.0,1.0,5.0,0.0,0.0,4.0,1.0,phase_2,stop,450.0,450.0,4.0,,,,,,,,,orange,triangle
0.0,6.0,1.0,1.0,6.0,0.0,0.0,4.0,1.0,phase_2,stop,500.0,450.0,4.0,,,,,,,,,magenta,cross
0.0,4.0,4.0,0.0,6.0,6.0,741.9388069997694,4.0,1.0,phase_2,go,500.0,500.0,1.0,,,,,,,,,green,diamond
0.0,5.0,0.5,1.0,6.0,6.0,531.9794249999177,5.0,1.0,phase_2,go,500.0,500.0,1.0,,,,,,,,,yellow,hexagon
0.0,4.0,4.0,0.0,6.0,6.0,616.1255360002542,5.0,1.0,phase_2,go,500.0,500.0,1.0,,,,,,,,,green,diamond
0.0,6.0,1.0,1.0,6.0,6.0,743.0005400001392,5.0,1.0,phase_2,go,500.0,500.0,1.0,,,,,,,,,magenta,cross
0.0,6.0,1.0,1.0,5.0,5.0,535.241059999862,5.0,1.0,phase_2,stop,500.0,500.0,3.0,,,,,,,,,magenta,cross
0.0,8.0,4.0,1.0,5.0,5.0,634.5350689998668,5.0,1.0,phase_2,stop,450.0,500.0,3.0,,,,,,,,,orange,triangle
0.0,8.0,4.0,1.0,5.0,5.0,615.294977999838,5.0,1.0,phase_2,go,400.0,500.0,1.0,,,,,,,,,orange,triangle
0.0,1.0,0.5,0.0,5.0,5.0,840.0775159998375,5.0,1.0,phase_2,go,400.0,500.0,1.0,,,,,,,,,gray,flipped triangle
0.0,4.0,4.0,0.0,6.0,6.0,597.0546280000235,5.0,1.0,phase_2,go,400.0,500.0,1.0,,,,,,,,,green,diamond
0.0,1.0,0.5,0.0,5.0,5.0,688.7602669999069,5.0,1.0,phase_2,go,400.0,500.0,1.0,,,,,,,,,gray,flipped triangle
0.0,4.0,4.0,0.0,5.0,5.0,514.3827239999155,5.0,1.0,phase_2,go,400.0,500.0,1.0,,,,,,,,,green,diamond
0.0,1.0,0.5,0.0,6.0,6.0,624.4807970001602,5.0,1.0,phase_2,go,400.0,500.0,1.0,,,,,,,,,gray,flipped triangle
0.0,6.0,1.0,1.0,5.0,0.0,0.0,5.0,1.0,phase_2,stop,400.0,500.0,4.0,,,,,,,,,magenta,cross
0.0,1.0,0.5,0.0,5.0,5.0,447.466758000246,5.0,1.0,phase_2,go,450.0,500.0,1.0,,,,,,,,,gray,flipped triangle
0.0,7.0,2.0,1.0,6.0,6.0,542.9237779999312,5.0,1.0,phase_2,stop,450.0,500.0,3.0,,,,,,,,,blue,square
0.0,4.0,4.0,0.0,5.0,5.0,541.4232580001226,5.0,1.0,phase_2,go,450.0,450.0,1.0,,,,,,,,,green,diamond
0.0,4.0,4.0,0.0,5.0,5.0,380.9149010003239,5.0,1.0,phase_2,go,450.0,450.0,1.0,,,,,,,,,green,diamond
0.0,4.0,4.0,0.0,5.0,5.0,353.9982519996556,5.0,1.0,phase_2,go,450.0,450.0,1.0,,,,,,,,,green,diamond
0.0,7.0,2.0,1.0,6.0,6.0,709.5128329997351,5.0,1.0,phase_2,go,450.0,450.0,1.0,,,,,,,,,blue,square
0.0,1.0,0.5,0.0,5.0,5.0,514.3379940000159,5.0,1.0,phase_2,go,450.0,450.0,1.0,,,,,,,,,gray,flipped triangle
0.0,1.0,0.5,0.0,6.0,6.0,457.3206530003517,5.0,1.0,phase_2,go,450.0,450.0,1.0,,,,,,,,,gray,flipped triangle
0.0,6.0,1.0,1.0,6.0,0.0,0.0,5.0,1.0,phase_2,stop,450.0,450.0,4.0,,,,,,,,,magenta,cross
0.0,5.0,0.5,1.0,5.0,5.0,567.082869999922,5.0,1.0,phase_2,stop,450.0,500.0,3.0,,,,,,,,,yellow,hexagon
0.0,5.0,0.5,1.0,5.0,0.0,0.0,5.0,1.0,phase_2,stop,400.0,500.0,4.0,,,,,,,,,yellow,hexagon
0.0,4.0,4.0,0.0,5.0,5.0,673.3752449999884,5.0,1.0,phase_2,go,450.0,500.0,1.0,,,,,,,,,green,diamond
0.0,8.0,4.0,1.0,6.0,6.0,702.4226690000432,5.0,1.0,phase_2,go,450.0,500.0,1.0,,,,,,,,,orange,triangle
0.0,2.0,1.0,0.0,6.0,6.0,737.6298750000387,5.0,1.0,phase_2,go,450.0,500.0,1.0,,,,,,,,,cyan,I
0.0,6.0,1.0,1.0,5.0,0.0,0.0,5.0,1.0,phase_2,stop,450.0,500.0,4.0,,,,,,,,,magenta,cross
0.0,2.0,1.0,0.0,6.0,6.0,707.300017000307,5.0,1.0,phase_2,go,500.0,500.0,1.0,,,,,,,,,cyan,I
0.0,5.0,0.5,1.0,5.0,0.0,0.0,5.0,1.0,phase_2,stop,500.0,500.0,4.0,,,,,,,,,yellow,hexagon
0.0,7.0,2.0,1.0,5.0,5.0,684.1375469998638,5.0,1.0,phase_2,stop,550.0,500.0,3.0,,,,,,,,,blue,square
0.0,2.0,1.0,0.0,5.0,5.0,866.4429290001863,5.0,1.0,phase_2,go,500.0,500.0,1.0,,,,,,,,,cyan,I
0.0,7.0,2.0,1.0,5.0,5.0,746.8546169998262,5.0,1.0,phase_2,go,500.0,500.0,1.0,,,,,,,,,blue,square
0.0,5.0,0.5,1.0,6.0,0.0,0.0,5.0,1.0,phase_2,stop,500.0,500.0,4.0,,,,,,,,,yellow,hexagon
0.0,5.0,0.5,1.0,5.0,0.0,0.0,5.0,1.0,phase_2,stop,500.0,550.0,4.0,,,,,,,,,yellow,hexagon
0.0,5.0,0.5,1.0,6.0,0.0,0.0,5.0,1.0,phase_2,stop,550.0,550.0,4.0,,,,,,,,,yellow,hexagon
0.0,4.0,4.0,0.0,5.0,5.0,858.5966919999919,5.0,1.0,phase_2,go,550.0,600.0,1.0,,,,,,,,,green,diamond
0.0,2.0,1.0,0.0,5.0,5.0,764.6523230000639,6.0,1.0,phase_2,go,550.0,600.0,1.0,,,,,,,,,cyan,I
0.0,3.0,2.0,0.0,6.0,6.0,784.256644999914,6.0,1.0,phase_2,go,550.0,600.0,1.0,,,,,,,,,white,circle
0.0,3.0,2.0,0.0,6.0,6.0,700.4579330000524,6.0,1.0,phase_2,go,550.0,600.0,1.0,,,,,,,,,white,circle
0.0,3.0,2.0,0.0,5.0,5.0,831.6507570002614,6.0,1.0,phase_2,go,550.0,600.0,1.0,,,,,,,,,white,circle
0.0,7.0,2.0,1.0,5.0,5.0,719.4968480002899,6.0,1.0,phase_2,stop,550.0,600.0,3.0,,,,,,,,,blue,square
0.0,7.0,2.0,1.0,5.0,5.0,887.2081940003227,6.0,1.0,phase_2,go,500.0,600.0,1.0,,,,,,,,,blue,square
0.0,8.0,4.0,1.0,6.0,6.0,670.08050000004,6.0,1.0,phase_2,stop,500.0,600.0,3.0,,,,,,,,,orange,triangle
0.0,3.0,2.0,0.0,6.0,6.0,818.6419290000231,6.0,1.0,phase_2,go,500.0,550.0,1.0,,,,,,,,,white,circle
0.0,7.0,2.0,1.0,6.0,6.0,531.6086080001696,6.0,1.0,phase_2,stop,500.0,550.0,3.0,,,,,,,,,blue,square
0.0,5.0,0.5,1.0,6.0,6.0,701.1047810001401,6.0,1.0,phase_2,go,500.0,500.0,1.0,,,,,,,,,yellow,hexagon
0.0,7.0,2.0,1.0,5.0,0.0,0.0,6.0,1.0,phase_2,stop,500.0,500.0,4.0,,,,,,,,,blue,square
0.0,6.0,1.0,1.0,6.0,6.0,735.6451529999504,6.0,1.0,phase_2,go,550.0,500.0,1.0,,,,,,,,,magenta,cross
0.0,3.0,2.0,0.0,5.0,5.0,607.1905000003426,6.0,1.0,phase_2,go,550.0,500.0,1.0,,,,,,,,,white,circle
0.0,1.0,0.5,0.0,5.0,5.0,859.3932840003617,6.0,1.0,phase_2,go,550.0,500.0,1.0,,,,,,,,,gray,flipped triangle
0.0,5.0,0.5,1.0,6.0,0.0,0.0,6.0,1.0,phase_2,stop,550.0,500.0,4.0,,,,,,,,,yellow,hexagon
0.0,7.0,2.0,1.0,6.0,6.0,763.4520739998152,6.0,1.0,phase_2,stop,550.0,550.0,3.0,,,,,,,,,blue,square
0.0,1.0,0.5,0.0,6.0,6.0,840.6212149998282,6.0,1.0,phase_2,go,550.0,500.0,1.0,,,,,,,,,gray,flipped triangle
0.0,6.0,1.0,1.0,5.0,5.0,775.5989859997499,6.0,1.0,phase_2,go,550.0,500.0,1.0,,,,,,,,,magenta,cross
0.0,4.0,4.0,0.0,6.0,6.0,719.6125340001345,6.0,1.0,phase_2,go,550.0,500.0,1.0,,,,,,,,,green,diamond
0.0,2.0,1.0,0.0,5.0,5.0,812.2590670000136,6.0,1.0,phase_2,go,550.0,500.0,1.0,,,,,,,,,cyan,I
0.0,2.0,1.0,0.0,6.0,6.0,875.892143999863,6.0,1.0,phase_2,go,550.0,500.0,1.0,,,,,,,,,cyan,I
0.0,8.0,4.0,1.0,6.0,0.0,0.0,6.0,1.0,phase_2,stop,550.0,500.0,4.0,,,,,,,,,orange,triangle
0.0,5.0,0.5,1.0,6.0,6.0,662.5255339999967,6.0,1.0,phase_2,stop,550.0,550.0,3.0,,,,,,,,,yellow,hexagon
0.0,2.0,1.0,0.0,6.0,6.0,711.6773040002045,6.0,1.0,phase_2,go,550.0,500.0,1.0,,,,,,,,,cyan,I
0.0,7.0,2.0,1.0,5.0,5.0,658.8110679999772,6.0,1.0,phase_2,stop,550.0,500.0,3.0,,,,,,,,,blue,square
0.0,4.0,4.0,0.0,6.0,6.0,829.6394680000958,6.0,1.0,phase_2,go,500.0,500.0,1.0,,,,,,,,,green,diamond
0.0,2.0,1.0,0.0,6.0,6.0,645.730636999815,6.0,1.0,phase_2,go,500.0,500.0,1.0,,,,,,,,,cyan,I
0.0,4.0,4.0,0.0,6.0,6.0,772.3872189999383,6.0,1.0,phase_2,go,500.0,500.0,1.0,,,,,,,,,green,diamond
0.0,6.0,1.0,1.0,6.0,0.0,0.0,6.0,1.0,phase_2,stop,500.0,500.0,4.0,,,,,,,,,magenta,cross
0.0,3.0,2.0,0.0,6.0,6.0,780.5628139999499,6.0,1.0,phase_2,go,500.0,550.0,1.0,,,,,,,,,white,circle
0.0,3.0,2.0,0.0,5.0,5.0,802.6117140002498,6.0,1.0,phase_2,go,500.0,550.0,1.0,,,,,,,,,white,circle
0.0,8.0,4.0,1.0,5.0,0.0,0.0,6.0,1.0,phase_2,stop,500.0,550.0,4.0,,,,,,,,,orange,triangle
0.0,7.0,2.0,1.0,6.0,0.0,0.0,6.0,1.0,phase_2,stop,550.0,550.0,4.0,,,,,,,,,blue,square
0.0,7.0,2.0,1.0,6.0,6.0,776.86873499988,6.0,1.0,phase_2,stop,550.0,600.0,3.0,,,,,,,,,blue,square
0.0,2.0,1.0,0.0,5.0,5.0,899.7399079999013,6.0,1.0,phase_2,go,550.0,550.0,1.0,,,,,,,,,cyan,I
0.0,1.0,0.5,0.0,5.0,5.0,905.4476530000102,6.0,1.0,phase_2,go,550.0,550.0,1.0,,,,,,,,,gray,flipped triangle
0.0,2.0,1.0,0.0,5.0,1.0,569.7313629998462,7.0,1.0,phase_2,go,550.0,550.0,2.0,,,,,,,,,cyan,I
0.0,1.0,0.5,0.0,5.0,1.0,597.7614270000231,7.0,1.0,phase_2,go,550.0,550.0,2.0,,,,,,,,,gray,flipped triangle
0.0,2.0,1.0,0.0,5.0,1.0,355.4434859997855,7.0,1.0,phase_2,go,550.0,550.0,2.0,,,,,,,,,cyan,I
0.0,6.0,1.0,1.0,5.0,1.0,353.3289839997451,7.0,1.0,phase_2,go,550.0,550.0,2.0,,,,,,,,,magenta,cross
0.0,4.0,4.0,0.0,5.0,1.0,740.6175169999187,7.0,1.0,phase_2,go,550.0,550.0,2.0,,,,,,,,,green,diamond
0.0,1.0,0.5,0.0,6.0,6.0,747.2700710000026,7.0,1.0,phase_2,go,550.0,550.0,1.0,,,,,,,,,gray,flipped triangle
0.0,8.0,4.0,1.0,6.0,6.0,373.8149209998482,7.0,1.0,phase_2,stop,550.0,550.0,3.0,,,,,,,,,orange,triangle
0.0,3.0,2.0,0.0,5.0,1.0,516.6430260001107,7.0,1.0,phase_2,go,550.0,500.0,2.0,,,,,,,,,white,circle
0.0,2.0,1.0,0.0,5.0,1.0,540.6130870001107,7.0,1.0,phase_2,go,550.0,500.0,2.0,,,,,,,,,cyan,I
0.0,3.0,2.0,0.0,6.0,6.0,654.569908999747,7.0,1.0,phase_2,go,550.0,500.0,1.0,,,,,,,,,white,circle
0.0,4.0,4.0,0.0,6.0,6.0,586.6957550001644,7.0,1.0,phase_2,go,550.0,500.0,1.0,,,,,,,,,green,diamond
0.0,5.0,0.5,1.0,6.0,6.0,545.0862630000302,7.0,1.0,phase_2,stop,550.0,500.0,3.0,,,,,,,,,yellow,hexagon
0.0,1.0,0.5,0.0,6.0,6.0,615.1568400000542,7.0,1.0,phase_2,go,550.0,450.0,1.0,,,,,,,,,gray,flipped triangle
0.0,3.0,2.0,0.0,5.0,1.0,588.8576940001258,7.0,1.0,phase_2,go,550.0,450.0,2.0,,,,,,,,,white,circle
0.0,2.0,1.0,0.0,5.0,1.0,606.3467769999988,7.0,1.0,phase_2,go,550.0,450.0,2.0,,,,,,,,,cyan,I
0.0,7.0,2.0,1.0,5.0,1.0,596.8090819997087,7.0,1.0,phase_2,stop,550.0,450.0,3.0,,,,,,,,,blue,square
0.0,8.0,4.0,1.0,5.0,1.0,605.6399779999992,7.0,1.0,phase_2,stop,500.0,450.0,3.0,,,,,,,,,orange,triangle
0.0,8.0,4.0,1.0,6.0,6.0,623.7998000001426,7.0,1.0,phase_2,stop,450.0,450.0,3.0,,,,,,,,,orange,triangle
0.0,4.0,4.0,0.0,5.0,1.0,558.317717999671,7.0,1.0,phase_2,go,450.0,400.0,2.0,,,,,,,,,green,diamond
0.0,8.0,4.0,1.0,6.0,6.0,605.942254999718,7.0,1.0,phase_2,go,450.0,400.0,1.0,,,,,,,,,orange,triangle
0.0,3.0,2.0,0.0,6.0,6.0,401.6762500000368,7.0,1.0,phase_2,go,450.0,400.0,1.0,,,,,,,,,white,circle
0.0,1.0,0.5,0.0,5.0,1.0,542.2629019999476,7.0,1.0,phase_2,go,450.0,400.0,2.0,,,,,,,,,gray,flipped triangle
0.0,2.0,1.0,0.0,6.0,6.0,336.8704499998785,7.0,1.0,phase_2,go,450.0,400.0,1.0,,,,,,,,,cyan,I
0.0,6.0,1.0,1.0,5.0,1.0,326.4375500002643,7.0,1.0,phase_2,stop,450.0,400.0,3.0,,,,,,,,,magenta,cross
0.0,3.0,2.0,0.0,6.0,6.0,391.603903000032,7.0,1.0,phase_2,go,400.0,400.0,1.0,,,,,,,,,white,circle
0.0,7.0,2.0,1.0,5.0,1.0,502.07545900002515,7.0,1.0,phase_2,stop,400.0,400.0,3.0,,,,,,,,,blue,square
0.0,2.0,1.0,0.0,6.0,6.0,485.6766289999541,7.0,1.0,phase_2,go,350.0,400.0,1.0,,,,,,,,,cyan,I
0.0,3.0,2.0,0.0,5.0,1.0,470.707792000212,7.0,1.0,phase_2,go,350.0,400.0,2.0,,,,,,,,,white,circle
0.0,1.0,0.5,0.0,6.0,6.0,551.1817090000477,7.0,1.0,phase_2,go,350.0,400.0,1.0,,,,,,,,,gray,flipped triangle
0.0,7.0,2.0,1.0,6.0,6.0,691.3856779997332,7.0,1.0,phase_2,go,350.0,400.0,1.0,,,,,,,,,blue,square
0.0,8.0,4.0,1.0,5.0,1.0,336.7209220000404,7.0,1.0,phase_2,stop,350.0,400.0,3.0,,,,,,,,,orange,triangle
0.0,7.0,2.0,1.0,5.0,1.0,479.846047999672,7.0,1.0,phase_2,stop,300.0,400.0,3.0,,,,,,,,,blue,square
0.0,2.0,1.0,0.0,6.0,6.0,514.3149179998545,7.0,1.0,phase_2,go,250.0,400.0,1.0,,,,,,,,,cyan,I
0.0,5.0,0.5,1.0,6.0,6.0,535.0984120000248,7.0,1.0,phase_2,stop,250.0,400.0,3.0,,,,,,,,,yellow,hexagon
0.0,6.0,1.0,1.0,5.0,0.0,0.0,7.0,1.0,phase_2,stop,250.0,350.0,4.0,,,,,,,,,magenta,cross
0.0,8.0,4.0,1.0,5.0,0.0,0.0,7.0,1.0,phase_2,stop,300.0,350.0,4.0,,,,,,,,,orange,triangle
0.0,6.0,1.0,1.0,6.0,6.0,431.5817299998343,8.0,1.0,phase_2,go,350.0,350.0,1.0,,,,,,,,,magenta,cross
0.0,5.0,0.5,1.0,5.0,0.0,0.0,8.0,1.0,phase_2,stop,350.0,350.0,4.0,,,,,,,,,yellow,hexagon
0.0,2.0,1.0,0.0,5.0,1.0,616.6160079997098,8.0,1.0,phase_2,go,400.0,350.0,2.0,,,,,,,,,cyan,I
0.0,3.0,2.0,0.0,5.0,1.0,540.778962999866,8.0,1.0,phase_2,go,400.0,350.0,2.0,,,,,,,,,white,circle
0.0,7.0,2.0,1.0,6.0,6.0,551.6740439998102,8.0,1.0,phase_2,go,400.0,350.0,1.0,,,,,,,,,blue,square
0.0,8.0,4.0,1.0,5.0,1.0,636.3076719999299,8.0,1.0,phase_2,go,400.0,350.0,2.0,,,,,,,,,orange,triangle
0.0,1.0,0.5,0.0,5.0,1.0,383.5499599999821,8.0,1.0,phase_2,go,400.0,350.0,2.0,,,,,,,,,gray,flipped triangle
0.0,5.0,0.5,1.0,6.0,6.0,530.3648899998734,8.0,1.0,phase_2,stop,400.0,350.0,3.0,,,,,,,,,yellow,hexagon
0.0,4.0,4.0,0.0,6.0,6.0,625.274336000075,8.0,1.0,phase_2,go,400.0,300.0,1.0,,,,,,,,,green,diamond
0.0,6.0,1.0,1.0,6.0,0.0,0.0,8.0,1.0,phase_2,stop,400.0,300.0,4.0,,,,,,,,,magenta,cross
0.0,2.0,1.0,0.0,6.0,6.0,577.7457260001029,8.0,1.0,phase_2,go,400.0,350.0,1.0,,,,,,,,,cyan,I
0.0,3.0,2.0,0.0,5.0,1.0,261.5041609997206,8.0,1.0,phase_2,go,400.0,350.0,2.0,,,,,,,,,white,circle
0.0,1.0,0.5,0.0,6.0,6.0,448.5847889991419,8.0,1.0,phase_2,go,400.0,350.0,1.0,,,,,,,,,gray,flipped triangle
0.0,3.0,2.0,0.0,6.0,6.0,588.1642840004133,8.0,1.0,phase_2,go,400.0,350.0,1.0,,,,,,,,,white,circle
0.0,3.0,2.0,0.0,5.0,1.0,607.1122070006822,8.0,1.0,phase_2,go,400.0,350.0,2.0,,,,,,,,,white,circle
0.0,4.0,4.0,0.0,5.0,1.0,403.3109590000094,8.0,1.0,phase_2,go,400.0,350.0,2.0,,,,,,,,,green,diamond
0.0,7.0,2.0,1.0,6.0,6.0,398.6039520004851,8.0,1.0,phase_2,stop,400.0,350.0,3.0,,,,,,,,,blue,square
0.0,7.0,2.0,1.0,5.0,1.0,533.2767780000722,8.0,1.0,phase_2,stop,400.0,300.0,3.0,,,,,,,,,blue,square
0.0,1.0,0.5,0.0,6.0,6.0,663.1364029999531,8.0,1.0,phase_2,go,350.0,300.0,1.0,,,,,,,,,gray,flipped triangle
0.0,8.0,4.0,1.0,5.0,0.0,0.0,8.0,1.0,phase_2,stop,350.0,300.0,4.0,,,,,,,,,orange,triangle
0.0,5.0,0.5,1.0,5.0,1.0,561.676432999775,8.0,1.0,phase_2,stop,400.0,300.0,3.0,,,,,,,,,yellow,hexagon
0.0,3.0,2.0,0.0,6.0,6.0,860.2661539998735,8.0,1.0,phase_2,go,350.0,300.0,1.0,,,,,,,,,white,circle
0.0,2.0,1.0,0.0,6.0,6.0,589.0158009997322,8.0,1.0,phase_2,go,350.0,300.0,1.0,,,,,,,,,cyan,I
0.0,3.0,2.0,0.0,6.0,6.0,337.4208629993518,8.0,1.0,phase_2,go,350.0,300.0,1.0,,,,,,,,,white,circle
0.0,1.0,0.5,0.0,6.0,6.0,364.5038679997014,8.0,1.0,phase_2,go,350.0,300.0,1.0,,,,,,,,,gray,flipped triangle
0.0,5.0,0.5,1.0,6.0,6.0,328.1047250002302,8.0,1.0,phase_2,go,350.0,300.0,1.0,,,,,,,,,yellow,hexagon
0.0,5.0,0.5,1.0,5.0,1.0,494.6421490003558,8.0,1.0,phase_2,go,350.0,300.0,2.0,,,,,,,,,yellow,hexagon
0.0,5.0,0.5,1.0,5.0,1.0,601.1479930002679,8.0,1.0,phase_2,stop,350.0,300.0,3.0,,,,,,,,,yellow,hexagon
0.0,1.0,0.5,0.0,5.0,5.0,756.0056419997636,8.0,1.0,phase_2,go,300.0,300.0,1.0,,,,,,,,,gray,flipped triangle
0.0,7.0,2.0,1.0,6.0,0.0,0.0,8.0,1.0,phase_2,stop,300.0,300.0,4.0,,,,,,,,,blue,square
0.0,4.0,4.0,0.0,6.0,6.0,913.7734719997752,8.0,1.0,phase_2,go,300.0,350.0,1.0,,,,,,,,,green,diamond
0.0,8.0,4.0,1.0,5.0,0.0,0.0,8.0,1.0,phase_2,stop,300.0,350.0,4.0,,,,,,,,,orange,triangle
0.0,2.0,1.0,0.0,6.0,6.0,1258.2283539995842,8.0,1.0,phase_2,go,350.0,350.0,1.0,,,,,,,,,cyan,I
0.0,7.0,2.0,1.0,5.0,5.0,605.7428329995673,8.0,1.0,phase_2,go,350.0,350.0,1.0,,,,,,,,,blue,square
0.0,3.0,2.0,0.0,6.0,6.0,577.8734599998643,8.0,1.0,phase_2,go,350.0,350.0,1.0,,,,,,,,,white,circle
0.0,1.0,0.5,0.0,5.0,5.0,477.1677589997125,8.0,1.0,phase_2,go,350.0,350.0,1.0,,,,,,,,,gray,flipped triangle
0.0,3.0,2.0,0.0,7.0,2.0,1825.9351100005008,1.0,2.0,phase_3,,,,,519.0,3.0,1038.0,519.0,173.0,346.0,692.0,865.0,white,circle
0.0,6.0,1.0,1.0,7.0,4.0,2402.166576000127,1.0,1.0,phase_3,,,,,405.0,3.0,810.0,540.0,135.0,405.0,675.0,270.0,magenta,cross
0.0,4.0,4.0,0.0,7.0,5.0,1827.3139479997556,1.0,1.0,phase_3,,,,,770.0,5.0,154.0,308.0,462.0,924.0,770.0,616.0,green,diamond
0.0,6.0,1.0,1.0,7.0,5.0,3168.47353600042,1.0,1.0,phase_3,,,,,675.0,5.0,540.0,270.0,135.0,810.0,675.0,405.0,magenta,cross
0.0,5.0,0.5,1.0,7.0,3.0,1215.098367999417,1.0,1.0,phase_3,,,,,405.0,3.0,270.0,675.0,405.0,810.0,135.0,540.0,yellow,hexagon
0.0,2.0,1.0,0.0,7.0,5.0,1416.0587390006183,1.0,1.0,phase_3,,,,,696.0,6.0,232.0,348.0,116.0,464.0,696.0,580.0,cyan,I
0.0,8.0,4.0,1.0,7.0,2.0,2013.1147880001663,1.0,1.0,phase_3,,,,,346.0,2.0,692.0,346.0,1038.0,173.0,865.0,519.0,orange,triangle
0.0,7.0,2.0,1.0,7.0,4.0,1714.5852140001807,1.0,1.0,phase_3,,,,,865.0,5.0,692.0,173.0,519.0,865.0,346.0,1038.0,blue,square
0.0,2.0,1.0,0.0,7.0,4.0,1759.0228760000173,1.0,1.0,phase_3,,,,,770.0,5.0,616.0,924.0,154.0,770.0,308.0,462.0,cyan,I
0.0,3.0,2.0,0.0,7.0,1.0,2974.9101620000147,1.0,1.0,phase_3,,,,,768.0,4.0,768.0,192.0,1152.0,384.0,960.0,576.0,white,circle
0.0,2.0,1.0,0.0,7.0,5.0,1381.5819089995784,1.0,1.0,phase_3,,,,,384.0,2.0,192.0,1152.0,576.0,768.0,384.0,960.0,cyan,I
0.0,2.0,1.0,0.0,7.0,5.0,1494.131536000168,1.0,1.0,phase_3,,,,,405.0,3.0,675.0,270.0,810.0,135.0,405.0,540.0,cyan,I
0.0,3.0,2.0,0.0,7.0,4.0,1342.303491000166,1.0,1.0,phase_3,,,,,810.0,6.0,405.0,540.0,270.0,810.0,675.0,135.0,white,circle
0.0,4.0,4.0,0.0,7.0,4.0,1425.2638080006363,1.0,1.0,phase_3,,,,,580.0,5.0,696.0,232.0,464.0,580.0,116.0,348.0,green,diamond
0.0,4.0,4.0,0.0,7.0,2.0,2170.459173999916,1.0,1.0,phase_3,,,,,675.0,5.0,135.0,675.0,405.0,810.0,540.0,270.0,green,diamond
0.0,1.0,0.5,0.0,7.0,5.0,2030.767385000217,1.0,1.0,phase_3,,,,,616.0,4.0,154.0,924.0,462.0,770.0,616.0,308.0,gray,flipped triangle
0.0,7.0,2.0,1.0,7.0,2.0,1111.8352410003354,1.0,1.0,phase_3,,,,,464.0,4.0,348.0,464.0,580.0,232.0,696.0,116.0,blue,square
0.0,3.0,2.0,0.0,7.0,6.0,1860.284790000151,1.0,1.0,phase_3,,,,,696.0,6.0,580.0,116.0,464.0,232.0,348.0,696.0,white,circle
0.0,1.0,0.5,0.0,7.0,3.0,1810.2747599996287,1.0,1.0,phase_3,,,,,270.0,2.0,675.0,135.0,270.0,405.0,810.0,540.0,gray,flipped triangle
0.0,4.0,4.0,0.0,7.0,5.0,1083.2117579993792,1.0,1.0,phase_3,,,,,960.0,5.0,576.0,384.0,1152.0,192.0,960.0,768.0,green,diamond
0.0,8.0,4.0,1.0,7.0,3.0,1184.7436190000735,2.0,1.0,phase_3,,,,,960.0,5.0,1152.0,192.0,960.0,768.0,576.0,384.0,orange,triangle
0.0,3.0,2.0,0.0,7.0,6.0,1788.3124390000376,2.0,1.0,phase_3,,,,,692.0,4.0,865.0,173.0,346.0,1038.0,519.0,692.0,white,circle
0.0,6.0,1.0,1.0,7.0,3.0,1631.8920240000807,2.0,1.0,phase_3,,,,,580.0,5.0,232.0,696.0,580.0,116.0,348.0,464.0,magenta,cross
0.0,4.0,4.0,0.0,7.0,3.0,1553.742570000395,2.0,1.0,phase_3,,,,,810.0,6.0,270.0,675.0,810.0,405.0,540.0,135.0,green,diamond
0.0,1.0,0.5,0.0,7.0,2.0,1991.9455340004788,2.0,1.0,phase_3,,,,,154.0,1.0,770.0,154.0,308.0,924.0,616.0,462.0,gray,flipped triangle
0.0,2.0,1.0,0.0,7.0,5.0,1491.6922100001102,2.0,1.0,phase_3,,,,,348.0,3.0,696.0,464.0,580.0,116.0,348.0,232.0,cyan,I
0.0,5.0,0.5,1.0,7.0,4.0,990.660236999247,2.0,1.0,phase_3,,,,,192.0,1.0,384.0,1152.0,768.0,192.0,576.0,960.0,yellow,hexagon
0.0,8.0,4.0,1.0,7.0,2.0,1398.7630179999542,2.0,1.0,phase_3,,,,,692.0,4.0,865.0,692.0,346.0,519.0,173.0,1038.0,orange,triangle
0.0,6.0,1.0,1.0,7.0,6.0,1945.0501900000745,2.0,1.0,phase_3,,,,,462.0,3.0,770.0,924.0,154.0,616.0,308.0,462.0,magenta,cross
0.0,1.0,0.5,0.0,7.0,4.0,2456.294705999426,2.0,1.0,phase_3,,,,,270.0,2.0,540.0,675.0,810.0,270.0,405.0,135.0,gray,flipped triangle
0.0,4.0,4.0,0.0,7.0,6.0,1622.151008000401,2.0,1.0,phase_3,,,,,696.0,6.0,348.0,464.0,580.0,232.0,116.0,696.0,green,diamond
0.0,5.0,0.5,1.0,7.0,3.0,1684.6665439998103,2.0,1.0,phase_3,,,,,519.0,3.0,173.0,692.0,519.0,865.0,1038.0,346.0,yellow,hexagon
0.0,5.0,0.5,1.0,7.0,2.0,2499.39845300014,2.0,1.0,phase_3,,,,,580.0,5.0,232.0,580.0,696.0,116.0,348.0,464.0,yellow,hexagon
0.0,8.0,4.0,1.0,7.0,4.0,1418.9795960000993,2.0,1.0,phase_3,,,,,540.0,4.0,405.0,810.0,135.0,540.0,270.0,675.0,orange,triangle
0.0,2.0,1.0,0.0,7.0,5.0,759.4271239995578,2.0,1.0,phase_3,,,,,576.0,3.0,192.0,384.0,960.0,768.0,576.0,1152.0,cyan,I
0.0,7.0,2.0,1.0,7.0,6.0,565.095893999569,2.0,1.0,phase_3,,,,,384.0,2.0,192.0,1152.0,576.0,960.0,768.0,384.0,blue,square
0.0,2.0,1.0,0.0,7.0,6.0,1932.177190999937,2.0,1.0,phase_3,,,,,519.0,3.0,1038.0,865.0,346.0,692.0,173.0,519.0,cyan,I
0.0,6.0,1.0,1.0,7.0,6.0,2539.846808999755,2.0,1.0,phase_3,,,,,346.0,2.0,519.0,1038.0,692.0,173.0,865.0,346.0,magenta,cross
0.0,5.0,0.5,1.0,7.0,3.0,1651.0246729994833,2.0,1.0,phase_3,,,,,616.0,4.0,462.0,154.0,616.0,308.0,924.0,770.0,yellow,hexagon
0.0,7.0,2.0,1.0,7.0,6.0,1758.830288000354,2.0,1.0,phase_3,,,,,462.0,3.0,616.0,308.0,924.0,770.0,154.0,462.0,blue,square
0.0,3.0,2.0,0.0,7.0,4.0,1350.789841999358,3.0,1.0,phase_3,,,,,924.0,6.0,616.0,462.0,154.0,924.0,770.0,308.0,white,circle
0.0,2.0,1.0,0.0,7.0,3.0,1046.7880770002012,3.0,1.0,phase_3,,,,,692.0,4.0,1038.0,519.0,692.0,173.0,865.0,346.0,cyan,I
0.0,3.0,2.0,0.0,7.0,2.0,2093.813223000325,3.0,1.0,phase_3,,,,,770.0,5.0,924.0,770.0,616.0,154.0,462.0,308.0,white,circle
0.0,2.0,1.0,0.0,7.0,6.0,1843.0408709991752,3.0,1.0,phase_3,,,,,462.0,3.0,616.0,924.0,770.0,154.0,308.0,462.0,cyan,I
0.0,6.0,1.0,1.0,7.0,6.0,1241.2692650004828,3.0,1.0,phase_3,,,,,576.0,3.0,768.0,1152.0,960.0,192.0,384.0,576.0,magenta,cross
0.0,6.0,1.0,1.0,7.0,4.0,1233.417198999632,3.0,1.0,phase_3,,,,,692.0,4.0,865.0,173.0,519.0,692.0,346.0,1038.0,magenta,cross
0.0,8.0,4.0,1.0,7.0,3.0,1654.8644889999196,3.0,1.0,phase_3,,,,,464.0,4.0,116.0,348.0,464.0,696.0,232.0,580.0,orange,triangle
0.0,8.0,4.0,1.0,7.0,4.0,1185.2224249996652,3.0,1.0,phase_3,,,,,192.0,1.0,384.0,1152.0,576.0,192.0,960.0,768.0,orange,triangle
0.0,7.0,2.0,1.0,7.0,6.0,2013.029824999649,3.0,1.0,phase_3,,,,,348.0,3.0,580.0,464.0,116.0,696.0,232.0,348.0,blue,square
0.0,8.0,4.0,1.0,7.0,4.0,1260.4337389993816,3.0,1.0,phase_3,,,,,348.0,3.0,464.0,116.0,580.0,348.0,232.0,696.0,orange,triangle
0.0,7.0,2.0,1.0,7.0,2.0,974.4597120006802,3.0,1.0,phase_3,,,,,384.0,2.0,960.0,384.0,1152.0,192.0,576.0,768.0,blue,square
0.0,8.0,4.0,1.0,7.0,3.0,835.9489810000014,3.0,1.0,phase_3,,,,,462.0,3.0,924.0,308.0,462.0,616.0,770.0,154.0,orange,triangle
0.0,4.0,4.0,0.0,7.0,3.0,1417.2879640000249,3.0,1.0,phase_3,,,,,1038.0,6.0,692.0,173.0,1038.0,519.0,865.0,346.0,green,diamond
0.0,8.0,4.0,1.0,7.0,2.0,1797.777457999473,3.0,1.0,phase_3,,,,,405.0,3.0,135.0,405.0,675.0,270.0,540.0,810.0,orange,triangle
0.0,1.0,0.5,0.0,7.0,5.0,1937.507286000255,3.0,1.0,phase_3,,,,,519.0,3.0,692.0,346.0,1038.0,173.0,519.0,865.0,gray,flipped triangle
0.0,5.0,0.5,1.0,7.0,3.0,1529.9149450002003,3.0,1.0,phase_3,,,,,348.0,3.0,696.0,116.0,348.0,464.0,580.0,232.0,yellow,hexagon
0.0,7.0,2.0,1.0,7.0,5.0,1390.672772000471,3.0,1.0,phase_3,,,,,405.0,3.0,135.0,540.0,270.0,810.0,405.0,675.0,blue,square
0.0,7.0,2.0,1.0,7.0,4.0,1223.5190800001874,3.0,1.0,phase_3,,,,,270.0,2.0,540.0,135.0,405.0,270.0,810.0,675.0,blue,square
0.0,7.0,2.0,1.0,7.0,4.0,1250.9153060000244,3.0,1.0,phase_3,,,,,462.0,3.0,616.0,770.0,924.0,462.0,308.0,154.0,blue,square
0.0,5.0,0.5,1.0,7.0,1.0,2466.6718919997948,3.0,1.0,phase_3,,,,,346.0,2.0,346.0,519.0,692.0,865.0,1038.0,173.0,yellow,hexagon
0.0,3.0,2.0,0.0,7.0,3.0,1186.3902709992544,4.0,1.0,phase_3,,,,,768.0,4.0,1152.0,192.0,768.0,576.0,384.0,960.0,white,circle
0.0,1.0,0.5,0.0,7.0,6.0,1639.9699449993932,4.0,1.0,phase_3,,,,,232.0,2.0,348.0,464.0,696.0,116.0,580.0,232.0,gray,flipped triangle
0.0,8.0,4.0,1.0,7.0,6.0,1084.2738609999287,4.0,1.0,phase_3,,,,,308.0,2.0,462.0,616.0,154.0,924.0,770.0,308.0,orange,triangle
0.0,3.0,2.0,0.0,7.0,3.0,1269.687748999786,4.0,1.0,phase_3,,,,,810.0,6.0,270.0,135.0,810.0,675.0,405.0,540.0,white,circle
0.0,1.0,0.5,0.0,7.0,1.0,194.2969279998578,4.0,1.0,phase_3,,,,,768.0,4.0,768.0,192.0,960.0,576.0,1152.0,384.0,gray,flipped triangle
0.0,2.0,1.0,0.0,7.0,3.0,991.5630519999468,4.0,1.0,phase_3,,,,,540.0,4.0,405.0,135.0,540.0,675.0,270.0,810.0,cyan,I
0.0,3.0,2.0,0.0,7.0,6.0,1529.8050389992568,4.0,1.0,phase_3,,,,,696.0,6.0,116.0,348.0,464.0,580.0,232.0,696.0,white,circle
0.0,5.0,0.5,1.0,7.0,5.0,1728.040498000155,4.0,1.0,phase_3,,,,,675.0,5.0,135.0,405.0,270.0,540.0,675.0,810.0,yellow,hexagon
0.0,5.0,0.5,1.0,7.0,6.0,1055.0904399997307,4.0,1.0,phase_3,,,,,192.0,1.0,768.0,1152.0,960.0,384.0,576.0,192.0,yellow,hexagon
0.0,6.0,1.0,1.0,7.0,4.0,982.3031079995416,4.0,1.0,phase_3,,,,,464.0,4.0,580.0,232.0,696.0,464.0,116.0,348.0,magenta,cross
0.0,4.0,4.0,0.0,7.0,2.0,1492.6334880001375,4.0,1.0,phase_3,,,,,960.0,5.0,768.0,960.0,1152.0,576.0,384.0,192.0,green,diamond
0.0,6.0,1.0,1.0,7.0,4.0,1157.6531480004633,4.0,1.0,phase_3,,,,,462.0,3.0,154.0,770.0,924.0,462.0,616.0,308.0,magenta,cross
0.0,6.0,1.0,1.0,7.0,5.0,1121.0096790000534,4.0,1.0,phase_3,,,,,192.0,1.0,960.0,1152.0,384.0,576.0,192.0,768.0,magenta,cross
0.0,1.0,0.5,0.0,7.0,2.0,1417.5724160004393,4.0,1.0,phase_3,,,,,232.0,2.0,696.0,232.0,464.0,348.0,116.0,580.0,gray,flipped triangle
0.0,4.0,4.0,0.0,7.0,4.0,1444.465995000428,4.0,1.0,phase_3,,,,,924.0,6.0,154.0,616.0,308.0,924.0,770.0,462.0,green,diamond
0.0,5.0,0.5,1.0,7.0,5.0,1676.6508260006958,4.0,1.0,phase_3,,,,,462.0,3.0,154.0,308.0,616.0,770.0,462.0,924.0,yellow,hexagon
0.0,7.0,2.0,1.0,7.0,5.0,1902.447327000118,4.0,1.0,phase_3,,,,,346.0,2.0,173.0,865.0,1038.0,692.0,346.0,519.0,blue,square
0.0,4.0,4.0,0.0,7.0,5.0,1648.0455509999956,4.0,1.0,phase_3,,,,,865.0,5.0,173.0,692.0,519.0,1038.0,865.0,346.0,green,diamond
0.0,1.0,0.5,0.0,7.0,3.0,1777.7473919995828,4.0,1.0,phase_3,,,,,346.0,2.0,519.0,692.0,346.0,865.0,1038.0,173.0,gray,flipped triangle
0.0,1.0,0.5,0.0,7.0,4.0,1482.1398860003685,4.0,1.0,phase_3,,,,,384.0,2.0,1152.0,192.0,768.0,384.0,960.0,576.0,gray,flipped triangle
