raw_reward_magnitude,stim_reward,stepwise_reward_magnitude,paired_with_stopping,stim_location,response,reaction_time,block,num_trial_presentations,which_phase,stop_signal_trial_type,left_SSD,right_SSD,accuracy,chosen_bidding_amount,chosen_bidding_level,possible_bid_1,possible_bid_2,possible_bid_3,possible_bid_4,possible_bid_5,possible_bid_6,color_text,shape_text
170.0,1.0,1.0,0.0,2.0,2.0,550.5541219999941,1.0,1.0,phase_1,,,,,,,,,,,,,cyan,flipped triangle
674.0,7.0,3.0,1.0,2.0,2.0,495.1692980000644,1.0,1.0,phase_1,,,,,,,,,,,,,orange,square
177.0,5.0,1.0,1.0,3.0,3.0,438.7952520000908,1.0,1.0,phase_1,,,,,,,,,,,,,green,cross
0.0,5.0,0.0,1.0,1.0,1.0,355.011389000083,1.0,1.0,phase_1,,,,,,,,,,,,,green,cross
1276.0,4.0,4.0,0.0,1.0,1.0,336.922536999964,1.0,1.0,phase_1,,,,,,,,,,,,,yellow,diamond
1285.0,8.0,4.0,1.0,1.0,1.0,401.2734120001369,1.0,1.0,phase_1,,,,,,,,,,,,,blue,hexagon
0.0,7.0,0.0,1.0,2.0,2.0,410.7063149999703,1.0,1.0,phase_1,,,,,,,,,,,,,orange,square
1296.0,4.0,4.0,0.0,2.0,2.0,392.1077339998646,1.0,1.0,phase_1,,,,,,,,,,,,,yellow,diamond
186.0,5.0,1.0,1.0,4.0,4.0,413.8904659998843,1.0,1.0,phase_1,,,,,,,,,,,,,green,cross
1302.0,8.0,4.0,1.0,2.0,2.0,337.3128299999735,1.0,1.0,phase_1,,,,,,,,,,,,,blue,hexagon
626.0,7.0,3.0,1.0,2.0,2.0,421.3332839999566,1.0,1.0,phase_1,,,,,,,,,,,,,orange,square
648.0,3.0,3.0,0.0,1.0,1.0,298.7492800002655,1.0,1.0,phase_1,,,,,,,,,,,,,magenta,I
349.0,6.0,2.0,1.0,4.0,4.0,373.9914869997847,1.0,1.0,phase_1,,,,,,,,,,,,,white,triangle
164.0,5.0,1.0,1.0,1.0,1.0,345.3038129996457,1.0,1.0,phase_1,,,,,,,,,,,,,green,cross
1314.0,8.0,4.0,1.0,1.0,1.0,373.1942949998483,1.0,1.0,phase_1,,,,,,,,,,,,,blue,hexagon
331.0,6.0,2.0,1.0,1.0,1.0,316.6194919999725,1.0,1.0,phase_1,,,,,,,,,,,,,white,triangle
0.0,4.0,0.0,0.0,3.0,3.0,317.0096660001036,1.0,1.0,phase_1,,,,,,,,,,,,,yellow,diamond
649.0,7.0,3.0,1.0,2.0,2.0,326.3172479996683,1.0,1.0,phase_1,,,,,,,,,,,,,orange,square
653.0,3.0,3.0,0.0,4.0,4.0,375.4467610001484,1.0,1.0,phase_1,,,,,,,,,,,,,magenta,I
341.0,2.0,2.0,0.0,1.0,1.0,307.2166570000263,1.0,1.0,phase_1,,,,,,,,,,,,,gray,circle
1307.0,8.0,4.0,1.0,1.0,1.0,355.0934330000928,1.0,1.0,phase_1,,,,,,,,,,,,,blue,hexagon
634.0,7.0,3.0,1.0,1.0,1.0,345.0428809996992,1.0,1.0,phase_1,,,,,,,,,,,,,orange,square
138.0,5.0,1.0,1.0,2.0,2.0,308.5089389996938,1.0,1.0,phase_1,,,,,,,,,,,,,green,cross
311.0,2.0,2.0,0.0,3.0,3.0,382.8476310000042,1.0,1.0,phase_1,,,,,,,,,,,,,gray,circle
0.0,2.0,0.0,0.0,4.0,4.0,317.6843760002157,1.0,1.0,phase_1,,,,,,,,,,,,,gray,circle
640.0,7.0,3.0,1.0,3.0,3.0,308.3577659999719,1.0,1.0,phase_1,,,,,,,,,,,,,orange,square
158.0,1.0,1.0,0.0,4.0,4.0,374.9880320001466,1.0,1.0,phase_1,,,,,,,,,,,,,cyan,flipped triangle
302.0,2.0,2.0,0.0,4.0,4.0,363.9944050000849,1.0,1.0,phase_1,,,,,,,,,,,,,gray,circle
180.0,5.0,1.0,1.0,2.0,2.0,373.774148999928,1.0,2.0,phase_1,,,,,,,,,,,,,green,cross
1296.0,4.0,4.0,0.0,2.0,2.0,428.5437950002233,1.0,1.0,phase_1,,,,,,,,,,,,,yellow,diamond
174.0,5.0,1.0,1.0,4.0,4.0,336.4423330003774,1.0,1.0,phase_1,,,,,,,,,,,,,green,cross
304.0,6.0,2.0,1.0,4.0,4.0,336.7432680001911,1.0,1.0,phase_1,,,,,,,,,,,,,white,triangle
148.0,1.0,1.0,0.0,2.0,2.0,336.4705509998202,1.0,1.0,phase_1,,,,,,,,,,,,,cyan,flipped triangle
1286.0,4.0,4.0,0.0,4.0,4.0,317.3289019996446,1.0,1.0,phase_1,,,,,,,,,,,,,yellow,diamond
656.0,7.0,3.0,1.0,1.0,1.0,420.4708130000654,1.0,2.0,phase_1,,,,,,,,,,,,,orange,square
0.0,7.0,0.0,1.0,4.0,4.0,367.6953720000711,1.0,1.0,phase_1,,,,,,,,,,,,,orange,square
668.0,7.0,3.0,1.0,2.0,2.0,309.7800820000884,1.0,1.0,phase_1,,,,,,,,,,,,,orange,square
657.0,7.0,3.0,1.0,2.0,2.0,402.3402769998938,1.0,1.0,phase_1,,,,,,,,,,,,,orange,square
0.0,8.0,0.0,1.0,1.0,1.0,345.2993260002586,1.0,1.0,phase_1,,,,,,,,,,,,,blue,hexagon
332.0,2.0,2.0,0.0,3.0,3.0,382.6459769998109,1.0,1.0,phase_1,,,,,,,,,,,,,gray,circle
1306.0,8.0,4.0,1.0,1.0,1.0,346.1341770002946,1.0,1.0,phase_1,,,,,,,,,,,,,blue,hexagon
652.0,7.0,3.0,1.0,2.0,2.0,345.1283970002805,1.0,1.0,phase_1,,,,,,,,,,,,,orange,square
1293.0,4.0,4.0,0.0,1.0,1.0,335.1793270003327,1.0,1.0,phase_1,,,,,,,,,,,,,yellow,diamond
659.0,7.0,3.0,1.0,2.0,2.0,335.6190579997928,1.0,1.0,phase_1,,,,,,,,,,,,,orange,square
0.0,4.0,0.0,0.0,2.0,2.0,393.0940039999768,1.0,1.0,phase_1,,,,,,,,,,,,,yellow,diamond
1296.0,8.0,4.0,1.0,3.0,3.0,409.42687200004,1.0,1.0,phase_1,,,,,,,,,,,,,blue,hexagon
668.0,3.0,3.0,0.0,2.0,2.0,401.7327589999695,1.0,1.0,phase_1,,,,,,,,,,,,,magenta,I
322.0,6.0,2.0,1.0,4.0,4.0,327.2254090002207,1.0,1.0,phase_1,,,,,,,,,,,,,white,triangle
0.0,2.0,0.0,0.0,3.0,3.0,381.7979469999955,1.0,1.0,phase_1,,,,,,,,,,,,,gray,circle
345.0,2.0,2.0,0.0,3.0,3.0,364.3040419997305,1.0,1.0,phase_1,,,,,,,,,,,,,gray,circle
151.0,1.0,1.0,0.0,3.0,3.0,448.1320310001138,1.0,1.0,phase_1,,,,,,,,,,,,,cyan,flipped triangle
153.0,5.0,1.0,1.0,2.0,2.0,363.7819079999644,1.0,1.0,phase_1,,,,,,,,,,,,,green,cross
0.0,5.0,0.0,1.0,1.0,1.0,401.2436200000593,1.0,1.0,phase_1,,,,,,,,,,,,,green,cross
0.0,6.0,0.0,1.0,4.0,4.0,419.8501640003087,1.0,1.0,phase_1,,,,,,,,,,,,,white,triangle
300.0,2.0,2.0,0.0,2.0,2.0,345.328573000188,1.0,1.0,phase_1,,,,,,,,,,,,,gray,circle
644.0,3.0,3.0,0.0,3.0,3.0,345.1587049999034,1.0,1.0,phase_1,,,,,,,,,,,,,magenta,I
638.0,3.0,3.0,0.0,2.0,2.0,391.9947539998247,1.0,1.0,phase_1,,,,,,,,,,,,,magenta,I
314.0,2.0,2.0,0.0,4.0,4.0,391.86588199982,1.0,1.0,phase_1,,,,,,,,,,,,,gray,circle
0.0,1.0,0.0,0.0,1.0,1.0,364.4095530003142,1.0,1.0,phase_1,,,,,,,,,,,,,cyan,flipped triangle
143.0,5.0,1.0,1.0,4.0,4.0,345.9538260003683,1.0,1.0,phase_1,,,,,,,,,,,,,green,cross
342.0,6.0,2.0,1.0,1.0,1.0,374.0592129997822,1.0,1.0,phase_1,,,,,,,,,,,,,white,triangle
1309.0,4.0,4.0,0.0,3.0,3.0,327.328757000032,1.0,1.0,phase_1,,,,,,,,,,,,,yellow,diamond
145.0,5.0,1.0,1.0,3.0,3.0,382.9031269997358,1.0,1.0,phase_1,,,,,,,,,,,,,green,cross
182.0,1.0,1.0,0.0,1.0,1.0,345.6311509999068,1.0,1.0,phase_1,,,,,,,,,,,,,cyan,flipped triangle
138.0,1.0,1.0,0.0,3.0,3.0,420.4941689999941,1.0,1.0,phase_1,,,,,,,,,,,,,cyan,flipped triangle
160.0,1.0,1.0,0.0,2.0,2.0,337.0609670000704,1.0,1.0,phase_1,,,,,,,,,,,,,cyan,flipped triangle
186.0,1.0,1.0,0.0,2.0,2.0,337.03062200038397,1.0,1.0,phase_1,,,,,,,,,,,,,cyan,flipped triangle
0.0,8.0,0.0,1.0,2.0,2.0,344.5845810001628,1.0,1.0,phase_1,,,,,,,,,,,,,blue,hexagon
172.0,1.0,1.0,0.0,4.0,4.0,337.6507869998022,1.0,1.0,phase_1,,,,,,,,,,,,,cyan,flipped triangle
1310.0,4.0,4.0,0.0,1.0,1.0,356.4701149998655,1.0,1.0,phase_1,,,,,,,,,,,,,yellow,diamond
1320.0,4.0,4.0,0.0,4.0,4.0,317.3213509999186,1.0,1.0,phase_1,,,,,,,,,,,,,yellow,diamond
628.0,7.0,3.0,1.0,4.0,4.0,337.7591909998045,1.0,1.0,phase_1,,,,,,,,,,,,,orange,square
628.0,7.0,3.0,1.0,4.0,4.0,364.9180420002267,1.0,1.0,phase_1,,,,,,,,,,,,,orange,square
1320.0,4.0,4.0,0.0,1.0,1.0,410.7627150001463,1.0,1.0,phase_1,,,,,,,,,,,,,yellow,diamond
308.0,2.0,2.0,0.0,3.0,3.0,364.9379299999964,1.0,1.0,phase_1,,,,,,,,,,,,,gray,circle
625.0,7.0,3.0,1.0,3.0,3.0,373.4743899999557,1.0,1.0,phase_1,,,,,,,,,,,,,orange,square
1323.0,8.0,4.0,1.0,4.0,4.0,353.134066000166,1.0,1.0,phase_1,,,,,,,,,,,,,blue,hexagon
180.0,1.0,1.0,0.0,3.0,3.0,346.6006670000752,1.0,1.0,phase_1,,,,,,,,,,,,,cyan,flipped triangle
0.0,4.0,0.0,0.0,1.0,1.0,382.9787970003053,1.0,1.0,phase_1,,,,,,,,,,,,,yellow,diamond
1281.0,8.0,4.0,1.0,1.0,1.0,354.2193650000627,1.0,1.0,phase_1,,,,,,,,,,,,,blue,hexagon
1311.0,4.0,4.0,0.0,3.0,3.0,346.1130499999854,1.0,1.0,phase_1,,,,,,,,,,,,,yellow,diamond
171.0,1.0,1.0,0.0,3.0,3.0,364.5629970001209,1.0,1.0,phase_1,,,,,,,,,,,,,cyan,flipped triangle
0.0,5.0,0.0,1.0,1.0,1.0,428.6283819997152,1.0,1.0,phase_1,,,,,,,,,,,,,green,cross
327.0,2.0,2.0,0.0,3.0,3.0,382.2470959999009,1.0,1.0,phase_1,,,,,,,,,,,,,gray,circle
1324.0,4.0,4.0,0.0,4.0,4.0,410.76232999967027,1.0,1.0,phase_1,,,,,,,,,,,,,yellow,diamond
1275.0,8.0,4.0,1.0,1.0,1.0,671.4164059999348,1.0,1.0,phase_1,,,,,,,,,,,,,blue,hexagon
1318.0,8.0,4.0,1.0,3.0,3.0,366.1200660003487,1.0,1.0,phase_1,,,,,,,,,,,,,blue,hexagon
0.0,1.0,0.0,0.0,4.0,4.0,299.5022209997842,1.0,1.0,phase_1,,,,,,,,,,,,,cyan,flipped triangle
1304.0,8.0,4.0,1.0,3.0,3.0,335.4526419998365,1.0,1.0,phase_1,,,,,,,,,,,,,blue,hexagon
1307.0,4.0,4.0,0.0,2.0,2.0,317.879006000112,1.0,1.0,phase_1,,,,,,,,,,,,,yellow,diamond
143.0,1.0,1.0,0.0,2.0,2.0,383.2504649999464,1.0,1.0,phase_1,,,,,,,,,,,,,cyan,flipped triangle
0.0,5.0,0.0,1.0,1.0,1.0,419.6847580001304,1.0,1.0,phase_1,,,,,,,,,,,,,green,cross
666.0,7.0,3.0,1.0,4.0,4.0,364.6570509999947,1.0,1.0,phase_1,,,,,,,,,,,,,orange,square
0.0,3.0,0.0,0.0,3.0,3.0,317.9596330001004,1.0,1.0,phase_1,,,,,,,,,,,,,magenta,I
667.0,7.0,3.0,1.0,1.0,1.0,374.0518700001303,1.0,1.0,phase_1,,,,,,,,,,,,,orange,square
0.0,2.0,0.0,0.0,3.0,3.0,401.416485000027,1.0,1.0,phase_1,,,,,,,,,,,,,gray,circle
158.0,5.0,1.0,1.0,1.0,1.0,357.822538000164,1.0,1.0,phase_1,,,,,,,,,,,,,green,cross
334.0,2.0,2.0,0.0,3.0,3.0,365.3479190002144,1.0,1.0,phase_1,,,,,,,,,,,,,gray,circle
1278.0,4.0,4.0,0.0,3.0,3.0,382.3294099997838,1.0,1.0,phase_1,,,,,,,,,,,,,yellow,diamond
634.0,7.0,3.0,1.0,1.0,1.0,367.4018729998352,1.0,1.0,phase_1,,,,,,,,,,,,,orange,square
0.0,8.0,0.0,1.0,2.0,2.0,373.4858309999254,2.0,1.0,phase_1,,,,,,,,,,,,,blue,hexagon
642.0,7.0,3.0,1.0,4.0,4.0,366.4684589998614,2.0,1.0,phase_1,,,,,,,,,,,,,orange,square
0.0,1.0,0.0,0.0,1.0,1.0,365.4261140000017,2.0,1.0,phase_1,,,,,,,,,,,,,cyan,flipped triangle
640.0,3.0,3.0,0.0,2.0,2.0,393.3978410000236,2.0,1.0,phase_1,,,,,,,,,,,,,magenta,I
143.0,1.0,1.0,0.0,2.0,2.0,383.6067330003061,2.0,1.0,phase_1,,,,,,,,,,,,,cyan,flipped triangle
673.0,7.0,3.0,1.0,4.0,4.0,411.6725839999162,2.0,1.0,phase_1,,,,,,,,,,,,,orange,square
0.0,7.0,0.0,1.0,3.0,3.0,383.8077350001185,2.0,1.0,phase_1,,,,,,,,,,,,,orange,square
154.0,5.0,1.0,1.0,1.0,1.0,440.1818329997695,2.0,1.0,phase_1,,,,,,,,,,,,,green,cross
1292.0,4.0,4.0,0.0,4.0,4.0,391.8184710000787,2.0,1.0,phase_1,,,,,,,,,,,,,yellow,diamond
156.0,1.0,1.0,0.0,1.0,1.0,421.1140099996555,2.0,1.0,phase_1,,,,,,,,,,,,,cyan,flipped triangle
178.0,5.0,1.0,1.0,4.0,4.0,411.1261200000626,2.0,1.0,phase_1,,,,,,,,,,,,,green,cross
0.0,7.0,0.0,1.0,3.0,3.0,402.3020720001113,2.0,1.0,phase_1,,,,,,,,,,,,,orange,square
0.0,4.0,0.0,0.0,4.0,4.0,363.8071349996608,2.0,1.0,phase_1,,,,,,,,,,,,,yellow,diamond
669.0,7.0,3.0,1.0,3.0,3.0,345.8754499997667,2.0,1.0,phase_1,,,,,,,,,,,,,orange,square
0.0,6.0,0.0,1.0,1.0,1.0,364.3703849998019,2.0,1.0,phase_1,,,,,,,,,,,,,white,triangle
334.0,2.0,2.0,0.0,2.0,2.0,344.5130380000591,2.0,1.0,phase_1,,,,,,,,,,,,,gray,circle
171.0,5.0,1.0,1.0,3.0,3.0,344.5177920002606,2.0,1.0,phase_1,,,,,,,,,,,,,green,cross
1316.0,8.0,4.0,1.0,2.0,2.0,354.6383329999116,2.0,1.0,phase_1,,,,,,,,,,,,,blue,hexagon
1279.0,8.0,4.0,1.0,2.0,2.0,374.2240850001508,2.0,1.0,phase_1,,,,,,,,,,,,,blue,hexagon
178.0,1.0,1.0,0.0,1.0,1.0,400.8989809999548,2.0,1.0,phase_1,,,,,,,,,,,,,cyan,flipped triangle
653.0,3.0,3.0,0.0,3.0,3.0,477.8122890002123,2.0,1.0,phase_1,,,,,,,,,,,,,magenta,I
0.0,1.0,0.0,0.0,1.0,1.0,504.51940600032685,2.0,1.0,phase_1,,,,,,,,,,,,,cyan,flipped triangle
0.0,5.0,0.0,1.0,4.0,4.0,383.0670520001149,2.0,1.0,phase_1,,,,,,,,,,,,,green,cross
0.0,5.0,0.0,1.0,1.0,1.0,402.4697770000784,2.0,1.0,phase_1,,,,,,,,,,,,,green,cross
647.0,3.0,3.0,0.0,2.0,2.0,337.7670680001756,2.0,1.0,phase_1,,,,,,,,,,,,,magenta,I
638.0,7.0,3.0,1.0,4.0,4.0,393.1268679998538,2.0,1.0,phase_1,,,,,,,,,,,,,orange,square
334.0,6.0,2.0,1.0,1.0,1.0,446.4030019998972,2.0,1.0,phase_1,,,,,,,,,,,,,white,triangle
653.0,7.0,3.0,1.0,1.0,1.0,449.3176639998637,2.0,1.0,phase_1,,,,,,,,,,,,,orange,square
145.0,1.0,1.0,0.0,3.0,3.0,412.5905959999727,2.0,1.0,phase_1,,,,,,,,,,,,,cyan,flipped triangle
1297.0,4.0,4.0,0.0,2.0,2.0,392.5862270002653,2.0,1.0,phase_1,,,,,,,,,,,,,yellow,diamond
180.0,1.0,1.0,0.0,2.0,2.0,682.3900639997191,2.0,1.0,phase_1,,,,,,,,,,,,,cyan,flipped triangle
162.0,5.0,1.0,1.0,3.0,3.0,393.0744529998264,2.0,1.0,phase_1,,,,,,,,,,,,,green,cross
322.0,6.0,2.0,1.0,4.0,4.0,410.110528000132,2.0,1.0,phase_1,,,,,,,,,,,,,white,triangle
655.0,7.0,3.0,1.0,3.0,3.0,382.5702320000346,2.0,1.0,phase_1,,,,,,,,,,,,,orange,square
0.0,6.0,0.0,1.0,4.0,4.0,356.9110099997488,2.0,1.0,phase_1,,,,,,,,,,,,,white,triangle
0.0,6.0,0.0,1.0,1.0,1.0,318.6721450001641,2.0,1.0,phase_1,,,,,,,,,,,,,white,triangle
326.0,2.0,2.0,0.0,3.0,3.0,382.9944300000534,2.0,1.0,phase_1,,,,,,,,,,,,,gray,circle
1309.0,8.0,4.0,1.0,3.0,3.0,401.5770609998981,2.0,1.0,phase_1,,,,,,,,,,,,,blue,hexagon
674.0,3.0,3.0,0.0,3.0,3.0,429.0913620002357,2.0,1.0,phase_1,,,,,,,,,,,,,magenta,I
322.0,6.0,2.0,1.0,3.0,3.0,400.8545110000341,2.0,1.0,phase_1,,,,,,,,,,,,,white,triangle
304.0,2.0,2.0,0.0,4.0,4.0,428.9609970001038,2.0,1.0,phase_1,,,,,,,,,,,,,gray,circle
648.0,7.0,3.0,1.0,1.0,1.0,475.7888879998972,2.0,1.0,phase_1,,,,,,,,,,,,,orange,square
0.0,2.0,0.0,0.0,4.0,4.0,513.0450139999994,2.0,1.0,phase_1,,,,,,,,,,,,,gray,circle
1286.0,8.0,4.0,1.0,4.0,4.0,391.6808400003901,2.0,1.0,phase_1,,,,,,,,,,,,,blue,hexagon
337.0,2.0,2.0,0.0,2.0,2.0,635.4592850002518,2.0,1.0,phase_1,,,,,,,,,,,,,gray,circle
625.0,3.0,3.0,0.0,3.0,3.0,336.115797000275,2.0,1.0,phase_1,,,,,,,,,,,,,magenta,I
339.0,2.0,2.0,0.0,4.0,4.0,391.8549939999138,2.0,1.0,phase_1,,,,,,,,,,,,,gray,circle
148.0,5.0,1.0,1.0,3.0,3.0,363.5361350002313,2.0,1.0,phase_1,,,,,,,,,,,,,green,cross
627.0,7.0,3.0,1.0,3.0,3.0,485.236287999669,2.0,1.0,phase_1,,,,,,,,,,,,,orange,square
143.0,5.0,1.0,1.0,4.0,4.0,364.7492830000374,2.0,1.0,phase_1,,,,,,,,,,,,,green,cross
322.0,2.0,2.0,0.0,1.0,1.0,373.3933999997134,2.0,1.0,phase_1,,,,,,,,,,,,,gray,circle
322.0,2.0,2.0,0.0,2.0,2.0,401.330008000059,2.0,1.0,phase_1,,,,,,,,,,,,,gray,circle
346.0,2.0,2.0,0.0,4.0,4.0,614.8518610002611,2.0,1.0,phase_1,,,,,,,,,,,,,gray,circle
634.0,3.0,3.0,0.0,4.0,4.0,373.8801619997502,2.0,1.0,phase_1,,,,,,,,,,,,,magenta,I
0.0,4.0,0.0,0.0,3.0,3.0,317.5226069997734,2.0,1.0,phase_1,,,,,,,,,,,,,yellow,diamond
175.0,5.0,1.0,1.0,2.0,2.0,391.9802249997701,2.0,1.0,phase_1,,,,,,,,,,,,,green,cross
0.0,8.0,0.0,1.0,1.0,1.0,401.1396430000786,2.0,1.0,phase_1,,,,,,,,,,,,,blue,hexagon
144.0,5.0,1.0,1.0,4.0,4.0,327.0008119998238,2.0,1.0,phase_1,,,,,,,,,,,,,green,cross
655.0,3.0,3.0,0.0,4.0,4.0,337.0772980001675,2.0,1.0,phase_1,,,,,,,,,,,,,magenta,I
1282.0,8.0,4.0,1.0,1.0,1.0,345.4931629999009,2.0,1.0,phase_1,,,,,,,,,,,,,blue,hexagon
151.0,5.0,1.0,1.0,2.0,2.0,494.7385939999549,2.0,1.0,phase_1,,,,,,,,,,,,,green,cross
308.0,6.0,2.0,1.0,2.0,2.0,457.3911040001803,2.0,1.0,phase_1,,,,,,,,,,,,,white,triangle
166.0,5.0,1.0,1.0,1.0,1.0,493.2334919999448,2.0,1.0,phase_1,,,,,,,,,,,,,green,cross
656.0,3.0,3.0,0.0,3.0,3.0,447.0871839998835,2.0,1.0,phase_1,,,,,,,,,,,,,magenta,I
0.0,1.0,0.0,0.0,2.0,2.0,438.8541529997383,2.0,1.0,phase_1,,,,,,,,,,,,,cyan,flipped triangle
634.0,3.0,3.0,0.0,1.0,1.0,401.053989999582,2.0,1.0,phase_1,,,,,,,,,,,,,magenta,I
1301.0,4.0,4.0,0.0,4.0,4.0,325.9310990001722,2.0,1.0,phase_1,,,,,,,,,,,,,yellow,diamond
1285.0,4.0,4.0,0.0,3.0,3.0,335.2742300003228,2.0,1.0,phase_1,,,,,,,,,,,,,yellow,diamond
302.0,2.0,2.0,0.0,2.0,2.0,373.6104449999402,2.0,1.0,phase_1,,,,,,,,,,,,,gray,circle
653.0,7.0,3.0,1.0,4.0,4.0,364.8358169998573,2.0,1.0,phase_1,,,,,,,,,,,,,orange,square
0.0,4.0,0.0,0.0,2.0,2.0,383.3223889996588,2.0,1.0,phase_1,,,,,,,,,,,,,yellow,diamond
0.0,3.0,0.0,0.0,2.0,2.0,419.7503660002439,2.0,1.0,phase_1,,,,,,,,,,,,,magenta,I
0.0,3.0,0.0,0.0,2.0,2.0,410.1335749996906,2.0,1.0,phase_1,,,,,,,,,,,,,magenta,I
334.0,2.0,2.0,0.0,4.0,4.0,382.164954000018,2.0,1.0,phase_1,,,,,,,,,,,,,gray,circle
166.0,1.0,1.0,0.0,4.0,4.0,410.5207910001809,2.0,1.0,phase_1,,,,,,,,,,,,,cyan,flipped triangle
182.0,5.0,1.0,1.0,1.0,1.0,392.271090000122,2.0,1.0,phase_1,,,,,,,,,,,,,green,cross
667.0,3.0,3.0,0.0,4.0,4.0,346.0979050000787,2.0,1.0,phase_1,,,,,,,,,,,,,magenta,I
0.0,3.0,0.0,0.0,4.0,4.0,363.4764209996319,2.0,1.0,phase_1,,,,,,,,,,,,,magenta,I
0.0,2.0,0.0,0.0,4.0,4.0,429.5506779999414,2.0,1.0,phase_1,,,,,,,,,,,,,gray,circle
627.0,3.0,3.0,0.0,3.0,3.0,475.1604390003194,2.0,1.0,phase_1,,,,,,,,,,,,,magenta,I
337.0,2.0,2.0,0.0,2.0,2.0,402.7422959998148,2.0,1.0,phase_1,,,,,,,,,,,,,gray,circle
319.0,2.0,2.0,0.0,1.0,1.0,410.6946169999901,2.0,1.0,phase_1,,,,,,,,,,,,,gray,circle
1314.0,4.0,4.0,0.0,4.0,4.0,364.602270999967,2.0,1.0,phase_1,,,,,,,,,,,,,yellow,diamond
639.0,3.0,3.0,0.0,2.0,2.0,419.5713969997996,2.0,1.0,phase_1,,,,,,,,,,,,,magenta,I
1320.0,4.0,4.0,0.0,1.0,1.0,354.7714090000227,2.0,1.0,phase_1,,,,,,,,,,,,,yellow,diamond
0.0,4.0,0.0,0.0,3.0,3.0,420.1526599999852,2.0,1.0,phase_1,,,,,,,,,,,,,yellow,diamond
334.0,6.0,2.0,1.0,2.0,2.0,428.6190239999996,2.0,1.0,phase_1,,,,,,,,,,,,,white,triangle
0.0,3.0,0.0,0.0,2.0,2.0,345.5323039997893,2.0,1.0,phase_1,,,,,,,,,,,,,magenta,I
342.0,2.0,2.0,0.0,2.0,2.0,381.6144769998573,2.0,1.0,phase_1,,,,,,,,,,,,,gray,circle
1302.0,4.0,4.0,0.0,2.0,2.0,336.456451000231,2.0,1.0,phase_1,,,,,,,,,,,,,yellow,diamond
0.0,3.0,0.0,0.0,4.0,4.0,345.7684380000501,2.0,1.0,phase_1,,,,,,,,,,,,,magenta,I
327.0,6.0,2.0,1.0,4.0,4.0,345.917313999962,2.0,1.0,phase_1,,,,,,,,,,,,,white,triangle
335.0,2.0,2.0,0.0,1.0,1.0,373.2958919999873,2.0,1.0,phase_1,,,,,,,,,,,,,gray,circle
626.0,3.0,3.0,0.0,3.0,3.0,344.6802090002165,2.0,1.0,phase_1,,,,,,,,,,,,,magenta,I
0.0,8.0,0.0,1.0,4.0,4.0,363.5403270000097,2.0,1.0,phase_1,,,,,,,,,,,,,blue,hexagon
170.0,5.0,1.0,1.0,1.0,1.0,336.1524329998246,2.0,1.0,phase_1,,,,,,,,,,,,,green,cross
318.0,6.0,2.0,1.0,1.0,1.0,364.2837130000771,2.0,2.0,phase_1,,,,,,,,,,,,,white,triangle
162.0,5.0,1.0,1.0,4.0,4.0,420.0443749996339,2.0,1.0,phase_1,,,,,,,,,,,,,green,cross
331.0,2.0,2.0,0.0,3.0,3.0,466.0387929998251,2.0,1.0,phase_1,,,,,,,,,,,,,gray,circle
1306.0,4.0,4.0,0.0,3.0,3.0,382.2853680003391,2.0,1.0,phase_1,,,,,,,,,,,,,yellow,diamond
0.0,6.0,0.0,1.0,2.0,2.0,466.2462720002622,3.0,1.0,phase_1,,,,,,,,,,,,,white,triangle
138.0,5.0,1.0,1.0,1.0,1.0,431.1748620002618,3.0,1.0,phase_1,,,,,,,,,,,,,green,cross
1309.0,8.0,4.0,1.0,1.0,1.0,345.3414169998723,3.0,1.0,phase_1,,,,,,,,,,,,,blue,hexagon
1318.0,4.0,4.0,0.0,4.0,4.0,299.1121509999175,3.0,1.0,phase_1,,,,,,,,,,,,,yellow,diamond
1283.0,8.0,4.0,1.0,4.0,4.0,345.6821330000821,3.0,1.0,phase_1,,,,,,,,,,,,,blue,hexagon
177.0,1.0,1.0,0.0,1.0,1.0,318.5849380001855,3.0,1.0,phase_1,,,,,,,,,,,,,cyan,flipped triangle
1309.0,4.0,4.0,0.0,3.0,3.0,327.6043910000226,3.0,1.0,phase_1,,,,,,,,,,,,,yellow,diamond
319.0,6.0,2.0,1.0,1.0,1.0,298.7207999999555,3.0,1.0,phase_1,,,,,,,,,,,,,white,triangle
313.0,2.0,2.0,0.0,4.0,4.0,281.5126929999678,3.0,1.0,phase_1,,,,,,,,,,,,,gray,circle
139.0,5.0,1.0,1.0,4.0,4.0,345.846057000017,3.0,1.0,phase_1,,,,,,,,,,,,,green,cross
331.0,6.0,2.0,1.0,1.0,1.0,346.5899840002748,3.0,1.0,phase_1,,,,,,,,,,,,,white,triangle
0.0,7.0,0.0,1.0,2.0,2.0,411.5406129999428,3.0,1.0,phase_1,,,,,,,,,,,,,orange,square
0.0,1.0,0.0,0.0,2.0,2.0,465.4354680001233,3.0,1.0,phase_1,,,,,,,,,,,,,cyan,flipped triangle
170.0,1.0,1.0,0.0,1.0,1.0,467.5672910002504,3.0,1.0,phase_1,,,,,,,,,,,,,cyan,flipped triangle
659.0,3.0,3.0,0.0,4.0,4.0,392.7750610000657,3.0,1.0,phase_1,,,,,,,,,,,,,magenta,I
0.0,1.0,0.0,0.0,4.0,4.0,420.3901769997173,3.0,1.0,phase_1,,,,,,,,,,,,,cyan,flipped triangle
326.0,6.0,2.0,1.0,2.0,2.0,502.99804200039944,3.0,1.0,phase_1,,,,,,,,,,,,,white,triangle
160.0,5.0,1.0,1.0,3.0,3.0,374.6470529999897,3.0,1.0,phase_1,,,,,,,,,,,,,green,cross
1302.0,4.0,4.0,0.0,2.0,2.0,504.1002039997693,3.0,1.0,phase_1,,,,,,,,,,,,,yellow,diamond
675.0,3.0,3.0,0.0,1.0,1.0,325.7364669998424,3.0,1.0,phase_1,,,,,,,,,,,,,magenta,I
1278.0,8.0,4.0,1.0,2.0,2.0,410.5458740000358,3.0,1.0,phase_1,,,,,,,,,,,,,blue,hexagon
335.0,6.0,2.0,1.0,1.0,1.0,495.665363000171,3.0,1.0,phase_1,,,,,,,,,,,,,white,triangle
0.0,7.0,0.0,1.0,4.0,4.0,400.1575319998665,3.0,1.0,phase_1,,,,,,,,,,,,,orange,square
149.0,1.0,1.0,0.0,1.0,1.0,483.7816770000245,3.0,1.0,phase_1,,,,,,,,,,,,,cyan,flipped triangle
174.0,5.0,1.0,1.0,4.0,4.0,438.0091940001875,3.0,1.0,phase_1,,,,,,,,,,,,,green,cross
1276.0,8.0,4.0,1.0,2.0,2.0,485.3456780001579,3.0,1.0,phase_1,,,,,,,,,,,,,blue,hexagon
658.0,7.0,3.0,1.0,2.0,2.0,532.1302129996184,3.0,1.0,phase_1,,,,,,,,,,,,,orange,square
647.0,7.0,3.0,1.0,3.0,3.0,476.273061000029,3.0,1.0,phase_1,,,,,,,,,,,,,orange,square
628.0,3.0,3.0,0.0,1.0,1.0,298.2236660000126,3.0,1.0,phase_1,,,,,,,,,,,,,magenta,I
332.0,6.0,2.0,1.0,2.0,2.0,402.2922600001948,3.0,1.0,phase_1,,,,,,,,,,,,,white,triangle
1311.0,8.0,4.0,1.0,4.0,4.0,354.9157289999129,3.0,1.0,phase_1,,,,,,,,,,,,,blue,hexagon
322.0,2.0,2.0,0.0,1.0,1.0,382.3518270000932,3.0,1.0,phase_1,,,,,,,,,,,,,gray,circle
674.0,7.0,3.0,1.0,3.0,3.0,364.4189699998605,3.0,1.0,phase_1,,,,,,,,,,,,,orange,square
326.0,2.0,2.0,0.0,1.0,1.0,549.9207359998763,3.0,1.0,phase_1,,,,,,,,,,,,,gray,circle
657.0,3.0,3.0,0.0,4.0,4.0,345.4159170000821,3.0,1.0,phase_1,,,,,,,,,,,,,magenta,I
0.0,5.0,0.0,1.0,4.0,4.0,354.6716010000637,3.0,1.0,phase_1,,,,,,,,,,,,,green,cross
304.0,2.0,2.0,0.0,3.0,3.0,355.0695359999736,3.0,1.0,phase_1,,,,,,,,,,,,,gray,circle
154.0,1.0,1.0,0.0,3.0,3.0,363.7546529998872,3.0,1.0,phase_1,,,,,,,,,,,,,cyan,flipped triangle
646.0,7.0,3.0,1.0,4.0,4.0,289.2070910002076,3.0,1.0,phase_1,,,,,,,,,,,,,orange,square
1279.0,8.0,4.0,1.0,4.0,4.0,316.3974429999143,3.0,1.0,phase_1,,,,,,,,,,,,,blue,hexagon
339.0,6.0,2.0,1.0,3.0,3.0,409.9434800000381,3.0,1.0,phase_1,,,,,,,,,,,,,white,triangle
0.0,4.0,0.0,0.0,3.0,3.0,327.1533749998525,3.0,1.0,phase_1,,,,,,,,,,,,,yellow,diamond
348.0,2.0,2.0,0.0,2.0,2.0,390.0393999997504,3.0,2.0,phase_1,,,,,,,,,,,,,gray,circle
1301.0,8.0,4.0,1.0,4.0,4.0,325.3279099999417,3.0,1.0,phase_1,,,,,,,,,,,,,blue,hexagon
1310.0,8.0,4.0,1.0,3.0,3.0,419.9412459997802,3.0,1.0,phase_1,,,,,,,,,,,,,blue,hexagon
1289.0,4.0,4.0,0.0,1.0,1.0,335.3797999998278,3.0,1.0,phase_1,,,,,,,,,,,,,yellow,diamond
318.0,2.0,2.0,0.0,3.0,3.0,373.2739990000482,3.0,1.0,phase_1,,,,,,,,,,,,,gray,circle
313.0,6.0,2.0,1.0,2.0,2.0,410.9046990001843,3.0,1.0,phase_1,,,,,,,,,,,,,white,triangle
0.0,4.0,0.0,0.0,1.0,1.0,300.030438000249,3.0,1.0,phase_1,,,,,,,,,,,,,yellow,diamond
1324.0,4.0,4.0,0.0,1.0,1.0,335.4356330000883,3.0,1.0,phase_1,,,,,,,,,,,,,yellow,diamond
1319.0,4.0,4.0,0.0,4.0,4.0,391.3388659998418,3.0,1.0,phase_1,,,,,,,,,,,,,yellow,diamond
0.0,6.0,0.0,1.0,2.0,2.0,438.5466899998391,3.0,1.0,phase_1,,,,,,,,,,,,,white,triangle
0.0,8.0,0.0,1.0,4.0,4.0,373.0842119998669,3.0,1.0,phase_1,,,,,,,,,,,,,blue,hexagon
651.0,3.0,3.0,0.0,1.0,1.0,379.9900330000128,3.0,1.0,phase_1,,,,,,,,,,,,,magenta,I
334.0,6.0,2.0,1.0,2.0,2.0,550.1078729998881,3.0,1.0,phase_1,,,,,,,,,,,,,white,triangle
651.0,7.0,3.0,1.0,1.0,1.0,373.2602160002898,3.0,1.0,phase_1,,,,,,,,,,,,,orange,square
1295.0,4.0,4.0,0.0,3.0,3.0,383.2153299999845,3.0,1.0,phase_1,,,,,,,,,,,,,yellow,diamond
649.0,3.0,3.0,0.0,1.0,1.0,308.3314979999159,3.0,1.0,phase_1,,,,,,,,,,,,,magenta,I
0.0,8.0,0.0,1.0,4.0,4.0,289.6048980001069,3.0,1.0,phase_1,,,,,,,,,,,,,blue,hexagon
669.0,3.0,3.0,0.0,1.0,1.0,373.2785130000593,3.0,1.0,phase_1,,,,,,,,,,,,,magenta,I
160.0,5.0,1.0,1.0,2.0,2.0,373.6327819997314,3.0,1.0,phase_1,,,,,,,,,,,,,green,cross
324.0,2.0,2.0,0.0,1.0,1.0,457.7022930002385,3.0,1.0,phase_1,,,,,,,,,,,,,gray,circle
341.0,6.0,2.0,1.0,3.0,3.0,354.313632999947,3.0,1.0,phase_1,,,,,,,,,,,,,white,triangle
0.0,7.0,0.0,1.0,3.0,3.0,399.00787400029,3.0,1.0,phase_1,,,,,,,,,,,,,orange,square
156.0,5.0,1.0,1.0,3.0,3.0,366.7387120003695,3.0,1.0,phase_1,,,,,,,,,,,,,green,cross
160.0,5.0,1.0,1.0,1.0,1.0,327.5311759998658,3.0,1.0,phase_1,,,,,,,,,,,,,green,cross
302.0,6.0,2.0,1.0,4.0,4.0,335.7542849998935,3.0,1.0,phase_1,,,,,,,,,,,,,white,triangle
0.0,4.0,0.0,0.0,4.0,4.0,316.7328639997322,3.0,1.0,phase_1,,,,,,,,,,,,,yellow,diamond
337.0,6.0,2.0,1.0,4.0,4.0,344.9936070001058,3.0,1.0,phase_1,,,,,,,,,,,,,white,triangle
174.0,1.0,1.0,0.0,2.0,2.0,352.6290930003597,3.0,1.0,phase_1,,,,,,,,,,,,,cyan,flipped triangle
314.0,6.0,2.0,1.0,3.0,3.0,345.0254570002471,3.0,1.0,phase_1,,,,,,,,,,,,,white,triangle
160.0,1.0,1.0,0.0,1.0,1.0,439.0035219998935,3.0,1.0,phase_1,,,,,,,,,,,,,cyan,flipped triangle
1297.0,8.0,4.0,1.0,4.0,4.0,344.979952000358,3.0,1.0,phase_1,,,,,,,,,,,,,blue,hexagon
174.0,5.0,1.0,1.0,2.0,2.0,308.3597869999721,3.0,1.0,phase_1,,,,,,,,,,,,,green,cross
1289.0,8.0,4.0,1.0,3.0,3.0,373.0136729996047,3.0,1.0,phase_1,,,,,,,,,,,,,blue,hexagon
652.0,3.0,3.0,0.0,3.0,3.0,401.2312370000472,3.0,1.0,phase_1,,,,,,,,,,,,,magenta,I
313.0,2.0,2.0,0.0,4.0,4.0,326.8177150002884,3.0,1.0,phase_1,,,,,,,,,,,,,gray,circle
148.0,1.0,1.0,0.0,3.0,3.0,364.7371510000994,3.0,1.0,phase_1,,,,,,,,,,,,,cyan,flipped triangle
342.0,2.0,2.0,0.0,4.0,4.0,373.6232179999206,3.0,1.0,phase_1,,,,,,,,,,,,,gray,circle
644.0,7.0,3.0,1.0,3.0,3.0,354.6104160000141,3.0,1.0,phase_1,,,,,,,,,,,,,orange,square
345.0,6.0,2.0,1.0,1.0,1.0,352.9140090004148,3.0,1.0,phase_1,,,,,,,,,,,,,white,triangle
138.0,1.0,1.0,0.0,4.0,4.0,299.2747869998311,3.0,1.0,phase_1,,,,,,,,,,,,,cyan,flipped triangle
0.0,6.0,0.0,1.0,3.0,3.0,355.9263850002025,3.0,1.0,phase_1,,,,,,,,,,,,,white,triangle
0.0,8.0,0.0,1.0,3.0,3.0,382.7157650002846,3.0,1.0,phase_1,,,,,,,,,,,,,blue,hexagon
642.0,7.0,3.0,1.0,1.0,1.0,270.8467249999557,3.0,1.0,phase_1,,,,,,,,,,,,,orange,square
1281.0,4.0,4.0,0.0,3.0,3.0,279.2657640002289,3.0,1.0,phase_1,,,,,,,,,,,,,yellow,diamond
153.0,1.0,1.0,0.0,1.0,1.0,392.1742420002374,3.0,1.0,phase_1,,,,,,,,,,,,,cyan,flipped triangle
1307.0,4.0,4.0,0.0,4.0,4.0,345.170367999799,3.0,1.0,phase_1,,,,,,,,,,,,,yellow,diamond
1275.0,4.0,4.0,0.0,1.0,1.0,355.3123570000025,3.0,1.0,phase_1,,,,,,,,,,,,,yellow,diamond
170.0,5.0,1.0,1.0,3.0,3.0,326.7440760000681,3.0,1.0,phase_1,,,,,,,,,,,,,green,cross
0.0,7.0,0.0,1.0,4.0,4.0,410.3373840002859,3.0,1.0,phase_1,,,,,,,,,,,,,orange,square
0.0,1.0,0.0,0.0,2.0,2.0,567.6937520001957,3.0,1.0,phase_1,,,,,,,,,,,,,cyan,flipped triangle
337.0,6.0,2.0,1.0,2.0,2.0,454.8984699999892,3.0,1.0,phase_1,,,,,,,,,,,,,white,triangle
638.0,7.0,3.0,1.0,4.0,4.0,428.8239020002038,3.0,1.0,phase_1,,,,,,,,,,,,,orange,square
348.0,6.0,2.0,1.0,3.0,3.0,437.8784120003729,3.0,1.0,phase_1,,,,,,,,,,,,,white,triangle
1319.0,8.0,4.0,1.0,1.0,1.0,372.7283090001947,3.0,1.0,phase_1,,,,,,,,,,,,,blue,hexagon
0.0,5.0,0.0,1.0,2.0,2.0,438.7018170000374,3.0,1.0,phase_1,,,,,,,,,,,,,green,cross
1283.0,8.0,4.0,1.0,2.0,2.0,464.6990249998453,3.0,1.0,phase_1,,,,,,,,,,,,,blue,hexagon
174.0,1.0,1.0,0.0,4.0,4.0,503.06563100002677,3.0,1.0,phase_1,,,,,,,,,,,,,cyan,flipped triangle
660.0,3.0,3.0,0.0,3.0,3.0,382.1861159999571,3.0,1.0,phase_1,,,,,,,,,,,,,magenta,I
628.0,3.0,3.0,0.0,2.0,2.0,355.467626999598,4.0,1.0,phase_1,,,,,,,,,,,,,magenta,I
0.0,8.0,0.0,1.0,3.0,3.0,402.1943529996861,4.0,1.0,phase_1,,,,,,,,,,,,,blue,hexagon
1304.0,4.0,4.0,0.0,3.0,3.0,355.104862999724,4.0,1.0,phase_1,,,,,,,,,,,,,yellow,diamond
674.0,3.0,3.0,0.0,1.0,1.0,372.5182970001697,4.0,1.0,phase_1,,,,,,,,,,,,,magenta,I
642.0,3.0,3.0,0.0,2.0,2.0,373.4458899998572,4.0,1.0,phase_1,,,,,,,,,,,,,magenta,I
0.0,6.0,0.0,1.0,4.0,4.0,290.5347129999427,4.0,1.0,phase_1,,,,,,,,,,,,,white,triangle
326.0,6.0,2.0,1.0,3.0,3.0,363.6018740003237,4.0,1.0,phase_1,,,,,,,,,,,,,white,triangle
309.0,6.0,2.0,1.0,1.0,1.0,354.7729060001074,4.0,1.0,phase_1,,,,,,,,,,,,,white,triangle
668.0,7.0,3.0,1.0,2.0,2.0,354.0290529999765,4.0,2.0,phase_1,,,,,,,,,,,,,orange,square
1296.0,8.0,4.0,1.0,3.0,3.0,439.4129920001433,4.0,1.0,phase_1,,,,,,,,,,,,,blue,hexagon
1282.0,4.0,4.0,0.0,2.0,2.0,391.1852390001513,4.0,1.0,phase_1,,,,,,,,,,,,,yellow,diamond
338.0,2.0,2.0,0.0,1.0,1.0,345.3795390000778,4.0,1.0,phase_1,,,,,,,,,,,,,gray,circle
0.0,5.0,0.0,1.0,1.0,1.0,372.7319740000894,4.0,1.0,phase_1,,,,,,,,,,,,,green,cross
174.0,1.0,1.0,0.0,2.0,2.0,421.2637460000223,4.0,1.0,phase_1,,,,,,,,,,,,,cyan,flipped triangle
149.0,5.0,1.0,1.0,1.0,1.0,355.0027370001771,4.0,1.0,phase_1,,,,,,,,,,,,,green,cross
186.0,1.0,1.0,0.0,3.0,3.0,428.9598710001883,4.0,1.0,phase_1,,,,,,,,,,,,,cyan,flipped triangle
175.0,1.0,1.0,0.0,4.0,4.0,403.4387750002679,4.0,1.0,phase_1,,,,,,,,,,,,,cyan,flipped triangle
164.0,1.0,1.0,0.0,4.0,4.0,354.2062120000082,4.0,1.0,phase_1,,,,,,,,,,,,,cyan,flipped triangle
0.0,2.0,0.0,0.0,4.0,4.0,390.9057790001498,4.0,1.0,phase_1,,,,,,,,,,,,,gray,circle
1292.0,8.0,4.0,1.0,4.0,4.0,383.2309290000921,4.0,1.0,phase_1,,,,,,,,,,,,,blue,hexagon
313.0,6.0,2.0,1.0,3.0,3.0,327.0108689998778,4.0,1.0,phase_1,,,,,,,,,,,,,white,triangle
0.0,1.0,0.0,0.0,2.0,2.0,391.5676960000382,4.0,1.0,phase_1,,,,,,,,,,,,,cyan,flipped triangle
0.0,3.0,0.0,0.0,1.0,1.0,586.2887260000207,4.0,1.0,phase_1,,,,,,,,,,,,,magenta,I
148.0,5.0,1.0,1.0,2.0,2.0,372.6929770000424,4.0,1.0,phase_1,,,,,,,,,,,,,green,cross
675.0,7.0,3.0,1.0,3.0,3.0,337.0505020002383,4.0,1.0,phase_1,,,,,,,,,,,,,orange,square
316.0,6.0,2.0,1.0,3.0,3.0,373.5081129998434,4.0,1.0,phase_1,,,,,,,,,,,,,white,triangle
0.0,7.0,0.0,1.0,4.0,4.0,354.0306960003363,4.0,1.0,phase_1,,,,,,,,,,,,,orange,square
0.0,3.0,0.0,0.0,2.0,2.0,382.1422460000576,4.0,1.0,phase_1,,,,,,,,,,,,,magenta,I
160.0,1.0,1.0,0.0,4.0,4.0,456.8001269999513,4.0,1.0,phase_1,,,,,,,,,,,,,cyan,flipped triangle
144.0,1.0,1.0,0.0,2.0,2.0,401.2131579997913,4.0,1.0,phase_1,,,,,,,,,,,,,cyan,flipped triangle
164.0,5.0,1.0,1.0,4.0,4.0,344.8769520000496,4.0,1.0,phase_1,,,,,,,,,,,,,green,cross
304.0,6.0,2.0,1.0,1.0,1.0,315.8078700002988,4.0,1.0,phase_1,,,,,,,,,,,,,white,triangle
1283.0,4.0,4.0,0.0,2.0,2.0,307.8985500001181,4.0,1.0,phase_1,,,,,,,,,,,,,yellow,diamond
0.0,2.0,0.0,0.0,2.0,2.0,382.0042100001046,4.0,1.0,phase_1,,,,,,,,,,,,,gray,circle
0.0,1.0,0.0,0.0,4.0,4.0,468.3711630000289,4.0,2.0,phase_1,,,,,,,,,,,,,cyan,flipped triangle
175.0,5.0,1.0,1.0,2.0,2.0,371.4202229998591,4.0,1.0,phase_1,,,,,,,,,,,,,green,cross
1303.0,4.0,4.0,0.0,1.0,1.0,354.5184600002358,4.0,1.0,phase_1,,,,,,,,,,,,,yellow,diamond
1283.0,4.0,4.0,0.0,3.0,3.0,411.5702639996925,4.0,1.0,phase_1,,,,,,,,,,,,,yellow,diamond
162.0,1.0,1.0,0.0,4.0,4.0,402.0294490001106,4.0,1.0,phase_1,,,,,,,,,,,,,cyan,flipped triangle
1307.0,8.0,4.0,1.0,2.0,2.0,326.2613249999049,4.0,1.0,phase_1,,,,,,,,,,,,,blue,hexagon
349.0,2.0,2.0,0.0,1.0,1.0,381.8769060003433,4.0,1.0,phase_1,,,,,,,,,,,,,gray,circle
309.0,2.0,2.0,0.0,1.0,1.0,437.7465279999342,4.0,1.0,phase_1,,,,,,,,,,,,,gray,circle
638.0,3.0,3.0,0.0,4.0,4.0,465.2271149998341,4.0,1.0,phase_1,,,,,,,,,,,,,magenta,I
673.0,3.0,3.0,0.0,2.0,2.0,410.0795699996524,4.0,1.0,phase_1,,,,,,,,,,,,,magenta,I
1279.0,4.0,4.0,0.0,4.0,4.0,484.9872760000835,4.0,1.0,phase_1,,,,,,,,,,,,,yellow,diamond
175.0,1.0,1.0,0.0,1.0,1.0,364.9965270001303,4.0,1.0,phase_1,,,,,,,,,,,,,cyan,flipped triangle
646.0,3.0,3.0,0.0,1.0,1.0,400.7361419999142,4.0,1.0,phase_1,,,,,,,,,,,,,magenta,I
1320.0,8.0,4.0,1.0,2.0,2.0,335.6466740001451,4.0,1.0,phase_1,,,,,,,,,,,,,blue,hexagon
668.0,3.0,3.0,0.0,3.0,3.0,429.8184740000579,4.0,1.0,phase_1,,,,,,,,,,,,,magenta,I
338.0,6.0,2.0,1.0,4.0,4.0,559.2342129998542,4.0,1.0,phase_1,,,,,,,,,,,,,white,triangle
651.0,3.0,3.0,0.0,2.0,2.0,382.4784390003515,4.0,1.0,phase_1,,,,,,,,,,,,,magenta,I
311.0,6.0,2.0,1.0,3.0,3.0,569.336531999852,4.0,1.0,phase_1,,,,,,,,,,,,,white,triangle
139.0,1.0,1.0,0.0,3.0,3.0,400.1523380002254,4.0,1.0,phase_1,,,,,,,,,,,,,cyan,flipped triangle
164.0,1.0,1.0,0.0,4.0,4.0,449.1241720002108,4.0,1.0,phase_1,,,,,,,,,,,,,cyan,flipped triangle
634.0,7.0,3.0,1.0,1.0,1.0,615.9497059998102,4.0,1.0,phase_1,,,,,,,,,,,,,orange,square
1323.0,4.0,4.0,0.0,1.0,1.0,466.3605490000009,4.0,1.0,phase_1,,,,,,,,,,,,,yellow,diamond
0.0,7.0,0.0,1.0,3.0,3.0,457.5672069995562,4.0,1.0,phase_1,,,,,,,,,,,,,orange,square
651.0,7.0,3.0,1.0,4.0,4.0,373.4409839998989,4.0,1.0,phase_1,,,,,,,,,,,,,orange,square
300.0,6.0,2.0,1.0,4.0,4.0,365.2323960000103,4.0,1.0,phase_1,,,,,,,,,,,,,white,triangle
1320.0,8.0,4.0,1.0,4.0,4.0,428.5178740001356,4.0,1.0,phase_1,,,,,,,,,,,,,blue,hexagon
302.0,6.0,2.0,1.0,2.0,2.0,419.6546709999893,4.0,1.0,phase_1,,,,,,,,,,,,,white,triangle
162.0,1.0,1.0,0.0,3.0,3.0,372.7217820000987,4.0,1.0,phase_1,,,,,,,,,,,,,cyan,flipped triangle
319.0,2.0,2.0,0.0,4.0,4.0,326.6826349999974,4.0,1.0,phase_1,,,,,,,,,,,,,gray,circle
0.0,5.0,0.0,1.0,2.0,2.0,354.222435000338,4.0,1.0,phase_1,,,,,,,,,,,,,green,cross
634.0,3.0,3.0,0.0,1.0,1.0,335.3559349998249,4.0,1.0,phase_1,,,,,,,,,,,,,magenta,I
186.0,5.0,1.0,1.0,2.0,2.0,362.3872319999464,4.0,1.0,phase_1,,,,,,,,,,,,,green,cross
319.0,6.0,2.0,1.0,2.0,2.0,483.9519849997487,4.0,1.0,phase_1,,,,,,,,,,,,,white,triangle
660.0,7.0,3.0,1.0,1.0,1.0,335.4908059995978,4.0,1.0,phase_1,,,,,,,,,,,,,orange,square
666.0,3.0,3.0,0.0,2.0,2.0,346.1605310003506,4.0,1.0,phase_1,,,,,,,,,,,,,magenta,I
1295.0,8.0,4.0,1.0,2.0,2.0,354.6904220002034,4.0,1.0,phase_1,,,,,,,,,,,,,blue,hexagon
0.0,3.0,0.0,0.0,4.0,4.0,483.7591099999372,4.0,1.0,phase_1,,,,,,,,,,,,,magenta,I
0.0,8.0,0.0,1.0,2.0,2.0,383.1973119999929,4.0,1.0,phase_1,,,,,,,,,,,,,blue,hexagon
331.0,2.0,2.0,0.0,2.0,2.0,410.6728450001355,4.0,1.0,phase_1,,,,,,,,,,,,,gray,circle
0.0,2.0,0.0,0.0,4.0,4.0,410.2111060001334,4.0,1.0,phase_1,,,,,,,,,,,,,gray,circle
659.0,7.0,3.0,1.0,3.0,3.0,335.6622389997028,4.0,1.0,phase_1,,,,,,,,,,,,,orange,square
0.0,3.0,0.0,0.0,2.0,2.0,354.0076029999,4.0,1.0,phase_1,,,,,,,,,,,,,magenta,I
1320.0,8.0,4.0,1.0,4.0,4.0,391.3161740001669,4.0,1.0,phase_1,,,,,,,,,,,,,blue,hexagon
346.0,6.0,2.0,1.0,3.0,3.0,363.3282750001854,4.0,1.0,phase_1,,,,,,,,,,,,,white,triangle
1279.0,4.0,4.0,0.0,2.0,2.0,384.1110270000172,4.0,1.0,phase_1,,,,,,,,,,,,,yellow,diamond
0.0,2.0,0.0,0.0,4.0,4.0,411.8775980000464,4.0,1.0,phase_1,,,,,,,,,,,,,gray,circle
0.0,6.0,0.0,1.0,1.0,1.0,363.4403480000401,4.0,1.0,phase_1,,,,,,,,,,,,,white,triangle
642.0,3.0,3.0,0.0,4.0,4.0,374.0967930002625,4.0,1.0,phase_1,,,,,,,,,,,,,magenta,I
148.0,5.0,1.0,1.0,1.0,1.0,410.3709239998352,4.0,1.0,phase_1,,,,,,,,,,,,,green,cross
172.0,5.0,1.0,1.0,3.0,3.0,345.5396300000757,4.0,1.0,phase_1,,,,,,,,,,,,,green,cross
1316.0,4.0,4.0,0.0,2.0,2.0,335.9834170000795,4.0,1.0,phase_1,,,,,,,,,,,,,yellow,diamond
1302.0,8.0,4.0,1.0,3.0,3.0,353.7715940001362,4.0,1.0,phase_1,,,,,,,,,,,,,blue,hexagon
316.0,2.0,2.0,0.0,2.0,2.0,410.7751470000949,4.0,1.0,phase_1,,,,,,,,,,,,,gray,circle
180.0,5.0,1.0,1.0,3.0,3.0,428.3668570001282,4.0,1.0,phase_1,,,,,,,,,,,,,green,cross
0.0,2.0,0.0,0.0,1.0,1.0,375.1723489999676,4.0,1.0,phase_1,,,,,,,,,,,,,gray,circle
1293.0,8.0,4.0,1.0,3.0,3.0,364.1263719996459,4.0,1.0,phase_1,,,,,,,,,,,,,blue,hexagon
658.0,3.0,3.0,0.0,4.0,4.0,382.6979390000815,4.0,1.0,phase_1,,,,,,,,,,,,,magenta,I
1324.0,8.0,4.0,1.0,1.0,1.0,391.4455489998545,4.0,1.0,phase_1,,,,,,,,,,,,,blue,hexagon
148.0,1.0,1.0,0.0,1.0,1.0,374.0274219999264,4.0,1.0,phase_1,,,,,,,,,,,,,cyan,flipped triangle
342.0,6.0,2.0,1.0,2.0,2.0,365.3919420003149,4.0,1.0,phase_1,,,,,,,,,,,,,white,triangle
1324.0,8.0,4.0,1.0,3.0,3.0,363.8387349997174,4.0,1.0,phase_1,,,,,,,,,,,,,blue,hexagon
324.0,6.0,2.0,1.0,4.0,4.0,336.1433949999082,4.0,1.0,phase_1,,,,,,,,,,,,,white,triangle
0.0,6.0,0.0,1.0,2.0,2.0,317.2024260002217,4.0,1.0,phase_1,,,,,,,,,,,,,white,triangle
1303.0,8.0,4.0,1.0,2.0,2.0,344.8704689999431,4.0,1.0,phase_1,,,,,,,,,,,,,blue,hexagon
659.0,3.0,3.0,0.0,4.0,4.0,450.2910920000431,4.0,1.0,phase_1,,,,,,,,,,,,,magenta,I
639.0,7.0,3.0,1.0,2.0,2.0,354.2357350002021,4.0,1.0,phase_1,,,,,,,,,,,,,orange,square
0.0,4.0,4.0,0.0,6.0,6.0,441.4307209999606,1.0,1.0,phase_2,go,250.0,250.0,1.0,,,,,,,,,yellow,diamond
0.0,2.0,2.0,0.0,5.0,5.0,347.2207360000539,1.0,1.0,phase_2,go,250.0,250.0,1.0,,,,,,,,,gray,circle
0.0,6.0,2.0,1.0,6.0,6.0,308.0148629996984,1.0,1.0,phase_2,go,250.0,250.0,1.0,,,,,,,,,white,triangle
0.0,4.0,4.0,0.0,6.0,6.0,327.582815000369,1.0,1.0,phase_2,go,250.0,250.0,1.0,,,,,,,,,yellow,diamond
0.0,3.0,3.0,0.0,6.0,6.0,318.7533109999094,1.0,1.0,phase_2,go,250.0,250.0,1.0,,,,,,,,,magenta,I
0.0,1.0,1.0,0.0,6.0,6.0,289.3630349999512,1.0,1.0,phase_2,go,250.0,250.0,1.0,,,,,,,,,cyan,flipped triangle
0.0,2.0,2.0,0.0,5.0,5.0,372.8680419999364,1.0,1.0,phase_2,go,250.0,250.0,1.0,,,,,,,,,gray,circle
0.0,6.0,2.0,1.0,5.0,5.0,289.8393539999233,1.0,1.0,phase_2,go,250.0,250.0,1.0,,,,,,,,,white,triangle
0.0,6.0,2.0,1.0,5.0,0.0,0.0,1.0,1.0,phase_2,stop,250.0,250.0,4.0,,,,,,,,,white,triangle
0.0,1.0,1.0,0.0,5.0,5.0,724.2696029998115,1.0,1.0,phase_2,go,300.0,250.0,1.0,,,,,,,,,cyan,flipped triangle
0.0,4.0,4.0,0.0,5.0,5.0,406.2963830001536,1.0,1.0,phase_2,go,300.0,250.0,1.0,,,,,,,,,yellow,diamond
0.0,8.0,4.0,1.0,5.0,5.0,357.6479250000375,1.0,1.0,phase_2,stop,300.0,250.0,3.0,,,,,,,,,blue,hexagon
0.0,5.0,1.0,1.0,6.0,6.0,418.2864910003445,1.0,1.0,phase_2,stop,250.0,250.0,3.0,,,,,,,,,green,cross
0.0,4.0,4.0,0.0,5.0,5.0,582.7392619999046,1.0,1.0,phase_2,go,250.0,200.0,1.0,,,,,,,,,yellow,diamond
0.0,6.0,2.0,1.0,5.0,0.0,0.0,1.0,1.0,phase_2,go,250.0,200.0,5.0,,,,,,,,,white,triangle
0.0,3.0,3.0,0.0,6.0,6.0,471.8508310002107,1.0,1.0,phase_2,go,250.0,200.0,1.0,,,,,,,,,magenta,I
0.0,3.0,3.0,0.0,6.0,6.0,403.6312109997197,1.0,1.0,phase_2,go,250.0,200.0,1.0,,,,,,,,,magenta,I
0.0,1.0,1.0,0.0,6.0,6.0,337.7597349999632,1.0,1.0,phase_2,go,250.0,200.0,1.0,,,,,,,,,cyan,flipped triangle
0.0,5.0,1.0,1.0,6.0,6.0,351.8833309999536,1.0,1.0,phase_2,stop,250.0,200.0,3.0,,,,,,,,,green,cross
0.0,3.0,3.0,0.0,6.0,6.0,1452.9582509999273,1.0,1.0,phase_2,go,250.0,150.0,1.0,,,,,,,,,magenta,I
0.0,3.0,3.0,0.0,5.0,5.0,348.0875350001042,1.0,1.0,phase_2,go,250.0,150.0,1.0,,,,,,,,,magenta,I
0.0,1.0,1.0,0.0,5.0,5.0,478.4186739998404,1.0,1.0,phase_2,go,250.0,150.0,1.0,,,,,,,,,cyan,flipped triangle
0.0,4.0,4.0,0.0,5.0,5.0,346.4020519995756,1.0,1.0,phase_2,go,250.0,150.0,1.0,,,,,,,,,yellow,diamond
0.0,5.0,1.0,1.0,6.0,6.0,308.6640579999766,1.0,1.0,phase_2,stop,250.0,150.0,3.0,,,,,,,,,green,cross
0.0,4.0,4.0,0.0,6.0,6.0,412.2863229999893,1.0,1.0,phase_2,go,250.0,100.0,1.0,,,,,,,,,yellow,diamond
0.0,7.0,3.0,1.0,5.0,5.0,427.0746670003973,1.0,1.0,phase_2,stop,250.0,100.0,3.0,,,,,,,,,orange,square
0.0,3.0,3.0,0.0,5.0,5.0,421.921946999646,1.0,1.0,phase_2,go,200.0,100.0,1.0,,,,,,,,,magenta,I
0.0,7.0,3.0,1.0,6.0,6.0,318.497901000228,1.0,1.0,phase_2,go,200.0,100.0,1.0,,,,,,,,,orange,square
0.0,5.0,1.0,1.0,6.0,6.0,310.6364969999049,1.0,1.0,phase_2,stop,200.0,100.0,3.0,,,,,,,,,green,cross
0.0,7.0,3.0,1.0,6.0,6.0,408.3458629997949,1.0,1.0,phase_2,stop,200.0,50.0,3.0,,,,,,,,,orange,square
0.0,1.0,1.0,0.0,5.0,5.0,487.4449239996465,1.0,1.0,phase_2,go,200.0,0.0,1.0,,,,,,,,,cyan,flipped triangle
0.0,2.0,2.0,0.0,5.0,5.0,440.7504170003449,1.0,1.0,phase_2,go,200.0,0.0,1.0,,,,,,,,,gray,circle
0.0,7.0,3.0,1.0,6.0,6.0,357.5086330001795,1.0,1.0,phase_2,go,200.0,0.0,1.0,,,,,,,,,orange,square
0.0,8.0,4.0,1.0,6.0,0.0,0.0,1.0,1.0,phase_2,stop,200.0,0.0,4.0,,,,,,,,,blue,hexagon
0.0,8.0,4.0,1.0,5.0,5.0,351.1394399997698,1.0,1.0,phase_2,go,200.0,50.0,1.0,,,,,,,,,blue,hexagon
0.0,8.0,4.0,1.0,5.0,5.0,433.0977239997082,1.0,1.0,phase_2,stop,200.0,50.0,3.0,,,,,,,,,blue,hexagon
0.0,5.0,1.0,1.0,5.0,5.0,609.7124140001142,2.0,1.0,phase_2,go,150.0,50.0,1.0,,,,,,,,,green,cross
0.0,3.0,3.0,0.0,5.0,5.0,338.3544150001398,2.0,1.0,phase_2,go,150.0,50.0,1.0,,,,,,,,,magenta,I
0.0,7.0,3.0,1.0,5.0,5.0,336.9454730000143,2.0,1.0,phase_2,go,150.0,50.0,1.0,,,,,,,,,orange,square
0.0,8.0,4.0,1.0,5.0,5.0,357.7249589998246,2.0,1.0,phase_2,stop,150.0,50.0,3.0,,,,,,,,,blue,hexagon
0.0,7.0,3.0,1.0,6.0,0.0,0.0,2.0,1.0,phase_2,stop,100.0,50.0,4.0,,,,,,,,,orange,square
0.0,1.0,1.0,0.0,6.0,6.0,327.9611140001179,2.0,1.0,phase_2,go,100.0,100.0,1.0,,,,,,,,,cyan,flipped triangle
0.0,4.0,4.0,0.0,5.0,5.0,366.5775079998639,2.0,1.0,phase_2,go,100.0,100.0,1.0,,,,,,,,,yellow,diamond
0.0,5.0,1.0,1.0,6.0,0.0,0.0,2.0,1.0,phase_2,stop,100.0,100.0,4.0,,,,,,,,,green,cross
0.0,5.0,1.0,1.0,5.0,5.0,266.7490879998695,2.0,1.0,phase_2,stop,100.0,150.0,3.0,,,,,,,,,green,cross
0.0,4.0,4.0,0.0,6.0,6.0,413.667739000175,2.0,1.0,phase_2,go,50.0,150.0,1.0,,,,,,,,,yellow,diamond
0.0,1.0,1.0,0.0,5.0,5.0,375.8298180000565,2.0,1.0,phase_2,go,50.0,150.0,1.0,,,,,,,,,cyan,flipped triangle
0.0,8.0,4.0,1.0,6.0,6.0,282.9659999997602,2.0,1.0,phase_2,stop,50.0,150.0,3.0,,,,,,,,,blue,hexagon
0.0,5.0,1.0,1.0,5.0,0.0,0.0,2.0,1.0,phase_2,stop,50.0,100.0,4.0,,,,,,,,,green,cross
0.0,7.0,3.0,1.0,6.0,0.0,0.0,2.0,1.0,phase_2,stop,100.0,100.0,4.0,,,,,,,,,orange,square
0.0,3.0,3.0,0.0,6.0,6.0,448.5755420000714,2.0,1.0,phase_2,go,100.0,150.0,1.0,,,,,,,,,magenta,I
0.0,6.0,2.0,1.0,5.0,5.0,303.7817159997757,2.0,1.0,phase_2,stop,100.0,150.0,3.0,,,,,,,,,white,triangle
0.0,8.0,4.0,1.0,5.0,5.0,478.910328999973,2.0,1.0,phase_2,go,50.0,150.0,1.0,,,,,,,,,blue,hexagon
0.0,4.0,4.0,0.0,5.0,5.0,357.7804279998418,2.0,1.0,phase_2,go,50.0,150.0,1.0,,,,,,,,,yellow,diamond
0.0,4.0,4.0,0.0,5.0,5.0,357.8022090000559,2.0,1.0,phase_2,go,50.0,150.0,1.0,,,,,,,,,yellow,diamond
0.0,8.0,4.0,1.0,6.0,6.0,317.6985079999213,2.0,1.0,phase_2,stop,50.0,150.0,3.0,,,,,,,,,blue,hexagon
0.0,2.0,2.0,0.0,6.0,6.0,422.7708759999586,2.0,1.0,phase_2,go,50.0,100.0,1.0,,,,,,,,,gray,circle
0.0,4.0,4.0,0.0,6.0,6.0,404.8503550002351,2.0,1.0,phase_2,go,50.0,100.0,1.0,,,,,,,,,yellow,diamond
0.0,8.0,4.0,1.0,6.0,6.0,328.5582049998083,2.0,1.0,phase_2,go,50.0,100.0,1.0,,,,,,,,,blue,hexagon
0.0,8.0,4.0,1.0,6.0,6.0,329.5298939997337,2.0,1.0,phase_2,stop,50.0,100.0,3.0,,,,,,,,,blue,hexagon
0.0,2.0,2.0,0.0,5.0,5.0,387.928181999996,2.0,1.0,phase_2,go,50.0,50.0,1.0,,,,,,,,,gray,circle
0.0,7.0,3.0,1.0,5.0,0.0,0.0,2.0,1.0,phase_2,stop,50.0,50.0,4.0,,,,,,,,,orange,square
0.0,7.0,3.0,1.0,6.0,0.0,0.0,2.0,1.0,phase_2,stop,100.0,50.0,4.0,,,,,,,,,orange,square
0.0,4.0,4.0,0.0,5.0,5.0,432.6853040001879,2.0,1.0,phase_2,go,100.0,100.0,1.0,,,,,,,,,yellow,diamond
0.0,1.0,1.0,0.0,6.0,6.0,348.3705639996515,2.0,1.0,phase_2,go,100.0,100.0,1.0,,,,,,,,,cyan,flipped triangle
0.0,7.0,3.0,1.0,5.0,0.0,0.0,2.0,1.0,phase_2,stop,100.0,100.0,4.0,,,,,,,,,orange,square
0.0,8.0,4.0,1.0,5.0,0.0,0.0,2.0,1.0,phase_2,stop,150.0,100.0,4.0,,,,,,,,,blue,hexagon
0.0,8.0,4.0,1.0,6.0,0.0,0.0,2.0,1.0,phase_2,stop,200.0,100.0,4.0,,,,,,,,,blue,hexagon
0.0,1.0,1.0,0.0,6.0,6.0,647.034000000076,2.0,1.0,phase_2,go,200.0,150.0,1.0,,,,,,,,,cyan,flipped triangle
0.0,5.0,1.0,1.0,5.0,5.0,380.3728440002487,2.0,1.0,phase_2,stop,200.0,150.0,3.0,,,,,,,,,green,cross
0.0,3.0,3.0,0.0,6.0,6.0,535.2177919999122,2.0,1.0,phase_2,go,150.0,150.0,1.0,,,,,,,,,magenta,I
0.0,5.0,1.0,1.0,6.0,6.0,355.8086769999136,2.0,1.0,phase_2,stop,150.0,150.0,3.0,,,,,,,,,green,cross
0.0,8.0,4.0,1.0,5.0,0.0,0.0,3.0,1.0,phase_2,stop,150.0,100.0,4.0,,,,,,,,,blue,hexagon
0.0,2.0,2.0,0.0,5.0,5.0,637.7018529997258,3.0,1.0,phase_2,go,200.0,100.0,1.0,,,,,,,,,gray,circle
0.0,2.0,2.0,0.0,6.0,6.0,385.6403390000196,3.0,1.0,phase_2,go,200.0,100.0,1.0,,,,,,,,,gray,circle
0.0,7.0,3.0,1.0,5.0,5.0,378.5610560003078,3.0,1.0,phase_2,stop,200.0,100.0,3.0,,,,,,,,,orange,square
0.0,4.0,4.0,0.0,6.0,6.0,395.5464740001844,3.0,1.0,phase_2,go,150.0,100.0,1.0,,,,,,,,,yellow,diamond
0.0,2.0,2.0,0.0,6.0,6.0,376.420839000275,3.0,1.0,phase_2,go,150.0,100.0,1.0,,,,,,,,,gray,circle
0.0,3.0,3.0,0.0,6.0,6.0,415.0497609998638,3.0,1.0,phase_2,go,150.0,100.0,1.0,,,,,,,,,magenta,I
0.0,3.0,3.0,0.0,5.0,5.0,404.1027690000192,3.0,1.0,phase_2,go,150.0,100.0,1.0,,,,,,,,,magenta,I
0.0,2.0,2.0,0.0,6.0,6.0,374.492157000077,3.0,1.0,phase_2,go,150.0,100.0,1.0,,,,,,,,,gray,circle
0.0,1.0,1.0,0.0,6.0,6.0,549.0171129999908,3.0,1.0,phase_2,go,150.0,100.0,1.0,,,,,,,,,cyan,flipped triangle
0.0,7.0,3.0,1.0,5.0,0.0,0.0,3.0,1.0,phase_2,stop,150.0,100.0,4.0,,,,,,,,,orange,square
0.0,6.0,2.0,1.0,5.0,0.0,0.0,3.0,1.0,phase_2,stop,200.0,100.0,4.0,,,,,,,,,white,triangle
0.0,6.0,2.0,1.0,6.0,6.0,572.421593999934,3.0,1.0,phase_2,go,250.0,100.0,1.0,,,,,,,,,white,triangle
0.0,6.0,2.0,1.0,6.0,0.0,0.0,3.0,1.0,phase_2,stop,250.0,100.0,4.0,,,,,,,,,white,triangle
0.0,2.0,2.0,0.0,5.0,5.0,432.5112719998287,3.0,1.0,phase_2,go,250.0,150.0,1.0,,,,,,,,,gray,circle
0.0,5.0,1.0,1.0,6.0,0.0,0.0,3.0,1.0,phase_2,stop,250.0,150.0,4.0,,,,,,,,,green,cross
0.0,8.0,4.0,1.0,6.0,0.0,0.0,3.0,1.0,phase_2,stop,250.0,200.0,4.0,,,,,,,,,blue,hexagon
0.0,1.0,1.0,0.0,5.0,5.0,321.1343630000556,3.0,1.0,phase_2,go,250.0,250.0,1.0,,,,,,,,,cyan,flipped triangle
0.0,7.0,3.0,1.0,6.0,0.0,0.0,3.0,1.0,phase_2,stop,250.0,250.0,4.0,,,,,,,,,orange,square
0.0,8.0,4.0,1.0,6.0,6.0,643.2607390001976,3.0,1.0,phase_2,go,250.0,300.0,1.0,,,,,,,,,blue,hexagon
0.0,6.0,2.0,1.0,6.0,6.0,575.0930620001782,3.0,1.0,phase_2,go,250.0,300.0,1.0,,,,,,,,,white,triangle
0.0,4.0,4.0,0.0,6.0,6.0,375.5127589997755,3.0,1.0,phase_2,go,250.0,300.0,1.0,,,,,,,,,yellow,diamond
0.0,2.0,2.0,0.0,5.0,5.0,460.5471820000275,3.0,1.0,phase_2,go,250.0,300.0,1.0,,,,,,,,,gray,circle
0.0,7.0,3.0,1.0,6.0,6.0,480.1261580000755,3.0,1.0,phase_2,go,250.0,300.0,1.0,,,,,,,,,orange,square
0.0,4.0,4.0,0.0,6.0,6.0,442.2960770002646,3.0,1.0,phase_2,go,250.0,300.0,1.0,,,,,,,,,yellow,diamond
0.0,6.0,2.0,1.0,5.0,5.0,338.9665949998743,3.0,1.0,phase_2,stop,250.0,300.0,3.0,,,,,,,,,white,triangle
0.0,5.0,1.0,1.0,5.0,5.0,458.976043000348,3.0,1.0,phase_2,go,200.0,300.0,1.0,,,,,,,,,green,cross
0.0,3.0,3.0,0.0,5.0,5.0,374.2934709998735,3.0,1.0,phase_2,go,200.0,300.0,1.0,,,,,,,,,magenta,I
0.0,5.0,1.0,1.0,5.0,5.0,346.8566189999365,3.0,1.0,phase_2,go,200.0,300.0,1.0,,,,,,,,,green,cross
0.0,3.0,3.0,0.0,5.0,5.0,376.1416590000408,3.0,1.0,phase_2,go,200.0,300.0,1.0,,,,,,,,,magenta,I
0.0,1.0,1.0,0.0,5.0,5.0,375.8548299997528,3.0,1.0,phase_2,go,200.0,300.0,1.0,,,,,,,,,cyan,flipped triangle
0.0,2.0,2.0,0.0,5.0,5.0,394.7591239998473,3.0,1.0,phase_2,go,200.0,300.0,1.0,,,,,,,,,gray,circle
0.0,6.0,2.0,1.0,5.0,5.0,313.0417479997049,3.0,1.0,phase_2,stop,200.0,300.0,3.0,,,,,,,,,white,triangle
0.0,6.0,2.0,1.0,6.0,0.0,0.0,3.0,1.0,phase_2,stop,150.0,300.0,4.0,,,,,,,,,white,triangle
0.0,7.0,3.0,1.0,6.0,0.0,0.0,3.0,1.0,phase_2,stop,150.0,350.0,4.0,,,,,,,,,orange,square
0.0,2.0,2.0,0.0,6.0,6.0,788.293147999866,3.0,1.0,phase_2,go,150.0,400.0,1.0,,,,,,,,,gray,circle
0.0,4.0,4.0,0.0,6.0,6.0,555.6503190000512,4.0,1.0,phase_2,go,150.0,400.0,1.0,,,,,,,,,yellow,diamond
0.0,4.0,4.0,0.0,6.0,6.0,357.223931000135,4.0,1.0,phase_2,go,150.0,400.0,1.0,,,,,,,,,yellow,diamond
0.0,6.0,2.0,1.0,6.0,6.0,452.952039000138,4.0,1.0,phase_2,stop,150.0,400.0,3.0,,,,,,,,,white,triangle
0.0,7.0,3.0,1.0,6.0,6.0,402.4029500001234,4.0,1.0,phase_2,stop,150.0,350.0,3.0,,,,,,,,,orange,square
0.0,8.0,4.0,1.0,5.0,0.0,0.0,4.0,1.0,phase_2,stop,150.0,300.0,4.0,,,,,,,,,blue,hexagon
0.0,2.0,2.0,0.0,6.0,6.0,403.4164859999691,4.0,1.0,phase_2,go,200.0,300.0,1.0,,,,,,,,,gray,circle
0.0,1.0,1.0,0.0,5.0,5.0,329.8938279999674,4.0,1.0,phase_2,go,200.0,300.0,1.0,,,,,,,,,cyan,flipped triangle
0.0,4.0,4.0,0.0,6.0,6.0,394.418909000251,4.0,1.0,phase_2,go,200.0,300.0,1.0,,,,,,,,,yellow,diamond
0.0,3.0,3.0,0.0,5.0,5.0,329.5517240003391,4.0,1.0,phase_2,go,200.0,300.0,1.0,,,,,,,,,magenta,I
0.0,2.0,2.0,0.0,5.0,5.0,413.9808009999797,4.0,1.0,phase_2,go,200.0,300.0,1.0,,,,,,,,,gray,circle
0.0,4.0,4.0,0.0,6.0,6.0,358.2882929999869,4.0,1.0,phase_2,go,200.0,300.0,1.0,,,,,,,,,yellow,diamond
0.0,8.0,4.0,1.0,5.0,5.0,468.8164710000819,4.0,1.0,phase_2,go,200.0,300.0,1.0,,,,,,,,,blue,hexagon
0.0,6.0,2.0,1.0,5.0,5.0,352.06628800006,4.0,1.0,phase_2,stop,200.0,300.0,3.0,,,,,,,,,white,triangle
0.0,3.0,3.0,0.0,5.0,5.0,479.2003729999123,4.0,1.0,phase_2,go,150.0,300.0,1.0,,,,,,,,,magenta,I
0.0,5.0,1.0,1.0,6.0,6.0,378.475772999991,4.0,1.0,phase_2,stop,150.0,300.0,3.0,,,,,,,,,green,cross
0.0,6.0,2.0,1.0,5.0,0.0,0.0,4.0,1.0,phase_2,stop,150.0,250.0,4.0,,,,,,,,,white,triangle
0.0,1.0,1.0,0.0,5.0,5.0,596.783267000319,4.0,1.0,phase_2,go,200.0,250.0,1.0,,,,,,,,,cyan,flipped triangle
0.0,5.0,1.0,1.0,6.0,0.0,0.0,4.0,1.0,phase_2,stop,200.0,250.0,4.0,,,,,,,,,green,cross
0.0,5.0,1.0,1.0,6.0,6.0,675.4456660000869,4.0,1.0,phase_2,go,200.0,300.0,1.0,,,,,,,,,green,cross
0.0,7.0,3.0,1.0,5.0,5.0,413.2475960000192,4.0,1.0,phase_2,go,200.0,300.0,1.0,,,,,,,,,orange,square
0.0,1.0,1.0,0.0,6.0,6.0,328.9612819999092,4.0,1.0,phase_2,go,200.0,300.0,1.0,,,,,,,,,cyan,flipped triangle
0.0,1.0,1.0,0.0,5.0,5.0,348.1611120000707,4.0,1.0,phase_2,go,200.0,300.0,1.0,,,,,,,,,cyan,flipped triangle
0.0,6.0,2.0,1.0,6.0,6.0,374.7776449999946,4.0,1.0,phase_2,stop,200.0,300.0,3.0,,,,,,,,,white,triangle
0.0,7.0,3.0,1.0,5.0,5.0,402.1985330000461,4.0,1.0,phase_2,stop,200.0,250.0,3.0,,,,,,,,,orange,square
0.0,6.0,2.0,1.0,6.0,0.0,0.0,4.0,1.0,phase_2,stop,150.0,250.0,4.0,,,,,,,,,white,triangle
0.0,2.0,2.0,0.0,6.0,6.0,628.8233370000853,4.0,1.0,phase_2,go,150.0,300.0,1.0,,,,,,,,,gray,circle
0.0,7.0,3.0,1.0,5.0,0.0,0.0,4.0,1.0,phase_2,stop,150.0,300.0,4.0,,,,,,,,,orange,square
0.0,1.0,1.0,0.0,6.0,6.0,403.7619280002218,4.0,1.0,phase_2,go,200.0,300.0,1.0,,,,,,,,,cyan,flipped triangle
0.0,7.0,3.0,1.0,6.0,6.0,352.8178860001389,4.0,1.0,phase_2,stop,200.0,300.0,3.0,,,,,,,,,orange,square
0.0,7.0,3.0,1.0,6.0,0.0,0.0,4.0,1.0,phase_2,stop,200.0,250.0,4.0,,,,,,,,,orange,square
0.0,8.0,4.0,1.0,5.0,5.0,470.8663839996916,4.0,1.0,phase_2,go,200.0,300.0,1.0,,,,,,,,,blue,hexagon
0.0,6.0,2.0,1.0,5.0,0.0,0.0,4.0,1.0,phase_2,stop,200.0,300.0,4.0,,,,,,,,,white,triangle
0.0,2.0,2.0,0.0,6.0,6.0,441.6672969996398,4.0,1.0,phase_2,go,250.0,300.0,1.0,,,,,,,,,gray,circle
0.0,7.0,3.0,1.0,5.0,5.0,562.7542899997025,4.0,1.0,phase_2,go,250.0,300.0,1.0,,,,,,,,,orange,square
0.0,3.0,3.0,0.0,5.0,5.0,403.550462000112,4.0,1.0,phase_2,go,250.0,300.0,1.0,,,,,,,,,magenta,I
0.0,3.0,3.0,0.0,5.0,5.0,357.4100379996707,4.0,1.0,phase_2,go,250.0,300.0,1.0,,,,,,,,,magenta,I
0.0,7.0,3.0,1.0,5.0,5.0,395.4211649997887,5.0,1.0,phase_2,stop,250.0,300.0,3.0,,,,,,,,,orange,square
0.0,5.0,1.0,1.0,6.0,6.0,431.9370809998872,5.0,1.0,phase_2,stop,200.0,300.0,3.0,,,,,,,,,green,cross
0.0,4.0,4.0,0.0,5.0,5.0,599.9742519998108,5.0,1.0,phase_2,go,200.0,250.0,1.0,,,,,,,,,yellow,diamond
0.0,6.0,2.0,1.0,6.0,0.0,0.0,5.0,1.0,phase_2,stop,200.0,250.0,4.0,,,,,,,,,white,triangle
0.0,3.0,3.0,0.0,6.0,6.0,450.2523529999962,5.0,1.0,phase_2,go,200.0,300.0,1.0,,,,,,,,,magenta,I
0.0,6.0,2.0,1.0,5.0,0.0,0.0,5.0,1.0,phase_2,stop,200.0,300.0,4.0,,,,,,,,,white,triangle
0.0,8.0,4.0,1.0,6.0,0.0,0.0,5.0,1.0,phase_2,stop,250.0,300.0,4.0,,,,,,,,,blue,hexagon
0.0,3.0,3.0,0.0,5.0,5.0,732.6689860001352,5.0,1.0,phase_2,go,250.0,350.0,1.0,,,,,,,,,magenta,I
0.0,1.0,1.0,0.0,5.0,5.0,563.1504760003736,5.0,1.0,phase_2,go,250.0,350.0,1.0,,,,,,,,,cyan,flipped triangle
0.0,1.0,1.0,0.0,6.0,6.0,402.8179430001728,5.0,1.0,phase_2,go,250.0,350.0,1.0,,,,,,,,,cyan,flipped triangle
0.0,5.0,1.0,1.0,5.0,5.0,362.6009199997497,5.0,1.0,phase_2,stop,250.0,350.0,3.0,,,,,,,,,green,cross
0.0,3.0,3.0,0.0,5.0,5.0,411.21439099970297,5.0,1.0,phase_2,go,200.0,350.0,1.0,,,,,,,,,magenta,I
0.0,2.0,2.0,0.0,5.0,5.0,385.115856000084,5.0,1.0,phase_2,go,200.0,350.0,1.0,,,,,,,,,gray,circle
0.0,3.0,3.0,0.0,6.0,6.0,469.2355259999203,5.0,1.0,phase_2,go,200.0,350.0,1.0,,,,,,,,,magenta,I
0.0,4.0,4.0,0.0,5.0,5.0,335.7152749999841,5.0,1.0,phase_2,go,200.0,350.0,1.0,,,,,,,,,yellow,diamond
0.0,3.0,3.0,0.0,5.0,5.0,375.5297040002006,5.0,1.0,phase_2,go,200.0,350.0,1.0,,,,,,,,,magenta,I
0.0,7.0,3.0,1.0,6.0,6.0,386.8302640003094,5.0,1.0,phase_2,stop,200.0,350.0,3.0,,,,,,,,,orange,square
0.0,6.0,2.0,1.0,5.0,5.0,374.3017870001495,5.0,1.0,phase_2,stop,200.0,300.0,3.0,,,,,,,,,white,triangle
0.0,6.0,2.0,1.0,5.0,5.0,724.143579000156,5.0,1.0,phase_2,go,150.0,300.0,1.0,,,,,,,,,white,triangle
0.0,2.0,2.0,0.0,6.0,6.0,561.7395859999306,5.0,1.0,phase_2,go,150.0,300.0,1.0,,,,,,,,,gray,circle
0.0,3.0,3.0,0.0,6.0,6.0,411.6880999999921,5.0,1.0,phase_2,go,150.0,300.0,1.0,,,,,,,,,magenta,I
0.0,3.0,3.0,0.0,6.0,6.0,356.5049040003032,5.0,1.0,phase_2,go,150.0,300.0,1.0,,,,,,,,,magenta,I
0.0,6.0,2.0,1.0,6.0,6.0,403.5569919997215,5.0,1.0,phase_2,stop,150.0,300.0,3.0,,,,,,,,,white,triangle
0.0,4.0,4.0,0.0,5.0,5.0,561.8816840001273,5.0,1.0,phase_2,go,150.0,250.0,1.0,,,,,,,,,yellow,diamond
0.0,1.0,1.0,0.0,5.0,5.0,384.2109950001031,5.0,1.0,phase_2,go,150.0,250.0,1.0,,,,,,,,,cyan,flipped triangle
0.0,3.0,3.0,0.0,5.0,5.0,393.9850609999666,5.0,1.0,phase_2,go,150.0,250.0,1.0,,,,,,,,,magenta,I
0.0,3.0,3.0,0.0,6.0,6.0,384.4467140002052,5.0,1.0,phase_2,go,150.0,250.0,1.0,,,,,,,,,magenta,I
0.0,3.0,3.0,0.0,5.0,5.0,486.7958059994635,5.0,1.0,phase_2,go,150.0,250.0,1.0,,,,,,,,,magenta,I
0.0,5.0,1.0,1.0,5.0,0.0,0.0,5.0,1.0,phase_2,stop,150.0,250.0,4.0,,,,,,,,,green,cross
0.0,7.0,3.0,1.0,6.0,0.0,0.0,5.0,1.0,phase_2,stop,200.0,250.0,4.0,,,,,,,,,orange,square
0.0,2.0,2.0,0.0,5.0,5.0,581.8159899999955,5.0,1.0,phase_2,go,200.0,300.0,1.0,,,,,,,,,gray,circle
0.0,3.0,3.0,0.0,6.0,6.0,591.3639339996735,5.0,1.0,phase_2,go,200.0,300.0,1.0,,,,,,,,,magenta,I
0.0,7.0,3.0,1.0,6.0,0.0,0.0,5.0,1.0,phase_2,stop,200.0,300.0,4.0,,,,,,,,,orange,square
0.0,4.0,4.0,0.0,5.0,5.0,497.9516789999252,5.0,1.0,phase_2,go,200.0,350.0,1.0,,,,,,,,,yellow,diamond
0.0,8.0,4.0,1.0,5.0,5.0,384.5712940001249,5.0,1.0,phase_2,stop,200.0,350.0,3.0,,,,,,,,,blue,hexagon
0.0,4.0,4.0,0.0,6.0,6.0,515.3847519995907,5.0,1.0,phase_2,go,150.0,350.0,1.0,,,,,,,,,yellow,diamond
0.0,2.0,2.0,0.0,6.0,6.0,637.1953540001414,6.0,1.0,phase_2,go,150.0,350.0,1.0,,,,,,,,,gray,circle
0.0,1.0,1.0,0.0,6.0,6.0,394.4107200004509,6.0,1.0,phase_2,go,150.0,350.0,1.0,,,,,,,,,cyan,flipped triangle
0.0,7.0,3.0,1.0,5.0,5.0,449.8508850001599,6.0,1.0,phase_2,go,150.0,350.0,1.0,,,,,,,,,orange,square
0.0,1.0,1.0,0.0,5.0,5.0,347.244006999972,6.0,1.0,phase_2,go,150.0,350.0,1.0,,,,,,,,,cyan,flipped triangle
0.0,1.0,1.0,0.0,6.0,6.0,327.9502780005714,6.0,1.0,phase_2,go,150.0,350.0,1.0,,,,,,,,,cyan,flipped triangle
0.0,8.0,4.0,1.0,5.0,5.0,400.1325610006461,6.0,1.0,phase_2,stop,150.0,350.0,3.0,,,,,,,,,blue,hexagon
0.0,4.0,4.0,0.0,5.0,5.0,619.8557199995776,6.0,1.0,phase_2,go,100.0,350.0,1.0,,,,,,,,,yellow,diamond
0.0,4.0,4.0,0.0,6.0,6.0,366.4321020005445,6.0,1.0,phase_2,go,100.0,350.0,1.0,,,,,,,,,yellow,diamond
0.0,4.0,4.0,0.0,6.0,6.0,384.5100179996734,6.0,1.0,phase_2,go,100.0,350.0,1.0,,,,,,,,,yellow,diamond
0.0,8.0,4.0,1.0,5.0,0.0,0.0,6.0,1.0,phase_2,stop,100.0,350.0,4.0,,,,,,,,,blue,hexagon
0.0,4.0,4.0,0.0,5.0,5.0,628.6905410006511,6.0,1.0,phase_2,go,150.0,350.0,1.0,,,,,,,,,yellow,diamond
0.0,5.0,1.0,1.0,5.0,0.0,0.0,6.0,1.0,phase_2,stop,150.0,350.0,4.0,,,,,,,,,green,cross
0.0,4.0,4.0,0.0,5.0,5.0,404.4659559995125,6.0,1.0,phase_2,go,200.0,350.0,1.0,,,,,,,,,yellow,diamond
0.0,2.0,2.0,0.0,6.0,6.0,449.8559349995048,6.0,1.0,phase_2,go,200.0,350.0,1.0,,,,,,,,,gray,circle
0.0,5.0,1.0,1.0,6.0,6.0,398.7684089997856,6.0,1.0,phase_2,stop,200.0,350.0,3.0,,,,,,,,,green,cross
0.0,1.0,1.0,0.0,6.0,6.0,529.001867000261,6.0,1.0,phase_2,go,200.0,300.0,1.0,,,,,,,,,cyan,flipped triangle
0.0,1.0,1.0,0.0,5.0,5.0,619.8550520002755,6.0,1.0,phase_2,go,200.0,300.0,1.0,,,,,,,,,cyan,flipped triangle
0.0,5.0,1.0,1.0,5.0,0.0,0.0,6.0,1.0,phase_2,stop,200.0,300.0,4.0,,,,,,,,,green,cross
0.0,1.0,1.0,0.0,6.0,6.0,667.5407780003297,6.0,1.0,phase_2,go,250.0,300.0,1.0,,,,,,,,,cyan,flipped triangle
0.0,4.0,4.0,0.0,6.0,6.0,1256.0732069996448,6.0,1.0,phase_2,go,250.0,300.0,1.0,,,,,,,,,yellow,diamond
0.0,8.0,4.0,1.0,6.0,0.0,0.0,6.0,1.0,phase_2,stop,250.0,300.0,4.0,,,,,,,,,blue,hexagon
0.0,7.0,3.0,1.0,5.0,5.0,550.8556439999666,6.0,1.0,phase_2,stop,250.0,350.0,3.0,,,,,,,,,orange,square
0.0,2.0,2.0,0.0,6.0,6.0,581.4665879997847,6.0,1.0,phase_2,go,200.0,350.0,1.0,,,,,,,,,gray,circle
0.0,7.0,3.0,1.0,5.0,5.0,581.8425079996814,6.0,1.0,phase_2,go,200.0,350.0,1.0,,,,,,,,,orange,square
0.0,7.0,3.0,1.0,5.0,5.0,413.2751739998639,6.0,1.0,phase_2,stop,200.0,350.0,3.0,,,,,,,,,orange,square
0.0,1.0,1.0,0.0,5.0,5.0,583.8246180001079,6.0,1.0,phase_2,go,150.0,350.0,1.0,,,,,,,,,cyan,flipped triangle
0.0,8.0,4.0,1.0,6.0,6.0,347.5037759999395,6.0,1.0,phase_2,stop,150.0,350.0,3.0,,,,,,,,,blue,hexagon
0.0,5.0,1.0,1.0,5.0,5.0,562.7068579997285,6.0,1.0,phase_2,go,150.0,300.0,1.0,,,,,,,,,green,cross
0.0,7.0,3.0,1.0,5.0,0.0,0.0,6.0,1.0,phase_2,stop,150.0,300.0,4.0,,,,,,,,,orange,square
0.0,5.0,1.0,1.0,5.0,0.0,0.0,6.0,1.0,phase_2,stop,200.0,300.0,4.0,,,,,,,,,green,cross
0.0,5.0,1.0,1.0,6.0,6.0,400.9839339996688,6.0,1.0,phase_2,stop,250.0,300.0,3.0,,,,,,,,,green,cross
0.0,2.0,2.0,0.0,6.0,6.0,583.5012739999001,6.0,1.0,phase_2,go,250.0,250.0,1.0,,,,,,,,,gray,circle
0.0,2.0,2.0,0.0,5.0,5.0,507.8802540001561,6.0,1.0,phase_2,go,250.0,250.0,1.0,,,,,,,,,gray,circle
0.0,2.0,2.0,0.0,6.0,6.0,479.8826639998879,6.0,1.0,phase_2,go,250.0,250.0,1.0,,,,,,,,,gray,circle
0.0,7.0,3.0,1.0,5.0,0.0,0.0,6.0,1.0,phase_2,stop,250.0,250.0,4.0,,,,,,,,,orange,square
0.0,6.0,2.0,1.0,6.0,6.0,390.1816019997568,6.0,1.0,phase_2,stop,300.0,250.0,3.0,,,,,,,,,white,triangle
0.0,6.0,2.0,1.0,6.0,6.0,420.5041459999847,7.0,1.0,phase_2,stop,300.0,200.0,3.0,,,,,,,,,white,triangle
0.0,8.0,4.0,1.0,5.0,5.0,356.2724519997573,7.0,1.0,phase_2,go,300.0,150.0,1.0,,,,,,,,,blue,hexagon
0.0,4.0,4.0,0.0,5.0,5.0,515.7757510005467,7.0,1.0,phase_2,go,300.0,150.0,1.0,,,,,,,,,yellow,diamond
0.0,6.0,2.0,1.0,5.0,5.0,431.2505580001016,7.0,1.0,phase_2,go,300.0,150.0,1.0,,,,,,,,,white,triangle
0.0,5.0,1.0,1.0,5.0,5.0,413.9349219994983,7.0,1.0,phase_2,stop,300.0,150.0,3.0,,,,,,,,,green,cross
0.0,2.0,2.0,0.0,5.0,5.0,505.7997500007332,7.0,1.0,phase_2,go,250.0,150.0,1.0,,,,,,,,,gray,circle
0.0,2.0,2.0,0.0,5.0,5.0,561.3137669997741,7.0,1.0,phase_2,go,250.0,150.0,1.0,,,,,,,,,gray,circle
0.0,2.0,2.0,0.0,5.0,5.0,421.694297000613,7.0,1.0,phase_2,go,250.0,150.0,1.0,,,,,,,,,gray,circle
0.0,4.0,4.0,0.0,5.0,5.0,374.8097349998716,7.0,1.0,phase_2,go,250.0,150.0,1.0,,,,,,,,,yellow,diamond
0.0,5.0,1.0,1.0,5.0,5.0,347.9258649995245,7.0,1.0,phase_2,go,250.0,150.0,1.0,,,,,,,,,green,cross
0.0,3.0,3.0,0.0,5.0,5.0,356.4182370000708,7.0,1.0,phase_2,go,250.0,150.0,1.0,,,,,,,,,magenta,I
0.0,2.0,2.0,0.0,6.0,6.0,523.873950000052,7.0,1.0,phase_2,go,250.0,150.0,1.0,,,,,,,,,gray,circle
0.0,1.0,1.0,0.0,5.0,5.0,328.6112079995291,7.0,1.0,phase_2,go,250.0,150.0,1.0,,,,,,,,,cyan,flipped triangle
0.0,8.0,4.0,1.0,5.0,0.0,0.0,7.0,1.0,phase_2,stop,250.0,150.0,4.0,,,,,,,,,blue,hexagon
0.0,4.0,4.0,0.0,5.0,5.0,708.8405690001309,7.0,1.0,phase_2,go,300.0,150.0,1.0,,,,,,,,,yellow,diamond
0.0,4.0,4.0,0.0,5.0,5.0,432.9678229996716,7.0,1.0,phase_2,go,300.0,150.0,1.0,,,,,,,,,yellow,diamond
0.0,5.0,1.0,1.0,5.0,5.0,524.6672020002734,7.0,1.0,phase_2,go,300.0,150.0,1.0,,,,,,,,,green,cross
0.0,7.0,3.0,1.0,5.0,5.0,552.9901719992267,7.0,1.0,phase_2,go,300.0,150.0,1.0,,,,,,,,,orange,square
0.0,4.0,4.0,0.0,6.0,6.0,385.3059599996413,7.0,1.0,phase_2,go,300.0,150.0,1.0,,,,,,,,,yellow,diamond
0.0,7.0,3.0,1.0,6.0,0.0,0.0,7.0,1.0,phase_2,stop,300.0,150.0,4.0,,,,,,,,,orange,square
0.0,6.0,2.0,1.0,6.0,6.0,431.9801040001039,7.0,1.0,phase_2,go,300.0,200.0,1.0,,,,,,,,,white,triangle
0.0,8.0,4.0,1.0,6.0,6.0,354.7136659999523,7.0,1.0,phase_2,stop,300.0,200.0,3.0,,,,,,,,,blue,hexagon
0.0,3.0,3.0,0.0,6.0,6.0,622.5916479997977,7.0,1.0,phase_2,go,300.0,150.0,1.0,,,,,,,,,magenta,I
0.0,6.0,2.0,1.0,5.0,5.0,361.9034650000685,7.0,1.0,phase_2,stop,300.0,150.0,3.0,,,,,,,,,white,triangle
0.0,2.0,2.0,0.0,6.0,6.0,440.2641100004985,7.0,1.0,phase_2,go,250.0,150.0,1.0,,,,,,,,,gray,circle
0.0,3.0,3.0,0.0,6.0,6.0,524.4153100002222,7.0,1.0,phase_2,go,250.0,150.0,1.0,,,,,,,,,magenta,I
0.0,8.0,4.0,1.0,5.0,0.0,0.0,7.0,1.0,phase_2,stop,250.0,150.0,4.0,,,,,,,,,blue,hexagon
0.0,2.0,2.0,0.0,5.0,5.0,497.9132720000052,7.0,1.0,phase_2,go,300.0,150.0,1.0,,,,,,,,,gray,circle
0.0,3.0,3.0,0.0,6.0,6.0,365.7998220005538,7.0,1.0,phase_2,go,300.0,150.0,1.0,,,,,,,,,magenta,I
0.0,1.0,1.0,0.0,6.0,6.0,403.2981229993311,7.0,1.0,phase_2,go,300.0,150.0,1.0,,,,,,,,,cyan,flipped triangle
0.0,2.0,2.0,0.0,6.0,6.0,403.4030950006126,7.0,1.0,phase_2,go,300.0,150.0,1.0,,,,,,,,,gray,circle
0.0,1.0,1.0,0.0,5.0,5.0,403.4945840003274,7.0,1.0,phase_2,go,300.0,150.0,1.0,,,,,,,,,cyan,flipped triangle
0.0,2.0,2.0,0.0,6.0,6.0,339.4091949994617,7.0,1.0,phase_2,go,300.0,150.0,1.0,,,,,,,,,gray,circle
0.0,5.0,1.0,1.0,6.0,0.0,0.0,7.0,1.0,phase_2,stop,300.0,150.0,4.0,,,,,,,,,green,cross
0.0,3.0,3.0,0.0,5.0,5.0,516.7879900000116,7.0,1.0,phase_2,go,300.0,200.0,1.0,,,,,,,,,magenta,I
0.0,1.0,1.0,0.0,6.0,6.0,374.7795859999314,7.0,1.0,phase_2,go,300.0,200.0,1.0,,,,,,,,,cyan,flipped triangle
0.0,8.0,4.0,1.0,5.0,5.0,442.2309849996964,8.0,1.0,phase_2,stop,300.0,200.0,3.0,,,,,,,,,blue,hexagon
0.0,6.0,2.0,1.0,6.0,0.0,0.0,8.0,1.0,phase_2,stop,250.0,200.0,4.0,,,,,,,,,white,triangle
0.0,1.0,1.0,0.0,6.0,6.0,638.3760829994571,8.0,1.0,phase_2,go,250.0,250.0,1.0,,,,,,,,,cyan,flipped triangle
0.0,4.0,4.0,0.0,6.0,6.0,554.5107759999155,8.0,1.0,phase_2,go,250.0,250.0,1.0,,,,,,,,,yellow,diamond
0.0,8.0,4.0,1.0,6.0,6.0,445.7792119992518,8.0,1.0,phase_2,stop,250.0,250.0,3.0,,,,,,,,,blue,hexagon
0.0,6.0,2.0,1.0,6.0,0.0,0.0,8.0,1.0,phase_2,stop,250.0,200.0,4.0,,,,,,,,,white,triangle
0.0,3.0,3.0,0.0,5.0,5.0,506.3533049997204,8.0,1.0,phase_2,go,250.0,250.0,1.0,,,,,,,,,magenta,I
0.0,5.0,1.0,1.0,5.0,0.0,0.0,8.0,1.0,phase_2,stop,250.0,250.0,4.0,,,,,,,,,green,cross
0.0,5.0,1.0,1.0,6.0,6.0,572.4417950004863,8.0,1.0,phase_2,go,300.0,250.0,1.0,,,,,,,,,green,cross
0.0,2.0,2.0,0.0,5.0,5.0,619.8997850005981,8.0,1.0,phase_2,go,300.0,250.0,1.0,,,,,,,,,gray,circle
0.0,8.0,4.0,1.0,6.0,0.0,0.0,8.0,1.0,phase_2,stop,300.0,250.0,4.0,,,,,,,,,blue,hexagon
0.0,8.0,4.0,1.0,6.0,6.0,571.6492560004554,8.0,1.0,phase_2,go,300.0,300.0,1.0,,,,,,,,,blue,hexagon
0.0,7.0,3.0,1.0,6.0,6.0,539.5891850002954,8.0,1.0,phase_2,stop,300.0,300.0,3.0,,,,,,,,,orange,square
0.0,5.0,1.0,1.0,6.0,0.0,0.0,8.0,1.0,phase_2,stop,300.0,250.0,4.0,,,,,,,,,green,cross
0.0,3.0,3.0,0.0,6.0,6.0,620.1526009999725,8.0,1.0,phase_2,go,300.0,300.0,1.0,,,,,,,,,magenta,I
0.0,6.0,2.0,1.0,6.0,0.0,0.0,8.0,1.0,phase_2,stop,300.0,300.0,4.0,,,,,,,,,white,triangle
0.0,1.0,1.0,0.0,5.0,5.0,393.9947820008456,8.0,1.0,phase_2,go,300.0,350.0,1.0,,,,,,,,,cyan,flipped triangle
0.0,6.0,2.0,1.0,5.0,0.0,0.0,8.0,1.0,phase_2,stop,300.0,350.0,4.0,,,,,,,,,white,triangle
0.0,5.0,1.0,1.0,5.0,0.0,0.0,8.0,1.0,phase_2,stop,350.0,350.0,4.0,,,,,,,,,green,cross
0.0,1.0,1.0,0.0,5.0,5.0,477.8523800005132,8.0,1.0,phase_2,go,400.0,350.0,1.0,,,,,,,,,cyan,flipped triangle
0.0,6.0,2.0,1.0,6.0,0.0,0.0,8.0,1.0,phase_2,stop,400.0,350.0,4.0,,,,,,,,,white,triangle
0.0,6.0,2.0,1.0,5.0,0.0,0.0,8.0,1.0,phase_2,stop,400.0,400.0,4.0,,,,,,,,,white,triangle
0.0,1.0,1.0,0.0,6.0,6.0,580.0484159999542,8.0,1.0,phase_2,go,450.0,400.0,1.0,,,,,,,,,cyan,flipped triangle
0.0,5.0,1.0,1.0,5.0,0.0,0.0,8.0,1.0,phase_2,stop,450.0,400.0,4.0,,,,,,,,,green,cross
0.0,7.0,3.0,1.0,6.0,0.0,0.0,8.0,1.0,phase_2,stop,500.0,400.0,4.0,,,,,,,,,orange,square
0.0,1.0,1.0,0.0,6.0,6.0,655.8618850003768,8.0,1.0,phase_2,go,500.0,450.0,1.0,,,,,,,,,cyan,flipped triangle
0.0,6.0,2.0,1.0,6.0,6.0,758.7325829999827,8.0,1.0,phase_2,go,500.0,450.0,1.0,,,,,,,,,white,triangle
0.0,5.0,1.0,1.0,6.0,6.0,787.5502110000525,8.0,1.0,phase_2,go,500.0,450.0,1.0,,,,,,,,,green,cross
0.0,8.0,4.0,1.0,5.0,5.0,581.8361709998499,8.0,1.0,phase_2,stop,500.0,450.0,3.0,,,,,,,,,blue,hexagon
0.0,8.0,4.0,1.0,6.0,6.0,777.2849350003526,8.0,1.0,phase_2,go,450.0,450.0,1.0,,,,,,,,,blue,hexagon
0.0,8.0,4.0,1.0,6.0,6.0,501.44320300023537,8.0,1.0,phase_2,stop,450.0,450.0,3.0,,,,,,,,,blue,hexagon
0.0,5.0,1.0,1.0,6.0,0.0,0.0,8.0,1.0,phase_2,stop,450.0,400.0,4.0,,,,,,,,,green,cross
0.0,6.0,2.0,1.0,5.0,0.0,0.0,8.0,1.0,phase_2,stop,450.0,450.0,4.0,,,,,,,,,white,triangle
0.0,3.0,3.0,0.0,6.0,6.0,562.5385379998988,8.0,1.0,phase_2,go,500.0,450.0,1.0,,,,,,,,,magenta,I
0.0,8.0,4.0,1.0,6.0,6.0,565.7842900000105,8.0,1.0,phase_2,stop,500.0,450.0,3.0,,,,,,,,,blue,hexagon
0.0,2.0,2.0,0.0,5.0,5.0,806.3594699997338,8.0,1.0,phase_2,go,500.0,400.0,1.0,,,,,,,,,gray,circle
0.0,2.0,2.0,0.0,7.0,4.0,4044.781010999941,1.0,1.0,phase_3,,,,,173.0,1.0,1038.0,519.0,346.0,173.0,865.0,692.0,gray,circle
0.0,1.0,1.0,0.0,7.0,5.0,1464.5206909999615,1.0,1.0,phase_3,,,,,116.0,1.0,580.0,696.0,464.0,232.0,116.0,348.0,cyan,flipped triangle
0.0,2.0,2.0,0.0,7.0,6.0,2595.3089199992974,1.0,1.0,phase_3,,,,,135.0,1.0,810.0,270.0,540.0,405.0,675.0,135.0,gray,circle
0.0,7.0,3.0,1.0,7.0,5.0,3110.1873040006467,1.0,1.0,phase_3,,,,,576.0,3.0,768.0,960.0,192.0,384.0,576.0,1152.0,orange,square
0.0,7.0,3.0,1.0,7.0,5.0,1406.4739049999844,1.0,1.0,phase_3,,,,,616.0,4.0,154.0,924.0,308.0,770.0,616.0,462.0,orange,square
0.0,3.0,3.0,0.0,7.0,4.0,1958.896552000624,1.0,1.0,phase_3,,,,,696.0,6.0,116.0,232.0,348.0,696.0,580.0,464.0,magenta,I
0.0,4.0,4.0,0.0,7.0,3.0,3215.9923560002426,1.0,1.0,phase_3,,,,,924.0,6.0,462.0,616.0,924.0,770.0,154.0,308.0,yellow,diamond
0.0,5.0,1.0,1.0,7.0,6.0,2291.288090999842,1.0,1.0,phase_3,,,,,675.0,5.0,810.0,135.0,405.0,540.0,270.0,675.0,green,cross
0.0,8.0,4.0,1.0,7.0,2.0,2152.4615199996333,1.0,1.0,phase_3,,,,,616.0,4.0,308.0,616.0,154.0,924.0,462.0,770.0,blue,hexagon
0.0,6.0,2.0,1.0,7.0,2.0,1353.3226449999347,1.0,1.0,phase_3,,,,,192.0,1.0,960.0,192.0,384.0,768.0,576.0,1152.0,white,triangle
0.0,7.0,3.0,1.0,7.0,6.0,1203.4986740000022,1.0,1.0,phase_3,,,,,675.0,5.0,135.0,405.0,810.0,540.0,270.0,675.0,orange,square
0.0,7.0,3.0,1.0,7.0,6.0,1174.9047130006147,1.0,1.0,phase_3,,,,,675.0,5.0,405.0,270.0,135.0,540.0,810.0,675.0,orange,square
0.0,1.0,1.0,0.0,7.0,5.0,1928.6440240002776,1.0,1.0,phase_3,,,,,270.0,2.0,540.0,810.0,675.0,405.0,270.0,135.0,cyan,flipped triangle
0.0,6.0,2.0,1.0,7.0,4.0,1506.137155000033,1.0,1.0,phase_3,,,,,135.0,1.0,270.0,405.0,540.0,135.0,675.0,810.0,white,triangle
0.0,3.0,3.0,0.0,7.0,5.0,1426.4157190000333,1.0,1.0,phase_3,,,,,675.0,5.0,405.0,135.0,270.0,810.0,675.0,540.0,magenta,I
0.0,1.0,1.0,0.0,7.0,2.0,1314.9173090005206,1.0,1.0,phase_3,,,,,116.0,1.0,696.0,116.0,348.0,464.0,232.0,580.0,cyan,flipped triangle
0.0,1.0,1.0,0.0,7.0,1.0,1735.913182999866,1.0,1.0,phase_3,,,,,154.0,1.0,154.0,462.0,616.0,924.0,308.0,770.0,cyan,flipped triangle
0.0,1.0,1.0,0.0,7.0,5.0,1118.5410369998865,1.0,1.0,phase_3,,,,,192.0,1.0,960.0,768.0,384.0,576.0,192.0,1152.0,cyan,flipped triangle
0.0,8.0,4.0,1.0,7.0,2.0,2538.5166000005484,1.0,1.0,phase_3,,,,,675.0,5.0,135.0,675.0,810.0,540.0,405.0,270.0,blue,hexagon
0.0,6.0,2.0,1.0,7.0,4.0,1203.8424909997048,1.0,1.0,phase_3,,,,,135.0,1.0,405.0,675.0,810.0,135.0,540.0,270.0,white,triangle
0.0,4.0,4.0,0.0,7.0,1.0,1545.2676990007603,2.0,1.0,phase_3,,,,,696.0,6.0,696.0,464.0,348.0,580.0,232.0,116.0,yellow,diamond
0.0,5.0,1.0,1.0,7.0,2.0,1566.9494109997686,2.0,1.0,phase_3,,,,,1038.0,6.0,865.0,1038.0,173.0,692.0,346.0,519.0,green,cross
0.0,4.0,4.0,0.0,7.0,4.0,1556.6516940007205,2.0,1.0,phase_3,,,,,616.0,4.0,154.0,308.0,462.0,616.0,924.0,770.0,yellow,diamond
0.0,8.0,4.0,1.0,7.0,4.0,1564.2745949999153,2.0,1.0,phase_3,,,,,696.0,6.0,580.0,116.0,348.0,696.0,464.0,232.0,blue,hexagon
0.0,5.0,1.0,1.0,7.0,2.0,1603.418493999925,2.0,1.0,phase_3,,,,,154.0,1.0,616.0,154.0,308.0,462.0,770.0,924.0,green,cross
0.0,8.0,4.0,1.0,7.0,4.0,1687.662643999829,2.0,1.0,phase_3,,,,,960.0,5.0,576.0,192.0,384.0,960.0,768.0,1152.0,blue,hexagon
0.0,6.0,2.0,1.0,7.0,6.0,1734.420650999709,2.0,1.0,phase_3,,,,,154.0,1.0,308.0,770.0,924.0,462.0,616.0,154.0,white,triangle
0.0,2.0,2.0,0.0,7.0,4.0,1607.38329600008,2.0,1.0,phase_3,,,,,308.0,2.0,924.0,462.0,770.0,308.0,616.0,154.0,gray,circle
0.0,6.0,2.0,1.0,7.0,6.0,1063.763464000658,2.0,1.0,phase_3,,,,,173.0,1.0,1038.0,692.0,865.0,346.0,519.0,173.0,white,triangle
0.0,7.0,3.0,1.0,7.0,6.0,1900.2379449993896,2.0,1.0,phase_3,,,,,696.0,6.0,580.0,232.0,464.0,116.0,348.0,696.0,orange,square
0.0,3.0,3.0,0.0,7.0,1.0,1557.5265329998729,2.0,1.0,phase_3,,,,,692.0,4.0,692.0,346.0,173.0,519.0,865.0,1038.0,magenta,I
0.0,1.0,1.0,0.0,7.0,6.0,1063.6723130000971,2.0,1.0,phase_3,,,,,173.0,1.0,1038.0,865.0,519.0,346.0,692.0,173.0,cyan,flipped triangle
0.0,6.0,2.0,1.0,7.0,3.0,1891.311772000336,2.0,1.0,phase_3,,,,,116.0,1.0,696.0,232.0,116.0,348.0,580.0,464.0,white,triangle
0.0,5.0,1.0,1.0,7.0,1.0,1847.7757470000145,2.0,1.0,phase_3,,,,,192.0,1.0,192.0,960.0,384.0,576.0,1152.0,768.0,green,cross
0.0,5.0,1.0,1.0,7.0,3.0,990.7322910003132,2.0,1.0,phase_3,,,,,135.0,1.0,540.0,405.0,135.0,675.0,270.0,810.0,green,cross
0.0,7.0,3.0,1.0,7.0,2.0,2456.6696489991955,2.0,1.0,phase_3,,,,,576.0,3.0,768.0,576.0,960.0,192.0,384.0,1152.0,orange,square
0.0,7.0,3.0,1.0,7.0,3.0,2234.085738999965,2.0,1.0,phase_3,,,,,519.0,3.0,865.0,1038.0,519.0,173.0,692.0,346.0,orange,square
0.0,5.0,1.0,1.0,7.0,3.0,1460.265826000068,2.0,1.0,phase_3,,,,,116.0,1.0,232.0,580.0,116.0,696.0,464.0,348.0,green,cross
0.0,8.0,4.0,1.0,7.0,2.0,2281.783679,2.0,1.0,phase_3,,,,,810.0,6.0,270.0,810.0,135.0,405.0,540.0,675.0,blue,hexagon
0.0,7.0,3.0,1.0,7.0,1.0,2753.2258519995594,2.0,1.0,phase_3,,,,,692.0,4.0,692.0,173.0,346.0,519.0,1038.0,865.0,orange,square
0.0,3.0,3.0,0.0,7.0,1.0,1565.0273480005126,3.0,1.0,phase_3,,,,,692.0,4.0,692.0,346.0,865.0,519.0,1038.0,173.0,magenta,I
0.0,4.0,4.0,0.0,7.0,5.0,2347.4669489996813,3.0,1.0,phase_3,,,,,696.0,6.0,116.0,464.0,580.0,232.0,696.0,348.0,yellow,diamond
0.0,5.0,1.0,1.0,7.0,3.0,1462.2213579996242,3.0,1.0,phase_3,,,,,154.0,1.0,924.0,308.0,154.0,616.0,462.0,770.0,green,cross
0.0,3.0,3.0,0.0,7.0,2.0,1835.9170439998709,3.0,1.0,phase_3,,,,,924.0,6.0,308.0,924.0,616.0,154.0,462.0,770.0,magenta,I
0.0,6.0,2.0,1.0,7.0,2.0,1156.1766109998644,3.0,1.0,phase_3,,,,,173.0,1.0,346.0,173.0,865.0,519.0,1038.0,692.0,white,triangle
0.0,2.0,2.0,0.0,7.0,4.0,2366.788768000333,3.0,1.0,phase_3,,,,,135.0,1.0,675.0,810.0,270.0,135.0,405.0,540.0,gray,circle
0.0,6.0,2.0,1.0,7.0,2.0,1576.8676530005905,3.0,1.0,phase_3,,,,,308.0,2.0,462.0,308.0,616.0,924.0,770.0,154.0,white,triangle
0.0,1.0,1.0,0.0,7.0,1.0,1601.6873159996976,3.0,1.0,phase_3,,,,,192.0,1.0,192.0,960.0,384.0,768.0,576.0,1152.0,cyan,flipped triangle
0.0,2.0,2.0,0.0,7.0,4.0,1044.485194999652,3.0,1.0,phase_3,,,,,348.0,3.0,580.0,232.0,464.0,348.0,696.0,116.0,gray,circle
0.0,8.0,4.0,1.0,7.0,6.0,1778.642414999922,3.0,1.0,phase_3,,,,,924.0,6.0,616.0,770.0,462.0,308.0,154.0,924.0,blue,hexagon
0.0,2.0,2.0,0.0,7.0,1.0,1961.679992999961,3.0,1.0,phase_3,,,,,192.0,1.0,192.0,768.0,1152.0,384.0,576.0,960.0,gray,circle
0.0,3.0,3.0,0.0,7.0,6.0,1122.2990880005457,3.0,1.0,phase_3,,,,,675.0,5.0,135.0,270.0,405.0,810.0,540.0,675.0,magenta,I
0.0,8.0,4.0,1.0,7.0,1.0,1501.0931269998764,3.0,1.0,phase_3,,,,,1038.0,6.0,1038.0,173.0,692.0,865.0,519.0,346.0,blue,hexagon
0.0,3.0,3.0,0.0,7.0,3.0,2022.8059959999878,3.0,1.0,phase_3,,,,,576.0,3.0,768.0,960.0,576.0,192.0,384.0,1152.0,magenta,I
0.0,4.0,4.0,0.0,7.0,2.0,1193.9598339995428,3.0,1.0,phase_3,,,,,1038.0,6.0,173.0,1038.0,865.0,346.0,519.0,692.0,yellow,diamond
0.0,2.0,2.0,0.0,7.0,4.0,1578.217721999863,3.0,1.0,phase_3,,,,,173.0,1.0,346.0,865.0,692.0,173.0,1038.0,519.0,gray,circle
0.0,4.0,4.0,0.0,7.0,1.0,1482.913112999995,3.0,1.0,phase_3,,,,,810.0,6.0,810.0,135.0,540.0,675.0,270.0,405.0,yellow,diamond
0.0,1.0,1.0,0.0,7.0,1.0,1184.389013999862,3.0,1.0,phase_3,,,,,308.0,2.0,308.0,462.0,770.0,924.0,154.0,616.0,cyan,flipped triangle
0.0,5.0,1.0,1.0,7.0,4.0,960.6958579997807,3.0,1.0,phase_3,,,,,384.0,2.0,960.0,576.0,1152.0,384.0,192.0,768.0,green,cross
0.0,5.0,1.0,1.0,7.0,1.0,1351.2688030004938,3.0,1.0,phase_3,,,,,116.0,1.0,116.0,464.0,232.0,348.0,696.0,580.0,green,cross
0.0,3.0,3.0,0.0,7.0,3.0,2359.99593500037,4.0,1.0,phase_3,,,,,696.0,6.0,232.0,580.0,696.0,348.0,464.0,116.0,magenta,I
0.0,7.0,3.0,1.0,7.0,3.0,983.8632760001929,4.0,1.0,phase_3,,,,,696.0,6.0,580.0,348.0,696.0,232.0,464.0,116.0,orange,square
0.0,2.0,2.0,0.0,7.0,5.0,2032.6163720001205,4.0,1.0,phase_3,,,,,116.0,1.0,580.0,696.0,464.0,232.0,116.0,348.0,gray,circle
0.0,6.0,2.0,1.0,7.0,6.0,2027.1157410006708,4.0,1.0,phase_3,,,,,116.0,1.0,464.0,232.0,348.0,580.0,696.0,116.0,white,triangle
0.0,4.0,4.0,0.0,7.0,1.0,1019.3472190003376,4.0,1.0,phase_3,,,,,1152.0,6.0,1152.0,960.0,384.0,768.0,576.0,192.0,yellow,diamond
0.0,1.0,1.0,0.0,7.0,4.0,1204.9226639992412,4.0,1.0,phase_3,,,,,173.0,1.0,519.0,865.0,346.0,173.0,692.0,1038.0,cyan,flipped triangle
0.0,2.0,2.0,0.0,7.0,4.0,1139.3453729997418,4.0,1.0,phase_3,,,,,384.0,2.0,768.0,192.0,960.0,384.0,1152.0,576.0,gray,circle
0.0,8.0,4.0,1.0,7.0,6.0,1033.1866569995327,4.0,1.0,phase_3,,,,,1038.0,6.0,173.0,346.0,692.0,865.0,519.0,1038.0,blue,hexagon
0.0,8.0,4.0,1.0,7.0,2.0,997.6248040002248,4.0,1.0,phase_3,,,,,1152.0,6.0,768.0,1152.0,576.0,960.0,384.0,192.0,blue,hexagon
0.0,8.0,4.0,1.0,7.0,5.0,1960.4924640007084,4.0,1.0,phase_3,,,,,464.0,4.0,116.0,580.0,348.0,696.0,464.0,232.0,blue,hexagon
0.0,5.0,1.0,1.0,7.0,5.0,1112.8551419997166,4.0,1.0,phase_3,,,,,173.0,1.0,519.0,692.0,1038.0,346.0,173.0,865.0,green,cross
0.0,3.0,3.0,0.0,7.0,5.0,1840.8987399998296,4.0,1.0,phase_3,,,,,576.0,3.0,768.0,960.0,1152.0,384.0,576.0,192.0,magenta,I
0.0,1.0,1.0,0.0,7.0,1.0,1401.8977129999255,4.0,1.0,phase_3,,,,,135.0,1.0,135.0,270.0,405.0,810.0,675.0,540.0,cyan,flipped triangle
0.0,4.0,4.0,0.0,7.0,6.0,1335.0216789995102,4.0,1.0,phase_3,,,,,810.0,6.0,405.0,540.0,135.0,675.0,270.0,810.0,yellow,diamond
0.0,4.0,4.0,0.0,7.0,2.0,1551.2300099999266,4.0,1.0,phase_3,,,,,1038.0,6.0,519.0,1038.0,346.0,692.0,173.0,865.0,yellow,diamond
0.0,2.0,2.0,0.0,7.0,1.0,1759.1807440003322,4.0,1.0,phase_3,,,,,154.0,1.0,154.0,308.0,924.0,462.0,616.0,770.0,gray,circle
0.0,4.0,4.0,0.0,7.0,4.0,1578.5344220003026,4.0,1.0,phase_3,,,,,1152.0,6.0,960.0,768.0,576.0,1152.0,384.0,192.0,yellow,diamond
0.0,3.0,3.0,0.0,7.0,5.0,2346.48028599986,4.0,1.0,phase_3,,,,,616.0,4.0,308.0,154.0,462.0,770.0,616.0,924.0,magenta,I
0.0,7.0,3.0,1.0,7.0,3.0,973.0252179997478,4.0,1.0,phase_3,,,,,616.0,4.0,924.0,308.0,616.0,770.0,154.0,462.0,orange,square
0.0,6.0,2.0,1.0,7.0,3.0,2092.8491499998927,4.0,1.0,phase_3,,,,,576.0,3.0,192.0,1152.0,576.0,768.0,384.0,960.0,white,triangle
