raw_reward_magnitude,stim_reward,stepwise_reward_magnitude,paired_with_stopping,quadrant,response,reaction_time,block,num_trial_presentations,which_part,stop_signal_trial_type,left_SSD,right_SSD,accuracy,chosen_bidding_amount,chosen_bidding_level,possible_bid_1,possible_bid_2,possible_bid_3,possible_bid_4,possible_bid_5,possible_bid_6,color_text,shape_text
667.0,3.0,3.0,0.0,4.0,4.0,468.7504290000106,1.0,1.0,part_1,,,,,,,,,,,,,blue,diamond
0.0,5.0,0.0,1.0,3.0,3.0,338.2589540000253,1.0,1.0,part_1,,,,,,,,,,,,,cyan,flipped triangle
1321.0,4.0,4.0,0.0,2.0,2.0,629.4646569999713,1.0,1.0,part_1,,,,,,,,,,,,,white,hexagon
1303.0,4.0,4.0,0.0,3.0,3.0,427.0983369999612,1.0,1.0,part_1,,,,,,,,,,,,,white,hexagon
301.0,2.0,2.0,0.0,2.0,2.0,543.8144500000135,1.0,1.0,part_1,,,,,,,,,,,,,yellow,circle
0.0,1.0,0.0,0.0,4.0,4.0,337.5235460000567,1.0,1.0,part_1,,,,,,,,,,,,,orange,square
137.0,1.0,1.0,0.0,1.0,1.0,328.0659830001013,1.0,1.0,part_1,,,,,,,,,,,,,orange,square
0.0,6.0,0.0,1.0,2.0,2.0,535.6234319999658,1.0,1.0,part_1,,,,,,,,,,,,,gray,cross
637.0,7.0,3.0,1.0,2.0,2.0,422.4737170000026,1.0,1.0,part_1,,,,,,,,,,,,,magenta,triangle
170.0,5.0,1.0,1.0,1.0,1.0,459.3306200000597,1.0,2.0,part_1,,,,,,,,,,,,,cyan,flipped triangle
662.0,7.0,3.0,1.0,3.0,3.0,375.975427999947,1.0,1.0,part_1,,,,,,,,,,,,,magenta,triangle
1315.0,4.0,4.0,0.0,3.0,3.0,431.5135059999875,1.0,1.0,part_1,,,,,,,,,,,,,white,hexagon
185.0,5.0,1.0,1.0,3.0,3.0,423.4176370000568,1.0,1.0,part_1,,,,,,,,,,,,,cyan,flipped triangle
0.0,2.0,0.0,0.0,1.0,1.0,375.0763660000302,1.0,1.0,part_1,,,,,,,,,,,,,yellow,circle
341.0,2.0,2.0,0.0,2.0,2.0,432.051408999996,1.0,1.0,part_1,,,,,,,,,,,,,yellow,circle
318.0,6.0,2.0,1.0,2.0,2.0,487.0643259999951,1.0,1.0,part_1,,,,,,,,,,,,,gray,cross
0.0,1.0,0.0,0.0,1.0,1.0,365.5495679998921,1.0,1.0,part_1,,,,,,,,,,,,,orange,square
0.0,4.0,0.0,0.0,2.0,2.0,374.4501060000402,1.0,1.0,part_1,,,,,,,,,,,,,white,hexagon
347.0,6.0,2.0,1.0,4.0,4.0,339.3543930000078,1.0,1.0,part_1,,,,,,,,,,,,,gray,cross
0.0,8.0,0.0,1.0,2.0,2.0,318.2402429999911,1.0,1.0,part_1,,,,,,,,,,,,,green,I
0.0,8.0,0.0,1.0,3.0,3.0,356.5464330000623,1.0,1.0,part_1,,,,,,,,,,,,,green,I
640.0,7.0,3.0,1.0,2.0,2.0,403.6841570000433,1.0,1.0,part_1,,,,,,,,,,,,,magenta,triangle
151.0,5.0,1.0,1.0,4.0,4.0,300.5982480000284,1.0,1.0,part_1,,,,,,,,,,,,,cyan,flipped triangle
668.0,7.0,3.0,1.0,4.0,4.0,356.9304210000155,1.0,1.0,part_1,,,,,,,,,,,,,magenta,triangle
1300.0,4.0,4.0,0.0,2.0,2.0,609.6062999999958,1.0,1.0,part_1,,,,,,,,,,,,,white,hexagon
314.0,2.0,2.0,0.0,2.0,2.0,395.491432999961,1.0,1.0,part_1,,,,,,,,,,,,,yellow,circle
0.0,2.0,0.0,0.0,4.0,4.0,291.7731000000003,1.0,1.0,part_1,,,,,,,,,,,,,yellow,circle
336.0,6.0,2.0,1.0,4.0,4.0,366.9461199999659,1.0,1.0,part_1,,,,,,,,,,,,,gray,cross
317.0,6.0,2.0,1.0,4.0,4.0,339.8131740000281,1.0,1.0,part_1,,,,,,,,,,,,,gray,cross
628.0,7.0,3.0,1.0,3.0,3.0,339.6364850000282,1.0,1.0,part_1,,,,,,,,,,,,,magenta,triangle
180.0,5.0,1.0,1.0,2.0,2.0,386.1320570000544,1.0,1.0,part_1,,,,,,,,,,,,,cyan,flipped triangle
1277.0,4.0,4.0,0.0,2.0,2.0,320.3243929999644,1.0,2.0,part_1,,,,,,,,,,,,,white,hexagon
167.0,1.0,1.0,0.0,4.0,4.0,337.5537509999731,1.0,1.0,part_1,,,,,,,,,,,,,orange,square
640.0,3.0,3.0,0.0,4.0,4.0,337.9601380000849,1.0,1.0,part_1,,,,,,,,,,,,,blue,diamond
635.0,7.0,3.0,1.0,1.0,1.0,414.2803439999625,1.0,1.0,part_1,,,,,,,,,,,,,magenta,triangle
666.0,7.0,3.0,1.0,2.0,2.0,338.4415179999678,1.0,1.0,part_1,,,,,,,,,,,,,magenta,triangle
314.0,6.0,2.0,1.0,4.0,4.0,328.3953969998947,1.0,1.0,part_1,,,,,,,,,,,,,gray,cross
0.0,5.0,0.0,1.0,2.0,2.0,355.9111760000633,1.0,1.0,part_1,,,,,,,,,,,,,cyan,flipped triangle
654.0,3.0,3.0,0.0,3.0,3.0,346.8852080000033,1.0,1.0,part_1,,,,,,,,,,,,,blue,diamond
314.0,6.0,2.0,1.0,2.0,2.0,581.4323009999498,1.0,1.0,part_1,,,,,,,,,,,,,gray,cross
0.0,8.0,0.0,1.0,4.0,4.0,383.5888749999867,1.0,1.0,part_1,,,,,,,,,,,,,green,I
0.0,6.0,0.0,1.0,2.0,2.0,395.2392819999204,1.0,1.0,part_1,,,,,,,,,,,,,gray,cross
1276.0,4.0,4.0,0.0,1.0,1.0,441.5135849999387,1.0,1.0,part_1,,,,,,,,,,,,,white,hexagon
347.0,2.0,2.0,0.0,4.0,4.0,364.9885099998755,1.0,1.0,part_1,,,,,,,,,,,,,yellow,circle
637.0,3.0,3.0,0.0,2.0,2.0,319.6055949999845,1.0,1.0,part_1,,,,,,,,,,,,,blue,diamond
668.0,3.0,3.0,0.0,2.0,2.0,433.588009999994,1.0,2.0,part_1,,,,,,,,,,,,,blue,diamond
178.0,5.0,1.0,1.0,4.0,4.0,317.9110710000259,1.0,1.0,part_1,,,,,,,,,,,,,cyan,flipped triangle
0.0,3.0,0.0,0.0,3.0,3.0,328.9663099999416,1.0,1.0,part_1,,,,,,,,,,,,,blue,diamond
141.0,1.0,1.0,0.0,3.0,3.0,338.859998000089,1.0,1.0,part_1,,,,,,,,,,,,,orange,square
342.0,6.0,2.0,1.0,2.0,2.0,393.8126929999725,1.0,1.0,part_1,,,,,,,,,,,,,gray,cross
1285.0,4.0,4.0,0.0,1.0,1.0,383.6335749999762,1.0,1.0,part_1,,,,,,,,,,,,,white,hexagon
143.0,5.0,1.0,1.0,2.0,2.0,629.6960880001734,1.0,1.0,part_1,,,,,,,,,,,,,cyan,flipped triangle
0.0,2.0,0.0,0.0,1.0,1.0,327.9195099999015,1.0,2.0,part_1,,,,,,,,,,,,,yellow,circle
0.0,3.0,0.0,0.0,2.0,2.0,329.1776369999297,1.0,1.0,part_1,,,,,,,,,,,,,blue,diamond
626.0,3.0,3.0,0.0,3.0,3.0,281.7037380000329,1.0,1.0,part_1,,,,,,,,,,,,,blue,diamond
0.0,7.0,0.0,1.0,2.0,2.0,337.7406539998446,1.0,1.0,part_1,,,,,,,,,,,,,magenta,triangle
663.0,3.0,3.0,0.0,3.0,3.0,307.4138870001661,1.0,1.0,part_1,,,,,,,,,,,,,blue,diamond
633.0,7.0,3.0,1.0,2.0,2.0,423.0789559999266,1.0,1.0,part_1,,,,,,,,,,,,,magenta,triangle
638.0,3.0,3.0,0.0,1.0,1.0,432.5366599998688,1.0,1.0,part_1,,,,,,,,,,,,,blue,diamond
1315.0,8.0,4.0,1.0,2.0,2.0,589.6720000000641,1.0,1.0,part_1,,,,,,,,,,,,,green,I
1325.0,4.0,4.0,0.0,1.0,1.0,339.1415789999428,1.0,2.0,part_1,,,,,,,,,,,,,white,hexagon
306.0,6.0,2.0,1.0,2.0,2.0,605.0293840000904,1.0,1.0,part_1,,,,,,,,,,,,,gray,cross
1284.0,8.0,4.0,1.0,1.0,1.0,320.294603000093,1.0,2.0,part_1,,,,,,,,,,,,,green,I
633.0,3.0,3.0,0.0,1.0,1.0,356.8954830000166,1.0,1.0,part_1,,,,,,,,,,,,,blue,diamond
323.0,6.0,2.0,1.0,3.0,3.0,388.7438530000509,1.0,1.0,part_1,,,,,,,,,,,,,gray,cross
667.0,7.0,3.0,1.0,3.0,3.0,367.4339129997861,1.0,1.0,part_1,,,,,,,,,,,,,magenta,triangle
0.0,7.0,0.0,1.0,1.0,1.0,300.7811110001057,1.0,1.0,part_1,,,,,,,,,,,,,magenta,triangle
0.0,6.0,0.0,1.0,1.0,1.0,356.1684619999141,1.0,1.0,part_1,,,,,,,,,,,,,gray,cross
663.0,7.0,3.0,1.0,4.0,4.0,601.8944800000554,1.0,1.0,part_1,,,,,,,,,,,,,magenta,triangle
141.0,5.0,1.0,1.0,2.0,2.0,273.4554090000074,1.0,2.0,part_1,,,,,,,,,,,,,cyan,flipped triangle
178.0,5.0,1.0,1.0,1.0,1.0,534.8583840000174,1.0,1.0,part_1,,,,,,,,,,,,,cyan,flipped triangle
311.0,2.0,2.0,0.0,2.0,2.0,601.9714460001069,1.0,1.0,part_1,,,,,,,,,,,,,yellow,circle
185.0,1.0,1.0,0.0,2.0,2.0,375.3014829999301,1.0,1.0,part_1,,,,,,,,,,,,,orange,square
657.0,7.0,3.0,1.0,2.0,2.0,346.9049729999369,1.0,1.0,part_1,,,,,,,,,,,,,magenta,triangle
171.0,1.0,1.0,0.0,2.0,2.0,338.0909180000344,1.0,1.0,part_1,,,,,,,,,,,,,orange,square
0.0,4.0,0.0,0.0,4.0,4.0,254.3322750000243,1.0,2.0,part_1,,,,,,,,,,,,,white,hexagon
171.0,5.0,1.0,1.0,2.0,2.0,543.7336859999959,1.0,1.0,part_1,,,,,,,,,,,,,cyan,flipped triangle
332.0,6.0,2.0,1.0,3.0,3.0,478.4674499999255,1.0,1.0,part_1,,,,,,,,,,,,,gray,cross
342.0,2.0,2.0,0.0,4.0,4.0,452.0919809999668,1.0,1.0,part_1,,,,,,,,,,,,,yellow,circle
1303.0,8.0,4.0,1.0,1.0,1.0,365.9935069999847,1.0,1.0,part_1,,,,,,,,,,,,,green,I
1320.0,8.0,4.0,1.0,1.0,1.0,532.6578140000038,1.0,1.0,part_1,,,,,,,,,,,,,green,I
302.0,2.0,2.0,0.0,2.0,2.0,544.6154489998207,1.0,1.0,part_1,,,,,,,,,,,,,yellow,circle
643.0,7.0,3.0,1.0,1.0,1.0,328.4937809999064,1.0,1.0,part_1,,,,,,,,,,,,,magenta,triangle
337.0,2.0,2.0,0.0,4.0,4.0,366.086204000112,1.0,1.0,part_1,,,,,,,,,,,,,yellow,circle
1296.0,4.0,4.0,0.0,4.0,4.0,365.7118400001309,1.0,1.0,part_1,,,,,,,,,,,,,white,hexagon
1291.0,4.0,4.0,0.0,2.0,2.0,507.8910029999406,1.0,1.0,part_1,,,,,,,,,,,,,white,hexagon
151.0,5.0,1.0,1.0,1.0,1.0,309.5760720000271,1.0,1.0,part_1,,,,,,,,,,,,,cyan,flipped triangle
146.0,5.0,1.0,1.0,4.0,4.0,352.5339750001421,1.0,1.0,part_1,,,,,,,,,,,,,cyan,flipped triangle
321.0,2.0,2.0,0.0,3.0,3.0,376.2659159999657,1.0,1.0,part_1,,,,,,,,,,,,,yellow,circle
328.0,2.0,2.0,0.0,4.0,4.0,394.3419129998347,1.0,1.0,part_1,,,,,,,,,,,,,yellow,circle
334.0,6.0,2.0,1.0,2.0,2.0,506.75350500000604,1.0,1.0,part_1,,,,,,,,,,,,,gray,cross
158.0,1.0,1.0,0.0,3.0,3.0,459.6801510001569,1.0,1.0,part_1,,,,,,,,,,,,,orange,square
342.0,2.0,2.0,0.0,3.0,3.0,422.1521569998003,1.0,1.0,part_1,,,,,,,,,,,,,yellow,circle
665.0,3.0,3.0,0.0,4.0,4.0,392.8220870000132,1.0,1.0,part_1,,,,,,,,,,,,,blue,diamond
143.0,1.0,1.0,0.0,1.0,1.0,394.964353999967,1.0,1.0,part_1,,,,,,,,,,,,,orange,square
1293.0,4.0,4.0,0.0,4.0,4.0,446.6971420001755,1.0,1.0,part_1,,,,,,,,,,,,,white,hexagon
142.0,5.0,1.0,1.0,3.0,3.0,338.4418839998488,1.0,1.0,part_1,,,,,,,,,,,,,cyan,flipped triangle
153.0,5.0,1.0,1.0,4.0,4.0,320.4078880000907,1.0,1.0,part_1,,,,,,,,,,,,,cyan,flipped triangle
654.0,7.0,3.0,1.0,2.0,2.0,322.604075000072,1.0,1.0,part_1,,,,,,,,,,,,,magenta,triangle
155.0,1.0,1.0,0.0,1.0,1.0,376.7879449999327,1.0,1.0,part_1,,,,,,,,,,,,,orange,square
142.0,1.0,1.0,0.0,4.0,4.0,938.3048980000694,2.0,1.0,part_1,,,,,,,,,,,,,orange,square
308.0,2.0,2.0,0.0,4.0,4.0,431.0964339999827,2.0,1.0,part_1,,,,,,,,,,,,,yellow,circle
315.0,2.0,2.0,0.0,1.0,1.0,347.4966619999122,2.0,1.0,part_1,,,,,,,,,,,,,yellow,circle
337.0,6.0,2.0,1.0,1.0,1.0,328.2015590000355,2.0,1.0,part_1,,,,,,,,,,,,,gray,cross
1310.0,4.0,4.0,0.0,4.0,4.0,424.1631040001721,2.0,2.0,part_1,,,,,,,,,,,,,white,hexagon
0.0,5.0,0.0,1.0,2.0,2.0,460.0416119999408,2.0,1.0,part_1,,,,,,,,,,,,,cyan,flipped triangle
0.0,8.0,0.0,1.0,2.0,2.0,506.0282480001206,2.0,1.0,part_1,,,,,,,,,,,,,green,I
167.0,5.0,1.0,1.0,1.0,1.0,497.0187510000414,2.0,2.0,part_1,,,,,,,,,,,,,cyan,flipped triangle
303.0,6.0,2.0,1.0,3.0,3.0,610.1595389998238,2.0,1.0,part_1,,,,,,,,,,,,,gray,cross
1285.0,4.0,4.0,0.0,3.0,3.0,386.7965550000463,2.0,1.0,part_1,,,,,,,,,,,,,white,hexagon
652.0,3.0,3.0,0.0,4.0,4.0,366.210608000074,2.0,1.0,part_1,,,,,,,,,,,,,blue,diamond
0.0,4.0,0.0,0.0,3.0,3.0,346.9198200000392,2.0,1.0,part_1,,,,,,,,,,,,,white,hexagon
153.0,1.0,1.0,0.0,1.0,1.0,245.5209460001697,2.0,2.0,part_1,,,,,,,,,,,,,orange,square
671.0,3.0,3.0,0.0,3.0,3.0,488.5304780000297,2.0,1.0,part_1,,,,,,,,,,,,,blue,diamond
660.0,7.0,3.0,1.0,1.0,1.0,374.2522769998686,2.0,1.0,part_1,,,,,,,,,,,,,magenta,triangle
628.0,3.0,3.0,0.0,4.0,4.0,403.1030399999054,2.0,1.0,part_1,,,,,,,,,,,,,blue,diamond
0.0,5.0,0.0,1.0,2.0,2.0,440.8887589997903,2.0,1.0,part_1,,,,,,,,,,,,,cyan,flipped triangle
162.0,1.0,1.0,0.0,3.0,3.0,318.1621129999712,2.0,1.0,part_1,,,,,,,,,,,,,orange,square
1278.0,4.0,4.0,0.0,1.0,1.0,308.7199470000996,2.0,1.0,part_1,,,,,,,,,,,,,white,hexagon
337.0,6.0,2.0,1.0,3.0,3.0,330.1321689998531,2.0,1.0,part_1,,,,,,,,,,,,,gray,cross
0.0,8.0,0.0,1.0,4.0,4.0,468.7328359998446,2.0,1.0,part_1,,,,,,,,,,,,,green,I
1285.0,8.0,4.0,1.0,4.0,4.0,422.5822880000578,2.0,1.0,part_1,,,,,,,,,,,,,green,I
151.0,1.0,1.0,0.0,3.0,3.0,338.3455860000595,2.0,1.0,part_1,,,,,,,,,,,,,orange,square
1285.0,8.0,4.0,1.0,1.0,1.0,468.6861739999131,2.0,1.0,part_1,,,,,,,,,,,,,green,I
0.0,3.0,0.0,0.0,3.0,3.0,340.2534090000699,2.0,1.0,part_1,,,,,,,,,,,,,blue,diamond
342.0,6.0,2.0,1.0,2.0,2.0,235.3270109999812,2.0,2.0,part_1,,,,,,,,,,,,,gray,cross
1303.0,4.0,4.0,0.0,1.0,1.0,357.4663370000053,2.0,1.0,part_1,,,,,,,,,,,,,white,hexagon
671.0,3.0,3.0,0.0,1.0,1.0,404.2037899998831,2.0,1.0,part_1,,,,,,,,,,,,,blue,diamond
1319.0,8.0,4.0,1.0,3.0,3.0,387.8529640001034,2.0,1.0,part_1,,,,,,,,,,,,,green,I
643.0,7.0,3.0,1.0,2.0,2.0,440.06024600003,2.0,1.0,part_1,,,,,,,,,,,,,magenta,triangle
0.0,1.0,0.0,0.0,4.0,4.0,441.1564990000443,2.0,1.0,part_1,,,,,,,,,,,,,orange,square
0.0,2.0,0.0,0.0,4.0,4.0,282.6786919999904,2.0,2.0,part_1,,,,,,,,,,,,,yellow,circle
646.0,7.0,3.0,1.0,3.0,3.0,423.8212809998458,2.0,1.0,part_1,,,,,,,,,,,,,magenta,triangle
302.0,6.0,2.0,1.0,1.0,1.0,469.8360340000818,2.0,1.0,part_1,,,,,,,,,,,,,gray,cross
671.0,7.0,3.0,1.0,1.0,1.0,394.4977459998426,2.0,1.0,part_1,,,,,,,,,,,,,magenta,triangle
634.0,7.0,3.0,1.0,4.0,4.0,422.7826699998331,2.0,1.0,part_1,,,,,,,,,,,,,magenta,triangle
0.0,5.0,0.0,1.0,1.0,1.0,392.2535650001464,2.0,1.0,part_1,,,,,,,,,,,,,cyan,flipped triangle
1300.0,4.0,4.0,0.0,2.0,2.0,319.8254629999155,2.0,1.0,part_1,,,,,,,,,,,,,white,hexagon
316.0,6.0,2.0,1.0,1.0,1.0,394.6030959998552,2.0,1.0,part_1,,,,,,,,,,,,,gray,cross
0.0,8.0,0.0,1.0,3.0,3.0,348.368518999905,2.0,1.0,part_1,,,,,,,,,,,,,green,I
332.0,2.0,2.0,0.0,1.0,1.0,310.8101820000684,2.0,1.0,part_1,,,,,,,,,,,,,yellow,circle
338.0,2.0,2.0,0.0,1.0,1.0,310.3638840000258,2.0,1.0,part_1,,,,,,,,,,,,,yellow,circle
178.0,1.0,1.0,0.0,2.0,2.0,263.0643040001814,2.0,2.0,part_1,,,,,,,,,,,,,orange,square
0.0,1.0,0.0,0.0,2.0,2.0,449.9473920000127,2.0,1.0,part_1,,,,,,,,,,,,,orange,square
328.0,6.0,2.0,1.0,4.0,4.0,403.7905109998974,2.0,1.0,part_1,,,,,,,,,,,,,gray,cross
1318.0,8.0,4.0,1.0,4.0,4.0,411.8719630000669,2.0,1.0,part_1,,,,,,,,,,,,,green,I
321.0,6.0,2.0,1.0,4.0,4.0,336.6321280000193,2.0,1.0,part_1,,,,,,,,,,,,,gray,cross
303.0,6.0,2.0,1.0,3.0,3.0,347.2079059999942,2.0,1.0,part_1,,,,,,,,,,,,,gray,cross
149.0,1.0,1.0,0.0,1.0,1.0,327.6552899999387,2.0,1.0,part_1,,,,,,,,,,,,,orange,square
634.0,3.0,3.0,0.0,3.0,3.0,367.6768089999314,2.0,1.0,part_1,,,,,,,,,,,,,blue,diamond
0.0,3.0,0.0,0.0,3.0,3.0,339.1728449998936,2.0,1.0,part_1,,,,,,,,,,,,,blue,diamond
0.0,1.0,0.0,0.0,3.0,3.0,329.366058000005,2.0,1.0,part_1,,,,,,,,,,,,,orange,square
1325.0,8.0,4.0,1.0,3.0,3.0,319.7044979999646,2.0,1.0,part_1,,,,,,,,,,,,,green,I
161.0,1.0,1.0,0.0,3.0,3.0,281.8293249999897,2.0,1.0,part_1,,,,,,,,,,,,,orange,square
652.0,7.0,3.0,1.0,2.0,2.0,234.4912180001301,2.0,2.0,part_1,,,,,,,,,,,,,magenta,triangle
1306.0,4.0,4.0,0.0,3.0,3.0,347.3411679999572,2.0,1.0,part_1,,,,,,,,,,,,,white,hexagon
163.0,1.0,1.0,0.0,2.0,2.0,234.0451519999078,2.0,2.0,part_1,,,,,,,,,,,,,orange,square
0.0,6.0,0.0,1.0,3.0,3.0,384.8191080001015,2.0,1.0,part_1,,,,,,,,,,,,,gray,cross
663.0,3.0,3.0,0.0,3.0,3.0,375.3839480000351,2.0,1.0,part_1,,,,,,,,,,,,,blue,diamond
158.0,5.0,1.0,1.0,1.0,1.0,404.251234999947,2.0,1.0,part_1,,,,,,,,,,,,,cyan,flipped triangle
0.0,5.0,0.0,1.0,3.0,3.0,357.1680300001389,2.0,1.0,part_1,,,,,,,,,,,,,cyan,flipped triangle
317.0,2.0,2.0,0.0,4.0,4.0,355.9756859999652,2.0,1.0,part_1,,,,,,,,,,,,,yellow,circle
1278.0,8.0,4.0,1.0,3.0,3.0,404.1487239999242,2.0,1.0,part_1,,,,,,,,,,,,,green,I
0.0,7.0,0.0,1.0,1.0,1.0,442.302208000001,2.0,1.0,part_1,,,,,,,,,,,,,magenta,triangle
155.0,5.0,1.0,1.0,4.0,4.0,337.9912890000014,2.0,1.0,part_1,,,,,,,,,,,,,cyan,flipped triangle
182.0,1.0,1.0,0.0,2.0,2.0,421.4002310000069,2.0,1.0,part_1,,,,,,,,,,,,,orange,square
178.0,1.0,1.0,0.0,3.0,3.0,367.0540680000158,2.0,1.0,part_1,,,,,,,,,,,,,orange,square
170.0,1.0,1.0,0.0,4.0,4.0,355.9494050000467,2.0,1.0,part_1,,,,,,,,,,,,,orange,square
636.0,7.0,3.0,1.0,3.0,3.0,476.8985480000083,2.0,1.0,part_1,,,,,,,,,,,,,magenta,triangle
628.0,3.0,3.0,0.0,4.0,4.0,573.3201819998612,2.0,1.0,part_1,,,,,,,,,,,,,blue,diamond
1286.0,4.0,4.0,0.0,2.0,2.0,543.288529000165,2.0,1.0,part_1,,,,,,,,,,,,,white,hexagon
1310.0,8.0,4.0,1.0,1.0,1.0,637.8670520000469,2.0,1.0,part_1,,,,,,,,,,,,,green,I
342.0,6.0,2.0,1.0,1.0,1.0,393.4531509999033,2.0,1.0,part_1,,,,,,,,,,,,,gray,cross
309.0,2.0,2.0,0.0,4.0,4.0,318.1937120000384,2.0,1.0,part_1,,,,,,,,,,,,,yellow,circle
1284.0,4.0,4.0,0.0,4.0,4.0,346.9656080001186,2.0,1.0,part_1,,,,,,,,,,,,,white,hexagon
172.0,5.0,1.0,1.0,3.0,3.0,365.3956279999875,2.0,1.0,part_1,,,,,,,,,,,,,cyan,flipped triangle
313.0,6.0,2.0,1.0,3.0,3.0,347.3556890000964,2.0,1.0,part_1,,,,,,,,,,,,,gray,cross
643.0,3.0,3.0,0.0,3.0,3.0,356.7476050000095,2.0,1.0,part_1,,,,,,,,,,,,,blue,diamond
0.0,7.0,0.0,1.0,1.0,1.0,468.666039999789,2.0,1.0,part_1,,,,,,,,,,,,,magenta,triangle
628.0,3.0,3.0,0.0,3.0,3.0,347.0159050000347,2.0,1.0,part_1,,,,,,,,,,,,,blue,diamond
635.0,7.0,3.0,1.0,1.0,1.0,666.1948720000055,2.0,1.0,part_1,,,,,,,,,,,,,magenta,triangle
672.0,3.0,3.0,0.0,1.0,1.0,384.695124000018,2.0,1.0,part_1,,,,,,,,,,,,,blue,diamond
149.0,5.0,1.0,1.0,2.0,2.0,450.4260640001121,2.0,1.0,part_1,,,,,,,,,,,,,cyan,flipped triangle
166.0,5.0,1.0,1.0,1.0,1.0,506.8949750000229,2.0,1.0,part_1,,,,,,,,,,,,,cyan,flipped triangle
1288.0,4.0,4.0,0.0,1.0,1.0,412.6248240002041,2.0,1.0,part_1,,,,,,,,,,,,,white,hexagon
0.0,3.0,0.0,0.0,4.0,4.0,357.9632089999904,2.0,1.0,part_1,,,,,,,,,,,,,blue,diamond
0.0,4.0,0.0,0.0,1.0,1.0,375.261091000084,2.0,1.0,part_1,,,,,,,,,,,,,white,hexagon
0.0,4.0,0.0,0.0,2.0,2.0,393.1151960000534,2.0,1.0,part_1,,,,,,,,,,,,,white,hexagon
163.0,5.0,1.0,1.0,3.0,3.0,403.554928999938,2.0,1.0,part_1,,,,,,,,,,,,,cyan,flipped triangle
626.0,3.0,3.0,0.0,2.0,2.0,797.0431100000042,2.0,1.0,part_1,,,,,,,,,,,,,blue,diamond
1311.0,4.0,4.0,0.0,1.0,1.0,517.4670750000132,2.0,1.0,part_1,,,,,,,,,,,,,white,hexagon
1292.0,8.0,4.0,1.0,4.0,4.0,440.9467179998501,2.0,1.0,part_1,,,,,,,,,,,,,green,I
0.0,4.0,0.0,0.0,1.0,1.0,394.3890589998773,2.0,1.0,part_1,,,,,,,,,,,,,white,hexagon
0.0,7.0,0.0,1.0,3.0,3.0,487.9962669999713,2.0,1.0,part_1,,,,,,,,,,,,,magenta,triangle
1305.0,4.0,4.0,0.0,4.0,4.0,629.4780709999941,2.0,1.0,part_1,,,,,,,,,,,,,white,hexagon
333.0,2.0,2.0,0.0,1.0,1.0,965.9417450000092,2.0,1.0,part_1,,,,,,,,,,,,,yellow,circle
636.0,3.0,3.0,0.0,3.0,3.0,385.9535169999617,2.0,1.0,part_1,,,,,,,,,,,,,blue,diamond
660.0,3.0,3.0,0.0,2.0,2.0,423.6549610000111,2.0,1.0,part_1,,,,,,,,,,,,,blue,diamond
0.0,2.0,0.0,0.0,3.0,3.0,572.9172789999666,2.0,1.0,part_1,,,,,,,,,,,,,yellow,circle
151.0,5.0,1.0,1.0,3.0,3.0,413.8807469998937,2.0,1.0,part_1,,,,,,,,,,,,,cyan,flipped triangle
341.0,6.0,2.0,1.0,1.0,1.0,393.6899840000478,3.0,1.0,part_1,,,,,,,,,,,,,gray,cross
162.0,1.0,1.0,0.0,4.0,4.0,301.3209770001595,3.0,1.0,part_1,,,,,,,,,,,,,orange,square
0.0,3.0,0.0,0.0,2.0,2.0,346.5517980000641,3.0,1.0,part_1,,,,,,,,,,,,,blue,diamond
144.0,5.0,1.0,1.0,2.0,2.0,524.4386650001616,3.0,1.0,part_1,,,,,,,,,,,,,cyan,flipped triangle
306.0,6.0,2.0,1.0,2.0,2.0,394.1840469999533,3.0,1.0,part_1,,,,,,,,,,,,,gray,cross
318.0,2.0,2.0,0.0,1.0,1.0,375.0670119998176,3.0,1.0,part_1,,,,,,,,,,,,,yellow,circle
1279.0,4.0,4.0,0.0,3.0,3.0,469.2011610000008,3.0,1.0,part_1,,,,,,,,,,,,,white,hexagon
1319.0,4.0,4.0,0.0,4.0,4.0,346.6068189998168,3.0,1.0,part_1,,,,,,,,,,,,,white,hexagon
146.0,1.0,1.0,0.0,2.0,2.0,346.5668240000923,3.0,1.0,part_1,,,,,,,,,,,,,orange,square
306.0,2.0,2.0,0.0,1.0,1.0,496.4591420000488,3.0,1.0,part_1,,,,,,,,,,,,,yellow,circle
179.0,5.0,1.0,1.0,4.0,4.0,272.3317170000428,3.0,1.0,part_1,,,,,,,,,,,,,cyan,flipped triangle
342.0,2.0,2.0,0.0,4.0,4.0,346.9595039998694,3.0,1.0,part_1,,,,,,,,,,,,,yellow,circle
0.0,5.0,0.0,1.0,3.0,3.0,318.4357129998716,3.0,1.0,part_1,,,,,,,,,,,,,cyan,flipped triangle
334.0,2.0,2.0,0.0,3.0,3.0,421.0894919999646,3.0,1.0,part_1,,,,,,,,,,,,,yellow,circle
1303.0,8.0,4.0,1.0,4.0,4.0,356.46171999997017,3.0,1.0,part_1,,,,,,,,,,,,,green,I
1277.0,8.0,4.0,1.0,1.0,1.0,384.9535139997897,3.0,1.0,part_1,,,,,,,,,,,,,green,I
1305.0,8.0,4.0,1.0,2.0,2.0,421.8372539999109,3.0,1.0,part_1,,,,,,,,,,,,,green,I
1276.0,8.0,4.0,1.0,2.0,2.0,402.5293280001278,3.0,1.0,part_1,,,,,,,,,,,,,green,I
328.0,2.0,2.0,0.0,2.0,2.0,365.6284179999147,3.0,1.0,part_1,,,,,,,,,,,,,yellow,circle
1298.0,8.0,4.0,1.0,1.0,1.0,234.8352120000072,3.0,2.0,part_1,,,,,,,,,,,,,green,I
176.0,1.0,1.0,0.0,2.0,2.0,253.1919799998832,3.0,2.0,part_1,,,,,,,,,,,,,orange,square
1294.0,4.0,4.0,0.0,1.0,1.0,403.9638850001665,3.0,1.0,part_1,,,,,,,,,,,,,white,hexagon
1318.0,8.0,4.0,1.0,4.0,4.0,374.3783090001216,3.0,1.0,part_1,,,,,,,,,,,,,green,I
155.0,1.0,1.0,0.0,4.0,4.0,431.3156139999137,3.0,1.0,part_1,,,,,,,,,,,,,orange,square
158.0,5.0,1.0,1.0,4.0,4.0,328.4023539999907,3.0,1.0,part_1,,,,,,,,,,,,,cyan,flipped triangle
310.0,6.0,2.0,1.0,4.0,4.0,327.12393099996,3.0,1.0,part_1,,,,,,,,,,,,,gray,cross
162.0,5.0,1.0,1.0,2.0,2.0,393.9899849999619,3.0,1.0,part_1,,,,,,,,,,,,,cyan,flipped triangle
0.0,6.0,0.0,1.0,4.0,4.0,338.6770040001465,3.0,1.0,part_1,,,,,,,,,,,,,gray,cross
1292.0,4.0,4.0,0.0,2.0,2.0,393.6204350000025,3.0,1.0,part_1,,,,,,,,,,,,,white,hexagon
0.0,3.0,0.0,0.0,1.0,1.0,498.1421210000007,3.0,1.0,part_1,,,,,,,,,,,,,blue,diamond
663.0,7.0,3.0,1.0,1.0,1.0,384.3465439999818,3.0,1.0,part_1,,,,,,,,,,,,,magenta,triangle
186.0,5.0,1.0,1.0,1.0,1.0,319.8707910000848,3.0,1.0,part_1,,,,,,,,,,,,,cyan,flipped triangle
626.0,7.0,3.0,1.0,4.0,4.0,422.6794880000852,3.0,1.0,part_1,,,,,,,,,,,,,magenta,triangle
0.0,6.0,0.0,1.0,3.0,3.0,413.8001839999106,3.0,1.0,part_1,,,,,,,,,,,,,gray,cross
628.0,7.0,3.0,1.0,4.0,4.0,414.5749160002197,3.0,1.0,part_1,,,,,,,,,,,,,magenta,triangle
1310.0,4.0,4.0,0.0,1.0,1.0,357.2890329999154,3.0,1.0,part_1,,,,,,,,,,,,,white,hexagon
1300.0,8.0,4.0,1.0,3.0,3.0,311.9493379999767,3.0,1.0,part_1,,,,,,,,,,,,,green,I
0.0,6.0,0.0,1.0,1.0,1.0,479.0889099999731,3.0,1.0,part_1,,,,,,,,,,,,,gray,cross
646.0,7.0,3.0,1.0,2.0,2.0,432.4229199999081,3.0,1.0,part_1,,,,,,,,,,,,,magenta,triangle
638.0,7.0,3.0,1.0,3.0,3.0,339.4918500000585,3.0,1.0,part_1,,,,,,,,,,,,,magenta,triangle
338.0,2.0,2.0,0.0,2.0,2.0,526.556901000049,3.0,1.0,part_1,,,,,,,,,,,,,yellow,circle
161.0,5.0,1.0,1.0,3.0,3.0,461.9765059999281,3.0,1.0,part_1,,,,,,,,,,,,,cyan,flipped triangle
0.0,2.0,0.0,0.0,3.0,3.0,365.9916340000109,3.0,1.0,part_1,,,,,,,,,,,,,yellow,circle
303.0,2.0,2.0,0.0,2.0,2.0,450.4305639998165,3.0,1.0,part_1,,,,,,,,,,,,,yellow,circle
1294.0,8.0,4.0,1.0,3.0,3.0,386.5134410000337,3.0,1.0,part_1,,,,,,,,,,,,,green,I
1323.0,4.0,4.0,0.0,2.0,2.0,448.9732399999866,3.0,1.0,part_1,,,,,,,,,,,,,white,hexagon
0.0,4.0,0.0,0.0,4.0,4.0,386.0182949999853,3.0,1.0,part_1,,,,,,,,,,,,,white,hexagon
1296.0,4.0,4.0,0.0,3.0,3.0,366.7380439999306,3.0,1.0,part_1,,,,,,,,,,,,,white,hexagon
182.0,1.0,1.0,0.0,4.0,4.0,480.0474860001031,3.0,1.0,part_1,,,,,,,,,,,,,orange,square
0.0,8.0,0.0,1.0,4.0,4.0,348.2013899999856,3.0,1.0,part_1,,,,,,,,,,,,,green,I
316.0,2.0,2.0,0.0,3.0,3.0,291.6128499998649,3.0,1.0,part_1,,,,,,,,,,,,,yellow,circle
1318.0,4.0,4.0,0.0,4.0,4.0,404.6769359999871,3.0,1.0,part_1,,,,,,,,,,,,,white,hexagon
310.0,2.0,2.0,0.0,1.0,1.0,386.3910679999662,3.0,1.0,part_1,,,,,,,,,,,,,yellow,circle
664.0,7.0,3.0,1.0,2.0,2.0,412.3979940000026,3.0,1.0,part_1,,,,,,,,,,,,,magenta,triangle
671.0,3.0,3.0,0.0,4.0,4.0,366.8160659999557,3.0,1.0,part_1,,,,,,,,,,,,,blue,diamond
1296.0,8.0,4.0,1.0,4.0,4.0,291.3365100000646,3.0,2.0,part_1,,,,,,,,,,,,,green,I
658.0,7.0,3.0,1.0,3.0,3.0,431.923228000187,3.0,1.0,part_1,,,,,,,,,,,,,magenta,triangle
146.0,5.0,1.0,1.0,1.0,1.0,262.733980999883,3.0,2.0,part_1,,,,,,,,,,,,,cyan,flipped triangle
309.0,6.0,2.0,1.0,2.0,2.0,505.80814400018426,3.0,1.0,part_1,,,,,,,,,,,,,gray,cross
637.0,7.0,3.0,1.0,1.0,1.0,413.0690209999557,3.0,1.0,part_1,,,,,,,,,,,,,magenta,triangle
345.0,6.0,2.0,1.0,3.0,3.0,347.0734229999834,3.0,1.0,part_1,,,,,,,,,,,,,gray,cross
0.0,3.0,0.0,0.0,3.0,3.0,347.444373999906,3.0,1.0,part_1,,,,,,,,,,,,,blue,diamond
0.0,8.0,0.0,1.0,1.0,1.0,337.9063899999437,3.0,1.0,part_1,,,,,,,,,,,,,green,I
1284.0,8.0,4.0,1.0,1.0,1.0,345.6957070000044,3.0,1.0,part_1,,,,,,,,,,,,,green,I
1292.0,8.0,4.0,1.0,3.0,3.0,337.9415570000219,3.0,1.0,part_1,,,,,,,,,,,,,green,I
0.0,1.0,0.0,0.0,2.0,2.0,224.6591269999953,3.0,2.0,part_1,,,,,,,,,,,,,orange,square
1315.0,8.0,4.0,1.0,4.0,4.0,477.5785089998408,3.0,1.0,part_1,,,,,,,,,,,,,green,I
645.0,7.0,3.0,1.0,1.0,1.0,411.5521159999389,3.0,1.0,part_1,,,,,,,,,,,,,magenta,triangle
0.0,4.0,0.0,0.0,4.0,4.0,355.9006800001043,3.0,1.0,part_1,,,,,,,,,,,,,white,hexagon
655.0,7.0,3.0,1.0,4.0,4.0,523.0950249999751,3.0,1.0,part_1,,,,,,,,,,,,,magenta,triangle
664.0,3.0,3.0,0.0,1.0,1.0,345.5055740000716,3.0,1.0,part_1,,,,,,,,,,,,,blue,diamond
306.0,2.0,2.0,0.0,4.0,4.0,337.3814710000715,3.0,1.0,part_1,,,,,,,,,,,,,yellow,circle
1293.0,8.0,4.0,1.0,2.0,2.0,214.6352820000174,3.0,2.0,part_1,,,,,,,,,,,,,green,I
345.0,2.0,2.0,0.0,2.0,2.0,365.4675319999114,3.0,1.0,part_1,,,,,,,,,,,,,yellow,circle
176.0,5.0,1.0,1.0,4.0,4.0,337.4784229999932,3.0,1.0,part_1,,,,,,,,,,,,,cyan,flipped triangle
1296.0,8.0,4.0,1.0,3.0,3.0,394.5630759999403,3.0,1.0,part_1,,,,,,,,,,,,,green,I
1300.0,8.0,4.0,1.0,4.0,4.0,336.6744410000137,3.0,1.0,part_1,,,,,,,,,,,,,green,I
158.0,1.0,1.0,0.0,3.0,3.0,346.8616469999688,3.0,1.0,part_1,,,,,,,,,,,,,orange,square
0.0,4.0,0.0,0.0,3.0,3.0,384.2380179999054,3.0,1.0,part_1,,,,,,,,,,,,,white,hexagon
0.0,2.0,0.0,0.0,2.0,2.0,383.6226089999854,3.0,1.0,part_1,,,,,,,,,,,,,yellow,circle
336.0,2.0,2.0,0.0,1.0,1.0,308.8591430000633,3.0,1.0,part_1,,,,,,,,,,,,,yellow,circle
0.0,2.0,0.0,0.0,1.0,1.0,355.6625870000971,3.0,1.0,part_1,,,,,,,,,,,,,yellow,circle
1293.0,4.0,4.0,0.0,2.0,2.0,224.4898550000016,3.0,2.0,part_1,,,,,,,,,,,,,white,hexagon
1306.0,8.0,4.0,1.0,3.0,3.0,421.0859380000329,3.0,1.0,part_1,,,,,,,,,,,,,green,I
137.0,5.0,1.0,1.0,2.0,2.0,532.1191470000031,3.0,1.0,part_1,,,,,,,,,,,,,cyan,flipped triangle
0.0,5.0,0.0,1.0,4.0,4.0,346.8302109999968,3.0,1.0,part_1,,,,,,,,,,,,,cyan,flipped triangle
179.0,1.0,1.0,0.0,1.0,1.0,430.5164669999612,3.0,1.0,part_1,,,,,,,,,,,,,orange,square
1324.0,4.0,4.0,0.0,2.0,2.0,468.1051159998333,3.0,1.0,part_1,,,,,,,,,,,,,white,hexagon
149.0,1.0,1.0,0.0,2.0,2.0,365.5426679999891,3.0,1.0,part_1,,,,,,,,,,,,,orange,square
0.0,3.0,0.0,0.0,2.0,2.0,393.34391400007,3.0,1.0,part_1,,,,,,,,,,,,,blue,diamond
0.0,6.0,0.0,1.0,3.0,3.0,393.9300800000183,3.0,1.0,part_1,,,,,,,,,,,,,gray,cross
640.0,3.0,3.0,0.0,1.0,1.0,524.626858999909,3.0,1.0,part_1,,,,,,,,,,,,,blue,diamond
185.0,1.0,1.0,0.0,1.0,1.0,366.2781689999974,3.0,1.0,part_1,,,,,,,,,,,,,orange,square
0.0,7.0,0.0,1.0,3.0,3.0,395.1990969999315,3.0,1.0,part_1,,,,,,,,,,,,,magenta,triangle
146.0,1.0,1.0,0.0,2.0,2.0,458.5436879999633,3.0,1.0,part_1,,,,,,,,,,,,,orange,square
0.0,6.0,0.0,1.0,1.0,1.0,383.1368989999646,3.0,1.0,part_1,,,,,,,,,,,,,gray,cross
0.0,7.0,0.0,1.0,2.0,2.0,553.013958000065,3.0,1.0,part_1,,,,,,,,,,,,,magenta,triangle
313.0,2.0,2.0,0.0,3.0,3.0,346.3866839999809,3.0,1.0,part_1,,,,,,,,,,,,,yellow,circle
162.0,5.0,1.0,1.0,3.0,3.0,384.4263500000124,3.0,1.0,part_1,,,,,,,,,,,,,cyan,flipped triangle
155.0,5.0,1.0,1.0,3.0,3.0,309.0491569998903,3.0,1.0,part_1,,,,,,,,,,,,,cyan,flipped triangle
346.0,2.0,2.0,0.0,3.0,3.0,393.3446139999432,4.0,1.0,part_1,,,,,,,,,,,,,yellow,circle
0.0,5.0,0.0,1.0,2.0,2.0,392.4004959999365,4.0,1.0,part_1,,,,,,,,,,,,,cyan,flipped triangle
1311.0,8.0,4.0,1.0,3.0,3.0,393.49633300003,4.0,1.0,part_1,,,,,,,,,,,,,green,I
0.0,5.0,0.0,1.0,3.0,3.0,385.3342180000254,4.0,1.0,part_1,,,,,,,,,,,,,cyan,flipped triangle
0.0,3.0,0.0,0.0,1.0,1.0,365.1238039999498,4.0,1.0,part_1,,,,,,,,,,,,,blue,diamond
658.0,3.0,3.0,0.0,3.0,3.0,376.6638470001453,4.0,1.0,part_1,,,,,,,,,,,,,blue,diamond
635.0,3.0,3.0,0.0,4.0,4.0,498.3541729998251,4.0,1.0,part_1,,,,,,,,,,,,,blue,diamond
1315.0,4.0,4.0,0.0,4.0,4.0,450.6172809999498,4.0,1.0,part_1,,,,,,,,,,,,,white,hexagon
635.0,3.0,3.0,0.0,2.0,2.0,374.556954999889,4.0,1.0,part_1,,,,,,,,,,,,,blue,diamond
0.0,1.0,0.0,0.0,3.0,3.0,432.3332870001195,4.0,1.0,part_1,,,,,,,,,,,,,orange,square
149.0,5.0,1.0,1.0,1.0,1.0,348.6382420001064,4.0,1.0,part_1,,,,,,,,,,,,,cyan,flipped triangle
162.0,5.0,1.0,1.0,2.0,2.0,374.7856750001119,4.0,1.0,part_1,,,,,,,,,,,,,cyan,flipped triangle
1292.0,4.0,4.0,0.0,3.0,3.0,422.7083769999353,4.0,1.0,part_1,,,,,,,,,,,,,white,hexagon
0.0,7.0,0.0,1.0,1.0,1.0,358.2567460000518,4.0,1.0,part_1,,,,,,,,,,,,,magenta,triangle
0.0,2.0,0.0,0.0,1.0,1.0,413.6187149999841,4.0,1.0,part_1,,,,,,,,,,,,,yellow,circle
0.0,8.0,0.0,1.0,1.0,1.0,338.4028210000451,4.0,1.0,part_1,,,,,,,,,,,,,green,I
166.0,1.0,1.0,0.0,3.0,3.0,386.5858100000423,4.0,1.0,part_1,,,,,,,,,,,,,orange,square
186.0,1.0,1.0,0.0,3.0,3.0,244.5446970000375,4.0,2.0,part_1,,,,,,,,,,,,,orange,square
303.0,2.0,2.0,0.0,3.0,3.0,337.618453999994,4.0,1.0,part_1,,,,,,,,,,,,,yellow,circle
151.0,5.0,1.0,1.0,4.0,4.0,357.6876600000105,4.0,1.0,part_1,,,,,,,,,,,,,cyan,flipped triangle
646.0,3.0,3.0,0.0,4.0,4.0,300.6148819999907,4.0,1.0,part_1,,,,,,,,,,,,,blue,diamond
645.0,3.0,3.0,0.0,1.0,1.0,300.7220199999665,4.0,1.0,part_1,,,,,,,,,,,,,blue,diamond
628.0,7.0,3.0,1.0,4.0,4.0,393.9985289998731,4.0,1.0,part_1,,,,,,,,,,,,,magenta,triangle
323.0,2.0,2.0,0.0,1.0,1.0,300.4389560001073,4.0,1.0,part_1,,,,,,,,,,,,,yellow,circle
338.0,6.0,2.0,1.0,2.0,2.0,393.5190449999481,4.0,1.0,part_1,,,,,,,,,,,,,gray,cross
0.0,7.0,0.0,1.0,1.0,1.0,440.38639900009,4.0,1.0,part_1,,,,,,,,,,,,,magenta,triangle
1318.0,4.0,4.0,0.0,1.0,1.0,338.074884999969,4.0,1.0,part_1,,,,,,,,,,,,,white,hexagon
1321.0,8.0,4.0,1.0,4.0,4.0,444.1940320000412,4.0,1.0,part_1,,,,,,,,,,,,,green,I
1279.0,8.0,4.0,1.0,2.0,2.0,449.5864979999169,4.0,1.0,part_1,,,,,,,,,,,,,green,I
626.0,7.0,3.0,1.0,3.0,3.0,338.0398889999014,4.0,1.0,part_1,,,,,,,,,,,,,magenta,triangle
0.0,7.0,0.0,1.0,1.0,1.0,442.0794679999744,4.0,1.0,part_1,,,,,,,,,,,,,magenta,triangle
637.0,3.0,3.0,0.0,2.0,2.0,469.8468280000725,4.0,1.0,part_1,,,,,,,,,,,,,blue,diamond
182.0,5.0,1.0,1.0,1.0,1.0,423.1492769999931,4.0,1.0,part_1,,,,,,,,,,,,,cyan,flipped triangle
308.0,6.0,2.0,1.0,4.0,4.0,432.2281949998796,4.0,1.0,part_1,,,,,,,,,,,,,gray,cross
0.0,8.0,0.0,1.0,4.0,4.0,217.5754940001297,4.0,2.0,part_1,,,,,,,,,,,,,green,I
1288.0,8.0,4.0,1.0,2.0,2.0,421.7626049999126,4.0,1.0,part_1,,,,,,,,,,,,,green,I
671.0,7.0,3.0,1.0,4.0,4.0,450.240150999889,4.0,1.0,part_1,,,,,,,,,,,,,magenta,triangle
332.0,6.0,2.0,1.0,1.0,1.0,505.7468479999443,4.0,1.0,part_1,,,,,,,,,,,,,gray,cross
1310.0,8.0,4.0,1.0,1.0,1.0,385.4942229997959,4.0,1.0,part_1,,,,,,,,,,,,,green,I
0.0,1.0,0.0,0.0,3.0,3.0,347.800817999996,4.0,1.0,part_1,,,,,,,,,,,,,orange,square
643.0,3.0,3.0,0.0,2.0,2.0,318.7791200000447,4.0,1.0,part_1,,,,,,,,,,,,,blue,diamond
340.0,6.0,2.0,1.0,2.0,2.0,357.0385509999596,4.0,1.0,part_1,,,,,,,,,,,,,gray,cross
151.0,1.0,1.0,0.0,4.0,4.0,394.6547880000253,4.0,1.0,part_1,,,,,,,,,,,,,orange,square
301.0,6.0,2.0,1.0,1.0,1.0,431.71481999979727,4.0,1.0,part_1,,,,,,,,,,,,,gray,cross
640.0,7.0,3.0,1.0,3.0,3.0,383.9741719998528,4.0,1.0,part_1,,,,,,,,,,,,,magenta,triangle
315.0,6.0,2.0,1.0,3.0,3.0,460.678044999895,4.0,1.0,part_1,,,,,,,,,,,,,gray,cross
171.0,5.0,1.0,1.0,2.0,2.0,375.2719270000852,4.0,1.0,part_1,,,,,,,,,,,,,cyan,flipped triangle
1284.0,4.0,4.0,0.0,3.0,3.0,347.3203029998331,4.0,1.0,part_1,,,,,,,,,,,,,white,hexagon
144.0,1.0,1.0,0.0,4.0,4.0,412.2582310001235,4.0,1.0,part_1,,,,,,,,,,,,,orange,square
144.0,1.0,1.0,0.0,1.0,1.0,402.7142069999172,4.0,1.0,part_1,,,,,,,,,,,,,orange,square
1285.0,8.0,4.0,1.0,3.0,3.0,384.1359400003057,4.0,1.0,part_1,,,,,,,,,,,,,green,I
0.0,4.0,0.0,0.0,3.0,3.0,385.423757999888,4.0,1.0,part_1,,,,,,,,,,,,,white,hexagon
162.0,1.0,1.0,0.0,3.0,3.0,375.9115980001297,4.0,1.0,part_1,,,,,,,,,,,,,orange,square
182.0,5.0,1.0,1.0,3.0,3.0,318.9979119997588,4.0,1.0,part_1,,,,,,,,,,,,,cyan,flipped triangle
657.0,3.0,3.0,0.0,1.0,1.0,383.8027230003717,4.0,1.0,part_1,,,,,,,,,,,,,blue,diamond
1298.0,4.0,4.0,0.0,4.0,4.0,323.4072000000196,4.0,1.0,part_1,,,,,,,,,,,,,white,hexagon
1291.0,8.0,4.0,1.0,4.0,4.0,496.2146989996654,4.0,1.0,part_1,,,,,,,,,,,,,green,I
346.0,6.0,2.0,1.0,3.0,3.0,475.3698550002809,4.0,1.0,part_1,,,,,,,,,,,,,gray,cross
1320.0,4.0,4.0,0.0,3.0,3.0,422.4170980000963,4.0,1.0,part_1,,,,,,,,,,,,,white,hexagon
172.0,1.0,1.0,0.0,1.0,1.0,422.2322360001271,4.0,1.0,part_1,,,,,,,,,,,,,orange,square
340.0,2.0,2.0,0.0,1.0,1.0,328.4074399998644,4.0,1.0,part_1,,,,,,,,,,,,,yellow,circle
0.0,1.0,0.0,0.0,4.0,4.0,355.6680519996007,4.0,1.0,part_1,,,,,,,,,,,,,orange,square
180.0,1.0,1.0,0.0,2.0,2.0,553.2302060000802,4.0,1.0,part_1,,,,,,,,,,,,,orange,square
1293.0,8.0,4.0,1.0,2.0,2.0,355.6576510000013,4.0,1.0,part_1,,,,,,,,,,,,,green,I
1286.0,8.0,4.0,1.0,2.0,2.0,374.9881209996601,4.0,1.0,part_1,,,,,,,,,,,,,green,I
337.0,2.0,2.0,0.0,3.0,3.0,440.9110270003111,4.0,1.0,part_1,,,,,,,,,,,,,yellow,circle
671.0,7.0,3.0,1.0,4.0,4.0,450.080173999595,4.0,1.0,part_1,,,,,,,,,,,,,magenta,triangle
328.0,6.0,2.0,1.0,3.0,3.0,394.3599340000219,4.0,1.0,part_1,,,,,,,,,,,,,gray,cross
666.0,3.0,3.0,0.0,4.0,4.0,356.7759349998596,4.0,1.0,part_1,,,,,,,,,,,,,blue,diamond
1285.0,4.0,4.0,0.0,3.0,3.0,356.695517999924,4.0,1.0,part_1,,,,,,,,,,,,,white,hexagon
151.0,1.0,1.0,0.0,4.0,4.0,356.7925929996818,4.0,1.0,part_1,,,,,,,,,,,,,orange,square
1323.0,8.0,4.0,1.0,2.0,2.0,365.2130569998917,4.0,1.0,part_1,,,,,,,,,,,,,green,I
655.0,3.0,3.0,0.0,1.0,1.0,374.9158559999159,4.0,1.0,part_1,,,,,,,,,,,,,blue,diamond
348.0,2.0,2.0,0.0,4.0,4.0,412.2874979998414,4.0,1.0,part_1,,,,,,,,,,,,,yellow,circle
332.0,2.0,2.0,0.0,3.0,3.0,300.4290779999792,4.0,1.0,part_1,,,,,,,,,,,,,yellow,circle
646.0,3.0,3.0,0.0,2.0,2.0,450.2357549999942,4.0,1.0,part_1,,,,,,,,,,,,,blue,diamond
663.0,7.0,3.0,1.0,1.0,1.0,479.5914420001281,4.0,1.0,part_1,,,,,,,,,,,,,magenta,triangle
1310.0,8.0,4.0,1.0,2.0,2.0,373.7849630001619,4.0,1.0,part_1,,,,,,,,,,,,,green,I
1310.0,4.0,4.0,0.0,4.0,4.0,300.1730370001496,4.0,1.0,part_1,,,,,,,,,,,,,white,hexagon
338.0,6.0,2.0,1.0,4.0,4.0,356.2399630000072,4.0,1.0,part_1,,,,,,,,,,,,,gray,cross
310.0,6.0,2.0,1.0,1.0,1.0,346.5096099998845,4.0,1.0,part_1,,,,,,,,,,,,,gray,cross
144.0,5.0,1.0,1.0,3.0,3.0,319.2379130000518,4.0,1.0,part_1,,,,,,,,,,,,,cyan,flipped triangle
311.0,6.0,2.0,1.0,1.0,1.0,449.4493339998371,4.0,1.0,part_1,,,,,,,,,,,,,gray,cross
348.0,6.0,2.0,1.0,1.0,1.0,309.5137240002259,4.0,1.0,part_1,,,,,,,,,,,,,gray,cross
0.0,6.0,0.0,1.0,3.0,3.0,376.1708320002981,4.0,1.0,part_1,,,,,,,,,,,,,gray,cross
663.0,3.0,3.0,0.0,2.0,2.0,430.7279009999547,4.0,1.0,part_1,,,,,,,,,,,,,blue,diamond
662.0,3.0,3.0,0.0,2.0,2.0,412.7691429998776,4.0,1.0,part_1,,,,,,,,,,,,,blue,diamond
667.0,3.0,3.0,0.0,1.0,1.0,357.5020920002316,4.0,1.0,part_1,,,,,,,,,,,,,blue,diamond
0.0,2.0,0.0,0.0,2.0,2.0,394.4588500003192,4.0,1.0,part_1,,,,,,,,,,,,,yellow,circle
314.0,2.0,2.0,0.0,2.0,2.0,411.827816999903,4.0,1.0,part_1,,,,,,,,,,,,,yellow,circle
171.0,1.0,1.0,0.0,1.0,1.0,384.8662989998956,4.0,1.0,part_1,,,,,,,,,,,,,orange,square
333.0,6.0,2.0,1.0,4.0,4.0,366.0515659998964,4.0,1.0,part_1,,,,,,,,,,,,,gray,cross
672.0,7.0,3.0,1.0,3.0,3.0,337.6491620001616,4.0,1.0,part_1,,,,,,,,,,,,,magenta,triangle
667.0,7.0,3.0,1.0,4.0,4.0,421.7161059996215,4.0,1.0,part_1,,,,,,,,,,,,,magenta,triangle
151.0,1.0,1.0,0.0,4.0,4.0,365.2046440001868,4.0,1.0,part_1,,,,,,,,,,,,,orange,square
185.0,5.0,1.0,1.0,4.0,4.0,336.9385189998866,4.0,1.0,part_1,,,,,,,,,,,,,cyan,flipped triangle
310.0,2.0,2.0,0.0,3.0,3.0,337.6756749999003,4.0,1.0,part_1,,,,,,,,,,,,,yellow,circle
665.0,7.0,3.0,1.0,1.0,1.0,301.0507520002647,4.0,1.0,part_1,,,,,,,,,,,,,magenta,triangle
1324.0,8.0,4.0,1.0,1.0,1.0,244.0815999998449,4.0,2.0,part_1,,,,,,,,,,,,,green,I
0.0,1.0,0.0,0.0,4.0,4.0,337.2219590000895,4.0,1.0,part_1,,,,,,,,,,,,,orange,square
0.0,1.0,1.0,0.0,5.0,5.0,294.5785070000966,1.0,0.0,part_2,go,250.0,250.0,1.0,,,,,,,,,orange,square
0.0,7.0,3.0,1.0,6.0,0.0,0.0,1.0,0.0,part_2,stop,250.0,250.0,4.0,,,,,,,,,magenta,triangle
0.0,2.0,2.0,0.0,6.0,6.0,341.1745159996826,1.0,0.0,part_2,go,250.0,300.0,1.0,,,,,,,,,yellow,circle
0.0,6.0,2.0,1.0,5.0,0.0,0.0,1.0,0.0,part_2,stop,250.0,300.0,4.0,,,,,,,,,gray,cross
0.0,5.0,1.0,1.0,6.0,6.0,363.1430460000047,1.0,0.0,part_2,stop,300.0,300.0,3.0,,,,,,,,,cyan,flipped triangle
0.0,5.0,1.0,1.0,5.0,0.0,0.0,1.0,0.0,part_2,stop,300.0,250.0,4.0,,,,,,,,,cyan,flipped triangle
0.0,5.0,1.0,1.0,6.0,6.0,681.3304920001428,1.0,0.0,part_2,go,350.0,250.0,1.0,,,,,,,,,cyan,flipped triangle
0.0,7.0,3.0,1.0,5.0,5.0,529.3906990000323,1.0,0.0,part_2,stop,350.0,250.0,3.0,,,,,,,,,magenta,triangle
0.0,6.0,2.0,1.0,6.0,0.0,0.0,1.0,0.0,part_2,stop,300.0,250.0,4.0,,,,,,,,,gray,cross
0.0,6.0,2.0,1.0,6.0,0.0,0.0,1.0,0.0,part_2,stop,300.0,300.0,4.0,,,,,,,,,gray,cross
0.0,4.0,4.0,0.0,5.0,5.0,669.6864260002258,1.0,0.0,part_2,go,300.0,350.0,1.0,,,,,,,,,white,hexagon
0.0,1.0,1.0,0.0,6.0,6.0,782.6708409997991,1.0,0.0,part_2,go,300.0,350.0,1.0,,,,,,,,,orange,square
0.0,6.0,2.0,1.0,6.0,0.0,0.0,1.0,0.0,part_2,stop,300.0,350.0,4.0,,,,,,,,,gray,cross
0.0,7.0,3.0,1.0,5.0,0.0,0.0,1.0,0.0,part_2,stop,300.0,400.0,4.0,,,,,,,,,magenta,triangle
0.0,4.0,4.0,0.0,6.0,6.0,602.9115549999915,1.0,0.0,part_2,go,350.0,400.0,1.0,,,,,,,,,white,hexagon
0.0,7.0,3.0,1.0,6.0,0.0,0.0,1.0,0.0,part_2,stop,350.0,400.0,4.0,,,,,,,,,magenta,triangle
0.0,4.0,4.0,0.0,6.0,6.0,767.1186520001356,1.0,0.0,part_2,go,350.0,450.0,1.0,,,,,,,,,white,hexagon
0.0,8.0,4.0,1.0,6.0,0.0,0.0,1.0,0.0,part_2,stop,350.0,450.0,4.0,,,,,,,,,green,I
0.0,1.0,1.0,0.0,5.0,5.0,679.330745000243,1.0,0.0,part_2,go,350.0,500.0,1.0,,,,,,,,,orange,square
0.0,4.0,4.0,0.0,6.0,6.0,747.5230200002443,1.0,0.0,part_2,go,350.0,500.0,1.0,,,,,,,,,white,hexagon
0.0,5.0,1.0,1.0,6.0,0.0,0.0,1.0,0.0,part_2,stop,350.0,500.0,4.0,,,,,,,,,cyan,flipped triangle
0.0,5.0,1.0,1.0,6.0,6.0,598.8045290000628,1.0,0.0,part_2,stop,350.0,550.0,3.0,,,,,,,,,cyan,flipped triangle
0.0,5.0,1.0,1.0,5.0,0.0,0.0,1.0,0.0,part_2,stop,350.0,500.0,4.0,,,,,,,,,cyan,flipped triangle
0.0,7.0,3.0,1.0,6.0,6.0,546.1678469996514,1.0,0.0,part_2,go,400.0,500.0,1.0,,,,,,,,,magenta,triangle
0.0,3.0,3.0,0.0,6.0,6.0,774.3957980001142,1.0,0.0,part_2,go,400.0,500.0,1.0,,,,,,,,,blue,diamond
0.0,6.0,2.0,1.0,5.0,0.0,0.0,1.0,0.0,part_2,stop,400.0,500.0,4.0,,,,,,,,,gray,cross
0.0,3.0,3.0,0.0,5.0,5.0,717.3553580000771,1.0,0.0,part_2,go,450.0,500.0,1.0,,,,,,,,,blue,diamond
0.0,4.0,4.0,0.0,5.0,5.0,584.677604999797,1.0,0.0,part_2,go,450.0,500.0,1.0,,,,,,,,,white,hexagon
0.0,6.0,2.0,1.0,6.0,0.0,0.0,1.0,0.0,part_2,stop,450.0,500.0,4.0,,,,,,,,,gray,cross
0.0,2.0,2.0,0.0,6.0,6.0,846.734066999943,1.0,0.0,part_2,go,450.0,550.0,1.0,,,,,,,,,yellow,circle
0.0,6.0,2.0,1.0,6.0,0.0,0.0,1.0,0.0,part_2,stop,450.0,550.0,4.0,,,,,,,,,gray,cross
0.0,2.0,2.0,0.0,5.0,5.0,800.7126590000553,1.0,0.0,part_2,go,450.0,600.0,1.0,,,,,,,,,yellow,circle
0.0,4.0,4.0,0.0,6.0,6.0,744.4538390000162,1.0,0.0,part_2,go,450.0,600.0,1.0,,,,,,,,,white,hexagon
0.0,3.0,3.0,0.0,5.0,5.0,557.8902790002758,1.0,0.0,part_2,go,450.0,600.0,1.0,,,,,,,,,blue,diamond
0.0,2.0,2.0,0.0,5.0,5.0,499.9250709997795,1.0,0.0,part_2,go,450.0,600.0,1.0,,,,,,,,,yellow,circle
0.0,6.0,2.0,1.0,6.0,6.0,842.0293300000594,1.0,0.0,part_2,go,450.0,600.0,1.0,,,,,,,,,gray,cross
0.0,3.0,3.0,0.0,5.0,5.0,811.199642000247,2.0,0.0,part_2,go,450.0,600.0,1.0,,,,,,,,,blue,diamond
0.0,5.0,1.0,1.0,5.0,5.0,360.40733800018637,2.0,0.0,part_2,stop,450.0,600.0,3.0,,,,,,,,,cyan,flipped triangle
0.0,6.0,2.0,1.0,5.0,5.0,368.6682439997639,2.0,0.0,part_2,go,400.0,600.0,1.0,,,,,,,,,gray,cross
0.0,3.0,3.0,0.0,6.0,6.0,359.8328389998642,2.0,0.0,part_2,go,400.0,600.0,1.0,,,,,,,,,blue,diamond
0.0,3.0,3.0,0.0,5.0,5.0,416.7593840002155,2.0,0.0,part_2,go,400.0,600.0,1.0,,,,,,,,,blue,diamond
0.0,7.0,3.0,1.0,6.0,6.0,435.2640900001461,2.0,0.0,part_2,go,400.0,600.0,1.0,,,,,,,,,magenta,triangle
0.0,5.0,1.0,1.0,5.0,5.0,350.624212999719,2.0,0.0,part_2,go,400.0,600.0,1.0,,,,,,,,,cyan,flipped triangle
0.0,1.0,1.0,0.0,6.0,6.0,369.9741649998032,2.0,0.0,part_2,go,400.0,600.0,1.0,,,,,,,,,orange,square
0.0,7.0,3.0,1.0,5.0,5.0,341.0902380001062,2.0,0.0,part_2,go,400.0,600.0,1.0,,,,,,,,,magenta,triangle
0.0,1.0,1.0,0.0,6.0,6.0,406.5787569998065,2.0,0.0,part_2,go,400.0,600.0,1.0,,,,,,,,,orange,square
0.0,5.0,1.0,1.0,5.0,5.0,341.9120819999079,2.0,0.0,part_2,stop,400.0,600.0,3.0,,,,,,,,,cyan,flipped triangle
0.0,2.0,2.0,0.0,5.0,5.0,483.5249709999516,2.0,0.0,part_2,go,350.0,600.0,1.0,,,,,,,,,yellow,circle
0.0,5.0,1.0,1.0,6.0,6.0,330.5123400000411,2.0,0.0,part_2,stop,350.0,600.0,3.0,,,,,,,,,cyan,flipped triangle
0.0,3.0,3.0,0.0,5.0,5.0,688.3644690001347,2.0,0.0,part_2,go,350.0,550.0,1.0,,,,,,,,,blue,diamond
0.0,4.0,4.0,0.0,6.0,6.0,359.4331259996579,2.0,0.0,part_2,go,350.0,550.0,1.0,,,,,,,,,white,hexagon
0.0,4.0,4.0,0.0,5.0,5.0,491.4502960000391,2.0,0.0,part_2,go,350.0,550.0,1.0,,,,,,,,,white,hexagon
0.0,8.0,4.0,1.0,6.0,6.0,387.2675279999384,2.0,0.0,part_2,stop,350.0,550.0,3.0,,,,,,,,,green,I
0.0,7.0,3.0,1.0,5.0,5.0,487.3509849999209,2.0,0.0,part_2,stop,350.0,500.0,3.0,,,,,,,,,magenta,triangle
0.0,2.0,2.0,0.0,5.0,5.0,519.8297750002894,2.0,0.0,part_2,go,300.0,500.0,1.0,,,,,,,,,yellow,circle
0.0,8.0,4.0,1.0,5.0,5.0,500.30416200024774,2.0,0.0,part_2,go,300.0,500.0,1.0,,,,,,,,,green,I
0.0,8.0,4.0,1.0,5.0,5.0,368.275401000119,2.0,0.0,part_2,go,300.0,500.0,1.0,,,,,,,,,green,I
0.0,3.0,3.0,0.0,6.0,6.0,424.9107970003933,2.0,0.0,part_2,go,300.0,500.0,1.0,,,,,,,,,blue,diamond
0.0,6.0,2.0,1.0,5.0,5.0,345.8070780002344,2.0,0.0,part_2,stop,300.0,500.0,3.0,,,,,,,,,gray,cross
0.0,8.0,4.0,1.0,6.0,6.0,445.1895790002709,2.0,0.0,part_2,stop,250.0,500.0,3.0,,,,,,,,,green,I
0.0,3.0,3.0,0.0,6.0,6.0,453.9656310003011,2.0,0.0,part_2,go,250.0,450.0,1.0,,,,,,,,,blue,diamond
0.0,3.0,3.0,0.0,5.0,5.0,567.5010410000141,2.0,0.0,part_2,go,250.0,450.0,1.0,,,,,,,,,blue,diamond
0.0,5.0,1.0,1.0,6.0,6.0,425.4175000000941,2.0,0.0,part_2,stop,250.0,450.0,3.0,,,,,,,,,cyan,flipped triangle
0.0,6.0,2.0,1.0,6.0,6.0,485.5942069998491,2.0,0.0,part_2,stop,250.0,400.0,3.0,,,,,,,,,gray,cross
0.0,7.0,3.0,1.0,5.0,5.0,712.0082149999689,2.0,0.0,part_2,go,250.0,350.0,1.0,,,,,,,,,magenta,triangle
0.0,6.0,2.0,1.0,5.0,5.0,549.174179000147,2.0,0.0,part_2,go,250.0,350.0,1.0,,,,,,,,,gray,cross
0.0,1.0,1.0,0.0,5.0,5.0,462.5967480001236,2.0,0.0,part_2,go,250.0,350.0,1.0,,,,,,,,,orange,square
0.0,3.0,3.0,0.0,6.0,6.0,425.6148210001811,2.0,0.0,part_2,go,250.0,350.0,1.0,,,,,,,,,blue,diamond
0.0,4.0,4.0,0.0,5.0,5.0,349.6078680000209,2.0,0.0,part_2,go,250.0,350.0,1.0,,,,,,,,,white,hexagon
0.0,8.0,4.0,1.0,6.0,6.0,401.6962860000603,2.0,0.0,part_2,stop,250.0,350.0,3.0,,,,,,,,,green,I
0.0,1.0,1.0,0.0,6.0,6.0,530.0534429998152,2.0,0.0,part_2,go,250.0,300.0,1.0,,,,,,,,,orange,square
0.0,3.0,3.0,0.0,6.0,6.0,641.7027849997794,2.0,0.0,part_2,go,250.0,300.0,1.0,,,,,,,,,blue,diamond
0.0,8.0,4.0,1.0,5.0,5.0,564.6134160001566,3.0,0.0,part_2,stop,250.0,300.0,3.0,,,,,,,,,green,I
0.0,6.0,2.0,1.0,6.0,0.0,0.0,3.0,0.0,part_2,stop,200.0,300.0,4.0,,,,,,,,,gray,cross
0.0,2.0,2.0,0.0,5.0,5.0,576.7584300001545,3.0,0.0,part_2,go,200.0,350.0,1.0,,,,,,,,,yellow,circle
0.0,3.0,3.0,0.0,5.0,5.0,557.147877999796,3.0,0.0,part_2,go,200.0,350.0,1.0,,,,,,,,,blue,diamond
0.0,8.0,4.0,1.0,6.0,6.0,729.3458679996547,3.0,0.0,part_2,go,200.0,350.0,1.0,,,,,,,,,green,I
0.0,1.0,1.0,0.0,5.0,5.0,491.3075539998317,3.0,0.0,part_2,go,200.0,350.0,1.0,,,,,,,,,orange,square
0.0,3.0,3.0,0.0,6.0,6.0,490.8811619998232,3.0,0.0,part_2,go,200.0,350.0,1.0,,,,,,,,,blue,diamond
0.0,8.0,4.0,1.0,6.0,0.0,0.0,3.0,0.0,part_2,stop,200.0,350.0,4.0,,,,,,,,,green,I
0.0,8.0,4.0,1.0,6.0,6.0,500.62151599968274,3.0,0.0,part_2,stop,200.0,400.0,3.0,,,,,,,,,green,I
0.0,6.0,2.0,1.0,6.0,0.0,0.0,3.0,0.0,part_2,stop,200.0,350.0,4.0,,,,,,,,,gray,cross
0.0,2.0,2.0,0.0,5.0,5.0,679.1397729998607,3.0,0.0,part_2,go,200.0,400.0,1.0,,,,,,,,,yellow,circle
0.0,5.0,1.0,1.0,5.0,0.0,0.0,3.0,0.0,part_2,stop,200.0,400.0,4.0,,,,,,,,,cyan,flipped triangle
0.0,7.0,3.0,1.0,5.0,5.0,546.0399479998159,3.0,0.0,part_2,go,250.0,400.0,1.0,,,,,,,,,magenta,triangle
0.0,7.0,3.0,1.0,5.0,0.0,0.0,3.0,0.0,part_2,stop,250.0,400.0,4.0,,,,,,,,,magenta,triangle
0.0,7.0,3.0,1.0,6.0,6.0,553.8045849998525,3.0,0.0,part_2,stop,300.0,400.0,3.0,,,,,,,,,magenta,triangle
0.0,1.0,1.0,0.0,6.0,6.0,745.5578909998621,3.0,0.0,part_2,go,300.0,350.0,1.0,,,,,,,,,orange,square
0.0,2.0,2.0,0.0,6.0,6.0,462.6940530001775,3.0,0.0,part_2,go,300.0,350.0,1.0,,,,,,,,,yellow,circle
0.0,4.0,4.0,0.0,6.0,6.0,558.0333849998169,3.0,0.0,part_2,go,300.0,350.0,1.0,,,,,,,,,white,hexagon
0.0,6.0,2.0,1.0,5.0,5.0,387.1011179999186,3.0,0.0,part_2,go,300.0,350.0,1.0,,,,,,,,,gray,cross
0.0,2.0,2.0,0.0,5.0,5.0,444.7238160000779,3.0,0.0,part_2,go,300.0,350.0,1.0,,,,,,,,,yellow,circle
0.0,8.0,4.0,1.0,6.0,6.0,450.0405049998335,3.0,0.0,part_2,stop,300.0,350.0,3.0,,,,,,,,,green,I
0.0,3.0,3.0,0.0,5.0,5.0,350.2182699999139,3.0,0.0,part_2,go,300.0,300.0,1.0,,,,,,,,,blue,diamond
0.0,1.0,1.0,0.0,5.0,5.0,519.3094810001639,3.0,0.0,part_2,go,300.0,300.0,1.0,,,,,,,,,orange,square
0.0,6.0,2.0,1.0,5.0,5.0,595.393881000291,3.0,0.0,part_2,go,300.0,300.0,1.0,,,,,,,,,gray,cross
0.0,7.0,3.0,1.0,6.0,0.0,0.0,3.0,0.0,part_2,stop,300.0,300.0,4.0,,,,,,,,,magenta,triangle
0.0,2.0,2.0,0.0,5.0,5.0,623.4864510001898,3.0,0.0,part_2,go,300.0,350.0,1.0,,,,,,,,,yellow,circle
0.0,7.0,3.0,1.0,6.0,6.0,453.5437199997432,3.0,0.0,part_2,go,300.0,350.0,1.0,,,,,,,,,magenta,triangle
0.0,4.0,4.0,0.0,6.0,6.0,632.9086260002441,3.0,0.0,part_2,go,300.0,350.0,1.0,,,,,,,,,white,hexagon
0.0,3.0,3.0,0.0,5.0,5.0,416.3735780002753,3.0,0.0,part_2,go,300.0,350.0,1.0,,,,,,,,,blue,diamond
0.0,4.0,4.0,0.0,6.0,6.0,568.4578689997579,3.0,0.0,part_2,go,300.0,350.0,1.0,,,,,,,,,white,hexagon
0.0,2.0,2.0,0.0,5.0,5.0,340.0402040001609,3.0,0.0,part_2,go,300.0,350.0,1.0,,,,,,,,,yellow,circle
0.0,2.0,2.0,0.0,6.0,6.0,406.361588999971,3.0,0.0,part_2,go,300.0,350.0,1.0,,,,,,,,,yellow,circle
0.0,8.0,4.0,1.0,6.0,6.0,415.0755599998774,3.0,0.0,part_2,go,300.0,350.0,1.0,,,,,,,,,green,I
0.0,5.0,1.0,1.0,6.0,0.0,0.0,3.0,0.0,part_2,stop,300.0,350.0,4.0,,,,,,,,,cyan,flipped triangle
0.0,2.0,2.0,0.0,6.0,6.0,622.5562380000156,3.0,0.0,part_2,go,300.0,400.0,1.0,,,,,,,,,yellow,circle
0.0,7.0,3.0,1.0,5.0,0.0,0.0,3.0,0.0,part_2,stop,300.0,400.0,4.0,,,,,,,,,magenta,triangle
0.0,4.0,4.0,0.0,6.0,6.0,1188.9717059998477,4.0,0.0,part_2,go,350.0,400.0,1.0,,,,,,,,,white,hexagon
0.0,7.0,3.0,1.0,6.0,6.0,555.3503160003856,4.0,0.0,part_2,stop,350.0,400.0,3.0,,,,,,,,,magenta,triangle
0.0,5.0,1.0,1.0,6.0,0.0,0.0,4.0,0.0,part_2,stop,350.0,350.0,4.0,,,,,,,,,cyan,flipped triangle
0.0,5.0,1.0,1.0,5.0,1.0,716.7475969999941,4.0,0.0,part_2,go,350.0,400.0,2.0,,,,,,,,,cyan,flipped triangle
0.0,7.0,3.0,1.0,6.0,0.0,0.0,4.0,0.0,part_2,stop,350.0,400.0,4.0,,,,,,,,,magenta,triangle
0.0,6.0,2.0,1.0,6.0,0.0,0.0,4.0,0.0,part_2,stop,350.0,450.0,4.0,,,,,,,,,gray,cross
0.0,4.0,4.0,0.0,5.0,5.0,548.3437589996356,4.0,0.0,part_2,go,350.0,500.0,1.0,,,,,,,,,white,hexagon
0.0,5.0,1.0,1.0,5.0,0.0,0.0,4.0,0.0,part_2,stop,350.0,500.0,4.0,,,,,,,,,cyan,flipped triangle
0.0,3.0,3.0,0.0,6.0,6.0,784.0109629996732,4.0,0.0,part_2,go,400.0,500.0,1.0,,,,,,,,,blue,diamond
0.0,8.0,4.0,1.0,5.0,0.0,0.0,4.0,0.0,part_2,stop,400.0,500.0,4.0,,,,,,,,,green,I
0.0,1.0,1.0,0.0,6.0,6.0,772.7860889999647,4.0,0.0,part_2,go,450.0,500.0,1.0,,,,,,,,,orange,square
0.0,3.0,3.0,0.0,5.0,5.0,974.8921020000124,4.0,0.0,part_2,go,450.0,500.0,1.0,,,,,,,,,blue,diamond
0.0,7.0,3.0,1.0,6.0,0.0,0.0,4.0,0.0,part_2,stop,450.0,500.0,4.0,,,,,,,,,magenta,triangle
0.0,2.0,2.0,0.0,6.0,6.0,535.9241420001126,4.0,0.0,part_2,go,450.0,550.0,1.0,,,,,,,,,yellow,circle
0.0,1.0,1.0,0.0,6.0,6.0,387.9839940000238,4.0,0.0,part_2,go,450.0,550.0,1.0,,,,,,,,,orange,square
0.0,1.0,1.0,0.0,5.0,5.0,387.5846589999128,4.0,0.0,part_2,go,450.0,550.0,1.0,,,,,,,,,orange,square
0.0,8.0,4.0,1.0,6.0,6.0,433.6467379998794,4.0,0.0,part_2,stop,450.0,550.0,3.0,,,,,,,,,green,I
0.0,1.0,1.0,0.0,6.0,6.0,549.1638460002832,4.0,0.0,part_2,go,450.0,500.0,1.0,,,,,,,,,orange,square
0.0,2.0,2.0,0.0,6.0,6.0,398.3234600000287,4.0,0.0,part_2,go,450.0,500.0,1.0,,,,,,,,,yellow,circle
0.0,8.0,4.0,1.0,5.0,5.0,443.723391000276,4.0,0.0,part_2,stop,450.0,500.0,3.0,,,,,,,,,green,I
0.0,2.0,2.0,0.0,6.0,6.0,499.9816399999872,4.0,0.0,part_2,go,400.0,500.0,1.0,,,,,,,,,yellow,circle
0.0,8.0,4.0,1.0,5.0,5.0,540.1190880002105,4.0,0.0,part_2,go,400.0,500.0,1.0,,,,,,,,,green,I
0.0,3.0,3.0,0.0,6.0,6.0,718.6825939998016,4.0,0.0,part_2,go,400.0,500.0,1.0,,,,,,,,,blue,diamond
0.0,6.0,2.0,1.0,6.0,6.0,650.6425830002627,4.0,0.0,part_2,stop,400.0,500.0,3.0,,,,,,,,,gray,cross
0.0,2.0,2.0,0.0,6.0,6.0,443.4627050000017,4.0,0.0,part_2,go,400.0,450.0,1.0,,,,,,,,,yellow,circle
0.0,1.0,1.0,0.0,5.0,5.0,453.1214559997352,4.0,0.0,part_2,go,400.0,450.0,1.0,,,,,,,,,orange,square
0.0,8.0,4.0,1.0,5.0,5.0,440.4468580000866,4.0,0.0,part_2,stop,400.0,450.0,3.0,,,,,,,,,green,I
0.0,2.0,2.0,0.0,6.0,6.0,528.5869090002961,4.0,0.0,part_2,go,350.0,450.0,1.0,,,,,,,,,yellow,circle
0.0,3.0,3.0,0.0,6.0,6.0,764.792947999922,4.0,0.0,part_2,go,350.0,450.0,1.0,,,,,,,,,blue,diamond
0.0,6.0,2.0,1.0,6.0,6.0,358.596246000161,4.0,0.0,part_2,stop,350.0,450.0,3.0,,,,,,,,,gray,cross
0.0,7.0,3.0,1.0,5.0,5.0,321.8570330000148,4.0,0.0,part_2,go,350.0,400.0,1.0,,,,,,,,,magenta,triangle
0.0,4.0,4.0,0.0,6.0,6.0,435.44606599971297,4.0,0.0,part_2,go,350.0,400.0,1.0,,,,,,,,,white,hexagon
0.0,5.0,1.0,1.0,5.0,5.0,406.9181859999844,4.0,0.0,part_2,stop,350.0,400.0,3.0,,,,,,,,,cyan,flipped triangle
0.0,1.0,1.0,0.0,5.0,5.0,660.8670840000741,4.0,0.0,part_2,go,300.0,400.0,1.0,,,,,,,,,orange,square
0.0,6.0,2.0,1.0,5.0,5.0,537.1553390000372,4.0,0.0,part_2,go,300.0,400.0,1.0,,,,,,,,,gray,cross
0.0,5.0,1.0,1.0,6.0,0.0,0.0,4.0,0.0,part_2,stop,300.0,400.0,4.0,,,,,,,,,cyan,flipped triangle
0.0,6.0,2.0,1.0,6.0,6.0,506.65730699984124,5.0,0.0,part_2,stop,300.0,450.0,3.0,,,,,,,,,gray,cross
0.0,4.0,4.0,0.0,5.0,5.0,557.0391950000158,5.0,0.0,part_2,go,300.0,400.0,1.0,,,,,,,,,white,hexagon
0.0,6.0,2.0,1.0,6.0,6.0,451.1769400000958,5.0,0.0,part_2,stop,300.0,400.0,3.0,,,,,,,,,gray,cross
0.0,7.0,3.0,1.0,6.0,0.0,0.0,5.0,0.0,part_2,stop,300.0,350.0,4.0,,,,,,,,,magenta,triangle
0.0,6.0,2.0,1.0,6.0,0.0,0.0,5.0,0.0,part_2,stop,300.0,400.0,4.0,,,,,,,,,gray,cross
0.0,2.0,2.0,0.0,6.0,6.0,425.0426500002504,5.0,0.0,part_2,go,300.0,450.0,1.0,,,,,,,,,yellow,circle
0.0,1.0,1.0,0.0,5.0,5.0,528.4153470001911,5.0,0.0,part_2,go,300.0,450.0,1.0,,,,,,,,,orange,square
0.0,5.0,1.0,1.0,6.0,6.0,434.7083680004289,5.0,0.0,part_2,stop,300.0,450.0,3.0,,,,,,,,,cyan,flipped triangle
0.0,8.0,4.0,1.0,5.0,5.0,453.7842209997507,5.0,0.0,part_2,go,300.0,400.0,1.0,,,,,,,,,green,I
0.0,8.0,4.0,1.0,6.0,0.0,0.0,5.0,0.0,part_2,stop,300.0,400.0,4.0,,,,,,,,,green,I
0.0,3.0,3.0,0.0,5.0,5.0,406.8625650002104,5.0,0.0,part_2,go,300.0,450.0,1.0,,,,,,,,,blue,diamond
0.0,7.0,3.0,1.0,6.0,0.0,0.0,5.0,0.0,part_2,stop,300.0,450.0,4.0,,,,,,,,,magenta,triangle
0.0,3.0,3.0,0.0,5.0,5.0,604.9328399999467,5.0,0.0,part_2,go,300.0,500.0,1.0,,,,,,,,,blue,diamond
0.0,8.0,4.0,1.0,5.0,5.0,397.8057680001257,5.0,0.0,part_2,go,300.0,500.0,1.0,,,,,,,,,green,I
0.0,1.0,1.0,0.0,5.0,5.0,379.3212119999225,5.0,0.0,part_2,go,300.0,500.0,1.0,,,,,,,,,orange,square
0.0,6.0,2.0,1.0,5.0,0.0,0.0,5.0,0.0,part_2,stop,300.0,500.0,4.0,,,,,,,,,gray,cross
0.0,6.0,2.0,1.0,5.0,0.0,0.0,5.0,0.0,part_2,stop,350.0,500.0,4.0,,,,,,,,,gray,cross
0.0,3.0,3.0,0.0,5.0,5.0,604.3785709998701,5.0,0.0,part_2,go,400.0,500.0,1.0,,,,,,,,,blue,diamond
0.0,4.0,4.0,0.0,6.0,6.0,754.3740109999817,5.0,0.0,part_2,go,400.0,500.0,1.0,,,,,,,,,white,hexagon
0.0,5.0,1.0,1.0,5.0,5.0,699.9558240004262,5.0,0.0,part_2,go,400.0,500.0,1.0,,,,,,,,,cyan,flipped triangle
0.0,4.0,4.0,0.0,5.0,5.0,717.4604960000579,5.0,0.0,part_2,go,400.0,500.0,1.0,,,,,,,,,white,hexagon
0.0,1.0,1.0,0.0,6.0,6.0,492.4746270003197,5.0,0.0,part_2,go,400.0,500.0,1.0,,,,,,,,,orange,square
0.0,7.0,3.0,1.0,5.0,0.0,0.0,5.0,0.0,part_2,stop,400.0,500.0,4.0,,,,,,,,,magenta,triangle
0.0,6.0,2.0,1.0,5.0,0.0,0.0,5.0,0.0,part_2,stop,450.0,500.0,4.0,,,,,,,,,gray,cross
0.0,2.0,2.0,0.0,6.0,6.0,717.5995069997043,5.0,0.0,part_2,go,500.0,500.0,1.0,,,,,,,,,yellow,circle
0.0,1.0,1.0,0.0,6.0,6.0,680.8941059998688,5.0,0.0,part_2,go,500.0,500.0,1.0,,,,,,,,,orange,square
0.0,2.0,2.0,0.0,5.0,5.0,640.8467189999101,5.0,0.0,part_2,go,500.0,500.0,1.0,,,,,,,,,yellow,circle
0.0,1.0,1.0,0.0,5.0,5.0,398.6686769999323,5.0,0.0,part_2,go,500.0,500.0,1.0,,,,,,,,,orange,square
0.0,3.0,3.0,0.0,5.0,5.0,510.16227399986747,5.0,0.0,part_2,go,500.0,500.0,1.0,,,,,,,,,blue,diamond
0.0,1.0,1.0,0.0,5.0,5.0,548.5189389996776,5.0,0.0,part_2,go,500.0,500.0,1.0,,,,,,,,,orange,square
0.0,3.0,3.0,0.0,6.0,6.0,652.7135649998854,5.0,0.0,part_2,go,500.0,500.0,1.0,,,,,,,,,blue,diamond
0.0,3.0,3.0,0.0,6.0,6.0,557.3984550001114,5.0,0.0,part_2,go,500.0,500.0,1.0,,,,,,,,,blue,diamond
0.0,1.0,1.0,0.0,5.0,5.0,472.8691650002474,5.0,0.0,part_2,go,500.0,500.0,1.0,,,,,,,,,orange,square
0.0,7.0,3.0,1.0,6.0,6.0,341.5602109998872,5.0,0.0,part_2,stop,500.0,500.0,3.0,,,,,,,,,magenta,triangle
0.0,1.0,1.0,0.0,5.0,5.0,519.6110920001047,5.0,0.0,part_2,go,500.0,450.0,1.0,,,,,,,,,orange,square
0.0,7.0,3.0,1.0,6.0,0.0,0.0,5.0,0.0,part_2,stop,500.0,450.0,4.0,,,,,,,,,magenta,triangle
0.0,7.0,3.0,1.0,5.0,0.0,0.0,6.0,0.0,part_2,stop,500.0,500.0,4.0,,,,,,,,,magenta,triangle
0.0,8.0,4.0,1.0,5.0,5.0,369.7910050000246,6.0,0.0,part_2,stop,550.0,500.0,3.0,,,,,,,,,green,I
0.0,1.0,1.0,0.0,6.0,6.0,670.3380710000602,6.0,0.0,part_2,go,500.0,500.0,1.0,,,,,,,,,orange,square
0.0,5.0,1.0,1.0,5.0,5.0,644.50200400006,6.0,0.0,part_2,stop,500.0,500.0,3.0,,,,,,,,,cyan,flipped triangle
0.0,3.0,3.0,0.0,6.0,6.0,406.1734780002553,6.0,0.0,part_2,go,450.0,500.0,1.0,,,,,,,,,blue,diamond
0.0,8.0,4.0,1.0,6.0,6.0,642.3874990000513,6.0,0.0,part_2,stop,450.0,500.0,3.0,,,,,,,,,green,I
0.0,2.0,2.0,0.0,6.0,6.0,803.8315839999086,6.0,0.0,part_2,go,450.0,450.0,1.0,,,,,,,,,yellow,circle
0.0,4.0,4.0,0.0,6.0,6.0,717.8861689999394,6.0,0.0,part_2,go,450.0,450.0,1.0,,,,,,,,,white,hexagon
0.0,3.0,3.0,0.0,5.0,5.0,623.8568940002551,6.0,0.0,part_2,go,450.0,450.0,1.0,,,,,,,,,blue,diamond
0.0,4.0,4.0,0.0,5.0,5.0,566.5327639999305,6.0,0.0,part_2,go,450.0,450.0,1.0,,,,,,,,,white,hexagon
0.0,8.0,4.0,1.0,5.0,5.0,542.3721560000558,6.0,0.0,part_2,stop,450.0,450.0,3.0,,,,,,,,,green,I
0.0,6.0,2.0,1.0,5.0,0.0,0.0,6.0,0.0,part_2,stop,400.0,450.0,4.0,,,,,,,,,gray,cross
0.0,8.0,4.0,1.0,6.0,6.0,514.4457239998701,6.0,0.0,part_2,stop,450.0,450.0,3.0,,,,,,,,,green,I
0.0,6.0,2.0,1.0,5.0,5.0,643.0570540001099,6.0,0.0,part_2,go,450.0,400.0,1.0,,,,,,,,,gray,cross
0.0,7.0,3.0,1.0,5.0,0.0,0.0,6.0,0.0,part_2,stop,450.0,400.0,4.0,,,,,,,,,magenta,triangle
0.0,5.0,1.0,1.0,5.0,5.0,558.409028999904,6.0,0.0,part_2,stop,500.0,400.0,3.0,,,,,,,,,cyan,flipped triangle
0.0,2.0,2.0,0.0,5.0,5.0,624.2238670001825,6.0,0.0,part_2,go,450.0,400.0,1.0,,,,,,,,,yellow,circle
0.0,3.0,3.0,0.0,6.0,6.0,424.925802999951,6.0,0.0,part_2,go,450.0,400.0,1.0,,,,,,,,,blue,diamond
0.0,6.0,2.0,1.0,5.0,5.0,444.4656309997299,6.0,0.0,part_2,go,450.0,400.0,1.0,,,,,,,,,gray,cross
0.0,6.0,2.0,1.0,5.0,5.0,396.3793240000086,6.0,0.0,part_2,stop,450.0,400.0,3.0,,,,,,,,,gray,cross
0.0,7.0,3.0,1.0,5.0,0.0,0.0,6.0,0.0,part_2,stop,400.0,400.0,4.0,,,,,,,,,magenta,triangle
0.0,5.0,1.0,1.0,6.0,0.0,0.0,6.0,0.0,part_2,stop,450.0,400.0,4.0,,,,,,,,,cyan,flipped triangle
0.0,1.0,1.0,0.0,6.0,6.0,396.6224989999318,6.0,0.0,part_2,go,450.0,450.0,1.0,,,,,,,,,orange,square
0.0,7.0,3.0,1.0,5.0,0.0,0.0,6.0,0.0,part_2,stop,450.0,450.0,4.0,,,,,,,,,magenta,triangle
0.0,8.0,4.0,1.0,6.0,6.0,812.0234439998057,6.0,0.0,part_2,go,500.0,450.0,1.0,,,,,,,,,green,I
0.0,5.0,1.0,1.0,5.0,5.0,617.2435160001442,6.0,0.0,part_2,go,500.0,450.0,1.0,,,,,,,,,cyan,flipped triangle
0.0,5.0,1.0,1.0,5.0,5.0,627.9166680001254,6.0,0.0,part_2,stop,500.0,450.0,3.0,,,,,,,,,cyan,flipped triangle
0.0,6.0,2.0,1.0,5.0,0.0,0.0,6.0,0.0,part_2,stop,450.0,450.0,4.0,,,,,,,,,gray,cross
0.0,8.0,4.0,1.0,6.0,0.0,0.0,6.0,0.0,part_2,stop,500.0,450.0,4.0,,,,,,,,,green,I
0.0,2.0,2.0,0.0,5.0,5.0,633.4924560001127,6.0,0.0,part_2,go,500.0,500.0,1.0,,,,,,,,,yellow,circle
0.0,5.0,1.0,1.0,5.0,0.0,0.0,6.0,0.0,part_2,stop,500.0,500.0,4.0,,,,,,,,,cyan,flipped triangle
0.0,7.0,3.0,1.0,5.0,5.0,368.8075239997488,6.0,0.0,part_2,stop,550.0,500.0,3.0,,,,,,,,,magenta,triangle
0.0,6.0,2.0,1.0,5.0,0.0,0.0,6.0,0.0,part_2,stop,500.0,500.0,4.0,,,,,,,,,gray,cross
0.0,4.0,4.0,0.0,5.0,5.0,557.1496249999655,6.0,0.0,part_2,go,550.0,500.0,1.0,,,,,,,,,white,hexagon
0.0,3.0,3.0,0.0,6.0,6.0,634.4453179999618,6.0,0.0,part_2,go,550.0,500.0,1.0,,,,,,,,,blue,diamond
0.0,7.0,3.0,1.0,5.0,0.0,0.0,6.0,0.0,part_2,stop,550.0,500.0,4.0,,,,,,,,,magenta,triangle
0.0,8.0,4.0,1.0,6.0,0.0,0.0,7.0,0.0,part_2,stop,600.0,500.0,4.0,,,,,,,,,green,I
0.0,5.0,1.0,1.0,6.0,0.0,0.0,7.0,0.0,part_2,stop,600.0,550.0,4.0,,,,,,,,,cyan,flipped triangle
0.0,4.0,4.0,0.0,6.0,6.0,690.5795819998275,7.0,0.0,part_2,go,600.0,600.0,1.0,,,,,,,,,white,hexagon
0.0,5.0,1.0,1.0,5.0,5.0,688.5176300002058,7.0,0.0,part_2,go,600.0,600.0,1.0,,,,,,,,,cyan,flipped triangle
0.0,6.0,2.0,1.0,6.0,6.0,683.6438139998791,7.0,0.0,part_2,stop,600.0,600.0,3.0,,,,,,,,,gray,cross
0.0,2.0,2.0,0.0,6.0,6.0,662.3129989998233,7.0,0.0,part_2,go,600.0,550.0,1.0,,,,,,,,,yellow,circle
0.0,4.0,4.0,0.0,5.0,5.0,548.746465000022,7.0,0.0,part_2,go,600.0,550.0,1.0,,,,,,,,,white,hexagon
0.0,4.0,4.0,0.0,5.0,5.0,419.0927849999752,7.0,0.0,part_2,go,600.0,550.0,1.0,,,,,,,,,white,hexagon
0.0,3.0,3.0,0.0,6.0,6.0,849.3704329998764,7.0,0.0,part_2,go,600.0,550.0,1.0,,,,,,,,,blue,diamond
0.0,5.0,1.0,1.0,6.0,6.0,472.2073320003801,7.0,0.0,part_2,stop,600.0,550.0,3.0,,,,,,,,,cyan,flipped triangle
0.0,2.0,2.0,0.0,5.0,5.0,321.7494800001077,7.0,0.0,part_2,go,600.0,500.0,1.0,,,,,,,,,yellow,circle
0.0,3.0,3.0,0.0,5.0,5.0,386.0251539999808,7.0,0.0,part_2,go,600.0,500.0,1.0,,,,,,,,,blue,diamond
0.0,2.0,2.0,0.0,6.0,6.0,330.6158269997468,7.0,0.0,part_2,go,600.0,500.0,1.0,,,,,,,,,yellow,circle
0.0,1.0,1.0,0.0,5.0,5.0,433.6031399998319,7.0,0.0,part_2,go,600.0,500.0,1.0,,,,,,,,,orange,square
0.0,2.0,2.0,0.0,5.0,5.0,321.3206000000355,7.0,0.0,part_2,go,600.0,500.0,1.0,,,,,,,,,yellow,circle
0.0,6.0,2.0,1.0,5.0,0.0,0.0,7.0,0.0,part_2,stop,600.0,500.0,4.0,,,,,,,,,gray,cross
0.0,8.0,4.0,1.0,6.0,6.0,627.1998070001246,7.0,0.0,part_2,stop,650.0,500.0,3.0,,,,,,,,,green,I
0.0,2.0,2.0,0.0,6.0,6.0,529.4071830003304,7.0,0.0,part_2,go,650.0,450.0,1.0,,,,,,,,,yellow,circle
0.0,2.0,2.0,0.0,5.0,5.0,498.4633710000707,7.0,0.0,part_2,go,650.0,450.0,1.0,,,,,,,,,yellow,circle
0.0,2.0,2.0,0.0,5.0,5.0,433.8810490003197,7.0,0.0,part_2,go,650.0,450.0,1.0,,,,,,,,,yellow,circle
0.0,1.0,1.0,0.0,6.0,6.0,527.8640250003264,7.0,0.0,part_2,go,650.0,450.0,1.0,,,,,,,,,orange,square
0.0,4.0,4.0,0.0,5.0,5.0,442.6785209998343,7.0,0.0,part_2,go,650.0,450.0,1.0,,,,,,,,,white,hexagon
0.0,5.0,1.0,1.0,5.0,5.0,368.7961430000541,7.0,0.0,part_2,stop,650.0,450.0,3.0,,,,,,,,,cyan,flipped triangle
0.0,1.0,1.0,0.0,6.0,6.0,368.8133679997918,7.0,0.0,part_2,go,600.0,450.0,1.0,,,,,,,,,orange,square
0.0,4.0,4.0,0.0,5.0,5.0,395.2800000001844,7.0,0.0,part_2,go,600.0,450.0,1.0,,,,,,,,,white,hexagon
0.0,5.0,1.0,1.0,6.0,6.0,689.0597799997522,7.0,0.0,part_2,go,600.0,450.0,1.0,,,,,,,,,cyan,flipped triangle
0.0,4.0,4.0,0.0,6.0,6.0,349.6718259998488,7.0,0.0,part_2,go,600.0,450.0,1.0,,,,,,,,,white,hexagon
0.0,1.0,1.0,0.0,6.0,6.0,444.6503469998788,7.0,0.0,part_2,go,600.0,450.0,1.0,,,,,,,,,orange,square
0.0,4.0,4.0,0.0,5.0,5.0,414.8021420000987,7.0,0.0,part_2,go,600.0,450.0,1.0,,,,,,,,,white,hexagon
0.0,8.0,4.0,1.0,6.0,6.0,311.3190799999756,7.0,0.0,part_2,go,600.0,450.0,1.0,,,,,,,,,green,I
0.0,3.0,3.0,0.0,6.0,6.0,350.1100079997741,7.0,0.0,part_2,go,600.0,450.0,1.0,,,,,,,,,blue,diamond
0.0,6.0,2.0,1.0,6.0,6.0,339.9803249999422,7.0,0.0,part_2,stop,600.0,450.0,3.0,,,,,,,,,gray,cross
0.0,5.0,1.0,1.0,6.0,6.0,633.7882309999259,7.0,0.0,part_2,go,600.0,400.0,1.0,,,,,,,,,cyan,flipped triangle
0.0,4.0,4.0,0.0,5.0,5.0,321.0281169999689,7.0,0.0,part_2,go,600.0,400.0,1.0,,,,,,,,,white,hexagon
0.0,2.0,2.0,0.0,6.0,6.0,340.5476120001367,7.0,0.0,part_2,go,600.0,400.0,1.0,,,,,,,,,yellow,circle
0.0,5.0,1.0,1.0,6.0,6.0,698.9311449997331,7.0,0.0,part_2,go,600.0,400.0,1.0,,,,,,,,,cyan,flipped triangle
0.0,4.0,4.0,0.0,5.0,5.0,604.526812000131,8.0,0.0,part_2,go,600.0,400.0,1.0,,,,,,,,,white,hexagon
0.0,5.0,1.0,1.0,5.0,5.0,546.4348949999476,8.0,0.0,part_2,stop,600.0,400.0,3.0,,,,,,,,,cyan,flipped triangle
0.0,4.0,4.0,0.0,6.0,6.0,454.1551880001861,8.0,0.0,part_2,go,550.0,400.0,1.0,,,,,,,,,white,hexagon
0.0,1.0,1.0,0.0,5.0,5.0,397.1666819998063,8.0,0.0,part_2,go,550.0,400.0,1.0,,,,,,,,,orange,square
0.0,4.0,4.0,0.0,5.0,5.0,443.9348719997724,8.0,0.0,part_2,go,550.0,400.0,1.0,,,,,,,,,white,hexagon
0.0,2.0,2.0,0.0,6.0,6.0,398.1458220000604,8.0,0.0,part_2,go,550.0,400.0,1.0,,,,,,,,,yellow,circle
0.0,1.0,1.0,0.0,6.0,6.0,415.6177589998151,8.0,0.0,part_2,go,550.0,400.0,1.0,,,,,,,,,orange,square
0.0,5.0,1.0,1.0,6.0,0.0,0.0,8.0,0.0,part_2,stop,550.0,400.0,4.0,,,,,,,,,cyan,flipped triangle
0.0,6.0,2.0,1.0,6.0,6.0,753.4267820001332,8.0,0.0,part_2,go,550.0,450.0,1.0,,,,,,,,,gray,cross
0.0,7.0,3.0,1.0,6.0,6.0,641.743488999964,8.0,0.0,part_2,go,550.0,450.0,1.0,,,,,,,,,magenta,triangle
0.0,4.0,4.0,0.0,6.0,6.0,367.7955969997128,8.0,0.0,part_2,go,550.0,450.0,1.0,,,,,,,,,white,hexagon
0.0,8.0,4.0,1.0,5.0,5.0,616.4841109998633,8.0,0.0,part_2,stop,550.0,450.0,3.0,,,,,,,,,green,I
0.0,7.0,3.0,1.0,5.0,5.0,911.6545560000304,8.0,0.0,part_2,go,500.0,450.0,1.0,,,,,,,,,magenta,triangle
0.0,4.0,4.0,0.0,6.0,6.0,585.0141420000909,8.0,0.0,part_2,go,500.0,450.0,1.0,,,,,,,,,white,hexagon
0.0,8.0,4.0,1.0,5.0,0.0,0.0,8.0,0.0,part_2,stop,500.0,450.0,4.0,,,,,,,,,green,I
0.0,3.0,3.0,0.0,5.0,5.0,590.1283420002983,8.0,0.0,part_2,go,550.0,450.0,1.0,,,,,,,,,blue,diamond
0.0,2.0,2.0,0.0,5.0,5.0,414.4905560001461,8.0,0.0,part_2,go,550.0,450.0,1.0,,,,,,,,,yellow,circle
0.0,8.0,4.0,1.0,5.0,5.0,434.8711349998666,8.0,0.0,part_2,stop,550.0,450.0,3.0,,,,,,,,,green,I
0.0,8.0,4.0,1.0,5.0,0.0,0.0,8.0,0.0,part_2,stop,500.0,450.0,4.0,,,,,,,,,green,I
0.0,4.0,4.0,0.0,6.0,6.0,510.35605900005976,8.0,0.0,part_2,go,550.0,450.0,1.0,,,,,,,,,white,hexagon
0.0,7.0,3.0,1.0,5.0,5.0,737.9762169998685,8.0,0.0,part_2,stop,550.0,450.0,3.0,,,,,,,,,magenta,triangle
0.0,2.0,2.0,0.0,5.0,5.0,568.1813099999999,8.0,0.0,part_2,go,500.0,450.0,1.0,,,,,,,,,yellow,circle
0.0,7.0,3.0,1.0,6.0,0.0,0.0,8.0,0.0,part_2,stop,500.0,450.0,4.0,,,,,,,,,magenta,triangle
0.0,3.0,3.0,0.0,6.0,6.0,519.6516000000884,8.0,0.0,part_2,go,500.0,500.0,1.0,,,,,,,,,blue,diamond
0.0,1.0,1.0,0.0,6.0,6.0,773.8348299999416,8.0,0.0,part_2,go,500.0,500.0,1.0,,,,,,,,,orange,square
0.0,5.0,1.0,1.0,6.0,0.0,0.0,8.0,0.0,part_2,stop,500.0,500.0,4.0,,,,,,,,,cyan,flipped triangle
0.0,1.0,1.0,0.0,5.0,5.0,605.6738899997072,8.0,0.0,part_2,go,500.0,550.0,1.0,,,,,,,,,orange,square
0.0,7.0,3.0,1.0,6.0,0.0,0.0,8.0,0.0,part_2,stop,500.0,550.0,4.0,,,,,,,,,magenta,triangle
0.0,8.0,4.0,1.0,5.0,0.0,0.0,8.0,0.0,part_2,stop,500.0,600.0,4.0,,,,,,,,,green,I
0.0,4.0,4.0,0.0,5.0,5.0,425.9539159997985,8.0,0.0,part_2,go,550.0,600.0,1.0,,,,,,,,,white,hexagon
0.0,1.0,1.0,0.0,6.0,6.0,762.9952060001415,8.0,0.0,part_2,go,550.0,600.0,1.0,,,,,,,,,orange,square
0.0,3.0,3.0,0.0,5.0,5.0,404.9685380000483,8.0,0.0,part_2,go,550.0,600.0,1.0,,,,,,,,,blue,diamond
0.0,7.0,3.0,1.0,6.0,0.0,0.0,8.0,0.0,part_2,stop,550.0,600.0,4.0,,,,,,,,,magenta,triangle
0.0,1.0,1.0,0.0,5.0,5.0,557.1026860002348,8.0,0.0,part_2,go,550.0,650.0,1.0,,,,,,,,,orange,square
0.0,8.0,4.0,1.0,5.0,0.0,0.0,8.0,0.0,part_2,stop,550.0,650.0,4.0,,,,,,,,,green,I
0.0,8.0,4.0,1.0,5.0,0.0,0.0,8.0,0.0,part_2,stop,600.0,650.0,4.0,,,,,,,,,green,I
0.0,1.0,1.0,0.0,7.0,6.0,1701.7956170002435,1.0,1.0,part_3,go,0.0,0.0,0.0,580.0,5.0,116.0,232.0,348.0,696.0,464.0,580.0,orange,square
0.0,5.0,1.0,1.0,7.0,4.0,1927.1188180000536,1.0,1.0,part_3,go,0.0,0.0,0.0,675.0,5.0,405.0,270.0,540.0,675.0,810.0,135.0,cyan,flipped triangle
0.0,3.0,3.0,0.0,7.0,3.0,1293.5827940000308,1.0,1.0,part_3,go,0.0,0.0,0.0,384.0,2.0,960.0,576.0,384.0,1152.0,768.0,192.0,blue,diamond
0.0,4.0,4.0,0.0,7.0,2.0,1483.1304859999364,1.0,1.0,part_3,go,0.0,0.0,0.0,346.0,2.0,519.0,346.0,173.0,692.0,1038.0,865.0,white,hexagon
0.0,5.0,1.0,1.0,7.0,5.0,1660.7688909998617,1.0,1.0,part_3,go,0.0,0.0,0.0,865.0,5.0,692.0,1038.0,519.0,346.0,865.0,173.0,cyan,flipped triangle
0.0,1.0,1.0,0.0,7.0,1.0,712.824539000394,1.0,1.0,part_3,go,0.0,0.0,0.0,692.0,4.0,692.0,865.0,519.0,173.0,346.0,1038.0,orange,square
0.0,2.0,2.0,0.0,7.0,6.0,645.7985760002884,1.0,1.0,part_3,go,0.0,0.0,0.0,768.0,4.0,384.0,576.0,1152.0,960.0,192.0,768.0,yellow,circle
0.0,6.0,2.0,1.0,7.0,5.0,936.3553120001598,1.0,1.0,part_3,go,0.0,0.0,0.0,924.0,6.0,616.0,154.0,770.0,308.0,924.0,462.0,gray,cross
0.0,3.0,3.0,0.0,7.0,2.0,1396.5705460000208,1.0,1.0,part_3,go,0.0,0.0,0.0,173.0,1.0,692.0,173.0,865.0,1038.0,519.0,346.0,blue,diamond
0.0,2.0,2.0,0.0,7.0,3.0,2208.91142399978,1.0,1.0,part_3,go,0.0,0.0,0.0,308.0,2.0,924.0,616.0,308.0,154.0,770.0,462.0,yellow,circle
0.0,4.0,4.0,0.0,7.0,4.0,2382.319483000174,1.0,1.0,part_3,go,0.0,0.0,0.0,346.0,2.0,865.0,173.0,519.0,346.0,1038.0,692.0,white,hexagon
0.0,4.0,4.0,0.0,7.0,5.0,1745.3047469998637,1.0,1.0,part_3,go,0.0,0.0,0.0,384.0,2.0,1152.0,768.0,960.0,192.0,384.0,576.0,white,hexagon
0.0,4.0,4.0,0.0,7.0,4.0,1717.0107550000466,1.0,1.0,part_3,go,0.0,0.0,0.0,154.0,1.0,616.0,924.0,308.0,154.0,462.0,770.0,white,hexagon
0.0,1.0,1.0,0.0,7.0,6.0,944.4502119999923,1.0,1.0,part_3,go,0.0,0.0,0.0,924.0,6.0,308.0,154.0,462.0,616.0,770.0,924.0,orange,square
0.0,7.0,3.0,1.0,7.0,1.0,1882.1012329999576,1.0,1.0,part_3,go,0.0,0.0,0.0,1152.0,6.0,1152.0,768.0,960.0,192.0,384.0,576.0,magenta,triangle
0.0,2.0,2.0,0.0,7.0,4.0,993.1381120004515,1.0,1.0,part_3,go,0.0,0.0,0.0,580.0,5.0,696.0,464.0,232.0,580.0,348.0,116.0,yellow,circle
0.0,3.0,3.0,0.0,7.0,5.0,1289.7516419998285,1.0,1.0,part_3,go,0.0,0.0,0.0,464.0,4.0,232.0,348.0,116.0,696.0,464.0,580.0,blue,diamond
0.0,7.0,3.0,1.0,7.0,3.0,1737.0136290001028,1.0,1.0,part_3,go,0.0,0.0,0.0,692.0,4.0,346.0,519.0,692.0,1038.0,173.0,865.0,magenta,triangle
0.0,2.0,2.0,0.0,7.0,3.0,1439.5689089997177,1.0,1.0,part_3,go,0.0,0.0,0.0,768.0,4.0,192.0,960.0,768.0,384.0,1152.0,576.0,yellow,circle
0.0,4.0,4.0,0.0,7.0,4.0,1516.6045310006666,1.0,1.0,part_3,go,0.0,0.0,0.0,116.0,1.0,696.0,464.0,348.0,116.0,580.0,232.0,white,hexagon
0.0,6.0,2.0,1.0,7.0,4.0,1048.5011139999187,2.0,1.0,part_3,go,0.0,0.0,0.0,464.0,4.0,232.0,696.0,348.0,464.0,580.0,116.0,gray,cross
0.0,7.0,3.0,1.0,7.0,5.0,2012.476042000344,2.0,1.0,part_3,go,0.0,0.0,0.0,405.0,3.0,135.0,675.0,270.0,540.0,405.0,810.0,magenta,triangle
0.0,2.0,2.0,0.0,7.0,2.0,972.8676529994118,2.0,1.0,part_3,go,0.0,0.0,0.0,696.0,6.0,464.0,696.0,116.0,348.0,580.0,232.0,yellow,circle
0.0,1.0,1.0,0.0,7.0,6.0,1310.6547790002878,2.0,1.0,part_3,go,0.0,0.0,0.0,1152.0,6.0,960.0,576.0,384.0,768.0,192.0,1152.0,orange,square
0.0,4.0,4.0,0.0,7.0,1.0,1176.7564389992913,2.0,1.0,part_3,go,0.0,0.0,0.0,960.0,5.0,960.0,192.0,768.0,576.0,1152.0,384.0,white,hexagon
0.0,3.0,3.0,0.0,7.0,4.0,1170.1772910000727,2.0,1.0,part_3,go,0.0,0.0,0.0,462.0,3.0,154.0,616.0,308.0,462.0,770.0,924.0,blue,diamond
0.0,6.0,2.0,1.0,7.0,2.0,1497.702048000065,2.0,1.0,part_3,go,0.0,0.0,0.0,192.0,1.0,384.0,192.0,960.0,768.0,576.0,1152.0,gray,cross
0.0,1.0,1.0,0.0,7.0,4.0,1018.9028140002847,2.0,1.0,part_3,go,0.0,0.0,0.0,232.0,2.0,348.0,580.0,464.0,232.0,116.0,696.0,orange,square
0.0,5.0,1.0,1.0,7.0,4.0,1597.0553899996958,2.0,1.0,part_3,go,0.0,0.0,0.0,1152.0,6.0,384.0,768.0,576.0,1152.0,960.0,192.0,cyan,flipped triangle
0.0,4.0,4.0,0.0,7.0,1.0,1548.9715209996575,2.0,1.0,part_3,go,0.0,0.0,0.0,348.0,3.0,348.0,464.0,580.0,232.0,696.0,116.0,white,hexagon
0.0,6.0,2.0,1.0,7.0,6.0,937.274601000354,2.0,1.0,part_3,go,0.0,0.0,0.0,616.0,4.0,308.0,770.0,462.0,924.0,154.0,616.0,gray,cross
0.0,5.0,1.0,1.0,7.0,5.0,1161.5750020000633,2.0,1.0,part_3,go,0.0,0.0,0.0,116.0,1.0,232.0,348.0,464.0,580.0,116.0,696.0,cyan,flipped triangle
0.0,7.0,3.0,1.0,7.0,4.0,1463.5065170004964,2.0,1.0,part_3,go,0.0,0.0,0.0,346.0,2.0,173.0,1038.0,692.0,346.0,865.0,519.0,magenta,triangle
0.0,6.0,2.0,1.0,7.0,5.0,1491.5781409999909,2.0,1.0,part_3,go,0.0,0.0,0.0,768.0,4.0,384.0,192.0,960.0,1152.0,768.0,576.0,gray,cross
0.0,8.0,4.0,1.0,7.0,3.0,1434.0034850001755,2.0,1.0,part_3,go,0.0,0.0,0.0,348.0,3.0,232.0,696.0,348.0,580.0,464.0,116.0,green,I
0.0,4.0,4.0,0.0,7.0,1.0,1487.9378579998956,2.0,1.0,part_3,go,0.0,0.0,0.0,810.0,6.0,810.0,675.0,135.0,405.0,270.0,540.0,white,hexagon
0.0,3.0,3.0,0.0,7.0,5.0,1132.4953280000043,2.0,1.0,part_3,go,0.0,0.0,0.0,580.0,5.0,116.0,232.0,464.0,696.0,580.0,348.0,blue,diamond
0.0,6.0,2.0,1.0,7.0,6.0,1076.354449000064,2.0,1.0,part_3,go,0.0,0.0,0.0,540.0,4.0,405.0,675.0,810.0,270.0,135.0,540.0,gray,cross
0.0,3.0,3.0,0.0,7.0,3.0,1687.3927059996277,2.0,1.0,part_3,go,0.0,0.0,0.0,540.0,4.0,135.0,675.0,540.0,810.0,405.0,270.0,blue,diamond
0.0,8.0,4.0,1.0,7.0,3.0,1331.4309750003304,2.0,1.0,part_3,go,0.0,0.0,0.0,675.0,5.0,405.0,135.0,675.0,810.0,540.0,270.0,green,I
0.0,2.0,2.0,0.0,7.0,3.0,1253.1192699998428,3.0,1.0,part_3,go,0.0,0.0,0.0,865.0,5.0,692.0,1038.0,865.0,346.0,173.0,519.0,yellow,circle
0.0,2.0,2.0,0.0,7.0,6.0,515.9701570000834,3.0,1.0,part_3,go,0.0,0.0,0.0,616.0,4.0,462.0,770.0,154.0,924.0,308.0,616.0,yellow,circle
0.0,8.0,4.0,1.0,7.0,5.0,786.8490420005401,3.0,1.0,part_3,go,0.0,0.0,0.0,960.0,5.0,192.0,1152.0,768.0,384.0,960.0,576.0,green,I
0.0,4.0,4.0,0.0,7.0,1.0,467.8986809994967,3.0,1.0,part_3,go,0.0,0.0,0.0,308.0,2.0,308.0,616.0,154.0,924.0,462.0,770.0,white,hexagon
0.0,1.0,1.0,0.0,7.0,2.0,721.7306520005877,3.0,1.0,part_3,go,0.0,0.0,0.0,462.0,3.0,154.0,462.0,770.0,616.0,308.0,924.0,orange,square
0.0,6.0,2.0,1.0,7.0,5.0,712.2318619994985,3.0,1.0,part_3,go,0.0,0.0,0.0,580.0,5.0,232.0,696.0,348.0,464.0,580.0,116.0,gray,cross
0.0,8.0,4.0,1.0,7.0,4.0,1012.9429200005688,3.0,1.0,part_3,go,0.0,0.0,0.0,696.0,6.0,348.0,232.0,580.0,696.0,116.0,464.0,green,I
0.0,7.0,3.0,1.0,7.0,2.0,777.2750699996323,3.0,1.0,part_3,go,0.0,0.0,0.0,192.0,1.0,768.0,192.0,960.0,576.0,384.0,1152.0,magenta,triangle
0.0,3.0,3.0,0.0,7.0,5.0,787.1022960007394,3.0,1.0,part_3,go,0.0,0.0,0.0,768.0,4.0,192.0,576.0,960.0,1152.0,768.0,384.0,blue,diamond
0.0,2.0,2.0,0.0,7.0,5.0,748.7416310004846,3.0,1.0,part_3,go,0.0,0.0,0.0,405.0,3.0,810.0,270.0,675.0,135.0,405.0,540.0,yellow,circle
0.0,8.0,4.0,1.0,7.0,2.0,713.0343489998268,3.0,1.0,part_3,go,0.0,0.0,0.0,924.0,6.0,154.0,924.0,616.0,462.0,308.0,770.0,green,I
0.0,5.0,1.0,1.0,7.0,4.0,1302.062687000216,3.0,1.0,part_3,go,0.0,0.0,0.0,865.0,5.0,173.0,519.0,346.0,865.0,692.0,1038.0,cyan,flipped triangle
0.0,7.0,3.0,1.0,7.0,4.0,795.5500960006248,3.0,1.0,part_3,go,0.0,0.0,0.0,540.0,4.0,270.0,405.0,810.0,540.0,675.0,135.0,magenta,triangle
0.0,5.0,1.0,1.0,7.0,2.0,760.473517999344,3.0,1.0,part_3,go,0.0,0.0,0.0,464.0,4.0,580.0,464.0,696.0,348.0,116.0,232.0,cyan,flipped triangle
0.0,3.0,3.0,0.0,7.0,2.0,1001.6817199993966,3.0,1.0,part_3,go,0.0,0.0,0.0,346.0,2.0,1038.0,346.0,173.0,865.0,692.0,519.0,blue,diamond
0.0,4.0,4.0,0.0,7.0,5.0,797.7351460003774,3.0,1.0,part_3,go,0.0,0.0,0.0,675.0,5.0,405.0,540.0,135.0,810.0,675.0,270.0,white,hexagon
0.0,3.0,3.0,0.0,7.0,4.0,1057.862976999786,3.0,1.0,part_3,go,0.0,0.0,0.0,462.0,3.0,308.0,770.0,154.0,462.0,924.0,616.0,blue,diamond
0.0,5.0,1.0,1.0,7.0,6.0,403.6334120000902,3.0,1.0,part_3,go,0.0,0.0,0.0,924.0,6.0,308.0,770.0,154.0,616.0,462.0,924.0,cyan,flipped triangle
0.0,1.0,1.0,0.0,7.0,3.0,1516.1818639999185,3.0,1.0,part_3,go,0.0,0.0,0.0,384.0,2.0,192.0,1152.0,384.0,768.0,960.0,576.0,orange,square
0.0,7.0,3.0,1.0,7.0,1.0,710.7900250002785,3.0,1.0,part_3,go,0.0,0.0,0.0,308.0,2.0,308.0,616.0,924.0,462.0,154.0,770.0,magenta,triangle
0.0,8.0,4.0,1.0,7.0,3.0,1172.708211999634,4.0,1.0,part_3,go,0.0,0.0,0.0,770.0,5.0,154.0,308.0,770.0,462.0,924.0,616.0,green,I
0.0,1.0,1.0,0.0,7.0,5.0,871.2621940003373,4.0,1.0,part_3,go,0.0,0.0,0.0,810.0,6.0,405.0,675.0,540.0,135.0,810.0,270.0,orange,square
0.0,5.0,1.0,1.0,7.0,2.0,824.802469000133,4.0,1.0,part_3,go,0.0,0.0,0.0,405.0,3.0,675.0,405.0,540.0,810.0,270.0,135.0,cyan,flipped triangle
0.0,5.0,1.0,1.0,7.0,1.0,543.511034000403,4.0,1.0,part_3,go,0.0,0.0,0.0,616.0,4.0,616.0,154.0,770.0,308.0,462.0,924.0,cyan,flipped triangle
0.0,1.0,1.0,0.0,7.0,5.0,524.9272749997544,4.0,1.0,part_3,go,0.0,0.0,0.0,865.0,5.0,1038.0,346.0,692.0,173.0,865.0,519.0,orange,square
0.0,7.0,3.0,1.0,7.0,4.0,1574.0542749999804,4.0,1.0,part_3,go,0.0,0.0,0.0,580.0,5.0,464.0,696.0,232.0,580.0,348.0,116.0,magenta,triangle
0.0,6.0,2.0,1.0,7.0,6.0,1393.4113450004588,4.0,1.0,part_3,go,0.0,0.0,0.0,810.0,6.0,270.0,675.0,135.0,405.0,540.0,810.0,gray,cross
0.0,1.0,1.0,0.0,7.0,2.0,1749.4687429998519,4.0,1.0,part_3,go,0.0,0.0,0.0,270.0,2.0,405.0,270.0,810.0,135.0,540.0,675.0,orange,square
0.0,6.0,2.0,1.0,7.0,3.0,1084.5300689998112,4.0,1.0,part_3,go,0.0,0.0,0.0,519.0,3.0,692.0,1038.0,519.0,346.0,865.0,173.0,gray,cross
0.0,6.0,2.0,1.0,7.0,2.0,2050.141557999268,4.0,1.0,part_3,go,0.0,0.0,0.0,1038.0,6.0,173.0,1038.0,346.0,692.0,865.0,519.0,gray,cross
0.0,7.0,3.0,1.0,7.0,1.0,1875.1328779999312,4.0,1.0,part_3,go,0.0,0.0,0.0,348.0,3.0,348.0,580.0,232.0,116.0,696.0,464.0,magenta,triangle
0.0,8.0,4.0,1.0,7.0,3.0,975.8305239993206,4.0,1.0,part_3,go,0.0,0.0,0.0,1038.0,6.0,519.0,865.0,1038.0,692.0,173.0,346.0,green,I
0.0,7.0,3.0,1.0,7.0,2.0,1852.8643459994785,4.0,1.0,part_3,go,0.0,0.0,0.0,770.0,5.0,154.0,770.0,462.0,924.0,616.0,308.0,magenta,triangle
0.0,8.0,4.0,1.0,7.0,6.0,692.9115319999255,4.0,1.0,part_3,go,0.0,0.0,0.0,576.0,3.0,384.0,768.0,192.0,1152.0,960.0,576.0,green,I
0.0,5.0,1.0,1.0,7.0,5.0,999.5142540001324,4.0,1.0,part_3,go,0.0,0.0,0.0,960.0,5.0,192.0,1152.0,768.0,384.0,960.0,576.0,cyan,flipped triangle
0.0,8.0,4.0,1.0,7.0,2.0,505.5472310004916,4.0,1.0,part_3,go,0.0,0.0,0.0,519.0,3.0,865.0,519.0,346.0,173.0,1038.0,692.0,green,I
0.0,3.0,3.0,0.0,7.0,4.0,1791.8182550001802,4.0,1.0,part_3,go,0.0,0.0,0.0,270.0,2.0,540.0,405.0,135.0,270.0,675.0,810.0,blue,diamond
0.0,8.0,4.0,1.0,7.0,6.0,796.0130250003203,4.0,1.0,part_3,go,0.0,0.0,0.0,270.0,2.0,675.0,405.0,135.0,540.0,810.0,270.0,green,I
0.0,2.0,2.0,0.0,7.0,2.0,958.8505490000898,4.0,1.0,part_3,go,0.0,0.0,0.0,135.0,1.0,675.0,135.0,270.0,540.0,405.0,810.0,yellow,circle
0.0,2.0,2.0,0.0,7.0,2.0,788.6487489995488,4.0,1.0,part_3,go,0.0,0.0,0.0,519.0,3.0,173.0,519.0,346.0,865.0,692.0,1038.0,yellow,circle
