raw_reward_magnitude,stim_reward,stepwise_reward_magnitude,paired_with_stopping,stim_location,response,reaction_time,block,num_trial_presentations,which_phase,stop_signal_trial_type,left_SSD,right_SSD,accuracy,chosen_bidding_amount,chosen_bidding_level,possible_bid_1,possible_bid_2,possible_bid_3,possible_bid_4,possible_bid_5,possible_bid_6,color_text,shape_text
1284.0,4.0,4.0,0.0,2.0,2.0,367.963920999955,1.0,2.0,phase_1,,,,,,,,,,,,,orange,circle
1289.0,4.0,4.0,0.0,3.0,3.0,424.8604059998797,1.0,1.0,phase_1,,,,,,,,,,,,,orange,circle
1321.0,8.0,4.0,1.0,4.0,4.0,443.2505640002091,1.0,1.0,phase_1,,,,,,,,,,,,,cyan,diamond
0.0,7.0,0.0,1.0,1.0,1.0,433.9259540001876,1.0,1.0,phase_1,,,,,,,,,,,,,gray,triangle
158.0,1.0,0.5,0.0,2.0,2.0,311.559490000036,1.0,1.0,phase_1,,,,,,,,,,,,,magenta,cross
0.0,5.0,0.0,1.0,1.0,1.0,677.8476239996962,1.0,2.0,phase_1,,,,,,,,,,,,,blue,flipped triangle
1318.0,4.0,4.0,0.0,3.0,3.0,453.712713999721,1.0,1.0,phase_1,,,,,,,,,,,,,orange,circle
180.0,1.0,0.5,0.0,3.0,3.0,443.1871580000006,1.0,1.0,phase_1,,,,,,,,,,,,,magenta,cross
1294.0,8.0,4.0,1.0,2.0,2.0,367.2685689998616,1.0,1.0,phase_1,,,,,,,,,,,,,cyan,diamond
1296.0,4.0,4.0,0.0,2.0,2.0,442.7519319997373,1.0,1.0,phase_1,,,,,,,,,,,,,orange,circle
183.0,5.0,0.5,1.0,4.0,4.0,417.0699030000833,1.0,1.0,phase_1,,,,,,,,,,,,,blue,flipped triangle
0.0,8.0,0.0,1.0,3.0,3.0,433.7096899998869,1.0,1.0,phase_1,,,,,,,,,,,,,cyan,diamond
181.0,1.0,0.5,0.0,4.0,4.0,454.5163230000071,1.0,1.0,phase_1,,,,,,,,,,,,,magenta,cross
1303.0,8.0,4.0,1.0,4.0,4.0,414.9850439998772,1.0,1.0,phase_1,,,,,,,,,,,,,cyan,diamond
645.0,3.0,2.0,0.0,2.0,2.0,406.1616920002961,1.0,1.0,phase_1,,,,,,,,,,,,,green,square
316.0,6.0,1.0,1.0,4.0,4.0,368.513423999957,1.0,1.0,phase_1,,,,,,,,,,,,,yellow,hexagon
154.0,1.0,0.5,0.0,1.0,1.0,424.5460239999374,1.0,1.0,phase_1,,,,,,,,,,,,,magenta,cross
0.0,6.0,0.0,1.0,4.0,4.0,425.7517969999753,1.0,1.0,phase_1,,,,,,,,,,,,,yellow,hexagon
166.0,1.0,0.5,0.0,2.0,2.0,359.3978879998758,1.0,1.0,phase_1,,,,,,,,,,,,,magenta,cross
635.0,3.0,2.0,0.0,1.0,1.0,631.9312639998316,1.0,1.0,phase_1,,,,,,,,,,,,,green,square
1314.0,4.0,4.0,0.0,2.0,2.0,396.7276009998386,1.0,1.0,phase_1,,,,,,,,,,,,,orange,circle
1277.0,4.0,4.0,0.0,1.0,1.0,405.3336700003456,1.0,1.0,phase_1,,,,,,,,,,,,,orange,circle
671.0,7.0,2.0,1.0,1.0,1.0,366.0433840000223,1.0,1.0,phase_1,,,,,,,,,,,,,gray,triangle
0.0,3.0,0.0,0.0,3.0,3.0,454.7470590000557,1.0,1.0,phase_1,,,,,,,,,,,,,green,square
337.0,2.0,1.0,0.0,4.0,4.0,436.6517130001739,1.0,1.0,phase_1,,,,,,,,,,,,,white,I
167.0,5.0,0.5,1.0,4.0,4.0,461.5791910000553,1.0,1.0,phase_1,,,,,,,,,,,,,blue,flipped triangle
629.0,7.0,2.0,1.0,3.0,3.0,487.7557740001066,1.0,1.0,phase_1,,,,,,,,,,,,,gray,triangle
0.0,4.0,0.0,0.0,3.0,3.0,540.2832500003569,1.0,1.0,phase_1,,,,,,,,,,,,,orange,circle
320.0,2.0,1.0,0.0,1.0,1.0,603.7672550000934,1.0,1.0,phase_1,,,,,,,,,,,,,white,I
0.0,1.0,0.0,0.0,2.0,2.0,312.8728910000973,1.0,1.0,phase_1,,,,,,,,,,,,,magenta,cross
184.0,5.0,0.5,1.0,2.0,2.0,377.5464239997745,1.0,1.0,phase_1,,,,,,,,,,,,,blue,flipped triangle
158.0,5.0,0.5,1.0,1.0,1.0,471.4210639999692,1.0,1.0,phase_1,,,,,,,,,,,,,blue,flipped triangle
184.0,1.0,0.5,0.0,4.0,4.0,360.6376349998754,1.0,1.0,phase_1,,,,,,,,,,,,,magenta,cross
0.0,3.0,0.0,0.0,3.0,3.0,377.9296190000423,1.0,1.0,phase_1,,,,,,,,,,,,,green,square
337.0,6.0,1.0,1.0,3.0,3.0,425.7206530000985,1.0,1.0,phase_1,,,,,,,,,,,,,yellow,hexagon
1285.0,4.0,4.0,0.0,4.0,4.0,474.602066999978,1.0,1.0,phase_1,,,,,,,,,,,,,orange,circle
0.0,4.0,0.0,0.0,1.0,1.0,331.2814670002808,1.0,1.0,phase_1,,,,,,,,,,,,,orange,circle
333.0,6.0,1.0,1.0,1.0,1.0,368.8649529999566,1.0,1.0,phase_1,,,,,,,,,,,,,yellow,hexagon
634.0,7.0,2.0,1.0,2.0,2.0,490.8677859998533,1.0,1.0,phase_1,,,,,,,,,,,,,gray,triangle
1319.0,8.0,4.0,1.0,1.0,1.0,454.7762850002073,1.0,1.0,phase_1,,,,,,,,,,,,,cyan,diamond
315.0,2.0,1.0,0.0,2.0,2.0,387.9134579997298,1.0,1.0,phase_1,,,,,,,,,,,,,white,I
160.0,5.0,0.5,1.0,1.0,1.0,368.3547659998112,1.0,1.0,phase_1,,,,,,,,,,,,,blue,flipped triangle
1289.0,8.0,4.0,1.0,4.0,4.0,358.7902950002899,1.0,1.0,phase_1,,,,,,,,,,,,,cyan,diamond
1276.0,8.0,4.0,1.0,3.0,3.0,348.2859179998741,1.0,1.0,phase_1,,,,,,,,,,,,,cyan,diamond
1311.0,4.0,4.0,0.0,2.0,2.0,432.9493790000924,1.0,1.0,phase_1,,,,,,,,,,,,,orange,circle
175.0,5.0,0.5,1.0,1.0,1.0,329.5098500002495,1.0,1.0,phase_1,,,,,,,,,,,,,blue,flipped triangle
342.0,6.0,1.0,1.0,2.0,2.0,349.4711110001844,1.0,1.0,phase_1,,,,,,,,,,,,,yellow,hexagon
629.0,3.0,2.0,0.0,4.0,4.0,340.1645539997844,1.0,1.0,phase_1,,,,,,,,,,,,,green,square
150.0,1.0,0.5,0.0,2.0,2.0,275.077033999878,1.0,1.0,phase_1,,,,,,,,,,,,,magenta,cross
347.0,6.0,1.0,1.0,1.0,1.0,397.7702339998359,1.0,1.0,phase_1,,,,,,,,,,,,,yellow,hexagon
0.0,6.0,0.0,1.0,3.0,3.0,386.8615759997738,1.0,1.0,phase_1,,,,,,,,,,,,,yellow,hexagon
320.0,6.0,1.0,1.0,3.0,3.0,312.6388980003867,1.0,1.0,phase_1,,,,,,,,,,,,,yellow,hexagon
0.0,5.0,0.0,1.0,2.0,2.0,372.7800760002537,1.0,1.0,phase_1,,,,,,,,,,,,,blue,flipped triangle
152.0,1.0,0.5,0.0,2.0,2.0,368.3758869997291,1.0,1.0,phase_1,,,,,,,,,,,,,magenta,cross
627.0,3.0,2.0,0.0,1.0,1.0,311.5478649997385,1.0,1.0,phase_1,,,,,,,,,,,,,green,square
1287.0,4.0,4.0,0.0,2.0,2.0,340.5306229997222,1.0,1.0,phase_1,,,,,,,,,,,,,orange,circle
0.0,7.0,0.0,1.0,2.0,2.0,351.1155119999785,1.0,1.0,phase_1,,,,,,,,,,,,,gray,triangle
335.0,2.0,1.0,0.0,2.0,2.0,322.8293970000777,1.0,1.0,phase_1,,,,,,,,,,,,,white,I
1315.0,8.0,4.0,1.0,4.0,4.0,426.6301079996992,1.0,1.0,phase_1,,,,,,,,,,,,,cyan,diamond
341.0,6.0,1.0,1.0,3.0,3.0,399.639875000048,1.0,1.0,phase_1,,,,,,,,,,,,,yellow,hexagon
309.0,6.0,1.0,1.0,4.0,4.0,406.1487799999668,1.0,1.0,phase_1,,,,,,,,,,,,,yellow,hexagon
649.0,7.0,2.0,1.0,1.0,1.0,511.8127089999689,1.0,1.0,phase_1,,,,,,,,,,,,,gray,triangle
1304.0,4.0,4.0,0.0,1.0,1.0,434.5979119998446,1.0,1.0,phase_1,,,,,,,,,,,,,orange,circle
142.0,1.0,0.5,0.0,4.0,4.0,483.3797239998603,1.0,1.0,phase_1,,,,,,,,,,,,,magenta,cross
630.0,7.0,2.0,1.0,3.0,3.0,377.5380409997524,1.0,1.0,phase_1,,,,,,,,,,,,,gray,triangle
162.0,1.0,0.5,0.0,2.0,2.0,386.2176949996865,1.0,1.0,phase_1,,,,,,,,,,,,,magenta,cross
309.0,2.0,1.0,0.0,4.0,4.0,339.9998730001243,1.0,1.0,phase_1,,,,,,,,,,,,,white,I
320.0,6.0,1.0,1.0,3.0,3.0,405.0822730000618,1.0,1.0,phase_1,,,,,,,,,,,,,yellow,hexagon
630.0,3.0,2.0,0.0,3.0,3.0,426.6638180001791,1.0,1.0,phase_1,,,,,,,,,,,,,green,square
0.0,3.0,0.0,0.0,1.0,1.0,445.6368490000386,1.0,1.0,phase_1,,,,,,,,,,,,,green,square
310.0,6.0,1.0,1.0,2.0,2.0,395.9387220002099,1.0,1.0,phase_1,,,,,,,,,,,,,yellow,hexagon
142.0,5.0,0.5,1.0,2.0,2.0,302.8124180000304,1.0,1.0,phase_1,,,,,,,,,,,,,blue,flipped triangle
1286.0,8.0,4.0,1.0,1.0,1.0,539.2482820002442,1.0,1.0,phase_1,,,,,,,,,,,,,cyan,diamond
1301.0,4.0,4.0,0.0,2.0,2.0,358.524627999941,1.0,1.0,phase_1,,,,,,,,,,,,,orange,circle
1322.0,4.0,4.0,0.0,3.0,3.0,332.3299830003634,1.0,1.0,phase_1,,,,,,,,,,,,,orange,circle
152.0,5.0,0.5,1.0,2.0,2.0,424.8974100000851,1.0,1.0,phase_1,,,,,,,,,,,,,blue,flipped triangle
1307.0,8.0,4.0,1.0,2.0,2.0,321.1482380002053,1.0,1.0,phase_1,,,,,,,,,,,,,cyan,diamond
634.0,3.0,2.0,0.0,4.0,4.0,387.1026420001726,1.0,1.0,phase_1,,,,,,,,,,,,,green,square
647.0,7.0,2.0,1.0,1.0,1.0,311.3662959999601,1.0,1.0,phase_1,,,,,,,,,,,,,gray,triangle
162.0,5.0,0.5,1.0,1.0,1.0,387.1233800000482,1.0,1.0,phase_1,,,,,,,,,,,,,blue,flipped triangle
1298.0,4.0,4.0,0.0,1.0,1.0,329.4147870001325,1.0,1.0,phase_1,,,,,,,,,,,,,orange,circle
640.0,7.0,2.0,1.0,3.0,3.0,319.5807850001984,1.0,1.0,phase_1,,,,,,,,,,,,,gray,triangle
143.0,1.0,0.5,0.0,3.0,3.0,331.7588069999146,1.0,1.0,phase_1,,,,,,,,,,,,,magenta,cross
309.0,6.0,1.0,1.0,4.0,4.0,462.0836859999144,1.0,1.0,phase_1,,,,,,,,,,,,,yellow,hexagon
0.0,7.0,0.0,1.0,1.0,1.0,395.6216550000135,1.0,1.0,phase_1,,,,,,,,,,,,,gray,triangle
0.0,3.0,0.0,0.0,3.0,3.0,320.2935949998391,1.0,1.0,phase_1,,,,,,,,,,,,,green,square
166.0,5.0,0.5,1.0,2.0,2.0,451.9030239998756,1.0,1.0,phase_1,,,,,,,,,,,,,blue,flipped triangle
643.0,7.0,2.0,1.0,2.0,2.0,395.7596640002521,1.0,1.0,phase_1,,,,,,,,,,,,,gray,triangle
0.0,3.0,0.0,0.0,2.0,2.0,263.8672170000973,1.0,1.0,phase_1,,,,,,,,,,,,,green,square
325.0,2.0,1.0,0.0,1.0,1.0,395.3733500002272,1.0,1.0,phase_1,,,,,,,,,,,,,white,I
643.0,3.0,2.0,0.0,3.0,3.0,329.6576030002143,1.0,1.0,phase_1,,,,,,,,,,,,,green,square
673.0,3.0,2.0,0.0,2.0,2.0,358.050046000244,1.0,1.0,phase_1,,,,,,,,,,,,,green,square
1275.0,8.0,4.0,1.0,3.0,3.0,395.079533000171,1.0,1.0,phase_1,,,,,,,,,,,,,cyan,diamond
301.0,6.0,1.0,1.0,1.0,1.0,367.3950139996123,1.0,1.0,phase_1,,,,,,,,,,,,,yellow,hexagon
0.0,2.0,0.0,0.0,1.0,1.0,509.66985500008377,1.0,1.0,phase_1,,,,,,,,,,,,,white,I
0.0,4.0,0.0,0.0,4.0,4.0,502.45170199968925,1.0,1.0,phase_1,,,,,,,,,,,,,orange,circle
158.0,1.0,0.5,0.0,3.0,3.0,453.4880960000009,1.0,1.0,phase_1,,,,,,,,,,,,,magenta,cross
656.0,7.0,2.0,1.0,1.0,1.0,622.2902950003117,1.0,1.0,phase_1,,,,,,,,,,,,,gray,triangle
333.0,2.0,1.0,0.0,3.0,3.0,349.1067640002256,1.0,1.0,phase_1,,,,,,,,,,,,,white,I
155.0,5.0,0.5,1.0,4.0,4.0,386.8291030003092,1.0,1.0,phase_1,,,,,,,,,,,,,blue,flipped triangle
673.0,7.0,2.0,1.0,2.0,2.0,379.5796969998264,2.0,1.0,phase_1,,,,,,,,,,,,,gray,triangle
0.0,5.0,0.0,1.0,1.0,1.0,479.8453429998517,2.0,2.0,phase_1,,,,,,,,,,,,,blue,flipped triangle
1314.0,8.0,4.0,1.0,2.0,2.0,415.1394259997687,2.0,1.0,phase_1,,,,,,,,,,,,,cyan,diamond
647.0,3.0,2.0,0.0,3.0,3.0,359.0728070003024,2.0,1.0,phase_1,,,,,,,,,,,,,green,square
0.0,1.0,0.0,0.0,1.0,1.0,508.7894560001587,2.0,1.0,phase_1,,,,,,,,,,,,,magenta,cross
308.0,2.0,1.0,0.0,2.0,2.0,521.5856970003188,2.0,1.0,phase_1,,,,,,,,,,,,,white,I
313.0,2.0,1.0,0.0,2.0,2.0,377.412669000023,2.0,1.0,phase_1,,,,,,,,,,,,,white,I
182.0,5.0,0.5,1.0,3.0,3.0,359.1498519999732,2.0,1.0,phase_1,,,,,,,,,,,,,blue,flipped triangle
1283.0,4.0,4.0,0.0,3.0,3.0,557.8822379998201,2.0,1.0,phase_1,,,,,,,,,,,,,orange,circle
1282.0,8.0,4.0,1.0,3.0,3.0,378.8780180002504,2.0,1.0,phase_1,,,,,,,,,,,,,cyan,diamond
325.0,6.0,1.0,1.0,2.0,2.0,491.4212940002471,2.0,1.0,phase_1,,,,,,,,,,,,,yellow,hexagon
0.0,7.0,0.0,1.0,2.0,2.0,321.9321410001612,2.0,1.0,phase_1,,,,,,,,,,,,,gray,triangle
645.0,3.0,2.0,0.0,4.0,4.0,329.8879599997235,2.0,1.0,phase_1,,,,,,,,,,,,,green,square
652.0,7.0,2.0,1.0,4.0,4.0,433.351340000172,2.0,1.0,phase_1,,,,,,,,,,,,,gray,triangle
0.0,1.0,0.0,0.0,2.0,2.0,435.9176050002133,2.0,1.0,phase_1,,,,,,,,,,,,,magenta,cross
0.0,4.0,0.0,0.0,4.0,4.0,388.5138800001186,2.0,1.0,phase_1,,,,,,,,,,,,,orange,circle
156.0,5.0,0.5,1.0,4.0,4.0,453.2465939996655,2.0,1.0,phase_1,,,,,,,,,,,,,blue,flipped triangle
1309.0,8.0,4.0,1.0,3.0,3.0,585.0908469997194,2.0,1.0,phase_1,,,,,,,,,,,,,cyan,diamond
322.0,6.0,1.0,1.0,1.0,1.0,396.3030690001687,2.0,1.0,phase_1,,,,,,,,,,,,,yellow,hexagon
333.0,6.0,1.0,1.0,4.0,4.0,377.5068939999073,2.0,1.0,phase_1,,,,,,,,,,,,,yellow,hexagon
0.0,3.0,0.0,0.0,4.0,4.0,379.3760429998656,2.0,1.0,phase_1,,,,,,,,,,,,,green,square
180.0,5.0,0.5,1.0,2.0,2.0,415.2199889999792,2.0,1.0,phase_1,,,,,,,,,,,,,blue,flipped triangle
0.0,2.0,0.0,0.0,3.0,3.0,386.157018999711,2.0,1.0,phase_1,,,,,,,,,,,,,white,I
0.0,8.0,0.0,1.0,4.0,4.0,293.7389039998379,2.0,1.0,phase_1,,,,,,,,,,,,,cyan,diamond
137.0,1.0,0.5,0.0,2.0,2.0,358.6984670000674,2.0,1.0,phase_1,,,,,,,,,,,,,magenta,cross
1314.0,8.0,4.0,1.0,1.0,1.0,461.4386459998059,2.0,1.0,phase_1,,,,,,,,,,,,,cyan,diamond
312.0,6.0,1.0,1.0,1.0,1.0,358.8653320002777,2.0,1.0,phase_1,,,,,,,,,,,,,yellow,hexagon
344.0,2.0,1.0,0.0,3.0,3.0,519.125362000068,2.0,1.0,phase_1,,,,,,,,,,,,,white,I
1287.0,8.0,4.0,1.0,2.0,2.0,424.8079100002542,2.0,1.0,phase_1,,,,,,,,,,,,,cyan,diamond
1286.0,4.0,4.0,0.0,3.0,3.0,406.9459050001569,2.0,1.0,phase_1,,,,,,,,,,,,,orange,circle
337.0,2.0,1.0,0.0,3.0,3.0,366.9741140001861,2.0,1.0,phase_1,,,,,,,,,,,,,white,I
1288.0,4.0,4.0,0.0,1.0,1.0,395.6485499998052,2.0,1.0,phase_1,,,,,,,,,,,,,orange,circle
335.0,6.0,1.0,1.0,2.0,2.0,444.0371820001019,2.0,1.0,phase_1,,,,,,,,,,,,,yellow,hexagon
325.0,2.0,1.0,0.0,3.0,3.0,424.2267689996879,2.0,1.0,phase_1,,,,,,,,,,,,,white,I
0.0,4.0,0.0,0.0,3.0,3.0,312.1177379998698,2.0,1.0,phase_1,,,,,,,,,,,,,orange,circle
337.0,2.0,1.0,0.0,3.0,3.0,416.4482149999458,2.0,1.0,phase_1,,,,,,,,,,,,,white,I
178.0,1.0,0.5,0.0,4.0,4.0,434.6151420004389,2.0,1.0,phase_1,,,,,,,,,,,,,magenta,cross
0.0,6.0,0.0,1.0,1.0,1.0,358.9378709998527,2.0,1.0,phase_1,,,,,,,,,,,,,yellow,hexagon
634.0,3.0,2.0,0.0,2.0,2.0,435.3590900000199,2.0,1.0,phase_1,,,,,,,,,,,,,green,square
151.0,5.0,0.5,1.0,1.0,1.0,480.1299689997904,2.0,1.0,phase_1,,,,,,,,,,,,,blue,flipped triangle
143.0,5.0,0.5,1.0,1.0,1.0,348.7691209998047,2.0,1.0,phase_1,,,,,,,,,,,,,blue,flipped triangle
658.0,3.0,2.0,0.0,3.0,3.0,376.9683900000018,2.0,1.0,phase_1,,,,,,,,,,,,,green,square
642.0,3.0,2.0,0.0,1.0,1.0,358.204501000273,2.0,1.0,phase_1,,,,,,,,,,,,,green,square
649.0,3.0,2.0,0.0,3.0,3.0,480.2585500001441,2.0,1.0,phase_1,,,,,,,,,,,,,green,square
0.0,1.0,0.0,0.0,4.0,4.0,414.945199000158,2.0,1.0,phase_1,,,,,,,,,,,,,magenta,cross
344.0,2.0,1.0,0.0,2.0,2.0,480.2300970000033,2.0,1.0,phase_1,,,,,,,,,,,,,white,I
315.0,6.0,1.0,1.0,3.0,3.0,500.1127559999077,2.0,1.0,phase_1,,,,,,,,,,,,,yellow,hexagon
0.0,4.0,0.0,0.0,1.0,1.0,368.567596000048,2.0,1.0,phase_1,,,,,,,,,,,,,orange,circle
303.0,2.0,1.0,0.0,4.0,4.0,350.4482660000576,2.0,1.0,phase_1,,,,,,,,,,,,,white,I
316.0,2.0,1.0,0.0,1.0,1.0,563.1066659998396,2.0,2.0,phase_1,,,,,,,,,,,,,white,I
169.0,5.0,0.5,1.0,3.0,3.0,404.662892000033,2.0,1.0,phase_1,,,,,,,,,,,,,blue,flipped triangle
181.0,5.0,0.5,1.0,3.0,3.0,435.3069779999714,2.0,1.0,phase_1,,,,,,,,,,,,,blue,flipped triangle
0.0,7.0,0.0,1.0,2.0,2.0,405.6680620001316,2.0,1.0,phase_1,,,,,,,,,,,,,gray,triangle
634.0,3.0,2.0,0.0,1.0,1.0,293.6283839999305,2.0,1.0,phase_1,,,,,,,,,,,,,green,square
344.0,6.0,1.0,1.0,2.0,2.0,980.501004999951,2.0,1.0,phase_1,,,,,,,,,,,,,yellow,hexagon
0.0,5.0,0.0,1.0,2.0,2.0,396.1322840000321,2.0,1.0,phase_1,,,,,,,,,,,,,blue,flipped triangle
169.0,1.0,0.5,0.0,4.0,4.0,376.2019760001749,2.0,1.0,phase_1,,,,,,,,,,,,,magenta,cross
341.0,6.0,1.0,1.0,4.0,4.0,522.1722609999233,2.0,1.0,phase_1,,,,,,,,,,,,,yellow,hexagon
143.0,1.0,0.5,0.0,1.0,1.0,358.0361880003693,2.0,1.0,phase_1,,,,,,,,,,,,,magenta,cross
140.0,1.0,0.5,0.0,1.0,1.0,377.5162490001094,2.0,1.0,phase_1,,,,,,,,,,,,,magenta,cross
167.0,1.0,0.5,0.0,2.0,2.0,509.3871129997751,2.0,1.0,phase_1,,,,,,,,,,,,,magenta,cross
654.0,3.0,2.0,0.0,2.0,2.0,848.3710199998313,2.0,1.0,phase_1,,,,,,,,,,,,,green,square
320.0,2.0,1.0,0.0,1.0,1.0,385.8569980002357,2.0,1.0,phase_1,,,,,,,,,,,,,white,I
154.0,5.0,0.5,1.0,2.0,2.0,310.5983000000378,2.0,1.0,phase_1,,,,,,,,,,,,,blue,flipped triangle
1299.0,4.0,4.0,0.0,4.0,4.0,433.3745560002171,2.0,1.0,phase_1,,,,,,,,,,,,,orange,circle
332.0,6.0,1.0,1.0,3.0,3.0,470.8255139998982,2.0,1.0,phase_1,,,,,,,,,,,,,yellow,hexagon
148.0,5.0,0.5,1.0,2.0,2.0,358.5034170000654,2.0,1.0,phase_1,,,,,,,,,,,,,blue,flipped triangle
1290.0,8.0,4.0,1.0,3.0,3.0,432.8174059996854,2.0,1.0,phase_1,,,,,,,,,,,,,cyan,diamond
0.0,8.0,0.0,1.0,3.0,3.0,386.878839000019,2.0,1.0,phase_1,,,,,,,,,,,,,cyan,diamond
0.0,7.0,0.0,1.0,1.0,1.0,584.2423960002634,2.0,1.0,phase_1,,,,,,,,,,,,,gray,triangle
156.0,1.0,0.5,0.0,3.0,3.0,432.2916539999824,2.0,1.0,phase_1,,,,,,,,,,,,,magenta,cross
1307.0,4.0,4.0,0.0,2.0,2.0,472.2821049999766,2.0,1.0,phase_1,,,,,,,,,,,,,orange,circle
647.0,7.0,2.0,1.0,2.0,2.0,443.5406320003494,2.0,1.0,phase_1,,,,,,,,,,,,,gray,triangle
161.0,5.0,0.5,1.0,3.0,3.0,385.7800770001631,2.0,1.0,phase_1,,,,,,,,,,,,,blue,flipped triangle
0.0,8.0,0.0,1.0,2.0,2.0,375.7763829999021,2.0,1.0,phase_1,,,,,,,,,,,,,cyan,diamond
171.0,5.0,0.5,1.0,1.0,1.0,481.4901469999313,2.0,1.0,phase_1,,,,,,,,,,,,,blue,flipped triangle
646.0,3.0,2.0,0.0,3.0,3.0,479.4304809997811,2.0,1.0,phase_1,,,,,,,,,,,,,green,square
1319.0,4.0,4.0,0.0,3.0,3.0,441.4465760000894,2.0,1.0,phase_1,,,,,,,,,,,,,orange,circle
670.0,3.0,2.0,0.0,4.0,4.0,490.4315139997379,2.0,1.0,phase_1,,,,,,,,,,,,,green,square
640.0,3.0,2.0,0.0,1.0,1.0,508.70541099993716,2.0,1.0,phase_1,,,,,,,,,,,,,green,square
311.0,6.0,1.0,1.0,3.0,3.0,378.8208060000215,2.0,1.0,phase_1,,,,,,,,,,,,,yellow,hexagon
322.0,2.0,1.0,0.0,2.0,2.0,622.4181359998511,2.0,1.0,phase_1,,,,,,,,,,,,,white,I
140.0,5.0,0.5,1.0,1.0,1.0,490.5841950003378,2.0,1.0,phase_1,,,,,,,,,,,,,blue,flipped triangle
0.0,4.0,0.0,0.0,3.0,3.0,387.0400040000277,2.0,1.0,phase_1,,,,,,,,,,,,,orange,circle
638.0,7.0,2.0,1.0,4.0,4.0,540.4086990001815,2.0,1.0,phase_1,,,,,,,,,,,,,gray,triangle
1320.0,4.0,4.0,0.0,4.0,4.0,528.4672400002819,2.0,1.0,phase_1,,,,,,,,,,,,,orange,circle
658.0,3.0,2.0,0.0,4.0,4.0,378.1991500000004,2.0,1.0,phase_1,,,,,,,,,,,,,green,square
0.0,2.0,0.0,0.0,1.0,1.0,532.5067589997161,2.0,1.0,phase_1,,,,,,,,,,,,,white,I
666.0,3.0,2.0,0.0,4.0,4.0,408.5748460001923,2.0,1.0,phase_1,,,,,,,,,,,,,green,square
311.0,2.0,1.0,0.0,1.0,1.0,443.7102480001158,2.0,1.0,phase_1,,,,,,,,,,,,,white,I
340.0,6.0,1.0,1.0,1.0,1.0,480.2321610000035,2.0,1.0,phase_1,,,,,,,,,,,,,yellow,hexagon
627.0,7.0,2.0,1.0,4.0,4.0,424.2210279999199,2.0,1.0,phase_1,,,,,,,,,,,,,gray,triangle
1281.0,4.0,4.0,0.0,3.0,3.0,462.2062589996858,2.0,1.0,phase_1,,,,,,,,,,,,,orange,circle
646.0,7.0,2.0,1.0,1.0,1.0,375.8011370000531,2.0,1.0,phase_1,,,,,,,,,,,,,gray,triangle
0.0,6.0,0.0,1.0,3.0,3.0,431.800419999945,2.0,1.0,phase_1,,,,,,,,,,,,,yellow,hexagon
654.0,7.0,2.0,1.0,2.0,2.0,544.9923460000718,2.0,1.0,phase_1,,,,,,,,,,,,,gray,triangle
1322.0,4.0,4.0,0.0,2.0,2.0,478.9309799998591,2.0,1.0,phase_1,,,,,,,,,,,,,orange,circle
319.0,6.0,1.0,1.0,3.0,3.0,442.5828550001824,2.0,1.0,phase_1,,,,,,,,,,,,,yellow,hexagon
308.0,6.0,1.0,1.0,2.0,2.0,479.540461000397,2.0,1.0,phase_1,,,,,,,,,,,,,yellow,hexagon
325.0,2.0,1.0,0.0,4.0,4.0,412.6365920001262,2.0,1.0,phase_1,,,,,,,,,,,,,white,I
309.0,2.0,1.0,0.0,4.0,4.0,434.7196990001976,3.0,1.0,phase_1,,,,,,,,,,,,,white,I
1289.0,8.0,4.0,1.0,3.0,3.0,472.8635290002785,3.0,1.0,phase_1,,,,,,,,,,,,,cyan,diamond
178.0,5.0,0.5,1.0,4.0,4.0,359.3367089997628,3.0,1.0,phase_1,,,,,,,,,,,,,blue,flipped triangle
1315.0,4.0,4.0,0.0,4.0,4.0,397.9247789998226,3.0,1.0,phase_1,,,,,,,,,,,,,orange,circle
150.0,1.0,0.5,0.0,3.0,3.0,312.2943889998169,3.0,1.0,phase_1,,,,,,,,,,,,,magenta,cross
171.0,1.0,0.5,0.0,1.0,1.0,472.0732639998459,3.0,1.0,phase_1,,,,,,,,,,,,,magenta,cross
312.0,6.0,1.0,1.0,2.0,2.0,340.9789010001987,3.0,1.0,phase_1,,,,,,,,,,,,,yellow,hexagon
645.0,7.0,2.0,1.0,1.0,1.0,519.92062599993,3.0,1.0,phase_1,,,,,,,,,,,,,gray,triangle
0.0,6.0,0.0,1.0,2.0,2.0,567.7484329999061,3.0,1.0,phase_1,,,,,,,,,,,,,yellow,hexagon
168.0,5.0,0.5,1.0,3.0,3.0,377.9098309996698,3.0,1.0,phase_1,,,,,,,,,,,,,blue,flipped triangle
0.0,4.0,0.0,0.0,1.0,1.0,263.4548030000587,3.0,1.0,phase_1,,,,,,,,,,,,,orange,circle
0.0,2.0,0.0,0.0,3.0,3.0,435.4350940002405,3.0,1.0,phase_1,,,,,,,,,,,,,white,I
1301.0,8.0,4.0,1.0,1.0,1.0,558.4057340001891,3.0,1.0,phase_1,,,,,,,,,,,,,cyan,diamond
0.0,2.0,0.0,0.0,4.0,4.0,367.274775000169,3.0,1.0,phase_1,,,,,,,,,,,,,white,I
0.0,3.0,0.0,0.0,4.0,4.0,443.5970029999225,3.0,1.0,phase_1,,,,,,,,,,,,,green,square
333.0,2.0,1.0,0.0,2.0,2.0,537.8094249999776,3.0,1.0,phase_1,,,,,,,,,,,,,white,I
0.0,5.0,0.0,1.0,3.0,3.0,370.9855909996804,3.0,1.0,phase_1,,,,,,,,,,,,,blue,flipped triangle
151.0,1.0,0.5,0.0,2.0,2.0,368.690654999682,3.0,1.0,phase_1,,,,,,,,,,,,,magenta,cross
332.0,6.0,1.0,1.0,1.0,1.0,340.5096770002274,3.0,1.0,phase_1,,,,,,,,,,,,,yellow,hexagon
0.0,6.0,0.0,1.0,3.0,3.0,452.9726300002039,3.0,1.0,phase_1,,,,,,,,,,,,,yellow,hexagon
1281.0,4.0,4.0,0.0,1.0,1.0,492.3732859997471,3.0,1.0,phase_1,,,,,,,,,,,,,orange,circle
346.0,2.0,1.0,0.0,3.0,3.0,387.3663210001723,3.0,1.0,phase_1,,,,,,,,,,,,,white,I
143.0,5.0,0.5,1.0,2.0,2.0,396.9493149998016,3.0,1.0,phase_1,,,,,,,,,,,,,blue,flipped triangle
180.0,1.0,0.5,0.0,4.0,4.0,387.7979439998853,3.0,1.0,phase_1,,,,,,,,,,,,,magenta,cross
0.0,7.0,0.0,1.0,4.0,4.0,567.9887780001991,3.0,1.0,phase_1,,,,,,,,,,,,,gray,triangle
313.0,6.0,1.0,1.0,4.0,4.0,341.054910999901,3.0,1.0,phase_1,,,,,,,,,,,,,yellow,hexagon
1325.0,8.0,4.0,1.0,4.0,4.0,361.4310110001497,3.0,1.0,phase_1,,,,,,,,,,,,,cyan,diamond
0.0,1.0,0.0,0.0,3.0,3.0,518.7938760000179,3.0,1.0,phase_1,,,,,,,,,,,,,magenta,cross
1320.0,8.0,4.0,1.0,4.0,4.0,321.0173479997138,3.0,1.0,phase_1,,,,,,,,,,,,,cyan,diamond
1318.0,8.0,4.0,1.0,1.0,1.0,434.2628539998259,3.0,1.0,phase_1,,,,,,,,,,,,,cyan,diamond
662.0,7.0,2.0,1.0,4.0,4.0,339.5686069998191,3.0,1.0,phase_1,,,,,,,,,,,,,gray,triangle
0.0,8.0,0.0,1.0,3.0,3.0,330.98726700018227,3.0,1.0,phase_1,,,,,,,,,,,,,cyan,diamond
1303.0,4.0,4.0,0.0,4.0,4.0,313.7873000000581,3.0,1.0,phase_1,,,,,,,,,,,,,orange,circle
655.0,3.0,2.0,0.0,3.0,3.0,349.9388750001344,3.0,1.0,phase_1,,,,,,,,,,,,,green,square
661.0,7.0,2.0,1.0,3.0,3.0,415.0039070000275,3.0,1.0,phase_1,,,,,,,,,,,,,gray,triangle
666.0,7.0,2.0,1.0,3.0,3.0,387.7153849998649,3.0,1.0,phase_1,,,,,,,,,,,,,gray,triangle
140.0,1.0,0.5,0.0,1.0,1.0,379.3795579999823,3.0,1.0,phase_1,,,,,,,,,,,,,magenta,cross
634.0,7.0,2.0,1.0,3.0,3.0,366.9360670000969,3.0,1.0,phase_1,,,,,,,,,,,,,gray,triangle
169.0,1.0,0.5,0.0,3.0,3.0,358.4205590000238,3.0,1.0,phase_1,,,,,,,,,,,,,magenta,cross
670.0,3.0,2.0,0.0,2.0,2.0,549.452348000159,3.0,1.0,phase_1,,,,,,,,,,,,,green,square
630.0,7.0,2.0,1.0,4.0,4.0,406.0858170000756,3.0,1.0,phase_1,,,,,,,,,,,,,gray,triangle
1302.0,4.0,4.0,0.0,1.0,1.0,388.5692579997339,3.0,1.0,phase_1,,,,,,,,,,,,,orange,circle
1285.0,8.0,4.0,1.0,1.0,1.0,462.6590630000464,3.0,1.0,phase_1,,,,,,,,,,,,,cyan,diamond
1284.0,8.0,4.0,1.0,1.0,1.0,398.0168630000662,3.0,1.0,phase_1,,,,,,,,,,,,,cyan,diamond
665.0,7.0,2.0,1.0,2.0,2.0,386.8660359999012,3.0,1.0,phase_1,,,,,,,,,,,,,gray,triangle
0.0,2.0,0.0,0.0,4.0,4.0,338.9274329997533,3.0,1.0,phase_1,,,,,,,,,,,,,white,I
667.0,3.0,2.0,0.0,2.0,2.0,493.879040000138,3.0,1.0,phase_1,,,,,,,,,,,,,green,square
187.0,1.0,0.5,0.0,3.0,3.0,415.6886170003417,3.0,1.0,phase_1,,,,,,,,,,,,,magenta,cross
1281.0,8.0,4.0,1.0,1.0,1.0,360.798874000011,3.0,1.0,phase_1,,,,,,,,,,,,,cyan,diamond
667.0,7.0,2.0,1.0,4.0,4.0,323.9762799998971,3.0,1.0,phase_1,,,,,,,,,,,,,gray,triangle
337.0,6.0,1.0,1.0,3.0,3.0,330.0634709999031,3.0,1.0,phase_1,,,,,,,,,,,,,yellow,hexagon
0.0,1.0,0.0,0.0,4.0,4.0,378.2861070003491,3.0,1.0,phase_1,,,,,,,,,,,,,magenta,cross
1298.0,8.0,4.0,1.0,4.0,4.0,342.1705129999282,3.0,1.0,phase_1,,,,,,,,,,,,,cyan,diamond
169.0,5.0,0.5,1.0,1.0,1.0,351.3539179998588,3.0,1.0,phase_1,,,,,,,,,,,,,blue,flipped triangle
658.0,7.0,2.0,1.0,4.0,4.0,303.9827210000112,3.0,1.0,phase_1,,,,,,,,,,,,,gray,triangle
1283.0,8.0,4.0,1.0,2.0,2.0,322.3320130000502,3.0,1.0,phase_1,,,,,,,,,,,,,cyan,diamond
671.0,3.0,2.0,0.0,1.0,1.0,360.9184249999089,3.0,1.0,phase_1,,,,,,,,,,,,,green,square
1322.0,8.0,4.0,1.0,2.0,2.0,329.8965979997774,3.0,1.0,phase_1,,,,,,,,,,,,,cyan,diamond
161.0,1.0,0.5,0.0,1.0,1.0,359.7788799997943,3.0,1.0,phase_1,,,,,,,,,,,,,magenta,cross
0.0,1.0,0.0,0.0,3.0,3.0,377.3903350002001,3.0,1.0,phase_1,,,,,,,,,,,,,magenta,cross
1275.0,4.0,4.0,0.0,4.0,4.0,368.9522750000833,3.0,1.0,phase_1,,,,,,,,,,,,,orange,circle
0.0,1.0,0.0,0.0,1.0,1.0,348.2290490001105,3.0,1.0,phase_1,,,,,,,,,,,,,magenta,cross
0.0,5.0,0.0,1.0,3.0,3.0,312.1084879999216,3.0,1.0,phase_1,,,,,,,,,,,,,blue,flipped triangle
142.0,1.0,0.5,0.0,2.0,2.0,348.6208900003475,3.0,1.0,phase_1,,,,,,,,,,,,,magenta,cross
0.0,2.0,0.0,0.0,1.0,1.0,339.2354119996525,3.0,1.0,phase_1,,,,,,,,,,,,,white,I
0.0,4.0,0.0,0.0,1.0,1.0,320.9576970002672,3.0,1.0,phase_1,,,,,,,,,,,,,orange,circle
184.0,1.0,0.5,0.0,2.0,2.0,446.1955510000734,3.0,1.0,phase_1,,,,,,,,,,,,,magenta,cross
347.0,2.0,1.0,0.0,2.0,2.0,313.0367670000851,3.0,1.0,phase_1,,,,,,,,,,,,,white,I
0.0,8.0,0.0,1.0,2.0,2.0,339.8813979997612,3.0,1.0,phase_1,,,,,,,,,,,,,cyan,diamond
346.0,6.0,1.0,1.0,1.0,1.0,321.8589929997506,3.0,1.0,phase_1,,,,,,,,,,,,,yellow,hexagon
1290.0,4.0,4.0,0.0,4.0,4.0,311.2361660000715,3.0,1.0,phase_1,,,,,,,,,,,,,orange,circle
160.0,1.0,0.5,0.0,3.0,3.0,453.611427999931,3.0,1.0,phase_1,,,,,,,,,,,,,magenta,cross
635.0,7.0,2.0,1.0,2.0,2.0,292.0699740002419,3.0,1.0,phase_1,,,,,,,,,,,,,gray,triangle
1321.0,4.0,4.0,0.0,2.0,2.0,311.61072399982,3.0,1.0,phase_1,,,,,,,,,,,,,orange,circle
332.0,2.0,1.0,0.0,4.0,4.0,387.8737229997568,3.0,1.0,phase_1,,,,,,,,,,,,,white,I
656.0,3.0,2.0,0.0,1.0,1.0,491.3277350001408,3.0,1.0,phase_1,,,,,,,,,,,,,green,square
175.0,1.0,0.5,0.0,4.0,4.0,378.9898570003061,3.0,1.0,phase_1,,,,,,,,,,,,,magenta,cross
341.0,2.0,1.0,0.0,4.0,4.0,359.9674189999859,3.0,1.0,phase_1,,,,,,,,,,,,,white,I
187.0,5.0,0.5,1.0,2.0,2.0,350.0816869996015,3.0,2.0,phase_1,,,,,,,,,,,,,blue,flipped triangle
319.0,2.0,1.0,0.0,3.0,3.0,489.6167199999581,3.0,1.0,phase_1,,,,,,,,,,,,,white,I
627.0,7.0,2.0,1.0,2.0,2.0,424.8609930000384,3.0,1.0,phase_1,,,,,,,,,,,,,gray,triangle
673.0,7.0,2.0,1.0,3.0,3.0,442.9038199996284,3.0,1.0,phase_1,,,,,,,,,,,,,gray,triangle
652.0,3.0,2.0,0.0,2.0,2.0,384.9858670000685,3.0,1.0,phase_1,,,,,,,,,,,,,green,square
1281.0,8.0,4.0,1.0,2.0,2.0,398.7011089998304,3.0,1.0,phase_1,,,,,,,,,,,,,cyan,diamond
0.0,5.0,0.0,1.0,1.0,1.0,358.6051719998977,3.0,1.0,phase_1,,,,,,,,,,,,,blue,flipped triangle
1299.0,8.0,4.0,1.0,3.0,3.0,379.2543930003376,3.0,1.0,phase_1,,,,,,,,,,,,,cyan,diamond
0.0,4.0,0.0,0.0,3.0,3.0,377.0570100000441,3.0,1.0,phase_1,,,,,,,,,,,,,orange,circle
140.0,5.0,0.5,1.0,3.0,3.0,396.1253610000312,3.0,1.0,phase_1,,,,,,,,,,,,,blue,flipped triangle
1294.0,8.0,4.0,1.0,3.0,3.0,368.9951249998557,3.0,2.0,phase_1,,,,,,,,,,,,,cyan,diamond
665.0,3.0,2.0,0.0,2.0,2.0,550.2678650000234,3.0,1.0,phase_1,,,,,,,,,,,,,green,square
666.0,3.0,2.0,0.0,1.0,1.0,501.6873660001693,3.0,1.0,phase_1,,,,,,,,,,,,,green,square
148.0,1.0,0.5,0.0,3.0,3.0,386.7152789998727,3.0,1.0,phase_1,,,,,,,,,,,,,magenta,cross
1288.0,8.0,4.0,1.0,1.0,1.0,312.1078509998369,3.0,1.0,phase_1,,,,,,,,,,,,,cyan,diamond
301.0,2.0,1.0,0.0,4.0,4.0,340.8340269998007,3.0,1.0,phase_1,,,,,,,,,,,,,white,I
142.0,5.0,0.5,1.0,3.0,3.0,320.7739060003405,3.0,1.0,phase_1,,,,,,,,,,,,,blue,flipped triangle
0.0,5.0,0.0,1.0,2.0,2.0,443.860088999827,3.0,1.0,phase_1,,,,,,,,,,,,,blue,flipped triangle
0.0,2.0,0.0,0.0,1.0,1.0,348.2621240000298,3.0,1.0,phase_1,,,,,,,,,,,,,white,I
336.0,2.0,1.0,0.0,3.0,3.0,330.0102600001082,3.0,1.0,phase_1,,,,,,,,,,,,,white,I
1302.0,8.0,4.0,1.0,4.0,4.0,472.5895870001295,3.0,1.0,phase_1,,,,,,,,,,,,,cyan,diamond
651.0,3.0,2.0,0.0,4.0,4.0,417.0674749998397,3.0,1.0,phase_1,,,,,,,,,,,,,green,square
0.0,7.0,0.0,1.0,1.0,1.0,414.9276640000607,4.0,1.0,phase_1,,,,,,,,,,,,,gray,triangle
0.0,7.0,0.0,1.0,3.0,3.0,397.3159480001413,4.0,1.0,phase_1,,,,,,,,,,,,,gray,triangle
319.0,6.0,1.0,1.0,1.0,1.0,329.7504619999927,4.0,1.0,phase_1,,,,,,,,,,,,,yellow,hexagon
150.0,5.0,0.5,1.0,2.0,2.0,670.3048250001302,4.0,2.0,phase_1,,,,,,,,,,,,,blue,flipped triangle
312.0,2.0,1.0,0.0,1.0,1.0,529.311190000044,4.0,1.0,phase_1,,,,,,,,,,,,,white,I
319.0,2.0,1.0,0.0,1.0,1.0,442.3754180002106,4.0,1.0,phase_1,,,,,,,,,,,,,white,I
0.0,2.0,0.0,0.0,3.0,3.0,507.53589299984014,4.0,1.0,phase_1,,,,,,,,,,,,,white,I
650.0,3.0,2.0,0.0,2.0,2.0,585.2138650002416,4.0,1.0,phase_1,,,,,,,,,,,,,green,square
666.0,7.0,2.0,1.0,3.0,3.0,489.5440089999283,4.0,1.0,phase_1,,,,,,,,,,,,,gray,triangle
0.0,8.0,0.0,1.0,3.0,3.0,387.0895749996634,4.0,1.0,phase_1,,,,,,,,,,,,,cyan,diamond
311.0,2.0,1.0,0.0,1.0,1.0,600.7298479999008,4.0,1.0,phase_1,,,,,,,,,,,,,white,I
1289.0,4.0,4.0,0.0,4.0,4.0,414.1706890000023,4.0,1.0,phase_1,,,,,,,,,,,,,orange,circle
0.0,3.0,0.0,0.0,3.0,3.0,331.9852009999522,4.0,1.0,phase_1,,,,,,,,,,,,,green,square
1294.0,4.0,4.0,0.0,3.0,3.0,348.0849000002308,4.0,1.0,phase_1,,,,,,,,,,,,,orange,circle
0.0,6.0,0.0,1.0,1.0,1.0,377.2070380000514,4.0,1.0,phase_1,,,,,,,,,,,,,yellow,hexagon
344.0,6.0,1.0,1.0,4.0,4.0,461.4264080000794,4.0,1.0,phase_1,,,,,,,,,,,,,yellow,hexagon
1309.0,4.0,4.0,0.0,3.0,3.0,357.5499540002056,4.0,1.0,phase_1,,,,,,,,,,,,,orange,circle
0.0,8.0,0.0,1.0,3.0,3.0,338.7673669999458,4.0,1.0,phase_1,,,,,,,,,,,,,cyan,diamond
148.0,5.0,0.5,1.0,4.0,4.0,432.1733519996087,4.0,1.0,phase_1,,,,,,,,,,,,,blue,flipped triangle
307.0,6.0,1.0,1.0,4.0,4.0,396.8871039996884,4.0,1.0,phase_1,,,,,,,,,,,,,yellow,hexagon
0.0,1.0,0.0,0.0,2.0,2.0,461.5207050001118,4.0,1.0,phase_1,,,,,,,,,,,,,magenta,cross
1276.0,4.0,4.0,0.0,4.0,4.0,339.3902329999037,4.0,1.0,phase_1,,,,,,,,,,,,,orange,circle
1277.0,8.0,4.0,1.0,2.0,2.0,433.2419889997254,4.0,1.0,phase_1,,,,,,,,,,,,,cyan,diamond
310.0,2.0,1.0,0.0,4.0,4.0,332.0541190000767,4.0,1.0,phase_1,,,,,,,,,,,,,white,I
175.0,1.0,0.5,0.0,1.0,1.0,650.9281909998208,4.0,1.0,phase_1,,,,,,,,,,,,,magenta,cross
0.0,5.0,0.0,1.0,3.0,3.0,367.9560380001021,4.0,1.0,phase_1,,,,,,,,,,,,,blue,flipped triangle
325.0,6.0,1.0,1.0,4.0,4.0,340.7779600001959,4.0,1.0,phase_1,,,,,,,,,,,,,yellow,hexagon
168.0,1.0,0.5,0.0,1.0,1.0,340.1949059998514,4.0,1.0,phase_1,,,,,,,,,,,,,magenta,cross
647.0,3.0,2.0,0.0,1.0,1.0,397.12065599997,4.0,1.0,phase_1,,,,,,,,,,,,,green,square
655.0,7.0,2.0,1.0,2.0,2.0,799.2084229999818,4.0,1.0,phase_1,,,,,,,,,,,,,gray,triangle
645.0,7.0,2.0,1.0,1.0,1.0,414.9340809999557,4.0,1.0,phase_1,,,,,,,,,,,,,gray,triangle
651.0,3.0,2.0,0.0,2.0,2.0,339.3648049996045,4.0,1.0,phase_1,,,,,,,,,,,,,green,square
1296.0,8.0,4.0,1.0,4.0,4.0,358.6407920001875,4.0,1.0,phase_1,,,,,,,,,,,,,cyan,diamond
673.0,3.0,2.0,0.0,1.0,1.0,357.6886460000423,4.0,1.0,phase_1,,,,,,,,,,,,,green,square
1305.0,8.0,4.0,1.0,3.0,3.0,348.4766240003409,4.0,1.0,phase_1,,,,,,,,,,,,,cyan,diamond
341.0,2.0,1.0,0.0,3.0,3.0,415.4407220003122,4.0,1.0,phase_1,,,,,,,,,,,,,white,I
1309.0,8.0,4.0,1.0,2.0,2.0,331.1234820002937,4.0,1.0,phase_1,,,,,,,,,,,,,cyan,diamond
158.0,5.0,0.5,1.0,4.0,4.0,321.4439179996589,4.0,1.0,phase_1,,,,,,,,,,,,,blue,flipped triangle
668.0,7.0,2.0,1.0,4.0,4.0,415.3940070000317,4.0,1.0,phase_1,,,,,,,,,,,,,gray,triangle
0.0,3.0,0.0,0.0,2.0,2.0,367.4778509998759,4.0,1.0,phase_1,,,,,,,,,,,,,green,square
642.0,7.0,2.0,1.0,4.0,4.0,472.3465150000265,4.0,1.0,phase_1,,,,,,,,,,,,,gray,triangle
336.0,6.0,1.0,1.0,4.0,4.0,377.3886369999673,4.0,1.0,phase_1,,,,,,,,,,,,,yellow,hexagon
0.0,3.0,0.0,0.0,2.0,2.0,436.0322489997088,4.0,1.0,phase_1,,,,,,,,,,,,,green,square
0.0,5.0,0.0,1.0,3.0,3.0,452.3805349999747,4.0,1.0,phase_1,,,,,,,,,,,,,blue,flipped triangle
311.0,6.0,1.0,1.0,2.0,2.0,377.3316339998018,4.0,1.0,phase_1,,,,,,,,,,,,,yellow,hexagon
0.0,6.0,0.0,1.0,3.0,3.0,432.478618999994,4.0,1.0,phase_1,,,,,,,,,,,,,yellow,hexagon
0.0,8.0,0.0,1.0,3.0,3.0,434.2796260002615,4.0,1.0,phase_1,,,,,,,,,,,,,cyan,diamond
140.0,5.0,0.5,1.0,1.0,1.0,397.6488320004137,4.0,1.0,phase_1,,,,,,,,,,,,,blue,flipped triangle
670.0,7.0,2.0,1.0,4.0,4.0,348.2500539994362,4.0,1.0,phase_1,,,,,,,,,,,,,gray,triangle
325.0,6.0,1.0,1.0,2.0,2.0,414.3999609996172,4.0,1.0,phase_1,,,,,,,,,,,,,yellow,hexagon
175.0,5.0,0.5,1.0,4.0,4.0,309.9230440002429,4.0,1.0,phase_1,,,,,,,,,,,,,blue,flipped triangle
180.0,5.0,0.5,1.0,3.0,3.0,536.0350210003162,4.0,1.0,phase_1,,,,,,,,,,,,,blue,flipped triangle
176.0,1.0,0.5,0.0,1.0,1.0,342.0914070002254,4.0,1.0,phase_1,,,,,,,,,,,,,magenta,cross
303.0,6.0,1.0,1.0,1.0,1.0,396.3500680001743,4.0,1.0,phase_1,,,,,,,,,,,,,yellow,hexagon
668.0,3.0,2.0,0.0,3.0,3.0,565.9630659993127,4.0,1.0,phase_1,,,,,,,,,,,,,green,square
638.0,3.0,2.0,0.0,3.0,3.0,378.3840760006569,4.0,1.0,phase_1,,,,,,,,,,,,,green,square
148.0,1.0,0.5,0.0,4.0,4.0,433.6104710000654,4.0,1.0,phase_1,,,,,,,,,,,,,magenta,cross
661.0,3.0,2.0,0.0,4.0,4.0,387.5180989998625,4.0,1.0,phase_1,,,,,,,,,,,,,green,square
182.0,1.0,0.5,0.0,4.0,4.0,415.6442399998923,4.0,1.0,phase_1,,,,,,,,,,,,,magenta,cross
1322.0,8.0,4.0,1.0,4.0,4.0,433.2189050001034,4.0,1.0,phase_1,,,,,,,,,,,,,cyan,diamond
332.0,2.0,1.0,0.0,2.0,2.0,338.7800559994502,4.0,1.0,phase_1,,,,,,,,,,,,,white,I
662.0,3.0,2.0,0.0,3.0,3.0,385.9922629999346,4.0,1.0,phase_1,,,,,,,,,,,,,green,square
1311.0,8.0,4.0,1.0,3.0,3.0,343.5143410006276,4.0,1.0,phase_1,,,,,,,,,,,,,cyan,diamond
342.0,2.0,1.0,0.0,4.0,4.0,330.6628930004081,4.0,1.0,phase_1,,,,,,,,,,,,,white,I
140.0,1.0,0.5,0.0,4.0,4.0,359.8364730005414,4.0,1.0,phase_1,,,,,,,,,,,,,magenta,cross
0.0,6.0,0.0,1.0,3.0,3.0,353.6564050000379,4.0,1.0,phase_1,,,,,,,,,,,,,yellow,hexagon
651.0,7.0,2.0,1.0,3.0,3.0,367.536951999682,4.0,1.0,phase_1,,,,,,,,,,,,,gray,triangle
1314.0,4.0,4.0,0.0,1.0,1.0,442.0712880000792,4.0,1.0,phase_1,,,,,,,,,,,,,orange,circle
176.0,5.0,0.5,1.0,4.0,4.0,311.1230380000052,4.0,1.0,phase_1,,,,,,,,,,,,,blue,flipped triangle
1309.0,4.0,4.0,0.0,1.0,1.0,376.1593919998631,4.0,1.0,phase_1,,,,,,,,,,,,,orange,circle
0.0,1.0,0.0,0.0,3.0,3.0,358.5008410000228,4.0,1.0,phase_1,,,,,,,,,,,,,magenta,cross
137.0,5.0,0.5,1.0,4.0,4.0,408.0711799997516,4.0,1.0,phase_1,,,,,,,,,,,,,blue,flipped triangle
650.0,7.0,2.0,1.0,3.0,3.0,415.1520279992837,4.0,1.0,phase_1,,,,,,,,,,,,,gray,triangle
150.0,5.0,0.5,1.0,3.0,3.0,396.6407320003782,4.0,1.0,phase_1,,,,,,,,,,,,,blue,flipped triangle
0.0,2.0,0.0,0.0,2.0,2.0,404.3180170001506,4.0,1.0,phase_1,,,,,,,,,,,,,white,I
337.0,6.0,1.0,1.0,3.0,3.0,329.9365009997927,4.0,1.0,phase_1,,,,,,,,,,,,,yellow,hexagon
658.0,7.0,2.0,1.0,1.0,1.0,376.4868970001771,4.0,1.0,phase_1,,,,,,,,,,,,,gray,triangle
1325.0,4.0,4.0,0.0,2.0,2.0,328.9592999999513,4.0,1.0,phase_1,,,,,,,,,,,,,orange,circle
1305.0,4.0,4.0,0.0,1.0,1.0,330.4929549994995,4.0,1.0,phase_1,,,,,,,,,,,,,orange,circle
634.0,7.0,2.0,1.0,1.0,1.0,481.2253509999209,4.0,1.0,phase_1,,,,,,,,,,,,,gray,triangle
184.0,5.0,0.5,1.0,3.0,3.0,366.5669689999049,4.0,1.0,phase_1,,,,,,,,,,,,,blue,flipped triangle
340.0,2.0,1.0,0.0,2.0,2.0,788.9674959997137,4.0,1.0,phase_1,,,,,,,,,,,,,white,I
651.0,7.0,2.0,1.0,1.0,1.0,347.9531920002046,4.0,1.0,phase_1,,,,,,,,,,,,,gray,triangle
1282.0,4.0,4.0,0.0,1.0,1.0,368.144447999839,4.0,1.0,phase_1,,,,,,,,,,,,,orange,circle
1304.0,8.0,4.0,1.0,1.0,1.0,331.4104650007721,4.0,1.0,phase_1,,,,,,,,,,,,,cyan,diamond
1294.0,4.0,4.0,0.0,4.0,4.0,442.5193329998365,4.0,1.0,phase_1,,,,,,,,,,,,,orange,circle
0.0,6.0,0.0,1.0,2.0,2.0,583.000321000327,4.0,1.0,phase_1,,,,,,,,,,,,,yellow,hexagon
155.0,1.0,0.5,0.0,1.0,1.0,329.9495960000058,4.0,1.0,phase_1,,,,,,,,,,,,,magenta,cross
322.0,2.0,1.0,0.0,1.0,1.0,368.4537609997278,4.0,1.0,phase_1,,,,,,,,,,,,,white,I
307.0,2.0,1.0,0.0,1.0,1.0,368.9410059996589,4.0,1.0,phase_1,,,,,,,,,,,,,white,I
1306.0,8.0,4.0,1.0,2.0,2.0,367.7424070001507,4.0,1.0,phase_1,,,,,,,,,,,,,cyan,diamond
670.0,7.0,2.0,1.0,2.0,2.0,356.80518899971497,4.0,1.0,phase_1,,,,,,,,,,,,,gray,triangle
630.0,3.0,2.0,0.0,4.0,4.0,339.4229470004575,4.0,1.0,phase_1,,,,,,,,,,,,,green,square
0.0,8.0,0.0,1.0,4.0,4.0,376.6832310002428,4.0,1.0,phase_1,,,,,,,,,,,,,cyan,diamond
322.0,6.0,1.0,1.0,2.0,2.0,301.0012250006184,4.0,1.0,phase_1,,,,,,,,,,,,,yellow,hexagon
1306.0,4.0,4.0,0.0,3.0,3.0,423.6153209994882,4.0,1.0,phase_1,,,,,,,,,,,,,orange,circle
312.0,2.0,1.0,0.0,3.0,3.0,348.0938220000098,4.0,1.0,phase_1,,,,,,,,,,,,,white,I
183.0,1.0,0.5,0.0,3.0,3.0,319.8586519993114,4.0,1.0,phase_1,,,,,,,,,,,,,magenta,cross
627.0,3.0,2.0,0.0,4.0,4.0,329.0690209996683,4.0,1.0,phase_1,,,,,,,,,,,,,green,square
0.0,7.0,0.0,1.0,2.0,2.0,527.1890550002354,4.0,1.0,phase_1,,,,,,,,,,,,,gray,triangle
0.0,8.0,4.0,1.0,6.0,0.0,0.0,1.0,1.0,phase_2,stop,250.0,250.0,4.0,,,,,,,,,cyan,diamond
0.0,5.0,0.5,1.0,5.0,5.0,300.5225489996519,1.0,1.0,phase_2,stop,250.0,300.0,3.0,,,,,,,,,blue,flipped triangle
0.0,1.0,0.5,0.0,5.0,5.0,333.3282710000276,1.0,1.0,phase_2,go,200.0,300.0,1.0,,,,,,,,,magenta,cross
0.0,8.0,4.0,1.0,5.0,0.0,0.0,1.0,1.0,phase_2,stop,200.0,300.0,4.0,,,,,,,,,cyan,diamond
0.0,3.0,2.0,0.0,5.0,5.0,332.9461550001724,1.0,1.0,phase_2,go,250.0,300.0,1.0,,,,,,,,,green,square
0.0,6.0,1.0,1.0,6.0,0.0,0.0,1.0,1.0,phase_2,stop,250.0,300.0,4.0,,,,,,,,,yellow,hexagon
0.0,2.0,1.0,0.0,5.0,5.0,305.9880920000069,1.0,1.0,phase_2,go,250.0,350.0,1.0,,,,,,,,,white,I
0.0,7.0,2.0,1.0,5.0,5.0,323.3327580001059,1.0,1.0,phase_2,go,250.0,350.0,1.0,,,,,,,,,gray,triangle
0.0,8.0,4.0,1.0,6.0,0.0,0.0,1.0,1.0,phase_2,stop,250.0,350.0,4.0,,,,,,,,,cyan,diamond
0.0,7.0,2.0,1.0,5.0,5.0,303.4397089995764,1.0,1.0,phase_2,go,250.0,400.0,1.0,,,,,,,,,gray,triangle
0.0,7.0,2.0,1.0,5.0,0.0,0.0,1.0,1.0,phase_2,stop,250.0,400.0,4.0,,,,,,,,,gray,triangle
0.0,1.0,0.5,0.0,5.0,5.0,343.0811839998569,1.0,1.0,phase_2,go,300.0,400.0,1.0,,,,,,,,,magenta,cross
0.0,7.0,2.0,1.0,6.0,6.0,455.2076990003115,1.0,1.0,phase_2,go,300.0,400.0,1.0,,,,,,,,,gray,triangle
0.0,4.0,4.0,0.0,5.0,5.0,788.9854060003927,1.0,1.0,phase_2,go,300.0,400.0,1.0,,,,,,,,,orange,circle
0.0,6.0,1.0,1.0,6.0,6.0,535.2063170003021,1.0,1.0,phase_2,stop,300.0,400.0,3.0,,,,,,,,,yellow,hexagon
0.0,6.0,1.0,1.0,5.0,5.0,285.6759810001676,1.0,1.0,phase_2,stop,300.0,350.0,3.0,,,,,,,,,yellow,hexagon
0.0,4.0,4.0,0.0,6.0,6.0,610.6893779997336,1.0,1.0,phase_2,go,250.0,350.0,1.0,,,,,,,,,orange,circle
0.0,3.0,2.0,0.0,5.0,5.0,837.2450510005365,1.0,1.0,phase_2,go,250.0,350.0,1.0,,,,,,,,,green,square
0.0,4.0,4.0,0.0,5.0,5.0,1007.3921539997173,1.0,1.0,phase_2,go,250.0,350.0,1.0,,,,,,,,,orange,circle
0.0,1.0,0.5,0.0,5.0,5.0,825.5492999996932,1.0,1.0,phase_2,go,250.0,350.0,1.0,,,,,,,,,magenta,cross
0.0,2.0,1.0,0.0,6.0,6.0,646.8656280003415,1.0,1.0,phase_2,go,250.0,350.0,1.0,,,,,,,,,white,I
0.0,4.0,4.0,0.0,6.0,6.0,552.3396549997415,1.0,1.0,phase_2,go,250.0,350.0,1.0,,,,,,,,,orange,circle
0.0,3.0,2.0,0.0,6.0,6.0,362.0082580000598,1.0,1.0,phase_2,go,250.0,350.0,1.0,,,,,,,,,green,square
0.0,2.0,1.0,0.0,6.0,6.0,353.2764500005214,1.0,1.0,phase_2,go,250.0,350.0,1.0,,,,,,,,,white,I
0.0,7.0,2.0,1.0,6.0,0.0,0.0,1.0,1.0,phase_2,stop,250.0,350.0,4.0,,,,,,,,,gray,triangle
0.0,7.0,2.0,1.0,6.0,6.0,772.6558699996531,1.0,1.0,phase_2,go,250.0,400.0,1.0,,,,,,,,,gray,triangle
0.0,5.0,0.5,1.0,6.0,6.0,246.568632999697,1.0,1.0,phase_2,stop,250.0,400.0,3.0,,,,,,,,,blue,flipped triangle
0.0,2.0,1.0,0.0,6.0,6.0,276.1374789997717,1.0,1.0,phase_2,go,250.0,350.0,1.0,,,,,,,,,white,I
0.0,6.0,1.0,1.0,6.0,6.0,696.2248299996645,1.0,1.0,phase_2,go,250.0,350.0,1.0,,,,,,,,,yellow,hexagon
0.0,4.0,4.0,0.0,6.0,6.0,287.2127789996739,1.0,1.0,phase_2,go,250.0,350.0,1.0,,,,,,,,,orange,circle
0.0,3.0,2.0,0.0,6.0,6.0,750.6179379997775,1.0,1.0,phase_2,go,250.0,350.0,1.0,,,,,,,,,green,square
0.0,6.0,1.0,1.0,5.0,5.0,941.2581209999188,1.0,1.0,phase_2,go,250.0,350.0,1.0,,,,,,,,,yellow,hexagon
0.0,8.0,4.0,1.0,6.0,0.0,0.0,1.0,1.0,phase_2,stop,250.0,350.0,4.0,,,,,,,,,cyan,diamond
0.0,7.0,2.0,1.0,5.0,5.0,293.1840390001525,1.0,1.0,phase_2,stop,250.0,400.0,3.0,,,,,,,,,gray,triangle
0.0,4.0,4.0,0.0,5.0,5.0,322.8005979999579,1.0,1.0,phase_2,go,200.0,400.0,1.0,,,,,,,,,orange,circle
0.0,1.0,0.5,0.0,5.0,5.0,399.1309549992365,1.0,1.0,phase_2,go,200.0,400.0,1.0,,,,,,,,,magenta,cross
0.0,8.0,4.0,1.0,6.0,0.0,0.0,2.0,1.0,phase_2,stop,200.0,400.0,4.0,,,,,,,,,cyan,diamond
0.0,6.0,1.0,1.0,6.0,6.0,302.4634800003696,2.0,1.0,phase_2,stop,200.0,450.0,3.0,,,,,,,,,yellow,hexagon
0.0,8.0,4.0,1.0,6.0,6.0,322.5146730001142,2.0,1.0,phase_2,stop,200.0,400.0,3.0,,,,,,,,,cyan,diamond
0.0,3.0,2.0,0.0,5.0,5.0,275.3729080004632,2.0,1.0,phase_2,go,200.0,350.0,1.0,,,,,,,,,green,square
0.0,7.0,2.0,1.0,6.0,6.0,435.4173399997307,2.0,1.0,phase_2,go,200.0,350.0,1.0,,,,,,,,,gray,triangle
0.0,7.0,2.0,1.0,6.0,6.0,909.0140309999696,2.0,1.0,phase_2,go,200.0,350.0,1.0,,,,,,,,,gray,triangle
0.0,4.0,4.0,0.0,6.0,6.0,302.2676190003039,2.0,1.0,phase_2,go,200.0,350.0,1.0,,,,,,,,,orange,circle
0.0,1.0,0.5,0.0,6.0,6.0,284.5502669997586,2.0,1.0,phase_2,go,200.0,350.0,1.0,,,,,,,,,magenta,cross
0.0,3.0,2.0,0.0,5.0,5.0,274.4743200000812,2.0,1.0,phase_2,go,200.0,350.0,1.0,,,,,,,,,green,square
0.0,3.0,2.0,0.0,6.0,6.0,701.7104500000642,2.0,1.0,phase_2,go,200.0,350.0,1.0,,,,,,,,,green,square
0.0,7.0,2.0,1.0,5.0,0.0,0.0,2.0,1.0,phase_2,stop,200.0,350.0,4.0,,,,,,,,,gray,triangle
0.0,3.0,2.0,0.0,5.0,5.0,257.2414840005876,2.0,1.0,phase_2,go,250.0,350.0,1.0,,,,,,,,,green,square
0.0,6.0,1.0,1.0,5.0,5.0,284.4529399999373,2.0,1.0,phase_2,stop,250.0,350.0,3.0,,,,,,,,,yellow,hexagon
0.0,4.0,4.0,0.0,6.0,6.0,265.7320870002877,2.0,1.0,phase_2,go,200.0,350.0,1.0,,,,,,,,,orange,circle
0.0,3.0,2.0,0.0,6.0,6.0,294.349955999678,2.0,1.0,phase_2,go,200.0,350.0,1.0,,,,,,,,,green,square
0.0,5.0,0.5,1.0,6.0,6.0,588.1640899997365,2.0,1.0,phase_2,go,200.0,350.0,1.0,,,,,,,,,blue,flipped triangle
0.0,3.0,2.0,0.0,6.0,6.0,379.713487999652,2.0,1.0,phase_2,go,200.0,350.0,1.0,,,,,,,,,green,square
0.0,7.0,2.0,1.0,5.0,0.0,0.0,2.0,1.0,phase_2,stop,200.0,350.0,4.0,,,,,,,,,gray,triangle
0.0,5.0,0.5,1.0,6.0,6.0,265.6405569996423,2.0,1.0,phase_2,stop,250.0,350.0,3.0,,,,,,,,,blue,flipped triangle
0.0,3.0,2.0,0.0,6.0,6.0,293.4686859998692,2.0,1.0,phase_2,go,250.0,300.0,1.0,,,,,,,,,green,square
0.0,1.0,0.5,0.0,5.0,5.0,360.3413379996709,2.0,1.0,phase_2,go,250.0,300.0,1.0,,,,,,,,,magenta,cross
0.0,4.0,4.0,0.0,6.0,6.0,710.7225370000378,2.0,1.0,phase_2,go,250.0,300.0,1.0,,,,,,,,,orange,circle
0.0,6.0,1.0,1.0,6.0,6.0,369.1156770000816,2.0,1.0,phase_2,stop,250.0,300.0,3.0,,,,,,,,,yellow,hexagon
0.0,5.0,0.5,1.0,6.0,6.0,308.6579759992673,2.0,1.0,phase_2,stop,250.0,250.0,3.0,,,,,,,,,blue,flipped triangle
0.0,3.0,2.0,0.0,5.0,5.0,264.7306649996608,2.0,1.0,phase_2,go,250.0,200.0,1.0,,,,,,,,,green,square
0.0,1.0,0.5,0.0,6.0,6.0,312.609037000584,2.0,1.0,phase_2,go,250.0,200.0,1.0,,,,,,,,,magenta,cross
0.0,5.0,0.5,1.0,5.0,5.0,292.7913459998308,2.0,1.0,phase_2,stop,250.0,200.0,3.0,,,,,,,,,blue,flipped triangle
0.0,6.0,1.0,1.0,6.0,6.0,284.8112739993667,2.0,1.0,phase_2,go,200.0,200.0,1.0,,,,,,,,,yellow,hexagon
0.0,2.0,1.0,0.0,5.0,5.0,285.1807870001721,2.0,1.0,phase_2,go,200.0,200.0,1.0,,,,,,,,,white,I
0.0,4.0,4.0,0.0,5.0,5.0,370.0739530004284,2.0,1.0,phase_2,go,200.0,200.0,1.0,,,,,,,,,orange,circle
0.0,4.0,4.0,0.0,5.0,5.0,417.0670310004425,2.0,1.0,phase_2,go,200.0,200.0,1.0,,,,,,,,,orange,circle
0.0,4.0,4.0,0.0,6.0,6.0,275.0770829998146,2.0,1.0,phase_2,go,200.0,200.0,1.0,,,,,,,,,orange,circle
0.0,3.0,2.0,0.0,6.0,6.0,275.2691599998798,2.0,1.0,phase_2,go,200.0,200.0,1.0,,,,,,,,,green,square
0.0,7.0,2.0,1.0,6.0,6.0,276.8271260001711,2.0,1.0,phase_2,stop,200.0,200.0,3.0,,,,,,,,,gray,triangle
0.0,2.0,1.0,0.0,5.0,5.0,255.99552800031228,2.0,1.0,phase_2,go,200.0,150.0,1.0,,,,,,,,,white,I
0.0,4.0,4.0,0.0,6.0,6.0,256.0675869999613,2.0,1.0,phase_2,go,200.0,150.0,1.0,,,,,,,,,orange,circle
0.0,8.0,4.0,1.0,5.0,0.0,0.0,3.0,1.0,phase_2,stop,200.0,150.0,4.0,,,,,,,,,cyan,diamond
0.0,8.0,4.0,1.0,6.0,0.0,0.0,3.0,1.0,phase_2,stop,250.0,150.0,4.0,,,,,,,,,cyan,diamond
0.0,8.0,4.0,1.0,6.0,6.0,322.2148849999939,3.0,1.0,phase_2,go,250.0,200.0,1.0,,,,,,,,,cyan,diamond
0.0,3.0,2.0,0.0,6.0,6.0,530.2603390000513,3.0,1.0,phase_2,go,250.0,200.0,1.0,,,,,,,,,green,square
0.0,8.0,4.0,1.0,6.0,6.0,597.4414880001859,3.0,1.0,phase_2,go,250.0,200.0,1.0,,,,,,,,,cyan,diamond
0.0,2.0,1.0,0.0,5.0,5.0,493.2115170004181,3.0,1.0,phase_2,go,250.0,200.0,1.0,,,,,,,,,white,I
0.0,2.0,1.0,0.0,6.0,6.0,531.9831480001085,3.0,1.0,phase_2,go,250.0,200.0,1.0,,,,,,,,,white,I
0.0,7.0,2.0,1.0,6.0,0.0,0.0,3.0,1.0,phase_2,stop,250.0,200.0,4.0,,,,,,,,,gray,triangle
0.0,6.0,1.0,1.0,6.0,0.0,0.0,3.0,1.0,phase_2,stop,250.0,250.0,4.0,,,,,,,,,yellow,hexagon
0.0,2.0,1.0,0.0,5.0,5.0,578.3508349995827,3.0,1.0,phase_2,go,250.0,300.0,1.0,,,,,,,,,white,I
0.0,8.0,4.0,1.0,6.0,0.0,0.0,3.0,1.0,phase_2,stop,250.0,300.0,4.0,,,,,,,,,cyan,diamond
0.0,2.0,1.0,0.0,6.0,6.0,635.2905089997876,3.0,1.0,phase_2,go,250.0,350.0,1.0,,,,,,,,,white,I
0.0,3.0,2.0,0.0,5.0,5.0,578.5034239997913,3.0,1.0,phase_2,go,250.0,350.0,1.0,,,,,,,,,green,square
0.0,5.0,0.5,1.0,5.0,0.0,0.0,3.0,1.0,phase_2,stop,250.0,350.0,4.0,,,,,,,,,blue,flipped triangle
0.0,5.0,0.5,1.0,5.0,0.0,0.0,3.0,1.0,phase_2,stop,300.0,350.0,4.0,,,,,,,,,blue,flipped triangle
0.0,2.0,1.0,0.0,5.0,5.0,369.9663569996119,3.0,1.0,phase_2,go,350.0,350.0,1.0,,,,,,,,,white,I
0.0,5.0,0.5,1.0,5.0,0.0,0.0,3.0,1.0,phase_2,stop,350.0,350.0,4.0,,,,,,,,,blue,flipped triangle
0.0,3.0,2.0,0.0,6.0,6.0,303.6594369996237,3.0,1.0,phase_2,go,400.0,350.0,1.0,,,,,,,,,green,square
0.0,8.0,4.0,1.0,5.0,0.0,0.0,3.0,1.0,phase_2,stop,400.0,350.0,4.0,,,,,,,,,cyan,diamond
0.0,2.0,1.0,0.0,5.0,5.0,446.8053099999451,3.0,1.0,phase_2,go,450.0,350.0,1.0,,,,,,,,,white,I
0.0,8.0,4.0,1.0,5.0,5.0,816.4801399998396,3.0,1.0,phase_2,go,450.0,350.0,1.0,,,,,,,,,cyan,diamond
0.0,6.0,1.0,1.0,5.0,5.0,583.0233919996317,3.0,1.0,phase_2,stop,450.0,350.0,3.0,,,,,,,,,yellow,hexagon
0.0,7.0,2.0,1.0,6.0,0.0,0.0,3.0,1.0,phase_2,stop,400.0,350.0,4.0,,,,,,,,,gray,triangle
0.0,4.0,4.0,0.0,6.0,6.0,541.2825440007509,3.0,1.0,phase_2,go,400.0,400.0,1.0,,,,,,,,,orange,circle
0.0,1.0,0.5,0.0,6.0,6.0,757.5181169995631,3.0,1.0,phase_2,go,400.0,400.0,1.0,,,,,,,,,magenta,cross
0.0,1.0,0.5,0.0,5.0,5.0,796.0456809996685,3.0,1.0,phase_2,go,400.0,400.0,1.0,,,,,,,,,magenta,cross
0.0,8.0,4.0,1.0,5.0,0.0,0.0,3.0,1.0,phase_2,stop,400.0,400.0,4.0,,,,,,,,,cyan,diamond
0.0,4.0,4.0,0.0,5.0,5.0,645.2257569999347,3.0,1.0,phase_2,go,450.0,400.0,1.0,,,,,,,,,orange,circle
0.0,6.0,1.0,1.0,6.0,0.0,0.0,3.0,1.0,phase_2,stop,450.0,400.0,4.0,,,,,,,,,yellow,hexagon
0.0,3.0,2.0,0.0,6.0,6.0,503.27150499924755,3.0,1.0,phase_2,go,450.0,450.0,1.0,,,,,,,,,green,square
0.0,5.0,0.5,1.0,6.0,6.0,361.18246299975,3.0,1.0,phase_2,go,450.0,450.0,1.0,,,,,,,,,blue,flipped triangle
0.0,1.0,0.5,0.0,6.0,6.0,861.87705500015,3.0,1.0,phase_2,go,450.0,450.0,1.0,,,,,,,,,magenta,cross
0.0,5.0,0.5,1.0,6.0,6.0,693.7218119992394,3.0,1.0,phase_2,go,450.0,450.0,1.0,,,,,,,,,blue,flipped triangle
0.0,5.0,0.5,1.0,6.0,0.0,0.0,3.0,1.0,phase_2,stop,450.0,450.0,4.0,,,,,,,,,blue,flipped triangle
0.0,8.0,4.0,1.0,5.0,0.0,0.0,3.0,1.0,phase_2,stop,450.0,500.0,4.0,,,,,,,,,cyan,diamond
0.0,6.0,1.0,1.0,5.0,5.0,503.00141200023063,3.0,1.0,phase_2,go,500.0,500.0,1.0,,,,,,,,,yellow,hexagon
0.0,1.0,0.5,0.0,6.0,6.0,768.1318860004467,4.0,1.0,phase_2,go,500.0,500.0,1.0,,,,,,,,,magenta,cross
0.0,1.0,0.5,0.0,5.0,5.0,741.117373000634,4.0,1.0,phase_2,go,500.0,500.0,1.0,,,,,,,,,magenta,cross
0.0,8.0,4.0,1.0,5.0,0.0,0.0,4.0,1.0,phase_2,stop,500.0,500.0,4.0,,,,,,,,,cyan,diamond
0.0,6.0,1.0,1.0,5.0,5.0,703.2740929998909,4.0,1.0,phase_2,stop,550.0,500.0,3.0,,,,,,,,,yellow,hexagon
0.0,7.0,2.0,1.0,6.0,6.0,558.8449360002414,4.0,1.0,phase_2,stop,500.0,500.0,3.0,,,,,,,,,gray,triangle
0.0,1.0,0.5,0.0,6.0,6.0,1099.1298130002178,4.0,1.0,phase_2,go,500.0,450.0,1.0,,,,,,,,,magenta,cross
0.0,7.0,2.0,1.0,5.0,0.0,0.0,4.0,1.0,phase_2,stop,500.0,450.0,4.0,,,,,,,,,gray,triangle
0.0,3.0,2.0,0.0,5.0,5.0,1091.342087000157,4.0,1.0,phase_2,go,550.0,450.0,1.0,,,,,,,,,green,square
0.0,4.0,4.0,0.0,5.0,5.0,891.6286350004157,4.0,1.0,phase_2,go,550.0,450.0,1.0,,,,,,,,,orange,circle
0.0,2.0,1.0,0.0,6.0,6.0,976.4890470005412,4.0,1.0,phase_2,go,550.0,450.0,1.0,,,,,,,,,white,I
0.0,5.0,0.5,1.0,5.0,0.0,0.0,4.0,1.0,phase_2,stop,550.0,450.0,4.0,,,,,,,,,blue,flipped triangle
0.0,2.0,1.0,0.0,5.0,5.0,652.4592830000984,4.0,1.0,phase_2,go,600.0,450.0,1.0,,,,,,,,,white,I
0.0,5.0,0.5,1.0,6.0,6.0,1006.522059999952,4.0,1.0,phase_2,go,600.0,450.0,1.0,,,,,,,,,blue,flipped triangle
0.0,8.0,4.0,1.0,5.0,0.0,0.0,4.0,1.0,phase_2,stop,600.0,450.0,4.0,,,,,,,,,cyan,diamond
0.0,5.0,0.5,1.0,5.0,5.0,577.5264240000979,4.0,1.0,phase_2,stop,650.0,450.0,3.0,,,,,,,,,blue,flipped triangle
0.0,4.0,4.0,0.0,6.0,6.0,929.1429490003792,4.0,1.0,phase_2,go,600.0,450.0,1.0,,,,,,,,,orange,circle
0.0,5.0,0.5,1.0,6.0,0.0,0.0,4.0,1.0,phase_2,stop,600.0,450.0,4.0,,,,,,,,,blue,flipped triangle
0.0,5.0,0.5,1.0,6.0,0.0,0.0,4.0,1.0,phase_2,stop,600.0,500.0,4.0,,,,,,,,,blue,flipped triangle
0.0,6.0,1.0,1.0,5.0,5.0,663.5721109996666,4.0,1.0,phase_2,stop,600.0,550.0,3.0,,,,,,,,,yellow,hexagon
0.0,4.0,4.0,0.0,6.0,6.0,821.9620009995197,4.0,1.0,phase_2,go,550.0,550.0,1.0,,,,,,,,,orange,circle
0.0,2.0,1.0,0.0,6.0,6.0,909.238376999383,4.0,1.0,phase_2,go,550.0,550.0,1.0,,,,,,,,,white,I
0.0,5.0,0.5,1.0,6.0,0.0,0.0,4.0,1.0,phase_2,stop,550.0,550.0,4.0,,,,,,,,,blue,flipped triangle
0.0,2.0,1.0,0.0,6.0,6.0,805.1917089997005,4.0,1.0,phase_2,go,550.0,600.0,1.0,,,,,,,,,white,I
0.0,2.0,1.0,0.0,6.0,6.0,844.7334530001172,4.0,1.0,phase_2,go,550.0,600.0,1.0,,,,,,,,,white,I
0.0,4.0,4.0,0.0,5.0,5.0,1348.9469290007037,4.0,1.0,phase_2,go,550.0,600.0,1.0,,,,,,,,,orange,circle
0.0,8.0,4.0,1.0,5.0,5.0,1069.5212790005826,4.0,1.0,phase_2,go,550.0,600.0,1.0,,,,,,,,,cyan,diamond
0.0,5.0,0.5,1.0,6.0,0.0,0.0,4.0,1.0,phase_2,stop,550.0,600.0,4.0,,,,,,,,,blue,flipped triangle
0.0,8.0,4.0,1.0,5.0,5.0,948.1041549997826,4.0,1.0,phase_2,go,550.0,650.0,1.0,,,,,,,,,cyan,diamond
0.0,7.0,2.0,1.0,5.0,0.0,0.0,4.0,1.0,phase_2,stop,550.0,650.0,4.0,,,,,,,,,gray,triangle
0.0,6.0,1.0,1.0,6.0,6.0,681.7713500004174,4.0,1.0,phase_2,stop,600.0,650.0,3.0,,,,,,,,,yellow,hexagon
0.0,4.0,4.0,0.0,5.0,5.0,796.2111990000267,4.0,1.0,phase_2,go,600.0,600.0,1.0,,,,,,,,,orange,circle
0.0,2.0,1.0,0.0,6.0,6.0,1242.7970429998825,4.0,1.0,phase_2,go,600.0,600.0,1.0,,,,,,,,,white,I
0.0,8.0,4.0,1.0,6.0,6.0,861.1568770002123,4.0,1.0,phase_2,go,600.0,600.0,1.0,,,,,,,,,cyan,diamond
0.0,2.0,1.0,0.0,6.0,6.0,815.1646360001905,4.0,1.0,phase_2,go,600.0,600.0,1.0,,,,,,,,,white,I
0.0,2.0,1.0,0.0,6.0,6.0,654.0397210001174,4.0,1.0,phase_2,go,600.0,600.0,1.0,,,,,,,,,white,I
0.0,5.0,0.5,1.0,6.0,6.0,483.0948400003763,4.0,1.0,phase_2,go,600.0,600.0,1.0,,,,,,,,,blue,flipped triangle
0.0,3.0,2.0,0.0,6.0,6.0,780.8947200001057,5.0,1.0,phase_2,go,600.0,600.0,1.0,,,,,,,,,green,square
0.0,5.0,0.5,1.0,6.0,6.0,627.1316200000001,5.0,1.0,phase_2,go,600.0,600.0,1.0,,,,,,,,,blue,flipped triangle
0.0,4.0,4.0,0.0,5.0,5.0,816.9899820004503,5.0,1.0,phase_2,go,600.0,600.0,1.0,,,,,,,,,orange,circle
0.0,8.0,4.0,1.0,5.0,5.0,658.1746229994678,5.0,1.0,phase_2,stop,600.0,600.0,3.0,,,,,,,,,cyan,diamond
0.0,4.0,4.0,0.0,6.0,6.0,1006.146243999865,5.0,1.0,phase_2,go,550.0,600.0,1.0,,,,,,,,,orange,circle
0.0,1.0,0.5,0.0,5.0,5.0,900.076818999878,5.0,1.0,phase_2,go,550.0,600.0,1.0,,,,,,,,,magenta,cross
0.0,6.0,1.0,1.0,6.0,6.0,628.6880150000798,5.0,1.0,phase_2,go,550.0,600.0,1.0,,,,,,,,,yellow,hexagon
0.0,8.0,4.0,1.0,5.0,0.0,0.0,5.0,1.0,phase_2,stop,550.0,600.0,4.0,,,,,,,,,cyan,diamond
0.0,6.0,1.0,1.0,5.0,0.0,0.0,5.0,1.0,phase_2,stop,600.0,600.0,4.0,,,,,,,,,yellow,hexagon
0.0,2.0,1.0,0.0,5.0,5.0,475.1275720000194,5.0,1.0,phase_2,go,650.0,600.0,1.0,,,,,,,,,white,I
0.0,6.0,1.0,1.0,6.0,0.0,0.0,5.0,1.0,phase_2,stop,650.0,600.0,4.0,,,,,,,,,yellow,hexagon
0.0,8.0,4.0,1.0,5.0,5.0,763.8666990005731,5.0,1.0,phase_2,stop,650.0,650.0,3.0,,,,,,,,,cyan,diamond
0.0,5.0,0.5,1.0,6.0,0.0,0.0,5.0,1.0,phase_2,stop,600.0,650.0,4.0,,,,,,,,,blue,flipped triangle
0.0,8.0,4.0,1.0,6.0,6.0,580.1395240005149,5.0,1.0,phase_2,go,600.0,700.0,1.0,,,,,,,,,cyan,diamond
0.0,1.0,0.5,0.0,5.0,5.0,777.8705559994705,5.0,1.0,phase_2,go,600.0,700.0,1.0,,,,,,,,,magenta,cross
0.0,6.0,1.0,1.0,6.0,6.0,321.5441199999986,5.0,1.0,phase_2,go,600.0,700.0,1.0,,,,,,,,,yellow,hexagon
0.0,5.0,0.5,1.0,6.0,6.0,750.5226450002738,5.0,1.0,phase_2,stop,600.0,700.0,3.0,,,,,,,,,blue,flipped triangle
0.0,3.0,2.0,0.0,5.0,5.0,1044.9410940000234,5.0,1.0,phase_2,go,600.0,650.0,1.0,,,,,,,,,green,square
0.0,8.0,4.0,1.0,5.0,0.0,0.0,5.0,1.0,phase_2,stop,600.0,650.0,4.0,,,,,,,,,cyan,diamond
0.0,4.0,4.0,0.0,5.0,5.0,728.5472809999192,5.0,1.0,phase_2,go,650.0,650.0,1.0,,,,,,,,,orange,circle
0.0,3.0,2.0,0.0,5.0,5.0,1223.0236060004245,5.0,1.0,phase_2,go,650.0,650.0,1.0,,,,,,,,,green,square
0.0,1.0,0.5,0.0,6.0,6.0,1110.0066739991234,5.0,1.0,phase_2,go,650.0,650.0,1.0,,,,,,,,,magenta,cross
0.0,7.0,2.0,1.0,5.0,5.0,815.0181610008076,5.0,1.0,phase_2,stop,650.0,650.0,3.0,,,,,,,,,gray,triangle
0.0,7.0,2.0,1.0,6.0,6.0,399.986297000396,5.0,1.0,phase_2,stop,600.0,650.0,3.0,,,,,,,,,gray,triangle
0.0,4.0,4.0,0.0,6.0,6.0,836.5396849994795,5.0,1.0,phase_2,go,600.0,600.0,1.0,,,,,,,,,orange,circle
0.0,6.0,1.0,1.0,5.0,0.0,0.0,5.0,1.0,phase_2,stop,600.0,600.0,4.0,,,,,,,,,yellow,hexagon
0.0,7.0,2.0,1.0,5.0,0.0,0.0,5.0,1.0,phase_2,stop,650.0,600.0,4.0,,,,,,,,,gray,triangle
0.0,5.0,0.5,1.0,6.0,6.0,817.2702669999126,5.0,1.0,phase_2,go,700.0,600.0,1.0,,,,,,,,,blue,flipped triangle
0.0,3.0,2.0,0.0,6.0,6.0,890.3588909997779,5.0,1.0,phase_2,go,700.0,600.0,1.0,,,,,,,,,green,square
0.0,8.0,4.0,1.0,5.0,0.0,0.0,5.0,1.0,phase_2,stop,700.0,600.0,4.0,,,,,,,,,cyan,diamond
0.0,1.0,0.5,0.0,5.0,5.0,700.9061040007509,5.0,1.0,phase_2,go,750.0,600.0,1.0,,,,,,,,,magenta,cross
0.0,7.0,2.0,1.0,6.0,0.0,0.0,5.0,1.0,phase_2,stop,750.0,600.0,4.0,,,,,,,,,gray,triangle
0.0,2.0,1.0,0.0,5.0,5.0,853.956950999418,5.0,1.0,phase_2,go,750.0,650.0,1.0,,,,,,,,,white,I
0.0,1.0,0.5,0.0,5.0,5.0,1053.9780219996828,5.0,1.0,phase_2,go,750.0,650.0,1.0,,,,,,,,,magenta,cross
0.0,2.0,1.0,0.0,5.0,5.0,1308.346201999484,5.0,1.0,phase_2,go,750.0,650.0,1.0,,,,,,,,,white,I
0.0,3.0,2.0,0.0,5.0,5.0,1100.0488930003485,5.0,1.0,phase_2,go,750.0,650.0,1.0,,,,,,,,,green,square
0.0,4.0,4.0,0.0,5.0,5.0,536.4051339993239,6.0,1.0,phase_2,go,750.0,650.0,1.0,,,,,,,,,orange,circle
0.0,6.0,1.0,1.0,5.0,5.0,747.6017959997989,6.0,1.0,phase_2,stop,750.0,650.0,3.0,,,,,,,,,yellow,hexagon
0.0,2.0,1.0,0.0,5.0,5.0,1072.1027039999171,6.0,1.0,phase_2,go,700.0,650.0,1.0,,,,,,,,,white,I
0.0,6.0,1.0,1.0,5.0,0.0,0.0,6.0,1.0,phase_2,stop,700.0,650.0,4.0,,,,,,,,,yellow,hexagon
0.0,2.0,1.0,0.0,6.0,6.0,409.3043889997716,6.0,1.0,phase_2,go,750.0,650.0,1.0,,,,,,,,,white,I
0.0,5.0,0.5,1.0,6.0,6.0,380.2445369992711,6.0,1.0,phase_2,go,750.0,650.0,1.0,,,,,,,,,blue,flipped triangle
0.0,7.0,2.0,1.0,5.0,5.0,369.5067879998532,6.0,1.0,phase_2,stop,750.0,650.0,3.0,,,,,,,,,gray,triangle
0.0,2.0,1.0,0.0,6.0,6.0,519.9061829998755,6.0,1.0,phase_2,go,700.0,650.0,1.0,,,,,,,,,white,I
0.0,7.0,2.0,1.0,6.0,6.0,708.7887819998286,6.0,1.0,phase_2,stop,700.0,650.0,3.0,,,,,,,,,gray,triangle
0.0,3.0,2.0,0.0,6.0,6.0,812.7770529999907,6.0,1.0,phase_2,go,700.0,600.0,1.0,,,,,,,,,green,square
0.0,5.0,0.5,1.0,5.0,0.0,0.0,6.0,1.0,phase_2,stop,700.0,600.0,4.0,,,,,,,,,blue,flipped triangle
0.0,4.0,4.0,0.0,6.0,6.0,618.8941420004994,6.0,1.0,phase_2,go,750.0,600.0,1.0,,,,,,,,,orange,circle
0.0,6.0,1.0,1.0,5.0,0.0,0.0,6.0,1.0,phase_2,stop,750.0,600.0,4.0,,,,,,,,,yellow,hexagon
0.0,1.0,0.5,0.0,5.0,5.0,720.7959939996726,6.0,1.0,phase_2,go,800.0,600.0,1.0,,,,,,,,,magenta,cross
0.0,2.0,1.0,0.0,5.0,5.0,958.4290789998704,6.0,1.0,phase_2,go,800.0,600.0,1.0,,,,,,,,,white,I
0.0,3.0,2.0,0.0,6.0,6.0,936.2917180005752,6.0,1.0,phase_2,go,800.0,600.0,1.0,,,,,,,,,green,square
0.0,5.0,0.5,1.0,5.0,0.0,0.0,6.0,1.0,phase_2,stop,800.0,600.0,4.0,,,,,,,,,blue,flipped triangle
0.0,3.0,2.0,0.0,5.0,5.0,569.306606000282,6.0,1.0,phase_2,go,850.0,600.0,1.0,,,,,,,,,green,square
0.0,6.0,1.0,1.0,6.0,6.0,655.1740859995334,6.0,1.0,phase_2,stop,850.0,600.0,3.0,,,,,,,,,yellow,hexagon
0.0,4.0,4.0,0.0,6.0,6.0,671.6104340002857,6.0,1.0,phase_2,go,850.0,550.0,1.0,,,,,,,,,orange,circle
0.0,7.0,2.0,1.0,6.0,6.0,636.1864959999366,6.0,1.0,phase_2,go,850.0,550.0,1.0,,,,,,,,,gray,triangle
0.0,3.0,2.0,0.0,6.0,6.0,1067.0459819993994,6.0,1.0,phase_2,go,850.0,550.0,1.0,,,,,,,,,green,square
0.0,5.0,0.5,1.0,5.0,5.0,1427.6468809994185,6.0,1.0,phase_2,go,850.0,550.0,1.0,,,,,,,,,blue,flipped triangle
0.0,5.0,0.5,1.0,5.0,5.0,974.353591000181,6.0,1.0,phase_2,stop,850.0,550.0,3.0,,,,,,,,,blue,flipped triangle
0.0,6.0,1.0,1.0,6.0,6.0,331.1204829997223,6.0,1.0,phase_2,stop,800.0,550.0,3.0,,,,,,,,,yellow,hexagon
0.0,1.0,0.5,0.0,6.0,6.0,834.6688830006315,6.0,1.0,phase_2,go,800.0,500.0,1.0,,,,,,,,,magenta,cross
0.0,7.0,2.0,1.0,5.0,0.0,0.0,6.0,1.0,phase_2,stop,800.0,500.0,4.0,,,,,,,,,gray,triangle
0.0,5.0,0.5,1.0,5.0,5.0,925.8451400000922,6.0,1.0,phase_2,stop,850.0,500.0,3.0,,,,,,,,,blue,flipped triangle
0.0,8.0,4.0,1.0,6.0,0.0,0.0,6.0,1.0,phase_2,stop,800.0,500.0,4.0,,,,,,,,,cyan,diamond
0.0,6.0,1.0,1.0,6.0,6.0,776.0229670002445,6.0,1.0,phase_2,go,800.0,550.0,1.0,,,,,,,,,yellow,hexagon
0.0,8.0,4.0,1.0,6.0,6.0,1286.009250999996,6.0,1.0,phase_2,go,800.0,550.0,1.0,,,,,,,,,cyan,diamond
0.0,3.0,2.0,0.0,5.0,5.0,1119.9113409993515,6.0,1.0,phase_2,go,800.0,550.0,1.0,,,,,,,,,green,square
0.0,6.0,1.0,1.0,6.0,0.0,0.0,6.0,1.0,phase_2,stop,800.0,550.0,4.0,,,,,,,,,yellow,hexagon
0.0,6.0,1.0,1.0,5.0,5.0,917.3202399997537,6.0,1.0,phase_2,stop,800.0,600.0,3.0,,,,,,,,,yellow,hexagon
0.0,1.0,0.5,0.0,6.0,6.0,1118.6239690005095,6.0,1.0,phase_2,go,750.0,600.0,1.0,,,,,,,,,magenta,cross
0.0,3.0,2.0,0.0,5.0,5.0,1287.4433910001244,6.0,1.0,phase_2,go,750.0,600.0,1.0,,,,,,,,,green,square
0.0,1.0,0.5,0.0,5.0,5.0,512.1468079996703,7.0,1.0,phase_2,go,750.0,600.0,1.0,,,,,,,,,magenta,cross
0.0,3.0,2.0,0.0,6.0,6.0,1020.4703910003443,7.0,1.0,phase_2,go,750.0,600.0,1.0,,,,,,,,,green,square
0.0,7.0,2.0,1.0,6.0,0.0,0.0,7.0,1.0,phase_2,stop,750.0,600.0,4.0,,,,,,,,,gray,triangle
0.0,6.0,1.0,1.0,5.0,5.0,668.3368349995362,7.0,1.0,phase_2,stop,750.0,650.0,3.0,,,,,,,,,yellow,hexagon
0.0,2.0,1.0,0.0,5.0,5.0,953.9916190005896,7.0,1.0,phase_2,go,700.0,650.0,1.0,,,,,,,,,white,I
0.0,2.0,1.0,0.0,5.0,5.0,947.5068809997538,7.0,1.0,phase_2,go,700.0,650.0,1.0,,,,,,,,,white,I
0.0,4.0,4.0,0.0,5.0,5.0,1165.34996900009,7.0,1.0,phase_2,go,700.0,650.0,1.0,,,,,,,,,orange,circle
0.0,2.0,1.0,0.0,5.0,5.0,1029.9292210002022,7.0,1.0,phase_2,go,700.0,650.0,1.0,,,,,,,,,white,I
0.0,8.0,4.0,1.0,6.0,0.0,0.0,7.0,1.0,phase_2,stop,700.0,650.0,4.0,,,,,,,,,cyan,diamond
0.0,8.0,4.0,1.0,5.0,0.0,0.0,7.0,1.0,phase_2,stop,700.0,700.0,4.0,,,,,,,,,cyan,diamond
0.0,7.0,2.0,1.0,6.0,6.0,454.622793999988,7.0,1.0,phase_2,stop,750.0,700.0,3.0,,,,,,,,,gray,triangle
0.0,2.0,1.0,0.0,5.0,5.0,831.2427379996734,7.0,1.0,phase_2,go,750.0,650.0,1.0,,,,,,,,,white,I
0.0,1.0,0.5,0.0,5.0,5.0,831.7238849995192,7.0,1.0,phase_2,go,750.0,650.0,1.0,,,,,,,,,magenta,cross
0.0,3.0,2.0,0.0,5.0,5.0,1260.671172000002,7.0,1.0,phase_2,go,750.0,650.0,1.0,,,,,,,,,green,square
0.0,1.0,0.5,0.0,6.0,6.0,926.4900170001056,7.0,1.0,phase_2,go,750.0,650.0,1.0,,,,,,,,,magenta,cross
0.0,6.0,1.0,1.0,6.0,0.0,0.0,7.0,1.0,phase_2,stop,750.0,650.0,4.0,,,,,,,,,yellow,hexagon
0.0,4.0,4.0,0.0,5.0,5.0,1005.2493900002446,7.0,1.0,phase_2,go,750.0,700.0,1.0,,,,,,,,,orange,circle
0.0,3.0,2.0,0.0,5.0,5.0,1164.159796999229,7.0,1.0,phase_2,go,750.0,700.0,1.0,,,,,,,,,green,square
0.0,5.0,0.5,1.0,5.0,5.0,547.7816500006156,7.0,1.0,phase_2,stop,750.0,700.0,3.0,,,,,,,,,blue,flipped triangle
0.0,7.0,2.0,1.0,5.0,5.0,748.9970930000709,7.0,1.0,phase_2,stop,700.0,700.0,3.0,,,,,,,,,gray,triangle
0.0,2.0,1.0,0.0,6.0,6.0,1116.394874999969,7.0,1.0,phase_2,go,650.0,700.0,1.0,,,,,,,,,white,I
0.0,7.0,2.0,1.0,6.0,6.0,378.5276050002721,7.0,1.0,phase_2,stop,650.0,700.0,3.0,,,,,,,,,gray,triangle
0.0,1.0,0.5,0.0,5.0,5.0,795.4767220007852,7.0,1.0,phase_2,go,650.0,650.0,1.0,,,,,,,,,magenta,cross
0.0,6.0,1.0,1.0,5.0,5.0,341.8566860000283,7.0,1.0,phase_2,stop,650.0,650.0,3.0,,,,,,,,,yellow,hexagon
0.0,4.0,4.0,0.0,6.0,6.0,968.4952679999695,7.0,1.0,phase_2,go,600.0,650.0,1.0,,,,,,,,,orange,circle
0.0,3.0,2.0,0.0,5.0,5.0,1261.21351600068,7.0,1.0,phase_2,go,600.0,650.0,1.0,,,,,,,,,green,square
0.0,3.0,2.0,0.0,6.0,6.0,1168.3625570003642,7.0,1.0,phase_2,go,600.0,650.0,1.0,,,,,,,,,green,square
0.0,1.0,0.5,0.0,6.0,6.0,885.8250630000839,7.0,1.0,phase_2,go,600.0,650.0,1.0,,,,,,,,,magenta,cross
0.0,6.0,1.0,1.0,5.0,0.0,0.0,7.0,1.0,phase_2,stop,600.0,650.0,4.0,,,,,,,,,yellow,hexagon
0.0,8.0,4.0,1.0,6.0,6.0,389.3297220001841,7.0,1.0,phase_2,go,650.0,650.0,1.0,,,,,,,,,cyan,diamond
0.0,5.0,0.5,1.0,5.0,0.0,0.0,7.0,1.0,phase_2,stop,650.0,650.0,4.0,,,,,,,,,blue,flipped triangle
0.0,4.0,4.0,0.0,5.0,5.0,739.5994160006012,7.0,1.0,phase_2,go,700.0,650.0,1.0,,,,,,,,,orange,circle
0.0,6.0,1.0,1.0,5.0,0.0,0.0,7.0,1.0,phase_2,stop,700.0,650.0,4.0,,,,,,,,,yellow,hexagon
0.0,7.0,2.0,1.0,5.0,5.0,1214.9464020003506,7.0,1.0,phase_2,go,750.0,650.0,1.0,,,,,,,,,gray,triangle
0.0,7.0,2.0,1.0,5.0,0.0,0.0,7.0,1.0,phase_2,stop,750.0,650.0,4.0,,,,,,,,,gray,triangle
0.0,4.0,4.0,0.0,6.0,6.0,794.1003420000925,7.0,1.0,phase_2,go,800.0,650.0,1.0,,,,,,,,,orange,circle
0.0,5.0,0.5,1.0,5.0,5.0,521.5710370002853,8.0,1.0,phase_2,stop,800.0,650.0,3.0,,,,,,,,,blue,flipped triangle
0.0,1.0,0.5,0.0,6.0,6.0,560.7173810003587,8.0,1.0,phase_2,go,750.0,650.0,1.0,,,,,,,,,magenta,cross
0.0,7.0,2.0,1.0,5.0,5.0,739.0545610005574,8.0,1.0,phase_2,stop,750.0,650.0,3.0,,,,,,,,,gray,triangle
0.0,6.0,1.0,1.0,6.0,6.0,636.081059999924,8.0,1.0,phase_2,go,700.0,650.0,1.0,,,,,,,,,yellow,hexagon
0.0,2.0,1.0,0.0,6.0,6.0,578.4924669997054,8.0,1.0,phase_2,go,700.0,650.0,1.0,,,,,,,,,white,I
0.0,4.0,4.0,0.0,5.0,5.0,895.4526780007654,8.0,1.0,phase_2,go,700.0,650.0,1.0,,,,,,,,,orange,circle
0.0,8.0,4.0,1.0,6.0,6.0,697.3156929998368,8.0,1.0,phase_2,stop,700.0,650.0,3.0,,,,,,,,,cyan,diamond
0.0,8.0,4.0,1.0,5.0,5.0,787.2757610002736,8.0,1.0,phase_2,stop,700.0,600.0,3.0,,,,,,,,,cyan,diamond
0.0,7.0,2.0,1.0,6.0,6.0,645.4292520002127,8.0,1.0,phase_2,stop,650.0,600.0,3.0,,,,,,,,,gray,triangle
0.0,3.0,2.0,0.0,5.0,5.0,671.8714550006553,8.0,1.0,phase_2,go,650.0,550.0,1.0,,,,,,,,,green,square
0.0,7.0,2.0,1.0,5.0,5.0,686.4711039997928,8.0,1.0,phase_2,stop,650.0,550.0,3.0,,,,,,,,,gray,triangle
0.0,1.0,0.5,0.0,6.0,6.0,949.9077400005262,8.0,1.0,phase_2,go,600.0,550.0,1.0,,,,,,,,,magenta,cross
0.0,1.0,0.5,0.0,6.0,6.0,1078.1975890004103,8.0,1.0,phase_2,go,600.0,550.0,1.0,,,,,,,,,magenta,cross
0.0,4.0,4.0,0.0,6.0,6.0,645.0664719995984,8.0,1.0,phase_2,go,600.0,550.0,1.0,,,,,,,,,orange,circle
0.0,3.0,2.0,0.0,6.0,6.0,692.00659299986,8.0,1.0,phase_2,go,600.0,550.0,1.0,,,,,,,,,green,square
0.0,1.0,0.5,0.0,6.0,6.0,1004.1341829992234,8.0,1.0,phase_2,go,600.0,550.0,1.0,,,,,,,,,magenta,cross
0.0,5.0,0.5,1.0,5.0,0.0,0.0,8.0,1.0,phase_2,stop,600.0,550.0,4.0,,,,,,,,,blue,flipped triangle
0.0,8.0,4.0,1.0,6.0,0.0,0.0,8.0,1.0,phase_2,stop,650.0,550.0,4.0,,,,,,,,,cyan,diamond
0.0,1.0,0.5,0.0,5.0,5.0,689.1965800004982,8.0,1.0,phase_2,go,650.0,600.0,1.0,,,,,,,,,magenta,cross
0.0,5.0,0.5,1.0,5.0,0.0,0.0,8.0,1.0,phase_2,stop,650.0,600.0,4.0,,,,,,,,,blue,flipped triangle
0.0,1.0,0.5,0.0,5.0,5.0,625.3993809996246,8.0,1.0,phase_2,go,700.0,600.0,1.0,,,,,,,,,magenta,cross
0.0,1.0,0.5,0.0,6.0,6.0,1127.6000460002251,8.0,1.0,phase_2,go,700.0,600.0,1.0,,,,,,,,,magenta,cross
0.0,7.0,2.0,1.0,5.0,5.0,1041.7810330000066,8.0,1.0,phase_2,go,700.0,600.0,1.0,,,,,,,,,gray,triangle
0.0,2.0,1.0,0.0,6.0,6.0,975.6452290002926,8.0,1.0,phase_2,go,700.0,600.0,1.0,,,,,,,,,white,I
0.0,6.0,1.0,1.0,5.0,5.0,1002.5230700002794,8.0,1.0,phase_2,go,700.0,600.0,1.0,,,,,,,,,yellow,hexagon
0.0,1.0,0.5,0.0,6.0,6.0,862.2297689998959,8.0,1.0,phase_2,go,700.0,600.0,1.0,,,,,,,,,magenta,cross
0.0,8.0,4.0,1.0,5.0,0.0,0.0,8.0,1.0,phase_2,stop,700.0,600.0,4.0,,,,,,,,,cyan,diamond
0.0,4.0,4.0,0.0,5.0,5.0,484.997241000201,8.0,1.0,phase_2,go,750.0,600.0,1.0,,,,,,,,,orange,circle
0.0,2.0,1.0,0.0,5.0,5.0,797.067923999748,8.0,1.0,phase_2,go,750.0,600.0,1.0,,,,,,,,,white,I
0.0,7.0,2.0,1.0,6.0,0.0,0.0,8.0,1.0,phase_2,stop,750.0,600.0,4.0,,,,,,,,,gray,triangle
0.0,1.0,0.5,0.0,6.0,6.0,636.2543049999658,8.0,1.0,phase_2,go,750.0,650.0,1.0,,,,,,,,,magenta,cross
0.0,4.0,4.0,0.0,5.0,5.0,774.84825800002,8.0,1.0,phase_2,go,750.0,650.0,1.0,,,,,,,,,orange,circle
0.0,2.0,1.0,0.0,6.0,6.0,435.0630730004923,8.0,1.0,phase_2,go,750.0,650.0,1.0,,,,,,,,,white,I
0.0,5.0,0.5,1.0,5.0,0.0,0.0,8.0,1.0,phase_2,stop,750.0,650.0,4.0,,,,,,,,,blue,flipped triangle
0.0,1.0,0.5,0.0,5.0,5.0,719.1043399998307,8.0,1.0,phase_2,go,800.0,650.0,1.0,,,,,,,,,magenta,cross
0.0,8.0,4.0,1.0,6.0,6.0,633.0724099998406,8.0,1.0,phase_2,stop,800.0,650.0,3.0,,,,,,,,,cyan,diamond
0.0,5.0,0.5,1.0,7.0,5.0,2218.935380999937,1.0,1.0,phase_3,,,,,464.0,4.0,696.0,232.0,116.0,580.0,464.0,348.0,blue,flipped triangle
0.0,6.0,1.0,1.0,7.0,6.0,2067.3615979994797,1.0,1.0,phase_3,,,,,675.0,5.0,405.0,540.0,135.0,270.0,810.0,675.0,yellow,hexagon
0.0,4.0,4.0,0.0,7.0,2.0,1961.453316999723,1.0,1.0,phase_3,,,,,346.0,2.0,1038.0,346.0,173.0,865.0,692.0,519.0,orange,circle
0.0,5.0,0.5,1.0,7.0,5.0,1825.4935279992424,1.0,1.0,phase_3,,,,,519.0,3.0,346.0,173.0,692.0,865.0,519.0,1038.0,blue,flipped triangle
0.0,7.0,2.0,1.0,7.0,1.0,1765.0353520002682,1.0,1.0,phase_3,,,,,346.0,2.0,346.0,519.0,1038.0,173.0,865.0,692.0,gray,triangle
0.0,3.0,2.0,0.0,7.0,6.0,1319.5196199994823,1.0,1.0,phase_3,,,,,696.0,6.0,348.0,580.0,116.0,464.0,232.0,696.0,green,square
0.0,1.0,0.5,0.0,7.0,1.0,1590.7829050001965,1.0,1.0,phase_3,,,,,616.0,4.0,616.0,308.0,154.0,924.0,462.0,770.0,magenta,cross
0.0,3.0,2.0,0.0,7.0,5.0,1139.9406300006376,1.0,1.0,phase_3,,,,,692.0,4.0,865.0,173.0,519.0,1038.0,692.0,346.0,green,square
0.0,7.0,2.0,1.0,7.0,1.0,1666.029169000467,1.0,1.0,phase_3,,,,,270.0,2.0,270.0,540.0,405.0,810.0,675.0,135.0,gray,triangle
0.0,1.0,0.5,0.0,7.0,6.0,1000.6007759993736,1.0,1.0,phase_3,,,,,675.0,5.0,810.0,270.0,405.0,540.0,135.0,675.0,magenta,cross
0.0,1.0,0.5,0.0,7.0,1.0,1879.1984929994212,1.0,1.0,phase_3,,,,,768.0,4.0,768.0,384.0,960.0,1152.0,576.0,192.0,magenta,cross
0.0,7.0,2.0,1.0,7.0,4.0,1196.993582999312,1.0,1.0,phase_3,,,,,154.0,1.0,770.0,308.0,924.0,154.0,462.0,616.0,gray,triangle
0.0,4.0,4.0,0.0,7.0,3.0,1551.4383729996553,1.0,1.0,phase_3,,,,,308.0,2.0,616.0,924.0,308.0,462.0,770.0,154.0,orange,circle
0.0,2.0,1.0,0.0,7.0,2.0,1854.3761270002503,1.0,1.0,phase_3,,,,,692.0,4.0,519.0,692.0,1038.0,173.0,865.0,346.0,white,I
0.0,6.0,1.0,1.0,7.0,5.0,1751.5627009997845,1.0,1.0,phase_3,,,,,696.0,6.0,348.0,116.0,464.0,232.0,696.0,580.0,yellow,hexagon
0.0,4.0,4.0,0.0,7.0,5.0,1700.7985419995748,1.0,1.0,phase_3,,,,,308.0,2.0,462.0,924.0,154.0,616.0,308.0,770.0,orange,circle
0.0,1.0,0.5,0.0,7.0,6.0,1875.4125799996475,1.0,1.0,phase_3,,,,,580.0,5.0,696.0,116.0,464.0,348.0,232.0,580.0,magenta,cross
0.0,5.0,0.5,1.0,7.0,2.0,1468.9473239996005,1.0,1.0,phase_3,,,,,270.0,2.0,540.0,270.0,135.0,405.0,810.0,675.0,blue,flipped triangle
0.0,6.0,1.0,1.0,7.0,5.0,1938.446596999711,1.0,1.0,phase_3,,,,,675.0,5.0,810.0,135.0,405.0,270.0,675.0,540.0,yellow,hexagon
0.0,4.0,4.0,0.0,7.0,1.0,1543.725993999942,1.0,1.0,phase_3,,,,,270.0,2.0,270.0,405.0,540.0,675.0,135.0,810.0,orange,circle
0.0,5.0,0.5,1.0,7.0,3.0,2295.900357999926,2.0,1.0,phase_3,,,,,308.0,2.0,462.0,770.0,308.0,154.0,924.0,616.0,blue,flipped triangle
0.0,6.0,1.0,1.0,7.0,3.0,2029.441468999721,2.0,1.0,phase_3,,,,,519.0,3.0,1038.0,865.0,519.0,346.0,692.0,173.0,yellow,hexagon
0.0,5.0,0.5,1.0,7.0,2.0,1397.441417000664,2.0,1.0,phase_3,,,,,346.0,2.0,173.0,346.0,865.0,1038.0,519.0,692.0,blue,flipped triangle
0.0,4.0,4.0,0.0,7.0,4.0,2145.514846999504,2.0,1.0,phase_3,,,,,192.0,1.0,384.0,960.0,1152.0,192.0,768.0,576.0,orange,circle
0.0,8.0,4.0,1.0,7.0,1.0,2418.062689999715,2.0,1.0,phase_3,,,,,616.0,4.0,616.0,308.0,462.0,924.0,154.0,770.0,cyan,diamond
0.0,4.0,4.0,0.0,7.0,4.0,1215.682132999973,2.0,1.0,phase_3,,,,,192.0,1.0,960.0,768.0,384.0,192.0,576.0,1152.0,orange,circle
0.0,5.0,0.5,1.0,7.0,5.0,1101.5382799996587,2.0,1.0,phase_3,,,,,462.0,3.0,770.0,308.0,924.0,616.0,462.0,154.0,blue,flipped triangle
0.0,7.0,2.0,1.0,7.0,1.0,904.0282210007716,2.0,1.0,phase_3,,,,,173.0,1.0,173.0,865.0,1038.0,692.0,346.0,519.0,gray,triangle
0.0,4.0,4.0,0.0,7.0,1.0,972.6312190005046,2.0,1.0,phase_3,,,,,348.0,3.0,348.0,696.0,580.0,116.0,464.0,232.0,orange,circle
0.0,3.0,2.0,0.0,7.0,5.0,952.7423989993622,2.0,1.0,phase_3,,,,,580.0,5.0,348.0,696.0,464.0,116.0,580.0,232.0,green,square
0.0,8.0,4.0,1.0,7.0,6.0,1794.7043650001433,2.0,1.0,phase_3,,,,,519.0,3.0,865.0,173.0,1038.0,346.0,692.0,519.0,cyan,diamond
0.0,6.0,1.0,1.0,7.0,2.0,2173.443546999806,2.0,1.0,phase_3,,,,,924.0,6.0,154.0,924.0,462.0,770.0,616.0,308.0,yellow,hexagon
0.0,5.0,0.5,1.0,7.0,4.0,1054.8685750000004,2.0,1.0,phase_3,,,,,384.0,2.0,576.0,192.0,960.0,384.0,1152.0,768.0,blue,flipped triangle
0.0,3.0,2.0,0.0,7.0,3.0,1289.6121499998117,2.0,1.0,phase_3,,,,,576.0,3.0,384.0,1152.0,576.0,960.0,192.0,768.0,green,square
0.0,6.0,1.0,1.0,7.0,2.0,2662.662908999664,2.0,1.0,phase_3,,,,,173.0,1.0,1038.0,173.0,692.0,519.0,865.0,346.0,yellow,hexagon
0.0,3.0,2.0,0.0,7.0,5.0,1186.103842999728,2.0,1.0,phase_3,,,,,616.0,4.0,308.0,770.0,154.0,924.0,616.0,462.0,green,square
0.0,2.0,1.0,0.0,7.0,1.0,1738.6960120002186,2.0,1.0,phase_3,,,,,960.0,5.0,960.0,576.0,384.0,768.0,192.0,1152.0,white,I
0.0,2.0,1.0,0.0,7.0,4.0,1495.8719119995294,2.0,1.0,phase_3,,,,,924.0,6.0,770.0,154.0,616.0,924.0,308.0,462.0,white,I
0.0,2.0,1.0,0.0,7.0,3.0,2187.1589639995364,2.0,1.0,phase_3,,,,,580.0,5.0,116.0,232.0,580.0,464.0,348.0,696.0,white,I
0.0,8.0,4.0,1.0,7.0,3.0,2249.53288100005,2.0,1.0,phase_3,,,,,405.0,3.0,540.0,135.0,405.0,675.0,810.0,270.0,cyan,diamond
0.0,2.0,1.0,0.0,7.0,3.0,1100.8892890004065,3.0,1.0,phase_3,,,,,540.0,4.0,270.0,135.0,540.0,810.0,405.0,675.0,white,I
0.0,1.0,0.5,0.0,7.0,6.0,1547.9684030005956,3.0,1.0,phase_3,,,,,768.0,4.0,1152.0,384.0,192.0,960.0,576.0,768.0,magenta,cross
0.0,7.0,2.0,1.0,7.0,3.0,987.9137339994486,3.0,1.0,phase_3,,,,,192.0,1.0,768.0,576.0,192.0,960.0,384.0,1152.0,gray,triangle
0.0,2.0,1.0,0.0,7.0,3.0,1864.8351459996773,3.0,1.0,phase_3,,,,,348.0,3.0,696.0,580.0,348.0,464.0,116.0,232.0,white,I
0.0,8.0,4.0,1.0,7.0,1.0,876.6463920001115,3.0,1.0,phase_3,,,,,519.0,3.0,519.0,692.0,346.0,865.0,1038.0,173.0,cyan,diamond
0.0,5.0,0.5,1.0,7.0,4.0,2344.656202999431,3.0,1.0,phase_3,,,,,540.0,4.0,135.0,675.0,810.0,540.0,405.0,270.0,blue,flipped triangle
0.0,2.0,1.0,0.0,7.0,4.0,1474.439660999451,3.0,1.0,phase_3,,,,,540.0,4.0,135.0,270.0,405.0,540.0,810.0,675.0,white,I
0.0,2.0,1.0,0.0,7.0,1.0,1697.147053999288,3.0,1.0,phase_3,,,,,462.0,3.0,462.0,154.0,924.0,770.0,616.0,308.0,white,I
0.0,7.0,2.0,1.0,7.0,2.0,1101.9906379997335,3.0,1.0,phase_3,,,,,154.0,1.0,616.0,154.0,924.0,770.0,308.0,462.0,gray,triangle
0.0,3.0,2.0,0.0,7.0,3.0,1489.914714000406,3.0,1.0,phase_3,,,,,576.0,3.0,768.0,1152.0,576.0,384.0,192.0,960.0,green,square
0.0,8.0,4.0,1.0,7.0,4.0,1448.948023000412,3.0,1.0,phase_3,,,,,462.0,3.0,154.0,616.0,308.0,462.0,770.0,924.0,cyan,diamond
0.0,7.0,2.0,1.0,7.0,4.0,1217.0430699998178,3.0,1.0,phase_3,,,,,116.0,1.0,348.0,580.0,464.0,116.0,696.0,232.0,gray,triangle
0.0,1.0,0.5,0.0,7.0,2.0,1754.3458469999678,3.0,1.0,phase_3,,,,,540.0,4.0,810.0,540.0,270.0,405.0,675.0,135.0,magenta,cross
0.0,8.0,4.0,1.0,7.0,3.0,2116.9712329992763,3.0,1.0,phase_3,,,,,576.0,3.0,192.0,768.0,576.0,384.0,960.0,1152.0,cyan,diamond
0.0,4.0,4.0,0.0,7.0,2.0,1920.7466460002247,3.0,1.0,phase_3,,,,,348.0,3.0,696.0,348.0,116.0,464.0,580.0,232.0,orange,circle
0.0,8.0,4.0,1.0,7.0,5.0,1968.4923670001808,3.0,1.0,phase_3,,,,,580.0,5.0,116.0,464.0,696.0,348.0,580.0,232.0,cyan,diamond
0.0,1.0,0.5,0.0,7.0,6.0,1460.6242760000896,3.0,1.0,phase_3,,,,,692.0,4.0,346.0,1038.0,519.0,865.0,173.0,692.0,magenta,cross
0.0,1.0,0.5,0.0,7.0,6.0,1148.695380999925,3.0,1.0,phase_3,,,,,580.0,5.0,348.0,232.0,696.0,464.0,116.0,580.0,magenta,cross
0.0,6.0,1.0,1.0,7.0,5.0,1618.8525889992889,3.0,1.0,phase_3,,,,,616.0,4.0,308.0,924.0,154.0,462.0,616.0,770.0,yellow,hexagon
0.0,1.0,0.5,0.0,7.0,5.0,908.2226340005946,3.0,1.0,phase_3,,,,,462.0,3.0,308.0,924.0,616.0,770.0,462.0,154.0,magenta,cross
0.0,6.0,1.0,1.0,7.0,5.0,1215.4565730006652,4.0,1.0,phase_3,,,,,464.0,4.0,116.0,348.0,232.0,696.0,464.0,580.0,yellow,hexagon
0.0,3.0,2.0,0.0,7.0,3.0,1905.357957999513,4.0,1.0,phase_3,,,,,540.0,4.0,675.0,135.0,540.0,810.0,405.0,270.0,green,square
0.0,2.0,1.0,0.0,7.0,6.0,1715.621252999881,4.0,1.0,phase_3,,,,,692.0,4.0,346.0,1038.0,865.0,173.0,519.0,692.0,white,I
0.0,8.0,4.0,1.0,7.0,2.0,1442.2959450002963,4.0,1.0,phase_3,,,,,540.0,4.0,270.0,540.0,405.0,810.0,135.0,675.0,cyan,diamond
0.0,8.0,4.0,1.0,7.0,2.0,958.3880320005846,4.0,1.0,phase_3,,,,,464.0,4.0,348.0,464.0,696.0,116.0,580.0,232.0,cyan,diamond
0.0,2.0,1.0,0.0,7.0,4.0,894.7971829993548,4.0,1.0,phase_3,,,,,384.0,2.0,768.0,1152.0,192.0,384.0,576.0,960.0,white,I
0.0,7.0,2.0,1.0,7.0,1.0,695.7364029995006,4.0,1.0,phase_3,,,,,135.0,1.0,135.0,270.0,540.0,405.0,810.0,675.0,gray,triangle
0.0,7.0,2.0,1.0,7.0,3.0,1074.3025830006443,4.0,1.0,phase_3,,,,,232.0,2.0,696.0,348.0,232.0,464.0,580.0,116.0,gray,triangle
0.0,4.0,4.0,0.0,7.0,4.0,941.5127759993992,4.0,1.0,phase_3,,,,,270.0,2.0,135.0,540.0,405.0,270.0,675.0,810.0,orange,circle
0.0,5.0,0.5,1.0,7.0,4.0,677.9986789997565,4.0,1.0,phase_3,,,,,116.0,1.0,232.0,696.0,348.0,116.0,580.0,464.0,blue,flipped triangle
0.0,3.0,2.0,0.0,7.0,4.0,1100.9452039997996,4.0,1.0,phase_3,,,,,540.0,4.0,405.0,135.0,675.0,540.0,270.0,810.0,green,square
0.0,6.0,1.0,1.0,7.0,3.0,998.1482379998852,4.0,1.0,phase_3,,,,,960.0,5.0,576.0,768.0,960.0,192.0,1152.0,384.0,yellow,hexagon
0.0,3.0,2.0,0.0,7.0,2.0,1506.0112580003988,4.0,1.0,phase_3,,,,,519.0,3.0,1038.0,519.0,692.0,346.0,865.0,173.0,green,square
0.0,1.0,0.5,0.0,7.0,2.0,2565.009203000045,4.0,1.0,phase_3,,,,,692.0,4.0,346.0,692.0,173.0,1038.0,865.0,519.0,magenta,cross
0.0,8.0,4.0,1.0,7.0,2.0,1711.9388370001616,4.0,1.0,phase_3,,,,,384.0,2.0,768.0,384.0,192.0,960.0,1152.0,576.0,cyan,diamond
0.0,6.0,1.0,1.0,7.0,6.0,940.9270689993718,4.0,1.0,phase_3,,,,,576.0,3.0,768.0,384.0,192.0,1152.0,960.0,576.0,yellow,hexagon
0.0,5.0,0.5,1.0,7.0,3.0,1336.2293150003095,4.0,1.0,phase_3,,,,,384.0,2.0,576.0,768.0,384.0,192.0,960.0,1152.0,blue,flipped triangle
0.0,7.0,2.0,1.0,7.0,1.0,1280.090638000729,4.0,1.0,phase_3,,,,,192.0,1.0,192.0,1152.0,960.0,384.0,768.0,576.0,gray,triangle
0.0,4.0,4.0,0.0,7.0,4.0,1250.9837429997788,4.0,1.0,phase_3,,,,,346.0,2.0,173.0,519.0,692.0,346.0,865.0,1038.0,orange,circle
0.0,3.0,2.0,0.0,7.0,2.0,1309.2292330002238,4.0,1.0,phase_3,,,,,154.0,1.0,462.0,154.0,924.0,616.0,308.0,770.0,green,square
