raw_reward_magnitude,stim_reward,stepwise_reward_magnitude,paired_with_stopping,stim_location,response,reaction_time,block,num_trial_presentations,which_phase,stop_signal_trial_type,left_SSD,right_SSD,accuracy,chosen_bidding_amount,chosen_bidding_level,possible_bid_1,possible_bid_2,possible_bid_3,possible_bid_4,possible_bid_5,possible_bid_6,color_text,shape_text
347.0,2.0,1.0,0.0,3.0,3.0,761.2641930002155,1.0,1.0,phase_1,,,,,,,,,,,,,gray,triangle
146.0,1.0,0.5,0.0,2.0,2.0,603.7132639999072,1.0,1.0,phase_1,,,,,,,,,,,,,green,square
344.0,6.0,1.0,1.0,3.0,3.0,436.5754770001331,1.0,1.0,phase_1,,,,,,,,,,,,,cyan,I
146.0,5.0,0.5,1.0,3.0,3.0,423.5263470000063,1.0,1.0,phase_1,,,,,,,,,,,,,white,cross
349.0,2.0,1.0,0.0,3.0,3.0,491.817396999977,1.0,1.0,phase_1,,,,,,,,,,,,,gray,triangle
1317.0,4.0,4.0,0.0,4.0,4.0,437.9224809999869,1.0,1.0,phase_1,,,,,,,,,,,,,blue,flipped triangle
154.0,5.0,0.5,1.0,1.0,1.0,510.0883669999803,1.0,1.0,phase_1,,,,,,,,,,,,,white,cross
148.0,5.0,0.5,1.0,4.0,4.0,428.1687109998984,1.0,1.0,phase_1,,,,,,,,,,,,,white,cross
184.0,1.0,0.5,0.0,3.0,3.0,419.3427170000632,1.0,1.0,phase_1,,,,,,,,,,,,,green,square
1287.0,4.0,4.0,0.0,1.0,1.0,418.8114009998571,1.0,1.0,phase_1,,,,,,,,,,,,,blue,flipped triangle
654.0,7.0,2.0,1.0,3.0,3.0,427.7847979999478,1.0,1.0,phase_1,,,,,,,,,,,,,magenta,diamond
343.0,6.0,1.0,1.0,4.0,4.0,437.9759959999774,1.0,1.0,phase_1,,,,,,,,,,,,,cyan,I
0.0,6.0,0.0,1.0,1.0,1.0,437.4876770000355,1.0,2.0,phase_1,,,,,,,,,,,,,cyan,I
300.0,2.0,1.0,0.0,2.0,2.0,649.1801189999933,1.0,1.0,phase_1,,,,,,,,,,,,,gray,triangle
139.0,1.0,0.5,0.0,3.0,3.0,317.1023649999824,1.0,1.0,phase_1,,,,,,,,,,,,,green,square
649.0,3.0,2.0,0.0,2.0,2.0,557.1121190000667,1.0,1.0,phase_1,,,,,,,,,,,,,yellow,circle
1284.0,4.0,4.0,0.0,1.0,1.0,583.8984749998417,1.0,1.0,phase_1,,,,,,,,,,,,,blue,flipped triangle
0.0,7.0,0.0,1.0,2.0,2.0,759.3515820001357,1.0,1.0,phase_1,,,,,,,,,,,,,magenta,diamond
0.0,1.0,0.0,0.0,4.0,4.0,417.8344559998095,1.0,1.0,phase_1,,,,,,,,,,,,,green,square
151.0,1.0,0.5,0.0,2.0,2.0,558.692155000017,1.0,1.0,phase_1,,,,,,,,,,,,,green,square
1287.0,8.0,4.0,1.0,4.0,4.0,493.4477669999069,1.0,1.0,phase_1,,,,,,,,,,,,,orange,hexagon
0.0,1.0,0.0,0.0,1.0,1.0,445.6807429999116,1.0,1.0,phase_1,,,,,,,,,,,,,green,square
1280.0,4.0,4.0,0.0,2.0,2.0,542.0052959998429,1.0,1.0,phase_1,,,,,,,,,,,,,blue,flipped triangle
1305.0,4.0,4.0,0.0,3.0,3.0,454.9568360000648,1.0,1.0,phase_1,,,,,,,,,,,,,blue,flipped triangle
626.0,7.0,2.0,1.0,2.0,2.0,585.0699620000341,1.0,1.0,phase_1,,,,,,,,,,,,,magenta,diamond
1306.0,4.0,4.0,0.0,3.0,3.0,407.5080049999542,1.0,1.0,phase_1,,,,,,,,,,,,,blue,flipped triangle
323.0,2.0,1.0,0.0,3.0,3.0,436.3372770001206,1.0,1.0,phase_1,,,,,,,,,,,,,gray,triangle
1316.0,4.0,4.0,0.0,4.0,4.0,436.2758129998383,1.0,1.0,phase_1,,,,,,,,,,,,,blue,flipped triangle
1297.0,4.0,4.0,0.0,2.0,2.0,482.2373650001736,1.0,1.0,phase_1,,,,,,,,,,,,,blue,flipped triangle
158.0,5.0,0.5,1.0,2.0,2.0,492.5028169998313,1.0,1.0,phase_1,,,,,,,,,,,,,white,cross
333.0,6.0,1.0,1.0,1.0,1.0,422.6701009999942,1.0,1.0,phase_1,,,,,,,,,,,,,cyan,I
0.0,1.0,0.0,0.0,3.0,3.0,469.4137540000156,1.0,1.0,phase_1,,,,,,,,,,,,,green,square
653.0,7.0,2.0,1.0,1.0,1.0,468.388940000068,1.0,1.0,phase_1,,,,,,,,,,,,,magenta,diamond
139.0,5.0,0.5,1.0,1.0,1.0,520.1416410000093,1.0,1.0,phase_1,,,,,,,,,,,,,white,cross
166.0,1.0,0.5,0.0,2.0,2.0,466.5581859999292,1.0,5.0,phase_1,,,,,,,,,,,,,green,square
0.0,5.0,0.0,1.0,4.0,4.0,596.6102990000763,1.0,1.0,phase_1,,,,,,,,,,,,,white,cross
0.0,7.0,0.0,1.0,2.0,2.0,576.0719300001256,1.0,1.0,phase_1,,,,,,,,,,,,,magenta,diamond
645.0,7.0,2.0,1.0,4.0,4.0,847.3696860000928,1.0,1.0,phase_1,,,,,,,,,,,,,magenta,diamond
0.0,1.0,0.0,0.0,3.0,3.0,531.5446939998765,1.0,1.0,phase_1,,,,,,,,,,,,,green,square
674.0,3.0,2.0,0.0,1.0,1.0,540.1990840000508,1.0,1.0,phase_1,,,,,,,,,,,,,yellow,circle
168.0,5.0,0.5,1.0,1.0,1.0,548.5023539999929,1.0,1.0,phase_1,,,,,,,,,,,,,white,cross
326.0,2.0,1.0,0.0,3.0,3.0,540.6704900001387,1.0,1.0,phase_1,,,,,,,,,,,,,gray,triangle
311.0,2.0,1.0,0.0,4.0,4.0,436.1352229998374,1.0,1.0,phase_1,,,,,,,,,,,,,gray,triangle
328.0,6.0,1.0,1.0,4.0,4.0,408.5822140000346,1.0,1.0,phase_1,,,,,,,,,,,,,cyan,I
660.0,7.0,2.0,1.0,2.0,2.0,454.8797610000292,1.0,1.0,phase_1,,,,,,,,,,,,,magenta,diamond
0.0,4.0,0.0,0.0,4.0,4.0,520.4480200000035,1.0,1.0,phase_1,,,,,,,,,,,,,blue,flipped triangle
0.0,6.0,0.0,1.0,3.0,3.0,464.2406309999387,1.0,1.0,phase_1,,,,,,,,,,,,,cyan,I
300.0,6.0,1.0,1.0,1.0,1.0,334.488581999949,1.0,2.0,phase_1,,,,,,,,,,,,,cyan,I
1283.0,8.0,4.0,1.0,2.0,2.0,380.5786919999718,1.0,2.0,phase_1,,,,,,,,,,,,,orange,hexagon
1317.0,8.0,4.0,1.0,1.0,1.0,564.9186419998387,1.0,1.0,phase_1,,,,,,,,,,,,,orange,hexagon
185.0,5.0,0.5,1.0,2.0,2.0,548.0652799999461,1.0,1.0,phase_1,,,,,,,,,,,,,white,cross
1293.0,4.0,4.0,0.0,2.0,2.0,437.5885900001321,1.0,1.0,phase_1,,,,,,,,,,,,,blue,flipped triangle
179.0,1.0,0.5,0.0,3.0,3.0,510.12219800009007,1.0,1.0,phase_1,,,,,,,,,,,,,green,square
1296.0,8.0,4.0,1.0,2.0,2.0,472.7123130001018,1.0,1.0,phase_1,,,,,,,,,,,,,orange,hexagon
179.0,5.0,0.5,1.0,3.0,3.0,399.779843000033,1.0,1.0,phase_1,,,,,,,,,,,,,white,cross
647.0,3.0,2.0,0.0,4.0,4.0,473.1467909998628,1.0,1.0,phase_1,,,,,,,,,,,,,yellow,circle
0.0,3.0,0.0,0.0,3.0,3.0,454.7138349998931,1.0,1.0,phase_1,,,,,,,,,,,,,yellow,circle
0.0,5.0,0.0,1.0,1.0,1.0,448.136975999887,1.0,1.0,phase_1,,,,,,,,,,,,,white,cross
1277.0,4.0,4.0,0.0,2.0,2.0,475.5453489999581,1.0,1.0,phase_1,,,,,,,,,,,,,blue,flipped triangle
338.0,6.0,1.0,1.0,3.0,3.0,408.2799080001678,1.0,1.0,phase_1,,,,,,,,,,,,,cyan,I
664.0,3.0,2.0,0.0,3.0,3.0,500.4979770001228,1.0,1.0,phase_1,,,,,,,,,,,,,yellow,circle
661.0,7.0,2.0,1.0,1.0,1.0,566.1418429999685,1.0,1.0,phase_1,,,,,,,,,,,,,magenta,diamond
1323.0,4.0,4.0,0.0,2.0,2.0,556.5004069999304,1.0,1.0,phase_1,,,,,,,,,,,,,blue,flipped triangle
1291.0,8.0,4.0,1.0,3.0,3.0,342.7674550000574,1.0,1.0,phase_1,,,,,,,,,,,,,orange,hexagon
344.0,2.0,1.0,0.0,4.0,4.0,510.47418899997865,1.0,1.0,phase_1,,,,,,,,,,,,,gray,triangle
645.0,3.0,2.0,0.0,2.0,2.0,611.3301119999051,1.0,1.0,phase_1,,,,,,,,,,,,,yellow,circle
0.0,5.0,0.0,1.0,3.0,3.0,390.0083319999794,1.0,1.0,phase_1,,,,,,,,,,,,,white,cross
1310.0,4.0,4.0,0.0,4.0,4.0,361.1475799998516,1.0,1.0,phase_1,,,,,,,,,,,,,blue,flipped triangle
672.0,7.0,2.0,1.0,1.0,1.0,427.3873500001173,1.0,1.0,phase_1,,,,,,,,,,,,,magenta,diamond
0.0,7.0,0.0,1.0,1.0,1.0,594.2196999999396,1.0,1.0,phase_1,,,,,,,,,,,,,magenta,diamond
0.0,6.0,0.0,1.0,4.0,4.0,528.1205539999974,1.0,1.0,phase_1,,,,,,,,,,,,,cyan,I
0.0,3.0,0.0,0.0,1.0,1.0,390.5107979999229,1.0,2.0,phase_1,,,,,,,,,,,,,yellow,circle
139.0,1.0,0.5,0.0,4.0,4.0,482.4859809998543,1.0,1.0,phase_1,,,,,,,,,,,,,green,square
155.0,1.0,0.5,0.0,1.0,1.0,436.8613890001143,1.0,1.0,phase_1,,,,,,,,,,,,,green,square
660.0,3.0,2.0,0.0,2.0,2.0,307.0746470000358,1.0,2.0,phase_1,,,,,,,,,,,,,yellow,circle
166.0,5.0,0.5,1.0,3.0,3.0,388.6804119999851,1.0,1.0,phase_1,,,,,,,,,,,,,white,cross
0.0,8.0,0.0,1.0,3.0,3.0,391.0088389998236,1.0,1.0,phase_1,,,,,,,,,,,,,orange,hexagon
309.0,6.0,1.0,1.0,2.0,2.0,585.0867859999198,1.0,1.0,phase_1,,,,,,,,,,,,,cyan,I
0.0,7.0,0.0,1.0,1.0,1.0,502.6585420000629,1.0,1.0,phase_1,,,,,,,,,,,,,magenta,diamond
324.0,2.0,1.0,0.0,1.0,1.0,491.9719770000483,1.0,1.0,phase_1,,,,,,,,,,,,,gray,triangle
309.0,2.0,1.0,0.0,2.0,2.0,732.2978689999218,1.0,1.0,phase_1,,,,,,,,,,,,,gray,triangle
1293.0,8.0,4.0,1.0,3.0,3.0,472.6606629999423,1.0,1.0,phase_1,,,,,,,,,,,,,orange,hexagon
0.0,3.0,0.0,0.0,4.0,4.0,545.5549969999538,1.0,1.0,phase_1,,,,,,,,,,,,,yellow,circle
630.0,3.0,2.0,0.0,3.0,3.0,408.9539300000524,1.0,1.0,phase_1,,,,,,,,,,,,,yellow,circle
659.0,7.0,2.0,1.0,2.0,2.0,419.2792520000239,1.0,1.0,phase_1,,,,,,,,,,,,,magenta,diamond
1276.0,4.0,4.0,0.0,3.0,3.0,390.9149589999288,1.0,1.0,phase_1,,,,,,,,,,,,,blue,flipped triangle
641.0,7.0,2.0,1.0,3.0,3.0,399.6288860000732,1.0,1.0,phase_1,,,,,,,,,,,,,magenta,diamond
0.0,1.0,0.0,0.0,2.0,2.0,347.5862419998066,1.0,1.0,phase_1,,,,,,,,,,,,,green,square
1283.0,4.0,4.0,0.0,3.0,3.0,371.2008730001344,1.0,1.0,phase_1,,,,,,,,,,,,,blue,flipped triangle
626.0,3.0,2.0,0.0,1.0,1.0,650.7994579999377,1.0,1.0,phase_1,,,,,,,,,,,,,yellow,circle
634.0,3.0,2.0,0.0,1.0,1.0,539.0929929999402,1.0,1.0,phase_1,,,,,,,,,,,,,yellow,circle
672.0,3.0,2.0,0.0,4.0,4.0,482.5692920001074,1.0,1.0,phase_1,,,,,,,,,,,,,yellow,circle
320.0,2.0,1.0,0.0,1.0,1.0,453.6658829999851,1.0,1.0,phase_1,,,,,,,,,,,,,gray,triangle
1306.0,8.0,4.0,1.0,3.0,3.0,410.3029840000545,1.0,1.0,phase_1,,,,,,,,,,,,,orange,hexagon
0.0,8.0,0.0,1.0,2.0,2.0,453.8741179999306,1.0,1.0,phase_1,,,,,,,,,,,,,orange,hexagon
657.0,7.0,2.0,1.0,4.0,4.0,454.3904910001402,1.0,1.0,phase_1,,,,,,,,,,,,,magenta,diamond
334.0,6.0,1.0,1.0,2.0,2.0,538.939229999869,1.0,1.0,phase_1,,,,,,,,,,,,,cyan,I
665.0,3.0,2.0,0.0,1.0,1.0,464.7298729998965,1.0,1.0,phase_1,,,,,,,,,,,,,yellow,circle
0.0,3.0,0.0,0.0,1.0,1.0,363.8909899998452,1.0,1.0,phase_1,,,,,,,,,,,,,yellow,circle
664.0,7.0,2.0,1.0,1.0,1.0,463.9112369998202,1.0,1.0,phase_1,,,,,,,,,,,,,magenta,diamond
1309.0,8.0,4.0,1.0,4.0,4.0,427.9889470001308,2.0,1.0,phase_1,,,,,,,,,,,,,orange,hexagon
0.0,7.0,0.0,1.0,2.0,2.0,565.7954759999484,2.0,2.0,phase_1,,,,,,,,,,,,,magenta,diamond
162.0,5.0,0.5,1.0,1.0,1.0,537.9835479998292,2.0,2.0,phase_1,,,,,,,,,,,,,white,cross
0.0,5.0,0.0,1.0,1.0,1.0,547.9694030000246,2.0,1.0,phase_1,,,,,,,,,,,,,white,cross
630.0,3.0,2.0,0.0,2.0,2.0,334.6587010000803,2.0,2.0,phase_1,,,,,,,,,,,,,yellow,circle
1293.0,4.0,4.0,0.0,4.0,4.0,521.256115000142,2.0,1.0,phase_1,,,,,,,,,,,,,blue,flipped triangle
350.0,6.0,1.0,1.0,1.0,1.0,528.9978539999538,2.0,1.0,phase_1,,,,,,,,,,,,,cyan,I
661.0,3.0,2.0,0.0,4.0,4.0,446.6178400000444,2.0,1.0,phase_1,,,,,,,,,,,,,yellow,circle
649.0,7.0,2.0,1.0,4.0,4.0,528.1319929999881,2.0,1.0,phase_1,,,,,,,,,,,,,magenta,diamond
173.0,5.0,0.5,1.0,4.0,4.0,435.7918430000609,2.0,1.0,phase_1,,,,,,,,,,,,,white,cross
335.0,2.0,1.0,0.0,4.0,4.0,466.0911920000217,2.0,1.0,phase_1,,,,,,,,,,,,,gray,triangle
182.0,5.0,0.5,1.0,1.0,1.0,538.5755660001905,2.0,2.0,phase_1,,,,,,,,,,,,,white,cross
315.0,6.0,1.0,1.0,4.0,4.0,482.1470730000783,2.0,1.0,phase_1,,,,,,,,,,,,,cyan,I
1305.0,8.0,4.0,1.0,4.0,4.0,426.300609000009,2.0,1.0,phase_1,,,,,,,,,,,,,orange,hexagon
0.0,3.0,0.0,0.0,3.0,3.0,454.0344659999391,2.0,1.0,phase_1,,,,,,,,,,,,,yellow,circle
640.0,7.0,2.0,1.0,4.0,4.0,417.6208400001542,2.0,1.0,phase_1,,,,,,,,,,,,,magenta,diamond
333.0,2.0,1.0,0.0,4.0,4.0,474.7327269999459,2.0,1.0,phase_1,,,,,,,,,,,,,gray,triangle
1320.0,4.0,4.0,0.0,4.0,4.0,361.0055240001202,2.0,1.0,phase_1,,,,,,,,,,,,,blue,flipped triangle
148.0,1.0,0.5,0.0,1.0,1.0,417.3300309998922,2.0,2.0,phase_1,,,,,,,,,,,,,green,square
302.0,2.0,1.0,0.0,4.0,4.0,501.3370090000535,2.0,1.0,phase_1,,,,,,,,,,,,,gray,triangle
1287.0,4.0,4.0,0.0,3.0,3.0,461.1290530001497,2.0,1.0,phase_1,,,,,,,,,,,,,blue,flipped triangle
312.0,6.0,1.0,1.0,3.0,3.0,426.4283659999819,2.0,1.0,phase_1,,,,,,,,,,,,,cyan,I
315.0,2.0,1.0,0.0,2.0,2.0,587.3139200000423,2.0,1.0,phase_1,,,,,,,,,,,,,gray,triangle
634.0,7.0,2.0,1.0,2.0,2.0,555.0883769999473,2.0,1.0,phase_1,,,,,,,,,,,,,magenta,diamond
330.0,2.0,1.0,0.0,1.0,1.0,593.5239390000788,2.0,1.0,phase_1,,,,,,,,,,,,,gray,triangle
1289.0,8.0,4.0,1.0,2.0,2.0,591.8828730000314,2.0,1.0,phase_1,,,,,,,,,,,,,orange,hexagon
627.0,7.0,2.0,1.0,2.0,2.0,501.71602699992945,2.0,1.0,phase_1,,,,,,,,,,,,,magenta,diamond
1313.0,4.0,4.0,0.0,4.0,4.0,444.2040769999948,2.0,1.0,phase_1,,,,,,,,,,,,,blue,flipped triangle
626.0,7.0,2.0,1.0,1.0,1.0,903.4367119998024,2.0,1.0,phase_1,,,,,,,,,,,,,magenta,diamond
1310.0,8.0,4.0,1.0,1.0,1.0,421.0722830000577,2.0,1.0,phase_1,,,,,,,,,,,,,orange,hexagon
641.0,7.0,2.0,1.0,3.0,3.0,408.3657489998131,2.0,1.0,phase_1,,,,,,,,,,,,,magenta,diamond
0.0,6.0,0.0,1.0,2.0,2.0,529.5181050000792,2.0,1.0,phase_1,,,,,,,,,,,,,cyan,I
0.0,5.0,0.0,1.0,1.0,1.0,529.3820080000842,2.0,1.0,phase_1,,,,,,,,,,,,,white,cross
0.0,3.0,0.0,0.0,1.0,1.0,430.2577889998247,2.0,1.0,phase_1,,,,,,,,,,,,,yellow,circle
665.0,7.0,2.0,1.0,3.0,3.0,418.9458000000741,2.0,1.0,phase_1,,,,,,,,,,,,,magenta,diamond
1320.0,8.0,4.0,1.0,1.0,1.0,501.95030300005783,2.0,1.0,phase_1,,,,,,,,,,,,,orange,hexagon
0.0,6.0,0.0,1.0,3.0,3.0,399.5340419999138,2.0,1.0,phase_1,,,,,,,,,,,,,cyan,I
301.0,2.0,1.0,0.0,3.0,3.0,435.6164010000611,2.0,1.0,phase_1,,,,,,,,,,,,,gray,triangle
0.0,1.0,0.0,0.0,1.0,1.0,435.6758479998461,2.0,1.0,phase_1,,,,,,,,,,,,,green,square
1299.0,8.0,4.0,1.0,4.0,4.0,482.5895169999512,2.0,1.0,phase_1,,,,,,,,,,,,,orange,hexagon
350.0,2.0,1.0,0.0,3.0,3.0,352.003434000153,2.0,1.0,phase_1,,,,,,,,,,,,,gray,triangle
186.0,1.0,0.5,0.0,1.0,1.0,381.0994099999334,2.0,1.0,phase_1,,,,,,,,,,,,,green,square
334.0,2.0,1.0,0.0,2.0,2.0,704.9278609999874,2.0,1.0,phase_1,,,,,,,,,,,,,gray,triangle
1278.0,4.0,4.0,0.0,3.0,3.0,370.1274899999589,2.0,1.0,phase_1,,,,,,,,,,,,,blue,flipped triangle
339.0,6.0,1.0,1.0,4.0,4.0,472.8740879997986,2.0,1.0,phase_1,,,,,,,,,,,,,cyan,I
649.0,3.0,2.0,0.0,1.0,1.0,373.6032140000134,2.0,1.0,phase_1,,,,,,,,,,,,,yellow,circle
147.0,5.0,0.5,1.0,3.0,3.0,418.1092859998898,2.0,1.0,phase_1,,,,,,,,,,,,,white,cross
318.0,6.0,1.0,1.0,2.0,2.0,455.9429690000343,2.0,1.0,phase_1,,,,,,,,,,,,,cyan,I
151.0,5.0,0.5,1.0,4.0,4.0,483.4075199999006,2.0,1.0,phase_1,,,,,,,,,,,,,white,cross
0.0,4.0,0.0,0.0,3.0,3.0,483.0276319999029,2.0,1.0,phase_1,,,,,,,,,,,,,blue,flipped triangle
655.0,7.0,2.0,1.0,2.0,2.0,547.2662970000783,2.0,1.0,phase_1,,,,,,,,,,,,,magenta,diamond
1317.0,4.0,4.0,0.0,1.0,1.0,528.911257000118,2.0,1.0,phase_1,,,,,,,,,,,,,blue,flipped triangle
158.0,1.0,0.5,0.0,1.0,1.0,464.223162999815,2.0,1.0,phase_1,,,,,,,,,,,,,green,square
156.0,1.0,0.5,0.0,4.0,4.0,586.4510290000453,2.0,2.0,phase_1,,,,,,,,,,,,,green,square
0.0,4.0,0.0,0.0,4.0,4.0,548.3273469999403,2.0,1.0,phase_1,,,,,,,,,,,,,blue,flipped triangle
653.0,7.0,2.0,1.0,1.0,1.0,555.9629049998875,2.0,1.0,phase_1,,,,,,,,,,,,,magenta,diamond
184.0,1.0,0.5,0.0,2.0,2.0,512.2061699998994,2.0,1.0,phase_1,,,,,,,,,,,,,green,square
184.0,5.0,0.5,1.0,3.0,3.0,417.0255179999458,2.0,1.0,phase_1,,,,,,,,,,,,,white,cross
301.0,6.0,1.0,1.0,2.0,2.0,520.0487639999665,2.0,1.0,phase_1,,,,,,,,,,,,,cyan,I
654.0,3.0,2.0,0.0,1.0,1.0,398.1542609999451,2.0,1.0,phase_1,,,,,,,,,,,,,yellow,circle
0.0,2.0,0.0,0.0,2.0,2.0,388.5347099999308,2.0,2.0,phase_1,,,,,,,,,,,,,gray,triangle
184.0,5.0,0.5,1.0,1.0,1.0,648.5488820001137,2.0,1.0,phase_1,,,,,,,,,,,,,white,cross
322.0,6.0,1.0,1.0,4.0,4.0,666.7185209998934,2.0,1.0,phase_1,,,,,,,,,,,,,cyan,I
0.0,2.0,0.0,0.0,1.0,1.0,694.571427000028,2.0,1.0,phase_1,,,,,,,,,,,,,gray,triangle
663.0,7.0,2.0,1.0,2.0,2.0,463.1310980000762,2.0,1.0,phase_1,,,,,,,,,,,,,magenta,diamond
186.0,5.0,0.5,1.0,3.0,3.0,308.0168609999418,2.0,1.0,phase_1,,,,,,,,,,,,,white,cross
673.0,3.0,2.0,0.0,2.0,2.0,389.1152259998307,2.0,1.0,phase_1,,,,,,,,,,,,,yellow,circle
312.0,2.0,1.0,0.0,4.0,4.0,418.2093290000921,2.0,2.0,phase_1,,,,,,,,,,,,,gray,triangle
146.0,5.0,0.5,1.0,4.0,4.0,483.5676730003797,2.0,1.0,phase_1,,,,,,,,,,,,,white,cross
320.0,6.0,1.0,1.0,4.0,4.0,493.1171740004174,2.0,1.0,phase_1,,,,,,,,,,,,,cyan,I
322.0,2.0,1.0,0.0,2.0,2.0,588.7364820000585,2.0,1.0,phase_1,,,,,,,,,,,,,gray,triangle
306.0,2.0,1.0,0.0,3.0,3.0,407.9470069996205,2.0,1.0,phase_1,,,,,,,,,,,,,gray,triangle
667.0,3.0,2.0,0.0,1.0,1.0,408.4505970004102,2.0,2.0,phase_1,,,,,,,,,,,,,yellow,circle
628.0,3.0,2.0,0.0,2.0,2.0,714.8933640000905,2.0,1.0,phase_1,,,,,,,,,,,,,yellow,circle
0.0,5.0,0.0,1.0,3.0,3.0,453.8110620001134,2.0,1.0,phase_1,,,,,,,,,,,,,white,cross
1304.0,4.0,4.0,0.0,4.0,4.0,473.6049779999121,2.0,1.0,phase_1,,,,,,,,,,,,,blue,flipped triangle
1278.0,8.0,4.0,1.0,2.0,2.0,521.6505020002842,2.0,1.0,phase_1,,,,,,,,,,,,,orange,hexagon
160.0,1.0,0.5,0.0,2.0,2.0,408.4511219998603,2.0,1.0,phase_1,,,,,,,,,,,,,green,square
1280.0,8.0,4.0,1.0,2.0,2.0,455.4984110000077,2.0,1.0,phase_1,,,,,,,,,,,,,orange,hexagon
1296.0,4.0,4.0,0.0,3.0,3.0,437.1820870001102,2.0,1.0,phase_1,,,,,,,,,,,,,blue,flipped triangle
332.0,2.0,1.0,0.0,2.0,2.0,446.9306820001293,2.0,1.0,phase_1,,,,,,,,,,,,,gray,triangle
0.0,8.0,0.0,1.0,4.0,4.0,528.5141720000865,2.0,1.0,phase_1,,,,,,,,,,,,,orange,hexagon
634.0,3.0,2.0,0.0,3.0,3.0,603.7172209998971,2.0,1.0,phase_1,,,,,,,,,,,,,yellow,circle
640.0,3.0,2.0,0.0,2.0,2.0,363.6894950000169,2.0,1.0,phase_1,,,,,,,,,,,,,yellow,circle
0.0,3.0,0.0,0.0,3.0,3.0,417.1950929999184,2.0,1.0,phase_1,,,,,,,,,,,,,yellow,circle
0.0,2.0,0.0,0.0,1.0,1.0,595.3545910001594,2.0,1.0,phase_1,,,,,,,,,,,,,gray,triangle
339.0,2.0,1.0,0.0,1.0,1.0,606.2296549998791,2.0,1.0,phase_1,,,,,,,,,,,,,gray,triangle
653.0,3.0,2.0,0.0,3.0,3.0,344.0838569999869,2.0,1.0,phase_1,,,,,,,,,,,,,yellow,circle
1313.0,4.0,4.0,0.0,3.0,3.0,439.9920020000536,2.0,1.0,phase_1,,,,,,,,,,,,,blue,flipped triangle
350.0,6.0,1.0,1.0,4.0,4.0,528.6259519998566,2.0,1.0,phase_1,,,,,,,,,,,,,cyan,I
1302.0,4.0,4.0,0.0,4.0,4.0,567.3600929999338,2.0,1.0,phase_1,,,,,,,,,,,,,blue,flipped triangle
311.0,2.0,1.0,0.0,3.0,3.0,380.6895389998317,2.0,1.0,phase_1,,,,,,,,,,,,,gray,triangle
317.0,6.0,1.0,1.0,2.0,2.0,473.0609599996569,2.0,1.0,phase_1,,,,,,,,,,,,,cyan,I
0.0,8.0,0.0,1.0,4.0,4.0,557.1594129996811,2.0,1.0,phase_1,,,,,,,,,,,,,orange,hexagon
1318.0,8.0,4.0,1.0,3.0,3.0,324.7503769998729,2.0,1.0,phase_1,,,,,,,,,,,,,orange,hexagon
1284.0,8.0,4.0,1.0,2.0,2.0,483.9494569996532,2.0,2.0,phase_1,,,,,,,,,,,,,orange,hexagon
326.0,6.0,1.0,1.0,4.0,4.0,444.2227919998913,2.0,1.0,phase_1,,,,,,,,,,,,,cyan,I
0.0,6.0,0.0,1.0,2.0,2.0,425.7650769995962,2.0,1.0,phase_1,,,,,,,,,,,,,cyan,I
1283.0,8.0,4.0,1.0,4.0,4.0,529.8513560001084,2.0,2.0,phase_1,,,,,,,,,,,,,orange,hexagon
0.0,1.0,0.0,0.0,1.0,1.0,538.9298209997833,2.0,1.0,phase_1,,,,,,,,,,,,,green,square
179.0,1.0,0.5,0.0,2.0,2.0,463.1119119999312,3.0,1.0,phase_1,,,,,,,,,,,,,green,square
667.0,7.0,2.0,1.0,3.0,3.0,417.3083559999213,3.0,1.0,phase_1,,,,,,,,,,,,,magenta,diamond
1317.0,8.0,4.0,1.0,2.0,2.0,489.9558839997553,3.0,1.0,phase_1,,,,,,,,,,,,,orange,hexagon
344.0,6.0,1.0,1.0,1.0,1.0,508.87327100008406,3.0,1.0,phase_1,,,,,,,,,,,,,cyan,I
0.0,4.0,0.0,0.0,3.0,3.0,379.4434189999265,3.0,1.0,phase_1,,,,,,,,,,,,,blue,flipped triangle
162.0,1.0,0.5,0.0,3.0,3.0,436.0543709999547,3.0,1.0,phase_1,,,,,,,,,,,,,green,square
626.0,3.0,2.0,0.0,3.0,3.0,380.5016609999256,3.0,1.0,phase_1,,,,,,,,,,,,,yellow,circle
1313.0,8.0,4.0,1.0,3.0,3.0,381.0093800002505,3.0,1.0,phase_1,,,,,,,,,,,,,orange,hexagon
639.0,3.0,2.0,0.0,3.0,3.0,362.5055610000345,3.0,1.0,phase_1,,,,,,,,,,,,,yellow,circle
0.0,7.0,0.0,1.0,3.0,3.0,342.5354500000139,3.0,1.0,phase_1,,,,,,,,,,,,,magenta,diamond
1310.0,8.0,4.0,1.0,2.0,2.0,508.84726300000693,3.0,1.0,phase_1,,,,,,,,,,,,,orange,hexagon
164.0,1.0,0.5,0.0,1.0,1.0,508.5700619997624,3.0,1.0,phase_1,,,,,,,,,,,,,green,square
635.0,7.0,2.0,1.0,1.0,1.0,443.4690670000236,3.0,1.0,phase_1,,,,,,,,,,,,,magenta,diamond
0.0,6.0,0.0,1.0,4.0,4.0,573.9346949999344,3.0,1.0,phase_1,,,,,,,,,,,,,cyan,I
163.0,1.0,0.5,0.0,3.0,3.0,287.1135850000428,3.0,1.0,phase_1,,,,,,,,,,,,,green,square
653.0,3.0,2.0,0.0,4.0,4.0,487.1935710002617,3.0,1.0,phase_1,,,,,,,,,,,,,yellow,circle
634.0,7.0,2.0,1.0,4.0,4.0,465.0836430000709,3.0,1.0,phase_1,,,,,,,,,,,,,magenta,diamond
0.0,8.0,0.0,1.0,3.0,3.0,324.2133490002743,3.0,1.0,phase_1,,,,,,,,,,,,,orange,hexagon
630.0,7.0,2.0,1.0,3.0,3.0,425.9423979997336,3.0,1.0,phase_1,,,,,,,,,,,,,magenta,diamond
350.0,2.0,1.0,0.0,3.0,3.0,333.7065219998294,3.0,1.0,phase_1,,,,,,,,,,,,,gray,triangle
657.0,7.0,2.0,1.0,1.0,1.0,462.8275879999819,3.0,1.0,phase_1,,,,,,,,,,,,,magenta,diamond
630.0,7.0,2.0,1.0,4.0,4.0,452.9057539998575,3.0,1.0,phase_1,,,,,,,,,,,,,magenta,diamond
1309.0,4.0,4.0,0.0,2.0,2.0,425.8194809999622,3.0,1.0,phase_1,,,,,,,,,,,,,blue,flipped triangle
324.0,6.0,1.0,1.0,3.0,3.0,370.9446299999399,3.0,1.0,phase_1,,,,,,,,,,,,,cyan,I
649.0,7.0,2.0,1.0,2.0,2.0,667.7652220000709,3.0,1.0,phase_1,,,,,,,,,,,,,magenta,diamond
0.0,2.0,0.0,0.0,4.0,4.0,454.6102140002404,3.0,1.0,phase_1,,,,,,,,,,,,,gray,triangle
1298.0,8.0,4.0,1.0,1.0,1.0,436.1242830000265,3.0,1.0,phase_1,,,,,,,,,,,,,orange,hexagon
640.0,7.0,2.0,1.0,3.0,3.0,391.2244660000397,3.0,1.0,phase_1,,,,,,,,,,,,,magenta,diamond
154.0,1.0,0.5,0.0,2.0,2.0,481.1230179998347,3.0,1.0,phase_1,,,,,,,,,,,,,green,square
302.0,6.0,1.0,1.0,2.0,2.0,407.6305300000058,3.0,1.0,phase_1,,,,,,,,,,,,,cyan,I
338.0,6.0,1.0,1.0,3.0,3.0,353.3078360001127,3.0,1.0,phase_1,,,,,,,,,,,,,cyan,I
641.0,3.0,2.0,0.0,1.0,1.0,473.1844529997033,3.0,1.0,phase_1,,,,,,,,,,,,,yellow,circle
0.0,3.0,0.0,0.0,2.0,2.0,402.3574349998853,3.0,1.0,phase_1,,,,,,,,,,,,,yellow,circle
176.0,5.0,0.5,1.0,1.0,1.0,527.6792839999871,3.0,1.0,phase_1,,,,,,,,,,,,,white,cross
1309.0,4.0,4.0,0.0,3.0,3.0,410.2815589999409,3.0,1.0,phase_1,,,,,,,,,,,,,blue,flipped triangle
160.0,5.0,0.5,1.0,4.0,4.0,564.8929150002004,3.0,1.0,phase_1,,,,,,,,,,,,,white,cross
651.0,7.0,2.0,1.0,2.0,2.0,472.9372629999488,3.0,1.0,phase_1,,,,,,,,,,,,,magenta,diamond
0.0,5.0,0.0,1.0,1.0,1.0,613.0835789999765,3.0,1.0,phase_1,,,,,,,,,,,,,white,cross
160.0,5.0,0.5,1.0,2.0,2.0,490.8481659999779,3.0,1.0,phase_1,,,,,,,,,,,,,white,cross
344.0,2.0,1.0,0.0,4.0,4.0,465.9441230000993,3.0,2.0,phase_1,,,,,,,,,,,,,gray,triangle
1283.0,4.0,4.0,0.0,1.0,1.0,379.762952999954,3.0,1.0,phase_1,,,,,,,,,,,,,blue,flipped triangle
1302.0,8.0,4.0,1.0,3.0,3.0,427.2649810000075,3.0,1.0,phase_1,,,,,,,,,,,,,orange,hexagon
667.0,7.0,2.0,1.0,1.0,1.0,631.9138740000199,3.0,1.0,phase_1,,,,,,,,,,,,,magenta,diamond
647.0,7.0,2.0,1.0,3.0,3.0,380.1612309998745,3.0,1.0,phase_1,,,,,,,,,,,,,magenta,diamond
1289.0,4.0,4.0,0.0,2.0,2.0,438.1291209997471,3.0,1.0,phase_1,,,,,,,,,,,,,blue,flipped triangle
0.0,7.0,0.0,1.0,3.0,3.0,371.6506850000769,3.0,1.0,phase_1,,,,,,,,,,,,,magenta,diamond
165.0,5.0,0.5,1.0,3.0,3.0,436.6785470001559,3.0,1.0,phase_1,,,,,,,,,,,,,white,cross
1283.0,8.0,4.0,1.0,1.0,1.0,519.0616790000604,3.0,1.0,phase_1,,,,,,,,,,,,,orange,hexagon
0.0,4.0,0.0,0.0,4.0,4.0,427.7848319998156,3.0,1.0,phase_1,,,,,,,,,,,,,blue,flipped triangle
171.0,1.0,0.5,0.0,4.0,4.0,454.2576530002407,3.0,1.0,phase_1,,,,,,,,,,,,,green,square
1277.0,8.0,4.0,1.0,1.0,1.0,546.4973060002194,3.0,1.0,phase_1,,,,,,,,,,,,,orange,hexagon
1291.0,4.0,4.0,0.0,4.0,4.0,844.4491800000833,3.0,1.0,phase_1,,,,,,,,,,,,,blue,flipped triangle
635.0,3.0,2.0,0.0,3.0,3.0,362.1048269997118,3.0,1.0,phase_1,,,,,,,,,,,,,yellow,circle
659.0,3.0,2.0,0.0,2.0,2.0,418.5159390003719,3.0,1.0,phase_1,,,,,,,,,,,,,yellow,circle
165.0,1.0,0.5,0.0,2.0,2.0,528.8789030000771,3.0,1.0,phase_1,,,,,,,,,,,,,green,square
0.0,6.0,0.0,1.0,3.0,3.0,539.1919769999731,3.0,1.0,phase_1,,,,,,,,,,,,,cyan,I
155.0,1.0,0.5,0.0,4.0,4.0,612.8031769999325,3.0,1.0,phase_1,,,,,,,,,,,,,green,square
303.0,6.0,1.0,1.0,4.0,4.0,419.158427000184,3.0,1.0,phase_1,,,,,,,,,,,,,cyan,I
0.0,4.0,0.0,0.0,2.0,2.0,502.1204519998719,3.0,1.0,phase_1,,,,,,,,,,,,,blue,flipped triangle
1304.0,8.0,4.0,1.0,4.0,4.0,548.321742999633,3.0,1.0,phase_1,,,,,,,,,,,,,orange,hexagon
662.0,3.0,2.0,0.0,2.0,2.0,456.088002999877,3.0,1.0,phase_1,,,,,,,,,,,,,yellow,circle
630.0,7.0,2.0,1.0,4.0,4.0,499.8004640001454,3.0,1.0,phase_1,,,,,,,,,,,,,magenta,diamond
161.0,5.0,0.5,1.0,3.0,3.0,502.8309269996498,3.0,1.0,phase_1,,,,,,,,,,,,,white,cross
343.0,2.0,1.0,0.0,1.0,1.0,595.5487820001508,3.0,1.0,phase_1,,,,,,,,,,,,,gray,triangle
0.0,6.0,0.0,1.0,2.0,2.0,686.5789979997317,3.0,1.0,phase_1,,,,,,,,,,,,,cyan,I
164.0,5.0,0.5,1.0,2.0,2.0,475.3264680002758,3.0,1.0,phase_1,,,,,,,,,,,,,white,cross
170.0,5.0,0.5,1.0,3.0,3.0,408.5674570001174,3.0,1.0,phase_1,,,,,,,,,,,,,white,cross
0.0,1.0,0.0,0.0,1.0,1.0,548.7005959998896,3.0,1.0,phase_1,,,,,,,,,,,,,green,square
176.0,5.0,0.5,1.0,4.0,4.0,536.9360150002649,3.0,1.0,phase_1,,,,,,,,,,,,,white,cross
156.0,5.0,0.5,1.0,4.0,4.0,732.6002039999366,3.0,1.0,phase_1,,,,,,,,,,,,,white,cross
1307.0,4.0,4.0,0.0,3.0,3.0,362.3683380001239,3.0,1.0,phase_1,,,,,,,,,,,,,blue,flipped triangle
0.0,1.0,0.0,0.0,2.0,2.0,519.9265950000154,3.0,2.0,phase_1,,,,,,,,,,,,,green,square
309.0,2.0,1.0,0.0,1.0,1.0,511.23336099999506,3.0,1.0,phase_1,,,,,,,,,,,,,gray,triangle
316.0,2.0,1.0,0.0,1.0,1.0,494.3740749999961,3.0,1.0,phase_1,,,,,,,,,,,,,gray,triangle
0.0,2.0,0.0,0.0,2.0,2.0,539.4268949999059,3.0,1.0,phase_1,,,,,,,,,,,,,gray,triangle
0.0,1.0,0.0,0.0,1.0,1.0,511.0858560001361,3.0,1.0,phase_1,,,,,,,,,,,,,green,square
0.0,4.0,0.0,0.0,4.0,4.0,483.5440090000702,3.0,1.0,phase_1,,,,,,,,,,,,,blue,flipped triangle
143.0,1.0,0.5,0.0,2.0,2.0,500.7384880000245,3.0,1.0,phase_1,,,,,,,,,,,,,green,square
157.0,1.0,0.5,0.0,4.0,4.0,454.5678060003411,3.0,1.0,phase_1,,,,,,,,,,,,,green,square
154.0,1.0,0.5,0.0,1.0,1.0,417.1044650001931,3.0,1.0,phase_1,,,,,,,,,,,,,green,square
1306.0,8.0,4.0,1.0,3.0,3.0,427.4248709998574,3.0,1.0,phase_1,,,,,,,,,,,,,orange,hexagon
0.0,8.0,0.0,1.0,4.0,4.0,464.1866150000169,3.0,1.0,phase_1,,,,,,,,,,,,,orange,hexagon
1284.0,4.0,4.0,0.0,2.0,2.0,603.4580690002258,3.0,1.0,phase_1,,,,,,,,,,,,,blue,flipped triangle
182.0,1.0,0.5,0.0,4.0,4.0,585.5931349997263,3.0,1.0,phase_1,,,,,,,,,,,,,green,square
0.0,5.0,0.0,1.0,2.0,2.0,428.174207000211,3.0,1.0,phase_1,,,,,,,,,,,,,white,cross
176.0,1.0,0.5,0.0,4.0,4.0,753.770569000153,3.0,1.0,phase_1,,,,,,,,,,,,,green,square
157.0,5.0,0.5,1.0,2.0,2.0,475.26618099982437,3.0,1.0,phase_1,,,,,,,,,,,,,white,cross
0.0,2.0,0.0,0.0,4.0,4.0,528.3085589999246,3.0,1.0,phase_1,,,,,,,,,,,,,gray,triangle
1293.0,8.0,4.0,1.0,1.0,1.0,575.9313219996329,3.0,1.0,phase_1,,,,,,,,,,,,,orange,hexagon
662.0,7.0,2.0,1.0,4.0,4.0,528.6853759998849,3.0,1.0,phase_1,,,,,,,,,,,,,magenta,diamond
657.0,3.0,2.0,0.0,1.0,1.0,539.0376299997115,3.0,1.0,phase_1,,,,,,,,,,,,,yellow,circle
628.0,7.0,2.0,1.0,4.0,4.0,529.2023299998618,3.0,1.0,phase_1,,,,,,,,,,,,,magenta,diamond
323.0,6.0,1.0,1.0,1.0,1.0,557.6873810000507,3.0,1.0,phase_1,,,,,,,,,,,,,cyan,I
151.0,1.0,0.5,0.0,1.0,1.0,493.701308999789,3.0,1.0,phase_1,,,,,,,,,,,,,green,square
0.0,4.0,0.0,0.0,2.0,2.0,586.5000569997392,3.0,2.0,phase_1,,,,,,,,,,,,,blue,flipped triangle
655.0,3.0,2.0,0.0,4.0,4.0,605.2643819998593,3.0,1.0,phase_1,,,,,,,,,,,,,yellow,circle
155.0,5.0,0.5,1.0,1.0,1.0,494.0026640001633,3.0,1.0,phase_1,,,,,,,,,,,,,white,cross
313.0,6.0,1.0,1.0,1.0,1.0,447.0012639999368,3.0,1.0,phase_1,,,,,,,,,,,,,cyan,I
1283.0,4.0,4.0,0.0,1.0,1.0,482.257613999991,3.0,1.0,phase_1,,,,,,,,,,,,,blue,flipped triangle
1299.0,4.0,4.0,0.0,1.0,1.0,538.6302500000966,3.0,1.0,phase_1,,,,,,,,,,,,,blue,flipped triangle
309.0,6.0,1.0,1.0,2.0,2.0,583.6773330001961,4.0,1.0,phase_1,,,,,,,,,,,,,cyan,I
170.0,1.0,0.5,0.0,1.0,1.0,483.4674319999976,4.0,1.0,phase_1,,,,,,,,,,,,,green,square
147.0,1.0,0.5,0.0,4.0,4.0,482.2098640001968,4.0,1.0,phase_1,,,,,,,,,,,,,green,square
317.0,2.0,1.0,0.0,4.0,4.0,481.5353479998521,4.0,1.0,phase_1,,,,,,,,,,,,,gray,triangle
1306.0,4.0,4.0,0.0,2.0,2.0,512.7119599997059,4.0,1.0,phase_1,,,,,,,,,,,,,blue,flipped triangle
0.0,2.0,0.0,0.0,1.0,1.0,472.8276690002531,4.0,1.0,phase_1,,,,,,,,,,,,,gray,triangle
1289.0,8.0,4.0,1.0,3.0,3.0,409.2524389998289,4.0,1.0,phase_1,,,,,,,,,,,,,orange,hexagon
330.0,6.0,1.0,1.0,3.0,3.0,435.3308620002281,4.0,1.0,phase_1,,,,,,,,,,,,,cyan,I
0.0,8.0,0.0,1.0,1.0,1.0,482.8766180003185,4.0,1.0,phase_1,,,,,,,,,,,,,orange,hexagon
657.0,3.0,2.0,0.0,1.0,1.0,550.186450000183,4.0,1.0,phase_1,,,,,,,,,,,,,yellow,circle
1310.0,4.0,4.0,0.0,4.0,4.0,473.2950609995896,4.0,1.0,phase_1,,,,,,,,,,,,,blue,flipped triangle
306.0,6.0,1.0,1.0,1.0,1.0,389.4582080001783,4.0,1.0,phase_1,,,,,,,,,,,,,cyan,I
0.0,4.0,0.0,0.0,3.0,3.0,391.1253679998481,4.0,1.0,phase_1,,,,,,,,,,,,,blue,flipped triangle
1276.0,8.0,4.0,1.0,2.0,2.0,381.0516300000017,4.0,1.0,phase_1,,,,,,,,,,,,,orange,hexagon
303.0,2.0,1.0,0.0,2.0,2.0,409.03622299993,4.0,1.0,phase_1,,,,,,,,,,,,,gray,triangle
1321.0,8.0,4.0,1.0,4.0,4.0,521.0572270002558,4.0,1.0,phase_1,,,,,,,,,,,,,orange,hexagon
139.0,1.0,0.5,0.0,4.0,4.0,491.4657989997977,4.0,1.0,phase_1,,,,,,,,,,,,,green,square
1284.0,8.0,4.0,1.0,4.0,4.0,669.5358229999329,4.0,1.0,phase_1,,,,,,,,,,,,,orange,hexagon
326.0,6.0,1.0,1.0,2.0,2.0,690.0953479998861,4.0,1.0,phase_1,,,,,,,,,,,,,cyan,I
1297.0,8.0,4.0,1.0,1.0,1.0,605.4521510000086,4.0,1.0,phase_1,,,,,,,,,,,,,orange,hexagon
0.0,5.0,0.0,1.0,2.0,2.0,584.7223569999187,4.0,1.0,phase_1,,,,,,,,,,,,,white,cross
171.0,5.0,0.5,1.0,2.0,2.0,521.165744999962,4.0,1.0,phase_1,,,,,,,,,,,,,white,cross
0.0,7.0,0.0,1.0,1.0,1.0,640.5910009998479,4.0,1.0,phase_1,,,,,,,,,,,,,magenta,diamond
146.0,1.0,0.5,0.0,3.0,3.0,389.4517009998708,4.0,1.0,phase_1,,,,,,,,,,,,,green,square
672.0,7.0,2.0,1.0,3.0,3.0,388.9729550000993,4.0,1.0,phase_1,,,,,,,,,,,,,magenta,diamond
674.0,7.0,2.0,1.0,3.0,3.0,406.6383370000039,4.0,1.0,phase_1,,,,,,,,,,,,,magenta,diamond
641.0,3.0,2.0,0.0,3.0,3.0,355.4509790001248,4.0,1.0,phase_1,,,,,,,,,,,,,yellow,circle
0.0,8.0,0.0,1.0,3.0,3.0,408.1094779999148,4.0,1.0,phase_1,,,,,,,,,,,,,orange,hexagon
139.0,5.0,0.5,1.0,4.0,4.0,611.1453659996187,4.0,1.0,phase_1,,,,,,,,,,,,,white,cross
0.0,7.0,0.0,1.0,3.0,3.0,463.7724119997983,4.0,1.0,phase_1,,,,,,,,,,,,,magenta,diamond
314.0,6.0,1.0,1.0,1.0,1.0,564.8822399998608,4.0,1.0,phase_1,,,,,,,,,,,,,cyan,I
165.0,1.0,0.5,0.0,1.0,1.0,629.2801399999917,4.0,1.0,phase_1,,,,,,,,,,,,,green,square
175.0,5.0,0.5,1.0,1.0,1.0,483.5269530003643,4.0,1.0,phase_1,,,,,,,,,,,,,white,cross
651.0,3.0,2.0,0.0,4.0,4.0,519.7870110000622,4.0,1.0,phase_1,,,,,,,,,,,,,yellow,circle
168.0,1.0,0.5,0.0,4.0,4.0,409.2588660000729,4.0,1.0,phase_1,,,,,,,,,,,,,green,square
639.0,7.0,2.0,1.0,1.0,1.0,454.984479000359,4.0,1.0,phase_1,,,,,,,,,,,,,magenta,diamond
155.0,5.0,0.5,1.0,2.0,2.0,351.8550690000666,4.0,2.0,phase_1,,,,,,,,,,,,,white,cross
0.0,2.0,0.0,0.0,2.0,2.0,443.9476810002816,4.0,1.0,phase_1,,,,,,,,,,,,,gray,triangle
673.0,7.0,2.0,1.0,2.0,2.0,399.0288999998483,4.0,1.0,phase_1,,,,,,,,,,,,,magenta,diamond
0.0,2.0,0.0,0.0,1.0,1.0,519.3244590000177,4.0,1.0,phase_1,,,,,,,,,,,,,gray,triangle
1321.0,4.0,4.0,0.0,2.0,2.0,380.3940630000397,4.0,1.0,phase_1,,,,,,,,,,,,,blue,flipped triangle
0.0,2.0,0.0,0.0,4.0,4.0,491.8700670000362,4.0,1.0,phase_1,,,,,,,,,,,,,gray,triangle
314.0,2.0,1.0,0.0,4.0,4.0,490.5182160000549,4.0,1.0,phase_1,,,,,,,,,,,,,gray,triangle
1318.0,4.0,4.0,0.0,1.0,1.0,603.7582009998914,4.0,1.0,phase_1,,,,,,,,,,,,,blue,flipped triangle
1323.0,8.0,4.0,1.0,2.0,2.0,416.0339340000973,4.0,1.0,phase_1,,,,,,,,,,,,,orange,hexagon
1298.0,4.0,4.0,0.0,1.0,1.0,408.6213679997854,4.0,1.0,phase_1,,,,,,,,,,,,,blue,flipped triangle
1287.0,8.0,4.0,1.0,4.0,4.0,463.5227419998955,4.0,1.0,phase_1,,,,,,,,,,,,,orange,hexagon
1309.0,8.0,4.0,1.0,3.0,3.0,380.6620049999765,4.0,2.0,phase_1,,,,,,,,,,,,,orange,hexagon
318.0,2.0,1.0,0.0,1.0,1.0,500.66299900026934,4.0,1.0,phase_1,,,,,,,,,,,,,gray,triangle
350.0,2.0,1.0,0.0,2.0,2.0,503.3180989998982,4.0,1.0,phase_1,,,,,,,,,,,,,gray,triangle
179.0,5.0,0.5,1.0,2.0,2.0,453.3326270002362,4.0,1.0,phase_1,,,,,,,,,,,,,white,cross
335.0,6.0,1.0,1.0,2.0,2.0,408.4687350000422,4.0,1.0,phase_1,,,,,,,,,,,,,cyan,I
1307.0,8.0,4.0,1.0,1.0,1.0,548.5697320000327,4.0,1.0,phase_1,,,,,,,,,,,,,orange,hexagon
311.0,6.0,1.0,1.0,3.0,3.0,435.5299610001566,4.0,1.0,phase_1,,,,,,,,,,,,,cyan,I
143.0,5.0,0.5,1.0,2.0,2.0,501.83028999981616,4.0,1.0,phase_1,,,,,,,,,,,,,white,cross
1318.0,8.0,4.0,1.0,4.0,4.0,425.7595680001032,4.0,1.0,phase_1,,,,,,,,,,,,,orange,hexagon
338.0,2.0,1.0,0.0,4.0,4.0,445.8488720001696,4.0,1.0,phase_1,,,,,,,,,,,,,gray,triangle
163.0,5.0,0.5,1.0,1.0,1.0,593.9551390001725,4.0,1.0,phase_1,,,,,,,,,,,,,white,cross
176.0,1.0,0.5,0.0,3.0,3.0,407.8801939999721,4.0,1.0,phase_1,,,,,,,,,,,,,green,square
663.0,3.0,2.0,0.0,4.0,4.0,557.2434429996065,4.0,1.0,phase_1,,,,,,,,,,,,,yellow,circle
350.0,6.0,1.0,1.0,3.0,3.0,398.6722679997001,4.0,1.0,phase_1,,,,,,,,,,,,,cyan,I
668.0,3.0,2.0,0.0,3.0,3.0,381.5286879998893,4.0,1.0,phase_1,,,,,,,,,,,,,yellow,circle
165.0,5.0,0.5,1.0,3.0,3.0,407.2162979996392,4.0,1.0,phase_1,,,,,,,,,,,,,white,cross
672.0,3.0,2.0,0.0,4.0,4.0,435.7933410001351,4.0,1.0,phase_1,,,,,,,,,,,,,yellow,circle
326.0,2.0,1.0,0.0,1.0,1.0,574.2946239997764,4.0,1.0,phase_1,,,,,,,,,,,,,gray,triangle
301.0,2.0,1.0,0.0,1.0,1.0,464.0174380001554,4.0,1.0,phase_1,,,,,,,,,,,,,gray,triangle
0.0,6.0,0.0,1.0,1.0,1.0,463.3387829999265,4.0,1.0,phase_1,,,,,,,,,,,,,cyan,I
1313.0,8.0,4.0,1.0,1.0,1.0,426.0065209996355,4.0,1.0,phase_1,,,,,,,,,,,,,orange,hexagon
173.0,1.0,0.5,0.0,3.0,3.0,399.1633949999595,4.0,1.0,phase_1,,,,,,,,,,,,,green,square
316.0,6.0,1.0,1.0,3.0,3.0,390.6172719998722,4.0,1.0,phase_1,,,,,,,,,,,,,cyan,I
0.0,8.0,0.0,1.0,2.0,2.0,527.6048929999888,4.0,1.0,phase_1,,,,,,,,,,,,,orange,hexagon
332.0,6.0,1.0,1.0,2.0,2.0,573.1130300000586,4.0,1.0,phase_1,,,,,,,,,,,,,cyan,I
151.0,5.0,0.5,1.0,4.0,4.0,742.0575850001114,4.0,1.0,phase_1,,,,,,,,,,,,,white,cross
160.0,1.0,0.5,0.0,2.0,2.0,464.2568100002791,4.0,1.0,phase_1,,,,,,,,,,,,,green,square
1318.0,4.0,4.0,0.0,1.0,1.0,621.9582869998703,4.0,1.0,phase_1,,,,,,,,,,,,,blue,flipped triangle
154.0,5.0,0.5,1.0,2.0,2.0,483.0258689999027,4.0,1.0,phase_1,,,,,,,,,,,,,white,cross
349.0,6.0,1.0,1.0,4.0,4.0,528.4234040000229,4.0,1.0,phase_1,,,,,,,,,,,,,cyan,I
301.0,6.0,1.0,1.0,1.0,1.0,500.73584099982327,4.0,1.0,phase_1,,,,,,,,,,,,,cyan,I
627.0,3.0,2.0,0.0,3.0,3.0,435.3696320004019,4.0,1.0,phase_1,,,,,,,,,,,,,yellow,circle
0.0,3.0,0.0,0.0,4.0,4.0,491.6199170002073,4.0,1.0,phase_1,,,,,,,,,,,,,yellow,circle
668.0,7.0,2.0,1.0,4.0,4.0,660.5915309996817,4.0,1.0,phase_1,,,,,,,,,,,,,magenta,diamond
630.0,3.0,2.0,0.0,4.0,4.0,531.3743179999619,4.0,1.0,phase_1,,,,,,,,,,,,,yellow,circle
0.0,4.0,0.0,0.0,3.0,3.0,361.9043530002273,4.0,1.0,phase_1,,,,,,,,,,,,,blue,flipped triangle
0.0,5.0,0.0,1.0,2.0,2.0,474.8194620001413,4.0,1.0,phase_1,,,,,,,,,,,,,white,cross
185.0,1.0,0.5,0.0,3.0,3.0,481.019630999981,4.0,1.0,phase_1,,,,,,,,,,,,,green,square
161.0,1.0,0.5,0.0,1.0,1.0,492.1803550000732,4.0,1.0,phase_1,,,,,,,,,,,,,green,square
139.0,5.0,0.5,1.0,4.0,4.0,445.873580999887,4.0,1.0,phase_1,,,,,,,,,,,,,white,cross
175.0,1.0,0.5,0.0,3.0,3.0,342.3640230003002,4.0,1.0,phase_1,,,,,,,,,,,,,green,square
347.0,6.0,1.0,1.0,3.0,3.0,463.6592580000069,4.0,1.0,phase_1,,,,,,,,,,,,,cyan,I
1289.0,4.0,4.0,0.0,1.0,1.0,364.9846789999174,4.0,1.0,phase_1,,,,,,,,,,,,,blue,flipped triangle
0.0,3.0,0.0,0.0,3.0,3.0,399.530286999834,4.0,1.0,phase_1,,,,,,,,,,,,,yellow,circle
0.0,7.0,0.0,1.0,3.0,3.0,362.3397549999936,4.0,1.0,phase_1,,,,,,,,,,,,,magenta,diamond
667.0,3.0,2.0,0.0,4.0,4.0,520.0439870000082,4.0,1.0,phase_1,,,,,,,,,,,,,yellow,circle
0.0,8.0,0.0,1.0,2.0,2.0,576.6966760002106,4.0,1.0,phase_1,,,,,,,,,,,,,orange,hexagon
338.0,2.0,1.0,0.0,2.0,2.0,437.1847219999836,4.0,1.0,phase_1,,,,,,,,,,,,,gray,triangle
640.0,3.0,2.0,0.0,2.0,2.0,483.1780780000372,4.0,1.0,phase_1,,,,,,,,,,,,,yellow,circle
311.0,6.0,1.0,1.0,1.0,1.0,640.3642039999795,4.0,1.0,phase_1,,,,,,,,,,,,,cyan,I
1316.0,8.0,4.0,1.0,3.0,3.0,390.6891940000605,4.0,1.0,phase_1,,,,,,,,,,,,,orange,hexagon
328.0,2.0,1.0,0.0,2.0,2.0,454.2459089998374,4.0,1.0,phase_1,,,,,,,,,,,,,gray,triangle
313.0,2.0,1.0,0.0,3.0,3.0,416.8102679996082,4.0,1.0,phase_1,,,,,,,,,,,,,gray,triangle
0.0,2.0,1.0,0.0,6.0,6.0,719.2116870000973,1.0,1.0,phase_2,go,250.0,250.0,1.0,,,,,,,,,gray,triangle
0.0,6.0,1.0,1.0,5.0,5.0,795.7686260001537,1.0,1.0,phase_2,stop,250.0,250.0,3.0,,,,,,,,,cyan,I
0.0,4.0,4.0,0.0,5.0,5.0,643.2097510000858,1.0,1.0,phase_2,go,200.0,250.0,1.0,,,,,,,,,blue,flipped triangle
0.0,8.0,4.0,1.0,6.0,0.0,0.0,1.0,1.0,phase_2,stop,200.0,250.0,4.0,,,,,,,,,orange,hexagon
0.0,8.0,4.0,1.0,5.0,0.0,0.0,1.0,1.0,phase_2,stop,200.0,300.0,4.0,,,,,,,,,orange,hexagon
0.0,7.0,2.0,1.0,6.0,0.0,0.0,1.0,1.0,phase_2,stop,250.0,300.0,4.0,,,,,,,,,magenta,diamond
0.0,4.0,4.0,0.0,5.0,5.0,734.0265719999479,1.0,1.0,phase_2,go,250.0,350.0,1.0,,,,,,,,,blue,flipped triangle
0.0,1.0,0.5,0.0,6.0,6.0,648.7583349999113,1.0,1.0,phase_2,go,250.0,350.0,1.0,,,,,,,,,green,square
0.0,2.0,1.0,0.0,6.0,6.0,1225.9050110001226,1.0,1.0,phase_2,go,250.0,350.0,1.0,,,,,,,,,gray,triangle
0.0,7.0,2.0,1.0,5.0,0.0,0.0,1.0,1.0,phase_2,stop,250.0,350.0,4.0,,,,,,,,,magenta,diamond
0.0,7.0,2.0,1.0,6.0,6.0,549.056918000133,1.0,1.0,phase_2,stop,300.0,350.0,3.0,,,,,,,,,magenta,diamond
0.0,5.0,0.5,1.0,6.0,0.0,0.0,1.0,1.0,phase_2,stop,300.0,300.0,4.0,,,,,,,,,white,cross
0.0,2.0,1.0,0.0,5.0,5.0,831.2545970002247,1.0,1.0,phase_2,go,300.0,350.0,1.0,,,,,,,,,gray,triangle
0.0,2.0,1.0,0.0,5.0,5.0,1059.3185729999277,1.0,1.0,phase_2,go,300.0,350.0,1.0,,,,,,,,,gray,triangle
0.0,3.0,2.0,0.0,5.0,5.0,1012.6700599998912,1.0,1.0,phase_2,go,300.0,350.0,1.0,,,,,,,,,yellow,circle
0.0,6.0,1.0,1.0,5.0,0.0,0.0,1.0,1.0,phase_2,stop,300.0,350.0,4.0,,,,,,,,,cyan,I
0.0,8.0,4.0,1.0,6.0,6.0,444.9683530001493,1.0,1.0,phase_2,go,350.0,350.0,1.0,,,,,,,,,orange,hexagon
0.0,2.0,1.0,0.0,5.0,5.0,806.9280619997699,1.0,1.0,phase_2,go,350.0,350.0,1.0,,,,,,,,,gray,triangle
0.0,1.0,0.5,0.0,6.0,6.0,898.4414609999476,1.0,1.0,phase_2,go,350.0,350.0,1.0,,,,,,,,,green,square
0.0,4.0,4.0,0.0,6.0,6.0,948.7963370002036,1.0,1.0,phase_2,go,350.0,350.0,1.0,,,,,,,,,blue,flipped triangle
0.0,7.0,2.0,1.0,5.0,0.0,0.0,1.0,1.0,phase_2,stop,350.0,350.0,4.0,,,,,,,,,magenta,diamond
0.0,8.0,4.0,1.0,5.0,5.0,825.7997529999557,1.0,1.0,phase_2,go,400.0,350.0,1.0,,,,,,,,,orange,hexagon
0.0,5.0,0.5,1.0,6.0,0.0,0.0,1.0,1.0,phase_2,stop,400.0,350.0,4.0,,,,,,,,,white,cross
0.0,8.0,4.0,1.0,5.0,5.0,398.8402589998259,1.0,1.0,phase_2,stop,400.0,400.0,3.0,,,,,,,,,orange,hexagon
0.0,5.0,0.5,1.0,5.0,0.0,0.0,1.0,1.0,phase_2,stop,350.0,400.0,4.0,,,,,,,,,white,cross
0.0,4.0,4.0,0.0,5.0,5.0,920.3320300002816,1.0,1.0,phase_2,go,400.0,400.0,1.0,,,,,,,,,blue,flipped triangle
0.0,5.0,0.5,1.0,6.0,6.0,473.328625999784,1.0,1.0,phase_2,stop,400.0,400.0,3.0,,,,,,,,,white,cross
0.0,6.0,1.0,1.0,6.0,0.0,0.0,1.0,1.0,phase_2,stop,400.0,350.0,4.0,,,,,,,,,cyan,I
0.0,7.0,2.0,1.0,6.0,0.0,0.0,1.0,1.0,phase_2,stop,400.0,400.0,4.0,,,,,,,,,magenta,diamond
0.0,1.0,0.5,0.0,5.0,5.0,867.6571480000348,1.0,1.0,phase_2,go,400.0,450.0,1.0,,,,,,,,,green,square
0.0,2.0,1.0,0.0,6.0,6.0,1375.2325580003344,1.0,1.0,phase_2,go,400.0,450.0,1.0,,,,,,,,,gray,triangle
0.0,5.0,0.5,1.0,6.0,6.0,1355.110195999714,1.0,1.0,phase_2,go,400.0,450.0,1.0,,,,,,,,,white,cross
0.0,2.0,1.0,0.0,6.0,6.0,1171.1980899999617,1.0,1.0,phase_2,go,400.0,450.0,1.0,,,,,,,,,gray,triangle
0.0,1.0,0.5,0.0,5.0,5.0,1271.3980710000214,1.0,1.0,phase_2,go,400.0,450.0,1.0,,,,,,,,,green,square
0.0,1.0,0.5,0.0,6.0,6.0,1197.3917700001948,1.0,1.0,phase_2,go,400.0,450.0,1.0,,,,,,,,,green,square
0.0,2.0,1.0,0.0,5.0,5.0,1300.0985390003734,1.0,1.0,phase_2,go,400.0,450.0,1.0,,,,,,,,,gray,triangle
0.0,1.0,0.5,0.0,6.0,6.0,742.8850579999562,2.0,1.0,phase_2,go,400.0,450.0,1.0,,,,,,,,,green,square
0.0,8.0,4.0,1.0,6.0,6.0,353.1553019997773,2.0,1.0,phase_2,stop,400.0,450.0,3.0,,,,,,,,,orange,hexagon
0.0,1.0,0.5,0.0,5.0,5.0,392.3749989999123,2.0,1.0,phase_2,go,400.0,400.0,1.0,,,,,,,,,green,square
0.0,5.0,0.5,1.0,5.0,5.0,390.7227459999376,2.0,1.0,phase_2,stop,400.0,400.0,3.0,,,,,,,,,white,cross
0.0,5.0,0.5,1.0,5.0,5.0,343.2274409997262,2.0,1.0,phase_2,stop,350.0,400.0,3.0,,,,,,,,,white,cross
0.0,6.0,1.0,1.0,5.0,5.0,698.5251259998222,2.0,1.0,phase_2,stop,300.0,400.0,3.0,,,,,,,,,cyan,I
0.0,4.0,4.0,0.0,6.0,6.0,510.2366720002465,2.0,1.0,phase_2,go,250.0,400.0,1.0,,,,,,,,,blue,flipped triangle
0.0,7.0,2.0,1.0,6.0,6.0,903.365284999836,2.0,1.0,phase_2,stop,250.0,400.0,3.0,,,,,,,,,magenta,diamond
0.0,7.0,2.0,1.0,6.0,6.0,669.6471569998721,2.0,1.0,phase_2,go,250.0,350.0,1.0,,,,,,,,,magenta,diamond
0.0,3.0,2.0,0.0,5.0,5.0,389.2013949998727,2.0,1.0,phase_2,go,250.0,350.0,1.0,,,,,,,,,yellow,circle
0.0,5.0,0.5,1.0,6.0,6.0,449.431246000131,2.0,1.0,phase_2,stop,250.0,350.0,3.0,,,,,,,,,white,cross
0.0,4.0,4.0,0.0,5.0,5.0,382.1159980002448,2.0,1.0,phase_2,go,250.0,300.0,1.0,,,,,,,,,blue,flipped triangle
0.0,4.0,4.0,0.0,6.0,6.0,380.41373499982,2.0,1.0,phase_2,go,250.0,300.0,1.0,,,,,,,,,blue,flipped triangle
0.0,7.0,2.0,1.0,5.0,0.0,0.0,2.0,1.0,phase_2,stop,250.0,300.0,4.0,,,,,,,,,magenta,diamond
0.0,3.0,2.0,0.0,6.0,6.0,419.3921959999898,2.0,1.0,phase_2,go,300.0,300.0,1.0,,,,,,,,,yellow,circle
0.0,7.0,2.0,1.0,5.0,0.0,0.0,2.0,1.0,phase_2,stop,300.0,300.0,4.0,,,,,,,,,magenta,diamond
0.0,1.0,0.5,0.0,5.0,5.0,473.3182949998991,2.0,1.0,phase_2,go,350.0,300.0,1.0,,,,,,,,,green,square
0.0,5.0,0.5,1.0,6.0,6.0,429.6643070001664,2.0,1.0,phase_2,stop,350.0,300.0,3.0,,,,,,,,,white,cross
0.0,6.0,1.0,1.0,5.0,5.0,389.7533209997164,2.0,1.0,phase_2,go,350.0,250.0,1.0,,,,,,,,,cyan,I
0.0,5.0,0.5,1.0,5.0,5.0,335.4437819998566,2.0,1.0,phase_2,stop,350.0,250.0,3.0,,,,,,,,,white,cross
0.0,8.0,4.0,1.0,5.0,5.0,385.8375360000536,2.0,1.0,phase_2,stop,300.0,250.0,3.0,,,,,,,,,orange,hexagon
0.0,7.0,2.0,1.0,5.0,5.0,387.2303460002513,2.0,1.0,phase_2,stop,250.0,250.0,3.0,,,,,,,,,magenta,diamond
0.0,4.0,4.0,0.0,5.0,5.0,446.227300999908,2.0,1.0,phase_2,go,200.0,250.0,1.0,,,,,,,,,blue,flipped triangle
0.0,4.0,4.0,0.0,6.0,6.0,465.317172000141,2.0,1.0,phase_2,go,200.0,250.0,1.0,,,,,,,,,blue,flipped triangle
0.0,8.0,4.0,1.0,5.0,0.0,0.0,2.0,1.0,phase_2,stop,200.0,250.0,4.0,,,,,,,,,orange,hexagon
0.0,2.0,1.0,0.0,5.0,5.0,523.7483330001851,2.0,1.0,phase_2,go,250.0,250.0,1.0,,,,,,,,,gray,triangle
0.0,7.0,2.0,1.0,6.0,0.0,0.0,2.0,1.0,phase_2,stop,250.0,250.0,4.0,,,,,,,,,magenta,diamond
0.0,5.0,0.5,1.0,6.0,0.0,0.0,2.0,1.0,phase_2,stop,250.0,300.0,4.0,,,,,,,,,white,cross
0.0,3.0,2.0,0.0,6.0,6.0,805.8230329997969,2.0,1.0,phase_2,go,250.0,350.0,1.0,,,,,,,,,yellow,circle
0.0,2.0,1.0,0.0,5.0,5.0,725.9314510001786,2.0,1.0,phase_2,go,250.0,350.0,1.0,,,,,,,,,gray,triangle
0.0,8.0,4.0,1.0,6.0,6.0,335.2170200000728,2.0,1.0,phase_2,stop,250.0,350.0,3.0,,,,,,,,,orange,hexagon
0.0,4.0,4.0,0.0,5.0,5.0,269.7273359999599,2.0,1.0,phase_2,go,250.0,300.0,1.0,,,,,,,,,blue,flipped triangle
0.0,4.0,4.0,0.0,6.0,6.0,270.5366420000246,2.0,1.0,phase_2,go,250.0,300.0,1.0,,,,,,,,,blue,flipped triangle
0.0,4.0,4.0,0.0,6.0,6.0,278.9548179998746,2.0,1.0,phase_2,go,250.0,300.0,1.0,,,,,,,,,blue,flipped triangle
0.0,5.0,0.5,1.0,6.0,6.0,351.9889890003469,2.0,1.0,phase_2,stop,250.0,300.0,3.0,,,,,,,,,white,cross
0.0,5.0,0.5,1.0,6.0,6.0,297.669930000211,2.0,1.0,phase_2,stop,250.0,250.0,3.0,,,,,,,,,white,cross
0.0,6.0,1.0,1.0,6.0,6.0,632.0861379999769,3.0,1.0,phase_2,stop,250.0,200.0,3.0,,,,,,,,,cyan,I
0.0,4.0,4.0,0.0,5.0,5.0,407.8207849997852,3.0,1.0,phase_2,go,250.0,150.0,1.0,,,,,,,,,blue,flipped triangle
0.0,7.0,2.0,1.0,5.0,5.0,371.9436480000695,3.0,1.0,phase_2,stop,250.0,150.0,3.0,,,,,,,,,magenta,diamond
0.0,6.0,1.0,1.0,6.0,6.0,365.3183159999571,3.0,1.0,phase_2,stop,200.0,150.0,3.0,,,,,,,,,cyan,I
0.0,3.0,2.0,0.0,5.0,5.0,345.1919200001612,3.0,1.0,phase_2,go,200.0,100.0,1.0,,,,,,,,,yellow,circle
0.0,3.0,2.0,0.0,6.0,6.0,482.4142270003904,3.0,1.0,phase_2,go,200.0,100.0,1.0,,,,,,,,,yellow,circle
0.0,8.0,4.0,1.0,5.0,5.0,410.8470169999236,3.0,1.0,phase_2,stop,200.0,100.0,3.0,,,,,,,,,orange,hexagon
0.0,6.0,1.0,1.0,6.0,6.0,274.5188720000442,3.0,1.0,phase_2,stop,150.0,100.0,3.0,,,,,,,,,cyan,I
0.0,7.0,2.0,1.0,5.0,5.0,308.6188100000981,3.0,1.0,phase_2,stop,150.0,50.0,3.0,,,,,,,,,magenta,diamond
0.0,3.0,2.0,0.0,5.0,5.0,390.5134919996271,3.0,1.0,phase_2,go,100.0,50.0,1.0,,,,,,,,,yellow,circle
0.0,7.0,2.0,1.0,5.0,5.0,357.6217139998334,3.0,1.0,phase_2,stop,100.0,50.0,3.0,,,,,,,,,magenta,diamond
0.0,5.0,0.5,1.0,5.0,0.0,0.0,3.0,1.0,phase_2,stop,50.0,50.0,4.0,,,,,,,,,white,cross
0.0,6.0,1.0,1.0,5.0,0.0,0.0,3.0,1.0,phase_2,stop,100.0,50.0,4.0,,,,,,,,,cyan,I
0.0,6.0,1.0,1.0,6.0,6.0,399.9449099997036,3.0,1.0,phase_2,go,150.0,50.0,1.0,,,,,,,,,cyan,I
0.0,1.0,0.5,0.0,6.0,6.0,427.7619869999398,3.0,1.0,phase_2,go,150.0,50.0,1.0,,,,,,,,,green,square
0.0,3.0,2.0,0.0,5.0,5.0,324.621202000344,3.0,1.0,phase_2,go,150.0,50.0,1.0,,,,,,,,,yellow,circle
0.0,5.0,0.5,1.0,5.0,5.0,304.7367310000481,3.0,1.0,phase_2,stop,150.0,50.0,3.0,,,,,,,,,white,cross
0.0,5.0,0.5,1.0,5.0,0.0,0.0,3.0,1.0,phase_2,stop,100.0,50.0,4.0,,,,,,,,,white,cross
0.0,6.0,1.0,1.0,5.0,5.0,278.4071070000209,3.0,1.0,phase_2,go,150.0,50.0,1.0,,,,,,,,,cyan,I
0.0,8.0,4.0,1.0,5.0,0.0,0.0,3.0,1.0,phase_2,stop,150.0,50.0,4.0,,,,,,,,,orange,hexagon
0.0,7.0,2.0,1.0,5.0,0.0,0.0,3.0,1.0,phase_2,stop,200.0,50.0,4.0,,,,,,,,,magenta,diamond
0.0,3.0,2.0,0.0,5.0,5.0,474.0507520000392,3.0,1.0,phase_2,go,250.0,50.0,1.0,,,,,,,,,yellow,circle
0.0,5.0,0.5,1.0,5.0,5.0,332.9233690001274,3.0,1.0,phase_2,stop,250.0,50.0,3.0,,,,,,,,,white,cross
0.0,8.0,4.0,1.0,6.0,6.0,288.7087500002963,3.0,1.0,phase_2,go,200.0,50.0,1.0,,,,,,,,,orange,hexagon
0.0,7.0,2.0,1.0,5.0,5.0,260.2213760001177,3.0,1.0,phase_2,go,200.0,50.0,1.0,,,,,,,,,magenta,diamond
0.0,7.0,2.0,1.0,6.0,0.0,0.0,3.0,1.0,phase_2,stop,200.0,50.0,4.0,,,,,,,,,magenta,diamond
0.0,6.0,1.0,1.0,5.0,5.0,343.2849340001667,3.0,1.0,phase_2,go,200.0,100.0,1.0,,,,,,,,,cyan,I
0.0,6.0,1.0,1.0,5.0,5.0,344.6308570000838,3.0,1.0,phase_2,stop,200.0,100.0,3.0,,,,,,,,,cyan,I
0.0,1.0,0.5,0.0,6.0,6.0,259.8131559998364,3.0,1.0,phase_2,go,150.0,100.0,1.0,,,,,,,,,green,square
0.0,1.0,0.5,0.0,6.0,6.0,315.2151159997629,3.0,1.0,phase_2,go,150.0,100.0,1.0,,,,,,,,,green,square
0.0,2.0,1.0,0.0,6.0,6.0,315.9962929998983,3.0,1.0,phase_2,go,150.0,100.0,1.0,,,,,,,,,gray,triangle
0.0,6.0,1.0,1.0,5.0,5.0,399.9656680002772,3.0,1.0,phase_2,stop,150.0,100.0,3.0,,,,,,,,,cyan,I
0.0,4.0,4.0,0.0,5.0,5.0,287.0713810002598,3.0,1.0,phase_2,go,100.0,100.0,1.0,,,,,,,,,blue,flipped triangle
0.0,7.0,2.0,1.0,5.0,5.0,250.4421809999257,3.0,1.0,phase_2,go,100.0,100.0,1.0,,,,,,,,,magenta,diamond
0.0,5.0,0.5,1.0,6.0,6.0,299.1179740001826,3.0,1.0,phase_2,stop,100.0,100.0,3.0,,,,,,,,,white,cross
0.0,4.0,4.0,0.0,5.0,5.0,279.1751719996682,3.0,1.0,phase_2,go,100.0,50.0,1.0,,,,,,,,,blue,flipped triangle
0.0,7.0,2.0,1.0,6.0,6.0,706.3591950000045,4.0,1.0,phase_2,go,100.0,50.0,1.0,,,,,,,,,magenta,diamond
0.0,8.0,4.0,1.0,6.0,0.0,0.0,4.0,1.0,phase_2,stop,100.0,50.0,4.0,,,,,,,,,orange,hexagon
0.0,3.0,2.0,0.0,6.0,6.0,326.1453539998911,4.0,1.0,phase_2,go,100.0,100.0,1.0,,,,,,,,,yellow,circle
0.0,6.0,1.0,1.0,5.0,5.0,334.5249960002547,4.0,1.0,phase_2,go,100.0,100.0,1.0,,,,,,,,,cyan,I
0.0,7.0,2.0,1.0,6.0,6.0,320.0701730002038,4.0,1.0,phase_2,stop,100.0,100.0,3.0,,,,,,,,,magenta,diamond
0.0,4.0,4.0,0.0,5.0,5.0,399.4373410000662,4.0,1.0,phase_2,go,100.0,50.0,1.0,,,,,,,,,blue,flipped triangle
0.0,8.0,4.0,1.0,5.0,0.0,0.0,4.0,1.0,phase_2,stop,100.0,50.0,4.0,,,,,,,,,orange,hexagon
0.0,4.0,4.0,0.0,6.0,6.0,485.2344269997957,4.0,1.0,phase_2,go,150.0,50.0,1.0,,,,,,,,,blue,flipped triangle
0.0,4.0,4.0,0.0,5.0,5.0,343.8289109999459,4.0,1.0,phase_2,go,150.0,50.0,1.0,,,,,,,,,blue,flipped triangle
0.0,7.0,2.0,1.0,6.0,0.0,0.0,4.0,1.0,phase_2,stop,150.0,50.0,4.0,,,,,,,,,magenta,diamond
0.0,7.0,2.0,1.0,6.0,6.0,362.3082139997677,4.0,1.0,phase_2,go,150.0,100.0,1.0,,,,,,,,,magenta,diamond
0.0,1.0,0.5,0.0,6.0,6.0,353.288768999846,4.0,1.0,phase_2,go,150.0,100.0,1.0,,,,,,,,,green,square
0.0,1.0,0.5,0.0,6.0,6.0,297.6556339999661,4.0,1.0,phase_2,go,150.0,100.0,1.0,,,,,,,,,green,square
0.0,6.0,1.0,1.0,5.0,5.0,288.9329070003441,4.0,1.0,phase_2,stop,150.0,100.0,3.0,,,,,,,,,cyan,I
0.0,3.0,2.0,0.0,5.0,5.0,363.398683000014,4.0,1.0,phase_2,go,100.0,100.0,1.0,,,,,,,,,yellow,circle
0.0,3.0,2.0,0.0,6.0,6.0,409.0412529999412,4.0,1.0,phase_2,go,100.0,100.0,1.0,,,,,,,,,yellow,circle
0.0,4.0,4.0,0.0,6.0,6.0,529.9318160000439,4.0,1.0,phase_2,go,100.0,100.0,1.0,,,,,,,,,blue,flipped triangle
0.0,6.0,1.0,1.0,6.0,6.0,344.5105480000165,4.0,1.0,phase_2,stop,100.0,100.0,3.0,,,,,,,,,cyan,I
0.0,8.0,4.0,1.0,6.0,6.0,372.1475300003476,4.0,1.0,phase_2,go,100.0,50.0,1.0,,,,,,,,,orange,hexagon
0.0,6.0,1.0,1.0,6.0,6.0,400.5580909997661,4.0,1.0,phase_2,go,100.0,50.0,1.0,,,,,,,,,cyan,I
0.0,7.0,2.0,1.0,6.0,0.0,0.0,4.0,1.0,phase_2,stop,100.0,50.0,4.0,,,,,,,,,magenta,diamond
0.0,2.0,1.0,0.0,5.0,5.0,429.3016480000915,4.0,1.0,phase_2,go,100.0,100.0,1.0,,,,,,,,,gray,triangle
0.0,5.0,0.5,1.0,6.0,0.0,0.0,4.0,1.0,phase_2,stop,100.0,100.0,4.0,,,,,,,,,white,cross
0.0,4.0,4.0,0.0,6.0,6.0,345.044259000133,4.0,1.0,phase_2,go,100.0,150.0,1.0,,,,,,,,,blue,flipped triangle
0.0,8.0,4.0,1.0,5.0,5.0,407.93536499995747,4.0,1.0,phase_2,go,100.0,150.0,1.0,,,,,,,,,orange,hexagon
0.0,8.0,4.0,1.0,6.0,0.0,0.0,4.0,1.0,phase_2,stop,100.0,150.0,4.0,,,,,,,,,orange,hexagon
0.0,6.0,1.0,1.0,6.0,0.0,0.0,4.0,1.0,phase_2,stop,100.0,200.0,4.0,,,,,,,,,cyan,I
0.0,3.0,2.0,0.0,6.0,6.0,352.174620000369,4.0,1.0,phase_2,go,100.0,250.0,1.0,,,,,,,,,yellow,circle
0.0,8.0,4.0,1.0,5.0,5.0,390.4059490000691,4.0,1.0,phase_2,go,100.0,250.0,1.0,,,,,,,,,orange,hexagon
0.0,1.0,0.5,0.0,5.0,5.0,381.3372079998771,4.0,1.0,phase_2,go,100.0,250.0,1.0,,,,,,,,,green,square
0.0,3.0,2.0,0.0,6.0,6.0,381.3037029999577,4.0,1.0,phase_2,go,100.0,250.0,1.0,,,,,,,,,yellow,circle
0.0,7.0,2.0,1.0,5.0,5.0,293.6490120000599,4.0,1.0,phase_2,stop,100.0,250.0,3.0,,,,,,,,,magenta,diamond
0.0,4.0,4.0,0.0,5.0,5.0,353.9646640001592,4.0,1.0,phase_2,go,50.0,250.0,1.0,,,,,,,,,blue,flipped triangle
0.0,3.0,2.0,0.0,6.0,6.0,315.3059799997209,4.0,1.0,phase_2,go,50.0,250.0,1.0,,,,,,,,,yellow,circle
0.0,7.0,2.0,1.0,6.0,6.0,343.8547910000125,4.0,1.0,phase_2,go,50.0,250.0,1.0,,,,,,,,,magenta,diamond
0.0,5.0,0.5,1.0,5.0,5.0,325.1158260000011,4.0,1.0,phase_2,go,50.0,250.0,1.0,,,,,,,,,white,cross
0.0,4.0,4.0,0.0,6.0,6.0,937.8303600001344,5.0,1.0,phase_2,go,50.0,250.0,1.0,,,,,,,,,blue,flipped triangle
0.0,1.0,0.5,0.0,5.0,5.0,344.6670400003313,5.0,1.0,phase_2,go,50.0,250.0,1.0,,,,,,,,,green,square
0.0,2.0,1.0,0.0,6.0,6.0,251.7216359997292,5.0,1.0,phase_2,go,50.0,250.0,1.0,,,,,,,,,gray,triangle
0.0,5.0,0.5,1.0,6.0,6.0,358.2805240002926,5.0,1.0,phase_2,stop,50.0,250.0,3.0,,,,,,,,,white,cross
0.0,2.0,1.0,0.0,6.0,6.0,398.6265869998533,5.0,1.0,phase_2,go,50.0,200.0,1.0,,,,,,,,,gray,triangle
0.0,6.0,1.0,1.0,5.0,5.0,253.6830859999099,5.0,1.0,phase_2,stop,50.0,200.0,3.0,,,,,,,,,cyan,I
0.0,6.0,1.0,1.0,5.0,0.0,0.0,5.0,1.0,phase_2,stop,0.0,200.0,4.0,,,,,,,,,cyan,I
0.0,2.0,1.0,0.0,6.0,6.0,362.1291990002646,5.0,1.0,phase_2,go,50.0,200.0,1.0,,,,,,,,,gray,triangle
0.0,7.0,2.0,1.0,6.0,6.0,343.4022370001912,5.0,1.0,phase_2,go,50.0,200.0,1.0,,,,,,,,,magenta,diamond
0.0,6.0,1.0,1.0,6.0,6.0,366.0681080000358,5.0,1.0,phase_2,stop,50.0,200.0,3.0,,,,,,,,,cyan,I
0.0,3.0,2.0,0.0,6.0,6.0,380.638097999963,5.0,1.0,phase_2,go,50.0,150.0,1.0,,,,,,,,,yellow,circle
0.0,2.0,1.0,0.0,6.0,6.0,352.4747690003096,5.0,1.0,phase_2,go,50.0,150.0,1.0,,,,,,,,,gray,triangle
0.0,2.0,1.0,0.0,6.0,6.0,417.9647900000418,5.0,1.0,phase_2,go,50.0,150.0,1.0,,,,,,,,,gray,triangle
0.0,8.0,4.0,1.0,6.0,6.0,316.6830879999907,5.0,1.0,phase_2,stop,50.0,150.0,3.0,,,,,,,,,orange,hexagon
0.0,3.0,2.0,0.0,6.0,6.0,315.9636989998944,5.0,1.0,phase_2,go,50.0,100.0,1.0,,,,,,,,,yellow,circle
0.0,3.0,2.0,0.0,6.0,6.0,344.4436549998499,5.0,1.0,phase_2,go,50.0,100.0,1.0,,,,,,,,,yellow,circle
0.0,5.0,0.5,1.0,6.0,6.0,245.218484000361,5.0,1.0,phase_2,stop,50.0,100.0,3.0,,,,,,,,,white,cross
0.0,7.0,2.0,1.0,5.0,5.0,445.3811719999976,5.0,1.0,phase_2,go,50.0,50.0,1.0,,,,,,,,,magenta,diamond
0.0,6.0,1.0,1.0,5.0,0.0,0.0,5.0,1.0,phase_2,stop,50.0,50.0,4.0,,,,,,,,,cyan,I
0.0,8.0,4.0,1.0,6.0,0.0,0.0,5.0,1.0,phase_2,stop,100.0,50.0,4.0,,,,,,,,,orange,hexagon
0.0,4.0,4.0,0.0,6.0,6.0,418.0522759997984,5.0,1.0,phase_2,go,100.0,100.0,1.0,,,,,,,,,blue,flipped triangle
0.0,1.0,0.5,0.0,6.0,6.0,381.0424980001698,5.0,1.0,phase_2,go,100.0,100.0,1.0,,,,,,,,,green,square
0.0,1.0,0.5,0.0,5.0,5.0,334.9880589998975,5.0,1.0,phase_2,go,100.0,100.0,1.0,,,,,,,,,green,square
0.0,4.0,4.0,0.0,5.0,5.0,436.8175090003205,5.0,1.0,phase_2,go,100.0,100.0,1.0,,,,,,,,,blue,flipped triangle
0.0,2.0,1.0,0.0,6.0,6.0,418.3580979997714,5.0,1.0,phase_2,go,100.0,100.0,1.0,,,,,,,,,gray,triangle
0.0,2.0,1.0,0.0,5.0,5.0,400.0388370000109,5.0,1.0,phase_2,go,100.0,100.0,1.0,,,,,,,,,gray,triangle
0.0,6.0,1.0,1.0,5.0,0.0,0.0,5.0,1.0,phase_2,stop,100.0,100.0,4.0,,,,,,,,,cyan,I
0.0,3.0,2.0,0.0,6.0,6.0,416.8347230001927,5.0,1.0,phase_2,go,150.0,100.0,1.0,,,,,,,,,yellow,circle
0.0,5.0,0.5,1.0,6.0,6.0,354.0922749998572,5.0,1.0,phase_2,go,150.0,100.0,1.0,,,,,,,,,white,cross
0.0,5.0,0.5,1.0,6.0,0.0,0.0,5.0,1.0,phase_2,stop,150.0,100.0,4.0,,,,,,,,,white,cross
0.0,2.0,1.0,0.0,5.0,5.0,473.7607079996451,5.0,1.0,phase_2,go,150.0,150.0,1.0,,,,,,,,,gray,triangle
0.0,8.0,4.0,1.0,5.0,0.0,0.0,5.0,1.0,phase_2,stop,150.0,150.0,4.0,,,,,,,,,orange,hexagon
0.0,3.0,2.0,0.0,5.0,5.0,482.530683999812,5.0,1.0,phase_2,go,200.0,150.0,1.0,,,,,,,,,yellow,circle
0.0,7.0,2.0,1.0,5.0,5.0,549.293728000066,5.0,1.0,phase_2,go,200.0,150.0,1.0,,,,,,,,,magenta,diamond
0.0,3.0,2.0,0.0,6.0,6.0,577.5573549999535,5.0,1.0,phase_2,go,200.0,150.0,1.0,,,,,,,,,yellow,circle
0.0,1.0,0.5,0.0,6.0,6.0,392.7039750001313,5.0,1.0,phase_2,go,200.0,150.0,1.0,,,,,,,,,green,square
0.0,8.0,4.0,1.0,6.0,6.0,604.9266319996605,6.0,1.0,phase_2,stop,200.0,150.0,3.0,,,,,,,,,orange,hexagon
0.0,6.0,1.0,1.0,5.0,5.0,389.9667900000167,6.0,1.0,phase_2,go,200.0,100.0,1.0,,,,,,,,,cyan,I
0.0,8.0,4.0,1.0,6.0,6.0,386.7179729995769,6.0,1.0,phase_2,stop,200.0,100.0,3.0,,,,,,,,,orange,hexagon
0.0,1.0,0.5,0.0,5.0,5.0,501.1226420001549,6.0,1.0,phase_2,go,200.0,50.0,1.0,,,,,,,,,green,square
0.0,2.0,1.0,0.0,5.0,5.0,390.8790730001783,6.0,1.0,phase_2,go,200.0,50.0,1.0,,,,,,,,,gray,triangle
0.0,8.0,4.0,1.0,6.0,0.0,0.0,6.0,1.0,phase_2,stop,200.0,50.0,4.0,,,,,,,,,orange,hexagon
0.0,4.0,4.0,0.0,6.0,6.0,492.3207679998995,6.0,1.0,phase_2,go,200.0,100.0,1.0,,,,,,,,,blue,flipped triangle
0.0,8.0,4.0,1.0,6.0,0.0,0.0,6.0,1.0,phase_2,stop,200.0,100.0,4.0,,,,,,,,,orange,hexagon
0.0,7.0,2.0,1.0,5.0,0.0,0.0,6.0,1.0,phase_2,stop,200.0,150.0,4.0,,,,,,,,,magenta,diamond
0.0,1.0,0.5,0.0,6.0,6.0,437.2268600000097,6.0,1.0,phase_2,go,250.0,150.0,1.0,,,,,,,,,green,square
0.0,5.0,0.5,1.0,5.0,5.0,399.4352370000342,6.0,1.0,phase_2,go,250.0,150.0,1.0,,,,,,,,,white,cross
0.0,3.0,2.0,0.0,5.0,5.0,482.831957000144,6.0,1.0,phase_2,go,250.0,150.0,1.0,,,,,,,,,yellow,circle
0.0,6.0,1.0,1.0,6.0,6.0,429.2062700001224,6.0,1.0,phase_2,go,250.0,150.0,1.0,,,,,,,,,cyan,I
0.0,7.0,2.0,1.0,6.0,0.0,0.0,6.0,1.0,phase_2,stop,250.0,150.0,4.0,,,,,,,,,magenta,diamond
0.0,8.0,4.0,1.0,5.0,5.0,481.4170899999226,6.0,1.0,phase_2,stop,250.0,200.0,3.0,,,,,,,,,orange,hexagon
0.0,3.0,2.0,0.0,5.0,5.0,438.3681740000611,6.0,1.0,phase_2,go,200.0,200.0,1.0,,,,,,,,,yellow,circle
0.0,1.0,0.5,0.0,6.0,6.0,519.0047020000748,6.0,1.0,phase_2,go,200.0,200.0,1.0,,,,,,,,,green,square
0.0,1.0,0.5,0.0,5.0,5.0,511.90638200023386,6.0,1.0,phase_2,go,200.0,200.0,1.0,,,,,,,,,green,square
0.0,3.0,2.0,0.0,6.0,6.0,438.9690140001221,6.0,1.0,phase_2,go,200.0,200.0,1.0,,,,,,,,,yellow,circle
0.0,7.0,2.0,1.0,6.0,0.0,0.0,6.0,1.0,phase_2,stop,200.0,200.0,4.0,,,,,,,,,magenta,diamond
0.0,3.0,2.0,0.0,6.0,6.0,428.2749829999375,6.0,1.0,phase_2,go,200.0,250.0,1.0,,,,,,,,,yellow,circle
0.0,4.0,4.0,0.0,6.0,6.0,454.9823310003376,6.0,1.0,phase_2,go,200.0,250.0,1.0,,,,,,,,,blue,flipped triangle
0.0,6.0,1.0,1.0,6.0,6.0,432.8205940000771,6.0,1.0,phase_2,stop,200.0,250.0,3.0,,,,,,,,,cyan,I
0.0,1.0,0.5,0.0,6.0,6.0,371.7231559999163,6.0,1.0,phase_2,go,200.0,200.0,1.0,,,,,,,,,green,square
0.0,2.0,1.0,0.0,5.0,5.0,354.5474359998479,6.0,1.0,phase_2,go,200.0,200.0,1.0,,,,,,,,,gray,triangle
0.0,4.0,4.0,0.0,5.0,5.0,429.0050439999504,6.0,1.0,phase_2,go,200.0,200.0,1.0,,,,,,,,,blue,flipped triangle
0.0,3.0,2.0,0.0,5.0,5.0,584.8403340000914,6.0,1.0,phase_2,go,200.0,200.0,1.0,,,,,,,,,yellow,circle
0.0,4.0,4.0,0.0,5.0,5.0,474.9549950001892,6.0,1.0,phase_2,go,200.0,200.0,1.0,,,,,,,,,blue,flipped triangle
0.0,1.0,0.5,0.0,5.0,5.0,391.7912169999908,6.0,1.0,phase_2,go,200.0,200.0,1.0,,,,,,,,,green,square
0.0,6.0,1.0,1.0,6.0,6.0,378.9583839998158,6.0,1.0,phase_2,stop,200.0,200.0,3.0,,,,,,,,,cyan,I
0.0,2.0,1.0,0.0,6.0,6.0,353.7548489998698,6.0,1.0,phase_2,go,200.0,150.0,1.0,,,,,,,,,gray,triangle
0.0,4.0,4.0,0.0,6.0,6.0,466.9175280000672,6.0,1.0,phase_2,go,200.0,150.0,1.0,,,,,,,,,blue,flipped triangle
0.0,5.0,0.5,1.0,6.0,0.0,0.0,6.0,1.0,phase_2,stop,200.0,150.0,4.0,,,,,,,,,white,cross
0.0,2.0,1.0,0.0,5.0,5.0,502.24048300015056,6.0,1.0,phase_2,go,200.0,200.0,1.0,,,,,,,,,gray,triangle
0.0,5.0,0.5,1.0,5.0,0.0,0.0,6.0,1.0,phase_2,stop,200.0,200.0,4.0,,,,,,,,,white,cross
0.0,3.0,2.0,0.0,5.0,5.0,400.9338770001704,6.0,1.0,phase_2,go,250.0,200.0,1.0,,,,,,,,,yellow,circle
0.0,3.0,2.0,0.0,6.0,6.0,734.4490959999348,7.0,1.0,phase_2,go,250.0,200.0,1.0,,,,,,,,,yellow,circle
0.0,1.0,0.5,0.0,5.0,5.0,660.4079950002415,7.0,1.0,phase_2,go,250.0,200.0,1.0,,,,,,,,,green,square
0.0,8.0,4.0,1.0,5.0,5.0,353.4093040002517,7.0,1.0,phase_2,stop,250.0,200.0,3.0,,,,,,,,,orange,hexagon
0.0,3.0,2.0,0.0,6.0,6.0,316.5523399998164,7.0,1.0,phase_2,go,200.0,200.0,1.0,,,,,,,,,yellow,circle
0.0,5.0,0.5,1.0,5.0,5.0,416.8814360000397,7.0,1.0,phase_2,stop,200.0,200.0,3.0,,,,,,,,,white,cross
0.0,1.0,0.5,0.0,5.0,5.0,456.3842540001133,7.0,1.0,phase_2,go,150.0,200.0,1.0,,,,,,,,,green,square
0.0,4.0,4.0,0.0,6.0,6.0,428.9519839999229,7.0,1.0,phase_2,go,150.0,200.0,1.0,,,,,,,,,blue,flipped triangle
0.0,1.0,0.5,0.0,5.0,5.0,372.438842000065,7.0,1.0,phase_2,go,150.0,200.0,1.0,,,,,,,,,green,square
0.0,2.0,1.0,0.0,6.0,6.0,325.0846229998387,7.0,1.0,phase_2,go,150.0,200.0,1.0,,,,,,,,,gray,triangle
0.0,2.0,1.0,0.0,5.0,5.0,372.6370260001204,7.0,1.0,phase_2,go,150.0,200.0,1.0,,,,,,,,,gray,triangle
0.0,8.0,4.0,1.0,5.0,5.0,365.3809160000492,7.0,1.0,phase_2,stop,150.0,200.0,3.0,,,,,,,,,orange,hexagon
0.0,5.0,0.5,1.0,6.0,6.0,306.7147450001357,7.0,1.0,phase_2,go,100.0,200.0,1.0,,,,,,,,,white,cross
0.0,1.0,0.5,0.0,5.0,5.0,344.4943909998983,7.0,1.0,phase_2,go,100.0,200.0,1.0,,,,,,,,,green,square
0.0,8.0,4.0,1.0,5.0,0.0,0.0,7.0,1.0,phase_2,stop,100.0,200.0,4.0,,,,,,,,,orange,hexagon
0.0,8.0,4.0,1.0,6.0,6.0,315.9245540000484,7.0,1.0,phase_2,go,150.0,200.0,1.0,,,,,,,,,orange,hexagon
0.0,1.0,0.5,0.0,6.0,6.0,326.2155069996879,7.0,1.0,phase_2,go,150.0,200.0,1.0,,,,,,,,,green,square
0.0,8.0,4.0,1.0,5.0,5.0,307.8815490002853,7.0,1.0,phase_2,stop,150.0,200.0,3.0,,,,,,,,,orange,hexagon
0.0,8.0,4.0,1.0,6.0,6.0,373.757969000053,7.0,1.0,phase_2,go,100.0,200.0,1.0,,,,,,,,,orange,hexagon
0.0,2.0,1.0,0.0,5.0,5.0,512.1880439996858,7.0,1.0,phase_2,go,100.0,200.0,1.0,,,,,,,,,gray,triangle
0.0,7.0,2.0,1.0,5.0,0.0,0.0,7.0,1.0,phase_2,stop,100.0,200.0,4.0,,,,,,,,,magenta,diamond
0.0,5.0,0.5,1.0,5.0,0.0,0.0,7.0,1.0,phase_2,stop,150.0,200.0,4.0,,,,,,,,,white,cross
0.0,8.0,4.0,1.0,6.0,6.0,550.8556989998397,7.0,1.0,phase_2,go,200.0,200.0,1.0,,,,,,,,,orange,hexagon
0.0,5.0,0.5,1.0,5.0,0.0,0.0,7.0,1.0,phase_2,stop,200.0,200.0,4.0,,,,,,,,,white,cross
0.0,6.0,1.0,1.0,6.0,0.0,0.0,7.0,1.0,phase_2,stop,250.0,200.0,4.0,,,,,,,,,cyan,I
0.0,2.0,1.0,0.0,6.0,6.0,475.419851999959,7.0,1.0,phase_2,go,250.0,250.0,1.0,,,,,,,,,gray,triangle
0.0,1.0,0.5,0.0,5.0,5.0,392.3807529999976,7.0,1.0,phase_2,go,250.0,250.0,1.0,,,,,,,,,green,square
0.0,2.0,1.0,0.0,5.0,5.0,352.9453410001224,7.0,1.0,phase_2,go,250.0,250.0,1.0,,,,,,,,,gray,triangle
0.0,4.0,4.0,0.0,6.0,6.0,464.3694789997425,7.0,1.0,phase_2,go,250.0,250.0,1.0,,,,,,,,,blue,flipped triangle
0.0,2.0,1.0,0.0,6.0,6.0,530.119458000172,7.0,1.0,phase_2,go,250.0,250.0,1.0,,,,,,,,,gray,triangle
0.0,4.0,4.0,0.0,5.0,5.0,532.1451469999374,7.0,1.0,phase_2,go,250.0,250.0,1.0,,,,,,,,,blue,flipped triangle
0.0,6.0,1.0,1.0,6.0,6.0,293.7809430000015,7.0,1.0,phase_2,stop,250.0,250.0,3.0,,,,,,,,,cyan,I
0.0,7.0,2.0,1.0,5.0,5.0,323.5760110001138,7.0,1.0,phase_2,stop,250.0,200.0,3.0,,,,,,,,,magenta,diamond
0.0,3.0,2.0,0.0,6.0,6.0,326.1728030001904,7.0,1.0,phase_2,go,200.0,200.0,1.0,,,,,,,,,yellow,circle
0.0,7.0,2.0,1.0,5.0,5.0,312.745194999934,7.0,1.0,phase_2,stop,200.0,200.0,3.0,,,,,,,,,magenta,diamond
0.0,3.0,2.0,0.0,5.0,5.0,390.1592319998599,7.0,1.0,phase_2,go,150.0,200.0,1.0,,,,,,,,,yellow,circle
0.0,2.0,1.0,0.0,5.0,5.0,417.6458490001096,7.0,1.0,phase_2,go,150.0,200.0,1.0,,,,,,,,,gray,triangle
0.0,1.0,0.5,0.0,5.0,5.0,484.0894330000083,8.0,1.0,phase_2,go,150.0,200.0,1.0,,,,,,,,,green,square
0.0,6.0,1.0,1.0,6.0,6.0,356.2726309996833,8.0,1.0,phase_2,stop,150.0,200.0,3.0,,,,,,,,,cyan,I
0.0,6.0,1.0,1.0,5.0,5.0,333.9726710000832,8.0,1.0,phase_2,go,150.0,150.0,1.0,,,,,,,,,cyan,I
0.0,2.0,1.0,0.0,6.0,6.0,270.0125569999727,8.0,1.0,phase_2,go,150.0,150.0,1.0,,,,,,,,,gray,triangle
0.0,8.0,4.0,1.0,6.0,6.0,326.2004409998553,8.0,1.0,phase_2,stop,150.0,150.0,3.0,,,,,,,,,orange,hexagon
0.0,6.0,1.0,1.0,5.0,5.0,344.0925170002629,8.0,1.0,phase_2,stop,150.0,100.0,3.0,,,,,,,,,cyan,I
0.0,1.0,0.5,0.0,5.0,5.0,380.4496520001521,8.0,1.0,phase_2,go,100.0,100.0,1.0,,,,,,,,,green,square
0.0,4.0,4.0,0.0,5.0,5.0,436.8432780001967,8.0,1.0,phase_2,go,100.0,100.0,1.0,,,,,,,,,blue,flipped triangle
0.0,5.0,0.5,1.0,5.0,5.0,353.0379280000488,8.0,1.0,phase_2,go,100.0,100.0,1.0,,,,,,,,,white,cross
0.0,4.0,4.0,0.0,5.0,5.0,426.9077959997958,8.0,1.0,phase_2,go,100.0,100.0,1.0,,,,,,,,,blue,flipped triangle
0.0,6.0,1.0,1.0,6.0,0.0,0.0,8.0,1.0,phase_2,stop,100.0,100.0,4.0,,,,,,,,,cyan,I
0.0,1.0,0.5,0.0,6.0,6.0,399.4244729997263,8.0,1.0,phase_2,go,100.0,150.0,1.0,,,,,,,,,green,square
0.0,3.0,2.0,0.0,5.0,5.0,408.7764189998779,8.0,1.0,phase_2,go,100.0,150.0,1.0,,,,,,,,,yellow,circle
0.0,2.0,1.0,0.0,5.0,5.0,454.805707000105,8.0,1.0,phase_2,go,100.0,150.0,1.0,,,,,,,,,gray,triangle
0.0,1.0,0.5,0.0,6.0,6.0,438.1034899997758,8.0,1.0,phase_2,go,100.0,150.0,1.0,,,,,,,,,green,square
0.0,8.0,4.0,1.0,5.0,0.0,0.0,8.0,1.0,phase_2,stop,100.0,150.0,4.0,,,,,,,,,orange,hexagon
0.0,5.0,0.5,1.0,6.0,6.0,661.7435699999987,8.0,1.0,phase_2,go,150.0,150.0,1.0,,,,,,,,,white,cross
0.0,5.0,0.5,1.0,5.0,5.0,446.0479949998444,8.0,1.0,phase_2,go,150.0,150.0,1.0,,,,,,,,,white,cross
0.0,3.0,2.0,0.0,5.0,5.0,466.0889219999262,8.0,1.0,phase_2,go,150.0,150.0,1.0,,,,,,,,,yellow,circle
0.0,7.0,2.0,1.0,6.0,6.0,393.9238869998007,8.0,1.0,phase_2,stop,150.0,150.0,3.0,,,,,,,,,magenta,diamond
0.0,7.0,2.0,1.0,6.0,0.0,0.0,8.0,1.0,phase_2,stop,150.0,100.0,4.0,,,,,,,,,magenta,diamond
0.0,2.0,1.0,0.0,6.0,6.0,408.1630360001327,8.0,1.0,phase_2,go,150.0,150.0,1.0,,,,,,,,,gray,triangle
0.0,4.0,4.0,0.0,6.0,6.0,446.7326620001586,8.0,1.0,phase_2,go,150.0,150.0,1.0,,,,,,,,,blue,flipped triangle
0.0,3.0,2.0,0.0,5.0,5.0,521.9459130003088,8.0,1.0,phase_2,go,150.0,150.0,1.0,,,,,,,,,yellow,circle
0.0,4.0,4.0,0.0,6.0,6.0,447.5558799999817,8.0,1.0,phase_2,go,150.0,150.0,1.0,,,,,,,,,blue,flipped triangle
0.0,8.0,4.0,1.0,5.0,0.0,0.0,8.0,1.0,phase_2,stop,150.0,150.0,4.0,,,,,,,,,orange,hexagon
0.0,2.0,1.0,0.0,6.0,6.0,417.7147770001284,8.0,1.0,phase_2,go,200.0,150.0,1.0,,,,,,,,,gray,triangle
0.0,3.0,2.0,0.0,5.0,5.0,296.9143149994124,8.0,1.0,phase_2,go,200.0,150.0,1.0,,,,,,,,,yellow,circle
0.0,1.0,0.5,0.0,5.0,5.0,363.5718530003942,8.0,1.0,phase_2,go,200.0,150.0,1.0,,,,,,,,,green,square
0.0,6.0,1.0,1.0,6.0,6.0,339.75603099952417,8.0,1.0,phase_2,stop,200.0,150.0,3.0,,,,,,,,,cyan,I
0.0,6.0,1.0,1.0,6.0,0.0,0.0,8.0,1.0,phase_2,stop,200.0,100.0,4.0,,,,,,,,,cyan,I
0.0,2.0,1.0,0.0,5.0,5.0,454.056173999561,8.0,1.0,phase_2,go,200.0,150.0,1.0,,,,,,,,,gray,triangle
0.0,1.0,0.5,0.0,6.0,6.0,288.3161859999745,8.0,1.0,phase_2,go,200.0,150.0,1.0,,,,,,,,,green,square
0.0,3.0,2.0,0.0,5.0,5.0,445.9536409995053,8.0,1.0,phase_2,go,200.0,150.0,1.0,,,,,,,,,yellow,circle
0.0,5.0,0.5,1.0,5.0,0.0,0.0,8.0,1.0,phase_2,stop,200.0,150.0,4.0,,,,,,,,,white,cross
0.0,5.0,0.5,1.0,5.0,5.0,437.453061999804,8.0,1.0,phase_2,go,250.0,150.0,1.0,,,,,,,,,white,cross
0.0,7.0,2.0,1.0,7.0,2.0,2720.8565060000183,1.0,1.0,phase_3,,,,,154.0,1.0,462.0,154.0,616.0,924.0,308.0,770.0,magenta,diamond
0.0,6.0,1.0,1.0,7.0,3.0,1440.606506999757,1.0,1.0,phase_3,,,,,270.0,2.0,405.0,135.0,270.0,810.0,675.0,540.0,cyan,I
0.0,4.0,4.0,0.0,7.0,1.0,1201.232197000536,1.0,1.0,phase_3,,,,,135.0,1.0,135.0,540.0,405.0,270.0,810.0,675.0,blue,flipped triangle
0.0,4.0,4.0,0.0,7.0,4.0,2697.015869000097,1.0,1.0,phase_3,,,,,616.0,4.0,308.0,770.0,924.0,616.0,154.0,462.0,blue,flipped triangle
0.0,7.0,2.0,1.0,7.0,5.0,2002.0735650005008,1.0,1.0,phase_3,,,,,1038.0,6.0,692.0,173.0,519.0,346.0,1038.0,865.0,magenta,diamond
0.0,2.0,1.0,0.0,7.0,1.0,853.374729999814,1.0,1.0,phase_3,,,,,116.0,1.0,116.0,464.0,348.0,696.0,232.0,580.0,gray,triangle
0.0,6.0,1.0,1.0,7.0,1.0,1412.217580000288,1.0,1.0,phase_3,,,,,154.0,1.0,154.0,308.0,616.0,462.0,770.0,924.0,cyan,I
0.0,1.0,0.5,0.0,7.0,2.0,516.4215089998834,1.0,1.0,phase_3,,,,,924.0,6.0,462.0,924.0,308.0,154.0,770.0,616.0,green,square
0.0,7.0,2.0,1.0,7.0,4.0,472.5372789998801,1.0,1.0,phase_3,,,,,1038.0,6.0,346.0,865.0,173.0,1038.0,692.0,519.0,magenta,diamond
0.0,3.0,2.0,0.0,7.0,2.0,296.1805639997692,1.0,1.0,phase_3,,,,,692.0,4.0,519.0,692.0,1038.0,173.0,346.0,865.0,yellow,circle
0.0,5.0,0.5,1.0,7.0,6.0,388.3792509996056,1.0,1.0,phase_3,,,,,135.0,1.0,540.0,270.0,675.0,405.0,810.0,135.0,white,cross
0.0,1.0,0.5,0.0,7.0,5.0,1322.0782079997662,1.0,1.0,phase_3,,,,,116.0,1.0,580.0,696.0,348.0,464.0,116.0,232.0,green,square
0.0,7.0,2.0,1.0,7.0,2.0,398.6230829996202,1.0,1.0,phase_3,,,,,540.0,4.0,270.0,540.0,675.0,135.0,405.0,810.0,magenta,diamond
0.0,8.0,4.0,1.0,7.0,2.0,912.8324690000228,1.0,1.0,phase_3,,,,,768.0,4.0,960.0,768.0,1152.0,576.0,192.0,384.0,orange,hexagon
0.0,3.0,2.0,0.0,7.0,5.0,397.1501899995928,1.0,1.0,phase_3,,,,,348.0,3.0,696.0,232.0,116.0,464.0,348.0,580.0,yellow,circle
0.0,8.0,4.0,1.0,7.0,3.0,665.6817549992411,1.0,1.0,phase_3,,,,,675.0,5.0,270.0,405.0,675.0,135.0,810.0,540.0,orange,hexagon
0.0,1.0,0.5,0.0,7.0,6.0,415.8819480007878,1.0,1.0,phase_3,,,,,810.0,6.0,270.0,540.0,405.0,675.0,135.0,810.0,green,square
0.0,2.0,1.0,0.0,7.0,2.0,371.6116350005904,1.0,1.0,phase_3,,,,,154.0,1.0,462.0,154.0,924.0,770.0,616.0,308.0,gray,triangle
0.0,5.0,0.5,1.0,7.0,5.0,470.6486229997608,1.0,1.0,phase_3,,,,,464.0,4.0,348.0,116.0,696.0,232.0,464.0,580.0,white,cross
0.0,5.0,0.5,1.0,7.0,5.0,1041.3404680002714,1.0,1.0,phase_3,,,,,519.0,3.0,173.0,865.0,346.0,1038.0,519.0,692.0,white,cross
0.0,2.0,1.0,0.0,7.0,4.0,544.9536469996019,2.0,1.0,phase_3,,,,,135.0,1.0,270.0,810.0,675.0,135.0,540.0,405.0,gray,triangle
0.0,7.0,2.0,1.0,7.0,2.0,379.6947829996497,2.0,1.0,phase_3,,,,,116.0,1.0,348.0,116.0,696.0,580.0,232.0,464.0,magenta,diamond
0.0,5.0,0.5,1.0,7.0,5.0,760.3678969999237,2.0,1.0,phase_3,,,,,154.0,1.0,616.0,308.0,924.0,462.0,154.0,770.0,white,cross
0.0,5.0,0.5,1.0,7.0,6.0,710.5942560001495,2.0,1.0,phase_3,,,,,384.0,2.0,576.0,192.0,768.0,1152.0,960.0,384.0,white,cross
0.0,1.0,0.5,0.0,7.0,2.0,231.0008249996826,2.0,1.0,phase_3,,,,,540.0,4.0,270.0,540.0,675.0,405.0,810.0,135.0,green,square
0.0,2.0,1.0,0.0,7.0,4.0,416.851002999465,2.0,1.0,phase_3,,,,,270.0,2.0,135.0,405.0,675.0,270.0,540.0,810.0,gray,triangle
0.0,8.0,4.0,1.0,7.0,5.0,397.6865879994875,2.0,1.0,phase_3,,,,,540.0,4.0,405.0,270.0,675.0,135.0,540.0,810.0,orange,hexagon
0.0,3.0,2.0,0.0,7.0,1.0,717.4233800005823,2.0,1.0,phase_3,,,,,405.0,3.0,405.0,810.0,270.0,135.0,675.0,540.0,yellow,circle
0.0,8.0,4.0,1.0,7.0,6.0,960.9069169991926,2.0,1.0,phase_3,,,,,173.0,1.0,865.0,519.0,346.0,1038.0,692.0,173.0,orange,hexagon
0.0,3.0,2.0,0.0,7.0,5.0,865.9503709995988,2.0,1.0,phase_3,,,,,135.0,1.0,675.0,810.0,270.0,405.0,135.0,540.0,yellow,circle
0.0,6.0,1.0,1.0,7.0,4.0,813.4432389997528,2.0,1.0,phase_3,,,,,405.0,3.0,675.0,135.0,810.0,405.0,540.0,270.0,cyan,I
0.0,5.0,0.5,1.0,7.0,1.0,650.75906400034,2.0,1.0,phase_3,,,,,308.0,2.0,308.0,154.0,462.0,924.0,616.0,770.0,white,cross
0.0,5.0,0.5,1.0,7.0,2.0,519.125709999571,2.0,1.0,phase_3,,,,,692.0,4.0,346.0,692.0,1038.0,865.0,173.0,519.0,white,cross
0.0,1.0,0.5,0.0,7.0,5.0,599.5086729999457,2.0,1.0,phase_3,,,,,576.0,3.0,1152.0,384.0,192.0,768.0,576.0,960.0,green,square
0.0,7.0,2.0,1.0,7.0,5.0,499.2346589997396,2.0,1.0,phase_3,,,,,810.0,6.0,405.0,135.0,675.0,540.0,810.0,270.0,magenta,diamond
0.0,4.0,4.0,0.0,7.0,6.0,408.0258490002961,2.0,1.0,phase_3,,,,,616.0,4.0,462.0,154.0,924.0,770.0,308.0,616.0,blue,flipped triangle
0.0,2.0,1.0,0.0,7.0,2.0,539.5750649995534,2.0,1.0,phase_3,,,,,308.0,2.0,924.0,308.0,154.0,616.0,770.0,462.0,gray,triangle
0.0,2.0,1.0,0.0,7.0,6.0,323.2523030001175,2.0,1.0,phase_3,,,,,692.0,4.0,1038.0,346.0,519.0,865.0,173.0,692.0,gray,triangle
0.0,2.0,1.0,0.0,7.0,5.0,378.2525990000067,2.0,1.0,phase_3,,,,,580.0,5.0,464.0,696.0,116.0,348.0,580.0,232.0,gray,triangle
0.0,3.0,2.0,0.0,7.0,2.0,389.3125240001609,2.0,1.0,phase_3,,,,,960.0,5.0,768.0,960.0,384.0,1152.0,576.0,192.0,yellow,circle
0.0,1.0,0.5,0.0,7.0,5.0,405.2601409994167,3.0,1.0,phase_3,,,,,519.0,3.0,1038.0,173.0,692.0,865.0,519.0,346.0,green,square
0.0,6.0,1.0,1.0,7.0,6.0,488.2562399998278,3.0,1.0,phase_3,,,,,346.0,2.0,865.0,173.0,519.0,1038.0,692.0,346.0,cyan,I
0.0,5.0,0.5,1.0,7.0,2.0,452.3606599996128,3.0,1.0,phase_3,,,,,540.0,4.0,405.0,540.0,135.0,675.0,270.0,810.0,white,cross
0.0,5.0,0.5,1.0,7.0,4.0,480.3538799997113,3.0,1.0,phase_3,,,,,696.0,6.0,580.0,464.0,116.0,696.0,348.0,232.0,white,cross
0.0,6.0,1.0,1.0,7.0,2.0,526.4366920000612,3.0,1.0,phase_3,,,,,616.0,4.0,308.0,616.0,770.0,924.0,462.0,154.0,cyan,I
0.0,1.0,0.5,0.0,7.0,5.0,524.2195669998182,3.0,1.0,phase_3,,,,,770.0,5.0,924.0,462.0,154.0,308.0,770.0,616.0,green,square
0.0,6.0,1.0,1.0,7.0,5.0,517.5702629994703,3.0,1.0,phase_3,,,,,346.0,2.0,519.0,173.0,865.0,1038.0,346.0,692.0,cyan,I
0.0,3.0,2.0,0.0,7.0,2.0,323.2374570006868,3.0,1.0,phase_3,,,,,865.0,5.0,173.0,865.0,519.0,692.0,346.0,1038.0,yellow,circle
0.0,7.0,2.0,1.0,7.0,6.0,518.6346259997663,3.0,1.0,phase_3,,,,,960.0,5.0,384.0,1152.0,768.0,576.0,192.0,960.0,magenta,diamond
0.0,4.0,4.0,0.0,7.0,6.0,611.0000750004474,3.0,1.0,phase_3,,,,,464.0,4.0,348.0,580.0,696.0,232.0,116.0,464.0,blue,flipped triangle
0.0,4.0,4.0,0.0,7.0,5.0,534.6376039997267,3.0,1.0,phase_3,,,,,173.0,1.0,519.0,346.0,1038.0,865.0,173.0,692.0,blue,flipped triangle
0.0,1.0,0.5,0.0,7.0,1.0,509.8766510000132,3.0,1.0,phase_3,,,,,519.0,3.0,519.0,173.0,1038.0,865.0,692.0,346.0,green,square
0.0,2.0,1.0,0.0,7.0,5.0,1156.8704350002008,3.0,1.0,phase_3,,,,,1038.0,6.0,692.0,865.0,346.0,519.0,1038.0,173.0,gray,triangle
0.0,3.0,2.0,0.0,7.0,2.0,1147.2664630000509,3.0,1.0,phase_3,,,,,1152.0,6.0,192.0,1152.0,384.0,960.0,768.0,576.0,yellow,circle
0.0,1.0,0.5,0.0,7.0,2.0,488.7903650005682,3.0,1.0,phase_3,,,,,1152.0,6.0,768.0,1152.0,960.0,576.0,384.0,192.0,green,square
0.0,4.0,4.0,0.0,7.0,4.0,544.3217369993363,3.0,1.0,phase_3,,,,,865.0,5.0,173.0,346.0,1038.0,865.0,519.0,692.0,blue,flipped triangle
0.0,8.0,4.0,1.0,7.0,6.0,558.1679189999704,3.0,1.0,phase_3,,,,,232.0,2.0,580.0,348.0,116.0,464.0,696.0,232.0,orange,hexagon
0.0,4.0,4.0,0.0,7.0,5.0,442.3800770000525,3.0,1.0,phase_3,,,,,384.0,2.0,768.0,576.0,192.0,960.0,384.0,1152.0,blue,flipped triangle
0.0,3.0,2.0,0.0,7.0,2.0,590.4654420000952,3.0,1.0,phase_3,,,,,116.0,1.0,348.0,116.0,232.0,580.0,464.0,696.0,yellow,circle
0.0,2.0,1.0,0.0,7.0,4.0,931.7079010006636,3.0,1.0,phase_3,,,,,768.0,4.0,384.0,1152.0,960.0,768.0,192.0,576.0,gray,triangle
0.0,8.0,4.0,1.0,7.0,5.0,526.6984099998808,4.0,1.0,phase_3,,,,,154.0,1.0,462.0,308.0,616.0,770.0,154.0,924.0,orange,hexagon
0.0,8.0,4.0,1.0,7.0,6.0,295.6032499996581,4.0,1.0,phase_3,,,,,519.0,3.0,346.0,1038.0,865.0,692.0,173.0,519.0,orange,hexagon
0.0,7.0,2.0,1.0,7.0,5.0,350.7115869997506,4.0,1.0,phase_3,,,,,616.0,4.0,770.0,462.0,154.0,924.0,616.0,308.0,magenta,diamond
0.0,3.0,2.0,0.0,7.0,5.0,442.4945920000027,4.0,1.0,phase_3,,,,,924.0,6.0,770.0,308.0,154.0,616.0,924.0,462.0,yellow,circle
0.0,1.0,0.5,0.0,7.0,6.0,601.1813109998911,4.0,1.0,phase_3,,,,,232.0,2.0,464.0,348.0,116.0,580.0,696.0,232.0,green,square
0.0,4.0,4.0,0.0,7.0,4.0,378.9550250003231,4.0,1.0,phase_3,,,,,540.0,4.0,135.0,270.0,405.0,540.0,810.0,675.0,blue,flipped triangle
0.0,8.0,4.0,1.0,7.0,3.0,687.0466729997133,4.0,1.0,phase_3,,,,,1152.0,6.0,960.0,768.0,1152.0,576.0,192.0,384.0,orange,hexagon
0.0,8.0,4.0,1.0,7.0,5.0,443.4025430000474,4.0,1.0,phase_3,,,,,462.0,3.0,154.0,616.0,770.0,308.0,462.0,924.0,orange,hexagon
0.0,5.0,0.5,1.0,7.0,3.0,849.197639000522,4.0,1.0,phase_3,,,,,960.0,5.0,768.0,192.0,960.0,384.0,1152.0,576.0,white,cross
0.0,4.0,4.0,0.0,7.0,4.0,516.5837390004526,4.0,1.0,phase_3,,,,,192.0,1.0,960.0,384.0,1152.0,192.0,768.0,576.0,blue,flipped triangle
0.0,6.0,1.0,1.0,7.0,3.0,601.6157350004505,4.0,1.0,phase_3,,,,,768.0,4.0,576.0,192.0,768.0,960.0,384.0,1152.0,cyan,I
0.0,8.0,4.0,1.0,7.0,6.0,427.7388269993025,4.0,1.0,phase_3,,,,,232.0,2.0,116.0,580.0,348.0,464.0,696.0,232.0,orange,hexagon
0.0,6.0,1.0,1.0,7.0,1.0,757.0703920000597,4.0,1.0,phase_3,,,,,348.0,3.0,348.0,116.0,232.0,464.0,696.0,580.0,cyan,I
0.0,7.0,2.0,1.0,7.0,5.0,397.0705210003871,4.0,1.0,phase_3,,,,,696.0,6.0,464.0,232.0,116.0,348.0,696.0,580.0,magenta,diamond
0.0,6.0,1.0,1.0,7.0,4.0,510.08137300050294,4.0,1.0,phase_3,,,,,116.0,1.0,696.0,580.0,232.0,116.0,348.0,464.0,cyan,I
0.0,7.0,2.0,1.0,7.0,1.0,656.287791000068,4.0,1.0,phase_3,,,,,768.0,4.0,768.0,1152.0,384.0,192.0,576.0,960.0,magenta,diamond
0.0,6.0,1.0,1.0,7.0,4.0,650.5871899998965,4.0,1.0,phase_3,,,,,192.0,1.0,576.0,768.0,960.0,192.0,1152.0,384.0,cyan,I
0.0,4.0,4.0,0.0,7.0,6.0,563.2598339998367,4.0,1.0,phase_3,,,,,116.0,1.0,696.0,580.0,464.0,348.0,232.0,116.0,blue,flipped triangle
0.0,2.0,1.0,0.0,7.0,2.0,526.9287310002255,4.0,1.0,phase_3,,,,,960.0,5.0,768.0,960.0,192.0,1152.0,576.0,384.0,gray,triangle
0.0,3.0,2.0,0.0,7.0,3.0,526.6956559999016,4.0,1.0,phase_3,,,,,462.0,3.0,308.0,154.0,462.0,924.0,770.0,616.0,yellow,circle
