raw_reward_magnitude,stim_reward,stepwise_reward_magnitude,paired_with_stopping,quadrant,response,reaction_time,block,num_trial_presentations,which_part,stop_signal_trial_type,left_SSD,right_SSD,accuracy,chosen_bidding_amount,chosen_bidding_level,possible_bid_1,possible_bid_2,possible_bid_3,possible_bid_4,possible_bid_5,possible_bid_6,color_text,shape_text
306.0,6.0,2.0,1.0,2.0,2.0,498.2843560001129,1.0,2.0,part_1,,,,,,,,,,,,,cyan,I
182.0,5.0,1.0,1.0,1.0,1.0,546.7622060000394,1.0,1.0,part_1,,,,,,,,,,,,,blue,cross
303.0,6.0,2.0,1.0,4.0,4.0,408.2897359999151,1.0,1.0,part_1,,,,,,,,,,,,,cyan,I
330.0,6.0,2.0,1.0,3.0,3.0,288.0112580000968,1.0,1.0,part_1,,,,,,,,,,,,,cyan,I
648.0,3.0,3.0,0.0,3.0,3.0,343.6659939998208,1.0,1.0,part_1,,,,,,,,,,,,,magenta,square
1286.0,8.0,4.0,1.0,1.0,1.0,443.7402550001934,1.0,2.0,part_1,,,,,,,,,,,,,green,triangle
146.0,5.0,1.0,1.0,1.0,1.0,399.1160619998481,1.0,1.0,part_1,,,,,,,,,,,,,blue,cross
165.0,1.0,1.0,0.0,3.0,3.0,444.5998549999785,1.0,1.0,part_1,,,,,,,,,,,,,yellow,hexagon
177.0,5.0,1.0,1.0,1.0,1.0,371.630358999937,1.0,1.0,part_1,,,,,,,,,,,,,blue,cross
0.0,1.0,0.0,0.0,1.0,1.0,398.1641800000943,1.0,1.0,part_1,,,,,,,,,,,,,yellow,hexagon
1281.0,8.0,4.0,1.0,4.0,4.0,436.1745439996412,1.0,1.0,part_1,,,,,,,,,,,,,green,triangle
0.0,7.0,0.0,1.0,3.0,3.0,315.6985240002541,1.0,1.0,part_1,,,,,,,,,,,,,white,diamond
149.0,5.0,1.0,1.0,2.0,2.0,600.3355200000442,1.0,1.0,part_1,,,,,,,,,,,,,blue,cross
180.0,1.0,1.0,0.0,2.0,2.0,453.9859159999651,1.0,1.0,part_1,,,,,,,,,,,,,yellow,hexagon
1319.0,8.0,4.0,1.0,3.0,3.0,412.7850519998901,1.0,1.0,part_1,,,,,,,,,,,,,green,triangle
1294.0,8.0,4.0,1.0,4.0,4.0,474.0568500001245,1.0,1.0,part_1,,,,,,,,,,,,,green,triangle
1304.0,8.0,4.0,1.0,1.0,1.0,317.001321999669,1.0,1.0,part_1,,,,,,,,,,,,,green,triangle
184.0,1.0,1.0,0.0,2.0,2.0,354.5968650000759,1.0,1.0,part_1,,,,,,,,,,,,,yellow,hexagon
165.0,5.0,1.0,1.0,1.0,1.0,418.8623959998949,1.0,1.0,part_1,,,,,,,,,,,,,blue,cross
334.0,6.0,2.0,1.0,1.0,1.0,393.9108889999261,1.0,1.0,part_1,,,,,,,,,,,,,cyan,I
140.0,1.0,1.0,0.0,3.0,3.0,335.8178359999328,1.0,1.0,part_1,,,,,,,,,,,,,yellow,hexagon
636.0,7.0,3.0,1.0,4.0,4.0,389.2262229996959,1.0,1.0,part_1,,,,,,,,,,,,,white,diamond
339.0,2.0,2.0,0.0,4.0,4.0,445.3656370001226,1.0,1.0,part_1,,,,,,,,,,,,,gray,circle
336.0,6.0,2.0,1.0,3.0,3.0,362.8077789999224,1.0,1.0,part_1,,,,,,,,,,,,,cyan,I
338.0,2.0,2.0,0.0,2.0,2.0,547.1685269999398,1.0,1.0,part_1,,,,,,,,,,,,,gray,circle
1306.0,8.0,4.0,1.0,2.0,2.0,380.5087850000745,1.0,1.0,part_1,,,,,,,,,,,,,green,triangle
303.0,2.0,2.0,0.0,4.0,4.0,401.8619850003233,1.0,1.0,part_1,,,,,,,,,,,,,gray,circle
0.0,8.0,0.0,1.0,2.0,2.0,356.8734010000298,1.0,1.0,part_1,,,,,,,,,,,,,green,triangle
652.0,7.0,3.0,1.0,3.0,3.0,399.9776519999614,1.0,1.0,part_1,,,,,,,,,,,,,white,diamond
0.0,4.0,0.0,0.0,1.0,1.0,529.3767069997557,1.0,1.0,part_1,,,,,,,,,,,,,orange,flipped triangle
639.0,7.0,3.0,1.0,2.0,2.0,370.6304140000611,1.0,1.0,part_1,,,,,,,,,,,,,white,diamond
659.0,7.0,3.0,1.0,1.0,1.0,427.0442070001081,1.0,1.0,part_1,,,,,,,,,,,,,white,diamond
167.0,5.0,1.0,1.0,4.0,4.0,370.7637439997597,1.0,1.0,part_1,,,,,,,,,,,,,blue,cross
626.0,7.0,3.0,1.0,2.0,2.0,315.1224990001537,1.0,1.0,part_1,,,,,,,,,,,,,white,diamond
183.0,1.0,1.0,0.0,1.0,1.0,324.4953820003502,1.0,1.0,part_1,,,,,,,,,,,,,yellow,hexagon
639.0,3.0,3.0,0.0,1.0,1.0,342.8289670000595,1.0,1.0,part_1,,,,,,,,,,,,,magenta,square
0.0,5.0,0.0,1.0,3.0,3.0,278.1693870001618,1.0,1.0,part_1,,,,,,,,,,,,,blue,cross
1322.0,8.0,4.0,1.0,1.0,1.0,271.3506460004282,1.0,1.0,part_1,,,,,,,,,,,,,green,triangle
161.0,1.0,1.0,0.0,1.0,1.0,371.4638110000123,1.0,1.0,part_1,,,,,,,,,,,,,yellow,hexagon
634.0,7.0,3.0,1.0,3.0,3.0,351.6885869998987,1.0,1.0,part_1,,,,,,,,,,,,,white,diamond
149.0,5.0,1.0,1.0,2.0,2.0,296.9273919998159,1.0,1.0,part_1,,,,,,,,,,,,,blue,cross
636.0,3.0,3.0,0.0,1.0,1.0,316.8078349999632,1.0,1.0,part_1,,,,,,,,,,,,,magenta,square
148.0,5.0,1.0,1.0,3.0,3.0,306.7132780001884,1.0,1.0,part_1,,,,,,,,,,,,,blue,cross
1312.0,4.0,4.0,0.0,4.0,4.0,346.5842189998511,1.0,1.0,part_1,,,,,,,,,,,,,orange,flipped triangle
162.0,1.0,1.0,0.0,4.0,4.0,372.7537489999122,1.0,1.0,part_1,,,,,,,,,,,,,yellow,hexagon
1307.0,8.0,4.0,1.0,2.0,2.0,464.5044560002134,1.0,2.0,part_1,,,,,,,,,,,,,green,triangle
1301.0,4.0,4.0,0.0,1.0,1.0,509.49872099999993,1.0,1.0,part_1,,,,,,,,,,,,,orange,flipped triangle
0.0,5.0,0.0,1.0,3.0,3.0,352.7029150000089,1.0,1.0,part_1,,,,,,,,,,,,,blue,cross
0.0,7.0,0.0,1.0,4.0,4.0,370.1575720001528,1.0,1.0,part_1,,,,,,,,,,,,,white,diamond
658.0,7.0,3.0,1.0,4.0,4.0,388.0641380001179,1.0,1.0,part_1,,,,,,,,,,,,,white,diamond
0.0,4.0,0.0,0.0,4.0,4.0,342.6803319998726,1.0,1.0,part_1,,,,,,,,,,,,,orange,flipped triangle
651.0,7.0,3.0,1.0,4.0,4.0,323.2486169999902,1.0,1.0,part_1,,,,,,,,,,,,,white,diamond
1294.0,4.0,4.0,0.0,4.0,4.0,287.1066800003063,1.0,1.0,part_1,,,,,,,,,,,,,orange,flipped triangle
646.0,7.0,3.0,1.0,2.0,2.0,360.5107170001247,1.0,1.0,part_1,,,,,,,,,,,,,white,diamond
645.0,3.0,3.0,0.0,1.0,1.0,287.31616800041587,1.0,1.0,part_1,,,,,,,,,,,,,magenta,square
0.0,7.0,0.0,1.0,4.0,4.0,361.9313449999026,1.0,1.0,part_1,,,,,,,,,,,,,white,diamond
175.0,5.0,1.0,1.0,3.0,3.0,314.845041999888,1.0,1.0,part_1,,,,,,,,,,,,,blue,cross
645.0,7.0,3.0,1.0,3.0,3.0,379.8283030000675,1.0,1.0,part_1,,,,,,,,,,,,,white,diamond
1312.0,4.0,4.0,0.0,2.0,2.0,361.4579400000366,1.0,1.0,part_1,,,,,,,,,,,,,orange,flipped triangle
654.0,3.0,3.0,0.0,4.0,4.0,345.1287480002065,1.0,1.0,part_1,,,,,,,,,,,,,magenta,square
179.0,1.0,1.0,0.0,3.0,3.0,428.7702859996898,1.0,1.0,part_1,,,,,,,,,,,,,yellow,hexagon
144.0,5.0,1.0,1.0,2.0,2.0,569.5300760003192,1.0,1.0,part_1,,,,,,,,,,,,,blue,cross
154.0,1.0,1.0,0.0,1.0,1.0,392.8216549998069,1.0,1.0,part_1,,,,,,,,,,,,,yellow,hexagon
1297.0,8.0,4.0,1.0,4.0,4.0,416.5997519999109,1.0,1.0,part_1,,,,,,,,,,,,,green,triangle
320.0,2.0,2.0,0.0,2.0,2.0,336.4463679999971,1.0,1.0,part_1,,,,,,,,,,,,,gray,circle
167.0,1.0,1.0,0.0,2.0,2.0,411.7424080000091,1.0,1.0,part_1,,,,,,,,,,,,,yellow,hexagon
0.0,5.0,0.0,1.0,4.0,4.0,381.9670079997195,1.0,1.0,part_1,,,,,,,,,,,,,blue,cross
141.0,1.0,1.0,0.0,1.0,1.0,407.9370490003384,1.0,2.0,part_1,,,,,,,,,,,,,yellow,hexagon
170.0,1.0,1.0,0.0,4.0,4.0,371.0557310000695,1.0,1.0,part_1,,,,,,,,,,,,,yellow,hexagon
323.0,6.0,2.0,1.0,4.0,4.0,436.5104400003474,1.0,1.0,part_1,,,,,,,,,,,,,cyan,I
0.0,2.0,0.0,0.0,4.0,4.0,372.1046370001204,1.0,1.0,part_1,,,,,,,,,,,,,gray,circle
1313.0,4.0,4.0,0.0,3.0,3.0,416.83810800032,1.0,1.0,part_1,,,,,,,,,,,,,orange,flipped triangle
661.0,3.0,3.0,0.0,1.0,1.0,287.2530889999325,1.0,2.0,part_1,,,,,,,,,,,,,magenta,square
0.0,8.0,0.0,1.0,2.0,2.0,648.8569709999865,1.0,1.0,part_1,,,,,,,,,,,,,green,triangle
167.0,1.0,1.0,0.0,2.0,2.0,520.3616100002364,1.0,1.0,part_1,,,,,,,,,,,,,yellow,hexagon
1322.0,4.0,4.0,0.0,3.0,3.0,444.371177999983,1.0,1.0,part_1,,,,,,,,,,,,,orange,flipped triangle
308.0,6.0,2.0,1.0,2.0,2.0,360.8373520000896,1.0,1.0,part_1,,,,,,,,,,,,,cyan,I
161.0,1.0,1.0,0.0,2.0,2.0,472.4610210000719,1.0,1.0,part_1,,,,,,,,,,,,,yellow,hexagon
1283.0,8.0,4.0,1.0,4.0,4.0,381.3898230000632,1.0,1.0,part_1,,,,,,,,,,,,,green,triangle
643.0,7.0,3.0,1.0,4.0,4.0,389.6256070001982,1.0,1.0,part_1,,,,,,,,,,,,,white,diamond
1301.0,8.0,4.0,1.0,3.0,3.0,352.7174519999789,1.0,1.0,part_1,,,,,,,,,,,,,green,triangle
175.0,5.0,1.0,1.0,4.0,4.0,436.4519949999703,1.0,1.0,part_1,,,,,,,,,,,,,blue,cross
1289.0,4.0,4.0,0.0,1.0,1.0,426.515620000373,1.0,1.0,part_1,,,,,,,,,,,,,orange,flipped triangle
158.0,1.0,1.0,0.0,4.0,4.0,381.0788690002482,1.0,1.0,part_1,,,,,,,,,,,,,yellow,hexagon
323.0,6.0,2.0,1.0,2.0,2.0,462.2384730000703,1.0,2.0,part_1,,,,,,,,,,,,,cyan,I
302.0,2.0,2.0,0.0,2.0,2.0,417.0750690000204,1.0,1.0,part_1,,,,,,,,,,,,,gray,circle
1312.0,8.0,4.0,1.0,1.0,1.0,463.8649899998199,1.0,2.0,part_1,,,,,,,,,,,,,green,triangle
643.0,3.0,3.0,0.0,1.0,1.0,398.1016059997273,1.0,1.0,part_1,,,,,,,,,,,,,magenta,square
1304.0,4.0,4.0,0.0,2.0,2.0,416.6464240001915,1.0,1.0,part_1,,,,,,,,,,,,,orange,flipped triangle
167.0,5.0,1.0,1.0,4.0,4.0,353.0516949999764,1.0,1.0,part_1,,,,,,,,,,,,,blue,cross
172.0,1.0,1.0,0.0,4.0,4.0,436.2249010000596,1.0,1.0,part_1,,,,,,,,,,,,,yellow,hexagon
0.0,3.0,0.0,0.0,4.0,4.0,352.6560659997813,1.0,1.0,part_1,,,,,,,,,,,,,magenta,square
304.0,6.0,2.0,1.0,2.0,2.0,499.4810660000439,1.0,1.0,part_1,,,,,,,,,,,,,cyan,I
648.0,7.0,3.0,1.0,4.0,4.0,472.4082070001714,1.0,1.0,part_1,,,,,,,,,,,,,white,diamond
0.0,8.0,0.0,1.0,1.0,1.0,371.5243609999561,1.0,1.0,part_1,,,,,,,,,,,,,green,triangle
314.0,2.0,2.0,0.0,2.0,2.0,556.6811209996558,1.0,1.0,part_1,,,,,,,,,,,,,gray,circle
1300.0,4.0,4.0,0.0,1.0,1.0,500.39497999978266,1.0,1.0,part_1,,,,,,,,,,,,,orange,flipped triangle
338.0,6.0,2.0,1.0,4.0,4.0,427.3591319997649,1.0,1.0,part_1,,,,,,,,,,,,,cyan,I
330.0,2.0,2.0,0.0,2.0,2.0,529.1559659999621,1.0,1.0,part_1,,,,,,,,,,,,,gray,circle
179.0,5.0,1.0,1.0,4.0,4.0,703.6765630000446,1.0,1.0,part_1,,,,,,,,,,,,,blue,cross
345.0,2.0,2.0,0.0,4.0,4.0,417.5155089997133,2.0,1.0,part_1,,,,,,,,,,,,,gray,circle
330.0,2.0,2.0,0.0,3.0,3.0,389.8112010001568,2.0,1.0,part_1,,,,,,,,,,,,,gray,circle
314.0,6.0,2.0,1.0,1.0,1.0,514.6789959999296,2.0,1.0,part_1,,,,,,,,,,,,,cyan,I
646.0,7.0,3.0,1.0,1.0,1.0,427.6262530001986,2.0,1.0,part_1,,,,,,,,,,,,,white,diamond
146.0,1.0,1.0,0.0,1.0,1.0,360.7605110000804,2.0,1.0,part_1,,,,,,,,,,,,,yellow,hexagon
0.0,2.0,0.0,0.0,3.0,3.0,389.6247689999654,2.0,1.0,part_1,,,,,,,,,,,,,gray,circle
643.0,3.0,3.0,0.0,2.0,2.0,510.3416119995927,2.0,1.0,part_1,,,,,,,,,,,,,magenta,square
1294.0,8.0,4.0,1.0,2.0,2.0,361.0291270001653,2.0,1.0,part_1,,,,,,,,,,,,,green,triangle
644.0,7.0,3.0,1.0,2.0,2.0,390.226956999868,2.0,1.0,part_1,,,,,,,,,,,,,white,diamond
163.0,5.0,1.0,1.0,2.0,2.0,381.422874999771,2.0,1.0,part_1,,,,,,,,,,,,,blue,cross
0.0,1.0,0.0,0.0,1.0,1.0,399.1698260001612,2.0,1.0,part_1,,,,,,,,,,,,,yellow,hexagon
304.0,2.0,2.0,0.0,3.0,3.0,343.0550680000124,2.0,1.0,part_1,,,,,,,,,,,,,gray,circle
137.0,1.0,1.0,0.0,2.0,2.0,480.9374999999818,2.0,1.0,part_1,,,,,,,,,,,,,yellow,hexagon
1311.0,8.0,4.0,1.0,3.0,3.0,536.7075009999098,2.0,1.0,part_1,,,,,,,,,,,,,green,triangle
0.0,5.0,0.0,1.0,3.0,3.0,380.1588609999271,2.0,1.0,part_1,,,,,,,,,,,,,blue,cross
661.0,7.0,3.0,1.0,2.0,2.0,557.0527310001125,2.0,1.0,part_1,,,,,,,,,,,,,white,diamond
0.0,4.0,0.0,0.0,4.0,4.0,463.739927000006,2.0,2.0,part_1,,,,,,,,,,,,,orange,flipped triangle
639.0,3.0,3.0,0.0,2.0,2.0,841.3970899996457,2.0,1.0,part_1,,,,,,,,,,,,,magenta,square
310.0,2.0,2.0,0.0,3.0,3.0,372.080576999906,2.0,1.0,part_1,,,,,,,,,,,,,gray,circle
1312.0,8.0,4.0,1.0,4.0,4.0,611.7587479998292,2.0,1.0,part_1,,,,,,,,,,,,,green,triangle
636.0,3.0,3.0,0.0,4.0,4.0,390.32300700000627,2.0,1.0,part_1,,,,,,,,,,,,,magenta,square
330.0,2.0,2.0,0.0,4.0,4.0,364.566540999931,2.0,1.0,part_1,,,,,,,,,,,,,gray,circle
642.0,7.0,3.0,1.0,3.0,3.0,342.7766750000955,2.0,1.0,part_1,,,,,,,,,,,,,white,diamond
1283.0,8.0,4.0,1.0,1.0,1.0,417.8172070000983,2.0,1.0,part_1,,,,,,,,,,,,,green,triangle
1284.0,8.0,4.0,1.0,4.0,4.0,391.4488530003837,2.0,1.0,part_1,,,,,,,,,,,,,green,triangle
151.0,1.0,1.0,0.0,4.0,4.0,389.9851900000612,2.0,1.0,part_1,,,,,,,,,,,,,yellow,hexagon
182.0,5.0,1.0,1.0,3.0,3.0,334.2448379999041,2.0,1.0,part_1,,,,,,,,,,,,,blue,cross
323.0,2.0,2.0,0.0,2.0,2.0,658.1989629999043,2.0,1.0,part_1,,,,,,,,,,,,,gray,circle
161.0,5.0,1.0,1.0,1.0,1.0,502.1274349996929,2.0,1.0,part_1,,,,,,,,,,,,,blue,cross
323.0,2.0,2.0,0.0,3.0,3.0,398.3147499998267,2.0,1.0,part_1,,,,,,,,,,,,,gray,circle
182.0,1.0,1.0,0.0,4.0,4.0,361.5524830001959,2.0,1.0,part_1,,,,,,,,,,,,,yellow,hexagon
1310.0,8.0,4.0,1.0,2.0,2.0,464.6934669999609,2.0,1.0,part_1,,,,,,,,,,,,,green,triangle
0.0,5.0,0.0,1.0,4.0,4.0,492.857431000175,2.0,1.0,part_1,,,,,,,,,,,,,blue,cross
331.0,6.0,2.0,1.0,1.0,1.0,556.6088420000597,2.0,1.0,part_1,,,,,,,,,,,,,cyan,I
646.0,3.0,3.0,0.0,3.0,3.0,382.4667099997896,2.0,1.0,part_1,,,,,,,,,,,,,magenta,square
1284.0,4.0,4.0,0.0,4.0,4.0,530.5219379997652,2.0,1.0,part_1,,,,,,,,,,,,,orange,flipped triangle
0.0,3.0,0.0,0.0,4.0,4.0,537.85004700012,2.0,1.0,part_1,,,,,,,,,,,,,magenta,square
0.0,7.0,0.0,1.0,3.0,3.0,363.0093669999041,2.0,1.0,part_1,,,,,,,,,,,,,white,diamond
1293.0,8.0,4.0,1.0,4.0,4.0,352.2542619998603,2.0,1.0,part_1,,,,,,,,,,,,,green,triangle
1298.0,4.0,4.0,0.0,3.0,3.0,362.1194099996501,2.0,1.0,part_1,,,,,,,,,,,,,orange,flipped triangle
338.0,2.0,2.0,0.0,4.0,4.0,352.9965749999064,2.0,1.0,part_1,,,,,,,,,,,,,gray,circle
177.0,1.0,1.0,0.0,4.0,4.0,381.0344290000103,2.0,1.0,part_1,,,,,,,,,,,,,yellow,hexagon
1306.0,4.0,4.0,0.0,2.0,2.0,435.7036860001244,2.0,1.0,part_1,,,,,,,,,,,,,orange,flipped triangle
350.0,2.0,2.0,0.0,3.0,3.0,371.4745420002145,2.0,1.0,part_1,,,,,,,,,,,,,gray,circle
161.0,1.0,1.0,0.0,3.0,3.0,361.474317000102,2.0,1.0,part_1,,,,,,,,,,,,,yellow,hexagon
1308.0,8.0,4.0,1.0,3.0,3.0,352.402641000026,2.0,1.0,part_1,,,,,,,,,,,,,green,triangle
140.0,5.0,1.0,1.0,2.0,2.0,426.613073000226,2.0,1.0,part_1,,,,,,,,,,,,,blue,cross
0.0,8.0,0.0,1.0,3.0,3.0,343.5176429998137,2.0,1.0,part_1,,,,,,,,,,,,,green,triangle
1280.0,4.0,4.0,0.0,3.0,3.0,370.0146070000301,2.0,1.0,part_1,,,,,,,,,,,,,orange,flipped triangle
1304.0,8.0,4.0,1.0,1.0,1.0,454.0008369999668,2.0,1.0,part_1,,,,,,,,,,,,,green,triangle
345.0,2.0,2.0,0.0,2.0,2.0,575.8483550002893,2.0,2.0,part_1,,,,,,,,,,,,,gray,circle
1303.0,4.0,4.0,0.0,3.0,3.0,370.6625169998006,2.0,1.0,part_1,,,,,,,,,,,,,orange,flipped triangle
630.0,3.0,3.0,0.0,2.0,2.0,613.0691500002285,2.0,1.0,part_1,,,,,,,,,,,,,magenta,square
303.0,6.0,2.0,1.0,3.0,3.0,352.7670700000271,2.0,1.0,part_1,,,,,,,,,,,,,cyan,I
0.0,6.0,0.0,1.0,1.0,1.0,490.5271439997705,2.0,1.0,part_1,,,,,,,,,,,,,cyan,I
1276.0,8.0,4.0,1.0,1.0,1.0,417.5857089999226,2.0,1.0,part_1,,,,,,,,,,,,,green,triangle
0.0,6.0,0.0,1.0,2.0,2.0,389.0567539997391,2.0,1.0,part_1,,,,,,,,,,,,,cyan,I
319.0,2.0,2.0,0.0,1.0,1.0,408.0748279998261,2.0,1.0,part_1,,,,,,,,,,,,,gray,circle
1294.0,8.0,4.0,1.0,4.0,4.0,418.05814399958757,2.0,1.0,part_1,,,,,,,,,,,,,green,triangle
340.0,6.0,2.0,1.0,4.0,4.0,473.6181260000194,2.0,1.0,part_1,,,,,,,,,,,,,cyan,I
655.0,3.0,3.0,0.0,4.0,4.0,371.0545650001222,2.0,1.0,part_1,,,,,,,,,,,,,magenta,square
0.0,7.0,0.0,1.0,3.0,3.0,334.2602889997579,2.0,1.0,part_1,,,,,,,,,,,,,white,diamond
1313.0,8.0,4.0,1.0,3.0,3.0,373.1573189998016,2.0,1.0,part_1,,,,,,,,,,,,,green,triangle
1312.0,4.0,4.0,0.0,1.0,1.0,459.6282810002776,2.0,2.0,part_1,,,,,,,,,,,,,orange,flipped triangle
662.0,3.0,3.0,0.0,3.0,3.0,510.354737000398,2.0,1.0,part_1,,,,,,,,,,,,,magenta,square
1294.0,4.0,4.0,0.0,2.0,2.0,620.5660390000958,2.0,1.0,part_1,,,,,,,,,,,,,orange,flipped triangle
0.0,2.0,0.0,0.0,4.0,4.0,490.236988000106,2.0,1.0,part_1,,,,,,,,,,,,,gray,circle
0.0,4.0,0.0,0.0,2.0,2.0,472.2550929996032,2.0,1.0,part_1,,,,,,,,,,,,,orange,flipped triangle
667.0,7.0,3.0,1.0,3.0,3.0,435.3669090000949,2.0,1.0,part_1,,,,,,,,,,,,,white,diamond
1323.0,8.0,4.0,1.0,1.0,1.0,510.2887489997556,2.0,1.0,part_1,,,,,,,,,,,,,green,triangle
1320.0,4.0,4.0,0.0,1.0,1.0,453.0581320000237,2.0,1.0,part_1,,,,,,,,,,,,,orange,flipped triangle
644.0,3.0,3.0,0.0,3.0,3.0,445.4206639998119,2.0,1.0,part_1,,,,,,,,,,,,,magenta,square
182.0,1.0,1.0,0.0,1.0,1.0,362.2027360001993,2.0,1.0,part_1,,,,,,,,,,,,,yellow,hexagon
1294.0,4.0,4.0,0.0,3.0,3.0,407.5904840001385,2.0,1.0,part_1,,,,,,,,,,,,,orange,flipped triangle
137.0,5.0,1.0,1.0,2.0,2.0,557.03890399991,2.0,1.0,part_1,,,,,,,,,,,,,blue,cross
154.0,5.0,1.0,1.0,2.0,2.0,611.2709829999403,2.0,1.0,part_1,,,,,,,,,,,,,blue,cross
0.0,6.0,0.0,1.0,1.0,1.0,548.1190840000636,2.0,1.0,part_1,,,,,,,,,,,,,cyan,I
155.0,1.0,1.0,0.0,3.0,3.0,371.7542300000787,2.0,1.0,part_1,,,,,,,,,,,,,yellow,hexagon
321.0,6.0,2.0,1.0,1.0,1.0,381.3500219998786,2.0,1.0,part_1,,,,,,,,,,,,,cyan,I
0.0,8.0,0.0,1.0,2.0,2.0,519.1068569997697,2.0,1.0,part_1,,,,,,,,,,,,,green,triangle
144.0,1.0,1.0,0.0,1.0,1.0,399.2726649998985,2.0,1.0,part_1,,,,,,,,,,,,,yellow,hexagon
1311.0,4.0,4.0,0.0,4.0,4.0,452.3870680000073,2.0,1.0,part_1,,,,,,,,,,,,,orange,flipped triangle
1281.0,4.0,4.0,0.0,3.0,3.0,519.3776130004153,2.0,1.0,part_1,,,,,,,,,,,,,orange,flipped triangle
1289.0,8.0,4.0,1.0,3.0,3.0,435.2608430003784,2.0,1.0,part_1,,,,,,,,,,,,,green,triangle
183.0,5.0,1.0,1.0,3.0,3.0,417.237460999786,2.0,1.0,part_1,,,,,,,,,,,,,blue,cross
302.0,6.0,2.0,1.0,3.0,3.0,370.4525629996169,2.0,1.0,part_1,,,,,,,,,,,,,cyan,I
1279.0,8.0,4.0,1.0,3.0,3.0,334.8905899997589,2.0,1.0,part_1,,,,,,,,,,,,,green,triangle
0.0,4.0,0.0,0.0,2.0,2.0,444.4345860001704,2.0,1.0,part_1,,,,,,,,,,,,,orange,flipped triangle
626.0,3.0,3.0,0.0,2.0,2.0,454.8789400000714,2.0,1.0,part_1,,,,,,,,,,,,,magenta,square
341.0,6.0,2.0,1.0,2.0,2.0,391.8417149998277,2.0,1.0,part_1,,,,,,,,,,,,,cyan,I
140.0,1.0,1.0,0.0,3.0,3.0,440.6885419998616,2.0,1.0,part_1,,,,,,,,,,,,,yellow,hexagon
0.0,8.0,0.0,1.0,1.0,1.0,368.036673000006,2.0,1.0,part_1,,,,,,,,,,,,,green,triangle
0.0,2.0,0.0,0.0,1.0,1.0,342.7081720001297,2.0,1.0,part_1,,,,,,,,,,,,,gray,circle
662.0,7.0,3.0,1.0,1.0,1.0,362.7594529998532,2.0,1.0,part_1,,,,,,,,,,,,,white,diamond
1283.0,4.0,4.0,0.0,1.0,1.0,343.3743129999129,2.0,1.0,part_1,,,,,,,,,,,,,orange,flipped triangle
1318.0,4.0,4.0,0.0,4.0,4.0,371.2009460000445,2.0,1.0,part_1,,,,,,,,,,,,,orange,flipped triangle
0.0,2.0,0.0,0.0,3.0,3.0,343.4260109997922,2.0,1.0,part_1,,,,,,,,,,,,,gray,circle
343.0,2.0,2.0,0.0,1.0,1.0,371.8560329998581,2.0,1.0,part_1,,,,,,,,,,,,,gray,circle
0.0,5.0,0.0,1.0,1.0,1.0,344.0316250002979,2.0,1.0,part_1,,,,,,,,,,,,,blue,cross
305.0,6.0,2.0,1.0,2.0,2.0,419.4651550001254,2.0,1.0,part_1,,,,,,,,,,,,,cyan,I
639.0,7.0,3.0,1.0,1.0,1.0,306.101622999904,3.0,1.0,part_1,,,,,,,,,,,,,white,diamond
140.0,5.0,1.0,1.0,3.0,3.0,444.67836099966,3.0,1.0,part_1,,,,,,,,,,,,,blue,cross
172.0,5.0,1.0,1.0,4.0,4.0,398.8627860003362,3.0,1.0,part_1,,,,,,,,,,,,,blue,cross
657.0,7.0,3.0,1.0,1.0,1.0,380.8696410001175,3.0,1.0,part_1,,,,,,,,,,,,,white,diamond
348.0,6.0,2.0,1.0,3.0,3.0,371.6553290000775,3.0,1.0,part_1,,,,,,,,,,,,,cyan,I
0.0,8.0,0.0,1.0,1.0,1.0,361.6625490003571,3.0,1.0,part_1,,,,,,,,,,,,,green,triangle
657.0,3.0,3.0,0.0,2.0,2.0,443.8675600003989,3.0,1.0,part_1,,,,,,,,,,,,,magenta,square
152.0,1.0,1.0,0.0,3.0,3.0,371.5121430000181,3.0,1.0,part_1,,,,,,,,,,,,,yellow,hexagon
642.0,3.0,3.0,0.0,4.0,4.0,417.1811090000119,3.0,1.0,part_1,,,,,,,,,,,,,magenta,square
634.0,3.0,3.0,0.0,1.0,1.0,360.784123999565,3.0,1.0,part_1,,,,,,,,,,,,,magenta,square
1288.0,4.0,4.0,0.0,4.0,4.0,428.0990510001174,3.0,1.0,part_1,,,,,,,,,,,,,orange,flipped triangle
148.0,1.0,1.0,0.0,3.0,3.0,352.5393439999789,3.0,1.0,part_1,,,,,,,,,,,,,yellow,hexagon
652.0,3.0,3.0,0.0,4.0,4.0,379.7455760000048,3.0,1.0,part_1,,,,,,,,,,,,,magenta,square
184.0,5.0,1.0,1.0,1.0,1.0,409.898561999853,3.0,1.0,part_1,,,,,,,,,,,,,blue,cross
0.0,3.0,0.0,0.0,2.0,2.0,435.4323319998912,3.0,1.0,part_1,,,,,,,,,,,,,magenta,square
306.0,2.0,2.0,0.0,1.0,1.0,362.0535220002239,3.0,1.0,part_1,,,,,,,,,,,,,gray,circle
330.0,6.0,2.0,1.0,3.0,3.0,397.9448319996663,3.0,1.0,part_1,,,,,,,,,,,,,cyan,I
335.0,6.0,2.0,1.0,3.0,3.0,426.151801999822,3.0,1.0,part_1,,,,,,,,,,,,,cyan,I
652.0,7.0,3.0,1.0,4.0,4.0,471.8951660001949,3.0,1.0,part_1,,,,,,,,,,,,,white,diamond
345.0,6.0,2.0,1.0,2.0,2.0,416.3526669999555,3.0,1.0,part_1,,,,,,,,,,,,,cyan,I
0.0,6.0,0.0,1.0,2.0,2.0,464.5269709999411,3.0,1.0,part_1,,,,,,,,,,,,,cyan,I
0.0,7.0,0.0,1.0,1.0,1.0,370.2851220000411,3.0,1.0,part_1,,,,,,,,,,,,,white,diamond
1310.0,4.0,4.0,0.0,2.0,2.0,548.8306540000849,3.0,1.0,part_1,,,,,,,,,,,,,orange,flipped triangle
345.0,6.0,2.0,1.0,1.0,1.0,351.7952450001758,3.0,1.0,part_1,,,,,,,,,,,,,cyan,I
1278.0,8.0,4.0,1.0,1.0,1.0,473.0609470002491,3.0,1.0,part_1,,,,,,,,,,,,,green,triangle
330.0,6.0,2.0,1.0,2.0,2.0,463.5889149999457,3.0,1.0,part_1,,,,,,,,,,,,,cyan,I
0.0,8.0,0.0,1.0,3.0,3.0,567.1449410001514,3.0,1.0,part_1,,,,,,,,,,,,,green,triangle
1319.0,4.0,4.0,0.0,4.0,4.0,389.4486110002617,3.0,1.0,part_1,,,,,,,,,,,,,orange,flipped triangle
667.0,3.0,3.0,0.0,1.0,1.0,426.7768720001186,3.0,1.0,part_1,,,,,,,,,,,,,magenta,square
646.0,3.0,3.0,0.0,3.0,3.0,388.7852799998654,3.0,1.0,part_1,,,,,,,,,,,,,magenta,square
673.0,7.0,3.0,1.0,1.0,1.0,380.075775000023,3.0,1.0,part_1,,,,,,,,,,,,,white,diamond
1307.0,8.0,4.0,1.0,2.0,2.0,473.8081410000632,3.0,1.0,part_1,,,,,,,,,,,,,green,triangle
0.0,6.0,0.0,1.0,3.0,3.0,389.5240489996467,3.0,1.0,part_1,,,,,,,,,,,,,cyan,I
0.0,2.0,0.0,0.0,4.0,4.0,454.5128469999326,3.0,1.0,part_1,,,,,,,,,,,,,gray,circle
314.0,2.0,2.0,0.0,1.0,1.0,398.0300400003216,3.0,1.0,part_1,,,,,,,,,,,,,gray,circle
0.0,5.0,0.0,1.0,2.0,2.0,658.6662409999917,3.0,1.0,part_1,,,,,,,,,,,,,blue,cross
321.0,2.0,2.0,0.0,4.0,4.0,657.8753079998023,3.0,1.0,part_1,,,,,,,,,,,,,gray,circle
175.0,1.0,1.0,0.0,3.0,3.0,509.411683000053,3.0,1.0,part_1,,,,,,,,,,,,,yellow,hexagon
1298.0,8.0,4.0,1.0,2.0,2.0,585.5714129997978,3.0,1.0,part_1,,,,,,,,,,,,,green,triangle
312.0,2.0,2.0,0.0,2.0,2.0,463.5173970000323,3.0,1.0,part_1,,,,,,,,,,,,,gray,circle
0.0,3.0,0.0,0.0,4.0,4.0,455.0909499998852,3.0,1.0,part_1,,,,,,,,,,,,,magenta,square
341.0,6.0,2.0,1.0,1.0,1.0,427.3567449999973,3.0,1.0,part_1,,,,,,,,,,,,,cyan,I
144.0,5.0,1.0,1.0,2.0,2.0,399.2980319999333,3.0,1.0,part_1,,,,,,,,,,,,,blue,cross
1293.0,4.0,4.0,0.0,2.0,2.0,455.9402489999229,3.0,1.0,part_1,,,,,,,,,,,,,orange,flipped triangle
0.0,3.0,0.0,0.0,1.0,1.0,473.7401490001502,3.0,1.0,part_1,,,,,,,,,,,,,magenta,square
654.0,7.0,3.0,1.0,1.0,1.0,389.277826000125,3.0,1.0,part_1,,,,,,,,,,,,,white,diamond
658.0,3.0,3.0,0.0,3.0,3.0,409.3970620001528,3.0,1.0,part_1,,,,,,,,,,,,,magenta,square
340.0,2.0,2.0,0.0,3.0,3.0,546.293506999973,3.0,1.0,part_1,,,,,,,,,,,,,gray,circle
310.0,2.0,2.0,0.0,2.0,2.0,482.1041169998352,3.0,1.0,part_1,,,,,,,,,,,,,gray,circle
341.0,2.0,2.0,0.0,3.0,3.0,491.6809979999925,3.0,1.0,part_1,,,,,,,,,,,,,gray,circle
162.0,5.0,1.0,1.0,1.0,1.0,473.0406829999083,3.0,1.0,part_1,,,,,,,,,,,,,blue,cross
310.0,6.0,2.0,1.0,2.0,2.0,666.9040710003173,3.0,1.0,part_1,,,,,,,,,,,,,cyan,I
1307.0,4.0,4.0,0.0,2.0,2.0,499.8451480000767,3.0,1.0,part_1,,,,,,,,,,,,,orange,flipped triangle
315.0,2.0,2.0,0.0,3.0,3.0,463.3444310002232,3.0,1.0,part_1,,,,,,,,,,,,,gray,circle
1297.0,4.0,4.0,0.0,4.0,4.0,490.8833740000773,3.0,1.0,part_1,,,,,,,,,,,,,orange,flipped triangle
1308.0,4.0,4.0,0.0,2.0,2.0,669.9735750003128,3.0,1.0,part_1,,,,,,,,,,,,,orange,flipped triangle
1312.0,8.0,4.0,1.0,3.0,3.0,410.4321459999482,3.0,1.0,part_1,,,,,,,,,,,,,green,triangle
659.0,3.0,3.0,0.0,4.0,4.0,430.6211530001747,3.0,1.0,part_1,,,,,,,,,,,,,magenta,square
335.0,2.0,2.0,0.0,1.0,1.0,492.1876420003173,3.0,1.0,part_1,,,,,,,,,,,,,gray,circle
0.0,8.0,0.0,1.0,2.0,2.0,475.0678979999065,3.0,1.0,part_1,,,,,,,,,,,,,green,triangle
303.0,2.0,2.0,0.0,4.0,4.0,435.3201620001528,3.0,1.0,part_1,,,,,,,,,,,,,gray,circle
1323.0,4.0,4.0,0.0,1.0,1.0,381.0562829999071,3.0,1.0,part_1,,,,,,,,,,,,,orange,flipped triangle
175.0,1.0,1.0,0.0,3.0,3.0,482.9487809997772,3.0,1.0,part_1,,,,,,,,,,,,,yellow,hexagon
149.0,1.0,1.0,0.0,1.0,1.0,519.8554429998694,3.0,1.0,part_1,,,,,,,,,,,,,yellow,hexagon
665.0,7.0,3.0,1.0,4.0,4.0,427.1741749998909,3.0,1.0,part_1,,,,,,,,,,,,,white,diamond
1304.0,4.0,4.0,0.0,1.0,1.0,418.1504799998947,3.0,1.0,part_1,,,,,,,,,,,,,orange,flipped triangle
662.0,3.0,3.0,0.0,1.0,1.0,417.6008299996283,3.0,1.0,part_1,,,,,,,,,,,,,magenta,square
319.0,6.0,2.0,1.0,1.0,1.0,463.9313339998807,3.0,1.0,part_1,,,,,,,,,,,,,cyan,I
665.0,3.0,3.0,0.0,1.0,1.0,361.8963119997715,3.0,1.0,part_1,,,,,,,,,,,,,magenta,square
328.0,2.0,2.0,0.0,4.0,4.0,407.08381499962337,3.0,1.0,part_1,,,,,,,,,,,,,gray,circle
0.0,3.0,0.0,0.0,1.0,1.0,390.5891360000169,3.0,1.0,part_1,,,,,,,,,,,,,magenta,square
181.0,1.0,1.0,0.0,2.0,2.0,519.596186000399,3.0,1.0,part_1,,,,,,,,,,,,,yellow,hexagon
330.0,2.0,2.0,0.0,3.0,3.0,399.8595029997887,3.0,1.0,part_1,,,,,,,,,,,,,gray,circle
0.0,6.0,0.0,1.0,2.0,2.0,566.3453279998976,3.0,1.0,part_1,,,,,,,,,,,,,cyan,I
658.0,7.0,3.0,1.0,3.0,3.0,371.2093829999503,3.0,1.0,part_1,,,,,,,,,,,,,white,diamond
655.0,7.0,3.0,1.0,1.0,1.0,399.7243000003436,3.0,1.0,part_1,,,,,,,,,,,,,white,diamond
336.0,2.0,2.0,0.0,1.0,1.0,409.5887809999112,3.0,1.0,part_1,,,,,,,,,,,,,gray,circle
1320.0,8.0,4.0,1.0,2.0,2.0,528.61706900012,3.0,1.0,part_1,,,,,,,,,,,,,green,triangle
658.0,3.0,3.0,0.0,3.0,3.0,462.8982620001807,3.0,1.0,part_1,,,,,,,,,,,,,magenta,square
1298.0,4.0,4.0,0.0,4.0,4.0,558.1619039999168,3.0,1.0,part_1,,,,,,,,,,,,,orange,flipped triangle
1279.0,4.0,4.0,0.0,3.0,3.0,668.6904769999273,3.0,1.0,part_1,,,,,,,,,,,,,orange,flipped triangle
660.0,3.0,3.0,0.0,3.0,3.0,408.2889989999785,3.0,1.0,part_1,,,,,,,,,,,,,magenta,square
0.0,3.0,0.0,0.0,1.0,1.0,502.048115999969,3.0,1.0,part_1,,,,,,,,,,,,,magenta,square
343.0,6.0,2.0,1.0,1.0,1.0,428.1334679999418,3.0,1.0,part_1,,,,,,,,,,,,,cyan,I
0.0,2.0,0.0,0.0,4.0,4.0,501.9654080001601,3.0,1.0,part_1,,,,,,,,,,,,,gray,circle
1300.0,8.0,4.0,1.0,4.0,4.0,426.644430000124,3.0,1.0,part_1,,,,,,,,,,,,,green,triangle
338.0,6.0,2.0,1.0,4.0,4.0,372.2727080003096,3.0,1.0,part_1,,,,,,,,,,,,,cyan,I
649.0,3.0,3.0,0.0,2.0,2.0,751.3846810002178,3.0,1.0,part_1,,,,,,,,,,,,,magenta,square
319.0,2.0,2.0,0.0,4.0,4.0,437.2578419997808,3.0,1.0,part_1,,,,,,,,,,,,,gray,circle
155.0,5.0,1.0,1.0,3.0,3.0,407.7930080002261,3.0,1.0,part_1,,,,,,,,,,,,,blue,cross
0.0,4.0,0.0,0.0,4.0,4.0,529.8044400001345,3.0,1.0,part_1,,,,,,,,,,,,,orange,flipped triangle
310.0,6.0,2.0,1.0,3.0,3.0,437.4602339999001,3.0,1.0,part_1,,,,,,,,,,,,,cyan,I
0.0,1.0,0.0,0.0,3.0,3.0,445.0364879999142,3.0,1.0,part_1,,,,,,,,,,,,,yellow,hexagon
0.0,8.0,0.0,1.0,3.0,3.0,465.3949980001926,3.0,1.0,part_1,,,,,,,,,,,,,green,triangle
626.0,7.0,3.0,1.0,2.0,2.0,584.933054999965,3.0,1.0,part_1,,,,,,,,,,,,,white,diamond
171.0,5.0,1.0,1.0,4.0,4.0,441.3922889998503,3.0,1.0,part_1,,,,,,,,,,,,,blue,cross
656.0,7.0,3.0,1.0,3.0,3.0,371.9590780001454,3.0,1.0,part_1,,,,,,,,,,,,,white,diamond
1318.0,8.0,4.0,1.0,2.0,2.0,408.3687979996284,3.0,1.0,part_1,,,,,,,,,,,,,green,triangle
331.0,2.0,2.0,0.0,1.0,1.0,643.536819000019,3.0,1.0,part_1,,,,,,,,,,,,,gray,circle
1319.0,8.0,4.0,1.0,3.0,3.0,445.3427549997286,3.0,1.0,part_1,,,,,,,,,,,,,green,triangle
0.0,1.0,0.0,0.0,2.0,2.0,509.39089400026205,4.0,1.0,part_1,,,,,,,,,,,,,yellow,hexagon
662.0,7.0,3.0,1.0,4.0,4.0,465.8534749996761,4.0,1.0,part_1,,,,,,,,,,,,,white,diamond
0.0,6.0,0.0,1.0,3.0,3.0,445.8018830000583,4.0,1.0,part_1,,,,,,,,,,,,,cyan,I
0.0,4.0,0.0,0.0,3.0,3.0,329.1934809999475,4.0,1.0,part_1,,,,,,,,,,,,,orange,flipped triangle
1280.0,8.0,4.0,1.0,2.0,2.0,520.3794460003337,4.0,1.0,part_1,,,,,,,,,,,,,green,triangle
632.0,7.0,3.0,1.0,2.0,2.0,417.7774539998609,4.0,1.0,part_1,,,,,,,,,,,,,white,diamond
0.0,6.0,0.0,1.0,4.0,4.0,475.1395110001795,4.0,1.0,part_1,,,,,,,,,,,,,cyan,I
170.0,5.0,1.0,1.0,3.0,3.0,353.3368060002431,4.0,1.0,part_1,,,,,,,,,,,,,blue,cross
626.0,3.0,3.0,0.0,4.0,4.0,362.7633770001921,4.0,1.0,part_1,,,,,,,,,,,,,magenta,square
674.0,3.0,3.0,0.0,2.0,2.0,463.5860500002309,4.0,1.0,part_1,,,,,,,,,,,,,magenta,square
328.0,6.0,2.0,1.0,4.0,4.0,408.8936599996486,4.0,1.0,part_1,,,,,,,,,,,,,cyan,I
630.0,7.0,3.0,1.0,1.0,1.0,418.0009729998346,4.0,1.0,part_1,,,,,,,,,,,,,white,diamond
1286.0,4.0,4.0,0.0,1.0,1.0,333.8392480000038,4.0,1.0,part_1,,,,,,,,,,,,,orange,flipped triangle
175.0,5.0,1.0,1.0,1.0,1.0,361.9128489999639,4.0,1.0,part_1,,,,,,,,,,,,,blue,cross
315.0,6.0,2.0,1.0,3.0,3.0,398.9812790000542,4.0,1.0,part_1,,,,,,,,,,,,,cyan,I
350.0,6.0,2.0,1.0,4.0,4.0,418.1263890000082,4.0,1.0,part_1,,,,,,,,,,,,,cyan,I
643.0,7.0,3.0,1.0,2.0,2.0,696.4092879998134,4.0,1.0,part_1,,,,,,,,,,,,,white,diamond
668.0,3.0,3.0,0.0,3.0,3.0,389.4681239999045,4.0,1.0,part_1,,,,,,,,,,,,,magenta,square
0.0,5.0,0.0,1.0,1.0,1.0,417.2853200002464,4.0,1.0,part_1,,,,,,,,,,,,,blue,cross
668.0,7.0,3.0,1.0,4.0,4.0,425.9412129999873,4.0,1.0,part_1,,,,,,,,,,,,,white,diamond
0.0,2.0,0.0,0.0,1.0,1.0,398.6312040001394,4.0,1.0,part_1,,,,,,,,,,,,,gray,circle
341.0,2.0,2.0,0.0,1.0,1.0,390.18609499999,4.0,1.0,part_1,,,,,,,,,,,,,gray,circle
339.0,6.0,2.0,1.0,4.0,4.0,407.9623569996329,4.0,1.0,part_1,,,,,,,,,,,,,cyan,I
171.0,1.0,1.0,0.0,2.0,2.0,528.4984579998309,4.0,1.0,part_1,,,,,,,,,,,,,yellow,hexagon
0.0,1.0,0.0,0.0,3.0,3.0,427.5755440003195,4.0,1.0,part_1,,,,,,,,,,,,,yellow,hexagon
330.0,6.0,2.0,1.0,3.0,3.0,371.5299090004009,4.0,1.0,part_1,,,,,,,,,,,,,cyan,I
147.0,1.0,1.0,0.0,4.0,4.0,381.296373999703,4.0,1.0,part_1,,,,,,,,,,,,,yellow,hexagon
632.0,3.0,3.0,0.0,2.0,2.0,400.0748580001527,4.0,1.0,part_1,,,,,,,,,,,,,magenta,square
632.0,7.0,3.0,1.0,2.0,2.0,425.525251000181,4.0,1.0,part_1,,,,,,,,,,,,,white,diamond
334.0,2.0,2.0,0.0,1.0,1.0,546.423748000052,4.0,1.0,part_1,,,,,,,,,,,,,gray,circle
0.0,4.0,0.0,0.0,2.0,2.0,465.1021959998616,4.0,1.0,part_1,,,,,,,,,,,,,orange,flipped triangle
164.0,5.0,1.0,1.0,1.0,1.0,389.5169810002699,4.0,1.0,part_1,,,,,,,,,,,,,blue,cross
152.0,5.0,1.0,1.0,3.0,3.0,390.4536009999901,4.0,1.0,part_1,,,,,,,,,,,,,blue,cross
319.0,2.0,2.0,0.0,4.0,4.0,435.7420449996425,4.0,1.0,part_1,,,,,,,,,,,,,gray,circle
0.0,7.0,0.0,1.0,1.0,1.0,428.3236390001548,4.0,1.0,part_1,,,,,,,,,,,,,white,diamond
0.0,3.0,0.0,0.0,1.0,1.0,454.521504999775,4.0,1.0,part_1,,,,,,,,,,,,,magenta,square
1281.0,8.0,4.0,1.0,1.0,1.0,371.5939319999961,4.0,1.0,part_1,,,,,,,,,,,,,green,triangle
649.0,7.0,3.0,1.0,2.0,2.0,519.3083479998677,4.0,1.0,part_1,,,,,,,,,,,,,white,diamond
157.0,1.0,1.0,0.0,1.0,1.0,362.7973610000481,4.0,1.0,part_1,,,,,,,,,,,,,yellow,hexagon
0.0,1.0,0.0,0.0,3.0,3.0,389.893911999934,4.0,1.0,part_1,,,,,,,,,,,,,yellow,hexagon
0.0,7.0,0.0,1.0,1.0,1.0,372.2409960000732,4.0,1.0,part_1,,,,,,,,,,,,,white,diamond
161.0,5.0,1.0,1.0,4.0,4.0,408.4393890002502,4.0,1.0,part_1,,,,,,,,,,,,,blue,cross
175.0,1.0,1.0,0.0,4.0,4.0,454.7222820001479,4.0,1.0,part_1,,,,,,,,,,,,,yellow,hexagon
1319.0,4.0,4.0,0.0,2.0,2.0,427.7801910002381,4.0,1.0,part_1,,,,,,,,,,,,,orange,flipped triangle
1298.0,8.0,4.0,1.0,3.0,3.0,379.7456490001423,4.0,1.0,part_1,,,,,,,,,,,,,green,triangle
663.0,7.0,3.0,1.0,4.0,4.0,562.9906409999421,4.0,1.0,part_1,,,,,,,,,,,,,white,diamond
319.0,6.0,2.0,1.0,2.0,2.0,668.9996710001651,4.0,1.0,part_1,,,,,,,,,,,,,cyan,I
158.0,5.0,1.0,1.0,3.0,3.0,417.8353379998043,4.0,1.0,part_1,,,,,,,,,,,,,blue,cross
0.0,7.0,0.0,1.0,4.0,4.0,547.9026379998686,4.0,1.0,part_1,,,,,,,,,,,,,white,diamond
1288.0,8.0,4.0,1.0,4.0,4.0,418.4100940001372,4.0,1.0,part_1,,,,,,,,,,,,,green,triangle
1281.0,4.0,4.0,0.0,1.0,1.0,436.5370370001074,4.0,1.0,part_1,,,,,,,,,,,,,orange,flipped triangle
652.0,3.0,3.0,0.0,4.0,4.0,482.7698669996607,4.0,1.0,part_1,,,,,,,,,,,,,magenta,square
0.0,6.0,0.0,1.0,3.0,3.0,445.5116560002352,4.0,1.0,part_1,,,,,,,,,,,,,cyan,I
181.0,5.0,1.0,1.0,4.0,4.0,456.10246499973067,4.0,1.0,part_1,,,,,,,,,,,,,blue,cross
308.0,2.0,2.0,0.0,1.0,1.0,454.7339850000753,4.0,1.0,part_1,,,,,,,,,,,,,gray,circle
636.0,7.0,3.0,1.0,3.0,3.0,390.3004779999719,4.0,1.0,part_1,,,,,,,,,,,,,white,diamond
319.0,6.0,2.0,1.0,1.0,1.0,375.6658140000581,4.0,1.0,part_1,,,,,,,,,,,,,cyan,I
651.0,3.0,3.0,0.0,3.0,3.0,445.8181239997429,4.0,1.0,part_1,,,,,,,,,,,,,magenta,square
1278.0,4.0,4.0,0.0,3.0,3.0,366.4527020000605,4.0,1.0,part_1,,,,,,,,,,,,,orange,flipped triangle
0.0,1.0,0.0,0.0,3.0,3.0,426.9677120000779,4.0,1.0,part_1,,,,,,,,,,,,,yellow,hexagon
663.0,3.0,3.0,0.0,1.0,1.0,361.5966349998416,4.0,1.0,part_1,,,,,,,,,,,,,magenta,square
660.0,7.0,3.0,1.0,3.0,3.0,408.7488440000015,4.0,1.0,part_1,,,,,,,,,,,,,white,diamond
0.0,1.0,0.0,0.0,4.0,4.0,418.2519880000654,4.0,1.0,part_1,,,,,,,,,,,,,yellow,hexagon
320.0,6.0,2.0,1.0,1.0,1.0,659.4815839998773,4.0,1.0,part_1,,,,,,,,,,,,,cyan,I
144.0,1.0,1.0,0.0,2.0,2.0,463.4258279997993,4.0,1.0,part_1,,,,,,,,,,,,,yellow,hexagon
180.0,5.0,1.0,1.0,4.0,4.0,389.6939670003121,4.0,1.0,part_1,,,,,,,,,,,,,blue,cross
0.0,2.0,0.0,0.0,1.0,1.0,390.5508259999806,4.0,1.0,part_1,,,,,,,,,,,,,gray,circle
141.0,5.0,1.0,1.0,4.0,4.0,518.775106999783,4.0,1.0,part_1,,,,,,,,,,,,,blue,cross
1283.0,4.0,4.0,0.0,3.0,3.0,370.6436570000733,4.0,1.0,part_1,,,,,,,,,,,,,orange,flipped triangle
0.0,4.0,0.0,0.0,3.0,3.0,390.1868729999478,4.0,1.0,part_1,,,,,,,,,,,,,orange,flipped triangle
149.0,1.0,1.0,0.0,2.0,2.0,380.3812240003026,4.0,1.0,part_1,,,,,,,,,,,,,yellow,hexagon
147.0,5.0,1.0,1.0,2.0,2.0,436.0620349998498,4.0,1.0,part_1,,,,,,,,,,,,,blue,cross
0.0,5.0,0.0,1.0,1.0,1.0,491.914098000052,4.0,1.0,part_1,,,,,,,,,,,,,blue,cross
0.0,6.0,0.0,1.0,4.0,4.0,355.0655050003115,4.0,1.0,part_1,,,,,,,,,,,,,cyan,I
0.0,4.0,0.0,0.0,1.0,1.0,546.8909350001923,4.0,1.0,part_1,,,,,,,,,,,,,orange,flipped triangle
305.0,2.0,2.0,0.0,3.0,3.0,372.3183890001564,4.0,1.0,part_1,,,,,,,,,,,,,gray,circle
673.0,3.0,3.0,0.0,4.0,4.0,391.8875029999071,4.0,1.0,part_1,,,,,,,,,,,,,magenta,square
656.0,3.0,3.0,0.0,2.0,2.0,370.4664159999993,4.0,1.0,part_1,,,,,,,,,,,,,magenta,square
1303.0,8.0,4.0,1.0,2.0,2.0,324.2400469998756,4.0,1.0,part_1,,,,,,,,,,,,,green,triangle
632.0,3.0,3.0,0.0,4.0,4.0,437.3452019999604,4.0,1.0,part_1,,,,,,,,,,,,,magenta,square
668.0,3.0,3.0,0.0,2.0,2.0,501.0400290002508,4.0,1.0,part_1,,,,,,,,,,,,,magenta,square
1307.0,4.0,4.0,0.0,4.0,4.0,417.5685119998888,4.0,1.0,part_1,,,,,,,,,,,,,orange,flipped triangle
0.0,7.0,0.0,1.0,2.0,2.0,501.68117199973494,4.0,1.0,part_1,,,,,,,,,,,,,white,diamond
0.0,3.0,0.0,0.0,3.0,3.0,379.7154079998108,4.0,1.0,part_1,,,,,,,,,,,,,magenta,square
151.0,5.0,1.0,1.0,2.0,2.0,463.7395099998684,4.0,1.0,part_1,,,,,,,,,,,,,blue,cross
668.0,7.0,3.0,1.0,1.0,1.0,546.3777589998244,4.0,1.0,part_1,,,,,,,,,,,,,white,diamond
348.0,2.0,2.0,0.0,2.0,2.0,509.9554859998534,4.0,1.0,part_1,,,,,,,,,,,,,gray,circle
0.0,3.0,0.0,0.0,1.0,1.0,361.6554119998909,4.0,1.0,part_1,,,,,,,,,,,,,magenta,square
0.0,2.0,0.0,0.0,4.0,4.0,361.3748049997412,4.0,1.0,part_1,,,,,,,,,,,,,gray,circle
163.0,1.0,1.0,0.0,1.0,1.0,445.8028959998046,4.0,2.0,part_1,,,,,,,,,,,,,yellow,hexagon
0.0,1.0,0.0,0.0,2.0,2.0,557.5332049997996,4.0,1.0,part_1,,,,,,,,,,,,,yellow,hexagon
157.0,5.0,1.0,1.0,1.0,1.0,437.3408940000445,4.0,1.0,part_1,,,,,,,,,,,,,blue,cross
0.0,5.0,0.0,1.0,1.0,1.0,427.1828769997228,4.0,1.0,part_1,,,,,,,,,,,,,blue,cross
164.0,1.0,1.0,0.0,4.0,4.0,454.7216830001162,4.0,1.0,part_1,,,,,,,,,,,,,yellow,hexagon
1276.0,4.0,4.0,0.0,2.0,2.0,408.0252319999999,4.0,1.0,part_1,,,,,,,,,,,,,orange,flipped triangle
0.0,1.0,0.0,0.0,4.0,4.0,380.7359439997526,4.0,1.0,part_1,,,,,,,,,,,,,yellow,hexagon
314.0,6.0,2.0,1.0,4.0,4.0,417.6166489996831,4.0,1.0,part_1,,,,,,,,,,,,,cyan,I
312.0,6.0,2.0,1.0,4.0,4.0,399.8089009996874,4.0,1.0,part_1,,,,,,,,,,,,,cyan,I
161.0,5.0,1.0,1.0,3.0,3.0,409.3643850001172,4.0,1.0,part_1,,,,,,,,,,,,,blue,cross
674.0,7.0,3.0,1.0,3.0,3.0,352.9641760001141,4.0,1.0,part_1,,,,,,,,,,,,,white,diamond
0.0,3.0,3.0,0.0,6.0,6.0,528.9995199996156,1.0,0.0,part_2,go,250.0,250.0,1.0,,,,,,,,,magenta,square
0.0,3.0,3.0,0.0,6.0,6.0,611.7428120001023,1.0,0.0,part_2,go,250.0,250.0,1.0,,,,,,,,,magenta,square
0.0,7.0,3.0,1.0,6.0,6.0,620.0498320004044,1.0,0.0,part_2,stop,250.0,250.0,3.0,,,,,,,,,white,diamond
0.0,1.0,1.0,0.0,5.0,5.0,654.3023849999372,1.0,0.0,part_2,go,250.0,200.0,1.0,,,,,,,,,yellow,hexagon
0.0,8.0,4.0,1.0,6.0,6.0,823.2114550000915,1.0,0.0,part_2,go,250.0,200.0,1.0,,,,,,,,,green,triangle
0.0,6.0,2.0,1.0,6.0,0.0,0.0,1.0,0.0,part_2,stop,250.0,200.0,4.0,,,,,,,,,cyan,I
0.0,6.0,2.0,1.0,5.0,5.0,414.0025759998025,1.0,0.0,part_2,go,250.0,250.0,1.0,,,,,,,,,cyan,I
0.0,5.0,1.0,1.0,5.0,5.0,925.2841180004908,1.0,0.0,part_2,go,250.0,250.0,1.0,,,,,,,,,blue,cross
0.0,2.0,2.0,0.0,5.0,5.0,458.6226080000415,1.0,0.0,part_2,go,250.0,250.0,1.0,,,,,,,,,gray,circle
0.0,1.0,1.0,0.0,5.0,5.0,839.0699860001405,1.0,0.0,part_2,go,250.0,250.0,1.0,,,,,,,,,yellow,hexagon
0.0,5.0,1.0,1.0,5.0,0.0,0.0,1.0,0.0,part_2,stop,250.0,250.0,4.0,,,,,,,,,blue,cross
0.0,3.0,3.0,0.0,6.0,6.0,362.7371250004216,1.0,0.0,part_2,go,300.0,250.0,1.0,,,,,,,,,magenta,square
0.0,8.0,4.0,1.0,6.0,0.0,0.0,1.0,0.0,part_2,stop,300.0,250.0,4.0,,,,,,,,,green,triangle
0.0,6.0,2.0,1.0,6.0,0.0,0.0,1.0,0.0,part_2,stop,300.0,300.0,4.0,,,,,,,,,cyan,I
0.0,8.0,4.0,1.0,5.0,0.0,0.0,1.0,0.0,part_2,stop,300.0,350.0,4.0,,,,,,,,,green,triangle
0.0,3.0,3.0,0.0,5.0,5.0,871.0281880003095,1.0,0.0,part_2,go,350.0,350.0,1.0,,,,,,,,,magenta,square
0.0,5.0,1.0,1.0,6.0,0.0,0.0,1.0,0.0,part_2,stop,350.0,350.0,4.0,,,,,,,,,blue,cross
0.0,8.0,4.0,1.0,5.0,0.0,0.0,1.0,0.0,part_2,stop,350.0,400.0,4.0,,,,,,,,,green,triangle
0.0,3.0,3.0,0.0,6.0,6.0,889.5773539998117,1.0,0.0,part_2,go,400.0,400.0,1.0,,,,,,,,,magenta,square
0.0,7.0,3.0,1.0,5.0,5.0,793.3871860004729,1.0,0.0,part_2,go,400.0,400.0,1.0,,,,,,,,,white,diamond
0.0,3.0,3.0,0.0,6.0,6.0,774.5168170004035,1.0,0.0,part_2,go,400.0,400.0,1.0,,,,,,,,,magenta,square
0.0,7.0,3.0,1.0,6.0,6.0,802.9062730001897,1.0,0.0,part_2,go,400.0,400.0,1.0,,,,,,,,,white,diamond
0.0,6.0,2.0,1.0,5.0,5.0,359.0935260008336,1.0,0.0,part_2,go,400.0,400.0,1.0,,,,,,,,,cyan,I
0.0,3.0,3.0,0.0,5.0,5.0,406.0636039994278,1.0,0.0,part_2,go,400.0,400.0,1.0,,,,,,,,,magenta,square
0.0,4.0,4.0,0.0,5.0,5.0,542.2830380002779,1.0,0.0,part_2,go,400.0,400.0,1.0,,,,,,,,,orange,flipped triangle
0.0,3.0,3.0,0.0,6.0,6.0,730.8086929997444,1.0,0.0,part_2,go,400.0,400.0,1.0,,,,,,,,,magenta,square
0.0,7.0,3.0,1.0,5.0,5.0,775.1803729997846,1.0,0.0,part_2,stop,400.0,400.0,3.0,,,,,,,,,white,diamond
0.0,4.0,4.0,0.0,6.0,6.0,840.6680699999924,1.0,0.0,part_2,go,350.0,400.0,1.0,,,,,,,,,orange,flipped triangle
0.0,4.0,4.0,0.0,5.0,5.0,936.205166000036,1.0,0.0,part_2,go,350.0,400.0,1.0,,,,,,,,,orange,flipped triangle
0.0,5.0,1.0,1.0,5.0,0.0,0.0,1.0,0.0,part_2,stop,350.0,400.0,4.0,,,,,,,,,blue,cross
0.0,5.0,1.0,1.0,5.0,0.0,0.0,1.0,0.0,part_2,stop,400.0,400.0,4.0,,,,,,,,,blue,cross
0.0,1.0,1.0,0.0,6.0,6.0,780.7723389996681,1.0,0.0,part_2,go,450.0,400.0,1.0,,,,,,,,,yellow,hexagon
0.0,2.0,2.0,0.0,5.0,5.0,748.1482650000544,1.0,0.0,part_2,go,450.0,400.0,1.0,,,,,,,,,gray,circle
0.0,2.0,2.0,0.0,6.0,6.0,729.7851539997282,1.0,0.0,part_2,go,450.0,400.0,1.0,,,,,,,,,gray,circle
0.0,2.0,2.0,0.0,6.0,6.0,384.3314449995887,1.0,0.0,part_2,go,450.0,400.0,1.0,,,,,,,,,gray,circle
0.0,6.0,2.0,1.0,5.0,0.0,0.0,1.0,0.0,part_2,stop,450.0,400.0,4.0,,,,,,,,,cyan,I
0.0,2.0,2.0,0.0,6.0,6.0,616.772590000437,2.0,0.0,part_2,go,500.0,400.0,1.0,,,,,,,,,gray,circle
0.0,8.0,4.0,1.0,6.0,6.0,384.1109199993298,2.0,0.0,part_2,stop,500.0,400.0,3.0,,,,,,,,,green,triangle
0.0,8.0,4.0,1.0,6.0,6.0,426.1206009996385,2.0,0.0,part_2,stop,500.0,350.0,3.0,,,,,,,,,green,triangle
0.0,3.0,3.0,0.0,6.0,6.0,678.7869769996178,2.0,0.0,part_2,go,500.0,300.0,1.0,,,,,,,,,magenta,square
0.0,2.0,2.0,0.0,6.0,6.0,615.8101440005339,2.0,0.0,part_2,go,500.0,300.0,1.0,,,,,,,,,gray,circle
0.0,5.0,1.0,1.0,6.0,0.0,0.0,2.0,0.0,part_2,stop,500.0,300.0,4.0,,,,,,,,,blue,cross
0.0,4.0,4.0,0.0,5.0,5.0,987.6141670001743,2.0,0.0,part_2,go,500.0,350.0,1.0,,,,,,,,,orange,flipped triangle
0.0,1.0,1.0,0.0,6.0,6.0,635.4496280000603,2.0,0.0,part_2,go,500.0,350.0,1.0,,,,,,,,,yellow,hexagon
0.0,3.0,3.0,0.0,5.0,5.0,738.3305359999213,2.0,0.0,part_2,go,500.0,350.0,1.0,,,,,,,,,magenta,square
0.0,3.0,3.0,0.0,5.0,5.0,671.2652719998005,2.0,0.0,part_2,go,500.0,350.0,1.0,,,,,,,,,magenta,square
0.0,1.0,1.0,0.0,6.0,6.0,629.9433320000389,2.0,0.0,part_2,go,500.0,350.0,1.0,,,,,,,,,yellow,hexagon
0.0,5.0,1.0,1.0,5.0,5.0,827.0734810002978,2.0,0.0,part_2,go,500.0,350.0,1.0,,,,,,,,,blue,cross
0.0,1.0,1.0,0.0,5.0,5.0,336.1790859999018,2.0,0.0,part_2,go,500.0,350.0,1.0,,,,,,,,,yellow,hexagon
0.0,7.0,3.0,1.0,5.0,5.0,923.4686429999784,2.0,0.0,part_2,go,500.0,350.0,1.0,,,,,,,,,white,diamond
0.0,8.0,4.0,1.0,5.0,0.0,0.0,2.0,0.0,part_2,stop,500.0,350.0,4.0,,,,,,,,,green,triangle
0.0,3.0,3.0,0.0,6.0,6.0,747.8400270001657,2.0,0.0,part_2,go,550.0,350.0,1.0,,,,,,,,,magenta,square
0.0,6.0,2.0,1.0,6.0,6.0,1001.091938999707,2.0,0.0,part_2,go,550.0,350.0,1.0,,,,,,,,,cyan,I
0.0,7.0,3.0,1.0,5.0,0.0,0.0,2.0,0.0,part_2,stop,550.0,350.0,4.0,,,,,,,,,white,diamond
0.0,3.0,3.0,0.0,5.0,5.0,792.9185129996768,2.0,0.0,part_2,go,600.0,350.0,1.0,,,,,,,,,magenta,square
0.0,6.0,2.0,1.0,6.0,0.0,0.0,2.0,0.0,part_2,stop,600.0,350.0,4.0,,,,,,,,,cyan,I
0.0,8.0,4.0,1.0,6.0,0.0,0.0,2.0,0.0,part_2,stop,600.0,400.0,4.0,,,,,,,,,green,triangle
0.0,4.0,4.0,0.0,6.0,6.0,1072.735723999358,2.0,0.0,part_2,go,600.0,450.0,1.0,,,,,,,,,orange,flipped triangle
0.0,5.0,1.0,1.0,6.0,0.0,0.0,2.0,0.0,part_2,stop,600.0,450.0,4.0,,,,,,,,,blue,cross
0.0,8.0,4.0,1.0,5.0,0.0,0.0,2.0,0.0,part_2,stop,600.0,500.0,4.0,,,,,,,,,green,triangle
0.0,3.0,3.0,0.0,6.0,6.0,669.349804000376,2.0,0.0,part_2,go,650.0,500.0,1.0,,,,,,,,,magenta,square
0.0,7.0,3.0,1.0,5.0,0.0,0.0,2.0,0.0,part_2,stop,650.0,500.0,4.0,,,,,,,,,white,diamond
0.0,1.0,1.0,0.0,6.0,0.0,0.0,2.0,0.0,part_2,go,700.0,500.0,5.0,,,,,,,,,yellow,hexagon
0.0,8.0,4.0,1.0,5.0,5.0,637.0871809995151,2.0,0.0,part_2,stop,700.0,500.0,3.0,,,,,,,,,green,triangle
0.0,4.0,4.0,0.0,5.0,5.0,830.7264360000772,2.0,0.0,part_2,go,650.0,500.0,1.0,,,,,,,,,orange,flipped triangle
0.0,5.0,1.0,1.0,6.0,0.0,0.0,2.0,0.0,part_2,stop,650.0,500.0,4.0,,,,,,,,,blue,cross
0.0,8.0,4.0,1.0,5.0,5.0,1334.9937399998453,2.0,0.0,part_2,go,650.0,550.0,1.0,,,,,,,,,green,triangle
0.0,1.0,1.0,0.0,5.0,5.0,494.4069160001163,2.0,0.0,part_2,go,650.0,550.0,1.0,,,,,,,,,yellow,hexagon
0.0,4.0,4.0,0.0,5.0,5.0,363.3623429996078,2.0,0.0,part_2,go,650.0,550.0,1.0,,,,,,,,,orange,flipped triangle
0.0,6.0,2.0,1.0,5.0,5.0,700.9096150004552,2.0,0.0,part_2,stop,650.0,550.0,3.0,,,,,,,,,cyan,I
0.0,8.0,4.0,1.0,5.0,5.0,988.9303190002464,2.0,0.0,part_2,go,600.0,550.0,1.0,,,,,,,,,green,triangle
0.0,4.0,4.0,0.0,5.0,5.0,605.900475999988,2.0,0.0,part_2,go,600.0,550.0,1.0,,,,,,,,,orange,flipped triangle
0.0,8.0,4.0,1.0,5.0,0.0,0.0,3.0,0.0,part_2,go,600.0,550.0,5.0,,,,,,,,,green,triangle
0.0,6.0,2.0,1.0,5.0,5.0,448.908651000238,3.0,0.0,part_2,stop,600.0,550.0,3.0,,,,,,,,,cyan,I
0.0,3.0,3.0,0.0,5.0,5.0,392.6360699997531,3.0,0.0,part_2,go,550.0,550.0,1.0,,,,,,,,,magenta,square
0.0,6.0,2.0,1.0,6.0,6.0,354.144114000519,3.0,0.0,part_2,stop,550.0,550.0,3.0,,,,,,,,,cyan,I
0.0,2.0,2.0,0.0,6.0,6.0,336.3687400005801,3.0,0.0,part_2,go,550.0,500.0,1.0,,,,,,,,,gray,circle
0.0,7.0,3.0,1.0,5.0,5.0,317.1586509997723,3.0,0.0,part_2,stop,550.0,500.0,3.0,,,,,,,,,white,diamond
0.0,2.0,2.0,0.0,6.0,6.0,411.5223320004588,3.0,0.0,part_2,go,500.0,500.0,1.0,,,,,,,,,gray,circle
0.0,7.0,3.0,1.0,5.0,5.0,477.1123589998751,3.0,0.0,part_2,stop,500.0,500.0,3.0,,,,,,,,,white,diamond
0.0,8.0,4.0,1.0,6.0,6.0,325.2566159999333,3.0,0.0,part_2,go,450.0,500.0,1.0,,,,,,,,,green,triangle
0.0,2.0,2.0,0.0,5.0,5.0,689.8378729993055,3.0,0.0,part_2,go,450.0,500.0,1.0,,,,,,,,,gray,circle
0.0,6.0,2.0,1.0,5.0,5.0,439.8160379996625,3.0,0.0,part_2,stop,450.0,500.0,3.0,,,,,,,,,cyan,I
0.0,7.0,3.0,1.0,6.0,6.0,657.8449709995766,3.0,0.0,part_2,stop,400.0,500.0,3.0,,,,,,,,,white,diamond
0.0,7.0,3.0,1.0,5.0,5.0,729.4522780002808,3.0,0.0,part_2,go,400.0,450.0,1.0,,,,,,,,,white,diamond
0.0,8.0,4.0,1.0,6.0,6.0,1009.7173680005651,3.0,0.0,part_2,go,400.0,450.0,1.0,,,,,,,,,green,triangle
0.0,8.0,4.0,1.0,6.0,0.0,0.0,3.0,0.0,part_2,stop,400.0,450.0,4.0,,,,,,,,,green,triangle
0.0,1.0,1.0,0.0,6.0,6.0,708.0416630005857,3.0,0.0,part_2,go,400.0,500.0,1.0,,,,,,,,,yellow,hexagon
0.0,5.0,1.0,1.0,6.0,0.0,0.0,3.0,0.0,part_2,stop,400.0,500.0,4.0,,,,,,,,,blue,cross
0.0,6.0,2.0,1.0,5.0,0.0,0.0,3.0,0.0,part_2,stop,400.0,550.0,4.0,,,,,,,,,cyan,I
0.0,8.0,4.0,1.0,5.0,0.0,0.0,3.0,0.0,part_2,stop,450.0,550.0,4.0,,,,,,,,,green,triangle
0.0,3.0,3.0,0.0,6.0,6.0,684.4800680000844,3.0,0.0,part_2,go,500.0,550.0,1.0,,,,,,,,,magenta,square
0.0,5.0,1.0,1.0,5.0,5.0,675.2715429993259,3.0,0.0,part_2,stop,500.0,550.0,3.0,,,,,,,,,blue,cross
0.0,4.0,4.0,0.0,5.0,5.0,801.4760869991733,3.0,0.0,part_2,go,450.0,550.0,1.0,,,,,,,,,orange,flipped triangle
0.0,2.0,2.0,0.0,6.0,6.0,730.9660680002708,3.0,0.0,part_2,go,450.0,550.0,1.0,,,,,,,,,gray,circle
0.0,5.0,1.0,1.0,6.0,0.0,0.0,3.0,0.0,part_2,stop,450.0,550.0,4.0,,,,,,,,,blue,cross
0.0,5.0,1.0,1.0,5.0,0.0,0.0,3.0,0.0,part_2,stop,450.0,600.0,4.0,,,,,,,,,blue,cross
0.0,2.0,2.0,0.0,5.0,5.0,851.044555000044,3.0,0.0,part_2,go,500.0,600.0,1.0,,,,,,,,,gray,circle
0.0,5.0,1.0,1.0,5.0,5.0,1110.1423829995838,3.0,0.0,part_2,go,500.0,600.0,1.0,,,,,,,,,blue,cross
0.0,7.0,3.0,1.0,5.0,5.0,383.1712580004023,3.0,0.0,part_2,stop,500.0,600.0,3.0,,,,,,,,,white,diamond
0.0,4.0,4.0,0.0,6.0,6.0,560.4918019998877,3.0,0.0,part_2,go,450.0,600.0,1.0,,,,,,,,,orange,flipped triangle
0.0,1.0,1.0,0.0,6.0,6.0,942.2475110004598,3.0,0.0,part_2,go,450.0,600.0,1.0,,,,,,,,,yellow,hexagon
0.0,4.0,4.0,0.0,5.0,5.0,878.353249000611,3.0,0.0,part_2,go,450.0,600.0,1.0,,,,,,,,,orange,flipped triangle
0.0,8.0,4.0,1.0,6.0,6.0,364.7531200003868,3.0,0.0,part_2,stop,450.0,600.0,3.0,,,,,,,,,green,triangle
0.0,1.0,1.0,0.0,5.0,5.0,894.7513350003646,3.0,0.0,part_2,go,450.0,550.0,1.0,,,,,,,,,yellow,hexagon
0.0,2.0,2.0,0.0,6.0,6.0,875.9754909997355,3.0,0.0,part_2,go,450.0,550.0,1.0,,,,,,,,,gray,circle
0.0,6.0,2.0,1.0,6.0,0.0,0.0,3.0,0.0,part_2,stop,450.0,550.0,4.0,,,,,,,,,cyan,I
0.0,4.0,4.0,0.0,6.0,6.0,662.9263720005838,3.0,0.0,part_2,go,450.0,600.0,1.0,,,,,,,,,orange,flipped triangle
0.0,2.0,2.0,0.0,5.0,5.0,772.2030980003183,4.0,0.0,part_2,go,450.0,600.0,1.0,,,,,,,,,gray,circle
0.0,6.0,2.0,1.0,6.0,6.0,289.6476249998159,4.0,0.0,part_2,stop,450.0,600.0,3.0,,,,,,,,,cyan,I
0.0,6.0,2.0,1.0,5.0,5.0,382.6862730002176,4.0,0.0,part_2,go,450.0,550.0,1.0,,,,,,,,,cyan,I
0.0,1.0,1.0,0.0,6.0,6.0,326.9887970000127,4.0,0.0,part_2,go,450.0,550.0,1.0,,,,,,,,,yellow,hexagon
0.0,1.0,1.0,0.0,5.0,5.0,308.3468489994629,4.0,0.0,part_2,go,450.0,550.0,1.0,,,,,,,,,yellow,hexagon
0.0,1.0,1.0,0.0,5.0,5.0,319.5874259999982,4.0,0.0,part_2,go,450.0,550.0,1.0,,,,,,,,,yellow,hexagon
0.0,8.0,4.0,1.0,5.0,5.0,325.8903500000087,4.0,0.0,part_2,stop,450.0,550.0,3.0,,,,,,,,,green,triangle
0.0,7.0,3.0,1.0,5.0,0.0,0.0,4.0,0.0,part_2,stop,400.0,550.0,4.0,,,,,,,,,white,diamond
0.0,2.0,2.0,0.0,5.0,5.0,280.7852730002196,4.0,0.0,part_2,go,450.0,550.0,1.0,,,,,,,,,gray,circle
0.0,4.0,4.0,0.0,5.0,5.0,365.4736819999016,4.0,0.0,part_2,go,450.0,550.0,1.0,,,,,,,,,orange,flipped triangle
0.0,5.0,1.0,1.0,5.0,5.0,317.9487749994223,4.0,0.0,part_2,stop,450.0,550.0,3.0,,,,,,,,,blue,cross
0.0,5.0,1.0,1.0,6.0,6.0,327.2668039999189,4.0,0.0,part_2,stop,400.0,550.0,3.0,,,,,,,,,blue,cross
0.0,3.0,3.0,0.0,5.0,5.0,514.2813419997765,4.0,0.0,part_2,go,400.0,500.0,1.0,,,,,,,,,magenta,square
0.0,3.0,3.0,0.0,6.0,6.0,307.9556689999663,4.0,0.0,part_2,go,400.0,500.0,1.0,,,,,,,,,magenta,square
0.0,2.0,2.0,0.0,5.0,5.0,429.7471969994149,4.0,0.0,part_2,go,400.0,500.0,1.0,,,,,,,,,gray,circle
0.0,6.0,2.0,1.0,6.0,6.0,289.4469289994958,4.0,0.0,part_2,stop,400.0,500.0,3.0,,,,,,,,,cyan,I
0.0,2.0,2.0,0.0,5.0,5.0,223.9819729993541,4.0,0.0,part_2,go,400.0,450.0,1.0,,,,,,,,,gray,circle
0.0,3.0,3.0,0.0,5.0,5.0,692.1333989994309,4.0,0.0,part_2,go,400.0,450.0,1.0,,,,,,,,,magenta,square
0.0,7.0,3.0,1.0,6.0,6.0,487.8695190000144,4.0,0.0,part_2,stop,400.0,450.0,3.0,,,,,,,,,white,diamond
0.0,4.0,4.0,0.0,6.0,6.0,738.879968999754,4.0,0.0,part_2,go,400.0,400.0,1.0,,,,,,,,,orange,flipped triangle
0.0,8.0,4.0,1.0,6.0,6.0,543.3382680002978,4.0,0.0,part_2,stop,400.0,400.0,3.0,,,,,,,,,green,triangle
0.0,6.0,2.0,1.0,5.0,5.0,625.5258399996819,4.0,0.0,part_2,go,400.0,350.0,1.0,,,,,,,,,cyan,I
0.0,1.0,1.0,0.0,6.0,6.0,615.5329490002259,4.0,0.0,part_2,go,400.0,350.0,1.0,,,,,,,,,yellow,hexagon
0.0,1.0,1.0,0.0,6.0,6.0,459.30311399934,4.0,0.0,part_2,go,400.0,350.0,1.0,,,,,,,,,yellow,hexagon
0.0,1.0,1.0,0.0,6.0,6.0,411.5109029999075,4.0,0.0,part_2,go,400.0,350.0,1.0,,,,,,,,,yellow,hexagon
0.0,6.0,2.0,1.0,6.0,6.0,557.0948530003079,4.0,0.0,part_2,go,400.0,350.0,1.0,,,,,,,,,cyan,I
0.0,2.0,2.0,0.0,5.0,5.0,522.2739569999248,4.0,0.0,part_2,go,400.0,350.0,1.0,,,,,,,,,gray,circle
0.0,4.0,4.0,0.0,5.0,5.0,393.6366660000203,4.0,0.0,part_2,go,400.0,350.0,1.0,,,,,,,,,orange,flipped triangle
0.0,7.0,3.0,1.0,6.0,6.0,397.5019039999097,4.0,0.0,part_2,stop,400.0,350.0,3.0,,,,,,,,,white,diamond
0.0,4.0,4.0,0.0,6.0,6.0,559.9061879993315,4.0,0.0,part_2,go,400.0,300.0,1.0,,,,,,,,,orange,flipped triangle
0.0,4.0,4.0,0.0,5.0,5.0,335.3075859995442,4.0,0.0,part_2,go,400.0,300.0,1.0,,,,,,,,,orange,flipped triangle
0.0,7.0,3.0,1.0,5.0,5.0,374.4011400003728,4.0,0.0,part_2,go,400.0,300.0,1.0,,,,,,,,,white,diamond
0.0,3.0,3.0,0.0,5.0,5.0,383.5488410004473,4.0,0.0,part_2,go,400.0,300.0,1.0,,,,,,,,,magenta,square
0.0,7.0,3.0,1.0,6.0,6.0,348.6997950003569,4.0,0.0,part_2,stop,400.0,300.0,3.0,,,,,,,,,white,diamond
0.0,6.0,2.0,1.0,5.0,5.0,532.2155909998401,4.0,0.0,part_2,stop,400.0,250.0,3.0,,,,,,,,,cyan,I
0.0,7.0,3.0,1.0,5.0,0.0,0.0,4.0,0.0,part_2,stop,350.0,250.0,4.0,,,,,,,,,white,diamond
0.0,1.0,1.0,0.0,5.0,5.0,757.744303000436,5.0,0.0,part_2,go,400.0,250.0,1.0,,,,,,,,,yellow,hexagon
0.0,4.0,4.0,0.0,6.0,6.0,401.8398520001938,5.0,0.0,part_2,go,400.0,250.0,1.0,,,,,,,,,orange,flipped triangle
0.0,3.0,3.0,0.0,6.0,6.0,318.4501739997358,5.0,0.0,part_2,go,400.0,250.0,1.0,,,,,,,,,magenta,square
0.0,3.0,3.0,0.0,5.0,5.0,279.7057230000064,5.0,0.0,part_2,go,400.0,250.0,1.0,,,,,,,,,magenta,square
0.0,3.0,3.0,0.0,5.0,5.0,309.5486980000714,5.0,0.0,part_2,go,400.0,250.0,1.0,,,,,,,,,magenta,square
0.0,1.0,1.0,0.0,6.0,6.0,271.5614509997976,5.0,0.0,part_2,go,400.0,250.0,1.0,,,,,,,,,yellow,hexagon
0.0,3.0,3.0,0.0,5.0,5.0,254.37907000014093,5.0,0.0,part_2,go,400.0,250.0,1.0,,,,,,,,,magenta,square
0.0,3.0,3.0,0.0,5.0,5.0,300.6592599995201,5.0,0.0,part_2,go,400.0,250.0,1.0,,,,,,,,,magenta,square
0.0,7.0,3.0,1.0,6.0,6.0,298.8470029995369,5.0,0.0,part_2,stop,400.0,250.0,3.0,,,,,,,,,white,diamond
0.0,6.0,2.0,1.0,5.0,5.0,458.9306990001205,5.0,0.0,part_2,stop,400.0,200.0,3.0,,,,,,,,,cyan,I
0.0,2.0,2.0,0.0,5.0,5.0,365.6090329996004,5.0,0.0,part_2,go,350.0,200.0,1.0,,,,,,,,,gray,circle
0.0,4.0,4.0,0.0,5.0,5.0,802.7715519992853,5.0,0.0,part_2,go,350.0,200.0,1.0,,,,,,,,,orange,flipped triangle
0.0,5.0,1.0,1.0,5.0,0.0,0.0,5.0,0.0,part_2,stop,350.0,200.0,4.0,,,,,,,,,blue,cross
0.0,4.0,4.0,0.0,6.0,6.0,504.478152000047,5.0,0.0,part_2,go,400.0,200.0,1.0,,,,,,,,,orange,flipped triangle
0.0,2.0,2.0,0.0,6.0,6.0,812.1980420000909,5.0,0.0,part_2,go,400.0,200.0,1.0,,,,,,,,,gray,circle
0.0,8.0,4.0,1.0,5.0,0.0,0.0,5.0,0.0,part_2,stop,400.0,200.0,4.0,,,,,,,,,green,triangle
0.0,7.0,3.0,1.0,6.0,0.0,0.0,5.0,0.0,part_2,stop,450.0,200.0,4.0,,,,,,,,,white,diamond
0.0,1.0,1.0,0.0,5.0,5.0,655.9544219999225,5.0,0.0,part_2,go,450.0,250.0,1.0,,,,,,,,,yellow,hexagon
0.0,5.0,1.0,1.0,5.0,5.0,337.0505530001537,5.0,0.0,part_2,stop,450.0,250.0,3.0,,,,,,,,,blue,cross
0.0,1.0,1.0,0.0,6.0,6.0,437.1286539999346,5.0,0.0,part_2,go,400.0,250.0,1.0,,,,,,,,,yellow,hexagon
0.0,1.0,1.0,0.0,5.0,5.0,290.4318989994863,5.0,0.0,part_2,go,400.0,250.0,1.0,,,,,,,,,yellow,hexagon
0.0,3.0,3.0,0.0,6.0,6.0,318.8207159992089,5.0,0.0,part_2,go,400.0,250.0,1.0,,,,,,,,,magenta,square
0.0,8.0,4.0,1.0,5.0,5.0,272.0346280002559,5.0,0.0,part_2,stop,400.0,250.0,3.0,,,,,,,,,green,triangle
0.0,8.0,4.0,1.0,6.0,0.0,0.0,5.0,0.0,part_2,stop,350.0,250.0,4.0,,,,,,,,,green,triangle
0.0,4.0,4.0,0.0,6.0,6.0,571.5304100003777,5.0,0.0,part_2,go,350.0,300.0,1.0,,,,,,,,,orange,flipped triangle
0.0,8.0,4.0,1.0,5.0,5.0,571.130323000034,5.0,0.0,part_2,go,350.0,300.0,1.0,,,,,,,,,green,triangle
0.0,4.0,4.0,0.0,6.0,6.0,355.0856900001236,5.0,0.0,part_2,go,350.0,300.0,1.0,,,,,,,,,orange,flipped triangle
0.0,2.0,2.0,0.0,6.0,6.0,486.5822699994169,5.0,0.0,part_2,go,350.0,300.0,1.0,,,,,,,,,gray,circle
0.0,2.0,2.0,0.0,6.0,6.0,708.1555929999013,5.0,0.0,part_2,go,350.0,300.0,1.0,,,,,,,,,gray,circle
0.0,7.0,3.0,1.0,5.0,0.0,0.0,5.0,0.0,part_2,stop,350.0,300.0,4.0,,,,,,,,,white,diamond
0.0,8.0,4.0,1.0,5.0,5.0,616.0830129992974,5.0,0.0,part_2,go,400.0,300.0,1.0,,,,,,,,,green,triangle
0.0,7.0,3.0,1.0,6.0,6.0,355.9554299999945,5.0,0.0,part_2,stop,400.0,300.0,3.0,,,,,,,,,white,diamond
0.0,1.0,1.0,0.0,5.0,5.0,269.9620769999455,5.0,0.0,part_2,go,400.0,250.0,1.0,,,,,,,,,yellow,hexagon
0.0,7.0,3.0,1.0,6.0,0.0,0.0,5.0,0.0,part_2,stop,400.0,250.0,4.0,,,,,,,,,white,diamond
0.0,2.0,2.0,0.0,6.0,6.0,673.5171079999418,5.0,0.0,part_2,go,400.0,300.0,1.0,,,,,,,,,gray,circle
0.0,2.0,2.0,0.0,6.0,6.0,280.4153970000698,5.0,0.0,part_2,go,400.0,300.0,1.0,,,,,,,,,gray,circle
0.0,3.0,3.0,0.0,5.0,5.0,647.2437370002808,6.0,0.0,part_2,go,400.0,300.0,1.0,,,,,,,,,magenta,square
0.0,4.0,4.0,0.0,6.0,6.0,374.6127340000384,6.0,0.0,part_2,go,400.0,300.0,1.0,,,,,,,,,orange,flipped triangle
0.0,5.0,1.0,1.0,5.0,5.0,299.0609840007892,6.0,0.0,part_2,stop,400.0,300.0,3.0,,,,,,,,,blue,cross
0.0,3.0,3.0,0.0,5.0,5.0,317.2120179997364,6.0,0.0,part_2,go,350.0,300.0,1.0,,,,,,,,,magenta,square
0.0,4.0,4.0,0.0,6.0,6.0,290.02075399967,6.0,0.0,part_2,go,350.0,300.0,1.0,,,,,,,,,orange,flipped triangle
0.0,4.0,4.0,0.0,6.0,6.0,299.2902739997589,6.0,0.0,part_2,go,350.0,300.0,1.0,,,,,,,,,orange,flipped triangle
0.0,6.0,2.0,1.0,6.0,6.0,280.8747049994053,6.0,0.0,part_2,stop,350.0,300.0,3.0,,,,,,,,,cyan,I
0.0,8.0,4.0,1.0,5.0,5.0,271.3767670002198,6.0,0.0,part_2,stop,350.0,250.0,3.0,,,,,,,,,green,triangle
0.0,4.0,4.0,0.0,6.0,6.0,468.4896700000536,6.0,0.0,part_2,go,300.0,250.0,1.0,,,,,,,,,orange,flipped triangle
0.0,7.0,3.0,1.0,5.0,5.0,397.5965999998152,6.0,0.0,part_2,stop,300.0,250.0,3.0,,,,,,,,,white,diamond
0.0,1.0,1.0,0.0,5.0,5.0,560.9256280004047,6.0,0.0,part_2,go,250.0,250.0,1.0,,,,,,,,,yellow,hexagon
0.0,5.0,1.0,1.0,6.0,0.0,0.0,6.0,0.0,part_2,stop,250.0,250.0,4.0,,,,,,,,,blue,cross
0.0,6.0,2.0,1.0,5.0,5.0,552.942923000046,6.0,0.0,part_2,go,250.0,300.0,1.0,,,,,,,,,cyan,I
0.0,7.0,3.0,1.0,6.0,0.0,0.0,6.0,0.0,part_2,stop,250.0,300.0,4.0,,,,,,,,,white,diamond
0.0,8.0,4.0,1.0,6.0,6.0,328.2194410003285,6.0,0.0,part_2,go,250.0,350.0,1.0,,,,,,,,,green,triangle
0.0,1.0,1.0,0.0,5.0,5.0,786.9222280005488,6.0,0.0,part_2,go,250.0,350.0,1.0,,,,,,,,,yellow,hexagon
0.0,2.0,2.0,0.0,5.0,5.0,532.6348800008418,6.0,0.0,part_2,go,250.0,350.0,1.0,,,,,,,,,gray,circle
0.0,5.0,1.0,1.0,5.0,5.0,375.9687239999039,6.0,0.0,part_2,go,250.0,350.0,1.0,,,,,,,,,blue,cross
0.0,7.0,3.0,1.0,6.0,6.0,280.8124089997363,6.0,0.0,part_2,go,250.0,350.0,1.0,,,,,,,,,white,diamond
0.0,3.0,3.0,0.0,6.0,6.0,815.5867690002196,6.0,0.0,part_2,go,250.0,350.0,1.0,,,,,,,,,magenta,square
0.0,2.0,2.0,0.0,5.0,5.0,768.7132989995007,6.0,0.0,part_2,go,250.0,350.0,1.0,,,,,,,,,gray,circle
0.0,6.0,2.0,1.0,5.0,5.0,347.5247810001747,6.0,0.0,part_2,stop,250.0,350.0,3.0,,,,,,,,,cyan,I
0.0,6.0,2.0,1.0,6.0,6.0,402.4501240000973,6.0,0.0,part_2,stop,200.0,350.0,3.0,,,,,,,,,cyan,I
0.0,6.0,2.0,1.0,6.0,6.0,654.6529819997886,6.0,0.0,part_2,go,200.0,300.0,1.0,,,,,,,,,cyan,I
0.0,5.0,1.0,1.0,5.0,0.0,0.0,6.0,0.0,part_2,stop,200.0,300.0,4.0,,,,,,,,,blue,cross
0.0,4.0,4.0,0.0,5.0,5.0,637.8960689999076,6.0,0.0,part_2,go,250.0,300.0,1.0,,,,,,,,,orange,flipped triangle
0.0,5.0,1.0,1.0,6.0,0.0,0.0,6.0,0.0,part_2,stop,250.0,300.0,4.0,,,,,,,,,blue,cross
0.0,7.0,3.0,1.0,5.0,5.0,516.1607999998523,6.0,0.0,part_2,go,250.0,350.0,1.0,,,,,,,,,white,diamond
0.0,5.0,1.0,1.0,6.0,6.0,543.5725080005795,6.0,0.0,part_2,go,250.0,350.0,1.0,,,,,,,,,blue,cross
0.0,2.0,2.0,0.0,5.0,5.0,497.3967719997745,6.0,0.0,part_2,go,250.0,350.0,1.0,,,,,,,,,gray,circle
0.0,6.0,2.0,1.0,5.0,5.0,402.7552130000913,6.0,0.0,part_2,stop,250.0,350.0,3.0,,,,,,,,,cyan,I
0.0,8.0,4.0,1.0,6.0,6.0,493.0030020004778,6.0,0.0,part_2,stop,200.0,350.0,3.0,,,,,,,,,green,triangle
0.0,7.0,3.0,1.0,6.0,0.0,0.0,6.0,0.0,part_2,stop,200.0,300.0,4.0,,,,,,,,,white,diamond
0.0,5.0,1.0,1.0,6.0,6.0,756.4534309994997,6.0,0.0,part_2,go,200.0,350.0,1.0,,,,,,,,,blue,cross
0.0,7.0,3.0,1.0,5.0,0.0,0.0,6.0,0.0,part_2,stop,200.0,350.0,4.0,,,,,,,,,white,diamond
0.0,2.0,2.0,0.0,5.0,5.0,655.9890759999689,6.0,0.0,part_2,go,250.0,350.0,1.0,,,,,,,,,gray,circle
0.0,5.0,1.0,1.0,5.0,0.0,0.0,7.0,0.0,part_2,stop,250.0,350.0,4.0,,,,,,,,,blue,cross
0.0,4.0,4.0,0.0,5.0,5.0,495.9151169996403,7.0,0.0,part_2,go,300.0,350.0,1.0,,,,,,,,,orange,flipped triangle
0.0,5.0,1.0,1.0,6.0,6.0,280.6918870001027,7.0,0.0,part_2,stop,300.0,350.0,3.0,,,,,,,,,blue,cross
0.0,4.0,4.0,0.0,6.0,6.0,392.0785700001943,7.0,0.0,part_2,go,300.0,300.0,1.0,,,,,,,,,orange,flipped triangle
0.0,5.0,1.0,1.0,6.0,6.0,318.579865999709,7.0,0.0,part_2,go,300.0,300.0,1.0,,,,,,,,,blue,cross
0.0,8.0,4.0,1.0,6.0,6.0,335.0869679998141,7.0,0.0,part_2,stop,300.0,300.0,3.0,,,,,,,,,green,triangle
0.0,8.0,4.0,1.0,6.0,0.0,0.0,7.0,0.0,part_2,stop,300.0,250.0,4.0,,,,,,,,,green,triangle
0.0,4.0,4.0,0.0,5.0,5.0,269.8409639997408,7.0,0.0,part_2,go,300.0,300.0,1.0,,,,,,,,,orange,flipped triangle
0.0,8.0,4.0,1.0,5.0,5.0,420.145651999519,7.0,0.0,part_2,stop,300.0,300.0,3.0,,,,,,,,,green,triangle
0.0,6.0,2.0,1.0,6.0,0.0,0.0,7.0,0.0,part_2,stop,250.0,300.0,4.0,,,,,,,,,cyan,I
0.0,4.0,4.0,0.0,6.0,6.0,642.0931120001114,7.0,0.0,part_2,go,250.0,350.0,1.0,,,,,,,,,orange,flipped triangle
0.0,2.0,2.0,0.0,5.0,5.0,560.5772560002151,7.0,0.0,part_2,go,250.0,350.0,1.0,,,,,,,,,gray,circle
0.0,5.0,1.0,1.0,6.0,0.0,0.0,7.0,0.0,part_2,stop,250.0,350.0,4.0,,,,,,,,,blue,cross
0.0,6.0,2.0,1.0,6.0,0.0,0.0,7.0,0.0,part_2,stop,250.0,400.0,4.0,,,,,,,,,cyan,I
0.0,5.0,1.0,1.0,6.0,6.0,541.8225760004134,7.0,0.0,part_2,go,250.0,450.0,1.0,,,,,,,,,blue,cross
0.0,7.0,3.0,1.0,6.0,6.0,543.1850580007449,7.0,0.0,part_2,stop,250.0,450.0,3.0,,,,,,,,,white,diamond
0.0,1.0,1.0,0.0,6.0,6.0,804.6806239999569,7.0,0.0,part_2,go,250.0,400.0,1.0,,,,,,,,,yellow,hexagon
0.0,6.0,2.0,1.0,5.0,0.0,0.0,7.0,0.0,part_2,stop,250.0,400.0,4.0,,,,,,,,,cyan,I
0.0,1.0,1.0,0.0,6.0,6.0,681.4907240004686,7.0,0.0,part_2,go,300.0,400.0,1.0,,,,,,,,,yellow,hexagon
0.0,4.0,4.0,0.0,6.0,6.0,710.7707880004455,7.0,0.0,part_2,go,300.0,400.0,1.0,,,,,,,,,orange,flipped triangle
0.0,2.0,2.0,0.0,6.0,6.0,913.167147000422,7.0,0.0,part_2,go,300.0,400.0,1.0,,,,,,,,,gray,circle
0.0,1.0,1.0,0.0,6.0,6.0,905.562287000066,7.0,0.0,part_2,go,300.0,400.0,1.0,,,,,,,,,yellow,hexagon
0.0,7.0,3.0,1.0,6.0,0.0,0.0,7.0,0.0,part_2,stop,300.0,400.0,4.0,,,,,,,,,white,diamond
0.0,7.0,3.0,1.0,5.0,0.0,0.0,7.0,0.0,part_2,stop,300.0,450.0,4.0,,,,,,,,,white,diamond
0.0,2.0,2.0,0.0,6.0,6.0,663.0647279998811,7.0,0.0,part_2,go,350.0,450.0,1.0,,,,,,,,,gray,circle
0.0,7.0,3.0,1.0,5.0,0.0,0.0,7.0,0.0,part_2,stop,350.0,450.0,4.0,,,,,,,,,white,diamond
0.0,6.0,2.0,1.0,5.0,0.0,0.0,7.0,0.0,part_2,stop,400.0,450.0,4.0,,,,,,,,,cyan,I
0.0,5.0,1.0,1.0,5.0,0.0,0.0,7.0,0.0,part_2,go,450.0,450.0,5.0,,,,,,,,,blue,cross
0.0,1.0,1.0,0.0,5.0,5.0,336.5791279993573,7.0,0.0,part_2,go,450.0,450.0,1.0,,,,,,,,,yellow,hexagon
0.0,5.0,1.0,1.0,6.0,6.0,559.1522739996435,7.0,0.0,part_2,stop,450.0,450.0,3.0,,,,,,,,,blue,cross
0.0,1.0,1.0,0.0,5.0,5.0,551.2924679997013,7.0,0.0,part_2,go,450.0,400.0,1.0,,,,,,,,,yellow,hexagon
0.0,6.0,2.0,1.0,6.0,0.0,0.0,7.0,0.0,part_2,stop,450.0,400.0,4.0,,,,,,,,,cyan,I
0.0,1.0,1.0,0.0,6.0,6.0,692.6753870002358,7.0,0.0,part_2,go,450.0,450.0,1.0,,,,,,,,,yellow,hexagon
0.0,2.0,2.0,0.0,6.0,6.0,687.2910430001866,7.0,0.0,part_2,go,450.0,450.0,1.0,,,,,,,,,gray,circle
0.0,6.0,2.0,1.0,6.0,6.0,570.1056699999754,7.0,0.0,part_2,stop,450.0,450.0,3.0,,,,,,,,,cyan,I
0.0,7.0,3.0,1.0,6.0,6.0,534.2817319997266,7.0,0.0,part_2,stop,450.0,400.0,3.0,,,,,,,,,white,diamond
0.0,1.0,1.0,0.0,5.0,5.0,598.270348999904,8.0,0.0,part_2,go,450.0,350.0,1.0,,,,,,,,,yellow,hexagon
0.0,2.0,2.0,0.0,5.0,5.0,346.5580470001441,8.0,0.0,part_2,go,450.0,350.0,1.0,,,,,,,,,gray,circle
0.0,1.0,1.0,0.0,6.0,6.0,469.17645800022,8.0,0.0,part_2,go,450.0,350.0,1.0,,,,,,,,,yellow,hexagon
0.0,4.0,4.0,0.0,5.0,5.0,271.6516729997238,8.0,0.0,part_2,go,450.0,350.0,1.0,,,,,,,,,orange,flipped triangle
0.0,3.0,3.0,0.0,6.0,6.0,346.7949730002146,8.0,0.0,part_2,go,450.0,350.0,1.0,,,,,,,,,magenta,square
0.0,5.0,1.0,1.0,6.0,6.0,317.450812000061,8.0,0.0,part_2,stop,450.0,350.0,3.0,,,,,,,,,blue,cross
0.0,6.0,2.0,1.0,6.0,6.0,355.549898999925,8.0,0.0,part_2,stop,450.0,300.0,3.0,,,,,,,,,cyan,I
0.0,2.0,2.0,0.0,5.0,5.0,319.3125389998386,8.0,0.0,part_2,go,450.0,250.0,1.0,,,,,,,,,gray,circle
0.0,1.0,1.0,0.0,5.0,5.0,393.2269530005214,8.0,0.0,part_2,go,450.0,250.0,1.0,,,,,,,,,yellow,hexagon
0.0,3.0,3.0,0.0,5.0,5.0,457.053841000743,8.0,0.0,part_2,go,450.0,250.0,1.0,,,,,,,,,magenta,square
0.0,1.0,1.0,0.0,5.0,5.0,729.5591829997647,8.0,0.0,part_2,go,450.0,250.0,1.0,,,,,,,,,yellow,hexagon
0.0,8.0,4.0,1.0,6.0,0.0,0.0,8.0,0.0,part_2,stop,450.0,250.0,4.0,,,,,,,,,green,triangle
0.0,8.0,4.0,1.0,6.0,0.0,0.0,8.0,0.0,part_2,stop,450.0,300.0,4.0,,,,,,,,,green,triangle
0.0,2.0,2.0,0.0,6.0,6.0,664.1470419999678,8.0,0.0,part_2,go,450.0,350.0,1.0,,,,,,,,,gray,circle
0.0,5.0,1.0,1.0,6.0,0.0,0.0,8.0,0.0,part_2,stop,450.0,350.0,4.0,,,,,,,,,blue,cross
0.0,3.0,3.0,0.0,5.0,5.0,913.4784739999304,8.0,0.0,part_2,go,450.0,400.0,1.0,,,,,,,,,magenta,square
0.0,6.0,2.0,1.0,5.0,5.0,664.3089589997544,8.0,0.0,part_2,go,450.0,400.0,1.0,,,,,,,,,cyan,I
0.0,6.0,2.0,1.0,6.0,0.0,0.0,8.0,0.0,part_2,stop,450.0,400.0,4.0,,,,,,,,,cyan,I
0.0,4.0,4.0,0.0,6.0,6.0,486.095624999507,8.0,0.0,part_2,go,450.0,450.0,1.0,,,,,,,,,orange,flipped triangle
0.0,6.0,2.0,1.0,5.0,0.0,0.0,8.0,0.0,part_2,stop,450.0,450.0,4.0,,,,,,,,,cyan,I
0.0,8.0,4.0,1.0,5.0,0.0,0.0,8.0,0.0,part_2,stop,500.0,450.0,4.0,,,,,,,,,green,triangle
0.0,8.0,4.0,1.0,6.0,6.0,610.2161489998252,8.0,0.0,part_2,stop,550.0,450.0,3.0,,,,,,,,,green,triangle
0.0,7.0,3.0,1.0,6.0,6.0,710.7056349996128,8.0,0.0,part_2,go,550.0,400.0,1.0,,,,,,,,,white,diamond
0.0,7.0,3.0,1.0,6.0,6.0,814.2976290000661,8.0,0.0,part_2,go,550.0,400.0,1.0,,,,,,,,,white,diamond
0.0,3.0,3.0,0.0,6.0,6.0,653.2450550002977,8.0,0.0,part_2,go,550.0,400.0,1.0,,,,,,,,,magenta,square
0.0,4.0,4.0,0.0,5.0,5.0,364.5082670000192,8.0,0.0,part_2,go,550.0,400.0,1.0,,,,,,,,,orange,flipped triangle
0.0,5.0,1.0,1.0,5.0,0.0,0.0,8.0,0.0,part_2,stop,550.0,400.0,4.0,,,,,,,,,blue,cross
0.0,1.0,1.0,0.0,6.0,6.0,504.6933469993746,8.0,0.0,part_2,go,600.0,400.0,1.0,,,,,,,,,yellow,hexagon
0.0,5.0,1.0,1.0,5.0,0.0,0.0,8.0,0.0,part_2,stop,600.0,400.0,4.0,,,,,,,,,blue,cross
0.0,2.0,2.0,0.0,5.0,5.0,590.3038669994203,8.0,0.0,part_2,go,650.0,400.0,1.0,,,,,,,,,gray,circle
0.0,8.0,4.0,1.0,5.0,5.0,383.7649920005788,8.0,0.0,part_2,stop,650.0,400.0,3.0,,,,,,,,,green,triangle
0.0,3.0,3.0,0.0,5.0,5.0,532.6691050004229,8.0,0.0,part_2,go,600.0,400.0,1.0,,,,,,,,,magenta,square
0.0,4.0,4.0,0.0,5.0,5.0,803.2548700002735,8.0,0.0,part_2,go,600.0,400.0,1.0,,,,,,,,,orange,flipped triangle
0.0,3.0,3.0,0.0,6.0,6.0,381.4765899996928,8.0,0.0,part_2,go,600.0,400.0,1.0,,,,,,,,,magenta,square
0.0,2.0,2.0,0.0,6.0,6.0,504.0923960004875,8.0,0.0,part_2,go,600.0,400.0,1.0,,,,,,,,,gray,circle
0.0,3.0,3.0,0.0,6.0,6.0,355.6935169999633,8.0,0.0,part_2,go,600.0,400.0,1.0,,,,,,,,,magenta,square
0.0,3.0,3.0,0.0,7.0,4.0,3442.800118999912,1.0,1.0,part_3,go,0.0,0.0,0.0,384.0,2.0,1152.0,960.0,192.0,384.0,768.0,576.0,magenta,square
0.0,8.0,4.0,1.0,7.0,4.0,3114.3213759996797,1.0,1.0,part_3,go,0.0,0.0,0.0,1038.0,6.0,346.0,865.0,519.0,1038.0,692.0,173.0,green,triangle
0.0,7.0,3.0,1.0,7.0,2.0,362.7418850001049,1.0,2.0,part_3,go,0.0,0.0,0.0,192.0,1.0,384.0,192.0,768.0,960.0,576.0,1152.0,white,diamond
0.0,5.0,1.0,1.0,7.0,4.0,2348.662776999845,1.0,1.0,part_3,go,0.0,0.0,0.0,135.0,1.0,810.0,675.0,270.0,135.0,540.0,405.0,blue,cross
0.0,7.0,3.0,1.0,7.0,3.0,1412.489588000426,1.0,1.0,part_3,go,0.0,0.0,0.0,116.0,1.0,464.0,696.0,116.0,232.0,348.0,580.0,white,diamond
0.0,2.0,2.0,0.0,7.0,5.0,1653.0147590001434,1.0,1.0,part_3,go,0.0,0.0,0.0,116.0,1.0,464.0,348.0,580.0,696.0,116.0,232.0,gray,circle
0.0,8.0,4.0,1.0,7.0,6.0,1888.602555000034,1.0,1.0,part_3,go,0.0,0.0,0.0,1152.0,6.0,960.0,768.0,192.0,576.0,384.0,1152.0,green,triangle
0.0,1.0,1.0,0.0,7.0,6.0,3395.9761200003413,1.0,1.0,part_3,go,0.0,0.0,0.0,464.0,4.0,580.0,696.0,116.0,232.0,348.0,464.0,yellow,hexagon
0.0,6.0,2.0,1.0,7.0,4.0,1996.371850000287,1.0,1.0,part_3,go,0.0,0.0,0.0,580.0,5.0,232.0,116.0,348.0,580.0,696.0,464.0,cyan,I
0.0,1.0,1.0,0.0,7.0,2.0,1807.7902009999889,1.0,1.0,part_3,go,0.0,0.0,0.0,192.0,1.0,576.0,192.0,1152.0,384.0,768.0,960.0,yellow,hexagon
0.0,3.0,3.0,0.0,7.0,6.0,2324.13455599999,1.0,1.0,part_3,go,0.0,0.0,0.0,696.0,6.0,348.0,580.0,116.0,232.0,464.0,696.0,magenta,square
0.0,7.0,3.0,1.0,7.0,2.0,1912.2919860001275,1.0,1.0,part_3,go,0.0,0.0,0.0,192.0,1.0,576.0,192.0,768.0,1152.0,960.0,384.0,white,diamond
0.0,2.0,2.0,0.0,7.0,3.0,1912.1222110006784,1.0,1.0,part_3,go,0.0,0.0,0.0,135.0,1.0,810.0,675.0,135.0,405.0,540.0,270.0,gray,circle
0.0,8.0,4.0,1.0,7.0,3.0,2051.7099260005125,1.0,1.0,part_3,go,0.0,0.0,0.0,810.0,6.0,135.0,270.0,810.0,675.0,540.0,405.0,green,triangle
0.0,5.0,1.0,1.0,7.0,1.0,2622.2887459998674,1.0,1.0,part_3,go,0.0,0.0,0.0,384.0,2.0,384.0,576.0,960.0,192.0,768.0,1152.0,blue,cross
0.0,2.0,2.0,0.0,7.0,5.0,1760.9183829999893,1.0,1.0,part_3,go,0.0,0.0,0.0,116.0,1.0,232.0,696.0,464.0,348.0,116.0,580.0,gray,circle
0.0,3.0,3.0,0.0,7.0,3.0,1298.3066260003395,1.0,1.0,part_3,go,0.0,0.0,0.0,308.0,2.0,154.0,462.0,308.0,770.0,616.0,924.0,magenta,square
0.0,2.0,2.0,0.0,7.0,1.0,2930.656083000031,1.0,1.0,part_3,go,0.0,0.0,0.0,192.0,1.0,192.0,960.0,384.0,1152.0,576.0,768.0,gray,circle
0.0,4.0,4.0,0.0,7.0,2.0,1928.6399590000656,1.0,1.0,part_3,go,0.0,0.0,0.0,810.0,6.0,135.0,810.0,675.0,540.0,270.0,405.0,orange,flipped triangle
0.0,5.0,1.0,1.0,7.0,4.0,1886.0496160004911,1.0,1.0,part_3,go,0.0,0.0,0.0,173.0,1.0,865.0,519.0,346.0,173.0,1038.0,692.0,blue,cross
0.0,3.0,3.0,0.0,7.0,6.0,1787.4435189996802,2.0,1.0,part_3,go,0.0,0.0,0.0,173.0,1.0,519.0,346.0,692.0,1038.0,865.0,173.0,magenta,square
0.0,8.0,4.0,1.0,7.0,1.0,1438.3609789992988,2.0,1.0,part_3,go,0.0,0.0,0.0,1038.0,6.0,1038.0,692.0,346.0,173.0,519.0,865.0,green,triangle
0.0,8.0,4.0,1.0,7.0,6.0,2257.9492960003336,2.0,1.0,part_3,go,0.0,0.0,0.0,924.0,6.0,770.0,154.0,462.0,616.0,308.0,924.0,green,triangle
0.0,6.0,2.0,1.0,7.0,5.0,2532.4388779999936,2.0,1.0,part_3,go,0.0,0.0,0.0,616.0,4.0,462.0,154.0,924.0,308.0,616.0,770.0,cyan,I
0.0,5.0,1.0,1.0,7.0,4.0,1369.697911000003,2.0,1.0,part_3,go,0.0,0.0,0.0,232.0,2.0,580.0,348.0,696.0,232.0,464.0,116.0,blue,cross
0.0,7.0,3.0,1.0,7.0,3.0,1283.2328499998766,2.0,1.0,part_3,go,0.0,0.0,0.0,154.0,1.0,924.0,462.0,154.0,770.0,308.0,616.0,white,diamond
0.0,8.0,4.0,1.0,7.0,4.0,1643.4518579999349,2.0,1.0,part_3,go,0.0,0.0,0.0,1152.0,6.0,960.0,192.0,384.0,1152.0,768.0,576.0,green,triangle
0.0,6.0,2.0,1.0,7.0,4.0,2452.8932709999935,2.0,1.0,part_3,go,0.0,0.0,0.0,154.0,1.0,462.0,770.0,616.0,154.0,924.0,308.0,cyan,I
0.0,5.0,1.0,1.0,7.0,3.0,1213.860673000454,2.0,1.0,part_3,go,0.0,0.0,0.0,616.0,4.0,308.0,924.0,616.0,154.0,462.0,770.0,blue,cross
0.0,7.0,3.0,1.0,7.0,2.0,1581.4613949996783,2.0,1.0,part_3,go,0.0,0.0,0.0,135.0,1.0,270.0,135.0,540.0,810.0,405.0,675.0,white,diamond
0.0,6.0,2.0,1.0,7.0,1.0,2827.6123169998755,2.0,1.0,part_3,go,0.0,0.0,0.0,405.0,3.0,405.0,135.0,810.0,540.0,675.0,270.0,cyan,I
0.0,1.0,1.0,0.0,7.0,3.0,1591.2859609998122,2.0,1.0,part_3,go,0.0,0.0,0.0,576.0,3.0,960.0,1152.0,576.0,768.0,384.0,192.0,yellow,hexagon
0.0,4.0,4.0,0.0,7.0,2.0,1818.5135669991723,2.0,1.0,part_3,go,0.0,0.0,0.0,770.0,5.0,924.0,770.0,462.0,308.0,154.0,616.0,orange,flipped triangle
0.0,8.0,4.0,1.0,7.0,4.0,3409.532967000814,2.0,1.0,part_3,go,0.0,0.0,0.0,580.0,5.0,696.0,232.0,464.0,580.0,348.0,116.0,green,triangle
0.0,1.0,1.0,0.0,7.0,2.0,2925.8752310006457,2.0,1.0,part_3,go,0.0,0.0,0.0,462.0,3.0,308.0,462.0,770.0,924.0,616.0,154.0,yellow,hexagon
0.0,2.0,2.0,0.0,7.0,6.0,1884.59603299998,2.0,1.0,part_3,go,0.0,0.0,0.0,173.0,1.0,865.0,519.0,346.0,692.0,1038.0,173.0,gray,circle
0.0,3.0,3.0,0.0,7.0,2.0,3224.81057099958,2.0,1.0,part_3,go,0.0,0.0,0.0,576.0,3.0,192.0,576.0,384.0,768.0,1152.0,960.0,magenta,square
0.0,5.0,1.0,1.0,7.0,2.0,1435.0135280001268,2.0,1.0,part_3,go,0.0,0.0,0.0,519.0,3.0,692.0,519.0,865.0,1038.0,173.0,346.0,blue,cross
0.0,2.0,2.0,0.0,7.0,3.0,1975.3415010000024,2.0,1.0,part_3,go,0.0,0.0,0.0,270.0,2.0,135.0,405.0,270.0,675.0,540.0,810.0,gray,circle
0.0,2.0,2.0,0.0,7.0,6.0,2189.1637819999232,2.0,1.0,part_3,go,0.0,0.0,0.0,154.0,1.0,308.0,616.0,924.0,462.0,770.0,154.0,gray,circle
0.0,6.0,2.0,1.0,7.0,3.0,1274.3583909996232,3.0,1.0,part_3,go,0.0,0.0,0.0,405.0,3.0,810.0,540.0,405.0,675.0,270.0,135.0,cyan,I
0.0,5.0,1.0,1.0,7.0,4.0,1299.302620999697,3.0,1.0,part_3,go,0.0,0.0,0.0,135.0,1.0,405.0,540.0,675.0,135.0,270.0,810.0,blue,cross
0.0,4.0,4.0,0.0,7.0,4.0,2875.6179829997564,3.0,1.0,part_3,go,0.0,0.0,0.0,960.0,5.0,768.0,1152.0,576.0,960.0,384.0,192.0,orange,flipped triangle
0.0,5.0,1.0,1.0,7.0,3.0,1467.6187760005632,3.0,1.0,part_3,go,0.0,0.0,0.0,154.0,1.0,770.0,616.0,154.0,308.0,462.0,924.0,blue,cross
0.0,7.0,3.0,1.0,7.0,1.0,1447.1792690001166,3.0,1.0,part_3,go,0.0,0.0,0.0,346.0,2.0,346.0,173.0,519.0,692.0,1038.0,865.0,white,diamond
0.0,4.0,4.0,0.0,7.0,6.0,2398.616157000106,3.0,1.0,part_3,go,0.0,0.0,0.0,865.0,5.0,519.0,346.0,692.0,1038.0,173.0,865.0,orange,flipped triangle
0.0,1.0,1.0,0.0,7.0,3.0,2020.0508970001465,3.0,1.0,part_3,go,0.0,0.0,0.0,770.0,5.0,462.0,924.0,770.0,616.0,308.0,154.0,yellow,hexagon
0.0,6.0,2.0,1.0,7.0,2.0,585.0119719998474,3.0,1.0,part_3,go,0.0,0.0,0.0,346.0,2.0,865.0,346.0,692.0,519.0,1038.0,173.0,cyan,I
0.0,4.0,4.0,0.0,7.0,1.0,1607.4091769996812,3.0,1.0,part_3,go,0.0,0.0,0.0,696.0,6.0,696.0,348.0,580.0,116.0,464.0,232.0,orange,flipped triangle
0.0,6.0,2.0,1.0,7.0,5.0,1967.6675580003575,3.0,1.0,part_3,go,0.0,0.0,0.0,192.0,1.0,576.0,1152.0,768.0,960.0,192.0,384.0,cyan,I
0.0,6.0,2.0,1.0,7.0,2.0,1559.999554000569,3.0,1.0,part_3,go,0.0,0.0,0.0,1038.0,6.0,519.0,1038.0,173.0,865.0,692.0,346.0,cyan,I
0.0,6.0,2.0,1.0,7.0,4.0,3585.119617000601,3.0,1.0,part_3,go,0.0,0.0,0.0,384.0,2.0,192.0,1152.0,768.0,384.0,576.0,960.0,cyan,I
0.0,4.0,4.0,0.0,7.0,5.0,2035.350223000023,3.0,1.0,part_3,go,0.0,0.0,0.0,770.0,5.0,462.0,308.0,154.0,616.0,770.0,924.0,orange,flipped triangle
0.0,4.0,4.0,0.0,7.0,2.0,1863.2809729997464,3.0,1.0,part_3,go,0.0,0.0,0.0,675.0,5.0,810.0,675.0,135.0,405.0,540.0,270.0,orange,flipped triangle
0.0,4.0,4.0,0.0,7.0,2.0,2405.761730999984,3.0,1.0,part_3,go,0.0,0.0,0.0,865.0,5.0,173.0,865.0,519.0,692.0,346.0,1038.0,orange,flipped triangle
0.0,1.0,1.0,0.0,7.0,5.0,1991.4491879999332,3.0,1.0,part_3,go,0.0,0.0,0.0,346.0,2.0,865.0,519.0,1038.0,692.0,346.0,173.0,yellow,hexagon
0.0,3.0,3.0,0.0,7.0,2.0,2143.880813000578,3.0,1.0,part_3,go,0.0,0.0,0.0,675.0,5.0,810.0,675.0,540.0,405.0,270.0,135.0,magenta,square
0.0,1.0,1.0,0.0,7.0,3.0,2479.745842999364,3.0,1.0,part_3,go,0.0,0.0,0.0,540.0,4.0,135.0,675.0,540.0,810.0,405.0,270.0,yellow,hexagon
0.0,8.0,4.0,1.0,7.0,5.0,846.6265180004484,3.0,1.0,part_3,go,0.0,0.0,0.0,770.0,5.0,154.0,924.0,462.0,616.0,770.0,308.0,green,triangle
0.0,8.0,4.0,1.0,7.0,2.0,3257.3397289997956,3.0,1.0,part_3,go,0.0,0.0,0.0,810.0,6.0,675.0,810.0,270.0,135.0,540.0,405.0,green,triangle
0.0,7.0,3.0,1.0,7.0,2.0,835.2765980007462,4.0,1.0,part_3,go,0.0,0.0,0.0,616.0,4.0,770.0,616.0,462.0,308.0,154.0,924.0,white,diamond
0.0,5.0,1.0,1.0,7.0,4.0,2253.031696999642,4.0,1.0,part_3,go,0.0,0.0,0.0,384.0,2.0,1152.0,768.0,960.0,384.0,576.0,192.0,blue,cross
0.0,3.0,3.0,0.0,7.0,2.0,1196.3521870002296,4.0,1.0,part_3,go,0.0,0.0,0.0,696.0,6.0,116.0,696.0,348.0,580.0,232.0,464.0,magenta,square
0.0,8.0,4.0,1.0,7.0,4.0,3732.069018000402,4.0,1.0,part_3,go,0.0,0.0,0.0,580.0,5.0,116.0,348.0,464.0,580.0,696.0,232.0,green,triangle
0.0,6.0,2.0,1.0,7.0,2.0,891.8869469998754,4.0,1.0,part_3,go,0.0,0.0,0.0,348.0,3.0,580.0,348.0,232.0,464.0,696.0,116.0,cyan,I
0.0,2.0,2.0,0.0,7.0,6.0,1817.453681000188,4.0,1.0,part_3,go,0.0,0.0,0.0,173.0,1.0,346.0,692.0,1038.0,519.0,865.0,173.0,gray,circle
0.0,1.0,1.0,0.0,7.0,1.0,1623.0593899999803,4.0,1.0,part_3,go,0.0,0.0,0.0,232.0,2.0,232.0,696.0,116.0,348.0,580.0,464.0,yellow,hexagon
0.0,1.0,1.0,0.0,7.0,2.0,725.3512359993692,4.0,1.0,part_3,go,0.0,0.0,0.0,519.0,3.0,692.0,519.0,865.0,346.0,1038.0,173.0,yellow,hexagon
0.0,3.0,3.0,0.0,7.0,4.0,1678.2668260002538,4.0,1.0,part_3,go,0.0,0.0,0.0,519.0,3.0,865.0,1038.0,346.0,519.0,173.0,692.0,magenta,square
0.0,7.0,3.0,1.0,7.0,1.0,1801.2477160000344,4.0,1.0,part_3,go,0.0,0.0,0.0,270.0,2.0,270.0,135.0,405.0,540.0,810.0,675.0,white,diamond
0.0,3.0,3.0,0.0,7.0,4.0,1390.5831940001008,4.0,1.0,part_3,go,0.0,0.0,0.0,405.0,3.0,675.0,270.0,540.0,405.0,810.0,135.0,magenta,square
0.0,2.0,2.0,0.0,7.0,2.0,2021.8602470004043,4.0,1.0,part_3,go,0.0,0.0,0.0,192.0,1.0,768.0,192.0,576.0,1152.0,384.0,960.0,gray,circle
0.0,4.0,4.0,0.0,7.0,3.0,2059.3434870006604,4.0,1.0,part_3,go,0.0,0.0,0.0,960.0,5.0,576.0,1152.0,960.0,192.0,768.0,384.0,orange,flipped triangle
0.0,2.0,2.0,0.0,7.0,5.0,1456.4606859994456,4.0,1.0,part_3,go,0.0,0.0,0.0,154.0,1.0,770.0,616.0,462.0,308.0,154.0,924.0,gray,circle
0.0,7.0,3.0,1.0,7.0,5.0,1932.1847870005513,4.0,1.0,part_3,go,0.0,0.0,0.0,232.0,2.0,348.0,696.0,580.0,116.0,232.0,464.0,white,diamond
0.0,4.0,4.0,0.0,7.0,3.0,3169.005875000039,4.0,1.0,part_3,go,0.0,0.0,0.0,580.0,5.0,696.0,116.0,580.0,348.0,464.0,232.0,orange,flipped triangle
0.0,5.0,1.0,1.0,7.0,2.0,2994.2018080000707,4.0,1.0,part_3,go,0.0,0.0,0.0,348.0,3.0,696.0,348.0,580.0,232.0,464.0,116.0,blue,cross
0.0,1.0,1.0,0.0,7.0,1.0,2434.5588910000515,4.0,1.0,part_3,go,0.0,0.0,0.0,135.0,1.0,135.0,810.0,405.0,540.0,270.0,675.0,yellow,hexagon
0.0,3.0,3.0,0.0,7.0,5.0,1484.134868000183,4.0,1.0,part_3,go,0.0,0.0,0.0,154.0,1.0,616.0,308.0,924.0,462.0,154.0,770.0,magenta,square
0.0,7.0,3.0,1.0,7.0,6.0,2255.790865999188,4.0,1.0,part_3,go,0.0,0.0,0.0,346.0,2.0,865.0,692.0,519.0,173.0,1038.0,346.0,white,diamond
