raw_reward_magnitude,stim_reward,stepwise_reward_magnitude,paired_with_stopping,stim_location,response,reaction_time,block,num_trial_presentations,which_phase,stop_signal_trial_type,left_SSD,right_SSD,accuracy,chosen_bidding_amount,chosen_bidding_level,possible_bid_1,possible_bid_2,possible_bid_3,possible_bid_4,possible_bid_5,possible_bid_6,color_text,shape_text
309.0,2.0,1.0,0.0,1.0,1.0,278.7429349999684,1.0,1.0,phase_1,,,,,,,,,,,,,yellow,cross
0.0,1.0,0.0,0.0,1.0,1.0,395.6405929999391,1.0,1.0,phase_1,,,,,,,,,,,,,cyan,diamond
1310.0,8.0,4.0,1.0,1.0,1.0,341.9258380000656,1.0,1.0,phase_1,,,,,,,,,,,,,gray,flipped triangle
0.0,2.0,0.0,0.0,1.0,1.0,342.0871359999182,1.0,1.0,phase_1,,,,,,,,,,,,,yellow,cross
626.0,7.0,2.0,1.0,4.0,4.0,396.8918269999903,1.0,1.0,phase_1,,,,,,,,,,,,,magenta,circle
1304.0,4.0,4.0,0.0,1.0,1.0,387.3856769999975,1.0,1.0,phase_1,,,,,,,,,,,,,white,triangle
0.0,8.0,0.0,1.0,1.0,1.0,416.7350190000434,1.0,1.0,phase_1,,,,,,,,,,,,,gray,flipped triangle
1299.0,4.0,4.0,0.0,1.0,1.0,396.47095600003007,1.0,1.0,phase_1,,,,,,,,,,,,,white,triangle
641.0,3.0,2.0,0.0,1.0,1.0,425.2314010000191,1.0,1.0,phase_1,,,,,,,,,,,,,blue,hexagon
1302.0,4.0,4.0,0.0,4.0,4.0,323.3247370000072,1.0,1.0,phase_1,,,,,,,,,,,,,white,triangle
644.0,7.0,2.0,1.0,1.0,1.0,433.5313000000269,1.0,1.0,phase_1,,,,,,,,,,,,,magenta,circle
0.0,7.0,0.0,1.0,2.0,2.0,563.4988379999868,1.0,1.0,phase_1,,,,,,,,,,,,,magenta,circle
1324.0,4.0,4.0,0.0,1.0,1.0,443.5418660000323,1.0,1.0,phase_1,,,,,,,,,,,,,white,triangle
174.0,5.0,0.5,1.0,2.0,2.0,433.7387510000781,1.0,1.0,phase_1,,,,,,,,,,,,,orange,square
0.0,7.0,0.0,1.0,1.0,1.0,352.3286590000225,1.0,1.0,phase_1,,,,,,,,,,,,,magenta,circle
626.0,3.0,2.0,0.0,1.0,1.0,351.4958629999682,1.0,1.0,phase_1,,,,,,,,,,,,,blue,hexagon
144.0,1.0,0.5,0.0,4.0,4.0,433.9086580000639,1.0,1.0,phase_1,,,,,,,,,,,,,cyan,diamond
1290.0,8.0,4.0,1.0,1.0,1.0,352.8431859999728,1.0,1.0,phase_1,,,,,,,,,,,,,gray,flipped triangle
1290.0,4.0,4.0,0.0,4.0,4.0,401.2708839999277,1.0,1.0,phase_1,,,,,,,,,,,,,white,triangle
183.0,1.0,0.5,0.0,3.0,3.0,342.9555249999794,1.0,1.0,phase_1,,,,,,,,,,,,,cyan,diamond
301.0,2.0,1.0,0.0,4.0,4.0,388.3189839999659,1.0,1.0,phase_1,,,,,,,,,,,,,yellow,cross
160.0,5.0,0.5,1.0,2.0,2.0,333.6357219999399,1.0,1.0,phase_1,,,,,,,,,,,,,orange,square
631.0,7.0,2.0,1.0,3.0,3.0,333.845096999994,1.0,1.0,phase_1,,,,,,,,,,,,,magenta,circle
1293.0,4.0,4.0,0.0,4.0,4.0,481.0244829999419,1.0,1.0,phase_1,,,,,,,,,,,,,white,triangle
169.0,1.0,0.5,0.0,2.0,2.0,554.0223360000027,1.0,1.0,phase_1,,,,,,,,,,,,,cyan,diamond
173.0,5.0,0.5,1.0,1.0,1.0,507.61436200002663,1.0,1.0,phase_1,,,,,,,,,,,,,orange,square
671.0,3.0,2.0,0.0,3.0,3.0,313.9340060000677,1.0,1.0,phase_1,,,,,,,,,,,,,blue,hexagon
315.0,2.0,1.0,0.0,2.0,2.0,323.5652239999353,1.0,1.0,phase_1,,,,,,,,,,,,,yellow,cross
0.0,4.0,0.0,0.0,1.0,1.0,313.918410000042,1.0,1.0,phase_1,,,,,,,,,,,,,white,triangle
169.0,5.0,0.5,1.0,3.0,3.0,341.3585579999107,1.0,1.0,phase_1,,,,,,,,,,,,,orange,square
318.0,2.0,1.0,0.0,3.0,3.0,314.3781100000069,1.0,1.0,phase_1,,,,,,,,,,,,,yellow,cross
1284.0,4.0,4.0,0.0,2.0,2.0,332.7946880000354,1.0,1.0,phase_1,,,,,,,,,,,,,white,triangle
329.0,2.0,1.0,0.0,4.0,4.0,397.8930329999457,1.0,1.0,phase_1,,,,,,,,,,,,,yellow,cross
0.0,4.0,0.0,0.0,4.0,4.0,369.9671360000138,1.0,1.0,phase_1,,,,,,,,,,,,,white,triangle
0.0,1.0,0.0,0.0,1.0,1.0,406.422034000002,1.0,1.0,phase_1,,,,,,,,,,,,,cyan,diamond
167.0,5.0,0.5,1.0,4.0,4.0,230.6638709999333,1.0,1.0,phase_1,,,,,,,,,,,,,orange,square
1321.0,8.0,4.0,1.0,1.0,1.0,517.8272900000138,1.0,1.0,phase_1,,,,,,,,,,,,,gray,flipped triangle
176.0,5.0,0.5,1.0,1.0,1.0,461.3963650000414,1.0,1.0,phase_1,,,,,,,,,,,,,orange,square
665.0,7.0,2.0,1.0,4.0,4.0,376.966498999991,1.0,1.0,phase_1,,,,,,,,,,,,,magenta,circle
646.0,3.0,2.0,0.0,4.0,4.0,359.5439450000413,1.0,1.0,phase_1,,,,,,,,,,,,,blue,hexagon
642.0,7.0,2.0,1.0,4.0,4.0,351.8240519999835,1.0,1.0,phase_1,,,,,,,,,,,,,magenta,circle
639.0,7.0,2.0,1.0,4.0,4.0,461.1614460000055,1.0,1.0,phase_1,,,,,,,,,,,,,magenta,circle
1321.0,8.0,4.0,1.0,4.0,4.0,370.2182209999591,1.0,1.0,phase_1,,,,,,,,,,,,,gray,flipped triangle
1309.0,8.0,4.0,1.0,3.0,3.0,363.1682239999918,1.0,1.0,phase_1,,,,,,,,,,,,,gray,flipped triangle
1324.0,4.0,4.0,0.0,1.0,1.0,452.3512499999924,1.0,1.0,phase_1,,,,,,,,,,,,,white,triangle
1314.0,8.0,4.0,1.0,1.0,1.0,363.3855619999622,1.0,1.0,phase_1,,,,,,,,,,,,,gray,flipped triangle
309.0,6.0,1.0,1.0,4.0,4.0,322.8454170000532,1.0,1.0,phase_1,,,,,,,,,,,,,green,I
174.0,1.0,0.5,0.0,4.0,4.0,433.2391309999366,1.0,1.0,phase_1,,,,,,,,,,,,,cyan,diamond
0.0,8.0,0.0,1.0,4.0,4.0,370.0017200000047,1.0,1.0,phase_1,,,,,,,,,,,,,gray,flipped triangle
662.0,3.0,2.0,0.0,1.0,1.0,518.2191379999495,1.0,1.0,phase_1,,,,,,,,,,,,,blue,hexagon
0.0,8.0,0.0,1.0,1.0,1.0,369.1429460000108,1.0,1.0,phase_1,,,,,,,,,,,,,gray,flipped triangle
176.0,1.0,0.5,0.0,4.0,4.0,313.22072600005407,1.0,1.0,phase_1,,,,,,,,,,,,,cyan,diamond
149.0,1.0,0.5,0.0,3.0,3.0,258.4362459999738,1.0,1.0,phase_1,,,,,,,,,,,,,cyan,diamond
1280.0,4.0,4.0,0.0,4.0,4.0,332.9766969999355,1.0,1.0,phase_1,,,,,,,,,,,,,white,triangle
154.0,5.0,0.5,1.0,4.0,4.0,342.1445699999594,1.0,1.0,phase_1,,,,,,,,,,,,,orange,square
633.0,7.0,2.0,1.0,3.0,3.0,368.8206670000227,1.0,1.0,phase_1,,,,,,,,,,,,,magenta,circle
180.0,5.0,0.5,1.0,3.0,3.0,313.827569999944,1.0,1.0,phase_1,,,,,,,,,,,,,orange,square
333.0,2.0,1.0,0.0,2.0,2.0,341.8256290000272,1.0,1.0,phase_1,,,,,,,,,,,,,yellow,cross
653.0,7.0,2.0,1.0,1.0,1.0,397.0124319999968,1.0,1.0,phase_1,,,,,,,,,,,,,magenta,circle
644.0,3.0,2.0,0.0,3.0,3.0,341.9510879999734,1.0,1.0,phase_1,,,,,,,,,,,,,blue,hexagon
310.0,2.0,1.0,0.0,4.0,4.0,269.4300260000091,1.0,1.0,phase_1,,,,,,,,,,,,,yellow,cross
310.0,6.0,1.0,1.0,1.0,1.0,342.1600540000327,1.0,1.0,phase_1,,,,,,,,,,,,,green,I
324.0,2.0,1.0,0.0,1.0,1.0,442.6518060000717,1.0,1.0,phase_1,,,,,,,,,,,,,yellow,cross
318.0,6.0,1.0,1.0,3.0,3.0,342.0417289999022,1.0,1.0,phase_1,,,,,,,,,,,,,green,I
673.0,7.0,2.0,1.0,2.0,2.0,360.8640019999711,1.0,1.0,phase_1,,,,,,,,,,,,,magenta,circle
0.0,7.0,0.0,1.0,2.0,2.0,418.1189780000522,1.0,2.0,phase_1,,,,,,,,,,,,,magenta,circle
0.0,3.0,0.0,0.0,3.0,3.0,397.2087429999646,1.0,1.0,phase_1,,,,,,,,,,,,,blue,hexagon
1287.0,8.0,4.0,1.0,2.0,2.0,535.6491789999609,1.0,1.0,phase_1,,,,,,,,,,,,,gray,flipped triangle
0.0,1.0,0.0,0.0,2.0,2.0,553.7831469999901,1.0,1.0,phase_1,,,,,,,,,,,,,cyan,diamond
1314.0,8.0,4.0,1.0,4.0,4.0,452.7785069999481,1.0,1.0,phase_1,,,,,,,,,,,,,gray,flipped triangle
626.0,7.0,2.0,1.0,3.0,3.0,415.6954459999724,1.0,1.0,phase_1,,,,,,,,,,,,,magenta,circle
650.0,7.0,2.0,1.0,3.0,3.0,331.998035999959,1.0,1.0,phase_1,,,,,,,,,,,,,magenta,circle
339.0,2.0,1.0,0.0,1.0,1.0,599.470469000039,1.0,1.0,phase_1,,,,,,,,,,,,,yellow,cross
1299.0,8.0,4.0,1.0,2.0,2.0,507.22472400002516,1.0,1.0,phase_1,,,,,,,,,,,,,gray,flipped triangle
1280.0,8.0,4.0,1.0,4.0,4.0,434.5453739999811,1.0,1.0,phase_1,,,,,,,,,,,,,gray,flipped triangle
0.0,5.0,0.0,1.0,3.0,3.0,414.8308490000545,1.0,1.0,phase_1,,,,,,,,,,,,,orange,square
331.0,6.0,1.0,1.0,4.0,4.0,368.7301520000119,1.0,1.0,phase_1,,,,,,,,,,,,,green,I
145.0,5.0,0.5,1.0,4.0,4.0,332.394458000067,1.0,1.0,phase_1,,,,,,,,,,,,,orange,square
162.0,5.0,0.5,1.0,2.0,2.0,442.3541589999331,1.0,1.0,phase_1,,,,,,,,,,,,,orange,square
0.0,4.0,0.0,0.0,2.0,2.0,461.2707640000053,1.0,1.0,phase_1,,,,,,,,,,,,,white,triangle
642.0,3.0,2.0,0.0,2.0,2.0,360.0998150000123,1.0,1.0,phase_1,,,,,,,,,,,,,blue,hexagon
0.0,5.0,0.0,1.0,3.0,3.0,304.5655590000251,1.0,1.0,phase_1,,,,,,,,,,,,,orange,square
149.0,5.0,0.5,1.0,2.0,2.0,433.7179960000412,1.0,1.0,phase_1,,,,,,,,,,,,,orange,square
647.0,3.0,2.0,0.0,2.0,2.0,333.2587489999241,1.0,1.0,phase_1,,,,,,,,,,,,,blue,hexagon
666.0,3.0,2.0,0.0,2.0,2.0,323.574600000029,1.0,1.0,phase_1,,,,,,,,,,,,,blue,hexagon
347.0,2.0,1.0,0.0,1.0,1.0,453.9912569999842,1.0,1.0,phase_1,,,,,,,,,,,,,yellow,cross
0.0,6.0,0.0,1.0,3.0,3.0,443.8571349999165,1.0,1.0,phase_1,,,,,,,,,,,,,green,I
315.0,6.0,1.0,1.0,2.0,2.0,526.8831160000218,1.0,1.0,phase_1,,,,,,,,,,,,,green,I
303.0,2.0,1.0,0.0,4.0,4.0,360.5712270000367,1.0,1.0,phase_1,,,,,,,,,,,,,yellow,cross
0.0,1.0,0.0,0.0,4.0,4.0,388.8748059999898,1.0,1.0,phase_1,,,,,,,,,,,,,cyan,diamond
183.0,5.0,0.5,1.0,1.0,1.0,489.5613249999542,1.0,1.0,phase_1,,,,,,,,,,,,,orange,square
346.0,6.0,1.0,1.0,1.0,1.0,453.6010350000197,1.0,1.0,phase_1,,,,,,,,,,,,,green,I
0.0,8.0,0.0,1.0,4.0,4.0,332.3904689999608,1.0,1.0,phase_1,,,,,,,,,,,,,gray,flipped triangle
0.0,4.0,0.0,0.0,1.0,1.0,333.1615909999073,1.0,1.0,phase_1,,,,,,,,,,,,,white,triangle
659.0,3.0,2.0,0.0,4.0,4.0,387.4408140000014,1.0,1.0,phase_1,,,,,,,,,,,,,blue,hexagon
149.0,5.0,0.5,1.0,2.0,2.0,426.2713670000266,1.0,1.0,phase_1,,,,,,,,,,,,,orange,square
1314.0,8.0,4.0,1.0,4.0,4.0,378.7214500000573,1.0,1.0,phase_1,,,,,,,,,,,,,gray,flipped triangle
173.0,1.0,0.5,0.0,3.0,3.0,388.8176699999803,1.0,1.0,phase_1,,,,,,,,,,,,,cyan,diamond
305.0,2.0,1.0,0.0,3.0,3.0,332.945822000056,1.0,1.0,phase_1,,,,,,,,,,,,,yellow,cross
1290.0,4.0,4.0,0.0,4.0,4.0,378.7445469999966,1.0,1.0,phase_1,,,,,,,,,,,,,white,triangle
331.0,2.0,1.0,0.0,2.0,2.0,516.9352729999446,2.0,1.0,phase_1,,,,,,,,,,,,,yellow,cross
643.0,3.0,2.0,0.0,1.0,1.0,489.1523970001117,2.0,1.0,phase_1,,,,,,,,,,,,,blue,hexagon
137.0,5.0,0.5,1.0,4.0,4.0,396.7071270000133,2.0,1.0,phase_1,,,,,,,,,,,,,orange,square
1296.0,8.0,4.0,1.0,1.0,1.0,370.2798189999612,2.0,1.0,phase_1,,,,,,,,,,,,,gray,flipped triangle
1289.0,4.0,4.0,0.0,3.0,3.0,360.9078860000636,2.0,1.0,phase_1,,,,,,,,,,,,,white,triangle
666.0,3.0,2.0,0.0,1.0,1.0,516.4927150000267,2.0,2.0,phase_1,,,,,,,,,,,,,blue,hexagon
167.0,1.0,0.5,0.0,2.0,2.0,469.4667710000431,2.0,1.0,phase_1,,,,,,,,,,,,,cyan,diamond
329.0,2.0,1.0,0.0,1.0,1.0,422.675828000024,2.0,1.0,phase_1,,,,,,,,,,,,,yellow,cross
330.0,2.0,1.0,0.0,3.0,3.0,387.5655269999924,2.0,1.0,phase_1,,,,,,,,,,,,,yellow,cross
144.0,5.0,0.5,1.0,1.0,1.0,433.2954300000438,2.0,1.0,phase_1,,,,,,,,,,,,,orange,square
0.0,2.0,0.0,0.0,2.0,2.0,323.9482250000947,2.0,1.0,phase_1,,,,,,,,,,,,,yellow,cross
1278.0,4.0,4.0,0.0,4.0,4.0,444.0510370000083,2.0,1.0,phase_1,,,,,,,,,,,,,white,triangle
0.0,6.0,0.0,1.0,1.0,1.0,406.0751619999792,2.0,1.0,phase_1,,,,,,,,,,,,,green,I
643.0,3.0,2.0,0.0,4.0,4.0,500.17385799992553,2.0,1.0,phase_1,,,,,,,,,,,,,blue,hexagon
0.0,3.0,0.0,0.0,3.0,3.0,417.7371179998772,2.0,1.0,phase_1,,,,,,,,,,,,,blue,hexagon
627.0,3.0,2.0,0.0,3.0,3.0,360.3510349998942,2.0,1.0,phase_1,,,,,,,,,,,,,blue,hexagon
333.0,6.0,1.0,1.0,1.0,1.0,537.4495140001727,2.0,1.0,phase_1,,,,,,,,,,,,,green,I
0.0,8.0,0.0,1.0,3.0,3.0,527.251883999952,2.0,1.0,phase_1,,,,,,,,,,,,,gray,flipped triangle
340.0,2.0,1.0,0.0,1.0,1.0,370.4214140000204,2.0,1.0,phase_1,,,,,,,,,,,,,yellow,cross
322.0,2.0,1.0,0.0,2.0,2.0,471.7790229999536,2.0,1.0,phase_1,,,,,,,,,,,,,yellow,cross
627.0,7.0,2.0,1.0,2.0,2.0,436.6419570001199,2.0,1.0,phase_1,,,,,,,,,,,,,magenta,circle
0.0,3.0,0.0,0.0,4.0,4.0,352.5904549999268,2.0,1.0,phase_1,,,,,,,,,,,,,blue,hexagon
0.0,1.0,0.0,0.0,1.0,1.0,382.2425980001753,2.0,1.0,phase_1,,,,,,,,,,,,,cyan,diamond
0.0,6.0,0.0,1.0,3.0,3.0,323.2068459999482,2.0,1.0,phase_1,,,,,,,,,,,,,green,I
331.0,2.0,1.0,0.0,2.0,2.0,545.3145290000521,2.0,1.0,phase_1,,,,,,,,,,,,,yellow,cross
1305.0,8.0,4.0,1.0,1.0,1.0,397.7375429999483,2.0,1.0,phase_1,,,,,,,,,,,,,gray,flipped triangle
0.0,6.0,0.0,1.0,3.0,3.0,324.6907709999505,2.0,1.0,phase_1,,,,,,,,,,,,,green,I
162.0,1.0,0.5,0.0,1.0,1.0,472.062367000035,2.0,1.0,phase_1,,,,,,,,,,,,,cyan,diamond
1280.0,8.0,4.0,1.0,1.0,1.0,333.2185149999986,2.0,1.0,phase_1,,,,,,,,,,,,,gray,flipped triangle
653.0,3.0,2.0,0.0,3.0,3.0,377.8292910001255,2.0,1.0,phase_1,,,,,,,,,,,,,blue,hexagon
172.0,1.0,0.5,0.0,1.0,1.0,406.3159040001665,2.0,1.0,phase_1,,,,,,,,,,,,,cyan,diamond
141.0,5.0,0.5,1.0,3.0,3.0,323.6976270000014,2.0,1.0,phase_1,,,,,,,,,,,,,orange,square
1314.0,8.0,4.0,1.0,2.0,2.0,462.1661880000829,2.0,1.0,phase_1,,,,,,,,,,,,,gray,flipped triangle
330.0,2.0,1.0,0.0,4.0,4.0,387.9408479999711,2.0,1.0,phase_1,,,,,,,,,,,,,yellow,cross
163.0,5.0,0.5,1.0,2.0,2.0,434.7663220000868,2.0,1.0,phase_1,,,,,,,,,,,,,orange,square
0.0,8.0,0.0,1.0,2.0,2.0,387.8714900001796,2.0,1.0,phase_1,,,,,,,,,,,,,gray,flipped triangle
0.0,7.0,0.0,1.0,3.0,3.0,371.2772690000747,2.0,1.0,phase_1,,,,,,,,,,,,,magenta,circle
626.0,3.0,2.0,0.0,3.0,3.0,360.9014749999915,2.0,1.0,phase_1,,,,,,,,,,,,,blue,hexagon
662.0,7.0,2.0,1.0,2.0,2.0,499.3949720001183,2.0,1.0,phase_1,,,,,,,,,,,,,magenta,circle
172.0,5.0,0.5,1.0,1.0,1.0,397.2542340000018,2.0,1.0,phase_1,,,,,,,,,,,,,orange,square
1310.0,4.0,4.0,0.0,4.0,4.0,387.9672680000112,2.0,1.0,phase_1,,,,,,,,,,,,,white,triangle
1287.0,4.0,4.0,0.0,3.0,3.0,417.2060190001048,2.0,1.0,phase_1,,,,,,,,,,,,,white,triangle
1279.0,8.0,4.0,1.0,2.0,2.0,453.0392220001431,2.0,1.0,phase_1,,,,,,,,,,,,,gray,flipped triangle
1295.0,8.0,4.0,1.0,4.0,4.0,396.3968850000583,2.0,1.0,phase_1,,,,,,,,,,,,,gray,flipped triangle
1281.0,4.0,4.0,0.0,1.0,1.0,333.3263170000009,2.0,1.0,phase_1,,,,,,,,,,,,,white,triangle
0.0,2.0,0.0,0.0,1.0,1.0,507.39837900005114,2.0,1.0,phase_1,,,,,,,,,,,,,yellow,cross
1288.0,8.0,4.0,1.0,3.0,3.0,435.0424950000615,2.0,1.0,phase_1,,,,,,,,,,,,,gray,flipped triangle
163.0,1.0,0.5,0.0,4.0,4.0,415.7795769999666,2.0,1.0,phase_1,,,,,,,,,,,,,cyan,diamond
329.0,6.0,1.0,1.0,4.0,4.0,407.6353949999429,2.0,1.0,phase_1,,,,,,,,,,,,,green,I
1316.0,8.0,4.0,1.0,4.0,4.0,324.1572939998605,2.0,1.0,phase_1,,,,,,,,,,,,,gray,flipped triangle
346.0,2.0,1.0,0.0,4.0,4.0,352.747915000009,2.0,1.0,phase_1,,,,,,,,,,,,,yellow,cross
300.0,2.0,1.0,0.0,2.0,2.0,554.0835619999598,2.0,1.0,phase_1,,,,,,,,,,,,,yellow,cross
1314.0,4.0,4.0,0.0,3.0,3.0,360.6967509999776,2.0,1.0,phase_1,,,,,,,,,,,,,white,triangle
1315.0,4.0,4.0,0.0,4.0,4.0,397.0267969998531,2.0,1.0,phase_1,,,,,,,,,,,,,white,triangle
329.0,6.0,1.0,1.0,3.0,3.0,352.0292609998705,2.0,1.0,phase_1,,,,,,,,,,,,,green,I
159.0,1.0,0.5,0.0,3.0,3.0,351.7980469998747,2.0,1.0,phase_1,,,,,,,,,,,,,cyan,diamond
137.0,1.0,0.5,0.0,4.0,4.0,369.7830849998809,2.0,1.0,phase_1,,,,,,,,,,,,,cyan,diamond
170.0,1.0,0.5,0.0,2.0,2.0,434.5396769999752,2.0,1.0,phase_1,,,,,,,,,,,,,cyan,diamond
1295.0,4.0,4.0,0.0,2.0,2.0,416.838676999987,2.0,1.0,phase_1,,,,,,,,,,,,,white,triangle
326.0,6.0,1.0,1.0,3.0,3.0,360.7005169999411,2.0,1.0,phase_1,,,,,,,,,,,,,green,I
1306.0,4.0,4.0,0.0,3.0,3.0,407.2646590000204,2.0,1.0,phase_1,,,,,,,,,,,,,white,triangle
322.0,6.0,1.0,1.0,1.0,1.0,369.2197150000993,2.0,1.0,phase_1,,,,,,,,,,,,,green,I
1309.0,4.0,4.0,0.0,4.0,4.0,304.6292830001675,2.0,1.0,phase_1,,,,,,,,,,,,,white,triangle
348.0,6.0,1.0,1.0,4.0,4.0,414.1568640000059,2.0,1.0,phase_1,,,,,,,,,,,,,green,I
1293.0,4.0,4.0,0.0,3.0,3.0,367.8633639999589,2.0,1.0,phase_1,,,,,,,,,,,,,white,triangle
639.0,3.0,2.0,0.0,1.0,1.0,361.5486000001056,2.0,1.0,phase_1,,,,,,,,,,,,,blue,hexagon
342.0,2.0,1.0,0.0,4.0,4.0,304.690047999884,2.0,1.0,phase_1,,,,,,,,,,,,,yellow,cross
157.0,5.0,0.5,1.0,3.0,3.0,331.7149500001051,2.0,1.0,phase_1,,,,,,,,,,,,,orange,square
0.0,6.0,0.0,1.0,3.0,3.0,351.3581600000179,2.0,1.0,phase_1,,,,,,,,,,,,,green,I
1322.0,8.0,4.0,1.0,2.0,2.0,425.0735640000584,2.0,1.0,phase_1,,,,,,,,,,,,,gray,flipped triangle
626.0,7.0,2.0,1.0,1.0,1.0,424.7335289999228,2.0,1.0,phase_1,,,,,,,,,,,,,magenta,circle
1278.0,8.0,4.0,1.0,3.0,3.0,462.7165729998523,2.0,1.0,phase_1,,,,,,,,,,,,,gray,flipped triangle
1322.0,4.0,4.0,0.0,2.0,2.0,427.5057349998405,2.0,1.0,phase_1,,,,,,,,,,,,,white,triangle
174.0,1.0,0.5,0.0,2.0,2.0,379.7072119998574,2.0,1.0,phase_1,,,,,,,,,,,,,cyan,diamond
0.0,4.0,0.0,0.0,3.0,3.0,361.5618129999802,2.0,1.0,phase_1,,,,,,,,,,,,,white,triangle
0.0,7.0,0.0,1.0,3.0,3.0,324.0758819999882,2.0,1.0,phase_1,,,,,,,,,,,,,magenta,circle
663.0,3.0,2.0,0.0,3.0,3.0,360.2704119998634,2.0,1.0,phase_1,,,,,,,,,,,,,blue,hexagon
342.0,6.0,1.0,1.0,3.0,3.0,341.6169940001055,2.0,1.0,phase_1,,,,,,,,,,,,,green,I
183.0,1.0,0.5,0.0,3.0,3.0,333.6683949999042,2.0,1.0,phase_1,,,,,,,,,,,,,cyan,diamond
348.0,2.0,1.0,0.0,3.0,3.0,323.9343289999397,2.0,1.0,phase_1,,,,,,,,,,,,,yellow,cross
0.0,8.0,0.0,1.0,1.0,1.0,396.7040049999468,2.0,1.0,phase_1,,,,,,,,,,,,,gray,flipped triangle
634.0,3.0,2.0,0.0,1.0,1.0,451.9656610000311,2.0,1.0,phase_1,,,,,,,,,,,,,blue,hexagon
333.0,2.0,1.0,0.0,1.0,1.0,351.2830699999085,2.0,1.0,phase_1,,,,,,,,,,,,,yellow,cross
666.0,7.0,2.0,1.0,4.0,4.0,340.5815500000244,2.0,1.0,phase_1,,,,,,,,,,,,,magenta,circle
666.0,7.0,2.0,1.0,1.0,1.0,443.4737839999343,2.0,1.0,phase_1,,,,,,,,,,,,,magenta,circle
304.0,6.0,1.0,1.0,1.0,1.0,443.1493040001442,2.0,1.0,phase_1,,,,,,,,,,,,,green,I
672.0,3.0,2.0,0.0,2.0,2.0,425.0804280000011,2.0,1.0,phase_1,,,,,,,,,,,,,blue,hexagon
640.0,7.0,2.0,1.0,1.0,1.0,434.2031389999192,2.0,1.0,phase_1,,,,,,,,,,,,,magenta,circle
668.0,3.0,2.0,0.0,4.0,4.0,387.0763599998099,2.0,1.0,phase_1,,,,,,,,,,,,,blue,hexagon
346.0,6.0,1.0,1.0,1.0,1.0,377.8948240001227,2.0,1.0,phase_1,,,,,,,,,,,,,green,I
180.0,1.0,0.5,0.0,3.0,3.0,360.1943339999707,2.0,1.0,phase_1,,,,,,,,,,,,,cyan,diamond
300.0,6.0,1.0,1.0,2.0,2.0,368.6873540000306,2.0,1.0,phase_1,,,,,,,,,,,,,green,I
1306.0,8.0,4.0,1.0,4.0,4.0,417.761905000134,2.0,1.0,phase_1,,,,,,,,,,,,,gray,flipped triangle
1304.0,8.0,4.0,1.0,4.0,4.0,462.1381879999262,2.0,1.0,phase_1,,,,,,,,,,,,,gray,flipped triangle
0.0,7.0,0.0,1.0,4.0,4.0,353.3902080000644,2.0,1.0,phase_1,,,,,,,,,,,,,magenta,circle
655.0,3.0,2.0,0.0,4.0,4.0,424.0939450000951,2.0,1.0,phase_1,,,,,,,,,,,,,blue,hexagon
651.0,3.0,2.0,0.0,1.0,1.0,369.4485490000261,2.0,1.0,phase_1,,,,,,,,,,,,,blue,hexagon
0.0,3.0,0.0,0.0,3.0,3.0,323.1124440001167,2.0,1.0,phase_1,,,,,,,,,,,,,blue,hexagon
1291.0,4.0,4.0,0.0,3.0,3.0,332.8860960000384,2.0,1.0,phase_1,,,,,,,,,,,,,white,triangle
308.0,6.0,1.0,1.0,2.0,2.0,398.692543999914,2.0,1.0,phase_1,,,,,,,,,,,,,green,I
626.0,3.0,2.0,0.0,3.0,3.0,425.2869130000363,3.0,1.0,phase_1,,,,,,,,,,,,,blue,hexagon
318.0,6.0,1.0,1.0,4.0,4.0,361.9946230001005,3.0,1.0,phase_1,,,,,,,,,,,,,green,I
0.0,5.0,0.0,1.0,1.0,1.0,306.823101999953,3.0,1.0,phase_1,,,,,,,,,,,,,orange,square
665.0,3.0,2.0,0.0,3.0,3.0,397.0085959999778,3.0,1.0,phase_1,,,,,,,,,,,,,blue,hexagon
653.0,7.0,2.0,1.0,1.0,1.0,434.5903230000658,3.0,1.0,phase_1,,,,,,,,,,,,,magenta,circle
157.0,1.0,0.5,0.0,3.0,3.0,325.2388220000739,3.0,1.0,phase_1,,,,,,,,,,,,,cyan,diamond
322.0,2.0,1.0,0.0,3.0,3.0,351.5743090001706,3.0,1.0,phase_1,,,,,,,,,,,,,yellow,cross
1292.0,8.0,4.0,1.0,2.0,2.0,665.1425860000018,3.0,2.0,phase_1,,,,,,,,,,,,,gray,flipped triangle
149.0,1.0,0.5,0.0,1.0,1.0,398.1610729999829,3.0,1.0,phase_1,,,,,,,,,,,,,cyan,diamond
304.0,2.0,1.0,0.0,4.0,4.0,572.2393300000022,3.0,1.0,phase_1,,,,,,,,,,,,,yellow,cross
1296.0,4.0,4.0,0.0,4.0,4.0,398.0412229998364,3.0,1.0,phase_1,,,,,,,,,,,,,white,triangle
626.0,3.0,2.0,0.0,4.0,4.0,471.2775299999521,3.0,1.0,phase_1,,,,,,,,,,,,,blue,hexagon
643.0,7.0,2.0,1.0,1.0,1.0,507.92743800002427,3.0,1.0,phase_1,,,,,,,,,,,,,magenta,circle
641.0,7.0,2.0,1.0,1.0,1.0,433.8370410000607,3.0,1.0,phase_1,,,,,,,,,,,,,magenta,circle
153.0,1.0,0.5,0.0,1.0,1.0,332.0352949999687,3.0,1.0,phase_1,,,,,,,,,,,,,cyan,diamond
1302.0,8.0,4.0,1.0,3.0,3.0,406.3932500000646,3.0,1.0,phase_1,,,,,,,,,,,,,gray,flipped triangle
146.0,1.0,0.5,0.0,2.0,2.0,526.2557049998122,3.0,1.0,phase_1,,,,,,,,,,,,,cyan,diamond
326.0,2.0,1.0,0.0,4.0,4.0,397.1916080001847,3.0,1.0,phase_1,,,,,,,,,,,,,yellow,cross
347.0,6.0,1.0,1.0,3.0,3.0,324.9493099999654,3.0,1.0,phase_1,,,,,,,,,,,,,green,I
1304.0,8.0,4.0,1.0,1.0,1.0,580.4576479999923,3.0,1.0,phase_1,,,,,,,,,,,,,gray,flipped triangle
674.0,3.0,2.0,0.0,1.0,1.0,451.8638889999238,3.0,1.0,phase_1,,,,,,,,,,,,,blue,hexagon
170.0,5.0,0.5,1.0,2.0,2.0,387.9967859998032,3.0,1.0,phase_1,,,,,,,,,,,,,orange,square
0.0,2.0,0.0,0.0,3.0,3.0,360.5349070001011,3.0,1.0,phase_1,,,,,,,,,,,,,yellow,cross
141.0,1.0,0.5,0.0,4.0,4.0,406.2479429999257,3.0,1.0,phase_1,,,,,,,,,,,,,cyan,diamond
0.0,2.0,0.0,0.0,2.0,2.0,461.6233770000235,3.0,1.0,phase_1,,,,,,,,,,,,,yellow,cross
320.0,2.0,1.0,0.0,3.0,3.0,324.2353959999491,3.0,1.0,phase_1,,,,,,,,,,,,,yellow,cross
668.0,7.0,2.0,1.0,4.0,4.0,332.456281000077,3.0,1.0,phase_1,,,,,,,,,,,,,magenta,circle
169.0,1.0,0.5,0.0,3.0,3.0,332.823997999867,3.0,1.0,phase_1,,,,,,,,,,,,,cyan,diamond
347.0,6.0,1.0,1.0,2.0,2.0,313.8355979999687,3.0,1.0,phase_1,,,,,,,,,,,,,green,I
169.0,5.0,0.5,1.0,1.0,1.0,351.2883670000519,3.0,1.0,phase_1,,,,,,,,,,,,,orange,square
165.0,5.0,0.5,1.0,2.0,2.0,369.3784369997956,3.0,1.0,phase_1,,,,,,,,,,,,,orange,square
321.0,2.0,1.0,0.0,1.0,1.0,388.066303999949,3.0,1.0,phase_1,,,,,,,,,,,,,yellow,cross
321.0,2.0,1.0,0.0,2.0,2.0,387.6945510000951,3.0,1.0,phase_1,,,,,,,,,,,,,yellow,cross
0.0,5.0,0.0,1.0,1.0,1.0,424.5915740000328,3.0,1.0,phase_1,,,,,,,,,,,,,orange,square
0.0,5.0,0.0,1.0,1.0,1.0,388.0126619999373,3.0,1.0,phase_1,,,,,,,,,,,,,orange,square
1321.0,4.0,4.0,0.0,2.0,2.0,445.1560809998227,3.0,1.0,phase_1,,,,,,,,,,,,,white,triangle
1275.0,4.0,4.0,0.0,3.0,3.0,342.45421300011,3.0,1.0,phase_1,,,,,,,,,,,,,white,triangle
647.0,7.0,2.0,1.0,2.0,2.0,636.9511390000753,3.0,1.0,phase_1,,,,,,,,,,,,,magenta,circle
1315.0,8.0,4.0,1.0,3.0,3.0,327.0501060001152,3.0,1.0,phase_1,,,,,,,,,,,,,gray,flipped triangle
0.0,4.0,0.0,0.0,3.0,3.0,341.9535369998812,3.0,1.0,phase_1,,,,,,,,,,,,,white,triangle
1324.0,8.0,4.0,1.0,2.0,2.0,369.6806650000326,3.0,1.0,phase_1,,,,,,,,,,,,,gray,flipped triangle
626.0,7.0,2.0,1.0,3.0,3.0,315.640730000041,3.0,1.0,phase_1,,,,,,,,,,,,,magenta,circle
634.0,7.0,2.0,1.0,1.0,1.0,462.7174540000851,3.0,1.0,phase_1,,,,,,,,,,,,,magenta,circle
307.0,6.0,1.0,1.0,3.0,3.0,369.5388769999681,3.0,1.0,phase_1,,,,,,,,,,,,,green,I
147.0,1.0,0.5,0.0,2.0,2.0,340.846713000019,3.0,1.0,phase_1,,,,,,,,,,,,,cyan,diamond
0.0,1.0,0.0,0.0,2.0,2.0,332.7100559999962,3.0,1.0,phase_1,,,,,,,,,,,,,cyan,diamond
1293.0,8.0,4.0,1.0,3.0,3.0,323.8244310000482,3.0,1.0,phase_1,,,,,,,,,,,,,gray,flipped triangle
0.0,3.0,0.0,0.0,2.0,2.0,313.0586439999661,3.0,1.0,phase_1,,,,,,,,,,,,,blue,hexagon
301.0,6.0,1.0,1.0,3.0,3.0,304.9937759999466,3.0,1.0,phase_1,,,,,,,,,,,,,green,I
313.0,2.0,1.0,0.0,3.0,3.0,342.1714799999336,3.0,1.0,phase_1,,,,,,,,,,,,,yellow,cross
183.0,5.0,0.5,1.0,1.0,1.0,378.1735850000132,3.0,1.0,phase_1,,,,,,,,,,,,,orange,square
0.0,6.0,0.0,1.0,3.0,3.0,369.5542009998007,3.0,1.0,phase_1,,,,,,,,,,,,,green,I
655.0,7.0,2.0,1.0,3.0,3.0,378.9893030000257,3.0,1.0,phase_1,,,,,,,,,,,,,magenta,circle
343.0,6.0,1.0,1.0,3.0,3.0,341.366244000028,3.0,1.0,phase_1,,,,,,,,,,,,,green,I
171.0,5.0,0.5,1.0,3.0,3.0,349.902825999834,3.0,1.0,phase_1,,,,,,,,,,,,,orange,square
179.0,1.0,0.5,0.0,1.0,1.0,389.2116160000114,3.0,1.0,phase_1,,,,,,,,,,,,,cyan,diamond
146.0,5.0,0.5,1.0,1.0,1.0,387.7655699998286,3.0,1.0,phase_1,,,,,,,,,,,,,orange,square
1284.0,8.0,4.0,1.0,1.0,1.0,416.4917499999774,3.0,1.0,phase_1,,,,,,,,,,,,,gray,flipped triangle
660.0,3.0,2.0,0.0,4.0,4.0,469.4121850000101,3.0,1.0,phase_1,,,,,,,,,,,,,blue,hexagon
1314.0,4.0,4.0,0.0,2.0,2.0,415.3818459999456,3.0,1.0,phase_1,,,,,,,,,,,,,white,triangle
303.0,6.0,1.0,1.0,2.0,2.0,387.6734989999022,3.0,1.0,phase_1,,,,,,,,,,,,,green,I
0.0,8.0,0.0,1.0,1.0,1.0,515.9870789998422,3.0,1.0,phase_1,,,,,,,,,,,,,gray,flipped triangle
0.0,7.0,0.0,1.0,2.0,2.0,424.1686279999612,3.0,1.0,phase_1,,,,,,,,,,,,,magenta,circle
0.0,6.0,0.0,1.0,4.0,4.0,350.8160670000961,3.0,1.0,phase_1,,,,,,,,,,,,,green,I
174.0,5.0,0.5,1.0,3.0,3.0,304.1473769999356,3.0,1.0,phase_1,,,,,,,,,,,,,orange,square
1302.0,4.0,4.0,0.0,2.0,2.0,351.5245520000007,3.0,1.0,phase_1,,,,,,,,,,,,,white,triangle
0.0,6.0,0.0,1.0,2.0,2.0,443.2127309999032,3.0,1.0,phase_1,,,,,,,,,,,,,green,I
0.0,3.0,0.0,0.0,4.0,4.0,460.2970869998444,3.0,1.0,phase_1,,,,,,,,,,,,,blue,hexagon
346.0,2.0,1.0,0.0,3.0,3.0,359.6223290001035,3.0,1.0,phase_1,,,,,,,,,,,,,yellow,cross
0.0,1.0,0.0,0.0,3.0,3.0,369.495876999963,3.0,1.0,phase_1,,,,,,,,,,,,,cyan,diamond
658.0,3.0,2.0,0.0,3.0,3.0,331.6950650000763,3.0,1.0,phase_1,,,,,,,,,,,,,blue,hexagon
653.0,3.0,2.0,0.0,1.0,1.0,424.3416550000347,3.0,1.0,phase_1,,,,,,,,,,,,,blue,hexagon
0.0,5.0,0.0,1.0,4.0,4.0,378.4839810000449,3.0,1.0,phase_1,,,,,,,,,,,,,orange,square
340.0,6.0,1.0,1.0,4.0,4.0,341.5521659999285,3.0,1.0,phase_1,,,,,,,,,,,,,green,I
161.0,1.0,0.5,0.0,4.0,4.0,295.0153230001433,3.0,1.0,phase_1,,,,,,,,,,,,,cyan,diamond
0.0,3.0,0.0,0.0,4.0,4.0,322.923074000073,3.0,1.0,phase_1,,,,,,,,,,,,,blue,hexagon
0.0,7.0,0.0,1.0,4.0,4.0,295.7751339999959,3.0,1.0,phase_1,,,,,,,,,,,,,magenta,circle
1305.0,4.0,4.0,0.0,1.0,1.0,443.2072690001405,3.0,1.0,phase_1,,,,,,,,,,,,,white,triangle
0.0,2.0,0.0,0.0,1.0,1.0,368.1162860000313,3.0,1.0,phase_1,,,,,,,,,,,,,yellow,cross
1293.0,8.0,4.0,1.0,2.0,2.0,479.3145209998783,3.0,1.0,phase_1,,,,,,,,,,,,,gray,flipped triangle
1288.0,4.0,4.0,0.0,3.0,3.0,331.7564399999355,3.0,1.0,phase_1,,,,,,,,,,,,,white,triangle
147.0,5.0,0.5,1.0,4.0,4.0,275.8946469998591,3.0,1.0,phase_1,,,,,,,,,,,,,orange,square
168.0,5.0,0.5,1.0,2.0,2.0,343.9232349999201,3.0,1.0,phase_1,,,,,,,,,,,,,orange,square
640.0,3.0,2.0,0.0,2.0,2.0,396.5094489999501,3.0,1.0,phase_1,,,,,,,,,,,,,blue,hexagon
154.0,1.0,0.5,0.0,3.0,3.0,414.8298469999645,3.0,1.0,phase_1,,,,,,,,,,,,,cyan,diamond
333.0,6.0,1.0,1.0,1.0,1.0,460.6190889999197,3.0,1.0,phase_1,,,,,,,,,,,,,green,I
317.0,2.0,1.0,0.0,3.0,3.0,341.8276689999402,3.0,1.0,phase_1,,,,,,,,,,,,,yellow,cross
1281.0,8.0,4.0,1.0,3.0,3.0,341.5159660000881,3.0,1.0,phase_1,,,,,,,,,,,,,gray,flipped triangle
0.0,4.0,0.0,0.0,2.0,2.0,406.9261749998532,3.0,1.0,phase_1,,,,,,,,,,,,,white,triangle
336.0,2.0,1.0,0.0,3.0,3.0,360.1355410000906,3.0,1.0,phase_1,,,,,,,,,,,,,yellow,cross
342.0,2.0,1.0,0.0,1.0,1.0,350.7821230000445,3.0,1.0,phase_1,,,,,,,,,,,,,yellow,cross
330.0,6.0,1.0,1.0,2.0,2.0,424.015104000091,3.0,1.0,phase_1,,,,,,,,,,,,,green,I
0.0,3.0,0.0,0.0,1.0,1.0,452.301486999886,3.0,1.0,phase_1,,,,,,,,,,,,,blue,hexagon
1287.0,8.0,4.0,1.0,2.0,2.0,359.9252369999703,3.0,1.0,phase_1,,,,,,,,,,,,,gray,flipped triangle
1302.0,8.0,4.0,1.0,3.0,3.0,323.0683599999793,3.0,1.0,phase_1,,,,,,,,,,,,,gray,flipped triangle
662.0,3.0,2.0,0.0,4.0,4.0,304.4881769999392,3.0,1.0,phase_1,,,,,,,,,,,,,blue,hexagon
339.0,6.0,1.0,1.0,2.0,2.0,543.9010119998784,3.0,1.0,phase_1,,,,,,,,,,,,,green,I
150.0,1.0,0.5,0.0,1.0,1.0,315.1208030001271,3.0,1.0,phase_1,,,,,,,,,,,,,cyan,diamond
0.0,7.0,0.0,1.0,2.0,2.0,415.9113309999611,3.0,1.0,phase_1,,,,,,,,,,,,,magenta,circle
163.0,1.0,0.5,0.0,1.0,1.0,369.0907039999729,3.0,1.0,phase_1,,,,,,,,,,,,,cyan,diamond
320.0,6.0,1.0,1.0,2.0,2.0,682.5452410000707,4.0,1.0,phase_1,,,,,,,,,,,,,green,I
0.0,6.0,0.0,1.0,1.0,1.0,323.061048999989,4.0,1.0,phase_1,,,,,,,,,,,,,green,I
1316.0,4.0,4.0,0.0,3.0,3.0,369.6611039999879,4.0,1.0,phase_1,,,,,,,,,,,,,white,triangle
674.0,7.0,2.0,1.0,2.0,2.0,397.2984859999542,4.0,1.0,phase_1,,,,,,,,,,,,,magenta,circle
653.0,7.0,2.0,1.0,2.0,2.0,397.1068959999684,4.0,1.0,phase_1,,,,,,,,,,,,,magenta,circle
1280.0,4.0,4.0,0.0,1.0,1.0,498.4160579999752,4.0,1.0,phase_1,,,,,,,,,,,,,white,triangle
655.0,3.0,2.0,0.0,2.0,2.0,359.9746489999234,4.0,1.0,phase_1,,,,,,,,,,,,,blue,hexagon
324.0,6.0,1.0,1.0,2.0,2.0,378.3745529999578,4.0,1.0,phase_1,,,,,,,,,,,,,green,I
152.0,1.0,0.5,0.0,1.0,1.0,322.7121510001325,4.0,1.0,phase_1,,,,,,,,,,,,,cyan,diamond
168.0,1.0,0.5,0.0,4.0,4.0,249.3493439999383,4.0,1.0,phase_1,,,,,,,,,,,,,cyan,diamond
663.0,7.0,2.0,1.0,2.0,2.0,351.6138099998898,4.0,1.0,phase_1,,,,,,,,,,,,,magenta,circle
330.0,6.0,1.0,1.0,4.0,4.0,479.6518949999608,4.0,1.0,phase_1,,,,,,,,,,,,,green,I
634.0,3.0,2.0,0.0,4.0,4.0,423.9003200000297,4.0,1.0,phase_1,,,,,,,,,,,,,blue,hexagon
342.0,6.0,1.0,1.0,1.0,1.0,441.9730900001468,4.0,1.0,phase_1,,,,,,,,,,,,,green,I
321.0,6.0,1.0,1.0,1.0,1.0,469.2367340001055,4.0,1.0,phase_1,,,,,,,,,,,,,green,I
0.0,1.0,0.0,0.0,1.0,1.0,331.8934339999941,4.0,1.0,phase_1,,,,,,,,,,,,,cyan,diamond
648.0,7.0,2.0,1.0,2.0,2.0,313.1367799999225,4.0,1.0,phase_1,,,,,,,,,,,,,magenta,circle
1289.0,8.0,4.0,1.0,3.0,3.0,387.5975959999778,4.0,1.0,phase_1,,,,,,,,,,,,,gray,flipped triangle
0.0,5.0,0.0,1.0,3.0,3.0,351.4623440000832,4.0,1.0,phase_1,,,,,,,,,,,,,orange,square
634.0,7.0,2.0,1.0,3.0,3.0,350.9771489998456,4.0,1.0,phase_1,,,,,,,,,,,,,magenta,circle
143.0,1.0,0.5,0.0,1.0,1.0,470.3528239999741,4.0,1.0,phase_1,,,,,,,,,,,,,cyan,diamond
672.0,7.0,2.0,1.0,1.0,1.0,387.430717000143,4.0,1.0,phase_1,,,,,,,,,,,,,magenta,circle
0.0,4.0,0.0,0.0,1.0,1.0,368.3990269998958,4.0,1.0,phase_1,,,,,,,,,,,,,white,triangle
673.0,3.0,2.0,0.0,4.0,4.0,544.8362649999581,4.0,2.0,phase_1,,,,,,,,,,,,,blue,hexagon
1279.0,4.0,4.0,0.0,1.0,1.0,507.09856200001013,4.0,1.0,phase_1,,,,,,,,,,,,,white,triangle
151.0,5.0,0.5,1.0,4.0,4.0,398.2749330000388,4.0,1.0,phase_1,,,,,,,,,,,,,orange,square
655.0,7.0,2.0,1.0,4.0,4.0,387.908058999983,4.0,1.0,phase_1,,,,,,,,,,,,,magenta,circle
0.0,2.0,0.0,0.0,3.0,3.0,377.567038000052,4.0,1.0,phase_1,,,,,,,,,,,,,yellow,cross
171.0,1.0,0.5,0.0,2.0,2.0,370.1854340001773,4.0,1.0,phase_1,,,,,,,,,,,,,cyan,diamond
176.0,1.0,0.5,0.0,2.0,2.0,488.7361839998903,4.0,1.0,phase_1,,,,,,,,,,,,,cyan,diamond
343.0,2.0,1.0,0.0,2.0,2.0,488.7626880001789,4.0,1.0,phase_1,,,,,,,,,,,,,yellow,cross
633.0,3.0,2.0,0.0,2.0,2.0,351.8085650000557,4.0,1.0,phase_1,,,,,,,,,,,,,blue,hexagon
0.0,2.0,0.0,0.0,1.0,1.0,341.6437670000505,4.0,1.0,phase_1,,,,,,,,,,,,,yellow,cross
643.0,7.0,2.0,1.0,4.0,4.0,351.3863610000953,4.0,1.0,phase_1,,,,,,,,,,,,,magenta,circle
671.0,7.0,2.0,1.0,2.0,2.0,444.1805009998916,4.0,1.0,phase_1,,,,,,,,,,,,,magenta,circle
152.0,5.0,0.5,1.0,3.0,3.0,341.6925569999876,4.0,1.0,phase_1,,,,,,,,,,,,,orange,square
1314.0,4.0,4.0,0.0,1.0,1.0,415.9771269999055,4.0,1.0,phase_1,,,,,,,,,,,,,white,triangle
176.0,5.0,0.5,1.0,4.0,4.0,314.5511509999323,4.0,1.0,phase_1,,,,,,,,,,,,,orange,square
0.0,8.0,0.0,1.0,1.0,1.0,370.7361579999997,4.0,1.0,phase_1,,,,,,,,,,,,,gray,flipped triangle
336.0,6.0,1.0,1.0,2.0,2.0,537.0153080000364,4.0,1.0,phase_1,,,,,,,,,,,,,green,I
0.0,5.0,0.0,1.0,3.0,3.0,287.1619009999904,4.0,1.0,phase_1,,,,,,,,,,,,,orange,square
0.0,4.0,0.0,0.0,1.0,1.0,460.8936950000952,4.0,1.0,phase_1,,,,,,,,,,,,,white,triangle
0.0,5.0,0.0,1.0,2.0,2.0,409.4894170000316,4.0,1.0,phase_1,,,,,,,,,,,,,orange,square
0.0,5.0,0.0,1.0,2.0,2.0,370.1066979999723,4.0,1.0,phase_1,,,,,,,,,,,,,orange,square
318.0,2.0,1.0,0.0,1.0,1.0,341.0226319999765,4.0,1.0,phase_1,,,,,,,,,,,,,yellow,cross
160.0,1.0,0.5,0.0,1.0,1.0,378.4312379998482,4.0,1.0,phase_1,,,,,,,,,,,,,cyan,diamond
1314.0,4.0,4.0,0.0,3.0,3.0,405.9733349999987,4.0,1.0,phase_1,,,,,,,,,,,,,white,triangle
161.0,5.0,0.5,1.0,1.0,1.0,425.6406340000467,4.0,1.0,phase_1,,,,,,,,,,,,,orange,square
182.0,1.0,0.5,0.0,3.0,3.0,397.046858999829,4.0,1.0,phase_1,,,,,,,,,,,,,cyan,diamond
662.0,7.0,2.0,1.0,4.0,4.0,332.4460229998749,4.0,1.0,phase_1,,,,,,,,,,,,,magenta,circle
1321.0,4.0,4.0,0.0,2.0,2.0,435.0099410000894,4.0,1.0,phase_1,,,,,,,,,,,,,white,triangle
651.0,7.0,2.0,1.0,4.0,4.0,437.0090939999045,4.0,1.0,phase_1,,,,,,,,,,,,,magenta,circle
0.0,3.0,0.0,0.0,3.0,3.0,341.7211710000174,4.0,1.0,phase_1,,,,,,,,,,,,,blue,hexagon
0.0,7.0,0.0,1.0,3.0,3.0,341.9540079999024,4.0,1.0,phase_1,,,,,,,,,,,,,magenta,circle
659.0,7.0,2.0,1.0,2.0,2.0,369.433620999871,4.0,1.0,phase_1,,,,,,,,,,,,,magenta,circle
313.0,6.0,1.0,1.0,4.0,4.0,467.2367460000259,4.0,1.0,phase_1,,,,,,,,,,,,,green,I
305.0,6.0,1.0,1.0,4.0,4.0,389.385417000085,4.0,1.0,phase_1,,,,,,,,,,,,,green,I
0.0,1.0,0.0,0.0,2.0,2.0,462.8186219999861,4.0,1.0,phase_1,,,,,,,,,,,,,cyan,diamond
1290.0,8.0,4.0,1.0,3.0,3.0,416.6303469999093,4.0,1.0,phase_1,,,,,,,,,,,,,gray,flipped triangle
0.0,2.0,0.0,0.0,3.0,3.0,361.4225649998843,4.0,1.0,phase_1,,,,,,,,,,,,,yellow,cross
650.0,3.0,2.0,0.0,3.0,3.0,470.3356649999932,4.0,1.0,phase_1,,,,,,,,,,,,,blue,hexagon
331.0,6.0,1.0,1.0,3.0,3.0,546.1392380000234,4.0,1.0,phase_1,,,,,,,,,,,,,green,I
1324.0,8.0,4.0,1.0,4.0,4.0,610.8675519999451,4.0,1.0,phase_1,,,,,,,,,,,,,gray,flipped triangle
322.0,6.0,1.0,1.0,3.0,3.0,453.5718330000691,4.0,2.0,phase_1,,,,,,,,,,,,,green,I
0.0,3.0,0.0,0.0,3.0,3.0,344.0374250001241,4.0,1.0,phase_1,,,,,,,,,,,,,blue,hexagon
321.0,6.0,1.0,1.0,4.0,4.0,380.3800230000433,4.0,1.0,phase_1,,,,,,,,,,,,,green,I
317.0,6.0,1.0,1.0,1.0,1.0,370.135547000018,4.0,1.0,phase_1,,,,,,,,,,,,,green,I
151.0,1.0,0.5,0.0,4.0,4.0,407.6866780001182,4.0,1.0,phase_1,,,,,,,,,,,,,cyan,diamond
1292.0,4.0,4.0,0.0,1.0,1.0,379.11903600002,4.0,1.0,phase_1,,,,,,,,,,,,,white,triangle
0.0,6.0,0.0,1.0,4.0,4.0,398.2697179999377,4.0,1.0,phase_1,,,,,,,,,,,,,green,I
648.0,3.0,2.0,0.0,2.0,2.0,399.0057399998932,4.0,1.0,phase_1,,,,,,,,,,,,,blue,hexagon
0.0,8.0,0.0,1.0,4.0,4.0,445.7931609999832,4.0,1.0,phase_1,,,,,,,,,,,,,gray,flipped triangle
646.0,7.0,2.0,1.0,3.0,3.0,370.5339929999809,4.0,1.0,phase_1,,,,,,,,,,,,,magenta,circle
1275.0,8.0,4.0,1.0,1.0,1.0,406.5551779999623,4.0,1.0,phase_1,,,,,,,,,,,,,gray,flipped triangle
631.0,3.0,2.0,0.0,2.0,2.0,325.0052509999932,4.0,1.0,phase_1,,,,,,,,,,,,,blue,hexagon
347.0,2.0,1.0,0.0,2.0,2.0,360.6843150000713,4.0,1.0,phase_1,,,,,,,,,,,,,yellow,cross
159.0,5.0,0.5,1.0,3.0,3.0,341.4328919998297,4.0,1.0,phase_1,,,,,,,,,,,,,orange,square
1287.0,4.0,4.0,0.0,2.0,2.0,398.1923530000131,4.0,1.0,phase_1,,,,,,,,,,,,,white,triangle
660.0,7.0,2.0,1.0,3.0,3.0,626.742404000197,4.0,1.0,phase_1,,,,,,,,,,,,,magenta,circle
307.0,2.0,1.0,0.0,2.0,2.0,360.2411729998493,4.0,1.0,phase_1,,,,,,,,,,,,,yellow,cross
1291.0,8.0,4.0,1.0,4.0,4.0,379.9357310001596,4.0,1.0,phase_1,,,,,,,,,,,,,gray,flipped triangle
150.0,5.0,0.5,1.0,4.0,4.0,452.1554089999426,4.0,1.0,phase_1,,,,,,,,,,,,,orange,square
653.0,3.0,2.0,0.0,2.0,2.0,397.0140999999785,4.0,1.0,phase_1,,,,,,,,,,,,,blue,hexagon
154.0,1.0,0.5,0.0,2.0,2.0,405.8557460000429,4.0,1.0,phase_1,,,,,,,,,,,,,cyan,diamond
153.0,5.0,0.5,1.0,3.0,3.0,343.1741099998362,4.0,1.0,phase_1,,,,,,,,,,,,,orange,square
0.0,1.0,0.0,0.0,1.0,1.0,415.6838010001138,4.0,1.0,phase_1,,,,,,,,,,,,,cyan,diamond
0.0,2.0,0.0,0.0,3.0,3.0,363.948100000016,4.0,1.0,phase_1,,,,,,,,,,,,,yellow,cross
308.0,2.0,1.0,0.0,4.0,4.0,360.9889320000548,4.0,1.0,phase_1,,,,,,,,,,,,,yellow,cross
1304.0,4.0,4.0,0.0,2.0,2.0,471.262187000093,4.0,1.0,phase_1,,,,,,,,,,,,,white,triangle
0.0,4.0,0.0,0.0,4.0,4.0,433.7766839998949,4.0,1.0,phase_1,,,,,,,,,,,,,white,triangle
165.0,1.0,0.5,0.0,4.0,4.0,388.0669080001553,4.0,1.0,phase_1,,,,,,,,,,,,,cyan,diamond
179.0,5.0,0.5,1.0,4.0,4.0,333.1251580000298,4.0,1.0,phase_1,,,,,,,,,,,,,orange,square
1293.0,4.0,4.0,0.0,2.0,2.0,461.1733899998853,4.0,1.0,phase_1,,,,,,,,,,,,,white,triangle
182.0,5.0,0.5,1.0,3.0,3.0,406.5341010000338,4.0,1.0,phase_1,,,,,,,,,,,,,orange,square
145.0,1.0,0.5,0.0,2.0,2.0,545.5616919998647,4.0,1.0,phase_1,,,,,,,,,,,,,cyan,diamond
658.0,7.0,2.0,1.0,3.0,3.0,352.0889900000838,4.0,1.0,phase_1,,,,,,,,,,,,,magenta,circle
143.0,5.0,0.5,1.0,2.0,2.0,665.1699780002218,4.0,1.0,phase_1,,,,,,,,,,,,,orange,square
163.0,5.0,0.5,1.0,1.0,1.0,572.1283189998303,4.0,1.0,phase_1,,,,,,,,,,,,,orange,square
1293.0,8.0,4.0,1.0,2.0,2.0,517.3924460000308,4.0,1.0,phase_1,,,,,,,,,,,,,gray,flipped triangle
154.0,5.0,0.5,1.0,4.0,4.0,396.7218490001869,4.0,1.0,phase_1,,,,,,,,,,,,,orange,square
0.0,8.0,4.0,1.0,5.0,0.0,0.0,1.0,1.0,phase_2,stop,250.0,250.0,4.0,,,,,,,,,gray,flipped triangle
0.0,5.0,0.5,1.0,5.0,5.0,299.0431230000467,1.0,1.0,phase_2,stop,300.0,250.0,3.0,,,,,,,,,orange,square
0.0,3.0,2.0,0.0,6.0,6.0,462.6789349999853,1.0,1.0,phase_2,go,250.0,250.0,1.0,,,,,,,,,blue,hexagon
0.0,6.0,1.0,1.0,6.0,0.0,0.0,1.0,1.0,phase_2,stop,250.0,250.0,4.0,,,,,,,,,green,I
0.0,8.0,4.0,1.0,5.0,0.0,0.0,1.0,1.0,phase_2,stop,250.0,300.0,4.0,,,,,,,,,gray,flipped triangle
0.0,6.0,1.0,1.0,6.0,6.0,436.1122840000462,1.0,1.0,phase_2,go,300.0,300.0,1.0,,,,,,,,,green,I
0.0,5.0,0.5,1.0,6.0,6.0,473.0153139998947,1.0,1.0,phase_2,go,300.0,300.0,1.0,,,,,,,,,orange,square
0.0,7.0,2.0,1.0,6.0,0.0,0.0,1.0,1.0,phase_2,stop,300.0,300.0,4.0,,,,,,,,,magenta,circle
0.0,4.0,4.0,0.0,6.0,6.0,690.7346570001209,1.0,1.0,phase_2,go,300.0,350.0,1.0,,,,,,,,,white,triangle
0.0,2.0,1.0,0.0,6.0,6.0,491.5214110001216,1.0,1.0,phase_2,go,300.0,350.0,1.0,,,,,,,,,yellow,cross
0.0,6.0,1.0,1.0,6.0,6.0,388.20892800004,1.0,1.0,phase_2,stop,300.0,350.0,3.0,,,,,,,,,green,I
0.0,6.0,1.0,1.0,5.0,0.0,0.0,1.0,1.0,phase_2,stop,300.0,300.0,4.0,,,,,,,,,green,I
0.0,3.0,2.0,0.0,6.0,6.0,677.8189579999889,1.0,1.0,phase_2,go,350.0,300.0,1.0,,,,,,,,,blue,hexagon
0.0,4.0,4.0,0.0,5.0,5.0,558.2484240003396,1.0,1.0,phase_2,go,350.0,300.0,1.0,,,,,,,,,white,triangle
0.0,3.0,2.0,0.0,5.0,5.0,454.3056920001618,1.0,1.0,phase_2,go,350.0,300.0,1.0,,,,,,,,,blue,hexagon
0.0,3.0,2.0,0.0,6.0,6.0,297.4047580000842,1.0,1.0,phase_2,go,350.0,300.0,1.0,,,,,,,,,blue,hexagon
0.0,5.0,0.5,1.0,6.0,6.0,338.0353640000066,1.0,1.0,phase_2,stop,350.0,300.0,3.0,,,,,,,,,orange,square
0.0,1.0,0.5,0.0,6.0,6.0,502.203376000125,1.0,1.0,phase_2,go,350.0,250.0,1.0,,,,,,,,,cyan,diamond
0.0,3.0,2.0,0.0,6.0,6.0,357.1803920003731,1.0,1.0,phase_2,go,350.0,250.0,1.0,,,,,,,,,blue,hexagon
0.0,8.0,4.0,1.0,6.0,6.0,349.4740119999733,1.0,1.0,phase_2,stop,350.0,250.0,3.0,,,,,,,,,gray,flipped triangle
0.0,7.0,2.0,1.0,5.0,5.0,386.4353730000402,1.0,1.0,phase_2,stop,350.0,200.0,3.0,,,,,,,,,magenta,circle
0.0,3.0,2.0,0.0,5.0,5.0,613.7112549999983,1.0,1.0,phase_2,go,300.0,200.0,1.0,,,,,,,,,blue,hexagon
0.0,8.0,4.0,1.0,5.0,0.0,0.0,1.0,1.0,phase_2,stop,300.0,200.0,4.0,,,,,,,,,gray,flipped triangle
0.0,1.0,0.5,0.0,5.0,5.0,594.2931099998532,1.0,1.0,phase_2,go,350.0,200.0,1.0,,,,,,,,,cyan,diamond
0.0,3.0,2.0,0.0,5.0,5.0,713.8840600000549,1.0,1.0,phase_2,go,350.0,200.0,1.0,,,,,,,,,blue,hexagon
0.0,5.0,0.5,1.0,6.0,0.0,0.0,1.0,1.0,phase_2,stop,350.0,200.0,4.0,,,,,,,,,orange,square
0.0,6.0,1.0,1.0,5.0,0.0,0.0,1.0,1.0,phase_2,stop,350.0,250.0,4.0,,,,,,,,,green,I
0.0,5.0,0.5,1.0,5.0,0.0,0.0,1.0,1.0,phase_2,stop,400.0,250.0,4.0,,,,,,,,,orange,square
0.0,1.0,0.5,0.0,5.0,5.0,706.7726189998211,1.0,1.0,phase_2,go,450.0,250.0,1.0,,,,,,,,,cyan,diamond
0.0,1.0,0.5,0.0,6.0,6.0,400.2247690000331,1.0,1.0,phase_2,go,450.0,250.0,1.0,,,,,,,,,cyan,diamond
0.0,2.0,1.0,0.0,5.0,5.0,325.2868879999369,1.0,1.0,phase_2,go,450.0,250.0,1.0,,,,,,,,,yellow,cross
0.0,8.0,4.0,1.0,6.0,6.0,405.9696330000406,1.0,1.0,phase_2,stop,450.0,250.0,3.0,,,,,,,,,gray,flipped triangle
0.0,4.0,4.0,0.0,5.0,5.0,715.0847039997643,1.0,1.0,phase_2,go,450.0,200.0,1.0,,,,,,,,,white,triangle
0.0,2.0,1.0,0.0,5.0,5.0,560.3331639999851,1.0,1.0,phase_2,go,450.0,200.0,1.0,,,,,,,,,yellow,cross
0.0,2.0,1.0,0.0,5.0,5.0,565.3784070000256,1.0,1.0,phase_2,go,450.0,200.0,1.0,,,,,,,,,yellow,cross
0.0,8.0,4.0,1.0,6.0,6.0,611.7054599999392,1.0,1.0,phase_2,go,450.0,200.0,1.0,,,,,,,,,gray,flipped triangle
0.0,7.0,2.0,1.0,5.0,5.0,409.0678349998597,2.0,1.0,phase_2,stop,450.0,200.0,3.0,,,,,,,,,magenta,circle
0.0,3.0,2.0,0.0,6.0,6.0,362.6654370000324,2.0,1.0,phase_2,go,400.0,200.0,1.0,,,,,,,,,blue,hexagon
0.0,8.0,4.0,1.0,6.0,6.0,346.8437399997128,2.0,1.0,phase_2,stop,400.0,200.0,3.0,,,,,,,,,gray,flipped triangle
0.0,4.0,4.0,0.0,6.0,6.0,490.2112589998069,2.0,1.0,phase_2,go,400.0,150.0,1.0,,,,,,,,,white,triangle
0.0,8.0,4.0,1.0,6.0,6.0,540.5574679998608,2.0,1.0,phase_2,go,400.0,150.0,1.0,,,,,,,,,gray,flipped triangle
0.0,8.0,4.0,1.0,5.0,5.0,520.9844240002894,2.0,1.0,phase_2,stop,400.0,150.0,3.0,,,,,,,,,gray,flipped triangle
0.0,7.0,2.0,1.0,6.0,6.0,574.6771220001392,2.0,1.0,phase_2,go,350.0,150.0,1.0,,,,,,,,,magenta,circle
0.0,2.0,1.0,0.0,6.0,6.0,548.0371039998317,2.0,1.0,phase_2,go,350.0,150.0,1.0,,,,,,,,,yellow,cross
0.0,4.0,4.0,0.0,5.0,5.0,724.8571489999449,2.0,1.0,phase_2,go,350.0,150.0,1.0,,,,,,,,,white,triangle
0.0,7.0,2.0,1.0,5.0,0.0,0.0,2.0,1.0,phase_2,stop,350.0,150.0,4.0,,,,,,,,,magenta,circle
0.0,3.0,2.0,0.0,5.0,5.0,621.7471799996019,2.0,1.0,phase_2,go,400.0,150.0,1.0,,,,,,,,,blue,hexagon
0.0,7.0,2.0,1.0,5.0,5.0,503.31683699960195,2.0,1.0,phase_2,stop,400.0,150.0,3.0,,,,,,,,,magenta,circle
0.0,2.0,1.0,0.0,6.0,6.0,566.6235220000999,2.0,1.0,phase_2,go,350.0,150.0,1.0,,,,,,,,,yellow,cross
0.0,4.0,4.0,0.0,5.0,5.0,568.3282370000597,2.0,1.0,phase_2,go,350.0,150.0,1.0,,,,,,,,,white,triangle
0.0,4.0,4.0,0.0,5.0,5.0,540.258064000227,2.0,1.0,phase_2,go,350.0,150.0,1.0,,,,,,,,,white,triangle
0.0,7.0,2.0,1.0,5.0,1.0,694.8384399997849,2.0,1.0,phase_2,stop,350.0,150.0,3.0,,,,,,,,,magenta,circle
0.0,1.0,0.5,0.0,6.0,6.0,447.6793690000704,2.0,1.0,phase_2,go,300.0,150.0,1.0,,,,,,,,,cyan,diamond
0.0,5.0,0.5,1.0,5.0,0.0,0.0,2.0,1.0,phase_2,stop,300.0,150.0,4.0,,,,,,,,,orange,square
0.0,8.0,4.0,1.0,5.0,0.0,0.0,2.0,1.0,phase_2,stop,350.0,150.0,4.0,,,,,,,,,gray,flipped triangle
0.0,8.0,4.0,1.0,5.0,0.0,0.0,2.0,1.0,phase_2,stop,400.0,150.0,4.0,,,,,,,,,gray,flipped triangle
0.0,3.0,2.0,0.0,6.0,6.0,649.7379209999963,2.0,1.0,phase_2,go,450.0,150.0,1.0,,,,,,,,,blue,hexagon
0.0,1.0,0.5,0.0,5.0,5.0,428.855841999848,2.0,1.0,phase_2,go,450.0,150.0,1.0,,,,,,,,,cyan,diamond
0.0,2.0,1.0,0.0,5.0,5.0,511.97769700002027,2.0,1.0,phase_2,go,450.0,150.0,1.0,,,,,,,,,yellow,cross
0.0,1.0,0.5,0.0,5.0,5.0,574.2382919997908,2.0,1.0,phase_2,go,450.0,150.0,1.0,,,,,,,,,cyan,diamond
0.0,4.0,4.0,0.0,5.0,5.0,456.2431419999484,2.0,1.0,phase_2,go,450.0,150.0,1.0,,,,,,,,,white,triangle
0.0,1.0,0.5,0.0,5.0,5.0,485.1970700001402,2.0,1.0,phase_2,go,450.0,150.0,1.0,,,,,,,,,cyan,diamond
0.0,2.0,1.0,0.0,6.0,6.0,492.5383589998091,2.0,1.0,phase_2,go,450.0,150.0,1.0,,,,,,,,,yellow,cross
0.0,3.0,2.0,0.0,6.0,6.0,380.8990269999412,2.0,1.0,phase_2,go,450.0,150.0,1.0,,,,,,,,,blue,hexagon
0.0,6.0,1.0,1.0,6.0,0.0,0.0,2.0,1.0,phase_2,stop,450.0,150.0,4.0,,,,,,,,,green,I
0.0,5.0,0.5,1.0,6.0,0.0,0.0,2.0,1.0,phase_2,stop,450.0,200.0,4.0,,,,,,,,,orange,square
0.0,8.0,4.0,1.0,6.0,6.0,722.9189929998938,2.0,1.0,phase_2,go,450.0,250.0,1.0,,,,,,,,,gray,flipped triangle
0.0,7.0,2.0,1.0,6.0,0.0,0.0,2.0,1.0,phase_2,stop,450.0,250.0,4.0,,,,,,,,,magenta,circle
0.0,5.0,0.5,1.0,5.0,5.0,677.6785790002577,2.0,1.0,phase_2,go,450.0,300.0,1.0,,,,,,,,,orange,square
0.0,5.0,0.5,1.0,5.0,5.0,547.9024249998474,2.0,1.0,phase_2,stop,450.0,300.0,3.0,,,,,,,,,orange,square
0.0,2.0,1.0,0.0,6.0,6.0,509.8416030000408,2.0,1.0,phase_2,go,400.0,300.0,1.0,,,,,,,,,yellow,cross
0.0,3.0,2.0,0.0,5.0,5.0,426.2178779999885,2.0,1.0,phase_2,go,400.0,300.0,1.0,,,,,,,,,blue,hexagon
0.0,8.0,4.0,1.0,5.0,5.0,487.9417629999807,3.0,1.0,phase_2,stop,400.0,300.0,3.0,,,,,,,,,gray,flipped triangle
0.0,3.0,2.0,0.0,5.0,5.0,472.8406350000114,3.0,1.0,phase_2,go,350.0,300.0,1.0,,,,,,,,,blue,hexagon
0.0,4.0,4.0,0.0,6.0,6.0,576.8400459996883,3.0,1.0,phase_2,go,350.0,300.0,1.0,,,,,,,,,white,triangle
0.0,3.0,2.0,0.0,6.0,6.0,372.1535760000733,3.0,1.0,phase_2,go,350.0,300.0,1.0,,,,,,,,,blue,hexagon
0.0,6.0,1.0,1.0,5.0,0.0,0.0,3.0,1.0,phase_2,stop,350.0,300.0,4.0,,,,,,,,,green,I
0.0,6.0,1.0,1.0,5.0,5.0,594.4871680003416,3.0,1.0,phase_2,go,400.0,300.0,1.0,,,,,,,,,green,I
0.0,5.0,0.5,1.0,6.0,6.0,384.6443060001547,3.0,1.0,phase_2,stop,400.0,300.0,3.0,,,,,,,,,orange,square
0.0,4.0,4.0,0.0,5.0,5.0,409.7042200000942,3.0,1.0,phase_2,go,400.0,250.0,1.0,,,,,,,,,white,triangle
0.0,5.0,0.5,1.0,5.0,0.0,0.0,3.0,1.0,phase_2,stop,400.0,250.0,4.0,,,,,,,,,orange,square
0.0,8.0,4.0,1.0,5.0,0.0,0.0,3.0,1.0,phase_2,stop,450.0,250.0,4.0,,,,,,,,,gray,flipped triangle
0.0,5.0,0.5,1.0,6.0,0.0,0.0,3.0,1.0,phase_2,stop,500.0,250.0,4.0,,,,,,,,,orange,square
0.0,3.0,2.0,0.0,5.0,5.0,612.0808480000051,3.0,1.0,phase_2,go,500.0,300.0,1.0,,,,,,,,,blue,hexagon
0.0,1.0,0.5,0.0,6.0,6.0,659.8312290002468,3.0,1.0,phase_2,go,500.0,300.0,1.0,,,,,,,,,cyan,diamond
0.0,6.0,1.0,1.0,5.0,5.0,600.5852789999153,3.0,1.0,phase_2,stop,500.0,300.0,3.0,,,,,,,,,green,I
0.0,1.0,0.5,0.0,6.0,6.0,510.2779709995957,3.0,1.0,phase_2,go,450.0,300.0,1.0,,,,,,,,,cyan,diamond
0.0,8.0,4.0,1.0,5.0,5.0,251.83304399979528,3.0,1.0,phase_2,stop,450.0,300.0,3.0,,,,,,,,,gray,flipped triangle
0.0,4.0,4.0,0.0,6.0,6.0,401.7943140001989,3.0,1.0,phase_2,go,400.0,300.0,1.0,,,,,,,,,white,triangle
0.0,5.0,0.5,1.0,5.0,5.0,443.9353949996985,3.0,1.0,phase_2,stop,400.0,300.0,3.0,,,,,,,,,orange,square
0.0,3.0,2.0,0.0,5.0,5.0,687.3483969998233,3.0,1.0,phase_2,go,350.0,300.0,1.0,,,,,,,,,blue,hexagon
0.0,6.0,1.0,1.0,5.0,0.0,0.0,3.0,1.0,phase_2,stop,350.0,300.0,4.0,,,,,,,,,green,I
0.0,2.0,1.0,0.0,5.0,5.0,623.9820840000903,3.0,1.0,phase_2,go,400.0,300.0,1.0,,,,,,,,,yellow,cross
0.0,5.0,0.5,1.0,5.0,5.0,583.8595490004082,3.0,1.0,phase_2,stop,400.0,300.0,3.0,,,,,,,,,orange,square
0.0,4.0,4.0,0.0,6.0,6.0,631.8261819997133,3.0,1.0,phase_2,go,350.0,300.0,1.0,,,,,,,,,white,triangle
0.0,5.0,0.5,1.0,5.0,0.0,0.0,3.0,1.0,phase_2,stop,350.0,300.0,4.0,,,,,,,,,orange,square
0.0,4.0,4.0,0.0,6.0,6.0,774.8926549998032,3.0,1.0,phase_2,go,400.0,300.0,1.0,,,,,,,,,white,triangle
0.0,5.0,0.5,1.0,6.0,0.0,0.0,3.0,1.0,phase_2,stop,400.0,300.0,4.0,,,,,,,,,orange,square
0.0,4.0,4.0,0.0,5.0,5.0,565.5304789997899,3.0,1.0,phase_2,go,400.0,350.0,1.0,,,,,,,,,white,triangle
0.0,2.0,1.0,0.0,6.0,6.0,325.4387990000396,3.0,1.0,phase_2,go,400.0,350.0,1.0,,,,,,,,,yellow,cross
0.0,7.0,2.0,1.0,6.0,0.0,0.0,3.0,1.0,phase_2,stop,400.0,350.0,4.0,,,,,,,,,magenta,circle
0.0,7.0,2.0,1.0,5.0,5.0,566.837647000284,3.0,1.0,phase_2,go,400.0,400.0,1.0,,,,,,,,,magenta,circle
0.0,5.0,0.5,1.0,6.0,6.0,506.34248400001525,3.0,1.0,phase_2,stop,400.0,400.0,3.0,,,,,,,,,orange,square
0.0,1.0,0.5,0.0,5.0,5.0,278.0072289997406,3.0,1.0,phase_2,go,400.0,350.0,1.0,,,,,,,,,cyan,diamond
0.0,1.0,0.5,0.0,6.0,6.0,296.4299650002431,3.0,1.0,phase_2,go,400.0,350.0,1.0,,,,,,,,,cyan,diamond
0.0,8.0,4.0,1.0,5.0,5.0,307.6720160001969,3.0,1.0,phase_2,stop,400.0,350.0,3.0,,,,,,,,,gray,flipped triangle
0.0,7.0,2.0,1.0,6.0,6.0,335.2124470002309,3.0,1.0,phase_2,go,350.0,350.0,1.0,,,,,,,,,magenta,circle
0.0,2.0,1.0,0.0,5.0,5.0,274.021649000133,3.0,1.0,phase_2,go,350.0,350.0,1.0,,,,,,,,,yellow,cross
0.0,2.0,1.0,0.0,6.0,6.0,936.882647999937,4.0,1.0,phase_2,go,350.0,350.0,1.0,,,,,,,,,yellow,cross
0.0,2.0,1.0,0.0,5.0,5.0,352.9466639997736,4.0,1.0,phase_2,go,350.0,350.0,1.0,,,,,,,,,yellow,cross
0.0,4.0,4.0,0.0,5.0,5.0,307.7153769995675,4.0,1.0,phase_2,go,350.0,350.0,1.0,,,,,,,,,white,triangle
0.0,8.0,4.0,1.0,6.0,6.0,307.8602259997751,4.0,1.0,phase_2,stop,350.0,350.0,3.0,,,,,,,,,gray,flipped triangle
0.0,5.0,0.5,1.0,6.0,6.0,342.9075789999842,4.0,1.0,phase_2,stop,350.0,300.0,3.0,,,,,,,,,orange,square
0.0,3.0,2.0,0.0,5.0,5.0,372.9578340003172,4.0,1.0,phase_2,go,350.0,250.0,1.0,,,,,,,,,blue,hexagon
0.0,4.0,4.0,0.0,5.0,5.0,324.9224090000098,4.0,1.0,phase_2,go,350.0,250.0,1.0,,,,,,,,,white,triangle
0.0,8.0,4.0,1.0,5.0,5.0,327.3422219999702,4.0,1.0,phase_2,stop,350.0,250.0,3.0,,,,,,,,,gray,flipped triangle
0.0,6.0,1.0,1.0,6.0,6.0,288.266257000032,4.0,1.0,phase_2,stop,300.0,250.0,3.0,,,,,,,,,green,I
0.0,2.0,1.0,0.0,5.0,5.0,287.7669910003533,4.0,1.0,phase_2,go,300.0,200.0,1.0,,,,,,,,,yellow,cross
0.0,7.0,2.0,1.0,6.0,6.0,296.3793740000255,4.0,1.0,phase_2,go,300.0,200.0,1.0,,,,,,,,,magenta,circle
0.0,1.0,0.5,0.0,6.0,6.0,373.9457790002234,4.0,1.0,phase_2,go,300.0,200.0,1.0,,,,,,,,,cyan,diamond
0.0,3.0,2.0,0.0,5.0,5.0,325.5570419996729,4.0,1.0,phase_2,go,300.0,200.0,1.0,,,,,,,,,blue,hexagon
0.0,2.0,1.0,0.0,6.0,6.0,278.6784830000215,4.0,1.0,phase_2,go,300.0,200.0,1.0,,,,,,,,,yellow,cross
0.0,6.0,1.0,1.0,6.0,6.0,352.2552350000296,4.0,1.0,phase_2,go,300.0,200.0,1.0,,,,,,,,,green,I
0.0,6.0,1.0,1.0,6.0,6.0,379.9756070002331,4.0,1.0,phase_2,stop,300.0,200.0,3.0,,,,,,,,,green,I
0.0,7.0,2.0,1.0,6.0,6.0,447.4032779999106,4.0,1.0,phase_2,go,300.0,150.0,1.0,,,,,,,,,magenta,circle
0.0,1.0,0.5,0.0,6.0,6.0,446.9872229997236,4.0,1.0,phase_2,go,300.0,150.0,1.0,,,,,,,,,cyan,diamond
0.0,4.0,4.0,0.0,5.0,5.0,566.8584610002654,4.0,1.0,phase_2,go,300.0,150.0,1.0,,,,,,,,,white,triangle
0.0,1.0,0.5,0.0,6.0,6.0,622.2894939996877,4.0,1.0,phase_2,go,300.0,150.0,1.0,,,,,,,,,cyan,diamond
0.0,8.0,4.0,1.0,6.0,0.0,0.0,4.0,1.0,phase_2,stop,300.0,150.0,4.0,,,,,,,,,gray,flipped triangle
0.0,2.0,1.0,0.0,6.0,6.0,604.4056069999897,4.0,1.0,phase_2,go,300.0,200.0,1.0,,,,,,,,,yellow,cross
0.0,3.0,2.0,0.0,5.0,5.0,410.1578410000002,4.0,1.0,phase_2,go,300.0,200.0,1.0,,,,,,,,,blue,hexagon
0.0,2.0,1.0,0.0,5.0,5.0,482.6103030000013,4.0,1.0,phase_2,go,300.0,200.0,1.0,,,,,,,,,yellow,cross
0.0,8.0,4.0,1.0,6.0,6.0,327.341965999949,4.0,1.0,phase_2,stop,300.0,200.0,3.0,,,,,,,,,gray,flipped triangle
0.0,1.0,0.5,0.0,5.0,5.0,325.3973850000875,4.0,1.0,phase_2,go,300.0,150.0,1.0,,,,,,,,,cyan,diamond
0.0,7.0,2.0,1.0,6.0,6.0,290.9206049998829,4.0,1.0,phase_2,stop,300.0,150.0,3.0,,,,,,,,,magenta,circle
0.0,3.0,2.0,0.0,5.0,5.0,278.7019810002675,4.0,1.0,phase_2,go,300.0,100.0,1.0,,,,,,,,,blue,hexagon
0.0,1.0,0.5,0.0,5.0,5.0,409.5823510001537,4.0,1.0,phase_2,go,300.0,100.0,1.0,,,,,,,,,cyan,diamond
0.0,2.0,1.0,0.0,6.0,6.0,354.1280050003479,4.0,1.0,phase_2,go,300.0,100.0,1.0,,,,,,,,,yellow,cross
0.0,7.0,2.0,1.0,5.0,5.0,459.7364230003222,4.0,1.0,phase_2,stop,300.0,100.0,3.0,,,,,,,,,magenta,circle
0.0,6.0,1.0,1.0,5.0,5.0,501.44641699989734,4.0,1.0,phase_2,go,250.0,100.0,1.0,,,,,,,,,green,I
0.0,6.0,1.0,1.0,6.0,6.0,530.6553669997811,4.0,1.0,phase_2,go,250.0,100.0,1.0,,,,,,,,,green,I
0.0,6.0,1.0,1.0,6.0,0.0,0.0,4.0,1.0,phase_2,stop,250.0,100.0,4.0,,,,,,,,,green,I
0.0,7.0,2.0,1.0,5.0,0.0,0.0,4.0,1.0,phase_2,stop,250.0,150.0,4.0,,,,,,,,,magenta,circle
0.0,2.0,1.0,0.0,5.0,5.0,596.1642819997905,4.0,1.0,phase_2,go,300.0,150.0,1.0,,,,,,,,,yellow,cross
0.0,6.0,1.0,1.0,5.0,5.0,762.4477050003406,5.0,1.0,phase_2,stop,300.0,150.0,3.0,,,,,,,,,green,I
0.0,5.0,0.5,1.0,5.0,5.0,603.1784810002137,5.0,1.0,phase_2,go,250.0,150.0,1.0,,,,,,,,,orange,square
0.0,7.0,2.0,1.0,6.0,6.0,349.6844920000512,5.0,1.0,phase_2,stop,250.0,150.0,3.0,,,,,,,,,magenta,circle
0.0,2.0,1.0,0.0,6.0,6.0,567.6332660000298,5.0,1.0,phase_2,go,250.0,100.0,1.0,,,,,,,,,yellow,cross
0.0,3.0,2.0,0.0,6.0,6.0,724.8217289998138,5.0,1.0,phase_2,go,250.0,100.0,1.0,,,,,,,,,blue,hexagon
0.0,4.0,4.0,0.0,6.0,6.0,579.0305360001184,5.0,1.0,phase_2,go,250.0,100.0,1.0,,,,,,,,,white,triangle
0.0,7.0,2.0,1.0,6.0,0.0,0.0,5.0,1.0,phase_2,stop,250.0,100.0,4.0,,,,,,,,,magenta,circle
0.0,5.0,0.5,1.0,5.0,0.0,0.0,5.0,1.0,phase_2,stop,250.0,150.0,4.0,,,,,,,,,orange,square
0.0,3.0,2.0,0.0,6.0,6.0,621.2820329997157,5.0,1.0,phase_2,go,300.0,150.0,1.0,,,,,,,,,blue,hexagon
0.0,4.0,4.0,0.0,5.0,5.0,597.181768000155,5.0,1.0,phase_2,go,300.0,150.0,1.0,,,,,,,,,white,triangle
0.0,6.0,1.0,1.0,6.0,0.0,0.0,5.0,1.0,phase_2,stop,300.0,150.0,4.0,,,,,,,,,green,I
0.0,1.0,0.5,0.0,6.0,6.0,540.2064569998402,5.0,1.0,phase_2,go,300.0,200.0,1.0,,,,,,,,,cyan,diamond
0.0,5.0,0.5,1.0,6.0,0.0,0.0,5.0,1.0,phase_2,stop,300.0,200.0,4.0,,,,,,,,,orange,square
0.0,6.0,1.0,1.0,5.0,5.0,452.5951750001695,5.0,1.0,phase_2,stop,300.0,250.0,3.0,,,,,,,,,green,I
0.0,3.0,2.0,0.0,5.0,5.0,611.8215740002597,5.0,1.0,phase_2,go,250.0,250.0,1.0,,,,,,,,,blue,hexagon
0.0,8.0,4.0,1.0,5.0,0.0,0.0,5.0,1.0,phase_2,stop,250.0,250.0,4.0,,,,,,,,,gray,flipped triangle
0.0,4.0,4.0,0.0,5.0,5.0,567.3436209999636,5.0,1.0,phase_2,go,300.0,250.0,1.0,,,,,,,,,white,triangle
0.0,4.0,4.0,0.0,6.0,6.0,559.3554110000696,5.0,1.0,phase_2,go,300.0,250.0,1.0,,,,,,,,,white,triangle
0.0,5.0,0.5,1.0,5.0,0.0,0.0,5.0,1.0,phase_2,stop,300.0,250.0,4.0,,,,,,,,,orange,square
0.0,5.0,0.5,1.0,5.0,5.0,547.6525359999869,5.0,1.0,phase_2,go,350.0,250.0,1.0,,,,,,,,,orange,square
0.0,7.0,2.0,1.0,6.0,0.0,0.0,5.0,1.0,phase_2,stop,350.0,250.0,4.0,,,,,,,,,magenta,circle
0.0,4.0,4.0,0.0,5.0,5.0,539.4147290003275,5.0,1.0,phase_2,go,350.0,300.0,1.0,,,,,,,,,white,triangle
0.0,3.0,2.0,0.0,6.0,6.0,447.655763000057,5.0,1.0,phase_2,go,350.0,300.0,1.0,,,,,,,,,blue,hexagon
0.0,8.0,4.0,1.0,6.0,6.0,550.7134270001188,5.0,1.0,phase_2,go,350.0,300.0,1.0,,,,,,,,,gray,flipped triangle
0.0,5.0,0.5,1.0,5.0,0.0,0.0,5.0,1.0,phase_2,stop,350.0,300.0,4.0,,,,,,,,,orange,square
0.0,8.0,4.0,1.0,5.0,5.0,463.6809690000518,5.0,1.0,phase_2,stop,400.0,300.0,3.0,,,,,,,,,gray,flipped triangle
0.0,8.0,4.0,1.0,5.0,0.0,0.0,5.0,1.0,phase_2,stop,350.0,300.0,4.0,,,,,,,,,gray,flipped triangle
0.0,3.0,2.0,0.0,5.0,5.0,698.5075990000951,5.0,1.0,phase_2,go,400.0,300.0,1.0,,,,,,,,,blue,hexagon
0.0,6.0,1.0,1.0,5.0,5.0,352.9385349997938,5.0,1.0,phase_2,go,400.0,300.0,1.0,,,,,,,,,green,I
0.0,5.0,0.5,1.0,6.0,0.0,0.0,5.0,1.0,phase_2,stop,400.0,300.0,4.0,,,,,,,,,orange,square
0.0,7.0,2.0,1.0,5.0,5.0,540.1575460000458,5.0,1.0,phase_2,go,400.0,350.0,1.0,,,,,,,,,magenta,circle
0.0,1.0,0.5,0.0,5.0,5.0,622.1124730000156,5.0,1.0,phase_2,go,400.0,350.0,1.0,,,,,,,,,cyan,diamond
0.0,3.0,2.0,0.0,6.0,6.0,548.3626820000609,5.0,1.0,phase_2,go,400.0,350.0,1.0,,,,,,,,,blue,hexagon
0.0,6.0,1.0,1.0,6.0,6.0,502.90545899997596,5.0,1.0,phase_2,go,400.0,350.0,1.0,,,,,,,,,green,I
0.0,5.0,0.5,1.0,6.0,6.0,479.2471709997699,5.0,1.0,phase_2,stop,400.0,350.0,3.0,,,,,,,,,orange,square
0.0,7.0,2.0,1.0,5.0,5.0,483.6216419998891,5.0,1.0,phase_2,stop,400.0,300.0,3.0,,,,,,,,,magenta,circle
0.0,3.0,2.0,0.0,5.0,5.0,372.2528980001698,6.0,1.0,phase_2,go,350.0,300.0,1.0,,,,,,,,,blue,hexagon
0.0,2.0,1.0,0.0,5.0,5.0,455.2818300003309,6.0,1.0,phase_2,go,350.0,300.0,1.0,,,,,,,,,yellow,cross
0.0,8.0,4.0,1.0,6.0,6.0,347.8824789999635,6.0,1.0,phase_2,stop,350.0,300.0,3.0,,,,,,,,,gray,flipped triangle
0.0,2.0,1.0,0.0,5.0,5.0,435.7658720000472,6.0,1.0,phase_2,go,350.0,250.0,1.0,,,,,,,,,yellow,cross
0.0,3.0,2.0,0.0,6.0,6.0,352.8760140002305,6.0,1.0,phase_2,go,350.0,250.0,1.0,,,,,,,,,blue,hexagon
0.0,2.0,1.0,0.0,5.0,5.0,288.9666880000732,6.0,1.0,phase_2,go,350.0,250.0,1.0,,,,,,,,,yellow,cross
0.0,1.0,0.5,0.0,5.0,5.0,558.3255170004122,6.0,1.0,phase_2,go,350.0,250.0,1.0,,,,,,,,,cyan,diamond
0.0,5.0,0.5,1.0,6.0,6.0,285.2526789997682,6.0,1.0,phase_2,stop,350.0,250.0,3.0,,,,,,,,,orange,square
0.0,6.0,1.0,1.0,5.0,5.0,461.7125500003567,6.0,1.0,phase_2,stop,350.0,200.0,3.0,,,,,,,,,green,I
0.0,2.0,1.0,0.0,6.0,6.0,409.1463139998268,6.0,1.0,phase_2,go,300.0,200.0,1.0,,,,,,,,,yellow,cross
0.0,8.0,4.0,1.0,5.0,5.0,341.3828809998449,6.0,1.0,phase_2,stop,300.0,200.0,3.0,,,,,,,,,gray,flipped triangle
0.0,1.0,0.5,0.0,5.0,5.0,353.8212629996451,6.0,1.0,phase_2,go,250.0,200.0,1.0,,,,,,,,,cyan,diamond
0.0,4.0,4.0,0.0,6.0,6.0,372.5910799998928,6.0,1.0,phase_2,go,250.0,200.0,1.0,,,,,,,,,white,triangle
0.0,1.0,0.5,0.0,5.0,5.0,289.5738389997859,6.0,1.0,phase_2,go,250.0,200.0,1.0,,,,,,,,,cyan,diamond
0.0,4.0,4.0,0.0,5.0,5.0,343.4959390001495,6.0,1.0,phase_2,go,250.0,200.0,1.0,,,,,,,,,white,triangle
0.0,8.0,4.0,1.0,6.0,6.0,298.6316609999448,6.0,1.0,phase_2,go,250.0,200.0,1.0,,,,,,,,,gray,flipped triangle
0.0,7.0,2.0,1.0,6.0,6.0,353.4843430002183,6.0,1.0,phase_2,go,250.0,200.0,1.0,,,,,,,,,magenta,circle
0.0,1.0,0.5,0.0,5.0,5.0,381.0828150003544,6.0,1.0,phase_2,go,250.0,200.0,1.0,,,,,,,,,cyan,diamond
0.0,1.0,0.5,0.0,6.0,6.0,279.0338790000533,6.0,1.0,phase_2,go,250.0,200.0,1.0,,,,,,,,,cyan,diamond
0.0,8.0,4.0,1.0,6.0,0.0,0.0,6.0,1.0,phase_2,stop,250.0,200.0,4.0,,,,,,,,,gray,flipped triangle
0.0,5.0,0.5,1.0,5.0,5.0,652.1468749997439,6.0,1.0,phase_2,go,250.0,250.0,1.0,,,,,,,,,orange,square
0.0,1.0,0.5,0.0,5.0,5.0,586.9751440000073,6.0,1.0,phase_2,go,250.0,250.0,1.0,,,,,,,,,cyan,diamond
0.0,4.0,4.0,0.0,6.0,6.0,473.5528679998424,6.0,1.0,phase_2,go,250.0,250.0,1.0,,,,,,,,,white,triangle
0.0,3.0,2.0,0.0,6.0,6.0,389.2092539999794,6.0,1.0,phase_2,go,250.0,250.0,1.0,,,,,,,,,blue,hexagon
0.0,4.0,4.0,0.0,6.0,6.0,511.3157330001741,6.0,1.0,phase_2,go,250.0,250.0,1.0,,,,,,,,,white,triangle
0.0,5.0,0.5,1.0,5.0,0.0,0.0,6.0,1.0,phase_2,stop,250.0,250.0,4.0,,,,,,,,,orange,square
0.0,2.0,1.0,0.0,6.0,6.0,568.9673380002205,6.0,1.0,phase_2,go,300.0,250.0,1.0,,,,,,,,,yellow,cross
0.0,1.0,0.5,0.0,6.0,6.0,512.0385889999852,6.0,1.0,phase_2,go,300.0,250.0,1.0,,,,,,,,,cyan,diamond
0.0,6.0,1.0,1.0,6.0,6.0,550.8733080000638,6.0,1.0,phase_2,go,300.0,250.0,1.0,,,,,,,,,green,I
0.0,7.0,2.0,1.0,5.0,0.0,0.0,6.0,1.0,phase_2,stop,300.0,250.0,4.0,,,,,,,,,magenta,circle
0.0,7.0,2.0,1.0,6.0,0.0,0.0,6.0,1.0,phase_2,stop,350.0,250.0,4.0,,,,,,,,,magenta,circle
0.0,7.0,2.0,1.0,6.0,6.0,566.3241749998633,6.0,1.0,phase_2,go,350.0,300.0,1.0,,,,,,,,,magenta,circle
0.0,3.0,2.0,0.0,6.0,6.0,640.8396269998775,6.0,1.0,phase_2,go,350.0,300.0,1.0,,,,,,,,,blue,hexagon
0.0,5.0,0.5,1.0,5.0,5.0,538.2893099999819,6.0,1.0,phase_2,stop,350.0,300.0,3.0,,,,,,,,,orange,square
0.0,4.0,4.0,0.0,6.0,6.0,567.9370940001718,6.0,1.0,phase_2,go,300.0,300.0,1.0,,,,,,,,,white,triangle
0.0,5.0,0.5,1.0,5.0,0.0,0.0,6.0,1.0,phase_2,stop,300.0,300.0,4.0,,,,,,,,,orange,square
0.0,6.0,1.0,1.0,5.0,5.0,269.191394000245,7.0,1.0,phase_2,stop,350.0,300.0,3.0,,,,,,,,,green,I
0.0,1.0,0.5,0.0,6.0,6.0,278.5680020001564,7.0,1.0,phase_2,go,300.0,300.0,1.0,,,,,,,,,cyan,diamond
0.0,7.0,2.0,1.0,6.0,6.0,411.0330490002525,7.0,1.0,phase_2,stop,300.0,300.0,3.0,,,,,,,,,magenta,circle
0.0,1.0,0.5,0.0,5.0,5.0,594.5241760000499,7.0,1.0,phase_2,go,300.0,250.0,1.0,,,,,,,,,cyan,diamond
0.0,7.0,2.0,1.0,5.0,0.0,0.0,7.0,1.0,phase_2,stop,300.0,250.0,4.0,,,,,,,,,magenta,circle
0.0,6.0,1.0,1.0,6.0,6.0,622.9162009999527,7.0,1.0,phase_2,go,350.0,250.0,1.0,,,,,,,,,green,I
0.0,7.0,2.0,1.0,5.0,5.0,472.6235500002076,7.0,1.0,phase_2,stop,350.0,250.0,3.0,,,,,,,,,magenta,circle
0.0,5.0,0.5,1.0,6.0,6.0,278.1442880000213,7.0,1.0,phase_2,go,300.0,250.0,1.0,,,,,,,,,orange,square
0.0,7.0,2.0,1.0,5.0,5.0,381.608228999994,7.0,1.0,phase_2,stop,300.0,250.0,3.0,,,,,,,,,magenta,circle
0.0,2.0,1.0,0.0,5.0,5.0,381.7685019998862,7.0,1.0,phase_2,go,250.0,250.0,1.0,,,,,,,,,yellow,cross
0.0,4.0,4.0,0.0,5.0,5.0,509.7911119996752,7.0,1.0,phase_2,go,250.0,250.0,1.0,,,,,,,,,white,triangle
0.0,3.0,2.0,0.0,6.0,6.0,335.8004070000788,7.0,1.0,phase_2,go,250.0,250.0,1.0,,,,,,,,,blue,hexagon
0.0,7.0,2.0,1.0,6.0,6.0,493.1864499999392,7.0,1.0,phase_2,go,250.0,250.0,1.0,,,,,,,,,magenta,circle
0.0,1.0,0.5,0.0,6.0,6.0,419.1316060000645,7.0,1.0,phase_2,go,250.0,250.0,1.0,,,,,,,,,cyan,diamond
0.0,6.0,1.0,1.0,6.0,6.0,343.9090749998286,7.0,1.0,phase_2,stop,250.0,250.0,3.0,,,,,,,,,green,I
0.0,8.0,4.0,1.0,6.0,6.0,336.1195749998842,7.0,1.0,phase_2,stop,250.0,200.0,3.0,,,,,,,,,gray,flipped triangle
0.0,6.0,1.0,1.0,6.0,0.0,0.0,7.0,1.0,phase_2,stop,250.0,150.0,4.0,,,,,,,,,green,I
0.0,1.0,0.5,0.0,6.0,6.0,633.6797870003466,7.0,1.0,phase_2,go,250.0,200.0,1.0,,,,,,,,,cyan,diamond
0.0,6.0,1.0,1.0,5.0,0.0,0.0,7.0,1.0,phase_2,stop,250.0,200.0,4.0,,,,,,,,,green,I
0.0,7.0,2.0,1.0,5.0,0.0,0.0,7.0,1.0,phase_2,stop,300.0,200.0,4.0,,,,,,,,,magenta,circle
0.0,6.0,1.0,1.0,6.0,0.0,0.0,7.0,1.0,phase_2,stop,350.0,200.0,4.0,,,,,,,,,green,I
0.0,4.0,4.0,0.0,6.0,6.0,641.0204670000894,7.0,1.0,phase_2,go,350.0,250.0,1.0,,,,,,,,,white,triangle
0.0,5.0,0.5,1.0,6.0,6.0,558.7868590000653,7.0,1.0,phase_2,go,350.0,250.0,1.0,,,,,,,,,orange,square
0.0,3.0,2.0,0.0,6.0,6.0,465.7636090000778,7.0,1.0,phase_2,go,350.0,250.0,1.0,,,,,,,,,blue,hexagon
0.0,1.0,0.5,0.0,6.0,6.0,427.046610999696,7.0,1.0,phase_2,go,350.0,250.0,1.0,,,,,,,,,cyan,diamond
0.0,8.0,4.0,1.0,5.0,5.0,483.5525080002298,7.0,1.0,phase_2,go,350.0,250.0,1.0,,,,,,,,,gray,flipped triangle
0.0,5.0,0.5,1.0,6.0,6.0,357.2874179999417,7.0,1.0,phase_2,stop,350.0,250.0,3.0,,,,,,,,,orange,square
0.0,8.0,4.0,1.0,6.0,6.0,380.7466520001981,7.0,1.0,phase_2,go,350.0,200.0,1.0,,,,,,,,,gray,flipped triangle
0.0,4.0,4.0,0.0,5.0,5.0,547.9050049998477,7.0,1.0,phase_2,go,350.0,200.0,1.0,,,,,,,,,white,triangle
0.0,6.0,1.0,1.0,6.0,0.0,0.0,7.0,1.0,phase_2,stop,350.0,200.0,4.0,,,,,,,,,green,I
0.0,7.0,2.0,1.0,6.0,0.0,0.0,7.0,1.0,phase_2,stop,350.0,250.0,4.0,,,,,,,,,magenta,circle
0.0,2.0,1.0,0.0,5.0,5.0,566.317175000222,7.0,1.0,phase_2,go,350.0,300.0,1.0,,,,,,,,,yellow,cross
0.0,7.0,2.0,1.0,5.0,5.0,515.9096160000445,7.0,1.0,phase_2,stop,350.0,300.0,3.0,,,,,,,,,magenta,circle
0.0,3.0,2.0,0.0,5.0,5.0,518.4013869998125,7.0,1.0,phase_2,go,300.0,300.0,1.0,,,,,,,,,blue,hexagon
0.0,7.0,2.0,1.0,5.0,0.0,0.0,7.0,1.0,phase_2,stop,300.0,300.0,4.0,,,,,,,,,magenta,circle
0.0,6.0,1.0,1.0,5.0,0.0,0.0,7.0,1.0,phase_2,stop,350.0,300.0,4.0,,,,,,,,,green,I
0.0,2.0,1.0,0.0,5.0,5.0,809.0791919998992,8.0,1.0,phase_2,go,400.0,300.0,1.0,,,,,,,,,yellow,cross
0.0,4.0,4.0,0.0,5.0,5.0,417.8383569997095,8.0,1.0,phase_2,go,400.0,300.0,1.0,,,,,,,,,white,triangle
0.0,3.0,2.0,0.0,5.0,5.0,494.6790169997257,8.0,1.0,phase_2,go,400.0,300.0,1.0,,,,,,,,,blue,hexagon
0.0,4.0,4.0,0.0,6.0,6.0,511.0538090002592,8.0,1.0,phase_2,go,400.0,300.0,1.0,,,,,,,,,white,triangle
0.0,8.0,4.0,1.0,6.0,6.0,389.7838820003017,8.0,1.0,phase_2,go,400.0,300.0,1.0,,,,,,,,,gray,flipped triangle
0.0,2.0,1.0,0.0,5.0,5.0,484.4281360001332,8.0,1.0,phase_2,go,400.0,300.0,1.0,,,,,,,,,yellow,cross
0.0,6.0,1.0,1.0,5.0,5.0,492.5025180000375,8.0,1.0,phase_2,stop,400.0,300.0,3.0,,,,,,,,,green,I
0.0,8.0,4.0,1.0,6.0,6.0,379.3458260001898,8.0,1.0,phase_2,go,350.0,300.0,1.0,,,,,,,,,gray,flipped triangle
0.0,5.0,0.5,1.0,6.0,6.0,521.0088139997424,8.0,1.0,phase_2,go,350.0,300.0,1.0,,,,,,,,,orange,square
0.0,2.0,1.0,0.0,6.0,6.0,614.0413060002174,8.0,1.0,phase_2,go,350.0,300.0,1.0,,,,,,,,,yellow,cross
0.0,1.0,0.5,0.0,5.0,5.0,481.4101169999958,8.0,1.0,phase_2,go,350.0,300.0,1.0,,,,,,,,,cyan,diamond
0.0,1.0,0.5,0.0,6.0,6.0,493.4775300002911,8.0,1.0,phase_2,go,350.0,300.0,1.0,,,,,,,,,cyan,diamond
0.0,6.0,1.0,1.0,5.0,0.0,0.0,8.0,1.0,phase_2,stop,350.0,300.0,4.0,,,,,,,,,green,I
0.0,6.0,1.0,1.0,5.0,0.0,0.0,8.0,1.0,phase_2,stop,400.0,300.0,4.0,,,,,,,,,green,I
0.0,4.0,4.0,0.0,6.0,6.0,548.672162999992,8.0,1.0,phase_2,go,450.0,300.0,1.0,,,,,,,,,white,triangle
0.0,4.0,4.0,0.0,6.0,6.0,391.2347209998188,8.0,1.0,phase_2,go,450.0,300.0,1.0,,,,,,,,,white,triangle
0.0,7.0,2.0,1.0,6.0,0.0,0.0,8.0,1.0,phase_2,stop,450.0,300.0,4.0,,,,,,,,,magenta,circle
0.0,1.0,0.5,0.0,5.0,5.0,418.4232170000541,8.0,1.0,phase_2,go,450.0,350.0,1.0,,,,,,,,,cyan,diamond
0.0,2.0,1.0,0.0,6.0,6.0,565.429469999799,8.0,1.0,phase_2,go,450.0,350.0,1.0,,,,,,,,,yellow,cross
0.0,2.0,1.0,0.0,6.0,6.0,528.2270459997562,8.0,1.0,phase_2,go,450.0,350.0,1.0,,,,,,,,,yellow,cross
0.0,3.0,2.0,0.0,6.0,6.0,399.6398730000692,8.0,1.0,phase_2,go,450.0,350.0,1.0,,,,,,,,,blue,hexagon
0.0,3.0,2.0,0.0,5.0,5.0,575.4724270000224,8.0,1.0,phase_2,go,450.0,350.0,1.0,,,,,,,,,blue,hexagon
0.0,8.0,4.0,1.0,6.0,6.0,380.2283370000623,8.0,1.0,phase_2,stop,450.0,350.0,3.0,,,,,,,,,gray,flipped triangle
0.0,7.0,2.0,1.0,5.0,5.0,488.4265280002182,8.0,1.0,phase_2,stop,450.0,300.0,3.0,,,,,,,,,magenta,circle
0.0,2.0,1.0,0.0,5.0,5.0,575.8763949997956,8.0,1.0,phase_2,go,400.0,300.0,1.0,,,,,,,,,yellow,cross
0.0,1.0,0.5,0.0,5.0,5.0,567.6236880003671,8.0,1.0,phase_2,go,400.0,300.0,1.0,,,,,,,,,cyan,diamond
0.0,5.0,0.5,1.0,6.0,6.0,278.6022919999595,8.0,1.0,phase_2,go,400.0,300.0,1.0,,,,,,,,,orange,square
0.0,4.0,4.0,0.0,6.0,6.0,445.3564640002696,8.0,1.0,phase_2,go,400.0,300.0,1.0,,,,,,,,,white,triangle
0.0,6.0,1.0,1.0,6.0,6.0,386.7068220001783,8.0,1.0,phase_2,stop,400.0,300.0,3.0,,,,,,,,,green,I
0.0,6.0,1.0,1.0,5.0,5.0,444.0599089998613,8.0,1.0,phase_2,stop,400.0,250.0,3.0,,,,,,,,,green,I
0.0,2.0,1.0,0.0,6.0,6.0,372.4008570002297,8.0,1.0,phase_2,go,350.0,250.0,1.0,,,,,,,,,yellow,cross
0.0,2.0,1.0,0.0,6.0,6.0,379.7921780001161,8.0,1.0,phase_2,go,350.0,250.0,1.0,,,,,,,,,yellow,cross
0.0,4.0,4.0,0.0,6.0,6.0,371.0463200000049,8.0,1.0,phase_2,go,350.0,250.0,1.0,,,,,,,,,white,triangle
0.0,8.0,4.0,1.0,5.0,5.0,390.1810659999682,8.0,1.0,phase_2,stop,350.0,250.0,3.0,,,,,,,,,gray,flipped triangle
0.0,1.0,0.5,0.0,6.0,6.0,436.0524319999967,8.0,1.0,phase_2,go,300.0,250.0,1.0,,,,,,,,,cyan,diamond
0.0,8.0,4.0,1.0,5.0,0.0,0.0,8.0,1.0,phase_2,stop,300.0,250.0,4.0,,,,,,,,,gray,flipped triangle
0.0,3.0,2.0,0.0,7.0,3.0,1952.435155999865,1.0,1.0,phase_3,,,,,696.0,6.0,116.0,232.0,696.0,348.0,464.0,580.0,blue,hexagon
0.0,8.0,4.0,1.0,7.0,5.0,906.3429620000534,1.0,1.0,phase_3,,,,,960.0,5.0,576.0,192.0,384.0,1152.0,960.0,768.0,gray,flipped triangle
0.0,2.0,1.0,0.0,7.0,5.0,2564.8697950000496,1.0,1.0,phase_3,,,,,308.0,2.0,616.0,924.0,462.0,770.0,308.0,154.0,yellow,cross
0.0,8.0,4.0,1.0,7.0,1.0,442.5306550001551,1.0,1.0,phase_3,,,,,154.0,1.0,154.0,308.0,770.0,462.0,616.0,924.0,gray,flipped triangle
0.0,3.0,2.0,0.0,7.0,2.0,1598.0303960000128,1.0,1.0,phase_3,,,,,924.0,6.0,616.0,924.0,308.0,462.0,770.0,154.0,blue,hexagon
0.0,5.0,0.5,1.0,7.0,3.0,314.9489699999321,1.0,1.0,phase_3,,,,,1038.0,6.0,519.0,865.0,1038.0,692.0,173.0,346.0,orange,square
0.0,1.0,0.5,0.0,7.0,1.0,2377.2266859996307,1.0,1.0,phase_3,,,,,154.0,1.0,154.0,616.0,462.0,308.0,770.0,924.0,cyan,diamond
0.0,1.0,0.5,0.0,7.0,6.0,2508.412801999839,1.0,1.0,phase_3,,,,,462.0,3.0,154.0,770.0,924.0,308.0,616.0,462.0,cyan,diamond
0.0,3.0,2.0,0.0,7.0,2.0,1978.5140829999364,1.0,1.0,phase_3,,,,,384.0,2.0,576.0,384.0,1152.0,192.0,960.0,768.0,blue,hexagon
0.0,1.0,0.5,0.0,7.0,5.0,795.5695040000137,1.0,1.0,phase_3,,,,,576.0,3.0,960.0,384.0,192.0,768.0,576.0,1152.0,cyan,diamond
0.0,2.0,1.0,0.0,7.0,1.0,1061.5140139998402,1.0,1.0,phase_3,,,,,346.0,2.0,346.0,865.0,173.0,519.0,1038.0,692.0,yellow,cross
0.0,3.0,2.0,0.0,7.0,5.0,720.0630190000084,1.0,1.0,phase_3,,,,,540.0,4.0,270.0,135.0,810.0,405.0,540.0,675.0,blue,hexagon
0.0,6.0,1.0,1.0,7.0,2.0,259.2207770003369,1.0,1.0,phase_3,,,,,675.0,5.0,270.0,675.0,810.0,135.0,405.0,540.0,green,I
0.0,1.0,0.5,0.0,7.0,6.0,2277.2290010002507,1.0,1.0,phase_3,,,,,696.0,6.0,464.0,580.0,116.0,348.0,232.0,696.0,cyan,diamond
0.0,1.0,0.5,0.0,7.0,1.0,2300.8771280001383,1.0,1.0,phase_3,,,,,405.0,3.0,405.0,270.0,135.0,810.0,675.0,540.0,cyan,diamond
0.0,7.0,2.0,1.0,7.0,1.0,1057.8286479999406,1.0,1.0,phase_3,,,,,116.0,1.0,116.0,580.0,232.0,464.0,348.0,696.0,magenta,circle
0.0,5.0,0.5,1.0,7.0,4.0,1926.1123200003567,1.0,1.0,phase_3,,,,,810.0,6.0,675.0,540.0,135.0,810.0,405.0,270.0,orange,square
0.0,1.0,0.5,0.0,7.0,3.0,729.1119999999864,1.0,1.0,phase_3,,,,,1152.0,6.0,768.0,384.0,1152.0,576.0,192.0,960.0,cyan,diamond
0.0,6.0,1.0,1.0,7.0,2.0,1099.8631089996709,1.0,1.0,phase_3,,,,,1152.0,6.0,768.0,1152.0,192.0,576.0,384.0,960.0,green,I
0.0,8.0,4.0,1.0,7.0,3.0,2160.7421949997843,1.0,1.0,phase_3,,,,,405.0,3.0,270.0,675.0,405.0,135.0,540.0,810.0,gray,flipped triangle
0.0,5.0,0.5,1.0,7.0,2.0,111.4076129997556,2.0,1.0,phase_3,,,,,696.0,6.0,116.0,696.0,464.0,580.0,232.0,348.0,orange,square
0.0,8.0,4.0,1.0,7.0,5.0,1166.542988999936,2.0,1.0,phase_3,,,,,865.0,5.0,346.0,692.0,1038.0,173.0,865.0,519.0,gray,flipped triangle
0.0,5.0,0.5,1.0,7.0,1.0,1286.1459439995997,2.0,1.0,phase_3,,,,,580.0,5.0,580.0,232.0,116.0,348.0,464.0,696.0,orange,square
0.0,8.0,4.0,1.0,7.0,6.0,730.3764529997352,2.0,1.0,phase_3,,,,,770.0,5.0,308.0,924.0,154.0,616.0,462.0,770.0,gray,flipped triangle
0.0,7.0,2.0,1.0,7.0,2.0,876.9356170000719,2.0,1.0,phase_3,,,,,865.0,5.0,173.0,865.0,692.0,519.0,1038.0,346.0,magenta,circle
0.0,2.0,1.0,0.0,7.0,6.0,491.2254300002132,2.0,1.0,phase_3,,,,,675.0,5.0,540.0,270.0,810.0,135.0,405.0,675.0,yellow,cross
0.0,8.0,4.0,1.0,7.0,5.0,1118.312050999975,2.0,1.0,phase_3,,,,,580.0,5.0,232.0,116.0,696.0,464.0,580.0,348.0,gray,flipped triangle
0.0,4.0,4.0,0.0,7.0,3.0,1819.841753000219,2.0,1.0,phase_3,,,,,135.0,1.0,810.0,540.0,135.0,270.0,675.0,405.0,white,triangle
0.0,8.0,4.0,1.0,7.0,2.0,903.6762470000212,2.0,1.0,phase_3,,,,,192.0,1.0,384.0,192.0,960.0,1152.0,576.0,768.0,gray,flipped triangle
0.0,6.0,1.0,1.0,7.0,6.0,278.1156569999439,2.0,1.0,phase_3,,,,,1038.0,6.0,865.0,692.0,519.0,346.0,173.0,1038.0,green,I
0.0,6.0,1.0,1.0,7.0,2.0,748.667284000021,2.0,1.0,phase_3,,,,,540.0,4.0,135.0,540.0,675.0,405.0,270.0,810.0,green,I
0.0,2.0,1.0,0.0,7.0,6.0,260.9515280000778,2.0,1.0,phase_3,,,,,1152.0,6.0,384.0,576.0,768.0,960.0,192.0,1152.0,yellow,cross
0.0,7.0,2.0,1.0,7.0,2.0,323.9779099999396,2.0,1.0,phase_3,,,,,135.0,1.0,405.0,135.0,540.0,270.0,675.0,810.0,magenta,circle
0.0,5.0,0.5,1.0,7.0,4.0,740.1240730000609,2.0,1.0,phase_3,,,,,270.0,2.0,675.0,540.0,405.0,270.0,810.0,135.0,orange,square
0.0,4.0,4.0,0.0,7.0,1.0,803.1217479997395,2.0,1.0,phase_3,,,,,1152.0,6.0,1152.0,384.0,960.0,576.0,768.0,192.0,white,triangle
0.0,3.0,2.0,0.0,7.0,6.0,769.1920229999596,2.0,1.0,phase_3,,,,,1038.0,6.0,173.0,519.0,692.0,865.0,346.0,1038.0,blue,hexagon
0.0,4.0,4.0,0.0,7.0,2.0,609.3881719998535,2.0,1.0,phase_3,,,,,154.0,1.0,462.0,154.0,616.0,770.0,308.0,924.0,white,triangle
0.0,6.0,1.0,1.0,7.0,5.0,379.9240840003222,2.0,1.0,phase_3,,,,,308.0,2.0,616.0,924.0,154.0,462.0,308.0,770.0,green,I
0.0,5.0,0.5,1.0,7.0,5.0,1108.778841000003,2.0,1.0,phase_3,,,,,924.0,6.0,154.0,462.0,616.0,308.0,924.0,770.0,orange,square
0.0,4.0,4.0,0.0,7.0,3.0,314.2597129999558,2.0,1.0,phase_3,,,,,462.0,3.0,154.0,770.0,462.0,616.0,308.0,924.0,white,triangle
0.0,2.0,1.0,0.0,7.0,3.0,1248.4298210001723,3.0,1.0,phase_3,,,,,692.0,4.0,346.0,519.0,692.0,1038.0,865.0,173.0,yellow,cross
0.0,7.0,2.0,1.0,7.0,4.0,286.6014229994107,3.0,1.0,phase_3,,,,,462.0,3.0,616.0,924.0,770.0,462.0,308.0,154.0,magenta,circle
0.0,7.0,2.0,1.0,7.0,4.0,435.4235259997949,3.0,1.0,phase_3,,,,,384.0,2.0,960.0,1152.0,576.0,384.0,768.0,192.0,magenta,circle
0.0,3.0,2.0,0.0,7.0,1.0,306.3074410001718,3.0,1.0,phase_3,,,,,576.0,3.0,576.0,768.0,192.0,1152.0,384.0,960.0,blue,hexagon
0.0,5.0,0.5,1.0,7.0,6.0,342.7945540006476,3.0,1.0,phase_3,,,,,616.0,4.0,154.0,462.0,308.0,770.0,924.0,616.0,orange,square
0.0,4.0,4.0,0.0,7.0,3.0,296.0907670003507,3.0,1.0,phase_3,,,,,810.0,6.0,135.0,270.0,810.0,675.0,540.0,405.0,white,triangle
0.0,2.0,1.0,0.0,7.0,4.0,314.9122779996105,3.0,1.0,phase_3,,,,,464.0,4.0,232.0,348.0,696.0,464.0,580.0,116.0,yellow,cross
0.0,3.0,2.0,0.0,7.0,2.0,268.6605359995155,3.0,1.0,phase_3,,,,,346.0,2.0,692.0,346.0,173.0,865.0,1038.0,519.0,blue,hexagon
0.0,6.0,1.0,1.0,7.0,5.0,268.2374519999939,3.0,1.0,phase_3,,,,,348.0,3.0,696.0,116.0,464.0,580.0,348.0,232.0,green,I
0.0,5.0,0.5,1.0,7.0,3.0,499.7014329992453,3.0,1.0,phase_3,,,,,692.0,4.0,1038.0,865.0,692.0,519.0,173.0,346.0,orange,square
0.0,7.0,2.0,1.0,7.0,5.0,260.0530419995266,3.0,1.0,phase_3,,,,,696.0,6.0,116.0,232.0,348.0,464.0,696.0,580.0,magenta,circle
0.0,5.0,0.5,1.0,7.0,4.0,1513.8824039995598,3.0,1.0,phase_3,,,,,768.0,4.0,1152.0,384.0,192.0,768.0,960.0,576.0,orange,square
0.0,6.0,1.0,1.0,7.0,4.0,1343.172119999508,3.0,1.0,phase_3,,,,,692.0,4.0,173.0,519.0,865.0,692.0,1038.0,346.0,green,I
0.0,7.0,2.0,1.0,7.0,5.0,2508.3989140002814,3.0,1.0,phase_3,,,,,519.0,3.0,346.0,173.0,865.0,692.0,519.0,1038.0,magenta,circle
0.0,7.0,2.0,1.0,7.0,4.0,1745.915029000571,3.0,1.0,phase_3,,,,,462.0,3.0,308.0,154.0,924.0,462.0,616.0,770.0,magenta,circle
0.0,1.0,0.5,0.0,7.0,5.0,2079.0334190005524,3.0,1.0,phase_3,,,,,1038.0,6.0,865.0,519.0,346.0,692.0,1038.0,173.0,cyan,diamond
0.0,4.0,4.0,0.0,7.0,6.0,2653.937051999492,3.0,1.0,phase_3,,,,,384.0,2.0,960.0,1152.0,768.0,576.0,192.0,384.0,white,triangle
0.0,3.0,2.0,0.0,7.0,6.0,721.5290459998869,3.0,1.0,phase_3,,,,,770.0,5.0,616.0,154.0,308.0,924.0,462.0,770.0,blue,hexagon
0.0,2.0,1.0,0.0,7.0,3.0,609.716424999533,3.0,1.0,phase_3,,,,,580.0,5.0,464.0,348.0,580.0,696.0,116.0,232.0,yellow,cross
0.0,4.0,4.0,0.0,7.0,4.0,453.1526419996226,3.0,1.0,phase_3,,,,,692.0,4.0,173.0,865.0,1038.0,692.0,346.0,519.0,white,triangle
0.0,8.0,4.0,1.0,7.0,3.0,544.5640449997882,4.0,1.0,phase_3,,,,,696.0,6.0,464.0,232.0,696.0,116.0,348.0,580.0,gray,flipped triangle
0.0,3.0,2.0,0.0,7.0,5.0,322.5968639999337,4.0,1.0,phase_3,,,,,348.0,3.0,116.0,232.0,464.0,696.0,348.0,580.0,blue,hexagon
0.0,1.0,0.5,0.0,7.0,4.0,268.3348389991806,4.0,1.0,phase_3,,,,,692.0,4.0,1038.0,173.0,519.0,692.0,865.0,346.0,cyan,diamond
0.0,4.0,4.0,0.0,7.0,2.0,269.0907620008147,4.0,1.0,phase_3,,,,,116.0,1.0,464.0,116.0,696.0,580.0,232.0,348.0,white,triangle
0.0,8.0,4.0,1.0,7.0,1.0,253.88293400010298,4.0,1.0,phase_3,,,,,405.0,3.0,405.0,810.0,135.0,675.0,540.0,270.0,gray,flipped triangle
0.0,1.0,0.5,0.0,7.0,6.0,296.5323650005302,4.0,1.0,phase_3,,,,,405.0,3.0,810.0,135.0,270.0,675.0,540.0,405.0,cyan,diamond
0.0,8.0,4.0,1.0,7.0,3.0,213.0416789996161,4.0,1.0,phase_3,,,,,1038.0,6.0,519.0,692.0,1038.0,346.0,865.0,173.0,gray,flipped triangle
0.0,2.0,1.0,0.0,7.0,1.0,709.5098820000203,4.0,1.0,phase_3,,,,,462.0,3.0,462.0,924.0,154.0,616.0,770.0,308.0,yellow,cross
0.0,6.0,1.0,1.0,7.0,6.0,618.9229530000375,4.0,1.0,phase_3,,,,,696.0,6.0,580.0,232.0,116.0,464.0,348.0,696.0,green,I
0.0,6.0,1.0,1.0,7.0,3.0,249.3322069994974,4.0,1.0,phase_3,,,,,154.0,1.0,770.0,616.0,154.0,308.0,462.0,924.0,green,I
0.0,2.0,1.0,0.0,7.0,1.0,546.8005149996316,4.0,1.0,phase_3,,,,,405.0,3.0,405.0,135.0,270.0,675.0,810.0,540.0,yellow,cross
0.0,2.0,1.0,0.0,7.0,2.0,591.2863369994739,4.0,1.0,phase_3,,,,,768.0,4.0,384.0,768.0,576.0,1152.0,192.0,960.0,yellow,cross
0.0,1.0,0.5,0.0,7.0,3.0,380.6526500002292,4.0,1.0,phase_3,,,,,116.0,1.0,232.0,348.0,116.0,580.0,464.0,696.0,cyan,diamond
0.0,4.0,4.0,0.0,7.0,3.0,306.6116019999754,4.0,1.0,phase_3,,,,,232.0,2.0,580.0,464.0,232.0,696.0,116.0,348.0,white,triangle
0.0,7.0,2.0,1.0,7.0,6.0,304.7283760006394,4.0,1.0,phase_3,,,,,810.0,6.0,405.0,540.0,270.0,675.0,135.0,810.0,magenta,circle
0.0,5.0,0.5,1.0,7.0,5.0,166.675880999719,4.0,1.0,phase_3,,,,,576.0,3.0,192.0,960.0,1152.0,768.0,576.0,384.0,orange,square
0.0,4.0,4.0,0.0,7.0,4.0,990.219774000252,4.0,1.0,phase_3,,,,,692.0,4.0,1038.0,865.0,519.0,692.0,173.0,346.0,white,triangle
0.0,6.0,1.0,1.0,7.0,1.0,443.3040820003953,4.0,1.0,phase_3,,,,,192.0,1.0,192.0,384.0,576.0,1152.0,768.0,960.0,green,I
0.0,7.0,2.0,1.0,7.0,3.0,428.4772680002788,4.0,1.0,phase_3,,,,,576.0,3.0,960.0,768.0,576.0,1152.0,384.0,192.0,magenta,circle
0.0,3.0,2.0,0.0,7.0,4.0,270.9955899999841,4.0,1.0,phase_3,,,,,540.0,4.0,675.0,405.0,810.0,540.0,270.0,135.0,blue,hexagon
