raw_reward_magnitude,stim_reward,stepwise_reward_magnitude,paired_with_stopping,stim_location,response,reaction_time,block,num_trial_presentations,which_phase,stop_signal_trial_type,left_SSD,right_SSD,accuracy,chosen_bidding_amount,chosen_bidding_level,possible_bid_1,possible_bid_2,possible_bid_3,possible_bid_4,possible_bid_5,possible_bid_6,color_text,shape_text
657.0,3.0,3.0,0.0,1.0,1.0,370.6386800004111,1.0,1.0,phase_1,,,,,,,,,,,,,blue,square
161.0,5.0,1.0,1.0,2.0,2.0,527.4028280000493,1.0,1.0,phase_1,,,,,,,,,,,,,cyan,I
0.0,4.0,0.0,0.0,4.0,4.0,351.3631220002935,1.0,1.0,phase_1,,,,,,,,,,,,,gray,triangle
0.0,3.0,0.0,0.0,1.0,1.0,370.0190250001469,1.0,1.0,phase_1,,,,,,,,,,,,,blue,square
0.0,2.0,0.0,0.0,2.0,2.0,315.0002490001498,1.0,1.0,phase_1,,,,,,,,,,,,,white,cross
654.0,3.0,3.0,0.0,4.0,4.0,314.3892339994636,1.0,1.0,phase_1,,,,,,,,,,,,,blue,square
1300.0,4.0,4.0,0.0,1.0,1.0,371.8712290001349,1.0,1.0,phase_1,,,,,,,,,,,,,gray,triangle
1291.0,8.0,4.0,1.0,1.0,1.0,324.9568669998552,1.0,1.0,phase_1,,,,,,,,,,,,,magenta,diamond
0.0,5.0,0.0,1.0,3.0,3.0,352.279219000593,1.0,1.0,phase_1,,,,,,,,,,,,,cyan,I
1324.0,4.0,4.0,0.0,3.0,3.0,452.1029110001109,1.0,2.0,phase_1,,,,,,,,,,,,,gray,triangle
312.0,6.0,2.0,1.0,2.0,2.0,434.6642000000429,1.0,1.0,phase_1,,,,,,,,,,,,,green,circle
1287.0,4.0,4.0,0.0,4.0,4.0,332.6821120008389,1.0,1.0,phase_1,,,,,,,,,,,,,gray,triangle
0.0,8.0,0.0,1.0,3.0,3.0,415.2833759999339,1.0,1.0,phase_1,,,,,,,,,,,,,magenta,diamond
626.0,3.0,3.0,0.0,4.0,4.0,396.8652809999184,1.0,1.0,phase_1,,,,,,,,,,,,,blue,square
663.0,7.0,3.0,1.0,1.0,1.0,371.9677530007175,1.0,1.0,phase_1,,,,,,,,,,,,,orange,flipped triangle
320.0,2.0,2.0,0.0,4.0,4.0,379.0207819993156,1.0,1.0,phase_1,,,,,,,,,,,,,white,cross
0.0,8.0,0.0,1.0,1.0,1.0,408.2537710000906,1.0,1.0,phase_1,,,,,,,,,,,,,magenta,diamond
660.0,7.0,3.0,1.0,1.0,1.0,433.7788719994933,1.0,1.0,phase_1,,,,,,,,,,,,,orange,flipped triangle
0.0,3.0,0.0,0.0,1.0,1.0,380.4861560001882,1.0,1.0,phase_1,,,,,,,,,,,,,blue,square
331.0,6.0,2.0,1.0,2.0,2.0,389.7183850003785,1.0,1.0,phase_1,,,,,,,,,,,,,green,circle
306.0,6.0,2.0,1.0,3.0,3.0,399.5317930002784,1.0,1.0,phase_1,,,,,,,,,,,,,green,circle
0.0,7.0,0.0,1.0,4.0,4.0,332.6684570001816,1.0,1.0,phase_1,,,,,,,,,,,,,orange,flipped triangle
0.0,2.0,0.0,0.0,2.0,2.0,684.8698140001943,1.0,1.0,phase_1,,,,,,,,,,,,,white,cross
0.0,6.0,0.0,1.0,3.0,3.0,389.0185200007181,1.0,1.0,phase_1,,,,,,,,,,,,,green,circle
1275.0,4.0,4.0,0.0,1.0,1.0,379.9688210001477,1.0,1.0,phase_1,,,,,,,,,,,,,gray,triangle
631.0,3.0,3.0,0.0,4.0,4.0,398.4428049998314,1.0,2.0,phase_1,,,,,,,,,,,,,blue,square
1282.0,8.0,4.0,1.0,2.0,2.0,490.0743359994521,1.0,1.0,phase_1,,,,,,,,,,,,,magenta,diamond
1285.0,4.0,4.0,0.0,3.0,3.0,313.4653569995862,1.0,1.0,phase_1,,,,,,,,,,,,,gray,triangle
165.0,1.0,1.0,0.0,1.0,1.0,437.6504269994257,1.0,1.0,phase_1,,,,,,,,,,,,,yellow,hexagon
1319.0,8.0,4.0,1.0,2.0,2.0,323.6225390000982,1.0,1.0,phase_1,,,,,,,,,,,,,magenta,diamond
1303.0,4.0,4.0,0.0,2.0,2.0,397.1832670004005,1.0,1.0,phase_1,,,,,,,,,,,,,gray,triangle
0.0,4.0,0.0,0.0,4.0,4.0,406.5605629994024,1.0,1.0,phase_1,,,,,,,,,,,,,gray,triangle
1300.0,8.0,4.0,1.0,2.0,2.0,285.927618999267,1.0,1.0,phase_1,,,,,,,,,,,,,magenta,diamond
316.0,6.0,2.0,1.0,3.0,3.0,341.9175220005854,1.0,1.0,phase_1,,,,,,,,,,,,,green,circle
654.0,7.0,3.0,1.0,2.0,2.0,443.7811130001137,1.0,1.0,phase_1,,,,,,,,,,,,,orange,flipped triangle
632.0,7.0,3.0,1.0,4.0,4.0,370.4262539995397,1.0,1.0,phase_1,,,,,,,,,,,,,orange,flipped triangle
156.0,5.0,1.0,1.0,1.0,1.0,341.8780399997558,1.0,1.0,phase_1,,,,,,,,,,,,,cyan,I
0.0,2.0,0.0,0.0,3.0,3.0,350.5746020000515,1.0,1.0,phase_1,,,,,,,,,,,,,white,cross
341.0,6.0,2.0,1.0,4.0,4.0,332.2737050002615,1.0,1.0,phase_1,,,,,,,,,,,,,green,circle
1306.0,8.0,4.0,1.0,3.0,3.0,378.9890640000521,1.0,1.0,phase_1,,,,,,,,,,,,,magenta,diamond
162.0,5.0,1.0,1.0,3.0,3.0,424.8202909993779,1.0,1.0,phase_1,,,,,,,,,,,,,cyan,I
635.0,3.0,3.0,0.0,3.0,3.0,387.3886159999529,1.0,1.0,phase_1,,,,,,,,,,,,,blue,square
350.0,6.0,2.0,1.0,4.0,4.0,314.3939940000564,1.0,1.0,phase_1,,,,,,,,,,,,,green,circle
186.0,1.0,1.0,0.0,1.0,1.0,360.8145460002561,1.0,1.0,phase_1,,,,,,,,,,,,,yellow,hexagon
305.0,6.0,2.0,1.0,2.0,2.0,342.1416609999141,1.0,1.0,phase_1,,,,,,,,,,,,,green,circle
642.0,3.0,3.0,0.0,3.0,3.0,342.3147530002097,1.0,1.0,phase_1,,,,,,,,,,,,,blue,square
160.0,1.0,1.0,0.0,1.0,1.0,443.354865999936,1.0,2.0,phase_1,,,,,,,,,,,,,yellow,hexagon
161.0,5.0,1.0,1.0,2.0,2.0,388.3871219995853,1.0,1.0,phase_1,,,,,,,,,,,,,cyan,I
166.0,5.0,1.0,1.0,2.0,2.0,388.0780370000138,1.0,1.0,phase_1,,,,,,,,,,,,,cyan,I
318.0,2.0,2.0,0.0,4.0,4.0,444.4223629998305,1.0,1.0,phase_1,,,,,,,,,,,,,white,cross
661.0,3.0,3.0,0.0,3.0,3.0,352.2366179995515,1.0,1.0,phase_1,,,,,,,,,,,,,blue,square
179.0,1.0,1.0,0.0,2.0,2.0,351.0377910006355,1.0,1.0,phase_1,,,,,,,,,,,,,yellow,hexagon
146.0,5.0,1.0,1.0,4.0,4.0,334.6240079999916,1.0,1.0,phase_1,,,,,,,,,,,,,cyan,I
631.0,7.0,3.0,1.0,4.0,4.0,416.281980000349,1.0,1.0,phase_1,,,,,,,,,,,,,orange,flipped triangle
304.0,2.0,2.0,0.0,2.0,2.0,305.2305040000647,1.0,1.0,phase_1,,,,,,,,,,,,,white,cross
328.0,2.0,2.0,0.0,1.0,1.0,479.9443140000221,1.0,1.0,phase_1,,,,,,,,,,,,,white,cross
149.0,1.0,1.0,0.0,2.0,2.0,490.1620660002663,1.0,1.0,phase_1,,,,,,,,,,,,,yellow,hexagon
318.0,6.0,2.0,1.0,1.0,1.0,462.6661470001636,1.0,1.0,phase_1,,,,,,,,,,,,,green,circle
153.0,5.0,1.0,1.0,3.0,3.0,554.5164830000431,1.0,1.0,phase_1,,,,,,,,,,,,,cyan,I
655.0,7.0,3.0,1.0,4.0,4.0,500.2959479998026,1.0,1.0,phase_1,,,,,,,,,,,,,orange,flipped triangle
671.0,7.0,3.0,1.0,1.0,1.0,360.9762050000427,1.0,1.0,phase_1,,,,,,,,,,,,,orange,flipped triangle
1285.0,8.0,4.0,1.0,1.0,1.0,398.4526489994096,1.0,1.0,phase_1,,,,,,,,,,,,,magenta,diamond
0.0,5.0,0.0,1.0,1.0,1.0,369.9185310006214,1.0,1.0,phase_1,,,,,,,,,,,,,cyan,I
336.0,6.0,2.0,1.0,1.0,1.0,380.3980839993528,1.0,1.0,phase_1,,,,,,,,,,,,,green,circle
327.0,2.0,2.0,0.0,2.0,2.0,360.7035119994179,1.0,1.0,phase_1,,,,,,,,,,,,,white,cross
320.0,6.0,2.0,1.0,4.0,4.0,379.6238020004239,1.0,1.0,phase_1,,,,,,,,,,,,,green,circle
0.0,2.0,0.0,0.0,4.0,4.0,370.2810009999666,1.0,1.0,phase_1,,,,,,,,,,,,,white,cross
182.0,5.0,1.0,1.0,1.0,1.0,426.2475240002459,1.0,1.0,phase_1,,,,,,,,,,,,,cyan,I
642.0,3.0,3.0,0.0,4.0,4.0,490.2156550006111,1.0,1.0,phase_1,,,,,,,,,,,,,blue,square
670.0,7.0,3.0,1.0,4.0,4.0,398.2363300001452,1.0,1.0,phase_1,,,,,,,,,,,,,orange,flipped triangle
341.0,2.0,2.0,0.0,4.0,4.0,407.7700370007733,1.0,1.0,phase_1,,,,,,,,,,,,,white,cross
671.0,7.0,3.0,1.0,2.0,2.0,452.8379770008541,1.0,1.0,phase_1,,,,,,,,,,,,,orange,flipped triangle
1321.0,8.0,4.0,1.0,1.0,1.0,433.6494660001335,1.0,1.0,phase_1,,,,,,,,,,,,,magenta,diamond
167.0,1.0,1.0,0.0,4.0,4.0,351.5306709996366,1.0,1.0,phase_1,,,,,,,,,,,,,yellow,hexagon
168.0,1.0,1.0,0.0,3.0,3.0,378.5791860000245,1.0,1.0,phase_1,,,,,,,,,,,,,yellow,hexagon
642.0,7.0,3.0,1.0,4.0,4.0,415.1716039996245,1.0,1.0,phase_1,,,,,,,,,,,,,orange,flipped triangle
661.0,7.0,3.0,1.0,3.0,3.0,388.154009999198,1.0,1.0,phase_1,,,,,,,,,,,,,orange,flipped triangle
1291.0,8.0,4.0,1.0,2.0,2.0,556.6040590001649,1.0,1.0,phase_1,,,,,,,,,,,,,magenta,diamond
664.0,7.0,3.0,1.0,3.0,3.0,408.7363680000635,1.0,1.0,phase_1,,,,,,,,,,,,,orange,flipped triangle
173.0,5.0,1.0,1.0,3.0,3.0,360.5428589999064,1.0,1.0,phase_1,,,,,,,,,,,,,cyan,I
626.0,7.0,3.0,1.0,4.0,4.0,398.0061909996948,1.0,1.0,phase_1,,,,,,,,,,,,,orange,flipped triangle
143.0,1.0,1.0,0.0,2.0,2.0,510.26576700041915,1.0,1.0,phase_1,,,,,,,,,,,,,yellow,hexagon
322.0,6.0,2.0,1.0,1.0,1.0,426.2631330002477,1.0,1.0,phase_1,,,,,,,,,,,,,green,circle
1275.0,8.0,4.0,1.0,1.0,1.0,444.5559440000579,1.0,1.0,phase_1,,,,,,,,,,,,,magenta,diamond
1319.0,8.0,4.0,1.0,4.0,4.0,342.7666349998617,1.0,1.0,phase_1,,,,,,,,,,,,,magenta,diamond
306.0,2.0,2.0,0.0,1.0,1.0,370.1523320005435,1.0,1.0,phase_1,,,,,,,,,,,,,white,cross
1322.0,4.0,4.0,0.0,4.0,4.0,425.3844969998681,1.0,1.0,phase_1,,,,,,,,,,,,,gray,triangle
149.0,1.0,1.0,0.0,3.0,3.0,425.0103010008388,1.0,1.0,phase_1,,,,,,,,,,,,,yellow,hexagon
170.0,5.0,1.0,1.0,2.0,2.0,398.0039210000541,1.0,1.0,phase_1,,,,,,,,,,,,,cyan,I
313.0,2.0,2.0,0.0,2.0,2.0,427.3250070000358,1.0,1.0,phase_1,,,,,,,,,,,,,white,cross
1298.0,8.0,4.0,1.0,3.0,3.0,361.3588689995595,1.0,1.0,phase_1,,,,,,,,,,,,,magenta,diamond
342.0,6.0,2.0,1.0,3.0,3.0,480.5258850001337,1.0,1.0,phase_1,,,,,,,,,,,,,green,circle
322.0,6.0,2.0,1.0,2.0,2.0,306.7959429999973,1.0,1.0,phase_1,,,,,,,,,,,,,green,circle
0.0,6.0,0.0,1.0,1.0,1.0,334.5158279998941,1.0,1.0,phase_1,,,,,,,,,,,,,green,circle
327.0,2.0,2.0,0.0,2.0,2.0,388.6165639996761,1.0,1.0,phase_1,,,,,,,,,,,,,white,cross
0.0,1.0,0.0,0.0,3.0,3.0,390.552580000076,1.0,1.0,phase_1,,,,,,,,,,,,,yellow,hexagon
323.0,2.0,2.0,0.0,1.0,1.0,378.8016529997549,1.0,1.0,phase_1,,,,,,,,,,,,,white,cross
308.0,6.0,2.0,1.0,1.0,1.0,351.9626010001957,1.0,1.0,phase_1,,,,,,,,,,,,,green,circle
1312.0,4.0,4.0,0.0,4.0,4.0,407.7801299999919,1.0,1.0,phase_1,,,,,,,,,,,,,gray,triangle
1290.0,8.0,4.0,1.0,2.0,2.0,360.594212000251,1.0,1.0,phase_1,,,,,,,,,,,,,magenta,diamond
0.0,8.0,0.0,1.0,1.0,1.0,425.7439840002917,2.0,1.0,phase_1,,,,,,,,,,,,,magenta,diamond
1291.0,4.0,4.0,0.0,2.0,2.0,444.0054540000346,2.0,1.0,phase_1,,,,,,,,,,,,,gray,triangle
1318.0,4.0,4.0,0.0,2.0,2.0,379.102583000531,2.0,1.0,phase_1,,,,,,,,,,,,,gray,triangle
1284.0,8.0,4.0,1.0,4.0,4.0,305.1632350006912,2.0,1.0,phase_1,,,,,,,,,,,,,magenta,diamond
1300.0,8.0,4.0,1.0,4.0,4.0,369.769855999948,2.0,1.0,phase_1,,,,,,,,,,,,,magenta,diamond
671.0,3.0,3.0,0.0,3.0,3.0,407.0021979996454,2.0,1.0,phase_1,,,,,,,,,,,,,blue,square
1282.0,4.0,4.0,0.0,4.0,4.0,397.6504599995678,2.0,1.0,phase_1,,,,,,,,,,,,,gray,triangle
162.0,1.0,1.0,0.0,1.0,1.0,507.80101899999863,2.0,1.0,phase_1,,,,,,,,,,,,,yellow,hexagon
1319.0,4.0,4.0,0.0,3.0,3.0,482.8436110001348,2.0,1.0,phase_1,,,,,,,,,,,,,gray,triangle
1280.0,8.0,4.0,1.0,4.0,4.0,342.7192310000464,2.0,1.0,phase_1,,,,,,,,,,,,,magenta,diamond
0.0,1.0,0.0,0.0,3.0,3.0,333.0751549992783,2.0,1.0,phase_1,,,,,,,,,,,,,yellow,hexagon
646.0,3.0,3.0,0.0,2.0,2.0,443.695924000167,2.0,1.0,phase_1,,,,,,,,,,,,,blue,square
0.0,5.0,0.0,1.0,2.0,2.0,406.5990919998512,2.0,1.0,phase_1,,,,,,,,,,,,,cyan,I
0.0,1.0,0.0,0.0,3.0,3.0,316.2159660005272,2.0,1.0,phase_1,,,,,,,,,,,,,yellow,hexagon
313.0,6.0,2.0,1.0,4.0,4.0,363.1461800005127,2.0,1.0,phase_1,,,,,,,,,,,,,green,circle
0.0,8.0,0.0,1.0,2.0,2.0,453.745565000645,2.0,1.0,phase_1,,,,,,,,,,,,,magenta,diamond
154.0,5.0,1.0,1.0,2.0,2.0,500.965707999967,2.0,1.0,phase_1,,,,,,,,,,,,,cyan,I
650.0,7.0,3.0,1.0,3.0,3.0,454.5872930002588,2.0,1.0,phase_1,,,,,,,,,,,,,orange,flipped triangle
626.0,3.0,3.0,0.0,4.0,4.0,601.7981160002819,2.0,1.0,phase_1,,,,,,,,,,,,,blue,square
141.0,1.0,1.0,0.0,3.0,3.0,444.6159469998747,2.0,1.0,phase_1,,,,,,,,,,,,,yellow,hexagon
0.0,1.0,0.0,0.0,4.0,4.0,418.0635000002439,2.0,1.0,phase_1,,,,,,,,,,,,,yellow,hexagon
178.0,5.0,1.0,1.0,3.0,3.0,398.4281160001046,2.0,1.0,phase_1,,,,,,,,,,,,,cyan,I
1307.0,4.0,4.0,0.0,3.0,3.0,491.0146140000506,2.0,1.0,phase_1,,,,,,,,,,,,,gray,triangle
0.0,8.0,0.0,1.0,4.0,4.0,435.673541000142,2.0,1.0,phase_1,,,,,,,,,,,,,magenta,diamond
632.0,3.0,3.0,0.0,4.0,4.0,416.8358050001188,2.0,1.0,phase_1,,,,,,,,,,,,,blue,square
1291.0,8.0,4.0,1.0,4.0,4.0,532.0621329992719,2.0,1.0,phase_1,,,,,,,,,,,,,magenta,diamond
158.0,5.0,1.0,1.0,2.0,2.0,454.9790190003477,2.0,1.0,phase_1,,,,,,,,,,,,,cyan,I
1294.0,4.0,4.0,0.0,1.0,1.0,489.3880330000684,2.0,2.0,phase_1,,,,,,,,,,,,,gray,triangle
1300.0,4.0,4.0,0.0,1.0,1.0,378.6401910001586,2.0,1.0,phase_1,,,,,,,,,,,,,gray,triangle
321.0,6.0,2.0,1.0,3.0,3.0,406.6700590001346,2.0,1.0,phase_1,,,,,,,,,,,,,green,circle
1287.0,8.0,4.0,1.0,4.0,4.0,472.7044979999846,2.0,1.0,phase_1,,,,,,,,,,,,,magenta,diamond
165.0,5.0,1.0,1.0,4.0,4.0,461.1028019999139,2.0,1.0,phase_1,,,,,,,,,,,,,cyan,I
635.0,3.0,3.0,0.0,2.0,2.0,479.774312999325,2.0,1.0,phase_1,,,,,,,,,,,,,blue,square
0.0,4.0,0.0,0.0,3.0,3.0,434.6688240002549,2.0,1.0,phase_1,,,,,,,,,,,,,gray,triangle
0.0,7.0,0.0,1.0,1.0,1.0,574.2992380000942,2.0,1.0,phase_1,,,,,,,,,,,,,orange,flipped triangle
648.0,3.0,3.0,0.0,1.0,1.0,564.1116850001708,2.0,1.0,phase_1,,,,,,,,,,,,,blue,square
160.0,5.0,1.0,1.0,4.0,4.0,426.0534969998844,2.0,1.0,phase_1,,,,,,,,,,,,,cyan,I
642.0,7.0,3.0,1.0,3.0,3.0,490.8733619995473,2.0,1.0,phase_1,,,,,,,,,,,,,orange,flipped triangle
341.0,2.0,2.0,0.0,3.0,3.0,508.57319999977335,2.0,1.0,phase_1,,,,,,,,,,,,,white,cross
184.0,5.0,1.0,1.0,4.0,4.0,435.0007680004637,2.0,1.0,phase_1,,,,,,,,,,,,,cyan,I
628.0,7.0,3.0,1.0,1.0,1.0,470.9252280008513,2.0,1.0,phase_1,,,,,,,,,,,,,orange,flipped triangle
327.0,6.0,2.0,1.0,1.0,1.0,508.39766100034467,2.0,1.0,phase_1,,,,,,,,,,,,,green,circle
166.0,1.0,1.0,0.0,1.0,1.0,407.1210590000191,2.0,1.0,phase_1,,,,,,,,,,,,,yellow,hexagon
0.0,5.0,0.0,1.0,4.0,4.0,434.6327189996373,2.0,1.0,phase_1,,,,,,,,,,,,,cyan,I
665.0,7.0,3.0,1.0,2.0,2.0,544.8088749999442,2.0,1.0,phase_1,,,,,,,,,,,,,orange,flipped triangle
184.0,1.0,1.0,0.0,3.0,3.0,426.0702500005209,2.0,1.0,phase_1,,,,,,,,,,,,,yellow,hexagon
669.0,7.0,3.0,1.0,4.0,4.0,443.7010259998715,2.0,1.0,phase_1,,,,,,,,,,,,,orange,flipped triangle
170.0,1.0,1.0,0.0,1.0,1.0,351.0853959996893,2.0,1.0,phase_1,,,,,,,,,,,,,yellow,hexagon
0.0,3.0,0.0,0.0,1.0,1.0,407.2034509999866,2.0,1.0,phase_1,,,,,,,,,,,,,blue,square
316.0,2.0,2.0,0.0,4.0,4.0,426.2522590006483,2.0,1.0,phase_1,,,,,,,,,,,,,white,cross
141.0,5.0,1.0,1.0,4.0,4.0,370.1116140000522,2.0,1.0,phase_1,,,,,,,,,,,,,cyan,I
1317.0,4.0,4.0,0.0,1.0,1.0,471.5607289999752,2.0,1.0,phase_1,,,,,,,,,,,,,gray,triangle
0.0,4.0,0.0,0.0,2.0,2.0,508.14745300067443,2.0,1.0,phase_1,,,,,,,,,,,,,gray,triangle
350.0,2.0,2.0,0.0,1.0,1.0,444.2130320003343,2.0,1.0,phase_1,,,,,,,,,,,,,white,cross
342.0,6.0,2.0,1.0,3.0,3.0,314.1422819999206,2.0,1.0,phase_1,,,,,,,,,,,,,green,circle
627.0,7.0,3.0,1.0,2.0,2.0,433.7331979995724,2.0,1.0,phase_1,,,,,,,,,,,,,orange,flipped triangle
655.0,3.0,3.0,0.0,3.0,3.0,391.113628000312,2.0,1.0,phase_1,,,,,,,,,,,,,blue,square
627.0,3.0,3.0,0.0,4.0,4.0,452.9228060000605,2.0,1.0,phase_1,,,,,,,,,,,,,blue,square
647.0,3.0,3.0,0.0,3.0,3.0,389.67919300012,2.0,1.0,phase_1,,,,,,,,,,,,,blue,square
149.0,5.0,1.0,1.0,3.0,3.0,499.2547330002708,2.0,1.0,phase_1,,,,,,,,,,,,,cyan,I
0.0,6.0,0.0,1.0,2.0,2.0,334.4248339999467,2.0,1.0,phase_1,,,,,,,,,,,,,green,circle
0.0,7.0,0.0,1.0,3.0,3.0,360.6707239996467,2.0,1.0,phase_1,,,,,,,,,,,,,orange,flipped triangle
661.0,3.0,3.0,0.0,3.0,3.0,387.1519899994382,2.0,1.0,phase_1,,,,,,,,,,,,,blue,square
304.0,6.0,2.0,1.0,1.0,1.0,333.3566399996925,2.0,1.0,phase_1,,,,,,,,,,,,,green,circle
315.0,6.0,2.0,1.0,4.0,4.0,472.2546689999944,2.0,1.0,phase_1,,,,,,,,,,,,,green,circle
670.0,3.0,3.0,0.0,1.0,1.0,481.9715110006655,2.0,1.0,phase_1,,,,,,,,,,,,,blue,square
160.0,1.0,1.0,0.0,2.0,2.0,377.1291500006555,2.0,1.0,phase_1,,,,,,,,,,,,,yellow,hexagon
1324.0,8.0,4.0,1.0,3.0,3.0,305.1973319998069,2.0,1.0,phase_1,,,,,,,,,,,,,magenta,diamond
671.0,7.0,3.0,1.0,1.0,1.0,498.6270469998999,2.0,1.0,phase_1,,,,,,,,,,,,,orange,flipped triangle
1307.0,8.0,4.0,1.0,2.0,2.0,416.5129449993401,2.0,1.0,phase_1,,,,,,,,,,,,,magenta,diamond
0.0,2.0,0.0,0.0,3.0,3.0,342.6223010001195,2.0,1.0,phase_1,,,,,,,,,,,,,white,cross
1277.0,4.0,4.0,0.0,4.0,4.0,437.1859630000472,2.0,1.0,phase_1,,,,,,,,,,,,,gray,triangle
177.0,1.0,1.0,0.0,2.0,2.0,424.545582999599,2.0,1.0,phase_1,,,,,,,,,,,,,yellow,hexagon
1289.0,4.0,4.0,0.0,2.0,2.0,452.2741430000678,2.0,1.0,phase_1,,,,,,,,,,,,,gray,triangle
303.0,2.0,2.0,0.0,4.0,4.0,417.0099769999069,2.0,1.0,phase_1,,,,,,,,,,,,,white,cross
341.0,6.0,2.0,1.0,2.0,2.0,351.6220800001974,2.0,1.0,phase_1,,,,,,,,,,,,,green,circle
162.0,1.0,1.0,0.0,3.0,3.0,378.2733600000938,2.0,1.0,phase_1,,,,,,,,,,,,,yellow,hexagon
176.0,1.0,1.0,0.0,4.0,4.0,453.3700669999234,2.0,1.0,phase_1,,,,,,,,,,,,,yellow,hexagon
650.0,3.0,3.0,0.0,3.0,3.0,443.8178650007103,2.0,1.0,phase_1,,,,,,,,,,,,,blue,square
0.0,8.0,0.0,1.0,4.0,4.0,453.526213999794,2.0,1.0,phase_1,,,,,,,,,,,,,magenta,diamond
1309.0,8.0,4.0,1.0,4.0,4.0,452.8410289995008,2.0,1.0,phase_1,,,,,,,,,,,,,magenta,diamond
0.0,3.0,0.0,0.0,4.0,4.0,426.6064419998656,2.0,1.0,phase_1,,,,,,,,,,,,,blue,square
656.0,3.0,3.0,0.0,1.0,1.0,314.8891210003057,2.0,1.0,phase_1,,,,,,,,,,,,,blue,square
1277.0,8.0,4.0,1.0,1.0,1.0,535.9731830003511,2.0,1.0,phase_1,,,,,,,,,,,,,magenta,diamond
0.0,8.0,0.0,1.0,1.0,1.0,360.2694289993451,2.0,1.0,phase_1,,,,,,,,,,,,,magenta,diamond
0.0,7.0,0.0,1.0,4.0,4.0,535.4270649995669,2.0,1.0,phase_1,,,,,,,,,,,,,orange,flipped triangle
321.0,2.0,2.0,0.0,2.0,2.0,452.7091979998658,2.0,1.0,phase_1,,,,,,,,,,,,,white,cross
1279.0,8.0,4.0,1.0,3.0,3.0,424.8883680002109,2.0,1.0,phase_1,,,,,,,,,,,,,magenta,diamond
0.0,8.0,0.0,1.0,1.0,1.0,434.5479080002405,2.0,1.0,phase_1,,,,,,,,,,,,,magenta,diamond
156.0,1.0,1.0,0.0,4.0,4.0,407.6933850001296,2.0,1.0,phase_1,,,,,,,,,,,,,yellow,hexagon
644.0,3.0,3.0,0.0,1.0,1.0,470.9471910000502,2.0,1.0,phase_1,,,,,,,,,,,,,blue,square
1289.0,8.0,4.0,1.0,1.0,1.0,398.6499439997715,2.0,1.0,phase_1,,,,,,,,,,,,,magenta,diamond
671.0,3.0,3.0,0.0,1.0,1.0,322.9692099994281,2.0,1.0,phase_1,,,,,,,,,,,,,blue,square
137.0,1.0,1.0,0.0,3.0,3.0,424.5995760002188,2.0,1.0,phase_1,,,,,,,,,,,,,yellow,hexagon
665.0,3.0,3.0,0.0,2.0,2.0,490.4136229997675,2.0,1.0,phase_1,,,,,,,,,,,,,blue,square
308.0,2.0,2.0,0.0,4.0,4.0,425.8846920001815,2.0,1.0,phase_1,,,,,,,,,,,,,white,cross
0.0,1.0,0.0,0.0,3.0,3.0,425.7365860003119,2.0,1.0,phase_1,,,,,,,,,,,,,yellow,hexagon
1317.0,8.0,4.0,1.0,3.0,3.0,398.0295259998456,2.0,1.0,phase_1,,,,,,,,,,,,,magenta,diamond
0.0,2.0,0.0,0.0,2.0,2.0,397.7909510003883,2.0,1.0,phase_1,,,,,,,,,,,,,white,cross
328.0,6.0,2.0,1.0,1.0,1.0,434.0484250005829,2.0,1.0,phase_1,,,,,,,,,,,,,green,circle
0.0,3.0,0.0,0.0,4.0,4.0,416.1841790000835,3.0,1.0,phase_1,,,,,,,,,,,,,blue,square
0.0,6.0,0.0,1.0,4.0,4.0,434.62230200020707,3.0,1.0,phase_1,,,,,,,,,,,,,green,circle
642.0,3.0,3.0,0.0,2.0,2.0,435.3077850000773,3.0,1.0,phase_1,,,,,,,,,,,,,blue,square
178.0,1.0,1.0,0.0,4.0,4.0,342.1857319999617,3.0,1.0,phase_1,,,,,,,,,,,,,yellow,hexagon
0.0,6.0,0.0,1.0,1.0,1.0,443.5771580001528,3.0,1.0,phase_1,,,,,,,,,,,,,green,circle
632.0,3.0,3.0,0.0,3.0,3.0,342.8463350001038,3.0,1.0,phase_1,,,,,,,,,,,,,blue,square
336.0,2.0,2.0,0.0,2.0,2.0,341.885220000222,3.0,1.0,phase_1,,,,,,,,,,,,,white,cross
152.0,5.0,1.0,1.0,4.0,4.0,398.0685889991946,3.0,1.0,phase_1,,,,,,,,,,,,,cyan,I
1319.0,8.0,4.0,1.0,3.0,3.0,388.8564190001489,3.0,1.0,phase_1,,,,,,,,,,,,,magenta,diamond
139.0,1.0,1.0,0.0,2.0,2.0,351.5035000000353,3.0,1.0,phase_1,,,,,,,,,,,,,yellow,hexagon
1279.0,4.0,4.0,0.0,1.0,1.0,471.2370709994502,3.0,1.0,phase_1,,,,,,,,,,,,,gray,triangle
331.0,2.0,2.0,0.0,1.0,1.0,332.8952189995107,3.0,1.0,phase_1,,,,,,,,,,,,,white,cross
0.0,1.0,0.0,0.0,4.0,4.0,342.9156429992872,3.0,1.0,phase_1,,,,,,,,,,,,,yellow,hexagon
0.0,3.0,0.0,0.0,2.0,2.0,397.2756089997347,3.0,1.0,phase_1,,,,,,,,,,,,,blue,square
664.0,3.0,3.0,0.0,2.0,2.0,416.3839359998746,3.0,1.0,phase_1,,,,,,,,,,,,,blue,square
145.0,5.0,1.0,1.0,1.0,1.0,434.4687769998927,3.0,1.0,phase_1,,,,,,,,,,,,,cyan,I
0.0,7.0,0.0,1.0,2.0,2.0,370.0399139997898,3.0,1.0,phase_1,,,,,,,,,,,,,orange,flipped triangle
644.0,7.0,3.0,1.0,3.0,3.0,399.7993319999295,3.0,2.0,phase_1,,,,,,,,,,,,,orange,flipped triangle
1324.0,8.0,4.0,1.0,4.0,4.0,416.1577940003553,3.0,1.0,phase_1,,,,,,,,,,,,,magenta,diamond
1298.0,4.0,4.0,0.0,4.0,4.0,536.2893270003042,3.0,1.0,phase_1,,,,,,,,,,,,,gray,triangle
1312.0,8.0,4.0,1.0,2.0,2.0,361.1992739997731,3.0,1.0,phase_1,,,,,,,,,,,,,magenta,diamond
333.0,6.0,2.0,1.0,4.0,4.0,426.7768409999917,3.0,1.0,phase_1,,,,,,,,,,,,,green,circle
161.0,1.0,1.0,0.0,3.0,3.0,573.8586100005705,3.0,1.0,phase_1,,,,,,,,,,,,,yellow,hexagon
0.0,6.0,0.0,1.0,3.0,3.0,443.6242419997143,3.0,1.0,phase_1,,,,,,,,,,,,,green,circle
158.0,1.0,1.0,0.0,3.0,3.0,481.6971930004001,3.0,1.0,phase_1,,,,,,,,,,,,,yellow,hexagon
160.0,5.0,1.0,1.0,4.0,4.0,526.8022899999778,3.0,1.0,phase_1,,,,,,,,,,,,,cyan,I
0.0,4.0,0.0,0.0,1.0,1.0,490.7617349999782,3.0,1.0,phase_1,,,,,,,,,,,,,gray,triangle
625.0,3.0,3.0,0.0,1.0,1.0,490.6959640002242,3.0,1.0,phase_1,,,,,,,,,,,,,blue,square
0.0,1.0,0.0,0.0,2.0,2.0,362.0859420007036,3.0,1.0,phase_1,,,,,,,,,,,,,yellow,hexagon
339.0,6.0,2.0,1.0,3.0,3.0,544.9513399998978,3.0,1.0,phase_1,,,,,,,,,,,,,green,circle
1291.0,4.0,4.0,0.0,4.0,4.0,434.8346080005285,3.0,1.0,phase_1,,,,,,,,,,,,,gray,triangle
632.0,7.0,3.0,1.0,1.0,1.0,436.1013210000237,3.0,1.0,phase_1,,,,,,,,,,,,,orange,flipped triangle
648.0,7.0,3.0,1.0,1.0,1.0,696.0304730000644,3.0,1.0,phase_1,,,,,,,,,,,,,orange,flipped triangle
340.0,2.0,2.0,0.0,3.0,3.0,518.0406330000551,3.0,1.0,phase_1,,,,,,,,,,,,,white,cross
0.0,6.0,0.0,1.0,4.0,4.0,442.5356319998172,3.0,1.0,phase_1,,,,,,,,,,,,,green,circle
1316.0,8.0,4.0,1.0,1.0,1.0,499.5658959996945,3.0,1.0,phase_1,,,,,,,,,,,,,magenta,diamond
346.0,2.0,2.0,0.0,3.0,3.0,509.7358240000176,3.0,1.0,phase_1,,,,,,,,,,,,,white,cross
161.0,1.0,1.0,0.0,1.0,1.0,508.7734169992473,3.0,1.0,phase_1,,,,,,,,,,,,,yellow,hexagon
312.0,2.0,2.0,0.0,3.0,3.0,435.1958150000428,3.0,1.0,phase_1,,,,,,,,,,,,,white,cross
0.0,2.0,0.0,0.0,1.0,1.0,462.2459080001135,3.0,1.0,phase_1,,,,,,,,,,,,,white,cross
1297.0,8.0,4.0,1.0,3.0,3.0,536.9693590000679,3.0,1.0,phase_1,,,,,,,,,,,,,magenta,diamond
139.0,5.0,1.0,1.0,1.0,1.0,498.9075339999544,3.0,1.0,phase_1,,,,,,,,,,,,,cyan,I
1284.0,4.0,4.0,0.0,4.0,4.0,434.925485000349,3.0,1.0,phase_1,,,,,,,,,,,,,gray,triangle
650.0,7.0,3.0,1.0,4.0,4.0,510.1560309994966,3.0,1.0,phase_1,,,,,,,,,,,,,orange,flipped triangle
0.0,2.0,0.0,0.0,3.0,3.0,451.5016659997855,3.0,1.0,phase_1,,,,,,,,,,,,,white,cross
310.0,2.0,2.0,0.0,3.0,3.0,444.7570719994473,3.0,1.0,phase_1,,,,,,,,,,,,,white,cross
168.0,5.0,1.0,1.0,2.0,2.0,519.3027960003747,3.0,1.0,phase_1,,,,,,,,,,,,,cyan,I
308.0,6.0,2.0,1.0,3.0,3.0,471.4337109999178,3.0,1.0,phase_1,,,,,,,,,,,,,green,circle
642.0,7.0,3.0,1.0,4.0,4.0,490.001946999655,3.0,1.0,phase_1,,,,,,,,,,,,,orange,flipped triangle
0.0,1.0,0.0,0.0,4.0,4.0,453.474866999386,3.0,1.0,phase_1,,,,,,,,,,,,,yellow,hexagon
1307.0,4.0,4.0,0.0,3.0,3.0,489.5654129995819,3.0,1.0,phase_1,,,,,,,,,,,,,gray,triangle
1321.0,4.0,4.0,0.0,1.0,1.0,406.1685850001595,3.0,1.0,phase_1,,,,,,,,,,,,,gray,triangle
145.0,1.0,1.0,0.0,3.0,3.0,557.4060160006411,3.0,1.0,phase_1,,,,,,,,,,,,,yellow,hexagon
625.0,7.0,3.0,1.0,3.0,3.0,443.7225650008258,3.0,1.0,phase_1,,,,,,,,,,,,,orange,flipped triangle
1307.0,8.0,4.0,1.0,1.0,1.0,488.6921869992875,3.0,1.0,phase_1,,,,,,,,,,,,,magenta,diamond
314.0,6.0,2.0,1.0,4.0,4.0,445.9995370007164,3.0,1.0,phase_1,,,,,,,,,,,,,green,circle
146.0,5.0,1.0,1.0,2.0,2.0,416.3422969995736,3.0,1.0,phase_1,,,,,,,,,,,,,cyan,I
661.0,3.0,3.0,0.0,2.0,2.0,489.8028710003927,3.0,1.0,phase_1,,,,,,,,,,,,,blue,square
154.0,1.0,1.0,0.0,2.0,2.0,434.3059519997041,3.0,1.0,phase_1,,,,,,,,,,,,,yellow,hexagon
321.0,2.0,2.0,0.0,1.0,1.0,525.8905470000172,3.0,1.0,phase_1,,,,,,,,,,,,,white,cross
321.0,6.0,2.0,1.0,1.0,1.0,498.5775739996825,3.0,1.0,phase_1,,,,,,,,,,,,,green,circle
0.0,7.0,0.0,1.0,3.0,3.0,498.8229319997117,3.0,1.0,phase_1,,,,,,,,,,,,,orange,flipped triangle
0.0,1.0,0.0,0.0,2.0,2.0,425.2306569997017,3.0,1.0,phase_1,,,,,,,,,,,,,yellow,hexagon
176.0,5.0,1.0,1.0,1.0,1.0,397.2775390002425,3.0,1.0,phase_1,,,,,,,,,,,,,cyan,I
315.0,2.0,2.0,0.0,1.0,1.0,515.9368950007774,3.0,1.0,phase_1,,,,,,,,,,,,,white,cross
322.0,2.0,2.0,0.0,2.0,2.0,361.8729130002975,3.0,1.0,phase_1,,,,,,,,,,,,,white,cross
0.0,2.0,0.0,0.0,3.0,3.0,434.5696410000528,3.0,1.0,phase_1,,,,,,,,,,,,,white,cross
0.0,3.0,0.0,0.0,2.0,2.0,480.6334719996812,3.0,1.0,phase_1,,,,,,,,,,,,,blue,square
160.0,1.0,1.0,0.0,4.0,4.0,314.4083380002485,3.0,1.0,phase_1,,,,,,,,,,,,,yellow,hexagon
346.0,6.0,2.0,1.0,2.0,2.0,454.1020480000952,3.0,1.0,phase_1,,,,,,,,,,,,,green,circle
170.0,5.0,1.0,1.0,2.0,2.0,379.1830589998426,3.0,1.0,phase_1,,,,,,,,,,,,,cyan,I
0.0,7.0,0.0,1.0,4.0,4.0,415.9141580003052,3.0,1.0,phase_1,,,,,,,,,,,,,orange,flipped triangle
0.0,5.0,0.0,1.0,3.0,3.0,462.6882350003143,3.0,1.0,phase_1,,,,,,,,,,,,,cyan,I
0.0,3.0,0.0,0.0,2.0,2.0,342.4985069996182,3.0,1.0,phase_1,,,,,,,,,,,,,blue,square
0.0,5.0,0.0,1.0,3.0,3.0,470.3657110003405,3.0,1.0,phase_1,,,,,,,,,,,,,cyan,I
184.0,1.0,1.0,0.0,4.0,4.0,415.802077999615,3.0,1.0,phase_1,,,,,,,,,,,,,yellow,hexagon
0.0,6.0,0.0,1.0,2.0,2.0,443.5790019997512,3.0,1.0,phase_1,,,,,,,,,,,,,green,circle
152.0,1.0,1.0,0.0,1.0,1.0,462.5535619998118,3.0,1.0,phase_1,,,,,,,,,,,,,yellow,hexagon
0.0,4.0,0.0,0.0,2.0,2.0,379.5978359994478,3.0,1.0,phase_1,,,,,,,,,,,,,gray,triangle
305.0,2.0,2.0,0.0,4.0,4.0,434.73262399948,3.0,1.0,phase_1,,,,,,,,,,,,,white,cross
173.0,1.0,1.0,0.0,3.0,3.0,434.1580159998557,3.0,1.0,phase_1,,,,,,,,,,,,,yellow,hexagon
1308.0,4.0,4.0,0.0,2.0,2.0,351.8332960002226,3.0,1.0,phase_1,,,,,,,,,,,,,gray,triangle
314.0,2.0,2.0,0.0,2.0,2.0,461.1983600007079,3.0,1.0,phase_1,,,,,,,,,,,,,white,cross
337.0,2.0,2.0,0.0,1.0,1.0,897.6735399992322,3.0,1.0,phase_1,,,,,,,,,,,,,white,cross
0.0,5.0,0.0,1.0,4.0,4.0,490.8039059992006,3.0,1.0,phase_1,,,,,,,,,,,,,cyan,I
322.0,2.0,2.0,0.0,4.0,4.0,471.6163990005952,3.0,1.0,phase_1,,,,,,,,,,,,,white,cross
166.0,1.0,1.0,0.0,4.0,4.0,434.4420560000799,3.0,1.0,phase_1,,,,,,,,,,,,,yellow,hexagon
1298.0,8.0,4.0,1.0,3.0,3.0,489.8842709999371,3.0,1.0,phase_1,,,,,,,,,,,,,magenta,diamond
0.0,3.0,0.0,0.0,2.0,2.0,562.473940000018,3.0,1.0,phase_1,,,,,,,,,,,,,blue,square
303.0,6.0,2.0,1.0,4.0,4.0,544.2860279999877,3.0,1.0,phase_1,,,,,,,,,,,,,green,circle
151.0,5.0,1.0,1.0,3.0,3.0,499.5943540006919,3.0,1.0,phase_1,,,,,,,,,,,,,cyan,I
0.0,6.0,0.0,1.0,1.0,1.0,573.9488660001371,3.0,1.0,phase_1,,,,,,,,,,,,,green,circle
342.0,2.0,2.0,0.0,2.0,2.0,489.0207239996016,3.0,1.0,phase_1,,,,,,,,,,,,,white,cross
325.0,6.0,2.0,1.0,4.0,4.0,416.3511010001457,3.0,1.0,phase_1,,,,,,,,,,,,,green,circle
162.0,5.0,1.0,1.0,3.0,3.0,498.8129620005566,3.0,1.0,phase_1,,,,,,,,,,,,,cyan,I
0.0,5.0,0.0,1.0,4.0,4.0,398.1055069998547,3.0,1.0,phase_1,,,,,,,,,,,,,cyan,I
0.0,8.0,0.0,1.0,4.0,4.0,463.6272480001935,3.0,1.0,phase_1,,,,,,,,,,,,,magenta,diamond
661.0,7.0,3.0,1.0,3.0,3.0,397.9215819999808,3.0,1.0,phase_1,,,,,,,,,,,,,orange,flipped triangle
327.0,6.0,2.0,1.0,3.0,3.0,453.0333989996506,3.0,1.0,phase_1,,,,,,,,,,,,,green,circle
1298.0,8.0,4.0,1.0,1.0,1.0,471.3951990006535,3.0,1.0,phase_1,,,,,,,,,,,,,magenta,diamond
635.0,7.0,3.0,1.0,1.0,1.0,390.1156990004892,4.0,1.0,phase_1,,,,,,,,,,,,,orange,flipped triangle
1276.0,8.0,4.0,1.0,3.0,3.0,398.8780959998621,4.0,1.0,phase_1,,,,,,,,,,,,,magenta,diamond
0.0,4.0,0.0,0.0,4.0,4.0,436.7854799993438,4.0,1.0,phase_1,,,,,,,,,,,,,gray,triangle
151.0,1.0,1.0,0.0,2.0,2.0,351.7664179998974,4.0,1.0,phase_1,,,,,,,,,,,,,yellow,hexagon
0.0,4.0,0.0,0.0,1.0,1.0,398.1298810003864,4.0,1.0,phase_1,,,,,,,,,,,,,gray,triangle
342.0,2.0,2.0,0.0,4.0,4.0,398.5166380007285,4.0,1.0,phase_1,,,,,,,,,,,,,white,cross
177.0,5.0,1.0,1.0,3.0,3.0,464.1179279997232,4.0,1.0,phase_1,,,,,,,,,,,,,cyan,I
325.0,2.0,2.0,0.0,3.0,3.0,389.5016280002892,4.0,1.0,phase_1,,,,,,,,,,,,,white,cross
648.0,3.0,3.0,0.0,4.0,4.0,455.4301279995343,4.0,1.0,phase_1,,,,,,,,,,,,,blue,square
339.0,2.0,2.0,0.0,1.0,1.0,381.5155940001205,4.0,1.0,phase_1,,,,,,,,,,,,,white,cross
186.0,5.0,1.0,1.0,1.0,1.0,397.693824000271,4.0,1.0,phase_1,,,,,,,,,,,,,cyan,I
1319.0,4.0,4.0,0.0,3.0,3.0,379.1370359995198,4.0,1.0,phase_1,,,,,,,,,,,,,gray,triangle
0.0,7.0,0.0,1.0,2.0,2.0,563.9989110004535,4.0,1.0,phase_1,,,,,,,,,,,,,orange,flipped triangle
146.0,1.0,1.0,0.0,1.0,1.0,490.9045809999952,4.0,1.0,phase_1,,,,,,,,,,,,,yellow,hexagon
642.0,3.0,3.0,0.0,4.0,4.0,416.4180580000902,4.0,1.0,phase_1,,,,,,,,,,,,,blue,square
671.0,3.0,3.0,0.0,4.0,4.0,417.8012310003396,4.0,1.0,phase_1,,,,,,,,,,,,,blue,square
1306.0,4.0,4.0,0.0,2.0,2.0,389.4296109992865,4.0,1.0,phase_1,,,,,,,,,,,,,gray,triangle
0.0,5.0,0.0,1.0,1.0,1.0,415.6775219998962,4.0,1.0,phase_1,,,,,,,,,,,,,cyan,I
628.0,3.0,3.0,0.0,2.0,2.0,368.84136900062,4.0,1.0,phase_1,,,,,,,,,,,,,blue,square
149.0,5.0,1.0,1.0,1.0,1.0,369.2378890000327,4.0,1.0,phase_1,,,,,,,,,,,,,cyan,I
1324.0,4.0,4.0,0.0,1.0,1.0,359.8526069999934,4.0,1.0,phase_1,,,,,,,,,,,,,gray,triangle
179.0,5.0,1.0,1.0,3.0,3.0,536.6005289997702,4.0,1.0,phase_1,,,,,,,,,,,,,cyan,I
170.0,1.0,1.0,0.0,1.0,1.0,351.1826779995317,4.0,1.0,phase_1,,,,,,,,,,,,,yellow,hexagon
1282.0,4.0,4.0,0.0,2.0,2.0,443.0366149999827,4.0,1.0,phase_1,,,,,,,,,,,,,gray,triangle
167.0,5.0,1.0,1.0,4.0,4.0,351.7122729999755,4.0,1.0,phase_1,,,,,,,,,,,,,cyan,I
338.0,2.0,2.0,0.0,4.0,4.0,370.8147160004955,4.0,1.0,phase_1,,,,,,,,,,,,,white,cross
0.0,5.0,0.0,1.0,2.0,2.0,304.5240150004247,4.0,1.0,phase_1,,,,,,,,,,,,,cyan,I
648.0,7.0,3.0,1.0,3.0,3.0,444.9209650001648,4.0,1.0,phase_1,,,,,,,,,,,,,orange,flipped triangle
182.0,1.0,1.0,0.0,4.0,4.0,406.7504410004403,4.0,1.0,phase_1,,,,,,,,,,,,,yellow,hexagon
184.0,5.0,1.0,1.0,2.0,2.0,315.9250979997523,4.0,1.0,phase_1,,,,,,,,,,,,,cyan,I
184.0,1.0,1.0,0.0,2.0,2.0,424.9707519993535,4.0,1.0,phase_1,,,,,,,,,,,,,yellow,hexagon
647.0,7.0,3.0,1.0,4.0,4.0,397.2180210002989,4.0,1.0,phase_1,,,,,,,,,,,,,orange,flipped triangle
672.0,3.0,3.0,0.0,2.0,2.0,407.0947990003333,4.0,1.0,phase_1,,,,,,,,,,,,,blue,square
146.0,1.0,1.0,0.0,4.0,4.0,333.2194170006914,4.0,1.0,phase_1,,,,,,,,,,,,,yellow,hexagon
0.0,7.0,0.0,1.0,3.0,3.0,425.6539940006405,4.0,1.0,phase_1,,,,,,,,,,,,,orange,flipped triangle
308.0,2.0,2.0,0.0,2.0,2.0,314.9967560002551,4.0,1.0,phase_1,,,,,,,,,,,,,white,cross
656.0,7.0,3.0,1.0,2.0,2.0,315.2733729993997,4.0,1.0,phase_1,,,,,,,,,,,,,orange,flipped triangle
173.0,5.0,1.0,1.0,1.0,1.0,445.0594340005409,4.0,1.0,phase_1,,,,,,,,,,,,,cyan,I
0.0,8.0,0.0,1.0,4.0,4.0,434.7667609999917,4.0,1.0,phase_1,,,,,,,,,,,,,magenta,diamond
340.0,6.0,2.0,1.0,2.0,2.0,333.0609479999111,4.0,1.0,phase_1,,,,,,,,,,,,,green,circle
671.0,7.0,3.0,1.0,1.0,1.0,361.1180979996788,4.0,1.0,phase_1,,,,,,,,,,,,,orange,flipped triangle
1309.0,4.0,4.0,0.0,2.0,2.0,303.5891380004614,4.0,1.0,phase_1,,,,,,,,,,,,,gray,triangle
642.0,7.0,3.0,1.0,3.0,3.0,378.8133499992909,4.0,1.0,phase_1,,,,,,,,,,,,,orange,flipped triangle
660.0,3.0,3.0,0.0,1.0,1.0,323.76830999965017,4.0,1.0,phase_1,,,,,,,,,,,,,blue,square
646.0,7.0,3.0,1.0,2.0,2.0,361.1712780002563,4.0,1.0,phase_1,,,,,,,,,,,,,orange,flipped triangle
1316.0,4.0,4.0,0.0,4.0,4.0,333.3975629993801,4.0,1.0,phase_1,,,,,,,,,,,,,gray,triangle
671.0,3.0,3.0,0.0,1.0,1.0,369.0251980005996,4.0,1.0,phase_1,,,,,,,,,,,,,blue,square
0.0,3.0,0.0,0.0,4.0,4.0,397.9094700007408,4.0,1.0,phase_1,,,,,,,,,,,,,blue,square
1290.0,4.0,4.0,0.0,3.0,3.0,417.0758420004858,4.0,1.0,phase_1,,,,,,,,,,,,,gray,triangle
338.0,6.0,2.0,1.0,3.0,3.0,462.2695680000106,4.0,1.0,phase_1,,,,,,,,,,,,,green,circle
153.0,1.0,1.0,0.0,4.0,4.0,462.0614469995416,4.0,1.0,phase_1,,,,,,,,,,,,,yellow,hexagon
1308.0,8.0,4.0,1.0,3.0,3.0,406.6739990003043,4.0,1.0,phase_1,,,,,,,,,,,,,magenta,diamond
346.0,2.0,2.0,0.0,3.0,3.0,389.4078100001934,4.0,1.0,phase_1,,,,,,,,,,,,,white,cross
330.0,2.0,2.0,0.0,1.0,1.0,434.2316060001394,4.0,1.0,phase_1,,,,,,,,,,,,,white,cross
346.0,6.0,2.0,1.0,2.0,2.0,352.407243000016,4.0,1.0,phase_1,,,,,,,,,,,,,green,circle
1297.0,4.0,4.0,0.0,1.0,1.0,537.257879000208,4.0,1.0,phase_1,,,,,,,,,,,,,gray,triangle
166.0,5.0,1.0,1.0,4.0,4.0,405.7259720002548,4.0,1.0,phase_1,,,,,,,,,,,,,cyan,I
1280.0,4.0,4.0,0.0,4.0,4.0,427.4718490005398,4.0,1.0,phase_1,,,,,,,,,,,,,gray,triangle
1294.0,8.0,4.0,1.0,2.0,2.0,434.2342499994629,4.0,1.0,phase_1,,,,,,,,,,,,,magenta,diamond
143.0,5.0,1.0,1.0,3.0,3.0,388.7712089999695,4.0,1.0,phase_1,,,,,,,,,,,,,cyan,I
322.0,2.0,2.0,0.0,3.0,3.0,388.3891410005162,4.0,1.0,phase_1,,,,,,,,,,,,,white,cross
672.0,7.0,3.0,1.0,1.0,1.0,453.8710549995812,4.0,1.0,phase_1,,,,,,,,,,,,,orange,flipped triangle
310.0,6.0,2.0,1.0,3.0,3.0,509.1294519997973,4.0,1.0,phase_1,,,,,,,,,,,,,green,circle
1319.0,4.0,4.0,0.0,3.0,3.0,471.9092639998052,4.0,1.0,phase_1,,,,,,,,,,,,,gray,triangle
1291.0,4.0,4.0,0.0,3.0,3.0,461.225345999992,4.0,1.0,phase_1,,,,,,,,,,,,,gray,triangle
0.0,7.0,0.0,1.0,1.0,1.0,443.9512160006416,4.0,1.0,phase_1,,,,,,,,,,,,,orange,flipped triangle
669.0,3.0,3.0,0.0,2.0,2.0,480.7219450003686,4.0,1.0,phase_1,,,,,,,,,,,,,blue,square
309.0,6.0,2.0,1.0,2.0,2.0,342.4095969994596,4.0,1.0,phase_1,,,,,,,,,,,,,green,circle
650.0,3.0,3.0,0.0,1.0,1.0,341.3111070003651,4.0,1.0,phase_1,,,,,,,,,,,,,blue,square
661.0,7.0,3.0,1.0,2.0,2.0,316.2906530005784,4.0,1.0,phase_1,,,,,,,,,,,,,orange,flipped triangle
1298.0,4.0,4.0,0.0,2.0,2.0,352.3463120000087,4.0,1.0,phase_1,,,,,,,,,,,,,gray,triangle
1282.0,8.0,4.0,1.0,2.0,2.0,333.2403219992557,4.0,1.0,phase_1,,,,,,,,,,,,,magenta,diamond
322.0,6.0,2.0,1.0,4.0,4.0,322.2402230003354,4.0,1.0,phase_1,,,,,,,,,,,,,green,circle
337.0,6.0,2.0,1.0,2.0,2.0,313.3411099997829,4.0,1.0,phase_1,,,,,,,,,,,,,green,circle
635.0,7.0,3.0,1.0,2.0,2.0,434.3440399998144,4.0,1.0,phase_1,,,,,,,,,,,,,orange,flipped triangle
1295.0,4.0,4.0,0.0,3.0,3.0,415.3798420002204,4.0,1.0,phase_1,,,,,,,,,,,,,gray,triangle
330.0,6.0,2.0,1.0,1.0,1.0,288.0731790000936,4.0,1.0,phase_1,,,,,,,,,,,,,green,circle
663.0,3.0,3.0,0.0,2.0,2.0,332.1259429994825,4.0,1.0,phase_1,,,,,,,,,,,,,blue,square
0.0,6.0,0.0,1.0,1.0,1.0,490.8110610003859,4.0,1.0,phase_1,,,,,,,,,,,,,green,circle
0.0,2.0,0.0,0.0,4.0,4.0,406.7273499995281,4.0,1.0,phase_1,,,,,,,,,,,,,white,cross
1303.0,8.0,4.0,1.0,4.0,4.0,407.9311639998195,4.0,1.0,phase_1,,,,,,,,,,,,,magenta,diamond
0.0,1.0,0.0,0.0,4.0,4.0,417.751734000376,4.0,1.0,phase_1,,,,,,,,,,,,,yellow,hexagon
654.0,3.0,3.0,0.0,3.0,3.0,491.1724439998579,4.0,1.0,phase_1,,,,,,,,,,,,,blue,square
0.0,4.0,0.0,0.0,2.0,2.0,565.5801270004304,4.0,1.0,phase_1,,,,,,,,,,,,,gray,triangle
626.0,7.0,3.0,1.0,2.0,2.0,352.0759409993843,4.0,1.0,phase_1,,,,,,,,,,,,,orange,flipped triangle
1276.0,4.0,4.0,0.0,1.0,1.0,470.5267930003174,4.0,1.0,phase_1,,,,,,,,,,,,,gray,triangle
333.0,2.0,2.0,0.0,3.0,3.0,370.9735069996895,4.0,1.0,phase_1,,,,,,,,,,,,,white,cross
1298.0,4.0,4.0,0.0,2.0,2.0,342.166138999346,4.0,1.0,phase_1,,,,,,,,,,,,,gray,triangle
0.0,4.0,0.0,0.0,2.0,2.0,340.8585140005016,4.0,1.0,phase_1,,,,,,,,,,,,,gray,triangle
654.0,7.0,3.0,1.0,2.0,2.0,351.5568650000205,4.0,1.0,phase_1,,,,,,,,,,,,,orange,flipped triangle
173.0,1.0,1.0,0.0,2.0,2.0,370.2753239995218,4.0,1.0,phase_1,,,,,,,,,,,,,yellow,hexagon
160.0,5.0,1.0,1.0,1.0,1.0,415.618029000143,4.0,1.0,phase_1,,,,,,,,,,,,,cyan,I
323.0,6.0,2.0,1.0,1.0,1.0,379.7511249995295,4.0,1.0,phase_1,,,,,,,,,,,,,green,circle
1295.0,8.0,4.0,1.0,4.0,4.0,436.0914440003398,4.0,1.0,phase_1,,,,,,,,,,,,,magenta,diamond
1318.0,8.0,4.0,1.0,1.0,1.0,416.4657690007516,4.0,1.0,phase_1,,,,,,,,,,,,,magenta,diamond
657.0,7.0,3.0,1.0,3.0,3.0,471.1472340004548,4.0,1.0,phase_1,,,,,,,,,,,,,orange,flipped triangle
309.0,2.0,2.0,0.0,3.0,3.0,461.5755300001183,4.0,1.0,phase_1,,,,,,,,,,,,,white,cross
137.0,5.0,1.0,1.0,4.0,4.0,415.4382149999946,4.0,1.0,phase_1,,,,,,,,,,,,,cyan,I
184.0,5.0,1.0,1.0,1.0,1.0,360.76764200061,4.0,1.0,phase_1,,,,,,,,,,,,,cyan,I
1322.0,8.0,4.0,1.0,2.0,2.0,343.2195719997253,4.0,1.0,phase_1,,,,,,,,,,,,,magenta,diamond
0.0,5.0,1.0,1.0,5.0,0.0,0.0,1.0,1.0,phase_2,stop,250.0,250.0,4.0,,,,,,,,,cyan,I
0.0,8.0,4.0,1.0,5.0,5.0,398.923337999804,1.0,1.0,phase_2,stop,300.0,250.0,3.0,,,,,,,,,magenta,diamond
0.0,2.0,2.0,0.0,6.0,6.0,828.7049190003017,1.0,1.0,phase_2,go,250.0,250.0,1.0,,,,,,,,,white,cross
0.0,5.0,1.0,1.0,6.0,0.0,0.0,1.0,1.0,phase_2,stop,250.0,250.0,4.0,,,,,,,,,cyan,I
0.0,1.0,1.0,0.0,5.0,5.0,737.0287120002104,1.0,1.0,phase_2,go,250.0,300.0,1.0,,,,,,,,,yellow,hexagon
0.0,1.0,1.0,0.0,5.0,5.0,763.1506019997687,1.0,1.0,phase_2,go,250.0,300.0,1.0,,,,,,,,,yellow,hexagon
0.0,6.0,2.0,1.0,6.0,6.0,501.779448999514,1.0,1.0,phase_2,stop,250.0,300.0,3.0,,,,,,,,,green,circle
0.0,6.0,2.0,1.0,5.0,0.0,0.0,1.0,1.0,phase_2,stop,250.0,250.0,4.0,,,,,,,,,green,circle
0.0,4.0,4.0,0.0,6.0,6.0,370.8782260000589,1.0,1.0,phase_2,go,300.0,250.0,1.0,,,,,,,,,gray,triangle
0.0,7.0,3.0,1.0,5.0,0.0,0.0,1.0,1.0,phase_2,stop,300.0,250.0,4.0,,,,,,,,,orange,flipped triangle
0.0,6.0,2.0,1.0,6.0,6.0,365.8078890002798,1.0,1.0,phase_2,stop,350.0,250.0,3.0,,,,,,,,,green,circle
0.0,3.0,3.0,0.0,6.0,6.0,726.6600699995251,1.0,1.0,phase_2,go,350.0,200.0,1.0,,,,,,,,,blue,square
0.0,4.0,4.0,0.0,5.0,5.0,585.4252899998755,1.0,1.0,phase_2,go,350.0,200.0,1.0,,,,,,,,,gray,triangle
0.0,6.0,2.0,1.0,5.0,5.0,728.3482820002973,1.0,1.0,phase_2,go,350.0,200.0,1.0,,,,,,,,,green,circle
0.0,8.0,4.0,1.0,5.0,5.0,735.5968519996168,1.0,1.0,phase_2,go,350.0,200.0,1.0,,,,,,,,,magenta,diamond
0.0,4.0,4.0,0.0,6.0,6.0,315.7881240003917,1.0,1.0,phase_2,go,350.0,200.0,1.0,,,,,,,,,gray,triangle
0.0,1.0,1.0,0.0,5.0,5.0,549.2531330000929,1.0,1.0,phase_2,go,350.0,200.0,1.0,,,,,,,,,yellow,hexagon
0.0,1.0,1.0,0.0,6.0,6.0,316.6669460006233,1.0,1.0,phase_2,go,350.0,200.0,1.0,,,,,,,,,yellow,hexagon
0.0,8.0,4.0,1.0,6.0,6.0,724.1604219998408,1.0,1.0,phase_2,go,350.0,200.0,1.0,,,,,,,,,magenta,diamond
0.0,2.0,2.0,0.0,5.0,5.0,362.6898530001199,1.0,1.0,phase_2,go,350.0,200.0,1.0,,,,,,,,,white,cross
0.0,7.0,3.0,1.0,6.0,0.0,0.0,1.0,1.0,phase_2,stop,350.0,200.0,4.0,,,,,,,,,orange,flipped triangle
0.0,4.0,4.0,0.0,6.0,6.0,567.2722019999128,1.0,1.0,phase_2,go,350.0,250.0,1.0,,,,,,,,,gray,triangle
0.0,4.0,4.0,0.0,5.0,5.0,379.1489850000289,1.0,1.0,phase_2,go,350.0,250.0,1.0,,,,,,,,,gray,triangle
0.0,7.0,3.0,1.0,6.0,6.0,941.8469210004332,1.0,1.0,phase_2,go,350.0,250.0,1.0,,,,,,,,,orange,flipped triangle
0.0,4.0,4.0,0.0,5.0,5.0,414.2413629997463,1.0,1.0,phase_2,go,350.0,250.0,1.0,,,,,,,,,gray,triangle
0.0,1.0,1.0,0.0,6.0,6.0,465.4247570006191,1.0,1.0,phase_2,go,350.0,250.0,1.0,,,,,,,,,yellow,hexagon
0.0,8.0,4.0,1.0,5.0,5.0,398.85245400000707,1.0,1.0,phase_2,stop,350.0,250.0,3.0,,,,,,,,,magenta,diamond
0.0,5.0,1.0,1.0,5.0,5.0,419.5904480002355,1.0,1.0,phase_2,stop,300.0,250.0,3.0,,,,,,,,,cyan,I
0.0,5.0,1.0,1.0,5.0,0.0,0.0,1.0,1.0,phase_2,stop,250.0,250.0,4.0,,,,,,,,,cyan,I
0.0,4.0,4.0,0.0,5.0,5.0,495.6314370001564,1.0,1.0,phase_2,go,300.0,250.0,1.0,,,,,,,,,gray,triangle
0.0,7.0,3.0,1.0,5.0,0.0,0.0,1.0,1.0,phase_2,stop,300.0,250.0,4.0,,,,,,,,,orange,flipped triangle
0.0,3.0,3.0,0.0,5.0,5.0,548.7037150005563,1.0,1.0,phase_2,go,350.0,250.0,1.0,,,,,,,,,blue,square
0.0,3.0,3.0,0.0,5.0,5.0,577.9707950005104,1.0,1.0,phase_2,go,350.0,250.0,1.0,,,,,,,,,blue,square
0.0,1.0,1.0,0.0,5.0,5.0,642.6083950000248,1.0,1.0,phase_2,go,350.0,250.0,1.0,,,,,,,,,yellow,hexagon
0.0,3.0,3.0,0.0,5.0,5.0,816.9132590001027,1.0,1.0,phase_2,go,350.0,250.0,1.0,,,,,,,,,blue,square
0.0,8.0,4.0,1.0,6.0,6.0,421.7542599999433,1.0,1.0,phase_2,stop,350.0,250.0,3.0,,,,,,,,,magenta,diamond
0.0,2.0,2.0,0.0,6.0,6.0,392.8284200001144,2.0,1.0,phase_2,go,350.0,200.0,1.0,,,,,,,,,white,cross
0.0,5.0,1.0,1.0,6.0,6.0,364.0987190001397,2.0,1.0,phase_2,stop,350.0,200.0,3.0,,,,,,,,,cyan,I
0.0,6.0,2.0,1.0,6.0,0.0,0.0,2.0,1.0,phase_2,stop,350.0,150.0,4.0,,,,,,,,,green,circle
0.0,7.0,3.0,1.0,5.0,5.0,325.1816829997551,2.0,1.0,phase_2,stop,350.0,200.0,3.0,,,,,,,,,orange,flipped triangle
0.0,4.0,4.0,0.0,6.0,6.0,651.6312069998094,2.0,1.0,phase_2,go,300.0,200.0,1.0,,,,,,,,,gray,triangle
0.0,7.0,3.0,1.0,6.0,0.0,0.0,2.0,1.0,phase_2,stop,300.0,200.0,4.0,,,,,,,,,orange,flipped triangle
0.0,2.0,2.0,0.0,6.0,6.0,520.3936699999758,2.0,1.0,phase_2,go,300.0,250.0,1.0,,,,,,,,,white,cross
0.0,3.0,3.0,0.0,5.0,5.0,346.065445000022,2.0,1.0,phase_2,go,300.0,250.0,1.0,,,,,,,,,blue,square
0.0,1.0,1.0,0.0,6.0,6.0,318.0443709998144,2.0,1.0,phase_2,go,300.0,250.0,1.0,,,,,,,,,yellow,hexagon
0.0,5.0,1.0,1.0,6.0,0.0,0.0,2.0,1.0,phase_2,stop,300.0,250.0,4.0,,,,,,,,,cyan,I
0.0,6.0,2.0,1.0,6.0,6.0,598.9558129995203,2.0,1.0,phase_2,go,300.0,300.0,1.0,,,,,,,,,green,circle
0.0,6.0,2.0,1.0,6.0,6.0,412.0720939999955,2.0,1.0,phase_2,go,300.0,300.0,1.0,,,,,,,,,green,circle
0.0,3.0,3.0,0.0,5.0,5.0,373.0807390002155,2.0,1.0,phase_2,go,300.0,300.0,1.0,,,,,,,,,blue,square
0.0,3.0,3.0,0.0,6.0,6.0,465.7215830002315,2.0,1.0,phase_2,go,300.0,300.0,1.0,,,,,,,,,blue,square
0.0,6.0,2.0,1.0,6.0,0.0,0.0,2.0,1.0,phase_2,stop,300.0,300.0,4.0,,,,,,,,,green,circle
0.0,6.0,2.0,1.0,6.0,6.0,606.7678050003451,2.0,1.0,phase_2,stop,300.0,350.0,3.0,,,,,,,,,green,circle
0.0,8.0,4.0,1.0,6.0,0.0,0.0,2.0,1.0,phase_2,stop,300.0,300.0,4.0,,,,,,,,,magenta,diamond
0.0,1.0,1.0,0.0,5.0,5.0,408.7970270002188,2.0,1.0,phase_2,go,300.0,350.0,1.0,,,,,,,,,yellow,hexagon
0.0,8.0,4.0,1.0,5.0,5.0,781.0313769996355,2.0,1.0,phase_2,go,300.0,350.0,1.0,,,,,,,,,magenta,diamond
0.0,7.0,3.0,1.0,6.0,0.0,0.0,2.0,1.0,phase_2,stop,300.0,350.0,4.0,,,,,,,,,orange,flipped triangle
0.0,8.0,4.0,1.0,5.0,5.0,410.4035609998391,2.0,1.0,phase_2,go,300.0,400.0,1.0,,,,,,,,,magenta,diamond
0.0,7.0,3.0,1.0,5.0,0.0,0.0,2.0,1.0,phase_2,stop,300.0,400.0,4.0,,,,,,,,,orange,flipped triangle
0.0,3.0,3.0,0.0,6.0,6.0,586.8533530001514,2.0,1.0,phase_2,go,350.0,400.0,1.0,,,,,,,,,blue,square
0.0,7.0,3.0,1.0,5.0,0.0,0.0,2.0,1.0,phase_2,stop,350.0,400.0,4.0,,,,,,,,,orange,flipped triangle
0.0,7.0,3.0,1.0,6.0,0.0,0.0,2.0,1.0,phase_2,stop,400.0,400.0,4.0,,,,,,,,,orange,flipped triangle
0.0,3.0,3.0,0.0,6.0,6.0,409.7575490004601,2.0,1.0,phase_2,go,400.0,450.0,1.0,,,,,,,,,blue,square
0.0,6.0,2.0,1.0,5.0,5.0,762.838902999647,2.0,1.0,phase_2,go,400.0,450.0,1.0,,,,,,,,,green,circle
0.0,1.0,1.0,0.0,6.0,6.0,483.8820590002797,2.0,1.0,phase_2,go,400.0,450.0,1.0,,,,,,,,,yellow,hexagon
0.0,7.0,3.0,1.0,5.0,5.0,565.677673999744,2.0,1.0,phase_2,stop,400.0,450.0,3.0,,,,,,,,,orange,flipped triangle
0.0,1.0,1.0,0.0,5.0,5.0,746.6402170002766,2.0,1.0,phase_2,go,350.0,450.0,1.0,,,,,,,,,yellow,hexagon
0.0,8.0,4.0,1.0,6.0,6.0,591.8569380000918,2.0,1.0,phase_2,stop,350.0,450.0,3.0,,,,,,,,,magenta,diamond
0.0,5.0,1.0,1.0,5.0,5.0,644.2991679996339,2.0,1.0,phase_2,go,350.0,400.0,1.0,,,,,,,,,cyan,I
0.0,3.0,3.0,0.0,6.0,6.0,558.314378000432,2.0,1.0,phase_2,go,350.0,400.0,1.0,,,,,,,,,blue,square
0.0,7.0,3.0,1.0,5.0,0.0,0.0,2.0,1.0,phase_2,stop,350.0,400.0,4.0,,,,,,,,,orange,flipped triangle
0.0,8.0,4.0,1.0,6.0,6.0,663.2152960000894,2.0,1.0,phase_2,go,400.0,400.0,1.0,,,,,,,,,magenta,diamond
0.0,3.0,3.0,0.0,6.0,6.0,585.6368240001757,2.0,1.0,phase_2,go,400.0,400.0,1.0,,,,,,,,,blue,square
0.0,3.0,3.0,0.0,5.0,5.0,635.7604200002243,3.0,1.0,phase_2,go,400.0,400.0,1.0,,,,,,,,,blue,square
0.0,6.0,2.0,1.0,5.0,5.0,475.186004000534,3.0,1.0,phase_2,go,400.0,400.0,1.0,,,,,,,,,green,circle
0.0,5.0,1.0,1.0,5.0,5.0,383.3516199993028,3.0,1.0,phase_2,stop,400.0,400.0,3.0,,,,,,,,,cyan,I
0.0,4.0,4.0,0.0,5.0,5.0,634.2699110000467,3.0,1.0,phase_2,go,350.0,400.0,1.0,,,,,,,,,gray,triangle
0.0,4.0,4.0,0.0,5.0,5.0,419.0858629999638,3.0,1.0,phase_2,go,350.0,400.0,1.0,,,,,,,,,gray,triangle
0.0,1.0,1.0,0.0,6.0,6.0,474.8282700002164,3.0,1.0,phase_2,go,350.0,400.0,1.0,,,,,,,,,yellow,hexagon
0.0,1.0,1.0,0.0,6.0,6.0,411.1670009997397,3.0,1.0,phase_2,go,350.0,400.0,1.0,,,,,,,,,yellow,hexagon
0.0,4.0,4.0,0.0,6.0,6.0,466.8609400005152,3.0,1.0,phase_2,go,350.0,400.0,1.0,,,,,,,,,gray,triangle
0.0,5.0,1.0,1.0,5.0,5.0,442.9447779994007,3.0,1.0,phase_2,stop,350.0,400.0,3.0,,,,,,,,,cyan,I
0.0,2.0,2.0,0.0,5.0,5.0,503.4325930000705,3.0,1.0,phase_2,go,300.0,400.0,1.0,,,,,,,,,white,cross
0.0,1.0,1.0,0.0,5.0,5.0,410.8395760003986,3.0,1.0,phase_2,go,300.0,400.0,1.0,,,,,,,,,yellow,hexagon
0.0,8.0,4.0,1.0,6.0,6.0,507.9459959997621,3.0,1.0,phase_2,stop,300.0,400.0,3.0,,,,,,,,,magenta,diamond
0.0,8.0,4.0,1.0,6.0,0.0,0.0,3.0,1.0,phase_2,stop,300.0,350.0,4.0,,,,,,,,,magenta,diamond
0.0,2.0,2.0,0.0,5.0,5.0,541.6241100001571,3.0,1.0,phase_2,go,300.0,400.0,1.0,,,,,,,,,white,cross
0.0,1.0,1.0,0.0,6.0,6.0,437.8852540003208,3.0,1.0,phase_2,go,300.0,400.0,1.0,,,,,,,,,yellow,hexagon
0.0,5.0,1.0,1.0,6.0,6.0,441.537139000502,3.0,1.0,phase_2,stop,300.0,400.0,3.0,,,,,,,,,cyan,I
0.0,1.0,1.0,0.0,5.0,5.0,606.7204329992819,3.0,1.0,phase_2,go,300.0,350.0,1.0,,,,,,,,,yellow,hexagon
0.0,2.0,2.0,0.0,6.0,6.0,528.6719690002428,3.0,1.0,phase_2,go,300.0,350.0,1.0,,,,,,,,,white,cross
0.0,8.0,4.0,1.0,5.0,0.0,0.0,3.0,1.0,phase_2,stop,300.0,350.0,4.0,,,,,,,,,magenta,diamond
0.0,4.0,4.0,0.0,6.0,6.0,660.9298430003037,3.0,1.0,phase_2,go,350.0,350.0,1.0,,,,,,,,,gray,triangle
0.0,1.0,1.0,0.0,6.0,6.0,475.6189320005433,3.0,1.0,phase_2,go,350.0,350.0,1.0,,,,,,,,,yellow,hexagon
0.0,1.0,1.0,0.0,5.0,5.0,512.417877000189,3.0,1.0,phase_2,go,350.0,350.0,1.0,,,,,,,,,yellow,hexagon
0.0,5.0,1.0,1.0,6.0,0.0,0.0,3.0,1.0,phase_2,stop,350.0,350.0,4.0,,,,,,,,,cyan,I
0.0,7.0,3.0,1.0,5.0,0.0,0.0,3.0,1.0,phase_2,stop,350.0,400.0,4.0,,,,,,,,,orange,flipped triangle
0.0,5.0,1.0,1.0,6.0,0.0,0.0,3.0,1.0,phase_2,stop,400.0,400.0,4.0,,,,,,,,,cyan,I
0.0,7.0,3.0,1.0,5.0,5.0,364.1417039998487,3.0,1.0,phase_2,go,400.0,450.0,1.0,,,,,,,,,orange,flipped triangle
0.0,4.0,4.0,0.0,6.0,6.0,661.1999090000609,3.0,1.0,phase_2,go,400.0,450.0,1.0,,,,,,,,,gray,triangle
0.0,2.0,2.0,0.0,6.0,6.0,679.52909899941,3.0,1.0,phase_2,go,400.0,450.0,1.0,,,,,,,,,white,cross
0.0,8.0,4.0,1.0,5.0,0.0,0.0,3.0,1.0,phase_2,stop,400.0,450.0,4.0,,,,,,,,,magenta,diamond
0.0,7.0,3.0,1.0,6.0,0.0,0.0,3.0,1.0,phase_2,stop,450.0,450.0,4.0,,,,,,,,,orange,flipped triangle
0.0,1.0,1.0,0.0,6.0,6.0,595.7995569997365,3.0,1.0,phase_2,go,450.0,500.0,1.0,,,,,,,,,yellow,hexagon
0.0,2.0,2.0,0.0,5.0,5.0,530.6879990002926,3.0,1.0,phase_2,go,450.0,500.0,1.0,,,,,,,,,white,cross
0.0,4.0,4.0,0.0,6.0,6.0,493.0723269999362,3.0,1.0,phase_2,go,450.0,500.0,1.0,,,,,,,,,gray,triangle
0.0,5.0,1.0,1.0,6.0,0.0,0.0,3.0,1.0,phase_2,stop,450.0,500.0,4.0,,,,,,,,,cyan,I
0.0,1.0,1.0,0.0,6.0,6.0,633.9130429996658,3.0,1.0,phase_2,go,450.0,550.0,1.0,,,,,,,,,yellow,hexagon
0.0,2.0,2.0,0.0,5.0,5.0,447.6949609997973,3.0,1.0,phase_2,go,450.0,550.0,1.0,,,,,,,,,white,cross
0.0,6.0,2.0,1.0,6.0,6.0,503.5057869999946,4.0,1.0,phase_2,stop,450.0,550.0,3.0,,,,,,,,,green,circle
0.0,2.0,2.0,0.0,5.0,5.0,522.9547300004924,4.0,1.0,phase_2,go,450.0,500.0,1.0,,,,,,,,,white,cross
0.0,1.0,1.0,0.0,6.0,6.0,529.9490300003526,4.0,1.0,phase_2,go,450.0,500.0,1.0,,,,,,,,,yellow,hexagon
0.0,4.0,4.0,0.0,6.0,6.0,575.8812340000077,4.0,1.0,phase_2,go,450.0,500.0,1.0,,,,,,,,,gray,triangle
0.0,1.0,1.0,0.0,6.0,6.0,503.22642300034204,4.0,1.0,phase_2,go,450.0,500.0,1.0,,,,,,,,,yellow,hexagon
0.0,3.0,3.0,0.0,6.0,6.0,344.9680539997644,4.0,1.0,phase_2,go,450.0,500.0,1.0,,,,,,,,,blue,square
0.0,5.0,1.0,1.0,5.0,0.0,0.0,4.0,1.0,phase_2,stop,450.0,500.0,4.0,,,,,,,,,cyan,I
0.0,4.0,4.0,0.0,5.0,5.0,616.0710459998882,4.0,1.0,phase_2,go,500.0,500.0,1.0,,,,,,,,,gray,triangle
0.0,3.0,3.0,0.0,6.0,6.0,438.4640410007705,4.0,1.0,phase_2,go,500.0,500.0,1.0,,,,,,,,,blue,square
0.0,4.0,4.0,0.0,6.0,6.0,503.96003700006986,4.0,1.0,phase_2,go,500.0,500.0,1.0,,,,,,,,,gray,triangle
0.0,3.0,3.0,0.0,5.0,5.0,532.332786000552,4.0,1.0,phase_2,go,500.0,500.0,1.0,,,,,,,,,blue,square
0.0,2.0,2.0,0.0,6.0,6.0,391.2291400001777,4.0,1.0,phase_2,go,500.0,500.0,1.0,,,,,,,,,white,cross
0.0,3.0,3.0,0.0,6.0,6.0,393.4405830004834,4.0,1.0,phase_2,go,500.0,500.0,1.0,,,,,,,,,blue,square
0.0,8.0,4.0,1.0,5.0,0.0,0.0,4.0,1.0,phase_2,stop,500.0,500.0,4.0,,,,,,,,,magenta,diamond
0.0,6.0,2.0,1.0,5.0,5.0,605.9973280007398,4.0,1.0,phase_2,stop,550.0,500.0,3.0,,,,,,,,,green,circle
0.0,2.0,2.0,0.0,6.0,6.0,530.7549190001737,4.0,1.0,phase_2,go,500.0,500.0,1.0,,,,,,,,,white,cross
0.0,2.0,2.0,0.0,5.0,5.0,560.7772260000274,4.0,1.0,phase_2,go,500.0,500.0,1.0,,,,,,,,,white,cross
0.0,8.0,4.0,1.0,5.0,0.0,0.0,4.0,1.0,phase_2,stop,500.0,500.0,4.0,,,,,,,,,magenta,diamond
0.0,8.0,4.0,1.0,5.0,0.0,0.0,4.0,1.0,phase_2,stop,550.0,500.0,4.0,,,,,,,,,magenta,diamond
0.0,3.0,3.0,0.0,5.0,5.0,776.2764340004651,4.0,1.0,phase_2,go,600.0,500.0,1.0,,,,,,,,,blue,square
0.0,6.0,2.0,1.0,5.0,0.0,0.0,4.0,1.0,phase_2,stop,600.0,500.0,4.0,,,,,,,,,green,circle
0.0,1.0,1.0,0.0,5.0,5.0,623.9612549998128,4.0,1.0,phase_2,go,650.0,500.0,1.0,,,,,,,,,yellow,hexagon
0.0,4.0,4.0,0.0,5.0,5.0,543.6980459999177,4.0,1.0,phase_2,go,650.0,500.0,1.0,,,,,,,,,gray,triangle
0.0,6.0,2.0,1.0,5.0,0.0,0.0,4.0,1.0,phase_2,stop,650.0,500.0,4.0,,,,,,,,,green,circle
0.0,4.0,4.0,0.0,6.0,6.0,596.609823000108,4.0,1.0,phase_2,go,700.0,500.0,1.0,,,,,,,,,gray,triangle
0.0,3.0,3.0,0.0,5.0,5.0,520.5820760002098,4.0,1.0,phase_2,go,700.0,500.0,1.0,,,,,,,,,blue,square
0.0,5.0,1.0,1.0,5.0,0.0,0.0,4.0,1.0,phase_2,stop,700.0,500.0,4.0,,,,,,,,,cyan,I
0.0,5.0,1.0,1.0,5.0,0.0,0.0,4.0,1.0,phase_2,stop,750.0,500.0,4.0,,,,,,,,,cyan,I
0.0,7.0,3.0,1.0,5.0,0.0,0.0,4.0,1.0,phase_2,stop,800.0,500.0,4.0,,,,,,,,,orange,flipped triangle
0.0,2.0,2.0,0.0,5.0,5.0,661.8376609994812,4.0,1.0,phase_2,go,850.0,500.0,1.0,,,,,,,,,white,cross
0.0,6.0,2.0,1.0,5.0,0.0,0.0,4.0,1.0,phase_2,stop,850.0,500.0,4.0,,,,,,,,,green,circle
0.0,3.0,3.0,0.0,5.0,5.0,569.1495780001787,4.0,1.0,phase_2,go,900.0,500.0,1.0,,,,,,,,,blue,square
0.0,1.0,1.0,0.0,6.0,6.0,491.6348950000611,4.0,1.0,phase_2,go,900.0,500.0,1.0,,,,,,,,,yellow,hexagon
0.0,8.0,4.0,1.0,6.0,0.0,0.0,4.0,1.0,phase_2,stop,900.0,500.0,4.0,,,,,,,,,magenta,diamond
0.0,8.0,4.0,1.0,5.0,0.0,0.0,4.0,1.0,phase_2,go,900.0,550.0,5.0,,,,,,,,,magenta,diamond
0.0,6.0,2.0,1.0,6.0,6.0,1330.287449000025,4.0,1.0,phase_2,go,900.0,550.0,1.0,,,,,,,,,green,circle
0.0,4.0,4.0,0.0,6.0,6.0,640.0654310000391,5.0,1.0,phase_2,go,900.0,550.0,1.0,,,,,,,,,gray,triangle
0.0,2.0,2.0,0.0,5.0,5.0,493.7643539997225,5.0,1.0,phase_2,go,900.0,550.0,1.0,,,,,,,,,white,cross
0.0,1.0,1.0,0.0,5.0,5.0,652.5269879994084,5.0,1.0,phase_2,go,900.0,550.0,1.0,,,,,,,,,yellow,hexagon
0.0,8.0,4.0,1.0,5.0,0.0,0.0,5.0,1.0,phase_2,stop,900.0,550.0,4.0,,,,,,,,,magenta,diamond
0.0,6.0,2.0,1.0,5.0,0.0,0.0,5.0,1.0,phase_2,stop,950.0,550.0,4.0,,,,,,,,,green,circle
0.0,1.0,1.0,0.0,5.0,5.0,650.5633540000417,5.0,1.0,phase_2,go,1000.0,550.0,1.0,,,,,,,,,yellow,hexagon
0.0,3.0,3.0,0.0,5.0,5.0,504.54088500009675,5.0,1.0,phase_2,go,1000.0,550.0,1.0,,,,,,,,,blue,square
0.0,7.0,3.0,1.0,5.0,5.0,1263.9799569997194,5.0,1.0,phase_2,go,1000.0,550.0,1.0,,,,,,,,,orange,flipped triangle
0.0,6.0,2.0,1.0,5.0,5.0,1330.252432999259,5.0,1.0,phase_2,go,1000.0,550.0,1.0,,,,,,,,,green,circle
0.0,4.0,4.0,0.0,5.0,5.0,606.1092290001397,5.0,1.0,phase_2,go,1000.0,550.0,1.0,,,,,,,,,gray,triangle
0.0,1.0,1.0,0.0,6.0,6.0,652.6139010002225,5.0,1.0,phase_2,go,1000.0,550.0,1.0,,,,,,,,,yellow,hexagon
0.0,3.0,3.0,0.0,5.0,5.0,587.3881609995806,5.0,1.0,phase_2,go,1000.0,550.0,1.0,,,,,,,,,blue,square
0.0,3.0,3.0,0.0,6.0,6.0,448.3459319999383,5.0,1.0,phase_2,go,1000.0,550.0,1.0,,,,,,,,,blue,square
0.0,6.0,2.0,1.0,5.0,5.0,984.0804750001552,5.0,1.0,phase_2,go,1000.0,550.0,1.0,,,,,,,,,green,circle
0.0,7.0,3.0,1.0,6.0,6.0,464.7015600003215,5.0,1.0,phase_2,stop,1000.0,550.0,3.0,,,,,,,,,orange,flipped triangle
0.0,2.0,2.0,0.0,5.0,5.0,466.1871279995466,5.0,1.0,phase_2,go,1000.0,500.0,1.0,,,,,,,,,white,cross
0.0,3.0,3.0,0.0,6.0,6.0,539.6296729995811,5.0,1.0,phase_2,go,1000.0,500.0,1.0,,,,,,,,,blue,square
0.0,5.0,1.0,1.0,6.0,0.0,0.0,5.0,1.0,phase_2,stop,1000.0,500.0,4.0,,,,,,,,,cyan,I
0.0,5.0,1.0,1.0,5.0,5.0,940.3341839997664,5.0,1.0,phase_2,go,1000.0,550.0,1.0,,,,,,,,,cyan,I
0.0,2.0,2.0,0.0,6.0,6.0,521.5937170005418,5.0,1.0,phase_2,go,1000.0,550.0,1.0,,,,,,,,,white,cross
0.0,2.0,2.0,0.0,5.0,5.0,492.9140340000231,5.0,1.0,phase_2,go,1000.0,550.0,1.0,,,,,,,,,white,cross
0.0,2.0,2.0,0.0,6.0,6.0,317.5239230004081,5.0,1.0,phase_2,go,1000.0,550.0,1.0,,,,,,,,,white,cross
0.0,3.0,3.0,0.0,6.0,6.0,409.2848629998116,5.0,1.0,phase_2,go,1000.0,550.0,1.0,,,,,,,,,blue,square
0.0,2.0,2.0,0.0,6.0,6.0,455.7129539998641,5.0,1.0,phase_2,go,1000.0,550.0,1.0,,,,,,,,,white,cross
0.0,3.0,3.0,0.0,6.0,6.0,400.3331559997605,5.0,1.0,phase_2,go,1000.0,550.0,1.0,,,,,,,,,blue,square
0.0,6.0,2.0,1.0,5.0,5.0,382.1714010000505,5.0,1.0,phase_2,stop,1000.0,550.0,3.0,,,,,,,,,green,circle
0.0,4.0,4.0,0.0,5.0,5.0,511.7862659999446,5.0,1.0,phase_2,go,950.0,550.0,1.0,,,,,,,,,gray,triangle
0.0,4.0,4.0,0.0,5.0,5.0,492.6010879999012,5.0,1.0,phase_2,go,950.0,550.0,1.0,,,,,,,,,gray,triangle
0.0,5.0,1.0,1.0,5.0,5.0,1042.853992000346,5.0,1.0,phase_2,stop,950.0,550.0,3.0,,,,,,,,,cyan,I
0.0,6.0,2.0,1.0,6.0,0.0,0.0,5.0,1.0,phase_2,go,900.0,550.0,5.0,,,,,,,,,green,circle
0.0,4.0,4.0,0.0,5.0,5.0,501.8808299992088,5.0,1.0,phase_2,go,900.0,550.0,1.0,,,,,,,,,gray,triangle
0.0,8.0,4.0,1.0,5.0,5.0,977.9658429997652,5.0,1.0,phase_2,go,900.0,550.0,1.0,,,,,,,,,magenta,diamond
0.0,3.0,3.0,0.0,5.0,5.0,613.7517970000772,5.0,1.0,phase_2,go,900.0,550.0,1.0,,,,,,,,,blue,square
0.0,3.0,3.0,0.0,5.0,5.0,373.7066419998882,5.0,1.0,phase_2,go,900.0,550.0,1.0,,,,,,,,,blue,square
0.0,7.0,3.0,1.0,6.0,6.0,803.8956030004556,5.0,1.0,phase_2,stop,900.0,550.0,3.0,,,,,,,,,orange,flipped triangle
0.0,1.0,1.0,0.0,5.0,5.0,662.6055560000168,5.0,1.0,phase_2,go,900.0,500.0,1.0,,,,,,,,,yellow,hexagon
0.0,6.0,2.0,1.0,6.0,6.0,542.3012829996878,6.0,1.0,phase_2,stop,900.0,500.0,3.0,,,,,,,,,green,circle
0.0,6.0,2.0,1.0,6.0,0.0,0.0,6.0,1.0,phase_2,stop,900.0,450.0,4.0,,,,,,,,,green,circle
0.0,8.0,4.0,1.0,6.0,6.0,863.4989379997933,6.0,1.0,phase_2,go,900.0,500.0,1.0,,,,,,,,,magenta,diamond
0.0,5.0,1.0,1.0,5.0,5.0,1039.2257350004002,6.0,1.0,phase_2,stop,900.0,500.0,3.0,,,,,,,,,cyan,I
0.0,8.0,4.0,1.0,6.0,0.0,0.0,6.0,1.0,phase_2,stop,850.0,500.0,4.0,,,,,,,,,magenta,diamond
0.0,5.0,1.0,1.0,6.0,0.0,0.0,6.0,1.0,phase_2,stop,850.0,550.0,4.0,,,,,,,,,cyan,I
0.0,4.0,4.0,0.0,6.0,6.0,511.80906900026457,6.0,1.0,phase_2,go,850.0,600.0,1.0,,,,,,,,,gray,triangle
0.0,5.0,1.0,1.0,5.0,5.0,958.857693999562,6.0,1.0,phase_2,go,850.0,600.0,1.0,,,,,,,,,cyan,I
0.0,6.0,2.0,1.0,6.0,0.0,0.0,6.0,1.0,phase_2,stop,850.0,600.0,4.0,,,,,,,,,green,circle
0.0,8.0,4.0,1.0,5.0,0.0,0.0,6.0,1.0,phase_2,stop,850.0,650.0,4.0,,,,,,,,,magenta,diamond
0.0,3.0,3.0,0.0,6.0,6.0,586.5517660004116,6.0,1.0,phase_2,go,900.0,650.0,1.0,,,,,,,,,blue,square
0.0,6.0,2.0,1.0,5.0,0.0,0.0,6.0,1.0,phase_2,stop,900.0,650.0,4.0,,,,,,,,,green,circle
0.0,6.0,2.0,1.0,5.0,0.0,0.0,6.0,1.0,phase_2,stop,950.0,650.0,4.0,,,,,,,,,green,circle
0.0,8.0,4.0,1.0,6.0,0.0,0.0,6.0,1.0,phase_2,stop,1000.0,650.0,4.0,,,,,,,,,magenta,diamond
0.0,1.0,1.0,0.0,5.0,5.0,550.9254769995096,6.0,1.0,phase_2,go,1000.0,700.0,1.0,,,,,,,,,yellow,hexagon
0.0,2.0,2.0,0.0,6.0,6.0,549.5545050007422,6.0,1.0,phase_2,go,1000.0,700.0,1.0,,,,,,,,,white,cross
0.0,8.0,4.0,1.0,6.0,0.0,0.0,6.0,1.0,phase_2,stop,1000.0,700.0,4.0,,,,,,,,,magenta,diamond
0.0,7.0,3.0,1.0,6.0,0.0,0.0,6.0,1.0,phase_2,stop,1000.0,750.0,4.0,,,,,,,,,orange,flipped triangle
0.0,2.0,2.0,0.0,6.0,6.0,491.9538169997395,6.0,1.0,phase_2,go,1000.0,800.0,1.0,,,,,,,,,white,cross
0.0,6.0,2.0,1.0,6.0,0.0,0.0,6.0,1.0,phase_2,stop,1000.0,800.0,4.0,,,,,,,,,green,circle
0.0,8.0,4.0,1.0,5.0,0.0,0.0,6.0,1.0,phase_2,stop,1000.0,850.0,4.0,,,,,,,,,magenta,diamond
0.0,7.0,3.0,1.0,5.0,0.0,0.0,6.0,1.0,phase_2,stop,1050.0,850.0,4.0,,,,,,,,,orange,flipped triangle
0.0,4.0,4.0,0.0,6.0,6.0,715.1743270005682,6.0,1.0,phase_2,go,1100.0,850.0,1.0,,,,,,,,,gray,triangle
0.0,7.0,3.0,1.0,6.0,0.0,0.0,6.0,1.0,phase_2,stop,1100.0,850.0,4.0,,,,,,,,,orange,flipped triangle
0.0,2.0,2.0,0.0,5.0,5.0,595.5095750005057,6.0,1.0,phase_2,go,1100.0,900.0,1.0,,,,,,,,,white,cross
0.0,1.0,1.0,0.0,6.0,6.0,624.65419199998,6.0,1.0,phase_2,go,1100.0,900.0,1.0,,,,,,,,,yellow,hexagon
0.0,7.0,3.0,1.0,6.0,0.0,0.0,6.0,1.0,phase_2,stop,1100.0,900.0,4.0,,,,,,,,,orange,flipped triangle
0.0,4.0,4.0,0.0,5.0,5.0,464.4616539999333,6.0,1.0,phase_2,go,1100.0,950.0,1.0,,,,,,,,,gray,triangle
0.0,5.0,1.0,1.0,6.0,0.0,0.0,6.0,1.0,phase_2,stop,1100.0,950.0,4.0,,,,,,,,,cyan,I
0.0,2.0,2.0,0.0,5.0,5.0,419.6377170001142,6.0,1.0,phase_2,go,1100.0,1000.0,1.0,,,,,,,,,white,cross
0.0,2.0,2.0,0.0,6.0,6.0,625.0113570004032,6.0,1.0,phase_2,go,1100.0,1000.0,1.0,,,,,,,,,white,cross
0.0,1.0,1.0,0.0,6.0,6.0,483.6502899997867,6.0,1.0,phase_2,go,1100.0,1000.0,1.0,,,,,,,,,yellow,hexagon
0.0,6.0,2.0,1.0,6.0,0.0,0.0,6.0,1.0,phase_2,stop,1100.0,1000.0,4.0,,,,,,,,,green,circle
0.0,2.0,2.0,0.0,5.0,5.0,543.1452010006979,6.0,1.0,phase_2,go,1100.0,1050.0,1.0,,,,,,,,,white,cross
0.0,6.0,2.0,1.0,6.0,0.0,0.0,6.0,1.0,phase_2,stop,1100.0,1050.0,4.0,,,,,,,,,green,circle
0.0,4.0,4.0,0.0,5.0,5.0,541.3174650002475,6.0,1.0,phase_2,go,1100.0,1100.0,1.0,,,,,,,,,gray,triangle
0.0,3.0,3.0,0.0,6.0,6.0,425.7051320000755,7.0,1.0,phase_2,go,1100.0,1100.0,1.0,,,,,,,,,blue,square
0.0,5.0,1.0,1.0,6.0,0.0,0.0,7.0,1.0,phase_2,stop,1100.0,1100.0,4.0,,,,,,,,,cyan,I
0.0,7.0,3.0,1.0,6.0,0.0,0.0,7.0,1.0,phase_2,go,1100.0,1150.0,5.0,,,,,,,,,orange,flipped triangle
0.0,2.0,2.0,0.0,6.0,6.0,547.639915000218,7.0,1.0,phase_2,go,1100.0,1150.0,1.0,,,,,,,,,white,cross
0.0,3.0,3.0,0.0,6.0,6.0,494.3724869999641,7.0,1.0,phase_2,go,1100.0,1150.0,1.0,,,,,,,,,blue,square
0.0,8.0,4.0,1.0,6.0,6.0,549.9982160008585,7.0,1.0,phase_2,stop,1100.0,1150.0,3.0,,,,,,,,,magenta,diamond
0.0,2.0,2.0,0.0,5.0,5.0,492.4551809999684,7.0,1.0,phase_2,go,1100.0,1100.0,1.0,,,,,,,,,white,cross
0.0,7.0,3.0,1.0,6.0,6.0,1383.253732000412,7.0,1.0,phase_2,stop,1100.0,1100.0,3.0,,,,,,,,,orange,flipped triangle
0.0,6.0,2.0,1.0,5.0,0.0,0.0,7.0,1.0,phase_2,stop,1100.0,1050.0,4.0,,,,,,,,,green,circle
0.0,7.0,3.0,1.0,5.0,0.0,0.0,7.0,1.0,phase_2,stop,1150.0,1050.0,4.0,,,,,,,,,orange,flipped triangle
0.0,4.0,4.0,0.0,5.0,5.0,586.362248000114,7.0,1.0,phase_2,go,1200.0,1050.0,1.0,,,,,,,,,gray,triangle
0.0,5.0,1.0,1.0,5.0,0.0,0.0,7.0,1.0,phase_2,stop,1200.0,1050.0,4.0,,,,,,,,,cyan,I
0.0,1.0,1.0,0.0,6.0,6.0,621.4044600001216,7.0,1.0,phase_2,go,1250.0,1050.0,1.0,,,,,,,,,yellow,hexagon
0.0,3.0,3.0,0.0,5.0,5.0,604.0859640006602,7.0,1.0,phase_2,go,1250.0,1050.0,1.0,,,,,,,,,blue,square
0.0,8.0,4.0,1.0,6.0,0.0,0.0,7.0,1.0,phase_2,stop,1250.0,1050.0,4.0,,,,,,,,,magenta,diamond
0.0,8.0,4.0,1.0,6.0,0.0,0.0,7.0,1.0,phase_2,stop,1250.0,1100.0,4.0,,,,,,,,,magenta,diamond
0.0,5.0,1.0,1.0,6.0,0.0,0.0,7.0,1.0,phase_2,go,1250.0,1150.0,5.0,,,,,,,,,cyan,I
0.0,5.0,1.0,1.0,6.0,6.0,958.8124499996412,7.0,1.0,phase_2,stop,1250.0,1150.0,3.0,,,,,,,,,cyan,I
0.0,4.0,4.0,0.0,6.0,6.0,521.2279269999271,7.0,1.0,phase_2,go,1250.0,1100.0,1.0,,,,,,,,,gray,triangle
0.0,4.0,4.0,0.0,6.0,6.0,501.5011229997981,7.0,1.0,phase_2,go,1250.0,1100.0,1.0,,,,,,,,,gray,triangle
0.0,4.0,4.0,0.0,5.0,5.0,456.6931010003827,7.0,1.0,phase_2,go,1250.0,1100.0,1.0,,,,,,,,,gray,triangle
0.0,6.0,2.0,1.0,5.0,5.0,502.2051639998608,7.0,1.0,phase_2,stop,1250.0,1100.0,3.0,,,,,,,,,green,circle
0.0,4.0,4.0,0.0,5.0,5.0,568.6137379998399,7.0,1.0,phase_2,go,1200.0,1100.0,1.0,,,,,,,,,gray,triangle
0.0,2.0,2.0,0.0,6.0,6.0,455.4516200005309,7.0,1.0,phase_2,go,1200.0,1100.0,1.0,,,,,,,,,white,cross
0.0,7.0,3.0,1.0,5.0,5.0,1339.5875799997157,7.0,1.0,phase_2,go,1200.0,1100.0,1.0,,,,,,,,,orange,flipped triangle
0.0,5.0,1.0,1.0,6.0,6.0,1180.6373059998805,7.0,1.0,phase_2,stop,1200.0,1100.0,3.0,,,,,,,,,cyan,I
0.0,1.0,1.0,0.0,5.0,5.0,622.1484180005064,7.0,1.0,phase_2,go,1200.0,1050.0,1.0,,,,,,,,,yellow,hexagon
0.0,6.0,2.0,1.0,5.0,5.0,1252.7490470001794,7.0,1.0,phase_2,stop,1200.0,1050.0,3.0,,,,,,,,,green,circle
0.0,2.0,2.0,0.0,5.0,5.0,631.5341419995093,7.0,1.0,phase_2,go,1150.0,1050.0,1.0,,,,,,,,,white,cross
0.0,1.0,1.0,0.0,5.0,5.0,520.4804180002611,7.0,1.0,phase_2,go,1150.0,1050.0,1.0,,,,,,,,,yellow,hexagon
0.0,3.0,3.0,0.0,5.0,5.0,631.3119980004558,7.0,1.0,phase_2,go,1150.0,1050.0,1.0,,,,,,,,,blue,square
0.0,7.0,3.0,1.0,5.0,5.0,1198.9409589996285,7.0,1.0,phase_2,go,1150.0,1050.0,1.0,,,,,,,,,orange,flipped triangle
0.0,2.0,2.0,0.0,6.0,6.0,519.3530039996404,7.0,1.0,phase_2,go,1150.0,1050.0,1.0,,,,,,,,,white,cross
0.0,8.0,4.0,1.0,5.0,5.0,1057.6891720002095,7.0,1.0,phase_2,stop,1150.0,1050.0,3.0,,,,,,,,,magenta,diamond
0.0,5.0,1.0,1.0,6.0,6.0,1379.5058470004733,7.0,1.0,phase_2,go,1100.0,1050.0,1.0,,,,,,,,,cyan,I
0.0,8.0,4.0,1.0,5.0,0.0,0.0,7.0,1.0,phase_2,stop,1100.0,1050.0,4.0,,,,,,,,,magenta,diamond
0.0,3.0,3.0,0.0,6.0,6.0,548.4852780000438,8.0,1.0,phase_2,go,1150.0,1050.0,1.0,,,,,,,,,blue,square
0.0,8.0,4.0,1.0,6.0,6.0,1112.7130549994035,8.0,1.0,phase_2,stop,1150.0,1050.0,3.0,,,,,,,,,magenta,diamond
0.0,1.0,1.0,0.0,6.0,6.0,621.196957000393,8.0,1.0,phase_2,go,1150.0,1000.0,1.0,,,,,,,,,yellow,hexagon
0.0,8.0,4.0,1.0,5.0,5.0,1093.1275229995665,8.0,1.0,phase_2,stop,1150.0,1000.0,3.0,,,,,,,,,magenta,diamond
0.0,4.0,4.0,0.0,6.0,6.0,853.6611890003769,8.0,1.0,phase_2,go,1100.0,1000.0,1.0,,,,,,,,,gray,triangle
0.0,2.0,2.0,0.0,6.0,6.0,492.0890380008131,8.0,1.0,phase_2,go,1100.0,1000.0,1.0,,,,,,,,,white,cross
0.0,5.0,1.0,1.0,5.0,5.0,1331.3171150002745,8.0,1.0,phase_2,go,1100.0,1000.0,1.0,,,,,,,,,cyan,I
0.0,6.0,2.0,1.0,6.0,6.0,1250.8573470004194,8.0,1.0,phase_2,stop,1100.0,1000.0,3.0,,,,,,,,,green,circle
0.0,1.0,1.0,0.0,5.0,5.0,594.1062479996617,8.0,1.0,phase_2,go,1100.0,950.0,1.0,,,,,,,,,yellow,hexagon
0.0,7.0,3.0,1.0,5.0,5.0,1216.7663689997426,8.0,1.0,phase_2,go,1100.0,950.0,1.0,,,,,,,,,orange,flipped triangle
0.0,8.0,4.0,1.0,6.0,0.0,0.0,8.0,1.0,phase_2,stop,1100.0,950.0,4.0,,,,,,,,,magenta,diamond
0.0,6.0,2.0,1.0,5.0,5.0,1246.0963000003176,8.0,1.0,phase_2,stop,1100.0,1000.0,3.0,,,,,,,,,green,circle
0.0,2.0,2.0,0.0,6.0,6.0,509.9600619996636,8.0,1.0,phase_2,go,1050.0,1000.0,1.0,,,,,,,,,white,cross
0.0,3.0,3.0,0.0,5.0,5.0,892.695389000437,8.0,1.0,phase_2,go,1050.0,1000.0,1.0,,,,,,,,,blue,square
0.0,5.0,1.0,1.0,5.0,0.0,0.0,8.0,1.0,phase_2,stop,1050.0,1000.0,4.0,,,,,,,,,cyan,I
0.0,5.0,1.0,1.0,5.0,5.0,1429.3472709996422,8.0,1.0,phase_2,go,1100.0,1000.0,1.0,,,,,,,,,cyan,I
0.0,7.0,3.0,1.0,5.0,0.0,0.0,8.0,1.0,phase_2,stop,1100.0,1000.0,4.0,,,,,,,,,orange,flipped triangle
0.0,2.0,2.0,0.0,5.0,5.0,558.0254120004611,8.0,1.0,phase_2,go,1150.0,1000.0,1.0,,,,,,,,,white,cross
0.0,7.0,3.0,1.0,5.0,0.0,0.0,8.0,1.0,phase_2,stop,1150.0,1000.0,4.0,,,,,,,,,orange,flipped triangle
0.0,3.0,3.0,0.0,6.0,6.0,446.0819109999647,8.0,1.0,phase_2,go,1200.0,1000.0,1.0,,,,,,,,,blue,square
0.0,7.0,3.0,1.0,6.0,6.0,705.9639179997248,8.0,1.0,phase_2,stop,1200.0,1000.0,3.0,,,,,,,,,orange,flipped triangle
0.0,3.0,3.0,0.0,5.0,5.0,539.7237569995923,8.0,1.0,phase_2,go,1200.0,950.0,1.0,,,,,,,,,blue,square
0.0,7.0,3.0,1.0,6.0,0.0,0.0,8.0,1.0,phase_2,stop,1200.0,950.0,4.0,,,,,,,,,orange,flipped triangle
0.0,5.0,1.0,1.0,6.0,0.0,0.0,8.0,1.0,phase_2,go,1200.0,1000.0,5.0,,,,,,,,,cyan,I
0.0,7.0,3.0,1.0,6.0,0.0,0.0,8.0,1.0,phase_2,go,1200.0,1000.0,5.0,,,,,,,,,orange,flipped triangle
0.0,5.0,1.0,1.0,5.0,5.0,1031.7336529997192,8.0,1.0,phase_2,stop,1200.0,1000.0,3.0,,,,,,,,,cyan,I
0.0,1.0,1.0,0.0,5.0,5.0,528.9708480004265,8.0,1.0,phase_2,go,1150.0,1000.0,1.0,,,,,,,,,yellow,hexagon
0.0,8.0,4.0,1.0,6.0,6.0,362.9931309997118,8.0,1.0,phase_2,go,1150.0,1000.0,1.0,,,,,,,,,magenta,diamond
0.0,6.0,2.0,1.0,6.0,6.0,419.8377889997573,8.0,1.0,phase_2,stop,1150.0,1000.0,3.0,,,,,,,,,green,circle
0.0,5.0,1.0,1.0,6.0,6.0,1144.855209000525,8.0,1.0,phase_2,stop,1150.0,950.0,3.0,,,,,,,,,cyan,I
0.0,7.0,3.0,1.0,6.0,0.0,0.0,8.0,1.0,phase_2,stop,1150.0,900.0,4.0,,,,,,,,,orange,flipped triangle
0.0,4.0,4.0,0.0,5.0,5.0,494.5160370007215,8.0,1.0,phase_2,go,1150.0,950.0,1.0,,,,,,,,,gray,triangle
0.0,2.0,2.0,0.0,5.0,5.0,494.38581400045217,8.0,1.0,phase_2,go,1150.0,950.0,1.0,,,,,,,,,white,cross
0.0,5.0,1.0,1.0,6.0,6.0,1103.522537000572,8.0,1.0,phase_2,go,1150.0,950.0,1.0,,,,,,,,,cyan,I
0.0,4.0,4.0,0.0,6.0,6.0,493.2734740004889,8.0,1.0,phase_2,go,1150.0,950.0,1.0,,,,,,,,,gray,triangle
0.0,7.0,3.0,1.0,6.0,6.0,1023.7457040002482,8.0,1.0,phase_2,go,1150.0,950.0,1.0,,,,,,,,,orange,flipped triangle
0.0,7.0,3.0,1.0,7.0,2.0,84.1354379999756,1.0,1.0,phase_3,,,,,696.0,6.0,116.0,696.0,348.0,232.0,580.0,464.0,orange,flipped triangle
0.0,4.0,4.0,0.0,7.0,1.0,1121.5382599993973,1.0,1.0,phase_3,,,,,192.0,1.0,192.0,576.0,960.0,768.0,384.0,1152.0,gray,triangle
0.0,1.0,1.0,0.0,7.0,5.0,2149.735646999943,1.0,1.0,phase_3,,,,,173.0,1.0,346.0,692.0,1038.0,865.0,173.0,519.0,yellow,hexagon
0.0,2.0,2.0,0.0,7.0,3.0,2390.3253669996047,1.0,1.0,phase_3,,,,,232.0,2.0,580.0,348.0,232.0,464.0,696.0,116.0,white,cross
0.0,7.0,3.0,1.0,7.0,1.0,1298.1314860007842,1.0,1.0,phase_3,,,,,405.0,3.0,405.0,270.0,675.0,810.0,135.0,540.0,orange,flipped triangle
0.0,2.0,2.0,0.0,7.0,6.0,1614.658204999614,1.0,1.0,phase_3,,,,,173.0,1.0,1038.0,346.0,519.0,865.0,692.0,173.0,white,cross
0.0,8.0,4.0,1.0,7.0,5.0,1536.4836110002216,1.0,1.0,phase_3,,,,,116.0,1.0,464.0,348.0,696.0,232.0,116.0,580.0,magenta,diamond
0.0,1.0,1.0,0.0,7.0,4.0,766.5290380000442,1.0,1.0,phase_3,,,,,768.0,4.0,384.0,192.0,576.0,768.0,1152.0,960.0,yellow,hexagon
0.0,6.0,2.0,1.0,7.0,2.0,1663.076975999502,1.0,1.0,phase_3,,,,,348.0,3.0,116.0,348.0,464.0,696.0,580.0,232.0,green,circle
0.0,6.0,2.0,1.0,7.0,5.0,1701.7273020001085,1.0,1.0,phase_3,,,,,768.0,4.0,960.0,1152.0,576.0,192.0,768.0,384.0,green,circle
0.0,5.0,1.0,1.0,7.0,6.0,1625.7484409998142,1.0,1.0,phase_3,,,,,770.0,5.0,924.0,462.0,308.0,154.0,616.0,770.0,cyan,I
0.0,3.0,3.0,0.0,7.0,2.0,1007.966887999828,1.0,1.0,phase_3,,,,,696.0,6.0,116.0,696.0,464.0,232.0,348.0,580.0,blue,square
0.0,8.0,4.0,1.0,7.0,5.0,2010.6044329995711,1.0,1.0,phase_3,,,,,675.0,5.0,540.0,405.0,810.0,135.0,675.0,270.0,magenta,diamond
0.0,7.0,3.0,1.0,7.0,2.0,1522.9542529996252,1.0,1.0,phase_3,,,,,519.0,3.0,1038.0,519.0,692.0,346.0,173.0,865.0,orange,flipped triangle
0.0,2.0,2.0,0.0,7.0,5.0,876.9551340001271,1.0,1.0,phase_3,,,,,960.0,5.0,384.0,1152.0,576.0,768.0,960.0,192.0,white,cross
0.0,7.0,3.0,1.0,7.0,1.0,692.8476180000871,1.0,1.0,phase_3,,,,,924.0,6.0,924.0,154.0,770.0,616.0,462.0,308.0,orange,flipped triangle
0.0,5.0,1.0,1.0,7.0,2.0,1275.2973790002216,1.0,1.0,phase_3,,,,,1038.0,6.0,692.0,1038.0,346.0,173.0,865.0,519.0,cyan,I
0.0,4.0,4.0,0.0,7.0,5.0,701.1798040002759,1.0,1.0,phase_3,,,,,405.0,3.0,675.0,540.0,135.0,270.0,405.0,810.0,gray,triangle
0.0,3.0,3.0,0.0,7.0,4.0,362.4596099998598,1.0,1.0,phase_3,,,,,348.0,3.0,696.0,464.0,232.0,348.0,580.0,116.0,blue,square
0.0,5.0,1.0,1.0,7.0,6.0,609.0516059994115,1.0,1.0,phase_3,,,,,464.0,4.0,116.0,580.0,696.0,232.0,348.0,464.0,cyan,I
0.0,3.0,3.0,0.0,7.0,2.0,673.424034999698,2.0,1.0,phase_3,,,,,346.0,2.0,173.0,346.0,692.0,1038.0,865.0,519.0,blue,square
0.0,6.0,2.0,1.0,7.0,5.0,396.5707420002218,2.0,1.0,phase_3,,,,,692.0,4.0,346.0,865.0,519.0,173.0,692.0,1038.0,green,circle
0.0,7.0,3.0,1.0,7.0,1.0,443.1778060006763,2.0,1.0,phase_3,,,,,865.0,5.0,865.0,519.0,692.0,346.0,1038.0,173.0,orange,flipped triangle
0.0,1.0,1.0,0.0,7.0,4.0,638.9794520000578,2.0,1.0,phase_3,,,,,616.0,4.0,924.0,154.0,308.0,616.0,770.0,462.0,yellow,hexagon
0.0,7.0,3.0,1.0,7.0,4.0,694.8897590000342,2.0,1.0,phase_3,,,,,1152.0,6.0,960.0,768.0,192.0,1152.0,384.0,576.0,orange,flipped triangle
0.0,6.0,2.0,1.0,7.0,2.0,683.0143579991272,2.0,1.0,phase_3,,,,,770.0,5.0,308.0,770.0,616.0,462.0,924.0,154.0,green,circle
0.0,3.0,3.0,0.0,7.0,6.0,534.8385970000891,2.0,1.0,phase_3,,,,,960.0,5.0,768.0,1152.0,384.0,192.0,576.0,960.0,blue,square
0.0,7.0,3.0,1.0,7.0,2.0,840.1064660001794,2.0,1.0,phase_3,,,,,675.0,5.0,810.0,675.0,270.0,135.0,540.0,405.0,orange,flipped triangle
0.0,3.0,3.0,0.0,7.0,4.0,637.9359190004834,2.0,1.0,phase_3,,,,,346.0,2.0,692.0,1038.0,173.0,346.0,865.0,519.0,blue,square
0.0,7.0,3.0,1.0,7.0,4.0,730.349409000155,2.0,1.0,phase_3,,,,,768.0,4.0,384.0,192.0,1152.0,768.0,960.0,576.0,orange,flipped triangle
0.0,5.0,1.0,1.0,7.0,6.0,572.3815860001196,2.0,1.0,phase_3,,,,,384.0,2.0,192.0,960.0,576.0,1152.0,768.0,384.0,cyan,I
0.0,3.0,3.0,0.0,7.0,2.0,675.3471399997579,2.0,1.0,phase_3,,,,,616.0,4.0,308.0,616.0,770.0,462.0,924.0,154.0,blue,square
0.0,8.0,4.0,1.0,7.0,1.0,895.5736279995108,2.0,1.0,phase_3,,,,,346.0,2.0,346.0,1038.0,692.0,865.0,173.0,519.0,magenta,diamond
0.0,4.0,4.0,0.0,7.0,3.0,748.9301279993015,2.0,1.0,phase_3,,,,,1038.0,6.0,346.0,173.0,1038.0,865.0,519.0,692.0,gray,triangle
0.0,1.0,1.0,0.0,7.0,2.0,879.3651870000758,2.0,1.0,phase_3,,,,,616.0,4.0,770.0,616.0,924.0,308.0,154.0,462.0,yellow,hexagon
0.0,8.0,4.0,1.0,7.0,5.0,601.0955560004732,2.0,1.0,phase_3,,,,,865.0,5.0,519.0,173.0,346.0,1038.0,865.0,692.0,magenta,diamond
0.0,6.0,2.0,1.0,7.0,1.0,683.5644659995523,2.0,1.0,phase_3,,,,,960.0,5.0,960.0,576.0,1152.0,192.0,768.0,384.0,green,circle
0.0,5.0,1.0,1.0,7.0,5.0,580.8190979996652,2.0,1.0,phase_3,,,,,540.0,4.0,270.0,405.0,675.0,135.0,540.0,810.0,cyan,I
0.0,7.0,3.0,1.0,7.0,6.0,989.3802400001732,2.0,1.0,phase_3,,,,,462.0,3.0,616.0,924.0,154.0,308.0,770.0,462.0,orange,flipped triangle
0.0,5.0,1.0,1.0,7.0,3.0,1090.9114899995984,2.0,1.0,phase_3,,,,,1038.0,6.0,346.0,692.0,1038.0,519.0,865.0,173.0,cyan,I
0.0,4.0,4.0,0.0,7.0,5.0,435.1354460004586,3.0,1.0,phase_3,,,,,346.0,2.0,865.0,692.0,173.0,519.0,346.0,1038.0,gray,triangle
0.0,4.0,4.0,0.0,7.0,2.0,714.5515219999652,3.0,1.0,phase_3,,,,,116.0,1.0,696.0,116.0,464.0,348.0,580.0,232.0,gray,triangle
0.0,1.0,1.0,0.0,7.0,1.0,627.8104490002079,3.0,1.0,phase_3,,,,,464.0,4.0,464.0,232.0,116.0,696.0,580.0,348.0,yellow,hexagon
0.0,6.0,2.0,1.0,7.0,2.0,574.3755049998072,3.0,1.0,phase_3,,,,,616.0,4.0,154.0,616.0,462.0,770.0,924.0,308.0,green,circle
0.0,2.0,2.0,0.0,7.0,5.0,609.3466510001235,3.0,1.0,phase_3,,,,,692.0,4.0,865.0,519.0,346.0,1038.0,692.0,173.0,white,cross
0.0,4.0,4.0,0.0,7.0,3.0,1765.8738180007276,3.0,1.0,phase_3,,,,,768.0,4.0,960.0,576.0,768.0,384.0,192.0,1152.0,gray,triangle
0.0,4.0,4.0,0.0,7.0,1.0,637.6599500008524,3.0,1.0,phase_3,,,,,464.0,4.0,464.0,232.0,116.0,580.0,348.0,696.0,gray,triangle
0.0,2.0,2.0,0.0,7.0,6.0,703.2404009996753,3.0,1.0,phase_3,,,,,462.0,3.0,154.0,616.0,770.0,924.0,308.0,462.0,white,cross
0.0,8.0,4.0,1.0,7.0,4.0,878.8471610005217,3.0,1.0,phase_3,,,,,384.0,2.0,1152.0,960.0,192.0,384.0,768.0,576.0,magenta,diamond
0.0,3.0,3.0,0.0,7.0,3.0,1026.4102979999734,3.0,1.0,phase_3,,,,,810.0,6.0,675.0,405.0,810.0,135.0,270.0,540.0,blue,square
0.0,5.0,1.0,1.0,7.0,1.0,1099.51636400001,3.0,1.0,phase_3,,,,,464.0,4.0,464.0,232.0,696.0,348.0,580.0,116.0,cyan,I
0.0,8.0,4.0,1.0,7.0,6.0,647.7709259997937,3.0,1.0,phase_3,,,,,308.0,2.0,154.0,924.0,462.0,770.0,616.0,308.0,magenta,diamond
0.0,8.0,4.0,1.0,7.0,4.0,839.9242879995654,3.0,1.0,phase_3,,,,,116.0,1.0,580.0,348.0,232.0,116.0,696.0,464.0,magenta,diamond
0.0,1.0,1.0,0.0,7.0,3.0,609.839321000436,3.0,1.0,phase_3,,,,,576.0,3.0,960.0,192.0,576.0,1152.0,384.0,768.0,yellow,hexagon
0.0,3.0,3.0,0.0,7.0,2.0,609.8032720001356,3.0,1.0,phase_3,,,,,384.0,2.0,768.0,384.0,576.0,1152.0,192.0,960.0,blue,square
0.0,2.0,2.0,0.0,7.0,1.0,1101.7077740007153,3.0,1.0,phase_3,,,,,960.0,5.0,960.0,384.0,576.0,768.0,192.0,1152.0,white,cross
0.0,4.0,4.0,0.0,7.0,6.0,609.3218180003532,3.0,1.0,phase_3,,,,,616.0,4.0,308.0,770.0,924.0,462.0,154.0,616.0,gray,triangle
0.0,3.0,3.0,0.0,7.0,5.0,536.2224439995771,3.0,1.0,phase_3,,,,,308.0,2.0,924.0,770.0,462.0,154.0,308.0,616.0,blue,square
0.0,8.0,4.0,1.0,7.0,4.0,416.8339649995687,3.0,1.0,phase_3,,,,,616.0,4.0,924.0,770.0,462.0,616.0,308.0,154.0,magenta,diamond
0.0,8.0,4.0,1.0,7.0,2.0,1475.8850689995595,3.0,1.0,phase_3,,,,,810.0,6.0,270.0,810.0,405.0,540.0,135.0,675.0,magenta,diamond
0.0,4.0,4.0,0.0,7.0,2.0,915.249822000078,4.0,1.0,phase_3,,,,,135.0,1.0,270.0,135.0,810.0,675.0,540.0,405.0,gray,triangle
0.0,1.0,1.0,0.0,7.0,3.0,499.1171640003813,4.0,1.0,phase_3,,,,,692.0,4.0,346.0,173.0,692.0,519.0,1038.0,865.0,yellow,hexagon
0.0,6.0,2.0,1.0,7.0,6.0,842.7758070001801,4.0,1.0,phase_3,,,,,232.0,2.0,464.0,116.0,696.0,580.0,348.0,232.0,green,circle
0.0,8.0,4.0,1.0,7.0,4.0,434.4974089999596,4.0,1.0,phase_3,,,,,576.0,3.0,384.0,960.0,768.0,576.0,1152.0,192.0,magenta,diamond
0.0,2.0,2.0,0.0,7.0,3.0,620.4744619999474,4.0,1.0,phase_3,,,,,675.0,5.0,405.0,540.0,675.0,270.0,810.0,135.0,white,cross
0.0,6.0,2.0,1.0,7.0,6.0,1267.444795999836,4.0,1.0,phase_3,,,,,270.0,2.0,675.0,540.0,135.0,405.0,810.0,270.0,green,circle
0.0,5.0,1.0,1.0,7.0,2.0,1749.2506219996358,4.0,1.0,phase_3,,,,,770.0,5.0,616.0,770.0,154.0,308.0,924.0,462.0,cyan,I
0.0,5.0,1.0,1.0,7.0,4.0,1210.2596439999616,4.0,1.0,phase_3,,,,,675.0,5.0,540.0,810.0,270.0,675.0,135.0,405.0,cyan,I
0.0,4.0,4.0,0.0,7.0,2.0,777.2136300000057,4.0,1.0,phase_3,,,,,616.0,4.0,154.0,616.0,308.0,462.0,770.0,924.0,gray,triangle
0.0,1.0,1.0,0.0,7.0,5.0,988.1269099996643,4.0,1.0,phase_3,,,,,405.0,3.0,810.0,540.0,675.0,135.0,405.0,270.0,yellow,hexagon
0.0,2.0,2.0,0.0,7.0,5.0,870.3040399996098,4.0,1.0,phase_3,,,,,696.0,6.0,348.0,232.0,464.0,116.0,696.0,580.0,white,cross
0.0,2.0,2.0,0.0,7.0,2.0,1446.0662639994553,4.0,1.0,phase_3,,,,,540.0,4.0,270.0,540.0,405.0,810.0,675.0,135.0,white,cross
0.0,6.0,2.0,1.0,7.0,1.0,1035.8558570005698,4.0,1.0,phase_3,,,,,540.0,4.0,540.0,405.0,810.0,675.0,135.0,270.0,green,circle
0.0,7.0,3.0,1.0,7.0,5.0,590.579104000426,4.0,1.0,phase_3,,,,,348.0,3.0,580.0,696.0,464.0,232.0,348.0,116.0,orange,flipped triangle
0.0,1.0,1.0,0.0,7.0,4.0,757.8269550003824,4.0,1.0,phase_3,,,,,116.0,1.0,464.0,348.0,696.0,116.0,580.0,232.0,yellow,hexagon
0.0,2.0,2.0,0.0,7.0,2.0,666.0463270000037,4.0,1.0,phase_3,,,,,462.0,3.0,308.0,462.0,924.0,616.0,154.0,770.0,white,cross
0.0,3.0,3.0,0.0,7.0,5.0,693.8044409998838,4.0,1.0,phase_3,,,,,675.0,5.0,810.0,135.0,540.0,270.0,675.0,405.0,blue,square
0.0,1.0,1.0,0.0,7.0,2.0,1805.6896990001403,4.0,1.0,phase_3,,,,,540.0,4.0,810.0,540.0,675.0,135.0,405.0,270.0,yellow,hexagon
0.0,5.0,1.0,1.0,7.0,6.0,1238.772014999995,4.0,1.0,phase_3,,,,,960.0,5.0,768.0,1152.0,576.0,384.0,192.0,960.0,cyan,I
0.0,6.0,2.0,1.0,7.0,6.0,1053.8743420001992,4.0,1.0,phase_3,,,,,519.0,3.0,865.0,346.0,1038.0,692.0,173.0,519.0,green,circle
