raw_reward_magnitude,stim_reward,stepwise_reward_magnitude,paired_with_stopping,stim_location,response,reaction_time,block,num_trial_presentations,which_phase,stop_signal_trial_type,left_SSD,right_SSD,accuracy,chosen_bidding_amount,chosen_bidding_level,possible_bid_1,possible_bid_2,possible_bid_3,possible_bid_4,possible_bid_5,possible_bid_6,color_text,shape_text
164.0,5.0,1.0,1.0,1.0,1.0,486.7560650000087,1.0,1.0,phase_1,,,,,,,,,,,,,white,triangle
0.0,4.0,0.0,0.0,3.0,3.0,507.53316399982396,1.0,1.0,phase_1,,,,,,,,,,,,,green,square
1318.0,4.0,4.0,0.0,4.0,4.0,471.7073909998817,1.0,1.0,phase_1,,,,,,,,,,,,,green,square
0.0,4.0,0.0,0.0,3.0,3.0,427.534248000029,1.0,1.0,phase_1,,,,,,,,,,,,,green,square
154.0,1.0,1.0,0.0,1.0,1.0,558.0645620000269,1.0,1.0,phase_1,,,,,,,,,,,,,magenta,I
305.0,2.0,2.0,0.0,4.0,4.0,501.83313499996984,1.0,1.0,phase_1,,,,,,,,,,,,,yellow,flipped triangle
0.0,3.0,0.0,0.0,4.0,4.0,502.71689800001695,1.0,1.0,phase_1,,,,,,,,,,,,,gray,hexagon
646.0,7.0,3.0,1.0,3.0,3.0,428.5097059998861,1.0,1.0,phase_1,,,,,,,,,,,,,blue,diamond
1325.0,8.0,4.0,1.0,4.0,4.0,351.7588079998859,1.0,1.0,phase_1,,,,,,,,,,,,,orange,circle
167.0,1.0,1.0,0.0,3.0,3.0,427.4497230001088,1.0,1.0,phase_1,,,,,,,,,,,,,magenta,I
0.0,6.0,0.0,1.0,3.0,3.0,379.547834999812,1.0,1.0,phase_1,,,,,,,,,,,,,cyan,cross
656.0,7.0,3.0,1.0,2.0,2.0,832.9636739999842,1.0,1.0,phase_1,,,,,,,,,,,,,blue,diamond
0.0,2.0,0.0,0.0,4.0,4.0,472.7398420000099,1.0,1.0,phase_1,,,,,,,,,,,,,yellow,flipped triangle
1323.0,8.0,4.0,1.0,4.0,4.0,462.1080839999649,1.0,1.0,phase_1,,,,,,,,,,,,,orange,circle
160.0,5.0,1.0,1.0,4.0,4.0,398.8515519999964,1.0,1.0,phase_1,,,,,,,,,,,,,white,triangle
628.0,7.0,3.0,1.0,4.0,4.0,351.7006800000217,1.0,1.0,phase_1,,,,,,,,,,,,,blue,diamond
0.0,7.0,0.0,1.0,2.0,2.0,453.8954129998274,1.0,1.0,phase_1,,,,,,,,,,,,,blue,diamond
146.0,5.0,1.0,1.0,3.0,3.0,342.2453309999582,1.0,1.0,phase_1,,,,,,,,,,,,,white,triangle
639.0,7.0,3.0,1.0,3.0,3.0,378.4896859999662,1.0,1.0,phase_1,,,,,,,,,,,,,blue,diamond
170.0,1.0,1.0,0.0,4.0,4.0,408.1420909999451,1.0,1.0,phase_1,,,,,,,,,,,,,magenta,I
1286.0,4.0,4.0,0.0,2.0,2.0,378.7981499999659,1.0,1.0,phase_1,,,,,,,,,,,,,green,square
309.0,2.0,2.0,0.0,3.0,3.0,361.4468169998872,1.0,1.0,phase_1,,,,,,,,,,,,,yellow,flipped triangle
335.0,2.0,2.0,0.0,2.0,2.0,369.4048559998464,1.0,1.0,phase_1,,,,,,,,,,,,,yellow,flipped triangle
172.0,5.0,1.0,1.0,2.0,2.0,350.7439110001087,1.0,1.0,phase_1,,,,,,,,,,,,,white,triangle
163.0,1.0,1.0,0.0,1.0,1.0,433.8538490001156,1.0,1.0,phase_1,,,,,,,,,,,,,magenta,I
1282.0,8.0,4.0,1.0,3.0,3.0,405.4283909999867,1.0,1.0,phase_1,,,,,,,,,,,,,orange,circle
636.0,3.0,3.0,0.0,2.0,2.0,451.7971269999634,1.0,1.0,phase_1,,,,,,,,,,,,,gray,hexagon
667.0,3.0,3.0,0.0,3.0,3.0,323.4441380000135,1.0,1.0,phase_1,,,,,,,,,,,,,gray,hexagon
321.0,2.0,2.0,0.0,3.0,3.0,378.6570330000813,1.0,1.0,phase_1,,,,,,,,,,,,,yellow,flipped triangle
0.0,5.0,0.0,1.0,2.0,2.0,342.8104940001049,1.0,1.0,phase_1,,,,,,,,,,,,,white,triangle
168.0,5.0,1.0,1.0,1.0,1.0,471.6016380000383,1.0,1.0,phase_1,,,,,,,,,,,,,white,triangle
1311.0,4.0,4.0,0.0,2.0,2.0,480.0347939999483,1.0,1.0,phase_1,,,,,,,,,,,,,green,square
180.0,5.0,1.0,1.0,1.0,1.0,452.4976969998988,1.0,1.0,phase_1,,,,,,,,,,,,,white,triangle
0.0,2.0,0.0,0.0,3.0,3.0,342.5008799999887,1.0,1.0,phase_1,,,,,,,,,,,,,yellow,flipped triangle
164.0,5.0,1.0,1.0,4.0,4.0,342.8826570000183,1.0,1.0,phase_1,,,,,,,,,,,,,white,triangle
668.0,7.0,3.0,1.0,4.0,4.0,407.0170980000966,1.0,1.0,phase_1,,,,,,,,,,,,,blue,diamond
0.0,5.0,0.0,1.0,1.0,1.0,369.8595410000962,1.0,1.0,phase_1,,,,,,,,,,,,,white,triangle
1275.0,4.0,4.0,0.0,4.0,4.0,398.2554990000153,1.0,1.0,phase_1,,,,,,,,,,,,,green,square
642.0,7.0,3.0,1.0,4.0,4.0,350.9119230000124,1.0,1.0,phase_1,,,,,,,,,,,,,blue,diamond
0.0,1.0,0.0,0.0,1.0,1.0,399.4002640001781,1.0,1.0,phase_1,,,,,,,,,,,,,magenta,I
1291.0,8.0,4.0,1.0,2.0,2.0,352.8152909998425,1.0,1.0,phase_1,,,,,,,,,,,,,orange,circle
0.0,8.0,0.0,1.0,3.0,3.0,305.7485710000946,1.0,1.0,phase_1,,,,,,,,,,,,,orange,circle
1325.0,4.0,4.0,0.0,4.0,4.0,398.057579999886,1.0,1.0,phase_1,,,,,,,,,,,,,green,square
172.0,1.0,1.0,0.0,3.0,3.0,371.6215070000999,1.0,1.0,phase_1,,,,,,,,,,,,,magenta,I
330.0,2.0,2.0,0.0,3.0,3.0,361.3335779998579,1.0,1.0,phase_1,,,,,,,,,,,,,yellow,flipped triangle
1305.0,8.0,4.0,1.0,3.0,3.0,371.3954469999407,1.0,1.0,phase_1,,,,,,,,,,,,,orange,circle
159.0,1.0,1.0,0.0,4.0,4.0,435.6779049999204,1.0,1.0,phase_1,,,,,,,,,,,,,magenta,I
175.0,1.0,1.0,0.0,3.0,3.0,397.4399829999129,1.0,1.0,phase_1,,,,,,,,,,,,,magenta,I
670.0,3.0,3.0,0.0,3.0,3.0,388.9410140000109,1.0,1.0,phase_1,,,,,,,,,,,,,gray,hexagon
332.0,6.0,2.0,1.0,4.0,4.0,369.945553999969,1.0,1.0,phase_1,,,,,,,,,,,,,cyan,cross
138.0,5.0,1.0,1.0,3.0,3.0,381.4726739999514,1.0,1.0,phase_1,,,,,,,,,,,,,white,triangle
669.0,3.0,3.0,0.0,2.0,2.0,352.8502659999049,1.0,1.0,phase_1,,,,,,,,,,,,,gray,hexagon
674.0,7.0,3.0,1.0,2.0,2.0,436.6185740000219,1.0,1.0,phase_1,,,,,,,,,,,,,blue,diamond
653.0,3.0,3.0,0.0,4.0,4.0,463.0762029999005,1.0,1.0,phase_1,,,,,,,,,,,,,gray,hexagon
664.0,3.0,3.0,0.0,4.0,4.0,398.7183699998695,1.0,1.0,phase_1,,,,,,,,,,,,,gray,hexagon
1291.0,4.0,4.0,0.0,4.0,4.0,418.5142909998376,1.0,1.0,phase_1,,,,,,,,,,,,,green,square
1302.0,4.0,4.0,0.0,3.0,3.0,343.0232289999821,1.0,1.0,phase_1,,,,,,,,,,,,,green,square
674.0,3.0,3.0,0.0,1.0,1.0,362.7307280000877,1.0,1.0,phase_1,,,,,,,,,,,,,gray,hexagon
1307.0,8.0,4.0,1.0,1.0,1.0,472.7126640000278,1.0,1.0,phase_1,,,,,,,,,,,,,orange,circle
654.0,7.0,3.0,1.0,4.0,4.0,400.0069720000283,1.0,1.0,phase_1,,,,,,,,,,,,,blue,diamond
0.0,3.0,0.0,0.0,1.0,1.0,398.0703649999668,1.0,1.0,phase_1,,,,,,,,,,,,,gray,hexagon
329.0,6.0,2.0,1.0,4.0,4.0,371.6230469999573,1.0,1.0,phase_1,,,,,,,,,,,,,cyan,cross
0.0,6.0,0.0,1.0,3.0,3.0,372.2712010001032,1.0,1.0,phase_1,,,,,,,,,,,,,cyan,cross
0.0,3.0,0.0,0.0,1.0,1.0,344.3269389999841,1.0,1.0,phase_1,,,,,,,,,,,,,gray,hexagon
0.0,5.0,0.0,1.0,1.0,1.0,370.4523110000082,1.0,1.0,phase_1,,,,,,,,,,,,,white,triangle
1321.0,8.0,4.0,1.0,4.0,4.0,353.8673789998938,1.0,1.0,phase_1,,,,,,,,,,,,,orange,circle
634.0,7.0,3.0,1.0,2.0,2.0,389.1108569998778,1.0,1.0,phase_1,,,,,,,,,,,,,blue,diamond
151.0,1.0,1.0,0.0,4.0,4.0,482.1383920000244,1.0,1.0,phase_1,,,,,,,,,,,,,magenta,I
0.0,6.0,0.0,1.0,2.0,2.0,314.7764230000121,1.0,1.0,phase_1,,,,,,,,,,,,,cyan,cross
1276.0,4.0,4.0,0.0,2.0,2.0,400.6867059999877,1.0,1.0,phase_1,,,,,,,,,,,,,green,square
1308.0,8.0,4.0,1.0,4.0,4.0,387.9244659999585,1.0,1.0,phase_1,,,,,,,,,,,,,orange,circle
0.0,4.0,0.0,0.0,4.0,4.0,380.2615150000292,1.0,1.0,phase_1,,,,,,,,,,,,,green,square
1291.0,8.0,4.0,1.0,4.0,4.0,416.7514440000559,1.0,1.0,phase_1,,,,,,,,,,,,,orange,circle
138.0,5.0,1.0,1.0,2.0,2.0,435.0869269999293,1.0,1.0,phase_1,,,,,,,,,,,,,white,triangle
668.0,3.0,3.0,0.0,3.0,3.0,351.5002350000031,1.0,1.0,phase_1,,,,,,,,,,,,,gray,hexagon
158.0,1.0,1.0,0.0,1.0,1.0,334.5180480000636,1.0,1.0,phase_1,,,,,,,,,,,,,magenta,I
1298.0,8.0,4.0,1.0,2.0,2.0,399.0089930000522,1.0,1.0,phase_1,,,,,,,,,,,,,orange,circle
0.0,6.0,0.0,1.0,4.0,4.0,352.4929309999152,1.0,1.0,phase_1,,,,,,,,,,,,,cyan,cross
148.0,5.0,1.0,1.0,3.0,3.0,407.6757339998949,1.0,1.0,phase_1,,,,,,,,,,,,,white,triangle
303.0,2.0,2.0,0.0,4.0,4.0,352.4473730001318,1.0,1.0,phase_1,,,,,,,,,,,,,yellow,flipped triangle
306.0,2.0,2.0,0.0,2.0,2.0,379.7483460000421,1.0,1.0,phase_1,,,,,,,,,,,,,yellow,flipped triangle
668.0,7.0,3.0,1.0,2.0,2.0,555.5923630001871,1.0,1.0,phase_1,,,,,,,,,,,,,blue,diamond
642.0,7.0,3.0,1.0,3.0,3.0,360.7344839999769,1.0,1.0,phase_1,,,,,,,,,,,,,blue,diamond
649.0,3.0,3.0,0.0,4.0,4.0,417.7156609998746,1.0,1.0,phase_1,,,,,,,,,,,,,gray,hexagon
0.0,4.0,0.0,0.0,2.0,2.0,397.9637980000916,1.0,1.0,phase_1,,,,,,,,,,,,,green,square
1314.0,8.0,4.0,1.0,3.0,3.0,306.6977339999539,1.0,1.0,phase_1,,,,,,,,,,,,,orange,circle
167.0,5.0,1.0,1.0,3.0,3.0,315.2203249999274,1.0,1.0,phase_1,,,,,,,,,,,,,white,triangle
1308.0,4.0,4.0,0.0,3.0,3.0,360.9360830000696,1.0,1.0,phase_1,,,,,,,,,,,,,green,square
303.0,6.0,2.0,1.0,2.0,2.0,379.4745780000994,1.0,1.0,phase_1,,,,,,,,,,,,,cyan,cross
142.0,5.0,1.0,1.0,1.0,1.0,370.6593780000276,1.0,1.0,phase_1,,,,,,,,,,,,,white,triangle
164.0,1.0,1.0,0.0,2.0,2.0,361.8523279999408,1.0,1.0,phase_1,,,,,,,,,,,,,magenta,I
160.0,1.0,1.0,0.0,2.0,2.0,323.9226880000387,1.0,1.0,phase_1,,,,,,,,,,,,,magenta,I
1317.0,4.0,4.0,0.0,1.0,1.0,389.495191999913,1.0,1.0,phase_1,,,,,,,,,,,,,green,square
1291.0,4.0,4.0,0.0,3.0,3.0,350.8129940000799,1.0,1.0,phase_1,,,,,,,,,,,,,green,square
0.0,6.0,0.0,1.0,1.0,1.0,361.5904810001211,1.0,1.0,phase_1,,,,,,,,,,,,,cyan,cross
651.0,7.0,3.0,1.0,1.0,1.0,315.3879859999051,1.0,1.0,phase_1,,,,,,,,,,,,,blue,diamond
159.0,5.0,1.0,1.0,3.0,3.0,361.7509460000292,1.0,1.0,phase_1,,,,,,,,,,,,,white,triangle
330.0,2.0,2.0,0.0,2.0,2.0,371.1399690000689,1.0,1.0,phase_1,,,,,,,,,,,,,yellow,flipped triangle
183.0,1.0,1.0,0.0,4.0,4.0,351.4407319999009,1.0,1.0,phase_1,,,,,,,,,,,,,magenta,I
1276.0,4.0,4.0,0.0,3.0,3.0,351.0404589999325,1.0,1.0,phase_1,,,,,,,,,,,,,green,square
656.0,3.0,3.0,0.0,4.0,4.0,416.5252989998862,2.0,1.0,phase_1,,,,,,,,,,,,,gray,hexagon
186.0,1.0,1.0,0.0,4.0,4.0,389.7810759999629,2.0,1.0,phase_1,,,,,,,,,,,,,magenta,I
336.0,2.0,2.0,0.0,1.0,1.0,326.311121000117,2.0,1.0,phase_1,,,,,,,,,,,,,yellow,flipped triangle
332.0,2.0,2.0,0.0,4.0,4.0,344.0131010002005,2.0,1.0,phase_1,,,,,,,,,,,,,yellow,flipped triangle
0.0,7.0,0.0,1.0,3.0,3.0,369.0052269998887,2.0,1.0,phase_1,,,,,,,,,,,,,blue,diamond
183.0,5.0,1.0,1.0,2.0,2.0,334.8844790000385,2.0,1.0,phase_1,,,,,,,,,,,,,white,triangle
636.0,3.0,3.0,0.0,1.0,1.0,334.2412189999777,2.0,1.0,phase_1,,,,,,,,,,,,,gray,hexagon
647.0,3.0,3.0,0.0,1.0,1.0,343.4363869998833,2.0,1.0,phase_1,,,,,,,,,,,,,gray,hexagon
1302.0,8.0,4.0,1.0,1.0,1.0,324.0250280000509,2.0,1.0,phase_1,,,,,,,,,,,,,orange,circle
1314.0,8.0,4.0,1.0,4.0,4.0,370.7987539999067,2.0,1.0,phase_1,,,,,,,,,,,,,orange,circle
1295.0,4.0,4.0,0.0,2.0,2.0,352.3075909999988,2.0,1.0,phase_1,,,,,,,,,,,,,green,square
147.0,1.0,1.0,0.0,2.0,2.0,351.4914810000391,2.0,1.0,phase_1,,,,,,,,,,,,,magenta,I
343.0,2.0,2.0,0.0,1.0,1.0,342.9975340000055,2.0,1.0,phase_1,,,,,,,,,,,,,yellow,flipped triangle
1318.0,8.0,4.0,1.0,1.0,1.0,306.0431680000874,2.0,1.0,phase_1,,,,,,,,,,,,,orange,circle
0.0,7.0,0.0,1.0,1.0,1.0,296.8978659998811,2.0,1.0,phase_1,,,,,,,,,,,,,blue,diamond
0.0,5.0,0.0,1.0,1.0,1.0,352.1384540001691,2.0,1.0,phase_1,,,,,,,,,,,,,white,triangle
172.0,1.0,1.0,0.0,2.0,2.0,352.583278000111,2.0,1.0,phase_1,,,,,,,,,,,,,magenta,I
667.0,7.0,3.0,1.0,1.0,1.0,352.4622209999961,2.0,1.0,phase_1,,,,,,,,,,,,,blue,diamond
648.0,7.0,3.0,1.0,2.0,2.0,305.5389129999639,2.0,1.0,phase_1,,,,,,,,,,,,,blue,diamond
158.0,5.0,1.0,1.0,2.0,2.0,324.1597149999506,2.0,1.0,phase_1,,,,,,,,,,,,,white,triangle
341.0,6.0,2.0,1.0,3.0,3.0,408.4579159998611,2.0,1.0,phase_1,,,,,,,,,,,,,cyan,cross
668.0,3.0,3.0,0.0,3.0,3.0,343.5822520000329,2.0,2.0,phase_1,,,,,,,,,,,,,gray,hexagon
1305.0,8.0,4.0,1.0,1.0,1.0,333.553762000065,2.0,1.0,phase_1,,,,,,,,,,,,,orange,circle
0.0,7.0,0.0,1.0,1.0,1.0,343.6589520001689,2.0,1.0,phase_1,,,,,,,,,,,,,blue,diamond
163.0,5.0,1.0,1.0,2.0,2.0,462.0950730000004,2.0,1.0,phase_1,,,,,,,,,,,,,white,triangle
331.0,6.0,2.0,1.0,2.0,2.0,352.5668019999557,2.0,1.0,phase_1,,,,,,,,,,,,,cyan,cross
0.0,6.0,0.0,1.0,2.0,2.0,380.9111460000167,2.0,1.0,phase_1,,,,,,,,,,,,,cyan,cross
1307.0,4.0,4.0,0.0,3.0,3.0,362.0833909999419,2.0,1.0,phase_1,,,,,,,,,,,,,green,square
0.0,5.0,0.0,1.0,4.0,4.0,417.7636689998962,2.0,1.0,phase_1,,,,,,,,,,,,,white,triangle
634.0,7.0,3.0,1.0,3.0,3.0,380.6657319998976,2.0,1.0,phase_1,,,,,,,,,,,,,blue,diamond
0.0,2.0,0.0,0.0,2.0,2.0,371.1430339999424,2.0,1.0,phase_1,,,,,,,,,,,,,yellow,flipped triangle
170.0,5.0,1.0,1.0,4.0,4.0,463.0634800000734,2.0,1.0,phase_1,,,,,,,,,,,,,white,triangle
330.0,2.0,2.0,0.0,3.0,3.0,361.2719520001519,2.0,1.0,phase_1,,,,,,,,,,,,,yellow,flipped triangle
0.0,4.0,0.0,0.0,4.0,4.0,362.2220889999425,2.0,1.0,phase_1,,,,,,,,,,,,,green,square
1276.0,8.0,4.0,1.0,3.0,3.0,316.526174000046,2.0,1.0,phase_1,,,,,,,,,,,,,orange,circle
1293.0,4.0,4.0,0.0,2.0,2.0,362.1881890001077,2.0,1.0,phase_1,,,,,,,,,,,,,green,square
668.0,7.0,3.0,1.0,4.0,4.0,408.6822369999936,2.0,1.0,phase_1,,,,,,,,,,,,,blue,diamond
314.0,6.0,2.0,1.0,1.0,1.0,380.2426360000481,2.0,1.0,phase_1,,,,,,,,,,,,,cyan,cross
300.0,6.0,2.0,1.0,3.0,3.0,324.5821840000644,2.0,1.0,phase_1,,,,,,,,,,,,,cyan,cross
142.0,1.0,1.0,0.0,3.0,3.0,372.1535229999517,2.0,1.0,phase_1,,,,,,,,,,,,,magenta,I
315.0,2.0,2.0,0.0,1.0,1.0,418.0021849999775,2.0,1.0,phase_1,,,,,,,,,,,,,yellow,flipped triangle
1275.0,8.0,4.0,1.0,1.0,1.0,351.2273999999706,2.0,1.0,phase_1,,,,,,,,,,,,,orange,circle
0.0,7.0,0.0,1.0,4.0,4.0,394.3939579999096,2.0,1.0,phase_1,,,,,,,,,,,,,blue,diamond
641.0,7.0,3.0,1.0,1.0,1.0,343.212529000084,2.0,1.0,phase_1,,,,,,,,,,,,,blue,diamond
655.0,7.0,3.0,1.0,3.0,3.0,323.040113999923,2.0,1.0,phase_1,,,,,,,,,,,,,blue,diamond
0.0,8.0,0.0,1.0,4.0,4.0,295.6531090001135,2.0,1.0,phase_1,,,,,,,,,,,,,orange,circle
0.0,6.0,0.0,1.0,2.0,2.0,409.254287000067,2.0,1.0,phase_1,,,,,,,,,,,,,cyan,cross
349.0,2.0,2.0,0.0,1.0,1.0,399.2331160000049,2.0,1.0,phase_1,,,,,,,,,,,,,yellow,flipped triangle
157.0,5.0,1.0,1.0,2.0,2.0,352.9541420000441,2.0,1.0,phase_1,,,,,,,,,,,,,white,triangle
653.0,3.0,3.0,0.0,1.0,1.0,397.8070910000042,2.0,1.0,phase_1,,,,,,,,,,,,,gray,hexagon
157.0,1.0,1.0,0.0,2.0,2.0,361.3376929999958,2.0,1.0,phase_1,,,,,,,,,,,,,magenta,I
159.0,5.0,1.0,1.0,2.0,2.0,371.1183519999395,2.0,1.0,phase_1,,,,,,,,,,,,,white,triangle
653.0,7.0,3.0,1.0,2.0,2.0,417.5439770001503,2.0,1.0,phase_1,,,,,,,,,,,,,blue,diamond
168.0,1.0,1.0,0.0,4.0,4.0,446.1092389999521,2.0,1.0,phase_1,,,,,,,,,,,,,magenta,I
1302.0,8.0,4.0,1.0,4.0,4.0,380.220922000035,2.0,1.0,phase_1,,,,,,,,,,,,,orange,circle
0.0,7.0,0.0,1.0,1.0,1.0,352.1745620000729,2.0,1.0,phase_1,,,,,,,,,,,,,blue,diamond
318.0,6.0,2.0,1.0,3.0,3.0,379.360786999996,2.0,1.0,phase_1,,,,,,,,,,,,,cyan,cross
321.0,6.0,2.0,1.0,2.0,2.0,323.8266220000696,2.0,1.0,phase_1,,,,,,,,,,,,,cyan,cross
1321.0,4.0,4.0,0.0,1.0,1.0,380.0676440000643,2.0,1.0,phase_1,,,,,,,,,,,,,green,square
151.0,1.0,1.0,0.0,4.0,4.0,379.4520869998905,2.0,1.0,phase_1,,,,,,,,,,,,,magenta,I
303.0,2.0,2.0,0.0,1.0,1.0,443.6886270000286,2.0,1.0,phase_1,,,,,,,,,,,,,yellow,flipped triangle
1324.0,8.0,4.0,1.0,2.0,2.0,360.9008420000918,2.0,1.0,phase_1,,,,,,,,,,,,,orange,circle
1314.0,4.0,4.0,0.0,2.0,2.0,361.2431439999,2.0,1.0,phase_1,,,,,,,,,,,,,green,square
0.0,6.0,0.0,1.0,1.0,1.0,425.6911359998412,2.0,1.0,phase_1,,,,,,,,,,,,,cyan,cross
318.0,2.0,2.0,0.0,2.0,2.0,398.2967379999991,2.0,1.0,phase_1,,,,,,,,,,,,,yellow,flipped triangle
319.0,2.0,2.0,0.0,3.0,3.0,416.1472610001056,2.0,1.0,phase_1,,,,,,,,,,,,,yellow,flipped triangle
641.0,7.0,3.0,1.0,3.0,3.0,379.6258390000275,2.0,1.0,phase_1,,,,,,,,,,,,,blue,diamond
0.0,8.0,0.0,1.0,3.0,3.0,387.9635050000161,2.0,1.0,phase_1,,,,,,,,,,,,,orange,circle
1324.0,4.0,4.0,0.0,4.0,4.0,396.9365880000168,2.0,1.0,phase_1,,,,,,,,,,,,,green,square
327.0,2.0,2.0,0.0,3.0,3.0,425.2817040000991,2.0,1.0,phase_1,,,,,,,,,,,,,yellow,flipped triangle
309.0,6.0,2.0,1.0,1.0,1.0,387.5736869999855,2.0,1.0,phase_1,,,,,,,,,,,,,cyan,cross
316.0,6.0,2.0,1.0,3.0,3.0,344.7267980000106,2.0,1.0,phase_1,,,,,,,,,,,,,cyan,cross
175.0,5.0,1.0,1.0,3.0,3.0,361.4006880000033,2.0,1.0,phase_1,,,,,,,,,,,,,white,triangle
0.0,1.0,0.0,0.0,3.0,3.0,368.7129589998221,2.0,1.0,phase_1,,,,,,,,,,,,,magenta,I
655.0,3.0,3.0,0.0,3.0,3.0,538.8560400001552,2.0,1.0,phase_1,,,,,,,,,,,,,gray,hexagon
183.0,1.0,1.0,0.0,1.0,1.0,427.2910069998943,2.0,1.0,phase_1,,,,,,,,,,,,,magenta,I
339.0,2.0,2.0,0.0,1.0,1.0,397.1035590000156,2.0,1.0,phase_1,,,,,,,,,,,,,yellow,flipped triangle
344.0,2.0,2.0,0.0,4.0,4.0,434.4693420000567,2.0,1.0,phase_1,,,,,,,,,,,,,yellow,flipped triangle
167.0,1.0,1.0,0.0,1.0,1.0,379.8461090000273,2.0,1.0,phase_1,,,,,,,,,,,,,magenta,I
640.0,7.0,3.0,1.0,1.0,1.0,408.2087030001275,2.0,1.0,phase_1,,,,,,,,,,,,,blue,diamond
166.0,5.0,1.0,1.0,3.0,3.0,379.2618140000741,2.0,1.0,phase_1,,,,,,,,,,,,,white,triangle
0.0,3.0,0.0,0.0,3.0,3.0,408.4625180000785,2.0,1.0,phase_1,,,,,,,,,,,,,gray,hexagon
151.0,5.0,1.0,1.0,1.0,1.0,362.6125630000842,2.0,1.0,phase_1,,,,,,,,,,,,,white,triangle
348.0,2.0,2.0,0.0,3.0,3.0,360.8117909998327,2.0,1.0,phase_1,,,,,,,,,,,,,yellow,flipped triangle
1323.0,4.0,4.0,0.0,2.0,2.0,537.0521780000672,2.0,1.0,phase_1,,,,,,,,,,,,,green,square
166.0,1.0,1.0,0.0,1.0,1.0,333.7112260001049,2.0,1.0,phase_1,,,,,,,,,,,,,magenta,I
630.0,3.0,3.0,0.0,4.0,4.0,380.7780850002018,2.0,1.0,phase_1,,,,,,,,,,,,,gray,hexagon
344.0,6.0,2.0,1.0,3.0,3.0,343.4159400001135,2.0,1.0,phase_1,,,,,,,,,,,,,cyan,cross
648.0,3.0,3.0,0.0,1.0,1.0,416.8921930001943,2.0,1.0,phase_1,,,,,,,,,,,,,gray,hexagon
0.0,5.0,0.0,1.0,3.0,3.0,324.7112030001062,2.0,1.0,phase_1,,,,,,,,,,,,,white,triangle
0.0,1.0,0.0,0.0,2.0,2.0,390.0422850001632,2.0,1.0,phase_1,,,,,,,,,,,,,magenta,I
147.0,5.0,1.0,1.0,4.0,4.0,342.9476490000525,2.0,1.0,phase_1,,,,,,,,,,,,,white,triangle
642.0,3.0,3.0,0.0,3.0,3.0,352.606145999971,2.0,1.0,phase_1,,,,,,,,,,,,,gray,hexagon
327.0,2.0,2.0,0.0,2.0,2.0,343.7182650000068,2.0,1.0,phase_1,,,,,,,,,,,,,yellow,flipped triangle
0.0,8.0,0.0,1.0,2.0,2.0,363.4644320000006,2.0,1.0,phase_1,,,,,,,,,,,,,orange,circle
647.0,7.0,3.0,1.0,3.0,3.0,307.0079249998798,2.0,1.0,phase_1,,,,,,,,,,,,,blue,diamond
0.0,7.0,0.0,1.0,2.0,2.0,306.794095999976,2.0,1.0,phase_1,,,,,,,,,,,,,blue,diamond
348.0,6.0,2.0,1.0,1.0,1.0,321.3771129999259,2.0,1.0,phase_1,,,,,,,,,,,,,cyan,cross
1302.0,8.0,4.0,1.0,2.0,2.0,373.1520269998327,2.0,1.0,phase_1,,,,,,,,,,,,,orange,circle
1302.0,4.0,4.0,0.0,1.0,1.0,351.7907329999161,2.0,2.0,phase_1,,,,,,,,,,,,,green,square
1303.0,8.0,4.0,1.0,3.0,3.0,592.6602409999759,3.0,1.0,phase_1,,,,,,,,,,,,,orange,circle
629.0,3.0,3.0,0.0,4.0,4.0,407.0803279998927,3.0,1.0,phase_1,,,,,,,,,,,,,gray,hexagon
339.0,6.0,2.0,1.0,3.0,3.0,362.1508360001826,3.0,1.0,phase_1,,,,,,,,,,,,,cyan,cross
0.0,1.0,0.0,0.0,4.0,4.0,344.4333630000074,3.0,1.0,phase_1,,,,,,,,,,,,,magenta,I
335.0,2.0,2.0,0.0,3.0,3.0,332.328354000083,3.0,1.0,phase_1,,,,,,,,,,,,,yellow,flipped triangle
156.0,1.0,1.0,0.0,2.0,2.0,372.1988329998567,3.0,1.0,phase_1,,,,,,,,,,,,,magenta,I
1304.0,4.0,4.0,0.0,1.0,1.0,334.7960799999327,3.0,1.0,phase_1,,,,,,,,,,,,,green,square
1309.0,8.0,4.0,1.0,3.0,3.0,390.8227219999389,3.0,1.0,phase_1,,,,,,,,,,,,,orange,circle
159.0,1.0,1.0,0.0,1.0,1.0,418.4026030000041,3.0,1.0,phase_1,,,,,,,,,,,,,magenta,I
1282.0,4.0,4.0,0.0,4.0,4.0,361.5526639998734,3.0,1.0,phase_1,,,,,,,,,,,,,green,square
187.0,5.0,1.0,1.0,4.0,4.0,370.0198540000201,3.0,1.0,phase_1,,,,,,,,,,,,,white,triangle
0.0,4.0,0.0,0.0,1.0,1.0,341.7009190000044,3.0,1.0,phase_1,,,,,,,,,,,,,green,square
674.0,7.0,3.0,1.0,3.0,3.0,380.9885060002216,3.0,1.0,phase_1,,,,,,,,,,,,,blue,diamond
654.0,3.0,3.0,0.0,2.0,2.0,399.4828609997967,3.0,1.0,phase_1,,,,,,,,,,,,,gray,hexagon
636.0,7.0,3.0,1.0,4.0,4.0,379.7509700000319,3.0,1.0,phase_1,,,,,,,,,,,,,blue,diamond
672.0,7.0,3.0,1.0,3.0,3.0,399.1178839999065,3.0,1.0,phase_1,,,,,,,,,,,,,blue,diamond
646.0,3.0,3.0,0.0,3.0,3.0,333.4190179998586,3.0,1.0,phase_1,,,,,,,,,,,,,gray,hexagon
1311.0,8.0,4.0,1.0,2.0,2.0,407.1334479999677,3.0,1.0,phase_1,,,,,,,,,,,,,orange,circle
636.0,7.0,3.0,1.0,2.0,2.0,406.8684510000366,3.0,1.0,phase_1,,,,,,,,,,,,,blue,diamond
1324.0,8.0,4.0,1.0,1.0,1.0,416.760492000094,3.0,1.0,phase_1,,,,,,,,,,,,,orange,circle
0.0,7.0,0.0,1.0,1.0,1.0,381.2762610000391,3.0,1.0,phase_1,,,,,,,,,,,,,blue,diamond
0.0,1.0,0.0,0.0,2.0,2.0,360.6704920000538,3.0,1.0,phase_1,,,,,,,,,,,,,magenta,I
659.0,3.0,3.0,0.0,4.0,4.0,400.7617540000865,3.0,1.0,phase_1,,,,,,,,,,,,,gray,hexagon
1314.0,4.0,4.0,0.0,1.0,1.0,343.9288810000107,3.0,1.0,phase_1,,,,,,,,,,,,,green,square
0.0,8.0,0.0,1.0,2.0,2.0,380.181352000136,3.0,1.0,phase_1,,,,,,,,,,,,,orange,circle
156.0,5.0,1.0,1.0,1.0,1.0,325.2432859999317,3.0,1.0,phase_1,,,,,,,,,,,,,white,triangle
148.0,1.0,1.0,0.0,3.0,3.0,334.9994349998724,3.0,1.0,phase_1,,,,,,,,,,,,,magenta,I
310.0,6.0,2.0,1.0,2.0,2.0,352.9157590000977,3.0,1.0,phase_1,,,,,,,,,,,,,cyan,cross
330.0,6.0,2.0,1.0,1.0,1.0,372.1074299999145,3.0,1.0,phase_1,,,,,,,,,,,,,cyan,cross
1286.0,8.0,4.0,1.0,2.0,2.0,503.32158800006255,3.0,1.0,phase_1,,,,,,,,,,,,,orange,circle
0.0,5.0,0.0,1.0,4.0,4.0,380.7221179999942,3.0,1.0,phase_1,,,,,,,,,,,,,white,triangle
0.0,2.0,0.0,0.0,4.0,4.0,381.4435750000484,3.0,1.0,phase_1,,,,,,,,,,,,,yellow,flipped triangle
674.0,3.0,3.0,0.0,2.0,2.0,371.7943859999195,3.0,1.0,phase_1,,,,,,,,,,,,,gray,hexagon
626.0,3.0,3.0,0.0,1.0,1.0,390.4398939998827,3.0,1.0,phase_1,,,,,,,,,,,,,gray,hexagon
670.0,7.0,3.0,1.0,4.0,4.0,367.482764999977,3.0,1.0,phase_1,,,,,,,,,,,,,blue,diamond
146.0,5.0,1.0,1.0,4.0,4.0,370.2269910002087,3.0,1.0,phase_1,,,,,,,,,,,,,white,triangle
1282.0,4.0,4.0,0.0,1.0,1.0,464.5760939999945,3.0,1.0,phase_1,,,,,,,,,,,,,green,square
1317.0,8.0,4.0,1.0,4.0,4.0,361.4302299999963,3.0,1.0,phase_1,,,,,,,,,,,,,orange,circle
664.0,7.0,3.0,1.0,1.0,1.0,342.3488650000763,3.0,1.0,phase_1,,,,,,,,,,,,,blue,diamond
1318.0,8.0,4.0,1.0,4.0,4.0,370.3586970000287,3.0,1.0,phase_1,,,,,,,,,,,,,orange,circle
1282.0,8.0,4.0,1.0,2.0,2.0,371.7188630000692,3.0,1.0,phase_1,,,,,,,,,,,,,orange,circle
0.0,8.0,0.0,1.0,1.0,1.0,370.7767769999464,3.0,1.0,phase_1,,,,,,,,,,,,,orange,circle
0.0,8.0,0.0,1.0,2.0,2.0,436.3758899999084,3.0,1.0,phase_1,,,,,,,,,,,,,orange,circle
634.0,3.0,3.0,0.0,2.0,2.0,362.0161039998493,3.0,1.0,phase_1,,,,,,,,,,,,,gray,hexagon
156.0,1.0,1.0,0.0,3.0,3.0,389.2397009999513,3.0,1.0,phase_1,,,,,,,,,,,,,magenta,I
186.0,5.0,1.0,1.0,3.0,3.0,354.3023950001043,3.0,1.0,phase_1,,,,,,,,,,,,,white,triangle
146.0,1.0,1.0,0.0,2.0,2.0,343.4281930001361,3.0,1.0,phase_1,,,,,,,,,,,,,magenta,I
347.0,6.0,2.0,1.0,4.0,4.0,344.2962780000016,3.0,1.0,phase_1,,,,,,,,,,,,,cyan,cross
1276.0,4.0,4.0,0.0,3.0,3.0,314.6174170001359,3.0,1.0,phase_1,,,,,,,,,,,,,green,square
347.0,2.0,2.0,0.0,2.0,2.0,380.1725140001508,3.0,1.0,phase_1,,,,,,,,,,,,,yellow,flipped triangle
1304.0,8.0,4.0,1.0,2.0,2.0,491.4558760001455,3.0,1.0,phase_1,,,,,,,,,,,,,orange,circle
0.0,1.0,0.0,0.0,3.0,3.0,390.8592069999486,3.0,1.0,phase_1,,,,,,,,,,,,,magenta,I
347.0,2.0,2.0,0.0,1.0,1.0,380.1374689999193,3.0,1.0,phase_1,,,,,,,,,,,,,yellow,flipped triangle
649.0,7.0,3.0,1.0,4.0,4.0,344.1099369999847,3.0,1.0,phase_1,,,,,,,,,,,,,blue,diamond
146.0,1.0,1.0,0.0,1.0,1.0,568.3788569999706,3.0,1.0,phase_1,,,,,,,,,,,,,magenta,I
0.0,2.0,0.0,0.0,4.0,4.0,400.1149669998085,3.0,1.0,phase_1,,,,,,,,,,,,,yellow,flipped triangle
168.0,5.0,1.0,1.0,4.0,4.0,408.0301879998842,3.0,1.0,phase_1,,,,,,,,,,,,,white,triangle
0.0,4.0,0.0,0.0,2.0,2.0,380.8522979998088,3.0,1.0,phase_1,,,,,,,,,,,,,green,square
321.0,6.0,2.0,1.0,2.0,2.0,388.7289730000702,3.0,1.0,phase_1,,,,,,,,,,,,,cyan,cross
316.0,2.0,2.0,0.0,4.0,4.0,379.6309250001286,3.0,1.0,phase_1,,,,,,,,,,,,,yellow,flipped triangle
349.0,6.0,2.0,1.0,1.0,1.0,351.2782230000084,3.0,1.0,phase_1,,,,,,,,,,,,,cyan,cross
630.0,7.0,3.0,1.0,4.0,4.0,398.5534549997283,3.0,1.0,phase_1,,,,,,,,,,,,,blue,diamond
341.0,2.0,2.0,0.0,2.0,2.0,352.2850300000755,3.0,1.0,phase_1,,,,,,,,,,,,,yellow,flipped triangle
314.0,2.0,2.0,0.0,1.0,1.0,418.9203480000287,3.0,1.0,phase_1,,,,,,,,,,,,,yellow,flipped triangle
1278.0,4.0,4.0,0.0,2.0,2.0,315.7363499999519,3.0,1.0,phase_1,,,,,,,,,,,,,green,square
0.0,6.0,0.0,1.0,4.0,4.0,333.5872280003968,3.0,1.0,phase_1,,,,,,,,,,,,,cyan,cross
640.0,3.0,3.0,0.0,1.0,1.0,481.3411239997549,3.0,1.0,phase_1,,,,,,,,,,,,,gray,hexagon
187.0,1.0,1.0,0.0,2.0,2.0,426.3161620001483,3.0,1.0,phase_1,,,,,,,,,,,,,magenta,I
1276.0,8.0,4.0,1.0,1.0,1.0,397.7154039998822,3.0,1.0,phase_1,,,,,,,,,,,,,orange,circle
320.0,6.0,2.0,1.0,4.0,4.0,370.4641979998087,3.0,1.0,phase_1,,,,,,,,,,,,,cyan,cross
641.0,3.0,3.0,0.0,3.0,3.0,314.948835999985,3.0,1.0,phase_1,,,,,,,,,,,,,gray,hexagon
318.0,6.0,2.0,1.0,1.0,1.0,388.0406160001257,3.0,1.0,phase_1,,,,,,,,,,,,,cyan,cross
183.0,5.0,1.0,1.0,4.0,4.0,370.0542799997492,3.0,1.0,phase_1,,,,,,,,,,,,,white,triangle
163.0,5.0,1.0,1.0,2.0,2.0,388.503684999705,3.0,1.0,phase_1,,,,,,,,,,,,,white,triangle
668.0,3.0,3.0,0.0,2.0,2.0,482.8974430001835,3.0,1.0,phase_1,,,,,,,,,,,,,gray,hexagon
1302.0,4.0,4.0,0.0,4.0,4.0,353.0238729999837,3.0,1.0,phase_1,,,,,,,,,,,,,green,square
0.0,2.0,0.0,0.0,1.0,1.0,371.1540499998591,3.0,1.0,phase_1,,,,,,,,,,,,,yellow,flipped triangle
309.0,2.0,2.0,0.0,4.0,4.0,378.3496450000712,3.0,1.0,phase_1,,,,,,,,,,,,,yellow,flipped triangle
339.0,2.0,2.0,0.0,4.0,4.0,360.4506430001493,3.0,1.0,phase_1,,,,,,,,,,,,,yellow,flipped triangle
163.0,1.0,1.0,0.0,2.0,2.0,370.7813089999945,3.0,1.0,phase_1,,,,,,,,,,,,,magenta,I
0.0,3.0,0.0,0.0,4.0,4.0,333.7257260000115,3.0,1.0,phase_1,,,,,,,,,,,,,gray,hexagon
183.0,1.0,1.0,0.0,3.0,3.0,361.2692269998661,3.0,1.0,phase_1,,,,,,,,,,,,,magenta,I
653.0,7.0,3.0,1.0,2.0,2.0,389.280270999734,3.0,1.0,phase_1,,,,,,,,,,,,,blue,diamond
320.0,2.0,2.0,0.0,2.0,2.0,361.1295589998917,3.0,1.0,phase_1,,,,,,,,,,,,,yellow,flipped triangle
633.0,7.0,3.0,1.0,1.0,1.0,462.1948170001815,3.0,2.0,phase_1,,,,,,,,,,,,,blue,diamond
310.0,2.0,2.0,0.0,1.0,1.0,390.9026940000331,3.0,1.0,phase_1,,,,,,,,,,,,,yellow,flipped triangle
0.0,1.0,0.0,0.0,1.0,1.0,417.3363979998612,3.0,1.0,phase_1,,,,,,,,,,,,,magenta,I
331.0,2.0,2.0,0.0,4.0,4.0,436.1350009999114,3.0,1.0,phase_1,,,,,,,,,,,,,yellow,flipped triangle
0.0,2.0,0.0,0.0,1.0,1.0,436.0587259998283,3.0,1.0,phase_1,,,,,,,,,,,,,yellow,flipped triangle
0.0,1.0,0.0,0.0,1.0,1.0,380.2233860001252,3.0,1.0,phase_1,,,,,,,,,,,,,magenta,I
0.0,3.0,0.0,0.0,2.0,2.0,499.8833199997534,3.0,1.0,phase_1,,,,,,,,,,,,,gray,hexagon
1305.0,4.0,4.0,0.0,4.0,4.0,399.481643999934,3.0,1.0,phase_1,,,,,,,,,,,,,green,square
659.0,7.0,3.0,1.0,2.0,2.0,481.4918730003228,3.0,1.0,phase_1,,,,,,,,,,,,,blue,diamond
1303.0,4.0,4.0,0.0,1.0,1.0,351.3533270001971,3.0,1.0,phase_1,,,,,,,,,,,,,green,square
180.0,1.0,1.0,0.0,4.0,4.0,427.1808110001984,3.0,1.0,phase_1,,,,,,,,,,,,,magenta,I
339.0,6.0,2.0,1.0,3.0,3.0,455.3311079998821,3.0,1.0,phase_1,,,,,,,,,,,,,cyan,cross
658.0,7.0,3.0,1.0,1.0,1.0,452.6301089999833,3.0,1.0,phase_1,,,,,,,,,,,,,blue,diamond
320.0,2.0,2.0,0.0,1.0,1.0,444.4064230001459,3.0,1.0,phase_1,,,,,,,,,,,,,yellow,flipped triangle
300.0,2.0,2.0,0.0,2.0,2.0,407.9911979997632,3.0,1.0,phase_1,,,,,,,,,,,,,yellow,flipped triangle
1324.0,4.0,4.0,0.0,4.0,4.0,407.3222910001277,3.0,1.0,phase_1,,,,,,,,,,,,,green,square
1305.0,4.0,4.0,0.0,1.0,1.0,473.3117259997925,4.0,1.0,phase_1,,,,,,,,,,,,,green,square
164.0,1.0,1.0,0.0,4.0,4.0,361.559595000017,4.0,1.0,phase_1,,,,,,,,,,,,,magenta,I
330.0,6.0,2.0,1.0,2.0,2.0,315.1054029999613,4.0,1.0,phase_1,,,,,,,,,,,,,cyan,cross
627.0,7.0,3.0,1.0,1.0,1.0,352.1566469999015,4.0,1.0,phase_1,,,,,,,,,,,,,blue,diamond
0.0,2.0,0.0,0.0,4.0,4.0,407.657305000157,4.0,1.0,phase_1,,,,,,,,,,,,,yellow,flipped triangle
309.0,6.0,2.0,1.0,1.0,1.0,334.1262909998477,4.0,1.0,phase_1,,,,,,,,,,,,,cyan,cross
0.0,2.0,0.0,0.0,1.0,1.0,323.6661309997544,4.0,1.0,phase_1,,,,,,,,,,,,,yellow,flipped triangle
157.0,1.0,1.0,0.0,3.0,3.0,389.4861809999383,4.0,1.0,phase_1,,,,,,,,,,,,,magenta,I
627.0,3.0,3.0,0.0,4.0,4.0,417.8593320002619,4.0,1.0,phase_1,,,,,,,,,,,,,gray,hexagon
319.0,6.0,2.0,1.0,2.0,2.0,333.7002800003574,4.0,1.0,phase_1,,,,,,,,,,,,,cyan,cross
1283.0,8.0,4.0,1.0,1.0,1.0,426.2360929997157,4.0,1.0,phase_1,,,,,,,,,,,,,orange,circle
321.0,2.0,2.0,0.0,3.0,3.0,324.1705569998885,4.0,1.0,phase_1,,,,,,,,,,,,,yellow,flipped triangle
0.0,2.0,0.0,0.0,3.0,3.0,350.6889250002132,4.0,1.0,phase_1,,,,,,,,,,,,,yellow,flipped triangle
642.0,3.0,3.0,0.0,1.0,1.0,361.338371000329,4.0,1.0,phase_1,,,,,,,,,,,,,gray,hexagon
1293.0,8.0,4.0,1.0,4.0,4.0,380.3191049996712,4.0,1.0,phase_1,,,,,,,,,,,,,orange,circle
335.0,6.0,2.0,1.0,2.0,2.0,398.3635300000969,4.0,1.0,phase_1,,,,,,,,,,,,,cyan,cross
1318.0,4.0,4.0,0.0,1.0,1.0,451.082846999725,4.0,1.0,phase_1,,,,,,,,,,,,,green,square
1320.0,4.0,4.0,0.0,3.0,3.0,355.5836230002569,4.0,1.0,phase_1,,,,,,,,,,,,,green,square
172.0,5.0,1.0,1.0,1.0,1.0,380.0572649997775,4.0,1.0,phase_1,,,,,,,,,,,,,white,triangle
322.0,6.0,2.0,1.0,4.0,4.0,424.3189599997095,4.0,1.0,phase_1,,,,,,,,,,,,,cyan,cross
1288.0,4.0,4.0,0.0,2.0,2.0,517.4687270000504,4.0,1.0,phase_1,,,,,,,,,,,,,green,square
634.0,3.0,3.0,0.0,3.0,3.0,345.2730920002977,4.0,1.0,phase_1,,,,,,,,,,,,,gray,hexagon
322.0,2.0,2.0,0.0,3.0,3.0,308.1782009999187,4.0,1.0,phase_1,,,,,,,,,,,,,yellow,flipped triangle
639.0,3.0,3.0,0.0,3.0,3.0,323.2915889998367,4.0,1.0,phase_1,,,,,,,,,,,,,gray,hexagon
156.0,5.0,1.0,1.0,3.0,3.0,333.9091410002766,4.0,1.0,phase_1,,,,,,,,,,,,,white,triangle
0.0,5.0,0.0,1.0,4.0,4.0,482.629557999644,4.0,1.0,phase_1,,,,,,,,,,,,,white,triangle
1291.0,4.0,4.0,0.0,4.0,4.0,407.0458920000419,4.0,1.0,phase_1,,,,,,,,,,,,,green,square
0.0,3.0,0.0,0.0,2.0,2.0,342.9040209998675,4.0,1.0,phase_1,,,,,,,,,,,,,gray,hexagon
343.0,6.0,2.0,1.0,2.0,2.0,343.1556860000455,4.0,1.0,phase_1,,,,,,,,,,,,,cyan,cross
669.0,7.0,3.0,1.0,3.0,3.0,353.0896880001819,4.0,1.0,phase_1,,,,,,,,,,,,,blue,diamond
140.0,5.0,1.0,1.0,3.0,3.0,333.9874670000426,4.0,1.0,phase_1,,,,,,,,,,,,,white,triangle
0.0,4.0,0.0,0.0,4.0,4.0,354.8060060002171,4.0,1.0,phase_1,,,,,,,,,,,,,green,square
0.0,8.0,0.0,1.0,2.0,2.0,352.5382399998307,4.0,1.0,phase_1,,,,,,,,,,,,,orange,circle
651.0,3.0,3.0,0.0,2.0,2.0,419.4016810001812,4.0,1.0,phase_1,,,,,,,,,,,,,gray,hexagon
305.0,6.0,2.0,1.0,4.0,4.0,361.7147259997182,4.0,1.0,phase_1,,,,,,,,,,,,,cyan,cross
347.0,6.0,2.0,1.0,3.0,3.0,406.7905110000538,4.0,1.0,phase_1,,,,,,,,,,,,,cyan,cross
633.0,3.0,3.0,0.0,2.0,2.0,554.996631999984,4.0,1.0,phase_1,,,,,,,,,,,,,gray,hexagon
629.0,7.0,3.0,1.0,4.0,4.0,388.7281590000384,4.0,1.0,phase_1,,,,,,,,,,,,,blue,diamond
641.0,3.0,3.0,0.0,1.0,1.0,379.405207000218,4.0,1.0,phase_1,,,,,,,,,,,,,gray,hexagon
151.0,5.0,1.0,1.0,1.0,1.0,984.8993629998404,4.0,1.0,phase_1,,,,,,,,,,,,,white,triangle
1291.0,4.0,4.0,0.0,3.0,3.0,433.8531419998617,4.0,1.0,phase_1,,,,,,,,,,,,,green,square
0.0,6.0,0.0,1.0,1.0,1.0,834.2536879999898,4.0,1.0,phase_1,,,,,,,,,,,,,cyan,cross
668.0,3.0,3.0,0.0,2.0,2.0,452.8992839996135,4.0,1.0,phase_1,,,,,,,,,,,,,gray,hexagon
0.0,5.0,0.0,1.0,2.0,2.0,370.2002089999041,4.0,1.0,phase_1,,,,,,,,,,,,,white,triangle
154.0,5.0,1.0,1.0,2.0,2.0,306.1379819996546,4.0,1.0,phase_1,,,,,,,,,,,,,white,triangle
140.0,1.0,1.0,0.0,3.0,3.0,351.3265460001094,4.0,1.0,phase_1,,,,,,,,,,,,,magenta,I
159.0,5.0,1.0,1.0,4.0,4.0,334.1483770000195,4.0,1.0,phase_1,,,,,,,,,,,,,white,triangle
668.0,7.0,3.0,1.0,1.0,1.0,501.5951670002323,4.0,1.0,phase_1,,,,,,,,,,,,,blue,diamond
335.0,6.0,2.0,1.0,1.0,1.0,361.6190699999606,4.0,1.0,phase_1,,,,,,,,,,,,,cyan,cross
0.0,3.0,0.0,0.0,2.0,2.0,351.7586749999282,4.0,1.0,phase_1,,,,,,,,,,,,,gray,hexagon
1276.0,8.0,4.0,1.0,1.0,1.0,323.7561529999766,4.0,1.0,phase_1,,,,,,,,,,,,,orange,circle
0.0,4.0,0.0,0.0,4.0,4.0,370.8253639997565,4.0,1.0,phase_1,,,,,,,,,,,,,green,square
315.0,6.0,2.0,1.0,2.0,2.0,362.2870629997123,4.0,1.0,phase_1,,,,,,,,,,,,,cyan,cross
159.0,1.0,1.0,0.0,1.0,1.0,388.8386389999141,4.0,1.0,phase_1,,,,,,,,,,,,,magenta,I
1291.0,8.0,4.0,1.0,3.0,3.0,425.114221000058,4.0,1.0,phase_1,,,,,,,,,,,,,orange,circle
318.0,2.0,2.0,0.0,4.0,4.0,361.9808890002787,4.0,1.0,phase_1,,,,,,,,,,,,,yellow,flipped triangle
0.0,1.0,0.0,0.0,1.0,1.0,399.077312999907,4.0,1.0,phase_1,,,,,,,,,,,,,magenta,I
167.0,5.0,1.0,1.0,1.0,1.0,379.6353970001291,4.0,1.0,phase_1,,,,,,,,,,,,,white,triangle
327.0,6.0,2.0,1.0,1.0,1.0,437.7615630000946,4.0,1.0,phase_1,,,,,,,,,,,,,cyan,cross
0.0,7.0,0.0,1.0,4.0,4.0,407.8061979998892,4.0,1.0,phase_1,,,,,,,,,,,,,blue,diamond
1288.0,4.0,4.0,0.0,3.0,3.0,352.8202049997162,4.0,1.0,phase_1,,,,,,,,,,,,,green,square
658.0,3.0,3.0,0.0,1.0,1.0,359.9414119998982,4.0,1.0,phase_1,,,,,,,,,,,,,gray,hexagon
0.0,5.0,0.0,1.0,1.0,1.0,426.94019999999,4.0,1.0,phase_1,,,,,,,,,,,,,white,triangle
0.0,4.0,0.0,0.0,1.0,1.0,307.1734940003807,4.0,1.0,phase_1,,,,,,,,,,,,,green,square
320.0,6.0,2.0,1.0,3.0,3.0,425.9651359998315,4.0,1.0,phase_1,,,,,,,,,,,,,cyan,cross
1283.0,4.0,4.0,0.0,1.0,1.0,324.724366999817,4.0,1.0,phase_1,,,,,,,,,,,,,green,square
318.0,6.0,2.0,1.0,1.0,1.0,363.1069299999581,4.0,1.0,phase_1,,,,,,,,,,,,,cyan,cross
0.0,3.0,0.0,0.0,4.0,4.0,379.1173859999617,4.0,1.0,phase_1,,,,,,,,,,,,,gray,hexagon
138.0,1.0,1.0,0.0,4.0,4.0,417.2214259997417,4.0,1.0,phase_1,,,,,,,,,,,,,magenta,I
0.0,1.0,0.0,0.0,2.0,2.0,361.83038199988,4.0,1.0,phase_1,,,,,,,,,,,,,magenta,I
303.0,6.0,2.0,1.0,4.0,4.0,306.2541399999645,4.0,1.0,phase_1,,,,,,,,,,,,,cyan,cross
0.0,8.0,0.0,1.0,3.0,3.0,333.8014559999465,4.0,1.0,phase_1,,,,,,,,,,,,,orange,circle
327.0,6.0,2.0,1.0,3.0,3.0,333.5281209997447,4.0,1.0,phase_1,,,,,,,,,,,,,cyan,cross
1278.0,8.0,4.0,1.0,3.0,3.0,352.1853040001588,4.0,1.0,phase_1,,,,,,,,,,,,,orange,circle
1291.0,8.0,4.0,1.0,1.0,1.0,306.8009189996701,4.0,1.0,phase_1,,,,,,,,,,,,,orange,circle
336.0,6.0,2.0,1.0,4.0,4.0,343.5273499999312,4.0,1.0,phase_1,,,,,,,,,,,,,cyan,cross
658.0,3.0,3.0,0.0,4.0,4.0,343.8648110000031,4.0,1.0,phase_1,,,,,,,,,,,,,gray,hexagon
626.0,7.0,3.0,1.0,2.0,2.0,334.3430899999475,4.0,1.0,phase_1,,,,,,,,,,,,,blue,diamond
628.0,3.0,3.0,0.0,4.0,4.0,315.5800730000919,4.0,1.0,phase_1,,,,,,,,,,,,,gray,hexagon
1309.0,4.0,4.0,0.0,3.0,3.0,325.3874419997373,4.0,1.0,phase_1,,,,,,,,,,,,,green,square
329.0,2.0,2.0,0.0,2.0,2.0,417.1685280002748,4.0,1.0,phase_1,,,,,,,,,,,,,yellow,flipped triangle
1320.0,8.0,4.0,1.0,3.0,3.0,363.8880439998502,4.0,1.0,phase_1,,,,,,,,,,,,,orange,circle
330.0,6.0,2.0,1.0,4.0,4.0,651.1026119997041,4.0,1.0,phase_1,,,,,,,,,,,,,cyan,cross
1298.0,4.0,4.0,0.0,2.0,2.0,344.5108650003021,4.0,1.0,phase_1,,,,,,,,,,,,,green,square
183.0,5.0,1.0,1.0,4.0,4.0,324.2256749999797,4.0,1.0,phase_1,,,,,,,,,,,,,white,triangle
180.0,1.0,1.0,0.0,3.0,3.0,383.568128999741,4.0,1.0,phase_1,,,,,,,,,,,,,magenta,I
168.0,1.0,1.0,0.0,1.0,1.0,418.0268109998906,4.0,1.0,phase_1,,,,,,,,,,,,,magenta,I
180.0,5.0,1.0,1.0,1.0,1.0,511.0789690002093,4.0,1.0,phase_1,,,,,,,,,,,,,white,triangle
1295.0,8.0,4.0,1.0,3.0,3.0,324.7727009998016,4.0,1.0,phase_1,,,,,,,,,,,,,orange,circle
0.0,8.0,0.0,1.0,1.0,1.0,360.5371380003817,4.0,1.0,phase_1,,,,,,,,,,,,,orange,circle
0.0,7.0,0.0,1.0,2.0,2.0,435.1264400002037,4.0,1.0,phase_1,,,,,,,,,,,,,blue,diamond
1288.0,8.0,4.0,1.0,2.0,2.0,352.516924000156,4.0,1.0,phase_1,,,,,,,,,,,,,orange,circle
0.0,3.0,0.0,0.0,2.0,2.0,307.2473420002097,4.0,1.0,phase_1,,,,,,,,,,,,,gray,hexagon
672.0,3.0,3.0,0.0,2.0,2.0,305.7879420002791,4.0,1.0,phase_1,,,,,,,,,,,,,gray,hexagon
306.0,6.0,2.0,1.0,4.0,4.0,436.1493729998074,4.0,1.0,phase_1,,,,,,,,,,,,,cyan,cross
138.0,1.0,1.0,0.0,2.0,2.0,390.095950000159,4.0,1.0,phase_1,,,,,,,,,,,,,magenta,I
318.0,2.0,2.0,0.0,4.0,4.0,361.7981750003309,4.0,2.0,phase_1,,,,,,,,,,,,,yellow,flipped triangle
1288.0,8.0,4.0,1.0,2.0,2.0,344.4588570000633,4.0,1.0,phase_1,,,,,,,,,,,,,orange,circle
658.0,7.0,3.0,1.0,1.0,1.0,352.5509959999908,4.0,1.0,phase_1,,,,,,,,,,,,,blue,diamond
157.0,5.0,1.0,1.0,2.0,2.0,389.2402999999831,4.0,1.0,phase_1,,,,,,,,,,,,,white,triangle
0.0,3.0,3.0,0.0,5.0,5.0,429.7016820000863,1.0,1.0,phase_2,go,250.0,250.0,1.0,,,,,,,,,gray,hexagon
0.0,3.0,3.0,0.0,6.0,6.0,409.2031770001085,1.0,1.0,phase_2,go,250.0,250.0,1.0,,,,,,,,,gray,hexagon
0.0,6.0,2.0,1.0,6.0,0.0,0.0,1.0,1.0,phase_2,stop,250.0,250.0,4.0,,,,,,,,,cyan,cross
0.0,1.0,1.0,0.0,5.0,5.0,467.808333999983,1.0,1.0,phase_2,go,250.0,300.0,1.0,,,,,,,,,magenta,I
0.0,4.0,4.0,0.0,5.0,5.0,634.0176720000272,1.0,1.0,phase_2,go,250.0,300.0,1.0,,,,,,,,,green,square
0.0,1.0,1.0,0.0,6.0,6.0,456.8678900000122,1.0,1.0,phase_2,go,250.0,300.0,1.0,,,,,,,,,magenta,I
0.0,1.0,1.0,0.0,6.0,6.0,577.9412659999252,1.0,1.0,phase_2,go,250.0,300.0,1.0,,,,,,,,,magenta,I
0.0,6.0,2.0,1.0,5.0,0.0,0.0,1.0,1.0,phase_2,stop,250.0,300.0,4.0,,,,,,,,,cyan,cross
0.0,4.0,4.0,0.0,5.0,5.0,553.0445809999947,1.0,1.0,phase_2,go,300.0,300.0,1.0,,,,,,,,,green,square
0.0,6.0,2.0,1.0,5.0,0.0,0.0,1.0,1.0,phase_2,stop,300.0,300.0,4.0,,,,,,,,,cyan,cross
0.0,5.0,1.0,1.0,5.0,0.0,0.0,1.0,1.0,phase_2,stop,350.0,300.0,4.0,,,,,,,,,white,triangle
0.0,6.0,2.0,1.0,6.0,0.0,0.0,1.0,1.0,phase_2,stop,400.0,300.0,4.0,,,,,,,,,cyan,cross
0.0,6.0,2.0,1.0,6.0,6.0,505.4187120003917,1.0,1.0,phase_2,go,400.0,350.0,1.0,,,,,,,,,cyan,cross
0.0,3.0,3.0,0.0,6.0,6.0,656.3527439998325,1.0,1.0,phase_2,go,400.0,350.0,1.0,,,,,,,,,gray,hexagon
0.0,3.0,3.0,0.0,6.0,6.0,588.7829299999794,1.0,1.0,phase_2,go,400.0,350.0,1.0,,,,,,,,,gray,hexagon
0.0,4.0,4.0,0.0,6.0,6.0,365.4690739999751,1.0,1.0,phase_2,go,400.0,350.0,1.0,,,,,,,,,green,square
0.0,4.0,4.0,0.0,5.0,5.0,720.0986460002241,1.0,1.0,phase_2,go,400.0,350.0,1.0,,,,,,,,,green,square
0.0,2.0,2.0,0.0,5.0,5.0,763.5424579998471,1.0,1.0,phase_2,go,400.0,350.0,1.0,,,,,,,,,yellow,flipped triangle
0.0,5.0,1.0,1.0,6.0,0.0,0.0,1.0,1.0,phase_2,stop,400.0,350.0,4.0,,,,,,,,,white,triangle
0.0,4.0,4.0,0.0,6.0,6.0,699.4660580003256,1.0,1.0,phase_2,go,400.0,400.0,1.0,,,,,,,,,green,square
0.0,3.0,3.0,0.0,5.0,5.0,748.1591139999182,1.0,1.0,phase_2,go,400.0,400.0,1.0,,,,,,,,,gray,hexagon
0.0,5.0,1.0,1.0,5.0,5.0,662.8879969998707,1.0,1.0,phase_2,go,400.0,400.0,1.0,,,,,,,,,white,triangle
0.0,2.0,2.0,0.0,6.0,6.0,688.5007380001298,1.0,1.0,phase_2,go,400.0,400.0,1.0,,,,,,,,,yellow,flipped triangle
0.0,1.0,1.0,0.0,6.0,6.0,694.1541930000312,1.0,1.0,phase_2,go,400.0,400.0,1.0,,,,,,,,,magenta,I
0.0,8.0,4.0,1.0,6.0,0.0,0.0,1.0,1.0,phase_2,stop,400.0,400.0,4.0,,,,,,,,,orange,circle
0.0,7.0,3.0,1.0,5.0,5.0,616.1317390001386,1.0,1.0,phase_2,go,400.0,450.0,1.0,,,,,,,,,blue,diamond
0.0,6.0,2.0,1.0,6.0,6.0,344.9812689996179,1.0,1.0,phase_2,go,400.0,450.0,1.0,,,,,,,,,cyan,cross
0.0,2.0,2.0,0.0,5.0,5.0,577.2640950003733,1.0,1.0,phase_2,go,400.0,450.0,1.0,,,,,,,,,yellow,flipped triangle
0.0,8.0,4.0,1.0,6.0,6.0,496.7411920001723,1.0,1.0,phase_2,stop,400.0,450.0,3.0,,,,,,,,,orange,circle
0.0,6.0,2.0,1.0,6.0,6.0,625.6680100000267,1.0,1.0,phase_2,go,400.0,400.0,1.0,,,,,,,,,cyan,cross
0.0,4.0,4.0,0.0,5.0,5.0,557.9485250000289,1.0,1.0,phase_2,go,400.0,400.0,1.0,,,,,,,,,green,square
0.0,8.0,4.0,1.0,5.0,0.0,0.0,1.0,1.0,phase_2,stop,400.0,400.0,4.0,,,,,,,,,orange,circle
0.0,7.0,3.0,1.0,6.0,6.0,731.2234710002485,1.0,1.0,phase_2,go,450.0,400.0,1.0,,,,,,,,,blue,diamond
0.0,2.0,2.0,0.0,5.0,5.0,494.5737250000093,1.0,1.0,phase_2,go,450.0,400.0,1.0,,,,,,,,,yellow,flipped triangle
0.0,3.0,3.0,0.0,6.0,6.0,671.9073890003529,1.0,1.0,phase_2,go,450.0,400.0,1.0,,,,,,,,,gray,hexagon
0.0,8.0,4.0,1.0,6.0,0.0,0.0,1.0,1.0,phase_2,stop,450.0,400.0,4.0,,,,,,,,,orange,circle
0.0,4.0,4.0,0.0,5.0,5.0,635.3791359997558,2.0,1.0,phase_2,go,450.0,450.0,1.0,,,,,,,,,green,square
0.0,1.0,1.0,0.0,6.0,6.0,308.9479459999893,2.0,1.0,phase_2,go,450.0,450.0,1.0,,,,,,,,,magenta,I
0.0,2.0,2.0,0.0,6.0,6.0,533.5577969999576,2.0,1.0,phase_2,go,450.0,450.0,1.0,,,,,,,,,yellow,flipped triangle
0.0,8.0,4.0,1.0,5.0,5.0,372.9755370000021,2.0,1.0,phase_2,stop,450.0,450.0,3.0,,,,,,,,,orange,circle
0.0,7.0,3.0,1.0,6.0,6.0,576.3529179998841,2.0,1.0,phase_2,stop,400.0,450.0,3.0,,,,,,,,,blue,diamond
0.0,4.0,4.0,0.0,6.0,6.0,654.5696339999267,2.0,1.0,phase_2,go,400.0,400.0,1.0,,,,,,,,,green,square
0.0,3.0,3.0,0.0,6.0,6.0,710.4654039999332,2.0,1.0,phase_2,go,400.0,400.0,1.0,,,,,,,,,gray,hexagon
0.0,7.0,3.0,1.0,6.0,0.0,0.0,2.0,1.0,phase_2,stop,400.0,400.0,4.0,,,,,,,,,blue,diamond
0.0,3.0,3.0,0.0,6.0,6.0,663.7891519999357,2.0,1.0,phase_2,go,400.0,450.0,1.0,,,,,,,,,gray,hexagon
0.0,7.0,3.0,1.0,5.0,0.0,0.0,2.0,1.0,phase_2,stop,400.0,450.0,4.0,,,,,,,,,blue,diamond
0.0,2.0,2.0,0.0,5.0,5.0,640.2296000001115,2.0,1.0,phase_2,go,450.0,450.0,1.0,,,,,,,,,yellow,flipped triangle
0.0,7.0,3.0,1.0,6.0,0.0,0.0,2.0,1.0,phase_2,stop,450.0,450.0,4.0,,,,,,,,,blue,diamond
0.0,8.0,4.0,1.0,6.0,6.0,703.9860109998699,2.0,1.0,phase_2,go,450.0,500.0,1.0,,,,,,,,,orange,circle
0.0,1.0,1.0,0.0,5.0,5.0,638.871060999918,2.0,1.0,phase_2,go,450.0,500.0,1.0,,,,,,,,,magenta,I
0.0,6.0,2.0,1.0,6.0,6.0,787.2662029999447,2.0,1.0,phase_2,go,450.0,500.0,1.0,,,,,,,,,cyan,cross
0.0,5.0,1.0,1.0,6.0,6.0,645.49858700002,2.0,1.0,phase_2,stop,450.0,500.0,3.0,,,,,,,,,white,triangle
0.0,6.0,2.0,1.0,5.0,5.0,692.5216790000377,2.0,1.0,phase_2,go,450.0,450.0,1.0,,,,,,,,,cyan,cross
0.0,5.0,1.0,1.0,5.0,0.0,0.0,2.0,1.0,phase_2,stop,450.0,450.0,4.0,,,,,,,,,white,triangle
0.0,2.0,2.0,0.0,6.0,6.0,879.3112010002915,2.0,1.0,phase_2,go,500.0,450.0,1.0,,,,,,,,,yellow,flipped triangle
0.0,8.0,4.0,1.0,5.0,5.0,720.4253210002207,2.0,1.0,phase_2,go,500.0,450.0,1.0,,,,,,,,,orange,circle
0.0,4.0,4.0,0.0,6.0,6.0,814.4230679999964,2.0,1.0,phase_2,go,500.0,450.0,1.0,,,,,,,,,green,square
0.0,4.0,4.0,0.0,5.0,5.0,786.1532309998438,2.0,1.0,phase_2,go,500.0,450.0,1.0,,,,,,,,,green,square
0.0,5.0,1.0,1.0,5.0,0.0,0.0,2.0,1.0,phase_2,stop,500.0,450.0,4.0,,,,,,,,,white,triangle
0.0,7.0,3.0,1.0,5.0,5.0,674.1044649998003,2.0,1.0,phase_2,go,550.0,450.0,1.0,,,,,,,,,blue,diamond
0.0,6.0,2.0,1.0,5.0,5.0,728.0801380002231,2.0,1.0,phase_2,stop,550.0,450.0,3.0,,,,,,,,,cyan,cross
0.0,3.0,3.0,0.0,5.0,5.0,758.3353879999777,2.0,1.0,phase_2,go,500.0,450.0,1.0,,,,,,,,,gray,hexagon
0.0,7.0,3.0,1.0,6.0,0.0,0.0,2.0,1.0,phase_2,stop,500.0,450.0,4.0,,,,,,,,,blue,diamond
0.0,1.0,1.0,0.0,5.0,5.0,655.6957130001138,2.0,1.0,phase_2,go,500.0,500.0,1.0,,,,,,,,,magenta,I
0.0,2.0,2.0,0.0,6.0,6.0,701.5519209999184,2.0,1.0,phase_2,go,500.0,500.0,1.0,,,,,,,,,yellow,flipped triangle
0.0,6.0,2.0,1.0,5.0,0.0,0.0,2.0,1.0,phase_2,stop,500.0,500.0,4.0,,,,,,,,,cyan,cross
0.0,7.0,3.0,1.0,5.0,5.0,743.6730909998914,2.0,1.0,phase_2,stop,550.0,500.0,3.0,,,,,,,,,blue,diamond
0.0,5.0,1.0,1.0,5.0,5.0,822.8922050002438,2.0,1.0,phase_2,go,500.0,500.0,1.0,,,,,,,,,white,triangle
0.0,7.0,3.0,1.0,5.0,0.0,0.0,2.0,1.0,phase_2,stop,500.0,500.0,4.0,,,,,,,,,blue,diamond
0.0,4.0,4.0,0.0,6.0,6.0,610.5969690001984,2.0,1.0,phase_2,go,550.0,500.0,1.0,,,,,,,,,green,square
0.0,4.0,4.0,0.0,6.0,6.0,841.9586300001356,2.0,1.0,phase_2,go,550.0,500.0,1.0,,,,,,,,,green,square
0.0,8.0,4.0,1.0,6.0,0.0,0.0,2.0,1.0,phase_2,stop,550.0,500.0,4.0,,,,,,,,,orange,circle
0.0,4.0,4.0,0.0,6.0,6.0,353.9869199998975,3.0,1.0,phase_2,go,550.0,550.0,1.0,,,,,,,,,green,square
0.0,2.0,2.0,0.0,6.0,6.0,364.6721639997849,3.0,1.0,phase_2,go,550.0,550.0,1.0,,,,,,,,,yellow,flipped triangle
0.0,6.0,2.0,1.0,5.0,5.0,364.9448589999338,3.0,1.0,phase_2,go,550.0,550.0,1.0,,,,,,,,,cyan,cross
0.0,1.0,1.0,0.0,6.0,6.0,663.3213959999011,3.0,1.0,phase_2,go,550.0,550.0,1.0,,,,,,,,,magenta,I
0.0,7.0,3.0,1.0,6.0,6.0,598.0029920001471,3.0,1.0,phase_2,stop,550.0,550.0,3.0,,,,,,,,,blue,diamond
0.0,5.0,1.0,1.0,5.0,5.0,392.840444000285,3.0,1.0,phase_2,stop,550.0,500.0,3.0,,,,,,,,,white,triangle
0.0,8.0,4.0,1.0,6.0,6.0,538.7954469997567,3.0,1.0,phase_2,go,500.0,500.0,1.0,,,,,,,,,orange,circle
0.0,3.0,3.0,0.0,6.0,6.0,384.0124489997834,3.0,1.0,phase_2,go,500.0,500.0,1.0,,,,,,,,,gray,hexagon
0.0,7.0,3.0,1.0,5.0,5.0,280.4202639999857,3.0,1.0,phase_2,stop,500.0,500.0,3.0,,,,,,,,,blue,diamond
0.0,8.0,4.0,1.0,5.0,5.0,599.7168519998013,3.0,1.0,phase_2,go,450.0,500.0,1.0,,,,,,,,,orange,circle
0.0,4.0,4.0,0.0,5.0,5.0,271.7694349998965,3.0,1.0,phase_2,go,450.0,500.0,1.0,,,,,,,,,green,square
0.0,5.0,1.0,1.0,5.0,5.0,392.1515960000761,3.0,1.0,phase_2,go,450.0,500.0,1.0,,,,,,,,,white,triangle
0.0,8.0,4.0,1.0,6.0,6.0,308.8257070003237,3.0,1.0,phase_2,stop,450.0,500.0,3.0,,,,,,,,,orange,circle
0.0,2.0,2.0,0.0,5.0,5.0,494.7592429998622,3.0,1.0,phase_2,go,450.0,450.0,1.0,,,,,,,,,yellow,flipped triangle
0.0,8.0,4.0,1.0,5.0,5.0,571.4024180001616,3.0,1.0,phase_2,go,450.0,450.0,1.0,,,,,,,,,orange,circle
0.0,2.0,2.0,0.0,5.0,5.0,542.7091010001277,3.0,1.0,phase_2,go,450.0,450.0,1.0,,,,,,,,,yellow,flipped triangle
0.0,2.0,2.0,0.0,5.0,5.0,393.9163140003074,3.0,1.0,phase_2,go,450.0,450.0,1.0,,,,,,,,,yellow,flipped triangle
0.0,5.0,1.0,1.0,5.0,5.0,567.2089250001591,3.0,1.0,phase_2,stop,450.0,450.0,3.0,,,,,,,,,white,triangle
0.0,2.0,2.0,0.0,6.0,6.0,373.8817070002369,3.0,1.0,phase_2,go,400.0,450.0,1.0,,,,,,,,,yellow,flipped triangle
0.0,5.0,1.0,1.0,6.0,6.0,355.9686349999538,3.0,1.0,phase_2,stop,400.0,450.0,3.0,,,,,,,,,white,triangle
0.0,8.0,4.0,1.0,6.0,6.0,542.307843999879,3.0,1.0,phase_2,stop,400.0,400.0,3.0,,,,,,,,,orange,circle
0.0,3.0,3.0,0.0,6.0,6.0,607.0018280001932,3.0,1.0,phase_2,go,400.0,350.0,1.0,,,,,,,,,gray,hexagon
0.0,3.0,3.0,0.0,5.0,5.0,822.845536999921,3.0,1.0,phase_2,go,400.0,350.0,1.0,,,,,,,,,gray,hexagon
0.0,3.0,3.0,0.0,5.0,5.0,364.1730449999159,3.0,1.0,phase_2,go,400.0,350.0,1.0,,,,,,,,,gray,hexagon
0.0,2.0,2.0,0.0,6.0,6.0,529.6795449999081,3.0,1.0,phase_2,go,400.0,350.0,1.0,,,,,,,,,yellow,flipped triangle
0.0,7.0,3.0,1.0,5.0,5.0,430.7140169999002,3.0,1.0,phase_2,go,400.0,350.0,1.0,,,,,,,,,blue,diamond
0.0,6.0,2.0,1.0,6.0,6.0,730.6462709998414,3.0,1.0,phase_2,go,400.0,350.0,1.0,,,,,,,,,cyan,cross
0.0,1.0,1.0,0.0,6.0,6.0,429.9721520001185,3.0,1.0,phase_2,go,400.0,350.0,1.0,,,,,,,,,magenta,I
0.0,6.0,2.0,1.0,5.0,0.0,0.0,3.0,1.0,phase_2,stop,400.0,350.0,4.0,,,,,,,,,cyan,cross
0.0,2.0,2.0,0.0,5.0,5.0,533.0890049999653,3.0,1.0,phase_2,go,450.0,350.0,1.0,,,,,,,,,yellow,flipped triangle
0.0,8.0,4.0,1.0,5.0,5.0,318.26040199985067,3.0,1.0,phase_2,stop,450.0,350.0,3.0,,,,,,,,,orange,circle
0.0,2.0,2.0,0.0,5.0,5.0,560.6899370000065,3.0,1.0,phase_2,go,400.0,350.0,1.0,,,,,,,,,yellow,flipped triangle
0.0,3.0,3.0,0.0,6.0,6.0,700.446372999977,3.0,1.0,phase_2,go,400.0,350.0,1.0,,,,,,,,,gray,hexagon
0.0,3.0,3.0,0.0,5.0,5.0,430.2923719997125,3.0,1.0,phase_2,go,400.0,350.0,1.0,,,,,,,,,gray,hexagon
0.0,4.0,4.0,0.0,6.0,6.0,579.6239899996181,3.0,1.0,phase_2,go,400.0,350.0,1.0,,,,,,,,,green,square
0.0,2.0,2.0,0.0,5.0,5.0,458.5722460001307,3.0,1.0,phase_2,go,400.0,350.0,1.0,,,,,,,,,yellow,flipped triangle
0.0,6.0,2.0,1.0,5.0,0.0,0.0,4.0,1.0,phase_2,stop,400.0,350.0,4.0,,,,,,,,,cyan,cross
0.0,6.0,2.0,1.0,6.0,6.0,515.4254330000185,4.0,1.0,phase_2,stop,450.0,350.0,3.0,,,,,,,,,cyan,cross
0.0,1.0,1.0,0.0,5.0,5.0,439.4443659998615,4.0,1.0,phase_2,go,450.0,300.0,1.0,,,,,,,,,magenta,I
0.0,7.0,3.0,1.0,5.0,5.0,503.3082899999499,4.0,1.0,phase_2,stop,450.0,300.0,3.0,,,,,,,,,blue,diamond
0.0,8.0,4.0,1.0,6.0,6.0,605.0044720000187,4.0,1.0,phase_2,go,400.0,300.0,1.0,,,,,,,,,orange,circle
0.0,4.0,4.0,0.0,5.0,5.0,363.6697910001203,4.0,1.0,phase_2,go,400.0,300.0,1.0,,,,,,,,,green,square
0.0,1.0,1.0,0.0,5.0,5.0,550.9369389997119,4.0,1.0,phase_2,go,400.0,300.0,1.0,,,,,,,,,magenta,I
0.0,7.0,3.0,1.0,5.0,5.0,298.7204020000717,4.0,1.0,phase_2,stop,400.0,300.0,3.0,,,,,,,,,blue,diamond
0.0,6.0,2.0,1.0,5.0,0.0,0.0,4.0,1.0,phase_2,stop,350.0,300.0,4.0,,,,,,,,,cyan,cross
0.0,2.0,2.0,0.0,5.0,5.0,318.1556030003776,4.0,1.0,phase_2,go,400.0,300.0,1.0,,,,,,,,,yellow,flipped triangle
0.0,6.0,2.0,1.0,5.0,0.0,0.0,4.0,1.0,phase_2,stop,400.0,300.0,4.0,,,,,,,,,cyan,cross
0.0,5.0,1.0,1.0,5.0,5.0,421.5161059996717,4.0,1.0,phase_2,go,450.0,300.0,1.0,,,,,,,,,white,triangle
0.0,3.0,3.0,0.0,5.0,5.0,810.5130220001229,4.0,1.0,phase_2,go,450.0,300.0,1.0,,,,,,,,,gray,hexagon
0.0,1.0,1.0,0.0,5.0,5.0,607.1186529998158,4.0,1.0,phase_2,go,450.0,300.0,1.0,,,,,,,,,magenta,I
0.0,6.0,2.0,1.0,5.0,5.0,345.4738659997929,4.0,1.0,phase_2,stop,450.0,300.0,3.0,,,,,,,,,cyan,cross
0.0,7.0,3.0,1.0,6.0,6.0,408.08645099969,4.0,1.0,phase_2,stop,400.0,300.0,3.0,,,,,,,,,blue,diamond
0.0,7.0,3.0,1.0,5.0,5.0,508.0502850000812,4.0,1.0,phase_2,stop,400.0,250.0,3.0,,,,,,,,,blue,diamond
0.0,1.0,1.0,0.0,6.0,6.0,326.7964159999792,4.0,1.0,phase_2,go,350.0,250.0,1.0,,,,,,,,,magenta,I
0.0,4.0,4.0,0.0,6.0,6.0,364.8018330000013,4.0,1.0,phase_2,go,350.0,250.0,1.0,,,,,,,,,green,square
0.0,5.0,1.0,1.0,6.0,6.0,345.868935999988,4.0,1.0,phase_2,go,350.0,250.0,1.0,,,,,,,,,white,triangle
0.0,5.0,1.0,1.0,6.0,6.0,354.0488700000423,4.0,1.0,phase_2,stop,350.0,250.0,3.0,,,,,,,,,white,triangle
0.0,5.0,1.0,1.0,6.0,0.0,0.0,4.0,1.0,phase_2,stop,350.0,200.0,4.0,,,,,,,,,white,triangle
0.0,3.0,3.0,0.0,5.0,5.0,624.0551450000567,4.0,1.0,phase_2,go,350.0,250.0,1.0,,,,,,,,,gray,hexagon
0.0,1.0,1.0,0.0,5.0,5.0,598.4659979999378,4.0,1.0,phase_2,go,350.0,250.0,1.0,,,,,,,,,magenta,I
0.0,8.0,4.0,1.0,6.0,0.0,0.0,4.0,1.0,phase_2,stop,350.0,250.0,4.0,,,,,,,,,orange,circle
0.0,2.0,2.0,0.0,6.0,6.0,558.1335749998289,4.0,1.0,phase_2,go,350.0,300.0,1.0,,,,,,,,,yellow,flipped triangle
0.0,8.0,4.0,1.0,5.0,5.0,346.7865029997483,4.0,1.0,phase_2,go,350.0,300.0,1.0,,,,,,,,,orange,circle
0.0,8.0,4.0,1.0,5.0,5.0,472.755127000255,4.0,1.0,phase_2,stop,350.0,300.0,3.0,,,,,,,,,orange,circle
0.0,4.0,4.0,0.0,6.0,6.0,727.8528060001008,4.0,1.0,phase_2,go,300.0,300.0,1.0,,,,,,,,,green,square
0.0,5.0,1.0,1.0,5.0,0.0,0.0,4.0,1.0,phase_2,stop,300.0,300.0,4.0,,,,,,,,,white,triangle
0.0,5.0,1.0,1.0,5.0,0.0,0.0,4.0,1.0,phase_2,stop,350.0,300.0,4.0,,,,,,,,,white,triangle
0.0,2.0,2.0,0.0,6.0,6.0,429.9386070001674,4.0,1.0,phase_2,go,400.0,300.0,1.0,,,,,,,,,yellow,flipped triangle
0.0,1.0,1.0,0.0,6.0,6.0,569.3551370000023,4.0,1.0,phase_2,go,400.0,300.0,1.0,,,,,,,,,magenta,I
0.0,3.0,3.0,0.0,6.0,6.0,421.6479980000258,4.0,1.0,phase_2,go,400.0,300.0,1.0,,,,,,,,,gray,hexagon
0.0,3.0,3.0,0.0,5.0,5.0,484.0444989999923,4.0,1.0,phase_2,go,400.0,300.0,1.0,,,,,,,,,gray,hexagon
0.0,1.0,1.0,0.0,5.0,5.0,599.571350000133,4.0,1.0,phase_2,go,400.0,300.0,1.0,,,,,,,,,magenta,I
0.0,6.0,2.0,1.0,6.0,6.0,497.3025330000382,5.0,1.0,phase_2,stop,400.0,300.0,3.0,,,,,,,,,cyan,cross
0.0,3.0,3.0,0.0,5.0,5.0,514.1355109999495,5.0,1.0,phase_2,go,400.0,250.0,1.0,,,,,,,,,gray,hexagon
0.0,4.0,4.0,0.0,5.0,5.0,746.1110080002982,5.0,1.0,phase_2,go,400.0,250.0,1.0,,,,,,,,,green,square
0.0,1.0,1.0,0.0,5.0,5.0,457.8638729999511,5.0,1.0,phase_2,go,400.0,250.0,1.0,,,,,,,,,magenta,I
0.0,7.0,3.0,1.0,6.0,6.0,597.1883779998279,5.0,1.0,phase_2,go,400.0,250.0,1.0,,,,,,,,,blue,diamond
0.0,1.0,1.0,0.0,5.0,5.0,308.7127080002574,5.0,1.0,phase_2,go,400.0,250.0,1.0,,,,,,,,,magenta,I
0.0,8.0,4.0,1.0,5.0,5.0,289.9408520001998,5.0,1.0,phase_2,stop,400.0,250.0,3.0,,,,,,,,,orange,circle
0.0,7.0,3.0,1.0,6.0,6.0,350.8977940000477,5.0,1.0,phase_2,stop,350.0,250.0,3.0,,,,,,,,,blue,diamond
0.0,5.0,1.0,1.0,6.0,0.0,0.0,5.0,1.0,phase_2,stop,350.0,200.0,4.0,,,,,,,,,white,triangle
0.0,4.0,4.0,0.0,5.0,5.0,355.0104229998396,5.0,1.0,phase_2,go,350.0,250.0,1.0,,,,,,,,,green,square
0.0,8.0,4.0,1.0,6.0,6.0,388.0768690000877,5.0,1.0,phase_2,stop,350.0,250.0,3.0,,,,,,,,,orange,circle
0.0,4.0,4.0,0.0,5.0,5.0,571.0787729999538,5.0,1.0,phase_2,go,350.0,200.0,1.0,,,,,,,,,green,square
0.0,8.0,4.0,1.0,5.0,0.0,0.0,5.0,1.0,phase_2,stop,350.0,200.0,4.0,,,,,,,,,orange,circle
0.0,2.0,2.0,0.0,6.0,6.0,503.10203700018974,5.0,1.0,phase_2,go,400.0,200.0,1.0,,,,,,,,,yellow,flipped triangle
0.0,8.0,4.0,1.0,6.0,0.0,0.0,5.0,1.0,phase_2,stop,400.0,200.0,4.0,,,,,,,,,orange,circle
0.0,7.0,3.0,1.0,6.0,0.0,0.0,5.0,1.0,phase_2,stop,400.0,250.0,4.0,,,,,,,,,blue,diamond
0.0,2.0,2.0,0.0,5.0,5.0,448.0678850000004,5.0,1.0,phase_2,go,400.0,300.0,1.0,,,,,,,,,yellow,flipped triangle
0.0,1.0,1.0,0.0,5.0,5.0,382.0346739998967,5.0,1.0,phase_2,go,400.0,300.0,1.0,,,,,,,,,magenta,I
0.0,7.0,3.0,1.0,6.0,6.0,685.3677049998623,5.0,1.0,phase_2,go,400.0,300.0,1.0,,,,,,,,,blue,diamond
0.0,6.0,2.0,1.0,6.0,6.0,308.8678530002653,5.0,1.0,phase_2,go,400.0,300.0,1.0,,,,,,,,,cyan,cross
0.0,1.0,1.0,0.0,6.0,6.0,298.8526839999395,5.0,1.0,phase_2,go,400.0,300.0,1.0,,,,,,,,,magenta,I
0.0,2.0,2.0,0.0,6.0,6.0,309.7367169998506,5.0,1.0,phase_2,go,400.0,300.0,1.0,,,,,,,,,yellow,flipped triangle
0.0,7.0,3.0,1.0,6.0,0.0,0.0,5.0,1.0,phase_2,stop,400.0,300.0,4.0,,,,,,,,,blue,diamond
0.0,5.0,1.0,1.0,5.0,5.0,541.7930500002512,5.0,1.0,phase_2,go,400.0,350.0,1.0,,,,,,,,,white,triangle
0.0,2.0,2.0,0.0,6.0,6.0,430.3451910000149,5.0,1.0,phase_2,go,400.0,350.0,1.0,,,,,,,,,yellow,flipped triangle
0.0,7.0,3.0,1.0,5.0,0.0,0.0,5.0,1.0,phase_2,stop,400.0,350.0,4.0,,,,,,,,,blue,diamond
0.0,5.0,1.0,1.0,5.0,5.0,579.440405999776,5.0,1.0,phase_2,stop,450.0,350.0,3.0,,,,,,,,,white,triangle
0.0,5.0,1.0,1.0,6.0,0.0,0.0,5.0,1.0,phase_2,stop,400.0,350.0,4.0,,,,,,,,,white,triangle
0.0,3.0,3.0,0.0,5.0,5.0,456.1572100001285,5.0,1.0,phase_2,go,400.0,400.0,1.0,,,,,,,,,gray,hexagon
0.0,6.0,2.0,1.0,6.0,6.0,308.1981880000057,5.0,1.0,phase_2,stop,400.0,400.0,3.0,,,,,,,,,cyan,cross
0.0,4.0,4.0,0.0,5.0,5.0,680.7314210000186,5.0,1.0,phase_2,go,400.0,350.0,1.0,,,,,,,,,green,square
0.0,4.0,4.0,0.0,6.0,6.0,551.6495920001034,5.0,1.0,phase_2,go,400.0,350.0,1.0,,,,,,,,,green,square
0.0,1.0,1.0,0.0,5.0,5.0,635.7419969999683,5.0,1.0,phase_2,go,400.0,350.0,1.0,,,,,,,,,magenta,I
0.0,2.0,2.0,0.0,5.0,5.0,455.6077180000102,5.0,1.0,phase_2,go,400.0,350.0,1.0,,,,,,,,,yellow,flipped triangle
0.0,4.0,4.0,0.0,6.0,6.0,596.9404689999465,5.0,1.0,phase_2,go,400.0,350.0,1.0,,,,,,,,,green,square
0.0,4.0,4.0,0.0,5.0,5.0,568.4754320000138,5.0,1.0,phase_2,go,400.0,350.0,1.0,,,,,,,,,green,square
0.0,6.0,2.0,1.0,6.0,0.0,0.0,6.0,1.0,phase_2,stop,400.0,350.0,4.0,,,,,,,,,cyan,cross
0.0,1.0,1.0,0.0,6.0,6.0,569.6516570001222,6.0,1.0,phase_2,go,400.0,400.0,1.0,,,,,,,,,magenta,I
0.0,5.0,1.0,1.0,6.0,6.0,496.0774230003153,6.0,1.0,phase_2,stop,400.0,400.0,3.0,,,,,,,,,white,triangle
0.0,2.0,2.0,0.0,6.0,6.0,467.4953400003687,6.0,1.0,phase_2,go,400.0,350.0,1.0,,,,,,,,,yellow,flipped triangle
0.0,3.0,3.0,0.0,5.0,5.0,531.8231870001,6.0,1.0,phase_2,go,400.0,350.0,1.0,,,,,,,,,gray,hexagon
0.0,6.0,2.0,1.0,5.0,0.0,0.0,6.0,1.0,phase_2,stop,400.0,350.0,4.0,,,,,,,,,cyan,cross
0.0,1.0,1.0,0.0,6.0,6.0,467.6042569999481,6.0,1.0,phase_2,go,450.0,350.0,1.0,,,,,,,,,magenta,I
0.0,8.0,4.0,1.0,5.0,5.0,652.626095999949,6.0,1.0,phase_2,stop,450.0,350.0,3.0,,,,,,,,,orange,circle
0.0,3.0,3.0,0.0,6.0,6.0,763.1891979999637,6.0,1.0,phase_2,go,400.0,350.0,1.0,,,,,,,,,gray,hexagon
0.0,6.0,2.0,1.0,6.0,6.0,344.8947829997451,6.0,1.0,phase_2,stop,400.0,350.0,3.0,,,,,,,,,cyan,cross
0.0,5.0,1.0,1.0,6.0,0.0,0.0,6.0,1.0,phase_2,stop,400.0,300.0,4.0,,,,,,,,,white,triangle
0.0,3.0,3.0,0.0,6.0,6.0,625.2661680000529,6.0,1.0,phase_2,go,400.0,350.0,1.0,,,,,,,,,gray,hexagon
0.0,1.0,1.0,0.0,5.0,5.0,505.647627000144,6.0,1.0,phase_2,go,400.0,350.0,1.0,,,,,,,,,magenta,I
0.0,7.0,3.0,1.0,6.0,0.0,0.0,6.0,1.0,phase_2,stop,400.0,350.0,4.0,,,,,,,,,blue,diamond
0.0,3.0,3.0,0.0,6.0,6.0,644.8864519998097,6.0,1.0,phase_2,go,400.0,400.0,1.0,,,,,,,,,gray,hexagon
0.0,5.0,1.0,1.0,6.0,6.0,477.4321569998392,6.0,1.0,phase_2,go,400.0,400.0,1.0,,,,,,,,,white,triangle
0.0,2.0,2.0,0.0,5.0,5.0,717.3850310000489,6.0,1.0,phase_2,go,400.0,400.0,1.0,,,,,,,,,yellow,flipped triangle
0.0,6.0,2.0,1.0,5.0,0.0,0.0,6.0,1.0,phase_2,stop,400.0,400.0,4.0,,,,,,,,,cyan,cross
0.0,7.0,3.0,1.0,6.0,0.0,0.0,6.0,1.0,phase_2,stop,450.0,400.0,4.0,,,,,,,,,blue,diamond
0.0,7.0,3.0,1.0,6.0,0.0,0.0,6.0,1.0,phase_2,stop,450.0,450.0,4.0,,,,,,,,,blue,diamond
0.0,1.0,1.0,0.0,5.0,5.0,476.5134290000787,6.0,1.0,phase_2,go,450.0,500.0,1.0,,,,,,,,,magenta,I
0.0,4.0,4.0,0.0,5.0,5.0,552.4248019996776,6.0,1.0,phase_2,go,450.0,500.0,1.0,,,,,,,,,green,square
0.0,6.0,2.0,1.0,6.0,0.0,0.0,6.0,1.0,phase_2,stop,450.0,500.0,4.0,,,,,,,,,cyan,cross
0.0,5.0,1.0,1.0,6.0,6.0,606.0966629997893,6.0,1.0,phase_2,stop,450.0,550.0,3.0,,,,,,,,,white,triangle
0.0,8.0,4.0,1.0,5.0,0.0,0.0,6.0,1.0,phase_2,stop,450.0,500.0,4.0,,,,,,,,,orange,circle
0.0,3.0,3.0,0.0,5.0,5.0,522.3792500000854,6.0,1.0,phase_2,go,500.0,500.0,1.0,,,,,,,,,gray,hexagon
0.0,4.0,4.0,0.0,6.0,6.0,336.9668689997525,6.0,1.0,phase_2,go,500.0,500.0,1.0,,,,,,,,,green,square
0.0,6.0,2.0,1.0,5.0,5.0,666.7694180000581,6.0,1.0,phase_2,stop,500.0,500.0,3.0,,,,,,,,,cyan,cross
0.0,2.0,2.0,0.0,5.0,5.0,645.2998039999329,6.0,1.0,phase_2,go,450.0,500.0,1.0,,,,,,,,,yellow,flipped triangle
0.0,8.0,4.0,1.0,6.0,6.0,620.2404200003002,6.0,1.0,phase_2,stop,450.0,500.0,3.0,,,,,,,,,orange,circle
0.0,1.0,1.0,0.0,6.0,6.0,717.2284809998928,6.0,1.0,phase_2,go,450.0,450.0,1.0,,,,,,,,,magenta,I
0.0,8.0,4.0,1.0,5.0,5.0,738.5315970000192,6.0,1.0,phase_2,go,450.0,450.0,1.0,,,,,,,,,orange,circle
0.0,2.0,2.0,0.0,5.0,5.0,511.34556099987094,6.0,1.0,phase_2,go,450.0,450.0,1.0,,,,,,,,,yellow,flipped triangle
0.0,5.0,1.0,1.0,6.0,0.0,0.0,6.0,1.0,phase_2,stop,450.0,450.0,4.0,,,,,,,,,white,triangle
0.0,6.0,2.0,1.0,6.0,0.0,0.0,6.0,1.0,phase_2,stop,450.0,500.0,4.0,,,,,,,,,cyan,cross
0.0,3.0,3.0,0.0,6.0,6.0,764.7177710000506,6.0,1.0,phase_2,go,450.0,550.0,1.0,,,,,,,,,gray,hexagon
0.0,8.0,4.0,1.0,6.0,6.0,624.9250529999699,7.0,1.0,phase_2,stop,450.0,550.0,3.0,,,,,,,,,orange,circle
0.0,4.0,4.0,0.0,6.0,6.0,861.856552000063,7.0,1.0,phase_2,go,450.0,500.0,1.0,,,,,,,,,green,square
0.0,4.0,4.0,0.0,5.0,5.0,711.0716899996987,7.0,1.0,phase_2,go,450.0,500.0,1.0,,,,,,,,,green,square
0.0,1.0,1.0,0.0,6.0,6.0,796.328825999808,7.0,1.0,phase_2,go,450.0,500.0,1.0,,,,,,,,,magenta,I
0.0,6.0,2.0,1.0,6.0,6.0,347.0907599999009,7.0,1.0,phase_2,stop,450.0,500.0,3.0,,,,,,,,,cyan,cross
0.0,4.0,4.0,0.0,6.0,6.0,607.3826150000059,7.0,1.0,phase_2,go,450.0,450.0,1.0,,,,,,,,,green,square
0.0,4.0,4.0,0.0,5.0,5.0,328.0766540001423,7.0,1.0,phase_2,go,450.0,450.0,1.0,,,,,,,,,green,square
0.0,1.0,1.0,0.0,6.0,6.0,244.5720260002417,7.0,1.0,phase_2,go,450.0,450.0,1.0,,,,,,,,,magenta,I
0.0,6.0,2.0,1.0,6.0,0.0,0.0,7.0,1.0,phase_2,stop,450.0,450.0,4.0,,,,,,,,,cyan,cross
0.0,7.0,3.0,1.0,5.0,0.0,0.0,7.0,1.0,phase_2,stop,450.0,500.0,4.0,,,,,,,,,blue,diamond
0.0,5.0,1.0,1.0,6.0,6.0,300.7846159998735,7.0,1.0,phase_2,stop,500.0,500.0,3.0,,,,,,,,,white,triangle
0.0,5.0,1.0,1.0,6.0,6.0,738.6661900000036,7.0,1.0,phase_2,go,500.0,450.0,1.0,,,,,,,,,white,triangle
0.0,5.0,1.0,1.0,5.0,5.0,318.3626649997677,7.0,1.0,phase_2,stop,500.0,450.0,3.0,,,,,,,,,white,triangle
0.0,2.0,2.0,0.0,5.0,5.0,523.0096109999067,7.0,1.0,phase_2,go,450.0,450.0,1.0,,,,,,,,,yellow,flipped triangle
0.0,1.0,1.0,0.0,6.0,6.0,495.486572000118,7.0,1.0,phase_2,go,450.0,450.0,1.0,,,,,,,,,magenta,I
0.0,3.0,3.0,0.0,6.0,0.0,0.0,7.0,1.0,phase_2,go,450.0,450.0,5.0,,,,,,,,,gray,hexagon
0.0,7.0,3.0,1.0,5.0,0.0,0.0,7.0,1.0,phase_2,stop,450.0,450.0,4.0,,,,,,,,,blue,diamond
0.0,5.0,1.0,1.0,5.0,5.0,570.7731819998116,7.0,1.0,phase_2,stop,500.0,450.0,3.0,,,,,,,,,white,triangle
0.0,5.0,1.0,1.0,5.0,0.0,0.0,7.0,1.0,phase_2,stop,450.0,450.0,4.0,,,,,,,,,white,triangle
0.0,6.0,2.0,1.0,6.0,6.0,336.7227809999349,7.0,1.0,phase_2,go,500.0,450.0,1.0,,,,,,,,,cyan,cross
0.0,3.0,3.0,0.0,6.0,6.0,308.2740969998667,7.0,1.0,phase_2,go,500.0,450.0,1.0,,,,,,,,,gray,hexagon
0.0,5.0,1.0,1.0,6.0,0.0,0.0,7.0,1.0,phase_2,stop,500.0,450.0,4.0,,,,,,,,,white,triangle
0.0,7.0,3.0,1.0,5.0,5.0,456.4810699998816,7.0,1.0,phase_2,go,500.0,500.0,1.0,,,,,,,,,blue,diamond
0.0,2.0,2.0,0.0,6.0,6.0,822.2495049999452,7.0,1.0,phase_2,go,500.0,500.0,1.0,,,,,,,,,yellow,flipped triangle
0.0,5.0,1.0,1.0,5.0,0.0,0.0,7.0,1.0,phase_2,stop,500.0,500.0,4.0,,,,,,,,,white,triangle
0.0,8.0,4.0,1.0,5.0,0.0,0.0,7.0,1.0,phase_2,stop,550.0,500.0,4.0,,,,,,,,,orange,circle
0.0,1.0,1.0,0.0,6.0,6.0,512.836511000387,7.0,1.0,phase_2,go,600.0,500.0,1.0,,,,,,,,,magenta,I
0.0,6.0,2.0,1.0,5.0,5.0,747.2743879998234,7.0,1.0,phase_2,stop,600.0,500.0,3.0,,,,,,,,,cyan,cross
0.0,7.0,3.0,1.0,6.0,0.0,0.0,7.0,1.0,phase_2,stop,550.0,500.0,4.0,,,,,,,,,blue,diamond
0.0,2.0,2.0,0.0,5.0,5.0,441.5017919995989,7.0,1.0,phase_2,go,550.0,550.0,1.0,,,,,,,,,yellow,flipped triangle
0.0,4.0,4.0,0.0,5.0,5.0,830.6196389999059,7.0,1.0,phase_2,go,550.0,550.0,1.0,,,,,,,,,green,square
0.0,3.0,3.0,0.0,5.0,5.0,307.3985259998153,7.0,1.0,phase_2,go,550.0,550.0,1.0,,,,,,,,,gray,hexagon
0.0,3.0,3.0,0.0,5.0,5.0,364.1377630001443,7.0,1.0,phase_2,go,550.0,550.0,1.0,,,,,,,,,gray,hexagon
0.0,8.0,4.0,1.0,6.0,0.0,0.0,7.0,1.0,phase_2,stop,550.0,550.0,4.0,,,,,,,,,orange,circle
0.0,1.0,1.0,0.0,5.0,5.0,410.6823949996396,7.0,1.0,phase_2,go,550.0,600.0,1.0,,,,,,,,,magenta,I
0.0,7.0,3.0,1.0,5.0,5.0,612.9622960002052,7.0,1.0,phase_2,stop,550.0,600.0,3.0,,,,,,,,,blue,diamond
0.0,4.0,4.0,0.0,6.0,6.0,542.4664880001728,8.0,1.0,phase_2,go,500.0,600.0,1.0,,,,,,,,,green,square
0.0,3.0,3.0,0.0,6.0,6.0,439.7301700000753,8.0,1.0,phase_2,go,500.0,600.0,1.0,,,,,,,,,gray,hexagon
0.0,8.0,4.0,1.0,5.0,0.0,0.0,8.0,1.0,phase_2,stop,500.0,600.0,4.0,,,,,,,,,orange,circle
0.0,4.0,4.0,0.0,5.0,5.0,513.3160590003172,8.0,1.0,phase_2,go,550.0,600.0,1.0,,,,,,,,,green,square
0.0,3.0,3.0,0.0,5.0,5.0,717.4101470000096,8.0,1.0,phase_2,go,550.0,600.0,1.0,,,,,,,,,gray,hexagon
0.0,6.0,2.0,1.0,5.0,0.0,0.0,8.0,1.0,phase_2,stop,550.0,600.0,4.0,,,,,,,,,cyan,cross
0.0,6.0,2.0,1.0,5.0,0.0,0.0,8.0,1.0,phase_2,stop,600.0,600.0,4.0,,,,,,,,,cyan,cross
0.0,5.0,1.0,1.0,5.0,5.0,855.5107919996772,8.0,1.0,phase_2,go,650.0,600.0,1.0,,,,,,,,,white,triangle
0.0,8.0,4.0,1.0,5.0,5.0,345.5301450003389,8.0,1.0,phase_2,go,650.0,600.0,1.0,,,,,,,,,orange,circle
0.0,7.0,3.0,1.0,6.0,6.0,986.6056169998956,8.0,1.0,phase_2,go,650.0,600.0,1.0,,,,,,,,,blue,diamond
0.0,5.0,1.0,1.0,6.0,6.0,720.1171230003638,8.0,1.0,phase_2,stop,650.0,600.0,3.0,,,,,,,,,white,triangle
0.0,8.0,4.0,1.0,6.0,0.0,0.0,8.0,1.0,phase_2,stop,650.0,550.0,4.0,,,,,,,,,orange,circle
0.0,3.0,3.0,0.0,5.0,5.0,786.3718799999333,8.0,1.0,phase_2,go,650.0,600.0,1.0,,,,,,,,,gray,hexagon
0.0,7.0,3.0,1.0,5.0,5.0,307.0393829998465,8.0,1.0,phase_2,stop,650.0,600.0,3.0,,,,,,,,,blue,diamond
0.0,2.0,2.0,0.0,6.0,6.0,352.9891289999796,8.0,1.0,phase_2,go,600.0,600.0,1.0,,,,,,,,,yellow,flipped triangle
0.0,1.0,1.0,0.0,6.0,6.0,317.357907999849,8.0,1.0,phase_2,go,600.0,600.0,1.0,,,,,,,,,magenta,I
0.0,8.0,4.0,1.0,6.0,6.0,307.6538599998457,8.0,1.0,phase_2,stop,600.0,600.0,3.0,,,,,,,,,orange,circle
0.0,8.0,4.0,1.0,5.0,0.0,0.0,8.0,1.0,phase_2,stop,600.0,550.0,4.0,,,,,,,,,orange,circle
0.0,1.0,1.0,0.0,5.0,5.0,438.6838469999929,8.0,1.0,phase_2,go,650.0,550.0,1.0,,,,,,,,,magenta,I
0.0,8.0,4.0,1.0,6.0,0.0,0.0,8.0,1.0,phase_2,stop,650.0,550.0,4.0,,,,,,,,,orange,circle
0.0,2.0,2.0,0.0,6.0,6.0,291.3004900001397,8.0,1.0,phase_2,go,650.0,600.0,1.0,,,,,,,,,yellow,flipped triangle
0.0,8.0,4.0,1.0,5.0,5.0,615.02038000026,8.0,1.0,phase_2,stop,650.0,600.0,3.0,,,,,,,,,orange,circle
0.0,6.0,2.0,1.0,5.0,0.0,0.0,8.0,1.0,phase_2,stop,600.0,600.0,4.0,,,,,,,,,cyan,cross
0.0,7.0,3.0,1.0,5.0,5.0,1079.4567160000952,8.0,1.0,phase_2,go,650.0,600.0,1.0,,,,,,,,,blue,diamond
0.0,4.0,4.0,0.0,6.0,6.0,559.6034120003424,8.0,1.0,phase_2,go,650.0,600.0,1.0,,,,,,,,,green,square
0.0,3.0,3.0,0.0,5.0,5.0,458.8499800001955,8.0,1.0,phase_2,go,650.0,600.0,1.0,,,,,,,,,gray,hexagon
0.0,2.0,2.0,0.0,6.0,6.0,353.0752840001696,8.0,1.0,phase_2,go,650.0,600.0,1.0,,,,,,,,,yellow,flipped triangle
0.0,7.0,3.0,1.0,5.0,5.0,289.6364919997722,8.0,1.0,phase_2,stop,650.0,600.0,3.0,,,,,,,,,blue,diamond
0.0,4.0,4.0,0.0,6.0,6.0,290.1835640000172,8.0,1.0,phase_2,go,600.0,600.0,1.0,,,,,,,,,green,square
0.0,1.0,1.0,0.0,6.0,6.0,382.4077330000364,8.0,1.0,phase_2,go,600.0,600.0,1.0,,,,,,,,,magenta,I
0.0,2.0,2.0,0.0,6.0,6.0,354.0461100001266,8.0,1.0,phase_2,go,600.0,600.0,1.0,,,,,,,,,yellow,flipped triangle
0.0,1.0,1.0,0.0,5.0,5.0,447.8756969997448,8.0,1.0,phase_2,go,600.0,600.0,1.0,,,,,,,,,magenta,I
0.0,7.0,3.0,1.0,6.0,0.0,0.0,8.0,1.0,phase_2,stop,600.0,600.0,4.0,,,,,,,,,blue,diamond
0.0,5.0,1.0,1.0,6.0,6.0,713.3917510000174,8.0,1.0,phase_2,stop,600.0,650.0,3.0,,,,,,,,,white,triangle
0.0,1.0,1.0,0.0,5.0,5.0,439.330198999869,8.0,1.0,phase_2,go,600.0,600.0,1.0,,,,,,,,,magenta,I
0.0,3.0,3.0,0.0,6.0,6.0,578.6794050000026,8.0,1.0,phase_2,go,600.0,600.0,1.0,,,,,,,,,gray,hexagon
0.0,3.0,3.0,0.0,7.0,5.0,2708.5772049995285,1.0,1.0,phase_3,,,,,580.0,5.0,116.0,464.0,696.0,232.0,580.0,348.0,gray,hexagon
0.0,6.0,2.0,1.0,7.0,6.0,1063.13299500016,1.0,1.0,phase_3,,,,,192.0,1.0,960.0,1152.0,768.0,384.0,576.0,192.0,cyan,cross
0.0,2.0,2.0,0.0,7.0,1.0,1529.8192300006122,1.0,1.0,phase_3,,,,,154.0,1.0,154.0,770.0,462.0,616.0,924.0,308.0,yellow,flipped triangle
0.0,6.0,2.0,1.0,7.0,6.0,1911.6293040005985,1.0,1.0,phase_3,,,,,616.0,4.0,308.0,924.0,462.0,154.0,770.0,616.0,cyan,cross
0.0,6.0,2.0,1.0,7.0,5.0,1898.158672000136,1.0,1.0,phase_3,,,,,960.0,5.0,384.0,576.0,768.0,1152.0,960.0,192.0,cyan,cross
0.0,3.0,3.0,0.0,7.0,4.0,1915.498454000044,1.0,1.0,phase_3,,,,,173.0,1.0,519.0,865.0,346.0,173.0,1038.0,692.0,gray,hexagon
0.0,6.0,2.0,1.0,7.0,6.0,2296.938043999944,1.0,1.0,phase_3,,,,,540.0,4.0,675.0,270.0,135.0,810.0,405.0,540.0,cyan,cross
0.0,7.0,3.0,1.0,7.0,5.0,1780.337382999278,1.0,1.0,phase_3,,,,,464.0,4.0,580.0,232.0,696.0,348.0,464.0,116.0,blue,diamond
0.0,2.0,2.0,0.0,7.0,4.0,1694.4068419998075,1.0,1.0,phase_3,,,,,192.0,1.0,960.0,1152.0,576.0,192.0,768.0,384.0,yellow,flipped triangle
0.0,7.0,3.0,1.0,7.0,2.0,3344.084648999342,1.0,1.0,phase_3,,,,,960.0,5.0,192.0,960.0,768.0,384.0,1152.0,576.0,blue,diamond
0.0,7.0,3.0,1.0,7.0,5.0,2623.2399540003826,1.0,1.0,phase_3,,,,,675.0,5.0,810.0,135.0,270.0,540.0,675.0,405.0,blue,diamond
0.0,2.0,2.0,0.0,7.0,5.0,1194.0296940001645,1.0,1.0,phase_3,,,,,173.0,1.0,692.0,519.0,1038.0,865.0,173.0,346.0,yellow,flipped triangle
0.0,8.0,4.0,1.0,7.0,1.0,1225.6235459999516,1.0,1.0,phase_3,,,,,675.0,5.0,675.0,540.0,405.0,270.0,135.0,810.0,orange,circle
0.0,8.0,4.0,1.0,7.0,1.0,2325.768695000079,1.0,1.0,phase_3,,,,,519.0,3.0,519.0,1038.0,173.0,865.0,346.0,692.0,orange,circle
0.0,2.0,2.0,0.0,7.0,1.0,2530.8118009998,1.0,1.0,phase_3,,,,,540.0,4.0,540.0,405.0,270.0,810.0,675.0,135.0,yellow,flipped triangle
0.0,7.0,3.0,1.0,7.0,1.0,1979.055073999916,1.0,1.0,phase_3,,,,,770.0,5.0,770.0,462.0,616.0,154.0,924.0,308.0,blue,diamond
0.0,7.0,3.0,1.0,7.0,1.0,2638.585568000053,1.0,1.0,phase_3,,,,,154.0,1.0,154.0,462.0,616.0,770.0,924.0,308.0,blue,diamond
0.0,1.0,1.0,0.0,7.0,2.0,3012.409660999765,1.0,1.0,phase_3,,,,,616.0,4.0,770.0,616.0,462.0,924.0,154.0,308.0,magenta,I
0.0,8.0,4.0,1.0,7.0,4.0,2387.5472539994007,1.0,1.0,phase_3,,,,,692.0,4.0,346.0,865.0,1038.0,692.0,519.0,173.0,orange,circle
0.0,8.0,4.0,1.0,7.0,4.0,1276.6297409998515,1.0,1.0,phase_3,,,,,768.0,4.0,960.0,384.0,192.0,768.0,576.0,1152.0,orange,circle
0.0,4.0,4.0,0.0,7.0,5.0,0.254317999861,2.0,1.0,phase_3,,,,,865.0,5.0,519.0,692.0,1038.0,346.0,865.0,173.0,green,square
0.0,1.0,1.0,0.0,7.0,2.0,1591.586515999552,2.0,1.0,phase_3,,,,,1038.0,6.0,346.0,1038.0,865.0,692.0,173.0,519.0,magenta,I
0.0,4.0,4.0,0.0,7.0,5.0,2161.4438110000265,2.0,1.0,phase_3,,,,,768.0,4.0,576.0,384.0,1152.0,192.0,768.0,960.0,green,square
0.0,4.0,4.0,0.0,7.0,5.0,1772.719405999851,2.0,1.0,phase_3,,,,,519.0,3.0,346.0,173.0,865.0,1038.0,519.0,692.0,green,square
0.0,4.0,4.0,0.0,7.0,1.0,1796.4339740001378,2.0,1.0,phase_3,,,,,464.0,4.0,464.0,580.0,232.0,348.0,116.0,696.0,green,square
0.0,5.0,1.0,1.0,7.0,6.0,2594.639855999958,2.0,1.0,phase_3,,,,,768.0,4.0,1152.0,192.0,384.0,576.0,960.0,768.0,white,triangle
0.0,3.0,3.0,0.0,7.0,1.0,2385.1836129997537,2.0,1.0,phase_3,,,,,405.0,3.0,405.0,810.0,675.0,270.0,135.0,540.0,gray,hexagon
0.0,2.0,2.0,0.0,7.0,5.0,1183.512761000202,2.0,1.0,phase_3,,,,,154.0,1.0,616.0,462.0,308.0,924.0,154.0,770.0,yellow,flipped triangle
0.0,2.0,2.0,0.0,7.0,4.0,1403.976319999856,2.0,1.0,phase_3,,,,,135.0,1.0,810.0,270.0,675.0,135.0,405.0,540.0,yellow,flipped triangle
0.0,4.0,4.0,0.0,7.0,2.0,3755.3069399991728,2.0,1.0,phase_3,,,,,308.0,2.0,770.0,308.0,154.0,616.0,924.0,462.0,green,square
0.0,6.0,2.0,1.0,7.0,6.0,1445.7858579999083,2.0,1.0,phase_3,,,,,696.0,6.0,116.0,464.0,580.0,348.0,232.0,696.0,cyan,cross
0.0,4.0,4.0,0.0,7.0,1.0,2659.131931000047,2.0,1.0,phase_3,,,,,768.0,4.0,768.0,576.0,192.0,1152.0,384.0,960.0,green,square
0.0,4.0,4.0,0.0,7.0,5.0,1333.7532719997398,2.0,1.0,phase_3,,,,,696.0,6.0,580.0,232.0,464.0,116.0,696.0,348.0,green,square
0.0,4.0,4.0,0.0,7.0,2.0,1982.139687000199,2.0,1.0,phase_3,,,,,675.0,5.0,405.0,675.0,810.0,135.0,540.0,270.0,green,square
0.0,1.0,1.0,0.0,7.0,6.0,1759.506291999969,2.0,1.0,phase_3,,,,,580.0,5.0,348.0,116.0,232.0,696.0,464.0,580.0,magenta,I
0.0,5.0,1.0,1.0,7.0,6.0,1220.4334510006447,2.0,1.0,phase_3,,,,,1038.0,6.0,692.0,519.0,346.0,173.0,865.0,1038.0,white,triangle
0.0,3.0,3.0,0.0,7.0,3.0,1676.8090630002916,2.0,1.0,phase_3,,,,,232.0,2.0,696.0,116.0,232.0,464.0,348.0,580.0,gray,hexagon
0.0,2.0,2.0,0.0,7.0,1.0,1611.3863170003242,2.0,1.0,phase_3,,,,,173.0,1.0,173.0,692.0,346.0,1038.0,519.0,865.0,yellow,flipped triangle
0.0,8.0,4.0,1.0,7.0,5.0,1777.188310999918,2.0,1.0,phase_3,,,,,462.0,3.0,616.0,770.0,154.0,924.0,462.0,308.0,orange,circle
0.0,2.0,2.0,0.0,7.0,4.0,1263.3616079992862,2.0,1.0,phase_3,,,,,116.0,1.0,464.0,232.0,580.0,116.0,348.0,696.0,yellow,flipped triangle
0.0,2.0,2.0,0.0,7.0,6.0,988.449694999872,3.0,1.0,phase_3,,,,,116.0,1.0,464.0,696.0,348.0,232.0,580.0,116.0,yellow,flipped triangle
0.0,7.0,3.0,1.0,7.0,1.0,1516.9661189993349,3.0,1.0,phase_3,,,,,960.0,5.0,960.0,768.0,1152.0,384.0,192.0,576.0,blue,diamond
0.0,1.0,1.0,0.0,7.0,5.0,1408.1672859992975,3.0,1.0,phase_3,,,,,576.0,3.0,768.0,384.0,1152.0,960.0,576.0,192.0,magenta,I
0.0,6.0,2.0,1.0,7.0,3.0,1191.5266440000778,3.0,1.0,phase_3,,,,,616.0,4.0,308.0,462.0,616.0,924.0,154.0,770.0,cyan,cross
0.0,8.0,4.0,1.0,7.0,6.0,1661.302051999883,3.0,1.0,phase_3,,,,,580.0,5.0,116.0,696.0,232.0,348.0,464.0,580.0,orange,circle
0.0,1.0,1.0,0.0,7.0,4.0,1414.723700999275,3.0,1.0,phase_3,,,,,580.0,5.0,116.0,232.0,696.0,580.0,348.0,464.0,magenta,I
0.0,2.0,2.0,0.0,7.0,1.0,738.396757999908,3.0,1.0,phase_3,,,,,192.0,1.0,192.0,576.0,960.0,768.0,384.0,1152.0,yellow,flipped triangle
0.0,1.0,1.0,0.0,7.0,1.0,715.2538250002181,3.0,1.0,phase_3,,,,,405.0,3.0,405.0,810.0,540.0,135.0,270.0,675.0,magenta,I
0.0,7.0,3.0,1.0,7.0,5.0,2291.3974390003204,3.0,1.0,phase_3,,,,,580.0,5.0,232.0,116.0,348.0,696.0,580.0,464.0,blue,diamond
0.0,8.0,4.0,1.0,7.0,2.0,1784.7562890001427,3.0,1.0,phase_3,,,,,580.0,5.0,116.0,580.0,696.0,464.0,232.0,348.0,orange,circle
0.0,4.0,4.0,0.0,7.0,3.0,2314.71171999965,3.0,1.0,phase_3,,,,,770.0,5.0,154.0,462.0,770.0,924.0,308.0,616.0,green,square
0.0,3.0,3.0,0.0,7.0,3.0,1649.487983000654,3.0,1.0,phase_3,,,,,135.0,1.0,270.0,540.0,135.0,675.0,810.0,405.0,gray,hexagon
0.0,5.0,1.0,1.0,7.0,1.0,1522.8781240002718,3.0,1.0,phase_3,,,,,1038.0,6.0,1038.0,173.0,346.0,692.0,519.0,865.0,white,triangle
0.0,5.0,1.0,1.0,7.0,5.0,1764.4754169996304,3.0,1.0,phase_3,,,,,675.0,5.0,810.0,270.0,405.0,135.0,675.0,540.0,white,triangle
0.0,1.0,1.0,0.0,7.0,4.0,2643.928321999738,3.0,1.0,phase_3,,,,,405.0,3.0,675.0,540.0,135.0,405.0,810.0,270.0,magenta,I
0.0,5.0,1.0,1.0,7.0,4.0,1064.3299929997738,3.0,1.0,phase_3,,,,,696.0,6.0,580.0,464.0,116.0,696.0,232.0,348.0,white,triangle
0.0,6.0,2.0,1.0,7.0,1.0,1370.8703729998888,3.0,1.0,phase_3,,,,,810.0,6.0,810.0,405.0,135.0,270.0,675.0,540.0,cyan,cross
0.0,3.0,3.0,0.0,7.0,6.0,1178.2616310001686,3.0,1.0,phase_3,,,,,192.0,1.0,768.0,1152.0,960.0,384.0,576.0,192.0,gray,hexagon
0.0,1.0,1.0,0.0,7.0,2.0,2734.640530999968,3.0,1.0,phase_3,,,,,462.0,3.0,924.0,462.0,308.0,616.0,770.0,154.0,magenta,I
0.0,1.0,1.0,0.0,7.0,6.0,1817.400161000478,3.0,1.0,phase_3,,,,,384.0,2.0,576.0,1152.0,768.0,960.0,192.0,384.0,magenta,I
0.0,1.0,1.0,0.0,7.0,5.0,1015.4633030006153,4.0,1.0,phase_3,,,,,346.0,2.0,692.0,1038.0,519.0,865.0,346.0,173.0,magenta,I
0.0,7.0,3.0,1.0,7.0,5.0,2384.6506769996267,4.0,1.0,phase_3,,,,,865.0,5.0,1038.0,346.0,519.0,173.0,865.0,692.0,blue,diamond
0.0,3.0,3.0,0.0,7.0,5.0,1841.840231999413,4.0,1.0,phase_3,,,,,173.0,1.0,865.0,1038.0,692.0,346.0,173.0,519.0,gray,hexagon
0.0,3.0,3.0,0.0,7.0,6.0,2085.917530000188,4.0,1.0,phase_3,,,,,384.0,2.0,960.0,768.0,1152.0,576.0,192.0,384.0,gray,hexagon
0.0,3.0,3.0,0.0,7.0,6.0,1277.0763049993548,4.0,1.0,phase_3,,,,,308.0,2.0,770.0,462.0,154.0,924.0,616.0,308.0,gray,hexagon
0.0,5.0,1.0,1.0,7.0,3.0,2527.1631650002746,4.0,1.0,phase_3,,,,,960.0,5.0,384.0,1152.0,960.0,768.0,576.0,192.0,white,triangle
0.0,4.0,4.0,0.0,7.0,4.0,1120.2316959997916,4.0,1.0,phase_3,,,,,405.0,3.0,270.0,810.0,540.0,405.0,675.0,135.0,green,square
0.0,5.0,1.0,1.0,7.0,3.0,1785.4008880003676,4.0,1.0,phase_3,,,,,810.0,6.0,270.0,540.0,810.0,135.0,405.0,675.0,white,triangle
0.0,7.0,3.0,1.0,7.0,1.0,751.7855879996205,4.0,1.0,phase_3,,,,,865.0,5.0,865.0,519.0,692.0,346.0,173.0,1038.0,blue,diamond
0.0,8.0,4.0,1.0,7.0,5.0,1295.0189439998212,4.0,1.0,phase_3,,,,,540.0,4.0,675.0,810.0,135.0,270.0,540.0,405.0,orange,circle
0.0,6.0,2.0,1.0,7.0,1.0,659.5978790001027,4.0,1.0,phase_3,,,,,1038.0,6.0,1038.0,692.0,346.0,173.0,519.0,865.0,cyan,cross
0.0,5.0,1.0,1.0,7.0,3.0,1493.683900999713,4.0,1.0,phase_3,,,,,770.0,5.0,154.0,616.0,770.0,924.0,462.0,308.0,white,triangle
0.0,5.0,1.0,1.0,7.0,4.0,1879.519645000073,4.0,1.0,phase_3,,,,,770.0,5.0,154.0,616.0,308.0,770.0,462.0,924.0,white,triangle
0.0,6.0,2.0,1.0,7.0,2.0,2261.363102999894,4.0,1.0,phase_3,,,,,696.0,6.0,116.0,696.0,464.0,580.0,348.0,232.0,cyan,cross
0.0,8.0,4.0,1.0,7.0,5.0,1484.6560120004142,4.0,1.0,phase_3,,,,,576.0,3.0,1152.0,960.0,768.0,384.0,576.0,192.0,orange,circle
0.0,5.0,1.0,1.0,7.0,6.0,1241.7837610000788,4.0,1.0,phase_3,,,,,580.0,5.0,116.0,464.0,696.0,232.0,348.0,580.0,white,triangle
0.0,7.0,3.0,1.0,7.0,6.0,1012.9433009997229,4.0,1.0,phase_3,,,,,810.0,6.0,405.0,270.0,135.0,675.0,540.0,810.0,blue,diamond
0.0,3.0,3.0,0.0,7.0,1.0,1821.853139000268,4.0,1.0,phase_3,,,,,308.0,2.0,308.0,462.0,770.0,154.0,616.0,924.0,gray,hexagon
0.0,6.0,2.0,1.0,7.0,6.0,945.2581359992108,4.0,1.0,phase_3,,,,,1038.0,6.0,173.0,346.0,519.0,692.0,865.0,1038.0,cyan,cross
0.0,8.0,4.0,1.0,7.0,5.0,1391.7238750000251,4.0,1.0,phase_3,,,,,770.0,5.0,154.0,924.0,308.0,462.0,770.0,616.0,orange,circle
