raw_reward_magnitude,stim_reward,stepwise_reward_magnitude,paired_with_stopping,stim_location,response,reaction_time,block,num_trial_presentations,which_phase,stop_signal_trial_type,left_SSD,right_SSD,accuracy,chosen_bidding_amount,chosen_bidding_level,possible_bid_1,possible_bid_2,possible_bid_3,possible_bid_4,possible_bid_5,possible_bid_6,color_text,shape_text
0.0,5.0,0.0,1.0,2.0,2.0,372.6694249999127,1.0,1.0,phase_1,,,,,,,,,,,,,white,triangle
313.0,2.0,2.0,0.0,4.0,4.0,361.1306250004418,1.0,1.0,phase_1,,,,,,,,,,,,,cyan,hexagon
141.0,5.0,1.0,1.0,4.0,4.0,342.7284010012954,1.0,1.0,phase_1,,,,,,,,,,,,,white,triangle
1294.0,4.0,4.0,0.0,3.0,3.0,352.9902010013757,1.0,1.0,phase_1,,,,,,,,,,,,,gray,diamond
1316.0,8.0,4.0,1.0,2.0,2.0,343.0599570001504,1.0,1.0,phase_1,,,,,,,,,,,,,blue,square
142.0,1.0,1.0,0.0,3.0,3.0,343.7525320005079,1.0,1.0,phase_1,,,,,,,,,,,,,green,I
332.0,6.0,2.0,1.0,4.0,4.0,269.767559999309,1.0,1.0,phase_1,,,,,,,,,,,,,yellow,cross
1314.0,4.0,4.0,0.0,3.0,3.0,344.0194729992072,1.0,1.0,phase_1,,,,,,,,,,,,,gray,diamond
0.0,1.0,0.0,0.0,3.0,3.0,352.1403229988209,1.0,1.0,phase_1,,,,,,,,,,,,,green,I
346.0,2.0,2.0,0.0,1.0,1.0,325.3712090008775,1.0,2.0,phase_1,,,,,,,,,,,,,cyan,hexagon
0.0,1.0,0.0,0.0,3.0,3.0,362.0898670014867,1.0,1.0,phase_1,,,,,,,,,,,,,green,I
634.0,7.0,3.0,1.0,1.0,1.0,343.1916979989182,1.0,2.0,phase_1,,,,,,,,,,,,,orange,flipped triangle
325.0,2.0,2.0,0.0,3.0,3.0,333.5085110011277,1.0,1.0,phase_1,,,,,,,,,,,,,cyan,hexagon
1296.0,8.0,4.0,1.0,3.0,3.0,305.8753610002895,1.0,1.0,phase_1,,,,,,,,,,,,,blue,square
309.0,6.0,2.0,1.0,3.0,3.0,370.5707720000646,1.0,1.0,phase_1,,,,,,,,,,,,,yellow,cross
341.0,6.0,2.0,1.0,1.0,1.0,352.3834900006477,1.0,1.0,phase_1,,,,,,,,,,,,,yellow,cross
152.0,5.0,1.0,1.0,2.0,2.0,352.1898349990806,1.0,1.0,phase_1,,,,,,,,,,,,,white,triangle
0.0,2.0,0.0,0.0,2.0,2.0,333.3101419993909,1.0,1.0,phase_1,,,,,,,,,,,,,cyan,hexagon
0.0,3.0,0.0,0.0,1.0,1.0,416.9468860000052,1.0,1.0,phase_1,,,,,,,,,,,,,magenta,circle
632.0,3.0,3.0,0.0,2.0,2.0,296.3574579989654,1.0,1.0,phase_1,,,,,,,,,,,,,magenta,circle
0.0,2.0,0.0,0.0,4.0,4.0,389.8820140002499,1.0,1.0,phase_1,,,,,,,,,,,,,cyan,hexagon
175.0,5.0,1.0,1.0,3.0,3.0,326.7439030005334,1.0,1.0,phase_1,,,,,,,,,,,,,white,triangle
634.0,3.0,3.0,0.0,3.0,3.0,373.0235490002087,1.0,1.0,phase_1,,,,,,,,,,,,,magenta,circle
310.0,6.0,2.0,1.0,3.0,3.0,361.6875509997044,1.0,1.0,phase_1,,,,,,,,,,,,,yellow,cross
635.0,7.0,3.0,1.0,4.0,4.0,364.879717999429,1.0,1.0,phase_1,,,,,,,,,,,,,orange,flipped triangle
0.0,7.0,0.0,1.0,1.0,1.0,381.4541680003458,1.0,1.0,phase_1,,,,,,,,,,,,,orange,flipped triangle
0.0,3.0,0.0,0.0,1.0,1.0,353.6942459995771,1.0,1.0,phase_1,,,,,,,,,,,,,magenta,circle
674.0,7.0,3.0,1.0,2.0,2.0,269.2935409995698,1.0,1.0,phase_1,,,,,,,,,,,,,orange,flipped triangle
0.0,6.0,0.0,1.0,2.0,2.0,327.0277060000808,1.0,1.0,phase_1,,,,,,,,,,,,,yellow,cross
633.0,3.0,3.0,0.0,3.0,3.0,307.0070550002128,1.0,1.0,phase_1,,,,,,,,,,,,,magenta,circle
181.0,5.0,1.0,1.0,1.0,1.0,340.3086849993997,1.0,1.0,phase_1,,,,,,,,,,,,,white,triangle
660.0,7.0,3.0,1.0,1.0,1.0,330.5911000006745,1.0,1.0,phase_1,,,,,,,,,,,,,orange,flipped triangle
313.0,6.0,2.0,1.0,4.0,4.0,359.0072570004849,1.0,1.0,phase_1,,,,,,,,,,,,,yellow,cross
142.0,5.0,1.0,1.0,1.0,1.0,319.5266910006467,1.0,1.0,phase_1,,,,,,,,,,,,,white,triangle
309.0,2.0,2.0,0.0,2.0,2.0,325.1173569988168,1.0,1.0,phase_1,,,,,,,,,,,,,cyan,hexagon
155.0,5.0,1.0,1.0,2.0,2.0,324.6341770009167,1.0,1.0,phase_1,,,,,,,,,,,,,white,triangle
632.0,3.0,3.0,0.0,3.0,3.0,381.0681790000672,1.0,1.0,phase_1,,,,,,,,,,,,,magenta,circle
0.0,5.0,0.0,1.0,4.0,4.0,417.2469360000832,1.0,2.0,phase_1,,,,,,,,,,,,,white,triangle
0.0,4.0,0.0,0.0,2.0,2.0,371.5665010004159,1.0,1.0,phase_1,,,,,,,,,,,,,gray,diamond
153.0,5.0,1.0,1.0,4.0,4.0,339.349072000914,1.0,1.0,phase_1,,,,,,,,,,,,,white,triangle
1279.0,8.0,4.0,1.0,4.0,4.0,361.707023001145,1.0,1.0,phase_1,,,,,,,,,,,,,blue,square
1288.0,4.0,4.0,0.0,4.0,4.0,397.8231580003921,1.0,1.0,phase_1,,,,,,,,,,,,,gray,diamond
141.0,1.0,1.0,0.0,4.0,4.0,342.6614009986224,1.0,1.0,phase_1,,,,,,,,,,,,,green,I
653.0,7.0,3.0,1.0,4.0,4.0,352.8501420005341,1.0,1.0,phase_1,,,,,,,,,,,,,orange,flipped triangle
153.0,1.0,1.0,0.0,2.0,2.0,397.9726460001984,1.0,1.0,phase_1,,,,,,,,,,,,,green,I
643.0,7.0,3.0,1.0,1.0,1.0,277.8493570003775,1.0,1.0,phase_1,,,,,,,,,,,,,orange,flipped triangle
1321.0,4.0,4.0,0.0,1.0,1.0,362.7029419985774,1.0,1.0,phase_1,,,,,,,,,,,,,gray,diamond
0.0,2.0,0.0,0.0,4.0,4.0,361.2873679994663,1.0,1.0,phase_1,,,,,,,,,,,,,cyan,hexagon
1320.0,8.0,4.0,1.0,3.0,3.0,381.4108300011867,1.0,1.0,phase_1,,,,,,,,,,,,,blue,square
151.0,1.0,1.0,0.0,4.0,4.0,503.329451999889,1.0,1.0,phase_1,,,,,,,,,,,,,green,I
334.0,6.0,2.0,1.0,1.0,1.0,342.6671590004844,1.0,1.0,phase_1,,,,,,,,,,,,,yellow,cross
1280.0,4.0,4.0,0.0,1.0,1.0,307.0826540006237,1.0,1.0,phase_1,,,,,,,,,,,,,gray,diamond
322.0,2.0,2.0,0.0,1.0,1.0,334.0615230008552,1.0,1.0,phase_1,,,,,,,,,,,,,cyan,hexagon
0.0,7.0,0.0,1.0,4.0,4.0,397.8227089992288,1.0,1.0,phase_1,,,,,,,,,,,,,orange,flipped triangle
181.0,1.0,1.0,0.0,1.0,1.0,582.6136579999002,1.0,1.0,phase_1,,,,,,,,,,,,,green,I
0.0,1.0,0.0,0.0,4.0,4.0,362.9251719994499,1.0,1.0,phase_1,,,,,,,,,,,,,green,I
634.0,7.0,3.0,1.0,2.0,2.0,314.1683180001564,1.0,1.0,phase_1,,,,,,,,,,,,,orange,flipped triangle
670.0,7.0,3.0,1.0,1.0,1.0,352.3122250007873,1.0,1.0,phase_1,,,,,,,,,,,,,orange,flipped triangle
644.0,7.0,3.0,1.0,4.0,4.0,352.5103629999648,1.0,1.0,phase_1,,,,,,,,,,,,,orange,flipped triangle
330.0,6.0,2.0,1.0,4.0,4.0,363.158526000916,1.0,1.0,phase_1,,,,,,,,,,,,,yellow,cross
1278.0,4.0,4.0,0.0,2.0,2.0,444.4744530010212,1.0,1.0,phase_1,,,,,,,,,,,,,gray,diamond
660.0,3.0,3.0,0.0,3.0,3.0,388.7873209987447,1.0,1.0,phase_1,,,,,,,,,,,,,magenta,circle
670.0,7.0,3.0,1.0,2.0,2.0,407.7932909985975,1.0,1.0,phase_1,,,,,,,,,,,,,orange,flipped triangle
1282.0,4.0,4.0,0.0,1.0,1.0,307.0133969995368,1.0,1.0,phase_1,,,,,,,,,,,,,gray,diamond
303.0,2.0,2.0,0.0,2.0,2.0,333.1717950004531,1.0,1.0,phase_1,,,,,,,,,,,,,cyan,hexagon
163.0,5.0,1.0,1.0,1.0,1.0,379.9932790007005,1.0,1.0,phase_1,,,,,,,,,,,,,white,triangle
303.0,6.0,2.0,1.0,1.0,1.0,334.976808000647,1.0,1.0,phase_1,,,,,,,,,,,,,yellow,cross
663.0,3.0,3.0,0.0,4.0,4.0,370.6761379999079,1.0,1.0,phase_1,,,,,,,,,,,,,magenta,circle
670.0,3.0,3.0,0.0,2.0,2.0,259.6753189991432,1.0,1.0,phase_1,,,,,,,,,,,,,magenta,circle
0.0,4.0,0.0,0.0,4.0,4.0,399.2791930013482,1.0,1.0,phase_1,,,,,,,,,,,,,gray,diamond
175.0,1.0,1.0,0.0,1.0,1.0,296.1848520008061,1.0,1.0,phase_1,,,,,,,,,,,,,green,I
140.0,5.0,1.0,1.0,4.0,4.0,388.5377430015069,1.0,1.0,phase_1,,,,,,,,,,,,,white,triangle
317.0,2.0,2.0,0.0,2.0,2.0,360.5626099997607,1.0,1.0,phase_1,,,,,,,,,,,,,cyan,hexagon
1297.0,4.0,4.0,0.0,3.0,3.0,315.2149939996889,1.0,1.0,phase_1,,,,,,,,,,,,,gray,diamond
300.0,2.0,2.0,0.0,1.0,1.0,296.6268440013664,1.0,1.0,phase_1,,,,,,,,,,,,,cyan,hexagon
1312.0,4.0,4.0,0.0,4.0,4.0,359.6881539997412,1.0,1.0,phase_1,,,,,,,,,,,,,gray,diamond
0.0,1.0,0.0,0.0,2.0,2.0,360.7267100014724,1.0,1.0,phase_1,,,,,,,,,,,,,green,I
1289.0,8.0,4.0,1.0,3.0,3.0,351.5869449984166,1.0,1.0,phase_1,,,,,,,,,,,,,blue,square
659.0,3.0,3.0,0.0,2.0,2.0,398.6934079985076,1.0,1.0,phase_1,,,,,,,,,,,,,magenta,circle
670.0,3.0,3.0,0.0,1.0,1.0,324.8788410000998,1.0,1.0,phase_1,,,,,,,,,,,,,magenta,circle
317.0,6.0,2.0,1.0,2.0,2.0,371.6833050002606,1.0,1.0,phase_1,,,,,,,,,,,,,yellow,cross
1282.0,8.0,4.0,1.0,2.0,2.0,332.3059170015767,1.0,1.0,phase_1,,,,,,,,,,,,,blue,square
328.0,6.0,2.0,1.0,3.0,3.0,362.95266200068,1.0,1.0,phase_1,,,,,,,,,,,,,yellow,cross
673.0,7.0,3.0,1.0,4.0,4.0,361.87142900053,1.0,1.0,phase_1,,,,,,,,,,,,,orange,flipped triangle
657.0,3.0,3.0,0.0,4.0,4.0,388.7772029993357,1.0,1.0,phase_1,,,,,,,,,,,,,magenta,circle
0.0,5.0,0.0,1.0,3.0,3.0,417.6406180013146,1.0,1.0,phase_1,,,,,,,,,,,,,white,triangle
323.0,2.0,2.0,0.0,2.0,2.0,324.2911270008335,1.0,1.0,phase_1,,,,,,,,,,,,,cyan,hexagon
0.0,3.0,0.0,0.0,2.0,2.0,324.8344610001368,1.0,1.0,phase_1,,,,,,,,,,,,,magenta,circle
0.0,7.0,0.0,1.0,2.0,2.0,287.1322610008064,1.0,1.0,phase_1,,,,,,,,,,,,,orange,flipped triangle
666.0,3.0,3.0,0.0,2.0,2.0,343.4790350002004,1.0,1.0,phase_1,,,,,,,,,,,,,magenta,circle
0.0,5.0,0.0,1.0,3.0,3.0,316.006221999487,1.0,1.0,phase_1,,,,,,,,,,,,,white,triangle
0.0,8.0,0.0,1.0,1.0,1.0,335.1095879988861,1.0,1.0,phase_1,,,,,,,,,,,,,blue,square
1317.0,4.0,4.0,0.0,4.0,4.0,379.3624660011119,1.0,1.0,phase_1,,,,,,,,,,,,,gray,diamond
326.0,2.0,2.0,0.0,4.0,4.0,306.0056840004108,1.0,1.0,phase_1,,,,,,,,,,,,,cyan,hexagon
1316.0,4.0,4.0,0.0,1.0,1.0,353.4566569996968,1.0,1.0,phase_1,,,,,,,,,,,,,gray,diamond
1318.0,4.0,4.0,0.0,1.0,1.0,406.5788700008852,1.0,1.0,phase_1,,,,,,,,,,,,,gray,diamond
1282.0,8.0,4.0,1.0,4.0,4.0,381.6297850007686,1.0,1.0,phase_1,,,,,,,,,,,,,blue,square
1282.0,4.0,4.0,0.0,4.0,4.0,372.1783450000657,1.0,1.0,phase_1,,,,,,,,,,,,,gray,diamond
171.0,5.0,1.0,1.0,1.0,1.0,380.9565320007095,1.0,1.0,phase_1,,,,,,,,,,,,,white,triangle
1315.0,4.0,4.0,0.0,3.0,3.0,445.1474120014609,1.0,1.0,phase_1,,,,,,,,,,,,,gray,diamond
319.0,2.0,2.0,0.0,1.0,1.0,370.473529001174,2.0,1.0,phase_1,,,,,,,,,,,,,cyan,hexagon
1323.0,8.0,4.0,1.0,1.0,1.0,277.6934359990264,2.0,1.0,phase_1,,,,,,,,,,,,,blue,square
0.0,1.0,0.0,0.0,4.0,4.0,388.973969998915,2.0,1.0,phase_1,,,,,,,,,,,,,green,I
170.0,5.0,1.0,1.0,1.0,1.0,343.4213870004896,2.0,1.0,phase_1,,,,,,,,,,,,,white,triangle
309.0,6.0,2.0,1.0,4.0,4.0,361.1192349999328,2.0,1.0,phase_1,,,,,,,,,,,,,yellow,cross
171.0,5.0,1.0,1.0,2.0,2.0,334.0998580006271,2.0,1.0,phase_1,,,,,,,,,,,,,white,triangle
1284.0,8.0,4.0,1.0,4.0,4.0,362.9944839995005,2.0,1.0,phase_1,,,,,,,,,,,,,blue,square
669.0,3.0,3.0,0.0,4.0,4.0,351.433806001296,2.0,1.0,phase_1,,,,,,,,,,,,,magenta,circle
172.0,5.0,1.0,1.0,4.0,4.0,426.1138459987705,2.0,1.0,phase_1,,,,,,,,,,,,,white,triangle
0.0,3.0,0.0,0.0,1.0,1.0,305.1113530000293,2.0,1.0,phase_1,,,,,,,,,,,,,magenta,circle
309.0,2.0,2.0,0.0,2.0,2.0,362.021533999723,2.0,1.0,phase_1,,,,,,,,,,,,,cyan,hexagon
341.0,2.0,2.0,0.0,1.0,1.0,342.5295150009333,2.0,1.0,phase_1,,,,,,,,,,,,,cyan,hexagon
147.0,1.0,1.0,0.0,1.0,1.0,370.6208139992668,2.0,1.0,phase_1,,,,,,,,,,,,,green,I
317.0,6.0,2.0,1.0,2.0,2.0,334.7430789999635,2.0,1.0,phase_1,,,,,,,,,,,,,yellow,cross
658.0,7.0,3.0,1.0,3.0,3.0,401.0666090016457,2.0,1.0,phase_1,,,,,,,,,,,,,orange,flipped triangle
185.0,5.0,1.0,1.0,3.0,3.0,372.0999920005852,2.0,1.0,phase_1,,,,,,,,,,,,,white,triangle
0.0,2.0,0.0,0.0,2.0,2.0,429.3477559986058,2.0,1.0,phase_1,,,,,,,,,,,,,cyan,hexagon
1298.0,8.0,4.0,1.0,3.0,3.0,333.7821959994471,2.0,2.0,phase_1,,,,,,,,,,,,,blue,square
669.0,7.0,3.0,1.0,2.0,2.0,360.6054480005696,2.0,1.0,phase_1,,,,,,,,,,,,,orange,flipped triangle
0.0,8.0,0.0,1.0,4.0,4.0,379.5962080002937,2.0,1.0,phase_1,,,,,,,,,,,,,blue,square
0.0,4.0,0.0,0.0,4.0,4.0,333.4501900008035,2.0,1.0,phase_1,,,,,,,,,,,,,gray,diamond
666.0,7.0,3.0,1.0,1.0,1.0,462.2233099998993,2.0,1.0,phase_1,,,,,,,,,,,,,orange,flipped triangle
1318.0,4.0,4.0,0.0,1.0,1.0,389.448653000727,2.0,1.0,phase_1,,,,,,,,,,,,,gray,diamond
1294.0,4.0,4.0,0.0,1.0,1.0,369.6634079988143,2.0,1.0,phase_1,,,,,,,,,,,,,gray,diamond
0.0,3.0,0.0,0.0,1.0,1.0,295.8337840009335,2.0,1.0,phase_1,,,,,,,,,,,,,magenta,circle
0.0,8.0,0.0,1.0,4.0,4.0,425.0523499995324,2.0,1.0,phase_1,,,,,,,,,,,,,blue,square
0.0,7.0,0.0,1.0,1.0,1.0,323.5849079992476,2.0,1.0,phase_1,,,,,,,,,,,,,orange,flipped triangle
0.0,6.0,0.0,1.0,3.0,3.0,324.2548220005119,2.0,1.0,phase_1,,,,,,,,,,,,,yellow,cross
166.0,5.0,1.0,1.0,3.0,3.0,397.4183059999632,2.0,1.0,phase_1,,,,,,,,,,,,,white,triangle
334.0,6.0,2.0,1.0,4.0,4.0,390.4234549991088,2.0,1.0,phase_1,,,,,,,,,,,,,yellow,cross
664.0,3.0,3.0,0.0,1.0,1.0,313.6926040006074,2.0,1.0,phase_1,,,,,,,,,,,,,magenta,circle
645.0,7.0,3.0,1.0,4.0,4.0,342.6734780005063,2.0,1.0,phase_1,,,,,,,,,,,,,orange,flipped triangle
1322.0,8.0,4.0,1.0,1.0,1.0,369.9017559993081,2.0,1.0,phase_1,,,,,,,,,,,,,blue,square
309.0,6.0,2.0,1.0,2.0,2.0,360.1361529999849,2.0,1.0,phase_1,,,,,,,,,,,,,yellow,cross
675.0,3.0,3.0,0.0,2.0,2.0,369.7716510014288,2.0,1.0,phase_1,,,,,,,,,,,,,magenta,circle
1288.0,8.0,4.0,1.0,2.0,2.0,397.6851090010314,2.0,1.0,phase_1,,,,,,,,,,,,,blue,square
300.0,6.0,2.0,1.0,1.0,1.0,378.4977090017491,2.0,1.0,phase_1,,,,,,,,,,,,,yellow,cross
341.0,2.0,2.0,0.0,3.0,3.0,391.6423730006499,2.0,1.0,phase_1,,,,,,,,,,,,,cyan,hexagon
320.0,2.0,2.0,0.0,1.0,1.0,408.1944070003374,2.0,1.0,phase_1,,,,,,,,,,,,,cyan,hexagon
325.0,6.0,2.0,1.0,4.0,4.0,360.3441880004538,2.0,1.0,phase_1,,,,,,,,,,,,,yellow,cross
675.0,7.0,3.0,1.0,1.0,1.0,287.9239049998432,2.0,1.0,phase_1,,,,,,,,,,,,,orange,flipped triangle
148.0,5.0,1.0,1.0,3.0,3.0,359.7959940016153,2.0,1.0,phase_1,,,,,,,,,,,,,white,triangle
0.0,3.0,0.0,0.0,3.0,3.0,388.7764310002239,2.0,1.0,phase_1,,,,,,,,,,,,,magenta,circle
321.0,2.0,2.0,0.0,3.0,3.0,352.1601310003461,2.0,1.0,phase_1,,,,,,,,,,,,,cyan,hexagon
638.0,7.0,3.0,1.0,3.0,3.0,398.3579989999271,2.0,1.0,phase_1,,,,,,,,,,,,,orange,flipped triangle
1278.0,8.0,4.0,1.0,3.0,3.0,351.120160001301,2.0,1.0,phase_1,,,,,,,,,,,,,blue,square
181.0,1.0,1.0,0.0,3.0,3.0,370.7121719999122,2.0,1.0,phase_1,,,,,,,,,,,,,green,I
0.0,7.0,0.0,1.0,2.0,2.0,490.8592110004974,2.0,1.0,phase_1,,,,,,,,,,,,,orange,flipped triangle
658.0,3.0,3.0,0.0,3.0,3.0,509.86801799990644,2.0,1.0,phase_1,,,,,,,,,,,,,magenta,circle
0.0,4.0,0.0,0.0,3.0,3.0,379.0322540007764,2.0,1.0,phase_1,,,,,,,,,,,,,gray,diamond
0.0,1.0,0.0,0.0,2.0,2.0,371.3325110002188,2.0,1.0,phase_1,,,,,,,,,,,,,green,I
327.0,6.0,2.0,1.0,1.0,1.0,398.1210490001103,2.0,1.0,phase_1,,,,,,,,,,,,,yellow,cross
637.0,3.0,3.0,0.0,3.0,3.0,474.1980779999721,2.0,1.0,phase_1,,,,,,,,,,,,,magenta,circle
0.0,6.0,0.0,1.0,1.0,1.0,305.2650850004283,2.0,1.0,phase_1,,,,,,,,,,,,,yellow,cross
1314.0,8.0,4.0,1.0,2.0,2.0,323.0282549993717,2.0,1.0,phase_1,,,,,,,,,,,,,blue,square
144.0,5.0,1.0,1.0,4.0,4.0,381.534060001286,2.0,1.0,phase_1,,,,,,,,,,,,,white,triangle
1309.0,8.0,4.0,1.0,4.0,4.0,473.563355000806,2.0,1.0,phase_1,,,,,,,,,,,,,blue,square
336.0,2.0,2.0,0.0,4.0,4.0,348.9267650002148,2.0,1.0,phase_1,,,,,,,,,,,,,cyan,hexagon
628.0,7.0,3.0,1.0,2.0,2.0,361.7184790000465,2.0,1.0,phase_1,,,,,,,,,,,,,orange,flipped triangle
0.0,6.0,0.0,1.0,1.0,1.0,572.468114000003,2.0,1.0,phase_1,,,,,,,,,,,,,yellow,cross
0.0,6.0,0.0,1.0,2.0,2.0,389.6245190007903,2.0,1.0,phase_1,,,,,,,,,,,,,yellow,cross
1304.0,4.0,4.0,0.0,3.0,3.0,417.2099030001845,2.0,1.0,phase_1,,,,,,,,,,,,,gray,diamond
330.0,2.0,2.0,0.0,2.0,2.0,371.1890370013861,2.0,1.0,phase_1,,,,,,,,,,,,,cyan,hexagon
1297.0,8.0,4.0,1.0,3.0,3.0,361.7431630009378,2.0,1.0,phase_1,,,,,,,,,,,,,blue,square
336.0,6.0,2.0,1.0,1.0,1.0,316.0936940003012,2.0,1.0,phase_1,,,,,,,,,,,,,yellow,cross
184.0,5.0,1.0,1.0,1.0,1.0,305.3400419994432,2.0,1.0,phase_1,,,,,,,,,,,,,white,triangle
153.0,1.0,1.0,0.0,4.0,4.0,361.8151739992754,2.0,1.0,phase_1,,,,,,,,,,,,,green,I
321.0,6.0,2.0,1.0,2.0,2.0,444.4971880002413,2.0,1.0,phase_1,,,,,,,,,,,,,yellow,cross
328.0,2.0,2.0,0.0,4.0,4.0,585.5692960012675,2.0,1.0,phase_1,,,,,,,,,,,,,cyan,hexagon
1302.0,8.0,4.0,1.0,3.0,3.0,296.7568069998378,2.0,1.0,phase_1,,,,,,,,,,,,,blue,square
0.0,2.0,0.0,0.0,1.0,1.0,323.9420629997767,2.0,1.0,phase_1,,,,,,,,,,,,,cyan,hexagon
174.0,1.0,1.0,0.0,4.0,4.0,342.9436429996713,2.0,1.0,phase_1,,,,,,,,,,,,,green,I
0.0,8.0,0.0,1.0,3.0,3.0,353.9088039997295,2.0,1.0,phase_1,,,,,,,,,,,,,blue,square
322.0,6.0,2.0,1.0,4.0,4.0,361.2942630006728,2.0,1.0,phase_1,,,,,,,,,,,,,yellow,cross
181.0,5.0,1.0,1.0,2.0,2.0,481.4475359999051,2.0,1.0,phase_1,,,,,,,,,,,,,white,triangle
1320.0,4.0,4.0,0.0,3.0,3.0,342.9305099998601,2.0,1.0,phase_1,,,,,,,,,,,,,gray,diamond
348.0,6.0,2.0,1.0,2.0,2.0,371.3188450001325,2.0,1.0,phase_1,,,,,,,,,,,,,yellow,cross
337.0,2.0,2.0,0.0,2.0,2.0,554.7245069992641,2.0,1.0,phase_1,,,,,,,,,,,,,cyan,hexagon
155.0,1.0,1.0,0.0,2.0,2.0,444.7319619994232,2.0,1.0,phase_1,,,,,,,,,,,,,green,I
629.0,7.0,3.0,1.0,3.0,3.0,528.4580009993078,2.0,1.0,phase_1,,,,,,,,,,,,,orange,flipped triangle
0.0,5.0,0.0,1.0,2.0,2.0,388.8592349994724,2.0,1.0,phase_1,,,,,,,,,,,,,white,triangle
0.0,4.0,0.0,0.0,2.0,2.0,305.4662480008119,2.0,1.0,phase_1,,,,,,,,,,,,,gray,diamond
163.0,5.0,1.0,1.0,4.0,4.0,381.8635009993159,2.0,1.0,phase_1,,,,,,,,,,,,,white,triangle
148.0,1.0,1.0,0.0,1.0,1.0,314.2814170005295,2.0,1.0,phase_1,,,,,,,,,,,,,green,I
181.0,5.0,1.0,1.0,3.0,3.0,315.4398609985946,2.0,1.0,phase_1,,,,,,,,,,,,,white,triangle
657.0,7.0,3.0,1.0,3.0,3.0,399.2234199995437,2.0,1.0,phase_1,,,,,,,,,,,,,orange,flipped triangle
152.0,1.0,1.0,0.0,3.0,3.0,416.8930050000199,2.0,1.0,phase_1,,,,,,,,,,,,,green,I
184.0,1.0,1.0,0.0,2.0,2.0,370.3557930002716,2.0,1.0,phase_1,,,,,,,,,,,,,green,I
643.0,7.0,3.0,1.0,1.0,1.0,407.2883749995526,2.0,1.0,phase_1,,,,,,,,,,,,,orange,flipped triangle
337.0,6.0,2.0,1.0,4.0,4.0,361.7505630008963,2.0,1.0,phase_1,,,,,,,,,,,,,yellow,cross
1278.0,8.0,4.0,1.0,4.0,4.0,416.4611279993551,2.0,1.0,phase_1,,,,,,,,,,,,,blue,square
1304.0,8.0,4.0,1.0,1.0,1.0,398.8807610003277,2.0,1.0,phase_1,,,,,,,,,,,,,blue,square
171.0,1.0,1.0,0.0,2.0,2.0,390.2444790001027,2.0,1.0,phase_1,,,,,,,,,,,,,green,I
160.0,1.0,1.0,0.0,4.0,4.0,353.0670720010676,2.0,1.0,phase_1,,,,,,,,,,,,,green,I
653.0,7.0,3.0,1.0,4.0,4.0,351.4041929993254,2.0,1.0,phase_1,,,,,,,,,,,,,orange,flipped triangle
636.0,7.0,3.0,1.0,3.0,3.0,305.6928009991679,2.0,1.0,phase_1,,,,,,,,,,,,,orange,flipped triangle
320.0,6.0,2.0,1.0,2.0,2.0,315.1738540000224,2.0,1.0,phase_1,,,,,,,,,,,,,yellow,cross
349.0,6.0,2.0,1.0,4.0,4.0,490.0558440003806,2.0,1.0,phase_1,,,,,,,,,,,,,yellow,cross
657.0,7.0,3.0,1.0,1.0,1.0,315.0892600006045,2.0,1.0,phase_1,,,,,,,,,,,,,orange,flipped triangle
642.0,7.0,3.0,1.0,4.0,4.0,342.3688059992855,2.0,1.0,phase_1,,,,,,,,,,,,,orange,flipped triangle
0.0,6.0,0.0,1.0,3.0,3.0,420.9656069997436,3.0,1.0,phase_1,,,,,,,,,,,,,yellow,cross
0.0,6.0,0.0,1.0,2.0,2.0,314.7932450010557,3.0,1.0,phase_1,,,,,,,,,,,,,yellow,cross
0.0,3.0,0.0,0.0,1.0,1.0,305.5550440003571,3.0,1.0,phase_1,,,,,,,,,,,,,magenta,circle
185.0,1.0,1.0,0.0,4.0,4.0,296.373309000046,3.0,1.0,phase_1,,,,,,,,,,,,,green,I
348.0,2.0,2.0,0.0,1.0,1.0,388.1588240001292,3.0,1.0,phase_1,,,,,,,,,,,,,cyan,hexagon
0.0,7.0,0.0,1.0,2.0,2.0,324.3871840004431,3.0,1.0,phase_1,,,,,,,,,,,,,orange,flipped triangle
163.0,1.0,1.0,0.0,2.0,2.0,370.8444929998222,3.0,1.0,phase_1,,,,,,,,,,,,,green,I
349.0,2.0,2.0,0.0,4.0,4.0,351.6988350002066,3.0,1.0,phase_1,,,,,,,,,,,,,cyan,hexagon
143.0,1.0,1.0,0.0,2.0,2.0,341.1241979993065,3.0,1.0,phase_1,,,,,,,,,,,,,green,I
166.0,1.0,1.0,0.0,2.0,2.0,351.4416130001336,3.0,1.0,phase_1,,,,,,,,,,,,,green,I
0.0,4.0,0.0,0.0,2.0,2.0,323.6344140004803,3.0,1.0,phase_1,,,,,,,,,,,,,gray,diamond
648.0,3.0,3.0,0.0,4.0,4.0,388.1605459991988,3.0,1.0,phase_1,,,,,,,,,,,,,magenta,circle
0.0,5.0,0.0,1.0,4.0,4.0,370.8373730005405,3.0,1.0,phase_1,,,,,,,,,,,,,white,triangle
1316.0,8.0,4.0,1.0,1.0,1.0,334.3689800003631,3.0,1.0,phase_1,,,,,,,,,,,,,blue,square
1302.0,4.0,4.0,0.0,2.0,2.0,323.9704689985956,3.0,1.0,phase_1,,,,,,,,,,,,,gray,diamond
326.0,6.0,2.0,1.0,1.0,1.0,343.2334419994731,3.0,1.0,phase_1,,,,,,,,,,,,,yellow,cross
140.0,5.0,1.0,1.0,2.0,2.0,333.3400129995425,3.0,1.0,phase_1,,,,,,,,,,,,,white,triangle
0.0,4.0,0.0,0.0,3.0,3.0,389.5403799997439,3.0,1.0,phase_1,,,,,,,,,,,,,gray,diamond
633.0,7.0,3.0,1.0,1.0,1.0,333.4287199995742,3.0,1.0,phase_1,,,,,,,,,,,,,orange,flipped triangle
0.0,5.0,0.0,1.0,2.0,2.0,342.2518740007945,3.0,1.0,phase_1,,,,,,,,,,,,,white,triangle
653.0,3.0,3.0,0.0,1.0,1.0,341.8180659991776,3.0,1.0,phase_1,,,,,,,,,,,,,magenta,circle
674.0,3.0,3.0,0.0,1.0,1.0,351.4511470002617,3.0,1.0,phase_1,,,,,,,,,,,,,magenta,circle
0.0,6.0,0.0,1.0,1.0,1.0,388.7010569997073,3.0,1.0,phase_1,,,,,,,,,,,,,yellow,cross
1281.0,4.0,4.0,0.0,2.0,2.0,362.361929999679,3.0,1.0,phase_1,,,,,,,,,,,,,gray,diamond
632.0,7.0,3.0,1.0,3.0,3.0,352.5531220002449,3.0,1.0,phase_1,,,,,,,,,,,,,orange,flipped triangle
143.0,5.0,1.0,1.0,3.0,3.0,364.2594560005818,3.0,1.0,phase_1,,,,,,,,,,,,,white,triangle
142.0,5.0,1.0,1.0,4.0,4.0,343.2190670009731,3.0,1.0,phase_1,,,,,,,,,,,,,white,triangle
310.0,2.0,2.0,0.0,4.0,4.0,435.6524590002664,3.0,1.0,phase_1,,,,,,,,,,,,,cyan,hexagon
637.0,7.0,3.0,1.0,2.0,2.0,333.8912730014272,3.0,1.0,phase_1,,,,,,,,,,,,,orange,flipped triangle
319.0,2.0,2.0,0.0,1.0,1.0,406.6600629994354,3.0,1.0,phase_1,,,,,,,,,,,,,cyan,hexagon
311.0,2.0,2.0,0.0,1.0,1.0,314.785397000378,3.0,1.0,phase_1,,,,,,,,,,,,,cyan,hexagon
334.0,2.0,2.0,0.0,3.0,3.0,481.7172570001276,3.0,1.0,phase_1,,,,,,,,,,,,,cyan,hexagon
0.0,8.0,0.0,1.0,2.0,2.0,405.7751740001549,3.0,1.0,phase_1,,,,,,,,,,,,,blue,square
650.0,7.0,3.0,1.0,4.0,4.0,342.4537489991053,3.0,2.0,phase_1,,,,,,,,,,,,,orange,flipped triangle
664.0,3.0,3.0,0.0,2.0,2.0,344.4379379998281,3.0,1.0,phase_1,,,,,,,,,,,,,magenta,circle
338.0,6.0,2.0,1.0,2.0,2.0,333.6465640004462,3.0,1.0,phase_1,,,,,,,,,,,,,yellow,cross
1281.0,8.0,4.0,1.0,2.0,2.0,314.6289910000632,3.0,1.0,phase_1,,,,,,,,,,,,,blue,square
669.0,3.0,3.0,0.0,2.0,2.0,306.0609889998886,3.0,1.0,phase_1,,,,,,,,,,,,,magenta,circle
664.0,7.0,3.0,1.0,3.0,3.0,406.8514780010446,3.0,1.0,phase_1,,,,,,,,,,,,,orange,flipped triangle
0.0,7.0,0.0,1.0,3.0,3.0,332.3369739991904,3.0,1.0,phase_1,,,,,,,,,,,,,orange,flipped triangle
1294.0,8.0,4.0,1.0,1.0,1.0,388.6536449990672,3.0,1.0,phase_1,,,,,,,,,,,,,blue,square
0.0,7.0,0.0,1.0,3.0,3.0,296.7621919997327,3.0,1.0,phase_1,,,,,,,,,,,,,orange,flipped triangle
637.0,3.0,3.0,0.0,1.0,1.0,333.1372510001529,3.0,1.0,phase_1,,,,,,,,,,,,,magenta,circle
1290.0,8.0,4.0,1.0,2.0,2.0,611.3695690000895,3.0,1.0,phase_1,,,,,,,,,,,,,blue,square
1303.0,4.0,4.0,0.0,3.0,3.0,369.9677570002677,3.0,1.0,phase_1,,,,,,,,,,,,,gray,diamond
0.0,3.0,0.0,0.0,2.0,2.0,379.2676509983721,3.0,1.0,phase_1,,,,,,,,,,,,,magenta,circle
0.0,8.0,0.0,1.0,3.0,3.0,343.2647289992019,3.0,1.0,phase_1,,,,,,,,,,,,,blue,square
334.0,2.0,2.0,0.0,3.0,3.0,380.1261200005683,3.0,1.0,phase_1,,,,,,,,,,,,,cyan,hexagon
0.0,8.0,0.0,1.0,4.0,4.0,332.7634149991354,3.0,1.0,phase_1,,,,,,,,,,,,,blue,square
148.0,1.0,1.0,0.0,1.0,1.0,342.0780249998643,3.0,1.0,phase_1,,,,,,,,,,,,,green,I
184.0,5.0,1.0,1.0,1.0,1.0,451.8172359985328,3.0,1.0,phase_1,,,,,,,,,,,,,white,triangle
174.0,5.0,1.0,1.0,3.0,3.0,355.0141739997343,3.0,1.0,phase_1,,,,,,,,,,,,,white,triangle
663.0,7.0,3.0,1.0,1.0,1.0,348.1913269988581,3.0,1.0,phase_1,,,,,,,,,,,,,orange,flipped triangle
151.0,5.0,1.0,1.0,1.0,1.0,296.2926910004171,3.0,1.0,phase_1,,,,,,,,,,,,,white,triangle
340.0,6.0,2.0,1.0,3.0,3.0,371.009154998319,3.0,1.0,phase_1,,,,,,,,,,,,,yellow,cross
1315.0,8.0,4.0,1.0,2.0,2.0,406.9757899997057,3.0,1.0,phase_1,,,,,,,,,,,,,blue,square
170.0,1.0,1.0,0.0,3.0,3.0,471.7408139986219,3.0,1.0,phase_1,,,,,,,,,,,,,green,I
1308.0,8.0,4.0,1.0,3.0,3.0,378.5841999997501,3.0,1.0,phase_1,,,,,,,,,,,,,blue,square
323.0,6.0,2.0,1.0,3.0,3.0,407.4022799995873,3.0,1.0,phase_1,,,,,,,,,,,,,yellow,cross
0.0,2.0,0.0,0.0,2.0,2.0,609.7292169997672,3.0,1.0,phase_1,,,,,,,,,,,,,cyan,hexagon
172.0,1.0,1.0,0.0,4.0,4.0,370.2800720002415,3.0,1.0,phase_1,,,,,,,,,,,,,green,I
1316.0,4.0,4.0,0.0,4.0,4.0,314.3209489990113,3.0,1.0,phase_1,,,,,,,,,,,,,gray,diamond
319.0,6.0,2.0,1.0,3.0,3.0,423.412621999887,3.0,1.0,phase_1,,,,,,,,,,,,,yellow,cross
0.0,4.0,0.0,0.0,4.0,4.0,471.1646619998646,3.0,1.0,phase_1,,,,,,,,,,,,,gray,diamond
140.0,1.0,1.0,0.0,3.0,3.0,369.76326399963,3.0,1.0,phase_1,,,,,,,,,,,,,green,I
1280.0,8.0,4.0,1.0,1.0,1.0,369.8575200014602,3.0,1.0,phase_1,,,,,,,,,,,,,blue,square
1320.0,4.0,4.0,0.0,3.0,3.0,296.4279719999467,3.0,1.0,phase_1,,,,,,,,,,,,,gray,diamond
1279.0,8.0,4.0,1.0,4.0,4.0,324.6356670006207,3.0,1.0,phase_1,,,,,,,,,,,,,blue,square
311.0,2.0,2.0,0.0,4.0,4.0,388.3922810000513,3.0,1.0,phase_1,,,,,,,,,,,,,cyan,hexagon
0.0,2.0,0.0,0.0,1.0,1.0,333.3916589999717,3.0,1.0,phase_1,,,,,,,,,,,,,cyan,hexagon
171.0,1.0,1.0,0.0,4.0,4.0,369.2082090001349,3.0,1.0,phase_1,,,,,,,,,,,,,green,I
0.0,2.0,0.0,0.0,4.0,4.0,649.0805880002881,3.0,1.0,phase_1,,,,,,,,,,,,,cyan,hexagon
643.0,3.0,3.0,0.0,3.0,3.0,462.1877060017141,3.0,1.0,phase_1,,,,,,,,,,,,,magenta,circle
635.0,3.0,3.0,0.0,4.0,4.0,416.1393330014107,3.0,1.0,phase_1,,,,,,,,,,,,,magenta,circle
327.0,2.0,2.0,0.0,3.0,3.0,379.6756200008531,3.0,1.0,phase_1,,,,,,,,,,,,,cyan,hexagon
669.0,7.0,3.0,1.0,2.0,2.0,407.7423119997547,3.0,1.0,phase_1,,,,,,,,,,,,,orange,flipped triangle
0.0,5.0,0.0,1.0,1.0,1.0,388.0351509997126,3.0,1.0,phase_1,,,,,,,,,,,,,white,triangle
636.0,3.0,3.0,0.0,2.0,2.0,683.3381870001176,3.0,1.0,phase_1,,,,,,,,,,,,,magenta,circle
0.0,2.0,0.0,0.0,2.0,2.0,433.5834989997238,3.0,1.0,phase_1,,,,,,,,,,,,,cyan,hexagon
1285.0,8.0,4.0,1.0,1.0,1.0,360.9293110002909,3.0,1.0,phase_1,,,,,,,,,,,,,blue,square
0.0,3.0,0.0,0.0,2.0,2.0,378.977758999099,3.0,1.0,phase_1,,,,,,,,,,,,,magenta,circle
167.0,5.0,1.0,1.0,3.0,3.0,425.6052559994714,3.0,1.0,phase_1,,,,,,,,,,,,,white,triangle
348.0,6.0,2.0,1.0,2.0,2.0,370.0970870013407,3.0,1.0,phase_1,,,,,,,,,,,,,yellow,cross
1285.0,4.0,4.0,0.0,3.0,3.0,417.8286160004063,3.0,1.0,phase_1,,,,,,,,,,,,,gray,diamond
0.0,1.0,0.0,0.0,1.0,1.0,415.5507939995004,3.0,1.0,phase_1,,,,,,,,,,,,,green,I
184.0,1.0,1.0,0.0,1.0,1.0,295.6212960016273,3.0,1.0,phase_1,,,,,,,,,,,,,green,I
341.0,6.0,2.0,1.0,2.0,2.0,343.037030999767,3.0,1.0,phase_1,,,,,,,,,,,,,yellow,cross
1323.0,4.0,4.0,0.0,2.0,2.0,344.3138660004479,3.0,1.0,phase_1,,,,,,,,,,,,,gray,diamond
664.0,7.0,3.0,1.0,2.0,2.0,314.4575759997678,3.0,1.0,phase_1,,,,,,,,,,,,,orange,flipped triangle
1317.0,8.0,4.0,1.0,1.0,1.0,332.8087410009175,3.0,1.0,phase_1,,,,,,,,,,,,,blue,square
0.0,2.0,0.0,0.0,4.0,4.0,342.6240570006484,3.0,1.0,phase_1,,,,,,,,,,,,,cyan,hexagon
139.0,5.0,1.0,1.0,3.0,3.0,334.0650050013209,3.0,1.0,phase_1,,,,,,,,,,,,,white,triangle
169.0,5.0,1.0,1.0,3.0,3.0,424.7037439999985,3.0,1.0,phase_1,,,,,,,,,,,,,white,triangle
0.0,5.0,0.0,1.0,3.0,3.0,342.5682429988228,3.0,1.0,phase_1,,,,,,,,,,,,,white,triangle
139.0,1.0,1.0,0.0,1.0,1.0,360.3558920003706,3.0,1.0,phase_1,,,,,,,,,,,,,green,I
317.0,2.0,2.0,0.0,1.0,1.0,342.1888699995179,3.0,1.0,phase_1,,,,,,,,,,,,,cyan,hexagon
159.0,1.0,1.0,0.0,3.0,3.0,407.9327950003062,3.0,1.0,phase_1,,,,,,,,,,,,,green,I
178.0,1.0,1.0,0.0,2.0,2.0,369.0814380006486,3.0,1.0,phase_1,,,,,,,,,,,,,green,I
0.0,7.0,0.0,1.0,3.0,3.0,434.0574790003302,3.0,1.0,phase_1,,,,,,,,,,,,,orange,flipped triangle
632.0,7.0,3.0,1.0,4.0,4.0,397.3960069997702,3.0,1.0,phase_1,,,,,,,,,,,,,orange,flipped triangle
673.0,3.0,3.0,0.0,3.0,3.0,408.043852999981,4.0,1.0,phase_1,,,,,,,,,,,,,magenta,circle
346.0,6.0,2.0,1.0,3.0,3.0,342.9578979994403,4.0,1.0,phase_1,,,,,,,,,,,,,yellow,cross
1278.0,4.0,4.0,0.0,1.0,1.0,370.7494080008473,4.0,1.0,phase_1,,,,,,,,,,,,,gray,diamond
163.0,1.0,1.0,0.0,3.0,3.0,344.1939470012585,4.0,1.0,phase_1,,,,,,,,,,,,,green,I
0.0,5.0,0.0,1.0,1.0,1.0,306.558299000244,4.0,1.0,phase_1,,,,,,,,,,,,,white,triangle
0.0,8.0,0.0,1.0,3.0,3.0,389.0180669986876,4.0,1.0,phase_1,,,,,,,,,,,,,blue,square
1294.0,8.0,4.0,1.0,2.0,2.0,305.0395800000842,4.0,1.0,phase_1,,,,,,,,,,,,,blue,square
159.0,5.0,1.0,1.0,4.0,4.0,380.687738999768,4.0,1.0,phase_1,,,,,,,,,,,,,white,triangle
348.0,2.0,2.0,0.0,3.0,3.0,314.9019070006034,4.0,1.0,phase_1,,,,,,,,,,,,,cyan,hexagon
1282.0,8.0,4.0,1.0,2.0,2.0,315.6314309999288,4.0,1.0,phase_1,,,,,,,,,,,,,blue,square
1296.0,4.0,4.0,0.0,1.0,1.0,362.323359999209,4.0,1.0,phase_1,,,,,,,,,,,,,gray,diamond
1322.0,4.0,4.0,0.0,4.0,4.0,381.3523389999318,4.0,1.0,phase_1,,,,,,,,,,,,,gray,diamond
1321.0,8.0,4.0,1.0,1.0,1.0,352.6770919997943,4.0,1.0,phase_1,,,,,,,,,,,,,blue,square
309.0,6.0,2.0,1.0,3.0,3.0,399.7114180001517,4.0,1.0,phase_1,,,,,,,,,,,,,yellow,cross
319.0,6.0,2.0,1.0,3.0,3.0,391.7243230007443,4.0,1.0,phase_1,,,,,,,,,,,,,yellow,cross
309.0,2.0,2.0,0.0,2.0,2.0,314.9442840003758,4.0,1.0,phase_1,,,,,,,,,,,,,cyan,hexagon
137.0,1.0,1.0,0.0,2.0,2.0,335.8752000003733,4.0,1.0,phase_1,,,,,,,,,,,,,green,I
144.0,1.0,1.0,0.0,2.0,2.0,351.440939000895,4.0,1.0,phase_1,,,,,,,,,,,,,green,I
181.0,1.0,1.0,0.0,1.0,1.0,381.4913719998003,4.0,1.0,phase_1,,,,,,,,,,,,,green,I
645.0,3.0,3.0,0.0,4.0,4.0,518.2585479997215,4.0,1.0,phase_1,,,,,,,,,,,,,magenta,circle
1298.0,4.0,4.0,0.0,2.0,2.0,305.8448230003705,4.0,1.0,phase_1,,,,,,,,,,,,,gray,diamond
311.0,6.0,2.0,1.0,3.0,3.0,353.643579999698,4.0,1.0,phase_1,,,,,,,,,,,,,yellow,cross
340.0,2.0,2.0,0.0,3.0,3.0,333.4432489991741,4.0,2.0,phase_1,,,,,,,,,,,,,cyan,hexagon
0.0,4.0,0.0,0.0,4.0,4.0,334.406191999733,4.0,1.0,phase_1,,,,,,,,,,,,,gray,diamond
1284.0,4.0,4.0,0.0,2.0,2.0,343.1996330000402,4.0,1.0,phase_1,,,,,,,,,,,,,gray,diamond
636.0,7.0,3.0,1.0,3.0,3.0,391.3564310005313,4.0,1.0,phase_1,,,,,,,,,,,,,orange,flipped triangle
321.0,6.0,2.0,1.0,1.0,1.0,380.6189030001405,4.0,1.0,phase_1,,,,,,,,,,,,,yellow,cross
0.0,6.0,0.0,1.0,3.0,3.0,315.0769869989744,4.0,1.0,phase_1,,,,,,,,,,,,,yellow,cross
1290.0,4.0,4.0,0.0,2.0,2.0,315.5476039992209,4.0,1.0,phase_1,,,,,,,,,,,,,gray,diamond
147.0,5.0,1.0,1.0,2.0,2.0,324.0925019999849,4.0,1.0,phase_1,,,,,,,,,,,,,white,triangle
311.0,6.0,2.0,1.0,4.0,4.0,370.2054160003172,4.0,1.0,phase_1,,,,,,,,,,,,,yellow,cross
643.0,3.0,3.0,0.0,1.0,1.0,343.2517370001733,4.0,1.0,phase_1,,,,,,,,,,,,,magenta,circle
638.0,3.0,3.0,0.0,4.0,4.0,343.1510399987019,4.0,1.0,phase_1,,,,,,,,,,,,,magenta,circle
1308.0,4.0,4.0,0.0,2.0,2.0,508.0786069993337,4.0,1.0,phase_1,,,,,,,,,,,,,gray,diamond
0.0,6.0,0.0,1.0,1.0,1.0,324.558985999829,4.0,1.0,phase_1,,,,,,,,,,,,,yellow,cross
650.0,3.0,3.0,0.0,2.0,2.0,490.3001359998598,4.0,1.0,phase_1,,,,,,,,,,,,,magenta,circle
348.0,2.0,2.0,0.0,4.0,4.0,379.1256330005126,4.0,1.0,phase_1,,,,,,,,,,,,,cyan,hexagon
148.0,5.0,1.0,1.0,2.0,2.0,317.33994400019577,4.0,1.0,phase_1,,,,,,,,,,,,,white,triangle
0.0,4.0,0.0,0.0,3.0,3.0,528.8407230000303,4.0,1.0,phase_1,,,,,,,,,,,,,gray,diamond
628.0,3.0,3.0,0.0,4.0,4.0,543.808213000375,4.0,1.0,phase_1,,,,,,,,,,,,,magenta,circle
1279.0,4.0,4.0,0.0,4.0,4.0,433.8241320001543,4.0,1.0,phase_1,,,,,,,,,,,,,gray,diamond
160.0,1.0,1.0,0.0,3.0,3.0,398.4185579993209,4.0,1.0,phase_1,,,,,,,,,,,,,green,I
185.0,5.0,1.0,1.0,2.0,2.0,361.0947500001202,4.0,1.0,phase_1,,,,,,,,,,,,,white,triangle
634.0,3.0,3.0,0.0,4.0,4.0,341.7958049994922,4.0,1.0,phase_1,,,,,,,,,,,,,magenta,circle
636.0,3.0,3.0,0.0,1.0,1.0,341.9830029997683,4.0,1.0,phase_1,,,,,,,,,,,,,magenta,circle
160.0,5.0,1.0,1.0,2.0,2.0,341.8032629997469,4.0,1.0,phase_1,,,,,,,,,,,,,white,triangle
187.0,1.0,1.0,0.0,1.0,1.0,332.2733569984848,4.0,1.0,phase_1,,,,,,,,,,,,,green,I
1299.0,4.0,4.0,0.0,2.0,2.0,444.6519989996886,4.0,1.0,phase_1,,,,,,,,,,,,,gray,diamond
1303.0,8.0,4.0,1.0,2.0,2.0,362.0235500002309,4.0,1.0,phase_1,,,,,,,,,,,,,blue,square
1303.0,4.0,4.0,0.0,4.0,4.0,398.1768570010899,4.0,1.0,phase_1,,,,,,,,,,,,,gray,diamond
1318.0,8.0,4.0,1.0,4.0,4.0,380.983863999063,4.0,1.0,phase_1,,,,,,,,,,,,,blue,square
0.0,3.0,0.0,0.0,4.0,4.0,425.0576110007387,4.0,1.0,phase_1,,,,,,,,,,,,,magenta,circle
648.0,7.0,3.0,1.0,4.0,4.0,314.6846600011486,4.0,1.0,phase_1,,,,,,,,,,,,,orange,flipped triangle
653.0,3.0,3.0,0.0,1.0,1.0,314.6648989986715,4.0,2.0,phase_1,,,,,,,,,,,,,magenta,circle
637.0,3.0,3.0,0.0,1.0,1.0,333.8189010009955,4.0,1.0,phase_1,,,,,,,,,,,,,magenta,circle
0.0,8.0,0.0,1.0,1.0,1.0,378.5488150006131,4.0,1.0,phase_1,,,,,,,,,,,,,blue,square
309.0,2.0,2.0,0.0,3.0,3.0,426.06228800104867,4.0,1.0,phase_1,,,,,,,,,,,,,cyan,hexagon
657.0,3.0,3.0,0.0,1.0,1.0,425.7985620006366,4.0,1.0,phase_1,,,,,,,,,,,,,magenta,circle
142.0,1.0,1.0,0.0,3.0,3.0,472.7461860002222,4.0,1.0,phase_1,,,,,,,,,,,,,green,I
1309.0,4.0,4.0,0.0,4.0,4.0,390.1178510004683,4.0,1.0,phase_1,,,,,,,,,,,,,gray,diamond
185.0,1.0,1.0,0.0,4.0,4.0,619.4404060006491,4.0,1.0,phase_1,,,,,,,,,,,,,green,I
1312.0,8.0,4.0,1.0,4.0,4.0,436.5394770011335,4.0,1.0,phase_1,,,,,,,,,,,,,blue,square
0.0,1.0,0.0,0.0,2.0,2.0,361.1476869991747,4.0,1.0,phase_1,,,,,,,,,,,,,green,I
334.0,6.0,2.0,1.0,2.0,2.0,379.8515859998588,4.0,1.0,phase_1,,,,,,,,,,,,,yellow,cross
670.0,3.0,3.0,0.0,4.0,4.0,388.1448869997257,4.0,1.0,phase_1,,,,,,,,,,,,,magenta,circle
629.0,3.0,3.0,0.0,3.0,3.0,370.6063350000477,4.0,1.0,phase_1,,,,,,,,,,,,,magenta,circle
153.0,5.0,1.0,1.0,4.0,4.0,481.1388649995933,4.0,1.0,phase_1,,,,,,,,,,,,,white,triangle
644.0,3.0,3.0,0.0,3.0,3.0,380.1232309997431,4.0,1.0,phase_1,,,,,,,,,,,,,magenta,circle
0.0,1.0,0.0,0.0,4.0,4.0,332.8645090005011,4.0,1.0,phase_1,,,,,,,,,,,,,green,I
0.0,7.0,0.0,1.0,4.0,4.0,362.7019989999098,4.0,1.0,phase_1,,,,,,,,,,,,,orange,flipped triangle
637.0,7.0,3.0,1.0,2.0,2.0,369.07890799921,4.0,1.0,phase_1,,,,,,,,,,,,,orange,flipped triangle
321.0,2.0,2.0,0.0,3.0,3.0,407.2868850016675,4.0,1.0,phase_1,,,,,,,,,,,,,cyan,hexagon
332.0,2.0,2.0,0.0,2.0,2.0,360.9562290002941,4.0,1.0,phase_1,,,,,,,,,,,,,cyan,hexagon
167.0,1.0,1.0,0.0,4.0,4.0,342.8866210015258,4.0,1.0,phase_1,,,,,,,,,,,,,green,I
1279.0,4.0,4.0,0.0,3.0,3.0,434.5538719990145,4.0,1.0,phase_1,,,,,,,,,,,,,gray,diamond
637.0,7.0,3.0,1.0,2.0,2.0,334.540334999474,4.0,1.0,phase_1,,,,,,,,,,,,,orange,flipped triangle
1282.0,4.0,4.0,0.0,4.0,4.0,306.2024470000324,4.0,1.0,phase_1,,,,,,,,,,,,,gray,diamond
1303.0,8.0,4.0,1.0,3.0,3.0,406.6742270006216,4.0,1.0,phase_1,,,,,,,,,,,,,blue,square
169.0,1.0,1.0,0.0,1.0,1.0,398.576330000651,4.0,1.0,phase_1,,,,,,,,,,,,,green,I
0.0,1.0,0.0,0.0,1.0,1.0,379.9800929991761,4.0,1.0,phase_1,,,,,,,,,,,,,green,I
137.0,5.0,1.0,1.0,1.0,1.0,314.7921529998712,4.0,1.0,phase_1,,,,,,,,,,,,,white,triangle
1299.0,8.0,4.0,1.0,4.0,4.0,390.5559340000764,4.0,1.0,phase_1,,,,,,,,,,,,,blue,square
1295.0,8.0,4.0,1.0,1.0,1.0,343.1727070001216,4.0,1.0,phase_1,,,,,,,,,,,,,blue,square
1320.0,8.0,4.0,1.0,3.0,3.0,334.4749059997411,4.0,1.0,phase_1,,,,,,,,,,,,,blue,square
0.0,8.0,0.0,1.0,2.0,2.0,333.4115760007989,4.0,1.0,phase_1,,,,,,,,,,,,,blue,square
670.0,7.0,3.0,1.0,3.0,3.0,360.5179520000092,4.0,1.0,phase_1,,,,,,,,,,,,,orange,flipped triangle
659.0,7.0,3.0,1.0,3.0,3.0,397.6771899997402,4.0,1.0,phase_1,,,,,,,,,,,,,orange,flipped triangle
178.0,5.0,1.0,1.0,2.0,2.0,425.8207879993279,4.0,1.0,phase_1,,,,,,,,,,,,,white,triangle
1295.0,4.0,4.0,0.0,1.0,1.0,453.2256149996101,4.0,1.0,phase_1,,,,,,,,,,,,,gray,diamond
160.0,5.0,1.0,1.0,1.0,1.0,352.0032039996295,4.0,1.0,phase_1,,,,,,,,,,,,,white,triangle
187.0,5.0,1.0,1.0,4.0,4.0,582.4281759996666,4.0,1.0,phase_1,,,,,,,,,,,,,white,triangle
1318.0,8.0,4.0,1.0,4.0,4.0,398.3303589993738,4.0,1.0,phase_1,,,,,,,,,,,,,blue,square
314.0,2.0,2.0,0.0,4.0,4.0,343.0776450004487,4.0,1.0,phase_1,,,,,,,,,,,,,cyan,hexagon
314.0,6.0,2.0,1.0,1.0,1.0,528.0385500009288,4.0,1.0,phase_1,,,,,,,,,,,,,yellow,cross
348.0,6.0,2.0,1.0,1.0,1.0,362.1505219998653,4.0,1.0,phase_1,,,,,,,,,,,,,yellow,cross
1289.0,4.0,4.0,0.0,2.0,2.0,361.6455100000166,4.0,1.0,phase_1,,,,,,,,,,,,,gray,diamond
334.0,2.0,2.0,0.0,4.0,4.0,435.6671229998028,4.0,1.0,phase_1,,,,,,,,,,,,,cyan,hexagon
140.0,1.0,1.0,0.0,3.0,3.0,341.8953290001809,4.0,1.0,phase_1,,,,,,,,,,,,,green,I
642.0,3.0,3.0,0.0,2.0,2.0,342.0695120003074,4.0,1.0,phase_1,,,,,,,,,,,,,magenta,circle
338.0,2.0,2.0,0.0,2.0,2.0,361.8567920002533,4.0,1.0,phase_1,,,,,,,,,,,,,cyan,hexagon
0.0,8.0,4.0,1.0,5.0,0.0,0.0,1.0,1.0,phase_2,stop,250.0,250.0,4.0,,,,,,,,,blue,square
0.0,3.0,3.0,0.0,6.0,6.0,363.8137319994712,1.0,1.0,phase_2,go,300.0,250.0,1.0,,,,,,,,,magenta,circle
0.0,5.0,1.0,1.0,5.0,5.0,488.551123000434,1.0,1.0,phase_2,stop,300.0,250.0,3.0,,,,,,,,,white,triangle
0.0,2.0,2.0,0.0,6.0,6.0,430.2549040003214,1.0,1.0,phase_2,go,250.0,250.0,1.0,,,,,,,,,cyan,hexagon
0.0,5.0,1.0,1.0,5.0,5.0,567.9657439995935,1.0,1.0,phase_2,go,250.0,250.0,1.0,,,,,,,,,white,triangle
0.0,3.0,3.0,0.0,5.0,5.0,455.0841139989643,1.0,1.0,phase_2,go,250.0,250.0,1.0,,,,,,,,,magenta,circle
0.0,4.0,4.0,0.0,5.0,5.0,466.1784609997994,1.0,1.0,phase_2,go,250.0,250.0,1.0,,,,,,,,,gray,diamond
0.0,1.0,1.0,0.0,6.0,6.0,467.6300579994858,1.0,1.0,phase_2,go,250.0,250.0,1.0,,,,,,,,,green,I
0.0,8.0,4.0,1.0,6.0,0.0,0.0,1.0,1.0,phase_2,stop,250.0,250.0,4.0,,,,,,,,,blue,square
0.0,1.0,1.0,0.0,6.0,6.0,484.9335939998127,1.0,1.0,phase_2,go,250.0,300.0,1.0,,,,,,,,,green,I
0.0,3.0,3.0,0.0,5.0,5.0,502.2545540014107,1.0,1.0,phase_2,go,250.0,300.0,1.0,,,,,,,,,magenta,circle
0.0,3.0,3.0,0.0,6.0,6.0,391.7090730010386,1.0,1.0,phase_2,go,250.0,300.0,1.0,,,,,,,,,magenta,circle
0.0,1.0,1.0,0.0,6.0,6.0,493.9665590009099,1.0,1.0,phase_2,go,250.0,300.0,1.0,,,,,,,,,green,I
0.0,1.0,1.0,0.0,6.0,6.0,439.4782530016528,1.0,1.0,phase_2,go,250.0,300.0,1.0,,,,,,,,,green,I
0.0,5.0,1.0,1.0,5.0,5.0,420.4220930005249,1.0,1.0,phase_2,stop,250.0,300.0,3.0,,,,,,,,,white,triangle
0.0,1.0,1.0,0.0,6.0,6.0,439.416938001159,1.0,1.0,phase_2,go,200.0,300.0,1.0,,,,,,,,,green,I
0.0,7.0,3.0,1.0,6.0,6.0,307.7888150000945,1.0,1.0,phase_2,go,200.0,300.0,1.0,,,,,,,,,orange,flipped triangle
0.0,5.0,1.0,1.0,5.0,0.0,0.0,1.0,1.0,phase_2,stop,200.0,300.0,4.0,,,,,,,,,white,triangle
0.0,8.0,4.0,1.0,5.0,5.0,347.0439359989541,1.0,1.0,phase_2,stop,250.0,300.0,3.0,,,,,,,,,blue,square
0.0,7.0,3.0,1.0,5.0,0.0,0.0,1.0,1.0,phase_2,stop,200.0,300.0,4.0,,,,,,,,,orange,flipped triangle
0.0,8.0,4.0,1.0,6.0,6.0,447.5524660010705,1.0,1.0,phase_2,go,250.0,300.0,1.0,,,,,,,,,blue,square
0.0,6.0,2.0,1.0,5.0,5.0,420.2989450004679,1.0,1.0,phase_2,go,250.0,300.0,1.0,,,,,,,,,yellow,cross
0.0,6.0,2.0,1.0,6.0,6.0,652.5364660010382,1.0,1.0,phase_2,go,250.0,300.0,1.0,,,,,,,,,yellow,cross
0.0,6.0,2.0,1.0,5.0,0.0,0.0,1.0,1.0,phase_2,stop,250.0,300.0,4.0,,,,,,,,,yellow,cross
0.0,5.0,1.0,1.0,5.0,0.0,0.0,1.0,1.0,phase_2,stop,300.0,300.0,4.0,,,,,,,,,white,triangle
0.0,2.0,2.0,0.0,5.0,5.0,643.6393240001053,1.0,1.0,phase_2,go,350.0,300.0,1.0,,,,,,,,,cyan,hexagon
0.0,8.0,4.0,1.0,5.0,0.0,0.0,1.0,1.0,phase_2,stop,350.0,300.0,4.0,,,,,,,,,blue,square
0.0,8.0,4.0,1.0,6.0,0.0,0.0,1.0,1.0,phase_2,stop,400.0,300.0,4.0,,,,,,,,,blue,square
0.0,7.0,3.0,1.0,5.0,5.0,541.341800999362,1.0,1.0,phase_2,stop,400.0,350.0,3.0,,,,,,,,,orange,flipped triangle
0.0,3.0,3.0,0.0,6.0,6.0,626.2849319991801,1.0,1.0,phase_2,go,350.0,350.0,1.0,,,,,,,,,magenta,circle
0.0,6.0,2.0,1.0,5.0,0.0,0.0,1.0,1.0,phase_2,stop,350.0,350.0,4.0,,,,,,,,,yellow,cross
0.0,3.0,3.0,0.0,5.0,5.0,522.835956999188,1.0,1.0,phase_2,go,400.0,350.0,1.0,,,,,,,,,magenta,circle
0.0,6.0,2.0,1.0,6.0,0.0,0.0,1.0,1.0,phase_2,stop,400.0,350.0,4.0,,,,,,,,,yellow,cross
0.0,4.0,4.0,0.0,6.0,6.0,402.0277549989259,1.0,1.0,phase_2,go,400.0,400.0,1.0,,,,,,,,,gray,diamond
0.0,6.0,2.0,1.0,5.0,5.0,600.6507679994684,1.0,1.0,phase_2,stop,400.0,400.0,3.0,,,,,,,,,yellow,cross
0.0,6.0,2.0,1.0,5.0,0.0,0.0,1.0,1.0,phase_2,stop,350.0,400.0,4.0,,,,,,,,,yellow,cross
0.0,3.0,3.0,0.0,6.0,6.0,496.3438499999029,2.0,1.0,phase_2,go,400.0,400.0,1.0,,,,,,,,,magenta,circle
0.0,7.0,3.0,1.0,5.0,0.0,0.0,2.0,1.0,phase_2,stop,400.0,400.0,4.0,,,,,,,,,orange,flipped triangle
0.0,4.0,4.0,0.0,6.0,6.0,596.8088970003009,2.0,1.0,phase_2,go,450.0,400.0,1.0,,,,,,,,,gray,diamond
0.0,8.0,4.0,1.0,6.0,6.0,550.2725640017161,2.0,1.0,phase_2,stop,450.0,400.0,3.0,,,,,,,,,blue,square
0.0,1.0,1.0,0.0,5.0,5.0,616.0704310004803,2.0,1.0,phase_2,go,450.0,350.0,1.0,,,,,,,,,green,I
0.0,8.0,4.0,1.0,6.0,6.0,577.0757720001711,2.0,1.0,phase_2,go,450.0,350.0,1.0,,,,,,,,,blue,square
0.0,4.0,4.0,0.0,6.0,6.0,467.1065450002061,2.0,1.0,phase_2,go,450.0,350.0,1.0,,,,,,,,,gray,diamond
0.0,8.0,4.0,1.0,6.0,6.0,498.0709119990933,2.0,1.0,phase_2,stop,450.0,350.0,3.0,,,,,,,,,blue,square
0.0,5.0,1.0,1.0,5.0,0.0,0.0,2.0,1.0,phase_2,stop,450.0,300.0,4.0,,,,,,,,,white,triangle
0.0,1.0,1.0,0.0,6.0,6.0,550.0446589994681,2.0,1.0,phase_2,go,500.0,300.0,1.0,,,,,,,,,green,I
0.0,7.0,3.0,1.0,6.0,0.0,0.0,2.0,1.0,phase_2,stop,500.0,300.0,4.0,,,,,,,,,orange,flipped triangle
0.0,1.0,1.0,0.0,5.0,5.0,354.3287070006045,2.0,1.0,phase_2,go,500.0,350.0,1.0,,,,,,,,,green,I
0.0,8.0,4.0,1.0,5.0,5.0,583.0383740012621,2.0,1.0,phase_2,stop,500.0,350.0,3.0,,,,,,,,,blue,square
0.0,3.0,3.0,0.0,6.0,6.0,617.2908210010064,2.0,1.0,phase_2,go,450.0,350.0,1.0,,,,,,,,,magenta,circle
0.0,7.0,3.0,1.0,5.0,5.0,615.7831700002134,2.0,1.0,phase_2,go,450.0,350.0,1.0,,,,,,,,,orange,flipped triangle
0.0,2.0,2.0,0.0,6.0,6.0,420.8390430012514,2.0,1.0,phase_2,go,450.0,350.0,1.0,,,,,,,,,cyan,hexagon
0.0,6.0,2.0,1.0,6.0,6.0,493.7565689997427,2.0,1.0,phase_2,stop,450.0,350.0,3.0,,,,,,,,,yellow,cross
0.0,1.0,1.0,0.0,6.0,6.0,595.8355900002061,2.0,1.0,phase_2,go,450.0,300.0,1.0,,,,,,,,,green,I
0.0,2.0,2.0,0.0,6.0,6.0,346.0400849999132,2.0,1.0,phase_2,go,450.0,300.0,1.0,,,,,,,,,cyan,hexagon
0.0,6.0,2.0,1.0,6.0,0.0,0.0,2.0,1.0,phase_2,stop,450.0,300.0,4.0,,,,,,,,,yellow,cross
0.0,5.0,1.0,1.0,6.0,6.0,464.9596330000349,2.0,1.0,phase_2,go,450.0,350.0,1.0,,,,,,,,,white,triangle
0.0,5.0,1.0,1.0,5.0,5.0,373.9682710001943,2.0,1.0,phase_2,stop,450.0,350.0,3.0,,,,,,,,,white,triangle
0.0,4.0,4.0,0.0,5.0,5.0,569.9935800003004,2.0,1.0,phase_2,go,400.0,350.0,1.0,,,,,,,,,gray,diamond
0.0,3.0,3.0,0.0,6.0,6.0,411.7793969999184,2.0,1.0,phase_2,go,400.0,350.0,1.0,,,,,,,,,magenta,circle
0.0,8.0,4.0,1.0,6.0,0.0,0.0,2.0,1.0,phase_2,stop,400.0,350.0,4.0,,,,,,,,,blue,square
0.0,2.0,2.0,0.0,6.0,6.0,381.8894340001861,2.0,1.0,phase_2,go,400.0,400.0,1.0,,,,,,,,,cyan,hexagon
0.0,8.0,4.0,1.0,5.0,5.0,558.2610450001084,2.0,1.0,phase_2,stop,400.0,400.0,3.0,,,,,,,,,blue,square
0.0,4.0,4.0,0.0,5.0,5.0,491.2777320005261,2.0,1.0,phase_2,go,350.0,400.0,1.0,,,,,,,,,gray,diamond
0.0,2.0,2.0,0.0,6.0,6.0,669.8734230012633,2.0,1.0,phase_2,go,350.0,400.0,1.0,,,,,,,,,cyan,hexagon
0.0,7.0,3.0,1.0,5.0,0.0,0.0,2.0,1.0,phase_2,stop,350.0,400.0,4.0,,,,,,,,,orange,flipped triangle
0.0,2.0,2.0,0.0,5.0,5.0,751.3184609997552,2.0,1.0,phase_2,go,400.0,400.0,1.0,,,,,,,,,cyan,hexagon
0.0,4.0,4.0,0.0,6.0,6.0,642.8117570012546,2.0,1.0,phase_2,go,400.0,400.0,1.0,,,,,,,,,gray,diamond
0.0,5.0,1.0,1.0,5.0,5.0,445.3103989999363,2.0,1.0,phase_2,stop,400.0,400.0,3.0,,,,,,,,,white,triangle
0.0,1.0,1.0,0.0,5.0,5.0,942.881811000916,2.0,1.0,phase_2,go,350.0,400.0,1.0,,,,,,,,,green,I
0.0,4.0,4.0,0.0,5.0,5.0,401.7423280001821,2.0,1.0,phase_2,go,350.0,400.0,1.0,,,,,,,,,gray,diamond
0.0,8.0,4.0,1.0,5.0,5.0,479.1932159987482,2.0,1.0,phase_2,stop,350.0,400.0,3.0,,,,,,,,,blue,square
0.0,7.0,3.0,1.0,6.0,6.0,485.3210380006203,3.0,1.0,phase_2,go,300.0,400.0,1.0,,,,,,,,,orange,flipped triangle
0.0,8.0,4.0,1.0,5.0,5.0,683.62738200085,3.0,1.0,phase_2,go,300.0,400.0,1.0,,,,,,,,,blue,square
0.0,1.0,1.0,0.0,6.0,6.0,354.4998100005614,3.0,1.0,phase_2,go,300.0,400.0,1.0,,,,,,,,,green,I
0.0,8.0,4.0,1.0,6.0,6.0,501.96617400069954,3.0,1.0,phase_2,stop,300.0,400.0,3.0,,,,,,,,,blue,square
0.0,6.0,2.0,1.0,5.0,0.0,0.0,3.0,1.0,phase_2,stop,300.0,350.0,4.0,,,,,,,,,yellow,cross
0.0,6.0,2.0,1.0,5.0,5.0,494.5447070003865,3.0,1.0,phase_2,go,350.0,350.0,1.0,,,,,,,,,yellow,cross
0.0,1.0,1.0,0.0,6.0,6.0,551.0033360005764,3.0,1.0,phase_2,go,350.0,350.0,1.0,,,,,,,,,green,I
0.0,3.0,3.0,0.0,6.0,6.0,402.0405669998581,3.0,1.0,phase_2,go,350.0,350.0,1.0,,,,,,,,,magenta,circle
0.0,2.0,2.0,0.0,5.0,5.0,345.7493060013803,3.0,1.0,phase_2,go,350.0,350.0,1.0,,,,,,,,,cyan,hexagon
0.0,8.0,4.0,1.0,6.0,0.0,0.0,3.0,1.0,phase_2,stop,350.0,350.0,4.0,,,,,,,,,blue,square
0.0,3.0,3.0,0.0,6.0,6.0,615.310478999163,3.0,1.0,phase_2,go,350.0,400.0,1.0,,,,,,,,,magenta,circle
0.0,5.0,1.0,1.0,6.0,0.0,0.0,3.0,1.0,phase_2,stop,350.0,400.0,4.0,,,,,,,,,white,triangle
0.0,4.0,4.0,0.0,5.0,5.0,532.3838479998813,3.0,1.0,phase_2,go,350.0,450.0,1.0,,,,,,,,,gray,diamond
0.0,4.0,4.0,0.0,5.0,5.0,624.5036539985449,3.0,1.0,phase_2,go,350.0,450.0,1.0,,,,,,,,,gray,diamond
0.0,7.0,3.0,1.0,6.0,0.0,0.0,3.0,1.0,phase_2,stop,350.0,450.0,4.0,,,,,,,,,orange,flipped triangle
0.0,5.0,1.0,1.0,6.0,6.0,540.5819330007944,3.0,1.0,phase_2,stop,350.0,500.0,3.0,,,,,,,,,white,triangle
0.0,7.0,3.0,1.0,6.0,6.0,626.3605589992949,3.0,1.0,phase_2,go,350.0,450.0,1.0,,,,,,,,,orange,flipped triangle
0.0,7.0,3.0,1.0,5.0,0.0,0.0,3.0,1.0,phase_2,stop,350.0,450.0,4.0,,,,,,,,,orange,flipped triangle
0.0,8.0,4.0,1.0,6.0,6.0,691.5876540006138,3.0,1.0,phase_2,go,400.0,450.0,1.0,,,,,,,,,blue,square
0.0,2.0,2.0,0.0,5.0,5.0,624.4334240000171,3.0,1.0,phase_2,go,400.0,450.0,1.0,,,,,,,,,cyan,hexagon
0.0,4.0,4.0,0.0,5.0,5.0,718.7417549994279,3.0,1.0,phase_2,go,400.0,450.0,1.0,,,,,,,,,gray,diamond
0.0,5.0,1.0,1.0,6.0,6.0,577.2426150015235,3.0,1.0,phase_2,stop,400.0,450.0,3.0,,,,,,,,,white,triangle
0.0,6.0,2.0,1.0,6.0,6.0,452.8029069988406,3.0,1.0,phase_2,stop,400.0,400.0,3.0,,,,,,,,,yellow,cross
0.0,6.0,2.0,1.0,6.0,6.0,662.0858940004837,3.0,1.0,phase_2,go,400.0,350.0,1.0,,,,,,,,,yellow,cross
0.0,7.0,3.0,1.0,5.0,0.0,0.0,3.0,1.0,phase_2,stop,400.0,350.0,4.0,,,,,,,,,orange,flipped triangle
0.0,4.0,4.0,0.0,5.0,5.0,604.9293209998723,3.0,1.0,phase_2,go,450.0,350.0,1.0,,,,,,,,,gray,diamond
0.0,8.0,4.0,1.0,6.0,0.0,0.0,3.0,1.0,phase_2,stop,450.0,350.0,4.0,,,,,,,,,blue,square
0.0,2.0,2.0,0.0,6.0,6.0,603.590818000157,3.0,1.0,phase_2,go,450.0,400.0,1.0,,,,,,,,,cyan,hexagon
0.0,2.0,2.0,0.0,6.0,6.0,606.0938020000322,3.0,1.0,phase_2,go,450.0,400.0,1.0,,,,,,,,,cyan,hexagon
0.0,4.0,4.0,0.0,5.0,5.0,698.2687710005848,3.0,1.0,phase_2,go,450.0,400.0,1.0,,,,,,,,,gray,diamond
0.0,4.0,4.0,0.0,6.0,6.0,428.3084569997299,3.0,1.0,phase_2,go,450.0,400.0,1.0,,,,,,,,,gray,diamond
0.0,1.0,1.0,0.0,5.0,5.0,651.874011999098,3.0,1.0,phase_2,go,450.0,400.0,1.0,,,,,,,,,green,I
0.0,6.0,2.0,1.0,6.0,6.0,402.0579539992468,3.0,1.0,phase_2,go,450.0,400.0,1.0,,,,,,,,,yellow,cross
0.0,4.0,4.0,0.0,5.0,5.0,718.699707000269,3.0,1.0,phase_2,go,450.0,400.0,1.0,,,,,,,,,gray,diamond
0.0,5.0,1.0,1.0,5.0,0.0,0.0,3.0,1.0,phase_2,stop,450.0,400.0,4.0,,,,,,,,,white,triangle
0.0,3.0,3.0,0.0,5.0,5.0,561.7282750008599,3.0,1.0,phase_2,go,500.0,400.0,1.0,,,,,,,,,magenta,circle
0.0,4.0,4.0,0.0,6.0,6.0,663.1667729998298,4.0,1.0,phase_2,go,500.0,400.0,1.0,,,,,,,,,gray,diamond
0.0,4.0,4.0,0.0,5.0,5.0,570.0650039998436,4.0,1.0,phase_2,go,500.0,400.0,1.0,,,,,,,,,gray,diamond
0.0,6.0,2.0,1.0,5.0,5.0,553.3639549994405,4.0,1.0,phase_2,stop,500.0,400.0,3.0,,,,,,,,,yellow,cross
0.0,3.0,3.0,0.0,6.0,6.0,356.6172039991215,4.0,1.0,phase_2,go,450.0,400.0,1.0,,,,,,,,,magenta,circle
0.0,6.0,2.0,1.0,6.0,6.0,578.79060400046,4.0,1.0,phase_2,go,450.0,400.0,1.0,,,,,,,,,yellow,cross
0.0,1.0,1.0,0.0,5.0,5.0,457.6082290004706,4.0,1.0,phase_2,go,450.0,400.0,1.0,,,,,,,,,green,I
0.0,4.0,4.0,0.0,5.0,5.0,757.3539300010452,4.0,1.0,phase_2,go,450.0,400.0,1.0,,,,,,,,,gray,diamond
0.0,5.0,1.0,1.0,6.0,6.0,627.1927270008746,4.0,1.0,phase_2,go,450.0,400.0,1.0,,,,,,,,,white,triangle
0.0,7.0,3.0,1.0,6.0,6.0,558.2081869997637,4.0,1.0,phase_2,stop,450.0,400.0,3.0,,,,,,,,,orange,flipped triangle
0.0,2.0,2.0,0.0,5.0,5.0,618.5234839995246,4.0,1.0,phase_2,go,450.0,350.0,1.0,,,,,,,,,cyan,hexagon
0.0,2.0,2.0,0.0,6.0,6.0,674.0997860015341,4.0,1.0,phase_2,go,450.0,350.0,1.0,,,,,,,,,cyan,hexagon
0.0,1.0,1.0,0.0,5.0,5.0,634.0058390014747,4.0,1.0,phase_2,go,450.0,350.0,1.0,,,,,,,,,green,I
0.0,1.0,1.0,0.0,6.0,6.0,431.0783599994465,4.0,1.0,phase_2,go,450.0,350.0,1.0,,,,,,,,,green,I
0.0,1.0,1.0,0.0,6.0,6.0,504.4888309985254,4.0,1.0,phase_2,go,450.0,350.0,1.0,,,,,,,,,green,I
0.0,6.0,2.0,1.0,5.0,5.0,580.3932340004394,4.0,1.0,phase_2,stop,450.0,350.0,3.0,,,,,,,,,yellow,cross
0.0,3.0,3.0,0.0,5.0,5.0,477.8169809997052,4.0,1.0,phase_2,go,400.0,350.0,1.0,,,,,,,,,magenta,circle
0.0,3.0,3.0,0.0,6.0,6.0,505.32332900002075,4.0,1.0,phase_2,go,400.0,350.0,1.0,,,,,,,,,magenta,circle
0.0,2.0,2.0,0.0,6.0,6.0,626.7826149996836,4.0,1.0,phase_2,go,400.0,350.0,1.0,,,,,,,,,cyan,hexagon
0.0,1.0,1.0,0.0,5.0,5.0,327.5772950000828,4.0,1.0,phase_2,go,400.0,350.0,1.0,,,,,,,,,green,I
0.0,6.0,2.0,1.0,5.0,5.0,593.4044119985629,4.0,1.0,phase_2,stop,400.0,350.0,3.0,,,,,,,,,yellow,cross
0.0,3.0,3.0,0.0,6.0,6.0,542.275427000277,4.0,1.0,phase_2,go,350.0,350.0,1.0,,,,,,,,,magenta,circle
0.0,3.0,3.0,0.0,5.0,5.0,309.6267729997635,4.0,1.0,phase_2,go,350.0,350.0,1.0,,,,,,,,,magenta,circle
0.0,5.0,1.0,1.0,5.0,0.0,0.0,4.0,1.0,phase_2,stop,350.0,350.0,4.0,,,,,,,,,white,triangle
0.0,5.0,1.0,1.0,5.0,0.0,0.0,4.0,1.0,phase_2,stop,400.0,350.0,4.0,,,,,,,,,white,triangle
0.0,7.0,3.0,1.0,5.0,0.0,0.0,4.0,1.0,phase_2,stop,450.0,350.0,4.0,,,,,,,,,orange,flipped triangle
0.0,3.0,3.0,0.0,5.0,5.0,664.0839039991988,4.0,1.0,phase_2,go,500.0,350.0,1.0,,,,,,,,,magenta,circle
0.0,7.0,3.0,1.0,6.0,0.0,0.0,4.0,1.0,phase_2,stop,500.0,350.0,4.0,,,,,,,,,orange,flipped triangle
0.0,7.0,3.0,1.0,6.0,0.0,0.0,4.0,1.0,phase_2,stop,500.0,400.0,4.0,,,,,,,,,orange,flipped triangle
0.0,7.0,3.0,1.0,5.0,5.0,682.833261000269,4.0,1.0,phase_2,go,500.0,450.0,1.0,,,,,,,,,orange,flipped triangle
0.0,6.0,2.0,1.0,6.0,0.0,0.0,4.0,1.0,phase_2,stop,500.0,450.0,4.0,,,,,,,,,yellow,cross
0.0,8.0,4.0,1.0,6.0,0.0,0.0,4.0,1.0,phase_2,stop,500.0,500.0,4.0,,,,,,,,,blue,square
0.0,2.0,2.0,0.0,6.0,6.0,796.3181849991088,4.0,1.0,phase_2,go,500.0,550.0,1.0,,,,,,,,,cyan,hexagon
0.0,6.0,2.0,1.0,6.0,6.0,730.6072060000588,4.0,1.0,phase_2,go,500.0,550.0,1.0,,,,,,,,,yellow,cross
0.0,2.0,2.0,0.0,6.0,6.0,636.0647099991183,4.0,1.0,phase_2,go,500.0,550.0,1.0,,,,,,,,,cyan,hexagon
0.0,2.0,2.0,0.0,6.0,6.0,392.9881940002815,4.0,1.0,phase_2,go,500.0,550.0,1.0,,,,,,,,,cyan,hexagon
0.0,7.0,3.0,1.0,6.0,6.0,681.1742600002617,4.0,1.0,phase_2,stop,500.0,550.0,3.0,,,,,,,,,orange,flipped triangle
0.0,1.0,1.0,0.0,5.0,5.0,422.2677950001525,5.0,1.0,phase_2,go,500.0,500.0,1.0,,,,,,,,,green,I
0.0,3.0,3.0,0.0,5.0,5.0,617.6234289996501,5.0,1.0,phase_2,go,500.0,500.0,1.0,,,,,,,,,magenta,circle
0.0,6.0,2.0,1.0,5.0,5.0,365.4133199997886,5.0,1.0,phase_2,stop,500.0,500.0,3.0,,,,,,,,,yellow,cross
0.0,2.0,2.0,0.0,5.0,5.0,582.0033740001236,5.0,1.0,phase_2,go,450.0,500.0,1.0,,,,,,,,,cyan,hexagon
0.0,2.0,2.0,0.0,6.0,6.0,364.5380190009746,5.0,1.0,phase_2,go,450.0,500.0,1.0,,,,,,,,,cyan,hexagon
0.0,3.0,3.0,0.0,6.0,6.0,708.0921180004225,5.0,1.0,phase_2,go,450.0,500.0,1.0,,,,,,,,,magenta,circle
0.0,6.0,2.0,1.0,5.0,5.0,594.6791039987147,5.0,1.0,phase_2,stop,450.0,500.0,3.0,,,,,,,,,yellow,cross
0.0,1.0,1.0,0.0,6.0,6.0,880.3386560011859,5.0,1.0,phase_2,go,400.0,500.0,1.0,,,,,,,,,green,I
0.0,3.0,3.0,0.0,6.0,6.0,691.7960209993907,5.0,1.0,phase_2,go,400.0,500.0,1.0,,,,,,,,,magenta,circle
0.0,8.0,4.0,1.0,5.0,0.0,0.0,5.0,1.0,phase_2,stop,400.0,500.0,4.0,,,,,,,,,blue,square
0.0,8.0,4.0,1.0,5.0,0.0,0.0,5.0,1.0,phase_2,stop,450.0,500.0,4.0,,,,,,,,,blue,square
0.0,8.0,4.0,1.0,5.0,0.0,0.0,5.0,1.0,phase_2,stop,500.0,500.0,4.0,,,,,,,,,blue,square
0.0,1.0,1.0,0.0,6.0,6.0,850.7493079996493,5.0,1.0,phase_2,go,550.0,500.0,1.0,,,,,,,,,green,I
0.0,3.0,3.0,0.0,5.0,5.0,617.1659250012453,5.0,1.0,phase_2,go,550.0,500.0,1.0,,,,,,,,,magenta,circle
0.0,1.0,1.0,0.0,6.0,6.0,626.8309400002181,5.0,1.0,phase_2,go,550.0,500.0,1.0,,,,,,,,,green,I
0.0,8.0,4.0,1.0,5.0,5.0,671.6454920006072,5.0,1.0,phase_2,stop,550.0,500.0,3.0,,,,,,,,,blue,square
0.0,1.0,1.0,0.0,5.0,5.0,721.4086809999571,5.0,1.0,phase_2,go,500.0,500.0,1.0,,,,,,,,,green,I
0.0,1.0,1.0,0.0,5.0,5.0,671.0230539993063,5.0,1.0,phase_2,go,500.0,500.0,1.0,,,,,,,,,green,I
0.0,7.0,3.0,1.0,6.0,6.0,691.122551999797,5.0,1.0,phase_2,stop,500.0,500.0,3.0,,,,,,,,,orange,flipped triangle
0.0,1.0,1.0,0.0,5.0,5.0,654.4734210001479,5.0,1.0,phase_2,go,500.0,450.0,1.0,,,,,,,,,green,I
0.0,1.0,1.0,0.0,6.0,6.0,616.8156679996173,5.0,1.0,phase_2,go,500.0,450.0,1.0,,,,,,,,,green,I
0.0,4.0,4.0,0.0,6.0,6.0,588.326839999354,5.0,1.0,phase_2,go,500.0,450.0,1.0,,,,,,,,,gray,diamond
0.0,6.0,2.0,1.0,6.0,6.0,719.8359239991987,5.0,1.0,phase_2,go,500.0,450.0,1.0,,,,,,,,,yellow,cross
0.0,2.0,2.0,0.0,5.0,5.0,675.2933819989266,5.0,1.0,phase_2,go,500.0,450.0,1.0,,,,,,,,,cyan,hexagon
0.0,4.0,4.0,0.0,5.0,5.0,738.367597999968,5.0,1.0,phase_2,go,500.0,450.0,1.0,,,,,,,,,gray,diamond
0.0,2.0,2.0,0.0,6.0,6.0,336.8112719999772,5.0,1.0,phase_2,go,500.0,450.0,1.0,,,,,,,,,cyan,hexagon
0.0,8.0,4.0,1.0,5.0,5.0,729.8684719989978,5.0,1.0,phase_2,go,500.0,450.0,1.0,,,,,,,,,blue,square
0.0,6.0,2.0,1.0,5.0,5.0,702.335824000329,5.0,1.0,phase_2,stop,500.0,450.0,3.0,,,,,,,,,yellow,cross
0.0,1.0,1.0,0.0,5.0,5.0,570.1783840013377,5.0,1.0,phase_2,go,450.0,450.0,1.0,,,,,,,,,green,I
0.0,4.0,4.0,0.0,5.0,5.0,726.070996000999,5.0,1.0,phase_2,go,450.0,450.0,1.0,,,,,,,,,gray,diamond
0.0,5.0,1.0,1.0,5.0,5.0,617.1916160001274,5.0,1.0,phase_2,stop,450.0,450.0,3.0,,,,,,,,,white,triangle
0.0,2.0,2.0,0.0,5.0,5.0,784.2446939994261,5.0,1.0,phase_2,go,400.0,450.0,1.0,,,,,,,,,cyan,hexagon
0.0,4.0,4.0,0.0,6.0,6.0,716.5594360012619,5.0,1.0,phase_2,go,400.0,450.0,1.0,,,,,,,,,gray,diamond
0.0,6.0,2.0,1.0,6.0,0.0,0.0,5.0,1.0,phase_2,stop,400.0,450.0,4.0,,,,,,,,,yellow,cross
0.0,8.0,4.0,1.0,6.0,0.0,0.0,5.0,1.0,phase_2,stop,400.0,500.0,4.0,,,,,,,,,blue,square
0.0,3.0,3.0,0.0,6.0,6.0,728.5808249998809,5.0,1.0,phase_2,go,400.0,550.0,1.0,,,,,,,,,magenta,circle
0.0,1.0,1.0,0.0,5.0,5.0,421.7529309989913,6.0,1.0,phase_2,go,400.0,550.0,1.0,,,,,,,,,green,I
0.0,7.0,3.0,1.0,5.0,5.0,430.9027060007793,6.0,1.0,phase_2,go,400.0,550.0,1.0,,,,,,,,,orange,flipped triangle
0.0,7.0,3.0,1.0,6.0,6.0,441.6989019991888,6.0,1.0,phase_2,stop,400.0,550.0,3.0,,,,,,,,,orange,flipped triangle
0.0,7.0,3.0,1.0,6.0,6.0,393.7037779996899,6.0,1.0,phase_2,stop,400.0,500.0,3.0,,,,,,,,,orange,flipped triangle
0.0,1.0,1.0,0.0,5.0,5.0,439.6775170007458,6.0,1.0,phase_2,go,400.0,450.0,1.0,,,,,,,,,green,I
0.0,4.0,4.0,0.0,5.0,5.0,574.0275620009925,6.0,1.0,phase_2,go,400.0,450.0,1.0,,,,,,,,,gray,diamond
0.0,3.0,3.0,0.0,5.0,5.0,561.450982999304,6.0,1.0,phase_2,go,400.0,450.0,1.0,,,,,,,,,magenta,circle
0.0,6.0,2.0,1.0,6.0,6.0,614.986926999336,6.0,1.0,phase_2,stop,400.0,450.0,3.0,,,,,,,,,yellow,cross
0.0,7.0,3.0,1.0,6.0,0.0,0.0,6.0,1.0,phase_2,stop,400.0,400.0,4.0,,,,,,,,,orange,flipped triangle
0.0,2.0,2.0,0.0,5.0,5.0,515.4831370000466,6.0,1.0,phase_2,go,400.0,450.0,1.0,,,,,,,,,cyan,hexagon
0.0,2.0,2.0,0.0,6.0,6.0,440.176367001186,6.0,1.0,phase_2,go,400.0,450.0,1.0,,,,,,,,,cyan,hexagon
0.0,8.0,4.0,1.0,5.0,5.0,431.3481240005785,6.0,1.0,phase_2,stop,400.0,450.0,3.0,,,,,,,,,blue,square
0.0,4.0,4.0,0.0,6.0,6.0,581.0390560000087,6.0,1.0,phase_2,go,350.0,450.0,1.0,,,,,,,,,gray,diamond
0.0,6.0,2.0,1.0,6.0,6.0,579.2371409988846,6.0,1.0,phase_2,stop,350.0,450.0,3.0,,,,,,,,,yellow,cross
0.0,3.0,3.0,0.0,5.0,5.0,449.5472449998487,6.0,1.0,phase_2,go,350.0,400.0,1.0,,,,,,,,,magenta,circle
0.0,2.0,2.0,0.0,5.0,5.0,404.0972919992782,6.0,1.0,phase_2,go,350.0,400.0,1.0,,,,,,,,,cyan,hexagon
0.0,8.0,4.0,1.0,5.0,5.0,365.2087849986856,6.0,1.0,phase_2,go,350.0,400.0,1.0,,,,,,,,,blue,square
0.0,3.0,3.0,0.0,6.0,6.0,462.7335120003408,6.0,1.0,phase_2,go,350.0,400.0,1.0,,,,,,,,,magenta,circle
0.0,7.0,3.0,1.0,6.0,6.0,384.656444999564,6.0,1.0,phase_2,stop,350.0,400.0,3.0,,,,,,,,,orange,flipped triangle
0.0,5.0,1.0,1.0,6.0,6.0,477.9446380016452,6.0,1.0,phase_2,go,350.0,350.0,1.0,,,,,,,,,white,triangle
0.0,8.0,4.0,1.0,5.0,5.0,514.8462850011128,6.0,1.0,phase_2,stop,350.0,350.0,3.0,,,,,,,,,blue,square
0.0,2.0,2.0,0.0,5.0,5.0,383.2768960000976,6.0,1.0,phase_2,go,300.0,350.0,1.0,,,,,,,,,cyan,hexagon
0.0,5.0,1.0,1.0,5.0,0.0,0.0,6.0,1.0,phase_2,stop,300.0,350.0,4.0,,,,,,,,,white,triangle
0.0,8.0,4.0,1.0,5.0,5.0,400.0215560008655,6.0,1.0,phase_2,stop,350.0,350.0,3.0,,,,,,,,,blue,square
0.0,3.0,3.0,0.0,6.0,6.0,355.7053189997532,6.0,1.0,phase_2,go,300.0,350.0,1.0,,,,,,,,,magenta,circle
0.0,7.0,3.0,1.0,6.0,0.0,0.0,6.0,1.0,phase_2,stop,300.0,350.0,4.0,,,,,,,,,orange,flipped triangle
0.0,5.0,1.0,1.0,5.0,0.0,0.0,6.0,1.0,phase_2,stop,300.0,400.0,4.0,,,,,,,,,white,triangle
0.0,3.0,3.0,0.0,5.0,5.0,618.0566379989614,6.0,1.0,phase_2,go,350.0,400.0,1.0,,,,,,,,,magenta,circle
0.0,2.0,2.0,0.0,6.0,6.0,365.5416430010518,6.0,1.0,phase_2,go,350.0,400.0,1.0,,,,,,,,,cyan,hexagon
0.0,1.0,1.0,0.0,6.0,6.0,347.3940969997784,6.0,1.0,phase_2,go,350.0,400.0,1.0,,,,,,,,,green,I
0.0,5.0,1.0,1.0,5.0,5.0,345.7535959987581,6.0,1.0,phase_2,go,350.0,400.0,1.0,,,,,,,,,white,triangle
0.0,7.0,3.0,1.0,5.0,5.0,498.8571249996312,6.0,1.0,phase_2,stop,350.0,400.0,3.0,,,,,,,,,orange,flipped triangle
0.0,5.0,1.0,1.0,6.0,6.0,458.3564010008558,6.0,1.0,phase_2,stop,300.0,400.0,3.0,,,,,,,,,white,triangle
0.0,2.0,2.0,0.0,5.0,5.0,374.592649999613,6.0,1.0,phase_2,go,300.0,350.0,1.0,,,,,,,,,cyan,hexagon
0.0,5.0,1.0,1.0,5.0,0.0,0.0,6.0,1.0,phase_2,stop,300.0,350.0,4.0,,,,,,,,,white,triangle
0.0,4.0,4.0,0.0,6.0,6.0,625.1097389995266,6.0,1.0,phase_2,go,350.0,350.0,1.0,,,,,,,,,gray,diamond
0.0,5.0,1.0,1.0,6.0,6.0,451.0661700005585,7.0,1.0,phase_2,stop,350.0,350.0,3.0,,,,,,,,,white,triangle
0.0,7.0,3.0,1.0,5.0,5.0,441.4007719988149,7.0,1.0,phase_2,stop,350.0,300.0,3.0,,,,,,,,,orange,flipped triangle
0.0,2.0,2.0,0.0,5.0,5.0,579.6128609999869,7.0,1.0,phase_2,go,300.0,300.0,1.0,,,,,,,,,cyan,hexagon
0.0,8.0,4.0,1.0,5.0,0.0,0.0,7.0,1.0,phase_2,stop,300.0,300.0,4.0,,,,,,,,,blue,square
0.0,6.0,2.0,1.0,5.0,0.0,0.0,7.0,1.0,phase_2,stop,350.0,300.0,4.0,,,,,,,,,yellow,cross
0.0,6.0,2.0,1.0,6.0,6.0,479.4016239993652,7.0,1.0,phase_2,stop,400.0,300.0,3.0,,,,,,,,,yellow,cross
0.0,2.0,2.0,0.0,5.0,5.0,514.1044000010879,7.0,1.0,phase_2,go,400.0,250.0,1.0,,,,,,,,,cyan,hexagon
0.0,2.0,2.0,0.0,6.0,6.0,662.174467001023,7.0,1.0,phase_2,go,400.0,250.0,1.0,,,,,,,,,cyan,hexagon
0.0,7.0,3.0,1.0,5.0,5.0,460.9537230007845,7.0,1.0,phase_2,stop,400.0,250.0,3.0,,,,,,,,,orange,flipped triangle
0.0,5.0,1.0,1.0,6.0,0.0,0.0,7.0,1.0,phase_2,stop,350.0,250.0,4.0,,,,,,,,,white,triangle
0.0,7.0,3.0,1.0,6.0,6.0,612.954076999813,7.0,1.0,phase_2,go,350.0,300.0,1.0,,,,,,,,,orange,flipped triangle
0.0,5.0,1.0,1.0,6.0,0.0,0.0,7.0,1.0,phase_2,stop,350.0,300.0,4.0,,,,,,,,,white,triangle
0.0,5.0,1.0,1.0,6.0,0.0,0.0,7.0,1.0,phase_2,stop,350.0,350.0,4.0,,,,,,,,,white,triangle
0.0,7.0,3.0,1.0,5.0,5.0,474.0672449988778,7.0,1.0,phase_2,stop,350.0,400.0,3.0,,,,,,,,,orange,flipped triangle
0.0,6.0,2.0,1.0,5.0,5.0,728.7284970007022,7.0,1.0,phase_2,go,300.0,400.0,1.0,,,,,,,,,yellow,cross
0.0,5.0,1.0,1.0,6.0,6.0,718.8450730009208,7.0,1.0,phase_2,go,300.0,400.0,1.0,,,,,,,,,white,triangle
0.0,6.0,2.0,1.0,6.0,0.0,0.0,7.0,1.0,phase_2,stop,300.0,400.0,4.0,,,,,,,,,yellow,cross
0.0,5.0,1.0,1.0,6.0,6.0,609.4608769999468,7.0,1.0,phase_2,stop,300.0,450.0,3.0,,,,,,,,,white,triangle
0.0,6.0,2.0,1.0,5.0,0.0,0.0,7.0,1.0,phase_2,stop,300.0,400.0,4.0,,,,,,,,,yellow,cross
0.0,4.0,4.0,0.0,5.0,5.0,560.737814001186,7.0,1.0,phase_2,go,350.0,400.0,1.0,,,,,,,,,gray,diamond
0.0,4.0,4.0,0.0,5.0,5.0,700.2935080017778,7.0,1.0,phase_2,go,350.0,400.0,1.0,,,,,,,,,gray,diamond
0.0,2.0,2.0,0.0,5.0,5.0,690.3462870031944,7.0,1.0,phase_2,go,350.0,400.0,1.0,,,,,,,,,cyan,hexagon
0.0,8.0,4.0,1.0,6.0,6.0,718.1341700015764,7.0,1.0,phase_2,go,350.0,400.0,1.0,,,,,,,,,blue,square
0.0,8.0,4.0,1.0,6.0,6.0,664.4552239995392,7.0,1.0,phase_2,go,350.0,400.0,1.0,,,,,,,,,blue,square
0.0,4.0,4.0,0.0,6.0,6.0,670.6231429998297,7.0,1.0,phase_2,go,350.0,400.0,1.0,,,,,,,,,gray,diamond
0.0,4.0,4.0,0.0,6.0,6.0,688.7872910010628,7.0,1.0,phase_2,go,350.0,400.0,1.0,,,,,,,,,gray,diamond
0.0,6.0,2.0,1.0,5.0,0.0,0.0,7.0,1.0,phase_2,stop,350.0,400.0,4.0,,,,,,,,,yellow,cross
0.0,5.0,1.0,1.0,5.0,5.0,578.8097579970781,7.0,1.0,phase_2,stop,400.0,400.0,3.0,,,,,,,,,white,triangle
0.0,2.0,2.0,0.0,5.0,5.0,628.9257919997908,7.0,1.0,phase_2,go,350.0,400.0,1.0,,,,,,,,,cyan,hexagon
0.0,4.0,4.0,0.0,5.0,5.0,819.8826320003718,7.0,1.0,phase_2,go,350.0,400.0,1.0,,,,,,,,,gray,diamond
0.0,5.0,1.0,1.0,6.0,6.0,290.2862529990671,7.0,1.0,phase_2,go,350.0,400.0,1.0,,,,,,,,,white,triangle
0.0,8.0,4.0,1.0,6.0,6.0,672.3154139981489,7.0,1.0,phase_2,go,350.0,400.0,1.0,,,,,,,,,blue,square
0.0,1.0,1.0,0.0,6.0,6.0,688.5432650014991,7.0,1.0,phase_2,go,350.0,400.0,1.0,,,,,,,,,green,I
0.0,8.0,4.0,1.0,6.0,0.0,0.0,7.0,1.0,phase_2,stop,350.0,400.0,4.0,,,,,,,,,blue,square
0.0,6.0,2.0,1.0,6.0,0.0,0.0,7.0,1.0,phase_2,stop,350.0,450.0,4.0,,,,,,,,,yellow,cross
0.0,2.0,2.0,0.0,5.0,5.0,671.1577330024738,7.0,1.0,phase_2,go,350.0,500.0,1.0,,,,,,,,,cyan,hexagon
0.0,5.0,1.0,1.0,5.0,5.0,523.1769080019149,8.0,1.0,phase_2,go,350.0,500.0,1.0,,,,,,,,,white,triangle
0.0,7.0,3.0,1.0,6.0,6.0,514.9023409976508,8.0,1.0,phase_2,go,350.0,500.0,1.0,,,,,,,,,orange,flipped triangle
0.0,4.0,4.0,0.0,6.0,6.0,552.0646160002798,8.0,1.0,phase_2,go,350.0,500.0,1.0,,,,,,,,,gray,diamond
0.0,4.0,4.0,0.0,6.0,6.0,403.120253002271,8.0,1.0,phase_2,go,350.0,500.0,1.0,,,,,,,,,gray,diamond
0.0,3.0,3.0,0.0,5.0,5.0,615.0584969982447,8.0,1.0,phase_2,go,350.0,500.0,1.0,,,,,,,,,magenta,circle
0.0,5.0,1.0,1.0,6.0,6.0,581.9713419987238,8.0,1.0,phase_2,stop,350.0,500.0,3.0,,,,,,,,,white,triangle
0.0,1.0,1.0,0.0,5.0,5.0,635.8448660030263,8.0,1.0,phase_2,go,350.0,450.0,1.0,,,,,,,,,green,I
0.0,3.0,3.0,0.0,5.0,5.0,505.4127689982124,8.0,1.0,phase_2,go,350.0,450.0,1.0,,,,,,,,,magenta,circle
0.0,7.0,3.0,1.0,6.0,6.0,616.79968700264,8.0,1.0,phase_2,stop,350.0,450.0,3.0,,,,,,,,,orange,flipped triangle
0.0,5.0,1.0,1.0,6.0,0.0,0.0,8.0,1.0,phase_2,stop,350.0,400.0,4.0,,,,,,,,,white,triangle
0.0,2.0,2.0,0.0,5.0,5.0,531.9902509982057,8.0,1.0,phase_2,go,350.0,450.0,1.0,,,,,,,,,cyan,hexagon
0.0,3.0,3.0,0.0,5.0,5.0,614.5690109988209,8.0,1.0,phase_2,go,350.0,450.0,1.0,,,,,,,,,magenta,circle
0.0,4.0,4.0,0.0,6.0,6.0,960.5156380021072,8.0,1.0,phase_2,go,350.0,450.0,1.0,,,,,,,,,gray,diamond
0.0,3.0,3.0,0.0,5.0,5.0,413.124342001538,8.0,1.0,phase_2,go,350.0,450.0,1.0,,,,,,,,,magenta,circle
0.0,8.0,4.0,1.0,5.0,0.0,0.0,8.0,1.0,phase_2,stop,350.0,450.0,4.0,,,,,,,,,blue,square
0.0,1.0,1.0,0.0,6.0,6.0,512.3590389994206,8.0,1.0,phase_2,go,400.0,450.0,1.0,,,,,,,,,green,I
0.0,7.0,3.0,1.0,5.0,0.0,0.0,8.0,1.0,phase_2,stop,400.0,450.0,4.0,,,,,,,,,orange,flipped triangle
0.0,2.0,2.0,0.0,6.0,6.0,626.1610589972406,8.0,1.0,phase_2,go,450.0,450.0,1.0,,,,,,,,,cyan,hexagon
0.0,7.0,3.0,1.0,5.0,5.0,611.1714879989449,8.0,1.0,phase_2,stop,450.0,450.0,3.0,,,,,,,,,orange,flipped triangle
0.0,7.0,3.0,1.0,5.0,5.0,453.3263710000028,8.0,1.0,phase_2,stop,400.0,450.0,3.0,,,,,,,,,orange,flipped triangle
0.0,3.0,3.0,0.0,6.0,6.0,521.8136760013294,8.0,1.0,phase_2,go,350.0,450.0,1.0,,,,,,,,,magenta,circle
0.0,5.0,1.0,1.0,6.0,6.0,580.4580930016527,8.0,1.0,phase_2,stop,350.0,450.0,3.0,,,,,,,,,white,triangle
0.0,1.0,1.0,0.0,5.0,5.0,645.9181579994038,8.0,1.0,phase_2,go,350.0,400.0,1.0,,,,,,,,,green,I
0.0,7.0,3.0,1.0,5.0,5.0,662.935099000606,8.0,1.0,phase_2,go,350.0,400.0,1.0,,,,,,,,,orange,flipped triangle
0.0,3.0,3.0,0.0,5.0,5.0,455.58662500116037,8.0,1.0,phase_2,go,350.0,400.0,1.0,,,,,,,,,magenta,circle
0.0,5.0,1.0,1.0,6.0,6.0,428.4565319976536,8.0,1.0,phase_2,go,350.0,400.0,1.0,,,,,,,,,white,triangle
0.0,4.0,4.0,0.0,6.0,6.0,496.9888129999162,8.0,1.0,phase_2,go,350.0,400.0,1.0,,,,,,,,,gray,diamond
0.0,4.0,4.0,0.0,6.0,6.0,522.4395880031807,8.0,1.0,phase_2,go,350.0,400.0,1.0,,,,,,,,,gray,diamond
0.0,6.0,2.0,1.0,6.0,0.0,0.0,8.0,1.0,phase_2,stop,350.0,400.0,4.0,,,,,,,,,yellow,cross
0.0,6.0,2.0,1.0,5.0,5.0,522.9583000000275,8.0,1.0,phase_2,stop,350.0,450.0,3.0,,,,,,,,,yellow,cross
0.0,3.0,3.0,0.0,5.0,5.0,493.7635339992994,8.0,1.0,phase_2,go,300.0,450.0,1.0,,,,,,,,,magenta,circle
0.0,3.0,3.0,0.0,6.0,6.0,345.4269579997344,8.0,1.0,phase_2,go,300.0,450.0,1.0,,,,,,,,,magenta,circle
0.0,1.0,1.0,0.0,5.0,5.0,569.9386289998074,8.0,1.0,phase_2,go,300.0,450.0,1.0,,,,,,,,,green,I
0.0,4.0,4.0,0.0,6.0,6.0,663.491012997838,8.0,1.0,phase_2,go,300.0,450.0,1.0,,,,,,,,,gray,diamond
0.0,8.0,4.0,1.0,6.0,6.0,595.8917460011435,8.0,1.0,phase_2,stop,300.0,450.0,3.0,,,,,,,,,blue,square
0.0,1.0,1.0,0.0,5.0,5.0,512.7206729994214,8.0,1.0,phase_2,go,300.0,400.0,1.0,,,,,,,,,green,I
0.0,2.0,2.0,0.0,7.0,6.0,1484.3317349987046,1.0,1.0,phase_3,,,,,960.0,5.0,192.0,384.0,576.0,768.0,1152.0,960.0,cyan,hexagon
0.0,1.0,1.0,0.0,7.0,4.0,2012.5113959984446,1.0,1.0,phase_3,,,,,135.0,1.0,270.0,540.0,810.0,135.0,675.0,405.0,green,I
0.0,2.0,2.0,0.0,7.0,5.0,1355.7451590022538,1.0,1.0,phase_3,,,,,924.0,6.0,616.0,462.0,154.0,770.0,924.0,308.0,cyan,hexagon
0.0,1.0,1.0,0.0,7.0,2.0,1083.8862830023572,1.0,1.0,phase_3,,,,,768.0,4.0,576.0,768.0,960.0,192.0,384.0,1152.0,green,I
0.0,5.0,1.0,1.0,7.0,6.0,724.2437250024523,1.0,1.0,phase_3,,,,,924.0,6.0,770.0,308.0,462.0,154.0,616.0,924.0,white,triangle
0.0,7.0,3.0,1.0,7.0,1.0,1355.4449200019008,1.0,1.0,phase_3,,,,,464.0,4.0,464.0,696.0,116.0,348.0,232.0,580.0,orange,flipped triangle
0.0,3.0,3.0,0.0,7.0,5.0,1140.730277998955,1.0,1.0,phase_3,,,,,348.0,3.0,232.0,580.0,696.0,116.0,348.0,464.0,magenta,circle
0.0,8.0,4.0,1.0,7.0,2.0,910.6968080013758,1.0,1.0,phase_3,,,,,696.0,6.0,116.0,696.0,580.0,464.0,232.0,348.0,blue,square
0.0,8.0,4.0,1.0,7.0,1.0,1278.0054569993808,1.0,1.0,phase_3,,,,,1152.0,6.0,1152.0,768.0,192.0,384.0,576.0,960.0,blue,square
0.0,5.0,1.0,1.0,7.0,1.0,1517.421781001758,1.0,1.0,phase_3,,,,,1038.0,6.0,1038.0,346.0,173.0,865.0,519.0,692.0,white,triangle
0.0,8.0,4.0,1.0,7.0,4.0,1306.9174230004137,1.0,1.0,phase_3,,,,,960.0,5.0,576.0,768.0,192.0,960.0,384.0,1152.0,blue,square
0.0,2.0,2.0,0.0,7.0,2.0,1138.462471000821,1.0,1.0,phase_3,,,,,540.0,4.0,135.0,540.0,405.0,270.0,810.0,675.0,cyan,hexagon
0.0,5.0,1.0,1.0,7.0,3.0,1630.4502279999724,1.0,1.0,phase_3,,,,,384.0,2.0,1152.0,192.0,384.0,960.0,768.0,576.0,white,triangle
0.0,6.0,2.0,1.0,7.0,5.0,886.8499189993599,1.0,1.0,phase_3,,,,,675.0,5.0,810.0,135.0,270.0,540.0,675.0,405.0,yellow,cross
0.0,4.0,4.0,0.0,7.0,5.0,1340.7671700006176,1.0,1.0,phase_3,,,,,270.0,2.0,405.0,810.0,540.0,135.0,270.0,675.0,gray,diamond
0.0,7.0,3.0,1.0,7.0,6.0,1490.882818998216,1.0,1.0,phase_3,,,,,462.0,3.0,924.0,154.0,770.0,616.0,308.0,462.0,orange,flipped triangle
0.0,6.0,2.0,1.0,7.0,2.0,1200.7063340024615,1.0,1.0,phase_3,,,,,464.0,4.0,116.0,464.0,696.0,232.0,580.0,348.0,yellow,cross
0.0,4.0,4.0,0.0,7.0,3.0,1406.9250729990015,1.0,1.0,phase_3,,,,,270.0,2.0,405.0,675.0,270.0,810.0,135.0,540.0,gray,diamond
0.0,7.0,3.0,1.0,7.0,5.0,749.6387679966574,1.0,1.0,phase_3,,,,,519.0,3.0,865.0,173.0,1038.0,346.0,519.0,692.0,orange,flipped triangle
0.0,6.0,2.0,1.0,7.0,2.0,1865.7433929984109,1.0,1.0,phase_3,,,,,346.0,2.0,692.0,346.0,173.0,865.0,519.0,1038.0,yellow,cross
0.0,5.0,1.0,1.0,7.0,3.0,1587.754510997911,2.0,1.0,phase_3,,,,,270.0,2.0,810.0,675.0,270.0,540.0,405.0,135.0,white,triangle
0.0,3.0,3.0,0.0,7.0,5.0,963.4345560007204,2.0,1.0,phase_3,,,,,346.0,2.0,865.0,519.0,173.0,1038.0,346.0,692.0,magenta,circle
0.0,1.0,1.0,0.0,7.0,5.0,1076.4218280019122,2.0,1.0,phase_3,,,,,770.0,5.0,462.0,924.0,616.0,308.0,770.0,154.0,green,I
0.0,6.0,2.0,1.0,7.0,2.0,1161.8521199998213,2.0,1.0,phase_3,,,,,540.0,4.0,675.0,540.0,135.0,810.0,405.0,270.0,yellow,cross
0.0,4.0,4.0,0.0,7.0,3.0,1150.482519002253,2.0,1.0,phase_3,,,,,519.0,3.0,692.0,173.0,519.0,346.0,1038.0,865.0,gray,diamond
0.0,8.0,4.0,1.0,7.0,6.0,463.3352009986993,2.0,1.0,phase_3,,,,,116.0,1.0,580.0,348.0,232.0,696.0,464.0,116.0,blue,square
0.0,2.0,2.0,0.0,7.0,5.0,565.4168369983381,2.0,1.0,phase_3,,,,,464.0,4.0,580.0,116.0,696.0,348.0,464.0,232.0,cyan,hexagon
0.0,3.0,3.0,0.0,7.0,1.0,1009.8019600009138,2.0,1.0,phase_3,,,,,519.0,3.0,519.0,346.0,173.0,1038.0,865.0,692.0,magenta,circle
0.0,7.0,3.0,1.0,7.0,2.0,1054.9302360013826,2.0,1.0,phase_3,,,,,346.0,2.0,519.0,346.0,692.0,173.0,1038.0,865.0,orange,flipped triangle
0.0,2.0,2.0,0.0,7.0,6.0,713.9463009989413,2.0,1.0,phase_3,,,,,464.0,4.0,116.0,348.0,580.0,696.0,232.0,464.0,cyan,hexagon
0.0,8.0,4.0,1.0,7.0,4.0,1919.7799729990948,2.0,1.0,phase_3,,,,,770.0,5.0,462.0,308.0,616.0,770.0,154.0,924.0,blue,square
0.0,8.0,4.0,1.0,7.0,4.0,1575.4066119989147,2.0,1.0,phase_3,,,,,1038.0,6.0,865.0,346.0,519.0,1038.0,692.0,173.0,blue,square
0.0,1.0,1.0,0.0,7.0,2.0,1259.92100700023,2.0,1.0,phase_3,,,,,692.0,4.0,1038.0,692.0,519.0,173.0,346.0,865.0,green,I
0.0,4.0,4.0,0.0,7.0,2.0,1252.0197189987812,2.0,1.0,phase_3,,,,,232.0,2.0,464.0,232.0,116.0,580.0,696.0,348.0,gray,diamond
0.0,6.0,2.0,1.0,7.0,5.0,1176.6013170017686,2.0,1.0,phase_3,,,,,462.0,3.0,770.0,616.0,924.0,308.0,462.0,154.0,yellow,cross
0.0,6.0,2.0,1.0,7.0,6.0,815.3140639988123,2.0,1.0,phase_3,,,,,580.0,5.0,696.0,464.0,348.0,232.0,116.0,580.0,yellow,cross
0.0,7.0,3.0,1.0,7.0,6.0,1793.2141329984006,2.0,1.0,phase_3,,,,,384.0,2.0,768.0,1152.0,192.0,960.0,576.0,384.0,orange,flipped triangle
0.0,5.0,1.0,1.0,7.0,2.0,888.2350169988058,2.0,1.0,phase_3,,,,,1152.0,6.0,192.0,1152.0,384.0,768.0,960.0,576.0,white,triangle
0.0,7.0,3.0,1.0,7.0,4.0,944.4879369984848,2.0,1.0,phase_3,,,,,696.0,6.0,580.0,232.0,116.0,696.0,464.0,348.0,orange,flipped triangle
0.0,6.0,2.0,1.0,7.0,2.0,1712.52641799947,2.0,1.0,phase_3,,,,,462.0,3.0,924.0,462.0,616.0,154.0,308.0,770.0,yellow,cross
0.0,1.0,1.0,0.0,7.0,6.0,474.7046400007093,3.0,1.0,phase_3,,,,,348.0,3.0,232.0,116.0,464.0,580.0,696.0,348.0,green,I
0.0,7.0,3.0,1.0,7.0,4.0,1066.4682240021648,3.0,1.0,phase_3,,,,,192.0,1.0,768.0,576.0,1152.0,192.0,960.0,384.0,orange,flipped triangle
0.0,7.0,3.0,1.0,7.0,6.0,888.7405579989718,3.0,1.0,phase_3,,,,,675.0,5.0,135.0,540.0,405.0,270.0,810.0,675.0,orange,flipped triangle
0.0,5.0,1.0,1.0,7.0,6.0,980.8393349994732,3.0,1.0,phase_3,,,,,696.0,6.0,464.0,116.0,348.0,580.0,232.0,696.0,white,triangle
0.0,1.0,1.0,0.0,7.0,6.0,793.8562439994712,3.0,1.0,phase_3,,,,,675.0,5.0,405.0,810.0,135.0,540.0,270.0,675.0,green,I
0.0,5.0,1.0,1.0,7.0,6.0,899.346752998099,3.0,1.0,phase_3,,,,,616.0,4.0,154.0,924.0,308.0,462.0,770.0,616.0,white,triangle
0.0,1.0,1.0,0.0,7.0,3.0,1405.8853999995335,3.0,1.0,phase_3,,,,,960.0,5.0,768.0,1152.0,960.0,384.0,576.0,192.0,green,I
0.0,8.0,4.0,1.0,7.0,5.0,833.8155220008048,3.0,1.0,phase_3,,,,,810.0,6.0,270.0,540.0,135.0,675.0,810.0,405.0,blue,square
0.0,2.0,2.0,0.0,7.0,5.0,787.6435669968487,3.0,1.0,phase_3,,,,,462.0,3.0,154.0,924.0,770.0,308.0,462.0,616.0,cyan,hexagon
0.0,3.0,3.0,0.0,7.0,4.0,813.7692950003839,3.0,1.0,phase_3,,,,,576.0,3.0,960.0,768.0,192.0,576.0,384.0,1152.0,magenta,circle
0.0,3.0,3.0,0.0,7.0,5.0,1276.9023129985726,3.0,1.0,phase_3,,,,,540.0,4.0,675.0,810.0,405.0,270.0,540.0,135.0,magenta,circle
0.0,3.0,3.0,0.0,7.0,4.0,1470.6928129999142,3.0,1.0,phase_3,,,,,576.0,3.0,192.0,960.0,384.0,576.0,1152.0,768.0,magenta,circle
0.0,4.0,4.0,0.0,7.0,2.0,1713.0819890007842,3.0,1.0,phase_3,,,,,384.0,2.0,1152.0,384.0,960.0,576.0,768.0,192.0,gray,diamond
0.0,3.0,3.0,0.0,7.0,5.0,2355.157795998821,3.0,1.0,phase_3,,,,,924.0,6.0,616.0,154.0,770.0,462.0,924.0,308.0,magenta,circle
0.0,4.0,4.0,0.0,7.0,2.0,1350.4400279998665,3.0,1.0,phase_3,,,,,232.0,2.0,464.0,232.0,580.0,696.0,348.0,116.0,gray,diamond
0.0,6.0,2.0,1.0,7.0,6.0,999.2483239984722,3.0,1.0,phase_3,,,,,346.0,2.0,865.0,692.0,519.0,1038.0,173.0,346.0,yellow,cross
0.0,6.0,2.0,1.0,7.0,2.0,1358.1424250005512,3.0,1.0,phase_3,,,,,192.0,1.0,960.0,192.0,576.0,384.0,768.0,1152.0,yellow,cross
0.0,5.0,1.0,1.0,7.0,5.0,853.5651009988214,3.0,1.0,phase_3,,,,,270.0,2.0,405.0,135.0,810.0,540.0,270.0,675.0,white,triangle
0.0,4.0,4.0,0.0,7.0,3.0,1435.3269439998255,3.0,1.0,phase_3,,,,,384.0,2.0,576.0,1152.0,384.0,768.0,192.0,960.0,gray,diamond
0.0,4.0,4.0,0.0,7.0,1.0,2049.140103001264,3.0,1.0,phase_3,,,,,346.0,2.0,346.0,865.0,519.0,173.0,1038.0,692.0,gray,diamond
0.0,2.0,2.0,0.0,7.0,6.0,2355.6388309989416,4.0,1.0,phase_3,,,,,519.0,3.0,865.0,346.0,1038.0,692.0,173.0,519.0,cyan,hexagon
0.0,8.0,4.0,1.0,7.0,2.0,958.936081999127,4.0,1.0,phase_3,,,,,1038.0,6.0,692.0,1038.0,346.0,519.0,173.0,865.0,blue,square
0.0,7.0,3.0,1.0,7.0,2.0,1036.7790130003414,4.0,1.0,phase_3,,,,,924.0,6.0,462.0,924.0,770.0,154.0,308.0,616.0,orange,flipped triangle
0.0,3.0,3.0,0.0,7.0,5.0,1919.6386959993104,4.0,1.0,phase_3,,,,,540.0,4.0,135.0,270.0,675.0,405.0,540.0,810.0,magenta,circle
0.0,2.0,2.0,0.0,7.0,6.0,777.1728179977799,4.0,1.0,phase_3,,,,,865.0,5.0,173.0,519.0,692.0,346.0,1038.0,865.0,cyan,hexagon
0.0,3.0,3.0,0.0,7.0,6.0,814.9953309984994,4.0,1.0,phase_3,,,,,924.0,6.0,462.0,308.0,616.0,154.0,770.0,924.0,magenta,circle
0.0,2.0,2.0,0.0,7.0,6.0,1278.2920619974902,4.0,1.0,phase_3,,,,,810.0,6.0,540.0,405.0,270.0,135.0,675.0,810.0,cyan,hexagon
0.0,8.0,4.0,1.0,7.0,2.0,1176.5085730003193,4.0,1.0,phase_3,,,,,810.0,6.0,675.0,810.0,405.0,540.0,270.0,135.0,blue,square
0.0,4.0,4.0,0.0,7.0,4.0,1644.1063890015355,4.0,1.0,phase_3,,,,,462.0,3.0,770.0,308.0,154.0,462.0,616.0,924.0,gray,diamond
0.0,1.0,1.0,0.0,7.0,6.0,1002.7818030030176,4.0,1.0,phase_3,,,,,580.0,5.0,116.0,696.0,348.0,232.0,464.0,580.0,green,I
0.0,5.0,1.0,1.0,7.0,6.0,1232.2463740019884,4.0,1.0,phase_3,,,,,696.0,6.0,116.0,232.0,348.0,580.0,464.0,696.0,white,triangle
0.0,6.0,2.0,1.0,7.0,4.0,1193.93132100231,4.0,1.0,phase_3,,,,,384.0,2.0,576.0,192.0,768.0,384.0,1152.0,960.0,yellow,cross
0.0,3.0,3.0,0.0,7.0,6.0,943.9212540019072,4.0,1.0,phase_3,,,,,580.0,5.0,116.0,348.0,696.0,464.0,232.0,580.0,magenta,circle
0.0,5.0,1.0,1.0,7.0,2.0,2036.8274919965188,4.0,1.0,phase_3,,,,,865.0,5.0,346.0,865.0,692.0,1038.0,519.0,173.0,white,triangle
0.0,7.0,3.0,1.0,7.0,6.0,1056.31550399994,4.0,1.0,phase_3,,,,,540.0,4.0,675.0,135.0,810.0,270.0,405.0,540.0,orange,flipped triangle
0.0,1.0,1.0,0.0,7.0,5.0,1165.9482200011553,4.0,1.0,phase_3,,,,,770.0,5.0,924.0,308.0,154.0,616.0,770.0,462.0,green,I
0.0,2.0,2.0,0.0,7.0,6.0,565.8473719995527,4.0,1.0,phase_3,,,,,768.0,4.0,576.0,384.0,960.0,1152.0,192.0,768.0,cyan,hexagon
0.0,8.0,4.0,1.0,7.0,5.0,1055.199664999236,4.0,1.0,phase_3,,,,,770.0,5.0,616.0,924.0,308.0,462.0,770.0,154.0,blue,square
0.0,4.0,4.0,0.0,7.0,1.0,789.2398799995135,4.0,1.0,phase_3,,,,,924.0,6.0,924.0,308.0,462.0,616.0,154.0,770.0,gray,diamond
0.0,1.0,1.0,0.0,7.0,1.0,1327.7199730000575,4.0,1.0,phase_3,,,,,865.0,5.0,865.0,346.0,1038.0,519.0,692.0,173.0,green,I
