raw_reward_magnitude,stim_reward,stepwise_reward_magnitude,paired_with_stopping,quadrant,response,reaction_time,block,num_trial_presentations,which_part,stop_signal_trial_type,left_SSD,right_SSD,accuracy,chosen_bidding_amount,chosen_bidding_level,possible_bid_1,possible_bid_2,possible_bid_3,possible_bid_4,possible_bid_5,possible_bid_6,color_text,shape_text
143.0,1.0,1.0,0.0,4.0,4.0,519.3793110083789,1.0,1.0,part_1,,,,,,,,,,,,,orange,diamond
346.0,6.0,2.0,1.0,3.0,3.0,521.3083369890228,1.0,1.0,part_1,,,,,,,,,,,,,cyan,I
142.0,5.0,1.0,1.0,1.0,1.0,429.5283480023499,1.0,1.0,part_1,,,,,,,,,,,,,green,flipped triangle
1319.0,8.0,4.0,1.0,2.0,2.0,458.1088240083772,1.0,1.0,part_1,,,,,,,,,,,,,yellow,square
160.0,1.0,1.0,0.0,2.0,2.0,438.1851840007584,1.0,1.0,part_1,,,,,,,,,,,,,orange,diamond
311.0,2.0,2.0,0.0,3.0,3.0,326.2073240039171,1.0,1.0,part_1,,,,,,,,,,,,,blue,cross
350.0,2.0,2.0,0.0,3.0,3.0,464.3503450060962,1.0,1.0,part_1,,,,,,,,,,,,,blue,cross
1292.0,8.0,4.0,1.0,4.0,4.0,455.8920999988913,1.0,1.0,part_1,,,,,,,,,,,,,yellow,square
336.0,2.0,2.0,0.0,2.0,2.0,345.2239319885848,1.0,1.0,part_1,,,,,,,,,,,,,blue,cross
1294.0,8.0,4.0,1.0,2.0,2.0,418.5029369982658,1.0,1.0,part_1,,,,,,,,,,,,,yellow,square
631.0,7.0,3.0,1.0,1.0,1.0,482.8965979977511,1.0,1.0,part_1,,,,,,,,,,,,,magenta,hexagon
149.0,5.0,1.0,1.0,3.0,3.0,373.0633140075952,1.0,1.0,part_1,,,,,,,,,,,,,green,flipped triangle
159.0,5.0,1.0,1.0,3.0,3.0,428.4904849919257,1.0,1.0,part_1,,,,,,,,,,,,,green,flipped triangle
1314.0,4.0,4.0,0.0,2.0,2.0,482.4757609894732,1.0,1.0,part_1,,,,,,,,,,,,,gray,circle
659.0,3.0,3.0,0.0,3.0,3.0,344.3747580022318,1.0,1.0,part_1,,,,,,,,,,,,,white,triangle
159.0,1.0,1.0,0.0,3.0,3.0,353.6719279945828,1.0,1.0,part_1,,,,,,,,,,,,,orange,diamond
0.0,2.0,0.0,0.0,1.0,1.0,501.8655620078789,1.0,1.0,part_1,,,,,,,,,,,,,blue,cross
155.0,1.0,1.0,0.0,1.0,1.0,436.4406530075939,1.0,1.0,part_1,,,,,,,,,,,,,orange,diamond
172.0,1.0,1.0,0.0,2.0,2.0,416.7341400025179,1.0,1.0,part_1,,,,,,,,,,,,,orange,diamond
1280.0,8.0,4.0,1.0,2.0,2.0,399.3015989981359,1.0,1.0,part_1,,,,,,,,,,,,,yellow,square
331.0,2.0,2.0,0.0,3.0,3.0,335.1400149986148,1.0,1.0,part_1,,,,,,,,,,,,,blue,cross
626.0,7.0,3.0,1.0,2.0,2.0,289.3573600013042,1.0,1.0,part_1,,,,,,,,,,,,,magenta,hexagon
629.0,3.0,3.0,0.0,1.0,1.0,519.0235079935519,1.0,1.0,part_1,,,,,,,,,,,,,white,triangle
641.0,7.0,3.0,1.0,1.0,1.0,437.0655730017461,1.0,1.0,part_1,,,,,,,,,,,,,magenta,hexagon
638.0,3.0,3.0,0.0,3.0,3.0,380.3861449996475,1.0,1.0,part_1,,,,,,,,,,,,,white,triangle
305.0,6.0,2.0,1.0,3.0,3.0,390.3978439921047,1.0,1.0,part_1,,,,,,,,,,,,,cyan,I
0.0,6.0,0.0,1.0,1.0,1.0,529.4902749883477,1.0,1.0,part_1,,,,,,,,,,,,,cyan,I
659.0,3.0,3.0,0.0,1.0,1.0,436.9811229989864,1.0,1.0,part_1,,,,,,,,,,,,,white,triangle
142.0,1.0,1.0,0.0,2.0,2.0,389.628465010901,1.0,1.0,part_1,,,,,,,,,,,,,orange,diamond
154.0,1.0,1.0,0.0,2.0,2.0,344.1467319935327,1.0,1.0,part_1,,,,,,,,,,,,,orange,diamond
0.0,1.0,0.0,0.0,2.0,2.0,296.7278140131384,1.0,1.0,part_1,,,,,,,,,,,,,orange,diamond
166.0,1.0,1.0,0.0,2.0,2.0,342.2734019986819,1.0,1.0,part_1,,,,,,,,,,,,,orange,diamond
663.0,7.0,3.0,1.0,4.0,4.0,455.386745990836,1.0,1.0,part_1,,,,,,,,,,,,,magenta,hexagon
346.0,2.0,2.0,0.0,3.0,3.0,372.3341610020725,1.0,1.0,part_1,,,,,,,,,,,,,blue,cross
0.0,4.0,0.0,0.0,1.0,1.0,537.8589309984818,1.0,1.0,part_1,,,,,,,,,,,,,gray,circle
649.0,7.0,3.0,1.0,4.0,4.0,399.0738459979184,1.0,1.0,part_1,,,,,,,,,,,,,magenta,hexagon
331.0,6.0,2.0,1.0,2.0,2.0,352.4479070038069,1.0,1.0,part_1,,,,,,,,,,,,,cyan,I
347.0,2.0,2.0,0.0,2.0,2.0,362.4923109891824,1.0,1.0,part_1,,,,,,,,,,,,,blue,cross
149.0,5.0,1.0,1.0,3.0,3.0,316.6658570116851,1.0,1.0,part_1,,,,,,,,,,,,,green,flipped triangle
155.0,5.0,1.0,1.0,2.0,2.0,343.2171160093276,1.0,1.0,part_1,,,,,,,,,,,,,green,flipped triangle
1300.0,8.0,4.0,1.0,2.0,2.0,343.2752249937039,1.0,1.0,part_1,,,,,,,,,,,,,yellow,square
1314.0,8.0,4.0,1.0,1.0,1.0,380.2294280030764,1.0,1.0,part_1,,,,,,,,,,,,,yellow,square
171.0,1.0,1.0,0.0,3.0,3.0,417.4144139979034,1.0,1.0,part_1,,,,,,,,,,,,,orange,diamond
1295.0,8.0,4.0,1.0,4.0,4.0,436.2417230004212,1.0,1.0,part_1,,,,,,,,,,,,,yellow,square
157.0,5.0,1.0,1.0,1.0,1.0,362.1659950003959,1.0,1.0,part_1,,,,,,,,,,,,,green,flipped triangle
347.0,6.0,2.0,1.0,2.0,2.0,316.3531339960173,1.0,1.0,part_1,,,,,,,,,,,,,cyan,I
320.0,2.0,2.0,0.0,1.0,1.0,371.6345980064943,1.0,1.0,part_1,,,,,,,,,,,,,blue,cross
663.0,3.0,3.0,0.0,3.0,3.0,352.1614460041746,1.0,1.0,part_1,,,,,,,,,,,,,white,triangle
667.0,3.0,3.0,0.0,2.0,2.0,353.0963009980041,1.0,1.0,part_1,,,,,,,,,,,,,white,triangle
664.0,7.0,3.0,1.0,2.0,2.0,342.9241670091869,1.0,1.0,part_1,,,,,,,,,,,,,magenta,hexagon
641.0,3.0,3.0,0.0,3.0,3.0,316.8171290017199,1.0,1.0,part_1,,,,,,,,,,,,,white,triangle
0.0,5.0,0.0,1.0,3.0,3.0,324.21564499964,1.0,2.0,part_1,,,,,,,,,,,,,green,flipped triangle
1283.0,8.0,4.0,1.0,4.0,4.0,586.7156780004734,1.0,1.0,part_1,,,,,,,,,,,,,yellow,square
1314.0,8.0,4.0,1.0,3.0,3.0,352.8740829933667,1.0,1.0,part_1,,,,,,,,,,,,,yellow,square
340.0,6.0,2.0,1.0,4.0,4.0,430.5677430093055,1.0,1.0,part_1,,,,,,,,,,,,,cyan,I
326.0,2.0,2.0,0.0,3.0,3.0,380.8357090019854,1.0,1.0,part_1,,,,,,,,,,,,,blue,cross
630.0,7.0,3.0,1.0,2.0,2.0,391.2104230112163,1.0,1.0,part_1,,,,,,,,,,,,,magenta,hexagon
166.0,1.0,1.0,0.0,3.0,3.0,305.913247007993,1.0,1.0,part_1,,,,,,,,,,,,,orange,diamond
319.0,2.0,2.0,0.0,2.0,2.0,426.6855850000866,1.0,2.0,part_1,,,,,,,,,,,,,blue,cross
644.0,3.0,3.0,0.0,2.0,2.0,603.0231299955631,1.0,1.0,part_1,,,,,,,,,,,,,white,triangle
0.0,7.0,0.0,1.0,4.0,4.0,427.7843559975736,1.0,1.0,part_1,,,,,,,,,,,,,magenta,hexagon
0.0,2.0,0.0,0.0,4.0,4.0,456.6062249941751,1.0,1.0,part_1,,,,,,,,,,,,,blue,cross
652.0,7.0,3.0,1.0,1.0,1.0,614.4553240010282,1.0,2.0,part_1,,,,,,,,,,,,,magenta,hexagon
0.0,1.0,0.0,0.0,4.0,4.0,474.7304909978993,1.0,1.0,part_1,,,,,,,,,,,,,orange,diamond
158.0,1.0,1.0,0.0,4.0,4.0,446.5644429874373,1.0,1.0,part_1,,,,,,,,,,,,,orange,diamond
0.0,5.0,0.0,1.0,2.0,2.0,399.6392720000585,1.0,1.0,part_1,,,,,,,,,,,,,green,flipped triangle
328.0,2.0,2.0,0.0,1.0,1.0,472.9316589946393,1.0,1.0,part_1,,,,,,,,,,,,,blue,cross
1301.0,4.0,4.0,0.0,3.0,3.0,372.7878749923548,1.0,1.0,part_1,,,,,,,,,,,,,gray,circle
138.0,5.0,1.0,1.0,2.0,2.0,391.0171699972125,1.0,1.0,part_1,,,,,,,,,,,,,green,flipped triangle
0.0,3.0,0.0,0.0,1.0,1.0,483.0488839943427,1.0,1.0,part_1,,,,,,,,,,,,,white,triangle
166.0,5.0,1.0,1.0,4.0,4.0,426.4981269952841,1.0,1.0,part_1,,,,,,,,,,,,,green,flipped triangle
645.0,7.0,3.0,1.0,3.0,3.0,389.8689869965892,1.0,1.0,part_1,,,,,,,,,,,,,magenta,hexagon
0.0,6.0,0.0,1.0,1.0,1.0,464.1062430018792,1.0,1.0,part_1,,,,,,,,,,,,,cyan,I
1315.0,4.0,4.0,0.0,1.0,1.0,473.7356880068546,1.0,1.0,part_1,,,,,,,,,,,,,gray,circle
1286.0,8.0,4.0,1.0,4.0,4.0,435.937043002923,1.0,1.0,part_1,,,,,,,,,,,,,yellow,square
669.0,7.0,3.0,1.0,4.0,4.0,473.1248850002885,1.0,1.0,part_1,,,,,,,,,,,,,magenta,hexagon
143.0,1.0,1.0,0.0,1.0,1.0,426.6928249999182,1.0,1.0,part_1,,,,,,,,,,,,,orange,diamond
340.0,6.0,2.0,1.0,3.0,3.0,353.0440629983786,1.0,1.0,part_1,,,,,,,,,,,,,cyan,I
0.0,7.0,0.0,1.0,4.0,4.0,408.9926060114521,1.0,1.0,part_1,,,,,,,,,,,,,magenta,hexagon
1315.0,8.0,4.0,1.0,1.0,1.0,547.4249180115294,1.0,1.0,part_1,,,,,,,,,,,,,yellow,square
317.0,6.0,2.0,1.0,4.0,4.0,511.42459800757933,1.0,1.0,part_1,,,,,,,,,,,,,cyan,I
645.0,3.0,3.0,0.0,4.0,4.0,465.0398520025192,1.0,1.0,part_1,,,,,,,,,,,,,white,triangle
1292.0,8.0,4.0,1.0,1.0,1.0,511.75146699824836,1.0,1.0,part_1,,,,,,,,,,,,,yellow,square
152.0,5.0,1.0,1.0,4.0,4.0,390.2464150014566,1.0,1.0,part_1,,,,,,,,,,,,,green,flipped triangle
1324.0,4.0,4.0,0.0,4.0,4.0,511.60435599740595,1.0,1.0,part_1,,,,,,,,,,,,,gray,circle
155.0,1.0,1.0,0.0,1.0,1.0,611.6400390019407,1.0,1.0,part_1,,,,,,,,,,,,,orange,diamond
184.0,1.0,1.0,0.0,4.0,4.0,362.3022020037751,1.0,1.0,part_1,,,,,,,,,,,,,orange,diamond
0.0,6.0,0.0,1.0,4.0,4.0,381.7618100001709,1.0,1.0,part_1,,,,,,,,,,,,,cyan,I
1300.0,4.0,4.0,0.0,1.0,1.0,399.6031060087261,1.0,1.0,part_1,,,,,,,,,,,,,gray,circle
0.0,4.0,0.0,0.0,4.0,4.0,381.5356599952793,1.0,1.0,part_1,,,,,,,,,,,,,gray,circle
1321.0,4.0,4.0,0.0,4.0,4.0,446.1519039905397,1.0,1.0,part_1,,,,,,,,,,,,,gray,circle
1292.0,4.0,4.0,0.0,4.0,4.0,510.9193399985088,1.0,1.0,part_1,,,,,,,,,,,,,gray,circle
324.0,6.0,2.0,1.0,2.0,2.0,567.5671140052145,1.0,1.0,part_1,,,,,,,,,,,,,cyan,I
1297.0,8.0,4.0,1.0,2.0,2.0,399.8716499918373,1.0,1.0,part_1,,,,,,,,,,,,,yellow,square
328.0,6.0,2.0,1.0,1.0,1.0,585.3778909950051,1.0,1.0,part_1,,,,,,,,,,,,,cyan,I
1302.0,4.0,4.0,0.0,1.0,1.0,446.4929169917013,1.0,1.0,part_1,,,,,,,,,,,,,gray,circle
670.0,7.0,3.0,1.0,2.0,2.0,466.0448289941996,1.0,1.0,part_1,,,,,,,,,,,,,magenta,hexagon
335.0,6.0,2.0,1.0,3.0,3.0,338.6880990001373,1.0,1.0,part_1,,,,,,,,,,,,,cyan,I
1286.0,4.0,4.0,0.0,4.0,4.0,586.4303459966322,1.0,1.0,part_1,,,,,,,,,,,,,gray,circle
0.0,2.0,0.0,0.0,4.0,4.0,726.5885560045717,1.0,1.0,part_1,,,,,,,,,,,,,blue,cross
0.0,6.0,0.0,1.0,4.0,4.0,439.3749619921436,2.0,1.0,part_1,,,,,,,,,,,,,cyan,I
302.0,6.0,2.0,1.0,1.0,1.0,457.0178230060264,2.0,1.0,part_1,,,,,,,,,,,,,cyan,I
672.0,7.0,3.0,1.0,2.0,2.0,575.8457900083158,2.0,1.0,part_1,,,,,,,,,,,,,magenta,hexagon
1299.0,8.0,4.0,1.0,4.0,4.0,513.0527480068849,2.0,1.0,part_1,,,,,,,,,,,,,yellow,square
1297.0,4.0,4.0,0.0,3.0,3.0,401.4838029979728,2.0,1.0,part_1,,,,,,,,,,,,,gray,circle
0.0,7.0,0.0,1.0,1.0,1.0,410.594339002273,2.0,1.0,part_1,,,,,,,,,,,,,magenta,hexagon
186.0,5.0,1.0,1.0,3.0,3.0,345.4983309929957,2.0,1.0,part_1,,,,,,,,,,,,,green,flipped triangle
165.0,5.0,1.0,1.0,2.0,2.0,363.3141499885823,2.0,1.0,part_1,,,,,,,,,,,,,green,flipped triangle
335.0,2.0,2.0,0.0,4.0,4.0,401.496873004362,2.0,1.0,part_1,,,,,,,,,,,,,blue,cross
628.0,3.0,3.0,0.0,4.0,4.0,465.5809600080829,2.0,1.0,part_1,,,,,,,,,,,,,white,triangle
328.0,6.0,2.0,1.0,4.0,4.0,428.4770219965139,2.0,1.0,part_1,,,,,,,,,,,,,cyan,I
0.0,2.0,0.0,0.0,3.0,3.0,418.9845889923163,2.0,1.0,part_1,,,,,,,,,,,,,blue,cross
645.0,3.0,3.0,0.0,1.0,1.0,353.9636899949983,2.0,1.0,part_1,,,,,,,,,,,,,white,triangle
1306.0,4.0,4.0,0.0,3.0,3.0,318.2515600055922,2.0,1.0,part_1,,,,,,,,,,,,,gray,circle
338.0,6.0,2.0,1.0,2.0,2.0,374.2103020049399,2.0,1.0,part_1,,,,,,,,,,,,,cyan,I
0.0,2.0,0.0,0.0,2.0,2.0,669.4327230070485,2.0,1.0,part_1,,,,,,,,,,,,,blue,cross
1284.0,4.0,4.0,0.0,1.0,1.0,465.0323079986265,2.0,1.0,part_1,,,,,,,,,,,,,gray,circle
0.0,6.0,0.0,1.0,4.0,4.0,381.5136039920617,2.0,1.0,part_1,,,,,,,,,,,,,cyan,I
1286.0,8.0,4.0,1.0,3.0,3.0,417.6433110114885,2.0,1.0,part_1,,,,,,,,,,,,,yellow,square
0.0,4.0,0.0,0.0,3.0,3.0,437.5392759975511,2.0,1.0,part_1,,,,,,,,,,,,,gray,circle
0.0,7.0,0.0,1.0,4.0,4.0,447.7420059993164,2.0,1.0,part_1,,,,,,,,,,,,,magenta,hexagon
0.0,5.0,0.0,1.0,3.0,3.0,353.8757549977163,2.0,1.0,part_1,,,,,,,,,,,,,green,flipped triangle
303.0,2.0,2.0,0.0,4.0,4.0,428.7128880096134,2.0,1.0,part_1,,,,,,,,,,,,,blue,cross
1285.0,8.0,4.0,1.0,2.0,2.0,503.18588899972383,2.0,1.0,part_1,,,,,,,,,,,,,yellow,square
343.0,6.0,2.0,1.0,3.0,3.0,391.6534470045008,2.0,1.0,part_1,,,,,,,,,,,,,cyan,I
159.0,1.0,1.0,0.0,4.0,4.0,445.3339200117625,2.0,1.0,part_1,,,,,,,,,,,,,orange,diamond
172.0,1.0,1.0,0.0,4.0,4.0,641.8078089918708,2.0,1.0,part_1,,,,,,,,,,,,,orange,diamond
328.0,2.0,2.0,0.0,4.0,4.0,400.22749900526827,2.0,1.0,part_1,,,,,,,,,,,,,blue,cross
1280.0,4.0,4.0,0.0,2.0,2.0,522.9164449992822,2.0,1.0,part_1,,,,,,,,,,,,,gray,circle
0.0,8.0,0.0,1.0,1.0,1.0,474.7414029989159,2.0,1.0,part_1,,,,,,,,,,,,,yellow,square
160.0,5.0,1.0,1.0,3.0,3.0,344.7180140065029,2.0,1.0,part_1,,,,,,,,,,,,,green,flipped triangle
1301.0,8.0,4.0,1.0,2.0,2.0,492.7371029916685,2.0,1.0,part_1,,,,,,,,,,,,,yellow,square
657.0,3.0,3.0,0.0,2.0,2.0,418.9756799896713,2.0,1.0,part_1,,,,,,,,,,,,,white,triangle
1314.0,4.0,4.0,0.0,2.0,2.0,437.6585800055181,2.0,1.0,part_1,,,,,,,,,,,,,gray,circle
167.0,1.0,1.0,0.0,3.0,3.0,371.4877839956898,2.0,1.0,part_1,,,,,,,,,,,,,orange,diamond
1309.0,8.0,4.0,1.0,3.0,3.0,428.8778290065238,2.0,1.0,part_1,,,,,,,,,,,,,yellow,square
319.0,6.0,2.0,1.0,1.0,1.0,576.7126339924289,2.0,1.0,part_1,,,,,,,,,,,,,cyan,I
0.0,3.0,0.0,0.0,2.0,2.0,476.5141300013056,2.0,1.0,part_1,,,,,,,,,,,,,white,triangle
0.0,3.0,0.0,0.0,3.0,3.0,335.2981670032022,2.0,1.0,part_1,,,,,,,,,,,,,white,triangle
305.0,6.0,2.0,1.0,4.0,4.0,458.6965390044497,2.0,1.0,part_1,,,,,,,,,,,,,cyan,I
0.0,7.0,0.0,1.0,1.0,1.0,401.5827609982807,2.0,1.0,part_1,,,,,,,,,,,,,magenta,hexagon
1314.0,8.0,4.0,1.0,3.0,3.0,345.8419289963785,2.0,1.0,part_1,,,,,,,,,,,,,yellow,square
626.0,3.0,3.0,0.0,3.0,3.0,419.6284810022916,2.0,1.0,part_1,,,,,,,,,,,,,white,triangle
652.0,7.0,3.0,1.0,3.0,3.0,353.3532000001287,2.0,1.0,part_1,,,,,,,,,,,,,magenta,hexagon
346.0,2.0,2.0,0.0,1.0,1.0,418.8152410060866,2.0,1.0,part_1,,,,,,,,,,,,,blue,cross
306.0,6.0,2.0,1.0,3.0,3.0,334.5281630026875,2.0,1.0,part_1,,,,,,,,,,,,,cyan,I
1292.0,4.0,4.0,0.0,1.0,1.0,408.8370640092762,2.0,1.0,part_1,,,,,,,,,,,,,gray,circle
649.0,3.0,3.0,0.0,1.0,1.0,463.7419359933119,2.0,1.0,part_1,,,,,,,,,,,,,white,triangle
0.0,3.0,0.0,0.0,1.0,1.0,408.6669469979824,2.0,1.0,part_1,,,,,,,,,,,,,white,triangle
1297.0,8.0,4.0,1.0,1.0,1.0,381.866791009088,2.0,1.0,part_1,,,,,,,,,,,,,yellow,square
320.0,6.0,2.0,1.0,3.0,3.0,379.7709899954498,2.0,1.0,part_1,,,,,,,,,,,,,cyan,I
0.0,7.0,0.0,1.0,4.0,4.0,668.9004850049969,2.0,1.0,part_1,,,,,,,,,,,,,magenta,hexagon
0.0,5.0,0.0,1.0,1.0,1.0,472.7533839904936,2.0,1.0,part_1,,,,,,,,,,,,,green,flipped triangle
629.0,7.0,3.0,1.0,1.0,1.0,436.6916599974502,2.0,1.0,part_1,,,,,,,,,,,,,magenta,hexagon
1302.0,8.0,4.0,1.0,4.0,4.0,399.33865000784857,2.0,1.0,part_1,,,,,,,,,,,,,yellow,square
0.0,5.0,0.0,1.0,2.0,2.0,630.9876290033571,2.0,1.0,part_1,,,,,,,,,,,,,green,flipped triangle
0.0,5.0,0.0,1.0,2.0,2.0,399.406311000348,2.0,1.0,part_1,,,,,,,,,,,,,green,flipped triangle
0.0,1.0,0.0,0.0,3.0,3.0,380.6043100048555,2.0,1.0,part_1,,,,,,,,,,,,,orange,diamond
159.0,1.0,1.0,0.0,2.0,2.0,593.5592669993639,2.0,1.0,part_1,,,,,,,,,,,,,orange,diamond
343.0,2.0,2.0,0.0,2.0,2.0,388.7326879921602,2.0,1.0,part_1,,,,,,,,,,,,,blue,cross
1321.0,4.0,4.0,0.0,2.0,2.0,407.6673789968481,2.0,1.0,part_1,,,,,,,,,,,,,gray,circle
0.0,4.0,0.0,0.0,3.0,3.0,334.024010997382,2.0,1.0,part_1,,,,,,,,,,,,,gray,circle
335.0,6.0,2.0,1.0,1.0,1.0,437.1342890080996,2.0,2.0,part_1,,,,,,,,,,,,,cyan,I
670.0,3.0,3.0,0.0,3.0,3.0,370.1682390092173,2.0,1.0,part_1,,,,,,,,,,,,,white,triangle
659.0,7.0,3.0,1.0,3.0,3.0,408.007815000019,2.0,1.0,part_1,,,,,,,,,,,,,magenta,hexagon
332.0,6.0,2.0,1.0,1.0,1.0,467.8312619944336,2.0,1.0,part_1,,,,,,,,,,,,,cyan,I
184.0,1.0,1.0,0.0,3.0,3.0,371.7847829975653,2.0,1.0,part_1,,,,,,,,,,,,,orange,diamond
165.0,1.0,1.0,0.0,3.0,3.0,611.618926996016,2.0,1.0,part_1,,,,,,,,,,,,,orange,diamond
1295.0,4.0,4.0,0.0,4.0,4.0,511.0819050023565,2.0,1.0,part_1,,,,,,,,,,,,,gray,circle
666.0,3.0,3.0,0.0,4.0,4.0,482.2322260006331,2.0,1.0,part_1,,,,,,,,,,,,,white,triangle
166.0,1.0,1.0,0.0,4.0,4.0,389.4505460048094,2.0,1.0,part_1,,,,,,,,,,,,,orange,diamond
0.0,8.0,0.0,1.0,1.0,1.0,511.24620299378876,2.0,1.0,part_1,,,,,,,,,,,,,yellow,square
304.0,6.0,2.0,1.0,4.0,4.0,511.88244301010855,2.0,1.0,part_1,,,,,,,,,,,,,cyan,I
669.0,3.0,3.0,0.0,4.0,4.0,436.1231049988419,2.0,1.0,part_1,,,,,,,,,,,,,white,triangle
0.0,3.0,0.0,0.0,1.0,1.0,455.21133500733407,2.0,1.0,part_1,,,,,,,,,,,,,white,triangle
669.0,3.0,3.0,0.0,3.0,3.0,344.96703199693,2.0,1.0,part_1,,,,,,,,,,,,,white,triangle
0.0,3.0,0.0,0.0,1.0,1.0,540.6594069936546,2.0,1.0,part_1,,,,,,,,,,,,,white,triangle
631.0,3.0,3.0,0.0,4.0,4.0,417.8687690000515,2.0,1.0,part_1,,,,,,,,,,,,,white,triangle
0.0,4.0,0.0,0.0,2.0,2.0,697.0224770047935,2.0,1.0,part_1,,,,,,,,,,,,,gray,circle
186.0,1.0,1.0,0.0,2.0,2.0,491.6253760020481,2.0,1.0,part_1,,,,,,,,,,,,,orange,diamond
646.0,3.0,3.0,0.0,3.0,3.0,352.9731460002949,2.0,1.0,part_1,,,,,,,,,,,,,white,triangle
172.0,5.0,1.0,1.0,3.0,3.0,379.7277650010073,2.0,1.0,part_1,,,,,,,,,,,,,green,flipped triangle
628.0,7.0,3.0,1.0,1.0,1.0,390.7200600078795,2.0,1.0,part_1,,,,,,,,,,,,,magenta,hexagon
1284.0,8.0,4.0,1.0,2.0,2.0,474.7586790035711,2.0,1.0,part_1,,,,,,,,,,,,,yellow,square
178.0,1.0,1.0,0.0,3.0,3.0,556.6862629930256,2.0,1.0,part_1,,,,,,,,,,,,,orange,diamond
166.0,5.0,1.0,1.0,2.0,2.0,510.7528509979602,2.0,1.0,part_1,,,,,,,,,,,,,green,flipped triangle
0.0,1.0,0.0,0.0,3.0,3.0,352.883344006841,2.0,1.0,part_1,,,,,,,,,,,,,orange,diamond
159.0,5.0,1.0,1.0,1.0,1.0,371.0825860034674,2.0,1.0,part_1,,,,,,,,,,,,,green,flipped triangle
314.0,2.0,2.0,0.0,2.0,2.0,407.8646289999597,2.0,1.0,part_1,,,,,,,,,,,,,blue,cross
655.0,3.0,3.0,0.0,4.0,4.0,587.1516490005888,2.0,1.0,part_1,,,,,,,,,,,,,white,triangle
184.0,5.0,1.0,1.0,3.0,3.0,381.5016759908758,2.0,1.0,part_1,,,,,,,,,,,,,green,flipped triangle
158.0,5.0,1.0,1.0,1.0,1.0,417.6554680016124,2.0,1.0,part_1,,,,,,,,,,,,,green,flipped triangle
313.0,6.0,2.0,1.0,4.0,4.0,623.4326249978039,2.0,1.0,part_1,,,,,,,,,,,,,cyan,I
0.0,2.0,0.0,0.0,3.0,3.0,398.8297580071958,2.0,1.0,part_1,,,,,,,,,,,,,blue,cross
1306.0,8.0,4.0,1.0,1.0,1.0,630.7092039933195,2.0,1.0,part_1,,,,,,,,,,,,,yellow,square
340.0,2.0,2.0,0.0,2.0,2.0,427.2693829989293,2.0,1.0,part_1,,,,,,,,,,,,,blue,cross
0.0,7.0,0.0,1.0,1.0,1.0,417.6808549964335,2.0,1.0,part_1,,,,,,,,,,,,,magenta,hexagon
663.0,3.0,3.0,0.0,4.0,4.0,418.7267369998153,2.0,1.0,part_1,,,,,,,,,,,,,white,triangle
0.0,8.0,0.0,1.0,3.0,3.0,380.5549749959027,2.0,1.0,part_1,,,,,,,,,,,,,yellow,square
316.0,6.0,2.0,1.0,1.0,1.0,528.255513010663,2.0,1.0,part_1,,,,,,,,,,,,,cyan,I
0.0,3.0,0.0,0.0,4.0,4.0,483.743595003034,3.0,1.0,part_1,,,,,,,,,,,,,white,triangle
316.0,2.0,2.0,0.0,3.0,3.0,407.0530460012378,3.0,1.0,part_1,,,,,,,,,,,,,blue,cross
1297.0,4.0,4.0,0.0,2.0,2.0,408.7697539944201,3.0,1.0,part_1,,,,,,,,,,,,,gray,circle
181.0,5.0,1.0,1.0,2.0,2.0,416.5062929969281,3.0,1.0,part_1,,,,,,,,,,,,,green,flipped triangle
636.0,7.0,3.0,1.0,2.0,2.0,380.4423090041382,3.0,1.0,part_1,,,,,,,,,,,,,magenta,hexagon
183.0,1.0,1.0,0.0,3.0,3.0,316.3163300050655,3.0,1.0,part_1,,,,,,,,,,,,,orange,diamond
1318.0,8.0,4.0,1.0,2.0,2.0,371.5673350088764,3.0,1.0,part_1,,,,,,,,,,,,,yellow,square
327.0,2.0,2.0,0.0,3.0,3.0,408.9112579968059,3.0,1.0,part_1,,,,,,,,,,,,,blue,cross
1305.0,8.0,4.0,1.0,3.0,3.0,426.955724004074,3.0,1.0,part_1,,,,,,,,,,,,,yellow,square
146.0,5.0,1.0,1.0,3.0,3.0,381.3739640027052,3.0,1.0,part_1,,,,,,,,,,,,,green,flipped triangle
0.0,7.0,0.0,1.0,3.0,3.0,390.4665219888557,3.0,1.0,part_1,,,,,,,,,,,,,magenta,hexagon
0.0,2.0,0.0,0.0,1.0,1.0,482.4729649990331,3.0,2.0,part_1,,,,,,,,,,,,,blue,cross
172.0,5.0,1.0,1.0,4.0,4.0,575.6389370071702,3.0,1.0,part_1,,,,,,,,,,,,,green,flipped triangle
0.0,4.0,0.0,0.0,2.0,2.0,483.4518739953637,3.0,1.0,part_1,,,,,,,,,,,,,gray,circle
1284.0,4.0,4.0,0.0,2.0,2.0,373.5056589939631,3.0,1.0,part_1,,,,,,,,,,,,,gray,circle
327.0,6.0,2.0,1.0,4.0,4.0,547.3919129872229,3.0,1.0,part_1,,,,,,,,,,,,,cyan,I
138.0,5.0,1.0,1.0,3.0,3.0,362.3680829914519,3.0,1.0,part_1,,,,,,,,,,,,,green,flipped triangle
303.0,6.0,2.0,1.0,2.0,2.0,353.4202680020826,3.0,1.0,part_1,,,,,,,,,,,,,cyan,I
645.0,7.0,3.0,1.0,3.0,3.0,492.0711099985055,3.0,1.0,part_1,,,,,,,,,,,,,magenta,hexagon
1288.0,8.0,4.0,1.0,3.0,3.0,436.9434399995953,3.0,1.0,part_1,,,,,,,,,,,,,yellow,square
1309.0,4.0,4.0,0.0,3.0,3.0,334.5010750053916,3.0,1.0,part_1,,,,,,,,,,,,,gray,circle
309.0,6.0,2.0,1.0,2.0,2.0,444.404615991516,3.0,1.0,part_1,,,,,,,,,,,,,cyan,I
174.0,1.0,1.0,0.0,4.0,4.0,491.9336710008792,3.0,1.0,part_1,,,,,,,,,,,,,orange,diamond
661.0,3.0,3.0,0.0,1.0,1.0,344.0661950007779,3.0,1.0,part_1,,,,,,,,,,,,,white,triangle
672.0,3.0,3.0,0.0,1.0,1.0,475.8388640038902,3.0,1.0,part_1,,,,,,,,,,,,,white,triangle
338.0,2.0,2.0,0.0,2.0,2.0,436.5895929950056,3.0,1.0,part_1,,,,,,,,,,,,,blue,cross
0.0,1.0,0.0,0.0,4.0,4.0,501.68552999093663,3.0,1.0,part_1,,,,,,,,,,,,,orange,diamond
659.0,7.0,3.0,1.0,4.0,4.0,455.7397949974984,3.0,1.0,part_1,,,,,,,,,,,,,magenta,hexagon
0.0,6.0,0.0,1.0,2.0,2.0,519.5865239948034,3.0,1.0,part_1,,,,,,,,,,,,,cyan,I
336.0,2.0,2.0,0.0,1.0,1.0,465.1758309919387,3.0,1.0,part_1,,,,,,,,,,,,,blue,cross
1286.0,4.0,4.0,0.0,4.0,4.0,576.9041970052058,3.0,1.0,part_1,,,,,,,,,,,,,gray,circle
336.0,6.0,2.0,1.0,2.0,2.0,529.4876689877128,3.0,1.0,part_1,,,,,,,,,,,,,cyan,I
643.0,3.0,3.0,0.0,2.0,2.0,445.3393099975073,3.0,1.0,part_1,,,,,,,,,,,,,white,triangle
305.0,2.0,2.0,0.0,1.0,1.0,472.7789229946211,3.0,1.0,part_1,,,,,,,,,,,,,blue,cross
332.0,6.0,2.0,1.0,3.0,3.0,362.2500029887305,3.0,1.0,part_1,,,,,,,,,,,,,cyan,I
1289.0,8.0,4.0,1.0,2.0,2.0,390.0084439956117,3.0,1.0,part_1,,,,,,,,,,,,,yellow,square
149.0,1.0,1.0,0.0,2.0,2.0,418.7053319910774,3.0,1.0,part_1,,,,,,,,,,,,,orange,diamond
632.0,3.0,3.0,0.0,2.0,2.0,473.6065280012553,3.0,1.0,part_1,,,,,,,,,,,,,white,triangle
655.0,7.0,3.0,1.0,3.0,3.0,389.1698139923392,3.0,1.0,part_1,,,,,,,,,,,,,magenta,hexagon
626.0,3.0,3.0,0.0,3.0,3.0,602.2566809988348,3.0,1.0,part_1,,,,,,,,,,,,,white,triangle
632.0,7.0,3.0,1.0,2.0,2.0,327.1018079976784,3.0,2.0,part_1,,,,,,,,,,,,,magenta,hexagon
0.0,8.0,0.0,1.0,3.0,3.0,510.54129099065904,3.0,1.0,part_1,,,,,,,,,,,,,yellow,square
1305.0,4.0,4.0,0.0,1.0,1.0,604.6151759946952,3.0,1.0,part_1,,,,,,,,,,,,,gray,circle
305.0,2.0,2.0,0.0,1.0,1.0,464.1586499928962,3.0,1.0,part_1,,,,,,,,,,,,,blue,cross
162.0,1.0,1.0,0.0,1.0,1.0,437.0011950086336,3.0,1.0,part_1,,,,,,,,,,,,,orange,diamond
138.0,1.0,1.0,0.0,1.0,1.0,381.108827990829,3.0,1.0,part_1,,,,,,,,,,,,,orange,diamond
1294.0,4.0,4.0,0.0,1.0,1.0,455.3008400107501,3.0,1.0,part_1,,,,,,,,,,,,,gray,circle
626.0,7.0,3.0,1.0,1.0,1.0,335.0674099929165,3.0,1.0,part_1,,,,,,,,,,,,,magenta,hexagon
668.0,3.0,3.0,0.0,2.0,2.0,695.9908470016671,3.0,1.0,part_1,,,,,,,,,,,,,white,triangle
159.0,1.0,1.0,0.0,3.0,3.0,547.5942409975687,3.0,1.0,part_1,,,,,,,,,,,,,orange,diamond
644.0,7.0,3.0,1.0,2.0,2.0,400.6402369996067,3.0,1.0,part_1,,,,,,,,,,,,,magenta,hexagon
0.0,3.0,0.0,0.0,2.0,2.0,426.9113960035611,3.0,1.0,part_1,,,,,,,,,,,,,white,triangle
0.0,1.0,0.0,0.0,1.0,1.0,455.4107729927636,3.0,1.0,part_1,,,,,,,,,,,,,orange,diamond
304.0,2.0,2.0,0.0,4.0,4.0,565.6484220089624,3.0,1.0,part_1,,,,,,,,,,,,,blue,cross
667.0,7.0,3.0,1.0,3.0,3.0,463.8340380042791,3.0,1.0,part_1,,,,,,,,,,,,,magenta,hexagon
326.0,6.0,2.0,1.0,2.0,2.0,538.1506529956823,3.0,1.0,part_1,,,,,,,,,,,,,cyan,I
635.0,7.0,3.0,1.0,3.0,3.0,428.4429580002324,3.0,1.0,part_1,,,,,,,,,,,,,magenta,hexagon
0.0,6.0,0.0,1.0,2.0,2.0,379.9230650038225,3.0,1.0,part_1,,,,,,,,,,,,,cyan,I
1277.0,4.0,4.0,0.0,3.0,3.0,520.2150929981144,3.0,1.0,part_1,,,,,,,,,,,,,gray,circle
669.0,7.0,3.0,1.0,1.0,1.0,345.0934180000331,3.0,1.0,part_1,,,,,,,,,,,,,magenta,hexagon
309.0,2.0,2.0,0.0,3.0,3.0,409.6665639954153,3.0,1.0,part_1,,,,,,,,,,,,,blue,cross
149.0,1.0,1.0,0.0,1.0,1.0,408.6722520005423,3.0,1.0,part_1,,,,,,,,,,,,,orange,diamond
0.0,5.0,0.0,1.0,2.0,2.0,455.7384669897146,3.0,1.0,part_1,,,,,,,,,,,,,green,flipped triangle
152.0,1.0,1.0,0.0,3.0,3.0,325.3160320018651,3.0,1.0,part_1,,,,,,,,,,,,,orange,diamond
153.0,5.0,1.0,1.0,1.0,1.0,473.6223609943408,3.0,1.0,part_1,,,,,,,,,,,,,green,flipped triangle
654.0,7.0,3.0,1.0,4.0,4.0,418.4833129984326,3.0,1.0,part_1,,,,,,,,,,,,,magenta,hexagon
1296.0,8.0,4.0,1.0,4.0,4.0,585.576001991285,3.0,1.0,part_1,,,,,,,,,,,,,yellow,square
0.0,7.0,0.0,1.0,3.0,3.0,352.5864489929518,3.0,1.0,part_1,,,,,,,,,,,,,magenta,hexagon
671.0,3.0,3.0,0.0,1.0,1.0,555.9225959877949,3.0,1.0,part_1,,,,,,,,,,,,,white,triangle
661.0,7.0,3.0,1.0,4.0,4.0,540.1860060082981,3.0,1.0,part_1,,,,,,,,,,,,,magenta,hexagon
346.0,6.0,2.0,1.0,1.0,1.0,502.643496991368,3.0,1.0,part_1,,,,,,,,,,,,,cyan,I
0.0,8.0,0.0,1.0,4.0,4.0,464.0872439922532,3.0,1.0,part_1,,,,,,,,,,,,,yellow,square
0.0,3.0,0.0,0.0,1.0,1.0,464.4595749996369,3.0,1.0,part_1,,,,,,,,,,,,,white,triangle
1298.0,4.0,4.0,0.0,4.0,4.0,483.8991059950785,3.0,1.0,part_1,,,,,,,,,,,,,gray,circle
643.0,7.0,3.0,1.0,4.0,4.0,742.9775550117483,3.0,1.0,part_1,,,,,,,,,,,,,magenta,hexagon
1321.0,8.0,4.0,1.0,1.0,1.0,500.5381670052884,3.0,1.0,part_1,,,,,,,,,,,,,yellow,square
307.0,2.0,2.0,0.0,4.0,4.0,371.0681820084573,3.0,1.0,part_1,,,,,,,,,,,,,blue,cross
340.0,2.0,2.0,0.0,3.0,3.0,390.0705900014145,3.0,1.0,part_1,,,,,,,,,,,,,blue,cross
1283.0,4.0,4.0,0.0,3.0,3.0,409.3538229935802,3.0,1.0,part_1,,,,,,,,,,,,,gray,circle
317.0,2.0,2.0,0.0,4.0,4.0,471.9662209972739,3.0,1.0,part_1,,,,,,,,,,,,,blue,cross
1298.0,8.0,4.0,1.0,4.0,4.0,362.936040997738,3.0,1.0,part_1,,,,,,,,,,,,,yellow,square
162.0,5.0,1.0,1.0,4.0,4.0,398.8682899944251,3.0,1.0,part_1,,,,,,,,,,,,,green,flipped triangle
168.0,5.0,1.0,1.0,3.0,3.0,417.7846589882392,3.0,1.0,part_1,,,,,,,,,,,,,green,flipped triangle
1292.0,4.0,4.0,0.0,1.0,1.0,603.3882210031152,3.0,1.0,part_1,,,,,,,,,,,,,gray,circle
328.0,6.0,2.0,1.0,1.0,1.0,444.9814770050579,3.0,1.0,part_1,,,,,,,,,,,,,cyan,I
1321.0,4.0,4.0,0.0,3.0,3.0,389.6279000036884,3.0,1.0,part_1,,,,,,,,,,,,,gray,circle
178.0,5.0,1.0,1.0,2.0,2.0,371.4745829929597,3.0,1.0,part_1,,,,,,,,,,,,,green,flipped triangle
1318.0,4.0,4.0,0.0,2.0,2.0,400.1326319994405,3.0,1.0,part_1,,,,,,,,,,,,,gray,circle
1299.0,4.0,4.0,0.0,2.0,2.0,362.512991996482,3.0,1.0,part_1,,,,,,,,,,,,,gray,circle
315.0,2.0,2.0,0.0,2.0,2.0,492.3888039920712,3.0,1.0,part_1,,,,,,,,,,,,,blue,cross
0.0,1.0,0.0,0.0,1.0,1.0,555.2665639988845,3.0,1.0,part_1,,,,,,,,,,,,,orange,diamond
0.0,6.0,0.0,1.0,2.0,2.0,446.7470289964694,3.0,1.0,part_1,,,,,,,,,,,,,cyan,I
652.0,3.0,3.0,0.0,2.0,2.0,435.9176580037456,3.0,1.0,part_1,,,,,,,,,,,,,white,triangle
659.0,3.0,3.0,0.0,1.0,1.0,427.4364119919482,3.0,1.0,part_1,,,,,,,,,,,,,white,triangle
138.0,1.0,1.0,0.0,1.0,1.0,390.8215050032595,3.0,1.0,part_1,,,,,,,,,,,,,orange,diamond
0.0,1.0,0.0,0.0,2.0,2.0,493.8036880048457,3.0,1.0,part_1,,,,,,,,,,,,,orange,diamond
1296.0,4.0,4.0,0.0,4.0,4.0,482.7632750093471,3.0,1.0,part_1,,,,,,,,,,,,,gray,circle
636.0,3.0,3.0,0.0,1.0,1.0,455.0293570064241,3.0,1.0,part_1,,,,,,,,,,,,,white,triangle
302.0,2.0,2.0,0.0,1.0,1.0,380.7314009900437,3.0,1.0,part_1,,,,,,,,,,,,,blue,cross
0.0,4.0,0.0,0.0,2.0,2.0,409.4523850071709,3.0,1.0,part_1,,,,,,,,,,,,,gray,circle
1324.0,8.0,4.0,1.0,3.0,3.0,402.7616569946985,4.0,1.0,part_1,,,,,,,,,,,,,yellow,square
157.0,1.0,1.0,0.0,2.0,2.0,317.4013539974112,4.0,1.0,part_1,,,,,,,,,,,,,orange,diamond
177.0,1.0,1.0,0.0,4.0,4.0,431.2648199993418,4.0,1.0,part_1,,,,,,,,,,,,,orange,diamond
1277.0,8.0,4.0,1.0,4.0,4.0,447.547282994492,4.0,1.0,part_1,,,,,,,,,,,,,yellow,square
332.0,2.0,2.0,0.0,4.0,4.0,457.9865900013828,4.0,1.0,part_1,,,,,,,,,,,,,blue,cross
626.0,7.0,3.0,1.0,1.0,1.0,533.4206389961764,4.0,1.0,part_1,,,,,,,,,,,,,magenta,hexagon
1284.0,4.0,4.0,0.0,1.0,1.0,409.4981759990332,4.0,1.0,part_1,,,,,,,,,,,,,gray,circle
147.0,1.0,1.0,0.0,1.0,1.0,392.0181190042058,4.0,1.0,part_1,,,,,,,,,,,,,orange,diamond
0.0,5.0,0.0,1.0,2.0,2.0,715.6387110007927,4.0,1.0,part_1,,,,,,,,,,,,,green,flipped triangle
646.0,3.0,3.0,0.0,4.0,4.0,502.4121750029735,4.0,1.0,part_1,,,,,,,,,,,,,white,triangle
181.0,1.0,1.0,0.0,2.0,2.0,446.9223859923659,4.0,1.0,part_1,,,,,,,,,,,,,orange,diamond
1288.0,4.0,4.0,0.0,4.0,4.0,410.647903001518,4.0,1.0,part_1,,,,,,,,,,,,,gray,circle
1289.0,8.0,4.0,1.0,3.0,3.0,476.9781020004302,4.0,1.0,part_1,,,,,,,,,,,,,yellow,square
0.0,3.0,0.0,0.0,2.0,2.0,447.5687660014955,4.0,1.0,part_1,,,,,,,,,,,,,white,triangle
184.0,5.0,1.0,1.0,2.0,2.0,383.419303005212,4.0,1.0,part_1,,,,,,,,,,,,,green,flipped triangle
143.0,5.0,1.0,1.0,4.0,4.0,670.8552890049759,4.0,1.0,part_1,,,,,,,,,,,,,green,flipped triangle
0.0,5.0,0.0,1.0,2.0,2.0,409.3718250078382,4.0,1.0,part_1,,,,,,,,,,,,,green,flipped triangle
672.0,3.0,3.0,0.0,4.0,4.0,361.7146940086968,4.0,1.0,part_1,,,,,,,,,,,,,white,triangle
668.0,7.0,3.0,1.0,2.0,2.0,362.078088990529,4.0,1.0,part_1,,,,,,,,,,,,,magenta,hexagon
0.0,4.0,0.0,0.0,1.0,1.0,438.4686050034361,4.0,1.0,part_1,,,,,,,,,,,,,gray,circle
659.0,7.0,3.0,1.0,4.0,4.0,530.4917660105275,4.0,1.0,part_1,,,,,,,,,,,,,magenta,hexagon
1285.0,4.0,4.0,0.0,4.0,4.0,494.0005629905499,4.0,1.0,part_1,,,,,,,,,,,,,gray,circle
663.0,7.0,3.0,1.0,3.0,3.0,765.8135230012704,4.0,1.0,part_1,,,,,,,,,,,,,magenta,hexagon
0.0,8.0,0.0,1.0,3.0,3.0,391.6027029918041,4.0,1.0,part_1,,,,,,,,,,,,,yellow,square
0.0,8.0,0.0,1.0,2.0,2.0,410.5715090117883,4.0,1.0,part_1,,,,,,,,,,,,,yellow,square
334.0,6.0,2.0,1.0,1.0,1.0,613.3374869968975,4.0,1.0,part_1,,,,,,,,,,,,,cyan,I
177.0,5.0,1.0,1.0,1.0,1.0,410.5328769946936,4.0,1.0,part_1,,,,,,,,,,,,,green,flipped triangle
0.0,5.0,0.0,1.0,2.0,2.0,466.7829960089875,4.0,1.0,part_1,,,,,,,,,,,,,green,flipped triangle
159.0,5.0,1.0,1.0,4.0,4.0,440.803584002424,4.0,1.0,part_1,,,,,,,,,,,,,green,flipped triangle
311.0,6.0,2.0,1.0,2.0,2.0,503.7681359972339,4.0,1.0,part_1,,,,,,,,,,,,,cyan,I
172.0,1.0,1.0,0.0,1.0,1.0,390.2864579868037,4.0,1.0,part_1,,,,,,,,,,,,,orange,diamond
652.0,3.0,3.0,0.0,2.0,2.0,418.3990669989725,4.0,1.0,part_1,,,,,,,,,,,,,white,triangle
1314.0,4.0,4.0,0.0,2.0,2.0,483.150095999008,4.0,1.0,part_1,,,,,,,,,,,,,gray,circle
159.0,5.0,1.0,1.0,2.0,2.0,354.9270719959168,4.0,1.0,part_1,,,,,,,,,,,,,green,flipped triangle
315.0,6.0,2.0,1.0,3.0,3.0,587.635395990219,4.0,1.0,part_1,,,,,,,,,,,,,cyan,I
672.0,7.0,3.0,1.0,4.0,4.0,559.9166799947852,4.0,1.0,part_1,,,,,,,,,,,,,magenta,hexagon
1319.0,4.0,4.0,0.0,3.0,3.0,325.7595790055347,4.0,1.0,part_1,,,,,,,,,,,,,gray,circle
0.0,1.0,0.0,0.0,2.0,2.0,596.5892189997248,4.0,1.0,part_1,,,,,,,,,,,,,orange,diamond
657.0,7.0,3.0,1.0,3.0,3.0,436.9041990139521,4.0,1.0,part_1,,,,,,,,,,,,,magenta,hexagon
314.0,6.0,2.0,1.0,3.0,3.0,335.6979880045401,4.0,1.0,part_1,,,,,,,,,,,,,cyan,I
350.0,6.0,2.0,1.0,4.0,4.0,401.7041019978933,4.0,1.0,part_1,,,,,,,,,,,,,cyan,I
335.0,2.0,2.0,0.0,1.0,1.0,455.7958479999797,4.0,1.0,part_1,,,,,,,,,,,,,blue,cross
666.0,7.0,3.0,1.0,4.0,4.0,451.19638000323897,4.0,1.0,part_1,,,,,,,,,,,,,magenta,hexagon
0.0,1.0,0.0,0.0,4.0,4.0,467.8241329966113,4.0,1.0,part_1,,,,,,,,,,,,,orange,diamond
1284.0,8.0,4.0,1.0,1.0,1.0,501.55818100029137,4.0,1.0,part_1,,,,,,,,,,,,,yellow,square
646.0,7.0,3.0,1.0,1.0,1.0,401.0221509961411,4.0,1.0,part_1,,,,,,,,,,,,,magenta,hexagon
306.0,2.0,2.0,0.0,1.0,1.0,372.3736770043615,4.0,1.0,part_1,,,,,,,,,,,,,blue,cross
1321.0,8.0,4.0,1.0,1.0,1.0,336.340989000746,4.0,1.0,part_1,,,,,,,,,,,,,yellow,square
0.0,7.0,0.0,1.0,3.0,3.0,401.4205629937351,4.0,1.0,part_1,,,,,,,,,,,,,magenta,hexagon
0.0,6.0,0.0,1.0,1.0,1.0,411.0111159970984,4.0,1.0,part_1,,,,,,,,,,,,,cyan,I
1292.0,8.0,4.0,1.0,1.0,1.0,364.0239469968946,4.0,1.0,part_1,,,,,,,,,,,,,yellow,square
167.0,5.0,1.0,1.0,2.0,2.0,390.9524110058555,4.0,1.0,part_1,,,,,,,,,,,,,green,flipped triangle
166.0,5.0,1.0,1.0,1.0,1.0,400.8832940016873,4.0,1.0,part_1,,,,,,,,,,,,,green,flipped triangle
332.0,6.0,2.0,1.0,4.0,4.0,392.3807659884915,4.0,1.0,part_1,,,,,,,,,,,,,cyan,I
0.0,8.0,0.0,1.0,3.0,3.0,548.3878670056583,4.0,1.0,part_1,,,,,,,,,,,,,yellow,square
143.0,5.0,1.0,1.0,4.0,4.0,421.0031069960678,4.0,1.0,part_1,,,,,,,,,,,,,green,flipped triangle
171.0,5.0,1.0,1.0,4.0,4.0,445.881138992263,4.0,1.0,part_1,,,,,,,,,,,,,green,flipped triangle
626.0,3.0,3.0,0.0,1.0,1.0,447.120253011235,4.0,1.0,part_1,,,,,,,,,,,,,white,triangle
646.0,7.0,3.0,1.0,2.0,2.0,475.7993350067409,4.0,1.0,part_1,,,,,,,,,,,,,magenta,hexagon
0.0,4.0,0.0,0.0,4.0,4.0,454.0424759907182,4.0,2.0,part_1,,,,,,,,,,,,,gray,circle
1314.0,8.0,4.0,1.0,3.0,3.0,380.773411001428,4.0,1.0,part_1,,,,,,,,,,,,,yellow,square
307.0,6.0,2.0,1.0,2.0,2.0,362.8511029965011,4.0,1.0,part_1,,,,,,,,,,,,,cyan,I
1289.0,4.0,4.0,0.0,1.0,1.0,622.9140420036856,4.0,1.0,part_1,,,,,,,,,,,,,gray,circle
0.0,8.0,0.0,1.0,3.0,3.0,408.7531400000443,4.0,1.0,part_1,,,,,,,,,,,,,yellow,square
324.0,2.0,2.0,0.0,3.0,3.0,399.487388000125,4.0,1.0,part_1,,,,,,,,,,,,,blue,cross
313.0,2.0,2.0,0.0,2.0,2.0,501.0567940043984,4.0,1.0,part_1,,,,,,,,,,,,,blue,cross
1289.0,4.0,4.0,0.0,3.0,3.0,352.9949040093925,4.0,1.0,part_1,,,,,,,,,,,,,gray,circle
146.0,1.0,1.0,0.0,4.0,4.0,437.1794369944837,4.0,1.0,part_1,,,,,,,,,,,,,orange,diamond
630.0,3.0,3.0,0.0,2.0,2.0,464.2402519966708,4.0,1.0,part_1,,,,,,,,,,,,,white,triangle
1305.0,4.0,4.0,0.0,2.0,2.0,436.9799790001707,4.0,1.0,part_1,,,,,,,,,,,,,gray,circle
332.0,2.0,2.0,0.0,4.0,4.0,444.6324540040223,4.0,2.0,part_1,,,,,,,,,,,,,blue,cross
638.0,7.0,3.0,1.0,3.0,3.0,407.3605570010841,4.0,1.0,part_1,,,,,,,,,,,,,magenta,hexagon
1305.0,8.0,4.0,1.0,3.0,3.0,408.4336579981027,4.0,1.0,part_1,,,,,,,,,,,,,yellow,square
168.0,1.0,1.0,0.0,1.0,1.0,565.8940129942494,4.0,1.0,part_1,,,,,,,,,,,,,orange,diamond
0.0,8.0,0.0,1.0,4.0,4.0,519.2886549921241,4.0,1.0,part_1,,,,,,,,,,,,,yellow,square
147.0,5.0,1.0,1.0,4.0,4.0,454.4990910071647,4.0,1.0,part_1,,,,,,,,,,,,,green,flipped triangle
303.0,2.0,2.0,0.0,4.0,4.0,510.91568799165543,4.0,1.0,part_1,,,,,,,,,,,,,blue,cross
0.0,2.0,0.0,0.0,1.0,1.0,611.6005569929257,4.0,1.0,part_1,,,,,,,,,,,,,blue,cross
654.0,3.0,3.0,0.0,3.0,3.0,537.7928170055384,4.0,1.0,part_1,,,,,,,,,,,,,white,triangle
0.0,6.0,0.0,1.0,2.0,2.0,676.6309999948135,4.0,1.0,part_1,,,,,,,,,,,,,cyan,I
635.0,3.0,3.0,0.0,2.0,2.0,453.549258003477,4.0,1.0,part_1,,,,,,,,,,,,,white,triangle
1321.0,8.0,4.0,1.0,4.0,4.0,454.6597220032708,4.0,1.0,part_1,,,,,,,,,,,,,yellow,square
172.0,5.0,1.0,1.0,1.0,1.0,576.4444259984884,4.0,1.0,part_1,,,,,,,,,,,,,green,flipped triangle
155.0,5.0,1.0,1.0,1.0,1.0,483.3556590019725,4.0,1.0,part_1,,,,,,,,,,,,,green,flipped triangle
0.0,4.0,0.0,0.0,1.0,1.0,380.6074909953167,4.0,1.0,part_1,,,,,,,,,,,,,gray,circle
664.0,3.0,3.0,0.0,4.0,4.0,568.0190720013343,4.0,1.0,part_1,,,,,,,,,,,,,white,triangle
336.0,6.0,2.0,1.0,1.0,1.0,519.4410310068633,4.0,1.0,part_1,,,,,,,,,,,,,cyan,I
183.0,5.0,1.0,1.0,4.0,4.0,464.638229997945,4.0,1.0,part_1,,,,,,,,,,,,,green,flipped triangle
334.0,2.0,2.0,0.0,4.0,4.0,455.3274089994374,4.0,1.0,part_1,,,,,,,,,,,,,blue,cross
328.0,2.0,2.0,0.0,1.0,1.0,492.3514559923205,4.0,1.0,part_1,,,,,,,,,,,,,blue,cross
0.0,2.0,0.0,0.0,3.0,3.0,639.5582340046531,4.0,1.0,part_1,,,,,,,,,,,,,blue,cross
1284.0,8.0,4.0,1.0,1.0,1.0,500.02469899482094,4.0,1.0,part_1,,,,,,,,,,,,,yellow,square
332.0,2.0,2.0,0.0,2.0,2.0,399.4421279930975,4.0,1.0,part_1,,,,,,,,,,,,,blue,cross
1314.0,4.0,4.0,0.0,3.0,3.0,510.2435219887411,4.0,1.0,part_1,,,,,,,,,,,,,gray,circle
671.0,7.0,3.0,1.0,1.0,1.0,602.5885029957863,4.0,1.0,part_1,,,,,,,,,,,,,magenta,hexagon
174.0,5.0,1.0,1.0,2.0,2.0,417.9081220063381,4.0,1.0,part_1,,,,,,,,,,,,,green,flipped triangle
154.0,5.0,1.0,1.0,1.0,1.0,399.8424769961275,4.0,1.0,part_1,,,,,,,,,,,,,green,flipped triangle
0.0,2.0,0.0,0.0,1.0,1.0,408.6266600061208,4.0,1.0,part_1,,,,,,,,,,,,,blue,cross
153.0,1.0,1.0,0.0,4.0,4.0,631.4495289989281,4.0,1.0,part_1,,,,,,,,,,,,,orange,diamond
303.0,6.0,2.0,1.0,4.0,4.0,641.4936450019013,4.0,1.0,part_1,,,,,,,,,,,,,cyan,I
0.0,6.0,2.0,1.0,6.0,6.0,465.309191000415,1.0,0.0,part_2,go,250.0,250.0,1.0,,,,,,,,,cyan,I
0.0,3.0,3.0,0.0,6.0,6.0,324.7839740070048,1.0,0.0,part_2,go,250.0,250.0,1.0,,,,,,,,,white,triangle
0.0,3.0,3.0,0.0,5.0,5.0,335.1254540029913,1.0,0.0,part_2,go,250.0,250.0,1.0,,,,,,,,,white,triangle
0.0,5.0,1.0,1.0,5.0,0.0,0.0,1.0,0.0,part_2,stop,250.0,250.0,4.0,,,,,,,,,green,flipped triangle
0.0,8.0,4.0,1.0,5.0,5.0,363.6922599980607,1.0,0.0,part_2,stop,300.0,250.0,3.0,,,,,,,,,yellow,square
0.0,3.0,3.0,0.0,5.0,5.0,459.0614560001995,1.0,0.0,part_2,go,250.0,250.0,1.0,,,,,,,,,white,triangle
0.0,4.0,4.0,0.0,6.0,6.0,392.5933620048454,1.0,0.0,part_2,go,250.0,250.0,1.0,,,,,,,,,gray,circle
0.0,7.0,3.0,1.0,6.0,6.0,349.5933179947315,1.0,0.0,part_2,stop,250.0,250.0,3.0,,,,,,,,,magenta,hexagon
0.0,6.0,2.0,1.0,5.0,5.0,383.542354000383,1.0,0.0,part_2,stop,250.0,200.0,3.0,,,,,,,,,cyan,I
0.0,4.0,4.0,0.0,5.0,5.0,421.1239780124742,1.0,0.0,part_2,go,200.0,200.0,1.0,,,,,,,,,gray,circle
0.0,5.0,1.0,1.0,6.0,6.0,299.3437300028745,1.0,0.0,part_2,go,200.0,200.0,1.0,,,,,,,,,green,flipped triangle
0.0,4.0,4.0,0.0,6.0,6.0,420.5251759995008,1.0,0.0,part_2,go,200.0,200.0,1.0,,,,,,,,,gray,circle
0.0,8.0,4.0,1.0,5.0,5.0,321.6282119974494,1.0,0.0,part_2,stop,200.0,200.0,3.0,,,,,,,,,yellow,square
0.0,1.0,1.0,0.0,6.0,6.0,401.7156899935798,1.0,0.0,part_2,go,150.0,200.0,1.0,,,,,,,,,orange,diamond
0.0,2.0,2.0,0.0,5.0,5.0,507.3647190001793,1.0,0.0,part_2,go,150.0,200.0,1.0,,,,,,,,,blue,cross
0.0,3.0,3.0,0.0,6.0,6.0,312.0172719936818,1.0,0.0,part_2,go,150.0,200.0,1.0,,,,,,,,,white,triangle
0.0,5.0,1.0,1.0,5.0,5.0,470.2030119951814,1.0,0.0,part_2,go,150.0,200.0,1.0,,,,,,,,,green,flipped triangle
0.0,1.0,1.0,0.0,5.0,5.0,387.5122759927762,1.0,0.0,part_2,go,150.0,200.0,1.0,,,,,,,,,orange,diamond
0.0,5.0,1.0,1.0,6.0,0.0,0.0,1.0,0.0,part_2,stop,150.0,200.0,4.0,,,,,,,,,green,flipped triangle
0.0,2.0,2.0,0.0,6.0,6.0,617.753755999729,1.0,0.0,part_2,go,150.0,250.0,1.0,,,,,,,,,blue,cross
0.0,5.0,1.0,1.0,5.0,5.0,392.5300599948969,1.0,0.0,part_2,go,150.0,250.0,1.0,,,,,,,,,green,flipped triangle
0.0,3.0,3.0,0.0,6.0,6.0,327.8589010005817,1.0,0.0,part_2,go,150.0,250.0,1.0,,,,,,,,,white,triangle
0.0,1.0,1.0,0.0,5.0,5.0,830.4123729903949,1.0,0.0,part_2,go,150.0,250.0,1.0,,,,,,,,,orange,diamond
0.0,8.0,4.0,1.0,6.0,0.0,0.0,1.0,0.0,part_2,stop,150.0,250.0,4.0,,,,,,,,,yellow,square
0.0,1.0,1.0,0.0,6.0,6.0,429.5957959984662,1.0,0.0,part_2,go,150.0,300.0,1.0,,,,,,,,,orange,diamond
0.0,7.0,3.0,1.0,5.0,5.0,364.8342060041614,1.0,0.0,part_2,go,150.0,300.0,1.0,,,,,,,,,magenta,hexagon
0.0,6.0,2.0,1.0,5.0,5.0,354.5446149946656,1.0,0.0,part_2,stop,150.0,300.0,3.0,,,,,,,,,cyan,I
0.0,4.0,4.0,0.0,5.0,5.0,439.3551340035628,1.0,0.0,part_2,go,100.0,300.0,1.0,,,,,,,,,gray,circle
0.0,3.0,3.0,0.0,6.0,6.0,336.8582690018229,1.0,0.0,part_2,go,100.0,300.0,1.0,,,,,,,,,white,triangle
0.0,6.0,2.0,1.0,6.0,6.0,363.6916859977646,1.0,0.0,part_2,go,100.0,300.0,1.0,,,,,,,,,cyan,I
0.0,1.0,1.0,0.0,6.0,6.0,392.0120569964638,1.0,0.0,part_2,go,100.0,300.0,1.0,,,,,,,,,orange,diamond
0.0,3.0,3.0,0.0,6.0,6.0,744.3756580032641,1.0,0.0,part_2,go,100.0,300.0,1.0,,,,,,,,,white,triangle
0.0,7.0,3.0,1.0,5.0,0.0,0.0,1.0,0.0,part_2,stop,100.0,300.0,4.0,,,,,,,,,magenta,hexagon
0.0,1.0,1.0,0.0,6.0,6.0,425.1535840012366,1.0,0.0,part_2,go,150.0,300.0,1.0,,,,,,,,,orange,diamond
0.0,7.0,3.0,1.0,6.0,6.0,361.7814239987638,1.0,0.0,part_2,stop,150.0,300.0,3.0,,,,,,,,,magenta,hexagon
0.0,1.0,1.0,0.0,5.0,5.0,384.5410679932683,1.0,0.0,part_2,go,150.0,250.0,1.0,,,,,,,,,orange,diamond
0.0,2.0,2.0,0.0,5.0,5.0,505.50044000556227,2.0,0.0,part_2,go,150.0,250.0,1.0,,,,,,,,,blue,cross
0.0,4.0,4.0,0.0,6.0,6.0,309.557747998042,2.0,0.0,part_2,go,150.0,250.0,1.0,,,,,,,,,gray,circle
0.0,8.0,4.0,1.0,6.0,6.0,320.8578590129036,2.0,0.0,part_2,stop,150.0,250.0,3.0,,,,,,,,,yellow,square
0.0,1.0,1.0,0.0,6.0,6.0,392.4899470002856,2.0,0.0,part_2,go,150.0,200.0,1.0,,,,,,,,,orange,diamond
0.0,6.0,2.0,1.0,6.0,6.0,325.1538329932373,2.0,0.0,part_2,stop,150.0,200.0,3.0,,,,,,,,,cyan,I
0.0,2.0,2.0,0.0,6.0,6.0,373.0205989995738,2.0,0.0,part_2,go,150.0,150.0,1.0,,,,,,,,,blue,cross
0.0,7.0,3.0,1.0,6.0,6.0,300.2478959970176,2.0,0.0,part_2,stop,150.0,150.0,3.0,,,,,,,,,magenta,hexagon
0.0,4.0,4.0,0.0,5.0,5.0,505.424207993201,2.0,0.0,part_2,go,150.0,100.0,1.0,,,,,,,,,gray,circle
0.0,8.0,4.0,1.0,6.0,6.0,233.9140310068614,2.0,0.0,part_2,go,150.0,100.0,1.0,,,,,,,,,yellow,square
0.0,7.0,3.0,1.0,6.0,6.0,384.6787990041775,2.0,0.0,part_2,stop,150.0,100.0,3.0,,,,,,,,,magenta,hexagon
0.0,7.0,3.0,1.0,5.0,5.0,345.3575220046332,2.0,0.0,part_2,stop,150.0,50.0,3.0,,,,,,,,,magenta,hexagon
0.0,5.0,1.0,1.0,5.0,5.0,598.5422050143825,2.0,0.0,part_2,go,100.0,50.0,1.0,,,,,,,,,green,flipped triangle
0.0,5.0,1.0,1.0,6.0,0.0,0.0,2.0,0.0,part_2,stop,100.0,50.0,4.0,,,,,,,,,green,flipped triangle
0.0,6.0,2.0,1.0,5.0,0.0,0.0,2.0,0.0,part_2,stop,100.0,100.0,4.0,,,,,,,,,cyan,I
0.0,7.0,3.0,1.0,5.0,5.0,505.31368200608995,2.0,0.0,part_2,go,150.0,100.0,1.0,,,,,,,,,magenta,hexagon
0.0,7.0,3.0,1.0,6.0,0.0,0.0,2.0,0.0,part_2,stop,150.0,100.0,4.0,,,,,,,,,magenta,hexagon
0.0,6.0,2.0,1.0,5.0,5.0,487.4987109942594,2.0,0.0,part_2,go,150.0,150.0,1.0,,,,,,,,,cyan,I
0.0,2.0,2.0,0.0,5.0,5.0,449.8351009970065,2.0,0.0,part_2,go,150.0,150.0,1.0,,,,,,,,,blue,cross
0.0,8.0,4.0,1.0,6.0,0.0,0.0,2.0,0.0,part_2,stop,150.0,150.0,4.0,,,,,,,,,yellow,square
0.0,8.0,4.0,1.0,5.0,5.0,448.3834809943801,2.0,0.0,part_2,stop,150.0,200.0,3.0,,,,,,,,,yellow,square
0.0,1.0,1.0,0.0,5.0,5.0,607.9948830010835,2.0,0.0,part_2,go,100.0,200.0,1.0,,,,,,,,,orange,diamond
0.0,7.0,3.0,1.0,6.0,0.0,0.0,2.0,0.0,part_2,stop,100.0,200.0,4.0,,,,,,,,,magenta,hexagon
0.0,3.0,3.0,0.0,6.0,6.0,692.1032490063226,2.0,0.0,part_2,go,100.0,250.0,1.0,,,,,,,,,white,triangle
0.0,7.0,3.0,1.0,5.0,5.0,459.858294998412,2.0,0.0,part_2,go,100.0,250.0,1.0,,,,,,,,,magenta,hexagon
0.0,1.0,1.0,0.0,5.0,5.0,421.8609780073166,2.0,0.0,part_2,go,100.0,250.0,1.0,,,,,,,,,orange,diamond
0.0,2.0,2.0,0.0,6.0,6.0,431.5712200041162,2.0,0.0,part_2,go,100.0,250.0,1.0,,,,,,,,,blue,cross
0.0,2.0,2.0,0.0,6.0,6.0,476.9480109971482,2.0,0.0,part_2,go,100.0,250.0,1.0,,,,,,,,,blue,cross
0.0,5.0,1.0,1.0,6.0,6.0,452.0061839866685,2.0,0.0,part_2,stop,100.0,250.0,3.0,,,,,,,,,green,flipped triangle
0.0,3.0,3.0,0.0,6.0,6.0,674.8703630000819,2.0,0.0,part_2,go,100.0,200.0,1.0,,,,,,,,,white,triangle
0.0,4.0,4.0,0.0,6.0,6.0,469.2215099930763,2.0,0.0,part_2,go,100.0,200.0,1.0,,,,,,,,,gray,circle
0.0,8.0,4.0,1.0,5.0,0.0,0.0,2.0,0.0,part_2,stop,100.0,200.0,4.0,,,,,,,,,yellow,square
0.0,1.0,1.0,0.0,6.0,6.0,403.6194410000462,2.0,0.0,part_2,go,150.0,200.0,1.0,,,,,,,,,orange,diamond
0.0,6.0,2.0,1.0,5.0,0.0,0.0,2.0,0.0,part_2,stop,150.0,200.0,4.0,,,,,,,,,cyan,I
0.0,8.0,4.0,1.0,6.0,6.0,337.5202229944989,2.0,0.0,part_2,go,200.0,200.0,1.0,,,,,,,,,yellow,square
0.0,4.0,4.0,0.0,5.0,5.0,412.8793650015723,2.0,0.0,part_2,go,200.0,200.0,1.0,,,,,,,,,gray,circle
0.0,5.0,1.0,1.0,5.0,0.0,0.0,2.0,0.0,part_2,stop,200.0,200.0,4.0,,,,,,,,,green,flipped triangle
0.0,1.0,1.0,0.0,6.0,6.0,579.6693219890585,3.0,0.0,part_2,go,250.0,200.0,1.0,,,,,,,,,orange,diamond
0.0,8.0,4.0,1.0,6.0,0.0,0.0,3.0,0.0,part_2,stop,250.0,200.0,4.0,,,,,,,,,yellow,square
0.0,3.0,3.0,0.0,5.0,5.0,520.8476909901947,3.0,0.0,part_2,go,250.0,250.0,1.0,,,,,,,,,white,triangle
0.0,4.0,4.0,0.0,5.0,5.0,456.6217719984706,3.0,0.0,part_2,go,250.0,250.0,1.0,,,,,,,,,gray,circle
0.0,2.0,2.0,0.0,6.0,6.0,512.3969480046071,3.0,0.0,part_2,go,250.0,250.0,1.0,,,,,,,,,blue,cross
0.0,1.0,1.0,0.0,5.0,5.0,355.0755299947923,3.0,0.0,part_2,go,250.0,250.0,1.0,,,,,,,,,orange,diamond
0.0,1.0,1.0,0.0,5.0,5.0,354.4288139964919,3.0,0.0,part_2,go,250.0,250.0,1.0,,,,,,,,,orange,diamond
0.0,7.0,3.0,1.0,5.0,5.0,299.0382120042341,3.0,0.0,part_2,go,250.0,250.0,1.0,,,,,,,,,magenta,hexagon
0.0,6.0,2.0,1.0,5.0,5.0,336.6337570041651,3.0,0.0,part_2,stop,250.0,250.0,3.0,,,,,,,,,cyan,I
0.0,6.0,2.0,1.0,5.0,5.0,351.7339310055831,3.0,0.0,part_2,stop,200.0,250.0,3.0,,,,,,,,,cyan,I
0.0,8.0,4.0,1.0,5.0,5.0,279.224736004835,3.0,0.0,part_2,stop,150.0,250.0,3.0,,,,,,,,,yellow,square
0.0,6.0,2.0,1.0,6.0,6.0,469.1110099956859,3.0,0.0,part_2,go,100.0,250.0,1.0,,,,,,,,,cyan,I
0.0,4.0,4.0,0.0,5.0,5.0,335.48098099709017,3.0,0.0,part_2,go,100.0,250.0,1.0,,,,,,,,,gray,circle
0.0,2.0,2.0,0.0,5.0,5.0,337.226991992793,3.0,0.0,part_2,go,100.0,250.0,1.0,,,,,,,,,blue,cross
0.0,4.0,4.0,0.0,5.0,5.0,337.940265002544,3.0,0.0,part_2,go,100.0,250.0,1.0,,,,,,,,,gray,circle
0.0,1.0,1.0,0.0,6.0,6.0,328.3279839961324,3.0,0.0,part_2,go,100.0,250.0,1.0,,,,,,,,,orange,diamond
0.0,7.0,3.0,1.0,6.0,6.0,371.4546239934861,3.0,0.0,part_2,stop,100.0,250.0,3.0,,,,,,,,,magenta,hexagon
0.0,6.0,2.0,1.0,5.0,5.0,318.0287949944613,3.0,0.0,part_2,go,100.0,200.0,1.0,,,,,,,,,cyan,I
0.0,5.0,1.0,1.0,5.0,5.0,338.6599439982092,3.0,0.0,part_2,stop,100.0,200.0,3.0,,,,,,,,,green,flipped triangle
0.0,2.0,2.0,0.0,5.0,5.0,326.6078659944469,3.0,0.0,part_2,go,50.0,200.0,1.0,,,,,,,,,blue,cross
0.0,3.0,3.0,0.0,5.0,5.0,337.5942630082136,3.0,0.0,part_2,go,50.0,200.0,1.0,,,,,,,,,white,triangle
0.0,5.0,1.0,1.0,6.0,6.0,341.5172180102672,3.0,0.0,part_2,stop,50.0,200.0,3.0,,,,,,,,,green,flipped triangle
0.0,5.0,1.0,1.0,6.0,6.0,325.7293700007722,3.0,0.0,part_2,stop,50.0,150.0,3.0,,,,,,,,,green,flipped triangle
0.0,3.0,3.0,0.0,5.0,5.0,524.8221899964847,3.0,0.0,part_2,go,50.0,100.0,1.0,,,,,,,,,white,triangle
0.0,1.0,1.0,0.0,6.0,6.0,289.3024000077275,3.0,0.0,part_2,go,50.0,100.0,1.0,,,,,,,,,orange,diamond
0.0,4.0,4.0,0.0,6.0,6.0,308.8760450045811,3.0,0.0,part_2,go,50.0,100.0,1.0,,,,,,,,,gray,circle
0.0,4.0,4.0,0.0,6.0,6.0,290.6888090074062,3.0,0.0,part_2,go,50.0,100.0,1.0,,,,,,,,,gray,circle
0.0,8.0,4.0,1.0,6.0,6.0,298.9982549916021,3.0,0.0,part_2,go,50.0,100.0,1.0,,,,,,,,,yellow,square
0.0,6.0,2.0,1.0,5.0,5.0,310.5557369999587,3.0,0.0,part_2,go,50.0,100.0,1.0,,,,,,,,,cyan,I
0.0,2.0,2.0,0.0,5.0,5.0,327.8910779918078,3.0,0.0,part_2,go,50.0,100.0,1.0,,,,,,,,,blue,cross
0.0,6.0,2.0,1.0,5.0,5.0,279.2433529975824,3.0,0.0,part_2,stop,50.0,100.0,3.0,,,,,,,,,cyan,I
0.0,8.0,4.0,1.0,5.0,0.0,0.0,3.0,0.0,part_2,stop,0.0,100.0,4.0,,,,,,,,,yellow,square
0.0,3.0,3.0,0.0,5.0,5.0,428.8428259897046,3.0,0.0,part_2,go,50.0,100.0,1.0,,,,,,,,,white,triangle
0.0,4.0,4.0,0.0,5.0,5.0,334.7079110099002,3.0,0.0,part_2,go,50.0,100.0,1.0,,,,,,,,,gray,circle
0.0,1.0,1.0,0.0,5.0,5.0,346.3168630114523,3.0,0.0,part_2,go,50.0,100.0,1.0,,,,,,,,,orange,diamond
0.0,4.0,4.0,0.0,6.0,6.0,328.3290510007646,3.0,0.0,part_2,go,50.0,100.0,1.0,,,,,,,,,gray,circle
0.0,4.0,4.0,0.0,6.0,6.0,843.6968689929927,4.0,0.0,part_2,go,50.0,100.0,1.0,,,,,,,,,gray,circle
0.0,2.0,2.0,0.0,5.0,5.0,411.4461669960292,4.0,0.0,part_2,go,50.0,100.0,1.0,,,,,,,,,blue,cross
0.0,4.0,4.0,0.0,5.0,5.0,355.0024420110276,4.0,0.0,part_2,go,50.0,100.0,1.0,,,,,,,,,gray,circle
0.0,4.0,4.0,0.0,5.0,5.0,430.0482599937822,4.0,0.0,part_2,go,50.0,100.0,1.0,,,,,,,,,gray,circle
0.0,6.0,2.0,1.0,6.0,6.0,401.0124230117071,4.0,0.0,part_2,go,50.0,100.0,1.0,,,,,,,,,cyan,I
0.0,7.0,3.0,1.0,6.0,0.0,0.0,4.0,0.0,part_2,stop,50.0,100.0,4.0,,,,,,,,,magenta,hexagon
0.0,2.0,2.0,0.0,6.0,6.0,634.4565129984403,4.0,0.0,part_2,go,50.0,150.0,1.0,,,,,,,,,blue,cross
0.0,6.0,2.0,1.0,6.0,0.0,0.0,4.0,0.0,part_2,stop,50.0,150.0,4.0,,,,,,,,,cyan,I
0.0,5.0,1.0,1.0,5.0,0.0,0.0,4.0,0.0,part_2,stop,50.0,200.0,4.0,,,,,,,,,green,flipped triangle
0.0,5.0,1.0,1.0,5.0,5.0,402.1085129934363,4.0,0.0,part_2,go,100.0,200.0,1.0,,,,,,,,,green,flipped triangle
0.0,7.0,3.0,1.0,5.0,0.0,0.0,4.0,0.0,part_2,stop,100.0,200.0,4.0,,,,,,,,,magenta,hexagon
0.0,6.0,2.0,1.0,5.0,0.0,0.0,4.0,0.0,part_2,stop,150.0,200.0,4.0,,,,,,,,,cyan,I
0.0,4.0,4.0,0.0,6.0,6.0,456.8911050009774,4.0,0.0,part_2,go,200.0,200.0,1.0,,,,,,,,,gray,circle
0.0,8.0,4.0,1.0,6.0,0.0,0.0,4.0,0.0,part_2,stop,200.0,200.0,4.0,,,,,,,,,yellow,square
0.0,8.0,4.0,1.0,5.0,0.0,0.0,4.0,0.0,part_2,stop,200.0,250.0,4.0,,,,,,,,,yellow,square
0.0,8.0,4.0,1.0,6.0,0.0,0.0,4.0,0.0,part_2,stop,250.0,250.0,4.0,,,,,,,,,yellow,square
0.0,5.0,1.0,1.0,6.0,6.0,597.7851780044148,4.0,0.0,part_2,go,250.0,300.0,1.0,,,,,,,,,green,flipped triangle
0.0,1.0,1.0,0.0,5.0,5.0,458.1374769913964,4.0,0.0,part_2,go,250.0,300.0,1.0,,,,,,,,,orange,diamond
0.0,8.0,4.0,1.0,6.0,0.0,0.0,4.0,0.0,part_2,stop,250.0,300.0,4.0,,,,,,,,,yellow,square
0.0,8.0,4.0,1.0,5.0,0.0,0.0,4.0,0.0,part_2,stop,250.0,350.0,4.0,,,,,,,,,yellow,square
0.0,1.0,1.0,0.0,5.0,5.0,587.0483170001535,4.0,0.0,part_2,go,300.0,350.0,1.0,,,,,,,,,orange,diamond
0.0,1.0,1.0,0.0,6.0,6.0,609.2631939973217,4.0,0.0,part_2,go,300.0,350.0,1.0,,,,,,,,,orange,diamond
0.0,5.0,1.0,1.0,6.0,6.0,610.7501590013271,4.0,0.0,part_2,stop,300.0,350.0,3.0,,,,,,,,,green,flipped triangle
0.0,2.0,2.0,0.0,6.0,6.0,747.3636549984803,4.0,0.0,part_2,go,300.0,300.0,1.0,,,,,,,,,blue,cross
0.0,5.0,1.0,1.0,6.0,0.0,0.0,4.0,0.0,part_2,stop,300.0,300.0,4.0,,,,,,,,,green,flipped triangle
0.0,6.0,2.0,1.0,5.0,0.0,0.0,4.0,0.0,part_2,stop,300.0,350.0,4.0,,,,,,,,,cyan,I
0.0,7.0,3.0,1.0,6.0,6.0,749.1615059989272,4.0,0.0,part_2,go,350.0,350.0,1.0,,,,,,,,,magenta,hexagon
0.0,1.0,1.0,0.0,6.0,6.0,765.1629050087649,4.0,0.0,part_2,go,350.0,350.0,1.0,,,,,,,,,orange,diamond
0.0,1.0,1.0,0.0,6.0,6.0,756.2103219970595,4.0,0.0,part_2,go,350.0,350.0,1.0,,,,,,,,,orange,diamond
0.0,5.0,1.0,1.0,5.0,0.0,0.0,4.0,0.0,part_2,stop,350.0,350.0,4.0,,,,,,,,,green,flipped triangle
0.0,1.0,1.0,0.0,5.0,5.0,802.5581580004655,4.0,0.0,part_2,go,400.0,350.0,1.0,,,,,,,,,orange,diamond
0.0,5.0,1.0,1.0,5.0,0.0,0.0,4.0,0.0,part_2,stop,400.0,350.0,4.0,,,,,,,,,green,flipped triangle
0.0,7.0,3.0,1.0,5.0,0.0,0.0,4.0,0.0,part_2,stop,450.0,350.0,4.0,,,,,,,,,magenta,hexagon
0.0,5.0,1.0,1.0,6.0,0.0,0.0,4.0,0.0,part_2,stop,500.0,350.0,4.0,,,,,,,,,green,flipped triangle
0.0,5.0,1.0,1.0,6.0,6.0,682.8120360005414,4.0,0.0,part_2,go,500.0,400.0,1.0,,,,,,,,,green,flipped triangle
0.0,4.0,4.0,0.0,5.0,5.0,542.1438229968771,4.0,0.0,part_2,go,500.0,400.0,1.0,,,,,,,,,gray,circle
0.0,6.0,2.0,1.0,5.0,5.0,814.5230210066075,5.0,0.0,part_2,go,500.0,400.0,1.0,,,,,,,,,cyan,I
0.0,3.0,3.0,0.0,5.0,5.0,504.4665850000456,5.0,0.0,part_2,go,500.0,400.0,1.0,,,,,,,,,white,triangle
0.0,3.0,3.0,0.0,5.0,5.0,365.4226979997474,5.0,0.0,part_2,go,500.0,400.0,1.0,,,,,,,,,white,triangle
0.0,3.0,3.0,0.0,5.0,5.0,410.7628350029699,5.0,0.0,part_2,go,500.0,400.0,1.0,,,,,,,,,white,triangle
0.0,6.0,2.0,1.0,5.0,5.0,364.4686050101882,5.0,0.0,part_2,go,500.0,400.0,1.0,,,,,,,,,cyan,I
0.0,6.0,2.0,1.0,5.0,5.0,418.6885449889814,5.0,0.0,part_2,stop,500.0,400.0,3.0,,,,,,,,,cyan,I
0.0,5.0,1.0,1.0,5.0,0.0,0.0,5.0,0.0,part_2,stop,450.0,400.0,4.0,,,,,,,,,green,flipped triangle
0.0,8.0,4.0,1.0,5.0,5.0,742.3508320061956,5.0,0.0,part_2,go,500.0,400.0,1.0,,,,,,,,,yellow,square
0.0,8.0,4.0,1.0,6.0,0.0,0.0,5.0,0.0,part_2,stop,500.0,400.0,4.0,,,,,,,,,yellow,square
0.0,1.0,1.0,0.0,6.0,6.0,785.8052450028481,5.0,0.0,part_2,go,500.0,450.0,1.0,,,,,,,,,orange,diamond
0.0,5.0,1.0,1.0,6.0,6.0,554.9255789956078,5.0,0.0,part_2,stop,500.0,450.0,3.0,,,,,,,,,green,flipped triangle
0.0,4.0,4.0,0.0,6.0,6.0,720.9278829977848,5.0,0.0,part_2,go,500.0,400.0,1.0,,,,,,,,,gray,circle
0.0,8.0,4.0,1.0,5.0,5.0,641.5715820039622,5.0,0.0,part_2,stop,500.0,400.0,3.0,,,,,,,,,yellow,square
0.0,1.0,1.0,0.0,6.0,6.0,897.0221119961934,5.0,0.0,part_2,go,450.0,400.0,1.0,,,,,,,,,orange,diamond
0.0,1.0,1.0,0.0,5.0,5.0,860.7797629956622,5.0,0.0,part_2,go,450.0,400.0,1.0,,,,,,,,,orange,diamond
0.0,8.0,4.0,1.0,5.0,5.0,491.3220369926421,5.0,0.0,part_2,stop,450.0,400.0,3.0,,,,,,,,,yellow,square
0.0,6.0,2.0,1.0,6.0,0.0,0.0,5.0,0.0,part_2,stop,400.0,400.0,4.0,,,,,,,,,cyan,I
0.0,3.0,3.0,0.0,6.0,6.0,850.6499390059616,5.0,0.0,part_2,go,400.0,450.0,1.0,,,,,,,,,white,triangle
0.0,2.0,2.0,0.0,6.0,6.0,879.1315519920317,5.0,0.0,part_2,go,400.0,450.0,1.0,,,,,,,,,blue,cross
0.0,8.0,4.0,1.0,5.0,0.0,0.0,5.0,0.0,part_2,stop,400.0,450.0,4.0,,,,,,,,,yellow,square
0.0,3.0,3.0,0.0,5.0,5.0,823.732924007345,5.0,0.0,part_2,go,450.0,450.0,1.0,,,,,,,,,white,triangle
0.0,5.0,1.0,1.0,5.0,0.0,0.0,5.0,0.0,part_2,stop,450.0,450.0,4.0,,,,,,,,,green,flipped triangle
0.0,3.0,3.0,0.0,6.0,6.0,730.2963929978432,5.0,0.0,part_2,go,500.0,450.0,1.0,,,,,,,,,white,triangle
0.0,4.0,4.0,0.0,6.0,6.0,635.7217269978719,5.0,0.0,part_2,go,500.0,450.0,1.0,,,,,,,,,gray,circle
0.0,8.0,4.0,1.0,5.0,0.0,0.0,5.0,0.0,part_2,stop,500.0,450.0,4.0,,,,,,,,,yellow,square
0.0,4.0,4.0,0.0,6.0,6.0,364.450303997728,5.0,0.0,part_2,go,550.0,450.0,1.0,,,,,,,,,gray,circle
0.0,2.0,2.0,0.0,5.0,5.0,926.581376013928,5.0,0.0,part_2,go,550.0,450.0,1.0,,,,,,,,,blue,cross
0.0,3.0,3.0,0.0,6.0,6.0,860.1712749950821,5.0,0.0,part_2,go,550.0,450.0,1.0,,,,,,,,,white,triangle
0.0,6.0,2.0,1.0,6.0,6.0,439.3796530057443,5.0,0.0,part_2,stop,550.0,450.0,3.0,,,,,,,,,cyan,I
0.0,7.0,3.0,1.0,5.0,0.0,0.0,5.0,0.0,part_2,stop,550.0,400.0,4.0,,,,,,,,,magenta,hexagon
0.0,2.0,2.0,0.0,6.0,6.0,849.7887989942683,5.0,0.0,part_2,go,600.0,400.0,1.0,,,,,,,,,blue,cross
0.0,2.0,2.0,0.0,5.0,5.0,1056.858762996853,5.0,0.0,part_2,go,600.0,400.0,1.0,,,,,,,,,blue,cross
0.0,1.0,1.0,0.0,5.0,5.0,812.8950739919674,5.0,0.0,part_2,go,600.0,400.0,1.0,,,,,,,,,orange,diamond
0.0,2.0,2.0,0.0,6.0,6.0,606.9006610050565,5.0,0.0,part_2,go,600.0,400.0,1.0,,,,,,,,,blue,cross
0.0,7.0,3.0,1.0,5.0,0.0,0.0,5.0,0.0,part_2,stop,600.0,400.0,4.0,,,,,,,,,magenta,hexagon
0.0,5.0,1.0,1.0,6.0,0.0,0.0,5.0,0.0,part_2,stop,650.0,400.0,4.0,,,,,,,,,green,flipped triangle
0.0,8.0,4.0,1.0,6.0,0.0,0.0,6.0,0.0,part_2,stop,650.0,450.0,4.0,,,,,,,,,yellow,square
0.0,1.0,1.0,0.0,6.0,6.0,607.1519820106914,6.0,0.0,part_2,go,650.0,500.0,1.0,,,,,,,,,orange,diamond
0.0,4.0,4.0,0.0,6.0,6.0,534.5166309998604,6.0,0.0,part_2,go,650.0,500.0,1.0,,,,,,,,,gray,circle
0.0,7.0,3.0,1.0,5.0,0.0,0.0,6.0,0.0,part_2,stop,650.0,500.0,4.0,,,,,,,,,magenta,hexagon
0.0,6.0,2.0,1.0,6.0,0.0,0.0,6.0,0.0,part_2,stop,700.0,500.0,4.0,,,,,,,,,cyan,I
0.0,7.0,3.0,1.0,5.0,0.0,0.0,6.0,0.0,part_2,stop,700.0,550.0,4.0,,,,,,,,,magenta,hexagon
0.0,2.0,2.0,0.0,5.0,5.0,759.1938080004184,6.0,0.0,part_2,go,750.0,550.0,1.0,,,,,,,,,blue,cross
0.0,1.0,1.0,0.0,6.0,6.0,824.1037270054221,6.0,0.0,part_2,go,750.0,550.0,1.0,,,,,,,,,orange,diamond
0.0,3.0,3.0,0.0,5.0,5.0,602.7698590041837,6.0,0.0,part_2,go,750.0,550.0,1.0,,,,,,,,,white,triangle
0.0,3.0,3.0,0.0,5.0,5.0,599.5784900005674,6.0,0.0,part_2,go,750.0,550.0,1.0,,,,,,,,,white,triangle
0.0,4.0,4.0,0.0,5.0,5.0,592.1762840007432,6.0,0.0,part_2,go,750.0,550.0,1.0,,,,,,,,,gray,circle
0.0,7.0,3.0,1.0,6.0,0.0,0.0,6.0,0.0,part_2,stop,750.0,550.0,4.0,,,,,,,,,magenta,hexagon
0.0,8.0,4.0,1.0,5.0,0.0,0.0,6.0,0.0,part_2,stop,750.0,600.0,4.0,,,,,,,,,yellow,square
0.0,1.0,1.0,0.0,5.0,5.0,759.4135529943742,6.0,0.0,part_2,go,800.0,600.0,1.0,,,,,,,,,orange,diamond
0.0,8.0,4.0,1.0,6.0,6.0,1170.5137730023123,6.0,0.0,part_2,go,800.0,600.0,1.0,,,,,,,,,yellow,square
0.0,6.0,2.0,1.0,6.0,0.0,0.0,6.0,0.0,part_2,stop,800.0,600.0,4.0,,,,,,,,,cyan,I
0.0,4.0,4.0,0.0,6.0,6.0,532.8700360114453,6.0,0.0,part_2,go,800.0,650.0,1.0,,,,,,,,,gray,circle
0.0,3.0,3.0,0.0,6.0,6.0,561.8266649980797,6.0,0.0,part_2,go,800.0,650.0,1.0,,,,,,,,,white,triangle
0.0,5.0,1.0,1.0,6.0,6.0,717.772842006525,6.0,0.0,part_2,stop,800.0,650.0,3.0,,,,,,,,,green,flipped triangle
0.0,3.0,3.0,0.0,6.0,6.0,477.4364330078242,6.0,0.0,part_2,go,800.0,600.0,1.0,,,,,,,,,white,triangle
0.0,6.0,2.0,1.0,6.0,0.0,0.0,6.0,0.0,part_2,stop,800.0,600.0,4.0,,,,,,,,,cyan,I
0.0,7.0,3.0,1.0,6.0,0.0,0.0,6.0,0.0,part_2,stop,800.0,650.0,4.0,,,,,,,,,magenta,hexagon
0.0,2.0,2.0,0.0,6.0,6.0,633.7961029930739,6.0,0.0,part_2,go,800.0,700.0,1.0,,,,,,,,,blue,cross
0.0,3.0,3.0,0.0,5.0,5.0,570.9788099920843,6.0,0.0,part_2,go,800.0,700.0,1.0,,,,,,,,,white,triangle
0.0,7.0,3.0,1.0,6.0,6.0,1270.958934008377,6.0,0.0,part_2,go,800.0,700.0,1.0,,,,,,,,,magenta,hexagon
0.0,2.0,2.0,0.0,6.0,6.0,521.9069099985063,6.0,0.0,part_2,go,800.0,700.0,1.0,,,,,,,,,blue,cross
0.0,1.0,1.0,0.0,5.0,5.0,561.3922060001642,6.0,0.0,part_2,go,800.0,700.0,1.0,,,,,,,,,orange,diamond
0.0,5.0,1.0,1.0,5.0,5.0,763.9404880028451,6.0,0.0,part_2,stop,800.0,700.0,3.0,,,,,,,,,green,flipped triangle
0.0,6.0,2.0,1.0,6.0,0.0,0.0,6.0,0.0,part_2,stop,750.0,700.0,4.0,,,,,,,,,cyan,I
0.0,2.0,2.0,0.0,6.0,6.0,558.4056520019658,6.0,0.0,part_2,go,750.0,750.0,1.0,,,,,,,,,blue,cross
0.0,5.0,1.0,1.0,6.0,6.0,891.8247830006294,6.0,0.0,part_2,stop,750.0,750.0,3.0,,,,,,,,,green,flipped triangle
0.0,3.0,3.0,0.0,5.0,5.0,476.6570680076256,6.0,0.0,part_2,go,750.0,700.0,1.0,,,,,,,,,white,triangle
0.0,6.0,2.0,1.0,5.0,0.0,0.0,6.0,0.0,part_2,stop,750.0,700.0,4.0,,,,,,,,,cyan,I
0.0,3.0,3.0,0.0,6.0,6.0,493.5533930110978,6.0,0.0,part_2,go,800.0,700.0,1.0,,,,,,,,,white,triangle
0.0,7.0,3.0,1.0,5.0,0.0,0.0,6.0,0.0,part_2,stop,800.0,700.0,4.0,,,,,,,,,magenta,hexagon
0.0,2.0,2.0,0.0,5.0,5.0,542.4622099963017,6.0,0.0,part_2,go,850.0,700.0,1.0,,,,,,,,,blue,cross
0.0,3.0,3.0,0.0,6.0,6.0,597.0632320095319,7.0,0.0,part_2,go,850.0,700.0,1.0,,,,,,,,,white,triangle
0.0,4.0,4.0,0.0,5.0,5.0,477.5062459957553,7.0,0.0,part_2,go,850.0,700.0,1.0,,,,,,,,,gray,circle
0.0,2.0,2.0,0.0,5.0,5.0,586.4829689962789,7.0,0.0,part_2,go,850.0,700.0,1.0,,,,,,,,,blue,cross
0.0,3.0,3.0,0.0,6.0,6.0,402.0854359987424,7.0,0.0,part_2,go,850.0,700.0,1.0,,,,,,,,,white,triangle
0.0,8.0,4.0,1.0,6.0,6.0,1212.0813139918027,7.0,0.0,part_2,go,850.0,700.0,1.0,,,,,,,,,yellow,square
0.0,8.0,4.0,1.0,6.0,6.0,430.2413359982893,7.0,0.0,part_2,go,850.0,700.0,1.0,,,,,,,,,yellow,square
0.0,7.0,3.0,1.0,6.0,6.0,1224.5394450001186,7.0,0.0,part_2,go,850.0,700.0,1.0,,,,,,,,,magenta,hexagon
0.0,8.0,4.0,1.0,6.0,6.0,675.1094789942726,7.0,0.0,part_2,stop,850.0,700.0,3.0,,,,,,,,,yellow,square
0.0,6.0,2.0,1.0,6.0,0.0,0.0,7.0,0.0,part_2,stop,850.0,650.0,4.0,,,,,,,,,cyan,I
0.0,3.0,3.0,0.0,5.0,5.0,599.5478350087069,7.0,0.0,part_2,go,850.0,700.0,1.0,,,,,,,,,white,triangle
0.0,7.0,3.0,1.0,5.0,0.0,0.0,7.0,0.0,part_2,stop,850.0,700.0,4.0,,,,,,,,,magenta,hexagon
0.0,2.0,2.0,0.0,5.0,5.0,598.8454059988726,7.0,0.0,part_2,go,900.0,700.0,1.0,,,,,,,,,blue,cross
0.0,6.0,2.0,1.0,5.0,0.0,0.0,7.0,0.0,part_2,stop,900.0,700.0,4.0,,,,,,,,,cyan,I
0.0,4.0,4.0,0.0,6.0,6.0,568.0528140073875,7.0,0.0,part_2,go,950.0,700.0,1.0,,,,,,,,,gray,circle
0.0,7.0,3.0,1.0,5.0,0.0,0.0,7.0,0.0,part_2,stop,950.0,700.0,4.0,,,,,,,,,magenta,hexagon
0.0,7.0,3.0,1.0,6.0,0.0,0.0,7.0,0.0,part_2,stop,1000.0,700.0,4.0,,,,,,,,,magenta,hexagon
0.0,7.0,3.0,1.0,6.0,0.0,0.0,7.0,0.0,part_2,stop,1000.0,750.0,4.0,,,,,,,,,magenta,hexagon
0.0,3.0,3.0,0.0,6.0,6.0,560.7993180019548,7.0,0.0,part_2,go,1000.0,800.0,1.0,,,,,,,,,white,triangle
0.0,2.0,2.0,0.0,5.0,5.0,550.5595549911959,7.0,0.0,part_2,go,1000.0,800.0,1.0,,,,,,,,,blue,cross
0.0,4.0,4.0,0.0,6.0,6.0,456.5493150003021,7.0,0.0,part_2,go,1000.0,800.0,1.0,,,,,,,,,gray,circle
0.0,2.0,2.0,0.0,6.0,6.0,403.1186530046398,7.0,0.0,part_2,go,1000.0,800.0,1.0,,,,,,,,,blue,cross
0.0,4.0,4.0,0.0,5.0,5.0,466.6034480032976,7.0,0.0,part_2,go,1000.0,800.0,1.0,,,,,,,,,gray,circle
0.0,4.0,4.0,0.0,5.0,5.0,401.1517030012328,7.0,0.0,part_2,go,1000.0,800.0,1.0,,,,,,,,,gray,circle
0.0,4.0,4.0,0.0,6.0,6.0,365.2332360070431,7.0,0.0,part_2,go,1000.0,800.0,1.0,,,,,,,,,gray,circle
0.0,1.0,1.0,0.0,6.0,6.0,664.67379500682,7.0,0.0,part_2,go,1000.0,800.0,1.0,,,,,,,,,orange,diamond
0.0,6.0,2.0,1.0,6.0,0.0,0.0,7.0,0.0,part_2,stop,1000.0,800.0,4.0,,,,,,,,,cyan,I
0.0,2.0,2.0,0.0,5.0,5.0,568.3002769947052,7.0,0.0,part_2,go,1000.0,850.0,1.0,,,,,,,,,blue,cross
0.0,5.0,1.0,1.0,5.0,5.0,728.5306609992404,7.0,0.0,part_2,stop,1000.0,850.0,3.0,,,,,,,,,green,flipped triangle
0.0,8.0,4.0,1.0,5.0,0.0,0.0,7.0,0.0,part_2,stop,950.0,850.0,4.0,,,,,,,,,yellow,square
0.0,1.0,1.0,0.0,5.0,5.0,1473.0223740043584,7.0,0.0,part_2,go,1000.0,850.0,1.0,,,,,,,,,orange,diamond
0.0,7.0,3.0,1.0,6.0,0.0,0.0,7.0,0.0,part_2,stop,1000.0,850.0,4.0,,,,,,,,,magenta,hexagon
0.0,3.0,3.0,0.0,5.0,5.0,550.4674850089941,7.0,0.0,part_2,go,1000.0,900.0,1.0,,,,,,,,,white,triangle
0.0,8.0,4.0,1.0,5.0,5.0,1313.6201520101167,7.0,0.0,part_2,go,1000.0,900.0,1.0,,,,,,,,,yellow,square
0.0,8.0,4.0,1.0,5.0,5.0,561.8765440012794,7.0,0.0,part_2,go,1000.0,900.0,1.0,,,,,,,,,yellow,square
0.0,5.0,1.0,1.0,6.0,0.0,0.0,7.0,0.0,part_2,stop,1000.0,900.0,4.0,,,,,,,,,green,flipped triangle
0.0,7.0,3.0,1.0,5.0,5.0,1314.2036910139725,7.0,0.0,part_2,go,1000.0,950.0,1.0,,,,,,,,,magenta,hexagon
0.0,7.0,3.0,1.0,5.0,5.0,522.5259709986858,8.0,0.0,part_2,go,1000.0,950.0,1.0,,,,,,,,,magenta,hexagon
0.0,8.0,4.0,1.0,6.0,6.0,317.5271329964744,8.0,0.0,part_2,stop,1000.0,950.0,3.0,,,,,,,,,yellow,square
0.0,4.0,4.0,0.0,5.0,5.0,531.3996120094089,8.0,0.0,part_2,go,1000.0,900.0,1.0,,,,,,,,,gray,circle
0.0,3.0,3.0,0.0,5.0,5.0,395.1114759984193,8.0,0.0,part_2,go,1000.0,900.0,1.0,,,,,,,,,white,triangle
0.0,4.0,4.0,0.0,5.0,5.0,403.0014950112672,8.0,0.0,part_2,go,1000.0,900.0,1.0,,,,,,,,,gray,circle
0.0,6.0,2.0,1.0,6.0,6.0,376.6495040035806,8.0,0.0,part_2,stop,1000.0,900.0,3.0,,,,,,,,,cyan,I
0.0,5.0,1.0,1.0,5.0,5.0,1211.6762959922198,8.0,0.0,part_2,stop,1000.0,850.0,3.0,,,,,,,,,green,flipped triangle
0.0,8.0,4.0,1.0,6.0,0.0,0.0,8.0,0.0,part_2,stop,950.0,850.0,4.0,,,,,,,,,yellow,square
0.0,2.0,2.0,0.0,6.0,6.0,493.6762429861119,8.0,0.0,part_2,go,950.0,900.0,1.0,,,,,,,,,blue,cross
0.0,4.0,4.0,0.0,5.0,5.0,410.5804309947416,8.0,0.0,part_2,go,950.0,900.0,1.0,,,,,,,,,gray,circle
0.0,5.0,1.0,1.0,6.0,6.0,1064.859730002354,8.0,0.0,part_2,stop,950.0,900.0,3.0,,,,,,,,,green,flipped triangle
0.0,3.0,3.0,0.0,6.0,6.0,447.5223769986769,8.0,0.0,part_2,go,950.0,850.0,1.0,,,,,,,,,white,triangle
0.0,6.0,2.0,1.0,6.0,0.0,0.0,8.0,0.0,part_2,stop,950.0,850.0,4.0,,,,,,,,,cyan,I
0.0,1.0,1.0,0.0,5.0,5.0,402.3141130019212,8.0,0.0,part_2,go,950.0,900.0,1.0,,,,,,,,,orange,diamond
0.0,1.0,1.0,0.0,5.0,5.0,422.2520850016735,8.0,0.0,part_2,go,950.0,900.0,1.0,,,,,,,,,orange,diamond
0.0,7.0,3.0,1.0,6.0,6.0,466.3188220001757,8.0,0.0,part_2,stop,950.0,900.0,3.0,,,,,,,,,magenta,hexagon
0.0,4.0,4.0,0.0,6.0,6.0,439.8141809942899,8.0,0.0,part_2,go,950.0,850.0,1.0,,,,,,,,,gray,circle
0.0,2.0,2.0,0.0,6.0,6.0,328.0806820112047,8.0,0.0,part_2,go,950.0,850.0,1.0,,,,,,,,,blue,cross
0.0,3.0,3.0,0.0,6.0,6.0,318.7572130118496,8.0,0.0,part_2,go,950.0,850.0,1.0,,,,,,,,,white,triangle
0.0,6.0,2.0,1.0,5.0,5.0,316.8287760054227,8.0,0.0,part_2,stop,950.0,850.0,3.0,,,,,,,,,cyan,I
0.0,5.0,1.0,1.0,6.0,6.0,252.9621590074384,8.0,0.0,part_2,stop,900.0,850.0,3.0,,,,,,,,,green,flipped triangle
0.0,6.0,2.0,1.0,6.0,0.0,0.0,8.0,0.0,part_2,stop,900.0,800.0,4.0,,,,,,,,,cyan,I
0.0,2.0,2.0,0.0,5.0,5.0,553.6908489884809,8.0,0.0,part_2,go,900.0,850.0,1.0,,,,,,,,,blue,cross
0.0,6.0,2.0,1.0,6.0,0.0,0.0,8.0,0.0,part_2,stop,900.0,850.0,4.0,,,,,,,,,cyan,I
0.0,3.0,3.0,0.0,5.0,5.0,553.4765339980368,8.0,0.0,part_2,go,900.0,900.0,1.0,,,,,,,,,white,triangle
0.0,8.0,4.0,1.0,5.0,0.0,0.0,8.0,0.0,part_2,stop,900.0,900.0,4.0,,,,,,,,,yellow,square
0.0,2.0,2.0,0.0,6.0,6.0,392.575477992068,8.0,0.0,part_2,go,950.0,900.0,1.0,,,,,,,,,blue,cross
0.0,1.0,1.0,0.0,6.0,6.0,1343.6542449926492,8.0,0.0,part_2,go,950.0,900.0,1.0,,,,,,,,,orange,diamond
0.0,2.0,2.0,0.0,5.0,5.0,317.7083860064158,8.0,0.0,part_2,go,950.0,900.0,1.0,,,,,,,,,blue,cross
0.0,5.0,1.0,1.0,5.0,5.0,316.3699529977748,8.0,0.0,part_2,go,950.0,900.0,1.0,,,,,,,,,green,flipped triangle
0.0,5.0,1.0,1.0,5.0,5.0,346.8893820099765,8.0,0.0,part_2,go,950.0,900.0,1.0,,,,,,,,,green,flipped triangle
0.0,2.0,2.0,0.0,6.0,6.0,355.3771779988892,8.0,0.0,part_2,go,950.0,900.0,1.0,,,,,,,,,blue,cross
0.0,7.0,3.0,1.0,5.0,5.0,419.4979890016839,8.0,0.0,part_2,stop,950.0,900.0,3.0,,,,,,,,,magenta,hexagon
0.0,5.0,1.0,1.0,5.0,0.0,0.0,8.0,0.0,part_2,stop,900.0,900.0,4.0,,,,,,,,,green,flipped triangle
0.0,7.0,3.0,1.0,6.0,0.0,0.0,8.0,0.0,part_2,stop,950.0,900.0,4.0,,,,,,,,,magenta,hexagon
0.0,2.0,2.0,0.0,5.0,5.0,421.4728959923377,8.0,0.0,part_2,go,950.0,950.0,1.0,,,,,,,,,blue,cross
0.0,6.0,2.0,1.0,7.0,1.0,2891.6768339986447,1.0,1.0,part_3,go,0.0,0.0,0.0,770.0,5.0,770.0,924.0,154.0,462.0,308.0,616.0,cyan,I
0.0,3.0,3.0,0.0,7.0,5.0,3786.5427490032744,1.0,1.0,part_3,go,0.0,0.0,0.0,464.0,4.0,348.0,232.0,696.0,116.0,464.0,580.0,white,triangle
0.0,8.0,4.0,1.0,7.0,5.0,3888.747653996688,1.0,1.0,part_3,go,0.0,0.0,0.0,675.0,5.0,135.0,540.0,810.0,405.0,675.0,270.0,yellow,square
0.0,2.0,2.0,0.0,7.0,3.0,2119.8835340037476,1.0,1.0,part_3,go,0.0,0.0,0.0,348.0,3.0,232.0,580.0,348.0,116.0,464.0,696.0,blue,cross
0.0,7.0,3.0,1.0,7.0,1.0,1887.4140940024515,1.0,1.0,part_3,go,0.0,0.0,0.0,675.0,5.0,675.0,135.0,540.0,810.0,270.0,405.0,magenta,hexagon
0.0,7.0,3.0,1.0,7.0,5.0,1659.0728370065335,1.0,1.0,part_3,go,0.0,0.0,0.0,616.0,4.0,462.0,770.0,308.0,154.0,616.0,924.0,magenta,hexagon
0.0,6.0,2.0,1.0,7.0,2.0,1263.0203930020798,1.0,1.0,part_3,go,0.0,0.0,0.0,1152.0,6.0,768.0,1152.0,384.0,576.0,960.0,192.0,cyan,I
0.0,2.0,2.0,0.0,7.0,2.0,2655.5534149956657,1.0,1.0,part_3,go,0.0,0.0,0.0,576.0,3.0,960.0,576.0,192.0,768.0,1152.0,384.0,blue,cross
0.0,1.0,1.0,0.0,7.0,5.0,1702.47654398554,1.0,1.0,part_3,go,0.0,0.0,0.0,232.0,2.0,580.0,348.0,464.0,696.0,232.0,116.0,orange,diamond
0.0,1.0,1.0,0.0,7.0,5.0,740.3269609931158,1.0,1.0,part_3,go,0.0,0.0,0.0,270.0,2.0,810.0,540.0,135.0,675.0,270.0,405.0,orange,diamond
0.0,8.0,4.0,1.0,7.0,5.0,1935.2984669967557,1.0,1.0,part_3,go,0.0,0.0,0.0,135.0,1.0,810.0,540.0,270.0,675.0,135.0,405.0,yellow,square
0.0,7.0,3.0,1.0,7.0,5.0,3676.510266988771,1.0,1.0,part_3,go,0.0,0.0,0.0,696.0,6.0,232.0,116.0,348.0,580.0,696.0,464.0,magenta,hexagon
0.0,2.0,2.0,0.0,7.0,1.0,3124.5061209920095,1.0,1.0,part_3,go,0.0,0.0,0.0,960.0,5.0,960.0,192.0,384.0,1152.0,768.0,576.0,blue,cross
0.0,1.0,1.0,0.0,7.0,5.0,2374.702597997384,1.0,1.0,part_3,go,0.0,0.0,0.0,770.0,5.0,308.0,924.0,154.0,462.0,770.0,616.0,orange,diamond
0.0,4.0,4.0,0.0,7.0,5.0,2265.0775560032343,1.0,1.0,part_3,go,0.0,0.0,0.0,576.0,3.0,960.0,768.0,384.0,192.0,576.0,1152.0,gray,circle
0.0,6.0,2.0,1.0,7.0,5.0,2555.8509699912975,1.0,1.0,part_3,go,0.0,0.0,0.0,464.0,4.0,232.0,580.0,116.0,696.0,464.0,348.0,cyan,I
0.0,5.0,1.0,1.0,7.0,2.0,2077.4888419982744,1.0,1.0,part_3,go,0.0,0.0,0.0,770.0,5.0,154.0,770.0,924.0,462.0,308.0,616.0,green,flipped triangle
0.0,1.0,1.0,0.0,7.0,1.0,2690.988100002869,1.0,1.0,part_3,go,0.0,0.0,0.0,768.0,4.0,768.0,576.0,384.0,192.0,960.0,1152.0,orange,diamond
0.0,5.0,1.0,1.0,7.0,1.0,2483.6745140055427,1.0,1.0,part_3,go,0.0,0.0,0.0,692.0,4.0,692.0,173.0,519.0,346.0,865.0,1038.0,green,flipped triangle
0.0,6.0,2.0,1.0,7.0,3.0,2045.890651002992,1.0,1.0,part_3,go,0.0,0.0,0.0,1038.0,6.0,519.0,346.0,1038.0,173.0,865.0,692.0,cyan,I
0.0,4.0,4.0,0.0,7.0,2.0,1105.172259995015,2.0,1.0,part_3,go,0.0,0.0,0.0,116.0,1.0,464.0,116.0,580.0,232.0,696.0,348.0,gray,circle
0.0,4.0,4.0,0.0,7.0,3.0,2228.9506639936008,2.0,1.0,part_3,go,0.0,0.0,0.0,192.0,1.0,384.0,768.0,192.0,960.0,576.0,1152.0,gray,circle
0.0,8.0,4.0,1.0,7.0,5.0,1676.1670300038531,2.0,1.0,part_3,go,0.0,0.0,0.0,173.0,1.0,1038.0,519.0,692.0,865.0,173.0,346.0,yellow,square
0.0,1.0,1.0,0.0,7.0,2.0,1722.1706750133308,2.0,1.0,part_3,go,0.0,0.0,0.0,696.0,6.0,232.0,696.0,464.0,116.0,348.0,580.0,orange,diamond
0.0,5.0,1.0,1.0,7.0,3.0,1861.8082369939657,2.0,1.0,part_3,go,0.0,0.0,0.0,768.0,4.0,576.0,960.0,768.0,192.0,384.0,1152.0,green,flipped triangle
0.0,2.0,2.0,0.0,7.0,5.0,1906.6066930099623,2.0,1.0,part_3,go,0.0,0.0,0.0,675.0,5.0,270.0,405.0,810.0,135.0,675.0,540.0,blue,cross
0.0,6.0,2.0,1.0,7.0,6.0,1641.3244330033194,2.0,1.0,part_3,go,0.0,0.0,0.0,810.0,6.0,675.0,405.0,135.0,540.0,270.0,810.0,cyan,I
0.0,3.0,3.0,0.0,7.0,5.0,1290.281295994646,2.0,1.0,part_3,go,0.0,0.0,0.0,405.0,3.0,810.0,270.0,540.0,675.0,405.0,135.0,white,triangle
0.0,1.0,1.0,0.0,7.0,3.0,2739.588790005655,2.0,1.0,part_3,go,0.0,0.0,0.0,865.0,5.0,519.0,346.0,865.0,173.0,1038.0,692.0,orange,diamond
0.0,6.0,2.0,1.0,7.0,3.0,1628.7258970114635,2.0,1.0,part_3,go,0.0,0.0,0.0,1038.0,6.0,346.0,519.0,1038.0,865.0,692.0,173.0,cyan,I
0.0,2.0,2.0,0.0,7.0,6.0,1767.7247190003982,2.0,1.0,part_3,go,0.0,0.0,0.0,580.0,5.0,464.0,348.0,696.0,116.0,232.0,580.0,blue,cross
0.0,6.0,2.0,1.0,7.0,6.0,2023.6847659980413,2.0,1.0,part_3,go,0.0,0.0,0.0,675.0,5.0,810.0,270.0,135.0,540.0,405.0,675.0,cyan,I
0.0,6.0,2.0,1.0,7.0,1.0,1328.9746119990014,2.0,1.0,part_3,go,0.0,0.0,0.0,924.0,6.0,924.0,616.0,308.0,154.0,462.0,770.0,cyan,I
0.0,8.0,4.0,1.0,7.0,3.0,2378.3273969893344,2.0,1.0,part_3,go,0.0,0.0,0.0,865.0,5.0,1038.0,692.0,865.0,173.0,346.0,519.0,yellow,square
0.0,4.0,4.0,0.0,7.0,3.0,908.3426959987264,2.0,1.0,part_3,go,0.0,0.0,0.0,135.0,1.0,810.0,675.0,135.0,405.0,270.0,540.0,gray,circle
0.0,8.0,4.0,1.0,7.0,6.0,1804.05769799836,2.0,1.0,part_3,go,0.0,0.0,0.0,770.0,5.0,308.0,154.0,462.0,924.0,616.0,770.0,yellow,square
0.0,1.0,1.0,0.0,7.0,5.0,1800.4514490021393,2.0,1.0,part_3,go,0.0,0.0,0.0,1152.0,6.0,768.0,576.0,960.0,384.0,1152.0,192.0,orange,diamond
0.0,8.0,4.0,1.0,7.0,5.0,2189.7549319983227,2.0,1.0,part_3,go,0.0,0.0,0.0,580.0,5.0,232.0,464.0,116.0,348.0,580.0,696.0,yellow,square
0.0,5.0,1.0,1.0,7.0,2.0,2134.6276190015487,2.0,1.0,part_3,go,0.0,0.0,0.0,865.0,5.0,1038.0,865.0,519.0,692.0,173.0,346.0,green,flipped triangle
0.0,6.0,2.0,1.0,7.0,2.0,2762.696083009359,2.0,1.0,part_3,go,0.0,0.0,0.0,696.0,6.0,232.0,696.0,116.0,348.0,464.0,580.0,cyan,I
0.0,5.0,1.0,1.0,7.0,1.0,1647.682172988425,3.0,1.0,part_3,go,0.0,0.0,0.0,675.0,5.0,675.0,270.0,810.0,405.0,540.0,135.0,green,flipped triangle
0.0,3.0,3.0,0.0,7.0,3.0,1865.635192996706,3.0,1.0,part_3,go,0.0,0.0,0.0,865.0,5.0,346.0,519.0,865.0,692.0,1038.0,173.0,white,triangle
0.0,6.0,2.0,1.0,7.0,6.0,798.5210440092487,3.0,1.0,part_3,go,0.0,0.0,0.0,1152.0,6.0,384.0,768.0,960.0,576.0,192.0,1152.0,cyan,I
0.0,4.0,4.0,0.0,7.0,4.0,1586.8815919966437,3.0,1.0,part_3,go,0.0,0.0,0.0,116.0,1.0,464.0,232.0,696.0,116.0,348.0,580.0,gray,circle
0.0,3.0,3.0,0.0,7.0,5.0,1773.9601499924902,3.0,1.0,part_3,go,0.0,0.0,0.0,580.0,5.0,464.0,348.0,232.0,116.0,580.0,696.0,white,triangle
0.0,3.0,3.0,0.0,7.0,5.0,2425.3193569893483,3.0,1.0,part_3,go,0.0,0.0,0.0,768.0,4.0,1152.0,960.0,576.0,384.0,768.0,192.0,white,triangle
0.0,7.0,3.0,1.0,7.0,1.0,1996.537059007096,3.0,1.0,part_3,go,0.0,0.0,0.0,810.0,6.0,810.0,540.0,405.0,135.0,675.0,270.0,magenta,hexagon
0.0,3.0,3.0,0.0,7.0,2.0,2304.417570005171,3.0,1.0,part_3,go,0.0,0.0,0.0,462.0,3.0,308.0,462.0,924.0,616.0,154.0,770.0,white,triangle
0.0,5.0,1.0,1.0,7.0,1.0,1187.2223509999458,3.0,1.0,part_3,go,0.0,0.0,0.0,924.0,6.0,924.0,770.0,308.0,154.0,616.0,462.0,green,flipped triangle
0.0,3.0,3.0,0.0,7.0,2.0,2190.7540330139454,3.0,1.0,part_3,go,0.0,0.0,0.0,675.0,5.0,405.0,675.0,540.0,270.0,810.0,135.0,white,triangle
0.0,1.0,1.0,0.0,7.0,1.0,1897.887444996741,3.0,1.0,part_3,go,0.0,0.0,0.0,692.0,4.0,692.0,1038.0,173.0,865.0,519.0,346.0,orange,diamond
0.0,5.0,1.0,1.0,7.0,5.0,1652.8679729963187,3.0,1.0,part_3,go,0.0,0.0,0.0,810.0,6.0,270.0,675.0,135.0,405.0,810.0,540.0,green,flipped triangle
0.0,4.0,4.0,0.0,7.0,5.0,2017.2764790040674,3.0,1.0,part_3,go,0.0,0.0,0.0,308.0,2.0,616.0,924.0,770.0,154.0,308.0,462.0,gray,circle
0.0,2.0,2.0,0.0,7.0,4.0,2395.833523987676,3.0,1.0,part_3,go,0.0,0.0,0.0,154.0,1.0,770.0,308.0,616.0,154.0,924.0,462.0,blue,cross
0.0,5.0,1.0,1.0,7.0,3.0,2069.6038130117813,3.0,1.0,part_3,go,0.0,0.0,0.0,696.0,6.0,580.0,464.0,696.0,348.0,116.0,232.0,green,flipped triangle
0.0,4.0,4.0,0.0,7.0,3.0,1541.8720449961256,3.0,1.0,part_3,go,0.0,0.0,0.0,173.0,1.0,1038.0,519.0,173.0,346.0,865.0,692.0,gray,circle
0.0,3.0,3.0,0.0,7.0,1.0,2018.5273959941696,3.0,1.0,part_3,go,0.0,0.0,0.0,519.0,3.0,519.0,173.0,692.0,1038.0,346.0,865.0,white,triangle
0.0,1.0,1.0,0.0,7.0,3.0,2178.209245990729,3.0,1.0,part_3,go,0.0,0.0,0.0,540.0,4.0,405.0,810.0,540.0,675.0,135.0,270.0,orange,diamond
0.0,5.0,1.0,1.0,7.0,1.0,770.4536509991158,3.0,1.0,part_3,go,0.0,0.0,0.0,1152.0,6.0,1152.0,960.0,576.0,384.0,768.0,192.0,green,flipped triangle
0.0,4.0,4.0,0.0,7.0,4.0,1205.6823860039003,3.0,1.0,part_3,go,0.0,0.0,0.0,135.0,1.0,540.0,675.0,405.0,135.0,270.0,810.0,gray,circle
0.0,4.0,4.0,0.0,7.0,2.0,1166.375661996426,4.0,1.0,part_3,go,0.0,0.0,0.0,154.0,1.0,462.0,154.0,770.0,616.0,924.0,308.0,gray,circle
0.0,7.0,3.0,1.0,7.0,5.0,856.0324110003421,4.0,1.0,part_3,go,0.0,0.0,0.0,1152.0,6.0,576.0,192.0,768.0,384.0,1152.0,960.0,magenta,hexagon
0.0,7.0,3.0,1.0,7.0,5.0,2768.1390910001937,4.0,1.0,part_3,go,0.0,0.0,0.0,692.0,4.0,519.0,865.0,173.0,346.0,692.0,1038.0,magenta,hexagon
0.0,1.0,1.0,0.0,7.0,6.0,2044.8711280041607,4.0,1.0,part_3,go,0.0,0.0,0.0,462.0,3.0,308.0,924.0,616.0,770.0,154.0,462.0,orange,diamond
0.0,7.0,3.0,1.0,7.0,2.0,1981.2719019973883,4.0,1.0,part_3,go,0.0,0.0,0.0,580.0,5.0,464.0,580.0,232.0,116.0,696.0,348.0,magenta,hexagon
0.0,8.0,4.0,1.0,7.0,6.0,2064.6322929969756,4.0,1.0,part_3,go,0.0,0.0,0.0,576.0,3.0,384.0,768.0,192.0,960.0,1152.0,576.0,yellow,square
0.0,5.0,1.0,1.0,7.0,6.0,2231.205135001801,4.0,1.0,part_3,go,0.0,0.0,0.0,580.0,5.0,232.0,464.0,116.0,348.0,696.0,580.0,green,flipped triangle
0.0,7.0,3.0,1.0,7.0,5.0,1362.8954010055168,4.0,1.0,part_3,go,0.0,0.0,0.0,1152.0,6.0,960.0,384.0,192.0,768.0,1152.0,576.0,magenta,hexagon
0.0,2.0,2.0,0.0,7.0,2.0,1997.4279579910217,4.0,1.0,part_3,go,0.0,0.0,0.0,519.0,3.0,692.0,519.0,865.0,173.0,346.0,1038.0,blue,cross
0.0,3.0,3.0,0.0,7.0,4.0,2219.317607989069,4.0,1.0,part_3,go,0.0,0.0,0.0,960.0,5.0,384.0,576.0,768.0,960.0,1152.0,192.0,white,triangle
0.0,8.0,4.0,1.0,7.0,3.0,2535.0754410028458,4.0,1.0,part_3,go,0.0,0.0,0.0,616.0,4.0,924.0,154.0,616.0,308.0,462.0,770.0,yellow,square
0.0,8.0,4.0,1.0,7.0,3.0,1031.1910190066556,4.0,1.0,part_3,go,0.0,0.0,0.0,960.0,5.0,384.0,192.0,960.0,576.0,768.0,1152.0,yellow,square
0.0,7.0,3.0,1.0,7.0,2.0,2367.082336000749,4.0,1.0,part_3,go,0.0,0.0,0.0,770.0,5.0,924.0,770.0,616.0,462.0,308.0,154.0,magenta,hexagon
0.0,7.0,3.0,1.0,7.0,4.0,2193.2227420038544,4.0,1.0,part_3,go,0.0,0.0,0.0,865.0,5.0,1038.0,692.0,173.0,865.0,346.0,519.0,magenta,hexagon
0.0,2.0,2.0,0.0,7.0,5.0,1837.2056230000453,4.0,1.0,part_3,go,0.0,0.0,0.0,865.0,5.0,692.0,519.0,173.0,346.0,865.0,1038.0,blue,cross
0.0,2.0,2.0,0.0,7.0,2.0,1060.1659270032542,4.0,1.0,part_3,go,0.0,0.0,0.0,405.0,3.0,270.0,405.0,810.0,135.0,540.0,675.0,blue,cross
0.0,3.0,3.0,0.0,7.0,5.0,1893.5451509896664,4.0,1.0,part_3,go,0.0,0.0,0.0,616.0,4.0,154.0,308.0,924.0,462.0,616.0,770.0,white,triangle
0.0,8.0,4.0,1.0,7.0,2.0,1784.5949019974796,4.0,1.0,part_3,go,0.0,0.0,0.0,580.0,5.0,696.0,580.0,348.0,232.0,464.0,116.0,yellow,square
0.0,2.0,2.0,0.0,7.0,4.0,2656.763407998369,4.0,1.0,part_3,go,0.0,0.0,0.0,462.0,3.0,308.0,616.0,154.0,462.0,770.0,924.0,blue,cross
0.0,4.0,4.0,0.0,7.0,5.0,3158.0956670077285,4.0,1.0,part_3,go,0.0,0.0,0.0,346.0,2.0,865.0,1038.0,519.0,173.0,346.0,692.0,gray,circle
