raw_reward_magnitude,stim_reward,stepwise_reward_magnitude,paired_with_stopping,stim_location,response,reaction_time,block,num_trial_presentations,which_phase,stop_signal_trial_type,left_SSD,right_SSD,accuracy,chosen_bidding_amount,chosen_bidding_level,possible_bid_1,possible_bid_2,possible_bid_3,possible_bid_4,possible_bid_5,possible_bid_6,color_text,shape_text
151.0,1.0,0.5,0.0,4.0,4.0,394.9640979999458,1.0,1.0,phase_1,,,,,,,,,,,,,green,flipped triangle
1321.0,4.0,4.0,0.0,1.0,1.0,367.1925360004024,1.0,1.0,phase_1,,,,,,,,,,,,,magenta,I
674.0,3.0,2.0,0.0,3.0,3.0,291.8544149997615,1.0,1.0,phase_1,,,,,,,,,,,,,yellow,hexagon
658.0,7.0,2.0,1.0,4.0,4.0,357.5805079999554,1.0,1.0,phase_1,,,,,,,,,,,,,blue,circle
321.0,2.0,1.0,0.0,1.0,1.0,302.7134510002724,1.0,1.0,phase_1,,,,,,,,,,,,,white,square
150.0,5.0,0.5,1.0,2.0,2.0,255.3679040001952,1.0,1.0,phase_1,,,,,,,,,,,,,orange,triangle
321.0,6.0,1.0,1.0,1.0,1.0,301.5319559999625,1.0,1.0,phase_1,,,,,,,,,,,,,gray,diamond
1281.0,8.0,4.0,1.0,1.0,1.0,292.1379370000068,1.0,1.0,phase_1,,,,,,,,,,,,,cyan,cross
338.0,2.0,1.0,0.0,3.0,3.0,319.6951609997995,1.0,1.0,phase_1,,,,,,,,,,,,,white,square
333.0,6.0,1.0,1.0,4.0,4.0,337.930796999899,1.0,2.0,phase_1,,,,,,,,,,,,,gray,diamond
317.0,6.0,1.0,1.0,4.0,4.0,377.7651499995045,1.0,1.0,phase_1,,,,,,,,,,,,,gray,diamond
143.0,5.0,0.5,1.0,2.0,2.0,723.9396780005336,1.0,1.0,phase_1,,,,,,,,,,,,,orange,triangle
652.0,3.0,2.0,0.0,3.0,3.0,442.7433580003708,1.0,1.0,phase_1,,,,,,,,,,,,,yellow,hexagon
0.0,2.0,0.0,0.0,1.0,1.0,405.4099300001326,1.0,1.0,phase_1,,,,,,,,,,,,,white,square
1299.0,4.0,4.0,0.0,4.0,4.0,347.9510159995698,1.0,1.0,phase_1,,,,,,,,,,,,,magenta,I
318.0,2.0,1.0,0.0,3.0,3.0,310.8876490005059,1.0,1.0,phase_1,,,,,,,,,,,,,white,square
315.0,6.0,1.0,1.0,2.0,2.0,669.8628430003737,1.0,1.0,phase_1,,,,,,,,,,,,,gray,diamond
645.0,3.0,2.0,0.0,1.0,1.0,545.4405450000195,1.0,1.0,phase_1,,,,,,,,,,,,,yellow,hexagon
1315.0,4.0,4.0,0.0,2.0,2.0,414.0727129997685,1.0,1.0,phase_1,,,,,,,,,,,,,magenta,I
349.0,6.0,1.0,1.0,2.0,2.0,593.9923099995212,1.0,1.0,phase_1,,,,,,,,,,,,,gray,diamond
0.0,5.0,0.0,1.0,3.0,3.0,321.9631149995621,1.0,1.0,phase_1,,,,,,,,,,,,,orange,triangle
1288.0,4.0,4.0,0.0,4.0,4.0,339.525925000089,1.0,1.0,phase_1,,,,,,,,,,,,,magenta,I
341.0,6.0,1.0,1.0,3.0,3.0,367.4373490002836,1.0,1.0,phase_1,,,,,,,,,,,,,gray,diamond
0.0,1.0,0.0,0.0,4.0,4.0,322.6802190001763,1.0,1.0,phase_1,,,,,,,,,,,,,green,flipped triangle
0.0,1.0,0.0,0.0,4.0,4.0,349.2538889995558,1.0,1.0,phase_1,,,,,,,,,,,,,green,flipped triangle
1315.0,4.0,4.0,0.0,4.0,4.0,302.7726000000257,1.0,1.0,phase_1,,,,,,,,,,,,,magenta,I
1293.0,8.0,4.0,1.0,1.0,1.0,792.8483980003875,1.0,1.0,phase_1,,,,,,,,,,,,,cyan,cross
344.0,2.0,1.0,0.0,2.0,2.0,557.3943740000686,1.0,1.0,phase_1,,,,,,,,,,,,,white,square
0.0,8.0,0.0,1.0,4.0,4.0,339.3188569998528,1.0,1.0,phase_1,,,,,,,,,,,,,cyan,cross
139.0,5.0,0.5,1.0,3.0,3.0,358.1108789994687,1.0,1.0,phase_1,,,,,,,,,,,,,orange,triangle
160.0,1.0,0.5,0.0,3.0,3.0,339.9965749995317,1.0,1.0,phase_1,,,,,,,,,,,,,green,flipped triangle
164.0,5.0,0.5,1.0,4.0,4.0,367.8442059999725,1.0,1.0,phase_1,,,,,,,,,,,,,orange,triangle
183.0,5.0,0.5,1.0,3.0,3.0,358.027234000474,1.0,1.0,phase_1,,,,,,,,,,,,,orange,triangle
660.0,7.0,2.0,1.0,3.0,3.0,282.4876469994706,1.0,1.0,phase_1,,,,,,,,,,,,,blue,circle
169.0,5.0,0.5,1.0,1.0,1.0,320.5004980000012,1.0,1.0,phase_1,,,,,,,,,,,,,orange,triangle
1304.0,4.0,4.0,0.0,3.0,3.0,348.4765610000977,1.0,1.0,phase_1,,,,,,,,,,,,,magenta,I
0.0,2.0,0.0,0.0,1.0,1.0,643.3399469997312,1.0,1.0,phase_1,,,,,,,,,,,,,white,square
0.0,7.0,0.0,1.0,2.0,2.0,510.1908500000718,1.0,1.0,phase_1,,,,,,,,,,,,,blue,circle
317.0,2.0,1.0,0.0,2.0,2.0,339.0503760001593,1.0,1.0,phase_1,,,,,,,,,,,,,white,square
641.0,7.0,2.0,1.0,4.0,4.0,412.6287610006329,1.0,1.0,phase_1,,,,,,,,,,,,,blue,circle
139.0,1.0,0.5,0.0,2.0,2.0,424.5039409997844,1.0,1.0,phase_1,,,,,,,,,,,,,green,flipped triangle
0.0,8.0,0.0,1.0,3.0,3.0,339.9896970004192,1.0,1.0,phase_1,,,,,,,,,,,,,cyan,cross
638.0,3.0,2.0,0.0,1.0,1.0,585.3118639997774,1.0,1.0,phase_1,,,,,,,,,,,,,yellow,hexagon
645.0,3.0,2.0,0.0,2.0,2.0,367.2391749996677,1.0,1.0,phase_1,,,,,,,,,,,,,yellow,hexagon
1282.0,4.0,4.0,0.0,2.0,2.0,348.9490540005135,1.0,1.0,phase_1,,,,,,,,,,,,,magenta,I
0.0,2.0,0.0,0.0,1.0,1.0,358.5175480002363,1.0,1.0,phase_1,,,,,,,,,,,,,white,square
1309.0,4.0,4.0,0.0,3.0,3.0,310.6758739995712,1.0,1.0,phase_1,,,,,,,,,,,,,magenta,I
326.0,6.0,1.0,1.0,2.0,2.0,330.6507520001105,1.0,1.0,phase_1,,,,,,,,,,,,,gray,diamond
0.0,1.0,0.0,0.0,4.0,4.0,311.8663140003264,1.0,1.0,phase_1,,,,,,,,,,,,,green,flipped triangle
315.0,2.0,1.0,0.0,4.0,4.0,586.145772999771,1.0,2.0,phase_1,,,,,,,,,,,,,white,square
166.0,5.0,0.5,1.0,2.0,2.0,489.35272899962,1.0,1.0,phase_1,,,,,,,,,,,,,orange,triangle
165.0,1.0,0.5,0.0,2.0,2.0,536.5923099998327,1.0,1.0,phase_1,,,,,,,,,,,,,green,flipped triangle
0.0,1.0,0.0,0.0,2.0,2.0,460.6011650002983,1.0,1.0,phase_1,,,,,,,,,,,,,green,flipped triangle
0.0,3.0,0.0,0.0,3.0,3.0,358.6966290004056,1.0,1.0,phase_1,,,,,,,,,,,,,yellow,hexagon
304.0,2.0,1.0,0.0,1.0,1.0,479.9914700006411,1.0,1.0,phase_1,,,,,,,,,,,,,white,square
0.0,7.0,0.0,1.0,2.0,2.0,309.8253409998506,1.0,1.0,phase_1,,,,,,,,,,,,,blue,circle
654.0,3.0,2.0,0.0,4.0,4.0,327.9839470005754,1.0,1.0,phase_1,,,,,,,,,,,,,yellow,hexagon
1323.0,4.0,4.0,0.0,1.0,1.0,584.7673809994376,1.0,1.0,phase_1,,,,,,,,,,,,,magenta,I
326.0,6.0,1.0,1.0,1.0,1.0,481.5463220002129,1.0,1.0,phase_1,,,,,,,,,,,,,gray,diamond
0.0,7.0,0.0,1.0,3.0,3.0,349.3842810003116,1.0,1.0,phase_1,,,,,,,,,,,,,blue,circle
162.0,1.0,0.5,0.0,1.0,1.0,384.7892280000451,1.0,1.0,phase_1,,,,,,,,,,,,,green,flipped triangle
180.0,1.0,0.5,0.0,4.0,4.0,414.498746999925,1.0,1.0,phase_1,,,,,,,,,,,,,green,flipped triangle
1324.0,4.0,4.0,0.0,4.0,4.0,395.2788659998987,1.0,1.0,phase_1,,,,,,,,,,,,,magenta,I
1301.0,8.0,4.0,1.0,3.0,3.0,376.461179999751,1.0,1.0,phase_1,,,,,,,,,,,,,cyan,cross
321.0,6.0,1.0,1.0,4.0,4.0,441.7381089997434,1.0,1.0,phase_1,,,,,,,,,,,,,gray,diamond
674.0,7.0,2.0,1.0,4.0,4.0,321.0020189999341,1.0,1.0,phase_1,,,,,,,,,,,,,blue,circle
1316.0,8.0,4.0,1.0,1.0,1.0,534.5958420002717,1.0,1.0,phase_1,,,,,,,,,,,,,cyan,cross
0.0,3.0,0.0,0.0,1.0,1.0,384.1673349998018,1.0,1.0,phase_1,,,,,,,,,,,,,yellow,hexagon
1288.0,8.0,4.0,1.0,3.0,3.0,497.469954000735,1.0,1.0,phase_1,,,,,,,,,,,,,cyan,cross
664.0,3.0,2.0,0.0,3.0,3.0,349.4089030000396,1.0,1.0,phase_1,,,,,,,,,,,,,yellow,hexagon
183.0,1.0,0.5,0.0,3.0,3.0,329.5281040000191,1.0,1.0,phase_1,,,,,,,,,,,,,green,flipped triangle
1301.0,4.0,4.0,0.0,1.0,1.0,347.8236130004006,1.0,1.0,phase_1,,,,,,,,,,,,,magenta,I
336.0,2.0,1.0,0.0,2.0,2.0,394.0079450003395,1.0,1.0,phase_1,,,,,,,,,,,,,white,square
346.0,2.0,1.0,0.0,1.0,1.0,366.8861879996257,1.0,1.0,phase_1,,,,,,,,,,,,,white,square
1324.0,8.0,4.0,1.0,2.0,2.0,526.5384270005598,1.0,1.0,phase_1,,,,,,,,,,,,,cyan,cross
1315.0,8.0,4.0,1.0,3.0,3.0,311.3442950007083,1.0,1.0,phase_1,,,,,,,,,,,,,cyan,cross
0.0,5.0,0.0,1.0,4.0,4.0,423.5547320004116,1.0,1.0,phase_1,,,,,,,,,,,,,orange,triangle
1277.0,4.0,4.0,0.0,3.0,3.0,338.6401460002162,1.0,1.0,phase_1,,,,,,,,,,,,,magenta,I
1297.0,8.0,4.0,1.0,1.0,1.0,386.4848229995914,1.0,1.0,phase_1,,,,,,,,,,,,,cyan,cross
303.0,6.0,1.0,1.0,4.0,4.0,460.4615809994357,1.0,1.0,phase_1,,,,,,,,,,,,,gray,diamond
637.0,7.0,2.0,1.0,3.0,3.0,414.8847309998018,1.0,1.0,phase_1,,,,,,,,,,,,,blue,circle
0.0,4.0,0.0,0.0,4.0,4.0,348.9838859995871,1.0,1.0,phase_1,,,,,,,,,,,,,magenta,I
0.0,3.0,0.0,0.0,2.0,2.0,536.8038120004712,1.0,1.0,phase_1,,,,,,,,,,,,,yellow,hexagon
0.0,6.0,0.0,1.0,3.0,3.0,328.8358169993444,1.0,1.0,phase_1,,,,,,,,,,,,,gray,diamond
666.0,7.0,2.0,1.0,4.0,4.0,404.7151559998383,1.0,1.0,phase_1,,,,,,,,,,,,,blue,circle
1321.0,8.0,4.0,1.0,1.0,1.0,424.1630559999976,1.0,1.0,phase_1,,,,,,,,,,,,,cyan,cross
1291.0,8.0,4.0,1.0,4.0,4.0,386.2267429994972,1.0,1.0,phase_1,,,,,,,,,,,,,cyan,cross
1311.0,8.0,4.0,1.0,4.0,4.0,328.6615590004658,1.0,1.0,phase_1,,,,,,,,,,,,,cyan,cross
1324.0,8.0,4.0,1.0,4.0,4.0,327.9924859998573,1.0,1.0,phase_1,,,,,,,,,,,,,cyan,cross
1281.0,4.0,4.0,0.0,1.0,1.0,375.9477129997322,1.0,1.0,phase_1,,,,,,,,,,,,,magenta,I
674.0,7.0,2.0,1.0,1.0,1.0,478.4963920001246,1.0,1.0,phase_1,,,,,,,,,,,,,blue,circle
1293.0,4.0,4.0,0.0,1.0,1.0,414.4388550002986,1.0,1.0,phase_1,,,,,,,,,,,,,magenta,I
1301.0,8.0,4.0,1.0,2.0,2.0,416.444395000326,1.0,2.0,phase_1,,,,,,,,,,,,,cyan,cross
344.0,6.0,1.0,1.0,2.0,2.0,392.0269360005477,1.0,1.0,phase_1,,,,,,,,,,,,,gray,diamond
154.0,1.0,0.5,0.0,3.0,3.0,371.179934999418,1.0,1.0,phase_1,,,,,,,,,,,,,green,flipped triangle
670.0,7.0,2.0,1.0,2.0,2.0,331.2803919998259,1.0,1.0,phase_1,,,,,,,,,,,,,blue,circle
1316.0,4.0,4.0,0.0,4.0,4.0,397.4679169996307,1.0,1.0,phase_1,,,,,,,,,,,,,magenta,I
184.0,5.0,0.5,1.0,2.0,2.0,322.4544599997898,1.0,1.0,phase_1,,,,,,,,,,,,,orange,triangle
658.0,3.0,2.0,0.0,2.0,2.0,302.2773620004955,1.0,1.0,phase_1,,,,,,,,,,,,,yellow,hexagon
0.0,8.0,0.0,1.0,2.0,2.0,310.4529499996715,1.0,1.0,phase_1,,,,,,,,,,,,,cyan,cross
344.0,6.0,1.0,1.0,4.0,4.0,501.0763800000859,2.0,1.0,phase_1,,,,,,,,,,,,,gray,diamond
161.0,5.0,0.5,1.0,1.0,1.0,506.99088700002903,2.0,1.0,phase_1,,,,,,,,,,,,,orange,triangle
631.0,7.0,2.0,1.0,1.0,1.0,478.5726769996472,2.0,1.0,phase_1,,,,,,,,,,,,,blue,circle
1324.0,4.0,4.0,0.0,1.0,1.0,609.846311000183,2.0,1.0,phase_1,,,,,,,,,,,,,magenta,I
0.0,4.0,0.0,0.0,4.0,4.0,546.5245840005082,2.0,1.0,phase_1,,,,,,,,,,,,,magenta,I
0.0,3.0,0.0,0.0,2.0,2.0,348.0892719999247,2.0,1.0,phase_1,,,,,,,,,,,,,yellow,hexagon
654.0,7.0,2.0,1.0,1.0,1.0,535.8630919999996,2.0,1.0,phase_1,,,,,,,,,,,,,blue,circle
641.0,3.0,2.0,0.0,3.0,3.0,365.2822960002595,2.0,1.0,phase_1,,,,,,,,,,,,,yellow,hexagon
1313.0,8.0,4.0,1.0,3.0,3.0,365.6197690006593,2.0,1.0,phase_1,,,,,,,,,,,,,cyan,cross
164.0,1.0,0.5,0.0,3.0,3.0,348.2387349995406,2.0,1.0,phase_1,,,,,,,,,,,,,green,flipped triangle
304.0,6.0,1.0,1.0,3.0,3.0,356.5493010000864,2.0,1.0,phase_1,,,,,,,,,,,,,gray,diamond
0.0,2.0,0.0,0.0,2.0,2.0,346.4643990000695,2.0,1.0,phase_1,,,,,,,,,,,,,white,square
0.0,5.0,0.0,1.0,2.0,2.0,404.0729799999099,2.0,1.0,phase_1,,,,,,,,,,,,,orange,triangle
1297.0,4.0,4.0,0.0,4.0,4.0,385.8566940007222,2.0,1.0,phase_1,,,,,,,,,,,,,magenta,I
318.0,6.0,1.0,1.0,3.0,3.0,366.38356200001,2.0,1.0,phase_1,,,,,,,,,,,,,gray,diamond
1276.0,4.0,4.0,0.0,1.0,1.0,693.1567880001239,2.0,1.0,phase_1,,,,,,,,,,,,,magenta,I
329.0,2.0,1.0,0.0,3.0,3.0,376.081098999748,2.0,1.0,phase_1,,,,,,,,,,,,,white,square
303.0,6.0,1.0,1.0,1.0,1.0,458.8874390001365,2.0,1.0,phase_1,,,,,,,,,,,,,gray,diamond
1281.0,8.0,4.0,1.0,3.0,3.0,319.5250369999485,2.0,1.0,phase_1,,,,,,,,,,,,,cyan,cross
155.0,1.0,0.5,0.0,2.0,2.0,459.8726459998943,2.0,1.0,phase_1,,,,,,,,,,,,,green,flipped triangle
178.0,1.0,0.5,0.0,3.0,3.0,346.5076260008572,2.0,1.0,phase_1,,,,,,,,,,,,,green,flipped triangle
313.0,2.0,1.0,0.0,1.0,1.0,384.2218219997448,2.0,1.0,phase_1,,,,,,,,,,,,,white,square
625.0,7.0,2.0,1.0,2.0,2.0,490.2772240002377,2.0,2.0,phase_1,,,,,,,,,,,,,blue,circle
0.0,7.0,0.0,1.0,4.0,4.0,329.4249259997741,2.0,1.0,phase_1,,,,,,,,,,,,,blue,circle
641.0,3.0,2.0,0.0,1.0,1.0,358.4529449999536,2.0,1.0,phase_1,,,,,,,,,,,,,yellow,hexagon
160.0,5.0,0.5,1.0,3.0,3.0,423.3571299992036,2.0,1.0,phase_1,,,,,,,,,,,,,orange,triangle
1310.0,8.0,4.0,1.0,4.0,4.0,452.056432000063,2.0,1.0,phase_1,,,,,,,,,,,,,cyan,cross
664.0,3.0,2.0,0.0,2.0,2.0,507.18453799981944,2.0,1.0,phase_1,,,,,,,,,,,,,yellow,hexagon
301.0,6.0,1.0,1.0,3.0,3.0,442.8103740001461,2.0,1.0,phase_1,,,,,,,,,,,,,gray,diamond
316.0,6.0,1.0,1.0,4.0,4.0,409.9622819994692,2.0,1.0,phase_1,,,,,,,,,,,,,gray,diamond
1286.0,4.0,4.0,0.0,3.0,3.0,386.1027729999478,2.0,1.0,phase_1,,,,,,,,,,,,,magenta,I
1315.0,8.0,4.0,1.0,4.0,4.0,555.1085420001982,2.0,1.0,phase_1,,,,,,,,,,,,,cyan,cross
139.0,1.0,0.5,0.0,1.0,1.0,929.5299329996852,2.0,1.0,phase_1,,,,,,,,,,,,,green,flipped triangle
338.0,2.0,1.0,0.0,2.0,2.0,666.5650000004462,2.0,1.0,phase_1,,,,,,,,,,,,,white,square
0.0,8.0,0.0,1.0,1.0,1.0,423.8318500001696,2.0,1.0,phase_1,,,,,,,,,,,,,cyan,cross
650.0,7.0,2.0,1.0,1.0,1.0,366.878435000217,2.0,1.0,phase_1,,,,,,,,,,,,,blue,circle
1306.0,8.0,4.0,1.0,1.0,1.0,405.6723730000158,2.0,1.0,phase_1,,,,,,,,,,,,,cyan,cross
645.0,7.0,2.0,1.0,4.0,4.0,396.5547739999238,2.0,1.0,phase_1,,,,,,,,,,,,,blue,circle
147.0,1.0,0.5,0.0,1.0,1.0,368.478227000196,2.0,1.0,phase_1,,,,,,,,,,,,,green,flipped triangle
1324.0,8.0,4.0,1.0,1.0,1.0,320.2411869997377,2.0,1.0,phase_1,,,,,,,,,,,,,cyan,cross
1286.0,4.0,4.0,0.0,3.0,3.0,404.2514309994658,2.0,1.0,phase_1,,,,,,,,,,,,,magenta,I
644.0,7.0,2.0,1.0,2.0,2.0,489.1262499995719,2.0,1.0,phase_1,,,,,,,,,,,,,blue,circle
656.0,3.0,2.0,0.0,2.0,2.0,357.7243589998033,2.0,1.0,phase_1,,,,,,,,,,,,,yellow,hexagon
0.0,5.0,0.0,1.0,1.0,1.0,291.7493300001297,2.0,1.0,phase_1,,,,,,,,,,,,,orange,triangle
1275.0,8.0,4.0,1.0,4.0,4.0,348.2888179996735,2.0,1.0,phase_1,,,,,,,,,,,,,cyan,cross
156.0,5.0,0.5,1.0,1.0,1.0,340.3479489998062,2.0,1.0,phase_1,,,,,,,,,,,,,orange,triangle
302.0,2.0,1.0,0.0,3.0,3.0,404.7615489998861,2.0,1.0,phase_1,,,,,,,,,,,,,white,square
0.0,4.0,0.0,0.0,3.0,3.0,328.2488800005012,2.0,1.0,phase_1,,,,,,,,,,,,,magenta,I
313.0,6.0,1.0,1.0,4.0,4.0,310.6147649996273,2.0,1.0,phase_1,,,,,,,,,,,,,gray,diamond
0.0,8.0,0.0,1.0,4.0,4.0,359.0319839995572,2.0,1.0,phase_1,,,,,,,,,,,,,cyan,cross
1310.0,4.0,4.0,0.0,2.0,2.0,367.96338800013467,2.0,1.0,phase_1,,,,,,,,,,,,,magenta,I
176.0,5.0,0.5,1.0,1.0,1.0,376.7900090006151,2.0,1.0,phase_1,,,,,,,,,,,,,orange,triangle
156.0,1.0,0.5,0.0,1.0,1.0,404.8130159999346,2.0,1.0,phase_1,,,,,,,,,,,,,green,flipped triangle
0.0,8.0,0.0,1.0,3.0,3.0,404.4578319999345,2.0,1.0,phase_1,,,,,,,,,,,,,cyan,cross
349.0,2.0,1.0,0.0,1.0,1.0,534.6221620002325,2.0,1.0,phase_1,,,,,,,,,,,,,white,square
635.0,3.0,2.0,0.0,4.0,4.0,376.9818819991997,2.0,1.0,phase_1,,,,,,,,,,,,,yellow,hexagon
175.0,1.0,0.5,0.0,3.0,3.0,450.4354919999969,2.0,1.0,phase_1,,,,,,,,,,,,,green,flipped triangle
150.0,1.0,0.5,0.0,4.0,4.0,359.002395999596,2.0,1.0,phase_1,,,,,,,,,,,,,green,flipped triangle
0.0,5.0,0.0,1.0,2.0,2.0,480.5880819994854,2.0,1.0,phase_1,,,,,,,,,,,,,orange,triangle
330.0,2.0,1.0,0.0,3.0,3.0,367.2869590000118,2.0,1.0,phase_1,,,,,,,,,,,,,white,square
0.0,8.0,0.0,1.0,1.0,1.0,300.3304490002847,2.0,1.0,phase_1,,,,,,,,,,,,,cyan,cross
303.0,2.0,1.0,0.0,3.0,3.0,328.8855320006405,2.0,1.0,phase_1,,,,,,,,,,,,,white,square
1286.0,8.0,4.0,1.0,4.0,4.0,320.2359679999063,2.0,1.0,phase_1,,,,,,,,,,,,,cyan,cross
162.0,5.0,0.5,1.0,1.0,1.0,357.9117150002275,2.0,1.0,phase_1,,,,,,,,,,,,,orange,triangle
626.0,7.0,2.0,1.0,2.0,2.0,451.5122499997233,2.0,1.0,phase_1,,,,,,,,,,,,,blue,circle
139.0,1.0,0.5,0.0,2.0,2.0,415.2546559998882,2.0,1.0,phase_1,,,,,,,,,,,,,green,flipped triangle
1288.0,4.0,4.0,0.0,2.0,2.0,301.0229760002403,2.0,1.0,phase_1,,,,,,,,,,,,,magenta,I
0.0,3.0,0.0,0.0,4.0,4.0,292.1520780000719,2.0,1.0,phase_1,,,,,,,,,,,,,yellow,hexagon
1293.0,8.0,4.0,1.0,2.0,2.0,291.3048150003305,2.0,1.0,phase_1,,,,,,,,,,,,,cyan,cross
175.0,5.0,0.5,1.0,1.0,1.0,411.5463930002079,2.0,1.0,phase_1,,,,,,,,,,,,,orange,triangle
1310.0,8.0,4.0,1.0,4.0,4.0,291.758413000025,2.0,1.0,phase_1,,,,,,,,,,,,,cyan,cross
671.0,7.0,2.0,1.0,1.0,1.0,331.0109419999207,2.0,1.0,phase_1,,,,,,,,,,,,,blue,circle
0.0,3.0,0.0,0.0,1.0,1.0,395.1513460006026,2.0,1.0,phase_1,,,,,,,,,,,,,yellow,hexagon
165.0,1.0,0.5,0.0,2.0,2.0,310.3766650001489,2.0,1.0,phase_1,,,,,,,,,,,,,green,flipped triangle
179.0,1.0,0.5,0.0,1.0,1.0,282.9617719999078,2.0,1.0,phase_1,,,,,,,,,,,,,green,flipped triangle
0.0,1.0,0.0,0.0,4.0,4.0,309.8224879995541,2.0,1.0,phase_1,,,,,,,,,,,,,green,flipped triangle
341.0,2.0,1.0,0.0,2.0,2.0,262.7948950002974,2.0,1.0,phase_1,,,,,,,,,,,,,white,square
0.0,6.0,0.0,1.0,4.0,4.0,337.9205389992421,2.0,1.0,phase_1,,,,,,,,,,,,,gray,diamond
665.0,3.0,2.0,0.0,4.0,4.0,434.1163979997873,2.0,1.0,phase_1,,,,,,,,,,,,,yellow,hexagon
0.0,7.0,0.0,1.0,3.0,3.0,329.1484780002065,2.0,1.0,phase_1,,,,,,,,,,,,,blue,circle
162.0,5.0,0.5,1.0,4.0,4.0,320.4147739998007,2.0,1.0,phase_1,,,,,,,,,,,,,orange,triangle
671.0,3.0,2.0,0.0,4.0,4.0,349.4061170003988,2.0,1.0,phase_1,,,,,,,,,,,,,yellow,hexagon
0.0,1.0,0.0,0.0,1.0,1.0,365.6212610003422,2.0,1.0,phase_1,,,,,,,,,,,,,green,flipped triangle
185.0,5.0,0.5,1.0,4.0,4.0,338.8719140002649,2.0,1.0,phase_1,,,,,,,,,,,,,orange,triangle
172.0,5.0,0.5,1.0,2.0,2.0,451.4543249997587,2.0,1.0,phase_1,,,,,,,,,,,,,orange,triangle
0.0,3.0,0.0,0.0,2.0,2.0,478.55740399973,2.0,1.0,phase_1,,,,,,,,,,,,,yellow,hexagon
0.0,4.0,0.0,0.0,4.0,4.0,395.500837000327,2.0,1.0,phase_1,,,,,,,,,,,,,magenta,I
670.0,3.0,2.0,0.0,4.0,4.0,319.1460849993746,2.0,1.0,phase_1,,,,,,,,,,,,,yellow,hexagon
162.0,1.0,0.5,0.0,3.0,3.0,366.7228020003676,2.0,1.0,phase_1,,,,,,,,,,,,,green,flipped triangle
664.0,7.0,2.0,1.0,1.0,1.0,610.3974240004391,2.0,1.0,phase_1,,,,,,,,,,,,,blue,circle
139.0,5.0,0.5,1.0,1.0,1.0,347.7862720001212,2.0,2.0,phase_1,,,,,,,,,,,,,orange,triangle
1310.0,4.0,4.0,0.0,2.0,2.0,357.3932520002927,2.0,1.0,phase_1,,,,,,,,,,,,,magenta,I
1291.0,4.0,4.0,0.0,4.0,4.0,432.1599350005272,2.0,1.0,phase_1,,,,,,,,,,,,,magenta,I
0.0,6.0,0.0,1.0,4.0,4.0,384.6456009996473,2.0,1.0,phase_1,,,,,,,,,,,,,gray,diamond
0.0,2.0,0.0,0.0,3.0,3.0,384.1630750002878,2.0,1.0,phase_1,,,,,,,,,,,,,white,square
1309.0,8.0,4.0,1.0,2.0,2.0,460.2269530005287,2.0,1.0,phase_1,,,,,,,,,,,,,cyan,cross
633.0,3.0,2.0,0.0,4.0,4.0,376.2497210000219,2.0,1.0,phase_1,,,,,,,,,,,,,yellow,hexagon
321.0,6.0,1.0,1.0,3.0,3.0,422.4445619993275,2.0,1.0,phase_1,,,,,,,,,,,,,gray,diamond
0.0,8.0,0.0,1.0,4.0,4.0,412.4166190003961,2.0,1.0,phase_1,,,,,,,,,,,,,cyan,cross
163.0,1.0,0.5,0.0,1.0,1.0,365.8944290000363,2.0,1.0,phase_1,,,,,,,,,,,,,green,flipped triangle
139.0,5.0,0.5,1.0,3.0,3.0,395.2818950001528,3.0,1.0,phase_1,,,,,,,,,,,,,orange,triangle
175.0,5.0,0.5,1.0,2.0,2.0,357.9315279994262,3.0,1.0,phase_1,,,,,,,,,,,,,orange,triangle
0.0,6.0,0.0,1.0,1.0,1.0,535.630809000395,3.0,1.0,phase_1,,,,,,,,,,,,,gray,diamond
158.0,1.0,0.5,0.0,3.0,3.0,347.5320500001544,3.0,1.0,phase_1,,,,,,,,,,,,,green,flipped triangle
321.0,2.0,1.0,0.0,3.0,3.0,338.9256170003136,3.0,1.0,phase_1,,,,,,,,,,,,,white,square
148.0,5.0,0.5,1.0,2.0,2.0,348.4933199997613,3.0,1.0,phase_1,,,,,,,,,,,,,orange,triangle
639.0,7.0,2.0,1.0,1.0,1.0,806.9147109999903,3.0,2.0,phase_1,,,,,,,,,,,,,blue,circle
0.0,1.0,0.0,0.0,4.0,4.0,355.9616760003337,3.0,1.0,phase_1,,,,,,,,,,,,,green,flipped triangle
641.0,7.0,2.0,1.0,1.0,1.0,366.4550089997647,3.0,1.0,phase_1,,,,,,,,,,,,,blue,circle
1315.0,8.0,4.0,1.0,2.0,2.0,424.0625619995626,3.0,1.0,phase_1,,,,,,,,,,,,,cyan,cross
148.0,1.0,0.5,0.0,2.0,2.0,348.4183820000908,3.0,1.0,phase_1,,,,,,,,,,,,,green,flipped triangle
641.0,3.0,2.0,0.0,4.0,4.0,311.9318549997842,3.0,1.0,phase_1,,,,,,,,,,,,,yellow,hexagon
186.0,1.0,0.5,0.0,2.0,2.0,244.865984000171,3.0,1.0,phase_1,,,,,,,,,,,,,green,flipped triangle
169.0,5.0,0.5,1.0,1.0,1.0,357.6477990000057,3.0,1.0,phase_1,,,,,,,,,,,,,orange,triangle
341.0,2.0,1.0,0.0,2.0,2.0,385.4383739999321,3.0,1.0,phase_1,,,,,,,,,,,,,white,square
1308.0,4.0,4.0,0.0,3.0,3.0,386.791617000199,3.0,1.0,phase_1,,,,,,,,,,,,,magenta,I
637.0,3.0,2.0,0.0,3.0,3.0,358.4467270002278,3.0,1.0,phase_1,,,,,,,,,,,,,yellow,hexagon
646.0,7.0,2.0,1.0,3.0,3.0,395.1245990001553,3.0,1.0,phase_1,,,,,,,,,,,,,blue,circle
330.0,6.0,1.0,1.0,2.0,2.0,348.3518650000405,3.0,1.0,phase_1,,,,,,,,,,,,,gray,diamond
626.0,3.0,2.0,0.0,3.0,3.0,300.5713829998058,3.0,1.0,phase_1,,,,,,,,,,,,,yellow,hexagon
1308.0,8.0,4.0,1.0,1.0,1.0,622.8405799993197,3.0,1.0,phase_1,,,,,,,,,,,,,cyan,cross
652.0,7.0,2.0,1.0,2.0,2.0,340.7058020002296,3.0,1.0,phase_1,,,,,,,,,,,,,blue,circle
143.0,1.0,0.5,0.0,3.0,3.0,358.145209000213,3.0,1.0,phase_1,,,,,,,,,,,,,green,flipped triangle
169.0,1.0,0.5,0.0,4.0,4.0,375.6655019997197,3.0,1.0,phase_1,,,,,,,,,,,,,green,flipped triangle
152.0,1.0,0.5,0.0,4.0,4.0,338.2193630004622,3.0,1.0,phase_1,,,,,,,,,,,,,green,flipped triangle
654.0,7.0,2.0,1.0,1.0,1.0,800.1394490001985,3.0,1.0,phase_1,,,,,,,,,,,,,blue,circle
1276.0,8.0,4.0,1.0,3.0,3.0,477.9137040004571,3.0,1.0,phase_1,,,,,,,,,,,,,cyan,cross
336.0,2.0,1.0,0.0,4.0,4.0,292.0841689992812,3.0,1.0,phase_1,,,,,,,,,,,,,white,square
1324.0,4.0,4.0,0.0,2.0,2.0,358.1034720000389,3.0,1.0,phase_1,,,,,,,,,,,,,magenta,I
632.0,7.0,2.0,1.0,3.0,3.0,366.0874160004823,3.0,2.0,phase_1,,,,,,,,,,,,,blue,circle
147.0,5.0,0.5,1.0,4.0,4.0,347.9511860005004,3.0,1.0,phase_1,,,,,,,,,,,,,orange,triangle
0.0,5.0,0.0,1.0,4.0,4.0,282.1163609996802,3.0,1.0,phase_1,,,,,,,,,,,,,orange,triangle
343.0,2.0,1.0,0.0,3.0,3.0,309.8514069997691,3.0,1.0,phase_1,,,,,,,,,,,,,white,square
326.0,2.0,1.0,0.0,4.0,4.0,273.1647550008347,3.0,1.0,phase_1,,,,,,,,,,,,,white,square
632.0,3.0,2.0,0.0,2.0,2.0,319.3229099997552,3.0,1.0,phase_1,,,,,,,,,,,,,yellow,hexagon
1275.0,4.0,4.0,0.0,1.0,1.0,348.5226929997225,3.0,1.0,phase_1,,,,,,,,,,,,,magenta,I
304.0,6.0,1.0,1.0,2.0,2.0,357.3970469997221,3.0,1.0,phase_1,,,,,,,,,,,,,gray,diamond
0.0,6.0,0.0,1.0,1.0,1.0,376.8468190000931,3.0,1.0,phase_1,,,,,,,,,,,,,gray,diamond
1293.0,4.0,4.0,0.0,3.0,3.0,282.93499099982,3.0,1.0,phase_1,,,,,,,,,,,,,magenta,I
0.0,2.0,0.0,0.0,1.0,1.0,301.0439830004543,3.0,1.0,phase_1,,,,,,,,,,,,,white,square
0.0,6.0,0.0,1.0,2.0,2.0,349.8572839998815,3.0,1.0,phase_1,,,,,,,,,,,,,gray,diamond
644.0,3.0,2.0,0.0,1.0,1.0,395.7757789994502,3.0,1.0,phase_1,,,,,,,,,,,,,yellow,hexagon
176.0,1.0,0.5,0.0,2.0,2.0,330.5816860001869,3.0,1.0,phase_1,,,,,,,,,,,,,green,flipped triangle
333.0,6.0,1.0,1.0,3.0,3.0,422.2736629999417,3.0,1.0,phase_1,,,,,,,,,,,,,gray,diamond
322.0,2.0,1.0,0.0,2.0,2.0,302.1988650007188,3.0,1.0,phase_1,,,,,,,,,,,,,white,square
1304.0,8.0,4.0,1.0,2.0,2.0,347.8099750000183,3.0,1.0,phase_1,,,,,,,,,,,,,cyan,cross
307.0,2.0,1.0,0.0,1.0,1.0,535.6474169993817,3.0,1.0,phase_1,,,,,,,,,,,,,white,square
625.0,3.0,2.0,0.0,3.0,3.0,348.3244819999527,3.0,1.0,phase_1,,,,,,,,,,,,,yellow,hexagon
670.0,7.0,2.0,1.0,3.0,3.0,386.460547999377,3.0,1.0,phase_1,,,,,,,,,,,,,blue,circle
0.0,5.0,0.0,1.0,2.0,2.0,357.2702840001511,3.0,1.0,phase_1,,,,,,,,,,,,,orange,triangle
670.0,3.0,2.0,0.0,2.0,2.0,310.6469549993562,3.0,1.0,phase_1,,,,,,,,,,,,,yellow,hexagon
304.0,2.0,1.0,0.0,2.0,2.0,301.4792519998082,3.0,1.0,phase_1,,,,,,,,,,,,,white,square
0.0,1.0,0.0,0.0,1.0,1.0,217.0367940007054,3.0,2.0,phase_1,,,,,,,,,,,,,green,flipped triangle
168.0,1.0,0.5,0.0,1.0,1.0,339.3332749992623,3.0,1.0,phase_1,,,,,,,,,,,,,green,flipped triangle
637.0,3.0,2.0,0.0,1.0,1.0,319.4256980004866,3.0,1.0,phase_1,,,,,,,,,,,,,yellow,hexagon
169.0,1.0,0.5,0.0,1.0,1.0,291.6051700003663,3.0,1.0,phase_1,,,,,,,,,,,,,green,flipped triangle
169.0,1.0,0.5,0.0,2.0,2.0,282.9584629998862,3.0,1.0,phase_1,,,,,,,,,,,,,green,flipped triangle
0.0,7.0,0.0,1.0,1.0,1.0,281.2011880005229,3.0,1.0,phase_1,,,,,,,,,,,,,blue,circle
311.0,2.0,1.0,0.0,4.0,4.0,441.8521120005607,3.0,1.0,phase_1,,,,,,,,,,,,,white,square
344.0,2.0,1.0,0.0,4.0,4.0,319.9658009998529,3.0,1.0,phase_1,,,,,,,,,,,,,white,square
169.0,5.0,0.5,1.0,2.0,2.0,347.6628010002969,3.0,1.0,phase_1,,,,,,,,,,,,,orange,triangle
165.0,5.0,0.5,1.0,1.0,1.0,451.2085599999409,3.0,1.0,phase_1,,,,,,,,,,,,,orange,triangle
1306.0,4.0,4.0,0.0,3.0,3.0,329.0452000001096,3.0,1.0,phase_1,,,,,,,,,,,,,magenta,I
178.0,5.0,0.5,1.0,4.0,4.0,338.7342880005235,3.0,1.0,phase_1,,,,,,,,,,,,,orange,triangle
155.0,5.0,0.5,1.0,3.0,3.0,328.8325829998939,3.0,1.0,phase_1,,,,,,,,,,,,,orange,triangle
660.0,3.0,2.0,0.0,3.0,3.0,375.2339889997529,3.0,1.0,phase_1,,,,,,,,,,,,,yellow,hexagon
635.0,3.0,2.0,0.0,2.0,2.0,272.6532449996739,3.0,1.0,phase_1,,,,,,,,,,,,,yellow,hexagon
1301.0,8.0,4.0,1.0,2.0,2.0,301.4883519999785,3.0,1.0,phase_1,,,,,,,,,,,,,cyan,cross
172.0,1.0,0.5,0.0,1.0,1.0,544.1592240003956,3.0,1.0,phase_1,,,,,,,,,,,,,green,flipped triangle
665.0,3.0,2.0,0.0,1.0,1.0,318.779584999902,3.0,1.0,phase_1,,,,,,,,,,,,,yellow,hexagon
151.0,5.0,0.5,1.0,1.0,1.0,526.2882369997897,3.0,1.0,phase_1,,,,,,,,,,,,,orange,triangle
329.0,6.0,1.0,1.0,3.0,3.0,338.6123200007205,3.0,1.0,phase_1,,,,,,,,,,,,,gray,diamond
0.0,1.0,0.0,0.0,1.0,1.0,460.9292139994068,3.0,1.0,phase_1,,,,,,,,,,,,,green,flipped triangle
0.0,2.0,0.0,0.0,4.0,4.0,385.4800130002331,3.0,1.0,phase_1,,,,,,,,,,,,,white,square
315.0,2.0,1.0,0.0,4.0,4.0,319.2835689997082,3.0,1.0,phase_1,,,,,,,,,,,,,white,square
1286.0,8.0,4.0,1.0,1.0,1.0,329.0687810003874,3.0,1.0,phase_1,,,,,,,,,,,,,cyan,cross
626.0,3.0,2.0,0.0,4.0,4.0,226.189847000569,3.0,2.0,phase_1,,,,,,,,,,,,,yellow,hexagon
633.0,7.0,2.0,1.0,3.0,3.0,384.7560750000411,3.0,1.0,phase_1,,,,,,,,,,,,,blue,circle
641.0,7.0,2.0,1.0,2.0,2.0,309.9540040002466,3.0,1.0,phase_1,,,,,,,,,,,,,blue,circle
639.0,3.0,2.0,0.0,4.0,4.0,329.166055999849,3.0,1.0,phase_1,,,,,,,,,,,,,yellow,hexagon
650.0,3.0,2.0,0.0,1.0,1.0,197.7160070000536,3.0,2.0,phase_1,,,,,,,,,,,,,yellow,hexagon
1315.0,4.0,4.0,0.0,4.0,4.0,394.547794000573,3.0,1.0,phase_1,,,,,,,,,,,,,magenta,I
0.0,8.0,0.0,1.0,1.0,1.0,469.6216670008653,3.0,1.0,phase_1,,,,,,,,,,,,,cyan,cross
0.0,4.0,0.0,0.0,4.0,4.0,420.9804740003164,3.0,1.0,phase_1,,,,,,,,,,,,,magenta,I
0.0,1.0,0.0,0.0,3.0,3.0,366.9915959999343,3.0,1.0,phase_1,,,,,,,,,,,,,green,flipped triangle
322.0,6.0,1.0,1.0,4.0,4.0,357.2818339998775,3.0,1.0,phase_1,,,,,,,,,,,,,gray,diamond
0.0,4.0,0.0,0.0,1.0,1.0,479.4419870004276,3.0,1.0,phase_1,,,,,,,,,,,,,magenta,I
0.0,4.0,0.0,0.0,2.0,2.0,423.7413820001166,3.0,1.0,phase_1,,,,,,,,,,,,,magenta,I
666.0,3.0,2.0,0.0,3.0,3.0,329.3638570003168,3.0,1.0,phase_1,,,,,,,,,,,,,yellow,hexagon
326.0,2.0,1.0,0.0,1.0,1.0,366.9740340001226,3.0,1.0,phase_1,,,,,,,,,,,,,white,square
0.0,8.0,0.0,1.0,4.0,4.0,347.5561980003476,3.0,1.0,phase_1,,,,,,,,,,,,,cyan,cross
180.0,5.0,0.5,1.0,2.0,2.0,376.4011850007591,3.0,1.0,phase_1,,,,,,,,,,,,,orange,triangle
341.0,6.0,1.0,1.0,1.0,1.0,412.6797240005544,3.0,1.0,phase_1,,,,,,,,,,,,,gray,diamond
1319.0,8.0,4.0,1.0,2.0,2.0,365.8013649992426,3.0,1.0,phase_1,,,,,,,,,,,,,cyan,cross
0.0,7.0,0.0,1.0,3.0,3.0,348.7579779994121,3.0,1.0,phase_1,,,,,,,,,,,,,blue,circle
307.0,6.0,1.0,1.0,1.0,1.0,319.5731299992985,3.0,1.0,phase_1,,,,,,,,,,,,,gray,diamond
1288.0,4.0,4.0,0.0,2.0,2.0,262.3402019999048,3.0,1.0,phase_1,,,,,,,,,,,,,magenta,I
0.0,7.0,0.0,1.0,2.0,2.0,384.7620180004014,3.0,1.0,phase_1,,,,,,,,,,,,,blue,circle
0.0,6.0,0.0,1.0,2.0,2.0,358.1431470001917,3.0,1.0,phase_1,,,,,,,,,,,,,gray,diamond
0.0,7.0,0.0,1.0,3.0,3.0,309.7793890001412,3.0,1.0,phase_1,,,,,,,,,,,,,blue,circle
333.0,2.0,1.0,0.0,3.0,3.0,431.6262460006328,4.0,1.0,phase_1,,,,,,,,,,,,,white,square
635.0,7.0,2.0,1.0,4.0,4.0,423.3011779997468,4.0,1.0,phase_1,,,,,,,,,,,,,blue,circle
1288.0,8.0,4.0,1.0,3.0,3.0,414.1926459997194,4.0,1.0,phase_1,,,,,,,,,,,,,cyan,cross
1291.0,4.0,4.0,0.0,2.0,2.0,217.8283900002497,4.0,2.0,phase_1,,,,,,,,,,,,,magenta,I
671.0,3.0,2.0,0.0,2.0,2.0,489.5621140003641,4.0,1.0,phase_1,,,,,,,,,,,,,yellow,hexagon
626.0,7.0,2.0,1.0,2.0,2.0,376.7131149998022,4.0,1.0,phase_1,,,,,,,,,,,,,blue,circle
151.0,5.0,0.5,1.0,3.0,3.0,377.1704420005335,4.0,1.0,phase_1,,,,,,,,,,,,,orange,triangle
657.0,3.0,2.0,0.0,4.0,4.0,405.0868599997557,4.0,1.0,phase_1,,,,,,,,,,,,,yellow,hexagon
311.0,6.0,1.0,1.0,1.0,1.0,366.8914669997321,4.0,1.0,phase_1,,,,,,,,,,,,,gray,diamond
151.0,1.0,0.5,0.0,4.0,4.0,348.3531360006964,4.0,1.0,phase_1,,,,,,,,,,,,,green,flipped triangle
1313.0,4.0,4.0,0.0,4.0,4.0,546.0493330001555,4.0,1.0,phase_1,,,,,,,,,,,,,magenta,I
1281.0,4.0,4.0,0.0,1.0,1.0,367.1373690003747,4.0,1.0,phase_1,,,,,,,,,,,,,magenta,I
175.0,1.0,0.5,0.0,4.0,4.0,348.1793360006122,4.0,1.0,phase_1,,,,,,,,,,,,,green,flipped triangle
160.0,5.0,0.5,1.0,3.0,3.0,301.6942419999395,4.0,1.0,phase_1,,,,,,,,,,,,,orange,triangle
657.0,7.0,2.0,1.0,3.0,3.0,339.9310820004757,4.0,1.0,phase_1,,,,,,,,,,,,,blue,circle
645.0,7.0,2.0,1.0,2.0,2.0,537.0763750006518,4.0,1.0,phase_1,,,,,,,,,,,,,blue,circle
186.0,5.0,0.5,1.0,3.0,3.0,310.9991539995462,4.0,1.0,phase_1,,,,,,,,,,,,,orange,triangle
161.0,1.0,0.5,0.0,4.0,4.0,386.4292620000924,4.0,1.0,phase_1,,,,,,,,,,,,,green,flipped triangle
0.0,5.0,0.0,1.0,4.0,4.0,367.6970080005048,4.0,1.0,phase_1,,,,,,,,,,,,,orange,triangle
315.0,6.0,1.0,1.0,2.0,2.0,339.3254220000017,4.0,1.0,phase_1,,,,,,,,,,,,,gray,diamond
0.0,2.0,0.0,0.0,1.0,1.0,320.7615769997574,4.0,1.0,phase_1,,,,,,,,,,,,,white,square
1301.0,4.0,4.0,0.0,2.0,2.0,357.8233749994979,4.0,1.0,phase_1,,,,,,,,,,,,,magenta,I
0.0,4.0,0.0,0.0,3.0,3.0,309.7717149994423,4.0,1.0,phase_1,,,,,,,,,,,,,magenta,I
310.0,6.0,1.0,1.0,2.0,2.0,424.0099060007196,4.0,1.0,phase_1,,,,,,,,,,,,,gray,diamond
0.0,6.0,0.0,1.0,4.0,4.0,319.9557159996402,4.0,1.0,phase_1,,,,,,,,,,,,,gray,diamond
168.0,5.0,0.5,1.0,4.0,4.0,320.3134509994925,4.0,1.0,phase_1,,,,,,,,,,,,,orange,triangle
336.0,6.0,1.0,1.0,1.0,1.0,337.55202500015,4.0,1.0,phase_1,,,,,,,,,,,,,gray,diamond
0.0,3.0,0.0,0.0,4.0,4.0,319.1566030000103,4.0,1.0,phase_1,,,,,,,,,,,,,yellow,hexagon
346.0,2.0,1.0,0.0,4.0,4.0,310.6153429998812,4.0,1.0,phase_1,,,,,,,,,,,,,white,square
338.0,6.0,1.0,1.0,3.0,3.0,385.2036689995657,4.0,1.0,phase_1,,,,,,,,,,,,,gray,diamond
671.0,7.0,2.0,1.0,4.0,4.0,320.4180180000548,4.0,1.0,phase_1,,,,,,,,,,,,,blue,circle
341.0,2.0,1.0,0.0,2.0,2.0,282.0156360003238,4.0,1.0,phase_1,,,,,,,,,,,,,white,square
674.0,3.0,2.0,0.0,2.0,2.0,337.2608379995654,4.0,1.0,phase_1,,,,,,,,,,,,,yellow,hexagon
1296.0,4.0,4.0,0.0,3.0,3.0,357.3395409994191,4.0,1.0,phase_1,,,,,,,,,,,,,magenta,I
1323.0,8.0,4.0,1.0,4.0,4.0,394.4546689999697,4.0,1.0,phase_1,,,,,,,,,,,,,cyan,cross
1278.0,4.0,4.0,0.0,4.0,4.0,357.3867950008207,4.0,1.0,phase_1,,,,,,,,,,,,,magenta,I
165.0,5.0,0.5,1.0,4.0,4.0,291.5176730002713,4.0,1.0,phase_1,,,,,,,,,,,,,orange,triangle
638.0,7.0,2.0,1.0,4.0,4.0,329.4832359997599,4.0,1.0,phase_1,,,,,,,,,,,,,blue,circle
637.0,7.0,2.0,1.0,2.0,2.0,292.4442480007201,4.0,1.0,phase_1,,,,,,,,,,,,,blue,circle
670.0,3.0,2.0,0.0,3.0,3.0,338.4802489999856,4.0,1.0,phase_1,,,,,,,,,,,,,yellow,hexagon
141.0,1.0,0.5,0.0,3.0,3.0,338.1018190002578,4.0,1.0,phase_1,,,,,,,,,,,,,green,flipped triangle
664.0,7.0,2.0,1.0,3.0,3.0,302.6820180002687,4.0,1.0,phase_1,,,,,,,,,,,,,blue,circle
1296.0,8.0,4.0,1.0,3.0,3.0,329.166291000547,4.0,1.0,phase_1,,,,,,,,,,,,,cyan,cross
654.0,3.0,2.0,0.0,1.0,1.0,348.1675140001243,4.0,1.0,phase_1,,,,,,,,,,,,,yellow,hexagon
1282.0,8.0,4.0,1.0,1.0,1.0,312.4419269997815,4.0,1.0,phase_1,,,,,,,,,,,,,cyan,cross
1301.0,4.0,4.0,0.0,3.0,3.0,329.641674999948,4.0,1.0,phase_1,,,,,,,,,,,,,magenta,I
333.0,2.0,1.0,0.0,3.0,3.0,395.2311760003795,4.0,1.0,phase_1,,,,,,,,,,,,,white,square
163.0,5.0,0.5,1.0,2.0,2.0,310.2780459994392,4.0,1.0,phase_1,,,,,,,,,,,,,orange,triangle
0.0,4.0,0.0,0.0,1.0,1.0,310.7506599999396,4.0,1.0,phase_1,,,,,,,,,,,,,magenta,I
158.0,5.0,0.5,1.0,4.0,4.0,329.4030639999619,4.0,1.0,phase_1,,,,,,,,,,,,,orange,triangle
341.0,6.0,1.0,1.0,1.0,1.0,412.7640599999722,4.0,1.0,phase_1,,,,,,,,,,,,,gray,diamond
346.0,6.0,1.0,1.0,4.0,4.0,328.5763869998845,4.0,1.0,phase_1,,,,,,,,,,,,,gray,diamond
349.0,2.0,1.0,0.0,1.0,1.0,394.6006820006005,4.0,1.0,phase_1,,,,,,,,,,,,,white,square
1319.0,4.0,4.0,0.0,2.0,2.0,413.52098799961817,4.0,2.0,phase_1,,,,,,,,,,,,,magenta,I
0.0,3.0,0.0,0.0,1.0,1.0,395.4822159994364,4.0,1.0,phase_1,,,,,,,,,,,,,yellow,hexagon
670.0,7.0,2.0,1.0,1.0,1.0,479.944768999303,4.0,1.0,phase_1,,,,,,,,,,,,,blue,circle
0.0,3.0,0.0,0.0,2.0,2.0,394.4613020003089,4.0,1.0,phase_1,,,,,,,,,,,,,yellow,hexagon
303.0,2.0,1.0,0.0,1.0,1.0,432.5048139999126,4.0,1.0,phase_1,,,,,,,,,,,,,white,square
635.0,7.0,2.0,1.0,2.0,2.0,309.7967339999741,4.0,1.0,phase_1,,,,,,,,,,,,,blue,circle
665.0,7.0,2.0,1.0,3.0,3.0,413.6171050004122,4.0,1.0,phase_1,,,,,,,,,,,,,blue,circle
154.0,5.0,0.5,1.0,3.0,3.0,310.1945389998946,4.0,1.0,phase_1,,,,,,,,,,,,,orange,triangle
631.0,3.0,2.0,0.0,1.0,1.0,536.1957610002719,4.0,1.0,phase_1,,,,,,,,,,,,,yellow,hexagon
646.0,3.0,2.0,0.0,2.0,2.0,554.8187889999099,4.0,1.0,phase_1,,,,,,,,,,,,,yellow,hexagon
301.0,2.0,1.0,0.0,4.0,4.0,393.6676700004682,4.0,1.0,phase_1,,,,,,,,,,,,,white,square
302.0,6.0,1.0,1.0,4.0,4.0,378.5586960002547,4.0,1.0,phase_1,,,,,,,,,,,,,gray,diamond
1278.0,8.0,4.0,1.0,2.0,2.0,302.0522050001091,4.0,1.0,phase_1,,,,,,,,,,,,,cyan,cross
321.0,2.0,1.0,0.0,2.0,2.0,328.598210000564,4.0,1.0,phase_1,,,,,,,,,,,,,white,square
1311.0,4.0,4.0,0.0,1.0,1.0,544.4683080004324,4.0,1.0,phase_1,,,,,,,,,,,,,magenta,I
316.0,2.0,1.0,0.0,1.0,1.0,374.582116000056,4.0,1.0,phase_1,,,,,,,,,,,,,white,square
166.0,1.0,0.5,0.0,1.0,1.0,620.4022810006791,4.0,1.0,phase_1,,,,,,,,,,,,,green,flipped triangle
141.0,5.0,0.5,1.0,4.0,4.0,319.6308259994111,4.0,1.0,phase_1,,,,,,,,,,,,,orange,triangle
152.0,5.0,0.5,1.0,3.0,3.0,308.6980420002874,4.0,1.0,phase_1,,,,,,,,,,,,,orange,triangle
0.0,7.0,0.0,1.0,4.0,4.0,318.8793129993428,4.0,1.0,phase_1,,,,,,,,,,,,,blue,circle
310.0,2.0,1.0,0.0,4.0,4.0,328.0314119992908,4.0,1.0,phase_1,,,,,,,,,,,,,white,square
665.0,7.0,2.0,1.0,4.0,4.0,338.1265510006415,4.0,1.0,phase_1,,,,,,,,,,,,,blue,circle
1291.0,8.0,4.0,1.0,3.0,3.0,328.7736180000138,4.0,1.0,phase_1,,,,,,,,,,,,,cyan,cross
184.0,1.0,0.5,0.0,2.0,2.0,338.574102000166,4.0,1.0,phase_1,,,,,,,,,,,,,green,flipped triangle
641.0,3.0,2.0,0.0,1.0,1.0,346.4796390007905,4.0,1.0,phase_1,,,,,,,,,,,,,yellow,hexagon
336.0,6.0,1.0,1.0,3.0,3.0,385.1481000001513,4.0,1.0,phase_1,,,,,,,,,,,,,gray,diamond
179.0,5.0,0.5,1.0,4.0,4.0,394.6826420005891,4.0,1.0,phase_1,,,,,,,,,,,,,orange,triangle
641.0,7.0,2.0,1.0,3.0,3.0,310.0341560002562,4.0,1.0,phase_1,,,,,,,,,,,,,blue,circle
0.0,5.0,0.0,1.0,4.0,4.0,338.1851849999293,4.0,1.0,phase_1,,,,,,,,,,,,,orange,triangle
0.0,2.0,0.0,0.0,4.0,4.0,311.5368919998218,4.0,1.0,phase_1,,,,,,,,,,,,,white,square
338.0,6.0,1.0,1.0,3.0,3.0,329.5641790000445,4.0,1.0,phase_1,,,,,,,,,,,,,gray,diamond
0.0,4.0,0.0,0.0,2.0,2.0,378.2258260007438,4.0,1.0,phase_1,,,,,,,,,,,,,magenta,I
343.0,6.0,1.0,1.0,2.0,2.0,332.0231470006547,4.0,1.0,phase_1,,,,,,,,,,,,,gray,diamond
306.0,6.0,1.0,1.0,2.0,2.0,301.0169099998165,4.0,1.0,phase_1,,,,,,,,,,,,,gray,diamond
346.0,6.0,1.0,1.0,1.0,1.0,431.6381790004016,4.0,1.0,phase_1,,,,,,,,,,,,,gray,diamond
0.0,2.0,0.0,0.0,1.0,1.0,338.5710909997215,4.0,1.0,phase_1,,,,,,,,,,,,,white,square
306.0,2.0,1.0,0.0,4.0,4.0,347.7176790001977,4.0,1.0,phase_1,,,,,,,,,,,,,white,square
656.0,7.0,2.0,1.0,4.0,4.0,348.775248999118,4.0,1.0,phase_1,,,,,,,,,,,,,blue,circle
0.0,6.0,0.0,1.0,2.0,2.0,432.4645340002462,4.0,1.0,phase_1,,,,,,,,,,,,,gray,diamond
0.0,6.0,0.0,1.0,3.0,3.0,385.7272049999665,4.0,1.0,phase_1,,,,,,,,,,,,,gray,diamond
0.0,5.0,0.0,1.0,1.0,1.0,347.1238990005076,4.0,1.0,phase_1,,,,,,,,,,,,,orange,triangle
185.0,1.0,0.5,0.0,4.0,4.0,310.1897329997882,4.0,1.0,phase_1,,,,,,,,,,,,,green,flipped triangle
1277.0,8.0,4.0,1.0,4.0,4.0,318.5612580000452,4.0,1.0,phase_1,,,,,,,,,,,,,cyan,cross
160.0,1.0,0.5,0.0,4.0,4.0,299.8691669999971,4.0,1.0,phase_1,,,,,,,,,,,,,green,flipped triangle
1288.0,8.0,4.0,1.0,3.0,3.0,517.8475000002436,4.0,1.0,phase_1,,,,,,,,,,,,,cyan,cross
1299.0,8.0,4.0,1.0,2.0,2.0,441.6991190000772,4.0,1.0,phase_1,,,,,,,,,,,,,cyan,cross
349.0,6.0,1.0,1.0,1.0,1.0,367.4711939993358,4.0,1.0,phase_1,,,,,,,,,,,,,gray,diamond
0.0,1.0,0.5,0.0,6.0,6.0,563.8015470003666,1.0,1.0,phase_2,go,250.0,250.0,1.0,,,,,,,,,green,flipped triangle
0.0,2.0,1.0,0.0,5.0,5.0,319.9034690005646,1.0,1.0,phase_2,go,250.0,250.0,1.0,,,,,,,,,white,square
0.0,7.0,2.0,1.0,5.0,0.0,0.0,1.0,1.0,phase_2,stop,250.0,250.0,4.0,,,,,,,,,blue,circle
0.0,1.0,0.5,0.0,6.0,6.0,293.5628249997535,1.0,1.0,phase_2,go,300.0,250.0,1.0,,,,,,,,,green,flipped triangle
0.0,7.0,2.0,1.0,5.0,5.0,264.7580459997698,1.0,1.0,phase_2,go,300.0,250.0,1.0,,,,,,,,,blue,circle
0.0,4.0,4.0,0.0,6.0,6.0,369.001555000068,1.0,1.0,phase_2,go,300.0,250.0,1.0,,,,,,,,,magenta,I
0.0,6.0,1.0,1.0,5.0,5.0,284.6787750004296,1.0,1.0,phase_2,stop,300.0,250.0,3.0,,,,,,,,,gray,diamond
0.0,2.0,1.0,0.0,6.0,6.0,263.875487000405,1.0,1.0,phase_2,go,250.0,250.0,1.0,,,,,,,,,white,square
0.0,1.0,0.5,0.0,6.0,6.0,303.5447090005618,1.0,1.0,phase_2,go,250.0,250.0,1.0,,,,,,,,,green,flipped triangle
0.0,8.0,4.0,1.0,5.0,5.0,289.9853330000042,1.0,1.0,phase_2,stop,250.0,250.0,3.0,,,,,,,,,cyan,cross
0.0,2.0,1.0,0.0,5.0,5.0,276.0213410001597,1.0,1.0,phase_2,go,200.0,250.0,1.0,,,,,,,,,white,square
0.0,2.0,1.0,0.0,5.0,5.0,303.3390030004739,1.0,1.0,phase_2,go,200.0,250.0,1.0,,,,,,,,,white,square
0.0,3.0,2.0,0.0,6.0,6.0,293.2864410004185,1.0,1.0,phase_2,go,200.0,250.0,1.0,,,,,,,,,yellow,hexagon
0.0,6.0,1.0,1.0,6.0,6.0,301.7605960003493,1.0,1.0,phase_2,stop,200.0,250.0,3.0,,,,,,,,,gray,diamond
0.0,3.0,2.0,0.0,5.0,5.0,256.2168739996195,1.0,1.0,phase_2,go,200.0,200.0,1.0,,,,,,,,,yellow,hexagon
0.0,4.0,4.0,0.0,5.0,5.0,323.18845699956,1.0,1.0,phase_2,go,200.0,200.0,1.0,,,,,,,,,magenta,I
0.0,3.0,2.0,0.0,5.0,5.0,304.459136999867,1.0,1.0,phase_2,go,200.0,200.0,1.0,,,,,,,,,yellow,hexagon
0.0,4.0,4.0,0.0,6.0,6.0,274.5330349998767,1.0,1.0,phase_2,go,200.0,200.0,1.0,,,,,,,,,magenta,I
0.0,6.0,1.0,1.0,6.0,6.0,312.2209650000513,1.0,1.0,phase_2,go,200.0,200.0,1.0,,,,,,,,,gray,diamond
0.0,4.0,4.0,0.0,6.0,6.0,286.2624429999414,1.0,1.0,phase_2,go,200.0,200.0,1.0,,,,,,,,,magenta,I
0.0,1.0,0.5,0.0,5.0,5.0,267.6769740000964,1.0,1.0,phase_2,go,200.0,200.0,1.0,,,,,,,,,green,flipped triangle
0.0,6.0,1.0,1.0,5.0,5.0,330.2646290003395,1.0,1.0,phase_2,go,200.0,200.0,1.0,,,,,,,,,gray,diamond
0.0,8.0,4.0,1.0,6.0,6.0,271.1767950004287,1.0,1.0,phase_2,stop,200.0,200.0,3.0,,,,,,,,,cyan,cross
0.0,2.0,1.0,0.0,6.0,6.0,293.409798000539,1.0,1.0,phase_2,go,200.0,150.0,1.0,,,,,,,,,white,square
0.0,5.0,0.5,1.0,6.0,6.0,247.70197099951469,1.0,1.0,phase_2,go,200.0,150.0,1.0,,,,,,,,,orange,triangle
0.0,1.0,0.5,0.0,6.0,6.0,295.2832419996412,1.0,1.0,phase_2,go,200.0,150.0,1.0,,,,,,,,,green,flipped triangle
0.0,3.0,2.0,0.0,6.0,6.0,208.9551480003137,1.0,1.0,phase_2,go,200.0,150.0,1.0,,,,,,,,,yellow,hexagon
0.0,7.0,2.0,1.0,5.0,5.0,240.5196009995052,1.0,1.0,phase_2,stop,200.0,150.0,3.0,,,,,,,,,blue,circle
0.0,3.0,2.0,0.0,5.0,5.0,369.7211039998365,1.0,1.0,phase_2,go,150.0,150.0,1.0,,,,,,,,,yellow,hexagon
0.0,2.0,1.0,0.0,5.0,5.0,274.3399370001498,1.0,1.0,phase_2,go,150.0,150.0,1.0,,,,,,,,,white,square
0.0,8.0,4.0,1.0,6.0,6.0,264.354818999891,1.0,1.0,phase_2,stop,150.0,150.0,3.0,,,,,,,,,cyan,cross
0.0,1.0,0.5,0.0,6.0,6.0,265.6818229997952,1.0,1.0,phase_2,go,150.0,100.0,1.0,,,,,,,,,green,flipped triangle
0.0,1.0,0.5,0.0,6.0,6.0,219.0283280006042,1.0,1.0,phase_2,go,150.0,100.0,1.0,,,,,,,,,green,flipped triangle
0.0,5.0,0.5,1.0,6.0,6.0,338.8493549991835,1.0,1.0,phase_2,stop,150.0,100.0,3.0,,,,,,,,,orange,triangle
0.0,1.0,0.5,0.0,5.0,5.0,322.2914220004895,1.0,1.0,phase_2,go,150.0,50.0,1.0,,,,,,,,,green,flipped triangle
0.0,2.0,1.0,0.0,5.0,5.0,304.4442359996537,1.0,1.0,phase_2,go,150.0,50.0,1.0,,,,,,,,,white,square
0.0,5.0,0.5,1.0,6.0,6.0,327.0872210005109,2.0,1.0,phase_2,stop,150.0,50.0,3.0,,,,,,,,,orange,triangle
0.0,5.0,0.5,1.0,5.0,5.0,247.1064359997399,2.0,1.0,phase_2,go,150.0,0.0,1.0,,,,,,,,,orange,triangle
0.0,3.0,2.0,0.0,5.0,5.0,294.9321559999589,2.0,1.0,phase_2,go,150.0,0.0,1.0,,,,,,,,,yellow,hexagon
0.0,5.0,0.5,1.0,5.0,5.0,274.5905000001585,2.0,1.0,phase_2,go,150.0,0.0,1.0,,,,,,,,,orange,triangle
0.0,2.0,1.0,0.0,5.0,5.0,276.2202380008602,2.0,1.0,phase_2,go,150.0,0.0,1.0,,,,,,,,,white,square
0.0,1.0,0.5,0.0,5.0,5.0,265.5423730002439,2.0,1.0,phase_2,go,150.0,0.0,1.0,,,,,,,,,green,flipped triangle
0.0,3.0,2.0,0.0,5.0,5.0,274.9130160000277,2.0,1.0,phase_2,go,150.0,0.0,1.0,,,,,,,,,yellow,hexagon
0.0,2.0,1.0,0.0,5.0,5.0,285.5769130001135,2.0,1.0,phase_2,go,150.0,0.0,1.0,,,,,,,,,white,square
0.0,1.0,0.5,0.0,6.0,6.0,275.4478449996895,2.0,1.0,phase_2,go,150.0,0.0,1.0,,,,,,,,,green,flipped triangle
0.0,8.0,4.0,1.0,5.0,5.0,227.4456269997244,2.0,1.0,phase_2,stop,150.0,0.0,3.0,,,,,,,,,cyan,cross
0.0,4.0,4.0,0.0,6.0,6.0,275.55913200012577,2.0,1.0,phase_2,go,100.0,0.0,1.0,,,,,,,,,magenta,I
0.0,5.0,0.5,1.0,5.0,5.0,245.6453960003273,2.0,1.0,phase_2,stop,100.0,0.0,3.0,,,,,,,,,orange,triangle
0.0,2.0,1.0,0.0,5.0,5.0,350.3066929997658,2.0,1.0,phase_2,go,50.0,0.0,1.0,,,,,,,,,white,square
0.0,6.0,1.0,1.0,5.0,5.0,260.2489030005017,2.0,1.0,phase_2,stop,50.0,0.0,3.0,,,,,,,,,gray,diamond
0.0,1.0,0.5,0.0,5.0,5.0,294.5036999999502,2.0,1.0,phase_2,go,0.0,0.0,1.0,,,,,,,,,green,flipped triangle
0.0,1.0,0.5,0.0,6.0,6.0,292.7444539991484,2.0,1.0,phase_2,go,0.0,0.0,1.0,,,,,,,,,green,flipped triangle
0.0,5.0,0.5,1.0,6.0,6.0,260.200149999946,2.0,1.0,phase_2,stop,0.0,0.0,3.0,,,,,,,,,orange,triangle
0.0,8.0,4.0,1.0,5.0,5.0,258.7012750000212,2.0,1.0,phase_2,stop,0.0,0.0,3.0,,,,,,,,,cyan,cross
0.0,7.0,2.0,1.0,5.0,0.0,0.0,2.0,1.0,phase_2,stop,0.0,0.0,4.0,,,,,,,,,blue,circle
0.0,5.0,0.5,1.0,5.0,5.0,360.4545700000017,2.0,1.0,phase_2,go,50.0,0.0,1.0,,,,,,,,,orange,triangle
0.0,7.0,2.0,1.0,6.0,0.0,0.0,2.0,1.0,phase_2,stop,50.0,0.0,4.0,,,,,,,,,blue,circle
0.0,2.0,1.0,0.0,6.0,6.0,322.9134570001406,2.0,1.0,phase_2,go,50.0,50.0,1.0,,,,,,,,,white,square
0.0,4.0,4.0,0.0,5.0,5.0,332.084734000091,2.0,1.0,phase_2,go,50.0,50.0,1.0,,,,,,,,,magenta,I
0.0,4.0,4.0,0.0,6.0,6.0,246.5875450006933,2.0,1.0,phase_2,go,50.0,50.0,1.0,,,,,,,,,magenta,I
0.0,8.0,4.0,1.0,5.0,5.0,274.7968690000562,2.0,1.0,phase_2,stop,50.0,50.0,3.0,,,,,,,,,cyan,cross
0.0,6.0,1.0,1.0,6.0,6.0,322.3409140000512,2.0,1.0,phase_2,go,0.0,50.0,1.0,,,,,,,,,gray,diamond
0.0,3.0,2.0,0.0,6.0,6.0,256.1849720004829,2.0,1.0,phase_2,go,0.0,50.0,1.0,,,,,,,,,yellow,hexagon
0.0,8.0,4.0,1.0,5.0,5.0,274.8554259997036,2.0,1.0,phase_2,go,0.0,50.0,1.0,,,,,,,,,cyan,cross
0.0,5.0,0.5,1.0,6.0,6.0,273.8973599998644,2.0,1.0,phase_2,stop,0.0,50.0,3.0,,,,,,,,,orange,triangle
0.0,2.0,1.0,0.0,6.0,6.0,360.1072000001295,2.0,1.0,phase_2,go,0.0,0.0,1.0,,,,,,,,,white,square
0.0,8.0,4.0,1.0,5.0,0.0,0.0,2.0,1.0,phase_2,stop,0.0,0.0,4.0,,,,,,,,,cyan,cross
0.0,6.0,1.0,1.0,5.0,5.0,378.4623359997567,2.0,1.0,phase_2,go,50.0,0.0,1.0,,,,,,,,,gray,diamond
0.0,2.0,1.0,0.0,6.0,6.0,274.5020679994923,2.0,1.0,phase_2,go,50.0,0.0,1.0,,,,,,,,,white,square
0.0,7.0,2.0,1.0,6.0,0.0,0.0,2.0,1.0,phase_2,stop,50.0,0.0,4.0,,,,,,,,,blue,circle
0.0,5.0,0.5,1.0,5.0,5.0,327.0039669996549,2.0,1.0,phase_2,stop,50.0,50.0,3.0,,,,,,,,,orange,triangle
0.0,5.0,0.5,1.0,6.0,6.0,937.6842250003392,2.0,1.0,phase_2,go,0.0,50.0,1.0,,,,,,,,,orange,triangle
0.0,6.0,1.0,1.0,6.0,6.0,670.4361649999555,3.0,1.0,phase_2,stop,0.0,50.0,3.0,,,,,,,,,gray,diamond
0.0,2.0,1.0,0.0,6.0,6.0,332.53503800006,3.0,1.0,phase_2,go,0.0,0.0,1.0,,,,,,,,,white,square
0.0,8.0,4.0,1.0,6.0,0.0,0.0,3.0,1.0,phase_2,stop,0.0,0.0,4.0,,,,,,,,,cyan,cross
0.0,4.0,4.0,0.0,5.0,5.0,635.8192210000198,3.0,1.0,phase_2,go,0.0,50.0,1.0,,,,,,,,,magenta,I
0.0,8.0,4.0,1.0,6.0,6.0,748.5378520004815,3.0,1.0,phase_2,go,0.0,50.0,1.0,,,,,,,,,cyan,cross
0.0,4.0,4.0,0.0,6.0,6.0,443.3537789991533,3.0,1.0,phase_2,go,0.0,50.0,1.0,,,,,,,,,magenta,I
0.0,4.0,4.0,0.0,6.0,6.0,560.2424980006617,3.0,1.0,phase_2,go,0.0,50.0,1.0,,,,,,,,,magenta,I
0.0,1.0,0.5,0.0,6.0,6.0,587.8329919996759,3.0,1.0,phase_2,go,0.0,50.0,1.0,,,,,,,,,green,flipped triangle
0.0,3.0,2.0,0.0,5.0,5.0,635.5178389994762,3.0,1.0,phase_2,go,0.0,50.0,1.0,,,,,,,,,yellow,hexagon
0.0,4.0,4.0,0.0,5.0,5.0,454.905274000339,3.0,1.0,phase_2,go,0.0,50.0,1.0,,,,,,,,,magenta,I
0.0,7.0,2.0,1.0,5.0,0.0,0.0,3.0,1.0,phase_2,stop,0.0,50.0,4.0,,,,,,,,,blue,circle
0.0,3.0,2.0,0.0,5.0,5.0,500.79389400070795,3.0,1.0,phase_2,go,50.0,50.0,1.0,,,,,,,,,yellow,hexagon
0.0,3.0,2.0,0.0,6.0,6.0,455.23619100004,3.0,1.0,phase_2,go,50.0,50.0,1.0,,,,,,,,,yellow,hexagon
0.0,7.0,2.0,1.0,6.0,0.0,0.0,3.0,1.0,phase_2,stop,50.0,50.0,4.0,,,,,,,,,blue,circle
0.0,5.0,0.5,1.0,5.0,5.0,359.695051000017,3.0,1.0,phase_2,go,50.0,100.0,1.0,,,,,,,,,orange,triangle
0.0,2.0,1.0,0.0,5.0,5.0,425.1867029997811,3.0,1.0,phase_2,go,50.0,100.0,1.0,,,,,,,,,white,square
0.0,7.0,2.0,1.0,6.0,0.0,0.0,3.0,1.0,phase_2,stop,50.0,100.0,4.0,,,,,,,,,blue,circle
0.0,4.0,4.0,0.0,6.0,6.0,529.578704999949,3.0,1.0,phase_2,go,50.0,150.0,1.0,,,,,,,,,magenta,I
0.0,8.0,4.0,1.0,6.0,0.0,0.0,3.0,1.0,phase_2,stop,50.0,150.0,4.0,,,,,,,,,cyan,cross
0.0,7.0,2.0,1.0,6.0,0.0,0.0,3.0,1.0,phase_2,stop,50.0,200.0,4.0,,,,,,,,,blue,circle
0.0,2.0,1.0,0.0,6.0,6.0,370.1479719993585,3.0,1.0,phase_2,go,50.0,250.0,1.0,,,,,,,,,white,square
0.0,8.0,4.0,1.0,6.0,0.0,0.0,3.0,1.0,phase_2,stop,50.0,250.0,4.0,,,,,,,,,cyan,cross
0.0,5.0,0.5,1.0,6.0,0.0,0.0,3.0,1.0,phase_2,stop,50.0,300.0,4.0,,,,,,,,,orange,triangle
0.0,5.0,0.5,1.0,5.0,0.0,0.0,3.0,1.0,phase_2,stop,50.0,350.0,4.0,,,,,,,,,orange,triangle
0.0,5.0,0.5,1.0,5.0,5.0,681.9263719999071,3.0,1.0,phase_2,go,100.0,350.0,1.0,,,,,,,,,orange,triangle
0.0,8.0,4.0,1.0,5.0,5.0,872.4554050004372,3.0,1.0,phase_2,go,100.0,350.0,1.0,,,,,,,,,cyan,cross
0.0,2.0,1.0,0.0,5.0,5.0,589.2193409999891,3.0,1.0,phase_2,go,100.0,350.0,1.0,,,,,,,,,white,square
0.0,6.0,1.0,1.0,6.0,0.0,0.0,3.0,1.0,phase_2,stop,100.0,350.0,4.0,,,,,,,,,gray,diamond
0.0,5.0,0.5,1.0,6.0,0.0,0.0,3.0,1.0,phase_2,stop,100.0,400.0,4.0,,,,,,,,,orange,triangle
0.0,2.0,1.0,0.0,6.0,6.0,756.4675679996071,3.0,1.0,phase_2,go,100.0,450.0,1.0,,,,,,,,,white,square
0.0,6.0,1.0,1.0,5.0,0.0,0.0,3.0,1.0,phase_2,stop,100.0,450.0,4.0,,,,,,,,,gray,diamond
0.0,5.0,0.5,1.0,5.0,0.0,0.0,3.0,1.0,phase_2,stop,150.0,450.0,4.0,,,,,,,,,orange,triangle
0.0,1.0,0.5,0.0,5.0,5.0,862.3505940004179,3.0,1.0,phase_2,go,200.0,450.0,1.0,,,,,,,,,green,flipped triangle
0.0,2.0,1.0,0.0,6.0,6.0,767.4489229993924,3.0,1.0,phase_2,go,200.0,450.0,1.0,,,,,,,,,white,square
0.0,4.0,4.0,0.0,6.0,6.0,702.2290069999144,3.0,1.0,phase_2,go,200.0,450.0,1.0,,,,,,,,,magenta,I
0.0,8.0,4.0,1.0,6.0,0.0,0.0,3.0,1.0,phase_2,stop,200.0,450.0,4.0,,,,,,,,,cyan,cross
0.0,1.0,0.5,0.0,5.0,5.0,653.1160619997536,4.0,1.0,phase_2,go,200.0,500.0,1.0,,,,,,,,,green,flipped triangle
0.0,8.0,4.0,1.0,5.0,0.0,0.0,4.0,1.0,phase_2,stop,200.0,500.0,4.0,,,,,,,,,cyan,cross
0.0,7.0,2.0,1.0,6.0,6.0,657.6849149996633,4.0,1.0,phase_2,stop,250.0,500.0,3.0,,,,,,,,,blue,circle
0.0,1.0,0.5,0.0,6.0,6.0,577.8025720001096,4.0,1.0,phase_2,go,250.0,450.0,1.0,,,,,,,,,green,flipped triangle
0.0,6.0,1.0,1.0,6.0,6.0,416.6822010001851,4.0,1.0,phase_2,stop,250.0,450.0,3.0,,,,,,,,,gray,diamond
0.0,3.0,2.0,0.0,6.0,6.0,729.4767120001779,4.0,1.0,phase_2,go,250.0,400.0,1.0,,,,,,,,,yellow,hexagon
0.0,6.0,1.0,1.0,6.0,6.0,506.64108199998736,4.0,1.0,phase_2,stop,250.0,400.0,3.0,,,,,,,,,gray,diamond
0.0,1.0,0.5,0.0,5.0,5.0,805.3318290003517,4.0,1.0,phase_2,go,250.0,350.0,1.0,,,,,,,,,green,flipped triangle
0.0,6.0,1.0,1.0,6.0,6.0,406.9433470003787,4.0,1.0,phase_2,go,250.0,350.0,1.0,,,,,,,,,gray,diamond
0.0,6.0,1.0,1.0,5.0,5.0,304.3979399999443,4.0,1.0,phase_2,stop,250.0,350.0,3.0,,,,,,,,,gray,diamond
0.0,8.0,4.0,1.0,5.0,0.0,0.0,4.0,1.0,phase_2,stop,200.0,350.0,4.0,,,,,,,,,cyan,cross
0.0,6.0,1.0,1.0,5.0,0.0,0.0,4.0,1.0,phase_2,stop,250.0,350.0,4.0,,,,,,,,,gray,diamond
0.0,4.0,4.0,0.0,5.0,5.0,836.7469249997157,4.0,1.0,phase_2,go,300.0,350.0,1.0,,,,,,,,,magenta,I
0.0,7.0,2.0,1.0,6.0,6.0,491.574875999504,4.0,1.0,phase_2,stop,300.0,350.0,3.0,,,,,,,,,blue,circle
0.0,6.0,1.0,1.0,6.0,0.0,0.0,4.0,1.0,phase_2,stop,300.0,300.0,4.0,,,,,,,,,gray,diamond
0.0,8.0,4.0,1.0,6.0,0.0,0.0,4.0,1.0,phase_2,stop,300.0,350.0,4.0,,,,,,,,,cyan,cross
0.0,7.0,2.0,1.0,6.0,6.0,729.7213339998052,4.0,1.0,phase_2,go,300.0,400.0,1.0,,,,,,,,,blue,circle
0.0,7.0,2.0,1.0,6.0,0.0,0.0,4.0,1.0,phase_2,stop,300.0,400.0,4.0,,,,,,,,,blue,circle
0.0,7.0,2.0,1.0,6.0,6.0,615.1443449998624,4.0,1.0,phase_2,go,300.0,450.0,1.0,,,,,,,,,blue,circle
0.0,4.0,4.0,0.0,5.0,5.0,540.5253270000685,4.0,1.0,phase_2,go,300.0,450.0,1.0,,,,,,,,,magenta,I
0.0,7.0,2.0,1.0,5.0,0.0,0.0,4.0,1.0,phase_2,stop,300.0,450.0,4.0,,,,,,,,,blue,circle
0.0,3.0,2.0,0.0,6.0,6.0,381.2608550006189,4.0,1.0,phase_2,go,350.0,450.0,1.0,,,,,,,,,yellow,hexagon
0.0,4.0,4.0,0.0,5.0,5.0,511.9321170004696,4.0,1.0,phase_2,go,350.0,450.0,1.0,,,,,,,,,magenta,I
0.0,7.0,2.0,1.0,6.0,6.0,302.8957460001038,4.0,1.0,phase_2,go,350.0,450.0,1.0,,,,,,,,,blue,circle
0.0,5.0,0.5,1.0,6.0,6.0,512.5257700001384,4.0,1.0,phase_2,stop,350.0,450.0,3.0,,,,,,,,,orange,triangle
0.0,8.0,4.0,1.0,5.0,5.0,445.9365199991225,4.0,1.0,phase_2,go,350.0,400.0,1.0,,,,,,,,,cyan,cross
0.0,7.0,2.0,1.0,6.0,6.0,588.4028439995745,4.0,1.0,phase_2,stop,350.0,400.0,3.0,,,,,,,,,blue,circle
0.0,2.0,1.0,0.0,6.0,6.0,560.013637999873,4.0,1.0,phase_2,go,350.0,350.0,1.0,,,,,,,,,white,square
0.0,8.0,4.0,1.0,6.0,6.0,332.3048769998422,4.0,1.0,phase_2,go,350.0,350.0,1.0,,,,,,,,,cyan,cross
0.0,5.0,0.5,1.0,6.0,6.0,389.3521339996368,4.0,1.0,phase_2,stop,350.0,350.0,3.0,,,,,,,,,orange,triangle
0.0,6.0,1.0,1.0,5.0,5.0,341.8007780001062,4.0,1.0,phase_2,stop,350.0,300.0,3.0,,,,,,,,,gray,diamond
0.0,6.0,1.0,1.0,6.0,6.0,899.5648840000285,4.0,1.0,phase_2,go,300.0,300.0,1.0,,,,,,,,,gray,diamond
0.0,8.0,4.0,1.0,6.0,0.0,0.0,4.0,1.0,phase_2,stop,300.0,300.0,4.0,,,,,,,,,cyan,cross
0.0,1.0,0.5,0.0,6.0,6.0,786.0091990005458,4.0,1.0,phase_2,go,300.0,350.0,1.0,,,,,,,,,green,flipped triangle
0.0,4.0,4.0,0.0,6.0,6.0,625.8172949992513,4.0,1.0,phase_2,go,300.0,350.0,1.0,,,,,,,,,magenta,I
0.0,6.0,1.0,1.0,5.0,5.0,416.3588840001466,4.0,1.0,phase_2,stop,300.0,350.0,3.0,,,,,,,,,gray,diamond
0.0,3.0,2.0,0.0,5.0,5.0,353.3800330005761,5.0,1.0,phase_2,go,250.0,350.0,1.0,,,,,,,,,yellow,hexagon
0.0,5.0,0.5,1.0,6.0,6.0,409.8935820002225,5.0,1.0,phase_2,stop,250.0,350.0,3.0,,,,,,,,,orange,triangle
0.0,1.0,0.5,0.0,5.0,5.0,551.1244829995121,5.0,1.0,phase_2,go,250.0,300.0,1.0,,,,,,,,,green,flipped triangle
0.0,6.0,1.0,1.0,6.0,0.0,0.0,5.0,1.0,phase_2,stop,250.0,300.0,4.0,,,,,,,,,gray,diamond
0.0,4.0,4.0,0.0,5.0,5.0,616.0557949997383,5.0,1.0,phase_2,go,250.0,350.0,1.0,,,,,,,,,magenta,I
0.0,4.0,4.0,0.0,5.0,5.0,522.6570220002031,5.0,1.0,phase_2,go,250.0,350.0,1.0,,,,,,,,,magenta,I
0.0,2.0,1.0,0.0,5.0,5.0,863.0295680004565,5.0,1.0,phase_2,go,250.0,350.0,1.0,,,,,,,,,white,square
0.0,6.0,1.0,1.0,5.0,0.0,0.0,5.0,1.0,phase_2,stop,250.0,350.0,4.0,,,,,,,,,gray,diamond
0.0,3.0,2.0,0.0,6.0,6.0,293.5085389999585,5.0,1.0,phase_2,go,300.0,350.0,1.0,,,,,,,,,yellow,hexagon
0.0,1.0,0.5,0.0,6.0,6.0,388.1060810008421,5.0,1.0,phase_2,go,300.0,350.0,1.0,,,,,,,,,green,flipped triangle
0.0,5.0,0.5,1.0,5.0,5.0,397.1783110000615,5.0,1.0,phase_2,stop,300.0,350.0,3.0,,,,,,,,,orange,triangle
0.0,1.0,0.5,0.0,6.0,6.0,541.1302379998233,5.0,1.0,phase_2,go,250.0,350.0,1.0,,,,,,,,,green,flipped triangle
0.0,2.0,1.0,0.0,6.0,6.0,351.2132980004026,5.0,1.0,phase_2,go,250.0,350.0,1.0,,,,,,,,,white,square
0.0,8.0,4.0,1.0,5.0,5.0,283.6962840001433,5.0,1.0,phase_2,go,250.0,350.0,1.0,,,,,,,,,cyan,cross
0.0,7.0,2.0,1.0,5.0,5.0,363.4039729995493,5.0,1.0,phase_2,stop,250.0,350.0,3.0,,,,,,,,,blue,circle
0.0,7.0,2.0,1.0,5.0,0.0,0.0,5.0,1.0,phase_2,stop,200.0,350.0,4.0,,,,,,,,,blue,circle
0.0,2.0,1.0,0.0,6.0,6.0,275.7534729998951,5.0,1.0,phase_2,go,250.0,350.0,1.0,,,,,,,,,white,square
0.0,3.0,2.0,0.0,6.0,6.0,362.3853039998721,5.0,1.0,phase_2,go,250.0,350.0,1.0,,,,,,,,,yellow,hexagon
0.0,4.0,4.0,0.0,5.0,5.0,305.4045039998527,5.0,1.0,phase_2,go,250.0,350.0,1.0,,,,,,,,,magenta,I
0.0,8.0,4.0,1.0,5.0,5.0,285.3091750002932,5.0,1.0,phase_2,go,250.0,350.0,1.0,,,,,,,,,cyan,cross
0.0,2.0,1.0,0.0,6.0,6.0,484.1891699998086,5.0,1.0,phase_2,go,250.0,350.0,1.0,,,,,,,,,white,square
0.0,1.0,0.5,0.0,5.0,5.0,461.4300100001856,5.0,1.0,phase_2,go,250.0,350.0,1.0,,,,,,,,,green,flipped triangle
0.0,3.0,2.0,0.0,6.0,6.0,294.9802169996474,5.0,1.0,phase_2,go,250.0,350.0,1.0,,,,,,,,,yellow,hexagon
0.0,5.0,0.5,1.0,5.0,5.0,303.5192589995859,5.0,1.0,phase_2,stop,250.0,350.0,3.0,,,,,,,,,orange,triangle
0.0,7.0,2.0,1.0,6.0,6.0,398.6088460005703,5.0,1.0,phase_2,go,200.0,350.0,1.0,,,,,,,,,blue,circle
0.0,6.0,1.0,1.0,6.0,6.0,305.7170390002284,5.0,1.0,phase_2,go,200.0,350.0,1.0,,,,,,,,,gray,diamond
0.0,3.0,2.0,0.0,5.0,5.0,400.6616639999265,5.0,1.0,phase_2,go,200.0,350.0,1.0,,,,,,,,,yellow,hexagon
0.0,3.0,2.0,0.0,6.0,6.0,294.2375590000665,5.0,1.0,phase_2,go,200.0,350.0,1.0,,,,,,,,,yellow,hexagon
0.0,8.0,4.0,1.0,6.0,6.0,333.1533560003663,5.0,1.0,phase_2,stop,200.0,350.0,3.0,,,,,,,,,cyan,cross
0.0,3.0,2.0,0.0,5.0,5.0,569.6477999999843,5.0,1.0,phase_2,go,200.0,300.0,1.0,,,,,,,,,yellow,hexagon
0.0,2.0,1.0,0.0,6.0,6.0,379.7797509996599,5.0,1.0,phase_2,go,200.0,300.0,1.0,,,,,,,,,white,square
0.0,7.0,2.0,1.0,5.0,5.0,322.5535519995901,5.0,1.0,phase_2,go,200.0,300.0,1.0,,,,,,,,,blue,circle
0.0,7.0,2.0,1.0,5.0,5.0,334.3699350007227,5.0,1.0,phase_2,stop,200.0,300.0,3.0,,,,,,,,,blue,circle
0.0,2.0,1.0,0.0,6.0,6.0,341.300523999962,5.0,1.0,phase_2,go,150.0,300.0,1.0,,,,,,,,,white,square
0.0,5.0,0.5,1.0,5.0,5.0,291.2288930001523,5.0,1.0,phase_2,stop,150.0,300.0,3.0,,,,,,,,,orange,triangle
0.0,8.0,4.0,1.0,6.0,6.0,294.554834000337,5.0,1.0,phase_2,stop,100.0,300.0,3.0,,,,,,,,,cyan,cross
0.0,4.0,4.0,0.0,6.0,6.0,1248.0242120000185,6.0,1.0,phase_2,go,100.0,250.0,1.0,,,,,,,,,magenta,I
0.0,8.0,4.0,1.0,6.0,6.0,434.6644690003813,6.0,1.0,phase_2,go,100.0,250.0,1.0,,,,,,,,,cyan,cross
0.0,1.0,0.5,0.0,5.0,5.0,587.3684889993456,6.0,1.0,phase_2,go,100.0,250.0,1.0,,,,,,,,,green,flipped triangle
0.0,7.0,2.0,1.0,5.0,0.0,0.0,6.0,1.0,phase_2,stop,100.0,250.0,4.0,,,,,,,,,blue,circle
0.0,8.0,4.0,1.0,5.0,0.0,0.0,6.0,1.0,phase_2,stop,150.0,250.0,4.0,,,,,,,,,cyan,cross
0.0,4.0,4.0,0.0,6.0,6.0,586.9387319999078,6.0,1.0,phase_2,go,200.0,250.0,1.0,,,,,,,,,magenta,I
0.0,4.0,4.0,0.0,6.0,6.0,718.2680629994138,6.0,1.0,phase_2,go,200.0,250.0,1.0,,,,,,,,,magenta,I
0.0,6.0,1.0,1.0,6.0,6.0,371.2598700003582,6.0,1.0,phase_2,stop,200.0,250.0,3.0,,,,,,,,,gray,diamond
0.0,4.0,4.0,0.0,5.0,5.0,436.1047310003414,6.0,1.0,phase_2,go,200.0,200.0,1.0,,,,,,,,,magenta,I
0.0,8.0,4.0,1.0,6.0,0.0,0.0,6.0,1.0,phase_2,stop,200.0,200.0,4.0,,,,,,,,,cyan,cross
0.0,4.0,4.0,0.0,5.0,5.0,651.6128729999764,6.0,1.0,phase_2,go,200.0,250.0,1.0,,,,,,,,,magenta,I
0.0,7.0,2.0,1.0,6.0,6.0,331.5623779999441,6.0,1.0,phase_2,go,200.0,250.0,1.0,,,,,,,,,blue,circle
0.0,4.0,4.0,0.0,6.0,6.0,416.630766999333,6.0,1.0,phase_2,go,200.0,250.0,1.0,,,,,,,,,magenta,I
0.0,8.0,4.0,1.0,6.0,6.0,353.9142820000052,6.0,1.0,phase_2,stop,200.0,250.0,3.0,,,,,,,,,cyan,cross
0.0,7.0,2.0,1.0,5.0,5.0,690.70215299962,6.0,1.0,phase_2,go,200.0,200.0,1.0,,,,,,,,,blue,circle
0.0,6.0,1.0,1.0,6.0,0.0,0.0,6.0,1.0,phase_2,stop,200.0,200.0,4.0,,,,,,,,,gray,diamond
0.0,3.0,2.0,0.0,6.0,6.0,389.3679449993215,6.0,1.0,phase_2,go,200.0,250.0,1.0,,,,,,,,,yellow,hexagon
0.0,4.0,4.0,0.0,5.0,5.0,483.534036000492,6.0,1.0,phase_2,go,200.0,250.0,1.0,,,,,,,,,magenta,I
0.0,3.0,2.0,0.0,6.0,6.0,624.5220470000277,6.0,1.0,phase_2,go,200.0,250.0,1.0,,,,,,,,,yellow,hexagon
0.0,6.0,1.0,1.0,5.0,0.0,0.0,6.0,1.0,phase_2,stop,200.0,250.0,4.0,,,,,,,,,gray,diamond
0.0,6.0,1.0,1.0,5.0,0.0,0.0,6.0,1.0,phase_2,stop,250.0,250.0,4.0,,,,,,,,,gray,diamond
0.0,5.0,0.5,1.0,6.0,0.0,0.0,6.0,1.0,phase_2,stop,300.0,250.0,4.0,,,,,,,,,orange,triangle
0.0,3.0,2.0,0.0,6.0,6.0,720.2634620007302,6.0,1.0,phase_2,go,300.0,300.0,1.0,,,,,,,,,yellow,hexagon
0.0,8.0,4.0,1.0,5.0,5.0,466.6757850000067,6.0,1.0,phase_2,stop,300.0,300.0,3.0,,,,,,,,,cyan,cross
0.0,1.0,0.5,0.0,5.0,5.0,464.4000010002855,6.0,1.0,phase_2,go,250.0,300.0,1.0,,,,,,,,,green,flipped triangle
0.0,2.0,1.0,0.0,5.0,5.0,540.8937759993933,6.0,1.0,phase_2,go,250.0,300.0,1.0,,,,,,,,,white,square
0.0,7.0,2.0,1.0,6.0,6.0,764.3141670005207,6.0,1.0,phase_2,go,250.0,300.0,1.0,,,,,,,,,blue,circle
0.0,7.0,2.0,1.0,6.0,0.0,0.0,6.0,1.0,phase_2,stop,250.0,300.0,4.0,,,,,,,,,blue,circle
0.0,3.0,2.0,0.0,5.0,5.0,417.3863460000575,6.0,1.0,phase_2,go,250.0,350.0,1.0,,,,,,,,,yellow,hexagon
0.0,1.0,0.5,0.0,5.0,5.0,350.0103249998574,6.0,1.0,phase_2,go,250.0,350.0,1.0,,,,,,,,,green,flipped triangle
0.0,3.0,2.0,0.0,6.0,6.0,417.3843669996131,6.0,1.0,phase_2,go,250.0,350.0,1.0,,,,,,,,,yellow,hexagon
0.0,7.0,2.0,1.0,5.0,5.0,336.6465770004652,6.0,1.0,phase_2,stop,250.0,350.0,3.0,,,,,,,,,blue,circle
0.0,5.0,0.5,1.0,6.0,0.0,0.0,6.0,1.0,phase_2,stop,200.0,350.0,4.0,,,,,,,,,orange,triangle
0.0,2.0,1.0,0.0,5.0,5.0,812.3362070000439,6.0,1.0,phase_2,go,200.0,400.0,1.0,,,,,,,,,white,square
0.0,2.0,1.0,0.0,5.0,5.0,626.8553690006229,6.0,1.0,phase_2,go,200.0,400.0,1.0,,,,,,,,,white,square
0.0,3.0,2.0,0.0,5.0,5.0,697.9454629999964,6.0,1.0,phase_2,go,200.0,400.0,1.0,,,,,,,,,yellow,hexagon
0.0,4.0,4.0,0.0,6.0,6.0,473.6201109999456,7.0,1.0,phase_2,go,200.0,400.0,1.0,,,,,,,,,magenta,I
0.0,1.0,0.5,0.0,6.0,6.0,284.5087749992672,7.0,1.0,phase_2,go,200.0,400.0,1.0,,,,,,,,,green,flipped triangle
0.0,1.0,0.5,0.0,5.0,5.0,340.6131780002397,7.0,1.0,phase_2,go,200.0,400.0,1.0,,,,,,,,,green,flipped triangle
0.0,5.0,0.5,1.0,5.0,5.0,387.6120529994296,7.0,1.0,phase_2,go,200.0,400.0,1.0,,,,,,,,,orange,triangle
0.0,6.0,1.0,1.0,6.0,6.0,398.194635999971,7.0,1.0,phase_2,stop,200.0,400.0,3.0,,,,,,,,,gray,diamond
0.0,6.0,1.0,1.0,6.0,0.0,0.0,7.0,1.0,phase_2,stop,200.0,350.0,4.0,,,,,,,,,gray,diamond
0.0,4.0,4.0,0.0,5.0,5.0,472.8574099999605,7.0,1.0,phase_2,go,200.0,400.0,1.0,,,,,,,,,magenta,I
0.0,7.0,2.0,1.0,6.0,0.0,0.0,7.0,1.0,phase_2,stop,200.0,400.0,4.0,,,,,,,,,blue,circle
0.0,2.0,1.0,0.0,6.0,6.0,473.0663770005776,7.0,1.0,phase_2,go,200.0,450.0,1.0,,,,,,,,,white,square
0.0,3.0,2.0,0.0,5.0,5.0,482.2917680003229,7.0,1.0,phase_2,go,200.0,450.0,1.0,,,,,,,,,yellow,hexagon
0.0,4.0,4.0,0.0,6.0,6.0,511.8978299997252,7.0,1.0,phase_2,go,200.0,450.0,1.0,,,,,,,,,magenta,I
0.0,3.0,2.0,0.0,5.0,5.0,407.5259190003635,7.0,1.0,phase_2,go,200.0,450.0,1.0,,,,,,,,,yellow,hexagon
0.0,6.0,1.0,1.0,6.0,6.0,359.4114730003639,7.0,1.0,phase_2,stop,200.0,450.0,3.0,,,,,,,,,gray,diamond
0.0,5.0,0.5,1.0,5.0,5.0,587.351289000253,7.0,1.0,phase_2,go,200.0,400.0,1.0,,,,,,,,,orange,triangle
0.0,8.0,4.0,1.0,5.0,5.0,365.0097800000367,7.0,1.0,phase_2,stop,200.0,400.0,3.0,,,,,,,,,cyan,cross
0.0,5.0,0.5,1.0,6.0,6.0,539.9947240002803,7.0,1.0,phase_2,stop,150.0,400.0,3.0,,,,,,,,,orange,triangle
0.0,4.0,4.0,0.0,6.0,6.0,719.4368269992992,7.0,1.0,phase_2,go,150.0,350.0,1.0,,,,,,,,,magenta,I
0.0,5.0,0.5,1.0,6.0,0.0,0.0,7.0,1.0,phase_2,stop,150.0,350.0,4.0,,,,,,,,,orange,triangle
0.0,1.0,0.5,0.0,5.0,5.0,823.3869139994567,7.0,1.0,phase_2,go,150.0,400.0,1.0,,,,,,,,,green,flipped triangle
0.0,3.0,2.0,0.0,5.0,5.0,1042.82654599956,7.0,1.0,phase_2,go,150.0,400.0,1.0,,,,,,,,,yellow,hexagon
0.0,6.0,1.0,1.0,5.0,0.0,0.0,7.0,1.0,phase_2,stop,150.0,400.0,4.0,,,,,,,,,gray,diamond
0.0,5.0,0.5,1.0,5.0,0.0,0.0,7.0,1.0,phase_2,stop,200.0,400.0,4.0,,,,,,,,,orange,triangle
0.0,7.0,2.0,1.0,5.0,0.0,0.0,7.0,1.0,phase_2,stop,250.0,400.0,4.0,,,,,,,,,blue,circle
0.0,3.0,2.0,0.0,6.0,6.0,512.4254269994708,7.0,1.0,phase_2,go,300.0,400.0,1.0,,,,,,,,,yellow,hexagon
0.0,7.0,2.0,1.0,6.0,0.0,0.0,7.0,1.0,phase_2,stop,300.0,400.0,4.0,,,,,,,,,blue,circle
0.0,3.0,2.0,0.0,6.0,6.0,549.5183230004841,7.0,1.0,phase_2,go,300.0,450.0,1.0,,,,,,,,,yellow,hexagon
0.0,2.0,1.0,0.0,5.0,5.0,352.4310310003784,7.0,1.0,phase_2,go,300.0,450.0,1.0,,,,,,,,,white,square
0.0,7.0,2.0,1.0,5.0,0.0,0.0,7.0,1.0,phase_2,stop,300.0,450.0,4.0,,,,,,,,,blue,circle
0.0,2.0,1.0,0.0,5.0,5.0,474.5533940003952,7.0,1.0,phase_2,go,350.0,450.0,1.0,,,,,,,,,white,square
0.0,1.0,0.5,0.0,6.0,6.0,394.8450890002277,7.0,1.0,phase_2,go,350.0,450.0,1.0,,,,,,,,,green,flipped triangle
0.0,6.0,1.0,1.0,5.0,0.0,0.0,7.0,1.0,phase_2,stop,350.0,450.0,4.0,,,,,,,,,gray,diamond
0.0,4.0,4.0,0.0,6.0,6.0,444.9510599997666,7.0,1.0,phase_2,go,400.0,450.0,1.0,,,,,,,,,magenta,I
0.0,8.0,4.0,1.0,6.0,6.0,560.3369709997423,7.0,1.0,phase_2,stop,400.0,450.0,3.0,,,,,,,,,cyan,cross
0.0,6.0,1.0,1.0,5.0,5.0,588.9308429996163,7.0,1.0,phase_2,go,400.0,400.0,1.0,,,,,,,,,gray,diamond
0.0,8.0,4.0,1.0,5.0,5.0,536.6687269997783,7.0,1.0,phase_2,stop,400.0,400.0,3.0,,,,,,,,,cyan,cross
0.0,3.0,2.0,0.0,5.0,5.0,746.8113559998528,7.0,1.0,phase_2,go,350.0,400.0,1.0,,,,,,,,,yellow,hexagon
0.0,6.0,1.0,1.0,5.0,0.0,0.0,8.0,1.0,phase_2,stop,350.0,400.0,4.0,,,,,,,,,gray,diamond
0.0,8.0,4.0,1.0,5.0,5.0,474.5150549997561,8.0,1.0,phase_2,stop,400.0,400.0,3.0,,,,,,,,,cyan,cross
0.0,4.0,4.0,0.0,5.0,5.0,671.9015650005531,8.0,1.0,phase_2,go,350.0,400.0,1.0,,,,,,,,,magenta,I
0.0,1.0,0.5,0.0,5.0,5.0,433.7512620004418,8.0,1.0,phase_2,go,350.0,400.0,1.0,,,,,,,,,green,flipped triangle
0.0,5.0,0.5,1.0,6.0,6.0,448.8901650001935,8.0,1.0,phase_2,stop,350.0,400.0,3.0,,,,,,,,,orange,triangle
0.0,3.0,2.0,0.0,6.0,6.0,634.9928239997098,8.0,1.0,phase_2,go,350.0,350.0,1.0,,,,,,,,,yellow,hexagon
0.0,3.0,2.0,0.0,5.0,5.0,291.7103219997443,8.0,1.0,phase_2,go,350.0,350.0,1.0,,,,,,,,,yellow,hexagon
0.0,3.0,2.0,0.0,5.0,5.0,304.6021099999052,8.0,1.0,phase_2,go,350.0,350.0,1.0,,,,,,,,,yellow,hexagon
0.0,2.0,1.0,0.0,5.0,5.0,321.7756079993705,8.0,1.0,phase_2,go,350.0,350.0,1.0,,,,,,,,,white,square
0.0,1.0,0.5,0.0,6.0,6.0,303.3235069997317,8.0,1.0,phase_2,go,350.0,350.0,1.0,,,,,,,,,green,flipped triangle
0.0,5.0,0.5,1.0,6.0,6.0,332.549817000654,8.0,1.0,phase_2,stop,350.0,350.0,3.0,,,,,,,,,orange,triangle
0.0,5.0,0.5,1.0,5.0,5.0,323.2701779998024,8.0,1.0,phase_2,stop,350.0,300.0,3.0,,,,,,,,,orange,triangle
0.0,6.0,1.0,1.0,6.0,0.0,0.0,8.0,1.0,phase_2,stop,300.0,300.0,4.0,,,,,,,,,gray,diamond
0.0,1.0,0.5,0.0,5.0,5.0,690.0634670000727,8.0,1.0,phase_2,go,300.0,350.0,1.0,,,,,,,,,green,flipped triangle
0.0,8.0,4.0,1.0,5.0,0.0,0.0,8.0,1.0,phase_2,stop,300.0,350.0,4.0,,,,,,,,,cyan,cross
0.0,5.0,0.5,1.0,6.0,0.0,0.0,8.0,1.0,phase_2,stop,350.0,350.0,4.0,,,,,,,,,orange,triangle
0.0,2.0,1.0,0.0,6.0,6.0,748.7742719995367,8.0,1.0,phase_2,go,350.0,400.0,1.0,,,,,,,,,white,square
0.0,5.0,0.5,1.0,5.0,0.0,0.0,8.0,1.0,phase_2,stop,350.0,400.0,4.0,,,,,,,,,orange,triangle
0.0,7.0,2.0,1.0,5.0,0.0,0.0,8.0,1.0,phase_2,stop,400.0,400.0,4.0,,,,,,,,,blue,circle
0.0,4.0,4.0,0.0,5.0,5.0,910.517088999768,8.0,1.0,phase_2,go,450.0,400.0,1.0,,,,,,,,,magenta,I
0.0,4.0,4.0,0.0,5.0,5.0,598.8436990000991,8.0,1.0,phase_2,go,450.0,400.0,1.0,,,,,,,,,magenta,I
0.0,2.0,1.0,0.0,6.0,6.0,605.6058869999106,8.0,1.0,phase_2,go,450.0,400.0,1.0,,,,,,,,,white,square
0.0,8.0,4.0,1.0,6.0,6.0,360.4274170002099,8.0,1.0,phase_2,go,450.0,400.0,1.0,,,,,,,,,cyan,cross
0.0,7.0,2.0,1.0,5.0,5.0,359.0141229997243,8.0,1.0,phase_2,stop,450.0,400.0,3.0,,,,,,,,,blue,circle
0.0,4.0,4.0,0.0,5.0,5.0,599.8957589999918,8.0,1.0,phase_2,go,400.0,400.0,1.0,,,,,,,,,magenta,I
0.0,3.0,2.0,0.0,6.0,6.0,464.2135459998826,8.0,1.0,phase_2,go,400.0,400.0,1.0,,,,,,,,,yellow,hexagon
0.0,1.0,0.5,0.0,5.0,5.0,379.1664120008136,8.0,1.0,phase_2,go,400.0,400.0,1.0,,,,,,,,,green,flipped triangle
0.0,6.0,1.0,1.0,5.0,5.0,349.9225200002911,8.0,1.0,phase_2,stop,400.0,400.0,3.0,,,,,,,,,gray,diamond
0.0,6.0,1.0,1.0,5.0,5.0,426.4866170005916,8.0,1.0,phase_2,go,350.0,400.0,1.0,,,,,,,,,gray,diamond
0.0,1.0,0.5,0.0,6.0,6.0,701.025299000321,8.0,1.0,phase_2,go,350.0,400.0,1.0,,,,,,,,,green,flipped triangle
0.0,5.0,0.5,1.0,5.0,5.0,524.1482970004654,8.0,1.0,phase_2,stop,350.0,400.0,3.0,,,,,,,,,orange,triangle
0.0,2.0,1.0,0.0,5.0,5.0,938.063577000321,8.0,1.0,phase_2,go,300.0,400.0,1.0,,,,,,,,,white,square
0.0,1.0,0.5,0.0,5.0,5.0,530.141091000587,8.0,1.0,phase_2,go,300.0,400.0,1.0,,,,,,,,,green,flipped triangle
0.0,8.0,4.0,1.0,6.0,6.0,527.2803410007327,8.0,1.0,phase_2,stop,300.0,400.0,3.0,,,,,,,,,cyan,cross
0.0,1.0,0.5,0.0,6.0,6.0,455.194613000458,8.0,1.0,phase_2,go,300.0,350.0,1.0,,,,,,,,,green,flipped triangle
0.0,7.0,2.0,1.0,5.0,0.0,0.0,8.0,1.0,phase_2,stop,300.0,350.0,4.0,,,,,,,,,blue,circle
0.0,1.0,0.5,0.0,7.0,2.0,1635.4358470007355,1.0,1.0,phase_3,,,,,154.0,1.0,462.0,154.0,770.0,616.0,308.0,924.0,green,flipped triangle
0.0,7.0,2.0,1.0,7.0,6.0,2242.30332100069,1.0,1.0,phase_3,,,,,384.0,2.0,192.0,576.0,960.0,768.0,1152.0,384.0,blue,circle
0.0,5.0,0.5,1.0,7.0,1.0,4094.7657159995288,1.0,1.0,phase_3,,,,,154.0,1.0,154.0,924.0,770.0,308.0,462.0,616.0,orange,triangle
0.0,7.0,2.0,1.0,7.0,2.0,2543.8418849998925,1.0,1.0,phase_3,,,,,960.0,5.0,192.0,960.0,384.0,576.0,768.0,1152.0,blue,circle
0.0,2.0,1.0,0.0,7.0,1.0,1786.5477289997216,1.0,1.0,phase_3,,,,,135.0,1.0,135.0,540.0,810.0,270.0,675.0,405.0,white,square
0.0,2.0,1.0,0.0,7.0,4.0,1711.406323999654,1.0,1.0,phase_3,,,,,154.0,1.0,308.0,770.0,616.0,154.0,462.0,924.0,white,square
0.0,7.0,2.0,1.0,7.0,6.0,2314.563464999992,1.0,1.0,phase_3,,,,,270.0,2.0,135.0,540.0,405.0,810.0,675.0,270.0,blue,circle
0.0,3.0,2.0,0.0,7.0,2.0,1905.6530199995905,1.0,1.0,phase_3,,,,,232.0,2.0,116.0,232.0,348.0,580.0,464.0,696.0,yellow,hexagon
0.0,8.0,4.0,1.0,7.0,3.0,2506.4220390004266,1.0,1.0,phase_3,,,,,462.0,3.0,924.0,154.0,462.0,616.0,770.0,308.0,cyan,cross
0.0,8.0,4.0,1.0,7.0,1.0,2443.4478709999894,1.0,1.0,phase_3,,,,,405.0,3.0,405.0,675.0,540.0,270.0,810.0,135.0,cyan,cross
0.0,4.0,4.0,0.0,7.0,4.0,3005.6306100004804,1.0,1.0,phase_3,,,,,580.0,5.0,232.0,348.0,696.0,580.0,116.0,464.0,magenta,I
0.0,5.0,0.5,1.0,7.0,2.0,1534.4952599998578,1.0,1.0,phase_3,,,,,173.0,1.0,865.0,173.0,692.0,346.0,519.0,1038.0,orange,triangle
0.0,1.0,0.5,0.0,7.0,5.0,1821.6314350001996,1.0,1.0,phase_3,,,,,192.0,1.0,576.0,1152.0,768.0,384.0,192.0,960.0,green,flipped triangle
0.0,6.0,1.0,1.0,7.0,6.0,1214.7743530003936,1.0,1.0,phase_3,,,,,116.0,1.0,232.0,696.0,580.0,464.0,348.0,116.0,gray,diamond
0.0,1.0,0.5,0.0,7.0,1.0,2622.139252999659,1.0,1.0,phase_3,,,,,384.0,2.0,384.0,1152.0,192.0,576.0,960.0,768.0,green,flipped triangle
0.0,5.0,0.5,1.0,7.0,1.0,2367.4085090005974,1.0,1.0,phase_3,,,,,348.0,3.0,348.0,696.0,116.0,232.0,580.0,464.0,orange,triangle
0.0,5.0,0.5,1.0,7.0,6.0,1239.4065120006417,1.0,1.0,phase_3,,,,,173.0,1.0,346.0,1038.0,519.0,692.0,865.0,173.0,orange,triangle
0.0,3.0,2.0,0.0,7.0,1.0,2073.015283000132,1.0,1.0,phase_3,,,,,384.0,2.0,384.0,192.0,960.0,1152.0,576.0,768.0,yellow,hexagon
0.0,6.0,1.0,1.0,7.0,4.0,1879.155272999924,1.0,1.0,phase_3,,,,,173.0,1.0,519.0,1038.0,346.0,173.0,865.0,692.0,gray,diamond
0.0,5.0,0.5,1.0,7.0,2.0,1407.1990640004517,1.0,1.0,phase_3,,,,,348.0,3.0,116.0,348.0,232.0,696.0,580.0,464.0,orange,triangle
0.0,6.0,1.0,1.0,7.0,3.0,1748.9013149997843,2.0,1.0,phase_3,,,,,116.0,1.0,232.0,464.0,116.0,696.0,580.0,348.0,gray,diamond
0.0,8.0,4.0,1.0,7.0,5.0,2420.5113910002183,2.0,1.0,phase_3,,,,,692.0,4.0,865.0,173.0,519.0,1038.0,692.0,346.0,cyan,cross
0.0,6.0,1.0,1.0,7.0,6.0,2881.5386220003347,2.0,1.0,phase_3,,,,,192.0,1.0,384.0,960.0,576.0,1152.0,768.0,192.0,gray,diamond
0.0,8.0,4.0,1.0,7.0,6.0,2944.4724049999422,2.0,1.0,phase_3,,,,,675.0,5.0,270.0,810.0,135.0,405.0,540.0,675.0,cyan,cross
0.0,1.0,0.5,0.0,7.0,3.0,3350.090769999952,2.0,1.0,phase_3,,,,,348.0,3.0,696.0,464.0,348.0,116.0,232.0,580.0,green,flipped triangle
0.0,5.0,0.5,1.0,7.0,6.0,2484.644294000645,2.0,1.0,phase_3,,,,,192.0,1.0,576.0,768.0,1152.0,384.0,960.0,192.0,orange,triangle
0.0,2.0,1.0,0.0,7.0,4.0,1947.8980539997792,2.0,1.0,phase_3,,,,,173.0,1.0,692.0,346.0,865.0,173.0,1038.0,519.0,white,square
0.0,6.0,1.0,1.0,7.0,3.0,3274.124622999807,2.0,1.0,phase_3,,,,,135.0,1.0,405.0,675.0,135.0,810.0,270.0,540.0,gray,diamond
0.0,7.0,2.0,1.0,7.0,3.0,1567.044710999653,2.0,1.0,phase_3,,,,,270.0,2.0,810.0,135.0,270.0,540.0,675.0,405.0,blue,circle
0.0,8.0,4.0,1.0,7.0,6.0,3496.4080590007143,2.0,1.0,phase_3,,,,,519.0,3.0,1038.0,346.0,173.0,692.0,865.0,519.0,cyan,cross
0.0,3.0,2.0,0.0,7.0,1.0,2266.780664999714,2.0,1.0,phase_3,,,,,270.0,2.0,270.0,810.0,135.0,405.0,540.0,675.0,yellow,hexagon
0.0,4.0,4.0,0.0,7.0,1.0,1990.186332999656,2.0,1.0,phase_3,,,,,865.0,5.0,865.0,692.0,1038.0,519.0,173.0,346.0,magenta,I
0.0,6.0,1.0,1.0,7.0,1.0,3087.282569999843,2.0,1.0,phase_3,,,,,192.0,1.0,192.0,384.0,576.0,960.0,1152.0,768.0,gray,diamond
0.0,5.0,0.5,1.0,7.0,6.0,1494.038759000432,2.0,1.0,phase_3,,,,,154.0,1.0,770.0,924.0,308.0,616.0,462.0,154.0,orange,triangle
0.0,8.0,4.0,1.0,7.0,6.0,3166.971622999881,2.0,1.0,phase_3,,,,,770.0,5.0,154.0,462.0,308.0,616.0,924.0,770.0,cyan,cross
0.0,8.0,4.0,1.0,7.0,6.0,4896.99721100078,2.0,1.0,phase_3,,,,,768.0,4.0,192.0,1152.0,576.0,960.0,384.0,768.0,cyan,cross
0.0,1.0,0.5,0.0,7.0,2.0,1797.016006999911,2.0,1.0,phase_3,,,,,116.0,1.0,696.0,116.0,580.0,464.0,348.0,232.0,green,flipped triangle
0.0,3.0,2.0,0.0,7.0,5.0,1503.9350460001517,2.0,1.0,phase_3,,,,,308.0,2.0,924.0,770.0,616.0,154.0,308.0,462.0,yellow,hexagon
0.0,4.0,4.0,0.0,7.0,4.0,1936.8685640001784,2.0,1.0,phase_3,,,,,960.0,5.0,576.0,384.0,768.0,960.0,1152.0,192.0,magenta,I
0.0,3.0,2.0,0.0,7.0,4.0,2368.3165719994577,2.0,1.0,phase_3,,,,,346.0,2.0,173.0,865.0,1038.0,346.0,519.0,692.0,yellow,hexagon
0.0,1.0,0.5,0.0,7.0,6.0,1468.958569999813,3.0,1.0,phase_3,,,,,135.0,1.0,405.0,540.0,675.0,810.0,270.0,135.0,green,flipped triangle
0.0,6.0,1.0,1.0,7.0,2.0,1061.735224999211,3.0,1.0,phase_3,,,,,154.0,1.0,308.0,154.0,924.0,770.0,462.0,616.0,gray,diamond
0.0,4.0,4.0,0.0,7.0,1.0,2836.8551869998555,3.0,1.0,phase_3,,,,,675.0,5.0,675.0,405.0,540.0,270.0,135.0,810.0,magenta,I
0.0,2.0,1.0,0.0,7.0,5.0,3624.848896999538,3.0,1.0,phase_3,,,,,384.0,2.0,960.0,768.0,192.0,576.0,384.0,1152.0,white,square
0.0,7.0,2.0,1.0,7.0,1.0,508.9836529996319,3.0,2.0,phase_3,,,,,173.0,1.0,173.0,692.0,1038.0,346.0,865.0,519.0,blue,circle
0.0,8.0,4.0,1.0,7.0,4.0,1240.9928249999211,3.0,1.0,phase_3,,,,,696.0,6.0,464.0,232.0,348.0,696.0,116.0,580.0,cyan,cross
0.0,4.0,4.0,0.0,7.0,4.0,1005.3823979997103,3.0,1.0,phase_3,,,,,692.0,4.0,173.0,865.0,1038.0,692.0,346.0,519.0,magenta,I
0.0,3.0,2.0,0.0,7.0,5.0,2129.865782999332,3.0,1.0,phase_3,,,,,346.0,2.0,1038.0,173.0,692.0,865.0,346.0,519.0,yellow,hexagon
0.0,4.0,4.0,0.0,7.0,1.0,1296.671709000293,3.0,1.0,phase_3,,,,,770.0,5.0,770.0,308.0,154.0,462.0,924.0,616.0,magenta,I
0.0,1.0,0.5,0.0,7.0,2.0,2224.661891999858,3.0,1.0,phase_3,,,,,173.0,1.0,692.0,173.0,346.0,1038.0,519.0,865.0,green,flipped triangle
0.0,7.0,2.0,1.0,7.0,1.0,681.2514989996998,3.0,1.0,phase_3,,,,,308.0,2.0,308.0,462.0,770.0,616.0,154.0,924.0,blue,circle
0.0,7.0,2.0,1.0,7.0,5.0,1108.7404240006435,3.0,1.0,phase_3,,,,,348.0,3.0,464.0,580.0,232.0,696.0,348.0,116.0,blue,circle
0.0,4.0,4.0,0.0,7.0,2.0,979.2047359997014,3.0,1.0,phase_3,,,,,924.0,6.0,308.0,924.0,770.0,616.0,154.0,462.0,magenta,I
0.0,1.0,0.5,0.0,7.0,2.0,1273.0353619999732,3.0,1.0,phase_3,,,,,270.0,2.0,540.0,270.0,135.0,810.0,405.0,675.0,green,flipped triangle
0.0,6.0,1.0,1.0,7.0,6.0,1064.9936489999163,3.0,1.0,phase_3,,,,,173.0,1.0,346.0,692.0,1038.0,865.0,519.0,173.0,gray,diamond
0.0,3.0,2.0,0.0,7.0,3.0,1747.6671419999548,3.0,1.0,phase_3,,,,,232.0,2.0,116.0,464.0,232.0,580.0,696.0,348.0,yellow,hexagon
0.0,4.0,4.0,0.0,7.0,1.0,1756.477461999566,3.0,1.0,phase_3,,,,,768.0,4.0,768.0,960.0,192.0,384.0,1152.0,576.0,magenta,I
0.0,2.0,1.0,0.0,7.0,2.0,1970.2646509995247,3.0,1.0,phase_3,,,,,116.0,1.0,580.0,116.0,232.0,464.0,696.0,348.0,white,square
0.0,7.0,2.0,1.0,7.0,5.0,1592.8019360007966,3.0,1.0,phase_3,,,,,232.0,2.0,464.0,580.0,348.0,696.0,232.0,116.0,blue,circle
0.0,2.0,1.0,0.0,7.0,1.0,1294.375100000252,3.0,1.0,phase_3,,,,,116.0,1.0,116.0,696.0,464.0,348.0,580.0,232.0,white,square
0.0,2.0,1.0,0.0,7.0,6.0,1007.2241839998242,4.0,1.0,phase_3,,,,,154.0,1.0,616.0,462.0,924.0,770.0,308.0,154.0,white,square
0.0,6.0,1.0,1.0,7.0,3.0,2024.8270640004198,4.0,1.0,phase_3,,,,,154.0,1.0,308.0,616.0,154.0,770.0,924.0,462.0,gray,diamond
0.0,3.0,2.0,0.0,7.0,2.0,2134.1692279993367,4.0,1.0,phase_3,,,,,405.0,3.0,540.0,405.0,270.0,810.0,135.0,675.0,yellow,hexagon
0.0,5.0,0.5,1.0,7.0,1.0,1985.9931749997488,4.0,1.0,phase_3,,,,,270.0,2.0,270.0,405.0,675.0,810.0,135.0,540.0,orange,triangle
0.0,5.0,0.5,1.0,7.0,6.0,1100.9345059992484,4.0,1.0,phase_3,,,,,192.0,1.0,576.0,768.0,960.0,384.0,1152.0,192.0,orange,triangle
0.0,2.0,1.0,0.0,7.0,2.0,1036.413325000467,4.0,1.0,phase_3,,,,,135.0,1.0,540.0,135.0,675.0,810.0,405.0,270.0,white,square
0.0,1.0,0.5,0.0,7.0,2.0,1600.4875540002104,4.0,1.0,phase_3,,,,,308.0,2.0,154.0,308.0,770.0,616.0,462.0,924.0,green,flipped triangle
0.0,2.0,1.0,0.0,7.0,1.0,1484.8636790002274,4.0,1.0,phase_3,,,,,192.0,1.0,192.0,960.0,1152.0,576.0,384.0,768.0,white,square
0.0,4.0,4.0,0.0,7.0,4.0,1363.1479790001322,4.0,1.0,phase_3,,,,,810.0,6.0,675.0,135.0,270.0,810.0,405.0,540.0,magenta,I
0.0,8.0,4.0,1.0,7.0,2.0,1428.0046929998207,4.0,1.0,phase_3,,,,,696.0,6.0,580.0,696.0,232.0,116.0,348.0,464.0,cyan,cross
0.0,5.0,0.5,1.0,7.0,4.0,1335.201257000335,4.0,1.0,phase_3,,,,,270.0,2.0,540.0,135.0,405.0,270.0,675.0,810.0,orange,triangle
0.0,3.0,2.0,0.0,7.0,2.0,1812.57547199948,4.0,1.0,phase_3,,,,,384.0,2.0,1152.0,384.0,576.0,960.0,192.0,768.0,yellow,hexagon
0.0,2.0,1.0,0.0,7.0,1.0,1309.4499160006308,4.0,1.0,phase_3,,,,,173.0,1.0,173.0,865.0,692.0,1038.0,346.0,519.0,white,square
0.0,7.0,2.0,1.0,7.0,6.0,1268.238139999994,4.0,1.0,phase_3,,,,,154.0,1.0,770.0,924.0,308.0,462.0,616.0,154.0,blue,circle
0.0,1.0,0.5,0.0,7.0,1.0,1164.3298869994396,4.0,1.0,phase_3,,,,,173.0,1.0,173.0,692.0,1038.0,865.0,519.0,346.0,green,flipped triangle
0.0,6.0,1.0,1.0,7.0,3.0,1759.3587470000784,4.0,1.0,phase_3,,,,,135.0,1.0,540.0,810.0,135.0,405.0,675.0,270.0,gray,diamond
0.0,3.0,2.0,0.0,7.0,2.0,2584.032605000175,4.0,1.0,phase_3,,,,,462.0,3.0,308.0,462.0,770.0,616.0,924.0,154.0,yellow,hexagon
0.0,7.0,2.0,1.0,7.0,4.0,1541.81180499927,4.0,1.0,phase_3,,,,,173.0,1.0,865.0,692.0,346.0,173.0,519.0,1038.0,blue,circle
0.0,8.0,4.0,1.0,7.0,3.0,1747.6012249999258,4.0,1.0,phase_3,,,,,576.0,3.0,192.0,960.0,576.0,1152.0,384.0,768.0,cyan,cross
0.0,4.0,4.0,0.0,7.0,5.0,1738.738764000118,4.0,1.0,phase_3,,,,,464.0,4.0,232.0,116.0,348.0,580.0,464.0,696.0,magenta,I
