raw_reward_magnitude,stim_reward,stepwise_reward_magnitude,paired_with_stopping,stim_location,response,reaction_time,block,num_trial_presentations,which_phase,stop_signal_trial_type,left_SSD,right_SSD,accuracy,chosen_bidding_amount,chosen_bidding_level,possible_bid_1,possible_bid_2,possible_bid_3,possible_bid_4,possible_bid_5,possible_bid_6,color_text,shape_text
159.0,1.0,1.0,0.0,1.0,1.0,306.3523970004098,1.0,1.0,phase_1,,,,,,,,,,,,,orange,hexagon
1315.0,4.0,4.0,0.0,3.0,3.0,333.6858709999433,1.0,1.0,phase_1,,,,,,,,,,,,,magenta,circle
0.0,4.0,0.0,0.0,2.0,2.0,406.6676799993729,1.0,2.0,phase_1,,,,,,,,,,,,,magenta,circle
659.0,7.0,3.0,1.0,1.0,1.0,434.1732739994768,1.0,1.0,phase_1,,,,,,,,,,,,,white,triangle
320.0,2.0,2.0,0.0,2.0,2.0,453.9635869996345,1.0,1.0,phase_1,,,,,,,,,,,,,green,square
1310.0,8.0,4.0,1.0,2.0,2.0,419.875592999233,1.0,1.0,phase_1,,,,,,,,,,,,,blue,I
667.0,7.0,3.0,1.0,4.0,4.0,426.611127999422,1.0,1.0,phase_1,,,,,,,,,,,,,white,triangle
1296.0,4.0,4.0,0.0,4.0,4.0,370.0411509998957,1.0,1.0,phase_1,,,,,,,,,,,,,magenta,circle
162.0,5.0,1.0,1.0,4.0,4.0,417.1326880004926,1.0,1.0,phase_1,,,,,,,,,,,,,cyan,flipped triangle
1318.0,4.0,4.0,0.0,2.0,2.0,388.2804129998476,1.0,1.0,phase_1,,,,,,,,,,,,,magenta,circle
632.0,3.0,3.0,0.0,2.0,2.0,378.4929590001411,1.0,1.0,phase_1,,,,,,,,,,,,,yellow,cross
635.0,3.0,3.0,0.0,1.0,1.0,305.518122999274,1.0,1.0,phase_1,,,,,,,,,,,,,yellow,cross
640.0,3.0,3.0,0.0,4.0,4.0,342.5829030002205,1.0,1.0,phase_1,,,,,,,,,,,,,yellow,cross
644.0,3.0,3.0,0.0,3.0,3.0,361.2227869998605,1.0,1.0,phase_1,,,,,,,,,,,,,yellow,cross
141.0,1.0,1.0,0.0,3.0,3.0,287.2963370000434,1.0,1.0,phase_1,,,,,,,,,,,,,orange,hexagon
1287.0,8.0,4.0,1.0,4.0,4.0,342.5963610006874,1.0,1.0,phase_1,,,,,,,,,,,,,blue,I
326.0,6.0,2.0,1.0,2.0,2.0,361.109946000397,1.0,1.0,phase_1,,,,,,,,,,,,,gray,diamond
0.0,6.0,0.0,1.0,2.0,2.0,314.8188859995571,1.0,1.0,phase_1,,,,,,,,,,,,,gray,diamond
1301.0,4.0,4.0,0.0,4.0,4.0,297.244198000044,1.0,1.0,phase_1,,,,,,,,,,,,,magenta,circle
1279.0,4.0,4.0,0.0,3.0,3.0,315.4327259999263,1.0,1.0,phase_1,,,,,,,,,,,,,magenta,circle
322.0,6.0,2.0,1.0,1.0,1.0,342.760002000432,1.0,1.0,phase_1,,,,,,,,,,,,,gray,diamond
340.0,2.0,2.0,0.0,3.0,3.0,352.0318270002462,1.0,1.0,phase_1,,,,,,,,,,,,,green,square
630.0,7.0,3.0,1.0,1.0,1.0,325.4849330005527,1.0,1.0,phase_1,,,,,,,,,,,,,white,triangle
0.0,6.0,0.0,1.0,1.0,1.0,334.4801630000802,1.0,2.0,phase_1,,,,,,,,,,,,,gray,diamond
656.0,7.0,3.0,1.0,3.0,3.0,307.0042440003817,1.0,1.0,phase_1,,,,,,,,,,,,,white,triangle
638.0,7.0,3.0,1.0,3.0,3.0,314.2683350006336,1.0,1.0,phase_1,,,,,,,,,,,,,white,triangle
633.0,3.0,3.0,0.0,4.0,4.0,334.2855529999724,1.0,1.0,phase_1,,,,,,,,,,,,,yellow,cross
144.0,1.0,1.0,0.0,2.0,2.0,425.498485999924,1.0,1.0,phase_1,,,,,,,,,,,,,orange,hexagon
0.0,3.0,0.0,0.0,1.0,1.0,341.1634280000726,1.0,1.0,phase_1,,,,,,,,,,,,,yellow,cross
160.0,5.0,1.0,1.0,2.0,2.0,369.5989850002661,1.0,1.0,phase_1,,,,,,,,,,,,,cyan,flipped triangle
335.0,6.0,2.0,1.0,2.0,2.0,360.2626820002115,1.0,1.0,phase_1,,,,,,,,,,,,,gray,diamond
0.0,8.0,0.0,1.0,3.0,3.0,323.4096810001574,1.0,1.0,phase_1,,,,,,,,,,,,,blue,I
322.0,2.0,2.0,0.0,1.0,1.0,341.8497399998159,1.0,1.0,phase_1,,,,,,,,,,,,,green,square
1325.0,8.0,4.0,1.0,3.0,3.0,333.2141640003101,1.0,1.0,phase_1,,,,,,,,,,,,,blue,I
301.0,6.0,2.0,1.0,2.0,2.0,361.2498749998849,1.0,1.0,phase_1,,,,,,,,,,,,,gray,diamond
155.0,1.0,1.0,0.0,3.0,3.0,350.8143650005877,1.0,1.0,phase_1,,,,,,,,,,,,,orange,hexagon
1292.0,4.0,4.0,0.0,4.0,4.0,380.0379949998387,1.0,1.0,phase_1,,,,,,,,,,,,,magenta,circle
0.0,5.0,0.0,1.0,4.0,4.0,427.1444309997605,1.0,1.0,phase_1,,,,,,,,,,,,,cyan,flipped triangle
154.0,5.0,1.0,1.0,2.0,2.0,333.5833409992119,1.0,1.0,phase_1,,,,,,,,,,,,,cyan,flipped triangle
1310.0,4.0,4.0,0.0,4.0,4.0,434.7491159996934,1.0,1.0,phase_1,,,,,,,,,,,,,magenta,circle
0.0,1.0,0.0,0.0,4.0,4.0,382.0451680003316,1.0,1.0,phase_1,,,,,,,,,,,,,orange,hexagon
318.0,2.0,2.0,0.0,2.0,2.0,409.5061769994572,1.0,1.0,phase_1,,,,,,,,,,,,,green,square
321.0,2.0,2.0,0.0,4.0,4.0,333.2239329993172,1.0,1.0,phase_1,,,,,,,,,,,,,green,square
1298.0,4.0,4.0,0.0,3.0,3.0,343.577701999493,1.0,1.0,phase_1,,,,,,,,,,,,,magenta,circle
0.0,8.0,0.0,1.0,1.0,1.0,351.5929160002997,1.0,1.0,phase_1,,,,,,,,,,,,,blue,I
1319.0,8.0,4.0,1.0,2.0,2.0,408.3207229996333,1.0,1.0,phase_1,,,,,,,,,,,,,blue,I
341.0,6.0,2.0,1.0,4.0,4.0,332.888723999531,1.0,1.0,phase_1,,,,,,,,,,,,,gray,diamond
329.0,6.0,2.0,1.0,1.0,1.0,398.8376249999419,1.0,1.0,phase_1,,,,,,,,,,,,,gray,diamond
1284.0,8.0,4.0,1.0,3.0,3.0,314.3196060000264,1.0,1.0,phase_1,,,,,,,,,,,,,blue,I
0.0,1.0,0.0,0.0,3.0,3.0,378.9266889998544,1.0,1.0,phase_1,,,,,,,,,,,,,orange,hexagon
325.0,2.0,2.0,0.0,3.0,3.0,313.6071479993916,1.0,1.0,phase_1,,,,,,,,,,,,,green,square
0.0,3.0,0.0,0.0,2.0,2.0,276.6650660005325,1.0,1.0,phase_1,,,,,,,,,,,,,yellow,cross
0.0,6.0,0.0,1.0,3.0,3.0,453.0369639996934,1.0,1.0,phase_1,,,,,,,,,,,,,gray,diamond
1291.0,4.0,4.0,0.0,3.0,3.0,323.6489820001225,1.0,1.0,phase_1,,,,,,,,,,,,,magenta,circle
151.0,5.0,1.0,1.0,1.0,1.0,351.1639690004813,1.0,1.0,phase_1,,,,,,,,,,,,,cyan,flipped triangle
313.0,2.0,2.0,0.0,3.0,3.0,296.8701239997244,1.0,1.0,phase_1,,,,,,,,,,,,,green,square
314.0,6.0,2.0,1.0,2.0,2.0,446.4143400000466,1.0,1.0,phase_1,,,,,,,,,,,,,gray,diamond
1282.0,8.0,4.0,1.0,3.0,3.0,276.7306490004557,1.0,1.0,phase_1,,,,,,,,,,,,,blue,I
186.0,5.0,1.0,1.0,1.0,1.0,435.0219279995144,1.0,1.0,phase_1,,,,,,,,,,,,,cyan,flipped triangle
0.0,1.0,0.0,0.0,4.0,4.0,406.9243509993612,1.0,1.0,phase_1,,,,,,,,,,,,,orange,hexagon
631.0,7.0,3.0,1.0,2.0,2.0,360.5024259995844,1.0,1.0,phase_1,,,,,,,,,,,,,white,triangle
1324.0,8.0,4.0,1.0,2.0,2.0,343.6314090004089,1.0,1.0,phase_1,,,,,,,,,,,,,blue,I
1298.0,8.0,4.0,1.0,4.0,4.0,350.9010119996674,1.0,1.0,phase_1,,,,,,,,,,,,,blue,I
1307.0,8.0,4.0,1.0,2.0,2.0,369.8491220002324,1.0,1.0,phase_1,,,,,,,,,,,,,blue,I
1301.0,8.0,4.0,1.0,1.0,1.0,361.233091000031,1.0,1.0,phase_1,,,,,,,,,,,,,blue,I
656.0,3.0,3.0,0.0,1.0,1.0,362.3842869992586,1.0,1.0,phase_1,,,,,,,,,,,,,yellow,cross
1279.0,8.0,4.0,1.0,3.0,3.0,342.0296139993297,1.0,1.0,phase_1,,,,,,,,,,,,,blue,I
302.0,6.0,2.0,1.0,4.0,4.0,396.5831470004559,1.0,1.0,phase_1,,,,,,,,,,,,,gray,diamond
0.0,7.0,0.0,1.0,4.0,4.0,355.6490649998522,1.0,1.0,phase_1,,,,,,,,,,,,,white,triangle
186.0,1.0,1.0,0.0,4.0,4.0,397.3214970001208,1.0,1.0,phase_1,,,,,,,,,,,,,orange,hexagon
137.0,5.0,1.0,1.0,2.0,2.0,368.6356190000879,1.0,1.0,phase_1,,,,,,,,,,,,,cyan,flipped triangle
670.0,7.0,3.0,1.0,1.0,1.0,353.4123509998608,1.0,1.0,phase_1,,,,,,,,,,,,,white,triangle
643.0,3.0,3.0,0.0,4.0,4.0,351.8853300001865,1.0,1.0,phase_1,,,,,,,,,,,,,yellow,cross
0.0,2.0,0.0,0.0,3.0,3.0,332.0662730002368,1.0,1.0,phase_1,,,,,,,,,,,,,green,square
301.0,2.0,2.0,0.0,1.0,1.0,332.83018799920677,1.0,1.0,phase_1,,,,,,,,,,,,,green,square
0.0,8.0,0.0,1.0,1.0,1.0,314.7345839997797,1.0,1.0,phase_1,,,,,,,,,,,,,blue,I
1291.0,4.0,4.0,0.0,1.0,1.0,342.9487840003276,1.0,1.0,phase_1,,,,,,,,,,,,,magenta,circle
1320.0,4.0,4.0,0.0,4.0,4.0,380.9426159996292,1.0,1.0,phase_1,,,,,,,,,,,,,magenta,circle
308.0,6.0,2.0,1.0,3.0,3.0,287.9762829998071,1.0,1.0,phase_1,,,,,,,,,,,,,gray,diamond
160.0,5.0,1.0,1.0,3.0,3.0,315.1225660003547,1.0,1.0,phase_1,,,,,,,,,,,,,cyan,flipped triangle
1285.0,8.0,4.0,1.0,3.0,3.0,296.6061849992911,1.0,1.0,phase_1,,,,,,,,,,,,,blue,I
638.0,7.0,3.0,1.0,4.0,4.0,407.5260859999616,1.0,1.0,phase_1,,,,,,,,,,,,,white,triangle
640.0,3.0,3.0,0.0,4.0,4.0,314.2169650000141,1.0,1.0,phase_1,,,,,,,,,,,,,yellow,cross
1299.0,4.0,4.0,0.0,2.0,2.0,361.1262559998067,1.0,1.0,phase_1,,,,,,,,,,,,,magenta,circle
1319.0,4.0,4.0,0.0,2.0,2.0,360.1507579996905,1.0,1.0,phase_1,,,,,,,,,,,,,magenta,circle
0.0,8.0,0.0,1.0,1.0,1.0,435.0630580001962,1.0,1.0,phase_1,,,,,,,,,,,,,blue,I
1285.0,4.0,4.0,0.0,1.0,1.0,360.489069000323,1.0,1.0,phase_1,,,,,,,,,,,,,magenta,circle
0.0,2.0,0.0,0.0,1.0,1.0,333.6163130006753,1.0,1.0,phase_1,,,,,,,,,,,,,green,square
177.0,1.0,1.0,0.0,3.0,3.0,295.34396899998677,1.0,1.0,phase_1,,,,,,,,,,,,,orange,hexagon
334.0,6.0,2.0,1.0,2.0,2.0,259.0053429994441,1.0,1.0,phase_1,,,,,,,,,,,,,gray,diamond
0.0,7.0,0.0,1.0,3.0,3.0,416.8757190000178,1.0,1.0,phase_1,,,,,,,,,,,,,white,triangle
664.0,7.0,3.0,1.0,2.0,2.0,277.393516000302,1.0,1.0,phase_1,,,,,,,,,,,,,white,triangle
1284.0,4.0,4.0,0.0,1.0,1.0,443.7646779997521,1.0,1.0,phase_1,,,,,,,,,,,,,magenta,circle
1313.0,4.0,4.0,0.0,3.0,3.0,350.5224219998126,1.0,1.0,phase_1,,,,,,,,,,,,,magenta,circle
180.0,1.0,1.0,0.0,4.0,4.0,396.9480539999495,1.0,1.0,phase_1,,,,,,,,,,,,,orange,hexagon
1278.0,8.0,4.0,1.0,3.0,3.0,342.438251999738,1.0,1.0,phase_1,,,,,,,,,,,,,blue,I
167.0,1.0,1.0,0.0,1.0,1.0,305.4733529997975,1.0,1.0,phase_1,,,,,,,,,,,,,orange,hexagon
0.0,5.0,0.0,1.0,2.0,2.0,268.0354049998641,1.0,1.0,phase_1,,,,,,,,,,,,,cyan,flipped triangle
662.0,7.0,3.0,1.0,4.0,4.0,342.930265999712,1.0,1.0,phase_1,,,,,,,,,,,,,white,triangle
170.0,1.0,1.0,0.0,4.0,4.0,388.8088749999951,1.0,1.0,phase_1,,,,,,,,,,,,,orange,hexagon
627.0,7.0,3.0,1.0,3.0,3.0,360.4378600002746,2.0,1.0,phase_1,,,,,,,,,,,,,white,triangle
628.0,3.0,3.0,0.0,1.0,1.0,323.1949390001318,2.0,1.0,phase_1,,,,,,,,,,,,,yellow,cross
335.0,6.0,2.0,1.0,1.0,1.0,324.9100910006746,2.0,1.0,phase_1,,,,,,,,,,,,,gray,diamond
664.0,3.0,3.0,0.0,2.0,2.0,269.5123969997439,2.0,1.0,phase_1,,,,,,,,,,,,,yellow,cross
1299.0,8.0,4.0,1.0,4.0,4.0,415.8483500004877,2.0,1.0,phase_1,,,,,,,,,,,,,blue,I
0.0,4.0,0.0,0.0,1.0,1.0,333.6496799993256,2.0,1.0,phase_1,,,,,,,,,,,,,magenta,circle
654.0,7.0,3.0,1.0,1.0,1.0,352.6890200000707,2.0,1.0,phase_1,,,,,,,,,,,,,white,triangle
316.0,6.0,2.0,1.0,1.0,1.0,334.4052429993098,2.0,1.0,phase_1,,,,,,,,,,,,,gray,diamond
341.0,2.0,2.0,0.0,1.0,1.0,379.2699099994934,2.0,1.0,phase_1,,,,,,,,,,,,,green,square
654.0,3.0,3.0,0.0,2.0,2.0,296.6444129997398,2.0,1.0,phase_1,,,,,,,,,,,,,yellow,cross
640.0,7.0,3.0,1.0,1.0,1.0,332.6338369997756,2.0,1.0,phase_1,,,,,,,,,,,,,white,triangle
656.0,3.0,3.0,0.0,2.0,2.0,389.7237629998926,2.0,2.0,phase_1,,,,,,,,,,,,,yellow,cross
1284.0,8.0,4.0,1.0,4.0,4.0,400.286877000326,2.0,1.0,phase_1,,,,,,,,,,,,,blue,I
673.0,3.0,3.0,0.0,1.0,1.0,379.7307710001405,2.0,1.0,phase_1,,,,,,,,,,,,,yellow,cross
660.0,7.0,3.0,1.0,3.0,3.0,378.4864630006268,2.0,1.0,phase_1,,,,,,,,,,,,,white,triangle
670.0,3.0,3.0,0.0,4.0,4.0,371.0299860003943,2.0,1.0,phase_1,,,,,,,,,,,,,yellow,cross
1284.0,4.0,4.0,0.0,2.0,2.0,333.7344619994837,2.0,1.0,phase_1,,,,,,,,,,,,,magenta,circle
647.0,3.0,3.0,0.0,2.0,2.0,332.4666140006229,2.0,1.0,phase_1,,,,,,,,,,,,,yellow,cross
653.0,3.0,3.0,0.0,3.0,3.0,324.04170800055,2.0,1.0,phase_1,,,,,,,,,,,,,yellow,cross
175.0,1.0,1.0,0.0,4.0,4.0,397.7995390005162,2.0,1.0,phase_1,,,,,,,,,,,,,orange,hexagon
1287.0,4.0,4.0,0.0,3.0,3.0,305.6471649997547,2.0,1.0,phase_1,,,,,,,,,,,,,magenta,circle
0.0,6.0,0.0,1.0,4.0,4.0,324.6675000000323,2.0,1.0,phase_1,,,,,,,,,,,,,gray,diamond
186.0,1.0,1.0,0.0,3.0,3.0,307.2450520003258,2.0,1.0,phase_1,,,,,,,,,,,,,orange,hexagon
302.0,2.0,2.0,0.0,2.0,2.0,333.6548890001722,2.0,1.0,phase_1,,,,,,,,,,,,,green,square
317.0,6.0,2.0,1.0,3.0,3.0,297.6070290005737,2.0,1.0,phase_1,,,,,,,,,,,,,gray,diamond
169.0,5.0,1.0,1.0,1.0,1.0,296.469320000142,2.0,1.0,phase_1,,,,,,,,,,,,,cyan,flipped triangle
147.0,5.0,1.0,1.0,3.0,3.0,287.6903750002384,2.0,1.0,phase_1,,,,,,,,,,,,,cyan,flipped triangle
657.0,7.0,3.0,1.0,4.0,4.0,446.3958229998752,2.0,1.0,phase_1,,,,,,,,,,,,,white,triangle
0.0,4.0,0.0,0.0,4.0,4.0,307.9355970003234,2.0,1.0,phase_1,,,,,,,,,,,,,magenta,circle
321.0,6.0,2.0,1.0,3.0,3.0,326.1101680000138,2.0,1.0,phase_1,,,,,,,,,,,,,gray,diamond
664.0,3.0,3.0,0.0,2.0,2.0,369.4066389998625,2.0,1.0,phase_1,,,,,,,,,,,,,yellow,cross
185.0,5.0,1.0,1.0,3.0,3.0,305.2322559997265,2.0,1.0,phase_1,,,,,,,,,,,,,cyan,flipped triangle
0.0,6.0,0.0,1.0,2.0,2.0,417.4710300003426,2.0,1.0,phase_1,,,,,,,,,,,,,gray,diamond
1296.0,4.0,4.0,0.0,1.0,1.0,361.8588809995344,2.0,1.0,phase_1,,,,,,,,,,,,,magenta,circle
1290.0,8.0,4.0,1.0,1.0,1.0,407.2030390007057,2.0,1.0,phase_1,,,,,,,,,,,,,blue,I
340.0,2.0,2.0,0.0,1.0,1.0,379.905126000267,2.0,1.0,phase_1,,,,,,,,,,,,,green,square
334.0,2.0,2.0,0.0,3.0,3.0,398.768688999553,2.0,1.0,phase_1,,,,,,,,,,,,,green,square
165.0,1.0,1.0,0.0,4.0,4.0,278.2850980001967,2.0,1.0,phase_1,,,,,,,,,,,,,orange,hexagon
312.0,2.0,2.0,0.0,4.0,4.0,369.7224600000481,2.0,1.0,phase_1,,,,,,,,,,,,,green,square
186.0,1.0,1.0,0.0,2.0,2.0,379.8353979991589,2.0,1.0,phase_1,,,,,,,,,,,,,orange,hexagon
665.0,3.0,3.0,0.0,2.0,2.0,351.5988320004908,2.0,1.0,phase_1,,,,,,,,,,,,,yellow,cross
628.0,7.0,3.0,1.0,2.0,2.0,306.1366500005533,2.0,1.0,phase_1,,,,,,,,,,,,,white,triangle
335.0,2.0,2.0,0.0,4.0,4.0,315.1833190004254,2.0,1.0,phase_1,,,,,,,,,,,,,green,square
316.0,2.0,2.0,0.0,4.0,4.0,370.2658919992245,2.0,1.0,phase_1,,,,,,,,,,,,,green,square
333.0,2.0,2.0,0.0,2.0,2.0,388.9951599994674,2.0,2.0,phase_1,,,,,,,,,,,,,green,square
169.0,1.0,1.0,0.0,1.0,1.0,435.1732579998497,2.0,1.0,phase_1,,,,,,,,,,,,,orange,hexagon
632.0,7.0,3.0,1.0,4.0,4.0,435.5639080004039,2.0,1.0,phase_1,,,,,,,,,,,,,white,triangle
349.0,6.0,2.0,1.0,2.0,2.0,361.1965070003862,2.0,1.0,phase_1,,,,,,,,,,,,,gray,diamond
311.0,6.0,2.0,1.0,3.0,3.0,333.3198910004284,2.0,1.0,phase_1,,,,,,,,,,,,,gray,diamond
643.0,3.0,3.0,0.0,3.0,3.0,398.5832840007788,2.0,1.0,phase_1,,,,,,,,,,,,,yellow,cross
659.0,3.0,3.0,0.0,3.0,3.0,406.9289980006942,2.0,1.0,phase_1,,,,,,,,,,,,,yellow,cross
346.0,6.0,2.0,1.0,3.0,3.0,332.9611279996243,2.0,1.0,phase_1,,,,,,,,,,,,,gray,diamond
659.0,7.0,3.0,1.0,1.0,1.0,406.8565699999453,2.0,2.0,phase_1,,,,,,,,,,,,,white,triangle
144.0,5.0,1.0,1.0,4.0,4.0,472.2632800003339,2.0,1.0,phase_1,,,,,,,,,,,,,cyan,flipped triangle
644.0,7.0,3.0,1.0,3.0,3.0,352.0173320002868,2.0,1.0,phase_1,,,,,,,,,,,,,white,triangle
638.0,3.0,3.0,0.0,4.0,4.0,399.5975539992287,2.0,1.0,phase_1,,,,,,,,,,,,,yellow,cross
1296.0,8.0,4.0,1.0,2.0,2.0,389.7283569995124,2.0,1.0,phase_1,,,,,,,,,,,,,blue,I
0.0,4.0,0.0,0.0,4.0,4.0,287.4395460003143,2.0,1.0,phase_1,,,,,,,,,,,,,magenta,circle
169.0,5.0,1.0,1.0,3.0,3.0,371.5457850003076,2.0,1.0,phase_1,,,,,,,,,,,,,cyan,flipped triangle
0.0,6.0,0.0,1.0,2.0,2.0,417.370065999421,2.0,1.0,phase_1,,,,,,,,,,,,,gray,diamond
1278.0,4.0,4.0,0.0,3.0,3.0,313.9248400002543,2.0,1.0,phase_1,,,,,,,,,,,,,magenta,circle
349.0,2.0,2.0,0.0,4.0,4.0,350.2285929998834,2.0,1.0,phase_1,,,,,,,,,,,,,green,square
305.0,6.0,2.0,1.0,2.0,2.0,407.9506090001814,2.0,1.0,phase_1,,,,,,,,,,,,,gray,diamond
0.0,1.0,0.0,0.0,4.0,4.0,323.8045400003102,2.0,1.0,phase_1,,,,,,,,,,,,,orange,hexagon
1279.0,4.0,4.0,0.0,2.0,2.0,361.0223220002808,2.0,1.0,phase_1,,,,,,,,,,,,,magenta,circle
662.0,3.0,3.0,0.0,4.0,4.0,368.9967869995598,2.0,1.0,phase_1,,,,,,,,,,,,,yellow,cross
313.0,6.0,2.0,1.0,4.0,4.0,304.866340999979,2.0,1.0,phase_1,,,,,,,,,,,,,gray,diamond
630.0,3.0,3.0,0.0,3.0,3.0,332.9021740000826,2.0,1.0,phase_1,,,,,,,,,,,,,yellow,cross
1310.0,4.0,4.0,0.0,2.0,2.0,416.4264069995624,2.0,1.0,phase_1,,,,,,,,,,,,,magenta,circle
143.0,5.0,1.0,1.0,2.0,2.0,482.0752079995145,2.0,1.0,phase_1,,,,,,,,,,,,,cyan,flipped triangle
185.0,5.0,1.0,1.0,4.0,4.0,352.8920320004545,2.0,1.0,phase_1,,,,,,,,,,,,,cyan,flipped triangle
137.0,1.0,1.0,0.0,1.0,1.0,490.7347830003346,2.0,1.0,phase_1,,,,,,,,,,,,,orange,hexagon
0.0,5.0,0.0,1.0,3.0,3.0,416.8114349995448,2.0,1.0,phase_1,,,,,,,,,,,,,cyan,flipped triangle
1279.0,4.0,4.0,0.0,2.0,2.0,371.1802450006871,2.0,1.0,phase_1,,,,,,,,,,,,,magenta,circle
341.0,2.0,2.0,0.0,2.0,2.0,352.0827940001254,2.0,1.0,phase_1,,,,,,,,,,,,,green,square
660.0,3.0,3.0,0.0,3.0,3.0,324.7579099997892,2.0,1.0,phase_1,,,,,,,,,,,,,yellow,cross
159.0,5.0,1.0,1.0,4.0,4.0,380.4406280005423,2.0,1.0,phase_1,,,,,,,,,,,,,cyan,flipped triangle
1287.0,4.0,4.0,0.0,2.0,2.0,667.3734480000348,2.0,1.0,phase_1,,,,,,,,,,,,,magenta,circle
1287.0,8.0,4.0,1.0,2.0,2.0,378.3486590000393,2.0,1.0,phase_1,,,,,,,,,,,,,blue,I
633.0,7.0,3.0,1.0,1.0,1.0,378.7322779999158,2.0,1.0,phase_1,,,,,,,,,,,,,white,triangle
0.0,8.0,0.0,1.0,3.0,3.0,371.1613850000503,2.0,1.0,phase_1,,,,,,,,,,,,,blue,I
344.0,6.0,2.0,1.0,2.0,2.0,407.0062780001535,2.0,1.0,phase_1,,,,,,,,,,,,,gray,diamond
1312.0,4.0,4.0,0.0,4.0,4.0,361.8230049996782,2.0,1.0,phase_1,,,,,,,,,,,,,magenta,circle
318.0,6.0,2.0,1.0,3.0,3.0,352.4954140002592,2.0,1.0,phase_1,,,,,,,,,,,,,gray,diamond
177.0,5.0,1.0,1.0,2.0,2.0,417.3559649998424,2.0,1.0,phase_1,,,,,,,,,,,,,cyan,flipped triangle
166.0,5.0,1.0,1.0,4.0,4.0,342.7677890003906,2.0,1.0,phase_1,,,,,,,,,,,,,cyan,flipped triangle
640.0,7.0,3.0,1.0,2.0,2.0,416.2948050006889,2.0,1.0,phase_1,,,,,,,,,,,,,white,triangle
0.0,2.0,0.0,0.0,3.0,3.0,306.3449359997321,2.0,1.0,phase_1,,,,,,,,,,,,,green,square
331.0,6.0,2.0,1.0,1.0,1.0,342.3713190004491,2.0,1.0,phase_1,,,,,,,,,,,,,gray,diamond
146.0,1.0,1.0,0.0,1.0,1.0,399.0033679992848,2.0,1.0,phase_1,,,,,,,,,,,,,orange,hexagon
0.0,3.0,0.0,0.0,4.0,4.0,351.5969399995811,2.0,1.0,phase_1,,,,,,,,,,,,,yellow,cross
1279.0,8.0,4.0,1.0,3.0,3.0,333.6846319998585,2.0,1.0,phase_1,,,,,,,,,,,,,blue,I
1322.0,8.0,4.0,1.0,2.0,2.0,832.3602499995104,2.0,1.0,phase_1,,,,,,,,,,,,,blue,I
1324.0,4.0,4.0,0.0,3.0,3.0,416.7569850005748,2.0,1.0,phase_1,,,,,,,,,,,,,magenta,circle
311.0,6.0,2.0,1.0,4.0,4.0,407.19567799988,2.0,1.0,phase_1,,,,,,,,,,,,,gray,diamond
186.0,5.0,1.0,1.0,2.0,2.0,352.790162999554,2.0,1.0,phase_1,,,,,,,,,,,,,cyan,flipped triangle
302.0,2.0,2.0,0.0,1.0,1.0,388.8842800006387,2.0,1.0,phase_1,,,,,,,,,,,,,green,square
311.0,2.0,2.0,0.0,1.0,1.0,332.626135999817,2.0,1.0,phase_1,,,,,,,,,,,,,green,square
141.0,1.0,1.0,0.0,2.0,2.0,490.0210579999111,2.0,1.0,phase_1,,,,,,,,,,,,,orange,hexagon
166.0,1.0,1.0,0.0,3.0,3.0,324.8005290006404,2.0,1.0,phase_1,,,,,,,,,,,,,orange,hexagon
165.0,5.0,1.0,1.0,3.0,3.0,406.6104180001275,3.0,1.0,phase_1,,,,,,,,,,,,,cyan,flipped triangle
0.0,1.0,0.0,0.0,2.0,2.0,379.6383889994104,3.0,1.0,phase_1,,,,,,,,,,,,,orange,hexagon
326.0,2.0,2.0,0.0,1.0,1.0,333.3295449992874,3.0,1.0,phase_1,,,,,,,,,,,,,green,square
347.0,6.0,2.0,1.0,1.0,1.0,436.9309410003552,3.0,1.0,phase_1,,,,,,,,,,,,,gray,diamond
1325.0,4.0,4.0,0.0,3.0,3.0,400.066293999771,3.0,1.0,phase_1,,,,,,,,,,,,,magenta,circle
0.0,1.0,0.0,0.0,1.0,1.0,370.9694549997948,3.0,1.0,phase_1,,,,,,,,,,,,,orange,hexagon
175.0,5.0,1.0,1.0,1.0,1.0,389.460205999967,3.0,1.0,phase_1,,,,,,,,,,,,,cyan,flipped triangle
0.0,2.0,0.0,0.0,1.0,1.0,296.5594739998778,3.0,1.0,phase_1,,,,,,,,,,,,,green,square
0.0,3.0,0.0,0.0,2.0,2.0,341.9635219997872,3.0,1.0,phase_1,,,,,,,,,,,,,yellow,cross
155.0,5.0,1.0,1.0,4.0,4.0,278.130056000009,3.0,1.0,phase_1,,,,,,,,,,,,,cyan,flipped triangle
1322.0,4.0,4.0,0.0,1.0,1.0,369.4956839999577,3.0,1.0,phase_1,,,,,,,,,,,,,magenta,circle
1307.0,4.0,4.0,0.0,3.0,3.0,324.2807410006207,3.0,1.0,phase_1,,,,,,,,,,,,,magenta,circle
330.0,6.0,2.0,1.0,4.0,4.0,407.0752950001406,3.0,1.0,phase_1,,,,,,,,,,,,,gray,diamond
187.0,1.0,1.0,0.0,1.0,1.0,324.7032050003327,3.0,1.0,phase_1,,,,,,,,,,,,,orange,hexagon
329.0,2.0,2.0,0.0,4.0,4.0,341.293534000215,3.0,1.0,phase_1,,,,,,,,,,,,,green,square
0.0,7.0,0.0,1.0,2.0,2.0,398.2476880000831,3.0,1.0,phase_1,,,,,,,,,,,,,white,triangle
1315.0,8.0,4.0,1.0,1.0,1.0,332.71049300037697,3.0,1.0,phase_1,,,,,,,,,,,,,blue,I
652.0,7.0,3.0,1.0,2.0,2.0,397.390754999833,3.0,1.0,phase_1,,,,,,,,,,,,,white,triangle
185.0,1.0,1.0,0.0,2.0,2.0,322.8737709996494,3.0,1.0,phase_1,,,,,,,,,,,,,orange,hexagon
0.0,2.0,0.0,0.0,2.0,2.0,314.1361719999622,3.0,1.0,phase_1,,,,,,,,,,,,,green,square
167.0,5.0,1.0,1.0,1.0,1.0,452.8414959995643,3.0,1.0,phase_1,,,,,,,,,,,,,cyan,flipped triangle
160.0,1.0,1.0,0.0,1.0,1.0,360.6371949999811,3.0,1.0,phase_1,,,,,,,,,,,,,orange,hexagon
638.0,3.0,3.0,0.0,1.0,1.0,313.9370150001923,3.0,1.0,phase_1,,,,,,,,,,,,,yellow,cross
147.0,1.0,1.0,0.0,3.0,3.0,287.4973750003846,3.0,1.0,phase_1,,,,,,,,,,,,,orange,hexagon
0.0,5.0,0.0,1.0,4.0,4.0,390.2573079994909,3.0,2.0,phase_1,,,,,,,,,,,,,cyan,flipped triangle
344.0,6.0,2.0,1.0,3.0,3.0,360.9564170001249,3.0,1.0,phase_1,,,,,,,,,,,,,gray,diamond
142.0,1.0,1.0,0.0,1.0,1.0,526.2287649993596,3.0,1.0,phase_1,,,,,,,,,,,,,orange,hexagon
628.0,7.0,3.0,1.0,4.0,4.0,480.7506170000124,3.0,1.0,phase_1,,,,,,,,,,,,,white,triangle
1290.0,4.0,4.0,0.0,2.0,2.0,396.7104389994347,3.0,1.0,phase_1,,,,,,,,,,,,,magenta,circle
0.0,4.0,0.0,0.0,2.0,2.0,445.2241889994184,3.0,1.0,phase_1,,,,,,,,,,,,,magenta,circle
1289.0,8.0,4.0,1.0,4.0,4.0,434.3342399997709,3.0,1.0,phase_1,,,,,,,,,,,,,blue,I
147.0,1.0,1.0,0.0,4.0,4.0,361.9558809996306,3.0,1.0,phase_1,,,,,,,,,,,,,orange,hexagon
325.0,6.0,2.0,1.0,4.0,4.0,342.4795399996583,3.0,1.0,phase_1,,,,,,,,,,,,,gray,diamond
326.0,6.0,2.0,1.0,4.0,4.0,351.7700060001516,3.0,1.0,phase_1,,,,,,,,,,,,,gray,diamond
665.0,7.0,3.0,1.0,1.0,1.0,405.7729779997316,3.0,1.0,phase_1,,,,,,,,,,,,,white,triangle
0.0,8.0,0.0,1.0,1.0,1.0,332.1889720000399,3.0,1.0,phase_1,,,,,,,,,,,,,blue,I
0.0,4.0,0.0,0.0,3.0,3.0,314.8511979998147,3.0,1.0,phase_1,,,,,,,,,,,,,magenta,circle
320.0,6.0,2.0,1.0,4.0,4.0,620.5678110000008,3.0,1.0,phase_1,,,,,,,,,,,,,gray,diamond
1314.0,8.0,4.0,1.0,3.0,3.0,388.5949069999697,3.0,1.0,phase_1,,,,,,,,,,,,,blue,I
317.0,2.0,2.0,0.0,3.0,3.0,397.6986229999966,3.0,1.0,phase_1,,,,,,,,,,,,,green,square
1315.0,4.0,4.0,0.0,4.0,4.0,379.4330179998724,3.0,1.0,phase_1,,,,,,,,,,,,,magenta,circle
0.0,3.0,0.0,0.0,4.0,4.0,332.1039669999663,3.0,1.0,phase_1,,,,,,,,,,,,,yellow,cross
665.0,3.0,3.0,0.0,4.0,4.0,323.4406360006687,3.0,1.0,phase_1,,,,,,,,,,,,,yellow,cross
340.0,6.0,2.0,1.0,3.0,3.0,332.4428710002394,3.0,1.0,phase_1,,,,,,,,,,,,,gray,diamond
0.0,1.0,0.0,0.0,3.0,3.0,295.4450689994701,3.0,1.0,phase_1,,,,,,,,,,,,,orange,hexagon
161.0,5.0,1.0,1.0,2.0,2.0,342.6153009995687,3.0,1.0,phase_1,,,,,,,,,,,,,cyan,flipped triangle
0.0,6.0,0.0,1.0,3.0,3.0,342.5272510003196,3.0,1.0,phase_1,,,,,,,,,,,,,gray,diamond
643.0,7.0,3.0,1.0,4.0,4.0,360.9230430001844,3.0,1.0,phase_1,,,,,,,,,,,,,white,triangle
344.0,2.0,2.0,0.0,1.0,1.0,286.7812880003839,3.0,1.0,phase_1,,,,,,,,,,,,,green,square
161.0,1.0,1.0,0.0,3.0,3.0,277.3222360001455,3.0,1.0,phase_1,,,,,,,,,,,,,orange,hexagon
1314.0,4.0,4.0,0.0,4.0,4.0,361.1765319992628,3.0,1.0,phase_1,,,,,,,,,,,,,magenta,circle
1282.0,4.0,4.0,0.0,2.0,2.0,314.3631019993336,3.0,1.0,phase_1,,,,,,,,,,,,,magenta,circle
1312.0,8.0,4.0,1.0,3.0,3.0,350.4087940000318,3.0,1.0,phase_1,,,,,,,,,,,,,blue,I
0.0,5.0,0.0,1.0,2.0,2.0,333.0187820001811,3.0,1.0,phase_1,,,,,,,,,,,,,cyan,flipped triangle
173.0,1.0,1.0,0.0,2.0,2.0,315.4146520000722,3.0,2.0,phase_1,,,,,,,,,,,,,orange,hexagon
643.0,7.0,3.0,1.0,2.0,2.0,352.1995910004989,3.0,1.0,phase_1,,,,,,,,,,,,,white,triangle
0.0,7.0,0.0,1.0,3.0,3.0,333.1310200001098,3.0,1.0,phase_1,,,,,,,,,,,,,white,triangle
144.0,5.0,1.0,1.0,2.0,2.0,314.9003890002859,3.0,1.0,phase_1,,,,,,,,,,,,,cyan,flipped triangle
0.0,1.0,0.0,0.0,3.0,3.0,331.7006529996433,3.0,1.0,phase_1,,,,,,,,,,,,,orange,hexagon
645.0,3.0,3.0,0.0,4.0,4.0,546.0457440003665,3.0,1.0,phase_1,,,,,,,,,,,,,yellow,cross
0.0,2.0,0.0,0.0,4.0,4.0,388.3537869996871,3.0,1.0,phase_1,,,,,,,,,,,,,green,square
1320.0,8.0,4.0,1.0,1.0,1.0,360.3869999997187,3.0,1.0,phase_1,,,,,,,,,,,,,blue,I
347.0,2.0,2.0,0.0,2.0,2.0,685.1651509996373,3.0,1.0,phase_1,,,,,,,,,,,,,green,square
305.0,2.0,2.0,0.0,3.0,3.0,333.1150650001291,3.0,1.0,phase_1,,,,,,,,,,,,,green,square
165.0,5.0,1.0,1.0,1.0,1.0,378.67055900005647,3.0,1.0,phase_1,,,,,,,,,,,,,cyan,flipped triangle
662.0,7.0,3.0,1.0,3.0,3.0,407.735808000325,3.0,1.0,phase_1,,,,,,,,,,,,,white,triangle
330.0,2.0,2.0,0.0,2.0,2.0,333.996192000086,3.0,1.0,phase_1,,,,,,,,,,,,,green,square
657.0,3.0,3.0,0.0,3.0,3.0,333.2488020005257,3.0,1.0,phase_1,,,,,,,,,,,,,yellow,cross
187.0,5.0,1.0,1.0,4.0,4.0,360.9126700002889,3.0,1.0,phase_1,,,,,,,,,,,,,cyan,flipped triangle
652.0,3.0,3.0,0.0,4.0,4.0,407.7716729998428,3.0,1.0,phase_1,,,,,,,,,,,,,yellow,cross
0.0,5.0,0.0,1.0,4.0,4.0,334.256385000117,3.0,1.0,phase_1,,,,,,,,,,,,,cyan,flipped triangle
664.0,7.0,3.0,1.0,4.0,4.0,286.7403640002521,3.0,1.0,phase_1,,,,,,,,,,,,,white,triangle
1299.0,8.0,4.0,1.0,4.0,4.0,398.4568229998331,3.0,1.0,phase_1,,,,,,,,,,,,,blue,I
154.0,1.0,1.0,0.0,4.0,4.0,296.4989290003359,3.0,1.0,phase_1,,,,,,,,,,,,,orange,hexagon
340.0,6.0,2.0,1.0,1.0,1.0,370.3294520000781,3.0,1.0,phase_1,,,,,,,,,,,,,gray,diamond
160.0,1.0,1.0,0.0,3.0,3.0,342.1733040004255,3.0,1.0,phase_1,,,,,,,,,,,,,orange,hexagon
1289.0,4.0,4.0,0.0,1.0,1.0,408.6234579999654,3.0,1.0,phase_1,,,,,,,,,,,,,magenta,circle
0.0,3.0,0.0,0.0,3.0,3.0,315.236761000051,3.0,1.0,phase_1,,,,,,,,,,,,,yellow,cross
341.0,6.0,2.0,1.0,4.0,4.0,352.6012250003987,3.0,1.0,phase_1,,,,,,,,,,,,,gray,diamond
645.0,7.0,3.0,1.0,3.0,3.0,372.003776999918,3.0,1.0,phase_1,,,,,,,,,,,,,white,triangle
668.0,3.0,3.0,0.0,1.0,1.0,584.9236550002388,3.0,1.0,phase_1,,,,,,,,,,,,,yellow,cross
0.0,5.0,0.0,1.0,1.0,1.0,325.0627520001217,3.0,1.0,phase_1,,,,,,,,,,,,,cyan,flipped triangle
631.0,3.0,3.0,0.0,1.0,1.0,286.9549039996855,3.0,1.0,phase_1,,,,,,,,,,,,,yellow,cross
1310.0,8.0,4.0,1.0,1.0,1.0,305.3959510007189,3.0,1.0,phase_1,,,,,,,,,,,,,blue,I
139.0,5.0,1.0,1.0,4.0,4.0,352.4435919998723,3.0,1.0,phase_1,,,,,,,,,,,,,cyan,flipped triangle
1324.0,4.0,4.0,0.0,1.0,1.0,323.8985309999407,3.0,1.0,phase_1,,,,,,,,,,,,,magenta,circle
665.0,7.0,3.0,1.0,4.0,4.0,444.5772270000816,3.0,1.0,phase_1,,,,,,,,,,,,,white,triangle
141.0,5.0,1.0,1.0,2.0,2.0,630.5053500000213,3.0,1.0,phase_1,,,,,,,,,,,,,cyan,flipped triangle
627.0,3.0,3.0,0.0,3.0,3.0,314.7618030006924,3.0,1.0,phase_1,,,,,,,,,,,,,yellow,cross
301.0,2.0,2.0,0.0,2.0,2.0,380.7244210001954,3.0,1.0,phase_1,,,,,,,,,,,,,green,square
308.0,6.0,2.0,1.0,4.0,4.0,323.8834040002984,3.0,1.0,phase_1,,,,,,,,,,,,,gray,diamond
668.0,7.0,3.0,1.0,2.0,2.0,341.7389830001411,3.0,1.0,phase_1,,,,,,,,,,,,,white,triangle
0.0,6.0,0.0,1.0,2.0,2.0,397.2998909994203,3.0,1.0,phase_1,,,,,,,,,,,,,gray,diamond
1308.0,4.0,4.0,0.0,1.0,1.0,371.1431330002597,3.0,1.0,phase_1,,,,,,,,,,,,,magenta,circle
653.0,7.0,3.0,1.0,2.0,2.0,369.9522710003293,3.0,1.0,phase_1,,,,,,,,,,,,,white,triangle
0.0,8.0,0.0,1.0,1.0,1.0,277.6613370006089,3.0,1.0,phase_1,,,,,,,,,,,,,blue,I
185.0,1.0,1.0,0.0,1.0,1.0,325.3999839998869,3.0,1.0,phase_1,,,,,,,,,,,,,orange,hexagon
169.0,1.0,1.0,0.0,4.0,4.0,295.0531300002694,3.0,1.0,phase_1,,,,,,,,,,,,,orange,hexagon
0.0,5.0,0.0,1.0,1.0,1.0,379.6421479992204,3.0,1.0,phase_1,,,,,,,,,,,,,cyan,flipped triangle
0.0,3.0,0.0,0.0,1.0,1.0,342.9387189999033,3.0,1.0,phase_1,,,,,,,,,,,,,yellow,cross
1306.0,4.0,4.0,0.0,4.0,4.0,397.588638000343,4.0,1.0,phase_1,,,,,,,,,,,,,magenta,circle
165.0,1.0,1.0,0.0,3.0,3.0,332.6604759995462,4.0,1.0,phase_1,,,,,,,,,,,,,orange,hexagon
0.0,1.0,0.0,0.0,1.0,1.0,315.3420970002116,4.0,1.0,phase_1,,,,,,,,,,,,,orange,hexagon
301.0,6.0,2.0,1.0,3.0,3.0,342.3770769995826,4.0,1.0,phase_1,,,,,,,,,,,,,gray,diamond
139.0,1.0,1.0,0.0,2.0,2.0,305.1668400003109,4.0,1.0,phase_1,,,,,,,,,,,,,orange,hexagon
1318.0,8.0,4.0,1.0,1.0,1.0,305.7449699999779,4.0,1.0,phase_1,,,,,,,,,,,,,blue,I
182.0,5.0,1.0,1.0,3.0,3.0,305.5565570002727,4.0,1.0,phase_1,,,,,,,,,,,,,cyan,flipped triangle
308.0,2.0,2.0,0.0,4.0,4.0,425.324394999734,4.0,1.0,phase_1,,,,,,,,,,,,,green,square
308.0,2.0,2.0,0.0,4.0,4.0,370.0485070003196,4.0,1.0,phase_1,,,,,,,,,,,,,green,square
665.0,3.0,3.0,0.0,2.0,2.0,342.1651110002131,4.0,1.0,phase_1,,,,,,,,,,,,,yellow,cross
1324.0,8.0,4.0,1.0,2.0,2.0,296.6416620001837,4.0,1.0,phase_1,,,,,,,,,,,,,blue,I
311.0,2.0,2.0,0.0,3.0,3.0,333.5362790003273,4.0,1.0,phase_1,,,,,,,,,,,,,green,square
140.0,5.0,1.0,1.0,1.0,1.0,352.5874870001644,4.0,1.0,phase_1,,,,,,,,,,,,,cyan,flipped triangle
1291.0,8.0,4.0,1.0,2.0,2.0,332.3346959996343,4.0,1.0,phase_1,,,,,,,,,,,,,blue,I
1278.0,8.0,4.0,1.0,4.0,4.0,398.0768969995552,4.0,1.0,phase_1,,,,,,,,,,,,,blue,I
668.0,3.0,3.0,0.0,1.0,1.0,388.863764999769,4.0,1.0,phase_1,,,,,,,,,,,,,yellow,cross
659.0,3.0,3.0,0.0,2.0,2.0,415.7845479994648,4.0,1.0,phase_1,,,,,,,,,,,,,yellow,cross
143.0,1.0,1.0,0.0,2.0,2.0,350.7834049996745,4.0,1.0,phase_1,,,,,,,,,,,,,orange,hexagon
0.0,6.0,0.0,1.0,4.0,4.0,435.06619100026,4.0,1.0,phase_1,,,,,,,,,,,,,gray,diamond
1308.0,8.0,4.0,1.0,1.0,1.0,581.9431049994819,4.0,1.0,phase_1,,,,,,,,,,,,,blue,I
344.0,2.0,2.0,0.0,1.0,1.0,351.9834710004943,4.0,1.0,phase_1,,,,,,,,,,,,,green,square
635.0,7.0,3.0,1.0,1.0,1.0,368.7003069999264,4.0,1.0,phase_1,,,,,,,,,,,,,white,triangle
1306.0,8.0,4.0,1.0,4.0,4.0,461.6455499999574,4.0,1.0,phase_1,,,,,,,,,,,,,blue,I
665.0,7.0,3.0,1.0,3.0,3.0,339.4659160003357,4.0,1.0,phase_1,,,,,,,,,,,,,white,triangle
0.0,1.0,0.0,0.0,3.0,3.0,350.2462450005623,4.0,1.0,phase_1,,,,,,,,,,,,,orange,hexagon
347.0,6.0,2.0,1.0,3.0,3.0,359.3965410000237,4.0,1.0,phase_1,,,,,,,,,,,,,gray,diamond
314.0,2.0,2.0,0.0,2.0,2.0,377.9221699996924,4.0,1.0,phase_1,,,,,,,,,,,,,green,square
0.0,7.0,0.0,1.0,1.0,1.0,341.395743999783,4.0,1.0,phase_1,,,,,,,,,,,,,white,triangle
0.0,7.0,0.0,1.0,1.0,1.0,359.2869520007298,4.0,1.0,phase_1,,,,,,,,,,,,,white,triangle
1315.0,8.0,4.0,1.0,1.0,1.0,341.962639000485,4.0,1.0,phase_1,,,,,,,,,,,,,blue,I
147.0,5.0,1.0,1.0,4.0,4.0,425.2936760003649,4.0,1.0,phase_1,,,,,,,,,,,,,cyan,flipped triangle
667.0,3.0,3.0,0.0,3.0,3.0,342.3743160001322,4.0,1.0,phase_1,,,,,,,,,,,,,yellow,cross
302.0,6.0,2.0,1.0,1.0,1.0,324.1429139998217,4.0,1.0,phase_1,,,,,,,,,,,,,gray,diamond
1292.0,8.0,4.0,1.0,4.0,4.0,360.4456530001698,4.0,1.0,phase_1,,,,,,,,,,,,,blue,I
0.0,4.0,0.0,0.0,1.0,1.0,481.995131000076,4.0,1.0,phase_1,,,,,,,,,,,,,magenta,circle
347.0,2.0,2.0,0.0,4.0,4.0,471.545132000756,4.0,1.0,phase_1,,,,,,,,,,,,,green,square
0.0,7.0,0.0,1.0,2.0,2.0,507.7651000001424,4.0,1.0,phase_1,,,,,,,,,,,,,white,triangle
333.0,6.0,2.0,1.0,2.0,2.0,387.8647649999038,4.0,1.0,phase_1,,,,,,,,,,,,,gray,diamond
638.0,3.0,3.0,0.0,1.0,1.0,323.1373569997231,4.0,1.0,phase_1,,,,,,,,,,,,,yellow,cross
1278.0,4.0,4.0,0.0,4.0,4.0,388.606262000394,4.0,2.0,phase_1,,,,,,,,,,,,,magenta,circle
306.0,6.0,2.0,1.0,1.0,1.0,434.1823459999432,4.0,1.0,phase_1,,,,,,,,,,,,,gray,diamond
338.0,6.0,2.0,1.0,2.0,2.0,581.3755139997738,4.0,1.0,phase_1,,,,,,,,,,,,,gray,diamond
0.0,4.0,0.0,0.0,3.0,3.0,425.5464469997605,4.0,1.0,phase_1,,,,,,,,,,,,,magenta,circle
141.0,5.0,1.0,1.0,1.0,1.0,627.5503440001557,4.0,1.0,phase_1,,,,,,,,,,,,,cyan,flipped triangle
160.0,5.0,1.0,1.0,1.0,1.0,387.4373130001913,4.0,1.0,phase_1,,,,,,,,,,,,,cyan,flipped triangle
1291.0,8.0,4.0,1.0,1.0,1.0,435.370793000402,4.0,1.0,phase_1,,,,,,,,,,,,,blue,I
0.0,3.0,0.0,0.0,2.0,2.0,425.3698869997606,4.0,1.0,phase_1,,,,,,,,,,,,,yellow,cross
0.0,4.0,0.0,0.0,2.0,2.0,359.8028019996491,4.0,1.0,phase_1,,,,,,,,,,,,,magenta,circle
628.0,3.0,3.0,0.0,2.0,2.0,368.5651779996988,4.0,1.0,phase_1,,,,,,,,,,,,,yellow,cross
338.0,2.0,2.0,0.0,3.0,3.0,387.8081149996433,4.0,1.0,phase_1,,,,,,,,,,,,,green,square
0.0,8.0,0.0,1.0,4.0,4.0,425.6049639998309,4.0,1.0,phase_1,,,,,,,,,,,,,blue,I
144.0,1.0,1.0,0.0,2.0,2.0,323.8426620000609,4.0,1.0,phase_1,,,,,,,,,,,,,orange,hexagon
662.0,3.0,3.0,0.0,1.0,1.0,443.6035919998176,4.0,1.0,phase_1,,,,,,,,,,,,,yellow,cross
638.0,7.0,3.0,1.0,1.0,1.0,323.0327760002183,4.0,1.0,phase_1,,,,,,,,,,,,,white,triangle
168.0,5.0,1.0,1.0,3.0,3.0,498.3678520002286,4.0,1.0,phase_1,,,,,,,,,,,,,cyan,flipped triangle
1291.0,4.0,4.0,0.0,1.0,1.0,368.198805999782,4.0,1.0,phase_1,,,,,,,,,,,,,magenta,circle
331.0,2.0,2.0,0.0,3.0,3.0,443.6729729995932,4.0,1.0,phase_1,,,,,,,,,,,,,green,square
668.0,7.0,3.0,1.0,2.0,2.0,416.4533470002425,4.0,1.0,phase_1,,,,,,,,,,,,,white,triangle
0.0,4.0,0.0,0.0,1.0,1.0,415.6334420003986,4.0,1.0,phase_1,,,,,,,,,,,,,magenta,circle
1296.0,8.0,4.0,1.0,4.0,4.0,470.9796209999695,4.0,1.0,phase_1,,,,,,,,,,,,,blue,I
0.0,2.0,0.0,0.0,2.0,2.0,305.5709270001898,4.0,1.0,phase_1,,,,,,,,,,,,,green,square
1299.0,4.0,4.0,0.0,1.0,1.0,350.7416299999022,4.0,1.0,phase_1,,,,,,,,,,,,,magenta,circle
0.0,2.0,0.0,0.0,3.0,3.0,324.0894589998788,4.0,1.0,phase_1,,,,,,,,,,,,,green,square
0.0,6.0,0.0,1.0,4.0,4.0,351.9268540003395,4.0,1.0,phase_1,,,,,,,,,,,,,gray,diamond
0.0,8.0,0.0,1.0,3.0,3.0,472.8010030003133,4.0,1.0,phase_1,,,,,,,,,,,,,blue,I
312.0,6.0,2.0,1.0,1.0,1.0,397.0272560000012,4.0,1.0,phase_1,,,,,,,,,,,,,gray,diamond
630.0,7.0,3.0,1.0,3.0,3.0,334.944940999776,4.0,1.0,phase_1,,,,,,,,,,,,,white,triangle
140.0,1.0,1.0,0.0,2.0,2.0,381.3789619998715,4.0,1.0,phase_1,,,,,,,,,,,,,orange,hexagon
162.0,1.0,1.0,0.0,4.0,4.0,370.7188210000822,4.0,1.0,phase_1,,,,,,,,,,,,,orange,hexagon
335.0,2.0,2.0,0.0,4.0,4.0,351.3525809994462,4.0,1.0,phase_1,,,,,,,,,,,,,green,square
0.0,2.0,0.0,0.0,2.0,2.0,360.6863229997543,4.0,1.0,phase_1,,,,,,,,,,,,,green,square
656.0,7.0,3.0,1.0,3.0,3.0,378.6444349998419,4.0,1.0,phase_1,,,,,,,,,,,,,white,triangle
151.0,1.0,1.0,0.0,1.0,1.0,434.8552220008059,4.0,1.0,phase_1,,,,,,,,,,,,,orange,hexagon
168.0,1.0,1.0,0.0,3.0,3.0,324.1472390000126,4.0,1.0,phase_1,,,,,,,,,,,,,orange,hexagon
0.0,5.0,0.0,1.0,1.0,1.0,379.82635499975,4.0,1.0,phase_1,,,,,,,,,,,,,cyan,flipped triangle
630.0,3.0,3.0,0.0,3.0,3.0,295.5708620002042,4.0,1.0,phase_1,,,,,,,,,,,,,yellow,cross
647.0,7.0,3.0,1.0,4.0,4.0,387.6338899999609,4.0,1.0,phase_1,,,,,,,,,,,,,white,triangle
142.0,5.0,1.0,1.0,1.0,1.0,353.7431020004078,4.0,1.0,phase_1,,,,,,,,,,,,,cyan,flipped triangle
173.0,5.0,1.0,1.0,4.0,4.0,407.20716400028317,4.0,1.0,phase_1,,,,,,,,,,,,,cyan,flipped triangle
326.0,2.0,2.0,0.0,1.0,1.0,398.0627139999342,4.0,1.0,phase_1,,,,,,,,,,,,,green,square
1313.0,8.0,4.0,1.0,2.0,2.0,341.9947940001293,4.0,1.0,phase_1,,,,,,,,,,,,,blue,I
346.0,2.0,2.0,0.0,2.0,2.0,314.8862640000516,4.0,1.0,phase_1,,,,,,,,,,,,,green,square
160.0,1.0,1.0,0.0,4.0,4.0,369.8874929996236,4.0,1.0,phase_1,,,,,,,,,,,,,orange,hexagon
0.0,8.0,0.0,1.0,2.0,2.0,295.3478710005583,4.0,1.0,phase_1,,,,,,,,,,,,,blue,I
1291.0,8.0,4.0,1.0,1.0,1.0,378.9848720007285,4.0,1.0,phase_1,,,,,,,,,,,,,blue,I
0.0,7.0,0.0,1.0,3.0,3.0,333.9130269996531,4.0,1.0,phase_1,,,,,,,,,,,,,white,triangle
182.0,1.0,1.0,0.0,2.0,2.0,472.8804160004074,4.0,1.0,phase_1,,,,,,,,,,,,,orange,hexagon
0.0,7.0,0.0,1.0,3.0,3.0,360.9110770003099,4.0,1.0,phase_1,,,,,,,,,,,,,white,triangle
673.0,7.0,3.0,1.0,2.0,2.0,380.0199739998788,4.0,1.0,phase_1,,,,,,,,,,,,,white,triangle
180.0,5.0,1.0,1.0,2.0,2.0,341.75480399972,4.0,1.0,phase_1,,,,,,,,,,,,,cyan,flipped triangle
1279.0,8.0,4.0,1.0,3.0,3.0,361.6885820001698,4.0,1.0,phase_1,,,,,,,,,,,,,blue,I
170.0,5.0,1.0,1.0,3.0,3.0,342.7451220004514,4.0,1.0,phase_1,,,,,,,,,,,,,cyan,flipped triangle
0.0,7.0,0.0,1.0,4.0,4.0,622.2709980002037,4.0,1.0,phase_1,,,,,,,,,,,,,white,triangle
146.0,5.0,1.0,1.0,3.0,3.0,351.2373369994748,4.0,1.0,phase_1,,,,,,,,,,,,,cyan,flipped triangle
0.0,3.0,0.0,0.0,2.0,2.0,443.82437799959,4.0,1.0,phase_1,,,,,,,,,,,,,yellow,cross
306.0,2.0,2.0,0.0,3.0,3.0,428.7215889999061,4.0,1.0,phase_1,,,,,,,,,,,,,green,square
186.0,5.0,1.0,1.0,3.0,3.0,409.3412279999029,4.0,1.0,phase_1,,,,,,,,,,,,,cyan,flipped triangle
0.0,5.0,0.0,1.0,3.0,3.0,334.8806750000221,4.0,1.0,phase_1,,,,,,,,,,,,,cyan,flipped triangle
0.0,3.0,0.0,0.0,4.0,4.0,658.2084849997045,4.0,1.0,phase_1,,,,,,,,,,,,,yellow,cross
0.0,2.0,0.0,0.0,2.0,2.0,360.8420820000901,4.0,1.0,phase_1,,,,,,,,,,,,,green,square
0.0,5.0,1.0,1.0,6.0,0.0,0.0,1.0,1.0,phase_2,stop,250.0,250.0,4.0,,,,,,,,,cyan,flipped triangle
0.0,1.0,1.0,0.0,5.0,5.0,475.8558330004234,1.0,1.0,phase_2,go,250.0,300.0,1.0,,,,,,,,,orange,hexagon
0.0,3.0,3.0,0.0,6.0,6.0,316.4935790000527,1.0,1.0,phase_2,go,250.0,300.0,1.0,,,,,,,,,yellow,cross
0.0,4.0,4.0,0.0,5.0,5.0,353.7215670003206,1.0,1.0,phase_2,go,250.0,300.0,1.0,,,,,,,,,magenta,circle
0.0,8.0,4.0,1.0,6.0,6.0,544.52048299936,1.0,1.0,phase_2,stop,250.0,300.0,3.0,,,,,,,,,blue,I
0.0,2.0,2.0,0.0,6.0,6.0,391.6809230004219,1.0,1.0,phase_2,go,250.0,250.0,1.0,,,,,,,,,green,square
0.0,4.0,4.0,0.0,5.0,5.0,308.6934659995677,1.0,1.0,phase_2,go,250.0,250.0,1.0,,,,,,,,,magenta,circle
0.0,4.0,4.0,0.0,6.0,6.0,475.8550810001907,1.0,1.0,phase_2,go,250.0,250.0,1.0,,,,,,,,,magenta,circle
0.0,5.0,1.0,1.0,6.0,0.0,0.0,1.0,1.0,phase_2,stop,250.0,250.0,4.0,,,,,,,,,cyan,flipped triangle
0.0,7.0,3.0,1.0,5.0,5.0,407.9221379997761,1.0,1.0,phase_2,go,250.0,300.0,1.0,,,,,,,,,white,triangle
0.0,5.0,1.0,1.0,5.0,5.0,316.3079720006863,1.0,1.0,phase_2,go,250.0,300.0,1.0,,,,,,,,,cyan,flipped triangle
0.0,6.0,2.0,1.0,6.0,6.0,529.5906490000561,1.0,1.0,phase_2,go,250.0,300.0,1.0,,,,,,,,,gray,diamond
0.0,4.0,4.0,0.0,6.0,6.0,577.1552919995884,1.0,1.0,phase_2,go,250.0,300.0,1.0,,,,,,,,,magenta,circle
0.0,3.0,3.0,0.0,6.0,6.0,382.0297020001817,1.0,1.0,phase_2,go,250.0,300.0,1.0,,,,,,,,,yellow,cross
0.0,6.0,2.0,1.0,6.0,6.0,335.8726409996961,1.0,1.0,phase_2,go,250.0,300.0,1.0,,,,,,,,,gray,diamond
0.0,5.0,1.0,1.0,5.0,0.0,0.0,1.0,1.0,phase_2,stop,250.0,300.0,4.0,,,,,,,,,cyan,flipped triangle
0.0,2.0,2.0,0.0,6.0,6.0,278.6781280001378,1.0,1.0,phase_2,go,300.0,300.0,1.0,,,,,,,,,green,square
0.0,3.0,3.0,0.0,5.0,5.0,455.7290459997603,1.0,1.0,phase_2,go,300.0,300.0,1.0,,,,,,,,,yellow,cross
0.0,8.0,4.0,1.0,6.0,0.0,0.0,1.0,1.0,phase_2,stop,300.0,300.0,4.0,,,,,,,,,blue,I
0.0,6.0,2.0,1.0,5.0,5.0,268.6639090006792,1.0,1.0,phase_2,stop,300.0,350.0,3.0,,,,,,,,,gray,diamond
0.0,4.0,4.0,0.0,5.0,5.0,479.2134589997658,1.0,1.0,phase_2,go,250.0,350.0,1.0,,,,,,,,,magenta,circle
0.0,7.0,3.0,1.0,6.0,6.0,387.7061900002445,1.0,1.0,phase_2,stop,250.0,350.0,3.0,,,,,,,,,white,triangle
0.0,4.0,4.0,0.0,6.0,6.0,344.5963540007142,1.0,1.0,phase_2,go,250.0,300.0,1.0,,,,,,,,,magenta,circle
0.0,4.0,4.0,0.0,6.0,6.0,326.1415939996368,1.0,1.0,phase_2,go,250.0,300.0,1.0,,,,,,,,,magenta,circle
0.0,7.0,3.0,1.0,5.0,5.0,614.2237390004084,1.0,1.0,phase_2,go,250.0,300.0,1.0,,,,,,,,,white,triangle
0.0,3.0,3.0,0.0,5.0,5.0,699.0325260003374,1.0,1.0,phase_2,go,250.0,300.0,1.0,,,,,,,,,yellow,cross
0.0,1.0,1.0,0.0,5.0,5.0,409.4831169995814,1.0,1.0,phase_2,go,250.0,300.0,1.0,,,,,,,,,orange,hexagon
0.0,7.0,3.0,1.0,5.0,5.0,335.6177550003849,1.0,1.0,phase_2,stop,250.0,300.0,3.0,,,,,,,,,white,triangle
0.0,3.0,3.0,0.0,6.0,6.0,325.6965170003241,1.0,1.0,phase_2,go,200.0,300.0,1.0,,,,,,,,,yellow,cross
0.0,5.0,1.0,1.0,6.0,6.0,352.2051099998862,1.0,1.0,phase_2,stop,200.0,300.0,3.0,,,,,,,,,cyan,flipped triangle
0.0,1.0,1.0,0.0,5.0,5.0,344.5630390006045,1.0,1.0,phase_2,go,200.0,250.0,1.0,,,,,,,,,orange,hexagon
0.0,8.0,4.0,1.0,6.0,6.0,346.7340689994671,1.0,1.0,phase_2,stop,200.0,250.0,3.0,,,,,,,,,blue,I
0.0,4.0,4.0,0.0,6.0,6.0,381.991731999733,1.0,1.0,phase_2,go,200.0,200.0,1.0,,,,,,,,,magenta,circle
0.0,1.0,1.0,0.0,5.0,5.0,362.7647180001077,1.0,1.0,phase_2,go,200.0,200.0,1.0,,,,,,,,,orange,hexagon
0.0,2.0,2.0,0.0,6.0,6.0,354.5326630001,1.0,1.0,phase_2,go,200.0,200.0,1.0,,,,,,,,,green,square
0.0,1.0,1.0,0.0,5.0,5.0,370.9861039997122,1.0,1.0,phase_2,go,200.0,200.0,1.0,,,,,,,,,orange,hexagon
0.0,6.0,2.0,1.0,6.0,6.0,298.3308889997715,2.0,1.0,phase_2,go,200.0,200.0,1.0,,,,,,,,,gray,diamond
0.0,5.0,1.0,1.0,6.0,6.0,271.762254999885,2.0,1.0,phase_2,go,200.0,200.0,1.0,,,,,,,,,cyan,flipped triangle
0.0,5.0,1.0,1.0,6.0,6.0,289.1510499994183,2.0,1.0,phase_2,stop,200.0,200.0,3.0,,,,,,,,,cyan,flipped triangle
0.0,7.0,3.0,1.0,6.0,6.0,288.278282999272,2.0,1.0,phase_2,go,200.0,150.0,1.0,,,,,,,,,white,triangle
0.0,8.0,4.0,1.0,6.0,6.0,382.6900820004084,2.0,1.0,phase_2,go,200.0,150.0,1.0,,,,,,,,,blue,I
0.0,8.0,4.0,1.0,5.0,0.0,0.0,2.0,1.0,phase_2,stop,200.0,150.0,4.0,,,,,,,,,blue,I
0.0,7.0,3.0,1.0,6.0,6.0,324.0472790002968,2.0,1.0,phase_2,stop,250.0,150.0,3.0,,,,,,,,,white,triangle
0.0,3.0,3.0,0.0,5.0,5.0,419.9239560002752,2.0,1.0,phase_2,go,250.0,100.0,1.0,,,,,,,,,yellow,cross
0.0,6.0,2.0,1.0,5.0,5.0,336.2057280000954,2.0,1.0,phase_2,stop,250.0,100.0,3.0,,,,,,,,,gray,diamond
0.0,2.0,2.0,0.0,6.0,6.0,327.1408570008134,2.0,1.0,phase_2,go,200.0,100.0,1.0,,,,,,,,,green,square
0.0,3.0,3.0,0.0,5.0,5.0,279.960955000206,2.0,1.0,phase_2,go,200.0,100.0,1.0,,,,,,,,,yellow,cross
0.0,4.0,4.0,0.0,6.0,6.0,437.8647070006991,2.0,1.0,phase_2,go,200.0,100.0,1.0,,,,,,,,,magenta,circle
0.0,3.0,3.0,0.0,6.0,6.0,334.7268669995173,2.0,1.0,phase_2,go,200.0,100.0,1.0,,,,,,,,,yellow,cross
0.0,3.0,3.0,0.0,6.0,6.0,336.5078690003429,2.0,1.0,phase_2,go,200.0,100.0,1.0,,,,,,,,,yellow,cross
0.0,4.0,4.0,0.0,6.0,6.0,315.9212010004921,2.0,1.0,phase_2,go,200.0,100.0,1.0,,,,,,,,,magenta,circle
0.0,8.0,4.0,1.0,6.0,6.0,289.3365619993346,2.0,1.0,phase_2,stop,200.0,100.0,3.0,,,,,,,,,blue,I
0.0,6.0,2.0,1.0,6.0,6.0,296.6272189996743,2.0,1.0,phase_2,stop,200.0,50.0,3.0,,,,,,,,,gray,diamond
0.0,4.0,4.0,0.0,6.0,6.0,372.9061670001101,2.0,1.0,phase_2,go,200.0,0.0,1.0,,,,,,,,,magenta,circle
0.0,1.0,1.0,0.0,6.0,6.0,326.2374750001982,2.0,1.0,phase_2,go,200.0,0.0,1.0,,,,,,,,,orange,hexagon
0.0,4.0,4.0,0.0,6.0,6.0,363.7301599992497,2.0,1.0,phase_2,go,200.0,0.0,1.0,,,,,,,,,magenta,circle
0.0,5.0,1.0,1.0,6.0,6.0,437.5233940008911,2.0,1.0,phase_2,go,200.0,0.0,1.0,,,,,,,,,cyan,flipped triangle
0.0,2.0,2.0,0.0,6.0,6.0,315.4133779999029,2.0,1.0,phase_2,go,200.0,0.0,1.0,,,,,,,,,green,square
0.0,3.0,3.0,0.0,6.0,6.0,327.6902280003924,2.0,1.0,phase_2,go,200.0,0.0,1.0,,,,,,,,,yellow,cross
0.0,5.0,1.0,1.0,6.0,0.0,0.0,2.0,1.0,phase_2,stop,200.0,0.0,4.0,,,,,,,,,cyan,flipped triangle
0.0,1.0,1.0,0.0,5.0,5.0,300.4475289999391,2.0,1.0,phase_2,go,200.0,50.0,1.0,,,,,,,,,orange,hexagon
0.0,1.0,1.0,0.0,6.0,6.0,345.6314639997799,2.0,1.0,phase_2,go,200.0,50.0,1.0,,,,,,,,,orange,hexagon
0.0,6.0,2.0,1.0,6.0,0.0,0.0,2.0,1.0,phase_2,stop,200.0,50.0,4.0,,,,,,,,,gray,diamond
0.0,5.0,1.0,1.0,6.0,0.0,0.0,2.0,1.0,phase_2,stop,200.0,100.0,4.0,,,,,,,,,cyan,flipped triangle
0.0,1.0,1.0,0.0,5.0,5.0,251.16690399954678,2.0,1.0,phase_2,go,200.0,150.0,1.0,,,,,,,,,orange,hexagon
0.0,6.0,2.0,1.0,5.0,5.0,344.2020299999058,2.0,1.0,phase_2,go,200.0,150.0,1.0,,,,,,,,,gray,diamond
0.0,7.0,3.0,1.0,5.0,5.0,330.7060560000536,2.0,1.0,phase_2,stop,200.0,150.0,3.0,,,,,,,,,white,triangle
0.0,6.0,2.0,1.0,5.0,0.0,0.0,2.0,1.0,phase_2,stop,150.0,150.0,4.0,,,,,,,,,gray,diamond
0.0,3.0,3.0,0.0,6.0,6.0,342.7453730000707,2.0,1.0,phase_2,go,200.0,150.0,1.0,,,,,,,,,yellow,cross
0.0,7.0,3.0,1.0,5.0,0.0,0.0,2.0,1.0,phase_2,stop,200.0,150.0,4.0,,,,,,,,,white,triangle
0.0,5.0,1.0,1.0,5.0,5.0,390.77658899987,2.0,1.0,phase_2,go,250.0,150.0,1.0,,,,,,,,,cyan,flipped triangle
0.0,2.0,2.0,0.0,6.0,6.0,500.8273769999505,2.0,1.0,phase_2,go,250.0,150.0,1.0,,,,,,,,,green,square
0.0,8.0,4.0,1.0,6.0,6.0,434.9387729998852,3.0,1.0,phase_2,stop,250.0,150.0,3.0,,,,,,,,,blue,I
0.0,7.0,3.0,1.0,5.0,5.0,323.1111709992547,3.0,1.0,phase_2,stop,250.0,100.0,3.0,,,,,,,,,white,triangle
0.0,6.0,2.0,1.0,5.0,0.0,0.0,3.0,1.0,phase_2,stop,200.0,100.0,4.0,,,,,,,,,gray,diamond
0.0,4.0,4.0,0.0,5.0,5.0,521.4590369996586,3.0,1.0,phase_2,go,250.0,100.0,1.0,,,,,,,,,magenta,circle
0.0,4.0,4.0,0.0,5.0,5.0,454.9383209996449,3.0,1.0,phase_2,go,250.0,100.0,1.0,,,,,,,,,magenta,circle
0.0,5.0,1.0,1.0,6.0,0.0,0.0,3.0,1.0,phase_2,stop,250.0,100.0,4.0,,,,,,,,,cyan,flipped triangle
0.0,8.0,4.0,1.0,5.0,5.0,418.3106180007598,3.0,1.0,phase_2,stop,250.0,150.0,3.0,,,,,,,,,blue,I
0.0,8.0,4.0,1.0,6.0,0.0,0.0,3.0,1.0,phase_2,stop,200.0,150.0,4.0,,,,,,,,,blue,I
0.0,1.0,1.0,0.0,6.0,6.0,531.0271750004176,3.0,1.0,phase_2,go,200.0,200.0,1.0,,,,,,,,,orange,hexagon
0.0,8.0,4.0,1.0,5.0,0.0,0.0,3.0,1.0,phase_2,stop,200.0,200.0,4.0,,,,,,,,,blue,I
0.0,1.0,1.0,0.0,6.0,6.0,454.1251439995903,3.0,1.0,phase_2,go,250.0,200.0,1.0,,,,,,,,,orange,hexagon
0.0,7.0,3.0,1.0,6.0,6.0,344.8324450000655,3.0,1.0,phase_2,stop,250.0,200.0,3.0,,,,,,,,,white,triangle
0.0,3.0,3.0,0.0,6.0,6.0,771.5418420002607,3.0,1.0,phase_2,go,250.0,150.0,1.0,,,,,,,,,yellow,cross
0.0,8.0,4.0,1.0,6.0,0.0,0.0,3.0,1.0,phase_2,stop,250.0,150.0,4.0,,,,,,,,,blue,I
0.0,8.0,4.0,1.0,5.0,5.0,353.7127360004888,3.0,1.0,phase_2,go,250.0,200.0,1.0,,,,,,,,,blue,I
0.0,2.0,2.0,0.0,5.0,5.0,540.6852799997068,3.0,1.0,phase_2,go,250.0,200.0,1.0,,,,,,,,,green,square
0.0,5.0,1.0,1.0,5.0,0.0,0.0,3.0,1.0,phase_2,stop,250.0,200.0,4.0,,,,,,,,,cyan,flipped triangle
0.0,7.0,3.0,1.0,6.0,6.0,320.302805999745,3.0,1.0,phase_2,stop,300.0,200.0,3.0,,,,,,,,,white,triangle
0.0,7.0,3.0,1.0,5.0,5.0,468.319737999991,3.0,1.0,phase_2,stop,300.0,150.0,3.0,,,,,,,,,white,triangle
0.0,1.0,1.0,0.0,6.0,6.0,699.0113270003349,3.0,1.0,phase_2,go,250.0,150.0,1.0,,,,,,,,,orange,hexagon
0.0,5.0,1.0,1.0,5.0,0.0,0.0,3.0,1.0,phase_2,stop,250.0,150.0,4.0,,,,,,,,,cyan,flipped triangle
0.0,2.0,2.0,0.0,5.0,5.0,475.2716349994443,3.0,1.0,phase_2,go,300.0,150.0,1.0,,,,,,,,,green,square
0.0,2.0,2.0,0.0,6.0,6.0,474.3996199995308,3.0,1.0,phase_2,go,300.0,150.0,1.0,,,,,,,,,green,square
0.0,1.0,1.0,0.0,5.0,5.0,474.7283300002891,3.0,1.0,phase_2,go,300.0,150.0,1.0,,,,,,,,,orange,hexagon
0.0,6.0,2.0,1.0,5.0,0.0,0.0,3.0,1.0,phase_2,stop,300.0,150.0,4.0,,,,,,,,,gray,diamond
0.0,4.0,4.0,0.0,6.0,6.0,474.6224080008687,3.0,1.0,phase_2,go,350.0,150.0,1.0,,,,,,,,,magenta,circle
0.0,2.0,2.0,0.0,6.0,6.0,446.7167740003788,3.0,1.0,phase_2,go,350.0,150.0,1.0,,,,,,,,,green,square
0.0,5.0,1.0,1.0,5.0,5.0,531.8833880000966,3.0,1.0,phase_2,go,350.0,150.0,1.0,,,,,,,,,cyan,flipped triangle
0.0,1.0,1.0,0.0,6.0,6.0,371.8066270002964,3.0,1.0,phase_2,go,350.0,150.0,1.0,,,,,,,,,orange,hexagon
0.0,7.0,3.0,1.0,6.0,0.0,0.0,3.0,1.0,phase_2,stop,350.0,150.0,4.0,,,,,,,,,white,triangle
0.0,5.0,1.0,1.0,5.0,5.0,394.638209999357,3.0,1.0,phase_2,stop,350.0,200.0,3.0,,,,,,,,,cyan,flipped triangle
0.0,6.0,2.0,1.0,5.0,0.0,0.0,3.0,1.0,phase_2,stop,300.0,200.0,4.0,,,,,,,,,gray,diamond
0.0,1.0,1.0,0.0,6.0,6.0,446.7621339999823,3.0,1.0,phase_2,go,350.0,200.0,1.0,,,,,,,,,orange,hexagon
0.0,1.0,1.0,0.0,5.0,5.0,538.7057999996614,3.0,1.0,phase_2,go,350.0,200.0,1.0,,,,,,,,,orange,hexagon
0.0,3.0,3.0,0.0,6.0,6.0,408.9070350000838,3.0,1.0,phase_2,go,350.0,200.0,1.0,,,,,,,,,yellow,cross
0.0,2.0,2.0,0.0,6.0,6.0,455.9968270004901,3.0,1.0,phase_2,go,350.0,200.0,1.0,,,,,,,,,green,square
0.0,6.0,2.0,1.0,5.0,5.0,504.3723950002459,4.0,1.0,phase_2,go,350.0,200.0,1.0,,,,,,,,,gray,diamond
0.0,6.0,2.0,1.0,5.0,5.0,326.4693459996124,4.0,1.0,phase_2,go,350.0,200.0,1.0,,,,,,,,,gray,diamond
0.0,5.0,1.0,1.0,6.0,6.0,400.075083000047,4.0,1.0,phase_2,go,350.0,200.0,1.0,,,,,,,,,cyan,flipped triangle
0.0,7.0,3.0,1.0,6.0,0.0,0.0,4.0,1.0,phase_2,stop,350.0,200.0,4.0,,,,,,,,,white,triangle
0.0,6.0,2.0,1.0,6.0,6.0,387.1221520003018,4.0,1.0,phase_2,stop,350.0,250.0,3.0,,,,,,,,,gray,diamond
0.0,4.0,4.0,0.0,5.0,5.0,437.6415930000803,4.0,1.0,phase_2,go,350.0,200.0,1.0,,,,,,,,,magenta,circle
0.0,5.0,1.0,1.0,5.0,5.0,394.299902000057,4.0,1.0,phase_2,stop,350.0,200.0,3.0,,,,,,,,,cyan,flipped triangle
0.0,7.0,3.0,1.0,5.0,5.0,420.8317050006371,4.0,1.0,phase_2,go,300.0,200.0,1.0,,,,,,,,,white,triangle
0.0,5.0,1.0,1.0,6.0,0.0,0.0,4.0,1.0,phase_2,stop,300.0,200.0,4.0,,,,,,,,,cyan,flipped triangle
0.0,8.0,4.0,1.0,5.0,0.0,0.0,4.0,1.0,phase_2,stop,300.0,250.0,4.0,,,,,,,,,blue,I
0.0,7.0,3.0,1.0,6.0,6.0,336.1501469998984,4.0,1.0,phase_2,go,350.0,250.0,1.0,,,,,,,,,white,triangle
0.0,2.0,2.0,0.0,5.0,5.0,603.9935799999512,4.0,1.0,phase_2,go,350.0,250.0,1.0,,,,,,,,,green,square
0.0,8.0,4.0,1.0,5.0,0.0,0.0,4.0,1.0,phase_2,stop,350.0,250.0,4.0,,,,,,,,,blue,I
0.0,7.0,3.0,1.0,5.0,0.0,0.0,4.0,1.0,phase_2,stop,400.0,250.0,4.0,,,,,,,,,white,triangle
0.0,5.0,1.0,1.0,5.0,5.0,515.8554809995621,4.0,1.0,phase_2,stop,450.0,250.0,3.0,,,,,,,,,cyan,flipped triangle
0.0,3.0,3.0,0.0,6.0,6.0,494.0054580001742,4.0,1.0,phase_2,go,400.0,250.0,1.0,,,,,,,,,yellow,cross
0.0,2.0,2.0,0.0,5.0,5.0,642.6146570001947,4.0,1.0,phase_2,go,400.0,250.0,1.0,,,,,,,,,green,square
0.0,3.0,3.0,0.0,6.0,6.0,503.5776029999397,4.0,1.0,phase_2,go,400.0,250.0,1.0,,,,,,,,,yellow,cross
0.0,1.0,1.0,0.0,5.0,5.0,540.2467399999296,4.0,1.0,phase_2,go,400.0,250.0,1.0,,,,,,,,,orange,hexagon
0.0,3.0,3.0,0.0,6.0,6.0,520.953257999281,4.0,1.0,phase_2,go,400.0,250.0,1.0,,,,,,,,,yellow,cross
0.0,5.0,1.0,1.0,6.0,0.0,0.0,4.0,1.0,phase_2,stop,400.0,250.0,4.0,,,,,,,,,cyan,flipped triangle
0.0,2.0,2.0,0.0,6.0,6.0,569.0540769992367,4.0,1.0,phase_2,go,400.0,300.0,1.0,,,,,,,,,green,square
0.0,4.0,4.0,0.0,6.0,6.0,475.5212709997067,4.0,1.0,phase_2,go,400.0,300.0,1.0,,,,,,,,,magenta,circle
0.0,5.0,1.0,1.0,5.0,5.0,494.361308000407,4.0,1.0,phase_2,go,400.0,300.0,1.0,,,,,,,,,cyan,flipped triangle
0.0,4.0,4.0,0.0,5.0,5.0,485.5060950003462,4.0,1.0,phase_2,go,400.0,300.0,1.0,,,,,,,,,magenta,circle
0.0,8.0,4.0,1.0,6.0,6.0,502.5608279993321,4.0,1.0,phase_2,go,400.0,300.0,1.0,,,,,,,,,blue,I
0.0,1.0,1.0,0.0,6.0,6.0,467.940303999967,4.0,1.0,phase_2,go,400.0,300.0,1.0,,,,,,,,,orange,hexagon
0.0,8.0,4.0,1.0,5.0,5.0,468.0290030000833,4.0,1.0,phase_2,stop,400.0,300.0,3.0,,,,,,,,,blue,I
0.0,1.0,1.0,0.0,5.0,5.0,466.466617000151,4.0,1.0,phase_2,go,350.0,300.0,1.0,,,,,,,,,orange,hexagon
0.0,2.0,2.0,0.0,6.0,6.0,307.9757229997995,4.0,1.0,phase_2,go,350.0,300.0,1.0,,,,,,,,,green,square
0.0,8.0,4.0,1.0,6.0,0.0,0.0,4.0,1.0,phase_2,stop,350.0,300.0,4.0,,,,,,,,,blue,I
0.0,8.0,4.0,1.0,6.0,6.0,477.2849090004456,4.0,1.0,phase_2,go,350.0,350.0,1.0,,,,,,,,,blue,I
0.0,5.0,1.0,1.0,5.0,0.0,0.0,4.0,1.0,phase_2,stop,350.0,350.0,4.0,,,,,,,,,cyan,flipped triangle
0.0,4.0,4.0,0.0,6.0,6.0,429.1587810002966,4.0,1.0,phase_2,go,400.0,350.0,1.0,,,,,,,,,magenta,circle
0.0,3.0,3.0,0.0,5.0,5.0,688.4040000004461,4.0,1.0,phase_2,go,400.0,350.0,1.0,,,,,,,,,yellow,cross
0.0,1.0,1.0,0.0,5.0,5.0,492.1019599996725,4.0,1.0,phase_2,go,400.0,350.0,1.0,,,,,,,,,orange,hexagon
0.0,1.0,1.0,0.0,6.0,6.0,308.5719339997013,5.0,1.0,phase_2,go,400.0,350.0,1.0,,,,,,,,,orange,hexagon
0.0,4.0,4.0,0.0,5.0,5.0,437.4911780005277,5.0,1.0,phase_2,go,400.0,350.0,1.0,,,,,,,,,magenta,circle
0.0,8.0,4.0,1.0,5.0,5.0,526.6451280003821,5.0,1.0,phase_2,stop,400.0,350.0,3.0,,,,,,,,,blue,I
0.0,4.0,4.0,0.0,5.0,5.0,437.7381819995207,5.0,1.0,phase_2,go,350.0,350.0,1.0,,,,,,,,,magenta,circle
0.0,5.0,1.0,1.0,5.0,5.0,652.4370260003707,5.0,1.0,phase_2,go,350.0,350.0,1.0,,,,,,,,,cyan,flipped triangle
0.0,6.0,2.0,1.0,5.0,5.0,433.7478239995107,5.0,1.0,phase_2,stop,350.0,350.0,3.0,,,,,,,,,gray,diamond
0.0,1.0,1.0,0.0,6.0,6.0,569.4074679995538,5.0,1.0,phase_2,go,300.0,350.0,1.0,,,,,,,,,orange,hexagon
0.0,8.0,4.0,1.0,5.0,0.0,0.0,5.0,1.0,phase_2,stop,300.0,350.0,4.0,,,,,,,,,blue,I
0.0,3.0,3.0,0.0,6.0,6.0,382.495628999095,5.0,1.0,phase_2,go,350.0,350.0,1.0,,,,,,,,,yellow,cross
0.0,6.0,2.0,1.0,6.0,0.0,0.0,5.0,1.0,phase_2,stop,350.0,350.0,4.0,,,,,,,,,gray,diamond
0.0,5.0,1.0,1.0,5.0,0.0,0.0,5.0,1.0,phase_2,stop,350.0,400.0,4.0,,,,,,,,,cyan,flipped triangle
0.0,3.0,3.0,0.0,5.0,5.0,547.6409470011276,5.0,1.0,phase_2,go,400.0,400.0,1.0,,,,,,,,,yellow,cross
0.0,6.0,2.0,1.0,6.0,0.0,0.0,5.0,1.0,phase_2,stop,400.0,400.0,4.0,,,,,,,,,gray,diamond
0.0,4.0,4.0,0.0,5.0,5.0,598.6690770005225,5.0,1.0,phase_2,go,400.0,450.0,1.0,,,,,,,,,magenta,circle
0.0,7.0,3.0,1.0,6.0,0.0,0.0,5.0,1.0,phase_2,stop,400.0,450.0,4.0,,,,,,,,,white,triangle
0.0,5.0,1.0,1.0,5.0,0.0,0.0,5.0,1.0,phase_2,stop,400.0,500.0,4.0,,,,,,,,,cyan,flipped triangle
0.0,1.0,1.0,0.0,6.0,6.0,402.1276860003127,5.0,1.0,phase_2,go,450.0,500.0,1.0,,,,,,,,,orange,hexagon
0.0,3.0,3.0,0.0,5.0,5.0,677.2030180000002,5.0,1.0,phase_2,go,450.0,500.0,1.0,,,,,,,,,yellow,cross
0.0,6.0,2.0,1.0,6.0,6.0,555.7430240005488,5.0,1.0,phase_2,stop,450.0,500.0,3.0,,,,,,,,,gray,diamond
0.0,4.0,4.0,0.0,6.0,6.0,448.7826120002864,5.0,1.0,phase_2,go,450.0,450.0,1.0,,,,,,,,,magenta,circle
0.0,8.0,4.0,1.0,6.0,6.0,717.420379000032,5.0,1.0,phase_2,go,450.0,450.0,1.0,,,,,,,,,blue,I
0.0,1.0,1.0,0.0,6.0,6.0,607.6398990007874,5.0,1.0,phase_2,go,450.0,450.0,1.0,,,,,,,,,orange,hexagon
0.0,2.0,2.0,0.0,6.0,6.0,707.5470670006325,5.0,1.0,phase_2,go,450.0,450.0,1.0,,,,,,,,,green,square
0.0,3.0,3.0,0.0,5.0,5.0,548.6755889996857,5.0,1.0,phase_2,go,450.0,450.0,1.0,,,,,,,,,yellow,cross
0.0,3.0,3.0,0.0,5.0,5.0,492.7543499998137,5.0,1.0,phase_2,go,450.0,450.0,1.0,,,,,,,,,yellow,cross
0.0,5.0,1.0,1.0,6.0,6.0,547.4159009991126,5.0,1.0,phase_2,stop,450.0,450.0,3.0,,,,,,,,,cyan,flipped triangle
0.0,8.0,4.0,1.0,5.0,5.0,665.3857550008979,5.0,1.0,phase_2,stop,450.0,400.0,3.0,,,,,,,,,blue,I
0.0,2.0,2.0,0.0,5.0,5.0,615.6370239987154,5.0,1.0,phase_2,go,400.0,400.0,1.0,,,,,,,,,green,square
0.0,6.0,2.0,1.0,6.0,0.0,0.0,5.0,1.0,phase_2,stop,400.0,400.0,4.0,,,,,,,,,gray,diamond
0.0,1.0,1.0,0.0,6.0,6.0,540.7241130014881,5.0,1.0,phase_2,go,400.0,450.0,1.0,,,,,,,,,orange,hexagon
0.0,6.0,2.0,1.0,6.0,6.0,696.177018000526,5.0,1.0,phase_2,stop,400.0,450.0,3.0,,,,,,,,,gray,diamond
0.0,3.0,3.0,0.0,5.0,5.0,856.4227379993099,5.0,1.0,phase_2,go,400.0,400.0,1.0,,,,,,,,,yellow,cross
0.0,4.0,4.0,0.0,6.0,6.0,689.1045350002969,5.0,1.0,phase_2,go,400.0,400.0,1.0,,,,,,,,,magenta,circle
0.0,2.0,2.0,0.0,5.0,5.0,641.1882580014208,5.0,1.0,phase_2,go,400.0,400.0,1.0,,,,,,,,,green,square
0.0,3.0,3.0,0.0,6.0,6.0,632.7075209992472,5.0,1.0,phase_2,go,400.0,400.0,1.0,,,,,,,,,yellow,cross
0.0,1.0,1.0,0.0,5.0,5.0,411.0319810006331,5.0,1.0,phase_2,go,400.0,400.0,1.0,,,,,,,,,orange,hexagon
0.0,8.0,4.0,1.0,5.0,5.0,326.4937609983462,6.0,1.0,phase_2,go,400.0,400.0,1.0,,,,,,,,,blue,I
0.0,7.0,3.0,1.0,5.0,5.0,382.8130980000424,6.0,1.0,phase_2,stop,400.0,400.0,3.0,,,,,,,,,white,triangle
0.0,5.0,1.0,1.0,5.0,5.0,395.9635269984574,6.0,1.0,phase_2,stop,350.0,400.0,3.0,,,,,,,,,cyan,flipped triangle
0.0,6.0,2.0,1.0,5.0,0.0,0.0,6.0,1.0,phase_2,stop,300.0,400.0,4.0,,,,,,,,,gray,diamond
0.0,3.0,3.0,0.0,6.0,6.0,419.2911179998191,6.0,1.0,phase_2,go,350.0,400.0,1.0,,,,,,,,,yellow,cross
0.0,6.0,2.0,1.0,5.0,5.0,626.3522760000342,6.0,1.0,phase_2,go,350.0,400.0,1.0,,,,,,,,,gray,diamond
0.0,5.0,1.0,1.0,6.0,6.0,532.1665110004687,6.0,1.0,phase_2,stop,350.0,400.0,3.0,,,,,,,,,cyan,flipped triangle
0.0,3.0,3.0,0.0,6.0,6.0,662.5455220000731,6.0,1.0,phase_2,go,350.0,350.0,1.0,,,,,,,,,yellow,cross
0.0,6.0,2.0,1.0,6.0,0.0,0.0,6.0,1.0,phase_2,stop,350.0,350.0,4.0,,,,,,,,,gray,diamond
0.0,8.0,4.0,1.0,6.0,0.0,0.0,6.0,1.0,phase_2,stop,350.0,400.0,4.0,,,,,,,,,blue,I
0.0,3.0,3.0,0.0,6.0,6.0,503.02951100093196,6.0,1.0,phase_2,go,350.0,450.0,1.0,,,,,,,,,yellow,cross
0.0,6.0,2.0,1.0,6.0,6.0,619.1101170006732,6.0,1.0,phase_2,stop,350.0,450.0,3.0,,,,,,,,,gray,diamond
0.0,3.0,3.0,0.0,5.0,5.0,539.39606700078,6.0,1.0,phase_2,go,350.0,400.0,1.0,,,,,,,,,yellow,cross
0.0,4.0,4.0,0.0,5.0,5.0,615.4435400003422,6.0,1.0,phase_2,go,350.0,400.0,1.0,,,,,,,,,magenta,circle
0.0,3.0,3.0,0.0,5.0,5.0,550.59987399909,6.0,1.0,phase_2,go,350.0,400.0,1.0,,,,,,,,,yellow,cross
0.0,1.0,1.0,0.0,5.0,5.0,625.9707049994176,6.0,1.0,phase_2,go,350.0,400.0,1.0,,,,,,,,,orange,hexagon
0.0,3.0,3.0,0.0,5.0,5.0,493.652559000111,6.0,1.0,phase_2,go,350.0,400.0,1.0,,,,,,,,,yellow,cross
0.0,6.0,2.0,1.0,6.0,0.0,0.0,6.0,1.0,phase_2,stop,350.0,400.0,4.0,,,,,,,,,gray,diamond
0.0,2.0,2.0,0.0,5.0,5.0,454.5089690000168,6.0,1.0,phase_2,go,350.0,450.0,1.0,,,,,,,,,green,square
0.0,8.0,4.0,1.0,5.0,0.0,0.0,6.0,1.0,phase_2,stop,350.0,450.0,4.0,,,,,,,,,blue,I
0.0,7.0,3.0,1.0,5.0,0.0,0.0,6.0,1.0,phase_2,stop,400.0,450.0,4.0,,,,,,,,,white,triangle
0.0,2.0,2.0,0.0,5.0,5.0,447.8843759989104,6.0,1.0,phase_2,go,450.0,450.0,1.0,,,,,,,,,green,square
0.0,2.0,2.0,0.0,5.0,5.0,608.2125320008345,6.0,1.0,phase_2,go,450.0,450.0,1.0,,,,,,,,,green,square
0.0,5.0,1.0,1.0,5.0,5.0,447.3262570008955,6.0,1.0,phase_2,stop,450.0,450.0,3.0,,,,,,,,,cyan,flipped triangle
0.0,4.0,4.0,0.0,5.0,5.0,484.3643909989623,6.0,1.0,phase_2,go,400.0,450.0,1.0,,,,,,,,,magenta,circle
0.0,3.0,3.0,0.0,5.0,5.0,699.1629559997818,6.0,1.0,phase_2,go,400.0,450.0,1.0,,,,,,,,,yellow,cross
0.0,7.0,3.0,1.0,6.0,0.0,0.0,6.0,1.0,phase_2,stop,400.0,450.0,4.0,,,,,,,,,white,triangle
0.0,8.0,4.0,1.0,6.0,6.0,705.8068360001926,6.0,1.0,phase_2,go,400.0,500.0,1.0,,,,,,,,,blue,I
0.0,8.0,4.0,1.0,6.0,0.0,0.0,6.0,1.0,phase_2,stop,400.0,500.0,4.0,,,,,,,,,blue,I
0.0,6.0,2.0,1.0,6.0,0.0,0.0,6.0,1.0,phase_2,stop,400.0,550.0,4.0,,,,,,,,,gray,diamond
0.0,1.0,1.0,0.0,6.0,6.0,428.4196860007796,6.0,1.0,phase_2,go,400.0,600.0,1.0,,,,,,,,,orange,hexagon
0.0,4.0,4.0,0.0,6.0,6.0,651.3479960012774,6.0,1.0,phase_2,go,400.0,600.0,1.0,,,,,,,,,magenta,circle
0.0,7.0,3.0,1.0,5.0,0.0,0.0,6.0,1.0,phase_2,stop,400.0,600.0,4.0,,,,,,,,,white,triangle
0.0,8.0,4.0,1.0,6.0,6.0,735.1804440004344,6.0,1.0,phase_2,stop,450.0,600.0,3.0,,,,,,,,,blue,I
0.0,6.0,2.0,1.0,5.0,0.0,0.0,6.0,1.0,phase_2,stop,450.0,550.0,4.0,,,,,,,,,gray,diamond
0.0,6.0,2.0,1.0,6.0,6.0,354.7983490007027,6.0,1.0,phase_2,go,500.0,550.0,1.0,,,,,,,,,gray,diamond
0.0,2.0,2.0,0.0,6.0,6.0,328.1117839997023,7.0,1.0,phase_2,go,500.0,550.0,1.0,,,,,,,,,green,square
0.0,7.0,3.0,1.0,5.0,5.0,382.0019639988459,7.0,1.0,phase_2,stop,500.0,550.0,3.0,,,,,,,,,white,triangle
0.0,3.0,3.0,0.0,5.0,5.0,625.5304539990902,7.0,1.0,phase_2,go,450.0,550.0,1.0,,,,,,,,,yellow,cross
0.0,3.0,3.0,0.0,5.0,5.0,401.2070189983205,7.0,1.0,phase_2,go,450.0,550.0,1.0,,,,,,,,,yellow,cross
0.0,7.0,3.0,1.0,6.0,0.0,0.0,7.0,1.0,phase_2,stop,450.0,550.0,4.0,,,,,,,,,white,triangle
0.0,2.0,2.0,0.0,5.0,5.0,614.4754110009671,7.0,1.0,phase_2,go,450.0,600.0,1.0,,,,,,,,,green,square
0.0,7.0,3.0,1.0,6.0,6.0,668.5309230015264,7.0,1.0,phase_2,stop,450.0,600.0,3.0,,,,,,,,,white,triangle
0.0,2.0,2.0,0.0,6.0,6.0,643.4239500013064,7.0,1.0,phase_2,go,450.0,550.0,1.0,,,,,,,,,green,square
0.0,6.0,2.0,1.0,5.0,5.0,606.954571998358,7.0,1.0,phase_2,stop,450.0,550.0,3.0,,,,,,,,,gray,diamond
0.0,2.0,2.0,0.0,5.0,5.0,633.2637159994192,7.0,1.0,phase_2,go,400.0,550.0,1.0,,,,,,,,,green,square
0.0,1.0,1.0,0.0,5.0,5.0,689.8143659982452,7.0,1.0,phase_2,go,400.0,550.0,1.0,,,,,,,,,orange,hexagon
0.0,8.0,4.0,1.0,5.0,0.0,0.0,7.0,1.0,phase_2,stop,400.0,550.0,4.0,,,,,,,,,blue,I
0.0,5.0,1.0,1.0,5.0,0.0,0.0,7.0,1.0,phase_2,stop,450.0,550.0,4.0,,,,,,,,,cyan,flipped triangle
0.0,2.0,2.0,0.0,5.0,5.0,747.0824640004139,7.0,1.0,phase_2,go,500.0,550.0,1.0,,,,,,,,,green,square
0.0,2.0,2.0,0.0,5.0,5.0,802.7206749993638,7.0,1.0,phase_2,go,500.0,550.0,1.0,,,,,,,,,green,square
0.0,6.0,2.0,1.0,6.0,6.0,827.991298001507,7.0,1.0,phase_2,go,500.0,550.0,1.0,,,,,,,,,gray,diamond
0.0,7.0,3.0,1.0,6.0,0.0,0.0,7.0,1.0,phase_2,stop,500.0,550.0,4.0,,,,,,,,,white,triangle
0.0,1.0,1.0,0.0,6.0,6.0,542.975459000445,7.0,1.0,phase_2,go,500.0,600.0,1.0,,,,,,,,,orange,hexagon
0.0,2.0,2.0,0.0,6.0,6.0,624.711352000304,7.0,1.0,phase_2,go,500.0,600.0,1.0,,,,,,,,,green,square
0.0,2.0,2.0,0.0,6.0,6.0,533.0248059999576,7.0,1.0,phase_2,go,500.0,600.0,1.0,,,,,,,,,green,square
0.0,7.0,3.0,1.0,6.0,0.0,0.0,7.0,1.0,phase_2,stop,500.0,600.0,4.0,,,,,,,,,white,triangle
0.0,8.0,4.0,1.0,5.0,0.0,0.0,7.0,1.0,phase_2,stop,500.0,650.0,4.0,,,,,,,,,blue,I
0.0,1.0,1.0,0.0,5.0,5.0,512.8149669999402,7.0,1.0,phase_2,go,550.0,650.0,1.0,,,,,,,,,orange,hexagon
0.0,7.0,3.0,1.0,5.0,0.0,0.0,7.0,1.0,phase_2,stop,550.0,650.0,4.0,,,,,,,,,white,triangle
0.0,8.0,4.0,1.0,5.0,5.0,846.0447369998292,7.0,1.0,phase_2,go,600.0,650.0,1.0,,,,,,,,,blue,I
0.0,6.0,2.0,1.0,5.0,5.0,813.4257290003006,7.0,1.0,phase_2,stop,600.0,650.0,3.0,,,,,,,,,gray,diamond
0.0,2.0,2.0,0.0,5.0,5.0,801.6427249986009,7.0,1.0,phase_2,go,550.0,650.0,1.0,,,,,,,,,green,square
0.0,7.0,3.0,1.0,5.0,0.0,0.0,7.0,1.0,phase_2,stop,550.0,650.0,4.0,,,,,,,,,white,triangle
0.0,2.0,2.0,0.0,5.0,5.0,502.43480899916904,7.0,1.0,phase_2,go,600.0,650.0,1.0,,,,,,,,,green,square
0.0,8.0,4.0,1.0,6.0,6.0,773.6033700002736,7.0,1.0,phase_2,go,600.0,650.0,1.0,,,,,,,,,blue,I
0.0,3.0,3.0,0.0,5.0,5.0,522.546677999344,7.0,1.0,phase_2,go,600.0,650.0,1.0,,,,,,,,,yellow,cross
0.0,2.0,2.0,0.0,5.0,5.0,587.9015480004455,7.0,1.0,phase_2,go,600.0,650.0,1.0,,,,,,,,,green,square
0.0,5.0,1.0,1.0,5.0,5.0,671.9786209996528,7.0,1.0,phase_2,stop,600.0,650.0,3.0,,,,,,,,,cyan,flipped triangle
0.0,4.0,4.0,0.0,6.0,6.0,558.7996049998765,7.0,1.0,phase_2,go,550.0,650.0,1.0,,,,,,,,,magenta,circle
0.0,2.0,2.0,0.0,6.0,6.0,660.6908880003175,7.0,1.0,phase_2,go,550.0,650.0,1.0,,,,,,,,,green,square
0.0,1.0,1.0,0.0,5.0,5.0,557.6600080003118,7.0,1.0,phase_2,go,550.0,650.0,1.0,,,,,,,,,orange,hexagon
0.0,7.0,3.0,1.0,6.0,6.0,298.335440998926,8.0,1.0,phase_2,stop,550.0,650.0,3.0,,,,,,,,,white,triangle
0.0,7.0,3.0,1.0,5.0,5.0,661.2044710000191,8.0,1.0,phase_2,go,550.0,600.0,1.0,,,,,,,,,white,triangle
0.0,8.0,4.0,1.0,5.0,5.0,520.965151999917,8.0,1.0,phase_2,stop,550.0,600.0,3.0,,,,,,,,,blue,I
0.0,8.0,4.0,1.0,5.0,0.0,0.0,8.0,1.0,phase_2,stop,500.0,600.0,4.0,,,,,,,,,blue,I
0.0,4.0,4.0,0.0,5.0,5.0,575.9436640000786,8.0,1.0,phase_2,go,550.0,600.0,1.0,,,,,,,,,magenta,circle
0.0,1.0,1.0,0.0,6.0,6.0,475.2494360000128,8.0,1.0,phase_2,go,550.0,600.0,1.0,,,,,,,,,orange,hexagon
0.0,7.0,3.0,1.0,5.0,5.0,744.2511310000555,8.0,1.0,phase_2,go,550.0,600.0,1.0,,,,,,,,,white,triangle
0.0,4.0,4.0,0.0,6.0,6.0,381.3337219999084,8.0,1.0,phase_2,go,550.0,600.0,1.0,,,,,,,,,magenta,circle
0.0,8.0,4.0,1.0,5.0,0.0,0.0,8.0,1.0,phase_2,stop,550.0,600.0,4.0,,,,,,,,,blue,I
0.0,5.0,1.0,1.0,6.0,0.0,0.0,8.0,1.0,phase_2,stop,600.0,600.0,4.0,,,,,,,,,cyan,flipped triangle
0.0,4.0,4.0,0.0,5.0,5.0,427.7226180001889,8.0,1.0,phase_2,go,600.0,650.0,1.0,,,,,,,,,magenta,circle
0.0,2.0,2.0,0.0,5.0,5.0,558.5478729990427,8.0,1.0,phase_2,go,600.0,650.0,1.0,,,,,,,,,green,square
0.0,5.0,1.0,1.0,6.0,0.0,0.0,8.0,1.0,phase_2,stop,600.0,650.0,4.0,,,,,,,,,cyan,flipped triangle
0.0,8.0,4.0,1.0,6.0,0.0,0.0,8.0,1.0,phase_2,stop,600.0,700.0,4.0,,,,,,,,,blue,I
0.0,1.0,1.0,0.0,6.0,6.0,484.2554719998588,8.0,1.0,phase_2,go,600.0,750.0,1.0,,,,,,,,,orange,hexagon
0.0,7.0,3.0,1.0,6.0,6.0,798.782731000756,8.0,1.0,phase_2,stop,600.0,750.0,3.0,,,,,,,,,white,triangle
0.0,4.0,4.0,0.0,5.0,5.0,483.2409810005629,8.0,1.0,phase_2,go,600.0,700.0,1.0,,,,,,,,,magenta,circle
0.0,4.0,4.0,0.0,5.0,5.0,419.3462240000372,8.0,1.0,phase_2,go,600.0,700.0,1.0,,,,,,,,,magenta,circle
0.0,6.0,2.0,1.0,5.0,0.0,0.0,8.0,1.0,phase_2,stop,600.0,700.0,4.0,,,,,,,,,gray,diamond
0.0,5.0,1.0,1.0,6.0,6.0,391.1621649986045,8.0,1.0,phase_2,stop,650.0,700.0,3.0,,,,,,,,,cyan,flipped triangle
0.0,3.0,3.0,0.0,5.0,5.0,487.0412920008675,8.0,1.0,phase_2,go,650.0,650.0,1.0,,,,,,,,,yellow,cross
0.0,7.0,3.0,1.0,5.0,5.0,977.65071700087,8.0,1.0,phase_2,go,650.0,650.0,1.0,,,,,,,,,white,triangle
0.0,3.0,3.0,0.0,6.0,6.0,520.2489769999374,8.0,1.0,phase_2,go,650.0,650.0,1.0,,,,,,,,,yellow,cross
0.0,4.0,4.0,0.0,5.0,5.0,446.0195159990689,8.0,1.0,phase_2,go,650.0,650.0,1.0,,,,,,,,,magenta,circle
0.0,6.0,2.0,1.0,5.0,0.0,0.0,8.0,1.0,phase_2,stop,650.0,650.0,4.0,,,,,,,,,gray,diamond
0.0,5.0,1.0,1.0,6.0,6.0,1016.8440359993838,8.0,1.0,phase_2,go,700.0,650.0,1.0,,,,,,,,,cyan,flipped triangle
0.0,6.0,2.0,1.0,5.0,0.0,0.0,8.0,1.0,phase_2,stop,700.0,650.0,4.0,,,,,,,,,gray,diamond
0.0,6.0,2.0,1.0,6.0,6.0,643.4843799997907,8.0,1.0,phase_2,stop,750.0,650.0,3.0,,,,,,,,,gray,diamond
0.0,1.0,1.0,0.0,6.0,6.0,485.0376260001212,8.0,1.0,phase_2,go,750.0,600.0,1.0,,,,,,,,,orange,hexagon
0.0,4.0,4.0,0.0,6.0,6.0,381.8244649992266,8.0,1.0,phase_2,go,750.0,600.0,1.0,,,,,,,,,magenta,circle
0.0,7.0,3.0,1.0,6.0,0.0,0.0,8.0,1.0,phase_2,stop,750.0,600.0,4.0,,,,,,,,,white,triangle
0.0,4.0,4.0,0.0,5.0,5.0,476.1351750003086,8.0,1.0,phase_2,go,750.0,650.0,1.0,,,,,,,,,magenta,circle
0.0,1.0,1.0,0.0,5.0,5.0,513.2517920010287,8.0,1.0,phase_2,go,750.0,650.0,1.0,,,,,,,,,orange,hexagon
0.0,2.0,2.0,0.0,5.0,5.0,512.2752990009758,8.0,1.0,phase_2,go,750.0,650.0,1.0,,,,,,,,,green,square
0.0,2.0,2.0,0.0,6.0,6.0,428.045523000037,8.0,1.0,phase_2,go,750.0,650.0,1.0,,,,,,,,,green,square
0.0,7.0,3.0,1.0,6.0,6.0,811.3730559998658,8.0,1.0,phase_2,go,750.0,650.0,1.0,,,,,,,,,white,triangle
0.0,6.0,2.0,1.0,7.0,2.0,112.5819219996628,1.0,1.0,phase_3,,,,,810.0,6.0,540.0,810.0,405.0,135.0,270.0,675.0,gray,diamond
0.0,8.0,4.0,1.0,7.0,2.0,2522.3806930007413,1.0,1.0,phase_3,,,,,192.0,1.0,576.0,192.0,768.0,1152.0,960.0,384.0,blue,I
0.0,2.0,2.0,0.0,7.0,4.0,2697.779260999596,1.0,1.0,phase_3,,,,,580.0,5.0,116.0,464.0,348.0,580.0,696.0,232.0,green,square
0.0,5.0,1.0,1.0,7.0,1.0,1898.1168350001096,1.0,1.0,phase_3,,,,,232.0,2.0,232.0,116.0,696.0,580.0,464.0,348.0,cyan,flipped triangle
0.0,1.0,1.0,0.0,7.0,5.0,4018.940719000966,1.0,1.0,phase_3,,,,,692.0,4.0,865.0,346.0,1038.0,519.0,692.0,173.0,orange,hexagon
0.0,6.0,2.0,1.0,7.0,5.0,3468.0264449998504,1.0,1.0,phase_3,,,,,308.0,2.0,616.0,154.0,924.0,462.0,308.0,770.0,gray,diamond
0.0,7.0,3.0,1.0,7.0,2.0,3508.6325270003726,1.0,1.0,phase_3,,,,,308.0,2.0,924.0,308.0,154.0,462.0,616.0,770.0,white,triangle
0.0,1.0,1.0,0.0,7.0,4.0,3560.2312610008084,1.0,1.0,phase_3,,,,,675.0,5.0,405.0,135.0,270.0,675.0,810.0,540.0,orange,hexagon
0.0,8.0,4.0,1.0,7.0,3.0,4989.583527998548,1.0,1.0,phase_3,,,,,154.0,1.0,770.0,616.0,154.0,462.0,308.0,924.0,blue,I
0.0,1.0,1.0,0.0,7.0,6.0,2545.5899729986413,1.0,1.0,phase_3,,,,,696.0,6.0,580.0,464.0,348.0,232.0,116.0,696.0,orange,hexagon
0.0,3.0,3.0,0.0,7.0,5.0,4442.263134998939,1.0,1.0,phase_3,,,,,519.0,3.0,346.0,173.0,865.0,1038.0,519.0,692.0,yellow,cross
0.0,3.0,3.0,0.0,7.0,3.0,950.4802820010808,1.0,2.0,phase_3,,,,,462.0,3.0,770.0,154.0,462.0,924.0,308.0,616.0,yellow,cross
0.0,3.0,3.0,0.0,7.0,1.0,1835.770947000128,1.0,1.0,phase_3,,,,,576.0,3.0,576.0,960.0,1152.0,768.0,384.0,192.0,yellow,cross
0.0,4.0,4.0,0.0,7.0,5.0,1460.571997999068,1.0,1.0,phase_3,,,,,960.0,5.0,192.0,1152.0,576.0,768.0,960.0,384.0,magenta,circle
0.0,4.0,4.0,0.0,7.0,3.0,2382.200894999187,1.0,1.0,phase_3,,,,,696.0,6.0,232.0,348.0,696.0,464.0,580.0,116.0,magenta,circle
0.0,2.0,2.0,0.0,7.0,2.0,1879.408295999383,1.0,1.0,phase_3,,,,,580.0,5.0,116.0,580.0,232.0,348.0,696.0,464.0,green,square
0.0,6.0,2.0,1.0,7.0,4.0,1882.3671549998835,1.0,1.0,phase_3,,,,,384.0,2.0,576.0,1152.0,768.0,384.0,192.0,960.0,gray,diamond
0.0,1.0,1.0,0.0,7.0,4.0,2137.42467100019,1.0,1.0,phase_3,,,,,696.0,6.0,464.0,116.0,232.0,696.0,580.0,348.0,orange,hexagon
0.0,6.0,2.0,1.0,7.0,6.0,1856.57016299956,1.0,1.0,phase_3,,,,,519.0,3.0,865.0,346.0,1038.0,692.0,173.0,519.0,gray,diamond
0.0,2.0,2.0,0.0,7.0,3.0,1421.640460001072,1.0,1.0,phase_3,,,,,616.0,4.0,308.0,770.0,616.0,154.0,924.0,462.0,green,square
0.0,2.0,2.0,0.0,7.0,4.0,1063.3980740003608,2.0,1.0,phase_3,,,,,405.0,3.0,810.0,270.0,540.0,405.0,135.0,675.0,green,square
0.0,4.0,4.0,0.0,7.0,1.0,1037.6366809996398,2.0,1.0,phase_3,,,,,1152.0,6.0,1152.0,768.0,384.0,576.0,192.0,960.0,magenta,circle
0.0,1.0,1.0,0.0,7.0,3.0,1256.4123820011446,2.0,1.0,phase_3,,,,,960.0,5.0,384.0,1152.0,960.0,576.0,768.0,192.0,orange,hexagon
0.0,6.0,2.0,1.0,7.0,5.0,1167.263469000318,2.0,1.0,phase_3,,,,,346.0,2.0,865.0,692.0,173.0,519.0,346.0,1038.0,gray,diamond
0.0,3.0,3.0,0.0,7.0,3.0,1535.414456999206,2.0,1.0,phase_3,,,,,692.0,4.0,1038.0,865.0,692.0,346.0,173.0,519.0,yellow,cross
0.0,7.0,3.0,1.0,7.0,2.0,2345.4968560017733,2.0,1.0,phase_3,,,,,270.0,2.0,405.0,270.0,810.0,135.0,540.0,675.0,white,triangle
0.0,2.0,2.0,0.0,7.0,3.0,2245.5955679997714,2.0,1.0,phase_3,,,,,865.0,5.0,519.0,692.0,865.0,346.0,173.0,1038.0,green,square
0.0,8.0,4.0,1.0,7.0,6.0,3340.4670629988686,2.0,1.0,phase_3,,,,,173.0,1.0,519.0,1038.0,692.0,865.0,346.0,173.0,blue,I
0.0,5.0,1.0,1.0,7.0,5.0,1605.8315119989857,2.0,1.0,phase_3,,,,,308.0,2.0,154.0,462.0,616.0,924.0,308.0,770.0,cyan,flipped triangle
0.0,5.0,1.0,1.0,7.0,4.0,3084.2142599994986,2.0,1.0,phase_3,,,,,616.0,4.0,308.0,924.0,154.0,616.0,770.0,462.0,cyan,flipped triangle
0.0,1.0,1.0,0.0,7.0,2.0,1761.0955390009622,2.0,1.0,phase_3,,,,,865.0,5.0,1038.0,865.0,346.0,519.0,173.0,692.0,orange,hexagon
0.0,8.0,4.0,1.0,7.0,3.0,1820.4813890006333,2.0,1.0,phase_3,,,,,464.0,4.0,696.0,580.0,464.0,116.0,232.0,348.0,blue,I
0.0,3.0,3.0,0.0,7.0,6.0,2753.257886999563,2.0,1.0,phase_3,,,,,348.0,3.0,464.0,696.0,580.0,232.0,116.0,348.0,yellow,cross
0.0,2.0,2.0,0.0,7.0,4.0,2314.217139999528,2.0,1.0,phase_3,,,,,692.0,4.0,865.0,1038.0,346.0,692.0,173.0,519.0,green,square
0.0,2.0,2.0,0.0,7.0,4.0,2047.907975000271,2.0,1.0,phase_3,,,,,770.0,5.0,308.0,154.0,462.0,770.0,924.0,616.0,green,square
0.0,6.0,2.0,1.0,7.0,3.0,2070.3731649991823,2.0,1.0,phase_3,,,,,462.0,3.0,616.0,770.0,462.0,308.0,154.0,924.0,gray,diamond
0.0,7.0,3.0,1.0,7.0,4.0,2633.308106000186,2.0,1.0,phase_3,,,,,348.0,3.0,580.0,232.0,696.0,348.0,116.0,464.0,white,triangle
0.0,7.0,3.0,1.0,7.0,6.0,2695.698682000512,2.0,1.0,phase_3,,,,,348.0,3.0,464.0,696.0,232.0,580.0,116.0,348.0,white,triangle
0.0,8.0,4.0,1.0,7.0,4.0,2540.6931940015056,2.0,1.0,phase_3,,,,,270.0,2.0,540.0,405.0,675.0,270.0,810.0,135.0,blue,I
0.0,7.0,3.0,1.0,7.0,1.0,2292.5630639983865,2.0,1.0,phase_3,,,,,692.0,4.0,692.0,519.0,1038.0,173.0,346.0,865.0,white,triangle
0.0,6.0,2.0,1.0,7.0,2.0,2461.584046999633,3.0,1.0,phase_3,,,,,675.0,5.0,810.0,675.0,135.0,540.0,405.0,270.0,gray,diamond
0.0,4.0,4.0,0.0,7.0,1.0,1286.2749920004717,3.0,1.0,phase_3,,,,,810.0,6.0,810.0,135.0,540.0,270.0,405.0,675.0,magenta,circle
0.0,3.0,3.0,0.0,7.0,3.0,1960.2181630016275,3.0,1.0,phase_3,,,,,464.0,4.0,116.0,580.0,464.0,696.0,232.0,348.0,yellow,cross
0.0,4.0,4.0,0.0,7.0,5.0,2062.431301001197,3.0,1.0,phase_3,,,,,770.0,5.0,924.0,154.0,308.0,616.0,770.0,462.0,magenta,circle
0.0,6.0,2.0,1.0,7.0,3.0,1591.3638090005406,3.0,1.0,phase_3,,,,,464.0,4.0,116.0,696.0,464.0,348.0,580.0,232.0,gray,diamond
0.0,5.0,1.0,1.0,7.0,3.0,2911.526613001115,3.0,1.0,phase_3,,,,,270.0,2.0,810.0,135.0,270.0,405.0,675.0,540.0,cyan,flipped triangle
0.0,2.0,2.0,0.0,7.0,4.0,1176.4032279988896,3.0,1.0,phase_3,,,,,960.0,5.0,576.0,384.0,192.0,960.0,1152.0,768.0,green,square
0.0,2.0,2.0,0.0,7.0,3.0,1637.1652809993975,3.0,1.0,phase_3,,,,,768.0,4.0,1152.0,192.0,768.0,384.0,576.0,960.0,green,square
0.0,8.0,4.0,1.0,7.0,5.0,2767.739569999321,3.0,1.0,phase_3,,,,,308.0,2.0,770.0,154.0,616.0,462.0,308.0,924.0,blue,I
0.0,1.0,1.0,0.0,7.0,4.0,1898.0710249998085,3.0,1.0,phase_3,,,,,770.0,5.0,154.0,462.0,616.0,770.0,308.0,924.0,orange,hexagon
0.0,8.0,4.0,1.0,7.0,5.0,1758.6045850002847,3.0,1.0,phase_3,,,,,384.0,2.0,768.0,960.0,192.0,1152.0,384.0,576.0,blue,I
0.0,1.0,1.0,0.0,7.0,1.0,2172.652189001383,3.0,1.0,phase_3,,,,,675.0,5.0,675.0,540.0,270.0,810.0,135.0,405.0,orange,hexagon
0.0,4.0,4.0,0.0,7.0,1.0,1794.7655799998756,3.0,1.0,phase_3,,,,,519.0,3.0,519.0,1038.0,865.0,346.0,692.0,173.0,magenta,circle
0.0,7.0,3.0,1.0,7.0,6.0,936.8029489996844,3.0,1.0,phase_3,,,,,462.0,3.0,616.0,770.0,308.0,924.0,154.0,462.0,white,triangle
0.0,3.0,3.0,0.0,7.0,2.0,1877.766140998574,3.0,1.0,phase_3,,,,,810.0,6.0,135.0,810.0,270.0,675.0,540.0,405.0,yellow,cross
0.0,1.0,1.0,0.0,7.0,5.0,2215.4408660007903,3.0,1.0,phase_3,,,,,616.0,4.0,154.0,770.0,462.0,924.0,616.0,308.0,orange,hexagon
0.0,7.0,3.0,1.0,7.0,3.0,3208.4437370012893,3.0,1.0,phase_3,,,,,576.0,3.0,768.0,1152.0,576.0,960.0,192.0,384.0,white,triangle
0.0,6.0,2.0,1.0,7.0,2.0,2706.9519570013654,3.0,1.0,phase_3,,,,,348.0,3.0,580.0,348.0,464.0,232.0,116.0,696.0,gray,diamond
0.0,7.0,3.0,1.0,7.0,4.0,2167.477376999159,3.0,1.0,phase_3,,,,,270.0,2.0,135.0,540.0,675.0,270.0,405.0,810.0,white,triangle
0.0,4.0,4.0,0.0,7.0,5.0,1891.0384619994147,3.0,1.0,phase_3,,,,,696.0,6.0,232.0,348.0,116.0,464.0,696.0,580.0,magenta,circle
0.0,5.0,1.0,1.0,7.0,2.0,889.256969001508,4.0,1.0,phase_3,,,,,865.0,5.0,1038.0,865.0,346.0,519.0,692.0,173.0,cyan,flipped triangle
0.0,8.0,4.0,1.0,7.0,5.0,2198.747219001234,4.0,1.0,phase_3,,,,,346.0,2.0,173.0,519.0,865.0,692.0,346.0,1038.0,blue,I
0.0,4.0,4.0,0.0,7.0,1.0,1111.1438570005705,4.0,1.0,phase_3,,,,,1038.0,6.0,1038.0,865.0,519.0,173.0,346.0,692.0,magenta,circle
0.0,2.0,2.0,0.0,7.0,2.0,1407.2898310005255,4.0,1.0,phase_3,,,,,405.0,3.0,810.0,405.0,270.0,135.0,675.0,540.0,green,square
0.0,6.0,2.0,1.0,7.0,4.0,1903.0818619994532,4.0,1.0,phase_3,,,,,384.0,2.0,576.0,192.0,768.0,384.0,1152.0,960.0,gray,diamond
0.0,3.0,3.0,0.0,7.0,1.0,2148.365809000097,4.0,1.0,phase_3,,,,,675.0,5.0,675.0,135.0,810.0,270.0,405.0,540.0,yellow,cross
0.0,3.0,3.0,0.0,7.0,1.0,2002.333817001272,4.0,1.0,phase_3,,,,,462.0,3.0,462.0,308.0,770.0,154.0,616.0,924.0,yellow,cross
0.0,5.0,1.0,1.0,7.0,6.0,1674.746963999496,4.0,1.0,phase_3,,,,,405.0,3.0,540.0,270.0,810.0,135.0,675.0,405.0,cyan,flipped triangle
0.0,8.0,4.0,1.0,7.0,6.0,2143.369019000602,4.0,1.0,phase_3,,,,,270.0,2.0,810.0,135.0,675.0,540.0,405.0,270.0,blue,I
0.0,5.0,1.0,1.0,7.0,1.0,2630.616233998808,4.0,1.0,phase_3,,,,,346.0,2.0,346.0,173.0,865.0,692.0,1038.0,519.0,cyan,flipped triangle
0.0,7.0,3.0,1.0,7.0,5.0,3315.594820000115,4.0,1.0,phase_3,,,,,519.0,3.0,692.0,346.0,865.0,173.0,519.0,1038.0,white,triangle
0.0,7.0,3.0,1.0,7.0,1.0,1525.8876779989805,4.0,1.0,phase_3,,,,,384.0,2.0,384.0,768.0,1152.0,576.0,960.0,192.0,white,triangle
0.0,5.0,1.0,1.0,7.0,3.0,1782.1685210001306,4.0,1.0,phase_3,,,,,768.0,4.0,1152.0,576.0,768.0,960.0,192.0,384.0,cyan,flipped triangle
0.0,8.0,4.0,1.0,7.0,2.0,1488.6761170000682,4.0,1.0,phase_3,,,,,348.0,3.0,464.0,348.0,116.0,232.0,696.0,580.0,blue,I
0.0,4.0,4.0,0.0,7.0,6.0,2200.956632999805,4.0,1.0,phase_3,,,,,770.0,5.0,154.0,462.0,308.0,924.0,616.0,770.0,magenta,circle
0.0,5.0,1.0,1.0,7.0,4.0,2254.167982000581,4.0,1.0,phase_3,,,,,348.0,3.0,580.0,464.0,116.0,348.0,232.0,696.0,cyan,flipped triangle
0.0,4.0,4.0,0.0,7.0,6.0,1976.1311860002024,4.0,1.0,phase_3,,,,,810.0,6.0,270.0,540.0,675.0,135.0,405.0,810.0,magenta,circle
0.0,5.0,1.0,1.0,7.0,1.0,2238.5291720001987,4.0,1.0,phase_3,,,,,384.0,2.0,384.0,576.0,1152.0,768.0,960.0,192.0,cyan,flipped triangle
0.0,3.0,3.0,0.0,7.0,5.0,2755.230015000052,4.0,1.0,phase_3,,,,,960.0,5.0,192.0,768.0,384.0,576.0,960.0,1152.0,yellow,cross
0.0,1.0,1.0,0.0,7.0,2.0,2422.0754879988817,4.0,1.0,phase_3,,,,,384.0,2.0,1152.0,384.0,768.0,192.0,576.0,960.0,orange,hexagon
