raw_reward_magnitude,stim_reward,stepwise_reward_magnitude,paired_with_stopping,quadrant,response,reaction_time,block,num_trial_presentations,which_part,stop_signal_trial_type,left_SSD,right_SSD,accuracy,chosen_bidding_amount,chosen_bidding_level,possible_bid_1,possible_bid_2,possible_bid_3,possible_bid_4,possible_bid_5,possible_bid_6,color_text,shape_text
1294.0,4.0,4.0,0.0,1.0,1.0,529.5208289999209,1.0,1.0,part_1,,,,,,,,,,,,,white,hexagon
339.0,2.0,2.0,0.0,3.0,3.0,363.8014319999456,1.0,1.0,part_1,,,,,,,,,,,,,orange,triangle
0.0,3.0,0.0,0.0,2.0,2.0,362.348220000058,1.0,1.0,part_1,,,,,,,,,,,,,green,diamond
1322.0,4.0,4.0,0.0,1.0,1.0,475.0435429996287,1.0,1.0,part_1,,,,,,,,,,,,,white,hexagon
658.0,7.0,3.0,1.0,4.0,4.0,466.534571000011,1.0,1.0,part_1,,,,,,,,,,,,,magenta,cross
181.0,5.0,1.0,1.0,1.0,1.0,473.8162160001593,1.0,1.0,part_1,,,,,,,,,,,,,blue,circle
635.0,3.0,3.0,0.0,3.0,3.0,291.001789999882,1.0,1.0,part_1,,,,,,,,,,,,,green,diamond
663.0,3.0,3.0,0.0,4.0,4.0,301.5208260003419,1.0,1.0,part_1,,,,,,,,,,,,,green,diamond
642.0,7.0,3.0,1.0,1.0,1.0,317.173602999901,1.0,1.0,part_1,,,,,,,,,,,,,magenta,cross
1298.0,8.0,4.0,1.0,2.0,2.0,502.49970300001223,1.0,1.0,part_1,,,,,,,,,,,,,cyan,flipped triangle
143.0,5.0,1.0,1.0,3.0,3.0,334.5975140000519,1.0,1.0,part_1,,,,,,,,,,,,,blue,circle
1280.0,8.0,4.0,1.0,4.0,4.0,403.3134860001155,1.0,1.0,part_1,,,,,,,,,,,,,cyan,flipped triangle
642.0,7.0,3.0,1.0,1.0,1.0,418.1228669999655,1.0,2.0,part_1,,,,,,,,,,,,,magenta,cross
327.0,2.0,2.0,0.0,3.0,3.0,493.5411900000872,1.0,1.0,part_1,,,,,,,,,,,,,orange,triangle
153.0,1.0,1.0,0.0,4.0,4.0,437.3526560002574,1.0,1.0,part_1,,,,,,,,,,,,,yellow,square
337.0,6.0,2.0,1.0,1.0,1.0,512.2757009999077,1.0,1.0,part_1,,,,,,,,,,,,,gray,I
336.0,2.0,2.0,0.0,4.0,4.0,418.2194459999664,1.0,1.0,part_1,,,,,,,,,,,,,orange,triangle
183.0,1.0,1.0,0.0,3.0,3.0,343.3015880000312,1.0,1.0,part_1,,,,,,,,,,,,,yellow,square
1320.0,8.0,4.0,1.0,1.0,1.0,317.4884220002241,1.0,1.0,part_1,,,,,,,,,,,,,cyan,flipped triangle
329.0,6.0,2.0,1.0,2.0,2.0,576.930037999773,1.0,1.0,part_1,,,,,,,,,,,,,gray,I
167.0,5.0,1.0,1.0,4.0,4.0,409.8317949997181,1.0,1.0,part_1,,,,,,,,,,,,,blue,circle
341.0,2.0,2.0,0.0,4.0,4.0,333.7898449999557,1.0,1.0,part_1,,,,,,,,,,,,,orange,triangle
0.0,8.0,0.0,1.0,2.0,2.0,436.3842010002372,1.0,1.0,part_1,,,,,,,,,,,,,cyan,flipped triangle
1285.0,4.0,4.0,0.0,4.0,4.0,336.1914230004004,1.0,1.0,part_1,,,,,,,,,,,,,white,hexagon
1311.0,8.0,4.0,1.0,3.0,3.0,436.3779820000673,1.0,1.0,part_1,,,,,,,,,,,,,cyan,flipped triangle
631.0,7.0,3.0,1.0,3.0,3.0,409.7953730001791,1.0,1.0,part_1,,,,,,,,,,,,,magenta,cross
670.0,3.0,3.0,0.0,1.0,1.0,437.7639710000949,1.0,1.0,part_1,,,,,,,,,,,,,green,diamond
0.0,6.0,0.0,1.0,4.0,4.0,357.2341359999882,1.0,1.0,part_1,,,,,,,,,,,,,gray,I
653.0,3.0,3.0,0.0,4.0,4.0,372.8942829998232,1.0,1.0,part_1,,,,,,,,,,,,,green,diamond
1307.0,4.0,4.0,0.0,3.0,3.0,371.7093790000945,1.0,1.0,part_1,,,,,,,,,,,,,white,hexagon
0.0,2.0,0.0,0.0,4.0,4.0,384.1717069999504,1.0,1.0,part_1,,,,,,,,,,,,,orange,triangle
325.0,2.0,2.0,0.0,4.0,4.0,353.3848950000902,1.0,1.0,part_1,,,,,,,,,,,,,orange,triangle
146.0,1.0,1.0,0.0,3.0,3.0,390.1289730001736,1.0,1.0,part_1,,,,,,,,,,,,,yellow,square
0.0,8.0,0.0,1.0,2.0,2.0,391.4768499998899,1.0,1.0,part_1,,,,,,,,,,,,,cyan,flipped triangle
165.0,5.0,1.0,1.0,2.0,2.0,380.1304439998603,1.0,1.0,part_1,,,,,,,,,,,,,blue,circle
319.0,2.0,2.0,0.0,2.0,2.0,438.9377600000443,1.0,1.0,part_1,,,,,,,,,,,,,orange,triangle
0.0,7.0,0.0,1.0,1.0,1.0,448.3288470000843,1.0,1.0,part_1,,,,,,,,,,,,,magenta,cross
0.0,2.0,0.0,0.0,1.0,1.0,503.26424000013503,1.0,1.0,part_1,,,,,,,,,,,,,orange,triangle
142.0,5.0,1.0,1.0,3.0,3.0,374.8346469997159,1.0,1.0,part_1,,,,,,,,,,,,,blue,circle
1313.0,4.0,4.0,0.0,1.0,1.0,459.0570440000192,1.0,2.0,part_1,,,,,,,,,,,,,white,hexagon
164.0,5.0,1.0,1.0,2.0,2.0,370.7120210001449,1.0,1.0,part_1,,,,,,,,,,,,,blue,circle
667.0,7.0,3.0,1.0,3.0,3.0,418.7702539998099,1.0,1.0,part_1,,,,,,,,,,,,,magenta,cross
1323.0,4.0,4.0,0.0,2.0,2.0,447.2106349999194,1.0,1.0,part_1,,,,,,,,,,,,,white,hexagon
151.0,1.0,1.0,0.0,2.0,2.0,484.6516270004031,1.0,1.0,part_1,,,,,,,,,,,,,yellow,square
305.0,6.0,2.0,1.0,4.0,4.0,427.719910000178,1.0,1.0,part_1,,,,,,,,,,,,,gray,I
0.0,7.0,0.0,1.0,2.0,2.0,353.6165840000649,1.0,1.0,part_1,,,,,,,,,,,,,magenta,cross
1323.0,4.0,4.0,0.0,2.0,2.0,363.7353620001704,1.0,1.0,part_1,,,,,,,,,,,,,white,hexagon
0.0,8.0,0.0,1.0,1.0,1.0,409.8120119997475,1.0,1.0,part_1,,,,,,,,,,,,,cyan,flipped triangle
151.0,5.0,1.0,1.0,4.0,4.0,401.0072890000629,1.0,1.0,part_1,,,,,,,,,,,,,blue,circle
1307.0,4.0,4.0,0.0,4.0,4.0,381.9716990001325,1.0,1.0,part_1,,,,,,,,,,,,,white,hexagon
0.0,2.0,0.0,0.0,3.0,3.0,437.1501420000641,1.0,1.0,part_1,,,,,,,,,,,,,orange,triangle
640.0,7.0,3.0,1.0,3.0,3.0,336.2313010002253,1.0,1.0,part_1,,,,,,,,,,,,,magenta,cross
318.0,6.0,2.0,1.0,2.0,2.0,495.0486689999707,1.0,1.0,part_1,,,,,,,,,,,,,gray,I
303.0,6.0,2.0,1.0,2.0,2.0,393.1349270001192,1.0,1.0,part_1,,,,,,,,,,,,,gray,I
1311.0,4.0,4.0,0.0,4.0,4.0,428.6105959999986,1.0,1.0,part_1,,,,,,,,,,,,,white,hexagon
0.0,6.0,0.0,1.0,2.0,2.0,476.7385190002642,1.0,1.0,part_1,,,,,,,,,,,,,gray,I
645.0,7.0,3.0,1.0,1.0,1.0,447.2825909997482,1.0,1.0,part_1,,,,,,,,,,,,,magenta,cross
671.0,3.0,3.0,0.0,2.0,2.0,418.0091690000154,1.0,1.0,part_1,,,,,,,,,,,,,green,diamond
0.0,3.0,0.0,0.0,4.0,4.0,383.0826159996832,1.0,1.0,part_1,,,,,,,,,,,,,green,diamond
143.0,1.0,1.0,0.0,1.0,1.0,485.328662000029,1.0,1.0,part_1,,,,,,,,,,,,,yellow,square
0.0,5.0,0.0,1.0,1.0,1.0,484.0647999999419,1.0,1.0,part_1,,,,,,,,,,,,,blue,circle
149.0,5.0,1.0,1.0,4.0,4.0,363.6044710001442,1.0,1.0,part_1,,,,,,,,,,,,,blue,circle
672.0,3.0,3.0,0.0,3.0,3.0,456.8032919996767,1.0,1.0,part_1,,,,,,,,,,,,,green,diamond
186.0,5.0,1.0,1.0,3.0,3.0,429.1402580001886,1.0,1.0,part_1,,,,,,,,,,,,,blue,circle
1304.0,8.0,4.0,1.0,1.0,1.0,522.2335529997508,1.0,1.0,part_1,,,,,,,,,,,,,cyan,flipped triangle
0.0,3.0,0.0,0.0,3.0,3.0,438.7211879998176,1.0,1.0,part_1,,,,,,,,,,,,,green,diamond
143.0,5.0,1.0,1.0,4.0,4.0,373.7567340003807,1.0,1.0,part_1,,,,,,,,,,,,,blue,circle
0.0,7.0,0.0,1.0,4.0,4.0,410.4402870002559,1.0,1.0,part_1,,,,,,,,,,,,,magenta,cross
1285.0,4.0,4.0,0.0,3.0,3.0,373.2124020002629,1.0,1.0,part_1,,,,,,,,,,,,,white,hexagon
631.0,3.0,3.0,0.0,4.0,4.0,327.258577000066,1.0,1.0,part_1,,,,,,,,,,,,,green,diamond
140.0,5.0,1.0,1.0,2.0,2.0,418.2167730000401,1.0,2.0,part_1,,,,,,,,,,,,,blue,circle
1288.0,8.0,4.0,1.0,2.0,2.0,400.2839800000402,1.0,1.0,part_1,,,,,,,,,,,,,cyan,flipped triangle
339.0,6.0,2.0,1.0,1.0,1.0,494.5622139998704,1.0,1.0,part_1,,,,,,,,,,,,,gray,I
156.0,1.0,1.0,0.0,2.0,2.0,354.2548559998977,1.0,1.0,part_1,,,,,,,,,,,,,yellow,square
173.0,1.0,1.0,0.0,3.0,3.0,372.4605130000782,1.0,1.0,part_1,,,,,,,,,,,,,yellow,square
0.0,1.0,0.0,0.0,4.0,4.0,390.6277780001801,1.0,1.0,part_1,,,,,,,,,,,,,yellow,square
670.0,3.0,3.0,0.0,1.0,1.0,482.1839350001937,1.0,1.0,part_1,,,,,,,,,,,,,green,diamond
164.0,1.0,1.0,0.0,3.0,3.0,430.207500999586,1.0,1.0,part_1,,,,,,,,,,,,,yellow,square
0.0,4.0,0.0,0.0,2.0,2.0,465.0025890000506,1.0,1.0,part_1,,,,,,,,,,,,,white,hexagon
1302.0,8.0,4.0,1.0,3.0,3.0,456.1073390000274,1.0,1.0,part_1,,,,,,,,,,,,,cyan,flipped triangle
309.0,6.0,2.0,1.0,4.0,4.0,419.2098889998306,1.0,1.0,part_1,,,,,,,,,,,,,gray,I
306.0,6.0,2.0,1.0,2.0,2.0,511.9534420000491,1.0,1.0,part_1,,,,,,,,,,,,,gray,I
315.0,2.0,2.0,0.0,1.0,1.0,596.475265999743,1.0,1.0,part_1,,,,,,,,,,,,,orange,triangle
0.0,5.0,0.0,1.0,1.0,1.0,475.266516999909,1.0,1.0,part_1,,,,,,,,,,,,,blue,circle
186.0,5.0,1.0,1.0,1.0,1.0,419.5379140001023,1.0,1.0,part_1,,,,,,,,,,,,,blue,circle
143.0,1.0,1.0,0.0,1.0,1.0,391.1511309997877,1.0,1.0,part_1,,,,,,,,,,,,,yellow,square
179.0,1.0,1.0,0.0,4.0,4.0,392.7703769995787,1.0,1.0,part_1,,,,,,,,,,,,,yellow,square
648.0,7.0,3.0,1.0,3.0,3.0,513.220930999978,1.0,1.0,part_1,,,,,,,,,,,,,magenta,cross
327.0,6.0,2.0,1.0,3.0,3.0,521.6630780000742,1.0,1.0,part_1,,,,,,,,,,,,,gray,I
173.0,5.0,1.0,1.0,2.0,2.0,578.2452260000355,1.0,1.0,part_1,,,,,,,,,,,,,blue,circle
1323.0,8.0,4.0,1.0,1.0,1.0,503.1757110000399,1.0,1.0,part_1,,,,,,,,,,,,,cyan,flipped triangle
1288.0,4.0,4.0,0.0,2.0,2.0,577.3500830000557,1.0,1.0,part_1,,,,,,,,,,,,,white,hexagon
1285.0,8.0,4.0,1.0,2.0,2.0,458.2357059998685,1.0,1.0,part_1,,,,,,,,,,,,,cyan,flipped triangle
1324.0,4.0,4.0,0.0,2.0,2.0,447.2511300000406,1.0,1.0,part_1,,,,,,,,,,,,,white,hexagon
322.0,2.0,2.0,0.0,2.0,2.0,520.467022000048,1.0,1.0,part_1,,,,,,,,,,,,,orange,triangle
674.0,3.0,3.0,0.0,4.0,4.0,456.2037269997745,1.0,2.0,part_1,,,,,,,,,,,,,green,diamond
667.0,7.0,3.0,1.0,2.0,2.0,485.6241289999161,1.0,1.0,part_1,,,,,,,,,,,,,magenta,cross
660.0,7.0,3.0,1.0,4.0,4.0,520.4189149999365,1.0,1.0,part_1,,,,,,,,,,,,,magenta,cross
0.0,6.0,0.0,1.0,1.0,1.0,717.3523599999498,1.0,1.0,part_1,,,,,,,,,,,,,gray,I
1279.0,4.0,4.0,0.0,3.0,3.0,392.7560050001375,1.0,1.0,part_1,,,,,,,,,,,,,white,hexagon
0.0,4.0,0.0,0.0,1.0,1.0,587.9893689998426,2.0,1.0,part_1,,,,,,,,,,,,,white,hexagon
0.0,1.0,0.0,0.0,2.0,2.0,383.2431689997975,2.0,1.0,part_1,,,,,,,,,,,,,yellow,square
1323.0,4.0,4.0,0.0,4.0,4.0,400.7947049999529,2.0,1.0,part_1,,,,,,,,,,,,,white,hexagon
665.0,7.0,3.0,1.0,2.0,2.0,384.6325970002908,2.0,1.0,part_1,,,,,,,,,,,,,magenta,cross
174.0,1.0,1.0,0.0,4.0,4.0,345.444273999874,2.0,1.0,part_1,,,,,,,,,,,,,yellow,square
662.0,3.0,3.0,0.0,4.0,4.0,391.8120209996232,2.0,1.0,part_1,,,,,,,,,,,,,green,diamond
1307.0,8.0,4.0,1.0,3.0,3.0,326.3807400003315,2.0,1.0,part_1,,,,,,,,,,,,,cyan,flipped triangle
156.0,5.0,1.0,1.0,3.0,3.0,400.6674550000753,2.0,1.0,part_1,,,,,,,,,,,,,blue,circle
342.0,6.0,2.0,1.0,1.0,1.0,427.9612020000058,2.0,1.0,part_1,,,,,,,,,,,,,gray,I
348.0,2.0,2.0,0.0,2.0,2.0,466.0500840000168,2.0,1.0,part_1,,,,,,,,,,,,,orange,triangle
0.0,1.0,0.0,0.0,3.0,3.0,337.379239999791,2.0,1.0,part_1,,,,,,,,,,,,,yellow,square
305.0,2.0,2.0,0.0,4.0,4.0,298.3669150003152,2.0,1.0,part_1,,,,,,,,,,,,,orange,triangle
631.0,3.0,3.0,0.0,2.0,2.0,437.6500690000284,2.0,1.0,part_1,,,,,,,,,,,,,green,diamond
177.0,1.0,1.0,0.0,4.0,4.0,458.0506910001531,2.0,1.0,part_1,,,,,,,,,,,,,yellow,square
1289.0,4.0,4.0,0.0,4.0,4.0,374.0616320001209,2.0,1.0,part_1,,,,,,,,,,,,,white,hexagon
651.0,7.0,3.0,1.0,2.0,2.0,492.9326279998349,2.0,1.0,part_1,,,,,,,,,,,,,magenta,cross
167.0,1.0,1.0,0.0,3.0,3.0,373.6794890000965,2.0,1.0,part_1,,,,,,,,,,,,,yellow,square
0.0,5.0,0.0,1.0,3.0,3.0,393.303867999748,2.0,1.0,part_1,,,,,,,,,,,,,blue,circle
0.0,3.0,0.0,0.0,4.0,4.0,319.2145620000701,2.0,1.0,part_1,,,,,,,,,,,,,green,diamond
147.0,1.0,1.0,0.0,1.0,1.0,373.3710080000492,2.0,1.0,part_1,,,,,,,,,,,,,yellow,square
1319.0,4.0,4.0,0.0,2.0,2.0,401.2937230004354,2.0,1.0,part_1,,,,,,,,,,,,,white,hexagon
635.0,3.0,3.0,0.0,4.0,4.0,326.2159639998572,2.0,1.0,part_1,,,,,,,,,,,,,green,diamond
0.0,6.0,0.0,1.0,2.0,2.0,474.3416319997777,2.0,1.0,part_1,,,,,,,,,,,,,gray,I
1288.0,8.0,4.0,1.0,3.0,3.0,428.0420850000155,2.0,1.0,part_1,,,,,,,,,,,,,cyan,flipped triangle
315.0,6.0,2.0,1.0,3.0,3.0,437.6573879999341,2.0,1.0,part_1,,,,,,,,,,,,,gray,I
0.0,4.0,0.0,0.0,4.0,4.0,335.4109429997152,2.0,1.0,part_1,,,,,,,,,,,,,white,hexagon
652.0,7.0,3.0,1.0,1.0,1.0,428.4305880000829,2.0,1.0,part_1,,,,,,,,,,,,,magenta,cross
642.0,3.0,3.0,0.0,3.0,3.0,440.6739040000502,2.0,1.0,part_1,,,,,,,,,,,,,green,diamond
0.0,2.0,0.0,0.0,3.0,3.0,391.0676999998941,2.0,1.0,part_1,,,,,,,,,,,,,orange,triangle
0.0,5.0,0.0,1.0,4.0,4.0,344.817520000106,2.0,1.0,part_1,,,,,,,,,,,,,blue,circle
341.0,6.0,2.0,1.0,2.0,2.0,401.2493939999331,2.0,1.0,part_1,,,,,,,,,,,,,gray,I
1278.0,4.0,4.0,0.0,3.0,3.0,373.3706699999857,2.0,1.0,part_1,,,,,,,,,,,,,white,hexagon
349.0,2.0,2.0,0.0,2.0,2.0,465.6158719999439,2.0,1.0,part_1,,,,,,,,,,,,,orange,triangle
0.0,5.0,0.0,1.0,4.0,4.0,325.9767119998287,2.0,1.0,part_1,,,,,,,,,,,,,blue,circle
0.0,1.0,0.0,0.0,4.0,4.0,409.5433600000433,2.0,1.0,part_1,,,,,,,,,,,,,yellow,square
1276.0,8.0,4.0,1.0,1.0,1.0,520.7643690000623,2.0,1.0,part_1,,,,,,,,,,,,,cyan,flipped triangle
151.0,1.0,1.0,0.0,4.0,4.0,362.9211950001263,2.0,1.0,part_1,,,,,,,,,,,,,yellow,square
300.0,6.0,2.0,1.0,3.0,3.0,383.6908500002209,2.0,1.0,part_1,,,,,,,,,,,,,gray,I
656.0,3.0,3.0,0.0,2.0,2.0,438.9192810003806,2.0,1.0,part_1,,,,,,,,,,,,,green,diamond
0.0,4.0,0.0,0.0,1.0,1.0,457.5614989998939,2.0,1.0,part_1,,,,,,,,,,,,,white,hexagon
346.0,2.0,2.0,0.0,2.0,2.0,420.7477549998657,2.0,1.0,part_1,,,,,,,,,,,,,orange,triangle
635.0,7.0,3.0,1.0,3.0,3.0,409.1880710002442,2.0,1.0,part_1,,,,,,,,,,,,,magenta,cross
313.0,2.0,2.0,0.0,2.0,2.0,438.3671199998389,2.0,1.0,part_1,,,,,,,,,,,,,orange,triangle
648.0,3.0,3.0,0.0,3.0,3.0,345.2629389998947,2.0,1.0,part_1,,,,,,,,,,,,,green,diamond
1286.0,8.0,4.0,1.0,2.0,2.0,391.7315810003856,2.0,1.0,part_1,,,,,,,,,,,,,cyan,flipped triangle
165.0,1.0,1.0,0.0,4.0,4.0,410.8480889999555,2.0,1.0,part_1,,,,,,,,,,,,,yellow,square
322.0,6.0,2.0,1.0,1.0,1.0,523.6848810000083,2.0,1.0,part_1,,,,,,,,,,,,,gray,I
0.0,4.0,0.0,0.0,2.0,2.0,409.9275249996026,2.0,1.0,part_1,,,,,,,,,,,,,white,hexagon
149.0,1.0,1.0,0.0,4.0,4.0,325.64214700005317,2.0,1.0,part_1,,,,,,,,,,,,,yellow,square
187.0,5.0,1.0,1.0,4.0,4.0,383.154753999861,2.0,1.0,part_1,,,,,,,,,,,,,blue,circle
656.0,3.0,3.0,0.0,3.0,3.0,354.8815490003107,2.0,1.0,part_1,,,,,,,,,,,,,green,diamond
1294.0,8.0,4.0,1.0,4.0,4.0,316.8729289996008,2.0,1.0,part_1,,,,,,,,,,,,,cyan,flipped triangle
0.0,3.0,0.0,0.0,3.0,3.0,317.5468589997763,2.0,1.0,part_1,,,,,,,,,,,,,green,diamond
1305.0,8.0,4.0,1.0,1.0,1.0,390.0546079999003,2.0,1.0,part_1,,,,,,,,,,,,,cyan,flipped triangle
0.0,7.0,0.0,1.0,1.0,1.0,411.0803170001418,2.0,1.0,part_1,,,,,,,,,,,,,magenta,cross
0.0,2.0,0.0,0.0,3.0,3.0,355.2957799997784,2.0,1.0,part_1,,,,,,,,,,,,,orange,triangle
0.0,2.0,0.0,0.0,1.0,1.0,375.3621779997047,2.0,1.0,part_1,,,,,,,,,,,,,orange,triangle
159.0,1.0,1.0,0.0,1.0,1.0,373.9583609999499,2.0,1.0,part_1,,,,,,,,,,,,,yellow,square
178.0,5.0,1.0,1.0,1.0,1.0,410.6044990003283,2.0,1.0,part_1,,,,,,,,,,,,,blue,circle
0.0,6.0,0.0,1.0,2.0,2.0,446.8516759998238,2.0,1.0,part_1,,,,,,,,,,,,,gray,I
1323.0,8.0,4.0,1.0,4.0,4.0,308.2241379997867,2.0,1.0,part_1,,,,,,,,,,,,,cyan,flipped triangle
1317.0,8.0,4.0,1.0,3.0,3.0,363.172588999987,2.0,1.0,part_1,,,,,,,,,,,,,cyan,flipped triangle
641.0,7.0,3.0,1.0,4.0,4.0,345.4150060001666,2.0,1.0,part_1,,,,,,,,,,,,,magenta,cross
1294.0,8.0,4.0,1.0,2.0,2.0,410.7508130000497,2.0,1.0,part_1,,,,,,,,,,,,,cyan,flipped triangle
1324.0,8.0,4.0,1.0,3.0,3.0,288.9975560001403,2.0,1.0,part_1,,,,,,,,,,,,,cyan,flipped triangle
0.0,6.0,0.0,1.0,1.0,1.0,409.8385310003323,2.0,1.0,part_1,,,,,,,,,,,,,gray,I
1312.0,4.0,4.0,0.0,3.0,3.0,344.9274719996538,2.0,1.0,part_1,,,,,,,,,,,,,white,hexagon
1286.0,4.0,4.0,0.0,1.0,1.0,334.3903760001012,2.0,1.0,part_1,,,,,,,,,,,,,white,hexagon
674.0,7.0,3.0,1.0,1.0,1.0,372.8874519997589,2.0,1.0,part_1,,,,,,,,,,,,,magenta,cross
183.0,5.0,1.0,1.0,3.0,3.0,327.5402089998351,2.0,1.0,part_1,,,,,,,,,,,,,blue,circle
1322.0,8.0,4.0,1.0,1.0,1.0,354.1996009998911,2.0,1.0,part_1,,,,,,,,,,,,,cyan,flipped triangle
663.0,7.0,3.0,1.0,3.0,3.0,288.3869550000781,2.0,1.0,part_1,,,,,,,,,,,,,magenta,cross
177.0,1.0,1.0,0.0,2.0,2.0,385.482456000318,2.0,1.0,part_1,,,,,,,,,,,,,yellow,square
139.0,1.0,1.0,0.0,1.0,1.0,345.1262039998255,2.0,1.0,part_1,,,,,,,,,,,,,yellow,square
346.0,6.0,2.0,1.0,4.0,4.0,381.9353989993033,2.0,1.0,part_1,,,,,,,,,,,,,gray,I
0.0,8.0,0.0,1.0,4.0,4.0,364.2611249997571,2.0,2.0,part_1,,,,,,,,,,,,,cyan,flipped triangle
165.0,5.0,1.0,1.0,2.0,2.0,549.1658920000191,2.0,1.0,part_1,,,,,,,,,,,,,blue,circle
313.0,2.0,2.0,0.0,1.0,1.0,457.6901780001208,2.0,1.0,part_1,,,,,,,,,,,,,orange,triangle
159.0,5.0,1.0,1.0,1.0,1.0,391.9624200007092,2.0,1.0,part_1,,,,,,,,,,,,,blue,circle
667.0,3.0,3.0,0.0,1.0,1.0,401.9894459997886,2.0,1.0,part_1,,,,,,,,,,,,,green,diamond
142.0,1.0,1.0,0.0,3.0,3.0,354.6675239995238,2.0,1.0,part_1,,,,,,,,,,,,,yellow,square
0.0,8.0,0.0,1.0,4.0,4.0,457.9991869995865,2.0,1.0,part_1,,,,,,,,,,,,,cyan,flipped triangle
320.0,2.0,2.0,0.0,1.0,1.0,466.4718989997709,2.0,1.0,part_1,,,,,,,,,,,,,orange,triangle
177.0,5.0,1.0,1.0,1.0,1.0,476.0612230002152,2.0,1.0,part_1,,,,,,,,,,,,,blue,circle
1316.0,4.0,4.0,0.0,3.0,3.0,372.6808920000621,2.0,1.0,part_1,,,,,,,,,,,,,white,hexagon
184.0,5.0,1.0,1.0,1.0,1.0,467.7815810000538,2.0,1.0,part_1,,,,,,,,,,,,,blue,circle
0.0,3.0,0.0,0.0,1.0,1.0,438.1770950003556,2.0,1.0,part_1,,,,,,,,,,,,,green,diamond
302.0,2.0,2.0,0.0,1.0,1.0,446.796483000071,2.0,1.0,part_1,,,,,,,,,,,,,orange,triangle
653.0,7.0,3.0,1.0,2.0,2.0,576.0892600001171,2.0,1.0,part_1,,,,,,,,,,,,,magenta,cross
314.0,2.0,2.0,0.0,4.0,4.0,439.8600739996254,2.0,1.0,part_1,,,,,,,,,,,,,orange,triangle
668.0,3.0,3.0,0.0,4.0,4.0,345.0404330005767,2.0,1.0,part_1,,,,,,,,,,,,,green,diamond
305.0,6.0,2.0,1.0,4.0,4.0,345.2473489996919,2.0,1.0,part_1,,,,,,,,,,,,,gray,I
0.0,8.0,0.0,1.0,2.0,2.0,548.7425780002013,2.0,1.0,part_1,,,,,,,,,,,,,cyan,flipped triangle
180.0,1.0,1.0,0.0,3.0,3.0,449.6758779996526,2.0,1.0,part_1,,,,,,,,,,,,,yellow,square
162.0,5.0,1.0,1.0,4.0,4.0,361.7465720008113,2.0,1.0,part_1,,,,,,,,,,,,,blue,circle
1294.0,8.0,4.0,1.0,3.0,3.0,381.5918640002564,2.0,1.0,part_1,,,,,,,,,,,,,cyan,flipped triangle
0.0,7.0,0.0,1.0,4.0,4.0,429.3419750001703,2.0,1.0,part_1,,,,,,,,,,,,,magenta,cross
313.0,6.0,2.0,1.0,1.0,1.0,448.617817000013,2.0,1.0,part_1,,,,,,,,,,,,,gray,I
630.0,3.0,3.0,0.0,2.0,2.0,401.4437579999139,2.0,1.0,part_1,,,,,,,,,,,,,green,diamond
1278.0,4.0,4.0,0.0,2.0,2.0,523.6658240000907,2.0,1.0,part_1,,,,,,,,,,,,,white,hexagon
151.0,5.0,1.0,1.0,3.0,3.0,443.8699739994263,3.0,4.0,part_1,,,,,,,,,,,,,blue,circle
642.0,3.0,3.0,0.0,3.0,3.0,393.8432189997911,3.0,1.0,part_1,,,,,,,,,,,,,green,diamond
160.0,5.0,1.0,1.0,3.0,3.0,466.5562370000771,3.0,1.0,part_1,,,,,,,,,,,,,blue,circle
1278.0,8.0,4.0,1.0,1.0,1.0,710.0458510003591,3.0,1.0,part_1,,,,,,,,,,,,,cyan,flipped triangle
1276.0,4.0,4.0,0.0,1.0,1.0,514.3905309996626,3.0,1.0,part_1,,,,,,,,,,,,,white,hexagon
178.0,1.0,1.0,0.0,1.0,1.0,581.2920289999965,3.0,1.0,part_1,,,,,,,,,,,,,yellow,square
0.0,4.0,0.0,0.0,4.0,4.0,531.3657300002887,3.0,1.0,part_1,,,,,,,,,,,,,white,hexagon
302.0,6.0,2.0,1.0,1.0,1.0,465.4594409994388,3.0,1.0,part_1,,,,,,,,,,,,,gray,I
629.0,3.0,3.0,0.0,1.0,1.0,410.5989780000527,3.0,1.0,part_1,,,,,,,,,,,,,green,diamond
1294.0,4.0,4.0,0.0,2.0,2.0,847.0372289993975,3.0,1.0,part_1,,,,,,,,,,,,,white,hexagon
342.0,2.0,2.0,0.0,2.0,2.0,465.3542450005261,3.0,1.0,part_1,,,,,,,,,,,,,orange,triangle
641.0,3.0,3.0,0.0,4.0,4.0,437.4141469997994,3.0,1.0,part_1,,,,,,,,,,,,,green,diamond
660.0,3.0,3.0,0.0,1.0,1.0,438.5995350003213,3.0,1.0,part_1,,,,,,,,,,,,,green,diamond
637.0,3.0,3.0,0.0,4.0,4.0,418.8202549994457,3.0,1.0,part_1,,,,,,,,,,,,,green,diamond
644.0,7.0,3.0,1.0,2.0,2.0,362.8921480003555,3.0,1.0,part_1,,,,,,,,,,,,,magenta,cross
0.0,7.0,0.0,1.0,3.0,3.0,364.354321999599,3.0,1.0,part_1,,,,,,,,,,,,,magenta,cross
140.0,1.0,1.0,0.0,3.0,3.0,306.7096610002409,3.0,1.0,part_1,,,,,,,,,,,,,yellow,square
0.0,4.0,0.0,0.0,2.0,2.0,364.0262600001733,3.0,1.0,part_1,,,,,,,,,,,,,white,hexagon
0.0,5.0,0.0,1.0,4.0,4.0,428.9416370002072,3.0,1.0,part_1,,,,,,,,,,,,,blue,circle
0.0,3.0,0.0,0.0,4.0,4.0,374.1470199993273,3.0,1.0,part_1,,,,,,,,,,,,,green,diamond
1293.0,8.0,4.0,1.0,3.0,3.0,410.1633239997682,3.0,1.0,part_1,,,,,,,,,,,,,cyan,flipped triangle
1323.0,8.0,4.0,1.0,4.0,4.0,362.1301539997148,3.0,1.0,part_1,,,,,,,,,,,,,cyan,flipped triangle
329.0,2.0,2.0,0.0,3.0,3.0,334.8669429997244,3.0,1.0,part_1,,,,,,,,,,,,,orange,triangle
1312.0,8.0,4.0,1.0,3.0,3.0,399.4486920000781,3.0,1.0,part_1,,,,,,,,,,,,,cyan,flipped triangle
0.0,3.0,0.0,0.0,4.0,4.0,391.6139160000966,3.0,1.0,part_1,,,,,,,,,,,,,green,diamond
0.0,2.0,0.0,0.0,1.0,1.0,532.0916640002906,3.0,1.0,part_1,,,,,,,,,,,,,orange,triangle
342.0,2.0,2.0,0.0,3.0,3.0,326.4915529998689,3.0,1.0,part_1,,,,,,,,,,,,,orange,triangle
1280.0,4.0,4.0,0.0,2.0,2.0,373.8390070002424,3.0,1.0,part_1,,,,,,,,,,,,,white,hexagon
1285.0,4.0,4.0,0.0,1.0,1.0,466.0461940002278,3.0,1.0,part_1,,,,,,,,,,,,,white,hexagon
141.0,1.0,1.0,0.0,1.0,1.0,427.6331259998187,3.0,1.0,part_1,,,,,,,,,,,,,yellow,square
342.0,6.0,2.0,1.0,1.0,1.0,455.3553209998426,3.0,1.0,part_1,,,,,,,,,,,,,gray,I
1304.0,4.0,4.0,0.0,3.0,3.0,362.5855829995998,3.0,1.0,part_1,,,,,,,,,,,,,white,hexagon
1304.0,4.0,4.0,0.0,3.0,3.0,375.0662939992253,3.0,1.0,part_1,,,,,,,,,,,,,white,hexagon
637.0,7.0,3.0,1.0,1.0,1.0,474.551636999422,3.0,1.0,part_1,,,,,,,,,,,,,magenta,cross
338.0,2.0,2.0,0.0,4.0,4.0,390.8169420001286,3.0,1.0,part_1,,,,,,,,,,,,,orange,triangle
348.0,6.0,2.0,1.0,1.0,1.0,419.1006330001983,3.0,1.0,part_1,,,,,,,,,,,,,gray,I
320.0,6.0,2.0,1.0,3.0,3.0,418.4466930000781,3.0,1.0,part_1,,,,,,,,,,,,,gray,I
0.0,8.0,0.0,1.0,1.0,1.0,437.5531460000275,3.0,1.0,part_1,,,,,,,,,,,,,cyan,flipped triangle
1302.0,4.0,4.0,0.0,4.0,4.0,391.3315230001899,3.0,1.0,part_1,,,,,,,,,,,,,white,hexagon
0.0,5.0,0.0,1.0,2.0,2.0,661.6458329999659,3.0,1.0,part_1,,,,,,,,,,,,,blue,circle
184.0,1.0,1.0,0.0,4.0,4.0,418.8516989997879,3.0,1.0,part_1,,,,,,,,,,,,,yellow,square
141.0,5.0,1.0,1.0,4.0,4.0,428.9137609994213,3.0,1.0,part_1,,,,,,,,,,,,,blue,circle
1320.0,4.0,4.0,0.0,1.0,1.0,485.102034999727,3.0,1.0,part_1,,,,,,,,,,,,,white,hexagon
656.0,7.0,3.0,1.0,4.0,4.0,429.1316549997646,3.0,1.0,part_1,,,,,,,,,,,,,magenta,cross
321.0,6.0,2.0,1.0,4.0,4.0,381.4502180002819,3.0,1.0,part_1,,,,,,,,,,,,,gray,I
645.0,7.0,3.0,1.0,4.0,4.0,343.6440619998393,3.0,1.0,part_1,,,,,,,,,,,,,magenta,cross
318.0,2.0,2.0,0.0,3.0,3.0,409.7142970003915,3.0,1.0,part_1,,,,,,,,,,,,,orange,triangle
0.0,4.0,0.0,0.0,2.0,2.0,363.9806629998929,3.0,1.0,part_1,,,,,,,,,,,,,white,hexagon
0.0,5.0,0.0,1.0,4.0,4.0,344.446118999258,3.0,1.0,part_1,,,,,,,,,,,,,blue,circle
350.0,2.0,2.0,0.0,4.0,4.0,438.2566269996459,3.0,1.0,part_1,,,,,,,,,,,,,orange,triangle
338.0,6.0,2.0,1.0,3.0,3.0,354.4714460003888,3.0,1.0,part_1,,,,,,,,,,,,,gray,I
1288.0,4.0,4.0,0.0,4.0,4.0,335.4965329999686,3.0,1.0,part_1,,,,,,,,,,,,,white,hexagon
1297.0,8.0,4.0,1.0,2.0,2.0,429.2590160002874,3.0,1.0,part_1,,,,,,,,,,,,,cyan,flipped triangle
142.0,5.0,1.0,1.0,2.0,2.0,446.8870749997222,3.0,1.0,part_1,,,,,,,,,,,,,blue,circle
630.0,7.0,3.0,1.0,2.0,2.0,419.0905539999221,3.0,1.0,part_1,,,,,,,,,,,,,magenta,cross
646.0,7.0,3.0,1.0,2.0,2.0,410.4289239994614,3.0,1.0,part_1,,,,,,,,,,,,,magenta,cross
338.0,6.0,2.0,1.0,2.0,2.0,372.7764420000312,3.0,1.0,part_1,,,,,,,,,,,,,gray,I
177.0,5.0,1.0,1.0,3.0,3.0,363.7298530002226,3.0,1.0,part_1,,,,,,,,,,,,,blue,circle
0.0,4.0,0.0,0.0,3.0,3.0,447.2035979997599,3.0,1.0,part_1,,,,,,,,,,,,,white,hexagon
186.0,1.0,1.0,0.0,2.0,2.0,457.6690159992722,3.0,1.0,part_1,,,,,,,,,,,,,yellow,square
0.0,2.0,0.0,0.0,3.0,3.0,383.1375769996157,3.0,1.0,part_1,,,,,,,,,,,,,orange,triangle
300.0,2.0,2.0,0.0,3.0,3.0,362.9643050007871,3.0,1.0,part_1,,,,,,,,,,,,,orange,triangle
1298.0,4.0,4.0,0.0,2.0,2.0,401.9328790000145,3.0,1.0,part_1,,,,,,,,,,,,,white,hexagon
0.0,3.0,0.0,0.0,1.0,1.0,726.2849329999881,3.0,1.0,part_1,,,,,,,,,,,,,green,diamond
159.0,5.0,1.0,1.0,1.0,1.0,418.75721300039,3.0,1.0,part_1,,,,,,,,,,,,,blue,circle
672.0,7.0,3.0,1.0,3.0,3.0,439.3616730003487,3.0,1.0,part_1,,,,,,,,,,,,,magenta,cross
310.0,6.0,2.0,1.0,1.0,1.0,428.9300199998251,3.0,1.0,part_1,,,,,,,,,,,,,gray,I
321.0,2.0,2.0,0.0,1.0,1.0,456.6038479997587,3.0,1.0,part_1,,,,,,,,,,,,,orange,triangle
640.0,3.0,3.0,0.0,2.0,2.0,521.4265590002469,3.0,1.0,part_1,,,,,,,,,,,,,green,diamond
1313.0,8.0,4.0,1.0,1.0,1.0,474.3725259995699,3.0,1.0,part_1,,,,,,,,,,,,,cyan,flipped triangle
665.0,3.0,3.0,0.0,3.0,3.0,511.6207020000729,3.0,1.0,part_1,,,,,,,,,,,,,green,diamond
0.0,6.0,0.0,1.0,4.0,4.0,475.0250830002187,3.0,1.0,part_1,,,,,,,,,,,,,gray,I
626.0,7.0,3.0,1.0,4.0,4.0,446.8606450000152,3.0,1.0,part_1,,,,,,,,,,,,,magenta,cross
306.0,2.0,2.0,0.0,4.0,4.0,373.6835900008373,3.0,1.0,part_1,,,,,,,,,,,,,orange,triangle
325.0,6.0,2.0,1.0,2.0,2.0,457.9772870001761,3.0,1.0,part_1,,,,,,,,,,,,,gray,I
0.0,2.0,0.0,0.0,3.0,3.0,400.3491329995086,3.0,1.0,part_1,,,,,,,,,,,,,orange,triangle
0.0,6.0,0.0,1.0,2.0,2.0,558.427362000657,3.0,1.0,part_1,,,,,,,,,,,,,gray,I
1307.0,8.0,4.0,1.0,2.0,2.0,427.0110080005906,3.0,1.0,part_1,,,,,,,,,,,,,cyan,flipped triangle
310.0,2.0,2.0,0.0,1.0,1.0,418.9089340006831,3.0,1.0,part_1,,,,,,,,,,,,,orange,triangle
0.0,4.0,0.0,0.0,1.0,1.0,445.9091429998807,3.0,1.0,part_1,,,,,,,,,,,,,white,hexagon
303.0,2.0,2.0,0.0,4.0,4.0,390.5806319999101,3.0,1.0,part_1,,,,,,,,,,,,,orange,triangle
1285.0,8.0,4.0,1.0,1.0,1.0,465.6458689996725,3.0,1.0,part_1,,,,,,,,,,,,,cyan,flipped triangle
181.0,1.0,1.0,0.0,2.0,2.0,391.1347410003145,3.0,1.0,part_1,,,,,,,,,,,,,yellow,square
1280.0,8.0,4.0,1.0,2.0,2.0,381.945142999939,3.0,1.0,part_1,,,,,,,,,,,,,cyan,flipped triangle
0.0,1.0,0.0,0.0,4.0,4.0,371.7682670003341,3.0,1.0,part_1,,,,,,,,,,,,,yellow,square
1278.0,8.0,4.0,1.0,4.0,4.0,438.6191260000487,3.0,1.0,part_1,,,,,,,,,,,,,cyan,flipped triangle
146.0,5.0,1.0,1.0,2.0,2.0,372.3312290003377,3.0,1.0,part_1,,,,,,,,,,,,,blue,circle
152.0,1.0,1.0,0.0,2.0,2.0,400.8527969999704,3.0,1.0,part_1,,,,,,,,,,,,,yellow,square
0.0,6.0,0.0,1.0,1.0,1.0,493.7131840006259,3.0,1.0,part_1,,,,,,,,,,,,,gray,I
174.0,5.0,1.0,1.0,4.0,4.0,419.1485080000348,3.0,1.0,part_1,,,,,,,,,,,,,blue,circle
643.0,3.0,3.0,0.0,3.0,3.0,596.9077549998474,3.0,1.0,part_1,,,,,,,,,,,,,green,diamond
323.0,2.0,2.0,0.0,3.0,3.0,438.0093199997645,3.0,1.0,part_1,,,,,,,,,,,,,orange,triangle
1303.0,4.0,4.0,0.0,1.0,1.0,503.3791870000641,3.0,1.0,part_1,,,,,,,,,,,,,white,hexagon
1316.0,8.0,4.0,1.0,4.0,4.0,522.3816749994512,3.0,1.0,part_1,,,,,,,,,,,,,cyan,flipped triangle
645.0,3.0,3.0,0.0,2.0,2.0,474.5165959993755,3.0,1.0,part_1,,,,,,,,,,,,,green,diamond
346.0,2.0,2.0,0.0,3.0,3.0,345.9089640000456,3.0,1.0,part_1,,,,,,,,,,,,,orange,triangle
323.0,6.0,2.0,1.0,3.0,3.0,456.8160019998686,3.0,1.0,part_1,,,,,,,,,,,,,gray,I
159.0,1.0,1.0,0.0,1.0,1.0,438.0707539994546,3.0,1.0,part_1,,,,,,,,,,,,,yellow,square
0.0,1.0,0.0,0.0,4.0,4.0,363.4961340003428,3.0,1.0,part_1,,,,,,,,,,,,,yellow,square
671.0,7.0,3.0,1.0,4.0,4.0,495.1480629997604,3.0,1.0,part_1,,,,,,,,,,,,,magenta,cross
651.0,3.0,3.0,0.0,1.0,1.0,669.4401470003868,4.0,1.0,part_1,,,,,,,,,,,,,green,diamond
153.0,5.0,1.0,1.0,3.0,3.0,402.3457050006982,4.0,1.0,part_1,,,,,,,,,,,,,blue,circle
180.0,5.0,1.0,1.0,2.0,2.0,465.7923840004514,4.0,1.0,part_1,,,,,,,,,,,,,blue,circle
662.0,7.0,3.0,1.0,1.0,1.0,455.6609869996464,4.0,1.0,part_1,,,,,,,,,,,,,magenta,cross
152.0,5.0,1.0,1.0,3.0,3.0,354.678533999504,4.0,1.0,part_1,,,,,,,,,,,,,blue,circle
314.0,6.0,2.0,1.0,2.0,2.0,420.6244850001894,4.0,1.0,part_1,,,,,,,,,,,,,gray,I
160.0,1.0,1.0,0.0,4.0,4.0,411.4219229995797,4.0,1.0,part_1,,,,,,,,,,,,,yellow,square
652.0,3.0,3.0,0.0,2.0,2.0,354.2465179998544,4.0,1.0,part_1,,,,,,,,,,,,,green,diamond
336.0,6.0,2.0,1.0,4.0,4.0,447.7896080006758,4.0,1.0,part_1,,,,,,,,,,,,,gray,I
331.0,6.0,2.0,1.0,2.0,2.0,418.7715869993553,4.0,1.0,part_1,,,,,,,,,,,,,gray,I
668.0,7.0,3.0,1.0,3.0,3.0,458.4635889996207,4.0,1.0,part_1,,,,,,,,,,,,,magenta,cross
0.0,8.0,0.0,1.0,3.0,3.0,440.5335810006363,4.0,1.0,part_1,,,,,,,,,,,,,cyan,flipped triangle
658.0,3.0,3.0,0.0,1.0,1.0,617.5416369997038,4.0,1.0,part_1,,,,,,,,,,,,,green,diamond
159.0,5.0,1.0,1.0,2.0,2.0,549.3622510002751,4.0,1.0,part_1,,,,,,,,,,,,,blue,circle
0.0,6.0,0.0,1.0,3.0,3.0,380.0853479997386,4.0,1.0,part_1,,,,,,,,,,,,,gray,I
1294.0,4.0,4.0,0.0,1.0,1.0,446.684028999698,4.0,1.0,part_1,,,,,,,,,,,,,white,hexagon
1303.0,8.0,4.0,1.0,4.0,4.0,428.5458439999274,4.0,1.0,part_1,,,,,,,,,,,,,cyan,flipped triangle
1299.0,8.0,4.0,1.0,1.0,1.0,511.85831099974166,4.0,1.0,part_1,,,,,,,,,,,,,cyan,flipped triangle
645.0,3.0,3.0,0.0,2.0,2.0,418.7622509998618,4.0,1.0,part_1,,,,,,,,,,,,,green,diamond
338.0,2.0,2.0,0.0,1.0,1.0,605.2967880004871,4.0,1.0,part_1,,,,,,,,,,,,,orange,triangle
142.0,1.0,1.0,0.0,4.0,4.0,456.2333089997992,4.0,1.0,part_1,,,,,,,,,,,,,yellow,square
323.0,6.0,2.0,1.0,2.0,2.0,400.6101830000261,4.0,1.0,part_1,,,,,,,,,,,,,gray,I
139.0,5.0,1.0,1.0,1.0,1.0,503.22500800029957,4.0,1.0,part_1,,,,,,,,,,,,,blue,circle
337.0,2.0,2.0,0.0,1.0,1.0,484.8515430003317,4.0,1.0,part_1,,,,,,,,,,,,,orange,triangle
170.0,5.0,1.0,1.0,1.0,1.0,502.96942299974035,4.0,1.0,part_1,,,,,,,,,,,,,blue,circle
1280.0,4.0,4.0,0.0,4.0,4.0,429.1694909998114,4.0,1.0,part_1,,,,,,,,,,,,,white,hexagon
648.0,3.0,3.0,0.0,2.0,2.0,476.7930480002178,4.0,1.0,part_1,,,,,,,,,,,,,green,diamond
1293.0,4.0,4.0,0.0,4.0,4.0,428.6292500000854,4.0,1.0,part_1,,,,,,,,,,,,,white,hexagon
643.0,7.0,3.0,1.0,4.0,4.0,419.3947429994296,4.0,1.0,part_1,,,,,,,,,,,,,magenta,cross
626.0,3.0,3.0,0.0,1.0,1.0,455.789784999979,4.0,1.0,part_1,,,,,,,,,,,,,green,diamond
0.0,7.0,0.0,1.0,3.0,3.0,391.940939000051,4.0,1.0,part_1,,,,,,,,,,,,,magenta,cross
142.0,5.0,1.0,1.0,1.0,1.0,476.0735410000052,4.0,1.0,part_1,,,,,,,,,,,,,blue,circle
302.0,6.0,2.0,1.0,3.0,3.0,400.3207599998859,4.0,1.0,part_1,,,,,,,,,,,,,gray,I
635.0,7.0,3.0,1.0,1.0,1.0,428.2663379999576,4.0,1.0,part_1,,,,,,,,,,,,,magenta,cross
325.0,6.0,2.0,1.0,4.0,4.0,391.8900899998334,4.0,1.0,part_1,,,,,,,,,,,,,gray,I
322.0,2.0,2.0,0.0,2.0,2.0,522.8746700004194,4.0,1.0,part_1,,,,,,,,,,,,,orange,triangle
159.0,1.0,1.0,0.0,3.0,3.0,401.7169470007502,4.0,1.0,part_1,,,,,,,,,,,,,yellow,square
322.0,6.0,2.0,1.0,4.0,4.0,505.14441699942836,4.0,1.0,part_1,,,,,,,,,,,,,gray,I
0.0,1.0,0.0,0.0,4.0,4.0,402.0757729995239,4.0,1.0,part_1,,,,,,,,,,,,,yellow,square
350.0,6.0,2.0,1.0,4.0,4.0,381.7614990002766,4.0,1.0,part_1,,,,,,,,,,,,,gray,I
1299.0,4.0,4.0,0.0,3.0,3.0,401.0196509998422,4.0,1.0,part_1,,,,,,,,,,,,,white,hexagon
0.0,7.0,0.0,1.0,2.0,2.0,531.6624489996684,4.0,1.0,part_1,,,,,,,,,,,,,magenta,cross
1317.0,8.0,4.0,1.0,2.0,2.0,465.3233990002263,4.0,1.0,part_1,,,,,,,,,,,,,cyan,flipped triangle
670.0,7.0,3.0,1.0,1.0,1.0,782.0589499997368,4.0,1.0,part_1,,,,,,,,,,,,,magenta,cross
331.0,2.0,2.0,0.0,1.0,1.0,483.9064839998173,4.0,1.0,part_1,,,,,,,,,,,,,orange,triangle
147.0,5.0,1.0,1.0,4.0,4.0,422.8012739995392,4.0,1.0,part_1,,,,,,,,,,,,,blue,circle
631.0,7.0,3.0,1.0,4.0,4.0,403.6737870001161,4.0,1.0,part_1,,,,,,,,,,,,,magenta,cross
1317.0,4.0,4.0,0.0,3.0,3.0,457.5437799994688,4.0,1.0,part_1,,,,,,,,,,,,,white,hexagon
170.0,1.0,1.0,0.0,1.0,1.0,531.5005180000298,4.0,1.0,part_1,,,,,,,,,,,,,yellow,square
670.0,7.0,3.0,1.0,2.0,2.0,410.9610340001381,4.0,1.0,part_1,,,,,,,,,,,,,magenta,cross
645.0,3.0,3.0,0.0,3.0,3.0,392.0134609998058,4.0,1.0,part_1,,,,,,,,,,,,,green,diamond
1319.0,8.0,4.0,1.0,3.0,3.0,419.4863640004769,4.0,1.0,part_1,,,,,,,,,,,,,cyan,flipped triangle
646.0,3.0,3.0,0.0,3.0,3.0,410.5865040000935,4.0,1.0,part_1,,,,,,,,,,,,,green,diamond
0.0,7.0,0.0,1.0,4.0,4.0,353.3587470001293,4.0,1.0,part_1,,,,,,,,,,,,,magenta,cross
631.0,7.0,3.0,1.0,3.0,3.0,447.0287120002467,4.0,1.0,part_1,,,,,,,,,,,,,magenta,cross
629.0,7.0,3.0,1.0,1.0,1.0,484.5241470002293,4.0,1.0,part_1,,,,,,,,,,,,,magenta,cross
187.0,1.0,1.0,0.0,2.0,2.0,409.9124839995056,4.0,1.0,part_1,,,,,,,,,,,,,yellow,square
644.0,3.0,3.0,0.0,1.0,1.0,552.689186999487,4.0,1.0,part_1,,,,,,,,,,,,,green,diamond
648.0,7.0,3.0,1.0,3.0,3.0,430.5768449994502,4.0,1.0,part_1,,,,,,,,,,,,,magenta,cross
0.0,5.0,0.0,1.0,1.0,1.0,495.2697979997538,4.0,1.0,part_1,,,,,,,,,,,,,blue,circle
346.0,6.0,2.0,1.0,3.0,3.0,326.0807380002006,4.0,1.0,part_1,,,,,,,,,,,,,gray,I
325.0,2.0,2.0,0.0,3.0,3.0,373.0715179999606,4.0,1.0,part_1,,,,,,,,,,,,,orange,triangle
1289.0,8.0,4.0,1.0,4.0,4.0,409.8940159992708,4.0,1.0,part_1,,,,,,,,,,,,,cyan,flipped triangle
1304.0,8.0,4.0,1.0,4.0,4.0,363.7500749991886,4.0,1.0,part_1,,,,,,,,,,,,,cyan,flipped triangle
0.0,8.0,0.0,1.0,3.0,3.0,354.0962779998153,4.0,1.0,part_1,,,,,,,,,,,,,cyan,flipped triangle
1279.0,8.0,4.0,1.0,4.0,4.0,354.2074970000612,4.0,1.0,part_1,,,,,,,,,,,,,cyan,flipped triangle
0.0,2.0,0.0,0.0,3.0,3.0,334.8570869993637,4.0,1.0,part_1,,,,,,,,,,,,,orange,triangle
645.0,7.0,3.0,1.0,2.0,2.0,400.2579130001322,4.0,1.0,part_1,,,,,,,,,,,,,magenta,cross
0.0,7.0,0.0,1.0,2.0,2.0,428.0892090000634,4.0,1.0,part_1,,,,,,,,,,,,,magenta,cross
165.0,1.0,1.0,0.0,3.0,3.0,391.2405030005175,4.0,1.0,part_1,,,,,,,,,,,,,yellow,square
1305.0,4.0,4.0,0.0,2.0,2.0,400.6486270000096,4.0,1.0,part_1,,,,,,,,,,,,,white,hexagon
656.0,7.0,3.0,1.0,4.0,4.0,439.8569089999,4.0,1.0,part_1,,,,,,,,,,,,,magenta,cross
179.0,5.0,1.0,1.0,2.0,2.0,456.9502529993769,4.0,1.0,part_1,,,,,,,,,,,,,blue,circle
156.0,1.0,1.0,0.0,2.0,2.0,391.969999000139,4.0,1.0,part_1,,,,,,,,,,,,,yellow,square
186.0,1.0,1.0,0.0,1.0,1.0,436.8692970001575,4.0,1.0,part_1,,,,,,,,,,,,,yellow,square
0.0,1.0,0.0,0.0,1.0,1.0,465.4307090004295,4.0,1.0,part_1,,,,,,,,,,,,,yellow,square
302.0,2.0,2.0,0.0,1.0,1.0,467.2844369997619,4.0,1.0,part_1,,,,,,,,,,,,,orange,triangle
0.0,1.0,0.0,0.0,2.0,2.0,420.527449000474,4.0,1.0,part_1,,,,,,,,,,,,,yellow,square
631.0,3.0,3.0,0.0,4.0,4.0,402.210606999688,4.0,1.0,part_1,,,,,,,,,,,,,green,diamond
631.0,3.0,3.0,0.0,2.0,2.0,422.0289959994261,4.0,1.0,part_1,,,,,,,,,,,,,green,diamond
0.0,1.0,0.0,0.0,3.0,3.0,419.8471319996315,4.0,1.0,part_1,,,,,,,,,,,,,yellow,square
349.0,6.0,2.0,1.0,1.0,1.0,496.0353039996334,4.0,1.0,part_1,,,,,,,,,,,,,gray,I
335.0,2.0,2.0,0.0,4.0,4.0,383.1638729998303,4.0,1.0,part_1,,,,,,,,,,,,,orange,triangle
313.0,6.0,2.0,1.0,3.0,3.0,335.8114080001542,4.0,1.0,part_1,,,,,,,,,,,,,gray,I
162.0,1.0,1.0,0.0,2.0,2.0,428.7569660000372,4.0,1.0,part_1,,,,,,,,,,,,,yellow,square
142.0,1.0,1.0,0.0,2.0,2.0,420.8392350001304,4.0,1.0,part_1,,,,,,,,,,,,,yellow,square
323.0,2.0,2.0,0.0,2.0,2.0,477.4624470001072,4.0,1.0,part_1,,,,,,,,,,,,,orange,triangle
631.0,7.0,3.0,1.0,2.0,2.0,419.0542159994948,4.0,1.0,part_1,,,,,,,,,,,,,magenta,cross
0.0,3.0,0.0,0.0,2.0,2.0,355.3912759998638,4.0,1.0,part_1,,,,,,,,,,,,,green,diamond
319.0,6.0,2.0,1.0,3.0,3.0,384.2625080005746,4.0,1.0,part_1,,,,,,,,,,,,,gray,I
0.0,5.0,0.0,1.0,3.0,3.0,400.6193690001964,4.0,1.0,part_1,,,,,,,,,,,,,blue,circle
1297.0,4.0,4.0,0.0,4.0,4.0,428.164705999734,4.0,1.0,part_1,,,,,,,,,,,,,white,hexagon
0.0,8.0,0.0,1.0,4.0,4.0,437.0444409996707,4.0,1.0,part_1,,,,,,,,,,,,,cyan,flipped triangle
1285.0,8.0,4.0,1.0,2.0,2.0,437.9289010003049,4.0,1.0,part_1,,,,,,,,,,,,,cyan,flipped triangle
667.0,3.0,3.0,0.0,1.0,1.0,513.5223529996438,4.0,1.0,part_1,,,,,,,,,,,,,green,diamond
309.0,2.0,2.0,0.0,2.0,2.0,476.5598049998516,4.0,1.0,part_1,,,,,,,,,,,,,orange,triangle
305.0,2.0,2.0,0.0,3.0,3.0,532.0405209995442,4.0,1.0,part_1,,,,,,,,,,,,,orange,triangle
1317.0,4.0,4.0,0.0,1.0,1.0,438.5197960000369,4.0,1.0,part_1,,,,,,,,,,,,,white,hexagon
156.0,5.0,1.0,1.0,4.0,4.0,429.5782609997332,4.0,1.0,part_1,,,,,,,,,,,,,blue,circle
335.0,6.0,2.0,1.0,4.0,4.0,401.184588000433,4.0,1.0,part_1,,,,,,,,,,,,,gray,I
0.0,7.0,3.0,1.0,5.0,1.0,416.4813120005419,1.0,0.0,part_2,stop,250.0,250.0,3.0,,,,,,,,,magenta,cross
0.0,8.0,4.0,1.0,5.0,1.0,390.1424089999636,1.0,0.0,part_2,stop,200.0,250.0,3.0,,,,,,,,,cyan,flipped triangle
0.0,1.0,1.0,0.0,6.0,6.0,506.19560800078034,1.0,0.0,part_2,go,150.0,250.0,1.0,,,,,,,,,yellow,square
0.0,5.0,1.0,1.0,5.0,0.0,0.0,1.0,0.0,part_2,stop,150.0,250.0,4.0,,,,,,,,,blue,circle
0.0,7.0,3.0,1.0,6.0,0.0,0.0,1.0,0.0,part_2,stop,200.0,250.0,4.0,,,,,,,,,magenta,cross
0.0,7.0,3.0,1.0,6.0,6.0,368.9697210002123,1.0,0.0,part_2,stop,200.0,300.0,3.0,,,,,,,,,magenta,cross
0.0,2.0,2.0,0.0,6.0,6.0,554.8196629997619,1.0,0.0,part_2,go,200.0,250.0,1.0,,,,,,,,,orange,triangle
0.0,6.0,2.0,1.0,6.0,0.0,0.0,1.0,0.0,part_2,stop,200.0,250.0,4.0,,,,,,,,,gray,I
0.0,3.0,3.0,0.0,5.0,1.0,486.8159420002484,1.0,0.0,part_2,go,200.0,300.0,2.0,,,,,,,,,green,diamond
0.0,6.0,2.0,1.0,5.0,1.0,364.2727839996951,1.0,0.0,part_2,stop,200.0,300.0,3.0,,,,,,,,,gray,I
0.0,3.0,3.0,0.0,6.0,6.0,413.3411470002102,1.0,0.0,part_2,go,150.0,300.0,1.0,,,,,,,,,green,diamond
0.0,5.0,1.0,1.0,6.0,0.0,0.0,1.0,0.0,part_2,stop,150.0,300.0,4.0,,,,,,,,,blue,circle
0.0,5.0,1.0,1.0,5.0,0.0,0.0,1.0,0.0,part_2,stop,150.0,350.0,4.0,,,,,,,,,blue,circle
0.0,3.0,3.0,0.0,5.0,1.0,376.6050969998105,1.0,0.0,part_2,go,200.0,350.0,2.0,,,,,,,,,green,diamond
0.0,5.0,1.0,1.0,5.0,0.0,0.0,1.0,0.0,part_2,stop,200.0,350.0,4.0,,,,,,,,,blue,circle
0.0,2.0,2.0,0.0,5.0,1.0,450.9512029999314,1.0,0.0,part_2,go,250.0,350.0,2.0,,,,,,,,,orange,triangle
0.0,4.0,4.0,0.0,6.0,6.0,488.1561550000697,1.0,0.0,part_2,go,250.0,350.0,1.0,,,,,,,,,white,hexagon
0.0,7.0,3.0,1.0,6.0,6.0,514.168501000313,1.0,0.0,part_2,stop,250.0,350.0,3.0,,,,,,,,,magenta,cross
0.0,8.0,4.0,1.0,5.0,5.0,347.5372380007684,1.0,0.0,part_2,go,250.0,300.0,1.0,,,,,,,,,cyan,flipped triangle
0.0,1.0,1.0,0.0,6.0,6.0,535.3308699995978,1.0,0.0,part_2,go,250.0,300.0,1.0,,,,,,,,,yellow,square
0.0,5.0,1.0,1.0,5.0,5.0,403.8865980000992,1.0,0.0,part_2,go,250.0,300.0,1.0,,,,,,,,,blue,circle
0.0,5.0,1.0,1.0,6.0,6.0,450.6379630001902,1.0,0.0,part_2,stop,250.0,300.0,3.0,,,,,,,,,blue,circle
0.0,7.0,3.0,1.0,5.0,5.0,429.925039000409,1.0,0.0,part_2,go,250.0,250.0,1.0,,,,,,,,,magenta,cross
0.0,1.0,1.0,0.0,6.0,6.0,534.2558180000196,1.0,0.0,part_2,go,250.0,250.0,1.0,,,,,,,,,yellow,square
0.0,8.0,4.0,1.0,6.0,6.0,440.1390479997644,1.0,0.0,part_2,go,250.0,250.0,1.0,,,,,,,,,cyan,flipped triangle
0.0,1.0,1.0,0.0,6.0,6.0,468.863969999802,1.0,0.0,part_2,go,250.0,250.0,1.0,,,,,,,,,yellow,square
0.0,8.0,4.0,1.0,5.0,0.0,0.0,1.0,0.0,part_2,stop,250.0,250.0,4.0,,,,,,,,,cyan,flipped triangle
0.0,4.0,4.0,0.0,5.0,5.0,419.4339390005552,1.0,0.0,part_2,go,300.0,250.0,1.0,,,,,,,,,white,hexagon
0.0,7.0,3.0,1.0,6.0,6.0,355.4811479998534,1.0,0.0,part_2,stop,300.0,250.0,3.0,,,,,,,,,magenta,cross
0.0,6.0,2.0,1.0,6.0,0.0,0.0,1.0,0.0,part_2,stop,300.0,200.0,4.0,,,,,,,,,gray,I
0.0,4.0,4.0,0.0,6.0,6.0,403.0012720004379,1.0,0.0,part_2,go,300.0,250.0,1.0,,,,,,,,,white,hexagon
0.0,5.0,1.0,1.0,5.0,0.0,0.0,1.0,0.0,part_2,stop,300.0,250.0,4.0,,,,,,,,,blue,circle
0.0,6.0,2.0,1.0,5.0,5.0,423.584254999696,1.0,0.0,part_2,stop,350.0,250.0,3.0,,,,,,,,,gray,I
0.0,3.0,3.0,0.0,6.0,6.0,562.1737000001303,1.0,0.0,part_2,go,300.0,250.0,1.0,,,,,,,,,green,diamond
0.0,8.0,4.0,1.0,5.0,0.0,0.0,1.0,0.0,part_2,stop,300.0,250.0,4.0,,,,,,,,,cyan,flipped triangle
0.0,8.0,4.0,1.0,5.0,5.0,388.8176390000808,1.0,0.0,part_2,stop,350.0,250.0,3.0,,,,,,,,,cyan,flipped triangle
0.0,1.0,1.0,0.0,5.0,5.0,1295.283301999916,2.0,0.0,part_2,go,300.0,250.0,1.0,,,,,,,,,yellow,square
0.0,1.0,1.0,0.0,5.0,5.0,551.7458260001149,2.0,0.0,part_2,go,300.0,250.0,1.0,,,,,,,,,yellow,square
0.0,7.0,3.0,1.0,6.0,0.0,0.0,2.0,0.0,part_2,stop,300.0,250.0,4.0,,,,,,,,,magenta,cross
0.0,5.0,1.0,1.0,5.0,5.0,490.8326510003462,2.0,0.0,part_2,stop,300.0,300.0,3.0,,,,,,,,,blue,circle
0.0,2.0,2.0,0.0,6.0,6.0,469.9529839999741,2.0,0.0,part_2,go,250.0,300.0,1.0,,,,,,,,,orange,triangle
0.0,2.0,2.0,0.0,6.0,6.0,632.215052999527,2.0,0.0,part_2,go,250.0,300.0,1.0,,,,,,,,,orange,triangle
0.0,5.0,1.0,1.0,5.0,0.0,0.0,2.0,0.0,part_2,stop,250.0,300.0,4.0,,,,,,,,,blue,circle
0.0,8.0,4.0,1.0,6.0,6.0,437.7270509994559,2.0,0.0,part_2,stop,300.0,300.0,3.0,,,,,,,,,cyan,flipped triangle
0.0,1.0,1.0,0.0,5.0,5.0,582.4896660005834,2.0,0.0,part_2,go,300.0,250.0,1.0,,,,,,,,,yellow,square
0.0,8.0,4.0,1.0,6.0,0.0,0.0,2.0,0.0,part_2,stop,300.0,250.0,4.0,,,,,,,,,cyan,flipped triangle
0.0,7.0,3.0,1.0,5.0,0.0,0.0,2.0,0.0,part_2,stop,300.0,300.0,4.0,,,,,,,,,magenta,cross
0.0,4.0,4.0,0.0,6.0,6.0,469.3775569994614,2.0,0.0,part_2,go,350.0,300.0,1.0,,,,,,,,,white,hexagon
0.0,6.0,2.0,1.0,6.0,0.0,0.0,2.0,0.0,part_2,stop,350.0,300.0,4.0,,,,,,,,,gray,I
0.0,8.0,4.0,1.0,6.0,6.0,462.730203999854,2.0,0.0,part_2,stop,350.0,350.0,3.0,,,,,,,,,cyan,flipped triangle
0.0,3.0,3.0,0.0,5.0,5.0,608.482895000634,2.0,0.0,part_2,go,350.0,300.0,1.0,,,,,,,,,green,diamond
0.0,3.0,3.0,0.0,6.0,6.0,599.9989350002579,2.0,0.0,part_2,go,350.0,300.0,1.0,,,,,,,,,green,diamond
0.0,6.0,2.0,1.0,5.0,0.0,0.0,2.0,0.0,part_2,stop,350.0,300.0,4.0,,,,,,,,,gray,I
0.0,7.0,3.0,1.0,6.0,0.0,0.0,2.0,0.0,part_2,stop,400.0,300.0,4.0,,,,,,,,,magenta,cross
0.0,6.0,2.0,1.0,6.0,0.0,0.0,2.0,0.0,part_2,stop,400.0,350.0,4.0,,,,,,,,,gray,I
0.0,3.0,3.0,0.0,6.0,6.0,600.3254249999372,2.0,0.0,part_2,go,400.0,400.0,1.0,,,,,,,,,green,diamond
0.0,1.0,1.0,0.0,5.0,5.0,356.6133240001363,2.0,0.0,part_2,go,400.0,400.0,1.0,,,,,,,,,yellow,square
0.0,4.0,4.0,0.0,6.0,6.0,629.0020309997999,2.0,0.0,part_2,go,400.0,400.0,1.0,,,,,,,,,white,hexagon
0.0,6.0,2.0,1.0,5.0,5.0,367.6505359999282,2.0,0.0,part_2,stop,400.0,400.0,3.0,,,,,,,,,gray,I
0.0,2.0,2.0,0.0,6.0,6.0,495.413071999792,2.0,0.0,part_2,go,350.0,400.0,1.0,,,,,,,,,orange,triangle
0.0,3.0,3.0,0.0,5.0,5.0,421.925442000429,2.0,0.0,part_2,go,350.0,400.0,1.0,,,,,,,,,green,diamond
0.0,7.0,3.0,1.0,6.0,6.0,394.7125670001696,2.0,0.0,part_2,go,350.0,400.0,1.0,,,,,,,,,magenta,cross
0.0,6.0,2.0,1.0,6.0,6.0,386.2930099994628,2.0,0.0,part_2,go,350.0,400.0,1.0,,,,,,,,,gray,I
0.0,1.0,1.0,0.0,6.0,6.0,479.5580209993204,2.0,0.0,part_2,go,350.0,400.0,1.0,,,,,,,,,yellow,square
0.0,6.0,2.0,1.0,5.0,5.0,410.1051039997401,2.0,0.0,part_2,stop,350.0,400.0,3.0,,,,,,,,,gray,I
0.0,8.0,4.0,1.0,5.0,5.0,368.0067109999072,2.0,0.0,part_2,stop,300.0,400.0,3.0,,,,,,,,,cyan,flipped triangle
0.0,1.0,1.0,0.0,6.0,6.0,403.8017810007659,2.0,0.0,part_2,go,250.0,400.0,1.0,,,,,,,,,yellow,square
0.0,8.0,4.0,1.0,5.0,5.0,666.670296999655,2.0,0.0,part_2,go,250.0,400.0,1.0,,,,,,,,,cyan,flipped triangle
0.0,2.0,2.0,0.0,6.0,6.0,628.2428150007036,2.0,0.0,part_2,go,250.0,400.0,1.0,,,,,,,,,orange,triangle
0.0,8.0,4.0,1.0,6.0,6.0,511.15220799965755,2.0,0.0,part_2,stop,250.0,400.0,3.0,,,,,,,,,cyan,flipped triangle
0.0,8.0,4.0,1.0,6.0,6.0,533.3155839998653,2.0,0.0,part_2,go,250.0,350.0,1.0,,,,,,,,,cyan,flipped triangle
0.0,8.0,4.0,1.0,6.0,6.0,383.5043150002093,2.0,0.0,part_2,stop,250.0,350.0,3.0,,,,,,,,,cyan,flipped triangle
0.0,1.0,1.0,0.0,6.0,6.0,891.8482769995535,3.0,0.0,part_2,go,250.0,300.0,1.0,,,,,,,,,yellow,square
0.0,4.0,4.0,0.0,5.0,5.0,377.4926969999796,3.0,0.0,part_2,go,250.0,300.0,1.0,,,,,,,,,white,hexagon
0.0,5.0,1.0,1.0,6.0,6.0,339.5864739995886,3.0,0.0,part_2,stop,250.0,300.0,3.0,,,,,,,,,blue,circle
0.0,4.0,4.0,0.0,5.0,5.0,319.1804520001824,3.0,0.0,part_2,go,250.0,250.0,1.0,,,,,,,,,white,hexagon
0.0,6.0,2.0,1.0,5.0,5.0,394.5740890003435,3.0,0.0,part_2,go,250.0,250.0,1.0,,,,,,,,,gray,I
0.0,7.0,3.0,1.0,6.0,6.0,445.7882730002893,3.0,0.0,part_2,stop,250.0,250.0,3.0,,,,,,,,,magenta,cross
0.0,2.0,2.0,0.0,5.0,5.0,394.0655930000503,3.0,0.0,part_2,go,250.0,200.0,1.0,,,,,,,,,orange,triangle
0.0,7.0,3.0,1.0,6.0,6.0,441.753919999428,3.0,0.0,part_2,go,250.0,200.0,1.0,,,,,,,,,magenta,cross
0.0,8.0,4.0,1.0,6.0,0.0,0.0,3.0,0.0,part_2,stop,250.0,200.0,4.0,,,,,,,,,cyan,flipped triangle
0.0,7.0,3.0,1.0,5.0,0.0,0.0,3.0,0.0,part_2,stop,250.0,250.0,4.0,,,,,,,,,magenta,cross
0.0,4.0,4.0,0.0,5.0,5.0,440.7492269992872,3.0,0.0,part_2,go,300.0,250.0,1.0,,,,,,,,,white,hexagon
0.0,3.0,3.0,0.0,6.0,6.0,620.2364529999613,3.0,0.0,part_2,go,300.0,250.0,1.0,,,,,,,,,green,diamond
0.0,7.0,3.0,1.0,5.0,5.0,358.6312100005671,3.0,0.0,part_2,stop,300.0,250.0,3.0,,,,,,,,,magenta,cross
0.0,1.0,1.0,0.0,5.0,5.0,367.7796580004724,3.0,0.0,part_2,go,250.0,250.0,1.0,,,,,,,,,yellow,square
0.0,7.0,3.0,1.0,6.0,0.0,0.0,3.0,0.0,part_2,stop,250.0,250.0,4.0,,,,,,,,,magenta,cross
0.0,5.0,1.0,1.0,5.0,0.0,0.0,3.0,0.0,part_2,stop,250.0,300.0,4.0,,,,,,,,,blue,circle
0.0,4.0,4.0,0.0,6.0,6.0,440.543413999876,3.0,0.0,part_2,go,300.0,300.0,1.0,,,,,,,,,white,hexagon
0.0,5.0,1.0,1.0,5.0,5.0,347.8038809998907,3.0,0.0,part_2,go,300.0,300.0,1.0,,,,,,,,,blue,circle
0.0,2.0,2.0,0.0,6.0,6.0,658.0320379998739,3.0,0.0,part_2,go,300.0,300.0,1.0,,,,,,,,,orange,triangle
0.0,3.0,3.0,0.0,6.0,6.0,385.4717619997245,3.0,0.0,part_2,go,300.0,300.0,1.0,,,,,,,,,green,diamond
0.0,8.0,4.0,1.0,6.0,6.0,383.8560670001243,3.0,0.0,part_2,stop,300.0,300.0,3.0,,,,,,,,,cyan,flipped triangle
0.0,6.0,2.0,1.0,6.0,6.0,355.562383000688,3.0,0.0,part_2,stop,300.0,250.0,3.0,,,,,,,,,gray,I
0.0,5.0,1.0,1.0,5.0,5.0,391.5892949999033,3.0,0.0,part_2,stop,300.0,200.0,3.0,,,,,,,,,blue,circle
0.0,3.0,3.0,0.0,5.0,5.0,441.3809960005892,3.0,0.0,part_2,go,250.0,200.0,1.0,,,,,,,,,green,diamond
0.0,1.0,1.0,0.0,5.0,5.0,395.8452610004315,3.0,0.0,part_2,go,250.0,200.0,1.0,,,,,,,,,yellow,square
0.0,4.0,4.0,0.0,5.0,5.0,403.3822790006525,3.0,0.0,part_2,go,250.0,200.0,1.0,,,,,,,,,white,hexagon
0.0,2.0,2.0,0.0,6.0,6.0,497.2629200001393,3.0,0.0,part_2,go,250.0,200.0,1.0,,,,,,,,,orange,triangle
0.0,3.0,3.0,0.0,5.0,5.0,376.3663560002896,3.0,0.0,part_2,go,250.0,200.0,1.0,,,,,,,,,green,diamond
0.0,8.0,4.0,1.0,6.0,0.0,0.0,3.0,0.0,part_2,stop,250.0,200.0,4.0,,,,,,,,,cyan,flipped triangle
0.0,6.0,2.0,1.0,6.0,6.0,450.2013889996306,3.0,0.0,part_2,go,250.0,250.0,1.0,,,,,,,,,gray,I
0.0,3.0,3.0,0.0,5.0,5.0,348.1180449998646,3.0,0.0,part_2,go,250.0,250.0,1.0,,,,,,,,,green,diamond
0.0,7.0,3.0,1.0,5.0,5.0,380.2803049993599,3.0,0.0,part_2,stop,250.0,250.0,3.0,,,,,,,,,magenta,cross
0.0,4.0,4.0,0.0,5.0,5.0,338.5298189996319,3.0,0.0,part_2,go,200.0,250.0,1.0,,,,,,,,,white,hexagon
0.0,4.0,4.0,0.0,6.0,6.0,413.1687400004011,3.0,0.0,part_2,go,200.0,250.0,1.0,,,,,,,,,white,hexagon
0.0,1.0,1.0,0.0,5.0,5.0,412.9379719997814,3.0,0.0,part_2,go,200.0,250.0,1.0,,,,,,,,,yellow,square
0.0,6.0,2.0,1.0,6.0,0.0,0.0,3.0,0.0,part_2,stop,200.0,250.0,4.0,,,,,,,,,gray,I
0.0,5.0,1.0,1.0,6.0,6.0,590.443451000283,4.0,0.0,part_2,stop,200.0,300.0,3.0,,,,,,,,,blue,circle
0.0,7.0,3.0,1.0,6.0,6.0,430.82718200003,4.0,0.0,part_2,go,200.0,250.0,1.0,,,,,,,,,magenta,cross
0.0,7.0,3.0,1.0,5.0,5.0,389.7274529999777,4.0,0.0,part_2,stop,200.0,250.0,3.0,,,,,,,,,magenta,cross
0.0,8.0,4.0,1.0,5.0,5.0,437.7439549998598,4.0,0.0,part_2,stop,150.0,250.0,3.0,,,,,,,,,cyan,flipped triangle
0.0,6.0,2.0,1.0,5.0,0.0,0.0,4.0,0.0,part_2,stop,100.0,250.0,4.0,,,,,,,,,gray,I
0.0,3.0,3.0,0.0,5.0,5.0,370.9263040000223,4.0,0.0,part_2,go,150.0,250.0,1.0,,,,,,,,,green,diamond
0.0,1.0,1.0,0.0,6.0,6.0,394.5914529995207,4.0,0.0,part_2,go,150.0,250.0,1.0,,,,,,,,,yellow,square
0.0,3.0,3.0,0.0,6.0,6.0,385.11600899983017,4.0,0.0,part_2,go,150.0,250.0,1.0,,,,,,,,,green,diamond
0.0,1.0,1.0,0.0,6.0,6.0,394.9114010001722,4.0,0.0,part_2,go,150.0,250.0,1.0,,,,,,,,,yellow,square
0.0,4.0,4.0,0.0,6.0,6.0,440.5710459996044,4.0,0.0,part_2,go,150.0,250.0,1.0,,,,,,,,,white,hexagon
0.0,8.0,4.0,1.0,5.0,0.0,0.0,4.0,0.0,part_2,stop,150.0,250.0,4.0,,,,,,,,,cyan,flipped triangle
0.0,1.0,1.0,0.0,6.0,6.0,375.18040499981,4.0,0.0,part_2,go,200.0,250.0,1.0,,,,,,,,,yellow,square
0.0,2.0,2.0,0.0,5.0,5.0,609.4665199998417,4.0,0.0,part_2,go,200.0,250.0,1.0,,,,,,,,,orange,triangle
0.0,3.0,3.0,0.0,5.0,5.0,600.4647039999327,4.0,0.0,part_2,go,200.0,250.0,1.0,,,,,,,,,green,diamond
0.0,8.0,4.0,1.0,5.0,5.0,374.8753099998794,4.0,0.0,part_2,stop,200.0,250.0,3.0,,,,,,,,,cyan,flipped triangle
0.0,4.0,4.0,0.0,6.0,6.0,366.7464739992283,4.0,0.0,part_2,go,150.0,250.0,1.0,,,,,,,,,white,hexagon
0.0,6.0,2.0,1.0,6.0,6.0,440.864455999872,4.0,0.0,part_2,go,150.0,250.0,1.0,,,,,,,,,gray,I
0.0,7.0,3.0,1.0,6.0,6.0,430.4728600000089,4.0,0.0,part_2,stop,150.0,250.0,3.0,,,,,,,,,magenta,cross
0.0,2.0,2.0,0.0,6.0,6.0,581.5444709996882,4.0,0.0,part_2,go,150.0,200.0,1.0,,,,,,,,,orange,triangle
0.0,6.0,2.0,1.0,6.0,0.0,0.0,4.0,0.0,part_2,stop,150.0,200.0,4.0,,,,,,,,,gray,I
0.0,2.0,2.0,0.0,5.0,5.0,829.1005909995874,4.0,0.0,part_2,go,150.0,250.0,1.0,,,,,,,,,orange,triangle
0.0,5.0,1.0,1.0,5.0,0.0,0.0,4.0,0.0,part_2,stop,150.0,250.0,4.0,,,,,,,,,blue,circle
0.0,5.0,1.0,1.0,6.0,0.0,0.0,4.0,0.0,part_2,stop,200.0,250.0,4.0,,,,,,,,,blue,circle
0.0,7.0,3.0,1.0,5.0,5.0,375.808791000054,4.0,0.0,part_2,go,200.0,300.0,1.0,,,,,,,,,magenta,cross
0.0,3.0,3.0,0.0,6.0,6.0,600.613562000035,4.0,0.0,part_2,go,200.0,300.0,1.0,,,,,,,,,green,diamond
0.0,4.0,4.0,0.0,5.0,5.0,317.5464249998185,4.0,0.0,part_2,go,200.0,300.0,1.0,,,,,,,,,white,hexagon
0.0,8.0,4.0,1.0,5.0,5.0,403.2019939995734,4.0,0.0,part_2,stop,200.0,300.0,3.0,,,,,,,,,cyan,flipped triangle
0.0,4.0,4.0,0.0,5.0,5.0,376.3919450002504,4.0,0.0,part_2,go,150.0,300.0,1.0,,,,,,,,,white,hexagon
0.0,4.0,4.0,0.0,6.0,6.0,405.1662329993633,4.0,0.0,part_2,go,150.0,300.0,1.0,,,,,,,,,white,hexagon
0.0,8.0,4.0,1.0,6.0,6.0,367.7365159992405,4.0,0.0,part_2,stop,150.0,300.0,3.0,,,,,,,,,cyan,flipped triangle
0.0,4.0,4.0,0.0,6.0,6.0,430.6396949996269,4.0,0.0,part_2,go,150.0,250.0,1.0,,,,,,,,,white,hexagon
0.0,3.0,3.0,0.0,5.0,5.0,405.7041260002734,4.0,0.0,part_2,go,150.0,250.0,1.0,,,,,,,,,green,diamond
0.0,2.0,2.0,0.0,6.0,6.0,533.9774800004307,4.0,0.0,part_2,go,150.0,250.0,1.0,,,,,,,,,orange,triangle
0.0,5.0,1.0,1.0,5.0,0.0,0.0,4.0,0.0,part_2,stop,150.0,250.0,4.0,,,,,,,,,blue,circle
0.0,6.0,2.0,1.0,5.0,5.0,412.6322570000411,4.0,0.0,part_2,go,200.0,250.0,1.0,,,,,,,,,gray,I
0.0,4.0,4.0,0.0,5.0,5.0,410.8157600003324,4.0,0.0,part_2,go,200.0,250.0,1.0,,,,,,,,,white,hexagon
0.0,3.0,3.0,0.0,5.0,5.0,393.9971199997671,5.0,0.0,part_2,go,200.0,250.0,1.0,,,,,,,,,green,diamond
0.0,8.0,4.0,1.0,5.0,5.0,422.1511770001598,5.0,0.0,part_2,stop,200.0,250.0,3.0,,,,,,,,,cyan,flipped triangle
0.0,8.0,4.0,1.0,5.0,0.0,0.0,5.0,0.0,part_2,stop,150.0,250.0,4.0,,,,,,,,,cyan,flipped triangle
0.0,1.0,1.0,0.0,5.0,5.0,432.0018999997046,5.0,0.0,part_2,go,200.0,250.0,1.0,,,,,,,,,yellow,square
0.0,1.0,1.0,0.0,6.0,6.0,449.9475160000656,5.0,0.0,part_2,go,200.0,250.0,1.0,,,,,,,,,yellow,square
0.0,7.0,3.0,1.0,5.0,5.0,335.4747410003256,5.0,0.0,part_2,stop,200.0,250.0,3.0,,,,,,,,,magenta,cross
0.0,8.0,4.0,1.0,6.0,6.0,550.9647729995777,5.0,0.0,part_2,go,150.0,250.0,1.0,,,,,,,,,cyan,flipped triangle
0.0,2.0,2.0,0.0,6.0,6.0,559.976576999361,5.0,0.0,part_2,go,150.0,250.0,1.0,,,,,,,,,orange,triangle
0.0,7.0,3.0,1.0,6.0,6.0,375.5930879997322,5.0,0.0,part_2,go,150.0,250.0,1.0,,,,,,,,,magenta,cross
0.0,4.0,4.0,0.0,6.0,6.0,385.0585709997176,5.0,0.0,part_2,go,150.0,250.0,1.0,,,,,,,,,white,hexagon
0.0,5.0,1.0,1.0,5.0,5.0,396.2444489998233,5.0,0.0,part_2,stop,150.0,250.0,3.0,,,,,,,,,blue,circle
0.0,2.0,2.0,0.0,6.0,6.0,385.4866689998744,5.0,0.0,part_2,go,100.0,250.0,1.0,,,,,,,,,orange,triangle
0.0,6.0,2.0,1.0,6.0,6.0,449.5482689999335,5.0,0.0,part_2,stop,100.0,250.0,3.0,,,,,,,,,gray,I
0.0,5.0,1.0,1.0,6.0,6.0,599.1238560000056,5.0,0.0,part_2,go,100.0,200.0,1.0,,,,,,,,,blue,circle
0.0,7.0,3.0,1.0,5.0,0.0,0.0,5.0,0.0,part_2,stop,100.0,200.0,4.0,,,,,,,,,magenta,cross
0.0,2.0,2.0,0.0,5.0,5.0,328.7645919999704,5.0,0.0,part_2,go,150.0,200.0,1.0,,,,,,,,,orange,triangle
0.0,1.0,1.0,0.0,5.0,5.0,477.6505969994105,5.0,0.0,part_2,go,150.0,200.0,1.0,,,,,,,,,yellow,square
0.0,4.0,4.0,0.0,6.0,6.0,441.6535700001986,5.0,0.0,part_2,go,150.0,200.0,1.0,,,,,,,,,white,hexagon
0.0,8.0,4.0,1.0,6.0,6.0,430.8778659997188,5.0,0.0,part_2,stop,150.0,200.0,3.0,,,,,,,,,cyan,flipped triangle
0.0,1.0,1.0,0.0,5.0,5.0,439.153107000493,5.0,0.0,part_2,go,150.0,150.0,1.0,,,,,,,,,yellow,square
0.0,2.0,2.0,0.0,5.0,5.0,403.7630060001902,5.0,0.0,part_2,go,150.0,150.0,1.0,,,,,,,,,orange,triangle
0.0,1.0,1.0,0.0,5.0,5.0,803.7956740008667,5.0,0.0,part_2,go,150.0,150.0,1.0,,,,,,,,,yellow,square
0.0,7.0,3.0,1.0,6.0,5.0,714.2510690000563,5.0,0.0,part_2,stop,150.0,150.0,3.0,,,,,,,,,magenta,cross
0.0,6.0,2.0,1.0,5.0,5.0,359.9017690003165,5.0,0.0,part_2,stop,150.0,100.0,3.0,,,,,,,,,gray,I
0.0,2.0,2.0,0.0,5.0,5.0,514.9176270006137,5.0,0.0,part_2,go,100.0,100.0,1.0,,,,,,,,,orange,triangle
0.0,1.0,1.0,0.0,5.0,5.0,412.5295510002615,5.0,0.0,part_2,go,100.0,100.0,1.0,,,,,,,,,yellow,square
0.0,3.0,3.0,0.0,6.0,6.0,439.994053999726,5.0,0.0,part_2,go,100.0,100.0,1.0,,,,,,,,,green,diamond
0.0,1.0,1.0,0.0,6.0,6.0,401.0949310004434,5.0,0.0,part_2,go,100.0,100.0,1.0,,,,,,,,,yellow,square
0.0,1.0,1.0,0.0,5.0,5.0,347.6120300001639,5.0,0.0,part_2,go,100.0,100.0,1.0,,,,,,,,,yellow,square
0.0,2.0,2.0,0.0,5.0,5.0,339.299461000337,5.0,0.0,part_2,go,100.0,100.0,1.0,,,,,,,,,orange,triangle
0.0,5.0,1.0,1.0,6.0,6.0,420.0088799998411,5.0,0.0,part_2,stop,100.0,100.0,3.0,,,,,,,,,blue,circle
0.0,8.0,4.0,1.0,5.0,0.0,0.0,5.0,0.0,part_2,stop,100.0,50.0,4.0,,,,,,,,,cyan,flipped triangle
0.0,3.0,3.0,0.0,5.0,5.0,552.992288000496,5.0,0.0,part_2,go,150.0,50.0,1.0,,,,,,,,,green,diamond
0.0,1.0,1.0,0.0,6.0,6.0,496.0247730004994,5.0,0.0,part_2,go,150.0,50.0,1.0,,,,,,,,,yellow,square
0.0,5.0,1.0,1.0,6.0,0.0,0.0,5.0,0.0,part_2,stop,150.0,50.0,4.0,,,,,,,,,blue,circle
0.0,7.0,3.0,1.0,6.0,0.0,0.0,5.0,0.0,part_2,stop,150.0,100.0,4.0,,,,,,,,,magenta,cross
0.0,6.0,2.0,1.0,5.0,5.0,507.2025650006253,6.0,0.0,part_2,go,150.0,150.0,1.0,,,,,,,,,gray,I
0.0,6.0,2.0,1.0,5.0,5.0,468.9040120001664,6.0,0.0,part_2,go,150.0,150.0,1.0,,,,,,,,,gray,I
0.0,3.0,3.0,0.0,6.0,6.0,393.7910029999329,6.0,0.0,part_2,go,150.0,150.0,1.0,,,,,,,,,green,diamond
0.0,5.0,1.0,1.0,6.0,6.0,386.0464919998776,6.0,0.0,part_2,go,150.0,150.0,1.0,,,,,,,,,blue,circle
0.0,4.0,4.0,0.0,5.0,5.0,397.2261380004056,6.0,0.0,part_2,go,150.0,150.0,1.0,,,,,,,,,white,hexagon
0.0,3.0,3.0,0.0,5.0,5.0,389.4534510000085,6.0,0.0,part_2,go,150.0,150.0,1.0,,,,,,,,,green,diamond
0.0,7.0,3.0,1.0,5.0,5.0,368.1778970003506,6.0,0.0,part_2,stop,150.0,150.0,3.0,,,,,,,,,magenta,cross
0.0,8.0,4.0,1.0,5.0,5.0,525.00999699987,6.0,0.0,part_2,go,100.0,150.0,1.0,,,,,,,,,cyan,flipped triangle
0.0,1.0,1.0,0.0,6.0,6.0,375.6693120003547,6.0,0.0,part_2,go,100.0,150.0,1.0,,,,,,,,,yellow,square
0.0,3.0,3.0,0.0,5.0,5.0,327.5920909991328,6.0,0.0,part_2,go,100.0,150.0,1.0,,,,,,,,,green,diamond
0.0,6.0,2.0,1.0,6.0,0.0,0.0,6.0,0.0,part_2,stop,100.0,150.0,4.0,,,,,,,,,gray,I
0.0,2.0,2.0,0.0,6.0,6.0,646.9334829998843,6.0,0.0,part_2,go,100.0,200.0,1.0,,,,,,,,,orange,triangle
0.0,6.0,2.0,1.0,6.0,0.0,0.0,6.0,0.0,part_2,stop,100.0,200.0,4.0,,,,,,,,,gray,I
0.0,4.0,4.0,0.0,6.0,6.0,477.642552999896,6.0,0.0,part_2,go,100.0,250.0,1.0,,,,,,,,,white,hexagon
0.0,1.0,1.0,0.0,5.0,5.0,430.8551710000756,6.0,0.0,part_2,go,100.0,250.0,1.0,,,,,,,,,yellow,square
0.0,6.0,2.0,1.0,5.0,0.0,0.0,6.0,0.0,part_2,stop,100.0,250.0,4.0,,,,,,,,,gray,I
0.0,4.0,4.0,0.0,6.0,6.0,498.5471100007999,6.0,0.0,part_2,go,150.0,250.0,1.0,,,,,,,,,white,hexagon
0.0,7.0,3.0,1.0,5.0,0.0,0.0,6.0,0.0,part_2,stop,150.0,250.0,4.0,,,,,,,,,magenta,cross
0.0,7.0,3.0,1.0,5.0,0.0,0.0,6.0,0.0,part_2,stop,200.0,250.0,4.0,,,,,,,,,magenta,cross
0.0,4.0,4.0,0.0,5.0,5.0,385.3509090004081,6.0,0.0,part_2,go,250.0,250.0,1.0,,,,,,,,,white,hexagon
0.0,2.0,2.0,0.0,5.0,5.0,384.3646989998888,6.0,0.0,part_2,go,250.0,250.0,1.0,,,,,,,,,orange,triangle
0.0,4.0,4.0,0.0,5.0,5.0,385.2093619998413,6.0,0.0,part_2,go,250.0,250.0,1.0,,,,,,,,,white,hexagon
0.0,4.0,4.0,0.0,6.0,6.0,422.0042830002057,6.0,0.0,part_2,go,250.0,250.0,1.0,,,,,,,,,white,hexagon
0.0,3.0,3.0,0.0,5.0,5.0,310.5835469996236,6.0,0.0,part_2,go,250.0,250.0,1.0,,,,,,,,,green,diamond
0.0,1.0,1.0,0.0,5.0,5.0,366.7893040001218,6.0,0.0,part_2,go,250.0,250.0,1.0,,,,,,,,,yellow,square
0.0,2.0,2.0,0.0,6.0,6.0,459.0774670004975,6.0,0.0,part_2,go,250.0,250.0,1.0,,,,,,,,,orange,triangle
0.0,8.0,4.0,1.0,6.0,6.0,462.1460130001651,6.0,0.0,part_2,stop,250.0,250.0,3.0,,,,,,,,,cyan,flipped triangle
0.0,6.0,2.0,1.0,5.0,5.0,310.9635310001977,6.0,0.0,part_2,stop,250.0,200.0,3.0,,,,,,,,,gray,I
0.0,3.0,3.0,0.0,6.0,6.0,469.532676000199,6.0,0.0,part_2,go,200.0,200.0,1.0,,,,,,,,,green,diamond
0.0,5.0,1.0,1.0,5.0,0.0,0.0,6.0,0.0,part_2,stop,200.0,200.0,4.0,,,,,,,,,blue,circle
0.0,6.0,2.0,1.0,6.0,0.0,0.0,6.0,0.0,part_2,stop,250.0,200.0,4.0,,,,,,,,,gray,I
0.0,3.0,3.0,0.0,6.0,6.0,385.7599810007741,6.0,0.0,part_2,go,250.0,250.0,1.0,,,,,,,,,green,diamond
0.0,1.0,1.0,0.0,5.0,5.0,347.121703999619,6.0,0.0,part_2,go,250.0,250.0,1.0,,,,,,,,,yellow,square
0.0,4.0,4.0,0.0,5.0,5.0,367.4680869999065,6.0,0.0,part_2,go,250.0,250.0,1.0,,,,,,,,,white,hexagon
0.0,7.0,3.0,1.0,5.0,5.0,413.9136710000457,6.0,0.0,part_2,go,250.0,250.0,1.0,,,,,,,,,magenta,cross
0.0,3.0,3.0,0.0,6.0,6.0,441.1580530004357,6.0,0.0,part_2,go,250.0,250.0,1.0,,,,,,,,,green,diamond
0.0,4.0,4.0,0.0,5.0,5.0,440.4647170003954,7.0,0.0,part_2,go,250.0,250.0,1.0,,,,,,,,,white,hexagon
0.0,7.0,3.0,1.0,5.0,0.0,0.0,7.0,0.0,part_2,stop,250.0,250.0,4.0,,,,,,,,,magenta,cross
0.0,5.0,1.0,1.0,6.0,6.0,327.6497769993511,7.0,0.0,part_2,stop,300.0,250.0,3.0,,,,,,,,,blue,circle
0.0,2.0,2.0,0.0,6.0,6.0,413.2359360000919,7.0,0.0,part_2,go,300.0,200.0,1.0,,,,,,,,,orange,triangle
0.0,2.0,2.0,0.0,5.0,5.0,415.1535539995166,7.0,0.0,part_2,go,300.0,200.0,1.0,,,,,,,,,orange,triangle
0.0,7.0,3.0,1.0,5.0,5.0,354.9975409996477,7.0,0.0,part_2,stop,300.0,200.0,3.0,,,,,,,,,magenta,cross
0.0,1.0,1.0,0.0,6.0,6.0,580.5956789999982,7.0,0.0,part_2,go,250.0,200.0,1.0,,,,,,,,,yellow,square
0.0,4.0,4.0,0.0,6.0,6.0,563.864853999803,7.0,0.0,part_2,go,250.0,200.0,1.0,,,,,,,,,white,hexagon
0.0,6.0,2.0,1.0,5.0,5.0,430.355198000143,7.0,0.0,part_2,go,250.0,200.0,1.0,,,,,,,,,gray,I
0.0,1.0,1.0,0.0,5.0,5.0,506.51672200001485,7.0,0.0,part_2,go,250.0,200.0,1.0,,,,,,,,,yellow,square
0.0,8.0,4.0,1.0,5.0,5.0,338.3188440002413,7.0,0.0,part_2,stop,250.0,200.0,3.0,,,,,,,,,cyan,flipped triangle
0.0,3.0,3.0,0.0,5.0,5.0,393.1714600003033,7.0,0.0,part_2,go,200.0,200.0,1.0,,,,,,,,,green,diamond
0.0,2.0,2.0,0.0,5.0,5.0,402.3727740004688,7.0,0.0,part_2,go,200.0,200.0,1.0,,,,,,,,,orange,triangle
0.0,3.0,3.0,0.0,6.0,6.0,393.3814990004975,7.0,0.0,part_2,go,200.0,200.0,1.0,,,,,,,,,green,diamond
0.0,2.0,2.0,0.0,5.0,5.0,449.7459529993648,7.0,0.0,part_2,go,200.0,200.0,1.0,,,,,,,,,orange,triangle
0.0,1.0,1.0,0.0,6.0,6.0,431.4966969996021,7.0,0.0,part_2,go,200.0,200.0,1.0,,,,,,,,,yellow,square
0.0,8.0,4.0,1.0,6.0,6.0,374.7635879999507,7.0,0.0,part_2,go,200.0,200.0,1.0,,,,,,,,,cyan,flipped triangle
0.0,6.0,2.0,1.0,6.0,6.0,424.7362380001505,7.0,0.0,part_2,stop,200.0,200.0,3.0,,,,,,,,,gray,I
0.0,4.0,4.0,0.0,5.0,5.0,516.7727620000733,7.0,0.0,part_2,go,200.0,150.0,1.0,,,,,,,,,white,hexagon
0.0,3.0,3.0,0.0,5.0,5.0,374.6974940004293,7.0,0.0,part_2,go,200.0,150.0,1.0,,,,,,,,,green,diamond
0.0,2.0,2.0,0.0,6.0,6.0,376.1642459994618,7.0,0.0,part_2,go,200.0,150.0,1.0,,,,,,,,,orange,triangle
0.0,4.0,4.0,0.0,5.0,5.0,393.3295510005337,7.0,0.0,part_2,go,200.0,150.0,1.0,,,,,,,,,white,hexagon
0.0,1.0,1.0,0.0,6.0,6.0,402.338496000084,7.0,0.0,part_2,go,200.0,150.0,1.0,,,,,,,,,yellow,square
0.0,6.0,2.0,1.0,6.0,0.0,0.0,7.0,0.0,part_2,stop,200.0,150.0,4.0,,,,,,,,,gray,I
0.0,2.0,2.0,0.0,5.0,5.0,403.234018999683,7.0,0.0,part_2,go,200.0,200.0,1.0,,,,,,,,,orange,triangle
0.0,8.0,4.0,1.0,6.0,6.0,435.9805579997555,7.0,0.0,part_2,stop,200.0,200.0,3.0,,,,,,,,,cyan,flipped triangle
0.0,5.0,1.0,1.0,6.0,6.0,411.1215539996919,7.0,0.0,part_2,go,200.0,150.0,1.0,,,,,,,,,blue,circle
0.0,1.0,1.0,0.0,5.0,5.0,496.4717250004469,7.0,0.0,part_2,go,200.0,150.0,1.0,,,,,,,,,yellow,square
0.0,2.0,2.0,0.0,5.0,5.0,487.319189000118,7.0,0.0,part_2,go,200.0,150.0,1.0,,,,,,,,,orange,triangle
0.0,5.0,1.0,1.0,5.0,5.0,393.4514159991522,7.0,0.0,part_2,go,200.0,150.0,1.0,,,,,,,,,blue,circle
0.0,8.0,4.0,1.0,6.0,6.0,467.6980849999381,7.0,0.0,part_2,go,200.0,150.0,1.0,,,,,,,,,cyan,flipped triangle
0.0,4.0,4.0,0.0,6.0,6.0,525.3867219998938,7.0,0.0,part_2,go,200.0,150.0,1.0,,,,,,,,,white,hexagon
0.0,5.0,1.0,1.0,5.0,6.0,553.1020770004034,7.0,0.0,part_2,go,200.0,150.0,2.0,,,,,,,,,blue,circle
0.0,7.0,3.0,1.0,6.0,6.0,550.383786000566,7.0,0.0,part_2,stop,200.0,150.0,3.0,,,,,,,,,magenta,cross
0.0,3.0,3.0,0.0,6.0,6.0,430.3804290002517,7.0,0.0,part_2,go,200.0,100.0,1.0,,,,,,,,,green,diamond
0.0,6.0,2.0,1.0,6.0,6.0,404.2513929998677,7.0,0.0,part_2,stop,200.0,100.0,3.0,,,,,,,,,gray,I
0.0,3.0,3.0,0.0,6.0,6.0,419.7360469997875,8.0,0.0,part_2,go,200.0,50.0,1.0,,,,,,,,,green,diamond
0.0,2.0,2.0,0.0,5.0,5.0,477.1312640004908,8.0,0.0,part_2,go,200.0,50.0,1.0,,,,,,,,,orange,triangle
0.0,7.0,3.0,1.0,6.0,0.0,0.0,8.0,0.0,part_2,stop,200.0,50.0,4.0,,,,,,,,,magenta,cross
0.0,5.0,1.0,1.0,6.0,0.0,0.0,8.0,0.0,part_2,stop,200.0,100.0,4.0,,,,,,,,,blue,circle
0.0,6.0,2.0,1.0,5.0,0.0,0.0,8.0,0.0,part_2,stop,200.0,150.0,4.0,,,,,,,,,gray,I
0.0,2.0,2.0,0.0,6.0,6.0,468.7911669998357,8.0,0.0,part_2,go,250.0,150.0,1.0,,,,,,,,,orange,triangle
0.0,2.0,2.0,0.0,5.0,5.0,458.3161700002165,8.0,0.0,part_2,go,250.0,150.0,1.0,,,,,,,,,orange,triangle
0.0,4.0,4.0,0.0,6.0,6.0,452.0413730006112,8.0,0.0,part_2,go,250.0,150.0,1.0,,,,,,,,,white,hexagon
0.0,7.0,3.0,1.0,5.0,5.0,384.7528260002946,8.0,0.0,part_2,go,250.0,150.0,1.0,,,,,,,,,magenta,cross
0.0,5.0,1.0,1.0,6.0,0.0,0.0,8.0,0.0,part_2,stop,250.0,150.0,4.0,,,,,,,,,blue,circle
0.0,6.0,2.0,1.0,5.0,5.0,497.0799080001598,8.0,0.0,part_2,go,250.0,200.0,1.0,,,,,,,,,gray,I
0.0,5.0,1.0,1.0,6.0,6.0,445.4042620000109,8.0,0.0,part_2,stop,250.0,200.0,3.0,,,,,,,,,blue,circle
0.0,3.0,3.0,0.0,5.0,5.0,447.5626809999085,8.0,0.0,part_2,go,250.0,150.0,1.0,,,,,,,,,green,diamond
0.0,5.0,1.0,1.0,6.0,0.0,0.0,8.0,0.0,part_2,stop,250.0,150.0,4.0,,,,,,,,,blue,circle
0.0,2.0,2.0,0.0,5.0,5.0,505.7077620003838,8.0,0.0,part_2,go,250.0,200.0,1.0,,,,,,,,,orange,triangle
0.0,5.0,1.0,1.0,6.0,6.0,737.2335390000444,8.0,0.0,part_2,go,250.0,200.0,1.0,,,,,,,,,blue,circle
0.0,2.0,2.0,0.0,6.0,6.0,430.3840219999983,8.0,0.0,part_2,go,250.0,200.0,1.0,,,,,,,,,orange,triangle
0.0,3.0,3.0,0.0,6.0,6.0,468.0519040002764,8.0,0.0,part_2,go,250.0,200.0,1.0,,,,,,,,,green,diamond
0.0,5.0,1.0,1.0,5.0,0.0,0.0,8.0,0.0,part_2,stop,250.0,200.0,4.0,,,,,,,,,blue,circle
0.0,8.0,4.0,1.0,5.0,5.0,371.1285529998349,8.0,0.0,part_2,stop,300.0,200.0,3.0,,,,,,,,,cyan,flipped triangle
0.0,5.0,1.0,1.0,6.0,6.0,450.0837559999127,8.0,0.0,part_2,go,250.0,200.0,1.0,,,,,,,,,blue,circle
0.0,1.0,1.0,0.0,6.0,6.0,393.4440689999974,8.0,0.0,part_2,go,250.0,200.0,1.0,,,,,,,,,yellow,square
0.0,4.0,4.0,0.0,5.0,5.0,394.5235099999991,8.0,0.0,part_2,go,250.0,200.0,1.0,,,,,,,,,white,hexagon
0.0,8.0,4.0,1.0,5.0,5.0,457.9273899998952,8.0,0.0,part_2,go,250.0,200.0,1.0,,,,,,,,,cyan,flipped triangle
0.0,5.0,1.0,1.0,6.0,6.0,434.9897339998279,8.0,0.0,part_2,stop,250.0,200.0,3.0,,,,,,,,,blue,circle
0.0,2.0,2.0,0.0,6.0,6.0,468.3821650005484,8.0,0.0,part_2,go,250.0,150.0,1.0,,,,,,,,,orange,triangle
0.0,7.0,3.0,1.0,6.0,0.0,0.0,8.0,0.0,part_2,stop,250.0,150.0,4.0,,,,,,,,,magenta,cross
0.0,7.0,3.0,1.0,5.0,5.0,468.7497899994923,8.0,0.0,part_2,go,250.0,200.0,1.0,,,,,,,,,magenta,cross
0.0,4.0,4.0,0.0,5.0,5.0,403.5270080003101,8.0,0.0,part_2,go,250.0,200.0,1.0,,,,,,,,,white,hexagon
0.0,3.0,3.0,0.0,6.0,6.0,374.251758000355,8.0,0.0,part_2,go,250.0,200.0,1.0,,,,,,,,,green,diamond
0.0,6.0,2.0,1.0,5.0,5.0,432.5963960000081,8.0,0.0,part_2,stop,250.0,200.0,3.0,,,,,,,,,gray,I
0.0,5.0,1.0,1.0,5.0,0.0,0.0,8.0,0.0,part_2,stop,200.0,200.0,4.0,,,,,,,,,blue,circle
0.0,6.0,2.0,1.0,5.0,5.0,428.0764300001465,8.0,0.0,part_2,stop,250.0,200.0,3.0,,,,,,,,,gray,I
0.0,2.0,2.0,0.0,5.0,5.0,363.8306279999597,8.0,0.0,part_2,go,200.0,200.0,1.0,,,,,,,,,orange,triangle
0.0,6.0,2.0,1.0,6.0,6.0,469.3002270005308,8.0,0.0,part_2,stop,200.0,200.0,3.0,,,,,,,,,gray,I
0.0,8.0,4.0,1.0,6.0,0.0,0.0,8.0,0.0,part_2,stop,200.0,150.0,4.0,,,,,,,,,cyan,flipped triangle
0.0,2.0,2.0,0.0,7.0,5.0,3658.136893000119,1.0,1.0,part_3,go,0.0,0.0,0.0,865.0,5.0,173.0,519.0,1038.0,692.0,865.0,346.0,orange,triangle
0.0,5.0,1.0,1.0,7.0,2.0,2741.2224480003715,1.0,1.0,part_3,go,0.0,0.0,0.0,346.0,2.0,173.0,346.0,1038.0,519.0,865.0,692.0,blue,circle
0.0,5.0,1.0,1.0,7.0,4.0,2612.754775000212,1.0,1.0,part_3,go,0.0,0.0,0.0,865.0,5.0,692.0,519.0,1038.0,865.0,173.0,346.0,blue,circle
0.0,2.0,2.0,0.0,7.0,2.0,1447.9984139998123,1.0,1.0,part_3,go,0.0,0.0,0.0,865.0,5.0,1038.0,865.0,692.0,346.0,519.0,173.0,orange,triangle
0.0,8.0,4.0,1.0,7.0,1.0,1275.3886440004862,1.0,1.0,part_3,go,0.0,0.0,0.0,810.0,6.0,810.0,270.0,405.0,540.0,675.0,135.0,cyan,flipped triangle
0.0,1.0,1.0,0.0,7.0,5.0,1299.5722870000463,1.0,1.0,part_3,go,0.0,0.0,0.0,770.0,5.0,924.0,308.0,616.0,154.0,770.0,462.0,yellow,square
0.0,2.0,2.0,0.0,7.0,2.0,1132.4754870001923,1.0,1.0,part_3,go,0.0,0.0,0.0,1152.0,6.0,192.0,1152.0,384.0,576.0,768.0,960.0,orange,triangle
0.0,5.0,1.0,1.0,7.0,4.0,1294.2728879997958,1.0,1.0,part_3,go,0.0,0.0,0.0,616.0,4.0,924.0,154.0,770.0,616.0,308.0,462.0,blue,circle
0.0,4.0,4.0,0.0,7.0,6.0,1160.422341999947,1.0,1.0,part_3,go,0.0,0.0,0.0,173.0,1.0,865.0,519.0,1038.0,346.0,692.0,173.0,white,hexagon
0.0,3.0,3.0,0.0,7.0,5.0,1292.5637570006074,1.0,1.0,part_3,go,0.0,0.0,0.0,464.0,4.0,348.0,696.0,116.0,580.0,464.0,232.0,green,diamond
0.0,6.0,2.0,1.0,7.0,5.0,1409.3806600003518,1.0,1.0,part_3,go,0.0,0.0,0.0,308.0,2.0,462.0,616.0,770.0,154.0,308.0,924.0,gray,I
0.0,8.0,4.0,1.0,7.0,1.0,1003.0201800000214,1.0,1.0,part_3,go,0.0,0.0,0.0,580.0,5.0,580.0,232.0,348.0,696.0,116.0,464.0,cyan,flipped triangle
0.0,4.0,4.0,0.0,7.0,3.0,1114.5182509999358,1.0,1.0,part_3,go,0.0,0.0,0.0,232.0,2.0,464.0,580.0,232.0,348.0,696.0,116.0,white,hexagon
0.0,3.0,3.0,0.0,7.0,2.0,1460.3690419999111,1.0,1.0,part_3,go,0.0,0.0,0.0,1152.0,6.0,192.0,1152.0,384.0,576.0,768.0,960.0,green,diamond
0.0,3.0,3.0,0.0,7.0,6.0,986.3334210003812,1.0,1.0,part_3,go,0.0,0.0,0.0,540.0,4.0,405.0,135.0,675.0,270.0,810.0,540.0,green,diamond
0.0,2.0,2.0,0.0,7.0,2.0,1406.721970000035,1.0,1.0,part_3,go,0.0,0.0,0.0,675.0,5.0,405.0,675.0,270.0,810.0,540.0,135.0,orange,triangle
0.0,5.0,1.0,1.0,7.0,5.0,1227.245787999891,1.0,1.0,part_3,go,0.0,0.0,0.0,616.0,4.0,770.0,462.0,154.0,308.0,616.0,924.0,blue,circle
0.0,6.0,2.0,1.0,7.0,6.0,1098.5947280005348,1.0,1.0,part_3,go,0.0,0.0,0.0,116.0,1.0,464.0,232.0,348.0,580.0,696.0,116.0,gray,I
0.0,6.0,2.0,1.0,7.0,3.0,1782.159313000193,1.0,1.0,part_3,go,0.0,0.0,0.0,519.0,3.0,346.0,173.0,519.0,692.0,865.0,1038.0,gray,I
0.0,4.0,4.0,0.0,7.0,3.0,1414.9850619996869,1.0,1.0,part_3,go,0.0,0.0,0.0,384.0,2.0,1152.0,576.0,384.0,768.0,192.0,960.0,white,hexagon
0.0,8.0,4.0,1.0,7.0,4.0,1849.9211600001215,2.0,1.0,part_3,go,0.0,0.0,0.0,768.0,4.0,576.0,1152.0,384.0,768.0,192.0,960.0,cyan,flipped triangle
0.0,7.0,3.0,1.0,7.0,6.0,1321.890836000421,2.0,1.0,part_3,go,0.0,0.0,0.0,405.0,3.0,540.0,675.0,810.0,135.0,270.0,405.0,magenta,cross
0.0,1.0,1.0,0.0,7.0,4.0,2166.2968569999066,2.0,1.0,part_3,go,0.0,0.0,0.0,576.0,3.0,1152.0,768.0,192.0,576.0,960.0,384.0,yellow,square
0.0,3.0,3.0,0.0,7.0,4.0,1580.7693130000189,2.0,1.0,part_3,go,0.0,0.0,0.0,405.0,3.0,270.0,135.0,540.0,405.0,675.0,810.0,green,diamond
0.0,1.0,1.0,0.0,7.0,4.0,1246.7653019994032,2.0,1.0,part_3,go,0.0,0.0,0.0,770.0,5.0,616.0,154.0,462.0,770.0,924.0,308.0,yellow,square
0.0,5.0,1.0,1.0,7.0,2.0,1199.7467860001052,2.0,1.0,part_3,go,0.0,0.0,0.0,232.0,2.0,464.0,232.0,580.0,348.0,696.0,116.0,blue,circle
0.0,7.0,3.0,1.0,7.0,3.0,1385.942287999569,2.0,1.0,part_3,go,0.0,0.0,0.0,346.0,2.0,173.0,692.0,346.0,1038.0,865.0,519.0,magenta,cross
0.0,5.0,1.0,1.0,7.0,2.0,1058.3574550000776,2.0,1.0,part_3,go,0.0,0.0,0.0,270.0,2.0,675.0,270.0,540.0,405.0,135.0,810.0,blue,circle
0.0,4.0,4.0,0.0,7.0,4.0,1675.7575800002087,2.0,1.0,part_3,go,0.0,0.0,0.0,464.0,4.0,116.0,580.0,348.0,464.0,696.0,232.0,white,hexagon
0.0,5.0,1.0,1.0,7.0,2.0,1534.061566000673,2.0,1.0,part_3,go,0.0,0.0,0.0,384.0,2.0,576.0,384.0,192.0,960.0,768.0,1152.0,blue,circle
0.0,6.0,2.0,1.0,7.0,2.0,1793.3550429997922,2.0,1.0,part_3,go,0.0,0.0,0.0,576.0,3.0,768.0,576.0,960.0,384.0,1152.0,192.0,gray,I
0.0,3.0,3.0,0.0,7.0,1.0,2757.2518059996582,2.0,1.0,part_3,go,0.0,0.0,0.0,384.0,2.0,384.0,960.0,576.0,192.0,1152.0,768.0,green,diamond
0.0,7.0,3.0,1.0,7.0,6.0,2752.978649999932,2.0,1.0,part_3,go,0.0,0.0,0.0,462.0,3.0,770.0,154.0,308.0,616.0,924.0,462.0,magenta,cross
0.0,4.0,4.0,0.0,7.0,1.0,2610.5125809999663,2.0,1.0,part_3,go,0.0,0.0,0.0,270.0,2.0,270.0,810.0,405.0,135.0,540.0,675.0,white,hexagon
0.0,8.0,4.0,1.0,7.0,1.0,2179.7307349997936,2.0,1.0,part_3,go,0.0,0.0,0.0,865.0,5.0,865.0,1038.0,692.0,519.0,173.0,346.0,cyan,flipped triangle
0.0,5.0,1.0,1.0,7.0,1.0,3204.3847360000655,2.0,1.0,part_3,go,0.0,0.0,0.0,768.0,4.0,768.0,192.0,576.0,384.0,960.0,1152.0,blue,circle
0.0,2.0,2.0,0.0,7.0,1.0,2110.6086190002316,2.0,1.0,part_3,go,0.0,0.0,0.0,675.0,5.0,675.0,135.0,540.0,810.0,405.0,270.0,orange,triangle
0.0,8.0,4.0,1.0,7.0,1.0,3037.4265800001012,2.0,1.0,part_3,go,0.0,0.0,0.0,462.0,3.0,462.0,616.0,154.0,308.0,924.0,770.0,cyan,flipped triangle
0.0,1.0,1.0,0.0,7.0,3.0,3309.896026000388,2.0,1.0,part_3,go,0.0,0.0,0.0,692.0,4.0,346.0,173.0,692.0,1038.0,865.0,519.0,yellow,square
0.0,6.0,2.0,1.0,7.0,3.0,1514.9010810000618,2.0,1.0,part_3,go,0.0,0.0,0.0,464.0,4.0,348.0,232.0,464.0,696.0,116.0,580.0,gray,I
0.0,4.0,4.0,0.0,7.0,3.0,2026.6156419993422,3.0,1.0,part_3,go,0.0,0.0,0.0,384.0,2.0,1152.0,960.0,384.0,576.0,192.0,768.0,white,hexagon
0.0,6.0,2.0,1.0,7.0,5.0,3819.012992999887,3.0,1.0,part_3,go,0.0,0.0,0.0,346.0,2.0,519.0,1038.0,865.0,173.0,346.0,692.0,gray,I
0.0,7.0,3.0,1.0,7.0,5.0,3155.638504000308,3.0,1.0,part_3,go,0.0,0.0,0.0,768.0,4.0,960.0,576.0,192.0,384.0,768.0,1152.0,magenta,cross
0.0,7.0,3.0,1.0,7.0,3.0,2668.792814999506,3.0,1.0,part_3,go,0.0,0.0,0.0,696.0,6.0,232.0,116.0,696.0,580.0,348.0,464.0,magenta,cross
0.0,2.0,2.0,0.0,7.0,5.0,2817.558449999524,3.0,1.0,part_3,go,0.0,0.0,0.0,464.0,4.0,116.0,348.0,232.0,580.0,464.0,696.0,orange,triangle
0.0,5.0,1.0,1.0,7.0,2.0,3189.209235999442,3.0,1.0,part_3,go,0.0,0.0,0.0,580.0,5.0,116.0,580.0,232.0,696.0,348.0,464.0,blue,circle
0.0,2.0,2.0,0.0,7.0,4.0,2023.5706079993179,3.0,1.0,part_3,go,0.0,0.0,0.0,1152.0,6.0,384.0,768.0,960.0,1152.0,576.0,192.0,orange,triangle
0.0,7.0,3.0,1.0,7.0,2.0,1851.047926999854,3.0,1.0,part_3,go,0.0,0.0,0.0,576.0,3.0,192.0,576.0,768.0,384.0,960.0,1152.0,magenta,cross
0.0,1.0,1.0,0.0,7.0,5.0,1895.5291000002037,3.0,1.0,part_3,go,0.0,0.0,0.0,810.0,6.0,540.0,405.0,270.0,135.0,810.0,675.0,yellow,square
0.0,4.0,4.0,0.0,7.0,2.0,1694.97974099977,3.0,1.0,part_3,go,0.0,0.0,0.0,770.0,5.0,154.0,770.0,616.0,924.0,462.0,308.0,white,hexagon
0.0,3.0,3.0,0.0,7.0,6.0,3725.357680000343,3.0,1.0,part_3,go,0.0,0.0,0.0,692.0,4.0,865.0,519.0,1038.0,346.0,173.0,692.0,green,diamond
0.0,7.0,3.0,1.0,7.0,2.0,2632.4966319998566,3.0,1.0,part_3,go,0.0,0.0,0.0,540.0,4.0,810.0,540.0,135.0,405.0,675.0,270.0,magenta,cross
0.0,7.0,3.0,1.0,7.0,4.0,4093.9886910000496,3.0,1.0,part_3,go,0.0,0.0,0.0,232.0,2.0,580.0,348.0,696.0,232.0,464.0,116.0,magenta,cross
0.0,8.0,4.0,1.0,7.0,4.0,1828.7426930000947,3.0,1.0,part_3,go,0.0,0.0,0.0,464.0,4.0,580.0,116.0,232.0,464.0,696.0,348.0,cyan,flipped triangle
0.0,4.0,4.0,0.0,7.0,1.0,3039.895033999528,3.0,1.0,part_3,go,0.0,0.0,0.0,770.0,5.0,770.0,924.0,308.0,462.0,616.0,154.0,white,hexagon
0.0,6.0,2.0,1.0,7.0,5.0,2200.558579000244,3.0,1.0,part_3,go,0.0,0.0,0.0,405.0,3.0,270.0,540.0,675.0,135.0,405.0,810.0,gray,I
0.0,2.0,2.0,0.0,7.0,3.0,2110.651968999264,3.0,1.0,part_3,go,0.0,0.0,0.0,154.0,1.0,616.0,308.0,154.0,924.0,770.0,462.0,orange,triangle
0.0,3.0,3.0,0.0,7.0,2.0,1579.4106949997513,3.0,1.0,part_3,go,0.0,0.0,0.0,865.0,5.0,519.0,865.0,1038.0,692.0,346.0,173.0,green,diamond
0.0,5.0,1.0,1.0,7.0,1.0,1402.7204869998968,3.0,1.0,part_3,go,0.0,0.0,0.0,540.0,4.0,540.0,135.0,675.0,810.0,270.0,405.0,blue,circle
0.0,1.0,1.0,0.0,7.0,1.0,1173.5246110001754,3.0,1.0,part_3,go,0.0,0.0,0.0,519.0,3.0,519.0,173.0,865.0,1038.0,346.0,692.0,yellow,square
0.0,1.0,1.0,0.0,7.0,1.0,1810.9916229996088,4.0,1.0,part_3,go,0.0,0.0,0.0,580.0,5.0,580.0,232.0,696.0,348.0,116.0,464.0,yellow,square
0.0,6.0,2.0,1.0,7.0,6.0,1965.46169299927,4.0,1.0,part_3,go,0.0,0.0,0.0,270.0,2.0,675.0,810.0,540.0,405.0,135.0,270.0,gray,I
0.0,2.0,2.0,0.0,7.0,1.0,2027.9266320003444,4.0,1.0,part_3,go,0.0,0.0,0.0,616.0,4.0,616.0,924.0,154.0,770.0,462.0,308.0,orange,triangle
0.0,2.0,2.0,0.0,7.0,5.0,1625.4787130001205,4.0,1.0,part_3,go,0.0,0.0,0.0,464.0,4.0,116.0,580.0,696.0,348.0,464.0,232.0,orange,triangle
0.0,4.0,4.0,0.0,7.0,4.0,2514.5887379994747,4.0,1.0,part_3,go,0.0,0.0,0.0,540.0,4.0,135.0,675.0,270.0,540.0,405.0,810.0,white,hexagon
0.0,7.0,3.0,1.0,7.0,1.0,2842.66082799968,4.0,1.0,part_3,go,0.0,0.0,0.0,519.0,3.0,519.0,346.0,1038.0,173.0,865.0,692.0,magenta,cross
0.0,8.0,4.0,1.0,7.0,4.0,3008.240592999755,4.0,1.0,part_3,go,0.0,0.0,0.0,540.0,4.0,810.0,675.0,135.0,540.0,270.0,405.0,cyan,flipped triangle
0.0,1.0,1.0,0.0,7.0,3.0,1551.8019539995294,4.0,1.0,part_3,go,0.0,0.0,0.0,768.0,4.0,192.0,1152.0,768.0,960.0,384.0,576.0,yellow,square
0.0,1.0,1.0,0.0,7.0,3.0,1668.2844320002914,4.0,1.0,part_3,go,0.0,0.0,0.0,540.0,4.0,810.0,135.0,540.0,405.0,675.0,270.0,yellow,square
0.0,8.0,4.0,1.0,7.0,3.0,3718.459961000008,4.0,1.0,part_3,go,0.0,0.0,0.0,770.0,5.0,924.0,154.0,770.0,308.0,616.0,462.0,cyan,flipped triangle
0.0,3.0,3.0,0.0,7.0,4.0,2066.0714700006793,4.0,1.0,part_3,go,0.0,0.0,0.0,696.0,6.0,580.0,464.0,232.0,696.0,116.0,348.0,green,diamond
0.0,6.0,2.0,1.0,7.0,3.0,1282.09582800082,4.0,1.0,part_3,go,0.0,0.0,0.0,462.0,3.0,924.0,308.0,462.0,770.0,154.0,616.0,gray,I
0.0,8.0,4.0,1.0,7.0,2.0,1701.0356079999838,4.0,1.0,part_3,go,0.0,0.0,0.0,519.0,3.0,346.0,519.0,692.0,173.0,1038.0,865.0,cyan,flipped triangle
0.0,4.0,4.0,0.0,7.0,5.0,2926.5390479995403,4.0,1.0,part_3,go,0.0,0.0,0.0,692.0,4.0,346.0,519.0,1038.0,865.0,692.0,173.0,white,hexagon
0.0,6.0,2.0,1.0,7.0,2.0,2185.7784190005987,4.0,1.0,part_3,go,0.0,0.0,0.0,768.0,4.0,576.0,768.0,384.0,192.0,1152.0,960.0,gray,I
0.0,7.0,3.0,1.0,7.0,6.0,2587.5449629993454,4.0,1.0,part_3,go,0.0,0.0,0.0,616.0,4.0,770.0,462.0,924.0,308.0,154.0,616.0,magenta,cross
0.0,3.0,3.0,0.0,7.0,2.0,1415.6786359999387,4.0,1.0,part_3,go,0.0,0.0,0.0,770.0,5.0,462.0,770.0,308.0,616.0,924.0,154.0,green,diamond
0.0,3.0,3.0,0.0,7.0,4.0,1358.5557739997969,4.0,1.0,part_3,go,0.0,0.0,0.0,616.0,4.0,308.0,924.0,154.0,616.0,770.0,462.0,green,diamond
0.0,1.0,1.0,0.0,7.0,4.0,1376.0107600000993,4.0,1.0,part_3,go,0.0,0.0,0.0,580.0,5.0,348.0,116.0,696.0,580.0,232.0,464.0,yellow,square
0.0,8.0,4.0,1.0,7.0,2.0,2486.683281999831,4.0,1.0,part_3,go,0.0,0.0,0.0,768.0,4.0,384.0,768.0,576.0,192.0,1152.0,960.0,cyan,flipped triangle
