raw_reward_magnitude,stim_reward,stepwise_reward_magnitude,paired_with_stopping,quadrant,response,reaction_time,block,num_trial_presentations,which_part,stop_signal_trial_type,left_SSD,right_SSD,accuracy,chosen_bidding_amount,chosen_bidding_level,possible_bid_1,possible_bid_2,possible_bid_3,possible_bid_4,possible_bid_5,possible_bid_6,color_text,shape_text
1277.0,4.0,4.0,0.0,3.0,3.0,606.919256999845,1.0,1.0,part_1,,,,,,,,,,,,,gray,cross
1288.0,8.0,4.0,1.0,2.0,2.0,884.2685100000836,1.0,1.0,part_1,,,,,,,,,,,,,magenta,circle
151.0,5.0,1.0,1.0,3.0,3.0,416.8815400000767,1.0,1.0,part_1,,,,,,,,,,,,,yellow,hexagon
336.0,2.0,2.0,0.0,4.0,4.0,449.4096270000227,1.0,1.0,part_1,,,,,,,,,,,,,cyan,I
169.0,5.0,1.0,1.0,3.0,3.0,354.772998000044,1.0,1.0,part_1,,,,,,,,,,,,,yellow,hexagon
1304.0,8.0,4.0,1.0,2.0,2.0,381.3956500000586,1.0,1.0,part_1,,,,,,,,,,,,,magenta,circle
323.0,2.0,2.0,0.0,2.0,2.0,335.9848779998629,1.0,1.0,part_1,,,,,,,,,,,,,cyan,I
1293.0,8.0,4.0,1.0,3.0,3.0,280.2251549999255,1.0,1.0,part_1,,,,,,,,,,,,,magenta,circle
0.0,6.0,0.0,1.0,1.0,1.0,318.8478249999207,1.0,1.0,part_1,,,,,,,,,,,,,blue,diamond
1322.0,4.0,4.0,0.0,1.0,1.0,335.5663209999875,1.0,1.0,part_1,,,,,,,,,,,,,gray,cross
0.0,7.0,0.0,1.0,3.0,3.0,299.1547299998274,1.0,1.0,part_1,,,,,,,,,,,,,green,square
1314.0,4.0,4.0,0.0,2.0,2.0,298.2796070000404,1.0,1.0,part_1,,,,,,,,,,,,,gray,cross
149.0,5.0,1.0,1.0,1.0,1.0,299.5435259999794,1.0,1.0,part_1,,,,,,,,,,,,,yellow,hexagon
1322.0,8.0,4.0,1.0,4.0,4.0,373.4185079999861,1.0,2.0,part_1,,,,,,,,,,,,,magenta,circle
177.0,1.0,1.0,0.0,2.0,2.0,439.0595789998315,1.0,1.0,part_1,,,,,,,,,,,,,orange,triangle
350.0,2.0,2.0,0.0,3.0,3.0,355.4761860000326,1.0,1.0,part_1,,,,,,,,,,,,,cyan,I
0.0,6.0,0.0,1.0,1.0,1.0,317.2291700000187,1.0,1.0,part_1,,,,,,,,,,,,,blue,diamond
0.0,1.0,0.0,0.0,4.0,4.0,364.0261879997979,1.0,1.0,part_1,,,,,,,,,,,,,orange,triangle
328.0,6.0,2.0,1.0,1.0,1.0,392.5104039999496,1.0,1.0,part_1,,,,,,,,,,,,,blue,diamond
137.0,5.0,1.0,1.0,3.0,3.0,365.0392310000825,1.0,1.0,part_1,,,,,,,,,,,,,yellow,hexagon
1293.0,4.0,4.0,0.0,4.0,4.0,392.8167639999174,1.0,1.0,part_1,,,,,,,,,,,,,gray,cross
630.0,7.0,3.0,1.0,2.0,2.0,346.2436410000009,1.0,1.0,part_1,,,,,,,,,,,,,green,square
665.0,3.0,3.0,0.0,4.0,4.0,317.2795569998925,1.0,1.0,part_1,,,,,,,,,,,,,white,flipped triangle
302.0,6.0,2.0,1.0,3.0,3.0,290.8039849999113,1.0,1.0,part_1,,,,,,,,,,,,,blue,diamond
159.0,5.0,1.0,1.0,2.0,2.0,326.6140040000209,1.0,1.0,part_1,,,,,,,,,,,,,yellow,hexagon
0.0,4.0,0.0,0.0,2.0,2.0,364.1612409999197,1.0,1.0,part_1,,,,,,,,,,,,,gray,cross
312.0,2.0,2.0,0.0,3.0,3.0,326.5041009999549,1.0,1.0,part_1,,,,,,,,,,,,,cyan,I
674.0,7.0,3.0,1.0,1.0,1.0,336.0260150000158,1.0,1.0,part_1,,,,,,,,,,,,,green,square
657.0,3.0,3.0,0.0,1.0,1.0,372.6230830000077,1.0,1.0,part_1,,,,,,,,,,,,,white,flipped triangle
185.0,5.0,1.0,1.0,2.0,2.0,523.0013040002177,1.0,1.0,part_1,,,,,,,,,,,,,yellow,hexagon
0.0,8.0,0.0,1.0,4.0,4.0,410.3771540001162,1.0,1.0,part_1,,,,,,,,,,,,,magenta,circle
1281.0,8.0,4.0,1.0,4.0,4.0,410.3993390001506,1.0,1.0,part_1,,,,,,,,,,,,,magenta,circle
650.0,7.0,3.0,1.0,3.0,3.0,345.6441109999559,1.0,1.0,part_1,,,,,,,,,,,,,green,square
314.0,2.0,2.0,0.0,4.0,4.0,382.550689000027,1.0,1.0,part_1,,,,,,,,,,,,,cyan,I
337.0,6.0,2.0,1.0,1.0,1.0,372.8380149998429,1.0,1.0,part_1,,,,,,,,,,,,,blue,diamond
306.0,6.0,2.0,1.0,3.0,3.0,382.4478149999777,1.0,1.0,part_1,,,,,,,,,,,,,blue,diamond
642.0,3.0,3.0,0.0,1.0,1.0,355.0936070000716,1.0,1.0,part_1,,,,,,,,,,,,,white,flipped triangle
304.0,2.0,2.0,0.0,2.0,2.0,316.9781629999306,1.0,1.0,part_1,,,,,,,,,,,,,cyan,I
0.0,6.0,0.0,1.0,4.0,4.0,372.8200849998302,1.0,1.0,part_1,,,,,,,,,,,,,blue,diamond
152.0,1.0,1.0,0.0,1.0,1.0,364.1186859999834,1.0,1.0,part_1,,,,,,,,,,,,,orange,triangle
1283.0,4.0,4.0,0.0,3.0,3.0,364.1840640000282,1.0,1.0,part_1,,,,,,,,,,,,,gray,cross
350.0,6.0,2.0,1.0,3.0,3.0,373.2032200000503,1.0,1.0,part_1,,,,,,,,,,,,,blue,diamond
1315.0,4.0,4.0,0.0,3.0,3.0,327.0101900000099,1.0,1.0,part_1,,,,,,,,,,,,,gray,cross
304.0,6.0,2.0,1.0,4.0,4.0,345.5119820000618,1.0,1.0,part_1,,,,,,,,,,,,,blue,diamond
327.0,6.0,2.0,1.0,2.0,2.0,345.6794109999919,1.0,1.0,part_1,,,,,,,,,,,,,blue,diamond
1299.0,4.0,4.0,0.0,1.0,1.0,326.5432309999596,1.0,1.0,part_1,,,,,,,,,,,,,gray,cross
0.0,1.0,0.0,0.0,2.0,2.0,353.8681249999627,1.0,1.0,part_1,,,,,,,,,,,,,orange,triangle
161.0,1.0,1.0,0.0,4.0,4.0,391.775392999989,1.0,1.0,part_1,,,,,,,,,,,,,orange,triangle
158.0,5.0,1.0,1.0,4.0,4.0,373.4428600000683,1.0,1.0,part_1,,,,,,,,,,,,,yellow,hexagon
0.0,7.0,0.0,1.0,4.0,4.0,384.3420850000711,1.0,1.0,part_1,,,,,,,,,,,,,green,square
344.0,6.0,2.0,1.0,1.0,1.0,365.1869780001107,1.0,1.0,part_1,,,,,,,,,,,,,blue,diamond
169.0,1.0,1.0,0.0,3.0,3.0,411.3181790000908,1.0,1.0,part_1,,,,,,,,,,,,,orange,triangle
1292.0,8.0,4.0,1.0,2.0,2.0,345.238123999934,1.0,1.0,part_1,,,,,,,,,,,,,magenta,circle
641.0,3.0,3.0,0.0,4.0,4.0,392.1718159999727,1.0,1.0,part_1,,,,,,,,,,,,,white,flipped triangle
0.0,8.0,0.0,1.0,3.0,3.0,348.0546670000422,1.0,1.0,part_1,,,,,,,,,,,,,magenta,circle
0.0,5.0,0.0,1.0,2.0,2.0,335.4525740001008,1.0,1.0,part_1,,,,,,,,,,,,,yellow,hexagon
324.0,6.0,2.0,1.0,4.0,4.0,373.4399520001261,1.0,1.0,part_1,,,,,,,,,,,,,blue,diamond
155.0,1.0,1.0,0.0,4.0,4.0,402.8222199999618,1.0,1.0,part_1,,,,,,,,,,,,,orange,triangle
1304.0,4.0,4.0,0.0,4.0,4.0,372.7526279999438,1.0,1.0,part_1,,,,,,,,,,,,,gray,cross
0.0,8.0,0.0,1.0,2.0,2.0,383.455720000029,1.0,1.0,part_1,,,,,,,,,,,,,magenta,circle
0.0,6.0,0.0,1.0,4.0,4.0,355.7342849999259,1.0,1.0,part_1,,,,,,,,,,,,,blue,diamond
152.0,5.0,1.0,1.0,1.0,1.0,382.8677789999801,1.0,1.0,part_1,,,,,,,,,,,,,yellow,hexagon
642.0,7.0,3.0,1.0,1.0,1.0,344.1179569999804,1.0,1.0,part_1,,,,,,,,,,,,,green,square
659.0,7.0,3.0,1.0,2.0,2.0,363.1867990000046,1.0,1.0,part_1,,,,,,,,,,,,,green,square
345.0,2.0,2.0,0.0,1.0,1.0,347.1415460001026,1.0,1.0,part_1,,,,,,,,,,,,,cyan,I
1282.0,4.0,4.0,0.0,1.0,1.0,447.6800479999383,1.0,1.0,part_1,,,,,,,,,,,,,gray,cross
0.0,7.0,0.0,1.0,3.0,3.0,493.884780000144,1.0,1.0,part_1,,,,,,,,,,,,,green,square
1308.0,8.0,4.0,1.0,1.0,1.0,383.1914709999182,1.0,1.0,part_1,,,,,,,,,,,,,magenta,circle
152.0,1.0,1.0,0.0,2.0,2.0,344.4851619999554,1.0,1.0,part_1,,,,,,,,,,,,,orange,triangle
326.0,2.0,2.0,0.0,1.0,1.0,362.9033920001348,1.0,1.0,part_1,,,,,,,,,,,,,cyan,I
185.0,1.0,1.0,0.0,2.0,2.0,364.8962279999068,1.0,1.0,part_1,,,,,,,,,,,,,orange,triangle
0.0,1.0,0.0,0.0,4.0,4.0,412.795178000124,1.0,1.0,part_1,,,,,,,,,,,,,orange,triangle
649.0,3.0,3.0,0.0,2.0,2.0,383.2961200000682,1.0,1.0,part_1,,,,,,,,,,,,,white,flipped triangle
0.0,2.0,0.0,0.0,1.0,1.0,345.3746950001459,1.0,1.0,part_1,,,,,,,,,,,,,cyan,I
182.0,5.0,1.0,1.0,4.0,4.0,401.1576210000385,1.0,1.0,part_1,,,,,,,,,,,,,yellow,hexagon
338.0,2.0,2.0,0.0,4.0,4.0,391.1464889999934,1.0,1.0,part_1,,,,,,,,,,,,,cyan,I
673.0,3.0,3.0,0.0,3.0,3.0,447.8819840001051,1.0,1.0,part_1,,,,,,,,,,,,,white,flipped triangle
308.0,2.0,2.0,0.0,4.0,4.0,365.3546630000619,1.0,1.0,part_1,,,,,,,,,,,,,cyan,I
314.0,2.0,2.0,0.0,3.0,3.0,410.8608460001051,1.0,1.0,part_1,,,,,,,,,,,,,cyan,I
659.0,3.0,3.0,0.0,3.0,3.0,429.1819709999345,1.0,1.0,part_1,,,,,,,,,,,,,white,flipped triangle
308.0,6.0,2.0,1.0,4.0,4.0,363.5919270000158,1.0,1.0,part_1,,,,,,,,,,,,,blue,diamond
0.0,4.0,0.0,0.0,2.0,2.0,409.9849369999901,1.0,1.0,part_1,,,,,,,,,,,,,gray,cross
627.0,3.0,3.0,0.0,3.0,3.0,419.0650880000248,1.0,1.0,part_1,,,,,,,,,,,,,white,flipped triangle
659.0,3.0,3.0,0.0,3.0,3.0,344.8266810000859,1.0,1.0,part_1,,,,,,,,,,,,,white,flipped triangle
652.0,3.0,3.0,0.0,1.0,1.0,317.8698560000157,1.0,1.0,part_1,,,,,,,,,,,,,white,flipped triangle
1294.0,4.0,4.0,0.0,3.0,3.0,339.7686450000492,1.0,1.0,part_1,,,,,,,,,,,,,gray,cross
320.0,2.0,2.0,0.0,4.0,4.0,438.5521229999085,1.0,1.0,part_1,,,,,,,,,,,,,cyan,I
305.0,6.0,2.0,1.0,3.0,3.0,345.6601499999578,1.0,1.0,part_1,,,,,,,,,,,,,blue,diamond
644.0,3.0,3.0,0.0,1.0,1.0,345.984941000097,1.0,1.0,part_1,,,,,,,,,,,,,white,flipped triangle
185.0,1.0,1.0,0.0,3.0,3.0,355.2630530000442,1.0,1.0,part_1,,,,,,,,,,,,,orange,triangle
0.0,6.0,0.0,1.0,4.0,4.0,419.3352429999777,1.0,1.0,part_1,,,,,,,,,,,,,blue,diamond
673.0,3.0,3.0,0.0,2.0,2.0,346.6202130000511,1.0,1.0,part_1,,,,,,,,,,,,,white,flipped triangle
0.0,5.0,0.0,1.0,2.0,2.0,383.3535580001808,1.0,1.0,part_1,,,,,,,,,,,,,yellow,hexagon
332.0,6.0,2.0,1.0,2.0,2.0,298.343179000085,1.0,1.0,part_1,,,,,,,,,,,,,blue,diamond
163.0,5.0,1.0,1.0,2.0,2.0,336.6338659998291,1.0,1.0,part_1,,,,,,,,,,,,,yellow,hexagon
0.0,8.0,0.0,1.0,4.0,4.0,335.6305600000269,1.0,1.0,part_1,,,,,,,,,,,,,magenta,circle
645.0,3.0,3.0,0.0,4.0,4.0,354.5101049999175,1.0,1.0,part_1,,,,,,,,,,,,,white,flipped triangle
0.0,4.0,0.0,0.0,2.0,2.0,372.4476050001613,1.0,1.0,part_1,,,,,,,,,,,,,gray,cross
665.0,3.0,3.0,0.0,4.0,4.0,344.7399980000227,1.0,1.0,part_1,,,,,,,,,,,,,white,flipped triangle
308.0,2.0,2.0,0.0,2.0,2.0,308.2342440000047,1.0,1.0,part_1,,,,,,,,,,,,,cyan,I
645.0,7.0,3.0,1.0,3.0,3.0,364.5464280000396,2.0,1.0,part_1,,,,,,,,,,,,,green,square
0.0,3.0,0.0,0.0,2.0,2.0,354.8641299998962,2.0,1.0,part_1,,,,,,,,,,,,,white,flipped triangle
0.0,8.0,0.0,1.0,2.0,2.0,363.8879719999295,2.0,1.0,part_1,,,,,,,,,,,,,magenta,circle
0.0,7.0,0.0,1.0,1.0,1.0,355.3230370000619,2.0,1.0,part_1,,,,,,,,,,,,,green,square
174.0,1.0,1.0,0.0,2.0,2.0,364.5449409998491,2.0,1.0,part_1,,,,,,,,,,,,,orange,triangle
176.0,1.0,1.0,0.0,1.0,1.0,373.3805819999816,2.0,1.0,part_1,,,,,,,,,,,,,orange,triangle
1283.0,8.0,4.0,1.0,4.0,4.0,382.6014879998638,2.0,1.0,part_1,,,,,,,,,,,,,magenta,circle
341.0,2.0,2.0,0.0,1.0,1.0,495.089549000113,2.0,1.0,part_1,,,,,,,,,,,,,cyan,I
301.0,2.0,2.0,0.0,2.0,2.0,298.2824999999138,2.0,1.0,part_1,,,,,,,,,,,,,cyan,I
672.0,3.0,3.0,0.0,4.0,4.0,364.6007980000831,2.0,1.0,part_1,,,,,,,,,,,,,white,flipped triangle
305.0,2.0,2.0,0.0,1.0,1.0,356.3057080000362,2.0,1.0,part_1,,,,,,,,,,,,,cyan,I
173.0,1.0,1.0,0.0,3.0,3.0,383.5416370000075,2.0,1.0,part_1,,,,,,,,,,,,,orange,triangle
177.0,5.0,1.0,1.0,4.0,4.0,373.928787000068,2.0,1.0,part_1,,,,,,,,,,,,,yellow,hexagon
653.0,7.0,3.0,1.0,4.0,4.0,373.7957610001103,2.0,1.0,part_1,,,,,,,,,,,,,green,square
345.0,2.0,2.0,0.0,1.0,1.0,354.4001469999784,2.0,1.0,part_1,,,,,,,,,,,,,cyan,I
343.0,2.0,2.0,0.0,3.0,3.0,439.0183959999376,2.0,1.0,part_1,,,,,,,,,,,,,cyan,I
1315.0,8.0,4.0,1.0,1.0,1.0,381.7292239998551,2.0,1.0,part_1,,,,,,,,,,,,,magenta,circle
1310.0,4.0,4.0,0.0,3.0,3.0,410.9871360001307,2.0,1.0,part_1,,,,,,,,,,,,,gray,cross
631.0,7.0,3.0,1.0,1.0,1.0,335.0175329999274,2.0,1.0,part_1,,,,,,,,,,,,,green,square
1311.0,4.0,4.0,0.0,1.0,1.0,353.953120000142,2.0,1.0,part_1,,,,,,,,,,,,,gray,cross
638.0,7.0,3.0,1.0,3.0,3.0,310.059770999942,2.0,1.0,part_1,,,,,,,,,,,,,green,square
1286.0,4.0,4.0,0.0,2.0,2.0,326.565298000105,2.0,1.0,part_1,,,,,,,,,,,,,gray,cross
348.0,6.0,2.0,1.0,2.0,2.0,317.2477200000685,2.0,1.0,part_1,,,,,,,,,,,,,blue,diamond
166.0,1.0,1.0,0.0,1.0,1.0,382.6998240001558,2.0,1.0,part_1,,,,,,,,,,,,,orange,triangle
0.0,4.0,0.0,0.0,3.0,3.0,382.035131000066,2.0,1.0,part_1,,,,,,,,,,,,,gray,cross
163.0,1.0,1.0,0.0,4.0,4.0,401.6042539997215,2.0,1.0,part_1,,,,,,,,,,,,,orange,triangle
0.0,8.0,0.0,1.0,3.0,3.0,393.1245009998747,2.0,1.0,part_1,,,,,,,,,,,,,magenta,circle
1310.0,4.0,4.0,0.0,3.0,3.0,550.3289729999779,2.0,1.0,part_1,,,,,,,,,,,,,gray,cross
154.0,1.0,1.0,0.0,2.0,2.0,363.7490910000451,2.0,1.0,part_1,,,,,,,,,,,,,orange,triangle
641.0,7.0,3.0,1.0,1.0,1.0,344.384115000139,2.0,1.0,part_1,,,,,,,,,,,,,green,square
0.0,6.0,0.0,1.0,4.0,4.0,382.5899030002802,2.0,1.0,part_1,,,,,,,,,,,,,blue,diamond
148.0,1.0,1.0,0.0,1.0,1.0,391.4278029997149,2.0,1.0,part_1,,,,,,,,,,,,,orange,triangle
638.0,3.0,3.0,0.0,1.0,1.0,419.8609420000139,2.0,1.0,part_1,,,,,,,,,,,,,white,flipped triangle
634.0,3.0,3.0,0.0,1.0,1.0,380.9353480000936,2.0,1.0,part_1,,,,,,,,,,,,,white,flipped triangle
667.0,3.0,3.0,0.0,2.0,2.0,363.5488580002857,2.0,1.0,part_1,,,,,,,,,,,,,white,flipped triangle
1299.0,8.0,4.0,1.0,4.0,4.0,391.8056759998762,2.0,1.0,part_1,,,,,,,,,,,,,magenta,circle
1314.0,8.0,4.0,1.0,2.0,2.0,363.0541049997191,2.0,1.0,part_1,,,,,,,,,,,,,magenta,circle
176.0,5.0,1.0,1.0,1.0,1.0,344.927502000246,2.0,1.0,part_1,,,,,,,,,,,,,yellow,hexagon
160.0,1.0,1.0,0.0,1.0,1.0,355.1551509999626,2.0,1.0,part_1,,,,,,,,,,,,,orange,triangle
1300.0,4.0,4.0,0.0,2.0,2.0,353.9305330000388,2.0,1.0,part_1,,,,,,,,,,,,,gray,cross
0.0,2.0,0.0,0.0,2.0,2.0,335.0251060001028,2.0,1.0,part_1,,,,,,,,,,,,,cyan,I
0.0,1.0,0.0,0.0,4.0,4.0,346.0304549998909,2.0,1.0,part_1,,,,,,,,,,,,,orange,triangle
667.0,7.0,3.0,1.0,1.0,1.0,356.6113570000198,2.0,1.0,part_1,,,,,,,,,,,,,green,square
1311.0,8.0,4.0,1.0,1.0,1.0,354.1996829999334,2.0,1.0,part_1,,,,,,,,,,,,,magenta,circle
154.0,5.0,1.0,1.0,1.0,1.0,327.2922180003661,2.0,1.0,part_1,,,,,,,,,,,,,yellow,hexagon
0.0,7.0,0.0,1.0,2.0,2.0,363.128319000225,2.0,1.0,part_1,,,,,,,,,,,,,green,square
1308.0,4.0,4.0,0.0,1.0,1.0,381.3939189999473,2.0,1.0,part_1,,,,,,,,,,,,,gray,cross
0.0,1.0,0.0,0.0,4.0,4.0,474.9612330001582,2.0,1.0,part_1,,,,,,,,,,,,,orange,triangle
158.0,1.0,1.0,0.0,4.0,4.0,401.4256709997426,2.0,1.0,part_1,,,,,,,,,,,,,orange,triangle
673.0,7.0,3.0,1.0,3.0,3.0,391.5243189999273,2.0,1.0,part_1,,,,,,,,,,,,,green,square
0.0,3.0,0.0,0.0,3.0,3.0,484.6750339997925,2.0,1.0,part_1,,,,,,,,,,,,,white,flipped triangle
348.0,2.0,2.0,0.0,4.0,4.0,382.9627819995949,2.0,1.0,part_1,,,,,,,,,,,,,cyan,I
326.0,6.0,2.0,1.0,1.0,1.0,400.5345529999431,2.0,1.0,part_1,,,,,,,,,,,,,blue,diamond
338.0,6.0,2.0,1.0,4.0,4.0,382.5008389999311,2.0,1.0,part_1,,,,,,,,,,,,,blue,diamond
341.0,6.0,2.0,1.0,3.0,3.0,373.2277210001484,2.0,1.0,part_1,,,,,,,,,,,,,blue,diamond
0.0,7.0,0.0,1.0,3.0,3.0,390.2727740000955,2.0,1.0,part_1,,,,,,,,,,,,,green,square
670.0,3.0,3.0,0.0,3.0,3.0,438.2769379999445,2.0,1.0,part_1,,,,,,,,,,,,,white,flipped triangle
656.0,7.0,3.0,1.0,3.0,3.0,373.8510030002544,2.0,1.0,part_1,,,,,,,,,,,,,green,square
314.0,6.0,2.0,1.0,2.0,2.0,550.0982690000455,2.0,1.0,part_1,,,,,,,,,,,,,blue,diamond
634.0,3.0,3.0,0.0,2.0,2.0,615.0290420000601,2.0,1.0,part_1,,,,,,,,,,,,,white,flipped triangle
308.0,6.0,2.0,1.0,2.0,2.0,383.2320259998596,2.0,1.0,part_1,,,,,,,,,,,,,blue,diamond
661.0,7.0,3.0,1.0,4.0,4.0,409.8221999997804,2.0,1.0,part_1,,,,,,,,,,,,,green,square
163.0,5.0,1.0,1.0,1.0,1.0,391.6897460003383,2.0,1.0,part_1,,,,,,,,,,,,,yellow,hexagon
1288.0,4.0,4.0,0.0,3.0,3.0,478.6907749999045,2.0,1.0,part_1,,,,,,,,,,,,,gray,cross
659.0,7.0,3.0,1.0,4.0,4.0,372.4544619999506,2.0,1.0,part_1,,,,,,,,,,,,,green,square
340.0,2.0,2.0,0.0,4.0,4.0,393.4989079998559,2.0,1.0,part_1,,,,,,,,,,,,,cyan,I
0.0,1.0,0.0,0.0,3.0,3.0,364.2095699997298,2.0,1.0,part_1,,,,,,,,,,,,,orange,triangle
650.0,3.0,3.0,0.0,1.0,1.0,382.0177160000639,2.0,1.0,part_1,,,,,,,,,,,,,white,flipped triangle
1278.0,4.0,4.0,0.0,4.0,4.0,392.3092559998622,2.0,1.0,part_1,,,,,,,,,,,,,gray,cross
1311.0,4.0,4.0,0.0,1.0,1.0,430.2389209997272,2.0,1.0,part_1,,,,,,,,,,,,,gray,cross
627.0,7.0,3.0,1.0,1.0,1.0,373.2475520000662,2.0,1.0,part_1,,,,,,,,,,,,,green,square
1318.0,4.0,4.0,0.0,1.0,1.0,493.141752000156,2.0,1.0,part_1,,,,,,,,,,,,,gray,cross
1301.0,8.0,4.0,1.0,2.0,2.0,363.4063819999937,2.0,1.0,part_1,,,,,,,,,,,,,magenta,circle
625.0,7.0,3.0,1.0,1.0,1.0,367.0067760003803,2.0,1.0,part_1,,,,,,,,,,,,,green,square
302.0,2.0,2.0,0.0,3.0,3.0,438.651442000264,2.0,1.0,part_1,,,,,,,,,,,,,cyan,I
316.0,2.0,2.0,0.0,3.0,3.0,484.53199900041,2.0,1.0,part_1,,,,,,,,,,,,,cyan,I
0.0,2.0,0.0,0.0,4.0,4.0,483.4028089999265,2.0,1.0,part_1,,,,,,,,,,,,,cyan,I
642.0,7.0,3.0,1.0,4.0,4.0,428.6978299996917,2.0,1.0,part_1,,,,,,,,,,,,,green,square
185.0,5.0,1.0,1.0,4.0,4.0,363.0969540004116,2.0,1.0,part_1,,,,,,,,,,,,,yellow,hexagon
1288.0,4.0,4.0,0.0,4.0,4.0,372.7890139998635,2.0,1.0,part_1,,,,,,,,,,,,,gray,cross
1315.0,4.0,4.0,0.0,1.0,1.0,381.6192519998367,2.0,1.0,part_1,,,,,,,,,,,,,gray,cross
1281.0,4.0,4.0,0.0,3.0,3.0,400.3131139998004,2.0,1.0,part_1,,,,,,,,,,,,,gray,cross
169.0,1.0,1.0,0.0,1.0,1.0,354.1167999997014,2.0,1.0,part_1,,,,,,,,,,,,,orange,triangle
1296.0,4.0,4.0,0.0,2.0,2.0,385.2762070000608,2.0,1.0,part_1,,,,,,,,,,,,,gray,cross
1284.0,4.0,4.0,0.0,4.0,4.0,372.4836649998906,2.0,1.0,part_1,,,,,,,,,,,,,gray,cross
147.0,5.0,1.0,1.0,4.0,4.0,363.6959559999013,2.0,1.0,part_1,,,,,,,,,,,,,yellow,hexagon
187.0,1.0,1.0,0.0,4.0,4.0,429.6053070002017,2.0,1.0,part_1,,,,,,,,,,,,,orange,triangle
301.0,6.0,2.0,1.0,4.0,4.0,392.9386380000323,2.0,1.0,part_1,,,,,,,,,,,,,blue,diamond
0.0,4.0,0.0,0.0,4.0,4.0,363.9920489999895,2.0,1.0,part_1,,,,,,,,,,,,,gray,cross
1284.0,8.0,4.0,1.0,3.0,3.0,362.3444400000153,2.0,1.0,part_1,,,,,,,,,,,,,magenta,circle
634.0,7.0,3.0,1.0,4.0,4.0,373.1455779998214,2.0,1.0,part_1,,,,,,,,,,,,,green,square
320.0,6.0,2.0,1.0,3.0,3.0,354.1056399999434,2.0,1.0,part_1,,,,,,,,,,,,,blue,diamond
316.0,6.0,2.0,1.0,4.0,4.0,345.5343530004029,2.0,1.0,part_1,,,,,,,,,,,,,blue,diamond
0.0,2.0,0.0,0.0,1.0,1.0,367.8925320000417,2.0,1.0,part_1,,,,,,,,,,,,,cyan,I
1321.0,8.0,4.0,1.0,1.0,1.0,419.7914390001642,2.0,1.0,part_1,,,,,,,,,,,,,magenta,circle
1278.0,8.0,4.0,1.0,2.0,2.0,382.703333000336,2.0,1.0,part_1,,,,,,,,,,,,,magenta,circle
647.0,7.0,3.0,1.0,4.0,4.0,365.2450019999378,2.0,1.0,part_1,,,,,,,,,,,,,green,square
1279.0,8.0,4.0,1.0,3.0,3.0,400.6399200002306,2.0,1.0,part_1,,,,,,,,,,,,,magenta,circle
634.0,7.0,3.0,1.0,2.0,2.0,354.5335409999097,2.0,1.0,part_1,,,,,,,,,,,,,green,square
151.0,1.0,1.0,0.0,4.0,4.0,483.2864270001664,2.0,1.0,part_1,,,,,,,,,,,,,orange,triangle
1321.0,4.0,4.0,0.0,4.0,4.0,440.8750599995983,3.0,1.0,part_1,,,,,,,,,,,,,gray,cross
1286.0,8.0,4.0,1.0,4.0,4.0,383.2744340002136,3.0,1.0,part_1,,,,,,,,,,,,,magenta,circle
171.0,1.0,1.0,0.0,2.0,2.0,336.2412810001842,3.0,1.0,part_1,,,,,,,,,,,,,orange,triangle
142.0,5.0,1.0,1.0,4.0,4.0,344.5482480001374,3.0,1.0,part_1,,,,,,,,,,,,,yellow,hexagon
1290.0,8.0,4.0,1.0,1.0,1.0,419.3380759998035,3.0,1.0,part_1,,,,,,,,,,,,,magenta,circle
1318.0,8.0,4.0,1.0,3.0,3.0,373.0192530001659,3.0,1.0,part_1,,,,,,,,,,,,,magenta,circle
0.0,6.0,0.0,1.0,2.0,2.0,344.4928590001836,3.0,1.0,part_1,,,,,,,,,,,,,blue,diamond
169.0,1.0,1.0,0.0,4.0,4.0,344.1216470000654,3.0,1.0,part_1,,,,,,,,,,,,,orange,triangle
345.0,6.0,2.0,1.0,4.0,4.0,354.5402199997625,3.0,1.0,part_1,,,,,,,,,,,,,blue,diamond
345.0,6.0,2.0,1.0,4.0,4.0,345.3356620002523,3.0,1.0,part_1,,,,,,,,,,,,,blue,diamond
1299.0,8.0,4.0,1.0,4.0,4.0,308.6136830002033,3.0,1.0,part_1,,,,,,,,,,,,,magenta,circle
335.0,2.0,2.0,0.0,1.0,1.0,438.5637339996719,3.0,1.0,part_1,,,,,,,,,,,,,cyan,I
661.0,3.0,3.0,0.0,1.0,1.0,345.221833999858,3.0,1.0,part_1,,,,,,,,,,,,,white,flipped triangle
166.0,5.0,1.0,1.0,2.0,2.0,335.7473519999985,3.0,1.0,part_1,,,,,,,,,,,,,yellow,hexagon
141.0,5.0,1.0,1.0,1.0,1.0,316.7285079998692,3.0,1.0,part_1,,,,,,,,,,,,,yellow,hexagon
300.0,6.0,2.0,1.0,1.0,1.0,336.0071449997122,3.0,1.0,part_1,,,,,,,,,,,,,blue,diamond
137.0,1.0,1.0,0.0,3.0,3.0,476.9645470000796,3.0,1.0,part_1,,,,,,,,,,,,,orange,triangle
307.0,6.0,2.0,1.0,3.0,3.0,345.7235000000764,3.0,1.0,part_1,,,,,,,,,,,,,blue,diamond
644.0,3.0,3.0,0.0,4.0,4.0,364.2784720000236,3.0,1.0,part_1,,,,,,,,,,,,,white,flipped triangle
672.0,7.0,3.0,1.0,3.0,3.0,363.7338389999058,3.0,1.0,part_1,,,,,,,,,,,,,green,square
317.0,6.0,2.0,1.0,1.0,1.0,410.5790319999869,3.0,1.0,part_1,,,,,,,,,,,,,blue,diamond
182.0,1.0,1.0,0.0,4.0,4.0,326.9595279998611,3.0,1.0,part_1,,,,,,,,,,,,,orange,triangle
169.0,5.0,1.0,1.0,2.0,2.0,400.7874080002693,3.0,1.0,part_1,,,,,,,,,,,,,yellow,hexagon
649.0,7.0,3.0,1.0,4.0,4.0,382.82572099979,3.0,1.0,part_1,,,,,,,,,,,,,green,square
1323.0,4.0,4.0,0.0,3.0,3.0,335.8991649997733,3.0,1.0,part_1,,,,,,,,,,,,,gray,cross
304.0,2.0,2.0,0.0,1.0,1.0,317.2979539999687,3.0,1.0,part_1,,,,,,,,,,,,,cyan,I
625.0,3.0,3.0,0.0,4.0,4.0,326.733066000088,3.0,1.0,part_1,,,,,,,,,,,,,white,flipped triangle
187.0,5.0,1.0,1.0,2.0,2.0,466.3366749996385,3.0,1.0,part_1,,,,,,,,,,,,,yellow,hexagon
0.0,2.0,0.0,0.0,2.0,2.0,374.0043719999448,3.0,1.0,part_1,,,,,,,,,,,,,cyan,I
659.0,7.0,3.0,1.0,2.0,2.0,353.6525220001749,3.0,1.0,part_1,,,,,,,,,,,,,green,square
343.0,6.0,2.0,1.0,3.0,3.0,372.6757709996491,3.0,1.0,part_1,,,,,,,,,,,,,blue,diamond
1322.0,4.0,4.0,0.0,4.0,4.0,367.0180720000644,3.0,1.0,part_1,,,,,,,,,,,,,gray,cross
145.0,5.0,1.0,1.0,1.0,1.0,326.1479080001663,3.0,1.0,part_1,,,,,,,,,,,,,yellow,hexagon
656.0,7.0,3.0,1.0,3.0,3.0,512.7988019999066,3.0,1.0,part_1,,,,,,,,,,,,,green,square
1303.0,8.0,4.0,1.0,3.0,3.0,411.0456250000425,3.0,2.0,part_1,,,,,,,,,,,,,magenta,circle
0.0,4.0,0.0,0.0,3.0,3.0,504.18939800010776,3.0,1.0,part_1,,,,,,,,,,,,,gray,cross
656.0,3.0,3.0,0.0,2.0,2.0,401.4778119999391,3.0,1.0,part_1,,,,,,,,,,,,,white,flipped triangle
0.0,3.0,0.0,0.0,1.0,1.0,345.7459090000156,3.0,1.0,part_1,,,,,,,,,,,,,white,flipped triangle
647.0,3.0,3.0,0.0,2.0,2.0,363.9033959998414,3.0,1.0,part_1,,,,,,,,,,,,,white,flipped triangle
328.0,2.0,2.0,0.0,2.0,2.0,373.1812629998785,3.0,1.0,part_1,,,,,,,,,,,,,cyan,I
1296.0,8.0,4.0,1.0,1.0,1.0,339.5051950001289,3.0,1.0,part_1,,,,,,,,,,,,,magenta,circle
338.0,6.0,2.0,1.0,3.0,3.0,420.3295389997947,3.0,1.0,part_1,,,,,,,,,,,,,blue,diamond
0.0,3.0,0.0,0.0,3.0,3.0,382.6109980000183,3.0,1.0,part_1,,,,,,,,,,,,,white,flipped triangle
631.0,3.0,3.0,0.0,4.0,4.0,392.4590950000493,3.0,1.0,part_1,,,,,,,,,,,,,white,flipped triangle
324.0,2.0,2.0,0.0,1.0,1.0,363.5798369996337,3.0,1.0,part_1,,,,,,,,,,,,,cyan,I
0.0,2.0,0.0,0.0,1.0,1.0,364.9127650000991,3.0,1.0,part_1,,,,,,,,,,,,,cyan,I
0.0,5.0,0.0,1.0,3.0,3.0,346.0105730000578,3.0,1.0,part_1,,,,,,,,,,,,,yellow,hexagon
1290.0,4.0,4.0,0.0,2.0,2.0,448.5436729996763,3.0,1.0,part_1,,,,,,,,,,,,,gray,cross
627.0,3.0,3.0,0.0,3.0,3.0,494.531793999613,3.0,1.0,part_1,,,,,,,,,,,,,white,flipped triangle
0.0,8.0,0.0,1.0,4.0,4.0,400.6983519998357,3.0,1.0,part_1,,,,,,,,,,,,,magenta,circle
174.0,5.0,1.0,1.0,4.0,4.0,374.6110209999642,3.0,1.0,part_1,,,,,,,,,,,,,yellow,hexagon
644.0,7.0,3.0,1.0,2.0,2.0,382.9983250002442,3.0,1.0,part_1,,,,,,,,,,,,,green,square
344.0,2.0,2.0,0.0,4.0,4.0,437.2576179998759,3.0,1.0,part_1,,,,,,,,,,,,,cyan,I
0.0,4.0,0.0,0.0,3.0,3.0,522.0345479997377,3.0,1.0,part_1,,,,,,,,,,,,,gray,cross
0.0,4.0,0.0,0.0,4.0,4.0,391.9121069998255,3.0,1.0,part_1,,,,,,,,,,,,,gray,cross
185.0,1.0,1.0,0.0,4.0,4.0,393.6738170000353,3.0,1.0,part_1,,,,,,,,,,,,,orange,triangle
312.0,6.0,2.0,1.0,1.0,1.0,401.0198149999269,3.0,1.0,part_1,,,,,,,,,,,,,blue,diamond
159.0,1.0,1.0,0.0,2.0,2.0,400.9824390000176,3.0,1.0,part_1,,,,,,,,,,,,,orange,triangle
0.0,3.0,0.0,0.0,2.0,2.0,372.2510010002224,3.0,1.0,part_1,,,,,,,,,,,,,white,flipped triangle
1294.0,8.0,4.0,1.0,1.0,1.0,348.7870830003885,3.0,1.0,part_1,,,,,,,,,,,,,magenta,circle
1311.0,8.0,4.0,1.0,3.0,3.0,337.6167179999356,3.0,2.0,part_1,,,,,,,,,,,,,magenta,circle
1301.0,4.0,4.0,0.0,2.0,2.0,361.1558519996833,3.0,1.0,part_1,,,,,,,,,,,,,gray,cross
145.0,1.0,1.0,0.0,3.0,3.0,420.5756829996971,3.0,1.0,part_1,,,,,,,,,,,,,orange,triangle
164.0,1.0,1.0,0.0,2.0,2.0,400.6331129999125,3.0,1.0,part_1,,,,,,,,,,,,,orange,triangle
173.0,5.0,1.0,1.0,3.0,3.0,364.6822320001774,3.0,1.0,part_1,,,,,,,,,,,,,yellow,hexagon
160.0,5.0,1.0,1.0,2.0,2.0,382.4284279999119,3.0,1.0,part_1,,,,,,,,,,,,,yellow,hexagon
664.0,7.0,3.0,1.0,1.0,1.0,373.9758639999309,3.0,1.0,part_1,,,,,,,,,,,,,green,square
1279.0,4.0,4.0,0.0,4.0,4.0,476.1995369999567,3.0,1.0,part_1,,,,,,,,,,,,,gray,cross
0.0,5.0,0.0,1.0,2.0,2.0,372.1701800000119,3.0,1.0,part_1,,,,,,,,,,,,,yellow,hexagon
652.0,7.0,3.0,1.0,3.0,3.0,373.6225729999205,3.0,1.0,part_1,,,,,,,,,,,,,green,square
160.0,5.0,1.0,1.0,3.0,3.0,402.8990839997277,3.0,1.0,part_1,,,,,,,,,,,,,yellow,hexagon
164.0,5.0,1.0,1.0,3.0,3.0,355.2474670000265,3.0,1.0,part_1,,,,,,,,,,,,,yellow,hexagon
657.0,7.0,3.0,1.0,4.0,4.0,390.1090459999068,3.0,1.0,part_1,,,,,,,,,,,,,green,square
0.0,3.0,0.0,0.0,4.0,4.0,345.1545339999029,3.0,1.0,part_1,,,,,,,,,,,,,white,flipped triangle
157.0,5.0,1.0,1.0,2.0,2.0,419.994115999998,3.0,1.0,part_1,,,,,,,,,,,,,yellow,hexagon
670.0,7.0,3.0,1.0,2.0,2.0,391.6945940000005,3.0,1.0,part_1,,,,,,,,,,,,,green,square
631.0,7.0,3.0,1.0,2.0,2.0,390.4092190000483,3.0,1.0,part_1,,,,,,,,,,,,,green,square
0.0,5.0,0.0,1.0,4.0,4.0,373.4406319999834,3.0,1.0,part_1,,,,,,,,,,,,,yellow,hexagon
137.0,1.0,1.0,0.0,1.0,1.0,512.898617999781,3.0,1.0,part_1,,,,,,,,,,,,,orange,triangle
1297.0,4.0,4.0,0.0,2.0,2.0,391.9646800000009,3.0,1.0,part_1,,,,,,,,,,,,,gray,cross
141.0,1.0,1.0,0.0,3.0,3.0,439.587721999942,3.0,1.0,part_1,,,,,,,,,,,,,orange,triangle
155.0,5.0,1.0,1.0,2.0,2.0,402.8651519997765,3.0,1.0,part_1,,,,,,,,,,,,,yellow,hexagon
0.0,6.0,0.0,1.0,4.0,4.0,391.5157219998946,3.0,1.0,part_1,,,,,,,,,,,,,blue,diamond
320.0,6.0,2.0,1.0,4.0,4.0,392.599343999791,3.0,1.0,part_1,,,,,,,,,,,,,blue,diamond
174.0,5.0,1.0,1.0,4.0,4.0,345.3162440000596,3.0,1.0,part_1,,,,,,,,,,,,,yellow,hexagon
665.0,7.0,3.0,1.0,4.0,4.0,336.5015230001518,3.0,1.0,part_1,,,,,,,,,,,,,green,square
0.0,5.0,0.0,1.0,2.0,2.0,391.157836000275,3.0,1.0,part_1,,,,,,,,,,,,,yellow,hexagon
1288.0,4.0,4.0,0.0,1.0,1.0,392.3158529996726,3.0,1.0,part_1,,,,,,,,,,,,,gray,cross
1301.0,8.0,4.0,1.0,2.0,2.0,363.692119999996,3.0,1.0,part_1,,,,,,,,,,,,,magenta,circle
0.0,7.0,0.0,1.0,2.0,2.0,344.3511250002302,3.0,1.0,part_1,,,,,,,,,,,,,green,square
1282.0,8.0,4.0,1.0,2.0,2.0,371.8694039998809,3.0,1.0,part_1,,,,,,,,,,,,,magenta,circle
674.0,3.0,3.0,0.0,4.0,4.0,476.9332490000124,3.0,1.0,part_1,,,,,,,,,,,,,white,flipped triangle
300.0,2.0,2.0,0.0,4.0,4.0,363.0668159999004,3.0,1.0,part_1,,,,,,,,,,,,,cyan,I
306.0,2.0,2.0,0.0,1.0,1.0,418.0860490000668,3.0,1.0,part_1,,,,,,,,,,,,,cyan,I
1323.0,8.0,4.0,1.0,1.0,1.0,372.324325000136,3.0,1.0,part_1,,,,,,,,,,,,,magenta,circle
627.0,7.0,3.0,1.0,3.0,3.0,428.4070640001118,3.0,1.0,part_1,,,,,,,,,,,,,green,square
331.0,2.0,2.0,0.0,3.0,3.0,391.0023950002141,3.0,1.0,part_1,,,,,,,,,,,,,cyan,I
337.0,2.0,2.0,0.0,3.0,3.0,390.1307730002372,3.0,1.0,part_1,,,,,,,,,,,,,cyan,I
0.0,1.0,0.0,0.0,2.0,2.0,374.4508439999663,3.0,1.0,part_1,,,,,,,,,,,,,orange,triangle
338.0,2.0,2.0,0.0,3.0,3.0,372.8168600000572,3.0,1.0,part_1,,,,,,,,,,,,,cyan,I
156.0,5.0,1.0,1.0,4.0,4.0,391.0681560000739,4.0,1.0,part_1,,,,,,,,,,,,,yellow,hexagon
0.0,5.0,0.0,1.0,4.0,4.0,362.7907300001425,4.0,1.0,part_1,,,,,,,,,,,,,yellow,hexagon
1311.0,4.0,4.0,0.0,2.0,2.0,390.7686319998902,4.0,1.0,part_1,,,,,,,,,,,,,gray,cross
1311.0,8.0,4.0,1.0,3.0,3.0,373.1745810000575,4.0,1.0,part_1,,,,,,,,,,,,,magenta,circle
157.0,1.0,1.0,0.0,3.0,3.0,391.6558450000593,4.0,1.0,part_1,,,,,,,,,,,,,orange,triangle
0.0,8.0,0.0,1.0,4.0,4.0,373.9182570002413,4.0,1.0,part_1,,,,,,,,,,,,,magenta,circle
653.0,3.0,3.0,0.0,3.0,3.0,363.2475559998056,4.0,1.0,part_1,,,,,,,,,,,,,white,flipped triangle
1310.0,8.0,4.0,1.0,4.0,4.0,354.9951580002926,4.0,1.0,part_1,,,,,,,,,,,,,magenta,circle
148.0,5.0,1.0,1.0,3.0,3.0,411.3582079999105,4.0,1.0,part_1,,,,,,,,,,,,,yellow,hexagon
0.0,3.0,0.0,0.0,4.0,4.0,335.27854499971,4.0,1.0,part_1,,,,,,,,,,,,,white,flipped triangle
164.0,5.0,1.0,1.0,1.0,1.0,436.957930999597,4.0,1.0,part_1,,,,,,,,,,,,,yellow,hexagon
1298.0,4.0,4.0,0.0,4.0,4.0,391.6886100000738,4.0,1.0,part_1,,,,,,,,,,,,,gray,cross
0.0,1.0,0.0,0.0,2.0,2.0,551.4971239999795,4.0,1.0,part_1,,,,,,,,,,,,,orange,triangle
0.0,8.0,0.0,1.0,4.0,4.0,429.4773610004085,4.0,1.0,part_1,,,,,,,,,,,,,magenta,circle
1315.0,8.0,4.0,1.0,4.0,4.0,363.9288040003521,4.0,1.0,part_1,,,,,,,,,,,,,magenta,circle
0.0,7.0,0.0,1.0,4.0,4.0,363.628117999724,4.0,1.0,part_1,,,,,,,,,,,,,green,square
1310.0,8.0,4.0,1.0,4.0,4.0,354.5160089997807,4.0,1.0,part_1,,,,,,,,,,,,,magenta,circle
348.0,2.0,2.0,0.0,1.0,1.0,549.2012979998435,4.0,1.0,part_1,,,,,,,,,,,,,cyan,I
0.0,5.0,0.0,1.0,3.0,3.0,512.103297000067,4.0,1.0,part_1,,,,,,,,,,,,,yellow,hexagon
336.0,6.0,2.0,1.0,2.0,2.0,353.3340190001581,4.0,2.0,part_1,,,,,,,,,,,,,blue,diamond
307.0,2.0,2.0,0.0,2.0,2.0,354.3613179999738,4.0,1.0,part_1,,,,,,,,,,,,,cyan,I
317.0,2.0,2.0,0.0,4.0,4.0,344.962112000303,4.0,1.0,part_1,,,,,,,,,,,,,cyan,I
1299.0,4.0,4.0,0.0,4.0,4.0,344.1325369999504,4.0,1.0,part_1,,,,,,,,,,,,,gray,cross
637.0,7.0,3.0,1.0,2.0,2.0,353.579229999923,4.0,1.0,part_1,,,,,,,,,,,,,green,square
137.0,5.0,1.0,1.0,1.0,1.0,391.0446720001346,4.0,1.0,part_1,,,,,,,,,,,,,yellow,hexagon
1298.0,8.0,4.0,1.0,3.0,3.0,364.9552209999456,4.0,1.0,part_1,,,,,,,,,,,,,magenta,circle
665.0,3.0,3.0,0.0,4.0,4.0,345.8834580001166,4.0,1.0,part_1,,,,,,,,,,,,,white,flipped triangle
1301.0,4.0,4.0,0.0,2.0,2.0,446.7995119998704,4.0,1.0,part_1,,,,,,,,,,,,,gray,cross
149.0,1.0,1.0,0.0,1.0,1.0,382.3689959999683,4.0,1.0,part_1,,,,,,,,,,,,,orange,triangle
331.0,6.0,2.0,1.0,1.0,1.0,336.7776959998991,4.0,1.0,part_1,,,,,,,,,,,,,blue,diamond
1277.0,8.0,4.0,1.0,3.0,3.0,430.8293969997976,4.0,1.0,part_1,,,,,,,,,,,,,magenta,circle
633.0,3.0,3.0,0.0,3.0,3.0,419.7632129998965,4.0,1.0,part_1,,,,,,,,,,,,,white,flipped triangle
185.0,5.0,1.0,1.0,1.0,1.0,346.483027999966,4.0,1.0,part_1,,,,,,,,,,,,,yellow,hexagon
1325.0,4.0,4.0,0.0,2.0,2.0,422.3710280002706,4.0,1.0,part_1,,,,,,,,,,,,,gray,cross
0.0,4.0,0.0,0.0,2.0,2.0,382.6026110000384,4.0,1.0,part_1,,,,,,,,,,,,,gray,cross
171.0,5.0,1.0,1.0,2.0,2.0,363.6051329999645,4.0,1.0,part_1,,,,,,,,,,,,,yellow,hexagon
156.0,1.0,1.0,0.0,3.0,3.0,381.7672509999283,4.0,1.0,part_1,,,,,,,,,,,,,orange,triangle
320.0,2.0,2.0,0.0,2.0,2.0,384.4063359997562,4.0,1.0,part_1,,,,,,,,,,,,,cyan,I
169.0,5.0,1.0,1.0,3.0,3.0,504.6489650003423,4.0,1.0,part_1,,,,,,,,,,,,,yellow,hexagon
633.0,7.0,3.0,1.0,3.0,3.0,382.6623009999821,4.0,1.0,part_1,,,,,,,,,,,,,green,square
142.0,1.0,1.0,0.0,4.0,4.0,373.0266210000081,4.0,1.0,part_1,,,,,,,,,,,,,orange,triangle
161.0,5.0,1.0,1.0,4.0,4.0,364.0174890001617,4.0,1.0,part_1,,,,,,,,,,,,,yellow,hexagon
163.0,1.0,1.0,0.0,1.0,1.0,421.8261020000682,4.0,1.0,part_1,,,,,,,,,,,,,orange,triangle
0.0,2.0,0.0,0.0,4.0,4.0,393.9558669999314,4.0,1.0,part_1,,,,,,,,,,,,,cyan,I
673.0,7.0,3.0,1.0,1.0,1.0,364.7149759999593,4.0,1.0,part_1,,,,,,,,,,,,,green,square
314.0,6.0,2.0,1.0,1.0,1.0,383.895584000129,4.0,1.0,part_1,,,,,,,,,,,,,blue,diamond
327.0,2.0,2.0,0.0,2.0,2.0,403.7619109999468,4.0,1.0,part_1,,,,,,,,,,,,,cyan,I
164.0,1.0,1.0,0.0,2.0,2.0,364.0286250001736,4.0,1.0,part_1,,,,,,,,,,,,,orange,triangle
0.0,7.0,0.0,1.0,1.0,1.0,420.1010189999579,4.0,1.0,part_1,,,,,,,,,,,,,green,square
0.0,4.0,0.0,0.0,2.0,2.0,345.8753260001685,4.0,1.0,part_1,,,,,,,,,,,,,gray,cross
320.0,6.0,2.0,1.0,2.0,2.0,357.7935950002029,4.0,1.0,part_1,,,,,,,,,,,,,blue,diamond
644.0,7.0,3.0,1.0,4.0,4.0,364.1725679999581,4.0,1.0,part_1,,,,,,,,,,,,,green,square
631.0,3.0,3.0,0.0,1.0,1.0,345.8485200003451,4.0,1.0,part_1,,,,,,,,,,,,,white,flipped triangle
1325.0,8.0,4.0,1.0,3.0,3.0,407.7610079998521,4.0,1.0,part_1,,,,,,,,,,,,,magenta,circle
1288.0,8.0,4.0,1.0,2.0,2.0,410.9712270001182,4.0,1.0,part_1,,,,,,,,,,,,,magenta,circle
656.0,3.0,3.0,0.0,1.0,1.0,335.5949359997794,4.0,1.0,part_1,,,,,,,,,,,,,white,flipped triangle
630.0,3.0,3.0,0.0,2.0,2.0,383.5366579996844,4.0,1.0,part_1,,,,,,,,,,,,,white,flipped triangle
152.0,5.0,1.0,1.0,3.0,3.0,373.56975900002,4.0,1.0,part_1,,,,,,,,,,,,,yellow,hexagon
1292.0,4.0,4.0,0.0,1.0,1.0,354.6931969999605,4.0,1.0,part_1,,,,,,,,,,,,,gray,cross
665.0,7.0,3.0,1.0,2.0,2.0,356.7908059999354,4.0,1.0,part_1,,,,,,,,,,,,,green,square
0.0,6.0,0.0,1.0,3.0,3.0,419.2307339999388,4.0,1.0,part_1,,,,,,,,,,,,,blue,diamond
0.0,1.0,0.0,0.0,2.0,2.0,418.6578270000609,4.0,1.0,part_1,,,,,,,,,,,,,orange,triangle
0.0,8.0,0.0,1.0,4.0,4.0,383.4672839998347,4.0,1.0,part_1,,,,,,,,,,,,,magenta,circle
0.0,2.0,0.0,0.0,1.0,1.0,373.7499889998616,4.0,1.0,part_1,,,,,,,,,,,,,cyan,I
0.0,7.0,0.0,1.0,4.0,4.0,335.3098560000944,4.0,1.0,part_1,,,,,,,,,,,,,green,square
340.0,6.0,2.0,1.0,1.0,1.0,345.7747450001989,4.0,1.0,part_1,,,,,,,,,,,,,blue,diamond
345.0,6.0,2.0,1.0,3.0,3.0,355.689853000058,4.0,1.0,part_1,,,,,,,,,,,,,blue,diamond
147.0,1.0,1.0,0.0,3.0,3.0,382.5123250003344,4.0,1.0,part_1,,,,,,,,,,,,,orange,triangle
1297.0,8.0,4.0,1.0,1.0,1.0,363.9344250000249,4.0,1.0,part_1,,,,,,,,,,,,,magenta,circle
170.0,5.0,1.0,1.0,3.0,3.0,325.760536999951,4.0,1.0,part_1,,,,,,,,,,,,,yellow,hexagon
0.0,5.0,0.0,1.0,1.0,1.0,402.4552969999604,4.0,1.0,part_1,,,,,,,,,,,,,yellow,hexagon
1288.0,8.0,4.0,1.0,2.0,2.0,346.0860360000879,4.0,1.0,part_1,,,,,,,,,,,,,magenta,circle
1303.0,4.0,4.0,0.0,3.0,3.0,393.2751229999667,4.0,1.0,part_1,,,,,,,,,,,,,gray,cross
664.0,3.0,3.0,0.0,2.0,2.0,373.3193540001593,4.0,1.0,part_1,,,,,,,,,,,,,white,flipped triangle
637.0,7.0,3.0,1.0,2.0,2.0,317.3191370001404,4.0,1.0,part_1,,,,,,,,,,,,,green,square
1322.0,8.0,4.0,1.0,1.0,1.0,355.0911859997541,4.0,1.0,part_1,,,,,,,,,,,,,magenta,circle
0.0,3.0,0.0,0.0,4.0,4.0,364.0355420002379,4.0,1.0,part_1,,,,,,,,,,,,,white,flipped triangle
0.0,2.0,0.0,0.0,1.0,1.0,326.7529409999952,4.0,1.0,part_1,,,,,,,,,,,,,cyan,I
0.0,1.0,0.0,0.0,4.0,4.0,411.41776700033,4.0,1.0,part_1,,,,,,,,,,,,,orange,triangle
335.0,6.0,2.0,1.0,2.0,2.0,298.7162859999444,4.0,1.0,part_1,,,,,,,,,,,,,blue,diamond
0.0,5.0,0.0,1.0,3.0,3.0,401.7846380002083,4.0,1.0,part_1,,,,,,,,,,,,,yellow,hexagon
1300.0,8.0,4.0,1.0,4.0,4.0,422.358833999624,4.0,1.0,part_1,,,,,,,,,,,,,magenta,circle
345.0,2.0,2.0,0.0,2.0,2.0,335.2774509999108,4.0,1.0,part_1,,,,,,,,,,,,,cyan,I
332.0,2.0,2.0,0.0,2.0,2.0,335.1846880000266,4.0,1.0,part_1,,,,,,,,,,,,,cyan,I
665.0,7.0,3.0,1.0,1.0,1.0,363.6458559999482,4.0,1.0,part_1,,,,,,,,,,,,,green,square
174.0,1.0,1.0,0.0,2.0,2.0,309.6080350001102,4.0,1.0,part_1,,,,,,,,,,,,,orange,triangle
637.0,3.0,3.0,0.0,3.0,3.0,401.9107410003926,4.0,1.0,part_1,,,,,,,,,,,,,white,flipped triangle
304.0,6.0,2.0,1.0,2.0,2.0,345.5872789995737,4.0,1.0,part_1,,,,,,,,,,,,,blue,diamond
637.0,3.0,3.0,0.0,2.0,2.0,382.111619999705,4.0,1.0,part_1,,,,,,,,,,,,,white,flipped triangle
0.0,2.0,0.0,0.0,4.0,4.0,353.9356500000394,4.0,1.0,part_1,,,,,,,,,,,,,cyan,I
0.0,6.0,0.0,1.0,4.0,4.0,373.3825720000823,4.0,1.0,part_1,,,,,,,,,,,,,blue,diamond
348.0,6.0,2.0,1.0,4.0,4.0,373.3412930000668,4.0,1.0,part_1,,,,,,,,,,,,,blue,diamond
160.0,1.0,1.0,0.0,3.0,3.0,373.5007139998743,4.0,1.0,part_1,,,,,,,,,,,,,orange,triangle
320.0,2.0,2.0,0.0,3.0,3.0,345.016559999749,4.0,1.0,part_1,,,,,,,,,,,,,cyan,I
0.0,3.0,0.0,0.0,4.0,4.0,447.0663329998388,4.0,1.0,part_1,,,,,,,,,,,,,white,flipped triangle
642.0,3.0,3.0,0.0,3.0,3.0,384.9171840001872,4.0,1.0,part_1,,,,,,,,,,,,,white,flipped triangle
323.0,6.0,2.0,1.0,2.0,2.0,458.817168999758,4.0,1.0,part_1,,,,,,,,,,,,,blue,diamond
0.0,3.0,0.0,0.0,3.0,3.0,475.1802709997719,4.0,1.0,part_1,,,,,,,,,,,,,white,flipped triangle
659.0,3.0,3.0,0.0,2.0,2.0,345.8897509999588,4.0,1.0,part_1,,,,,,,,,,,,,white,flipped triangle
170.0,1.0,1.0,0.0,1.0,1.0,364.9652120002429,4.0,1.0,part_1,,,,,,,,,,,,,orange,triangle
0.0,6.0,2.0,1.0,6.0,6.0,623.5490059998483,1.0,0.0,part_2,stop,250.0,250.0,3.0,,,,,,,,,blue,diamond
0.0,1.0,1.0,0.0,6.0,6.0,580.4567570003201,1.0,0.0,part_2,go,250.0,200.0,1.0,,,,,,,,,orange,triangle
0.0,8.0,4.0,1.0,6.0,0.0,0.0,1.0,0.0,part_2,stop,250.0,200.0,4.0,,,,,,,,,magenta,circle
0.0,1.0,1.0,0.0,5.0,5.0,589.3162720003602,1.0,0.0,part_2,go,250.0,250.0,1.0,,,,,,,,,orange,triangle
0.0,4.0,4.0,0.0,5.0,5.0,656.6659029999755,1.0,0.0,part_2,go,250.0,250.0,1.0,,,,,,,,,gray,cross
0.0,8.0,4.0,1.0,5.0,0.0,0.0,1.0,0.0,part_2,stop,250.0,250.0,4.0,,,,,,,,,magenta,circle
0.0,8.0,4.0,1.0,6.0,0.0,0.0,1.0,0.0,part_2,stop,300.0,250.0,4.0,,,,,,,,,magenta,circle
0.0,6.0,2.0,1.0,6.0,6.0,404.4236059999093,1.0,0.0,part_2,go,300.0,300.0,1.0,,,,,,,,,blue,diamond
0.0,5.0,1.0,1.0,6.0,6.0,993.914422999751,1.0,0.0,part_2,go,300.0,300.0,1.0,,,,,,,,,yellow,hexagon
0.0,7.0,3.0,1.0,6.0,0.0,0.0,1.0,0.0,part_2,stop,300.0,300.0,4.0,,,,,,,,,green,square
0.0,7.0,3.0,1.0,5.0,0.0,0.0,1.0,0.0,part_2,stop,300.0,350.0,4.0,,,,,,,,,green,square
0.0,2.0,2.0,0.0,5.0,5.0,787.3702819997561,1.0,0.0,part_2,go,350.0,350.0,1.0,,,,,,,,,cyan,I
0.0,6.0,2.0,1.0,5.0,0.0,0.0,1.0,0.0,part_2,stop,350.0,350.0,4.0,,,,,,,,,blue,diamond
0.0,4.0,4.0,0.0,6.0,6.0,814.0814569997019,1.0,0.0,part_2,go,400.0,350.0,1.0,,,,,,,,,gray,cross
0.0,5.0,1.0,1.0,6.0,0.0,0.0,1.0,0.0,part_2,stop,400.0,350.0,4.0,,,,,,,,,yellow,hexagon
0.0,6.0,2.0,1.0,6.0,0.0,0.0,1.0,0.0,part_2,stop,400.0,400.0,4.0,,,,,,,,,blue,diamond
0.0,8.0,4.0,1.0,5.0,5.0,609.2006739995668,1.0,0.0,part_2,go,400.0,450.0,1.0,,,,,,,,,magenta,circle
0.0,8.0,4.0,1.0,6.0,0.0,0.0,1.0,0.0,part_2,stop,400.0,450.0,4.0,,,,,,,,,magenta,circle
0.0,8.0,4.0,1.0,6.0,0.0,0.0,1.0,0.0,part_2,stop,400.0,500.0,4.0,,,,,,,,,magenta,circle
0.0,2.0,2.0,0.0,5.0,5.0,310.2444739997736,1.0,0.0,part_2,go,400.0,550.0,1.0,,,,,,,,,cyan,I
0.0,4.0,4.0,0.0,5.0,5.0,767.3664949998056,1.0,0.0,part_2,go,400.0,550.0,1.0,,,,,,,,,gray,cross
0.0,6.0,2.0,1.0,5.0,5.0,742.2308149998571,1.0,0.0,part_2,stop,400.0,550.0,3.0,,,,,,,,,blue,diamond
0.0,8.0,4.0,1.0,5.0,5.0,915.242175000003,1.0,0.0,part_2,go,350.0,550.0,1.0,,,,,,,,,magenta,circle
0.0,6.0,2.0,1.0,5.0,0.0,0.0,1.0,0.0,part_2,stop,350.0,550.0,4.0,,,,,,,,,blue,diamond
0.0,7.0,3.0,1.0,5.0,0.0,0.0,1.0,0.0,part_2,stop,400.0,550.0,4.0,,,,,,,,,green,square
0.0,1.0,1.0,0.0,6.0,6.0,768.7956449999547,1.0,0.0,part_2,go,450.0,550.0,1.0,,,,,,,,,orange,triangle
0.0,2.0,2.0,0.0,5.0,5.0,769.9653970003055,1.0,0.0,part_2,go,450.0,550.0,1.0,,,,,,,,,cyan,I
0.0,8.0,4.0,1.0,5.0,5.0,704.3256619999738,1.0,0.0,part_2,go,450.0,550.0,1.0,,,,,,,,,magenta,circle
0.0,1.0,1.0,0.0,5.0,5.0,608.7920989998565,1.0,0.0,part_2,go,450.0,550.0,1.0,,,,,,,,,orange,triangle
0.0,5.0,1.0,1.0,5.0,5.0,620.0517560000662,1.0,0.0,part_2,stop,450.0,550.0,3.0,,,,,,,,,yellow,hexagon
0.0,1.0,1.0,0.0,5.0,5.0,824.065139999675,1.0,0.0,part_2,go,400.0,550.0,1.0,,,,,,,,,orange,triangle
0.0,8.0,4.0,1.0,6.0,0.0,0.0,1.0,0.0,part_2,stop,400.0,550.0,4.0,,,,,,,,,magenta,circle
0.0,7.0,3.0,1.0,6.0,6.0,738.8014799998928,1.0,0.0,part_2,stop,400.0,600.0,3.0,,,,,,,,,green,square
0.0,2.0,2.0,0.0,6.0,6.0,1143.257975999859,1.0,0.0,part_2,go,400.0,550.0,1.0,,,,,,,,,cyan,I
0.0,7.0,3.0,1.0,5.0,0.0,0.0,1.0,0.0,part_2,stop,400.0,550.0,4.0,,,,,,,,,green,square
0.0,8.0,4.0,1.0,5.0,0.0,0.0,1.0,0.0,part_2,stop,450.0,550.0,4.0,,,,,,,,,magenta,circle
0.0,3.0,3.0,0.0,6.0,6.0,962.0034189997568,2.0,0.0,part_2,go,500.0,550.0,1.0,,,,,,,,,white,flipped triangle
0.0,8.0,4.0,1.0,5.0,0.0,0.0,2.0,0.0,part_2,stop,500.0,550.0,4.0,,,,,,,,,magenta,circle
0.0,7.0,3.0,1.0,5.0,5.0,688.4091920001083,2.0,0.0,part_2,go,550.0,550.0,1.0,,,,,,,,,green,square
0.0,4.0,4.0,0.0,6.0,6.0,810.3306980001435,2.0,0.0,part_2,go,550.0,550.0,1.0,,,,,,,,,gray,cross
0.0,2.0,2.0,0.0,6.0,6.0,831.0242980001021,2.0,0.0,part_2,go,550.0,550.0,1.0,,,,,,,,,cyan,I
0.0,1.0,1.0,0.0,6.0,6.0,1073.721239000406,2.0,0.0,part_2,go,550.0,550.0,1.0,,,,,,,,,orange,triangle
0.0,7.0,3.0,1.0,6.0,0.0,0.0,2.0,0.0,part_2,stop,550.0,550.0,4.0,,,,,,,,,green,square
0.0,6.0,2.0,1.0,5.0,0.0,0.0,2.0,0.0,part_2,stop,550.0,600.0,4.0,,,,,,,,,blue,diamond
0.0,4.0,4.0,0.0,6.0,6.0,891.3143730001138,2.0,0.0,part_2,go,600.0,600.0,1.0,,,,,,,,,gray,cross
0.0,5.0,1.0,1.0,5.0,5.0,1267.820496999775,2.0,0.0,part_2,go,600.0,600.0,1.0,,,,,,,,,yellow,hexagon
0.0,3.0,3.0,0.0,5.0,5.0,1013.6512160001985,2.0,0.0,part_2,go,600.0,600.0,1.0,,,,,,,,,white,flipped triangle
0.0,1.0,1.0,0.0,5.0,5.0,937.8395559997444,2.0,0.0,part_2,go,600.0,600.0,1.0,,,,,,,,,orange,triangle
0.0,7.0,3.0,1.0,5.0,0.0,0.0,2.0,0.0,part_2,stop,600.0,600.0,4.0,,,,,,,,,green,square
0.0,2.0,2.0,0.0,6.0,6.0,864.5239010002115,2.0,0.0,part_2,go,650.0,600.0,1.0,,,,,,,,,cyan,I
0.0,1.0,1.0,0.0,6.0,6.0,1107.3328330003278,2.0,0.0,part_2,go,650.0,600.0,1.0,,,,,,,,,orange,triangle
0.0,1.0,1.0,0.0,6.0,6.0,1172.7397210001982,2.0,0.0,part_2,go,650.0,600.0,1.0,,,,,,,,,orange,triangle
0.0,5.0,1.0,1.0,5.0,0.0,0.0,2.0,0.0,part_2,stop,650.0,600.0,4.0,,,,,,,,,yellow,hexagon
0.0,6.0,2.0,1.0,5.0,0.0,0.0,2.0,0.0,part_2,stop,700.0,600.0,4.0,,,,,,,,,blue,diamond
0.0,6.0,2.0,1.0,5.0,0.0,0.0,2.0,0.0,part_2,stop,750.0,600.0,4.0,,,,,,,,,blue,diamond
0.0,4.0,4.0,0.0,5.0,5.0,901.9648799999233,2.0,0.0,part_2,go,800.0,600.0,1.0,,,,,,,,,gray,cross
0.0,8.0,4.0,1.0,6.0,0.0,0.0,2.0,0.0,part_2,stop,800.0,600.0,4.0,,,,,,,,,magenta,circle
0.0,3.0,3.0,0.0,5.0,5.0,875.5610299999717,2.0,0.0,part_2,go,800.0,650.0,1.0,,,,,,,,,white,flipped triangle
0.0,5.0,1.0,1.0,5.0,0.0,0.0,2.0,0.0,part_2,stop,800.0,650.0,4.0,,,,,,,,,yellow,hexagon
0.0,1.0,1.0,0.0,5.0,5.0,806.9837530001678,2.0,0.0,part_2,go,850.0,650.0,1.0,,,,,,,,,orange,triangle
0.0,1.0,1.0,0.0,5.0,5.0,1257.0296280000548,2.0,0.0,part_2,go,850.0,650.0,1.0,,,,,,,,,orange,triangle
0.0,7.0,3.0,1.0,5.0,5.0,1154.052526000214,2.0,0.0,part_2,go,850.0,650.0,1.0,,,,,,,,,green,square
0.0,1.0,1.0,0.0,6.0,6.0,1063.0240919999778,2.0,0.0,part_2,go,850.0,650.0,1.0,,,,,,,,,orange,triangle
0.0,8.0,4.0,1.0,5.0,0.0,0.0,2.0,0.0,part_2,stop,850.0,650.0,4.0,,,,,,,,,magenta,circle
0.0,3.0,3.0,0.0,5.0,5.0,935.9187850000126,2.0,0.0,part_2,go,900.0,650.0,1.0,,,,,,,,,white,flipped triangle
0.0,2.0,2.0,0.0,5.0,5.0,770.0722700001279,2.0,0.0,part_2,go,900.0,650.0,1.0,,,,,,,,,cyan,I
0.0,5.0,1.0,1.0,6.0,0.0,0.0,2.0,0.0,part_2,stop,900.0,650.0,4.0,,,,,,,,,yellow,hexagon
0.0,8.0,4.0,1.0,5.0,5.0,958.2424300001549,2.0,0.0,part_2,go,900.0,700.0,1.0,,,,,,,,,magenta,circle
0.0,6.0,2.0,1.0,5.0,5.0,864.2067380001208,2.0,0.0,part_2,stop,900.0,700.0,3.0,,,,,,,,,blue,diamond
0.0,2.0,2.0,0.0,5.0,5.0,1370.425920999878,2.0,0.0,part_2,go,850.0,700.0,1.0,,,,,,,,,cyan,I
0.0,3.0,3.0,0.0,6.0,6.0,1326.9726730000002,2.0,0.0,part_2,go,850.0,700.0,1.0,,,,,,,,,white,flipped triangle
0.0,3.0,3.0,0.0,5.0,5.0,1135.9147939997456,2.0,0.0,part_2,go,850.0,700.0,1.0,,,,,,,,,white,flipped triangle
0.0,4.0,4.0,0.0,6.0,6.0,1040.8704950000356,3.0,0.0,part_2,go,850.0,700.0,1.0,,,,,,,,,gray,cross
0.0,3.0,3.0,0.0,6.0,6.0,902.701431999958,3.0,0.0,part_2,go,850.0,700.0,1.0,,,,,,,,,white,flipped triangle
0.0,8.0,4.0,1.0,6.0,6.0,917.2713590000968,3.0,0.0,part_2,stop,850.0,700.0,3.0,,,,,,,,,magenta,circle
0.0,6.0,2.0,1.0,5.0,5.0,807.5666029999411,3.0,0.0,part_2,go,850.0,650.0,1.0,,,,,,,,,blue,diamond
0.0,1.0,1.0,0.0,6.0,6.0,835.3110990001369,3.0,0.0,part_2,go,850.0,650.0,1.0,,,,,,,,,orange,triangle
0.0,3.0,3.0,0.0,5.0,5.0,1155.7894470001884,3.0,0.0,part_2,go,850.0,650.0,1.0,,,,,,,,,white,flipped triangle
0.0,1.0,1.0,0.0,5.0,5.0,825.5879329999516,3.0,0.0,part_2,go,850.0,650.0,1.0,,,,,,,,,orange,triangle
0.0,3.0,3.0,0.0,6.0,6.0,879.9554819997866,3.0,0.0,part_2,go,850.0,650.0,1.0,,,,,,,,,white,flipped triangle
0.0,7.0,3.0,1.0,5.0,5.0,1018.8759689999642,3.0,0.0,part_2,stop,850.0,650.0,3.0,,,,,,,,,green,square
0.0,7.0,3.0,1.0,6.0,0.0,0.0,3.0,0.0,part_2,go,800.0,650.0,5.0,,,,,,,,,green,square
0.0,1.0,1.0,0.0,6.0,6.0,580.7716780000192,3.0,0.0,part_2,go,800.0,650.0,1.0,,,,,,,,,orange,triangle
0.0,4.0,4.0,0.0,6.0,6.0,412.6105609998376,3.0,0.0,part_2,go,800.0,650.0,1.0,,,,,,,,,gray,cross
0.0,1.0,1.0,0.0,5.0,5.0,665.8254630001466,3.0,0.0,part_2,go,800.0,650.0,1.0,,,,,,,,,orange,triangle
0.0,1.0,1.0,0.0,5.0,5.0,365.6346429997938,3.0,0.0,part_2,go,800.0,650.0,1.0,,,,,,,,,orange,triangle
0.0,4.0,4.0,0.0,5.0,5.0,1162.9955710000104,3.0,0.0,part_2,go,800.0,650.0,1.0,,,,,,,,,gray,cross
0.0,7.0,3.0,1.0,6.0,6.0,696.3850509996519,3.0,0.0,part_2,stop,800.0,650.0,3.0,,,,,,,,,green,square
0.0,8.0,4.0,1.0,5.0,0.0,0.0,3.0,0.0,part_2,stop,800.0,600.0,4.0,,,,,,,,,magenta,circle
0.0,3.0,3.0,0.0,6.0,6.0,901.5603130001182,3.0,0.0,part_2,go,850.0,600.0,1.0,,,,,,,,,white,flipped triangle
0.0,1.0,1.0,0.0,6.0,6.0,1099.3268749998606,3.0,0.0,part_2,go,850.0,600.0,1.0,,,,,,,,,orange,triangle
0.0,2.0,2.0,0.0,6.0,6.0,1256.1235749999469,3.0,0.0,part_2,go,850.0,600.0,1.0,,,,,,,,,cyan,I
0.0,2.0,2.0,0.0,6.0,6.0,1059.6415200002411,3.0,0.0,part_2,go,850.0,600.0,1.0,,,,,,,,,cyan,I
0.0,1.0,1.0,0.0,5.0,5.0,1408.102073000009,3.0,0.0,part_2,go,850.0,600.0,1.0,,,,,,,,,orange,triangle
0.0,1.0,1.0,0.0,5.0,5.0,1222.4065860000335,3.0,0.0,part_2,go,850.0,600.0,1.0,,,,,,,,,orange,triangle
0.0,5.0,1.0,1.0,5.0,0.0,0.0,3.0,0.0,part_2,stop,850.0,600.0,4.0,,,,,,,,,yellow,hexagon
0.0,4.0,4.0,0.0,5.0,5.0,1145.7740079999894,3.0,0.0,part_2,go,900.0,600.0,1.0,,,,,,,,,gray,cross
0.0,3.0,3.0,0.0,5.0,5.0,1079.65478899996,3.0,0.0,part_2,go,900.0,600.0,1.0,,,,,,,,,white,flipped triangle
0.0,5.0,1.0,1.0,6.0,6.0,911.251468000046,3.0,0.0,part_2,go,900.0,600.0,1.0,,,,,,,,,yellow,hexagon
0.0,2.0,2.0,0.0,6.0,6.0,1144.9240880001526,3.0,0.0,part_2,go,900.0,600.0,1.0,,,,,,,,,cyan,I
0.0,2.0,2.0,0.0,5.0,5.0,1334.5375690000765,3.0,0.0,part_2,go,900.0,600.0,1.0,,,,,,,,,cyan,I
0.0,2.0,2.0,0.0,6.0,6.0,1090.921557999991,3.0,0.0,part_2,go,900.0,600.0,1.0,,,,,,,,,cyan,I
0.0,5.0,1.0,1.0,5.0,0.0,0.0,3.0,0.0,part_2,stop,900.0,600.0,4.0,,,,,,,,,yellow,hexagon
0.0,5.0,1.0,1.0,5.0,5.0,996.510947000388,3.0,0.0,part_2,go,950.0,600.0,1.0,,,,,,,,,yellow,hexagon
0.0,5.0,1.0,1.0,6.0,6.0,994.5448089997626,3.0,0.0,part_2,go,950.0,600.0,1.0,,,,,,,,,yellow,hexagon
0.0,1.0,1.0,0.0,5.0,5.0,714.1277000000628,3.0,0.0,part_2,go,950.0,600.0,1.0,,,,,,,,,orange,triangle
0.0,7.0,3.0,1.0,5.0,0.0,0.0,3.0,0.0,part_2,stop,950.0,600.0,4.0,,,,,,,,,green,square
0.0,3.0,3.0,0.0,5.0,5.0,1044.081295000069,3.0,0.0,part_2,go,1000.0,600.0,1.0,,,,,,,,,white,flipped triangle
0.0,4.0,4.0,0.0,6.0,6.0,1413.848322999911,4.0,0.0,part_2,go,1000.0,600.0,1.0,,,,,,,,,gray,cross
0.0,1.0,1.0,0.0,6.0,6.0,1014.8796349999429,4.0,0.0,part_2,go,1000.0,600.0,1.0,,,,,,,,,orange,triangle
0.0,5.0,1.0,1.0,5.0,5.0,742.0655599999009,4.0,0.0,part_2,stop,1000.0,600.0,3.0,,,,,,,,,yellow,hexagon
0.0,6.0,2.0,1.0,5.0,5.0,788.5876089999329,4.0,0.0,part_2,stop,950.0,600.0,3.0,,,,,,,,,blue,diamond
0.0,5.0,1.0,1.0,5.0,5.0,943.8450860002376,4.0,0.0,part_2,stop,900.0,600.0,3.0,,,,,,,,,yellow,hexagon
0.0,5.0,1.0,1.0,6.0,6.0,1020.2874880001218,4.0,0.0,part_2,go,850.0,600.0,1.0,,,,,,,,,yellow,hexagon
0.0,7.0,3.0,1.0,6.0,6.0,977.25880400003,4.0,0.0,part_2,go,850.0,600.0,1.0,,,,,,,,,green,square
0.0,7.0,3.0,1.0,6.0,6.0,890.8023720000529,4.0,0.0,part_2,go,850.0,600.0,1.0,,,,,,,,,green,square
0.0,2.0,2.0,0.0,6.0,6.0,945.8362469999884,4.0,0.0,part_2,go,850.0,600.0,1.0,,,,,,,,,cyan,I
0.0,3.0,3.0,0.0,6.0,6.0,863.8189039997997,4.0,0.0,part_2,go,850.0,600.0,1.0,,,,,,,,,white,flipped triangle
0.0,5.0,1.0,1.0,5.0,0.0,0.0,4.0,0.0,part_2,stop,850.0,600.0,4.0,,,,,,,,,yellow,hexagon
0.0,3.0,3.0,0.0,5.0,5.0,870.8972559998074,4.0,0.0,part_2,go,900.0,600.0,1.0,,,,,,,,,white,flipped triangle
0.0,5.0,1.0,1.0,6.0,0.0,0.0,4.0,0.0,part_2,stop,900.0,600.0,4.0,,,,,,,,,yellow,hexagon
0.0,2.0,2.0,0.0,5.0,5.0,764.5064640000783,4.0,0.0,part_2,go,900.0,650.0,1.0,,,,,,,,,cyan,I
0.0,6.0,2.0,1.0,5.0,5.0,977.3983750001208,4.0,0.0,part_2,stop,900.0,650.0,3.0,,,,,,,,,blue,diamond
0.0,3.0,3.0,0.0,6.0,6.0,1006.9404699997904,4.0,0.0,part_2,go,850.0,650.0,1.0,,,,,,,,,white,flipped triangle
0.0,2.0,2.0,0.0,6.0,6.0,987.314236000202,4.0,0.0,part_2,go,850.0,650.0,1.0,,,,,,,,,cyan,I
0.0,3.0,3.0,0.0,5.0,5.0,1204.3748840001172,4.0,0.0,part_2,go,850.0,650.0,1.0,,,,,,,,,white,flipped triangle
0.0,6.0,2.0,1.0,6.0,0.0,0.0,4.0,0.0,part_2,stop,850.0,650.0,4.0,,,,,,,,,blue,diamond
0.0,4.0,4.0,0.0,6.0,6.0,1080.4593729999397,4.0,0.0,part_2,go,850.0,700.0,1.0,,,,,,,,,gray,cross
0.0,7.0,3.0,1.0,6.0,0.0,0.0,4.0,0.0,part_2,stop,850.0,700.0,4.0,,,,,,,,,green,square
0.0,4.0,4.0,0.0,5.0,5.0,867.6476969999385,4.0,0.0,part_2,go,850.0,750.0,1.0,,,,,,,,,gray,cross
0.0,7.0,3.0,1.0,6.0,0.0,0.0,4.0,0.0,part_2,stop,850.0,750.0,4.0,,,,,,,,,green,square
0.0,7.0,3.0,1.0,5.0,5.0,799.4568559997788,4.0,0.0,part_2,go,850.0,800.0,1.0,,,,,,,,,green,square
0.0,4.0,4.0,0.0,6.0,6.0,1128.213586000129,4.0,0.0,part_2,go,850.0,800.0,1.0,,,,,,,,,gray,cross
0.0,5.0,1.0,1.0,6.0,6.0,886.0636870003873,4.0,0.0,part_2,go,850.0,800.0,1.0,,,,,,,,,yellow,hexagon
0.0,8.0,4.0,1.0,5.0,5.0,897.6528250000229,4.0,0.0,part_2,stop,850.0,800.0,3.0,,,,,,,,,magenta,circle
0.0,7.0,3.0,1.0,6.0,6.0,919.3263120000664,4.0,0.0,part_2,stop,800.0,800.0,3.0,,,,,,,,,green,square
0.0,1.0,1.0,0.0,5.0,5.0,1391.569365000123,4.0,0.0,part_2,go,800.0,750.0,1.0,,,,,,,,,orange,triangle
0.0,7.0,3.0,1.0,6.0,0.0,0.0,4.0,0.0,part_2,stop,800.0,750.0,4.0,,,,,,,,,green,square
0.0,2.0,2.0,0.0,5.0,5.0,970.3804450000462,4.0,0.0,part_2,go,800.0,800.0,1.0,,,,,,,,,cyan,I
0.0,6.0,2.0,1.0,5.0,0.0,0.0,4.0,0.0,part_2,stop,800.0,800.0,4.0,,,,,,,,,blue,diamond
0.0,6.0,2.0,1.0,6.0,6.0,469.7051769999234,4.0,0.0,part_2,stop,850.0,800.0,3.0,,,,,,,,,blue,diamond
0.0,4.0,4.0,0.0,6.0,6.0,959.2671690002136,4.0,0.0,part_2,go,850.0,750.0,1.0,,,,,,,,,gray,cross
0.0,3.0,3.0,0.0,6.0,6.0,1024.2281870000625,4.0,0.0,part_2,go,850.0,750.0,1.0,,,,,,,,,white,flipped triangle
0.0,4.0,4.0,0.0,5.0,5.0,1192.5737400001708,4.0,0.0,part_2,go,850.0,750.0,1.0,,,,,,,,,gray,cross
0.0,1.0,1.0,0.0,6.0,6.0,488.1914259999576,5.0,0.0,part_2,go,850.0,750.0,1.0,,,,,,,,,orange,triangle
0.0,7.0,3.0,1.0,5.0,0.0,0.0,5.0,0.0,part_2,stop,850.0,750.0,4.0,,,,,,,,,green,square
0.0,8.0,4.0,1.0,5.0,5.0,1117.0916149999357,5.0,0.0,part_2,go,900.0,750.0,1.0,,,,,,,,,magenta,circle
0.0,2.0,2.0,0.0,6.0,6.0,1087.858193000102,5.0,0.0,part_2,go,900.0,750.0,1.0,,,,,,,,,cyan,I
0.0,4.0,4.0,0.0,5.0,5.0,1211.71496199986,5.0,0.0,part_2,go,900.0,750.0,1.0,,,,,,,,,gray,cross
0.0,5.0,1.0,1.0,5.0,0.0,0.0,5.0,0.0,part_2,stop,900.0,750.0,4.0,,,,,,,,,yellow,hexagon
0.0,7.0,3.0,1.0,6.0,0.0,0.0,5.0,0.0,part_2,stop,950.0,750.0,4.0,,,,,,,,,green,square
0.0,1.0,1.0,0.0,6.0,6.0,882.2603379999236,5.0,0.0,part_2,go,950.0,800.0,1.0,,,,,,,,,orange,triangle
0.0,2.0,2.0,0.0,5.0,5.0,1292.1586990000833,5.0,0.0,part_2,go,950.0,800.0,1.0,,,,,,,,,cyan,I
0.0,5.0,1.0,1.0,6.0,6.0,938.2089709997672,5.0,0.0,part_2,stop,950.0,800.0,3.0,,,,,,,,,yellow,hexagon
0.0,4.0,4.0,0.0,6.0,6.0,1137.7938540003925,5.0,0.0,part_2,go,950.0,750.0,1.0,,,,,,,,,gray,cross
0.0,1.0,1.0,0.0,6.0,6.0,1298.0644790000042,5.0,0.0,part_2,go,950.0,750.0,1.0,,,,,,,,,orange,triangle
0.0,4.0,4.0,0.0,6.0,6.0,1481.6120400000727,5.0,0.0,part_2,go,950.0,750.0,1.0,,,,,,,,,gray,cross
0.0,2.0,2.0,0.0,5.0,5.0,1146.734504000051,5.0,0.0,part_2,go,950.0,750.0,1.0,,,,,,,,,cyan,I
0.0,6.0,2.0,1.0,5.0,5.0,1152.4727430000894,5.0,0.0,part_2,go,950.0,750.0,1.0,,,,,,,,,blue,diamond
0.0,1.0,1.0,0.0,5.0,5.0,778.724314000101,5.0,0.0,part_2,go,950.0,750.0,1.0,,,,,,,,,orange,triangle
0.0,6.0,2.0,1.0,6.0,0.0,0.0,5.0,0.0,part_2,stop,950.0,750.0,4.0,,,,,,,,,blue,diamond
0.0,6.0,2.0,1.0,6.0,6.0,926.0398169999462,5.0,0.0,part_2,stop,950.0,800.0,3.0,,,,,,,,,blue,diamond
0.0,7.0,3.0,1.0,6.0,6.0,950.452167000094,5.0,0.0,part_2,go,950.0,750.0,1.0,,,,,,,,,green,square
0.0,1.0,1.0,0.0,5.0,5.0,1352.446536000116,5.0,0.0,part_2,go,950.0,750.0,1.0,,,,,,,,,orange,triangle
0.0,8.0,4.0,1.0,5.0,0.0,0.0,5.0,0.0,part_2,stop,950.0,750.0,4.0,,,,,,,,,magenta,circle
0.0,6.0,2.0,1.0,5.0,5.0,1171.8728539999574,5.0,0.0,part_2,go,1000.0,750.0,1.0,,,,,,,,,blue,diamond
0.0,2.0,2.0,0.0,5.0,5.0,1145.264837999548,5.0,0.0,part_2,go,1000.0,750.0,1.0,,,,,,,,,cyan,I
0.0,6.0,2.0,1.0,6.0,0.0,0.0,5.0,0.0,part_2,stop,1000.0,750.0,4.0,,,,,,,,,blue,diamond
0.0,4.0,4.0,0.0,6.0,6.0,1358.0444610001905,5.0,0.0,part_2,go,1000.0,800.0,1.0,,,,,,,,,gray,cross
0.0,3.0,3.0,0.0,5.0,5.0,1249.3272689998776,5.0,0.0,part_2,go,1000.0,800.0,1.0,,,,,,,,,white,flipped triangle
0.0,6.0,2.0,1.0,5.0,5.0,1200.8448860001408,5.0,0.0,part_2,go,1000.0,800.0,1.0,,,,,,,,,blue,diamond
0.0,6.0,2.0,1.0,6.0,0.0,0.0,5.0,0.0,part_2,stop,1000.0,800.0,4.0,,,,,,,,,blue,diamond
0.0,1.0,1.0,0.0,5.0,5.0,1097.1112799998082,5.0,0.0,part_2,go,1000.0,850.0,1.0,,,,,,,,,orange,triangle
0.0,3.0,3.0,0.0,6.0,6.0,1295.5243350002092,5.0,0.0,part_2,go,1000.0,850.0,1.0,,,,,,,,,white,flipped triangle
0.0,1.0,1.0,0.0,6.0,6.0,1189.458769000339,5.0,0.0,part_2,go,1000.0,850.0,1.0,,,,,,,,,orange,triangle
0.0,2.0,2.0,0.0,6.0,6.0,440.0440499998694,5.0,0.0,part_2,go,1000.0,850.0,1.0,,,,,,,,,cyan,I
0.0,3.0,3.0,0.0,5.0,5.0,1059.6969819998776,5.0,0.0,part_2,go,1000.0,850.0,1.0,,,,,,,,,white,flipped triangle
0.0,4.0,4.0,0.0,5.0,5.0,1264.8978389997865,5.0,0.0,part_2,go,1000.0,850.0,1.0,,,,,,,,,gray,cross
0.0,8.0,4.0,1.0,6.0,6.0,993.4720360001849,5.0,0.0,part_2,stop,1000.0,850.0,3.0,,,,,,,,,magenta,circle
0.0,4.0,4.0,0.0,5.0,5.0,1104.9998530002083,5.0,0.0,part_2,go,1000.0,800.0,1.0,,,,,,,,,gray,cross
0.0,7.0,3.0,1.0,5.0,5.0,864.7751880002943,6.0,0.0,part_2,go,1000.0,800.0,1.0,,,,,,,,,green,square
0.0,5.0,1.0,1.0,6.0,6.0,1013.2185460001892,6.0,0.0,part_2,stop,1000.0,800.0,3.0,,,,,,,,,yellow,hexagon
0.0,5.0,1.0,1.0,6.0,0.0,0.0,6.0,0.0,part_2,stop,1000.0,750.0,4.0,,,,,,,,,yellow,hexagon
0.0,6.0,2.0,1.0,6.0,6.0,909.543852999832,6.0,0.0,part_2,stop,1000.0,800.0,3.0,,,,,,,,,blue,diamond
0.0,8.0,4.0,1.0,6.0,6.0,1409.4375849999778,6.0,0.0,part_2,go,1000.0,750.0,1.0,,,,,,,,,magenta,circle
0.0,2.0,2.0,0.0,5.0,5.0,1003.5960739996881,6.0,0.0,part_2,go,1000.0,750.0,1.0,,,,,,,,,cyan,I
0.0,2.0,2.0,0.0,6.0,6.0,1080.2371039999343,6.0,0.0,part_2,go,1000.0,750.0,1.0,,,,,,,,,cyan,I
0.0,7.0,3.0,1.0,5.0,5.0,1120.121064000159,6.0,0.0,part_2,stop,1000.0,750.0,3.0,,,,,,,,,green,square
0.0,2.0,2.0,0.0,5.0,5.0,1144.5477490001394,6.0,0.0,part_2,go,950.0,750.0,1.0,,,,,,,,,cyan,I
0.0,5.0,1.0,1.0,5.0,0.0,0.0,6.0,0.0,part_2,stop,950.0,750.0,4.0,,,,,,,,,yellow,hexagon
0.0,4.0,4.0,0.0,5.0,5.0,1192.356461000145,6.0,0.0,part_2,go,1000.0,750.0,1.0,,,,,,,,,gray,cross
0.0,1.0,1.0,0.0,6.0,6.0,1059.6729760000017,6.0,0.0,part_2,go,1000.0,750.0,1.0,,,,,,,,,orange,triangle
0.0,7.0,3.0,1.0,5.0,0.0,0.0,6.0,0.0,part_2,stop,1000.0,750.0,4.0,,,,,,,,,green,square
0.0,1.0,1.0,0.0,6.0,6.0,1079.3207960000473,6.0,0.0,part_2,go,1050.0,750.0,1.0,,,,,,,,,orange,triangle
0.0,3.0,3.0,0.0,6.0,6.0,1126.2236580000715,6.0,0.0,part_2,go,1050.0,750.0,1.0,,,,,,,,,white,flipped triangle
0.0,7.0,3.0,1.0,6.0,0.0,0.0,6.0,0.0,part_2,stop,1050.0,750.0,4.0,,,,,,,,,green,square
0.0,1.0,1.0,0.0,5.0,5.0,1025.45738300023,6.0,0.0,part_2,go,1050.0,800.0,1.0,,,,,,,,,orange,triangle
0.0,5.0,1.0,1.0,6.0,0.0,0.0,6.0,0.0,part_2,stop,1050.0,800.0,4.0,,,,,,,,,yellow,hexagon
0.0,3.0,3.0,0.0,6.0,6.0,1051.388661999681,6.0,0.0,part_2,go,1050.0,850.0,1.0,,,,,,,,,white,flipped triangle
0.0,6.0,2.0,1.0,6.0,0.0,0.0,6.0,0.0,part_2,go,1050.0,850.0,5.0,,,,,,,,,blue,diamond
0.0,8.0,4.0,1.0,5.0,0.0,0.0,6.0,0.0,part_2,stop,1050.0,850.0,4.0,,,,,,,,,magenta,circle
0.0,5.0,1.0,1.0,5.0,5.0,1160.3976629999124,6.0,0.0,part_2,stop,1100.0,850.0,3.0,,,,,,,,,yellow,hexagon
0.0,6.0,2.0,1.0,6.0,0.0,0.0,6.0,0.0,part_2,stop,1050.0,850.0,4.0,,,,,,,,,blue,diamond
0.0,1.0,1.0,0.0,6.0,6.0,974.280330000056,6.0,0.0,part_2,go,1050.0,900.0,1.0,,,,,,,,,orange,triangle
0.0,6.0,2.0,1.0,5.0,0.0,0.0,6.0,0.0,part_2,stop,1050.0,900.0,4.0,,,,,,,,,blue,diamond
0.0,4.0,4.0,0.0,6.0,6.0,938.0612769996332,6.0,0.0,part_2,go,1100.0,900.0,1.0,,,,,,,,,gray,cross
0.0,7.0,3.0,1.0,6.0,0.0,0.0,6.0,0.0,part_2,stop,1100.0,900.0,4.0,,,,,,,,,green,square
0.0,6.0,2.0,1.0,5.0,5.0,1313.234932999876,6.0,0.0,part_2,go,1100.0,950.0,1.0,,,,,,,,,blue,diamond
0.0,7.0,3.0,1.0,5.0,5.0,1385.6401779999032,6.0,0.0,part_2,stop,1100.0,950.0,3.0,,,,,,,,,green,square
0.0,4.0,4.0,0.0,6.0,6.0,873.1232750001254,6.0,0.0,part_2,go,1050.0,950.0,1.0,,,,,,,,,gray,cross
0.0,2.0,2.0,0.0,6.0,6.0,872.0421809998697,6.0,0.0,part_2,go,1050.0,950.0,1.0,,,,,,,,,cyan,I
0.0,3.0,3.0,0.0,6.0,6.0,621.2256100002378,6.0,0.0,part_2,go,1050.0,950.0,1.0,,,,,,,,,white,flipped triangle
0.0,2.0,2.0,0.0,6.0,6.0,646.313869000096,6.0,0.0,part_2,go,1050.0,950.0,1.0,,,,,,,,,cyan,I
0.0,5.0,1.0,1.0,6.0,0.0,0.0,6.0,0.0,part_2,stop,1050.0,950.0,4.0,,,,,,,,,yellow,hexagon
0.0,3.0,3.0,0.0,6.0,6.0,664.2737980000675,6.0,0.0,part_2,go,1050.0,1000.0,1.0,,,,,,,,,white,flipped triangle
0.0,7.0,3.0,1.0,6.0,6.0,1136.0540420000689,6.0,0.0,part_2,stop,1050.0,1000.0,3.0,,,,,,,,,green,square
0.0,4.0,4.0,0.0,5.0,5.0,767.4995040001704,7.0,0.0,part_2,go,1050.0,950.0,1.0,,,,,,,,,gray,cross
0.0,2.0,2.0,0.0,5.0,5.0,702.0672469998317,7.0,0.0,part_2,go,1050.0,950.0,1.0,,,,,,,,,cyan,I
0.0,5.0,1.0,1.0,6.0,0.0,0.0,7.0,0.0,part_2,stop,1050.0,950.0,4.0,,,,,,,,,yellow,hexagon
0.0,1.0,1.0,0.0,5.0,5.0,514.6862620003958,7.0,0.0,part_2,go,1050.0,1000.0,1.0,,,,,,,,,orange,triangle
0.0,8.0,4.0,1.0,6.0,6.0,1132.037306999791,7.0,0.0,part_2,stop,1050.0,1000.0,3.0,,,,,,,,,magenta,circle
0.0,7.0,3.0,1.0,5.0,0.0,0.0,7.0,0.0,part_2,stop,1050.0,950.0,4.0,,,,,,,,,green,square
0.0,4.0,4.0,0.0,5.0,5.0,487.2435400002359,7.0,0.0,part_2,go,1100.0,950.0,1.0,,,,,,,,,gray,cross
0.0,5.0,1.0,1.0,5.0,5.0,1376.1131520000165,7.0,0.0,part_2,go,1100.0,950.0,1.0,,,,,,,,,yellow,hexagon
0.0,6.0,2.0,1.0,6.0,6.0,1299.10803499979,7.0,0.0,part_2,go,1100.0,950.0,1.0,,,,,,,,,blue,diamond
0.0,5.0,1.0,1.0,6.0,0.0,0.0,7.0,0.0,part_2,stop,1100.0,950.0,4.0,,,,,,,,,yellow,hexagon
0.0,2.0,2.0,0.0,6.0,6.0,423.1129810000311,7.0,0.0,part_2,go,1100.0,1000.0,1.0,,,,,,,,,cyan,I
0.0,3.0,3.0,0.0,6.0,6.0,555.0116560002607,7.0,0.0,part_2,go,1100.0,1000.0,1.0,,,,,,,,,white,flipped triangle
0.0,3.0,3.0,0.0,5.0,5.0,442.2915889999785,7.0,0.0,part_2,go,1100.0,1000.0,1.0,,,,,,,,,white,flipped triangle
0.0,4.0,4.0,0.0,6.0,6.0,495.6594980003501,7.0,0.0,part_2,go,1100.0,1000.0,1.0,,,,,,,,,gray,cross
0.0,4.0,4.0,0.0,5.0,5.0,422.8916779998144,7.0,0.0,part_2,go,1100.0,1000.0,1.0,,,,,,,,,gray,cross
0.0,8.0,4.0,1.0,6.0,0.0,0.0,7.0,0.0,part_2,stop,1100.0,1000.0,4.0,,,,,,,,,magenta,circle
0.0,6.0,2.0,1.0,6.0,6.0,1254.3460020001476,7.0,0.0,part_2,go,1100.0,1050.0,1.0,,,,,,,,,blue,diamond
0.0,5.0,1.0,1.0,6.0,0.0,0.0,7.0,0.0,part_2,stop,1100.0,1050.0,4.0,,,,,,,,,yellow,hexagon
0.0,2.0,2.0,0.0,5.0,5.0,402.7112039998428,7.0,0.0,part_2,go,1100.0,1100.0,1.0,,,,,,,,,cyan,I
0.0,7.0,3.0,1.0,5.0,5.0,1314.634009999736,7.0,0.0,part_2,go,1100.0,1100.0,1.0,,,,,,,,,green,square
0.0,2.0,2.0,0.0,6.0,6.0,488.452690000031,7.0,0.0,part_2,go,1100.0,1100.0,1.0,,,,,,,,,cyan,I
0.0,2.0,2.0,0.0,5.0,5.0,488.0931789998612,7.0,0.0,part_2,go,1100.0,1100.0,1.0,,,,,,,,,cyan,I
0.0,8.0,4.0,1.0,6.0,6.0,955.7226339998124,7.0,0.0,part_2,stop,1100.0,1100.0,3.0,,,,,,,,,magenta,circle
0.0,3.0,3.0,0.0,5.0,5.0,571.3531169999442,7.0,0.0,part_2,go,1100.0,1050.0,1.0,,,,,,,,,white,flipped triangle
0.0,7.0,3.0,1.0,6.0,0.0,0.0,7.0,0.0,part_2,stop,1100.0,1050.0,4.0,,,,,,,,,green,square
0.0,5.0,1.0,1.0,5.0,0.0,0.0,7.0,0.0,part_2,stop,1100.0,1100.0,4.0,,,,,,,,,yellow,hexagon
0.0,4.0,4.0,0.0,5.0,5.0,627.6241850000588,7.0,0.0,part_2,go,1150.0,1100.0,1.0,,,,,,,,,gray,cross
0.0,6.0,2.0,1.0,5.0,0.0,0.0,7.0,0.0,part_2,stop,1150.0,1100.0,4.0,,,,,,,,,blue,diamond
0.0,4.0,4.0,0.0,6.0,6.0,394.164131999787,7.0,0.0,part_2,go,1200.0,1100.0,1.0,,,,,,,,,gray,cross
0.0,3.0,3.0,0.0,5.0,5.0,441.6020110002137,7.0,0.0,part_2,go,1200.0,1100.0,1.0,,,,,,,,,white,flipped triangle
0.0,4.0,4.0,0.0,6.0,6.0,582.8448899997056,7.0,0.0,part_2,go,1200.0,1100.0,1.0,,,,,,,,,gray,cross
0.0,8.0,4.0,1.0,6.0,0.0,0.0,7.0,0.0,part_2,stop,1200.0,1100.0,4.0,,,,,,,,,magenta,circle
0.0,3.0,3.0,0.0,5.0,5.0,497.7130380002563,7.0,0.0,part_2,go,1200.0,1150.0,1.0,,,,,,,,,white,flipped triangle
0.0,5.0,1.0,1.0,5.0,5.0,1374.1139540002223,7.0,0.0,part_2,stop,1200.0,1150.0,3.0,,,,,,,,,yellow,hexagon
0.0,3.0,3.0,0.0,6.0,6.0,550.7493510003769,7.0,0.0,part_2,go,1150.0,1150.0,1.0,,,,,,,,,white,flipped triangle
0.0,8.0,4.0,1.0,6.0,0.0,0.0,7.0,0.0,part_2,stop,1150.0,1150.0,4.0,,,,,,,,,magenta,circle
0.0,8.0,4.0,1.0,5.0,5.0,434.9610709996341,8.0,0.0,part_2,stop,1150.0,1200.0,3.0,,,,,,,,,magenta,circle
0.0,7.0,3.0,1.0,5.0,0.0,0.0,8.0,0.0,part_2,stop,1100.0,1200.0,4.0,,,,,,,,,green,square
0.0,3.0,3.0,0.0,6.0,6.0,374.7796880006717,8.0,0.0,part_2,go,1150.0,1200.0,1.0,,,,,,,,,white,flipped triangle
0.0,8.0,4.0,1.0,6.0,6.0,1309.0722919996551,8.0,0.0,part_2,stop,1150.0,1200.0,3.0,,,,,,,,,magenta,circle
0.0,3.0,3.0,0.0,6.0,6.0,514.9469039997712,8.0,0.0,part_2,go,1150.0,1150.0,1.0,,,,,,,,,white,flipped triangle
0.0,5.0,1.0,1.0,6.0,0.0,0.0,8.0,0.0,part_2,stop,1150.0,1150.0,4.0,,,,,,,,,yellow,hexagon
0.0,6.0,2.0,1.0,6.0,0.0,0.0,8.0,0.0,part_2,stop,1150.0,1200.0,4.0,,,,,,,,,blue,diamond
0.0,5.0,1.0,1.0,5.0,5.0,1367.0515540006818,8.0,0.0,part_2,go,1150.0,1250.0,1.0,,,,,,,,,yellow,hexagon
0.0,6.0,2.0,1.0,6.0,0.0,0.0,8.0,0.0,part_2,stop,1150.0,1250.0,4.0,,,,,,,,,blue,diamond
0.0,8.0,4.0,1.0,6.0,0.0,0.0,8.0,0.0,part_2,go,1150.0,1300.0,5.0,,,,,,,,,magenta,circle
0.0,6.0,2.0,1.0,5.0,0.0,0.0,8.0,0.0,part_2,stop,1150.0,1300.0,4.0,,,,,,,,,blue,diamond
0.0,6.0,2.0,1.0,6.0,6.0,1106.8505899993395,8.0,0.0,part_2,stop,1200.0,1300.0,3.0,,,,,,,,,blue,diamond
0.0,3.0,3.0,0.0,5.0,5.0,510.17505599975266,8.0,0.0,part_2,go,1200.0,1250.0,1.0,,,,,,,,,white,flipped triangle
0.0,7.0,3.0,1.0,6.0,6.0,1245.5560560001686,8.0,0.0,part_2,stop,1200.0,1250.0,3.0,,,,,,,,,green,square
0.0,5.0,1.0,1.0,6.0,0.0,0.0,8.0,0.0,part_2,stop,1200.0,1200.0,4.0,,,,,,,,,yellow,hexagon
0.0,5.0,1.0,1.0,5.0,0.0,0.0,8.0,0.0,part_2,stop,1200.0,1250.0,4.0,,,,,,,,,yellow,hexagon
0.0,2.0,2.0,0.0,6.0,6.0,382.8779149998809,8.0,0.0,part_2,go,1250.0,1250.0,1.0,,,,,,,,,cyan,I
0.0,2.0,2.0,0.0,6.0,6.0,364.5387340002344,8.0,0.0,part_2,go,1250.0,1250.0,1.0,,,,,,,,,cyan,I
0.0,4.0,4.0,0.0,5.0,5.0,450.8599139999205,8.0,0.0,part_2,go,1250.0,1250.0,1.0,,,,,,,,,gray,cross
0.0,8.0,4.0,1.0,6.0,6.0,1160.330091000105,8.0,0.0,part_2,stop,1250.0,1250.0,3.0,,,,,,,,,magenta,circle
0.0,6.0,2.0,1.0,6.0,6.0,440.5209119995561,8.0,0.0,part_2,stop,1250.0,1200.0,3.0,,,,,,,,,blue,diamond
0.0,1.0,1.0,0.0,6.0,6.0,654.7553299997162,8.0,0.0,part_2,go,1250.0,1150.0,1.0,,,,,,,,,orange,triangle
0.0,8.0,4.0,1.0,5.0,0.0,0.0,8.0,0.0,part_2,stop,1250.0,1150.0,4.0,,,,,,,,,magenta,circle
0.0,2.0,2.0,0.0,5.0,5.0,609.0032800002518,8.0,0.0,part_2,go,1300.0,1150.0,1.0,,,,,,,,,cyan,I
0.0,3.0,3.0,0.0,5.0,5.0,542.2972709993701,8.0,0.0,part_2,go,1300.0,1150.0,1.0,,,,,,,,,white,flipped triangle
0.0,7.0,3.0,1.0,5.0,0.0,0.0,8.0,0.0,part_2,stop,1300.0,1150.0,4.0,,,,,,,,,green,square
0.0,4.0,4.0,0.0,5.0,5.0,675.1731909998853,8.0,0.0,part_2,go,1350.0,1150.0,1.0,,,,,,,,,gray,cross
0.0,8.0,4.0,1.0,5.0,5.0,1253.144460999465,8.0,0.0,part_2,go,1350.0,1150.0,1.0,,,,,,,,,magenta,circle
0.0,4.0,4.0,0.0,5.0,5.0,581.4274550002665,8.0,0.0,part_2,go,1350.0,1150.0,1.0,,,,,,,,,gray,cross
0.0,8.0,4.0,1.0,5.0,5.0,1195.546261000345,8.0,0.0,part_2,stop,1350.0,1150.0,3.0,,,,,,,,,magenta,circle
0.0,3.0,3.0,0.0,5.0,5.0,505.0571539995872,8.0,0.0,part_2,go,1300.0,1150.0,1.0,,,,,,,,,white,flipped triangle
0.0,8.0,4.0,1.0,6.0,0.0,0.0,8.0,0.0,part_2,go,1300.0,1150.0,5.0,,,,,,,,,magenta,circle
0.0,2.0,2.0,0.0,5.0,5.0,811.9286840001223,8.0,0.0,part_2,go,1300.0,1150.0,1.0,,,,,,,,,cyan,I
0.0,3.0,3.0,0.0,6.0,6.0,441.8252060004306,8.0,0.0,part_2,go,1300.0,1150.0,1.0,,,,,,,,,white,flipped triangle
0.0,4.0,4.0,0.0,6.0,6.0,496.5056719993299,8.0,0.0,part_2,go,1300.0,1150.0,1.0,,,,,,,,,gray,cross
0.0,8.0,4.0,1.0,5.0,5.0,964.4792489998508,8.0,0.0,part_2,stop,1300.0,1150.0,3.0,,,,,,,,,magenta,circle
0.0,5.0,1.0,1.0,7.0,2.0,2020.3713589999097,1.0,2.0,part_3,go,0.0,0.0,0.0,464.0,4.0,232.0,464.0,580.0,116.0,696.0,348.0,yellow,hexagon
0.0,3.0,3.0,0.0,7.0,2.0,2918.1416709998302,1.0,1.0,part_3,go,0.0,0.0,0.0,308.0,2.0,154.0,308.0,462.0,616.0,924.0,770.0,white,flipped triangle
0.0,1.0,1.0,0.0,7.0,3.0,2098.1881419993438,1.0,1.0,part_3,go,0.0,0.0,0.0,692.0,4.0,519.0,173.0,692.0,1038.0,865.0,346.0,orange,triangle
0.0,4.0,4.0,0.0,7.0,4.0,3022.6132070001768,1.0,1.0,part_3,go,0.0,0.0,0.0,308.0,2.0,462.0,616.0,154.0,308.0,770.0,924.0,gray,cross
0.0,7.0,3.0,1.0,7.0,1.0,4280.997128000308,1.0,1.0,part_3,go,0.0,0.0,0.0,405.0,3.0,405.0,135.0,675.0,270.0,810.0,540.0,green,square
0.0,4.0,4.0,0.0,7.0,3.0,3316.9470029997683,1.0,1.0,part_3,go,0.0,0.0,0.0,576.0,3.0,960.0,1152.0,576.0,768.0,192.0,384.0,gray,cross
0.0,1.0,1.0,0.0,7.0,2.0,3204.057253999963,1.0,1.0,part_3,go,0.0,0.0,0.0,116.0,1.0,464.0,116.0,580.0,696.0,232.0,348.0,orange,triangle
0.0,5.0,1.0,1.0,7.0,2.0,2080.6604190001963,1.0,1.0,part_3,go,0.0,0.0,0.0,308.0,2.0,154.0,308.0,770.0,616.0,924.0,462.0,yellow,hexagon
0.0,1.0,1.0,0.0,7.0,2.0,1652.3515859998952,1.0,1.0,part_3,go,0.0,0.0,0.0,346.0,2.0,1038.0,346.0,692.0,519.0,865.0,173.0,orange,triangle
0.0,3.0,3.0,0.0,7.0,5.0,2972.892807999415,1.0,1.0,part_3,go,0.0,0.0,0.0,346.0,2.0,865.0,1038.0,173.0,519.0,346.0,692.0,white,flipped triangle
0.0,8.0,4.0,1.0,7.0,5.0,2483.9834809999957,1.0,1.0,part_3,go,0.0,0.0,0.0,270.0,2.0,540.0,135.0,675.0,405.0,270.0,810.0,magenta,circle
0.0,7.0,3.0,1.0,7.0,5.0,3080.101855999601,1.0,1.0,part_3,go,0.0,0.0,0.0,405.0,3.0,675.0,135.0,810.0,540.0,405.0,270.0,green,square
0.0,3.0,3.0,0.0,7.0,2.0,1695.544060999964,1.0,1.0,part_3,go,0.0,0.0,0.0,384.0,2.0,960.0,384.0,1152.0,576.0,192.0,768.0,white,flipped triangle
0.0,4.0,4.0,0.0,7.0,3.0,1996.997484000531,1.0,1.0,part_3,go,0.0,0.0,0.0,1038.0,6.0,865.0,519.0,1038.0,692.0,346.0,173.0,gray,cross
0.0,3.0,3.0,0.0,7.0,4.0,1511.7742950005777,1.0,1.0,part_3,go,0.0,0.0,0.0,232.0,2.0,348.0,580.0,464.0,232.0,116.0,696.0,white,flipped triangle
0.0,6.0,2.0,1.0,7.0,2.0,1304.0460590000291,1.0,1.0,part_3,go,0.0,0.0,0.0,270.0,2.0,135.0,270.0,675.0,810.0,405.0,540.0,blue,diamond
0.0,6.0,2.0,1.0,7.0,5.0,1587.7683000007892,1.0,1.0,part_3,go,0.0,0.0,0.0,696.0,6.0,116.0,348.0,232.0,464.0,696.0,580.0,blue,diamond
0.0,5.0,1.0,1.0,7.0,3.0,2060.14522499936,1.0,1.0,part_3,go,0.0,0.0,0.0,116.0,1.0,580.0,232.0,116.0,348.0,464.0,696.0,yellow,hexagon
0.0,2.0,2.0,0.0,7.0,4.0,1693.4526499999265,1.0,1.0,part_3,go,0.0,0.0,0.0,135.0,1.0,810.0,270.0,540.0,135.0,405.0,675.0,cyan,I
0.0,6.0,2.0,1.0,7.0,2.0,1587.351690000105,1.0,1.0,part_3,go,0.0,0.0,0.0,173.0,1.0,519.0,173.0,692.0,346.0,1038.0,865.0,blue,diamond
0.0,4.0,4.0,0.0,7.0,5.0,1491.9530180004583,2.0,1.0,part_3,go,0.0,0.0,0.0,270.0,2.0,675.0,540.0,810.0,405.0,270.0,135.0,gray,cross
0.0,5.0,1.0,1.0,7.0,4.0,1538.5164529998292,2.0,1.0,part_3,go,0.0,0.0,0.0,384.0,2.0,1152.0,768.0,576.0,384.0,192.0,960.0,yellow,hexagon
0.0,6.0,2.0,1.0,7.0,6.0,3071.819925999989,2.0,1.0,part_3,go,0.0,0.0,0.0,192.0,1.0,384.0,768.0,1152.0,960.0,576.0,192.0,blue,diamond
0.0,8.0,4.0,1.0,7.0,1.0,1287.8316249998534,2.0,1.0,part_3,go,0.0,0.0,0.0,154.0,1.0,154.0,308.0,924.0,616.0,770.0,462.0,magenta,circle
0.0,4.0,4.0,0.0,7.0,3.0,1342.0270960004927,2.0,1.0,part_3,go,0.0,0.0,0.0,154.0,1.0,616.0,308.0,154.0,770.0,462.0,924.0,gray,cross
0.0,7.0,3.0,1.0,7.0,2.0,1443.993039999441,2.0,1.0,part_3,go,0.0,0.0,0.0,192.0,1.0,1152.0,192.0,768.0,960.0,384.0,576.0,green,square
0.0,2.0,2.0,0.0,7.0,1.0,2925.9238459999324,2.0,1.0,part_3,go,0.0,0.0,0.0,540.0,4.0,540.0,405.0,270.0,135.0,810.0,675.0,cyan,I
0.0,2.0,2.0,0.0,7.0,4.0,2240.01584799953,2.0,1.0,part_3,go,0.0,0.0,0.0,384.0,2.0,576.0,768.0,960.0,384.0,1152.0,192.0,cyan,I
0.0,4.0,4.0,0.0,7.0,1.0,4800.158744999862,2.0,1.0,part_3,go,0.0,0.0,0.0,346.0,2.0,346.0,865.0,692.0,173.0,519.0,1038.0,gray,cross
0.0,7.0,3.0,1.0,7.0,2.0,1851.8762840003544,2.0,1.0,part_3,go,0.0,0.0,0.0,116.0,1.0,232.0,116.0,464.0,348.0,696.0,580.0,green,square
0.0,7.0,3.0,1.0,7.0,5.0,1690.0535019995004,2.0,1.0,part_3,go,0.0,0.0,0.0,173.0,1.0,865.0,692.0,519.0,1038.0,173.0,346.0,green,square
0.0,5.0,1.0,1.0,7.0,2.0,1900.367742000526,2.0,1.0,part_3,go,0.0,0.0,0.0,173.0,1.0,346.0,173.0,1038.0,865.0,692.0,519.0,yellow,hexagon
0.0,6.0,2.0,1.0,7.0,4.0,1957.627101000071,2.0,1.0,part_3,go,0.0,0.0,0.0,154.0,1.0,924.0,770.0,462.0,154.0,616.0,308.0,blue,diamond
0.0,6.0,2.0,1.0,7.0,4.0,1483.252528999401,2.0,1.0,part_3,go,0.0,0.0,0.0,116.0,1.0,580.0,464.0,348.0,116.0,696.0,232.0,blue,diamond
0.0,3.0,3.0,0.0,7.0,3.0,2123.3705399999963,2.0,1.0,part_3,go,0.0,0.0,0.0,154.0,1.0,770.0,308.0,154.0,462.0,616.0,924.0,white,flipped triangle
0.0,8.0,4.0,1.0,7.0,2.0,1452.6079130000653,2.0,1.0,part_3,go,0.0,0.0,0.0,154.0,1.0,308.0,154.0,770.0,616.0,462.0,924.0,magenta,circle
0.0,4.0,4.0,0.0,7.0,3.0,1238.512815000831,2.0,1.0,part_3,go,0.0,0.0,0.0,116.0,1.0,348.0,232.0,116.0,464.0,580.0,696.0,gray,cross
0.0,1.0,1.0,0.0,7.0,2.0,1365.5882920002114,2.0,1.0,part_3,go,0.0,0.0,0.0,192.0,1.0,384.0,192.0,960.0,576.0,768.0,1152.0,orange,triangle
0.0,8.0,4.0,1.0,7.0,5.0,1451.7261759992834,2.0,1.0,part_3,go,0.0,0.0,0.0,116.0,1.0,232.0,348.0,696.0,464.0,116.0,580.0,magenta,circle
0.0,7.0,3.0,1.0,7.0,2.0,1312.885200999517,2.0,1.0,part_3,go,0.0,0.0,0.0,154.0,1.0,770.0,154.0,616.0,924.0,462.0,308.0,green,square
0.0,2.0,2.0,0.0,7.0,1.0,2249.5044209999833,3.0,1.0,part_3,go,0.0,0.0,0.0,154.0,1.0,154.0,462.0,616.0,924.0,770.0,308.0,cyan,I
0.0,7.0,3.0,1.0,7.0,3.0,1971.126947999437,3.0,1.0,part_3,go,0.0,0.0,0.0,192.0,1.0,1152.0,960.0,192.0,768.0,576.0,384.0,green,square
0.0,8.0,4.0,1.0,7.0,6.0,2327.8297819997533,3.0,1.0,part_3,go,0.0,0.0,0.0,192.0,1.0,384.0,960.0,768.0,1152.0,576.0,192.0,magenta,circle
0.0,1.0,1.0,0.0,7.0,3.0,2046.9382720002613,3.0,1.0,part_3,go,0.0,0.0,0.0,154.0,1.0,770.0,308.0,154.0,924.0,462.0,616.0,orange,triangle
0.0,2.0,2.0,0.0,7.0,4.0,1377.465244000632,3.0,1.0,part_3,go,0.0,0.0,0.0,192.0,1.0,768.0,384.0,576.0,192.0,960.0,1152.0,cyan,I
0.0,4.0,4.0,0.0,7.0,4.0,1218.073760000152,3.0,1.0,part_3,go,0.0,0.0,0.0,116.0,1.0,464.0,232.0,348.0,116.0,696.0,580.0,gray,cross
0.0,3.0,3.0,0.0,7.0,2.0,1424.7809309999866,3.0,1.0,part_3,go,0.0,0.0,0.0,135.0,1.0,675.0,135.0,810.0,540.0,405.0,270.0,white,flipped triangle
0.0,2.0,2.0,0.0,7.0,3.0,1461.4724759994715,3.0,1.0,part_3,go,0.0,0.0,0.0,154.0,1.0,462.0,924.0,154.0,770.0,616.0,308.0,cyan,I
0.0,8.0,4.0,1.0,7.0,3.0,1396.6746269998112,3.0,1.0,part_3,go,0.0,0.0,0.0,405.0,3.0,135.0,810.0,405.0,675.0,270.0,540.0,magenta,circle
0.0,5.0,1.0,1.0,7.0,2.0,1628.6604130000342,3.0,1.0,part_3,go,0.0,0.0,0.0,154.0,1.0,616.0,154.0,924.0,770.0,308.0,462.0,yellow,hexagon
0.0,5.0,1.0,1.0,7.0,3.0,1383.963663999566,3.0,1.0,part_3,go,0.0,0.0,0.0,540.0,4.0,810.0,270.0,540.0,135.0,675.0,405.0,yellow,hexagon
0.0,1.0,1.0,0.0,7.0,1.0,1437.5601409992669,3.0,1.0,part_3,go,0.0,0.0,0.0,348.0,3.0,348.0,696.0,580.0,464.0,116.0,232.0,orange,triangle
0.0,2.0,2.0,0.0,7.0,3.0,1457.2522959997514,3.0,1.0,part_3,go,0.0,0.0,0.0,232.0,2.0,348.0,116.0,232.0,580.0,464.0,696.0,cyan,I
0.0,3.0,3.0,0.0,7.0,6.0,1990.4964730003485,3.0,1.0,part_3,go,0.0,0.0,0.0,173.0,1.0,346.0,692.0,865.0,1038.0,519.0,173.0,white,flipped triangle
0.0,7.0,3.0,1.0,7.0,1.0,2140.099050999197,3.0,1.0,part_3,go,0.0,0.0,0.0,308.0,2.0,308.0,770.0,154.0,616.0,924.0,462.0,green,square
0.0,2.0,2.0,0.0,7.0,2.0,1859.2578169991612,3.0,1.0,part_3,go,0.0,0.0,0.0,692.0,4.0,519.0,692.0,173.0,1038.0,346.0,865.0,cyan,I
0.0,5.0,1.0,1.0,7.0,2.0,1234.1841630004635,3.0,1.0,part_3,go,0.0,0.0,0.0,405.0,3.0,540.0,405.0,135.0,675.0,810.0,270.0,yellow,hexagon
0.0,8.0,4.0,1.0,7.0,4.0,1179.6859300002325,3.0,1.0,part_3,go,0.0,0.0,0.0,346.0,2.0,692.0,173.0,1038.0,346.0,519.0,865.0,magenta,circle
0.0,8.0,4.0,1.0,7.0,4.0,3401.3871249999283,3.0,1.0,part_3,go,0.0,0.0,0.0,464.0,4.0,348.0,232.0,580.0,464.0,696.0,116.0,magenta,circle
0.0,1.0,1.0,0.0,7.0,5.0,1743.944642000315,3.0,1.0,part_3,go,0.0,0.0,0.0,768.0,4.0,1152.0,384.0,192.0,576.0,768.0,960.0,orange,triangle
0.0,7.0,3.0,1.0,7.0,4.0,1243.9715560003606,4.0,1.0,part_3,go,0.0,0.0,0.0,519.0,3.0,1038.0,173.0,346.0,519.0,865.0,692.0,green,square
0.0,8.0,4.0,1.0,7.0,2.0,1538.9699369998198,4.0,1.0,part_3,go,0.0,0.0,0.0,384.0,2.0,960.0,384.0,192.0,1152.0,576.0,768.0,magenta,circle
0.0,3.0,3.0,0.0,7.0,3.0,1861.6207869999928,4.0,1.0,part_3,go,0.0,0.0,0.0,580.0,5.0,232.0,116.0,580.0,348.0,696.0,464.0,white,flipped triangle
0.0,2.0,2.0,0.0,7.0,5.0,1754.108054000426,4.0,1.0,part_3,go,0.0,0.0,0.0,865.0,5.0,173.0,519.0,692.0,346.0,865.0,1038.0,cyan,I
0.0,4.0,4.0,0.0,7.0,4.0,1027.5938160002624,4.0,1.0,part_3,go,0.0,0.0,0.0,270.0,2.0,675.0,405.0,540.0,270.0,135.0,810.0,gray,cross
0.0,6.0,2.0,1.0,7.0,2.0,1944.764872999258,4.0,1.0,part_3,go,0.0,0.0,0.0,405.0,3.0,135.0,405.0,540.0,810.0,270.0,675.0,blue,diamond
0.0,5.0,1.0,1.0,7.0,5.0,255.4097370002637,4.0,1.0,part_3,go,0.0,0.0,0.0,519.0,3.0,346.0,173.0,865.0,692.0,519.0,1038.0,yellow,hexagon
0.0,6.0,2.0,1.0,7.0,2.0,2338.77011200002,4.0,1.0,part_3,go,0.0,0.0,0.0,1152.0,6.0,768.0,1152.0,960.0,192.0,576.0,384.0,blue,diamond
0.0,3.0,3.0,0.0,7.0,2.0,1462.2794759998214,4.0,1.0,part_3,go,0.0,0.0,0.0,270.0,2.0,810.0,270.0,540.0,675.0,405.0,135.0,white,flipped triangle
0.0,1.0,1.0,0.0,7.0,5.0,1295.197239999652,4.0,1.0,part_3,go,0.0,0.0,0.0,810.0,6.0,675.0,405.0,540.0,270.0,810.0,135.0,orange,triangle
0.0,8.0,4.0,1.0,7.0,2.0,963.7603600003786,4.0,1.0,part_3,go,0.0,0.0,0.0,692.0,4.0,1038.0,692.0,519.0,173.0,346.0,865.0,magenta,circle
0.0,7.0,3.0,1.0,7.0,5.0,1627.273717999742,4.0,1.0,part_3,go,0.0,0.0,0.0,116.0,1.0,232.0,696.0,348.0,464.0,116.0,580.0,green,square
0.0,4.0,4.0,0.0,7.0,5.0,613.7713489997623,4.0,1.0,part_3,go,0.0,0.0,0.0,960.0,5.0,1152.0,768.0,192.0,384.0,960.0,576.0,gray,cross
0.0,6.0,2.0,1.0,7.0,2.0,775.1799249999749,4.0,1.0,part_3,go,0.0,0.0,0.0,692.0,4.0,1038.0,692.0,173.0,346.0,865.0,519.0,blue,diamond
0.0,1.0,1.0,0.0,7.0,5.0,427.0580450001944,4.0,1.0,part_3,go,0.0,0.0,0.0,770.0,5.0,924.0,616.0,308.0,154.0,770.0,462.0,orange,triangle
0.0,5.0,1.0,1.0,7.0,4.0,1194.5536460007131,4.0,1.0,part_3,go,0.0,0.0,0.0,192.0,1.0,576.0,1152.0,384.0,192.0,768.0,960.0,yellow,hexagon
0.0,6.0,2.0,1.0,7.0,4.0,522.8500299999723,4.0,1.0,part_3,go,0.0,0.0,0.0,462.0,3.0,770.0,924.0,616.0,462.0,154.0,308.0,blue,diamond
0.0,2.0,2.0,0.0,7.0,2.0,699.5907780001289,4.0,1.0,part_3,go,0.0,0.0,0.0,348.0,3.0,580.0,348.0,116.0,696.0,464.0,232.0,cyan,I
0.0,1.0,1.0,0.0,7.0,4.0,709.6050350000951,4.0,1.0,part_3,go,0.0,0.0,0.0,270.0,2.0,675.0,810.0,135.0,270.0,540.0,405.0,orange,triangle
0.0,3.0,3.0,0.0,7.0,5.0,1351.8968590005898,4.0,1.0,part_3,go,0.0,0.0,0.0,384.0,2.0,960.0,768.0,576.0,1152.0,384.0,192.0,white,flipped triangle
