raw_reward_magnitude,stim_reward,stepwise_reward_magnitude,paired_with_stopping,stim_location,response,reaction_time,block,num_trial_presentations,which_phase,stop_signal_trial_type,left_SSD,right_SSD,accuracy,chosen_bidding_amount,chosen_bidding_level,possible_bid_1,possible_bid_2,possible_bid_3,possible_bid_4,possible_bid_5,possible_bid_6,color_text,shape_text
154.0,5.0,0.5,1.0,4.0,4.0,403.2418399999642,1.0,1.0,phase_1,,,,,,,,,,,,,magenta,triangle
0.0,4.0,0.0,0.0,2.0,2.0,403.8697979999597,1.0,1.0,phase_1,,,,,,,,,,,,,orange,I
173.0,1.0,0.5,0.0,2.0,2.0,457.8296519999867,1.0,1.0,phase_1,,,,,,,,,,,,,blue,flipped triangle
1306.0,8.0,4.0,1.0,1.0,1.0,424.2516470000055,1.0,1.0,phase_1,,,,,,,,,,,,,gray,circle
0.0,5.0,0.0,1.0,1.0,1.0,415.3569119999929,1.0,1.0,phase_1,,,,,,,,,,,,,magenta,triangle
169.0,5.0,0.5,1.0,3.0,3.0,413.3992519999765,1.0,1.0,phase_1,,,,,,,,,,,,,magenta,triangle
1303.0,4.0,4.0,0.0,4.0,4.0,325.9374310000567,1.0,1.0,phase_1,,,,,,,,,,,,,orange,I
1276.0,4.0,4.0,0.0,2.0,2.0,388.4676630000285,1.0,1.0,phase_1,,,,,,,,,,,,,orange,I
0.0,5.0,0.0,1.0,2.0,2.0,397.7524719999792,1.0,1.0,phase_1,,,,,,,,,,,,,magenta,triangle
0.0,1.0,0.0,0.0,4.0,4.0,388.74095999995,1.0,1.0,phase_1,,,,,,,,,,,,,blue,flipped triangle
0.0,1.0,0.0,0.0,3.0,3.0,355.3553559999045,1.0,1.0,phase_1,,,,,,,,,,,,,blue,flipped triangle
630.0,3.0,2.0,0.0,4.0,4.0,333.2169639999165,1.0,1.0,phase_1,,,,,,,,,,,,,green,square
185.0,5.0,0.5,1.0,3.0,3.0,334.0668920000098,1.0,1.0,phase_1,,,,,,,,,,,,,magenta,triangle
0.0,7.0,0.0,1.0,2.0,2.0,307.6637670000082,1.0,1.0,phase_1,,,,,,,,,,,,,white,diamond
330.0,2.0,1.0,0.0,3.0,3.0,323.8718869999957,1.0,1.0,phase_1,,,,,,,,,,,,,yellow,hexagon
0.0,4.0,0.0,0.0,2.0,2.0,421.8931839999413,1.0,1.0,phase_1,,,,,,,,,,,,,orange,I
648.0,3.0,2.0,0.0,1.0,1.0,311.815349000085,1.0,1.0,phase_1,,,,,,,,,,,,,green,square
1275.0,4.0,4.0,0.0,1.0,1.0,353.2634370000096,1.0,1.0,phase_1,,,,,,,,,,,,,orange,I
0.0,4.0,0.0,0.0,2.0,2.0,339.386660999935,1.0,1.0,phase_1,,,,,,,,,,,,,orange,I
663.0,3.0,2.0,0.0,1.0,1.0,318.5390650000954,1.0,1.0,phase_1,,,,,,,,,,,,,green,square
0.0,3.0,0.0,0.0,1.0,1.0,319.9456070000224,1.0,1.0,phase_1,,,,,,,,,,,,,green,square
662.0,3.0,2.0,0.0,1.0,1.0,357.6158560000522,1.0,1.0,phase_1,,,,,,,,,,,,,green,square
0.0,4.0,0.0,0.0,3.0,3.0,384.8124469999447,1.0,1.0,phase_1,,,,,,,,,,,,,orange,I
324.0,6.0,1.0,1.0,3.0,3.0,341.3746990000845,1.0,1.0,phase_1,,,,,,,,,,,,,cyan,cross
647.0,3.0,2.0,0.0,2.0,2.0,314.5936710000114,1.0,1.0,phase_1,,,,,,,,,,,,,green,square
0.0,8.0,0.0,1.0,3.0,3.0,358.8118670000995,1.0,1.0,phase_1,,,,,,,,,,,,,gray,circle
0.0,8.0,0.0,1.0,2.0,2.0,303.1345809999948,1.0,1.0,phase_1,,,,,,,,,,,,,gray,circle
649.0,7.0,2.0,1.0,4.0,4.0,327.8831829999262,1.0,1.0,phase_1,,,,,,,,,,,,,white,diamond
636.0,3.0,2.0,0.0,4.0,4.0,364.9672340000052,1.0,1.0,phase_1,,,,,,,,,,,,,green,square
1314.0,8.0,4.0,1.0,3.0,3.0,348.3045149999952,1.0,1.0,phase_1,,,,,,,,,,,,,gray,circle
335.0,6.0,1.0,1.0,3.0,3.0,373.2281920000559,1.0,1.0,phase_1,,,,,,,,,,,,,cyan,cross
1319.0,8.0,4.0,1.0,4.0,4.0,488.5510750000321,1.0,1.0,phase_1,,,,,,,,,,,,,gray,circle
142.0,1.0,0.5,0.0,4.0,4.0,356.3048659999595,1.0,1.0,phase_1,,,,,,,,,,,,,blue,flipped triangle
0.0,1.0,0.0,0.0,3.0,3.0,404.7781699999859,1.0,1.0,phase_1,,,,,,,,,,,,,blue,flipped triangle
1297.0,8.0,4.0,1.0,3.0,3.0,460.8901049999758,1.0,1.0,phase_1,,,,,,,,,,,,,gray,circle
663.0,7.0,2.0,1.0,3.0,3.0,328.0047690000174,1.0,1.0,phase_1,,,,,,,,,,,,,white,diamond
0.0,5.0,0.0,1.0,3.0,3.0,330.1412680000339,1.0,1.0,phase_1,,,,,,,,,,,,,magenta,triangle
663.0,7.0,2.0,1.0,4.0,4.0,310.3245050001533,1.0,1.0,phase_1,,,,,,,,,,,,,white,diamond
634.0,3.0,2.0,0.0,4.0,4.0,340.8209439999154,1.0,1.0,phase_1,,,,,,,,,,,,,green,square
340.0,6.0,1.0,1.0,4.0,4.0,281.1754139997902,1.0,1.0,phase_1,,,,,,,,,,,,,cyan,cross
346.0,6.0,1.0,1.0,1.0,1.0,330.393284000138,1.0,1.0,phase_1,,,,,,,,,,,,,cyan,cross
348.0,2.0,1.0,0.0,1.0,1.0,368.7280500000724,1.0,1.0,phase_1,,,,,,,,,,,,,yellow,hexagon
1293.0,8.0,4.0,1.0,3.0,3.0,292.0782549999785,1.0,1.0,phase_1,,,,,,,,,,,,,gray,circle
1317.0,8.0,4.0,1.0,2.0,2.0,285.3306729998621,1.0,1.0,phase_1,,,,,,,,,,,,,gray,circle
170.0,5.0,0.5,1.0,2.0,2.0,329.524585999934,1.0,1.0,phase_1,,,,,,,,,,,,,magenta,triangle
627.0,3.0,2.0,0.0,1.0,1.0,327.0583499997883,1.0,1.0,phase_1,,,,,,,,,,,,,green,square
320.0,2.0,1.0,0.0,3.0,3.0,395.5360970001038,1.0,1.0,phase_1,,,,,,,,,,,,,yellow,hexagon
665.0,7.0,2.0,1.0,2.0,2.0,414.4667390000904,1.0,1.0,phase_1,,,,,,,,,,,,,white,diamond
166.0,1.0,0.5,0.0,1.0,1.0,583.2429990000492,1.0,1.0,phase_1,,,,,,,,,,,,,blue,flipped triangle
647.0,7.0,2.0,1.0,4.0,4.0,432.8429179997783,1.0,1.0,phase_1,,,,,,,,,,,,,white,diamond
142.0,5.0,0.5,1.0,3.0,3.0,404.5401000000765,1.0,1.0,phase_1,,,,,,,,,,,,,magenta,triangle
318.0,6.0,1.0,1.0,4.0,4.0,329.1318690000935,1.0,1.0,phase_1,,,,,,,,,,,,,cyan,cross
157.0,1.0,0.5,0.0,4.0,4.0,368.3592280001448,1.0,1.0,phase_1,,,,,,,,,,,,,blue,flipped triangle
1276.0,8.0,4.0,1.0,4.0,4.0,415.6210910000482,1.0,1.0,phase_1,,,,,,,,,,,,,gray,circle
670.0,7.0,2.0,1.0,3.0,3.0,441.0176160001811,1.0,1.0,phase_1,,,,,,,,,,,,,white,diamond
1297.0,4.0,4.0,0.0,3.0,3.0,322.7604480000536,1.0,1.0,phase_1,,,,,,,,,,,,,orange,I
167.0,5.0,0.5,1.0,4.0,4.0,339.8357379999197,1.0,1.0,phase_1,,,,,,,,,,,,,magenta,triangle
333.0,6.0,1.0,1.0,1.0,1.0,397.7730739998151,1.0,1.0,phase_1,,,,,,,,,,,,,cyan,cross
333.0,2.0,1.0,0.0,4.0,4.0,330.0924750001286,1.0,1.0,phase_1,,,,,,,,,,,,,yellow,hexagon
0.0,8.0,0.0,1.0,4.0,4.0,329.5772779999879,1.0,1.0,phase_1,,,,,,,,,,,,,gray,circle
1277.0,8.0,4.0,1.0,2.0,2.0,347.6924159999726,1.0,1.0,phase_1,,,,,,,,,,,,,gray,circle
0.0,1.0,0.0,0.0,1.0,1.0,291.6408339999634,1.0,1.0,phase_1,,,,,,,,,,,,,blue,flipped triangle
331.0,6.0,1.0,1.0,1.0,1.0,319.120059999932,1.0,1.0,phase_1,,,,,,,,,,,,,cyan,cross
0.0,2.0,0.0,0.0,1.0,1.0,319.8253079999631,1.0,1.0,phase_1,,,,,,,,,,,,,yellow,hexagon
1314.0,4.0,4.0,0.0,3.0,3.0,310.0371710002036,1.0,1.0,phase_1,,,,,,,,,,,,,orange,I
647.0,7.0,2.0,1.0,1.0,1.0,376.8705370000589,1.0,1.0,phase_1,,,,,,,,,,,,,white,diamond
0.0,8.0,0.0,1.0,4.0,4.0,387.8024349999123,1.0,1.0,phase_1,,,,,,,,,,,,,gray,circle
143.0,5.0,0.5,1.0,4.0,4.0,377.5130839999292,1.0,1.0,phase_1,,,,,,,,,,,,,magenta,triangle
165.0,5.0,0.5,1.0,1.0,1.0,319.1432739999982,1.0,1.0,phase_1,,,,,,,,,,,,,magenta,triangle
181.0,5.0,0.5,1.0,3.0,3.0,321.0109789999933,1.0,1.0,phase_1,,,,,,,,,,,,,magenta,triangle
1293.0,4.0,4.0,0.0,3.0,3.0,364.6418189998712,1.0,1.0,phase_1,,,,,,,,,,,,,orange,I
175.0,1.0,0.5,0.0,3.0,3.0,321.2637710000763,1.0,1.0,phase_1,,,,,,,,,,,,,blue,flipped triangle
1290.0,8.0,4.0,1.0,4.0,4.0,354.343179000125,1.0,2.0,phase_1,,,,,,,,,,,,,gray,circle
1324.0,4.0,4.0,0.0,2.0,2.0,364.654653999878,1.0,1.0,phase_1,,,,,,,,,,,,,orange,I
147.0,1.0,0.5,0.0,1.0,1.0,357.3301589999573,1.0,1.0,phase_1,,,,,,,,,,,,,blue,flipped triangle
660.0,3.0,2.0,0.0,4.0,4.0,412.7215170001364,1.0,1.0,phase_1,,,,,,,,,,,,,green,square
344.0,2.0,1.0,0.0,2.0,2.0,324.0610000000288,1.0,1.0,phase_1,,,,,,,,,,,,,yellow,hexagon
319.0,2.0,1.0,0.0,4.0,4.0,377.8097659999275,1.0,1.0,phase_1,,,,,,,,,,,,,yellow,hexagon
332.0,6.0,1.0,1.0,1.0,1.0,410.1375820000612,1.0,1.0,phase_1,,,,,,,,,,,,,cyan,cross
663.0,3.0,2.0,0.0,3.0,3.0,376.4293619999534,1.0,1.0,phase_1,,,,,,,,,,,,,green,square
146.0,5.0,0.5,1.0,2.0,2.0,292.9167939998933,1.0,1.0,phase_1,,,,,,,,,,,,,magenta,triangle
658.0,3.0,2.0,0.0,3.0,3.0,388.621558000068,1.0,1.0,phase_1,,,,,,,,,,,,,green,square
0.0,2.0,0.0,0.0,4.0,4.0,367.1489200000906,1.0,1.0,phase_1,,,,,,,,,,,,,yellow,hexagon
1319.0,4.0,4.0,0.0,1.0,1.0,646.594217000029,1.0,1.0,phase_1,,,,,,,,,,,,,orange,I
185.0,1.0,0.5,0.0,3.0,3.0,458.2854580000912,1.0,1.0,phase_1,,,,,,,,,,,,,blue,flipped triangle
137.0,5.0,0.5,1.0,1.0,1.0,337.4113259999376,1.0,1.0,phase_1,,,,,,,,,,,,,magenta,triangle
1282.0,4.0,4.0,0.0,3.0,3.0,316.5764919999674,1.0,1.0,phase_1,,,,,,,,,,,,,orange,I
157.0,1.0,0.5,0.0,4.0,4.0,560.8491440000307,1.0,1.0,phase_1,,,,,,,,,,,,,blue,flipped triangle
667.0,3.0,2.0,0.0,2.0,2.0,309.0267620000304,1.0,1.0,phase_1,,,,,,,,,,,,,green,square
166.0,5.0,0.5,1.0,4.0,4.0,384.1729490000034,1.0,1.0,phase_1,,,,,,,,,,,,,magenta,triangle
151.0,1.0,0.5,0.0,4.0,4.0,337.9351019998466,1.0,1.0,phase_1,,,,,,,,,,,,,blue,flipped triangle
0.0,4.0,0.0,0.0,2.0,2.0,522.1884459999728,1.0,1.0,phase_1,,,,,,,,,,,,,orange,I
0.0,2.0,0.0,0.0,3.0,3.0,392.6553910000621,1.0,1.0,phase_1,,,,,,,,,,,,,yellow,hexagon
350.0,6.0,1.0,1.0,4.0,4.0,280.2436130000387,1.0,1.0,phase_1,,,,,,,,,,,,,cyan,cross
318.0,2.0,1.0,0.0,2.0,2.0,277.0950829999492,1.0,1.0,phase_1,,,,,,,,,,,,,yellow,hexagon
1303.0,8.0,4.0,1.0,4.0,4.0,309.8562870000023,1.0,1.0,phase_1,,,,,,,,,,,,,gray,circle
137.0,1.0,0.5,0.0,3.0,3.0,383.2437000000936,1.0,1.0,phase_1,,,,,,,,,,,,,blue,flipped triangle
1289.0,8.0,4.0,1.0,2.0,2.0,438.7038239999583,1.0,1.0,phase_1,,,,,,,,,,,,,gray,circle
335.0,6.0,1.0,1.0,1.0,1.0,383.1678970000212,1.0,1.0,phase_1,,,,,,,,,,,,,cyan,cross
181.0,1.0,0.5,0.0,2.0,2.0,327.4993120000999,1.0,1.0,phase_1,,,,,,,,,,,,,blue,flipped triangle
344.0,6.0,1.0,1.0,1.0,1.0,381.1504840000452,2.0,1.0,phase_1,,,,,,,,,,,,,cyan,cross
626.0,7.0,2.0,1.0,3.0,3.0,358.6467319998974,2.0,1.0,phase_1,,,,,,,,,,,,,white,diamond
660.0,7.0,2.0,1.0,2.0,2.0,303.9418879998266,2.0,1.0,phase_1,,,,,,,,,,,,,white,diamond
0.0,1.0,0.0,0.0,2.0,2.0,636.600271000134,2.0,1.0,phase_1,,,,,,,,,,,,,blue,flipped triangle
342.0,2.0,1.0,0.0,4.0,4.0,392.6581770001576,2.0,1.0,phase_1,,,,,,,,,,,,,yellow,hexagon
312.0,6.0,1.0,1.0,1.0,1.0,343.9158730000144,2.0,1.0,phase_1,,,,,,,,,,,,,cyan,cross
1288.0,8.0,4.0,1.0,1.0,1.0,409.4620999999279,2.0,2.0,phase_1,,,,,,,,,,,,,gray,circle
1310.0,8.0,4.0,1.0,3.0,3.0,380.9663220001766,2.0,1.0,phase_1,,,,,,,,,,,,,gray,circle
649.0,3.0,2.0,0.0,3.0,3.0,441.3894659999187,2.0,1.0,phase_1,,,,,,,,,,,,,green,square
0.0,6.0,0.0,1.0,2.0,2.0,428.5089370000605,2.0,1.0,phase_1,,,,,,,,,,,,,cyan,cross
151.0,5.0,0.5,1.0,2.0,2.0,550.7448230000591,2.0,1.0,phase_1,,,,,,,,,,,,,magenta,triangle
153.0,1.0,0.5,0.0,3.0,3.0,437.1083999999428,2.0,1.0,phase_1,,,,,,,,,,,,,blue,flipped triangle
647.0,7.0,2.0,1.0,1.0,1.0,327.5926989999789,2.0,1.0,phase_1,,,,,,,,,,,,,white,diamond
348.0,6.0,1.0,1.0,3.0,3.0,327.6022299999113,2.0,1.0,phase_1,,,,,,,,,,,,,cyan,cross
655.0,3.0,2.0,0.0,2.0,2.0,290.9205749999728,2.0,1.0,phase_1,,,,,,,,,,,,,green,square
0.0,2.0,0.0,0.0,3.0,3.0,328.9273039999898,2.0,1.0,phase_1,,,,,,,,,,,,,yellow,hexagon
0.0,8.0,0.0,1.0,2.0,2.0,317.0698520000314,2.0,1.0,phase_1,,,,,,,,,,,,,gray,circle
178.0,1.0,0.5,0.0,3.0,3.0,307.260350999968,2.0,1.0,phase_1,,,,,,,,,,,,,blue,flipped triangle
149.0,5.0,0.5,1.0,4.0,4.0,391.0471520000556,2.0,1.0,phase_1,,,,,,,,,,,,,magenta,triangle
0.0,2.0,0.0,0.0,4.0,4.0,429.5902950000254,2.0,1.0,phase_1,,,,,,,,,,,,,yellow,hexagon
319.0,2.0,1.0,0.0,1.0,1.0,484.319429000152,2.0,1.0,phase_1,,,,,,,,,,,,,yellow,hexagon
183.0,5.0,0.5,1.0,1.0,1.0,363.8539650000894,2.0,1.0,phase_1,,,,,,,,,,,,,magenta,triangle
0.0,2.0,0.0,0.0,2.0,2.0,407.3268290001124,2.0,1.0,phase_1,,,,,,,,,,,,,yellow,hexagon
312.0,2.0,1.0,0.0,4.0,4.0,355.6583289998798,2.0,1.0,phase_1,,,,,,,,,,,,,yellow,hexagon
1285.0,8.0,4.0,1.0,4.0,4.0,402.3966449999534,2.0,1.0,phase_1,,,,,,,,,,,,,gray,circle
312.0,6.0,1.0,1.0,4.0,4.0,365.3427690001081,2.0,1.0,phase_1,,,,,,,,,,,,,cyan,cross
0.0,4.0,0.0,0.0,1.0,1.0,431.9139660001383,2.0,1.0,phase_1,,,,,,,,,,,,,orange,I
179.0,1.0,0.5,0.0,2.0,2.0,334.9824800000078,2.0,1.0,phase_1,,,,,,,,,,,,,blue,flipped triangle
0.0,6.0,0.0,1.0,3.0,3.0,346.8124399998942,2.0,1.0,phase_1,,,,,,,,,,,,,cyan,cross
0.0,2.0,0.0,0.0,2.0,2.0,391.4925589999711,2.0,1.0,phase_1,,,,,,,,,,,,,yellow,hexagon
175.0,5.0,0.5,1.0,2.0,2.0,418.0392119999396,2.0,1.0,phase_1,,,,,,,,,,,,,magenta,triangle
1317.0,8.0,4.0,1.0,3.0,3.0,494.6381370000381,2.0,1.0,phase_1,,,,,,,,,,,,,gray,circle
0.0,3.0,0.0,0.0,1.0,1.0,334.4142900000406,2.0,1.0,phase_1,,,,,,,,,,,,,green,square
139.0,5.0,0.5,1.0,2.0,2.0,306.4219359998787,2.0,1.0,phase_1,,,,,,,,,,,,,magenta,triangle
304.0,6.0,1.0,1.0,2.0,2.0,316.5978750000704,2.0,1.0,phase_1,,,,,,,,,,,,,cyan,cross
153.0,5.0,0.5,1.0,1.0,1.0,389.9598470000001,2.0,1.0,phase_1,,,,,,,,,,,,,magenta,triangle
1309.0,8.0,4.0,1.0,1.0,1.0,380.8028389998981,2.0,1.0,phase_1,,,,,,,,,,,,,gray,circle
667.0,7.0,2.0,1.0,2.0,2.0,352.4664899998697,2.0,1.0,phase_1,,,,,,,,,,,,,white,diamond
640.0,3.0,2.0,0.0,3.0,3.0,363.0806599999232,2.0,1.0,phase_1,,,,,,,,,,,,,green,square
0.0,6.0,0.0,1.0,2.0,2.0,363.3454929999971,2.0,1.0,phase_1,,,,,,,,,,,,,cyan,cross
0.0,2.0,0.0,0.0,4.0,4.0,361.0617039998942,2.0,1.0,phase_1,,,,,,,,,,,,,yellow,hexagon
1275.0,8.0,4.0,1.0,4.0,4.0,380.7980579999821,2.0,1.0,phase_1,,,,,,,,,,,,,gray,circle
155.0,1.0,0.5,0.0,3.0,3.0,425.6933609999578,2.0,1.0,phase_1,,,,,,,,,,,,,blue,flipped triangle
170.0,1.0,0.5,0.0,4.0,4.0,325.4251239998211,2.0,1.0,phase_1,,,,,,,,,,,,,blue,flipped triangle
327.0,6.0,1.0,1.0,3.0,3.0,334.356451000076,2.0,1.0,phase_1,,,,,,,,,,,,,cyan,cross
1278.0,4.0,4.0,0.0,1.0,1.0,474.3499820001489,2.0,1.0,phase_1,,,,,,,,,,,,,orange,I
1303.0,4.0,4.0,0.0,2.0,2.0,324.4961230000172,2.0,1.0,phase_1,,,,,,,,,,,,,orange,I
1302.0,8.0,4.0,1.0,1.0,1.0,389.3450970001595,2.0,1.0,phase_1,,,,,,,,,,,,,gray,circle
0.0,7.0,0.0,1.0,3.0,3.0,343.3118350001223,2.0,1.0,phase_1,,,,,,,,,,,,,white,diamond
654.0,7.0,2.0,1.0,4.0,4.0,335.4035329998623,2.0,1.0,phase_1,,,,,,,,,,,,,white,diamond
634.0,3.0,2.0,0.0,4.0,4.0,371.2443699998857,2.0,1.0,phase_1,,,,,,,,,,,,,green,square
165.0,1.0,0.5,0.0,4.0,4.0,335.494762000053,2.0,1.0,phase_1,,,,,,,,,,,,,blue,flipped triangle
301.0,2.0,1.0,0.0,4.0,4.0,389.0442700001131,2.0,1.0,phase_1,,,,,,,,,,,,,yellow,hexagon
300.0,6.0,1.0,1.0,2.0,2.0,335.8865549998882,2.0,1.0,phase_1,,,,,,,,,,,,,cyan,cross
332.0,2.0,1.0,0.0,1.0,1.0,418.8837879999028,2.0,1.0,phase_1,,,,,,,,,,,,,yellow,hexagon
1313.0,4.0,4.0,0.0,1.0,1.0,399.3159879998984,2.0,1.0,phase_1,,,,,,,,,,,,,orange,I
304.0,2.0,1.0,0.0,3.0,3.0,361.8376160000025,2.0,1.0,phase_1,,,,,,,,,,,,,yellow,hexagon
151.0,1.0,0.5,0.0,1.0,1.0,362.4639320000824,2.0,1.0,phase_1,,,,,,,,,,,,,blue,flipped triangle
156.0,5.0,0.5,1.0,2.0,2.0,335.590178999837,2.0,1.0,phase_1,,,,,,,,,,,,,magenta,triangle
0.0,7.0,0.0,1.0,3.0,3.0,324.8142830000233,2.0,1.0,phase_1,,,,,,,,,,,,,white,diamond
171.0,1.0,0.5,0.0,1.0,1.0,363.3121289999508,2.0,1.0,phase_1,,,,,,,,,,,,,blue,flipped triangle
631.0,3.0,2.0,0.0,3.0,3.0,343.501870999944,2.0,1.0,phase_1,,,,,,,,,,,,,green,square
0.0,6.0,0.0,1.0,2.0,2.0,352.3507190000146,2.0,1.0,phase_1,,,,,,,,,,,,,cyan,cross
171.0,5.0,0.5,1.0,3.0,3.0,335.7079540000995,2.0,1.0,phase_1,,,,,,,,,,,,,magenta,triangle
1322.0,8.0,4.0,1.0,1.0,1.0,344.4992630002161,2.0,1.0,phase_1,,,,,,,,,,,,,gray,circle
673.0,7.0,2.0,1.0,1.0,1.0,409.6624900000734,2.0,1.0,phase_1,,,,,,,,,,,,,white,diamond
1304.0,4.0,4.0,0.0,2.0,2.0,361.9675670001925,2.0,1.0,phase_1,,,,,,,,,,,,,orange,I
186.0,1.0,0.5,0.0,4.0,4.0,382.8866999999718,2.0,1.0,phase_1,,,,,,,,,,,,,blue,flipped triangle
647.0,3.0,2.0,0.0,4.0,4.0,389.5038359999034,2.0,1.0,phase_1,,,,,,,,,,,,,green,square
1289.0,4.0,4.0,0.0,4.0,4.0,379.5056280000608,2.0,1.0,phase_1,,,,,,,,,,,,,orange,I
1317.0,4.0,4.0,0.0,2.0,2.0,380.4713710001124,2.0,1.0,phase_1,,,,,,,,,,,,,orange,I
1288.0,4.0,4.0,0.0,4.0,4.0,343.6978890001683,2.0,1.0,phase_1,,,,,,,,,,,,,orange,I
342.0,6.0,1.0,1.0,4.0,4.0,324.6196190000319,2.0,1.0,phase_1,,,,,,,,,,,,,cyan,cross
1306.0,4.0,4.0,0.0,3.0,3.0,436.9381779999912,2.0,1.0,phase_1,,,,,,,,,,,,,orange,I
151.0,5.0,0.5,1.0,2.0,2.0,427.2911250000106,2.0,1.0,phase_1,,,,,,,,,,,,,magenta,triangle
333.0,2.0,1.0,0.0,1.0,1.0,373.0715209999289,2.0,1.0,phase_1,,,,,,,,,,,,,yellow,hexagon
320.0,2.0,1.0,0.0,1.0,1.0,380.1017749999573,2.0,1.0,phase_1,,,,,,,,,,,,,yellow,hexagon
1289.0,8.0,4.0,1.0,2.0,2.0,390.4128919998584,2.0,1.0,phase_1,,,,,,,,,,,,,gray,circle
0.0,3.0,0.0,0.0,4.0,4.0,326.2145300000156,2.0,1.0,phase_1,,,,,,,,,,,,,green,square
311.0,2.0,1.0,0.0,2.0,2.0,399.7578569999405,2.0,1.0,phase_1,,,,,,,,,,,,,yellow,hexagon
137.0,5.0,0.5,1.0,3.0,3.0,400.0995819999389,2.0,1.0,phase_1,,,,,,,,,,,,,magenta,triangle
174.0,5.0,0.5,1.0,3.0,3.0,390.6150799998613,2.0,1.0,phase_1,,,,,,,,,,,,,magenta,triangle
0.0,7.0,0.0,1.0,4.0,4.0,409.1639020000457,2.0,1.0,phase_1,,,,,,,,,,,,,white,diamond
183.0,1.0,0.5,0.0,1.0,1.0,334.2166859999906,2.0,1.0,phase_1,,,,,,,,,,,,,blue,flipped triangle
670.0,7.0,2.0,1.0,1.0,1.0,390.2584790000674,2.0,1.0,phase_1,,,,,,,,,,,,,white,diamond
320.0,6.0,1.0,1.0,4.0,4.0,343.8351059999149,2.0,1.0,phase_1,,,,,,,,,,,,,cyan,cross
634.0,7.0,2.0,1.0,3.0,3.0,372.0415080001658,2.0,1.0,phase_1,,,,,,,,,,,,,white,diamond
0.0,8.0,0.0,1.0,1.0,1.0,381.0269299999618,2.0,1.0,phase_1,,,,,,,,,,,,,gray,circle
1287.0,8.0,4.0,1.0,2.0,2.0,362.4029580000751,2.0,1.0,phase_1,,,,,,,,,,,,,gray,circle
630.0,3.0,2.0,0.0,1.0,1.0,427.4480240001139,2.0,1.0,phase_1,,,,,,,,,,,,,green,square
1323.0,8.0,4.0,1.0,2.0,2.0,446.3851079999585,2.0,1.0,phase_1,,,,,,,,,,,,,gray,circle
668.0,7.0,2.0,1.0,3.0,3.0,381.4391089999844,2.0,1.0,phase_1,,,,,,,,,,,,,white,diamond
633.0,7.0,2.0,1.0,3.0,3.0,372.5005410001358,2.0,1.0,phase_1,,,,,,,,,,,,,white,diamond
342.0,2.0,1.0,0.0,1.0,1.0,399.324622000222,2.0,1.0,phase_1,,,,,,,,,,,,,yellow,hexagon
648.0,7.0,2.0,1.0,3.0,3.0,548.4827269999641,2.0,1.0,phase_1,,,,,,,,,,,,,white,diamond
1317.0,8.0,4.0,1.0,1.0,1.0,371.2130720000459,2.0,1.0,phase_1,,,,,,,,,,,,,gray,circle
667.0,7.0,2.0,1.0,2.0,2.0,315.7883480000691,2.0,1.0,phase_1,,,,,,,,,,,,,white,diamond
658.0,7.0,2.0,1.0,4.0,4.0,352.4065110000265,2.0,1.0,phase_1,,,,,,,,,,,,,white,diamond
1321.0,8.0,4.0,1.0,1.0,1.0,333.3930370001781,2.0,1.0,phase_1,,,,,,,,,,,,,gray,circle
0.0,1.0,0.0,0.0,2.0,2.0,353.7661870000192,2.0,1.0,phase_1,,,,,,,,,,,,,blue,flipped triangle
1304.0,8.0,4.0,1.0,4.0,4.0,354.2649290000099,3.0,1.0,phase_1,,,,,,,,,,,,,gray,circle
137.0,1.0,0.5,0.0,2.0,2.0,326.5161389999775,3.0,1.0,phase_1,,,,,,,,,,,,,blue,flipped triangle
0.0,5.0,0.0,1.0,3.0,3.0,333.6122839998552,3.0,1.0,phase_1,,,,,,,,,,,,,magenta,triangle
0.0,4.0,0.0,0.0,2.0,2.0,351.5144149998832,3.0,1.0,phase_1,,,,,,,,,,,,,orange,I
1317.0,4.0,4.0,0.0,2.0,2.0,288.6766350000016,3.0,1.0,phase_1,,,,,,,,,,,,,orange,I
331.0,2.0,1.0,0.0,3.0,3.0,361.2861449998945,3.0,1.0,phase_1,,,,,,,,,,,,,yellow,hexagon
0.0,8.0,0.0,1.0,1.0,1.0,390.6733559999793,3.0,1.0,phase_1,,,,,,,,,,,,,gray,circle
324.0,2.0,1.0,0.0,3.0,3.0,391.2415059999148,3.0,1.0,phase_1,,,,,,,,,,,,,yellow,hexagon
151.0,5.0,0.5,1.0,2.0,2.0,342.9650140001286,3.0,1.0,phase_1,,,,,,,,,,,,,magenta,triangle
146.0,1.0,0.5,0.0,3.0,3.0,343.2792709998011,3.0,1.0,phase_1,,,,,,,,,,,,,blue,flipped triangle
0.0,3.0,0.0,0.0,3.0,3.0,325.6497390000277,3.0,1.0,phase_1,,,,,,,,,,,,,green,square
0.0,5.0,0.0,1.0,4.0,4.0,417.1771320000061,3.0,1.0,phase_1,,,,,,,,,,,,,magenta,triangle
311.0,6.0,1.0,1.0,2.0,2.0,333.8304439998865,3.0,1.0,phase_1,,,,,,,,,,,,,cyan,cross
320.0,2.0,1.0,0.0,4.0,4.0,343.2172870000158,3.0,1.0,phase_1,,,,,,,,,,,,,yellow,hexagon
0.0,7.0,0.0,1.0,4.0,4.0,342.6557729999331,3.0,1.0,phase_1,,,,,,,,,,,,,white,diamond
0.0,3.0,0.0,0.0,4.0,4.0,360.3499289999945,3.0,1.0,phase_1,,,,,,,,,,,,,green,square
350.0,2.0,1.0,0.0,3.0,3.0,361.9747329998972,3.0,1.0,phase_1,,,,,,,,,,,,,yellow,hexagon
630.0,7.0,2.0,1.0,4.0,4.0,305.8989080000174,3.0,1.0,phase_1,,,,,,,,,,,,,white,diamond
170.0,1.0,0.5,0.0,3.0,3.0,314.6063179999601,3.0,1.0,phase_1,,,,,,,,,,,,,blue,flipped triangle
0.0,7.0,0.0,1.0,2.0,2.0,286.7041760000575,3.0,1.0,phase_1,,,,,,,,,,,,,white,diamond
0.0,5.0,0.0,1.0,2.0,2.0,408.0413440001393,3.0,1.0,phase_1,,,,,,,,,,,,,magenta,triangle
332.0,2.0,1.0,0.0,2.0,2.0,286.6304159999799,3.0,1.0,phase_1,,,,,,,,,,,,,yellow,hexagon
0.0,6.0,0.0,1.0,4.0,4.0,351.6475720000471,3.0,1.0,phase_1,,,,,,,,,,,,,cyan,cross
1309.0,4.0,4.0,0.0,2.0,2.0,288.0751760001203,3.0,1.0,phase_1,,,,,,,,,,,,,orange,I
0.0,5.0,0.0,1.0,1.0,1.0,352.9158720000396,3.0,1.0,phase_1,,,,,,,,,,,,,magenta,triangle
626.0,3.0,2.0,0.0,4.0,4.0,334.443747000023,3.0,1.0,phase_1,,,,,,,,,,,,,green,square
335.0,2.0,1.0,0.0,2.0,2.0,390.0104940000801,3.0,1.0,phase_1,,,,,,,,,,,,,yellow,hexagon
668.0,3.0,2.0,0.0,3.0,3.0,333.9813340001001,3.0,1.0,phase_1,,,,,,,,,,,,,green,square
151.0,1.0,0.5,0.0,1.0,1.0,453.974756999969,3.0,1.0,phase_1,,,,,,,,,,,,,blue,flipped triangle
1287.0,4.0,4.0,0.0,3.0,3.0,407.9242919999615,3.0,1.0,phase_1,,,,,,,,,,,,,orange,I
1289.0,4.0,4.0,0.0,3.0,3.0,342.8296839999802,3.0,1.0,phase_1,,,,,,,,,,,,,orange,I
301.0,6.0,1.0,1.0,1.0,1.0,352.9860699998153,3.0,1.0,phase_1,,,,,,,,,,,,,cyan,cross
0.0,5.0,0.0,1.0,2.0,2.0,296.0691139999198,3.0,1.0,phase_1,,,,,,,,,,,,,magenta,triangle
342.0,2.0,1.0,0.0,4.0,4.0,353.8777109999955,3.0,1.0,phase_1,,,,,,,,,,,,,yellow,hexagon
303.0,6.0,1.0,1.0,3.0,3.0,370.7806249999521,3.0,2.0,phase_1,,,,,,,,,,,,,cyan,cross
335.0,2.0,1.0,0.0,2.0,2.0,360.7302139998865,3.0,1.0,phase_1,,,,,,,,,,,,,yellow,hexagon
1303.0,8.0,4.0,1.0,1.0,1.0,387.9285420000542,3.0,1.0,phase_1,,,,,,,,,,,,,gray,circle
146.0,5.0,0.5,1.0,1.0,1.0,435.677503000079,3.0,1.0,phase_1,,,,,,,,,,,,,magenta,triangle
0.0,5.0,0.0,1.0,2.0,2.0,379.0776799999094,3.0,1.0,phase_1,,,,,,,,,,,,,magenta,triangle
148.0,1.0,0.5,0.0,1.0,1.0,418.8740580000285,3.0,1.0,phase_1,,,,,,,,,,,,,blue,flipped triangle
641.0,3.0,2.0,0.0,3.0,3.0,379.5125380001991,3.0,1.0,phase_1,,,,,,,,,,,,,green,square
0.0,3.0,0.0,0.0,4.0,4.0,351.4798780001911,3.0,1.0,phase_1,,,,,,,,,,,,,green,square
329.0,2.0,1.0,0.0,2.0,2.0,462.4437519998992,3.0,1.0,phase_1,,,,,,,,,,,,,yellow,hexagon
320.0,6.0,1.0,1.0,2.0,2.0,333.1654159999289,3.0,1.0,phase_1,,,,,,,,,,,,,cyan,cross
1309.0,8.0,4.0,1.0,2.0,2.0,353.0738320000637,3.0,1.0,phase_1,,,,,,,,,,,,,gray,circle
340.0,2.0,1.0,0.0,1.0,1.0,333.2048990000658,3.0,1.0,phase_1,,,,,,,,,,,,,yellow,hexagon
155.0,5.0,0.5,1.0,2.0,2.0,315.2847019998717,3.0,1.0,phase_1,,,,,,,,,,,,,magenta,triangle
304.0,2.0,1.0,0.0,4.0,4.0,361.6124299999228,3.0,1.0,phase_1,,,,,,,,,,,,,yellow,hexagon
641.0,7.0,2.0,1.0,4.0,4.0,370.674992999966,3.0,1.0,phase_1,,,,,,,,,,,,,white,diamond
336.0,2.0,1.0,0.0,3.0,3.0,380.1409969998985,3.0,1.0,phase_1,,,,,,,,,,,,,yellow,hexagon
157.0,5.0,0.5,1.0,4.0,4.0,361.9131349998952,3.0,1.0,phase_1,,,,,,,,,,,,,magenta,triangle
319.0,6.0,1.0,1.0,4.0,4.0,380.2367119999417,3.0,1.0,phase_1,,,,,,,,,,,,,cyan,cross
1284.0,8.0,4.0,1.0,3.0,3.0,372.550892999925,3.0,1.0,phase_1,,,,,,,,,,,,,gray,circle
187.0,1.0,0.5,0.0,1.0,1.0,315.3733900001043,3.0,1.0,phase_1,,,,,,,,,,,,,blue,flipped triangle
1297.0,4.0,4.0,0.0,1.0,1.0,398.3062899999368,3.0,2.0,phase_1,,,,,,,,,,,,,orange,I
670.0,3.0,2.0,0.0,1.0,1.0,426.3143329999366,3.0,1.0,phase_1,,,,,,,,,,,,,green,square
158.0,1.0,0.5,0.0,4.0,4.0,399.1224490000604,3.0,1.0,phase_1,,,,,,,,,,,,,blue,flipped triangle
143.0,1.0,0.5,0.0,2.0,2.0,411.6298000001279,3.0,1.0,phase_1,,,,,,,,,,,,,blue,flipped triangle
647.0,3.0,2.0,0.0,3.0,3.0,371.9970640001975,3.0,1.0,phase_1,,,,,,,,,,,,,green,square
183.0,1.0,0.5,0.0,3.0,3.0,370.762784000135,3.0,1.0,phase_1,,,,,,,,,,,,,blue,flipped triangle
1295.0,4.0,4.0,0.0,4.0,4.0,370.7149879999178,3.0,1.0,phase_1,,,,,,,,,,,,,orange,I
658.0,3.0,2.0,0.0,2.0,2.0,315.9560999999939,3.0,1.0,phase_1,,,,,,,,,,,,,green,square
1293.0,8.0,4.0,1.0,3.0,3.0,334.0054039999813,3.0,1.0,phase_1,,,,,,,,,,,,,gray,circle
1297.0,8.0,4.0,1.0,3.0,3.0,370.1467419998607,3.0,1.0,phase_1,,,,,,,,,,,,,gray,circle
156.0,1.0,0.5,0.0,3.0,3.0,334.6602410001651,3.0,1.0,phase_1,,,,,,,,,,,,,blue,flipped triangle
655.0,7.0,2.0,1.0,3.0,3.0,343.6174290000053,3.0,1.0,phase_1,,,,,,,,,,,,,white,diamond
673.0,3.0,2.0,0.0,2.0,2.0,406.3241830001516,3.0,1.0,phase_1,,,,,,,,,,,,,green,square
633.0,3.0,2.0,0.0,1.0,1.0,317.8074039999501,3.0,1.0,phase_1,,,,,,,,,,,,,green,square
1321.0,4.0,4.0,0.0,4.0,4.0,408.0529670000032,3.0,1.0,phase_1,,,,,,,,,,,,,orange,I
187.0,5.0,0.5,1.0,2.0,2.0,377.5862739998956,3.0,1.0,phase_1,,,,,,,,,,,,,magenta,triangle
1302.0,4.0,4.0,0.0,4.0,4.0,362.8647339999133,3.0,1.0,phase_1,,,,,,,,,,,,,orange,I
0.0,6.0,0.0,1.0,1.0,1.0,362.1503159999975,3.0,1.0,phase_1,,,,,,,,,,,,,cyan,cross
186.0,5.0,0.5,1.0,4.0,4.0,333.9331879999463,3.0,1.0,phase_1,,,,,,,,,,,,,magenta,triangle
169.0,1.0,0.5,0.0,2.0,2.0,344.25965000014,3.0,1.0,phase_1,,,,,,,,,,,,,blue,flipped triangle
1276.0,8.0,4.0,1.0,1.0,1.0,537.9949839998517,3.0,1.0,phase_1,,,,,,,,,,,,,gray,circle
346.0,2.0,1.0,0.0,4.0,4.0,338.1112689999099,3.0,1.0,phase_1,,,,,,,,,,,,,yellow,hexagon
312.0,2.0,1.0,0.0,4.0,4.0,333.4259789999123,3.0,1.0,phase_1,,,,,,,,,,,,,yellow,hexagon
320.0,6.0,1.0,1.0,3.0,3.0,380.9541790001276,3.0,2.0,phase_1,,,,,,,,,,,,,cyan,cross
1313.0,8.0,4.0,1.0,2.0,2.0,370.5901569999241,3.0,1.0,phase_1,,,,,,,,,,,,,gray,circle
319.0,6.0,1.0,1.0,2.0,2.0,383.8721560000522,3.0,1.0,phase_1,,,,,,,,,,,,,cyan,cross
333.0,6.0,1.0,1.0,2.0,2.0,370.7047100001546,3.0,1.0,phase_1,,,,,,,,,,,,,cyan,cross
0.0,7.0,0.0,1.0,1.0,1.0,361.6706249999879,3.0,1.0,phase_1,,,,,,,,,,,,,white,diamond
0.0,3.0,0.0,0.0,4.0,4.0,305.9649320000517,3.0,1.0,phase_1,,,,,,,,,,,,,green,square
0.0,3.0,0.0,0.0,4.0,4.0,390.4705059999287,3.0,1.0,phase_1,,,,,,,,,,,,,green,square
665.0,3.0,2.0,0.0,1.0,1.0,527.2864009998557,3.0,1.0,phase_1,,,,,,,,,,,,,green,square
179.0,5.0,0.5,1.0,4.0,4.0,351.5001139999185,3.0,1.0,phase_1,,,,,,,,,,,,,magenta,triangle
648.0,7.0,2.0,1.0,1.0,1.0,417.1748359999583,3.0,1.0,phase_1,,,,,,,,,,,,,white,diamond
0.0,3.0,0.0,0.0,1.0,1.0,371.4521379999951,3.0,1.0,phase_1,,,,,,,,,,,,,green,square
304.0,6.0,1.0,1.0,2.0,2.0,361.2830780000422,3.0,1.0,phase_1,,,,,,,,,,,,,cyan,cross
653.0,3.0,2.0,0.0,4.0,4.0,444.6908249999524,3.0,1.0,phase_1,,,,,,,,,,,,,green,square
0.0,4.0,0.0,0.0,2.0,2.0,388.671388000148,3.0,1.0,phase_1,,,,,,,,,,,,,orange,I
323.0,6.0,1.0,1.0,3.0,3.0,379.9715970001216,3.0,1.0,phase_1,,,,,,,,,,,,,cyan,cross
0.0,4.0,0.0,0.0,4.0,4.0,333.5458870001275,3.0,1.0,phase_1,,,,,,,,,,,,,orange,I
1285.0,4.0,4.0,0.0,1.0,1.0,390.43259999994,3.0,1.0,phase_1,,,,,,,,,,,,,orange,I
0.0,5.0,0.0,1.0,3.0,3.0,344.2868729998736,3.0,1.0,phase_1,,,,,,,,,,,,,magenta,triangle
635.0,3.0,2.0,0.0,1.0,1.0,305.2714360001118,3.0,1.0,phase_1,,,,,,,,,,,,,green,square
648.0,3.0,2.0,0.0,2.0,2.0,298.1417199998759,3.0,1.0,phase_1,,,,,,,,,,,,,green,square
1295.0,8.0,4.0,1.0,2.0,2.0,334.4373959998847,3.0,1.0,phase_1,,,,,,,,,,,,,gray,circle
667.0,3.0,2.0,0.0,2.0,2.0,324.8591949998172,3.0,1.0,phase_1,,,,,,,,,,,,,green,square
173.0,5.0,0.5,1.0,1.0,1.0,343.5553179999715,3.0,1.0,phase_1,,,,,,,,,,,,,magenta,triangle
1284.0,4.0,4.0,0.0,3.0,3.0,353.8434470001448,4.0,1.0,phase_1,,,,,,,,,,,,,orange,I
1282.0,8.0,4.0,1.0,3.0,3.0,351.9158869999046,4.0,1.0,phase_1,,,,,,,,,,,,,gray,circle
1288.0,4.0,4.0,0.0,1.0,1.0,307.3547150002014,4.0,1.0,phase_1,,,,,,,,,,,,,orange,I
173.0,5.0,0.5,1.0,4.0,4.0,305.1591600001302,4.0,1.0,phase_1,,,,,,,,,,,,,magenta,triangle
1297.0,8.0,4.0,1.0,4.0,4.0,334.0740680000635,4.0,1.0,phase_1,,,,,,,,,,,,,gray,circle
641.0,3.0,2.0,0.0,4.0,4.0,305.3767149999657,4.0,1.0,phase_1,,,,,,,,,,,,,green,square
0.0,7.0,0.0,1.0,2.0,2.0,982.2437810003066,4.0,2.0,phase_1,,,,,,,,,,,,,white,diamond
641.0,3.0,2.0,0.0,2.0,2.0,389.373088999946,4.0,1.0,phase_1,,,,,,,,,,,,,green,square
1278.0,8.0,4.0,1.0,4.0,4.0,345.2485719999458,4.0,1.0,phase_1,,,,,,,,,,,,,gray,circle
332.0,6.0,1.0,1.0,4.0,4.0,354.4185890000335,4.0,1.0,phase_1,,,,,,,,,,,,,cyan,cross
0.0,8.0,0.0,1.0,1.0,1.0,343.9881029999014,4.0,1.0,phase_1,,,,,,,,,,,,,gray,circle
306.0,2.0,1.0,0.0,2.0,2.0,354.6850139996422,4.0,1.0,phase_1,,,,,,,,,,,,,yellow,hexagon
634.0,7.0,2.0,1.0,2.0,2.0,400.7023550002486,4.0,1.0,phase_1,,,,,,,,,,,,,white,diamond
638.0,3.0,2.0,0.0,2.0,2.0,306.9683369999438,4.0,1.0,phase_1,,,,,,,,,,,,,green,square
307.0,2.0,1.0,0.0,2.0,2.0,316.1111049998908,4.0,1.0,phase_1,,,,,,,,,,,,,yellow,hexagon
307.0,6.0,1.0,1.0,4.0,4.0,325.7672739996451,4.0,1.0,phase_1,,,,,,,,,,,,,cyan,cross
658.0,7.0,2.0,1.0,1.0,1.0,530.1887420000639,4.0,1.0,phase_1,,,,,,,,,,,,,white,diamond
342.0,6.0,1.0,1.0,2.0,2.0,632.7221910000844,4.0,1.0,phase_1,,,,,,,,,,,,,cyan,cross
0.0,7.0,0.0,1.0,3.0,3.0,362.9898980002508,4.0,1.0,phase_1,,,,,,,,,,,,,white,diamond
301.0,6.0,1.0,1.0,1.0,1.0,270.0527219999458,4.0,1.0,phase_1,,,,,,,,,,,,,cyan,cross
148.0,5.0,0.5,1.0,1.0,1.0,345.7333639998978,4.0,1.0,phase_1,,,,,,,,,,,,,magenta,triangle
158.0,5.0,0.5,1.0,3.0,3.0,372.1383600000081,4.0,1.0,phase_1,,,,,,,,,,,,,magenta,triangle
670.0,7.0,2.0,1.0,2.0,2.0,296.9968409997818,4.0,1.0,phase_1,,,,,,,,,,,,,white,diamond
139.0,1.0,0.5,0.0,1.0,1.0,296.782500000063,4.0,1.0,phase_1,,,,,,,,,,,,,blue,flipped triangle
0.0,7.0,0.0,1.0,2.0,2.0,389.8084120000931,4.0,1.0,phase_1,,,,,,,,,,,,,white,diamond
183.0,5.0,0.5,1.0,1.0,1.0,296.893313000055,4.0,1.0,phase_1,,,,,,,,,,,,,magenta,triangle
0.0,1.0,0.0,0.0,3.0,3.0,341.754999999921,4.0,1.0,phase_1,,,,,,,,,,,,,blue,flipped triangle
153.0,1.0,0.5,0.0,1.0,1.0,316.1066929997105,4.0,1.0,phase_1,,,,,,,,,,,,,blue,flipped triangle
1317.0,8.0,4.0,1.0,1.0,1.0,372.5718610003241,4.0,1.0,phase_1,,,,,,,,,,,,,gray,circle
329.0,2.0,1.0,0.0,3.0,3.0,325.9381470002154,4.0,1.0,phase_1,,,,,,,,,,,,,yellow,hexagon
327.0,2.0,1.0,0.0,3.0,3.0,335.7586679999258,4.0,1.0,phase_1,,,,,,,,,,,,,yellow,hexagon
1277.0,4.0,4.0,0.0,4.0,4.0,392.4387329998353,4.0,1.0,phase_1,,,,,,,,,,,,,orange,I
0.0,8.0,0.0,1.0,1.0,1.0,361.7503780001243,4.0,1.0,phase_1,,,,,,,,,,,,,gray,circle
635.0,7.0,2.0,1.0,4.0,4.0,379.9124279998978,4.0,1.0,phase_1,,,,,,,,,,,,,white,diamond
1290.0,4.0,4.0,0.0,1.0,1.0,353.5193079997043,4.0,1.0,phase_1,,,,,,,,,,,,,orange,I
337.0,6.0,1.0,1.0,3.0,3.0,474.644010999782,4.0,1.0,phase_1,,,,,,,,,,,,,cyan,cross
0.0,8.0,0.0,1.0,4.0,4.0,389.4151919998876,4.0,1.0,phase_1,,,,,,,,,,,,,gray,circle
0.0,6.0,0.0,1.0,3.0,3.0,373.288902999775,4.0,1.0,phase_1,,,,,,,,,,,,,cyan,cross
1317.0,4.0,4.0,0.0,2.0,2.0,364.4026189999749,4.0,1.0,phase_1,,,,,,,,,,,,,orange,I
303.0,2.0,1.0,0.0,3.0,3.0,398.9209659998778,4.0,1.0,phase_1,,,,,,,,,,,,,yellow,hexagon
630.0,7.0,2.0,1.0,2.0,2.0,353.9868080001724,4.0,1.0,phase_1,,,,,,,,,,,,,white,diamond
0.0,6.0,0.0,1.0,3.0,3.0,343.0744990000676,4.0,1.0,phase_1,,,,,,,,,,,,,cyan,cross
0.0,4.0,0.0,0.0,1.0,1.0,336.0538760002782,4.0,1.0,phase_1,,,,,,,,,,,,,orange,I
638.0,7.0,2.0,1.0,1.0,1.0,343.2198830000743,4.0,1.0,phase_1,,,,,,,,,,,,,white,diamond
167.0,1.0,0.5,0.0,4.0,4.0,536.7924959996344,4.0,1.0,phase_1,,,,,,,,,,,,,blue,flipped triangle
1322.0,4.0,4.0,0.0,3.0,3.0,370.4931160000342,4.0,1.0,phase_1,,,,,,,,,,,,,orange,I
306.0,6.0,1.0,1.0,1.0,1.0,297.2029829998064,4.0,1.0,phase_1,,,,,,,,,,,,,cyan,cross
154.0,1.0,0.5,0.0,2.0,2.0,344.9984789999689,4.0,1.0,phase_1,,,,,,,,,,,,,blue,flipped triangle
170.0,5.0,0.5,1.0,3.0,3.0,362.967361000301,4.0,1.0,phase_1,,,,,,,,,,,,,magenta,triangle
1276.0,4.0,4.0,0.0,1.0,1.0,279.6771820003414,4.0,1.0,phase_1,,,,,,,,,,,,,orange,I
641.0,7.0,2.0,1.0,1.0,1.0,316.7284990004191,4.0,1.0,phase_1,,,,,,,,,,,,,white,diamond
330.0,6.0,1.0,1.0,2.0,2.0,306.1479980001422,4.0,1.0,phase_1,,,,,,,,,,,,,cyan,cross
640.0,7.0,2.0,1.0,3.0,3.0,372.8395460002502,4.0,1.0,phase_1,,,,,,,,,,,,,white,diamond
654.0,7.0,2.0,1.0,4.0,4.0,307.4687029998131,4.0,1.0,phase_1,,,,,,,,,,,,,white,diamond
641.0,7.0,2.0,1.0,2.0,2.0,308.3023079998384,4.0,1.0,phase_1,,,,,,,,,,,,,white,diamond
342.0,6.0,1.0,1.0,3.0,3.0,362.8484370001388,4.0,2.0,phase_1,,,,,,,,,,,,,cyan,cross
0.0,2.0,0.0,0.0,3.0,3.0,314.6081209997646,4.0,1.0,phase_1,,,,,,,,,,,,,yellow,hexagon
300.0,2.0,1.0,0.0,1.0,1.0,397.2558630002822,4.0,1.0,phase_1,,,,,,,,,,,,,yellow,hexagon
157.0,5.0,0.5,1.0,4.0,4.0,446.5342910002619,4.0,1.0,phase_1,,,,,,,,,,,,,magenta,triangle
653.0,7.0,2.0,1.0,4.0,4.0,372.3629800001617,4.0,1.0,phase_1,,,,,,,,,,,,,white,diamond
1297.0,4.0,4.0,0.0,2.0,2.0,344.3802000001597,4.0,1.0,phase_1,,,,,,,,,,,,,orange,I
662.0,7.0,2.0,1.0,1.0,1.0,399.9286200000824,4.0,1.0,phase_1,,,,,,,,,,,,,white,diamond
153.0,5.0,0.5,1.0,1.0,1.0,399.5121749999271,4.0,1.0,phase_1,,,,,,,,,,,,,magenta,triangle
337.0,2.0,1.0,0.0,1.0,1.0,537.9914320001262,4.0,1.0,phase_1,,,,,,,,,,,,,yellow,hexagon
0.0,2.0,0.0,0.0,3.0,3.0,326.768463999997,4.0,1.0,phase_1,,,,,,,,,,,,,yellow,hexagon
0.0,1.0,0.0,0.0,4.0,4.0,326.0983770001076,4.0,1.0,phase_1,,,,,,,,,,,,,blue,flipped triangle
648.0,7.0,2.0,1.0,3.0,3.0,390.5898179996256,4.0,1.0,phase_1,,,,,,,,,,,,,white,diamond
178.0,5.0,0.5,1.0,3.0,3.0,362.7999420000378,4.0,1.0,phase_1,,,,,,,,,,,,,magenta,triangle
173.0,1.0,0.5,0.0,2.0,2.0,362.561241000094,4.0,1.0,phase_1,,,,,,,,,,,,,blue,flipped triangle
648.0,3.0,2.0,0.0,3.0,3.0,308.3421480000652,4.0,1.0,phase_1,,,,,,,,,,,,,green,square
0.0,6.0,0.0,1.0,2.0,2.0,342.924504000166,4.0,1.0,phase_1,,,,,,,,,,,,,cyan,cross
0.0,3.0,0.0,0.0,1.0,1.0,351.6591689999586,4.0,1.0,phase_1,,,,,,,,,,,,,green,square
654.0,3.0,2.0,0.0,1.0,1.0,372.0320480001646,4.0,1.0,phase_1,,,,,,,,,,,,,green,square
636.0,7.0,2.0,1.0,2.0,2.0,325.2329659999304,4.0,1.0,phase_1,,,,,,,,,,,,,white,diamond
323.0,2.0,1.0,0.0,2.0,2.0,353.2092239997837,4.0,1.0,phase_1,,,,,,,,,,,,,yellow,hexagon
1309.0,4.0,4.0,0.0,4.0,4.0,409.0119239999694,4.0,1.0,phase_1,,,,,,,,,,,,,orange,I
336.0,6.0,1.0,1.0,3.0,3.0,401.4027759999408,4.0,1.0,phase_1,,,,,,,,,,,,,cyan,cross
631.0,7.0,2.0,1.0,2.0,2.0,333.5277139999562,4.0,1.0,phase_1,,,,,,,,,,,,,white,diamond
1316.0,4.0,4.0,0.0,2.0,2.0,400.3240510000978,4.0,1.0,phase_1,,,,,,,,,,,,,orange,I
654.0,3.0,2.0,0.0,3.0,3.0,343.9737200001218,4.0,1.0,phase_1,,,,,,,,,,,,,green,square
0.0,6.0,0.0,1.0,4.0,4.0,335.8609609999803,4.0,1.0,phase_1,,,,,,,,,,,,,cyan,cross
174.0,1.0,0.5,0.0,4.0,4.0,381.4673310002945,4.0,1.0,phase_1,,,,,,,,,,,,,blue,flipped triangle
670.0,3.0,2.0,0.0,2.0,2.0,473.5480769995774,4.0,1.0,phase_1,,,,,,,,,,,,,green,square
0.0,1.0,0.0,0.0,3.0,3.0,343.8746810002158,4.0,1.0,phase_1,,,,,,,,,,,,,blue,flipped triangle
1323.0,4.0,4.0,0.0,3.0,3.0,362.0779850002691,4.0,1.0,phase_1,,,,,,,,,,,,,orange,I
329.0,6.0,1.0,1.0,2.0,2.0,325.6235209996703,4.0,1.0,phase_1,,,,,,,,,,,,,cyan,cross
301.0,2.0,1.0,0.0,1.0,1.0,445.0199839998277,4.0,1.0,phase_1,,,,,,,,,,,,,yellow,hexagon
1288.0,8.0,4.0,1.0,3.0,3.0,361.8558160001157,4.0,1.0,phase_1,,,,,,,,,,,,,gray,circle
1316.0,8.0,4.0,1.0,4.0,4.0,371.6669850000471,4.0,1.0,phase_1,,,,,,,,,,,,,gray,circle
146.0,1.0,0.5,0.0,2.0,2.0,362.2835420001138,4.0,1.0,phase_1,,,,,,,,,,,,,blue,flipped triangle
147.0,5.0,0.5,1.0,1.0,1.0,456.7406900000605,4.0,1.0,phase_1,,,,,,,,,,,,,magenta,triangle
0.0,1.0,0.0,0.0,2.0,2.0,330.7587409999541,4.0,1.0,phase_1,,,,,,,,,,,,,blue,flipped triangle
1324.0,8.0,4.0,1.0,2.0,2.0,446.7319069999576,4.0,2.0,phase_1,,,,,,,,,,,,,gray,circle
1317.0,4.0,4.0,0.0,1.0,1.0,392.7338959997541,4.0,1.0,phase_1,,,,,,,,,,,,,orange,I
1293.0,4.0,4.0,0.0,4.0,4.0,427.603954999995,4.0,1.0,phase_1,,,,,,,,,,,,,orange,I
627.0,7.0,2.0,1.0,1.0,1.0,363.982968000073,4.0,1.0,phase_1,,,,,,,,,,,,,white,diamond
1310.0,4.0,4.0,0.0,4.0,4.0,501.29500399998506,4.0,1.0,phase_1,,,,,,,,,,,,,orange,I
329.0,6.0,1.0,1.0,4.0,4.0,381.931300999895,4.0,1.0,phase_1,,,,,,,,,,,,,cyan,cross
149.0,1.0,0.5,0.0,2.0,2.0,427.8863989998172,4.0,1.0,phase_1,,,,,,,,,,,,,blue,flipped triangle
670.0,3.0,2.0,0.0,4.0,4.0,326.5925459995742,4.0,1.0,phase_1,,,,,,,,,,,,,green,square
0.0,2.0,1.0,0.0,5.0,5.0,316.3609190000898,1.0,1.0,phase_2,go,250.0,250.0,1.0,,,,,,,,,yellow,hexagon
0.0,4.0,4.0,0.0,6.0,6.0,306.0900989999027,1.0,1.0,phase_2,go,250.0,250.0,1.0,,,,,,,,,orange,I
0.0,8.0,4.0,1.0,6.0,0.0,0.0,1.0,1.0,phase_2,stop,250.0,250.0,4.0,,,,,,,,,gray,circle
0.0,8.0,4.0,1.0,6.0,6.0,327.1957000001748,1.0,1.0,phase_2,go,250.0,300.0,1.0,,,,,,,,,gray,circle
0.0,7.0,2.0,1.0,5.0,0.0,0.0,1.0,1.0,phase_2,stop,250.0,300.0,4.0,,,,,,,,,white,diamond
0.0,2.0,1.0,0.0,5.0,5.0,692.7988560000813,1.0,1.0,phase_2,go,300.0,300.0,1.0,,,,,,,,,yellow,hexagon
0.0,2.0,1.0,0.0,5.0,5.0,682.5681679997615,1.0,1.0,phase_2,go,300.0,300.0,1.0,,,,,,,,,yellow,hexagon
0.0,3.0,2.0,0.0,5.0,5.0,614.817793000384,1.0,1.0,phase_2,go,300.0,300.0,1.0,,,,,,,,,green,square
0.0,8.0,4.0,1.0,5.0,5.0,420.1166570001078,1.0,1.0,phase_2,go,300.0,300.0,1.0,,,,,,,,,gray,circle
0.0,2.0,1.0,0.0,6.0,6.0,514.9130800000421,1.0,1.0,phase_2,go,300.0,300.0,1.0,,,,,,,,,yellow,hexagon
0.0,4.0,4.0,0.0,6.0,6.0,355.0854279997111,1.0,1.0,phase_2,go,300.0,300.0,1.0,,,,,,,,,orange,I
0.0,3.0,2.0,0.0,5.0,5.0,466.7840560000513,1.0,1.0,phase_2,go,300.0,300.0,1.0,,,,,,,,,green,square
0.0,4.0,4.0,0.0,5.0,5.0,393.3764710000105,1.0,1.0,phase_2,go,300.0,300.0,1.0,,,,,,,,,orange,I
0.0,1.0,0.5,0.0,6.0,6.0,298.9767489998485,1.0,1.0,phase_2,go,300.0,300.0,1.0,,,,,,,,,blue,flipped triangle
0.0,6.0,1.0,1.0,6.0,6.0,344.8691429998689,1.0,1.0,phase_2,stop,300.0,300.0,3.0,,,,,,,,,cyan,cross
0.0,1.0,0.5,0.0,5.0,5.0,317.7529009999489,1.0,1.0,phase_2,go,300.0,250.0,1.0,,,,,,,,,blue,flipped triangle
0.0,6.0,1.0,1.0,5.0,5.0,403.4704649998275,1.0,1.0,phase_2,go,300.0,250.0,1.0,,,,,,,,,cyan,cross
0.0,4.0,4.0,0.0,5.0,5.0,393.4241110000585,1.0,1.0,phase_2,go,300.0,250.0,1.0,,,,,,,,,orange,I
0.0,8.0,4.0,1.0,6.0,6.0,402.6069850001477,1.0,1.0,phase_2,stop,300.0,250.0,3.0,,,,,,,,,gray,circle
0.0,7.0,2.0,1.0,5.0,5.0,390.3666200003499,1.0,1.0,phase_2,stop,300.0,200.0,3.0,,,,,,,,,white,diamond
0.0,1.0,0.5,0.0,6.0,6.0,523.7806589998399,1.0,1.0,phase_2,go,250.0,200.0,1.0,,,,,,,,,blue,flipped triangle
0.0,3.0,2.0,0.0,5.0,5.0,521.2423570001192,1.0,1.0,phase_2,go,250.0,200.0,1.0,,,,,,,,,green,square
0.0,8.0,4.0,1.0,5.0,0.0,0.0,1.0,1.0,phase_2,stop,250.0,200.0,4.0,,,,,,,,,gray,circle
0.0,8.0,4.0,1.0,6.0,6.0,570.4197430000022,1.0,1.0,phase_2,go,300.0,200.0,1.0,,,,,,,,,gray,circle
0.0,8.0,4.0,1.0,5.0,0.0,0.0,1.0,1.0,phase_2,stop,300.0,200.0,4.0,,,,,,,,,gray,circle
0.0,7.0,2.0,1.0,6.0,0.0,0.0,1.0,1.0,phase_2,stop,350.0,200.0,4.0,,,,,,,,,white,diamond
0.0,1.0,0.5,0.0,6.0,6.0,606.4200539999547,1.0,1.0,phase_2,go,350.0,250.0,1.0,,,,,,,,,blue,flipped triangle
0.0,1.0,0.5,0.0,6.0,6.0,627.4660269996275,1.0,1.0,phase_2,go,350.0,250.0,1.0,,,,,,,,,blue,flipped triangle
0.0,5.0,0.5,1.0,5.0,5.0,400.4879529998106,1.0,1.0,phase_2,stop,350.0,250.0,3.0,,,,,,,,,magenta,triangle
0.0,2.0,1.0,0.0,5.0,5.0,579.9938899999688,1.0,1.0,phase_2,go,300.0,250.0,1.0,,,,,,,,,yellow,hexagon
0.0,3.0,2.0,0.0,5.0,5.0,663.1719809997776,1.0,1.0,phase_2,go,300.0,250.0,1.0,,,,,,,,,green,square
0.0,2.0,1.0,0.0,6.0,6.0,486.5882220001367,1.0,1.0,phase_2,go,300.0,250.0,1.0,,,,,,,,,yellow,hexagon
0.0,3.0,2.0,0.0,6.0,6.0,543.7533830004213,1.0,1.0,phase_2,go,300.0,250.0,1.0,,,,,,,,,green,square
0.0,3.0,2.0,0.0,5.0,5.0,617.018379000001,1.0,1.0,phase_2,go,300.0,250.0,1.0,,,,,,,,,green,square
0.0,5.0,0.5,1.0,5.0,0.0,0.0,1.0,1.0,phase_2,stop,300.0,250.0,4.0,,,,,,,,,magenta,triangle
0.0,5.0,0.5,1.0,5.0,5.0,539.8836059998757,1.0,1.0,phase_2,stop,350.0,250.0,3.0,,,,,,,,,magenta,triangle
0.0,4.0,4.0,0.0,5.0,5.0,505.6368929999735,2.0,1.0,phase_2,go,300.0,250.0,1.0,,,,,,,,,orange,I
0.0,8.0,4.0,1.0,6.0,0.0,0.0,2.0,1.0,phase_2,stop,300.0,250.0,4.0,,,,,,,,,gray,circle
0.0,4.0,4.0,0.0,6.0,6.0,576.3990460000059,2.0,1.0,phase_2,go,300.0,300.0,1.0,,,,,,,,,orange,I
0.0,5.0,0.5,1.0,6.0,0.0,0.0,2.0,1.0,phase_2,stop,300.0,300.0,4.0,,,,,,,,,magenta,triangle
0.0,4.0,4.0,0.0,6.0,6.0,644.3530999999894,2.0,1.0,phase_2,go,300.0,350.0,1.0,,,,,,,,,orange,I
0.0,1.0,0.5,0.0,5.0,5.0,587.6474090000556,2.0,1.0,phase_2,go,300.0,350.0,1.0,,,,,,,,,blue,flipped triangle
0.0,2.0,1.0,0.0,5.0,5.0,643.1032469999991,2.0,1.0,phase_2,go,300.0,350.0,1.0,,,,,,,,,yellow,hexagon
0.0,6.0,1.0,1.0,6.0,6.0,655.0561479998578,2.0,1.0,phase_2,go,300.0,350.0,1.0,,,,,,,,,cyan,cross
0.0,7.0,2.0,1.0,6.0,6.0,444.30714300006,2.0,1.0,phase_2,stop,300.0,350.0,3.0,,,,,,,,,white,diamond
0.0,8.0,4.0,1.0,6.0,6.0,693.5182050001458,2.0,1.0,phase_2,go,300.0,300.0,1.0,,,,,,,,,gray,circle
0.0,3.0,2.0,0.0,5.0,5.0,580.6943540001157,2.0,1.0,phase_2,go,300.0,300.0,1.0,,,,,,,,,green,square
0.0,8.0,4.0,1.0,6.0,6.0,513.9557610000338,2.0,1.0,phase_2,go,300.0,300.0,1.0,,,,,,,,,gray,circle
0.0,1.0,0.5,0.0,6.0,6.0,506.5531360000932,2.0,1.0,phase_2,go,300.0,300.0,1.0,,,,,,,,,blue,flipped triangle
0.0,2.0,1.0,0.0,6.0,6.0,422.2441370002343,2.0,1.0,phase_2,go,300.0,300.0,1.0,,,,,,,,,yellow,hexagon
0.0,4.0,4.0,0.0,5.0,5.0,389.5431350001672,2.0,1.0,phase_2,go,300.0,300.0,1.0,,,,,,,,,orange,I
0.0,5.0,0.5,1.0,5.0,0.0,0.0,2.0,1.0,phase_2,stop,300.0,300.0,4.0,,,,,,,,,magenta,triangle
0.0,3.0,2.0,0.0,5.0,5.0,719.705619999786,2.0,1.0,phase_2,go,350.0,300.0,1.0,,,,,,,,,green,square
0.0,4.0,4.0,0.0,5.0,5.0,535.3500249998433,2.0,1.0,phase_2,go,350.0,300.0,1.0,,,,,,,,,orange,I
0.0,2.0,1.0,0.0,6.0,6.0,310.309314999813,2.0,1.0,phase_2,go,350.0,300.0,1.0,,,,,,,,,yellow,hexagon
0.0,1.0,0.5,0.0,6.0,6.0,515.1826840001377,2.0,1.0,phase_2,go,350.0,300.0,1.0,,,,,,,,,blue,flipped triangle
0.0,8.0,4.0,1.0,6.0,6.0,459.5829660001982,2.0,1.0,phase_2,stop,350.0,300.0,3.0,,,,,,,,,gray,circle
0.0,3.0,2.0,0.0,6.0,6.0,609.3386379998265,2.0,1.0,phase_2,go,350.0,250.0,1.0,,,,,,,,,green,square
0.0,8.0,4.0,1.0,6.0,0.0,0.0,2.0,1.0,phase_2,stop,350.0,250.0,4.0,,,,,,,,,gray,circle
0.0,2.0,1.0,0.0,6.0,6.0,620.9081409997452,2.0,1.0,phase_2,go,350.0,300.0,1.0,,,,,,,,,yellow,hexagon
0.0,6.0,1.0,1.0,5.0,5.0,535.7845610001277,2.0,1.0,phase_2,stop,350.0,300.0,3.0,,,,,,,,,cyan,cross
0.0,6.0,1.0,1.0,5.0,0.0,0.0,2.0,1.0,phase_2,stop,300.0,300.0,4.0,,,,,,,,,cyan,cross
0.0,3.0,2.0,0.0,6.0,6.0,608.3742840000923,2.0,1.0,phase_2,go,350.0,300.0,1.0,,,,,,,,,green,square
0.0,7.0,2.0,1.0,5.0,0.0,0.0,2.0,1.0,phase_2,stop,350.0,300.0,4.0,,,,,,,,,white,diamond
0.0,7.0,2.0,1.0,5.0,5.0,674.0029699999468,2.0,1.0,phase_2,go,400.0,300.0,1.0,,,,,,,,,white,diamond
0.0,5.0,0.5,1.0,6.0,6.0,348.513579000155,2.0,1.0,phase_2,stop,400.0,300.0,3.0,,,,,,,,,magenta,triangle
0.0,1.0,0.5,0.0,5.0,5.0,693.7623700000586,2.0,1.0,phase_2,go,400.0,250.0,1.0,,,,,,,,,blue,flipped triangle
0.0,7.0,2.0,1.0,6.0,0.0,0.0,2.0,1.0,phase_2,stop,400.0,250.0,4.0,,,,,,,,,white,diamond
0.0,4.0,4.0,0.0,5.0,5.0,889.2297369998232,2.0,1.0,phase_2,go,400.0,300.0,1.0,,,,,,,,,orange,I
0.0,2.0,1.0,0.0,6.0,6.0,636.8779089998498,2.0,1.0,phase_2,go,400.0,300.0,1.0,,,,,,,,,yellow,hexagon
0.0,8.0,4.0,1.0,6.0,0.0,0.0,2.0,1.0,phase_2,stop,400.0,300.0,4.0,,,,,,,,,gray,circle
0.0,7.0,2.0,1.0,6.0,0.0,0.0,2.0,1.0,phase_2,stop,400.0,350.0,4.0,,,,,,,,,white,diamond
0.0,3.0,2.0,0.0,5.0,5.0,394.2525320003369,3.0,1.0,phase_2,go,400.0,400.0,1.0,,,,,,,,,green,square
0.0,1.0,0.5,0.0,6.0,6.0,635.4428190002182,3.0,1.0,phase_2,go,400.0,400.0,1.0,,,,,,,,,blue,flipped triangle
0.0,7.0,2.0,1.0,6.0,0.0,0.0,3.0,1.0,phase_2,stop,400.0,400.0,4.0,,,,,,,,,white,diamond
0.0,1.0,0.5,0.0,5.0,5.0,655.253353000262,3.0,1.0,phase_2,go,400.0,450.0,1.0,,,,,,,,,blue,flipped triangle
0.0,5.0,0.5,1.0,6.0,6.0,548.424678000174,3.0,1.0,phase_2,stop,400.0,450.0,3.0,,,,,,,,,magenta,triangle
0.0,2.0,1.0,0.0,5.0,5.0,570.4370160001417,3.0,1.0,phase_2,go,400.0,400.0,1.0,,,,,,,,,yellow,hexagon
0.0,8.0,4.0,1.0,5.0,0.0,0.0,3.0,1.0,phase_2,stop,400.0,400.0,4.0,,,,,,,,,gray,circle
0.0,2.0,1.0,0.0,6.0,6.0,579.0574679999736,3.0,1.0,phase_2,go,450.0,400.0,1.0,,,,,,,,,yellow,hexagon
0.0,5.0,0.5,1.0,6.0,6.0,384.6110539998335,3.0,1.0,phase_2,stop,450.0,400.0,3.0,,,,,,,,,magenta,triangle
0.0,6.0,1.0,1.0,6.0,0.0,0.0,3.0,1.0,phase_2,stop,450.0,350.0,4.0,,,,,,,,,cyan,cross
0.0,1.0,0.5,0.0,6.0,6.0,588.5252479997689,3.0,1.0,phase_2,go,450.0,400.0,1.0,,,,,,,,,blue,flipped triangle
0.0,5.0,0.5,1.0,5.0,5.0,394.0837680002005,3.0,1.0,phase_2,stop,450.0,400.0,3.0,,,,,,,,,magenta,triangle
0.0,2.0,1.0,0.0,5.0,5.0,827.0595600001798,3.0,1.0,phase_2,go,400.0,400.0,1.0,,,,,,,,,yellow,hexagon
0.0,2.0,1.0,0.0,6.0,6.0,729.7655069996836,3.0,1.0,phase_2,go,400.0,400.0,1.0,,,,,,,,,yellow,hexagon
0.0,5.0,0.5,1.0,6.0,0.0,0.0,3.0,1.0,phase_2,stop,400.0,400.0,4.0,,,,,,,,,magenta,triangle
0.0,1.0,0.5,0.0,6.0,6.0,523.5967029998392,3.0,1.0,phase_2,go,400.0,450.0,1.0,,,,,,,,,blue,flipped triangle
0.0,1.0,0.5,0.0,6.0,6.0,721.1438549998093,3.0,1.0,phase_2,go,400.0,450.0,1.0,,,,,,,,,blue,flipped triangle
0.0,6.0,1.0,1.0,6.0,6.0,636.0671399997955,3.0,1.0,phase_2,stop,400.0,450.0,3.0,,,,,,,,,cyan,cross
0.0,5.0,0.5,1.0,5.0,0.0,0.0,3.0,1.0,phase_2,stop,400.0,400.0,4.0,,,,,,,,,magenta,triangle
0.0,6.0,1.0,1.0,5.0,5.0,605.5650019998211,3.0,1.0,phase_2,stop,450.0,400.0,3.0,,,,,,,,,cyan,cross
0.0,1.0,0.5,0.0,5.0,5.0,787.6586980000866,3.0,1.0,phase_2,go,400.0,400.0,1.0,,,,,,,,,blue,flipped triangle
0.0,5.0,0.5,1.0,6.0,0.0,0.0,3.0,1.0,phase_2,stop,400.0,400.0,4.0,,,,,,,,,magenta,triangle
0.0,5.0,0.5,1.0,6.0,0.0,0.0,3.0,1.0,phase_2,stop,400.0,450.0,4.0,,,,,,,,,magenta,triangle
0.0,8.0,4.0,1.0,6.0,6.0,675.8607700003267,3.0,1.0,phase_2,stop,400.0,500.0,3.0,,,,,,,,,gray,circle
0.0,2.0,1.0,0.0,5.0,5.0,720.3876640000999,3.0,1.0,phase_2,go,400.0,450.0,1.0,,,,,,,,,yellow,hexagon
0.0,7.0,2.0,1.0,5.0,0.0,0.0,3.0,1.0,phase_2,stop,400.0,450.0,4.0,,,,,,,,,white,diamond
0.0,7.0,2.0,1.0,6.0,0.0,0.0,3.0,1.0,phase_2,stop,450.0,450.0,4.0,,,,,,,,,white,diamond
0.0,7.0,2.0,1.0,5.0,0.0,0.0,3.0,1.0,phase_2,stop,450.0,500.0,4.0,,,,,,,,,white,diamond
0.0,1.0,0.5,0.0,5.0,5.0,738.1662520001555,3.0,1.0,phase_2,go,500.0,500.0,1.0,,,,,,,,,blue,flipped triangle
0.0,6.0,1.0,1.0,5.0,5.0,861.7099580001195,3.0,1.0,phase_2,go,500.0,500.0,1.0,,,,,,,,,cyan,cross
0.0,1.0,0.5,0.0,6.0,6.0,606.5174850000403,3.0,1.0,phase_2,go,500.0,500.0,1.0,,,,,,,,,blue,flipped triangle
0.0,2.0,1.0,0.0,5.0,5.0,729.1779930001212,3.0,1.0,phase_2,go,500.0,500.0,1.0,,,,,,,,,yellow,hexagon
0.0,6.0,1.0,1.0,5.0,0.0,0.0,3.0,1.0,phase_2,stop,500.0,500.0,4.0,,,,,,,,,cyan,cross
0.0,1.0,0.5,0.0,5.0,5.0,756.7765559997497,3.0,1.0,phase_2,go,550.0,500.0,1.0,,,,,,,,,blue,flipped triangle
0.0,4.0,4.0,0.0,6.0,6.0,907.498919000318,3.0,1.0,phase_2,go,550.0,500.0,1.0,,,,,,,,,orange,I
0.0,2.0,1.0,0.0,6.0,6.0,765.2420100002928,3.0,1.0,phase_2,go,550.0,500.0,1.0,,,,,,,,,yellow,hexagon
0.0,4.0,4.0,0.0,5.0,5.0,391.5497860002688,4.0,1.0,phase_2,go,550.0,500.0,1.0,,,,,,,,,orange,I
0.0,8.0,4.0,1.0,5.0,5.0,392.4134019998746,4.0,1.0,phase_2,stop,550.0,500.0,3.0,,,,,,,,,gray,circle
0.0,7.0,2.0,1.0,5.0,5.0,543.5294969997813,4.0,1.0,phase_2,stop,500.0,500.0,3.0,,,,,,,,,white,diamond
0.0,5.0,0.5,1.0,6.0,6.0,496.5849889999845,4.0,1.0,phase_2,go,450.0,500.0,1.0,,,,,,,,,magenta,triangle
0.0,1.0,0.5,0.0,6.0,6.0,366.5958460001093,4.0,1.0,phase_2,go,450.0,500.0,1.0,,,,,,,,,blue,flipped triangle
0.0,2.0,1.0,0.0,5.0,5.0,476.8619850001414,4.0,1.0,phase_2,go,450.0,500.0,1.0,,,,,,,,,yellow,hexagon
0.0,8.0,4.0,1.0,5.0,5.0,365.5732339998394,4.0,1.0,phase_2,go,450.0,500.0,1.0,,,,,,,,,gray,circle
0.0,3.0,2.0,0.0,6.0,6.0,513.5308500002793,4.0,1.0,phase_2,go,450.0,500.0,1.0,,,,,,,,,green,square
0.0,4.0,4.0,0.0,6.0,6.0,375.5536460002986,4.0,1.0,phase_2,go,450.0,500.0,1.0,,,,,,,,,orange,I
0.0,7.0,2.0,1.0,5.0,5.0,275.4033070000332,4.0,1.0,phase_2,go,450.0,500.0,1.0,,,,,,,,,white,diamond
0.0,3.0,2.0,0.0,5.0,5.0,328.7200739996478,4.0,1.0,phase_2,go,450.0,500.0,1.0,,,,,,,,,green,square
0.0,7.0,2.0,1.0,6.0,6.0,326.7169139999168,4.0,1.0,phase_2,go,450.0,500.0,1.0,,,,,,,,,white,diamond
0.0,8.0,4.0,1.0,5.0,5.0,272.2081580000122,4.0,1.0,phase_2,stop,450.0,500.0,3.0,,,,,,,,,gray,circle
0.0,5.0,0.5,1.0,5.0,5.0,373.6528120002731,4.0,1.0,phase_2,stop,400.0,500.0,3.0,,,,,,,,,magenta,triangle
0.0,8.0,4.0,1.0,6.0,6.0,289.8182439998891,4.0,1.0,phase_2,stop,350.0,500.0,3.0,,,,,,,,,gray,circle
0.0,4.0,4.0,0.0,6.0,6.0,446.1271080003826,4.0,1.0,phase_2,go,350.0,450.0,1.0,,,,,,,,,orange,I
0.0,4.0,4.0,0.0,5.0,5.0,356.1226700003317,4.0,1.0,phase_2,go,350.0,450.0,1.0,,,,,,,,,orange,I
0.0,4.0,4.0,0.0,5.0,5.0,591.1081389999708,4.0,1.0,phase_2,go,350.0,450.0,1.0,,,,,,,,,orange,I
0.0,6.0,1.0,1.0,6.0,6.0,531.2390369999775,4.0,1.0,phase_2,stop,350.0,450.0,3.0,,,,,,,,,cyan,cross
0.0,1.0,0.5,0.0,5.0,5.0,636.1850600001162,4.0,1.0,phase_2,go,350.0,400.0,1.0,,,,,,,,,blue,flipped triangle
0.0,5.0,0.5,1.0,6.0,6.0,576.150484000209,4.0,1.0,phase_2,stop,350.0,400.0,3.0,,,,,,,,,magenta,triangle
0.0,4.0,4.0,0.0,5.0,5.0,593.4177399999498,4.0,1.0,phase_2,go,350.0,350.0,1.0,,,,,,,,,orange,I
0.0,5.0,0.5,1.0,6.0,6.0,703.5101599999507,4.0,1.0,phase_2,go,350.0,350.0,1.0,,,,,,,,,magenta,triangle
0.0,6.0,1.0,1.0,5.0,0.0,0.0,4.0,1.0,phase_2,stop,350.0,350.0,4.0,,,,,,,,,cyan,cross
0.0,5.0,0.5,1.0,5.0,5.0,664.6743830001469,4.0,1.0,phase_2,go,400.0,350.0,1.0,,,,,,,,,magenta,triangle
0.0,2.0,1.0,0.0,5.0,5.0,648.0862640000851,4.0,1.0,phase_2,go,400.0,350.0,1.0,,,,,,,,,yellow,hexagon
0.0,4.0,4.0,0.0,6.0,6.0,591.0883589999685,4.0,1.0,phase_2,go,400.0,350.0,1.0,,,,,,,,,orange,I
0.0,7.0,2.0,1.0,5.0,5.0,366.2252380004247,4.0,1.0,phase_2,stop,400.0,350.0,3.0,,,,,,,,,white,diamond
0.0,3.0,2.0,0.0,6.0,6.0,531.8250230002377,4.0,1.0,phase_2,go,350.0,350.0,1.0,,,,,,,,,green,square
0.0,6.0,1.0,1.0,6.0,6.0,402.4641309997605,4.0,1.0,phase_2,go,350.0,350.0,1.0,,,,,,,,,cyan,cross
0.0,8.0,4.0,1.0,5.0,5.0,595.941440000388,4.0,1.0,phase_2,stop,350.0,350.0,3.0,,,,,,,,,gray,circle
0.0,8.0,4.0,1.0,6.0,0.0,0.0,4.0,1.0,phase_2,stop,300.0,350.0,4.0,,,,,,,,,gray,circle
0.0,5.0,0.5,1.0,6.0,6.0,533.8906550000502,4.0,1.0,phase_2,stop,300.0,400.0,3.0,,,,,,,,,magenta,triangle
0.0,3.0,2.0,0.0,6.0,6.0,702.7379099999962,4.0,1.0,phase_2,go,300.0,350.0,1.0,,,,,,,,,green,square
0.0,8.0,4.0,1.0,5.0,0.0,0.0,4.0,1.0,phase_2,stop,300.0,350.0,4.0,,,,,,,,,gray,circle
0.0,4.0,4.0,0.0,6.0,6.0,665.774263000003,4.0,1.0,phase_2,go,350.0,350.0,1.0,,,,,,,,,orange,I
0.0,8.0,4.0,1.0,5.0,5.0,337.7811660002408,5.0,1.0,phase_2,stop,350.0,350.0,3.0,,,,,,,,,gray,circle
0.0,3.0,2.0,0.0,5.0,5.0,355.7044160002078,5.0,1.0,phase_2,go,300.0,350.0,1.0,,,,,,,,,green,square
0.0,7.0,2.0,1.0,6.0,6.0,284.192861000065,5.0,1.0,phase_2,stop,300.0,350.0,3.0,,,,,,,,,white,diamond
0.0,6.0,1.0,1.0,6.0,6.0,405.3988380001101,5.0,1.0,phase_2,stop,300.0,300.0,3.0,,,,,,,,,cyan,cross
0.0,3.0,2.0,0.0,5.0,5.0,300.5529310003112,5.0,1.0,phase_2,go,300.0,250.0,1.0,,,,,,,,,green,square
0.0,5.0,0.5,1.0,6.0,6.0,328.0389950000426,5.0,1.0,phase_2,go,300.0,250.0,1.0,,,,,,,,,magenta,triangle
0.0,1.0,0.5,0.0,6.0,6.0,355.2570229999219,5.0,1.0,phase_2,go,300.0,250.0,1.0,,,,,,,,,blue,flipped triangle
0.0,7.0,2.0,1.0,6.0,6.0,352.0396549997713,5.0,1.0,phase_2,stop,300.0,250.0,3.0,,,,,,,,,white,diamond
0.0,8.0,4.0,1.0,6.0,0.0,0.0,5.0,1.0,phase_2,stop,300.0,200.0,4.0,,,,,,,,,gray,circle
0.0,1.0,0.5,0.0,5.0,5.0,671.8768519999685,5.0,1.0,phase_2,go,300.0,250.0,1.0,,,,,,,,,blue,flipped triangle
0.0,4.0,4.0,0.0,5.0,5.0,372.5836369999342,5.0,1.0,phase_2,go,300.0,250.0,1.0,,,,,,,,,orange,I
0.0,3.0,2.0,0.0,5.0,5.0,355.0627950003218,5.0,1.0,phase_2,go,300.0,250.0,1.0,,,,,,,,,green,square
0.0,6.0,1.0,1.0,5.0,5.0,340.0499419999505,5.0,1.0,phase_2,stop,300.0,250.0,3.0,,,,,,,,,cyan,cross
0.0,6.0,1.0,1.0,6.0,6.0,399.0536650003378,5.0,1.0,phase_2,stop,250.0,250.0,3.0,,,,,,,,,cyan,cross
0.0,2.0,1.0,0.0,5.0,5.0,319.1764050002348,5.0,1.0,phase_2,go,250.0,200.0,1.0,,,,,,,,,yellow,hexagon
0.0,3.0,2.0,0.0,6.0,6.0,357.4175059998197,5.0,1.0,phase_2,go,250.0,200.0,1.0,,,,,,,,,green,square
0.0,6.0,1.0,1.0,6.0,6.0,477.5864650000585,5.0,1.0,phase_2,go,250.0,200.0,1.0,,,,,,,,,cyan,cross
0.0,3.0,2.0,0.0,6.0,6.0,300.1392090000081,5.0,1.0,phase_2,go,250.0,200.0,1.0,,,,,,,,,green,square
0.0,3.0,2.0,0.0,6.0,6.0,338.1176019997838,5.0,1.0,phase_2,go,250.0,200.0,1.0,,,,,,,,,green,square
0.0,5.0,0.5,1.0,5.0,5.0,526.2450180002816,5.0,1.0,phase_2,stop,250.0,200.0,3.0,,,,,,,,,magenta,triangle
0.0,8.0,4.0,1.0,6.0,0.0,0.0,5.0,1.0,phase_2,stop,200.0,200.0,4.0,,,,,,,,,gray,circle
0.0,4.0,4.0,0.0,6.0,6.0,617.2077129999707,5.0,1.0,phase_2,go,200.0,250.0,1.0,,,,,,,,,orange,I
0.0,6.0,1.0,1.0,5.0,0.0,0.0,5.0,1.0,phase_2,stop,200.0,250.0,4.0,,,,,,,,,cyan,cross
0.0,2.0,1.0,0.0,6.0,6.0,467.7662920003058,5.0,1.0,phase_2,go,250.0,250.0,1.0,,,,,,,,,yellow,hexagon
0.0,4.0,4.0,0.0,5.0,5.0,515.2489930001138,5.0,1.0,phase_2,go,250.0,250.0,1.0,,,,,,,,,orange,I
0.0,5.0,0.5,1.0,5.0,5.0,497.2820090001733,5.0,1.0,phase_2,go,250.0,250.0,1.0,,,,,,,,,magenta,triangle
0.0,8.0,4.0,1.0,5.0,5.0,418.2274269996924,5.0,1.0,phase_2,stop,250.0,250.0,3.0,,,,,,,,,gray,circle
0.0,6.0,1.0,1.0,6.0,6.0,484.4372400002612,5.0,1.0,phase_2,stop,200.0,250.0,3.0,,,,,,,,,cyan,cross
0.0,1.0,0.5,0.0,6.0,6.0,534.204784999929,5.0,1.0,phase_2,go,200.0,200.0,1.0,,,,,,,,,blue,flipped triangle
0.0,8.0,4.0,1.0,5.0,5.0,345.8623629999238,5.0,1.0,phase_2,go,200.0,200.0,1.0,,,,,,,,,gray,circle
0.0,5.0,0.5,1.0,5.0,5.0,524.4611499997518,5.0,1.0,phase_2,go,200.0,200.0,1.0,,,,,,,,,magenta,triangle
0.0,6.0,1.0,1.0,6.0,6.0,384.6600959996067,5.0,1.0,phase_2,go,200.0,200.0,1.0,,,,,,,,,cyan,cross
0.0,5.0,0.5,1.0,5.0,0.0,0.0,5.0,1.0,phase_2,stop,200.0,200.0,4.0,,,,,,,,,magenta,triangle
0.0,6.0,1.0,1.0,5.0,0.0,0.0,5.0,1.0,phase_2,stop,250.0,200.0,4.0,,,,,,,,,cyan,cross
0.0,5.0,0.5,1.0,5.0,0.0,0.0,5.0,1.0,phase_2,stop,300.0,200.0,4.0,,,,,,,,,magenta,triangle
0.0,4.0,4.0,0.0,6.0,6.0,460.0974059999316,5.0,1.0,phase_2,go,350.0,200.0,1.0,,,,,,,,,orange,I
0.0,4.0,4.0,0.0,5.0,5.0,374.7860399998899,6.0,1.0,phase_2,go,350.0,200.0,1.0,,,,,,,,,orange,I
0.0,7.0,2.0,1.0,5.0,5.0,382.5898380000581,6.0,1.0,phase_2,stop,350.0,200.0,3.0,,,,,,,,,white,diamond
0.0,8.0,4.0,1.0,5.0,5.0,398.9782809999269,6.0,1.0,phase_2,stop,300.0,200.0,3.0,,,,,,,,,gray,circle
0.0,4.0,4.0,0.0,6.0,6.0,326.4406019998205,6.0,1.0,phase_2,go,250.0,200.0,1.0,,,,,,,,,orange,I
0.0,5.0,0.5,1.0,6.0,6.0,339.4150839999383,6.0,1.0,phase_2,stop,250.0,200.0,3.0,,,,,,,,,magenta,triangle
0.0,7.0,2.0,1.0,5.0,0.0,0.0,6.0,1.0,phase_2,stop,250.0,150.0,4.0,,,,,,,,,white,diamond
0.0,7.0,2.0,1.0,6.0,6.0,507.61806199989223,6.0,1.0,phase_2,go,300.0,150.0,1.0,,,,,,,,,white,diamond
0.0,6.0,1.0,1.0,6.0,6.0,359.6656849999817,6.0,1.0,phase_2,stop,300.0,150.0,3.0,,,,,,,,,cyan,cross
0.0,6.0,1.0,1.0,6.0,6.0,541.8280180001602,6.0,1.0,phase_2,go,300.0,100.0,1.0,,,,,,,,,cyan,cross
0.0,1.0,0.5,0.0,6.0,6.0,335.9553269997377,6.0,1.0,phase_2,go,300.0,100.0,1.0,,,,,,,,,blue,flipped triangle
0.0,6.0,1.0,1.0,6.0,6.0,365.3590039998562,6.0,1.0,phase_2,stop,300.0,100.0,3.0,,,,,,,,,cyan,cross
0.0,8.0,4.0,1.0,5.0,5.0,485.2842559998862,6.0,1.0,phase_2,stop,300.0,50.0,3.0,,,,,,,,,gray,circle
0.0,1.0,0.5,0.0,5.0,5.0,571.3061410001501,6.0,1.0,phase_2,go,250.0,50.0,1.0,,,,,,,,,blue,flipped triangle
0.0,3.0,2.0,0.0,6.0,6.0,579.8674769998797,6.0,1.0,phase_2,go,250.0,50.0,1.0,,,,,,,,,green,square
0.0,3.0,2.0,0.0,6.0,6.0,364.192052999897,6.0,1.0,phase_2,go,250.0,50.0,1.0,,,,,,,,,green,square
0.0,5.0,0.5,1.0,6.0,0.0,0.0,6.0,1.0,phase_2,stop,250.0,50.0,4.0,,,,,,,,,magenta,triangle
0.0,1.0,0.5,0.0,5.0,5.0,533.1771099999969,6.0,1.0,phase_2,go,250.0,100.0,1.0,,,,,,,,,blue,flipped triangle
0.0,6.0,1.0,1.0,5.0,0.0,0.0,6.0,1.0,phase_2,stop,250.0,100.0,4.0,,,,,,,,,cyan,cross
0.0,5.0,0.5,1.0,5.0,0.0,0.0,6.0,1.0,phase_2,stop,300.0,100.0,4.0,,,,,,,,,magenta,triangle
0.0,3.0,2.0,0.0,6.0,6.0,317.4556449998817,6.0,1.0,phase_2,go,350.0,100.0,1.0,,,,,,,,,green,square
0.0,7.0,2.0,1.0,6.0,6.0,365.8070340002268,6.0,1.0,phase_2,go,350.0,100.0,1.0,,,,,,,,,white,diamond
0.0,3.0,2.0,0.0,5.0,5.0,523.2238980001966,6.0,1.0,phase_2,go,350.0,100.0,1.0,,,,,,,,,green,square
0.0,3.0,2.0,0.0,6.0,6.0,385.9387550000974,6.0,1.0,phase_2,go,350.0,100.0,1.0,,,,,,,,,green,square
0.0,7.0,2.0,1.0,5.0,5.0,395.9949039999628,6.0,1.0,phase_2,stop,350.0,100.0,3.0,,,,,,,,,white,diamond
0.0,1.0,0.5,0.0,6.0,6.0,355.7021399997211,6.0,1.0,phase_2,go,300.0,100.0,1.0,,,,,,,,,blue,flipped triangle
0.0,4.0,4.0,0.0,6.0,6.0,309.6089259997825,6.0,1.0,phase_2,go,300.0,100.0,1.0,,,,,,,,,orange,I
0.0,4.0,4.0,0.0,6.0,6.0,364.4097450001027,6.0,1.0,phase_2,go,300.0,100.0,1.0,,,,,,,,,orange,I
0.0,5.0,0.5,1.0,6.0,6.0,392.9758570002377,6.0,1.0,phase_2,stop,300.0,100.0,3.0,,,,,,,,,magenta,triangle
0.0,1.0,0.5,0.0,5.0,5.0,347.0196539997232,6.0,1.0,phase_2,go,300.0,50.0,1.0,,,,,,,,,blue,flipped triangle
0.0,6.0,1.0,1.0,6.0,6.0,617.798374999893,6.0,1.0,phase_2,go,300.0,50.0,1.0,,,,,,,,,cyan,cross
0.0,1.0,0.5,0.0,5.0,5.0,449.805410999943,6.0,1.0,phase_2,go,300.0,50.0,1.0,,,,,,,,,blue,flipped triangle
0.0,5.0,0.5,1.0,5.0,5.0,439.230340999984,6.0,1.0,phase_2,stop,300.0,50.0,3.0,,,,,,,,,magenta,triangle
0.0,4.0,4.0,0.0,5.0,5.0,589.302760999999,6.0,1.0,phase_2,go,250.0,50.0,1.0,,,,,,,,,orange,I
0.0,4.0,4.0,0.0,5.0,5.0,533.6403090000204,6.0,1.0,phase_2,go,250.0,50.0,1.0,,,,,,,,,orange,I
0.0,6.0,1.0,1.0,6.0,6.0,396.4336930002901,6.0,1.0,phase_2,stop,250.0,50.0,3.0,,,,,,,,,cyan,cross
0.0,4.0,4.0,0.0,6.0,6.0,560.96033599988,6.0,1.0,phase_2,go,250.0,0.0,1.0,,,,,,,,,orange,I
0.0,3.0,2.0,0.0,6.0,6.0,321.7141300001458,7.0,1.0,phase_2,go,250.0,0.0,1.0,,,,,,,,,green,square
0.0,7.0,2.0,1.0,6.0,0.0,0.0,7.0,1.0,phase_2,stop,250.0,0.0,4.0,,,,,,,,,white,diamond
0.0,8.0,4.0,1.0,6.0,0.0,0.0,7.0,1.0,phase_2,stop,250.0,50.0,4.0,,,,,,,,,gray,circle
0.0,6.0,1.0,1.0,5.0,5.0,424.1254419998768,7.0,1.0,phase_2,stop,250.0,100.0,3.0,,,,,,,,,cyan,cross
0.0,4.0,4.0,0.0,5.0,5.0,470.849442999679,7.0,1.0,phase_2,go,200.0,100.0,1.0,,,,,,,,,orange,I
0.0,6.0,1.0,1.0,6.0,6.0,342.4635639998996,7.0,1.0,phase_2,stop,200.0,100.0,3.0,,,,,,,,,cyan,cross
0.0,2.0,1.0,0.0,5.0,5.0,514.9012239999138,7.0,1.0,phase_2,go,200.0,50.0,1.0,,,,,,,,,yellow,hexagon
0.0,3.0,2.0,0.0,5.0,5.0,397.3401119997106,7.0,1.0,phase_2,go,200.0,50.0,1.0,,,,,,,,,green,square
0.0,3.0,2.0,0.0,5.0,5.0,569.2580680001811,7.0,1.0,phase_2,go,200.0,50.0,1.0,,,,,,,,,green,square
0.0,5.0,0.5,1.0,6.0,6.0,290.3944060003596,7.0,1.0,phase_2,stop,200.0,50.0,3.0,,,,,,,,,magenta,triangle
0.0,7.0,2.0,1.0,5.0,5.0,456.7531450002207,7.0,1.0,phase_2,go,200.0,0.0,1.0,,,,,,,,,white,diamond
0.0,7.0,2.0,1.0,5.0,5.0,425.5057430000306,7.0,1.0,phase_2,stop,200.0,0.0,3.0,,,,,,,,,white,diamond
0.0,7.0,2.0,1.0,6.0,0.0,0.0,7.0,1.0,phase_2,stop,150.0,0.0,4.0,,,,,,,,,white,diamond
0.0,8.0,4.0,1.0,5.0,5.0,382.4405959999239,7.0,1.0,phase_2,stop,150.0,50.0,3.0,,,,,,,,,gray,circle
0.0,7.0,2.0,1.0,5.0,5.0,542.7084319999267,7.0,1.0,phase_2,go,100.0,50.0,1.0,,,,,,,,,white,diamond
0.0,4.0,4.0,0.0,5.0,5.0,541.7545660002361,7.0,1.0,phase_2,go,100.0,50.0,1.0,,,,,,,,,orange,I
0.0,4.0,4.0,0.0,6.0,6.0,532.642782000039,7.0,1.0,phase_2,go,100.0,50.0,1.0,,,,,,,,,orange,I
0.0,2.0,1.0,0.0,6.0,6.0,433.8057240001944,7.0,1.0,phase_2,go,100.0,50.0,1.0,,,,,,,,,yellow,hexagon
0.0,1.0,0.5,0.0,5.0,5.0,421.419761999914,7.0,1.0,phase_2,go,100.0,50.0,1.0,,,,,,,,,blue,flipped triangle
0.0,8.0,4.0,1.0,5.0,5.0,345.0003490002018,7.0,1.0,phase_2,stop,100.0,50.0,3.0,,,,,,,,,gray,circle
0.0,2.0,1.0,0.0,6.0,6.0,495.0974739999765,7.0,1.0,phase_2,go,50.0,50.0,1.0,,,,,,,,,yellow,hexagon
0.0,1.0,0.5,0.0,6.0,6.0,466.156919000241,7.0,1.0,phase_2,go,50.0,50.0,1.0,,,,,,,,,blue,flipped triangle
0.0,7.0,2.0,1.0,6.0,6.0,364.8450979999325,7.0,1.0,phase_2,go,50.0,50.0,1.0,,,,,,,,,white,diamond
0.0,8.0,4.0,1.0,6.0,6.0,376.9570660001591,7.0,1.0,phase_2,stop,50.0,50.0,3.0,,,,,,,,,gray,circle
0.0,4.0,4.0,0.0,6.0,6.0,440.4637109996656,7.0,1.0,phase_2,go,50.0,0.0,1.0,,,,,,,,,orange,I
0.0,3.0,2.0,0.0,5.0,5.0,586.496826000257,7.0,1.0,phase_2,go,50.0,0.0,1.0,,,,,,,,,green,square
0.0,5.0,0.5,1.0,5.0,5.0,299.3910870000036,7.0,1.0,phase_2,go,50.0,0.0,1.0,,,,,,,,,magenta,triangle
0.0,1.0,0.5,0.0,5.0,5.0,381.4202730000033,7.0,1.0,phase_2,go,50.0,0.0,1.0,,,,,,,,,blue,flipped triangle
0.0,6.0,1.0,1.0,5.0,0.0,0.0,7.0,1.0,phase_2,stop,50.0,0.0,4.0,,,,,,,,,cyan,cross
0.0,3.0,2.0,0.0,5.0,5.0,477.297572000225,7.0,1.0,phase_2,go,100.0,0.0,1.0,,,,,,,,,green,square
0.0,7.0,2.0,1.0,6.0,6.0,414.6476300002177,7.0,1.0,phase_2,stop,100.0,0.0,3.0,,,,,,,,,white,diamond
0.0,5.0,0.5,1.0,5.0,0.0,0.0,7.0,1.0,phase_2,stop,100.0,0.0,4.0,,,,,,,,,magenta,triangle
0.0,1.0,0.5,0.0,5.0,5.0,513.8324619997547,7.0,1.0,phase_2,go,150.0,0.0,1.0,,,,,,,,,blue,flipped triangle
0.0,2.0,1.0,0.0,5.0,5.0,465.45571900014687,7.0,1.0,phase_2,go,150.0,0.0,1.0,,,,,,,,,yellow,hexagon
0.0,1.0,0.5,0.0,5.0,5.0,383.2278779996159,7.0,1.0,phase_2,go,150.0,0.0,1.0,,,,,,,,,blue,flipped triangle
0.0,2.0,1.0,0.0,6.0,6.0,383.0588870000611,7.0,1.0,phase_2,go,150.0,0.0,1.0,,,,,,,,,yellow,hexagon
0.0,8.0,4.0,1.0,5.0,5.0,298.6951679999947,8.0,1.0,phase_2,go,150.0,0.0,1.0,,,,,,,,,gray,circle
0.0,2.0,1.0,0.0,6.0,6.0,289.236921000338,8.0,1.0,phase_2,go,150.0,0.0,1.0,,,,,,,,,yellow,hexagon
0.0,5.0,0.5,1.0,5.0,5.0,299.6639250000044,8.0,1.0,phase_2,go,150.0,0.0,1.0,,,,,,,,,magenta,triangle
0.0,6.0,1.0,1.0,5.0,5.0,355.1076379999358,8.0,1.0,phase_2,stop,150.0,0.0,3.0,,,,,,,,,cyan,cross
0.0,2.0,1.0,0.0,5.0,5.0,447.2225839999737,8.0,1.0,phase_2,go,100.0,0.0,1.0,,,,,,,,,yellow,hexagon
0.0,1.0,0.5,0.0,6.0,6.0,318.1538900003033,8.0,1.0,phase_2,go,100.0,0.0,1.0,,,,,,,,,blue,flipped triangle
0.0,7.0,2.0,1.0,6.0,6.0,317.175810000208,8.0,1.0,phase_2,go,100.0,0.0,1.0,,,,,,,,,white,diamond
0.0,8.0,4.0,1.0,5.0,5.0,318.2753900000534,8.0,1.0,phase_2,stop,100.0,0.0,3.0,,,,,,,,,gray,circle
0.0,5.0,0.5,1.0,6.0,6.0,354.1967979999754,8.0,1.0,phase_2,go,50.0,0.0,1.0,,,,,,,,,magenta,triangle
0.0,8.0,4.0,1.0,6.0,6.0,577.7380710001125,8.0,1.0,phase_2,go,50.0,0.0,1.0,,,,,,,,,gray,circle
0.0,6.0,1.0,1.0,5.0,5.0,309.825839000041,8.0,1.0,phase_2,stop,50.0,0.0,3.0,,,,,,,,,cyan,cross
0.0,3.0,2.0,0.0,6.0,6.0,329.6788149996246,8.0,1.0,phase_2,go,0.0,0.0,1.0,,,,,,,,,green,square
0.0,4.0,4.0,0.0,6.0,6.0,354.1942199999539,8.0,1.0,phase_2,go,0.0,0.0,1.0,,,,,,,,,orange,I
0.0,5.0,0.5,1.0,6.0,0.0,0.0,8.0,1.0,phase_2,stop,0.0,0.0,4.0,,,,,,,,,magenta,triangle
0.0,6.0,1.0,1.0,5.0,5.0,374.1754309999123,8.0,1.0,phase_2,go,0.0,50.0,1.0,,,,,,,,,cyan,cross
0.0,7.0,2.0,1.0,5.0,0.0,0.0,8.0,1.0,phase_2,stop,0.0,50.0,4.0,,,,,,,,,white,diamond
0.0,3.0,2.0,0.0,5.0,5.0,467.1595620002335,8.0,1.0,phase_2,go,50.0,50.0,1.0,,,,,,,,,green,square
0.0,2.0,1.0,0.0,6.0,6.0,325.8477350000248,8.0,1.0,phase_2,go,50.0,50.0,1.0,,,,,,,,,yellow,hexagon
0.0,7.0,2.0,1.0,6.0,0.0,0.0,8.0,1.0,phase_2,stop,50.0,50.0,4.0,,,,,,,,,white,diamond
0.0,7.0,2.0,1.0,6.0,0.0,0.0,8.0,1.0,phase_2,stop,50.0,100.0,4.0,,,,,,,,,white,diamond
0.0,2.0,1.0,0.0,5.0,5.0,354.7496050000518,8.0,1.0,phase_2,go,50.0,150.0,1.0,,,,,,,,,yellow,hexagon
0.0,2.0,1.0,0.0,6.0,6.0,364.2801910000344,8.0,1.0,phase_2,go,50.0,150.0,1.0,,,,,,,,,yellow,hexagon
0.0,3.0,2.0,0.0,6.0,6.0,363.7887360000604,8.0,1.0,phase_2,go,50.0,150.0,1.0,,,,,,,,,green,square
0.0,3.0,2.0,0.0,6.0,6.0,377.4649580000186,8.0,1.0,phase_2,go,50.0,150.0,1.0,,,,,,,,,green,square
0.0,7.0,2.0,1.0,5.0,5.0,425.6150259998321,8.0,1.0,phase_2,stop,50.0,150.0,3.0,,,,,,,,,white,diamond
0.0,6.0,1.0,1.0,5.0,0.0,0.0,8.0,1.0,phase_2,stop,0.0,150.0,4.0,,,,,,,,,cyan,cross
0.0,1.0,0.5,0.0,5.0,5.0,502.14745300036157,8.0,1.0,phase_2,go,50.0,150.0,1.0,,,,,,,,,blue,flipped triangle
0.0,3.0,2.0,0.0,6.0,6.0,485.5825699996785,8.0,1.0,phase_2,go,50.0,150.0,1.0,,,,,,,,,green,square
0.0,2.0,1.0,0.0,5.0,5.0,496.4454829996612,8.0,1.0,phase_2,go,50.0,150.0,1.0,,,,,,,,,yellow,hexagon
0.0,2.0,1.0,0.0,6.0,6.0,336.6499120002117,8.0,1.0,phase_2,go,50.0,150.0,1.0,,,,,,,,,yellow,hexagon
0.0,4.0,4.0,0.0,5.0,5.0,392.690802999823,8.0,1.0,phase_2,go,50.0,150.0,1.0,,,,,,,,,orange,I
0.0,2.0,1.0,0.0,6.0,6.0,347.0203379997656,8.0,1.0,phase_2,go,50.0,150.0,1.0,,,,,,,,,yellow,hexagon
0.0,2.0,1.0,0.0,5.0,5.0,290.1129510000828,8.0,1.0,phase_2,go,50.0,150.0,1.0,,,,,,,,,yellow,hexagon
0.0,7.0,2.0,1.0,5.0,0.0,0.0,8.0,1.0,phase_2,stop,50.0,150.0,4.0,,,,,,,,,white,diamond
0.0,6.0,1.0,1.0,6.0,6.0,328.6973399999624,8.0,1.0,phase_2,stop,100.0,150.0,3.0,,,,,,,,,cyan,cross
0.0,6.0,1.0,1.0,5.0,0.0,0.0,8.0,1.0,phase_2,stop,100.0,100.0,4.0,,,,,,,,,cyan,cross
0.0,5.0,0.5,1.0,7.0,2.0,1090.4121609992217,1.0,2.0,phase_3,,,,,346.0,2.0,173.0,346.0,519.0,865.0,1038.0,692.0,magenta,triangle
0.0,3.0,2.0,0.0,7.0,5.0,932.7667379993728,1.0,1.0,phase_3,,,,,675.0,5.0,405.0,540.0,810.0,135.0,675.0,270.0,green,square
0.0,7.0,2.0,1.0,7.0,4.0,204.8458869994647,1.0,1.0,phase_3,,,,,540.0,4.0,135.0,405.0,270.0,540.0,675.0,810.0,white,diamond
0.0,4.0,4.0,0.0,7.0,2.0,1617.098043999249,1.0,1.0,phase_3,,,,,675.0,5.0,135.0,675.0,540.0,810.0,405.0,270.0,orange,I
0.0,8.0,4.0,1.0,7.0,3.0,1251.4841990005152,1.0,1.0,phase_3,,,,,308.0,2.0,770.0,616.0,308.0,154.0,924.0,462.0,gray,circle
0.0,6.0,1.0,1.0,7.0,5.0,1092.4150559994814,1.0,1.0,phase_3,,,,,770.0,5.0,154.0,462.0,616.0,924.0,770.0,308.0,cyan,cross
0.0,4.0,4.0,0.0,7.0,1.0,1003.3644519999143,1.0,1.0,phase_3,,,,,135.0,1.0,135.0,405.0,810.0,540.0,675.0,270.0,orange,I
0.0,7.0,2.0,1.0,7.0,3.0,1175.2706930001295,1.0,1.0,phase_3,,,,,346.0,2.0,173.0,519.0,346.0,1038.0,865.0,692.0,white,diamond
0.0,4.0,4.0,0.0,7.0,4.0,1004.9915400004463,1.0,1.0,phase_3,,,,,173.0,1.0,1038.0,692.0,865.0,173.0,346.0,519.0,orange,I
0.0,7.0,2.0,1.0,7.0,6.0,1074.9132259998078,1.0,1.0,phase_3,,,,,580.0,5.0,464.0,232.0,116.0,696.0,348.0,580.0,white,diamond
0.0,1.0,0.5,0.0,7.0,3.0,1865.025615999912,1.0,1.0,phase_3,,,,,1152.0,6.0,384.0,960.0,1152.0,768.0,192.0,576.0,blue,flipped triangle
0.0,7.0,2.0,1.0,7.0,5.0,1642.4878999996508,1.0,1.0,phase_3,,,,,768.0,4.0,192.0,576.0,1152.0,960.0,768.0,384.0,white,diamond
0.0,5.0,0.5,1.0,7.0,4.0,1325.1069930001904,1.0,1.0,phase_3,,,,,116.0,1.0,696.0,232.0,580.0,116.0,348.0,464.0,magenta,triangle
0.0,5.0,0.5,1.0,7.0,3.0,1429.7944410000127,1.0,1.0,phase_3,,,,,116.0,1.0,232.0,348.0,116.0,580.0,696.0,464.0,magenta,triangle
0.0,3.0,2.0,0.0,7.0,5.0,1669.5052049999504,1.0,1.0,phase_3,,,,,1038.0,6.0,865.0,173.0,519.0,692.0,1038.0,346.0,green,square
0.0,4.0,4.0,0.0,7.0,2.0,900.1898249998703,1.0,1.0,phase_3,,,,,464.0,4.0,580.0,464.0,696.0,348.0,232.0,116.0,orange,I
0.0,6.0,1.0,1.0,7.0,5.0,1330.3152570006205,1.0,1.0,phase_3,,,,,810.0,6.0,405.0,270.0,675.0,135.0,810.0,540.0,cyan,cross
0.0,8.0,4.0,1.0,7.0,3.0,1020.1540019997992,1.0,1.0,phase_3,,,,,346.0,2.0,519.0,865.0,346.0,1038.0,692.0,173.0,gray,circle
0.0,1.0,0.5,0.0,7.0,6.0,1195.896084999731,1.0,1.0,phase_3,,,,,540.0,4.0,810.0,270.0,405.0,135.0,675.0,540.0,blue,flipped triangle
0.0,8.0,4.0,1.0,7.0,3.0,1483.4346289999305,1.0,1.0,phase_3,,,,,135.0,1.0,405.0,810.0,135.0,270.0,675.0,540.0,gray,circle
0.0,8.0,4.0,1.0,7.0,2.0,855.7460239999273,2.0,1.0,phase_3,,,,,135.0,1.0,270.0,135.0,810.0,405.0,675.0,540.0,gray,circle
0.0,1.0,0.5,0.0,7.0,5.0,835.5093670006681,2.0,1.0,phase_3,,,,,960.0,5.0,192.0,1152.0,384.0,768.0,960.0,576.0,blue,flipped triangle
0.0,3.0,2.0,0.0,7.0,2.0,1428.3698950002872,2.0,1.0,phase_3,,,,,768.0,4.0,384.0,768.0,192.0,960.0,1152.0,576.0,green,square
0.0,7.0,2.0,1.0,7.0,3.0,1891.862898999534,2.0,1.0,phase_3,,,,,924.0,6.0,462.0,616.0,924.0,770.0,308.0,154.0,white,diamond
0.0,2.0,1.0,0.0,7.0,5.0,900.2886809994379,2.0,1.0,phase_3,,,,,768.0,4.0,192.0,384.0,576.0,960.0,768.0,1152.0,yellow,hexagon
0.0,3.0,2.0,0.0,7.0,2.0,936.8917949996104,2.0,1.0,phase_3,,,,,696.0,6.0,464.0,696.0,580.0,116.0,348.0,232.0,green,square
0.0,2.0,1.0,0.0,7.0,5.0,1075.1382910002576,2.0,1.0,phase_3,,,,,696.0,6.0,232.0,580.0,464.0,116.0,696.0,348.0,yellow,hexagon
0.0,5.0,0.5,1.0,7.0,2.0,1641.47359800063,2.0,1.0,phase_3,,,,,540.0,4.0,405.0,540.0,810.0,270.0,135.0,675.0,magenta,triangle
0.0,7.0,2.0,1.0,7.0,5.0,1914.8198880002385,2.0,1.0,phase_3,,,,,173.0,1.0,865.0,692.0,1038.0,519.0,173.0,346.0,white,diamond
0.0,1.0,0.5,0.0,7.0,1.0,1891.9450690000303,2.0,1.0,phase_3,,,,,519.0,3.0,519.0,173.0,865.0,692.0,1038.0,346.0,blue,flipped triangle
0.0,2.0,1.0,0.0,7.0,3.0,1741.4824080005928,2.0,1.0,phase_3,,,,,960.0,5.0,576.0,384.0,960.0,768.0,192.0,1152.0,yellow,hexagon
0.0,6.0,1.0,1.0,7.0,5.0,1328.4761009999784,2.0,1.0,phase_3,,,,,616.0,4.0,154.0,924.0,462.0,770.0,616.0,308.0,cyan,cross
0.0,6.0,1.0,1.0,7.0,6.0,1631.4716719998614,2.0,1.0,phase_3,,,,,696.0,6.0,232.0,464.0,116.0,348.0,580.0,696.0,cyan,cross
0.0,3.0,2.0,0.0,7.0,4.0,2110.192630000711,2.0,1.0,phase_3,,,,,462.0,3.0,616.0,924.0,154.0,462.0,308.0,770.0,green,square
0.0,1.0,0.5,0.0,7.0,2.0,1372.3190620003152,2.0,1.0,phase_3,,,,,580.0,5.0,464.0,580.0,116.0,696.0,348.0,232.0,blue,flipped triangle
0.0,5.0,0.5,1.0,7.0,5.0,1380.77172300018,2.0,1.0,phase_3,,,,,675.0,5.0,540.0,810.0,135.0,270.0,675.0,405.0,magenta,triangle
0.0,2.0,1.0,0.0,7.0,6.0,1372.6955610000005,2.0,1.0,phase_3,,,,,810.0,6.0,540.0,135.0,405.0,270.0,675.0,810.0,yellow,hexagon
0.0,2.0,1.0,0.0,7.0,2.0,1512.7446260003126,2.0,1.0,phase_3,,,,,696.0,6.0,348.0,696.0,116.0,232.0,464.0,580.0,yellow,hexagon
0.0,6.0,1.0,1.0,7.0,2.0,2365.849998000158,2.0,1.0,phase_3,,,,,1038.0,6.0,692.0,1038.0,865.0,519.0,173.0,346.0,cyan,cross
0.0,3.0,2.0,0.0,7.0,4.0,1288.799678000032,2.0,1.0,phase_3,,,,,464.0,4.0,580.0,348.0,696.0,464.0,232.0,116.0,green,square
0.0,1.0,0.5,0.0,7.0,2.0,910.4743839998264,3.0,1.0,phase_3,,,,,405.0,3.0,270.0,405.0,675.0,540.0,135.0,810.0,blue,flipped triangle
0.0,4.0,4.0,0.0,7.0,1.0,1545.5459249997148,3.0,1.0,phase_3,,,,,924.0,6.0,924.0,462.0,308.0,616.0,770.0,154.0,orange,I
0.0,1.0,0.5,0.0,7.0,3.0,1458.2119770002464,3.0,1.0,phase_3,,,,,770.0,5.0,154.0,924.0,770.0,462.0,308.0,616.0,blue,flipped triangle
0.0,3.0,2.0,0.0,7.0,5.0,1740.67768399982,3.0,1.0,phase_3,,,,,173.0,1.0,1038.0,519.0,692.0,346.0,173.0,865.0,green,square
0.0,6.0,1.0,1.0,7.0,5.0,2667.300312999941,3.0,1.0,phase_3,,,,,116.0,1.0,464.0,348.0,232.0,580.0,116.0,696.0,cyan,cross
0.0,2.0,1.0,0.0,7.0,2.0,2678.929347000121,3.0,1.0,phase_3,,,,,865.0,5.0,692.0,865.0,173.0,519.0,346.0,1038.0,yellow,hexagon
0.0,1.0,0.5,0.0,7.0,4.0,1701.82008699976,3.0,1.0,phase_3,,,,,696.0,6.0,580.0,464.0,232.0,696.0,348.0,116.0,blue,flipped triangle
0.0,8.0,4.0,1.0,7.0,6.0,2060.8619229997203,3.0,1.0,phase_3,,,,,192.0,1.0,768.0,960.0,384.0,576.0,1152.0,192.0,gray,circle
0.0,7.0,2.0,1.0,7.0,2.0,1430.449079999562,3.0,1.0,phase_3,,,,,348.0,3.0,116.0,348.0,696.0,580.0,232.0,464.0,white,diamond
0.0,7.0,2.0,1.0,7.0,1.0,1362.4330129996451,3.0,1.0,phase_3,,,,,810.0,6.0,810.0,135.0,270.0,675.0,405.0,540.0,white,diamond
0.0,5.0,0.5,1.0,7.0,5.0,1204.4768759997169,3.0,1.0,phase_3,,,,,1152.0,6.0,960.0,576.0,768.0,192.0,1152.0,384.0,magenta,triangle
0.0,7.0,2.0,1.0,7.0,6.0,1937.6321270001424,3.0,1.0,phase_3,,,,,576.0,3.0,384.0,1152.0,768.0,960.0,192.0,576.0,white,diamond
0.0,3.0,2.0,0.0,7.0,4.0,1919.002214000102,3.0,1.0,phase_3,,,,,675.0,5.0,810.0,405.0,540.0,675.0,135.0,270.0,green,square
0.0,3.0,2.0,0.0,7.0,3.0,1733.899501000451,3.0,1.0,phase_3,,,,,770.0,5.0,154.0,462.0,770.0,616.0,308.0,924.0,green,square
0.0,6.0,1.0,1.0,7.0,4.0,1528.0027110002266,3.0,1.0,phase_3,,,,,1038.0,6.0,346.0,519.0,865.0,1038.0,173.0,692.0,cyan,cross
0.0,5.0,0.5,1.0,7.0,2.0,1341.6991260000939,3.0,1.0,phase_3,,,,,154.0,1.0,924.0,154.0,770.0,462.0,308.0,616.0,magenta,triangle
0.0,3.0,2.0,0.0,7.0,3.0,1851.372127999639,3.0,1.0,phase_3,,,,,1152.0,6.0,192.0,576.0,1152.0,960.0,768.0,384.0,green,square
0.0,8.0,4.0,1.0,7.0,2.0,2530.5040889998054,3.0,1.0,phase_3,,,,,580.0,5.0,348.0,580.0,696.0,232.0,464.0,116.0,gray,circle
0.0,4.0,4.0,0.0,7.0,5.0,1474.4406929994511,3.0,1.0,phase_3,,,,,1152.0,6.0,384.0,960.0,192.0,768.0,1152.0,576.0,orange,I
0.0,2.0,1.0,0.0,7.0,4.0,1638.1574669994734,3.0,1.0,phase_3,,,,,770.0,5.0,308.0,154.0,616.0,770.0,462.0,924.0,yellow,hexagon
0.0,8.0,4.0,1.0,7.0,6.0,2079.877998000484,4.0,1.0,phase_3,,,,,960.0,5.0,768.0,192.0,1152.0,576.0,384.0,960.0,gray,circle
0.0,8.0,4.0,1.0,7.0,2.0,944.8341890001756,4.0,1.0,phase_3,,,,,308.0,2.0,770.0,308.0,616.0,924.0,154.0,462.0,gray,circle
0.0,5.0,0.5,1.0,7.0,6.0,2177.582688999792,4.0,1.0,phase_3,,,,,924.0,6.0,308.0,616.0,770.0,154.0,462.0,924.0,magenta,triangle
0.0,7.0,2.0,1.0,7.0,5.0,972.8157389999978,4.0,1.0,phase_3,,,,,154.0,1.0,924.0,616.0,770.0,462.0,154.0,308.0,white,diamond
0.0,4.0,4.0,0.0,7.0,3.0,2065.2440359999678,4.0,1.0,phase_3,,,,,1038.0,6.0,519.0,865.0,1038.0,346.0,173.0,692.0,orange,I
0.0,4.0,4.0,0.0,7.0,6.0,1812.614637000479,4.0,1.0,phase_3,,,,,1152.0,6.0,768.0,192.0,384.0,576.0,960.0,1152.0,orange,I
0.0,8.0,4.0,1.0,7.0,4.0,1814.9079029999484,4.0,1.0,phase_3,,,,,173.0,1.0,1038.0,519.0,346.0,173.0,692.0,865.0,gray,circle
0.0,2.0,1.0,0.0,7.0,5.0,2352.836345000469,4.0,1.0,phase_3,,,,,692.0,4.0,346.0,519.0,173.0,865.0,692.0,1038.0,yellow,hexagon
0.0,2.0,1.0,0.0,7.0,2.0,1305.4851429997143,4.0,1.0,phase_3,,,,,675.0,5.0,135.0,675.0,540.0,810.0,405.0,270.0,yellow,hexagon
0.0,8.0,4.0,1.0,7.0,5.0,1817.716783999458,4.0,1.0,phase_3,,,,,116.0,1.0,696.0,580.0,348.0,232.0,116.0,464.0,gray,circle
0.0,6.0,1.0,1.0,7.0,6.0,1947.091424000064,4.0,1.0,phase_3,,,,,576.0,3.0,384.0,960.0,768.0,1152.0,192.0,576.0,cyan,cross
0.0,6.0,1.0,1.0,7.0,2.0,1723.2623319996492,4.0,1.0,phase_3,,,,,810.0,6.0,675.0,810.0,135.0,405.0,270.0,540.0,cyan,cross
0.0,6.0,1.0,1.0,7.0,2.0,2579.382316000192,4.0,1.0,phase_3,,,,,768.0,4.0,960.0,768.0,384.0,192.0,576.0,1152.0,cyan,cross
0.0,1.0,0.5,0.0,7.0,5.0,2435.3032180006267,4.0,1.0,phase_3,,,,,346.0,2.0,173.0,519.0,692.0,865.0,346.0,1038.0,blue,flipped triangle
0.0,4.0,4.0,0.0,7.0,1.0,2231.858294000631,4.0,1.0,phase_3,,,,,924.0,6.0,924.0,462.0,154.0,616.0,770.0,308.0,orange,I
0.0,5.0,0.5,1.0,7.0,2.0,2140.345353000157,4.0,1.0,phase_3,,,,,865.0,5.0,519.0,865.0,1038.0,173.0,346.0,692.0,magenta,triangle
0.0,5.0,0.5,1.0,7.0,6.0,1823.3206750001043,4.0,1.0,phase_3,,,,,1152.0,6.0,768.0,960.0,384.0,192.0,576.0,1152.0,magenta,triangle
0.0,4.0,4.0,0.0,7.0,3.0,2854.827131000093,4.0,1.0,phase_3,,,,,696.0,6.0,232.0,580.0,696.0,348.0,464.0,116.0,orange,I
0.0,2.0,1.0,0.0,7.0,2.0,1995.0738540001112,4.0,1.0,phase_3,,,,,924.0,6.0,308.0,924.0,462.0,616.0,154.0,770.0,yellow,hexagon
0.0,1.0,0.5,0.0,7.0,5.0,1096.2133809998704,4.0,1.0,phase_3,,,,,308.0,2.0,154.0,924.0,462.0,616.0,308.0,770.0,blue,flipped triangle
