raw_reward_magnitude,stim_reward,stepwise_reward_magnitude,paired_with_stopping,stim_location,response,reaction_time,block,num_trial_presentations,which_phase,stop_signal_trial_type,left_SSD,right_SSD,accuracy,chosen_bidding_amount,chosen_bidding_level,possible_bid_1,possible_bid_2,possible_bid_3,possible_bid_4,possible_bid_5,possible_bid_6,color_text,shape_text
663.0,7.0,3.0,1.0,4.0,4.0,498.9367599991965,1.0,1.0,phase_1,,,,,,,,,,,,,cyan,circle
1300.0,4.0,4.0,0.0,2.0,2.0,379.9365909999324,1.0,1.0,phase_1,,,,,,,,,,,,,blue,diamond
646.0,3.0,3.0,0.0,2.0,2.0,333.8646720003453,1.0,1.0,phase_1,,,,,,,,,,,,,orange,flipped triangle
316.0,2.0,2.0,0.0,2.0,2.0,324.9430189989652,1.0,1.0,phase_1,,,,,,,,,,,,,green,cross
0.0,1.0,0.0,0.0,1.0,1.0,305.8091769999009,1.0,1.0,phase_1,,,,,,,,,,,,,magenta,hexagon
1311.0,8.0,4.0,1.0,2.0,2.0,278.4350870006165,1.0,1.0,phase_1,,,,,,,,,,,,,white,triangle
151.0,1.0,1.0,0.0,4.0,4.0,298.6443219997454,1.0,1.0,phase_1,,,,,,,,,,,,,magenta,hexagon
0.0,1.0,0.0,0.0,1.0,1.0,296.9872119992942,1.0,1.0,phase_1,,,,,,,,,,,,,magenta,hexagon
164.0,5.0,1.0,1.0,2.0,2.0,343.7726730007853,1.0,1.0,phase_1,,,,,,,,,,,,,yellow,I
314.0,6.0,2.0,1.0,2.0,2.0,306.6294740001467,1.0,1.0,phase_1,,,,,,,,,,,,,gray,square
0.0,7.0,0.0,1.0,3.0,3.0,370.8394320001389,1.0,2.0,phase_1,,,,,,,,,,,,,cyan,circle
675.0,3.0,3.0,0.0,2.0,2.0,342.595928999799,1.0,2.0,phase_1,,,,,,,,,,,,,orange,flipped triangle
659.0,3.0,3.0,0.0,2.0,2.0,305.3837259994907,1.0,1.0,phase_1,,,,,,,,,,,,,orange,flipped triangle
650.0,3.0,3.0,0.0,2.0,2.0,286.6815659999702,1.0,1.0,phase_1,,,,,,,,,,,,,orange,flipped triangle
0.0,5.0,0.0,1.0,1.0,1.0,360.9359029996994,1.0,1.0,phase_1,,,,,,,,,,,,,yellow,I
314.0,2.0,2.0,0.0,2.0,2.0,333.1553700008953,1.0,1.0,phase_1,,,,,,,,,,,,,green,cross
659.0,7.0,3.0,1.0,3.0,3.0,416.8119769983605,1.0,1.0,phase_1,,,,,,,,,,,,,cyan,circle
627.0,3.0,3.0,0.0,1.0,1.0,361.8145340005867,1.0,1.0,phase_1,,,,,,,,,,,,,orange,flipped triangle
0.0,6.0,0.0,1.0,1.0,1.0,388.5842660001799,1.0,1.0,phase_1,,,,,,,,,,,,,gray,square
142.0,5.0,1.0,1.0,3.0,3.0,370.5672500000219,1.0,1.0,phase_1,,,,,,,,,,,,,yellow,I
140.0,1.0,1.0,0.0,4.0,4.0,334.8145529998874,1.0,1.0,phase_1,,,,,,,,,,,,,magenta,hexagon
1304.0,8.0,4.0,1.0,2.0,2.0,296.4092590009386,1.0,1.0,phase_1,,,,,,,,,,,,,white,triangle
1300.0,8.0,4.0,1.0,2.0,2.0,314.5332429994596,1.0,1.0,phase_1,,,,,,,,,,,,,white,triangle
347.0,2.0,2.0,0.0,2.0,2.0,295.0186289999692,1.0,1.0,phase_1,,,,,,,,,,,,,green,cross
1314.0,8.0,4.0,1.0,3.0,3.0,344.275977999132,1.0,1.0,phase_1,,,,,,,,,,,,,white,triangle
1293.0,4.0,4.0,0.0,1.0,1.0,334.404094999627,1.0,1.0,phase_1,,,,,,,,,,,,,blue,diamond
140.0,1.0,1.0,0.0,4.0,4.0,315.2250789989921,1.0,1.0,phase_1,,,,,,,,,,,,,magenta,hexagon
325.0,2.0,2.0,0.0,1.0,1.0,341.8308809996233,1.0,1.0,phase_1,,,,,,,,,,,,,green,cross
0.0,8.0,0.0,1.0,4.0,4.0,333.1981640003505,1.0,1.0,phase_1,,,,,,,,,,,,,white,triangle
0.0,2.0,0.0,0.0,1.0,1.0,380.4811670015624,1.0,1.0,phase_1,,,,,,,,,,,,,green,cross
630.0,7.0,3.0,1.0,2.0,2.0,360.3859859995282,1.0,1.0,phase_1,,,,,,,,,,,,,cyan,circle
177.0,5.0,1.0,1.0,2.0,2.0,314.4334149983478,1.0,1.0,phase_1,,,,,,,,,,,,,yellow,I
0.0,7.0,0.0,1.0,2.0,2.0,342.0776229995681,1.0,2.0,phase_1,,,,,,,,,,,,,cyan,circle
158.0,5.0,1.0,1.0,4.0,4.0,379.61210499997827,1.0,1.0,phase_1,,,,,,,,,,,,,yellow,I
659.0,3.0,3.0,0.0,4.0,4.0,334.1378770001029,1.0,1.0,phase_1,,,,,,,,,,,,,orange,flipped triangle
161.0,1.0,1.0,0.0,1.0,1.0,325.2097740005411,1.0,1.0,phase_1,,,,,,,,,,,,,magenta,hexagon
627.0,7.0,3.0,1.0,2.0,2.0,380.1156810004613,1.0,1.0,phase_1,,,,,,,,,,,,,cyan,circle
303.0,2.0,2.0,0.0,3.0,3.0,343.8912460005667,1.0,1.0,phase_1,,,,,,,,,,,,,green,cross
158.0,1.0,1.0,0.0,1.0,1.0,306.4998320005543,1.0,1.0,phase_1,,,,,,,,,,,,,magenta,hexagon
657.0,7.0,3.0,1.0,2.0,2.0,296.3140550000389,1.0,1.0,phase_1,,,,,,,,,,,,,cyan,circle
161.0,1.0,1.0,0.0,2.0,2.0,333.731151999018,1.0,1.0,phase_1,,,,,,,,,,,,,magenta,hexagon
635.0,3.0,3.0,0.0,1.0,1.0,315.1988310000888,1.0,1.0,phase_1,,,,,,,,,,,,,orange,flipped triangle
186.0,1.0,1.0,0.0,2.0,2.0,324.5068669984903,1.0,1.0,phase_1,,,,,,,,,,,,,magenta,hexagon
0.0,1.0,0.0,0.0,1.0,1.0,286.1473510001815,1.0,1.0,phase_1,,,,,,,,,,,,,magenta,hexagon
1279.0,8.0,4.0,1.0,4.0,4.0,379.8210570002993,1.0,1.0,phase_1,,,,,,,,,,,,,white,triangle
1310.0,8.0,4.0,1.0,4.0,4.0,332.944043999305,1.0,1.0,phase_1,,,,,,,,,,,,,white,triangle
0.0,4.0,0.0,0.0,2.0,2.0,351.1911350014998,1.0,1.0,phase_1,,,,,,,,,,,,,blue,diamond
1283.0,4.0,4.0,0.0,1.0,1.0,314.4731159991352,1.0,1.0,phase_1,,,,,,,,,,,,,blue,diamond
152.0,1.0,1.0,0.0,4.0,4.0,379.5690820006712,1.0,1.0,phase_1,,,,,,,,,,,,,magenta,hexagon
0.0,2.0,0.0,0.0,3.0,3.0,461.442639998495,1.0,1.0,phase_1,,,,,,,,,,,,,green,cross
640.0,3.0,3.0,0.0,1.0,1.0,351.1328770000546,1.0,1.0,phase_1,,,,,,,,,,,,,orange,flipped triangle
340.0,2.0,2.0,0.0,4.0,4.0,323.8627219998307,1.0,1.0,phase_1,,,,,,,,,,,,,green,cross
153.0,5.0,1.0,1.0,4.0,4.0,453.3945630009839,1.0,1.0,phase_1,,,,,,,,,,,,,yellow,I
0.0,1.0,0.0,0.0,3.0,3.0,388.4240909992513,1.0,1.0,phase_1,,,,,,,,,,,,,magenta,hexagon
0.0,4.0,0.0,0.0,4.0,4.0,360.5659620006918,1.0,1.0,phase_1,,,,,,,,,,,,,blue,diamond
1288.0,8.0,4.0,1.0,2.0,2.0,351.2378019986499,1.0,1.0,phase_1,,,,,,,,,,,,,white,triangle
0.0,4.0,0.0,0.0,2.0,2.0,405.9855420000531,1.0,1.0,phase_1,,,,,,,,,,,,,blue,diamond
165.0,5.0,1.0,1.0,1.0,1.0,405.7788270001765,1.0,1.0,phase_1,,,,,,,,,,,,,yellow,I
671.0,7.0,3.0,1.0,2.0,2.0,342.2495499999058,1.0,1.0,phase_1,,,,,,,,,,,,,cyan,circle
349.0,6.0,2.0,1.0,1.0,1.0,370.526038999742,1.0,1.0,phase_1,,,,,,,,,,,,,gray,square
321.0,6.0,2.0,1.0,4.0,4.0,370.7614060003834,1.0,1.0,phase_1,,,,,,,,,,,,,gray,square
1278.0,8.0,4.0,1.0,3.0,3.0,389.0348269997048,1.0,1.0,phase_1,,,,,,,,,,,,,white,triangle
640.0,3.0,3.0,0.0,3.0,3.0,480.0869169994257,1.0,1.0,phase_1,,,,,,,,,,,,,orange,flipped triangle
670.0,3.0,3.0,0.0,1.0,1.0,442.6472459999786,1.0,1.0,phase_1,,,,,,,,,,,,,orange,flipped triangle
625.0,3.0,3.0,0.0,3.0,3.0,397.883854999236,1.0,1.0,phase_1,,,,,,,,,,,,,orange,flipped triangle
336.0,2.0,2.0,0.0,4.0,4.0,380.0013349991786,1.0,1.0,phase_1,,,,,,,,,,,,,green,cross
168.0,5.0,1.0,1.0,4.0,4.0,399.1715030006162,1.0,1.0,phase_1,,,,,,,,,,,,,yellow,I
0.0,8.0,0.0,1.0,3.0,3.0,360.9362379993399,1.0,1.0,phase_1,,,,,,,,,,,,,white,triangle
329.0,6.0,2.0,1.0,3.0,3.0,387.4166899986448,1.0,1.0,phase_1,,,,,,,,,,,,,gray,square
164.0,1.0,1.0,0.0,4.0,4.0,360.8778180005174,1.0,1.0,phase_1,,,,,,,,,,,,,magenta,hexagon
1310.0,4.0,4.0,0.0,4.0,4.0,314.2743059997883,1.0,1.0,phase_1,,,,,,,,,,,,,blue,diamond
304.0,6.0,2.0,1.0,4.0,4.0,331.7575140008557,1.0,1.0,phase_1,,,,,,,,,,,,,gray,square
664.0,7.0,3.0,1.0,4.0,4.0,341.7842979997658,1.0,1.0,phase_1,,,,,,,,,,,,,cyan,circle
1307.0,8.0,4.0,1.0,3.0,3.0,517.2552519998135,1.0,1.0,phase_1,,,,,,,,,,,,,white,triangle
309.0,2.0,2.0,0.0,4.0,4.0,368.7879959998099,1.0,1.0,phase_1,,,,,,,,,,,,,green,cross
152.0,5.0,1.0,1.0,1.0,1.0,369.4239110009221,1.0,1.0,phase_1,,,,,,,,,,,,,yellow,I
145.0,5.0,1.0,1.0,3.0,3.0,351.7814250008086,1.0,1.0,phase_1,,,,,,,,,,,,,yellow,I
637.0,7.0,3.0,1.0,3.0,3.0,489.3048840003757,1.0,1.0,phase_1,,,,,,,,,,,,,cyan,circle
667.0,7.0,3.0,1.0,4.0,4.0,416.6025330014236,1.0,1.0,phase_1,,,,,,,,,,,,,cyan,circle
314.0,2.0,2.0,0.0,1.0,1.0,371.643779999431,1.0,1.0,phase_1,,,,,,,,,,,,,green,cross
145.0,1.0,1.0,0.0,1.0,1.0,388.0494570003066,1.0,1.0,phase_1,,,,,,,,,,,,,magenta,hexagon
626.0,3.0,3.0,0.0,3.0,3.0,360.8801919999678,1.0,1.0,phase_1,,,,,,,,,,,,,orange,flipped triangle
0.0,2.0,0.0,0.0,4.0,4.0,352.4384819993429,1.0,1.0,phase_1,,,,,,,,,,,,,green,cross
675.0,7.0,3.0,1.0,1.0,1.0,323.3824069993716,1.0,1.0,phase_1,,,,,,,,,,,,,cyan,circle
1302.0,8.0,4.0,1.0,4.0,4.0,424.8184110001602,1.0,1.0,phase_1,,,,,,,,,,,,,white,triangle
0.0,3.0,0.0,0.0,4.0,4.0,378.0481039993901,1.0,1.0,phase_1,,,,,,,,,,,,,orange,flipped triangle
674.0,3.0,3.0,0.0,3.0,3.0,361.2977510001656,1.0,1.0,phase_1,,,,,,,,,,,,,orange,flipped triangle
309.0,2.0,2.0,0.0,1.0,1.0,332.6608179995673,1.0,1.0,phase_1,,,,,,,,,,,,,green,cross
0.0,5.0,0.0,1.0,2.0,2.0,471.5065279997361,1.0,1.0,phase_1,,,,,,,,,,,,,yellow,I
0.0,5.0,0.0,1.0,2.0,2.0,444.4028439993417,1.0,1.0,phase_1,,,,,,,,,,,,,yellow,I
1300.0,4.0,4.0,0.0,2.0,2.0,343.1327479993342,1.0,1.0,phase_1,,,,,,,,,,,,,blue,diamond
0.0,8.0,0.0,1.0,2.0,2.0,369.3225410006562,1.0,1.0,phase_1,,,,,,,,,,,,,white,triangle
1324.0,8.0,4.0,1.0,1.0,1.0,369.4332750001194,1.0,1.0,phase_1,,,,,,,,,,,,,white,triangle
663.0,3.0,3.0,0.0,2.0,2.0,361.1826460000884,1.0,1.0,phase_1,,,,,,,,,,,,,orange,flipped triangle
339.0,6.0,2.0,1.0,1.0,1.0,490.149855000709,1.0,1.0,phase_1,,,,,,,,,,,,,gray,square
325.0,6.0,2.0,1.0,4.0,4.0,526.5026130000479,1.0,1.0,phase_1,,,,,,,,,,,,,gray,square
0.0,3.0,0.0,0.0,1.0,1.0,462.3318339999969,1.0,1.0,phase_1,,,,,,,,,,,,,orange,flipped triangle
1305.0,4.0,4.0,0.0,1.0,1.0,407.0915579995926,1.0,1.0,phase_1,,,,,,,,,,,,,blue,diamond
168.0,1.0,1.0,0.0,3.0,3.0,407.2031019986752,1.0,1.0,phase_1,,,,,,,,,,,,,magenta,hexagon
314.0,2.0,2.0,0.0,1.0,1.0,695.1538989997061,1.0,1.0,phase_1,,,,,,,,,,,,,green,cross
349.0,2.0,2.0,0.0,2.0,2.0,444.1837630001828,2.0,1.0,phase_1,,,,,,,,,,,,,green,cross
1306.0,4.0,4.0,0.0,3.0,3.0,370.4389270005777,2.0,1.0,phase_1,,,,,,,,,,,,,blue,diamond
178.0,5.0,1.0,1.0,4.0,4.0,370.4174049998983,2.0,1.0,phase_1,,,,,,,,,,,,,yellow,I
156.0,5.0,1.0,1.0,1.0,1.0,341.1672940001153,2.0,1.0,phase_1,,,,,,,,,,,,,yellow,I
0.0,5.0,0.0,1.0,1.0,1.0,389.5436060010979,2.0,1.0,phase_1,,,,,,,,,,,,,yellow,I
175.0,1.0,1.0,0.0,3.0,3.0,379.3352669999876,2.0,1.0,phase_1,,,,,,,,,,,,,magenta,hexagon
1308.0,8.0,4.0,1.0,1.0,1.0,369.7377270000288,2.0,1.0,phase_1,,,,,,,,,,,,,white,triangle
1316.0,8.0,4.0,1.0,2.0,2.0,537.7984110000398,2.0,1.0,phase_1,,,,,,,,,,,,,white,triangle
0.0,5.0,0.0,1.0,2.0,2.0,370.399379000446,2.0,1.0,phase_1,,,,,,,,,,,,,yellow,I
316.0,2.0,2.0,0.0,2.0,2.0,324.0861909998784,2.0,1.0,phase_1,,,,,,,,,,,,,green,cross
327.0,6.0,2.0,1.0,3.0,3.0,379.4510900006571,2.0,1.0,phase_1,,,,,,,,,,,,,gray,square
306.0,6.0,2.0,1.0,2.0,2.0,352.4410390000412,2.0,1.0,phase_1,,,,,,,,,,,,,gray,square
671.0,3.0,3.0,0.0,4.0,4.0,445.5598129989084,2.0,1.0,phase_1,,,,,,,,,,,,,orange,flipped triangle
1293.0,8.0,4.0,1.0,1.0,1.0,379.7229129995685,2.0,1.0,phase_1,,,,,,,,,,,,,white,triangle
341.0,2.0,2.0,0.0,4.0,4.0,407.1714960009558,2.0,1.0,phase_1,,,,,,,,,,,,,green,cross
150.0,1.0,1.0,0.0,4.0,4.0,462.9878720006672,2.0,1.0,phase_1,,,,,,,,,,,,,magenta,hexagon
166.0,5.0,1.0,1.0,1.0,1.0,389.0374830007204,2.0,1.0,phase_1,,,,,,,,,,,,,yellow,I
173.0,1.0,1.0,0.0,2.0,2.0,399.5390919990313,2.0,1.0,phase_1,,,,,,,,,,,,,magenta,hexagon
346.0,6.0,2.0,1.0,4.0,4.0,399.5644550013821,2.0,1.0,phase_1,,,,,,,,,,,,,gray,square
1283.0,8.0,4.0,1.0,1.0,1.0,362.0060470002499,2.0,1.0,phase_1,,,,,,,,,,,,,white,triangle
643.0,3.0,3.0,0.0,3.0,3.0,370.0929450005787,2.0,1.0,phase_1,,,,,,,,,,,,,orange,flipped triangle
667.0,3.0,3.0,0.0,4.0,4.0,315.0493289995211,2.0,1.0,phase_1,,,,,,,,,,,,,orange,flipped triangle
1302.0,4.0,4.0,0.0,3.0,3.0,399.9233579997963,2.0,1.0,phase_1,,,,,,,,,,,,,blue,diamond
1285.0,8.0,4.0,1.0,3.0,3.0,452.734081998642,2.0,1.0,phase_1,,,,,,,,,,,,,white,triangle
1291.0,8.0,4.0,1.0,4.0,4.0,361.8202359994029,2.0,1.0,phase_1,,,,,,,,,,,,,white,triangle
148.0,1.0,1.0,0.0,3.0,3.0,323.7286489984399,2.0,1.0,phase_1,,,,,,,,,,,,,magenta,hexagon
303.0,6.0,2.0,1.0,4.0,4.0,480.2453280008194,2.0,1.0,phase_1,,,,,,,,,,,,,gray,square
148.0,5.0,1.0,1.0,2.0,2.0,435.1356030001625,2.0,1.0,phase_1,,,,,,,,,,,,,yellow,I
340.0,6.0,2.0,1.0,1.0,1.0,342.8262130000803,2.0,1.0,phase_1,,,,,,,,,,,,,gray,square
336.0,6.0,2.0,1.0,3.0,3.0,389.2789479996281,2.0,1.0,phase_1,,,,,,,,,,,,,gray,square
156.0,1.0,1.0,0.0,2.0,2.0,433.3099859995855,2.0,1.0,phase_1,,,,,,,,,,,,,magenta,hexagon
1288.0,8.0,4.0,1.0,1.0,1.0,360.2018429992313,2.0,1.0,phase_1,,,,,,,,,,,,,white,triangle
626.0,7.0,3.0,1.0,3.0,3.0,499.257519000821,2.0,1.0,phase_1,,,,,,,,,,,,,cyan,circle
146.0,5.0,1.0,1.0,4.0,4.0,414.8032600005535,2.0,1.0,phase_1,,,,,,,,,,,,,yellow,I
667.0,3.0,3.0,0.0,3.0,3.0,360.4578449994733,2.0,1.0,phase_1,,,,,,,,,,,,,orange,flipped triangle
1312.0,4.0,4.0,0.0,4.0,4.0,583.4010599992325,2.0,1.0,phase_1,,,,,,,,,,,,,blue,diamond
184.0,1.0,1.0,0.0,3.0,3.0,556.4048090000142,2.0,1.0,phase_1,,,,,,,,,,,,,magenta,hexagon
171.0,5.0,1.0,1.0,2.0,2.0,350.1674589988397,2.0,1.0,phase_1,,,,,,,,,,,,,yellow,I
1324.0,4.0,4.0,0.0,4.0,4.0,398.087781999493,2.0,1.0,phase_1,,,,,,,,,,,,,blue,diamond
1291.0,8.0,4.0,1.0,2.0,2.0,379.8616440017213,2.0,1.0,phase_1,,,,,,,,,,,,,white,triangle
670.0,7.0,3.0,1.0,1.0,1.0,370.0857090007048,2.0,1.0,phase_1,,,,,,,,,,,,,cyan,circle
329.0,2.0,2.0,0.0,3.0,3.0,379.5719730005658,2.0,1.0,phase_1,,,,,,,,,,,,,green,cross
0.0,3.0,0.0,0.0,2.0,2.0,350.2591840006062,2.0,1.0,phase_1,,,,,,,,,,,,,orange,flipped triangle
0.0,3.0,0.0,0.0,3.0,3.0,369.5394009992014,2.0,1.0,phase_1,,,,,,,,,,,,,orange,flipped triangle
0.0,3.0,0.0,0.0,4.0,4.0,379.0140460005204,2.0,1.0,phase_1,,,,,,,,,,,,,orange,flipped triangle
313.0,2.0,2.0,0.0,4.0,4.0,408.0136729990045,2.0,1.0,phase_1,,,,,,,,,,,,,green,cross
651.0,7.0,3.0,1.0,1.0,1.0,618.8619509994169,2.0,1.0,phase_1,,,,,,,,,,,,,cyan,circle
329.0,2.0,2.0,0.0,1.0,1.0,389.5352979998279,2.0,1.0,phase_1,,,,,,,,,,,,,green,cross
638.0,7.0,3.0,1.0,1.0,1.0,379.1439149990765,2.0,1.0,phase_1,,,,,,,,,,,,,cyan,circle
0.0,4.0,0.0,0.0,2.0,2.0,553.5303999986354,2.0,1.0,phase_1,,,,,,,,,,,,,blue,diamond
1300.0,8.0,4.0,1.0,4.0,4.0,388.2009039989498,2.0,1.0,phase_1,,,,,,,,,,,,,white,triangle
0.0,7.0,0.0,1.0,2.0,2.0,342.1875000003638,2.0,1.0,phase_1,,,,,,,,,,,,,cyan,circle
670.0,7.0,3.0,1.0,4.0,4.0,528.1775659987034,2.0,1.0,phase_1,,,,,,,,,,,,,cyan,circle
178.0,1.0,1.0,0.0,3.0,3.0,424.6742329996777,2.0,1.0,phase_1,,,,,,,,,,,,,magenta,hexagon
643.0,3.0,3.0,0.0,4.0,4.0,379.5829280006728,2.0,1.0,phase_1,,,,,,,,,,,,,orange,flipped triangle
304.0,6.0,2.0,1.0,2.0,2.0,359.5844430001307,2.0,1.0,phase_1,,,,,,,,,,,,,gray,square
1316.0,4.0,4.0,0.0,2.0,2.0,350.3687289994559,2.0,1.0,phase_1,,,,,,,,,,,,,blue,diamond
1314.0,4.0,4.0,0.0,4.0,4.0,342.3835240009794,2.0,1.0,phase_1,,,,,,,,,,,,,blue,diamond
342.0,6.0,2.0,1.0,2.0,2.0,378.3311410006718,2.0,1.0,phase_1,,,,,,,,,,,,,gray,square
0.0,1.0,0.0,0.0,1.0,1.0,406.6933610010892,2.0,1.0,phase_1,,,,,,,,,,,,,magenta,hexagon
343.0,6.0,2.0,1.0,3.0,3.0,499.2316759999085,2.0,1.0,phase_1,,,,,,,,,,,,,gray,square
645.0,3.0,3.0,0.0,4.0,4.0,452.5987940014602,2.0,1.0,phase_1,,,,,,,,,,,,,orange,flipped triangle
0.0,5.0,0.0,1.0,4.0,4.0,370.5353370005468,2.0,1.0,phase_1,,,,,,,,,,,,,yellow,I
0.0,4.0,0.0,0.0,3.0,3.0,470.5648259987356,2.0,1.0,phase_1,,,,,,,,,,,,,blue,diamond
310.0,6.0,2.0,1.0,4.0,4.0,406.4364149999164,2.0,1.0,phase_1,,,,,,,,,,,,,gray,square
316.0,6.0,2.0,1.0,1.0,1.0,509.71730000128446,2.0,1.0,phase_1,,,,,,,,,,,,,gray,square
346.0,2.0,2.0,0.0,2.0,2.0,370.7778019997931,2.0,1.0,phase_1,,,,,,,,,,,,,green,cross
0.0,6.0,0.0,1.0,1.0,1.0,539.3130100001144,2.0,1.0,phase_1,,,,,,,,,,,,,gray,square
329.0,2.0,2.0,0.0,4.0,4.0,350.0836479997815,2.0,1.0,phase_1,,,,,,,,,,,,,green,cross
0.0,5.0,0.0,1.0,4.0,4.0,415.1976110006217,2.0,1.0,phase_1,,,,,,,,,,,,,yellow,I
139.0,1.0,1.0,0.0,1.0,1.0,397.9049540012056,2.0,1.0,phase_1,,,,,,,,,,,,,magenta,hexagon
146.0,1.0,1.0,0.0,2.0,2.0,369.3978419996711,2.0,1.0,phase_1,,,,,,,,,,,,,magenta,hexagon
314.0,6.0,2.0,1.0,1.0,1.0,555.2250580003601,2.0,1.0,phase_1,,,,,,,,,,,,,gray,square
0.0,7.0,0.0,1.0,3.0,3.0,425.3322620006656,2.0,1.0,phase_1,,,,,,,,,,,,,cyan,circle
165.0,1.0,1.0,0.0,1.0,1.0,519.6742980006093,2.0,1.0,phase_1,,,,,,,,,,,,,magenta,hexagon
172.0,5.0,1.0,1.0,2.0,2.0,426.6539829986868,2.0,1.0,phase_1,,,,,,,,,,,,,yellow,I
1296.0,4.0,4.0,0.0,3.0,3.0,398.6407909997069,2.0,1.0,phase_1,,,,,,,,,,,,,blue,diamond
342.0,2.0,2.0,0.0,3.0,3.0,343.5597909992793,2.0,1.0,phase_1,,,,,,,,,,,,,green,cross
658.0,3.0,3.0,0.0,2.0,2.0,379.917344000205,2.0,1.0,phase_1,,,,,,,,,,,,,orange,flipped triangle
0.0,5.0,0.0,1.0,4.0,4.0,408.0836179982725,2.0,1.0,phase_1,,,,,,,,,,,,,yellow,I
321.0,2.0,2.0,0.0,4.0,4.0,333.3441059985489,2.0,1.0,phase_1,,,,,,,,,,,,,green,cross
156.0,1.0,1.0,0.0,2.0,2.0,343.3438570009457,2.0,1.0,phase_1,,,,,,,,,,,,,magenta,hexagon
0.0,5.0,0.0,1.0,2.0,2.0,315.7503649999853,2.0,1.0,phase_1,,,,,,,,,,,,,yellow,I
659.0,7.0,3.0,1.0,1.0,1.0,342.9555860002438,2.0,1.0,phase_1,,,,,,,,,,,,,cyan,circle
628.0,3.0,3.0,0.0,2.0,2.0,305.3915529999358,2.0,1.0,phase_1,,,,,,,,,,,,,orange,flipped triangle
638.0,3.0,3.0,0.0,1.0,1.0,351.9651660008094,2.0,1.0,phase_1,,,,,,,,,,,,,orange,flipped triangle
332.0,2.0,2.0,0.0,3.0,3.0,397.0295069993881,2.0,1.0,phase_1,,,,,,,,,,,,,green,cross
664.0,3.0,3.0,0.0,2.0,2.0,370.2994659997785,2.0,1.0,phase_1,,,,,,,,,,,,,orange,flipped triangle
625.0,7.0,3.0,1.0,2.0,2.0,324.6938490010507,2.0,1.0,phase_1,,,,,,,,,,,,,cyan,circle
1277.0,8.0,4.0,1.0,2.0,2.0,333.3964430003107,2.0,1.0,phase_1,,,,,,,,,,,,,white,triangle
1316.0,8.0,4.0,1.0,3.0,3.0,500.3898939994542,2.0,1.0,phase_1,,,,,,,,,,,,,white,triangle
663.0,3.0,3.0,0.0,1.0,1.0,361.3472870001715,2.0,1.0,phase_1,,,,,,,,,,,,,orange,flipped triangle
0.0,6.0,0.0,1.0,2.0,2.0,471.3502239992522,2.0,1.0,phase_1,,,,,,,,,,,,,gray,square
661.0,3.0,3.0,0.0,1.0,1.0,436.5591420009878,2.0,1.0,phase_1,,,,,,,,,,,,,orange,flipped triangle
0.0,3.0,0.0,0.0,3.0,3.0,399.6581829997012,2.0,1.0,phase_1,,,,,,,,,,,,,orange,flipped triangle
1307.0,8.0,4.0,1.0,4.0,4.0,471.8855549999716,2.0,1.0,phase_1,,,,,,,,,,,,,white,triangle
316.0,6.0,2.0,1.0,3.0,3.0,434.795226999995,2.0,1.0,phase_1,,,,,,,,,,,,,gray,square
0.0,3.0,0.0,0.0,2.0,2.0,342.2543050000968,2.0,1.0,phase_1,,,,,,,,,,,,,orange,flipped triangle
332.0,2.0,2.0,0.0,3.0,3.0,398.4992540008534,2.0,1.0,phase_1,,,,,,,,,,,,,green,cross
675.0,3.0,3.0,0.0,1.0,1.0,425.0011010008165,2.0,1.0,phase_1,,,,,,,,,,,,,orange,flipped triangle
342.0,6.0,2.0,1.0,3.0,3.0,426.2921469999128,3.0,1.0,phase_1,,,,,,,,,,,,,gray,square
1309.0,4.0,4.0,0.0,3.0,3.0,323.3575280009972,3.0,1.0,phase_1,,,,,,,,,,,,,blue,diamond
0.0,6.0,0.0,1.0,4.0,4.0,620.402524000383,3.0,1.0,phase_1,,,,,,,,,,,,,gray,square
150.0,5.0,1.0,1.0,1.0,1.0,528.1926389998262,3.0,1.0,phase_1,,,,,,,,,,,,,yellow,I
628.0,7.0,3.0,1.0,4.0,4.0,382.5225040000077,3.0,1.0,phase_1,,,,,,,,,,,,,cyan,circle
0.0,7.0,0.0,1.0,4.0,4.0,353.1748210007208,3.0,1.0,phase_1,,,,,,,,,,,,,cyan,circle
651.0,3.0,3.0,0.0,4.0,4.0,333.2198819989571,3.0,1.0,phase_1,,,,,,,,,,,,,orange,flipped triangle
1276.0,4.0,4.0,0.0,4.0,4.0,334.0969639994,3.0,1.0,phase_1,,,,,,,,,,,,,blue,diamond
342.0,2.0,2.0,0.0,3.0,3.0,352.661334000004,3.0,1.0,phase_1,,,,,,,,,,,,,green,cross
1277.0,8.0,4.0,1.0,2.0,2.0,351.5460569997231,3.0,1.0,phase_1,,,,,,,,,,,,,white,triangle
186.0,5.0,1.0,1.0,4.0,4.0,361.7051359997276,3.0,1.0,phase_1,,,,,,,,,,,,,yellow,I
332.0,6.0,2.0,1.0,1.0,1.0,351.8902699997852,3.0,1.0,phase_1,,,,,,,,,,,,,gray,square
661.0,7.0,3.0,1.0,2.0,2.0,491.0494430005201,3.0,1.0,phase_1,,,,,,,,,,,,,cyan,circle
161.0,5.0,1.0,1.0,3.0,3.0,389.1797150008642,3.0,1.0,phase_1,,,,,,,,,,,,,yellow,I
0.0,2.0,0.0,0.0,3.0,3.0,445.6578999997873,3.0,1.0,phase_1,,,,,,,,,,,,,green,cross
323.0,6.0,2.0,1.0,2.0,2.0,528.2558759990934,3.0,1.0,phase_1,,,,,,,,,,,,,gray,square
316.0,6.0,2.0,1.0,2.0,2.0,370.827927999926,3.0,1.0,phase_1,,,,,,,,,,,,,gray,square
1307.0,4.0,4.0,0.0,3.0,3.0,389.83799000016,3.0,1.0,phase_1,,,,,,,,,,,,,blue,diamond
645.0,7.0,3.0,1.0,1.0,1.0,398.1866609992721,3.0,1.0,phase_1,,,,,,,,,,,,,cyan,circle
152.0,1.0,1.0,0.0,3.0,3.0,446.8125949988462,3.0,1.0,phase_1,,,,,,,,,,,,,magenta,hexagon
142.0,1.0,1.0,0.0,1.0,1.0,405.7098829998722,3.0,1.0,phase_1,,,,,,,,,,,,,magenta,hexagon
175.0,5.0,1.0,1.0,3.0,3.0,415.0113280011283,3.0,1.0,phase_1,,,,,,,,,,,,,yellow,I
1278.0,4.0,4.0,0.0,3.0,3.0,500.16457499987155,3.0,1.0,phase_1,,,,,,,,,,,,,blue,diamond
1300.0,8.0,4.0,1.0,3.0,3.0,360.4380220003804,3.0,1.0,phase_1,,,,,,,,,,,,,white,triangle
306.0,2.0,2.0,0.0,1.0,1.0,351.434670999879,3.0,1.0,phase_1,,,,,,,,,,,,,green,cross
652.0,3.0,3.0,0.0,3.0,3.0,352.1767849997559,3.0,1.0,phase_1,,,,,,,,,,,,,orange,flipped triangle
0.0,1.0,0.0,0.0,2.0,2.0,435.3726919998735,3.0,1.0,phase_1,,,,,,,,,,,,,magenta,hexagon
152.0,5.0,1.0,1.0,2.0,2.0,657.2609470003954,3.0,1.0,phase_1,,,,,,,,,,,,,yellow,I
330.0,2.0,2.0,0.0,4.0,4.0,462.4995590002072,3.0,1.0,phase_1,,,,,,,,,,,,,green,cross
0.0,1.0,0.0,0.0,2.0,2.0,324.035173998709,3.0,1.0,phase_1,,,,,,,,,,,,,magenta,hexagon
316.0,2.0,2.0,0.0,1.0,1.0,352.3424420000083,3.0,1.0,phase_1,,,,,,,,,,,,,green,cross
1288.0,4.0,4.0,0.0,2.0,2.0,314.1779729994596,3.0,1.0,phase_1,,,,,,,,,,,,,blue,diamond
329.0,6.0,2.0,1.0,2.0,2.0,351.203569000063,3.0,1.0,phase_1,,,,,,,,,,,,,gray,square
628.0,3.0,3.0,0.0,4.0,4.0,378.6697659998026,3.0,1.0,phase_1,,,,,,,,,,,,,orange,flipped triangle
184.0,5.0,1.0,1.0,1.0,1.0,407.0740659990406,3.0,1.0,phase_1,,,,,,,,,,,,,yellow,I
0.0,1.0,0.0,0.0,1.0,1.0,361.6052659999695,3.0,1.0,phase_1,,,,,,,,,,,,,magenta,hexagon
639.0,3.0,3.0,0.0,4.0,4.0,462.6640060014324,3.0,1.0,phase_1,,,,,,,,,,,,,orange,flipped triangle
1276.0,8.0,4.0,1.0,2.0,2.0,343.8183599992044,3.0,1.0,phase_1,,,,,,,,,,,,,white,triangle
167.0,5.0,1.0,1.0,1.0,1.0,343.1008449988439,3.0,1.0,phase_1,,,,,,,,,,,,,yellow,I
0.0,4.0,0.0,0.0,4.0,4.0,397.426676001487,3.0,1.0,phase_1,,,,,,,,,,,,,blue,diamond
139.0,5.0,1.0,1.0,4.0,4.0,360.3916980009671,3.0,1.0,phase_1,,,,,,,,,,,,,yellow,I
1298.0,4.0,4.0,0.0,3.0,3.0,396.3718169998174,3.0,1.0,phase_1,,,,,,,,,,,,,blue,diamond
1321.0,4.0,4.0,0.0,2.0,2.0,342.6664800008439,3.0,1.0,phase_1,,,,,,,,,,,,,blue,diamond
636.0,7.0,3.0,1.0,2.0,2.0,425.8983239997178,3.0,1.0,phase_1,,,,,,,,,,,,,cyan,circle
0.0,4.0,0.0,0.0,2.0,2.0,332.1630110003752,3.0,1.0,phase_1,,,,,,,,,,,,,blue,diamond
636.0,3.0,3.0,0.0,3.0,3.0,481.2260539983981,3.0,1.0,phase_1,,,,,,,,,,,,,orange,flipped triangle
310.0,2.0,2.0,0.0,3.0,3.0,452.9160339989175,3.0,1.0,phase_1,,,,,,,,,,,,,green,cross
314.0,6.0,2.0,1.0,4.0,4.0,434.8456719999376,3.0,1.0,phase_1,,,,,,,,,,,,,gray,square
0.0,8.0,0.0,1.0,1.0,1.0,591.345218999777,3.0,1.0,phase_1,,,,,,,,,,,,,white,triangle
178.0,1.0,1.0,0.0,2.0,2.0,351.3181870002881,3.0,1.0,phase_1,,,,,,,,,,,,,magenta,hexagon
1316.0,4.0,4.0,0.0,3.0,3.0,341.6079010003159,3.0,1.0,phase_1,,,,,,,,,,,,,blue,diamond
304.0,2.0,2.0,0.0,1.0,1.0,349.3923229998472,3.0,1.0,phase_1,,,,,,,,,,,,,green,cross
178.0,5.0,1.0,1.0,3.0,3.0,332.9196029990271,3.0,1.0,phase_1,,,,,,,,,,,,,yellow,I
329.0,6.0,2.0,1.0,3.0,3.0,322.9305000004387,3.0,1.0,phase_1,,,,,,,,,,,,,gray,square
0.0,2.0,0.0,0.0,3.0,3.0,313.1734489998052,3.0,1.0,phase_1,,,,,,,,,,,,,green,cross
324.0,2.0,2.0,0.0,4.0,4.0,387.7864919995772,3.0,1.0,phase_1,,,,,,,,,,,,,green,cross
170.0,1.0,1.0,0.0,4.0,4.0,342.7803650010901,3.0,1.0,phase_1,,,,,,,,,,,,,magenta,hexagon
1307.0,4.0,4.0,0.0,3.0,3.0,351.4140540009975,3.0,1.0,phase_1,,,,,,,,,,,,,blue,diamond
341.0,6.0,2.0,1.0,4.0,4.0,379.6601780013589,3.0,1.0,phase_1,,,,,,,,,,,,,gray,square
1324.0,4.0,4.0,0.0,4.0,4.0,370.2933590011525,3.0,1.0,phase_1,,,,,,,,,,,,,blue,diamond
0.0,4.0,0.0,0.0,3.0,3.0,360.7919469995977,3.0,1.0,phase_1,,,,,,,,,,,,,blue,diamond
1306.0,8.0,4.0,1.0,4.0,4.0,396.902365000642,3.0,1.0,phase_1,,,,,,,,,,,,,white,triangle
167.0,1.0,1.0,0.0,1.0,1.0,432.8473929999745,3.0,1.0,phase_1,,,,,,,,,,,,,magenta,hexagon
639.0,7.0,3.0,1.0,3.0,3.0,507.3255869992863,3.0,1.0,phase_1,,,,,,,,,,,,,cyan,circle
179.0,5.0,1.0,1.0,3.0,3.0,388.322283000889,3.0,1.0,phase_1,,,,,,,,,,,,,yellow,I
0.0,2.0,0.0,0.0,1.0,1.0,488.6627180003415,3.0,1.0,phase_1,,,,,,,,,,,,,green,cross
0.0,8.0,0.0,1.0,3.0,3.0,378.6076819997106,3.0,1.0,phase_1,,,,,,,,,,,,,white,triangle
186.0,1.0,1.0,0.0,3.0,3.0,396.709775999625,3.0,1.0,phase_1,,,,,,,,,,,,,magenta,hexagon
171.0,1.0,1.0,0.0,2.0,2.0,684.6314089998486,3.0,1.0,phase_1,,,,,,,,,,,,,magenta,hexagon
0.0,4.0,0.0,0.0,3.0,3.0,498.544268999467,3.0,1.0,phase_1,,,,,,,,,,,,,blue,diamond
0.0,1.0,0.0,0.0,1.0,1.0,359.8974609994911,3.0,1.0,phase_1,,,,,,,,,,,,,magenta,hexagon
316.0,6.0,2.0,1.0,2.0,2.0,370.4126920001727,3.0,1.0,phase_1,,,,,,,,,,,,,gray,square
1311.0,4.0,4.0,0.0,4.0,4.0,397.7939859996695,3.0,1.0,phase_1,,,,,,,,,,,,,blue,diamond
313.0,6.0,2.0,1.0,2.0,2.0,350.7499210008973,3.0,1.0,phase_1,,,,,,,,,,,,,gray,square
633.0,3.0,3.0,0.0,1.0,1.0,425.1434090001567,3.0,1.0,phase_1,,,,,,,,,,,,,orange,flipped triangle
1305.0,8.0,4.0,1.0,4.0,4.0,479.9672049994115,3.0,1.0,phase_1,,,,,,,,,,,,,white,triangle
1312.0,4.0,4.0,0.0,1.0,1.0,361.1566630006564,3.0,1.0,phase_1,,,,,,,,,,,,,blue,diamond
177.0,1.0,1.0,0.0,4.0,4.0,472.3775059992476,3.0,1.0,phase_1,,,,,,,,,,,,,magenta,hexagon
178.0,5.0,1.0,1.0,2.0,2.0,368.6395010008709,3.0,1.0,phase_1,,,,,,,,,,,,,yellow,I
172.0,1.0,1.0,0.0,4.0,4.0,387.6461549989471,3.0,1.0,phase_1,,,,,,,,,,,,,magenta,hexagon
646.0,7.0,3.0,1.0,2.0,2.0,369.3328720000863,3.0,1.0,phase_1,,,,,,,,,,,,,cyan,circle
652.0,7.0,3.0,1.0,4.0,4.0,508.0936149988702,3.0,1.0,phase_1,,,,,,,,,,,,,cyan,circle
138.0,1.0,1.0,0.0,4.0,4.0,425.3007509996678,3.0,1.0,phase_1,,,,,,,,,,,,,magenta,hexagon
1300.0,4.0,4.0,0.0,1.0,1.0,387.7269349995913,3.0,1.0,phase_1,,,,,,,,,,,,,blue,diamond
323.0,2.0,2.0,0.0,2.0,2.0,406.0530560000188,3.0,1.0,phase_1,,,,,,,,,,,,,green,cross
663.0,7.0,3.0,1.0,3.0,3.0,341.5445279988489,3.0,1.0,phase_1,,,,,,,,,,,,,cyan,circle
674.0,7.0,3.0,1.0,4.0,4.0,378.1093729994609,3.0,1.0,phase_1,,,,,,,,,,,,,cyan,circle
633.0,7.0,3.0,1.0,4.0,4.0,377.9710920007346,3.0,1.0,phase_1,,,,,,,,,,,,,cyan,circle
343.0,2.0,2.0,0.0,2.0,2.0,423.8807450001332,3.0,1.0,phase_1,,,,,,,,,,,,,green,cross
343.0,6.0,2.0,1.0,1.0,1.0,452.3199619998195,3.0,1.0,phase_1,,,,,,,,,,,,,gray,square
309.0,6.0,2.0,1.0,1.0,1.0,469.6944400002394,3.0,1.0,phase_1,,,,,,,,,,,,,gray,square
0.0,2.0,0.0,0.0,1.0,1.0,369.4135559999267,3.0,1.0,phase_1,,,,,,,,,,,,,green,cross
303.0,2.0,2.0,0.0,2.0,2.0,544.1992579999351,3.0,1.0,phase_1,,,,,,,,,,,,,green,cross
630.0,3.0,3.0,0.0,4.0,4.0,517.1099020008114,3.0,1.0,phase_1,,,,,,,,,,,,,orange,flipped triangle
179.0,1.0,1.0,0.0,1.0,1.0,434.4849249991966,3.0,1.0,phase_1,,,,,,,,,,,,,magenta,hexagon
1277.0,4.0,4.0,0.0,2.0,2.0,378.6302259995864,3.0,1.0,phase_1,,,,,,,,,,,,,blue,diamond
303.0,6.0,2.0,1.0,1.0,1.0,388.3015620012884,3.0,1.0,phase_1,,,,,,,,,,,,,gray,square
178.0,1.0,1.0,0.0,2.0,2.0,406.4726899996458,3.0,1.0,phase_1,,,,,,,,,,,,,magenta,hexagon
153.0,1.0,1.0,0.0,1.0,1.0,341.7116420005186,3.0,1.0,phase_1,,,,,,,,,,,,,magenta,hexagon
643.0,7.0,3.0,1.0,3.0,3.0,349.5115410005383,3.0,1.0,phase_1,,,,,,,,,,,,,cyan,circle
0.0,2.0,0.0,0.0,2.0,2.0,341.9249689995922,4.0,1.0,phase_1,,,,,,,,,,,,,green,cross
1291.0,4.0,4.0,0.0,2.0,2.0,305.7650439986901,4.0,1.0,phase_1,,,,,,,,,,,,,blue,diamond
0.0,8.0,0.0,1.0,1.0,1.0,519.2345740015298,4.0,1.0,phase_1,,,,,,,,,,,,,white,triangle
348.0,2.0,2.0,0.0,4.0,4.0,408.1062469995231,4.0,1.0,phase_1,,,,,,,,,,,,,green,cross
316.0,2.0,2.0,0.0,3.0,3.0,369.4480320009461,4.0,1.0,phase_1,,,,,,,,,,,,,green,cross
309.0,6.0,2.0,1.0,4.0,4.0,397.6070339995203,4.0,1.0,phase_1,,,,,,,,,,,,,gray,square
1295.0,4.0,4.0,0.0,2.0,2.0,369.833758999448,4.0,1.0,phase_1,,,,,,,,,,,,,blue,diamond
643.0,7.0,3.0,1.0,1.0,1.0,350.7119939986296,4.0,1.0,phase_1,,,,,,,,,,,,,cyan,circle
140.0,5.0,1.0,1.0,2.0,2.0,388.0653039996105,4.0,1.0,phase_1,,,,,,,,,,,,,yellow,I
0.0,3.0,0.0,0.0,2.0,2.0,382.6775420002377,4.0,1.0,phase_1,,,,,,,,,,,,,orange,flipped triangle
0.0,7.0,0.0,1.0,4.0,4.0,362.2720280000067,4.0,1.0,phase_1,,,,,,,,,,,,,cyan,circle
1324.0,8.0,4.0,1.0,1.0,1.0,526.5621229991666,4.0,1.0,phase_1,,,,,,,,,,,,,white,triangle
667.0,7.0,3.0,1.0,3.0,3.0,380.8568660006131,4.0,1.0,phase_1,,,,,,,,,,,,,cyan,circle
1295.0,8.0,4.0,1.0,1.0,1.0,333.9411699998891,4.0,1.0,phase_1,,,,,,,,,,,,,white,triangle
147.0,1.0,1.0,0.0,1.0,1.0,471.8797850000555,4.0,1.0,phase_1,,,,,,,,,,,,,magenta,hexagon
628.0,7.0,3.0,1.0,3.0,3.0,535.7247479987564,4.0,1.0,phase_1,,,,,,,,,,,,,cyan,circle
1291.0,4.0,4.0,0.0,4.0,4.0,417.7749049995327,4.0,1.0,phase_1,,,,,,,,,,,,,blue,diamond
672.0,7.0,3.0,1.0,1.0,1.0,311.4438930006145,4.0,1.0,phase_1,,,,,,,,,,,,,cyan,circle
1295.0,8.0,4.0,1.0,1.0,1.0,332.9632020013378,4.0,1.0,phase_1,,,,,,,,,,,,,white,triangle
1288.0,4.0,4.0,0.0,1.0,1.0,453.8824940009363,4.0,1.0,phase_1,,,,,,,,,,,,,blue,diamond
0.0,7.0,0.0,1.0,2.0,2.0,387.6834949987824,4.0,1.0,phase_1,,,,,,,,,,,,,cyan,circle
1304.0,4.0,4.0,0.0,3.0,3.0,481.7408850012725,4.0,1.0,phase_1,,,,,,,,,,,,,blue,diamond
670.0,3.0,3.0,0.0,3.0,3.0,568.1275930000993,4.0,1.0,phase_1,,,,,,,,,,,,,orange,flipped triangle
332.0,6.0,2.0,1.0,2.0,2.0,473.056903001634,4.0,1.0,phase_1,,,,,,,,,,,,,gray,square
0.0,7.0,0.0,1.0,1.0,1.0,528.0284820000816,4.0,1.0,phase_1,,,,,,,,,,,,,cyan,circle
1312.0,8.0,4.0,1.0,2.0,2.0,342.5585220011271,4.0,1.0,phase_1,,,,,,,,,,,,,white,triangle
1300.0,8.0,4.0,1.0,1.0,1.0,381.2693540003238,4.0,1.0,phase_1,,,,,,,,,,,,,white,triangle
672.0,3.0,3.0,0.0,2.0,2.0,351.3352490008401,4.0,1.0,phase_1,,,,,,,,,,,,,orange,flipped triangle
1317.0,8.0,4.0,1.0,3.0,3.0,399.1755459992419,4.0,2.0,phase_1,,,,,,,,,,,,,white,triangle
347.0,6.0,2.0,1.0,3.0,3.0,416.9315239996649,4.0,1.0,phase_1,,,,,,,,,,,,,gray,square
173.0,5.0,1.0,1.0,4.0,4.0,491.3643950003461,4.0,1.0,phase_1,,,,,,,,,,,,,yellow,I
166.0,1.0,1.0,0.0,3.0,3.0,481.1498310009483,4.0,1.0,phase_1,,,,,,,,,,,,,magenta,hexagon
348.0,6.0,2.0,1.0,4.0,4.0,426.5884209999058,4.0,1.0,phase_1,,,,,,,,,,,,,gray,square
0.0,8.0,0.0,1.0,4.0,4.0,463.4882970003673,4.0,1.0,phase_1,,,,,,,,,,,,,white,triangle
0.0,5.0,0.0,1.0,2.0,2.0,463.1515519995446,4.0,1.0,phase_1,,,,,,,,,,,,,yellow,I
156.0,5.0,1.0,1.0,2.0,2.0,427.2267720007221,4.0,1.0,phase_1,,,,,,,,,,,,,yellow,I
1277.0,4.0,4.0,0.0,2.0,2.0,444.1904289997183,4.0,1.0,phase_1,,,,,,,,,,,,,blue,diamond
1300.0,4.0,4.0,0.0,1.0,1.0,389.2175430009956,4.0,1.0,phase_1,,,,,,,,,,,,,blue,diamond
1285.0,4.0,4.0,0.0,1.0,1.0,381.5844870005094,4.0,1.0,phase_1,,,,,,,,,,,,,blue,diamond
138.0,5.0,1.0,1.0,1.0,1.0,453.960251999888,4.0,1.0,phase_1,,,,,,,,,,,,,yellow,I
0.0,7.0,0.0,1.0,4.0,4.0,554.6310259996972,4.0,1.0,phase_1,,,,,,,,,,,,,cyan,circle
658.0,7.0,3.0,1.0,2.0,2.0,573.6039299990807,4.0,1.0,phase_1,,,,,,,,,,,,,cyan,circle
0.0,8.0,0.0,1.0,4.0,4.0,443.968063000284,4.0,1.0,phase_1,,,,,,,,,,,,,white,triangle
635.0,7.0,3.0,1.0,4.0,4.0,416.3741310003388,4.0,1.0,phase_1,,,,,,,,,,,,,cyan,circle
316.0,6.0,2.0,1.0,3.0,3.0,554.2115209991607,4.0,1.0,phase_1,,,,,,,,,,,,,gray,square
1295.0,4.0,4.0,0.0,4.0,4.0,408.3103419998224,4.0,1.0,phase_1,,,,,,,,,,,,,blue,diamond
179.0,1.0,1.0,0.0,3.0,3.0,362.3371209996548,4.0,1.0,phase_1,,,,,,,,,,,,,magenta,hexagon
170.0,5.0,1.0,1.0,4.0,4.0,343.7821939987771,4.0,1.0,phase_1,,,,,,,,,,,,,yellow,I
339.0,2.0,2.0,0.0,2.0,2.0,491.4658960005909,4.0,1.0,phase_1,,,,,,,,,,,,,green,cross
0.0,6.0,0.0,1.0,2.0,2.0,582.7478070004872,4.0,1.0,phase_1,,,,,,,,,,,,,gray,square
1280.0,4.0,4.0,0.0,1.0,1.0,452.7041699984693,4.0,2.0,phase_1,,,,,,,,,,,,,blue,diamond
1296.0,8.0,4.0,1.0,3.0,3.0,518.2027780010685,4.0,1.0,phase_1,,,,,,,,,,,,,white,triangle
161.0,5.0,1.0,1.0,4.0,4.0,455.0482300001022,4.0,1.0,phase_1,,,,,,,,,,,,,yellow,I
324.0,6.0,2.0,1.0,1.0,1.0,564.721536999059,4.0,1.0,phase_1,,,,,,,,,,,,,gray,square
0.0,8.0,0.0,1.0,1.0,1.0,591.766548999658,4.0,1.0,phase_1,,,,,,,,,,,,,white,triangle
650.0,7.0,3.0,1.0,3.0,3.0,444.1250109994143,4.0,1.0,phase_1,,,,,,,,,,,,,cyan,circle
0.0,4.0,0.0,0.0,2.0,2.0,675.0695880000421,4.0,1.0,phase_1,,,,,,,,,,,,,blue,diamond
0.0,3.0,0.0,0.0,2.0,2.0,408.9711360011279,4.0,1.0,phase_1,,,,,,,,,,,,,orange,flipped triangle
0.0,2.0,0.0,0.0,2.0,2.0,362.0130319995951,4.0,1.0,phase_1,,,,,,,,,,,,,green,cross
1298.0,8.0,4.0,1.0,1.0,1.0,398.7317379996966,4.0,1.0,phase_1,,,,,,,,,,,,,white,triangle
0.0,1.0,0.0,0.0,1.0,1.0,351.7634969994105,4.0,1.0,phase_1,,,,,,,,,,,,,magenta,hexagon
151.0,5.0,1.0,1.0,2.0,2.0,481.7136800011212,4.0,1.0,phase_1,,,,,,,,,,,,,yellow,I
164.0,1.0,1.0,0.0,3.0,3.0,352.9584540010546,4.0,1.0,phase_1,,,,,,,,,,,,,magenta,hexagon
1317.0,4.0,4.0,0.0,2.0,2.0,410.0920660002884,4.0,1.0,phase_1,,,,,,,,,,,,,blue,diamond
0.0,2.0,0.0,0.0,1.0,1.0,416.3731629996618,4.0,1.0,phase_1,,,,,,,,,,,,,green,cross
659.0,7.0,3.0,1.0,1.0,1.0,379.1906900005415,4.0,1.0,phase_1,,,,,,,,,,,,,cyan,circle
179.0,5.0,1.0,1.0,1.0,1.0,372.6940699998522,4.0,1.0,phase_1,,,,,,,,,,,,,yellow,I
637.0,3.0,3.0,0.0,1.0,1.0,389.4887030000973,4.0,1.0,phase_1,,,,,,,,,,,,,orange,flipped triangle
0.0,6.0,0.0,1.0,1.0,1.0,361.8343220005044,4.0,1.0,phase_1,,,,,,,,,,,,,gray,square
659.0,3.0,3.0,0.0,2.0,2.0,482.2528330005298,4.0,1.0,phase_1,,,,,,,,,,,,,orange,flipped triangle
149.0,1.0,1.0,0.0,2.0,2.0,380.7409909986745,4.0,1.0,phase_1,,,,,,,,,,,,,magenta,hexagon
0.0,6.0,0.0,1.0,4.0,4.0,427.2418479995394,4.0,2.0,phase_1,,,,,,,,,,,,,gray,square
147.0,5.0,1.0,1.0,3.0,3.0,705.5194580007083,4.0,1.0,phase_1,,,,,,,,,,,,,yellow,I
1309.0,8.0,4.0,1.0,4.0,4.0,417.1533879998605,4.0,1.0,phase_1,,,,,,,,,,,,,white,triangle
330.0,6.0,2.0,1.0,3.0,3.0,473.9986789991235,4.0,1.0,phase_1,,,,,,,,,,,,,gray,square
1312.0,8.0,4.0,1.0,4.0,4.0,398.5239580015332,4.0,1.0,phase_1,,,,,,,,,,,,,white,triangle
1308.0,4.0,4.0,0.0,4.0,4.0,418.6023349993775,4.0,1.0,phase_1,,,,,,,,,,,,,blue,diamond
164.0,5.0,1.0,1.0,3.0,3.0,416.5439320004225,4.0,1.0,phase_1,,,,,,,,,,,,,yellow,I
1321.0,8.0,4.0,1.0,3.0,3.0,417.8506339994783,4.0,1.0,phase_1,,,,,,,,,,,,,white,triangle
0.0,8.0,0.0,1.0,2.0,2.0,664.8482130003686,4.0,1.0,phase_1,,,,,,,,,,,,,white,triangle
1279.0,4.0,4.0,0.0,1.0,1.0,830.3086279993295,4.0,1.0,phase_1,,,,,,,,,,,,,blue,diamond
316.0,2.0,2.0,0.0,3.0,3.0,452.8101230007451,4.0,1.0,phase_1,,,,,,,,,,,,,green,cross
640.0,7.0,3.0,1.0,3.0,3.0,388.2728200005658,4.0,1.0,phase_1,,,,,,,,,,,,,cyan,circle
343.0,2.0,2.0,0.0,1.0,1.0,665.2799860003142,4.0,1.0,phase_1,,,,,,,,,,,,,green,cross
0.0,3.0,0.0,0.0,4.0,4.0,589.5735229987622,4.0,1.0,phase_1,,,,,,,,,,,,,orange,flipped triangle
639.0,3.0,3.0,0.0,3.0,3.0,453.2916850002948,4.0,1.0,phase_1,,,,,,,,,,,,,orange,flipped triangle
327.0,2.0,2.0,0.0,1.0,1.0,379.3547140012379,4.0,1.0,phase_1,,,,,,,,,,,,,green,cross
675.0,7.0,3.0,1.0,1.0,1.0,720.9745299987844,4.0,1.0,phase_1,,,,,,,,,,,,,cyan,circle
639.0,7.0,3.0,1.0,4.0,4.0,472.4380290008412,4.0,1.0,phase_1,,,,,,,,,,,,,cyan,circle
0.0,6.0,0.0,1.0,1.0,1.0,424.9871169995458,4.0,1.0,phase_1,,,,,,,,,,,,,gray,square
186.0,5.0,1.0,1.0,3.0,3.0,482.5080899991008,4.0,1.0,phase_1,,,,,,,,,,,,,yellow,I
140.0,5.0,1.0,1.0,1.0,1.0,398.458904999643,4.0,1.0,phase_1,,,,,,,,,,,,,yellow,I
304.0,2.0,2.0,0.0,3.0,3.0,444.0994059987133,4.0,1.0,phase_1,,,,,,,,,,,,,green,cross
0.0,7.0,0.0,1.0,1.0,1.0,481.0710060010024,4.0,1.0,phase_1,,,,,,,,,,,,,cyan,circle
1280.0,8.0,4.0,1.0,3.0,3.0,472.6263209995522,4.0,1.0,phase_1,,,,,,,,,,,,,white,triangle
657.0,3.0,3.0,0.0,4.0,4.0,509.41819099898566,4.0,1.0,phase_1,,,,,,,,,,,,,orange,flipped triangle
640.0,7.0,3.0,1.0,2.0,2.0,509.15479399918695,4.0,1.0,phase_1,,,,,,,,,,,,,cyan,circle
0.0,6.0,0.0,1.0,1.0,1.0,398.5909780003567,4.0,1.0,phase_1,,,,,,,,,,,,,gray,square
0.0,6.0,0.0,1.0,3.0,3.0,396.207117000813,4.0,1.0,phase_1,,,,,,,,,,,,,gray,square
149.0,5.0,1.0,1.0,3.0,3.0,506.62983800066286,4.0,1.0,phase_1,,,,,,,,,,,,,yellow,I
0.0,1.0,1.0,0.0,6.0,6.0,436.0753920009301,1.0,1.0,phase_2,go,250.0,250.0,1.0,,,,,,,,,magenta,hexagon
0.0,5.0,1.0,1.0,6.0,0.0,0.0,1.0,1.0,phase_2,stop,250.0,250.0,4.0,,,,,,,,,yellow,I
0.0,7.0,3.0,1.0,5.0,5.0,378.1442879990209,1.0,1.0,phase_2,stop,250.0,300.0,3.0,,,,,,,,,cyan,circle
0.0,4.0,4.0,0.0,6.0,6.0,475.8172839992767,1.0,1.0,phase_2,go,200.0,300.0,1.0,,,,,,,,,blue,diamond
0.0,4.0,4.0,0.0,6.0,6.0,596.5837919993646,1.0,1.0,phase_2,go,200.0,300.0,1.0,,,,,,,,,blue,diamond
0.0,1.0,1.0,0.0,5.0,5.0,559.9990360005904,1.0,1.0,phase_2,go,200.0,300.0,1.0,,,,,,,,,magenta,hexagon
0.0,4.0,4.0,0.0,5.0,5.0,586.8566030003421,1.0,1.0,phase_2,go,200.0,300.0,1.0,,,,,,,,,blue,diamond
0.0,1.0,1.0,0.0,6.0,6.0,481.9052540005941,1.0,1.0,phase_2,go,200.0,300.0,1.0,,,,,,,,,magenta,hexagon
0.0,6.0,2.0,1.0,6.0,6.0,403.8033859997085,1.0,1.0,phase_2,stop,200.0,300.0,3.0,,,,,,,,,gray,square
0.0,2.0,2.0,0.0,6.0,6.0,727.6430429992615,1.0,1.0,phase_2,go,200.0,250.0,1.0,,,,,,,,,green,cross
0.0,7.0,3.0,1.0,5.0,5.0,492.9101389989228,1.0,1.0,phase_2,go,200.0,250.0,1.0,,,,,,,,,cyan,circle
0.0,6.0,2.0,1.0,5.0,5.0,404.5914449998236,1.0,1.0,phase_2,stop,200.0,250.0,3.0,,,,,,,,,gray,square
0.0,4.0,4.0,0.0,6.0,6.0,569.8647209992487,1.0,1.0,phase_2,go,150.0,250.0,1.0,,,,,,,,,blue,diamond
0.0,8.0,4.0,1.0,5.0,5.0,458.4383709989197,1.0,1.0,phase_2,go,150.0,250.0,1.0,,,,,,,,,white,triangle
0.0,4.0,4.0,0.0,5.0,5.0,680.9300569984771,1.0,1.0,phase_2,go,150.0,250.0,1.0,,,,,,,,,blue,diamond
0.0,3.0,3.0,0.0,6.0,6.0,465.5514299993228,1.0,1.0,phase_2,go,150.0,250.0,1.0,,,,,,,,,orange,flipped triangle
0.0,1.0,1.0,0.0,5.0,5.0,438.7187819993414,1.0,1.0,phase_2,go,150.0,250.0,1.0,,,,,,,,,magenta,hexagon
0.0,7.0,3.0,1.0,5.0,5.0,640.9207100005005,1.0,1.0,phase_2,go,150.0,250.0,1.0,,,,,,,,,cyan,circle
0.0,3.0,3.0,0.0,5.0,5.0,644.5321869996405,1.0,1.0,phase_2,go,150.0,250.0,1.0,,,,,,,,,orange,flipped triangle
0.0,5.0,1.0,1.0,6.0,6.0,541.7068890001246,1.0,1.0,phase_2,go,150.0,250.0,1.0,,,,,,,,,yellow,I
0.0,2.0,2.0,0.0,6.0,6.0,485.3759950001404,1.0,1.0,phase_2,go,150.0,250.0,1.0,,,,,,,,,green,cross
0.0,6.0,2.0,1.0,6.0,0.0,0.0,1.0,1.0,phase_2,stop,150.0,250.0,4.0,,,,,,,,,gray,square
0.0,6.0,2.0,1.0,6.0,0.0,0.0,1.0,1.0,phase_2,stop,150.0,300.0,4.0,,,,,,,,,gray,square
0.0,1.0,1.0,0.0,5.0,5.0,502.7377320002415,1.0,1.0,phase_2,go,150.0,350.0,1.0,,,,,,,,,magenta,hexagon
0.0,1.0,1.0,0.0,5.0,5.0,718.9142010010983,1.0,1.0,phase_2,go,150.0,350.0,1.0,,,,,,,,,magenta,hexagon
0.0,6.0,2.0,1.0,6.0,0.0,0.0,1.0,1.0,phase_2,stop,150.0,350.0,4.0,,,,,,,,,gray,square
0.0,7.0,3.0,1.0,5.0,5.0,669.4344640000054,1.0,1.0,phase_2,go,150.0,400.0,1.0,,,,,,,,,cyan,circle
0.0,4.0,4.0,0.0,6.0,6.0,521.9998709999345,1.0,1.0,phase_2,go,150.0,400.0,1.0,,,,,,,,,blue,diamond
0.0,1.0,1.0,0.0,6.0,6.0,438.4167400003207,1.0,1.0,phase_2,go,150.0,400.0,1.0,,,,,,,,,magenta,hexagon
0.0,5.0,1.0,1.0,5.0,0.0,0.0,1.0,1.0,phase_2,stop,150.0,400.0,4.0,,,,,,,,,yellow,I
0.0,7.0,3.0,1.0,6.0,6.0,565.6565570006933,1.0,1.0,phase_2,stop,200.0,400.0,3.0,,,,,,,,,cyan,circle
0.0,7.0,3.0,1.0,5.0,0.0,0.0,1.0,1.0,phase_2,stop,200.0,350.0,4.0,,,,,,,,,cyan,circle
0.0,2.0,2.0,0.0,6.0,6.0,493.3146450002823,1.0,1.0,phase_2,go,250.0,350.0,1.0,,,,,,,,,green,cross
0.0,2.0,2.0,0.0,6.0,6.0,372.4671410000155,1.0,1.0,phase_2,go,250.0,350.0,1.0,,,,,,,,,green,cross
0.0,7.0,3.0,1.0,5.0,0.0,0.0,1.0,1.0,phase_2,stop,250.0,350.0,4.0,,,,,,,,,cyan,circle
0.0,2.0,2.0,0.0,5.0,5.0,559.0492200008157,1.0,1.0,phase_2,go,300.0,350.0,1.0,,,,,,,,,green,cross
0.0,4.0,4.0,0.0,5.0,5.0,391.5003020010772,2.0,1.0,phase_2,go,300.0,350.0,1.0,,,,,,,,,blue,diamond
0.0,6.0,2.0,1.0,6.0,6.0,476.2201510002342,2.0,1.0,phase_2,go,300.0,350.0,1.0,,,,,,,,,gray,square
0.0,4.0,4.0,0.0,5.0,5.0,429.1226300010748,2.0,1.0,phase_2,go,300.0,350.0,1.0,,,,,,,,,blue,diamond
0.0,4.0,4.0,0.0,5.0,5.0,466.2552589998086,2.0,1.0,phase_2,go,300.0,350.0,1.0,,,,,,,,,blue,diamond
0.0,4.0,4.0,0.0,5.0,5.0,577.2832409984403,2.0,1.0,phase_2,go,300.0,350.0,1.0,,,,,,,,,blue,diamond
0.0,3.0,3.0,0.0,6.0,6.0,575.277649999407,2.0,1.0,phase_2,go,300.0,350.0,1.0,,,,,,,,,orange,flipped triangle
0.0,5.0,1.0,1.0,5.0,5.0,411.2683670009573,2.0,1.0,phase_2,stop,300.0,350.0,3.0,,,,,,,,,yellow,I
0.0,8.0,4.0,1.0,6.0,0.0,0.0,2.0,1.0,phase_2,stop,250.0,350.0,4.0,,,,,,,,,white,triangle
0.0,1.0,1.0,0.0,5.0,5.0,586.7640640008176,2.0,1.0,phase_2,go,250.0,400.0,1.0,,,,,,,,,magenta,hexagon
0.0,4.0,4.0,0.0,6.0,6.0,585.6486100001348,2.0,1.0,phase_2,go,250.0,400.0,1.0,,,,,,,,,blue,diamond
0.0,2.0,2.0,0.0,6.0,6.0,652.7419430003647,2.0,1.0,phase_2,go,250.0,400.0,1.0,,,,,,,,,green,cross
0.0,1.0,1.0,0.0,6.0,6.0,618.225734000589,2.0,1.0,phase_2,go,250.0,400.0,1.0,,,,,,,,,magenta,hexagon
0.0,5.0,1.0,1.0,6.0,6.0,345.9230079988629,2.0,1.0,phase_2,stop,250.0,400.0,3.0,,,,,,,,,yellow,I
0.0,3.0,3.0,0.0,6.0,6.0,605.903544001194,2.0,1.0,phase_2,go,250.0,350.0,1.0,,,,,,,,,orange,flipped triangle
0.0,2.0,2.0,0.0,6.0,6.0,391.190132999327,2.0,1.0,phase_2,go,250.0,350.0,1.0,,,,,,,,,green,cross
0.0,8.0,4.0,1.0,6.0,6.0,395.1670429996738,2.0,1.0,phase_2,stop,250.0,350.0,3.0,,,,,,,,,white,triangle
0.0,3.0,3.0,0.0,6.0,6.0,700.001262999649,2.0,1.0,phase_2,go,250.0,300.0,1.0,,,,,,,,,orange,flipped triangle
0.0,7.0,3.0,1.0,6.0,0.0,0.0,2.0,1.0,phase_2,stop,250.0,300.0,4.0,,,,,,,,,cyan,circle
0.0,3.0,3.0,0.0,5.0,5.0,643.9912080004433,2.0,1.0,phase_2,go,250.0,350.0,1.0,,,,,,,,,orange,flipped triangle
0.0,7.0,3.0,1.0,5.0,0.0,0.0,2.0,1.0,phase_2,stop,250.0,350.0,4.0,,,,,,,,,cyan,circle
0.0,6.0,2.0,1.0,5.0,5.0,521.6681950005295,2.0,1.0,phase_2,go,300.0,350.0,1.0,,,,,,,,,gray,square
0.0,7.0,3.0,1.0,5.0,5.0,470.2518590002,2.0,1.0,phase_2,stop,300.0,350.0,3.0,,,,,,,,,cyan,circle
0.0,3.0,3.0,0.0,6.0,6.0,718.8480439999694,2.0,1.0,phase_2,go,250.0,350.0,1.0,,,,,,,,,orange,flipped triangle
0.0,8.0,4.0,1.0,6.0,6.0,437.5020600000425,2.0,1.0,phase_2,go,250.0,350.0,1.0,,,,,,,,,white,triangle
0.0,1.0,1.0,0.0,6.0,6.0,642.9133720012032,2.0,1.0,phase_2,go,250.0,350.0,1.0,,,,,,,,,magenta,hexagon
0.0,3.0,3.0,0.0,5.0,5.0,597.1998119985074,2.0,1.0,phase_2,go,250.0,350.0,1.0,,,,,,,,,orange,flipped triangle
0.0,1.0,1.0,0.0,6.0,6.0,392.3873650001042,2.0,1.0,phase_2,go,250.0,350.0,1.0,,,,,,,,,magenta,hexagon
0.0,2.0,2.0,0.0,5.0,5.0,400.1108190004743,2.0,1.0,phase_2,go,250.0,350.0,1.0,,,,,,,,,green,cross
0.0,2.0,2.0,0.0,5.0,5.0,631.7180440000811,2.0,1.0,phase_2,go,250.0,350.0,1.0,,,,,,,,,green,cross
0.0,6.0,2.0,1.0,5.0,0.0,0.0,2.0,1.0,phase_2,stop,250.0,350.0,4.0,,,,,,,,,gray,square
0.0,2.0,2.0,0.0,5.0,5.0,614.7556680007256,2.0,1.0,phase_2,go,300.0,350.0,1.0,,,,,,,,,green,cross
0.0,4.0,4.0,0.0,6.0,6.0,532.635196001138,2.0,1.0,phase_2,go,300.0,350.0,1.0,,,,,,,,,blue,diamond
0.0,5.0,1.0,1.0,6.0,6.0,402.31621400016587,2.0,1.0,phase_2,stop,300.0,350.0,3.0,,,,,,,,,yellow,I
0.0,2.0,2.0,0.0,5.0,5.0,503.85293099861883,2.0,1.0,phase_2,go,300.0,300.0,1.0,,,,,,,,,green,cross
0.0,3.0,3.0,0.0,6.0,6.0,448.8377559991932,2.0,1.0,phase_2,go,300.0,300.0,1.0,,,,,,,,,orange,flipped triangle
0.0,7.0,3.0,1.0,5.0,5.0,411.9748209996032,2.0,1.0,phase_2,stop,300.0,300.0,3.0,,,,,,,,,cyan,circle
0.0,6.0,2.0,1.0,6.0,6.0,812.4373739992734,3.0,1.0,phase_2,stop,250.0,300.0,3.0,,,,,,,,,gray,square
0.0,6.0,2.0,1.0,6.0,0.0,0.0,3.0,1.0,phase_2,stop,250.0,250.0,4.0,,,,,,,,,gray,square
0.0,8.0,4.0,1.0,6.0,6.0,494.4470050013478,3.0,1.0,phase_2,go,250.0,300.0,1.0,,,,,,,,,white,triangle
0.0,4.0,4.0,0.0,5.0,5.0,447.6878980003675,3.0,1.0,phase_2,go,250.0,300.0,1.0,,,,,,,,,blue,diamond
0.0,5.0,1.0,1.0,6.0,6.0,354.5303299997613,3.0,1.0,phase_2,stop,250.0,300.0,3.0,,,,,,,,,yellow,I
0.0,1.0,1.0,0.0,6.0,6.0,464.6347779998905,3.0,1.0,phase_2,go,250.0,250.0,1.0,,,,,,,,,magenta,hexagon
0.0,3.0,3.0,0.0,6.0,6.0,374.3821820007724,3.0,1.0,phase_2,go,250.0,250.0,1.0,,,,,,,,,orange,flipped triangle
0.0,7.0,3.0,1.0,5.0,0.0,0.0,3.0,1.0,phase_2,stop,250.0,250.0,4.0,,,,,,,,,cyan,circle
0.0,4.0,4.0,0.0,5.0,5.0,523.0131569987861,3.0,1.0,phase_2,go,300.0,250.0,1.0,,,,,,,,,blue,diamond
0.0,3.0,3.0,0.0,5.0,5.0,380.779593000625,3.0,1.0,phase_2,go,300.0,250.0,1.0,,,,,,,,,orange,flipped triangle
0.0,7.0,3.0,1.0,6.0,0.0,0.0,3.0,1.0,phase_2,stop,300.0,250.0,4.0,,,,,,,,,cyan,circle
0.0,5.0,1.0,1.0,5.0,5.0,427.1709700005885,3.0,1.0,phase_2,go,300.0,300.0,1.0,,,,,,,,,yellow,I
0.0,8.0,4.0,1.0,6.0,6.0,376.5298769994842,3.0,1.0,phase_2,stop,300.0,300.0,3.0,,,,,,,,,white,triangle
0.0,6.0,2.0,1.0,6.0,0.0,0.0,3.0,1.0,phase_2,stop,300.0,250.0,4.0,,,,,,,,,gray,square
0.0,3.0,3.0,0.0,6.0,6.0,556.9446179997612,3.0,1.0,phase_2,go,300.0,300.0,1.0,,,,,,,,,orange,flipped triangle
0.0,8.0,4.0,1.0,5.0,5.0,773.843119999583,3.0,1.0,phase_2,go,300.0,300.0,1.0,,,,,,,,,white,triangle
0.0,8.0,4.0,1.0,5.0,0.0,0.0,3.0,1.0,phase_2,stop,300.0,300.0,4.0,,,,,,,,,white,triangle
0.0,7.0,3.0,1.0,5.0,0.0,0.0,3.0,1.0,phase_2,stop,350.0,300.0,4.0,,,,,,,,,cyan,circle
0.0,7.0,3.0,1.0,6.0,0.0,0.0,3.0,1.0,phase_2,stop,400.0,300.0,4.0,,,,,,,,,cyan,circle
0.0,1.0,1.0,0.0,5.0,5.0,585.2139729995542,3.0,1.0,phase_2,go,400.0,350.0,1.0,,,,,,,,,magenta,hexagon
0.0,8.0,4.0,1.0,6.0,0.0,0.0,3.0,1.0,phase_2,stop,400.0,350.0,4.0,,,,,,,,,white,triangle
0.0,1.0,1.0,0.0,5.0,5.0,474.5423160002247,3.0,1.0,phase_2,go,400.0,400.0,1.0,,,,,,,,,magenta,hexagon
0.0,8.0,4.0,1.0,5.0,0.0,0.0,3.0,1.0,phase_2,stop,400.0,400.0,4.0,,,,,,,,,white,triangle
0.0,6.0,2.0,1.0,6.0,0.0,0.0,3.0,1.0,phase_2,stop,450.0,400.0,4.0,,,,,,,,,gray,square
0.0,4.0,4.0,0.0,6.0,6.0,568.2015319998754,3.0,1.0,phase_2,go,450.0,450.0,1.0,,,,,,,,,blue,diamond
0.0,2.0,2.0,0.0,6.0,6.0,465.5309530007798,3.0,1.0,phase_2,go,450.0,450.0,1.0,,,,,,,,,green,cross
0.0,5.0,1.0,1.0,6.0,6.0,549.7024779997446,3.0,1.0,phase_2,go,450.0,450.0,1.0,,,,,,,,,yellow,I
0.0,8.0,4.0,1.0,6.0,6.0,921.4966500003356,3.0,1.0,phase_2,go,450.0,450.0,1.0,,,,,,,,,white,triangle
0.0,7.0,3.0,1.0,6.0,6.0,790.7878770001844,3.0,1.0,phase_2,go,450.0,450.0,1.0,,,,,,,,,cyan,circle
0.0,4.0,4.0,0.0,5.0,5.0,531.1938030008605,3.0,1.0,phase_2,go,450.0,450.0,1.0,,,,,,,,,blue,diamond
0.0,8.0,4.0,1.0,5.0,0.0,0.0,3.0,1.0,phase_2,stop,450.0,450.0,4.0,,,,,,,,,white,triangle
0.0,5.0,1.0,1.0,5.0,5.0,593.2448220009974,3.0,1.0,phase_2,stop,500.0,450.0,3.0,,,,,,,,,yellow,I
0.0,5.0,1.0,1.0,5.0,5.0,557.6492879990838,3.0,1.0,phase_2,stop,450.0,450.0,3.0,,,,,,,,,yellow,I
0.0,3.0,3.0,0.0,5.0,5.0,650.0646229997074,3.0,1.0,phase_2,go,400.0,450.0,1.0,,,,,,,,,orange,flipped triangle
0.0,5.0,1.0,1.0,6.0,6.0,382.3062270002992,3.0,1.0,phase_2,stop,400.0,450.0,3.0,,,,,,,,,yellow,I
0.0,7.0,3.0,1.0,5.0,0.0,0.0,3.0,1.0,phase_2,stop,400.0,400.0,4.0,,,,,,,,,cyan,circle
0.0,3.0,3.0,0.0,6.0,6.0,671.7878759991436,4.0,1.0,phase_2,go,450.0,400.0,1.0,,,,,,,,,orange,flipped triangle
0.0,3.0,3.0,0.0,6.0,6.0,446.1016240002209,4.0,1.0,phase_2,go,450.0,400.0,1.0,,,,,,,,,orange,flipped triangle
0.0,5.0,1.0,1.0,6.0,6.0,363.0340970012184,4.0,1.0,phase_2,stop,450.0,400.0,3.0,,,,,,,,,yellow,I
0.0,4.0,4.0,0.0,6.0,6.0,494.277036999847,4.0,1.0,phase_2,go,450.0,350.0,1.0,,,,,,,,,blue,diamond
0.0,5.0,1.0,1.0,5.0,0.0,0.0,4.0,1.0,phase_2,stop,450.0,350.0,4.0,,,,,,,,,yellow,I
0.0,8.0,4.0,1.0,5.0,0.0,0.0,4.0,1.0,phase_2,stop,500.0,350.0,4.0,,,,,,,,,white,triangle
0.0,7.0,3.0,1.0,6.0,0.0,0.0,4.0,1.0,phase_2,stop,550.0,350.0,4.0,,,,,,,,,cyan,circle
0.0,3.0,3.0,0.0,5.0,5.0,632.2121129996958,4.0,1.0,phase_2,go,550.0,400.0,1.0,,,,,,,,,orange,flipped triangle
0.0,1.0,1.0,0.0,6.0,6.0,485.5177230001573,4.0,1.0,phase_2,go,550.0,400.0,1.0,,,,,,,,,magenta,hexagon
0.0,3.0,3.0,0.0,5.0,5.0,523.6199980008678,4.0,1.0,phase_2,go,550.0,400.0,1.0,,,,,,,,,orange,flipped triangle
0.0,6.0,2.0,1.0,5.0,0.0,0.0,4.0,1.0,phase_2,stop,550.0,400.0,4.0,,,,,,,,,gray,square
0.0,6.0,2.0,1.0,5.0,0.0,0.0,4.0,1.0,phase_2,stop,600.0,400.0,4.0,,,,,,,,,gray,square
0.0,6.0,2.0,1.0,5.0,5.0,799.8641079993831,4.0,1.0,phase_2,stop,650.0,400.0,3.0,,,,,,,,,gray,square
0.0,1.0,1.0,0.0,6.0,6.0,566.9045070007996,4.0,1.0,phase_2,go,600.0,400.0,1.0,,,,,,,,,magenta,hexagon
0.0,4.0,4.0,0.0,5.0,5.0,540.8289599999989,4.0,1.0,phase_2,go,600.0,400.0,1.0,,,,,,,,,blue,diamond
0.0,8.0,4.0,1.0,6.0,6.0,644.546953999452,4.0,1.0,phase_2,go,600.0,400.0,1.0,,,,,,,,,white,triangle
0.0,6.0,2.0,1.0,5.0,5.0,792.1553050000512,4.0,1.0,phase_2,stop,600.0,400.0,3.0,,,,,,,,,gray,square
0.0,3.0,3.0,0.0,6.0,6.0,392.9804660001537,4.0,1.0,phase_2,go,550.0,400.0,1.0,,,,,,,,,orange,flipped triangle
0.0,4.0,4.0,0.0,6.0,6.0,467.7323339983559,4.0,1.0,phase_2,go,550.0,400.0,1.0,,,,,,,,,blue,diamond
0.0,6.0,2.0,1.0,6.0,6.0,391.6760600004636,4.0,1.0,phase_2,stop,550.0,400.0,3.0,,,,,,,,,gray,square
0.0,7.0,3.0,1.0,5.0,0.0,0.0,4.0,1.0,phase_2,stop,550.0,350.0,4.0,,,,,,,,,cyan,circle
0.0,6.0,2.0,1.0,5.0,0.0,0.0,4.0,1.0,phase_2,stop,600.0,350.0,4.0,,,,,,,,,gray,square
0.0,7.0,3.0,1.0,6.0,6.0,868.3084590011276,4.0,1.0,phase_2,go,650.0,350.0,1.0,,,,,,,,,cyan,circle
0.0,8.0,4.0,1.0,6.0,0.0,0.0,4.0,1.0,phase_2,stop,650.0,350.0,4.0,,,,,,,,,white,triangle
0.0,1.0,1.0,0.0,5.0,5.0,476.1788190007792,4.0,1.0,phase_2,go,650.0,400.0,1.0,,,,,,,,,magenta,hexagon
0.0,6.0,2.0,1.0,6.0,6.0,382.5404979997984,4.0,1.0,phase_2,go,650.0,400.0,1.0,,,,,,,,,gray,square
0.0,2.0,2.0,0.0,6.0,6.0,457.9539470014424,4.0,1.0,phase_2,go,650.0,400.0,1.0,,,,,,,,,green,cross
0.0,4.0,4.0,0.0,6.0,6.0,513.6289869988104,4.0,1.0,phase_2,go,650.0,400.0,1.0,,,,,,,,,blue,diamond
0.0,7.0,3.0,1.0,5.0,5.0,678.9896829995996,4.0,1.0,phase_2,stop,650.0,400.0,3.0,,,,,,,,,cyan,circle
0.0,2.0,2.0,0.0,6.0,6.0,606.4153070001339,4.0,1.0,phase_2,go,600.0,400.0,1.0,,,,,,,,,green,cross
0.0,5.0,1.0,1.0,5.0,0.0,0.0,4.0,1.0,phase_2,stop,600.0,400.0,4.0,,,,,,,,,yellow,I
0.0,2.0,2.0,0.0,6.0,6.0,492.7327169989439,4.0,1.0,phase_2,go,650.0,400.0,1.0,,,,,,,,,green,cross
0.0,2.0,2.0,0.0,5.0,5.0,541.0674599988852,4.0,1.0,phase_2,go,650.0,400.0,1.0,,,,,,,,,green,cross
0.0,4.0,4.0,0.0,5.0,5.0,550.2942740004073,4.0,1.0,phase_2,go,650.0,400.0,1.0,,,,,,,,,blue,diamond
0.0,3.0,3.0,0.0,6.0,6.0,390.6017969984532,4.0,1.0,phase_2,go,650.0,400.0,1.0,,,,,,,,,orange,flipped triangle
0.0,7.0,3.0,1.0,6.0,0.0,0.0,4.0,1.0,phase_2,stop,650.0,400.0,4.0,,,,,,,,,cyan,circle
0.0,5.0,1.0,1.0,6.0,6.0,661.2274079998315,5.0,1.0,phase_2,stop,650.0,450.0,3.0,,,,,,,,,yellow,I
0.0,2.0,2.0,0.0,5.0,5.0,530.2664160008135,5.0,1.0,phase_2,go,650.0,400.0,1.0,,,,,,,,,green,cross
0.0,3.0,3.0,0.0,6.0,6.0,513.2191350003268,5.0,1.0,phase_2,go,650.0,400.0,1.0,,,,,,,,,orange,flipped triangle
0.0,1.0,1.0,0.0,5.0,5.0,465.0168750013108,5.0,1.0,phase_2,go,650.0,400.0,1.0,,,,,,,,,magenta,hexagon
0.0,8.0,4.0,1.0,5.0,5.0,791.9397339992429,5.0,1.0,phase_2,stop,650.0,400.0,3.0,,,,,,,,,white,triangle
0.0,3.0,3.0,0.0,5.0,5.0,670.3206010006397,5.0,1.0,phase_2,go,600.0,400.0,1.0,,,,,,,,,orange,flipped triangle
0.0,5.0,1.0,1.0,6.0,6.0,913.4103579999646,5.0,1.0,phase_2,go,600.0,400.0,1.0,,,,,,,,,yellow,I
0.0,4.0,4.0,0.0,6.0,6.0,577.226329000041,5.0,1.0,phase_2,go,600.0,400.0,1.0,,,,,,,,,blue,diamond
0.0,6.0,2.0,1.0,6.0,6.0,836.5538639991428,5.0,1.0,phase_2,go,600.0,400.0,1.0,,,,,,,,,gray,square
0.0,5.0,1.0,1.0,6.0,6.0,690.2858110006491,5.0,1.0,phase_2,go,600.0,400.0,1.0,,,,,,,,,yellow,I
0.0,3.0,3.0,0.0,6.0,6.0,409.8423560008086,5.0,1.0,phase_2,go,600.0,400.0,1.0,,,,,,,,,orange,flipped triangle
0.0,8.0,4.0,1.0,6.0,6.0,687.8956599994126,5.0,1.0,phase_2,go,600.0,400.0,1.0,,,,,,,,,white,triangle
0.0,8.0,4.0,1.0,5.0,5.0,706.0682370010909,5.0,1.0,phase_2,stop,600.0,400.0,3.0,,,,,,,,,white,triangle
0.0,5.0,1.0,1.0,6.0,0.0,0.0,5.0,1.0,phase_2,stop,550.0,400.0,4.0,,,,,,,,,yellow,I
0.0,5.0,1.0,1.0,5.0,5.0,771.2015599990991,5.0,1.0,phase_2,stop,550.0,450.0,3.0,,,,,,,,,yellow,I
0.0,2.0,2.0,0.0,5.0,5.0,614.5591680015059,5.0,1.0,phase_2,go,500.0,450.0,1.0,,,,,,,,,green,cross
0.0,1.0,1.0,0.0,6.0,6.0,493.0082729988498,5.0,1.0,phase_2,go,500.0,450.0,1.0,,,,,,,,,magenta,hexagon
0.0,5.0,1.0,1.0,5.0,0.0,0.0,5.0,1.0,phase_2,stop,500.0,450.0,4.0,,,,,,,,,yellow,I
0.0,5.0,1.0,1.0,5.0,5.0,913.6834750006528,5.0,1.0,phase_2,go,550.0,450.0,1.0,,,,,,,,,yellow,I
0.0,3.0,3.0,0.0,6.0,6.0,392.1217300012358,5.0,1.0,phase_2,go,550.0,450.0,1.0,,,,,,,,,orange,flipped triangle
0.0,6.0,2.0,1.0,5.0,0.0,0.0,5.0,1.0,phase_2,stop,550.0,450.0,4.0,,,,,,,,,gray,square
0.0,8.0,4.0,1.0,5.0,0.0,0.0,5.0,1.0,phase_2,stop,600.0,450.0,4.0,,,,,,,,,white,triangle
0.0,8.0,4.0,1.0,6.0,0.0,0.0,5.0,1.0,phase_2,stop,650.0,450.0,4.0,,,,,,,,,white,triangle
0.0,2.0,2.0,0.0,6.0,6.0,501.69175200062455,5.0,1.0,phase_2,go,650.0,500.0,1.0,,,,,,,,,green,cross
0.0,8.0,4.0,1.0,5.0,5.0,790.8610369995586,5.0,1.0,phase_2,stop,650.0,500.0,3.0,,,,,,,,,white,triangle
0.0,5.0,1.0,1.0,6.0,0.0,0.0,5.0,1.0,phase_2,stop,600.0,500.0,4.0,,,,,,,,,yellow,I
0.0,1.0,1.0,0.0,6.0,6.0,521.2930560010136,5.0,1.0,phase_2,go,600.0,550.0,1.0,,,,,,,,,magenta,hexagon
0.0,3.0,3.0,0.0,5.0,5.0,511.42679400072666,5.0,1.0,phase_2,go,600.0,550.0,1.0,,,,,,,,,orange,flipped triangle
0.0,7.0,3.0,1.0,5.0,5.0,846.3379099994199,5.0,1.0,phase_2,go,600.0,550.0,1.0,,,,,,,,,cyan,circle
0.0,4.0,4.0,0.0,5.0,5.0,475.6663249991106,5.0,1.0,phase_2,go,600.0,550.0,1.0,,,,,,,,,blue,diamond
0.0,1.0,1.0,0.0,6.0,6.0,363.5233059994789,5.0,1.0,phase_2,go,600.0,550.0,1.0,,,,,,,,,magenta,hexagon
0.0,1.0,1.0,0.0,5.0,5.0,474.4564230004471,5.0,1.0,phase_2,go,600.0,550.0,1.0,,,,,,,,,magenta,hexagon
0.0,8.0,4.0,1.0,5.0,5.0,737.7199080001446,5.0,1.0,phase_2,stop,600.0,550.0,3.0,,,,,,,,,white,triangle
0.0,6.0,2.0,1.0,5.0,5.0,857.3855179984093,5.0,1.0,phase_2,go,550.0,550.0,1.0,,,,,,,,,gray,square
0.0,2.0,2.0,0.0,5.0,5.0,437.9369680009404,5.0,1.0,phase_2,go,550.0,550.0,1.0,,,,,,,,,green,cross
0.0,4.0,4.0,0.0,6.0,6.0,475.6010659984895,5.0,1.0,phase_2,go,550.0,550.0,1.0,,,,,,,,,blue,diamond
0.0,3.0,3.0,0.0,5.0,5.0,588.0716680003388,6.0,1.0,phase_2,go,550.0,550.0,1.0,,,,,,,,,orange,flipped triangle
0.0,7.0,3.0,1.0,6.0,0.0,0.0,6.0,1.0,phase_2,stop,550.0,550.0,4.0,,,,,,,,,cyan,circle
0.0,6.0,2.0,1.0,6.0,6.0,466.9271309994656,6.0,1.0,phase_2,stop,550.0,600.0,3.0,,,,,,,,,gray,square
0.0,6.0,2.0,1.0,6.0,0.0,0.0,6.0,1.0,phase_2,stop,550.0,550.0,4.0,,,,,,,,,gray,square
0.0,2.0,2.0,0.0,5.0,5.0,449.9226640000415,6.0,1.0,phase_2,go,550.0,600.0,1.0,,,,,,,,,green,cross
0.0,5.0,1.0,1.0,5.0,0.0,0.0,6.0,1.0,phase_2,stop,550.0,600.0,4.0,,,,,,,,,yellow,I
0.0,1.0,1.0,0.0,6.0,6.0,494.6350650006934,6.0,1.0,phase_2,go,600.0,600.0,1.0,,,,,,,,,magenta,hexagon
0.0,5.0,1.0,1.0,5.0,5.0,867.0513979996031,6.0,1.0,phase_2,go,600.0,600.0,1.0,,,,,,,,,yellow,I
0.0,8.0,4.0,1.0,6.0,0.0,0.0,6.0,1.0,phase_2,stop,600.0,600.0,4.0,,,,,,,,,white,triangle
0.0,1.0,1.0,0.0,6.0,6.0,513.0018750005547,6.0,1.0,phase_2,go,600.0,650.0,1.0,,,,,,,,,magenta,hexagon
0.0,5.0,1.0,1.0,5.0,5.0,684.226547000435,6.0,1.0,phase_2,stop,600.0,650.0,3.0,,,,,,,,,yellow,I
0.0,7.0,3.0,1.0,5.0,0.0,0.0,6.0,1.0,phase_2,stop,550.0,650.0,4.0,,,,,,,,,cyan,circle
0.0,5.0,1.0,1.0,5.0,0.0,0.0,6.0,1.0,phase_2,stop,600.0,650.0,4.0,,,,,,,,,yellow,I
0.0,6.0,2.0,1.0,5.0,5.0,873.8212109983579,6.0,1.0,phase_2,go,650.0,650.0,1.0,,,,,,,,,gray,square
0.0,1.0,1.0,0.0,6.0,6.0,361.8859059988608,6.0,1.0,phase_2,go,650.0,650.0,1.0,,,,,,,,,magenta,hexagon
0.0,1.0,1.0,0.0,5.0,5.0,474.0346639991912,6.0,1.0,phase_2,go,650.0,650.0,1.0,,,,,,,,,magenta,hexagon
0.0,3.0,3.0,0.0,5.0,5.0,549.2755890008993,6.0,1.0,phase_2,go,650.0,650.0,1.0,,,,,,,,,orange,flipped triangle
0.0,8.0,4.0,1.0,6.0,6.0,373.615960999814,6.0,1.0,phase_2,go,650.0,650.0,1.0,,,,,,,,,white,triangle
0.0,6.0,2.0,1.0,5.0,5.0,820.854022000276,6.0,1.0,phase_2,stop,650.0,650.0,3.0,,,,,,,,,gray,square
0.0,3.0,3.0,0.0,5.0,5.0,595.6218560004345,6.0,1.0,phase_2,go,600.0,650.0,1.0,,,,,,,,,orange,flipped triangle
0.0,8.0,4.0,1.0,5.0,0.0,0.0,6.0,1.0,phase_2,stop,600.0,650.0,4.0,,,,,,,,,white,triangle
0.0,1.0,1.0,0.0,6.0,6.0,467.6960870001494,6.0,1.0,phase_2,go,650.0,650.0,1.0,,,,,,,,,magenta,hexagon
0.0,2.0,2.0,0.0,5.0,5.0,475.3488329988613,6.0,1.0,phase_2,go,650.0,650.0,1.0,,,,,,,,,green,cross
0.0,1.0,1.0,0.0,5.0,5.0,466.1200889986503,6.0,1.0,phase_2,go,650.0,650.0,1.0,,,,,,,,,magenta,hexagon
0.0,4.0,4.0,0.0,6.0,6.0,521.3854379999248,6.0,1.0,phase_2,go,650.0,650.0,1.0,,,,,,,,,blue,diamond
0.0,5.0,1.0,1.0,6.0,6.0,855.060402998788,6.0,1.0,phase_2,stop,650.0,650.0,3.0,,,,,,,,,yellow,I
0.0,2.0,2.0,0.0,6.0,6.0,522.0472259989037,6.0,1.0,phase_2,go,650.0,600.0,1.0,,,,,,,,,green,cross
0.0,4.0,4.0,0.0,6.0,6.0,559.2894500005059,6.0,1.0,phase_2,go,650.0,600.0,1.0,,,,,,,,,blue,diamond
0.0,5.0,1.0,1.0,5.0,5.0,1071.545374001289,6.0,1.0,phase_2,go,650.0,600.0,1.0,,,,,,,,,yellow,I
0.0,5.0,1.0,1.0,6.0,6.0,821.034131999113,6.0,1.0,phase_2,stop,650.0,600.0,3.0,,,,,,,,,yellow,I
0.0,6.0,2.0,1.0,5.0,0.0,0.0,6.0,1.0,phase_2,stop,650.0,550.0,4.0,,,,,,,,,gray,square
0.0,4.0,4.0,0.0,5.0,5.0,568.2598639996286,6.0,1.0,phase_2,go,700.0,550.0,1.0,,,,,,,,,blue,diamond
0.0,4.0,4.0,0.0,5.0,5.0,399.7069510005531,6.0,1.0,phase_2,go,700.0,550.0,1.0,,,,,,,,,blue,diamond
0.0,5.0,1.0,1.0,6.0,6.0,632.7801429997635,6.0,1.0,phase_2,go,700.0,550.0,1.0,,,,,,,,,yellow,I
0.0,8.0,4.0,1.0,5.0,5.0,699.3210960008582,6.0,1.0,phase_2,stop,700.0,550.0,3.0,,,,,,,,,white,triangle
0.0,2.0,2.0,0.0,5.0,5.0,429.0015379992837,6.0,1.0,phase_2,go,650.0,550.0,1.0,,,,,,,,,green,cross
0.0,3.0,3.0,0.0,5.0,5.0,458.6805119997734,7.0,1.0,phase_2,go,650.0,550.0,1.0,,,,,,,,,orange,flipped triangle
0.0,1.0,1.0,0.0,5.0,5.0,456.6069360007532,7.0,1.0,phase_2,go,650.0,550.0,1.0,,,,,,,,,magenta,hexagon
0.0,6.0,2.0,1.0,5.0,0.0,0.0,7.0,1.0,phase_2,stop,650.0,550.0,4.0,,,,,,,,,gray,square
0.0,1.0,1.0,0.0,5.0,5.0,808.6628429991833,7.0,1.0,phase_2,go,700.0,550.0,1.0,,,,,,,,,magenta,hexagon
0.0,3.0,3.0,0.0,5.0,5.0,393.4248890000162,7.0,1.0,phase_2,go,700.0,550.0,1.0,,,,,,,,,orange,flipped triangle
0.0,5.0,1.0,1.0,5.0,5.0,383.0395460008731,7.0,1.0,phase_2,stop,700.0,550.0,3.0,,,,,,,,,yellow,I
0.0,2.0,2.0,0.0,6.0,6.0,466.9119419995695,7.0,1.0,phase_2,go,650.0,550.0,1.0,,,,,,,,,green,cross
0.0,5.0,1.0,1.0,6.0,0.0,0.0,7.0,1.0,phase_2,stop,650.0,550.0,4.0,,,,,,,,,yellow,I
0.0,4.0,4.0,0.0,5.0,5.0,549.7431660005532,7.0,1.0,phase_2,go,650.0,600.0,1.0,,,,,,,,,blue,diamond
0.0,6.0,2.0,1.0,6.0,0.0,0.0,7.0,1.0,phase_2,stop,650.0,600.0,4.0,,,,,,,,,gray,square
0.0,2.0,2.0,0.0,6.0,6.0,578.9810509995732,7.0,1.0,phase_2,go,650.0,650.0,1.0,,,,,,,,,green,cross
0.0,4.0,4.0,0.0,6.0,6.0,429.2347129994596,7.0,1.0,phase_2,go,650.0,650.0,1.0,,,,,,,,,blue,diamond
0.0,7.0,3.0,1.0,6.0,6.0,401.3431340008537,7.0,1.0,phase_2,go,650.0,650.0,1.0,,,,,,,,,cyan,circle
0.0,7.0,3.0,1.0,6.0,0.0,0.0,7.0,1.0,phase_2,stop,650.0,650.0,4.0,,,,,,,,,cyan,circle
0.0,7.0,3.0,1.0,6.0,0.0,0.0,7.0,1.0,phase_2,stop,650.0,700.0,4.0,,,,,,,,,cyan,circle
0.0,1.0,1.0,0.0,5.0,5.0,549.6497459989769,7.0,1.0,phase_2,go,650.0,750.0,1.0,,,,,,,,,magenta,hexagon
0.0,8.0,4.0,1.0,6.0,0.0,0.0,7.0,1.0,phase_2,stop,650.0,750.0,4.0,,,,,,,,,white,triangle
0.0,2.0,2.0,0.0,6.0,6.0,596.8418009997549,7.0,1.0,phase_2,go,650.0,800.0,1.0,,,,,,,,,green,cross
0.0,7.0,3.0,1.0,6.0,6.0,1046.650733000206,7.0,1.0,phase_2,stop,650.0,800.0,3.0,,,,,,,,,cyan,circle
0.0,2.0,2.0,0.0,5.0,5.0,559.170083999561,7.0,1.0,phase_2,go,650.0,750.0,1.0,,,,,,,,,green,cross
0.0,6.0,2.0,1.0,5.0,0.0,0.0,7.0,1.0,phase_2,stop,650.0,750.0,4.0,,,,,,,,,gray,square
0.0,2.0,2.0,0.0,5.0,5.0,494.2873279997002,7.0,1.0,phase_2,go,700.0,750.0,1.0,,,,,,,,,green,cross
0.0,5.0,1.0,1.0,6.0,0.0,0.0,7.0,1.0,phase_2,stop,700.0,750.0,4.0,,,,,,,,,yellow,I
0.0,4.0,4.0,0.0,6.0,6.0,512.499944999945,7.0,1.0,phase_2,go,700.0,800.0,1.0,,,,,,,,,blue,diamond
0.0,2.0,2.0,0.0,5.0,5.0,466.118168000321,7.0,1.0,phase_2,go,700.0,800.0,1.0,,,,,,,,,green,cross
0.0,6.0,2.0,1.0,5.0,0.0,0.0,7.0,1.0,phase_2,stop,700.0,800.0,4.0,,,,,,,,,gray,square
0.0,2.0,2.0,0.0,6.0,6.0,522.0955469994806,7.0,1.0,phase_2,go,750.0,800.0,1.0,,,,,,,,,green,cross
0.0,8.0,4.0,1.0,5.0,5.0,1044.3678470001032,7.0,1.0,phase_2,go,750.0,800.0,1.0,,,,,,,,,white,triangle
0.0,8.0,4.0,1.0,6.0,6.0,906.8370240001968,7.0,1.0,phase_2,stop,750.0,800.0,3.0,,,,,,,,,white,triangle
0.0,2.0,2.0,0.0,5.0,5.0,457.0758469999418,7.0,1.0,phase_2,go,750.0,750.0,1.0,,,,,,,,,green,cross
0.0,3.0,3.0,0.0,5.0,5.0,436.9126980000146,7.0,1.0,phase_2,go,750.0,750.0,1.0,,,,,,,,,orange,flipped triangle
0.0,4.0,4.0,0.0,6.0,6.0,455.6850099997973,7.0,1.0,phase_2,go,750.0,750.0,1.0,,,,,,,,,blue,diamond
0.0,3.0,3.0,0.0,6.0,6.0,513.0103530009364,7.0,1.0,phase_2,go,750.0,750.0,1.0,,,,,,,,,orange,flipped triangle
0.0,4.0,4.0,0.0,6.0,6.0,532.0468530007929,7.0,1.0,phase_2,go,750.0,750.0,1.0,,,,,,,,,blue,diamond
0.0,7.0,3.0,1.0,5.0,0.0,0.0,7.0,1.0,phase_2,stop,750.0,750.0,4.0,,,,,,,,,cyan,circle
0.0,1.0,1.0,0.0,5.0,5.0,538.4202880013618,7.0,1.0,phase_2,go,800.0,750.0,1.0,,,,,,,,,magenta,hexagon
0.0,8.0,4.0,1.0,5.0,0.0,0.0,8.0,1.0,phase_2,stop,800.0,750.0,4.0,,,,,,,,,white,triangle
0.0,1.0,1.0,0.0,6.0,6.0,429.0756049995252,8.0,1.0,phase_2,go,850.0,750.0,1.0,,,,,,,,,magenta,hexagon
0.0,5.0,1.0,1.0,5.0,5.0,1039.0062110000144,8.0,1.0,phase_2,stop,850.0,750.0,3.0,,,,,,,,,yellow,I
0.0,6.0,2.0,1.0,5.0,5.0,1098.5322599990468,8.0,1.0,phase_2,go,800.0,750.0,1.0,,,,,,,,,gray,square
0.0,1.0,1.0,0.0,5.0,5.0,512.705007000477,8.0,1.0,phase_2,go,800.0,750.0,1.0,,,,,,,,,magenta,hexagon
0.0,7.0,3.0,1.0,6.0,0.0,0.0,8.0,1.0,phase_2,stop,800.0,750.0,4.0,,,,,,,,,cyan,circle
0.0,2.0,2.0,0.0,5.0,5.0,491.0636610002257,8.0,1.0,phase_2,go,800.0,800.0,1.0,,,,,,,,,green,cross
0.0,3.0,3.0,0.0,6.0,6.0,517.1528280006896,8.0,1.0,phase_2,go,800.0,800.0,1.0,,,,,,,,,orange,flipped triangle
0.0,7.0,3.0,1.0,6.0,0.0,0.0,8.0,1.0,phase_2,stop,800.0,800.0,4.0,,,,,,,,,cyan,circle
0.0,3.0,3.0,0.0,5.0,5.0,566.7572700003802,8.0,1.0,phase_2,go,800.0,850.0,1.0,,,,,,,,,orange,flipped triangle
0.0,8.0,4.0,1.0,5.0,0.0,0.0,8.0,1.0,phase_2,stop,800.0,850.0,4.0,,,,,,,,,white,triangle
0.0,3.0,3.0,0.0,5.0,5.0,772.2232040014205,8.0,1.0,phase_2,go,850.0,850.0,1.0,,,,,,,,,orange,flipped triangle
0.0,2.0,2.0,0.0,6.0,6.0,549.7428090002359,8.0,1.0,phase_2,go,850.0,850.0,1.0,,,,,,,,,green,cross
0.0,3.0,3.0,0.0,6.0,6.0,522.7880900001765,8.0,1.0,phase_2,go,850.0,850.0,1.0,,,,,,,,,orange,flipped triangle
0.0,4.0,4.0,0.0,5.0,5.0,781.95764100019,8.0,1.0,phase_2,go,850.0,850.0,1.0,,,,,,,,,blue,diamond
0.0,6.0,2.0,1.0,6.0,0.0,0.0,8.0,1.0,phase_2,stop,850.0,850.0,4.0,,,,,,,,,gray,square
0.0,4.0,4.0,0.0,5.0,5.0,746.2953190006374,8.0,1.0,phase_2,go,850.0,900.0,1.0,,,,,,,,,blue,diamond
0.0,7.0,3.0,1.0,6.0,0.0,0.0,8.0,1.0,phase_2,stop,850.0,900.0,4.0,,,,,,,,,cyan,circle
0.0,8.0,4.0,1.0,5.0,0.0,0.0,8.0,1.0,phase_2,stop,850.0,950.0,4.0,,,,,,,,,white,triangle
0.0,8.0,4.0,1.0,6.0,6.0,991.7466949991648,8.0,1.0,phase_2,stop,900.0,950.0,3.0,,,,,,,,,white,triangle
0.0,7.0,3.0,1.0,6.0,6.0,1293.091256999105,8.0,1.0,phase_2,go,900.0,900.0,1.0,,,,,,,,,cyan,circle
0.0,7.0,3.0,1.0,6.0,0.0,0.0,8.0,1.0,phase_2,stop,900.0,900.0,4.0,,,,,,,,,cyan,circle
0.0,6.0,2.0,1.0,5.0,5.0,1226.6305459997966,8.0,1.0,phase_2,go,900.0,950.0,1.0,,,,,,,,,gray,square
0.0,2.0,2.0,0.0,5.0,5.0,448.2789749999938,8.0,1.0,phase_2,go,900.0,950.0,1.0,,,,,,,,,green,cross
0.0,4.0,4.0,0.0,5.0,5.0,473.128514999189,8.0,1.0,phase_2,go,900.0,950.0,1.0,,,,,,,,,blue,diamond
0.0,6.0,2.0,1.0,6.0,6.0,1319.4728329999634,8.0,1.0,phase_2,go,900.0,950.0,1.0,,,,,,,,,gray,square
0.0,3.0,3.0,0.0,5.0,5.0,531.2141009999323,8.0,1.0,phase_2,go,900.0,950.0,1.0,,,,,,,,,orange,flipped triangle
0.0,1.0,1.0,0.0,6.0,6.0,382.3274380010844,8.0,1.0,phase_2,go,900.0,950.0,1.0,,,,,,,,,magenta,hexagon
0.0,8.0,4.0,1.0,6.0,0.0,0.0,8.0,1.0,phase_2,stop,900.0,950.0,4.0,,,,,,,,,white,triangle
0.0,8.0,4.0,1.0,5.0,0.0,0.0,8.0,1.0,phase_2,stop,900.0,1000.0,4.0,,,,,,,,,white,triangle
0.0,8.0,4.0,1.0,6.0,0.0,0.0,8.0,1.0,phase_2,stop,950.0,1000.0,4.0,,,,,,,,,white,triangle
0.0,1.0,1.0,0.0,5.0,5.0,568.7709859994357,8.0,1.0,phase_2,go,950.0,1050.0,1.0,,,,,,,,,magenta,hexagon
0.0,7.0,3.0,1.0,5.0,0.0,0.0,8.0,1.0,phase_2,go,950.0,1050.0,5.0,,,,,,,,,cyan,circle
0.0,6.0,2.0,1.0,6.0,6.0,1261.9257520000249,8.0,1.0,phase_2,stop,950.0,1050.0,3.0,,,,,,,,,gray,square
0.0,5.0,1.0,1.0,5.0,5.0,391.2348939993535,8.0,1.0,phase_2,stop,950.0,1000.0,3.0,,,,,,,,,yellow,I
0.0,2.0,2.0,0.0,6.0,6.0,445.8269149999978,8.0,1.0,phase_2,go,900.0,1000.0,1.0,,,,,,,,,green,cross
0.0,3.0,3.0,0.0,7.0,3.0,2950.951855000312,1.0,1.0,phase_3,,,,,116.0,1.0,580.0,232.0,116.0,696.0,348.0,464.0,orange,flipped triangle
0.0,3.0,3.0,0.0,7.0,5.0,3831.439452000268,1.0,1.0,phase_3,,,,,192.0,1.0,576.0,384.0,1152.0,768.0,192.0,960.0,orange,flipped triangle
0.0,7.0,3.0,1.0,7.0,2.0,2204.5470059983927,1.0,1.0,phase_3,,,,,865.0,5.0,1038.0,865.0,519.0,692.0,173.0,346.0,cyan,circle
0.0,4.0,4.0,0.0,7.0,6.0,3107.323467000242,1.0,1.0,phase_3,,,,,173.0,1.0,865.0,519.0,692.0,346.0,1038.0,173.0,blue,diamond
0.0,2.0,2.0,0.0,7.0,4.0,2836.5496049991634,1.0,1.0,phase_3,,,,,154.0,1.0,462.0,616.0,924.0,154.0,308.0,770.0,green,cross
0.0,7.0,3.0,1.0,7.0,3.0,2685.964446000071,1.0,1.0,phase_3,,,,,692.0,4.0,173.0,346.0,692.0,519.0,865.0,1038.0,cyan,circle
0.0,1.0,1.0,0.0,7.0,3.0,2381.555224999829,1.0,1.0,phase_3,,,,,192.0,1.0,1152.0,384.0,192.0,576.0,768.0,960.0,magenta,hexagon
0.0,1.0,1.0,0.0,7.0,4.0,4428.533173999313,1.0,1.0,phase_3,,,,,519.0,3.0,173.0,865.0,346.0,519.0,1038.0,692.0,magenta,hexagon
0.0,8.0,4.0,1.0,7.0,4.0,2594.385289001366,1.0,1.0,phase_3,,,,,135.0,1.0,810.0,675.0,405.0,135.0,540.0,270.0,white,triangle
0.0,2.0,2.0,0.0,7.0,4.0,4257.3578619994805,1.0,1.0,phase_3,,,,,346.0,2.0,692.0,173.0,519.0,346.0,865.0,1038.0,green,cross
0.0,8.0,4.0,1.0,7.0,5.0,2177.814161999777,1.0,1.0,phase_3,,,,,116.0,1.0,580.0,696.0,464.0,348.0,116.0,232.0,white,triangle
0.0,8.0,4.0,1.0,7.0,3.0,3193.799653001406,1.0,1.0,phase_3,,,,,173.0,1.0,519.0,865.0,173.0,346.0,1038.0,692.0,white,triangle
0.0,1.0,1.0,0.0,7.0,2.0,2068.221239000195,1.0,1.0,phase_3,,,,,135.0,1.0,675.0,135.0,810.0,540.0,405.0,270.0,magenta,hexagon
0.0,7.0,3.0,1.0,7.0,4.0,3404.379173000052,1.0,1.0,phase_3,,,,,696.0,6.0,580.0,464.0,116.0,696.0,348.0,232.0,cyan,circle
0.0,5.0,1.0,1.0,7.0,1.0,3688.07196600028,1.0,1.0,phase_3,,,,,540.0,4.0,540.0,675.0,810.0,135.0,270.0,405.0,yellow,I
0.0,3.0,3.0,0.0,7.0,3.0,1957.461408999734,1.0,1.0,phase_3,,,,,154.0,1.0,924.0,462.0,154.0,616.0,770.0,308.0,orange,flipped triangle
0.0,6.0,2.0,1.0,7.0,3.0,1855.7225010008551,1.0,1.0,phase_3,,,,,924.0,6.0,308.0,154.0,924.0,462.0,616.0,770.0,gray,square
0.0,4.0,4.0,0.0,7.0,3.0,2887.348354999631,1.0,1.0,phase_3,,,,,384.0,2.0,768.0,576.0,384.0,1152.0,960.0,192.0,blue,diamond
0.0,5.0,1.0,1.0,7.0,4.0,2429.1246949997003,1.0,1.0,phase_3,,,,,960.0,5.0,576.0,192.0,1152.0,960.0,384.0,768.0,yellow,I
0.0,6.0,2.0,1.0,7.0,1.0,3052.552631001163,1.0,1.0,phase_3,,,,,960.0,5.0,960.0,1152.0,384.0,192.0,576.0,768.0,gray,square
0.0,8.0,4.0,1.0,7.0,5.0,1242.9732810014684,2.0,1.0,phase_3,,,,,154.0,1.0,462.0,924.0,770.0,616.0,154.0,308.0,white,triangle
0.0,6.0,2.0,1.0,7.0,3.0,2955.6417880012305,2.0,1.0,phase_3,,,,,865.0,5.0,519.0,692.0,865.0,1038.0,346.0,173.0,gray,square
0.0,3.0,3.0,0.0,7.0,1.0,2466.941726001096,2.0,1.0,phase_3,,,,,384.0,2.0,384.0,576.0,768.0,192.0,1152.0,960.0,orange,flipped triangle
0.0,2.0,2.0,0.0,7.0,3.0,1937.5690010001565,2.0,1.0,phase_3,,,,,192.0,1.0,1152.0,960.0,192.0,384.0,768.0,576.0,green,cross
0.0,2.0,2.0,0.0,7.0,5.0,2240.56962099894,2.0,1.0,phase_3,,,,,135.0,1.0,810.0,405.0,675.0,270.0,135.0,540.0,green,cross
0.0,5.0,1.0,1.0,7.0,1.0,2520.0799720005307,2.0,1.0,phase_3,,,,,960.0,5.0,960.0,768.0,576.0,192.0,384.0,1152.0,yellow,I
0.0,6.0,2.0,1.0,7.0,3.0,2634.68182699944,2.0,1.0,phase_3,,,,,810.0,6.0,135.0,675.0,810.0,540.0,405.0,270.0,gray,square
0.0,1.0,1.0,0.0,7.0,1.0,3979.351447998852,2.0,1.0,phase_3,,,,,464.0,4.0,464.0,116.0,696.0,348.0,232.0,580.0,magenta,hexagon
0.0,5.0,1.0,1.0,7.0,4.0,2307.763745999182,2.0,1.0,phase_3,,,,,865.0,5.0,692.0,346.0,1038.0,865.0,519.0,173.0,yellow,I
0.0,1.0,1.0,0.0,7.0,2.0,3455.7941740004026,2.0,1.0,phase_3,,,,,348.0,3.0,580.0,348.0,696.0,464.0,116.0,232.0,magenta,hexagon
0.0,5.0,1.0,1.0,7.0,1.0,2734.442898999987,2.0,1.0,phase_3,,,,,580.0,5.0,580.0,464.0,116.0,232.0,348.0,696.0,yellow,I
0.0,7.0,3.0,1.0,7.0,3.0,1725.180650000766,2.0,1.0,phase_3,,,,,960.0,5.0,768.0,384.0,960.0,576.0,192.0,1152.0,cyan,circle
0.0,2.0,2.0,0.0,7.0,4.0,1409.403429001031,2.0,1.0,phase_3,,,,,173.0,1.0,346.0,519.0,1038.0,173.0,865.0,692.0,green,cross
0.0,4.0,4.0,0.0,7.0,6.0,1862.8797059991484,2.0,1.0,phase_3,,,,,308.0,2.0,462.0,616.0,924.0,154.0,770.0,308.0,blue,diamond
0.0,2.0,2.0,0.0,7.0,1.0,1588.79827400051,2.0,1.0,phase_3,,,,,154.0,1.0,154.0,462.0,924.0,308.0,770.0,616.0,green,cross
0.0,6.0,2.0,1.0,7.0,5.0,1604.6003550000023,2.0,1.0,phase_3,,,,,770.0,5.0,616.0,154.0,462.0,308.0,770.0,924.0,gray,square
0.0,5.0,1.0,1.0,7.0,6.0,2293.990837999445,2.0,1.0,phase_3,,,,,616.0,4.0,462.0,924.0,308.0,770.0,154.0,616.0,yellow,I
0.0,7.0,3.0,1.0,7.0,3.0,1740.6152469993683,2.0,1.0,phase_3,,,,,924.0,6.0,462.0,154.0,924.0,770.0,616.0,308.0,cyan,circle
0.0,3.0,3.0,0.0,7.0,3.0,1565.803285000584,2.0,1.0,phase_3,,,,,270.0,2.0,135.0,675.0,270.0,540.0,810.0,405.0,orange,flipped triangle
0.0,4.0,4.0,0.0,7.0,4.0,2701.060289000452,2.0,1.0,phase_3,,,,,308.0,2.0,616.0,462.0,154.0,308.0,770.0,924.0,blue,diamond
0.0,7.0,3.0,1.0,7.0,4.0,3653.206437000336,3.0,1.0,phase_3,,,,,696.0,6.0,116.0,232.0,580.0,696.0,348.0,464.0,cyan,circle
0.0,4.0,4.0,0.0,7.0,4.0,2078.4811779994925,3.0,1.0,phase_3,,,,,135.0,1.0,270.0,540.0,810.0,135.0,675.0,405.0,blue,diamond
0.0,1.0,1.0,0.0,7.0,2.0,3378.4852430017054,3.0,1.0,phase_3,,,,,462.0,3.0,616.0,462.0,154.0,308.0,770.0,924.0,magenta,hexagon
0.0,6.0,2.0,1.0,7.0,2.0,2835.164423000606,3.0,1.0,phase_3,,,,,696.0,6.0,464.0,696.0,580.0,232.0,116.0,348.0,gray,square
0.0,6.0,2.0,1.0,7.0,4.0,3377.31926899869,3.0,1.0,phase_3,,,,,865.0,5.0,346.0,1038.0,692.0,865.0,519.0,173.0,gray,square
0.0,2.0,2.0,0.0,7.0,5.0,1862.5062530009016,3.0,1.0,phase_3,,,,,116.0,1.0,696.0,464.0,232.0,348.0,116.0,580.0,green,cross
0.0,2.0,2.0,0.0,7.0,4.0,1584.0613809996285,3.0,1.0,phase_3,,,,,135.0,1.0,540.0,405.0,675.0,135.0,810.0,270.0,green,cross
0.0,1.0,1.0,0.0,7.0,1.0,2731.2328680000064,3.0,1.0,phase_3,,,,,519.0,3.0,519.0,173.0,346.0,1038.0,692.0,865.0,magenta,hexagon
0.0,8.0,4.0,1.0,7.0,3.0,1585.5688159990675,3.0,1.0,phase_3,,,,,270.0,2.0,540.0,675.0,270.0,135.0,810.0,405.0,white,triangle
0.0,5.0,1.0,1.0,7.0,4.0,3381.675541999357,3.0,1.0,phase_3,,,,,696.0,6.0,464.0,232.0,348.0,696.0,580.0,116.0,yellow,I
0.0,1.0,1.0,0.0,7.0,1.0,1342.1959469997091,3.0,1.0,phase_3,,,,,154.0,1.0,154.0,462.0,924.0,308.0,770.0,616.0,magenta,hexagon
0.0,4.0,4.0,0.0,7.0,6.0,1585.5297520010936,3.0,1.0,phase_3,,,,,116.0,1.0,348.0,464.0,580.0,696.0,232.0,116.0,blue,diamond
0.0,4.0,4.0,0.0,7.0,2.0,2125.48592299936,3.0,1.0,phase_3,,,,,135.0,1.0,540.0,135.0,270.0,675.0,810.0,405.0,blue,diamond
0.0,5.0,1.0,1.0,7.0,3.0,1863.5151220005357,3.0,1.0,phase_3,,,,,770.0,5.0,924.0,308.0,770.0,462.0,154.0,616.0,yellow,I
0.0,4.0,4.0,0.0,7.0,6.0,965.2976950001176,3.0,1.0,phase_3,,,,,116.0,1.0,348.0,464.0,580.0,232.0,696.0,116.0,blue,diamond
0.0,5.0,1.0,1.0,7.0,1.0,2914.554043998578,3.0,1.0,phase_3,,,,,692.0,4.0,692.0,173.0,519.0,1038.0,346.0,865.0,yellow,I
0.0,7.0,3.0,1.0,7.0,5.0,2596.199801999319,3.0,1.0,phase_3,,,,,540.0,4.0,810.0,675.0,270.0,405.0,540.0,135.0,cyan,circle
0.0,2.0,2.0,0.0,7.0,6.0,2087.4741099996754,3.0,1.0,phase_3,,,,,116.0,1.0,464.0,696.0,580.0,232.0,348.0,116.0,green,cross
0.0,1.0,1.0,0.0,7.0,1.0,1640.8643670001766,3.0,1.0,phase_3,,,,,135.0,1.0,135.0,270.0,405.0,810.0,540.0,675.0,magenta,hexagon
0.0,3.0,3.0,0.0,7.0,3.0,1577.4618719988212,3.0,1.0,phase_3,,,,,154.0,1.0,308.0,770.0,154.0,462.0,616.0,924.0,orange,flipped triangle
0.0,3.0,3.0,0.0,7.0,4.0,1685.5941910016554,4.0,1.0,phase_3,,,,,135.0,1.0,675.0,540.0,270.0,135.0,810.0,405.0,orange,flipped triangle
0.0,4.0,4.0,0.0,7.0,2.0,1533.160052000312,4.0,1.0,phase_3,,,,,173.0,1.0,346.0,173.0,865.0,1038.0,519.0,692.0,blue,diamond
0.0,1.0,1.0,0.0,7.0,2.0,1204.7666460002802,4.0,1.0,phase_3,,,,,192.0,1.0,576.0,192.0,768.0,384.0,1152.0,960.0,magenta,hexagon
0.0,8.0,4.0,1.0,7.0,3.0,2423.295186999894,4.0,1.0,phase_3,,,,,1152.0,6.0,192.0,768.0,1152.0,384.0,576.0,960.0,white,triangle
0.0,5.0,1.0,1.0,7.0,1.0,2760.599197999909,4.0,1.0,phase_3,,,,,810.0,6.0,810.0,405.0,675.0,540.0,135.0,270.0,yellow,I
0.0,3.0,3.0,0.0,7.0,5.0,1990.630784001041,4.0,1.0,phase_3,,,,,232.0,2.0,580.0,696.0,464.0,116.0,232.0,348.0,orange,flipped triangle
0.0,6.0,2.0,1.0,7.0,6.0,1243.3656299999711,4.0,1.0,phase_3,,,,,768.0,4.0,1152.0,192.0,384.0,576.0,960.0,768.0,gray,square
0.0,3.0,3.0,0.0,7.0,6.0,2578.986579999764,4.0,1.0,phase_3,,,,,173.0,1.0,519.0,346.0,692.0,1038.0,865.0,173.0,orange,flipped triangle
0.0,8.0,4.0,1.0,7.0,4.0,2261.0629450009583,4.0,1.0,phase_3,,,,,696.0,6.0,116.0,232.0,348.0,696.0,580.0,464.0,white,triangle
0.0,8.0,4.0,1.0,7.0,2.0,1503.7891370011494,4.0,1.0,phase_3,,,,,770.0,5.0,308.0,770.0,462.0,154.0,924.0,616.0,white,triangle
0.0,7.0,3.0,1.0,7.0,1.0,2271.540993999224,4.0,1.0,phase_3,,,,,810.0,6.0,810.0,540.0,675.0,135.0,405.0,270.0,cyan,circle
0.0,7.0,3.0,1.0,7.0,5.0,2815.4591749989777,4.0,1.0,phase_3,,,,,768.0,4.0,1152.0,384.0,576.0,192.0,768.0,960.0,cyan,circle
0.0,3.0,3.0,0.0,7.0,5.0,2003.4608569985721,4.0,1.0,phase_3,,,,,173.0,1.0,865.0,692.0,346.0,1038.0,173.0,519.0,orange,flipped triangle
0.0,6.0,2.0,1.0,7.0,1.0,3348.646799000562,4.0,1.0,phase_3,,,,,810.0,6.0,810.0,675.0,405.0,270.0,540.0,135.0,gray,square
0.0,7.0,3.0,1.0,7.0,3.0,1942.6809160013363,4.0,1.0,phase_3,,,,,770.0,5.0,616.0,308.0,770.0,462.0,154.0,924.0,cyan,circle
0.0,6.0,2.0,1.0,7.0,6.0,1632.2918019995996,4.0,1.0,phase_3,,,,,696.0,6.0,464.0,580.0,232.0,348.0,116.0,696.0,gray,square
0.0,4.0,4.0,0.0,7.0,1.0,2122.525500999473,4.0,1.0,phase_3,,,,,192.0,1.0,192.0,768.0,384.0,1152.0,576.0,960.0,blue,diamond
0.0,8.0,4.0,1.0,7.0,5.0,1591.7791609990672,4.0,1.0,phase_3,,,,,192.0,1.0,384.0,576.0,768.0,960.0,192.0,1152.0,white,triangle
0.0,2.0,2.0,0.0,7.0,4.0,1375.9657030004746,4.0,1.0,phase_3,,,,,192.0,1.0,768.0,576.0,1152.0,192.0,384.0,960.0,green,cross
0.0,8.0,4.0,1.0,7.0,1.0,2713.2451859997677,4.0,1.0,phase_3,,,,,346.0,2.0,346.0,1038.0,519.0,865.0,173.0,692.0,white,triangle
