raw_reward_magnitude,stim_reward,stepwise_reward_magnitude,paired_with_stopping,stim_location,response,reaction_time,block,num_trial_presentations,which_phase,stop_signal_trial_type,left_SSD,right_SSD,accuracy,chosen_bidding_amount,chosen_bidding_level,possible_bid_1,possible_bid_2,possible_bid_3,possible_bid_4,possible_bid_5,possible_bid_6,color_text,shape_text
345.0,2.0,2.0,0.0,1.0,1.0,334.7338109999782,1.0,1.0,phase_1,,,,,,,,,,,,,cyan,hexagon
0.0,5.0,0.0,1.0,4.0,4.0,408.6270049999712,1.0,1.0,phase_1,,,,,,,,,,,,,yellow,square
0.0,4.0,0.0,0.0,2.0,2.0,788.2374650000656,1.0,1.0,phase_1,,,,,,,,,,,,,white,flipped triangle
631.0,3.0,3.0,0.0,1.0,1.0,372.7149120002195,1.0,1.0,phase_1,,,,,,,,,,,,,orange,cross
334.0,6.0,2.0,1.0,2.0,2.0,419.139671999801,1.0,1.0,phase_1,,,,,,,,,,,,,magenta,circle
0.0,2.0,0.0,0.0,1.0,1.0,370.5156299999999,1.0,1.0,phase_1,,,,,,,,,,,,,cyan,hexagon
637.0,7.0,3.0,1.0,3.0,3.0,342.7714120000473,1.0,1.0,phase_1,,,,,,,,,,,,,blue,triangle
0.0,3.0,0.0,0.0,4.0,4.0,363.0763889998434,1.0,1.0,phase_1,,,,,,,,,,,,,orange,cross
1304.0,8.0,4.0,1.0,2.0,2.0,454.3878829999812,1.0,1.0,phase_1,,,,,,,,,,,,,green,I
345.0,6.0,2.0,1.0,3.0,3.0,410.7890640000278,1.0,1.0,phase_1,,,,,,,,,,,,,magenta,circle
0.0,4.0,0.0,0.0,3.0,3.0,363.7373900000966,1.0,1.0,phase_1,,,,,,,,,,,,,white,flipped triangle
329.0,2.0,2.0,0.0,2.0,2.0,408.211485000038,1.0,1.0,phase_1,,,,,,,,,,,,,cyan,hexagon
1281.0,8.0,4.0,1.0,4.0,4.0,307.1800929999426,1.0,1.0,phase_1,,,,,,,,,,,,,green,I
0.0,1.0,0.0,0.0,3.0,3.0,388.719779999974,1.0,1.0,phase_1,,,,,,,,,,,,,gray,diamond
324.0,6.0,2.0,1.0,4.0,4.0,390.4097239999373,1.0,1.0,phase_1,,,,,,,,,,,,,magenta,circle
0.0,2.0,0.0,0.0,1.0,1.0,361.8836350001402,1.0,1.0,phase_1,,,,,,,,,,,,,cyan,hexagon
0.0,6.0,0.0,1.0,2.0,2.0,446.1393910000879,1.0,1.0,phase_1,,,,,,,,,,,,,magenta,circle
138.0,5.0,1.0,1.0,1.0,1.0,398.5544499998923,1.0,1.0,phase_1,,,,,,,,,,,,,yellow,square
673.0,3.0,3.0,0.0,2.0,2.0,464.4265469999027,1.0,1.0,phase_1,,,,,,,,,,,,,orange,cross
139.0,5.0,1.0,1.0,4.0,4.0,334.3070620001072,1.0,1.0,phase_1,,,,,,,,,,,,,yellow,square
1292.0,8.0,4.0,1.0,2.0,2.0,369.4712720000552,1.0,1.0,phase_1,,,,,,,,,,,,,green,I
672.0,7.0,3.0,1.0,2.0,2.0,408.0013029999918,1.0,1.0,phase_1,,,,,,,,,,,,,blue,triangle
172.0,5.0,1.0,1.0,4.0,4.0,418.4874699999454,1.0,1.0,phase_1,,,,,,,,,,,,,yellow,square
1293.0,8.0,4.0,1.0,4.0,4.0,325.0326869999753,1.0,1.0,phase_1,,,,,,,,,,,,,green,I
318.0,2.0,2.0,0.0,1.0,1.0,370.7251730002099,1.0,1.0,phase_1,,,,,,,,,,,,,cyan,hexagon
161.0,5.0,1.0,1.0,3.0,3.0,380.7227530001,1.0,1.0,phase_1,,,,,,,,,,,,,yellow,square
1297.0,4.0,4.0,0.0,2.0,2.0,556.147540999973,1.0,1.0,phase_1,,,,,,,,,,,,,white,flipped triangle
152.0,1.0,1.0,0.0,3.0,3.0,363.2979040000919,1.0,1.0,phase_1,,,,,,,,,,,,,gray,diamond
157.0,1.0,1.0,0.0,2.0,2.0,371.7781850000392,1.0,1.0,phase_1,,,,,,,,,,,,,gray,diamond
648.0,7.0,3.0,1.0,4.0,4.0,325.4309419999117,1.0,1.0,phase_1,,,,,,,,,,,,,blue,triangle
1293.0,4.0,4.0,0.0,3.0,3.0,323.9389170000777,1.0,1.0,phase_1,,,,,,,,,,,,,white,flipped triangle
637.0,7.0,3.0,1.0,1.0,1.0,324.1824809999798,1.0,1.0,phase_1,,,,,,,,,,,,,blue,triangle
1312.0,4.0,4.0,0.0,3.0,3.0,306.8862439999975,1.0,1.0,phase_1,,,,,,,,,,,,,white,flipped triangle
336.0,6.0,2.0,1.0,2.0,2.0,420.4027749999568,1.0,1.0,phase_1,,,,,,,,,,,,,magenta,circle
318.0,6.0,2.0,1.0,2.0,2.0,467.7248440000312,1.0,1.0,phase_1,,,,,,,,,,,,,magenta,circle
1285.0,8.0,4.0,1.0,3.0,3.0,343.203042000141,1.0,1.0,phase_1,,,,,,,,,,,,,green,I
342.0,6.0,2.0,1.0,1.0,1.0,352.433726000072,1.0,1.0,phase_1,,,,,,,,,,,,,magenta,circle
161.0,1.0,1.0,0.0,3.0,3.0,352.2727609999947,1.0,1.0,phase_1,,,,,,,,,,,,,gray,diamond
672.0,3.0,3.0,0.0,2.0,2.0,465.1730539999335,1.0,1.0,phase_1,,,,,,,,,,,,,orange,cross
346.0,6.0,2.0,1.0,2.0,2.0,343.0531869998958,1.0,1.0,phase_1,,,,,,,,,,,,,magenta,circle
0.0,5.0,0.0,1.0,4.0,4.0,324.4363829999201,1.0,1.0,phase_1,,,,,,,,,,,,,yellow,square
1307.0,8.0,4.0,1.0,4.0,4.0,372.0619440000519,1.0,1.0,phase_1,,,,,,,,,,,,,green,I
628.0,7.0,3.0,1.0,3.0,3.0,343.4581540000181,1.0,1.0,phase_1,,,,,,,,,,,,,blue,triangle
318.0,2.0,2.0,0.0,4.0,4.0,335.3601090000211,1.0,1.0,phase_1,,,,,,,,,,,,,cyan,hexagon
1277.0,4.0,4.0,0.0,4.0,4.0,343.8380509999206,1.0,1.0,phase_1,,,,,,,,,,,,,white,flipped triangle
628.0,3.0,3.0,0.0,2.0,2.0,334.4885730000442,1.0,1.0,phase_1,,,,,,,,,,,,,orange,cross
327.0,6.0,2.0,1.0,3.0,3.0,278.4940340000048,1.0,1.0,phase_1,,,,,,,,,,,,,magenta,circle
313.0,2.0,2.0,0.0,1.0,1.0,363.1663660000868,1.0,1.0,phase_1,,,,,,,,,,,,,cyan,hexagon
1283.0,4.0,4.0,0.0,4.0,4.0,398.30920899999,1.0,1.0,phase_1,,,,,,,,,,,,,white,flipped triangle
303.0,2.0,2.0,0.0,3.0,3.0,335.6452519999493,1.0,1.0,phase_1,,,,,,,,,,,,,cyan,hexagon
1314.0,8.0,4.0,1.0,3.0,3.0,371.2682249999943,1.0,1.0,phase_1,,,,,,,,,,,,,green,I
0.0,1.0,0.0,0.0,1.0,1.0,344.7968540001511,1.0,1.0,phase_1,,,,,,,,,,,,,gray,diamond
0.0,6.0,0.0,1.0,3.0,3.0,380.6297630001154,1.0,1.0,phase_1,,,,,,,,,,,,,magenta,circle
658.0,3.0,3.0,0.0,2.0,2.0,334.0507600000819,1.0,1.0,phase_1,,,,,,,,,,,,,orange,cross
347.0,2.0,2.0,0.0,1.0,1.0,528.2890739999857,1.0,1.0,phase_1,,,,,,,,,,,,,cyan,hexagon
0.0,7.0,0.0,1.0,2.0,2.0,343.1388490000699,1.0,1.0,phase_1,,,,,,,,,,,,,blue,triangle
647.0,7.0,3.0,1.0,2.0,2.0,363.3137930000885,1.0,1.0,phase_1,,,,,,,,,,,,,blue,triangle
1295.0,8.0,4.0,1.0,1.0,1.0,333.9250479998554,1.0,1.0,phase_1,,,,,,,,,,,,,green,I
1306.0,8.0,4.0,1.0,3.0,3.0,325.288564000175,1.0,1.0,phase_1,,,,,,,,,,,,,green,I
313.0,6.0,2.0,1.0,4.0,4.0,353.6110759998792,1.0,1.0,phase_1,,,,,,,,,,,,,magenta,circle
0.0,8.0,0.0,1.0,2.0,2.0,344.0543149999939,1.0,1.0,phase_1,,,,,,,,,,,,,green,I
1325.0,8.0,4.0,1.0,2.0,2.0,352.8790650000246,1.0,1.0,phase_1,,,,,,,,,,,,,green,I
334.0,2.0,2.0,0.0,2.0,2.0,352.5573849999546,1.0,1.0,phase_1,,,,,,,,,,,,,cyan,hexagon
306.0,6.0,2.0,1.0,3.0,3.0,389.8997109999982,1.0,1.0,phase_1,,,,,,,,,,,,,magenta,circle
1287.0,4.0,4.0,0.0,1.0,1.0,306.5892570000414,1.0,1.0,phase_1,,,,,,,,,,,,,white,flipped triangle
672.0,3.0,3.0,0.0,4.0,4.0,398.3310759999767,1.0,1.0,phase_1,,,,,,,,,,,,,orange,cross
1296.0,8.0,4.0,1.0,2.0,2.0,371.3473709999562,1.0,1.0,phase_1,,,,,,,,,,,,,green,I
337.0,6.0,2.0,1.0,3.0,3.0,362.868280000157,1.0,1.0,phase_1,,,,,,,,,,,,,magenta,circle
1279.0,8.0,4.0,1.0,2.0,2.0,407.9519770000388,1.0,1.0,phase_1,,,,,,,,,,,,,green,I
1298.0,4.0,4.0,0.0,3.0,3.0,315.463378000004,1.0,1.0,phase_1,,,,,,,,,,,,,white,flipped triangle
658.0,7.0,3.0,1.0,2.0,2.0,333.9180290001877,1.0,1.0,phase_1,,,,,,,,,,,,,blue,triangle
629.0,7.0,3.0,1.0,4.0,4.0,378.3587820000775,1.0,1.0,phase_1,,,,,,,,,,,,,blue,triangle
0.0,6.0,0.0,1.0,4.0,4.0,334.631470999966,1.0,1.0,phase_1,,,,,,,,,,,,,magenta,circle
306.0,2.0,2.0,0.0,2.0,2.0,417.8397650000534,1.0,1.0,phase_1,,,,,,,,,,,,,cyan,hexagon
149.0,5.0,1.0,1.0,2.0,2.0,371.7416269998921,1.0,1.0,phase_1,,,,,,,,,,,,,yellow,square
637.0,3.0,3.0,0.0,4.0,4.0,354.0488460000688,1.0,1.0,phase_1,,,,,,,,,,,,,orange,cross
1309.0,4.0,4.0,0.0,4.0,4.0,361.9515489999685,1.0,1.0,phase_1,,,,,,,,,,,,,white,flipped triangle
665.0,3.0,3.0,0.0,3.0,3.0,344.6931769999537,1.0,1.0,phase_1,,,,,,,,,,,,,orange,cross
1319.0,8.0,4.0,1.0,4.0,4.0,296.7368639999677,1.0,1.0,phase_1,,,,,,,,,,,,,green,I
658.0,7.0,3.0,1.0,1.0,1.0,316.0813469999084,1.0,1.0,phase_1,,,,,,,,,,,,,blue,triangle
318.0,2.0,2.0,0.0,1.0,1.0,335.0895779999518,1.0,1.0,phase_1,,,,,,,,,,,,,cyan,hexagon
1325.0,4.0,4.0,0.0,2.0,2.0,621.1478320001333,1.0,1.0,phase_1,,,,,,,,,,,,,white,flipped triangle
310.0,6.0,2.0,1.0,4.0,4.0,381.0481880000225,1.0,1.0,phase_1,,,,,,,,,,,,,magenta,circle
173.0,1.0,1.0,0.0,2.0,2.0,362.0743919998404,1.0,1.0,phase_1,,,,,,,,,,,,,gray,diamond
309.0,2.0,2.0,0.0,2.0,2.0,307.7192010000544,1.0,1.0,phase_1,,,,,,,,,,,,,cyan,hexagon
339.0,2.0,2.0,0.0,1.0,1.0,344.7429440000178,1.0,1.0,phase_1,,,,,,,,,,,,,cyan,hexagon
631.0,7.0,3.0,1.0,3.0,3.0,352.5588619997961,1.0,1.0,phase_1,,,,,,,,,,,,,blue,triangle
1324.0,4.0,4.0,0.0,2.0,2.0,363.0863490000138,1.0,1.0,phase_1,,,,,,,,,,,,,white,flipped triangle
138.0,1.0,1.0,0.0,2.0,2.0,491.5363400000387,1.0,1.0,phase_1,,,,,,,,,,,,,gray,diamond
0.0,5.0,0.0,1.0,2.0,2.0,482.2614559998328,1.0,1.0,phase_1,,,,,,,,,,,,,yellow,square
665.0,7.0,3.0,1.0,4.0,4.0,335.1247010000406,1.0,1.0,phase_1,,,,,,,,,,,,,blue,triangle
626.0,7.0,3.0,1.0,4.0,4.0,334.3883029999688,1.0,1.0,phase_1,,,,,,,,,,,,,blue,triangle
185.0,5.0,1.0,1.0,4.0,4.0,379.7092080001221,1.0,2.0,phase_1,,,,,,,,,,,,,yellow,square
333.0,6.0,2.0,1.0,1.0,1.0,510.95515800011526,1.0,1.0,phase_1,,,,,,,,,,,,,magenta,circle
161.0,1.0,1.0,0.0,2.0,2.0,388.6545049999768,1.0,1.0,phase_1,,,,,,,,,,,,,gray,diamond
660.0,3.0,3.0,0.0,4.0,4.0,426.5836520000903,1.0,1.0,phase_1,,,,,,,,,,,,,orange,cross
1307.0,8.0,4.0,1.0,4.0,4.0,352.2203289999197,1.0,1.0,phase_1,,,,,,,,,,,,,green,I
1306.0,4.0,4.0,0.0,3.0,3.0,372.3347699999522,1.0,1.0,phase_1,,,,,,,,,,,,,white,flipped triangle
1285.0,4.0,4.0,0.0,3.0,3.0,361.5550340000482,1.0,1.0,phase_1,,,,,,,,,,,,,white,flipped triangle
674.0,7.0,3.0,1.0,1.0,1.0,538.078816000052,1.0,1.0,phase_1,,,,,,,,,,,,,blue,triangle
0.0,7.0,0.0,1.0,1.0,1.0,474.1654219999418,2.0,1.0,phase_1,,,,,,,,,,,,,blue,triangle
0.0,3.0,0.0,0.0,3.0,3.0,428.8223250000555,2.0,1.0,phase_1,,,,,,,,,,,,,orange,cross
1279.0,4.0,4.0,0.0,4.0,4.0,362.3079499998312,2.0,1.0,phase_1,,,,,,,,,,,,,white,flipped triangle
1284.0,4.0,4.0,0.0,3.0,3.0,353.1938660000833,2.0,1.0,phase_1,,,,,,,,,,,,,white,flipped triangle
143.0,5.0,1.0,1.0,1.0,1.0,353.6743159997968,2.0,1.0,phase_1,,,,,,,,,,,,,yellow,square
638.0,7.0,3.0,1.0,1.0,1.0,343.6791699998593,2.0,1.0,phase_1,,,,,,,,,,,,,blue,triangle
324.0,6.0,2.0,1.0,1.0,1.0,677.1656829998847,2.0,1.0,phase_1,,,,,,,,,,,,,magenta,circle
1296.0,8.0,4.0,1.0,4.0,4.0,390.7462050001413,2.0,1.0,phase_1,,,,,,,,,,,,,green,I
0.0,3.0,0.0,0.0,3.0,3.0,353.4038699999655,2.0,1.0,phase_1,,,,,,,,,,,,,orange,cross
663.0,3.0,3.0,0.0,4.0,4.0,353.1578480001371,2.0,1.0,phase_1,,,,,,,,,,,,,orange,cross
641.0,7.0,3.0,1.0,4.0,4.0,334.9805570001081,2.0,1.0,phase_1,,,,,,,,,,,,,blue,triangle
183.0,1.0,1.0,0.0,3.0,3.0,353.6111930000061,2.0,1.0,phase_1,,,,,,,,,,,,,gray,diamond
0.0,7.0,0.0,1.0,2.0,2.0,399.1622900000493,2.0,1.0,phase_1,,,,,,,,,,,,,blue,triangle
1278.0,4.0,4.0,0.0,3.0,3.0,352.3491430000831,2.0,1.0,phase_1,,,,,,,,,,,,,white,flipped triangle
306.0,6.0,2.0,1.0,2.0,2.0,371.6918719999285,2.0,1.0,phase_1,,,,,,,,,,,,,magenta,circle
0.0,2.0,0.0,0.0,2.0,2.0,399.9012540000422,2.0,1.0,phase_1,,,,,,,,,,,,,cyan,hexagon
661.0,7.0,3.0,1.0,2.0,2.0,362.7868260000468,2.0,1.0,phase_1,,,,,,,,,,,,,blue,triangle
185.0,1.0,1.0,0.0,2.0,2.0,353.0117729999347,2.0,1.0,phase_1,,,,,,,,,,,,,gray,diamond
143.0,1.0,1.0,0.0,4.0,4.0,334.6569660000114,2.0,1.0,phase_1,,,,,,,,,,,,,gray,diamond
181.0,5.0,1.0,1.0,2.0,2.0,335.7738450001761,2.0,1.0,phase_1,,,,,,,,,,,,,yellow,square
669.0,3.0,3.0,0.0,1.0,1.0,362.0099930001288,2.0,1.0,phase_1,,,,,,,,,,,,,orange,cross
1304.0,4.0,4.0,0.0,3.0,3.0,389.2566730000908,2.0,1.0,phase_1,,,,,,,,,,,,,white,flipped triangle
172.0,1.0,1.0,0.0,4.0,4.0,342.7532189998601,2.0,1.0,phase_1,,,,,,,,,,,,,gray,diamond
656.0,3.0,3.0,0.0,2.0,2.0,407.9206950000298,2.0,1.0,phase_1,,,,,,,,,,,,,orange,cross
322.0,2.0,2.0,0.0,1.0,1.0,445.8388210000521,2.0,1.0,phase_1,,,,,,,,,,,,,cyan,hexagon
0.0,3.0,0.0,0.0,4.0,4.0,370.7594349998544,2.0,1.0,phase_1,,,,,,,,,,,,,orange,cross
645.0,3.0,3.0,0.0,3.0,3.0,352.557915000034,2.0,1.0,phase_1,,,,,,,,,,,,,orange,cross
0.0,6.0,0.0,1.0,4.0,4.0,361.7560309999135,2.0,1.0,phase_1,,,,,,,,,,,,,magenta,circle
303.0,6.0,2.0,1.0,4.0,4.0,407.5103889999809,2.0,1.0,phase_1,,,,,,,,,,,,,magenta,circle
152.0,5.0,1.0,1.0,4.0,4.0,362.6783520001027,2.0,1.0,phase_1,,,,,,,,,,,,,yellow,square
0.0,2.0,0.0,0.0,2.0,2.0,491.5863139999601,2.0,1.0,phase_1,,,,,,,,,,,,,cyan,hexagon
0.0,7.0,0.0,1.0,1.0,1.0,481.833435999988,2.0,1.0,phase_1,,,,,,,,,,,,,blue,triangle
654.0,7.0,3.0,1.0,2.0,2.0,415.697180999814,2.0,1.0,phase_1,,,,,,,,,,,,,blue,triangle
304.0,2.0,2.0,0.0,3.0,3.0,408.9879460000247,2.0,1.0,phase_1,,,,,,,,,,,,,cyan,hexagon
185.0,5.0,1.0,1.0,1.0,1.0,471.3491190000241,2.0,1.0,phase_1,,,,,,,,,,,,,yellow,square
156.0,1.0,1.0,0.0,1.0,1.0,398.6667740000484,2.0,1.0,phase_1,,,,,,,,,,,,,gray,diamond
178.0,1.0,1.0,0.0,3.0,3.0,390.5651580000722,2.0,1.0,phase_1,,,,,,,,,,,,,gray,diamond
144.0,1.0,1.0,0.0,3.0,3.0,341.8093630000385,2.0,1.0,phase_1,,,,,,,,,,,,,gray,diamond
631.0,7.0,3.0,1.0,2.0,2.0,438.9194350001162,2.0,1.0,phase_1,,,,,,,,,,,,,blue,triangle
0.0,1.0,0.0,0.0,2.0,2.0,379.1253869999309,2.0,1.0,phase_1,,,,,,,,,,,,,gray,diamond
0.0,4.0,0.0,0.0,4.0,4.0,398.7377129999458,2.0,1.0,phase_1,,,,,,,,,,,,,white,flipped triangle
331.0,6.0,2.0,1.0,3.0,3.0,379.0959790001125,2.0,1.0,phase_1,,,,,,,,,,,,,magenta,circle
338.0,2.0,2.0,0.0,3.0,3.0,482.7393729999585,2.0,1.0,phase_1,,,,,,,,,,,,,cyan,hexagon
0.0,7.0,0.0,1.0,1.0,1.0,353.5018239999772,2.0,1.0,phase_1,,,,,,,,,,,,,blue,triangle
1277.0,8.0,4.0,1.0,4.0,4.0,352.2401769998851,2.0,1.0,phase_1,,,,,,,,,,,,,green,I
183.0,5.0,1.0,1.0,4.0,4.0,342.7638690000094,2.0,1.0,phase_1,,,,,,,,,,,,,yellow,square
342.0,2.0,2.0,0.0,3.0,3.0,360.5505640000501,2.0,1.0,phase_1,,,,,,,,,,,,,cyan,hexagon
0.0,6.0,0.0,1.0,3.0,3.0,361.9104379999953,2.0,1.0,phase_1,,,,,,,,,,,,,magenta,circle
337.0,6.0,2.0,1.0,4.0,4.0,406.7245910000565,2.0,1.0,phase_1,,,,,,,,,,,,,magenta,circle
0.0,8.0,0.0,1.0,2.0,2.0,425.630129999945,2.0,1.0,phase_1,,,,,,,,,,,,,green,I
643.0,7.0,3.0,1.0,4.0,4.0,361.324156999899,2.0,1.0,phase_1,,,,,,,,,,,,,blue,triangle
1279.0,4.0,4.0,0.0,2.0,2.0,842.8222920001645,2.0,1.0,phase_1,,,,,,,,,,,,,white,flipped triangle
1324.0,8.0,4.0,1.0,2.0,2.0,483.8216209998336,2.0,1.0,phase_1,,,,,,,,,,,,,green,I
183.0,5.0,1.0,1.0,4.0,4.0,315.1598899999044,2.0,1.0,phase_1,,,,,,,,,,,,,yellow,square
637.0,3.0,3.0,0.0,4.0,4.0,351.9818309998754,2.0,1.0,phase_1,,,,,,,,,,,,,orange,cross
1287.0,8.0,4.0,1.0,3.0,3.0,361.8844239999816,2.0,1.0,phase_1,,,,,,,,,,,,,green,I
304.0,6.0,2.0,1.0,1.0,1.0,472.8013240001019,2.0,1.0,phase_1,,,,,,,,,,,,,magenta,circle
1297.0,8.0,4.0,1.0,4.0,4.0,315.7206099999712,2.0,1.0,phase_1,,,,,,,,,,,,,green,I
638.0,3.0,3.0,0.0,1.0,1.0,369.5647960000769,2.0,1.0,phase_1,,,,,,,,,,,,,orange,cross
672.0,7.0,3.0,1.0,1.0,1.0,379.5656059999146,2.0,1.0,phase_1,,,,,,,,,,,,,blue,triangle
161.0,1.0,1.0,0.0,4.0,4.0,352.9895219999162,2.0,1.0,phase_1,,,,,,,,,,,,,gray,diamond
663.0,7.0,3.0,1.0,4.0,4.0,353.5077730000466,2.0,1.0,phase_1,,,,,,,,,,,,,blue,triangle
339.0,6.0,2.0,1.0,1.0,1.0,407.7670199999375,2.0,1.0,phase_1,,,,,,,,,,,,,magenta,circle
137.0,1.0,1.0,0.0,4.0,4.0,340.239277000137,2.0,1.0,phase_1,,,,,,,,,,,,,gray,diamond
327.0,2.0,2.0,0.0,3.0,3.0,361.0352329999386,2.0,1.0,phase_1,,,,,,,,,,,,,cyan,hexagon
0.0,3.0,0.0,0.0,3.0,3.0,364.4765710000683,2.0,1.0,phase_1,,,,,,,,,,,,,orange,cross
163.0,5.0,1.0,1.0,2.0,2.0,407.4270290000186,2.0,1.0,phase_1,,,,,,,,,,,,,yellow,square
140.0,1.0,1.0,0.0,4.0,4.0,324.8240329999134,2.0,1.0,phase_1,,,,,,,,,,,,,gray,diamond
660.0,7.0,3.0,1.0,3.0,3.0,343.264703999921,2.0,1.0,phase_1,,,,,,,,,,,,,blue,triangle
163.0,1.0,1.0,0.0,3.0,3.0,379.427011999951,2.0,1.0,phase_1,,,,,,,,,,,,,gray,diamond
626.0,3.0,3.0,0.0,3.0,3.0,353.1206929999371,2.0,1.0,phase_1,,,,,,,,,,,,,orange,cross
1302.0,8.0,4.0,1.0,1.0,1.0,352.1935960000064,2.0,1.0,phase_1,,,,,,,,,,,,,green,I
1297.0,4.0,4.0,0.0,4.0,4.0,371.8073340000956,2.0,1.0,phase_1,,,,,,,,,,,,,white,flipped triangle
656.0,3.0,3.0,0.0,4.0,4.0,341.4017370000692,2.0,1.0,phase_1,,,,,,,,,,,,,orange,cross
0.0,1.0,0.0,0.0,4.0,4.0,408.3042300001125,2.0,1.0,phase_1,,,,,,,,,,,,,gray,diamond
331.0,2.0,2.0,0.0,4.0,4.0,379.4639370000823,2.0,1.0,phase_1,,,,,,,,,,,,,cyan,hexagon
647.0,7.0,3.0,1.0,3.0,3.0,425.8967050000137,2.0,1.0,phase_1,,,,,,,,,,,,,blue,triangle
674.0,3.0,3.0,0.0,3.0,3.0,371.4398509998773,2.0,1.0,phase_1,,,,,,,,,,,,,orange,cross
1292.0,4.0,4.0,0.0,1.0,1.0,398.76930000014,2.0,1.0,phase_1,,,,,,,,,,,,,white,flipped triangle
1294.0,8.0,4.0,1.0,3.0,3.0,361.2195969999447,2.0,1.0,phase_1,,,,,,,,,,,,,green,I
172.0,1.0,1.0,0.0,3.0,3.0,369.4707550000657,2.0,1.0,phase_1,,,,,,,,,,,,,gray,diamond
169.0,5.0,1.0,1.0,1.0,1.0,444.6405759999834,2.0,1.0,phase_1,,,,,,,,,,,,,yellow,square
637.0,7.0,3.0,1.0,3.0,3.0,351.6205390001232,2.0,1.0,phase_1,,,,,,,,,,,,,blue,triangle
0.0,1.0,0.0,0.0,2.0,2.0,397.7055859998017,2.0,1.0,phase_1,,,,,,,,,,,,,gray,diamond
183.0,5.0,1.0,1.0,3.0,3.0,344.0741889999117,2.0,1.0,phase_1,,,,,,,,,,,,,yellow,square
167.0,5.0,1.0,1.0,1.0,1.0,435.6648939999559,2.0,1.0,phase_1,,,,,,,,,,,,,yellow,square
665.0,7.0,3.0,1.0,1.0,1.0,390.089941999804,2.0,1.0,phase_1,,,,,,,,,,,,,blue,triangle
337.0,2.0,2.0,0.0,3.0,3.0,333.5718969999561,2.0,1.0,phase_1,,,,,,,,,,,,,cyan,hexagon
1285.0,8.0,4.0,1.0,4.0,4.0,371.3437210001302,2.0,1.0,phase_1,,,,,,,,,,,,,green,I
1315.0,4.0,4.0,0.0,1.0,1.0,370.6997629999478,2.0,1.0,phase_1,,,,,,,,,,,,,white,flipped triangle
315.0,6.0,2.0,1.0,2.0,2.0,425.4900099999759,2.0,1.0,phase_1,,,,,,,,,,,,,magenta,circle
662.0,7.0,3.0,1.0,3.0,3.0,380.9386860000359,2.0,1.0,phase_1,,,,,,,,,,,,,blue,triangle
1297.0,8.0,4.0,1.0,1.0,1.0,454.5801480001046,2.0,1.0,phase_1,,,,,,,,,,,,,green,I
633.0,7.0,3.0,1.0,2.0,2.0,370.0717720000739,2.0,1.0,phase_1,,,,,,,,,,,,,blue,triangle
183.0,1.0,1.0,0.0,2.0,2.0,351.6988029998629,2.0,1.0,phase_1,,,,,,,,,,,,,gray,diamond
1279.0,8.0,4.0,1.0,3.0,3.0,399.7261409999737,2.0,1.0,phase_1,,,,,,,,,,,,,green,I
0.0,8.0,0.0,1.0,2.0,2.0,453.2340670000394,2.0,1.0,phase_1,,,,,,,,,,,,,green,I
0.0,5.0,0.0,1.0,3.0,3.0,371.4624589999857,2.0,1.0,phase_1,,,,,,,,,,,,,yellow,square
633.0,3.0,3.0,0.0,3.0,3.0,381.7936139998892,2.0,1.0,phase_1,,,,,,,,,,,,,orange,cross
1279.0,8.0,4.0,1.0,1.0,1.0,474.6293919999971,2.0,1.0,phase_1,,,,,,,,,,,,,green,I
665.0,3.0,3.0,0.0,1.0,1.0,379.0527119999751,3.0,1.0,phase_1,,,,,,,,,,,,,orange,cross
322.0,6.0,2.0,1.0,1.0,1.0,381.1092380001355,3.0,1.0,phase_1,,,,,,,,,,,,,magenta,circle
640.0,3.0,3.0,0.0,4.0,4.0,408.2524540001486,3.0,1.0,phase_1,,,,,,,,,,,,,orange,cross
166.0,5.0,1.0,1.0,2.0,2.0,382.2329050001372,3.0,1.0,phase_1,,,,,,,,,,,,,yellow,square
153.0,5.0,1.0,1.0,1.0,1.0,399.1691510000237,3.0,1.0,phase_1,,,,,,,,,,,,,yellow,square
1319.0,4.0,4.0,0.0,2.0,2.0,361.2095299999964,3.0,1.0,phase_1,,,,,,,,,,,,,white,flipped triangle
0.0,2.0,0.0,0.0,4.0,4.0,354.4080829999529,3.0,1.0,phase_1,,,,,,,,,,,,,cyan,hexagon
185.0,1.0,1.0,0.0,1.0,1.0,324.2588739999519,3.0,1.0,phase_1,,,,,,,,,,,,,gray,diamond
324.0,2.0,2.0,0.0,1.0,1.0,362.4426369999582,3.0,1.0,phase_1,,,,,,,,,,,,,cyan,hexagon
0.0,4.0,0.0,0.0,1.0,1.0,380.8170170000267,3.0,1.0,phase_1,,,,,,,,,,,,,white,flipped triangle
169.0,1.0,1.0,0.0,3.0,3.0,390.8262859999922,3.0,1.0,phase_1,,,,,,,,,,,,,gray,diamond
140.0,5.0,1.0,1.0,1.0,1.0,408.25385800008,3.0,1.0,phase_1,,,,,,,,,,,,,yellow,square
345.0,2.0,2.0,0.0,3.0,3.0,362.5743169998259,3.0,1.0,phase_1,,,,,,,,,,,,,cyan,hexagon
0.0,5.0,0.0,1.0,1.0,1.0,381.682906000151,3.0,1.0,phase_1,,,,,,,,,,,,,yellow,square
325.0,6.0,2.0,1.0,2.0,2.0,427.5689539999803,3.0,1.0,phase_1,,,,,,,,,,,,,magenta,circle
0.0,7.0,0.0,1.0,4.0,4.0,361.3576919999559,3.0,1.0,phase_1,,,,,,,,,,,,,blue,triangle
0.0,5.0,0.0,1.0,3.0,3.0,371.0834000000886,3.0,1.0,phase_1,,,,,,,,,,,,,yellow,square
0.0,1.0,0.0,0.0,1.0,1.0,353.1097479999516,3.0,1.0,phase_1,,,,,,,,,,,,,gray,diamond
644.0,3.0,3.0,0.0,4.0,4.0,382.7361140001812,3.0,1.0,phase_1,,,,,,,,,,,,,orange,cross
1294.0,4.0,4.0,0.0,2.0,2.0,372.0089720000032,3.0,1.0,phase_1,,,,,,,,,,,,,white,flipped triangle
183.0,1.0,1.0,0.0,2.0,2.0,456.069861999822,3.0,1.0,phase_1,,,,,,,,,,,,,gray,diamond
331.0,6.0,2.0,1.0,3.0,3.0,417.7616599999965,3.0,1.0,phase_1,,,,,,,,,,,,,magenta,circle
667.0,3.0,3.0,0.0,2.0,2.0,352.6733319999948,3.0,1.0,phase_1,,,,,,,,,,,,,orange,cross
654.0,3.0,3.0,0.0,3.0,3.0,333.7539049998668,3.0,1.0,phase_1,,,,,,,,,,,,,orange,cross
144.0,5.0,1.0,1.0,3.0,3.0,379.9231079999572,3.0,1.0,phase_1,,,,,,,,,,,,,yellow,square
0.0,6.0,0.0,1.0,2.0,2.0,380.6689509999614,3.0,1.0,phase_1,,,,,,,,,,,,,magenta,circle
1323.0,8.0,4.0,1.0,2.0,2.0,371.0865150001154,3.0,1.0,phase_1,,,,,,,,,,,,,green,I
1285.0,4.0,4.0,0.0,1.0,1.0,416.6738819999409,3.0,1.0,phase_1,,,,,,,,,,,,,white,flipped triangle
164.0,5.0,1.0,1.0,3.0,3.0,380.9760680001091,3.0,1.0,phase_1,,,,,,,,,,,,,yellow,square
153.0,1.0,1.0,0.0,1.0,1.0,333.44030499984,3.0,1.0,phase_1,,,,,,,,,,,,,gray,diamond
169.0,5.0,1.0,1.0,4.0,4.0,455.1783919998797,3.0,1.0,phase_1,,,,,,,,,,,,,yellow,square
330.0,2.0,2.0,0.0,4.0,4.0,428.644333999955,3.0,1.0,phase_1,,,,,,,,,,,,,cyan,hexagon
172.0,5.0,1.0,1.0,3.0,3.0,408.989191000046,3.0,1.0,phase_1,,,,,,,,,,,,,yellow,square
1316.0,8.0,4.0,1.0,3.0,3.0,407.8335950000564,3.0,1.0,phase_1,,,,,,,,,,,,,green,I
169.0,1.0,1.0,0.0,4.0,4.0,352.7188079999632,3.0,1.0,phase_1,,,,,,,,,,,,,gray,diamond
329.0,6.0,2.0,1.0,2.0,2.0,426.8172329998378,3.0,1.0,phase_1,,,,,,,,,,,,,magenta,circle
0.0,5.0,0.0,1.0,4.0,4.0,324.3185339999854,3.0,1.0,phase_1,,,,,,,,,,,,,yellow,square
669.0,7.0,3.0,1.0,4.0,4.0,376.0562370000571,3.0,1.0,phase_1,,,,,,,,,,,,,blue,triangle
301.0,2.0,2.0,0.0,2.0,2.0,410.3037630000017,3.0,1.0,phase_1,,,,,,,,,,,,,cyan,hexagon
638.0,7.0,3.0,1.0,3.0,3.0,352.3913330000141,3.0,1.0,phase_1,,,,,,,,,,,,,blue,triangle
176.0,1.0,1.0,0.0,3.0,3.0,353.6570510000274,3.0,1.0,phase_1,,,,,,,,,,,,,gray,diamond
336.0,2.0,2.0,0.0,2.0,2.0,361.658640999849,3.0,1.0,phase_1,,,,,,,,,,,,,cyan,hexagon
1298.0,8.0,4.0,1.0,1.0,1.0,380.8538170001156,3.0,1.0,phase_1,,,,,,,,,,,,,green,I
0.0,8.0,0.0,1.0,1.0,1.0,390.1709010001468,3.0,1.0,phase_1,,,,,,,,,,,,,green,I
1302.0,4.0,4.0,0.0,4.0,4.0,363.19835900008,3.0,1.0,phase_1,,,,,,,,,,,,,white,flipped triangle
652.0,7.0,3.0,1.0,2.0,2.0,398.9712259999578,3.0,1.0,phase_1,,,,,,,,,,,,,blue,triangle
149.0,5.0,1.0,1.0,2.0,2.0,391.6172049998749,3.0,1.0,phase_1,,,,,,,,,,,,,yellow,square
137.0,5.0,1.0,1.0,2.0,2.0,390.2827230001549,3.0,1.0,phase_1,,,,,,,,,,,,,yellow,square
0.0,6.0,0.0,1.0,4.0,4.0,364.138991000118,3.0,1.0,phase_1,,,,,,,,,,,,,magenta,circle
1307.0,4.0,4.0,0.0,4.0,4.0,382.7460739998969,3.0,1.0,phase_1,,,,,,,,,,,,,white,flipped triangle
342.0,6.0,2.0,1.0,4.0,4.0,385.7783679998192,3.0,1.0,phase_1,,,,,,,,,,,,,magenta,circle
0.0,7.0,0.0,1.0,2.0,2.0,493.1965140001466,3.0,1.0,phase_1,,,,,,,,,,,,,blue,triangle
0.0,6.0,0.0,1.0,3.0,3.0,380.8718319999116,3.0,1.0,phase_1,,,,,,,,,,,,,magenta,circle
149.0,1.0,1.0,0.0,2.0,2.0,345.2795680000236,3.0,1.0,phase_1,,,,,,,,,,,,,gray,diamond
0.0,8.0,0.0,1.0,3.0,3.0,354.3467450001571,3.0,1.0,phase_1,,,,,,,,,,,,,green,I
145.0,5.0,1.0,1.0,2.0,2.0,382.7428479999071,3.0,1.0,phase_1,,,,,,,,,,,,,yellow,square
333.0,2.0,2.0,0.0,1.0,1.0,501.37507700014794,3.0,1.0,phase_1,,,,,,,,,,,,,cyan,hexagon
1314.0,4.0,4.0,0.0,2.0,2.0,436.4444809998531,3.0,1.0,phase_1,,,,,,,,,,,,,white,flipped triangle
314.0,2.0,2.0,0.0,2.0,2.0,491.4950789998329,3.0,1.0,phase_1,,,,,,,,,,,,,cyan,hexagon
152.0,5.0,1.0,1.0,1.0,1.0,435.0624720000269,3.0,1.0,phase_1,,,,,,,,,,,,,yellow,square
631.0,7.0,3.0,1.0,2.0,2.0,426.5906149998955,3.0,1.0,phase_1,,,,,,,,,,,,,blue,triangle
304.0,2.0,2.0,0.0,4.0,4.0,389.5435300000827,3.0,1.0,phase_1,,,,,,,,,,,,,cyan,hexagon
0.0,5.0,0.0,1.0,3.0,3.0,456.530007000083,3.0,1.0,phase_1,,,,,,,,,,,,,yellow,square
1324.0,4.0,4.0,0.0,3.0,3.0,464.5375109998895,3.0,1.0,phase_1,,,,,,,,,,,,,white,flipped triangle
170.0,1.0,1.0,0.0,1.0,1.0,604.1008550000697,3.0,1.0,phase_1,,,,,,,,,,,,,gray,diamond
145.0,1.0,1.0,0.0,2.0,2.0,592.6074379999591,3.0,1.0,phase_1,,,,,,,,,,,,,gray,diamond
643.0,3.0,3.0,0.0,3.0,3.0,398.5211090000575,3.0,1.0,phase_1,,,,,,,,,,,,,orange,cross
337.0,2.0,2.0,0.0,4.0,4.0,501.17210400003387,3.0,1.0,phase_1,,,,,,,,,,,,,cyan,hexagon
674.0,7.0,3.0,1.0,1.0,1.0,538.1717949999256,3.0,1.0,phase_1,,,,,,,,,,,,,blue,triangle
304.0,6.0,2.0,1.0,1.0,1.0,400.1765709999745,3.0,1.0,phase_1,,,,,,,,,,,,,magenta,circle
638.0,3.0,3.0,0.0,1.0,1.0,373.1275500001629,3.0,1.0,phase_1,,,,,,,,,,,,,orange,cross
0.0,8.0,0.0,1.0,1.0,1.0,389.1378710000026,3.0,1.0,phase_1,,,,,,,,,,,,,green,I
306.0,2.0,2.0,0.0,4.0,4.0,463.0656439999256,3.0,1.0,phase_1,,,,,,,,,,,,,cyan,hexagon
150.0,5.0,1.0,1.0,1.0,1.0,456.3613249999889,3.0,1.0,phase_1,,,,,,,,,,,,,yellow,square
151.0,5.0,1.0,1.0,3.0,3.0,483.7302189998809,3.0,1.0,phase_1,,,,,,,,,,,,,yellow,square
0.0,2.0,0.0,0.0,1.0,1.0,399.8552119999203,3.0,1.0,phase_1,,,,,,,,,,,,,cyan,hexagon
674.0,3.0,3.0,0.0,2.0,2.0,603.4932570000819,3.0,1.0,phase_1,,,,,,,,,,,,,orange,cross
644.0,7.0,3.0,1.0,4.0,4.0,371.5913700000328,3.0,1.0,phase_1,,,,,,,,,,,,,blue,triangle
166.0,1.0,1.0,0.0,1.0,1.0,381.5445639997961,3.0,1.0,phase_1,,,,,,,,,,,,,gray,diamond
1321.0,4.0,4.0,0.0,1.0,1.0,381.5586089999669,3.0,1.0,phase_1,,,,,,,,,,,,,white,flipped triangle
0.0,8.0,0.0,1.0,3.0,3.0,448.793870000145,3.0,1.0,phase_1,,,,,,,,,,,,,green,I
346.0,2.0,2.0,0.0,2.0,2.0,455.6395540000721,3.0,1.0,phase_1,,,,,,,,,,,,,cyan,hexagon
0.0,1.0,0.0,0.0,2.0,2.0,539.9392419999458,3.0,1.0,phase_1,,,,,,,,,,,,,gray,diamond
0.0,5.0,0.0,1.0,1.0,1.0,399.617353000167,3.0,1.0,phase_1,,,,,,,,,,,,,yellow,square
0.0,3.0,0.0,0.0,1.0,1.0,408.1111359998886,3.0,1.0,phase_1,,,,,,,,,,,,,orange,cross
158.0,5.0,1.0,1.0,3.0,3.0,408.9796709999973,3.0,1.0,phase_1,,,,,,,,,,,,,yellow,square
645.0,7.0,3.0,1.0,2.0,2.0,419.9583100000836,3.0,1.0,phase_1,,,,,,,,,,,,,blue,triangle
0.0,2.0,0.0,0.0,2.0,2.0,363.3240710000791,3.0,1.0,phase_1,,,,,,,,,,,,,cyan,hexagon
346.0,2.0,2.0,0.0,2.0,2.0,342.8296600000067,3.0,1.0,phase_1,,,,,,,,,,,,,cyan,hexagon
314.0,6.0,2.0,1.0,2.0,2.0,379.6796090000498,3.0,1.0,phase_1,,,,,,,,,,,,,magenta,circle
662.0,3.0,3.0,0.0,2.0,2.0,399.048139000115,3.0,1.0,phase_1,,,,,,,,,,,,,orange,cross
318.0,6.0,2.0,1.0,3.0,3.0,398.8211219998447,3.0,1.0,phase_1,,,,,,,,,,,,,magenta,circle
640.0,7.0,3.0,1.0,3.0,3.0,446.4906729999711,3.0,1.0,phase_1,,,,,,,,,,,,,blue,triangle
0.0,6.0,0.0,1.0,1.0,1.0,381.7582689998744,3.0,1.0,phase_1,,,,,,,,,,,,,magenta,circle
0.0,8.0,0.0,1.0,1.0,1.0,390.8529180000641,3.0,1.0,phase_1,,,,,,,,,,,,,green,I
647.0,3.0,3.0,0.0,3.0,3.0,483.4115909998218,3.0,1.0,phase_1,,,,,,,,,,,,,orange,cross
1296.0,4.0,4.0,0.0,1.0,1.0,362.7785520000088,3.0,1.0,phase_1,,,,,,,,,,,,,white,flipped triangle
1293.0,4.0,4.0,0.0,4.0,4.0,390.4734449999978,3.0,1.0,phase_1,,,,,,,,,,,,,white,flipped triangle
0.0,3.0,0.0,0.0,4.0,4.0,502.17228200017416,3.0,1.0,phase_1,,,,,,,,,,,,,orange,cross
0.0,8.0,0.0,1.0,4.0,4.0,372.0734139999422,3.0,1.0,phase_1,,,,,,,,,,,,,green,I
1318.0,8.0,4.0,1.0,1.0,1.0,399.1025350001109,4.0,1.0,phase_1,,,,,,,,,,,,,green,I
0.0,4.0,0.0,0.0,4.0,4.0,361.6907489999903,4.0,1.0,phase_1,,,,,,,,,,,,,white,flipped triangle
629.0,3.0,3.0,0.0,1.0,1.0,426.5600319999976,4.0,1.0,phase_1,,,,,,,,,,,,,orange,cross
0.0,3.0,0.0,0.0,2.0,2.0,361.8845030000557,4.0,1.0,phase_1,,,,,,,,,,,,,orange,cross
167.0,1.0,1.0,0.0,3.0,3.0,342.0080089999828,4.0,1.0,phase_1,,,,,,,,,,,,,gray,diamond
1316.0,4.0,4.0,0.0,4.0,4.0,443.816070999901,4.0,1.0,phase_1,,,,,,,,,,,,,white,flipped triangle
150.0,1.0,1.0,0.0,2.0,2.0,435.7497219998549,4.0,1.0,phase_1,,,,,,,,,,,,,gray,diamond
325.0,6.0,2.0,1.0,4.0,4.0,333.8530420001007,4.0,1.0,phase_1,,,,,,,,,,,,,magenta,circle
151.0,1.0,1.0,0.0,1.0,1.0,352.3206710001432,4.0,1.0,phase_1,,,,,,,,,,,,,gray,diamond
1296.0,4.0,4.0,0.0,1.0,1.0,352.5108359999649,4.0,1.0,phase_1,,,,,,,,,,,,,white,flipped triangle
315.0,2.0,2.0,0.0,1.0,1.0,436.508300000014,4.0,1.0,phase_1,,,,,,,,,,,,,cyan,hexagon
160.0,5.0,1.0,1.0,4.0,4.0,361.4495320000515,4.0,1.0,phase_1,,,,,,,,,,,,,yellow,square
637.0,3.0,3.0,0.0,2.0,2.0,418.2589619999817,4.0,1.0,phase_1,,,,,,,,,,,,,orange,cross
315.0,6.0,2.0,1.0,3.0,3.0,361.6554959999121,4.0,1.0,phase_1,,,,,,,,,,,,,magenta,circle
186.0,1.0,1.0,0.0,4.0,4.0,372.6276610000241,4.0,1.0,phase_1,,,,,,,,,,,,,gray,diamond
1304.0,8.0,4.0,1.0,1.0,1.0,591.7835329996706,4.0,1.0,phase_1,,,,,,,,,,,,,green,I
0.0,2.0,0.0,0.0,4.0,4.0,453.8526090000232,4.0,1.0,phase_1,,,,,,,,,,,,,cyan,hexagon
0.0,4.0,0.0,0.0,2.0,2.0,501.15714300000036,4.0,1.0,phase_1,,,,,,,,,,,,,white,flipped triangle
158.0,1.0,1.0,0.0,1.0,1.0,399.0371009999762,4.0,1.0,phase_1,,,,,,,,,,,,,gray,diamond
345.0,6.0,2.0,1.0,4.0,4.0,381.4786979996825,4.0,1.0,phase_1,,,,,,,,,,,,,magenta,circle
641.0,3.0,3.0,0.0,1.0,1.0,492.2188010000354,4.0,1.0,phase_1,,,,,,,,,,,,,orange,cross
152.0,1.0,1.0,0.0,1.0,1.0,407.9868730000271,4.0,1.0,phase_1,,,,,,,,,,,,,gray,diamond
186.0,5.0,1.0,1.0,4.0,4.0,408.4875969997483,4.0,1.0,phase_1,,,,,,,,,,,,,yellow,square
160.0,1.0,1.0,0.0,4.0,4.0,381.2007619999349,4.0,1.0,phase_1,,,,,,,,,,,,,gray,diamond
0.0,8.0,0.0,1.0,4.0,4.0,362.4184790000981,4.0,1.0,phase_1,,,,,,,,,,,,,green,I
1307.0,4.0,4.0,0.0,1.0,1.0,426.1678230000143,4.0,1.0,phase_1,,,,,,,,,,,,,white,flipped triangle
1321.0,8.0,4.0,1.0,2.0,2.0,500.61164399994595,4.0,1.0,phase_1,,,,,,,,,,,,,green,I
0.0,5.0,0.0,1.0,2.0,2.0,427.5154290003229,4.0,1.0,phase_1,,,,,,,,,,,,,yellow,square
0.0,4.0,0.0,0.0,3.0,3.0,399.104368999815,4.0,1.0,phase_1,,,,,,,,,,,,,white,flipped triangle
0.0,3.0,0.0,0.0,1.0,1.0,464.9292320000313,4.0,1.0,phase_1,,,,,,,,,,,,,orange,cross
313.0,6.0,2.0,1.0,3.0,3.0,472.8466020001178,4.0,1.0,phase_1,,,,,,,,,,,,,magenta,circle
149.0,1.0,1.0,0.0,4.0,4.0,399.7197769999729,4.0,1.0,phase_1,,,,,,,,,,,,,gray,diamond
0.0,6.0,0.0,1.0,4.0,4.0,389.7045849998903,4.0,1.0,phase_1,,,,,,,,,,,,,magenta,circle
1318.0,4.0,4.0,0.0,2.0,2.0,464.7943650002162,4.0,1.0,phase_1,,,,,,,,,,,,,white,flipped triangle
338.0,6.0,2.0,1.0,3.0,3.0,399.0072300002794,4.0,1.0,phase_1,,,,,,,,,,,,,magenta,circle
324.0,2.0,2.0,0.0,4.0,4.0,344.1206390002662,4.0,1.0,phase_1,,,,,,,,,,,,,cyan,hexagon
1295.0,4.0,4.0,0.0,2.0,2.0,585.4915840000103,4.0,1.0,phase_1,,,,,,,,,,,,,white,flipped triangle
1279.0,4.0,4.0,0.0,1.0,1.0,389.2435110001315,4.0,1.0,phase_1,,,,,,,,,,,,,white,flipped triangle
346.0,6.0,2.0,1.0,2.0,2.0,445.7297450003352,4.0,1.0,phase_1,,,,,,,,,,,,,magenta,circle
0.0,1.0,0.0,0.0,4.0,4.0,343.0616349996853,4.0,1.0,phase_1,,,,,,,,,,,,,gray,diamond
178.0,5.0,1.0,1.0,2.0,2.0,444.9454280002101,4.0,2.0,phase_1,,,,,,,,,,,,,yellow,square
318.0,6.0,2.0,1.0,4.0,4.0,389.1683470001226,4.0,1.0,phase_1,,,,,,,,,,,,,magenta,circle
0.0,2.0,0.0,0.0,3.0,3.0,351.0221409997029,4.0,1.0,phase_1,,,,,,,,,,,,,cyan,hexagon
1323.0,4.0,4.0,0.0,1.0,1.0,341.935512999953,4.0,1.0,phase_1,,,,,,,,,,,,,white,flipped triangle
652.0,3.0,3.0,0.0,3.0,3.0,352.7442300000984,4.0,1.0,phase_1,,,,,,,,,,,,,orange,cross
347.0,6.0,2.0,1.0,1.0,1.0,426.6779859999587,4.0,1.0,phase_1,,,,,,,,,,,,,magenta,circle
309.0,6.0,2.0,1.0,1.0,1.0,380.138031000115,4.0,1.0,phase_1,,,,,,,,,,,,,magenta,circle
0.0,2.0,0.0,0.0,1.0,1.0,379.8604930002511,4.0,1.0,phase_1,,,,,,,,,,,,,cyan,hexagon
301.0,6.0,2.0,1.0,1.0,1.0,397.7837740003451,4.0,1.0,phase_1,,,,,,,,,,,,,magenta,circle
0.0,7.0,0.0,1.0,2.0,2.0,417.4931860002289,4.0,1.0,phase_1,,,,,,,,,,,,,blue,triangle
658.0,3.0,3.0,0.0,1.0,1.0,390.0957199998629,4.0,1.0,phase_1,,,,,,,,,,,,,orange,cross
161.0,5.0,1.0,1.0,2.0,2.0,361.8114369996874,4.0,1.0,phase_1,,,,,,,,,,,,,yellow,square
325.0,2.0,2.0,0.0,3.0,3.0,389.2309819998445,4.0,1.0,phase_1,,,,,,,,,,,,,cyan,hexagon
139.0,1.0,1.0,0.0,1.0,1.0,379.8666419997971,4.0,1.0,phase_1,,,,,,,,,,,,,gray,diamond
315.0,2.0,2.0,0.0,2.0,2.0,389.3416089999846,4.0,1.0,phase_1,,,,,,,,,,,,,cyan,hexagon
1296.0,4.0,4.0,0.0,4.0,4.0,353.7343460002375,4.0,1.0,phase_1,,,,,,,,,,,,,white,flipped triangle
325.0,2.0,2.0,0.0,4.0,4.0,501.03336600022885,4.0,1.0,phase_1,,,,,,,,,,,,,cyan,hexagon
331.0,2.0,2.0,0.0,3.0,3.0,361.6850009998416,4.0,1.0,phase_1,,,,,,,,,,,,,cyan,hexagon
1296.0,8.0,4.0,1.0,4.0,4.0,370.7459450001806,4.0,1.0,phase_1,,,,,,,,,,,,,green,I
1304.0,4.0,4.0,0.0,3.0,3.0,381.2642259999848,4.0,1.0,phase_1,,,,,,,,,,,,,white,flipped triangle
342.0,2.0,2.0,0.0,4.0,4.0,399.4795170001453,4.0,1.0,phase_1,,,,,,,,,,,,,cyan,hexagon
181.0,1.0,1.0,0.0,1.0,1.0,389.4400059998588,4.0,1.0,phase_1,,,,,,,,,,,,,gray,diamond
161.0,5.0,1.0,1.0,3.0,3.0,333.9918609999586,4.0,1.0,phase_1,,,,,,,,,,,,,yellow,square
313.0,2.0,2.0,0.0,4.0,4.0,352.3682370000642,4.0,1.0,phase_1,,,,,,,,,,,,,cyan,hexagon
1324.0,8.0,4.0,1.0,3.0,3.0,344.3351949999851,4.0,1.0,phase_1,,,,,,,,,,,,,green,I
673.0,7.0,3.0,1.0,1.0,1.0,556.7997630000718,4.0,1.0,phase_1,,,,,,,,,,,,,blue,triangle
1309.0,8.0,4.0,1.0,3.0,3.0,361.402960000305,4.0,1.0,phase_1,,,,,,,,,,,,,green,I
661.0,3.0,3.0,0.0,1.0,1.0,380.3973200001564,4.0,1.0,phase_1,,,,,,,,,,,,,orange,cross
656.0,7.0,3.0,1.0,1.0,1.0,378.6595280002984,4.0,1.0,phase_1,,,,,,,,,,,,,blue,triangle
1293.0,8.0,4.0,1.0,2.0,2.0,417.5214299998515,4.0,1.0,phase_1,,,,,,,,,,,,,green,I
0.0,1.0,0.0,0.0,1.0,1.0,499.7207599999456,4.0,1.0,phase_1,,,,,,,,,,,,,gray,diamond
310.0,2.0,2.0,0.0,3.0,3.0,361.1968119998892,4.0,1.0,phase_1,,,,,,,,,,,,,cyan,hexagon
1281.0,4.0,4.0,0.0,2.0,2.0,397.496893999687,4.0,1.0,phase_1,,,,,,,,,,,,,white,flipped triangle
157.0,5.0,1.0,1.0,3.0,3.0,382.2544869999547,4.0,1.0,phase_1,,,,,,,,,,,,,yellow,square
0.0,4.0,0.0,0.0,1.0,1.0,592.8613880000739,4.0,1.0,phase_1,,,,,,,,,,,,,white,flipped triangle
0.0,4.0,0.0,0.0,1.0,1.0,480.9778099997857,4.0,1.0,phase_1,,,,,,,,,,,,,white,flipped triangle
173.0,5.0,1.0,1.0,2.0,2.0,378.6809349999203,4.0,1.0,phase_1,,,,,,,,,,,,,yellow,square
631.0,3.0,3.0,0.0,3.0,3.0,380.2006769997206,4.0,1.0,phase_1,,,,,,,,,,,,,orange,cross
170.0,5.0,1.0,1.0,1.0,1.0,379.81040700015,4.0,1.0,phase_1,,,,,,,,,,,,,yellow,square
0.0,3.0,0.0,0.0,3.0,3.0,351.0225509999145,4.0,1.0,phase_1,,,,,,,,,,,,,orange,cross
0.0,4.0,0.0,0.0,2.0,2.0,456.0628110002653,4.0,1.0,phase_1,,,,,,,,,,,,,white,flipped triangle
650.0,7.0,3.0,1.0,4.0,4.0,381.8650520001938,4.0,1.0,phase_1,,,,,,,,,,,,,blue,triangle
0.0,7.0,0.0,1.0,2.0,2.0,353.0602210003053,4.0,1.0,phase_1,,,,,,,,,,,,,blue,triangle
650.0,3.0,3.0,0.0,2.0,2.0,351.595055999951,4.0,1.0,phase_1,,,,,,,,,,,,,orange,cross
1278.0,8.0,4.0,1.0,1.0,1.0,370.5517140001575,4.0,1.0,phase_1,,,,,,,,,,,,,green,I
647.0,3.0,3.0,0.0,4.0,4.0,446.3733929997033,4.0,1.0,phase_1,,,,,,,,,,,,,orange,cross
176.0,5.0,1.0,1.0,4.0,4.0,427.3802070001693,4.0,1.0,phase_1,,,,,,,,,,,,,yellow,square
667.0,7.0,3.0,1.0,3.0,3.0,381.2423459999081,4.0,1.0,phase_1,,,,,,,,,,,,,blue,triangle
1283.0,8.0,4.0,1.0,3.0,3.0,344.0591590001531,4.0,1.0,phase_1,,,,,,,,,,,,,green,I
1284.0,8.0,4.0,1.0,1.0,1.0,445.0156170000809,4.0,1.0,phase_1,,,,,,,,,,,,,green,I
648.0,3.0,3.0,0.0,1.0,1.0,658.721929999956,4.0,1.0,phase_1,,,,,,,,,,,,,orange,cross
631.0,3.0,3.0,0.0,4.0,4.0,686.4090849999229,4.0,1.0,phase_1,,,,,,,,,,,,,orange,cross
156.0,5.0,1.0,1.0,3.0,3.0,491.2055330000839,4.0,1.0,phase_1,,,,,,,,,,,,,yellow,square
656.0,7.0,3.0,1.0,1.0,1.0,518.9948649999678,4.0,1.0,phase_1,,,,,,,,,,,,,blue,triangle
0.0,7.0,0.0,1.0,3.0,3.0,343.9899400000286,4.0,1.0,phase_1,,,,,,,,,,,,,blue,triangle
164.0,1.0,1.0,0.0,4.0,4.0,455.5476020000242,4.0,1.0,phase_1,,,,,,,,,,,,,gray,diamond
0.0,1.0,0.0,0.0,2.0,2.0,362.2974429999885,4.0,1.0,phase_1,,,,,,,,,,,,,gray,diamond
1315.0,8.0,4.0,1.0,1.0,1.0,418.4158789998946,4.0,1.0,phase_1,,,,,,,,,,,,,green,I
1312.0,8.0,4.0,1.0,2.0,2.0,585.1446780002334,4.0,1.0,phase_1,,,,,,,,,,,,,green,I
330.0,6.0,2.0,1.0,4.0,4.0,380.8434699999452,4.0,1.0,phase_1,,,,,,,,,,,,,magenta,circle
0.0,4.0,4.0,0.0,6.0,6.0,588.0351749997317,1.0,1.0,phase_2,go,250.0,250.0,1.0,,,,,,,,,white,flipped triangle
0.0,1.0,1.0,0.0,6.0,6.0,576.0910950002653,1.0,1.0,phase_2,go,250.0,250.0,1.0,,,,,,,,,gray,diamond
0.0,8.0,4.0,1.0,5.0,5.0,621.2629030001153,1.0,1.0,phase_2,stop,250.0,250.0,3.0,,,,,,,,,green,I
0.0,7.0,3.0,1.0,6.0,0.0,0.0,1.0,1.0,phase_2,stop,200.0,250.0,4.0,,,,,,,,,blue,triangle
0.0,3.0,3.0,0.0,5.0,5.0,577.8771390000657,1.0,1.0,phase_2,go,200.0,300.0,1.0,,,,,,,,,orange,cross
0.0,5.0,1.0,1.0,5.0,0.0,0.0,1.0,1.0,phase_2,stop,200.0,300.0,4.0,,,,,,,,,yellow,square
0.0,5.0,1.0,1.0,6.0,6.0,459.2167969999536,1.0,1.0,phase_2,stop,250.0,300.0,3.0,,,,,,,,,yellow,square
0.0,4.0,4.0,0.0,6.0,6.0,644.9808299998949,1.0,1.0,phase_2,go,250.0,250.0,1.0,,,,,,,,,white,flipped triangle
0.0,7.0,3.0,1.0,5.0,0.0,0.0,1.0,1.0,phase_2,stop,250.0,250.0,4.0,,,,,,,,,blue,triangle
0.0,3.0,3.0,0.0,5.0,5.0,821.2285640001937,1.0,1.0,phase_2,go,300.0,250.0,1.0,,,,,,,,,orange,cross
0.0,6.0,2.0,1.0,5.0,0.0,0.0,1.0,1.0,phase_2,stop,300.0,250.0,4.0,,,,,,,,,magenta,circle
0.0,6.0,2.0,1.0,6.0,0.0,0.0,1.0,1.0,phase_2,stop,350.0,250.0,4.0,,,,,,,,,magenta,circle
0.0,4.0,4.0,0.0,5.0,5.0,689.8261119999916,1.0,1.0,phase_2,go,350.0,300.0,1.0,,,,,,,,,white,flipped triangle
0.0,7.0,3.0,1.0,6.0,0.0,0.0,1.0,1.0,phase_2,stop,350.0,300.0,4.0,,,,,,,,,blue,triangle
0.0,8.0,4.0,1.0,6.0,6.0,737.39167299982,1.0,1.0,phase_2,go,350.0,350.0,1.0,,,,,,,,,green,I
0.0,1.0,1.0,0.0,5.0,5.0,727.8613709995625,1.0,1.0,phase_2,go,350.0,350.0,1.0,,,,,,,,,gray,diamond
0.0,1.0,1.0,0.0,6.0,6.0,765.883765000126,1.0,1.0,phase_2,go,350.0,350.0,1.0,,,,,,,,,gray,diamond
0.0,6.0,2.0,1.0,6.0,0.0,0.0,1.0,1.0,phase_2,stop,350.0,350.0,4.0,,,,,,,,,magenta,circle
0.0,4.0,4.0,0.0,6.0,6.0,626.9931759998144,1.0,1.0,phase_2,go,350.0,400.0,1.0,,,,,,,,,white,flipped triangle
0.0,4.0,4.0,0.0,5.0,5.0,608.2684259999951,1.0,1.0,phase_2,go,350.0,400.0,1.0,,,,,,,,,white,flipped triangle
0.0,5.0,1.0,1.0,6.0,0.0,0.0,1.0,1.0,phase_2,stop,350.0,400.0,4.0,,,,,,,,,yellow,square
0.0,6.0,2.0,1.0,5.0,5.0,589.4686839997121,1.0,1.0,phase_2,go,350.0,450.0,1.0,,,,,,,,,magenta,circle
0.0,8.0,4.0,1.0,5.0,0.0,0.0,1.0,1.0,phase_2,stop,350.0,450.0,4.0,,,,,,,,,green,I
0.0,2.0,2.0,0.0,5.0,5.0,626.1539600000106,1.0,1.0,phase_2,go,400.0,450.0,1.0,,,,,,,,,cyan,hexagon
0.0,3.0,3.0,0.0,5.0,5.0,794.3761670003369,1.0,1.0,phase_2,go,400.0,450.0,1.0,,,,,,,,,orange,cross
0.0,4.0,4.0,0.0,5.0,5.0,729.1383110000424,1.0,1.0,phase_2,go,400.0,450.0,1.0,,,,,,,,,white,flipped triangle
0.0,2.0,2.0,0.0,5.0,5.0,739.0545739999652,1.0,1.0,phase_2,go,400.0,450.0,1.0,,,,,,,,,cyan,hexagon
0.0,2.0,2.0,0.0,5.0,5.0,608.7915519997296,1.0,1.0,phase_2,go,400.0,450.0,1.0,,,,,,,,,cyan,hexagon
0.0,1.0,1.0,0.0,5.0,5.0,749.7505910000655,1.0,1.0,phase_2,go,400.0,450.0,1.0,,,,,,,,,gray,diamond
0.0,5.0,1.0,1.0,5.0,5.0,492.7519019997817,1.0,1.0,phase_2,stop,400.0,450.0,3.0,,,,,,,,,yellow,square
0.0,7.0,3.0,1.0,5.0,0.0,0.0,1.0,1.0,phase_2,stop,350.0,450.0,4.0,,,,,,,,,blue,triangle
0.0,3.0,3.0,0.0,5.0,5.0,720.0024550002126,1.0,1.0,phase_2,go,400.0,450.0,1.0,,,,,,,,,orange,cross
0.0,7.0,3.0,1.0,6.0,6.0,536.1301759999151,1.0,1.0,phase_2,stop,400.0,450.0,3.0,,,,,,,,,blue,triangle
0.0,4.0,4.0,0.0,5.0,5.0,609.0251529999477,1.0,1.0,phase_2,go,400.0,400.0,1.0,,,,,,,,,white,flipped triangle
0.0,1.0,1.0,0.0,5.0,5.0,722.4578860000292,1.0,1.0,phase_2,go,400.0,400.0,1.0,,,,,,,,,gray,diamond
0.0,6.0,2.0,1.0,5.0,0.0,0.0,1.0,1.0,phase_2,stop,400.0,400.0,4.0,,,,,,,,,magenta,circle
0.0,7.0,3.0,1.0,5.0,5.0,527.3416829995767,2.0,1.0,phase_2,stop,450.0,400.0,3.0,,,,,,,,,blue,triangle
0.0,1.0,1.0,0.0,5.0,5.0,596.9383889996607,2.0,1.0,phase_2,go,400.0,400.0,1.0,,,,,,,,,gray,diamond
0.0,8.0,4.0,1.0,6.0,6.0,542.624810000234,2.0,1.0,phase_2,stop,400.0,400.0,3.0,,,,,,,,,green,I
0.0,2.0,2.0,0.0,6.0,6.0,629.3362189999243,2.0,1.0,phase_2,go,400.0,350.0,1.0,,,,,,,,,cyan,hexagon
0.0,2.0,2.0,0.0,5.0,5.0,608.3343469999818,2.0,1.0,phase_2,go,400.0,350.0,1.0,,,,,,,,,cyan,hexagon
0.0,1.0,1.0,0.0,6.0,6.0,608.720718999848,2.0,1.0,phase_2,go,400.0,350.0,1.0,,,,,,,,,gray,diamond
0.0,3.0,3.0,0.0,5.0,5.0,468.9901720003036,2.0,1.0,phase_2,go,400.0,350.0,1.0,,,,,,,,,orange,cross
0.0,5.0,1.0,1.0,6.0,6.0,504.76380700001755,2.0,1.0,phase_2,go,400.0,350.0,1.0,,,,,,,,,yellow,square
0.0,6.0,2.0,1.0,6.0,0.0,0.0,2.0,1.0,phase_2,stop,400.0,350.0,4.0,,,,,,,,,magenta,circle
0.0,5.0,1.0,1.0,6.0,6.0,504.03261900009966,2.0,1.0,phase_2,stop,400.0,400.0,3.0,,,,,,,,,yellow,square
0.0,1.0,1.0,0.0,5.0,5.0,524.5045779997781,2.0,1.0,phase_2,go,400.0,350.0,1.0,,,,,,,,,gray,diamond
0.0,6.0,2.0,1.0,6.0,0.0,0.0,2.0,1.0,phase_2,stop,400.0,350.0,4.0,,,,,,,,,magenta,circle
0.0,4.0,4.0,0.0,6.0,6.0,570.4602669998167,2.0,1.0,phase_2,go,400.0,400.0,1.0,,,,,,,,,white,flipped triangle
0.0,1.0,1.0,0.0,5.0,5.0,634.9535049998849,2.0,1.0,phase_2,go,400.0,400.0,1.0,,,,,,,,,gray,diamond
0.0,4.0,4.0,0.0,6.0,6.0,496.5517309997267,2.0,1.0,phase_2,go,400.0,400.0,1.0,,,,,,,,,white,flipped triangle
0.0,6.0,2.0,1.0,5.0,5.0,599.9160840001423,2.0,1.0,phase_2,stop,400.0,400.0,3.0,,,,,,,,,magenta,circle
0.0,3.0,3.0,0.0,5.0,5.0,559.6197790000588,2.0,1.0,phase_2,go,350.0,400.0,1.0,,,,,,,,,orange,cross
0.0,4.0,4.0,0.0,6.0,6.0,592.6416369998151,2.0,1.0,phase_2,go,350.0,400.0,1.0,,,,,,,,,white,flipped triangle
0.0,8.0,4.0,1.0,5.0,0.0,0.0,2.0,1.0,phase_2,stop,350.0,400.0,4.0,,,,,,,,,green,I
0.0,5.0,1.0,1.0,6.0,6.0,364.3564210001386,2.0,1.0,phase_2,stop,400.0,400.0,3.0,,,,,,,,,yellow,square
0.0,1.0,1.0,0.0,6.0,6.0,664.7093750002568,2.0,1.0,phase_2,go,400.0,350.0,1.0,,,,,,,,,gray,diamond
0.0,3.0,3.0,0.0,6.0,6.0,655.9990860000653,2.0,1.0,phase_2,go,400.0,350.0,1.0,,,,,,,,,orange,cross
0.0,1.0,1.0,0.0,6.0,6.0,646.6482139999243,2.0,1.0,phase_2,go,400.0,350.0,1.0,,,,,,,,,gray,diamond
0.0,1.0,1.0,0.0,6.0,6.0,551.6480139999658,2.0,1.0,phase_2,go,400.0,350.0,1.0,,,,,,,,,gray,diamond
0.0,5.0,1.0,1.0,6.0,0.0,0.0,2.0,1.0,phase_2,stop,400.0,350.0,4.0,,,,,,,,,yellow,square
0.0,7.0,3.0,1.0,5.0,5.0,601.9636450000689,2.0,1.0,phase_2,stop,400.0,400.0,3.0,,,,,,,,,blue,triangle
0.0,3.0,3.0,0.0,6.0,6.0,682.3698700000023,2.0,1.0,phase_2,go,350.0,400.0,1.0,,,,,,,,,orange,cross
0.0,6.0,2.0,1.0,6.0,6.0,593.4404060003544,2.0,1.0,phase_2,stop,350.0,400.0,3.0,,,,,,,,,magenta,circle
0.0,3.0,3.0,0.0,6.0,6.0,637.9227269999319,2.0,1.0,phase_2,go,350.0,350.0,1.0,,,,,,,,,orange,cross
0.0,2.0,2.0,0.0,5.0,5.0,730.8709130002171,2.0,1.0,phase_2,go,350.0,350.0,1.0,,,,,,,,,cyan,hexagon
0.0,3.0,3.0,0.0,5.0,5.0,609.4337140002608,2.0,1.0,phase_2,go,350.0,350.0,1.0,,,,,,,,,orange,cross
0.0,8.0,4.0,1.0,6.0,0.0,0.0,2.0,1.0,phase_2,stop,350.0,350.0,4.0,,,,,,,,,green,I
0.0,6.0,2.0,1.0,5.0,5.0,545.9127549997902,2.0,1.0,phase_2,stop,350.0,400.0,3.0,,,,,,,,,magenta,circle
0.0,8.0,4.0,1.0,6.0,6.0,673.8751200000479,2.0,1.0,phase_2,go,300.0,400.0,1.0,,,,,,,,,green,I
0.0,2.0,2.0,0.0,6.0,6.0,711.6822379998666,2.0,1.0,phase_2,go,300.0,400.0,1.0,,,,,,,,,cyan,hexagon
0.0,4.0,4.0,0.0,6.0,6.0,599.9978380000357,2.0,1.0,phase_2,go,300.0,400.0,1.0,,,,,,,,,white,flipped triangle
0.0,1.0,1.0,0.0,6.0,6.0,534.4610060001287,3.0,1.0,phase_2,go,300.0,400.0,1.0,,,,,,,,,gray,diamond
0.0,5.0,1.0,1.0,6.0,6.0,552.7758839998569,3.0,1.0,phase_2,go,300.0,400.0,1.0,,,,,,,,,yellow,square
0.0,1.0,1.0,0.0,6.0,6.0,421.2524880003911,3.0,1.0,phase_2,go,300.0,400.0,1.0,,,,,,,,,gray,diamond
0.0,1.0,1.0,0.0,5.0,5.0,479.5641509999768,3.0,1.0,phase_2,go,300.0,400.0,1.0,,,,,,,,,gray,diamond
0.0,6.0,2.0,1.0,6.0,6.0,474.738833000174,3.0,1.0,phase_2,stop,300.0,400.0,3.0,,,,,,,,,magenta,circle
0.0,5.0,1.0,1.0,5.0,0.0,0.0,3.0,1.0,phase_2,stop,300.0,350.0,4.0,,,,,,,,,yellow,square
0.0,4.0,4.0,0.0,6.0,6.0,394.2400969999653,3.0,1.0,phase_2,go,350.0,350.0,1.0,,,,,,,,,white,flipped triangle
0.0,8.0,4.0,1.0,6.0,0.0,0.0,3.0,1.0,phase_2,stop,350.0,350.0,4.0,,,,,,,,,green,I
0.0,3.0,3.0,0.0,5.0,5.0,535.7361480000691,3.0,1.0,phase_2,go,350.0,400.0,1.0,,,,,,,,,orange,cross
0.0,5.0,1.0,1.0,5.0,0.0,0.0,3.0,1.0,phase_2,stop,350.0,400.0,4.0,,,,,,,,,yellow,square
0.0,4.0,4.0,0.0,6.0,6.0,672.8282049998597,3.0,1.0,phase_2,go,400.0,400.0,1.0,,,,,,,,,white,flipped triangle
0.0,4.0,4.0,0.0,5.0,5.0,571.3542040002721,3.0,1.0,phase_2,go,400.0,400.0,1.0,,,,,,,,,white,flipped triangle
0.0,7.0,3.0,1.0,6.0,6.0,603.0546090000826,3.0,1.0,phase_2,go,400.0,400.0,1.0,,,,,,,,,blue,triangle
0.0,2.0,2.0,0.0,5.0,5.0,505.64993499983757,3.0,1.0,phase_2,go,400.0,400.0,1.0,,,,,,,,,cyan,hexagon
0.0,7.0,3.0,1.0,5.0,5.0,532.3129589996825,3.0,1.0,phase_2,stop,400.0,400.0,3.0,,,,,,,,,blue,triangle
0.0,5.0,1.0,1.0,5.0,0.0,0.0,3.0,1.0,phase_2,stop,350.0,400.0,4.0,,,,,,,,,yellow,square
0.0,6.0,2.0,1.0,6.0,6.0,467.9203310001867,3.0,1.0,phase_2,go,400.0,400.0,1.0,,,,,,,,,magenta,circle
0.0,1.0,1.0,0.0,5.0,5.0,440.6555680002384,3.0,1.0,phase_2,go,400.0,400.0,1.0,,,,,,,,,gray,diamond
0.0,7.0,3.0,1.0,6.0,6.0,601.2472069996875,3.0,1.0,phase_2,go,400.0,400.0,1.0,,,,,,,,,blue,triangle
0.0,3.0,3.0,0.0,5.0,5.0,528.4433490000993,3.0,1.0,phase_2,go,400.0,400.0,1.0,,,,,,,,,orange,cross
0.0,8.0,4.0,1.0,6.0,0.0,0.0,3.0,1.0,phase_2,stop,400.0,400.0,4.0,,,,,,,,,green,I
0.0,2.0,2.0,0.0,6.0,6.0,553.6102350001784,3.0,1.0,phase_2,go,400.0,450.0,1.0,,,,,,,,,cyan,hexagon
0.0,5.0,1.0,1.0,6.0,6.0,620.2253249998648,3.0,1.0,phase_2,stop,400.0,450.0,3.0,,,,,,,,,yellow,square
0.0,7.0,3.0,1.0,5.0,0.0,0.0,3.0,1.0,phase_2,stop,400.0,400.0,4.0,,,,,,,,,blue,triangle
0.0,8.0,4.0,1.0,6.0,0.0,0.0,3.0,1.0,phase_2,stop,450.0,400.0,4.0,,,,,,,,,green,I
0.0,5.0,1.0,1.0,5.0,5.0,662.2362540001632,3.0,1.0,phase_2,go,450.0,450.0,1.0,,,,,,,,,yellow,square
0.0,3.0,3.0,0.0,5.0,5.0,692.0440339999914,3.0,1.0,phase_2,go,450.0,450.0,1.0,,,,,,,,,orange,cross
0.0,8.0,4.0,1.0,6.0,6.0,732.353681999939,3.0,1.0,phase_2,go,450.0,450.0,1.0,,,,,,,,,green,I
0.0,5.0,1.0,1.0,5.0,0.0,0.0,3.0,1.0,phase_2,stop,450.0,450.0,4.0,,,,,,,,,yellow,square
0.0,8.0,4.0,1.0,5.0,5.0,696.0664739999629,3.0,1.0,phase_2,go,500.0,450.0,1.0,,,,,,,,,green,I
0.0,8.0,4.0,1.0,5.0,0.0,0.0,3.0,1.0,phase_2,stop,500.0,450.0,4.0,,,,,,,,,green,I
0.0,2.0,2.0,0.0,5.0,5.0,627.2632389996033,3.0,1.0,phase_2,go,550.0,450.0,1.0,,,,,,,,,cyan,hexagon
0.0,5.0,1.0,1.0,5.0,5.0,563.1812480000917,3.0,1.0,phase_2,go,550.0,450.0,1.0,,,,,,,,,yellow,square
0.0,2.0,2.0,0.0,5.0,5.0,479.9130420001347,3.0,1.0,phase_2,go,550.0,450.0,1.0,,,,,,,,,cyan,hexagon
0.0,5.0,1.0,1.0,5.0,5.0,523.4809290000157,3.0,1.0,phase_2,stop,550.0,450.0,3.0,,,,,,,,,yellow,square
0.0,4.0,4.0,0.0,6.0,6.0,516.1026569999194,3.0,1.0,phase_2,go,500.0,450.0,1.0,,,,,,,,,white,flipped triangle
0.0,6.0,2.0,1.0,6.0,6.0,1169.4962340002348,4.0,1.0,phase_2,stop,500.0,450.0,3.0,,,,,,,,,magenta,circle
0.0,4.0,4.0,0.0,5.0,5.0,430.8742890002577,4.0,1.0,phase_2,go,500.0,400.0,1.0,,,,,,,,,white,flipped triangle
0.0,3.0,3.0,0.0,5.0,5.0,431.9989979999263,4.0,1.0,phase_2,go,500.0,400.0,1.0,,,,,,,,,orange,cross
0.0,8.0,4.0,1.0,6.0,6.0,503.8336579996212,4.0,1.0,phase_2,stop,500.0,400.0,3.0,,,,,,,,,green,I
0.0,3.0,3.0,0.0,6.0,6.0,571.4208509998571,4.0,1.0,phase_2,go,500.0,350.0,1.0,,,,,,,,,orange,cross
0.0,8.0,4.0,1.0,5.0,5.0,557.4090700001761,4.0,1.0,phase_2,stop,500.0,350.0,3.0,,,,,,,,,green,I
0.0,3.0,3.0,0.0,5.0,5.0,655.4428360000202,4.0,1.0,phase_2,go,450.0,350.0,1.0,,,,,,,,,orange,cross
0.0,5.0,1.0,1.0,6.0,0.0,0.0,4.0,1.0,phase_2,stop,450.0,350.0,4.0,,,,,,,,,yellow,square
0.0,3.0,3.0,0.0,6.0,6.0,644.3866569998136,4.0,1.0,phase_2,go,450.0,400.0,1.0,,,,,,,,,orange,cross
0.0,3.0,3.0,0.0,5.0,5.0,401.7371830000229,4.0,1.0,phase_2,go,450.0,400.0,1.0,,,,,,,,,orange,cross
0.0,8.0,4.0,1.0,5.0,5.0,654.8519269999815,4.0,1.0,phase_2,go,450.0,400.0,1.0,,,,,,,,,green,I
0.0,1.0,1.0,0.0,5.0,5.0,634.9184179998701,4.0,1.0,phase_2,go,450.0,400.0,1.0,,,,,,,,,gray,diamond
0.0,1.0,1.0,0.0,5.0,5.0,617.7363639999385,4.0,1.0,phase_2,go,450.0,400.0,1.0,,,,,,,,,gray,diamond
0.0,8.0,4.0,1.0,5.0,5.0,648.3166840002923,4.0,1.0,phase_2,stop,450.0,400.0,3.0,,,,,,,,,green,I
0.0,6.0,2.0,1.0,6.0,6.0,443.9527979998274,4.0,1.0,phase_2,stop,400.0,400.0,3.0,,,,,,,,,magenta,circle
0.0,3.0,3.0,0.0,6.0,6.0,655.8029170000736,4.0,1.0,phase_2,go,400.0,350.0,1.0,,,,,,,,,orange,cross
0.0,8.0,4.0,1.0,6.0,0.0,0.0,4.0,1.0,phase_2,stop,400.0,350.0,4.0,,,,,,,,,green,I
0.0,8.0,4.0,1.0,5.0,5.0,717.2488999999587,4.0,1.0,phase_2,go,400.0,400.0,1.0,,,,,,,,,green,I
0.0,2.0,2.0,0.0,5.0,5.0,831.1865250002484,4.0,1.0,phase_2,go,400.0,400.0,1.0,,,,,,,,,cyan,hexagon
0.0,6.0,2.0,1.0,6.0,0.0,0.0,4.0,1.0,phase_2,stop,400.0,400.0,4.0,,,,,,,,,magenta,circle
0.0,5.0,1.0,1.0,6.0,0.0,0.0,4.0,1.0,phase_2,stop,400.0,450.0,4.0,,,,,,,,,yellow,square
0.0,8.0,4.0,1.0,5.0,5.0,578.6151480001536,4.0,1.0,phase_2,go,400.0,500.0,1.0,,,,,,,,,green,I
0.0,6.0,2.0,1.0,5.0,0.0,0.0,4.0,1.0,phase_2,stop,400.0,500.0,4.0,,,,,,,,,magenta,circle
0.0,3.0,3.0,0.0,6.0,6.0,665.6461059997127,4.0,1.0,phase_2,go,450.0,500.0,1.0,,,,,,,,,orange,cross
0.0,5.0,1.0,1.0,5.0,0.0,0.0,4.0,1.0,phase_2,stop,450.0,500.0,4.0,,,,,,,,,yellow,square
0.0,4.0,4.0,0.0,6.0,6.0,654.6358319997125,4.0,1.0,phase_2,go,500.0,500.0,1.0,,,,,,,,,white,flipped triangle
0.0,2.0,2.0,0.0,6.0,6.0,662.7969280002617,4.0,1.0,phase_2,go,500.0,500.0,1.0,,,,,,,,,cyan,hexagon
0.0,2.0,2.0,0.0,5.0,5.0,794.5873789999496,4.0,1.0,phase_2,go,500.0,500.0,1.0,,,,,,,,,cyan,hexagon
0.0,3.0,3.0,0.0,6.0,6.0,615.1489349999792,4.0,1.0,phase_2,go,500.0,500.0,1.0,,,,,,,,,orange,cross
0.0,5.0,1.0,1.0,6.0,6.0,616.9807719998062,4.0,1.0,phase_2,stop,500.0,500.0,3.0,,,,,,,,,yellow,square
0.0,5.0,1.0,1.0,5.0,5.0,584.864257999925,4.0,1.0,phase_2,stop,500.0,450.0,3.0,,,,,,,,,yellow,square
0.0,4.0,4.0,0.0,6.0,6.0,711.8521860002147,4.0,1.0,phase_2,go,450.0,450.0,1.0,,,,,,,,,white,flipped triangle
0.0,1.0,1.0,0.0,5.0,5.0,663.6445469998762,4.0,1.0,phase_2,go,450.0,450.0,1.0,,,,,,,,,gray,diamond
0.0,4.0,4.0,0.0,5.0,5.0,747.8159780002898,4.0,1.0,phase_2,go,450.0,450.0,1.0,,,,,,,,,white,flipped triangle
0.0,2.0,2.0,0.0,6.0,6.0,692.7194980003151,4.0,1.0,phase_2,go,450.0,450.0,1.0,,,,,,,,,cyan,hexagon
0.0,7.0,3.0,1.0,6.0,6.0,569.9835499999608,4.0,1.0,phase_2,stop,450.0,450.0,3.0,,,,,,,,,blue,triangle
0.0,1.0,1.0,0.0,5.0,5.0,571.0784160000912,5.0,1.0,phase_2,go,450.0,400.0,1.0,,,,,,,,,gray,diamond
0.0,8.0,4.0,1.0,6.0,6.0,491.9667330000266,5.0,1.0,phase_2,stop,450.0,400.0,3.0,,,,,,,,,green,I
0.0,6.0,2.0,1.0,5.0,5.0,635.3531600002498,5.0,1.0,phase_2,go,450.0,350.0,1.0,,,,,,,,,magenta,circle
0.0,2.0,2.0,0.0,5.0,5.0,617.4387440000828,5.0,1.0,phase_2,go,450.0,350.0,1.0,,,,,,,,,cyan,hexagon
0.0,8.0,4.0,1.0,5.0,0.0,0.0,5.0,1.0,phase_2,stop,450.0,350.0,4.0,,,,,,,,,green,I
0.0,1.0,1.0,0.0,6.0,6.0,648.1064660001721,5.0,1.0,phase_2,go,500.0,350.0,1.0,,,,,,,,,gray,diamond
0.0,1.0,1.0,0.0,6.0,6.0,719.5189899998695,5.0,1.0,phase_2,go,500.0,350.0,1.0,,,,,,,,,gray,diamond
0.0,5.0,1.0,1.0,6.0,6.0,443.5202090003258,5.0,1.0,phase_2,stop,500.0,350.0,3.0,,,,,,,,,yellow,square
0.0,1.0,1.0,0.0,6.0,6.0,666.3298139997096,5.0,1.0,phase_2,go,500.0,300.0,1.0,,,,,,,,,gray,diamond
0.0,6.0,2.0,1.0,6.0,6.0,1063.933926000118,5.0,1.0,phase_2,go,500.0,300.0,1.0,,,,,,,,,magenta,circle
0.0,2.0,2.0,0.0,6.0,6.0,711.1326140002348,5.0,1.0,phase_2,go,500.0,300.0,1.0,,,,,,,,,cyan,hexagon
0.0,6.0,2.0,1.0,6.0,0.0,0.0,5.0,1.0,phase_2,stop,500.0,300.0,4.0,,,,,,,,,magenta,circle
0.0,3.0,3.0,0.0,6.0,6.0,539.1349980000086,5.0,1.0,phase_2,go,500.0,350.0,1.0,,,,,,,,,orange,cross
0.0,2.0,2.0,0.0,6.0,6.0,524.9785629998769,5.0,1.0,phase_2,go,500.0,350.0,1.0,,,,,,,,,cyan,hexagon
0.0,2.0,2.0,0.0,5.0,5.0,383.0018519997793,5.0,1.0,phase_2,go,500.0,350.0,1.0,,,,,,,,,cyan,hexagon
0.0,5.0,1.0,1.0,6.0,6.0,423.3301509998455,5.0,1.0,phase_2,stop,500.0,350.0,3.0,,,,,,,,,yellow,square
0.0,7.0,3.0,1.0,6.0,6.0,476.4148120002573,5.0,1.0,phase_2,go,500.0,300.0,1.0,,,,,,,,,blue,triangle
0.0,7.0,3.0,1.0,5.0,5.0,636.8000259999462,5.0,1.0,phase_2,stop,500.0,300.0,3.0,,,,,,,,,blue,triangle
0.0,8.0,4.0,1.0,5.0,5.0,491.2219160000859,5.0,1.0,phase_2,stop,450.0,300.0,3.0,,,,,,,,,green,I
0.0,2.0,2.0,0.0,6.0,6.0,654.9303669999063,5.0,1.0,phase_2,go,400.0,300.0,1.0,,,,,,,,,cyan,hexagon
0.0,2.0,2.0,0.0,5.0,5.0,654.843425999843,5.0,1.0,phase_2,go,400.0,300.0,1.0,,,,,,,,,cyan,hexagon
0.0,5.0,1.0,1.0,5.0,5.0,708.2529610001984,5.0,1.0,phase_2,go,400.0,300.0,1.0,,,,,,,,,yellow,square
0.0,2.0,2.0,0.0,5.0,5.0,503.68080899988854,5.0,1.0,phase_2,go,400.0,300.0,1.0,,,,,,,,,cyan,hexagon
0.0,6.0,2.0,1.0,5.0,0.0,0.0,5.0,1.0,phase_2,stop,400.0,300.0,4.0,,,,,,,,,magenta,circle
0.0,6.0,2.0,1.0,5.0,5.0,587.9419789998792,5.0,1.0,phase_2,go,450.0,300.0,1.0,,,,,,,,,magenta,circle
0.0,3.0,3.0,0.0,6.0,6.0,597.7527670002019,5.0,1.0,phase_2,go,450.0,300.0,1.0,,,,,,,,,orange,cross
0.0,7.0,3.0,1.0,5.0,0.0,0.0,5.0,1.0,phase_2,stop,450.0,300.0,4.0,,,,,,,,,blue,triangle
0.0,3.0,3.0,0.0,6.0,6.0,745.0756739999633,5.0,1.0,phase_2,go,500.0,300.0,1.0,,,,,,,,,orange,cross
0.0,2.0,2.0,0.0,6.0,6.0,896.0789070001738,5.0,1.0,phase_2,go,500.0,300.0,1.0,,,,,,,,,cyan,hexagon
0.0,3.0,3.0,0.0,6.0,6.0,812.0283930002188,5.0,1.0,phase_2,go,500.0,300.0,1.0,,,,,,,,,orange,cross
0.0,7.0,3.0,1.0,6.0,0.0,0.0,5.0,1.0,phase_2,stop,500.0,300.0,4.0,,,,,,,,,blue,triangle
0.0,5.0,1.0,1.0,5.0,0.0,0.0,5.0,1.0,phase_2,stop,500.0,350.0,4.0,,,,,,,,,yellow,square
0.0,2.0,2.0,0.0,5.0,5.0,663.9298400000371,5.0,1.0,phase_2,go,550.0,350.0,1.0,,,,,,,,,cyan,hexagon
0.0,7.0,3.0,1.0,6.0,0.0,0.0,5.0,1.0,phase_2,stop,550.0,350.0,4.0,,,,,,,,,blue,triangle
0.0,7.0,3.0,1.0,5.0,5.0,598.6269959998936,5.0,1.0,phase_2,stop,550.0,400.0,3.0,,,,,,,,,blue,triangle
0.0,7.0,3.0,1.0,5.0,5.0,784.2841000001499,5.0,1.0,phase_2,go,500.0,400.0,1.0,,,,,,,,,blue,triangle
0.0,2.0,2.0,0.0,6.0,6.0,1241.901865000273,6.0,1.0,phase_2,go,500.0,400.0,1.0,,,,,,,,,cyan,hexagon
0.0,4.0,4.0,0.0,5.0,5.0,560.4582179998943,6.0,1.0,phase_2,go,500.0,400.0,1.0,,,,,,,,,white,flipped triangle
0.0,5.0,1.0,1.0,5.0,5.0,340.6441679999261,6.0,1.0,phase_2,stop,500.0,400.0,3.0,,,,,,,,,yellow,square
0.0,3.0,3.0,0.0,6.0,6.0,500.8040110001275,6.0,1.0,phase_2,go,450.0,400.0,1.0,,,,,,,,,orange,cross
0.0,4.0,4.0,0.0,5.0,5.0,605.8826230000705,6.0,1.0,phase_2,go,450.0,400.0,1.0,,,,,,,,,white,flipped triangle
0.0,1.0,1.0,0.0,5.0,5.0,475.3317899999274,6.0,1.0,phase_2,go,450.0,400.0,1.0,,,,,,,,,gray,diamond
0.0,3.0,3.0,0.0,5.0,5.0,635.6507429995872,6.0,1.0,phase_2,go,450.0,400.0,1.0,,,,,,,,,orange,cross
0.0,8.0,4.0,1.0,5.0,0.0,0.0,6.0,1.0,phase_2,stop,450.0,400.0,4.0,,,,,,,,,green,I
0.0,6.0,2.0,1.0,5.0,5.0,453.9457920000131,6.0,1.0,phase_2,go,500.0,400.0,1.0,,,,,,,,,magenta,circle
0.0,2.0,2.0,0.0,6.0,6.0,571.557422999831,6.0,1.0,phase_2,go,500.0,400.0,1.0,,,,,,,,,cyan,hexagon
0.0,5.0,1.0,1.0,5.0,5.0,574.0680429998974,6.0,1.0,phase_2,stop,500.0,400.0,3.0,,,,,,,,,yellow,square
0.0,6.0,2.0,1.0,5.0,5.0,746.7296550003084,6.0,1.0,phase_2,go,450.0,400.0,1.0,,,,,,,,,magenta,circle
0.0,3.0,3.0,0.0,6.0,6.0,492.133604999708,6.0,1.0,phase_2,go,450.0,400.0,1.0,,,,,,,,,orange,cross
0.0,7.0,3.0,1.0,6.0,0.0,0.0,6.0,1.0,phase_2,stop,450.0,400.0,4.0,,,,,,,,,blue,triangle
0.0,6.0,2.0,1.0,5.0,5.0,434.7534469998209,6.0,1.0,phase_2,stop,450.0,450.0,3.0,,,,,,,,,magenta,circle
0.0,4.0,4.0,0.0,5.0,5.0,625.9046250002029,6.0,1.0,phase_2,go,400.0,450.0,1.0,,,,,,,,,white,flipped triangle
0.0,7.0,3.0,1.0,6.0,6.0,649.8449669998081,6.0,1.0,phase_2,go,400.0,450.0,1.0,,,,,,,,,blue,triangle
0.0,5.0,1.0,1.0,5.0,0.0,0.0,6.0,1.0,phase_2,stop,400.0,450.0,4.0,,,,,,,,,yellow,square
0.0,5.0,1.0,1.0,5.0,5.0,717.0147019996875,6.0,1.0,phase_2,go,450.0,450.0,1.0,,,,,,,,,yellow,square
0.0,6.0,2.0,1.0,5.0,5.0,716.0712119998607,6.0,1.0,phase_2,go,450.0,450.0,1.0,,,,,,,,,magenta,circle
0.0,3.0,3.0,0.0,5.0,5.0,604.2134010003792,6.0,1.0,phase_2,go,450.0,450.0,1.0,,,,,,,,,orange,cross
0.0,4.0,4.0,0.0,6.0,6.0,669.566193999799,6.0,1.0,phase_2,go,450.0,450.0,1.0,,,,,,,,,white,flipped triangle
0.0,2.0,2.0,0.0,5.0,5.0,585.2358160000222,6.0,1.0,phase_2,go,450.0,450.0,1.0,,,,,,,,,cyan,hexagon
0.0,8.0,4.0,1.0,6.0,6.0,544.6453429999565,6.0,1.0,phase_2,stop,450.0,450.0,3.0,,,,,,,,,green,I
0.0,3.0,3.0,0.0,6.0,6.0,329.8258619997796,6.0,1.0,phase_2,go,450.0,400.0,1.0,,,,,,,,,orange,cross
0.0,4.0,4.0,0.0,5.0,5.0,518.2757799998399,6.0,1.0,phase_2,go,450.0,400.0,1.0,,,,,,,,,white,flipped triangle
0.0,1.0,1.0,0.0,6.0,6.0,400.3159450003295,6.0,1.0,phase_2,go,450.0,400.0,1.0,,,,,,,,,gray,diamond
0.0,3.0,3.0,0.0,5.0,5.0,601.2735679996695,6.0,1.0,phase_2,go,450.0,400.0,1.0,,,,,,,,,orange,cross
0.0,7.0,3.0,1.0,6.0,0.0,0.0,6.0,1.0,phase_2,stop,450.0,400.0,4.0,,,,,,,,,blue,triangle
0.0,7.0,3.0,1.0,5.0,5.0,348.9279860000351,6.0,1.0,phase_2,stop,450.0,450.0,3.0,,,,,,,,,blue,triangle
0.0,2.0,2.0,0.0,6.0,6.0,606.9264080001631,6.0,1.0,phase_2,go,400.0,450.0,1.0,,,,,,,,,cyan,hexagon
0.0,7.0,3.0,1.0,6.0,0.0,0.0,6.0,1.0,phase_2,stop,400.0,450.0,4.0,,,,,,,,,blue,triangle
0.0,8.0,4.0,1.0,6.0,6.0,696.5381489999345,6.0,1.0,phase_2,stop,400.0,500.0,3.0,,,,,,,,,green,I
0.0,4.0,4.0,0.0,6.0,6.0,562.7104390000568,6.0,1.0,phase_2,go,400.0,450.0,1.0,,,,,,,,,white,flipped triangle
0.0,5.0,1.0,1.0,5.0,0.0,0.0,6.0,1.0,phase_2,stop,400.0,450.0,4.0,,,,,,,,,yellow,square
0.0,7.0,3.0,1.0,6.0,0.0,0.0,6.0,1.0,phase_2,stop,450.0,450.0,4.0,,,,,,,,,blue,triangle
0.0,3.0,3.0,0.0,6.0,6.0,375.1958990001185,7.0,1.0,phase_2,go,450.0,500.0,1.0,,,,,,,,,orange,cross
0.0,1.0,1.0,0.0,6.0,6.0,553.4350550001363,7.0,1.0,phase_2,go,450.0,500.0,1.0,,,,,,,,,gray,diamond
0.0,2.0,2.0,0.0,6.0,6.0,619.237591000001,7.0,1.0,phase_2,go,450.0,500.0,1.0,,,,,,,,,cyan,hexagon
0.0,8.0,4.0,1.0,6.0,6.0,673.8805310001226,7.0,1.0,phase_2,stop,450.0,500.0,3.0,,,,,,,,,green,I
0.0,4.0,4.0,0.0,5.0,5.0,516.8149099999937,7.0,1.0,phase_2,go,450.0,450.0,1.0,,,,,,,,,white,flipped triangle
0.0,7.0,3.0,1.0,5.0,5.0,346.4823330000399,7.0,1.0,phase_2,go,450.0,450.0,1.0,,,,,,,,,blue,triangle
0.0,1.0,1.0,0.0,5.0,5.0,373.9939229999436,7.0,1.0,phase_2,go,450.0,450.0,1.0,,,,,,,,,gray,diamond
0.0,4.0,4.0,0.0,5.0,5.0,544.0120439998282,7.0,1.0,phase_2,go,450.0,450.0,1.0,,,,,,,,,white,flipped triangle
0.0,7.0,3.0,1.0,5.0,5.0,647.1646709997003,7.0,1.0,phase_2,stop,450.0,450.0,3.0,,,,,,,,,blue,triangle
0.0,7.0,3.0,1.0,5.0,5.0,467.8932419997181,7.0,1.0,phase_2,go,400.0,450.0,1.0,,,,,,,,,blue,triangle
0.0,2.0,2.0,0.0,6.0,6.0,507.36706500038053,7.0,1.0,phase_2,go,400.0,450.0,1.0,,,,,,,,,cyan,hexagon
0.0,1.0,1.0,0.0,5.0,5.0,349.4253939998089,7.0,1.0,phase_2,go,400.0,450.0,1.0,,,,,,,,,gray,diamond
0.0,4.0,4.0,0.0,6.0,6.0,553.3263679999436,7.0,1.0,phase_2,go,400.0,450.0,1.0,,,,,,,,,white,flipped triangle
0.0,2.0,2.0,0.0,6.0,6.0,403.54168999965617,7.0,1.0,phase_2,go,400.0,450.0,1.0,,,,,,,,,cyan,hexagon
0.0,8.0,4.0,1.0,6.0,6.0,737.8079630002503,7.0,1.0,phase_2,go,400.0,450.0,1.0,,,,,,,,,green,I
0.0,3.0,3.0,0.0,6.0,6.0,402.0516049999969,7.0,1.0,phase_2,go,400.0,450.0,1.0,,,,,,,,,orange,cross
0.0,2.0,2.0,0.0,5.0,5.0,430.7464449998406,7.0,1.0,phase_2,go,400.0,450.0,1.0,,,,,,,,,cyan,hexagon
0.0,6.0,2.0,1.0,6.0,6.0,329.6244190000834,7.0,1.0,phase_2,stop,400.0,450.0,3.0,,,,,,,,,magenta,circle
0.0,1.0,1.0,0.0,5.0,5.0,335.9064120004404,7.0,1.0,phase_2,go,400.0,400.0,1.0,,,,,,,,,gray,diamond
0.0,7.0,3.0,1.0,5.0,5.0,562.5492519998261,7.0,1.0,phase_2,stop,400.0,400.0,3.0,,,,,,,,,blue,triangle
0.0,2.0,2.0,0.0,6.0,6.0,328.2351100001506,7.0,1.0,phase_2,go,350.0,400.0,1.0,,,,,,,,,cyan,hexagon
0.0,8.0,4.0,1.0,6.0,6.0,593.9012530002401,7.0,1.0,phase_2,stop,350.0,400.0,3.0,,,,,,,,,green,I
0.0,5.0,1.0,1.0,6.0,0.0,0.0,7.0,1.0,phase_2,stop,350.0,350.0,4.0,,,,,,,,,yellow,square
0.0,2.0,2.0,0.0,6.0,6.0,657.2280560003492,7.0,1.0,phase_2,go,350.0,400.0,1.0,,,,,,,,,cyan,hexagon
0.0,6.0,2.0,1.0,5.0,0.0,0.0,7.0,1.0,phase_2,stop,350.0,400.0,4.0,,,,,,,,,magenta,circle
0.0,1.0,1.0,0.0,6.0,6.0,722.0909790003134,7.0,1.0,phase_2,go,400.0,400.0,1.0,,,,,,,,,gray,diamond
0.0,1.0,1.0,0.0,5.0,5.0,663.9828600000328,7.0,1.0,phase_2,go,400.0,400.0,1.0,,,,,,,,,gray,diamond
0.0,4.0,4.0,0.0,6.0,6.0,645.6317130000571,7.0,1.0,phase_2,go,400.0,400.0,1.0,,,,,,,,,white,flipped triangle
0.0,7.0,3.0,1.0,6.0,6.0,786.6404920000605,7.0,1.0,phase_2,go,400.0,400.0,1.0,,,,,,,,,blue,triangle
0.0,6.0,2.0,1.0,6.0,0.0,0.0,7.0,1.0,phase_2,stop,400.0,400.0,4.0,,,,,,,,,magenta,circle
0.0,1.0,1.0,0.0,6.0,6.0,655.1211119999607,7.0,1.0,phase_2,go,400.0,450.0,1.0,,,,,,,,,gray,diamond
0.0,4.0,4.0,0.0,6.0,6.0,647.5581669997155,7.0,1.0,phase_2,go,400.0,450.0,1.0,,,,,,,,,white,flipped triangle
0.0,4.0,4.0,0.0,5.0,5.0,488.5622019996845,7.0,1.0,phase_2,go,400.0,450.0,1.0,,,,,,,,,white,flipped triangle
0.0,1.0,1.0,0.0,6.0,6.0,448.6082160001388,7.0,1.0,phase_2,go,400.0,450.0,1.0,,,,,,,,,gray,diamond
0.0,7.0,3.0,1.0,6.0,6.0,543.4476760001417,7.0,1.0,phase_2,go,400.0,450.0,1.0,,,,,,,,,blue,triangle
0.0,6.0,2.0,1.0,6.0,6.0,590.6528250002339,7.0,1.0,phase_2,stop,400.0,450.0,3.0,,,,,,,,,magenta,circle
0.0,7.0,3.0,1.0,5.0,5.0,478.4317490002649,8.0,1.0,phase_2,stop,400.0,400.0,3.0,,,,,,,,,blue,triangle
0.0,8.0,4.0,1.0,5.0,0.0,0.0,8.0,1.0,phase_2,stop,350.0,400.0,4.0,,,,,,,,,green,I
0.0,3.0,3.0,0.0,5.0,5.0,513.7979690002794,8.0,1.0,phase_2,go,400.0,400.0,1.0,,,,,,,,,orange,cross
0.0,6.0,2.0,1.0,6.0,6.0,297.9993009998907,8.0,1.0,phase_2,stop,400.0,400.0,3.0,,,,,,,,,magenta,circle
0.0,1.0,1.0,0.0,6.0,6.0,383.812632000172,8.0,1.0,phase_2,go,400.0,350.0,1.0,,,,,,,,,gray,diamond
0.0,6.0,2.0,1.0,5.0,0.0,0.0,8.0,1.0,phase_2,stop,400.0,350.0,4.0,,,,,,,,,magenta,circle
0.0,7.0,3.0,1.0,6.0,6.0,401.3666249998096,8.0,1.0,phase_2,stop,450.0,350.0,3.0,,,,,,,,,blue,triangle
0.0,8.0,4.0,1.0,5.0,0.0,0.0,8.0,1.0,phase_2,stop,450.0,300.0,4.0,,,,,,,,,green,I
0.0,2.0,2.0,0.0,5.0,5.0,758.1477730000188,8.0,1.0,phase_2,go,500.0,300.0,1.0,,,,,,,,,cyan,hexagon
0.0,4.0,4.0,0.0,5.0,5.0,588.1443450002735,8.0,1.0,phase_2,go,500.0,300.0,1.0,,,,,,,,,white,flipped triangle
0.0,8.0,4.0,1.0,5.0,0.0,0.0,8.0,1.0,phase_2,stop,500.0,300.0,4.0,,,,,,,,,green,I
0.0,3.0,3.0,0.0,6.0,6.0,486.3778160001857,8.0,1.0,phase_2,go,550.0,300.0,1.0,,,,,,,,,orange,cross
0.0,8.0,4.0,1.0,6.0,6.0,782.9889239997101,8.0,1.0,phase_2,go,550.0,300.0,1.0,,,,,,,,,green,I
0.0,7.0,3.0,1.0,5.0,0.0,0.0,8.0,1.0,phase_2,stop,550.0,300.0,4.0,,,,,,,,,blue,triangle
0.0,8.0,4.0,1.0,6.0,0.0,0.0,8.0,1.0,phase_2,stop,600.0,300.0,4.0,,,,,,,,,green,I
0.0,5.0,1.0,1.0,6.0,6.0,597.4302019999413,8.0,1.0,phase_2,go,600.0,350.0,1.0,,,,,,,,,yellow,square
0.0,6.0,2.0,1.0,5.0,5.0,651.234490999741,8.0,1.0,phase_2,stop,600.0,350.0,3.0,,,,,,,,,magenta,circle
0.0,4.0,4.0,0.0,5.0,5.0,560.2817999997569,8.0,1.0,phase_2,go,550.0,350.0,1.0,,,,,,,,,white,flipped triangle
0.0,4.0,4.0,0.0,5.0,5.0,533.2858060000945,8.0,1.0,phase_2,go,550.0,350.0,1.0,,,,,,,,,white,flipped triangle
0.0,8.0,4.0,1.0,5.0,0.0,0.0,8.0,1.0,phase_2,stop,550.0,350.0,4.0,,,,,,,,,green,I
0.0,4.0,4.0,0.0,5.0,5.0,465.9532379996562,8.0,1.0,phase_2,go,600.0,350.0,1.0,,,,,,,,,white,flipped triangle
0.0,6.0,2.0,1.0,5.0,5.0,428.8700550000612,8.0,1.0,phase_2,stop,600.0,350.0,3.0,,,,,,,,,magenta,circle
0.0,5.0,1.0,1.0,6.0,0.0,0.0,8.0,1.0,phase_2,stop,550.0,350.0,4.0,,,,,,,,,yellow,square
0.0,6.0,2.0,1.0,6.0,0.0,0.0,8.0,1.0,phase_2,stop,550.0,400.0,4.0,,,,,,,,,magenta,circle
0.0,5.0,1.0,1.0,6.0,6.0,729.023288999997,8.0,1.0,phase_2,go,550.0,450.0,1.0,,,,,,,,,yellow,square
0.0,2.0,2.0,0.0,6.0,6.0,638.4502749997409,8.0,1.0,phase_2,go,550.0,450.0,1.0,,,,,,,,,cyan,hexagon
0.0,1.0,1.0,0.0,6.0,6.0,747.0639260000098,8.0,1.0,phase_2,go,550.0,450.0,1.0,,,,,,,,,gray,diamond
0.0,4.0,4.0,0.0,6.0,6.0,655.414837999615,8.0,1.0,phase_2,go,550.0,450.0,1.0,,,,,,,,,white,flipped triangle
0.0,7.0,3.0,1.0,6.0,0.0,0.0,8.0,1.0,phase_2,stop,550.0,450.0,4.0,,,,,,,,,blue,triangle
0.0,6.0,2.0,1.0,5.0,5.0,634.3666550001217,8.0,1.0,phase_2,go,550.0,500.0,1.0,,,,,,,,,magenta,circle
0.0,7.0,3.0,1.0,5.0,5.0,392.8076550000696,8.0,1.0,phase_2,stop,550.0,500.0,3.0,,,,,,,,,blue,triangle
0.0,5.0,1.0,1.0,6.0,6.0,504.9103639998975,8.0,1.0,phase_2,go,500.0,500.0,1.0,,,,,,,,,yellow,square
0.0,1.0,1.0,0.0,5.0,5.0,568.7656120003339,8.0,1.0,phase_2,go,500.0,500.0,1.0,,,,,,,,,gray,diamond
0.0,6.0,2.0,1.0,6.0,6.0,637.6604699999007,8.0,1.0,phase_2,stop,500.0,500.0,3.0,,,,,,,,,magenta,circle
0.0,3.0,3.0,0.0,5.0,5.0,579.1001570000844,8.0,1.0,phase_2,go,500.0,450.0,1.0,,,,,,,,,orange,cross
0.0,8.0,4.0,1.0,5.0,5.0,638.4810730000936,8.0,1.0,phase_2,stop,500.0,450.0,3.0,,,,,,,,,green,I
0.0,6.0,2.0,1.0,7.0,3.0,1796.65306600009,1.0,1.0,phase_3,,,,,692.0,4.0,865.0,173.0,692.0,1038.0,346.0,519.0,magenta,circle
0.0,8.0,4.0,1.0,7.0,5.0,428.0803960000412,1.0,1.0,phase_3,,,,,464.0,4.0,116.0,232.0,696.0,580.0,464.0,348.0,green,I
0.0,1.0,1.0,0.0,7.0,2.0,277.6593580001645,1.0,1.0,phase_3,,,,,960.0,5.0,1152.0,960.0,384.0,768.0,192.0,576.0,gray,diamond
0.0,5.0,1.0,1.0,7.0,4.0,361.5061929999683,1.0,1.0,phase_3,,,,,770.0,5.0,308.0,462.0,616.0,770.0,924.0,154.0,yellow,square
0.0,2.0,2.0,0.0,7.0,3.0,2427.957064999646,1.0,1.0,phase_3,,,,,540.0,4.0,135.0,270.0,540.0,405.0,675.0,810.0,cyan,hexagon
0.0,3.0,3.0,0.0,7.0,4.0,1425.2608839997265,1.0,1.0,phase_3,,,,,810.0,6.0,540.0,135.0,675.0,810.0,405.0,270.0,orange,cross
0.0,6.0,2.0,1.0,7.0,2.0,1549.1608219999762,1.0,1.0,phase_3,,,,,580.0,5.0,348.0,580.0,464.0,232.0,116.0,696.0,magenta,circle
0.0,5.0,1.0,1.0,7.0,3.0,4454.384811000182,1.0,1.0,phase_3,,,,,192.0,1.0,1152.0,384.0,192.0,768.0,960.0,576.0,yellow,square
0.0,7.0,3.0,1.0,7.0,4.0,3766.208603999985,1.0,1.0,phase_3,,,,,346.0,2.0,173.0,692.0,519.0,346.0,1038.0,865.0,blue,triangle
0.0,3.0,3.0,0.0,7.0,4.0,3325.0834220002616,1.0,1.0,phase_3,,,,,580.0,5.0,348.0,116.0,696.0,580.0,232.0,464.0,orange,cross
0.0,7.0,3.0,1.0,7.0,4.0,3626.829288999943,1.0,1.0,phase_3,,,,,692.0,4.0,1038.0,346.0,173.0,692.0,865.0,519.0,blue,triangle
0.0,6.0,2.0,1.0,7.0,5.0,2384.1740580000987,1.0,1.0,phase_3,,,,,270.0,2.0,810.0,675.0,405.0,135.0,270.0,540.0,magenta,circle
0.0,4.0,4.0,0.0,7.0,4.0,2449.1319090002435,1.0,1.0,phase_3,,,,,116.0,1.0,348.0,580.0,232.0,116.0,464.0,696.0,white,flipped triangle
0.0,6.0,2.0,1.0,7.0,2.0,2389.969093000218,1.0,1.0,phase_3,,,,,384.0,2.0,768.0,384.0,192.0,1152.0,576.0,960.0,magenta,circle
0.0,8.0,4.0,1.0,7.0,3.0,1268.935779000003,1.0,2.0,phase_3,,,,,675.0,5.0,135.0,540.0,675.0,810.0,405.0,270.0,green,I
0.0,3.0,3.0,0.0,7.0,1.0,1324.45509199988,1.0,1.0,phase_3,,,,,576.0,3.0,576.0,192.0,1152.0,960.0,384.0,768.0,orange,cross
0.0,8.0,4.0,1.0,7.0,5.0,1036.0208930005683,1.0,1.0,phase_3,,,,,770.0,5.0,924.0,308.0,616.0,462.0,770.0,154.0,green,I
0.0,4.0,4.0,0.0,7.0,2.0,1198.3624149997922,1.0,1.0,phase_3,,,,,192.0,1.0,384.0,192.0,576.0,768.0,1152.0,960.0,white,flipped triangle
0.0,5.0,1.0,1.0,7.0,2.0,1864.5053400005052,1.0,1.0,phase_3,,,,,348.0,3.0,696.0,348.0,232.0,464.0,116.0,580.0,yellow,square
0.0,4.0,4.0,0.0,7.0,3.0,2593.4108749997904,1.0,1.0,phase_3,,,,,232.0,2.0,696.0,580.0,232.0,464.0,116.0,348.0,white,flipped triangle
0.0,5.0,1.0,1.0,7.0,4.0,2010.6937350001322,2.0,1.0,phase_3,,,,,865.0,5.0,173.0,519.0,346.0,865.0,1038.0,692.0,yellow,square
0.0,5.0,1.0,1.0,7.0,4.0,1120.447430999775,2.0,1.0,phase_3,,,,,580.0,5.0,232.0,464.0,116.0,580.0,348.0,696.0,yellow,square
0.0,1.0,1.0,0.0,7.0,2.0,1277.2746319997168,2.0,1.0,phase_3,,,,,232.0,2.0,464.0,232.0,348.0,116.0,580.0,696.0,gray,diamond
0.0,3.0,3.0,0.0,7.0,1.0,1512.805300000764,2.0,1.0,phase_3,,,,,770.0,5.0,770.0,462.0,154.0,616.0,308.0,924.0,orange,cross
0.0,1.0,1.0,0.0,7.0,5.0,1428.1917339994834,2.0,1.0,phase_3,,,,,173.0,1.0,1038.0,519.0,346.0,692.0,173.0,865.0,gray,diamond
0.0,5.0,1.0,1.0,7.0,4.0,1939.622388999851,2.0,1.0,phase_3,,,,,540.0,4.0,675.0,270.0,810.0,540.0,405.0,135.0,yellow,square
0.0,4.0,4.0,0.0,7.0,5.0,1605.4901560000872,2.0,1.0,phase_3,,,,,405.0,3.0,810.0,540.0,675.0,135.0,405.0,270.0,white,flipped triangle
0.0,7.0,3.0,1.0,7.0,2.0,2215.892389000146,2.0,1.0,phase_3,,,,,384.0,2.0,768.0,384.0,960.0,576.0,1152.0,192.0,blue,triangle
0.0,2.0,2.0,0.0,7.0,6.0,1965.2435819998573,2.0,1.0,phase_3,,,,,768.0,4.0,384.0,960.0,192.0,1152.0,576.0,768.0,cyan,hexagon
0.0,1.0,1.0,0.0,7.0,2.0,1028.2729509999626,2.0,1.0,phase_3,,,,,270.0,2.0,405.0,270.0,540.0,675.0,810.0,135.0,gray,diamond
0.0,4.0,4.0,0.0,7.0,2.0,1579.592613999921,2.0,1.0,phase_3,,,,,308.0,2.0,154.0,308.0,616.0,462.0,770.0,924.0,white,flipped triangle
0.0,1.0,1.0,0.0,7.0,6.0,2622.352212999431,2.0,1.0,phase_3,,,,,384.0,2.0,192.0,576.0,768.0,1152.0,960.0,384.0,gray,diamond
0.0,5.0,1.0,1.0,7.0,1.0,1510.545992000516,2.0,1.0,phase_3,,,,,768.0,4.0,768.0,576.0,192.0,384.0,1152.0,960.0,yellow,square
0.0,7.0,3.0,1.0,7.0,4.0,1829.7833739998168,2.0,1.0,phase_3,,,,,576.0,3.0,192.0,960.0,384.0,576.0,1152.0,768.0,blue,triangle
0.0,7.0,3.0,1.0,7.0,5.0,1497.7471249994778,2.0,1.0,phase_3,,,,,308.0,2.0,616.0,924.0,154.0,770.0,308.0,462.0,blue,triangle
0.0,8.0,4.0,1.0,7.0,4.0,2707.4045410008694,2.0,1.0,phase_3,,,,,696.0,6.0,464.0,348.0,232.0,696.0,580.0,116.0,green,I
0.0,6.0,2.0,1.0,7.0,5.0,2003.2314529998985,2.0,1.0,phase_3,,,,,384.0,2.0,768.0,960.0,1152.0,192.0,384.0,576.0,magenta,circle
0.0,8.0,4.0,1.0,7.0,1.0,2372.890819000532,2.0,1.0,phase_3,,,,,770.0,5.0,770.0,462.0,616.0,308.0,154.0,924.0,green,I
0.0,1.0,1.0,0.0,7.0,5.0,1820.4457499996352,2.0,1.0,phase_3,,,,,348.0,3.0,116.0,580.0,464.0,232.0,348.0,696.0,gray,diamond
0.0,2.0,2.0,0.0,7.0,3.0,1609.0221449994715,2.0,1.0,phase_3,,,,,865.0,5.0,692.0,1038.0,865.0,519.0,173.0,346.0,cyan,hexagon
0.0,8.0,4.0,1.0,7.0,2.0,2003.730758000529,3.0,1.0,phase_3,,,,,1152.0,6.0,960.0,1152.0,768.0,192.0,576.0,384.0,green,I
0.0,8.0,4.0,1.0,7.0,5.0,2061.207103000015,3.0,1.0,phase_3,,,,,960.0,5.0,1152.0,576.0,192.0,768.0,960.0,384.0,green,I
0.0,7.0,3.0,1.0,7.0,2.0,1805.130112999905,3.0,1.0,phase_3,,,,,405.0,3.0,270.0,405.0,540.0,810.0,135.0,675.0,blue,triangle
0.0,4.0,4.0,0.0,7.0,5.0,1765.3268760004719,3.0,1.0,phase_3,,,,,462.0,3.0,616.0,308.0,154.0,770.0,462.0,924.0,white,flipped triangle
0.0,8.0,4.0,1.0,7.0,3.0,2807.5312219998523,3.0,1.0,phase_3,,,,,692.0,4.0,865.0,173.0,692.0,346.0,1038.0,519.0,green,I
0.0,7.0,3.0,1.0,7.0,2.0,1360.3955000007772,3.0,1.0,phase_3,,,,,405.0,3.0,270.0,405.0,810.0,135.0,675.0,540.0,blue,triangle
0.0,1.0,1.0,0.0,7.0,5.0,1274.234075000095,3.0,1.0,phase_3,,,,,308.0,2.0,924.0,462.0,616.0,154.0,308.0,770.0,gray,diamond
0.0,6.0,2.0,1.0,7.0,6.0,1468.767145000129,3.0,1.0,phase_3,,,,,692.0,4.0,173.0,346.0,519.0,1038.0,865.0,692.0,magenta,circle
0.0,7.0,3.0,1.0,7.0,3.0,1812.6538799997436,3.0,1.0,phase_3,,,,,580.0,5.0,116.0,464.0,580.0,696.0,232.0,348.0,blue,triangle
0.0,3.0,3.0,0.0,7.0,3.0,1235.164583000369,3.0,1.0,phase_3,,,,,696.0,6.0,464.0,348.0,696.0,116.0,232.0,580.0,orange,cross
0.0,2.0,2.0,0.0,7.0,4.0,1309.8650329993689,3.0,1.0,phase_3,,,,,692.0,4.0,519.0,173.0,865.0,692.0,1038.0,346.0,cyan,hexagon
0.0,3.0,3.0,0.0,7.0,6.0,1450.4916469995806,3.0,1.0,phase_3,,,,,692.0,4.0,1038.0,346.0,173.0,865.0,519.0,692.0,orange,cross
0.0,7.0,3.0,1.0,7.0,5.0,1850.6157219999293,3.0,1.0,phase_3,,,,,696.0,6.0,580.0,116.0,348.0,232.0,696.0,464.0,blue,triangle
0.0,5.0,1.0,1.0,7.0,3.0,1629.8090099999172,3.0,1.0,phase_3,,,,,519.0,3.0,346.0,692.0,519.0,1038.0,865.0,173.0,yellow,square
0.0,5.0,1.0,1.0,7.0,2.0,1460.747492000337,3.0,1.0,phase_3,,,,,540.0,4.0,270.0,540.0,675.0,405.0,135.0,810.0,yellow,square
0.0,6.0,2.0,1.0,7.0,5.0,1581.9909420006295,3.0,1.0,phase_3,,,,,464.0,4.0,580.0,348.0,232.0,116.0,464.0,696.0,magenta,circle
0.0,5.0,1.0,1.0,7.0,2.0,1454.5387020007183,3.0,1.0,phase_3,,,,,616.0,4.0,154.0,616.0,462.0,308.0,924.0,770.0,yellow,square
0.0,1.0,1.0,0.0,7.0,5.0,1493.314562000705,3.0,1.0,phase_3,,,,,462.0,3.0,924.0,154.0,770.0,308.0,462.0,616.0,gray,diamond
0.0,1.0,1.0,0.0,7.0,5.0,1373.854301999927,3.0,1.0,phase_3,,,,,405.0,3.0,540.0,810.0,675.0,270.0,405.0,135.0,gray,diamond
0.0,6.0,2.0,1.0,7.0,2.0,1771.5395200002604,3.0,1.0,phase_3,,,,,308.0,2.0,462.0,308.0,924.0,154.0,616.0,770.0,magenta,circle
0.0,6.0,2.0,1.0,7.0,6.0,1885.5228949996672,4.0,1.0,phase_3,,,,,616.0,4.0,308.0,770.0,154.0,462.0,924.0,616.0,magenta,circle
0.0,2.0,2.0,0.0,7.0,2.0,1122.9654350008786,4.0,1.0,phase_3,,,,,580.0,5.0,348.0,580.0,116.0,696.0,464.0,232.0,cyan,hexagon
0.0,4.0,4.0,0.0,7.0,5.0,983.665380000275,4.0,1.0,phase_3,,,,,270.0,2.0,405.0,135.0,675.0,810.0,270.0,540.0,white,flipped triangle
0.0,8.0,4.0,1.0,7.0,2.0,1334.7379500000898,4.0,1.0,phase_3,,,,,810.0,6.0,405.0,810.0,540.0,270.0,675.0,135.0,green,I
0.0,1.0,1.0,0.0,7.0,2.0,1568.0125950002548,4.0,1.0,phase_3,,,,,173.0,1.0,519.0,173.0,692.0,346.0,865.0,1038.0,gray,diamond
0.0,3.0,3.0,0.0,7.0,5.0,2004.512314000749,4.0,1.0,phase_3,,,,,192.0,1.0,384.0,576.0,960.0,768.0,192.0,1152.0,orange,cross
0.0,2.0,2.0,0.0,7.0,4.0,1318.4083189999,4.0,1.0,phase_3,,,,,462.0,3.0,154.0,616.0,770.0,462.0,924.0,308.0,cyan,hexagon
0.0,3.0,3.0,0.0,7.0,6.0,2101.640396000221,4.0,1.0,phase_3,,,,,770.0,5.0,308.0,154.0,924.0,462.0,616.0,770.0,orange,cross
0.0,2.0,2.0,0.0,7.0,2.0,1374.7238360001577,4.0,1.0,phase_3,,,,,675.0,5.0,405.0,675.0,135.0,810.0,270.0,540.0,cyan,hexagon
0.0,4.0,4.0,0.0,7.0,3.0,1485.5313590005608,4.0,1.0,phase_3,,,,,173.0,1.0,865.0,346.0,173.0,519.0,1038.0,692.0,white,flipped triangle
0.0,3.0,3.0,0.0,7.0,4.0,1379.436383999746,4.0,1.0,phase_3,,,,,540.0,4.0,810.0,675.0,270.0,540.0,405.0,135.0,orange,cross
0.0,2.0,2.0,0.0,7.0,5.0,899.8012490001202,4.0,1.0,phase_3,,,,,696.0,6.0,348.0,232.0,116.0,464.0,696.0,580.0,cyan,hexagon
0.0,2.0,2.0,0.0,7.0,4.0,1346.4613000005556,4.0,1.0,phase_3,,,,,616.0,4.0,308.0,462.0,924.0,616.0,770.0,154.0,cyan,hexagon
0.0,2.0,2.0,0.0,7.0,2.0,2329.161163000208,4.0,1.0,phase_3,,,,,768.0,4.0,384.0,768.0,1152.0,576.0,960.0,192.0,cyan,hexagon
0.0,7.0,3.0,1.0,7.0,5.0,2725.1532020000013,4.0,1.0,phase_3,,,,,770.0,5.0,616.0,154.0,924.0,308.0,770.0,462.0,blue,triangle
0.0,8.0,4.0,1.0,7.0,2.0,1726.408155000172,4.0,1.0,phase_3,,,,,865.0,5.0,173.0,865.0,1038.0,346.0,692.0,519.0,green,I
0.0,3.0,3.0,0.0,7.0,6.0,1601.6893699998036,4.0,1.0,phase_3,,,,,519.0,3.0,692.0,173.0,865.0,1038.0,346.0,519.0,orange,cross
0.0,4.0,4.0,0.0,7.0,1.0,1875.6321870005197,4.0,1.0,phase_3,,,,,519.0,3.0,519.0,692.0,1038.0,865.0,173.0,346.0,white,flipped triangle
0.0,6.0,2.0,1.0,7.0,5.0,1713.9923939994333,4.0,1.0,phase_3,,,,,810.0,6.0,540.0,270.0,405.0,675.0,810.0,135.0,magenta,circle
0.0,4.0,4.0,0.0,7.0,3.0,1428.1685169999037,4.0,1.0,phase_3,,,,,384.0,2.0,960.0,576.0,384.0,768.0,1152.0,192.0,white,flipped triangle
