raw_reward_magnitude,stim_reward,stepwise_reward_magnitude,paired_with_stopping,stim_location,response,reaction_time,block,num_trial_presentations,which_phase,stop_signal_trial_type,left_SSD,right_SSD,accuracy,chosen_bidding_amount,chosen_bidding_level,possible_bid_1,possible_bid_2,possible_bid_3,possible_bid_4,possible_bid_5,possible_bid_6,color_text,shape_text
0.0,4.0,0.0,0.0,4.0,4.0,513.8289300002725,1.0,1.0,phase_1,,,,,,,,,,,,,white,cross
340.0,2.0,1.0,0.0,3.0,3.0,438.1300390000433,1.0,1.0,phase_1,,,,,,,,,,,,,magenta,diamond
320.0,6.0,1.0,1.0,1.0,1.0,474.2925169998671,1.0,1.0,phase_1,,,,,,,,,,,,,green,hexagon
650.0,3.0,2.0,0.0,2.0,2.0,539.8050970002259,1.0,1.0,phase_1,,,,,,,,,,,,,gray,I
312.0,6.0,1.0,1.0,3.0,3.0,438.5814120000759,1.0,1.0,phase_1,,,,,,,,,,,,,green,hexagon
631.0,7.0,2.0,1.0,4.0,4.0,475.6469249996371,1.0,1.0,phase_1,,,,,,,,,,,,,blue,triangle
324.0,2.0,1.0,0.0,1.0,1.0,391.2333409998609,1.0,1.0,phase_1,,,,,,,,,,,,,magenta,diamond
0.0,1.0,0.0,0.0,3.0,3.0,326.3022890000684,1.0,1.0,phase_1,,,,,,,,,,,,,yellow,square
0.0,8.0,0.0,1.0,2.0,2.0,446.83210999983197,1.0,1.0,phase_1,,,,,,,,,,,,,orange,flipped triangle
1285.0,8.0,4.0,1.0,4.0,4.0,475.8658300002025,1.0,1.0,phase_1,,,,,,,,,,,,,orange,flipped triangle
0.0,6.0,0.0,1.0,3.0,3.0,438.0732280001211,1.0,1.0,phase_1,,,,,,,,,,,,,green,hexagon
666.0,3.0,2.0,0.0,1.0,1.0,345.3228890002719,1.0,1.0,phase_1,,,,,,,,,,,,,gray,I
0.0,8.0,0.0,1.0,2.0,2.0,335.4901020002216,1.0,1.0,phase_1,,,,,,,,,,,,,orange,flipped triangle
330.0,6.0,1.0,1.0,2.0,2.0,390.3868820002572,1.0,1.0,phase_1,,,,,,,,,,,,,green,hexagon
641.0,7.0,2.0,1.0,1.0,1.0,326.061005000156,1.0,1.0,phase_1,,,,,,,,,,,,,blue,triangle
1318.0,8.0,4.0,1.0,1.0,1.0,317.1729550003874,1.0,1.0,phase_1,,,,,,,,,,,,,orange,flipped triangle
672.0,7.0,2.0,1.0,1.0,1.0,282.2817960000066,1.0,1.0,phase_1,,,,,,,,,,,,,blue,triangle
0.0,5.0,0.0,1.0,4.0,4.0,355.6976100003339,1.0,1.0,phase_1,,,,,,,,,,,,,cyan,circle
0.0,5.0,0.0,1.0,3.0,3.0,362.4714890001996,1.0,1.0,phase_1,,,,,,,,,,,,,cyan,circle
307.0,6.0,1.0,1.0,1.0,1.0,356.1136240000451,1.0,1.0,phase_1,,,,,,,,,,,,,green,hexagon
0.0,6.0,0.0,1.0,4.0,4.0,307.0889660002649,1.0,1.0,phase_1,,,,,,,,,,,,,green,hexagon
169.0,1.0,0.5,0.0,4.0,4.0,337.9407570000694,1.0,1.0,phase_1,,,,,,,,,,,,,yellow,square
649.0,3.0,2.0,0.0,2.0,2.0,355.8667269999205,1.0,1.0,phase_1,,,,,,,,,,,,,gray,I
170.0,1.0,0.5,0.0,2.0,2.0,336.1671799998476,1.0,1.0,phase_1,,,,,,,,,,,,,yellow,square
151.0,1.0,0.5,0.0,4.0,4.0,338.4693779998997,1.0,1.0,phase_1,,,,,,,,,,,,,yellow,square
1320.0,4.0,4.0,0.0,4.0,4.0,327.5125400000434,1.0,1.0,phase_1,,,,,,,,,,,,,white,cross
0.0,4.0,0.0,0.0,1.0,1.0,374.5351829998071,1.0,1.0,phase_1,,,,,,,,,,,,,white,cross
316.0,6.0,1.0,1.0,3.0,3.0,270.9017600000152,1.0,1.0,phase_1,,,,,,,,,,,,,green,hexagon
158.0,5.0,0.5,1.0,3.0,3.0,337.321174000408,1.0,1.0,phase_1,,,,,,,,,,,,,cyan,circle
1283.0,8.0,4.0,1.0,2.0,2.0,412.277111000094,1.0,1.0,phase_1,,,,,,,,,,,,,orange,flipped triangle
1313.0,4.0,4.0,0.0,2.0,2.0,337.9192239999611,1.0,1.0,phase_1,,,,,,,,,,,,,white,cross
0.0,7.0,0.0,1.0,2.0,2.0,280.9057340000436,1.0,1.0,phase_1,,,,,,,,,,,,,blue,triangle
306.0,2.0,1.0,0.0,4.0,4.0,328.1898079999337,1.0,1.0,phase_1,,,,,,,,,,,,,magenta,diamond
1285.0,4.0,4.0,0.0,1.0,1.0,336.8708049997622,1.0,1.0,phase_1,,,,,,,,,,,,,white,cross
0.0,3.0,0.0,0.0,3.0,3.0,373.4900910003489,1.0,1.0,phase_1,,,,,,,,,,,,,gray,I
1276.0,8.0,4.0,1.0,1.0,1.0,448.710206999749,1.0,1.0,phase_1,,,,,,,,,,,,,orange,flipped triangle
669.0,3.0,2.0,0.0,3.0,3.0,448.8775519998853,1.0,1.0,phase_1,,,,,,,,,,,,,gray,I
0.0,2.0,0.0,0.0,2.0,2.0,290.7093809999423,1.0,1.0,phase_1,,,,,,,,,,,,,magenta,diamond
1302.0,4.0,4.0,0.0,1.0,1.0,421.998750000057,1.0,1.0,phase_1,,,,,,,,,,,,,white,cross
348.0,2.0,1.0,0.0,4.0,4.0,280.5127060000814,1.0,1.0,phase_1,,,,,,,,,,,,,magenta,diamond
174.0,1.0,0.5,0.0,2.0,2.0,364.5823589999963,1.0,1.0,phase_1,,,,,,,,,,,,,yellow,square
652.0,7.0,2.0,1.0,2.0,2.0,327.7562390003368,1.0,1.0,phase_1,,,,,,,,,,,,,blue,triangle
634.0,7.0,2.0,1.0,2.0,2.0,298.8575150002361,1.0,1.0,phase_1,,,,,,,,,,,,,blue,triangle
349.0,6.0,1.0,1.0,2.0,2.0,281.0728049998943,1.0,1.0,phase_1,,,,,,,,,,,,,green,hexagon
178.0,5.0,0.5,1.0,2.0,2.0,449.4800839997879,1.0,1.0,phase_1,,,,,,,,,,,,,cyan,circle
0.0,8.0,0.0,1.0,2.0,2.0,309.2551419999836,1.0,1.0,phase_1,,,,,,,,,,,,,orange,flipped triangle
1317.0,4.0,4.0,0.0,3.0,3.0,345.9699479999472,1.0,1.0,phase_1,,,,,,,,,,,,,white,cross
0.0,2.0,0.0,0.0,1.0,1.0,308.6422169999423,1.0,1.0,phase_1,,,,,,,,,,,,,magenta,diamond
327.0,2.0,1.0,0.0,2.0,2.0,354.7633099997256,1.0,1.0,phase_1,,,,,,,,,,,,,magenta,diamond
151.0,5.0,0.5,1.0,2.0,2.0,309.4872510000641,1.0,1.0,phase_1,,,,,,,,,,,,,cyan,circle
1308.0,8.0,4.0,1.0,4.0,4.0,448.2688220000455,1.0,1.0,phase_1,,,,,,,,,,,,,orange,flipped triangle
0.0,8.0,0.0,1.0,1.0,1.0,326.066394999998,1.0,1.0,phase_1,,,,,,,,,,,,,orange,flipped triangle
170.0,5.0,0.5,1.0,4.0,4.0,337.676010999985,1.0,1.0,phase_1,,,,,,,,,,,,,cyan,circle
176.0,1.0,0.5,0.0,1.0,1.0,346.4264499998535,1.0,1.0,phase_1,,,,,,,,,,,,,yellow,square
145.0,5.0,0.5,1.0,1.0,1.0,298.7566900001184,1.0,1.0,phase_1,,,,,,,,,,,,,cyan,circle
326.0,6.0,1.0,1.0,3.0,3.0,337.3993969998992,1.0,1.0,phase_1,,,,,,,,,,,,,green,hexagon
1318.0,4.0,4.0,0.0,3.0,3.0,308.5029230001055,1.0,1.0,phase_1,,,,,,,,,,,,,white,cross
337.0,6.0,1.0,1.0,3.0,3.0,318.6807199999748,1.0,1.0,phase_1,,,,,,,,,,,,,green,hexagon
0.0,1.0,0.0,0.0,3.0,3.0,290.451929000028,1.0,1.0,phase_1,,,,,,,,,,,,,yellow,square
646.0,7.0,2.0,1.0,2.0,2.0,392.3705520001022,1.0,1.0,phase_1,,,,,,,,,,,,,blue,triangle
672.0,3.0,2.0,0.0,1.0,1.0,355.6627930001923,1.0,1.0,phase_1,,,,,,,,,,,,,gray,I
0.0,2.0,0.0,0.0,2.0,2.0,374.6304829996916,1.0,1.0,phase_1,,,,,,,,,,,,,magenta,diamond
330.0,2.0,1.0,0.0,3.0,3.0,345.7495909997305,1.0,1.0,phase_1,,,,,,,,,,,,,magenta,diamond
642.0,3.0,2.0,0.0,3.0,3.0,477.0413380001628,1.0,1.0,phase_1,,,,,,,,,,,,,gray,I
635.0,3.0,2.0,0.0,1.0,1.0,403.715639999973,1.0,1.0,phase_1,,,,,,,,,,,,,gray,I
633.0,3.0,2.0,0.0,4.0,4.0,447.5206739998612,1.0,1.0,phase_1,,,,,,,,,,,,,gray,I
145.0,1.0,0.5,0.0,1.0,1.0,355.0446650001504,1.0,1.0,phase_1,,,,,,,,,,,,,yellow,square
667.0,3.0,2.0,0.0,1.0,1.0,380.9418649998406,1.0,2.0,phase_1,,,,,,,,,,,,,gray,I
186.0,1.0,0.5,0.0,3.0,3.0,382.4620440000217,1.0,1.0,phase_1,,,,,,,,,,,,,yellow,square
309.0,6.0,1.0,1.0,2.0,2.0,372.7751460000945,1.0,1.0,phase_1,,,,,,,,,,,,,green,hexagon
633.0,7.0,2.0,1.0,4.0,4.0,484.136505999686,1.0,1.0,phase_1,,,,,,,,,,,,,blue,triangle
1303.0,4.0,4.0,0.0,2.0,2.0,390.0987530000748,1.0,1.0,phase_1,,,,,,,,,,,,,white,cross
675.0,7.0,2.0,1.0,4.0,4.0,335.9116270003142,1.0,1.0,phase_1,,,,,,,,,,,,,blue,triangle
1278.0,8.0,4.0,1.0,1.0,1.0,391.5513469996767,1.0,1.0,phase_1,,,,,,,,,,,,,orange,flipped triangle
0.0,1.0,0.0,0.0,4.0,4.0,298.1951650003793,1.0,1.0,phase_1,,,,,,,,,,,,,yellow,square
0.0,2.0,0.0,0.0,4.0,4.0,335.6139779998557,1.0,1.0,phase_1,,,,,,,,,,,,,magenta,diamond
1287.0,8.0,4.0,1.0,4.0,4.0,335.0789119999717,1.0,1.0,phase_1,,,,,,,,,,,,,orange,flipped triangle
0.0,2.0,0.0,0.0,4.0,4.0,260.1452570002038,1.0,1.0,phase_1,,,,,,,,,,,,,magenta,diamond
1281.0,8.0,4.0,1.0,3.0,3.0,308.0684229998951,1.0,1.0,phase_1,,,,,,,,,,,,,orange,flipped triangle
0.0,3.0,0.0,0.0,3.0,3.0,354.4531610000376,1.0,1.0,phase_1,,,,,,,,,,,,,gray,I
0.0,7.0,0.0,1.0,4.0,4.0,316.6417150000598,1.0,1.0,phase_1,,,,,,,,,,,,,blue,triangle
635.0,7.0,2.0,1.0,1.0,1.0,353.7324459998672,1.0,1.0,phase_1,,,,,,,,,,,,,blue,triangle
1284.0,8.0,4.0,1.0,1.0,1.0,325.4024230000141,1.0,1.0,phase_1,,,,,,,,,,,,,orange,flipped triangle
147.0,5.0,0.5,1.0,2.0,2.0,604.0874390000681,1.0,1.0,phase_1,,,,,,,,,,,,,cyan,circle
643.0,3.0,2.0,0.0,3.0,3.0,428.6124659997767,1.0,1.0,phase_1,,,,,,,,,,,,,gray,I
0.0,6.0,0.0,1.0,3.0,3.0,354.585808000138,1.0,1.0,phase_1,,,,,,,,,,,,,green,hexagon
153.0,1.0,0.5,0.0,4.0,4.0,325.6907139998475,1.0,1.0,phase_1,,,,,,,,,,,,,yellow,square
342.0,6.0,1.0,1.0,1.0,1.0,344.8722070002077,1.0,1.0,phase_1,,,,,,,,,,,,,green,hexagon
1296.0,8.0,4.0,1.0,4.0,4.0,326.3153379998584,1.0,1.0,phase_1,,,,,,,,,,,,,orange,flipped triangle
1299.0,4.0,4.0,0.0,2.0,2.0,353.5769360000813,1.0,1.0,phase_1,,,,,,,,,,,,,white,cross
301.0,6.0,1.0,1.0,2.0,2.0,326.4340169998831,1.0,1.0,phase_1,,,,,,,,,,,,,green,hexagon
0.0,4.0,0.0,0.0,2.0,2.0,315.7078019999062,1.0,1.0,phase_1,,,,,,,,,,,,,white,cross
310.0,2.0,1.0,0.0,3.0,3.0,335.2341640002123,1.0,1.0,phase_1,,,,,,,,,,,,,magenta,diamond
672.0,3.0,2.0,0.0,4.0,4.0,307.3594620000222,1.0,1.0,phase_1,,,,,,,,,,,,,gray,I
0.0,3.0,0.0,0.0,1.0,1.0,372.3873269996147,1.0,1.0,phase_1,,,,,,,,,,,,,gray,I
340.0,6.0,1.0,1.0,3.0,3.0,408.7903390000065,1.0,1.0,phase_1,,,,,,,,,,,,,green,hexagon
650.0,7.0,2.0,1.0,3.0,3.0,372.9261530002077,1.0,1.0,phase_1,,,,,,,,,,,,,blue,triangle
1293.0,8.0,4.0,1.0,4.0,4.0,353.6353409999719,1.0,1.0,phase_1,,,,,,,,,,,,,orange,flipped triangle
1297.0,4.0,4.0,0.0,2.0,2.0,390.0386280001839,1.0,1.0,phase_1,,,,,,,,,,,,,white,cross
0.0,7.0,0.0,1.0,4.0,4.0,362.3849650002739,1.0,1.0,phase_1,,,,,,,,,,,,,blue,triangle
145.0,1.0,0.5,0.0,4.0,4.0,345.563286000015,2.0,1.0,phase_1,,,,,,,,,,,,,yellow,square
0.0,7.0,0.0,1.0,2.0,2.0,316.9716720003634,2.0,2.0,phase_1,,,,,,,,,,,,,blue,triangle
158.0,1.0,0.5,0.0,2.0,2.0,325.6741300001522,2.0,1.0,phase_1,,,,,,,,,,,,,yellow,square
348.0,6.0,1.0,1.0,2.0,2.0,317.1083400002317,2.0,1.0,phase_1,,,,,,,,,,,,,green,hexagon
1277.0,8.0,4.0,1.0,3.0,3.0,429.1330710002512,2.0,1.0,phase_1,,,,,,,,,,,,,orange,flipped triangle
344.0,2.0,1.0,0.0,1.0,1.0,346.7722600003071,2.0,1.0,phase_1,,,,,,,,,,,,,magenta,diamond
647.0,7.0,2.0,1.0,3.0,3.0,373.8987980000274,2.0,1.0,phase_1,,,,,,,,,,,,,blue,triangle
0.0,1.0,0.0,0.0,4.0,4.0,401.1469699998997,2.0,1.0,phase_1,,,,,,,,,,,,,yellow,square
310.0,2.0,1.0,0.0,1.0,1.0,374.2939459998524,2.0,1.0,phase_1,,,,,,,,,,,,,magenta,diamond
1302.0,8.0,4.0,1.0,3.0,3.0,316.0379320001993,2.0,1.0,phase_1,,,,,,,,,,,,,orange,flipped triangle
633.0,7.0,2.0,1.0,2.0,2.0,456.7405899997538,2.0,1.0,phase_1,,,,,,,,,,,,,blue,triangle
1277.0,8.0,4.0,1.0,1.0,1.0,401.3127270000041,2.0,1.0,phase_1,,,,,,,,,,,,,orange,flipped triangle
650.0,3.0,2.0,0.0,3.0,3.0,345.2313779998803,2.0,1.0,phase_1,,,,,,,,,,,,,gray,I
0.0,5.0,0.0,1.0,2.0,2.0,475.1867780000793,2.0,1.0,phase_1,,,,,,,,,,,,,cyan,circle
0.0,5.0,0.0,1.0,2.0,2.0,401.2572960000398,2.0,1.0,phase_1,,,,,,,,,,,,,cyan,circle
652.0,3.0,2.0,0.0,1.0,1.0,484.4811779998963,2.0,1.0,phase_1,,,,,,,,,,,,,gray,I
1312.0,4.0,4.0,0.0,1.0,1.0,346.1153069997635,2.0,1.0,phase_1,,,,,,,,,,,,,white,cross
634.0,3.0,2.0,0.0,2.0,2.0,325.9829869998611,2.0,1.0,phase_1,,,,,,,,,,,,,gray,I
336.0,6.0,1.0,1.0,1.0,1.0,306.9057830002748,2.0,1.0,phase_1,,,,,,,,,,,,,green,hexagon
1303.0,8.0,4.0,1.0,2.0,2.0,429.1429569998399,2.0,1.0,phase_1,,,,,,,,,,,,,orange,flipped triangle
301.0,6.0,1.0,1.0,4.0,4.0,315.8142910001515,2.0,1.0,phase_1,,,,,,,,,,,,,green,hexagon
1295.0,4.0,4.0,0.0,3.0,3.0,336.2260200001401,2.0,1.0,phase_1,,,,,,,,,,,,,white,cross
339.0,6.0,1.0,1.0,3.0,3.0,334.6978150002542,2.0,1.0,phase_1,,,,,,,,,,,,,green,hexagon
163.0,1.0,0.5,0.0,4.0,4.0,306.5385180002522,2.0,1.0,phase_1,,,,,,,,,,,,,yellow,square
1287.0,4.0,4.0,0.0,2.0,2.0,438.5262939999848,2.0,1.0,phase_1,,,,,,,,,,,,,white,cross
655.0,7.0,2.0,1.0,2.0,2.0,391.9101430001319,2.0,1.0,phase_1,,,,,,,,,,,,,blue,triangle
0.0,3.0,0.0,0.0,2.0,2.0,390.3229259999534,2.0,1.0,phase_1,,,,,,,,,,,,,gray,I
1277.0,4.0,4.0,0.0,4.0,4.0,466.5353290001803,2.0,1.0,phase_1,,,,,,,,,,,,,white,cross
675.0,7.0,2.0,1.0,2.0,2.0,363.8157499999579,2.0,1.0,phase_1,,,,,,,,,,,,,blue,triangle
342.0,2.0,1.0,0.0,3.0,3.0,344.8947060001046,2.0,1.0,phase_1,,,,,,,,,,,,,magenta,diamond
176.0,1.0,0.5,0.0,2.0,2.0,426.7022440003529,2.0,1.0,phase_1,,,,,,,,,,,,,yellow,square
1324.0,4.0,4.0,0.0,1.0,1.0,344.128642999749,2.0,1.0,phase_1,,,,,,,,,,,,,white,cross
656.0,7.0,2.0,1.0,2.0,2.0,307.4201570002515,2.0,1.0,phase_1,,,,,,,,,,,,,blue,triangle
330.0,2.0,1.0,0.0,1.0,1.0,297.8957579998678,2.0,1.0,phase_1,,,,,,,,,,,,,magenta,diamond
655.0,3.0,2.0,0.0,3.0,3.0,372.2340469998926,2.0,1.0,phase_1,,,,,,,,,,,,,gray,I
312.0,2.0,1.0,0.0,4.0,4.0,307.6911210000617,2.0,2.0,phase_1,,,,,,,,,,,,,magenta,diamond
301.0,2.0,1.0,0.0,3.0,3.0,355.6017290002273,2.0,1.0,phase_1,,,,,,,,,,,,,magenta,diamond
1275.0,8.0,4.0,1.0,4.0,4.0,333.8948569999047,2.0,1.0,phase_1,,,,,,,,,,,,,orange,flipped triangle
326.0,2.0,1.0,0.0,2.0,2.0,352.6629399998455,2.0,1.0,phase_1,,,,,,,,,,,,,magenta,diamond
324.0,6.0,1.0,1.0,3.0,3.0,502.3470989999623,2.0,1.0,phase_1,,,,,,,,,,,,,green,hexagon
322.0,2.0,1.0,0.0,4.0,4.0,316.426852999939,2.0,1.0,phase_1,,,,,,,,,,,,,magenta,diamond
1309.0,4.0,4.0,0.0,3.0,3.0,344.809979999809,2.0,1.0,phase_1,,,,,,,,,,,,,white,cross
171.0,1.0,0.5,0.0,3.0,3.0,288.6871330001668,2.0,1.0,phase_1,,,,,,,,,,,,,yellow,square
1288.0,4.0,4.0,0.0,4.0,4.0,316.6642399996817,2.0,1.0,phase_1,,,,,,,,,,,,,white,cross
0.0,4.0,0.0,0.0,2.0,2.0,391.0565259998293,2.0,1.0,phase_1,,,,,,,,,,,,,white,cross
169.0,1.0,0.5,0.0,1.0,1.0,354.5268369998666,2.0,1.0,phase_1,,,,,,,,,,,,,yellow,square
344.0,6.0,1.0,1.0,2.0,2.0,409.6101219997763,2.0,1.0,phase_1,,,,,,,,,,,,,green,hexagon
1284.0,4.0,4.0,0.0,3.0,3.0,381.566138999915,2.0,1.0,phase_1,,,,,,,,,,,,,white,cross
308.0,2.0,1.0,0.0,2.0,2.0,362.7668469998752,2.0,1.0,phase_1,,,,,,,,,,,,,magenta,diamond
0.0,6.0,0.0,1.0,2.0,2.0,316.5777990002425,2.0,1.0,phase_1,,,,,,,,,,,,,green,hexagon
1276.0,4.0,4.0,0.0,4.0,4.0,297.7008510001724,2.0,1.0,phase_1,,,,,,,,,,,,,white,cross
652.0,3.0,2.0,0.0,2.0,2.0,345.8393880000585,2.0,1.0,phase_1,,,,,,,,,,,,,gray,I
0.0,5.0,0.0,1.0,4.0,4.0,345.4005869998582,2.0,1.0,phase_1,,,,,,,,,,,,,cyan,circle
669.0,7.0,2.0,1.0,4.0,4.0,308.1031809997512,2.0,1.0,phase_1,,,,,,,,,,,,,blue,triangle
658.0,7.0,2.0,1.0,3.0,3.0,288.949071999923,2.0,1.0,phase_1,,,,,,,,,,,,,blue,triangle
144.0,1.0,0.5,0.0,4.0,4.0,307.8518050001548,2.0,1.0,phase_1,,,,,,,,,,,,,yellow,square
0.0,6.0,0.0,1.0,1.0,1.0,320.2114159998928,2.0,2.0,phase_1,,,,,,,,,,,,,green,hexagon
158.0,5.0,0.5,1.0,4.0,4.0,383.2798299999922,2.0,1.0,phase_1,,,,,,,,,,,,,cyan,circle
1309.0,8.0,4.0,1.0,2.0,2.0,530.6163630002629,2.0,1.0,phase_1,,,,,,,,,,,,,orange,flipped triangle
1316.0,4.0,4.0,0.0,2.0,2.0,484.9044190000313,2.0,1.0,phase_1,,,,,,,,,,,,,white,cross
176.0,5.0,0.5,1.0,1.0,1.0,408.9318810001714,2.0,1.0,phase_1,,,,,,,,,,,,,cyan,circle
642.0,3.0,2.0,0.0,4.0,4.0,486.44795600012,2.0,1.0,phase_1,,,,,,,,,,,,,gray,I
147.0,1.0,0.5,0.0,3.0,3.0,487.5473350002721,2.0,1.0,phase_1,,,,,,,,,,,,,yellow,square
0.0,7.0,0.0,1.0,4.0,4.0,448.6855929999365,2.0,1.0,phase_1,,,,,,,,,,,,,blue,triangle
317.0,2.0,1.0,0.0,4.0,4.0,412.533496999913,2.0,1.0,phase_1,,,,,,,,,,,,,magenta,diamond
1297.0,8.0,4.0,1.0,2.0,2.0,385.1552019996234,2.0,1.0,phase_1,,,,,,,,,,,,,orange,flipped triangle
162.0,5.0,0.5,1.0,2.0,2.0,382.3919550000028,2.0,1.0,phase_1,,,,,,,,,,,,,cyan,circle
326.0,6.0,1.0,1.0,3.0,3.0,354.282583999975,2.0,1.0,phase_1,,,,,,,,,,,,,green,hexagon
176.0,5.0,0.5,1.0,4.0,4.0,364.9488380001457,2.0,1.0,phase_1,,,,,,,,,,,,,cyan,circle
318.0,2.0,1.0,0.0,1.0,1.0,372.1057109996764,2.0,1.0,phase_1,,,,,,,,,,,,,magenta,diamond
345.0,2.0,1.0,0.0,4.0,4.0,439.3999710000571,2.0,1.0,phase_1,,,,,,,,,,,,,magenta,diamond
183.0,5.0,0.5,1.0,4.0,4.0,326.6697129997737,2.0,1.0,phase_1,,,,,,,,,,,,,cyan,circle
634.0,7.0,2.0,1.0,3.0,3.0,355.2931039998839,2.0,1.0,phase_1,,,,,,,,,,,,,blue,triangle
1308.0,4.0,4.0,0.0,1.0,1.0,483.4438119996775,2.0,1.0,phase_1,,,,,,,,,,,,,white,cross
317.0,2.0,1.0,0.0,4.0,4.0,344.7452540003723,2.0,1.0,phase_1,,,,,,,,,,,,,magenta,diamond
673.0,7.0,2.0,1.0,4.0,4.0,316.8942560000687,2.0,1.0,phase_1,,,,,,,,,,,,,blue,triangle
651.0,7.0,2.0,1.0,2.0,2.0,381.6592579996722,2.0,1.0,phase_1,,,,,,,,,,,,,blue,triangle
0.0,7.0,0.0,1.0,3.0,3.0,309.0043930001229,2.0,1.0,phase_1,,,,,,,,,,,,,blue,triangle
675.0,3.0,2.0,0.0,3.0,3.0,365.4197989999375,2.0,1.0,phase_1,,,,,,,,,,,,,gray,I
0.0,2.0,0.0,0.0,2.0,2.0,373.4432170003856,2.0,1.0,phase_1,,,,,,,,,,,,,magenta,diamond
306.0,6.0,1.0,1.0,4.0,4.0,352.7898170000298,2.0,1.0,phase_1,,,,,,,,,,,,,green,hexagon
0.0,4.0,0.0,0.0,1.0,1.0,345.7834169998932,2.0,1.0,phase_1,,,,,,,,,,,,,white,cross
184.0,5.0,0.5,1.0,1.0,1.0,352.9784029997245,2.0,1.0,phase_1,,,,,,,,,,,,,cyan,circle
312.0,2.0,1.0,0.0,3.0,3.0,486.8650299999899,2.0,1.0,phase_1,,,,,,,,,,,,,magenta,diamond
169.0,5.0,0.5,1.0,4.0,4.0,327.5294350000877,2.0,1.0,phase_1,,,,,,,,,,,,,cyan,circle
164.0,1.0,0.5,0.0,4.0,4.0,327.9643010000654,2.0,1.0,phase_1,,,,,,,,,,,,,yellow,square
1296.0,4.0,4.0,0.0,2.0,2.0,383.545525000045,2.0,1.0,phase_1,,,,,,,,,,,,,white,cross
141.0,5.0,0.5,1.0,1.0,1.0,420.7850000002509,2.0,1.0,phase_1,,,,,,,,,,,,,cyan,circle
330.0,6.0,1.0,1.0,3.0,3.0,373.5918380002658,2.0,1.0,phase_1,,,,,,,,,,,,,green,hexagon
662.0,3.0,2.0,0.0,4.0,4.0,307.8614169999127,2.0,1.0,phase_1,,,,,,,,,,,,,gray,I
644.0,7.0,2.0,1.0,4.0,4.0,327.4991319999571,2.0,1.0,phase_1,,,,,,,,,,,,,blue,triangle
179.0,1.0,0.5,0.0,2.0,2.0,401.4315439999336,2.0,1.0,phase_1,,,,,,,,,,,,,yellow,square
1317.0,8.0,4.0,1.0,1.0,1.0,269.9790200003917,2.0,1.0,phase_1,,,,,,,,,,,,,orange,flipped triangle
655.0,3.0,2.0,0.0,3.0,3.0,422.1240409997335,2.0,1.0,phase_1,,,,,,,,,,,,,gray,I
348.0,2.0,1.0,0.0,3.0,3.0,391.2952460000269,2.0,1.0,phase_1,,,,,,,,,,,,,magenta,diamond
336.0,2.0,1.0,0.0,2.0,2.0,364.2973279997932,2.0,1.0,phase_1,,,,,,,,,,,,,magenta,diamond
0.0,5.0,0.0,1.0,1.0,1.0,318.5890750000908,2.0,1.0,phase_1,,,,,,,,,,,,,cyan,circle
162.0,5.0,0.5,1.0,3.0,3.0,485.6707439998899,2.0,1.0,phase_1,,,,,,,,,,,,,cyan,circle
628.0,7.0,2.0,1.0,3.0,3.0,402.4728329995923,2.0,1.0,phase_1,,,,,,,,,,,,,blue,triangle
651.0,3.0,2.0,0.0,4.0,4.0,372.5989429999572,2.0,1.0,phase_1,,,,,,,,,,,,,gray,I
1310.0,8.0,4.0,1.0,1.0,1.0,344.6254020000197,3.0,1.0,phase_1,,,,,,,,,,,,,orange,flipped triangle
145.0,5.0,0.5,1.0,1.0,1.0,326.8426399999953,3.0,1.0,phase_1,,,,,,,,,,,,,cyan,circle
144.0,1.0,0.5,0.0,2.0,2.0,361.1297880001984,3.0,1.0,phase_1,,,,,,,,,,,,,yellow,square
0.0,7.0,0.0,1.0,4.0,4.0,352.7226390001488,3.0,1.0,phase_1,,,,,,,,,,,,,blue,triangle
655.0,7.0,2.0,1.0,4.0,4.0,355.2017039996826,3.0,1.0,phase_1,,,,,,,,,,,,,blue,triangle
0.0,6.0,0.0,1.0,1.0,1.0,307.1995769996647,3.0,1.0,phase_1,,,,,,,,,,,,,green,hexagon
345.0,2.0,1.0,0.0,1.0,1.0,297.7544770001259,3.0,1.0,phase_1,,,,,,,,,,,,,magenta,diamond
666.0,7.0,2.0,1.0,4.0,4.0,287.8461239997705,3.0,1.0,phase_1,,,,,,,,,,,,,blue,triangle
144.0,5.0,0.5,1.0,1.0,1.0,325.7596099997499,3.0,1.0,phase_1,,,,,,,,,,,,,cyan,circle
649.0,7.0,2.0,1.0,3.0,3.0,335.1260859999456,3.0,1.0,phase_1,,,,,,,,,,,,,blue,triangle
638.0,3.0,2.0,0.0,1.0,1.0,583.7968319997344,3.0,1.0,phase_1,,,,,,,,,,,,,gray,I
658.0,3.0,2.0,0.0,2.0,2.0,334.7173189999921,3.0,1.0,phase_1,,,,,,,,,,,,,gray,I
0.0,3.0,0.0,0.0,4.0,4.0,388.956374999907,3.0,1.0,phase_1,,,,,,,,,,,,,gray,I
158.0,5.0,0.5,1.0,4.0,4.0,344.3832020002446,3.0,1.0,phase_1,,,,,,,,,,,,,cyan,circle
662.0,7.0,2.0,1.0,1.0,1.0,399.7246150001956,3.0,1.0,phase_1,,,,,,,,,,,,,blue,triangle
0.0,8.0,0.0,1.0,3.0,3.0,362.3670859997219,3.0,1.0,phase_1,,,,,,,,,,,,,orange,flipped triangle
322.0,6.0,1.0,1.0,2.0,2.0,492.6115670000399,3.0,1.0,phase_1,,,,,,,,,,,,,green,hexagon
179.0,1.0,0.5,0.0,4.0,4.0,344.8963450000519,3.0,1.0,phase_1,,,,,,,,,,,,,yellow,square
144.0,5.0,0.5,1.0,4.0,4.0,325.8750340000915,3.0,1.0,phase_1,,,,,,,,,,,,,cyan,circle
1309.0,4.0,4.0,0.0,3.0,3.0,315.2044579996982,3.0,1.0,phase_1,,,,,,,,,,,,,white,cross
1284.0,8.0,4.0,1.0,2.0,2.0,389.7472409998954,3.0,1.0,phase_1,,,,,,,,,,,,,orange,flipped triangle
162.0,5.0,0.5,1.0,2.0,2.0,334.8520589997861,3.0,1.0,phase_1,,,,,,,,,,,,,cyan,circle
647.0,3.0,2.0,0.0,2.0,2.0,390.0047759998415,3.0,1.0,phase_1,,,,,,,,,,,,,gray,I
144.0,1.0,0.5,0.0,2.0,2.0,352.8606289996787,3.0,1.0,phase_1,,,,,,,,,,,,,yellow,square
0.0,6.0,0.0,1.0,2.0,2.0,307.2095580000678,3.0,1.0,phase_1,,,,,,,,,,,,,green,hexagon
309.0,2.0,1.0,0.0,1.0,1.0,335.1328419998935,3.0,1.0,phase_1,,,,,,,,,,,,,magenta,diamond
0.0,4.0,0.0,0.0,4.0,4.0,309.0842349997729,3.0,1.0,phase_1,,,,,,,,,,,,,white,cross
629.0,7.0,2.0,1.0,1.0,1.0,290.2525149997927,3.0,1.0,phase_1,,,,,,,,,,,,,blue,triangle
310.0,6.0,1.0,1.0,4.0,4.0,335.7265279996682,3.0,1.0,phase_1,,,,,,,,,,,,,green,hexagon
1288.0,8.0,4.0,1.0,1.0,1.0,335.5097819999173,3.0,1.0,phase_1,,,,,,,,,,,,,orange,flipped triangle
152.0,1.0,0.5,0.0,3.0,3.0,317.3034189999271,3.0,1.0,phase_1,,,,,,,,,,,,,yellow,square
301.0,2.0,1.0,0.0,1.0,1.0,344.4088319997718,3.0,1.0,phase_1,,,,,,,,,,,,,magenta,diamond
320.0,2.0,1.0,0.0,2.0,2.0,401.6761370003223,3.0,1.0,phase_1,,,,,,,,,,,,,magenta,diamond
1323.0,4.0,4.0,0.0,1.0,1.0,288.903940000182,3.0,1.0,phase_1,,,,,,,,,,,,,white,cross
163.0,5.0,0.5,1.0,3.0,3.0,399.4049679999989,3.0,1.0,phase_1,,,,,,,,,,,,,cyan,circle
673.0,3.0,2.0,0.0,4.0,4.0,334.4292369997674,3.0,1.0,phase_1,,,,,,,,,,,,,gray,I
336.0,6.0,1.0,1.0,3.0,3.0,559.7892259997934,3.0,1.0,phase_1,,,,,,,,,,,,,green,hexagon
164.0,5.0,0.5,1.0,3.0,3.0,371.8881149998196,3.0,1.0,phase_1,,,,,,,,,,,,,cyan,circle
0.0,4.0,0.0,0.0,2.0,2.0,568.9196050002465,3.0,1.0,phase_1,,,,,,,,,,,,,white,cross
1279.0,4.0,4.0,0.0,1.0,1.0,345.2405149996593,3.0,1.0,phase_1,,,,,,,,,,,,,white,cross
0.0,4.0,0.0,0.0,4.0,4.0,364.2022229996655,3.0,1.0,phase_1,,,,,,,,,,,,,white,cross
337.0,2.0,1.0,0.0,4.0,4.0,316.0489419997248,3.0,1.0,phase_1,,,,,,,,,,,,,magenta,diamond
150.0,5.0,0.5,1.0,1.0,1.0,520.8589079998092,3.0,1.0,phase_1,,,,,,,,,,,,,cyan,circle
1323.0,8.0,4.0,1.0,1.0,1.0,369.5638190001773,3.0,1.0,phase_1,,,,,,,,,,,,,orange,flipped triangle
1291.0,4.0,4.0,0.0,2.0,2.0,373.2359470000119,3.0,2.0,phase_1,,,,,,,,,,,,,white,cross
1277.0,4.0,4.0,0.0,4.0,4.0,384.0963669999837,3.0,1.0,phase_1,,,,,,,,,,,,,white,cross
184.0,1.0,0.5,0.0,1.0,1.0,362.4755490000098,3.0,1.0,phase_1,,,,,,,,,,,,,yellow,square
628.0,3.0,2.0,0.0,2.0,2.0,446.5442159998929,3.0,1.0,phase_1,,,,,,,,,,,,,gray,I
317.0,6.0,1.0,1.0,2.0,2.0,316.6551379999873,3.0,1.0,phase_1,,,,,,,,,,,,,green,hexagon
633.0,3.0,2.0,0.0,2.0,2.0,390.6052850002197,3.0,1.0,phase_1,,,,,,,,,,,,,gray,I
315.0,6.0,1.0,1.0,4.0,4.0,371.2804479996521,3.0,1.0,phase_1,,,,,,,,,,,,,green,hexagon
1321.0,4.0,4.0,0.0,4.0,4.0,398.9808530000118,3.0,1.0,phase_1,,,,,,,,,,,,,white,cross
1275.0,4.0,4.0,0.0,4.0,4.0,316.2159210000936,3.0,1.0,phase_1,,,,,,,,,,,,,white,cross
1320.0,8.0,4.0,1.0,4.0,4.0,457.0270679996611,3.0,1.0,phase_1,,,,,,,,,,,,,orange,flipped triangle
144.0,5.0,0.5,1.0,2.0,2.0,354.1577910000342,3.0,1.0,phase_1,,,,,,,,,,,,,cyan,circle
0.0,2.0,0.0,0.0,4.0,4.0,363.6290049998933,3.0,1.0,phase_1,,,,,,,,,,,,,magenta,diamond
0.0,3.0,0.0,0.0,1.0,1.0,306.1380559997815,3.0,1.0,phase_1,,,,,,,,,,,,,gray,I
1310.0,4.0,4.0,0.0,3.0,3.0,456.8156760001329,3.0,1.0,phase_1,,,,,,,,,,,,,white,cross
1316.0,8.0,4.0,1.0,3.0,3.0,373.1592409999393,3.0,1.0,phase_1,,,,,,,,,,,,,orange,flipped triangle
639.0,3.0,2.0,0.0,2.0,2.0,410.207580000133,3.0,1.0,phase_1,,,,,,,,,,,,,gray,I
335.0,6.0,1.0,1.0,4.0,4.0,299.2163590001837,3.0,1.0,phase_1,,,,,,,,,,,,,green,hexagon
336.0,2.0,1.0,0.0,2.0,2.0,455.7512810001753,3.0,1.0,phase_1,,,,,,,,,,,,,magenta,diamond
307.0,2.0,1.0,0.0,3.0,3.0,493.7322430000677,3.0,1.0,phase_1,,,,,,,,,,,,,magenta,diamond
0.0,1.0,0.0,0.0,1.0,1.0,409.0805689997978,3.0,1.0,phase_1,,,,,,,,,,,,,yellow,square
1287.0,4.0,4.0,0.0,2.0,2.0,910.0752539998213,3.0,1.0,phase_1,,,,,,,,,,,,,white,cross
140.0,1.0,0.5,0.0,3.0,3.0,418.4077370000523,3.0,1.0,phase_1,,,,,,,,,,,,,yellow,square
1324.0,8.0,4.0,1.0,2.0,2.0,418.3585050000147,3.0,1.0,phase_1,,,,,,,,,,,,,orange,flipped triangle
315.0,6.0,1.0,1.0,1.0,1.0,363.071710999975,3.0,1.0,phase_1,,,,,,,,,,,,,green,hexagon
0.0,6.0,0.0,1.0,4.0,4.0,335.5664040000192,3.0,1.0,phase_1,,,,,,,,,,,,,green,hexagon
0.0,8.0,0.0,1.0,3.0,3.0,335.8175379999011,3.0,1.0,phase_1,,,,,,,,,,,,,orange,flipped triangle
0.0,4.0,0.0,0.0,3.0,3.0,838.297965000038,3.0,1.0,phase_1,,,,,,,,,,,,,white,cross
634.0,3.0,2.0,0.0,3.0,3.0,334.6976769998946,3.0,1.0,phase_1,,,,,,,,,,,,,gray,I
1283.0,4.0,4.0,0.0,4.0,4.0,336.5161619999526,3.0,1.0,phase_1,,,,,,,,,,,,,white,cross
638.0,7.0,2.0,1.0,2.0,2.0,550.774267000179,3.0,1.0,phase_1,,,,,,,,,,,,,blue,triangle
162.0,1.0,0.5,0.0,1.0,1.0,363.4418939996067,3.0,1.0,phase_1,,,,,,,,,,,,,yellow,square
672.0,7.0,2.0,1.0,3.0,3.0,307.44324699981,3.0,1.0,phase_1,,,,,,,,,,,,,blue,triangle
312.0,6.0,1.0,1.0,4.0,4.0,298.0748650002169,3.0,1.0,phase_1,,,,,,,,,,,,,green,hexagon
152.0,5.0,0.5,1.0,3.0,3.0,309.6497340002315,3.0,1.0,phase_1,,,,,,,,,,,,,cyan,circle
631.0,3.0,2.0,0.0,4.0,4.0,298.1210759999158,3.0,1.0,phase_1,,,,,,,,,,,,,gray,I
667.0,7.0,2.0,1.0,3.0,3.0,438.2140970001273,3.0,1.0,phase_1,,,,,,,,,,,,,blue,triangle
0.0,2.0,0.0,0.0,2.0,2.0,336.5017679998345,3.0,1.0,phase_1,,,,,,,,,,,,,magenta,diamond
642.0,7.0,2.0,1.0,4.0,4.0,346.0411820001354,3.0,1.0,phase_1,,,,,,,,,,,,,blue,triangle
175.0,5.0,0.5,1.0,3.0,3.0,298.8107229998604,3.0,1.0,phase_1,,,,,,,,,,,,,cyan,circle
1318.0,8.0,4.0,1.0,4.0,4.0,327.1858910002265,3.0,1.0,phase_1,,,,,,,,,,,,,orange,flipped triangle
0.0,8.0,0.0,1.0,3.0,3.0,327.1529809999265,3.0,1.0,phase_1,,,,,,,,,,,,,orange,flipped triangle
1293.0,4.0,4.0,0.0,3.0,3.0,303.168363000168,3.0,1.0,phase_1,,,,,,,,,,,,,white,cross
327.0,6.0,1.0,1.0,1.0,1.0,449.0846429998782,3.0,1.0,phase_1,,,,,,,,,,,,,green,hexagon
1296.0,4.0,4.0,0.0,4.0,4.0,372.5567740002589,3.0,1.0,phase_1,,,,,,,,,,,,,white,cross
1295.0,8.0,4.0,1.0,3.0,3.0,353.6600259999432,3.0,1.0,phase_1,,,,,,,,,,,,,orange,flipped triangle
179.0,5.0,0.5,1.0,1.0,1.0,316.598372000044,3.0,1.0,phase_1,,,,,,,,,,,,,cyan,circle
318.0,6.0,1.0,1.0,1.0,1.0,308.7190599999303,3.0,1.0,phase_1,,,,,,,,,,,,,green,hexagon
664.0,7.0,2.0,1.0,2.0,2.0,389.7079480002503,3.0,2.0,phase_1,,,,,,,,,,,,,blue,triangle
644.0,3.0,2.0,0.0,3.0,3.0,345.7069380001485,3.0,1.0,phase_1,,,,,,,,,,,,,gray,I
642.0,7.0,2.0,1.0,1.0,1.0,353.9580450001267,3.0,1.0,phase_1,,,,,,,,,,,,,blue,triangle
1324.0,8.0,4.0,1.0,3.0,3.0,382.2318409997933,3.0,1.0,phase_1,,,,,,,,,,,,,orange,flipped triangle
0.0,8.0,0.0,1.0,1.0,1.0,363.7424209996425,3.0,1.0,phase_1,,,,,,,,,,,,,orange,flipped triangle
145.0,1.0,0.5,0.0,1.0,1.0,439.156482999806,3.0,1.0,phase_1,,,,,,,,,,,,,yellow,square
1324.0,4.0,4.0,0.0,3.0,3.0,392.1725979998882,3.0,1.0,phase_1,,,,,,,,,,,,,white,cross
646.0,3.0,2.0,0.0,1.0,1.0,380.9657419997165,3.0,1.0,phase_1,,,,,,,,,,,,,gray,I
185.0,5.0,0.5,1.0,2.0,2.0,448.2300009999562,3.0,1.0,phase_1,,,,,,,,,,,,,cyan,circle
1313.0,8.0,4.0,1.0,2.0,2.0,317.5405310003043,4.0,1.0,phase_1,,,,,,,,,,,,,orange,flipped triangle
0.0,8.0,0.0,1.0,1.0,1.0,307.6281940002445,4.0,2.0,phase_1,,,,,,,,,,,,,orange,flipped triangle
153.0,5.0,0.5,1.0,3.0,3.0,336.3696269998399,4.0,1.0,phase_1,,,,,,,,,,,,,cyan,circle
145.0,1.0,0.5,0.0,2.0,2.0,354.1957510001339,4.0,1.0,phase_1,,,,,,,,,,,,,yellow,square
1284.0,4.0,4.0,0.0,2.0,2.0,316.3131760002216,4.0,1.0,phase_1,,,,,,,,,,,,,white,cross
153.0,5.0,0.5,1.0,3.0,3.0,391.4681149999524,4.0,1.0,phase_1,,,,,,,,,,,,,cyan,circle
179.0,5.0,0.5,1.0,4.0,4.0,439.8942220000208,4.0,1.0,phase_1,,,,,,,,,,,,,cyan,circle
349.0,2.0,1.0,0.0,2.0,2.0,381.0353700000632,4.0,1.0,phase_1,,,,,,,,,,,,,magenta,diamond
1318.0,4.0,4.0,0.0,4.0,4.0,362.8285900003902,4.0,1.0,phase_1,,,,,,,,,,,,,white,cross
186.0,5.0,0.5,1.0,2.0,2.0,362.1867969995946,4.0,1.0,phase_1,,,,,,,,,,,,,cyan,circle
310.0,6.0,1.0,1.0,4.0,4.0,380.9068340001431,4.0,1.0,phase_1,,,,,,,,,,,,,green,hexagon
641.0,3.0,2.0,0.0,4.0,4.0,446.39562499969537,4.0,1.0,phase_1,,,,,,,,,,,,,gray,I
1296.0,8.0,4.0,1.0,3.0,3.0,474.0790239998205,4.0,1.0,phase_1,,,,,,,,,,,,,orange,flipped triangle
664.0,3.0,2.0,0.0,3.0,3.0,325.8056370000304,4.0,1.0,phase_1,,,,,,,,,,,,,gray,I
1307.0,8.0,4.0,1.0,3.0,3.0,307.0894890001909,4.0,1.0,phase_1,,,,,,,,,,,,,orange,flipped triangle
629.0,3.0,2.0,0.0,4.0,4.0,334.7140239998225,4.0,1.0,phase_1,,,,,,,,,,,,,gray,I
334.0,2.0,1.0,0.0,2.0,2.0,444.4339329998001,4.0,1.0,phase_1,,,,,,,,,,,,,magenta,diamond
675.0,3.0,2.0,0.0,1.0,1.0,446.74141600035,4.0,1.0,phase_1,,,,,,,,,,,,,gray,I
326.0,2.0,1.0,0.0,3.0,3.0,325.524776000293,4.0,1.0,phase_1,,,,,,,,,,,,,magenta,diamond
315.0,2.0,1.0,0.0,2.0,2.0,364.1372049996789,4.0,1.0,phase_1,,,,,,,,,,,,,magenta,diamond
153.0,1.0,0.5,0.0,1.0,1.0,353.3313739999357,4.0,1.0,phase_1,,,,,,,,,,,,,yellow,square
0.0,7.0,0.0,1.0,4.0,4.0,446.8340100002024,4.0,1.0,phase_1,,,,,,,,,,,,,blue,triangle
162.0,1.0,0.5,0.0,1.0,1.0,390.561155999876,4.0,1.0,phase_1,,,,,,,,,,,,,yellow,square
638.0,7.0,2.0,1.0,3.0,3.0,354.7521499999675,4.0,1.0,phase_1,,,,,,,,,,,,,blue,triangle
317.0,6.0,1.0,1.0,1.0,1.0,345.4748439999093,4.0,1.0,phase_1,,,,,,,,,,,,,green,hexagon
0.0,1.0,0.0,0.0,3.0,3.0,279.5288970000911,4.0,1.0,phase_1,,,,,,,,,,,,,yellow,square
0.0,1.0,0.0,0.0,3.0,3.0,345.589524999923,4.0,1.0,phase_1,,,,,,,,,,,,,yellow,square
145.0,5.0,0.5,1.0,1.0,1.0,326.0748719999355,4.0,1.0,phase_1,,,,,,,,,,,,,cyan,circle
0.0,5.0,0.0,1.0,1.0,1.0,307.3833990001731,4.0,1.0,phase_1,,,,,,,,,,,,,cyan,circle
150.0,1.0,0.5,0.0,4.0,4.0,325.8471579997604,4.0,1.0,phase_1,,,,,,,,,,,,,yellow,square
145.0,5.0,0.5,1.0,2.0,2.0,401.2784699998519,4.0,1.0,phase_1,,,,,,,,,,,,,cyan,circle
178.0,1.0,0.5,0.0,2.0,2.0,335.0141089999852,4.0,1.0,phase_1,,,,,,,,,,,,,yellow,square
315.0,2.0,1.0,0.0,1.0,1.0,362.6369610001347,4.0,1.0,phase_1,,,,,,,,,,,,,magenta,diamond
308.0,6.0,1.0,1.0,2.0,2.0,382.393396000225,4.0,1.0,phase_1,,,,,,,,,,,,,green,hexagon
1287.0,8.0,4.0,1.0,4.0,4.0,352.7958529998614,4.0,1.0,phase_1,,,,,,,,,,,,,orange,flipped triangle
1281.0,4.0,4.0,0.0,1.0,1.0,362.5860189999912,4.0,1.0,phase_1,,,,,,,,,,,,,white,cross
1320.0,8.0,4.0,1.0,3.0,3.0,315.8499500000289,4.0,1.0,phase_1,,,,,,,,,,,,,orange,flipped triangle
0.0,3.0,0.0,0.0,1.0,1.0,343.8398380003491,4.0,1.0,phase_1,,,,,,,,,,,,,gray,I
0.0,3.0,0.0,0.0,4.0,4.0,336.3051809997159,4.0,1.0,phase_1,,,,,,,,,,,,,gray,I
322.0,2.0,1.0,0.0,2.0,2.0,436.9239689999631,4.0,1.0,phase_1,,,,,,,,,,,,,magenta,diamond
639.0,7.0,2.0,1.0,1.0,1.0,307.2031350002362,4.0,1.0,phase_1,,,,,,,,,,,,,blue,triangle
0.0,6.0,0.0,1.0,2.0,2.0,335.5589850002616,4.0,1.0,phase_1,,,,,,,,,,,,,green,hexagon
158.0,1.0,0.5,0.0,3.0,3.0,353.7404419998893,4.0,1.0,phase_1,,,,,,,,,,,,,yellow,square
162.0,1.0,0.5,0.0,1.0,1.0,317.0671240000047,4.0,1.0,phase_1,,,,,,,,,,,,,yellow,square
0.0,4.0,0.0,0.0,4.0,4.0,334.344240000064,4.0,1.0,phase_1,,,,,,,,,,,,,white,cross
665.0,3.0,2.0,0.0,1.0,1.0,364.061553999818,4.0,1.0,phase_1,,,,,,,,,,,,,gray,I
0.0,1.0,0.0,0.0,4.0,4.0,316.5761250002106,4.0,1.0,phase_1,,,,,,,,,,,,,yellow,square
1299.0,8.0,4.0,1.0,2.0,2.0,427.6590999998007,4.0,1.0,phase_1,,,,,,,,,,,,,orange,flipped triangle
185.0,1.0,0.5,0.0,3.0,3.0,363.6402450001696,4.0,1.0,phase_1,,,,,,,,,,,,,yellow,square
348.0,6.0,1.0,1.0,1.0,1.0,474.7863669999788,4.0,1.0,phase_1,,,,,,,,,,,,,green,hexagon
0.0,2.0,0.0,0.0,2.0,2.0,419.7755459999825,4.0,1.0,phase_1,,,,,,,,,,,,,magenta,diamond
313.0,2.0,1.0,0.0,1.0,1.0,335.1921049998054,4.0,1.0,phase_1,,,,,,,,,,,,,magenta,diamond
316.0,2.0,1.0,0.0,4.0,4.0,307.5003320000178,4.0,1.0,phase_1,,,,,,,,,,,,,magenta,diamond
170.0,1.0,0.5,0.0,3.0,3.0,335.7720630001495,4.0,1.0,phase_1,,,,,,,,,,,,,yellow,square
171.0,5.0,0.5,1.0,4.0,4.0,316.0927349999838,4.0,1.0,phase_1,,,,,,,,,,,,,cyan,circle
313.0,6.0,1.0,1.0,4.0,4.0,315.5812699997113,4.0,1.0,phase_1,,,,,,,,,,,,,green,hexagon
0.0,5.0,0.0,1.0,1.0,1.0,316.2617259999933,4.0,1.0,phase_1,,,,,,,,,,,,,cyan,circle
0.0,7.0,0.0,1.0,4.0,4.0,326.0535250001339,4.0,1.0,phase_1,,,,,,,,,,,,,blue,triangle
656.0,3.0,2.0,0.0,4.0,4.0,288.6674070000481,4.0,1.0,phase_1,,,,,,,,,,,,,gray,I
638.0,3.0,2.0,0.0,1.0,1.0,297.702536000088,4.0,2.0,phase_1,,,,,,,,,,,,,gray,I
345.0,6.0,1.0,1.0,1.0,1.0,354.2610590002368,4.0,1.0,phase_1,,,,,,,,,,,,,green,hexagon
643.0,7.0,2.0,1.0,1.0,1.0,372.9919600000357,4.0,1.0,phase_1,,,,,,,,,,,,,blue,triangle
1321.0,8.0,4.0,1.0,2.0,2.0,317.1125510002639,4.0,2.0,phase_1,,,,,,,,,,,,,orange,flipped triangle
0.0,3.0,0.0,0.0,1.0,1.0,316.5699890000724,4.0,1.0,phase_1,,,,,,,,,,,,,gray,I
646.0,7.0,2.0,1.0,1.0,1.0,373.2278640000004,4.0,1.0,phase_1,,,,,,,,,,,,,blue,triangle
650.0,7.0,2.0,1.0,1.0,1.0,456.4118550001694,4.0,1.0,phase_1,,,,,,,,,,,,,blue,triangle
0.0,1.0,0.0,0.0,1.0,1.0,280.1277730000038,4.0,1.0,phase_1,,,,,,,,,,,,,yellow,square
169.0,5.0,0.5,1.0,3.0,3.0,392.7121140000054,4.0,1.0,phase_1,,,,,,,,,,,,,cyan,circle
0.0,5.0,0.0,1.0,4.0,4.0,356.4466319999155,4.0,1.0,phase_1,,,,,,,,,,,,,cyan,circle
345.0,6.0,1.0,1.0,4.0,4.0,384.0397919998395,4.0,1.0,phase_1,,,,,,,,,,,,,green,hexagon
0.0,2.0,0.0,0.0,3.0,3.0,335.9818600001745,4.0,1.0,phase_1,,,,,,,,,,,,,magenta,diamond
1312.0,8.0,4.0,1.0,2.0,2.0,531.6225969995685,4.0,1.0,phase_1,,,,,,,,,,,,,orange,flipped triangle
0.0,6.0,0.0,1.0,2.0,2.0,336.3852930001485,4.0,1.0,phase_1,,,,,,,,,,,,,green,hexagon
174.0,5.0,0.5,1.0,3.0,3.0,383.439730000191,4.0,1.0,phase_1,,,,,,,,,,,,,cyan,circle
170.0,5.0,0.5,1.0,1.0,1.0,309.1677580000578,4.0,1.0,phase_1,,,,,,,,,,,,,cyan,circle
140.0,5.0,0.5,1.0,4.0,4.0,335.2143659999456,4.0,1.0,phase_1,,,,,,,,,,,,,cyan,circle
334.0,6.0,1.0,1.0,4.0,4.0,344.43617099987017,4.0,1.0,phase_1,,,,,,,,,,,,,green,hexagon
1278.0,4.0,4.0,0.0,1.0,1.0,382.8369129996645,4.0,1.0,phase_1,,,,,,,,,,,,,white,cross
175.0,5.0,0.5,1.0,2.0,2.0,579.0339059999496,4.0,1.0,phase_1,,,,,,,,,,,,,cyan,circle
665.0,7.0,2.0,1.0,3.0,3.0,374.1032640000412,4.0,1.0,phase_1,,,,,,,,,,,,,blue,triangle
1291.0,8.0,4.0,1.0,1.0,1.0,324.9318150001272,4.0,1.0,phase_1,,,,,,,,,,,,,orange,flipped triangle
322.0,6.0,1.0,1.0,2.0,2.0,326.1540260000402,4.0,1.0,phase_1,,,,,,,,,,,,,green,hexagon
175.0,1.0,0.5,0.0,3.0,3.0,445.8788460001415,4.0,1.0,phase_1,,,,,,,,,,,,,yellow,square
1320.0,4.0,4.0,0.0,3.0,3.0,394.4177169996692,4.0,1.0,phase_1,,,,,,,,,,,,,white,cross
1279.0,8.0,4.0,1.0,4.0,4.0,391.4290980001169,4.0,1.0,phase_1,,,,,,,,,,,,,orange,flipped triangle
158.0,1.0,0.5,0.0,3.0,3.0,502.31941599986385,4.0,1.0,phase_1,,,,,,,,,,,,,yellow,square
0.0,8.0,0.0,1.0,2.0,2.0,408.7681880000673,4.0,1.0,phase_1,,,,,,,,,,,,,orange,flipped triangle
646.0,3.0,2.0,0.0,2.0,2.0,513.8011060003009,4.0,1.0,phase_1,,,,,,,,,,,,,gray,I
335.0,2.0,1.0,0.0,3.0,3.0,389.9916689997553,4.0,1.0,phase_1,,,,,,,,,,,,,magenta,diamond
652.0,7.0,2.0,1.0,4.0,4.0,345.6060870003057,4.0,1.0,phase_1,,,,,,,,,,,,,blue,triangle
1309.0,8.0,4.0,1.0,3.0,3.0,391.6813320001893,4.0,1.0,phase_1,,,,,,,,,,,,,orange,flipped triangle
0.0,7.0,0.0,1.0,4.0,4.0,364.7622389999014,4.0,1.0,phase_1,,,,,,,,,,,,,blue,triangle
183.0,1.0,0.5,0.0,4.0,4.0,532.7167479999844,4.0,1.0,phase_1,,,,,,,,,,,,,yellow,square
339.0,2.0,1.0,0.0,4.0,4.0,327.9750699998658,4.0,1.0,phase_1,,,,,,,,,,,,,magenta,diamond
1307.0,4.0,4.0,0.0,1.0,1.0,373.1199890003154,4.0,1.0,phase_1,,,,,,,,,,,,,white,cross
0.0,5.0,0.0,1.0,1.0,1.0,327.2615129999394,4.0,1.0,phase_1,,,,,,,,,,,,,cyan,circle
0.0,3.0,0.0,0.0,3.0,3.0,830.4288730000735,4.0,1.0,phase_1,,,,,,,,,,,,,gray,I
0.0,1.0,0.0,0.0,1.0,1.0,353.9542489997984,4.0,1.0,phase_1,,,,,,,,,,,,,yellow,square
175.0,1.0,0.5,0.0,1.0,1.0,343.6814830001822,4.0,1.0,phase_1,,,,,,,,,,,,,yellow,square
141.0,1.0,0.5,0.0,2.0,2.0,363.5367010001573,4.0,1.0,phase_1,,,,,,,,,,,,,yellow,square
0.0,8.0,4.0,1.0,5.0,5.0,709.840444999827,1.0,1.0,phase_2,go,250.0,250.0,1.0,,,,,,,,,orange,flipped triangle
0.0,4.0,4.0,0.0,6.0,6.0,775.659676000032,1.0,1.0,phase_2,go,250.0,250.0,1.0,,,,,,,,,white,cross
0.0,6.0,1.0,1.0,6.0,6.0,671.2164840000696,1.0,1.0,phase_2,stop,250.0,250.0,3.0,,,,,,,,,green,hexagon
0.0,5.0,0.5,1.0,6.0,0.0,0.0,1.0,1.0,phase_2,stop,250.0,200.0,4.0,,,,,,,,,cyan,circle
0.0,6.0,1.0,1.0,6.0,6.0,348.4889569999723,1.0,1.0,phase_2,stop,250.0,250.0,3.0,,,,,,,,,green,hexagon
0.0,2.0,1.0,0.0,6.0,6.0,1032.8978910001752,1.0,1.0,phase_2,go,250.0,200.0,1.0,,,,,,,,,magenta,diamond
0.0,8.0,4.0,1.0,6.0,0.0,0.0,1.0,1.0,phase_2,stop,250.0,200.0,4.0,,,,,,,,,orange,flipped triangle
0.0,7.0,2.0,1.0,5.0,0.0,0.0,1.0,1.0,phase_2,stop,250.0,250.0,4.0,,,,,,,,,blue,triangle
0.0,3.0,2.0,0.0,5.0,5.0,873.5716609999145,1.0,1.0,phase_2,go,300.0,250.0,1.0,,,,,,,,,gray,I
0.0,5.0,0.5,1.0,5.0,0.0,0.0,1.0,1.0,phase_2,stop,300.0,250.0,4.0,,,,,,,,,cyan,circle
0.0,2.0,1.0,0.0,5.0,5.0,698.9989740000055,1.0,1.0,phase_2,go,350.0,250.0,1.0,,,,,,,,,magenta,diamond
0.0,8.0,4.0,1.0,5.0,0.0,0.0,1.0,1.0,phase_2,stop,350.0,250.0,4.0,,,,,,,,,orange,flipped triangle
0.0,1.0,0.5,0.0,5.0,5.0,852.319001000069,1.0,1.0,phase_2,go,400.0,250.0,1.0,,,,,,,,,yellow,square
0.0,6.0,1.0,1.0,5.0,0.0,0.0,1.0,1.0,phase_2,stop,400.0,250.0,4.0,,,,,,,,,green,hexagon
0.0,4.0,4.0,0.0,6.0,6.0,746.6895140000815,1.0,1.0,phase_2,go,450.0,250.0,1.0,,,,,,,,,white,cross
0.0,8.0,4.0,1.0,5.0,0.0,0.0,1.0,1.0,phase_2,stop,450.0,250.0,4.0,,,,,,,,,orange,flipped triangle
0.0,7.0,2.0,1.0,6.0,6.0,617.3161869996875,1.0,1.0,phase_2,go,500.0,250.0,1.0,,,,,,,,,blue,triangle
0.0,6.0,1.0,1.0,5.0,0.0,0.0,1.0,1.0,phase_2,stop,500.0,250.0,4.0,,,,,,,,,green,hexagon
0.0,1.0,0.5,0.0,5.0,5.0,909.3366030001562,1.0,1.0,phase_2,go,550.0,250.0,1.0,,,,,,,,,yellow,square
0.0,6.0,1.0,1.0,6.0,0.0,0.0,1.0,1.0,phase_2,stop,550.0,250.0,4.0,,,,,,,,,green,hexagon
0.0,2.0,1.0,0.0,5.0,5.0,822.9940759997589,1.0,1.0,phase_2,go,550.0,300.0,1.0,,,,,,,,,magenta,diamond
0.0,8.0,4.0,1.0,6.0,0.0,0.0,1.0,1.0,phase_2,stop,550.0,300.0,4.0,,,,,,,,,orange,flipped triangle
0.0,5.0,0.5,1.0,5.0,0.0,0.0,1.0,1.0,phase_2,stop,550.0,350.0,4.0,,,,,,,,,cyan,circle
0.0,4.0,4.0,0.0,5.0,5.0,806.7914039997959,1.0,1.0,phase_2,go,600.0,350.0,1.0,,,,,,,,,white,cross
0.0,2.0,1.0,0.0,6.0,6.0,949.076137999782,1.0,1.0,phase_2,go,600.0,350.0,1.0,,,,,,,,,magenta,diamond
0.0,1.0,0.5,0.0,6.0,6.0,928.8893220000318,1.0,1.0,phase_2,go,600.0,350.0,1.0,,,,,,,,,yellow,square
0.0,7.0,2.0,1.0,5.0,5.0,754.5562759996756,1.0,1.0,phase_2,stop,600.0,350.0,3.0,,,,,,,,,blue,triangle
0.0,7.0,2.0,1.0,5.0,5.0,828.001576999668,1.0,1.0,phase_2,go,550.0,350.0,1.0,,,,,,,,,blue,triangle
0.0,3.0,2.0,0.0,6.0,6.0,930.2962050001042,1.0,1.0,phase_2,go,550.0,350.0,1.0,,,,,,,,,gray,I
0.0,2.0,1.0,0.0,6.0,6.0,843.6292179999327,1.0,1.0,phase_2,go,550.0,350.0,1.0,,,,,,,,,magenta,diamond
0.0,1.0,0.5,0.0,5.0,5.0,825.8727009997529,1.0,1.0,phase_2,go,550.0,350.0,1.0,,,,,,,,,yellow,square
0.0,1.0,0.5,0.0,6.0,6.0,628.8241940001171,1.0,1.0,phase_2,go,550.0,350.0,1.0,,,,,,,,,yellow,square
0.0,3.0,2.0,0.0,6.0,6.0,751.7572279998603,1.0,1.0,phase_2,go,550.0,350.0,1.0,,,,,,,,,gray,I
0.0,2.0,1.0,0.0,5.0,5.0,722.130577000371,1.0,1.0,phase_2,go,550.0,350.0,1.0,,,,,,,,,magenta,diamond
0.0,3.0,2.0,0.0,6.0,6.0,741.1520310001833,1.0,1.0,phase_2,go,550.0,350.0,1.0,,,,,,,,,gray,I
0.0,6.0,1.0,1.0,6.0,6.0,494.4030579999889,1.0,1.0,phase_2,stop,550.0,350.0,3.0,,,,,,,,,green,hexagon
0.0,1.0,0.5,0.0,6.0,6.0,348.5674700000345,2.0,1.0,phase_2,go,550.0,300.0,1.0,,,,,,,,,yellow,square
0.0,2.0,1.0,0.0,6.0,6.0,487.892114999795,2.0,1.0,phase_2,go,550.0,300.0,1.0,,,,,,,,,magenta,diamond
0.0,3.0,2.0,0.0,6.0,6.0,507.24125299984735,2.0,1.0,phase_2,go,550.0,300.0,1.0,,,,,,,,,gray,I
0.0,8.0,4.0,1.0,5.0,5.0,651.353878000009,2.0,1.0,phase_2,stop,550.0,300.0,3.0,,,,,,,,,orange,flipped triangle
0.0,7.0,2.0,1.0,6.0,0.0,0.0,2.0,1.0,phase_2,stop,500.0,300.0,4.0,,,,,,,,,blue,triangle
0.0,8.0,4.0,1.0,5.0,0.0,0.0,2.0,1.0,phase_2,stop,500.0,350.0,4.0,,,,,,,,,orange,flipped triangle
0.0,4.0,4.0,0.0,5.0,5.0,760.206183000264,2.0,1.0,phase_2,go,550.0,350.0,1.0,,,,,,,,,white,cross
0.0,6.0,1.0,1.0,6.0,0.0,0.0,2.0,1.0,phase_2,stop,550.0,350.0,4.0,,,,,,,,,green,hexagon
0.0,4.0,4.0,0.0,5.0,5.0,554.7760270001163,2.0,1.0,phase_2,go,550.0,400.0,1.0,,,,,,,,,white,cross
0.0,2.0,1.0,0.0,5.0,5.0,788.8327599998775,2.0,1.0,phase_2,go,550.0,400.0,1.0,,,,,,,,,magenta,diamond
0.0,1.0,0.5,0.0,5.0,5.0,918.9937569999528,2.0,1.0,phase_2,go,550.0,400.0,1.0,,,,,,,,,yellow,square
0.0,8.0,4.0,1.0,5.0,5.0,442.2795640002732,2.0,1.0,phase_2,stop,550.0,400.0,3.0,,,,,,,,,orange,flipped triangle
0.0,7.0,2.0,1.0,5.0,5.0,562.7916879998338,2.0,1.0,phase_2,stop,500.0,400.0,3.0,,,,,,,,,blue,triangle
0.0,8.0,4.0,1.0,6.0,0.0,0.0,2.0,1.0,phase_2,stop,450.0,400.0,4.0,,,,,,,,,orange,flipped triangle
0.0,3.0,2.0,0.0,6.0,6.0,807.5100740002199,2.0,1.0,phase_2,go,450.0,450.0,1.0,,,,,,,,,gray,I
0.0,8.0,4.0,1.0,6.0,0.0,0.0,2.0,1.0,phase_2,stop,450.0,450.0,4.0,,,,,,,,,orange,flipped triangle
0.0,6.0,1.0,1.0,5.0,5.0,702.8356349997011,2.0,1.0,phase_2,go,450.0,500.0,1.0,,,,,,,,,green,hexagon
0.0,5.0,0.5,1.0,6.0,6.0,770.551881999836,2.0,1.0,phase_2,go,450.0,500.0,1.0,,,,,,,,,cyan,circle
0.0,6.0,1.0,1.0,5.0,5.0,760.1169889999255,2.0,1.0,phase_2,go,450.0,500.0,1.0,,,,,,,,,green,hexagon
0.0,7.0,2.0,1.0,6.0,0.0,0.0,2.0,1.0,phase_2,stop,450.0,500.0,4.0,,,,,,,,,blue,triangle
0.0,8.0,4.0,1.0,6.0,6.0,375.6910440001775,2.0,1.0,phase_2,stop,450.0,550.0,3.0,,,,,,,,,orange,flipped triangle
0.0,1.0,0.5,0.0,6.0,6.0,1032.032688000072,2.0,1.0,phase_2,go,450.0,500.0,1.0,,,,,,,,,yellow,square
0.0,1.0,0.5,0.0,5.0,5.0,1013.4773320000932,2.0,1.0,phase_2,go,450.0,500.0,1.0,,,,,,,,,yellow,square
0.0,6.0,1.0,1.0,6.0,6.0,759.0393620002942,2.0,1.0,phase_2,go,450.0,500.0,1.0,,,,,,,,,green,hexagon
0.0,7.0,2.0,1.0,5.0,0.0,0.0,2.0,1.0,phase_2,stop,450.0,500.0,4.0,,,,,,,,,blue,triangle
0.0,2.0,1.0,0.0,6.0,6.0,660.5633949998264,2.0,1.0,phase_2,go,500.0,500.0,1.0,,,,,,,,,magenta,diamond
0.0,5.0,0.5,1.0,6.0,0.0,0.0,2.0,1.0,phase_2,stop,500.0,500.0,4.0,,,,,,,,,cyan,circle
0.0,4.0,4.0,0.0,6.0,6.0,778.7238549999529,2.0,1.0,phase_2,go,500.0,550.0,1.0,,,,,,,,,white,cross
0.0,8.0,4.0,1.0,5.0,0.0,0.0,2.0,1.0,phase_2,stop,500.0,550.0,4.0,,,,,,,,,orange,flipped triangle
0.0,6.0,1.0,1.0,6.0,0.0,0.0,2.0,1.0,phase_2,stop,550.0,550.0,4.0,,,,,,,,,green,hexagon
0.0,4.0,4.0,0.0,6.0,6.0,734.1203750002023,2.0,1.0,phase_2,go,550.0,600.0,1.0,,,,,,,,,white,cross
0.0,5.0,0.5,1.0,5.0,5.0,887.8584109997973,2.0,1.0,phase_2,stop,550.0,600.0,3.0,,,,,,,,,cyan,circle
0.0,8.0,4.0,1.0,5.0,5.0,740.8779100001084,2.0,1.0,phase_2,go,500.0,600.0,1.0,,,,,,,,,orange,flipped triangle
0.0,7.0,2.0,1.0,5.0,0.0,0.0,2.0,1.0,phase_2,stop,500.0,600.0,4.0,,,,,,,,,blue,triangle
0.0,6.0,1.0,1.0,6.0,6.0,319.5595820002381,2.0,1.0,phase_2,go,550.0,600.0,1.0,,,,,,,,,green,hexagon
0.0,1.0,0.5,0.0,6.0,6.0,733.4437670001535,2.0,1.0,phase_2,go,550.0,600.0,1.0,,,,,,,,,yellow,square
0.0,6.0,1.0,1.0,5.0,5.0,517.6105780001308,3.0,1.0,phase_2,stop,550.0,600.0,3.0,,,,,,,,,green,hexagon
0.0,5.0,0.5,1.0,5.0,5.0,536.9687780003005,3.0,1.0,phase_2,stop,500.0,600.0,3.0,,,,,,,,,cyan,circle
0.0,2.0,1.0,0.0,6.0,6.0,799.3693550006356,3.0,1.0,phase_2,go,450.0,600.0,1.0,,,,,,,,,magenta,diamond
0.0,8.0,4.0,1.0,6.0,6.0,563.3686789997228,3.0,1.0,phase_2,go,450.0,600.0,1.0,,,,,,,,,orange,flipped triangle
0.0,4.0,4.0,0.0,6.0,6.0,582.6449209998827,3.0,1.0,phase_2,go,450.0,600.0,1.0,,,,,,,,,white,cross
0.0,7.0,2.0,1.0,6.0,6.0,645.2443819998734,3.0,1.0,phase_2,stop,450.0,600.0,3.0,,,,,,,,,blue,triangle
0.0,4.0,4.0,0.0,5.0,0.0,0.0,3.0,1.0,phase_2,go,450.0,550.0,5.0,,,,,,,,,white,cross
0.0,1.0,0.5,0.0,5.0,5.0,479.1926200005036,3.0,1.0,phase_2,go,450.0,550.0,1.0,,,,,,,,,yellow,square
0.0,8.0,4.0,1.0,6.0,6.0,683.3450879994416,3.0,1.0,phase_2,stop,450.0,550.0,3.0,,,,,,,,,orange,flipped triangle
0.0,1.0,0.5,0.0,6.0,6.0,799.939641000492,3.0,1.0,phase_2,go,450.0,500.0,1.0,,,,,,,,,yellow,square
0.0,7.0,2.0,1.0,5.0,0.0,0.0,3.0,1.0,phase_2,stop,450.0,500.0,4.0,,,,,,,,,blue,triangle
0.0,7.0,2.0,1.0,6.0,6.0,551.9512820001182,3.0,1.0,phase_2,stop,500.0,500.0,3.0,,,,,,,,,blue,triangle
0.0,5.0,0.5,1.0,5.0,0.0,0.0,3.0,1.0,phase_2,stop,500.0,450.0,4.0,,,,,,,,,cyan,circle
0.0,4.0,4.0,0.0,6.0,6.0,610.8342179995816,3.0,1.0,phase_2,go,550.0,450.0,1.0,,,,,,,,,white,cross
0.0,2.0,1.0,0.0,6.0,6.0,884.2652889998135,3.0,1.0,phase_2,go,550.0,450.0,1.0,,,,,,,,,magenta,diamond
0.0,3.0,2.0,0.0,5.0,5.0,850.0152490005348,3.0,1.0,phase_2,go,550.0,450.0,1.0,,,,,,,,,gray,I
0.0,1.0,0.5,0.0,5.0,5.0,968.3465919997616,3.0,1.0,phase_2,go,550.0,450.0,1.0,,,,,,,,,yellow,square
0.0,5.0,0.5,1.0,5.0,5.0,776.5760559996124,3.0,1.0,phase_2,go,550.0,450.0,1.0,,,,,,,,,cyan,circle
0.0,7.0,2.0,1.0,5.0,5.0,648.3318310001778,3.0,1.0,phase_2,go,550.0,450.0,1.0,,,,,,,,,blue,triangle
0.0,2.0,1.0,0.0,5.0,5.0,705.2470950002316,3.0,1.0,phase_2,go,550.0,450.0,1.0,,,,,,,,,magenta,diamond
0.0,7.0,2.0,1.0,5.0,5.0,519.5025190005254,3.0,1.0,phase_2,stop,550.0,450.0,3.0,,,,,,,,,blue,triangle
0.0,7.0,2.0,1.0,6.0,0.0,0.0,3.0,1.0,phase_2,stop,500.0,450.0,4.0,,,,,,,,,blue,triangle
0.0,6.0,1.0,1.0,5.0,5.0,676.932322000539,3.0,1.0,phase_2,go,500.0,500.0,1.0,,,,,,,,,green,hexagon
0.0,1.0,0.5,0.0,6.0,6.0,628.5607800000435,3.0,1.0,phase_2,go,500.0,500.0,1.0,,,,,,,,,yellow,square
0.0,4.0,4.0,0.0,6.0,6.0,806.7808060004609,3.0,1.0,phase_2,go,500.0,500.0,1.0,,,,,,,,,white,cross
0.0,4.0,4.0,0.0,6.0,6.0,843.5937750000448,3.0,1.0,phase_2,go,500.0,500.0,1.0,,,,,,,,,white,cross
0.0,3.0,2.0,0.0,5.0,5.0,385.3396829999838,3.0,1.0,phase_2,go,500.0,500.0,1.0,,,,,,,,,gray,I
0.0,3.0,2.0,0.0,5.0,5.0,424.584887000492,3.0,1.0,phase_2,go,500.0,500.0,1.0,,,,,,,,,gray,I
0.0,5.0,0.5,1.0,6.0,6.0,470.2818820005632,3.0,1.0,phase_2,stop,500.0,500.0,3.0,,,,,,,,,cyan,circle
0.0,7.0,2.0,1.0,5.0,5.0,623.4217649998754,3.0,1.0,phase_2,stop,500.0,450.0,3.0,,,,,,,,,blue,triangle
0.0,2.0,1.0,0.0,5.0,5.0,695.678510000107,3.0,1.0,phase_2,go,450.0,450.0,1.0,,,,,,,,,magenta,diamond
0.0,1.0,0.5,0.0,5.0,5.0,788.7682359996688,3.0,1.0,phase_2,go,450.0,450.0,1.0,,,,,,,,,yellow,square
0.0,4.0,4.0,0.0,5.0,5.0,852.9922779998742,3.0,1.0,phase_2,go,450.0,450.0,1.0,,,,,,,,,white,cross
0.0,6.0,1.0,1.0,6.0,6.0,724.4132670002728,3.0,1.0,phase_2,go,450.0,450.0,1.0,,,,,,,,,green,hexagon
0.0,4.0,4.0,0.0,6.0,6.0,603.0428210005994,3.0,1.0,phase_2,go,450.0,450.0,1.0,,,,,,,,,white,cross
0.0,8.0,4.0,1.0,6.0,0.0,0.0,3.0,1.0,phase_2,stop,450.0,450.0,4.0,,,,,,,,,orange,flipped triangle
0.0,5.0,0.5,1.0,5.0,5.0,395.2341340000203,4.0,1.0,phase_2,stop,450.0,500.0,3.0,,,,,,,,,cyan,circle
0.0,1.0,0.5,0.0,5.0,5.0,723.012553999979,4.0,1.0,phase_2,go,400.0,500.0,1.0,,,,,,,,,yellow,square
0.0,2.0,1.0,0.0,5.0,5.0,619.0984220002065,4.0,1.0,phase_2,go,400.0,500.0,1.0,,,,,,,,,magenta,diamond
0.0,8.0,4.0,1.0,5.0,5.0,656.6277359997912,4.0,1.0,phase_2,go,400.0,500.0,1.0,,,,,,,,,orange,flipped triangle
0.0,2.0,1.0,0.0,6.0,6.0,573.0040089993054,4.0,1.0,phase_2,go,400.0,500.0,1.0,,,,,,,,,magenta,diamond
0.0,4.0,4.0,0.0,5.0,5.0,554.1773060003834,4.0,1.0,phase_2,go,400.0,500.0,1.0,,,,,,,,,white,cross
0.0,3.0,2.0,0.0,6.0,6.0,458.6095790000399,4.0,1.0,phase_2,go,400.0,500.0,1.0,,,,,,,,,gray,I
0.0,5.0,0.5,1.0,5.0,5.0,562.5408180003433,4.0,1.0,phase_2,go,400.0,500.0,1.0,,,,,,,,,cyan,circle
0.0,5.0,0.5,1.0,5.0,5.0,337.50368300025,4.0,1.0,phase_2,stop,400.0,500.0,3.0,,,,,,,,,cyan,circle
0.0,4.0,4.0,0.0,5.0,5.0,693.0294029998549,4.0,1.0,phase_2,go,350.0,500.0,1.0,,,,,,,,,white,cross
0.0,7.0,2.0,1.0,6.0,6.0,661.474186000305,4.0,1.0,phase_2,stop,350.0,500.0,3.0,,,,,,,,,blue,triangle
0.0,2.0,1.0,0.0,6.0,6.0,525.5532199998925,4.0,1.0,phase_2,go,350.0,450.0,1.0,,,,,,,,,magenta,diamond
0.0,2.0,1.0,0.0,5.0,5.0,365.2389979997679,4.0,1.0,phase_2,go,350.0,450.0,1.0,,,,,,,,,magenta,diamond
0.0,8.0,4.0,1.0,6.0,6.0,489.3328810003368,4.0,1.0,phase_2,stop,350.0,450.0,3.0,,,,,,,,,orange,flipped triangle
0.0,3.0,2.0,0.0,6.0,6.0,678.6536250001518,4.0,1.0,phase_2,go,350.0,400.0,1.0,,,,,,,,,gray,I
0.0,7.0,2.0,1.0,6.0,0.0,0.0,4.0,1.0,phase_2,stop,350.0,400.0,4.0,,,,,,,,,blue,triangle
0.0,8.0,4.0,1.0,5.0,5.0,272.2123849998752,4.0,1.0,phase_2,go,350.0,450.0,1.0,,,,,,,,,orange,flipped triangle
0.0,8.0,4.0,1.0,5.0,0.0,0.0,4.0,1.0,phase_2,stop,350.0,450.0,4.0,,,,,,,,,orange,flipped triangle
0.0,6.0,1.0,1.0,6.0,6.0,298.9838600005896,4.0,1.0,phase_2,go,400.0,450.0,1.0,,,,,,,,,green,hexagon
0.0,5.0,0.5,1.0,6.0,6.0,722.9093229998398,4.0,1.0,phase_2,go,400.0,450.0,1.0,,,,,,,,,cyan,circle
0.0,2.0,1.0,0.0,6.0,6.0,938.5027670005002,4.0,1.0,phase_2,go,400.0,450.0,1.0,,,,,,,,,magenta,diamond
0.0,6.0,1.0,1.0,5.0,0.0,0.0,4.0,1.0,phase_2,stop,400.0,450.0,4.0,,,,,,,,,green,hexagon
0.0,3.0,2.0,0.0,5.0,5.0,572.3515790004967,4.0,1.0,phase_2,go,450.0,450.0,1.0,,,,,,,,,gray,I
0.0,4.0,4.0,0.0,6.0,6.0,484.5846030002576,4.0,1.0,phase_2,go,450.0,450.0,1.0,,,,,,,,,white,cross
0.0,6.0,1.0,1.0,5.0,0.0,0.0,4.0,1.0,phase_2,stop,450.0,450.0,4.0,,,,,,,,,green,hexagon
0.0,2.0,1.0,0.0,5.0,5.0,337.9270820005331,4.0,1.0,phase_2,go,500.0,450.0,1.0,,,,,,,,,magenta,diamond
0.0,2.0,1.0,0.0,5.0,5.0,395.4325100003188,4.0,1.0,phase_2,go,500.0,450.0,1.0,,,,,,,,,magenta,diamond
0.0,3.0,2.0,0.0,5.0,5.0,882.8254600002765,4.0,1.0,phase_2,go,500.0,450.0,1.0,,,,,,,,,gray,I
0.0,4.0,4.0,0.0,5.0,5.0,851.683583000522,4.0,1.0,phase_2,go,500.0,450.0,1.0,,,,,,,,,white,cross
0.0,8.0,4.0,1.0,6.0,0.0,0.0,4.0,1.0,phase_2,stop,500.0,450.0,4.0,,,,,,,,,orange,flipped triangle
0.0,1.0,0.5,0.0,5.0,5.0,460.5253649997394,4.0,1.0,phase_2,go,500.0,500.0,1.0,,,,,,,,,yellow,square
0.0,8.0,4.0,1.0,5.0,5.0,374.864720000005,4.0,1.0,phase_2,go,500.0,500.0,1.0,,,,,,,,,orange,flipped triangle
0.0,7.0,2.0,1.0,6.0,0.0,0.0,4.0,1.0,phase_2,stop,500.0,500.0,4.0,,,,,,,,,blue,triangle
0.0,1.0,0.5,0.0,6.0,6.0,354.6710609998627,4.0,1.0,phase_2,go,500.0,550.0,1.0,,,,,,,,,yellow,square
0.0,3.0,2.0,0.0,6.0,6.0,900.2068409999993,4.0,1.0,phase_2,go,500.0,550.0,1.0,,,,,,,,,gray,I
0.0,1.0,0.5,0.0,5.0,5.0,515.9321239998462,4.0,1.0,phase_2,go,500.0,550.0,1.0,,,,,,,,,yellow,square
0.0,3.0,2.0,0.0,5.0,5.0,488.6177879998286,5.0,1.0,phase_2,go,500.0,550.0,1.0,,,,,,,,,gray,I
0.0,8.0,4.0,1.0,5.0,5.0,413.7143640000431,5.0,1.0,phase_2,stop,500.0,550.0,3.0,,,,,,,,,orange,flipped triangle
0.0,2.0,1.0,0.0,6.0,6.0,473.0261129998325,5.0,1.0,phase_2,go,450.0,550.0,1.0,,,,,,,,,magenta,diamond
0.0,5.0,0.5,1.0,6.0,6.0,607.979831999728,5.0,1.0,phase_2,stop,450.0,550.0,3.0,,,,,,,,,cyan,circle
0.0,8.0,4.0,1.0,6.0,0.0,0.0,5.0,1.0,phase_2,stop,450.0,500.0,4.0,,,,,,,,,orange,flipped triangle
0.0,5.0,0.5,1.0,6.0,6.0,582.7269789997445,5.0,1.0,phase_2,stop,450.0,550.0,3.0,,,,,,,,,cyan,circle
0.0,1.0,0.5,0.0,6.0,6.0,770.4974950001997,5.0,1.0,phase_2,go,450.0,500.0,1.0,,,,,,,,,yellow,square
0.0,4.0,4.0,0.0,5.0,5.0,592.5827130004109,5.0,1.0,phase_2,go,450.0,500.0,1.0,,,,,,,,,white,cross
0.0,6.0,1.0,1.0,6.0,0.0,0.0,5.0,1.0,phase_2,stop,450.0,500.0,4.0,,,,,,,,,green,hexagon
0.0,6.0,1.0,1.0,5.0,5.0,332.0866040003238,5.0,1.0,phase_2,stop,450.0,550.0,3.0,,,,,,,,,green,hexagon
0.0,6.0,1.0,1.0,6.0,6.0,686.7099480004981,5.0,1.0,phase_2,stop,400.0,550.0,3.0,,,,,,,,,green,hexagon
0.0,4.0,4.0,0.0,5.0,5.0,816.7993750003006,5.0,1.0,phase_2,go,400.0,500.0,1.0,,,,,,,,,white,cross
0.0,6.0,1.0,1.0,5.0,0.0,0.0,5.0,1.0,phase_2,stop,400.0,500.0,4.0,,,,,,,,,green,hexagon
0.0,3.0,2.0,0.0,5.0,5.0,619.1889810006614,5.0,1.0,phase_2,go,450.0,500.0,1.0,,,,,,,,,gray,I
0.0,7.0,2.0,1.0,6.0,6.0,671.5924070003894,5.0,1.0,phase_2,stop,450.0,500.0,3.0,,,,,,,,,blue,triangle
0.0,6.0,1.0,1.0,5.0,0.0,0.0,5.0,1.0,phase_2,stop,450.0,450.0,4.0,,,,,,,,,green,hexagon
0.0,4.0,4.0,0.0,5.0,5.0,731.8955599994297,5.0,1.0,phase_2,go,500.0,450.0,1.0,,,,,,,,,white,cross
0.0,3.0,2.0,0.0,6.0,6.0,863.3111520002785,5.0,1.0,phase_2,go,500.0,450.0,1.0,,,,,,,,,gray,I
0.0,4.0,4.0,0.0,5.0,5.0,1116.5656220000528,5.0,1.0,phase_2,go,500.0,450.0,1.0,,,,,,,,,white,cross
0.0,6.0,1.0,1.0,5.0,0.0,0.0,5.0,1.0,phase_2,stop,500.0,450.0,4.0,,,,,,,,,green,hexagon
0.0,8.0,4.0,1.0,5.0,5.0,338.507018999735,5.0,1.0,phase_2,stop,550.0,450.0,3.0,,,,,,,,,orange,flipped triangle
0.0,1.0,0.5,0.0,5.0,5.0,666.2734370001999,5.0,1.0,phase_2,go,500.0,450.0,1.0,,,,,,,,,yellow,square
0.0,8.0,4.0,1.0,6.0,6.0,956.9874260005236,5.0,1.0,phase_2,go,500.0,450.0,1.0,,,,,,,,,orange,flipped triangle
0.0,5.0,0.5,1.0,6.0,6.0,805.7969369992861,5.0,1.0,phase_2,go,500.0,450.0,1.0,,,,,,,,,cyan,circle
0.0,6.0,1.0,1.0,6.0,0.0,0.0,5.0,1.0,phase_2,stop,500.0,450.0,4.0,,,,,,,,,green,hexagon
0.0,1.0,0.5,0.0,5.0,5.0,629.3961299998045,5.0,1.0,phase_2,go,500.0,500.0,1.0,,,,,,,,,yellow,square
0.0,3.0,2.0,0.0,5.0,5.0,947.7896120006336,5.0,1.0,phase_2,go,500.0,500.0,1.0,,,,,,,,,gray,I
0.0,3.0,2.0,0.0,5.0,5.0,666.1420509999516,5.0,1.0,phase_2,go,500.0,500.0,1.0,,,,,,,,,gray,I
0.0,7.0,2.0,1.0,5.0,0.0,0.0,5.0,1.0,phase_2,stop,500.0,500.0,4.0,,,,,,,,,blue,triangle
0.0,2.0,1.0,0.0,5.0,5.0,657.796001000861,5.0,1.0,phase_2,go,550.0,500.0,1.0,,,,,,,,,magenta,diamond
0.0,5.0,0.5,1.0,5.0,5.0,318.8286419999713,5.0,1.0,phase_2,stop,550.0,500.0,3.0,,,,,,,,,cyan,circle
0.0,5.0,0.5,1.0,5.0,5.0,479.5085599998856,5.0,1.0,phase_2,go,500.0,500.0,1.0,,,,,,,,,cyan,circle
0.0,3.0,2.0,0.0,6.0,6.0,780.2514590002829,5.0,1.0,phase_2,go,500.0,500.0,1.0,,,,,,,,,gray,I
0.0,8.0,4.0,1.0,5.0,0.0,0.0,5.0,1.0,phase_2,stop,500.0,500.0,4.0,,,,,,,,,orange,flipped triangle
0.0,1.0,0.5,0.0,6.0,6.0,675.4237309996824,5.0,1.0,phase_2,go,550.0,500.0,1.0,,,,,,,,,yellow,square
0.0,3.0,2.0,0.0,6.0,6.0,761.4116410004499,5.0,1.0,phase_2,go,550.0,500.0,1.0,,,,,,,,,gray,I
0.0,2.0,1.0,0.0,6.0,6.0,431.9224889995894,6.0,1.0,phase_2,go,550.0,500.0,1.0,,,,,,,,,magenta,diamond
0.0,7.0,2.0,1.0,5.0,0.0,0.0,6.0,1.0,phase_2,stop,550.0,500.0,4.0,,,,,,,,,blue,triangle
0.0,7.0,2.0,1.0,5.0,5.0,338.0352060003133,6.0,1.0,phase_2,go,600.0,500.0,1.0,,,,,,,,,blue,triangle
0.0,2.0,1.0,0.0,5.0,5.0,770.1398159997552,6.0,1.0,phase_2,go,600.0,500.0,1.0,,,,,,,,,magenta,diamond
0.0,5.0,0.5,1.0,5.0,0.0,0.0,6.0,1.0,phase_2,stop,600.0,500.0,4.0,,,,,,,,,cyan,circle
0.0,5.0,0.5,1.0,5.0,5.0,328.6154870002065,6.0,1.0,phase_2,stop,650.0,500.0,3.0,,,,,,,,,cyan,circle
0.0,6.0,1.0,1.0,6.0,6.0,496.8498120006188,6.0,1.0,phase_2,stop,600.0,500.0,3.0,,,,,,,,,green,hexagon
0.0,2.0,1.0,0.0,6.0,6.0,507.8201770002124,6.0,1.0,phase_2,go,600.0,450.0,1.0,,,,,,,,,magenta,diamond
0.0,1.0,0.5,0.0,6.0,6.0,826.087034000011,6.0,1.0,phase_2,go,600.0,450.0,1.0,,,,,,,,,yellow,square
0.0,5.0,0.5,1.0,6.0,0.0,0.0,6.0,1.0,phase_2,stop,600.0,450.0,4.0,,,,,,,,,cyan,circle
0.0,2.0,1.0,0.0,6.0,6.0,536.2105459998929,6.0,1.0,phase_2,go,600.0,500.0,1.0,,,,,,,,,magenta,diamond
0.0,8.0,4.0,1.0,6.0,6.0,461.3006760000644,6.0,1.0,phase_2,stop,600.0,500.0,3.0,,,,,,,,,orange,flipped triangle
0.0,6.0,1.0,1.0,5.0,5.0,780.6775809995088,6.0,1.0,phase_2,go,600.0,450.0,1.0,,,,,,,,,green,hexagon
0.0,2.0,1.0,0.0,5.0,5.0,526.5329729991208,6.0,1.0,phase_2,go,600.0,450.0,1.0,,,,,,,,,magenta,diamond
0.0,6.0,1.0,1.0,6.0,0.0,0.0,6.0,1.0,phase_2,stop,600.0,450.0,4.0,,,,,,,,,green,hexagon
0.0,5.0,0.5,1.0,6.0,6.0,411.9568000005529,6.0,1.0,phase_2,go,600.0,500.0,1.0,,,,,,,,,cyan,circle
0.0,1.0,0.5,0.0,5.0,5.0,968.6036190005324,6.0,1.0,phase_2,go,600.0,500.0,1.0,,,,,,,,,yellow,square
0.0,3.0,2.0,0.0,5.0,5.0,854.4287630002145,6.0,1.0,phase_2,go,600.0,500.0,1.0,,,,,,,,,gray,I
0.0,5.0,0.5,1.0,6.0,6.0,784.7497479997401,6.0,1.0,phase_2,go,600.0,500.0,1.0,,,,,,,,,cyan,circle
0.0,3.0,2.0,0.0,6.0,6.0,448.5304329991777,6.0,1.0,phase_2,go,600.0,500.0,1.0,,,,,,,,,gray,I
0.0,6.0,1.0,1.0,5.0,5.0,479.5128579999073,6.0,1.0,phase_2,stop,600.0,500.0,3.0,,,,,,,,,green,hexagon
0.0,1.0,0.5,0.0,5.0,5.0,544.4714149998617,6.0,1.0,phase_2,go,550.0,500.0,1.0,,,,,,,,,yellow,square
0.0,7.0,2.0,1.0,6.0,6.0,443.0424180000045,6.0,1.0,phase_2,stop,550.0,500.0,3.0,,,,,,,,,blue,triangle
0.0,1.0,0.5,0.0,6.0,6.0,697.334337999564,6.0,1.0,phase_2,go,550.0,450.0,1.0,,,,,,,,,yellow,square
0.0,5.0,0.5,1.0,6.0,6.0,376.0566509999989,6.0,1.0,phase_2,stop,550.0,450.0,3.0,,,,,,,,,cyan,circle
0.0,3.0,2.0,0.0,6.0,6.0,518.4162249997826,6.0,1.0,phase_2,go,550.0,400.0,1.0,,,,,,,,,gray,I
0.0,7.0,2.0,1.0,6.0,6.0,685.2862579999055,6.0,1.0,phase_2,go,550.0,400.0,1.0,,,,,,,,,blue,triangle
0.0,7.0,2.0,1.0,5.0,5.0,927.4623780002004,6.0,1.0,phase_2,go,550.0,400.0,1.0,,,,,,,,,blue,triangle
0.0,3.0,2.0,0.0,5.0,5.0,819.1626770003495,6.0,1.0,phase_2,go,550.0,400.0,1.0,,,,,,,,,gray,I
0.0,1.0,0.5,0.0,5.0,5.0,554.630759000247,6.0,1.0,phase_2,go,550.0,400.0,1.0,,,,,,,,,yellow,square
0.0,4.0,4.0,0.0,6.0,6.0,693.5033710005882,6.0,1.0,phase_2,go,550.0,400.0,1.0,,,,,,,,,white,cross
0.0,1.0,0.5,0.0,5.0,5.0,347.546400000283,6.0,1.0,phase_2,go,550.0,400.0,1.0,,,,,,,,,yellow,square
0.0,3.0,2.0,0.0,5.0,5.0,870.7646879993263,6.0,1.0,phase_2,go,550.0,400.0,1.0,,,,,,,,,gray,I
0.0,2.0,1.0,0.0,6.0,6.0,657.8777220001939,6.0,1.0,phase_2,go,550.0,400.0,1.0,,,,,,,,,magenta,diamond
0.0,7.0,2.0,1.0,5.0,5.0,309.1468809998332,6.0,1.0,phase_2,stop,550.0,400.0,3.0,,,,,,,,,blue,triangle
0.0,8.0,4.0,1.0,6.0,0.0,0.0,6.0,1.0,phase_2,stop,500.0,400.0,4.0,,,,,,,,,orange,flipped triangle
0.0,8.0,4.0,1.0,6.0,6.0,543.9153659999647,7.0,1.0,phase_2,go,500.0,450.0,1.0,,,,,,,,,orange,flipped triangle
0.0,4.0,4.0,0.0,5.0,5.0,375.4871440005445,7.0,1.0,phase_2,go,500.0,450.0,1.0,,,,,,,,,white,cross
0.0,5.0,0.5,1.0,6.0,0.0,0.0,7.0,1.0,phase_2,stop,500.0,450.0,4.0,,,,,,,,,cyan,circle
0.0,1.0,0.5,0.0,5.0,5.0,489.2395520000718,7.0,1.0,phase_2,go,500.0,500.0,1.0,,,,,,,,,yellow,square
0.0,5.0,0.5,1.0,6.0,0.0,0.0,7.0,1.0,phase_2,stop,500.0,500.0,4.0,,,,,,,,,cyan,circle
0.0,4.0,4.0,0.0,6.0,6.0,647.0551060001526,7.0,1.0,phase_2,go,500.0,550.0,1.0,,,,,,,,,white,cross
0.0,1.0,0.5,0.0,6.0,6.0,516.9822730003943,7.0,1.0,phase_2,go,500.0,550.0,1.0,,,,,,,,,yellow,square
0.0,3.0,2.0,0.0,5.0,5.0,909.5590460001404,7.0,1.0,phase_2,go,500.0,550.0,1.0,,,,,,,,,gray,I
0.0,2.0,1.0,0.0,5.0,5.0,883.7013120000847,7.0,1.0,phase_2,go,500.0,550.0,1.0,,,,,,,,,magenta,diamond
0.0,4.0,4.0,0.0,5.0,5.0,637.6260529996216,7.0,1.0,phase_2,go,500.0,550.0,1.0,,,,,,,,,white,cross
0.0,4.0,4.0,0.0,6.0,6.0,585.926427999766,7.0,1.0,phase_2,go,500.0,550.0,1.0,,,,,,,,,white,cross
0.0,5.0,0.5,1.0,6.0,6.0,431.9388860003528,7.0,1.0,phase_2,stop,500.0,550.0,3.0,,,,,,,,,cyan,circle
0.0,2.0,1.0,0.0,5.0,5.0,844.3563970004107,7.0,1.0,phase_2,go,500.0,500.0,1.0,,,,,,,,,magenta,diamond
0.0,2.0,1.0,0.0,5.0,5.0,406.5406929994424,7.0,1.0,phase_2,go,500.0,500.0,1.0,,,,,,,,,magenta,diamond
0.0,6.0,1.0,1.0,5.0,5.0,478.5381019992201,7.0,1.0,phase_2,stop,500.0,500.0,3.0,,,,,,,,,green,hexagon
0.0,7.0,2.0,1.0,6.0,6.0,603.2257840006423,7.0,1.0,phase_2,stop,450.0,500.0,3.0,,,,,,,,,blue,triangle
0.0,4.0,4.0,0.0,5.0,5.0,608.6009929995271,7.0,1.0,phase_2,go,450.0,450.0,1.0,,,,,,,,,white,cross
0.0,4.0,4.0,0.0,6.0,6.0,580.9234210000795,7.0,1.0,phase_2,go,450.0,450.0,1.0,,,,,,,,,white,cross
0.0,7.0,2.0,1.0,5.0,5.0,575.2071420001812,7.0,1.0,phase_2,stop,450.0,450.0,3.0,,,,,,,,,blue,triangle
0.0,3.0,2.0,0.0,6.0,6.0,654.2964809996192,7.0,1.0,phase_2,go,400.0,450.0,1.0,,,,,,,,,gray,I
0.0,7.0,2.0,1.0,6.0,6.0,659.1996729994207,7.0,1.0,phase_2,stop,400.0,450.0,3.0,,,,,,,,,blue,triangle
0.0,4.0,4.0,0.0,6.0,6.0,929.69121599981,7.0,1.0,phase_2,go,400.0,400.0,1.0,,,,,,,,,white,cross
0.0,2.0,1.0,0.0,6.0,6.0,787.8849219996482,7.0,1.0,phase_2,go,400.0,400.0,1.0,,,,,,,,,magenta,diamond
0.0,1.0,0.5,0.0,6.0,6.0,975.713774999349,7.0,1.0,phase_2,go,400.0,400.0,1.0,,,,,,,,,yellow,square
0.0,3.0,2.0,0.0,5.0,5.0,713.2502049998948,7.0,1.0,phase_2,go,400.0,400.0,1.0,,,,,,,,,gray,I
0.0,3.0,2.0,0.0,6.0,6.0,863.3357329999853,7.0,1.0,phase_2,go,400.0,400.0,1.0,,,,,,,,,gray,I
0.0,7.0,2.0,1.0,6.0,6.0,421.8617469996388,7.0,1.0,phase_2,go,400.0,400.0,1.0,,,,,,,,,blue,triangle
0.0,5.0,0.5,1.0,5.0,0.0,0.0,7.0,1.0,phase_2,stop,400.0,400.0,4.0,,,,,,,,,cyan,circle
0.0,2.0,1.0,0.0,5.0,5.0,449.447168000006,7.0,1.0,phase_2,go,450.0,400.0,1.0,,,,,,,,,magenta,diamond
0.0,7.0,2.0,1.0,6.0,0.0,0.0,7.0,1.0,phase_2,stop,450.0,400.0,4.0,,,,,,,,,blue,triangle
0.0,3.0,2.0,0.0,6.0,6.0,346.1325690004742,7.0,1.0,phase_2,go,450.0,450.0,1.0,,,,,,,,,gray,I
0.0,1.0,0.5,0.0,6.0,6.0,955.9679509993656,7.0,1.0,phase_2,go,450.0,450.0,1.0,,,,,,,,,yellow,square
0.0,3.0,2.0,0.0,5.0,5.0,439.5760890001838,7.0,1.0,phase_2,go,450.0,450.0,1.0,,,,,,,,,gray,I
0.0,7.0,2.0,1.0,5.0,5.0,822.0634830004201,7.0,1.0,phase_2,go,450.0,450.0,1.0,,,,,,,,,blue,triangle
0.0,5.0,0.5,1.0,5.0,0.0,0.0,7.0,1.0,phase_2,stop,450.0,450.0,4.0,,,,,,,,,cyan,circle
0.0,8.0,4.0,1.0,6.0,6.0,318.6686159997407,7.0,1.0,phase_2,stop,500.0,450.0,3.0,,,,,,,,,orange,flipped triangle
0.0,6.0,1.0,1.0,5.0,5.0,412.8075070002523,8.0,1.0,phase_2,stop,500.0,400.0,3.0,,,,,,,,,green,hexagon
0.0,5.0,0.5,1.0,6.0,6.0,419.7335329999987,8.0,1.0,phase_2,go,450.0,400.0,1.0,,,,,,,,,cyan,circle
0.0,5.0,0.5,1.0,5.0,5.0,412.3099549997278,8.0,1.0,phase_2,stop,450.0,400.0,3.0,,,,,,,,,cyan,circle
0.0,4.0,4.0,0.0,5.0,5.0,593.4149900003831,8.0,1.0,phase_2,go,400.0,400.0,1.0,,,,,,,,,white,cross
0.0,4.0,4.0,0.0,5.0,5.0,506.064723000236,8.0,1.0,phase_2,go,400.0,400.0,1.0,,,,,,,,,white,cross
0.0,6.0,1.0,1.0,5.0,0.0,0.0,8.0,1.0,phase_2,stop,400.0,400.0,4.0,,,,,,,,,green,hexagon
0.0,1.0,0.5,0.0,6.0,6.0,291.8108149997351,8.0,1.0,phase_2,go,450.0,400.0,1.0,,,,,,,,,yellow,square
0.0,4.0,4.0,0.0,6.0,6.0,356.7177909999373,8.0,1.0,phase_2,go,450.0,400.0,1.0,,,,,,,,,white,cross
0.0,4.0,4.0,0.0,6.0,6.0,713.0661609999152,8.0,1.0,phase_2,go,450.0,400.0,1.0,,,,,,,,,white,cross
0.0,7.0,2.0,1.0,6.0,6.0,357.1084589993916,8.0,1.0,phase_2,stop,450.0,400.0,3.0,,,,,,,,,blue,triangle
0.0,8.0,4.0,1.0,6.0,0.0,0.0,8.0,1.0,phase_2,stop,450.0,350.0,4.0,,,,,,,,,orange,flipped triangle
0.0,4.0,4.0,0.0,6.0,6.0,610.0285299999086,8.0,1.0,phase_2,go,450.0,400.0,1.0,,,,,,,,,white,cross
0.0,6.0,1.0,1.0,6.0,6.0,572.9749550000633,8.0,1.0,phase_2,go,450.0,400.0,1.0,,,,,,,,,green,hexagon
0.0,2.0,1.0,0.0,6.0,6.0,646.7499560003489,8.0,1.0,phase_2,go,450.0,400.0,1.0,,,,,,,,,magenta,diamond
0.0,6.0,1.0,1.0,6.0,6.0,348.9431420002802,8.0,1.0,phase_2,stop,450.0,400.0,3.0,,,,,,,,,green,hexagon
0.0,5.0,0.5,1.0,6.0,0.0,0.0,8.0,1.0,phase_2,stop,450.0,350.0,4.0,,,,,,,,,cyan,circle
0.0,3.0,2.0,0.0,5.0,5.0,495.4933110002457,8.0,1.0,phase_2,go,450.0,400.0,1.0,,,,,,,,,gray,I
0.0,5.0,0.5,1.0,6.0,6.0,376.0423659996377,8.0,1.0,phase_2,stop,450.0,400.0,3.0,,,,,,,,,cyan,circle
0.0,2.0,1.0,0.0,5.0,5.0,666.7539119998764,8.0,1.0,phase_2,go,450.0,350.0,1.0,,,,,,,,,magenta,diamond
0.0,8.0,4.0,1.0,6.0,6.0,281.7710749995967,8.0,1.0,phase_2,go,450.0,350.0,1.0,,,,,,,,,orange,flipped triangle
0.0,1.0,0.5,0.0,6.0,6.0,704.1564510000171,8.0,1.0,phase_2,go,450.0,350.0,1.0,,,,,,,,,yellow,square
0.0,1.0,0.5,0.0,6.0,6.0,750.5540040001506,8.0,1.0,phase_2,go,450.0,350.0,1.0,,,,,,,,,yellow,square
0.0,5.0,0.5,1.0,5.0,0.0,0.0,8.0,1.0,phase_2,stop,450.0,350.0,4.0,,,,,,,,,cyan,circle
0.0,7.0,2.0,1.0,5.0,5.0,300.0481199997011,8.0,1.0,phase_2,go,500.0,350.0,1.0,,,,,,,,,blue,triangle
0.0,3.0,2.0,0.0,6.0,6.0,535.4084029995647,8.0,1.0,phase_2,go,500.0,350.0,1.0,,,,,,,,,gray,I
0.0,8.0,4.0,1.0,5.0,5.0,661.6130109996448,8.0,1.0,phase_2,stop,500.0,350.0,3.0,,,,,,,,,orange,flipped triangle
0.0,5.0,0.5,1.0,5.0,5.0,329.8388889998023,8.0,1.0,phase_2,stop,450.0,350.0,3.0,,,,,,,,,cyan,circle
0.0,2.0,1.0,0.0,6.0,6.0,516.5711789995839,8.0,1.0,phase_2,go,400.0,350.0,1.0,,,,,,,,,magenta,diamond
0.0,4.0,4.0,0.0,5.0,5.0,610.4650930001299,8.0,1.0,phase_2,go,400.0,350.0,1.0,,,,,,,,,white,cross
0.0,8.0,4.0,1.0,5.0,5.0,348.1429599996772,8.0,1.0,phase_2,stop,400.0,350.0,3.0,,,,,,,,,orange,flipped triangle
0.0,8.0,4.0,1.0,5.0,0.0,0.0,8.0,1.0,phase_2,stop,350.0,350.0,4.0,,,,,,,,,orange,flipped triangle
0.0,7.0,2.0,1.0,6.0,6.0,477.0520179999948,8.0,1.0,phase_2,stop,400.0,350.0,3.0,,,,,,,,,blue,triangle
0.0,3.0,2.0,0.0,5.0,5.0,883.1840339998962,8.0,1.0,phase_2,go,400.0,300.0,1.0,,,,,,,,,gray,I
0.0,6.0,1.0,1.0,5.0,0.0,0.0,8.0,1.0,phase_2,stop,400.0,300.0,4.0,,,,,,,,,green,hexagon
0.0,6.0,1.0,1.0,6.0,6.0,332.2651919997952,8.0,1.0,phase_2,stop,450.0,300.0,3.0,,,,,,,,,green,hexagon
0.0,3.0,2.0,0.0,6.0,6.0,583.3906660000139,8.0,1.0,phase_2,go,450.0,250.0,1.0,,,,,,,,,gray,I
0.0,5.0,0.5,1.0,7.0,5.0,3237.168316000861,1.0,1.0,phase_3,,,,,692.0,4.0,519.0,346.0,1038.0,865.0,692.0,173.0,cyan,circle
0.0,3.0,2.0,0.0,7.0,6.0,2957.748695999726,1.0,1.0,phase_3,,,,,865.0,5.0,692.0,173.0,1038.0,519.0,346.0,865.0,gray,I
0.0,1.0,0.5,0.0,7.0,6.0,2847.406713000055,1.0,1.0,phase_3,,,,,770.0,5.0,616.0,308.0,924.0,154.0,462.0,770.0,yellow,square
0.0,8.0,4.0,1.0,7.0,4.0,3400.9758180000063,1.0,1.0,phase_3,,,,,960.0,5.0,1152.0,576.0,192.0,960.0,384.0,768.0,orange,flipped triangle
0.0,7.0,2.0,1.0,7.0,6.0,1410.7734449999043,1.0,1.0,phase_3,,,,,580.0,5.0,116.0,348.0,232.0,696.0,464.0,580.0,blue,triangle
0.0,8.0,4.0,1.0,7.0,1.0,3790.188050999859,1.0,1.0,phase_3,,,,,270.0,2.0,270.0,405.0,135.0,540.0,675.0,810.0,orange,flipped triangle
0.0,5.0,0.5,1.0,7.0,5.0,2997.5912250001784,1.0,1.0,phase_3,,,,,768.0,4.0,960.0,576.0,192.0,384.0,768.0,1152.0,cyan,circle
0.0,5.0,0.5,1.0,7.0,6.0,2212.951145999796,1.0,1.0,phase_3,,,,,675.0,5.0,405.0,135.0,540.0,810.0,270.0,675.0,cyan,circle
0.0,3.0,2.0,0.0,7.0,5.0,3463.865614000497,1.0,1.0,phase_3,,,,,770.0,5.0,462.0,924.0,308.0,616.0,770.0,154.0,gray,I
0.0,8.0,4.0,1.0,7.0,2.0,3884.321192000243,1.0,1.0,phase_3,,,,,462.0,3.0,616.0,462.0,154.0,924.0,308.0,770.0,orange,flipped triangle
0.0,2.0,1.0,0.0,7.0,1.0,3594.431225000335,1.0,1.0,phase_3,,,,,616.0,4.0,616.0,462.0,308.0,924.0,770.0,154.0,magenta,diamond
0.0,2.0,1.0,0.0,7.0,4.0,4589.519262000067,1.0,1.0,phase_3,,,,,960.0,5.0,1152.0,192.0,576.0,960.0,768.0,384.0,magenta,diamond
0.0,4.0,4.0,0.0,7.0,3.0,3007.776317000207,1.0,1.0,phase_3,,,,,696.0,6.0,116.0,348.0,696.0,464.0,232.0,580.0,white,cross
0.0,2.0,1.0,0.0,7.0,3.0,4525.437641000281,1.0,1.0,phase_3,,,,,462.0,3.0,770.0,924.0,462.0,616.0,154.0,308.0,magenta,diamond
0.0,6.0,1.0,1.0,7.0,5.0,1414.4226739999797,1.0,1.0,phase_3,,,,,770.0,5.0,462.0,616.0,308.0,154.0,770.0,924.0,green,hexagon
0.0,6.0,1.0,1.0,7.0,6.0,2046.501083999829,1.0,1.0,phase_3,,,,,960.0,5.0,384.0,192.0,768.0,576.0,1152.0,960.0,green,hexagon
0.0,7.0,2.0,1.0,7.0,4.0,982.8173839996452,1.0,1.0,phase_3,,,,,462.0,3.0,616.0,308.0,924.0,462.0,154.0,770.0,blue,triangle
0.0,2.0,1.0,0.0,7.0,6.0,4296.895041000425,1.0,1.0,phase_3,,,,,865.0,5.0,346.0,692.0,1038.0,519.0,173.0,865.0,magenta,diamond
0.0,5.0,0.5,1.0,7.0,1.0,2250.7522610003434,1.0,1.0,phase_3,,,,,405.0,3.0,405.0,810.0,270.0,135.0,675.0,540.0,cyan,circle
0.0,6.0,1.0,1.0,7.0,6.0,1198.3163510003578,1.0,1.0,phase_3,,,,,616.0,4.0,770.0,462.0,308.0,154.0,924.0,616.0,green,hexagon
0.0,4.0,4.0,0.0,7.0,6.0,1214.5305120002376,2.0,1.0,phase_3,,,,,692.0,4.0,173.0,346.0,865.0,519.0,1038.0,692.0,white,cross
0.0,1.0,0.5,0.0,7.0,6.0,1538.286261000394,2.0,1.0,phase_3,,,,,348.0,3.0,580.0,232.0,464.0,116.0,696.0,348.0,yellow,square
0.0,3.0,2.0,0.0,7.0,1.0,1227.685396999732,2.0,1.0,phase_3,,,,,696.0,6.0,696.0,116.0,580.0,232.0,348.0,464.0,gray,I
0.0,7.0,2.0,1.0,7.0,5.0,1605.9040360005383,2.0,1.0,phase_3,,,,,519.0,3.0,692.0,173.0,865.0,346.0,519.0,1038.0,blue,triangle
0.0,2.0,1.0,0.0,7.0,3.0,1668.1761379995803,2.0,1.0,phase_3,,,,,580.0,5.0,116.0,696.0,580.0,348.0,464.0,232.0,magenta,diamond
0.0,7.0,2.0,1.0,7.0,5.0,1039.474139000049,2.0,1.0,phase_3,,,,,464.0,4.0,116.0,348.0,232.0,696.0,464.0,580.0,blue,triangle
0.0,6.0,1.0,1.0,7.0,2.0,1763.3866339992892,2.0,1.0,phase_3,,,,,270.0,2.0,675.0,270.0,135.0,810.0,540.0,405.0,green,hexagon
0.0,6.0,1.0,1.0,7.0,1.0,2142.345127000226,2.0,1.0,phase_3,,,,,580.0,5.0,580.0,232.0,464.0,348.0,696.0,116.0,green,hexagon
0.0,4.0,4.0,0.0,7.0,3.0,2674.919996000426,2.0,1.0,phase_3,,,,,580.0,5.0,232.0,464.0,580.0,348.0,116.0,696.0,white,cross
0.0,3.0,2.0,0.0,7.0,1.0,3628.7898679993305,2.0,1.0,phase_3,,,,,865.0,5.0,865.0,519.0,346.0,692.0,1038.0,173.0,gray,I
0.0,6.0,1.0,1.0,7.0,5.0,1413.6694640001224,2.0,1.0,phase_3,,,,,692.0,4.0,1038.0,346.0,173.0,865.0,692.0,519.0,green,hexagon
0.0,5.0,0.5,1.0,7.0,6.0,1545.0248020006256,2.0,1.0,phase_3,,,,,348.0,3.0,580.0,116.0,696.0,464.0,232.0,348.0,cyan,circle
0.0,3.0,2.0,0.0,7.0,5.0,1995.2435920004064,2.0,1.0,phase_3,,,,,616.0,4.0,462.0,770.0,154.0,308.0,616.0,924.0,gray,I
0.0,7.0,2.0,1.0,7.0,4.0,2146.377443999881,2.0,1.0,phase_3,,,,,270.0,2.0,405.0,540.0,135.0,270.0,675.0,810.0,blue,triangle
0.0,3.0,2.0,0.0,7.0,2.0,1821.4630109996504,2.0,1.0,phase_3,,,,,405.0,3.0,270.0,405.0,810.0,135.0,540.0,675.0,gray,I
0.0,8.0,4.0,1.0,7.0,5.0,2348.5047900003337,2.0,1.0,phase_3,,,,,464.0,4.0,232.0,116.0,580.0,696.0,464.0,348.0,orange,flipped triangle
0.0,1.0,0.5,0.0,7.0,6.0,1922.944132999873,2.0,1.0,phase_3,,,,,960.0,5.0,384.0,576.0,1152.0,192.0,768.0,960.0,yellow,square
0.0,3.0,2.0,0.0,7.0,6.0,2703.919671999756,2.0,1.0,phase_3,,,,,580.0,5.0,348.0,464.0,696.0,116.0,232.0,580.0,gray,I
0.0,7.0,2.0,1.0,7.0,4.0,2251.29066000045,2.0,1.0,phase_3,,,,,346.0,2.0,519.0,865.0,173.0,346.0,1038.0,692.0,blue,triangle
0.0,6.0,1.0,1.0,7.0,2.0,2119.071179000457,2.0,1.0,phase_3,,,,,696.0,6.0,348.0,696.0,464.0,580.0,116.0,232.0,green,hexagon
0.0,8.0,4.0,1.0,7.0,1.0,2939.224821000608,3.0,1.0,phase_3,,,,,540.0,4.0,540.0,135.0,675.0,405.0,270.0,810.0,orange,flipped triangle
0.0,6.0,1.0,1.0,7.0,6.0,2193.677117000334,3.0,1.0,phase_3,,,,,405.0,3.0,270.0,810.0,540.0,675.0,135.0,405.0,green,hexagon
0.0,2.0,1.0,0.0,7.0,5.0,4678.394953999487,3.0,1.0,phase_3,,,,,960.0,5.0,576.0,768.0,1152.0,192.0,960.0,384.0,magenta,diamond
0.0,8.0,4.0,1.0,7.0,3.0,2113.705626999945,3.0,1.0,phase_3,,,,,692.0,4.0,519.0,173.0,692.0,865.0,1038.0,346.0,orange,flipped triangle
0.0,4.0,4.0,0.0,7.0,4.0,1467.6820099994077,3.0,1.0,phase_3,,,,,308.0,2.0,770.0,462.0,154.0,308.0,616.0,924.0,white,cross
0.0,1.0,0.5,0.0,7.0,3.0,2286.8526219999694,3.0,1.0,phase_3,,,,,519.0,3.0,1038.0,346.0,519.0,865.0,692.0,173.0,yellow,square
0.0,6.0,1.0,1.0,7.0,6.0,1356.2673439992068,3.0,1.0,phase_3,,,,,576.0,3.0,768.0,960.0,192.0,384.0,1152.0,576.0,green,hexagon
0.0,2.0,1.0,0.0,7.0,1.0,4189.523775000453,3.0,1.0,phase_3,,,,,675.0,5.0,675.0,405.0,810.0,270.0,135.0,540.0,magenta,diamond
0.0,7.0,2.0,1.0,7.0,2.0,1776.8361529997492,3.0,1.0,phase_3,,,,,960.0,5.0,1152.0,960.0,192.0,576.0,384.0,768.0,blue,triangle
0.0,1.0,0.5,0.0,7.0,1.0,2759.571280000273,3.0,1.0,phase_3,,,,,696.0,6.0,696.0,116.0,580.0,348.0,232.0,464.0,yellow,square
0.0,1.0,0.5,0.0,7.0,5.0,1397.303751000436,3.0,1.0,phase_3,,,,,540.0,4.0,270.0,810.0,405.0,135.0,540.0,675.0,yellow,square
0.0,5.0,0.5,1.0,7.0,3.0,2157.865430000129,3.0,1.0,phase_3,,,,,770.0,5.0,308.0,154.0,770.0,924.0,616.0,462.0,cyan,circle
0.0,7.0,2.0,1.0,7.0,2.0,2270.7260520001,3.0,1.0,phase_3,,,,,616.0,4.0,462.0,616.0,924.0,308.0,154.0,770.0,blue,triangle
0.0,8.0,4.0,1.0,7.0,4.0,1782.31887200036,3.0,1.0,phase_3,,,,,692.0,4.0,1038.0,519.0,173.0,692.0,346.0,865.0,orange,flipped triangle
0.0,1.0,0.5,0.0,7.0,2.0,1803.0600729998696,3.0,1.0,phase_3,,,,,616.0,4.0,462.0,616.0,308.0,770.0,924.0,154.0,yellow,square
0.0,6.0,1.0,1.0,7.0,4.0,2159.5518650001395,3.0,1.0,phase_3,,,,,865.0,5.0,692.0,346.0,519.0,865.0,1038.0,173.0,green,hexagon
0.0,2.0,1.0,0.0,7.0,6.0,2669.526032999784,3.0,1.0,phase_3,,,,,1038.0,6.0,346.0,173.0,692.0,519.0,865.0,1038.0,magenta,diamond
0.0,3.0,2.0,0.0,7.0,1.0,1622.5451420004902,3.0,1.0,phase_3,,,,,576.0,3.0,576.0,960.0,192.0,384.0,768.0,1152.0,gray,I
0.0,5.0,0.5,1.0,7.0,2.0,2964.8215449997224,3.0,1.0,phase_3,,,,,616.0,4.0,924.0,616.0,308.0,462.0,770.0,154.0,cyan,circle
0.0,7.0,2.0,1.0,7.0,4.0,3201.2466040005165,3.0,1.0,phase_3,,,,,960.0,5.0,1152.0,576.0,768.0,960.0,192.0,384.0,blue,triangle
0.0,4.0,4.0,0.0,7.0,6.0,828.0326849999256,4.0,1.0,phase_3,,,,,540.0,4.0,675.0,135.0,270.0,810.0,405.0,540.0,white,cross
0.0,4.0,4.0,0.0,7.0,2.0,1285.381579999921,4.0,1.0,phase_3,,,,,576.0,3.0,768.0,576.0,384.0,1152.0,192.0,960.0,white,cross
0.0,1.0,0.5,0.0,7.0,1.0,2080.77048999985,4.0,1.0,phase_3,,,,,675.0,5.0,675.0,405.0,540.0,810.0,270.0,135.0,yellow,square
0.0,7.0,2.0,1.0,7.0,4.0,1700.7841550002922,4.0,1.0,phase_3,,,,,540.0,4.0,405.0,675.0,810.0,540.0,270.0,135.0,blue,triangle
0.0,2.0,1.0,0.0,7.0,1.0,1716.496478999943,4.0,1.0,phase_3,,,,,696.0,6.0,696.0,232.0,116.0,348.0,464.0,580.0,magenta,diamond
0.0,4.0,4.0,0.0,7.0,6.0,855.692561000069,4.0,1.0,phase_3,,,,,576.0,3.0,192.0,1152.0,960.0,384.0,768.0,576.0,white,cross
0.0,8.0,4.0,1.0,7.0,5.0,880.7066270001087,4.0,1.0,phase_3,,,,,768.0,4.0,576.0,960.0,384.0,1152.0,768.0,192.0,orange,flipped triangle
0.0,3.0,2.0,0.0,7.0,2.0,1431.170351000219,4.0,1.0,phase_3,,,,,768.0,4.0,576.0,768.0,960.0,192.0,1152.0,384.0,gray,I
0.0,5.0,0.5,1.0,7.0,5.0,2659.949916000187,4.0,1.0,phase_3,,,,,348.0,3.0,580.0,464.0,696.0,232.0,348.0,116.0,cyan,circle
0.0,8.0,4.0,1.0,7.0,3.0,1838.914723999551,4.0,1.0,phase_3,,,,,580.0,5.0,464.0,232.0,580.0,348.0,696.0,116.0,orange,flipped triangle
0.0,3.0,2.0,0.0,7.0,2.0,1713.1116450000263,4.0,1.0,phase_3,,,,,540.0,4.0,810.0,540.0,405.0,675.0,270.0,135.0,gray,I
0.0,4.0,4.0,0.0,7.0,6.0,1262.929086999975,4.0,1.0,phase_3,,,,,616.0,4.0,924.0,308.0,770.0,154.0,462.0,616.0,white,cross
0.0,4.0,4.0,0.0,7.0,2.0,1913.04536700045,4.0,1.0,phase_3,,,,,692.0,4.0,173.0,692.0,1038.0,346.0,519.0,865.0,white,cross
0.0,5.0,0.5,1.0,7.0,4.0,2291.324672999508,4.0,1.0,phase_3,,,,,576.0,3.0,960.0,192.0,768.0,576.0,1152.0,384.0,cyan,circle
0.0,8.0,4.0,1.0,7.0,3.0,1328.7097149996043,4.0,1.0,phase_3,,,,,616.0,4.0,462.0,154.0,616.0,770.0,924.0,308.0,orange,flipped triangle
0.0,2.0,1.0,0.0,7.0,5.0,1431.2138420000338,4.0,1.0,phase_3,,,,,810.0,6.0,135.0,405.0,540.0,675.0,810.0,270.0,magenta,diamond
0.0,5.0,0.5,1.0,7.0,5.0,3134.745436999765,4.0,1.0,phase_3,,,,,519.0,3.0,865.0,173.0,346.0,1038.0,519.0,692.0,cyan,circle
0.0,1.0,0.5,0.0,7.0,6.0,733.8699880001514,4.0,1.0,phase_3,,,,,960.0,5.0,576.0,1152.0,384.0,768.0,192.0,960.0,yellow,square
0.0,4.0,4.0,0.0,7.0,6.0,1529.157500999645,4.0,1.0,phase_3,,,,,675.0,5.0,540.0,135.0,405.0,810.0,270.0,675.0,white,cross
0.0,1.0,0.5,0.0,7.0,4.0,2006.3802149998078,4.0,1.0,phase_3,,,,,1038.0,6.0,346.0,865.0,519.0,1038.0,692.0,173.0,yellow,square
