raw_reward_magnitude,stim_reward,stepwise_reward_magnitude,paired_with_stopping,stim_location,response,reaction_time,block,num_trial_presentations,which_phase,stop_signal_trial_type,left_SSD,right_SSD,accuracy,chosen_bidding_amount,chosen_bidding_level,possible_bid_1,possible_bid_2,possible_bid_3,possible_bid_4,possible_bid_5,possible_bid_6,color_text,shape_text
329.0,6.0,1.0,1.0,4.0,4.0,468.2786729999861,1.0,1.0,phase_1,,,,,,,,,,,,,yellow,circle
629.0,7.0,2.0,1.0,3.0,3.0,512.3258180001358,1.0,1.0,phase_1,,,,,,,,,,,,,green,I
166.0,5.0,0.5,1.0,4.0,4.0,389.619410999785,1.0,1.0,phase_1,,,,,,,,,,,,,blue,diamond
159.0,5.0,0.5,1.0,2.0,2.0,502.80777999978454,1.0,1.0,phase_1,,,,,,,,,,,,,blue,diamond
316.0,6.0,1.0,1.0,1.0,1.0,423.4694239999044,1.0,1.0,phase_1,,,,,,,,,,,,,yellow,circle
0.0,3.0,0.0,0.0,3.0,3.0,368.0695339999147,1.0,1.0,phase_1,,,,,,,,,,,,,magenta,flipped triangle
1323.0,4.0,4.0,0.0,1.0,1.0,419.9697270000797,1.0,1.0,phase_1,,,,,,,,,,,,,white,cross
1285.0,4.0,4.0,0.0,3.0,3.0,448.2166029997643,1.0,1.0,phase_1,,,,,,,,,,,,,white,cross
0.0,1.0,0.0,0.0,1.0,1.0,484.9831369997446,1.0,2.0,phase_1,,,,,,,,,,,,,orange,triangle
0.0,6.0,0.0,1.0,3.0,3.0,412.3052840000127,1.0,1.0,phase_1,,,,,,,,,,,,,yellow,circle
662.0,7.0,2.0,1.0,2.0,2.0,514.2774129999452,1.0,1.0,phase_1,,,,,,,,,,,,,green,I
138.0,1.0,0.5,0.0,4.0,4.0,513.9911450000909,1.0,1.0,phase_1,,,,,,,,,,,,,orange,triangle
173.0,1.0,0.5,0.0,1.0,1.0,467.0702799999162,1.0,1.0,phase_1,,,,,,,,,,,,,orange,triangle
0.0,5.0,0.0,1.0,4.0,4.0,476.7924570001014,1.0,1.0,phase_1,,,,,,,,,,,,,blue,diamond
627.0,3.0,2.0,0.0,2.0,2.0,475.8313470001667,1.0,1.0,phase_1,,,,,,,,,,,,,magenta,flipped triangle
333.0,2.0,1.0,0.0,1.0,1.0,476.637539999956,1.0,1.0,phase_1,,,,,,,,,,,,,gray,square
138.0,5.0,0.5,1.0,3.0,3.0,411.0055260002809,1.0,1.0,phase_1,,,,,,,,,,,,,blue,diamond
318.0,2.0,1.0,0.0,1.0,1.0,558.4145490001902,1.0,1.0,phase_1,,,,,,,,,,,,,gray,square
1297.0,8.0,4.0,1.0,1.0,1.0,410.7288529999096,1.0,1.0,phase_1,,,,,,,,,,,,,cyan,hexagon
1292.0,4.0,4.0,0.0,1.0,1.0,420.8116289996724,1.0,1.0,phase_1,,,,,,,,,,,,,white,cross
185.0,1.0,0.5,0.0,1.0,1.0,357.0829029999913,1.0,1.0,phase_1,,,,,,,,,,,,,orange,triangle
318.0,2.0,1.0,0.0,1.0,1.0,471.1393249999673,1.0,1.0,phase_1,,,,,,,,,,,,,gray,square
653.0,3.0,2.0,0.0,2.0,2.0,455.733366000004,1.0,1.0,phase_1,,,,,,,,,,,,,magenta,flipped triangle
347.0,6.0,1.0,1.0,1.0,1.0,446.9880110000304,1.0,1.0,phase_1,,,,,,,,,,,,,yellow,circle
645.0,3.0,2.0,0.0,3.0,3.0,401.02076400035,1.0,1.0,phase_1,,,,,,,,,,,,,magenta,flipped triangle
1296.0,8.0,4.0,1.0,2.0,2.0,419.526395000048,1.0,1.0,phase_1,,,,,,,,,,,,,cyan,hexagon
313.0,2.0,1.0,0.0,4.0,4.0,326.7297950001193,1.0,1.0,phase_1,,,,,,,,,,,,,gray,square
638.0,7.0,2.0,1.0,2.0,2.0,345.1287259999844,1.0,1.0,phase_1,,,,,,,,,,,,,green,I
648.0,7.0,2.0,1.0,4.0,4.0,372.4144120001256,1.0,1.0,phase_1,,,,,,,,,,,,,green,I
165.0,5.0,0.5,1.0,3.0,3.0,492.4588900003073,1.0,1.0,phase_1,,,,,,,,,,,,,blue,diamond
641.0,3.0,2.0,0.0,1.0,1.0,381.9760580004185,1.0,1.0,phase_1,,,,,,,,,,,,,magenta,flipped triangle
652.0,7.0,2.0,1.0,1.0,1.0,474.5745600002919,1.0,1.0,phase_1,,,,,,,,,,,,,green,I
301.0,2.0,1.0,0.0,2.0,2.0,475.3900749997228,1.0,1.0,phase_1,,,,,,,,,,,,,gray,square
339.0,6.0,1.0,1.0,3.0,3.0,353.3821350001744,1.0,1.0,phase_1,,,,,,,,,,,,,yellow,circle
0.0,7.0,0.0,1.0,4.0,4.0,382.5188490000073,1.0,1.0,phase_1,,,,,,,,,,,,,green,I
150.0,1.0,0.5,0.0,3.0,3.0,418.7489579999237,1.0,1.0,phase_1,,,,,,,,,,,,,orange,triangle
150.0,1.0,0.5,0.0,1.0,1.0,548.5181640001429,1.0,1.0,phase_1,,,,,,,,,,,,,orange,triangle
670.0,3.0,2.0,0.0,1.0,1.0,427.7784149999206,1.0,1.0,phase_1,,,,,,,,,,,,,magenta,flipped triangle
1292.0,8.0,4.0,1.0,4.0,4.0,362.6393300000927,1.0,1.0,phase_1,,,,,,,,,,,,,cyan,hexagon
635.0,3.0,2.0,0.0,3.0,3.0,315.5117510000309,1.0,1.0,phase_1,,,,,,,,,,,,,magenta,flipped triangle
673.0,7.0,2.0,1.0,3.0,3.0,438.9622710000367,1.0,1.0,phase_1,,,,,,,,,,,,,green,I
1285.0,8.0,4.0,1.0,4.0,4.0,334.0259480000895,1.0,1.0,phase_1,,,,,,,,,,,,,cyan,hexagon
1292.0,8.0,4.0,1.0,3.0,3.0,335.1442759999372,1.0,1.0,phase_1,,,,,,,,,,,,,cyan,hexagon
0.0,6.0,0.0,1.0,4.0,4.0,297.7841540000554,1.0,1.0,phase_1,,,,,,,,,,,,,yellow,circle
318.0,6.0,1.0,1.0,3.0,3.0,287.2774010002104,1.0,1.0,phase_1,,,,,,,,,,,,,yellow,circle
0.0,5.0,0.0,1.0,1.0,1.0,409.4324539996705,1.0,1.0,phase_1,,,,,,,,,,,,,blue,diamond
0.0,1.0,0.0,0.0,4.0,4.0,475.4849569999351,1.0,1.0,phase_1,,,,,,,,,,,,,orange,triangle
176.0,5.0,0.5,1.0,2.0,2.0,399.4805070001348,1.0,1.0,phase_1,,,,,,,,,,,,,blue,diamond
0.0,1.0,0.0,0.0,1.0,1.0,510.56370500009507,1.0,1.0,phase_1,,,,,,,,,,,,,orange,triangle
1303.0,8.0,4.0,1.0,4.0,4.0,306.8454499998552,1.0,1.0,phase_1,,,,,,,,,,,,,cyan,hexagon
0.0,2.0,0.0,0.0,3.0,3.0,278.3470439999291,1.0,1.0,phase_1,,,,,,,,,,,,,gray,square
166.0,1.0,0.5,0.0,1.0,1.0,306.5571349998208,1.0,1.0,phase_1,,,,,,,,,,,,,orange,triangle
168.0,1.0,0.5,0.0,3.0,3.0,334.204186000079,1.0,1.0,phase_1,,,,,,,,,,,,,orange,triangle
1297.0,4.0,4.0,0.0,1.0,1.0,446.4274490001116,1.0,1.0,phase_1,,,,,,,,,,,,,white,cross
1318.0,8.0,4.0,1.0,2.0,2.0,351.9620580000264,1.0,1.0,phase_1,,,,,,,,,,,,,cyan,hexagon
167.0,5.0,0.5,1.0,1.0,1.0,473.6030660001233,1.0,1.0,phase_1,,,,,,,,,,,,,blue,diamond
138.0,1.0,0.5,0.0,2.0,2.0,408.70405700025,1.0,1.0,phase_1,,,,,,,,,,,,,orange,triangle
1275.0,8.0,4.0,1.0,1.0,1.0,445.1357090001693,1.0,1.0,phase_1,,,,,,,,,,,,,cyan,hexagon
186.0,5.0,0.5,1.0,3.0,3.0,454.1394980001314,1.0,1.0,phase_1,,,,,,,,,,,,,blue,diamond
316.0,6.0,1.0,1.0,4.0,4.0,398.2189220000691,1.0,1.0,phase_1,,,,,,,,,,,,,yellow,circle
347.0,6.0,1.0,1.0,2.0,2.0,379.4445339999583,1.0,1.0,phase_1,,,,,,,,,,,,,yellow,circle
180.0,5.0,0.5,1.0,4.0,4.0,341.2310210001124,1.0,1.0,phase_1,,,,,,,,,,,,,blue,diamond
180.0,1.0,0.5,0.0,1.0,1.0,462.8562769999007,1.0,1.0,phase_1,,,,,,,,,,,,,orange,triangle
647.0,7.0,2.0,1.0,4.0,4.0,371.3500119997661,1.0,1.0,phase_1,,,,,,,,,,,,,green,I
180.0,1.0,0.5,0.0,2.0,2.0,417.7405049999834,1.0,1.0,phase_1,,,,,,,,,,,,,orange,triangle
302.0,6.0,1.0,1.0,4.0,4.0,370.1982909997241,1.0,1.0,phase_1,,,,,,,,,,,,,yellow,circle
340.0,6.0,1.0,1.0,1.0,1.0,379.7558590003973,1.0,1.0,phase_1,,,,,,,,,,,,,yellow,circle
670.0,7.0,2.0,1.0,1.0,1.0,408.1046290002632,1.0,1.0,phase_1,,,,,,,,,,,,,green,I
162.0,5.0,0.5,1.0,1.0,1.0,371.2588990001677,1.0,1.0,phase_1,,,,,,,,,,,,,blue,diamond
0.0,8.0,0.0,1.0,2.0,2.0,371.8818970000939,1.0,1.0,phase_1,,,,,,,,,,,,,cyan,hexagon
332.0,2.0,1.0,0.0,2.0,2.0,388.7238560000696,1.0,1.0,phase_1,,,,,,,,,,,,,gray,square
0.0,4.0,0.0,0.0,3.0,3.0,575.1626019996365,1.0,1.0,phase_1,,,,,,,,,,,,,white,cross
627.0,7.0,2.0,1.0,4.0,4.0,555.3212290001284,1.0,1.0,phase_1,,,,,,,,,,,,,green,I
138.0,5.0,0.5,1.0,3.0,3.0,410.7127880001826,1.0,1.0,phase_1,,,,,,,,,,,,,blue,diamond
0.0,4.0,0.0,0.0,3.0,3.0,352.6066819999869,1.0,1.0,phase_1,,,,,,,,,,,,,white,cross
626.0,7.0,2.0,1.0,2.0,2.0,389.4264000000476,1.0,1.0,phase_1,,,,,,,,,,,,,green,I
1307.0,4.0,4.0,0.0,2.0,2.0,306.4985430000888,1.0,1.0,phase_1,,,,,,,,,,,,,white,cross
631.0,3.0,2.0,0.0,4.0,4.0,370.7436830000006,1.0,1.0,phase_1,,,,,,,,,,,,,magenta,flipped triangle
0.0,8.0,0.0,1.0,3.0,3.0,352.8305229997386,1.0,1.0,phase_1,,,,,,,,,,,,,cyan,hexagon
0.0,4.0,0.0,0.0,2.0,2.0,417.2602079997887,1.0,1.0,phase_1,,,,,,,,,,,,,white,cross
1282.0,4.0,4.0,0.0,3.0,3.0,511.1400529999628,1.0,1.0,phase_1,,,,,,,,,,,,,white,cross
307.0,2.0,1.0,0.0,4.0,4.0,390.0052200001482,1.0,1.0,phase_1,,,,,,,,,,,,,gray,square
180.0,5.0,0.5,1.0,4.0,4.0,426.7613329998312,1.0,1.0,phase_1,,,,,,,,,,,,,blue,diamond
0.0,7.0,0.0,1.0,3.0,3.0,342.9905339999095,1.0,1.0,phase_1,,,,,,,,,,,,,green,I
0.0,3.0,0.0,0.0,2.0,2.0,352.9031219995886,1.0,1.0,phase_1,,,,,,,,,,,,,magenta,flipped triangle
343.0,6.0,1.0,1.0,3.0,3.0,361.4200399997571,1.0,1.0,phase_1,,,,,,,,,,,,,yellow,circle
1323.0,4.0,4.0,0.0,3.0,3.0,452.2800449994975,1.0,1.0,phase_1,,,,,,,,,,,,,white,cross
1285.0,4.0,4.0,0.0,4.0,4.0,336.0534760004157,1.0,1.0,phase_1,,,,,,,,,,,,,white,cross
180.0,5.0,0.5,1.0,1.0,1.0,396.5945939999074,1.0,1.0,phase_1,,,,,,,,,,,,,blue,diamond
0.0,4.0,0.0,0.0,1.0,1.0,342.5081730001693,1.0,1.0,phase_1,,,,,,,,,,,,,white,cross
626.0,3.0,2.0,0.0,1.0,1.0,324.7190970005249,1.0,1.0,phase_1,,,,,,,,,,,,,magenta,flipped triangle
148.0,5.0,0.5,1.0,4.0,4.0,372.1117529994444,1.0,1.0,phase_1,,,,,,,,,,,,,blue,diamond
666.0,3.0,2.0,0.0,4.0,4.0,368.5507050004162,1.0,1.0,phase_1,,,,,,,,,,,,,magenta,flipped triangle
1309.0,8.0,4.0,1.0,1.0,1.0,343.6804600005416,1.0,1.0,phase_1,,,,,,,,,,,,,cyan,hexagon
186.0,1.0,0.5,0.0,2.0,2.0,475.4100330001165,1.0,1.0,phase_1,,,,,,,,,,,,,orange,triangle
140.0,5.0,0.5,1.0,3.0,3.0,344.4944830007443,1.0,1.0,phase_1,,,,,,,,,,,,,blue,diamond
0.0,1.0,0.0,0.0,1.0,1.0,354.3681050005034,1.0,1.0,phase_1,,,,,,,,,,,,,orange,triangle
146.0,5.0,0.5,1.0,3.0,3.0,334.7349929999836,1.0,1.0,phase_1,,,,,,,,,,,,,blue,diamond
335.0,6.0,1.0,1.0,3.0,3.0,363.2291740004802,1.0,1.0,phase_1,,,,,,,,,,,,,yellow,circle
1323.0,8.0,4.0,1.0,3.0,3.0,390.8234820000871,1.0,1.0,phase_1,,,,,,,,,,,,,cyan,hexagon
657.0,7.0,2.0,1.0,3.0,3.0,371.6362770001069,2.0,1.0,phase_1,,,,,,,,,,,,,green,I
0.0,8.0,0.0,1.0,1.0,1.0,376.673793000009,2.0,2.0,phase_1,,,,,,,,,,,,,cyan,hexagon
343.0,2.0,1.0,0.0,1.0,1.0,410.2768660004585,2.0,1.0,phase_1,,,,,,,,,,,,,gray,square
1291.0,8.0,4.0,1.0,1.0,1.0,474.0424629999324,2.0,1.0,phase_1,,,,,,,,,,,,,cyan,hexagon
316.0,2.0,1.0,0.0,1.0,1.0,333.6420720006572,2.0,1.0,phase_1,,,,,,,,,,,,,gray,square
152.0,1.0,0.5,0.0,2.0,2.0,379.811513000277,2.0,1.0,phase_1,,,,,,,,,,,,,orange,triangle
0.0,6.0,0.0,1.0,4.0,4.0,426.7676649997156,2.0,1.0,phase_1,,,,,,,,,,,,,yellow,circle
0.0,2.0,0.0,0.0,1.0,1.0,315.6091450000531,2.0,1.0,phase_1,,,,,,,,,,,,,gray,square
1298.0,8.0,4.0,1.0,2.0,2.0,250.6454140002461,2.0,1.0,phase_1,,,,,,,,,,,,,cyan,hexagon
1303.0,8.0,4.0,1.0,2.0,2.0,324.6770259993354,2.0,1.0,phase_1,,,,,,,,,,,,,cyan,hexagon
156.0,1.0,0.5,0.0,3.0,3.0,314.6608949991787,2.0,1.0,phase_1,,,,,,,,,,,,,orange,triangle
180.0,5.0,0.5,1.0,2.0,2.0,323.8266429998475,2.0,1.0,phase_1,,,,,,,,,,,,,blue,diamond
164.0,5.0,0.5,1.0,4.0,4.0,437.4585689993182,2.0,1.0,phase_1,,,,,,,,,,,,,blue,diamond
1300.0,4.0,4.0,0.0,1.0,1.0,316.3369200001398,2.0,1.0,phase_1,,,,,,,,,,,,,white,cross
647.0,7.0,2.0,1.0,2.0,2.0,427.3133440001402,2.0,1.0,phase_1,,,,,,,,,,,,,green,I
0.0,1.0,0.0,0.0,3.0,3.0,268.7650130001202,2.0,1.0,phase_1,,,,,,,,,,,,,orange,triangle
154.0,5.0,0.5,1.0,4.0,4.0,464.940580000075,2.0,2.0,phase_1,,,,,,,,,,,,,blue,diamond
650.0,3.0,2.0,0.0,4.0,4.0,370.4302999994979,2.0,1.0,phase_1,,,,,,,,,,,,,magenta,flipped triangle
637.0,7.0,2.0,1.0,4.0,4.0,315.6983019998733,2.0,1.0,phase_1,,,,,,,,,,,,,green,I
0.0,2.0,0.0,0.0,4.0,4.0,343.6640019999686,2.0,1.0,phase_1,,,,,,,,,,,,,gray,square
0.0,2.0,0.0,0.0,3.0,3.0,371.232069999678,2.0,1.0,phase_1,,,,,,,,,,,,,gray,square
0.0,4.0,0.0,0.0,2.0,2.0,509.55832800082135,2.0,1.0,phase_1,,,,,,,,,,,,,white,cross
329.0,2.0,1.0,0.0,3.0,3.0,334.0515549998599,2.0,1.0,phase_1,,,,,,,,,,,,,gray,square
161.0,1.0,0.5,0.0,2.0,2.0,324.6441369992681,2.0,1.0,phase_1,,,,,,,,,,,,,orange,triangle
1315.0,4.0,4.0,0.0,3.0,3.0,324.2526730000463,2.0,1.0,phase_1,,,,,,,,,,,,,white,cross
1285.0,4.0,4.0,0.0,3.0,3.0,351.8304640001588,2.0,1.0,phase_1,,,,,,,,,,,,,white,cross
0.0,4.0,0.0,0.0,1.0,1.0,454.9164860000019,2.0,1.0,phase_1,,,,,,,,,,,,,white,cross
1322.0,8.0,4.0,1.0,2.0,2.0,443.9691389998188,2.0,1.0,phase_1,,,,,,,,,,,,,cyan,hexagon
662.0,7.0,2.0,1.0,4.0,4.0,407.5821980004548,2.0,1.0,phase_1,,,,,,,,,,,,,green,I
150.0,5.0,0.5,1.0,4.0,4.0,351.0176899999351,2.0,1.0,phase_1,,,,,,,,,,,,,blue,diamond
303.0,2.0,1.0,0.0,1.0,1.0,554.0418310001769,2.0,1.0,phase_1,,,,,,,,,,,,,gray,square
1308.0,4.0,4.0,0.0,2.0,2.0,406.8076429994107,2.0,1.0,phase_1,,,,,,,,,,,,,white,cross
657.0,7.0,2.0,1.0,4.0,4.0,481.2708630006455,2.0,1.0,phase_1,,,,,,,,,,,,,green,I
0.0,5.0,0.0,1.0,3.0,3.0,556.4612380003382,2.0,1.0,phase_1,,,,,,,,,,,,,blue,diamond
638.0,3.0,2.0,0.0,2.0,2.0,463.4594999997716,2.0,1.0,phase_1,,,,,,,,,,,,,magenta,flipped triangle
0.0,8.0,0.0,1.0,4.0,4.0,436.1628699998618,2.0,1.0,phase_1,,,,,,,,,,,,,cyan,hexagon
156.0,5.0,0.5,1.0,2.0,2.0,352.9730629998084,2.0,1.0,phase_1,,,,,,,,,,,,,blue,diamond
0.0,6.0,0.0,1.0,4.0,4.0,371.2066990001403,2.0,1.0,phase_1,,,,,,,,,,,,,yellow,circle
331.0,2.0,1.0,0.0,4.0,4.0,399.4933070007391,2.0,1.0,phase_1,,,,,,,,,,,,,gray,square
319.0,2.0,1.0,0.0,2.0,2.0,454.3278119999741,2.0,1.0,phase_1,,,,,,,,,,,,,gray,square
159.0,1.0,0.5,0.0,3.0,3.0,297.4397990001307,2.0,1.0,phase_1,,,,,,,,,,,,,orange,triangle
165.0,1.0,0.5,0.0,4.0,4.0,343.606581000131,2.0,1.0,phase_1,,,,,,,,,,,,,orange,triangle
1282.0,8.0,4.0,1.0,2.0,2.0,417.8953010004989,2.0,1.0,phase_1,,,,,,,,,,,,,cyan,hexagon
1306.0,8.0,4.0,1.0,1.0,1.0,573.4422369996537,2.0,1.0,phase_1,,,,,,,,,,,,,cyan,hexagon
1315.0,8.0,4.0,1.0,4.0,4.0,361.8908930002362,2.0,1.0,phase_1,,,,,,,,,,,,,cyan,hexagon
150.0,5.0,0.5,1.0,1.0,1.0,416.7056240003148,2.0,1.0,phase_1,,,,,,,,,,,,,blue,diamond
174.0,5.0,0.5,1.0,3.0,3.0,371.9972299995788,2.0,1.0,phase_1,,,,,,,,,,,,,blue,diamond
304.0,6.0,1.0,1.0,3.0,3.0,360.5861009991713,2.0,1.0,phase_1,,,,,,,,,,,,,yellow,circle
172.0,1.0,0.5,0.0,4.0,4.0,453.2898999996178,2.0,1.0,phase_1,,,,,,,,,,,,,orange,triangle
323.0,2.0,1.0,0.0,2.0,2.0,500.3034250003111,2.0,1.0,phase_1,,,,,,,,,,,,,gray,square
1303.0,4.0,4.0,0.0,1.0,1.0,500.34643999970285,2.0,1.0,phase_1,,,,,,,,,,,,,white,cross
1283.0,4.0,4.0,0.0,3.0,3.0,380.1143139999112,2.0,1.0,phase_1,,,,,,,,,,,,,white,cross
673.0,3.0,2.0,0.0,4.0,4.0,326.2491769992266,2.0,1.0,phase_1,,,,,,,,,,,,,magenta,flipped triangle
170.0,5.0,0.5,1.0,2.0,2.0,491.0997580000185,2.0,1.0,phase_1,,,,,,,,,,,,,blue,diamond
157.0,5.0,0.5,1.0,1.0,1.0,420.1975360001597,2.0,1.0,phase_1,,,,,,,,,,,,,blue,diamond
1306.0,4.0,4.0,0.0,1.0,1.0,398.4626259998549,2.0,1.0,phase_1,,,,,,,,,,,,,white,cross
1323.0,8.0,4.0,1.0,2.0,2.0,335.3618969995295,2.0,1.0,phase_1,,,,,,,,,,,,,cyan,hexagon
0.0,8.0,0.0,1.0,1.0,1.0,390.5427720001171,2.0,1.0,phase_1,,,,,,,,,,,,,cyan,hexagon
151.0,1.0,0.5,0.0,2.0,2.0,334.9019460001727,2.0,1.0,phase_1,,,,,,,,,,,,,orange,triangle
152.0,5.0,0.5,1.0,2.0,2.0,324.6171740001955,2.0,1.0,phase_1,,,,,,,,,,,,,blue,diamond
639.0,3.0,2.0,0.0,1.0,1.0,427.7717229997506,2.0,1.0,phase_1,,,,,,,,,,,,,magenta,flipped triangle
145.0,5.0,0.5,1.0,4.0,4.0,370.4981669998233,2.0,1.0,phase_1,,,,,,,,,,,,,blue,diamond
627.0,7.0,2.0,1.0,1.0,1.0,398.7876350001897,2.0,1.0,phase_1,,,,,,,,,,,,,green,I
1300.0,4.0,4.0,0.0,4.0,4.0,324.294326999734,2.0,1.0,phase_1,,,,,,,,,,,,,white,cross
662.0,3.0,2.0,0.0,3.0,3.0,438.13343400051957,2.0,1.0,phase_1,,,,,,,,,,,,,magenta,flipped triangle
666.0,7.0,2.0,1.0,3.0,3.0,417.4457470007837,2.0,1.0,phase_1,,,,,,,,,,,,,green,I
301.0,2.0,1.0,0.0,3.0,3.0,381.9020069995531,2.0,1.0,phase_1,,,,,,,,,,,,,gray,square
631.0,7.0,2.0,1.0,1.0,1.0,455.4836560000694,2.0,1.0,phase_1,,,,,,,,,,,,,green,I
0.0,4.0,0.0,0.0,3.0,3.0,408.0961319996277,2.0,1.0,phase_1,,,,,,,,,,,,,white,cross
322.0,6.0,1.0,1.0,3.0,3.0,343.1089440000505,2.0,1.0,phase_1,,,,,,,,,,,,,yellow,circle
316.0,2.0,1.0,0.0,3.0,3.0,316.7912379994959,2.0,1.0,phase_1,,,,,,,,,,,,,gray,square
0.0,7.0,0.0,1.0,2.0,2.0,499.3960510000761,2.0,1.0,phase_1,,,,,,,,,,,,,green,I
164.0,1.0,0.5,0.0,2.0,2.0,388.7711909992504,2.0,1.0,phase_1,,,,,,,,,,,,,orange,triangle
641.0,7.0,2.0,1.0,2.0,2.0,387.7346819999729,2.0,1.0,phase_1,,,,,,,,,,,,,green,I
185.0,5.0,0.5,1.0,3.0,3.0,343.2819079998808,2.0,1.0,phase_1,,,,,,,,,,,,,blue,diamond
332.0,6.0,1.0,1.0,2.0,2.0,369.9963389999539,2.0,1.0,phase_1,,,,,,,,,,,,,yellow,circle
1306.0,4.0,4.0,0.0,3.0,3.0,296.6664010000386,2.0,1.0,phase_1,,,,,,,,,,,,,white,cross
152.0,5.0,0.5,1.0,1.0,1.0,398.5633909996977,2.0,1.0,phase_1,,,,,,,,,,,,,blue,diamond
0.0,3.0,0.0,0.0,3.0,3.0,342.9617600004349,2.0,1.0,phase_1,,,,,,,,,,,,,magenta,flipped triangle
666.0,3.0,2.0,0.0,2.0,2.0,341.5160969998396,2.0,1.0,phase_1,,,,,,,,,,,,,magenta,flipped triangle
336.0,2.0,1.0,0.0,1.0,1.0,398.4892489997946,2.0,1.0,phase_1,,,,,,,,,,,,,gray,square
0.0,2.0,0.0,0.0,3.0,3.0,268.5533730000315,2.0,1.0,phase_1,,,,,,,,,,,,,gray,square
0.0,8.0,0.0,1.0,2.0,2.0,369.7527269996499,2.0,1.0,phase_1,,,,,,,,,,,,,cyan,hexagon
148.0,1.0,0.5,0.0,3.0,3.0,361.176247000003,2.0,1.0,phase_1,,,,,,,,,,,,,orange,triangle
647.0,3.0,2.0,0.0,1.0,1.0,391.6151670000545,2.0,1.0,phase_1,,,,,,,,,,,,,magenta,flipped triangle
325.0,2.0,1.0,0.0,4.0,4.0,315.2629730002445,2.0,1.0,phase_1,,,,,,,,,,,,,gray,square
1300.0,8.0,4.0,1.0,3.0,3.0,325.3019889998541,2.0,1.0,phase_1,,,,,,,,,,,,,cyan,hexagon
0.0,8.0,0.0,1.0,2.0,2.0,251.1462369993751,2.0,1.0,phase_1,,,,,,,,,,,,,cyan,hexagon
140.0,1.0,0.5,0.0,1.0,1.0,585.7730759998958,2.0,1.0,phase_1,,,,,,,,,,,,,orange,triangle
302.0,2.0,1.0,0.0,3.0,3.0,499.0666159992543,2.0,1.0,phase_1,,,,,,,,,,,,,gray,square
655.0,3.0,2.0,0.0,1.0,1.0,369.984537000164,2.0,1.0,phase_1,,,,,,,,,,,,,magenta,flipped triangle
657.0,3.0,2.0,0.0,4.0,4.0,371.2437349995525,2.0,1.0,phase_1,,,,,,,,,,,,,magenta,flipped triangle
318.0,6.0,1.0,1.0,1.0,1.0,333.1494789999851,2.0,1.0,phase_1,,,,,,,,,,,,,yellow,circle
161.0,5.0,0.5,1.0,1.0,1.0,361.7175240005963,2.0,1.0,phase_1,,,,,,,,,,,,,blue,diamond
657.0,3.0,2.0,0.0,3.0,3.0,297.0085610004389,2.0,1.0,phase_1,,,,,,,,,,,,,magenta,flipped triangle
1295.0,4.0,4.0,0.0,4.0,4.0,436.1426150007901,2.0,1.0,phase_1,,,,,,,,,,,,,white,cross
650.0,7.0,2.0,1.0,1.0,1.0,371.4403379999567,2.0,1.0,phase_1,,,,,,,,,,,,,green,I
1324.0,4.0,4.0,0.0,4.0,4.0,372.5355799997487,2.0,1.0,phase_1,,,,,,,,,,,,,white,cross
325.0,2.0,1.0,0.0,4.0,4.0,527.4526060002245,2.0,1.0,phase_1,,,,,,,,,,,,,gray,square
1300.0,8.0,4.0,1.0,2.0,2.0,333.57265899940097,2.0,1.0,phase_1,,,,,,,,,,,,,cyan,hexagon
349.0,2.0,1.0,0.0,2.0,2.0,407.6430510003774,3.0,1.0,phase_1,,,,,,,,,,,,,gray,square
329.0,6.0,1.0,1.0,2.0,2.0,314.7355380006047,3.0,1.0,phase_1,,,,,,,,,,,,,yellow,circle
311.0,6.0,1.0,1.0,4.0,4.0,353.0723220001164,3.0,1.0,phase_1,,,,,,,,,,,,,yellow,circle
167.0,1.0,0.5,0.0,2.0,2.0,398.2592980000845,3.0,1.0,phase_1,,,,,,,,,,,,,orange,triangle
0.0,4.0,0.0,0.0,2.0,2.0,380.9997590005878,3.0,1.0,phase_1,,,,,,,,,,,,,white,cross
335.0,2.0,1.0,0.0,4.0,4.0,351.4548260000083,3.0,1.0,phase_1,,,,,,,,,,,,,gray,square
1291.0,4.0,4.0,0.0,2.0,2.0,305.3082080004969,3.0,1.0,phase_1,,,,,,,,,,,,,white,cross
322.0,2.0,1.0,0.0,3.0,3.0,343.8607909993152,3.0,1.0,phase_1,,,,,,,,,,,,,gray,square
1299.0,4.0,4.0,0.0,2.0,2.0,361.5362800001094,3.0,1.0,phase_1,,,,,,,,,,,,,white,cross
0.0,5.0,0.0,1.0,3.0,3.0,296.2631320006039,3.0,1.0,phase_1,,,,,,,,,,,,,blue,diamond
1283.0,8.0,4.0,1.0,3.0,3.0,335.6413209994571,3.0,1.0,phase_1,,,,,,,,,,,,,cyan,hexagon
642.0,7.0,2.0,1.0,2.0,2.0,324.2915430000721,3.0,1.0,phase_1,,,,,,,,,,,,,green,I
0.0,6.0,0.0,1.0,4.0,4.0,426.5939609995257,3.0,1.0,phase_1,,,,,,,,,,,,,yellow,circle
662.0,3.0,2.0,0.0,3.0,3.0,427.4552110000513,3.0,1.0,phase_1,,,,,,,,,,,,,magenta,flipped triangle
0.0,3.0,0.0,0.0,2.0,2.0,472.6139939994027,3.0,1.0,phase_1,,,,,,,,,,,,,magenta,flipped triangle
303.0,6.0,1.0,1.0,4.0,4.0,333.9391589997831,3.0,1.0,phase_1,,,,,,,,,,,,,yellow,circle
0.0,3.0,0.0,0.0,1.0,1.0,389.4747389995245,3.0,1.0,phase_1,,,,,,,,,,,,,magenta,flipped triangle
1314.0,8.0,4.0,1.0,2.0,2.0,390.063468000335,3.0,1.0,phase_1,,,,,,,,,,,,,cyan,hexagon
648.0,3.0,2.0,0.0,4.0,4.0,363.6129500000606,3.0,1.0,phase_1,,,,,,,,,,,,,magenta,flipped triangle
347.0,2.0,1.0,0.0,3.0,3.0,390.3695419994619,3.0,1.0,phase_1,,,,,,,,,,,,,gray,square
1285.0,8.0,4.0,1.0,1.0,1.0,351.0886009999012,3.0,1.0,phase_1,,,,,,,,,,,,,cyan,hexagon
0.0,6.0,0.0,1.0,1.0,1.0,379.8707249998188,3.0,1.0,phase_1,,,,,,,,,,,,,yellow,circle
672.0,3.0,2.0,0.0,3.0,3.0,333.8320619996011,3.0,1.0,phase_1,,,,,,,,,,,,,magenta,flipped triangle
0.0,3.0,0.0,0.0,1.0,1.0,362.3357529995701,3.0,1.0,phase_1,,,,,,,,,,,,,magenta,flipped triangle
0.0,5.0,0.0,1.0,4.0,4.0,417.5588779999089,3.0,1.0,phase_1,,,,,,,,,,,,,blue,diamond
1275.0,4.0,4.0,0.0,1.0,1.0,464.0692639995905,3.0,1.0,phase_1,,,,,,,,,,,,,white,cross
1299.0,4.0,4.0,0.0,1.0,1.0,334.1233860001011,3.0,1.0,phase_1,,,,,,,,,,,,,white,cross
642.0,3.0,2.0,0.0,2.0,2.0,344.7390689998428,3.0,1.0,phase_1,,,,,,,,,,,,,magenta,flipped triangle
1318.0,4.0,4.0,0.0,4.0,4.0,335.0549249998948,3.0,1.0,phase_1,,,,,,,,,,,,,white,cross
321.0,6.0,1.0,1.0,3.0,3.0,315.2110770006402,3.0,1.0,phase_1,,,,,,,,,,,,,yellow,circle
325.0,6.0,1.0,1.0,4.0,4.0,344.1360719998556,3.0,1.0,phase_1,,,,,,,,,,,,,yellow,circle
0.0,5.0,0.0,1.0,3.0,3.0,399.2398589998629,3.0,2.0,phase_1,,,,,,,,,,,,,blue,diamond
176.0,1.0,0.5,0.0,1.0,1.0,583.6499529996217,3.0,2.0,phase_1,,,,,,,,,,,,,orange,triangle
1324.0,8.0,4.0,1.0,4.0,4.0,454.2353659999207,3.0,1.0,phase_1,,,,,,,,,,,,,cyan,hexagon
323.0,6.0,1.0,1.0,2.0,2.0,500.97365100009483,3.0,1.0,phase_1,,,,,,,,,,,,,yellow,circle
0.0,6.0,0.0,1.0,3.0,3.0,352.2492020001664,3.0,1.0,phase_1,,,,,,,,,,,,,yellow,circle
649.0,3.0,2.0,0.0,3.0,3.0,417.1120210003209,3.0,1.0,phase_1,,,,,,,,,,,,,magenta,flipped triangle
1309.0,4.0,4.0,0.0,2.0,2.0,472.9243770007088,3.0,1.0,phase_1,,,,,,,,,,,,,white,cross
1283.0,4.0,4.0,0.0,2.0,2.0,370.1164210006027,3.0,1.0,phase_1,,,,,,,,,,,,,white,cross
0.0,7.0,0.0,1.0,1.0,1.0,565.9801739993782,3.0,1.0,phase_1,,,,,,,,,,,,,green,I
323.0,6.0,1.0,1.0,4.0,4.0,361.3613400002577,3.0,1.0,phase_1,,,,,,,,,,,,,yellow,circle
308.0,2.0,1.0,0.0,1.0,1.0,749.6265210002093,3.0,1.0,phase_1,,,,,,,,,,,,,gray,square
1275.0,8.0,4.0,1.0,1.0,1.0,445.872020999559,3.0,1.0,phase_1,,,,,,,,,,,,,cyan,hexagon
338.0,2.0,1.0,0.0,2.0,2.0,427.8595939995284,3.0,1.0,phase_1,,,,,,,,,,,,,gray,square
170.0,1.0,0.5,0.0,4.0,4.0,352.8012269998726,3.0,1.0,phase_1,,,,,,,,,,,,,orange,triangle
313.0,6.0,1.0,1.0,3.0,3.0,389.374265000697,3.0,1.0,phase_1,,,,,,,,,,,,,yellow,circle
171.0,5.0,0.5,1.0,2.0,2.0,407.8409900002953,3.0,1.0,phase_1,,,,,,,,,,,,,blue,diamond
660.0,7.0,2.0,1.0,4.0,4.0,416.1145709995253,3.0,1.0,phase_1,,,,,,,,,,,,,green,I
666.0,7.0,2.0,1.0,2.0,2.0,379.8015449992817,3.0,1.0,phase_1,,,,,,,,,,,,,green,I
172.0,5.0,0.5,1.0,4.0,4.0,398.8821689999895,3.0,1.0,phase_1,,,,,,,,,,,,,blue,diamond
1295.0,8.0,4.0,1.0,3.0,3.0,400.5742439994719,3.0,1.0,phase_1,,,,,,,,,,,,,cyan,hexagon
304.0,2.0,1.0,0.0,3.0,3.0,360.9884540001076,3.0,1.0,phase_1,,,,,,,,,,,,,gray,square
657.0,7.0,2.0,1.0,2.0,2.0,387.8767500000322,3.0,1.0,phase_1,,,,,,,,,,,,,green,I
0.0,5.0,0.0,1.0,1.0,1.0,566.1618169997382,3.0,1.0,phase_1,,,,,,,,,,,,,blue,diamond
1308.0,8.0,4.0,1.0,3.0,3.0,379.5776899996781,3.0,1.0,phase_1,,,,,,,,,,,,,cyan,hexagon
321.0,2.0,1.0,0.0,3.0,3.0,380.4377369997382,3.0,1.0,phase_1,,,,,,,,,,,,,gray,square
629.0,3.0,2.0,0.0,3.0,3.0,370.7598309993045,3.0,1.0,phase_1,,,,,,,,,,,,,magenta,flipped triangle
1300.0,4.0,4.0,0.0,2.0,2.0,462.1313910001845,3.0,1.0,phase_1,,,,,,,,,,,,,white,cross
333.0,6.0,1.0,1.0,2.0,2.0,399.0285790005146,3.0,1.0,phase_1,,,,,,,,,,,,,yellow,circle
183.0,1.0,0.5,0.0,3.0,3.0,388.7573199999679,3.0,1.0,phase_1,,,,,,,,,,,,,orange,triangle
0.0,7.0,0.0,1.0,2.0,2.0,344.791473999976,3.0,1.0,phase_1,,,,,,,,,,,,,green,I
334.0,2.0,1.0,0.0,2.0,2.0,407.2677280000789,3.0,1.0,phase_1,,,,,,,,,,,,,gray,square
168.0,5.0,0.5,1.0,1.0,1.0,472.208830999989,3.0,1.0,phase_1,,,,,,,,,,,,,blue,diamond
0.0,1.0,0.0,0.0,4.0,4.0,343.3015420005176,3.0,1.0,phase_1,,,,,,,,,,,,,orange,triangle
651.0,3.0,2.0,0.0,3.0,3.0,362.2961649998615,3.0,1.0,phase_1,,,,,,,,,,,,,magenta,flipped triangle
1284.0,8.0,4.0,1.0,4.0,4.0,408.3384670002488,3.0,1.0,phase_1,,,,,,,,,,,,,cyan,hexagon
323.0,2.0,1.0,0.0,2.0,2.0,398.207225999613,3.0,1.0,phase_1,,,,,,,,,,,,,gray,square
641.0,3.0,2.0,0.0,1.0,1.0,446.0180830001263,3.0,1.0,phase_1,,,,,,,,,,,,,magenta,flipped triangle
639.0,7.0,2.0,1.0,1.0,1.0,370.50982600067067,3.0,1.0,phase_1,,,,,,,,,,,,,green,I
628.0,7.0,2.0,1.0,4.0,4.0,397.911906000445,3.0,1.0,phase_1,,,,,,,,,,,,,green,I
665.0,3.0,2.0,0.0,3.0,3.0,351.8451460004144,3.0,1.0,phase_1,,,,,,,,,,,,,magenta,flipped triangle
0.0,2.0,0.0,0.0,1.0,1.0,370.5842150002354,3.0,1.0,phase_1,,,,,,,,,,,,,gray,square
0.0,3.0,0.0,0.0,4.0,4.0,315.4052010004307,3.0,1.0,phase_1,,,,,,,,,,,,,magenta,flipped triangle
0.0,3.0,0.0,0.0,1.0,1.0,463.6317489994326,3.0,1.0,phase_1,,,,,,,,,,,,,magenta,flipped triangle
641.0,7.0,2.0,1.0,1.0,1.0,343.5677919997033,3.0,1.0,phase_1,,,,,,,,,,,,,green,I
171.0,1.0,0.5,0.0,3.0,3.0,315.015000999665,3.0,1.0,phase_1,,,,,,,,,,,,,orange,triangle
0.0,7.0,0.0,1.0,2.0,2.0,350.8029829999941,3.0,1.0,phase_1,,,,,,,,,,,,,green,I
645.0,7.0,2.0,1.0,2.0,2.0,408.5518430001684,3.0,1.0,phase_1,,,,,,,,,,,,,green,I
162.0,1.0,0.5,0.0,3.0,3.0,352.2521489994688,3.0,1.0,phase_1,,,,,,,,,,,,,orange,triangle
634.0,3.0,2.0,0.0,4.0,4.0,324.1657809994649,3.0,1.0,phase_1,,,,,,,,,,,,,magenta,flipped triangle
347.0,2.0,1.0,0.0,1.0,1.0,342.6117500002874,3.0,1.0,phase_1,,,,,,,,,,,,,gray,square
338.0,6.0,1.0,1.0,2.0,2.0,306.0448910000559,3.0,1.0,phase_1,,,,,,,,,,,,,yellow,circle
340.0,2.0,1.0,0.0,4.0,4.0,372.7726590004749,3.0,1.0,phase_1,,,,,,,,,,,,,gray,square
141.0,1.0,0.5,0.0,3.0,3.0,325.3232239994759,3.0,1.0,phase_1,,,,,,,,,,,,,orange,triangle
1284.0,4.0,4.0,0.0,3.0,3.0,381.495057000393,3.0,1.0,phase_1,,,,,,,,,,,,,white,cross
1275.0,4.0,4.0,0.0,4.0,4.0,408.9686480001546,3.0,1.0,phase_1,,,,,,,,,,,,,white,cross
345.0,6.0,1.0,1.0,3.0,3.0,362.4518939996051,3.0,1.0,phase_1,,,,,,,,,,,,,yellow,circle
655.0,7.0,2.0,1.0,1.0,1.0,417.9242340005658,3.0,1.0,phase_1,,,,,,,,,,,,,green,I
628.0,3.0,2.0,0.0,4.0,4.0,399.4865739996385,3.0,1.0,phase_1,,,,,,,,,,,,,magenta,flipped triangle
183.0,5.0,0.5,1.0,2.0,2.0,545.2926199996,3.0,2.0,phase_1,,,,,,,,,,,,,blue,diamond
652.0,3.0,2.0,0.0,1.0,1.0,454.2687229995863,3.0,1.0,phase_1,,,,,,,,,,,,,magenta,flipped triangle
0.0,8.0,0.0,1.0,1.0,1.0,389.3466469999112,3.0,1.0,phase_1,,,,,,,,,,,,,cyan,hexagon
350.0,2.0,1.0,0.0,4.0,4.0,352.9948129998956,3.0,1.0,phase_1,,,,,,,,,,,,,gray,square
318.0,2.0,1.0,0.0,3.0,3.0,343.7448230006339,3.0,1.0,phase_1,,,,,,,,,,,,,gray,square
1299.0,8.0,4.0,1.0,3.0,3.0,407.500200000868,3.0,1.0,phase_1,,,,,,,,,,,,,cyan,hexagon
0.0,8.0,0.0,1.0,2.0,2.0,546.4754310005446,3.0,1.0,phase_1,,,,,,,,,,,,,cyan,hexagon
329.0,2.0,1.0,0.0,1.0,1.0,573.8995799993063,3.0,1.0,phase_1,,,,,,,,,,,,,gray,square
634.0,7.0,2.0,1.0,3.0,3.0,370.2908879995448,3.0,1.0,phase_1,,,,,,,,,,,,,green,I
635.0,7.0,2.0,1.0,1.0,1.0,401.9584400002713,3.0,1.0,phase_1,,,,,,,,,,,,,green,I
301.0,6.0,1.0,1.0,1.0,1.0,500.8527330001016,3.0,1.0,phase_1,,,,,,,,,,,,,yellow,circle
349.0,6.0,1.0,1.0,4.0,4.0,463.9570489998732,4.0,1.0,phase_1,,,,,,,,,,,,,yellow,circle
653.0,7.0,2.0,1.0,3.0,3.0,371.7834849994688,4.0,1.0,phase_1,,,,,,,,,,,,,green,I
183.0,5.0,0.5,1.0,1.0,1.0,511.57651399989845,4.0,1.0,phase_1,,,,,,,,,,,,,blue,diamond
0.0,1.0,0.0,0.0,2.0,2.0,435.0363929997911,4.0,1.0,phase_1,,,,,,,,,,,,,orange,triangle
1306.0,8.0,4.0,1.0,3.0,3.0,369.8799159992632,4.0,1.0,phase_1,,,,,,,,,,,,,cyan,hexagon
0.0,1.0,0.0,0.0,1.0,1.0,629.6289040001284,4.0,1.0,phase_1,,,,,,,,,,,,,orange,triangle
668.0,3.0,2.0,0.0,4.0,4.0,370.4774289999477,4.0,1.0,phase_1,,,,,,,,,,,,,magenta,flipped triangle
0.0,5.0,0.0,1.0,1.0,1.0,490.0588460004655,4.0,1.0,phase_1,,,,,,,,,,,,,blue,diamond
1298.0,4.0,4.0,0.0,2.0,2.0,352.5611519999074,4.0,1.0,phase_1,,,,,,,,,,,,,white,cross
665.0,7.0,2.0,1.0,3.0,3.0,352.1125059996848,4.0,1.0,phase_1,,,,,,,,,,,,,green,I
668.0,7.0,2.0,1.0,3.0,3.0,444.479470999795,4.0,1.0,phase_1,,,,,,,,,,,,,green,I
666.0,7.0,2.0,1.0,2.0,2.0,399.5064729997466,4.0,1.0,phase_1,,,,,,,,,,,,,green,I
0.0,6.0,0.0,1.0,2.0,2.0,418.2678930001202,4.0,1.0,phase_1,,,,,,,,,,,,,yellow,circle
0.0,4.0,0.0,0.0,3.0,3.0,343.6358059998383,4.0,1.0,phase_1,,,,,,,,,,,,,white,cross
0.0,2.0,0.0,0.0,2.0,2.0,371.5440290006881,4.0,1.0,phase_1,,,,,,,,,,,,,gray,square
1316.0,4.0,4.0,0.0,1.0,1.0,444.5157150003069,4.0,1.0,phase_1,,,,,,,,,,,,,white,cross
174.0,1.0,0.5,0.0,1.0,1.0,426.6266289996565,4.0,1.0,phase_1,,,,,,,,,,,,,orange,triangle
170.0,1.0,0.5,0.0,3.0,3.0,351.7786619995604,4.0,1.0,phase_1,,,,,,,,,,,,,orange,triangle
1283.0,8.0,4.0,1.0,4.0,4.0,398.6119379997035,4.0,1.0,phase_1,,,,,,,,,,,,,cyan,hexagon
0.0,6.0,0.0,1.0,1.0,1.0,529.0003129994147,4.0,1.0,phase_1,,,,,,,,,,,,,yellow,circle
1285.0,8.0,4.0,1.0,3.0,3.0,389.0500950001296,4.0,1.0,phase_1,,,,,,,,,,,,,cyan,hexagon
311.0,2.0,1.0,0.0,4.0,4.0,399.0166730000055,4.0,1.0,phase_1,,,,,,,,,,,,,gray,square
1319.0,8.0,4.0,1.0,1.0,1.0,435.8935139998721,4.0,1.0,phase_1,,,,,,,,,,,,,cyan,hexagon
0.0,2.0,0.0,0.0,4.0,4.0,380.3783240000484,4.0,1.0,phase_1,,,,,,,,,,,,,gray,square
155.0,5.0,0.5,1.0,2.0,2.0,351.8521500000133,4.0,1.0,phase_1,,,,,,,,,,,,,blue,diamond
1303.0,4.0,4.0,0.0,1.0,1.0,528.2824979994984,4.0,1.0,phase_1,,,,,,,,,,,,,white,cross
350.0,6.0,1.0,1.0,2.0,2.0,389.7266089998084,4.0,1.0,phase_1,,,,,,,,,,,,,yellow,circle
145.0,1.0,0.5,0.0,1.0,1.0,472.2352239996326,4.0,1.0,phase_1,,,,,,,,,,,,,orange,triangle
666.0,3.0,2.0,0.0,4.0,4.0,343.3125749997998,4.0,1.0,phase_1,,,,,,,,,,,,,magenta,flipped triangle
1310.0,8.0,4.0,1.0,4.0,4.0,388.3762710001974,4.0,1.0,phase_1,,,,,,,,,,,,,cyan,hexagon
651.0,7.0,2.0,1.0,1.0,1.0,630.1372420002735,4.0,1.0,phase_1,,,,,,,,,,,,,green,I
1292.0,4.0,4.0,0.0,2.0,2.0,463.1421280000722,4.0,1.0,phase_1,,,,,,,,,,,,,white,cross
1322.0,4.0,4.0,0.0,2.0,2.0,473.3911069997703,4.0,1.0,phase_1,,,,,,,,,,,,,white,cross
0.0,7.0,0.0,1.0,1.0,1.0,547.0264269997642,4.0,1.0,phase_1,,,,,,,,,,,,,green,I
173.0,5.0,0.5,1.0,4.0,4.0,527.8922770003192,4.0,1.0,phase_1,,,,,,,,,,,,,blue,diamond
154.0,1.0,0.5,0.0,2.0,2.0,388.6907149999388,4.0,1.0,phase_1,,,,,,,,,,,,,orange,triangle
301.0,6.0,1.0,1.0,1.0,1.0,518.6568620001708,4.0,1.0,phase_1,,,,,,,,,,,,,yellow,circle
0.0,2.0,0.0,0.0,1.0,1.0,434.7306130002835,4.0,1.0,phase_1,,,,,,,,,,,,,gray,square
146.0,1.0,0.5,0.0,2.0,2.0,324.2281879993243,4.0,1.0,phase_1,,,,,,,,,,,,,orange,triangle
1316.0,8.0,4.0,1.0,3.0,3.0,407.36065100009,4.0,1.0,phase_1,,,,,,,,,,,,,cyan,hexagon
141.0,5.0,0.5,1.0,3.0,3.0,435.4804269996748,4.0,1.0,phase_1,,,,,,,,,,,,,blue,diamond
334.0,6.0,1.0,1.0,4.0,4.0,435.7913159992677,4.0,1.0,phase_1,,,,,,,,,,,,,yellow,circle
0.0,6.0,0.0,1.0,2.0,2.0,343.2105719994069,4.0,1.0,phase_1,,,,,,,,,,,,,yellow,circle
307.0,2.0,1.0,0.0,2.0,2.0,407.5815770002009,4.0,1.0,phase_1,,,,,,,,,,,,,gray,square
1319.0,4.0,4.0,0.0,4.0,4.0,361.8064410002262,4.0,1.0,phase_1,,,,,,,,,,,,,white,cross
657.0,3.0,2.0,0.0,1.0,1.0,426.3729240001339,4.0,1.0,phase_1,,,,,,,,,,,,,magenta,flipped triangle
308.0,6.0,1.0,1.0,1.0,1.0,461.7663750004794,4.0,1.0,phase_1,,,,,,,,,,,,,yellow,circle
339.0,2.0,1.0,0.0,4.0,4.0,378.9095859992812,4.0,1.0,phase_1,,,,,,,,,,,,,gray,square
331.0,6.0,1.0,1.0,2.0,2.0,482.259869999325,4.0,1.0,phase_1,,,,,,,,,,,,,yellow,circle
338.0,6.0,1.0,1.0,4.0,4.0,408.3486480003557,4.0,1.0,phase_1,,,,,,,,,,,,,yellow,circle
180.0,1.0,0.5,0.0,4.0,4.0,462.2473809995426,4.0,1.0,phase_1,,,,,,,,,,,,,orange,triangle
338.0,2.0,1.0,0.0,3.0,3.0,370.4796880001595,4.0,1.0,phase_1,,,,,,,,,,,,,gray,square
1284.0,4.0,4.0,0.0,4.0,4.0,351.8347749995882,4.0,1.0,phase_1,,,,,,,,,,,,,white,cross
307.0,6.0,1.0,1.0,3.0,3.0,371.2819089996628,4.0,1.0,phase_1,,,,,,,,,,,,,yellow,circle
170.0,5.0,0.5,1.0,3.0,3.0,343.781601000046,4.0,1.0,phase_1,,,,,,,,,,,,,blue,diamond
1296.0,4.0,4.0,0.0,4.0,4.0,370.4777940001804,4.0,1.0,phase_1,,,,,,,,,,,,,white,cross
0.0,2.0,0.0,0.0,4.0,4.0,351.4520910002829,4.0,1.0,phase_1,,,,,,,,,,,,,gray,square
180.0,1.0,0.5,0.0,4.0,4.0,388.6734509997041,4.0,1.0,phase_1,,,,,,,,,,,,,orange,triangle
0.0,7.0,0.0,1.0,3.0,3.0,408.2384539997292,4.0,1.0,phase_1,,,,,,,,,,,,,green,I
0.0,5.0,0.0,1.0,1.0,1.0,528.8362799992683,4.0,1.0,phase_1,,,,,,,,,,,,,blue,diamond
0.0,1.0,0.0,0.0,2.0,2.0,425.7799739998518,4.0,1.0,phase_1,,,,,,,,,,,,,orange,triangle
307.0,6.0,1.0,1.0,1.0,1.0,500.013678999494,4.0,1.0,phase_1,,,,,,,,,,,,,yellow,circle
0.0,4.0,0.0,0.0,1.0,1.0,454.4217709999429,4.0,1.0,phase_1,,,,,,,,,,,,,white,cross
1284.0,8.0,4.0,1.0,4.0,4.0,388.9366670000527,4.0,1.0,phase_1,,,,,,,,,,,,,cyan,hexagon
0.0,7.0,0.0,1.0,4.0,4.0,343.8317310001366,4.0,1.0,phase_1,,,,,,,,,,,,,green,I
0.0,7.0,0.0,1.0,3.0,3.0,380.7846780000545,4.0,1.0,phase_1,,,,,,,,,,,,,green,I
668.0,7.0,2.0,1.0,3.0,3.0,398.7215139995896,4.0,1.0,phase_1,,,,,,,,,,,,,green,I
143.0,1.0,0.5,0.0,4.0,4.0,425.935279999976,4.0,1.0,phase_1,,,,,,,,,,,,,orange,triangle
151.0,5.0,0.5,1.0,1.0,1.0,406.258725999578,4.0,1.0,phase_1,,,,,,,,,,,,,blue,diamond
1299.0,8.0,4.0,1.0,1.0,1.0,379.7016909993544,4.0,1.0,phase_1,,,,,,,,,,,,,cyan,hexagon
645.0,3.0,2.0,0.0,1.0,1.0,333.9229590001196,4.0,1.0,phase_1,,,,,,,,,,,,,magenta,flipped triangle
318.0,6.0,1.0,1.0,1.0,1.0,361.9802330003949,4.0,1.0,phase_1,,,,,,,,,,,,,yellow,circle
1300.0,8.0,4.0,1.0,1.0,1.0,490.1491190003071,4.0,1.0,phase_1,,,,,,,,,,,,,cyan,hexagon
183.0,1.0,0.5,0.0,1.0,1.0,333.6211279993222,4.0,1.0,phase_1,,,,,,,,,,,,,orange,triangle
1306.0,4.0,4.0,0.0,3.0,3.0,361.4381479992516,4.0,1.0,phase_1,,,,,,,,,,,,,white,cross
0.0,8.0,0.0,1.0,3.0,3.0,390.115225000045,4.0,1.0,phase_1,,,,,,,,,,,,,cyan,hexagon
345.0,2.0,1.0,0.0,2.0,2.0,564.8831210000935,4.0,1.0,phase_1,,,,,,,,,,,,,gray,square
1314.0,4.0,4.0,0.0,3.0,3.0,556.0100699995019,4.0,1.0,phase_1,,,,,,,,,,,,,white,cross
1307.0,8.0,4.0,1.0,2.0,2.0,402.5417639995794,4.0,1.0,phase_1,,,,,,,,,,,,,cyan,hexagon
0.0,5.0,0.0,1.0,4.0,4.0,389.5872120001513,4.0,1.0,phase_1,,,,,,,,,,,,,blue,diamond
672.0,7.0,2.0,1.0,3.0,3.0,324.467598999945,4.0,1.0,phase_1,,,,,,,,,,,,,green,I
0.0,1.0,0.0,0.0,2.0,2.0,343.5622390006756,4.0,1.0,phase_1,,,,,,,,,,,,,orange,triangle
157.0,1.0,0.5,0.0,4.0,4.0,408.3623060005266,4.0,1.0,phase_1,,,,,,,,,,,,,orange,triangle
325.0,6.0,1.0,1.0,1.0,1.0,408.676025999739,4.0,1.0,phase_1,,,,,,,,,,,,,yellow,circle
1306.0,8.0,4.0,1.0,4.0,4.0,369.9536479998642,4.0,1.0,phase_1,,,,,,,,,,,,,cyan,hexagon
627.0,3.0,2.0,0.0,2.0,2.0,351.6924670002481,4.0,1.0,phase_1,,,,,,,,,,,,,magenta,flipped triangle
649.0,7.0,2.0,1.0,4.0,4.0,342.0055530004902,4.0,1.0,phase_1,,,,,,,,,,,,,green,I
152.0,1.0,0.5,0.0,4.0,4.0,372.268542000711,4.0,1.0,phase_1,,,,,,,,,,,,,orange,triangle
668.0,3.0,2.0,0.0,2.0,2.0,277.9439989999446,4.0,1.0,phase_1,,,,,,,,,,,,,magenta,flipped triangle
637.0,3.0,2.0,0.0,2.0,2.0,379.6148769997671,4.0,2.0,phase_1,,,,,,,,,,,,,magenta,flipped triangle
0.0,3.0,0.0,0.0,1.0,1.0,426.7208100000061,4.0,1.0,phase_1,,,,,,,,,,,,,magenta,flipped triangle
645.0,7.0,2.0,1.0,4.0,4.0,352.2118199998658,4.0,1.0,phase_1,,,,,,,,,,,,,green,I
660.0,3.0,2.0,0.0,2.0,2.0,343.3159109999906,4.0,1.0,phase_1,,,,,,,,,,,,,magenta,flipped triangle
647.0,3.0,2.0,0.0,2.0,2.0,499.2357329992956,4.0,1.0,phase_1,,,,,,,,,,,,,magenta,flipped triangle
319.0,6.0,1.0,1.0,2.0,2.0,343.6921600005007,4.0,1.0,phase_1,,,,,,,,,,,,,yellow,circle
336.0,6.0,1.0,1.0,2.0,2.0,353.2309060001353,4.0,1.0,phase_1,,,,,,,,,,,,,yellow,circle
0.0,3.0,0.0,0.0,3.0,3.0,370.6258580004942,4.0,1.0,phase_1,,,,,,,,,,,,,magenta,flipped triangle
143.0,5.0,0.5,1.0,2.0,2.0,518.1897539996498,4.0,1.0,phase_1,,,,,,,,,,,,,blue,diamond
155.0,1.0,0.5,0.0,4.0,4.0,333.8349050000033,4.0,1.0,phase_1,,,,,,,,,,,,,orange,triangle
1310.0,4.0,4.0,0.0,4.0,4.0,371.3172430007034,4.0,1.0,phase_1,,,,,,,,,,,,,white,cross
0.0,6.0,1.0,1.0,5.0,0.0,0.0,1.0,1.0,phase_2,stop,250.0,250.0,4.0,,,,,,,,,yellow,circle
0.0,7.0,2.0,1.0,5.0,0.0,0.0,1.0,1.0,phase_2,stop,300.0,250.0,4.0,,,,,,,,,green,I
0.0,6.0,1.0,1.0,6.0,0.0,0.0,1.0,1.0,phase_2,stop,350.0,250.0,4.0,,,,,,,,,yellow,circle
0.0,4.0,4.0,0.0,6.0,6.0,530.6757329999527,1.0,1.0,phase_2,go,350.0,300.0,1.0,,,,,,,,,white,cross
0.0,1.0,0.5,0.0,6.0,6.0,748.8198390001344,1.0,1.0,phase_2,go,350.0,300.0,1.0,,,,,,,,,orange,triangle
0.0,8.0,4.0,1.0,6.0,0.0,0.0,1.0,1.0,phase_2,stop,350.0,300.0,4.0,,,,,,,,,cyan,hexagon
0.0,7.0,2.0,1.0,5.0,0.0,0.0,1.0,1.0,phase_2,stop,350.0,350.0,4.0,,,,,,,,,green,I
0.0,6.0,1.0,1.0,6.0,6.0,680.8936959996572,1.0,1.0,phase_2,go,400.0,350.0,1.0,,,,,,,,,yellow,circle
0.0,6.0,1.0,1.0,6.0,0.0,0.0,1.0,1.0,phase_2,stop,400.0,350.0,4.0,,,,,,,,,yellow,circle
0.0,4.0,4.0,0.0,6.0,6.0,819.7750559993437,1.0,1.0,phase_2,go,400.0,400.0,1.0,,,,,,,,,white,cross
0.0,4.0,4.0,0.0,6.0,6.0,922.0113649998892,1.0,1.0,phase_2,go,400.0,400.0,1.0,,,,,,,,,white,cross
0.0,3.0,2.0,0.0,5.0,5.0,894.2260650001117,1.0,1.0,phase_2,go,400.0,400.0,1.0,,,,,,,,,magenta,flipped triangle
0.0,7.0,2.0,1.0,6.0,0.0,0.0,1.0,1.0,phase_2,stop,400.0,400.0,4.0,,,,,,,,,green,I
0.0,6.0,1.0,1.0,5.0,0.0,0.0,1.0,1.0,phase_2,stop,400.0,450.0,4.0,,,,,,,,,yellow,circle
0.0,2.0,1.0,0.0,5.0,5.0,888.8824539999405,1.0,1.0,phase_2,go,450.0,450.0,1.0,,,,,,,,,gray,square
0.0,3.0,2.0,0.0,5.0,5.0,1167.8046489996632,1.0,1.0,phase_2,go,450.0,450.0,1.0,,,,,,,,,magenta,flipped triangle
0.0,5.0,0.5,1.0,6.0,0.0,0.0,1.0,1.0,phase_2,stop,450.0,450.0,4.0,,,,,,,,,blue,diamond
0.0,8.0,4.0,1.0,6.0,0.0,0.0,1.0,1.0,phase_2,stop,450.0,500.0,4.0,,,,,,,,,cyan,hexagon
0.0,2.0,1.0,0.0,5.0,5.0,829.5461059997251,1.0,1.0,phase_2,go,450.0,550.0,1.0,,,,,,,,,gray,square
0.0,8.0,4.0,1.0,5.0,0.0,0.0,1.0,1.0,phase_2,stop,450.0,550.0,4.0,,,,,,,,,cyan,hexagon
0.0,1.0,0.5,0.0,5.0,5.0,922.4322520003624,1.0,1.0,phase_2,go,500.0,550.0,1.0,,,,,,,,,orange,triangle
0.0,7.0,2.0,1.0,6.0,0.0,0.0,1.0,1.0,phase_2,stop,500.0,550.0,4.0,,,,,,,,,green,I
0.0,2.0,1.0,0.0,5.0,5.0,896.2191889995665,1.0,1.0,phase_2,go,500.0,600.0,1.0,,,,,,,,,gray,square
0.0,2.0,1.0,0.0,6.0,6.0,928.3435739998822,1.0,1.0,phase_2,go,500.0,600.0,1.0,,,,,,,,,gray,square
0.0,4.0,4.0,0.0,6.0,6.0,1138.0507069998202,1.0,1.0,phase_2,go,500.0,600.0,1.0,,,,,,,,,white,cross
0.0,3.0,2.0,0.0,5.0,5.0,942.9873190001672,1.0,1.0,phase_2,go,500.0,600.0,1.0,,,,,,,,,magenta,flipped triangle
0.0,2.0,1.0,0.0,6.0,6.0,1237.3954650001906,1.0,1.0,phase_2,go,500.0,600.0,1.0,,,,,,,,,gray,square
0.0,5.0,0.5,1.0,5.0,0.0,0.0,1.0,1.0,phase_2,stop,500.0,600.0,4.0,,,,,,,,,blue,diamond
0.0,2.0,1.0,0.0,6.0,6.0,1475.4714829996374,1.0,1.0,phase_2,go,550.0,600.0,1.0,,,,,,,,,gray,square
0.0,7.0,2.0,1.0,6.0,0.0,0.0,1.0,1.0,phase_2,stop,550.0,600.0,4.0,,,,,,,,,green,I
0.0,5.0,0.5,1.0,5.0,5.0,1047.3962760006543,1.0,1.0,phase_2,stop,550.0,650.0,3.0,,,,,,,,,blue,diamond
0.0,8.0,4.0,1.0,5.0,0.0,0.0,1.0,1.0,phase_2,stop,500.0,650.0,4.0,,,,,,,,,cyan,hexagon
0.0,4.0,4.0,0.0,5.0,5.0,606.2950790001196,1.0,1.0,phase_2,go,550.0,650.0,1.0,,,,,,,,,white,cross
0.0,8.0,4.0,1.0,5.0,0.0,0.0,1.0,1.0,phase_2,stop,550.0,650.0,4.0,,,,,,,,,cyan,hexagon
0.0,4.0,4.0,0.0,5.0,5.0,900.8261549997768,1.0,1.0,phase_2,go,600.0,650.0,1.0,,,,,,,,,white,cross
0.0,7.0,2.0,1.0,6.0,0.0,0.0,1.0,1.0,phase_2,stop,600.0,650.0,4.0,,,,,,,,,green,I
0.0,8.0,4.0,1.0,6.0,5.0,505.75822700011486,2.0,1.0,phase_2,stop,600.0,700.0,3.0,,,,,,,,,cyan,hexagon
0.0,1.0,0.5,0.0,5.0,5.0,728.9407599992046,2.0,1.0,phase_2,go,600.0,650.0,1.0,,,,,,,,,orange,triangle
0.0,2.0,1.0,0.0,5.0,5.0,662.8326049994939,2.0,1.0,phase_2,go,600.0,650.0,1.0,,,,,,,,,gray,square
0.0,3.0,2.0,0.0,6.0,6.0,789.2888610003865,2.0,1.0,phase_2,go,600.0,650.0,1.0,,,,,,,,,magenta,flipped triangle
0.0,1.0,0.5,0.0,6.0,6.0,410.7543939999232,2.0,1.0,phase_2,go,600.0,650.0,1.0,,,,,,,,,orange,triangle
0.0,6.0,1.0,1.0,6.0,6.0,625.7633309996891,2.0,1.0,phase_2,stop,600.0,650.0,3.0,,,,,,,,,yellow,circle
0.0,1.0,0.5,0.0,6.0,6.0,1029.4011030000547,2.0,1.0,phase_2,go,600.0,600.0,1.0,,,,,,,,,orange,triangle
0.0,6.0,1.0,1.0,5.0,0.0,0.0,2.0,1.0,phase_2,stop,600.0,600.0,4.0,,,,,,,,,yellow,circle
0.0,7.0,2.0,1.0,6.0,0.0,0.0,2.0,1.0,phase_2,stop,650.0,600.0,4.0,,,,,,,,,green,I
0.0,3.0,2.0,0.0,6.0,6.0,663.073902999713,2.0,1.0,phase_2,go,650.0,650.0,1.0,,,,,,,,,magenta,flipped triangle
0.0,8.0,4.0,1.0,5.0,0.0,0.0,2.0,1.0,phase_2,stop,650.0,650.0,4.0,,,,,,,,,cyan,hexagon
0.0,4.0,4.0,0.0,5.0,5.0,1148.4572740000658,2.0,1.0,phase_2,go,700.0,650.0,1.0,,,,,,,,,white,cross
0.0,5.0,0.5,1.0,6.0,0.0,0.0,2.0,1.0,phase_2,stop,700.0,650.0,4.0,,,,,,,,,blue,diamond
0.0,8.0,4.0,1.0,6.0,0.0,0.0,2.0,1.0,phase_2,stop,700.0,700.0,4.0,,,,,,,,,cyan,hexagon
0.0,8.0,4.0,1.0,6.0,6.0,940.5709000002388,2.0,1.0,phase_2,stop,700.0,750.0,3.0,,,,,,,,,cyan,hexagon
0.0,4.0,4.0,0.0,5.0,5.0,1251.1504630001582,2.0,1.0,phase_2,go,700.0,700.0,1.0,,,,,,,,,white,cross
0.0,2.0,1.0,0.0,5.0,5.0,1294.162342999698,2.0,1.0,phase_2,go,700.0,700.0,1.0,,,,,,,,,gray,square
0.0,2.0,1.0,0.0,6.0,6.0,1275.7673559999605,2.0,1.0,phase_2,go,700.0,700.0,1.0,,,,,,,,,gray,square
0.0,6.0,1.0,1.0,6.0,0.0,0.0,2.0,1.0,phase_2,stop,700.0,700.0,4.0,,,,,,,,,yellow,circle
0.0,3.0,2.0,0.0,5.0,5.0,804.5050780001475,2.0,1.0,phase_2,go,700.0,750.0,1.0,,,,,,,,,magenta,flipped triangle
0.0,8.0,4.0,1.0,5.0,0.0,0.0,2.0,1.0,phase_2,stop,700.0,750.0,4.0,,,,,,,,,cyan,hexagon
0.0,1.0,0.5,0.0,6.0,0.0,0.0,2.0,1.0,phase_2,go,750.0,750.0,5.0,,,,,,,,,orange,triangle
0.0,6.0,1.0,1.0,6.0,6.0,914.914535999742,2.0,1.0,phase_2,go,750.0,750.0,1.0,,,,,,,,,yellow,circle
0.0,1.0,0.5,0.0,6.0,6.0,335.9411430001273,2.0,1.0,phase_2,go,750.0,750.0,1.0,,,,,,,,,orange,triangle
0.0,5.0,0.5,1.0,5.0,5.0,327.7469509994262,2.0,1.0,phase_2,stop,750.0,750.0,3.0,,,,,,,,,blue,diamond
0.0,2.0,1.0,0.0,6.0,6.0,1022.060872000111,2.0,1.0,phase_2,go,700.0,750.0,1.0,,,,,,,,,gray,square
0.0,1.0,0.5,0.0,5.0,5.0,373.3678219996363,2.0,1.0,phase_2,go,700.0,750.0,1.0,,,,,,,,,orange,triangle
0.0,5.0,0.5,1.0,6.0,6.0,869.7820269999283,2.0,1.0,phase_2,go,700.0,750.0,1.0,,,,,,,,,blue,diamond
0.0,4.0,4.0,0.0,5.0,5.0,318.9567560002615,2.0,1.0,phase_2,go,700.0,750.0,1.0,,,,,,,,,white,cross
0.0,8.0,4.0,1.0,5.0,5.0,458.4179019993826,2.0,1.0,phase_2,go,700.0,750.0,1.0,,,,,,,,,cyan,hexagon
0.0,2.0,1.0,0.0,5.0,5.0,281.5201129997149,2.0,1.0,phase_2,go,700.0,750.0,1.0,,,,,,,,,gray,square
0.0,1.0,0.5,0.0,5.0,5.0,300.4845770001338,2.0,1.0,phase_2,go,700.0,750.0,1.0,,,,,,,,,orange,triangle
0.0,2.0,1.0,0.0,6.0,6.0,279.0683869998247,2.0,1.0,phase_2,go,700.0,750.0,1.0,,,,,,,,,gray,square
0.0,7.0,2.0,1.0,6.0,6.0,308.4540889994969,2.0,1.0,phase_2,stop,700.0,750.0,3.0,,,,,,,,,green,I
0.0,5.0,0.5,1.0,6.0,0.0,0.0,2.0,1.0,phase_2,stop,700.0,700.0,4.0,,,,,,,,,blue,diamond
0.0,1.0,0.5,0.0,5.0,5.0,821.9247980005093,2.0,1.0,phase_2,go,700.0,750.0,1.0,,,,,,,,,orange,triangle
0.0,7.0,2.0,1.0,5.0,5.0,495.4565949992684,3.0,1.0,phase_2,stop,700.0,750.0,3.0,,,,,,,,,green,I
0.0,3.0,2.0,0.0,6.0,6.0,505.34016500023426,3.0,1.0,phase_2,go,650.0,750.0,1.0,,,,,,,,,magenta,flipped triangle
0.0,2.0,1.0,0.0,6.0,6.0,317.0082810001986,3.0,1.0,phase_2,go,650.0,750.0,1.0,,,,,,,,,gray,square
0.0,7.0,2.0,1.0,5.0,5.0,290.4472230002284,3.0,1.0,phase_2,stop,650.0,750.0,3.0,,,,,,,,,green,I
0.0,6.0,1.0,1.0,5.0,5.0,449.2291010001281,3.0,1.0,phase_2,stop,600.0,750.0,3.0,,,,,,,,,yellow,circle
0.0,8.0,4.0,1.0,5.0,0.0,0.0,3.0,1.0,phase_2,stop,550.0,750.0,4.0,,,,,,,,,cyan,hexagon
0.0,6.0,1.0,1.0,6.0,6.0,224.5320170004561,3.0,1.0,phase_2,go,600.0,750.0,1.0,,,,,,,,,yellow,circle
0.0,1.0,0.5,0.0,6.0,6.0,271.8907799999215,3.0,1.0,phase_2,go,600.0,750.0,1.0,,,,,,,,,orange,triangle
0.0,3.0,2.0,0.0,6.0,6.0,319.2629080003826,3.0,1.0,phase_2,go,600.0,750.0,1.0,,,,,,,,,magenta,flipped triangle
0.0,6.0,1.0,1.0,6.0,6.0,281.895428000098,3.0,1.0,phase_2,stop,600.0,750.0,3.0,,,,,,,,,yellow,circle
0.0,5.0,0.5,1.0,6.0,6.0,309.5026970004255,3.0,1.0,phase_2,stop,600.0,700.0,3.0,,,,,,,,,blue,diamond
0.0,3.0,2.0,0.0,5.0,5.0,280.7140659997458,3.0,1.0,phase_2,go,600.0,650.0,1.0,,,,,,,,,magenta,flipped triangle
0.0,7.0,2.0,1.0,6.0,0.0,0.0,3.0,1.0,phase_2,stop,600.0,650.0,4.0,,,,,,,,,green,I
0.0,4.0,4.0,0.0,6.0,6.0,401.64660299979,3.0,1.0,phase_2,go,600.0,700.0,1.0,,,,,,,,,white,cross
0.0,8.0,4.0,1.0,6.0,6.0,271.6433440000401,3.0,1.0,phase_2,stop,600.0,700.0,3.0,,,,,,,,,cyan,hexagon
0.0,2.0,1.0,0.0,5.0,5.0,1039.9011350000364,3.0,1.0,phase_2,go,600.0,650.0,1.0,,,,,,,,,gray,square
0.0,6.0,1.0,1.0,6.0,6.0,328.6363380002512,3.0,1.0,phase_2,stop,600.0,650.0,3.0,,,,,,,,,yellow,circle
0.0,2.0,1.0,0.0,5.0,5.0,336.2794559998292,3.0,1.0,phase_2,go,600.0,600.0,1.0,,,,,,,,,gray,square
0.0,5.0,0.5,1.0,5.0,5.0,373.5454930001651,3.0,1.0,phase_2,stop,600.0,600.0,3.0,,,,,,,,,blue,diamond
0.0,4.0,4.0,0.0,5.0,5.0,409.5183010003893,3.0,1.0,phase_2,go,550.0,600.0,1.0,,,,,,,,,white,cross
0.0,5.0,0.5,1.0,5.0,5.0,325.6945880002604,3.0,1.0,phase_2,stop,550.0,600.0,3.0,,,,,,,,,blue,diamond
0.0,7.0,2.0,1.0,5.0,0.0,0.0,3.0,1.0,phase_2,stop,500.0,600.0,4.0,,,,,,,,,green,I
0.0,5.0,0.5,1.0,5.0,0.0,0.0,3.0,1.0,phase_2,stop,550.0,600.0,4.0,,,,,,,,,blue,diamond
0.0,3.0,2.0,0.0,5.0,5.0,726.1831770001663,3.0,1.0,phase_2,go,600.0,600.0,1.0,,,,,,,,,magenta,flipped triangle
0.0,8.0,4.0,1.0,6.0,0.0,0.0,3.0,1.0,phase_2,stop,600.0,600.0,4.0,,,,,,,,,cyan,hexagon
0.0,6.0,1.0,1.0,5.0,5.0,355.6173329998273,3.0,1.0,phase_2,stop,600.0,650.0,3.0,,,,,,,,,yellow,circle
0.0,3.0,2.0,0.0,6.0,6.0,690.7395110001744,3.0,1.0,phase_2,go,550.0,650.0,1.0,,,,,,,,,magenta,flipped triangle
0.0,2.0,1.0,0.0,5.0,5.0,346.221900999808,3.0,1.0,phase_2,go,550.0,650.0,1.0,,,,,,,,,gray,square
0.0,2.0,1.0,0.0,6.0,6.0,270.1302330006001,3.0,1.0,phase_2,go,550.0,650.0,1.0,,,,,,,,,gray,square
0.0,6.0,1.0,1.0,6.0,6.0,298.9121590007926,3.0,1.0,phase_2,go,550.0,650.0,1.0,,,,,,,,,yellow,circle
0.0,3.0,2.0,0.0,5.0,5.0,326.3853210000889,3.0,1.0,phase_2,go,550.0,650.0,1.0,,,,,,,,,magenta,flipped triangle
0.0,3.0,2.0,0.0,5.0,5.0,313.4271429998989,3.0,1.0,phase_2,go,550.0,650.0,1.0,,,,,,,,,magenta,flipped triangle
0.0,8.0,4.0,1.0,5.0,5.0,289.7327199998472,3.0,1.0,phase_2,stop,550.0,650.0,3.0,,,,,,,,,cyan,hexagon
0.0,8.0,4.0,1.0,5.0,5.0,874.7870830002284,3.0,1.0,phase_2,go,500.0,650.0,1.0,,,,,,,,,cyan,hexagon
0.0,2.0,1.0,0.0,5.0,5.0,336.8567199995596,3.0,1.0,phase_2,go,500.0,650.0,1.0,,,,,,,,,gray,square
0.0,5.0,0.5,1.0,5.0,5.0,319.1717879999487,3.0,1.0,phase_2,stop,500.0,650.0,3.0,,,,,,,,,blue,diamond
0.0,1.0,0.5,0.0,6.0,6.0,558.4281030005513,4.0,1.0,phase_2,go,450.0,650.0,1.0,,,,,,,,,orange,triangle
0.0,2.0,1.0,0.0,6.0,6.0,317.7559290006684,4.0,1.0,phase_2,go,450.0,650.0,1.0,,,,,,,,,gray,square
0.0,4.0,4.0,0.0,6.0,6.0,308.1650340000124,4.0,1.0,phase_2,go,450.0,650.0,1.0,,,,,,,,,white,cross
0.0,5.0,0.5,1.0,5.0,5.0,334.9895740002466,4.0,1.0,phase_2,go,450.0,650.0,1.0,,,,,,,,,blue,diamond
0.0,8.0,4.0,1.0,6.0,6.0,271.7715899998438,4.0,1.0,phase_2,stop,450.0,650.0,3.0,,,,,,,,,cyan,hexagon
0.0,6.0,1.0,1.0,5.0,5.0,280.3011759997389,4.0,1.0,phase_2,stop,450.0,600.0,3.0,,,,,,,,,yellow,circle
0.0,4.0,4.0,0.0,5.0,5.0,336.3183029996435,4.0,1.0,phase_2,go,400.0,600.0,1.0,,,,,,,,,white,cross
0.0,6.0,1.0,1.0,5.0,5.0,317.976004999764,4.0,1.0,phase_2,go,400.0,600.0,1.0,,,,,,,,,yellow,circle
0.0,3.0,2.0,0.0,6.0,6.0,261.6754230002698,4.0,1.0,phase_2,go,400.0,600.0,1.0,,,,,,,,,magenta,flipped triangle
0.0,6.0,1.0,1.0,6.0,6.0,269.2425269997329,4.0,1.0,phase_2,stop,400.0,600.0,3.0,,,,,,,,,yellow,circle
0.0,1.0,0.5,0.0,5.0,5.0,307.9836240003715,4.0,1.0,phase_2,go,400.0,550.0,1.0,,,,,,,,,orange,triangle
0.0,1.0,0.5,0.0,5.0,5.0,299.4638869995469,4.0,1.0,phase_2,go,400.0,550.0,1.0,,,,,,,,,orange,triangle
0.0,7.0,2.0,1.0,6.0,6.0,233.143621999261,4.0,1.0,phase_2,go,400.0,550.0,1.0,,,,,,,,,green,I
0.0,8.0,4.0,1.0,6.0,6.0,326.3783359998342,4.0,1.0,phase_2,stop,400.0,550.0,3.0,,,,,,,,,cyan,hexagon
0.0,2.0,1.0,0.0,5.0,5.0,310.9828180004115,4.0,1.0,phase_2,go,400.0,500.0,1.0,,,,,,,,,gray,square
0.0,6.0,1.0,1.0,6.0,6.0,281.5376689995901,4.0,1.0,phase_2,stop,400.0,500.0,3.0,,,,,,,,,yellow,circle
0.0,5.0,0.5,1.0,6.0,6.0,494.9757459999091,4.0,1.0,phase_2,stop,400.0,450.0,3.0,,,,,,,,,blue,diamond
0.0,4.0,4.0,0.0,5.0,5.0,309.3364240003211,4.0,1.0,phase_2,go,400.0,400.0,1.0,,,,,,,,,white,cross
0.0,4.0,4.0,0.0,5.0,5.0,374.8039399997651,4.0,1.0,phase_2,go,400.0,400.0,1.0,,,,,,,,,white,cross
0.0,7.0,2.0,1.0,6.0,6.0,309.2922879995967,4.0,1.0,phase_2,stop,400.0,400.0,3.0,,,,,,,,,green,I
0.0,8.0,4.0,1.0,6.0,6.0,318.0687180001769,4.0,1.0,phase_2,stop,400.0,350.0,3.0,,,,,,,,,cyan,hexagon
0.0,6.0,1.0,1.0,6.0,6.0,290.7659620004779,4.0,1.0,phase_2,stop,400.0,300.0,3.0,,,,,,,,,yellow,circle
0.0,1.0,0.5,0.0,5.0,5.0,298.7625380001191,4.0,1.0,phase_2,go,400.0,250.0,1.0,,,,,,,,,orange,triangle
0.0,3.0,2.0,0.0,6.0,6.0,618.0564169999343,4.0,1.0,phase_2,go,400.0,250.0,1.0,,,,,,,,,magenta,flipped triangle
0.0,3.0,2.0,0.0,6.0,6.0,617.3510620001252,4.0,1.0,phase_2,go,400.0,250.0,1.0,,,,,,,,,magenta,flipped triangle
0.0,7.0,2.0,1.0,6.0,6.0,361.0862509995058,4.0,1.0,phase_2,stop,400.0,250.0,3.0,,,,,,,,,green,I
0.0,8.0,4.0,1.0,6.0,6.0,372.5013100001888,4.0,1.0,phase_2,stop,400.0,200.0,3.0,,,,,,,,,cyan,hexagon
0.0,5.0,0.5,1.0,5.0,5.0,728.9063279995389,4.0,1.0,phase_2,go,400.0,150.0,1.0,,,,,,,,,blue,diamond
0.0,4.0,4.0,0.0,5.0,5.0,318.3442139998078,4.0,1.0,phase_2,go,400.0,150.0,1.0,,,,,,,,,white,cross
0.0,4.0,4.0,0.0,6.0,6.0,308.245280999472,4.0,1.0,phase_2,go,400.0,150.0,1.0,,,,,,,,,white,cross
0.0,8.0,4.0,1.0,5.0,5.0,299.6505620003518,4.0,1.0,phase_2,go,400.0,150.0,1.0,,,,,,,,,cyan,hexagon
0.0,7.0,2.0,1.0,6.0,6.0,199.6551299998827,4.0,1.0,phase_2,stop,400.0,150.0,3.0,,,,,,,,,green,I
0.0,6.0,1.0,1.0,6.0,0.0,0.0,4.0,1.0,phase_2,stop,400.0,100.0,4.0,,,,,,,,,yellow,circle
0.0,6.0,1.0,1.0,5.0,0.0,0.0,4.0,1.0,phase_2,stop,400.0,150.0,4.0,,,,,,,,,yellow,circle
0.0,2.0,1.0,0.0,6.0,6.0,737.3562729999321,4.0,1.0,phase_2,go,450.0,150.0,1.0,,,,,,,,,gray,square
0.0,5.0,0.5,1.0,6.0,0.0,0.0,4.0,1.0,phase_2,stop,450.0,150.0,4.0,,,,,,,,,blue,diamond
0.0,3.0,2.0,0.0,5.0,5.0,738.5272359997543,5.0,1.0,phase_2,go,450.0,200.0,1.0,,,,,,,,,magenta,flipped triangle
0.0,1.0,0.5,0.0,5.0,5.0,550.705841999843,5.0,1.0,phase_2,go,450.0,200.0,1.0,,,,,,,,,orange,triangle
0.0,3.0,2.0,0.0,6.0,6.0,905.8268690005208,5.0,1.0,phase_2,go,450.0,200.0,1.0,,,,,,,,,magenta,flipped triangle
0.0,4.0,4.0,0.0,6.0,6.0,754.8487809999642,5.0,1.0,phase_2,go,450.0,200.0,1.0,,,,,,,,,white,cross
0.0,8.0,4.0,1.0,5.0,0.0,0.0,5.0,1.0,phase_2,stop,450.0,200.0,4.0,,,,,,,,,cyan,hexagon
0.0,2.0,1.0,0.0,6.0,6.0,800.0029849999919,5.0,1.0,phase_2,go,500.0,200.0,1.0,,,,,,,,,gray,square
0.0,3.0,2.0,0.0,5.0,5.0,458.1812739997986,5.0,1.0,phase_2,go,500.0,200.0,1.0,,,,,,,,,magenta,flipped triangle
0.0,6.0,1.0,1.0,5.0,0.0,0.0,5.0,1.0,phase_2,stop,500.0,200.0,4.0,,,,,,,,,yellow,circle
0.0,2.0,1.0,0.0,6.0,6.0,810.5059780000374,5.0,1.0,phase_2,go,550.0,200.0,1.0,,,,,,,,,gray,square
0.0,7.0,2.0,1.0,5.0,5.0,1307.216131000132,5.0,1.0,phase_2,go,550.0,200.0,1.0,,,,,,,,,green,I
0.0,4.0,4.0,0.0,6.0,6.0,1285.9490099999675,5.0,1.0,phase_2,go,550.0,200.0,1.0,,,,,,,,,white,cross
0.0,5.0,0.5,1.0,6.0,6.0,902.7835159995448,5.0,1.0,phase_2,go,550.0,200.0,1.0,,,,,,,,,blue,diamond
0.0,7.0,2.0,1.0,6.0,0.0,0.0,5.0,1.0,phase_2,stop,550.0,200.0,4.0,,,,,,,,,green,I
0.0,5.0,0.5,1.0,5.0,5.0,618.9119239998035,5.0,1.0,phase_2,stop,550.0,250.0,3.0,,,,,,,,,blue,diamond
0.0,7.0,2.0,1.0,5.0,5.0,1134.0828660004263,5.0,1.0,phase_2,go,500.0,250.0,1.0,,,,,,,,,green,I
0.0,4.0,4.0,0.0,5.0,5.0,1155.735858999833,5.0,1.0,phase_2,go,500.0,250.0,1.0,,,,,,,,,white,cross
0.0,7.0,2.0,1.0,5.0,0.0,0.0,5.0,1.0,phase_2,stop,500.0,250.0,4.0,,,,,,,,,green,I
0.0,7.0,2.0,1.0,6.0,0.0,0.0,5.0,1.0,phase_2,stop,550.0,250.0,4.0,,,,,,,,,green,I
0.0,6.0,1.0,1.0,6.0,6.0,791.6367819998413,5.0,1.0,phase_2,go,550.0,300.0,1.0,,,,,,,,,yellow,circle
0.0,5.0,0.5,1.0,5.0,0.0,0.0,5.0,1.0,phase_2,stop,550.0,300.0,4.0,,,,,,,,,blue,diamond
0.0,6.0,1.0,1.0,5.0,0.0,0.0,5.0,1.0,phase_2,stop,600.0,300.0,4.0,,,,,,,,,yellow,circle
0.0,8.0,4.0,1.0,6.0,0.0,0.0,5.0,1.0,phase_2,stop,650.0,300.0,4.0,,,,,,,,,cyan,hexagon
0.0,3.0,2.0,0.0,5.0,5.0,811.3515690001805,5.0,1.0,phase_2,go,650.0,350.0,1.0,,,,,,,,,magenta,flipped triangle
0.0,1.0,0.5,0.0,6.0,6.0,1138.6714659993231,5.0,1.0,phase_2,go,650.0,350.0,1.0,,,,,,,,,orange,triangle
0.0,4.0,4.0,0.0,6.0,6.0,679.3702599998142,5.0,1.0,phase_2,go,650.0,350.0,1.0,,,,,,,,,white,cross
0.0,7.0,2.0,1.0,5.0,0.0,0.0,5.0,1.0,phase_2,stop,650.0,350.0,4.0,,,,,,,,,green,I
0.0,5.0,0.5,1.0,5.0,0.0,0.0,5.0,1.0,phase_2,stop,700.0,350.0,4.0,,,,,,,,,blue,diamond
0.0,4.0,4.0,0.0,6.0,6.0,755.7825650001178,5.0,1.0,phase_2,go,750.0,350.0,1.0,,,,,,,,,white,cross
0.0,8.0,4.0,1.0,5.0,5.0,1228.7777769997774,5.0,1.0,phase_2,go,750.0,350.0,1.0,,,,,,,,,cyan,hexagon
0.0,7.0,2.0,1.0,6.0,0.0,0.0,5.0,1.0,phase_2,stop,750.0,350.0,4.0,,,,,,,,,green,I
0.0,1.0,0.5,0.0,6.0,6.0,888.424046000182,5.0,1.0,phase_2,go,750.0,400.0,1.0,,,,,,,,,orange,triangle
0.0,5.0,0.5,1.0,6.0,0.0,0.0,5.0,1.0,phase_2,stop,750.0,400.0,4.0,,,,,,,,,blue,diamond
0.0,8.0,4.0,1.0,5.0,5.0,848.1362550000995,5.0,1.0,phase_2,stop,750.0,450.0,3.0,,,,,,,,,cyan,hexagon
0.0,1.0,0.5,0.0,6.0,6.0,1129.7101489999477,5.0,1.0,phase_2,go,700.0,450.0,1.0,,,,,,,,,orange,triangle
0.0,7.0,2.0,1.0,5.0,5.0,997.7263430000676,5.0,1.0,phase_2,go,700.0,450.0,1.0,,,,,,,,,green,I
0.0,5.0,0.5,1.0,5.0,0.0,0.0,5.0,1.0,phase_2,stop,700.0,450.0,4.0,,,,,,,,,blue,diamond
0.0,1.0,0.5,0.0,6.0,6.0,1317.8848460001973,6.0,1.0,phase_2,go,750.0,450.0,1.0,,,,,,,,,orange,triangle
0.0,1.0,0.5,0.0,6.0,6.0,467.5158350000856,6.0,1.0,phase_2,go,750.0,450.0,1.0,,,,,,,,,orange,triangle
0.0,1.0,0.5,0.0,6.0,6.0,738.3668160000525,6.0,1.0,phase_2,go,750.0,450.0,1.0,,,,,,,,,orange,triangle
0.0,7.0,2.0,1.0,5.0,5.0,870.7546839996212,6.0,1.0,phase_2,stop,750.0,450.0,3.0,,,,,,,,,green,I
0.0,6.0,1.0,1.0,5.0,5.0,1475.210880999839,6.0,1.0,phase_2,go,700.0,450.0,1.0,,,,,,,,,yellow,circle
0.0,1.0,0.5,0.0,5.0,5.0,1452.8621270001167,6.0,1.0,phase_2,go,700.0,450.0,1.0,,,,,,,,,orange,triangle
0.0,8.0,4.0,1.0,5.0,0.0,0.0,6.0,1.0,phase_2,stop,700.0,450.0,4.0,,,,,,,,,cyan,hexagon
0.0,1.0,0.5,0.0,6.0,6.0,830.8538210003462,6.0,1.0,phase_2,go,750.0,450.0,1.0,,,,,,,,,orange,triangle
0.0,3.0,2.0,0.0,6.0,6.0,1029.8229619993435,6.0,1.0,phase_2,go,750.0,450.0,1.0,,,,,,,,,magenta,flipped triangle
0.0,3.0,2.0,0.0,5.0,5.0,1214.5703059995867,6.0,1.0,phase_2,go,750.0,450.0,1.0,,,,,,,,,magenta,flipped triangle
0.0,1.0,0.5,0.0,5.0,5.0,1495.5922319995807,6.0,1.0,phase_2,go,750.0,450.0,1.0,,,,,,,,,orange,triangle
0.0,1.0,0.5,0.0,5.0,5.0,1161.0277780000615,6.0,1.0,phase_2,go,750.0,450.0,1.0,,,,,,,,,orange,triangle
0.0,3.0,2.0,0.0,5.0,5.0,1113.6669930001517,6.0,1.0,phase_2,go,750.0,450.0,1.0,,,,,,,,,magenta,flipped triangle
0.0,8.0,4.0,1.0,6.0,0.0,0.0,6.0,1.0,phase_2,stop,750.0,450.0,4.0,,,,,,,,,cyan,hexagon
0.0,7.0,2.0,1.0,5.0,5.0,1119.6474999997008,6.0,1.0,phase_2,go,750.0,500.0,1.0,,,,,,,,,green,I
0.0,5.0,0.5,1.0,6.0,6.0,1455.6556849993283,6.0,1.0,phase_2,go,750.0,500.0,1.0,,,,,,,,,blue,diamond
0.0,8.0,4.0,1.0,5.0,5.0,1235.5442680000124,6.0,1.0,phase_2,go,750.0,500.0,1.0,,,,,,,,,cyan,hexagon
0.0,4.0,4.0,0.0,6.0,6.0,767.2789289999855,6.0,1.0,phase_2,go,750.0,500.0,1.0,,,,,,,,,white,cross
0.0,6.0,1.0,1.0,6.0,0.0,0.0,6.0,1.0,phase_2,stop,750.0,500.0,4.0,,,,,,,,,yellow,circle
0.0,1.0,0.5,0.0,5.0,5.0,1143.3205439998346,6.0,1.0,phase_2,go,750.0,550.0,1.0,,,,,,,,,orange,triangle
0.0,5.0,0.5,1.0,6.0,0.0,0.0,6.0,1.0,phase_2,stop,750.0,550.0,4.0,,,,,,,,,blue,diamond
0.0,2.0,1.0,0.0,5.0,5.0,980.81381800057,6.0,1.0,phase_2,go,750.0,600.0,1.0,,,,,,,,,gray,square
0.0,3.0,2.0,0.0,6.0,6.0,391.4359410000543,6.0,1.0,phase_2,go,750.0,600.0,1.0,,,,,,,,,magenta,flipped triangle
0.0,2.0,1.0,0.0,5.0,5.0,1141.9687010002235,6.0,1.0,phase_2,go,750.0,600.0,1.0,,,,,,,,,gray,square
0.0,3.0,2.0,0.0,6.0,6.0,1104.8768259997814,6.0,1.0,phase_2,go,750.0,600.0,1.0,,,,,,,,,magenta,flipped triangle
0.0,6.0,1.0,1.0,5.0,0.0,0.0,6.0,1.0,phase_2,stop,750.0,600.0,4.0,,,,,,,,,yellow,circle
0.0,8.0,4.0,1.0,6.0,6.0,869.8674999996001,6.0,1.0,phase_2,go,800.0,600.0,1.0,,,,,,,,,cyan,hexagon
0.0,5.0,0.5,1.0,5.0,0.0,0.0,6.0,1.0,phase_2,stop,800.0,600.0,4.0,,,,,,,,,blue,diamond
0.0,1.0,0.5,0.0,5.0,5.0,1335.2289479998944,6.0,1.0,phase_2,go,850.0,600.0,1.0,,,,,,,,,orange,triangle
0.0,2.0,1.0,0.0,5.0,0.0,0.0,6.0,1.0,phase_2,go,850.0,600.0,5.0,,,,,,,,,gray,square
0.0,2.0,1.0,0.0,6.0,6.0,1333.8124770007198,6.0,1.0,phase_2,go,850.0,600.0,1.0,,,,,,,,,gray,square
0.0,4.0,4.0,0.0,5.0,5.0,300.1573229994392,6.0,1.0,phase_2,go,850.0,600.0,1.0,,,,,,,,,white,cross
0.0,4.0,4.0,0.0,6.0,6.0,505.50656499945035,6.0,1.0,phase_2,go,850.0,600.0,1.0,,,,,,,,,white,cross
0.0,7.0,2.0,1.0,5.0,5.0,909.8578980001548,6.0,1.0,phase_2,stop,850.0,600.0,3.0,,,,,,,,,green,I
0.0,1.0,0.5,0.0,5.0,5.0,821.7308090006554,6.0,1.0,phase_2,go,800.0,600.0,1.0,,,,,,,,,orange,triangle
0.0,2.0,1.0,0.0,6.0,6.0,317.2056900002644,6.0,1.0,phase_2,go,800.0,600.0,1.0,,,,,,,,,gray,square
0.0,5.0,0.5,1.0,5.0,5.0,681.7562800006272,7.0,1.0,phase_2,stop,800.0,600.0,3.0,,,,,,,,,blue,diamond
0.0,7.0,2.0,1.0,5.0,5.0,1008.8629820002095,7.0,1.0,phase_2,go,750.0,600.0,1.0,,,,,,,,,green,I
0.0,7.0,2.0,1.0,6.0,6.0,1159.62335399945,7.0,1.0,phase_2,go,750.0,600.0,1.0,,,,,,,,,green,I
0.0,8.0,4.0,1.0,5.0,5.0,635.6474800004435,7.0,1.0,phase_2,stop,750.0,600.0,3.0,,,,,,,,,cyan,hexagon
0.0,2.0,1.0,0.0,5.0,5.0,1158.200509999915,7.0,1.0,phase_2,go,700.0,600.0,1.0,,,,,,,,,gray,square
0.0,7.0,2.0,1.0,6.0,0.0,0.0,7.0,1.0,phase_2,stop,700.0,600.0,4.0,,,,,,,,,green,I
0.0,8.0,4.0,1.0,5.0,5.0,1091.185974999462,7.0,1.0,phase_2,go,700.0,650.0,1.0,,,,,,,,,cyan,hexagon
0.0,3.0,2.0,0.0,6.0,6.0,766.4294369997151,7.0,1.0,phase_2,go,700.0,650.0,1.0,,,,,,,,,magenta,flipped triangle
0.0,2.0,1.0,0.0,6.0,6.0,1026.8062750001263,7.0,1.0,phase_2,go,700.0,650.0,1.0,,,,,,,,,gray,square
0.0,2.0,1.0,0.0,6.0,6.0,569.9859469996227,7.0,1.0,phase_2,go,700.0,650.0,1.0,,,,,,,,,gray,square
0.0,5.0,0.5,1.0,6.0,0.0,0.0,7.0,1.0,phase_2,stop,700.0,650.0,4.0,,,,,,,,,blue,diamond
0.0,2.0,1.0,0.0,6.0,6.0,1142.8690689999712,7.0,1.0,phase_2,go,700.0,700.0,1.0,,,,,,,,,gray,square
0.0,1.0,0.5,0.0,5.0,5.0,1084.74596600081,7.0,1.0,phase_2,go,700.0,700.0,1.0,,,,,,,,,orange,triangle
0.0,7.0,2.0,1.0,5.0,5.0,737.1074860002409,7.0,1.0,phase_2,stop,700.0,700.0,3.0,,,,,,,,,green,I
0.0,4.0,4.0,0.0,5.0,5.0,1183.6548970004517,7.0,1.0,phase_2,go,650.0,700.0,1.0,,,,,,,,,white,cross
0.0,4.0,4.0,0.0,5.0,5.0,873.3115099994393,7.0,1.0,phase_2,go,650.0,700.0,1.0,,,,,,,,,white,cross
0.0,6.0,1.0,1.0,5.0,0.0,0.0,7.0,1.0,phase_2,stop,650.0,700.0,4.0,,,,,,,,,yellow,circle
0.0,1.0,0.5,0.0,5.0,5.0,1221.5937099999792,7.0,1.0,phase_2,go,700.0,700.0,1.0,,,,,,,,,orange,triangle
0.0,1.0,0.5,0.0,6.0,6.0,599.2025850000573,7.0,1.0,phase_2,go,700.0,700.0,1.0,,,,,,,,,orange,triangle
0.0,8.0,4.0,1.0,6.0,0.0,0.0,7.0,1.0,phase_2,stop,700.0,700.0,4.0,,,,,,,,,cyan,hexagon
0.0,5.0,0.5,1.0,6.0,6.0,821.3868520006145,7.0,1.0,phase_2,go,700.0,750.0,1.0,,,,,,,,,blue,diamond
0.0,5.0,0.5,1.0,5.0,0.0,0.0,7.0,1.0,phase_2,stop,700.0,750.0,4.0,,,,,,,,,blue,diamond
0.0,1.0,0.5,0.0,6.0,6.0,1141.6673399999129,7.0,1.0,phase_2,go,750.0,750.0,1.0,,,,,,,,,orange,triangle
0.0,5.0,0.5,1.0,5.0,5.0,807.5760230003652,7.0,1.0,phase_2,go,750.0,750.0,1.0,,,,,,,,,blue,diamond
0.0,4.0,4.0,0.0,6.0,6.0,999.237512000036,7.0,1.0,phase_2,go,750.0,750.0,1.0,,,,,,,,,white,cross
0.0,7.0,2.0,1.0,5.0,5.0,1212.2495819994583,7.0,1.0,phase_2,go,750.0,750.0,1.0,,,,,,,,,green,I
0.0,4.0,4.0,0.0,5.0,5.0,600.478886000019,7.0,1.0,phase_2,go,750.0,750.0,1.0,,,,,,,,,white,cross
0.0,5.0,0.5,1.0,6.0,6.0,579.3997850005326,7.0,1.0,phase_2,stop,750.0,750.0,3.0,,,,,,,,,blue,diamond
0.0,8.0,4.0,1.0,6.0,6.0,299.7210909998102,7.0,1.0,phase_2,stop,750.0,700.0,3.0,,,,,,,,,cyan,hexagon
0.0,5.0,0.5,1.0,5.0,0.0,0.0,7.0,1.0,phase_2,stop,750.0,650.0,4.0,,,,,,,,,blue,diamond
0.0,4.0,4.0,0.0,6.0,6.0,729.9070850003773,7.0,1.0,phase_2,go,800.0,650.0,1.0,,,,,,,,,white,cross
0.0,3.0,2.0,0.0,5.0,5.0,872.280206999676,7.0,1.0,phase_2,go,800.0,650.0,1.0,,,,,,,,,magenta,flipped triangle
0.0,3.0,2.0,0.0,5.0,5.0,620.4516549996697,7.0,1.0,phase_2,go,800.0,650.0,1.0,,,,,,,,,magenta,flipped triangle
0.0,5.0,0.5,1.0,6.0,6.0,308.9431030002743,7.0,1.0,phase_2,stop,800.0,650.0,3.0,,,,,,,,,blue,diamond
0.0,5.0,0.5,1.0,6.0,6.0,965.67948000029,7.0,1.0,phase_2,go,800.0,600.0,1.0,,,,,,,,,blue,diamond
0.0,4.0,4.0,0.0,6.0,0.0,0.0,7.0,1.0,phase_2,go,800.0,600.0,5.0,,,,,,,,,white,cross
0.0,6.0,1.0,1.0,5.0,5.0,569.8360890000913,8.0,1.0,phase_2,stop,800.0,600.0,3.0,,,,,,,,,yellow,circle
0.0,2.0,1.0,0.0,5.0,5.0,579.2415299993081,8.0,1.0,phase_2,go,750.0,600.0,1.0,,,,,,,,,gray,square
0.0,7.0,2.0,1.0,6.0,0.0,0.0,8.0,1.0,phase_2,stop,750.0,600.0,4.0,,,,,,,,,green,I
0.0,7.0,2.0,1.0,5.0,0.0,0.0,8.0,1.0,phase_2,stop,750.0,650.0,4.0,,,,,,,,,green,I
0.0,3.0,2.0,0.0,5.0,5.0,999.8400120002772,8.0,1.0,phase_2,go,800.0,650.0,1.0,,,,,,,,,magenta,flipped triangle
0.0,4.0,4.0,0.0,5.0,5.0,796.0923609998645,8.0,1.0,phase_2,go,800.0,650.0,1.0,,,,,,,,,white,cross
0.0,8.0,4.0,1.0,5.0,5.0,872.5141770000846,8.0,1.0,phase_2,stop,800.0,650.0,3.0,,,,,,,,,cyan,hexagon
0.0,3.0,2.0,0.0,6.0,5.0,1092.2624659997382,8.0,1.0,phase_2,go,750.0,650.0,2.0,,,,,,,,,magenta,flipped triangle
0.0,4.0,4.0,0.0,5.0,5.0,1006.7185150001023,8.0,1.0,phase_2,go,750.0,650.0,1.0,,,,,,,,,white,cross
0.0,1.0,0.5,0.0,6.0,6.0,709.3556279996847,8.0,1.0,phase_2,go,750.0,650.0,1.0,,,,,,,,,orange,triangle
0.0,6.0,1.0,1.0,6.0,0.0,0.0,8.0,1.0,phase_2,stop,750.0,650.0,4.0,,,,,,,,,yellow,circle
0.0,3.0,2.0,0.0,6.0,5.0,1325.9541170000375,8.0,1.0,phase_2,go,750.0,700.0,2.0,,,,,,,,,magenta,flipped triangle
0.0,6.0,1.0,1.0,5.0,0.0,0.0,8.0,1.0,phase_2,stop,750.0,700.0,4.0,,,,,,,,,yellow,circle
0.0,6.0,1.0,1.0,5.0,5.0,982.70591399978,8.0,1.0,phase_2,go,800.0,700.0,1.0,,,,,,,,,yellow,circle
0.0,6.0,1.0,1.0,5.0,0.0,0.0,8.0,1.0,phase_2,stop,800.0,700.0,4.0,,,,,,,,,yellow,circle
0.0,2.0,1.0,0.0,5.0,5.0,1338.0313469997418,8.0,1.0,phase_2,go,850.0,700.0,1.0,,,,,,,,,gray,square
0.0,2.0,1.0,0.0,5.0,5.0,775.9271559998524,8.0,1.0,phase_2,go,850.0,700.0,1.0,,,,,,,,,gray,square
0.0,4.0,4.0,0.0,6.0,6.0,1095.4360959995029,8.0,1.0,phase_2,go,850.0,700.0,1.0,,,,,,,,,white,cross
0.0,3.0,2.0,0.0,6.0,6.0,617.4346899997545,8.0,1.0,phase_2,go,850.0,700.0,1.0,,,,,,,,,magenta,flipped triangle
0.0,7.0,2.0,1.0,6.0,6.0,533.2323210004688,8.0,1.0,phase_2,stop,850.0,700.0,3.0,,,,,,,,,green,I
0.0,4.0,4.0,0.0,5.0,5.0,701.4491459995043,8.0,1.0,phase_2,go,850.0,650.0,1.0,,,,,,,,,white,cross
0.0,1.0,0.5,0.0,6.0,6.0,1106.6202219999468,8.0,1.0,phase_2,go,850.0,650.0,1.0,,,,,,,,,orange,triangle
0.0,3.0,2.0,0.0,5.0,5.0,1126.669616999607,8.0,1.0,phase_2,go,850.0,650.0,1.0,,,,,,,,,magenta,flipped triangle
0.0,6.0,1.0,1.0,6.0,0.0,0.0,8.0,1.0,phase_2,stop,850.0,650.0,4.0,,,,,,,,,yellow,circle
0.0,6.0,1.0,1.0,5.0,5.0,832.9196730001058,8.0,1.0,phase_2,go,850.0,700.0,1.0,,,,,,,,,yellow,circle
0.0,3.0,2.0,0.0,5.0,5.0,1050.240904999555,8.0,1.0,phase_2,go,850.0,700.0,1.0,,,,,,,,,magenta,flipped triangle
0.0,1.0,0.5,0.0,5.0,5.0,750.8668479995322,8.0,1.0,phase_2,go,850.0,700.0,1.0,,,,,,,,,orange,triangle
0.0,7.0,2.0,1.0,5.0,5.0,1110.7994410003812,8.0,1.0,phase_2,go,850.0,700.0,1.0,,,,,,,,,green,I
0.0,2.0,1.0,0.0,6.0,6.0,869.3248479994509,8.0,1.0,phase_2,go,850.0,700.0,1.0,,,,,,,,,gray,square
0.0,8.0,4.0,1.0,6.0,6.0,383.2073139992644,8.0,1.0,phase_2,go,850.0,700.0,1.0,,,,,,,,,cyan,hexagon
0.0,3.0,2.0,0.0,6.0,6.0,320.0050059995192,8.0,1.0,phase_2,go,850.0,700.0,1.0,,,,,,,,,magenta,flipped triangle
0.0,3.0,2.0,0.0,6.0,6.0,879.5204849993752,8.0,1.0,phase_2,go,850.0,700.0,1.0,,,,,,,,,magenta,flipped triangle
0.0,5.0,0.5,1.0,6.0,0.0,0.0,8.0,1.0,phase_2,stop,850.0,700.0,4.0,,,,,,,,,blue,diamond
0.0,8.0,4.0,1.0,6.0,6.0,1112.398500999916,8.0,1.0,phase_2,go,850.0,750.0,1.0,,,,,,,,,cyan,hexagon
0.0,5.0,0.5,1.0,6.0,6.0,1358.943033000287,8.0,1.0,phase_2,go,850.0,750.0,1.0,,,,,,,,,blue,diamond
0.0,4.0,4.0,0.0,6.0,6.0,1176.07798500012,8.0,1.0,phase_2,go,850.0,750.0,1.0,,,,,,,,,white,cross
0.0,8.0,4.0,1.0,7.0,4.0,2444.904642000438,1.0,1.0,phase_3,,,,,270.0,2.0,540.0,135.0,810.0,270.0,675.0,405.0,cyan,hexagon
0.0,2.0,1.0,0.0,7.0,2.0,4170.083400000294,1.0,1.0,phase_3,,,,,1152.0,6.0,768.0,1152.0,576.0,960.0,192.0,384.0,gray,square
0.0,4.0,4.0,0.0,7.0,5.0,4494.903681000324,1.0,1.0,phase_3,,,,,519.0,3.0,692.0,865.0,346.0,173.0,519.0,1038.0,white,cross
0.0,7.0,2.0,1.0,7.0,6.0,4601.094499000283,1.0,1.0,phase_3,,,,,770.0,5.0,924.0,616.0,308.0,154.0,462.0,770.0,green,I
0.0,8.0,4.0,1.0,7.0,5.0,3904.241911999634,1.0,2.0,phase_3,,,,,135.0,1.0,540.0,810.0,405.0,675.0,135.0,270.0,cyan,hexagon
0.0,1.0,0.5,0.0,7.0,2.0,1913.5651779997715,1.0,1.0,phase_3,,,,,960.0,5.0,768.0,960.0,1152.0,384.0,576.0,192.0,orange,triangle
0.0,4.0,4.0,0.0,7.0,1.0,2970.608209000602,1.0,1.0,phase_3,,,,,770.0,5.0,770.0,924.0,616.0,154.0,308.0,462.0,white,cross
0.0,5.0,0.5,1.0,7.0,3.0,3803.490807000344,1.0,1.0,phase_3,,,,,308.0,2.0,770.0,462.0,308.0,154.0,616.0,924.0,blue,diamond
0.0,8.0,4.0,1.0,7.0,2.0,4746.391516000585,1.0,1.0,phase_3,,,,,770.0,5.0,616.0,770.0,924.0,462.0,154.0,308.0,cyan,hexagon
0.0,1.0,0.5,0.0,7.0,5.0,3342.9411850002,1.0,1.0,phase_3,,,,,462.0,3.0,770.0,616.0,154.0,924.0,462.0,308.0,orange,triangle
0.0,5.0,0.5,1.0,7.0,3.0,3843.021427000167,1.0,1.0,phase_3,,,,,519.0,3.0,692.0,173.0,519.0,1038.0,346.0,865.0,blue,diamond
0.0,3.0,2.0,0.0,7.0,5.0,2443.6293680000745,1.0,1.0,phase_3,,,,,865.0,5.0,1038.0,173.0,519.0,346.0,865.0,692.0,magenta,flipped triangle
0.0,6.0,1.0,1.0,7.0,5.0,2321.403420000024,1.0,1.0,phase_3,,,,,462.0,3.0,308.0,616.0,154.0,770.0,462.0,924.0,yellow,circle
0.0,1.0,0.5,0.0,7.0,2.0,1391.1262750007154,1.0,1.0,phase_3,,,,,116.0,1.0,580.0,116.0,348.0,232.0,696.0,464.0,orange,triangle
0.0,3.0,2.0,0.0,7.0,6.0,1882.9571440001016,1.0,1.0,phase_3,,,,,768.0,4.0,384.0,960.0,576.0,192.0,1152.0,768.0,magenta,flipped triangle
0.0,6.0,1.0,1.0,7.0,2.0,3089.626717999636,1.0,1.0,phase_3,,,,,675.0,5.0,540.0,675.0,270.0,135.0,810.0,405.0,yellow,circle
0.0,5.0,0.5,1.0,7.0,4.0,4175.703226000223,1.0,1.0,phase_3,,,,,768.0,4.0,384.0,960.0,576.0,768.0,1152.0,192.0,blue,diamond
0.0,3.0,2.0,0.0,7.0,4.0,4351.27194100005,1.0,1.0,phase_3,,,,,580.0,5.0,464.0,348.0,696.0,580.0,116.0,232.0,magenta,flipped triangle
0.0,6.0,1.0,1.0,7.0,3.0,3363.128978000532,1.0,1.0,phase_3,,,,,384.0,2.0,960.0,1152.0,384.0,768.0,192.0,576.0,yellow,circle
0.0,3.0,2.0,0.0,7.0,4.0,2362.8997529995104,1.0,1.0,phase_3,,,,,154.0,1.0,616.0,770.0,462.0,154.0,924.0,308.0,magenta,flipped triangle
0.0,2.0,1.0,0.0,7.0,2.0,1982.886626000436,2.0,1.0,phase_3,,,,,616.0,4.0,462.0,616.0,154.0,924.0,308.0,770.0,gray,square
0.0,5.0,0.5,1.0,7.0,1.0,1101.9107539996185,2.0,1.0,phase_3,,,,,616.0,4.0,616.0,308.0,770.0,154.0,924.0,462.0,blue,diamond
0.0,3.0,2.0,0.0,7.0,6.0,1480.6064949998472,2.0,1.0,phase_3,,,,,770.0,5.0,616.0,154.0,462.0,308.0,924.0,770.0,magenta,flipped triangle
0.0,3.0,2.0,0.0,7.0,1.0,3321.6377849994387,2.0,1.0,phase_3,,,,,768.0,4.0,768.0,1152.0,576.0,960.0,192.0,384.0,magenta,flipped triangle
0.0,5.0,0.5,1.0,7.0,5.0,1135.9501260003526,2.0,1.0,phase_3,,,,,270.0,2.0,675.0,810.0,405.0,135.0,270.0,540.0,blue,diamond
0.0,6.0,1.0,1.0,7.0,4.0,1367.7153080006974,2.0,1.0,phase_3,,,,,1038.0,6.0,519.0,173.0,692.0,1038.0,865.0,346.0,yellow,circle
0.0,2.0,1.0,0.0,7.0,4.0,3181.11563399998,2.0,1.0,phase_3,,,,,580.0,5.0,116.0,696.0,348.0,580.0,464.0,232.0,gray,square
0.0,6.0,1.0,1.0,7.0,2.0,1150.1271229999477,2.0,1.0,phase_3,,,,,135.0,1.0,810.0,135.0,405.0,675.0,540.0,270.0,yellow,circle
0.0,4.0,4.0,0.0,7.0,4.0,1958.9734870005489,2.0,1.0,phase_3,,,,,348.0,3.0,696.0,580.0,116.0,348.0,232.0,464.0,white,cross
0.0,6.0,1.0,1.0,7.0,1.0,1576.2069229995177,2.0,1.0,phase_3,,,,,232.0,2.0,232.0,580.0,348.0,464.0,696.0,116.0,yellow,circle
0.0,7.0,2.0,1.0,7.0,2.0,1065.5799770001977,2.0,1.0,phase_3,,,,,462.0,3.0,154.0,462.0,770.0,308.0,924.0,616.0,green,I
0.0,4.0,4.0,0.0,7.0,5.0,1966.149296000367,2.0,1.0,phase_3,,,,,692.0,4.0,173.0,1038.0,865.0,519.0,692.0,346.0,white,cross
0.0,7.0,2.0,1.0,7.0,3.0,1502.71416600026,2.0,1.0,phase_3,,,,,580.0,5.0,464.0,116.0,580.0,232.0,348.0,696.0,green,I
0.0,5.0,0.5,1.0,7.0,3.0,1885.526942000069,2.0,1.0,phase_3,,,,,346.0,2.0,692.0,865.0,346.0,1038.0,173.0,519.0,blue,diamond
0.0,4.0,4.0,0.0,7.0,5.0,1921.066711000094,2.0,1.0,phase_3,,,,,696.0,6.0,348.0,232.0,580.0,464.0,696.0,116.0,white,cross
0.0,6.0,1.0,1.0,7.0,3.0,574.9704500003645,2.0,1.0,phase_3,,,,,346.0,2.0,519.0,692.0,346.0,173.0,865.0,1038.0,yellow,circle
0.0,2.0,1.0,0.0,7.0,4.0,2654.612874999657,2.0,1.0,phase_3,,,,,696.0,6.0,232.0,348.0,116.0,696.0,464.0,580.0,gray,square
0.0,4.0,4.0,0.0,7.0,6.0,1435.1048479993551,2.0,1.0,phase_3,,,,,384.0,2.0,960.0,1152.0,576.0,192.0,768.0,384.0,white,cross
0.0,4.0,4.0,0.0,7.0,2.0,2093.969874999857,2.0,1.0,phase_3,,,,,768.0,4.0,1152.0,768.0,960.0,192.0,576.0,384.0,white,cross
0.0,8.0,4.0,1.0,7.0,6.0,2742.900045000169,2.0,1.0,phase_3,,,,,692.0,4.0,1038.0,346.0,519.0,173.0,865.0,692.0,cyan,hexagon
0.0,4.0,4.0,0.0,7.0,3.0,836.446777000674,3.0,1.0,phase_3,,,,,135.0,1.0,270.0,405.0,135.0,675.0,540.0,810.0,white,cross
0.0,7.0,2.0,1.0,7.0,6.0,1474.0463750003985,3.0,1.0,phase_3,,,,,960.0,5.0,768.0,384.0,576.0,192.0,1152.0,960.0,green,I
0.0,1.0,0.5,0.0,7.0,2.0,1467.1873739998773,3.0,1.0,phase_3,,,,,675.0,5.0,405.0,675.0,810.0,270.0,540.0,135.0,orange,triangle
0.0,8.0,4.0,1.0,7.0,5.0,1872.14497199966,3.0,1.0,phase_3,,,,,770.0,5.0,308.0,462.0,616.0,154.0,770.0,924.0,cyan,hexagon
0.0,1.0,0.5,0.0,7.0,1.0,2390.958140999828,3.0,1.0,phase_3,,,,,173.0,1.0,173.0,519.0,865.0,1038.0,346.0,692.0,orange,triangle
0.0,6.0,1.0,1.0,7.0,5.0,2403.972810000596,3.0,1.0,phase_3,,,,,960.0,5.0,768.0,192.0,576.0,384.0,960.0,1152.0,yellow,circle
0.0,7.0,2.0,1.0,7.0,2.0,1860.5453720001608,3.0,1.0,phase_3,,,,,696.0,6.0,464.0,696.0,580.0,232.0,348.0,116.0,green,I
0.0,5.0,0.5,1.0,7.0,6.0,3156.9682839999587,3.0,1.0,phase_3,,,,,405.0,3.0,135.0,270.0,540.0,675.0,810.0,405.0,blue,diamond
0.0,7.0,2.0,1.0,7.0,4.0,2978.37454799992,3.0,1.0,phase_3,,,,,865.0,5.0,519.0,346.0,173.0,865.0,1038.0,692.0,green,I
0.0,4.0,4.0,0.0,7.0,4.0,2151.8726920003246,3.0,1.0,phase_3,,,,,308.0,2.0,770.0,616.0,924.0,308.0,462.0,154.0,white,cross
0.0,7.0,2.0,1.0,7.0,5.0,621.8761979998817,3.0,1.0,phase_3,,,,,768.0,4.0,576.0,1152.0,192.0,384.0,768.0,960.0,green,I
0.0,7.0,2.0,1.0,7.0,4.0,2449.7004320001,3.0,1.0,phase_3,,,,,675.0,5.0,810.0,270.0,540.0,675.0,135.0,405.0,green,I
0.0,3.0,2.0,0.0,7.0,5.0,2187.873322000087,3.0,1.0,phase_3,,,,,540.0,4.0,405.0,675.0,810.0,135.0,540.0,270.0,magenta,flipped triangle
0.0,8.0,4.0,1.0,7.0,4.0,1132.6563550001083,3.0,1.0,phase_3,,,,,348.0,3.0,580.0,116.0,232.0,348.0,696.0,464.0,cyan,hexagon
0.0,8.0,4.0,1.0,7.0,3.0,1631.4083469997058,3.0,1.0,phase_3,,,,,464.0,4.0,232.0,116.0,464.0,348.0,696.0,580.0,cyan,hexagon
0.0,5.0,0.5,1.0,7.0,5.0,2010.446590000356,3.0,1.0,phase_3,,,,,464.0,4.0,696.0,232.0,116.0,348.0,464.0,580.0,blue,diamond
0.0,6.0,1.0,1.0,7.0,2.0,1538.4164839997538,3.0,1.0,phase_3,,,,,770.0,5.0,308.0,770.0,616.0,924.0,154.0,462.0,yellow,circle
0.0,7.0,2.0,1.0,7.0,3.0,2269.642038000711,3.0,1.0,phase_3,,,,,692.0,4.0,173.0,519.0,692.0,346.0,865.0,1038.0,green,I
0.0,1.0,0.5,0.0,7.0,3.0,1130.579341000157,3.0,1.0,phase_3,,,,,464.0,4.0,116.0,232.0,464.0,696.0,348.0,580.0,orange,triangle
0.0,1.0,0.5,0.0,7.0,5.0,2807.3414580003373,3.0,1.0,phase_3,,,,,519.0,3.0,865.0,1038.0,173.0,346.0,519.0,692.0,orange,triangle
0.0,8.0,4.0,1.0,7.0,4.0,1067.4238530000366,4.0,1.0,phase_3,,,,,576.0,3.0,960.0,192.0,384.0,576.0,768.0,1152.0,cyan,hexagon
0.0,4.0,4.0,0.0,7.0,5.0,1337.013006000234,4.0,1.0,phase_3,,,,,540.0,4.0,270.0,405.0,675.0,135.0,540.0,810.0,white,cross
0.0,6.0,1.0,1.0,7.0,5.0,2437.236079000286,4.0,1.0,phase_3,,,,,696.0,6.0,464.0,232.0,116.0,580.0,696.0,348.0,yellow,circle
0.0,1.0,0.5,0.0,7.0,6.0,1393.614716999764,4.0,1.0,phase_3,,,,,810.0,6.0,270.0,675.0,135.0,540.0,405.0,810.0,orange,triangle
0.0,1.0,0.5,0.0,7.0,2.0,1890.268108999408,4.0,1.0,phase_3,,,,,770.0,5.0,308.0,770.0,154.0,616.0,924.0,462.0,orange,triangle
0.0,2.0,1.0,0.0,7.0,6.0,1947.3769799997167,4.0,1.0,phase_3,,,,,675.0,5.0,135.0,540.0,810.0,270.0,405.0,675.0,gray,square
0.0,5.0,0.5,1.0,7.0,2.0,1244.674324000698,4.0,1.0,phase_3,,,,,232.0,2.0,580.0,232.0,696.0,116.0,348.0,464.0,blue,diamond
0.0,7.0,2.0,1.0,7.0,5.0,974.3157430002613,4.0,1.0,phase_3,,,,,405.0,3.0,675.0,270.0,135.0,810.0,405.0,540.0,green,I
0.0,8.0,4.0,1.0,7.0,2.0,2451.7995940004766,4.0,1.0,phase_3,,,,,865.0,5.0,692.0,865.0,1038.0,519.0,346.0,173.0,cyan,hexagon
0.0,2.0,1.0,0.0,7.0,5.0,1121.4614419995996,4.0,1.0,phase_3,,,,,519.0,3.0,865.0,692.0,1038.0,346.0,519.0,173.0,gray,square
0.0,2.0,1.0,0.0,7.0,4.0,1076.8576989994472,4.0,1.0,phase_3,,,,,770.0,5.0,924.0,154.0,462.0,770.0,616.0,308.0,gray,square
0.0,3.0,2.0,0.0,7.0,5.0,2134.374773000673,4.0,1.0,phase_3,,,,,405.0,3.0,135.0,675.0,810.0,540.0,405.0,270.0,magenta,flipped triangle
0.0,1.0,0.5,0.0,7.0,1.0,1597.4093970007743,4.0,1.0,phase_3,,,,,1152.0,6.0,1152.0,960.0,576.0,192.0,384.0,768.0,orange,triangle
0.0,3.0,2.0,0.0,7.0,3.0,1942.1173979999369,4.0,1.0,phase_3,,,,,696.0,6.0,580.0,348.0,696.0,464.0,232.0,116.0,magenta,flipped triangle
0.0,8.0,4.0,1.0,7.0,5.0,860.0937900000645,4.0,1.0,phase_3,,,,,960.0,5.0,768.0,1152.0,384.0,576.0,960.0,192.0,cyan,hexagon
0.0,5.0,0.5,1.0,7.0,3.0,1384.262496999327,4.0,1.0,phase_3,,,,,576.0,3.0,1152.0,384.0,576.0,768.0,960.0,192.0,blue,diamond
0.0,2.0,1.0,0.0,7.0,4.0,1065.7221749997916,4.0,1.0,phase_3,,,,,692.0,4.0,1038.0,173.0,519.0,692.0,865.0,346.0,gray,square
0.0,2.0,1.0,0.0,7.0,2.0,1331.948399000794,4.0,1.0,phase_3,,,,,675.0,5.0,405.0,675.0,135.0,810.0,540.0,270.0,gray,square
0.0,3.0,2.0,0.0,7.0,4.0,1182.1799409999585,4.0,1.0,phase_3,,,,,173.0,1.0,692.0,865.0,1038.0,173.0,346.0,519.0,magenta,flipped triangle
0.0,2.0,1.0,0.0,7.0,4.0,1014.1103079995446,4.0,1.0,phase_3,,,,,192.0,1.0,576.0,768.0,960.0,192.0,384.0,1152.0,gray,square
