raw_reward_magnitude,stim_reward,stepwise_reward_magnitude,paired_with_stopping,stim_location,response,reaction_time,block,num_trial_presentations,which_phase,stop_signal_trial_type,left_SSD,right_SSD,accuracy,chosen_bidding_amount,chosen_bidding_level,possible_bid_1,possible_bid_2,possible_bid_3,possible_bid_4,possible_bid_5,possible_bid_6,color_text,shape_text
626.0,7.0,3.0,1.0,2.0,2.0,308.282824999992,1.0,1.0,phase_1,,,,,,,,,,,,,magenta,flipped triangle
317.0,2.0,2.0,0.0,2.0,2.0,277.2708699999384,1.0,1.0,phase_1,,,,,,,,,,,,,blue,hexagon
0.0,3.0,0.0,0.0,2.0,2.0,314.3307650000224,1.0,1.0,phase_1,,,,,,,,,,,,,green,triangle
637.0,3.0,3.0,0.0,4.0,4.0,350.9043130000009,1.0,1.0,phase_1,,,,,,,,,,,,,green,triangle
337.0,6.0,2.0,1.0,1.0,1.0,331.2002580000808,1.0,1.0,phase_1,,,,,,,,,,,,,orange,I
635.0,7.0,3.0,1.0,1.0,1.0,332.508286999996,1.0,1.0,phase_1,,,,,,,,,,,,,magenta,flipped triangle
318.0,6.0,2.0,1.0,3.0,3.0,377.8983260000359,1.0,1.0,phase_1,,,,,,,,,,,,,orange,I
164.0,1.0,1.0,0.0,3.0,3.0,311.9538530000909,1.0,1.0,phase_1,,,,,,,,,,,,,yellow,circle
1294.0,8.0,4.0,1.0,3.0,3.0,258.7274680000746,1.0,1.0,phase_1,,,,,,,,,,,,,white,square
155.0,1.0,1.0,0.0,1.0,1.0,433.7340160000167,1.0,2.0,phase_1,,,,,,,,,,,,,yellow,circle
165.0,1.0,1.0,0.0,3.0,3.0,304.4666129999314,1.0,1.0,phase_1,,,,,,,,,,,,,yellow,circle
1310.0,8.0,4.0,1.0,3.0,3.0,396.1516450000317,1.0,1.0,phase_1,,,,,,,,,,,,,white,square
667.0,7.0,3.0,1.0,1.0,1.0,341.0291029999825,1.0,1.0,phase_1,,,,,,,,,,,,,magenta,flipped triangle
648.0,3.0,3.0,0.0,4.0,4.0,285.4699829999845,1.0,1.0,phase_1,,,,,,,,,,,,,green,triangle
0.0,4.0,0.0,0.0,2.0,2.0,331.4329380000345,1.0,1.0,phase_1,,,,,,,,,,,,,gray,diamond
348.0,2.0,2.0,0.0,1.0,1.0,276.4784820000159,1.0,1.0,phase_1,,,,,,,,,,,,,blue,hexagon
1291.0,8.0,4.0,1.0,4.0,4.0,277.0293370000445,1.0,1.0,phase_1,,,,,,,,,,,,,white,square
1320.0,4.0,4.0,0.0,4.0,4.0,277.3183479999943,1.0,2.0,phase_1,,,,,,,,,,,,,gray,diamond
1294.0,8.0,4.0,1.0,1.0,1.0,331.3921799999662,1.0,1.0,phase_1,,,,,,,,,,,,,white,square
321.0,6.0,2.0,1.0,2.0,2.0,341.1493090000022,1.0,1.0,phase_1,,,,,,,,,,,,,orange,I
1288.0,8.0,4.0,1.0,2.0,2.0,337.7704619999804,1.0,1.0,phase_1,,,,,,,,,,,,,white,square
630.0,7.0,3.0,1.0,1.0,1.0,304.777151000053,1.0,1.0,phase_1,,,,,,,,,,,,,magenta,flipped triangle
163.0,1.0,1.0,0.0,3.0,3.0,276.4378640000586,1.0,1.0,phase_1,,,,,,,,,,,,,yellow,circle
0.0,1.0,0.0,0.0,1.0,1.0,367.7400870000156,1.0,1.0,phase_1,,,,,,,,,,,,,yellow,circle
326.0,2.0,2.0,0.0,4.0,4.0,349.1497930000378,1.0,1.0,phase_1,,,,,,,,,,,,,blue,hexagon
142.0,5.0,1.0,1.0,4.0,4.0,322.3952880000524,1.0,1.0,phase_1,,,,,,,,,,,,,cyan,cross
630.0,3.0,3.0,0.0,2.0,2.0,396.1002369999278,1.0,1.0,phase_1,,,,,,,,,,,,,green,triangle
673.0,3.0,3.0,0.0,1.0,1.0,304.3700819999912,1.0,1.0,phase_1,,,,,,,,,,,,,green,triangle
644.0,7.0,3.0,1.0,2.0,2.0,294.3483909999713,1.0,1.0,phase_1,,,,,,,,,,,,,magenta,flipped triangle
1305.0,8.0,4.0,1.0,3.0,3.0,350.1779890000307,1.0,1.0,phase_1,,,,,,,,,,,,,white,square
675.0,7.0,3.0,1.0,1.0,1.0,239.2964199999596,1.0,1.0,phase_1,,,,,,,,,,,,,magenta,flipped triangle
0.0,1.0,0.0,0.0,3.0,3.0,313.6980140000105,1.0,1.0,phase_1,,,,,,,,,,,,,yellow,circle
145.0,5.0,1.0,1.0,3.0,3.0,313.3830760000364,1.0,1.0,phase_1,,,,,,,,,,,,,cyan,cross
1305.0,4.0,4.0,0.0,3.0,3.0,349.6257280000918,1.0,1.0,phase_1,,,,,,,,,,,,,gray,diamond
0.0,1.0,0.0,0.0,1.0,1.0,385.9109800000624,1.0,1.0,phase_1,,,,,,,,,,,,,yellow,circle
329.0,6.0,2.0,1.0,4.0,4.0,331.139142999973,1.0,1.0,phase_1,,,,,,,,,,,,,orange,I
659.0,7.0,3.0,1.0,3.0,3.0,321.1137880000478,1.0,1.0,phase_1,,,,,,,,,,,,,magenta,flipped triangle
0.0,5.0,0.0,1.0,2.0,2.0,298.8926109999283,1.0,1.0,phase_1,,,,,,,,,,,,,cyan,cross
175.0,5.0,1.0,1.0,3.0,3.0,270.4496750000089,1.0,1.0,phase_1,,,,,,,,,,,,,cyan,cross
0.0,7.0,0.0,1.0,2.0,2.0,276.9957819999717,1.0,1.0,phase_1,,,,,,,,,,,,,magenta,flipped triangle
179.0,1.0,1.0,0.0,3.0,3.0,275.7828500000414,1.0,1.0,phase_1,,,,,,,,,,,,,yellow,circle
1291.0,8.0,4.0,1.0,3.0,3.0,267.1156590000691,1.0,1.0,phase_1,,,,,,,,,,,,,white,square
149.0,5.0,1.0,1.0,1.0,1.0,248.928636999949,1.0,1.0,phase_1,,,,,,,,,,,,,cyan,cross
636.0,3.0,3.0,0.0,3.0,3.0,312.4647340000592,1.0,1.0,phase_1,,,,,,,,,,,,,green,triangle
1283.0,4.0,4.0,0.0,1.0,1.0,349.1320829999722,1.0,1.0,phase_1,,,,,,,,,,,,,gray,diamond
675.0,3.0,3.0,0.0,4.0,4.0,376.3153259999399,1.0,1.0,phase_1,,,,,,,,,,,,,green,triangle
186.0,5.0,1.0,1.0,2.0,2.0,267.1976949999362,1.0,1.0,phase_1,,,,,,,,,,,,,cyan,cross
634.0,7.0,3.0,1.0,3.0,3.0,275.7597150000492,1.0,1.0,phase_1,,,,,,,,,,,,,magenta,flipped triangle
150.0,1.0,1.0,0.0,1.0,1.0,275.7178780000231,1.0,1.0,phase_1,,,,,,,,,,,,,yellow,circle
0.0,6.0,0.0,1.0,1.0,1.0,312.4641730000803,1.0,1.0,phase_1,,,,,,,,,,,,,orange,I
320.0,6.0,2.0,1.0,2.0,2.0,331.6145569999662,1.0,1.0,phase_1,,,,,,,,,,,,,orange,I
173.0,5.0,1.0,1.0,1.0,1.0,322.1788070000002,1.0,1.0,phase_1,,,,,,,,,,,,,cyan,cross
0.0,4.0,0.0,0.0,2.0,2.0,386.8849809999801,1.0,2.0,phase_1,,,,,,,,,,,,,gray,diamond
176.0,5.0,1.0,1.0,2.0,2.0,294.9261499999238,1.0,1.0,phase_1,,,,,,,,,,,,,cyan,cross
140.0,5.0,1.0,1.0,2.0,2.0,304.8779979999381,1.0,1.0,phase_1,,,,,,,,,,,,,cyan,cross
332.0,6.0,2.0,1.0,3.0,3.0,440.7576419999941,1.0,1.0,phase_1,,,,,,,,,,,,,orange,I
0.0,6.0,0.0,1.0,2.0,2.0,387.065767000081,1.0,1.0,phase_1,,,,,,,,,,,,,orange,I
170.0,5.0,1.0,1.0,3.0,3.0,367.2161709999955,1.0,1.0,phase_1,,,,,,,,,,,,,cyan,cross
330.0,2.0,2.0,0.0,2.0,2.0,368.5381660000075,1.0,1.0,phase_1,,,,,,,,,,,,,blue,hexagon
149.0,1.0,1.0,0.0,2.0,2.0,285.6030460000056,1.0,1.0,phase_1,,,,,,,,,,,,,yellow,circle
0.0,2.0,0.0,0.0,1.0,1.0,322.8266690000509,1.0,1.0,phase_1,,,,,,,,,,,,,blue,hexagon
1320.0,4.0,4.0,0.0,2.0,2.0,341.1412099999324,1.0,1.0,phase_1,,,,,,,,,,,,,gray,diamond
641.0,3.0,3.0,0.0,3.0,3.0,331.2902469999699,1.0,1.0,phase_1,,,,,,,,,,,,,green,triangle
326.0,6.0,2.0,1.0,4.0,4.0,350.9041309999929,1.0,1.0,phase_1,,,,,,,,,,,,,orange,I
0.0,1.0,0.0,0.0,4.0,4.0,332.497238999963,1.0,1.0,phase_1,,,,,,,,,,,,,yellow,circle
0.0,7.0,0.0,1.0,3.0,3.0,332.798255000057,1.0,1.0,phase_1,,,,,,,,,,,,,magenta,flipped triangle
0.0,2.0,0.0,0.0,3.0,3.0,276.4623110000457,1.0,1.0,phase_1,,,,,,,,,,,,,blue,hexagon
1316.0,8.0,4.0,1.0,2.0,2.0,286.385626000083,1.0,1.0,phase_1,,,,,,,,,,,,,white,square
652.0,7.0,3.0,1.0,4.0,4.0,295.8620740000697,1.0,1.0,phase_1,,,,,,,,,,,,,magenta,flipped triangle
658.0,7.0,3.0,1.0,3.0,3.0,305.2384189999202,1.0,1.0,phase_1,,,,,,,,,,,,,magenta,flipped triangle
310.0,2.0,2.0,0.0,3.0,3.0,277.3227229999975,1.0,1.0,phase_1,,,,,,,,,,,,,blue,hexagon
308.0,2.0,2.0,0.0,3.0,3.0,285.5629990000352,1.0,1.0,phase_1,,,,,,,,,,,,,blue,hexagon
625.0,3.0,3.0,0.0,3.0,3.0,305.1719699999466,1.0,1.0,phase_1,,,,,,,,,,,,,green,triangle
648.0,7.0,3.0,1.0,2.0,2.0,324.8988910000889,1.0,2.0,phase_1,,,,,,,,,,,,,magenta,flipped triangle
673.0,7.0,3.0,1.0,1.0,1.0,312.9034710000269,1.0,1.0,phase_1,,,,,,,,,,,,,magenta,flipped triangle
0.0,8.0,0.0,1.0,2.0,2.0,323.5097030000133,1.0,1.0,phase_1,,,,,,,,,,,,,white,square
636.0,7.0,3.0,1.0,4.0,4.0,326.6577929999812,1.0,1.0,phase_1,,,,,,,,,,,,,magenta,flipped triangle
1285.0,8.0,4.0,1.0,3.0,3.0,386.6443859999435,1.0,1.0,phase_1,,,,,,,,,,,,,white,square
148.0,5.0,1.0,1.0,2.0,2.0,342.5808210000696,1.0,1.0,phase_1,,,,,,,,,,,,,cyan,cross
658.0,3.0,3.0,0.0,3.0,3.0,327.3326369999267,1.0,1.0,phase_1,,,,,,,,,,,,,green,triangle
0.0,1.0,0.0,0.0,3.0,3.0,312.6789220000319,1.0,1.0,phase_1,,,,,,,,,,,,,yellow,circle
181.0,1.0,1.0,0.0,2.0,2.0,286.8839160000789,1.0,1.0,phase_1,,,,,,,,,,,,,yellow,circle
154.0,1.0,1.0,0.0,1.0,1.0,369.8398599999564,1.0,1.0,phase_1,,,,,,,,,,,,,yellow,circle
1283.0,4.0,4.0,0.0,4.0,4.0,379.952731000003,1.0,1.0,phase_1,,,,,,,,,,,,,gray,diamond
1318.0,8.0,4.0,1.0,2.0,2.0,295.2129929999501,1.0,1.0,phase_1,,,,,,,,,,,,,white,square
1322.0,8.0,4.0,1.0,4.0,4.0,302.1631760000218,1.0,1.0,phase_1,,,,,,,,,,,,,white,square
0.0,4.0,0.0,0.0,1.0,1.0,281.4129199999797,1.0,1.0,phase_1,,,,,,,,,,,,,gray,diamond
1294.0,4.0,4.0,0.0,4.0,4.0,286.7948449999176,1.0,1.0,phase_1,,,,,,,,,,,,,gray,diamond
347.0,2.0,2.0,0.0,3.0,3.0,305.911748000085,1.0,1.0,phase_1,,,,,,,,,,,,,blue,hexagon
311.0,6.0,2.0,1.0,4.0,4.0,341.9557700000268,1.0,1.0,phase_1,,,,,,,,,,,,,orange,I
330.0,6.0,2.0,1.0,1.0,1.0,350.6060099999786,1.0,1.0,phase_1,,,,,,,,,,,,,orange,I
158.0,1.0,1.0,0.0,4.0,4.0,285.4548889999933,1.0,1.0,phase_1,,,,,,,,,,,,,yellow,circle
307.0,6.0,2.0,1.0,3.0,3.0,361.2642919999871,1.0,1.0,phase_1,,,,,,,,,,,,,orange,I
166.0,5.0,1.0,1.0,3.0,3.0,358.2414540001082,1.0,1.0,phase_1,,,,,,,,,,,,,cyan,cross
668.0,7.0,3.0,1.0,4.0,4.0,304.7915200000943,1.0,1.0,phase_1,,,,,,,,,,,,,magenta,flipped triangle
317.0,6.0,2.0,1.0,2.0,2.0,333.0827519999957,1.0,1.0,phase_1,,,,,,,,,,,,,orange,I
1279.0,4.0,4.0,0.0,4.0,4.0,314.0834829999903,1.0,1.0,phase_1,,,,,,,,,,,,,gray,diamond
186.0,1.0,1.0,0.0,4.0,4.0,311.5968339999426,1.0,1.0,phase_1,,,,,,,,,,,,,yellow,circle
343.0,6.0,2.0,1.0,2.0,2.0,249.3951330000072,1.0,1.0,phase_1,,,,,,,,,,,,,orange,I
0.0,5.0,0.0,1.0,3.0,3.0,331.949236000014,1.0,1.0,phase_1,,,,,,,,,,,,,cyan,cross
306.0,6.0,2.0,1.0,4.0,4.0,333.7362919999123,2.0,1.0,phase_1,,,,,,,,,,,,,orange,I
0.0,2.0,0.0,0.0,3.0,3.0,323.6138810000284,2.0,1.0,phase_1,,,,,,,,,,,,,blue,hexagon
303.0,6.0,2.0,1.0,4.0,4.0,322.4797489999673,2.0,1.0,phase_1,,,,,,,,,,,,,orange,I
649.0,7.0,3.0,1.0,2.0,2.0,305.1495619999969,2.0,1.0,phase_1,,,,,,,,,,,,,magenta,flipped triangle
1306.0,8.0,4.0,1.0,4.0,4.0,351.3217209999766,2.0,1.0,phase_1,,,,,,,,,,,,,white,square
1288.0,4.0,4.0,0.0,2.0,2.0,351.3779909999357,2.0,1.0,phase_1,,,,,,,,,,,,,gray,diamond
321.0,2.0,2.0,0.0,1.0,1.0,369.8913949999678,2.0,1.0,phase_1,,,,,,,,,,,,,blue,hexagon
0.0,8.0,0.0,1.0,1.0,1.0,544.6158500001275,2.0,1.0,phase_1,,,,,,,,,,,,,white,square
656.0,7.0,3.0,1.0,4.0,4.0,303.8951109999743,2.0,1.0,phase_1,,,,,,,,,,,,,magenta,flipped triangle
0.0,8.0,0.0,1.0,2.0,2.0,285.0966580001568,2.0,1.0,phase_1,,,,,,,,,,,,,white,square
626.0,3.0,3.0,0.0,3.0,3.0,360.3358699999717,2.0,1.0,phase_1,,,,,,,,,,,,,green,triangle
0.0,6.0,0.0,1.0,4.0,4.0,387.1636880001006,2.0,1.0,phase_1,,,,,,,,,,,,,orange,I
154.0,1.0,1.0,0.0,1.0,1.0,312.1532140000909,2.0,1.0,phase_1,,,,,,,,,,,,,yellow,circle
336.0,6.0,2.0,1.0,1.0,1.0,313.9885699999922,2.0,1.0,phase_1,,,,,,,,,,,,,orange,I
671.0,3.0,3.0,0.0,4.0,4.0,303.5240690001046,2.0,1.0,phase_1,,,,,,,,,,,,,green,triangle
153.0,1.0,1.0,0.0,4.0,4.0,359.6386540000367,2.0,1.0,phase_1,,,,,,,,,,,,,yellow,circle
1299.0,4.0,4.0,0.0,3.0,3.0,324.9423030001708,2.0,1.0,phase_1,,,,,,,,,,,,,gray,diamond
1308.0,4.0,4.0,0.0,1.0,1.0,305.4294180001307,2.0,1.0,phase_1,,,,,,,,,,,,,gray,diamond
187.0,5.0,1.0,1.0,3.0,3.0,332.5553049999143,2.0,1.0,phase_1,,,,,,,,,,,,,cyan,cross
320.0,2.0,2.0,0.0,4.0,4.0,322.365783000123,2.0,1.0,phase_1,,,,,,,,,,,,,blue,hexagon
148.0,1.0,1.0,0.0,4.0,4.0,303.7580109998998,2.0,1.0,phase_1,,,,,,,,,,,,,yellow,circle
142.0,1.0,1.0,0.0,3.0,3.0,295.1418919999469,2.0,1.0,phase_1,,,,,,,,,,,,,yellow,circle
0.0,5.0,0.0,1.0,1.0,1.0,378.7507720001031,2.0,1.0,phase_1,,,,,,,,,,,,,cyan,cross
656.0,3.0,3.0,0.0,2.0,2.0,285.6146139999964,2.0,1.0,phase_1,,,,,,,,,,,,,green,triangle
0.0,2.0,0.0,0.0,3.0,3.0,332.0234959999197,2.0,1.0,phase_1,,,,,,,,,,,,,blue,hexagon
626.0,7.0,3.0,1.0,4.0,4.0,360.308373999942,2.0,1.0,phase_1,,,,,,,,,,,,,magenta,flipped triangle
667.0,3.0,3.0,0.0,3.0,3.0,359.8121840000203,2.0,1.0,phase_1,,,,,,,,,,,,,green,triangle
651.0,3.0,3.0,0.0,2.0,2.0,295.0822979998975,2.0,1.0,phase_1,,,,,,,,,,,,,green,triangle
632.0,3.0,3.0,0.0,1.0,1.0,331.9682329999978,2.0,2.0,phase_1,,,,,,,,,,,,,green,triangle
328.0,6.0,2.0,1.0,2.0,2.0,342.9461529999571,2.0,1.0,phase_1,,,,,,,,,,,,,orange,I
650.0,7.0,3.0,1.0,4.0,4.0,370.4411630001232,2.0,1.0,phase_1,,,,,,,,,,,,,magenta,flipped triangle
1304.0,4.0,4.0,0.0,3.0,3.0,342.1102529998734,2.0,1.0,phase_1,,,,,,,,,,,,,gray,diamond
170.0,1.0,1.0,0.0,2.0,2.0,340.7996000000821,2.0,1.0,phase_1,,,,,,,,,,,,,yellow,circle
164.0,5.0,1.0,1.0,4.0,4.0,351.7809040001793,2.0,1.0,phase_1,,,,,,,,,,,,,cyan,cross
350.0,2.0,2.0,0.0,1.0,1.0,332.2290909998173,2.0,1.0,phase_1,,,,,,,,,,,,,blue,hexagon
185.0,5.0,1.0,1.0,2.0,2.0,286.0571800001708,2.0,1.0,phase_1,,,,,,,,,,,,,cyan,cross
163.0,5.0,1.0,1.0,4.0,4.0,304.6044230000007,2.0,1.0,phase_1,,,,,,,,,,,,,cyan,cross
1310.0,4.0,4.0,0.0,3.0,3.0,507.4169179999899,2.0,2.0,phase_1,,,,,,,,,,,,,gray,diamond
141.0,1.0,1.0,0.0,1.0,1.0,404.7517109997898,2.0,1.0,phase_1,,,,,,,,,,,,,yellow,circle
337.0,2.0,2.0,0.0,1.0,1.0,378.6069269999643,2.0,1.0,phase_1,,,,,,,,,,,,,blue,hexagon
1288.0,4.0,4.0,0.0,3.0,3.0,304.6348739999303,2.0,1.0,phase_1,,,,,,,,,,,,,gray,diamond
0.0,6.0,0.0,1.0,3.0,3.0,481.3421400001516,2.0,1.0,phase_1,,,,,,,,,,,,,orange,I
1297.0,4.0,4.0,0.0,2.0,2.0,377.3244809999596,2.0,1.0,phase_1,,,,,,,,,,,,,gray,diamond
0.0,4.0,0.0,0.0,2.0,2.0,333.0975540000054,2.0,1.0,phase_1,,,,,,,,,,,,,gray,diamond
0.0,7.0,0.0,1.0,1.0,1.0,326.8258329999298,2.0,1.0,phase_1,,,,,,,,,,,,,magenta,flipped triangle
671.0,7.0,3.0,1.0,1.0,1.0,379.0293550000569,2.0,1.0,phase_1,,,,,,,,,,,,,magenta,flipped triangle
175.0,1.0,1.0,0.0,4.0,4.0,369.1608789999918,2.0,1.0,phase_1,,,,,,,,,,,,,yellow,circle
0.0,7.0,0.0,1.0,3.0,3.0,425.8485569998811,2.0,1.0,phase_1,,,,,,,,,,,,,magenta,flipped triangle
635.0,3.0,3.0,0.0,2.0,2.0,278.4584449998419,2.0,1.0,phase_1,,,,,,,,,,,,,green,triangle
1291.0,4.0,4.0,0.0,4.0,4.0,341.782141000067,2.0,1.0,phase_1,,,,,,,,,,,,,gray,diamond
1316.0,4.0,4.0,0.0,2.0,2.0,432.5970479999341,2.0,1.0,phase_1,,,,,,,,,,,,,gray,diamond
343.0,6.0,2.0,1.0,3.0,3.0,395.4560950000996,2.0,1.0,phase_1,,,,,,,,,,,,,orange,I
317.0,2.0,2.0,0.0,3.0,3.0,341.2342410001656,2.0,1.0,phase_1,,,,,,,,,,,,,blue,hexagon
0.0,3.0,0.0,0.0,2.0,2.0,266.8210839999574,2.0,1.0,phase_1,,,,,,,,,,,,,green,triangle
0.0,8.0,0.0,1.0,2.0,2.0,294.9429170000712,2.0,1.0,phase_1,,,,,,,,,,,,,white,square
172.0,5.0,1.0,1.0,3.0,3.0,331.9343939999726,2.0,1.0,phase_1,,,,,,,,,,,,,cyan,cross
0.0,1.0,0.0,0.0,3.0,3.0,378.1165499999588,2.0,1.0,phase_1,,,,,,,,,,,,,yellow,circle
142.0,1.0,1.0,0.0,1.0,1.0,599.9275330000273,2.0,1.0,phase_1,,,,,,,,,,,,,yellow,circle
181.0,5.0,1.0,1.0,4.0,4.0,359.4552939998721,2.0,1.0,phase_1,,,,,,,,,,,,,cyan,cross
663.0,3.0,3.0,0.0,1.0,1.0,331.9671619999553,2.0,1.0,phase_1,,,,,,,,,,,,,green,triangle
322.0,2.0,2.0,0.0,3.0,3.0,441.5444359999583,2.0,1.0,phase_1,,,,,,,,,,,,,blue,hexagon
1285.0,4.0,4.0,0.0,2.0,2.0,323.145328999999,2.0,1.0,phase_1,,,,,,,,,,,,,gray,diamond
343.0,6.0,2.0,1.0,3.0,3.0,359.1901170000255,2.0,1.0,phase_1,,,,,,,,,,,,,orange,I
329.0,2.0,2.0,0.0,4.0,4.0,370.1537790000202,2.0,1.0,phase_1,,,,,,,,,,,,,blue,hexagon
0.0,3.0,0.0,0.0,1.0,1.0,319.2108409998582,2.0,1.0,phase_1,,,,,,,,,,,,,green,triangle
625.0,3.0,3.0,0.0,4.0,4.0,331.8943780000154,2.0,1.0,phase_1,,,,,,,,,,,,,green,triangle
343.0,2.0,2.0,0.0,4.0,4.0,424.2896369999016,2.0,1.0,phase_1,,,,,,,,,,,,,blue,hexagon
176.0,1.0,1.0,0.0,2.0,2.0,434.5902830000341,2.0,1.0,phase_1,,,,,,,,,,,,,yellow,circle
658.0,7.0,3.0,1.0,1.0,1.0,368.7897599997995,2.0,1.0,phase_1,,,,,,,,,,,,,magenta,flipped triangle
659.0,3.0,3.0,0.0,2.0,2.0,362.1717150001586,2.0,1.0,phase_1,,,,,,,,,,,,,green,triangle
634.0,3.0,3.0,0.0,1.0,1.0,295.3960519998873,2.0,1.0,phase_1,,,,,,,,,,,,,green,triangle
318.0,2.0,2.0,0.0,3.0,3.0,699.4960009999431,2.0,1.0,phase_1,,,,,,,,,,,,,blue,hexagon
318.0,2.0,2.0,0.0,3.0,3.0,406.414322000046,2.0,1.0,phase_1,,,,,,,,,,,,,blue,hexagon
187.0,1.0,1.0,0.0,1.0,1.0,469.8609200002011,2.0,1.0,phase_1,,,,,,,,,,,,,yellow,circle
333.0,6.0,2.0,1.0,1.0,1.0,323.2184629998755,2.0,1.0,phase_1,,,,,,,,,,,,,orange,I
337.0,6.0,2.0,1.0,2.0,2.0,285.5184459999691,2.0,1.0,phase_1,,,,,,,,,,,,,orange,I
635.0,3.0,3.0,0.0,3.0,3.0,487.8969860001234,2.0,1.0,phase_1,,,,,,,,,,,,,green,triangle
332.0,2.0,2.0,0.0,3.0,3.0,368.1660070001271,2.0,1.0,phase_1,,,,,,,,,,,,,blue,hexagon
1306.0,4.0,4.0,0.0,1.0,1.0,322.5703600000997,2.0,1.0,phase_1,,,,,,,,,,,,,gray,diamond
308.0,6.0,2.0,1.0,1.0,1.0,413.563110999803,2.0,1.0,phase_1,,,,,,,,,,,,,orange,I
0.0,5.0,0.0,1.0,3.0,3.0,405.2579260001039,2.0,1.0,phase_1,,,,,,,,,,,,,cyan,cross
0.0,1.0,0.0,0.0,4.0,4.0,304.0754409998953,2.0,1.0,phase_1,,,,,,,,,,,,,yellow,circle
1323.0,8.0,4.0,1.0,1.0,1.0,370.714463000013,2.0,1.0,phase_1,,,,,,,,,,,,,white,square
1294.0,4.0,4.0,0.0,1.0,1.0,349.9931079998077,2.0,1.0,phase_1,,,,,,,,,,,,,gray,diamond
337.0,2.0,2.0,0.0,2.0,2.0,442.2795079999559,2.0,2.0,phase_1,,,,,,,,,,,,,blue,hexagon
1288.0,4.0,4.0,0.0,1.0,1.0,359.1869929998665,2.0,1.0,phase_1,,,,,,,,,,,,,gray,diamond
641.0,7.0,3.0,1.0,3.0,3.0,361.6775120001421,2.0,1.0,phase_1,,,,,,,,,,,,,magenta,flipped triangle
160.0,1.0,1.0,0.0,1.0,1.0,423.9784389999386,2.0,1.0,phase_1,,,,,,,,,,,,,yellow,circle
175.0,1.0,1.0,0.0,3.0,3.0,295.0404059999982,2.0,1.0,phase_1,,,,,,,,,,,,,yellow,circle
142.0,5.0,1.0,1.0,1.0,1.0,395.3115689998867,2.0,1.0,phase_1,,,,,,,,,,,,,cyan,cross
0.0,8.0,0.0,1.0,2.0,2.0,313.5143279998829,2.0,1.0,phase_1,,,,,,,,,,,,,white,square
663.0,7.0,3.0,1.0,4.0,4.0,332.1434179999869,2.0,1.0,phase_1,,,,,,,,,,,,,magenta,flipped triangle
0.0,2.0,0.0,0.0,4.0,4.0,358.9103739998336,2.0,1.0,phase_1,,,,,,,,,,,,,blue,hexagon
163.0,1.0,1.0,0.0,1.0,1.0,350.4329710001457,2.0,1.0,phase_1,,,,,,,,,,,,,yellow,circle
348.0,6.0,2.0,1.0,2.0,2.0,358.7547940001059,2.0,1.0,phase_1,,,,,,,,,,,,,orange,I
0.0,6.0,0.0,1.0,4.0,4.0,331.3678869999421,2.0,1.0,phase_1,,,,,,,,,,,,,orange,I
154.0,5.0,1.0,1.0,1.0,1.0,331.4464019999832,2.0,1.0,phase_1,,,,,,,,,,,,,cyan,cross
1305.0,8.0,4.0,1.0,3.0,3.0,350.6767860001218,2.0,1.0,phase_1,,,,,,,,,,,,,white,square
317.0,6.0,2.0,1.0,4.0,4.0,395.8561940000891,2.0,1.0,phase_1,,,,,,,,,,,,,orange,I
0.0,8.0,0.0,1.0,1.0,1.0,387.6893910000945,2.0,1.0,phase_1,,,,,,,,,,,,,white,square
0.0,3.0,0.0,0.0,1.0,1.0,313.3885460001693,3.0,1.0,phase_1,,,,,,,,,,,,,green,triangle
165.0,1.0,1.0,0.0,4.0,4.0,404.4869059998746,3.0,1.0,phase_1,,,,,,,,,,,,,yellow,circle
314.0,6.0,2.0,1.0,1.0,1.0,341.3004270000783,3.0,1.0,phase_1,,,,,,,,,,,,,orange,I
0.0,7.0,0.0,1.0,2.0,2.0,312.9135570000017,3.0,1.0,phase_1,,,,,,,,,,,,,magenta,flipped triangle
671.0,7.0,3.0,1.0,3.0,3.0,293.081635000135,3.0,1.0,phase_1,,,,,,,,,,,,,magenta,flipped triangle
1284.0,8.0,4.0,1.0,1.0,1.0,323.5458210001525,3.0,1.0,phase_1,,,,,,,,,,,,,white,square
642.0,7.0,3.0,1.0,1.0,1.0,424.2778279999584,3.0,1.0,phase_1,,,,,,,,,,,,,magenta,flipped triangle
1322.0,8.0,4.0,1.0,1.0,1.0,386.699328999839,3.0,1.0,phase_1,,,,,,,,,,,,,white,square
326.0,2.0,2.0,0.0,2.0,2.0,303.4736749998501,3.0,1.0,phase_1,,,,,,,,,,,,,blue,hexagon
1321.0,8.0,4.0,1.0,1.0,1.0,285.8345219999592,3.0,1.0,phase_1,,,,,,,,,,,,,white,square
644.0,3.0,3.0,0.0,4.0,4.0,349.8082579999391,3.0,1.0,phase_1,,,,,,,,,,,,,green,triangle
1320.0,8.0,4.0,1.0,1.0,1.0,330.6575760000214,3.0,1.0,phase_1,,,,,,,,,,,,,white,square
1305.0,4.0,4.0,0.0,1.0,1.0,387.4444589998802,3.0,1.0,phase_1,,,,,,,,,,,,,gray,diamond
659.0,3.0,3.0,0.0,4.0,4.0,453.2587480000529,3.0,1.0,phase_1,,,,,,,,,,,,,green,triangle
138.0,5.0,1.0,1.0,2.0,2.0,378.534314000035,3.0,1.0,phase_1,,,,,,,,,,,,,cyan,cross
179.0,1.0,1.0,0.0,2.0,2.0,342.4533069999143,3.0,1.0,phase_1,,,,,,,,,,,,,yellow,circle
332.0,2.0,2.0,0.0,4.0,4.0,295.4713290000654,3.0,1.0,phase_1,,,,,,,,,,,,,blue,hexagon
303.0,2.0,2.0,0.0,4.0,4.0,414.1227369998432,3.0,1.0,phase_1,,,,,,,,,,,,,blue,hexagon
165.0,5.0,1.0,1.0,1.0,1.0,533.5049330001311,3.0,1.0,phase_1,,,,,,,,,,,,,cyan,cross
0.0,8.0,0.0,1.0,1.0,1.0,424.7416759999396,3.0,1.0,phase_1,,,,,,,,,,,,,white,square
308.0,6.0,2.0,1.0,3.0,3.0,350.5877539998892,3.0,1.0,phase_1,,,,,,,,,,,,,orange,I
163.0,5.0,1.0,1.0,4.0,4.0,351.112071999978,3.0,1.0,phase_1,,,,,,,,,,,,,cyan,cross
303.0,2.0,2.0,0.0,4.0,4.0,341.6360389999227,3.0,1.0,phase_1,,,,,,,,,,,,,blue,hexagon
0.0,7.0,0.0,1.0,3.0,3.0,321.9909500000995,3.0,1.0,phase_1,,,,,,,,,,,,,magenta,flipped triangle
635.0,7.0,3.0,1.0,3.0,3.0,285.9458740001628,3.0,1.0,phase_1,,,,,,,,,,,,,magenta,flipped triangle
0.0,4.0,0.0,0.0,3.0,3.0,249.7838930000853,3.0,1.0,phase_1,,,,,,,,,,,,,gray,diamond
0.0,7.0,0.0,1.0,1.0,1.0,314.2699429999993,3.0,1.0,phase_1,,,,,,,,,,,,,magenta,flipped triangle
0.0,3.0,0.0,0.0,3.0,3.0,322.1943339999598,3.0,1.0,phase_1,,,,,,,,,,,,,green,triangle
1299.0,8.0,4.0,1.0,4.0,4.0,286.4647760000025,3.0,1.0,phase_1,,,,,,,,,,,,,white,square
1288.0,8.0,4.0,1.0,4.0,4.0,368.6190839998744,3.0,1.0,phase_1,,,,,,,,,,,,,white,square
153.0,5.0,1.0,1.0,2.0,2.0,396.2444979999873,3.0,1.0,phase_1,,,,,,,,,,,,,cyan,cross
0.0,3.0,0.0,0.0,1.0,1.0,339.4942939999055,3.0,1.0,phase_1,,,,,,,,,,,,,green,triangle
625.0,7.0,3.0,1.0,1.0,1.0,404.4940750000023,3.0,1.0,phase_1,,,,,,,,,,,,,magenta,flipped triangle
340.0,6.0,2.0,1.0,3.0,3.0,295.6228389998614,3.0,1.0,phase_1,,,,,,,,,,,,,orange,I
0.0,4.0,0.0,0.0,3.0,3.0,349.8657139998613,3.0,1.0,phase_1,,,,,,,,,,,,,gray,diamond
1312.0,4.0,4.0,0.0,3.0,3.0,335.7071969999197,3.0,1.0,phase_1,,,,,,,,,,,,,gray,diamond
326.0,6.0,2.0,1.0,4.0,4.0,413.7231540000812,3.0,1.0,phase_1,,,,,,,,,,,,,orange,I
151.0,5.0,1.0,1.0,1.0,1.0,257.1577229998638,3.0,1.0,phase_1,,,,,,,,,,,,,cyan,cross
653.0,3.0,3.0,0.0,3.0,3.0,285.2645030000076,3.0,1.0,phase_1,,,,,,,,,,,,,green,triangle
175.0,5.0,1.0,1.0,2.0,2.0,313.2870009999351,3.0,1.0,phase_1,,,,,,,,,,,,,cyan,cross
648.0,3.0,3.0,0.0,1.0,1.0,386.09074399983,3.0,1.0,phase_1,,,,,,,,,,,,,green,triangle
1308.0,8.0,4.0,1.0,2.0,2.0,305.0461580000956,3.0,1.0,phase_1,,,,,,,,,,,,,white,square
170.0,5.0,1.0,1.0,3.0,3.0,368.5286560000804,3.0,1.0,phase_1,,,,,,,,,,,,,cyan,cross
1299.0,4.0,4.0,0.0,1.0,1.0,314.2597569999452,3.0,1.0,phase_1,,,,,,,,,,,,,gray,diamond
155.0,5.0,1.0,1.0,3.0,3.0,312.5875729999734,3.0,1.0,phase_1,,,,,,,,,,,,,cyan,cross
0.0,5.0,0.0,1.0,4.0,4.0,331.543419999889,3.0,1.0,phase_1,,,,,,,,,,,,,cyan,cross
0.0,4.0,0.0,0.0,2.0,2.0,267.8053490001275,3.0,1.0,phase_1,,,,,,,,,,,,,gray,diamond
625.0,7.0,3.0,1.0,2.0,2.0,332.514399000047,3.0,2.0,phase_1,,,,,,,,,,,,,magenta,flipped triangle
172.0,1.0,1.0,0.0,2.0,2.0,340.3387490000114,3.0,1.0,phase_1,,,,,,,,,,,,,yellow,circle
1276.0,4.0,4.0,0.0,1.0,1.0,388.5841769999842,3.0,1.0,phase_1,,,,,,,,,,,,,gray,diamond
317.0,6.0,2.0,1.0,4.0,4.0,443.4010790000684,3.0,1.0,phase_1,,,,,,,,,,,,,orange,I
651.0,7.0,3.0,1.0,4.0,4.0,388.9817909998783,3.0,1.0,phase_1,,,,,,,,,,,,,magenta,flipped triangle
1282.0,4.0,4.0,0.0,1.0,1.0,371.0451760000524,3.0,1.0,phase_1,,,,,,,,,,,,,gray,diamond
0.0,6.0,0.0,1.0,4.0,4.0,342.3755399999209,3.0,1.0,phase_1,,,,,,,,,,,,,orange,I
1283.0,8.0,4.0,1.0,1.0,1.0,361.3907809999546,3.0,1.0,phase_1,,,,,,,,,,,,,white,square
0.0,2.0,0.0,0.0,4.0,4.0,414.910731999953,3.0,1.0,phase_1,,,,,,,,,,,,,blue,hexagon
341.0,6.0,2.0,1.0,2.0,2.0,340.1419580000038,3.0,1.0,phase_1,,,,,,,,,,,,,orange,I
1288.0,8.0,4.0,1.0,2.0,2.0,396.7982290000691,3.0,1.0,phase_1,,,,,,,,,,,,,white,square
659.0,7.0,3.0,1.0,1.0,1.0,268.0748390000644,3.0,1.0,phase_1,,,,,,,,,,,,,magenta,flipped triangle
312.0,6.0,2.0,1.0,4.0,4.0,324.1891529999066,3.0,1.0,phase_1,,,,,,,,,,,,,orange,I
306.0,2.0,2.0,0.0,4.0,4.0,405.0883920001524,3.0,1.0,phase_1,,,,,,,,,,,,,blue,hexagon
661.0,3.0,3.0,0.0,1.0,1.0,304.0940490000139,3.0,1.0,phase_1,,,,,,,,,,,,,green,triangle
0.0,2.0,0.0,0.0,2.0,2.0,331.537303999994,3.0,1.0,phase_1,,,,,,,,,,,,,blue,hexagon
340.0,2.0,2.0,0.0,2.0,2.0,766.0645890000524,3.0,1.0,phase_1,,,,,,,,,,,,,blue,hexagon
160.0,5.0,1.0,1.0,4.0,4.0,386.7926059999718,3.0,1.0,phase_1,,,,,,,,,,,,,cyan,cross
150.0,5.0,1.0,1.0,1.0,1.0,303.718814999911,3.0,1.0,phase_1,,,,,,,,,,,,,cyan,cross
642.0,3.0,3.0,0.0,4.0,4.0,361.0830060001717,3.0,1.0,phase_1,,,,,,,,,,,,,green,triangle
1322.0,4.0,4.0,0.0,4.0,4.0,397.0445549998658,3.0,1.0,phase_1,,,,,,,,,,,,,gray,diamond
1312.0,8.0,4.0,1.0,3.0,3.0,561.703161999958,3.0,1.0,phase_1,,,,,,,,,,,,,white,square
0.0,1.0,0.0,0.0,1.0,1.0,322.4592930000654,3.0,1.0,phase_1,,,,,,,,,,,,,yellow,circle
1282.0,8.0,4.0,1.0,3.0,3.0,323.2578869999543,3.0,1.0,phase_1,,,,,,,,,,,,,white,square
336.0,2.0,2.0,0.0,3.0,3.0,368.3698900001673,3.0,1.0,phase_1,,,,,,,,,,,,,blue,hexagon
657.0,3.0,3.0,0.0,2.0,2.0,295.6878439999855,3.0,1.0,phase_1,,,,,,,,,,,,,green,triangle
320.0,2.0,2.0,0.0,2.0,2.0,341.8933000000379,3.0,1.0,phase_1,,,,,,,,,,,,,blue,hexagon
350.0,6.0,2.0,1.0,3.0,3.0,341.4271179999559,3.0,1.0,phase_1,,,,,,,,,,,,,orange,I
1311.0,8.0,4.0,1.0,1.0,1.0,397.2934010000699,3.0,1.0,phase_1,,,,,,,,,,,,,white,square
337.0,2.0,2.0,0.0,2.0,2.0,414.1113420000692,3.0,1.0,phase_1,,,,,,,,,,,,,blue,hexagon
1298.0,4.0,4.0,0.0,2.0,2.0,359.5684580000124,3.0,1.0,phase_1,,,,,,,,,,,,,gray,diamond
1283.0,8.0,4.0,1.0,3.0,3.0,349.518321000005,3.0,1.0,phase_1,,,,,,,,,,,,,white,square
347.0,6.0,2.0,1.0,3.0,3.0,322.161154000014,3.0,1.0,phase_1,,,,,,,,,,,,,orange,I
343.0,2.0,2.0,0.0,3.0,3.0,405.3381169999284,3.0,1.0,phase_1,,,,,,,,,,,,,blue,hexagon
0.0,6.0,0.0,1.0,2.0,2.0,313.6087739999311,3.0,1.0,phase_1,,,,,,,,,,,,,orange,I
0.0,5.0,0.0,1.0,1.0,1.0,378.5554380001485,3.0,1.0,phase_1,,,,,,,,,,,,,cyan,cross
0.0,1.0,0.0,0.0,3.0,3.0,342.2884730000533,3.0,1.0,phase_1,,,,,,,,,,,,,yellow,circle
1321.0,4.0,4.0,0.0,2.0,2.0,314.7504859998662,3.0,1.0,phase_1,,,,,,,,,,,,,gray,diamond
328.0,2.0,2.0,0.0,4.0,4.0,313.0318769999576,3.0,1.0,phase_1,,,,,,,,,,,,,blue,hexagon
0.0,6.0,0.0,1.0,2.0,2.0,276.9088989998636,3.0,1.0,phase_1,,,,,,,,,,,,,orange,I
1300.0,4.0,4.0,0.0,4.0,4.0,368.6679750001076,3.0,1.0,phase_1,,,,,,,,,,,,,gray,diamond
1300.0,8.0,4.0,1.0,2.0,2.0,295.2422649998425,3.0,1.0,phase_1,,,,,,,,,,,,,white,square
173.0,1.0,1.0,0.0,3.0,3.0,423.9749799999117,3.0,1.0,phase_1,,,,,,,,,,,,,yellow,circle
653.0,7.0,3.0,1.0,3.0,3.0,340.5355529998815,3.0,1.0,phase_1,,,,,,,,,,,,,magenta,flipped triangle
318.0,6.0,2.0,1.0,1.0,1.0,358.8134599999648,3.0,1.0,phase_1,,,,,,,,,,,,,orange,I
169.0,1.0,1.0,0.0,3.0,3.0,314.3851590000395,3.0,1.0,phase_1,,,,,,,,,,,,,yellow,circle
661.0,7.0,3.0,1.0,2.0,2.0,340.1588260001063,3.0,1.0,phase_1,,,,,,,,,,,,,magenta,flipped triangle
1279.0,8.0,4.0,1.0,4.0,4.0,341.5273900000102,3.0,1.0,phase_1,,,,,,,,,,,,,white,square
1299.0,8.0,4.0,1.0,4.0,4.0,322.9889259998799,3.0,1.0,phase_1,,,,,,,,,,,,,white,square
1322.0,4.0,4.0,0.0,1.0,1.0,304.2425779999576,3.0,1.0,phase_1,,,,,,,,,,,,,gray,diamond
1318.0,4.0,4.0,0.0,3.0,3.0,304.6126599999752,3.0,1.0,phase_1,,,,,,,,,,,,,gray,diamond
1282.0,8.0,4.0,1.0,2.0,2.0,267.1956630001659,3.0,1.0,phase_1,,,,,,,,,,,,,white,square
0.0,2.0,0.0,0.0,4.0,4.0,267.15936100004,3.0,1.0,phase_1,,,,,,,,,,,,,blue,hexagon
641.0,3.0,3.0,0.0,1.0,1.0,314.1309630000251,4.0,1.0,phase_1,,,,,,,,,,,,,green,triangle
1282.0,4.0,4.0,0.0,2.0,2.0,248.928954999883,4.0,1.0,phase_1,,,,,,,,,,,,,gray,diamond
186.0,5.0,1.0,1.0,3.0,3.0,371.0774040000615,4.0,1.0,phase_1,,,,,,,,,,,,,cyan,cross
658.0,3.0,3.0,0.0,3.0,3.0,341.9939799998701,4.0,1.0,phase_1,,,,,,,,,,,,,green,triangle
0.0,3.0,0.0,0.0,3.0,3.0,295.2149269999609,4.0,1.0,phase_1,,,,,,,,,,,,,green,triangle
637.0,7.0,3.0,1.0,2.0,2.0,278.3423989999392,4.0,1.0,phase_1,,,,,,,,,,,,,magenta,flipped triangle
654.0,3.0,3.0,0.0,3.0,3.0,296.2751430000025,4.0,1.0,phase_1,,,,,,,,,,,,,green,triangle
0.0,5.0,0.0,1.0,1.0,1.0,368.5254619999796,4.0,1.0,phase_1,,,,,,,,,,,,,cyan,cross
1282.0,4.0,4.0,0.0,4.0,4.0,313.4140709998974,4.0,1.0,phase_1,,,,,,,,,,,,,gray,diamond
1308.0,4.0,4.0,0.0,2.0,2.0,270.792763999907,4.0,1.0,phase_1,,,,,,,,,,,,,gray,diamond
1320.0,8.0,4.0,1.0,2.0,2.0,258.1675189999259,4.0,1.0,phase_1,,,,,,,,,,,,,white,square
0.0,4.0,0.0,0.0,3.0,3.0,471.2277959999937,4.0,1.0,phase_1,,,,,,,,,,,,,gray,diamond
0.0,4.0,0.0,0.0,1.0,1.0,305.8292830000937,4.0,1.0,phase_1,,,,,,,,,,,,,gray,diamond
654.0,7.0,3.0,1.0,3.0,3.0,277.4703530001261,4.0,1.0,phase_1,,,,,,,,,,,,,magenta,flipped triangle
303.0,6.0,2.0,1.0,2.0,2.0,286.1826910000218,4.0,1.0,phase_1,,,,,,,,,,,,,orange,I
138.0,1.0,1.0,0.0,4.0,4.0,313.4359529999528,4.0,1.0,phase_1,,,,,,,,,,,,,yellow,circle
311.0,2.0,2.0,0.0,1.0,1.0,285.9749110000393,4.0,1.0,phase_1,,,,,,,,,,,,,blue,hexagon
145.0,1.0,1.0,0.0,2.0,2.0,286.0287230000722,4.0,1.0,phase_1,,,,,,,,,,,,,yellow,circle
0.0,8.0,0.0,1.0,1.0,1.0,350.2680500000679,4.0,1.0,phase_1,,,,,,,,,,,,,white,square
0.0,5.0,0.0,1.0,3.0,3.0,313.5106239999459,4.0,1.0,phase_1,,,,,,,,,,,,,cyan,cross
1298.0,8.0,4.0,1.0,2.0,2.0,275.7255530000293,4.0,1.0,phase_1,,,,,,,,,,,,,white,square
0.0,6.0,0.0,1.0,4.0,4.0,395.7283839999945,4.0,1.0,phase_1,,,,,,,,,,,,,orange,I
1284.0,4.0,4.0,0.0,3.0,3.0,343.6848750000081,4.0,1.0,phase_1,,,,,,,,,,,,,gray,diamond
186.0,1.0,1.0,0.0,4.0,4.0,350.1639450000766,4.0,1.0,phase_1,,,,,,,,,,,,,yellow,circle
169.0,5.0,1.0,1.0,4.0,4.0,350.4354799999873,4.0,1.0,phase_1,,,,,,,,,,,,,cyan,cross
0.0,3.0,0.0,0.0,1.0,1.0,358.9490040001237,4.0,1.0,phase_1,,,,,,,,,,,,,green,triangle
333.0,2.0,2.0,0.0,2.0,2.0,349.5998579999195,4.0,1.0,phase_1,,,,,,,,,,,,,blue,hexagon
1318.0,8.0,4.0,1.0,4.0,4.0,316.173734999893,4.0,1.0,phase_1,,,,,,,,,,,,,white,square
1297.0,8.0,4.0,1.0,1.0,1.0,403.9954639999905,4.0,1.0,phase_1,,,,,,,,,,,,,white,square
308.0,2.0,2.0,0.0,1.0,1.0,514.3580710000606,4.0,1.0,phase_1,,,,,,,,,,,,,blue,hexagon
648.0,7.0,3.0,1.0,4.0,4.0,350.5426719998468,4.0,1.0,phase_1,,,,,,,,,,,,,magenta,flipped triangle
317.0,2.0,2.0,0.0,1.0,1.0,442.1718480000436,4.0,1.0,phase_1,,,,,,,,,,,,,blue,hexagon
166.0,1.0,1.0,0.0,1.0,1.0,323.2439009998415,4.0,1.0,phase_1,,,,,,,,,,,,,yellow,circle
0.0,8.0,0.0,1.0,4.0,4.0,377.93165599987327,4.0,1.0,phase_1,,,,,,,,,,,,,white,square
667.0,7.0,3.0,1.0,2.0,2.0,340.9999250000055,4.0,1.0,phase_1,,,,,,,,,,,,,magenta,flipped triangle
659.0,3.0,3.0,0.0,2.0,2.0,322.4301560001095,4.0,1.0,phase_1,,,,,,,,,,,,,green,triangle
650.0,3.0,3.0,0.0,4.0,4.0,350.9967669999696,4.0,1.0,phase_1,,,,,,,,,,,,,green,triangle
137.0,1.0,1.0,0.0,3.0,3.0,388.1762320002053,4.0,1.0,phase_1,,,,,,,,,,,,,yellow,circle
0.0,7.0,0.0,1.0,4.0,4.0,359.9455029998353,4.0,1.0,phase_1,,,,,,,,,,,,,magenta,flipped triangle
0.0,8.0,0.0,1.0,1.0,1.0,341.364354999996,4.0,1.0,phase_1,,,,,,,,,,,,,white,square
139.0,5.0,1.0,1.0,2.0,2.0,294.6207869999853,4.0,1.0,phase_1,,,,,,,,,,,,,cyan,cross
0.0,6.0,0.0,1.0,2.0,2.0,313.393496999879,4.0,1.0,phase_1,,,,,,,,,,,,,orange,I
0.0,7.0,0.0,1.0,3.0,3.0,368.1228580001061,4.0,1.0,phase_1,,,,,,,,,,,,,magenta,flipped triangle
139.0,1.0,1.0,0.0,2.0,2.0,322.5770839999313,4.0,1.0,phase_1,,,,,,,,,,,,,yellow,circle
1286.0,4.0,4.0,0.0,3.0,3.0,323.8974760001838,4.0,1.0,phase_1,,,,,,,,,,,,,gray,diamond
1318.0,4.0,4.0,0.0,4.0,4.0,405.450121000058,4.0,1.0,phase_1,,,,,,,,,,,,,gray,diamond
657.0,7.0,3.0,1.0,4.0,4.0,359.052353999914,4.0,1.0,phase_1,,,,,,,,,,,,,magenta,flipped triangle
170.0,1.0,1.0,0.0,4.0,4.0,404.8951239999496,4.0,1.0,phase_1,,,,,,,,,,,,,yellow,circle
322.0,6.0,2.0,1.0,4.0,4.0,369.2328380000163,4.0,1.0,phase_1,,,,,,,,,,,,,orange,I
186.0,1.0,1.0,0.0,3.0,3.0,322.5158170000668,4.0,1.0,phase_1,,,,,,,,,,,,,yellow,circle
647.0,7.0,3.0,1.0,2.0,2.0,344.4538549999834,4.0,1.0,phase_1,,,,,,,,,,,,,magenta,flipped triangle
151.0,1.0,1.0,0.0,4.0,4.0,275.9098960000301,4.0,1.0,phase_1,,,,,,,,,,,,,yellow,circle
0.0,5.0,0.0,1.0,1.0,1.0,331.0677900001337,4.0,1.0,phase_1,,,,,,,,,,,,,cyan,cross
312.0,2.0,2.0,0.0,4.0,4.0,368.7390370000685,4.0,1.0,phase_1,,,,,,,,,,,,,blue,hexagon
154.0,5.0,1.0,1.0,4.0,4.0,313.1846480000604,4.0,1.0,phase_1,,,,,,,,,,,,,cyan,cross
626.0,3.0,3.0,0.0,2.0,2.0,340.6162589999439,4.0,1.0,phase_1,,,,,,,,,,,,,green,triangle
1291.0,4.0,4.0,0.0,3.0,3.0,358.6870680001084,4.0,1.0,phase_1,,,,,,,,,,,,,gray,diamond
314.0,2.0,2.0,0.0,2.0,2.0,312.9723160000139,4.0,1.0,phase_1,,,,,,,,,,,,,blue,hexagon
0.0,3.0,0.0,0.0,3.0,3.0,395.8728640000117,4.0,1.0,phase_1,,,,,,,,,,,,,green,triangle
307.0,2.0,2.0,0.0,1.0,1.0,350.1772550000623,4.0,1.0,phase_1,,,,,,,,,,,,,blue,hexagon
659.0,7.0,3.0,1.0,3.0,3.0,413.7833259999297,4.0,1.0,phase_1,,,,,,,,,,,,,magenta,flipped triangle
1308.0,8.0,4.0,1.0,2.0,2.0,340.9717340000497,4.0,1.0,phase_1,,,,,,,,,,,,,white,square
671.0,3.0,3.0,0.0,2.0,2.0,313.6885599999459,4.0,1.0,phase_1,,,,,,,,,,,,,green,triangle
1286.0,8.0,4.0,1.0,4.0,4.0,387.5228949998472,4.0,1.0,phase_1,,,,,,,,,,,,,white,square
311.0,2.0,2.0,0.0,2.0,2.0,294.5759449999059,4.0,1.0,phase_1,,,,,,,,,,,,,blue,hexagon
652.0,3.0,3.0,0.0,1.0,1.0,285.8054969999557,4.0,1.0,phase_1,,,,,,,,,,,,,green,triangle
667.0,3.0,3.0,0.0,2.0,2.0,378.2790509999358,4.0,1.0,phase_1,,,,,,,,,,,,,green,triangle
179.0,5.0,1.0,1.0,3.0,3.0,423.5326269999859,4.0,1.0,phase_1,,,,,,,,,,,,,cyan,cross
165.0,5.0,1.0,1.0,1.0,1.0,284.7397749999345,4.0,1.0,phase_1,,,,,,,,,,,,,cyan,cross
0.0,5.0,0.0,1.0,3.0,3.0,350.5914560000747,4.0,1.0,phase_1,,,,,,,,,,,,,cyan,cross
1323.0,4.0,4.0,0.0,2.0,2.0,304.2009129999314,4.0,1.0,phase_1,,,,,,,,,,,,,gray,diamond
320.0,6.0,2.0,1.0,3.0,3.0,359.8887880000347,4.0,1.0,phase_1,,,,,,,,,,,,,orange,I
632.0,7.0,3.0,1.0,2.0,2.0,331.3148600000204,4.0,1.0,phase_1,,,,,,,,,,,,,magenta,flipped triangle
141.0,5.0,1.0,1.0,1.0,1.0,350.8892890001789,4.0,1.0,phase_1,,,,,,,,,,,,,cyan,cross
343.0,2.0,2.0,0.0,1.0,1.0,441.2120399999821,4.0,1.0,phase_1,,,,,,,,,,,,,blue,hexagon
332.0,6.0,2.0,1.0,1.0,1.0,377.665787000069,4.0,1.0,phase_1,,,,,,,,,,,,,orange,I
158.0,5.0,1.0,1.0,4.0,4.0,424.5140389998596,4.0,1.0,phase_1,,,,,,,,,,,,,cyan,cross
647.0,3.0,3.0,0.0,4.0,4.0,432.1200419999513,4.0,1.0,phase_1,,,,,,,,,,,,,green,triangle
0.0,7.0,0.0,1.0,3.0,3.0,460.5900530000326,4.0,1.0,phase_1,,,,,,,,,,,,,magenta,flipped triangle
1304.0,8.0,4.0,1.0,3.0,3.0,479.5905319997473,4.0,1.0,phase_1,,,,,,,,,,,,,white,square
1282.0,8.0,4.0,1.0,4.0,4.0,413.784066000062,4.0,1.0,phase_1,,,,,,,,,,,,,white,square
140.0,1.0,1.0,0.0,2.0,2.0,305.008049999742,4.0,1.0,phase_1,,,,,,,,,,,,,yellow,circle
186.0,5.0,1.0,1.0,2.0,2.0,388.9796789999309,4.0,1.0,phase_1,,,,,,,,,,,,,cyan,cross
137.0,5.0,1.0,1.0,4.0,4.0,314.0088350000951,4.0,1.0,phase_1,,,,,,,,,,,,,cyan,cross
0.0,4.0,0.0,0.0,3.0,3.0,340.7474040000124,4.0,1.0,phase_1,,,,,,,,,,,,,gray,diamond
337.0,6.0,2.0,1.0,1.0,1.0,404.8392670001703,4.0,1.0,phase_1,,,,,,,,,,,,,orange,I
0.0,2.0,0.0,0.0,2.0,2.0,312.7750930002548,4.0,1.0,phase_1,,,,,,,,,,,,,blue,hexagon
668.0,3.0,3.0,0.0,1.0,1.0,350.3366380000443,4.0,1.0,phase_1,,,,,,,,,,,,,green,triangle
1276.0,8.0,4.0,1.0,1.0,1.0,368.6470709999412,4.0,1.0,phase_1,,,,,,,,,,,,,white,square
341.0,2.0,2.0,0.0,1.0,1.0,386.9067650002762,4.0,1.0,phase_1,,,,,,,,,,,,,blue,hexagon
641.0,7.0,3.0,1.0,3.0,3.0,381.5765619997364,4.0,1.0,phase_1,,,,,,,,,,,,,magenta,flipped triangle
0.0,2.0,0.0,0.0,2.0,2.0,323.1299590001981,4.0,1.0,phase_1,,,,,,,,,,,,,blue,hexagon
310.0,6.0,2.0,1.0,1.0,1.0,322.0430289998148,4.0,1.0,phase_1,,,,,,,,,,,,,orange,I
1311.0,4.0,4.0,0.0,4.0,4.0,387.9305330001443,4.0,1.0,phase_1,,,,,,,,,,,,,gray,diamond
185.0,1.0,1.0,0.0,2.0,2.0,322.1665129999564,4.0,1.0,phase_1,,,,,,,,,,,,,yellow,circle
311.0,6.0,2.0,1.0,2.0,2.0,348.8177549997999,4.0,1.0,phase_1,,,,,,,,,,,,,orange,I
649.0,3.0,3.0,0.0,1.0,1.0,332.1039839997866,4.0,1.0,phase_1,,,,,,,,,,,,,green,triangle
0.0,3.0,0.0,0.0,2.0,2.0,294.5151570002053,4.0,1.0,phase_1,,,,,,,,,,,,,green,triangle
179.0,5.0,1.0,1.0,1.0,1.0,312.7381750000495,4.0,1.0,phase_1,,,,,,,,,,,,,cyan,cross
0.0,1.0,0.0,0.0,2.0,2.0,285.1461380000728,4.0,1.0,phase_1,,,,,,,,,,,,,yellow,circle
0.0,4.0,4.0,0.0,5.0,5.0,298.3193600002778,1.0,1.0,phase_2,go,250.0,250.0,1.0,,,,,,,,,gray,diamond
0.0,1.0,1.0,0.0,5.0,5.0,276.472485999875,1.0,1.0,phase_2,go,250.0,250.0,1.0,,,,,,,,,yellow,circle
0.0,4.0,4.0,0.0,6.0,6.0,296.6993969998839,1.0,1.0,phase_2,go,250.0,250.0,1.0,,,,,,,,,gray,diamond
0.0,1.0,1.0,0.0,5.0,5.0,304.5700930001658,1.0,1.0,phase_2,go,250.0,250.0,1.0,,,,,,,,,yellow,circle
0.0,3.0,3.0,0.0,6.0,6.0,279.4680669999252,1.0,1.0,phase_2,go,250.0,250.0,1.0,,,,,,,,,green,triangle
0.0,2.0,2.0,0.0,5.0,5.0,240.0873110000247,1.0,1.0,phase_2,go,250.0,250.0,1.0,,,,,,,,,blue,hexagon
0.0,6.0,2.0,1.0,6.0,6.0,626.3321629999155,1.0,1.0,phase_2,stop,250.0,250.0,3.0,,,,,,,,,orange,I
0.0,7.0,3.0,1.0,5.0,5.0,244.1398659998412,1.0,1.0,phase_2,stop,250.0,200.0,3.0,,,,,,,,,magenta,flipped triangle
0.0,6.0,2.0,1.0,6.0,6.0,259.6584180000718,1.0,1.0,phase_2,go,200.0,200.0,1.0,,,,,,,,,orange,I
0.0,8.0,4.0,1.0,5.0,5.0,280.2684809998936,1.0,1.0,phase_2,go,200.0,200.0,1.0,,,,,,,,,white,square
0.0,3.0,3.0,0.0,6.0,6.0,280.5652189999819,1.0,1.0,phase_2,go,200.0,200.0,1.0,,,,,,,,,green,triangle
0.0,7.0,3.0,1.0,6.0,6.0,342.0010969998657,1.0,1.0,phase_2,stop,200.0,200.0,3.0,,,,,,,,,magenta,flipped triangle
0.0,7.0,3.0,1.0,6.0,6.0,331.6859789997579,1.0,1.0,phase_2,stop,200.0,150.0,3.0,,,,,,,,,magenta,flipped triangle
0.0,1.0,1.0,0.0,5.0,5.0,233.6376900002506,1.0,1.0,phase_2,go,200.0,100.0,1.0,,,,,,,,,yellow,circle
0.0,1.0,1.0,0.0,6.0,6.0,242.8770349997648,1.0,1.0,phase_2,go,200.0,100.0,1.0,,,,,,,,,yellow,circle
0.0,6.0,2.0,1.0,5.0,5.0,241.3095580000117,1.0,1.0,phase_2,go,200.0,100.0,1.0,,,,,,,,,orange,I
0.0,4.0,4.0,0.0,5.0,5.0,353.745692999837,1.0,1.0,phase_2,go,200.0,100.0,1.0,,,,,,,,,gray,diamond
0.0,4.0,4.0,0.0,6.0,6.0,259.568857999966,1.0,1.0,phase_2,go,200.0,100.0,1.0,,,,,,,,,gray,diamond
0.0,8.0,4.0,1.0,5.0,5.0,242.2997240000768,1.0,1.0,phase_2,go,200.0,100.0,1.0,,,,,,,,,white,square
0.0,5.0,1.0,1.0,6.0,6.0,251.94414799989318,1.0,1.0,phase_2,go,200.0,100.0,1.0,,,,,,,,,cyan,cross
0.0,5.0,1.0,1.0,5.0,5.0,268.609971999922,1.0,1.0,phase_2,stop,200.0,100.0,3.0,,,,,,,,,cyan,cross
0.0,1.0,1.0,0.0,5.0,5.0,448.7761959999261,1.0,1.0,phase_2,go,150.0,100.0,1.0,,,,,,,,,yellow,circle
0.0,2.0,2.0,0.0,6.0,6.0,251.3946989997748,1.0,1.0,phase_2,go,150.0,100.0,1.0,,,,,,,,,blue,hexagon
0.0,7.0,3.0,1.0,5.0,5.0,317.1669749999637,1.0,1.0,phase_2,go,150.0,100.0,1.0,,,,,,,,,magenta,flipped triangle
0.0,8.0,4.0,1.0,6.0,6.0,297.385254999881,1.0,1.0,phase_2,stop,150.0,100.0,3.0,,,,,,,,,white,square
0.0,2.0,2.0,0.0,6.0,6.0,390.8823970000412,1.0,1.0,phase_2,go,150.0,50.0,1.0,,,,,,,,,blue,hexagon
0.0,3.0,3.0,0.0,6.0,6.0,352.2789790004026,1.0,1.0,phase_2,go,150.0,50.0,1.0,,,,,,,,,green,triangle
0.0,4.0,4.0,0.0,6.0,6.0,316.2414200000967,1.0,1.0,phase_2,go,150.0,50.0,1.0,,,,,,,,,gray,diamond
0.0,5.0,1.0,1.0,5.0,5.0,314.9004399997466,1.0,1.0,phase_2,stop,150.0,50.0,3.0,,,,,,,,,cyan,cross
0.0,3.0,3.0,0.0,6.0,6.0,277.6625759997841,1.0,1.0,phase_2,go,100.0,50.0,1.0,,,,,,,,,green,triangle
0.0,6.0,2.0,1.0,5.0,5.0,280.410794999625,1.0,1.0,phase_2,go,100.0,50.0,1.0,,,,,,,,,orange,I
0.0,6.0,2.0,1.0,6.0,6.0,260.0386890003392,1.0,1.0,phase_2,go,100.0,50.0,1.0,,,,,,,,,orange,I
0.0,8.0,4.0,1.0,6.0,6.0,271.8311579997134,1.0,1.0,phase_2,stop,100.0,50.0,3.0,,,,,,,,,white,square
0.0,5.0,1.0,1.0,6.0,0.0,0.0,1.0,1.0,phase_2,stop,100.0,0.0,4.0,,,,,,,,,cyan,cross
0.0,5.0,1.0,1.0,5.0,5.0,259.7381590003351,1.0,1.0,phase_2,go,100.0,50.0,1.0,,,,,,,,,cyan,cross
0.0,4.0,4.0,0.0,5.0,5.0,401.2242859998878,1.0,1.0,phase_2,go,100.0,50.0,1.0,,,,,,,,,gray,diamond
0.0,8.0,4.0,1.0,6.0,6.0,327.2537560001183,2.0,1.0,phase_2,stop,100.0,50.0,3.0,,,,,,,,,white,square
0.0,3.0,3.0,0.0,6.0,6.0,325.9376999999404,2.0,1.0,phase_2,go,100.0,0.0,1.0,,,,,,,,,green,triangle
0.0,1.0,1.0,0.0,6.0,6.0,298.7084439996579,2.0,1.0,phase_2,go,100.0,0.0,1.0,,,,,,,,,yellow,circle
0.0,3.0,3.0,0.0,6.0,6.0,233.7800980003521,2.0,1.0,phase_2,go,100.0,0.0,1.0,,,,,,,,,green,triangle
0.0,5.0,1.0,1.0,6.0,6.0,238.7942970003678,2.0,1.0,phase_2,stop,100.0,0.0,3.0,,,,,,,,,cyan,cross
0.0,1.0,1.0,0.0,6.0,6.0,251.1214529999961,2.0,1.0,phase_2,go,100.0,0.0,1.0,,,,,,,,,yellow,circle
0.0,3.0,3.0,0.0,5.0,5.0,315.940683000008,2.0,1.0,phase_2,go,100.0,0.0,1.0,,,,,,,,,green,triangle
0.0,1.0,1.0,0.0,5.0,5.0,307.5960389996908,2.0,1.0,phase_2,go,100.0,0.0,1.0,,,,,,,,,yellow,circle
0.0,1.0,1.0,0.0,5.0,5.0,334.7916560001067,2.0,1.0,phase_2,go,100.0,0.0,1.0,,,,,,,,,yellow,circle
0.0,7.0,3.0,1.0,5.0,5.0,278.3637069996985,2.0,1.0,phase_2,go,100.0,0.0,1.0,,,,,,,,,magenta,flipped triangle
0.0,8.0,4.0,1.0,5.0,5.0,343.1163860000197,2.0,1.0,phase_2,stop,100.0,0.0,3.0,,,,,,,,,white,square
0.0,7.0,3.0,1.0,5.0,5.0,353.3760469999834,2.0,1.0,phase_2,go,50.0,0.0,1.0,,,,,,,,,magenta,flipped triangle
0.0,3.0,3.0,0.0,5.0,5.0,250.1350009997622,2.0,1.0,phase_2,go,50.0,0.0,1.0,,,,,,,,,green,triangle
0.0,6.0,2.0,1.0,6.0,0.0,0.0,2.0,1.0,phase_2,stop,50.0,0.0,4.0,,,,,,,,,orange,I
0.0,4.0,4.0,0.0,6.0,6.0,381.12068800001,2.0,1.0,phase_2,go,50.0,50.0,1.0,,,,,,,,,gray,diamond
0.0,4.0,4.0,0.0,6.0,6.0,382.4609369999052,2.0,1.0,phase_2,go,50.0,50.0,1.0,,,,,,,,,gray,diamond
0.0,1.0,1.0,0.0,6.0,6.0,363.7616199998774,2.0,1.0,phase_2,go,50.0,50.0,1.0,,,,,,,,,yellow,circle
0.0,8.0,4.0,1.0,5.0,5.0,278.4072019999257,2.0,1.0,phase_2,stop,50.0,50.0,3.0,,,,,,,,,white,square
0.0,3.0,3.0,0.0,6.0,6.0,307.6967269998931,2.0,1.0,phase_2,go,0.0,50.0,1.0,,,,,,,,,green,triangle
0.0,3.0,3.0,0.0,5.0,5.0,399.2771610001,2.0,1.0,phase_2,go,0.0,50.0,1.0,,,,,,,,,green,triangle
0.0,2.0,2.0,0.0,6.0,6.0,306.2180140000237,2.0,1.0,phase_2,go,0.0,50.0,1.0,,,,,,,,,blue,hexagon
0.0,5.0,1.0,1.0,6.0,6.0,324.5601469998291,2.0,1.0,phase_2,stop,0.0,50.0,3.0,,,,,,,,,cyan,cross
0.0,6.0,2.0,1.0,6.0,6.0,510.20692900010545,2.0,1.0,phase_2,stop,0.0,0.0,3.0,,,,,,,,,orange,I
0.0,3.0,3.0,0.0,6.0,6.0,586.4394400000492,2.0,1.0,phase_2,go,0.0,0.0,1.0,,,,,,,,,green,triangle
0.0,8.0,4.0,1.0,6.0,6.0,307.1995860000243,2.0,1.0,phase_2,go,0.0,0.0,1.0,,,,,,,,,white,square
0.0,4.0,4.0,0.0,5.0,5.0,335.3572319997511,2.0,1.0,phase_2,go,0.0,0.0,1.0,,,,,,,,,gray,diamond
0.0,8.0,4.0,1.0,5.0,5.0,354.1928409999855,2.0,1.0,phase_2,go,0.0,0.0,1.0,,,,,,,,,white,square
0.0,4.0,4.0,0.0,5.0,5.0,316.9797640002798,2.0,1.0,phase_2,go,0.0,0.0,1.0,,,,,,,,,gray,diamond
0.0,8.0,4.0,1.0,6.0,6.0,270.0791259999278,2.0,1.0,phase_2,stop,0.0,0.0,3.0,,,,,,,,,white,square
0.0,8.0,4.0,1.0,5.0,5.0,522.876609999912,2.0,1.0,phase_2,stop,0.0,0.0,3.0,,,,,,,,,white,square
0.0,2.0,2.0,0.0,5.0,5.0,381.9110770000407,2.0,1.0,phase_2,go,0.0,0.0,1.0,,,,,,,,,blue,hexagon
0.0,7.0,3.0,1.0,5.0,5.0,602.7745579999646,2.0,1.0,phase_2,stop,0.0,0.0,3.0,,,,,,,,,magenta,flipped triangle
0.0,6.0,2.0,1.0,6.0,6.0,569.1037900000993,2.0,1.0,phase_2,stop,0.0,0.0,3.0,,,,,,,,,orange,I
0.0,4.0,4.0,0.0,5.0,5.0,538.0097699999169,2.0,1.0,phase_2,go,0.0,0.0,1.0,,,,,,,,,gray,diamond
0.0,1.0,1.0,0.0,5.0,5.0,399.2137200002617,2.0,1.0,phase_2,go,0.0,0.0,1.0,,,,,,,,,yellow,circle
0.0,7.0,3.0,1.0,6.0,6.0,543.5768180000196,2.0,1.0,phase_2,stop,0.0,0.0,3.0,,,,,,,,,magenta,flipped triangle
0.0,5.0,1.0,1.0,6.0,6.0,540.9004439998171,3.0,1.0,phase_2,stop,0.0,0.0,3.0,,,,,,,,,cyan,cross
0.0,1.0,1.0,0.0,5.0,5.0,315.6288129998756,3.0,1.0,phase_2,go,0.0,0.0,1.0,,,,,,,,,yellow,circle
0.0,4.0,4.0,0.0,6.0,6.0,279.6734319999814,3.0,1.0,phase_2,go,0.0,0.0,1.0,,,,,,,,,gray,diamond
0.0,6.0,2.0,1.0,5.0,5.0,353.8305840002067,3.0,1.0,phase_2,go,0.0,0.0,1.0,,,,,,,,,orange,I
0.0,4.0,4.0,0.0,5.0,5.0,315.4802670001118,3.0,1.0,phase_2,go,0.0,0.0,1.0,,,,,,,,,gray,diamond
0.0,3.0,3.0,0.0,5.0,5.0,288.8234229999398,3.0,1.0,phase_2,go,0.0,0.0,1.0,,,,,,,,,green,triangle
0.0,4.0,4.0,0.0,6.0,6.0,298.1723060001968,3.0,1.0,phase_2,go,0.0,0.0,1.0,,,,,,,,,gray,diamond
0.0,7.0,3.0,1.0,5.0,5.0,281.0666059999676,3.0,1.0,phase_2,stop,0.0,0.0,3.0,,,,,,,,,magenta,flipped triangle
0.0,6.0,2.0,1.0,5.0,5.0,585.6161019996762,3.0,1.0,phase_2,stop,0.0,0.0,3.0,,,,,,,,,orange,I
0.0,2.0,2.0,0.0,6.0,6.0,289.4534879997081,3.0,1.0,phase_2,go,0.0,0.0,1.0,,,,,,,,,blue,hexagon
0.0,8.0,4.0,1.0,6.0,6.0,515.9763650003697,3.0,1.0,phase_2,stop,0.0,0.0,3.0,,,,,,,,,white,square
0.0,1.0,1.0,0.0,5.0,5.0,454.3648939998093,3.0,1.0,phase_2,go,0.0,0.0,1.0,,,,,,,,,yellow,circle
0.0,8.0,4.0,1.0,5.0,5.0,549.1000299998632,3.0,1.0,phase_2,stop,0.0,0.0,3.0,,,,,,,,,white,square
0.0,1.0,1.0,0.0,5.0,5.0,381.4287679997505,3.0,1.0,phase_2,go,0.0,0.0,1.0,,,,,,,,,yellow,circle
0.0,7.0,3.0,1.0,5.0,5.0,371.2303600000268,3.0,1.0,phase_2,go,0.0,0.0,1.0,,,,,,,,,magenta,flipped triangle
0.0,5.0,1.0,1.0,5.0,5.0,621.6016650000711,3.0,1.0,phase_2,stop,0.0,0.0,3.0,,,,,,,,,cyan,cross
0.0,3.0,3.0,0.0,6.0,6.0,325.6850389998362,3.0,1.0,phase_2,go,0.0,0.0,1.0,,,,,,,,,green,triangle
0.0,4.0,4.0,0.0,5.0,5.0,315.6042170003275,3.0,1.0,phase_2,go,0.0,0.0,1.0,,,,,,,,,gray,diamond
0.0,3.0,3.0,0.0,5.0,5.0,324.210702000073,3.0,1.0,phase_2,go,0.0,0.0,1.0,,,,,,,,,green,triangle
0.0,2.0,2.0,0.0,5.0,5.0,281.9777709996742,3.0,1.0,phase_2,go,0.0,0.0,1.0,,,,,,,,,blue,hexagon
0.0,4.0,4.0,0.0,6.0,6.0,353.9231710001331,3.0,1.0,phase_2,go,0.0,0.0,1.0,,,,,,,,,gray,diamond
0.0,5.0,1.0,1.0,5.0,5.0,368.9689689999795,3.0,1.0,phase_2,stop,0.0,0.0,3.0,,,,,,,,,cyan,cross
0.0,2.0,2.0,0.0,6.0,6.0,324.5890829998643,3.0,1.0,phase_2,go,0.0,0.0,1.0,,,,,,,,,blue,hexagon
0.0,3.0,3.0,0.0,5.0,5.0,371.5922520000276,3.0,1.0,phase_2,go,0.0,0.0,1.0,,,,,,,,,green,triangle
0.0,7.0,3.0,1.0,6.0,6.0,471.947861999979,3.0,1.0,phase_2,stop,0.0,0.0,3.0,,,,,,,,,magenta,flipped triangle
0.0,3.0,3.0,0.0,5.0,5.0,363.4822980002354,3.0,1.0,phase_2,go,0.0,0.0,1.0,,,,,,,,,green,triangle
0.0,8.0,4.0,1.0,5.0,5.0,531.9190479999634,3.0,1.0,phase_2,stop,0.0,0.0,3.0,,,,,,,,,white,square
0.0,6.0,2.0,1.0,6.0,6.0,523.8956960001815,3.0,1.0,phase_2,stop,0.0,0.0,3.0,,,,,,,,,orange,I
0.0,6.0,2.0,1.0,6.0,6.0,663.1165489998239,3.0,1.0,phase_2,stop,0.0,0.0,3.0,,,,,,,,,orange,I
0.0,8.0,4.0,1.0,5.0,5.0,399.5776380002098,3.0,1.0,phase_2,go,0.0,0.0,1.0,,,,,,,,,white,square
0.0,4.0,4.0,0.0,5.0,5.0,408.8307279998844,3.0,1.0,phase_2,go,0.0,0.0,1.0,,,,,,,,,gray,diamond
0.0,6.0,2.0,1.0,6.0,6.0,504.543707999801,3.0,1.0,phase_2,stop,0.0,0.0,3.0,,,,,,,,,orange,I
0.0,1.0,1.0,0.0,5.0,5.0,361.8403750001562,3.0,1.0,phase_2,go,0.0,0.0,1.0,,,,,,,,,yellow,circle
0.0,5.0,1.0,1.0,6.0,6.0,239.8783530002219,3.0,1.0,phase_2,stop,0.0,0.0,3.0,,,,,,,,,cyan,cross
0.0,8.0,4.0,1.0,5.0,5.0,316.7754419996527,3.0,1.0,phase_2,go,0.0,0.0,1.0,,,,,,,,,white,square
0.0,7.0,3.0,1.0,5.0,5.0,500.151957000071,3.0,1.0,phase_2,stop,0.0,0.0,3.0,,,,,,,,,magenta,flipped triangle
0.0,2.0,2.0,0.0,6.0,6.0,363.3315419997416,4.0,1.0,phase_2,go,0.0,0.0,1.0,,,,,,,,,blue,hexagon
0.0,2.0,2.0,0.0,5.0,5.0,289.424895999673,4.0,1.0,phase_2,go,0.0,0.0,1.0,,,,,,,,,blue,hexagon
0.0,2.0,2.0,0.0,5.0,5.0,335.1401840000108,4.0,1.0,phase_2,go,0.0,0.0,1.0,,,,,,,,,blue,hexagon
0.0,8.0,4.0,1.0,6.0,6.0,630.6852160000744,4.0,1.0,phase_2,stop,0.0,0.0,3.0,,,,,,,,,white,square
0.0,4.0,4.0,0.0,6.0,6.0,437.7475040000718,4.0,1.0,phase_2,go,0.0,0.0,1.0,,,,,,,,,gray,diamond
0.0,2.0,2.0,0.0,6.0,6.0,445.1424210001278,4.0,1.0,phase_2,go,0.0,0.0,1.0,,,,,,,,,blue,hexagon
0.0,7.0,3.0,1.0,5.0,5.0,294.6873610003422,4.0,1.0,phase_2,stop,0.0,0.0,3.0,,,,,,,,,magenta,flipped triangle
0.0,5.0,1.0,1.0,5.0,5.0,893.779615999847,4.0,1.0,phase_2,stop,0.0,0.0,3.0,,,,,,,,,cyan,cross
0.0,4.0,4.0,0.0,5.0,5.0,427.5662979998742,4.0,1.0,phase_2,go,0.0,0.0,1.0,,,,,,,,,gray,diamond
0.0,5.0,1.0,1.0,5.0,5.0,569.1047239997715,4.0,1.0,phase_2,stop,0.0,0.0,3.0,,,,,,,,,cyan,cross
0.0,3.0,3.0,0.0,5.0,5.0,427.7390790002755,4.0,1.0,phase_2,go,0.0,0.0,1.0,,,,,,,,,green,triangle
0.0,3.0,3.0,0.0,5.0,5.0,371.6745609999634,4.0,1.0,phase_2,go,0.0,0.0,1.0,,,,,,,,,green,triangle
0.0,3.0,3.0,0.0,5.0,5.0,381.6425619997972,4.0,1.0,phase_2,go,0.0,0.0,1.0,,,,,,,,,green,triangle
0.0,8.0,4.0,1.0,6.0,6.0,537.1841589999349,4.0,1.0,phase_2,stop,0.0,0.0,3.0,,,,,,,,,white,square
0.0,5.0,1.0,1.0,6.0,6.0,803.3146650000162,4.0,1.0,phase_2,stop,0.0,0.0,3.0,,,,,,,,,cyan,cross
0.0,2.0,2.0,0.0,5.0,5.0,465.6841149999309,4.0,1.0,phase_2,go,0.0,0.0,1.0,,,,,,,,,blue,hexagon
0.0,5.0,1.0,1.0,6.0,6.0,776.6840999997839,4.0,1.0,phase_2,stop,0.0,0.0,3.0,,,,,,,,,cyan,cross
0.0,7.0,3.0,1.0,5.0,5.0,398.438305000127,4.0,1.0,phase_2,go,0.0,0.0,1.0,,,,,,,,,magenta,flipped triangle
0.0,3.0,3.0,0.0,5.0,5.0,484.7900269996898,4.0,1.0,phase_2,go,0.0,0.0,1.0,,,,,,,,,green,triangle
0.0,3.0,3.0,0.0,6.0,6.0,325.942816999941,4.0,1.0,phase_2,go,0.0,0.0,1.0,,,,,,,,,green,triangle
0.0,5.0,1.0,1.0,5.0,5.0,331.5676110000822,4.0,1.0,phase_2,stop,0.0,0.0,3.0,,,,,,,,,cyan,cross
0.0,6.0,2.0,1.0,5.0,5.0,725.2357729998948,4.0,1.0,phase_2,stop,0.0,0.0,3.0,,,,,,,,,orange,I
0.0,7.0,3.0,1.0,6.0,6.0,513.6261400002695,4.0,1.0,phase_2,go,0.0,0.0,1.0,,,,,,,,,magenta,flipped triangle
0.0,3.0,3.0,0.0,6.0,6.0,371.3394820001667,4.0,1.0,phase_2,go,0.0,0.0,1.0,,,,,,,,,green,triangle
0.0,3.0,3.0,0.0,6.0,6.0,408.6116710000169,4.0,1.0,phase_2,go,0.0,0.0,1.0,,,,,,,,,green,triangle
0.0,7.0,3.0,1.0,6.0,6.0,590.5746769999496,4.0,1.0,phase_2,stop,0.0,0.0,3.0,,,,,,,,,magenta,flipped triangle
0.0,1.0,1.0,0.0,6.0,6.0,436.5612599999622,4.0,1.0,phase_2,go,0.0,0.0,1.0,,,,,,,,,yellow,circle
0.0,4.0,4.0,0.0,6.0,6.0,308.0858129997068,4.0,1.0,phase_2,go,0.0,0.0,1.0,,,,,,,,,gray,diamond
0.0,7.0,3.0,1.0,5.0,5.0,603.6675589998595,4.0,1.0,phase_2,stop,0.0,0.0,3.0,,,,,,,,,magenta,flipped triangle
0.0,7.0,3.0,1.0,5.0,5.0,564.6335960000215,4.0,1.0,phase_2,stop,0.0,0.0,3.0,,,,,,,,,magenta,flipped triangle
0.0,3.0,3.0,0.0,6.0,6.0,418.8989909998781,4.0,1.0,phase_2,go,0.0,0.0,1.0,,,,,,,,,green,triangle
0.0,7.0,3.0,1.0,6.0,6.0,548.889858000166,4.0,1.0,phase_2,stop,0.0,0.0,3.0,,,,,,,,,magenta,flipped triangle
0.0,7.0,3.0,1.0,5.0,5.0,535.2023790001113,4.0,1.0,phase_2,stop,0.0,0.0,3.0,,,,,,,,,magenta,flipped triangle
0.0,5.0,1.0,1.0,6.0,6.0,445.9994690000712,4.0,1.0,phase_2,go,0.0,0.0,1.0,,,,,,,,,cyan,cross
0.0,8.0,4.0,1.0,5.0,5.0,324.5810939997682,4.0,1.0,phase_2,stop,0.0,0.0,3.0,,,,,,,,,white,square
0.0,5.0,1.0,1.0,6.0,6.0,590.8038469997337,4.0,1.0,phase_2,stop,0.0,0.0,3.0,,,,,,,,,cyan,cross
0.0,3.0,3.0,0.0,5.0,5.0,447.1489500001553,5.0,1.0,phase_2,go,0.0,0.0,1.0,,,,,,,,,green,triangle
0.0,7.0,3.0,1.0,6.0,6.0,307.8542069997638,5.0,1.0,phase_2,stop,0.0,0.0,3.0,,,,,,,,,magenta,flipped triangle
0.0,7.0,3.0,1.0,5.0,0.0,0.0,5.0,1.0,phase_2,stop,0.0,0.0,4.0,,,,,,,,,magenta,flipped triangle
0.0,2.0,2.0,0.0,6.0,6.0,380.8225889997629,5.0,1.0,phase_2,go,50.0,0.0,1.0,,,,,,,,,blue,hexagon
0.0,1.0,1.0,0.0,6.0,6.0,418.982488000438,5.0,1.0,phase_2,go,50.0,0.0,1.0,,,,,,,,,yellow,circle
0.0,5.0,1.0,1.0,6.0,0.0,0.0,5.0,1.0,phase_2,stop,50.0,0.0,4.0,,,,,,,,,cyan,cross
0.0,1.0,1.0,0.0,6.0,6.0,510.96858700020675,5.0,1.0,phase_2,go,50.0,50.0,1.0,,,,,,,,,yellow,circle
0.0,2.0,2.0,0.0,5.0,5.0,408.8459579998016,5.0,1.0,phase_2,go,50.0,50.0,1.0,,,,,,,,,blue,hexagon
0.0,3.0,3.0,0.0,5.0,5.0,455.0606809998498,5.0,1.0,phase_2,go,50.0,50.0,1.0,,,,,,,,,green,triangle
0.0,1.0,1.0,0.0,6.0,6.0,400.2669719998266,5.0,1.0,phase_2,go,50.0,50.0,1.0,,,,,,,,,yellow,circle
0.0,1.0,1.0,0.0,6.0,6.0,334.80029500015,5.0,1.0,phase_2,go,50.0,50.0,1.0,,,,,,,,,yellow,circle
0.0,1.0,1.0,0.0,6.0,6.0,316.0391219998928,5.0,1.0,phase_2,go,50.0,50.0,1.0,,,,,,,,,yellow,circle
0.0,5.0,1.0,1.0,6.0,0.0,0.0,5.0,1.0,phase_2,stop,50.0,50.0,4.0,,,,,,,,,cyan,cross
0.0,5.0,1.0,1.0,5.0,5.0,445.4413430003114,5.0,1.0,phase_2,go,50.0,100.0,1.0,,,,,,,,,cyan,cross
0.0,3.0,3.0,0.0,6.0,6.0,371.1750799998299,5.0,1.0,phase_2,go,50.0,100.0,1.0,,,,,,,,,green,triangle
0.0,8.0,4.0,1.0,6.0,0.0,0.0,5.0,1.0,phase_2,stop,50.0,100.0,4.0,,,,,,,,,white,square
0.0,4.0,4.0,0.0,5.0,5.0,409.0160939999805,5.0,1.0,phase_2,go,50.0,150.0,1.0,,,,,,,,,gray,diamond
0.0,7.0,3.0,1.0,6.0,6.0,328.29023100021,5.0,1.0,phase_2,stop,50.0,150.0,3.0,,,,,,,,,magenta,flipped triangle
0.0,2.0,2.0,0.0,5.0,5.0,623.3814739998707,5.0,1.0,phase_2,go,50.0,100.0,1.0,,,,,,,,,blue,hexagon
0.0,6.0,2.0,1.0,6.0,0.0,0.0,5.0,1.0,phase_2,stop,50.0,100.0,4.0,,,,,,,,,orange,I
0.0,5.0,1.0,1.0,6.0,6.0,491.9388550001713,5.0,1.0,phase_2,go,50.0,150.0,1.0,,,,,,,,,cyan,cross
0.0,4.0,4.0,0.0,6.0,6.0,436.1921579998125,5.0,1.0,phase_2,go,50.0,150.0,1.0,,,,,,,,,gray,diamond
0.0,6.0,2.0,1.0,5.0,0.0,0.0,5.0,1.0,phase_2,stop,50.0,150.0,4.0,,,,,,,,,orange,I
0.0,4.0,4.0,0.0,5.0,5.0,390.9377299996777,5.0,1.0,phase_2,go,100.0,150.0,1.0,,,,,,,,,gray,diamond
0.0,5.0,1.0,1.0,5.0,0.0,0.0,5.0,1.0,phase_2,stop,100.0,150.0,4.0,,,,,,,,,cyan,cross
0.0,6.0,2.0,1.0,6.0,0.0,0.0,5.0,1.0,phase_2,stop,150.0,150.0,4.0,,,,,,,,,orange,I
0.0,5.0,1.0,1.0,5.0,5.0,345.132150000154,5.0,1.0,phase_2,go,150.0,200.0,1.0,,,,,,,,,cyan,cross
0.0,7.0,3.0,1.0,6.0,6.0,317.3980430001393,5.0,1.0,phase_2,stop,150.0,200.0,3.0,,,,,,,,,magenta,flipped triangle
0.0,7.0,3.0,1.0,6.0,0.0,0.0,5.0,1.0,phase_2,stop,150.0,150.0,4.0,,,,,,,,,magenta,flipped triangle
0.0,2.0,2.0,0.0,6.0,6.0,583.5253200002626,5.0,1.0,phase_2,go,150.0,200.0,1.0,,,,,,,,,blue,hexagon
0.0,6.0,2.0,1.0,5.0,0.0,0.0,5.0,1.0,phase_2,stop,150.0,200.0,4.0,,,,,,,,,orange,I
0.0,5.0,1.0,1.0,6.0,0.0,0.0,5.0,1.0,phase_2,stop,200.0,200.0,4.0,,,,,,,,,cyan,cross
0.0,5.0,1.0,1.0,5.0,0.0,0.0,5.0,1.0,phase_2,stop,200.0,250.0,4.0,,,,,,,,,cyan,cross
0.0,3.0,3.0,0.0,6.0,6.0,668.3133700003054,5.0,1.0,phase_2,go,250.0,250.0,1.0,,,,,,,,,green,triangle
0.0,2.0,2.0,0.0,5.0,5.0,409.2183399998248,5.0,1.0,phase_2,go,250.0,250.0,1.0,,,,,,,,,blue,hexagon
0.0,7.0,3.0,1.0,5.0,5.0,355.0599649997821,5.0,1.0,phase_2,stop,250.0,250.0,3.0,,,,,,,,,magenta,flipped triangle
0.0,7.0,3.0,1.0,6.0,0.0,0.0,6.0,1.0,phase_2,stop,200.0,250.0,4.0,,,,,,,,,magenta,flipped triangle
0.0,2.0,2.0,0.0,6.0,6.0,538.5039990001133,6.0,1.0,phase_2,go,200.0,300.0,1.0,,,,,,,,,blue,hexagon
0.0,4.0,4.0,0.0,5.0,5.0,325.722695999957,6.0,1.0,phase_2,go,200.0,300.0,1.0,,,,,,,,,gray,diamond
0.0,1.0,1.0,0.0,5.0,5.0,345.01148299978007,6.0,1.0,phase_2,go,200.0,300.0,1.0,,,,,,,,,yellow,circle
0.0,8.0,4.0,1.0,5.0,5.0,348.5329080003794,6.0,1.0,phase_2,stop,200.0,300.0,3.0,,,,,,,,,white,square
0.0,8.0,4.0,1.0,5.0,0.0,0.0,6.0,1.0,phase_2,stop,150.0,300.0,4.0,,,,,,,,,white,square
0.0,3.0,3.0,0.0,6.0,6.0,409.0925959999367,6.0,1.0,phase_2,go,200.0,300.0,1.0,,,,,,,,,green,triangle
0.0,5.0,1.0,1.0,6.0,0.0,0.0,6.0,1.0,phase_2,stop,200.0,300.0,4.0,,,,,,,,,cyan,cross
0.0,7.0,3.0,1.0,6.0,6.0,568.4001790000366,6.0,1.0,phase_2,go,200.0,350.0,1.0,,,,,,,,,magenta,flipped triangle
0.0,6.0,2.0,1.0,6.0,0.0,0.0,6.0,1.0,phase_2,stop,200.0,350.0,4.0,,,,,,,,,orange,I
0.0,7.0,3.0,1.0,6.0,0.0,0.0,6.0,1.0,phase_2,stop,200.0,400.0,4.0,,,,,,,,,magenta,flipped triangle
0.0,1.0,1.0,0.0,6.0,6.0,753.1989009999052,6.0,1.0,phase_2,go,200.0,450.0,1.0,,,,,,,,,yellow,circle
0.0,4.0,4.0,0.0,5.0,5.0,678.3148979998259,6.0,1.0,phase_2,go,200.0,450.0,1.0,,,,,,,,,gray,diamond
0.0,4.0,4.0,0.0,5.0,5.0,363.7581269999828,6.0,1.0,phase_2,go,200.0,450.0,1.0,,,,,,,,,gray,diamond
0.0,6.0,2.0,1.0,5.0,0.0,0.0,6.0,1.0,phase_2,stop,200.0,450.0,4.0,,,,,,,,,orange,I
0.0,2.0,2.0,0.0,5.0,5.0,650.4756119998092,6.0,1.0,phase_2,go,250.0,450.0,1.0,,,,,,,,,blue,hexagon
0.0,4.0,4.0,0.0,6.0,6.0,391.6986839999481,6.0,1.0,phase_2,go,250.0,450.0,1.0,,,,,,,,,gray,diamond
0.0,3.0,3.0,0.0,5.0,5.0,409.1917599998851,6.0,1.0,phase_2,go,250.0,450.0,1.0,,,,,,,,,green,triangle
0.0,6.0,2.0,1.0,5.0,5.0,394.8182999997698,6.0,1.0,phase_2,stop,250.0,450.0,3.0,,,,,,,,,orange,I
0.0,2.0,2.0,0.0,6.0,6.0,381.2289369998325,6.0,1.0,phase_2,go,200.0,450.0,1.0,,,,,,,,,blue,hexagon
0.0,2.0,2.0,0.0,6.0,6.0,409.6496759998445,6.0,1.0,phase_2,go,200.0,450.0,1.0,,,,,,,,,blue,hexagon
0.0,2.0,2.0,0.0,6.0,6.0,390.4875839998567,6.0,1.0,phase_2,go,200.0,450.0,1.0,,,,,,,,,blue,hexagon
0.0,8.0,4.0,1.0,6.0,6.0,325.865530000101,6.0,1.0,phase_2,stop,200.0,450.0,3.0,,,,,,,,,white,square
0.0,8.0,4.0,1.0,5.0,0.0,0.0,6.0,1.0,phase_2,stop,200.0,400.0,4.0,,,,,,,,,white,square
0.0,6.0,2.0,1.0,5.0,5.0,519.2535339997448,6.0,1.0,phase_2,go,250.0,400.0,1.0,,,,,,,,,orange,I
0.0,1.0,1.0,0.0,6.0,6.0,352.8841589995863,6.0,1.0,phase_2,go,250.0,400.0,1.0,,,,,,,,,yellow,circle
0.0,1.0,1.0,0.0,5.0,5.0,502.57473700003175,6.0,1.0,phase_2,go,250.0,400.0,1.0,,,,,,,,,yellow,circle
0.0,1.0,1.0,0.0,6.0,6.0,363.1966660000216,6.0,1.0,phase_2,go,250.0,400.0,1.0,,,,,,,,,yellow,circle
0.0,5.0,1.0,1.0,5.0,5.0,333.9513179998903,6.0,1.0,phase_2,stop,250.0,400.0,3.0,,,,,,,,,cyan,cross
0.0,8.0,4.0,1.0,5.0,5.0,620.6558690000747,6.0,1.0,phase_2,go,200.0,400.0,1.0,,,,,,,,,white,square
0.0,8.0,4.0,1.0,6.0,6.0,443.8194139997904,6.0,1.0,phase_2,stop,200.0,400.0,3.0,,,,,,,,,white,square
0.0,1.0,1.0,0.0,5.0,5.0,447.0892909998838,6.0,1.0,phase_2,go,200.0,350.0,1.0,,,,,,,,,yellow,circle
0.0,7.0,3.0,1.0,5.0,5.0,317.8081279997968,6.0,1.0,phase_2,go,200.0,350.0,1.0,,,,,,,,,magenta,flipped triangle
0.0,7.0,3.0,1.0,6.0,6.0,446.0570189999089,6.0,1.0,phase_2,stop,200.0,350.0,3.0,,,,,,,,,magenta,flipped triangle
0.0,2.0,2.0,0.0,6.0,6.0,408.7391809998735,6.0,1.0,phase_2,go,200.0,300.0,1.0,,,,,,,,,blue,hexagon
0.0,1.0,1.0,0.0,5.0,5.0,353.2652060002874,6.0,1.0,phase_2,go,200.0,300.0,1.0,,,,,,,,,yellow,circle
0.0,4.0,4.0,0.0,5.0,5.0,399.323860000095,7.0,1.0,phase_2,go,200.0,300.0,1.0,,,,,,,,,gray,diamond
0.0,2.0,2.0,0.0,6.0,6.0,307.7009829999042,7.0,1.0,phase_2,go,200.0,300.0,1.0,,,,,,,,,blue,hexagon
0.0,4.0,4.0,0.0,5.0,5.0,316.9050719998267,7.0,1.0,phase_2,go,200.0,300.0,1.0,,,,,,,,,gray,diamond
0.0,8.0,4.0,1.0,6.0,6.0,269.5259009997244,7.0,1.0,phase_2,stop,200.0,300.0,3.0,,,,,,,,,white,square
0.0,6.0,2.0,1.0,6.0,0.0,0.0,7.0,1.0,phase_2,stop,200.0,250.0,4.0,,,,,,,,,orange,I
0.0,1.0,1.0,0.0,5.0,5.0,446.6292840002097,7.0,1.0,phase_2,go,200.0,300.0,1.0,,,,,,,,,yellow,circle
0.0,3.0,3.0,0.0,5.0,5.0,362.7368439997553,7.0,1.0,phase_2,go,200.0,300.0,1.0,,,,,,,,,green,triangle
0.0,6.0,2.0,1.0,5.0,5.0,361.1219910003456,7.0,1.0,phase_2,stop,200.0,300.0,3.0,,,,,,,,,orange,I
0.0,6.0,2.0,1.0,5.0,0.0,0.0,7.0,1.0,phase_2,stop,150.0,300.0,4.0,,,,,,,,,orange,I
0.0,1.0,1.0,0.0,6.0,6.0,418.904103999921,7.0,1.0,phase_2,go,200.0,300.0,1.0,,,,,,,,,yellow,circle
0.0,8.0,4.0,1.0,6.0,0.0,0.0,7.0,1.0,phase_2,stop,200.0,300.0,4.0,,,,,,,,,white,square
0.0,5.0,1.0,1.0,6.0,0.0,0.0,7.0,1.0,phase_2,stop,200.0,350.0,4.0,,,,,,,,,cyan,cross
0.0,2.0,2.0,0.0,5.0,5.0,744.831227999839,7.0,1.0,phase_2,go,200.0,400.0,1.0,,,,,,,,,blue,hexagon
0.0,5.0,1.0,1.0,5.0,0.0,0.0,7.0,1.0,phase_2,stop,200.0,400.0,4.0,,,,,,,,,cyan,cross
0.0,6.0,2.0,1.0,6.0,6.0,641.8025019997913,7.0,1.0,phase_2,go,250.0,400.0,1.0,,,,,,,,,orange,I
0.0,4.0,4.0,0.0,6.0,6.0,566.0214139998061,7.0,1.0,phase_2,go,250.0,400.0,1.0,,,,,,,,,gray,diamond
0.0,5.0,1.0,1.0,6.0,6.0,458.0808150003577,7.0,1.0,phase_2,stop,250.0,400.0,3.0,,,,,,,,,cyan,cross
0.0,5.0,1.0,1.0,5.0,0.0,0.0,7.0,1.0,phase_2,stop,250.0,350.0,4.0,,,,,,,,,cyan,cross
0.0,4.0,4.0,0.0,6.0,6.0,762.2802369996862,7.0,1.0,phase_2,go,300.0,350.0,1.0,,,,,,,,,gray,diamond
0.0,3.0,3.0,0.0,5.0,5.0,630.9321909998289,7.0,1.0,phase_2,go,300.0,350.0,1.0,,,,,,,,,green,triangle
0.0,6.0,2.0,1.0,6.0,0.0,0.0,7.0,1.0,phase_2,stop,300.0,350.0,4.0,,,,,,,,,orange,I
0.0,2.0,2.0,0.0,6.0,6.0,845.5072629999449,7.0,1.0,phase_2,go,300.0,400.0,1.0,,,,,,,,,blue,hexagon
0.0,8.0,4.0,1.0,6.0,6.0,488.383831000192,7.0,1.0,phase_2,stop,300.0,400.0,3.0,,,,,,,,,white,square
0.0,4.0,4.0,0.0,5.0,5.0,706.535657999666,7.0,1.0,phase_2,go,300.0,350.0,1.0,,,,,,,,,gray,diamond
0.0,8.0,4.0,1.0,5.0,5.0,604.7895920000883,7.0,1.0,phase_2,go,300.0,350.0,1.0,,,,,,,,,white,square
0.0,2.0,2.0,0.0,6.0,6.0,688.2612230001541,7.0,1.0,phase_2,go,300.0,350.0,1.0,,,,,,,,,blue,hexagon
0.0,1.0,1.0,0.0,6.0,6.0,530.0636160000067,7.0,1.0,phase_2,go,300.0,350.0,1.0,,,,,,,,,yellow,circle
0.0,6.0,2.0,1.0,5.0,5.0,697.4614969999493,7.0,1.0,phase_2,go,300.0,350.0,1.0,,,,,,,,,orange,I
0.0,6.0,2.0,1.0,6.0,0.0,0.0,7.0,1.0,phase_2,stop,300.0,350.0,4.0,,,,,,,,,orange,I
0.0,2.0,2.0,0.0,5.0,5.0,446.3954699999704,7.0,1.0,phase_2,go,300.0,400.0,1.0,,,,,,,,,blue,hexagon
0.0,6.0,2.0,1.0,6.0,6.0,390.4844540002159,7.0,1.0,phase_2,stop,300.0,400.0,3.0,,,,,,,,,orange,I
0.0,2.0,2.0,0.0,5.0,5.0,529.5380520001345,7.0,1.0,phase_2,go,300.0,350.0,1.0,,,,,,,,,blue,hexagon
0.0,1.0,1.0,0.0,6.0,6.0,526.321640000333,7.0,1.0,phase_2,go,300.0,350.0,1.0,,,,,,,,,yellow,circle
0.0,7.0,3.0,1.0,5.0,5.0,406.4478659997803,7.0,1.0,phase_2,stop,300.0,350.0,3.0,,,,,,,,,magenta,flipped triangle
0.0,8.0,4.0,1.0,6.0,6.0,426.7238630000065,7.0,1.0,phase_2,stop,250.0,350.0,3.0,,,,,,,,,white,square
0.0,7.0,3.0,1.0,5.0,0.0,0.0,7.0,1.0,phase_2,stop,250.0,300.0,4.0,,,,,,,,,magenta,flipped triangle
0.0,1.0,1.0,0.0,6.0,6.0,372.5521369997295,8.0,1.0,phase_2,go,300.0,300.0,1.0,,,,,,,,,yellow,circle
0.0,2.0,2.0,0.0,6.0,6.0,438.530991999869,8.0,1.0,phase_2,go,300.0,300.0,1.0,,,,,,,,,blue,hexagon
0.0,7.0,3.0,1.0,6.0,6.0,335.9164009998494,8.0,1.0,phase_2,stop,300.0,300.0,3.0,,,,,,,,,magenta,flipped triangle
0.0,2.0,2.0,0.0,5.0,5.0,595.8615320000717,8.0,1.0,phase_2,go,300.0,250.0,1.0,,,,,,,,,blue,hexagon
0.0,1.0,1.0,0.0,5.0,5.0,353.5481100002471,8.0,1.0,phase_2,go,300.0,250.0,1.0,,,,,,,,,yellow,circle
0.0,1.0,1.0,0.0,5.0,5.0,355.1920079999036,8.0,1.0,phase_2,go,300.0,250.0,1.0,,,,,,,,,yellow,circle
0.0,7.0,3.0,1.0,6.0,6.0,474.3875809999736,8.0,1.0,phase_2,go,300.0,250.0,1.0,,,,,,,,,magenta,flipped triangle
0.0,8.0,4.0,1.0,5.0,5.0,380.0942540001415,8.0,1.0,phase_2,go,300.0,250.0,1.0,,,,,,,,,white,square
0.0,6.0,2.0,1.0,5.0,5.0,361.7956160001085,8.0,1.0,phase_2,stop,300.0,250.0,3.0,,,,,,,,,orange,I
0.0,8.0,4.0,1.0,5.0,0.0,0.0,8.0,1.0,phase_2,stop,250.0,250.0,4.0,,,,,,,,,white,square
0.0,2.0,2.0,0.0,5.0,5.0,714.6904609999183,8.0,1.0,phase_2,go,300.0,250.0,1.0,,,,,,,,,blue,hexagon
0.0,3.0,3.0,0.0,5.0,5.0,650.1795889998903,8.0,1.0,phase_2,go,300.0,250.0,1.0,,,,,,,,,green,triangle
0.0,3.0,3.0,0.0,6.0,6.0,659.5824350001749,8.0,1.0,phase_2,go,300.0,250.0,1.0,,,,,,,,,green,triangle
0.0,2.0,2.0,0.0,5.0,5.0,585.1868359995933,8.0,1.0,phase_2,go,300.0,250.0,1.0,,,,,,,,,blue,hexagon
0.0,4.0,4.0,0.0,6.0,6.0,602.6006760002929,8.0,1.0,phase_2,go,300.0,250.0,1.0,,,,,,,,,gray,diamond
0.0,1.0,1.0,0.0,6.0,6.0,482.4649759998465,8.0,1.0,phase_2,go,300.0,250.0,1.0,,,,,,,,,yellow,circle
0.0,8.0,4.0,1.0,6.0,0.0,0.0,8.0,1.0,phase_2,stop,300.0,250.0,4.0,,,,,,,,,white,square
0.0,4.0,4.0,0.0,6.0,6.0,798.7086329999329,8.0,1.0,phase_2,go,300.0,300.0,1.0,,,,,,,,,gray,diamond
0.0,6.0,2.0,1.0,5.0,5.0,584.9614839999049,8.0,1.0,phase_2,go,300.0,300.0,1.0,,,,,,,,,orange,I
0.0,8.0,4.0,1.0,6.0,0.0,0.0,8.0,1.0,phase_2,stop,300.0,300.0,4.0,,,,,,,,,white,square
0.0,7.0,3.0,1.0,6.0,0.0,0.0,8.0,1.0,phase_2,stop,300.0,350.0,4.0,,,,,,,,,magenta,flipped triangle
0.0,5.0,1.0,1.0,5.0,5.0,698.9044550000472,8.0,1.0,phase_2,go,300.0,400.0,1.0,,,,,,,,,cyan,cross
0.0,6.0,2.0,1.0,5.0,0.0,0.0,8.0,1.0,phase_2,stop,300.0,400.0,4.0,,,,,,,,,orange,I
0.0,3.0,3.0,0.0,6.0,6.0,751.4350470000863,8.0,1.0,phase_2,go,350.0,400.0,1.0,,,,,,,,,green,triangle
0.0,8.0,4.0,1.0,6.0,0.0,0.0,8.0,1.0,phase_2,stop,350.0,400.0,4.0,,,,,,,,,white,square
0.0,5.0,1.0,1.0,6.0,6.0,769.8627710001347,8.0,1.0,phase_2,go,350.0,450.0,1.0,,,,,,,,,cyan,cross
0.0,6.0,2.0,1.0,6.0,0.0,0.0,8.0,1.0,phase_2,stop,350.0,450.0,4.0,,,,,,,,,orange,I
0.0,2.0,2.0,0.0,5.0,5.0,724.7637150003357,8.0,1.0,phase_2,go,350.0,500.0,1.0,,,,,,,,,blue,hexagon
0.0,4.0,4.0,0.0,6.0,6.0,660.1925589998245,8.0,1.0,phase_2,go,350.0,500.0,1.0,,,,,,,,,gray,diamond
0.0,6.0,2.0,1.0,5.0,0.0,0.0,8.0,1.0,phase_2,stop,350.0,500.0,4.0,,,,,,,,,orange,I
0.0,5.0,1.0,1.0,5.0,5.0,613.9570209998055,8.0,1.0,phase_2,go,400.0,500.0,1.0,,,,,,,,,cyan,cross
0.0,6.0,2.0,1.0,5.0,0.0,0.0,8.0,1.0,phase_2,stop,400.0,500.0,4.0,,,,,,,,,orange,I
0.0,3.0,3.0,0.0,5.0,5.0,612.7493079998203,8.0,1.0,phase_2,go,450.0,500.0,1.0,,,,,,,,,green,triangle
0.0,5.0,1.0,1.0,5.0,0.0,0.0,8.0,1.0,phase_2,stop,450.0,500.0,4.0,,,,,,,,,cyan,cross
0.0,4.0,4.0,0.0,6.0,6.0,686.0434519999217,8.0,1.0,phase_2,go,500.0,500.0,1.0,,,,,,,,,gray,diamond
0.0,2.0,2.0,0.0,5.0,5.0,751.8008259999078,8.0,1.0,phase_2,go,500.0,500.0,1.0,,,,,,,,,blue,hexagon
0.0,6.0,2.0,1.0,7.0,5.0,2391.5558369999417,1.0,1.0,phase_3,,,,,768.0,4.0,192.0,384.0,1152.0,960.0,768.0,576.0,orange,I
0.0,8.0,4.0,1.0,7.0,4.0,746.7945160001364,1.0,1.0,phase_3,,,,,192.0,1.0,768.0,960.0,384.0,192.0,1152.0,576.0,white,square
0.0,1.0,1.0,0.0,7.0,6.0,526.0388249998869,1.0,1.0,phase_3,,,,,1038.0,6.0,346.0,865.0,173.0,519.0,692.0,1038.0,yellow,circle
0.0,8.0,4.0,1.0,7.0,4.0,1114.528607000011,1.0,1.0,phase_3,,,,,580.0,5.0,696.0,232.0,116.0,580.0,464.0,348.0,white,square
0.0,8.0,4.0,1.0,7.0,3.0,673.7401380000847,1.0,1.0,phase_3,,,,,960.0,5.0,576.0,768.0,960.0,192.0,384.0,1152.0,white,square
0.0,1.0,1.0,0.0,7.0,5.0,777.4854960002813,1.0,1.0,phase_3,,,,,192.0,1.0,384.0,1152.0,576.0,768.0,192.0,960.0,yellow,circle
0.0,7.0,3.0,1.0,7.0,2.0,581.3099020001573,1.0,1.0,phase_3,,,,,462.0,3.0,770.0,462.0,616.0,308.0,154.0,924.0,magenta,flipped triangle
0.0,5.0,1.0,1.0,7.0,5.0,801.786095999887,1.0,1.0,phase_3,,,,,173.0,1.0,692.0,865.0,519.0,1038.0,173.0,346.0,cyan,cross
0.0,1.0,1.0,0.0,7.0,4.0,313.5708400000112,1.0,1.0,phase_3,,,,,232.0,2.0,580.0,116.0,348.0,232.0,696.0,464.0,yellow,circle
0.0,2.0,2.0,0.0,7.0,6.0,387.6943240002219,1.0,1.0,phase_3,,,,,135.0,1.0,540.0,405.0,810.0,675.0,270.0,135.0,blue,hexagon
0.0,8.0,4.0,1.0,7.0,2.0,1417.6634170003126,1.0,1.0,phase_3,,,,,865.0,5.0,1038.0,865.0,173.0,692.0,346.0,519.0,white,square
0.0,5.0,1.0,1.0,7.0,2.0,3157.118879999871,1.0,1.0,phase_3,,,,,348.0,3.0,696.0,348.0,580.0,232.0,464.0,116.0,cyan,cross
0.0,6.0,2.0,1.0,7.0,4.0,2566.5528889999223,1.0,1.0,phase_3,,,,,810.0,6.0,540.0,675.0,270.0,810.0,135.0,405.0,orange,I
0.0,4.0,4.0,0.0,7.0,2.0,2954.807769999661,1.0,1.0,phase_3,,,,,540.0,4.0,270.0,540.0,135.0,405.0,810.0,675.0,gray,diamond
0.0,7.0,3.0,1.0,7.0,2.0,3673.855169000035,1.0,1.0,phase_3,,,,,696.0,6.0,232.0,696.0,348.0,580.0,464.0,116.0,magenta,flipped triangle
0.0,1.0,1.0,0.0,7.0,5.0,2323.009376999835,1.0,1.0,phase_3,,,,,270.0,2.0,135.0,810.0,540.0,675.0,270.0,405.0,yellow,circle
0.0,3.0,3.0,0.0,7.0,1.0,2001.0373619998063,1.0,1.0,phase_3,,,,,770.0,5.0,770.0,616.0,924.0,308.0,154.0,462.0,green,triangle
0.0,5.0,1.0,1.0,7.0,3.0,2518.913895999958,1.0,1.0,phase_3,,,,,308.0,2.0,462.0,154.0,308.0,616.0,924.0,770.0,cyan,cross
0.0,5.0,1.0,1.0,7.0,2.0,2924.3141409997406,1.0,1.0,phase_3,,,,,580.0,5.0,116.0,580.0,464.0,348.0,232.0,696.0,cyan,cross
0.0,6.0,2.0,1.0,7.0,5.0,1465.4142749996026,1.0,1.0,phase_3,,,,,770.0,5.0,308.0,616.0,462.0,924.0,770.0,154.0,orange,I
0.0,6.0,2.0,1.0,7.0,1.0,1807.628016000308,2.0,1.0,phase_3,,,,,348.0,3.0,348.0,116.0,464.0,696.0,580.0,232.0,orange,I
0.0,3.0,3.0,0.0,7.0,5.0,3029.6017569999094,2.0,1.0,phase_3,,,,,580.0,5.0,348.0,232.0,696.0,116.0,580.0,464.0,green,triangle
0.0,7.0,3.0,1.0,7.0,5.0,2227.843258000576,2.0,1.0,phase_3,,,,,675.0,5.0,405.0,810.0,540.0,135.0,675.0,270.0,magenta,flipped triangle
0.0,5.0,1.0,1.0,7.0,6.0,1391.3304480001898,2.0,1.0,phase_3,,,,,768.0,4.0,960.0,384.0,192.0,576.0,1152.0,768.0,cyan,cross
0.0,8.0,4.0,1.0,7.0,1.0,2989.435302999482,2.0,1.0,phase_3,,,,,924.0,6.0,924.0,154.0,770.0,462.0,616.0,308.0,white,square
0.0,8.0,4.0,1.0,7.0,4.0,1317.563661999884,2.0,1.0,phase_3,,,,,865.0,5.0,519.0,346.0,173.0,865.0,692.0,1038.0,white,square
0.0,3.0,3.0,0.0,7.0,6.0,1795.318103999307,2.0,1.0,phase_3,,,,,960.0,5.0,192.0,576.0,384.0,768.0,1152.0,960.0,green,triangle
0.0,8.0,4.0,1.0,7.0,2.0,2825.847572999919,2.0,1.0,phase_3,,,,,770.0,5.0,154.0,770.0,462.0,308.0,924.0,616.0,white,square
0.0,2.0,2.0,0.0,7.0,3.0,3421.014481999918,2.0,1.0,phase_3,,,,,576.0,3.0,192.0,768.0,576.0,960.0,384.0,1152.0,blue,hexagon
0.0,5.0,1.0,1.0,7.0,3.0,2090.271424999628,2.0,1.0,phase_3,,,,,462.0,3.0,616.0,924.0,462.0,770.0,308.0,154.0,cyan,cross
0.0,3.0,3.0,0.0,7.0,4.0,4861.932290000368,2.0,1.0,phase_3,,,,,865.0,5.0,346.0,519.0,692.0,865.0,173.0,1038.0,green,triangle
0.0,8.0,4.0,1.0,7.0,3.0,3396.4700609994907,2.0,1.0,phase_3,,,,,405.0,3.0,540.0,270.0,405.0,810.0,675.0,135.0,white,square
0.0,7.0,3.0,1.0,7.0,5.0,1624.5610940004551,2.0,1.0,phase_3,,,,,616.0,4.0,154.0,462.0,770.0,308.0,616.0,924.0,magenta,flipped triangle
0.0,4.0,4.0,0.0,7.0,2.0,1841.8383460002588,2.0,1.0,phase_3,,,,,462.0,3.0,154.0,462.0,924.0,616.0,308.0,770.0,gray,diamond
0.0,1.0,1.0,0.0,7.0,4.0,1623.9203420000194,2.0,1.0,phase_3,,,,,768.0,4.0,1152.0,384.0,576.0,768.0,960.0,192.0,yellow,circle
0.0,8.0,4.0,1.0,7.0,3.0,2356.6831719999755,2.0,1.0,phase_3,,,,,675.0,5.0,270.0,405.0,675.0,135.0,540.0,810.0,white,square
0.0,1.0,1.0,0.0,7.0,5.0,1832.8927730008215,2.0,1.0,phase_3,,,,,308.0,2.0,616.0,154.0,924.0,770.0,308.0,462.0,yellow,circle
0.0,2.0,2.0,0.0,7.0,3.0,1528.0791309996855,2.0,1.0,phase_3,,,,,462.0,3.0,616.0,770.0,462.0,308.0,154.0,924.0,blue,hexagon
0.0,2.0,2.0,0.0,7.0,2.0,2521.2363199998435,2.0,1.0,phase_3,,,,,173.0,1.0,519.0,173.0,346.0,865.0,692.0,1038.0,blue,hexagon
0.0,3.0,3.0,0.0,7.0,5.0,1661.1737299999731,2.0,1.0,phase_3,,,,,519.0,3.0,346.0,865.0,1038.0,173.0,519.0,692.0,green,triangle
0.0,3.0,3.0,0.0,7.0,6.0,1429.3225739993431,3.0,1.0,phase_3,,,,,675.0,5.0,270.0,405.0,810.0,540.0,135.0,675.0,green,triangle
0.0,5.0,1.0,1.0,7.0,1.0,1943.4010690001744,3.0,1.0,phase_3,,,,,270.0,2.0,270.0,405.0,135.0,675.0,540.0,810.0,cyan,cross
0.0,2.0,2.0,0.0,7.0,2.0,1466.2249519997204,3.0,1.0,phase_3,,,,,348.0,3.0,116.0,348.0,232.0,464.0,580.0,696.0,blue,hexagon
0.0,4.0,4.0,0.0,7.0,5.0,718.2690050003657,3.0,1.0,phase_3,,,,,865.0,5.0,173.0,519.0,692.0,346.0,865.0,1038.0,gray,diamond
0.0,4.0,4.0,0.0,7.0,1.0,3075.581598000099,3.0,1.0,phase_3,,,,,519.0,3.0,519.0,692.0,1038.0,865.0,173.0,346.0,gray,diamond
0.0,4.0,4.0,0.0,7.0,2.0,1014.8919229995954,3.0,1.0,phase_3,,,,,924.0,6.0,308.0,924.0,462.0,770.0,154.0,616.0,gray,diamond
0.0,4.0,4.0,0.0,7.0,4.0,1093.282615000135,3.0,1.0,phase_3,,,,,696.0,6.0,348.0,232.0,580.0,696.0,464.0,116.0,gray,diamond
0.0,3.0,3.0,0.0,7.0,1.0,3040.412639999886,3.0,1.0,phase_3,,,,,696.0,6.0,696.0,580.0,116.0,348.0,232.0,464.0,green,triangle
0.0,6.0,2.0,1.0,7.0,5.0,2387.878563000413,3.0,1.0,phase_3,,,,,692.0,4.0,173.0,1038.0,346.0,519.0,692.0,865.0,orange,I
0.0,3.0,3.0,0.0,7.0,6.0,983.301739000126,3.0,1.0,phase_3,,,,,576.0,3.0,192.0,1152.0,768.0,960.0,384.0,576.0,green,triangle
0.0,1.0,1.0,0.0,7.0,2.0,1508.9665779996722,3.0,1.0,phase_3,,,,,232.0,2.0,696.0,232.0,580.0,464.0,116.0,348.0,yellow,circle
0.0,2.0,2.0,0.0,7.0,3.0,1948.805572999845,3.0,1.0,phase_3,,,,,405.0,3.0,810.0,135.0,405.0,270.0,675.0,540.0,blue,hexagon
0.0,6.0,2.0,1.0,7.0,4.0,1251.6888159998416,3.0,1.0,phase_3,,,,,616.0,4.0,770.0,308.0,154.0,616.0,462.0,924.0,orange,I
0.0,4.0,4.0,0.0,7.0,5.0,1945.3091239993228,3.0,1.0,phase_3,,,,,384.0,2.0,192.0,1152.0,576.0,960.0,384.0,768.0,gray,diamond
0.0,2.0,2.0,0.0,7.0,4.0,1134.346431000267,3.0,1.0,phase_3,,,,,580.0,5.0,696.0,348.0,116.0,580.0,464.0,232.0,blue,hexagon
0.0,8.0,4.0,1.0,7.0,5.0,3116.374137000093,3.0,1.0,phase_3,,,,,348.0,3.0,116.0,464.0,232.0,580.0,348.0,696.0,white,square
0.0,1.0,1.0,0.0,7.0,6.0,2253.4794099992723,3.0,1.0,phase_3,,,,,308.0,2.0,924.0,462.0,770.0,154.0,616.0,308.0,yellow,circle
0.0,6.0,2.0,1.0,7.0,3.0,2492.3205929999317,3.0,1.0,phase_3,,,,,810.0,6.0,270.0,540.0,810.0,405.0,135.0,675.0,orange,I
0.0,5.0,1.0,1.0,7.0,5.0,590.8951689998503,3.0,1.0,phase_3,,,,,810.0,6.0,135.0,675.0,270.0,540.0,810.0,405.0,cyan,cross
0.0,5.0,1.0,1.0,7.0,1.0,1541.0091209996608,3.0,1.0,phase_3,,,,,865.0,5.0,865.0,1038.0,173.0,519.0,692.0,346.0,cyan,cross
0.0,2.0,2.0,0.0,7.0,4.0,694.9467209997238,4.0,1.0,phase_3,,,,,692.0,4.0,346.0,1038.0,519.0,692.0,173.0,865.0,blue,hexagon
0.0,7.0,3.0,1.0,7.0,2.0,1031.4988419995643,4.0,1.0,phase_3,,,,,865.0,5.0,1038.0,865.0,173.0,519.0,692.0,346.0,magenta,flipped triangle
0.0,7.0,3.0,1.0,7.0,1.0,976.6306540004734,4.0,1.0,phase_3,,,,,580.0,5.0,580.0,232.0,348.0,116.0,696.0,464.0,magenta,flipped triangle
0.0,7.0,3.0,1.0,7.0,2.0,3663.9316130003854,4.0,1.0,phase_3,,,,,768.0,4.0,576.0,768.0,1152.0,192.0,960.0,384.0,magenta,flipped triangle
0.0,7.0,3.0,1.0,7.0,4.0,1774.7640750003484,4.0,1.0,phase_3,,,,,675.0,5.0,405.0,270.0,540.0,675.0,135.0,810.0,magenta,flipped triangle
0.0,1.0,1.0,0.0,7.0,1.0,2740.506858000117,4.0,1.0,phase_3,,,,,540.0,4.0,540.0,675.0,135.0,405.0,270.0,810.0,yellow,circle
0.0,6.0,2.0,1.0,7.0,4.0,2236.1685619998752,4.0,1.0,phase_3,,,,,692.0,4.0,346.0,519.0,173.0,692.0,865.0,1038.0,orange,I
0.0,2.0,2.0,0.0,7.0,2.0,3652.680858000167,4.0,1.0,phase_3,,,,,462.0,3.0,616.0,462.0,770.0,154.0,308.0,924.0,blue,hexagon
0.0,2.0,2.0,0.0,7.0,1.0,2438.01384499966,4.0,1.0,phase_3,,,,,384.0,2.0,384.0,576.0,960.0,192.0,768.0,1152.0,blue,hexagon
0.0,3.0,3.0,0.0,7.0,1.0,2974.555120000332,4.0,1.0,phase_3,,,,,405.0,3.0,405.0,270.0,675.0,135.0,540.0,810.0,green,triangle
0.0,5.0,1.0,1.0,7.0,5.0,893.8801340000282,4.0,1.0,phase_3,,,,,1152.0,6.0,192.0,960.0,576.0,384.0,1152.0,768.0,cyan,cross
0.0,1.0,1.0,0.0,7.0,3.0,1372.0328930003234,4.0,1.0,phase_3,,,,,519.0,3.0,865.0,346.0,519.0,692.0,173.0,1038.0,yellow,circle
0.0,7.0,3.0,1.0,7.0,1.0,1899.530673999834,4.0,1.0,phase_3,,,,,960.0,5.0,960.0,1152.0,576.0,384.0,768.0,192.0,magenta,flipped triangle
0.0,4.0,4.0,0.0,7.0,5.0,1209.9887969998235,4.0,1.0,phase_3,,,,,580.0,5.0,348.0,464.0,232.0,696.0,580.0,116.0,gray,diamond
0.0,4.0,4.0,0.0,7.0,6.0,3026.839688999644,4.0,1.0,phase_3,,,,,384.0,2.0,1152.0,960.0,768.0,576.0,192.0,384.0,gray,diamond
0.0,6.0,2.0,1.0,7.0,4.0,1492.231350000111,4.0,1.0,phase_3,,,,,384.0,2.0,768.0,1152.0,960.0,384.0,192.0,576.0,orange,I
0.0,4.0,4.0,0.0,7.0,6.0,1860.990220999156,4.0,1.0,phase_3,,,,,810.0,6.0,405.0,675.0,135.0,270.0,540.0,810.0,gray,diamond
0.0,6.0,2.0,1.0,7.0,5.0,2196.5990189992226,4.0,1.0,phase_3,,,,,696.0,6.0,116.0,464.0,580.0,348.0,696.0,232.0,orange,I
0.0,7.0,3.0,1.0,7.0,2.0,2734.817543000645,4.0,1.0,phase_3,,,,,1038.0,6.0,865.0,1038.0,173.0,346.0,692.0,519.0,magenta,flipped triangle
0.0,3.0,3.0,0.0,7.0,1.0,1435.697532000631,4.0,1.0,phase_3,,,,,616.0,4.0,616.0,154.0,308.0,770.0,924.0,462.0,green,triangle
