raw_reward_magnitude,stim_reward,stepwise_reward_magnitude,paired_with_stopping,stim_location,response,reaction_time,block,num_trial_presentations,which_phase,stop_signal_trial_type,left_SSD,right_SSD,accuracy,chosen_bidding_amount,chosen_bidding_level,possible_bid_1,possible_bid_2,possible_bid_3,possible_bid_4,possible_bid_5,possible_bid_6,color_text,shape_text
300.0,6.0,1.0,1.0,3.0,3.0,336.3917679998849,1.0,1.0,phase_1,,,,,,,,,,,,,white,square
186.0,5.0,0.5,1.0,2.0,2.0,346.7450139999073,1.0,1.0,phase_1,,,,,,,,,,,,,magenta,hexagon
0.0,1.0,0.0,0.0,3.0,3.0,290.0294439998561,1.0,1.0,phase_1,,,,,,,,,,,,,yellow,circle
0.0,2.0,0.0,0.0,4.0,4.0,311.0720810000202,1.0,1.0,phase_1,,,,,,,,,,,,,blue,triangle
0.0,7.0,0.0,1.0,1.0,1.0,346.1372760000358,1.0,1.0,phase_1,,,,,,,,,,,,,gray,I
144.0,5.0,0.5,1.0,1.0,1.0,333.7754700000914,1.0,1.0,phase_1,,,,,,,,,,,,,magenta,hexagon
1290.0,4.0,4.0,0.0,2.0,2.0,289.0906039999663,1.0,1.0,phase_1,,,,,,,,,,,,,orange,cross
333.0,6.0,1.0,1.0,2.0,2.0,370.6561490000695,1.0,1.0,phase_1,,,,,,,,,,,,,white,square
0.0,7.0,0.0,1.0,1.0,1.0,298.3922749999692,1.0,1.0,phase_1,,,,,,,,,,,,,gray,I
672.0,3.0,2.0,0.0,2.0,2.0,382.6500130001022,1.0,2.0,phase_1,,,,,,,,,,,,,green,diamond
142.0,5.0,0.5,1.0,2.0,2.0,306.5383450000354,1.0,1.0,phase_1,,,,,,,,,,,,,magenta,hexagon
331.0,2.0,1.0,0.0,4.0,4.0,390.0147980000383,1.0,1.0,phase_1,,,,,,,,,,,,,blue,triangle
1279.0,8.0,4.0,1.0,1.0,1.0,407.1625259998654,1.0,1.0,phase_1,,,,,,,,,,,,,cyan,flipped triangle
1288.0,4.0,4.0,0.0,1.0,1.0,345.0772060000417,1.0,1.0,phase_1,,,,,,,,,,,,,orange,cross
1290.0,8.0,4.0,1.0,1.0,1.0,326.1881200000971,1.0,1.0,phase_1,,,,,,,,,,,,,cyan,flipped triangle
307.0,6.0,1.0,1.0,3.0,3.0,362.387654000031,1.0,1.0,phase_1,,,,,,,,,,,,,white,square
165.0,1.0,0.5,0.0,1.0,1.0,501.3900450001074,1.0,1.0,phase_1,,,,,,,,,,,,,yellow,circle
350.0,2.0,1.0,0.0,1.0,1.0,380.19017300007357,1.0,1.0,phase_1,,,,,,,,,,,,,blue,triangle
1281.0,4.0,4.0,0.0,4.0,4.0,352.4521249998997,1.0,1.0,phase_1,,,,,,,,,,,,,orange,cross
1323.0,4.0,4.0,0.0,4.0,4.0,372.6423929999782,1.0,1.0,phase_1,,,,,,,,,,,,,orange,cross
303.0,2.0,1.0,0.0,1.0,1.0,307.2083419999671,1.0,1.0,phase_1,,,,,,,,,,,,,blue,triangle
658.0,7.0,2.0,1.0,2.0,2.0,408.3380270001271,1.0,1.0,phase_1,,,,,,,,,,,,,gray,I
1323.0,4.0,4.0,0.0,1.0,1.0,380.9611449999011,1.0,1.0,phase_1,,,,,,,,,,,,,orange,cross
0.0,6.0,0.0,1.0,1.0,1.0,372.802288999992,1.0,1.0,phase_1,,,,,,,,,,,,,white,square
632.0,7.0,2.0,1.0,3.0,3.0,362.5522070001352,1.0,1.0,phase_1,,,,,,,,,,,,,gray,I
1310.0,4.0,4.0,0.0,1.0,1.0,316.6168729999299,1.0,1.0,phase_1,,,,,,,,,,,,,orange,cross
346.0,2.0,1.0,0.0,3.0,3.0,333.6245680000047,1.0,1.0,phase_1,,,,,,,,,,,,,blue,triangle
303.0,6.0,1.0,1.0,4.0,4.0,308.8930499998241,1.0,1.0,phase_1,,,,,,,,,,,,,white,square
152.0,1.0,0.5,0.0,3.0,3.0,353.3804349999627,1.0,1.0,phase_1,,,,,,,,,,,,,yellow,circle
181.0,1.0,0.5,0.0,4.0,4.0,352.6689459999943,1.0,1.0,phase_1,,,,,,,,,,,,,yellow,circle
657.0,7.0,2.0,1.0,4.0,4.0,326.8980489999649,1.0,2.0,phase_1,,,,,,,,,,,,,gray,I
638.0,3.0,2.0,0.0,3.0,3.0,334.0441809998538,1.0,1.0,phase_1,,,,,,,,,,,,,green,diamond
670.0,7.0,2.0,1.0,2.0,2.0,398.4281190000729,1.0,1.0,phase_1,,,,,,,,,,,,,gray,I
349.0,6.0,1.0,1.0,1.0,1.0,435.5165649999435,1.0,1.0,phase_1,,,,,,,,,,,,,white,square
321.0,6.0,1.0,1.0,1.0,1.0,464.8643069999707,1.0,1.0,phase_1,,,,,,,,,,,,,white,square
333.0,2.0,1.0,0.0,2.0,2.0,464.1724560001421,1.0,1.0,phase_1,,,,,,,,,,,,,blue,triangle
0.0,7.0,0.0,1.0,2.0,2.0,409.7494590000679,1.0,1.0,phase_1,,,,,,,,,,,,,gray,I
0.0,5.0,0.0,1.0,1.0,1.0,315.5147769998621,1.0,1.0,phase_1,,,,,,,,,,,,,magenta,hexagon
1324.0,8.0,4.0,1.0,3.0,3.0,352.6487869999073,1.0,1.0,phase_1,,,,,,,,,,,,,cyan,flipped triangle
651.0,3.0,2.0,0.0,1.0,1.0,315.575028000012,1.0,1.0,phase_1,,,,,,,,,,,,,green,diamond
147.0,1.0,0.5,0.0,2.0,2.0,325.3436269999383,1.0,1.0,phase_1,,,,,,,,,,,,,yellow,circle
305.0,6.0,1.0,1.0,1.0,1.0,381.0019260001809,1.0,1.0,phase_1,,,,,,,,,,,,,white,square
0.0,8.0,0.0,1.0,4.0,4.0,371.0301080000135,1.0,1.0,phase_1,,,,,,,,,,,,,cyan,flipped triangle
311.0,6.0,1.0,1.0,3.0,3.0,362.4504510000861,1.0,1.0,phase_1,,,,,,,,,,,,,white,square
0.0,6.0,0.0,1.0,1.0,1.0,325.9001270000681,1.0,1.0,phase_1,,,,,,,,,,,,,white,square
1279.0,8.0,4.0,1.0,4.0,4.0,437.656195000045,1.0,1.0,phase_1,,,,,,,,,,,,,cyan,flipped triangle
1279.0,4.0,4.0,0.0,2.0,2.0,419.6736540000074,1.0,1.0,phase_1,,,,,,,,,,,,,orange,cross
0.0,5.0,0.0,1.0,2.0,2.0,437.695844000018,1.0,1.0,phase_1,,,,,,,,,,,,,magenta,hexagon
1296.0,8.0,4.0,1.0,1.0,1.0,352.4879289998353,1.0,1.0,phase_1,,,,,,,,,,,,,cyan,flipped triangle
1323.0,8.0,4.0,1.0,2.0,2.0,362.7930100001322,1.0,1.0,phase_1,,,,,,,,,,,,,cyan,flipped triangle
1297.0,8.0,4.0,1.0,3.0,3.0,427.5465050000093,1.0,1.0,phase_1,,,,,,,,,,,,,cyan,flipped triangle
656.0,7.0,2.0,1.0,3.0,3.0,372.2910690000844,1.0,1.0,phase_1,,,,,,,,,,,,,gray,I
1289.0,8.0,4.0,1.0,3.0,3.0,372.5586289999683,1.0,1.0,phase_1,,,,,,,,,,,,,cyan,flipped triangle
641.0,7.0,2.0,1.0,3.0,3.0,362.3430539998935,1.0,1.0,phase_1,,,,,,,,,,,,,gray,I
0.0,4.0,0.0,0.0,4.0,4.0,455.4606879999028,1.0,1.0,phase_1,,,,,,,,,,,,,orange,cross
139.0,1.0,0.5,0.0,1.0,1.0,362.7807190000567,1.0,1.0,phase_1,,,,,,,,,,,,,yellow,circle
150.0,1.0,0.5,0.0,2.0,2.0,445.902063999938,1.0,1.0,phase_1,,,,,,,,,,,,,yellow,circle
0.0,8.0,0.0,1.0,1.0,1.0,362.6897369999824,1.0,1.0,phase_1,,,,,,,,,,,,,cyan,flipped triangle
176.0,5.0,0.5,1.0,2.0,2.0,361.8753760001709,1.0,1.0,phase_1,,,,,,,,,,,,,magenta,hexagon
0.0,3.0,0.0,0.0,1.0,1.0,334.1553929999463,1.0,1.0,phase_1,,,,,,,,,,,,,green,diamond
1310.0,8.0,4.0,1.0,3.0,3.0,325.8503879999352,1.0,1.0,phase_1,,,,,,,,,,,,,cyan,flipped triangle
139.0,5.0,0.5,1.0,2.0,2.0,474.7240789999978,1.0,1.0,phase_1,,,,,,,,,,,,,magenta,hexagon
1281.0,8.0,4.0,1.0,3.0,3.0,380.9021619999839,1.0,1.0,phase_1,,,,,,,,,,,,,cyan,flipped triangle
634.0,3.0,2.0,0.0,3.0,3.0,519.9438190002184,1.0,1.0,phase_1,,,,,,,,,,,,,green,diamond
1288.0,4.0,4.0,0.0,2.0,2.0,482.244000999799,1.0,1.0,phase_1,,,,,,,,,,,,,orange,cross
177.0,5.0,0.5,1.0,4.0,4.0,493.2074880000527,1.0,1.0,phase_1,,,,,,,,,,,,,magenta,hexagon
333.0,6.0,1.0,1.0,3.0,3.0,352.9584640000394,1.0,1.0,phase_1,,,,,,,,,,,,,white,square
0.0,1.0,0.0,0.0,4.0,4.0,465.1794630001404,1.0,1.0,phase_1,,,,,,,,,,,,,yellow,circle
666.0,3.0,2.0,0.0,2.0,2.0,399.5737560001089,1.0,1.0,phase_1,,,,,,,,,,,,,green,diamond
343.0,6.0,1.0,1.0,2.0,2.0,465.0531859999773,1.0,1.0,phase_1,,,,,,,,,,,,,white,square
331.0,6.0,1.0,1.0,3.0,3.0,343.878777999862,1.0,1.0,phase_1,,,,,,,,,,,,,white,square
186.0,1.0,0.5,0.0,2.0,2.0,382.0356589999392,1.0,1.0,phase_1,,,,,,,,,,,,,yellow,circle
322.0,6.0,1.0,1.0,1.0,1.0,324.7105370001009,1.0,1.0,phase_1,,,,,,,,,,,,,white,square
0.0,7.0,0.0,1.0,2.0,2.0,400.16727599982,1.0,1.0,phase_1,,,,,,,,,,,,,gray,I
0.0,5.0,0.0,1.0,2.0,2.0,362.6514630000201,1.0,1.0,phase_1,,,,,,,,,,,,,magenta,hexagon
666.0,3.0,2.0,0.0,3.0,3.0,398.230490999822,1.0,1.0,phase_1,,,,,,,,,,,,,green,diamond
674.0,7.0,2.0,1.0,1.0,1.0,473.3835639999597,1.0,1.0,phase_1,,,,,,,,,,,,,gray,I
336.0,6.0,1.0,1.0,4.0,4.0,343.2632050000848,1.0,1.0,phase_1,,,,,,,,,,,,,white,square
179.0,1.0,0.5,0.0,3.0,3.0,371.1086689997955,1.0,1.0,phase_1,,,,,,,,,,,,,yellow,circle
1323.0,8.0,4.0,1.0,4.0,4.0,371.3154859999577,1.0,1.0,phase_1,,,,,,,,,,,,,cyan,flipped triangle
634.0,7.0,2.0,1.0,3.0,3.0,315.7486019999851,1.0,1.0,phase_1,,,,,,,,,,,,,gray,I
168.0,1.0,0.5,0.0,4.0,4.0,372.6320010000563,1.0,1.0,phase_1,,,,,,,,,,,,,yellow,circle
1317.0,4.0,4.0,0.0,4.0,4.0,323.9871949999724,1.0,1.0,phase_1,,,,,,,,,,,,,orange,cross
161.0,5.0,0.5,1.0,1.0,1.0,306.8691379999109,1.0,1.0,phase_1,,,,,,,,,,,,,magenta,hexagon
655.0,7.0,2.0,1.0,2.0,2.0,408.00652300004,1.0,1.0,phase_1,,,,,,,,,,,,,gray,I
1316.0,4.0,4.0,0.0,4.0,4.0,344.1044999999576,1.0,1.0,phase_1,,,,,,,,,,,,,orange,cross
174.0,1.0,0.5,0.0,3.0,3.0,288.9081719999922,1.0,1.0,phase_1,,,,,,,,,,,,,yellow,circle
0.0,7.0,0.0,1.0,4.0,4.0,361.6679659999136,1.0,1.0,phase_1,,,,,,,,,,,,,gray,I
1311.0,8.0,4.0,1.0,4.0,4.0,371.8026000001373,1.0,1.0,phase_1,,,,,,,,,,,,,cyan,flipped triangle
184.0,5.0,0.5,1.0,3.0,3.0,297.21126000004,1.0,1.0,phase_1,,,,,,,,,,,,,magenta,hexagon
312.0,6.0,1.0,1.0,4.0,4.0,316.5050709999377,1.0,1.0,phase_1,,,,,,,,,,,,,white,square
637.0,3.0,2.0,0.0,4.0,4.0,408.9404090000244,1.0,1.0,phase_1,,,,,,,,,,,,,green,diamond
154.0,5.0,0.5,1.0,4.0,4.0,390.2120960001412,1.0,1.0,phase_1,,,,,,,,,,,,,magenta,hexagon
0.0,8.0,0.0,1.0,2.0,2.0,519.3348480001987,1.0,1.0,phase_1,,,,,,,,,,,,,cyan,flipped triangle
659.0,7.0,2.0,1.0,2.0,2.0,353.0054880002353,1.0,1.0,phase_1,,,,,,,,,,,,,gray,I
307.0,6.0,1.0,1.0,2.0,2.0,454.159155999605,1.0,1.0,phase_1,,,,,,,,,,,,,white,square
177.0,5.0,0.5,1.0,2.0,2.0,492.3121479996553,1.0,1.0,phase_1,,,,,,,,,,,,,magenta,hexagon
161.0,1.0,0.5,0.0,2.0,2.0,390.3664250001384,1.0,1.0,phase_1,,,,,,,,,,,,,yellow,circle
319.0,6.0,1.0,1.0,2.0,2.0,370.8268880000105,1.0,1.0,phase_1,,,,,,,,,,,,,white,square
302.0,2.0,1.0,0.0,2.0,2.0,371.0244210001292,1.0,1.0,phase_1,,,,,,,,,,,,,blue,triangle
1282.0,8.0,4.0,1.0,1.0,1.0,287.1232150000651,2.0,1.0,phase_1,,,,,,,,,,,,,cyan,flipped triangle
0.0,8.0,0.0,1.0,4.0,4.0,380.794399000024,2.0,1.0,phase_1,,,,,,,,,,,,,cyan,flipped triangle
163.0,5.0,0.5,1.0,2.0,2.0,379.7129410004345,2.0,1.0,phase_1,,,,,,,,,,,,,magenta,hexagon
660.0,3.0,2.0,0.0,1.0,1.0,286.8858729998464,2.0,1.0,phase_1,,,,,,,,,,,,,green,diamond
0.0,3.0,0.0,0.0,1.0,1.0,353.2372250001572,2.0,1.0,phase_1,,,,,,,,,,,,,green,diamond
655.0,3.0,2.0,0.0,4.0,4.0,342.9656710000017,2.0,1.0,phase_1,,,,,,,,,,,,,green,diamond
660.0,7.0,2.0,1.0,1.0,1.0,361.5587929998582,2.0,1.0,phase_1,,,,,,,,,,,,,gray,I
0.0,2.0,0.0,0.0,4.0,4.0,315.5587989999731,2.0,1.0,phase_1,,,,,,,,,,,,,blue,triangle
0.0,3.0,0.0,0.0,4.0,4.0,436.8271420003111,2.0,1.0,phase_1,,,,,,,,,,,,,green,diamond
0.0,1.0,0.0,0.0,2.0,2.0,407.0248250000077,2.0,1.0,phase_1,,,,,,,,,,,,,yellow,circle
1318.0,8.0,4.0,1.0,4.0,4.0,371.0620730003029,2.0,1.0,phase_1,,,,,,,,,,,,,cyan,flipped triangle
643.0,3.0,2.0,0.0,2.0,2.0,343.6669450002227,2.0,1.0,phase_1,,,,,,,,,,,,,green,diamond
1313.0,8.0,4.0,1.0,2.0,2.0,315.262956999959,2.0,1.0,phase_1,,,,,,,,,,,,,cyan,flipped triangle
1309.0,8.0,4.0,1.0,3.0,3.0,351.5348250002716,2.0,1.0,phase_1,,,,,,,,,,,,,cyan,flipped triangle
137.0,1.0,0.5,0.0,2.0,2.0,379.2443909997018,2.0,1.0,phase_1,,,,,,,,,,,,,yellow,circle
651.0,7.0,2.0,1.0,3.0,3.0,388.9132100002825,2.0,1.0,phase_1,,,,,,,,,,,,,gray,I
1296.0,4.0,4.0,0.0,1.0,1.0,398.6199209998631,2.0,1.0,phase_1,,,,,,,,,,,,,orange,cross
649.0,7.0,2.0,1.0,4.0,4.0,398.9859769999384,2.0,1.0,phase_1,,,,,,,,,,,,,gray,I
1304.0,8.0,4.0,1.0,4.0,4.0,426.2012020003567,2.0,1.0,phase_1,,,,,,,,,,,,,cyan,flipped triangle
634.0,3.0,2.0,0.0,3.0,3.0,295.923571000003,2.0,1.0,phase_1,,,,,,,,,,,,,green,diamond
1280.0,8.0,4.0,1.0,1.0,1.0,408.844799000235,2.0,1.0,phase_1,,,,,,,,,,,,,cyan,flipped triangle
1312.0,8.0,4.0,1.0,1.0,1.0,463.6581159998059,2.0,1.0,phase_1,,,,,,,,,,,,,cyan,flipped triangle
152.0,5.0,0.5,1.0,1.0,1.0,362.4007570001595,2.0,1.0,phase_1,,,,,,,,,,,,,magenta,hexagon
162.0,1.0,0.5,0.0,4.0,4.0,315.6964390000212,2.0,1.0,phase_1,,,,,,,,,,,,,yellow,circle
180.0,1.0,0.5,0.0,3.0,3.0,333.2769080002435,2.0,1.0,phase_1,,,,,,,,,,,,,yellow,circle
0.0,7.0,0.0,1.0,3.0,3.0,390.2834500004246,2.0,1.0,phase_1,,,,,,,,,,,,,gray,I
0.0,4.0,0.0,0.0,4.0,4.0,379.700099999809,2.0,1.0,phase_1,,,,,,,,,,,,,orange,cross
0.0,6.0,0.0,1.0,4.0,4.0,343.7235709998276,2.0,1.0,phase_1,,,,,,,,,,,,,white,square
349.0,2.0,1.0,0.0,3.0,3.0,353.1920800000989,2.0,1.0,phase_1,,,,,,,,,,,,,blue,triangle
156.0,5.0,0.5,1.0,4.0,4.0,464.2445850004151,2.0,1.0,phase_1,,,,,,,,,,,,,magenta,hexagon
633.0,3.0,2.0,0.0,3.0,3.0,277.2472800002106,2.0,1.0,phase_1,,,,,,,,,,,,,green,diamond
637.0,7.0,2.0,1.0,3.0,3.0,379.7256850002668,2.0,1.0,phase_1,,,,,,,,,,,,,gray,I
0.0,2.0,0.0,0.0,2.0,2.0,537.4370730000919,2.0,2.0,phase_1,,,,,,,,,,,,,blue,triangle
0.0,7.0,0.0,1.0,1.0,1.0,418.273537999994,2.0,1.0,phase_1,,,,,,,,,,,,,gray,I
1277.0,4.0,4.0,0.0,2.0,2.0,448.0260760001329,2.0,1.0,phase_1,,,,,,,,,,,,,orange,cross
350.0,2.0,1.0,0.0,3.0,3.0,373.6680639999576,2.0,1.0,phase_1,,,,,,,,,,,,,blue,triangle
1276.0,4.0,4.0,0.0,1.0,1.0,353.6191650000546,2.0,1.0,phase_1,,,,,,,,,,,,,orange,cross
1311.0,4.0,4.0,0.0,3.0,3.0,335.7818550002776,2.0,1.0,phase_1,,,,,,,,,,,,,orange,cross
319.0,6.0,1.0,1.0,1.0,1.0,362.8560639999705,2.0,1.0,phase_1,,,,,,,,,,,,,white,square
1302.0,4.0,4.0,0.0,3.0,3.0,297.739508000177,2.0,1.0,phase_1,,,,,,,,,,,,,orange,cross
174.0,5.0,0.5,1.0,3.0,3.0,344.5824330001414,2.0,1.0,phase_1,,,,,,,,,,,,,magenta,hexagon
149.0,5.0,0.5,1.0,3.0,3.0,363.2220060003419,2.0,1.0,phase_1,,,,,,,,,,,,,magenta,hexagon
302.0,6.0,1.0,1.0,1.0,1.0,391.6022779999366,2.0,1.0,phase_1,,,,,,,,,,,,,white,square
182.0,1.0,0.5,0.0,3.0,3.0,504.4678290000775,2.0,1.0,phase_1,,,,,,,,,,,,,yellow,circle
1284.0,4.0,4.0,0.0,3.0,3.0,345.651011999962,2.0,1.0,phase_1,,,,,,,,,,,,,orange,cross
0.0,5.0,0.0,1.0,1.0,1.0,363.4979489997931,2.0,1.0,phase_1,,,,,,,,,,,,,magenta,hexagon
0.0,3.0,0.0,0.0,3.0,3.0,391.8791870000859,2.0,1.0,phase_1,,,,,,,,,,,,,green,diamond
316.0,6.0,1.0,1.0,3.0,3.0,334.7635559998707,2.0,1.0,phase_1,,,,,,,,,,,,,white,square
1278.0,4.0,4.0,0.0,3.0,3.0,325.7793039997523,2.0,1.0,phase_1,,,,,,,,,,,,,orange,cross
1312.0,4.0,4.0,0.0,1.0,1.0,335.233621000043,2.0,1.0,phase_1,,,,,,,,,,,,,orange,cross
162.0,1.0,0.5,0.0,1.0,1.0,382.3372969995944,2.0,1.0,phase_1,,,,,,,,,,,,,yellow,circle
634.0,7.0,2.0,1.0,1.0,1.0,335.0960050001959,2.0,1.0,phase_1,,,,,,,,,,,,,gray,I
147.0,5.0,0.5,1.0,2.0,2.0,560.2508689999013,2.0,1.0,phase_1,,,,,,,,,,,,,magenta,hexagon
1279.0,4.0,4.0,0.0,2.0,2.0,325.8476789997075,2.0,1.0,phase_1,,,,,,,,,,,,,orange,cross
1309.0,4.0,4.0,0.0,3.0,3.0,289.5120190000853,2.0,1.0,phase_1,,,,,,,,,,,,,orange,cross
0.0,7.0,0.0,1.0,1.0,1.0,309.0174909998495,2.0,1.0,phase_1,,,,,,,,,,,,,gray,I
0.0,1.0,0.0,0.0,4.0,4.0,345.237687000008,2.0,1.0,phase_1,,,,,,,,,,,,,yellow,circle
0.0,8.0,0.0,1.0,4.0,4.0,538.397779999741,2.0,1.0,phase_1,,,,,,,,,,,,,cyan,flipped triangle
0.0,8.0,0.0,1.0,1.0,1.0,409.4935389998682,2.0,1.0,phase_1,,,,,,,,,,,,,cyan,flipped triangle
330.0,6.0,1.0,1.0,3.0,3.0,308.534107000014,2.0,1.0,phase_1,,,,,,,,,,,,,white,square
1325.0,8.0,4.0,1.0,2.0,2.0,400.5272730000797,2.0,1.0,phase_1,,,,,,,,,,,,,cyan,flipped triangle
633.0,7.0,2.0,1.0,2.0,2.0,297.8718580002351,2.0,1.0,phase_1,,,,,,,,,,,,,gray,I
160.0,5.0,0.5,1.0,2.0,2.0,289.0858040000239,2.0,1.0,phase_1,,,,,,,,,,,,,magenta,hexagon
0.0,1.0,0.0,0.0,3.0,3.0,317.4952760000451,2.0,1.0,phase_1,,,,,,,,,,,,,yellow,circle
331.0,6.0,1.0,1.0,1.0,1.0,307.4136239997642,2.0,1.0,phase_1,,,,,,,,,,,,,white,square
648.0,7.0,2.0,1.0,1.0,1.0,382.333283999742,2.0,1.0,phase_1,,,,,,,,,,,,,gray,I
0.0,8.0,0.0,1.0,3.0,3.0,326.6749239996898,2.0,1.0,phase_1,,,,,,,,,,,,,cyan,flipped triangle
169.0,1.0,0.5,0.0,4.0,4.0,354.0284250002514,2.0,1.0,phase_1,,,,,,,,,,,,,yellow,circle
310.0,6.0,1.0,1.0,4.0,4.0,400.3274200003943,2.0,1.0,phase_1,,,,,,,,,,,,,white,square
1313.0,4.0,4.0,0.0,1.0,1.0,567.7835940000477,2.0,1.0,phase_1,,,,,,,,,,,,,orange,cross
637.0,3.0,2.0,0.0,3.0,3.0,287.1276399996532,2.0,1.0,phase_1,,,,,,,,,,,,,green,diamond
644.0,3.0,2.0,0.0,2.0,2.0,316.181658000005,2.0,1.0,phase_1,,,,,,,,,,,,,green,diamond
1324.0,4.0,4.0,0.0,3.0,3.0,344.1474640003434,2.0,1.0,phase_1,,,,,,,,,,,,,orange,cross
161.0,1.0,0.5,0.0,2.0,2.0,530.9138450002138,2.0,2.0,phase_1,,,,,,,,,,,,,yellow,circle
632.0,3.0,2.0,0.0,2.0,2.0,447.2555549996286,2.0,1.0,phase_1,,,,,,,,,,,,,green,diamond
321.0,2.0,1.0,0.0,3.0,3.0,315.7390869996561,2.0,1.0,phase_1,,,,,,,,,,,,,blue,triangle
659.0,3.0,2.0,0.0,4.0,4.0,364.0762600002745,2.0,1.0,phase_1,,,,,,,,,,,,,green,diamond
342.0,6.0,1.0,1.0,4.0,4.0,344.383088000086,2.0,1.0,phase_1,,,,,,,,,,,,,white,square
0.0,3.0,0.0,0.0,3.0,3.0,327.4860090000402,2.0,1.0,phase_1,,,,,,,,,,,,,green,diamond
141.0,1.0,0.5,0.0,3.0,3.0,363.0119450003803,2.0,1.0,phase_1,,,,,,,,,,,,,yellow,circle
143.0,5.0,0.5,1.0,1.0,1.0,510.59660200007784,2.0,1.0,phase_1,,,,,,,,,,,,,magenta,hexagon
336.0,2.0,1.0,0.0,1.0,1.0,437.0649950001279,2.0,1.0,phase_1,,,,,,,,,,,,,blue,triangle
645.0,3.0,2.0,0.0,2.0,2.0,454.8151599997254,2.0,1.0,phase_1,,,,,,,,,,,,,green,diamond
1322.0,8.0,4.0,1.0,2.0,2.0,410.9806309998021,2.0,1.0,phase_1,,,,,,,,,,,,,cyan,flipped triangle
0.0,1.0,0.0,0.0,4.0,4.0,436.4628610001091,2.0,1.0,phase_1,,,,,,,,,,,,,yellow,circle
185.0,5.0,0.5,1.0,1.0,1.0,353.8117970001622,2.0,1.0,phase_1,,,,,,,,,,,,,magenta,hexagon
0.0,3.0,0.0,0.0,1.0,1.0,372.6869679999254,2.0,1.0,phase_1,,,,,,,,,,,,,green,diamond
652.0,7.0,2.0,1.0,3.0,3.0,307.1939980000024,2.0,1.0,phase_1,,,,,,,,,,,,,gray,I
149.0,1.0,0.5,0.0,1.0,1.0,455.9875830000237,2.0,1.0,phase_1,,,,,,,,,,,,,yellow,circle
0.0,5.0,0.0,1.0,3.0,3.0,345.5562440003632,2.0,1.0,phase_1,,,,,,,,,,,,,magenta,hexagon
657.0,3.0,2.0,0.0,1.0,1.0,384.7850570000446,2.0,1.0,phase_1,,,,,,,,,,,,,green,diamond
0.0,2.0,0.0,0.0,3.0,3.0,556.5405930001361,2.0,1.0,phase_1,,,,,,,,,,,,,blue,triangle
161.0,5.0,0.5,1.0,3.0,3.0,354.0638249996846,2.0,1.0,phase_1,,,,,,,,,,,,,magenta,hexagon
330.0,6.0,1.0,1.0,4.0,4.0,606.9656680001572,2.0,1.0,phase_1,,,,,,,,,,,,,white,square
185.0,1.0,0.5,0.0,1.0,1.0,470.7624480001868,2.0,1.0,phase_1,,,,,,,,,,,,,yellow,circle
1309.0,4.0,4.0,0.0,4.0,4.0,475.6709590001264,2.0,1.0,phase_1,,,,,,,,,,,,,orange,cross
322.0,2.0,1.0,0.0,2.0,2.0,567.3235609997391,2.0,1.0,phase_1,,,,,,,,,,,,,blue,triangle
634.0,7.0,2.0,1.0,1.0,1.0,407.3961139997664,2.0,1.0,phase_1,,,,,,,,,,,,,gray,I
634.0,7.0,2.0,1.0,4.0,4.0,315.5420660000345,2.0,1.0,phase_1,,,,,,,,,,,,,gray,I
137.0,5.0,0.5,1.0,4.0,4.0,390.7918059999247,2.0,1.0,phase_1,,,,,,,,,,,,,magenta,hexagon
350.0,6.0,1.0,1.0,4.0,4.0,512.0585949998713,3.0,1.0,phase_1,,,,,,,,,,,,,white,square
146.0,5.0,0.5,1.0,3.0,3.0,400.3354720002789,3.0,1.0,phase_1,,,,,,,,,,,,,magenta,hexagon
0.0,3.0,0.0,0.0,2.0,2.0,410.4526940000141,3.0,1.0,phase_1,,,,,,,,,,,,,green,diamond
0.0,4.0,0.0,0.0,4.0,4.0,388.2953659999657,3.0,1.0,phase_1,,,,,,,,,,,,,orange,cross
1322.0,4.0,4.0,0.0,2.0,2.0,317.5020230000882,3.0,1.0,phase_1,,,,,,,,,,,,,orange,cross
143.0,1.0,0.5,0.0,2.0,2.0,325.744386000224,3.0,1.0,phase_1,,,,,,,,,,,,,yellow,circle
1307.0,8.0,4.0,1.0,2.0,2.0,362.2822190000079,3.0,1.0,phase_1,,,,,,,,,,,,,cyan,flipped triangle
1318.0,4.0,4.0,0.0,1.0,1.0,343.6825869998756,3.0,1.0,phase_1,,,,,,,,,,,,,orange,cross
174.0,5.0,0.5,1.0,1.0,1.0,409.852557999784,3.0,1.0,phase_1,,,,,,,,,,,,,magenta,hexagon
0.0,4.0,0.0,0.0,4.0,4.0,345.0367010000263,3.0,1.0,phase_1,,,,,,,,,,,,,orange,cross
0.0,4.0,0.0,0.0,3.0,3.0,372.2609860001284,3.0,1.0,phase_1,,,,,,,,,,,,,orange,cross
1290.0,4.0,4.0,0.0,4.0,4.0,399.3763879998369,3.0,1.0,phase_1,,,,,,,,,,,,,orange,cross
1282.0,4.0,4.0,0.0,4.0,4.0,353.3367260001796,3.0,1.0,phase_1,,,,,,,,,,,,,orange,cross
337.0,6.0,1.0,1.0,3.0,3.0,353.729698999814,3.0,1.0,phase_1,,,,,,,,,,,,,white,square
326.0,2.0,1.0,0.0,4.0,4.0,344.3489239998598,3.0,1.0,phase_1,,,,,,,,,,,,,blue,triangle
0.0,3.0,0.0,0.0,4.0,4.0,392.9658810002365,3.0,1.0,phase_1,,,,,,,,,,,,,green,diamond
164.0,5.0,0.5,1.0,3.0,3.0,287.9366079996543,3.0,1.0,phase_1,,,,,,,,,,,,,magenta,hexagon
0.0,6.0,0.0,1.0,1.0,1.0,371.6565539998555,3.0,1.0,phase_1,,,,,,,,,,,,,white,square
1325.0,4.0,4.0,0.0,2.0,2.0,495.5213160001221,3.0,1.0,phase_1,,,,,,,,,,,,,orange,cross
0.0,4.0,0.0,0.0,2.0,2.0,527.8939449999598,3.0,1.0,phase_1,,,,,,,,,,,,,orange,cross
666.0,3.0,2.0,0.0,1.0,1.0,362.6911779997499,3.0,1.0,phase_1,,,,,,,,,,,,,green,diamond
674.0,7.0,2.0,1.0,4.0,4.0,436.2836320001406,3.0,1.0,phase_1,,,,,,,,,,,,,gray,I
1306.0,4.0,4.0,0.0,3.0,3.0,400.2266769998641,3.0,1.0,phase_1,,,,,,,,,,,,,orange,cross
0.0,2.0,0.0,0.0,2.0,2.0,418.3360739998534,3.0,1.0,phase_1,,,,,,,,,,,,,blue,triangle
156.0,1.0,0.5,0.0,3.0,3.0,382.2983899999599,3.0,1.0,phase_1,,,,,,,,,,,,,yellow,circle
165.0,5.0,0.5,1.0,4.0,4.0,362.351143000069,3.0,1.0,phase_1,,,,,,,,,,,,,magenta,hexagon
162.0,5.0,0.5,1.0,1.0,1.0,400.3127099999801,3.0,1.0,phase_1,,,,,,,,,,,,,magenta,hexagon
340.0,2.0,1.0,0.0,4.0,4.0,446.3063709999915,3.0,1.0,phase_1,,,,,,,,,,,,,blue,triangle
670.0,3.0,2.0,0.0,1.0,1.0,372.5429569999505,3.0,1.0,phase_1,,,,,,,,,,,,,green,diamond
181.0,5.0,0.5,1.0,4.0,4.0,401.4892010000039,3.0,1.0,phase_1,,,,,,,,,,,,,magenta,hexagon
1280.0,4.0,4.0,0.0,2.0,2.0,409.8243860003094,3.0,1.0,phase_1,,,,,,,,,,,,,orange,cross
0.0,8.0,0.0,1.0,2.0,2.0,482.8826299999491,3.0,1.0,phase_1,,,,,,,,,,,,,cyan,flipped triangle
637.0,7.0,2.0,1.0,1.0,1.0,457.1854880000501,3.0,1.0,phase_1,,,,,,,,,,,,,gray,I
341.0,2.0,1.0,0.0,1.0,1.0,418.5225789997275,3.0,1.0,phase_1,,,,,,,,,,,,,blue,triangle
300.0,2.0,1.0,0.0,1.0,1.0,363.9287490000242,3.0,1.0,phase_1,,,,,,,,,,,,,blue,triangle
0.0,7.0,0.0,1.0,3.0,3.0,352.9185649999817,3.0,1.0,phase_1,,,,,,,,,,,,,gray,I
0.0,8.0,0.0,1.0,2.0,2.0,564.7815359998276,3.0,1.0,phase_1,,,,,,,,,,,,,cyan,flipped triangle
142.0,1.0,0.5,0.0,1.0,1.0,353.4436340000866,3.0,1.0,phase_1,,,,,,,,,,,,,yellow,circle
1314.0,4.0,4.0,0.0,4.0,4.0,500.9085000001505,3.0,1.0,phase_1,,,,,,,,,,,,,orange,cross
0.0,5.0,0.0,1.0,2.0,2.0,662.2521959998267,3.0,1.0,phase_1,,,,,,,,,,,,,magenta,hexagon
0.0,6.0,0.0,1.0,3.0,3.0,363.3993799999189,3.0,1.0,phase_1,,,,,,,,,,,,,white,square
303.0,2.0,1.0,0.0,4.0,4.0,335.2783109999109,3.0,1.0,phase_1,,,,,,,,,,,,,blue,triangle
1318.0,4.0,4.0,0.0,4.0,4.0,454.8499160000574,3.0,1.0,phase_1,,,,,,,,,,,,,orange,cross
634.0,3.0,2.0,0.0,4.0,4.0,373.8826280000467,3.0,1.0,phase_1,,,,,,,,,,,,,green,diamond
180.0,5.0,0.5,1.0,2.0,2.0,531.2809120000566,3.0,1.0,phase_1,,,,,,,,,,,,,magenta,hexagon
0.0,3.0,0.0,0.0,2.0,2.0,546.482651000133,3.0,1.0,phase_1,,,,,,,,,,,,,green,diamond
316.0,2.0,1.0,0.0,2.0,2.0,454.7722120000799,3.0,1.0,phase_1,,,,,,,,,,,,,blue,triangle
328.0,2.0,1.0,0.0,1.0,1.0,475.2319079998415,3.0,1.0,phase_1,,,,,,,,,,,,,blue,triangle
659.0,3.0,2.0,0.0,2.0,2.0,428.5756670001319,3.0,1.0,phase_1,,,,,,,,,,,,,green,diamond
628.0,7.0,2.0,1.0,2.0,2.0,399.0808369999286,3.0,1.0,phase_1,,,,,,,,,,,,,gray,I
138.0,5.0,0.5,1.0,1.0,1.0,352.6164269997025,3.0,1.0,phase_1,,,,,,,,,,,,,magenta,hexagon
319.0,6.0,1.0,1.0,2.0,2.0,419.536565999806,3.0,1.0,phase_1,,,,,,,,,,,,,white,square
0.0,2.0,0.0,0.0,3.0,3.0,400.0744300001315,3.0,1.0,phase_1,,,,,,,,,,,,,blue,triangle
333.0,2.0,1.0,0.0,2.0,2.0,409.9749769998198,3.0,1.0,phase_1,,,,,,,,,,,,,blue,triangle
638.0,7.0,2.0,1.0,4.0,4.0,408.062806000089,3.0,1.0,phase_1,,,,,,,,,,,,,gray,I
1300.0,4.0,4.0,0.0,2.0,2.0,401.8419570002152,3.0,1.0,phase_1,,,,,,,,,,,,,orange,cross
174.0,5.0,0.5,1.0,3.0,3.0,307.1606449998398,3.0,1.0,phase_1,,,,,,,,,,,,,magenta,hexagon
658.0,3.0,2.0,0.0,1.0,1.0,316.1091730003136,3.0,1.0,phase_1,,,,,,,,,,,,,green,diamond
628.0,3.0,2.0,0.0,4.0,4.0,390.9137450000344,3.0,1.0,phase_1,,,,,,,,,,,,,green,diamond
0.0,6.0,0.0,1.0,3.0,3.0,418.3055929997863,3.0,1.0,phase_1,,,,,,,,,,,,,white,square
0.0,7.0,0.0,1.0,2.0,2.0,352.9049130002022,3.0,1.0,phase_1,,,,,,,,,,,,,gray,I
674.0,3.0,2.0,0.0,3.0,3.0,316.2988660001247,3.0,1.0,phase_1,,,,,,,,,,,,,green,diamond
1306.0,8.0,4.0,1.0,1.0,1.0,352.3489560002417,3.0,1.0,phase_1,,,,,,,,,,,,,cyan,flipped triangle
660.0,7.0,2.0,1.0,2.0,2.0,388.7444280003365,3.0,1.0,phase_1,,,,,,,,,,,,,gray,I
656.0,3.0,2.0,0.0,4.0,4.0,305.4946100000961,3.0,1.0,phase_1,,,,,,,,,,,,,green,diamond
139.0,1.0,0.5,0.0,3.0,3.0,335.5032810000011,3.0,1.0,phase_1,,,,,,,,,,,,,yellow,circle
1307.0,4.0,4.0,0.0,3.0,3.0,398.9121110002998,3.0,1.0,phase_1,,,,,,,,,,,,,orange,cross
342.0,2.0,1.0,0.0,3.0,3.0,325.6266620001042,3.0,1.0,phase_1,,,,,,,,,,,,,blue,triangle
307.0,2.0,1.0,0.0,4.0,4.0,353.5022989999561,3.0,1.0,phase_1,,,,,,,,,,,,,blue,triangle
160.0,1.0,0.5,0.0,4.0,4.0,548.9976270000625,3.0,1.0,phase_1,,,,,,,,,,,,,yellow,circle
0.0,4.0,0.0,0.0,2.0,2.0,742.678598999646,3.0,1.0,phase_1,,,,,,,,,,,,,orange,cross
0.0,6.0,0.0,1.0,4.0,4.0,380.6456309998793,3.0,1.0,phase_1,,,,,,,,,,,,,white,square
1280.0,8.0,4.0,1.0,4.0,4.0,334.3647009996857,3.0,1.0,phase_1,,,,,,,,,,,,,cyan,flipped triangle
323.0,2.0,1.0,0.0,2.0,2.0,353.3355750000737,3.0,1.0,phase_1,,,,,,,,,,,,,blue,triangle
1284.0,8.0,4.0,1.0,1.0,1.0,427.5551820001055,3.0,1.0,phase_1,,,,,,,,,,,,,cyan,flipped triangle
660.0,3.0,2.0,0.0,4.0,4.0,437.3133789999883,3.0,1.0,phase_1,,,,,,,,,,,,,green,diamond
305.0,2.0,1.0,0.0,3.0,3.0,371.8332029998237,3.0,1.0,phase_1,,,,,,,,,,,,,blue,triangle
0.0,5.0,0.0,1.0,3.0,3.0,418.7142759997186,3.0,1.0,phase_1,,,,,,,,,,,,,magenta,hexagon
634.0,3.0,2.0,0.0,1.0,1.0,473.6736230001952,3.0,1.0,phase_1,,,,,,,,,,,,,green,diamond
336.0,6.0,1.0,1.0,1.0,1.0,444.9918000000252,3.0,1.0,phase_1,,,,,,,,,,,,,white,square
144.0,1.0,0.5,0.0,1.0,1.0,407.3843270002726,3.0,1.0,phase_1,,,,,,,,,,,,,yellow,circle
322.0,6.0,1.0,1.0,2.0,2.0,641.6100319997895,3.0,1.0,phase_1,,,,,,,,,,,,,white,square
660.0,7.0,2.0,1.0,1.0,1.0,390.333321000071,3.0,1.0,phase_1,,,,,,,,,,,,,gray,I
165.0,1.0,0.5,0.0,2.0,2.0,381.4557589998912,3.0,1.0,phase_1,,,,,,,,,,,,,yellow,circle
319.0,2.0,1.0,0.0,4.0,4.0,473.4883969999828,3.0,2.0,phase_1,,,,,,,,,,,,,blue,triangle
626.0,7.0,2.0,1.0,2.0,2.0,439.2261110001527,3.0,1.0,phase_1,,,,,,,,,,,,,gray,I
156.0,1.0,0.5,0.0,4.0,4.0,409.8964169997998,3.0,1.0,phase_1,,,,,,,,,,,,,yellow,circle
649.0,3.0,2.0,0.0,4.0,4.0,418.4089820000736,3.0,1.0,phase_1,,,,,,,,,,,,,green,diamond
162.0,5.0,0.5,1.0,3.0,3.0,382.8582159999314,3.0,1.0,phase_1,,,,,,,,,,,,,magenta,hexagon
0.0,2.0,0.0,0.0,2.0,2.0,568.0693760000395,3.0,1.0,phase_1,,,,,,,,,,,,,blue,triangle
0.0,2.0,0.0,0.0,4.0,4.0,372.1199070000693,3.0,1.0,phase_1,,,,,,,,,,,,,blue,triangle
1278.0,8.0,4.0,1.0,2.0,2.0,456.0857149999719,3.0,1.0,phase_1,,,,,,,,,,,,,cyan,flipped triangle
322.0,2.0,1.0,0.0,1.0,1.0,428.61658899983007,3.0,1.0,phase_1,,,,,,,,,,,,,blue,triangle
646.0,3.0,2.0,0.0,1.0,1.0,372.5178210002013,3.0,1.0,phase_1,,,,,,,,,,,,,green,diamond
666.0,7.0,2.0,1.0,3.0,3.0,604.7432109999136,3.0,1.0,phase_1,,,,,,,,,,,,,gray,I
663.0,7.0,2.0,1.0,4.0,4.0,371.6114370004106,3.0,1.0,phase_1,,,,,,,,,,,,,gray,I
0.0,1.0,0.0,0.0,4.0,4.0,372.5131050000527,3.0,1.0,phase_1,,,,,,,,,,,,,yellow,circle
154.0,1.0,0.5,0.0,2.0,2.0,400.1034150001032,3.0,1.0,phase_1,,,,,,,,,,,,,yellow,circle
629.0,7.0,2.0,1.0,3.0,3.0,492.625199000031,3.0,1.0,phase_1,,,,,,,,,,,,,gray,I
169.0,5.0,0.5,1.0,4.0,4.0,353.3354200003487,3.0,1.0,phase_1,,,,,,,,,,,,,magenta,hexagon
310.0,2.0,1.0,0.0,2.0,2.0,355.3581459996167,4.0,1.0,phase_1,,,,,,,,,,,,,blue,triangle
1276.0,8.0,4.0,1.0,4.0,4.0,475.2589880004052,4.0,1.0,phase_1,,,,,,,,,,,,,cyan,flipped triangle
638.0,3.0,2.0,0.0,2.0,2.0,344.735670999853,4.0,1.0,phase_1,,,,,,,,,,,,,green,diamond
638.0,7.0,2.0,1.0,1.0,1.0,455.3435200000422,4.0,1.0,phase_1,,,,,,,,,,,,,gray,I
1277.0,8.0,4.0,1.0,2.0,2.0,345.0607390000186,4.0,1.0,phase_1,,,,,,,,,,,,,cyan,flipped triangle
341.0,6.0,1.0,1.0,4.0,4.0,446.5950889998566,4.0,1.0,phase_1,,,,,,,,,,,,,white,square
652.0,3.0,2.0,0.0,3.0,3.0,503.0792630000178,4.0,1.0,phase_1,,,,,,,,,,,,,green,diamond
349.0,2.0,1.0,0.0,3.0,3.0,586.335851000058,4.0,1.0,phase_1,,,,,,,,,,,,,blue,triangle
163.0,1.0,0.5,0.0,4.0,4.0,364.3571560000964,4.0,1.0,phase_1,,,,,,,,,,,,,yellow,circle
326.0,6.0,1.0,1.0,4.0,4.0,438.734672999999,4.0,1.0,phase_1,,,,,,,,,,,,,white,square
1289.0,4.0,4.0,0.0,1.0,1.0,390.5281709999144,4.0,1.0,phase_1,,,,,,,,,,,,,orange,cross
0.0,1.0,0.0,0.0,3.0,3.0,325.3695080002217,4.0,1.0,phase_1,,,,,,,,,,,,,yellow,circle
156.0,5.0,0.5,1.0,4.0,4.0,345.2166590000161,4.0,1.0,phase_1,,,,,,,,,,,,,magenta,hexagon
0.0,4.0,0.0,0.0,4.0,4.0,333.9796930004013,4.0,1.0,phase_1,,,,,,,,,,,,,orange,cross
343.0,2.0,1.0,0.0,3.0,3.0,362.089998999636,4.0,1.0,phase_1,,,,,,,,,,,,,blue,triangle
655.0,3.0,2.0,0.0,3.0,3.0,382.2449099998266,4.0,1.0,phase_1,,,,,,,,,,,,,green,diamond
1309.0,8.0,4.0,1.0,2.0,2.0,417.4764849999519,4.0,1.0,phase_1,,,,,,,,,,,,,cyan,flipped triangle
0.0,6.0,0.0,1.0,2.0,2.0,363.086784999723,4.0,1.0,phase_1,,,,,,,,,,,,,white,square
1288.0,8.0,4.0,1.0,3.0,3.0,334.6453549997932,4.0,1.0,phase_1,,,,,,,,,,,,,cyan,flipped triangle
643.0,7.0,2.0,1.0,4.0,4.0,325.1444970001103,4.0,1.0,phase_1,,,,,,,,,,,,,gray,I
660.0,3.0,2.0,0.0,4.0,4.0,399.5312910001303,4.0,1.0,phase_1,,,,,,,,,,,,,green,diamond
663.0,3.0,2.0,0.0,1.0,1.0,670.8416600004057,4.0,1.0,phase_1,,,,,,,,,,,,,green,diamond
1297.0,4.0,4.0,0.0,3.0,3.0,315.4382430002442,4.0,1.0,phase_1,,,,,,,,,,,,,orange,cross
174.0,1.0,0.5,0.0,4.0,4.0,429.2988499996681,4.0,1.0,phase_1,,,,,,,,,,,,,yellow,circle
641.0,3.0,2.0,0.0,2.0,2.0,594.7343900002124,4.0,1.0,phase_1,,,,,,,,,,,,,green,diamond
319.0,2.0,1.0,0.0,4.0,4.0,389.0104559995961,4.0,1.0,phase_1,,,,,,,,,,,,,blue,triangle
0.0,6.0,0.0,1.0,4.0,4.0,427.9489629998352,4.0,1.0,phase_1,,,,,,,,,,,,,white,square
655.0,7.0,2.0,1.0,4.0,4.0,446.0838489999332,4.0,1.0,phase_1,,,,,,,,,,,,,gray,I
340.0,6.0,1.0,1.0,2.0,2.0,454.6188529998289,4.0,1.0,phase_1,,,,,,,,,,,,,white,square
330.0,2.0,1.0,0.0,1.0,1.0,399.9363129996709,4.0,1.0,phase_1,,,,,,,,,,,,,blue,triangle
0.0,4.0,0.0,0.0,4.0,4.0,379.5402390001072,4.0,1.0,phase_1,,,,,,,,,,,,,orange,cross
312.0,2.0,1.0,0.0,2.0,2.0,435.3525540000191,4.0,1.0,phase_1,,,,,,,,,,,,,blue,triangle
323.0,6.0,1.0,1.0,1.0,1.0,333.3503300000302,4.0,1.0,phase_1,,,,,,,,,,,,,white,square
644.0,7.0,2.0,1.0,1.0,1.0,426.8806109998877,4.0,1.0,phase_1,,,,,,,,,,,,,gray,I
177.0,1.0,0.5,0.0,4.0,4.0,334.8549399997864,4.0,1.0,phase_1,,,,,,,,,,,,,yellow,circle
332.0,2.0,1.0,0.0,3.0,3.0,529.6980970001641,4.0,1.0,phase_1,,,,,,,,,,,,,blue,triangle
1285.0,8.0,4.0,1.0,2.0,2.0,315.4522929999075,4.0,1.0,phase_1,,,,,,,,,,,,,cyan,flipped triangle
1288.0,8.0,4.0,1.0,2.0,2.0,352.8297110001404,4.0,1.0,phase_1,,,,,,,,,,,,,cyan,flipped triangle
146.0,1.0,0.5,0.0,1.0,1.0,390.0099010002122,4.0,1.0,phase_1,,,,,,,,,,,,,yellow,circle
182.0,5.0,0.5,1.0,3.0,3.0,324.8313680001047,4.0,1.0,phase_1,,,,,,,,,,,,,magenta,hexagon
672.0,7.0,2.0,1.0,4.0,4.0,427.9391599998234,4.0,1.0,phase_1,,,,,,,,,,,,,gray,I
666.0,7.0,2.0,1.0,1.0,1.0,408.8177730000097,4.0,1.0,phase_1,,,,,,,,,,,,,gray,I
311.0,2.0,1.0,0.0,2.0,2.0,518.8348300002872,4.0,1.0,phase_1,,,,,,,,,,,,,blue,triangle
648.0,3.0,2.0,0.0,2.0,2.0,353.2984909998049,4.0,1.0,phase_1,,,,,,,,,,,,,green,diamond
179.0,5.0,0.5,1.0,1.0,1.0,362.2111770000629,4.0,1.0,phase_1,,,,,,,,,,,,,magenta,hexagon
350.0,6.0,1.0,1.0,4.0,4.0,297.8342719998181,4.0,1.0,phase_1,,,,,,,,,,,,,white,square
0.0,2.0,0.0,0.0,1.0,1.0,333.6769010002172,4.0,1.0,phase_1,,,,,,,,,,,,,blue,triangle
0.0,1.0,0.0,0.0,1.0,1.0,361.4728200000172,4.0,1.0,phase_1,,,,,,,,,,,,,yellow,circle
331.0,2.0,1.0,0.0,4.0,4.0,371.9706869997026,4.0,1.0,phase_1,,,,,,,,,,,,,blue,triangle
1286.0,4.0,4.0,0.0,1.0,1.0,353.4298800000215,4.0,1.0,phase_1,,,,,,,,,,,,,orange,cross
0.0,6.0,0.0,1.0,3.0,3.0,343.6177159996987,4.0,1.0,phase_1,,,,,,,,,,,,,white,square
674.0,3.0,2.0,0.0,1.0,1.0,279.6419649998825,4.0,1.0,phase_1,,,,,,,,,,,,,green,diamond
1286.0,8.0,4.0,1.0,4.0,4.0,398.4922149998056,4.0,1.0,phase_1,,,,,,,,,,,,,cyan,flipped triangle
1314.0,8.0,4.0,1.0,3.0,3.0,315.9802540003511,4.0,1.0,phase_1,,,,,,,,,,,,,cyan,flipped triangle
150.0,5.0,0.5,1.0,4.0,4.0,435.5543459996625,4.0,1.0,phase_1,,,,,,,,,,,,,magenta,hexagon
177.0,1.0,0.5,0.0,1.0,1.0,361.7175060003319,4.0,1.0,phase_1,,,,,,,,,,,,,yellow,circle
304.0,2.0,1.0,0.0,3.0,3.0,297.4158199999692,4.0,1.0,phase_1,,,,,,,,,,,,,blue,triangle
1302.0,8.0,4.0,1.0,1.0,1.0,410.7013169996207,4.0,1.0,phase_1,,,,,,,,,,,,,cyan,flipped triangle
304.0,6.0,1.0,1.0,3.0,3.0,325.407443000131,4.0,1.0,phase_1,,,,,,,,,,,,,white,square
646.0,7.0,2.0,1.0,4.0,4.0,325.3537739997227,4.0,1.0,phase_1,,,,,,,,,,,,,gray,I
1318.0,8.0,4.0,1.0,4.0,4.0,337.3002539997287,4.0,1.0,phase_1,,,,,,,,,,,,,cyan,flipped triangle
139.0,5.0,0.5,1.0,4.0,4.0,427.0933150000928,4.0,1.0,phase_1,,,,,,,,,,,,,magenta,hexagon
666.0,7.0,2.0,1.0,2.0,2.0,567.6667090001501,4.0,1.0,phase_1,,,,,,,,,,,,,gray,I
319.0,2.0,1.0,0.0,1.0,1.0,372.2497369999473,4.0,1.0,phase_1,,,,,,,,,,,,,blue,triangle
0.0,8.0,0.0,1.0,1.0,1.0,419.249131000015,4.0,1.0,phase_1,,,,,,,,,,,,,cyan,flipped triangle
629.0,3.0,2.0,0.0,4.0,4.0,306.101783000031,4.0,1.0,phase_1,,,,,,,,,,,,,green,diamond
336.0,2.0,1.0,0.0,2.0,2.0,370.5036319997816,4.0,1.0,phase_1,,,,,,,,,,,,,blue,triangle
330.0,2.0,1.0,0.0,1.0,1.0,324.2100410002422,4.0,1.0,phase_1,,,,,,,,,,,,,blue,triangle
328.0,6.0,1.0,1.0,2.0,2.0,481.8946070004131,4.0,1.0,phase_1,,,,,,,,,,,,,white,square
659.0,7.0,2.0,1.0,2.0,2.0,464.3984770000315,4.0,1.0,phase_1,,,,,,,,,,,,,gray,I
1300.0,8.0,4.0,1.0,3.0,3.0,362.4206579997917,4.0,1.0,phase_1,,,,,,,,,,,,,cyan,flipped triangle
1304.0,4.0,4.0,0.0,2.0,2.0,437.5029159996302,4.0,1.0,phase_1,,,,,,,,,,,,,orange,cross
0.0,5.0,0.0,1.0,3.0,3.0,400.2721689998907,4.0,1.0,phase_1,,,,,,,,,,,,,magenta,hexagon
1317.0,8.0,4.0,1.0,1.0,1.0,450.5740139998124,4.0,1.0,phase_1,,,,,,,,,,,,,cyan,flipped triangle
645.0,7.0,2.0,1.0,3.0,3.0,344.6212200001355,4.0,1.0,phase_1,,,,,,,,,,,,,gray,I
0.0,5.0,0.0,1.0,2.0,2.0,381.4125249996323,4.0,1.0,phase_1,,,,,,,,,,,,,magenta,hexagon
349.0,6.0,1.0,1.0,1.0,1.0,407.3376639998969,4.0,1.0,phase_1,,,,,,,,,,,,,white,square
141.0,5.0,0.5,1.0,1.0,1.0,315.6861470001786,4.0,1.0,phase_1,,,,,,,,,,,,,magenta,hexagon
1290.0,8.0,4.0,1.0,4.0,4.0,418.598306000149,4.0,1.0,phase_1,,,,,,,,,,,,,cyan,flipped triangle
1316.0,8.0,4.0,1.0,3.0,3.0,390.0506119998681,4.0,1.0,phase_1,,,,,,,,,,,,,cyan,flipped triangle
626.0,3.0,2.0,0.0,3.0,3.0,418.7129479996656,4.0,1.0,phase_1,,,,,,,,,,,,,green,diamond
337.0,2.0,1.0,0.0,4.0,4.0,481.9422089999534,4.0,1.0,phase_1,,,,,,,,,,,,,blue,triangle
303.0,6.0,1.0,1.0,2.0,2.0,436.1570490000304,4.0,1.0,phase_1,,,,,,,,,,,,,white,square
346.0,6.0,1.0,1.0,3.0,3.0,361.3651389996448,4.0,1.0,phase_1,,,,,,,,,,,,,white,square
0.0,4.0,0.0,0.0,2.0,2.0,483.9783049997095,4.0,1.0,phase_1,,,,,,,,,,,,,orange,cross
184.0,1.0,0.5,0.0,1.0,1.0,390.2711619998626,4.0,1.0,phase_1,,,,,,,,,,,,,yellow,circle
307.0,2.0,1.0,0.0,4.0,4.0,336.7091079999227,4.0,1.0,phase_1,,,,,,,,,,,,,blue,triangle
0.0,5.0,0.0,1.0,4.0,4.0,426.844157999767,4.0,1.0,phase_1,,,,,,,,,,,,,magenta,hexagon
0.0,2.0,0.0,0.0,2.0,2.0,482.2813000000678,4.0,2.0,phase_1,,,,,,,,,,,,,blue,triangle
165.0,5.0,0.5,1.0,2.0,2.0,492.3908000000665,4.0,1.0,phase_1,,,,,,,,,,,,,magenta,hexagon
174.0,1.0,0.5,0.0,4.0,4.0,420.5051509998156,4.0,1.0,phase_1,,,,,,,,,,,,,yellow,circle
1280.0,4.0,4.0,0.0,3.0,3.0,400.1504319999185,4.0,1.0,phase_1,,,,,,,,,,,,,orange,cross
138.0,1.0,0.5,0.0,3.0,3.0,436.7063429999689,4.0,1.0,phase_1,,,,,,,,,,,,,yellow,circle
0.0,3.0,0.0,0.0,4.0,4.0,373.3347950001189,4.0,1.0,phase_1,,,,,,,,,,,,,green,diamond
1285.0,4.0,4.0,0.0,4.0,4.0,466.4840549999098,4.0,1.0,phase_1,,,,,,,,,,,,,orange,cross
164.0,1.0,0.5,0.0,2.0,2.0,390.1837160001378,4.0,1.0,phase_1,,,,,,,,,,,,,yellow,circle
0.0,1.0,0.0,0.0,1.0,1.0,529.9214729998312,4.0,1.0,phase_1,,,,,,,,,,,,,yellow,circle
176.0,1.0,0.5,0.0,3.0,3.0,446.6757740001412,4.0,1.0,phase_1,,,,,,,,,,,,,yellow,circle
332.0,6.0,1.0,1.0,2.0,2.0,408.8147160000517,4.0,1.0,phase_1,,,,,,,,,,,,,white,square
168.0,5.0,0.5,1.0,3.0,3.0,464.5968230001926,4.0,1.0,phase_1,,,,,,,,,,,,,magenta,hexagon
0.0,7.0,2.0,1.0,6.0,6.0,505.72884600023826,1.0,1.0,phase_2,go,250.0,250.0,1.0,,,,,,,,,gray,I
0.0,2.0,1.0,0.0,6.0,6.0,261.0703390000708,1.0,1.0,phase_2,go,250.0,250.0,1.0,,,,,,,,,blue,triangle
0.0,4.0,4.0,0.0,6.0,6.0,279.8939720000817,1.0,1.0,phase_2,go,250.0,250.0,1.0,,,,,,,,,orange,cross
0.0,6.0,1.0,1.0,5.0,0.0,0.0,1.0,1.0,phase_2,stop,250.0,250.0,4.0,,,,,,,,,white,square
0.0,7.0,2.0,1.0,5.0,5.0,392.1683280000252,1.0,1.0,phase_2,stop,300.0,250.0,3.0,,,,,,,,,gray,I
0.0,6.0,1.0,1.0,6.0,6.0,281.4334179997786,1.0,1.0,phase_2,stop,250.0,250.0,3.0,,,,,,,,,white,square
0.0,2.0,1.0,0.0,6.0,6.0,243.7685159998182,1.0,1.0,phase_2,go,250.0,200.0,1.0,,,,,,,,,blue,triangle
0.0,1.0,0.5,0.0,5.0,5.0,283.5577200003172,1.0,1.0,phase_2,go,250.0,200.0,1.0,,,,,,,,,yellow,circle
0.0,7.0,2.0,1.0,5.0,5.0,281.041266000102,1.0,1.0,phase_2,stop,250.0,200.0,3.0,,,,,,,,,gray,I
0.0,4.0,4.0,0.0,5.0,5.0,281.7795370001477,1.0,1.0,phase_2,go,200.0,200.0,1.0,,,,,,,,,orange,cross
0.0,4.0,4.0,0.0,6.0,6.0,243.7629240002934,1.0,1.0,phase_2,go,200.0,200.0,1.0,,,,,,,,,orange,cross
0.0,7.0,2.0,1.0,5.0,5.0,234.7492439998859,1.0,1.0,phase_2,go,200.0,200.0,1.0,,,,,,,,,gray,I
0.0,1.0,0.5,0.0,6.0,6.0,235.0580460001765,1.0,1.0,phase_2,go,200.0,200.0,1.0,,,,,,,,,yellow,circle
0.0,5.0,0.5,1.0,6.0,5.0,207.3061199998846,1.0,1.0,phase_2,go,200.0,200.0,2.0,,,,,,,,,magenta,hexagon
0.0,8.0,4.0,1.0,6.0,6.0,281.7379400003119,1.0,1.0,phase_2,stop,200.0,200.0,3.0,,,,,,,,,cyan,flipped triangle
0.0,7.0,2.0,1.0,5.0,5.0,273.1761579998419,1.0,1.0,phase_2,stop,200.0,150.0,3.0,,,,,,,,,gray,I
0.0,4.0,4.0,0.0,5.0,5.0,225.8323730002303,1.0,1.0,phase_2,go,150.0,150.0,1.0,,,,,,,,,orange,cross
0.0,8.0,4.0,1.0,5.0,5.0,252.6212099996883,1.0,1.0,phase_2,go,150.0,150.0,1.0,,,,,,,,,cyan,flipped triangle
0.0,8.0,4.0,1.0,6.0,6.0,312.4367450000136,1.0,1.0,phase_2,stop,150.0,150.0,3.0,,,,,,,,,cyan,flipped triangle
0.0,1.0,0.5,0.0,6.0,6.0,291.9816040002843,1.0,1.0,phase_2,go,150.0,100.0,1.0,,,,,,,,,yellow,circle
0.0,5.0,0.5,1.0,5.0,5.0,215.701817000081,1.0,1.0,phase_2,stop,150.0,100.0,3.0,,,,,,,,,magenta,hexagon
0.0,3.0,2.0,0.0,6.0,6.0,263.3443600002465,1.0,1.0,phase_2,go,100.0,100.0,1.0,,,,,,,,,green,diamond
0.0,1.0,0.5,0.0,6.0,6.0,272.3010300001078,1.0,1.0,phase_2,go,100.0,100.0,1.0,,,,,,,,,yellow,circle
0.0,7.0,2.0,1.0,6.0,6.0,264.900518000104,1.0,1.0,phase_2,go,100.0,100.0,1.0,,,,,,,,,gray,I
0.0,4.0,4.0,0.0,6.0,6.0,271.3435480000044,1.0,1.0,phase_2,go,100.0,100.0,1.0,,,,,,,,,orange,cross
0.0,3.0,2.0,0.0,6.0,6.0,280.9074870001495,1.0,1.0,phase_2,go,100.0,100.0,1.0,,,,,,,,,green,diamond
0.0,2.0,1.0,0.0,6.0,6.0,261.4506890004122,1.0,1.0,phase_2,go,100.0,100.0,1.0,,,,,,,,,blue,triangle
0.0,1.0,0.5,0.0,5.0,5.0,299.6733260001747,1.0,1.0,phase_2,go,100.0,100.0,1.0,,,,,,,,,yellow,circle
0.0,2.0,1.0,0.0,5.0,5.0,337.3822339999606,1.0,1.0,phase_2,go,100.0,100.0,1.0,,,,,,,,,blue,triangle
0.0,2.0,1.0,0.0,5.0,5.0,272.8132259999256,1.0,1.0,phase_2,go,100.0,100.0,1.0,,,,,,,,,blue,triangle
0.0,5.0,0.5,1.0,5.0,5.0,263.9275390001785,1.0,1.0,phase_2,stop,100.0,100.0,3.0,,,,,,,,,magenta,hexagon
0.0,1.0,0.5,0.0,5.0,5.0,318.492593999963,1.0,1.0,phase_2,go,50.0,100.0,1.0,,,,,,,,,yellow,circle
0.0,4.0,4.0,0.0,6.0,6.0,233.9194879996284,1.0,1.0,phase_2,go,50.0,100.0,1.0,,,,,,,,,orange,cross
0.0,8.0,4.0,1.0,5.0,5.0,226.9565609999517,1.0,1.0,phase_2,stop,50.0,100.0,3.0,,,,,,,,,cyan,flipped triangle
0.0,2.0,1.0,0.0,5.0,5.0,414.3796070002281,1.0,1.0,phase_2,go,0.0,100.0,1.0,,,,,,,,,blue,triangle
0.0,8.0,4.0,1.0,5.0,0.0,0.0,1.0,1.0,phase_2,stop,0.0,100.0,4.0,,,,,,,,,cyan,flipped triangle
0.0,6.0,1.0,1.0,6.0,0.0,0.0,2.0,1.0,phase_2,stop,50.0,100.0,4.0,,,,,,,,,white,square
0.0,1.0,0.5,0.0,5.0,5.0,439.7599250000894,2.0,1.0,phase_2,go,50.0,150.0,1.0,,,,,,,,,yellow,circle
0.0,2.0,1.0,0.0,5.0,5.0,393.7120690002302,2.0,1.0,phase_2,go,50.0,150.0,1.0,,,,,,,,,blue,triangle
0.0,5.0,0.5,1.0,5.0,0.0,0.0,2.0,1.0,phase_2,stop,50.0,150.0,4.0,,,,,,,,,magenta,hexagon
0.0,8.0,4.0,1.0,5.0,0.0,0.0,2.0,1.0,phase_2,stop,100.0,150.0,4.0,,,,,,,,,cyan,flipped triangle
0.0,3.0,2.0,0.0,5.0,5.0,344.2818130001797,2.0,1.0,phase_2,go,150.0,150.0,1.0,,,,,,,,,green,diamond
0.0,1.0,0.5,0.0,5.0,5.0,478.2177239999328,2.0,1.0,phase_2,go,150.0,150.0,1.0,,,,,,,,,yellow,circle
0.0,6.0,1.0,1.0,6.0,0.0,0.0,2.0,1.0,phase_2,stop,150.0,150.0,4.0,,,,,,,,,white,square
0.0,7.0,2.0,1.0,5.0,0.0,0.0,2.0,1.0,phase_2,stop,150.0,200.0,4.0,,,,,,,,,gray,I
0.0,5.0,0.5,1.0,6.0,0.0,0.0,2.0,1.0,phase_2,stop,200.0,200.0,4.0,,,,,,,,,magenta,hexagon
0.0,1.0,0.5,0.0,5.0,5.0,448.2142399997428,2.0,1.0,phase_2,go,200.0,250.0,1.0,,,,,,,,,yellow,circle
0.0,4.0,4.0,0.0,5.0,5.0,690.995212999951,2.0,1.0,phase_2,go,200.0,250.0,1.0,,,,,,,,,orange,cross
0.0,3.0,2.0,0.0,6.0,6.0,542.6862449999135,2.0,1.0,phase_2,go,200.0,250.0,1.0,,,,,,,,,green,diamond
0.0,6.0,1.0,1.0,5.0,0.0,0.0,2.0,1.0,phase_2,stop,200.0,250.0,4.0,,,,,,,,,white,square
0.0,8.0,4.0,1.0,6.0,6.0,327.2651369998129,2.0,1.0,phase_2,stop,250.0,250.0,3.0,,,,,,,,,cyan,flipped triangle
0.0,7.0,2.0,1.0,5.0,0.0,0.0,2.0,1.0,phase_2,stop,250.0,200.0,4.0,,,,,,,,,gray,I
0.0,3.0,2.0,0.0,6.0,6.0,654.6035970000048,2.0,1.0,phase_2,go,300.0,200.0,1.0,,,,,,,,,green,diamond
0.0,7.0,2.0,1.0,6.0,0.0,0.0,2.0,1.0,phase_2,stop,300.0,200.0,4.0,,,,,,,,,gray,I
0.0,7.0,2.0,1.0,5.0,0.0,0.0,2.0,1.0,phase_2,stop,300.0,250.0,4.0,,,,,,,,,gray,I
0.0,3.0,2.0,0.0,6.0,6.0,561.6474749999725,2.0,1.0,phase_2,go,350.0,250.0,1.0,,,,,,,,,green,diamond
0.0,6.0,1.0,1.0,6.0,0.0,0.0,2.0,1.0,phase_2,stop,350.0,250.0,4.0,,,,,,,,,white,square
0.0,4.0,4.0,0.0,5.0,5.0,570.0225269997645,2.0,1.0,phase_2,go,350.0,300.0,1.0,,,,,,,,,orange,cross
0.0,6.0,1.0,1.0,6.0,0.0,0.0,2.0,1.0,phase_2,stop,350.0,300.0,4.0,,,,,,,,,white,square
0.0,5.0,0.5,1.0,6.0,6.0,756.8924149995837,2.0,1.0,phase_2,go,350.0,350.0,1.0,,,,,,,,,magenta,hexagon
0.0,1.0,0.5,0.0,5.0,5.0,804.6379010002056,2.0,1.0,phase_2,go,350.0,350.0,1.0,,,,,,,,,yellow,circle
0.0,5.0,0.5,1.0,6.0,0.0,0.0,2.0,1.0,phase_2,stop,350.0,350.0,4.0,,,,,,,,,magenta,hexagon
0.0,8.0,4.0,1.0,6.0,6.0,544.8970970001028,2.0,1.0,phase_2,stop,350.0,400.0,3.0,,,,,,,,,cyan,flipped triangle
0.0,5.0,0.5,1.0,6.0,0.0,0.0,2.0,1.0,phase_2,stop,350.0,350.0,4.0,,,,,,,,,magenta,hexagon
0.0,4.0,4.0,0.0,5.0,5.0,703.9456830002564,2.0,1.0,phase_2,go,350.0,400.0,1.0,,,,,,,,,orange,cross
0.0,1.0,0.5,0.0,6.0,6.0,617.4681400002555,2.0,1.0,phase_2,go,350.0,400.0,1.0,,,,,,,,,yellow,circle
0.0,6.0,1.0,1.0,6.0,6.0,623.4315259998766,2.0,1.0,phase_2,go,350.0,400.0,1.0,,,,,,,,,white,square
0.0,6.0,1.0,1.0,5.0,5.0,510.6659230000332,2.0,1.0,phase_2,stop,350.0,400.0,3.0,,,,,,,,,white,square
0.0,2.0,1.0,0.0,6.0,6.0,572.1811190001063,2.0,1.0,phase_2,go,300.0,400.0,1.0,,,,,,,,,blue,triangle
0.0,8.0,4.0,1.0,6.0,0.0,0.0,2.0,1.0,phase_2,stop,300.0,400.0,4.0,,,,,,,,,cyan,flipped triangle
0.0,5.0,0.5,1.0,5.0,0.0,0.0,2.0,1.0,phase_2,stop,300.0,450.0,4.0,,,,,,,,,magenta,hexagon
0.0,1.0,0.5,0.0,6.0,6.0,902.0945530000972,2.0,1.0,phase_2,go,350.0,450.0,1.0,,,,,,,,,yellow,circle
0.0,7.0,2.0,1.0,6.0,0.0,0.0,3.0,1.0,phase_2,stop,350.0,450.0,4.0,,,,,,,,,gray,I
0.0,7.0,2.0,1.0,5.0,0.0,0.0,3.0,1.0,phase_2,stop,350.0,500.0,4.0,,,,,,,,,gray,I
0.0,5.0,0.5,1.0,6.0,6.0,718.6129270003221,3.0,1.0,phase_2,go,400.0,500.0,1.0,,,,,,,,,magenta,hexagon
0.0,2.0,1.0,0.0,5.0,5.0,777.7684659999977,3.0,1.0,phase_2,go,400.0,500.0,1.0,,,,,,,,,blue,triangle
0.0,1.0,0.5,0.0,6.0,6.0,645.2572890002557,3.0,1.0,phase_2,go,400.0,500.0,1.0,,,,,,,,,yellow,circle
0.0,6.0,1.0,1.0,5.0,0.0,0.0,3.0,1.0,phase_2,stop,400.0,500.0,4.0,,,,,,,,,white,square
0.0,6.0,1.0,1.0,5.0,0.0,0.0,3.0,1.0,phase_2,stop,450.0,500.0,4.0,,,,,,,,,white,square
0.0,8.0,4.0,1.0,6.0,0.0,0.0,3.0,1.0,phase_2,stop,500.0,500.0,4.0,,,,,,,,,cyan,flipped triangle
0.0,3.0,2.0,0.0,5.0,5.0,908.15116199974,3.0,1.0,phase_2,go,500.0,550.0,1.0,,,,,,,,,green,diamond
0.0,2.0,1.0,0.0,6.0,6.0,880.0462260001041,3.0,1.0,phase_2,go,500.0,550.0,1.0,,,,,,,,,blue,triangle
0.0,5.0,0.5,1.0,6.0,0.0,0.0,3.0,1.0,phase_2,stop,500.0,550.0,4.0,,,,,,,,,magenta,hexagon
0.0,1.0,0.5,0.0,6.0,6.0,672.1293600003264,3.0,1.0,phase_2,go,500.0,600.0,1.0,,,,,,,,,yellow,circle
0.0,8.0,4.0,1.0,6.0,0.0,0.0,3.0,1.0,phase_2,stop,500.0,600.0,4.0,,,,,,,,,cyan,flipped triangle
0.0,2.0,1.0,0.0,6.0,6.0,994.6237650001422,3.0,1.0,phase_2,go,500.0,650.0,1.0,,,,,,,,,blue,triangle
0.0,2.0,1.0,0.0,6.0,6.0,1161.552002999997,3.0,1.0,phase_2,go,500.0,650.0,1.0,,,,,,,,,blue,triangle
0.0,1.0,0.5,0.0,5.0,5.0,833.546010000191,3.0,1.0,phase_2,go,500.0,650.0,1.0,,,,,,,,,yellow,circle
0.0,3.0,2.0,0.0,5.0,5.0,956.494763000137,3.0,1.0,phase_2,go,500.0,650.0,1.0,,,,,,,,,green,diamond
0.0,6.0,1.0,1.0,6.0,0.0,0.0,3.0,1.0,phase_2,stop,500.0,650.0,4.0,,,,,,,,,white,square
0.0,7.0,2.0,1.0,5.0,0.0,0.0,3.0,1.0,phase_2,stop,500.0,700.0,4.0,,,,,,,,,gray,I
0.0,3.0,2.0,0.0,5.0,5.0,919.0078660003564,3.0,1.0,phase_2,go,550.0,700.0,1.0,,,,,,,,,green,diamond
0.0,3.0,2.0,0.0,6.0,6.0,955.9018690001722,3.0,1.0,phase_2,go,550.0,700.0,1.0,,,,,,,,,green,diamond
0.0,8.0,4.0,1.0,6.0,0.0,0.0,3.0,1.0,phase_2,stop,550.0,700.0,4.0,,,,,,,,,cyan,flipped triangle
0.0,2.0,1.0,0.0,5.0,5.0,1009.1101719999642,3.0,1.0,phase_2,go,550.0,750.0,1.0,,,,,,,,,blue,triangle
0.0,6.0,1.0,1.0,6.0,0.0,0.0,3.0,1.0,phase_2,stop,550.0,750.0,4.0,,,,,,,,,white,square
0.0,5.0,0.5,1.0,6.0,0.0,0.0,3.0,1.0,phase_2,stop,550.0,800.0,4.0,,,,,,,,,magenta,hexagon
0.0,1.0,0.5,0.0,6.0,6.0,917.4705670002368,3.0,1.0,phase_2,go,550.0,850.0,1.0,,,,,,,,,yellow,circle
0.0,5.0,0.5,1.0,6.0,6.0,1475.7552890000625,3.0,1.0,phase_2,go,550.0,850.0,1.0,,,,,,,,,magenta,hexagon
0.0,1.0,0.5,0.0,6.0,6.0,1371.333720000166,3.0,1.0,phase_2,go,550.0,850.0,1.0,,,,,,,,,yellow,circle
0.0,7.0,2.0,1.0,6.0,0.0,0.0,3.0,1.0,phase_2,stop,550.0,850.0,4.0,,,,,,,,,gray,I
0.0,4.0,4.0,0.0,6.0,0.0,0.0,3.0,1.0,phase_2,go,550.0,900.0,5.0,,,,,,,,,orange,cross
0.0,1.0,0.5,0.0,6.0,6.0,979.5540009999968,3.0,1.0,phase_2,go,550.0,900.0,1.0,,,,,,,,,yellow,circle
0.0,4.0,4.0,0.0,6.0,6.0,719.8304300000018,3.0,1.0,phase_2,go,550.0,900.0,1.0,,,,,,,,,orange,cross
0.0,5.0,0.5,1.0,5.0,5.0,1098.5663520000344,3.0,1.0,phase_2,go,550.0,900.0,1.0,,,,,,,,,magenta,hexagon
0.0,6.0,1.0,1.0,5.0,5.0,635.7153059998382,3.0,1.0,phase_2,stop,550.0,900.0,3.0,,,,,,,,,white,square
0.0,7.0,2.0,1.0,6.0,6.0,299.9259799998981,3.0,1.0,phase_2,stop,500.0,900.0,3.0,,,,,,,,,gray,I
0.0,3.0,2.0,0.0,5.0,5.0,831.0386109997125,3.0,1.0,phase_2,go,500.0,850.0,1.0,,,,,,,,,green,diamond
0.0,5.0,0.5,1.0,5.0,5.0,654.1202190001059,4.0,1.0,phase_2,stop,500.0,850.0,3.0,,,,,,,,,magenta,hexagon
0.0,2.0,1.0,0.0,5.0,5.0,648.7665059999017,4.0,1.0,phase_2,go,450.0,850.0,1.0,,,,,,,,,blue,triangle
0.0,2.0,1.0,0.0,5.0,5.0,674.4453899996188,4.0,1.0,phase_2,go,450.0,850.0,1.0,,,,,,,,,blue,triangle
0.0,7.0,2.0,1.0,6.0,6.0,666.0956129999249,4.0,1.0,phase_2,stop,450.0,850.0,3.0,,,,,,,,,gray,I
0.0,4.0,4.0,0.0,5.0,5.0,966.4482499997576,4.0,1.0,phase_2,go,450.0,800.0,1.0,,,,,,,,,orange,cross
0.0,4.0,4.0,0.0,5.0,5.0,487.6256689999536,4.0,1.0,phase_2,go,450.0,800.0,1.0,,,,,,,,,orange,cross
0.0,2.0,1.0,0.0,5.0,5.0,412.5896289997399,4.0,1.0,phase_2,go,450.0,800.0,1.0,,,,,,,,,blue,triangle
0.0,2.0,1.0,0.0,6.0,6.0,734.8763119998694,4.0,1.0,phase_2,go,450.0,800.0,1.0,,,,,,,,,blue,triangle
0.0,3.0,2.0,0.0,5.0,5.0,469.1592109998055,4.0,1.0,phase_2,go,450.0,800.0,1.0,,,,,,,,,green,diamond
0.0,6.0,1.0,1.0,5.0,5.0,374.5955449999201,4.0,1.0,phase_2,stop,450.0,800.0,3.0,,,,,,,,,white,square
0.0,2.0,1.0,0.0,6.0,6.0,262.27382199977,4.0,1.0,phase_2,go,400.0,800.0,1.0,,,,,,,,,blue,triangle
0.0,8.0,4.0,1.0,6.0,6.0,298.658696000075,4.0,1.0,phase_2,stop,400.0,800.0,3.0,,,,,,,,,cyan,flipped triangle
0.0,2.0,1.0,0.0,6.0,6.0,517.290869000135,4.0,1.0,phase_2,go,400.0,750.0,1.0,,,,,,,,,blue,triangle
0.0,6.0,1.0,1.0,5.0,5.0,447.4967720002496,4.0,1.0,phase_2,stop,400.0,750.0,3.0,,,,,,,,,white,square
0.0,5.0,0.5,1.0,5.0,5.0,308.9798239998345,4.0,1.0,phase_2,stop,350.0,750.0,3.0,,,,,,,,,magenta,hexagon
0.0,1.0,0.5,0.0,5.0,5.0,309.0265069999987,4.0,1.0,phase_2,go,300.0,750.0,1.0,,,,,,,,,yellow,circle
0.0,7.0,2.0,1.0,5.0,0.0,0.0,4.0,1.0,phase_2,stop,300.0,750.0,4.0,,,,,,,,,gray,I
0.0,5.0,0.5,1.0,6.0,6.0,533.9775049997115,4.0,1.0,phase_2,go,350.0,750.0,1.0,,,,,,,,,magenta,hexagon
0.0,2.0,1.0,0.0,5.0,5.0,345.7791529999667,4.0,1.0,phase_2,go,350.0,750.0,1.0,,,,,,,,,blue,triangle
0.0,5.0,0.5,1.0,6.0,6.0,449.5258169999943,4.0,1.0,phase_2,stop,350.0,750.0,3.0,,,,,,,,,magenta,hexagon
0.0,2.0,1.0,0.0,5.0,5.0,318.6523869999291,4.0,1.0,phase_2,go,350.0,700.0,1.0,,,,,,,,,blue,triangle
0.0,2.0,1.0,0.0,6.0,6.0,270.9327830002621,4.0,1.0,phase_2,go,350.0,700.0,1.0,,,,,,,,,blue,triangle
0.0,7.0,2.0,1.0,6.0,6.0,534.4980680001754,4.0,1.0,phase_2,stop,350.0,700.0,3.0,,,,,,,,,gray,I
0.0,3.0,2.0,0.0,5.0,5.0,1013.1986209999011,4.0,1.0,phase_2,go,350.0,650.0,1.0,,,,,,,,,green,diamond
0.0,3.0,2.0,0.0,5.0,5.0,517.8585640001074,4.0,1.0,phase_2,go,350.0,650.0,1.0,,,,,,,,,green,diamond
0.0,7.0,2.0,1.0,5.0,5.0,262.5322829999277,4.0,1.0,phase_2,stop,350.0,650.0,3.0,,,,,,,,,gray,I
0.0,6.0,1.0,1.0,6.0,6.0,523.8446579996889,4.0,1.0,phase_2,stop,300.0,650.0,3.0,,,,,,,,,white,square
0.0,3.0,2.0,0.0,5.0,5.0,207.0287149999785,4.0,1.0,phase_2,go,300.0,600.0,1.0,,,,,,,,,green,diamond
0.0,3.0,2.0,0.0,5.0,5.0,275.9294709999267,4.0,1.0,phase_2,go,300.0,600.0,1.0,,,,,,,,,green,diamond
0.0,5.0,0.5,1.0,5.0,0.0,0.0,4.0,1.0,phase_2,stop,300.0,600.0,4.0,,,,,,,,,magenta,hexagon
0.0,7.0,2.0,1.0,6.0,6.0,366.8026179998378,4.0,1.0,phase_2,stop,350.0,600.0,3.0,,,,,,,,,gray,I
0.0,5.0,0.5,1.0,6.0,6.0,498.4894899998835,4.0,1.0,phase_2,stop,350.0,550.0,3.0,,,,,,,,,magenta,hexagon
0.0,1.0,0.5,0.0,5.0,5.0,477.259887999935,4.0,1.0,phase_2,go,350.0,500.0,1.0,,,,,,,,,yellow,circle
0.0,4.0,4.0,0.0,5.0,5.0,318.8402880000467,4.0,1.0,phase_2,go,350.0,500.0,1.0,,,,,,,,,orange,cross
0.0,1.0,0.5,0.0,5.0,5.0,888.3897069999875,4.0,1.0,phase_2,go,350.0,500.0,1.0,,,,,,,,,yellow,circle
0.0,6.0,1.0,1.0,6.0,6.0,545.8552340001006,4.0,1.0,phase_2,stop,350.0,500.0,3.0,,,,,,,,,white,square
0.0,4.0,4.0,0.0,6.0,6.0,382.8072690002955,5.0,1.0,phase_2,go,350.0,450.0,1.0,,,,,,,,,orange,cross
0.0,5.0,0.5,1.0,5.0,5.0,298.0671229997824,5.0,1.0,phase_2,go,350.0,450.0,1.0,,,,,,,,,magenta,hexagon
0.0,7.0,2.0,1.0,6.0,6.0,243.4687320001103,5.0,1.0,phase_2,go,350.0,450.0,1.0,,,,,,,,,gray,I
0.0,4.0,4.0,0.0,5.0,5.0,775.2640900002916,5.0,1.0,phase_2,go,350.0,450.0,1.0,,,,,,,,,orange,cross
0.0,6.0,1.0,1.0,5.0,0.0,0.0,5.0,1.0,phase_2,stop,350.0,450.0,4.0,,,,,,,,,white,square
0.0,6.0,1.0,1.0,6.0,6.0,269.5794470000692,5.0,1.0,phase_2,stop,400.0,450.0,3.0,,,,,,,,,white,square
0.0,8.0,4.0,1.0,5.0,5.0,271.2706460001755,5.0,1.0,phase_2,stop,400.0,400.0,3.0,,,,,,,,,cyan,flipped triangle
0.0,1.0,0.5,0.0,6.0,6.0,521.3465649999307,5.0,1.0,phase_2,go,350.0,400.0,1.0,,,,,,,,,yellow,circle
0.0,7.0,2.0,1.0,5.0,5.0,560.5123300001651,5.0,1.0,phase_2,go,350.0,400.0,1.0,,,,,,,,,gray,I
0.0,4.0,4.0,0.0,5.0,5.0,568.7501649999831,5.0,1.0,phase_2,go,350.0,400.0,1.0,,,,,,,,,orange,cross
0.0,7.0,2.0,1.0,5.0,5.0,968.5784680000324,5.0,1.0,phase_2,go,350.0,400.0,1.0,,,,,,,,,gray,I
0.0,2.0,1.0,0.0,6.0,6.0,690.1252580000801,5.0,1.0,phase_2,go,350.0,400.0,1.0,,,,,,,,,blue,triangle
0.0,4.0,4.0,0.0,6.0,6.0,644.7067399999469,5.0,1.0,phase_2,go,350.0,400.0,1.0,,,,,,,,,orange,cross
0.0,5.0,0.5,1.0,5.0,5.0,478.629877000003,5.0,1.0,phase_2,stop,350.0,400.0,3.0,,,,,,,,,magenta,hexagon
0.0,7.0,2.0,1.0,5.0,0.0,0.0,5.0,1.0,phase_2,stop,300.0,400.0,4.0,,,,,,,,,gray,I
0.0,2.0,1.0,0.0,6.0,6.0,645.0951229999191,5.0,1.0,phase_2,go,350.0,400.0,1.0,,,,,,,,,blue,triangle
0.0,3.0,2.0,0.0,5.0,5.0,605.3548169998066,5.0,1.0,phase_2,go,350.0,400.0,1.0,,,,,,,,,green,diamond
0.0,4.0,4.0,0.0,6.0,6.0,392.7690959999381,5.0,1.0,phase_2,go,350.0,400.0,1.0,,,,,,,,,orange,cross
0.0,5.0,0.5,1.0,6.0,0.0,0.0,5.0,1.0,phase_2,stop,350.0,400.0,4.0,,,,,,,,,magenta,hexagon
0.0,4.0,4.0,0.0,6.0,6.0,662.8069539997341,5.0,1.0,phase_2,go,350.0,450.0,1.0,,,,,,,,,orange,cross
0.0,1.0,0.5,0.0,5.0,5.0,636.8263489998753,5.0,1.0,phase_2,go,350.0,450.0,1.0,,,,,,,,,yellow,circle
0.0,3.0,2.0,0.0,5.0,5.0,504.62202000016987,5.0,1.0,phase_2,go,350.0,450.0,1.0,,,,,,,,,green,diamond
0.0,6.0,1.0,1.0,6.0,6.0,643.1900889997451,5.0,1.0,phase_2,go,350.0,450.0,1.0,,,,,,,,,white,square
0.0,8.0,4.0,1.0,6.0,6.0,499.1556680001849,5.0,1.0,phase_2,stop,350.0,450.0,3.0,,,,,,,,,cyan,flipped triangle
0.0,4.0,4.0,0.0,6.0,6.0,475.3355230000124,5.0,1.0,phase_2,go,350.0,400.0,1.0,,,,,,,,,orange,cross
0.0,3.0,2.0,0.0,5.0,5.0,634.9118189996261,5.0,1.0,phase_2,go,350.0,400.0,1.0,,,,,,,,,green,diamond
0.0,8.0,4.0,1.0,6.0,6.0,411.8142030001763,5.0,1.0,phase_2,go,350.0,400.0,1.0,,,,,,,,,cyan,flipped triangle
0.0,7.0,2.0,1.0,5.0,0.0,0.0,5.0,1.0,phase_2,stop,350.0,400.0,4.0,,,,,,,,,gray,I
0.0,8.0,4.0,1.0,6.0,6.0,436.5771560001121,5.0,1.0,phase_2,stop,400.0,400.0,3.0,,,,,,,,,cyan,flipped triangle
0.0,4.0,4.0,0.0,5.0,5.0,515.83298200012,5.0,1.0,phase_2,go,400.0,350.0,1.0,,,,,,,,,orange,cross
0.0,4.0,4.0,0.0,6.0,6.0,568.4496240000954,5.0,1.0,phase_2,go,400.0,350.0,1.0,,,,,,,,,orange,cross
0.0,2.0,1.0,0.0,5.0,5.0,533.0629130003217,5.0,1.0,phase_2,go,400.0,350.0,1.0,,,,,,,,,blue,triangle
0.0,1.0,0.5,0.0,6.0,6.0,551.7557329999363,5.0,1.0,phase_2,go,400.0,350.0,1.0,,,,,,,,,yellow,circle
0.0,6.0,1.0,1.0,6.0,6.0,754.6605980001004,5.0,1.0,phase_2,go,400.0,350.0,1.0,,,,,,,,,white,square
0.0,4.0,4.0,0.0,5.0,5.0,420.6044000002293,5.0,1.0,phase_2,go,400.0,350.0,1.0,,,,,,,,,orange,cross
0.0,8.0,4.0,1.0,5.0,5.0,526.1642989999018,5.0,1.0,phase_2,stop,400.0,350.0,3.0,,,,,,,,,cyan,flipped triangle
0.0,6.0,1.0,1.0,5.0,0.0,0.0,6.0,1.0,phase_2,stop,350.0,350.0,4.0,,,,,,,,,white,square
0.0,3.0,2.0,0.0,6.0,6.0,467.5272800004677,6.0,1.0,phase_2,go,400.0,350.0,1.0,,,,,,,,,green,diamond
0.0,2.0,1.0,0.0,6.0,6.0,569.8285690004923,6.0,1.0,phase_2,go,400.0,350.0,1.0,,,,,,,,,blue,triangle
0.0,5.0,0.5,1.0,5.0,0.0,0.0,6.0,1.0,phase_2,stop,400.0,350.0,4.0,,,,,,,,,magenta,hexagon
0.0,5.0,0.5,1.0,6.0,0.0,0.0,6.0,1.0,phase_2,stop,450.0,350.0,4.0,,,,,,,,,magenta,hexagon
0.0,2.0,1.0,0.0,5.0,5.0,571.613780000007,6.0,1.0,phase_2,go,450.0,400.0,1.0,,,,,,,,,blue,triangle
0.0,8.0,4.0,1.0,6.0,0.0,0.0,6.0,1.0,phase_2,stop,450.0,400.0,4.0,,,,,,,,,cyan,flipped triangle
0.0,5.0,0.5,1.0,5.0,0.0,0.0,6.0,1.0,phase_2,stop,450.0,450.0,4.0,,,,,,,,,magenta,hexagon
0.0,1.0,0.5,0.0,5.0,5.0,402.9654879996087,6.0,1.0,phase_2,go,500.0,450.0,1.0,,,,,,,,,yellow,circle
0.0,6.0,1.0,1.0,5.0,5.0,347.1237930007191,6.0,1.0,phase_2,go,500.0,450.0,1.0,,,,,,,,,white,square
0.0,2.0,1.0,0.0,5.0,5.0,702.1689060002245,6.0,1.0,phase_2,go,500.0,450.0,1.0,,,,,,,,,blue,triangle
0.0,7.0,2.0,1.0,6.0,6.0,611.372783000661,6.0,1.0,phase_2,stop,500.0,450.0,3.0,,,,,,,,,gray,I
0.0,7.0,2.0,1.0,6.0,0.0,0.0,6.0,1.0,phase_2,stop,500.0,400.0,4.0,,,,,,,,,gray,I
0.0,5.0,0.5,1.0,5.0,5.0,629.0081440001813,6.0,1.0,phase_2,stop,500.0,450.0,3.0,,,,,,,,,magenta,hexagon
0.0,3.0,2.0,0.0,5.0,5.0,710.7446380005058,6.0,1.0,phase_2,go,450.0,450.0,1.0,,,,,,,,,green,diamond
0.0,6.0,1.0,1.0,5.0,5.0,831.8244940001023,6.0,1.0,phase_2,go,450.0,450.0,1.0,,,,,,,,,white,square
0.0,3.0,2.0,0.0,6.0,6.0,665.5425480003032,6.0,1.0,phase_2,go,450.0,450.0,1.0,,,,,,,,,green,diamond
0.0,6.0,1.0,1.0,6.0,0.0,0.0,6.0,1.0,phase_2,stop,450.0,450.0,4.0,,,,,,,,,white,square
0.0,5.0,0.5,1.0,6.0,6.0,751.059592999809,6.0,1.0,phase_2,go,450.0,500.0,1.0,,,,,,,,,magenta,hexagon
0.0,3.0,2.0,0.0,5.0,5.0,671.8924309998329,6.0,1.0,phase_2,go,450.0,500.0,1.0,,,,,,,,,green,diamond
0.0,8.0,4.0,1.0,5.0,5.0,655.5887089998578,6.0,1.0,phase_2,go,450.0,500.0,1.0,,,,,,,,,cyan,flipped triangle
0.0,8.0,4.0,1.0,6.0,6.0,563.9260580001064,6.0,1.0,phase_2,stop,450.0,500.0,3.0,,,,,,,,,cyan,flipped triangle
0.0,5.0,0.5,1.0,5.0,0.0,0.0,6.0,1.0,phase_2,stop,450.0,450.0,4.0,,,,,,,,,magenta,hexagon
0.0,1.0,0.5,0.0,6.0,6.0,562.176881000596,6.0,1.0,phase_2,go,500.0,450.0,1.0,,,,,,,,,yellow,circle
0.0,6.0,1.0,1.0,5.0,0.0,0.0,6.0,1.0,phase_2,stop,500.0,450.0,4.0,,,,,,,,,white,square
0.0,6.0,1.0,1.0,5.0,0.0,0.0,6.0,1.0,phase_2,stop,550.0,450.0,4.0,,,,,,,,,white,square
0.0,2.0,1.0,0.0,6.0,6.0,863.0007190004108,6.0,1.0,phase_2,go,600.0,450.0,1.0,,,,,,,,,blue,triangle
0.0,8.0,4.0,1.0,5.0,0.0,0.0,6.0,1.0,phase_2,stop,600.0,450.0,4.0,,,,,,,,,cyan,flipped triangle
0.0,4.0,4.0,0.0,6.0,6.0,724.0423950006516,6.0,1.0,phase_2,go,650.0,450.0,1.0,,,,,,,,,orange,cross
0.0,2.0,1.0,0.0,6.0,6.0,859.6439769999051,6.0,1.0,phase_2,go,650.0,450.0,1.0,,,,,,,,,blue,triangle
0.0,2.0,1.0,0.0,5.0,5.0,655.6092760001775,6.0,1.0,phase_2,go,650.0,450.0,1.0,,,,,,,,,blue,triangle
0.0,8.0,4.0,1.0,5.0,5.0,449.5347280007991,6.0,1.0,phase_2,stop,650.0,450.0,3.0,,,,,,,,,cyan,flipped triangle
0.0,7.0,2.0,1.0,5.0,0.0,0.0,6.0,1.0,phase_2,stop,600.0,450.0,4.0,,,,,,,,,gray,I
0.0,1.0,0.5,0.0,6.0,6.0,711.8355289994724,6.0,1.0,phase_2,go,650.0,450.0,1.0,,,,,,,,,yellow,circle
0.0,8.0,4.0,1.0,5.0,0.0,0.0,6.0,1.0,phase_2,stop,650.0,450.0,4.0,,,,,,,,,cyan,flipped triangle
0.0,7.0,2.0,1.0,6.0,0.0,0.0,6.0,1.0,phase_2,stop,700.0,450.0,4.0,,,,,,,,,gray,I
0.0,6.0,1.0,1.0,6.0,0.0,0.0,7.0,1.0,phase_2,stop,700.0,500.0,4.0,,,,,,,,,white,square
0.0,3.0,2.0,0.0,6.0,6.0,693.6838700003136,7.0,1.0,phase_2,go,700.0,550.0,1.0,,,,,,,,,green,diamond
0.0,8.0,4.0,1.0,6.0,6.0,676.9997620003778,7.0,1.0,phase_2,stop,700.0,550.0,3.0,,,,,,,,,cyan,flipped triangle
0.0,3.0,2.0,0.0,6.0,6.0,927.3967999997694,7.0,1.0,phase_2,go,700.0,500.0,1.0,,,,,,,,,green,diamond
0.0,6.0,1.0,1.0,5.0,5.0,746.605919999638,7.0,1.0,phase_2,stop,700.0,500.0,3.0,,,,,,,,,white,square
0.0,3.0,2.0,0.0,6.0,6.0,815.1273869998477,7.0,1.0,phase_2,go,650.0,500.0,1.0,,,,,,,,,green,diamond
0.0,8.0,4.0,1.0,6.0,0.0,0.0,7.0,1.0,phase_2,stop,650.0,500.0,4.0,,,,,,,,,cyan,flipped triangle
0.0,3.0,2.0,0.0,6.0,6.0,625.6466839995483,7.0,1.0,phase_2,go,650.0,550.0,1.0,,,,,,,,,green,diamond
0.0,8.0,4.0,1.0,5.0,5.0,776.7338189996735,7.0,1.0,phase_2,stop,650.0,550.0,3.0,,,,,,,,,cyan,flipped triangle
0.0,4.0,4.0,0.0,5.0,5.0,1031.6376929995386,7.0,1.0,phase_2,go,600.0,550.0,1.0,,,,,,,,,orange,cross
0.0,3.0,2.0,0.0,6.0,6.0,674.2637480001576,7.0,1.0,phase_2,go,600.0,550.0,1.0,,,,,,,,,green,diamond
0.0,4.0,4.0,0.0,6.0,6.0,402.8714280002532,7.0,1.0,phase_2,go,600.0,550.0,1.0,,,,,,,,,orange,cross
0.0,1.0,0.5,0.0,6.0,6.0,561.4160960003574,7.0,1.0,phase_2,go,600.0,550.0,1.0,,,,,,,,,yellow,circle
0.0,4.0,4.0,0.0,6.0,6.0,626.9463340004222,7.0,1.0,phase_2,go,600.0,550.0,1.0,,,,,,,,,orange,cross
0.0,7.0,2.0,1.0,6.0,6.0,676.5453409998372,7.0,1.0,phase_2,stop,600.0,550.0,3.0,,,,,,,,,gray,I
0.0,6.0,1.0,1.0,5.0,5.0,1206.1262299994269,7.0,1.0,phase_2,go,600.0,500.0,1.0,,,,,,,,,white,square
0.0,5.0,0.5,1.0,6.0,0.0,0.0,7.0,1.0,phase_2,stop,600.0,500.0,4.0,,,,,,,,,magenta,hexagon
0.0,1.0,0.5,0.0,5.0,5.0,636.9512310002392,7.0,1.0,phase_2,go,600.0,550.0,1.0,,,,,,,,,yellow,circle
0.0,4.0,4.0,0.0,6.0,6.0,570.3602590001537,7.0,1.0,phase_2,go,600.0,550.0,1.0,,,,,,,,,orange,cross
0.0,2.0,1.0,0.0,5.0,5.0,1180.2820409993728,7.0,1.0,phase_2,go,600.0,550.0,1.0,,,,,,,,,blue,triangle
0.0,8.0,4.0,1.0,6.0,6.0,755.7986749998236,7.0,1.0,phase_2,go,600.0,550.0,1.0,,,,,,,,,cyan,flipped triangle
0.0,4.0,4.0,0.0,5.0,5.0,861.9081110000479,7.0,1.0,phase_2,go,600.0,550.0,1.0,,,,,,,,,orange,cross
0.0,3.0,2.0,0.0,5.0,5.0,795.6374040004448,7.0,1.0,phase_2,go,600.0,550.0,1.0,,,,,,,,,green,diamond
0.0,5.0,0.5,1.0,5.0,0.0,0.0,7.0,1.0,phase_2,stop,600.0,550.0,4.0,,,,,,,,,magenta,hexagon
0.0,8.0,4.0,1.0,6.0,6.0,674.7855049998179,7.0,1.0,phase_2,go,650.0,550.0,1.0,,,,,,,,,cyan,flipped triangle
0.0,3.0,2.0,0.0,6.0,6.0,806.6089820003981,7.0,1.0,phase_2,go,650.0,550.0,1.0,,,,,,,,,green,diamond
0.0,4.0,4.0,0.0,6.0,6.0,694.419695999386,7.0,1.0,phase_2,go,650.0,550.0,1.0,,,,,,,,,orange,cross
0.0,5.0,0.5,1.0,6.0,0.0,0.0,7.0,1.0,phase_2,stop,650.0,550.0,4.0,,,,,,,,,magenta,hexagon
0.0,2.0,1.0,0.0,6.0,6.0,804.432638000435,7.0,1.0,phase_2,go,650.0,600.0,1.0,,,,,,,,,blue,triangle
0.0,3.0,2.0,0.0,6.0,6.0,956.6029790003086,7.0,1.0,phase_2,go,650.0,600.0,1.0,,,,,,,,,green,diamond
0.0,2.0,1.0,0.0,6.0,6.0,664.7966459995587,7.0,1.0,phase_2,go,650.0,600.0,1.0,,,,,,,,,blue,triangle
0.0,6.0,1.0,1.0,6.0,6.0,712.5469180000437,7.0,1.0,phase_2,go,650.0,600.0,1.0,,,,,,,,,white,square
0.0,5.0,0.5,1.0,5.0,5.0,787.532758999987,7.0,1.0,phase_2,go,650.0,600.0,1.0,,,,,,,,,magenta,hexagon
0.0,8.0,4.0,1.0,5.0,5.0,712.2532490002413,7.0,1.0,phase_2,go,650.0,600.0,1.0,,,,,,,,,cyan,flipped triangle
0.0,5.0,0.5,1.0,6.0,6.0,650.5708690001484,7.0,1.0,phase_2,stop,650.0,600.0,3.0,,,,,,,,,magenta,hexagon
0.0,7.0,2.0,1.0,6.0,0.0,0.0,7.0,1.0,phase_2,stop,650.0,550.0,4.0,,,,,,,,,gray,I
0.0,1.0,0.5,0.0,5.0,5.0,465.9422920003635,8.0,1.0,phase_2,go,650.0,600.0,1.0,,,,,,,,,yellow,circle
0.0,3.0,2.0,0.0,6.0,6.0,299.9938049997581,8.0,1.0,phase_2,go,650.0,600.0,1.0,,,,,,,,,green,diamond
0.0,1.0,0.5,0.0,5.0,5.0,412.2725990000617,8.0,1.0,phase_2,go,650.0,600.0,1.0,,,,,,,,,yellow,circle
0.0,1.0,0.5,0.0,6.0,6.0,393.6525819999588,8.0,1.0,phase_2,go,650.0,600.0,1.0,,,,,,,,,yellow,circle
0.0,3.0,2.0,0.0,6.0,6.0,308.8471689998187,8.0,1.0,phase_2,go,650.0,600.0,1.0,,,,,,,,,green,diamond
0.0,3.0,2.0,0.0,6.0,6.0,338.053948000379,8.0,1.0,phase_2,go,650.0,600.0,1.0,,,,,,,,,green,diamond
0.0,4.0,4.0,0.0,5.0,5.0,337.0239609994314,8.0,1.0,phase_2,go,650.0,600.0,1.0,,,,,,,,,orange,cross
0.0,1.0,0.5,0.0,5.0,6.0,346.1770150006487,8.0,1.0,phase_2,go,650.0,600.0,2.0,,,,,,,,,yellow,circle
0.0,7.0,2.0,1.0,6.0,6.0,337.369817999388,8.0,1.0,phase_2,go,650.0,600.0,1.0,,,,,,,,,gray,I
0.0,8.0,4.0,1.0,5.0,5.0,750.2973010005007,8.0,1.0,phase_2,stop,650.0,600.0,3.0,,,,,,,,,cyan,flipped triangle
0.0,4.0,4.0,0.0,5.0,5.0,840.2906559995245,8.0,1.0,phase_2,go,600.0,600.0,1.0,,,,,,,,,orange,cross
0.0,7.0,2.0,1.0,5.0,5.0,383.676972000103,8.0,1.0,phase_2,go,600.0,600.0,1.0,,,,,,,,,gray,I
0.0,6.0,1.0,1.0,5.0,5.0,309.3622110000069,8.0,1.0,phase_2,stop,600.0,600.0,3.0,,,,,,,,,white,square
0.0,4.0,4.0,0.0,5.0,5.0,543.3169819998511,8.0,1.0,phase_2,go,550.0,600.0,1.0,,,,,,,,,orange,cross
0.0,5.0,0.5,1.0,5.0,5.0,328.0350300001373,8.0,1.0,phase_2,stop,550.0,600.0,3.0,,,,,,,,,magenta,hexagon
0.0,6.0,1.0,1.0,6.0,6.0,562.0603239995035,8.0,1.0,phase_2,go,500.0,600.0,1.0,,,,,,,,,white,square
0.0,4.0,4.0,0.0,5.0,5.0,271.6223770003125,8.0,1.0,phase_2,go,500.0,600.0,1.0,,,,,,,,,orange,cross
0.0,2.0,1.0,0.0,5.0,5.0,486.5323660005742,8.0,1.0,phase_2,go,500.0,600.0,1.0,,,,,,,,,blue,triangle
0.0,8.0,4.0,1.0,5.0,5.0,309.0468399996098,8.0,1.0,phase_2,stop,500.0,600.0,3.0,,,,,,,,,cyan,flipped triangle
0.0,7.0,2.0,1.0,6.0,6.0,346.4409509997495,8.0,1.0,phase_2,stop,450.0,600.0,3.0,,,,,,,,,gray,I
0.0,7.0,2.0,1.0,5.0,0.0,0.0,8.0,1.0,phase_2,stop,450.0,550.0,4.0,,,,,,,,,gray,I
0.0,6.0,1.0,1.0,6.0,6.0,514.4262750000053,8.0,1.0,phase_2,go,500.0,550.0,1.0,,,,,,,,,white,square
0.0,8.0,4.0,1.0,5.0,5.0,832.6654539996525,8.0,1.0,phase_2,go,500.0,550.0,1.0,,,,,,,,,cyan,flipped triangle
0.0,3.0,2.0,0.0,5.0,5.0,365.0697619996208,8.0,1.0,phase_2,go,500.0,550.0,1.0,,,,,,,,,green,diamond
0.0,4.0,4.0,0.0,6.0,6.0,301.2702200003332,8.0,1.0,phase_2,go,500.0,550.0,1.0,,,,,,,,,orange,cross
0.0,5.0,0.5,1.0,5.0,5.0,345.6158270000742,8.0,1.0,phase_2,stop,500.0,550.0,3.0,,,,,,,,,magenta,hexagon
0.0,1.0,0.5,0.0,6.0,6.0,477.9738209999777,8.0,1.0,phase_2,go,450.0,550.0,1.0,,,,,,,,,yellow,circle
0.0,1.0,0.5,0.0,6.0,6.0,430.5848730000434,8.0,1.0,phase_2,go,450.0,550.0,1.0,,,,,,,,,yellow,circle
0.0,8.0,4.0,1.0,5.0,5.0,560.9416930001316,8.0,1.0,phase_2,go,450.0,550.0,1.0,,,,,,,,,cyan,flipped triangle
0.0,6.0,1.0,1.0,5.0,0.0,0.0,8.0,1.0,phase_2,stop,450.0,550.0,4.0,,,,,,,,,white,square
0.0,1.0,0.5,0.0,5.0,5.0,486.2270559997341,8.0,1.0,phase_2,go,500.0,550.0,1.0,,,,,,,,,yellow,circle
0.0,8.0,4.0,1.0,5.0,5.0,562.6252989995919,8.0,1.0,phase_2,stop,500.0,550.0,3.0,,,,,,,,,cyan,flipped triangle
0.0,7.0,2.0,1.0,6.0,6.0,739.521082000465,8.0,1.0,phase_2,go,450.0,550.0,1.0,,,,,,,,,gray,I
0.0,2.0,1.0,0.0,5.0,5.0,683.3257139996931,8.0,1.0,phase_2,go,450.0,550.0,1.0,,,,,,,,,blue,triangle
0.0,3.0,2.0,0.0,5.0,5.0,728.6471569996138,8.0,1.0,phase_2,go,450.0,550.0,1.0,,,,,,,,,green,diamond
0.0,8.0,4.0,1.0,5.0,5.0,486.7097589994955,8.0,1.0,phase_2,go,450.0,550.0,1.0,,,,,,,,,cyan,flipped triangle
0.0,1.0,0.5,0.0,7.0,4.0,3357.1477200002846,1.0,2.0,phase_3,,,,,348.0,3.0,580.0,116.0,232.0,348.0,464.0,696.0,yellow,circle
0.0,8.0,4.0,1.0,7.0,5.0,3303.223549999529,1.0,1.0,phase_3,,,,,462.0,3.0,770.0,154.0,308.0,924.0,462.0,616.0,cyan,flipped triangle
0.0,4.0,4.0,0.0,7.0,6.0,3604.0964169997096,1.0,1.0,phase_3,,,,,616.0,4.0,924.0,308.0,154.0,462.0,770.0,616.0,orange,cross
0.0,2.0,1.0,0.0,7.0,2.0,2935.329026000545,1.0,1.0,phase_3,,,,,540.0,4.0,405.0,540.0,270.0,135.0,675.0,810.0,blue,triangle
0.0,5.0,0.5,1.0,7.0,5.0,1460.157323999738,1.0,1.0,phase_3,,,,,270.0,2.0,135.0,540.0,810.0,405.0,270.0,675.0,magenta,hexagon
0.0,2.0,1.0,0.0,7.0,5.0,2990.144970000074,1.0,1.0,phase_3,,,,,348.0,3.0,116.0,580.0,232.0,696.0,348.0,464.0,blue,triangle
0.0,4.0,4.0,0.0,7.0,1.0,2827.8002039996863,1.0,1.0,phase_3,,,,,384.0,2.0,384.0,576.0,1152.0,960.0,192.0,768.0,orange,cross
0.0,7.0,2.0,1.0,7.0,1.0,3790.374084999712,1.0,1.0,phase_3,,,,,616.0,4.0,616.0,154.0,924.0,770.0,462.0,308.0,gray,I
0.0,6.0,1.0,1.0,7.0,6.0,2712.8598899998906,1.0,1.0,phase_3,,,,,462.0,3.0,154.0,924.0,308.0,616.0,770.0,462.0,white,square
0.0,2.0,1.0,0.0,7.0,2.0,2238.89014300039,1.0,1.0,phase_3,,,,,308.0,2.0,462.0,308.0,924.0,770.0,616.0,154.0,blue,triangle
0.0,1.0,0.5,0.0,7.0,3.0,1881.9582539999828,1.0,1.0,phase_3,,,,,519.0,3.0,346.0,865.0,519.0,173.0,1038.0,692.0,yellow,circle
0.0,4.0,4.0,0.0,7.0,1.0,2607.8054040008283,1.0,1.0,phase_3,,,,,692.0,4.0,692.0,1038.0,519.0,173.0,865.0,346.0,orange,cross
0.0,3.0,2.0,0.0,7.0,6.0,2283.42999600045,1.0,1.0,phase_3,,,,,675.0,5.0,540.0,405.0,135.0,810.0,270.0,675.0,green,diamond
0.0,8.0,4.0,1.0,7.0,2.0,4956.722541999625,1.0,1.0,phase_3,,,,,270.0,2.0,540.0,270.0,405.0,810.0,135.0,675.0,cyan,flipped triangle
0.0,4.0,4.0,0.0,7.0,6.0,2716.9490460000816,1.0,1.0,phase_3,,,,,405.0,3.0,540.0,675.0,270.0,810.0,135.0,405.0,orange,cross
0.0,7.0,2.0,1.0,7.0,5.0,2142.317631999504,1.0,1.0,phase_3,,,,,405.0,3.0,675.0,135.0,810.0,270.0,405.0,540.0,gray,I
0.0,5.0,0.5,1.0,7.0,4.0,2008.3645020004042,1.0,1.0,phase_3,,,,,576.0,3.0,192.0,960.0,768.0,576.0,1152.0,384.0,magenta,hexagon
0.0,8.0,4.0,1.0,7.0,1.0,2228.026977999434,1.0,1.0,phase_3,,,,,696.0,6.0,696.0,232.0,580.0,464.0,116.0,348.0,cyan,flipped triangle
0.0,5.0,0.5,1.0,7.0,3.0,2908.2676340003677,1.0,1.0,phase_3,,,,,384.0,2.0,576.0,768.0,384.0,960.0,1152.0,192.0,magenta,hexagon
0.0,8.0,4.0,1.0,7.0,2.0,3292.392006999762,1.0,1.0,phase_3,,,,,770.0,5.0,462.0,770.0,616.0,154.0,924.0,308.0,cyan,flipped triangle
0.0,3.0,2.0,0.0,7.0,5.0,2523.514396000792,2.0,1.0,phase_3,,,,,519.0,3.0,1038.0,346.0,173.0,692.0,519.0,865.0,green,diamond
0.0,2.0,1.0,0.0,7.0,6.0,2429.9743070005206,2.0,1.0,phase_3,,,,,576.0,3.0,192.0,384.0,1152.0,960.0,768.0,576.0,blue,triangle
0.0,7.0,2.0,1.0,7.0,1.0,2311.959303000549,2.0,1.0,phase_3,,,,,616.0,4.0,616.0,924.0,154.0,462.0,770.0,308.0,gray,I
0.0,5.0,0.5,1.0,7.0,4.0,2343.744138999682,2.0,1.0,phase_3,,,,,924.0,6.0,308.0,770.0,154.0,924.0,462.0,616.0,magenta,hexagon
0.0,4.0,4.0,0.0,7.0,4.0,1292.106836999665,2.0,1.0,phase_3,,,,,464.0,4.0,348.0,696.0,116.0,464.0,580.0,232.0,orange,cross
0.0,2.0,1.0,0.0,7.0,3.0,1420.9524170000805,2.0,1.0,phase_3,,,,,519.0,3.0,1038.0,692.0,519.0,173.0,865.0,346.0,blue,triangle
0.0,5.0,0.5,1.0,7.0,5.0,2533.7614390000454,2.0,1.0,phase_3,,,,,696.0,6.0,232.0,580.0,464.0,348.0,696.0,116.0,magenta,hexagon
0.0,3.0,2.0,0.0,7.0,6.0,4530.675654999868,2.0,1.0,phase_3,,,,,519.0,3.0,346.0,173.0,865.0,692.0,1038.0,519.0,green,diamond
0.0,6.0,1.0,1.0,7.0,2.0,2508.8489239997216,2.0,1.0,phase_3,,,,,696.0,6.0,464.0,696.0,348.0,580.0,232.0,116.0,white,square
0.0,4.0,4.0,0.0,7.0,5.0,2000.5668280000464,2.0,1.0,phase_3,,,,,519.0,3.0,692.0,1038.0,346.0,865.0,519.0,173.0,orange,cross
0.0,6.0,1.0,1.0,7.0,3.0,2001.4260969992392,2.0,1.0,phase_3,,,,,519.0,3.0,1038.0,346.0,519.0,692.0,865.0,173.0,white,square
0.0,1.0,0.5,0.0,7.0,4.0,2543.8208860005034,2.0,1.0,phase_3,,,,,675.0,5.0,810.0,135.0,405.0,675.0,270.0,540.0,yellow,circle
0.0,1.0,0.5,0.0,7.0,5.0,2650.712225999996,2.0,1.0,phase_3,,,,,768.0,4.0,384.0,192.0,1152.0,576.0,768.0,960.0,yellow,circle
0.0,2.0,1.0,0.0,7.0,4.0,2382.036666000204,2.0,1.0,phase_3,,,,,519.0,3.0,1038.0,346.0,173.0,519.0,692.0,865.0,blue,triangle
0.0,6.0,1.0,1.0,7.0,3.0,2079.2973560000974,2.0,1.0,phase_3,,,,,580.0,5.0,348.0,464.0,580.0,696.0,116.0,232.0,white,square
0.0,5.0,0.5,1.0,7.0,4.0,1529.7526040003504,2.0,1.0,phase_3,,,,,696.0,6.0,580.0,464.0,232.0,696.0,348.0,116.0,magenta,hexagon
0.0,2.0,1.0,0.0,7.0,2.0,1643.935959999908,2.0,1.0,phase_3,,,,,464.0,4.0,580.0,464.0,116.0,696.0,348.0,232.0,blue,triangle
0.0,7.0,2.0,1.0,7.0,2.0,2014.45909999984,2.0,1.0,phase_3,,,,,464.0,4.0,232.0,464.0,116.0,348.0,580.0,696.0,gray,I
0.0,7.0,2.0,1.0,7.0,4.0,1218.681619000563,2.0,1.0,phase_3,,,,,692.0,4.0,865.0,519.0,346.0,692.0,1038.0,173.0,gray,I
0.0,7.0,2.0,1.0,7.0,1.0,1665.9247790003064,2.0,1.0,phase_3,,,,,576.0,3.0,576.0,384.0,960.0,768.0,192.0,1152.0,gray,I
0.0,8.0,4.0,1.0,7.0,6.0,2160.6976719995146,3.0,1.0,phase_3,,,,,576.0,3.0,768.0,192.0,960.0,384.0,1152.0,576.0,cyan,flipped triangle
0.0,4.0,4.0,0.0,7.0,1.0,1272.824824000054,3.0,1.0,phase_3,,,,,576.0,3.0,576.0,768.0,1152.0,960.0,384.0,192.0,orange,cross
0.0,7.0,2.0,1.0,7.0,5.0,2319.706790999589,3.0,1.0,phase_3,,,,,768.0,4.0,960.0,1152.0,384.0,576.0,768.0,192.0,gray,I
0.0,5.0,0.5,1.0,7.0,2.0,1955.4279339999996,3.0,1.0,phase_3,,,,,675.0,5.0,810.0,675.0,270.0,405.0,135.0,540.0,magenta,hexagon
0.0,5.0,0.5,1.0,7.0,3.0,2284.471619999749,3.0,1.0,phase_3,,,,,865.0,5.0,519.0,346.0,865.0,692.0,173.0,1038.0,magenta,hexagon
0.0,1.0,0.5,0.0,7.0,4.0,1720.7233489998544,3.0,1.0,phase_3,,,,,540.0,4.0,810.0,405.0,135.0,540.0,270.0,675.0,yellow,circle
0.0,1.0,0.5,0.0,7.0,4.0,808.1527340000321,3.0,1.0,phase_3,,,,,576.0,3.0,960.0,768.0,384.0,576.0,192.0,1152.0,yellow,circle
0.0,8.0,4.0,1.0,7.0,5.0,1505.7948559997385,3.0,1.0,phase_3,,,,,519.0,3.0,865.0,346.0,1038.0,173.0,519.0,692.0,cyan,flipped triangle
0.0,8.0,4.0,1.0,7.0,2.0,2369.0569709997358,3.0,1.0,phase_3,,,,,540.0,4.0,405.0,540.0,135.0,270.0,810.0,675.0,cyan,flipped triangle
0.0,1.0,0.5,0.0,7.0,4.0,893.7592669999503,3.0,1.0,phase_3,,,,,580.0,5.0,116.0,464.0,348.0,580.0,232.0,696.0,yellow,circle
0.0,3.0,2.0,0.0,7.0,6.0,956.7169590000047,3.0,1.0,phase_3,,,,,576.0,3.0,768.0,384.0,1152.0,192.0,960.0,576.0,green,diamond
0.0,1.0,0.5,0.0,7.0,2.0,1442.2180530000333,3.0,1.0,phase_3,,,,,519.0,3.0,173.0,519.0,346.0,865.0,1038.0,692.0,yellow,circle
0.0,8.0,4.0,1.0,7.0,4.0,1782.6173740004378,3.0,1.0,phase_3,,,,,464.0,4.0,232.0,116.0,348.0,464.0,696.0,580.0,cyan,flipped triangle
0.0,7.0,2.0,1.0,7.0,5.0,3531.8171389999407,3.0,1.0,phase_3,,,,,519.0,3.0,173.0,346.0,865.0,692.0,519.0,1038.0,gray,I
0.0,7.0,2.0,1.0,7.0,1.0,1967.5462889999835,3.0,1.0,phase_3,,,,,464.0,4.0,464.0,232.0,696.0,116.0,348.0,580.0,gray,I
0.0,3.0,2.0,0.0,7.0,1.0,2970.5146579999564,3.0,1.0,phase_3,,,,,770.0,5.0,770.0,924.0,616.0,154.0,308.0,462.0,green,diamond
0.0,5.0,0.5,1.0,7.0,3.0,2656.2617079998745,3.0,1.0,phase_3,,,,,616.0,4.0,308.0,924.0,616.0,770.0,462.0,154.0,magenta,hexagon
0.0,6.0,1.0,1.0,7.0,5.0,1189.2683050000414,3.0,1.0,phase_3,,,,,576.0,3.0,768.0,192.0,1152.0,384.0,576.0,960.0,white,square
0.0,4.0,4.0,0.0,7.0,4.0,1932.3678880000443,3.0,1.0,phase_3,,,,,616.0,4.0,924.0,308.0,770.0,616.0,154.0,462.0,orange,cross
0.0,3.0,2.0,0.0,7.0,6.0,1143.7636470000143,3.0,1.0,phase_3,,,,,576.0,3.0,768.0,192.0,384.0,960.0,1152.0,576.0,green,diamond
0.0,7.0,2.0,1.0,7.0,5.0,1800.182341999971,4.0,1.0,phase_3,,,,,540.0,4.0,810.0,675.0,135.0,405.0,540.0,270.0,gray,I
0.0,2.0,1.0,0.0,7.0,1.0,1718.3137900001384,4.0,1.0,phase_3,,,,,576.0,3.0,576.0,960.0,192.0,1152.0,768.0,384.0,blue,triangle
0.0,1.0,0.5,0.0,7.0,6.0,2141.931769000621,4.0,1.0,phase_3,,,,,616.0,4.0,462.0,154.0,308.0,770.0,924.0,616.0,yellow,circle
0.0,6.0,1.0,1.0,7.0,6.0,1198.939146000157,4.0,1.0,phase_3,,,,,519.0,3.0,692.0,865.0,173.0,346.0,1038.0,519.0,white,square
0.0,2.0,1.0,0.0,7.0,4.0,1349.1877930000555,4.0,1.0,phase_3,,,,,405.0,3.0,810.0,540.0,135.0,405.0,270.0,675.0,blue,triangle
0.0,8.0,4.0,1.0,7.0,2.0,1113.2552150002084,4.0,1.0,phase_3,,,,,576.0,3.0,960.0,576.0,768.0,384.0,1152.0,192.0,cyan,flipped triangle
0.0,6.0,1.0,1.0,7.0,4.0,936.375137000141,4.0,1.0,phase_3,,,,,675.0,5.0,540.0,810.0,270.0,675.0,405.0,135.0,white,square
0.0,4.0,4.0,0.0,7.0,6.0,927.4644979996084,4.0,1.0,phase_3,,,,,405.0,3.0,675.0,540.0,270.0,810.0,135.0,405.0,orange,cross
0.0,4.0,4.0,0.0,7.0,2.0,1192.672891999791,4.0,1.0,phase_3,,,,,580.0,5.0,696.0,580.0,348.0,116.0,232.0,464.0,orange,cross
0.0,2.0,1.0,0.0,7.0,6.0,1084.246928000539,4.0,1.0,phase_3,,,,,616.0,4.0,154.0,462.0,924.0,770.0,308.0,616.0,blue,triangle
0.0,3.0,2.0,0.0,7.0,4.0,979.0052749995084,4.0,1.0,phase_3,,,,,540.0,4.0,405.0,810.0,135.0,540.0,270.0,675.0,green,diamond
0.0,5.0,0.5,1.0,7.0,4.0,717.5599369993506,4.0,1.0,phase_3,,,,,519.0,3.0,865.0,692.0,346.0,519.0,173.0,1038.0,magenta,hexagon
0.0,3.0,2.0,0.0,7.0,4.0,744.4261240007108,4.0,1.0,phase_3,,,,,464.0,4.0,232.0,580.0,348.0,464.0,116.0,696.0,green,diamond
0.0,3.0,2.0,0.0,7.0,1.0,721.1891220003963,4.0,1.0,phase_3,,,,,464.0,4.0,464.0,116.0,348.0,696.0,232.0,580.0,green,diamond
0.0,8.0,4.0,1.0,7.0,6.0,922.253262000595,4.0,1.0,phase_3,,,,,346.0,2.0,692.0,173.0,519.0,865.0,1038.0,346.0,cyan,flipped triangle
0.0,6.0,1.0,1.0,7.0,1.0,1626.84408000041,4.0,1.0,phase_3,,,,,576.0,3.0,576.0,960.0,192.0,768.0,1152.0,384.0,white,square
0.0,1.0,0.5,0.0,7.0,2.0,1873.5592820003149,4.0,1.0,phase_3,,,,,308.0,2.0,462.0,308.0,770.0,616.0,154.0,924.0,yellow,circle
0.0,6.0,1.0,1.0,7.0,1.0,1646.025078999628,4.0,1.0,phase_3,,,,,616.0,4.0,616.0,154.0,462.0,770.0,924.0,308.0,white,square
0.0,6.0,1.0,1.0,7.0,3.0,2448.435229999632,4.0,1.0,phase_3,,,,,540.0,4.0,270.0,405.0,540.0,810.0,135.0,675.0,white,square
0.0,3.0,2.0,0.0,7.0,6.0,1255.8388279994688,4.0,1.0,phase_3,,,,,462.0,3.0,616.0,770.0,308.0,924.0,154.0,462.0,green,diamond
