raw_reward_magnitude,stim_reward,stepwise_reward_magnitude,paired_with_stopping,quadrant,response,reaction_time,block,num_trial_presentations,which_part,stop_signal_trial_type,left_SSD,right_SSD,accuracy,chosen_bidding_amount,chosen_bidding_level,possible_bid_1,possible_bid_2,possible_bid_3,possible_bid_4,possible_bid_5,possible_bid_6,color_text,shape_text
326.0,2.0,2.0,0.0,1.0,1.0,395.7875969999804,1.0,1.0,part_1,,,,,,,,,,,,,blue,triangle
344.0,6.0,2.0,1.0,4.0,4.0,416.9922619998942,1.0,1.0,part_1,,,,,,,,,,,,,magenta,hexagon
1313.0,8.0,4.0,1.0,2.0,2.0,408.2790350003051,1.0,1.0,part_1,,,,,,,,,,,,,white,circle
346.0,2.0,2.0,0.0,3.0,3.0,278.8694700002452,1.0,1.0,part_1,,,,,,,,,,,,,blue,triangle
322.0,2.0,2.0,0.0,4.0,4.0,379.9136279999402,1.0,1.0,part_1,,,,,,,,,,,,,blue,triangle
640.0,3.0,3.0,0.0,2.0,2.0,305.4421249998995,1.0,1.0,part_1,,,,,,,,,,,,,orange,I
671.0,7.0,3.0,1.0,3.0,3.0,343.513602999792,1.0,1.0,part_1,,,,,,,,,,,,,cyan,square
632.0,3.0,3.0,0.0,1.0,1.0,333.6575539997284,1.0,1.0,part_1,,,,,,,,,,,,,orange,I
1281.0,4.0,4.0,0.0,1.0,1.0,364.4233710001572,1.0,1.0,part_1,,,,,,,,,,,,,gray,cross
140.0,1.0,1.0,0.0,4.0,4.0,361.7319879999741,1.0,1.0,part_1,,,,,,,,,,,,,green,flipped triangle
0.0,1.0,0.0,0.0,4.0,4.0,389.0032970002721,1.0,1.0,part_1,,,,,,,,,,,,,green,flipped triangle
174.0,5.0,1.0,1.0,3.0,3.0,362.6519769995866,1.0,1.0,part_1,,,,,,,,,,,,,yellow,diamond
343.0,2.0,2.0,0.0,1.0,1.0,268.8784420001866,1.0,1.0,part_1,,,,,,,,,,,,,blue,triangle
161.0,1.0,1.0,0.0,1.0,1.0,332.0148579996385,1.0,2.0,part_1,,,,,,,,,,,,,green,flipped triangle
318.0,6.0,2.0,1.0,2.0,2.0,369.8584490002758,1.0,1.0,part_1,,,,,,,,,,,,,magenta,hexagon
1307.0,4.0,4.0,0.0,3.0,3.0,396.0707599999296,1.0,1.0,part_1,,,,,,,,,,,,,gray,cross
139.0,5.0,1.0,1.0,2.0,2.0,352.1080949999486,1.0,1.0,part_1,,,,,,,,,,,,,yellow,diamond
643.0,3.0,3.0,0.0,1.0,1.0,345.1874219999808,1.0,1.0,part_1,,,,,,,,,,,,,orange,I
320.0,2.0,2.0,0.0,1.0,1.0,361.5851879999354,1.0,1.0,part_1,,,,,,,,,,,,,blue,triangle
0.0,6.0,0.0,1.0,4.0,4.0,556.1213580003823,1.0,1.0,part_1,,,,,,,,,,,,,magenta,hexagon
626.0,7.0,3.0,1.0,1.0,1.0,380.8778360003089,1.0,1.0,part_1,,,,,,,,,,,,,cyan,square
1321.0,8.0,4.0,1.0,2.0,2.0,443.9935790001073,1.0,1.0,part_1,,,,,,,,,,,,,white,circle
0.0,6.0,0.0,1.0,4.0,4.0,306.450722000136,1.0,1.0,part_1,,,,,,,,,,,,,magenta,hexagon
0.0,6.0,0.0,1.0,1.0,1.0,341.9684589998724,1.0,1.0,part_1,,,,,,,,,,,,,magenta,hexagon
332.0,2.0,2.0,0.0,1.0,1.0,304.8420400000395,1.0,1.0,part_1,,,,,,,,,,,,,blue,triangle
177.0,5.0,1.0,1.0,1.0,1.0,287.3295669996878,1.0,1.0,part_1,,,,,,,,,,,,,yellow,diamond
1314.0,8.0,4.0,1.0,2.0,2.0,362.0964890001232,1.0,1.0,part_1,,,,,,,,,,,,,white,circle
1319.0,8.0,4.0,1.0,2.0,2.0,352.4312810000083,1.0,1.0,part_1,,,,,,,,,,,,,white,circle
0.0,7.0,0.0,1.0,4.0,4.0,453.3249999999498,1.0,1.0,part_1,,,,,,,,,,,,,cyan,square
0.0,1.0,0.0,0.0,1.0,1.0,360.9797310000431,1.0,1.0,part_1,,,,,,,,,,,,,green,flipped triangle
164.0,1.0,1.0,0.0,1.0,1.0,343.0559509997692,1.0,1.0,part_1,,,,,,,,,,,,,green,flipped triangle
345.0,6.0,2.0,1.0,2.0,2.0,324.5573919998605,1.0,1.0,part_1,,,,,,,,,,,,,magenta,hexagon
141.0,1.0,1.0,0.0,3.0,3.0,361.5778670000509,1.0,1.0,part_1,,,,,,,,,,,,,green,flipped triangle
333.0,6.0,2.0,1.0,1.0,1.0,398.3234970000922,1.0,1.0,part_1,,,,,,,,,,,,,magenta,hexagon
0.0,2.0,0.0,0.0,3.0,3.0,324.0542519997689,1.0,1.0,part_1,,,,,,,,,,,,,blue,triangle
0.0,2.0,0.0,0.0,3.0,3.0,398.3509979998416,1.0,1.0,part_1,,,,,,,,,,,,,blue,triangle
303.0,6.0,2.0,1.0,3.0,3.0,342.8169480002907,1.0,1.0,part_1,,,,,,,,,,,,,magenta,hexagon
0.0,1.0,0.0,0.0,1.0,1.0,334.1134409997721,1.0,1.0,part_1,,,,,,,,,,,,,green,flipped triangle
668.0,3.0,3.0,0.0,2.0,2.0,362.7207310000813,1.0,1.0,part_1,,,,,,,,,,,,,orange,I
311.0,6.0,2.0,1.0,1.0,1.0,426.7976269998144,1.0,1.0,part_1,,,,,,,,,,,,,magenta,hexagon
1286.0,4.0,4.0,0.0,4.0,4.0,418.9864170002693,1.0,1.0,part_1,,,,,,,,,,,,,gray,cross
651.0,3.0,3.0,0.0,3.0,3.0,316.0464689999571,1.0,1.0,part_1,,,,,,,,,,,,,orange,I
640.0,7.0,3.0,1.0,1.0,1.0,324.2117439999674,1.0,1.0,part_1,,,,,,,,,,,,,cyan,square
343.0,6.0,2.0,1.0,3.0,3.0,343.5467290000815,1.0,1.0,part_1,,,,,,,,,,,,,magenta,hexagon
639.0,3.0,3.0,0.0,3.0,3.0,363.0832320000081,1.0,1.0,part_1,,,,,,,,,,,,,orange,I
145.0,5.0,1.0,1.0,1.0,1.0,352.4297240001033,1.0,1.0,part_1,,,,,,,,,,,,,yellow,diamond
0.0,3.0,0.0,0.0,3.0,3.0,323.48222199971127,1.0,1.0,part_1,,,,,,,,,,,,,orange,I
0.0,1.0,0.0,0.0,3.0,3.0,379.4682279999506,1.0,1.0,part_1,,,,,,,,,,,,,green,flipped triangle
656.0,3.0,3.0,0.0,1.0,1.0,343.5256999996454,1.0,1.0,part_1,,,,,,,,,,,,,orange,I
302.0,6.0,2.0,1.0,4.0,4.0,420.0816419997863,1.0,2.0,part_1,,,,,,,,,,,,,magenta,hexagon
163.0,5.0,1.0,1.0,3.0,3.0,370.5111650001527,1.0,1.0,part_1,,,,,,,,,,,,,yellow,diamond
343.0,2.0,2.0,0.0,2.0,2.0,564.0707640000073,1.0,1.0,part_1,,,,,,,,,,,,,blue,triangle
334.0,6.0,2.0,1.0,1.0,1.0,536.8142480001552,1.0,1.0,part_1,,,,,,,,,,,,,magenta,hexagon
1286.0,8.0,4.0,1.0,1.0,1.0,435.9790540001995,1.0,1.0,part_1,,,,,,,,,,,,,white,circle
335.0,6.0,2.0,1.0,2.0,2.0,512.2734789997594,1.0,1.0,part_1,,,,,,,,,,,,,magenta,hexagon
316.0,2.0,2.0,0.0,4.0,4.0,381.1514019998867,1.0,1.0,part_1,,,,,,,,,,,,,blue,triangle
675.0,7.0,3.0,1.0,3.0,3.0,343.8396560000001,1.0,1.0,part_1,,,,,,,,,,,,,cyan,square
639.0,7.0,3.0,1.0,3.0,3.0,508.86932899993553,1.0,1.0,part_1,,,,,,,,,,,,,cyan,square
1293.0,8.0,4.0,1.0,4.0,4.0,426.0419570000522,1.0,1.0,part_1,,,,,,,,,,,,,white,circle
1293.0,4.0,4.0,0.0,2.0,2.0,634.357385000385,1.0,1.0,part_1,,,,,,,,,,,,,gray,cross
0.0,8.0,0.0,1.0,1.0,1.0,491.3274189998446,1.0,1.0,part_1,,,,,,,,,,,,,white,circle
636.0,3.0,3.0,0.0,3.0,3.0,333.3900750003522,1.0,1.0,part_1,,,,,,,,,,,,,orange,I
1286.0,4.0,4.0,0.0,4.0,4.0,380.7013639998331,1.0,1.0,part_1,,,,,,,,,,,,,gray,cross
0.0,1.0,0.0,0.0,4.0,4.0,446.1361849998866,1.0,1.0,part_1,,,,,,,,,,,,,green,flipped triangle
1317.0,8.0,4.0,1.0,3.0,3.0,352.6707940000051,1.0,1.0,part_1,,,,,,,,,,,,,white,circle
632.0,7.0,3.0,1.0,4.0,4.0,445.7357430001138,1.0,1.0,part_1,,,,,,,,,,,,,cyan,square
322.0,6.0,2.0,1.0,2.0,2.0,435.8456889999615,1.0,1.0,part_1,,,,,,,,,,,,,magenta,hexagon
1293.0,4.0,4.0,0.0,4.0,4.0,498.9821970002595,1.0,1.0,part_1,,,,,,,,,,,,,gray,cross
656.0,7.0,3.0,1.0,4.0,4.0,417.8604630001246,1.0,1.0,part_1,,,,,,,,,,,,,cyan,square
0.0,5.0,0.0,1.0,2.0,2.0,380.0218999999742,1.0,2.0,part_1,,,,,,,,,,,,,yellow,diamond
1322.0,4.0,4.0,0.0,1.0,1.0,436.8821539997043,1.0,1.0,part_1,,,,,,,,,,,,,gray,cross
302.0,2.0,2.0,0.0,2.0,2.0,499.5953679999729,1.0,1.0,part_1,,,,,,,,,,,,,blue,triangle
306.0,2.0,2.0,0.0,2.0,2.0,370.6512209996617,1.0,1.0,part_1,,,,,,,,,,,,,blue,triangle
656.0,3.0,3.0,0.0,2.0,2.0,371.3709809999272,1.0,1.0,part_1,,,,,,,,,,,,,orange,I
175.0,5.0,1.0,1.0,4.0,4.0,435.0641150003866,1.0,1.0,part_1,,,,,,,,,,,,,yellow,diamond
1319.0,4.0,4.0,0.0,4.0,4.0,379.4272939999246,1.0,1.0,part_1,,,,,,,,,,,,,gray,cross
0.0,2.0,0.0,0.0,2.0,2.0,407.454067999879,1.0,1.0,part_1,,,,,,,,,,,,,blue,triangle
1304.0,8.0,4.0,1.0,3.0,3.0,416.6574290002245,1.0,1.0,part_1,,,,,,,,,,,,,white,circle
336.0,2.0,2.0,0.0,1.0,1.0,360.931138000069,1.0,1.0,part_1,,,,,,,,,,,,,blue,triangle
642.0,3.0,3.0,0.0,4.0,4.0,389.188328000273,1.0,1.0,part_1,,,,,,,,,,,,,orange,I
342.0,2.0,2.0,0.0,2.0,2.0,425.4895240001133,1.0,2.0,part_1,,,,,,,,,,,,,blue,triangle
668.0,3.0,3.0,0.0,4.0,4.0,436.4499260000229,1.0,1.0,part_1,,,,,,,,,,,,,orange,I
180.0,5.0,1.0,1.0,4.0,4.0,491.474988000391,1.0,1.0,part_1,,,,,,,,,,,,,yellow,diamond
1314.0,8.0,4.0,1.0,2.0,2.0,472.1427059998859,1.0,1.0,part_1,,,,,,,,,,,,,white,circle
348.0,2.0,2.0,0.0,2.0,2.0,379.8345990003327,1.0,1.0,part_1,,,,,,,,,,,,,blue,triangle
0.0,5.0,0.0,1.0,3.0,3.0,352.869155999997,1.0,1.0,part_1,,,,,,,,,,,,,yellow,diamond
0.0,6.0,0.0,1.0,1.0,1.0,499.879711000176,1.0,1.0,part_1,,,,,,,,,,,,,magenta,hexagon
1296.0,4.0,4.0,0.0,1.0,1.0,528.2956790001663,1.0,1.0,part_1,,,,,,,,,,,,,gray,cross
1281.0,8.0,4.0,1.0,4.0,4.0,427.4056760000349,1.0,1.0,part_1,,,,,,,,,,,,,white,circle
1281.0,4.0,4.0,0.0,1.0,1.0,435.7644470001105,1.0,1.0,part_1,,,,,,,,,,,,,gray,cross
644.0,7.0,3.0,1.0,4.0,4.0,436.1164379997717,1.0,1.0,part_1,,,,,,,,,,,,,cyan,square
1322.0,8.0,4.0,1.0,4.0,4.0,528.2020059999013,1.0,1.0,part_1,,,,,,,,,,,,,white,circle
0.0,6.0,0.0,1.0,3.0,3.0,379.9303219998364,1.0,1.0,part_1,,,,,,,,,,,,,magenta,hexagon
178.0,5.0,1.0,1.0,3.0,3.0,361.495764999745,1.0,1.0,part_1,,,,,,,,,,,,,yellow,diamond
138.0,5.0,1.0,1.0,1.0,1.0,757.6911209998798,1.0,1.0,part_1,,,,,,,,,,,,,yellow,diamond
154.0,1.0,1.0,0.0,1.0,1.0,471.7934320001404,1.0,1.0,part_1,,,,,,,,,,,,,green,flipped triangle
323.0,2.0,2.0,0.0,4.0,4.0,509.6913519996633,1.0,1.0,part_1,,,,,,,,,,,,,blue,triangle
637.0,7.0,3.0,1.0,2.0,2.0,545.4378340000403,1.0,1.0,part_1,,,,,,,,,,,,,cyan,square
0.0,6.0,0.0,1.0,2.0,2.0,372.1826620003412,1.0,1.0,part_1,,,,,,,,,,,,,magenta,hexagon
1294.0,4.0,4.0,0.0,4.0,4.0,464.1649629998028,1.0,1.0,part_1,,,,,,,,,,,,,gray,cross
332.0,6.0,2.0,1.0,4.0,4.0,508.76435100008166,2.0,1.0,part_1,,,,,,,,,,,,,magenta,hexagon
140.0,1.0,1.0,0.0,2.0,2.0,583.5045809999428,2.0,1.0,part_1,,,,,,,,,,,,,green,flipped triangle
143.0,5.0,1.0,1.0,4.0,4.0,397.637627000222,2.0,1.0,part_1,,,,,,,,,,,,,yellow,diamond
652.0,3.0,3.0,0.0,2.0,2.0,334.1840419998334,2.0,1.0,part_1,,,,,,,,,,,,,orange,I
0.0,5.0,0.0,1.0,2.0,2.0,352.1768439995867,2.0,1.0,part_1,,,,,,,,,,,,,yellow,diamond
658.0,7.0,3.0,1.0,2.0,2.0,324.555921999945,2.0,1.0,part_1,,,,,,,,,,,,,cyan,square
662.0,3.0,3.0,0.0,1.0,1.0,445.0543449997894,2.0,1.0,part_1,,,,,,,,,,,,,orange,I
1321.0,8.0,4.0,1.0,4.0,4.0,426.5062129998114,2.0,1.0,part_1,,,,,,,,,,,,,white,circle
631.0,3.0,3.0,0.0,4.0,4.0,482.5698100003137,2.0,1.0,part_1,,,,,,,,,,,,,orange,I
0.0,7.0,0.0,1.0,3.0,3.0,379.4744190004167,2.0,1.0,part_1,,,,,,,,,,,,,cyan,square
0.0,4.0,0.0,0.0,1.0,1.0,482.4083050002627,2.0,1.0,part_1,,,,,,,,,,,,,gray,cross
649.0,7.0,3.0,1.0,3.0,3.0,319.167894000202,2.0,1.0,part_1,,,,,,,,,,,,,cyan,square
658.0,3.0,3.0,0.0,3.0,3.0,426.9642500003101,2.0,1.0,part_1,,,,,,,,,,,,,orange,I
330.0,2.0,2.0,0.0,3.0,3.0,360.7100829999581,2.0,1.0,part_1,,,,,,,,,,,,,blue,triangle
0.0,2.0,0.0,0.0,1.0,1.0,372.3122499995952,2.0,1.0,part_1,,,,,,,,,,,,,blue,triangle
344.0,2.0,2.0,0.0,2.0,2.0,455.2843100000245,2.0,1.0,part_1,,,,,,,,,,,,,blue,triangle
0.0,7.0,0.0,1.0,4.0,4.0,473.5324389998823,2.0,1.0,part_1,,,,,,,,,,,,,cyan,square
0.0,4.0,0.0,0.0,2.0,2.0,379.055717999563,2.0,1.0,part_1,,,,,,,,,,,,,gray,cross
631.0,7.0,3.0,1.0,4.0,4.0,390.833387999919,2.0,1.0,part_1,,,,,,,,,,,,,cyan,square
320.0,2.0,2.0,0.0,1.0,1.0,463.5820610001246,2.0,1.0,part_1,,,,,,,,,,,,,blue,triangle
675.0,7.0,3.0,1.0,2.0,2.0,417.3802810000779,2.0,1.0,part_1,,,,,,,,,,,,,cyan,square
1294.0,8.0,4.0,1.0,2.0,2.0,500.6329630000437,2.0,1.0,part_1,,,,,,,,,,,,,white,circle
1287.0,8.0,4.0,1.0,4.0,4.0,436.8360580001535,2.0,1.0,part_1,,,,,,,,,,,,,white,circle
1278.0,8.0,4.0,1.0,4.0,4.0,409.1005099999165,2.0,1.0,part_1,,,,,,,,,,,,,white,circle
640.0,3.0,3.0,0.0,2.0,2.0,362.0094500001869,2.0,1.0,part_1,,,,,,,,,,,,,orange,I
0.0,2.0,0.0,0.0,2.0,2.0,390.1595820002512,2.0,1.0,part_1,,,,,,,,,,,,,blue,triangle
1289.0,8.0,4.0,1.0,1.0,1.0,602.6843390000067,2.0,1.0,part_1,,,,,,,,,,,,,white,circle
651.0,7.0,3.0,1.0,2.0,2.0,444.7402200003125,2.0,1.0,part_1,,,,,,,,,,,,,cyan,square
662.0,7.0,3.0,1.0,4.0,4.0,501.92779200006044,2.0,1.0,part_1,,,,,,,,,,,,,cyan,square
304.0,6.0,2.0,1.0,1.0,1.0,408.639149999999,2.0,1.0,part_1,,,,,,,,,,,,,magenta,hexagon
1305.0,4.0,4.0,0.0,1.0,1.0,362.6383179998811,2.0,1.0,part_1,,,,,,,,,,,,,gray,cross
637.0,3.0,3.0,0.0,4.0,4.0,446.4635400004226,2.0,2.0,part_1,,,,,,,,,,,,,orange,I
0.0,2.0,0.0,0.0,3.0,3.0,417.5779600000169,2.0,1.0,part_1,,,,,,,,,,,,,blue,triangle
0.0,8.0,0.0,1.0,1.0,1.0,956.2957770003776,2.0,1.0,part_1,,,,,,,,,,,,,white,circle
330.0,6.0,2.0,1.0,4.0,4.0,380.2799239997512,2.0,1.0,part_1,,,,,,,,,,,,,magenta,hexagon
164.0,5.0,1.0,1.0,4.0,4.0,325.2637460000187,2.0,1.0,part_1,,,,,,,,,,,,,yellow,diamond
143.0,1.0,1.0,0.0,2.0,2.0,935.8487519998562,2.0,1.0,part_1,,,,,,,,,,,,,green,flipped triangle
652.0,7.0,3.0,1.0,4.0,4.0,481.8910230001165,2.0,1.0,part_1,,,,,,,,,,,,,cyan,square
327.0,6.0,2.0,1.0,4.0,4.0,352.7604860000792,2.0,1.0,part_1,,,,,,,,,,,,,magenta,hexagon
0.0,1.0,0.0,0.0,4.0,4.0,380.988896999952,2.0,1.0,part_1,,,,,,,,,,,,,green,flipped triangle
638.0,7.0,3.0,1.0,4.0,4.0,371.5341199999784,2.0,1.0,part_1,,,,,,,,,,,,,cyan,square
0.0,1.0,0.0,0.0,4.0,4.0,454.9691260003783,2.0,1.0,part_1,,,,,,,,,,,,,green,flipped triangle
1278.0,4.0,4.0,0.0,4.0,4.0,389.5982549997825,2.0,1.0,part_1,,,,,,,,,,,,,gray,cross
330.0,2.0,2.0,0.0,3.0,3.0,399.5181039999806,2.0,1.0,part_1,,,,,,,,,,,,,blue,triangle
139.0,1.0,1.0,0.0,1.0,1.0,622.2440859996823,2.0,1.0,part_1,,,,,,,,,,,,,green,flipped triangle
652.0,7.0,3.0,1.0,1.0,1.0,659.504910999658,2.0,1.0,part_1,,,,,,,,,,,,,cyan,square
0.0,6.0,0.0,1.0,3.0,3.0,445.3656370001226,2.0,1.0,part_1,,,,,,,,,,,,,magenta,hexagon
1294.0,4.0,4.0,0.0,2.0,2.0,741.4805049997995,2.0,1.0,part_1,,,,,,,,,,,,,gray,cross
0.0,7.0,0.0,1.0,2.0,2.0,705.2862210002786,2.0,1.0,part_1,,,,,,,,,,,,,cyan,square
1294.0,4.0,4.0,0.0,2.0,2.0,471.9378370000413,2.0,1.0,part_1,,,,,,,,,,,,,gray,cross
160.0,1.0,1.0,0.0,1.0,1.0,371.7677300001014,2.0,1.0,part_1,,,,,,,,,,,,,green,flipped triangle
142.0,1.0,1.0,0.0,3.0,3.0,399.1201690000707,2.0,1.0,part_1,,,,,,,,,,,,,green,flipped triangle
1316.0,4.0,4.0,0.0,1.0,1.0,482.549833000121,2.0,1.0,part_1,,,,,,,,,,,,,gray,cross
1304.0,4.0,4.0,0.0,3.0,3.0,391.0764519996519,2.0,1.0,part_1,,,,,,,,,,,,,gray,cross
631.0,3.0,3.0,0.0,3.0,3.0,428.0116299996734,2.0,1.0,part_1,,,,,,,,,,,,,orange,I
631.0,7.0,3.0,1.0,3.0,3.0,362.7520370000638,2.0,1.0,part_1,,,,,,,,,,,,,cyan,square
649.0,3.0,3.0,0.0,3.0,3.0,371.3701480000964,2.0,1.0,part_1,,,,,,,,,,,,,orange,I
0.0,2.0,0.0,0.0,1.0,1.0,379.6196859998417,2.0,1.0,part_1,,,,,,,,,,,,,blue,triangle
325.0,2.0,2.0,0.0,4.0,4.0,406.8361760000698,2.0,1.0,part_1,,,,,,,,,,,,,blue,triangle
333.0,2.0,2.0,0.0,1.0,1.0,361.5267779996429,2.0,1.0,part_1,,,,,,,,,,,,,blue,triangle
0.0,5.0,0.0,1.0,2.0,2.0,600.7025250000879,2.0,1.0,part_1,,,,,,,,,,,,,yellow,diamond
330.0,6.0,2.0,1.0,3.0,3.0,379.4801700000789,2.0,1.0,part_1,,,,,,,,,,,,,magenta,hexagon
664.0,3.0,3.0,0.0,2.0,2.0,371.6808879999007,2.0,1.0,part_1,,,,,,,,,,,,,orange,I
312.0,2.0,2.0,0.0,1.0,1.0,388.8085490002595,2.0,1.0,part_1,,,,,,,,,,,,,blue,triangle
153.0,5.0,1.0,1.0,1.0,1.0,435.0236430000223,2.0,1.0,part_1,,,,,,,,,,,,,yellow,diamond
1296.0,8.0,4.0,1.0,1.0,1.0,380.7145050000144,2.0,1.0,part_1,,,,,,,,,,,,,white,circle
177.0,5.0,1.0,1.0,2.0,2.0,444.083607000266,2.0,1.0,part_1,,,,,,,,,,,,,yellow,diamond
183.0,1.0,1.0,0.0,4.0,4.0,408.628667999892,2.0,1.0,part_1,,,,,,,,,,,,,green,flipped triangle
628.0,7.0,3.0,1.0,2.0,2.0,380.6108429998858,2.0,1.0,part_1,,,,,,,,,,,,,cyan,square
652.0,3.0,3.0,0.0,2.0,2.0,408.5750340000231,2.0,1.0,part_1,,,,,,,,,,,,,orange,I
150.0,5.0,1.0,1.0,4.0,4.0,408.4096139999928,2.0,1.0,part_1,,,,,,,,,,,,,yellow,diamond
163.0,1.0,1.0,0.0,4.0,4.0,370.3156639999179,2.0,1.0,part_1,,,,,,,,,,,,,green,flipped triangle
0.0,1.0,0.0,0.0,2.0,2.0,443.8499329999104,2.0,1.0,part_1,,,,,,,,,,,,,green,flipped triangle
146.0,5.0,1.0,1.0,4.0,4.0,373.6804459999803,2.0,1.0,part_1,,,,,,,,,,,,,yellow,diamond
662.0,7.0,3.0,1.0,3.0,3.0,370.8217309999781,2.0,1.0,part_1,,,,,,,,,,,,,cyan,square
658.0,3.0,3.0,0.0,1.0,1.0,675.9498619999249,2.0,1.0,part_1,,,,,,,,,,,,,orange,I
185.0,5.0,1.0,1.0,1.0,1.0,494.6214689998669,2.0,1.0,part_1,,,,,,,,,,,,,yellow,diamond
183.0,5.0,1.0,1.0,3.0,3.0,343.1119900001249,2.0,1.0,part_1,,,,,,,,,,,,,yellow,diamond
1304.0,4.0,4.0,0.0,2.0,2.0,500.050753999858,2.0,1.0,part_1,,,,,,,,,,,,,gray,cross
336.0,6.0,2.0,1.0,1.0,1.0,473.0053339999358,2.0,2.0,part_1,,,,,,,,,,,,,magenta,hexagon
1296.0,4.0,4.0,0.0,1.0,1.0,343.3025760000419,2.0,1.0,part_1,,,,,,,,,,,,,gray,cross
177.0,1.0,1.0,0.0,3.0,3.0,390.3107190003538,2.0,1.0,part_1,,,,,,,,,,,,,green,flipped triangle
184.0,5.0,1.0,1.0,1.0,1.0,462.7152690000002,2.0,1.0,part_1,,,,,,,,,,,,,yellow,diamond
670.0,3.0,3.0,0.0,4.0,4.0,519.4071660002919,2.0,1.0,part_1,,,,,,,,,,,,,orange,I
335.0,2.0,2.0,0.0,3.0,3.0,389.8542749998341,2.0,1.0,part_1,,,,,,,,,,,,,blue,triangle
649.0,7.0,3.0,1.0,2.0,2.0,538.0458429999635,2.0,1.0,part_1,,,,,,,,,,,,,cyan,square
342.0,6.0,2.0,1.0,2.0,2.0,434.8678699998345,2.0,1.0,part_1,,,,,,,,,,,,,magenta,hexagon
174.0,1.0,1.0,0.0,1.0,1.0,454.0066380000098,2.0,1.0,part_1,,,,,,,,,,,,,green,flipped triangle
0.0,3.0,0.0,0.0,2.0,2.0,425.6384759996763,2.0,1.0,part_1,,,,,,,,,,,,,orange,I
0.0,8.0,0.0,1.0,3.0,3.0,491.3364129997717,2.0,1.0,part_1,,,,,,,,,,,,,white,circle
179.0,5.0,1.0,1.0,1.0,1.0,454.1630730000179,2.0,1.0,part_1,,,,,,,,,,,,,yellow,diamond
675.0,3.0,3.0,0.0,4.0,4.0,444.9296930001765,2.0,1.0,part_1,,,,,,,,,,,,,orange,I
183.0,5.0,1.0,1.0,2.0,2.0,316.0830639999403,2.0,1.0,part_1,,,,,,,,,,,,,yellow,diamond
1307.0,8.0,4.0,1.0,1.0,1.0,379.3996209997203,2.0,1.0,part_1,,,,,,,,,,,,,white,circle
675.0,3.0,3.0,0.0,3.0,3.0,454.4037390000994,2.0,1.0,part_1,,,,,,,,,,,,,orange,I
0.0,4.0,0.0,0.0,2.0,2.0,504.72960299975966,2.0,1.0,part_1,,,,,,,,,,,,,gray,cross
161.0,5.0,1.0,1.0,2.0,2.0,361.3386590000118,2.0,1.0,part_1,,,,,,,,,,,,,yellow,diamond
645.0,3.0,3.0,0.0,4.0,4.0,409.06705899988077,2.0,1.0,part_1,,,,,,,,,,,,,orange,I
147.0,5.0,1.0,1.0,2.0,2.0,372.7730579998933,2.0,1.0,part_1,,,,,,,,,,,,,yellow,diamond
664.0,7.0,3.0,1.0,2.0,2.0,444.6779230001993,2.0,1.0,part_1,,,,,,,,,,,,,cyan,square
169.0,1.0,1.0,0.0,3.0,3.0,407.6288669998575,3.0,1.0,part_1,,,,,,,,,,,,,green,flipped triangle
1319.0,8.0,4.0,1.0,4.0,4.0,382.452048000232,3.0,1.0,part_1,,,,,,,,,,,,,white,circle
1278.0,8.0,4.0,1.0,2.0,2.0,342.8583419999995,3.0,1.0,part_1,,,,,,,,,,,,,white,circle
0.0,1.0,0.0,0.0,1.0,1.0,370.17036799989,3.0,1.0,part_1,,,,,,,,,,,,,green,flipped triangle
311.0,2.0,2.0,0.0,2.0,2.0,380.0674250001066,3.0,1.0,part_1,,,,,,,,,,,,,blue,triangle
665.0,3.0,3.0,0.0,2.0,2.0,361.3921650003249,3.0,1.0,part_1,,,,,,,,,,,,,orange,I
323.0,6.0,2.0,1.0,2.0,2.0,333.4242980004092,3.0,1.0,part_1,,,,,,,,,,,,,magenta,hexagon
167.0,5.0,1.0,1.0,1.0,1.0,370.3147600003831,3.0,1.0,part_1,,,,,,,,,,,,,yellow,diamond
169.0,1.0,1.0,0.0,4.0,4.0,425.2402500001153,3.0,1.0,part_1,,,,,,,,,,,,,green,flipped triangle
320.0,2.0,2.0,0.0,4.0,4.0,434.0654090001408,3.0,1.0,part_1,,,,,,,,,,,,,blue,triangle
0.0,3.0,0.0,0.0,2.0,2.0,351.7328949997136,3.0,1.0,part_1,,,,,,,,,,,,,orange,I
138.0,1.0,1.0,0.0,4.0,4.0,388.8229889998911,3.0,1.0,part_1,,,,,,,,,,,,,green,flipped triangle
161.0,1.0,1.0,0.0,3.0,3.0,445.0490429999263,3.0,1.0,part_1,,,,,,,,,,,,,green,flipped triangle
1315.0,8.0,4.0,1.0,4.0,4.0,452.9886870000155,3.0,1.0,part_1,,,,,,,,,,,,,white,circle
668.0,7.0,3.0,1.0,1.0,1.0,574.382420999882,3.0,1.0,part_1,,,,,,,,,,,,,cyan,square
1321.0,4.0,4.0,0.0,4.0,4.0,435.8635200001117,3.0,1.0,part_1,,,,,,,,,,,,,gray,cross
1278.0,4.0,4.0,0.0,3.0,3.0,370.3998450000654,3.0,1.0,part_1,,,,,,,,,,,,,gray,cross
636.0,7.0,3.0,1.0,2.0,2.0,388.7521210003797,3.0,1.0,part_1,,,,,,,,,,,,,cyan,square
332.0,6.0,2.0,1.0,2.0,2.0,389.7428300001593,3.0,1.0,part_1,,,,,,,,,,,,,magenta,hexagon
1321.0,4.0,4.0,0.0,3.0,3.0,490.8134309998786,3.0,1.0,part_1,,,,,,,,,,,,,gray,cross
302.0,2.0,2.0,0.0,4.0,4.0,416.5005840000049,3.0,1.0,part_1,,,,,,,,,,,,,blue,triangle
1308.0,8.0,4.0,1.0,1.0,1.0,352.7189409996936,3.0,1.0,part_1,,,,,,,,,,,,,white,circle
653.0,7.0,3.0,1.0,3.0,3.0,352.9936840000118,3.0,1.0,part_1,,,,,,,,,,,,,cyan,square
1317.0,4.0,4.0,0.0,4.0,4.0,389.1314109996528,3.0,1.0,part_1,,,,,,,,,,,,,gray,cross
0.0,3.0,0.0,0.0,4.0,4.0,408.6330009999983,3.0,1.0,part_1,,,,,,,,,,,,,orange,I
670.0,7.0,3.0,1.0,1.0,1.0,389.5962679998774,3.0,1.0,part_1,,,,,,,,,,,,,cyan,square
0.0,6.0,0.0,1.0,2.0,2.0,480.6668729997909,3.0,1.0,part_1,,,,,,,,,,,,,magenta,hexagon
638.0,3.0,3.0,0.0,4.0,4.0,370.7509320001918,3.0,1.0,part_1,,,,,,,,,,,,,orange,I
1317.0,4.0,4.0,0.0,2.0,2.0,369.6698319999996,3.0,1.0,part_1,,,,,,,,,,,,,gray,cross
634.0,7.0,3.0,1.0,2.0,2.0,398.0429640000693,3.0,1.0,part_1,,,,,,,,,,,,,cyan,square
142.0,5.0,1.0,1.0,4.0,4.0,304.5441950002896,3.0,1.0,part_1,,,,,,,,,,,,,yellow,diamond
1314.0,8.0,4.0,1.0,1.0,1.0,341.9051129999388,3.0,1.0,part_1,,,,,,,,,,,,,white,circle
312.0,6.0,2.0,1.0,3.0,3.0,462.5334809998094,3.0,1.0,part_1,,,,,,,,,,,,,magenta,hexagon
341.0,2.0,2.0,0.0,2.0,2.0,314.4091549997938,3.0,1.0,part_1,,,,,,,,,,,,,blue,triangle
154.0,1.0,1.0,0.0,4.0,4.0,371.698515999924,3.0,1.0,part_1,,,,,,,,,,,,,green,flipped triangle
0.0,2.0,0.0,0.0,1.0,1.0,343.156904999887,3.0,1.0,part_1,,,,,,,,,,,,,blue,triangle
0.0,5.0,0.0,1.0,2.0,2.0,387.8343579999637,3.0,1.0,part_1,,,,,,,,,,,,,yellow,diamond
175.0,1.0,1.0,0.0,4.0,4.0,360.6825140000183,3.0,1.0,part_1,,,,,,,,,,,,,green,flipped triangle
318.0,2.0,2.0,0.0,2.0,2.0,315.2181430000382,3.0,1.0,part_1,,,,,,,,,,,,,blue,triangle
0.0,7.0,0.0,1.0,4.0,4.0,600.5724579999878,3.0,1.0,part_1,,,,,,,,,,,,,cyan,square
1278.0,4.0,4.0,0.0,2.0,2.0,370.420741000089,3.0,1.0,part_1,,,,,,,,,,,,,gray,cross
1294.0,8.0,4.0,1.0,2.0,2.0,379.6785159997853,3.0,1.0,part_1,,,,,,,,,,,,,white,circle
177.0,5.0,1.0,1.0,3.0,3.0,406.9464859999243,3.0,1.0,part_1,,,,,,,,,,,,,yellow,diamond
1282.0,4.0,4.0,0.0,3.0,3.0,416.8436620002467,3.0,1.0,part_1,,,,,,,,,,,,,gray,cross
320.0,6.0,2.0,1.0,2.0,2.0,360.2020739999716,3.0,1.0,part_1,,,,,,,,,,,,,magenta,hexagon
1308.0,4.0,4.0,0.0,3.0,3.0,325.229668999782,3.0,1.0,part_1,,,,,,,,,,,,,gray,cross
0.0,7.0,0.0,1.0,1.0,1.0,379.8974559999806,3.0,1.0,part_1,,,,,,,,,,,,,cyan,square
140.0,5.0,1.0,1.0,4.0,4.0,361.0562099997878,3.0,1.0,part_1,,,,,,,,,,,,,yellow,diamond
154.0,5.0,1.0,1.0,2.0,2.0,436.3221390003673,3.0,1.0,part_1,,,,,,,,,,,,,yellow,diamond
0.0,5.0,0.0,1.0,4.0,4.0,370.6896579997192,3.0,1.0,part_1,,,,,,,,,,,,,yellow,diamond
0.0,2.0,0.0,0.0,1.0,1.0,370.005441000103,3.0,1.0,part_1,,,,,,,,,,,,,blue,triangle
328.0,2.0,2.0,0.0,4.0,4.0,434.9040619999869,3.0,1.0,part_1,,,,,,,,,,,,,blue,triangle
157.0,1.0,1.0,0.0,2.0,2.0,379.8753789997136,3.0,1.0,part_1,,,,,,,,,,,,,green,flipped triangle
0.0,4.0,0.0,0.0,4.0,4.0,332.2959629999786,3.0,1.0,part_1,,,,,,,,,,,,,gray,cross
320.0,6.0,2.0,1.0,1.0,1.0,657.359173000259,3.0,1.0,part_1,,,,,,,,,,,,,magenta,hexagon
0.0,3.0,0.0,0.0,2.0,2.0,434.3014109999785,3.0,1.0,part_1,,,,,,,,,,,,,orange,I
672.0,3.0,3.0,0.0,2.0,2.0,379.3116520000694,3.0,1.0,part_1,,,,,,,,,,,,,orange,I
1314.0,4.0,4.0,0.0,2.0,2.0,721.4791400001559,3.0,1.0,part_1,,,,,,,,,,,,,gray,cross
1304.0,8.0,4.0,1.0,2.0,2.0,536.3726659998065,3.0,1.0,part_1,,,,,,,,,,,,,white,circle
632.0,3.0,3.0,0.0,3.0,3.0,398.3582199998636,3.0,1.0,part_1,,,,,,,,,,,,,orange,I
303.0,2.0,2.0,0.0,1.0,1.0,704.0587359997517,3.0,1.0,part_1,,,,,,,,,,,,,blue,triangle
1278.0,8.0,4.0,1.0,1.0,1.0,564.894925999397,3.0,1.0,part_1,,,,,,,,,,,,,white,circle
0.0,3.0,0.0,0.0,3.0,3.0,387.6502789998994,3.0,1.0,part_1,,,,,,,,,,,,,orange,I
161.0,5.0,1.0,1.0,3.0,3.0,408.5189309998895,3.0,1.0,part_1,,,,,,,,,,,,,yellow,diamond
1278.0,8.0,4.0,1.0,3.0,3.0,361.0149480000473,3.0,1.0,part_1,,,,,,,,,,,,,white,circle
1277.0,8.0,4.0,1.0,3.0,3.0,342.4754300003769,3.0,1.0,part_1,,,,,,,,,,,,,white,circle
346.0,6.0,2.0,1.0,1.0,1.0,388.333719000002,3.0,1.0,part_1,,,,,,,,,,,,,magenta,hexagon
1317.0,8.0,4.0,1.0,1.0,1.0,424.5512850002342,3.0,1.0,part_1,,,,,,,,,,,,,white,circle
1293.0,8.0,4.0,1.0,3.0,3.0,369.5750679999037,3.0,1.0,part_1,,,,,,,,,,,,,white,circle
167.0,1.0,1.0,0.0,2.0,2.0,370.125294999525,3.0,1.0,part_1,,,,,,,,,,,,,green,flipped triangle
327.0,6.0,2.0,1.0,2.0,2.0,388.5094830002344,3.0,1.0,part_1,,,,,,,,,,,,,magenta,hexagon
662.0,3.0,3.0,0.0,1.0,1.0,406.896484999379,3.0,1.0,part_1,,,,,,,,,,,,,orange,I
161.0,5.0,1.0,1.0,1.0,1.0,341.912876000606,3.0,1.0,part_1,,,,,,,,,,,,,yellow,diamond
306.0,6.0,2.0,1.0,1.0,1.0,767.9439929997898,3.0,1.0,part_1,,,,,,,,,,,,,magenta,hexagon
643.0,7.0,3.0,1.0,1.0,1.0,435.1962020000428,3.0,1.0,part_1,,,,,,,,,,,,,cyan,square
1307.0,8.0,4.0,1.0,1.0,1.0,342.7875629995469,3.0,1.0,part_1,,,,,,,,,,,,,white,circle
1296.0,8.0,4.0,1.0,3.0,3.0,388.8654200000019,3.0,1.0,part_1,,,,,,,,,,,,,white,circle
0.0,8.0,0.0,1.0,2.0,2.0,407.6725869999791,3.0,1.0,part_1,,,,,,,,,,,,,white,circle
0.0,4.0,0.0,0.0,4.0,4.0,491.3631519993942,3.0,1.0,part_1,,,,,,,,,,,,,gray,cross
1286.0,8.0,4.0,1.0,4.0,4.0,499.7067920003246,3.0,1.0,part_1,,,,,,,,,,,,,white,circle
643.0,7.0,3.0,1.0,3.0,3.0,379.9824139996417,3.0,1.0,part_1,,,,,,,,,,,,,cyan,square
0.0,4.0,0.0,0.0,3.0,3.0,343.3710549998068,3.0,1.0,part_1,,,,,,,,,,,,,gray,cross
1277.0,4.0,4.0,0.0,4.0,4.0,378.7387130005299,3.0,1.0,part_1,,,,,,,,,,,,,gray,cross
0.0,8.0,0.0,1.0,1.0,1.0,415.4809229994498,3.0,1.0,part_1,,,,,,,,,,,,,white,circle
150.0,1.0,1.0,0.0,1.0,1.0,380.043709000347,3.0,1.0,part_1,,,,,,,,,,,,,green,flipped triangle
177.0,1.0,1.0,0.0,3.0,3.0,377.6634980004019,3.0,1.0,part_1,,,,,,,,,,,,,green,flipped triangle
0.0,1.0,0.0,0.0,4.0,4.0,666.7217039994284,3.0,1.0,part_1,,,,,,,,,,,,,green,flipped triangle
179.0,1.0,1.0,0.0,3.0,3.0,352.1852659996511,3.0,1.0,part_1,,,,,,,,,,,,,green,flipped triangle
185.0,1.0,1.0,0.0,2.0,2.0,351.8861020002077,3.0,1.0,part_1,,,,,,,,,,,,,green,flipped triangle
0.0,4.0,0.0,0.0,1.0,1.0,333.0942089996824,3.0,1.0,part_1,,,,,,,,,,,,,gray,cross
0.0,5.0,0.0,1.0,3.0,3.0,333.4442659997876,3.0,1.0,part_1,,,,,,,,,,,,,yellow,diamond
1309.0,4.0,4.0,0.0,4.0,4.0,360.389519999444,3.0,1.0,part_1,,,,,,,,,,,,,gray,cross
147.0,1.0,1.0,0.0,2.0,2.0,341.6963479994592,3.0,1.0,part_1,,,,,,,,,,,,,green,flipped triangle
0.0,8.0,0.0,1.0,2.0,2.0,342.0475529992473,3.0,1.0,part_1,,,,,,,,,,,,,white,circle
1314.0,4.0,4.0,0.0,3.0,3.0,414.9539239997466,3.0,1.0,part_1,,,,,,,,,,,,,gray,cross
0.0,7.0,0.0,1.0,1.0,1.0,481.6436499995689,3.0,1.0,part_1,,,,,,,,,,,,,cyan,square
0.0,8.0,0.0,1.0,2.0,2.0,324.084689999836,3.0,1.0,part_1,,,,,,,,,,,,,white,circle
174.0,1.0,1.0,0.0,3.0,3.0,314.1954290003923,3.0,1.0,part_1,,,,,,,,,,,,,green,flipped triangle
185.0,1.0,1.0,0.0,2.0,2.0,355.6612249994941,3.0,1.0,part_1,,,,,,,,,,,,,green,flipped triangle
0.0,4.0,0.0,0.0,2.0,2.0,451.9247629996243,3.0,1.0,part_1,,,,,,,,,,,,,gray,cross
1313.0,4.0,4.0,0.0,1.0,1.0,471.4096309999149,4.0,1.0,part_1,,,,,,,,,,,,,gray,cross
643.0,3.0,3.0,0.0,1.0,1.0,334.5518200003425,4.0,1.0,part_1,,,,,,,,,,,,,orange,I
1293.0,8.0,4.0,1.0,3.0,3.0,491.0707600001842,4.0,1.0,part_1,,,,,,,,,,,,,white,circle
153.0,1.0,1.0,0.0,3.0,3.0,334.5480399993903,4.0,1.0,part_1,,,,,,,,,,,,,green,flipped triangle
169.0,5.0,1.0,1.0,2.0,2.0,344.1001810006128,4.0,1.0,part_1,,,,,,,,,,,,,yellow,diamond
184.0,1.0,1.0,0.0,4.0,4.0,397.9301700001088,4.0,1.0,part_1,,,,,,,,,,,,,green,flipped triangle
644.0,3.0,3.0,0.0,4.0,4.0,417.6445889997922,4.0,1.0,part_1,,,,,,,,,,,,,orange,I
626.0,3.0,3.0,0.0,4.0,4.0,325.5158289994142,4.0,1.0,part_1,,,,,,,,,,,,,orange,I
174.0,5.0,1.0,1.0,3.0,3.0,333.920744000352,4.0,1.0,part_1,,,,,,,,,,,,,yellow,diamond
160.0,5.0,1.0,1.0,4.0,4.0,342.3398860004454,4.0,1.0,part_1,,,,,,,,,,,,,yellow,diamond
645.0,7.0,3.0,1.0,4.0,4.0,391.126376000102,4.0,1.0,part_1,,,,,,,,,,,,,cyan,square
0.0,5.0,0.0,1.0,1.0,1.0,334.0048620002562,4.0,1.0,part_1,,,,,,,,,,,,,yellow,diamond
0.0,7.0,0.0,1.0,4.0,4.0,371.6213260004224,4.0,1.0,part_1,,,,,,,,,,,,,cyan,square
632.0,7.0,3.0,1.0,4.0,4.0,390.6414990005942,4.0,1.0,part_1,,,,,,,,,,,,,cyan,square
140.0,5.0,1.0,1.0,2.0,2.0,362.3520430001008,4.0,1.0,part_1,,,,,,,,,,,,,yellow,diamond
157.0,5.0,1.0,1.0,2.0,2.0,389.6748299994215,4.0,1.0,part_1,,,,,,,,,,,,,yellow,diamond
141.0,5.0,1.0,1.0,3.0,3.0,351.9440640002358,4.0,1.0,part_1,,,,,,,,,,,,,yellow,diamond
649.0,3.0,3.0,0.0,3.0,3.0,407.0780609999929,4.0,1.0,part_1,,,,,,,,,,,,,orange,I
1278.0,4.0,4.0,0.0,1.0,1.0,361.896205999983,4.0,1.0,part_1,,,,,,,,,,,,,gray,cross
0.0,8.0,0.0,1.0,4.0,4.0,334.1495530003158,4.0,1.0,part_1,,,,,,,,,,,,,white,circle
1281.0,8.0,4.0,1.0,4.0,4.0,379.3030460001318,4.0,1.0,part_1,,,,,,,,,,,,,white,circle
185.0,5.0,1.0,1.0,1.0,1.0,381.6662230001384,4.0,1.0,part_1,,,,,,,,,,,,,yellow,diamond
183.0,1.0,1.0,0.0,4.0,4.0,445.3759320003883,4.0,1.0,part_1,,,,,,,,,,,,,green,flipped triangle
628.0,3.0,3.0,0.0,1.0,1.0,528.935614999682,4.0,1.0,part_1,,,,,,,,,,,,,orange,I
325.0,6.0,2.0,1.0,4.0,4.0,362.2004359995117,4.0,1.0,part_1,,,,,,,,,,,,,magenta,hexagon
1316.0,8.0,4.0,1.0,1.0,1.0,390.3083369996238,4.0,1.0,part_1,,,,,,,,,,,,,white,circle
0.0,7.0,0.0,1.0,1.0,1.0,434.9422309996953,4.0,1.0,part_1,,,,,,,,,,,,,cyan,square
328.0,6.0,2.0,1.0,3.0,3.0,437.0383570003469,4.0,1.0,part_1,,,,,,,,,,,,,magenta,hexagon
1293.0,4.0,4.0,0.0,3.0,3.0,371.5789469997617,4.0,1.0,part_1,,,,,,,,,,,,,gray,cross
177.0,1.0,1.0,0.0,1.0,1.0,390.6258580000212,4.0,1.0,part_1,,,,,,,,,,,,,green,flipped triangle
1287.0,4.0,4.0,0.0,3.0,3.0,417.8526420000708,4.0,1.0,part_1,,,,,,,,,,,,,gray,cross
334.0,2.0,2.0,0.0,3.0,3.0,352.8037579999363,4.0,1.0,part_1,,,,,,,,,,,,,blue,triangle
0.0,8.0,0.0,1.0,1.0,1.0,363.4528840002531,4.0,1.0,part_1,,,,,,,,,,,,,white,circle
0.0,3.0,0.0,0.0,4.0,4.0,400.0618379996012,4.0,1.0,part_1,,,,,,,,,,,,,orange,I
0.0,3.0,0.0,0.0,2.0,2.0,353.5734309998588,4.0,1.0,part_1,,,,,,,,,,,,,orange,I
152.0,5.0,1.0,1.0,2.0,2.0,343.691476999993,4.0,1.0,part_1,,,,,,,,,,,,,yellow,diamond
157.0,5.0,1.0,1.0,3.0,3.0,399.093009000353,4.0,1.0,part_1,,,,,,,,,,,,,yellow,diamond
331.0,2.0,2.0,0.0,4.0,4.0,417.1350840006198,4.0,1.0,part_1,,,,,,,,,,,,,blue,triangle
0.0,6.0,0.0,1.0,4.0,4.0,452.6377599995612,4.0,1.0,part_1,,,,,,,,,,,,,magenta,hexagon
327.0,2.0,2.0,0.0,2.0,2.0,333.1245030003629,4.0,1.0,part_1,,,,,,,,,,,,,blue,triangle
154.0,5.0,1.0,1.0,3.0,3.0,343.3421499994438,4.0,1.0,part_1,,,,,,,,,,,,,yellow,diamond
332.0,2.0,2.0,0.0,4.0,4.0,399.4081520004329,4.0,1.0,part_1,,,,,,,,,,,,,blue,triangle
672.0,7.0,3.0,1.0,1.0,1.0,371.2535189997652,4.0,1.0,part_1,,,,,,,,,,,,,cyan,square
331.0,6.0,2.0,1.0,3.0,3.0,307.0425070000055,4.0,1.0,part_1,,,,,,,,,,,,,magenta,hexagon
0.0,5.0,0.0,1.0,3.0,3.0,333.9215129999502,4.0,1.0,part_1,,,,,,,,,,,,,yellow,diamond
1289.0,4.0,4.0,0.0,3.0,3.0,398.3127520004927,4.0,1.0,part_1,,,,,,,,,,,,,gray,cross
658.0,7.0,3.0,1.0,1.0,1.0,351.934121999875,4.0,1.0,part_1,,,,,,,,,,,,,cyan,square
309.0,2.0,2.0,0.0,3.0,3.0,307.0131220001713,4.0,1.0,part_1,,,,,,,,,,,,,blue,triangle
668.0,7.0,3.0,1.0,1.0,1.0,343.4438390004288,4.0,1.0,part_1,,,,,,,,,,,,,cyan,square
643.0,7.0,3.0,1.0,2.0,2.0,565.3472220001277,4.0,1.0,part_1,,,,,,,,,,,,,cyan,square
161.0,1.0,1.0,0.0,1.0,1.0,471.7711049997888,4.0,1.0,part_1,,,,,,,,,,,,,green,flipped triangle
0.0,5.0,0.0,1.0,3.0,3.0,334.1878909996012,4.0,1.0,part_1,,,,,,,,,,,,,yellow,diamond
327.0,2.0,2.0,0.0,1.0,1.0,583.949443000165,4.0,1.0,part_1,,,,,,,,,,,,,blue,triangle
316.0,6.0,2.0,1.0,4.0,4.0,333.6769500001537,4.0,1.0,part_1,,,,,,,,,,,,,magenta,hexagon
180.0,1.0,1.0,0.0,2.0,2.0,288.4964240001864,4.0,1.0,part_1,,,,,,,,,,,,,green,flipped triangle
1319.0,4.0,4.0,0.0,2.0,2.0,363.459057,4.0,1.0,part_1,,,,,,,,,,,,,gray,cross
671.0,3.0,3.0,0.0,2.0,2.0,324.7609099998954,4.0,1.0,part_1,,,,,,,,,,,,,orange,I
634.0,3.0,3.0,0.0,1.0,1.0,435.9111699995992,4.0,1.0,part_1,,,,,,,,,,,,,orange,I
308.0,2.0,2.0,0.0,3.0,3.0,388.9431309999054,4.0,2.0,part_1,,,,,,,,,,,,,blue,triangle
157.0,1.0,1.0,0.0,4.0,4.0,482.2529399998529,4.0,1.0,part_1,,,,,,,,,,,,,green,flipped triangle
1315.0,4.0,4.0,0.0,2.0,2.0,483.2507430000987,4.0,1.0,part_1,,,,,,,,,,,,,gray,cross
642.0,7.0,3.0,1.0,3.0,3.0,418.4566579997408,4.0,1.0,part_1,,,,,,,,,,,,,cyan,square
1307.0,4.0,4.0,0.0,1.0,1.0,509.26899000023695,4.0,1.0,part_1,,,,,,,,,,,,,gray,cross
345.0,2.0,2.0,0.0,3.0,3.0,315.9549399997559,4.0,1.0,part_1,,,,,,,,,,,,,blue,triangle
152.0,1.0,1.0,0.0,2.0,2.0,418.2859860002281,4.0,1.0,part_1,,,,,,,,,,,,,green,flipped triangle
316.0,2.0,2.0,0.0,3.0,3.0,435.6309550003061,4.0,1.0,part_1,,,,,,,,,,,,,blue,triangle
311.0,2.0,2.0,0.0,4.0,4.0,462.5734309993277,4.0,1.0,part_1,,,,,,,,,,,,,blue,triangle
0.0,6.0,0.0,1.0,2.0,2.0,360.5030480002824,4.0,1.0,part_1,,,,,,,,,,,,,magenta,hexagon
1309.0,8.0,4.0,1.0,3.0,3.0,342.1588190003604,4.0,1.0,part_1,,,,,,,,,,,,,white,circle
0.0,3.0,0.0,0.0,1.0,1.0,379.7399770000993,4.0,1.0,part_1,,,,,,,,,,,,,orange,I
1294.0,8.0,4.0,1.0,3.0,3.0,352.4389949998294,4.0,1.0,part_1,,,,,,,,,,,,,white,circle
308.0,6.0,2.0,1.0,3.0,3.0,473.2523470001979,4.0,1.0,part_1,,,,,,,,,,,,,magenta,hexagon
0.0,8.0,0.0,1.0,4.0,4.0,462.0617119999224,4.0,1.0,part_1,,,,,,,,,,,,,white,circle
146.0,1.0,1.0,0.0,2.0,2.0,378.6435990004975,4.0,1.0,part_1,,,,,,,,,,,,,green,flipped triangle
169.0,5.0,1.0,1.0,4.0,4.0,380.7631210002,4.0,1.0,part_1,,,,,,,,,,,,,yellow,diamond
0.0,4.0,0.0,0.0,2.0,2.0,360.4456029997891,4.0,1.0,part_1,,,,,,,,,,,,,gray,cross
0.0,3.0,0.0,0.0,4.0,4.0,444.5402310002464,4.0,1.0,part_1,,,,,,,,,,,,,orange,I
320.0,6.0,2.0,1.0,1.0,1.0,399.311144999956,4.0,1.0,part_1,,,,,,,,,,,,,magenta,hexagon
0.0,4.0,0.0,0.0,4.0,4.0,445.2522279998447,4.0,1.0,part_1,,,,,,,,,,,,,gray,cross
302.0,6.0,2.0,1.0,4.0,4.0,361.4753620004194,4.0,1.0,part_1,,,,,,,,,,,,,magenta,hexagon
640.0,7.0,3.0,1.0,4.0,4.0,371.7951680000624,4.0,1.0,part_1,,,,,,,,,,,,,cyan,square
309.0,6.0,2.0,1.0,3.0,3.0,332.8573880007752,4.0,1.0,part_1,,,,,,,,,,,,,magenta,hexagon
348.0,6.0,2.0,1.0,3.0,3.0,352.1896920001381,4.0,1.0,part_1,,,,,,,,,,,,,magenta,hexagon
145.0,1.0,1.0,0.0,1.0,1.0,426.1874100002387,4.0,1.0,part_1,,,,,,,,,,,,,green,flipped triangle
0.0,2.0,0.0,0.0,4.0,4.0,380.2615490003518,4.0,1.0,part_1,,,,,,,,,,,,,blue,triangle
343.0,6.0,2.0,1.0,4.0,4.0,342.9966909998256,4.0,1.0,part_1,,,,,,,,,,,,,magenta,hexagon
1282.0,8.0,4.0,1.0,3.0,3.0,334.7760200003904,4.0,1.0,part_1,,,,,,,,,,,,,white,circle
653.0,3.0,3.0,0.0,1.0,1.0,465.1371039999503,4.0,1.0,part_1,,,,,,,,,,,,,orange,I
643.0,3.0,3.0,0.0,3.0,3.0,390.38918299957,4.0,1.0,part_1,,,,,,,,,,,,,orange,I
656.0,7.0,3.0,1.0,3.0,3.0,389.7595360003834,4.0,1.0,part_1,,,,,,,,,,,,,cyan,square
341.0,6.0,2.0,1.0,3.0,3.0,356.1165229994003,4.0,1.0,part_1,,,,,,,,,,,,,magenta,hexagon
316.0,6.0,2.0,1.0,1.0,1.0,369.7722890001387,4.0,1.0,part_1,,,,,,,,,,,,,magenta,hexagon
1314.0,4.0,4.0,0.0,2.0,2.0,453.1003250003778,4.0,1.0,part_1,,,,,,,,,,,,,gray,cross
304.0,2.0,2.0,0.0,3.0,3.0,343.4202660000665,4.0,1.0,part_1,,,,,,,,,,,,,blue,triangle
0.0,7.0,0.0,1.0,3.0,3.0,355.5941459999303,4.0,1.0,part_1,,,,,,,,,,,,,cyan,square
326.0,6.0,2.0,1.0,2.0,2.0,361.8648850006138,4.0,1.0,part_1,,,,,,,,,,,,,magenta,hexagon
665.0,7.0,3.0,1.0,1.0,1.0,379.2878859994744,4.0,1.0,part_1,,,,,,,,,,,,,cyan,square
178.0,1.0,1.0,0.0,3.0,3.0,319.8248899998361,4.0,1.0,part_1,,,,,,,,,,,,,green,flipped triangle
1305.0,8.0,4.0,1.0,2.0,2.0,511.0535350004284,4.0,1.0,part_1,,,,,,,,,,,,,white,circle
311.0,6.0,2.0,1.0,4.0,4.0,406.2651000003825,4.0,1.0,part_1,,,,,,,,,,,,,magenta,hexagon
0.0,8.0,4.0,1.0,5.0,0.0,0.0,1.0,0.0,part_2,stop,250.0,250.0,4.0,,,,,,,,,white,circle
0.0,4.0,4.0,0.0,6.0,6.0,757.1323459997075,1.0,0.0,part_2,go,300.0,250.0,1.0,,,,,,,,,gray,cross
0.0,8.0,4.0,1.0,5.0,0.0,0.0,1.0,0.0,part_2,stop,300.0,250.0,4.0,,,,,,,,,white,circle
0.0,3.0,3.0,0.0,6.0,6.0,653.000814000734,1.0,0.0,part_2,go,350.0,250.0,1.0,,,,,,,,,orange,I
0.0,8.0,4.0,1.0,5.0,0.0,0.0,1.0,0.0,part_2,stop,350.0,250.0,4.0,,,,,,,,,white,circle
0.0,8.0,4.0,1.0,5.0,0.0,0.0,1.0,0.0,part_2,stop,400.0,250.0,4.0,,,,,,,,,white,circle
0.0,4.0,4.0,0.0,6.0,6.0,664.1296320003676,1.0,0.0,part_2,go,450.0,250.0,1.0,,,,,,,,,gray,cross
0.0,8.0,4.0,1.0,6.0,0.0,0.0,1.0,0.0,part_2,stop,450.0,250.0,4.0,,,,,,,,,white,circle
0.0,8.0,4.0,1.0,6.0,0.0,0.0,1.0,0.0,part_2,stop,450.0,300.0,4.0,,,,,,,,,white,circle
0.0,1.0,1.0,0.0,6.0,6.0,876.6988659999697,1.0,0.0,part_2,go,450.0,350.0,1.0,,,,,,,,,green,flipped triangle
0.0,4.0,4.0,0.0,6.0,6.0,813.033551999979,1.0,0.0,part_2,go,450.0,350.0,1.0,,,,,,,,,gray,cross
0.0,6.0,2.0,1.0,6.0,0.0,0.0,1.0,0.0,part_2,stop,450.0,350.0,4.0,,,,,,,,,magenta,hexagon
0.0,1.0,1.0,0.0,6.0,6.0,811.7538500000592,1.0,0.0,part_2,go,450.0,400.0,1.0,,,,,,,,,green,flipped triangle
0.0,3.0,3.0,0.0,5.0,5.0,803.662653000174,1.0,0.0,part_2,go,450.0,400.0,1.0,,,,,,,,,orange,I
0.0,5.0,1.0,1.0,6.0,6.0,671.9271789997947,1.0,0.0,part_2,go,450.0,400.0,1.0,,,,,,,,,yellow,diamond
0.0,4.0,4.0,0.0,5.0,5.0,735.7531460002065,1.0,0.0,part_2,go,450.0,400.0,1.0,,,,,,,,,gray,cross
0.0,8.0,4.0,1.0,5.0,0.0,0.0,1.0,0.0,part_2,stop,450.0,400.0,4.0,,,,,,,,,white,circle
0.0,5.0,1.0,1.0,5.0,0.0,0.0,1.0,0.0,part_2,stop,500.0,400.0,4.0,,,,,,,,,yellow,diamond
0.0,1.0,1.0,0.0,5.0,5.0,996.2765720001698,1.0,0.0,part_2,go,550.0,400.0,1.0,,,,,,,,,green,flipped triangle
0.0,4.0,4.0,0.0,6.0,6.0,728.3534889993462,1.0,0.0,part_2,go,550.0,400.0,1.0,,,,,,,,,gray,cross
0.0,7.0,3.0,1.0,6.0,0.0,0.0,1.0,0.0,part_2,stop,550.0,400.0,4.0,,,,,,,,,cyan,square
0.0,5.0,1.0,1.0,5.0,5.0,401.5066719994138,1.0,0.0,part_2,stop,550.0,450.0,3.0,,,,,,,,,yellow,diamond
0.0,2.0,2.0,0.0,5.0,5.0,998.8167820001764,1.0,0.0,part_2,go,500.0,450.0,1.0,,,,,,,,,blue,triangle
0.0,2.0,2.0,0.0,5.0,5.0,938.273852999373,1.0,0.0,part_2,go,500.0,450.0,1.0,,,,,,,,,blue,triangle
0.0,8.0,4.0,1.0,5.0,0.0,0.0,1.0,0.0,part_2,stop,500.0,450.0,4.0,,,,,,,,,white,circle
0.0,1.0,1.0,0.0,6.0,6.0,799.8108480005612,1.0,0.0,part_2,go,550.0,450.0,1.0,,,,,,,,,green,flipped triangle
0.0,4.0,4.0,0.0,6.0,6.0,772.5052309997409,1.0,0.0,part_2,go,550.0,450.0,1.0,,,,,,,,,gray,cross
0.0,6.0,2.0,1.0,5.0,5.0,782.548682000197,1.0,0.0,part_2,go,550.0,450.0,1.0,,,,,,,,,magenta,hexagon
0.0,8.0,4.0,1.0,6.0,0.0,0.0,1.0,0.0,part_2,stop,550.0,450.0,4.0,,,,,,,,,white,circle
0.0,6.0,2.0,1.0,5.0,0.0,0.0,1.0,0.0,part_2,stop,550.0,500.0,4.0,,,,,,,,,magenta,hexagon
0.0,2.0,2.0,0.0,5.0,5.0,1112.191428999722,1.0,0.0,part_2,go,600.0,500.0,1.0,,,,,,,,,blue,triangle
0.0,8.0,4.0,1.0,5.0,0.0,0.0,1.0,0.0,part_2,stop,600.0,500.0,4.0,,,,,,,,,white,circle
0.0,4.0,4.0,0.0,5.0,5.0,950.1831110001148,1.0,0.0,part_2,go,650.0,500.0,1.0,,,,,,,,,gray,cross
0.0,3.0,3.0,0.0,5.0,5.0,1165.7395719994383,1.0,0.0,part_2,go,650.0,500.0,1.0,,,,,,,,,orange,I
0.0,2.0,2.0,0.0,5.0,5.0,772.2168779991989,1.0,0.0,part_2,go,650.0,500.0,1.0,,,,,,,,,blue,triangle
0.0,6.0,2.0,1.0,6.0,0.0,0.0,1.0,0.0,part_2,stop,650.0,500.0,4.0,,,,,,,,,magenta,hexagon
0.0,1.0,1.0,0.0,6.0,6.0,559.601030999147,2.0,0.0,part_2,go,650.0,550.0,1.0,,,,,,,,,green,flipped triangle
0.0,6.0,2.0,1.0,6.0,6.0,724.5411929998227,2.0,0.0,part_2,stop,650.0,550.0,3.0,,,,,,,,,magenta,hexagon
0.0,5.0,1.0,1.0,6.0,0.0,0.0,2.0,0.0,part_2,stop,650.0,500.0,4.0,,,,,,,,,yellow,diamond
0.0,5.0,1.0,1.0,6.0,6.0,1116.6974750003646,2.0,0.0,part_2,go,650.0,550.0,1.0,,,,,,,,,yellow,diamond
0.0,5.0,1.0,1.0,5.0,0.0,0.0,2.0,0.0,part_2,stop,650.0,550.0,4.0,,,,,,,,,yellow,diamond
0.0,6.0,2.0,1.0,6.0,6.0,857.2957169999427,2.0,0.0,part_2,go,700.0,550.0,1.0,,,,,,,,,magenta,hexagon
0.0,7.0,3.0,1.0,6.0,6.0,650.5317459996149,2.0,0.0,part_2,stop,700.0,550.0,3.0,,,,,,,,,cyan,square
0.0,4.0,4.0,0.0,6.0,6.0,791.7877939999016,2.0,0.0,part_2,go,700.0,500.0,1.0,,,,,,,,,gray,cross
0.0,6.0,2.0,1.0,6.0,6.0,832.835817999694,2.0,0.0,part_2,go,700.0,500.0,1.0,,,,,,,,,magenta,hexagon
0.0,7.0,3.0,1.0,5.0,5.0,595.1224730006288,2.0,0.0,part_2,stop,700.0,500.0,3.0,,,,,,,,,cyan,square
0.0,6.0,2.0,1.0,6.0,0.0,0.0,2.0,0.0,part_2,stop,650.0,500.0,4.0,,,,,,,,,magenta,hexagon
0.0,7.0,3.0,1.0,5.0,0.0,0.0,2.0,0.0,part_2,stop,650.0,550.0,4.0,,,,,,,,,cyan,square
0.0,2.0,2.0,0.0,6.0,6.0,706.9964189995517,2.0,0.0,part_2,go,700.0,550.0,1.0,,,,,,,,,blue,triangle
0.0,3.0,3.0,0.0,6.0,6.0,1025.1599020002686,2.0,0.0,part_2,go,700.0,550.0,1.0,,,,,,,,,orange,I
0.0,3.0,3.0,0.0,6.0,6.0,717.9805420000775,2.0,0.0,part_2,go,700.0,550.0,1.0,,,,,,,,,orange,I
0.0,8.0,4.0,1.0,5.0,5.0,979.3001329999242,2.0,0.0,part_2,stop,700.0,550.0,3.0,,,,,,,,,white,circle
0.0,8.0,4.0,1.0,6.0,6.0,1173.5906450003313,2.0,0.0,part_2,go,650.0,550.0,1.0,,,,,,,,,white,circle
0.0,7.0,3.0,1.0,5.0,0.0,0.0,2.0,0.0,part_2,stop,650.0,550.0,4.0,,,,,,,,,cyan,square
0.0,7.0,3.0,1.0,6.0,0.0,0.0,2.0,0.0,part_2,stop,700.0,550.0,4.0,,,,,,,,,cyan,square
0.0,4.0,4.0,0.0,5.0,5.0,1035.2760929999931,2.0,0.0,part_2,go,700.0,600.0,1.0,,,,,,,,,gray,cross
0.0,2.0,2.0,0.0,5.0,5.0,874.9380429999292,2.0,0.0,part_2,go,700.0,600.0,1.0,,,,,,,,,blue,triangle
0.0,7.0,3.0,1.0,6.0,6.0,919.718899000145,2.0,0.0,part_2,go,700.0,600.0,1.0,,,,,,,,,cyan,square
0.0,6.0,2.0,1.0,5.0,0.0,0.0,2.0,0.0,part_2,stop,700.0,600.0,4.0,,,,,,,,,magenta,hexagon
0.0,6.0,2.0,1.0,6.0,6.0,783.8511549998657,2.0,0.0,part_2,go,750.0,600.0,1.0,,,,,,,,,magenta,hexagon
0.0,7.0,3.0,1.0,6.0,0.0,0.0,2.0,0.0,part_2,stop,750.0,600.0,4.0,,,,,,,,,cyan,square
0.0,1.0,1.0,0.0,6.0,6.0,843.1892119997428,2.0,0.0,part_2,go,750.0,650.0,1.0,,,,,,,,,green,flipped triangle
0.0,4.0,4.0,0.0,5.0,5.0,617.0476609995603,2.0,0.0,part_2,go,750.0,650.0,1.0,,,,,,,,,gray,cross
0.0,2.0,2.0,0.0,5.0,5.0,746.1151679999602,2.0,0.0,part_2,go,750.0,650.0,1.0,,,,,,,,,blue,triangle
0.0,3.0,3.0,0.0,6.0,6.0,495.3291279998666,2.0,0.0,part_2,go,750.0,650.0,1.0,,,,,,,,,orange,I
0.0,3.0,3.0,0.0,5.0,5.0,524.2887040003552,2.0,0.0,part_2,go,750.0,650.0,1.0,,,,,,,,,orange,I
0.0,3.0,3.0,0.0,5.0,5.0,728.1883790001302,2.0,0.0,part_2,go,750.0,650.0,1.0,,,,,,,,,orange,I
0.0,5.0,1.0,1.0,5.0,5.0,749.7124470000927,2.0,0.0,part_2,stop,750.0,650.0,3.0,,,,,,,,,yellow,diamond
0.0,1.0,1.0,0.0,6.0,6.0,653.9388290002535,2.0,0.0,part_2,go,700.0,650.0,1.0,,,,,,,,,green,flipped triangle
0.0,6.0,2.0,1.0,5.0,5.0,1180.0353130001895,2.0,0.0,part_2,go,700.0,650.0,1.0,,,,,,,,,magenta,hexagon
0.0,6.0,2.0,1.0,6.0,6.0,549.9937429995043,2.0,0.0,part_2,stop,700.0,650.0,3.0,,,,,,,,,magenta,hexagon
0.0,2.0,2.0,0.0,5.0,5.0,859.5487960001265,2.0,0.0,part_2,go,700.0,600.0,1.0,,,,,,,,,blue,triangle
0.0,5.0,1.0,1.0,5.0,5.0,737.1452300003511,3.0,0.0,part_2,go,700.0,600.0,1.0,,,,,,,,,yellow,diamond
0.0,7.0,3.0,1.0,5.0,5.0,569.9376649999977,3.0,0.0,part_2,stop,700.0,600.0,3.0,,,,,,,,,cyan,square
0.0,7.0,3.0,1.0,5.0,5.0,720.7913629999894,3.0,0.0,part_2,stop,650.0,600.0,3.0,,,,,,,,,cyan,square
0.0,4.0,4.0,0.0,5.0,5.0,663.3109049998893,3.0,0.0,part_2,go,600.0,600.0,1.0,,,,,,,,,gray,cross
0.0,3.0,3.0,0.0,5.0,5.0,936.3575310007946,3.0,0.0,part_2,go,600.0,600.0,1.0,,,,,,,,,orange,I
0.0,6.0,2.0,1.0,6.0,0.0,0.0,3.0,0.0,part_2,stop,600.0,600.0,4.0,,,,,,,,,magenta,hexagon
0.0,5.0,1.0,1.0,5.0,0.0,0.0,3.0,0.0,part_2,stop,600.0,650.0,4.0,,,,,,,,,yellow,diamond
0.0,2.0,2.0,0.0,5.0,5.0,752.0729640000354,3.0,0.0,part_2,go,650.0,650.0,1.0,,,,,,,,,blue,triangle
0.0,1.0,1.0,0.0,5.0,5.0,995.1342790000126,3.0,0.0,part_2,go,650.0,650.0,1.0,,,,,,,,,green,flipped triangle
0.0,2.0,2.0,0.0,5.0,5.0,927.529992000018,3.0,0.0,part_2,go,650.0,650.0,1.0,,,,,,,,,blue,triangle
0.0,5.0,1.0,1.0,6.0,6.0,732.7357350004604,3.0,0.0,part_2,stop,650.0,650.0,3.0,,,,,,,,,yellow,diamond
0.0,7.0,3.0,1.0,6.0,6.0,764.722303999406,3.0,0.0,part_2,go,650.0,600.0,1.0,,,,,,,,,cyan,square
0.0,4.0,4.0,0.0,5.0,5.0,710.1212690004104,3.0,0.0,part_2,go,650.0,600.0,1.0,,,,,,,,,gray,cross
0.0,5.0,1.0,1.0,6.0,0.0,0.0,3.0,0.0,part_2,stop,650.0,600.0,4.0,,,,,,,,,yellow,diamond
0.0,1.0,1.0,0.0,5.0,5.0,692.2434620000786,3.0,0.0,part_2,go,650.0,650.0,1.0,,,,,,,,,green,flipped triangle
0.0,7.0,3.0,1.0,6.0,6.0,734.5709929995792,3.0,0.0,part_2,stop,650.0,650.0,3.0,,,,,,,,,cyan,square
0.0,4.0,4.0,0.0,5.0,5.0,935.1358530002472,3.0,0.0,part_2,go,650.0,600.0,1.0,,,,,,,,,gray,cross
0.0,4.0,4.0,0.0,6.0,6.0,1037.373930000285,3.0,0.0,part_2,go,650.0,600.0,1.0,,,,,,,,,gray,cross
0.0,8.0,4.0,1.0,6.0,0.0,0.0,3.0,0.0,part_2,stop,650.0,600.0,4.0,,,,,,,,,white,circle
0.0,8.0,4.0,1.0,5.0,5.0,813.988492000135,3.0,0.0,part_2,go,650.0,650.0,1.0,,,,,,,,,white,circle
0.0,8.0,4.0,1.0,6.0,0.0,0.0,3.0,0.0,part_2,stop,650.0,650.0,4.0,,,,,,,,,white,circle
0.0,6.0,2.0,1.0,6.0,6.0,864.2877720003526,3.0,0.0,part_2,stop,650.0,700.0,3.0,,,,,,,,,magenta,hexagon
0.0,7.0,3.0,1.0,6.0,6.0,914.0155169998252,3.0,0.0,part_2,go,650.0,650.0,1.0,,,,,,,,,cyan,square
0.0,3.0,3.0,0.0,5.0,5.0,813.7283619998925,3.0,0.0,part_2,go,650.0,650.0,1.0,,,,,,,,,orange,I
0.0,3.0,3.0,0.0,5.0,5.0,680.329453000013,3.0,0.0,part_2,go,650.0,650.0,1.0,,,,,,,,,orange,I
0.0,6.0,2.0,1.0,5.0,0.0,0.0,3.0,0.0,part_2,stop,650.0,650.0,4.0,,,,,,,,,magenta,hexagon
0.0,7.0,3.0,1.0,6.0,0.0,0.0,3.0,0.0,part_2,stop,700.0,650.0,4.0,,,,,,,,,cyan,square
0.0,3.0,3.0,0.0,6.0,6.0,1025.5786750003608,3.0,0.0,part_2,go,700.0,700.0,1.0,,,,,,,,,orange,I
0.0,3.0,3.0,0.0,5.0,5.0,840.4292949999217,3.0,0.0,part_2,go,700.0,700.0,1.0,,,,,,,,,orange,I
0.0,2.0,2.0,0.0,6.0,6.0,355.5985630000577,3.0,0.0,part_2,go,700.0,700.0,1.0,,,,,,,,,blue,triangle
0.0,2.0,2.0,0.0,6.0,6.0,876.9866539996656,3.0,0.0,part_2,go,700.0,700.0,1.0,,,,,,,,,blue,triangle
0.0,3.0,3.0,0.0,5.0,5.0,634.6651089997977,3.0,0.0,part_2,go,700.0,700.0,1.0,,,,,,,,,orange,I
0.0,6.0,2.0,1.0,5.0,0.0,0.0,3.0,0.0,part_2,stop,700.0,700.0,4.0,,,,,,,,,magenta,hexagon
0.0,4.0,4.0,0.0,5.0,5.0,550.9549320004226,3.0,0.0,part_2,go,750.0,700.0,1.0,,,,,,,,,gray,cross
0.0,3.0,3.0,0.0,5.0,5.0,635.028785999566,3.0,0.0,part_2,go,750.0,700.0,1.0,,,,,,,,,orange,I
0.0,2.0,2.0,0.0,5.0,5.0,1083.622199000274,3.0,0.0,part_2,go,750.0,700.0,1.0,,,,,,,,,blue,triangle
0.0,5.0,1.0,1.0,5.0,5.0,364.1274049996355,4.0,0.0,part_2,stop,750.0,700.0,3.0,,,,,,,,,yellow,diamond
0.0,7.0,3.0,1.0,6.0,6.0,747.4263680005606,4.0,0.0,part_2,stop,700.0,700.0,3.0,,,,,,,,,cyan,square
0.0,3.0,3.0,0.0,6.0,6.0,739.303774000291,4.0,0.0,part_2,go,700.0,650.0,1.0,,,,,,,,,orange,I
0.0,1.0,1.0,0.0,6.0,6.0,626.252370999282,4.0,0.0,part_2,go,700.0,650.0,1.0,,,,,,,,,green,flipped triangle
0.0,1.0,1.0,0.0,5.0,5.0,724.0633110004637,4.0,0.0,part_2,go,700.0,650.0,1.0,,,,,,,,,green,flipped triangle
0.0,2.0,2.0,0.0,6.0,6.0,542.2483170004853,4.0,0.0,part_2,go,700.0,650.0,1.0,,,,,,,,,blue,triangle
0.0,6.0,2.0,1.0,6.0,0.0,0.0,4.0,0.0,part_2,stop,700.0,650.0,4.0,,,,,,,,,magenta,hexagon
0.0,1.0,1.0,0.0,5.0,5.0,686.5672260000792,4.0,0.0,part_2,go,700.0,700.0,1.0,,,,,,,,,green,flipped triangle
0.0,7.0,3.0,1.0,5.0,5.0,783.1615650002277,4.0,0.0,part_2,stop,700.0,700.0,3.0,,,,,,,,,cyan,square
0.0,2.0,2.0,0.0,6.0,6.0,531.7532080007368,4.0,0.0,part_2,go,650.0,700.0,1.0,,,,,,,,,blue,triangle
0.0,3.0,3.0,0.0,6.0,6.0,597.0924570001443,4.0,0.0,part_2,go,650.0,700.0,1.0,,,,,,,,,orange,I
0.0,2.0,2.0,0.0,6.0,6.0,644.5118080000611,4.0,0.0,part_2,go,650.0,700.0,1.0,,,,,,,,,blue,triangle
0.0,6.0,2.0,1.0,5.0,0.0,0.0,4.0,0.0,part_2,stop,650.0,700.0,4.0,,,,,,,,,magenta,hexagon
0.0,7.0,3.0,1.0,5.0,5.0,1251.6779520001364,4.0,0.0,part_2,go,700.0,700.0,1.0,,,,,,,,,cyan,square
0.0,7.0,3.0,1.0,6.0,6.0,654.0616359998239,4.0,0.0,part_2,go,700.0,700.0,1.0,,,,,,,,,cyan,square
0.0,4.0,4.0,0.0,6.0,6.0,535.2234080000926,4.0,0.0,part_2,go,700.0,700.0,1.0,,,,,,,,,gray,cross
0.0,8.0,4.0,1.0,6.0,0.0,0.0,4.0,0.0,part_2,stop,700.0,700.0,4.0,,,,,,,,,white,circle
0.0,3.0,3.0,0.0,6.0,6.0,570.9459940007946,4.0,0.0,part_2,go,700.0,750.0,1.0,,,,,,,,,orange,I
0.0,2.0,2.0,0.0,6.0,6.0,1008.1143759998668,4.0,0.0,part_2,go,700.0,750.0,1.0,,,,,,,,,blue,triangle
0.0,8.0,4.0,1.0,6.0,6.0,1200.5312129995218,4.0,0.0,part_2,go,700.0,750.0,1.0,,,,,,,,,white,circle
0.0,2.0,2.0,0.0,6.0,6.0,719.8820390003675,4.0,0.0,part_2,go,700.0,750.0,1.0,,,,,,,,,blue,triangle
0.0,4.0,4.0,0.0,6.0,6.0,541.701617000399,4.0,0.0,part_2,go,700.0,750.0,1.0,,,,,,,,,gray,cross
0.0,5.0,1.0,1.0,5.0,5.0,838.5162619997573,4.0,0.0,part_2,stop,700.0,750.0,3.0,,,,,,,,,yellow,diamond
0.0,4.0,4.0,0.0,6.0,6.0,486.4541990000361,4.0,0.0,part_2,go,650.0,750.0,1.0,,,,,,,,,gray,cross
0.0,8.0,4.0,1.0,5.0,0.0,0.0,4.0,0.0,part_2,stop,650.0,750.0,4.0,,,,,,,,,white,circle
0.0,4.0,4.0,0.0,6.0,6.0,624.5888880002894,4.0,0.0,part_2,go,700.0,750.0,1.0,,,,,,,,,gray,cross
0.0,5.0,1.0,1.0,6.0,0.0,0.0,4.0,0.0,part_2,stop,700.0,750.0,4.0,,,,,,,,,yellow,diamond
0.0,4.0,4.0,0.0,6.0,6.0,513.6209539996344,4.0,0.0,part_2,go,700.0,800.0,1.0,,,,,,,,,gray,cross
0.0,1.0,1.0,0.0,5.0,5.0,876.8131010001525,4.0,0.0,part_2,go,700.0,800.0,1.0,,,,,,,,,green,flipped triangle
0.0,5.0,1.0,1.0,6.0,6.0,985.6865890005791,4.0,0.0,part_2,stop,700.0,800.0,3.0,,,,,,,,,yellow,diamond
0.0,5.0,1.0,1.0,6.0,0.0,0.0,4.0,0.0,part_2,stop,700.0,750.0,4.0,,,,,,,,,yellow,diamond
0.0,7.0,3.0,1.0,6.0,0.0,0.0,4.0,0.0,part_2,stop,700.0,800.0,4.0,,,,,,,,,cyan,square
0.0,2.0,2.0,0.0,5.0,5.0,670.9548310000173,4.0,0.0,part_2,go,700.0,850.0,1.0,,,,,,,,,blue,triangle
0.0,5.0,1.0,1.0,5.0,0.0,0.0,4.0,0.0,part_2,stop,700.0,850.0,4.0,,,,,,,,,yellow,diamond
0.0,7.0,3.0,1.0,5.0,0.0,0.0,4.0,0.0,part_2,stop,750.0,850.0,4.0,,,,,,,,,cyan,square
0.0,4.0,4.0,0.0,5.0,5.0,550.3319530007502,4.0,0.0,part_2,go,800.0,850.0,1.0,,,,,,,,,gray,cross
0.0,1.0,1.0,0.0,6.0,6.0,401.2348289998044,5.0,0.0,part_2,go,800.0,850.0,1.0,,,,,,,,,green,flipped triangle
0.0,3.0,3.0,0.0,6.0,6.0,533.2068260004235,5.0,0.0,part_2,go,800.0,850.0,1.0,,,,,,,,,orange,I
0.0,8.0,4.0,1.0,6.0,6.0,897.0315270007632,5.0,0.0,part_2,stop,800.0,850.0,3.0,,,,,,,,,white,circle
0.0,1.0,1.0,0.0,5.0,5.0,588.6841619994811,5.0,0.0,part_2,go,800.0,800.0,1.0,,,,,,,,,green,flipped triangle
0.0,8.0,4.0,1.0,5.0,5.0,1207.3512139995728,5.0,0.0,part_2,go,800.0,800.0,1.0,,,,,,,,,white,circle
0.0,5.0,1.0,1.0,6.0,6.0,1153.0986620000476,5.0,0.0,part_2,go,800.0,800.0,1.0,,,,,,,,,yellow,diamond
0.0,6.0,2.0,1.0,6.0,0.0,0.0,5.0,0.0,part_2,stop,800.0,800.0,4.0,,,,,,,,,magenta,hexagon
0.0,1.0,1.0,0.0,5.0,5.0,719.7758160000376,5.0,0.0,part_2,go,800.0,850.0,1.0,,,,,,,,,green,flipped triangle
0.0,4.0,4.0,0.0,5.0,5.0,598.0955800005177,5.0,0.0,part_2,go,800.0,850.0,1.0,,,,,,,,,gray,cross
0.0,6.0,2.0,1.0,5.0,0.0,0.0,5.0,0.0,part_2,stop,800.0,850.0,4.0,,,,,,,,,magenta,hexagon
0.0,3.0,3.0,0.0,6.0,6.0,579.8548310003753,5.0,0.0,part_2,go,850.0,850.0,1.0,,,,,,,,,orange,I
0.0,3.0,3.0,0.0,6.0,6.0,449.1304809998837,5.0,0.0,part_2,go,850.0,850.0,1.0,,,,,,,,,orange,I
0.0,3.0,3.0,0.0,5.0,5.0,559.2797369999971,5.0,0.0,part_2,go,850.0,850.0,1.0,,,,,,,,,orange,I
0.0,2.0,2.0,0.0,5.0,5.0,830.9385539996583,5.0,0.0,part_2,go,850.0,850.0,1.0,,,,,,,,,blue,triangle
0.0,4.0,4.0,0.0,6.0,6.0,503.94853600028,5.0,0.0,part_2,go,850.0,850.0,1.0,,,,,,,,,gray,cross
0.0,3.0,3.0,0.0,5.0,5.0,531.2464529997669,5.0,0.0,part_2,go,850.0,850.0,1.0,,,,,,,,,orange,I
0.0,8.0,4.0,1.0,5.0,5.0,1082.6290119994155,5.0,0.0,part_2,go,850.0,850.0,1.0,,,,,,,,,white,circle
0.0,6.0,2.0,1.0,6.0,0.0,0.0,5.0,0.0,part_2,stop,850.0,850.0,4.0,,,,,,,,,magenta,hexagon
0.0,3.0,3.0,0.0,6.0,6.0,560.7417649998752,5.0,0.0,part_2,go,850.0,900.0,1.0,,,,,,,,,orange,I
0.0,8.0,4.0,1.0,6.0,6.0,1026.8344340001931,5.0,0.0,part_2,stop,850.0,900.0,3.0,,,,,,,,,white,circle
0.0,2.0,2.0,0.0,6.0,6.0,641.0365740002817,5.0,0.0,part_2,go,850.0,850.0,1.0,,,,,,,,,blue,triangle
0.0,6.0,2.0,1.0,6.0,0.0,0.0,5.0,0.0,part_2,stop,850.0,850.0,4.0,,,,,,,,,magenta,hexagon
0.0,8.0,4.0,1.0,6.0,6.0,1267.3232479992294,5.0,0.0,part_2,go,850.0,900.0,1.0,,,,,,,,,white,circle
0.0,6.0,2.0,1.0,6.0,0.0,0.0,5.0,0.0,part_2,stop,850.0,900.0,4.0,,,,,,,,,magenta,hexagon
0.0,6.0,2.0,1.0,5.0,0.0,0.0,5.0,0.0,part_2,stop,850.0,950.0,4.0,,,,,,,,,magenta,hexagon
0.0,4.0,4.0,0.0,6.0,6.0,626.7739380000421,5.0,0.0,part_2,go,900.0,950.0,1.0,,,,,,,,,gray,cross
0.0,8.0,4.0,1.0,5.0,5.0,985.8352820001528,5.0,0.0,part_2,go,900.0,950.0,1.0,,,,,,,,,white,circle
0.0,5.0,1.0,1.0,6.0,0.0,0.0,5.0,0.0,part_2,stop,900.0,950.0,4.0,,,,,,,,,yellow,diamond
0.0,7.0,3.0,1.0,6.0,0.0,0.0,5.0,0.0,part_2,stop,900.0,1000.0,4.0,,,,,,,,,cyan,square
0.0,7.0,3.0,1.0,5.0,0.0,0.0,5.0,0.0,part_2,stop,900.0,1050.0,4.0,,,,,,,,,cyan,square
0.0,2.0,2.0,0.0,5.0,5.0,679.6461859994452,5.0,0.0,part_2,go,950.0,1050.0,1.0,,,,,,,,,blue,triangle
0.0,5.0,1.0,1.0,5.0,5.0,1046.7882880002437,5.0,0.0,part_2,stop,950.0,1050.0,3.0,,,,,,,,,yellow,diamond
0.0,3.0,3.0,0.0,5.0,5.0,571.217651000552,5.0,0.0,part_2,go,900.0,1050.0,1.0,,,,,,,,,orange,I
0.0,4.0,4.0,0.0,6.0,6.0,522.0626589998574,5.0,0.0,part_2,go,900.0,1050.0,1.0,,,,,,,,,gray,cross
0.0,7.0,3.0,1.0,5.0,0.0,0.0,5.0,0.0,part_2,stop,900.0,1050.0,4.0,,,,,,,,,cyan,square
0.0,1.0,1.0,0.0,5.0,5.0,616.1787860000913,5.0,0.0,part_2,go,950.0,1050.0,1.0,,,,,,,,,green,flipped triangle
0.0,2.0,2.0,0.0,5.0,5.0,540.58857399923,6.0,0.0,part_2,go,950.0,1050.0,1.0,,,,,,,,,blue,triangle
0.0,5.0,1.0,1.0,5.0,5.0,738.2103990003088,6.0,0.0,part_2,stop,950.0,1050.0,3.0,,,,,,,,,yellow,diamond
0.0,1.0,1.0,0.0,6.0,6.0,543.2860319997417,6.0,0.0,part_2,go,900.0,1050.0,1.0,,,,,,,,,green,flipped triangle
0.0,2.0,2.0,0.0,6.0,6.0,596.8990530000156,6.0,0.0,part_2,go,900.0,1050.0,1.0,,,,,,,,,blue,triangle
0.0,5.0,1.0,1.0,6.0,6.0,1105.5291319999014,6.0,0.0,part_2,stop,900.0,1050.0,3.0,,,,,,,,,yellow,diamond
0.0,5.0,1.0,1.0,6.0,6.0,1465.4705459997786,6.0,0.0,part_2,go,900.0,1000.0,1.0,,,,,,,,,yellow,diamond
0.0,8.0,4.0,1.0,5.0,5.0,475.9584080002241,6.0,0.0,part_2,stop,900.0,1000.0,3.0,,,,,,,,,white,circle
0.0,8.0,4.0,1.0,6.0,6.0,1100.482808000379,6.0,0.0,part_2,stop,850.0,1000.0,3.0,,,,,,,,,white,circle
0.0,2.0,2.0,0.0,6.0,6.0,653.2557740001721,6.0,0.0,part_2,go,850.0,950.0,1.0,,,,,,,,,blue,triangle
0.0,6.0,2.0,1.0,5.0,0.0,0.0,6.0,0.0,part_2,stop,850.0,950.0,4.0,,,,,,,,,magenta,hexagon
0.0,1.0,1.0,0.0,5.0,5.0,895.5348399995273,6.0,0.0,part_2,go,900.0,950.0,1.0,,,,,,,,,green,flipped triangle
0.0,4.0,4.0,0.0,5.0,5.0,429.0605480000522,6.0,0.0,part_2,go,900.0,950.0,1.0,,,,,,,,,gray,cross
0.0,7.0,3.0,1.0,5.0,0.0,0.0,6.0,0.0,part_2,stop,900.0,950.0,4.0,,,,,,,,,cyan,square
0.0,4.0,4.0,0.0,5.0,5.0,617.050200000449,6.0,0.0,part_2,go,950.0,950.0,1.0,,,,,,,,,gray,cross
0.0,8.0,4.0,1.0,5.0,0.0,0.0,6.0,0.0,part_2,stop,950.0,950.0,4.0,,,,,,,,,white,circle
0.0,2.0,2.0,0.0,5.0,5.0,587.7515629999834,6.0,0.0,part_2,go,1000.0,950.0,1.0,,,,,,,,,blue,triangle
0.0,6.0,2.0,1.0,5.0,0.0,0.0,6.0,0.0,part_2,go,1000.0,950.0,5.0,,,,,,,,,magenta,hexagon
0.0,4.0,4.0,0.0,5.0,5.0,699.6617079994394,6.0,0.0,part_2,go,1000.0,950.0,1.0,,,,,,,,,gray,cross
0.0,1.0,1.0,0.0,6.0,6.0,382.0041979997768,6.0,0.0,part_2,go,1000.0,950.0,1.0,,,,,,,,,green,flipped triangle
0.0,7.0,3.0,1.0,6.0,6.0,405.0051010008246,6.0,0.0,part_2,stop,1000.0,950.0,3.0,,,,,,,,,cyan,square
0.0,5.0,1.0,1.0,5.0,5.0,838.8536379998186,6.0,0.0,part_2,go,1000.0,900.0,1.0,,,,,,,,,yellow,diamond
0.0,4.0,4.0,0.0,6.0,6.0,457.4304620000475,6.0,0.0,part_2,go,1000.0,900.0,1.0,,,,,,,,,gray,cross
0.0,5.0,1.0,1.0,6.0,6.0,364.8738239999147,6.0,0.0,part_2,stop,1000.0,900.0,3.0,,,,,,,,,yellow,diamond
0.0,7.0,3.0,1.0,5.0,5.0,1045.9301569999295,6.0,0.0,part_2,stop,1000.0,850.0,3.0,,,,,,,,,cyan,square
0.0,3.0,3.0,0.0,5.0,5.0,502.66684899997927,6.0,0.0,part_2,go,950.0,850.0,1.0,,,,,,,,,orange,I
0.0,4.0,4.0,0.0,5.0,5.0,512.769056000252,6.0,0.0,part_2,go,950.0,850.0,1.0,,,,,,,,,gray,cross
0.0,4.0,4.0,0.0,5.0,5.0,390.5901039997843,6.0,0.0,part_2,go,950.0,850.0,1.0,,,,,,,,,gray,cross
0.0,5.0,1.0,1.0,5.0,5.0,1128.2979089992295,6.0,0.0,part_2,go,950.0,850.0,1.0,,,,,,,,,yellow,diamond
0.0,3.0,3.0,0.0,5.0,5.0,531.9215889994666,6.0,0.0,part_2,go,950.0,850.0,1.0,,,,,,,,,orange,I
0.0,1.0,1.0,0.0,6.0,6.0,474.3045810000694,6.0,0.0,part_2,go,950.0,850.0,1.0,,,,,,,,,green,flipped triangle
0.0,2.0,2.0,0.0,5.0,5.0,346.0427790005269,6.0,0.0,part_2,go,950.0,850.0,1.0,,,,,,,,,blue,triangle
0.0,3.0,3.0,0.0,5.0,5.0,401.9997550003609,6.0,0.0,part_2,go,950.0,850.0,1.0,,,,,,,,,orange,I
0.0,1.0,1.0,0.0,5.0,5.0,519.7858010005802,6.0,0.0,part_2,go,950.0,850.0,1.0,,,,,,,,,green,flipped triangle
0.0,8.0,4.0,1.0,6.0,6.0,373.8948199998049,6.0,0.0,part_2,stop,950.0,850.0,3.0,,,,,,,,,white,circle
0.0,4.0,4.0,0.0,6.0,6.0,485.0567749999754,6.0,0.0,part_2,go,950.0,800.0,1.0,,,,,,,,,gray,cross
0.0,1.0,1.0,0.0,6.0,6.0,465.4835589999493,6.0,0.0,part_2,go,950.0,800.0,1.0,,,,,,,,,green,flipped triangle
0.0,8.0,4.0,1.0,6.0,6.0,531.0331150003549,7.0,0.0,part_2,stop,950.0,800.0,3.0,,,,,,,,,white,circle
0.0,7.0,3.0,1.0,6.0,6.0,738.9060710002013,7.0,0.0,part_2,stop,950.0,750.0,3.0,,,,,,,,,cyan,square
0.0,2.0,2.0,0.0,6.0,6.0,756.0725659996024,7.0,0.0,part_2,go,950.0,700.0,1.0,,,,,,,,,blue,triangle
0.0,5.0,1.0,1.0,5.0,5.0,542.3361040002419,7.0,0.0,part_2,stop,950.0,700.0,3.0,,,,,,,,,yellow,diamond
0.0,1.0,1.0,0.0,6.0,6.0,531.7647830006536,7.0,0.0,part_2,go,900.0,700.0,1.0,,,,,,,,,green,flipped triangle
0.0,2.0,2.0,0.0,5.0,5.0,691.858936999779,7.0,0.0,part_2,go,900.0,700.0,1.0,,,,,,,,,blue,triangle
0.0,7.0,3.0,1.0,5.0,5.0,607.7590559998498,7.0,0.0,part_2,stop,900.0,700.0,3.0,,,,,,,,,cyan,square
0.0,1.0,1.0,0.0,6.0,6.0,467.3603440005536,7.0,0.0,part_2,go,850.0,700.0,1.0,,,,,,,,,green,flipped triangle
0.0,2.0,2.0,0.0,6.0,6.0,475.3250940002544,7.0,0.0,part_2,go,850.0,700.0,1.0,,,,,,,,,blue,triangle
0.0,7.0,3.0,1.0,5.0,5.0,1308.159471000181,7.0,0.0,part_2,go,850.0,700.0,1.0,,,,,,,,,cyan,square
0.0,6.0,2.0,1.0,6.0,0.0,0.0,7.0,0.0,part_2,stop,850.0,700.0,4.0,,,,,,,,,magenta,hexagon
0.0,5.0,1.0,1.0,6.0,0.0,0.0,7.0,0.0,part_2,stop,850.0,750.0,4.0,,,,,,,,,yellow,diamond
0.0,4.0,4.0,0.0,5.0,5.0,495.7869749996462,7.0,0.0,part_2,go,850.0,800.0,1.0,,,,,,,,,gray,cross
0.0,8.0,4.0,1.0,5.0,0.0,0.0,7.0,0.0,part_2,stop,850.0,800.0,4.0,,,,,,,,,white,circle
0.0,6.0,2.0,1.0,6.0,6.0,1340.132337999421,7.0,0.0,part_2,go,900.0,800.0,1.0,,,,,,,,,magenta,hexagon
0.0,6.0,2.0,1.0,5.0,0.0,0.0,7.0,0.0,part_2,stop,900.0,800.0,4.0,,,,,,,,,magenta,hexagon
0.0,5.0,1.0,1.0,6.0,0.0,0.0,7.0,0.0,part_2,stop,950.0,800.0,4.0,,,,,,,,,yellow,diamond
0.0,4.0,4.0,0.0,5.0,5.0,568.5550160005732,7.0,0.0,part_2,go,950.0,850.0,1.0,,,,,,,,,gray,cross
0.0,3.0,3.0,0.0,5.0,5.0,577.4178809997466,7.0,0.0,part_2,go,950.0,850.0,1.0,,,,,,,,,orange,I
0.0,6.0,2.0,1.0,5.0,5.0,355.2774789995965,7.0,0.0,part_2,stop,950.0,850.0,3.0,,,,,,,,,magenta,hexagon
0.0,3.0,3.0,0.0,6.0,6.0,495.1971099999355,7.0,0.0,part_2,go,900.0,850.0,1.0,,,,,,,,,orange,I
0.0,6.0,2.0,1.0,5.0,0.0,0.0,7.0,0.0,part_2,stop,900.0,850.0,4.0,,,,,,,,,magenta,hexagon
0.0,4.0,4.0,0.0,5.0,5.0,614.4076890004726,7.0,0.0,part_2,go,950.0,850.0,1.0,,,,,,,,,gray,cross
0.0,1.0,1.0,0.0,5.0,5.0,606.9769020004969,7.0,0.0,part_2,go,950.0,850.0,1.0,,,,,,,,,green,flipped triangle
0.0,3.0,3.0,0.0,6.0,6.0,421.538937999685,7.0,0.0,part_2,go,950.0,850.0,1.0,,,,,,,,,orange,I
0.0,1.0,1.0,0.0,6.0,6.0,438.235910000003,7.0,0.0,part_2,go,950.0,850.0,1.0,,,,,,,,,green,flipped triangle
0.0,5.0,1.0,1.0,6.0,6.0,362.5714280005923,7.0,0.0,part_2,stop,950.0,850.0,3.0,,,,,,,,,yellow,diamond
0.0,2.0,2.0,0.0,6.0,6.0,448.6754979998295,7.0,0.0,part_2,go,950.0,800.0,1.0,,,,,,,,,blue,triangle
0.0,8.0,4.0,1.0,6.0,0.0,0.0,7.0,0.0,part_2,stop,950.0,800.0,4.0,,,,,,,,,white,circle
0.0,1.0,1.0,0.0,5.0,5.0,559.9206070000946,7.0,0.0,part_2,go,950.0,850.0,1.0,,,,,,,,,green,flipped triangle
0.0,1.0,1.0,0.0,5.0,5.0,364.7710440000082,7.0,0.0,part_2,go,950.0,850.0,1.0,,,,,,,,,green,flipped triangle
0.0,7.0,3.0,1.0,5.0,0.0,0.0,7.0,0.0,part_2,stop,950.0,850.0,4.0,,,,,,,,,cyan,square
0.0,5.0,1.0,1.0,5.0,5.0,1415.6405749999976,7.0,0.0,part_2,go,1000.0,850.0,1.0,,,,,,,,,yellow,diamond
0.0,1.0,1.0,0.0,5.0,5.0,627.3766940003043,7.0,0.0,part_2,go,1000.0,850.0,1.0,,,,,,,,,green,flipped triangle
0.0,5.0,1.0,1.0,6.0,6.0,410.6968270007201,7.0,0.0,part_2,stop,1000.0,850.0,3.0,,,,,,,,,yellow,diamond
0.0,6.0,2.0,1.0,5.0,5.0,1258.7878229996932,7.0,0.0,part_2,go,1000.0,800.0,1.0,,,,,,,,,magenta,hexagon
0.0,7.0,3.0,1.0,6.0,6.0,1212.935237000238,8.0,0.0,part_2,go,1000.0,800.0,1.0,,,,,,,,,cyan,square
0.0,2.0,2.0,0.0,6.0,6.0,484.8890690000189,8.0,0.0,part_2,go,1000.0,800.0,1.0,,,,,,,,,blue,triangle
0.0,6.0,2.0,1.0,5.0,5.0,1100.3922019999663,8.0,0.0,part_2,stop,1000.0,800.0,3.0,,,,,,,,,magenta,hexagon
0.0,6.0,2.0,1.0,5.0,0.0,0.0,8.0,0.0,part_2,stop,950.0,800.0,4.0,,,,,,,,,magenta,hexagon
0.0,3.0,3.0,0.0,5.0,5.0,504.55396799952723,8.0,0.0,part_2,go,1000.0,800.0,1.0,,,,,,,,,orange,I
0.0,8.0,4.0,1.0,6.0,6.0,1137.659865000387,8.0,0.0,part_2,go,1000.0,800.0,1.0,,,,,,,,,white,circle
0.0,8.0,4.0,1.0,6.0,6.0,335.5413210001643,8.0,0.0,part_2,stop,1000.0,800.0,3.0,,,,,,,,,white,circle
0.0,1.0,1.0,0.0,5.0,5.0,532.6357709991498,8.0,0.0,part_2,go,1000.0,750.0,1.0,,,,,,,,,green,flipped triangle
0.0,7.0,3.0,1.0,6.0,6.0,420.3117549996022,8.0,0.0,part_2,stop,1000.0,750.0,3.0,,,,,,,,,cyan,square
0.0,5.0,1.0,1.0,5.0,0.0,0.0,8.0,0.0,part_2,stop,1000.0,700.0,4.0,,,,,,,,,yellow,diamond
0.0,5.0,1.0,1.0,5.0,5.0,1084.2736820004577,8.0,0.0,part_2,stop,1050.0,700.0,3.0,,,,,,,,,yellow,diamond
0.0,7.0,3.0,1.0,5.0,5.0,1341.3771909999923,8.0,0.0,part_2,go,1000.0,700.0,1.0,,,,,,,,,cyan,square
0.0,4.0,4.0,0.0,6.0,6.0,494.5073070002763,8.0,0.0,part_2,go,1000.0,700.0,1.0,,,,,,,,,gray,cross
0.0,2.0,2.0,0.0,6.0,6.0,558.1497270004547,8.0,0.0,part_2,go,1000.0,700.0,1.0,,,,,,,,,blue,triangle
0.0,2.0,2.0,0.0,6.0,6.0,373.2055300006323,8.0,0.0,part_2,go,1000.0,700.0,1.0,,,,,,,,,blue,triangle
0.0,3.0,3.0,0.0,6.0,6.0,483.8452560006772,8.0,0.0,part_2,go,1000.0,700.0,1.0,,,,,,,,,orange,I
0.0,1.0,1.0,0.0,6.0,6.0,513.1301579995124,8.0,0.0,part_2,go,1000.0,700.0,1.0,,,,,,,,,green,flipped triangle
0.0,6.0,2.0,1.0,6.0,6.0,1390.461920999769,8.0,0.0,part_2,go,1000.0,700.0,1.0,,,,,,,,,magenta,hexagon
0.0,7.0,3.0,1.0,5.0,5.0,1122.6657229999546,8.0,0.0,part_2,stop,1000.0,700.0,3.0,,,,,,,,,cyan,square
0.0,2.0,2.0,0.0,6.0,6.0,551.045422000243,8.0,0.0,part_2,go,950.0,700.0,1.0,,,,,,,,,blue,triangle
0.0,8.0,4.0,1.0,5.0,0.0,0.0,8.0,0.0,part_2,stop,950.0,700.0,4.0,,,,,,,,,white,circle
0.0,3.0,3.0,0.0,6.0,6.0,559.3737310000506,8.0,0.0,part_2,go,1000.0,700.0,1.0,,,,,,,,,orange,I
0.0,3.0,3.0,0.0,6.0,6.0,373.6857359999703,8.0,0.0,part_2,go,1000.0,700.0,1.0,,,,,,,,,orange,I
0.0,8.0,4.0,1.0,6.0,6.0,1110.0627410005472,8.0,0.0,part_2,go,1000.0,700.0,1.0,,,,,,,,,white,circle
0.0,7.0,3.0,1.0,5.0,5.0,1163.5848779997104,8.0,0.0,part_2,go,1000.0,700.0,1.0,,,,,,,,,cyan,square
0.0,3.0,3.0,0.0,6.0,6.0,382.6197890002731,8.0,0.0,part_2,go,1000.0,700.0,1.0,,,,,,,,,orange,I
0.0,6.0,2.0,1.0,5.0,0.0,0.0,8.0,0.0,part_2,stop,1000.0,700.0,4.0,,,,,,,,,magenta,hexagon
0.0,7.0,3.0,1.0,6.0,0.0,0.0,8.0,0.0,part_2,stop,1050.0,700.0,4.0,,,,,,,,,cyan,square
0.0,5.0,1.0,1.0,6.0,6.0,1240.3173109996717,8.0,0.0,part_2,go,1050.0,750.0,1.0,,,,,,,,,yellow,diamond
0.0,1.0,1.0,0.0,5.0,5.0,541.5402769995126,8.0,0.0,part_2,go,1050.0,750.0,1.0,,,,,,,,,green,flipped triangle
0.0,8.0,4.0,1.0,5.0,5.0,540.1897410001766,8.0,0.0,part_2,stop,1050.0,750.0,3.0,,,,,,,,,white,circle
0.0,5.0,1.0,1.0,5.0,0.0,0.0,8.0,0.0,part_2,stop,1000.0,750.0,4.0,,,,,,,,,yellow,diamond
0.0,1.0,1.0,0.0,6.0,6.0,514.0942570005791,8.0,0.0,part_2,go,1050.0,750.0,1.0,,,,,,,,,green,flipped triangle
0.0,2.0,2.0,0.0,5.0,5.0,573.4685149991492,8.0,0.0,part_2,go,1050.0,750.0,1.0,,,,,,,,,blue,triangle
0.0,1.0,1.0,0.0,5.0,5.0,550.9455510000407,8.0,0.0,part_2,go,1050.0,750.0,1.0,,,,,,,,,green,flipped triangle
0.0,1.0,1.0,0.0,6.0,6.0,420.2940830000443,8.0,0.0,part_2,go,1050.0,750.0,1.0,,,,,,,,,green,flipped triangle
0.0,5.0,1.0,1.0,7.0,6.0,2994.2980360001457,1.0,1.0,part_3,go,0.0,0.0,0.0,692.0,4.0,865.0,346.0,173.0,519.0,1038.0,692.0,yellow,diamond
0.0,2.0,2.0,0.0,7.0,1.0,1507.9309630000353,1.0,1.0,part_3,go,0.0,0.0,0.0,770.0,5.0,770.0,462.0,924.0,616.0,308.0,154.0,blue,triangle
0.0,1.0,1.0,0.0,7.0,4.0,4016.034070000387,1.0,1.0,part_3,go,0.0,0.0,0.0,462.0,3.0,924.0,616.0,308.0,462.0,154.0,770.0,green,flipped triangle
0.0,6.0,2.0,1.0,7.0,4.0,3247.4680750001426,1.0,1.0,part_3,go,0.0,0.0,0.0,1152.0,6.0,768.0,576.0,960.0,1152.0,384.0,192.0,magenta,hexagon
0.0,6.0,2.0,1.0,7.0,2.0,2014.213617999303,1.0,1.0,part_3,go,0.0,0.0,0.0,1038.0,6.0,865.0,1038.0,692.0,519.0,346.0,173.0,magenta,hexagon
0.0,4.0,4.0,0.0,7.0,4.0,3575.4640010000003,1.0,1.0,part_3,go,0.0,0.0,0.0,232.0,2.0,696.0,464.0,348.0,232.0,116.0,580.0,gray,cross
0.0,3.0,3.0,0.0,7.0,6.0,2870.8202490006443,1.0,1.0,part_3,go,0.0,0.0,0.0,464.0,4.0,116.0,580.0,348.0,696.0,232.0,464.0,orange,I
0.0,2.0,2.0,0.0,7.0,2.0,2792.5299090002227,1.0,1.0,part_3,go,0.0,0.0,0.0,770.0,5.0,154.0,770.0,924.0,308.0,462.0,616.0,blue,triangle
0.0,1.0,1.0,0.0,7.0,5.0,3357.696973000202,1.0,1.0,part_3,go,0.0,0.0,0.0,696.0,6.0,116.0,580.0,464.0,232.0,696.0,348.0,green,flipped triangle
0.0,5.0,1.0,1.0,7.0,3.0,2791.356450999956,1.0,1.0,part_3,go,0.0,0.0,0.0,232.0,2.0,580.0,116.0,232.0,696.0,464.0,348.0,yellow,diamond
0.0,6.0,2.0,1.0,7.0,5.0,2044.426612999814,1.0,1.0,part_3,go,0.0,0.0,0.0,810.0,6.0,675.0,405.0,270.0,540.0,810.0,135.0,magenta,hexagon
0.0,8.0,4.0,1.0,7.0,1.0,2269.793679999566,1.0,1.0,part_3,go,0.0,0.0,0.0,580.0,5.0,580.0,464.0,116.0,232.0,696.0,348.0,white,circle
0.0,5.0,1.0,1.0,7.0,6.0,1655.1849529996616,1.0,1.0,part_3,go,0.0,0.0,0.0,232.0,2.0,464.0,580.0,116.0,348.0,696.0,232.0,yellow,diamond
0.0,6.0,2.0,1.0,7.0,5.0,2055.8623090000765,1.0,1.0,part_3,go,0.0,0.0,0.0,924.0,6.0,154.0,616.0,462.0,308.0,924.0,770.0,magenta,hexagon
0.0,3.0,3.0,0.0,7.0,4.0,1986.3962979998175,1.0,1.0,part_3,go,0.0,0.0,0.0,1038.0,6.0,865.0,173.0,692.0,1038.0,346.0,519.0,orange,I
0.0,7.0,3.0,1.0,7.0,3.0,3388.8233959996796,1.0,1.0,part_3,go,0.0,0.0,0.0,576.0,3.0,1152.0,384.0,576.0,192.0,960.0,768.0,cyan,square
0.0,4.0,4.0,0.0,7.0,1.0,2893.074378000165,1.0,1.0,part_3,go,0.0,0.0,0.0,616.0,4.0,616.0,924.0,462.0,308.0,770.0,154.0,gray,cross
0.0,7.0,3.0,1.0,7.0,5.0,1990.392239999892,1.0,1.0,part_3,go,0.0,0.0,0.0,519.0,3.0,1038.0,865.0,173.0,692.0,519.0,346.0,cyan,square
0.0,2.0,2.0,0.0,7.0,1.0,2110.142257000007,1.0,1.0,part_3,go,0.0,0.0,0.0,810.0,6.0,810.0,270.0,675.0,135.0,540.0,405.0,blue,triangle
0.0,6.0,2.0,1.0,7.0,2.0,1455.1671039998837,1.0,1.0,part_3,go,0.0,0.0,0.0,1152.0,6.0,192.0,1152.0,960.0,384.0,768.0,576.0,magenta,hexagon
0.0,4.0,4.0,0.0,7.0,2.0,1345.7293779993051,2.0,1.0,part_3,go,0.0,0.0,0.0,1038.0,6.0,173.0,1038.0,519.0,692.0,346.0,865.0,gray,cross
0.0,6.0,2.0,1.0,7.0,5.0,1206.1481629998525,2.0,1.0,part_3,go,0.0,0.0,0.0,1038.0,6.0,692.0,865.0,173.0,519.0,1038.0,346.0,magenta,hexagon
0.0,8.0,4.0,1.0,7.0,5.0,1518.3768829992914,2.0,1.0,part_3,go,0.0,0.0,0.0,924.0,6.0,154.0,308.0,770.0,462.0,924.0,616.0,white,circle
0.0,4.0,4.0,0.0,7.0,1.0,1168.9905359999102,2.0,1.0,part_3,go,0.0,0.0,0.0,810.0,6.0,810.0,405.0,540.0,270.0,675.0,135.0,gray,cross
0.0,7.0,3.0,1.0,7.0,4.0,2119.0662019998854,2.0,1.0,part_3,go,0.0,0.0,0.0,540.0,4.0,405.0,810.0,135.0,540.0,270.0,675.0,cyan,square
0.0,4.0,4.0,0.0,7.0,6.0,2122.550254000089,2.0,1.0,part_3,go,0.0,0.0,0.0,696.0,6.0,116.0,232.0,348.0,464.0,580.0,696.0,gray,cross
0.0,5.0,1.0,1.0,7.0,1.0,1469.765568999719,2.0,1.0,part_3,go,0.0,0.0,0.0,384.0,2.0,384.0,960.0,768.0,1152.0,576.0,192.0,yellow,diamond
0.0,8.0,4.0,1.0,7.0,1.0,2096.0696459997052,2.0,1.0,part_3,go,0.0,0.0,0.0,1038.0,6.0,1038.0,692.0,173.0,519.0,346.0,865.0,white,circle
0.0,8.0,4.0,1.0,7.0,1.0,1299.936395000259,2.0,1.0,part_3,go,0.0,0.0,0.0,924.0,6.0,924.0,462.0,770.0,308.0,154.0,616.0,white,circle
0.0,5.0,1.0,1.0,7.0,3.0,3016.24781099963,2.0,1.0,part_3,go,0.0,0.0,0.0,405.0,3.0,675.0,135.0,405.0,540.0,270.0,810.0,yellow,diamond
0.0,8.0,4.0,1.0,7.0,6.0,1666.4885840000352,2.0,1.0,part_3,go,0.0,0.0,0.0,675.0,5.0,270.0,810.0,405.0,540.0,135.0,675.0,white,circle
0.0,7.0,3.0,1.0,7.0,4.0,2054.5372090000456,2.0,1.0,part_3,go,0.0,0.0,0.0,346.0,2.0,173.0,865.0,519.0,346.0,692.0,1038.0,cyan,square
0.0,2.0,2.0,0.0,7.0,3.0,2819.0708700003597,2.0,1.0,part_3,go,0.0,0.0,0.0,692.0,4.0,865.0,173.0,692.0,346.0,1038.0,519.0,blue,triangle
0.0,2.0,2.0,0.0,7.0,3.0,1454.1008070000316,2.0,1.0,part_3,go,0.0,0.0,0.0,519.0,3.0,173.0,865.0,519.0,1038.0,692.0,346.0,blue,triangle
0.0,5.0,1.0,1.0,7.0,4.0,1972.907516000305,2.0,1.0,part_3,go,0.0,0.0,0.0,616.0,4.0,462.0,770.0,308.0,616.0,154.0,924.0,yellow,diamond
0.0,3.0,3.0,0.0,7.0,1.0,1757.6050729994677,2.0,1.0,part_3,go,0.0,0.0,0.0,696.0,6.0,696.0,464.0,116.0,580.0,232.0,348.0,orange,I
0.0,3.0,3.0,0.0,7.0,6.0,1853.0876679997164,2.0,1.0,part_3,go,0.0,0.0,0.0,768.0,4.0,960.0,192.0,384.0,576.0,1152.0,768.0,orange,I
0.0,2.0,2.0,0.0,7.0,3.0,2400.5487109998285,2.0,1.0,part_3,go,0.0,0.0,0.0,384.0,2.0,576.0,768.0,384.0,960.0,1152.0,192.0,blue,triangle
0.0,4.0,4.0,0.0,7.0,6.0,1462.0335390000037,2.0,1.0,part_3,go,0.0,0.0,0.0,1038.0,6.0,692.0,865.0,346.0,519.0,173.0,1038.0,gray,cross
0.0,2.0,2.0,0.0,7.0,6.0,1890.8047039994929,2.0,1.0,part_3,go,0.0,0.0,0.0,384.0,2.0,768.0,576.0,1152.0,960.0,192.0,384.0,blue,triangle
0.0,3.0,3.0,0.0,7.0,6.0,1836.628727999596,3.0,1.0,part_3,go,0.0,0.0,0.0,810.0,6.0,540.0,405.0,135.0,270.0,675.0,810.0,orange,I
0.0,3.0,3.0,0.0,7.0,1.0,1467.5195310001072,3.0,1.0,part_3,go,0.0,0.0,0.0,810.0,6.0,810.0,135.0,405.0,270.0,540.0,675.0,orange,I
0.0,1.0,1.0,0.0,7.0,4.0,3276.061182000376,3.0,1.0,part_3,go,0.0,0.0,0.0,696.0,6.0,116.0,232.0,348.0,696.0,580.0,464.0,green,flipped triangle
0.0,1.0,1.0,0.0,7.0,4.0,1094.252378999954,3.0,1.0,part_3,go,0.0,0.0,0.0,768.0,4.0,192.0,1152.0,576.0,768.0,384.0,960.0,green,flipped triangle
0.0,5.0,1.0,1.0,7.0,6.0,2943.656207999993,3.0,1.0,part_3,go,0.0,0.0,0.0,405.0,3.0,675.0,540.0,135.0,270.0,810.0,405.0,yellow,diamond
0.0,1.0,1.0,0.0,7.0,1.0,1520.6498429997737,3.0,1.0,part_3,go,0.0,0.0,0.0,675.0,5.0,675.0,405.0,540.0,135.0,270.0,810.0,green,flipped triangle
0.0,6.0,2.0,1.0,7.0,5.0,3040.0528689997373,3.0,1.0,part_3,go,0.0,0.0,0.0,348.0,3.0,116.0,580.0,464.0,232.0,348.0,696.0,magenta,hexagon
0.0,8.0,4.0,1.0,7.0,2.0,1424.168534999808,3.0,1.0,part_3,go,0.0,0.0,0.0,1038.0,6.0,346.0,1038.0,865.0,519.0,173.0,692.0,white,circle
0.0,8.0,4.0,1.0,7.0,5.0,2687.6537620000818,3.0,1.0,part_3,go,0.0,0.0,0.0,696.0,6.0,116.0,232.0,580.0,464.0,696.0,348.0,white,circle
0.0,7.0,3.0,1.0,7.0,1.0,2164.421376000064,3.0,1.0,part_3,go,0.0,0.0,0.0,464.0,4.0,464.0,232.0,696.0,116.0,348.0,580.0,cyan,square
0.0,3.0,3.0,0.0,7.0,5.0,1749.5628420001594,3.0,1.0,part_3,go,0.0,0.0,0.0,616.0,4.0,154.0,770.0,308.0,462.0,616.0,924.0,orange,I
0.0,4.0,4.0,0.0,7.0,1.0,1817.6406040001891,3.0,1.0,part_3,go,0.0,0.0,0.0,675.0,5.0,675.0,810.0,135.0,270.0,540.0,405.0,gray,cross
0.0,7.0,3.0,1.0,7.0,5.0,1861.838814999828,3.0,1.0,part_3,go,0.0,0.0,0.0,308.0,2.0,154.0,924.0,770.0,462.0,308.0,616.0,cyan,square
0.0,8.0,4.0,1.0,7.0,6.0,1251.1270349996266,3.0,1.0,part_3,go,0.0,0.0,0.0,1152.0,6.0,576.0,192.0,960.0,768.0,384.0,1152.0,white,circle
0.0,4.0,4.0,0.0,7.0,2.0,2356.6443770005208,3.0,1.0,part_3,go,0.0,0.0,0.0,924.0,6.0,462.0,924.0,770.0,616.0,308.0,154.0,gray,cross
0.0,2.0,2.0,0.0,7.0,5.0,1898.03871300046,3.0,1.0,part_3,go,0.0,0.0,0.0,580.0,5.0,232.0,464.0,696.0,116.0,580.0,348.0,blue,triangle
0.0,5.0,1.0,1.0,7.0,1.0,1972.6736439997696,3.0,1.0,part_3,go,0.0,0.0,0.0,308.0,2.0,308.0,924.0,154.0,770.0,462.0,616.0,yellow,diamond
0.0,3.0,3.0,0.0,7.0,5.0,3200.7231049992697,3.0,1.0,part_3,go,0.0,0.0,0.0,924.0,6.0,616.0,154.0,308.0,770.0,924.0,462.0,orange,I
0.0,1.0,1.0,0.0,7.0,2.0,1212.4053279994769,3.0,1.0,part_3,go,0.0,0.0,0.0,1152.0,6.0,192.0,1152.0,576.0,960.0,768.0,384.0,green,flipped triangle
0.0,7.0,3.0,1.0,7.0,2.0,2507.850343999962,3.0,1.0,part_3,go,0.0,0.0,0.0,576.0,3.0,384.0,576.0,768.0,1152.0,192.0,960.0,cyan,square
0.0,2.0,2.0,0.0,7.0,3.0,2550.795059999473,4.0,1.0,part_3,go,0.0,0.0,0.0,810.0,6.0,270.0,405.0,810.0,675.0,135.0,540.0,blue,triangle
0.0,6.0,2.0,1.0,7.0,5.0,2323.3919619997323,4.0,1.0,part_3,go,0.0,0.0,0.0,696.0,6.0,348.0,464.0,580.0,232.0,696.0,116.0,magenta,hexagon
0.0,3.0,3.0,0.0,7.0,3.0,2431.510266999794,4.0,1.0,part_3,go,0.0,0.0,0.0,1152.0,6.0,192.0,576.0,1152.0,960.0,768.0,384.0,orange,I
0.0,1.0,1.0,0.0,7.0,3.0,1146.5465379997113,4.0,1.0,part_3,go,0.0,0.0,0.0,1038.0,6.0,865.0,519.0,1038.0,346.0,173.0,692.0,green,flipped triangle
0.0,5.0,1.0,1.0,7.0,5.0,1859.2413859996668,4.0,1.0,part_3,go,0.0,0.0,0.0,576.0,3.0,192.0,960.0,768.0,384.0,576.0,1152.0,yellow,diamond
0.0,8.0,4.0,1.0,7.0,5.0,2181.7568559999927,4.0,1.0,part_3,go,0.0,0.0,0.0,810.0,6.0,270.0,135.0,540.0,405.0,810.0,675.0,white,circle
0.0,8.0,4.0,1.0,7.0,6.0,2277.385501000026,4.0,1.0,part_3,go,0.0,0.0,0.0,1152.0,6.0,576.0,384.0,960.0,768.0,192.0,1152.0,white,circle
0.0,5.0,1.0,1.0,7.0,1.0,2718.916431999787,4.0,1.0,part_3,go,0.0,0.0,0.0,346.0,2.0,346.0,173.0,519.0,1038.0,865.0,692.0,yellow,diamond
0.0,1.0,1.0,0.0,7.0,2.0,1343.085112999688,4.0,1.0,part_3,go,0.0,0.0,0.0,865.0,5.0,692.0,865.0,346.0,173.0,519.0,1038.0,green,flipped triangle
0.0,7.0,3.0,1.0,7.0,1.0,2077.435688999685,4.0,1.0,part_3,go,0.0,0.0,0.0,616.0,4.0,616.0,924.0,308.0,462.0,770.0,154.0,cyan,square
0.0,2.0,2.0,0.0,7.0,6.0,3336.8186640000204,4.0,1.0,part_3,go,0.0,0.0,0.0,580.0,5.0,232.0,464.0,696.0,116.0,348.0,580.0,blue,triangle
0.0,1.0,1.0,0.0,7.0,5.0,2322.735341000225,4.0,1.0,part_3,go,0.0,0.0,0.0,810.0,6.0,540.0,135.0,675.0,405.0,810.0,270.0,green,flipped triangle
0.0,6.0,2.0,1.0,7.0,1.0,1203.7925320000795,4.0,1.0,part_3,go,0.0,0.0,0.0,770.0,5.0,770.0,924.0,154.0,462.0,616.0,308.0,magenta,hexagon
0.0,7.0,3.0,1.0,7.0,2.0,2843.541191999975,4.0,1.0,part_3,go,0.0,0.0,0.0,540.0,4.0,810.0,540.0,270.0,675.0,135.0,405.0,cyan,square
0.0,4.0,4.0,0.0,7.0,6.0,1139.6300439992046,4.0,1.0,part_3,go,0.0,0.0,0.0,1152.0,6.0,384.0,960.0,192.0,768.0,576.0,1152.0,gray,cross
0.0,6.0,2.0,1.0,7.0,1.0,2910.957285999757,4.0,1.0,part_3,go,0.0,0.0,0.0,810.0,6.0,810.0,675.0,405.0,135.0,270.0,540.0,magenta,hexagon
0.0,7.0,3.0,1.0,7.0,2.0,2102.680515999964,4.0,1.0,part_3,go,0.0,0.0,0.0,348.0,3.0,116.0,348.0,580.0,464.0,232.0,696.0,cyan,square
0.0,4.0,4.0,0.0,7.0,1.0,1083.1526769998163,4.0,1.0,part_3,go,0.0,0.0,0.0,1152.0,6.0,1152.0,768.0,192.0,576.0,960.0,384.0,gray,cross
0.0,1.0,1.0,0.0,7.0,5.0,1299.4076229997518,4.0,1.0,part_3,go,0.0,0.0,0.0,924.0,6.0,616.0,308.0,154.0,770.0,924.0,462.0,green,flipped triangle
0.0,3.0,3.0,0.0,7.0,3.0,3036.9278540001687,4.0,1.0,part_3,go,0.0,0.0,0.0,1038.0,6.0,865.0,346.0,1038.0,519.0,173.0,692.0,orange,I
