raw_reward_magnitude,stim_reward,stepwise_reward_magnitude,paired_with_stopping,stim_location,response,reaction_time,block,num_trial_presentations,which_phase,stop_signal_trial_type,left_SSD,right_SSD,accuracy,chosen_bidding_amount,chosen_bidding_level,possible_bid_1,possible_bid_2,possible_bid_3,possible_bid_4,possible_bid_5,possible_bid_6,color_text,shape_text
148.0,1.0,1.0,0.0,3.0,3.0,412.28534999982,1.0,1.0,phase_1,,,,,,,,,,,,,blue,flipped triangle
633.0,7.0,3.0,1.0,4.0,4.0,346.8963999998777,1.0,1.0,phase_1,,,,,,,,,,,,,orange,triangle
324.0,6.0,2.0,1.0,2.0,2.0,291.4835579999817,1.0,1.0,phase_1,,,,,,,,,,,,,yellow,square
300.0,6.0,2.0,1.0,1.0,1.0,374.3324030001531,1.0,1.0,phase_1,,,,,,,,,,,,,yellow,square
327.0,6.0,2.0,1.0,4.0,4.0,357.0087540001623,1.0,1.0,phase_1,,,,,,,,,,,,,yellow,square
0.0,5.0,0.0,1.0,1.0,1.0,358.2167399999889,1.0,1.0,phase_1,,,,,,,,,,,,,white,hexagon
1288.0,8.0,4.0,1.0,3.0,3.0,319.435219999832,1.0,1.0,phase_1,,,,,,,,,,,,,gray,circle
663.0,3.0,3.0,0.0,1.0,1.0,329.1681609998704,1.0,1.0,phase_1,,,,,,,,,,,,,green,cross
326.0,6.0,2.0,1.0,1.0,1.0,432.5911050000286,1.0,1.0,phase_1,,,,,,,,,,,,,yellow,square
151.0,5.0,1.0,1.0,4.0,4.0,481.0375580000254,1.0,1.0,phase_1,,,,,,,,,,,,,white,hexagon
170.0,5.0,1.0,1.0,4.0,4.0,323.5053189996506,1.0,2.0,phase_1,,,,,,,,,,,,,white,hexagon
661.0,7.0,3.0,1.0,3.0,3.0,355.5509390002953,1.0,1.0,phase_1,,,,,,,,,,,,,orange,triangle
0.0,7.0,0.0,1.0,4.0,4.0,346.3324889999057,1.0,1.0,phase_1,,,,,,,,,,,,,orange,triangle
0.0,3.0,0.0,0.0,2.0,2.0,401.6511849999915,1.0,1.0,phase_1,,,,,,,,,,,,,green,cross
1281.0,8.0,4.0,1.0,2.0,2.0,441.155240000171,1.0,1.0,phase_1,,,,,,,,,,,,,gray,circle
671.0,7.0,3.0,1.0,4.0,4.0,299.0167749999273,1.0,1.0,phase_1,,,,,,,,,,,,,orange,triangle
165.0,1.0,1.0,0.0,3.0,3.0,308.8155959999312,1.0,1.0,phase_1,,,,,,,,,,,,,blue,flipped triangle
1294.0,4.0,4.0,0.0,1.0,1.0,347.1471230000134,1.0,1.0,phase_1,,,,,,,,,,,,,cyan,I
0.0,8.0,0.0,1.0,2.0,2.0,355.8678280001004,1.0,1.0,phase_1,,,,,,,,,,,,,gray,circle
643.0,3.0,3.0,0.0,2.0,2.0,402.0120410000345,1.0,1.0,phase_1,,,,,,,,,,,,,green,cross
306.0,2.0,2.0,0.0,2.0,2.0,347.3658119996798,1.0,1.0,phase_1,,,,,,,,,,,,,magenta,diamond
177.0,5.0,1.0,1.0,4.0,4.0,357.5649489998795,1.0,1.0,phase_1,,,,,,,,,,,,,white,hexagon
0.0,2.0,0.0,0.0,2.0,2.0,346.7937699997492,1.0,1.0,phase_1,,,,,,,,,,,,,magenta,diamond
1318.0,8.0,4.0,1.0,1.0,1.0,368.8668940003481,1.0,1.0,phase_1,,,,,,,,,,,,,gray,circle
1312.0,4.0,4.0,0.0,2.0,2.0,309.0309530002741,1.0,1.0,phase_1,,,,,,,,,,,,,cyan,I
660.0,3.0,3.0,0.0,3.0,3.0,368.4932790001767,1.0,1.0,phase_1,,,,,,,,,,,,,green,cross
168.0,1.0,1.0,0.0,3.0,3.0,363.5466719997566,1.0,1.0,phase_1,,,,,,,,,,,,,blue,flipped triangle
0.0,3.0,0.0,0.0,3.0,3.0,280.9737930001574,1.0,1.0,phase_1,,,,,,,,,,,,,green,cross
347.0,2.0,2.0,0.0,2.0,2.0,376.0439540001243,1.0,2.0,phase_1,,,,,,,,,,,,,magenta,diamond
317.0,2.0,2.0,0.0,4.0,4.0,412.8344060000017,1.0,1.0,phase_1,,,,,,,,,,,,,magenta,diamond
157.0,1.0,1.0,0.0,2.0,2.0,319.5909389996814,1.0,1.0,phase_1,,,,,,,,,,,,,blue,flipped triangle
1325.0,8.0,4.0,1.0,1.0,1.0,394.925542999772,1.0,1.0,phase_1,,,,,,,,,,,,,gray,circle
312.0,6.0,2.0,1.0,3.0,3.0,301.6338719999112,1.0,1.0,phase_1,,,,,,,,,,,,,yellow,square
175.0,1.0,1.0,0.0,4.0,4.0,321.1851620003472,1.0,1.0,phase_1,,,,,,,,,,,,,blue,flipped triangle
178.0,5.0,1.0,1.0,4.0,4.0,489.4932769998377,1.0,1.0,phase_1,,,,,,,,,,,,,white,hexagon
1291.0,4.0,4.0,0.0,2.0,2.0,385.1164780003273,1.0,1.0,phase_1,,,,,,,,,,,,,cyan,I
0.0,6.0,0.0,1.0,1.0,1.0,339.5824720000746,1.0,1.0,phase_1,,,,,,,,,,,,,yellow,square
1322.0,4.0,4.0,0.0,4.0,4.0,385.3782169999249,1.0,1.0,phase_1,,,,,,,,,,,,,cyan,I
336.0,2.0,2.0,0.0,3.0,3.0,337.0125510000434,1.0,1.0,phase_1,,,,,,,,,,,,,magenta,diamond
169.0,5.0,1.0,1.0,1.0,1.0,348.3624310001687,1.0,1.0,phase_1,,,,,,,,,,,,,white,hexagon
183.0,5.0,1.0,1.0,1.0,1.0,375.8477540000058,1.0,1.0,phase_1,,,,,,,,,,,,,white,hexagon
0.0,8.0,0.0,1.0,2.0,2.0,346.9385729999885,1.0,1.0,phase_1,,,,,,,,,,,,,gray,circle
320.0,2.0,2.0,0.0,4.0,4.0,347.1741970001858,1.0,1.0,phase_1,,,,,,,,,,,,,magenta,diamond
1305.0,8.0,4.0,1.0,3.0,3.0,321.9833579996702,1.0,1.0,phase_1,,,,,,,,,,,,,gray,circle
0.0,6.0,0.0,1.0,3.0,3.0,294.8409629998423,1.0,1.0,phase_1,,,,,,,,,,,,,yellow,square
1297.0,4.0,4.0,0.0,3.0,3.0,357.4170829997456,1.0,1.0,phase_1,,,,,,,,,,,,,cyan,I
177.0,5.0,1.0,1.0,4.0,4.0,338.2571540000754,1.0,1.0,phase_1,,,,,,,,,,,,,white,hexagon
656.0,3.0,3.0,0.0,2.0,2.0,432.3696960000234,1.0,3.0,phase_1,,,,,,,,,,,,,green,cross
0.0,1.0,0.0,0.0,2.0,2.0,349.5650539998678,1.0,1.0,phase_1,,,,,,,,,,,,,blue,flipped triangle
0.0,6.0,0.0,1.0,2.0,2.0,309.970052999688,1.0,1.0,phase_1,,,,,,,,,,,,,yellow,square
0.0,5.0,0.0,1.0,3.0,3.0,292.007096999896,1.0,1.0,phase_1,,,,,,,,,,,,,white,hexagon
0.0,4.0,0.0,0.0,2.0,2.0,329.8274939998009,1.0,1.0,phase_1,,,,,,,,,,,,,cyan,I
303.0,2.0,2.0,0.0,3.0,3.0,292.8907310001705,1.0,2.0,phase_1,,,,,,,,,,,,,magenta,diamond
146.0,1.0,1.0,0.0,1.0,1.0,375.9207640000568,1.0,2.0,phase_1,,,,,,,,,,,,,blue,flipped triangle
0.0,8.0,0.0,1.0,3.0,3.0,300.1710640000965,1.0,1.0,phase_1,,,,,,,,,,,,,gray,circle
1323.0,8.0,4.0,1.0,4.0,4.0,403.3840060001239,1.0,1.0,phase_1,,,,,,,,,,,,,gray,circle
0.0,5.0,0.0,1.0,3.0,3.0,311.8180370001937,1.0,1.0,phase_1,,,,,,,,,,,,,white,hexagon
0.0,5.0,0.0,1.0,3.0,3.0,328.9401709998856,1.0,1.0,phase_1,,,,,,,,,,,,,white,hexagon
303.0,6.0,2.0,1.0,3.0,3.0,309.7564439999587,1.0,1.0,phase_1,,,,,,,,,,,,,yellow,square
0.0,2.0,0.0,0.0,4.0,4.0,384.4367459996647,1.0,1.0,phase_1,,,,,,,,,,,,,magenta,diamond
0.0,3.0,0.0,0.0,3.0,3.0,385.7680380001511,1.0,1.0,phase_1,,,,,,,,,,,,,green,cross
0.0,7.0,0.0,1.0,1.0,1.0,402.4311349999152,1.0,2.0,phase_1,,,,,,,,,,,,,orange,triangle
326.0,2.0,2.0,0.0,1.0,1.0,349.3900219996249,1.0,1.0,phase_1,,,,,,,,,,,,,magenta,diamond
169.0,5.0,1.0,1.0,4.0,4.0,320.1639640001303,1.0,1.0,phase_1,,,,,,,,,,,,,white,hexagon
1291.0,8.0,4.0,1.0,2.0,2.0,374.8429410002245,1.0,1.0,phase_1,,,,,,,,,,,,,gray,circle
0.0,4.0,0.0,0.0,4.0,4.0,309.6553309997034,1.0,1.0,phase_1,,,,,,,,,,,,,cyan,I
0.0,7.0,0.0,1.0,3.0,3.0,281.8684779999785,1.0,1.0,phase_1,,,,,,,,,,,,,orange,triangle
671.0,3.0,3.0,0.0,1.0,1.0,328.5834970001815,1.0,1.0,phase_1,,,,,,,,,,,,,green,cross
1290.0,8.0,4.0,1.0,4.0,4.0,356.3735600000655,1.0,1.0,phase_1,,,,,,,,,,,,,gray,circle
335.0,6.0,2.0,1.0,4.0,4.0,348.1034320002436,1.0,2.0,phase_1,,,,,,,,,,,,,yellow,square
0.0,7.0,0.0,1.0,2.0,2.0,337.1270610000465,1.0,1.0,phase_1,,,,,,,,,,,,,orange,triangle
1320.0,8.0,4.0,1.0,3.0,3.0,282.3848729999554,1.0,1.0,phase_1,,,,,,,,,,,,,gray,circle
155.0,1.0,1.0,0.0,2.0,2.0,337.893842000085,1.0,1.0,phase_1,,,,,,,,,,,,,blue,flipped triangle
663.0,7.0,3.0,1.0,1.0,1.0,348.1733330004317,1.0,1.0,phase_1,,,,,,,,,,,,,orange,triangle
0.0,7.0,0.0,1.0,3.0,3.0,329.1895239999576,1.0,1.0,phase_1,,,,,,,,,,,,,orange,triangle
636.0,3.0,3.0,0.0,3.0,3.0,310.1181399997585,1.0,1.0,phase_1,,,,,,,,,,,,,green,cross
0.0,1.0,0.0,0.0,3.0,3.0,284.8634039996796,1.0,1.0,phase_1,,,,,,,,,,,,,blue,flipped triangle
643.0,7.0,3.0,1.0,2.0,2.0,309.140540000044,1.0,1.0,phase_1,,,,,,,,,,,,,orange,triangle
651.0,3.0,3.0,0.0,1.0,1.0,336.9187849998525,1.0,1.0,phase_1,,,,,,,,,,,,,green,cross
1278.0,4.0,4.0,0.0,2.0,2.0,347.5785939999696,1.0,2.0,phase_1,,,,,,,,,,,,,cyan,I
1322.0,8.0,4.0,1.0,1.0,1.0,281.2024749996453,1.0,1.0,phase_1,,,,,,,,,,,,,gray,circle
1302.0,8.0,4.0,1.0,2.0,2.0,337.4220340001557,1.0,1.0,phase_1,,,,,,,,,,,,,gray,circle
1294.0,4.0,4.0,0.0,3.0,3.0,394.9836110000433,1.0,1.0,phase_1,,,,,,,,,,,,,cyan,I
1281.0,4.0,4.0,0.0,3.0,3.0,337.1779409999362,1.0,1.0,phase_1,,,,,,,,,,,,,cyan,I
312.0,6.0,2.0,1.0,2.0,2.0,338.0219659998147,1.0,1.0,phase_1,,,,,,,,,,,,,yellow,square
637.0,3.0,3.0,0.0,2.0,2.0,318.1741210000837,1.0,2.0,phase_1,,,,,,,,,,,,,green,cross
302.0,6.0,2.0,1.0,2.0,2.0,272.1044959998835,1.0,1.0,phase_1,,,,,,,,,,,,,yellow,square
329.0,2.0,2.0,0.0,1.0,1.0,412.8690210000059,1.0,1.0,phase_1,,,,,,,,,,,,,magenta,diamond
324.0,2.0,2.0,0.0,4.0,4.0,421.7573030000494,1.0,1.0,phase_1,,,,,,,,,,,,,magenta,diamond
319.0,6.0,2.0,1.0,1.0,1.0,280.5956960000912,1.0,1.0,phase_1,,,,,,,,,,,,,yellow,square
1288.0,4.0,4.0,0.0,1.0,1.0,385.5065729999296,1.0,1.0,phase_1,,,,,,,,,,,,,cyan,I
336.0,2.0,2.0,0.0,2.0,2.0,384.7498920004,1.0,1.0,phase_1,,,,,,,,,,,,,magenta,diamond
345.0,2.0,2.0,0.0,2.0,2.0,365.6948709999597,1.0,1.0,phase_1,,,,,,,,,,,,,magenta,diamond
172.0,5.0,1.0,1.0,1.0,1.0,451.5801810002813,1.0,1.0,phase_1,,,,,,,,,,,,,white,hexagon
0.0,6.0,0.0,1.0,1.0,1.0,337.4716379998972,1.0,1.0,phase_1,,,,,,,,,,,,,yellow,square
311.0,6.0,2.0,1.0,1.0,1.0,300.474357999974,1.0,1.0,phase_1,,,,,,,,,,,,,yellow,square
626.0,7.0,3.0,1.0,2.0,2.0,364.292652000131,1.0,1.0,phase_1,,,,,,,,,,,,,orange,triangle
663.0,7.0,3.0,1.0,2.0,2.0,328.665563999948,1.0,1.0,phase_1,,,,,,,,,,,,,orange,triangle
664.0,7.0,3.0,1.0,4.0,4.0,459.1088520000994,1.0,1.0,phase_1,,,,,,,,,,,,,orange,triangle
177.0,1.0,1.0,0.0,2.0,2.0,375.6810389995735,1.0,1.0,phase_1,,,,,,,,,,,,,blue,flipped triangle
0.0,4.0,0.0,0.0,4.0,4.0,414.0988369999832,2.0,1.0,phase_1,,,,,,,,,,,,,cyan,I
1288.0,4.0,4.0,0.0,3.0,3.0,497.3656490001303,2.0,1.0,phase_1,,,,,,,,,,,,,cyan,I
1301.0,4.0,4.0,0.0,1.0,1.0,328.406515000097,2.0,1.0,phase_1,,,,,,,,,,,,,cyan,I
1319.0,8.0,4.0,1.0,4.0,4.0,365.1307260001886,2.0,1.0,phase_1,,,,,,,,,,,,,gray,circle
141.0,1.0,1.0,0.0,1.0,1.0,299.904989999959,2.0,1.0,phase_1,,,,,,,,,,,,,blue,flipped triangle
656.0,7.0,3.0,1.0,4.0,4.0,356.60357300002937,2.0,1.0,phase_1,,,,,,,,,,,,,orange,triangle
1313.0,4.0,4.0,0.0,2.0,2.0,347.8192709999348,2.0,1.0,phase_1,,,,,,,,,,,,,cyan,I
306.0,6.0,2.0,1.0,4.0,4.0,365.6006129999696,2.0,1.0,phase_1,,,,,,,,,,,,,yellow,square
150.0,5.0,1.0,1.0,3.0,3.0,356.6572750000887,2.0,1.0,phase_1,,,,,,,,,,,,,white,hexagon
332.0,6.0,2.0,1.0,2.0,2.0,402.8209250000145,2.0,1.0,phase_1,,,,,,,,,,,,,yellow,square
0.0,5.0,0.0,1.0,4.0,4.0,302.6879959998041,2.0,1.0,phase_1,,,,,,,,,,,,,white,hexagon
636.0,7.0,3.0,1.0,1.0,1.0,347.757300000012,2.0,1.0,phase_1,,,,,,,,,,,,,orange,triangle
144.0,1.0,1.0,0.0,1.0,1.0,318.8822759998402,2.0,1.0,phase_1,,,,,,,,,,,,,blue,flipped triangle
628.0,3.0,3.0,0.0,3.0,3.0,365.4756129999441,2.0,1.0,phase_1,,,,,,,,,,,,,green,cross
670.0,7.0,3.0,1.0,3.0,3.0,309.8157539998283,2.0,1.0,phase_1,,,,,,,,,,,,,orange,triangle
669.0,7.0,3.0,1.0,3.0,3.0,271.9405210000332,2.0,1.0,phase_1,,,,,,,,,,,,,orange,triangle
162.0,1.0,1.0,0.0,3.0,3.0,280.8907739999995,2.0,1.0,phase_1,,,,,,,,,,,,,blue,flipped triangle
661.0,7.0,3.0,1.0,1.0,1.0,432.586650000303,2.0,2.0,phase_1,,,,,,,,,,,,,orange,triangle
339.0,6.0,2.0,1.0,4.0,4.0,393.8593210000363,2.0,1.0,phase_1,,,,,,,,,,,,,yellow,square
0.0,3.0,0.0,0.0,1.0,1.0,375.7754260000183,2.0,1.0,phase_1,,,,,,,,,,,,,green,cross
301.0,2.0,2.0,0.0,4.0,4.0,384.4730060000074,2.0,2.0,phase_1,,,,,,,,,,,,,magenta,diamond
0.0,6.0,0.0,1.0,2.0,2.0,386.1432169996988,2.0,1.0,phase_1,,,,,,,,,,,,,yellow,square
1292.0,4.0,4.0,0.0,4.0,4.0,328.3879189998515,2.0,1.0,phase_1,,,,,,,,,,,,,cyan,I
322.0,2.0,2.0,0.0,1.0,1.0,273.4594369999286,2.0,1.0,phase_1,,,,,,,,,,,,,magenta,diamond
330.0,2.0,2.0,0.0,3.0,3.0,422.1646559999499,2.0,1.0,phase_1,,,,,,,,,,,,,magenta,diamond
0.0,4.0,0.0,0.0,1.0,1.0,412.7350160001697,2.0,1.0,phase_1,,,,,,,,,,,,,cyan,I
628.0,7.0,3.0,1.0,3.0,3.0,349.1909720000876,2.0,1.0,phase_1,,,,,,,,,,,,,orange,triangle
149.0,1.0,1.0,0.0,2.0,2.0,329.9157870001181,2.0,1.0,phase_1,,,,,,,,,,,,,blue,flipped triangle
0.0,6.0,0.0,1.0,4.0,4.0,347.4261169999408,2.0,1.0,phase_1,,,,,,,,,,,,,yellow,square
1296.0,8.0,4.0,1.0,1.0,1.0,357.163507000223,2.0,1.0,phase_1,,,,,,,,,,,,,gray,circle
1287.0,8.0,4.0,1.0,1.0,1.0,338.5687210002288,2.0,1.0,phase_1,,,,,,,,,,,,,gray,circle
164.0,1.0,1.0,0.0,2.0,2.0,347.5328560002708,2.0,1.0,phase_1,,,,,,,,,,,,,blue,flipped triangle
164.0,1.0,1.0,0.0,4.0,4.0,357.7656679999563,2.0,1.0,phase_1,,,,,,,,,,,,,blue,flipped triangle
1279.0,4.0,4.0,0.0,1.0,1.0,301.0412250000627,2.0,1.0,phase_1,,,,,,,,,,,,,cyan,I
628.0,7.0,3.0,1.0,1.0,1.0,290.899434000039,2.0,1.0,phase_1,,,,,,,,,,,,,orange,triangle
302.0,2.0,2.0,0.0,2.0,2.0,318.4661189998223,2.0,1.0,phase_1,,,,,,,,,,,,,magenta,diamond
626.0,3.0,3.0,0.0,2.0,2.0,328.8815860000795,2.0,1.0,phase_1,,,,,,,,,,,,,green,cross
655.0,7.0,3.0,1.0,2.0,2.0,357.0778240000436,2.0,1.0,phase_1,,,,,,,,,,,,,orange,triangle
323.0,2.0,2.0,0.0,3.0,3.0,384.2910499997742,2.0,1.0,phase_1,,,,,,,,,,,,,magenta,diamond
0.0,3.0,0.0,0.0,3.0,3.0,329.9212980000447,2.0,1.0,phase_1,,,,,,,,,,,,,green,cross
628.0,3.0,3.0,0.0,3.0,3.0,310.2492779999011,2.0,1.0,phase_1,,,,,,,,,,,,,green,cross
670.0,3.0,3.0,0.0,2.0,2.0,308.6681749996387,2.0,1.0,phase_1,,,,,,,,,,,,,green,cross
632.0,3.0,3.0,0.0,2.0,2.0,328.6565900002642,2.0,1.0,phase_1,,,,,,,,,,,,,green,cross
0.0,5.0,0.0,1.0,4.0,4.0,290.9058370000821,2.0,1.0,phase_1,,,,,,,,,,,,,white,hexagon
1287.0,4.0,4.0,0.0,3.0,3.0,347.6224750002075,2.0,1.0,phase_1,,,,,,,,,,,,,cyan,I
186.0,1.0,1.0,0.0,2.0,2.0,355.3102709997802,2.0,1.0,phase_1,,,,,,,,,,,,,blue,flipped triangle
1301.0,8.0,4.0,1.0,4.0,4.0,393.1697919997532,2.0,1.0,phase_1,,,,,,,,,,,,,gray,circle
309.0,6.0,2.0,1.0,4.0,4.0,318.0876989999888,2.0,1.0,phase_1,,,,,,,,,,,,,yellow,square
319.0,2.0,2.0,0.0,4.0,4.0,299.021932999949,2.0,1.0,phase_1,,,,,,,,,,,,,magenta,diamond
644.0,3.0,3.0,0.0,4.0,4.0,263.6497059997964,2.0,1.0,phase_1,,,,,,,,,,,,,green,cross
157.0,5.0,1.0,1.0,2.0,2.0,346.5526230002069,2.0,1.0,phase_1,,,,,,,,,,,,,white,hexagon
0.0,5.0,0.0,1.0,3.0,3.0,326.6829029998916,2.0,1.0,phase_1,,,,,,,,,,,,,white,hexagon
632.0,3.0,3.0,0.0,4.0,4.0,310.0197450003179,2.0,1.0,phase_1,,,,,,,,,,,,,green,cross
344.0,2.0,2.0,0.0,3.0,3.0,290.0450699999055,2.0,2.0,phase_1,,,,,,,,,,,,,magenta,diamond
661.0,3.0,3.0,0.0,1.0,1.0,524.8821840000346,2.0,1.0,phase_1,,,,,,,,,,,,,green,cross
0.0,8.0,0.0,1.0,4.0,4.0,337.9078610000761,2.0,1.0,phase_1,,,,,,,,,,,,,gray,circle
336.0,6.0,2.0,1.0,4.0,4.0,272.8549390003536,2.0,1.0,phase_1,,,,,,,,,,,,,yellow,square
0.0,6.0,0.0,1.0,4.0,4.0,365.6518070001766,2.0,1.0,phase_1,,,,,,,,,,,,,yellow,square
1278.0,8.0,4.0,1.0,3.0,3.0,271.5987480000876,2.0,1.0,phase_1,,,,,,,,,,,,,gray,circle
655.0,7.0,3.0,1.0,2.0,2.0,320.6886829998439,2.0,1.0,phase_1,,,,,,,,,,,,,orange,triangle
0.0,2.0,0.0,0.0,4.0,4.0,243.7964539999484,2.0,1.0,phase_1,,,,,,,,,,,,,magenta,diamond
348.0,6.0,2.0,1.0,4.0,4.0,412.0289859997683,2.0,1.0,phase_1,,,,,,,,,,,,,yellow,square
140.0,1.0,1.0,0.0,1.0,1.0,355.6702500000028,2.0,2.0,phase_1,,,,,,,,,,,,,blue,flipped triangle
0.0,2.0,0.0,0.0,4.0,4.0,299.9763529996926,2.0,1.0,phase_1,,,,,,,,,,,,,magenta,diamond
0.0,1.0,0.0,0.0,4.0,4.0,309.119701000327,2.0,1.0,phase_1,,,,,,,,,,,,,blue,flipped triangle
301.0,6.0,2.0,1.0,2.0,2.0,421.3810309997825,2.0,1.0,phase_1,,,,,,,,,,,,,yellow,square
1313.0,8.0,4.0,1.0,4.0,4.0,291.086918000019,2.0,1.0,phase_1,,,,,,,,,,,,,gray,circle
1288.0,8.0,4.0,1.0,4.0,4.0,271.2160750002113,2.0,1.0,phase_1,,,,,,,,,,,,,gray,circle
1317.0,4.0,4.0,0.0,1.0,1.0,355.9964159999254,2.0,1.0,phase_1,,,,,,,,,,,,,cyan,I
1306.0,8.0,4.0,1.0,2.0,2.0,394.3504649996612,2.0,1.0,phase_1,,,,,,,,,,,,,gray,circle
664.0,3.0,3.0,0.0,4.0,4.0,346.255218999886,2.0,1.0,phase_1,,,,,,,,,,,,,green,cross
308.0,2.0,2.0,0.0,3.0,3.0,336.6383410002527,2.0,1.0,phase_1,,,,,,,,,,,,,magenta,diamond
647.0,3.0,3.0,0.0,3.0,3.0,329.1019569996933,2.0,1.0,phase_1,,,,,,,,,,,,,green,cross
655.0,7.0,3.0,1.0,2.0,2.0,346.7141109999829,2.0,1.0,phase_1,,,,,,,,,,,,,orange,triangle
164.0,5.0,1.0,1.0,4.0,4.0,281.0536330002833,2.0,1.0,phase_1,,,,,,,,,,,,,white,hexagon
0.0,2.0,0.0,0.0,3.0,3.0,319.0048780002144,2.0,1.0,phase_1,,,,,,,,,,,,,magenta,diamond
652.0,7.0,3.0,1.0,4.0,4.0,263.0191170001126,2.0,1.0,phase_1,,,,,,,,,,,,,orange,triangle
159.0,1.0,1.0,0.0,3.0,3.0,336.9008740000936,2.0,1.0,phase_1,,,,,,,,,,,,,blue,flipped triangle
0.0,8.0,0.0,1.0,2.0,2.0,346.6218820003632,2.0,1.0,phase_1,,,,,,,,,,,,,gray,circle
303.0,2.0,2.0,0.0,1.0,1.0,356.7659909999747,2.0,2.0,phase_1,,,,,,,,,,,,,magenta,diamond
327.0,2.0,2.0,0.0,1.0,1.0,309.3927790000634,2.0,1.0,phase_1,,,,,,,,,,,,,magenta,diamond
655.0,3.0,3.0,0.0,1.0,1.0,290.9114019998924,2.0,1.0,phase_1,,,,,,,,,,,,,green,cross
634.0,3.0,3.0,0.0,1.0,1.0,318.9829610000743,2.0,1.0,phase_1,,,,,,,,,,,,,green,cross
1313.0,4.0,4.0,0.0,2.0,2.0,364.7120979999272,2.0,1.0,phase_1,,,,,,,,,,,,,cyan,I
327.0,2.0,2.0,0.0,2.0,2.0,330.0729970001157,2.0,1.0,phase_1,,,,,,,,,,,,,magenta,diamond
336.0,6.0,2.0,1.0,3.0,3.0,337.2101149998343,2.0,1.0,phase_1,,,,,,,,,,,,,yellow,square
151.0,5.0,1.0,1.0,2.0,2.0,280.7380809999813,2.0,1.0,phase_1,,,,,,,,,,,,,white,hexagon
0.0,1.0,0.0,0.0,4.0,4.0,348.4538050001902,2.0,1.0,phase_1,,,,,,,,,,,,,blue,flipped triangle
0.0,7.0,0.0,1.0,2.0,2.0,281.3152899998385,2.0,1.0,phase_1,,,,,,,,,,,,,orange,triangle
1318.0,4.0,4.0,0.0,4.0,4.0,280.1098800000545,2.0,1.0,phase_1,,,,,,,,,,,,,cyan,I
172.0,1.0,1.0,0.0,1.0,1.0,345.8495439999751,2.0,1.0,phase_1,,,,,,,,,,,,,blue,flipped triangle
0.0,5.0,0.0,1.0,1.0,1.0,355.5477439999777,2.0,1.0,phase_1,,,,,,,,,,,,,white,hexagon
0.0,2.0,0.0,0.0,3.0,3.0,374.170839999806,2.0,2.0,phase_1,,,,,,,,,,,,,magenta,diamond
177.0,1.0,1.0,0.0,4.0,4.0,326.9537999999556,2.0,1.0,phase_1,,,,,,,,,,,,,blue,flipped triangle
0.0,6.0,0.0,1.0,2.0,2.0,354.5993450002243,2.0,1.0,phase_1,,,,,,,,,,,,,yellow,square
1296.0,4.0,4.0,0.0,2.0,2.0,347.531534999689,2.0,1.0,phase_1,,,,,,,,,,,,,cyan,I
655.0,3.0,3.0,0.0,3.0,3.0,376.1098059999312,2.0,1.0,phase_1,,,,,,,,,,,,,green,cross
309.0,2.0,2.0,0.0,3.0,3.0,299.6459590003724,2.0,1.0,phase_1,,,,,,,,,,,,,magenta,diamond
0.0,6.0,0.0,1.0,1.0,1.0,431.4116249997823,2.0,2.0,phase_1,,,,,,,,,,,,,yellow,square
637.0,7.0,3.0,1.0,1.0,1.0,319.1903550000461,2.0,1.0,phase_1,,,,,,,,,,,,,orange,triangle
171.0,1.0,1.0,0.0,4.0,4.0,366.3048840003284,3.0,1.0,phase_1,,,,,,,,,,,,,blue,flipped triangle
649.0,7.0,3.0,1.0,1.0,1.0,338.655092999943,3.0,1.0,phase_1,,,,,,,,,,,,,orange,triangle
647.0,7.0,3.0,1.0,4.0,4.0,385.7290089999878,3.0,1.0,phase_1,,,,,,,,,,,,,orange,triangle
1302.0,4.0,4.0,0.0,1.0,1.0,366.0941759999332,3.0,1.0,phase_1,,,,,,,,,,,,,cyan,I
344.0,6.0,2.0,1.0,4.0,4.0,329.3008539999391,3.0,1.0,phase_1,,,,,,,,,,,,,yellow,square
636.0,7.0,3.0,1.0,1.0,1.0,308.7968899999396,3.0,1.0,phase_1,,,,,,,,,,,,,orange,triangle
1306.0,4.0,4.0,0.0,4.0,4.0,393.1556600000476,3.0,1.0,phase_1,,,,,,,,,,,,,cyan,I
652.0,3.0,3.0,0.0,4.0,4.0,310.102802000074,3.0,1.0,phase_1,,,,,,,,,,,,,green,cross
0.0,4.0,0.0,0.0,1.0,1.0,319.9582419997568,3.0,1.0,phase_1,,,,,,,,,,,,,cyan,I
0.0,4.0,0.0,0.0,3.0,3.0,375.0405220002903,3.0,1.0,phase_1,,,,,,,,,,,,,cyan,I
1287.0,8.0,4.0,1.0,3.0,3.0,310.1025570003912,3.0,1.0,phase_1,,,,,,,,,,,,,gray,circle
0.0,1.0,0.0,0.0,2.0,2.0,356.0390550001102,3.0,1.0,phase_1,,,,,,,,,,,,,blue,flipped triangle
661.0,3.0,3.0,0.0,2.0,2.0,356.37141899997,3.0,1.0,phase_1,,,,,,,,,,,,,green,cross
636.0,3.0,3.0,0.0,4.0,4.0,338.4944280001036,3.0,1.0,phase_1,,,,,,,,,,,,,green,cross
0.0,3.0,0.0,0.0,1.0,1.0,365.1288480000403,3.0,1.0,phase_1,,,,,,,,,,,,,green,cross
329.0,6.0,2.0,1.0,3.0,3.0,357.4530470000354,3.0,1.0,phase_1,,,,,,,,,,,,,yellow,square
169.0,1.0,1.0,0.0,3.0,3.0,328.2350020003832,3.0,1.0,phase_1,,,,,,,,,,,,,blue,flipped triangle
1283.0,4.0,4.0,0.0,4.0,4.0,375.3914280000572,3.0,2.0,phase_1,,,,,,,,,,,,,cyan,I
1306.0,8.0,4.0,1.0,3.0,3.0,338.9097459998993,3.0,1.0,phase_1,,,,,,,,,,,,,gray,circle
0.0,8.0,0.0,1.0,3.0,3.0,310.2647139999135,3.0,1.0,phase_1,,,,,,,,,,,,,gray,circle
669.0,3.0,3.0,0.0,4.0,4.0,318.4073699999317,3.0,1.0,phase_1,,,,,,,,,,,,,green,cross
649.0,3.0,3.0,0.0,4.0,4.0,386.7527060001521,3.0,1.0,phase_1,,,,,,,,,,,,,green,cross
663.0,3.0,3.0,0.0,2.0,2.0,365.0544519996401,3.0,1.0,phase_1,,,,,,,,,,,,,green,cross
0.0,2.0,0.0,0.0,1.0,1.0,319.8961130001407,3.0,1.0,phase_1,,,,,,,,,,,,,magenta,diamond
311.0,2.0,2.0,0.0,1.0,1.0,339.3541189998359,3.0,1.0,phase_1,,,,,,,,,,,,,magenta,diamond
632.0,3.0,3.0,0.0,2.0,2.0,311.215632999847,3.0,1.0,phase_1,,,,,,,,,,,,,green,cross
151.0,1.0,1.0,0.0,4.0,4.0,356.4566660002128,3.0,1.0,phase_1,,,,,,,,,,,,,blue,flipped triangle
168.0,5.0,1.0,1.0,4.0,4.0,282.0639840001604,3.0,1.0,phase_1,,,,,,,,,,,,,white,hexagon
1325.0,4.0,4.0,0.0,3.0,3.0,413.084938999873,3.0,1.0,phase_1,,,,,,,,,,,,,cyan,I
636.0,7.0,3.0,1.0,4.0,4.0,263.6879779997798,3.0,1.0,phase_1,,,,,,,,,,,,,orange,triangle
330.0,2.0,2.0,0.0,4.0,4.0,328.7024679998467,3.0,1.0,phase_1,,,,,,,,,,,,,magenta,diamond
644.0,7.0,3.0,1.0,2.0,2.0,469.5958229999633,3.0,2.0,phase_1,,,,,,,,,,,,,orange,triangle
146.0,5.0,1.0,1.0,3.0,3.0,318.5387899998204,3.0,1.0,phase_1,,,,,,,,,,,,,white,hexagon
158.0,5.0,1.0,1.0,3.0,3.0,326.7914000002747,3.0,1.0,phase_1,,,,,,,,,,,,,white,hexagon
1297.0,8.0,4.0,1.0,4.0,4.0,347.3147340000651,3.0,1.0,phase_1,,,,,,,,,,,,,gray,circle
323.0,6.0,2.0,1.0,3.0,3.0,328.4202090003418,3.0,1.0,phase_1,,,,,,,,,,,,,yellow,square
177.0,5.0,1.0,1.0,1.0,1.0,309.1183209999144,3.0,2.0,phase_1,,,,,,,,,,,,,white,hexagon
644.0,3.0,3.0,0.0,4.0,4.0,299.1808589999891,3.0,1.0,phase_1,,,,,,,,,,,,,green,cross
632.0,7.0,3.0,1.0,1.0,1.0,309.2272019998745,3.0,1.0,phase_1,,,,,,,,,,,,,orange,triangle
336.0,6.0,2.0,1.0,3.0,3.0,348.3687680000003,3.0,1.0,phase_1,,,,,,,,,,,,,yellow,square
648.0,7.0,3.0,1.0,2.0,2.0,365.1583850000861,3.0,1.0,phase_1,,,,,,,,,,,,,orange,triangle
0.0,4.0,0.0,0.0,4.0,4.0,318.990832000054,3.0,1.0,phase_1,,,,,,,,,,,,,cyan,I
632.0,7.0,3.0,1.0,1.0,1.0,319.1807440002776,3.0,1.0,phase_1,,,,,,,,,,,,,orange,triangle
345.0,6.0,2.0,1.0,4.0,4.0,309.817761999966,3.0,1.0,phase_1,,,,,,,,,,,,,yellow,square
655.0,3.0,3.0,0.0,2.0,2.0,441.2035380000816,3.0,2.0,phase_1,,,,,,,,,,,,,green,cross
144.0,5.0,1.0,1.0,1.0,1.0,492.8018310001789,3.0,1.0,phase_1,,,,,,,,,,,,,white,hexagon
1316.0,8.0,4.0,1.0,1.0,1.0,366.3263389998974,3.0,1.0,phase_1,,,,,,,,,,,,,gray,circle
1276.0,4.0,4.0,0.0,4.0,4.0,281.9619829997464,3.0,1.0,phase_1,,,,,,,,,,,,,cyan,I
347.0,6.0,2.0,1.0,2.0,2.0,329.0475349999724,3.0,1.0,phase_1,,,,,,,,,,,,,yellow,square
156.0,1.0,1.0,0.0,4.0,4.0,309.8555110000234,3.0,2.0,phase_1,,,,,,,,,,,,,blue,flipped triangle
327.0,2.0,2.0,0.0,1.0,1.0,365.7033859999501,3.0,1.0,phase_1,,,,,,,,,,,,,magenta,diamond
183.0,1.0,1.0,0.0,3.0,3.0,395.7199290002791,3.0,1.0,phase_1,,,,,,,,,,,,,blue,flipped triangle
1296.0,4.0,4.0,0.0,1.0,1.0,338.216956999986,3.0,1.0,phase_1,,,,,,,,,,,,,cyan,I
346.0,2.0,2.0,0.0,4.0,4.0,300.8890809996956,3.0,1.0,phase_1,,,,,,,,,,,,,magenta,diamond
159.0,5.0,1.0,1.0,3.0,3.0,338.5192629998528,3.0,1.0,phase_1,,,,,,,,,,,,,white,hexagon
0.0,7.0,0.0,1.0,3.0,3.0,348.2715969998935,3.0,1.0,phase_1,,,,,,,,,,,,,orange,triangle
341.0,6.0,2.0,1.0,4.0,4.0,282.5379159999102,3.0,1.0,phase_1,,,,,,,,,,,,,yellow,square
0.0,1.0,0.0,0.0,3.0,3.0,281.762463999712,3.0,1.0,phase_1,,,,,,,,,,,,,blue,flipped triangle
151.0,1.0,1.0,0.0,1.0,1.0,319.8494459998073,3.0,1.0,phase_1,,,,,,,,,,,,,blue,flipped triangle
339.0,2.0,2.0,0.0,3.0,3.0,413.5557600002357,3.0,1.0,phase_1,,,,,,,,,,,,,magenta,diamond
1292.0,8.0,4.0,1.0,3.0,3.0,321.0480409998126,3.0,1.0,phase_1,,,,,,,,,,,,,gray,circle
670.0,3.0,3.0,0.0,1.0,1.0,281.2642280000546,3.0,1.0,phase_1,,,,,,,,,,,,,green,cross
150.0,1.0,1.0,0.0,3.0,3.0,328.7498179997783,3.0,1.0,phase_1,,,,,,,,,,,,,blue,flipped triangle
0.0,3.0,0.0,0.0,1.0,1.0,310.4606169999897,3.0,1.0,phase_1,,,,,,,,,,,,,green,cross
162.0,5.0,1.0,1.0,1.0,1.0,348.2331240002168,3.0,1.0,phase_1,,,,,,,,,,,,,white,hexagon
1317.0,8.0,4.0,1.0,3.0,3.0,329.2394009999952,3.0,1.0,phase_1,,,,,,,,,,,,,gray,circle
0.0,8.0,0.0,1.0,1.0,1.0,385.3030509999371,3.0,1.0,phase_1,,,,,,,,,,,,,gray,circle
153.0,5.0,1.0,1.0,2.0,2.0,490.0661199999376,3.0,2.0,phase_1,,,,,,,,,,,,,white,hexagon
141.0,5.0,1.0,1.0,3.0,3.0,348.3680170002117,3.0,1.0,phase_1,,,,,,,,,,,,,white,hexagon
1296.0,8.0,4.0,1.0,2.0,2.0,357.158722999884,3.0,1.0,phase_1,,,,,,,,,,,,,gray,circle
0.0,2.0,0.0,0.0,2.0,2.0,337.8832849998616,3.0,1.0,phase_1,,,,,,,,,,,,,magenta,diamond
341.0,2.0,2.0,0.0,3.0,3.0,330.4889450000701,3.0,1.0,phase_1,,,,,,,,,,,,,magenta,diamond
169.0,1.0,1.0,0.0,2.0,2.0,350.9041409997735,3.0,1.0,phase_1,,,,,,,,,,,,,blue,flipped triangle
1296.0,4.0,4.0,0.0,2.0,2.0,348.0887230002736,3.0,1.0,phase_1,,,,,,,,,,,,,cyan,I
1288.0,8.0,4.0,1.0,2.0,2.0,375.1920519998748,3.0,1.0,phase_1,,,,,,,,,,,,,gray,circle
158.0,1.0,1.0,0.0,3.0,3.0,365.9349130002738,3.0,1.0,phase_1,,,,,,,,,,,,,blue,flipped triangle
137.0,1.0,1.0,0.0,4.0,4.0,403.5929749998104,3.0,1.0,phase_1,,,,,,,,,,,,,blue,flipped triangle
303.0,6.0,2.0,1.0,2.0,2.0,300.0018420002561,3.0,1.0,phase_1,,,,,,,,,,,,,yellow,square
1281.0,8.0,4.0,1.0,4.0,4.0,263.7472490000618,3.0,1.0,phase_1,,,,,,,,,,,,,gray,circle
0.0,8.0,0.0,1.0,2.0,2.0,328.9965559997654,3.0,1.0,phase_1,,,,,,,,,,,,,gray,circle
1323.0,4.0,4.0,0.0,4.0,4.0,291.2640289996488,3.0,1.0,phase_1,,,,,,,,,,,,,cyan,I
632.0,7.0,3.0,1.0,1.0,1.0,318.4942990001218,3.0,1.0,phase_1,,,,,,,,,,,,,orange,triangle
341.0,6.0,2.0,1.0,3.0,3.0,342.5142459996095,3.0,1.0,phase_1,,,,,,,,,,,,,yellow,square
1279.0,8.0,4.0,1.0,1.0,1.0,340.1663989998269,3.0,1.0,phase_1,,,,,,,,,,,,,gray,circle
1288.0,4.0,4.0,0.0,4.0,4.0,378.897914999925,3.0,2.0,phase_1,,,,,,,,,,,,,cyan,I
167.0,5.0,1.0,1.0,2.0,2.0,375.1215010001942,3.0,2.0,phase_1,,,,,,,,,,,,,white,hexagon
156.0,5.0,1.0,1.0,3.0,3.0,321.8227400002433,3.0,1.0,phase_1,,,,,,,,,,,,,white,hexagon
0.0,4.0,0.0,0.0,4.0,4.0,346.8599789998734,3.0,1.0,phase_1,,,,,,,,,,,,,cyan,I
173.0,1.0,1.0,0.0,3.0,3.0,405.0316970001404,3.0,1.0,phase_1,,,,,,,,,,,,,blue,flipped triangle
153.0,1.0,1.0,0.0,4.0,4.0,319.5936999995865,3.0,1.0,phase_1,,,,,,,,,,,,,blue,flipped triangle
177.0,1.0,1.0,0.0,1.0,1.0,497.4049269999341,3.0,1.0,phase_1,,,,,,,,,,,,,blue,flipped triangle
0.0,7.0,0.0,1.0,1.0,1.0,421.8595600000299,3.0,1.0,phase_1,,,,,,,,,,,,,orange,triangle
330.0,6.0,2.0,1.0,3.0,3.0,365.9133189999011,3.0,1.0,phase_1,,,,,,,,,,,,,yellow,square
0.0,4.0,0.0,0.0,3.0,3.0,366.3297329999295,3.0,1.0,phase_1,,,,,,,,,,,,,cyan,I
155.0,5.0,1.0,1.0,2.0,2.0,339.505422000002,3.0,2.0,phase_1,,,,,,,,,,,,,white,hexagon
156.0,1.0,1.0,0.0,2.0,2.0,374.9094570002853,3.0,1.0,phase_1,,,,,,,,,,,,,blue,flipped triangle
648.0,3.0,3.0,0.0,4.0,4.0,292.8961479997269,3.0,1.0,phase_1,,,,,,,,,,,,,green,cross
1323.0,8.0,4.0,1.0,3.0,3.0,384.0574529999685,3.0,1.0,phase_1,,,,,,,,,,,,,gray,circle
0.0,4.0,0.0,0.0,3.0,3.0,319.4269489999897,3.0,1.0,phase_1,,,,,,,,,,,,,cyan,I
1323.0,4.0,4.0,0.0,4.0,4.0,272.7388759999485,3.0,1.0,phase_1,,,,,,,,,,,,,cyan,I
0.0,8.0,0.0,1.0,2.0,2.0,422.6215080002475,4.0,1.0,phase_1,,,,,,,,,,,,,gray,circle
164.0,5.0,1.0,1.0,2.0,2.0,299.8341630000141,4.0,1.0,phase_1,,,,,,,,,,,,,white,hexagon
327.0,6.0,2.0,1.0,3.0,3.0,281.860091999988,4.0,1.0,phase_1,,,,,,,,,,,,,yellow,square
0.0,8.0,0.0,1.0,2.0,2.0,300.1901689999613,4.0,1.0,phase_1,,,,,,,,,,,,,gray,circle
341.0,2.0,2.0,0.0,3.0,3.0,357.1190970001225,4.0,1.0,phase_1,,,,,,,,,,,,,magenta,diamond
149.0,5.0,1.0,1.0,2.0,2.0,281.0726339998837,4.0,1.0,phase_1,,,,,,,,,,,,,white,hexagon
0.0,1.0,0.0,0.0,4.0,4.0,413.2154769999943,4.0,1.0,phase_1,,,,,,,,,,,,,blue,flipped triangle
0.0,1.0,0.0,0.0,4.0,4.0,272.2569649999968,4.0,1.0,phase_1,,,,,,,,,,,,,blue,flipped triangle
312.0,2.0,2.0,0.0,4.0,4.0,309.4633549999344,4.0,1.0,phase_1,,,,,,,,,,,,,magenta,diamond
335.0,2.0,2.0,0.0,1.0,1.0,357.4739179998687,4.0,1.0,phase_1,,,,,,,,,,,,,magenta,diamond
152.0,1.0,1.0,0.0,2.0,2.0,319.2020530000263,4.0,2.0,phase_1,,,,,,,,,,,,,blue,flipped triangle
0.0,2.0,0.0,0.0,3.0,3.0,282.4113320002652,4.0,1.0,phase_1,,,,,,,,,,,,,magenta,diamond
350.0,2.0,2.0,0.0,2.0,2.0,263.4018109997669,4.0,1.0,phase_1,,,,,,,,,,,,,magenta,diamond
333.0,2.0,2.0,0.0,4.0,4.0,273.1164849997185,4.0,1.0,phase_1,,,,,,,,,,,,,magenta,diamond
0.0,1.0,0.0,0.0,4.0,4.0,272.8098200000204,4.0,1.0,phase_1,,,,,,,,,,,,,blue,flipped triangle
1289.0,4.0,4.0,0.0,2.0,2.0,290.3457100001105,4.0,1.0,phase_1,,,,,,,,,,,,,cyan,I
308.0,6.0,2.0,1.0,2.0,2.0,319.127682999806,4.0,1.0,phase_1,,,,,,,,,,,,,yellow,square
1294.0,8.0,4.0,1.0,4.0,4.0,338.3706919998985,4.0,1.0,phase_1,,,,,,,,,,,,,gray,circle
1281.0,4.0,4.0,0.0,3.0,3.0,281.5896140000404,4.0,1.0,phase_1,,,,,,,,,,,,,cyan,I
177.0,1.0,1.0,0.0,1.0,1.0,355.8343119998426,4.0,1.0,phase_1,,,,,,,,,,,,,blue,flipped triangle
333.0,6.0,2.0,1.0,2.0,2.0,384.395184999903,4.0,1.0,phase_1,,,,,,,,,,,,,yellow,square
1294.0,8.0,4.0,1.0,2.0,2.0,347.5344039998163,4.0,1.0,phase_1,,,,,,,,,,,,,gray,circle
350.0,6.0,2.0,1.0,1.0,1.0,327.5968039997678,4.0,1.0,phase_1,,,,,,,,,,,,,yellow,square
662.0,7.0,3.0,1.0,3.0,3.0,373.7078399999518,4.0,1.0,phase_1,,,,,,,,,,,,,orange,triangle
1296.0,8.0,4.0,1.0,3.0,3.0,337.2447159999865,4.0,1.0,phase_1,,,,,,,,,,,,,gray,circle
137.0,5.0,1.0,1.0,1.0,1.0,355.8257980002963,4.0,1.0,phase_1,,,,,,,,,,,,,white,hexagon
319.0,6.0,2.0,1.0,1.0,1.0,262.4197069999354,4.0,2.0,phase_1,,,,,,,,,,,,,yellow,square
668.0,3.0,3.0,0.0,3.0,3.0,357.5695220001762,4.0,1.0,phase_1,,,,,,,,,,,,,green,cross
1320.0,4.0,4.0,0.0,1.0,1.0,301.0067709997202,4.0,1.0,phase_1,,,,,,,,,,,,,cyan,I
1290.0,4.0,4.0,0.0,3.0,3.0,385.264989999996,4.0,1.0,phase_1,,,,,,,,,,,,,cyan,I
0.0,3.0,0.0,0.0,3.0,3.0,338.5665870000593,4.0,1.0,phase_1,,,,,,,,,,,,,green,cross
171.0,5.0,1.0,1.0,2.0,2.0,337.5191739996808,4.0,2.0,phase_1,,,,,,,,,,,,,white,hexagon
1312.0,8.0,4.0,1.0,4.0,4.0,374.7295419998409,4.0,1.0,phase_1,,,,,,,,,,,,,gray,circle
0.0,3.0,0.0,0.0,1.0,1.0,337.9954360002557,4.0,1.0,phase_1,,,,,,,,,,,,,green,cross
0.0,5.0,0.0,1.0,2.0,2.0,347.3087090001172,4.0,2.0,phase_1,,,,,,,,,,,,,white,hexagon
666.0,7.0,3.0,1.0,4.0,4.0,433.2053949997316,4.0,1.0,phase_1,,,,,,,,,,,,,orange,triangle
1312.0,8.0,4.0,1.0,1.0,1.0,317.5057079997714,4.0,1.0,phase_1,,,,,,,,,,,,,gray,circle
1294.0,8.0,4.0,1.0,2.0,2.0,337.2769600000538,4.0,1.0,phase_1,,,,,,,,,,,,,gray,circle
332.0,2.0,2.0,0.0,4.0,4.0,290.9803590000592,4.0,1.0,phase_1,,,,,,,,,,,,,magenta,diamond
1287.0,4.0,4.0,0.0,2.0,2.0,281.2973329996566,4.0,1.0,phase_1,,,,,,,,,,,,,cyan,I
330.0,6.0,2.0,1.0,1.0,1.0,336.7889729997841,4.0,1.0,phase_1,,,,,,,,,,,,,yellow,square
148.0,5.0,1.0,1.0,3.0,3.0,299.5575859999917,4.0,1.0,phase_1,,,,,,,,,,,,,white,hexagon
172.0,5.0,1.0,1.0,1.0,1.0,290.1019790001555,4.0,1.0,phase_1,,,,,,,,,,,,,white,hexagon
634.0,7.0,3.0,1.0,3.0,3.0,345.8906630003184,4.0,1.0,phase_1,,,,,,,,,,,,,orange,triangle
165.0,5.0,1.0,1.0,3.0,3.0,272.6655070000561,4.0,2.0,phase_1,,,,,,,,,,,,,white,hexagon
660.0,7.0,3.0,1.0,3.0,3.0,280.0668569998379,4.0,1.0,phase_1,,,,,,,,,,,,,orange,triangle
1276.0,8.0,4.0,1.0,1.0,1.0,402.9080229997817,4.0,1.0,phase_1,,,,,,,,,,,,,gray,circle
178.0,1.0,1.0,0.0,4.0,4.0,365.2421619999586,4.0,1.0,phase_1,,,,,,,,,,,,,blue,flipped triangle
1294.0,4.0,4.0,0.0,2.0,2.0,318.3653719997892,4.0,1.0,phase_1,,,,,,,,,,,,,cyan,I
636.0,3.0,3.0,0.0,3.0,3.0,290.671532000033,4.0,1.0,phase_1,,,,,,,,,,,,,green,cross
172.0,1.0,1.0,0.0,4.0,4.0,346.7888679997486,4.0,1.0,phase_1,,,,,,,,,,,,,blue,flipped triangle
317.0,6.0,2.0,1.0,1.0,1.0,290.709882000101,4.0,1.0,phase_1,,,,,,,,,,,,,yellow,square
1313.0,8.0,4.0,1.0,2.0,2.0,373.9818210001431,4.0,1.0,phase_1,,,,,,,,,,,,,gray,circle
632.0,3.0,3.0,0.0,1.0,1.0,345.5179739999039,4.0,1.0,phase_1,,,,,,,,,,,,,green,cross
173.0,5.0,1.0,1.0,3.0,3.0,280.4135360001965,4.0,1.0,phase_1,,,,,,,,,,,,,white,hexagon
671.0,3.0,3.0,0.0,3.0,3.0,317.7325070000734,4.0,1.0,phase_1,,,,,,,,,,,,,green,cross
670.0,7.0,3.0,1.0,2.0,2.0,318.3292290000281,4.0,1.0,phase_1,,,,,,,,,,,,,orange,triangle
666.0,3.0,3.0,0.0,1.0,1.0,317.4824359998638,4.0,1.0,phase_1,,,,,,,,,,,,,green,cross
1283.0,8.0,4.0,1.0,1.0,1.0,290.3249679998225,4.0,1.0,phase_1,,,,,,,,,,,,,gray,circle
153.0,5.0,1.0,1.0,2.0,2.0,300.3588270003092,4.0,1.0,phase_1,,,,,,,,,,,,,white,hexagon
633.0,3.0,3.0,0.0,1.0,1.0,328.1043890001456,4.0,1.0,phase_1,,,,,,,,,,,,,green,cross
0.0,1.0,0.0,0.0,1.0,1.0,270.7198170000993,4.0,1.0,phase_1,,,,,,,,,,,,,blue,flipped triangle
0.0,2.0,0.0,0.0,1.0,1.0,272.2121379997588,4.0,1.0,phase_1,,,,,,,,,,,,,magenta,diamond
1312.0,4.0,4.0,0.0,1.0,1.0,270.7904969997798,4.0,1.0,phase_1,,,,,,,,,,,,,cyan,I
156.0,5.0,1.0,1.0,3.0,3.0,290.0789919999624,4.0,1.0,phase_1,,,,,,,,,,,,,white,hexagon
336.0,2.0,2.0,0.0,1.0,1.0,225.4950989999997,4.0,1.0,phase_1,,,,,,,,,,,,,magenta,diamond
319.0,2.0,2.0,0.0,2.0,2.0,271.0680790000879,4.0,1.0,phase_1,,,,,,,,,,,,,magenta,diamond
662.0,3.0,3.0,0.0,4.0,4.0,262.4095109999871,4.0,1.0,phase_1,,,,,,,,,,,,,green,cross
312.0,2.0,2.0,0.0,2.0,2.0,299.5276070000727,4.0,1.0,phase_1,,,,,,,,,,,,,magenta,diamond
1316.0,4.0,4.0,0.0,3.0,3.0,318.550838000192,4.0,1.0,phase_1,,,,,,,,,,,,,cyan,I
346.0,6.0,2.0,1.0,1.0,1.0,225.430383999992,4.0,1.0,phase_1,,,,,,,,,,,,,yellow,square
669.0,3.0,3.0,0.0,3.0,3.0,290.8574650000446,4.0,1.0,phase_1,,,,,,,,,,,,,green,cross
186.0,5.0,1.0,1.0,2.0,2.0,318.5001009996995,4.0,1.0,phase_1,,,,,,,,,,,,,white,hexagon
0.0,7.0,0.0,1.0,4.0,4.0,345.7288109998444,4.0,3.0,phase_1,,,,,,,,,,,,,orange,triangle
644.0,7.0,3.0,1.0,4.0,4.0,355.8149969999249,4.0,1.0,phase_1,,,,,,,,,,,,,orange,triangle
1305.0,4.0,4.0,0.0,4.0,4.0,328.0017219999536,4.0,1.0,phase_1,,,,,,,,,,,,,cyan,I
1319.0,4.0,4.0,0.0,1.0,1.0,394.479279999814,4.0,1.0,phase_1,,,,,,,,,,,,,cyan,I
170.0,1.0,1.0,0.0,2.0,2.0,355.8451939998122,4.0,1.0,phase_1,,,,,,,,,,,,,blue,flipped triangle
152.0,5.0,1.0,1.0,4.0,4.0,326.6049370004111,4.0,1.0,phase_1,,,,,,,,,,,,,white,hexagon
0.0,3.0,0.0,0.0,4.0,4.0,337.551484999949,4.0,1.0,phase_1,,,,,,,,,,,,,green,cross
140.0,5.0,1.0,1.0,1.0,1.0,355.3423899998051,4.0,1.0,phase_1,,,,,,,,,,,,,white,hexagon
322.0,6.0,2.0,1.0,3.0,3.0,336.8418949999068,4.0,1.0,phase_1,,,,,,,,,,,,,yellow,square
651.0,7.0,3.0,1.0,2.0,2.0,308.0418790000294,4.0,3.0,phase_1,,,,,,,,,,,,,orange,triangle
671.0,7.0,3.0,1.0,3.0,3.0,299.4366339999033,4.0,1.0,phase_1,,,,,,,,,,,,,orange,triangle
0.0,7.0,0.0,1.0,4.0,4.0,357.0955750001303,4.0,1.0,phase_1,,,,,,,,,,,,,orange,triangle
0.0,5.0,0.0,1.0,3.0,3.0,383.9033650001511,4.0,1.0,phase_1,,,,,,,,,,,,,white,hexagon
175.0,5.0,1.0,1.0,4.0,4.0,310.3314340000906,4.0,1.0,phase_1,,,,,,,,,,,,,white,hexagon
320.0,6.0,2.0,1.0,1.0,1.0,290.8573720001186,4.0,1.0,phase_1,,,,,,,,,,,,,yellow,square
669.0,7.0,3.0,1.0,4.0,4.0,486.9415809998827,4.0,1.0,phase_1,,,,,,,,,,,,,orange,triangle
668.0,7.0,3.0,1.0,3.0,3.0,374.1282050000336,4.0,1.0,phase_1,,,,,,,,,,,,,orange,triangle
632.0,7.0,3.0,1.0,3.0,3.0,309.8205589999452,4.0,1.0,phase_1,,,,,,,,,,,,,orange,triangle
167.0,1.0,1.0,0.0,1.0,1.0,280.553442999917,4.0,1.0,phase_1,,,,,,,,,,,,,blue,flipped triangle
300.0,2.0,2.0,0.0,2.0,2.0,318.933879999804,4.0,1.0,phase_1,,,,,,,,,,,,,magenta,diamond
0.0,6.0,0.0,1.0,3.0,3.0,309.8697280001943,4.0,1.0,phase_1,,,,,,,,,,,,,yellow,square
348.0,2.0,2.0,0.0,1.0,1.0,365.0904549999723,4.0,1.0,phase_1,,,,,,,,,,,,,magenta,diamond
153.0,1.0,1.0,0.0,1.0,1.0,336.544141000104,4.0,1.0,phase_1,,,,,,,,,,,,,blue,flipped triangle
1289.0,8.0,4.0,1.0,2.0,2.0,356.5936370000599,4.0,1.0,phase_1,,,,,,,,,,,,,gray,circle
1306.0,4.0,4.0,0.0,3.0,3.0,393.7590729997282,4.0,1.0,phase_1,,,,,,,,,,,,,cyan,I
177.0,5.0,1.0,1.0,1.0,1.0,318.9046880002024,4.0,1.0,phase_1,,,,,,,,,,,,,white,hexagon
327.0,6.0,2.0,1.0,2.0,2.0,338.3532640000339,4.0,1.0,phase_1,,,,,,,,,,,,,yellow,square
0.0,4.0,4.0,0.0,6.0,6.0,404.7480019999057,1.0,1.0,phase_2,go,250.0,250.0,1.0,,,,,,,,,cyan,I
0.0,3.0,3.0,0.0,5.0,5.0,318.7379500000133,1.0,1.0,phase_2,go,250.0,250.0,1.0,,,,,,,,,green,cross
0.0,7.0,3.0,1.0,6.0,6.0,625.7194929999059,1.0,1.0,phase_2,stop,250.0,250.0,3.0,,,,,,,,,orange,triangle
0.0,6.0,2.0,1.0,6.0,6.0,381.0029160003978,1.0,1.0,phase_2,stop,250.0,200.0,3.0,,,,,,,,,yellow,square
0.0,3.0,3.0,0.0,6.0,6.0,690.741479999815,1.0,1.0,phase_2,go,250.0,150.0,1.0,,,,,,,,,green,cross
0.0,6.0,2.0,1.0,5.0,0.0,0.0,1.0,1.0,phase_2,stop,250.0,150.0,4.0,,,,,,,,,yellow,square
0.0,6.0,2.0,1.0,5.0,0.0,0.0,1.0,1.0,phase_2,stop,300.0,150.0,4.0,,,,,,,,,yellow,square
0.0,8.0,4.0,1.0,5.0,0.0,0.0,1.0,1.0,phase_2,stop,350.0,150.0,4.0,,,,,,,,,gray,circle
0.0,2.0,2.0,0.0,6.0,6.0,630.987415999698,1.0,1.0,phase_2,go,400.0,150.0,1.0,,,,,,,,,magenta,diamond
0.0,8.0,4.0,1.0,6.0,6.0,367.6849569997102,1.0,1.0,phase_2,go,400.0,150.0,1.0,,,,,,,,,gray,circle
0.0,7.0,3.0,1.0,5.0,0.0,0.0,1.0,1.0,phase_2,stop,400.0,150.0,4.0,,,,,,,,,orange,triangle
0.0,5.0,1.0,1.0,6.0,0.0,0.0,1.0,1.0,phase_2,stop,450.0,150.0,4.0,,,,,,,,,white,hexagon
0.0,8.0,4.0,1.0,6.0,6.0,725.4047010001159,1.0,1.0,phase_2,go,450.0,200.0,1.0,,,,,,,,,gray,circle
0.0,7.0,3.0,1.0,5.0,5.0,331.5027049998207,1.0,1.0,phase_2,stop,450.0,200.0,3.0,,,,,,,,,orange,triangle
0.0,8.0,4.0,1.0,5.0,0.0,0.0,1.0,1.0,phase_2,stop,400.0,200.0,4.0,,,,,,,,,gray,circle
0.0,2.0,2.0,0.0,6.0,6.0,642.0394730002954,1.0,1.0,phase_2,go,450.0,200.0,1.0,,,,,,,,,magenta,diamond
0.0,8.0,4.0,1.0,5.0,5.0,631.880844999614,1.0,1.0,phase_2,stop,450.0,200.0,3.0,,,,,,,,,gray,circle
0.0,8.0,4.0,1.0,5.0,0.0,0.0,1.0,1.0,phase_2,stop,400.0,200.0,4.0,,,,,,,,,gray,circle
0.0,2.0,2.0,0.0,6.0,6.0,827.7476509997541,1.0,1.0,phase_2,go,450.0,200.0,1.0,,,,,,,,,magenta,diamond
0.0,6.0,2.0,1.0,6.0,0.0,0.0,1.0,1.0,phase_2,stop,450.0,200.0,4.0,,,,,,,,,yellow,square
0.0,4.0,4.0,0.0,5.0,5.0,651.5808300000572,1.0,1.0,phase_2,go,450.0,250.0,1.0,,,,,,,,,cyan,I
0.0,6.0,2.0,1.0,5.0,0.0,0.0,1.0,1.0,phase_2,stop,450.0,250.0,4.0,,,,,,,,,yellow,square
0.0,7.0,3.0,1.0,6.0,6.0,677.7612380001301,1.0,1.0,phase_2,go,500.0,250.0,1.0,,,,,,,,,orange,triangle
0.0,7.0,3.0,1.0,5.0,5.0,375.862675999997,1.0,1.0,phase_2,stop,500.0,250.0,3.0,,,,,,,,,orange,triangle
0.0,8.0,4.0,1.0,5.0,5.0,310.9814350000306,1.0,1.0,phase_2,stop,450.0,250.0,3.0,,,,,,,,,gray,circle
0.0,1.0,1.0,0.0,6.0,6.0,716.8094899998323,1.0,1.0,phase_2,go,400.0,250.0,1.0,,,,,,,,,blue,flipped triangle
0.0,5.0,1.0,1.0,6.0,0.0,0.0,1.0,1.0,phase_2,stop,400.0,250.0,4.0,,,,,,,,,white,hexagon
0.0,1.0,1.0,0.0,5.0,5.0,331.7043420001937,1.0,1.0,phase_2,go,400.0,300.0,1.0,,,,,,,,,blue,flipped triangle
0.0,5.0,1.0,1.0,6.0,0.0,0.0,1.0,1.0,phase_2,stop,400.0,300.0,4.0,,,,,,,,,white,hexagon
0.0,5.0,1.0,1.0,5.0,0.0,0.0,1.0,1.0,phase_2,stop,400.0,350.0,4.0,,,,,,,,,white,hexagon
0.0,2.0,2.0,0.0,6.0,6.0,698.0295160001333,1.0,1.0,phase_2,go,450.0,350.0,1.0,,,,,,,,,magenta,diamond
0.0,4.0,4.0,0.0,6.0,6.0,847.0310989996506,1.0,1.0,phase_2,go,450.0,350.0,1.0,,,,,,,,,cyan,I
0.0,1.0,1.0,0.0,6.0,6.0,565.5539089998456,1.0,1.0,phase_2,go,450.0,350.0,1.0,,,,,,,,,blue,flipped triangle
0.0,8.0,4.0,1.0,6.0,0.0,0.0,1.0,1.0,phase_2,stop,450.0,350.0,4.0,,,,,,,,,gray,circle
0.0,4.0,4.0,0.0,6.0,6.0,623.1883680002284,1.0,1.0,phase_2,go,450.0,400.0,1.0,,,,,,,,,cyan,I
0.0,8.0,4.0,1.0,5.0,0.0,0.0,1.0,1.0,phase_2,stop,450.0,400.0,4.0,,,,,,,,,gray,circle
0.0,4.0,4.0,0.0,5.0,5.0,483.1713759999729,2.0,1.0,phase_2,go,500.0,400.0,1.0,,,,,,,,,cyan,I
0.0,5.0,1.0,1.0,6.0,0.0,0.0,2.0,1.0,phase_2,stop,500.0,400.0,4.0,,,,,,,,,white,hexagon
0.0,3.0,3.0,0.0,5.0,5.0,727.5963920001232,2.0,1.0,phase_2,go,500.0,450.0,1.0,,,,,,,,,green,cross
0.0,1.0,1.0,0.0,6.0,6.0,319.5963490002214,2.0,1.0,phase_2,go,500.0,450.0,1.0,,,,,,,,,blue,flipped triangle
0.0,8.0,4.0,1.0,6.0,6.0,415.4884240001593,2.0,1.0,phase_2,go,500.0,450.0,1.0,,,,,,,,,gray,circle
0.0,4.0,4.0,0.0,6.0,6.0,820.2995980000196,2.0,1.0,phase_2,go,500.0,450.0,1.0,,,,,,,,,cyan,I
0.0,6.0,2.0,1.0,6.0,0.0,0.0,2.0,1.0,phase_2,stop,500.0,450.0,4.0,,,,,,,,,yellow,square
0.0,8.0,4.0,1.0,6.0,6.0,756.0792169997512,2.0,1.0,phase_2,go,500.0,500.0,1.0,,,,,,,,,gray,circle
0.0,6.0,2.0,1.0,6.0,6.0,641.6026800002328,2.0,1.0,phase_2,stop,500.0,500.0,3.0,,,,,,,,,yellow,square
0.0,4.0,4.0,0.0,6.0,6.0,906.0319290001644,2.0,1.0,phase_2,go,500.0,450.0,1.0,,,,,,,,,cyan,I
0.0,4.0,4.0,0.0,6.0,6.0,810.3085640000245,2.0,1.0,phase_2,go,500.0,450.0,1.0,,,,,,,,,cyan,I
0.0,1.0,1.0,0.0,6.0,6.0,510.0674320001417,2.0,1.0,phase_2,go,500.0,450.0,1.0,,,,,,,,,blue,flipped triangle
0.0,4.0,4.0,0.0,6.0,6.0,727.676701999826,2.0,1.0,phase_2,go,500.0,450.0,1.0,,,,,,,,,cyan,I
0.0,3.0,3.0,0.0,5.0,5.0,613.0988259997139,2.0,1.0,phase_2,go,500.0,450.0,1.0,,,,,,,,,green,cross
0.0,2.0,2.0,0.0,5.0,5.0,669.694470000195,2.0,1.0,phase_2,go,500.0,450.0,1.0,,,,,,,,,magenta,diamond
0.0,7.0,3.0,1.0,5.0,5.0,330.6840290001673,2.0,1.0,phase_2,stop,500.0,450.0,3.0,,,,,,,,,orange,triangle
0.0,4.0,4.0,0.0,5.0,5.0,707.4874280001495,2.0,1.0,phase_2,go,450.0,450.0,1.0,,,,,,,,,cyan,I
0.0,1.0,1.0,0.0,5.0,5.0,792.01727499958,2.0,1.0,phase_2,go,450.0,450.0,1.0,,,,,,,,,blue,flipped triangle
0.0,3.0,3.0,0.0,6.0,6.0,839.3231320001178,2.0,1.0,phase_2,go,450.0,450.0,1.0,,,,,,,,,green,cross
0.0,1.0,1.0,0.0,5.0,5.0,642.1542119996957,2.0,1.0,phase_2,go,450.0,450.0,1.0,,,,,,,,,blue,flipped triangle
0.0,1.0,1.0,0.0,5.0,5.0,707.5650450001376,2.0,1.0,phase_2,go,450.0,450.0,1.0,,,,,,,,,blue,flipped triangle
0.0,1.0,1.0,0.0,5.0,5.0,594.4421720000719,2.0,1.0,phase_2,go,450.0,450.0,1.0,,,,,,,,,blue,flipped triangle
0.0,5.0,1.0,1.0,5.0,5.0,550.4571210003633,2.0,1.0,phase_2,stop,450.0,450.0,3.0,,,,,,,,,white,hexagon
0.0,1.0,1.0,0.0,6.0,6.0,1037.4018099996647,2.0,1.0,phase_2,go,400.0,450.0,1.0,,,,,,,,,blue,flipped triangle
0.0,2.0,2.0,0.0,5.0,5.0,615.509148000001,2.0,1.0,phase_2,go,400.0,450.0,1.0,,,,,,,,,magenta,diamond
0.0,2.0,2.0,0.0,6.0,6.0,661.2556869999935,2.0,1.0,phase_2,go,400.0,450.0,1.0,,,,,,,,,magenta,diamond
0.0,6.0,2.0,1.0,5.0,5.0,340.4269399998156,2.0,1.0,phase_2,go,400.0,450.0,1.0,,,,,,,,,yellow,square
0.0,5.0,1.0,1.0,6.0,6.0,604.2959430001247,2.0,1.0,phase_2,stop,400.0,450.0,3.0,,,,,,,,,white,hexagon
0.0,6.0,2.0,1.0,5.0,0.0,0.0,2.0,1.0,phase_2,stop,400.0,400.0,4.0,,,,,,,,,yellow,square
0.0,6.0,2.0,1.0,6.0,6.0,1029.4643350002843,2.0,1.0,phase_2,go,450.0,400.0,1.0,,,,,,,,,yellow,square
0.0,7.0,3.0,1.0,5.0,5.0,641.374547000396,2.0,1.0,phase_2,go,450.0,400.0,1.0,,,,,,,,,orange,triangle
0.0,5.0,1.0,1.0,5.0,0.0,0.0,2.0,1.0,phase_2,stop,450.0,400.0,4.0,,,,,,,,,white,hexagon
0.0,4.0,4.0,0.0,5.0,5.0,595.5714409997199,2.0,1.0,phase_2,go,500.0,400.0,1.0,,,,,,,,,cyan,I
0.0,4.0,4.0,0.0,6.0,6.0,472.6673469999696,2.0,1.0,phase_2,go,500.0,400.0,1.0,,,,,,,,,cyan,I
0.0,1.0,1.0,0.0,5.0,5.0,528.9999100000387,2.0,1.0,phase_2,go,500.0,400.0,1.0,,,,,,,,,blue,flipped triangle
0.0,4.0,4.0,0.0,6.0,6.0,480.5534369997986,2.0,1.0,phase_2,go,500.0,400.0,1.0,,,,,,,,,cyan,I
0.0,3.0,3.0,0.0,5.0,5.0,367.863400999795,3.0,1.0,phase_2,go,500.0,400.0,1.0,,,,,,,,,green,cross
0.0,6.0,2.0,1.0,5.0,5.0,303.2831770001394,3.0,1.0,phase_2,stop,500.0,400.0,3.0,,,,,,,,,yellow,square
0.0,8.0,4.0,1.0,5.0,5.0,512.4398099997052,3.0,1.0,phase_2,stop,450.0,400.0,3.0,,,,,,,,,gray,circle
0.0,6.0,2.0,1.0,5.0,5.0,607.0653579999998,3.0,1.0,phase_2,stop,400.0,400.0,3.0,,,,,,,,,yellow,square
0.0,3.0,3.0,0.0,5.0,5.0,339.5754879998094,3.0,1.0,phase_2,go,350.0,400.0,1.0,,,,,,,,,green,cross
0.0,1.0,1.0,0.0,6.0,6.0,491.3215359997593,3.0,1.0,phase_2,go,350.0,400.0,1.0,,,,,,,,,blue,flipped triangle
0.0,4.0,4.0,0.0,5.0,5.0,312.1497340002861,3.0,1.0,phase_2,go,350.0,400.0,1.0,,,,,,,,,cyan,I
0.0,1.0,1.0,0.0,5.0,5.0,453.7259709995851,3.0,1.0,phase_2,go,350.0,400.0,1.0,,,,,,,,,blue,flipped triangle
0.0,1.0,1.0,0.0,6.0,6.0,332.0176060005906,3.0,1.0,phase_2,go,350.0,400.0,1.0,,,,,,,,,blue,flipped triangle
0.0,3.0,3.0,0.0,5.0,5.0,709.6208009998008,3.0,1.0,phase_2,go,350.0,400.0,1.0,,,,,,,,,green,cross
0.0,2.0,2.0,0.0,5.0,5.0,414.8796250001396,3.0,1.0,phase_2,go,350.0,400.0,1.0,,,,,,,,,magenta,diamond
0.0,7.0,3.0,1.0,6.0,6.0,312.4289940005837,3.0,1.0,phase_2,stop,350.0,400.0,3.0,,,,,,,,,orange,triangle
0.0,5.0,1.0,1.0,5.0,0.0,0.0,3.0,1.0,phase_2,stop,350.0,350.0,4.0,,,,,,,,,white,hexagon
0.0,7.0,3.0,1.0,5.0,5.0,715.3939400004674,3.0,1.0,phase_2,go,400.0,350.0,1.0,,,,,,,,,orange,triangle
0.0,7.0,3.0,1.0,5.0,5.0,471.7902590000449,3.0,1.0,phase_2,go,400.0,350.0,1.0,,,,,,,,,orange,triangle
0.0,7.0,3.0,1.0,5.0,5.0,496.2639329996818,3.0,1.0,phase_2,stop,400.0,350.0,3.0,,,,,,,,,orange,triangle
0.0,5.0,1.0,1.0,5.0,0.0,0.0,3.0,1.0,phase_2,stop,350.0,350.0,4.0,,,,,,,,,white,hexagon
0.0,4.0,4.0,0.0,6.0,6.0,330.7350750001205,3.0,1.0,phase_2,go,400.0,350.0,1.0,,,,,,,,,cyan,I
0.0,5.0,1.0,1.0,5.0,5.0,435.755780999898,3.0,1.0,phase_2,go,400.0,350.0,1.0,,,,,,,,,white,hexagon
0.0,8.0,4.0,1.0,5.0,0.0,0.0,3.0,1.0,phase_2,stop,400.0,350.0,4.0,,,,,,,,,gray,circle
0.0,3.0,3.0,0.0,6.0,6.0,472.2254109992718,3.0,1.0,phase_2,go,450.0,350.0,1.0,,,,,,,,,green,cross
0.0,8.0,4.0,1.0,5.0,5.0,744.4337009992523,3.0,1.0,phase_2,go,450.0,350.0,1.0,,,,,,,,,gray,circle
0.0,2.0,2.0,0.0,6.0,6.0,480.925474000287,3.0,1.0,phase_2,go,450.0,350.0,1.0,,,,,,,,,magenta,diamond
0.0,8.0,4.0,1.0,6.0,6.0,405.224580000322,3.0,1.0,phase_2,go,450.0,350.0,1.0,,,,,,,,,gray,circle
0.0,1.0,1.0,0.0,6.0,6.0,471.5418539999518,3.0,1.0,phase_2,go,450.0,350.0,1.0,,,,,,,,,blue,flipped triangle
0.0,8.0,4.0,1.0,6.0,6.0,454.0161180002542,3.0,1.0,phase_2,stop,450.0,350.0,3.0,,,,,,,,,gray,circle
0.0,1.0,1.0,0.0,6.0,6.0,489.8980530006156,3.0,1.0,phase_2,go,450.0,300.0,1.0,,,,,,,,,blue,flipped triangle
0.0,8.0,4.0,1.0,5.0,5.0,541.158574000292,3.0,1.0,phase_2,stop,450.0,300.0,3.0,,,,,,,,,gray,circle
0.0,1.0,1.0,0.0,5.0,5.0,563.9802200003032,3.0,1.0,phase_2,go,400.0,300.0,1.0,,,,,,,,,blue,flipped triangle
0.0,6.0,2.0,1.0,5.0,0.0,0.0,3.0,1.0,phase_2,stop,400.0,300.0,4.0,,,,,,,,,yellow,square
0.0,6.0,2.0,1.0,5.0,0.0,0.0,3.0,1.0,phase_2,stop,450.0,300.0,4.0,,,,,,,,,yellow,square
0.0,7.0,3.0,1.0,6.0,6.0,535.9098979997725,3.0,1.0,phase_2,go,500.0,300.0,1.0,,,,,,,,,orange,triangle
0.0,6.0,2.0,1.0,6.0,0.0,0.0,3.0,1.0,phase_2,stop,500.0,300.0,4.0,,,,,,,,,yellow,square
0.0,8.0,4.0,1.0,5.0,5.0,551.201731999754,3.0,1.0,phase_2,stop,500.0,350.0,3.0,,,,,,,,,gray,circle
0.0,3.0,3.0,0.0,5.0,5.0,694.889924000563,3.0,1.0,phase_2,go,450.0,350.0,1.0,,,,,,,,,green,cross
0.0,1.0,1.0,0.0,5.0,5.0,490.8175000000483,3.0,1.0,phase_2,go,450.0,350.0,1.0,,,,,,,,,blue,flipped triangle
0.0,1.0,1.0,0.0,6.0,6.0,519.562292000046,4.0,1.0,phase_2,go,450.0,350.0,1.0,,,,,,,,,blue,flipped triangle
0.0,7.0,3.0,1.0,5.0,5.0,292.5738869998895,4.0,1.0,phase_2,stop,450.0,350.0,3.0,,,,,,,,,orange,triangle
0.0,7.0,3.0,1.0,6.0,6.0,321.5387149994058,4.0,1.0,phase_2,stop,400.0,350.0,3.0,,,,,,,,,orange,triangle
0.0,4.0,4.0,0.0,5.0,5.0,517.9225970005064,4.0,1.0,phase_2,go,400.0,300.0,1.0,,,,,,,,,cyan,I
0.0,2.0,2.0,0.0,6.0,6.0,292.4858490005135,4.0,1.0,phase_2,go,400.0,300.0,1.0,,,,,,,,,magenta,diamond
0.0,4.0,4.0,0.0,5.0,5.0,508.43467400045483,4.0,1.0,phase_2,go,400.0,300.0,1.0,,,,,,,,,cyan,I
0.0,4.0,4.0,0.0,5.0,5.0,320.1833909997731,4.0,1.0,phase_2,go,400.0,300.0,1.0,,,,,,,,,cyan,I
0.0,2.0,2.0,0.0,5.0,5.0,311.4604799993685,4.0,1.0,phase_2,go,400.0,300.0,1.0,,,,,,,,,magenta,diamond
0.0,8.0,4.0,1.0,5.0,5.0,678.9991030000238,4.0,1.0,phase_2,stop,400.0,300.0,3.0,,,,,,,,,gray,circle
0.0,3.0,3.0,0.0,6.0,6.0,575.41423100065,4.0,1.0,phase_2,go,350.0,300.0,1.0,,,,,,,,,green,cross
0.0,2.0,2.0,0.0,6.0,6.0,538.5923769999863,4.0,1.0,phase_2,go,350.0,300.0,1.0,,,,,,,,,magenta,diamond
0.0,3.0,3.0,0.0,6.0,6.0,726.1540420004167,4.0,1.0,phase_2,go,350.0,300.0,1.0,,,,,,,,,green,cross
0.0,5.0,1.0,1.0,6.0,6.0,913.006908999705,4.0,1.0,phase_2,go,350.0,300.0,1.0,,,,,,,,,white,hexagon
0.0,3.0,3.0,0.0,6.0,6.0,641.2793570007125,4.0,1.0,phase_2,go,350.0,300.0,1.0,,,,,,,,,green,cross
0.0,2.0,2.0,0.0,5.0,5.0,575.1268809999601,4.0,1.0,phase_2,go,350.0,300.0,1.0,,,,,,,,,magenta,diamond
0.0,3.0,3.0,0.0,6.0,6.0,517.9404359996624,4.0,1.0,phase_2,go,350.0,300.0,1.0,,,,,,,,,green,cross
0.0,7.0,3.0,1.0,6.0,6.0,649.7565230001783,4.0,1.0,phase_2,go,350.0,300.0,1.0,,,,,,,,,orange,triangle
0.0,5.0,1.0,1.0,6.0,0.0,0.0,4.0,1.0,phase_2,stop,350.0,300.0,4.0,,,,,,,,,white,hexagon
0.0,8.0,4.0,1.0,5.0,5.0,1021.0630769997806,4.0,1.0,phase_2,go,350.0,350.0,1.0,,,,,,,,,gray,circle
0.0,4.0,4.0,0.0,6.0,6.0,555.0468960000217,4.0,1.0,phase_2,go,350.0,350.0,1.0,,,,,,,,,cyan,I
0.0,5.0,1.0,1.0,6.0,0.0,0.0,4.0,1.0,phase_2,stop,350.0,350.0,4.0,,,,,,,,,white,hexagon
0.0,7.0,3.0,1.0,6.0,0.0,0.0,4.0,1.0,phase_2,stop,350.0,400.0,4.0,,,,,,,,,orange,triangle
0.0,5.0,1.0,1.0,5.0,0.0,0.0,4.0,1.0,phase_2,stop,350.0,450.0,4.0,,,,,,,,,white,hexagon
0.0,5.0,1.0,1.0,5.0,5.0,688.6519050003699,4.0,1.0,phase_2,go,400.0,450.0,1.0,,,,,,,,,white,hexagon
0.0,5.0,1.0,1.0,5.0,0.0,0.0,4.0,1.0,phase_2,stop,400.0,450.0,4.0,,,,,,,,,white,hexagon
0.0,1.0,1.0,0.0,5.0,5.0,509.56986300025164,4.0,1.0,phase_2,go,450.0,450.0,1.0,,,,,,,,,blue,flipped triangle
0.0,2.0,2.0,0.0,5.0,5.0,594.0577279998251,4.0,1.0,phase_2,go,450.0,450.0,1.0,,,,,,,,,magenta,diamond
0.0,4.0,4.0,0.0,6.0,6.0,557.446402000096,4.0,1.0,phase_2,go,450.0,450.0,1.0,,,,,,,,,cyan,I
0.0,6.0,2.0,1.0,6.0,6.0,651.2291620001633,4.0,1.0,phase_2,stop,450.0,450.0,3.0,,,,,,,,,yellow,square
0.0,4.0,4.0,0.0,5.0,5.0,555.1629320007123,4.0,1.0,phase_2,go,450.0,400.0,1.0,,,,,,,,,cyan,I
0.0,1.0,1.0,0.0,5.0,5.0,519.2259309997098,4.0,1.0,phase_2,go,450.0,400.0,1.0,,,,,,,,,blue,flipped triangle
0.0,8.0,4.0,1.0,6.0,0.0,0.0,4.0,1.0,phase_2,stop,450.0,400.0,4.0,,,,,,,,,gray,circle
0.0,8.0,4.0,1.0,5.0,0.0,0.0,4.0,1.0,phase_2,stop,450.0,450.0,4.0,,,,,,,,,gray,circle
0.0,2.0,2.0,0.0,6.0,6.0,603.7722660003055,4.0,1.0,phase_2,go,500.0,450.0,1.0,,,,,,,,,magenta,diamond
0.0,4.0,4.0,0.0,5.0,5.0,526.6882989999431,4.0,1.0,phase_2,go,500.0,450.0,1.0,,,,,,,,,cyan,I
0.0,5.0,1.0,1.0,5.0,5.0,651.6209470000831,4.0,1.0,phase_2,go,500.0,450.0,1.0,,,,,,,,,white,hexagon
0.0,2.0,2.0,0.0,5.0,5.0,623.2158769998932,5.0,1.0,phase_2,go,500.0,450.0,1.0,,,,,,,,,magenta,diamond
0.0,6.0,2.0,1.0,5.0,0.0,0.0,5.0,1.0,phase_2,stop,500.0,450.0,4.0,,,,,,,,,yellow,square
0.0,8.0,4.0,1.0,6.0,0.0,0.0,5.0,1.0,phase_2,stop,550.0,450.0,4.0,,,,,,,,,gray,circle
0.0,1.0,1.0,0.0,6.0,6.0,546.6980860001058,5.0,1.0,phase_2,go,550.0,500.0,1.0,,,,,,,,,blue,flipped triangle
0.0,3.0,3.0,0.0,5.0,5.0,539.3685549997826,5.0,1.0,phase_2,go,550.0,500.0,1.0,,,,,,,,,green,cross
0.0,5.0,1.0,1.0,6.0,6.0,859.1071760001796,5.0,1.0,phase_2,go,550.0,500.0,1.0,,,,,,,,,white,hexagon
0.0,7.0,3.0,1.0,6.0,6.0,472.0433550000962,5.0,1.0,phase_2,stop,550.0,500.0,3.0,,,,,,,,,orange,triangle
0.0,6.0,2.0,1.0,5.0,5.0,657.2295250007301,5.0,1.0,phase_2,stop,550.0,450.0,3.0,,,,,,,,,yellow,square
0.0,2.0,2.0,0.0,5.0,5.0,566.2912600000709,5.0,1.0,phase_2,go,500.0,450.0,1.0,,,,,,,,,magenta,diamond
0.0,2.0,2.0,0.0,5.0,5.0,564.8379189997286,5.0,1.0,phase_2,go,500.0,450.0,1.0,,,,,,,,,magenta,diamond
0.0,3.0,3.0,0.0,5.0,5.0,764.4203850004487,5.0,1.0,phase_2,go,500.0,450.0,1.0,,,,,,,,,green,cross
0.0,4.0,4.0,0.0,5.0,5.0,547.8874219998033,5.0,1.0,phase_2,go,500.0,450.0,1.0,,,,,,,,,cyan,I
0.0,3.0,3.0,0.0,6.0,6.0,556.2513980003132,5.0,1.0,phase_2,go,500.0,450.0,1.0,,,,,,,,,green,cross
0.0,5.0,1.0,1.0,5.0,5.0,643.0038300004526,5.0,1.0,phase_2,stop,500.0,450.0,3.0,,,,,,,,,white,hexagon
0.0,6.0,2.0,1.0,6.0,0.0,0.0,5.0,1.0,phase_2,stop,450.0,450.0,4.0,,,,,,,,,yellow,square
0.0,3.0,3.0,0.0,5.0,5.0,585.0806889993692,5.0,1.0,phase_2,go,450.0,500.0,1.0,,,,,,,,,green,cross
0.0,4.0,4.0,0.0,5.0,5.0,491.6540619997249,5.0,1.0,phase_2,go,450.0,500.0,1.0,,,,,,,,,cyan,I
0.0,1.0,1.0,0.0,6.0,6.0,432.2243119995619,5.0,1.0,phase_2,go,450.0,500.0,1.0,,,,,,,,,blue,flipped triangle
0.0,3.0,3.0,0.0,5.0,5.0,545.8122860000003,5.0,1.0,phase_2,go,450.0,500.0,1.0,,,,,,,,,green,cross
0.0,6.0,2.0,1.0,6.0,6.0,707.9335609996633,5.0,1.0,phase_2,stop,450.0,500.0,3.0,,,,,,,,,yellow,square
0.0,2.0,2.0,0.0,5.0,5.0,575.2881720000005,5.0,1.0,phase_2,go,450.0,450.0,1.0,,,,,,,,,magenta,diamond
0.0,1.0,1.0,0.0,6.0,6.0,557.042322999223,5.0,1.0,phase_2,go,450.0,450.0,1.0,,,,,,,,,blue,flipped triangle
0.0,3.0,3.0,0.0,6.0,6.0,680.7012859999304,5.0,1.0,phase_2,go,450.0,450.0,1.0,,,,,,,,,green,cross
0.0,3.0,3.0,0.0,6.0,6.0,517.8442700007508,5.0,1.0,phase_2,go,450.0,450.0,1.0,,,,,,,,,green,cross
0.0,6.0,2.0,1.0,5.0,5.0,338.7745039999572,5.0,1.0,phase_2,stop,450.0,450.0,3.0,,,,,,,,,yellow,square
0.0,7.0,3.0,1.0,6.0,6.0,536.1496490004356,5.0,1.0,phase_2,stop,400.0,450.0,3.0,,,,,,,,,orange,triangle
0.0,7.0,3.0,1.0,6.0,6.0,554.9677879998853,5.0,1.0,phase_2,stop,400.0,400.0,3.0,,,,,,,,,orange,triangle
0.0,2.0,2.0,0.0,5.0,5.0,574.1611779994855,5.0,1.0,phase_2,go,400.0,350.0,1.0,,,,,,,,,magenta,diamond
0.0,2.0,2.0,0.0,6.0,6.0,567.0345509997787,5.0,1.0,phase_2,go,400.0,350.0,1.0,,,,,,,,,magenta,diamond
0.0,2.0,2.0,0.0,5.0,5.0,595.2736179997373,5.0,1.0,phase_2,go,400.0,350.0,1.0,,,,,,,,,magenta,diamond
0.0,5.0,1.0,1.0,6.0,6.0,829.1817330000413,5.0,1.0,phase_2,go,400.0,350.0,1.0,,,,,,,,,white,hexagon
0.0,7.0,3.0,1.0,6.0,0.0,0.0,5.0,1.0,phase_2,stop,400.0,350.0,4.0,,,,,,,,,orange,triangle
0.0,3.0,3.0,0.0,5.0,5.0,549.4109989995195,5.0,1.0,phase_2,go,400.0,400.0,1.0,,,,,,,,,green,cross
0.0,4.0,4.0,0.0,6.0,6.0,537.783157999911,5.0,1.0,phase_2,go,400.0,400.0,1.0,,,,,,,,,cyan,I
0.0,8.0,4.0,1.0,6.0,6.0,331.3812800006417,5.0,1.0,phase_2,stop,400.0,400.0,3.0,,,,,,,,,gray,circle
0.0,1.0,1.0,0.0,6.0,6.0,613.9774209996176,5.0,1.0,phase_2,go,400.0,350.0,1.0,,,,,,,,,blue,flipped triangle
0.0,2.0,2.0,0.0,6.0,6.0,586.4203130004171,6.0,1.0,phase_2,go,400.0,350.0,1.0,,,,,,,,,magenta,diamond
0.0,5.0,1.0,1.0,6.0,6.0,329.8977969998304,6.0,1.0,phase_2,stop,400.0,350.0,3.0,,,,,,,,,white,hexagon
0.0,7.0,3.0,1.0,5.0,5.0,613.0949489997874,6.0,1.0,phase_2,go,400.0,300.0,1.0,,,,,,,,,orange,triangle
0.0,4.0,4.0,0.0,5.0,5.0,537.4967859997923,6.0,1.0,phase_2,go,400.0,300.0,1.0,,,,,,,,,cyan,I
0.0,2.0,2.0,0.0,5.0,5.0,491.6408270000829,6.0,1.0,phase_2,go,400.0,300.0,1.0,,,,,,,,,magenta,diamond
0.0,7.0,3.0,1.0,6.0,0.0,0.0,6.0,1.0,phase_2,stop,400.0,300.0,4.0,,,,,,,,,orange,triangle
0.0,2.0,2.0,0.0,6.0,6.0,546.8284220005444,6.0,1.0,phase_2,go,400.0,350.0,1.0,,,,,,,,,magenta,diamond
0.0,5.0,1.0,1.0,6.0,0.0,0.0,6.0,1.0,phase_2,stop,400.0,350.0,4.0,,,,,,,,,white,hexagon
0.0,6.0,2.0,1.0,6.0,6.0,637.3966490000385,6.0,1.0,phase_2,stop,400.0,400.0,3.0,,,,,,,,,yellow,square
0.0,3.0,3.0,0.0,5.0,5.0,567.0134430001781,6.0,1.0,phase_2,go,400.0,350.0,1.0,,,,,,,,,green,cross
0.0,8.0,4.0,1.0,5.0,5.0,358.8264729996808,6.0,1.0,phase_2,stop,400.0,350.0,3.0,,,,,,,,,gray,circle
0.0,1.0,1.0,0.0,6.0,6.0,508.53808200008643,6.0,1.0,phase_2,go,350.0,350.0,1.0,,,,,,,,,blue,flipped triangle
0.0,3.0,3.0,0.0,5.0,5.0,499.8100570001043,6.0,1.0,phase_2,go,350.0,350.0,1.0,,,,,,,,,green,cross
0.0,3.0,3.0,0.0,6.0,6.0,566.240268999536,6.0,1.0,phase_2,go,350.0,350.0,1.0,,,,,,,,,green,cross
0.0,7.0,3.0,1.0,5.0,5.0,585.4893480000101,6.0,1.0,phase_2,go,350.0,350.0,1.0,,,,,,,,,orange,triangle
0.0,7.0,3.0,1.0,6.0,6.0,535.6383680000363,6.0,1.0,phase_2,stop,350.0,350.0,3.0,,,,,,,,,orange,triangle
0.0,1.0,1.0,0.0,5.0,5.0,519.6025870000085,6.0,1.0,phase_2,go,350.0,300.0,1.0,,,,,,,,,blue,flipped triangle
0.0,2.0,2.0,0.0,6.0,6.0,330.8985459998439,6.0,1.0,phase_2,go,350.0,300.0,1.0,,,,,,,,,magenta,diamond
0.0,7.0,3.0,1.0,6.0,0.0,0.0,6.0,1.0,phase_2,stop,350.0,300.0,4.0,,,,,,,,,orange,triangle
0.0,6.0,2.0,1.0,5.0,5.0,754.2507360003583,6.0,1.0,phase_2,go,350.0,350.0,1.0,,,,,,,,,yellow,square
0.0,5.0,1.0,1.0,5.0,5.0,641.590155000813,6.0,1.0,phase_2,go,350.0,350.0,1.0,,,,,,,,,white,hexagon
0.0,6.0,2.0,1.0,6.0,0.0,0.0,6.0,1.0,phase_2,stop,350.0,350.0,4.0,,,,,,,,,yellow,square
0.0,4.0,4.0,0.0,5.0,5.0,519.3734869999389,6.0,1.0,phase_2,go,350.0,400.0,1.0,,,,,,,,,cyan,I
0.0,5.0,1.0,1.0,5.0,5.0,697.6575589997083,6.0,1.0,phase_2,go,350.0,400.0,1.0,,,,,,,,,white,hexagon
0.0,5.0,1.0,1.0,6.0,0.0,0.0,6.0,1.0,phase_2,stop,350.0,400.0,4.0,,,,,,,,,white,hexagon
0.0,6.0,2.0,1.0,6.0,6.0,867.0167769996624,6.0,1.0,phase_2,go,350.0,450.0,1.0,,,,,,,,,yellow,square
0.0,4.0,4.0,0.0,5.0,5.0,490.0316899993413,6.0,1.0,phase_2,go,350.0,450.0,1.0,,,,,,,,,cyan,I
0.0,3.0,3.0,0.0,6.0,6.0,585.3922559999774,6.0,1.0,phase_2,go,350.0,450.0,1.0,,,,,,,,,green,cross
0.0,1.0,1.0,0.0,5.0,5.0,424.2286589997093,6.0,1.0,phase_2,go,350.0,450.0,1.0,,,,,,,,,blue,flipped triangle
0.0,3.0,3.0,0.0,6.0,6.0,479.9932639998587,6.0,1.0,phase_2,go,350.0,450.0,1.0,,,,,,,,,green,cross
0.0,3.0,3.0,0.0,5.0,5.0,444.13471200005,6.0,1.0,phase_2,go,350.0,450.0,1.0,,,,,,,,,green,cross
0.0,8.0,4.0,1.0,6.0,6.0,669.1426540000975,6.0,1.0,phase_2,go,350.0,450.0,1.0,,,,,,,,,gray,circle
0.0,8.0,4.0,1.0,6.0,0.0,0.0,6.0,1.0,phase_2,stop,350.0,450.0,4.0,,,,,,,,,gray,circle
0.0,3.0,3.0,0.0,6.0,6.0,574.9521280004046,6.0,1.0,phase_2,go,350.0,500.0,1.0,,,,,,,,,green,cross
0.0,6.0,2.0,1.0,6.0,6.0,614.5623339998565,6.0,1.0,phase_2,go,350.0,500.0,1.0,,,,,,,,,yellow,square
0.0,2.0,2.0,0.0,6.0,6.0,350.3983480004535,6.0,1.0,phase_2,go,350.0,500.0,1.0,,,,,,,,,magenta,diamond
0.0,6.0,2.0,1.0,6.0,6.0,415.4352229998039,7.0,1.0,phase_2,stop,350.0,500.0,3.0,,,,,,,,,yellow,square
0.0,2.0,2.0,0.0,5.0,5.0,509.32169600037014,7.0,1.0,phase_2,go,350.0,450.0,1.0,,,,,,,,,magenta,diamond
0.0,2.0,2.0,0.0,5.0,5.0,319.524444000308,7.0,1.0,phase_2,go,350.0,450.0,1.0,,,,,,,,,magenta,diamond
0.0,1.0,1.0,0.0,5.0,5.0,357.6589590002186,7.0,1.0,phase_2,go,350.0,450.0,1.0,,,,,,,,,blue,flipped triangle
0.0,3.0,3.0,0.0,5.0,5.0,311.323228999754,7.0,1.0,phase_2,go,350.0,450.0,1.0,,,,,,,,,green,cross
0.0,7.0,3.0,1.0,6.0,6.0,424.3631709996407,7.0,1.0,phase_2,stop,350.0,450.0,3.0,,,,,,,,,orange,triangle
0.0,5.0,1.0,1.0,6.0,6.0,579.0954110007078,7.0,1.0,phase_2,stop,350.0,400.0,3.0,,,,,,,,,white,hexagon
0.0,5.0,1.0,1.0,6.0,0.0,0.0,7.0,1.0,phase_2,stop,350.0,350.0,4.0,,,,,,,,,white,hexagon
0.0,3.0,3.0,0.0,6.0,6.0,565.8139779998237,7.0,1.0,phase_2,go,350.0,400.0,1.0,,,,,,,,,green,cross
0.0,4.0,4.0,0.0,6.0,6.0,610.843118000048,7.0,1.0,phase_2,go,350.0,400.0,1.0,,,,,,,,,cyan,I
0.0,2.0,2.0,0.0,5.0,5.0,452.3222530006023,7.0,1.0,phase_2,go,350.0,400.0,1.0,,,,,,,,,magenta,diamond
0.0,7.0,3.0,1.0,5.0,5.0,348.1526819996361,7.0,1.0,phase_2,stop,350.0,400.0,3.0,,,,,,,,,orange,triangle
0.0,6.0,2.0,1.0,5.0,0.0,0.0,7.0,1.0,phase_2,stop,300.0,400.0,4.0,,,,,,,,,yellow,square
0.0,1.0,1.0,0.0,6.0,6.0,517.4844169996504,7.0,1.0,phase_2,go,350.0,400.0,1.0,,,,,,,,,blue,flipped triangle
0.0,2.0,2.0,0.0,5.0,5.0,329.5794280002155,7.0,1.0,phase_2,go,350.0,400.0,1.0,,,,,,,,,magenta,diamond
0.0,6.0,2.0,1.0,6.0,6.0,319.6734100001777,7.0,1.0,phase_2,stop,350.0,400.0,3.0,,,,,,,,,yellow,square
0.0,6.0,2.0,1.0,5.0,5.0,591.9593879998502,7.0,1.0,phase_2,go,350.0,350.0,1.0,,,,,,,,,yellow,square
0.0,8.0,4.0,1.0,6.0,0.0,0.0,7.0,1.0,phase_2,stop,350.0,350.0,4.0,,,,,,,,,gray,circle
0.0,7.0,3.0,1.0,6.0,6.0,559.5240700004069,7.0,1.0,phase_2,stop,350.0,400.0,3.0,,,,,,,,,orange,triangle
0.0,4.0,4.0,0.0,6.0,6.0,621.6421099998115,7.0,1.0,phase_2,go,350.0,350.0,1.0,,,,,,,,,cyan,I
0.0,8.0,4.0,1.0,5.0,5.0,676.9793630001004,7.0,1.0,phase_2,go,350.0,350.0,1.0,,,,,,,,,gray,circle
0.0,6.0,2.0,1.0,6.0,6.0,348.8409729998238,7.0,1.0,phase_2,go,350.0,350.0,1.0,,,,,,,,,yellow,square
0.0,4.0,4.0,0.0,6.0,6.0,507.149482999921,7.0,1.0,phase_2,go,350.0,350.0,1.0,,,,,,,,,cyan,I
0.0,7.0,3.0,1.0,5.0,5.0,587.0798599999034,7.0,1.0,phase_2,stop,350.0,350.0,3.0,,,,,,,,,orange,triangle
0.0,5.0,1.0,1.0,5.0,0.0,0.0,7.0,1.0,phase_2,stop,300.0,350.0,4.0,,,,,,,,,white,hexagon
0.0,6.0,2.0,1.0,5.0,5.0,742.4002570005541,7.0,1.0,phase_2,go,350.0,350.0,1.0,,,,,,,,,yellow,square
0.0,2.0,2.0,0.0,6.0,6.0,357.6968679999481,7.0,1.0,phase_2,go,350.0,350.0,1.0,,,,,,,,,magenta,diamond
0.0,7.0,3.0,1.0,5.0,0.0,0.0,7.0,1.0,phase_2,stop,350.0,350.0,4.0,,,,,,,,,orange,triangle
0.0,5.0,1.0,1.0,5.0,0.0,0.0,7.0,1.0,phase_2,stop,400.0,350.0,4.0,,,,,,,,,white,hexagon
0.0,3.0,3.0,0.0,5.0,5.0,555.2237980000427,7.0,1.0,phase_2,go,450.0,350.0,1.0,,,,,,,,,green,cross
0.0,3.0,3.0,0.0,6.0,6.0,338.506303000031,7.0,1.0,phase_2,go,450.0,350.0,1.0,,,,,,,,,green,cross
0.0,5.0,1.0,1.0,5.0,0.0,0.0,7.0,1.0,phase_2,stop,450.0,350.0,4.0,,,,,,,,,white,hexagon
0.0,3.0,3.0,0.0,5.0,5.0,545.8451719996447,7.0,1.0,phase_2,go,500.0,350.0,1.0,,,,,,,,,green,cross
0.0,6.0,2.0,1.0,5.0,0.0,0.0,7.0,1.0,phase_2,stop,500.0,350.0,4.0,,,,,,,,,yellow,square
0.0,1.0,1.0,0.0,6.0,6.0,404.5622950006873,7.0,1.0,phase_2,go,550.0,350.0,1.0,,,,,,,,,blue,flipped triangle
0.0,5.0,1.0,1.0,6.0,0.0,0.0,7.0,1.0,phase_2,stop,550.0,350.0,4.0,,,,,,,,,white,hexagon
0.0,5.0,1.0,1.0,6.0,6.0,339.8394539999572,8.0,1.0,phase_2,go,550.0,400.0,1.0,,,,,,,,,white,hexagon
0.0,5.0,1.0,1.0,5.0,5.0,713.3396600002015,8.0,1.0,phase_2,stop,550.0,400.0,3.0,,,,,,,,,white,hexagon
0.0,3.0,3.0,0.0,6.0,6.0,498.1351509995875,8.0,1.0,phase_2,go,500.0,400.0,1.0,,,,,,,,,green,cross
0.0,4.0,4.0,0.0,5.0,5.0,376.9936819999202,8.0,1.0,phase_2,go,500.0,400.0,1.0,,,,,,,,,cyan,I
0.0,2.0,2.0,0.0,6.0,6.0,311.2667270006568,8.0,1.0,phase_2,go,500.0,400.0,1.0,,,,,,,,,magenta,diamond
0.0,8.0,4.0,1.0,5.0,5.0,677.707097000166,8.0,1.0,phase_2,stop,500.0,400.0,3.0,,,,,,,,,gray,circle
0.0,7.0,3.0,1.0,6.0,6.0,311.1346340001546,8.0,1.0,phase_2,stop,450.0,400.0,3.0,,,,,,,,,orange,triangle
0.0,1.0,1.0,0.0,6.0,6.0,517.1852809999109,8.0,1.0,phase_2,go,450.0,350.0,1.0,,,,,,,,,blue,flipped triangle
0.0,6.0,2.0,1.0,6.0,0.0,0.0,8.0,1.0,phase_2,stop,450.0,350.0,4.0,,,,,,,,,yellow,square
0.0,1.0,1.0,0.0,5.0,5.0,536.4175100003195,8.0,1.0,phase_2,go,450.0,400.0,1.0,,,,,,,,,blue,flipped triangle
0.0,7.0,3.0,1.0,5.0,0.0,0.0,8.0,1.0,phase_2,stop,450.0,400.0,4.0,,,,,,,,,orange,triangle
0.0,1.0,1.0,0.0,5.0,5.0,592.7919380001185,8.0,1.0,phase_2,go,500.0,400.0,1.0,,,,,,,,,blue,flipped triangle
0.0,1.0,1.0,0.0,5.0,5.0,377.2897110002304,8.0,1.0,phase_2,go,500.0,400.0,1.0,,,,,,,,,blue,flipped triangle
0.0,8.0,4.0,1.0,6.0,0.0,0.0,8.0,1.0,phase_2,stop,500.0,400.0,4.0,,,,,,,,,gray,circle
0.0,8.0,4.0,1.0,6.0,0.0,0.0,8.0,1.0,phase_2,stop,500.0,450.0,4.0,,,,,,,,,gray,circle
0.0,4.0,4.0,0.0,5.0,5.0,490.7782350001071,8.0,1.0,phase_2,go,500.0,500.0,1.0,,,,,,,,,cyan,I
0.0,5.0,1.0,1.0,6.0,0.0,0.0,8.0,1.0,phase_2,stop,500.0,500.0,4.0,,,,,,,,,white,hexagon
0.0,7.0,3.0,1.0,5.0,5.0,745.0592969998979,8.0,1.0,phase_2,go,500.0,550.0,1.0,,,,,,,,,orange,triangle
0.0,8.0,4.0,1.0,6.0,6.0,367.882558999554,8.0,1.0,phase_2,stop,500.0,550.0,3.0,,,,,,,,,gray,circle
0.0,2.0,2.0,0.0,5.0,5.0,376.4049339997655,8.0,1.0,phase_2,go,500.0,500.0,1.0,,,,,,,,,magenta,diamond
0.0,6.0,2.0,1.0,5.0,5.0,807.7216809997481,8.0,1.0,phase_2,go,500.0,500.0,1.0,,,,,,,,,yellow,square
0.0,7.0,3.0,1.0,5.0,0.0,0.0,8.0,1.0,phase_2,stop,500.0,500.0,4.0,,,,,,,,,orange,triangle
0.0,2.0,2.0,0.0,6.0,6.0,338.8166659997296,8.0,1.0,phase_2,go,550.0,500.0,1.0,,,,,,,,,magenta,diamond
0.0,7.0,3.0,1.0,6.0,6.0,656.1097069998141,8.0,1.0,phase_2,stop,550.0,500.0,3.0,,,,,,,,,orange,triangle
0.0,7.0,3.0,1.0,5.0,5.0,518.5263970006417,8.0,1.0,phase_2,stop,550.0,450.0,3.0,,,,,,,,,orange,triangle
0.0,4.0,4.0,0.0,6.0,6.0,432.7799519996915,8.0,1.0,phase_2,go,500.0,450.0,1.0,,,,,,,,,cyan,I
0.0,3.0,3.0,0.0,6.0,6.0,440.1889589998973,8.0,1.0,phase_2,go,500.0,450.0,1.0,,,,,,,,,green,cross
0.0,8.0,4.0,1.0,6.0,6.0,366.4479720000599,8.0,1.0,phase_2,stop,500.0,450.0,3.0,,,,,,,,,gray,circle
0.0,1.0,1.0,0.0,5.0,5.0,385.3597409997746,8.0,1.0,phase_2,go,500.0,400.0,1.0,,,,,,,,,blue,flipped triangle
0.0,8.0,4.0,1.0,6.0,0.0,0.0,8.0,1.0,phase_2,stop,500.0,400.0,4.0,,,,,,,,,gray,circle
0.0,4.0,4.0,0.0,6.0,6.0,489.5861180002612,8.0,1.0,phase_2,go,500.0,450.0,1.0,,,,,,,,,cyan,I
0.0,5.0,1.0,1.0,5.0,5.0,330.5825070001447,8.0,1.0,phase_2,stop,500.0,450.0,3.0,,,,,,,,,white,hexagon
0.0,2.0,2.0,0.0,6.0,6.0,384.5315890002894,8.0,1.0,phase_2,go,450.0,450.0,1.0,,,,,,,,,magenta,diamond
0.0,8.0,4.0,1.0,5.0,5.0,329.7729919995618,8.0,1.0,phase_2,stop,450.0,450.0,3.0,,,,,,,,,gray,circle
0.0,6.0,2.0,1.0,6.0,0.0,0.0,8.0,1.0,phase_2,stop,400.0,450.0,4.0,,,,,,,,,yellow,square
0.0,4.0,4.0,0.0,5.0,5.0,452.3563349994219,8.0,1.0,phase_2,go,400.0,500.0,1.0,,,,,,,,,cyan,I
0.0,8.0,4.0,1.0,7.0,4.0,1564.4599360002758,1.0,2.0,phase_3,,,,,232.0,2.0,116.0,580.0,464.0,232.0,696.0,348.0,gray,circle
0.0,4.0,4.0,0.0,7.0,2.0,1508.8965469994946,1.0,1.0,phase_3,,,,,770.0,5.0,154.0,770.0,462.0,616.0,924.0,308.0,cyan,I
0.0,1.0,1.0,0.0,7.0,4.0,2715.1132990002225,1.0,1.0,phase_3,,,,,540.0,4.0,135.0,405.0,810.0,540.0,675.0,270.0,blue,flipped triangle
0.0,7.0,3.0,1.0,7.0,6.0,2350.0360540001566,1.0,1.0,phase_3,,,,,462.0,3.0,770.0,154.0,308.0,616.0,924.0,462.0,orange,triangle
0.0,3.0,3.0,0.0,7.0,5.0,2434.6894629998133,1.0,1.0,phase_3,,,,,616.0,4.0,770.0,154.0,462.0,308.0,616.0,924.0,green,cross
0.0,2.0,2.0,0.0,7.0,3.0,1758.9000180005314,1.0,1.0,phase_3,,,,,924.0,6.0,462.0,616.0,924.0,308.0,154.0,770.0,magenta,diamond
0.0,6.0,2.0,1.0,7.0,1.0,1414.849382000284,1.0,1.0,phase_3,,,,,308.0,2.0,308.0,616.0,770.0,462.0,924.0,154.0,yellow,square
0.0,5.0,1.0,1.0,7.0,6.0,3064.572594999845,1.0,1.0,phase_3,,,,,616.0,4.0,308.0,154.0,924.0,462.0,770.0,616.0,white,hexagon
0.0,8.0,4.0,1.0,7.0,6.0,2270.2407790002326,1.0,1.0,phase_3,,,,,308.0,2.0,462.0,616.0,924.0,154.0,770.0,308.0,gray,circle
0.0,4.0,4.0,0.0,7.0,3.0,2219.5505019999478,1.0,1.0,phase_3,,,,,810.0,6.0,540.0,135.0,810.0,675.0,405.0,270.0,cyan,I
0.0,8.0,4.0,1.0,7.0,5.0,2052.3644759996387,1.0,1.0,phase_3,,,,,865.0,5.0,173.0,346.0,1038.0,519.0,865.0,692.0,gray,circle
0.0,7.0,3.0,1.0,7.0,2.0,1367.7719719999004,1.0,1.0,phase_3,,,,,580.0,5.0,464.0,580.0,232.0,696.0,348.0,116.0,orange,triangle
0.0,6.0,2.0,1.0,7.0,5.0,2553.9874159994724,1.0,1.0,phase_3,,,,,232.0,2.0,116.0,464.0,580.0,696.0,232.0,348.0,yellow,square
0.0,1.0,1.0,0.0,7.0,1.0,2181.7221239998617,1.0,1.0,phase_3,,,,,540.0,4.0,540.0,135.0,405.0,270.0,810.0,675.0,blue,flipped triangle
0.0,8.0,4.0,1.0,7.0,6.0,2583.79650400002,1.0,1.0,phase_3,,,,,135.0,1.0,405.0,270.0,540.0,675.0,810.0,135.0,gray,circle
0.0,6.0,2.0,1.0,7.0,2.0,3841.627924000022,1.0,1.0,phase_3,,,,,173.0,1.0,865.0,173.0,1038.0,692.0,519.0,346.0,yellow,square
0.0,6.0,2.0,1.0,7.0,5.0,1863.656663000256,1.0,1.0,phase_3,,,,,116.0,1.0,348.0,696.0,580.0,232.0,116.0,464.0,yellow,square
0.0,3.0,3.0,0.0,7.0,3.0,2182.625317000202,1.0,1.0,phase_3,,,,,1152.0,6.0,192.0,768.0,1152.0,576.0,384.0,960.0,green,cross
0.0,7.0,3.0,1.0,7.0,6.0,1835.2430200002343,1.0,1.0,phase_3,,,,,135.0,1.0,540.0,405.0,810.0,675.0,270.0,135.0,orange,triangle
0.0,4.0,4.0,0.0,7.0,5.0,1440.31374899987,1.0,1.0,phase_3,,,,,810.0,6.0,270.0,675.0,405.0,540.0,810.0,135.0,cyan,I
0.0,8.0,4.0,1.0,7.0,5.0,1403.7108929996975,2.0,1.0,phase_3,,,,,192.0,1.0,768.0,576.0,960.0,1152.0,192.0,384.0,gray,circle
0.0,7.0,3.0,1.0,7.0,3.0,1705.9008240003095,2.0,1.0,phase_3,,,,,464.0,4.0,580.0,696.0,464.0,116.0,232.0,348.0,orange,triangle
0.0,3.0,3.0,0.0,7.0,5.0,2812.061675999757,2.0,1.0,phase_3,,,,,116.0,1.0,232.0,348.0,696.0,580.0,116.0,464.0,green,cross
0.0,8.0,4.0,1.0,7.0,2.0,1167.1547610003472,2.0,1.0,phase_3,,,,,116.0,1.0,232.0,116.0,580.0,348.0,696.0,464.0,gray,circle
0.0,7.0,3.0,1.0,7.0,5.0,2122.160322000127,2.0,1.0,phase_3,,,,,173.0,1.0,519.0,346.0,1038.0,865.0,173.0,692.0,orange,triangle
0.0,5.0,1.0,1.0,7.0,5.0,1364.7727530005795,2.0,1.0,phase_3,,,,,464.0,4.0,580.0,348.0,232.0,696.0,464.0,116.0,white,hexagon
0.0,4.0,4.0,0.0,7.0,4.0,732.1032529998774,2.0,1.0,phase_3,,,,,1038.0,6.0,173.0,346.0,692.0,1038.0,519.0,865.0,cyan,I
0.0,5.0,1.0,1.0,7.0,2.0,2793.919962000473,2.0,1.0,phase_3,,,,,192.0,1.0,576.0,192.0,768.0,1152.0,384.0,960.0,white,hexagon
0.0,2.0,2.0,0.0,7.0,1.0,3044.286256000305,2.0,1.0,phase_3,,,,,960.0,5.0,960.0,1152.0,192.0,768.0,576.0,384.0,magenta,diamond
0.0,2.0,2.0,0.0,7.0,3.0,3009.949979000339,2.0,1.0,phase_3,,,,,696.0,6.0,348.0,464.0,696.0,116.0,580.0,232.0,magenta,diamond
0.0,2.0,2.0,0.0,7.0,5.0,2026.281878999725,2.0,1.0,phase_3,,,,,540.0,4.0,135.0,270.0,675.0,810.0,540.0,405.0,magenta,diamond
0.0,7.0,3.0,1.0,7.0,5.0,1177.2871209996083,2.0,1.0,phase_3,,,,,192.0,1.0,960.0,1152.0,576.0,384.0,192.0,768.0,orange,triangle
0.0,6.0,2.0,1.0,7.0,6.0,1637.9980290003004,2.0,1.0,phase_3,,,,,192.0,1.0,768.0,960.0,576.0,1152.0,384.0,192.0,yellow,square
0.0,1.0,1.0,0.0,7.0,1.0,1253.5762510005952,2.0,1.0,phase_3,,,,,1038.0,6.0,1038.0,519.0,692.0,865.0,346.0,173.0,blue,flipped triangle
0.0,1.0,1.0,0.0,7.0,3.0,876.4996260006228,2.0,1.0,phase_3,,,,,1152.0,6.0,192.0,960.0,1152.0,384.0,576.0,768.0,blue,flipped triangle
0.0,8.0,4.0,1.0,7.0,1.0,1994.504784999663,2.0,1.0,phase_3,,,,,270.0,2.0,270.0,405.0,135.0,540.0,675.0,810.0,gray,circle
0.0,8.0,4.0,1.0,7.0,5.0,806.2444570005027,2.0,1.0,phase_3,,,,,576.0,3.0,960.0,1152.0,768.0,192.0,576.0,384.0,gray,circle
0.0,4.0,4.0,0.0,7.0,2.0,1703.6403680003789,2.0,1.0,phase_3,,,,,1152.0,6.0,192.0,1152.0,768.0,576.0,384.0,960.0,cyan,I
0.0,5.0,1.0,1.0,7.0,2.0,2929.4823489999544,2.0,1.0,phase_3,,,,,308.0,2.0,462.0,308.0,154.0,616.0,924.0,770.0,white,hexagon
0.0,2.0,2.0,0.0,7.0,6.0,3806.340977000218,2.0,1.0,phase_3,,,,,696.0,6.0,348.0,464.0,580.0,232.0,116.0,696.0,magenta,diamond
0.0,1.0,1.0,0.0,7.0,1.0,871.498098000302,3.0,1.0,phase_3,,,,,1152.0,6.0,1152.0,192.0,576.0,768.0,960.0,384.0,blue,flipped triangle
0.0,4.0,4.0,0.0,7.0,2.0,692.7697900000567,3.0,1.0,phase_3,,,,,1038.0,6.0,692.0,1038.0,173.0,346.0,865.0,519.0,cyan,I
0.0,2.0,2.0,0.0,7.0,3.0,1066.929294000147,3.0,1.0,phase_3,,,,,1152.0,6.0,768.0,960.0,1152.0,192.0,384.0,576.0,magenta,diamond
0.0,5.0,1.0,1.0,7.0,6.0,3172.074749000785,3.0,1.0,phase_3,,,,,692.0,4.0,519.0,1038.0,346.0,865.0,173.0,692.0,white,hexagon
0.0,5.0,1.0,1.0,7.0,6.0,918.6785810006768,3.0,1.0,phase_3,,,,,405.0,3.0,540.0,135.0,270.0,675.0,810.0,405.0,white,hexagon
0.0,1.0,1.0,0.0,7.0,4.0,3535.3393960003814,3.0,1.0,phase_3,,,,,696.0,6.0,232.0,348.0,116.0,696.0,580.0,464.0,blue,flipped triangle
0.0,4.0,4.0,0.0,7.0,2.0,1435.0783010004309,3.0,1.0,phase_3,,,,,1152.0,6.0,384.0,1152.0,768.0,960.0,192.0,576.0,cyan,I
0.0,3.0,3.0,0.0,7.0,5.0,1851.6819700007543,3.0,1.0,phase_3,,,,,462.0,3.0,616.0,308.0,770.0,924.0,462.0,154.0,green,cross
0.0,4.0,4.0,0.0,7.0,6.0,1629.475951000131,3.0,1.0,phase_3,,,,,696.0,6.0,116.0,464.0,232.0,580.0,348.0,696.0,cyan,I
0.0,1.0,1.0,0.0,7.0,6.0,1453.4655930001463,3.0,1.0,phase_3,,,,,924.0,6.0,308.0,770.0,154.0,616.0,462.0,924.0,blue,flipped triangle
0.0,4.0,4.0,0.0,7.0,2.0,1450.4571930001475,3.0,1.0,phase_3,,,,,616.0,4.0,770.0,616.0,924.0,462.0,308.0,154.0,cyan,I
0.0,5.0,1.0,1.0,7.0,2.0,2048.672601999897,3.0,1.0,phase_3,,,,,270.0,2.0,135.0,270.0,675.0,810.0,540.0,405.0,white,hexagon
0.0,2.0,2.0,0.0,7.0,1.0,2030.7360540000445,3.0,1.0,phase_3,,,,,1038.0,6.0,1038.0,173.0,346.0,865.0,519.0,692.0,magenta,diamond
0.0,1.0,1.0,0.0,7.0,1.0,3088.6935199996515,3.0,1.0,phase_3,,,,,696.0,6.0,696.0,464.0,232.0,348.0,116.0,580.0,blue,flipped triangle
0.0,8.0,4.0,1.0,7.0,1.0,2283.262154000113,3.0,1.0,phase_3,,,,,154.0,1.0,154.0,616.0,308.0,770.0,924.0,462.0,gray,circle
0.0,2.0,2.0,0.0,7.0,3.0,1143.2777530008025,3.0,1.0,phase_3,,,,,924.0,6.0,154.0,770.0,924.0,616.0,308.0,462.0,magenta,diamond
0.0,2.0,2.0,0.0,7.0,1.0,797.2163779995753,3.0,1.0,phase_3,,,,,1038.0,6.0,1038.0,519.0,692.0,346.0,865.0,173.0,magenta,diamond
0.0,6.0,2.0,1.0,7.0,5.0,1940.3280919996175,3.0,1.0,phase_3,,,,,270.0,2.0,675.0,810.0,405.0,135.0,270.0,540.0,yellow,square
0.0,3.0,3.0,0.0,7.0,5.0,2772.7720960001534,3.0,1.0,phase_3,,,,,810.0,6.0,135.0,270.0,675.0,405.0,810.0,540.0,green,cross
0.0,6.0,2.0,1.0,7.0,2.0,2216.6641889998573,3.0,1.0,phase_3,,,,,405.0,3.0,540.0,405.0,135.0,675.0,270.0,810.0,yellow,square
0.0,7.0,3.0,1.0,7.0,2.0,1546.4756810006293,4.0,1.0,phase_3,,,,,1038.0,6.0,865.0,1038.0,519.0,692.0,346.0,173.0,orange,triangle
0.0,1.0,1.0,0.0,7.0,5.0,553.2980830002998,4.0,1.0,phase_3,,,,,865.0,5.0,173.0,519.0,692.0,1038.0,865.0,346.0,blue,flipped triangle
0.0,5.0,1.0,1.0,7.0,5.0,1068.5565599997062,4.0,1.0,phase_3,,,,,116.0,1.0,696.0,580.0,232.0,464.0,116.0,348.0,white,hexagon
0.0,7.0,3.0,1.0,7.0,6.0,2708.1172570005947,4.0,1.0,phase_3,,,,,576.0,3.0,384.0,768.0,192.0,1152.0,960.0,576.0,orange,triangle
0.0,4.0,4.0,0.0,7.0,1.0,2720.297902999846,4.0,1.0,phase_3,,,,,696.0,6.0,696.0,580.0,232.0,464.0,348.0,116.0,cyan,I
0.0,3.0,3.0,0.0,7.0,6.0,1937.4401800005217,4.0,1.0,phase_3,,,,,580.0,5.0,232.0,464.0,696.0,348.0,116.0,580.0,green,cross
0.0,1.0,1.0,0.0,7.0,3.0,1327.1965180001644,4.0,1.0,phase_3,,,,,770.0,5.0,924.0,308.0,770.0,616.0,462.0,154.0,blue,flipped triangle
0.0,5.0,1.0,1.0,7.0,5.0,1087.507447000462,4.0,1.0,phase_3,,,,,384.0,2.0,1152.0,768.0,192.0,576.0,384.0,960.0,white,hexagon
0.0,3.0,3.0,0.0,7.0,3.0,1077.432587999283,4.0,1.0,phase_3,,,,,810.0,6.0,540.0,135.0,810.0,270.0,405.0,675.0,green,cross
0.0,6.0,2.0,1.0,7.0,3.0,3048.805576999257,4.0,1.0,phase_3,,,,,384.0,2.0,192.0,960.0,384.0,768.0,576.0,1152.0,yellow,square
0.0,3.0,3.0,0.0,7.0,2.0,1749.6517990002758,4.0,1.0,phase_3,,,,,1038.0,6.0,692.0,1038.0,519.0,346.0,865.0,173.0,green,cross
0.0,2.0,2.0,0.0,7.0,3.0,1792.818845999136,4.0,1.0,phase_3,,,,,675.0,5.0,270.0,405.0,675.0,540.0,810.0,135.0,magenta,diamond
0.0,6.0,2.0,1.0,7.0,2.0,1225.837935000527,4.0,1.0,phase_3,,,,,154.0,1.0,616.0,154.0,308.0,924.0,462.0,770.0,yellow,square
0.0,3.0,3.0,0.0,7.0,3.0,730.0979239998924,4.0,1.0,phase_3,,,,,1038.0,6.0,346.0,865.0,1038.0,519.0,173.0,692.0,green,cross
0.0,7.0,3.0,1.0,7.0,3.0,1769.1847169999164,4.0,1.0,phase_3,,,,,405.0,3.0,675.0,135.0,405.0,810.0,270.0,540.0,orange,triangle
0.0,6.0,2.0,1.0,7.0,6.0,2771.071918000416,4.0,1.0,phase_3,,,,,173.0,1.0,1038.0,519.0,865.0,346.0,692.0,173.0,yellow,square
0.0,3.0,3.0,0.0,7.0,3.0,1436.5856009999334,4.0,1.0,phase_3,,,,,1152.0,6.0,576.0,192.0,1152.0,960.0,768.0,384.0,green,cross
0.0,7.0,3.0,1.0,7.0,2.0,3099.088414000107,4.0,1.0,phase_3,,,,,154.0,1.0,308.0,154.0,924.0,770.0,616.0,462.0,orange,triangle
0.0,5.0,1.0,1.0,7.0,1.0,1128.7628549998772,4.0,1.0,phase_3,,,,,173.0,1.0,173.0,692.0,1038.0,346.0,865.0,519.0,white,hexagon
0.0,8.0,4.0,1.0,7.0,3.0,3149.47641299932,4.0,1.0,phase_3,,,,,173.0,1.0,692.0,1038.0,173.0,519.0,865.0,346.0,gray,circle
