raw_reward_magnitude,stim_reward,stepwise_reward_magnitude,paired_with_stopping,quadrant,response,reaction_time,block,num_trial_presentations,which_part,stop_signal_trial_type,left_SSD,right_SSD,accuracy,chosen_bidding_amount,chosen_bidding_level,possible_bid_1,possible_bid_2,possible_bid_3,possible_bid_4,possible_bid_5,possible_bid_6,color_text,shape_text
155.0,5.0,1.0,1.0,2.0,2.0,475.336519999928,1.0,1.0,part_1,,,,,,,,,,,,,green,I
168.0,1.0,1.0,0.0,3.0,3.0,614.2867200001092,1.0,1.0,part_1,,,,,,,,,,,,,gray,diamond
659.0,3.0,3.0,0.0,1.0,1.0,675.599874999989,1.0,1.0,part_1,,,,,,,,,,,,,orange,square
1286.0,4.0,4.0,0.0,2.0,2.0,544.9071739999454,1.0,1.0,part_1,,,,,,,,,,,,,magenta,flipped triangle
650.0,7.0,3.0,1.0,1.0,1.0,619.7090470000148,1.0,1.0,part_1,,,,,,,,,,,,,yellow,triangle
138.0,1.0,1.0,0.0,2.0,2.0,479.8967800002174,1.0,1.0,part_1,,,,,,,,,,,,,gray,diamond
652.0,3.0,3.0,0.0,4.0,4.0,489.1537970001991,1.0,2.0,part_1,,,,,,,,,,,,,orange,square
330.0,2.0,2.0,0.0,4.0,4.0,527.6462639999409,1.0,1.0,part_1,,,,,,,,,,,,,white,circle
0.0,2.0,0.0,0.0,1.0,1.0,544.6442510001361,1.0,1.0,part_1,,,,,,,,,,,,,white,circle
175.0,5.0,1.0,1.0,1.0,1.0,537.0283369998106,1.0,1.0,part_1,,,,,,,,,,,,,green,I
625.0,7.0,3.0,1.0,3.0,3.0,463.8032399998337,1.0,1.0,part_1,,,,,,,,,,,,,yellow,triangle
0.0,4.0,0.0,0.0,4.0,4.0,406.9583390000844,1.0,1.0,part_1,,,,,,,,,,,,,magenta,flipped triangle
151.0,1.0,1.0,0.0,1.0,1.0,666.1319240001831,1.0,1.0,part_1,,,,,,,,,,,,,gray,diamond
306.0,2.0,2.0,0.0,1.0,1.0,700.6096200002503,1.0,1.0,part_1,,,,,,,,,,,,,white,circle
326.0,2.0,2.0,0.0,1.0,1.0,554.766304000168,1.0,1.0,part_1,,,,,,,,,,,,,white,circle
161.0,5.0,1.0,1.0,4.0,4.0,490.5928929997571,1.0,1.0,part_1,,,,,,,,,,,,,green,I
318.0,2.0,2.0,0.0,1.0,1.0,730.6357160000516,1.0,1.0,part_1,,,,,,,,,,,,,white,circle
0.0,7.0,0.0,1.0,2.0,2.0,480.6871020000471,1.0,1.0,part_1,,,,,,,,,,,,,yellow,triangle
317.0,2.0,2.0,0.0,2.0,2.0,434.9134610001783,1.0,1.0,part_1,,,,,,,,,,,,,white,circle
341.0,6.0,2.0,1.0,3.0,3.0,509.19603500005906,1.0,1.0,part_1,,,,,,,,,,,,,cyan,hexagon
0.0,7.0,0.0,1.0,1.0,1.0,592.0698930003709,1.0,1.0,part_1,,,,,,,,,,,,,yellow,triangle
1307.0,4.0,4.0,0.0,3.0,3.0,444.3458690002444,1.0,1.0,part_1,,,,,,,,,,,,,magenta,flipped triangle
1303.0,8.0,4.0,1.0,4.0,4.0,554.1988300001321,1.0,1.0,part_1,,,,,,,,,,,,,blue,cross
182.0,1.0,1.0,0.0,1.0,1.0,721.6871969999374,1.0,1.0,part_1,,,,,,,,,,,,,gray,diamond
148.0,5.0,1.0,1.0,3.0,3.0,656.5313480000441,1.0,1.0,part_1,,,,,,,,,,,,,green,I
633.0,7.0,3.0,1.0,3.0,3.0,556.3743050001904,1.0,1.0,part_1,,,,,,,,,,,,,yellow,triangle
0.0,4.0,0.0,0.0,1.0,1.0,732.6966190003077,1.0,1.0,part_1,,,,,,,,,,,,,magenta,flipped triangle
660.0,7.0,3.0,1.0,4.0,4.0,545.274936000169,1.0,1.0,part_1,,,,,,,,,,,,,yellow,triangle
0.0,5.0,0.0,1.0,4.0,4.0,460.9665630000563,1.0,1.0,part_1,,,,,,,,,,,,,green,I
350.0,2.0,2.0,0.0,4.0,4.0,470.9920530003728,1.0,1.0,part_1,,,,,,,,,,,,,white,circle
1321.0,8.0,4.0,1.0,4.0,4.0,433.9964169998893,1.0,1.0,part_1,,,,,,,,,,,,,blue,cross
650.0,3.0,3.0,0.0,3.0,3.0,416.2018080000962,1.0,1.0,part_1,,,,,,,,,,,,,orange,square
0.0,1.0,0.0,0.0,1.0,1.0,684.2787289997432,1.0,1.0,part_1,,,,,,,,,,,,,gray,diamond
636.0,7.0,3.0,1.0,2.0,2.0,562.0918009999514,1.0,2.0,part_1,,,,,,,,,,,,,yellow,triangle
156.0,5.0,1.0,1.0,1.0,1.0,566.2492850001399,1.0,1.0,part_1,,,,,,,,,,,,,green,I
341.0,2.0,2.0,0.0,4.0,4.0,647.7899399997114,1.0,1.0,part_1,,,,,,,,,,,,,white,circle
0.0,5.0,0.0,1.0,1.0,1.0,574.8913239999638,1.0,1.0,part_1,,,,,,,,,,,,,green,I
304.0,2.0,2.0,0.0,4.0,4.0,554.2792890000783,1.0,1.0,part_1,,,,,,,,,,,,,white,circle
670.0,3.0,3.0,0.0,1.0,1.0,756.6171280000162,1.0,1.0,part_1,,,,,,,,,,,,,orange,square
0.0,7.0,0.0,1.0,1.0,1.0,628.6313689997769,1.0,1.0,part_1,,,,,,,,,,,,,yellow,triangle
0.0,5.0,0.0,1.0,4.0,4.0,508.1508070002201,1.0,1.0,part_1,,,,,,,,,,,,,green,I
316.0,2.0,2.0,0.0,2.0,2.0,895.0832499999706,1.0,1.0,part_1,,,,,,,,,,,,,white,circle
148.0,1.0,1.0,0.0,1.0,1.0,592.1474550000312,1.0,1.0,part_1,,,,,,,,,,,,,gray,diamond
335.0,6.0,2.0,1.0,2.0,2.0,582.2215270000015,1.0,1.0,part_1,,,,,,,,,,,,,cyan,hexagon
337.0,2.0,2.0,0.0,4.0,4.0,646.8848399999843,1.0,1.0,part_1,,,,,,,,,,,,,white,circle
0.0,3.0,0.0,0.0,4.0,4.0,600.0681149998854,1.0,1.0,part_1,,,,,,,,,,,,,orange,square
158.0,5.0,1.0,1.0,1.0,1.0,481.5168340001037,1.0,1.0,part_1,,,,,,,,,,,,,green,I
307.0,6.0,2.0,1.0,1.0,1.0,581.6177120000248,1.0,1.0,part_1,,,,,,,,,,,,,cyan,hexagon
632.0,7.0,3.0,1.0,3.0,3.0,739.4509760001711,1.0,1.0,part_1,,,,,,,,,,,,,yellow,triangle
1318.0,4.0,4.0,0.0,4.0,4.0,674.9359400000685,1.0,1.0,part_1,,,,,,,,,,,,,magenta,flipped triangle
166.0,1.0,1.0,0.0,2.0,2.0,690.0898610001605,1.0,1.0,part_1,,,,,,,,,,,,,gray,diamond
0.0,4.0,0.0,0.0,4.0,4.0,489.6006240001043,1.0,1.0,part_1,,,,,,,,,,,,,magenta,flipped triangle
1281.0,8.0,4.0,1.0,4.0,4.0,645.6289480001942,1.0,1.0,part_1,,,,,,,,,,,,,blue,cross
332.0,6.0,2.0,1.0,3.0,3.0,497.784001999662,1.0,1.0,part_1,,,,,,,,,,,,,cyan,hexagon
347.0,2.0,2.0,0.0,2.0,2.0,747.4974050001038,1.0,1.0,part_1,,,,,,,,,,,,,white,circle
337.0,6.0,2.0,1.0,1.0,1.0,562.0491709996713,1.0,1.0,part_1,,,,,,,,,,,,,cyan,hexagon
150.0,1.0,1.0,0.0,1.0,1.0,444.4281859996408,1.0,1.0,part_1,,,,,,,,,,,,,gray,diamond
316.0,6.0,2.0,1.0,1.0,1.0,517.7976769996349,1.0,1.0,part_1,,,,,,,,,,,,,cyan,hexagon
636.0,3.0,3.0,0.0,4.0,4.0,692.1225309997681,1.0,1.0,part_1,,,,,,,,,,,,,orange,square
350.0,6.0,2.0,1.0,4.0,4.0,564.0012989997558,1.0,1.0,part_1,,,,,,,,,,,,,cyan,hexagon
0.0,8.0,0.0,1.0,3.0,3.0,528.526814000088,1.0,1.0,part_1,,,,,,,,,,,,,blue,cross
305.0,6.0,2.0,1.0,2.0,2.0,782.8677219999918,1.0,1.0,part_1,,,,,,,,,,,,,cyan,hexagon
1283.0,8.0,4.0,1.0,1.0,1.0,739.9153979999937,1.0,1.0,part_1,,,,,,,,,,,,,blue,cross
633.0,3.0,3.0,0.0,4.0,4.0,435.0400110001828,1.0,1.0,part_1,,,,,,,,,,,,,orange,square
183.0,5.0,1.0,1.0,2.0,2.0,397.1873469999991,1.0,1.0,part_1,,,,,,,,,,,,,green,I
1323.0,4.0,4.0,0.0,1.0,1.0,921.7746320000516,1.0,1.0,part_1,,,,,,,,,,,,,magenta,flipped triangle
1313.0,4.0,4.0,0.0,2.0,2.0,507.7611659999093,1.0,1.0,part_1,,,,,,,,,,,,,magenta,flipped triangle
0.0,4.0,0.0,0.0,2.0,2.0,612.7764509997178,1.0,1.0,part_1,,,,,,,,,,,,,magenta,flipped triangle
1283.0,4.0,4.0,0.0,4.0,4.0,564.6095830002196,1.0,1.0,part_1,,,,,,,,,,,,,magenta,flipped triangle
308.0,6.0,2.0,1.0,4.0,4.0,730.3687639996497,1.0,1.0,part_1,,,,,,,,,,,,,cyan,hexagon
1292.0,8.0,4.0,1.0,1.0,1.0,554.7383729999638,1.0,1.0,part_1,,,,,,,,,,,,,blue,cross
1306.0,4.0,4.0,0.0,1.0,1.0,518.2850790001794,1.0,1.0,part_1,,,,,,,,,,,,,magenta,flipped triangle
156.0,1.0,1.0,0.0,3.0,3.0,547.5509220000276,1.0,1.0,part_1,,,,,,,,,,,,,gray,diamond
154.0,5.0,1.0,1.0,4.0,4.0,455.0590899998497,1.0,1.0,part_1,,,,,,,,,,,,,green,I
164.0,5.0,1.0,1.0,2.0,2.0,685.2738799998406,1.0,1.0,part_1,,,,,,,,,,,,,green,I
0.0,1.0,0.0,0.0,2.0,2.0,860.7977829997253,1.0,1.0,part_1,,,,,,,,,,,,,gray,diamond
151.0,1.0,1.0,0.0,3.0,3.0,564.9989960002131,1.0,1.0,part_1,,,,,,,,,,,,,gray,diamond
670.0,7.0,3.0,1.0,2.0,2.0,517.7199109998583,1.0,1.0,part_1,,,,,,,,,,,,,yellow,triangle
0.0,1.0,0.0,0.0,4.0,4.0,460.7739190000757,1.0,1.0,part_1,,,,,,,,,,,,,gray,diamond
170.0,5.0,1.0,1.0,2.0,2.0,591.1042489997271,1.0,1.0,part_1,,,,,,,,,,,,,green,I
1279.0,4.0,4.0,0.0,4.0,4.0,571.9525859999521,1.0,1.0,part_1,,,,,,,,,,,,,magenta,flipped triangle
625.0,3.0,3.0,0.0,4.0,4.0,406.7574509999758,1.0,1.0,part_1,,,,,,,,,,,,,orange,square
0.0,1.0,0.0,0.0,2.0,2.0,592.1046230000684,1.0,1.0,part_1,,,,,,,,,,,,,gray,diamond
663.0,3.0,3.0,0.0,3.0,3.0,786.765196000033,1.0,1.0,part_1,,,,,,,,,,,,,orange,square
0.0,7.0,0.0,1.0,1.0,1.0,832.3385799999414,1.0,1.0,part_1,,,,,,,,,,,,,yellow,triangle
1290.0,4.0,4.0,0.0,2.0,2.0,850.1646579998123,1.0,1.0,part_1,,,,,,,,,,,,,magenta,flipped triangle
667.0,3.0,3.0,0.0,2.0,2.0,508.7092109997684,1.0,1.0,part_1,,,,,,,,,,,,,orange,square
656.0,3.0,3.0,0.0,1.0,1.0,751.9411670000409,1.0,1.0,part_1,,,,,,,,,,,,,orange,square
302.0,2.0,2.0,0.0,2.0,2.0,501.01826999980403,1.0,1.0,part_1,,,,,,,,,,,,,white,circle
672.0,3.0,3.0,0.0,4.0,4.0,647.6372689999152,1.0,1.0,part_1,,,,,,,,,,,,,orange,square
1308.0,8.0,4.0,1.0,3.0,3.0,620.1466170000458,1.0,1.0,part_1,,,,,,,,,,,,,blue,cross
0.0,8.0,0.0,1.0,3.0,3.0,463.1578270000318,1.0,1.0,part_1,,,,,,,,,,,,,blue,cross
0.0,7.0,0.0,1.0,4.0,4.0,453.4783580002113,1.0,1.0,part_1,,,,,,,,,,,,,yellow,triangle
1313.0,4.0,4.0,0.0,4.0,4.0,446.035092999864,1.0,1.0,part_1,,,,,,,,,,,,,magenta,flipped triangle
0.0,6.0,0.0,1.0,1.0,1.0,686.2222469999324,1.0,1.0,part_1,,,,,,,,,,,,,cyan,hexagon
166.0,1.0,1.0,0.0,3.0,3.0,563.0578079999395,1.0,1.0,part_1,,,,,,,,,,,,,gray,diamond
168.0,5.0,1.0,1.0,4.0,4.0,767.4872939996931,1.0,1.0,part_1,,,,,,,,,,,,,green,I
1288.0,8.0,4.0,1.0,3.0,3.0,753.3673660000204,1.0,1.0,part_1,,,,,,,,,,,,,blue,cross
336.0,2.0,2.0,0.0,2.0,2.0,703.5469789998388,1.0,1.0,part_1,,,,,,,,,,,,,white,circle
340.0,6.0,2.0,1.0,3.0,3.0,573.832130000028,1.0,1.0,part_1,,,,,,,,,,,,,cyan,hexagon
0.0,8.0,0.0,1.0,3.0,3.0,651.981097999851,2.0,1.0,part_1,,,,,,,,,,,,,blue,cross
180.0,5.0,1.0,1.0,1.0,1.0,725.4644719996577,2.0,1.0,part_1,,,,,,,,,,,,,green,I
0.0,6.0,0.0,1.0,3.0,3.0,520.6110110002555,2.0,1.0,part_1,,,,,,,,,,,,,cyan,hexagon
0.0,1.0,0.0,0.0,3.0,3.0,546.4086319998387,2.0,1.0,part_1,,,,,,,,,,,,,gray,diamond
324.0,6.0,2.0,1.0,2.0,2.0,723.8181300003816,2.0,1.0,part_1,,,,,,,,,,,,,cyan,hexagon
1311.0,8.0,4.0,1.0,3.0,3.0,565.974677000213,2.0,1.0,part_1,,,,,,,,,,,,,blue,cross
0.0,2.0,0.0,0.0,4.0,4.0,565.7108729997162,2.0,1.0,part_1,,,,,,,,,,,,,white,circle
157.0,1.0,1.0,0.0,2.0,2.0,583.6338559997785,2.0,1.0,part_1,,,,,,,,,,,,,gray,diamond
151.0,5.0,1.0,1.0,3.0,3.0,428.5600049997811,2.0,1.0,part_1,,,,,,,,,,,,,green,I
166.0,5.0,1.0,1.0,3.0,3.0,503.8937980002629,2.0,1.0,part_1,,,,,,,,,,,,,green,I
650.0,7.0,3.0,1.0,3.0,3.0,454.1144879999592,2.0,1.0,part_1,,,,,,,,,,,,,yellow,triangle
0.0,4.0,0.0,0.0,1.0,1.0,732.2624099997483,2.0,1.0,part_1,,,,,,,,,,,,,magenta,flipped triangle
332.0,2.0,2.0,0.0,4.0,4.0,640.6069599997863,2.0,1.0,part_1,,,,,,,,,,,,,white,circle
1304.0,4.0,4.0,0.0,3.0,3.0,789.1432039996289,2.0,1.0,part_1,,,,,,,,,,,,,magenta,flipped triangle
0.0,2.0,0.0,0.0,4.0,4.0,741.1995010002101,2.0,1.0,part_1,,,,,,,,,,,,,white,circle
0.0,6.0,0.0,1.0,2.0,2.0,556.3745750000635,2.0,1.0,part_1,,,,,,,,,,,,,cyan,hexagon
667.0,7.0,3.0,1.0,3.0,3.0,621.0789169999771,2.0,1.0,part_1,,,,,,,,,,,,,yellow,triangle
1289.0,8.0,4.0,1.0,2.0,2.0,640.0654740000391,2.0,1.0,part_1,,,,,,,,,,,,,blue,cross
341.0,2.0,2.0,0.0,1.0,1.0,594.2875470000217,2.0,1.0,part_1,,,,,,,,,,,,,white,circle
0.0,7.0,0.0,1.0,1.0,1.0,528.2419550003397,2.0,1.0,part_1,,,,,,,,,,,,,yellow,triangle
642.0,7.0,3.0,1.0,4.0,4.0,509.70832199982397,2.0,1.0,part_1,,,,,,,,,,,,,yellow,triangle
0.0,2.0,0.0,0.0,4.0,4.0,511.67181800019534,2.0,1.0,part_1,,,,,,,,,,,,,white,circle
0.0,2.0,0.0,0.0,2.0,2.0,808.1171690000701,2.0,1.0,part_1,,,,,,,,,,,,,white,circle
1283.0,4.0,4.0,0.0,3.0,3.0,611.9934099997408,2.0,1.0,part_1,,,,,,,,,,,,,magenta,flipped triangle
1287.0,4.0,4.0,0.0,2.0,2.0,834.720441999707,2.0,1.0,part_1,,,,,,,,,,,,,magenta,flipped triangle
0.0,6.0,0.0,1.0,3.0,3.0,675.1779899996109,2.0,1.0,part_1,,,,,,,,,,,,,cyan,hexagon
186.0,1.0,1.0,0.0,3.0,3.0,632.3906480001824,2.0,2.0,part_1,,,,,,,,,,,,,gray,diamond
672.0,7.0,3.0,1.0,4.0,4.0,750.841164999656,2.0,1.0,part_1,,,,,,,,,,,,,yellow,triangle
645.0,3.0,3.0,0.0,2.0,2.0,591.9745709998097,2.0,1.0,part_1,,,,,,,,,,,,,orange,square
157.0,5.0,1.0,1.0,4.0,4.0,871.0840769999777,2.0,1.0,part_1,,,,,,,,,,,,,green,I
0.0,3.0,0.0,0.0,1.0,1.0,639.8081130000719,2.0,1.0,part_1,,,,,,,,,,,,,orange,square
0.0,3.0,0.0,0.0,2.0,2.0,705.277164999643,2.0,1.0,part_1,,,,,,,,,,,,,orange,square
161.0,1.0,1.0,0.0,3.0,3.0,640.0533299997733,2.0,1.0,part_1,,,,,,,,,,,,,gray,diamond
1308.0,8.0,4.0,1.0,2.0,2.0,546.776330999819,2.0,1.0,part_1,,,,,,,,,,,,,blue,cross
157.0,5.0,1.0,1.0,4.0,4.0,592.943854999703,2.0,1.0,part_1,,,,,,,,,,,,,green,I
637.0,3.0,3.0,0.0,2.0,2.0,389.0104189999874,2.0,1.0,part_1,,,,,,,,,,,,,orange,square
1288.0,4.0,4.0,0.0,3.0,3.0,472.7925229999528,2.0,1.0,part_1,,,,,,,,,,,,,magenta,flipped triangle
0.0,2.0,0.0,0.0,4.0,4.0,444.8872449997907,2.0,1.0,part_1,,,,,,,,,,,,,white,circle
166.0,5.0,1.0,1.0,2.0,2.0,509.97522800025763,2.0,1.0,part_1,,,,,,,,,,,,,green,I
322.0,6.0,2.0,1.0,1.0,1.0,822.9915050001182,2.0,1.0,part_1,,,,,,,,,,,,,cyan,hexagon
649.0,7.0,3.0,1.0,2.0,2.0,501.8020810002781,2.0,1.0,part_1,,,,,,,,,,,,,yellow,triangle
628.0,7.0,3.0,1.0,1.0,1.0,693.2282719999421,2.0,1.0,part_1,,,,,,,,,,,,,yellow,triangle
660.0,3.0,3.0,0.0,2.0,2.0,473.2481639998696,2.0,1.0,part_1,,,,,,,,,,,,,orange,square
1283.0,8.0,4.0,1.0,4.0,4.0,371.7520029999832,2.0,1.0,part_1,,,,,,,,,,,,,blue,cross
303.0,6.0,2.0,1.0,3.0,3.0,601.9542029998775,2.0,1.0,part_1,,,,,,,,,,,,,cyan,hexagon
339.0,2.0,2.0,0.0,3.0,3.0,519.1224969998984,2.0,1.0,part_1,,,,,,,,,,,,,white,circle
1313.0,8.0,4.0,1.0,1.0,1.0,566.213555000104,2.0,1.0,part_1,,,,,,,,,,,,,blue,cross
349.0,6.0,2.0,1.0,2.0,2.0,566.4153379998424,2.0,1.0,part_1,,,,,,,,,,,,,cyan,hexagon
0.0,3.0,0.0,0.0,3.0,3.0,528.8944820003962,2.0,1.0,part_1,,,,,,,,,,,,,orange,square
322.0,2.0,2.0,0.0,1.0,1.0,677.4729479998314,2.0,1.0,part_1,,,,,,,,,,,,,white,circle
183.0,1.0,1.0,0.0,4.0,4.0,687.0200170001226,2.0,1.0,part_1,,,,,,,,,,,,,gray,diamond
1296.0,4.0,4.0,0.0,1.0,1.0,630.6817720001163,2.0,1.0,part_1,,,,,,,,,,,,,magenta,flipped triangle
656.0,3.0,3.0,0.0,2.0,2.0,575.0114539996503,2.0,1.0,part_1,,,,,,,,,,,,,orange,square
0.0,8.0,0.0,1.0,4.0,4.0,566.7123640000682,2.0,1.0,part_1,,,,,,,,,,,,,blue,cross
0.0,2.0,0.0,0.0,2.0,2.0,512.1930430000248,2.0,1.0,part_1,,,,,,,,,,,,,white,circle
315.0,2.0,2.0,0.0,4.0,4.0,398.1575709999561,2.0,1.0,part_1,,,,,,,,,,,,,white,circle
630.0,7.0,3.0,1.0,2.0,2.0,305.8639030000449,2.0,1.0,part_1,,,,,,,,,,,,,yellow,triangle
0.0,7.0,0.0,1.0,2.0,2.0,491.4725759999783,2.0,1.0,part_1,,,,,,,,,,,,,yellow,triangle
1292.0,4.0,4.0,0.0,2.0,2.0,352.5455170001805,2.0,1.0,part_1,,,,,,,,,,,,,magenta,flipped triangle
176.0,5.0,1.0,1.0,2.0,2.0,463.327708000179,2.0,1.0,part_1,,,,,,,,,,,,,green,I
0.0,3.0,0.0,0.0,3.0,3.0,501.9119180001326,2.0,1.0,part_1,,,,,,,,,,,,,orange,square
1291.0,4.0,4.0,0.0,3.0,3.0,452.975644000162,2.0,1.0,part_1,,,,,,,,,,,,,magenta,flipped triangle
324.0,2.0,2.0,0.0,4.0,4.0,529.1129790002742,2.0,1.0,part_1,,,,,,,,,,,,,white,circle
656.0,7.0,3.0,1.0,3.0,3.0,406.5125859997351,2.0,1.0,part_1,,,,,,,,,,,,,yellow,triangle
0.0,5.0,0.0,1.0,3.0,3.0,517.9976419999548,2.0,1.0,part_1,,,,,,,,,,,,,green,I
0.0,3.0,0.0,0.0,3.0,3.0,572.8930059999584,2.0,1.0,part_1,,,,,,,,,,,,,orange,square
0.0,6.0,0.0,1.0,1.0,1.0,686.8511970001236,2.0,1.0,part_1,,,,,,,,,,,,,cyan,hexagon
632.0,3.0,3.0,0.0,4.0,4.0,434.3883530000312,2.0,1.0,part_1,,,,,,,,,,,,,orange,square
660.0,3.0,3.0,0.0,3.0,3.0,380.3271189999577,2.0,1.0,part_1,,,,,,,,,,,,,orange,square
159.0,1.0,1.0,0.0,1.0,1.0,602.4270140001136,2.0,1.0,part_1,,,,,,,,,,,,,gray,diamond
331.0,6.0,2.0,1.0,3.0,3.0,379.54888400008707,2.0,1.0,part_1,,,,,,,,,,,,,cyan,hexagon
652.0,7.0,3.0,1.0,2.0,2.0,574.644188000093,2.0,1.0,part_1,,,,,,,,,,,,,yellow,triangle
0.0,7.0,0.0,1.0,1.0,1.0,657.7052319998984,2.0,1.0,part_1,,,,,,,,,,,,,yellow,triangle
652.0,3.0,3.0,0.0,3.0,3.0,575.3830259995993,2.0,1.0,part_1,,,,,,,,,,,,,orange,square
1279.0,8.0,4.0,1.0,1.0,1.0,593.6044069999298,2.0,1.0,part_1,,,,,,,,,,,,,blue,cross
1315.0,8.0,4.0,1.0,2.0,2.0,566.9636309999078,2.0,1.0,part_1,,,,,,,,,,,,,blue,cross
656.0,7.0,3.0,1.0,2.0,2.0,612.1184730000095,2.0,1.0,part_1,,,,,,,,,,,,,yellow,triangle
1287.0,8.0,4.0,1.0,1.0,1.0,622.5843020001776,2.0,1.0,part_1,,,,,,,,,,,,,blue,cross
150.0,1.0,1.0,0.0,4.0,4.0,566.7533829996501,2.0,1.0,part_1,,,,,,,,,,,,,gray,diamond
155.0,1.0,1.0,0.0,2.0,2.0,453.7765250001939,2.0,1.0,part_1,,,,,,,,,,,,,gray,diamond
304.0,6.0,2.0,1.0,2.0,2.0,427.2401489997719,2.0,1.0,part_1,,,,,,,,,,,,,cyan,hexagon
141.0,5.0,1.0,1.0,3.0,3.0,472.6169209998261,2.0,1.0,part_1,,,,,,,,,,,,,green,I
629.0,7.0,3.0,1.0,4.0,4.0,444.6246239999709,2.0,1.0,part_1,,,,,,,,,,,,,yellow,triangle
0.0,3.0,0.0,0.0,1.0,1.0,471.8174220001856,2.0,1.0,part_1,,,,,,,,,,,,,orange,square
0.0,5.0,0.0,1.0,1.0,1.0,464.9559569998018,2.0,1.0,part_1,,,,,,,,,,,,,green,I
139.0,5.0,1.0,1.0,3.0,3.0,465.2737030000935,2.0,1.0,part_1,,,,,,,,,,,,,green,I
309.0,2.0,2.0,0.0,3.0,3.0,417.3852009998882,2.0,1.0,part_1,,,,,,,,,,,,,white,circle
647.0,3.0,3.0,0.0,1.0,1.0,455.5003120003675,2.0,1.0,part_1,,,,,,,,,,,,,orange,square
1291.0,8.0,4.0,1.0,2.0,2.0,490.9711000000243,2.0,1.0,part_1,,,,,,,,,,,,,blue,cross
182.0,5.0,1.0,1.0,3.0,3.0,444.9157560002277,2.0,1.0,part_1,,,,,,,,,,,,,green,I
1316.0,8.0,4.0,1.0,4.0,4.0,557.0971899996948,2.0,1.0,part_1,,,,,,,,,,,,,blue,cross
636.0,7.0,3.0,1.0,1.0,1.0,620.1926009998715,2.0,1.0,part_1,,,,,,,,,,,,,yellow,triangle
0.0,4.0,0.0,0.0,2.0,2.0,529.7644679999394,2.0,1.0,part_1,,,,,,,,,,,,,magenta,flipped triangle
1307.0,8.0,4.0,1.0,2.0,2.0,398.8266380001732,2.0,1.0,part_1,,,,,,,,,,,,,blue,cross
150.0,5.0,1.0,1.0,2.0,2.0,409.7929660001682,2.0,1.0,part_1,,,,,,,,,,,,,green,I
1299.0,8.0,4.0,1.0,2.0,2.0,426.0059829998681,2.0,1.0,part_1,,,,,,,,,,,,,blue,cross
0.0,3.0,0.0,0.0,4.0,4.0,370.9124639999572,2.0,1.0,part_1,,,,,,,,,,,,,orange,square
0.0,6.0,0.0,1.0,1.0,1.0,463.0340519997844,2.0,1.0,part_1,,,,,,,,,,,,,cyan,hexagon
326.0,6.0,2.0,1.0,1.0,1.0,435.4469470004005,2.0,1.0,part_1,,,,,,,,,,,,,cyan,hexagon
313.0,2.0,2.0,0.0,1.0,1.0,473.0039459996078,2.0,1.0,part_1,,,,,,,,,,,,,white,circle
664.0,3.0,3.0,0.0,4.0,4.0,620.6861430000572,3.0,1.0,part_1,,,,,,,,,,,,,orange,square
169.0,1.0,1.0,0.0,2.0,2.0,388.1129290002718,3.0,1.0,part_1,,,,,,,,,,,,,gray,diamond
669.0,7.0,3.0,1.0,2.0,2.0,408.0251570003383,3.0,1.0,part_1,,,,,,,,,,,,,yellow,triangle
339.0,6.0,2.0,1.0,4.0,4.0,399.1414410002107,3.0,1.0,part_1,,,,,,,,,,,,,cyan,hexagon
333.0,2.0,2.0,0.0,2.0,2.0,463.4986390001359,3.0,1.0,part_1,,,,,,,,,,,,,white,circle
175.0,1.0,1.0,0.0,2.0,2.0,425.1406260000294,3.0,1.0,part_1,,,,,,,,,,,,,gray,diamond
0.0,6.0,0.0,1.0,4.0,4.0,425.987933000215,3.0,1.0,part_1,,,,,,,,,,,,,cyan,hexagon
629.0,3.0,3.0,0.0,2.0,2.0,297.5544959999752,3.0,1.0,part_1,,,,,,,,,,,,,orange,square
341.0,2.0,2.0,0.0,3.0,3.0,603.503687999364,3.0,1.0,part_1,,,,,,,,,,,,,white,circle
176.0,1.0,1.0,0.0,3.0,3.0,406.9589849996191,3.0,1.0,part_1,,,,,,,,,,,,,gray,diamond
1304.0,8.0,4.0,1.0,1.0,1.0,629.4718969993482,3.0,1.0,part_1,,,,,,,,,,,,,blue,cross
0.0,7.0,0.0,1.0,1.0,1.0,742.3236810000162,3.0,1.0,part_1,,,,,,,,,,,,,yellow,triangle
173.0,5.0,1.0,1.0,1.0,1.0,408.2507840003018,3.0,1.0,part_1,,,,,,,,,,,,,green,I
316.0,6.0,2.0,1.0,4.0,4.0,526.4915070001734,3.0,1.0,part_1,,,,,,,,,,,,,cyan,hexagon
177.0,5.0,1.0,1.0,1.0,1.0,593.1929499993203,3.0,1.0,part_1,,,,,,,,,,,,,green,I
0.0,2.0,0.0,0.0,4.0,4.0,446.4238790005765,3.0,1.0,part_1,,,,,,,,,,,,,white,circle
175.0,5.0,1.0,1.0,1.0,1.0,538.5531640004046,3.0,1.0,part_1,,,,,,,,,,,,,green,I
142.0,1.0,1.0,0.0,1.0,1.0,453.7901960002273,3.0,1.0,part_1,,,,,,,,,,,,,gray,diamond
154.0,1.0,1.0,0.0,2.0,2.0,841.7232280007738,3.0,1.0,part_1,,,,,,,,,,,,,gray,diamond
0.0,8.0,0.0,1.0,2.0,2.0,565.2946899999733,3.0,1.0,part_1,,,,,,,,,,,,,blue,cross
1291.0,4.0,4.0,0.0,2.0,2.0,388.3140759999151,3.0,1.0,part_1,,,,,,,,,,,,,magenta,flipped triangle
1286.0,8.0,4.0,1.0,2.0,2.0,426.1193450001883,3.0,1.0,part_1,,,,,,,,,,,,,blue,cross
650.0,7.0,3.0,1.0,1.0,1.0,610.5779589997837,3.0,1.0,part_1,,,,,,,,,,,,,yellow,triangle
664.0,3.0,3.0,0.0,3.0,3.0,735.3547549992072,3.0,1.0,part_1,,,,,,,,,,,,,orange,square
340.0,2.0,2.0,0.0,3.0,3.0,481.5435699993031,3.0,2.0,part_1,,,,,,,,,,,,,white,circle
302.0,6.0,2.0,1.0,3.0,3.0,428.5473519994411,3.0,1.0,part_1,,,,,,,,,,,,,cyan,hexagon
142.0,5.0,1.0,1.0,4.0,4.0,407.5110439998752,3.0,1.0,part_1,,,,,,,,,,,,,green,I
664.0,7.0,3.0,1.0,1.0,1.0,472.18141699977417,3.0,1.0,part_1,,,,,,,,,,,,,yellow,triangle
1284.0,4.0,4.0,0.0,1.0,1.0,545.1638300000923,3.0,1.0,part_1,,,,,,,,,,,,,magenta,flipped triangle
0.0,8.0,0.0,1.0,3.0,3.0,480.1456370005326,3.0,1.0,part_1,,,,,,,,,,,,,blue,cross
169.0,5.0,1.0,1.0,2.0,2.0,618.2671189999382,3.0,1.0,part_1,,,,,,,,,,,,,green,I
642.0,3.0,3.0,0.0,4.0,4.0,795.0825409998288,3.0,1.0,part_1,,,,,,,,,,,,,orange,square
0.0,2.0,0.0,0.0,1.0,1.0,657.3975030005386,3.0,1.0,part_1,,,,,,,,,,,,,white,circle
657.0,7.0,3.0,1.0,4.0,4.0,786.7457499996817,3.0,1.0,part_1,,,,,,,,,,,,,yellow,triangle
186.0,5.0,1.0,1.0,2.0,2.0,869.6121499997389,3.0,1.0,part_1,,,,,,,,,,,,,green,I
151.0,5.0,1.0,1.0,1.0,1.0,667.3459389994605,3.0,1.0,part_1,,,,,,,,,,,,,green,I
650.0,3.0,3.0,0.0,1.0,1.0,471.8787519996112,3.0,1.0,part_1,,,,,,,,,,,,,orange,square
184.0,5.0,1.0,1.0,3.0,3.0,481.9270110001525,3.0,1.0,part_1,,,,,,,,,,,,,green,I
1289.0,8.0,4.0,1.0,1.0,1.0,629.3227289997958,3.0,1.0,part_1,,,,,,,,,,,,,blue,cross
170.0,1.0,1.0,0.0,1.0,1.0,675.5121030000737,3.0,1.0,part_1,,,,,,,,,,,,,gray,diamond
1284.0,8.0,4.0,1.0,3.0,3.0,462.495151999974,3.0,1.0,part_1,,,,,,,,,,,,,blue,cross
1289.0,4.0,4.0,0.0,4.0,4.0,638.5573750003459,3.0,1.0,part_1,,,,,,,,,,,,,magenta,flipped triangle
1313.0,8.0,4.0,1.0,2.0,2.0,918.9711819999502,3.0,1.0,part_1,,,,,,,,,,,,,blue,cross
315.0,6.0,2.0,1.0,4.0,4.0,406.2863069993909,3.0,1.0,part_1,,,,,,,,,,,,,cyan,hexagon
660.0,7.0,3.0,1.0,4.0,4.0,425.0780949996624,3.0,1.0,part_1,,,,,,,,,,,,,yellow,triangle
0.0,6.0,0.0,1.0,2.0,2.0,591.2979450004059,3.0,1.0,part_1,,,,,,,,,,,,,cyan,hexagon
1303.0,8.0,4.0,1.0,1.0,1.0,519.0283729998555,3.0,1.0,part_1,,,,,,,,,,,,,blue,cross
628.0,7.0,3.0,1.0,4.0,4.0,544.3627539998488,3.0,1.0,part_1,,,,,,,,,,,,,yellow,triangle
182.0,5.0,1.0,1.0,3.0,3.0,528.275580000809,3.0,1.0,part_1,,,,,,,,,,,,,green,I
174.0,1.0,1.0,0.0,2.0,2.0,527.0078120001926,3.0,1.0,part_1,,,,,,,,,,,,,gray,diamond
628.0,3.0,3.0,0.0,1.0,1.0,535.6466889998046,3.0,1.0,part_1,,,,,,,,,,,,,orange,square
637.0,7.0,3.0,1.0,1.0,1.0,463.4027880001667,3.0,1.0,part_1,,,,,,,,,,,,,yellow,triangle
1296.0,8.0,4.0,1.0,3.0,3.0,454.4481630000518,3.0,1.0,part_1,,,,,,,,,,,,,blue,cross
144.0,1.0,1.0,0.0,1.0,1.0,574.1000090001762,3.0,1.0,part_1,,,,,,,,,,,,,gray,diamond
343.0,2.0,2.0,0.0,4.0,4.0,471.3659899998674,3.0,1.0,part_1,,,,,,,,,,,,,white,circle
329.0,6.0,2.0,1.0,3.0,3.0,499.5325609997962,3.0,1.0,part_1,,,,,,,,,,,,,cyan,hexagon
1323.0,8.0,4.0,1.0,4.0,4.0,537.663813999643,3.0,1.0,part_1,,,,,,,,,,,,,blue,cross
1321.0,4.0,4.0,0.0,1.0,1.0,620.4987860000983,3.0,1.0,part_1,,,,,,,,,,,,,magenta,flipped triangle
1314.0,8.0,4.0,1.0,3.0,3.0,361.2806980008827,3.0,1.0,part_1,,,,,,,,,,,,,blue,cross
319.0,6.0,2.0,1.0,2.0,2.0,584.2835100002048,3.0,1.0,part_1,,,,,,,,,,,,,cyan,hexagon
139.0,1.0,1.0,0.0,4.0,4.0,546.1657500000001,3.0,1.0,part_1,,,,,,,,,,,,,gray,diamond
1306.0,8.0,4.0,1.0,2.0,2.0,539.2861869995613,3.0,1.0,part_1,,,,,,,,,,,,,blue,cross
341.0,6.0,2.0,1.0,4.0,4.0,641.429299000265,3.0,1.0,part_1,,,,,,,,,,,,,cyan,hexagon
659.0,7.0,3.0,1.0,1.0,1.0,964.2241950004972,3.0,1.0,part_1,,,,,,,,,,,,,yellow,triangle
646.0,3.0,3.0,0.0,1.0,1.0,649.9471289998837,3.0,1.0,part_1,,,,,,,,,,,,,orange,square
148.0,5.0,1.0,1.0,3.0,3.0,647.0992229997137,3.0,1.0,part_1,,,,,,,,,,,,,green,I
1325.0,8.0,4.0,1.0,3.0,3.0,610.9634109998296,3.0,1.0,part_1,,,,,,,,,,,,,blue,cross
336.0,2.0,2.0,0.0,3.0,3.0,444.1517360000944,3.0,1.0,part_1,,,,,,,,,,,,,white,circle
144.0,5.0,1.0,1.0,4.0,4.0,526.8417739998768,3.0,1.0,part_1,,,,,,,,,,,,,green,I
1314.0,8.0,4.0,1.0,1.0,1.0,501.00840300001437,3.0,1.0,part_1,,,,,,,,,,,,,blue,cross
174.0,5.0,1.0,1.0,1.0,1.0,555.6276009992871,3.0,1.0,part_1,,,,,,,,,,,,,green,I
186.0,1.0,1.0,0.0,1.0,1.0,712.5990909999018,3.0,1.0,part_1,,,,,,,,,,,,,gray,diamond
652.0,7.0,3.0,1.0,2.0,2.0,545.8999009997569,3.0,1.0,part_1,,,,,,,,,,,,,yellow,triangle
306.0,6.0,2.0,1.0,1.0,1.0,592.9488550000315,3.0,1.0,part_1,,,,,,,,,,,,,cyan,hexagon
1299.0,4.0,4.0,0.0,1.0,1.0,942.3847119996936,3.0,1.0,part_1,,,,,,,,,,,,,magenta,flipped triangle
658.0,7.0,3.0,1.0,4.0,4.0,666.2878360002651,3.0,1.0,part_1,,,,,,,,,,,,,yellow,triangle
0.0,1.0,0.0,0.0,2.0,2.0,878.4677410003496,3.0,1.0,part_1,,,,,,,,,,,,,gray,diamond
663.0,7.0,3.0,1.0,1.0,1.0,527.4099620000925,3.0,1.0,part_1,,,,,,,,,,,,,yellow,triangle
0.0,1.0,0.0,0.0,1.0,1.0,490.4223860003185,3.0,1.0,part_1,,,,,,,,,,,,,gray,diamond
673.0,7.0,3.0,1.0,1.0,1.0,517.8499439998632,3.0,1.0,part_1,,,,,,,,,,,,,yellow,triangle
630.0,3.0,3.0,0.0,1.0,1.0,407.3487440000463,3.0,1.0,part_1,,,,,,,,,,,,,orange,square
1316.0,4.0,4.0,0.0,2.0,2.0,471.9350189998295,3.0,1.0,part_1,,,,,,,,,,,,,magenta,flipped triangle
0.0,6.0,0.0,1.0,3.0,3.0,499.6302839999771,3.0,1.0,part_1,,,,,,,,,,,,,cyan,hexagon
173.0,1.0,1.0,0.0,2.0,2.0,776.4073529997404,3.0,1.0,part_1,,,,,,,,,,,,,gray,diamond
0.0,5.0,0.0,1.0,4.0,4.0,601.7271059999985,3.0,1.0,part_1,,,,,,,,,,,,,green,I
1314.0,4.0,4.0,0.0,2.0,2.0,488.8083780006127,3.0,1.0,part_1,,,,,,,,,,,,,magenta,flipped triangle
1303.0,4.0,4.0,0.0,1.0,1.0,497.7451060003659,3.0,2.0,part_1,,,,,,,,,,,,,magenta,flipped triangle
317.0,6.0,2.0,1.0,1.0,1.0,452.8264169994145,3.0,1.0,part_1,,,,,,,,,,,,,cyan,hexagon
157.0,1.0,1.0,0.0,1.0,1.0,574.30579999982,3.0,1.0,part_1,,,,,,,,,,,,,gray,diamond
652.0,7.0,3.0,1.0,4.0,4.0,518.34655499988,3.0,1.0,part_1,,,,,,,,,,,,,yellow,triangle
667.0,7.0,3.0,1.0,3.0,3.0,443.9025780002339,3.0,1.0,part_1,,,,,,,,,,,,,yellow,triangle
642.0,3.0,3.0,0.0,1.0,1.0,591.3806710004792,3.0,1.0,part_1,,,,,,,,,,,,,orange,square
306.0,2.0,2.0,0.0,1.0,1.0,563.4514519997538,3.0,1.0,part_1,,,,,,,,,,,,,white,circle
1303.0,8.0,4.0,1.0,4.0,4.0,647.406121000131,3.0,1.0,part_1,,,,,,,,,,,,,blue,cross
307.0,2.0,2.0,0.0,1.0,1.0,896.5034240000023,3.0,1.0,part_1,,,,,,,,,,,,,white,circle
1294.0,4.0,4.0,0.0,4.0,4.0,703.3207980002771,3.0,1.0,part_1,,,,,,,,,,,,,magenta,flipped triangle
313.0,6.0,2.0,1.0,3.0,3.0,480.7968519999122,3.0,1.0,part_1,,,,,,,,,,,,,cyan,hexagon
1325.0,4.0,4.0,0.0,3.0,3.0,497.8606009999566,3.0,1.0,part_1,,,,,,,,,,,,,magenta,flipped triangle
0.0,6.0,0.0,1.0,2.0,2.0,546.265928000139,3.0,1.0,part_1,,,,,,,,,,,,,cyan,hexagon
647.0,7.0,3.0,1.0,3.0,3.0,509.279183000217,3.0,1.0,part_1,,,,,,,,,,,,,yellow,triangle
177.0,1.0,1.0,0.0,3.0,3.0,475.1829820006605,4.0,1.0,part_1,,,,,,,,,,,,,gray,diamond
1315.0,4.0,4.0,0.0,4.0,4.0,603.1217380004819,4.0,1.0,part_1,,,,,,,,,,,,,magenta,flipped triangle
650.0,3.0,3.0,0.0,2.0,2.0,517.4131989997477,4.0,1.0,part_1,,,,,,,,,,,,,orange,square
341.0,6.0,2.0,1.0,1.0,1.0,676.3363669997489,4.0,1.0,part_1,,,,,,,,,,,,,cyan,hexagon
148.0,1.0,1.0,0.0,3.0,3.0,353.2462789999044,4.0,1.0,part_1,,,,,,,,,,,,,gray,diamond
313.0,2.0,2.0,0.0,2.0,2.0,500.9873549997792,4.0,2.0,part_1,,,,,,,,,,,,,white,circle
180.0,1.0,1.0,0.0,2.0,2.0,418.2047889999012,4.0,1.0,part_1,,,,,,,,,,,,,gray,diamond
642.0,7.0,3.0,1.0,4.0,4.0,472.8184509995117,4.0,1.0,part_1,,,,,,,,,,,,,yellow,triangle
158.0,1.0,1.0,0.0,3.0,3.0,566.7098769999939,4.0,1.0,part_1,,,,,,,,,,,,,gray,diamond
182.0,1.0,1.0,0.0,4.0,4.0,638.6583280000195,4.0,1.0,part_1,,,,,,,,,,,,,gray,diamond
673.0,3.0,3.0,0.0,1.0,1.0,536.6984309994223,4.0,2.0,part_1,,,,,,,,,,,,,orange,square
140.0,1.0,1.0,0.0,4.0,4.0,564.2963199998121,4.0,1.0,part_1,,,,,,,,,,,,,gray,diamond
1289.0,4.0,4.0,0.0,2.0,2.0,582.8136689997336,4.0,1.0,part_1,,,,,,,,,,,,,magenta,flipped triangle
628.0,3.0,3.0,0.0,3.0,3.0,427.0094249995964,4.0,1.0,part_1,,,,,,,,,,,,,orange,square
0.0,3.0,0.0,0.0,1.0,1.0,519.2259539999213,4.0,1.0,part_1,,,,,,,,,,,,,orange,square
0.0,4.0,0.0,0.0,1.0,1.0,528.3095340000727,4.0,1.0,part_1,,,,,,,,,,,,,magenta,flipped triangle
0.0,8.0,0.0,1.0,3.0,3.0,592.5242290004462,4.0,1.0,part_1,,,,,,,,,,,,,blue,cross
1279.0,8.0,4.0,1.0,1.0,1.0,890.2528480002729,4.0,1.0,part_1,,,,,,,,,,,,,blue,cross
636.0,3.0,3.0,0.0,3.0,3.0,426.2234609996085,4.0,1.0,part_1,,,,,,,,,,,,,orange,square
329.0,2.0,2.0,0.0,3.0,3.0,482.8300640001544,4.0,1.0,part_1,,,,,,,,,,,,,white,circle
138.0,5.0,1.0,1.0,3.0,3.0,518.7092710002617,4.0,1.0,part_1,,,,,,,,,,,,,green,I
175.0,1.0,1.0,0.0,4.0,4.0,389.4542779999028,4.0,1.0,part_1,,,,,,,,,,,,,gray,diamond
349.0,2.0,2.0,0.0,2.0,2.0,564.968816000146,4.0,1.0,part_1,,,,,,,,,,,,,white,circle
303.0,2.0,2.0,0.0,1.0,1.0,683.195378000164,4.0,1.0,part_1,,,,,,,,,,,,,white,circle
0.0,1.0,0.0,0.0,4.0,4.0,527.8382480000801,4.0,1.0,part_1,,,,,,,,,,,,,gray,diamond
657.0,3.0,3.0,0.0,3.0,3.0,453.9263239994398,4.0,1.0,part_1,,,,,,,,,,,,,orange,square
140.0,5.0,1.0,1.0,4.0,4.0,527.957848999904,4.0,1.0,part_1,,,,,,,,,,,,,green,I
305.0,2.0,2.0,0.0,3.0,3.0,453.9462699995056,4.0,1.0,part_1,,,,,,,,,,,,,white,circle
1291.0,8.0,4.0,1.0,3.0,3.0,509.04939099928015,4.0,1.0,part_1,,,,,,,,,,,,,blue,cross
0.0,5.0,0.0,1.0,3.0,3.0,491.3118249996842,4.0,1.0,part_1,,,,,,,,,,,,,green,I
0.0,8.0,0.0,1.0,2.0,2.0,648.3680730007109,4.0,1.0,part_1,,,,,,,,,,,,,blue,cross
349.0,6.0,2.0,1.0,4.0,4.0,564.9398900004599,4.0,1.0,part_1,,,,,,,,,,,,,cyan,hexagon
0.0,3.0,0.0,0.0,1.0,1.0,472.2097200001371,4.0,1.0,part_1,,,,,,,,,,,,,orange,square
141.0,1.0,1.0,0.0,4.0,4.0,572.2888219997913,4.0,1.0,part_1,,,,,,,,,,,,,gray,diamond
1294.0,8.0,4.0,1.0,3.0,3.0,481.5208519994485,4.0,1.0,part_1,,,,,,,,,,,,,blue,cross
0.0,5.0,0.0,1.0,1.0,1.0,611.7917029996534,4.0,1.0,part_1,,,,,,,,,,,,,green,I
336.0,6.0,2.0,1.0,3.0,3.0,490.035801999511,4.0,1.0,part_1,,,,,,,,,,,,,cyan,hexagon
1319.0,8.0,4.0,1.0,4.0,4.0,482.4345709994304,4.0,1.0,part_1,,,,,,,,,,,,,blue,cross
308.0,2.0,2.0,0.0,3.0,3.0,722.2680610002499,4.0,1.0,part_1,,,,,,,,,,,,,white,circle
652.0,3.0,3.0,0.0,3.0,3.0,479.60388499996037,4.0,1.0,part_1,,,,,,,,,,,,,orange,square
0.0,8.0,0.0,1.0,2.0,2.0,545.0910460003797,4.0,1.0,part_1,,,,,,,,,,,,,blue,cross
143.0,5.0,1.0,1.0,2.0,2.0,992.3043500002676,4.0,1.0,part_1,,,,,,,,,,,,,green,I
628.0,3.0,3.0,0.0,2.0,2.0,593.6767680004778,4.0,1.0,part_1,,,,,,,,,,,,,orange,square
0.0,1.0,0.0,0.0,3.0,3.0,398.277526000129,4.0,1.0,part_1,,,,,,,,,,,,,gray,diamond
646.0,7.0,3.0,1.0,3.0,3.0,416.5823410003213,4.0,1.0,part_1,,,,,,,,,,,,,yellow,triangle
349.0,2.0,2.0,0.0,2.0,2.0,461.9799920001242,4.0,1.0,part_1,,,,,,,,,,,,,white,circle
645.0,7.0,3.0,1.0,3.0,3.0,620.2570949999426,4.0,1.0,part_1,,,,,,,,,,,,,yellow,triangle
664.0,7.0,3.0,1.0,2.0,2.0,670.2055719997588,4.0,1.0,part_1,,,,,,,,,,,,,yellow,triangle
0.0,1.0,0.0,0.0,3.0,3.0,676.0614449995046,4.0,1.0,part_1,,,,,,,,,,,,,gray,diamond
0.0,8.0,0.0,1.0,2.0,2.0,556.6782500000045,4.0,1.0,part_1,,,,,,,,,,,,,blue,cross
330.0,6.0,2.0,1.0,2.0,2.0,564.7628750002696,4.0,1.0,part_1,,,,,,,,,,,,,cyan,hexagon
336.0,6.0,2.0,1.0,3.0,3.0,398.6874239999451,4.0,1.0,part_1,,,,,,,,,,,,,cyan,hexagon
164.0,1.0,1.0,0.0,4.0,4.0,435.6369189999896,4.0,1.0,part_1,,,,,,,,,,,,,gray,diamond
1303.0,4.0,4.0,0.0,1.0,1.0,555.4910209993977,4.0,1.0,part_1,,,,,,,,,,,,,magenta,flipped triangle
1319.0,4.0,4.0,0.0,3.0,3.0,583.9836570003172,4.0,1.0,part_1,,,,,,,,,,,,,magenta,flipped triangle
0.0,4.0,0.0,0.0,3.0,3.0,696.7331389996616,4.0,1.0,part_1,,,,,,,,,,,,,magenta,flipped triangle
150.0,5.0,1.0,1.0,4.0,4.0,463.499456000136,4.0,1.0,part_1,,,,,,,,,,,,,green,I
1279.0,4.0,4.0,0.0,4.0,4.0,408.3004009999058,4.0,1.0,part_1,,,,,,,,,,,,,magenta,flipped triangle
1285.0,4.0,4.0,0.0,1.0,1.0,639.3807169997672,4.0,1.0,part_1,,,,,,,,,,,,,magenta,flipped triangle
0.0,5.0,0.0,1.0,4.0,4.0,417.1450909998384,4.0,1.0,part_1,,,,,,,,,,,,,green,I
316.0,2.0,2.0,0.0,2.0,2.0,564.2714010000418,4.0,1.0,part_1,,,,,,,,,,,,,white,circle
1290.0,8.0,4.0,1.0,4.0,4.0,399.6588830004839,4.0,1.0,part_1,,,,,,,,,,,,,blue,cross
0.0,4.0,0.0,0.0,1.0,1.0,406.8681459993968,4.0,2.0,part_1,,,,,,,,,,,,,magenta,flipped triangle
1290.0,8.0,4.0,1.0,4.0,4.0,443.6124960002416,4.0,1.0,part_1,,,,,,,,,,,,,blue,cross
1311.0,4.0,4.0,0.0,3.0,3.0,389.5911449999403,4.0,1.0,part_1,,,,,,,,,,,,,magenta,flipped triangle
184.0,1.0,1.0,0.0,4.0,4.0,572.8978939996523,4.0,1.0,part_1,,,,,,,,,,,,,gray,diamond
310.0,6.0,2.0,1.0,1.0,1.0,434.060307999971,4.0,1.0,part_1,,,,,,,,,,,,,cyan,hexagon
186.0,5.0,1.0,1.0,4.0,4.0,342.1976409999843,4.0,1.0,part_1,,,,,,,,,,,,,green,I
313.0,6.0,2.0,1.0,2.0,2.0,455.1511760000721,4.0,1.0,part_1,,,,,,,,,,,,,cyan,hexagon
319.0,2.0,2.0,0.0,4.0,4.0,409.4010750004599,4.0,1.0,part_1,,,,,,,,,,,,,white,circle
343.0,6.0,2.0,1.0,4.0,4.0,352.7494079999087,4.0,1.0,part_1,,,,,,,,,,,,,cyan,hexagon
1303.0,4.0,4.0,0.0,2.0,2.0,586.8658989993492,4.0,1.0,part_1,,,,,,,,,,,,,magenta,flipped triangle
306.0,6.0,2.0,1.0,4.0,4.0,389.4441700003881,4.0,1.0,part_1,,,,,,,,,,,,,cyan,hexagon
309.0,6.0,2.0,1.0,2.0,2.0,525.9271120003177,4.0,1.0,part_1,,,,,,,,,,,,,cyan,hexagon
658.0,3.0,3.0,0.0,2.0,2.0,454.6132529994793,4.0,1.0,part_1,,,,,,,,,,,,,orange,square
333.0,6.0,2.0,1.0,2.0,2.0,371.484653999687,4.0,1.0,part_1,,,,,,,,,,,,,cyan,hexagon
331.0,2.0,2.0,0.0,3.0,3.0,618.5454459991888,4.0,1.0,part_1,,,,,,,,,,,,,white,circle
0.0,2.0,0.0,0.0,1.0,1.0,582.1541639998031,4.0,1.0,part_1,,,,,,,,,,,,,white,circle
667.0,3.0,3.0,0.0,4.0,4.0,406.9142119997195,4.0,1.0,part_1,,,,,,,,,,,,,orange,square
0.0,4.0,0.0,0.0,2.0,2.0,362.7692609998121,4.0,1.0,part_1,,,,,,,,,,,,,magenta,flipped triangle
1290.0,4.0,4.0,0.0,4.0,4.0,343.3763859993632,4.0,1.0,part_1,,,,,,,,,,,,,magenta,flipped triangle
669.0,3.0,3.0,0.0,3.0,3.0,509.6781900001588,4.0,1.0,part_1,,,,,,,,,,,,,orange,square
0.0,5.0,0.0,1.0,1.0,1.0,517.8405389997351,4.0,1.0,part_1,,,,,,,,,,,,,green,I
1285.0,8.0,4.0,1.0,3.0,3.0,584.0040700004465,4.0,1.0,part_1,,,,,,,,,,,,,blue,cross
1308.0,4.0,4.0,0.0,3.0,3.0,518.2652860003145,4.0,1.0,part_1,,,,,,,,,,,,,magenta,flipped triangle
310.0,2.0,2.0,0.0,1.0,1.0,565.1267840003129,4.0,1.0,part_1,,,,,,,,,,,,,white,circle
347.0,6.0,2.0,1.0,1.0,1.0,399.2208280005798,4.0,1.0,part_1,,,,,,,,,,,,,cyan,hexagon
143.0,1.0,1.0,0.0,4.0,4.0,380.4918850000831,4.0,1.0,part_1,,,,,,,,,,,,,gray,diamond
1314.0,4.0,4.0,0.0,4.0,4.0,388.566262000495,4.0,1.0,part_1,,,,,,,,,,,,,magenta,flipped triangle
318.0,6.0,2.0,1.0,4.0,4.0,361.7785899996306,4.0,1.0,part_1,,,,,,,,,,,,,cyan,hexagon
1308.0,4.0,4.0,0.0,1.0,1.0,491.2961439995342,4.0,1.0,part_1,,,,,,,,,,,,,magenta,flipped triangle
660.0,3.0,3.0,0.0,2.0,2.0,666.980918000263,4.0,1.0,part_1,,,,,,,,,,,,,orange,square
159.0,5.0,1.0,1.0,1.0,1.0,731.5568990006796,4.0,1.0,part_1,,,,,,,,,,,,,green,I
335.0,2.0,2.0,0.0,3.0,3.0,629.1157929999827,4.0,1.0,part_1,,,,,,,,,,,,,white,circle
0.0,7.0,0.0,1.0,3.0,3.0,685.5767669994748,4.0,1.0,part_1,,,,,,,,,,,,,yellow,triangle
649.0,3.0,3.0,0.0,4.0,4.0,583.8020370001686,4.0,1.0,part_1,,,,,,,,,,,,,orange,square
1281.0,4.0,4.0,0.0,3.0,3.0,518.0148290000943,4.0,1.0,part_1,,,,,,,,,,,,,magenta,flipped triangle
660.0,7.0,3.0,1.0,2.0,2.0,527.9346829993301,4.0,1.0,part_1,,,,,,,,,,,,,yellow,triangle
628.0,7.0,3.0,1.0,1.0,1.0,574.9429110001074,4.0,1.0,part_1,,,,,,,,,,,,,yellow,triangle
1318.0,8.0,4.0,1.0,2.0,2.0,434.7225290002825,4.0,1.0,part_1,,,,,,,,,,,,,blue,cross
0.0,6.0,2.0,1.0,5.0,0.0,0.0,1.0,0.0,part_2,stop,250.0,250.0,4.0,,,,,,,,,cyan,hexagon
0.0,4.0,4.0,0.0,6.0,6.0,546.7190370000026,1.0,0.0,part_2,go,300.0,250.0,1.0,,,,,,,,,magenta,flipped triangle
0.0,7.0,3.0,1.0,5.0,5.0,475.0868809996973,1.0,0.0,part_2,go,300.0,250.0,1.0,,,,,,,,,yellow,triangle
0.0,7.0,3.0,1.0,5.0,0.0,0.0,1.0,0.0,part_2,stop,300.0,250.0,4.0,,,,,,,,,yellow,triangle
0.0,4.0,4.0,0.0,5.0,5.0,672.609932999876,1.0,0.0,part_2,go,350.0,250.0,1.0,,,,,,,,,magenta,flipped triangle
0.0,6.0,2.0,1.0,6.0,6.0,430.4191030005313,1.0,0.0,part_2,go,350.0,250.0,1.0,,,,,,,,,cyan,hexagon
0.0,6.0,2.0,1.0,6.0,0.0,0.0,1.0,0.0,part_2,stop,350.0,250.0,4.0,,,,,,,,,cyan,hexagon
0.0,2.0,2.0,0.0,6.0,6.0,691.4195870003823,1.0,0.0,part_2,go,350.0,300.0,1.0,,,,,,,,,white,circle
0.0,2.0,2.0,0.0,5.0,5.0,681.9622459997845,1.0,0.0,part_2,go,350.0,300.0,1.0,,,,,,,,,white,circle
0.0,6.0,2.0,1.0,6.0,0.0,0.0,1.0,0.0,part_2,stop,350.0,300.0,4.0,,,,,,,,,cyan,hexagon
0.0,7.0,3.0,1.0,6.0,0.0,0.0,1.0,0.0,part_2,stop,350.0,350.0,4.0,,,,,,,,,yellow,triangle
0.0,1.0,1.0,0.0,5.0,5.0,753.8648640002066,1.0,0.0,part_2,go,350.0,400.0,1.0,,,,,,,,,gray,diamond
0.0,1.0,1.0,0.0,5.0,5.0,801.9817480007987,1.0,0.0,part_2,go,350.0,400.0,1.0,,,,,,,,,gray,diamond
0.0,1.0,1.0,0.0,5.0,5.0,951.0125260003406,1.0,0.0,part_2,go,350.0,400.0,1.0,,,,,,,,,gray,diamond
0.0,2.0,2.0,0.0,6.0,6.0,1353.3261230004427,1.0,0.0,part_2,go,350.0,400.0,1.0,,,,,,,,,white,circle
0.0,7.0,3.0,1.0,6.0,0.0,0.0,1.0,0.0,part_2,stop,350.0,400.0,4.0,,,,,,,,,yellow,triangle
0.0,8.0,4.0,1.0,5.0,0.0,0.0,1.0,0.0,part_2,stop,350.0,450.0,4.0,,,,,,,,,blue,cross
0.0,4.0,4.0,0.0,5.0,5.0,745.8280809996722,1.0,0.0,part_2,go,400.0,450.0,1.0,,,,,,,,,magenta,flipped triangle
0.0,2.0,2.0,0.0,5.0,5.0,559.9655500000154,1.0,0.0,part_2,go,400.0,450.0,1.0,,,,,,,,,white,circle
0.0,8.0,4.0,1.0,6.0,6.0,589.2899540003782,1.0,0.0,part_2,stop,400.0,450.0,3.0,,,,,,,,,blue,cross
0.0,1.0,1.0,0.0,5.0,5.0,879.0920319997895,1.0,0.0,part_2,go,400.0,400.0,1.0,,,,,,,,,gray,diamond
0.0,1.0,1.0,0.0,5.0,5.0,681.260919000124,1.0,0.0,part_2,go,400.0,400.0,1.0,,,,,,,,,gray,diamond
0.0,8.0,4.0,1.0,5.0,0.0,0.0,1.0,0.0,part_2,stop,400.0,400.0,4.0,,,,,,,,,blue,cross
0.0,5.0,1.0,1.0,6.0,0.0,0.0,1.0,0.0,part_2,stop,450.0,400.0,4.0,,,,,,,,,green,I
0.0,5.0,1.0,1.0,5.0,0.0,0.0,1.0,0.0,part_2,stop,450.0,450.0,4.0,,,,,,,,,green,I
0.0,3.0,3.0,0.0,6.0,6.0,782.0239060001768,1.0,0.0,part_2,go,500.0,450.0,1.0,,,,,,,,,orange,square
0.0,2.0,2.0,0.0,5.0,5.0,737.4613669999235,1.0,0.0,part_2,go,500.0,450.0,1.0,,,,,,,,,white,circle
0.0,5.0,1.0,1.0,6.0,6.0,599.1972170004374,1.0,0.0,part_2,go,500.0,450.0,1.0,,,,,,,,,green,I
0.0,6.0,2.0,1.0,5.0,0.0,0.0,1.0,0.0,part_2,stop,500.0,450.0,4.0,,,,,,,,,cyan,hexagon
0.0,7.0,3.0,1.0,6.0,6.0,592.9278060002616,1.0,0.0,part_2,stop,550.0,450.0,3.0,,,,,,,,,yellow,triangle
0.0,4.0,4.0,0.0,5.0,5.0,807.0037159995991,1.0,0.0,part_2,go,550.0,400.0,1.0,,,,,,,,,magenta,flipped triangle
0.0,1.0,1.0,0.0,6.0,6.0,386.4452440002424,1.0,0.0,part_2,go,550.0,400.0,1.0,,,,,,,,,gray,diamond
0.0,8.0,4.0,1.0,5.0,5.0,911.9309900006556,1.0,0.0,part_2,go,550.0,400.0,1.0,,,,,,,,,blue,cross
0.0,2.0,2.0,0.0,6.0,6.0,457.735945999957,1.0,0.0,part_2,go,550.0,400.0,1.0,,,,,,,,,white,circle
0.0,6.0,2.0,1.0,6.0,6.0,524.1054630005237,1.0,0.0,part_2,go,550.0,400.0,1.0,,,,,,,,,cyan,hexagon
0.0,5.0,1.0,1.0,6.0,6.0,517.0717299997705,1.0,0.0,part_2,stop,550.0,400.0,3.0,,,,,,,,,green,I
0.0,7.0,3.0,1.0,5.0,0.0,0.0,2.0,0.0,part_2,stop,550.0,350.0,4.0,,,,,,,,,yellow,triangle
0.0,6.0,2.0,1.0,6.0,6.0,315.9235269995406,2.0,0.0,part_2,stop,600.0,350.0,3.0,,,,,,,,,cyan,hexagon
0.0,7.0,3.0,1.0,6.0,6.0,679.5320329993046,2.0,0.0,part_2,go,600.0,300.0,1.0,,,,,,,,,yellow,triangle
0.0,3.0,3.0,0.0,5.0,5.0,374.0438730001187,2.0,0.0,part_2,go,600.0,300.0,1.0,,,,,,,,,orange,square
0.0,4.0,4.0,0.0,5.0,5.0,558.9967470004922,2.0,0.0,part_2,go,600.0,300.0,1.0,,,,,,,,,magenta,flipped triangle
0.0,6.0,2.0,1.0,6.0,0.0,0.0,2.0,0.0,part_2,stop,600.0,300.0,4.0,,,,,,,,,cyan,hexagon
0.0,2.0,2.0,0.0,5.0,5.0,522.4894490002043,2.0,0.0,part_2,go,600.0,350.0,1.0,,,,,,,,,white,circle
0.0,6.0,2.0,1.0,6.0,6.0,828.9426070004993,2.0,0.0,part_2,go,600.0,350.0,1.0,,,,,,,,,cyan,hexagon
0.0,2.0,2.0,0.0,5.0,5.0,439.0050850006446,2.0,0.0,part_2,go,600.0,350.0,1.0,,,,,,,,,white,circle
0.0,1.0,1.0,0.0,6.0,6.0,587.1727960002318,2.0,0.0,part_2,go,600.0,350.0,1.0,,,,,,,,,gray,diamond
0.0,6.0,2.0,1.0,5.0,5.0,742.9538269998375,2.0,0.0,part_2,stop,600.0,350.0,3.0,,,,,,,,,cyan,hexagon
0.0,7.0,3.0,1.0,5.0,5.0,578.1595650005329,2.0,0.0,part_2,go,550.0,350.0,1.0,,,,,,,,,yellow,triangle
0.0,3.0,3.0,0.0,6.0,6.0,493.7946919999376,2.0,0.0,part_2,go,550.0,350.0,1.0,,,,,,,,,orange,square
0.0,6.0,2.0,1.0,5.0,0.0,0.0,2.0,0.0,part_2,stop,550.0,350.0,4.0,,,,,,,,,cyan,hexagon
0.0,7.0,3.0,1.0,5.0,5.0,651.6059089999544,2.0,0.0,part_2,stop,600.0,350.0,3.0,,,,,,,,,yellow,triangle
0.0,2.0,2.0,0.0,5.0,5.0,521.9713129999946,2.0,0.0,part_2,go,550.0,350.0,1.0,,,,,,,,,white,circle
0.0,2.0,2.0,0.0,5.0,5.0,574.9945899997329,2.0,0.0,part_2,go,550.0,350.0,1.0,,,,,,,,,white,circle
0.0,1.0,1.0,0.0,6.0,6.0,606.3659159999588,2.0,0.0,part_2,go,550.0,350.0,1.0,,,,,,,,,gray,diamond
0.0,7.0,3.0,1.0,6.0,6.0,901.4434169994274,2.0,0.0,part_2,go,550.0,350.0,1.0,,,,,,,,,yellow,triangle
0.0,6.0,2.0,1.0,5.0,5.0,374.1219989997262,2.0,0.0,part_2,go,550.0,350.0,1.0,,,,,,,,,cyan,hexagon
0.0,5.0,1.0,1.0,6.0,6.0,1041.70731800059,2.0,0.0,part_2,go,550.0,350.0,1.0,,,,,,,,,green,I
0.0,3.0,3.0,0.0,6.0,6.0,605.8313530002124,2.0,0.0,part_2,go,550.0,350.0,1.0,,,,,,,,,orange,square
0.0,5.0,1.0,1.0,5.0,5.0,419.2026199998508,2.0,0.0,part_2,stop,550.0,350.0,3.0,,,,,,,,,green,I
0.0,6.0,2.0,1.0,5.0,0.0,0.0,2.0,0.0,part_2,stop,500.0,350.0,4.0,,,,,,,,,cyan,hexagon
0.0,4.0,4.0,0.0,6.0,6.0,912.1556990003228,2.0,0.0,part_2,go,550.0,350.0,1.0,,,,,,,,,magenta,flipped triangle
0.0,4.0,4.0,0.0,6.0,6.0,399.488060999829,2.0,0.0,part_2,go,550.0,350.0,1.0,,,,,,,,,magenta,flipped triangle
0.0,4.0,4.0,0.0,6.0,6.0,605.4979840000669,2.0,0.0,part_2,go,550.0,350.0,1.0,,,,,,,,,magenta,flipped triangle
0.0,5.0,1.0,1.0,6.0,0.0,0.0,2.0,0.0,part_2,stop,550.0,350.0,4.0,,,,,,,,,green,I
0.0,3.0,3.0,0.0,6.0,6.0,688.7561180001285,2.0,0.0,part_2,go,550.0,400.0,1.0,,,,,,,,,orange,square
0.0,8.0,4.0,1.0,6.0,0.0,0.0,2.0,0.0,part_2,stop,550.0,400.0,4.0,,,,,,,,,blue,cross
0.0,1.0,1.0,0.0,5.0,5.0,604.022179999447,2.0,0.0,part_2,go,550.0,450.0,1.0,,,,,,,,,gray,diamond
0.0,8.0,4.0,1.0,5.0,5.0,776.2120450006478,2.0,0.0,part_2,go,550.0,450.0,1.0,,,,,,,,,blue,cross
0.0,2.0,2.0,0.0,6.0,6.0,559.6179089998259,2.0,0.0,part_2,go,550.0,450.0,1.0,,,,,,,,,white,circle
0.0,1.0,1.0,0.0,5.0,5.0,419.1349520006042,2.0,0.0,part_2,go,550.0,450.0,1.0,,,,,,,,,gray,diamond
0.0,5.0,1.0,1.0,5.0,5.0,959.8040720002246,2.0,0.0,part_2,go,550.0,450.0,1.0,,,,,,,,,green,I
0.0,3.0,3.0,0.0,6.0,6.0,522.0476049998979,2.0,0.0,part_2,go,550.0,450.0,1.0,,,,,,,,,orange,square
0.0,3.0,3.0,0.0,6.0,6.0,392.4965199994403,3.0,0.0,part_2,go,550.0,450.0,1.0,,,,,,,,,orange,square
0.0,5.0,1.0,1.0,5.0,5.0,344.9030890005815,3.0,0.0,part_2,stop,550.0,450.0,3.0,,,,,,,,,green,I
0.0,3.0,3.0,0.0,5.0,5.0,672.5739359999352,3.0,0.0,part_2,go,500.0,450.0,1.0,,,,,,,,,orange,square
0.0,8.0,4.0,1.0,6.0,6.0,353.0370939997738,3.0,0.0,part_2,stop,500.0,450.0,3.0,,,,,,,,,blue,cross
0.0,7.0,3.0,1.0,6.0,6.0,558.9856919996237,3.0,0.0,part_2,stop,500.0,400.0,3.0,,,,,,,,,yellow,triangle
0.0,1.0,1.0,0.0,5.0,5.0,594.8830009992889,3.0,0.0,part_2,go,500.0,350.0,1.0,,,,,,,,,gray,diamond
0.0,1.0,1.0,0.0,5.0,5.0,438.2465569997293,3.0,0.0,part_2,go,500.0,350.0,1.0,,,,,,,,,gray,diamond
0.0,1.0,1.0,0.0,5.0,5.0,625.8016649999263,3.0,0.0,part_2,go,500.0,350.0,1.0,,,,,,,,,gray,diamond
0.0,7.0,3.0,1.0,6.0,0.0,0.0,3.0,0.0,part_2,stop,500.0,350.0,4.0,,,,,,,,,yellow,triangle
0.0,1.0,1.0,0.0,6.0,6.0,876.3181699996494,3.0,0.0,part_2,go,500.0,400.0,1.0,,,,,,,,,gray,diamond
0.0,7.0,3.0,1.0,6.0,6.0,811.0991359999389,3.0,0.0,part_2,go,500.0,400.0,1.0,,,,,,,,,yellow,triangle
0.0,8.0,4.0,1.0,6.0,0.0,0.0,3.0,0.0,part_2,stop,500.0,400.0,4.0,,,,,,,,,blue,cross
0.0,2.0,2.0,0.0,6.0,6.0,493.4285619992806,3.0,0.0,part_2,go,500.0,450.0,1.0,,,,,,,,,white,circle
0.0,5.0,1.0,1.0,6.0,6.0,716.1635749998823,3.0,0.0,part_2,go,500.0,450.0,1.0,,,,,,,,,green,I
0.0,6.0,2.0,1.0,6.0,0.0,0.0,3.0,0.0,part_2,stop,500.0,450.0,4.0,,,,,,,,,cyan,hexagon
0.0,4.0,4.0,0.0,5.0,5.0,773.1452699999863,3.0,0.0,part_2,go,500.0,500.0,1.0,,,,,,,,,magenta,flipped triangle
0.0,8.0,4.0,1.0,6.0,6.0,688.1714200007991,3.0,0.0,part_2,stop,500.0,500.0,3.0,,,,,,,,,blue,cross
0.0,4.0,4.0,0.0,6.0,6.0,608.1608450003841,3.0,0.0,part_2,go,500.0,450.0,1.0,,,,,,,,,magenta,flipped triangle
0.0,4.0,4.0,0.0,5.0,5.0,653.3733870001015,3.0,0.0,part_2,go,500.0,450.0,1.0,,,,,,,,,magenta,flipped triangle
0.0,6.0,2.0,1.0,6.0,0.0,0.0,3.0,0.0,part_2,stop,500.0,450.0,4.0,,,,,,,,,cyan,hexagon
0.0,2.0,2.0,0.0,6.0,6.0,495.2089950002118,3.0,0.0,part_2,go,500.0,500.0,1.0,,,,,,,,,white,circle
0.0,4.0,4.0,0.0,5.0,5.0,595.9781129995463,3.0,0.0,part_2,go,500.0,500.0,1.0,,,,,,,,,magenta,flipped triangle
0.0,7.0,3.0,1.0,5.0,0.0,0.0,3.0,0.0,part_2,stop,500.0,500.0,4.0,,,,,,,,,yellow,triangle
0.0,8.0,4.0,1.0,5.0,0.0,0.0,3.0,0.0,part_2,stop,550.0,500.0,4.0,,,,,,,,,blue,cross
0.0,2.0,2.0,0.0,6.0,6.0,532.5365709995822,3.0,0.0,part_2,go,600.0,500.0,1.0,,,,,,,,,white,circle
0.0,7.0,3.0,1.0,5.0,0.0,0.0,3.0,0.0,part_2,stop,600.0,500.0,4.0,,,,,,,,,yellow,triangle
0.0,5.0,1.0,1.0,6.0,0.0,0.0,3.0,0.0,part_2,stop,650.0,500.0,4.0,,,,,,,,,green,I
0.0,2.0,2.0,0.0,5.0,5.0,540.3061369997886,3.0,0.0,part_2,go,650.0,550.0,1.0,,,,,,,,,white,circle
0.0,4.0,4.0,0.0,6.0,6.0,894.2408969996904,3.0,0.0,part_2,go,650.0,550.0,1.0,,,,,,,,,magenta,flipped triangle
0.0,5.0,1.0,1.0,5.0,5.0,688.3755520002524,3.0,0.0,part_2,stop,650.0,550.0,3.0,,,,,,,,,green,I
0.0,5.0,1.0,1.0,6.0,0.0,0.0,3.0,0.0,part_2,stop,600.0,550.0,4.0,,,,,,,,,green,I
0.0,5.0,1.0,1.0,5.0,5.0,1017.4453660001743,3.0,0.0,part_2,go,600.0,600.0,1.0,,,,,,,,,green,I
0.0,3.0,3.0,0.0,5.0,5.0,635.9886179998284,3.0,0.0,part_2,go,600.0,600.0,1.0,,,,,,,,,orange,square
0.0,1.0,1.0,0.0,6.0,6.0,523.1656339992696,3.0,0.0,part_2,go,600.0,600.0,1.0,,,,,,,,,gray,diamond
0.0,3.0,3.0,0.0,6.0,6.0,700.0148629995238,3.0,0.0,part_2,go,600.0,600.0,1.0,,,,,,,,,orange,square
0.0,3.0,3.0,0.0,5.0,5.0,643.2859139995344,3.0,0.0,part_2,go,600.0,600.0,1.0,,,,,,,,,orange,square
0.0,8.0,4.0,1.0,6.0,6.0,550.5978190003589,4.0,0.0,part_2,stop,600.0,600.0,3.0,,,,,,,,,blue,cross
0.0,8.0,4.0,1.0,6.0,0.0,0.0,4.0,0.0,part_2,stop,600.0,550.0,4.0,,,,,,,,,blue,cross
0.0,4.0,4.0,0.0,6.0,6.0,558.3631240006071,4.0,0.0,part_2,go,600.0,600.0,1.0,,,,,,,,,magenta,flipped triangle
0.0,8.0,4.0,1.0,6.0,6.0,922.3479120000776,4.0,0.0,part_2,go,600.0,600.0,1.0,,,,,,,,,blue,cross
0.0,7.0,3.0,1.0,5.0,5.0,449.2154740000842,4.0,0.0,part_2,stop,600.0,600.0,3.0,,,,,,,,,yellow,triangle
0.0,3.0,3.0,0.0,5.0,5.0,448.2821270003114,4.0,0.0,part_2,go,550.0,600.0,1.0,,,,,,,,,orange,square
0.0,4.0,4.0,0.0,6.0,6.0,816.7730440000014,4.0,0.0,part_2,go,550.0,600.0,1.0,,,,,,,,,magenta,flipped triangle
0.0,3.0,3.0,0.0,6.0,6.0,577.0028219994856,4.0,0.0,part_2,go,550.0,600.0,1.0,,,,,,,,,orange,square
0.0,8.0,4.0,1.0,5.0,5.0,987.429379999412,4.0,0.0,part_2,go,550.0,600.0,1.0,,,,,,,,,blue,cross
0.0,8.0,4.0,1.0,6.0,0.0,0.0,4.0,0.0,part_2,stop,550.0,600.0,4.0,,,,,,,,,blue,cross
0.0,3.0,3.0,0.0,5.0,5.0,457.4895469995681,4.0,0.0,part_2,go,550.0,650.0,1.0,,,,,,,,,orange,square
0.0,6.0,2.0,1.0,6.0,6.0,790.4672259992367,4.0,0.0,part_2,go,550.0,650.0,1.0,,,,,,,,,cyan,hexagon
0.0,5.0,1.0,1.0,5.0,5.0,605.9111659997143,4.0,0.0,part_2,stop,550.0,650.0,3.0,,,,,,,,,green,I
0.0,7.0,3.0,1.0,6.0,6.0,709.6892970002955,4.0,0.0,part_2,stop,500.0,650.0,3.0,,,,,,,,,yellow,triangle
0.0,8.0,4.0,1.0,6.0,0.0,0.0,4.0,0.0,part_2,stop,500.0,600.0,4.0,,,,,,,,,blue,cross
0.0,8.0,4.0,1.0,5.0,5.0,662.8570769998987,4.0,0.0,part_2,go,500.0,650.0,1.0,,,,,,,,,blue,cross
0.0,6.0,2.0,1.0,5.0,5.0,636.11768499959,4.0,0.0,part_2,stop,500.0,650.0,3.0,,,,,,,,,cyan,hexagon
0.0,2.0,2.0,0.0,5.0,5.0,671.2784430001193,4.0,0.0,part_2,go,450.0,650.0,1.0,,,,,,,,,white,circle
0.0,4.0,4.0,0.0,5.0,5.0,541.4660309997998,4.0,0.0,part_2,go,450.0,650.0,1.0,,,,,,,,,magenta,flipped triangle
0.0,5.0,1.0,1.0,6.0,0.0,0.0,4.0,0.0,part_2,stop,450.0,650.0,4.0,,,,,,,,,green,I
0.0,2.0,2.0,0.0,6.0,6.0,560.9962400003496,4.0,0.0,part_2,go,450.0,700.0,1.0,,,,,,,,,white,circle
0.0,4.0,4.0,0.0,6.0,6.0,606.7864340002416,4.0,0.0,part_2,go,450.0,700.0,1.0,,,,,,,,,magenta,flipped triangle
0.0,6.0,2.0,1.0,6.0,0.0,0.0,4.0,0.0,part_2,stop,450.0,700.0,4.0,,,,,,,,,cyan,hexagon
0.0,2.0,2.0,0.0,6.0,6.0,607.7786209998521,4.0,0.0,part_2,go,450.0,750.0,1.0,,,,,,,,,white,circle
0.0,8.0,4.0,1.0,5.0,5.0,1222.7995049997844,4.0,0.0,part_2,go,450.0,750.0,1.0,,,,,,,,,blue,cross
0.0,7.0,3.0,1.0,6.0,6.0,365.5719069993211,4.0,0.0,part_2,stop,450.0,750.0,3.0,,,,,,,,,yellow,triangle
0.0,8.0,4.0,1.0,6.0,6.0,1011.5326410004857,4.0,0.0,part_2,go,450.0,700.0,1.0,,,,,,,,,blue,cross
0.0,8.0,4.0,1.0,6.0,6.0,860.4585960001714,4.0,0.0,part_2,stop,450.0,700.0,3.0,,,,,,,,,blue,cross
0.0,7.0,3.0,1.0,5.0,5.0,812.3550939999404,4.0,0.0,part_2,go,450.0,650.0,1.0,,,,,,,,,yellow,triangle
0.0,3.0,3.0,0.0,6.0,6.0,578.3423659995606,4.0,0.0,part_2,go,450.0,650.0,1.0,,,,,,,,,orange,square
0.0,8.0,4.0,1.0,6.0,0.0,0.0,4.0,0.0,part_2,stop,450.0,650.0,4.0,,,,,,,,,blue,cross
0.0,4.0,4.0,0.0,6.0,6.0,608.8016949997836,4.0,0.0,part_2,go,450.0,700.0,1.0,,,,,,,,,magenta,flipped triangle
0.0,5.0,1.0,1.0,6.0,0.0,0.0,4.0,0.0,part_2,stop,450.0,700.0,4.0,,,,,,,,,green,I
0.0,5.0,1.0,1.0,6.0,0.0,0.0,4.0,0.0,part_2,stop,450.0,750.0,4.0,,,,,,,,,green,I
0.0,3.0,3.0,0.0,5.0,5.0,496.1553940001977,4.0,0.0,part_2,go,450.0,800.0,1.0,,,,,,,,,orange,square
0.0,6.0,2.0,1.0,6.0,6.0,402.1965450001517,4.0,0.0,part_2,go,450.0,800.0,1.0,,,,,,,,,cyan,hexagon
0.0,7.0,3.0,1.0,5.0,5.0,535.6855689997246,5.0,0.0,part_2,stop,450.0,800.0,3.0,,,,,,,,,yellow,triangle
0.0,7.0,3.0,1.0,6.0,6.0,571.8502439995063,5.0,0.0,part_2,go,400.0,800.0,1.0,,,,,,,,,yellow,triangle
0.0,5.0,1.0,1.0,5.0,0.0,0.0,5.0,0.0,part_2,stop,400.0,800.0,4.0,,,,,,,,,green,I
0.0,6.0,2.0,1.0,5.0,0.0,0.0,5.0,0.0,part_2,stop,450.0,800.0,4.0,,,,,,,,,cyan,hexagon
0.0,4.0,4.0,0.0,5.0,5.0,721.9300870001462,5.0,0.0,part_2,go,500.0,800.0,1.0,,,,,,,,,magenta,flipped triangle
0.0,5.0,1.0,1.0,6.0,6.0,1025.7265159998497,5.0,0.0,part_2,stop,500.0,800.0,3.0,,,,,,,,,green,I
0.0,2.0,2.0,0.0,6.0,6.0,776.12388200032,5.0,0.0,part_2,go,500.0,750.0,1.0,,,,,,,,,white,circle
0.0,3.0,3.0,0.0,6.0,6.0,911.3814190004632,5.0,0.0,part_2,go,500.0,750.0,1.0,,,,,,,,,orange,square
0.0,1.0,1.0,0.0,6.0,6.0,579.882656999871,5.0,0.0,part_2,go,500.0,750.0,1.0,,,,,,,,,gray,diamond
0.0,7.0,3.0,1.0,6.0,6.0,563.742137999725,5.0,0.0,part_2,stop,500.0,750.0,3.0,,,,,,,,,yellow,triangle
0.0,8.0,4.0,1.0,5.0,0.0,0.0,5.0,0.0,part_2,stop,500.0,700.0,4.0,,,,,,,,,blue,cross
0.0,2.0,2.0,0.0,6.0,6.0,597.9495100000349,5.0,0.0,part_2,go,550.0,700.0,1.0,,,,,,,,,white,circle
0.0,6.0,2.0,1.0,6.0,6.0,834.852865999892,5.0,0.0,part_2,stop,550.0,700.0,3.0,,,,,,,,,cyan,hexagon
0.0,8.0,4.0,1.0,6.0,6.0,1198.145790000126,5.0,0.0,part_2,go,550.0,650.0,1.0,,,,,,,,,blue,cross
0.0,1.0,1.0,0.0,6.0,6.0,430.3791810007169,5.0,0.0,part_2,go,550.0,650.0,1.0,,,,,,,,,gray,diamond
0.0,2.0,2.0,0.0,5.0,5.0,561.1847349991876,5.0,0.0,part_2,go,550.0,650.0,1.0,,,,,,,,,white,circle
0.0,2.0,2.0,0.0,5.0,5.0,494.8526620000848,5.0,0.0,part_2,go,550.0,650.0,1.0,,,,,,,,,white,circle
0.0,8.0,4.0,1.0,5.0,0.0,0.0,5.0,0.0,part_2,stop,550.0,650.0,4.0,,,,,,,,,blue,cross
0.0,6.0,2.0,1.0,5.0,0.0,0.0,5.0,0.0,part_2,stop,600.0,650.0,4.0,,,,,,,,,cyan,hexagon
0.0,1.0,1.0,0.0,5.0,5.0,777.401242000451,5.0,0.0,part_2,go,650.0,650.0,1.0,,,,,,,,,gray,diamond
0.0,3.0,3.0,0.0,5.0,5.0,644.8551899993618,5.0,0.0,part_2,go,650.0,650.0,1.0,,,,,,,,,orange,square
0.0,3.0,3.0,0.0,6.0,6.0,590.322039000057,5.0,0.0,part_2,go,650.0,650.0,1.0,,,,,,,,,orange,square
0.0,1.0,1.0,0.0,6.0,6.0,778.1675180003731,5.0,0.0,part_2,go,650.0,650.0,1.0,,,,,,,,,gray,diamond
0.0,3.0,3.0,0.0,5.0,5.0,483.598004999294,5.0,0.0,part_2,go,650.0,650.0,1.0,,,,,,,,,orange,square
0.0,2.0,2.0,0.0,5.0,5.0,452.2547630003828,5.0,0.0,part_2,go,650.0,650.0,1.0,,,,,,,,,white,circle
0.0,1.0,1.0,0.0,6.0,6.0,413.3262680006737,5.0,0.0,part_2,go,650.0,650.0,1.0,,,,,,,,,gray,diamond
0.0,3.0,3.0,0.0,6.0,6.0,411.7107560005024,5.0,0.0,part_2,go,650.0,650.0,1.0,,,,,,,,,orange,square
0.0,3.0,3.0,0.0,5.0,5.0,432.8329610007131,5.0,0.0,part_2,go,650.0,650.0,1.0,,,,,,,,,orange,square
0.0,5.0,1.0,1.0,5.0,0.0,0.0,5.0,0.0,part_2,stop,650.0,650.0,4.0,,,,,,,,,green,I
0.0,8.0,4.0,1.0,5.0,0.0,0.0,5.0,0.0,part_2,stop,700.0,650.0,4.0,,,,,,,,,blue,cross
0.0,2.0,2.0,0.0,5.0,5.0,589.9097430001348,5.0,0.0,part_2,go,750.0,650.0,1.0,,,,,,,,,white,circle
0.0,6.0,2.0,1.0,5.0,0.0,0.0,5.0,0.0,part_2,stop,750.0,650.0,4.0,,,,,,,,,cyan,hexagon
0.0,2.0,2.0,0.0,6.0,6.0,421.3559879999593,5.0,0.0,part_2,go,800.0,650.0,1.0,,,,,,,,,white,circle
0.0,8.0,4.0,1.0,5.0,5.0,846.6406120005558,5.0,0.0,part_2,stop,800.0,650.0,3.0,,,,,,,,,blue,cross
0.0,5.0,1.0,1.0,5.0,0.0,0.0,5.0,0.0,part_2,stop,750.0,650.0,4.0,,,,,,,,,green,I
0.0,1.0,1.0,0.0,5.0,5.0,656.8248110006607,5.0,0.0,part_2,go,800.0,650.0,1.0,,,,,,,,,gray,diamond
0.0,4.0,4.0,0.0,5.0,5.0,625.953519000177,6.0,0.0,part_2,go,800.0,650.0,1.0,,,,,,,,,magenta,flipped triangle
0.0,8.0,4.0,1.0,5.0,0.0,0.0,6.0,0.0,part_2,stop,800.0,650.0,4.0,,,,,,,,,blue,cross
0.0,7.0,3.0,1.0,5.0,5.0,981.3530569999784,6.0,0.0,part_2,go,850.0,650.0,1.0,,,,,,,,,yellow,triangle
0.0,6.0,2.0,1.0,5.0,0.0,0.0,6.0,0.0,part_2,stop,850.0,650.0,4.0,,,,,,,,,cyan,hexagon
0.0,7.0,3.0,1.0,5.0,5.0,588.7365469998258,6.0,0.0,part_2,stop,900.0,650.0,3.0,,,,,,,,,yellow,triangle
0.0,5.0,1.0,1.0,5.0,0.0,0.0,6.0,0.0,part_2,stop,850.0,650.0,4.0,,,,,,,,,green,I
0.0,3.0,3.0,0.0,6.0,6.0,644.4159949996902,6.0,0.0,part_2,go,900.0,650.0,1.0,,,,,,,,,orange,square
0.0,7.0,3.0,1.0,5.0,0.0,0.0,6.0,0.0,part_2,stop,900.0,650.0,4.0,,,,,,,,,yellow,triangle
0.0,2.0,2.0,0.0,6.0,6.0,570.2794360004191,6.0,0.0,part_2,go,950.0,650.0,1.0,,,,,,,,,white,circle
0.0,7.0,3.0,1.0,6.0,6.0,699.64742799948,6.0,0.0,part_2,stop,950.0,650.0,3.0,,,,,,,,,yellow,triangle
0.0,5.0,1.0,1.0,6.0,6.0,1259.458188999815,6.0,0.0,part_2,go,950.0,600.0,1.0,,,,,,,,,green,I
0.0,1.0,1.0,0.0,5.0,5.0,521.0985449994041,6.0,0.0,part_2,go,950.0,600.0,1.0,,,,,,,,,gray,diamond
0.0,4.0,4.0,0.0,5.0,5.0,639.6946189997834,6.0,0.0,part_2,go,950.0,600.0,1.0,,,,,,,,,magenta,flipped triangle
0.0,5.0,1.0,1.0,6.0,6.0,1164.5852040001046,6.0,0.0,part_2,go,950.0,600.0,1.0,,,,,,,,,green,I
0.0,8.0,4.0,1.0,5.0,0.0,0.0,6.0,0.0,part_2,stop,950.0,600.0,4.0,,,,,,,,,blue,cross
0.0,6.0,2.0,1.0,6.0,0.0,0.0,6.0,0.0,part_2,stop,1000.0,600.0,4.0,,,,,,,,,cyan,hexagon
0.0,7.0,3.0,1.0,6.0,6.0,915.4549619997852,6.0,0.0,part_2,go,1000.0,650.0,1.0,,,,,,,,,yellow,triangle
0.0,1.0,1.0,0.0,5.0,5.0,543.4061850000944,6.0,0.0,part_2,go,1000.0,650.0,1.0,,,,,,,,,gray,diamond
0.0,3.0,3.0,0.0,5.0,5.0,710.9511159997055,6.0,0.0,part_2,go,1000.0,650.0,1.0,,,,,,,,,orange,square
0.0,1.0,1.0,0.0,6.0,6.0,438.4630869999455,6.0,0.0,part_2,go,1000.0,650.0,1.0,,,,,,,,,gray,diamond
0.0,2.0,2.0,0.0,5.0,5.0,717.7150659999825,6.0,0.0,part_2,go,1000.0,650.0,1.0,,,,,,,,,white,circle
0.0,2.0,2.0,0.0,6.0,6.0,523.5735610003758,6.0,0.0,part_2,go,1000.0,650.0,1.0,,,,,,,,,white,circle
0.0,3.0,3.0,0.0,5.0,5.0,493.3252290002201,6.0,0.0,part_2,go,1000.0,650.0,1.0,,,,,,,,,orange,square
0.0,6.0,2.0,1.0,6.0,6.0,484.6230739995008,6.0,0.0,part_2,stop,1000.0,650.0,3.0,,,,,,,,,cyan,hexagon
0.0,8.0,4.0,1.0,6.0,6.0,1006.9266630007403,6.0,0.0,part_2,go,1000.0,600.0,1.0,,,,,,,,,blue,cross
0.0,6.0,2.0,1.0,6.0,6.0,1069.3296700001156,6.0,0.0,part_2,go,1000.0,600.0,1.0,,,,,,,,,cyan,hexagon
0.0,1.0,1.0,0.0,5.0,5.0,531.5492500003529,6.0,0.0,part_2,go,1000.0,600.0,1.0,,,,,,,,,gray,diamond
0.0,8.0,4.0,1.0,6.0,0.0,0.0,6.0,0.0,part_2,stop,1000.0,600.0,4.0,,,,,,,,,blue,cross
0.0,4.0,4.0,0.0,6.0,6.0,586.3158199999816,6.0,0.0,part_2,go,1000.0,650.0,1.0,,,,,,,,,magenta,flipped triangle
0.0,7.0,3.0,1.0,5.0,5.0,838.3023610003875,6.0,0.0,part_2,stop,1000.0,650.0,3.0,,,,,,,,,yellow,triangle
0.0,3.0,3.0,0.0,6.0,6.0,409.6263279998311,6.0,0.0,part_2,go,950.0,650.0,1.0,,,,,,,,,orange,square
0.0,2.0,2.0,0.0,5.0,5.0,410.1044440003534,6.0,0.0,part_2,go,950.0,650.0,1.0,,,,,,,,,white,circle
0.0,2.0,2.0,0.0,6.0,6.0,465.2410950002377,6.0,0.0,part_2,go,950.0,650.0,1.0,,,,,,,,,white,circle
0.0,2.0,2.0,0.0,5.0,5.0,502.5876290001179,6.0,0.0,part_2,go,950.0,650.0,1.0,,,,,,,,,white,circle
0.0,5.0,1.0,1.0,5.0,5.0,419.4878450007309,6.0,0.0,part_2,stop,950.0,650.0,3.0,,,,,,,,,green,I
0.0,3.0,3.0,0.0,5.0,5.0,596.9827139997506,6.0,0.0,part_2,go,900.0,650.0,1.0,,,,,,,,,orange,square
0.0,5.0,1.0,1.0,5.0,5.0,400.2489100003004,7.0,0.0,part_2,stop,900.0,650.0,3.0,,,,,,,,,green,I
0.0,4.0,4.0,0.0,5.0,5.0,531.2154719995306,7.0,0.0,part_2,go,850.0,650.0,1.0,,,,,,,,,magenta,flipped triangle
0.0,6.0,2.0,1.0,5.0,5.0,847.2886950003158,7.0,0.0,part_2,stop,850.0,650.0,3.0,,,,,,,,,cyan,hexagon
0.0,2.0,2.0,0.0,6.0,6.0,595.6710590007788,7.0,0.0,part_2,go,800.0,650.0,1.0,,,,,,,,,white,circle
0.0,7.0,3.0,1.0,5.0,0.0,0.0,7.0,0.0,part_2,stop,800.0,650.0,4.0,,,,,,,,,yellow,triangle
0.0,6.0,2.0,1.0,5.0,5.0,885.8798299997943,7.0,0.0,part_2,stop,850.0,650.0,3.0,,,,,,,,,cyan,hexagon
0.0,4.0,4.0,0.0,5.0,5.0,513.9767280006708,7.0,0.0,part_2,go,800.0,650.0,1.0,,,,,,,,,magenta,flipped triangle
0.0,4.0,4.0,0.0,5.0,5.0,669.6085579997089,7.0,0.0,part_2,go,800.0,650.0,1.0,,,,,,,,,magenta,flipped triangle
0.0,3.0,3.0,0.0,5.0,5.0,468.1881449996581,7.0,0.0,part_2,go,800.0,650.0,1.0,,,,,,,,,orange,square
0.0,5.0,1.0,1.0,6.0,0.0,0.0,7.0,0.0,part_2,stop,800.0,650.0,4.0,,,,,,,,,green,I
0.0,4.0,4.0,0.0,6.0,6.0,707.8641259995493,7.0,0.0,part_2,go,800.0,700.0,1.0,,,,,,,,,magenta,flipped triangle
0.0,3.0,3.0,0.0,5.0,5.0,409.5684779995281,7.0,0.0,part_2,go,800.0,700.0,1.0,,,,,,,,,orange,square
0.0,2.0,2.0,0.0,6.0,6.0,541.6017150000698,7.0,0.0,part_2,go,800.0,700.0,1.0,,,,,,,,,white,circle
0.0,3.0,3.0,0.0,5.0,5.0,595.701618000021,7.0,0.0,part_2,go,800.0,700.0,1.0,,,,,,,,,orange,square
0.0,6.0,2.0,1.0,5.0,5.0,466.2349019999965,7.0,0.0,part_2,stop,800.0,700.0,3.0,,,,,,,,,cyan,hexagon
0.0,3.0,3.0,0.0,6.0,6.0,516.2343800002418,7.0,0.0,part_2,go,750.0,700.0,1.0,,,,,,,,,orange,square
0.0,5.0,1.0,1.0,5.0,0.0,0.0,7.0,0.0,part_2,stop,750.0,700.0,4.0,,,,,,,,,green,I
0.0,6.0,2.0,1.0,5.0,0.0,0.0,7.0,0.0,part_2,stop,800.0,700.0,4.0,,,,,,,,,cyan,hexagon
0.0,1.0,1.0,0.0,5.0,5.0,614.6996589995979,7.0,0.0,part_2,go,850.0,700.0,1.0,,,,,,,,,gray,diamond
0.0,6.0,2.0,1.0,5.0,5.0,1047.242348000509,7.0,0.0,part_2,stop,850.0,700.0,3.0,,,,,,,,,cyan,hexagon
0.0,7.0,3.0,1.0,5.0,5.0,965.4339709995838,7.0,0.0,part_2,stop,800.0,700.0,3.0,,,,,,,,,yellow,triangle
0.0,7.0,3.0,1.0,6.0,0.0,0.0,7.0,0.0,part_2,stop,750.0,700.0,4.0,,,,,,,,,yellow,triangle
0.0,1.0,1.0,0.0,6.0,6.0,595.3034809999735,7.0,0.0,part_2,go,750.0,750.0,1.0,,,,,,,,,gray,diamond
0.0,4.0,4.0,0.0,5.0,5.0,613.2235539998874,7.0,0.0,part_2,go,750.0,750.0,1.0,,,,,,,,,magenta,flipped triangle
0.0,7.0,3.0,1.0,5.0,0.0,0.0,7.0,0.0,part_2,stop,750.0,750.0,4.0,,,,,,,,,yellow,triangle
0.0,8.0,4.0,1.0,6.0,0.0,0.0,7.0,0.0,part_2,stop,800.0,750.0,4.0,,,,,,,,,blue,cross
0.0,7.0,3.0,1.0,6.0,0.0,0.0,7.0,0.0,part_2,stop,800.0,800.0,4.0,,,,,,,,,yellow,triangle
0.0,1.0,1.0,0.0,5.0,5.0,661.2310239997896,7.0,0.0,part_2,go,800.0,850.0,1.0,,,,,,,,,gray,diamond
0.0,6.0,2.0,1.0,6.0,6.0,1292.1431849999865,7.0,0.0,part_2,go,800.0,850.0,1.0,,,,,,,,,cyan,hexagon
0.0,2.0,2.0,0.0,6.0,6.0,419.1858519998277,7.0,0.0,part_2,go,800.0,850.0,1.0,,,,,,,,,white,circle
0.0,3.0,3.0,0.0,6.0,6.0,491.5030009997281,7.0,0.0,part_2,go,800.0,850.0,1.0,,,,,,,,,orange,square
0.0,4.0,4.0,0.0,6.0,6.0,632.316510000237,7.0,0.0,part_2,go,800.0,850.0,1.0,,,,,,,,,magenta,flipped triangle
0.0,5.0,1.0,1.0,6.0,0.0,0.0,7.0,0.0,part_2,stop,800.0,850.0,4.0,,,,,,,,,green,I
0.0,3.0,3.0,0.0,5.0,5.0,465.7761250000476,7.0,0.0,part_2,go,800.0,900.0,1.0,,,,,,,,,orange,square
0.0,6.0,2.0,1.0,6.0,6.0,1026.8290180001711,7.0,0.0,part_2,go,800.0,900.0,1.0,,,,,,,,,cyan,hexagon
0.0,1.0,1.0,0.0,5.0,5.0,493.6433490001946,7.0,0.0,part_2,go,800.0,900.0,1.0,,,,,,,,,gray,diamond
0.0,1.0,1.0,0.0,6.0,6.0,409.1936459999488,8.0,0.0,part_2,go,800.0,900.0,1.0,,,,,,,,,gray,diamond
0.0,1.0,1.0,0.0,6.0,6.0,381.9551350006804,8.0,0.0,part_2,go,800.0,900.0,1.0,,,,,,,,,gray,diamond
0.0,5.0,1.0,1.0,6.0,6.0,373.8310629996704,8.0,0.0,part_2,stop,800.0,900.0,3.0,,,,,,,,,green,I
0.0,5.0,1.0,1.0,6.0,0.0,0.0,8.0,0.0,part_2,stop,800.0,850.0,4.0,,,,,,,,,green,I
0.0,2.0,2.0,0.0,5.0,5.0,577.0024169996759,8.0,0.0,part_2,go,800.0,900.0,1.0,,,,,,,,,white,circle
0.0,4.0,4.0,0.0,5.0,5.0,549.2520340003466,8.0,0.0,part_2,go,800.0,900.0,1.0,,,,,,,,,magenta,flipped triangle
0.0,4.0,4.0,0.0,6.0,6.0,446.849423000458,8.0,0.0,part_2,go,800.0,900.0,1.0,,,,,,,,,magenta,flipped triangle
0.0,5.0,1.0,1.0,5.0,5.0,1059.151567000299,8.0,0.0,part_2,go,800.0,900.0,1.0,,,,,,,,,green,I
0.0,4.0,4.0,0.0,6.0,6.0,439.2120510001405,8.0,0.0,part_2,go,800.0,900.0,1.0,,,,,,,,,magenta,flipped triangle
0.0,7.0,3.0,1.0,6.0,0.0,0.0,8.0,0.0,part_2,stop,800.0,900.0,4.0,,,,,,,,,yellow,triangle
0.0,7.0,3.0,1.0,5.0,0.0,0.0,8.0,0.0,part_2,stop,800.0,950.0,4.0,,,,,,,,,yellow,triangle
0.0,3.0,3.0,0.0,5.0,5.0,547.9014410002492,8.0,0.0,part_2,go,850.0,950.0,1.0,,,,,,,,,orange,square
0.0,1.0,1.0,0.0,6.0,6.0,679.5332179999605,8.0,0.0,part_2,go,850.0,950.0,1.0,,,,,,,,,gray,diamond
0.0,4.0,4.0,0.0,5.0,5.0,1298.2820039997025,8.0,0.0,part_2,go,850.0,950.0,1.0,,,,,,,,,magenta,flipped triangle
0.0,6.0,2.0,1.0,5.0,5.0,996.7180919993552,8.0,0.0,part_2,stop,850.0,950.0,3.0,,,,,,,,,cyan,hexagon
0.0,4.0,4.0,0.0,5.0,5.0,540.3451639995183,8.0,0.0,part_2,go,800.0,950.0,1.0,,,,,,,,,magenta,flipped triangle
0.0,2.0,2.0,0.0,5.0,5.0,866.6989329994976,8.0,0.0,part_2,go,800.0,950.0,1.0,,,,,,,,,white,circle
0.0,5.0,1.0,1.0,5.0,0.0,0.0,8.0,0.0,part_2,stop,800.0,950.0,4.0,,,,,,,,,green,I
0.0,8.0,4.0,1.0,5.0,5.0,959.8968550008068,8.0,0.0,part_2,stop,850.0,950.0,3.0,,,,,,,,,blue,cross
0.0,8.0,4.0,1.0,5.0,0.0,0.0,8.0,0.0,part_2,stop,800.0,950.0,4.0,,,,,,,,,blue,cross
0.0,3.0,3.0,0.0,6.0,6.0,761.7375259997061,8.0,0.0,part_2,go,850.0,950.0,1.0,,,,,,,,,orange,square
0.0,8.0,4.0,1.0,5.0,0.0,0.0,8.0,0.0,part_2,stop,850.0,950.0,4.0,,,,,,,,,blue,cross
0.0,5.0,1.0,1.0,5.0,0.0,0.0,8.0,0.0,part_2,stop,900.0,950.0,4.0,,,,,,,,,green,I
0.0,1.0,1.0,0.0,6.0,6.0,485.6709110008523,8.0,0.0,part_2,go,950.0,950.0,1.0,,,,,,,,,gray,diamond
0.0,3.0,3.0,0.0,6.0,6.0,623.7615180007197,8.0,0.0,part_2,go,950.0,950.0,1.0,,,,,,,,,orange,square
0.0,1.0,1.0,0.0,6.0,6.0,641.4781200001016,8.0,0.0,part_2,go,950.0,950.0,1.0,,,,,,,,,gray,diamond
0.0,6.0,2.0,1.0,5.0,0.0,0.0,8.0,0.0,part_2,stop,950.0,950.0,4.0,,,,,,,,,cyan,hexagon
0.0,1.0,1.0,0.0,6.0,6.0,865.2561869994315,8.0,0.0,part_2,go,1000.0,950.0,1.0,,,,,,,,,gray,diamond
0.0,4.0,4.0,0.0,6.0,6.0,558.4609239995189,8.0,0.0,part_2,go,1000.0,950.0,1.0,,,,,,,,,magenta,flipped triangle
0.0,8.0,4.0,1.0,5.0,0.0,0.0,8.0,0.0,part_2,stop,1000.0,950.0,4.0,,,,,,,,,blue,cross
0.0,7.0,3.0,1.0,6.0,6.0,773.5462810005629,8.0,0.0,part_2,stop,1050.0,950.0,3.0,,,,,,,,,yellow,triangle
0.0,8.0,4.0,1.0,6.0,0.0,0.0,8.0,0.0,part_2,stop,1050.0,900.0,4.0,,,,,,,,,blue,cross
0.0,4.0,4.0,0.0,6.0,6.0,651.4970019998145,8.0,0.0,part_2,go,1050.0,950.0,1.0,,,,,,,,,magenta,flipped triangle
0.0,1.0,1.0,0.0,6.0,6.0,446.2839549996715,8.0,0.0,part_2,go,1050.0,950.0,1.0,,,,,,,,,gray,diamond
0.0,4.0,4.0,0.0,6.0,6.0,355.6673080001928,8.0,0.0,part_2,go,1050.0,950.0,1.0,,,,,,,,,magenta,flipped triangle
0.0,5.0,1.0,1.0,5.0,5.0,1394.6681289999106,8.0,0.0,part_2,go,1050.0,950.0,1.0,,,,,,,,,green,I
0.0,1.0,1.0,0.0,7.0,2.0,4379.906774000119,1.0,1.0,part_3,go,0.0,0.0,0.0,232.0,2.0,116.0,232.0,464.0,580.0,348.0,696.0,gray,diamond
0.0,1.0,1.0,0.0,7.0,5.0,3261.147078000249,1.0,1.0,part_3,go,0.0,0.0,0.0,768.0,4.0,576.0,1152.0,384.0,192.0,768.0,960.0,gray,diamond
0.0,6.0,2.0,1.0,7.0,6.0,3337.95672999986,1.0,1.0,part_3,go,0.0,0.0,0.0,960.0,5.0,192.0,768.0,576.0,384.0,1152.0,960.0,cyan,hexagon
0.0,1.0,1.0,0.0,7.0,3.0,3779.3063500002977,1.0,1.0,part_3,go,0.0,0.0,0.0,405.0,3.0,270.0,135.0,405.0,675.0,810.0,540.0,gray,diamond
0.0,5.0,1.0,1.0,7.0,4.0,3982.557600000291,1.0,1.0,part_3,go,0.0,0.0,0.0,675.0,5.0,810.0,540.0,405.0,675.0,135.0,270.0,green,I
0.0,6.0,2.0,1.0,7.0,2.0,3303.8980650007943,1.0,1.0,part_3,go,0.0,0.0,0.0,865.0,5.0,692.0,865.0,346.0,519.0,173.0,1038.0,cyan,hexagon
0.0,6.0,2.0,1.0,7.0,4.0,3722.271607000039,1.0,1.0,part_3,go,0.0,0.0,0.0,696.0,6.0,348.0,116.0,580.0,696.0,464.0,232.0,cyan,hexagon
0.0,6.0,2.0,1.0,7.0,5.0,2793.4205120000115,1.0,1.0,part_3,go,0.0,0.0,0.0,810.0,6.0,270.0,675.0,540.0,135.0,810.0,405.0,cyan,hexagon
0.0,4.0,4.0,0.0,7.0,1.0,3145.7365779997417,1.0,1.0,part_3,go,0.0,0.0,0.0,865.0,5.0,865.0,173.0,1038.0,346.0,519.0,692.0,magenta,flipped triangle
0.0,8.0,4.0,1.0,7.0,4.0,1225.2038579999862,1.0,1.0,part_3,go,0.0,0.0,0.0,770.0,5.0,462.0,308.0,924.0,770.0,154.0,616.0,blue,cross
0.0,6.0,2.0,1.0,7.0,5.0,2386.984355000095,1.0,1.0,part_3,go,0.0,0.0,0.0,616.0,4.0,770.0,924.0,154.0,308.0,616.0,462.0,cyan,hexagon
0.0,7.0,3.0,1.0,7.0,1.0,1473.342915000103,1.0,1.0,part_3,go,0.0,0.0,0.0,1038.0,6.0,1038.0,519.0,865.0,173.0,692.0,346.0,yellow,triangle
0.0,7.0,3.0,1.0,7.0,5.0,1435.4360130000714,1.0,1.0,part_3,go,0.0,0.0,0.0,960.0,5.0,1152.0,384.0,576.0,768.0,960.0,192.0,yellow,triangle
0.0,4.0,4.0,0.0,7.0,3.0,2311.339396999756,1.0,1.0,part_3,go,0.0,0.0,0.0,924.0,6.0,462.0,308.0,924.0,154.0,616.0,770.0,magenta,flipped triangle
0.0,8.0,4.0,1.0,7.0,3.0,1410.174440999981,1.0,1.0,part_3,go,0.0,0.0,0.0,960.0,5.0,1152.0,768.0,960.0,192.0,384.0,576.0,blue,cross
0.0,8.0,4.0,1.0,7.0,6.0,1032.5983230004567,1.0,1.0,part_3,go,0.0,0.0,0.0,540.0,4.0,675.0,270.0,810.0,135.0,405.0,540.0,blue,cross
0.0,2.0,2.0,0.0,7.0,3.0,2348.6635790004584,1.0,1.0,part_3,go,0.0,0.0,0.0,116.0,1.0,696.0,464.0,116.0,580.0,348.0,232.0,white,circle
0.0,3.0,3.0,0.0,7.0,6.0,3052.3914080004033,1.0,1.0,part_3,go,0.0,0.0,0.0,576.0,3.0,1152.0,384.0,960.0,768.0,192.0,576.0,orange,square
0.0,5.0,1.0,1.0,7.0,2.0,1653.6491819997536,1.0,1.0,part_3,go,0.0,0.0,0.0,540.0,4.0,270.0,540.0,405.0,135.0,675.0,810.0,green,I
0.0,1.0,1.0,0.0,7.0,1.0,2291.363485000147,1.0,1.0,part_3,go,0.0,0.0,0.0,616.0,4.0,616.0,924.0,308.0,154.0,770.0,462.0,gray,diamond
0.0,8.0,4.0,1.0,7.0,4.0,1303.0697000003784,2.0,1.0,part_3,go,0.0,0.0,0.0,616.0,4.0,154.0,770.0,924.0,616.0,462.0,308.0,blue,cross
0.0,4.0,4.0,0.0,7.0,2.0,937.1798000001944,2.0,1.0,part_3,go,0.0,0.0,0.0,192.0,1.0,576.0,192.0,960.0,384.0,1152.0,768.0,magenta,flipped triangle
0.0,8.0,4.0,1.0,7.0,2.0,1259.498710999651,2.0,1.0,part_3,go,0.0,0.0,0.0,519.0,3.0,173.0,519.0,346.0,1038.0,692.0,865.0,blue,cross
0.0,8.0,4.0,1.0,7.0,5.0,1519.9632439998825,2.0,1.0,part_3,go,0.0,0.0,0.0,576.0,3.0,960.0,768.0,384.0,192.0,576.0,1152.0,blue,cross
0.0,4.0,4.0,0.0,7.0,4.0,1269.7538109996458,2.0,1.0,part_3,go,0.0,0.0,0.0,696.0,6.0,348.0,464.0,116.0,696.0,232.0,580.0,magenta,flipped triangle
0.0,5.0,1.0,1.0,7.0,4.0,1116.9864359999335,2.0,1.0,part_3,go,0.0,0.0,0.0,770.0,5.0,616.0,462.0,154.0,770.0,924.0,308.0,green,I
0.0,6.0,2.0,1.0,7.0,5.0,1234.6598970007108,2.0,1.0,part_3,go,0.0,0.0,0.0,960.0,5.0,384.0,576.0,768.0,192.0,960.0,1152.0,cyan,hexagon
0.0,7.0,3.0,1.0,7.0,3.0,1946.8913689997864,2.0,1.0,part_3,go,0.0,0.0,0.0,924.0,6.0,154.0,616.0,924.0,770.0,308.0,462.0,yellow,triangle
0.0,1.0,1.0,0.0,7.0,4.0,1268.0621910003538,2.0,1.0,part_3,go,0.0,0.0,0.0,519.0,3.0,865.0,173.0,692.0,519.0,346.0,1038.0,gray,diamond
0.0,1.0,1.0,0.0,7.0,6.0,1123.860650000097,2.0,1.0,part_3,go,0.0,0.0,0.0,384.0,2.0,1152.0,960.0,576.0,192.0,768.0,384.0,gray,diamond
0.0,1.0,1.0,0.0,7.0,6.0,3451.989639999738,2.0,1.0,part_3,go,0.0,0.0,0.0,580.0,5.0,232.0,116.0,348.0,696.0,464.0,580.0,gray,diamond
0.0,2.0,2.0,0.0,7.0,4.0,1177.5574499997674,2.0,1.0,part_3,go,0.0,0.0,0.0,692.0,4.0,865.0,519.0,1038.0,692.0,346.0,173.0,white,circle
0.0,8.0,4.0,1.0,7.0,2.0,976.7204210002092,2.0,1.0,part_3,go,0.0,0.0,0.0,580.0,5.0,116.0,580.0,232.0,464.0,348.0,696.0,blue,cross
0.0,3.0,3.0,0.0,7.0,4.0,929.124985999806,2.0,1.0,part_3,go,0.0,0.0,0.0,865.0,5.0,1038.0,346.0,692.0,865.0,519.0,173.0,orange,square
0.0,3.0,3.0,0.0,7.0,5.0,1704.8780559998704,2.0,1.0,part_3,go,0.0,0.0,0.0,540.0,4.0,810.0,270.0,405.0,675.0,540.0,135.0,orange,square
0.0,8.0,4.0,1.0,7.0,6.0,1113.7897610005894,2.0,1.0,part_3,go,0.0,0.0,0.0,519.0,3.0,1038.0,173.0,692.0,346.0,865.0,519.0,blue,cross
0.0,6.0,2.0,1.0,7.0,3.0,1212.6305770007093,2.0,1.0,part_3,go,0.0,0.0,0.0,616.0,4.0,154.0,462.0,616.0,308.0,924.0,770.0,cyan,hexagon
0.0,6.0,2.0,1.0,7.0,2.0,1062.9262849997758,2.0,1.0,part_3,go,0.0,0.0,0.0,1038.0,6.0,346.0,1038.0,692.0,519.0,865.0,173.0,cyan,hexagon
0.0,5.0,1.0,1.0,7.0,5.0,898.0455969995091,2.0,1.0,part_3,go,0.0,0.0,0.0,462.0,3.0,616.0,770.0,154.0,308.0,462.0,924.0,green,I
0.0,1.0,1.0,0.0,7.0,2.0,901.2694149996604,2.0,1.0,part_3,go,0.0,0.0,0.0,616.0,4.0,924.0,616.0,462.0,154.0,308.0,770.0,gray,diamond
0.0,2.0,2.0,0.0,7.0,5.0,1392.76492099998,3.0,1.0,part_3,go,0.0,0.0,0.0,576.0,3.0,384.0,192.0,1152.0,960.0,576.0,768.0,white,circle
0.0,5.0,1.0,1.0,7.0,3.0,1408.9366529997278,3.0,1.0,part_3,go,0.0,0.0,0.0,768.0,4.0,576.0,192.0,768.0,960.0,1152.0,384.0,green,I
0.0,5.0,1.0,1.0,7.0,2.0,1139.892479000082,3.0,1.0,part_3,go,0.0,0.0,0.0,692.0,4.0,865.0,692.0,346.0,519.0,173.0,1038.0,green,I
0.0,7.0,3.0,1.0,7.0,1.0,1893.9075979997144,3.0,1.0,part_3,go,0.0,0.0,0.0,692.0,4.0,692.0,346.0,1038.0,865.0,519.0,173.0,yellow,triangle
0.0,4.0,4.0,0.0,7.0,4.0,1228.0579449998186,3.0,1.0,part_3,go,0.0,0.0,0.0,770.0,5.0,154.0,462.0,616.0,770.0,924.0,308.0,magenta,flipped triangle
0.0,3.0,3.0,0.0,7.0,6.0,1355.4821079997057,3.0,1.0,part_3,go,0.0,0.0,0.0,580.0,5.0,696.0,464.0,348.0,116.0,232.0,580.0,orange,square
0.0,4.0,4.0,0.0,7.0,1.0,1310.6798690005237,3.0,1.0,part_3,go,0.0,0.0,0.0,540.0,4.0,540.0,675.0,405.0,810.0,270.0,135.0,magenta,flipped triangle
0.0,2.0,2.0,0.0,7.0,3.0,1926.374322999436,3.0,1.0,part_3,go,0.0,0.0,0.0,692.0,4.0,1038.0,346.0,692.0,519.0,865.0,173.0,white,circle
0.0,2.0,2.0,0.0,7.0,6.0,1448.6234879996118,3.0,1.0,part_3,go,0.0,0.0,0.0,540.0,4.0,270.0,675.0,135.0,810.0,405.0,540.0,white,circle
0.0,2.0,2.0,0.0,7.0,4.0,1922.5181230003727,3.0,1.0,part_3,go,0.0,0.0,0.0,464.0,4.0,696.0,116.0,348.0,464.0,232.0,580.0,white,circle
0.0,7.0,3.0,1.0,7.0,4.0,1284.5643199998449,3.0,1.0,part_3,go,0.0,0.0,0.0,580.0,5.0,116.0,464.0,696.0,580.0,232.0,348.0,yellow,triangle
0.0,7.0,3.0,1.0,7.0,1.0,2118.5245670003496,3.0,1.0,part_3,go,0.0,0.0,0.0,116.0,1.0,116.0,464.0,696.0,348.0,232.0,580.0,yellow,triangle
0.0,2.0,2.0,0.0,7.0,5.0,1446.853614000247,3.0,1.0,part_3,go,0.0,0.0,0.0,616.0,4.0,462.0,770.0,308.0,924.0,616.0,154.0,white,circle
0.0,7.0,3.0,1.0,7.0,5.0,1478.8769119995775,3.0,1.0,part_3,go,0.0,0.0,0.0,675.0,5.0,540.0,270.0,405.0,135.0,675.0,810.0,yellow,triangle
0.0,3.0,3.0,0.0,7.0,5.0,1057.330247000209,3.0,1.0,part_3,go,0.0,0.0,0.0,770.0,5.0,462.0,924.0,616.0,308.0,770.0,154.0,orange,square
0.0,5.0,1.0,1.0,7.0,2.0,1287.003575000199,3.0,1.0,part_3,go,0.0,0.0,0.0,768.0,4.0,576.0,768.0,384.0,1152.0,192.0,960.0,green,I
0.0,7.0,3.0,1.0,7.0,4.0,1197.1443739994356,3.0,1.0,part_3,go,0.0,0.0,0.0,768.0,4.0,960.0,576.0,384.0,768.0,1152.0,192.0,yellow,triangle
0.0,7.0,3.0,1.0,7.0,4.0,965.7340670000848,3.0,1.0,part_3,go,0.0,0.0,0.0,810.0,6.0,135.0,405.0,675.0,810.0,270.0,540.0,yellow,triangle
0.0,4.0,4.0,0.0,7.0,3.0,2969.7495119999076,3.0,1.0,part_3,go,0.0,0.0,0.0,540.0,4.0,405.0,675.0,540.0,810.0,270.0,135.0,magenta,flipped triangle
0.0,7.0,3.0,1.0,7.0,4.0,1122.5497760005965,3.0,1.0,part_3,go,0.0,0.0,0.0,616.0,4.0,462.0,308.0,924.0,616.0,154.0,770.0,yellow,triangle
0.0,1.0,1.0,0.0,7.0,3.0,1882.6981910006,4.0,1.0,part_3,go,0.0,0.0,0.0,540.0,4.0,810.0,135.0,540.0,675.0,405.0,270.0,gray,diamond
0.0,2.0,2.0,0.0,7.0,4.0,894.4160609999017,4.0,1.0,part_3,go,0.0,0.0,0.0,576.0,3.0,192.0,960.0,384.0,576.0,768.0,1152.0,white,circle
0.0,3.0,3.0,0.0,7.0,5.0,716.8825049993757,4.0,1.0,part_3,go,0.0,0.0,0.0,1038.0,6.0,173.0,346.0,519.0,692.0,1038.0,865.0,orange,square
0.0,5.0,1.0,1.0,7.0,1.0,2207.3496210005032,4.0,1.0,part_3,go,0.0,0.0,0.0,580.0,5.0,580.0,464.0,696.0,232.0,116.0,348.0,green,I
0.0,1.0,1.0,0.0,7.0,3.0,1465.2992920000545,4.0,1.0,part_3,go,0.0,0.0,0.0,692.0,4.0,519.0,1038.0,692.0,346.0,173.0,865.0,gray,diamond
0.0,3.0,3.0,0.0,7.0,4.0,2418.203127000197,4.0,1.0,part_3,go,0.0,0.0,0.0,405.0,3.0,135.0,810.0,540.0,405.0,675.0,270.0,orange,square
0.0,3.0,3.0,0.0,7.0,5.0,2039.2631770000662,4.0,1.0,part_3,go,0.0,0.0,0.0,576.0,3.0,768.0,1152.0,192.0,384.0,576.0,960.0,orange,square
0.0,3.0,3.0,0.0,7.0,2.0,2364.3931320002594,4.0,1.0,part_3,go,0.0,0.0,0.0,696.0,6.0,116.0,696.0,464.0,580.0,232.0,348.0,orange,square
0.0,4.0,4.0,0.0,7.0,6.0,2033.9625959995828,4.0,1.0,part_3,go,0.0,0.0,0.0,519.0,3.0,865.0,692.0,346.0,173.0,1038.0,519.0,magenta,flipped triangle
0.0,5.0,1.0,1.0,7.0,2.0,1391.879209999388,4.0,1.0,part_3,go,0.0,0.0,0.0,1038.0,6.0,173.0,1038.0,692.0,865.0,519.0,346.0,green,I
0.0,6.0,2.0,1.0,7.0,3.0,1495.0093209999975,4.0,1.0,part_3,go,0.0,0.0,0.0,540.0,4.0,270.0,675.0,540.0,810.0,405.0,135.0,cyan,hexagon
0.0,4.0,4.0,0.0,7.0,6.0,1057.491841999763,4.0,1.0,part_3,go,0.0,0.0,0.0,576.0,3.0,1152.0,192.0,768.0,384.0,960.0,576.0,magenta,flipped triangle
0.0,6.0,2.0,1.0,7.0,4.0,1648.3877330001633,4.0,1.0,part_3,go,0.0,0.0,0.0,696.0,6.0,464.0,580.0,232.0,696.0,116.0,348.0,cyan,hexagon
0.0,2.0,2.0,0.0,7.0,5.0,1304.7021230004248,4.0,1.0,part_3,go,0.0,0.0,0.0,616.0,4.0,924.0,462.0,154.0,770.0,616.0,308.0,white,circle
0.0,4.0,4.0,0.0,7.0,1.0,2172.717812999508,4.0,1.0,part_3,go,0.0,0.0,0.0,580.0,5.0,580.0,116.0,348.0,696.0,464.0,232.0,magenta,flipped triangle
0.0,3.0,3.0,0.0,7.0,6.0,1736.198024999794,4.0,1.0,part_3,go,0.0,0.0,0.0,770.0,5.0,154.0,924.0,462.0,308.0,616.0,770.0,orange,square
0.0,8.0,4.0,1.0,7.0,6.0,1494.7974010001417,4.0,1.0,part_3,go,0.0,0.0,0.0,675.0,5.0,405.0,540.0,135.0,270.0,810.0,675.0,blue,cross
0.0,8.0,4.0,1.0,7.0,5.0,1122.040973999901,4.0,1.0,part_3,go,0.0,0.0,0.0,464.0,4.0,696.0,348.0,232.0,116.0,464.0,580.0,blue,cross
0.0,2.0,2.0,0.0,7.0,2.0,1744.8138360005032,4.0,1.0,part_3,go,0.0,0.0,0.0,540.0,4.0,270.0,540.0,405.0,810.0,135.0,675.0,white,circle
0.0,5.0,1.0,1.0,7.0,4.0,1245.841984000435,4.0,1.0,part_3,go,0.0,0.0,0.0,580.0,5.0,232.0,116.0,348.0,580.0,696.0,464.0,green,I
