raw_reward_magnitude,stim_reward,stepwise_reward_magnitude,paired_with_stopping,stim_location,response,reaction_time,block,num_trial_presentations,which_phase,stop_signal_trial_type,left_SSD,right_SSD,accuracy,chosen_bidding_amount,chosen_bidding_level,possible_bid_1,possible_bid_2,possible_bid_3,possible_bid_4,possible_bid_5,possible_bid_6,color_text,shape_text
0.0,8.0,0.0,1.0,1.0,1.0,558.1589869998425,1.0,1.0,phase_1,,,,,,,,,,,,,green,I
661.0,3.0,2.0,0.0,4.0,4.0,500.556281000172,1.0,1.0,phase_1,,,,,,,,,,,,,white,square
0.0,5.0,0.0,1.0,1.0,1.0,573.5417040004904,1.0,1.0,phase_1,,,,,,,,,,,,,magenta,circle
178.0,5.0,0.5,1.0,2.0,2.0,481.8806189996394,1.0,1.0,phase_1,,,,,,,,,,,,,magenta,circle
311.0,6.0,1.0,1.0,4.0,4.0,396.6274610002074,1.0,2.0,phase_1,,,,,,,,,,,,,yellow,triangle
337.0,6.0,1.0,1.0,4.0,4.0,443.868609000674,1.0,1.0,phase_1,,,,,,,,,,,,,yellow,triangle
306.0,6.0,1.0,1.0,3.0,3.0,498.5492129999329,1.0,1.0,phase_1,,,,,,,,,,,,,yellow,triangle
345.0,6.0,1.0,1.0,1.0,1.0,713.194969000142,1.0,1.0,phase_1,,,,,,,,,,,,,yellow,triangle
334.0,2.0,1.0,0.0,4.0,4.0,508.0341100001533,1.0,1.0,phase_1,,,,,,,,,,,,,blue,hexagon
310.0,6.0,1.0,1.0,1.0,1.0,740.7449599995743,1.0,1.0,phase_1,,,,,,,,,,,,,yellow,triangle
347.0,2.0,1.0,0.0,2.0,2.0,525.6836209991889,1.0,1.0,phase_1,,,,,,,,,,,,,blue,hexagon
668.0,3.0,2.0,0.0,4.0,4.0,388.4612850006306,1.0,1.0,phase_1,,,,,,,,,,,,,white,square
306.0,2.0,1.0,0.0,1.0,1.0,554.6694939994268,1.0,1.0,phase_1,,,,,,,,,,,,,blue,hexagon
1276.0,8.0,4.0,1.0,3.0,3.0,823.1948270004068,1.0,1.0,phase_1,,,,,,,,,,,,,green,I
300.0,6.0,1.0,1.0,2.0,2.0,656.8662720001157,1.0,1.0,phase_1,,,,,,,,,,,,,yellow,triangle
0.0,2.0,0.0,0.0,3.0,3.0,564.3319920000067,1.0,1.0,phase_1,,,,,,,,,,,,,blue,hexagon
645.0,3.0,2.0,0.0,4.0,4.0,508.62246100041375,1.0,1.0,phase_1,,,,,,,,,,,,,white,square
0.0,1.0,0.0,0.0,2.0,2.0,610.5792440002915,1.0,2.0,phase_1,,,,,,,,,,,,,gray,flipped triangle
146.0,5.0,0.5,1.0,1.0,1.0,573.6000550004974,1.0,1.0,phase_1,,,,,,,,,,,,,magenta,circle
1301.0,4.0,4.0,0.0,1.0,1.0,554.7600640002202,1.0,1.0,phase_1,,,,,,,,,,,,,cyan,diamond
1277.0,4.0,4.0,0.0,3.0,3.0,574.7305539998706,1.0,1.0,phase_1,,,,,,,,,,,,,cyan,diamond
1319.0,4.0,4.0,0.0,4.0,4.0,573.396073999902,1.0,1.0,phase_1,,,,,,,,,,,,,cyan,diamond
1309.0,8.0,4.0,1.0,1.0,1.0,562.0515049995447,1.0,1.0,phase_1,,,,,,,,,,,,,green,I
667.0,3.0,2.0,0.0,4.0,4.0,396.5081719998125,1.0,1.0,phase_1,,,,,,,,,,,,,white,square
643.0,7.0,2.0,1.0,2.0,2.0,434.8039429996788,1.0,1.0,phase_1,,,,,,,,,,,,,orange,cross
1294.0,4.0,4.0,0.0,4.0,4.0,452.8216340004292,1.0,1.0,phase_1,,,,,,,,,,,,,cyan,diamond
309.0,6.0,1.0,1.0,2.0,2.0,407.1189420001246,1.0,1.0,phase_1,,,,,,,,,,,,,yellow,triangle
642.0,3.0,2.0,0.0,2.0,2.0,563.326806999612,1.0,1.0,phase_1,,,,,,,,,,,,,white,square
0.0,5.0,0.0,1.0,2.0,2.0,433.0057739998665,1.0,1.0,phase_1,,,,,,,,,,,,,magenta,circle
0.0,7.0,0.0,1.0,4.0,4.0,443.4267279993946,1.0,1.0,phase_1,,,,,,,,,,,,,orange,cross
0.0,2.0,0.0,0.0,2.0,2.0,480.1694430007046,1.0,1.0,phase_1,,,,,,,,,,,,,blue,hexagon
1301.0,8.0,4.0,1.0,4.0,4.0,554.6436519998679,1.0,1.0,phase_1,,,,,,,,,,,,,green,I
155.0,5.0,0.5,1.0,1.0,1.0,518.3475730000282,1.0,1.0,phase_1,,,,,,,,,,,,,magenta,circle
0.0,3.0,0.0,0.0,1.0,1.0,491.204621000179,1.0,1.0,phase_1,,,,,,,,,,,,,white,square
0.0,6.0,0.0,1.0,3.0,3.0,518.1565410002804,1.0,1.0,phase_1,,,,,,,,,,,,,yellow,triangle
327.0,2.0,1.0,0.0,3.0,3.0,380.2402040000743,1.0,1.0,phase_1,,,,,,,,,,,,,blue,hexagon
0.0,1.0,0.0,0.0,3.0,3.0,351.4042739998331,1.0,1.0,phase_1,,,,,,,,,,,,,gray,flipped triangle
651.0,7.0,2.0,1.0,4.0,4.0,433.0502039993007,1.0,2.0,phase_1,,,,,,,,,,,,,orange,cross
163.0,1.0,0.5,0.0,2.0,2.0,479.6492579998812,1.0,1.0,phase_1,,,,,,,,,,,,,gray,flipped triangle
320.0,2.0,1.0,0.0,2.0,2.0,481.307033000121,1.0,1.0,phase_1,,,,,,,,,,,,,blue,hexagon
673.0,3.0,2.0,0.0,2.0,2.0,397.6030420008101,1.0,1.0,phase_1,,,,,,,,,,,,,white,square
1321.0,8.0,4.0,1.0,2.0,2.0,406.5662510001857,1.0,1.0,phase_1,,,,,,,,,,,,,green,I
1316.0,4.0,4.0,0.0,3.0,3.0,370.4624480005805,1.0,1.0,phase_1,,,,,,,,,,,,,cyan,diamond
1288.0,8.0,4.0,1.0,2.0,2.0,434.5428960004938,1.0,1.0,phase_1,,,,,,,,,,,,,green,I
144.0,1.0,0.5,0.0,1.0,1.0,665.3787430004741,1.0,1.0,phase_1,,,,,,,,,,,,,gray,flipped triangle
658.0,3.0,2.0,0.0,4.0,4.0,535.9886400001415,1.0,1.0,phase_1,,,,,,,,,,,,,white,square
1288.0,4.0,4.0,0.0,3.0,3.0,462.2998229997392,1.0,1.0,phase_1,,,,,,,,,,,,,cyan,diamond
0.0,6.0,0.0,1.0,4.0,4.0,564.213392000056,1.0,1.0,phase_1,,,,,,,,,,,,,yellow,triangle
159.0,1.0,0.5,0.0,3.0,3.0,462.3618129999158,1.0,1.0,phase_1,,,,,,,,,,,,,gray,flipped triangle
1313.0,4.0,4.0,0.0,3.0,3.0,425.1512719993116,1.0,1.0,phase_1,,,,,,,,,,,,,cyan,diamond
660.0,7.0,2.0,1.0,2.0,2.0,516.8922060001933,1.0,1.0,phase_1,,,,,,,,,,,,,orange,cross
186.0,1.0,0.5,0.0,2.0,2.0,646.2625679996563,1.0,1.0,phase_1,,,,,,,,,,,,,gray,flipped triangle
173.0,1.0,0.5,0.0,3.0,3.0,576.7950219997147,1.0,1.0,phase_1,,,,,,,,,,,,,gray,flipped triangle
1309.0,4.0,4.0,0.0,1.0,1.0,666.8445699997392,1.0,1.0,phase_1,,,,,,,,,,,,,cyan,diamond
141.0,1.0,0.5,0.0,2.0,2.0,555.1540859996749,1.0,1.0,phase_1,,,,,,,,,,,,,gray,flipped triangle
181.0,5.0,0.5,1.0,4.0,4.0,472.6015449996339,1.0,1.0,phase_1,,,,,,,,,,,,,magenta,circle
0.0,4.0,0.0,0.0,1.0,1.0,545.4594369994084,1.0,1.0,phase_1,,,,,,,,,,,,,cyan,diamond
307.0,6.0,1.0,1.0,1.0,1.0,545.6151199996384,1.0,1.0,phase_1,,,,,,,,,,,,,yellow,triangle
0.0,5.0,0.0,1.0,3.0,3.0,740.9687270001086,1.0,1.0,phase_1,,,,,,,,,,,,,magenta,circle
148.0,5.0,0.5,1.0,3.0,3.0,323.9970249996986,1.0,1.0,phase_1,,,,,,,,,,,,,magenta,circle
0.0,5.0,0.0,1.0,3.0,3.0,360.5254880003485,1.0,1.0,phase_1,,,,,,,,,,,,,magenta,circle
167.0,5.0,0.5,1.0,1.0,1.0,592.7415430005567,1.0,1.0,phase_1,,,,,,,,,,,,,magenta,circle
1319.0,8.0,4.0,1.0,3.0,3.0,479.4375330002367,1.0,1.0,phase_1,,,,,,,,,,,,,green,I
1306.0,4.0,4.0,0.0,1.0,1.0,592.4792149999121,1.0,1.0,phase_1,,,,,,,,,,,,,cyan,diamond
1313.0,8.0,4.0,1.0,3.0,3.0,494.2474319996108,1.0,1.0,phase_1,,,,,,,,,,,,,green,I
1276.0,8.0,4.0,1.0,2.0,2.0,511.5755189999618,1.0,1.0,phase_1,,,,,,,,,,,,,green,I
0.0,4.0,0.0,0.0,1.0,1.0,590.9950329996718,1.0,1.0,phase_1,,,,,,,,,,,,,cyan,diamond
1313.0,4.0,4.0,0.0,3.0,3.0,557.1158699995067,1.0,1.0,phase_1,,,,,,,,,,,,,cyan,diamond
668.0,7.0,2.0,1.0,4.0,4.0,417.8465489994778,1.0,1.0,phase_1,,,,,,,,,,,,,orange,cross
655.0,3.0,2.0,0.0,1.0,1.0,379.6793860001344,1.0,1.0,phase_1,,,,,,,,,,,,,white,square
0.0,1.0,0.0,0.0,3.0,3.0,416.8987559996822,1.0,1.0,phase_1,,,,,,,,,,,,,gray,flipped triangle
184.0,1.0,0.5,0.0,4.0,4.0,610.5644870003744,1.0,1.0,phase_1,,,,,,,,,,,,,gray,flipped triangle
139.0,1.0,0.5,0.0,1.0,1.0,537.021986999207,1.0,1.0,phase_1,,,,,,,,,,,,,gray,flipped triangle
655.0,3.0,2.0,0.0,3.0,3.0,371.0207240001182,1.0,1.0,phase_1,,,,,,,,,,,,,white,square
316.0,2.0,1.0,0.0,2.0,2.0,666.153893000228,1.0,1.0,phase_1,,,,,,,,,,,,,blue,hexagon
637.0,3.0,2.0,0.0,1.0,1.0,601.3839529996403,1.0,1.0,phase_1,,,,,,,,,,,,,white,square
186.0,1.0,0.5,0.0,2.0,2.0,564.640622999832,1.0,1.0,phase_1,,,,,,,,,,,,,gray,flipped triangle
639.0,3.0,2.0,0.0,3.0,3.0,360.8686400002625,1.0,1.0,phase_1,,,,,,,,,,,,,white,square
334.0,6.0,1.0,1.0,1.0,1.0,517.7924570007235,1.0,2.0,phase_1,,,,,,,,,,,,,yellow,triangle
1317.0,8.0,4.0,1.0,4.0,4.0,517.7127410006506,1.0,1.0,phase_1,,,,,,,,,,,,,green,I
1317.0,4.0,4.0,0.0,1.0,1.0,584.1503589999775,1.0,1.0,phase_1,,,,,,,,,,,,,cyan,diamond
333.0,6.0,1.0,1.0,3.0,3.0,500.89842499983206,1.0,1.0,phase_1,,,,,,,,,,,,,yellow,triangle
658.0,7.0,2.0,1.0,3.0,3.0,509.10687999930815,1.0,1.0,phase_1,,,,,,,,,,,,,orange,cross
641.0,3.0,2.0,0.0,4.0,4.0,537.0441810000557,1.0,1.0,phase_1,,,,,,,,,,,,,white,square
1299.0,8.0,4.0,1.0,1.0,1.0,555.6186060002801,1.0,1.0,phase_1,,,,,,,,,,,,,green,I
344.0,6.0,1.0,1.0,4.0,4.0,546.4835880002283,1.0,1.0,phase_1,,,,,,,,,,,,,yellow,triangle
170.0,5.0,0.5,1.0,2.0,2.0,534.2238359999101,1.0,1.0,phase_1,,,,,,,,,,,,,magenta,circle
324.0,2.0,1.0,0.0,3.0,3.0,425.2349979997234,1.0,1.0,phase_1,,,,,,,,,,,,,blue,hexagon
1307.0,8.0,4.0,1.0,4.0,4.0,418.8187230001858,1.0,1.0,phase_1,,,,,,,,,,,,,green,I
160.0,1.0,0.5,0.0,1.0,1.0,418.4530160000577,1.0,1.0,phase_1,,,,,,,,,,,,,gray,flipped triangle
645.0,3.0,2.0,0.0,2.0,2.0,491.2529839994022,1.0,1.0,phase_1,,,,,,,,,,,,,white,square
1301.0,4.0,4.0,0.0,4.0,4.0,425.5790010001874,1.0,1.0,phase_1,,,,,,,,,,,,,cyan,diamond
316.0,6.0,1.0,1.0,4.0,4.0,452.4183370003811,1.0,1.0,phase_1,,,,,,,,,,,,,yellow,triangle
342.0,2.0,1.0,0.0,3.0,3.0,546.3831769993703,1.0,1.0,phase_1,,,,,,,,,,,,,blue,hexagon
139.0,5.0,0.5,1.0,3.0,3.0,573.5676350004724,1.0,1.0,phase_1,,,,,,,,,,,,,magenta,circle
155.0,1.0,0.5,0.0,4.0,4.0,591.2229799996567,1.0,1.0,phase_1,,,,,,,,,,,,,gray,flipped triangle
0.0,7.0,0.0,1.0,3.0,3.0,425.9244149998267,1.0,1.0,phase_1,,,,,,,,,,,,,orange,cross
349.0,6.0,1.0,1.0,1.0,1.0,535.378483000386,1.0,1.0,phase_1,,,,,,,,,,,,,yellow,triangle
1295.0,8.0,4.0,1.0,4.0,4.0,417.2365550002723,1.0,1.0,phase_1,,,,,,,,,,,,,green,I
347.0,6.0,1.0,1.0,4.0,4.0,479.821107999669,1.0,1.0,phase_1,,,,,,,,,,,,,yellow,triangle
640.0,7.0,2.0,1.0,3.0,3.0,610.8427529998153,2.0,1.0,phase_1,,,,,,,,,,,,,orange,cross
312.0,6.0,1.0,1.0,4.0,4.0,482.5021139995442,2.0,1.0,phase_1,,,,,,,,,,,,,yellow,triangle
662.0,7.0,2.0,1.0,3.0,3.0,435.9869509999043,2.0,1.0,phase_1,,,,,,,,,,,,,orange,cross
0.0,4.0,0.0,0.0,4.0,4.0,417.4208809999982,2.0,1.0,phase_1,,,,,,,,,,,,,cyan,diamond
162.0,5.0,0.5,1.0,2.0,2.0,566.0917949999202,2.0,1.0,phase_1,,,,,,,,,,,,,magenta,circle
342.0,6.0,1.0,1.0,2.0,2.0,554.9049350001951,2.0,1.0,phase_1,,,,,,,,,,,,,yellow,triangle
0.0,4.0,0.0,0.0,2.0,2.0,481.4834999997401,2.0,1.0,phase_1,,,,,,,,,,,,,cyan,diamond
301.0,2.0,1.0,0.0,1.0,1.0,851.4496110001346,2.0,1.0,phase_1,,,,,,,,,,,,,blue,hexagon
0.0,1.0,0.0,0.0,4.0,4.0,509.19881100071507,2.0,1.0,phase_1,,,,,,,,,,,,,gray,flipped triangle
635.0,3.0,2.0,0.0,2.0,2.0,592.0398890002616,2.0,1.0,phase_1,,,,,,,,,,,,,white,square
661.0,7.0,2.0,1.0,3.0,3.0,454.7651689999838,2.0,1.0,phase_1,,,,,,,,,,,,,orange,cross
655.0,7.0,2.0,1.0,1.0,1.0,464.5838179994825,2.0,1.0,phase_1,,,,,,,,,,,,,orange,cross
0.0,5.0,0.0,1.0,4.0,4.0,324.3093330002011,2.0,1.0,phase_1,,,,,,,,,,,,,magenta,circle
170.0,1.0,0.5,0.0,4.0,4.0,416.4826579999499,2.0,1.0,phase_1,,,,,,,,,,,,,gray,flipped triangle
149.0,5.0,0.5,1.0,3.0,3.0,566.0565770003814,2.0,1.0,phase_1,,,,,,,,,,,,,magenta,circle
153.0,5.0,0.5,1.0,3.0,3.0,443.5553989997061,2.0,1.0,phase_1,,,,,,,,,,,,,magenta,circle
338.0,6.0,1.0,1.0,2.0,2.0,473.3505149997654,2.0,1.0,phase_1,,,,,,,,,,,,,yellow,triangle
646.0,7.0,2.0,1.0,1.0,1.0,465.6774949999089,2.0,1.0,phase_1,,,,,,,,,,,,,orange,cross
0.0,1.0,0.0,0.0,1.0,1.0,490.5169840003509,2.0,1.0,phase_1,,,,,,,,,,,,,gray,flipped triangle
1295.0,4.0,4.0,0.0,2.0,2.0,526.9510789994456,2.0,1.0,phase_1,,,,,,,,,,,,,cyan,diamond
182.0,1.0,0.5,0.0,1.0,1.0,500.6535200000144,2.0,1.0,phase_1,,,,,,,,,,,,,gray,flipped triangle
0.0,1.0,0.0,0.0,3.0,3.0,352.3085710003215,2.0,1.0,phase_1,,,,,,,,,,,,,gray,flipped triangle
0.0,8.0,0.0,1.0,3.0,3.0,556.2244220000139,2.0,1.0,phase_1,,,,,,,,,,,,,green,I
159.0,5.0,0.5,1.0,1.0,1.0,510.8358470006351,2.0,1.0,phase_1,,,,,,,,,,,,,magenta,circle
1285.0,8.0,4.0,1.0,1.0,1.0,453.9714719994663,2.0,1.0,phase_1,,,,,,,,,,,,,green,I
338.0,2.0,1.0,0.0,3.0,3.0,742.04477999956,2.0,1.0,phase_1,,,,,,,,,,,,,blue,hexagon
142.0,1.0,0.5,0.0,1.0,1.0,784.5912080001654,2.0,1.0,phase_1,,,,,,,,,,,,,gray,flipped triangle
155.0,5.0,0.5,1.0,2.0,2.0,592.3889340001551,2.0,1.0,phase_1,,,,,,,,,,,,,magenta,circle
630.0,7.0,2.0,1.0,2.0,2.0,556.1022470001262,2.0,1.0,phase_1,,,,,,,,,,,,,orange,cross
0.0,3.0,0.0,0.0,1.0,1.0,612.6158129991381,2.0,1.0,phase_1,,,,,,,,,,,,,white,square
327.0,2.0,1.0,0.0,4.0,4.0,527.9698439999265,2.0,1.0,phase_1,,,,,,,,,,,,,blue,hexagon
634.0,7.0,2.0,1.0,1.0,1.0,493.0048819996955,2.0,1.0,phase_1,,,,,,,,,,,,,orange,cross
145.0,1.0,0.5,0.0,4.0,4.0,491.6512580002745,2.0,1.0,phase_1,,,,,,,,,,,,,gray,flipped triangle
327.0,6.0,1.0,1.0,4.0,4.0,594.4361589999971,2.0,1.0,phase_1,,,,,,,,,,,,,yellow,triangle
674.0,3.0,2.0,0.0,3.0,3.0,659.121889000744,2.0,1.0,phase_1,,,,,,,,,,,,,white,square
0.0,7.0,0.0,1.0,1.0,1.0,530.250924000029,2.0,1.0,phase_1,,,,,,,,,,,,,orange,cross
1295.0,8.0,4.0,1.0,1.0,1.0,582.8656260000571,2.0,1.0,phase_1,,,,,,,,,,,,,green,I
1303.0,4.0,4.0,0.0,3.0,3.0,463.2441350004228,2.0,2.0,phase_1,,,,,,,,,,,,,cyan,diamond
1309.0,8.0,4.0,1.0,1.0,1.0,491.5091249995384,2.0,1.0,phase_1,,,,,,,,,,,,,green,I
1314.0,8.0,4.0,1.0,4.0,4.0,491.0495519998221,2.0,1.0,phase_1,,,,,,,,,,,,,green,I
324.0,2.0,1.0,0.0,4.0,4.0,492.1223190003729,2.0,1.0,phase_1,,,,,,,,,,,,,blue,hexagon
1280.0,8.0,4.0,1.0,4.0,4.0,398.2879060004052,2.0,1.0,phase_1,,,,,,,,,,,,,green,I
349.0,6.0,1.0,1.0,1.0,1.0,501.1026709998987,2.0,1.0,phase_1,,,,,,,,,,,,,yellow,triangle
154.0,1.0,0.5,0.0,2.0,2.0,415.6158720006715,2.0,1.0,phase_1,,,,,,,,,,,,,gray,flipped triangle
142.0,5.0,0.5,1.0,3.0,3.0,519.2038880004475,2.0,1.0,phase_1,,,,,,,,,,,,,magenta,circle
0.0,2.0,0.0,0.0,1.0,1.0,509.4446610000887,2.0,1.0,phase_1,,,,,,,,,,,,,blue,hexagon
649.0,7.0,2.0,1.0,4.0,4.0,277.6201930000752,2.0,1.0,phase_1,,,,,,,,,,,,,orange,cross
0.0,6.0,0.0,1.0,2.0,2.0,454.9895520003701,2.0,1.0,phase_1,,,,,,,,,,,,,yellow,triangle
169.0,5.0,0.5,1.0,4.0,4.0,603.8083310004367,2.0,1.0,phase_1,,,,,,,,,,,,,magenta,circle
162.0,1.0,0.5,0.0,4.0,4.0,563.5968460001095,2.0,1.0,phase_1,,,,,,,,,,,,,gray,flipped triangle
144.0,5.0,0.5,1.0,4.0,4.0,389.4149379993905,2.0,1.0,phase_1,,,,,,,,,,,,,magenta,circle
1294.0,8.0,4.0,1.0,3.0,3.0,489.7274059994743,2.0,1.0,phase_1,,,,,,,,,,,,,green,I
157.0,1.0,0.5,0.0,3.0,3.0,409.8228460006794,2.0,1.0,phase_1,,,,,,,,,,,,,gray,flipped triangle
0.0,3.0,0.0,0.0,2.0,2.0,546.844014999806,2.0,1.0,phase_1,,,,,,,,,,,,,white,square
1307.0,4.0,4.0,0.0,4.0,4.0,429.2705540001407,2.0,1.0,phase_1,,,,,,,,,,,,,cyan,diamond
674.0,7.0,2.0,1.0,4.0,4.0,601.6944350003541,2.0,1.0,phase_1,,,,,,,,,,,,,orange,cross
154.0,5.0,0.5,1.0,3.0,3.0,500.1468520003982,2.0,1.0,phase_1,,,,,,,,,,,,,magenta,circle
0.0,4.0,0.0,0.0,2.0,2.0,527.0741189997352,2.0,1.0,phase_1,,,,,,,,,,,,,cyan,diamond
0.0,7.0,0.0,1.0,1.0,1.0,611.6125319995263,2.0,1.0,phase_1,,,,,,,,,,,,,orange,cross
657.0,7.0,2.0,1.0,2.0,2.0,629.2659009995987,2.0,1.0,phase_1,,,,,,,,,,,,,orange,cross
0.0,6.0,0.0,1.0,1.0,1.0,657.020265999563,2.0,1.0,phase_1,,,,,,,,,,,,,yellow,triangle
1313.0,8.0,4.0,1.0,2.0,2.0,546.827316999952,2.0,1.0,phase_1,,,,,,,,,,,,,green,I
1317.0,8.0,4.0,1.0,4.0,4.0,601.3939569993454,2.0,1.0,phase_1,,,,,,,,,,,,,green,I
0.0,5.0,0.0,1.0,3.0,3.0,536.3462479999725,2.0,1.0,phase_1,,,,,,,,,,,,,magenta,circle
1301.0,4.0,4.0,0.0,4.0,4.0,592.3258100001476,2.0,1.0,phase_1,,,,,,,,,,,,,cyan,diamond
327.0,6.0,1.0,1.0,1.0,1.0,536.019662000399,2.0,1.0,phase_1,,,,,,,,,,,,,yellow,triangle
649.0,3.0,2.0,0.0,2.0,2.0,563.6786609993578,2.0,1.0,phase_1,,,,,,,,,,,,,white,square
338.0,6.0,1.0,1.0,4.0,4.0,591.3023460007025,2.0,1.0,phase_1,,,,,,,,,,,,,yellow,triangle
639.0,7.0,2.0,1.0,2.0,2.0,627.3865260000093,2.0,1.0,phase_1,,,,,,,,,,,,,orange,cross
333.0,2.0,1.0,0.0,3.0,3.0,674.2454389996055,2.0,1.0,phase_1,,,,,,,,,,,,,blue,hexagon
323.0,6.0,1.0,1.0,2.0,2.0,553.744906999782,2.0,1.0,phase_1,,,,,,,,,,,,,yellow,triangle
634.0,3.0,2.0,0.0,2.0,2.0,498.6687280006663,2.0,1.0,phase_1,,,,,,,,,,,,,white,square
154.0,5.0,0.5,1.0,1.0,1.0,554.2839059999096,2.0,1.0,phase_1,,,,,,,,,,,,,magenta,circle
1301.0,4.0,4.0,0.0,1.0,1.0,479.9082019999332,2.0,1.0,phase_1,,,,,,,,,,,,,cyan,diamond
334.0,6.0,1.0,1.0,4.0,4.0,637.9306409999117,2.0,1.0,phase_1,,,,,,,,,,,,,yellow,triangle
0.0,1.0,0.0,0.0,1.0,1.0,711.2197870001182,2.0,1.0,phase_1,,,,,,,,,,,,,gray,flipped triangle
300.0,2.0,1.0,0.0,2.0,2.0,443.7117469997247,2.0,1.0,phase_1,,,,,,,,,,,,,blue,hexagon
0.0,8.0,0.0,1.0,1.0,1.0,488.1289149998338,2.0,1.0,phase_1,,,,,,,,,,,,,green,I
1278.0,4.0,4.0,0.0,4.0,4.0,508.8831670000218,2.0,1.0,phase_1,,,,,,,,,,,,,cyan,diamond
1295.0,8.0,4.0,1.0,3.0,3.0,341.4748029999828,2.0,2.0,phase_1,,,,,,,,,,,,,green,I
1303.0,8.0,4.0,1.0,1.0,1.0,508.96967300013785,2.0,1.0,phase_1,,,,,,,,,,,,,green,I
167.0,1.0,0.5,0.0,1.0,1.0,406.9375810004203,2.0,1.0,phase_1,,,,,,,,,,,,,gray,flipped triangle
1289.0,8.0,4.0,1.0,2.0,2.0,443.9433920006195,2.0,2.0,phase_1,,,,,,,,,,,,,green,I
312.0,2.0,1.0,0.0,2.0,2.0,485.5135699999664,2.0,1.0,phase_1,,,,,,,,,,,,,blue,hexagon
646.0,3.0,2.0,0.0,1.0,1.0,515.0451110002905,2.0,1.0,phase_1,,,,,,,,,,,,,white,square
310.0,2.0,1.0,0.0,3.0,3.0,737.480926999524,2.0,1.0,phase_1,,,,,,,,,,,,,blue,hexagon
0.0,7.0,0.0,1.0,3.0,3.0,474.0576300000612,2.0,1.0,phase_1,,,,,,,,,,,,,orange,cross
316.0,2.0,1.0,0.0,2.0,2.0,543.1036820000372,2.0,1.0,phase_1,,,,,,,,,,,,,blue,hexagon
307.0,2.0,1.0,0.0,2.0,2.0,484.2547709995415,2.0,1.0,phase_1,,,,,,,,,,,,,blue,hexagon
1280.0,4.0,4.0,0.0,2.0,2.0,381.262500000048,2.0,1.0,phase_1,,,,,,,,,,,,,cyan,diamond
1306.0,4.0,4.0,0.0,3.0,3.0,494.9354209993544,2.0,1.0,phase_1,,,,,,,,,,,,,cyan,diamond
331.0,6.0,1.0,1.0,1.0,1.0,665.0817999998253,2.0,1.0,phase_1,,,,,,,,,,,,,yellow,triangle
1276.0,4.0,4.0,0.0,3.0,3.0,394.9489059996267,2.0,1.0,phase_1,,,,,,,,,,,,,cyan,diamond
342.0,6.0,1.0,1.0,3.0,3.0,410.8813720004036,2.0,1.0,phase_1,,,,,,,,,,,,,yellow,triangle
176.0,5.0,0.5,1.0,2.0,2.0,580.0536960005047,2.0,1.0,phase_1,,,,,,,,,,,,,magenta,circle
1314.0,4.0,4.0,0.0,3.0,3.0,396.9475320000128,2.0,1.0,phase_1,,,,,,,,,,,,,cyan,diamond
1323.0,4.0,4.0,0.0,1.0,1.0,614.8136560004787,2.0,1.0,phase_1,,,,,,,,,,,,,cyan,diamond
179.0,5.0,0.5,1.0,2.0,2.0,547.4467350004488,2.0,1.0,phase_1,,,,,,,,,,,,,magenta,circle
673.0,7.0,2.0,1.0,3.0,3.0,416.6734880000149,2.0,1.0,phase_1,,,,,,,,,,,,,orange,cross
641.0,7.0,2.0,1.0,1.0,1.0,540.7095239997943,2.0,1.0,phase_1,,,,,,,,,,,,,orange,cross
344.0,2.0,1.0,0.0,3.0,3.0,444.4742380001116,3.0,1.0,phase_1,,,,,,,,,,,,,blue,hexagon
634.0,3.0,2.0,0.0,1.0,1.0,593.5957629999393,3.0,1.0,phase_1,,,,,,,,,,,,,white,square
667.0,7.0,2.0,1.0,2.0,2.0,416.7376890000014,3.0,1.0,phase_1,,,,,,,,,,,,,orange,cross
1323.0,8.0,4.0,1.0,1.0,1.0,492.1451650006929,3.0,1.0,phase_1,,,,,,,,,,,,,green,I
673.0,7.0,2.0,1.0,4.0,4.0,445.5226909994962,3.0,1.0,phase_1,,,,,,,,,,,,,orange,cross
154.0,1.0,0.5,0.0,4.0,4.0,528.8576670000111,3.0,1.0,phase_1,,,,,,,,,,,,,gray,flipped triangle
1309.0,4.0,4.0,0.0,2.0,2.0,417.3961730002702,3.0,1.0,phase_1,,,,,,,,,,,,,cyan,diamond
324.0,6.0,1.0,1.0,2.0,2.0,361.8699990001914,3.0,1.0,phase_1,,,,,,,,,,,,,yellow,triangle
143.0,1.0,0.5,0.0,3.0,3.0,620.3148099993996,3.0,1.0,phase_1,,,,,,,,,,,,,gray,flipped triangle
1288.0,4.0,4.0,0.0,2.0,2.0,490.9661410001718,3.0,1.0,phase_1,,,,,,,,,,,,,cyan,diamond
144.0,1.0,0.5,0.0,1.0,1.0,565.5419619997701,3.0,1.0,phase_1,,,,,,,,,,,,,gray,flipped triangle
172.0,1.0,0.5,0.0,3.0,3.0,388.616741000078,3.0,1.0,phase_1,,,,,,,,,,,,,gray,flipped triangle
647.0,7.0,2.0,1.0,3.0,3.0,398.727386000246,3.0,1.0,phase_1,,,,,,,,,,,,,orange,cross
0.0,3.0,0.0,0.0,3.0,3.0,416.1999729994932,3.0,1.0,phase_1,,,,,,,,,,,,,white,square
637.0,7.0,2.0,1.0,1.0,1.0,612.7240069999971,3.0,1.0,phase_1,,,,,,,,,,,,,orange,cross
0.0,7.0,0.0,1.0,2.0,2.0,564.7016359998815,3.0,1.0,phase_1,,,,,,,,,,,,,orange,cross
0.0,2.0,0.0,0.0,1.0,1.0,398.0427989999953,3.0,1.0,phase_1,,,,,,,,,,,,,blue,hexagon
627.0,3.0,2.0,0.0,3.0,3.0,435.3000239998437,3.0,1.0,phase_1,,,,,,,,,,,,,white,square
0.0,3.0,0.0,0.0,4.0,4.0,417.2234659999958,3.0,1.0,phase_1,,,,,,,,,,,,,white,square
302.0,6.0,1.0,1.0,2.0,2.0,462.8823969997029,3.0,1.0,phase_1,,,,,,,,,,,,,yellow,triangle
1298.0,8.0,4.0,1.0,3.0,3.0,471.6027240001494,3.0,1.0,phase_1,,,,,,,,,,,,,green,I
176.0,1.0,0.5,0.0,1.0,1.0,482.49622000003,3.0,1.0,phase_1,,,,,,,,,,,,,gray,flipped triangle
149.0,1.0,0.5,0.0,3.0,3.0,518.7803830003759,3.0,1.0,phase_1,,,,,,,,,,,,,gray,flipped triangle
172.0,5.0,0.5,1.0,1.0,1.0,445.3600959996038,3.0,1.0,phase_1,,,,,,,,,,,,,magenta,circle
673.0,3.0,2.0,0.0,4.0,4.0,426.412509000329,3.0,1.0,phase_1,,,,,,,,,,,,,white,square
323.0,6.0,1.0,1.0,1.0,1.0,325.5116219997944,3.0,1.0,phase_1,,,,,,,,,,,,,yellow,triangle
632.0,7.0,2.0,1.0,4.0,4.0,362.8100850000919,3.0,1.0,phase_1,,,,,,,,,,,,,orange,cross
0.0,4.0,0.0,0.0,3.0,3.0,454.3175839999094,3.0,1.0,phase_1,,,,,,,,,,,,,cyan,diamond
0.0,3.0,0.0,0.0,2.0,2.0,341.9155319998026,3.0,1.0,phase_1,,,,,,,,,,,,,white,square
630.0,3.0,2.0,0.0,4.0,4.0,489.7398379998776,3.0,1.0,phase_1,,,,,,,,,,,,,white,square
1278.0,4.0,4.0,0.0,2.0,2.0,443.8284030002251,3.0,1.0,phase_1,,,,,,,,,,,,,cyan,diamond
0.0,2.0,0.0,0.0,1.0,1.0,379.1359520000696,3.0,1.0,phase_1,,,,,,,,,,,,,blue,hexagon
0.0,5.0,0.0,1.0,1.0,1.0,369.8051349992965,3.0,1.0,phase_1,,,,,,,,,,,,,magenta,circle
1313.0,8.0,4.0,1.0,1.0,1.0,509.4787379994159,3.0,1.0,phase_1,,,,,,,,,,,,,green,I
0.0,1.0,0.0,0.0,1.0,1.0,463.459012000385,3.0,1.0,phase_1,,,,,,,,,,,,,gray,flipped triangle
318.0,2.0,1.0,0.0,3.0,3.0,362.3747720002939,3.0,1.0,phase_1,,,,,,,,,,,,,blue,hexagon
141.0,5.0,0.5,1.0,4.0,4.0,408.5852790003628,3.0,1.0,phase_1,,,,,,,,,,,,,magenta,circle
349.0,2.0,1.0,0.0,4.0,4.0,462.752571999772,3.0,1.0,phase_1,,,,,,,,,,,,,blue,hexagon
647.0,3.0,2.0,0.0,3.0,3.0,314.2346720005662,3.0,1.0,phase_1,,,,,,,,,,,,,white,square
348.0,2.0,1.0,0.0,3.0,3.0,341.6896030003045,3.0,1.0,phase_1,,,,,,,,,,,,,blue,hexagon
318.0,6.0,1.0,1.0,3.0,3.0,371.677749999435,3.0,1.0,phase_1,,,,,,,,,,,,,yellow,triangle
0.0,4.0,0.0,0.0,1.0,1.0,471.6538889997537,3.0,1.0,phase_1,,,,,,,,,,,,,cyan,diamond
0.0,5.0,0.0,1.0,3.0,3.0,426.509980999981,3.0,1.0,phase_1,,,,,,,,,,,,,magenta,circle
1298.0,4.0,4.0,0.0,4.0,4.0,426.4617620001445,3.0,1.0,phase_1,,,,,,,,,,,,,cyan,diamond
337.0,2.0,1.0,0.0,4.0,4.0,463.2279549996383,3.0,1.0,phase_1,,,,,,,,,,,,,blue,hexagon
173.0,5.0,0.5,1.0,1.0,1.0,369.6664620001684,3.0,1.0,phase_1,,,,,,,,,,,,,magenta,circle
323.0,2.0,1.0,0.0,1.0,1.0,481.497651000609,3.0,1.0,phase_1,,,,,,,,,,,,,blue,hexagon
0.0,6.0,0.0,1.0,2.0,2.0,547.5807749999149,3.0,1.0,phase_1,,,,,,,,,,,,,yellow,triangle
0.0,7.0,0.0,1.0,2.0,2.0,674.695783000061,3.0,1.0,phase_1,,,,,,,,,,,,,orange,cross
324.0,6.0,1.0,1.0,3.0,3.0,453.5335359996679,3.0,1.0,phase_1,,,,,,,,,,,,,yellow,triangle
137.0,5.0,0.5,1.0,4.0,4.0,387.5356320004357,3.0,1.0,phase_1,,,,,,,,,,,,,magenta,circle
334.0,2.0,1.0,0.0,4.0,4.0,462.766714999816,3.0,1.0,phase_1,,,,,,,,,,,,,blue,hexagon
302.0,2.0,1.0,0.0,2.0,2.0,705.4690069999197,3.0,1.0,phase_1,,,,,,,,,,,,,blue,hexagon
181.0,1.0,0.5,0.0,3.0,3.0,520.6650370000716,3.0,1.0,phase_1,,,,,,,,,,,,,gray,flipped triangle
1301.0,8.0,4.0,1.0,4.0,4.0,388.7118279999413,3.0,1.0,phase_1,,,,,,,,,,,,,green,I
0.0,4.0,0.0,0.0,1.0,1.0,388.1105400005253,3.0,1.0,phase_1,,,,,,,,,,,,,cyan,diamond
1288.0,8.0,4.0,1.0,1.0,1.0,490.7346139998481,3.0,1.0,phase_1,,,,,,,,,,,,,green,I
627.0,7.0,2.0,1.0,2.0,2.0,398.2653160001064,3.0,1.0,phase_1,,,,,,,,,,,,,orange,cross
1306.0,8.0,4.0,1.0,1.0,1.0,481.700097000612,3.0,1.0,phase_1,,,,,,,,,,,,,green,I
1295.0,4.0,4.0,0.0,3.0,3.0,510.44404999993276,3.0,1.0,phase_1,,,,,,,,,,,,,cyan,diamond
1316.0,8.0,4.0,1.0,2.0,2.0,397.1473880001213,3.0,1.0,phase_1,,,,,,,,,,,,,green,I
655.0,7.0,2.0,1.0,3.0,3.0,398.3647239992933,3.0,1.0,phase_1,,,,,,,,,,,,,orange,cross
0.0,8.0,0.0,1.0,2.0,2.0,445.6132250006703,3.0,1.0,phase_1,,,,,,,,,,,,,green,I
301.0,2.0,1.0,0.0,1.0,1.0,467.3610410000037,3.0,1.0,phase_1,,,,,,,,,,,,,blue,hexagon
667.0,3.0,2.0,0.0,2.0,2.0,378.0515149992425,3.0,1.0,phase_1,,,,,,,,,,,,,white,square
0.0,7.0,0.0,1.0,4.0,4.0,527.2783469999922,3.0,1.0,phase_1,,,,,,,,,,,,,orange,cross
310.0,2.0,1.0,0.0,1.0,1.0,379.5945780002512,3.0,1.0,phase_1,,,,,,,,,,,,,blue,hexagon
318.0,2.0,1.0,0.0,2.0,2.0,342.0598530001371,3.0,1.0,phase_1,,,,,,,,,,,,,blue,hexagon
324.0,6.0,1.0,1.0,3.0,3.0,454.5255639995957,3.0,1.0,phase_1,,,,,,,,,,,,,yellow,triangle
666.0,3.0,2.0,0.0,3.0,3.0,377.8712920002363,3.0,1.0,phase_1,,,,,,,,,,,,,white,square
153.0,1.0,0.5,0.0,3.0,3.0,498.661976999756,3.0,1.0,phase_1,,,,,,,,,,,,,gray,flipped triangle
316.0,6.0,1.0,1.0,2.0,2.0,517.670131000159,3.0,1.0,phase_1,,,,,,,,,,,,,yellow,triangle
662.0,3.0,2.0,0.0,1.0,1.0,526.3122550004482,3.0,1.0,phase_1,,,,,,,,,,,,,white,square
1295.0,4.0,4.0,0.0,2.0,2.0,590.0906549995852,3.0,1.0,phase_1,,,,,,,,,,,,,cyan,diamond
143.0,5.0,0.5,1.0,3.0,3.0,371.4472689998729,3.0,1.0,phase_1,,,,,,,,,,,,,magenta,circle
152.0,5.0,0.5,1.0,1.0,1.0,350.4003859998192,3.0,1.0,phase_1,,,,,,,,,,,,,magenta,circle
0.0,8.0,0.0,1.0,2.0,2.0,425.0284729996565,3.0,1.0,phase_1,,,,,,,,,,,,,green,I
338.0,2.0,1.0,0.0,1.0,1.0,471.2087019997852,3.0,1.0,phase_1,,,,,,,,,,,,,blue,hexagon
634.0,7.0,2.0,1.0,4.0,4.0,417.0639700005267,3.0,2.0,phase_1,,,,,,,,,,,,,orange,cross
1276.0,4.0,4.0,0.0,4.0,4.0,417.072219000147,3.0,1.0,phase_1,,,,,,,,,,,,,cyan,diamond
1299.0,4.0,4.0,0.0,2.0,2.0,407.0005510002374,3.0,1.0,phase_1,,,,,,,,,,,,,cyan,diamond
324.0,2.0,1.0,0.0,4.0,4.0,538.9445430000706,3.0,1.0,phase_1,,,,,,,,,,,,,blue,hexagon
1277.0,8.0,4.0,1.0,4.0,4.0,361.4532359997611,3.0,1.0,phase_1,,,,,,,,,,,,,green,I
667.0,3.0,2.0,0.0,1.0,1.0,363.2586550002088,3.0,1.0,phase_1,,,,,,,,,,,,,white,square
160.0,5.0,0.5,1.0,4.0,4.0,342.7856030002658,3.0,1.0,phase_1,,,,,,,,,,,,,magenta,circle
0.0,2.0,0.0,0.0,1.0,1.0,378.7767789999634,3.0,1.0,phase_1,,,,,,,,,,,,,blue,hexagon
162.0,5.0,0.5,1.0,4.0,4.0,323.158355000487,3.0,1.0,phase_1,,,,,,,,,,,,,magenta,circle
1282.0,8.0,4.0,1.0,2.0,2.0,341.3533240000106,3.0,1.0,phase_1,,,,,,,,,,,,,green,I
170.0,5.0,0.5,1.0,4.0,4.0,387.5715510002919,3.0,1.0,phase_1,,,,,,,,,,,,,magenta,circle
185.0,5.0,0.5,1.0,2.0,2.0,380.3321200002756,3.0,1.0,phase_1,,,,,,,,,,,,,magenta,circle
660.0,3.0,2.0,0.0,4.0,4.0,338.7438379995728,3.0,1.0,phase_1,,,,,,,,,,,,,white,square
627.0,7.0,2.0,1.0,3.0,3.0,563.81391099967,3.0,1.0,phase_1,,,,,,,,,,,,,orange,cross
643.0,3.0,2.0,0.0,3.0,3.0,400.1911309997012,3.0,1.0,phase_1,,,,,,,,,,,,,white,square
637.0,7.0,2.0,1.0,2.0,2.0,731.6535499994643,3.0,1.0,phase_1,,,,,,,,,,,,,orange,cross
645.0,7.0,2.0,1.0,3.0,3.0,520.8338919992457,3.0,1.0,phase_1,,,,,,,,,,,,,orange,cross
310.0,6.0,1.0,1.0,3.0,3.0,453.7585819998639,3.0,1.0,phase_1,,,,,,,,,,,,,yellow,triangle
177.0,5.0,0.5,1.0,2.0,2.0,416.6796120007348,3.0,1.0,phase_1,,,,,,,,,,,,,magenta,circle
0.0,5.0,0.0,1.0,1.0,1.0,397.8575209994233,3.0,1.0,phase_1,,,,,,,,,,,,,magenta,circle
155.0,1.0,0.5,0.0,3.0,3.0,416.7904690002615,3.0,1.0,phase_1,,,,,,,,,,,,,gray,flipped triangle
146.0,1.0,0.5,0.0,2.0,2.0,647.6842649999526,3.0,1.0,phase_1,,,,,,,,,,,,,gray,flipped triangle
1313.0,4.0,4.0,0.0,2.0,2.0,429.572879999796,4.0,1.0,phase_1,,,,,,,,,,,,,cyan,diamond
662.0,7.0,2.0,1.0,4.0,4.0,369.2257769998832,4.0,1.0,phase_1,,,,,,,,,,,,,orange,cross
666.0,7.0,2.0,1.0,2.0,2.0,352.5629559999288,4.0,1.0,phase_1,,,,,,,,,,,,,orange,cross
0.0,2.0,0.0,0.0,2.0,2.0,369.9025280002388,4.0,1.0,phase_1,,,,,,,,,,,,,blue,hexagon
0.0,3.0,0.0,0.0,4.0,4.0,351.4675640008136,4.0,1.0,phase_1,,,,,,,,,,,,,white,square
1289.0,4.0,4.0,0.0,1.0,1.0,379.2647039999792,4.0,1.0,phase_1,,,,,,,,,,,,,cyan,diamond
0.0,1.0,0.0,0.0,2.0,2.0,343.0821599995397,4.0,1.0,phase_1,,,,,,,,,,,,,gray,flipped triangle
311.0,2.0,1.0,0.0,1.0,1.0,390.389729999697,4.0,1.0,phase_1,,,,,,,,,,,,,blue,hexagon
0.0,7.0,0.0,1.0,4.0,4.0,416.90635499981,4.0,1.0,phase_1,,,,,,,,,,,,,orange,cross
301.0,6.0,1.0,1.0,2.0,2.0,415.9634210000149,4.0,1.0,phase_1,,,,,,,,,,,,,yellow,triangle
163.0,5.0,0.5,1.0,3.0,3.0,417.274472999452,4.0,1.0,phase_1,,,,,,,,,,,,,magenta,circle
349.0,2.0,1.0,0.0,1.0,1.0,563.6240960002397,4.0,1.0,phase_1,,,,,,,,,,,,,blue,hexagon
148.0,1.0,0.5,0.0,4.0,4.0,416.5538630004448,4.0,1.0,phase_1,,,,,,,,,,,,,gray,flipped triangle
1321.0,4.0,4.0,0.0,1.0,1.0,527.5578740001947,4.0,1.0,phase_1,,,,,,,,,,,,,cyan,diamond
0.0,8.0,0.0,1.0,2.0,2.0,407.7431120003894,4.0,1.0,phase_1,,,,,,,,,,,,,green,I
1282.0,4.0,4.0,0.0,2.0,2.0,397.367908999513,4.0,1.0,phase_1,,,,,,,,,,,,,cyan,diamond
185.0,1.0,0.5,0.0,1.0,1.0,481.2101269999402,4.0,1.0,phase_1,,,,,,,,,,,,,gray,flipped triangle
169.0,1.0,0.5,0.0,2.0,2.0,388.6786749999373,4.0,1.0,phase_1,,,,,,,,,,,,,gray,flipped triangle
627.0,3.0,2.0,0.0,1.0,1.0,453.7764779997815,4.0,1.0,phase_1,,,,,,,,,,,,,white,square
640.0,3.0,2.0,0.0,2.0,2.0,379.8212689998763,4.0,1.0,phase_1,,,,,,,,,,,,,white,square
145.0,5.0,0.5,1.0,4.0,4.0,501.2631199997486,4.0,2.0,phase_1,,,,,,,,,,,,,magenta,circle
178.0,1.0,0.5,0.0,2.0,2.0,343.3775469993634,4.0,1.0,phase_1,,,,,,,,,,,,,gray,flipped triangle
630.0,7.0,2.0,1.0,3.0,3.0,471.3060570002199,4.0,1.0,phase_1,,,,,,,,,,,,,orange,cross
635.0,7.0,2.0,1.0,1.0,1.0,397.2370380006396,4.0,1.0,phase_1,,,,,,,,,,,,,orange,cross
334.0,6.0,1.0,1.0,1.0,1.0,387.8836260000753,4.0,1.0,phase_1,,,,,,,,,,,,,yellow,triangle
0.0,2.0,0.0,0.0,1.0,1.0,656.2915180002165,4.0,1.0,phase_1,,,,,,,,,,,,,blue,hexagon
1317.0,4.0,4.0,0.0,4.0,4.0,565.1796780002769,4.0,1.0,phase_1,,,,,,,,,,,,,cyan,diamond
0.0,7.0,0.0,1.0,2.0,2.0,388.3834649996061,4.0,1.0,phase_1,,,,,,,,,,,,,orange,cross
639.0,7.0,2.0,1.0,1.0,1.0,389.1840280002725,4.0,1.0,phase_1,,,,,,,,,,,,,orange,cross
170.0,1.0,0.5,0.0,2.0,2.0,554.3769610003437,4.0,1.0,phase_1,,,,,,,,,,,,,gray,flipped triangle
0.0,8.0,0.0,1.0,3.0,3.0,470.0394329993287,4.0,1.0,phase_1,,,,,,,,,,,,,green,I
1301.0,8.0,4.0,1.0,2.0,2.0,463.2894219994341,4.0,1.0,phase_1,,,,,,,,,,,,,green,I
320.0,6.0,1.0,1.0,3.0,3.0,573.6266309995699,4.0,1.0,phase_1,,,,,,,,,,,,,yellow,triangle
632.0,3.0,2.0,0.0,4.0,4.0,481.1192840006697,4.0,1.0,phase_1,,,,,,,,,,,,,white,square
348.0,6.0,1.0,1.0,2.0,2.0,481.8427260006501,4.0,1.0,phase_1,,,,,,,,,,,,,yellow,triangle
0.0,5.0,0.0,1.0,3.0,3.0,627.9247640004542,4.0,1.0,phase_1,,,,,,,,,,,,,magenta,circle
662.0,3.0,2.0,0.0,1.0,1.0,518.631154999639,4.0,1.0,phase_1,,,,,,,,,,,,,white,square
320.0,6.0,1.0,1.0,3.0,3.0,416.4289000000281,4.0,1.0,phase_1,,,,,,,,,,,,,yellow,triangle
1301.0,8.0,4.0,1.0,2.0,2.0,435.4516929997771,4.0,1.0,phase_1,,,,,,,,,,,,,green,I
645.0,7.0,2.0,1.0,1.0,1.0,536.4503070004503,4.0,1.0,phase_1,,,,,,,,,,,,,orange,cross
655.0,3.0,2.0,0.0,3.0,3.0,388.9081920005992,4.0,1.0,phase_1,,,,,,,,,,,,,white,square
642.0,7.0,2.0,1.0,1.0,1.0,583.2120400000349,4.0,1.0,phase_1,,,,,,,,,,,,,orange,cross
184.0,5.0,0.5,1.0,3.0,3.0,361.168913000256,4.0,1.0,phase_1,,,,,,,,,,,,,magenta,circle
170.0,5.0,0.5,1.0,3.0,3.0,435.2027590002763,4.0,1.0,phase_1,,,,,,,,,,,,,magenta,circle
334.0,2.0,1.0,0.0,2.0,2.0,480.647090000275,4.0,1.0,phase_1,,,,,,,,,,,,,blue,hexagon
177.0,1.0,0.5,0.0,2.0,2.0,390.1914070002021,4.0,1.0,phase_1,,,,,,,,,,,,,gray,flipped triangle
0.0,2.0,0.0,0.0,3.0,3.0,390.1052980008899,4.0,1.0,phase_1,,,,,,,,,,,,,blue,hexagon
0.0,3.0,0.0,0.0,2.0,2.0,352.1225699996648,4.0,1.0,phase_1,,,,,,,,,,,,,white,square
144.0,5.0,0.5,1.0,1.0,1.0,500.65168699984497,4.0,1.0,phase_1,,,,,,,,,,,,,magenta,circle
162.0,1.0,0.5,0.0,3.0,3.0,388.1188260002091,4.0,1.0,phase_1,,,,,,,,,,,,,gray,flipped triangle
0.0,6.0,0.0,1.0,4.0,4.0,445.611039999676,4.0,2.0,phase_1,,,,,,,,,,,,,yellow,triangle
630.0,3.0,2.0,0.0,2.0,2.0,379.9624899993432,4.0,1.0,phase_1,,,,,,,,,,,,,white,square
0.0,6.0,0.0,1.0,3.0,3.0,388.4672049998698,4.0,1.0,phase_1,,,,,,,,,,,,,yellow,triangle
0.0,8.0,0.0,1.0,1.0,1.0,399.4074800002636,4.0,1.0,phase_1,,,,,,,,,,,,,green,I
186.0,5.0,0.5,1.0,1.0,1.0,538.258630999735,4.0,1.0,phase_1,,,,,,,,,,,,,magenta,circle
0.0,8.0,0.0,1.0,3.0,3.0,370.5886059997283,4.0,1.0,phase_1,,,,,,,,,,,,,green,I
137.0,1.0,0.5,0.0,4.0,4.0,426.8135869997422,4.0,1.0,phase_1,,,,,,,,,,,,,gray,flipped triangle
320.0,2.0,1.0,0.0,1.0,1.0,427.6959900007568,4.0,1.0,phase_1,,,,,,,,,,,,,blue,hexagon
318.0,6.0,1.0,1.0,3.0,3.0,343.722075000187,4.0,1.0,phase_1,,,,,,,,,,,,,yellow,triangle
1285.0,4.0,4.0,0.0,4.0,4.0,446.0148420002952,4.0,1.0,phase_1,,,,,,,,,,,,,cyan,diamond
667.0,7.0,2.0,1.0,2.0,2.0,621.274977000212,4.0,1.0,phase_1,,,,,,,,,,,,,orange,cross
660.0,7.0,2.0,1.0,4.0,4.0,407.6967760001935,4.0,1.0,phase_1,,,,,,,,,,,,,orange,cross
651.0,3.0,2.0,0.0,3.0,3.0,417.8345570007877,4.0,1.0,phase_1,,,,,,,,,,,,,white,square
309.0,2.0,1.0,0.0,3.0,3.0,361.33238500042347,4.0,1.0,phase_1,,,,,,,,,,,,,blue,hexagon
660.0,3.0,2.0,0.0,3.0,3.0,370.0984870001775,4.0,1.0,phase_1,,,,,,,,,,,,,white,square
0.0,6.0,0.0,1.0,4.0,4.0,352.1823629998835,4.0,1.0,phase_1,,,,,,,,,,,,,yellow,triangle
179.0,1.0,0.5,0.0,4.0,4.0,536.3661289993615,4.0,1.0,phase_1,,,,,,,,,,,,,gray,flipped triangle
0.0,2.0,0.0,0.0,4.0,4.0,418.5470870006611,4.0,2.0,phase_1,,,,,,,,,,,,,blue,hexagon
1316.0,4.0,4.0,0.0,1.0,1.0,566.5273899994645,4.0,1.0,phase_1,,,,,,,,,,,,,cyan,diamond
1291.0,8.0,4.0,1.0,3.0,3.0,462.8911080008038,4.0,1.0,phase_1,,,,,,,,,,,,,green,I
1291.0,4.0,4.0,0.0,2.0,2.0,398.5885549991508,4.0,1.0,phase_1,,,,,,,,,,,,,cyan,diamond
1306.0,8.0,4.0,1.0,3.0,3.0,361.3278860002538,4.0,1.0,phase_1,,,,,,,,,,,,,green,I
152.0,1.0,0.5,0.0,4.0,4.0,370.9372280000025,4.0,1.0,phase_1,,,,,,,,,,,,,gray,flipped triangle
0.0,4.0,0.0,0.0,2.0,2.0,443.639537999843,4.0,1.0,phase_1,,,,,,,,,,,,,cyan,diamond
1295.0,4.0,4.0,0.0,1.0,1.0,482.1686349996525,4.0,1.0,phase_1,,,,,,,,,,,,,cyan,diamond
1278.0,8.0,4.0,1.0,3.0,3.0,314.8133570002756,4.0,1.0,phase_1,,,,,,,,,,,,,green,I
323.0,2.0,1.0,0.0,1.0,1.0,518.290951000381,4.0,1.0,phase_1,,,,,,,,,,,,,blue,hexagon
0.0,4.0,0.0,0.0,1.0,1.0,426.2949210005899,4.0,1.0,phase_1,,,,,,,,,,,,,cyan,diamond
301.0,6.0,1.0,1.0,4.0,4.0,398.0784329996822,4.0,1.0,phase_1,,,,,,,,,,,,,yellow,triangle
331.0,2.0,1.0,0.0,4.0,4.0,500.0261059994955,4.0,1.0,phase_1,,,,,,,,,,,,,blue,hexagon
655.0,7.0,2.0,1.0,4.0,4.0,463.0433669999547,4.0,1.0,phase_1,,,,,,,,,,,,,orange,cross
1316.0,8.0,4.0,1.0,4.0,4.0,472.8637700000035,4.0,1.0,phase_1,,,,,,,,,,,,,green,I
0.0,6.0,0.0,1.0,2.0,2.0,444.2249679996166,4.0,1.0,phase_1,,,,,,,,,,,,,yellow,triangle
345.0,2.0,1.0,0.0,4.0,4.0,519.1142080002464,4.0,1.0,phase_1,,,,,,,,,,,,,blue,hexagon
186.0,5.0,0.5,1.0,4.0,4.0,526.1958020000748,4.0,1.0,phase_1,,,,,,,,,,,,,magenta,circle
1278.0,8.0,4.0,1.0,2.0,2.0,462.7805210002407,4.0,1.0,phase_1,,,,,,,,,,,,,green,I
0.0,3.0,0.0,0.0,3.0,3.0,445.8715149994532,4.0,1.0,phase_1,,,,,,,,,,,,,white,square
0.0,8.0,0.0,1.0,1.0,1.0,399.4098499997562,4.0,1.0,phase_1,,,,,,,,,,,,,green,I
170.0,1.0,0.5,0.0,1.0,1.0,415.9886990000814,4.0,1.0,phase_1,,,,,,,,,,,,,gray,flipped triangle
0.0,3.0,0.0,0.0,2.0,2.0,379.367113000626,4.0,1.0,phase_1,,,,,,,,,,,,,white,square
637.0,3.0,2.0,0.0,2.0,2.0,453.9541869999084,4.0,1.0,phase_1,,,,,,,,,,,,,white,square
1295.0,8.0,4.0,1.0,3.0,3.0,427.042158000404,4.0,1.0,phase_1,,,,,,,,,,,,,green,I
157.0,5.0,0.5,1.0,2.0,2.0,493.7632580003992,4.0,1.0,phase_1,,,,,,,,,,,,,magenta,circle
342.0,2.0,1.0,0.0,4.0,4.0,498.2478239999182,4.0,1.0,phase_1,,,,,,,,,,,,,blue,hexagon
657.0,3.0,2.0,0.0,1.0,1.0,489.177896000001,4.0,1.0,phase_1,,,,,,,,,,,,,white,square
667.0,7.0,2.0,1.0,1.0,1.0,425.8101509994958,4.0,1.0,phase_1,,,,,,,,,,,,,orange,cross
0.0,1.0,0.0,0.0,2.0,2.0,398.0784499999572,4.0,1.0,phase_1,,,,,,,,,,,,,gray,flipped triangle
182.0,5.0,0.5,1.0,2.0,2.0,416.886878000696,4.0,1.0,phase_1,,,,,,,,,,,,,magenta,circle
0.0,6.0,0.0,1.0,2.0,2.0,574.3949919997249,4.0,1.0,phase_1,,,,,,,,,,,,,yellow,triangle
639.0,3.0,2.0,0.0,1.0,1.0,500.00511999951414,4.0,1.0,phase_1,,,,,,,,,,,,,white,square
0.0,6.0,1.0,1.0,5.0,0.0,0.0,1.0,1.0,phase_2,stop,250.0,250.0,4.0,,,,,,,,,yellow,triangle
0.0,8.0,4.0,1.0,5.0,0.0,0.0,1.0,1.0,phase_2,stop,300.0,250.0,4.0,,,,,,,,,green,I
0.0,4.0,4.0,0.0,5.0,5.0,761.7298730001494,1.0,1.0,phase_2,go,350.0,250.0,1.0,,,,,,,,,cyan,diamond
0.0,6.0,1.0,1.0,6.0,0.0,0.0,1.0,1.0,phase_2,stop,350.0,250.0,4.0,,,,,,,,,yellow,triangle
0.0,7.0,2.0,1.0,6.0,0.0,0.0,1.0,1.0,phase_2,stop,350.0,300.0,4.0,,,,,,,,,orange,cross
0.0,3.0,2.0,0.0,6.0,6.0,577.1636889994625,1.0,1.0,phase_2,go,350.0,350.0,1.0,,,,,,,,,white,square
0.0,5.0,0.5,1.0,5.0,0.0,0.0,1.0,1.0,phase_2,stop,350.0,350.0,4.0,,,,,,,,,magenta,circle
0.0,1.0,0.5,0.0,5.0,5.0,902.5623429997722,1.0,1.0,phase_2,go,400.0,350.0,1.0,,,,,,,,,gray,flipped triangle
0.0,7.0,2.0,1.0,6.0,6.0,509.9237690001246,1.0,1.0,phase_2,stop,400.0,350.0,3.0,,,,,,,,,orange,cross
0.0,7.0,2.0,1.0,6.0,0.0,0.0,1.0,1.0,phase_2,stop,400.0,300.0,4.0,,,,,,,,,orange,cross
0.0,4.0,4.0,0.0,6.0,6.0,575.6622629996855,1.0,1.0,phase_2,go,400.0,350.0,1.0,,,,,,,,,cyan,diamond
0.0,1.0,0.5,0.0,6.0,6.0,856.322800000271,1.0,1.0,phase_2,go,400.0,350.0,1.0,,,,,,,,,gray,flipped triangle
0.0,1.0,0.5,0.0,6.0,6.0,1005.1425380006549,1.0,1.0,phase_2,go,400.0,350.0,1.0,,,,,,,,,gray,flipped triangle
0.0,4.0,4.0,0.0,5.0,5.0,894.5558909999818,1.0,1.0,phase_2,go,400.0,350.0,1.0,,,,,,,,,cyan,diamond
0.0,3.0,2.0,0.0,5.0,5.0,624.5318179999231,1.0,1.0,phase_2,go,400.0,350.0,1.0,,,,,,,,,white,square
0.0,2.0,1.0,0.0,6.0,6.0,773.8989059998858,1.0,1.0,phase_2,go,400.0,350.0,1.0,,,,,,,,,blue,hexagon
0.0,6.0,1.0,1.0,6.0,6.0,474.7022670007936,1.0,1.0,phase_2,stop,400.0,350.0,3.0,,,,,,,,,yellow,triangle
0.0,3.0,2.0,0.0,5.0,5.0,790.9644800001843,1.0,1.0,phase_2,go,400.0,300.0,1.0,,,,,,,,,white,square
0.0,5.0,0.5,1.0,5.0,0.0,0.0,1.0,1.0,phase_2,stop,400.0,300.0,4.0,,,,,,,,,magenta,circle
0.0,4.0,4.0,0.0,5.0,5.0,780.3224279996357,1.0,1.0,phase_2,go,450.0,300.0,1.0,,,,,,,,,cyan,diamond
0.0,1.0,0.5,0.0,6.0,6.0,677.8203100002429,1.0,1.0,phase_2,go,450.0,300.0,1.0,,,,,,,,,gray,flipped triangle
0.0,4.0,4.0,0.0,6.0,6.0,835.4849549996288,1.0,1.0,phase_2,go,450.0,300.0,1.0,,,,,,,,,cyan,diamond
0.0,6.0,1.0,1.0,5.0,0.0,0.0,1.0,1.0,phase_2,stop,450.0,300.0,4.0,,,,,,,,,yellow,triangle
0.0,8.0,4.0,1.0,6.0,0.0,0.0,1.0,1.0,phase_2,stop,500.0,300.0,4.0,,,,,,,,,green,I
0.0,2.0,1.0,0.0,5.0,5.0,745.7939679998162,1.0,1.0,phase_2,go,500.0,350.0,1.0,,,,,,,,,blue,hexagon
0.0,7.0,2.0,1.0,5.0,5.0,697.7834850004001,1.0,1.0,phase_2,go,500.0,350.0,1.0,,,,,,,,,orange,cross
0.0,1.0,0.5,0.0,5.0,5.0,693.0682469992462,1.0,1.0,phase_2,go,500.0,350.0,1.0,,,,,,,,,gray,flipped triangle
0.0,1.0,0.5,0.0,6.0,6.0,1006.1335499995041,1.0,1.0,phase_2,go,500.0,350.0,1.0,,,,,,,,,gray,flipped triangle
0.0,3.0,2.0,0.0,6.0,6.0,586.1131089995979,1.0,1.0,phase_2,go,500.0,350.0,1.0,,,,,,,,,white,square
0.0,6.0,1.0,1.0,5.0,5.0,692.714287999479,1.0,1.0,phase_2,stop,500.0,350.0,3.0,,,,,,,,,yellow,triangle
0.0,7.0,2.0,1.0,6.0,0.0,0.0,1.0,1.0,phase_2,stop,450.0,350.0,4.0,,,,,,,,,orange,cross
0.0,3.0,2.0,0.0,5.0,5.0,669.778602000406,1.0,1.0,phase_2,go,450.0,400.0,1.0,,,,,,,,,white,square
0.0,2.0,1.0,0.0,5.0,5.0,614.0404580000904,1.0,1.0,phase_2,go,450.0,400.0,1.0,,,,,,,,,blue,hexagon
0.0,4.0,4.0,0.0,6.0,6.0,616.0950840003352,1.0,1.0,phase_2,go,450.0,400.0,1.0,,,,,,,,,cyan,diamond
0.0,5.0,0.5,1.0,5.0,0.0,0.0,1.0,1.0,phase_2,stop,450.0,400.0,4.0,,,,,,,,,magenta,circle
0.0,5.0,0.5,1.0,6.0,6.0,712.9990500006897,1.0,1.0,phase_2,stop,500.0,400.0,3.0,,,,,,,,,magenta,circle
0.0,8.0,4.0,1.0,5.0,5.0,571.0516030003419,2.0,1.0,phase_2,stop,500.0,350.0,3.0,,,,,,,,,green,I
0.0,1.0,0.5,0.0,5.0,5.0,680.5610109995541,2.0,1.0,phase_2,go,450.0,350.0,1.0,,,,,,,,,gray,flipped triangle
0.0,3.0,2.0,0.0,6.0,6.0,745.1946129995122,2.0,1.0,phase_2,go,450.0,350.0,1.0,,,,,,,,,white,square
0.0,4.0,4.0,0.0,5.0,5.0,922.7546030006124,2.0,1.0,phase_2,go,450.0,350.0,1.0,,,,,,,,,cyan,diamond
0.0,6.0,1.0,1.0,5.0,5.0,633.1465160001244,2.0,1.0,phase_2,go,450.0,350.0,1.0,,,,,,,,,yellow,triangle
0.0,6.0,1.0,1.0,5.0,5.0,829.0117870001268,2.0,1.0,phase_2,go,450.0,350.0,1.0,,,,,,,,,yellow,triangle
0.0,7.0,2.0,1.0,5.0,0.0,0.0,2.0,1.0,phase_2,stop,450.0,350.0,4.0,,,,,,,,,orange,cross
0.0,1.0,0.5,0.0,6.0,6.0,737.2546860005968,2.0,1.0,phase_2,go,500.0,350.0,1.0,,,,,,,,,gray,flipped triangle
0.0,6.0,1.0,1.0,6.0,0.0,0.0,2.0,1.0,phase_2,stop,500.0,350.0,4.0,,,,,,,,,yellow,triangle
0.0,4.0,4.0,0.0,5.0,5.0,762.6324190005107,2.0,1.0,phase_2,go,500.0,400.0,1.0,,,,,,,,,cyan,diamond
0.0,6.0,1.0,1.0,5.0,0.0,0.0,2.0,1.0,phase_2,stop,500.0,400.0,4.0,,,,,,,,,yellow,triangle
0.0,4.0,4.0,0.0,5.0,5.0,747.1258530003979,2.0,1.0,phase_2,go,550.0,400.0,1.0,,,,,,,,,cyan,diamond
0.0,7.0,2.0,1.0,5.0,5.0,688.5577259999991,2.0,1.0,phase_2,stop,550.0,400.0,3.0,,,,,,,,,orange,cross
0.0,5.0,0.5,1.0,5.0,0.0,0.0,2.0,1.0,phase_2,stop,500.0,400.0,4.0,,,,,,,,,magenta,circle
0.0,7.0,2.0,1.0,5.0,0.0,0.0,2.0,1.0,phase_2,stop,550.0,400.0,4.0,,,,,,,,,orange,cross
0.0,1.0,0.5,0.0,5.0,5.0,798.5236790000272,2.0,1.0,phase_2,go,600.0,400.0,1.0,,,,,,,,,gray,flipped triangle
0.0,2.0,1.0,0.0,6.0,6.0,928.9566690003994,2.0,1.0,phase_2,go,600.0,400.0,1.0,,,,,,,,,blue,hexagon
0.0,5.0,0.5,1.0,6.0,0.0,0.0,2.0,1.0,phase_2,stop,600.0,400.0,4.0,,,,,,,,,magenta,circle
0.0,1.0,0.5,0.0,5.0,5.0,734.004742000252,2.0,1.0,phase_2,go,600.0,450.0,1.0,,,,,,,,,gray,flipped triangle
0.0,5.0,0.5,1.0,6.0,6.0,625.6279939998421,2.0,1.0,phase_2,go,600.0,450.0,1.0,,,,,,,,,magenta,circle
0.0,8.0,4.0,1.0,5.0,5.0,728.3949239999856,2.0,1.0,phase_2,stop,600.0,450.0,3.0,,,,,,,,,green,I
0.0,5.0,0.5,1.0,5.0,0.0,0.0,2.0,1.0,phase_2,stop,550.0,450.0,4.0,,,,,,,,,magenta,circle
0.0,1.0,0.5,0.0,6.0,6.0,567.7079520000916,2.0,1.0,phase_2,go,600.0,450.0,1.0,,,,,,,,,gray,flipped triangle
0.0,5.0,0.5,1.0,5.0,0.0,0.0,2.0,1.0,phase_2,stop,600.0,450.0,4.0,,,,,,,,,magenta,circle
0.0,7.0,2.0,1.0,5.0,5.0,716.6577090001738,2.0,1.0,phase_2,go,650.0,450.0,1.0,,,,,,,,,orange,cross
0.0,7.0,2.0,1.0,5.0,0.0,0.0,2.0,1.0,phase_2,stop,650.0,450.0,4.0,,,,,,,,,orange,cross
0.0,3.0,2.0,0.0,6.0,6.0,1087.8591659993615,2.0,1.0,phase_2,go,700.0,450.0,1.0,,,,,,,,,white,square
0.0,2.0,1.0,0.0,6.0,6.0,595.4899030002707,2.0,1.0,phase_2,go,700.0,450.0,1.0,,,,,,,,,blue,hexagon
0.0,3.0,2.0,0.0,5.0,5.0,549.8237370002244,2.0,1.0,phase_2,go,700.0,450.0,1.0,,,,,,,,,white,square
0.0,1.0,0.5,0.0,6.0,6.0,958.3698290007304,2.0,1.0,phase_2,go,700.0,450.0,1.0,,,,,,,,,gray,flipped triangle
0.0,1.0,0.5,0.0,6.0,6.0,475.5465179996463,2.0,1.0,phase_2,go,700.0,450.0,1.0,,,,,,,,,gray,flipped triangle
0.0,1.0,0.5,0.0,5.0,5.0,1021.5377459999218,2.0,1.0,phase_2,go,700.0,450.0,1.0,,,,,,,,,gray,flipped triangle
0.0,5.0,0.5,1.0,6.0,0.0,0.0,2.0,1.0,phase_2,stop,700.0,450.0,4.0,,,,,,,,,magenta,circle
0.0,7.0,2.0,1.0,6.0,0.0,0.0,2.0,1.0,phase_2,stop,700.0,500.0,4.0,,,,,,,,,orange,cross
0.0,2.0,1.0,0.0,5.0,5.0,529.5980929995494,2.0,1.0,phase_2,go,700.0,550.0,1.0,,,,,,,,,blue,hexagon
0.0,3.0,2.0,0.0,6.0,6.0,707.3666750002303,2.0,1.0,phase_2,go,700.0,550.0,1.0,,,,,,,,,white,square
0.0,5.0,0.5,1.0,5.0,5.0,569.4066460000613,3.0,1.0,phase_2,go,700.0,550.0,1.0,,,,,,,,,magenta,circle
0.0,3.0,2.0,0.0,6.0,6.0,372.65626899989,3.0,1.0,phase_2,go,700.0,550.0,1.0,,,,,,,,,white,square
0.0,3.0,2.0,0.0,5.0,5.0,494.0117119995193,3.0,1.0,phase_2,go,700.0,550.0,1.0,,,,,,,,,white,square
0.0,6.0,1.0,1.0,5.0,5.0,541.5631500000018,3.0,1.0,phase_2,stop,700.0,550.0,3.0,,,,,,,,,yellow,triangle
0.0,2.0,1.0,0.0,6.0,6.0,590.0328699999591,3.0,1.0,phase_2,go,650.0,550.0,1.0,,,,,,,,,blue,hexagon
0.0,1.0,0.5,0.0,6.0,6.0,577.6836689992706,3.0,1.0,phase_2,go,650.0,550.0,1.0,,,,,,,,,gray,flipped triangle
0.0,7.0,2.0,1.0,6.0,0.0,0.0,3.0,1.0,phase_2,stop,650.0,550.0,4.0,,,,,,,,,orange,cross
0.0,2.0,1.0,0.0,6.0,6.0,819.4060189998709,3.0,1.0,phase_2,go,650.0,600.0,1.0,,,,,,,,,blue,hexagon
0.0,7.0,2.0,1.0,5.0,5.0,702.9946100001325,3.0,1.0,phase_2,stop,650.0,600.0,3.0,,,,,,,,,orange,cross
0.0,2.0,1.0,0.0,5.0,5.0,612.1678740000789,3.0,1.0,phase_2,go,600.0,600.0,1.0,,,,,,,,,blue,hexagon
0.0,3.0,2.0,0.0,5.0,5.0,482.4851140001556,3.0,1.0,phase_2,go,600.0,600.0,1.0,,,,,,,,,white,square
0.0,5.0,0.5,1.0,5.0,5.0,947.6545790003,3.0,1.0,phase_2,go,600.0,600.0,1.0,,,,,,,,,magenta,circle
0.0,1.0,0.5,0.0,6.0,6.0,910.8658750001268,3.0,1.0,phase_2,go,600.0,600.0,1.0,,,,,,,,,gray,flipped triangle
0.0,3.0,2.0,0.0,5.0,5.0,874.2885389992807,3.0,1.0,phase_2,go,600.0,600.0,1.0,,,,,,,,,white,square
0.0,5.0,0.5,1.0,5.0,5.0,782.573851000052,3.0,1.0,phase_2,stop,600.0,600.0,3.0,,,,,,,,,magenta,circle
0.0,5.0,0.5,1.0,5.0,0.0,0.0,3.0,1.0,phase_2,stop,550.0,600.0,4.0,,,,,,,,,magenta,circle
0.0,2.0,1.0,0.0,6.0,6.0,342.7850789994409,3.0,1.0,phase_2,go,600.0,600.0,1.0,,,,,,,,,blue,hexagon
0.0,5.0,0.5,1.0,5.0,5.0,642.9887819995201,3.0,1.0,phase_2,stop,600.0,600.0,3.0,,,,,,,,,magenta,circle
0.0,6.0,1.0,1.0,6.0,0.0,0.0,3.0,1.0,phase_2,stop,550.0,600.0,4.0,,,,,,,,,yellow,triangle
0.0,1.0,0.5,0.0,6.0,6.0,1005.6361209999525,3.0,1.0,phase_2,go,550.0,650.0,1.0,,,,,,,,,gray,flipped triangle
0.0,4.0,4.0,0.0,6.0,6.0,1124.6013469999523,3.0,1.0,phase_2,go,550.0,650.0,1.0,,,,,,,,,cyan,diamond
0.0,2.0,1.0,0.0,5.0,5.0,676.305933000549,3.0,1.0,phase_2,go,550.0,650.0,1.0,,,,,,,,,blue,hexagon
0.0,7.0,2.0,1.0,6.0,6.0,690.4426090004563,3.0,1.0,phase_2,stop,550.0,650.0,3.0,,,,,,,,,orange,cross
0.0,6.0,1.0,1.0,6.0,6.0,559.3775009992896,3.0,1.0,phase_2,stop,550.0,600.0,3.0,,,,,,,,,yellow,triangle
0.0,8.0,4.0,1.0,6.0,6.0,716.9250920005652,3.0,1.0,phase_2,go,550.0,550.0,1.0,,,,,,,,,green,I
0.0,2.0,1.0,0.0,5.0,5.0,680.5560479997439,3.0,1.0,phase_2,go,550.0,550.0,1.0,,,,,,,,,blue,hexagon
0.0,3.0,2.0,0.0,6.0,6.0,382.3429909998594,3.0,1.0,phase_2,go,550.0,550.0,1.0,,,,,,,,,white,square
0.0,3.0,2.0,0.0,6.0,6.0,456.5198299997064,3.0,1.0,phase_2,go,550.0,550.0,1.0,,,,,,,,,white,square
0.0,4.0,4.0,0.0,5.0,5.0,789.7989200000666,3.0,1.0,phase_2,go,550.0,550.0,1.0,,,,,,,,,cyan,diamond
0.0,5.0,0.5,1.0,6.0,0.0,0.0,3.0,1.0,phase_2,stop,550.0,550.0,4.0,,,,,,,,,magenta,circle
0.0,4.0,4.0,0.0,5.0,5.0,1162.62829399966,3.0,1.0,phase_2,go,550.0,600.0,1.0,,,,,,,,,cyan,diamond
0.0,3.0,2.0,0.0,6.0,6.0,625.3278750000391,3.0,1.0,phase_2,go,550.0,600.0,1.0,,,,,,,,,white,square
0.0,6.0,1.0,1.0,5.0,5.0,511.3711449994298,3.0,1.0,phase_2,stop,550.0,600.0,3.0,,,,,,,,,yellow,triangle
0.0,8.0,4.0,1.0,6.0,6.0,503.0450220001512,3.0,1.0,phase_2,stop,500.0,600.0,3.0,,,,,,,,,green,I
0.0,5.0,0.5,1.0,6.0,6.0,774.4820150001033,3.0,1.0,phase_2,go,500.0,550.0,1.0,,,,,,,,,magenta,circle
0.0,1.0,0.5,0.0,5.0,5.0,613.454415999513,3.0,1.0,phase_2,go,500.0,550.0,1.0,,,,,,,,,gray,flipped triangle
0.0,8.0,4.0,1.0,6.0,6.0,464.9260520000098,4.0,1.0,phase_2,stop,500.0,550.0,3.0,,,,,,,,,green,I
0.0,3.0,2.0,0.0,6.0,6.0,672.8120600000693,4.0,1.0,phase_2,go,500.0,500.0,1.0,,,,,,,,,white,square
0.0,7.0,2.0,1.0,5.0,5.0,626.3684309997188,4.0,1.0,phase_2,stop,500.0,500.0,3.0,,,,,,,,,orange,cross
0.0,6.0,1.0,1.0,6.0,0.0,0.0,4.0,1.0,phase_2,stop,450.0,500.0,4.0,,,,,,,,,yellow,triangle
0.0,8.0,4.0,1.0,5.0,0.0,0.0,4.0,1.0,phase_2,stop,450.0,550.0,4.0,,,,,,,,,green,I
0.0,2.0,1.0,0.0,5.0,5.0,696.9737580002402,4.0,1.0,phase_2,go,500.0,550.0,1.0,,,,,,,,,blue,hexagon
0.0,8.0,4.0,1.0,6.0,6.0,622.0664249995025,4.0,1.0,phase_2,stop,500.0,550.0,3.0,,,,,,,,,green,I
0.0,6.0,1.0,1.0,6.0,6.0,382.7467410001191,4.0,1.0,phase_2,stop,500.0,500.0,3.0,,,,,,,,,yellow,triangle
0.0,4.0,4.0,0.0,5.0,5.0,622.7596979997543,4.0,1.0,phase_2,go,500.0,450.0,1.0,,,,,,,,,cyan,diamond
0.0,1.0,0.5,0.0,6.0,6.0,828.8037510001232,4.0,1.0,phase_2,go,500.0,450.0,1.0,,,,,,,,,gray,flipped triangle
0.0,6.0,1.0,1.0,6.0,6.0,410.1658820000011,4.0,1.0,phase_2,go,500.0,450.0,1.0,,,,,,,,,yellow,triangle
0.0,1.0,0.5,0.0,6.0,6.0,1050.2148460000171,4.0,1.0,phase_2,go,500.0,450.0,1.0,,,,,,,,,gray,flipped triangle
0.0,7.0,2.0,1.0,6.0,6.0,949.210364999999,4.0,1.0,phase_2,go,500.0,450.0,1.0,,,,,,,,,orange,cross
0.0,5.0,0.5,1.0,5.0,0.0,0.0,4.0,1.0,phase_2,stop,500.0,450.0,4.0,,,,,,,,,magenta,circle
0.0,7.0,2.0,1.0,6.0,6.0,699.6571999998196,4.0,1.0,phase_2,go,550.0,450.0,1.0,,,,,,,,,orange,cross
0.0,4.0,4.0,0.0,5.0,5.0,541.4807759998439,4.0,1.0,phase_2,go,550.0,450.0,1.0,,,,,,,,,cyan,diamond
0.0,2.0,1.0,0.0,5.0,5.0,923.4098609995272,4.0,1.0,phase_2,go,550.0,450.0,1.0,,,,,,,,,blue,hexagon
0.0,8.0,4.0,1.0,5.0,0.0,0.0,4.0,1.0,phase_2,stop,550.0,450.0,4.0,,,,,,,,,green,I
0.0,6.0,1.0,1.0,6.0,0.0,0.0,4.0,1.0,phase_2,stop,600.0,450.0,4.0,,,,,,,,,yellow,triangle
0.0,1.0,0.5,0.0,5.0,5.0,836.8275000002541,4.0,1.0,phase_2,go,600.0,500.0,1.0,,,,,,,,,gray,flipped triangle
0.0,6.0,1.0,1.0,5.0,5.0,762.4241149997033,4.0,1.0,phase_2,go,600.0,500.0,1.0,,,,,,,,,yellow,triangle
0.0,4.0,4.0,0.0,6.0,6.0,540.5986450005003,4.0,1.0,phase_2,go,600.0,500.0,1.0,,,,,,,,,cyan,diamond
0.0,3.0,2.0,0.0,5.0,5.0,559.0804019993811,4.0,1.0,phase_2,go,600.0,500.0,1.0,,,,,,,,,white,square
0.0,2.0,1.0,0.0,5.0,5.0,362.9929730004733,4.0,1.0,phase_2,go,600.0,500.0,1.0,,,,,,,,,blue,hexagon
0.0,8.0,4.0,1.0,6.0,6.0,848.0551399998149,4.0,1.0,phase_2,go,600.0,500.0,1.0,,,,,,,,,green,I
0.0,2.0,1.0,0.0,5.0,5.0,744.7818379996534,4.0,1.0,phase_2,go,600.0,500.0,1.0,,,,,,,,,blue,hexagon
0.0,1.0,0.5,0.0,5.0,5.0,519.8051879997365,4.0,1.0,phase_2,go,600.0,500.0,1.0,,,,,,,,,gray,flipped triangle
0.0,6.0,1.0,1.0,5.0,5.0,720.0813660001586,4.0,1.0,phase_2,stop,600.0,500.0,3.0,,,,,,,,,yellow,triangle
0.0,6.0,1.0,1.0,5.0,0.0,0.0,4.0,1.0,phase_2,stop,550.0,500.0,4.0,,,,,,,,,yellow,triangle
0.0,2.0,1.0,0.0,6.0,6.0,661.1742270006289,4.0,1.0,phase_2,go,600.0,500.0,1.0,,,,,,,,,blue,hexagon
0.0,8.0,4.0,1.0,5.0,5.0,646.7500740000105,4.0,1.0,phase_2,stop,600.0,500.0,3.0,,,,,,,,,green,I
0.0,8.0,4.0,1.0,6.0,6.0,671.3380000001052,4.0,1.0,phase_2,go,550.0,500.0,1.0,,,,,,,,,green,I
0.0,5.0,0.5,1.0,6.0,0.0,0.0,4.0,1.0,phase_2,stop,550.0,500.0,4.0,,,,,,,,,magenta,circle
0.0,8.0,4.0,1.0,6.0,6.0,532.2806450003554,4.0,1.0,phase_2,stop,550.0,550.0,3.0,,,,,,,,,green,I
0.0,7.0,2.0,1.0,5.0,0.0,0.0,4.0,1.0,phase_2,stop,550.0,500.0,4.0,,,,,,,,,orange,cross
0.0,3.0,2.0,0.0,5.0,5.0,976.5133930004596,4.0,1.0,phase_2,go,600.0,500.0,1.0,,,,,,,,,white,square
0.0,4.0,4.0,0.0,6.0,6.0,461.410707000141,5.0,1.0,phase_2,go,600.0,500.0,1.0,,,,,,,,,cyan,diamond
0.0,8.0,4.0,1.0,5.0,5.0,800.3655940001408,5.0,1.0,phase_2,stop,600.0,500.0,3.0,,,,,,,,,green,I
0.0,8.0,4.0,1.0,5.0,5.0,430.7117079997624,5.0,1.0,phase_2,stop,550.0,500.0,3.0,,,,,,,,,green,I
0.0,4.0,4.0,0.0,5.0,5.0,765.1045960001284,5.0,1.0,phase_2,go,500.0,500.0,1.0,,,,,,,,,cyan,diamond
0.0,2.0,1.0,0.0,5.0,5.0,541.5197610000178,5.0,1.0,phase_2,go,500.0,500.0,1.0,,,,,,,,,blue,hexagon
0.0,4.0,4.0,0.0,6.0,6.0,616.5292389996466,5.0,1.0,phase_2,go,500.0,500.0,1.0,,,,,,,,,cyan,diamond
0.0,6.0,1.0,1.0,5.0,5.0,354.1346860001795,5.0,1.0,phase_2,stop,500.0,500.0,3.0,,,,,,,,,yellow,triangle
0.0,6.0,1.0,1.0,5.0,5.0,501.3400500001808,5.0,1.0,phase_2,stop,450.0,500.0,3.0,,,,,,,,,yellow,triangle
0.0,5.0,0.5,1.0,6.0,6.0,616.0139849998814,5.0,1.0,phase_2,go,400.0,500.0,1.0,,,,,,,,,magenta,circle
0.0,1.0,0.5,0.0,6.0,6.0,437.8887949997079,5.0,1.0,phase_2,go,400.0,500.0,1.0,,,,,,,,,gray,flipped triangle
0.0,8.0,4.0,1.0,5.0,0.0,0.0,5.0,1.0,phase_2,stop,400.0,500.0,4.0,,,,,,,,,green,I
0.0,5.0,0.5,1.0,6.0,0.0,0.0,5.0,1.0,phase_2,stop,450.0,500.0,4.0,,,,,,,,,magenta,circle
0.0,4.0,4.0,0.0,6.0,6.0,483.452319999742,5.0,1.0,phase_2,go,450.0,550.0,1.0,,,,,,,,,cyan,diamond
0.0,2.0,1.0,0.0,5.0,5.0,577.7541220004423,5.0,1.0,phase_2,go,450.0,550.0,1.0,,,,,,,,,blue,hexagon
0.0,3.0,2.0,0.0,6.0,6.0,420.4684970000016,5.0,1.0,phase_2,go,450.0,550.0,1.0,,,,,,,,,white,square
0.0,1.0,0.5,0.0,6.0,6.0,392.3135079994608,5.0,1.0,phase_2,go,450.0,550.0,1.0,,,,,,,,,gray,flipped triangle
0.0,6.0,1.0,1.0,6.0,6.0,382.6463049999802,5.0,1.0,phase_2,stop,450.0,550.0,3.0,,,,,,,,,yellow,triangle
0.0,7.0,2.0,1.0,5.0,5.0,737.9652190002162,5.0,1.0,phase_2,go,450.0,500.0,1.0,,,,,,,,,orange,cross
0.0,8.0,4.0,1.0,6.0,0.0,0.0,5.0,1.0,phase_2,stop,450.0,500.0,4.0,,,,,,,,,green,I
0.0,8.0,4.0,1.0,6.0,6.0,1014.2573569992237,5.0,1.0,phase_2,go,450.0,550.0,1.0,,,,,,,,,green,I
0.0,3.0,2.0,0.0,6.0,6.0,541.5324760006115,5.0,1.0,phase_2,go,450.0,550.0,1.0,,,,,,,,,white,square
0.0,4.0,4.0,0.0,5.0,5.0,686.6495370004486,5.0,1.0,phase_2,go,450.0,550.0,1.0,,,,,,,,,cyan,diamond
0.0,5.0,0.5,1.0,6.0,0.0,0.0,5.0,1.0,phase_2,stop,450.0,550.0,4.0,,,,,,,,,magenta,circle
0.0,2.0,1.0,0.0,6.0,6.0,699.5285220000369,5.0,1.0,phase_2,go,450.0,600.0,1.0,,,,,,,,,blue,hexagon
0.0,1.0,0.5,0.0,5.0,5.0,530.3720269994301,5.0,1.0,phase_2,go,450.0,600.0,1.0,,,,,,,,,gray,flipped triangle
0.0,7.0,2.0,1.0,6.0,6.0,568.3027919994856,5.0,1.0,phase_2,stop,450.0,600.0,3.0,,,,,,,,,orange,cross
0.0,1.0,0.5,0.0,6.0,6.0,801.7795159994421,5.0,1.0,phase_2,go,450.0,550.0,1.0,,,,,,,,,gray,flipped triangle
0.0,4.0,4.0,0.0,6.0,6.0,622.8478120001455,5.0,1.0,phase_2,go,450.0,550.0,1.0,,,,,,,,,cyan,diamond
0.0,5.0,0.5,1.0,6.0,0.0,0.0,5.0,1.0,phase_2,stop,450.0,550.0,4.0,,,,,,,,,magenta,circle
0.0,1.0,0.5,0.0,5.0,5.0,634.5676119999553,5.0,1.0,phase_2,go,450.0,600.0,1.0,,,,,,,,,gray,flipped triangle
0.0,6.0,1.0,1.0,5.0,5.0,708.9541529994676,5.0,1.0,phase_2,stop,450.0,600.0,3.0,,,,,,,,,yellow,triangle
0.0,4.0,4.0,0.0,6.0,6.0,484.7209459994701,5.0,1.0,phase_2,go,400.0,600.0,1.0,,,,,,,,,cyan,diamond
0.0,2.0,1.0,0.0,5.0,5.0,504.56481399942277,5.0,1.0,phase_2,go,400.0,600.0,1.0,,,,,,,,,blue,hexagon
0.0,5.0,0.5,1.0,6.0,6.0,436.7968839997047,5.0,1.0,phase_2,stop,400.0,600.0,3.0,,,,,,,,,magenta,circle
0.0,5.0,0.5,1.0,5.0,5.0,430.4112330000862,5.0,1.0,phase_2,stop,400.0,550.0,3.0,,,,,,,,,magenta,circle
0.0,7.0,2.0,1.0,5.0,0.0,0.0,5.0,1.0,phase_2,stop,350.0,550.0,4.0,,,,,,,,,orange,cross
0.0,1.0,0.5,0.0,5.0,5.0,735.1458079992881,6.0,1.0,phase_2,go,400.0,550.0,1.0,,,,,,,,,gray,flipped triangle
0.0,7.0,2.0,1.0,6.0,6.0,343.1953799999974,6.0,1.0,phase_2,stop,400.0,550.0,3.0,,,,,,,,,orange,cross
0.0,7.0,2.0,1.0,5.0,5.0,398.9329180003551,6.0,1.0,phase_2,go,400.0,500.0,1.0,,,,,,,,,orange,cross
0.0,2.0,1.0,0.0,5.0,5.0,419.4201479995172,6.0,1.0,phase_2,go,400.0,500.0,1.0,,,,,,,,,blue,hexagon
0.0,6.0,1.0,1.0,5.0,5.0,410.8106350004163,6.0,1.0,phase_2,go,400.0,500.0,1.0,,,,,,,,,yellow,triangle
0.0,5.0,0.5,1.0,5.0,5.0,1080.7131470000968,6.0,1.0,phase_2,go,400.0,500.0,1.0,,,,,,,,,magenta,circle
0.0,3.0,2.0,0.0,5.0,5.0,409.1948660006892,6.0,1.0,phase_2,go,400.0,500.0,1.0,,,,,,,,,white,square
0.0,6.0,1.0,1.0,6.0,0.0,0.0,6.0,1.0,phase_2,stop,400.0,500.0,4.0,,,,,,,,,yellow,triangle
0.0,4.0,4.0,0.0,6.0,6.0,557.1766140001273,6.0,1.0,phase_2,go,400.0,550.0,1.0,,,,,,,,,cyan,diamond
0.0,5.0,0.5,1.0,6.0,6.0,372.771418999946,6.0,1.0,phase_2,go,400.0,550.0,1.0,,,,,,,,,magenta,circle
0.0,7.0,2.0,1.0,6.0,6.0,882.6636590001726,6.0,1.0,phase_2,go,400.0,550.0,1.0,,,,,,,,,orange,cross
0.0,7.0,2.0,1.0,5.0,5.0,505.81853699986823,6.0,1.0,phase_2,stop,400.0,550.0,3.0,,,,,,,,,orange,cross
0.0,8.0,4.0,1.0,5.0,5.0,456.391953000093,6.0,1.0,phase_2,stop,350.0,550.0,3.0,,,,,,,,,green,I
0.0,4.0,4.0,0.0,6.0,6.0,567.3802740002429,6.0,1.0,phase_2,go,300.0,550.0,1.0,,,,,,,,,cyan,diamond
0.0,7.0,2.0,1.0,5.0,0.0,0.0,6.0,1.0,phase_2,stop,300.0,550.0,4.0,,,,,,,,,orange,cross
0.0,2.0,1.0,0.0,6.0,6.0,633.5020380001879,6.0,1.0,phase_2,go,350.0,550.0,1.0,,,,,,,,,blue,hexagon
0.0,3.0,2.0,0.0,6.0,6.0,484.3962899994949,6.0,1.0,phase_2,go,350.0,550.0,1.0,,,,,,,,,white,square
0.0,3.0,2.0,0.0,6.0,6.0,577.387526000166,6.0,1.0,phase_2,go,350.0,550.0,1.0,,,,,,,,,white,square
0.0,5.0,0.5,1.0,5.0,0.0,0.0,6.0,1.0,phase_2,stop,350.0,550.0,4.0,,,,,,,,,magenta,circle
0.0,5.0,0.5,1.0,6.0,6.0,847.580108999864,6.0,1.0,phase_2,go,400.0,550.0,1.0,,,,,,,,,magenta,circle
0.0,8.0,4.0,1.0,6.0,6.0,651.6126639999129,6.0,1.0,phase_2,stop,400.0,550.0,3.0,,,,,,,,,green,I
0.0,6.0,1.0,1.0,5.0,0.0,0.0,6.0,1.0,phase_2,stop,400.0,500.0,4.0,,,,,,,,,yellow,triangle
0.0,2.0,1.0,0.0,6.0,6.0,696.7952350005362,6.0,1.0,phase_2,go,450.0,500.0,1.0,,,,,,,,,blue,hexagon
0.0,3.0,2.0,0.0,6.0,6.0,373.0785879997711,6.0,1.0,phase_2,go,450.0,500.0,1.0,,,,,,,,,white,square
0.0,8.0,4.0,1.0,5.0,0.0,0.0,6.0,1.0,phase_2,stop,450.0,500.0,4.0,,,,,,,,,green,I
0.0,4.0,4.0,0.0,6.0,6.0,523.7863570000627,6.0,1.0,phase_2,go,500.0,500.0,1.0,,,,,,,,,cyan,diamond
0.0,1.0,0.5,0.0,6.0,6.0,465.636039999481,6.0,1.0,phase_2,go,500.0,500.0,1.0,,,,,,,,,gray,flipped triangle
0.0,7.0,2.0,1.0,6.0,0.0,0.0,6.0,1.0,phase_2,stop,500.0,500.0,4.0,,,,,,,,,orange,cross
0.0,3.0,2.0,0.0,5.0,5.0,613.2268250003108,6.0,1.0,phase_2,go,500.0,550.0,1.0,,,,,,,,,white,square
0.0,3.0,2.0,0.0,6.0,6.0,524.5825410001999,6.0,1.0,phase_2,go,500.0,550.0,1.0,,,,,,,,,white,square
0.0,4.0,4.0,0.0,6.0,6.0,420.1709579992894,6.0,1.0,phase_2,go,500.0,550.0,1.0,,,,,,,,,cyan,diamond
0.0,2.0,1.0,0.0,5.0,5.0,531.8613899999036,6.0,1.0,phase_2,go,500.0,550.0,1.0,,,,,,,,,blue,hexagon
0.0,8.0,4.0,1.0,5.0,5.0,392.2880909995001,6.0,1.0,phase_2,stop,500.0,550.0,3.0,,,,,,,,,green,I
0.0,2.0,1.0,0.0,5.0,5.0,577.1409959997982,6.0,1.0,phase_2,go,450.0,550.0,1.0,,,,,,,,,blue,hexagon
0.0,4.0,4.0,0.0,5.0,5.0,474.127163999583,6.0,1.0,phase_2,go,450.0,550.0,1.0,,,,,,,,,cyan,diamond
0.0,8.0,4.0,1.0,6.0,6.0,629.5431320004354,6.0,1.0,phase_2,go,450.0,550.0,1.0,,,,,,,,,green,I
0.0,2.0,1.0,0.0,6.0,0.0,0.0,7.0,1.0,phase_2,go,450.0,550.0,5.0,,,,,,,,,blue,hexagon
0.0,5.0,0.5,1.0,6.0,6.0,825.443849000294,7.0,1.0,phase_2,stop,450.0,550.0,3.0,,,,,,,,,magenta,circle
0.0,5.0,0.5,1.0,5.0,5.0,438.0354830000215,7.0,1.0,phase_2,stop,450.0,500.0,3.0,,,,,,,,,magenta,circle
0.0,2.0,1.0,0.0,6.0,6.0,512.8789130003497,7.0,1.0,phase_2,go,400.0,500.0,1.0,,,,,,,,,blue,hexagon
0.0,6.0,1.0,1.0,6.0,6.0,744.8777350000455,7.0,1.0,phase_2,go,400.0,500.0,1.0,,,,,,,,,yellow,triangle
0.0,7.0,2.0,1.0,5.0,0.0,0.0,7.0,1.0,phase_2,stop,400.0,500.0,4.0,,,,,,,,,orange,cross
0.0,2.0,1.0,0.0,6.0,6.0,605.4279219997625,7.0,1.0,phase_2,go,450.0,500.0,1.0,,,,,,,,,blue,hexagon
0.0,8.0,4.0,1.0,5.0,5.0,748.1914549998692,7.0,1.0,phase_2,go,450.0,500.0,1.0,,,,,,,,,green,I
0.0,7.0,2.0,1.0,6.0,6.0,521.7743749999499,7.0,1.0,phase_2,go,450.0,500.0,1.0,,,,,,,,,orange,cross
0.0,5.0,0.5,1.0,6.0,0.0,0.0,7.0,1.0,phase_2,stop,450.0,500.0,4.0,,,,,,,,,magenta,circle
0.0,6.0,1.0,1.0,6.0,6.0,566.3705919996573,7.0,1.0,phase_2,go,450.0,550.0,1.0,,,,,,,,,yellow,triangle
0.0,2.0,1.0,0.0,6.0,6.0,596.26752999975,7.0,1.0,phase_2,go,450.0,550.0,1.0,,,,,,,,,blue,hexagon
0.0,3.0,2.0,0.0,5.0,5.0,493.0936009996003,7.0,1.0,phase_2,go,450.0,550.0,1.0,,,,,,,,,white,square
0.0,2.0,1.0,0.0,6.0,6.0,465.4676139998628,7.0,1.0,phase_2,go,450.0,550.0,1.0,,,,,,,,,blue,hexagon
0.0,8.0,4.0,1.0,6.0,6.0,787.5147550003021,7.0,1.0,phase_2,stop,450.0,550.0,3.0,,,,,,,,,green,I
0.0,3.0,2.0,0.0,5.0,5.0,465.9947769996506,7.0,1.0,phase_2,go,450.0,500.0,1.0,,,,,,,,,white,square
0.0,7.0,2.0,1.0,5.0,0.0,0.0,7.0,1.0,phase_2,stop,450.0,500.0,4.0,,,,,,,,,orange,cross
0.0,8.0,4.0,1.0,6.0,6.0,587.3446530004003,7.0,1.0,phase_2,go,500.0,500.0,1.0,,,,,,,,,green,I
0.0,5.0,0.5,1.0,5.0,5.0,755.929783999818,7.0,1.0,phase_2,go,500.0,500.0,1.0,,,,,,,,,magenta,circle
0.0,2.0,1.0,0.0,6.0,6.0,586.1414950004473,7.0,1.0,phase_2,go,500.0,500.0,1.0,,,,,,,,,blue,hexagon
0.0,4.0,4.0,0.0,5.0,5.0,531.1318519998167,7.0,1.0,phase_2,go,500.0,500.0,1.0,,,,,,,,,cyan,diamond
0.0,5.0,0.5,1.0,6.0,6.0,645.0367429997641,7.0,1.0,phase_2,stop,500.0,500.0,3.0,,,,,,,,,magenta,circle
0.0,3.0,2.0,0.0,5.0,5.0,533.1397529998867,7.0,1.0,phase_2,go,500.0,450.0,1.0,,,,,,,,,white,square
0.0,5.0,0.5,1.0,6.0,0.0,0.0,7.0,1.0,phase_2,stop,500.0,450.0,4.0,,,,,,,,,magenta,circle
0.0,1.0,0.5,0.0,5.0,5.0,633.671890000187,7.0,1.0,phase_2,go,500.0,500.0,1.0,,,,,,,,,gray,flipped triangle
0.0,1.0,0.5,0.0,5.0,5.0,614.42668699965,7.0,1.0,phase_2,go,500.0,500.0,1.0,,,,,,,,,gray,flipped triangle
0.0,3.0,2.0,0.0,5.0,5.0,610.1476490002824,7.0,1.0,phase_2,go,500.0,500.0,1.0,,,,,,,,,white,square
0.0,7.0,2.0,1.0,6.0,0.0,0.0,7.0,1.0,phase_2,stop,500.0,500.0,4.0,,,,,,,,,orange,cross
0.0,6.0,1.0,1.0,6.0,6.0,818.8062060007724,7.0,1.0,phase_2,go,500.0,550.0,1.0,,,,,,,,,yellow,triangle
0.0,1.0,0.5,0.0,5.0,5.0,603.6475199998677,7.0,1.0,phase_2,go,500.0,550.0,1.0,,,,,,,,,gray,flipped triangle
0.0,6.0,1.0,1.0,6.0,6.0,642.4718649996066,7.0,1.0,phase_2,stop,500.0,550.0,3.0,,,,,,,,,yellow,triangle
0.0,6.0,1.0,1.0,6.0,0.0,0.0,7.0,1.0,phase_2,stop,500.0,500.0,4.0,,,,,,,,,yellow,triangle
0.0,3.0,2.0,0.0,5.0,5.0,474.6023229999991,7.0,1.0,phase_2,go,500.0,550.0,1.0,,,,,,,,,white,square
0.0,6.0,1.0,1.0,6.0,6.0,783.6946300003547,7.0,1.0,phase_2,go,500.0,550.0,1.0,,,,,,,,,yellow,triangle
0.0,6.0,1.0,1.0,6.0,0.0,0.0,7.0,1.0,phase_2,stop,500.0,550.0,4.0,,,,,,,,,yellow,triangle
0.0,8.0,4.0,1.0,6.0,6.0,791.7956410001352,7.0,1.0,phase_2,stop,500.0,600.0,3.0,,,,,,,,,green,I
0.0,8.0,4.0,1.0,6.0,6.0,608.5204589999194,8.0,1.0,phase_2,stop,500.0,550.0,3.0,,,,,,,,,green,I
0.0,4.0,4.0,0.0,5.0,5.0,630.951162999736,8.0,1.0,phase_2,go,500.0,500.0,1.0,,,,,,,,,cyan,diamond
0.0,7.0,2.0,1.0,6.0,0.0,0.0,8.0,1.0,phase_2,stop,500.0,500.0,4.0,,,,,,,,,orange,cross
0.0,6.0,1.0,1.0,5.0,5.0,672.9170419994261,8.0,1.0,phase_2,stop,500.0,550.0,3.0,,,,,,,,,yellow,triangle
0.0,4.0,4.0,0.0,6.0,6.0,541.267247000178,8.0,1.0,phase_2,go,450.0,550.0,1.0,,,,,,,,,cyan,diamond
0.0,6.0,1.0,1.0,5.0,0.0,0.0,8.0,1.0,phase_2,stop,450.0,550.0,4.0,,,,,,,,,yellow,triangle
0.0,4.0,4.0,0.0,6.0,6.0,699.9693450006816,8.0,1.0,phase_2,go,500.0,550.0,1.0,,,,,,,,,cyan,diamond
0.0,7.0,2.0,1.0,5.0,5.0,978.6484140004176,8.0,1.0,phase_2,go,500.0,550.0,1.0,,,,,,,,,orange,cross
0.0,4.0,4.0,0.0,6.0,6.0,492.4767749998864,8.0,1.0,phase_2,go,500.0,550.0,1.0,,,,,,,,,cyan,diamond
0.0,2.0,1.0,0.0,5.0,5.0,560.7461989993681,8.0,1.0,phase_2,go,500.0,550.0,1.0,,,,,,,,,blue,hexagon
0.0,1.0,0.5,0.0,5.0,5.0,679.8614409999573,8.0,1.0,phase_2,go,500.0,550.0,1.0,,,,,,,,,gray,flipped triangle
0.0,8.0,4.0,1.0,5.0,5.0,969.238960000439,8.0,1.0,phase_2,go,500.0,550.0,1.0,,,,,,,,,green,I
0.0,3.0,2.0,0.0,5.0,5.0,419.0358910000213,8.0,1.0,phase_2,go,500.0,550.0,1.0,,,,,,,,,white,square
0.0,7.0,2.0,1.0,6.0,6.0,719.5063029994344,8.0,1.0,phase_2,stop,500.0,550.0,3.0,,,,,,,,,orange,cross
0.0,2.0,1.0,0.0,6.0,6.0,559.2011810003896,8.0,1.0,phase_2,go,500.0,500.0,1.0,,,,,,,,,blue,hexagon
0.0,2.0,1.0,0.0,5.0,5.0,513.1247260005694,8.0,1.0,phase_2,go,500.0,500.0,1.0,,,,,,,,,blue,hexagon
0.0,4.0,4.0,0.0,5.0,5.0,661.1962510005469,8.0,1.0,phase_2,go,500.0,500.0,1.0,,,,,,,,,cyan,diamond
0.0,8.0,4.0,1.0,6.0,0.0,0.0,8.0,1.0,phase_2,stop,500.0,500.0,4.0,,,,,,,,,green,I
0.0,8.0,4.0,1.0,5.0,0.0,0.0,8.0,1.0,phase_2,stop,500.0,550.0,4.0,,,,,,,,,green,I
0.0,3.0,2.0,0.0,6.0,6.0,597.4720200001684,8.0,1.0,phase_2,go,550.0,550.0,1.0,,,,,,,,,white,square
0.0,1.0,0.5,0.0,5.0,5.0,643.3250899999621,8.0,1.0,phase_2,go,550.0,550.0,1.0,,,,,,,,,gray,flipped triangle
0.0,3.0,2.0,0.0,5.0,5.0,605.3312759995606,8.0,1.0,phase_2,go,550.0,550.0,1.0,,,,,,,,,white,square
0.0,1.0,0.5,0.0,6.0,6.0,466.9302789998255,8.0,1.0,phase_2,go,550.0,550.0,1.0,,,,,,,,,gray,flipped triangle
0.0,7.0,2.0,1.0,6.0,0.0,0.0,8.0,1.0,phase_2,stop,550.0,550.0,4.0,,,,,,,,,orange,cross
0.0,8.0,4.0,1.0,5.0,0.0,0.0,8.0,1.0,phase_2,stop,550.0,600.0,4.0,,,,,,,,,green,I
0.0,4.0,4.0,0.0,5.0,5.0,764.2048470006557,8.0,1.0,phase_2,go,600.0,600.0,1.0,,,,,,,,,cyan,diamond
0.0,8.0,4.0,1.0,5.0,5.0,647.8144869997777,8.0,1.0,phase_2,stop,600.0,600.0,3.0,,,,,,,,,green,I
0.0,5.0,0.5,1.0,5.0,0.0,0.0,8.0,1.0,phase_2,stop,550.0,600.0,4.0,,,,,,,,,magenta,circle
0.0,8.0,4.0,1.0,5.0,5.0,739.1244260006715,8.0,1.0,phase_2,stop,600.0,600.0,3.0,,,,,,,,,green,I
0.0,4.0,4.0,0.0,5.0,5.0,585.3132410002218,8.0,1.0,phase_2,go,550.0,600.0,1.0,,,,,,,,,cyan,diamond
0.0,8.0,4.0,1.0,6.0,6.0,774.5947080002225,8.0,1.0,phase_2,go,550.0,600.0,1.0,,,,,,,,,green,I
0.0,3.0,2.0,0.0,6.0,6.0,588.1245089994991,8.0,1.0,phase_2,go,550.0,600.0,1.0,,,,,,,,,white,square
0.0,4.0,4.0,0.0,6.0,6.0,855.7735680005862,8.0,1.0,phase_2,go,550.0,600.0,1.0,,,,,,,,,cyan,diamond
0.0,7.0,2.0,1.0,5.0,5.0,475.626731000375,8.0,1.0,phase_2,stop,550.0,600.0,3.0,,,,,,,,,orange,cross
0.0,1.0,0.5,0.0,5.0,5.0,541.1713910007165,8.0,1.0,phase_2,go,500.0,600.0,1.0,,,,,,,,,gray,flipped triangle
0.0,2.0,1.0,0.0,6.0,6.0,583.9178429996537,8.0,1.0,phase_2,go,500.0,600.0,1.0,,,,,,,,,blue,hexagon
0.0,3.0,2.0,0.0,7.0,2.0,2909.034420000353,1.0,1.0,phase_3,,,,,616.0,4.0,154.0,616.0,462.0,770.0,924.0,308.0,white,square
0.0,7.0,2.0,1.0,7.0,5.0,2653.814369999964,1.0,1.0,phase_3,,,,,116.0,1.0,232.0,348.0,464.0,696.0,116.0,580.0,orange,cross
0.0,6.0,1.0,1.0,7.0,6.0,2159.54307499942,1.0,1.0,phase_3,,,,,810.0,6.0,675.0,135.0,540.0,270.0,405.0,810.0,yellow,triangle
0.0,6.0,1.0,1.0,7.0,1.0,2037.0809010000812,1.0,1.0,phase_3,,,,,1152.0,6.0,1152.0,576.0,192.0,384.0,960.0,768.0,yellow,triangle
0.0,2.0,1.0,0.0,7.0,3.0,2530.989509000392,1.0,1.0,phase_3,,,,,675.0,5.0,810.0,405.0,675.0,540.0,135.0,270.0,blue,hexagon
0.0,3.0,2.0,0.0,7.0,6.0,1737.242852000236,1.0,1.0,phase_3,,,,,192.0,1.0,768.0,576.0,960.0,384.0,1152.0,192.0,white,square
0.0,1.0,0.5,0.0,7.0,5.0,1967.2405110004547,1.0,1.0,phase_3,,,,,308.0,2.0,924.0,154.0,616.0,462.0,308.0,770.0,gray,flipped triangle
0.0,4.0,4.0,0.0,7.0,2.0,1352.520287000516,1.0,1.0,phase_3,,,,,924.0,6.0,770.0,924.0,616.0,462.0,154.0,308.0,cyan,diamond
0.0,6.0,1.0,1.0,7.0,3.0,3046.9322529997958,1.0,1.0,phase_3,,,,,308.0,2.0,770.0,462.0,308.0,154.0,616.0,924.0,yellow,triangle
0.0,4.0,4.0,0.0,7.0,6.0,1591.1502169992673,1.0,1.0,phase_3,,,,,616.0,4.0,770.0,924.0,462.0,308.0,154.0,616.0,cyan,diamond
0.0,1.0,0.5,0.0,7.0,5.0,1515.9028870002658,1.0,1.0,phase_3,,,,,173.0,1.0,865.0,519.0,1038.0,692.0,173.0,346.0,gray,flipped triangle
0.0,4.0,4.0,0.0,7.0,3.0,2487.3754299997017,1.0,1.0,phase_3,,,,,580.0,5.0,232.0,116.0,580.0,696.0,464.0,348.0,cyan,diamond
0.0,5.0,0.5,1.0,7.0,5.0,1869.674493000275,1.0,1.0,phase_3,,,,,405.0,3.0,270.0,540.0,675.0,135.0,405.0,810.0,magenta,circle
0.0,3.0,2.0,0.0,7.0,1.0,1424.136745999931,1.0,1.0,phase_3,,,,,346.0,2.0,346.0,519.0,1038.0,692.0,173.0,865.0,white,square
0.0,2.0,1.0,0.0,7.0,5.0,1432.5716100001955,1.0,1.0,phase_3,,,,,770.0,5.0,308.0,924.0,154.0,462.0,770.0,616.0,blue,hexagon
0.0,7.0,2.0,1.0,7.0,5.0,1868.74531400008,1.0,1.0,phase_3,,,,,1152.0,6.0,960.0,576.0,192.0,768.0,1152.0,384.0,orange,cross
0.0,3.0,2.0,0.0,7.0,6.0,1827.9152159993828,1.0,1.0,phase_3,,,,,270.0,2.0,810.0,675.0,540.0,405.0,135.0,270.0,white,square
0.0,2.0,1.0,0.0,7.0,1.0,2068.6395900002026,1.0,1.0,phase_3,,,,,810.0,6.0,810.0,540.0,270.0,675.0,405.0,135.0,blue,hexagon
0.0,3.0,2.0,0.0,7.0,4.0,2605.3801959997145,1.0,1.0,phase_3,,,,,519.0,3.0,1038.0,692.0,865.0,519.0,173.0,346.0,white,square
0.0,8.0,4.0,1.0,7.0,6.0,2027.026488999581,1.0,1.0,phase_3,,,,,865.0,5.0,692.0,173.0,519.0,346.0,1038.0,865.0,green,I
0.0,8.0,4.0,1.0,7.0,2.0,2839.9185950001997,2.0,1.0,phase_3,,,,,116.0,1.0,580.0,116.0,696.0,348.0,464.0,232.0,green,I
0.0,8.0,4.0,1.0,7.0,4.0,1433.7079890001403,2.0,1.0,phase_3,,,,,960.0,5.0,768.0,1152.0,384.0,960.0,192.0,576.0,green,I
0.0,4.0,4.0,0.0,7.0,5.0,2054.190931999983,2.0,1.0,phase_3,,,,,865.0,5.0,173.0,346.0,692.0,1038.0,865.0,519.0,cyan,diamond
0.0,7.0,2.0,1.0,7.0,3.0,2389.8168670002638,2.0,1.0,phase_3,,,,,924.0,6.0,770.0,616.0,924.0,154.0,462.0,308.0,orange,cross
0.0,5.0,0.5,1.0,7.0,1.0,1424.759821000407,2.0,1.0,phase_3,,,,,384.0,2.0,384.0,768.0,576.0,192.0,960.0,1152.0,magenta,circle
0.0,1.0,0.5,0.0,7.0,6.0,1618.596790999618,2.0,1.0,phase_3,,,,,192.0,1.0,768.0,384.0,1152.0,576.0,960.0,192.0,gray,flipped triangle
0.0,6.0,1.0,1.0,7.0,2.0,1527.1557300002314,2.0,1.0,phase_3,,,,,540.0,4.0,810.0,540.0,405.0,675.0,135.0,270.0,yellow,triangle
0.0,3.0,2.0,0.0,7.0,6.0,1895.0384770005255,2.0,1.0,phase_3,,,,,696.0,6.0,116.0,580.0,232.0,464.0,348.0,696.0,white,square
0.0,7.0,2.0,1.0,7.0,5.0,1684.7526470000955,2.0,1.0,phase_3,,,,,1152.0,6.0,960.0,576.0,384.0,192.0,1152.0,768.0,orange,cross
0.0,3.0,2.0,0.0,7.0,2.0,2861.1421969999355,2.0,1.0,phase_3,,,,,540.0,4.0,135.0,540.0,810.0,270.0,405.0,675.0,white,square
0.0,6.0,1.0,1.0,7.0,5.0,2034.0437939994445,2.0,1.0,phase_3,,,,,1152.0,6.0,576.0,768.0,960.0,384.0,1152.0,192.0,yellow,triangle
0.0,8.0,4.0,1.0,7.0,4.0,2050.92329099989,2.0,1.0,phase_3,,,,,810.0,6.0,405.0,675.0,540.0,810.0,135.0,270.0,green,I
0.0,1.0,0.5,0.0,7.0,2.0,1374.827030999768,2.0,1.0,phase_3,,,,,116.0,1.0,464.0,116.0,580.0,696.0,348.0,232.0,gray,flipped triangle
0.0,1.0,0.5,0.0,7.0,4.0,1771.3460860004488,2.0,1.0,phase_3,,,,,135.0,1.0,810.0,405.0,540.0,135.0,675.0,270.0,gray,flipped triangle
0.0,1.0,0.5,0.0,7.0,6.0,1074.0445170004025,2.0,1.0,phase_3,,,,,192.0,1.0,1152.0,768.0,960.0,384.0,576.0,192.0,gray,flipped triangle
0.0,2.0,1.0,0.0,7.0,5.0,1076.5814809992662,2.0,1.0,phase_3,,,,,1152.0,6.0,384.0,192.0,768.0,960.0,1152.0,576.0,blue,hexagon
0.0,8.0,4.0,1.0,7.0,6.0,1415.4508370002077,2.0,1.0,phase_3,,,,,810.0,6.0,135.0,270.0,405.0,540.0,675.0,810.0,green,I
0.0,5.0,0.5,1.0,7.0,4.0,2059.160979999433,2.0,1.0,phase_3,,,,,346.0,2.0,519.0,865.0,173.0,346.0,692.0,1038.0,magenta,circle
0.0,5.0,0.5,1.0,7.0,5.0,1099.4278800008033,2.0,1.0,phase_3,,,,,348.0,3.0,232.0,116.0,696.0,580.0,348.0,464.0,magenta,circle
0.0,2.0,1.0,0.0,7.0,6.0,1222.8366529998311,2.0,1.0,phase_3,,,,,924.0,6.0,770.0,308.0,616.0,154.0,462.0,924.0,blue,hexagon
0.0,4.0,4.0,0.0,7.0,3.0,1563.4387159998369,3.0,1.0,phase_3,,,,,692.0,4.0,173.0,346.0,692.0,865.0,1038.0,519.0,cyan,diamond
0.0,5.0,0.5,1.0,7.0,6.0,1028.4886839999672,3.0,1.0,phase_3,,,,,675.0,5.0,405.0,810.0,270.0,540.0,135.0,675.0,magenta,circle
0.0,5.0,0.5,1.0,7.0,5.0,1149.4261790003293,3.0,1.0,phase_3,,,,,308.0,2.0,462.0,616.0,924.0,770.0,308.0,154.0,magenta,circle
0.0,4.0,4.0,0.0,7.0,2.0,1720.9832409998853,3.0,1.0,phase_3,,,,,1152.0,6.0,576.0,1152.0,960.0,192.0,384.0,768.0,cyan,diamond
0.0,4.0,4.0,0.0,7.0,6.0,1311.1432340001556,3.0,1.0,phase_3,,,,,810.0,6.0,540.0,405.0,135.0,675.0,270.0,810.0,cyan,diamond
0.0,5.0,0.5,1.0,7.0,3.0,1439.2657190001046,3.0,1.0,phase_3,,,,,348.0,3.0,696.0,232.0,348.0,464.0,116.0,580.0,magenta,circle
0.0,4.0,4.0,0.0,7.0,4.0,1555.0067759995727,3.0,1.0,phase_3,,,,,270.0,2.0,810.0,675.0,135.0,270.0,405.0,540.0,cyan,diamond
0.0,8.0,4.0,1.0,7.0,2.0,1082.3005570000532,3.0,1.0,phase_3,,,,,768.0,4.0,1152.0,768.0,576.0,192.0,384.0,960.0,green,I
0.0,5.0,0.5,1.0,7.0,3.0,1505.5631619998169,3.0,1.0,phase_3,,,,,519.0,3.0,173.0,1038.0,519.0,692.0,346.0,865.0,magenta,circle
0.0,6.0,1.0,1.0,7.0,3.0,1185.4901609995068,3.0,1.0,phase_3,,,,,346.0,2.0,519.0,865.0,346.0,173.0,1038.0,692.0,yellow,triangle
0.0,5.0,0.5,1.0,7.0,3.0,1642.6400210002612,3.0,1.0,phase_3,,,,,384.0,2.0,192.0,576.0,384.0,1152.0,960.0,768.0,magenta,circle
0.0,6.0,1.0,1.0,7.0,3.0,888.3384820001083,3.0,1.0,phase_3,,,,,464.0,4.0,116.0,348.0,464.0,232.0,696.0,580.0,yellow,triangle
0.0,2.0,1.0,0.0,7.0,5.0,2714.4360290003533,3.0,1.0,phase_3,,,,,696.0,6.0,464.0,348.0,580.0,116.0,696.0,232.0,blue,hexagon
0.0,4.0,4.0,0.0,7.0,6.0,1311.149703999945,3.0,1.0,phase_3,,,,,768.0,4.0,192.0,1152.0,384.0,576.0,960.0,768.0,cyan,diamond
0.0,7.0,2.0,1.0,7.0,6.0,972.1312150004452,3.0,1.0,phase_3,,,,,1038.0,6.0,346.0,692.0,519.0,173.0,865.0,1038.0,orange,cross
0.0,7.0,2.0,1.0,7.0,5.0,1500.6589029999304,3.0,1.0,phase_3,,,,,270.0,2.0,810.0,675.0,135.0,540.0,270.0,405.0,orange,cross
0.0,7.0,2.0,1.0,7.0,1.0,2251.547619000121,3.0,1.0,phase_3,,,,,810.0,6.0,810.0,270.0,675.0,405.0,540.0,135.0,orange,cross
0.0,3.0,2.0,0.0,7.0,1.0,1621.395850999761,3.0,1.0,phase_3,,,,,154.0,1.0,154.0,770.0,924.0,308.0,462.0,616.0,white,square
0.0,6.0,1.0,1.0,7.0,4.0,1466.495001000112,3.0,1.0,phase_3,,,,,580.0,5.0,696.0,348.0,464.0,580.0,116.0,232.0,yellow,triangle
0.0,7.0,2.0,1.0,7.0,5.0,1640.6468799996221,3.0,1.0,phase_3,,,,,924.0,6.0,154.0,308.0,462.0,616.0,924.0,770.0,orange,cross
0.0,1.0,0.5,0.0,7.0,3.0,1566.417946999536,4.0,1.0,phase_3,,,,,154.0,1.0,924.0,616.0,154.0,770.0,308.0,462.0,gray,flipped triangle
0.0,2.0,1.0,0.0,7.0,2.0,1585.9687499996653,4.0,1.0,phase_3,,,,,1152.0,6.0,768.0,1152.0,576.0,960.0,384.0,192.0,blue,hexagon
0.0,7.0,2.0,1.0,7.0,3.0,1224.8466169994572,4.0,1.0,phase_3,,,,,1038.0,6.0,865.0,173.0,1038.0,519.0,346.0,692.0,orange,cross
0.0,8.0,4.0,1.0,7.0,5.0,1247.8515749999133,4.0,1.0,phase_3,,,,,616.0,4.0,924.0,154.0,462.0,770.0,616.0,308.0,green,I
0.0,4.0,4.0,0.0,7.0,1.0,1553.0654569993203,4.0,1.0,phase_3,,,,,580.0,5.0,580.0,348.0,232.0,696.0,464.0,116.0,cyan,diamond
0.0,8.0,4.0,1.0,7.0,4.0,2103.587840999353,4.0,1.0,phase_3,,,,,1038.0,6.0,692.0,865.0,173.0,1038.0,346.0,519.0,green,I
0.0,1.0,0.5,0.0,7.0,1.0,1427.1965090001686,4.0,1.0,phase_3,,,,,173.0,1.0,173.0,865.0,692.0,1038.0,519.0,346.0,gray,flipped triangle
0.0,6.0,1.0,1.0,7.0,4.0,1360.548130999632,4.0,1.0,phase_3,,,,,308.0,2.0,924.0,462.0,616.0,308.0,770.0,154.0,yellow,triangle
0.0,2.0,1.0,0.0,7.0,4.0,1029.9806739994892,4.0,1.0,phase_3,,,,,1038.0,6.0,346.0,173.0,519.0,1038.0,865.0,692.0,blue,hexagon
0.0,6.0,1.0,1.0,7.0,2.0,1553.666374999921,4.0,1.0,phase_3,,,,,346.0,2.0,1038.0,346.0,865.0,692.0,519.0,173.0,yellow,triangle
0.0,1.0,0.5,0.0,7.0,6.0,1169.9569120000888,4.0,1.0,phase_3,,,,,135.0,1.0,675.0,810.0,540.0,270.0,405.0,135.0,gray,flipped triangle
0.0,2.0,1.0,0.0,7.0,5.0,1057.8934830000437,4.0,1.0,phase_3,,,,,865.0,5.0,346.0,692.0,173.0,519.0,865.0,1038.0,blue,hexagon
0.0,3.0,2.0,0.0,7.0,1.0,1148.747072000333,4.0,1.0,phase_3,,,,,384.0,2.0,384.0,1152.0,576.0,192.0,960.0,768.0,white,square
0.0,3.0,2.0,0.0,7.0,3.0,1566.11685200005,4.0,1.0,phase_3,,,,,580.0,5.0,464.0,696.0,580.0,116.0,348.0,232.0,white,square
0.0,8.0,4.0,1.0,7.0,2.0,1834.5400309999604,4.0,1.0,phase_3,,,,,770.0,5.0,462.0,770.0,154.0,924.0,308.0,616.0,green,I
0.0,7.0,2.0,1.0,7.0,6.0,2109.691534999911,4.0,1.0,phase_3,,,,,580.0,5.0,464.0,348.0,232.0,116.0,696.0,580.0,orange,cross
0.0,5.0,0.5,1.0,7.0,3.0,1845.5629229993065,4.0,1.0,phase_3,,,,,770.0,5.0,154.0,616.0,770.0,924.0,462.0,308.0,magenta,circle
0.0,1.0,0.5,0.0,7.0,1.0,1485.1932450001186,4.0,1.0,phase_3,,,,,232.0,2.0,232.0,696.0,580.0,116.0,464.0,348.0,gray,flipped triangle
0.0,8.0,4.0,1.0,7.0,5.0,1780.582475999836,4.0,1.0,phase_3,,,,,580.0,5.0,464.0,232.0,348.0,116.0,580.0,696.0,green,I
0.0,2.0,1.0,0.0,7.0,3.0,1570.4780000005485,4.0,1.0,phase_3,,,,,116.0,1.0,696.0,580.0,116.0,232.0,348.0,464.0,blue,hexagon
