raw_reward_magnitude,stim_reward,stepwise_reward_magnitude,paired_with_stopping,stim_location,response,reaction_time,block,num_trial_presentations,which_phase,stop_signal_trial_type,left_SSD,right_SSD,accuracy,chosen_bidding_amount,chosen_bidding_level,possible_bid_1,possible_bid_2,possible_bid_3,possible_bid_4,possible_bid_5,possible_bid_6,color_text,shape_text
1299.0,8.0,4.0,1.0,4.0,4.0,472.2931769999832,1.0,1.0,phase_1,,,,,,,,,,,,,orange,diamond
673.0,7.0,3.0,1.0,4.0,4.0,370.3670209999927,1.0,1.0,phase_1,,,,,,,,,,,,,white,triangle
0.0,8.0,0.0,1.0,3.0,3.0,305.7138549997944,1.0,1.0,phase_1,,,,,,,,,,,,,orange,diamond
1282.0,4.0,4.0,0.0,1.0,1.0,435.3837979999753,1.0,1.0,phase_1,,,,,,,,,,,,,magenta,cross
1321.0,8.0,4.0,1.0,2.0,2.0,392.780514999913,1.0,1.0,phase_1,,,,,,,,,,,,,orange,diamond
1312.0,8.0,4.0,1.0,2.0,2.0,416.5326959998765,1.0,1.0,phase_1,,,,,,,,,,,,,orange,diamond
137.0,5.0,1.0,1.0,1.0,1.0,407.0344060000934,1.0,1.0,phase_1,,,,,,,,,,,,,gray,circle
0.0,6.0,0.0,1.0,4.0,4.0,360.86702600005077,1.0,1.0,phase_1,,,,,,,,,,,,,cyan,square
666.0,7.0,3.0,1.0,3.0,3.0,345.4469139999219,1.0,1.0,phase_1,,,,,,,,,,,,,white,triangle
644.0,3.0,3.0,0.0,2.0,2.0,333.3737859998109,1.0,1.0,phase_1,,,,,,,,,,,,,blue,flipped triangle
172.0,5.0,1.0,1.0,4.0,4.0,342.1249059999809,1.0,1.0,phase_1,,,,,,,,,,,,,gray,circle
155.0,1.0,1.0,0.0,1.0,1.0,343.7880999999834,1.0,1.0,phase_1,,,,,,,,,,,,,yellow,hexagon
323.0,2.0,2.0,0.0,3.0,3.0,304.9660789999961,1.0,1.0,phase_1,,,,,,,,,,,,,green,I
302.0,2.0,2.0,0.0,4.0,4.0,352.8299219999553,1.0,1.0,phase_1,,,,,,,,,,,,,green,I
1294.0,4.0,4.0,0.0,3.0,3.0,360.9653500000149,1.0,1.0,phase_1,,,,,,,,,,,,,magenta,cross
302.0,2.0,2.0,0.0,3.0,3.0,343.1105170000137,1.0,1.0,phase_1,,,,,,,,,,,,,green,I
0.0,1.0,0.0,0.0,3.0,3.0,325.3898489999756,1.0,1.0,phase_1,,,,,,,,,,,,,yellow,hexagon
0.0,1.0,0.0,0.0,3.0,3.0,306.8184310000106,1.0,1.0,phase_1,,,,,,,,,,,,,yellow,hexagon
337.0,2.0,2.0,0.0,3.0,3.0,324.5441429999118,1.0,1.0,phase_1,,,,,,,,,,,,,green,I
1320.0,4.0,4.0,0.0,2.0,2.0,315.4283110000051,1.0,1.0,phase_1,,,,,,,,,,,,,magenta,cross
1317.0,8.0,4.0,1.0,2.0,2.0,343.3201119999012,1.0,1.0,phase_1,,,,,,,,,,,,,orange,diamond
0.0,6.0,0.0,1.0,4.0,4.0,324.479995000047,1.0,1.0,phase_1,,,,,,,,,,,,,cyan,square
0.0,4.0,0.0,0.0,4.0,4.0,335.1156840001295,1.0,1.0,phase_1,,,,,,,,,,,,,magenta,cross
0.0,1.0,0.0,0.0,1.0,1.0,269.825401999924,1.0,1.0,phase_1,,,,,,,,,,,,,yellow,hexagon
322.0,2.0,2.0,0.0,4.0,4.0,287.5224300000809,1.0,1.0,phase_1,,,,,,,,,,,,,green,I
0.0,1.0,0.0,0.0,3.0,3.0,324.265381000032,1.0,1.0,phase_1,,,,,,,,,,,,,yellow,hexagon
335.0,2.0,2.0,0.0,1.0,1.0,379.7191319999911,1.0,1.0,phase_1,,,,,,,,,,,,,green,I
0.0,4.0,0.0,0.0,2.0,2.0,352.7838329998758,1.0,1.0,phase_1,,,,,,,,,,,,,magenta,cross
671.0,3.0,3.0,0.0,2.0,2.0,286.1726329999783,1.0,1.0,phase_1,,,,,,,,,,,,,blue,flipped triangle
0.0,4.0,0.0,0.0,4.0,4.0,305.919731999893,1.0,1.0,phase_1,,,,,,,,,,,,,magenta,cross
144.0,5.0,1.0,1.0,2.0,2.0,305.8742359999087,1.0,1.0,phase_1,,,,,,,,,,,,,gray,circle
0.0,4.0,0.0,0.0,2.0,2.0,323.4807569999702,1.0,1.0,phase_1,,,,,,,,,,,,,magenta,cross
337.0,2.0,2.0,0.0,2.0,2.0,305.188532000102,1.0,1.0,phase_1,,,,,,,,,,,,,green,I
1297.0,4.0,4.0,0.0,4.0,4.0,325.1809369999137,1.0,1.0,phase_1,,,,,,,,,,,,,magenta,cross
662.0,7.0,3.0,1.0,3.0,3.0,351.9266649998371,1.0,1.0,phase_1,,,,,,,,,,,,,white,triangle
332.0,2.0,2.0,0.0,2.0,2.0,259.4691739998325,1.0,1.0,phase_1,,,,,,,,,,,,,green,I
1283.0,4.0,4.0,0.0,2.0,2.0,268.9346460001616,1.0,1.0,phase_1,,,,,,,,,,,,,magenta,cross
344.0,2.0,2.0,0.0,2.0,2.0,258.881681000048,1.0,1.0,phase_1,,,,,,,,,,,,,green,I
180.0,1.0,1.0,0.0,1.0,1.0,314.315046000047,1.0,1.0,phase_1,,,,,,,,,,,,,yellow,hexagon
0.0,7.0,0.0,1.0,1.0,1.0,314.9072720000276,1.0,1.0,phase_1,,,,,,,,,,,,,white,triangle
1282.0,4.0,4.0,0.0,3.0,3.0,342.5032800000736,1.0,1.0,phase_1,,,,,,,,,,,,,magenta,cross
350.0,2.0,2.0,0.0,2.0,2.0,315.8390279998002,1.0,1.0,phase_1,,,,,,,,,,,,,green,I
0.0,7.0,0.0,1.0,4.0,4.0,417.5867490000655,1.0,1.0,phase_1,,,,,,,,,,,,,white,triangle
1317.0,4.0,4.0,0.0,4.0,4.0,370.5980600000202,1.0,1.0,phase_1,,,,,,,,,,,,,magenta,cross
0.0,7.0,0.0,1.0,2.0,2.0,351.3346899999305,1.0,1.0,phase_1,,,,,,,,,,,,,white,triangle
650.0,3.0,3.0,0.0,2.0,2.0,379.3915300000208,1.0,1.0,phase_1,,,,,,,,,,,,,blue,flipped triangle
340.0,6.0,2.0,1.0,1.0,1.0,305.2216270000372,1.0,1.0,phase_1,,,,,,,,,,,,,cyan,square
674.0,3.0,3.0,0.0,1.0,1.0,324.8925670000062,1.0,1.0,phase_1,,,,,,,,,,,,,blue,flipped triangle
674.0,7.0,3.0,1.0,3.0,3.0,471.3433560000339,1.0,1.0,phase_1,,,,,,,,,,,,,white,triangle
1276.0,8.0,4.0,1.0,4.0,4.0,332.0386360001066,1.0,1.0,phase_1,,,,,,,,,,,,,orange,diamond
1312.0,4.0,4.0,0.0,1.0,1.0,370.871999999963,1.0,1.0,phase_1,,,,,,,,,,,,,magenta,cross
0.0,1.0,0.0,0.0,2.0,2.0,315.7489630000327,1.0,1.0,phase_1,,,,,,,,,,,,,yellow,hexagon
327.0,2.0,2.0,0.0,2.0,2.0,295.3542620000462,1.0,1.0,phase_1,,,,,,,,,,,,,green,I
170.0,1.0,1.0,0.0,2.0,2.0,268.1955610000841,1.0,1.0,phase_1,,,,,,,,,,,,,yellow,hexagon
656.0,7.0,3.0,1.0,1.0,1.0,323.3917329998803,1.0,1.0,phase_1,,,,,,,,,,,,,white,triangle
302.0,6.0,2.0,1.0,4.0,4.0,295.5056299999796,1.0,1.0,phase_1,,,,,,,,,,,,,cyan,square
0.0,2.0,0.0,0.0,1.0,1.0,314.81313499989477,1.0,1.0,phase_1,,,,,,,,,,,,,green,I
187.0,5.0,1.0,1.0,1.0,1.0,341.9853980001335,1.0,1.0,phase_1,,,,,,,,,,,,,gray,circle
0.0,7.0,0.0,1.0,1.0,1.0,314.0042839997932,1.0,1.0,phase_1,,,,,,,,,,,,,white,triangle
162.0,5.0,1.0,1.0,2.0,2.0,277.8384170001118,1.0,1.0,phase_1,,,,,,,,,,,,,gray,circle
325.0,6.0,2.0,1.0,3.0,3.0,342.6542879999488,1.0,1.0,phase_1,,,,,,,,,,,,,cyan,square
1299.0,4.0,4.0,0.0,2.0,2.0,304.5687619999171,1.0,1.0,phase_1,,,,,,,,,,,,,magenta,cross
144.0,1.0,1.0,0.0,2.0,2.0,333.1903230000534,1.0,1.0,phase_1,,,,,,,,,,,,,yellow,hexagon
1282.0,8.0,4.0,1.0,4.0,4.0,341.8269910000617,1.0,2.0,phase_1,,,,,,,,,,,,,orange,diamond
142.0,1.0,1.0,0.0,3.0,3.0,388.4137699999428,1.0,1.0,phase_1,,,,,,,,,,,,,yellow,hexagon
1307.0,4.0,4.0,0.0,4.0,4.0,351.6119779999371,1.0,1.0,phase_1,,,,,,,,,,,,,magenta,cross
0.0,4.0,0.0,0.0,3.0,3.0,388.8658699997904,1.0,1.0,phase_1,,,,,,,,,,,,,magenta,cross
311.0,6.0,2.0,1.0,1.0,1.0,313.6633830001756,1.0,2.0,phase_1,,,,,,,,,,,,,cyan,square
0.0,4.0,0.0,0.0,2.0,2.0,323.492288000125,1.0,1.0,phase_1,,,,,,,,,,,,,magenta,cross
0.0,3.0,0.0,0.0,1.0,1.0,305.3097590000106,1.0,1.0,phase_1,,,,,,,,,,,,,blue,flipped triangle
158.0,1.0,1.0,0.0,3.0,3.0,333.2943079999495,1.0,1.0,phase_1,,,,,,,,,,,,,yellow,hexagon
0.0,7.0,0.0,1.0,4.0,4.0,351.3444610000533,1.0,1.0,phase_1,,,,,,,,,,,,,white,triangle
1320.0,8.0,4.0,1.0,3.0,3.0,315.1932319999559,1.0,1.0,phase_1,,,,,,,,,,,,,orange,diamond
305.0,6.0,2.0,1.0,3.0,3.0,342.1619610001016,1.0,1.0,phase_1,,,,,,,,,,,,,cyan,square
323.0,6.0,2.0,1.0,3.0,3.0,332.8046419999282,1.0,1.0,phase_1,,,,,,,,,,,,,cyan,square
0.0,5.0,0.0,1.0,4.0,4.0,351.5107519999674,1.0,1.0,phase_1,,,,,,,,,,,,,gray,circle
171.0,1.0,1.0,0.0,2.0,2.0,288.3963409999523,1.0,1.0,phase_1,,,,,,,,,,,,,yellow,hexagon
0.0,5.0,0.0,1.0,3.0,3.0,324.0724290001253,1.0,1.0,phase_1,,,,,,,,,,,,,gray,circle
1312.0,4.0,4.0,0.0,2.0,2.0,352.9460490001384,1.0,1.0,phase_1,,,,,,,,,,,,,magenta,cross
642.0,7.0,3.0,1.0,2.0,2.0,305.0610360000974,1.0,1.0,phase_1,,,,,,,,,,,,,white,triangle
323.0,6.0,2.0,1.0,2.0,2.0,258.7355480000042,1.0,1.0,phase_1,,,,,,,,,,,,,cyan,square
322.0,6.0,2.0,1.0,1.0,1.0,304.4602029999623,1.0,1.0,phase_1,,,,,,,,,,,,,cyan,square
641.0,7.0,3.0,1.0,1.0,1.0,343.4057019999272,1.0,1.0,phase_1,,,,,,,,,,,,,white,triangle
0.0,4.0,0.0,0.0,3.0,3.0,389.1889139999875,1.0,1.0,phase_1,,,,,,,,,,,,,magenta,cross
0.0,8.0,0.0,1.0,4.0,4.0,324.2618679998941,1.0,1.0,phase_1,,,,,,,,,,,,,orange,diamond
1284.0,4.0,4.0,0.0,3.0,3.0,332.9185969998889,1.0,1.0,phase_1,,,,,,,,,,,,,magenta,cross
350.0,6.0,2.0,1.0,2.0,2.0,351.1321640000915,1.0,1.0,phase_1,,,,,,,,,,,,,cyan,square
668.0,7.0,3.0,1.0,4.0,4.0,397.7690110000367,1.0,1.0,phase_1,,,,,,,,,,,,,white,triangle
1319.0,4.0,4.0,0.0,1.0,1.0,396.8532000001232,1.0,1.0,phase_1,,,,,,,,,,,,,magenta,cross
656.0,3.0,3.0,0.0,1.0,1.0,360.4177619999973,1.0,1.0,phase_1,,,,,,,,,,,,,blue,flipped triangle
641.0,7.0,3.0,1.0,4.0,4.0,370.4813209999429,1.0,1.0,phase_1,,,,,,,,,,,,,white,triangle
674.0,3.0,3.0,0.0,4.0,4.0,342.27549000002,1.0,1.0,phase_1,,,,,,,,,,,,,blue,flipped triangle
1298.0,8.0,4.0,1.0,4.0,4.0,314.4289499998649,1.0,1.0,phase_1,,,,,,,,,,,,,orange,diamond
321.0,2.0,2.0,0.0,2.0,2.0,333.1797629998618,1.0,1.0,phase_1,,,,,,,,,,,,,green,I
180.0,5.0,1.0,1.0,3.0,3.0,379.2811369999072,1.0,1.0,phase_1,,,,,,,,,,,,,gray,circle
315.0,6.0,2.0,1.0,3.0,3.0,323.681224999973,1.0,1.0,phase_1,,,,,,,,,,,,,cyan,square
0.0,4.0,0.0,0.0,2.0,2.0,397.7673330000471,1.0,1.0,phase_1,,,,,,,,,,,,,magenta,cross
1276.0,8.0,4.0,1.0,2.0,2.0,333.3780020000176,1.0,1.0,phase_1,,,,,,,,,,,,,orange,diamond
167.0,5.0,1.0,1.0,1.0,1.0,322.9790750001484,1.0,1.0,phase_1,,,,,,,,,,,,,gray,circle
0.0,7.0,0.0,1.0,3.0,3.0,304.9869930000568,1.0,1.0,phase_1,,,,,,,,,,,,,white,triangle
176.0,5.0,1.0,1.0,1.0,1.0,380.1485100000263,2.0,1.0,phase_1,,,,,,,,,,,,,gray,circle
656.0,3.0,3.0,0.0,1.0,1.0,288.4937429998899,2.0,1.0,phase_1,,,,,,,,,,,,,blue,flipped triangle
1321.0,4.0,4.0,0.0,4.0,4.0,363.9947890001167,2.0,1.0,phase_1,,,,,,,,,,,,,magenta,cross
656.0,3.0,3.0,0.0,3.0,3.0,352.7108279999993,2.0,1.0,phase_1,,,,,,,,,,,,,blue,flipped triangle
0.0,6.0,0.0,1.0,3.0,3.0,315.0665609998668,2.0,1.0,phase_1,,,,,,,,,,,,,cyan,square
0.0,3.0,0.0,0.0,4.0,4.0,342.3294469998836,2.0,1.0,phase_1,,,,,,,,,,,,,blue,flipped triangle
1308.0,4.0,4.0,0.0,3.0,3.0,306.1121109999476,2.0,1.0,phase_1,,,,,,,,,,,,,magenta,cross
0.0,3.0,0.0,0.0,4.0,4.0,314.4808299998658,2.0,1.0,phase_1,,,,,,,,,,,,,blue,flipped triangle
631.0,3.0,3.0,0.0,4.0,4.0,397.4999140000363,2.0,1.0,phase_1,,,,,,,,,,,,,blue,flipped triangle
349.0,6.0,2.0,1.0,3.0,3.0,370.1491459999033,2.0,1.0,phase_1,,,,,,,,,,,,,cyan,square
171.0,5.0,1.0,1.0,3.0,3.0,388.5802140000578,2.0,1.0,phase_1,,,,,,,,,,,,,gray,circle
328.0,2.0,2.0,0.0,4.0,4.0,306.4872190000187,2.0,1.0,phase_1,,,,,,,,,,,,,green,I
0.0,4.0,0.0,0.0,1.0,1.0,396.9943629999761,2.0,1.0,phase_1,,,,,,,,,,,,,magenta,cross
0.0,7.0,0.0,1.0,3.0,3.0,323.6392850001266,2.0,1.0,phase_1,,,,,,,,,,,,,white,triangle
1307.0,8.0,4.0,1.0,4.0,4.0,296.2796150000031,2.0,1.0,phase_1,,,,,,,,,,,,,orange,diamond
0.0,3.0,0.0,0.0,4.0,4.0,371.0444289999941,2.0,1.0,phase_1,,,,,,,,,,,,,blue,flipped triangle
631.0,7.0,3.0,1.0,4.0,4.0,296.7234810000718,2.0,1.0,phase_1,,,,,,,,,,,,,white,triangle
668.0,3.0,3.0,0.0,4.0,4.0,333.2909340001606,2.0,1.0,phase_1,,,,,,,,,,,,,blue,flipped triangle
0.0,5.0,0.0,1.0,1.0,1.0,391.273012000056,2.0,1.0,phase_1,,,,,,,,,,,,,gray,circle
314.0,2.0,2.0,0.0,2.0,2.0,333.1455449999794,2.0,1.0,phase_1,,,,,,,,,,,,,green,I
180.0,1.0,1.0,0.0,3.0,3.0,305.4613030001292,2.0,1.0,phase_1,,,,,,,,,,,,,yellow,hexagon
335.0,2.0,2.0,0.0,2.0,2.0,297.3805960000391,2.0,1.0,phase_1,,,,,,,,,,,,,green,I
167.0,1.0,1.0,0.0,1.0,1.0,305.7590599999003,2.0,1.0,phase_1,,,,,,,,,,,,,yellow,hexagon
629.0,3.0,3.0,0.0,4.0,4.0,388.4927469998729,2.0,1.0,phase_1,,,,,,,,,,,,,blue,flipped triangle
144.0,1.0,1.0,0.0,2.0,2.0,351.0959119998915,2.0,1.0,phase_1,,,,,,,,,,,,,yellow,hexagon
1311.0,8.0,4.0,1.0,3.0,3.0,387.981093999997,2.0,1.0,phase_1,,,,,,,,,,,,,orange,diamond
0.0,2.0,0.0,0.0,4.0,4.0,325.1792940000086,2.0,1.0,phase_1,,,,,,,,,,,,,green,I
1303.0,8.0,4.0,1.0,4.0,4.0,352.2656240002106,2.0,1.0,phase_1,,,,,,,,,,,,,orange,diamond
0.0,6.0,0.0,1.0,3.0,3.0,344.727389000127,2.0,1.0,phase_1,,,,,,,,,,,,,cyan,square
1315.0,8.0,4.0,1.0,1.0,1.0,379.0771129999939,2.0,1.0,phase_1,,,,,,,,,,,,,orange,diamond
339.0,6.0,2.0,1.0,1.0,1.0,305.6030620000456,2.0,1.0,phase_1,,,,,,,,,,,,,cyan,square
159.0,1.0,1.0,0.0,1.0,1.0,333.3688619998156,2.0,1.0,phase_1,,,,,,,,,,,,,yellow,hexagon
0.0,5.0,0.0,1.0,3.0,3.0,351.8006920000971,2.0,1.0,phase_1,,,,,,,,,,,,,gray,circle
1280.0,8.0,4.0,1.0,1.0,1.0,315.3650110000399,2.0,1.0,phase_1,,,,,,,,,,,,,orange,diamond
337.0,6.0,2.0,1.0,1.0,1.0,295.132563999914,2.0,1.0,phase_1,,,,,,,,,,,,,cyan,square
159.0,5.0,1.0,1.0,3.0,3.0,424.3377150000924,2.0,1.0,phase_1,,,,,,,,,,,,,gray,circle
650.0,7.0,3.0,1.0,3.0,3.0,295.5683659999977,2.0,1.0,phase_1,,,,,,,,,,,,,white,triangle
633.0,3.0,3.0,0.0,3.0,3.0,314.3627350000315,2.0,1.0,phase_1,,,,,,,,,,,,,blue,flipped triangle
0.0,8.0,0.0,1.0,2.0,2.0,406.8699379999998,2.0,1.0,phase_1,,,,,,,,,,,,,orange,diamond
0.0,4.0,0.0,0.0,4.0,4.0,388.254679000056,2.0,1.0,phase_1,,,,,,,,,,,,,magenta,cross
1312.0,8.0,4.0,1.0,4.0,4.0,360.8993899999859,2.0,1.0,phase_1,,,,,,,,,,,,,orange,diamond
1276.0,4.0,4.0,0.0,3.0,3.0,358.6029600000984,2.0,1.0,phase_1,,,,,,,,,,,,,magenta,cross
180.0,1.0,1.0,0.0,4.0,4.0,368.6161370001173,2.0,1.0,phase_1,,,,,,,,,,,,,yellow,hexagon
1301.0,8.0,4.0,1.0,4.0,4.0,351.1314549998587,2.0,1.0,phase_1,,,,,,,,,,,,,orange,diamond
625.0,7.0,3.0,1.0,4.0,4.0,351.8242059999465,2.0,1.0,phase_1,,,,,,,,,,,,,white,triangle
343.0,6.0,2.0,1.0,3.0,3.0,306.3194900000781,2.0,1.0,phase_1,,,,,,,,,,,,,cyan,square
656.0,7.0,3.0,1.0,2.0,2.0,351.0745030000635,2.0,1.0,phase_1,,,,,,,,,,,,,white,triangle
645.0,7.0,3.0,1.0,2.0,2.0,304.5203369999854,2.0,1.0,phase_1,,,,,,,,,,,,,white,triangle
1280.0,8.0,4.0,1.0,2.0,2.0,378.0191890000424,2.0,1.0,phase_1,,,,,,,,,,,,,orange,diamond
323.0,2.0,2.0,0.0,1.0,1.0,369.8183609999432,2.0,1.0,phase_1,,,,,,,,,,,,,green,I
143.0,1.0,1.0,0.0,2.0,2.0,351.830037000127,2.0,1.0,phase_1,,,,,,,,,,,,,yellow,hexagon
325.0,2.0,2.0,0.0,3.0,3.0,324.5562759998392,2.0,1.0,phase_1,,,,,,,,,,,,,green,I
144.0,5.0,1.0,1.0,4.0,4.0,379.9542829999609,2.0,1.0,phase_1,,,,,,,,,,,,,gray,circle
0.0,5.0,0.0,1.0,1.0,1.0,352.1373450000737,2.0,1.0,phase_1,,,,,,,,,,,,,gray,circle
309.0,2.0,2.0,0.0,1.0,1.0,342.2851959999207,2.0,1.0,phase_1,,,,,,,,,,,,,green,I
162.0,1.0,1.0,0.0,3.0,3.0,324.0849960000105,2.0,1.0,phase_1,,,,,,,,,,,,,yellow,hexagon
339.0,6.0,2.0,1.0,1.0,1.0,389.4588359999034,2.0,1.0,phase_1,,,,,,,,,,,,,cyan,square
649.0,3.0,3.0,0.0,1.0,1.0,361.3839950000965,2.0,1.0,phase_1,,,,,,,,,,,,,blue,flipped triangle
656.0,7.0,3.0,1.0,4.0,4.0,342.6100770000175,2.0,1.0,phase_1,,,,,,,,,,,,,white,triangle
661.0,3.0,3.0,0.0,3.0,3.0,379.4827530000475,2.0,1.0,phase_1,,,,,,,,,,,,,blue,flipped triangle
636.0,3.0,3.0,0.0,4.0,4.0,333.6772650000057,2.0,1.0,phase_1,,,,,,,,,,,,,blue,flipped triangle
314.0,2.0,2.0,0.0,3.0,3.0,332.8164639999613,2.0,1.0,phase_1,,,,,,,,,,,,,green,I
0.0,2.0,0.0,0.0,3.0,3.0,324.2450239999925,2.0,1.0,phase_1,,,,,,,,,,,,,green,I
1309.0,4.0,4.0,0.0,2.0,2.0,332.7638650000608,2.0,1.0,phase_1,,,,,,,,,,,,,magenta,cross
157.0,1.0,1.0,0.0,3.0,3.0,351.5407170000344,2.0,1.0,phase_1,,,,,,,,,,,,,yellow,hexagon
302.0,6.0,2.0,1.0,2.0,2.0,332.1622989999468,2.0,1.0,phase_1,,,,,,,,,,,,,cyan,square
0.0,6.0,0.0,1.0,4.0,4.0,342.0998969997981,2.0,1.0,phase_1,,,,,,,,,,,,,cyan,square
315.0,6.0,2.0,1.0,4.0,4.0,324.1478929999175,2.0,1.0,phase_1,,,,,,,,,,,,,cyan,square
652.0,7.0,3.0,1.0,2.0,2.0,342.6960400001917,2.0,1.0,phase_1,,,,,,,,,,,,,white,triangle
0.0,8.0,0.0,1.0,3.0,3.0,313.6964230000103,2.0,1.0,phase_1,,,,,,,,,,,,,orange,diamond
156.0,1.0,1.0,0.0,4.0,4.0,323.3600139999453,2.0,1.0,phase_1,,,,,,,,,,,,,yellow,hexagon
659.0,7.0,3.0,1.0,1.0,1.0,332.6638859998638,2.0,1.0,phase_1,,,,,,,,,,,,,white,triangle
1295.0,4.0,4.0,0.0,1.0,1.0,352.2383839999747,2.0,1.0,phase_1,,,,,,,,,,,,,magenta,cross
344.0,6.0,2.0,1.0,3.0,3.0,408.23978499997787,2.0,1.0,phase_1,,,,,,,,,,,,,cyan,square
329.0,6.0,2.0,1.0,4.0,4.0,360.9404630001336,2.0,1.0,phase_1,,,,,,,,,,,,,cyan,square
629.0,7.0,3.0,1.0,1.0,1.0,368.9486539999507,2.0,1.0,phase_1,,,,,,,,,,,,,white,triangle
1290.0,4.0,4.0,0.0,1.0,1.0,332.3577389999173,2.0,1.0,phase_1,,,,,,,,,,,,,magenta,cross
158.0,1.0,1.0,0.0,4.0,4.0,389.2650459999913,2.0,1.0,phase_1,,,,,,,,,,,,,yellow,hexagon
0.0,2.0,0.0,0.0,4.0,4.0,342.9014880000522,2.0,1.0,phase_1,,,,,,,,,,,,,green,I
148.0,5.0,1.0,1.0,4.0,4.0,373.3346649999021,2.0,1.0,phase_1,,,,,,,,,,,,,gray,circle
0.0,2.0,0.0,0.0,2.0,2.0,424.5245929998873,2.0,1.0,phase_1,,,,,,,,,,,,,green,I
185.0,1.0,1.0,0.0,4.0,4.0,361.6048359999695,2.0,1.0,phase_1,,,,,,,,,,,,,yellow,hexagon
165.0,5.0,1.0,1.0,4.0,4.0,370.5442519999451,2.0,1.0,phase_1,,,,,,,,,,,,,gray,circle
1318.0,8.0,4.0,1.0,3.0,3.0,362.3815010000726,2.0,1.0,phase_1,,,,,,,,,,,,,orange,diamond
311.0,2.0,2.0,0.0,4.0,4.0,361.8669370000589,2.0,1.0,phase_1,,,,,,,,,,,,,green,I
327.0,6.0,2.0,1.0,3.0,3.0,333.4548580000955,2.0,1.0,phase_1,,,,,,,,,,,,,cyan,square
314.0,6.0,2.0,1.0,4.0,4.0,398.6262769999484,2.0,1.0,phase_1,,,,,,,,,,,,,cyan,square
651.0,3.0,3.0,0.0,2.0,2.0,351.3212310001563,2.0,1.0,phase_1,,,,,,,,,,,,,blue,flipped triangle
0.0,2.0,0.0,0.0,3.0,3.0,314.5256690002043,2.0,1.0,phase_1,,,,,,,,,,,,,green,I
140.0,5.0,1.0,1.0,4.0,4.0,370.3280209999775,2.0,1.0,phase_1,,,,,,,,,,,,,gray,circle
651.0,7.0,3.0,1.0,3.0,3.0,370.9852289998707,2.0,1.0,phase_1,,,,,,,,,,,,,white,triangle
1299.0,8.0,4.0,1.0,1.0,1.0,407.5852450000639,2.0,1.0,phase_1,,,,,,,,,,,,,orange,diamond
346.0,6.0,2.0,1.0,2.0,2.0,333.7410539998018,2.0,1.0,phase_1,,,,,,,,,,,,,cyan,square
1291.0,4.0,4.0,0.0,2.0,2.0,305.1141860000825,2.0,1.0,phase_1,,,,,,,,,,,,,magenta,cross
1311.0,4.0,4.0,0.0,2.0,2.0,315.8575970001038,2.0,1.0,phase_1,,,,,,,,,,,,,magenta,cross
1295.0,8.0,4.0,1.0,1.0,1.0,362.1929270000237,2.0,1.0,phase_1,,,,,,,,,,,,,orange,diamond
178.0,5.0,1.0,1.0,1.0,1.0,333.8695449999704,2.0,1.0,phase_1,,,,,,,,,,,,,gray,circle
0.0,8.0,0.0,1.0,1.0,1.0,333.5089119998429,2.0,1.0,phase_1,,,,,,,,,,,,,orange,diamond
172.0,1.0,1.0,0.0,3.0,3.0,343.8213160000032,2.0,2.0,phase_1,,,,,,,,,,,,,yellow,hexagon
0.0,5.0,0.0,1.0,1.0,1.0,388.1943930000489,2.0,1.0,phase_1,,,,,,,,,,,,,gray,circle
172.0,5.0,1.0,1.0,4.0,4.0,407.2002079999492,3.0,1.0,phase_1,,,,,,,,,,,,,gray,circle
674.0,7.0,3.0,1.0,1.0,1.0,351.1769879999065,3.0,1.0,phase_1,,,,,,,,,,,,,white,triangle
165.0,1.0,1.0,0.0,4.0,4.0,333.3259519999956,3.0,1.0,phase_1,,,,,,,,,,,,,yellow,hexagon
0.0,6.0,0.0,1.0,1.0,1.0,296.8363620000218,3.0,1.0,phase_1,,,,,,,,,,,,,cyan,square
652.0,3.0,3.0,0.0,2.0,2.0,333.6099949999607,3.0,1.0,phase_1,,,,,,,,,,,,,blue,flipped triangle
311.0,2.0,2.0,0.0,4.0,4.0,463.1646529999216,3.0,1.0,phase_1,,,,,,,,,,,,,green,I
176.0,1.0,1.0,0.0,3.0,3.0,398.0608479998864,3.0,1.0,phase_1,,,,,,,,,,,,,yellow,hexagon
646.0,7.0,3.0,1.0,1.0,1.0,370.1159249999364,3.0,1.0,phase_1,,,,,,,,,,,,,white,triangle
343.0,2.0,2.0,0.0,1.0,1.0,371.1474130000169,3.0,1.0,phase_1,,,,,,,,,,,,,green,I
167.0,5.0,1.0,1.0,1.0,1.0,417.8995500001292,3.0,1.0,phase_1,,,,,,,,,,,,,gray,circle
337.0,6.0,2.0,1.0,4.0,4.0,379.7052449999682,3.0,1.0,phase_1,,,,,,,,,,,,,cyan,square
0.0,8.0,0.0,1.0,1.0,1.0,323.6229600001934,3.0,1.0,phase_1,,,,,,,,,,,,,orange,diamond
0.0,2.0,0.0,0.0,1.0,1.0,352.3269560000699,3.0,1.0,phase_1,,,,,,,,,,,,,green,I
335.0,6.0,2.0,1.0,2.0,2.0,361.7428410000229,3.0,1.0,phase_1,,,,,,,,,,,,,cyan,square
646.0,3.0,3.0,0.0,4.0,4.0,361.2245100000564,3.0,1.0,phase_1,,,,,,,,,,,,,blue,flipped triangle
654.0,7.0,3.0,1.0,1.0,1.0,313.462286999993,3.0,1.0,phase_1,,,,,,,,,,,,,white,triangle
148.0,1.0,1.0,0.0,1.0,1.0,332.7946719998635,3.0,1.0,phase_1,,,,,,,,,,,,,yellow,hexagon
0.0,1.0,0.0,0.0,2.0,2.0,379.1452989999015,3.0,1.0,phase_1,,,,,,,,,,,,,yellow,hexagon
180.0,5.0,1.0,1.0,3.0,3.0,407.4626440001339,3.0,1.0,phase_1,,,,,,,,,,,,,gray,circle
145.0,1.0,1.0,0.0,2.0,2.0,368.8008729998273,3.0,1.0,phase_1,,,,,,,,,,,,,yellow,hexagon
632.0,3.0,3.0,0.0,1.0,1.0,305.1806260000376,3.0,1.0,phase_1,,,,,,,,,,,,,blue,flipped triangle
137.0,1.0,1.0,0.0,2.0,2.0,313.7839000000895,3.0,1.0,phase_1,,,,,,,,,,,,,yellow,hexagon
328.0,6.0,2.0,1.0,2.0,2.0,314.1634179999073,3.0,1.0,phase_1,,,,,,,,,,,,,cyan,square
1276.0,4.0,4.0,0.0,4.0,4.0,388.7793030000921,3.0,1.0,phase_1,,,,,,,,,,,,,magenta,cross
634.0,3.0,3.0,0.0,4.0,4.0,399.0481929999987,3.0,1.0,phase_1,,,,,,,,,,,,,blue,flipped triangle
145.0,5.0,1.0,1.0,1.0,1.0,388.6396100001548,3.0,1.0,phase_1,,,,,,,,,,,,,gray,circle
167.0,1.0,1.0,0.0,3.0,3.0,360.328576000029,3.0,1.0,phase_1,,,,,,,,,,,,,yellow,hexagon
170.0,5.0,1.0,1.0,3.0,3.0,370.6277179999233,3.0,1.0,phase_1,,,,,,,,,,,,,gray,circle
1312.0,8.0,4.0,1.0,2.0,2.0,416.2805779999416,3.0,1.0,phase_1,,,,,,,,,,,,,orange,diamond
0.0,3.0,0.0,0.0,2.0,2.0,379.5198120001259,3.0,1.0,phase_1,,,,,,,,,,,,,blue,flipped triangle
1282.0,8.0,4.0,1.0,4.0,4.0,351.55655199992,3.0,1.0,phase_1,,,,,,,,,,,,,orange,diamond
315.0,2.0,2.0,0.0,2.0,2.0,341.5074179999919,3.0,1.0,phase_1,,,,,,,,,,,,,green,I
1288.0,4.0,4.0,0.0,1.0,1.0,351.6124829998261,3.0,1.0,phase_1,,,,,,,,,,,,,magenta,cross
666.0,3.0,3.0,0.0,4.0,4.0,371.0879449999993,3.0,1.0,phase_1,,,,,,,,,,,,,blue,flipped triangle
0.0,3.0,0.0,0.0,4.0,4.0,360.767105999912,3.0,1.0,phase_1,,,,,,,,,,,,,blue,flipped triangle
1318.0,4.0,4.0,0.0,4.0,4.0,333.6236269997243,3.0,1.0,phase_1,,,,,,,,,,,,,magenta,cross
1288.0,8.0,4.0,1.0,4.0,4.0,352.929536999909,3.0,1.0,phase_1,,,,,,,,,,,,,orange,diamond
1303.0,8.0,4.0,1.0,1.0,1.0,417.3289169998497,3.0,1.0,phase_1,,,,,,,,,,,,,orange,diamond
0.0,3.0,0.0,0.0,3.0,3.0,435.5232970001452,3.0,1.0,phase_1,,,,,,,,,,,,,blue,flipped triangle
661.0,7.0,3.0,1.0,3.0,3.0,396.7332590000296,3.0,1.0,phase_1,,,,,,,,,,,,,white,triangle
0.0,3.0,0.0,0.0,2.0,2.0,324.4941769999059,3.0,1.0,phase_1,,,,,,,,,,,,,blue,flipped triangle
633.0,7.0,3.0,1.0,2.0,2.0,360.723581000002,3.0,1.0,phase_1,,,,,,,,,,,,,white,triangle
661.0,3.0,3.0,0.0,3.0,3.0,352.5063529996259,3.0,1.0,phase_1,,,,,,,,,,,,,blue,flipped triangle
642.0,3.0,3.0,0.0,1.0,1.0,313.57181400017,3.0,1.0,phase_1,,,,,,,,,,,,,blue,flipped triangle
645.0,3.0,3.0,0.0,4.0,4.0,360.8676499998182,3.0,1.0,phase_1,,,,,,,,,,,,,blue,flipped triangle
1288.0,8.0,4.0,1.0,1.0,1.0,333.4974449999208,3.0,1.0,phase_1,,,,,,,,,,,,,orange,diamond
315.0,2.0,2.0,0.0,2.0,2.0,296.4133679997758,3.0,1.0,phase_1,,,,,,,,,,,,,green,I
157.0,5.0,1.0,1.0,1.0,1.0,349.9154020000787,3.0,1.0,phase_1,,,,,,,,,,,,,gray,circle
327.0,2.0,2.0,0.0,1.0,1.0,414.9654490001921,3.0,1.0,phase_1,,,,,,,,,,,,,green,I
0.0,3.0,0.0,0.0,2.0,2.0,267.3375449999184,3.0,1.0,phase_1,,,,,,,,,,,,,blue,flipped triangle
158.0,5.0,1.0,1.0,4.0,4.0,424.3929889998981,3.0,1.0,phase_1,,,,,,,,,,,,,gray,circle
1301.0,4.0,4.0,0.0,1.0,1.0,379.3059319996246,3.0,1.0,phase_1,,,,,,,,,,,,,magenta,cross
0.0,7.0,0.0,1.0,3.0,3.0,369.3649980000373,3.0,1.0,phase_1,,,,,,,,,,,,,white,triangle
651.0,3.0,3.0,0.0,2.0,2.0,379.0329409998776,3.0,1.0,phase_1,,,,,,,,,,,,,blue,flipped triangle
674.0,7.0,3.0,1.0,1.0,1.0,304.5533630001955,3.0,1.0,phase_1,,,,,,,,,,,,,white,triangle
0.0,7.0,0.0,1.0,4.0,4.0,314.277254999979,3.0,1.0,phase_1,,,,,,,,,,,,,white,triangle
641.0,3.0,3.0,0.0,3.0,3.0,332.7526059997581,3.0,1.0,phase_1,,,,,,,,,,,,,blue,flipped triangle
346.0,6.0,2.0,1.0,1.0,1.0,296.5747890002603,3.0,1.0,phase_1,,,,,,,,,,,,,cyan,square
1301.0,4.0,4.0,0.0,2.0,2.0,314.0493070000048,3.0,1.0,phase_1,,,,,,,,,,,,,magenta,cross
310.0,6.0,2.0,1.0,4.0,4.0,360.6586999999308,3.0,1.0,phase_1,,,,,,,,,,,,,cyan,square
645.0,7.0,3.0,1.0,4.0,4.0,361.1317320001035,3.0,1.0,phase_1,,,,,,,,,,,,,white,triangle
184.0,5.0,1.0,1.0,4.0,4.0,333.4366670001145,3.0,1.0,phase_1,,,,,,,,,,,,,gray,circle
651.0,7.0,3.0,1.0,3.0,3.0,407.3591900000792,3.0,1.0,phase_1,,,,,,,,,,,,,white,triangle
140.0,1.0,1.0,0.0,1.0,1.0,259.9821779999729,3.0,1.0,phase_1,,,,,,,,,,,,,yellow,hexagon
340.0,2.0,2.0,0.0,1.0,1.0,370.5029490001834,3.0,1.0,phase_1,,,,,,,,,,,,,green,I
0.0,8.0,0.0,1.0,2.0,2.0,322.8322690001732,3.0,1.0,phase_1,,,,,,,,,,,,,orange,diamond
165.0,1.0,1.0,0.0,1.0,1.0,334.1417870001351,3.0,1.0,phase_1,,,,,,,,,,,,,yellow,hexagon
0.0,7.0,0.0,1.0,1.0,1.0,323.7303000000793,3.0,1.0,phase_1,,,,,,,,,,,,,white,triangle
185.0,5.0,1.0,1.0,3.0,3.0,398.5671849995924,3.0,2.0,phase_1,,,,,,,,,,,,,gray,circle
631.0,7.0,3.0,1.0,4.0,4.0,323.856687999978,3.0,1.0,phase_1,,,,,,,,,,,,,white,triangle
1289.0,8.0,4.0,1.0,3.0,3.0,380.0683959998423,3.0,1.0,phase_1,,,,,,,,,,,,,orange,diamond
637.0,3.0,3.0,0.0,2.0,2.0,342.238922999968,3.0,1.0,phase_1,,,,,,,,,,,,,blue,flipped triangle
641.0,3.0,3.0,0.0,3.0,3.0,342.228126000009,3.0,1.0,phase_1,,,,,,,,,,,,,blue,flipped triangle
305.0,2.0,2.0,0.0,1.0,1.0,296.5084799998294,3.0,1.0,phase_1,,,,,,,,,,,,,green,I
1317.0,8.0,4.0,1.0,3.0,3.0,397.6239470002838,3.0,1.0,phase_1,,,,,,,,,,,,,orange,diamond
321.0,6.0,2.0,1.0,2.0,2.0,372.3105079998277,3.0,1.0,phase_1,,,,,,,,,,,,,cyan,square
666.0,7.0,3.0,1.0,2.0,2.0,369.7566709997772,3.0,1.0,phase_1,,,,,,,,,,,,,white,triangle
642.0,3.0,3.0,0.0,3.0,3.0,407.7686890000223,3.0,1.0,phase_1,,,,,,,,,,,,,blue,flipped triangle
637.0,7.0,3.0,1.0,1.0,1.0,295.0182239997048,3.0,1.0,phase_1,,,,,,,,,,,,,white,triangle
163.0,5.0,1.0,1.0,3.0,3.0,370.5807559999812,3.0,1.0,phase_1,,,,,,,,,,,,,gray,circle
311.0,6.0,2.0,1.0,2.0,2.0,303.7568409999949,3.0,1.0,phase_1,,,,,,,,,,,,,cyan,square
0.0,5.0,0.0,1.0,2.0,2.0,314.3372380000073,3.0,1.0,phase_1,,,,,,,,,,,,,gray,circle
1311.0,4.0,4.0,0.0,3.0,3.0,359.4913160000033,3.0,1.0,phase_1,,,,,,,,,,,,,magenta,cross
661.0,7.0,3.0,1.0,2.0,2.0,306.484527000066,3.0,1.0,phase_1,,,,,,,,,,,,,white,triangle
158.0,5.0,1.0,1.0,2.0,2.0,325.5462729998726,3.0,1.0,phase_1,,,,,,,,,,,,,gray,circle
0.0,2.0,0.0,0.0,3.0,3.0,341.9016480002028,3.0,1.0,phase_1,,,,,,,,,,,,,green,I
1280.0,4.0,4.0,0.0,4.0,4.0,351.5983879997293,3.0,1.0,phase_1,,,,,,,,,,,,,magenta,cross
1294.0,8.0,4.0,1.0,1.0,1.0,361.60365700015967,3.0,1.0,phase_1,,,,,,,,,,,,,orange,diamond
662.0,3.0,3.0,0.0,2.0,2.0,332.8366770001594,3.0,1.0,phase_1,,,,,,,,,,,,,blue,flipped triangle
332.0,6.0,2.0,1.0,4.0,4.0,323.5376319998977,3.0,1.0,phase_1,,,,,,,,,,,,,cyan,square
0.0,5.0,0.0,1.0,3.0,3.0,389.3828079999366,3.0,1.0,phase_1,,,,,,,,,,,,,gray,circle
645.0,3.0,3.0,0.0,3.0,3.0,370.0956829998176,3.0,1.0,phase_1,,,,,,,,,,,,,blue,flipped triangle
346.0,2.0,2.0,0.0,4.0,4.0,352.3937240001942,3.0,1.0,phase_1,,,,,,,,,,,,,green,I
172.0,1.0,1.0,0.0,4.0,4.0,305.4771240003902,3.0,1.0,phase_1,,,,,,,,,,,,,yellow,hexagon
1299.0,4.0,4.0,0.0,4.0,4.0,296.2613280001278,3.0,1.0,phase_1,,,,,,,,,,,,,magenta,cross
642.0,7.0,3.0,1.0,4.0,4.0,341.9339610004499,3.0,1.0,phase_1,,,,,,,,,,,,,white,triangle
309.0,6.0,2.0,1.0,3.0,3.0,388.6481009999443,3.0,1.0,phase_1,,,,,,,,,,,,,cyan,square
155.0,5.0,1.0,1.0,3.0,3.0,332.5175770000896,3.0,1.0,phase_1,,,,,,,,,,,,,gray,circle
159.0,1.0,1.0,0.0,1.0,1.0,305.343824999909,3.0,1.0,phase_1,,,,,,,,,,,,,yellow,hexagon
305.0,2.0,2.0,0.0,3.0,3.0,332.7100800001972,3.0,1.0,phase_1,,,,,,,,,,,,,green,I
0.0,2.0,0.0,0.0,2.0,2.0,389.6989129998474,4.0,1.0,phase_1,,,,,,,,,,,,,green,I
1280.0,4.0,4.0,0.0,3.0,3.0,277.1677330001694,4.0,1.0,phase_1,,,,,,,,,,,,,magenta,cross
673.0,3.0,3.0,0.0,3.0,3.0,379.6044700002312,4.0,1.0,phase_1,,,,,,,,,,,,,blue,flipped triangle
163.0,1.0,1.0,0.0,2.0,2.0,307.4627699998018,4.0,1.0,phase_1,,,,,,,,,,,,,yellow,hexagon
178.0,1.0,1.0,0.0,2.0,2.0,304.6772090001468,4.0,1.0,phase_1,,,,,,,,,,,,,yellow,hexagon
184.0,5.0,1.0,1.0,2.0,2.0,323.527102999833,4.0,1.0,phase_1,,,,,,,,,,,,,gray,circle
335.0,6.0,2.0,1.0,1.0,1.0,304.8475250002411,4.0,1.0,phase_1,,,,,,,,,,,,,cyan,square
317.0,2.0,2.0,0.0,4.0,4.0,353.0754170001273,4.0,1.0,phase_1,,,,,,,,,,,,,green,I
1301.0,8.0,4.0,1.0,1.0,1.0,314.5366620001368,4.0,1.0,phase_1,,,,,,,,,,,,,orange,diamond
1315.0,4.0,4.0,0.0,1.0,1.0,324.5681280000099,4.0,1.0,phase_1,,,,,,,,,,,,,magenta,cross
650.0,7.0,3.0,1.0,3.0,3.0,350.8421870001257,4.0,1.0,phase_1,,,,,,,,,,,,,white,triangle
0.0,1.0,0.0,0.0,1.0,1.0,324.0974579998692,4.0,1.0,phase_1,,,,,,,,,,,,,yellow,hexagon
0.0,3.0,0.0,0.0,3.0,3.0,351.1791810001341,4.0,1.0,phase_1,,,,,,,,,,,,,blue,flipped triangle
0.0,8.0,0.0,1.0,1.0,1.0,300.209089999953,4.0,1.0,phase_1,,,,,,,,,,,,,orange,diamond
143.0,1.0,1.0,0.0,3.0,3.0,332.6861350001309,4.0,1.0,phase_1,,,,,,,,,,,,,yellow,hexagon
187.0,1.0,1.0,0.0,1.0,1.0,277.8915339999912,4.0,1.0,phase_1,,,,,,,,,,,,,yellow,hexagon
139.0,1.0,1.0,0.0,2.0,2.0,305.1049450000391,4.0,1.0,phase_1,,,,,,,,,,,,,yellow,hexagon
163.0,5.0,1.0,1.0,2.0,2.0,378.6205629999131,4.0,1.0,phase_1,,,,,,,,,,,,,gray,circle
321.0,6.0,2.0,1.0,4.0,4.0,407.0432129997243,4.0,1.0,phase_1,,,,,,,,,,,,,cyan,square
1283.0,8.0,4.0,1.0,2.0,2.0,360.9650100002,4.0,1.0,phase_1,,,,,,,,,,,,,orange,diamond
0.0,6.0,0.0,1.0,4.0,4.0,315.1874559998759,4.0,1.0,phase_1,,,,,,,,,,,,,cyan,square
0.0,6.0,0.0,1.0,1.0,1.0,295.6319869999788,4.0,1.0,phase_1,,,,,,,,,,,,,cyan,square
0.0,1.0,0.0,0.0,1.0,1.0,342.6273569998557,4.0,1.0,phase_1,,,,,,,,,,,,,yellow,hexagon
339.0,2.0,2.0,0.0,3.0,3.0,389.5068439996976,4.0,1.0,phase_1,,,,,,,,,,,,,green,I
143.0,5.0,1.0,1.0,2.0,2.0,305.8188679997329,4.0,1.0,phase_1,,,,,,,,,,,,,gray,circle
179.0,5.0,1.0,1.0,4.0,4.0,351.075524999942,4.0,1.0,phase_1,,,,,,,,,,,,,gray,circle
1318.0,8.0,4.0,1.0,2.0,2.0,305.3561259998787,4.0,1.0,phase_1,,,,,,,,,,,,,orange,diamond
1284.0,8.0,4.0,1.0,3.0,3.0,351.710907999859,4.0,1.0,phase_1,,,,,,,,,,,,,orange,diamond
0.0,1.0,0.0,0.0,3.0,3.0,379.1714369999681,4.0,1.0,phase_1,,,,,,,,,,,,,yellow,hexagon
339.0,2.0,2.0,0.0,4.0,4.0,343.7485980002748,4.0,1.0,phase_1,,,,,,,,,,,,,green,I
625.0,3.0,3.0,0.0,1.0,1.0,378.5116369999741,4.0,1.0,phase_1,,,,,,,,,,,,,blue,flipped triangle
634.0,7.0,3.0,1.0,2.0,2.0,351.61548699989,4.0,1.0,phase_1,,,,,,,,,,,,,white,triangle
1308.0,8.0,4.0,1.0,2.0,2.0,333.66583399993027,4.0,1.0,phase_1,,,,,,,,,,,,,orange,diamond
0.0,8.0,0.0,1.0,1.0,1.0,324.343626999962,4.0,1.0,phase_1,,,,,,,,,,,,,orange,diamond
1289.0,4.0,4.0,0.0,3.0,3.0,361.5854360000412,4.0,1.0,phase_1,,,,,,,,,,,,,magenta,cross
340.0,2.0,2.0,0.0,3.0,3.0,341.7184929999166,4.0,1.0,phase_1,,,,,,,,,,,,,green,I
1291.0,8.0,4.0,1.0,3.0,3.0,333.1011720001697,4.0,1.0,phase_1,,,,,,,,,,,,,orange,diamond
666.0,3.0,3.0,0.0,1.0,1.0,304.8388819997853,4.0,1.0,phase_1,,,,,,,,,,,,,blue,flipped triangle
1306.0,8.0,4.0,1.0,3.0,3.0,405.3584590001264,4.0,1.0,phase_1,,,,,,,,,,,,,orange,diamond
674.0,3.0,3.0,0.0,3.0,3.0,360.4622130001189,4.0,1.0,phase_1,,,,,,,,,,,,,blue,flipped triangle
156.0,5.0,1.0,1.0,1.0,1.0,387.9117080000469,4.0,1.0,phase_1,,,,,,,,,,,,,gray,circle
346.0,2.0,2.0,0.0,4.0,4.0,343.919922999703,4.0,1.0,phase_1,,,,,,,,,,,,,green,I
142.0,5.0,1.0,1.0,2.0,2.0,379.1862930002025,4.0,1.0,phase_1,,,,,,,,,,,,,gray,circle
147.0,5.0,1.0,1.0,2.0,2.0,323.1772030003412,4.0,1.0,phase_1,,,,,,,,,,,,,gray,circle
315.0,2.0,2.0,0.0,1.0,1.0,323.6838140001055,4.0,1.0,phase_1,,,,,,,,,,,,,green,I
1303.0,4.0,4.0,0.0,2.0,2.0,334.1638269998839,4.0,1.0,phase_1,,,,,,,,,,,,,magenta,cross
149.0,5.0,1.0,1.0,1.0,1.0,342.6414479999948,4.0,1.0,phase_1,,,,,,,,,,,,,gray,circle
143.0,5.0,1.0,1.0,3.0,3.0,407.3647279997203,4.0,1.0,phase_1,,,,,,,,,,,,,gray,circle
1318.0,4.0,4.0,0.0,4.0,4.0,380.4003150003154,4.0,1.0,phase_1,,,,,,,,,,,,,magenta,cross
314.0,6.0,2.0,1.0,4.0,4.0,417.0765329999994,4.0,1.0,phase_1,,,,,,,,,,,,,cyan,square
1298.0,4.0,4.0,0.0,4.0,4.0,342.6670300000296,4.0,1.0,phase_1,,,,,,,,,,,,,magenta,cross
0.0,5.0,0.0,1.0,1.0,1.0,400.6388380003045,4.0,1.0,phase_1,,,,,,,,,,,,,gray,circle
139.0,5.0,1.0,1.0,2.0,2.0,278.282302000207,4.0,1.0,phase_1,,,,,,,,,,,,,gray,circle
0.0,6.0,0.0,1.0,4.0,4.0,370.4418269999223,4.0,1.0,phase_1,,,,,,,,,,,,,cyan,square
327.0,6.0,2.0,1.0,1.0,1.0,307.4315349999779,4.0,1.0,phase_1,,,,,,,,,,,,,cyan,square
321.0,2.0,2.0,0.0,1.0,1.0,354.8224900000605,4.0,1.0,phase_1,,,,,,,,,,,,,green,I
149.0,1.0,1.0,0.0,4.0,4.0,326.0079130000122,4.0,1.0,phase_1,,,,,,,,,,,,,yellow,hexagon
1319.0,8.0,4.0,1.0,3.0,3.0,385.7357299998512,4.0,1.0,phase_1,,,,,,,,,,,,,orange,diamond
0.0,8.0,0.0,1.0,4.0,4.0,316.0563849996833,4.0,1.0,phase_1,,,,,,,,,,,,,orange,diamond
1309.0,8.0,4.0,1.0,2.0,2.0,315.7332920000044,4.0,1.0,phase_1,,,,,,,,,,,,,orange,diamond
0.0,5.0,0.0,1.0,2.0,2.0,371.7438510002466,4.0,1.0,phase_1,,,,,,,,,,,,,gray,circle
631.0,3.0,3.0,0.0,2.0,2.0,334.78980999962,4.0,1.0,phase_1,,,,,,,,,,,,,blue,flipped triangle
654.0,3.0,3.0,0.0,4.0,4.0,332.5510620002205,4.0,2.0,phase_1,,,,,,,,,,,,,blue,flipped triangle
184.0,1.0,1.0,0.0,4.0,4.0,406.812784000067,4.0,1.0,phase_1,,,,,,,,,,,,,yellow,hexagon
1297.0,8.0,4.0,1.0,1.0,1.0,425.5373930000132,4.0,1.0,phase_1,,,,,,,,,,,,,orange,diamond
1312.0,4.0,4.0,0.0,1.0,1.0,379.3010320000576,4.0,1.0,phase_1,,,,,,,,,,,,,magenta,cross
163.0,1.0,1.0,0.0,4.0,4.0,435.2334019999944,4.0,1.0,phase_1,,,,,,,,,,,,,yellow,hexagon
317.0,6.0,2.0,1.0,4.0,4.0,343.8134650000393,4.0,1.0,phase_1,,,,,,,,,,,,,cyan,square
649.0,7.0,3.0,1.0,2.0,2.0,351.8716390003646,4.0,1.0,phase_1,,,,,,,,,,,,,white,triangle
1306.0,4.0,4.0,0.0,2.0,2.0,333.6973369996485,4.0,1.0,phase_1,,,,,,,,,,,,,magenta,cross
147.0,1.0,1.0,0.0,1.0,1.0,323.472755000239,4.0,1.0,phase_1,,,,,,,,,,,,,yellow,hexagon
636.0,7.0,3.0,1.0,2.0,2.0,326.0624899999129,4.0,1.0,phase_1,,,,,,,,,,,,,white,triangle
315.0,6.0,2.0,1.0,3.0,3.0,361.7162379996443,4.0,1.0,phase_1,,,,,,,,,,,,,cyan,square
671.0,7.0,3.0,1.0,3.0,3.0,352.3593830000209,4.0,1.0,phase_1,,,,,,,,,,,,,white,triangle
0.0,2.0,0.0,0.0,4.0,4.0,389.3706610001572,4.0,1.0,phase_1,,,,,,,,,,,,,green,I
184.0,1.0,1.0,0.0,4.0,4.0,353.5077950000413,4.0,1.0,phase_1,,,,,,,,,,,,,yellow,hexagon
644.0,7.0,3.0,1.0,1.0,1.0,342.6711749998503,4.0,1.0,phase_1,,,,,,,,,,,,,white,triangle
340.0,6.0,2.0,1.0,1.0,1.0,296.5520600000673,4.0,1.0,phase_1,,,,,,,,,,,,,cyan,square
0.0,1.0,0.0,0.0,4.0,4.0,388.7856389997068,4.0,1.0,phase_1,,,,,,,,,,,,,yellow,hexagon
632.0,7.0,3.0,1.0,4.0,4.0,444.0810639998744,4.0,2.0,phase_1,,,,,,,,,,,,,white,triangle
179.0,1.0,1.0,0.0,3.0,3.0,398.0488249999325,4.0,1.0,phase_1,,,,,,,,,,,,,yellow,hexagon
165.0,5.0,1.0,1.0,2.0,2.0,416.834912000013,4.0,1.0,phase_1,,,,,,,,,,,,,gray,circle
1288.0,4.0,4.0,0.0,3.0,3.0,406.6069579998839,4.0,1.0,phase_1,,,,,,,,,,,,,magenta,cross
308.0,2.0,2.0,0.0,3.0,3.0,371.0569969998687,4.0,1.0,phase_1,,,,,,,,,,,,,green,I
0.0,6.0,0.0,1.0,4.0,4.0,416.4637519997995,4.0,1.0,phase_1,,,,,,,,,,,,,cyan,square
1311.0,8.0,4.0,1.0,1.0,1.0,388.2006970002294,4.0,1.0,phase_1,,,,,,,,,,,,,orange,diamond
637.0,3.0,3.0,0.0,1.0,1.0,351.5932159998556,4.0,1.0,phase_1,,,,,,,,,,,,,blue,flipped triangle
1290.0,8.0,4.0,1.0,3.0,3.0,389.0837450003346,4.0,1.0,phase_1,,,,,,,,,,,,,orange,diamond
329.0,2.0,2.0,0.0,1.0,1.0,387.8822869996838,4.0,1.0,phase_1,,,,,,,,,,,,,green,I
1317.0,4.0,4.0,0.0,1.0,1.0,314.2625549999138,4.0,1.0,phase_1,,,,,,,,,,,,,magenta,cross
310.0,2.0,2.0,0.0,4.0,4.0,415.6911089999084,4.0,1.0,phase_1,,,,,,,,,,,,,green,I
349.0,2.0,2.0,0.0,3.0,3.0,351.323930000035,4.0,1.0,phase_1,,,,,,,,,,,,,green,I
650.0,3.0,3.0,0.0,2.0,2.0,306.1126200000217,4.0,1.0,phase_1,,,,,,,,,,,,,blue,flipped triangle
305.0,6.0,2.0,1.0,2.0,2.0,323.5463949999939,4.0,1.0,phase_1,,,,,,,,,,,,,cyan,square
637.0,7.0,3.0,1.0,3.0,3.0,406.3007499999003,4.0,1.0,phase_1,,,,,,,,,,,,,white,triangle
1303.0,4.0,4.0,0.0,3.0,3.0,389.1364000000976,4.0,1.0,phase_1,,,,,,,,,,,,,magenta,cross
308.0,6.0,2.0,1.0,2.0,2.0,361.0306969999328,4.0,1.0,phase_1,,,,,,,,,,,,,cyan,square
659.0,3.0,3.0,0.0,1.0,1.0,315.075190999778,4.0,1.0,phase_1,,,,,,,,,,,,,blue,flipped triangle
180.0,5.0,1.0,1.0,4.0,4.0,351.2282330002563,4.0,1.0,phase_1,,,,,,,,,,,,,gray,circle
159.0,5.0,1.0,1.0,3.0,3.0,406.42851599977797,4.0,1.0,phase_1,,,,,,,,,,,,,gray,circle
0.0,2.0,2.0,0.0,5.0,5.0,425.9704810001494,1.0,1.0,phase_2,go,250.0,250.0,1.0,,,,,,,,,green,I
0.0,6.0,2.0,1.0,5.0,0.0,0.0,1.0,1.0,phase_2,stop,250.0,250.0,4.0,,,,,,,,,cyan,square
0.0,7.0,3.0,1.0,6.0,0.0,0.0,1.0,1.0,phase_2,stop,300.0,250.0,4.0,,,,,,,,,white,triangle
0.0,4.0,4.0,0.0,5.0,5.0,466.4484390000325,1.0,1.0,phase_2,go,300.0,300.0,1.0,,,,,,,,,magenta,cross
0.0,5.0,1.0,1.0,5.0,5.0,705.6837200002519,1.0,1.0,phase_2,go,300.0,300.0,1.0,,,,,,,,,gray,circle
0.0,4.0,4.0,0.0,6.0,6.0,700.4842549999921,1.0,1.0,phase_2,go,300.0,300.0,1.0,,,,,,,,,magenta,cross
0.0,4.0,4.0,0.0,6.0,6.0,660.7451529998798,1.0,1.0,phase_2,go,300.0,300.0,1.0,,,,,,,,,magenta,cross
0.0,1.0,1.0,0.0,5.0,5.0,502.86467600017204,1.0,1.0,phase_2,go,300.0,300.0,1.0,,,,,,,,,yellow,hexagon
0.0,5.0,1.0,1.0,6.0,6.0,440.8100030000241,1.0,1.0,phase_2,stop,300.0,300.0,3.0,,,,,,,,,gray,circle
0.0,2.0,2.0,0.0,6.0,6.0,616.253928000333,1.0,1.0,phase_2,go,300.0,250.0,1.0,,,,,,,,,green,I
0.0,4.0,4.0,0.0,5.0,5.0,399.5187559999067,1.0,1.0,phase_2,go,300.0,250.0,1.0,,,,,,,,,magenta,cross
0.0,6.0,2.0,1.0,6.0,0.0,0.0,1.0,1.0,phase_2,stop,300.0,250.0,4.0,,,,,,,,,cyan,square
0.0,3.0,3.0,0.0,6.0,6.0,706.39574300003,1.0,1.0,phase_2,go,300.0,300.0,1.0,,,,,,,,,blue,flipped triangle
0.0,7.0,3.0,1.0,6.0,0.0,0.0,1.0,1.0,phase_2,stop,300.0,300.0,4.0,,,,,,,,,white,triangle
0.0,5.0,1.0,1.0,5.0,0.0,0.0,1.0,1.0,phase_2,stop,300.0,350.0,4.0,,,,,,,,,gray,circle
0.0,4.0,4.0,0.0,6.0,6.0,477.3498499998823,1.0,1.0,phase_2,go,350.0,350.0,1.0,,,,,,,,,magenta,cross
0.0,3.0,3.0,0.0,6.0,6.0,777.6583639997625,1.0,1.0,phase_2,go,350.0,350.0,1.0,,,,,,,,,blue,flipped triangle
0.0,3.0,3.0,0.0,6.0,6.0,558.1123650003974,1.0,1.0,phase_2,go,350.0,350.0,1.0,,,,,,,,,blue,flipped triangle
0.0,2.0,2.0,0.0,5.0,5.0,428.9198229998874,1.0,1.0,phase_2,go,350.0,350.0,1.0,,,,,,,,,green,I
0.0,8.0,4.0,1.0,6.0,6.0,548.2439470001736,1.0,1.0,phase_2,go,350.0,350.0,1.0,,,,,,,,,orange,diamond
0.0,7.0,3.0,1.0,5.0,0.0,0.0,1.0,1.0,phase_2,stop,350.0,350.0,4.0,,,,,,,,,white,triangle
0.0,6.0,2.0,1.0,6.0,6.0,418.1729790002464,1.0,1.0,phase_2,go,400.0,350.0,1.0,,,,,,,,,cyan,square
0.0,2.0,2.0,0.0,5.0,5.0,503.83881700008715,1.0,1.0,phase_2,go,400.0,350.0,1.0,,,,,,,,,green,I
0.0,5.0,1.0,1.0,5.0,0.0,0.0,1.0,1.0,phase_2,stop,400.0,350.0,4.0,,,,,,,,,gray,circle
0.0,1.0,1.0,0.0,6.0,6.0,587.4917080000159,1.0,1.0,phase_2,go,450.0,350.0,1.0,,,,,,,,,yellow,hexagon
0.0,8.0,4.0,1.0,5.0,0.0,0.0,1.0,1.0,phase_2,stop,450.0,350.0,4.0,,,,,,,,,orange,diamond
0.0,5.0,1.0,1.0,5.0,5.0,742.9778910000095,1.0,1.0,phase_2,go,500.0,350.0,1.0,,,,,,,,,gray,circle
0.0,6.0,2.0,1.0,6.0,0.0,0.0,1.0,1.0,phase_2,stop,500.0,350.0,4.0,,,,,,,,,cyan,square
0.0,4.0,4.0,0.0,6.0,6.0,751.8828830002349,1.0,1.0,phase_2,go,500.0,400.0,1.0,,,,,,,,,magenta,cross
0.0,2.0,2.0,0.0,6.0,6.0,1108.2256079998842,1.0,1.0,phase_2,go,500.0,400.0,1.0,,,,,,,,,green,I
0.0,1.0,1.0,0.0,5.0,5.0,782.1679660000882,1.0,1.0,phase_2,go,500.0,400.0,1.0,,,,,,,,,yellow,hexagon
0.0,3.0,3.0,0.0,5.0,5.0,798.9341139996213,1.0,1.0,phase_2,go,500.0,400.0,1.0,,,,,,,,,blue,flipped triangle
0.0,2.0,2.0,0.0,6.0,6.0,578.7396659998194,1.0,1.0,phase_2,go,500.0,400.0,1.0,,,,,,,,,green,I
0.0,4.0,4.0,0.0,5.0,5.0,653.3857580002405,1.0,1.0,phase_2,go,500.0,400.0,1.0,,,,,,,,,magenta,cross
0.0,5.0,1.0,1.0,6.0,0.0,0.0,1.0,1.0,phase_2,stop,500.0,400.0,4.0,,,,,,,,,gray,circle
0.0,1.0,1.0,0.0,5.0,5.0,579.8415910003314,1.0,1.0,phase_2,go,500.0,450.0,1.0,,,,,,,,,yellow,hexagon
0.0,2.0,2.0,0.0,6.0,6.0,457.1173720000843,2.0,1.0,phase_2,go,500.0,450.0,1.0,,,,,,,,,green,I
0.0,3.0,3.0,0.0,6.0,6.0,493.1412889995954,2.0,1.0,phase_2,go,500.0,450.0,1.0,,,,,,,,,blue,flipped triangle
0.0,2.0,2.0,0.0,6.0,6.0,521.800002999953,2.0,1.0,phase_2,go,500.0,450.0,1.0,,,,,,,,,green,I
0.0,1.0,1.0,0.0,5.0,5.0,746.2296139997306,2.0,1.0,phase_2,go,500.0,450.0,1.0,,,,,,,,,yellow,hexagon
0.0,1.0,1.0,0.0,6.0,6.0,567.4996920001831,2.0,1.0,phase_2,go,500.0,450.0,1.0,,,,,,,,,yellow,hexagon
0.0,5.0,1.0,1.0,5.0,5.0,574.9010720001024,2.0,1.0,phase_2,stop,500.0,450.0,3.0,,,,,,,,,gray,circle
0.0,1.0,1.0,0.0,6.0,6.0,569.1156210000372,2.0,1.0,phase_2,go,450.0,450.0,1.0,,,,,,,,,yellow,hexagon
0.0,3.0,3.0,0.0,6.0,6.0,586.2068569999792,2.0,1.0,phase_2,go,450.0,450.0,1.0,,,,,,,,,blue,flipped triangle
0.0,4.0,4.0,0.0,5.0,5.0,579.1503270002067,2.0,1.0,phase_2,go,450.0,450.0,1.0,,,,,,,,,magenta,cross
0.0,3.0,3.0,0.0,6.0,6.0,576.893125999959,2.0,1.0,phase_2,go,450.0,450.0,1.0,,,,,,,,,blue,flipped triangle
0.0,1.0,1.0,0.0,6.0,6.0,642.7454780000517,2.0,1.0,phase_2,go,450.0,450.0,1.0,,,,,,,,,yellow,hexagon
0.0,3.0,3.0,0.0,5.0,5.0,762.5442080002358,2.0,1.0,phase_2,go,450.0,450.0,1.0,,,,,,,,,blue,flipped triangle
0.0,8.0,4.0,1.0,5.0,5.0,503.2613839998703,2.0,1.0,phase_2,stop,450.0,450.0,3.0,,,,,,,,,orange,diamond
0.0,6.0,2.0,1.0,5.0,5.0,486.4874640002199,2.0,1.0,phase_2,stop,400.0,450.0,3.0,,,,,,,,,cyan,square
0.0,2.0,2.0,0.0,5.0,5.0,532.7866769998764,2.0,1.0,phase_2,go,350.0,450.0,1.0,,,,,,,,,green,I
0.0,7.0,3.0,1.0,5.0,0.0,0.0,2.0,1.0,phase_2,stop,350.0,450.0,4.0,,,,,,,,,white,triangle
0.0,1.0,1.0,0.0,6.0,6.0,492.7066619998186,2.0,1.0,phase_2,go,400.0,450.0,1.0,,,,,,,,,yellow,hexagon
0.0,3.0,3.0,0.0,5.0,5.0,511.43383099997664,2.0,1.0,phase_2,go,400.0,450.0,1.0,,,,,,,,,blue,flipped triangle
0.0,7.0,3.0,1.0,5.0,5.0,324.7891220003112,2.0,1.0,phase_2,go,400.0,450.0,1.0,,,,,,,,,white,triangle
0.0,6.0,2.0,1.0,6.0,6.0,602.7577239997299,2.0,1.0,phase_2,go,400.0,450.0,1.0,,,,,,,,,cyan,square
0.0,5.0,1.0,1.0,6.0,0.0,0.0,2.0,1.0,phase_2,stop,400.0,450.0,4.0,,,,,,,,,gray,circle
0.0,8.0,4.0,1.0,6.0,6.0,575.9399849998772,2.0,1.0,phase_2,stop,400.0,500.0,3.0,,,,,,,,,orange,diamond
0.0,8.0,4.0,1.0,5.0,0.0,0.0,2.0,1.0,phase_2,stop,400.0,450.0,4.0,,,,,,,,,orange,diamond
0.0,4.0,4.0,0.0,6.0,6.0,893.3089450001717,2.0,1.0,phase_2,go,450.0,450.0,1.0,,,,,,,,,magenta,cross
0.0,5.0,1.0,1.0,6.0,6.0,628.8077249996604,2.0,1.0,phase_2,stop,450.0,450.0,3.0,,,,,,,,,gray,circle
0.0,5.0,1.0,1.0,6.0,0.0,0.0,2.0,1.0,phase_2,stop,450.0,400.0,4.0,,,,,,,,,gray,circle
0.0,2.0,2.0,0.0,6.0,6.0,522.4075830001311,2.0,1.0,phase_2,go,450.0,450.0,1.0,,,,,,,,,green,I
0.0,4.0,4.0,0.0,6.0,6.0,679.5238710001286,2.0,1.0,phase_2,go,450.0,450.0,1.0,,,,,,,,,magenta,cross
0.0,8.0,4.0,1.0,5.0,5.0,688.4472290003032,2.0,1.0,phase_2,go,450.0,450.0,1.0,,,,,,,,,orange,diamond
0.0,6.0,2.0,1.0,6.0,0.0,0.0,2.0,1.0,phase_2,stop,450.0,450.0,4.0,,,,,,,,,cyan,square
0.0,5.0,1.0,1.0,6.0,0.0,0.0,2.0,1.0,phase_2,stop,450.0,500.0,4.0,,,,,,,,,gray,circle
0.0,7.0,3.0,1.0,5.0,5.0,882.6791940000476,2.0,1.0,phase_2,go,450.0,550.0,1.0,,,,,,,,,white,triangle
0.0,1.0,1.0,0.0,5.0,5.0,547.8598949998741,2.0,1.0,phase_2,go,450.0,550.0,1.0,,,,,,,,,yellow,hexagon
0.0,7.0,3.0,1.0,5.0,5.0,546.5130749998934,2.0,1.0,phase_2,stop,450.0,550.0,3.0,,,,,,,,,white,triangle
0.0,3.0,3.0,0.0,6.0,6.0,726.399494999896,2.0,1.0,phase_2,go,400.0,550.0,1.0,,,,,,,,,blue,flipped triangle
0.0,2.0,2.0,0.0,6.0,6.0,716.6386610001609,2.0,1.0,phase_2,go,400.0,550.0,1.0,,,,,,,,,green,I
0.0,4.0,4.0,0.0,6.0,6.0,474.9459250001564,3.0,1.0,phase_2,go,400.0,550.0,1.0,,,,,,,,,magenta,cross
0.0,5.0,1.0,1.0,6.0,6.0,575.0913839997338,3.0,1.0,phase_2,go,400.0,550.0,1.0,,,,,,,,,gray,circle
0.0,4.0,4.0,0.0,6.0,6.0,585.4955400000108,3.0,1.0,phase_2,go,400.0,550.0,1.0,,,,,,,,,magenta,cross
0.0,8.0,4.0,1.0,5.0,5.0,678.4803119999196,3.0,1.0,phase_2,go,400.0,550.0,1.0,,,,,,,,,orange,diamond
0.0,3.0,3.0,0.0,5.0,5.0,533.7028339999961,3.0,1.0,phase_2,go,400.0,550.0,1.0,,,,,,,,,blue,flipped triangle
0.0,6.0,2.0,1.0,6.0,6.0,606.6173009999147,3.0,1.0,phase_2,stop,400.0,550.0,3.0,,,,,,,,,cyan,square
0.0,8.0,4.0,1.0,5.0,0.0,0.0,3.0,1.0,phase_2,stop,400.0,500.0,4.0,,,,,,,,,orange,diamond
0.0,3.0,3.0,0.0,5.0,5.0,531.928925000102,3.0,1.0,phase_2,go,450.0,500.0,1.0,,,,,,,,,blue,flipped triangle
0.0,4.0,4.0,0.0,6.0,6.0,504.0340030000152,3.0,1.0,phase_2,go,450.0,500.0,1.0,,,,,,,,,magenta,cross
0.0,4.0,4.0,0.0,6.0,6.0,928.7148070002332,3.0,1.0,phase_2,go,450.0,500.0,1.0,,,,,,,,,magenta,cross
0.0,7.0,3.0,1.0,5.0,0.0,0.0,3.0,1.0,phase_2,stop,450.0,500.0,4.0,,,,,,,,,white,triangle
0.0,3.0,3.0,0.0,6.0,6.0,540.5285689998891,3.0,1.0,phase_2,go,500.0,500.0,1.0,,,,,,,,,blue,flipped triangle
0.0,1.0,1.0,0.0,5.0,5.0,631.1536080002043,3.0,1.0,phase_2,go,500.0,500.0,1.0,,,,,,,,,yellow,hexagon
0.0,8.0,4.0,1.0,5.0,0.0,0.0,3.0,1.0,phase_2,stop,500.0,500.0,4.0,,,,,,,,,orange,diamond
0.0,4.0,4.0,0.0,5.0,5.0,724.6576420002384,3.0,1.0,phase_2,go,550.0,500.0,1.0,,,,,,,,,magenta,cross
0.0,7.0,3.0,1.0,6.0,6.0,588.8386970000283,3.0,1.0,phase_2,stop,550.0,500.0,3.0,,,,,,,,,white,triangle
0.0,7.0,3.0,1.0,5.0,0.0,0.0,3.0,1.0,phase_2,stop,550.0,450.0,4.0,,,,,,,,,white,triangle
0.0,6.0,2.0,1.0,5.0,5.0,708.4416679999777,3.0,1.0,phase_2,go,600.0,450.0,1.0,,,,,,,,,cyan,square
0.0,8.0,4.0,1.0,6.0,6.0,744.21330999985,3.0,1.0,phase_2,go,600.0,450.0,1.0,,,,,,,,,orange,diamond
0.0,2.0,2.0,0.0,6.0,6.0,661.736934000146,3.0,1.0,phase_2,go,600.0,450.0,1.0,,,,,,,,,green,I
0.0,2.0,2.0,0.0,6.0,6.0,920.5925719998048,3.0,1.0,phase_2,go,600.0,450.0,1.0,,,,,,,,,green,I
0.0,5.0,1.0,1.0,5.0,0.0,0.0,3.0,1.0,phase_2,stop,600.0,450.0,4.0,,,,,,,,,gray,circle
0.0,3.0,3.0,0.0,6.0,6.0,409.2554890003157,3.0,1.0,phase_2,go,650.0,450.0,1.0,,,,,,,,,blue,flipped triangle
0.0,5.0,1.0,1.0,6.0,0.0,0.0,3.0,1.0,phase_2,stop,650.0,450.0,4.0,,,,,,,,,gray,circle
0.0,8.0,4.0,1.0,6.0,0.0,0.0,3.0,1.0,phase_2,stop,650.0,500.0,4.0,,,,,,,,,orange,diamond
0.0,8.0,4.0,1.0,5.0,5.0,800.2124710001226,3.0,1.0,phase_2,go,650.0,550.0,1.0,,,,,,,,,orange,diamond
0.0,1.0,1.0,0.0,6.0,6.0,977.870805999828,3.0,1.0,phase_2,go,650.0,550.0,1.0,,,,,,,,,yellow,hexagon
0.0,2.0,2.0,0.0,5.0,5.0,475.5366300000787,3.0,1.0,phase_2,go,650.0,550.0,1.0,,,,,,,,,green,I
0.0,5.0,1.0,1.0,6.0,6.0,436.4390599998842,3.0,1.0,phase_2,stop,650.0,550.0,3.0,,,,,,,,,gray,circle
0.0,1.0,1.0,0.0,6.0,6.0,1125.3147819998048,3.0,1.0,phase_2,go,650.0,500.0,1.0,,,,,,,,,yellow,hexagon
0.0,4.0,4.0,0.0,5.0,5.0,736.4297819999592,3.0,1.0,phase_2,go,650.0,500.0,1.0,,,,,,,,,magenta,cross
0.0,3.0,3.0,0.0,5.0,5.0,854.2927260000397,3.0,1.0,phase_2,go,650.0,500.0,1.0,,,,,,,,,blue,flipped triangle
0.0,8.0,4.0,1.0,6.0,0.0,0.0,3.0,1.0,phase_2,stop,650.0,500.0,4.0,,,,,,,,,orange,diamond
0.0,3.0,3.0,0.0,5.0,5.0,883.2945909998671,3.0,1.0,phase_2,go,650.0,550.0,1.0,,,,,,,,,blue,flipped triangle
0.0,1.0,1.0,0.0,5.0,5.0,1116.2486470002475,3.0,1.0,phase_2,go,650.0,550.0,1.0,,,,,,,,,yellow,hexagon
0.0,4.0,4.0,0.0,6.0,6.0,935.4693140003292,3.0,1.0,phase_2,go,650.0,550.0,1.0,,,,,,,,,magenta,cross
0.0,3.0,3.0,0.0,6.0,6.0,568.6749610003972,4.0,1.0,phase_2,go,650.0,550.0,1.0,,,,,,,,,blue,flipped triangle
0.0,7.0,3.0,1.0,5.0,5.0,474.0623590000723,4.0,1.0,phase_2,stop,650.0,550.0,3.0,,,,,,,,,white,triangle
0.0,3.0,3.0,0.0,5.0,5.0,532.1143930000289,4.0,1.0,phase_2,go,600.0,550.0,1.0,,,,,,,,,blue,flipped triangle
0.0,8.0,4.0,1.0,6.0,6.0,549.7491699998136,4.0,1.0,phase_2,stop,600.0,550.0,3.0,,,,,,,,,orange,diamond
0.0,6.0,2.0,1.0,5.0,5.0,642.7089379999416,4.0,1.0,phase_2,stop,600.0,500.0,3.0,,,,,,,,,cyan,square
0.0,3.0,3.0,0.0,6.0,6.0,707.5140100000681,4.0,1.0,phase_2,go,550.0,500.0,1.0,,,,,,,,,blue,flipped triangle
0.0,2.0,2.0,0.0,5.0,5.0,1008.1496409998181,4.0,1.0,phase_2,go,550.0,500.0,1.0,,,,,,,,,green,I
0.0,4.0,4.0,0.0,5.0,5.0,682.4773530001949,4.0,1.0,phase_2,go,550.0,500.0,1.0,,,,,,,,,magenta,cross
0.0,1.0,1.0,0.0,6.0,6.0,512.300000000323,4.0,1.0,phase_2,go,550.0,500.0,1.0,,,,,,,,,yellow,hexagon
0.0,6.0,2.0,1.0,5.0,5.0,606.8836409999676,4.0,1.0,phase_2,stop,550.0,500.0,3.0,,,,,,,,,cyan,square
0.0,4.0,4.0,0.0,5.0,5.0,541.1222220000127,4.0,1.0,phase_2,go,500.0,500.0,1.0,,,,,,,,,magenta,cross
0.0,3.0,3.0,0.0,6.0,6.0,697.4962419999429,4.0,1.0,phase_2,go,500.0,500.0,1.0,,,,,,,,,blue,flipped triangle
0.0,7.0,3.0,1.0,6.0,6.0,438.3439359999102,4.0,1.0,phase_2,stop,500.0,500.0,3.0,,,,,,,,,white,triangle
0.0,7.0,3.0,1.0,5.0,0.0,0.0,4.0,1.0,phase_2,stop,500.0,450.0,4.0,,,,,,,,,white,triangle
0.0,7.0,3.0,1.0,6.0,6.0,708.6620340000991,4.0,1.0,phase_2,go,550.0,450.0,1.0,,,,,,,,,white,triangle
0.0,5.0,1.0,1.0,5.0,5.0,550.0281889999314,4.0,1.0,phase_2,stop,550.0,450.0,3.0,,,,,,,,,gray,circle
0.0,3.0,3.0,0.0,5.0,5.0,930.9799530001328,4.0,1.0,phase_2,go,500.0,450.0,1.0,,,,,,,,,blue,flipped triangle
0.0,3.0,3.0,0.0,6.0,6.0,846.9104050000169,4.0,1.0,phase_2,go,500.0,450.0,1.0,,,,,,,,,blue,flipped triangle
0.0,1.0,1.0,0.0,6.0,6.0,791.5863519997401,4.0,1.0,phase_2,go,500.0,450.0,1.0,,,,,,,,,yellow,hexagon
0.0,7.0,3.0,1.0,6.0,0.0,0.0,4.0,1.0,phase_2,stop,500.0,450.0,4.0,,,,,,,,,white,triangle
0.0,1.0,1.0,0.0,5.0,5.0,632.2750129997985,4.0,1.0,phase_2,go,500.0,500.0,1.0,,,,,,,,,yellow,hexagon
0.0,2.0,2.0,0.0,5.0,5.0,567.950448999909,4.0,1.0,phase_2,go,500.0,500.0,1.0,,,,,,,,,green,I
0.0,4.0,4.0,0.0,5.0,5.0,799.7773930001131,4.0,1.0,phase_2,go,500.0,500.0,1.0,,,,,,,,,magenta,cross
0.0,2.0,2.0,0.0,5.0,5.0,605.9279420001076,4.0,1.0,phase_2,go,500.0,500.0,1.0,,,,,,,,,green,I
0.0,7.0,3.0,1.0,6.0,0.0,0.0,4.0,1.0,phase_2,stop,500.0,500.0,4.0,,,,,,,,,white,triangle
0.0,7.0,3.0,1.0,5.0,5.0,810.7938849998391,4.0,1.0,phase_2,go,500.0,550.0,1.0,,,,,,,,,white,triangle
0.0,4.0,4.0,0.0,5.0,5.0,650.372348000019,4.0,1.0,phase_2,go,500.0,550.0,1.0,,,,,,,,,magenta,cross
0.0,4.0,4.0,0.0,5.0,5.0,593.7365509998926,4.0,1.0,phase_2,go,500.0,550.0,1.0,,,,,,,,,magenta,cross
0.0,5.0,1.0,1.0,5.0,5.0,687.5991030001387,4.0,1.0,phase_2,go,500.0,550.0,1.0,,,,,,,,,gray,circle
0.0,2.0,2.0,0.0,6.0,6.0,613.3031529998334,4.0,1.0,phase_2,go,500.0,550.0,1.0,,,,,,,,,green,I
0.0,4.0,4.0,0.0,5.0,5.0,344.2620190003254,4.0,1.0,phase_2,go,500.0,550.0,1.0,,,,,,,,,magenta,cross
0.0,2.0,2.0,0.0,5.0,5.0,633.8796489999368,4.0,1.0,phase_2,go,500.0,550.0,1.0,,,,,,,,,green,I
0.0,3.0,3.0,0.0,6.0,6.0,771.1560200000349,4.0,1.0,phase_2,go,500.0,550.0,1.0,,,,,,,,,blue,flipped triangle
0.0,8.0,4.0,1.0,5.0,5.0,617.3310670001229,4.0,1.0,phase_2,stop,500.0,550.0,3.0,,,,,,,,,orange,diamond
0.0,4.0,4.0,0.0,6.0,6.0,625.4904249999527,4.0,1.0,phase_2,go,450.0,550.0,1.0,,,,,,,,,magenta,cross
0.0,8.0,4.0,1.0,5.0,5.0,608.9218199999777,4.0,1.0,phase_2,stop,450.0,550.0,3.0,,,,,,,,,orange,diamond
0.0,6.0,2.0,1.0,5.0,5.0,569.7322820001318,5.0,1.0,phase_2,go,400.0,550.0,1.0,,,,,,,,,cyan,square
0.0,1.0,1.0,0.0,6.0,6.0,513.7821590001295,5.0,1.0,phase_2,go,400.0,550.0,1.0,,,,,,,,,yellow,hexagon
0.0,6.0,2.0,1.0,6.0,6.0,632.1106290001808,5.0,1.0,phase_2,go,400.0,550.0,1.0,,,,,,,,,cyan,square
0.0,4.0,4.0,0.0,5.0,5.0,538.2565220002107,5.0,1.0,phase_2,go,400.0,550.0,1.0,,,,,,,,,magenta,cross
0.0,1.0,1.0,0.0,5.0,5.0,622.0660009998937,5.0,1.0,phase_2,go,400.0,550.0,1.0,,,,,,,,,yellow,hexagon
0.0,3.0,3.0,0.0,5.0,5.0,596.4695069997106,5.0,1.0,phase_2,go,400.0,550.0,1.0,,,,,,,,,blue,flipped triangle
0.0,6.0,2.0,1.0,5.0,5.0,557.1740030000001,5.0,1.0,phase_2,go,400.0,550.0,1.0,,,,,,,,,cyan,square
0.0,5.0,1.0,1.0,6.0,6.0,616.1632969997299,5.0,1.0,phase_2,stop,400.0,550.0,3.0,,,,,,,,,gray,circle
0.0,7.0,3.0,1.0,5.0,5.0,445.3863520002414,5.0,1.0,phase_2,stop,400.0,500.0,3.0,,,,,,,,,white,triangle
0.0,1.0,1.0,0.0,5.0,5.0,521.0796369997297,5.0,1.0,phase_2,go,350.0,500.0,1.0,,,,,,,,,yellow,hexagon
0.0,1.0,1.0,0.0,6.0,6.0,464.3726780000179,5.0,1.0,phase_2,go,350.0,500.0,1.0,,,,,,,,,yellow,hexagon
0.0,5.0,1.0,1.0,6.0,6.0,692.4764509999477,5.0,1.0,phase_2,stop,350.0,500.0,3.0,,,,,,,,,gray,circle
0.0,1.0,1.0,0.0,6.0,6.0,764.5231980000062,5.0,1.0,phase_2,go,350.0,450.0,1.0,,,,,,,,,yellow,hexagon
0.0,6.0,2.0,1.0,6.0,6.0,594.7982799998499,5.0,1.0,phase_2,go,350.0,450.0,1.0,,,,,,,,,cyan,square
0.0,8.0,4.0,1.0,6.0,6.0,513.9906330000485,5.0,1.0,phase_2,stop,350.0,450.0,3.0,,,,,,,,,orange,diamond
0.0,5.0,1.0,1.0,5.0,0.0,0.0,5.0,1.0,phase_2,stop,350.0,400.0,4.0,,,,,,,,,gray,circle
0.0,8.0,4.0,1.0,5.0,0.0,0.0,5.0,1.0,phase_2,stop,400.0,400.0,4.0,,,,,,,,,orange,diamond
0.0,2.0,2.0,0.0,6.0,6.0,653.4700669999438,5.0,1.0,phase_2,go,450.0,400.0,1.0,,,,,,,,,green,I
0.0,7.0,3.0,1.0,6.0,6.0,588.7640989999454,5.0,1.0,phase_2,stop,450.0,400.0,3.0,,,,,,,,,white,triangle
0.0,3.0,3.0,0.0,6.0,6.0,753.8867829998708,5.0,1.0,phase_2,go,450.0,350.0,1.0,,,,,,,,,blue,flipped triangle
0.0,6.0,2.0,1.0,5.0,0.0,0.0,5.0,1.0,phase_2,stop,450.0,350.0,4.0,,,,,,,,,cyan,square
0.0,3.0,3.0,0.0,5.0,5.0,641.997235999952,5.0,1.0,phase_2,go,500.0,350.0,1.0,,,,,,,,,blue,flipped triangle
0.0,6.0,2.0,1.0,5.0,5.0,663.3447389999674,5.0,1.0,phase_2,stop,500.0,350.0,3.0,,,,,,,,,cyan,square
0.0,3.0,3.0,0.0,5.0,5.0,791.4581119998729,5.0,1.0,phase_2,go,450.0,350.0,1.0,,,,,,,,,blue,flipped triangle
0.0,7.0,3.0,1.0,5.0,5.0,545.2277920003326,5.0,1.0,phase_2,stop,450.0,350.0,3.0,,,,,,,,,white,triangle
0.0,4.0,4.0,0.0,6.0,6.0,725.6407830000171,5.0,1.0,phase_2,go,400.0,350.0,1.0,,,,,,,,,magenta,cross
0.0,3.0,3.0,0.0,5.0,5.0,651.8301390001398,5.0,1.0,phase_2,go,400.0,350.0,1.0,,,,,,,,,blue,flipped triangle
0.0,6.0,2.0,1.0,6.0,0.0,0.0,5.0,1.0,phase_2,stop,400.0,350.0,4.0,,,,,,,,,cyan,square
0.0,2.0,2.0,0.0,5.0,5.0,660.2964699995937,5.0,1.0,phase_2,go,400.0,400.0,1.0,,,,,,,,,green,I
0.0,7.0,3.0,1.0,5.0,5.0,781.0838850000437,5.0,1.0,phase_2,go,400.0,400.0,1.0,,,,,,,,,white,triangle
0.0,6.0,2.0,1.0,5.0,0.0,0.0,5.0,1.0,phase_2,stop,400.0,400.0,4.0,,,,,,,,,cyan,square
0.0,6.0,2.0,1.0,5.0,0.0,0.0,5.0,1.0,phase_2,stop,450.0,400.0,4.0,,,,,,,,,cyan,square
0.0,1.0,1.0,0.0,6.0,6.0,539.2274519999773,5.0,1.0,phase_2,go,500.0,400.0,1.0,,,,,,,,,yellow,hexagon
0.0,8.0,4.0,1.0,5.0,0.0,0.0,5.0,1.0,phase_2,stop,500.0,400.0,4.0,,,,,,,,,orange,diamond
0.0,8.0,4.0,1.0,6.0,6.0,1054.0551230001256,5.0,1.0,phase_2,go,550.0,400.0,1.0,,,,,,,,,orange,diamond
0.0,8.0,4.0,1.0,5.0,5.0,744.0078919998996,5.0,1.0,phase_2,stop,550.0,400.0,3.0,,,,,,,,,orange,diamond
0.0,5.0,1.0,1.0,5.0,5.0,566.6506459997436,6.0,1.0,phase_2,stop,500.0,400.0,3.0,,,,,,,,,gray,circle
0.0,6.0,2.0,1.0,6.0,6.0,546.847754999817,6.0,1.0,phase_2,go,450.0,400.0,1.0,,,,,,,,,cyan,square
0.0,6.0,2.0,1.0,6.0,0.0,0.0,6.0,1.0,phase_2,stop,450.0,400.0,4.0,,,,,,,,,cyan,square
0.0,4.0,4.0,0.0,5.0,5.0,724.4391730000643,6.0,1.0,phase_2,go,450.0,450.0,1.0,,,,,,,,,magenta,cross
0.0,6.0,2.0,1.0,5.0,0.0,0.0,6.0,1.0,phase_2,stop,450.0,450.0,4.0,,,,,,,,,cyan,square
0.0,7.0,3.0,1.0,5.0,0.0,0.0,6.0,1.0,phase_2,stop,500.0,450.0,4.0,,,,,,,,,white,triangle
0.0,2.0,2.0,0.0,5.0,5.0,463.3982010000181,6.0,1.0,phase_2,go,550.0,450.0,1.0,,,,,,,,,green,I
0.0,8.0,4.0,1.0,6.0,0.0,0.0,6.0,1.0,phase_2,stop,550.0,450.0,4.0,,,,,,,,,orange,diamond
0.0,8.0,4.0,1.0,6.0,0.0,0.0,6.0,1.0,phase_2,stop,550.0,500.0,4.0,,,,,,,,,orange,diamond
0.0,5.0,1.0,1.0,5.0,5.0,828.5249420000582,6.0,1.0,phase_2,go,550.0,550.0,1.0,,,,,,,,,gray,circle
0.0,1.0,1.0,0.0,5.0,5.0,790.0844079999843,6.0,1.0,phase_2,go,550.0,550.0,1.0,,,,,,,,,yellow,hexagon
0.0,7.0,3.0,1.0,6.0,6.0,496.3425909995749,6.0,1.0,phase_2,stop,550.0,550.0,3.0,,,,,,,,,white,triangle
0.0,5.0,1.0,1.0,5.0,5.0,649.1084190001857,6.0,1.0,phase_2,stop,550.0,500.0,3.0,,,,,,,,,gray,circle
0.0,4.0,4.0,0.0,6.0,6.0,902.9366969998592,6.0,1.0,phase_2,go,500.0,500.0,1.0,,,,,,,,,magenta,cross
0.0,5.0,1.0,1.0,5.0,0.0,0.0,6.0,1.0,phase_2,stop,500.0,500.0,4.0,,,,,,,,,gray,circle
0.0,7.0,3.0,1.0,6.0,6.0,1067.5646760000743,6.0,1.0,phase_2,go,550.0,500.0,1.0,,,,,,,,,white,triangle
0.0,1.0,1.0,0.0,5.0,5.0,1050.882993999949,6.0,1.0,phase_2,go,550.0,500.0,1.0,,,,,,,,,yellow,hexagon
0.0,7.0,3.0,1.0,6.0,6.0,829.9507279998579,6.0,1.0,phase_2,go,550.0,500.0,1.0,,,,,,,,,white,triangle
0.0,2.0,2.0,0.0,5.0,5.0,605.567577000329,6.0,1.0,phase_2,go,550.0,500.0,1.0,,,,,,,,,green,I
0.0,3.0,3.0,0.0,5.0,5.0,680.0564899999699,6.0,1.0,phase_2,go,550.0,500.0,1.0,,,,,,,,,blue,flipped triangle
0.0,7.0,3.0,1.0,5.0,5.0,659.869444999913,6.0,1.0,phase_2,stop,550.0,500.0,3.0,,,,,,,,,white,triangle
0.0,3.0,3.0,0.0,5.0,5.0,773.2164750000265,6.0,1.0,phase_2,go,500.0,500.0,1.0,,,,,,,,,blue,flipped triangle
0.0,2.0,2.0,0.0,6.0,6.0,667.8174359999502,6.0,1.0,phase_2,go,500.0,500.0,1.0,,,,,,,,,green,I
0.0,6.0,2.0,1.0,5.0,0.0,0.0,6.0,1.0,phase_2,stop,500.0,500.0,4.0,,,,,,,,,cyan,square
0.0,1.0,1.0,0.0,5.0,5.0,826.7290460003096,6.0,1.0,phase_2,go,550.0,500.0,1.0,,,,,,,,,yellow,hexagon
0.0,5.0,1.0,1.0,6.0,0.0,0.0,6.0,1.0,phase_2,stop,550.0,500.0,4.0,,,,,,,,,gray,circle
0.0,8.0,4.0,1.0,6.0,0.0,0.0,6.0,1.0,phase_2,stop,550.0,550.0,4.0,,,,,,,,,orange,diamond
0.0,2.0,2.0,0.0,6.0,6.0,781.881603000329,6.0,1.0,phase_2,go,550.0,600.0,1.0,,,,,,,,,green,I
0.0,6.0,2.0,1.0,6.0,6.0,693.7651250000272,6.0,1.0,phase_2,stop,550.0,600.0,3.0,,,,,,,,,cyan,square
0.0,2.0,2.0,0.0,6.0,6.0,651.4676089996101,6.0,1.0,phase_2,go,550.0,550.0,1.0,,,,,,,,,green,I
0.0,2.0,2.0,0.0,6.0,6.0,696.0582389997398,6.0,1.0,phase_2,go,550.0,550.0,1.0,,,,,,,,,green,I
0.0,5.0,1.0,1.0,5.0,0.0,0.0,6.0,1.0,phase_2,stop,550.0,550.0,4.0,,,,,,,,,gray,circle
0.0,2.0,2.0,0.0,5.0,5.0,800.2664489999916,6.0,1.0,phase_2,go,600.0,550.0,1.0,,,,,,,,,green,I
0.0,8.0,4.0,1.0,6.0,0.0,0.0,6.0,1.0,phase_2,stop,600.0,550.0,4.0,,,,,,,,,orange,diamond
0.0,2.0,2.0,0.0,5.0,5.0,872.1918259998347,6.0,1.0,phase_2,go,600.0,600.0,1.0,,,,,,,,,green,I
0.0,2.0,2.0,0.0,5.0,5.0,780.5413819996829,6.0,1.0,phase_2,go,600.0,600.0,1.0,,,,,,,,,green,I
0.0,6.0,2.0,1.0,6.0,6.0,454.3277849998048,7.0,1.0,phase_2,stop,600.0,600.0,3.0,,,,,,,,,cyan,square
0.0,8.0,4.0,1.0,5.0,5.0,539.721745999941,7.0,1.0,phase_2,stop,600.0,550.0,3.0,,,,,,,,,orange,diamond
0.0,7.0,3.0,1.0,5.0,5.0,512.826362999931,7.0,1.0,phase_2,stop,550.0,550.0,3.0,,,,,,,,,white,triangle
0.0,1.0,1.0,0.0,5.0,5.0,456.574905999787,7.0,1.0,phase_2,go,500.0,550.0,1.0,,,,,,,,,yellow,hexagon
0.0,3.0,3.0,0.0,6.0,6.0,604.3928029998824,7.0,1.0,phase_2,go,500.0,550.0,1.0,,,,,,,,,blue,flipped triangle
0.0,6.0,2.0,1.0,5.0,5.0,612.6483859998189,7.0,1.0,phase_2,stop,500.0,550.0,3.0,,,,,,,,,cyan,square
0.0,5.0,1.0,1.0,5.0,5.0,664.8056349999933,7.0,1.0,phase_2,stop,450.0,550.0,3.0,,,,,,,,,gray,circle
0.0,6.0,2.0,1.0,6.0,6.0,698.837924000145,7.0,1.0,phase_2,stop,400.0,550.0,3.0,,,,,,,,,cyan,square
0.0,4.0,4.0,0.0,5.0,5.0,659.6956939997654,7.0,1.0,phase_2,go,400.0,500.0,1.0,,,,,,,,,magenta,cross
0.0,5.0,1.0,1.0,6.0,6.0,724.9813039998116,7.0,1.0,phase_2,go,400.0,500.0,1.0,,,,,,,,,gray,circle
0.0,6.0,2.0,1.0,5.0,0.0,0.0,7.0,1.0,phase_2,stop,400.0,500.0,4.0,,,,,,,,,cyan,square
0.0,2.0,2.0,0.0,5.0,5.0,678.5896420001336,7.0,1.0,phase_2,go,450.0,500.0,1.0,,,,,,,,,green,I
0.0,3.0,3.0,0.0,5.0,5.0,754.0038259999164,7.0,1.0,phase_2,go,450.0,500.0,1.0,,,,,,,,,blue,flipped triangle
0.0,1.0,1.0,0.0,5.0,5.0,558.6996520000866,7.0,1.0,phase_2,go,450.0,500.0,1.0,,,,,,,,,yellow,hexagon
0.0,1.0,1.0,0.0,6.0,6.0,502.8031739998369,7.0,1.0,phase_2,go,450.0,500.0,1.0,,,,,,,,,yellow,hexagon
0.0,1.0,1.0,0.0,6.0,6.0,557.2932400000354,7.0,1.0,phase_2,go,450.0,500.0,1.0,,,,,,,,,yellow,hexagon
0.0,7.0,3.0,1.0,6.0,6.0,594.8083359999146,7.0,1.0,phase_2,go,450.0,500.0,1.0,,,,,,,,,white,triangle
0.0,6.0,2.0,1.0,6.0,6.0,530.5305179999777,7.0,1.0,phase_2,stop,450.0,500.0,3.0,,,,,,,,,cyan,square
0.0,1.0,1.0,0.0,6.0,6.0,1059.5561649997762,7.0,1.0,phase_2,go,450.0,450.0,1.0,,,,,,,,,yellow,hexagon
0.0,8.0,4.0,1.0,6.0,0.0,0.0,7.0,1.0,phase_2,stop,450.0,450.0,4.0,,,,,,,,,orange,diamond
0.0,1.0,1.0,0.0,6.0,6.0,744.7063429999616,7.0,1.0,phase_2,go,450.0,500.0,1.0,,,,,,,,,yellow,hexagon
0.0,2.0,2.0,0.0,5.0,5.0,660.9246929997425,7.0,1.0,phase_2,go,450.0,500.0,1.0,,,,,,,,,green,I
0.0,7.0,3.0,1.0,6.0,0.0,0.0,7.0,1.0,phase_2,stop,450.0,500.0,4.0,,,,,,,,,white,triangle
0.0,4.0,4.0,0.0,5.0,5.0,754.2893150002783,7.0,1.0,phase_2,go,450.0,550.0,1.0,,,,,,,,,magenta,cross
0.0,4.0,4.0,0.0,5.0,5.0,865.3179570001157,7.0,1.0,phase_2,go,450.0,550.0,1.0,,,,,,,,,magenta,cross
0.0,5.0,1.0,1.0,5.0,0.0,0.0,7.0,1.0,phase_2,stop,450.0,550.0,4.0,,,,,,,,,gray,circle
0.0,5.0,1.0,1.0,6.0,6.0,602.2740009998415,7.0,1.0,phase_2,stop,500.0,550.0,3.0,,,,,,,,,gray,circle
0.0,1.0,1.0,0.0,5.0,5.0,765.0575289999324,7.0,1.0,phase_2,go,500.0,500.0,1.0,,,,,,,,,yellow,hexagon
0.0,5.0,1.0,1.0,6.0,0.0,0.0,7.0,1.0,phase_2,stop,500.0,500.0,4.0,,,,,,,,,gray,circle
0.0,4.0,4.0,0.0,6.0,6.0,567.9336900002454,7.0,1.0,phase_2,go,500.0,550.0,1.0,,,,,,,,,magenta,cross
0.0,7.0,3.0,1.0,6.0,0.0,0.0,7.0,1.0,phase_2,stop,500.0,550.0,4.0,,,,,,,,,white,triangle
0.0,5.0,1.0,1.0,6.0,6.0,651.8578730001536,7.0,1.0,phase_2,go,500.0,600.0,1.0,,,,,,,,,gray,circle
0.0,2.0,2.0,0.0,6.0,6.0,697.6695819998895,7.0,1.0,phase_2,go,500.0,600.0,1.0,,,,,,,,,green,I
0.0,8.0,4.0,1.0,5.0,5.0,614.0827609997359,7.0,1.0,phase_2,go,500.0,600.0,1.0,,,,,,,,,orange,diamond
0.0,5.0,1.0,1.0,6.0,6.0,632.4333050001769,7.0,1.0,phase_2,stop,500.0,600.0,3.0,,,,,,,,,gray,circle
0.0,2.0,2.0,0.0,6.0,6.0,604.225655999926,7.0,1.0,phase_2,go,500.0,550.0,1.0,,,,,,,,,green,I
0.0,6.0,2.0,1.0,5.0,5.0,581.1046669996358,8.0,1.0,phase_2,stop,500.0,550.0,3.0,,,,,,,,,cyan,square
0.0,7.0,3.0,1.0,5.0,5.0,539.3760260003546,8.0,1.0,phase_2,stop,450.0,550.0,3.0,,,,,,,,,white,triangle
0.0,4.0,4.0,0.0,6.0,6.0,541.5197050001552,8.0,1.0,phase_2,go,400.0,550.0,1.0,,,,,,,,,magenta,cross
0.0,2.0,2.0,0.0,6.0,6.0,660.5665430001864,8.0,1.0,phase_2,go,400.0,550.0,1.0,,,,,,,,,green,I
0.0,1.0,1.0,0.0,5.0,5.0,607.2533359997578,8.0,1.0,phase_2,go,400.0,550.0,1.0,,,,,,,,,yellow,hexagon
0.0,7.0,3.0,1.0,6.0,6.0,261.8072969999048,8.0,1.0,phase_2,stop,400.0,550.0,3.0,,,,,,,,,white,triangle
0.0,7.0,3.0,1.0,5.0,0.0,0.0,8.0,1.0,phase_2,stop,400.0,500.0,4.0,,,,,,,,,white,triangle
0.0,4.0,4.0,0.0,6.0,6.0,651.3372690001233,8.0,1.0,phase_2,go,450.0,500.0,1.0,,,,,,,,,magenta,cross
0.0,3.0,3.0,0.0,5.0,5.0,568.716151999979,8.0,1.0,phase_2,go,450.0,500.0,1.0,,,,,,,,,blue,flipped triangle
0.0,2.0,2.0,0.0,5.0,5.0,596.3134789999458,8.0,1.0,phase_2,go,450.0,500.0,1.0,,,,,,,,,green,I
0.0,6.0,2.0,1.0,5.0,0.0,0.0,8.0,1.0,phase_2,stop,450.0,500.0,4.0,,,,,,,,,cyan,square
0.0,1.0,1.0,0.0,6.0,6.0,707.5588309999148,8.0,1.0,phase_2,go,500.0,500.0,1.0,,,,,,,,,yellow,hexagon
0.0,8.0,4.0,1.0,6.0,6.0,605.0804229998903,8.0,1.0,phase_2,go,500.0,500.0,1.0,,,,,,,,,orange,diamond
0.0,8.0,4.0,1.0,6.0,6.0,614.031524999973,8.0,1.0,phase_2,stop,500.0,500.0,3.0,,,,,,,,,orange,diamond
0.0,6.0,2.0,1.0,6.0,6.0,650.2678060001017,8.0,1.0,phase_2,stop,500.0,450.0,3.0,,,,,,,,,cyan,square
0.0,8.0,4.0,1.0,6.0,6.0,775.6586089999473,8.0,1.0,phase_2,go,500.0,400.0,1.0,,,,,,,,,orange,diamond
0.0,5.0,1.0,1.0,5.0,5.0,642.0241240002724,8.0,1.0,phase_2,stop,500.0,400.0,3.0,,,,,,,,,gray,circle
0.0,6.0,2.0,1.0,6.0,0.0,0.0,8.0,1.0,phase_2,stop,450.0,400.0,4.0,,,,,,,,,cyan,square
0.0,6.0,2.0,1.0,5.0,0.0,0.0,8.0,1.0,phase_2,stop,450.0,450.0,4.0,,,,,,,,,cyan,square
0.0,3.0,3.0,0.0,5.0,5.0,465.836506999949,8.0,1.0,phase_2,go,500.0,450.0,1.0,,,,,,,,,blue,flipped triangle
0.0,7.0,3.0,1.0,6.0,6.0,580.7362499999726,8.0,1.0,phase_2,go,500.0,450.0,1.0,,,,,,,,,white,triangle
0.0,7.0,3.0,1.0,6.0,0.0,0.0,8.0,1.0,phase_2,stop,500.0,450.0,4.0,,,,,,,,,white,triangle
0.0,5.0,1.0,1.0,5.0,5.0,811.477965999984,8.0,1.0,phase_2,go,500.0,500.0,1.0,,,,,,,,,gray,circle
0.0,3.0,3.0,0.0,6.0,6.0,640.9798079998836,8.0,1.0,phase_2,go,500.0,500.0,1.0,,,,,,,,,blue,flipped triangle
0.0,1.0,1.0,0.0,5.0,5.0,568.434156999956,8.0,1.0,phase_2,go,500.0,500.0,1.0,,,,,,,,,yellow,hexagon
0.0,7.0,3.0,1.0,6.0,0.0,0.0,8.0,1.0,phase_2,stop,500.0,500.0,4.0,,,,,,,,,white,triangle
0.0,4.0,4.0,0.0,6.0,6.0,419.9295969997365,8.0,1.0,phase_2,go,500.0,550.0,1.0,,,,,,,,,magenta,cross
0.0,6.0,2.0,1.0,6.0,6.0,520.0618310000209,8.0,1.0,phase_2,go,500.0,550.0,1.0,,,,,,,,,cyan,square
0.0,5.0,1.0,1.0,6.0,6.0,326.6075419996923,8.0,1.0,phase_2,go,500.0,550.0,1.0,,,,,,,,,gray,circle
0.0,8.0,4.0,1.0,6.0,6.0,596.1904139999206,8.0,1.0,phase_2,stop,500.0,550.0,3.0,,,,,,,,,orange,diamond
0.0,8.0,4.0,1.0,5.0,5.0,619.5803460000207,8.0,1.0,phase_2,stop,500.0,500.0,3.0,,,,,,,,,orange,diamond
0.0,3.0,3.0,0.0,6.0,6.0,688.4896990000016,8.0,1.0,phase_2,go,450.0,500.0,1.0,,,,,,,,,blue,flipped triangle
0.0,8.0,4.0,1.0,5.0,0.0,0.0,8.0,1.0,phase_2,stop,450.0,500.0,4.0,,,,,,,,,orange,diamond
0.0,8.0,4.0,1.0,6.0,6.0,545.1848519996929,8.0,1.0,phase_2,stop,500.0,500.0,3.0,,,,,,,,,orange,diamond
0.0,4.0,4.0,0.0,5.0,5.0,709.055019999596,8.0,1.0,phase_2,go,500.0,450.0,1.0,,,,,,,,,magenta,cross
0.0,8.0,4.0,1.0,5.0,5.0,488.4825639996961,8.0,1.0,phase_2,stop,500.0,450.0,3.0,,,,,,,,,orange,diamond
0.0,8.0,4.0,1.0,7.0,3.0,876.2996640007259,1.0,2.0,phase_3,,,,,810.0,6.0,405.0,675.0,810.0,540.0,270.0,135.0,orange,diamond
0.0,2.0,2.0,0.0,7.0,2.0,3033.349681999425,1.0,1.0,phase_3,,,,,462.0,3.0,154.0,462.0,308.0,616.0,924.0,770.0,green,I
0.0,2.0,2.0,0.0,7.0,3.0,2729.493678999461,1.0,1.0,phase_3,,,,,519.0,3.0,692.0,1038.0,519.0,173.0,346.0,865.0,green,I
0.0,1.0,1.0,0.0,7.0,6.0,3901.564371999484,1.0,1.0,phase_3,,,,,576.0,3.0,1152.0,384.0,768.0,192.0,960.0,576.0,yellow,hexagon
0.0,6.0,2.0,1.0,7.0,4.0,1970.649812999909,1.0,1.0,phase_3,,,,,154.0,1.0,770.0,616.0,462.0,154.0,924.0,308.0,cyan,square
0.0,6.0,2.0,1.0,7.0,5.0,4854.919463999977,1.0,1.0,phase_3,,,,,384.0,2.0,576.0,960.0,768.0,1152.0,384.0,192.0,cyan,square
0.0,5.0,1.0,1.0,7.0,1.0,1898.6617609998573,1.0,1.0,phase_3,,,,,135.0,1.0,135.0,540.0,810.0,675.0,405.0,270.0,gray,circle
0.0,3.0,3.0,0.0,7.0,6.0,1604.286306999711,1.0,1.0,phase_3,,,,,616.0,4.0,770.0,154.0,308.0,924.0,462.0,616.0,blue,flipped triangle
0.0,4.0,4.0,0.0,7.0,4.0,3582.128039000054,1.0,1.0,phase_3,,,,,696.0,6.0,116.0,580.0,464.0,696.0,232.0,348.0,magenta,cross
0.0,6.0,2.0,1.0,7.0,5.0,3458.4799240001303,1.0,1.0,phase_3,,,,,675.0,5.0,270.0,810.0,540.0,405.0,675.0,135.0,cyan,square
0.0,6.0,2.0,1.0,7.0,2.0,2279.566742000497,1.0,1.0,phase_3,,,,,675.0,5.0,270.0,675.0,405.0,135.0,810.0,540.0,cyan,square
0.0,3.0,3.0,0.0,7.0,1.0,3625.08448600056,1.0,1.0,phase_3,,,,,580.0,5.0,580.0,464.0,696.0,232.0,348.0,116.0,blue,flipped triangle
0.0,7.0,3.0,1.0,7.0,1.0,1764.6478509996086,1.0,1.0,phase_3,,,,,135.0,1.0,135.0,540.0,810.0,675.0,405.0,270.0,white,triangle
0.0,5.0,1.0,1.0,7.0,1.0,1908.1264929991448,1.0,1.0,phase_3,,,,,192.0,1.0,192.0,960.0,768.0,1152.0,576.0,384.0,gray,circle
0.0,8.0,4.0,1.0,7.0,1.0,1933.878935999928,1.0,1.0,phase_3,,,,,1152.0,6.0,1152.0,384.0,576.0,192.0,960.0,768.0,orange,diamond
0.0,1.0,1.0,0.0,7.0,2.0,2983.367361999626,1.0,1.0,phase_3,,,,,405.0,3.0,810.0,405.0,675.0,270.0,135.0,540.0,yellow,hexagon
0.0,3.0,3.0,0.0,7.0,5.0,2832.192187000146,1.0,1.0,phase_3,,,,,616.0,4.0,154.0,924.0,308.0,462.0,616.0,770.0,blue,flipped triangle
0.0,3.0,3.0,0.0,7.0,3.0,2138.4536630002917,1.0,1.0,phase_3,,,,,692.0,4.0,1038.0,173.0,692.0,346.0,519.0,865.0,blue,flipped triangle
0.0,4.0,4.0,0.0,7.0,1.0,4200.049097999909,1.0,1.0,phase_3,,,,,696.0,6.0,696.0,464.0,116.0,580.0,348.0,232.0,magenta,cross
0.0,4.0,4.0,0.0,7.0,5.0,3309.032201000264,1.0,1.0,phase_3,,,,,810.0,6.0,135.0,405.0,270.0,675.0,810.0,540.0,magenta,cross
0.0,1.0,1.0,0.0,7.0,4.0,1986.67542199928,2.0,1.0,phase_3,,,,,232.0,2.0,348.0,464.0,696.0,232.0,116.0,580.0,yellow,hexagon
0.0,6.0,2.0,1.0,7.0,3.0,3525.235326999791,2.0,1.0,phase_3,,,,,116.0,1.0,696.0,464.0,116.0,232.0,580.0,348.0,cyan,square
0.0,3.0,3.0,0.0,7.0,4.0,3207.948537000448,2.0,1.0,phase_3,,,,,576.0,3.0,192.0,960.0,768.0,576.0,1152.0,384.0,blue,flipped triangle
0.0,5.0,1.0,1.0,7.0,4.0,1079.5920319997094,2.0,1.0,phase_3,,,,,154.0,1.0,770.0,462.0,308.0,154.0,924.0,616.0,gray,circle
0.0,7.0,3.0,1.0,7.0,6.0,2273.507046999839,2.0,1.0,phase_3,,,,,232.0,2.0,348.0,116.0,580.0,696.0,464.0,232.0,white,triangle
0.0,2.0,2.0,0.0,7.0,1.0,2553.178428000137,2.0,1.0,phase_3,,,,,405.0,3.0,405.0,675.0,540.0,135.0,270.0,810.0,green,I
0.0,1.0,1.0,0.0,7.0,6.0,3220.8980120003616,2.0,1.0,phase_3,,,,,675.0,5.0,270.0,540.0,810.0,405.0,135.0,675.0,yellow,hexagon
0.0,4.0,4.0,0.0,7.0,2.0,2399.22425199984,2.0,1.0,phase_3,,,,,1152.0,6.0,192.0,1152.0,768.0,960.0,384.0,576.0,magenta,cross
0.0,8.0,4.0,1.0,7.0,4.0,1533.3759180002744,2.0,1.0,phase_3,,,,,1038.0,6.0,519.0,692.0,865.0,1038.0,346.0,173.0,orange,diamond
0.0,5.0,1.0,1.0,7.0,1.0,1640.2670639999997,2.0,1.0,phase_3,,,,,116.0,1.0,116.0,464.0,696.0,580.0,232.0,348.0,gray,circle
0.0,8.0,4.0,1.0,7.0,4.0,1679.9849150002046,2.0,1.0,phase_3,,,,,810.0,6.0,405.0,135.0,270.0,810.0,540.0,675.0,orange,diamond
0.0,7.0,3.0,1.0,7.0,2.0,2351.859227000205,2.0,1.0,phase_3,,,,,384.0,2.0,192.0,384.0,576.0,1152.0,768.0,960.0,white,triangle
0.0,4.0,4.0,0.0,7.0,4.0,1660.8614149999994,2.0,1.0,phase_3,,,,,924.0,6.0,154.0,616.0,770.0,924.0,308.0,462.0,magenta,cross
0.0,8.0,4.0,1.0,7.0,2.0,3993.7592579999546,2.0,1.0,phase_3,,,,,348.0,3.0,696.0,348.0,464.0,580.0,232.0,116.0,orange,diamond
0.0,1.0,1.0,0.0,7.0,3.0,3529.108179999639,2.0,1.0,phase_3,,,,,346.0,2.0,865.0,692.0,346.0,519.0,173.0,1038.0,yellow,hexagon
0.0,8.0,4.0,1.0,7.0,5.0,2537.436517999595,2.0,1.0,phase_3,,,,,696.0,6.0,116.0,580.0,232.0,464.0,696.0,348.0,orange,diamond
0.0,7.0,3.0,1.0,7.0,3.0,2181.034076999822,2.0,1.0,phase_3,,,,,462.0,3.0,154.0,770.0,462.0,616.0,924.0,308.0,white,triangle
0.0,3.0,3.0,0.0,7.0,2.0,2457.8648010001416,2.0,1.0,phase_3,,,,,675.0,5.0,405.0,675.0,135.0,270.0,540.0,810.0,blue,flipped triangle
0.0,3.0,3.0,0.0,7.0,6.0,2774.909626000408,2.0,1.0,phase_3,,,,,405.0,3.0,135.0,810.0,270.0,675.0,540.0,405.0,blue,flipped triangle
0.0,6.0,2.0,1.0,7.0,2.0,1968.7151489997632,2.0,1.0,phase_3,,,,,346.0,2.0,519.0,346.0,692.0,865.0,1038.0,173.0,cyan,square
0.0,2.0,2.0,0.0,7.0,4.0,1100.339919999897,3.0,1.0,phase_3,,,,,384.0,2.0,1152.0,960.0,576.0,384.0,192.0,768.0,green,I
0.0,6.0,2.0,1.0,7.0,2.0,2341.992491000383,3.0,1.0,phase_3,,,,,464.0,4.0,696.0,464.0,580.0,348.0,232.0,116.0,cyan,square
0.0,5.0,1.0,1.0,7.0,2.0,1487.6028520002365,3.0,1.0,phase_3,,,,,135.0,1.0,270.0,135.0,405.0,675.0,540.0,810.0,gray,circle
0.0,3.0,3.0,0.0,7.0,5.0,1568.1855920001908,3.0,1.0,phase_3,,,,,384.0,2.0,192.0,576.0,1152.0,768.0,384.0,960.0,blue,flipped triangle
0.0,2.0,2.0,0.0,7.0,4.0,2771.7956870001217,3.0,1.0,phase_3,,,,,348.0,3.0,580.0,464.0,232.0,348.0,696.0,116.0,green,I
0.0,2.0,2.0,0.0,7.0,5.0,1929.98740099938,3.0,1.0,phase_3,,,,,405.0,3.0,135.0,675.0,270.0,540.0,405.0,810.0,green,I
0.0,1.0,1.0,0.0,7.0,2.0,3069.623200000024,3.0,1.0,phase_3,,,,,346.0,2.0,865.0,346.0,1038.0,173.0,519.0,692.0,yellow,hexagon
0.0,4.0,4.0,0.0,7.0,3.0,1204.1329319999932,3.0,1.0,phase_3,,,,,1152.0,6.0,384.0,192.0,1152.0,576.0,960.0,768.0,magenta,cross
0.0,8.0,4.0,1.0,7.0,6.0,3025.5050929999925,3.0,1.0,phase_3,,,,,924.0,6.0,770.0,462.0,154.0,308.0,616.0,924.0,orange,diamond
0.0,7.0,3.0,1.0,7.0,6.0,3138.062103000266,3.0,1.0,phase_3,,,,,346.0,2.0,692.0,865.0,519.0,1038.0,173.0,346.0,white,triangle
0.0,6.0,2.0,1.0,7.0,1.0,2003.0836700007058,3.0,1.0,phase_3,,,,,384.0,2.0,384.0,960.0,768.0,576.0,192.0,1152.0,cyan,square
0.0,4.0,4.0,0.0,7.0,1.0,1068.2486929999868,3.0,1.0,phase_3,,,,,1038.0,6.0,1038.0,519.0,865.0,346.0,692.0,173.0,magenta,cross
0.0,3.0,3.0,0.0,7.0,1.0,2732.031590000588,3.0,1.0,phase_3,,,,,346.0,2.0,346.0,1038.0,865.0,173.0,692.0,519.0,blue,flipped triangle
0.0,3.0,3.0,0.0,7.0,5.0,2166.773657999329,3.0,1.0,phase_3,,,,,232.0,2.0,464.0,580.0,696.0,116.0,232.0,348.0,blue,flipped triangle
0.0,7.0,3.0,1.0,7.0,1.0,2613.632139999936,3.0,1.0,phase_3,,,,,462.0,3.0,462.0,154.0,770.0,924.0,308.0,616.0,white,triangle
0.0,8.0,4.0,1.0,7.0,2.0,1273.1438679993516,3.0,1.0,phase_3,,,,,1152.0,6.0,576.0,1152.0,960.0,192.0,384.0,768.0,orange,diamond
0.0,4.0,4.0,0.0,7.0,3.0,1761.5395840002748,3.0,1.0,phase_3,,,,,1038.0,6.0,692.0,346.0,1038.0,173.0,865.0,519.0,magenta,cross
0.0,5.0,1.0,1.0,7.0,3.0,1538.2016009998551,3.0,1.0,phase_3,,,,,173.0,1.0,865.0,519.0,173.0,346.0,692.0,1038.0,gray,circle
0.0,8.0,4.0,1.0,7.0,3.0,1926.9246539997769,3.0,1.0,phase_3,,,,,924.0,6.0,154.0,770.0,924.0,616.0,308.0,462.0,orange,diamond
0.0,8.0,4.0,1.0,7.0,2.0,904.3308199998136,3.0,1.0,phase_3,,,,,1038.0,6.0,692.0,1038.0,173.0,519.0,865.0,346.0,orange,diamond
0.0,2.0,2.0,0.0,7.0,4.0,2009.3488250004161,4.0,1.0,phase_3,,,,,308.0,2.0,462.0,770.0,154.0,308.0,616.0,924.0,green,I
0.0,5.0,1.0,1.0,7.0,4.0,3043.054236999524,4.0,1.0,phase_3,,,,,308.0,2.0,770.0,462.0,924.0,308.0,616.0,154.0,gray,circle
0.0,5.0,1.0,1.0,7.0,1.0,2330.84150600007,4.0,1.0,phase_3,,,,,173.0,1.0,173.0,1038.0,346.0,692.0,519.0,865.0,gray,circle
0.0,4.0,4.0,0.0,7.0,1.0,2459.9048500003846,4.0,1.0,phase_3,,,,,924.0,6.0,924.0,154.0,462.0,308.0,770.0,616.0,magenta,cross
0.0,1.0,1.0,0.0,7.0,4.0,2889.570600999832,4.0,1.0,phase_3,,,,,770.0,5.0,924.0,308.0,462.0,770.0,154.0,616.0,yellow,hexagon
0.0,5.0,1.0,1.0,7.0,6.0,1796.225453000261,4.0,1.0,phase_3,,,,,116.0,1.0,232.0,696.0,580.0,464.0,348.0,116.0,gray,circle
0.0,2.0,2.0,0.0,7.0,4.0,1694.6589150002185,4.0,1.0,phase_3,,,,,348.0,3.0,116.0,580.0,696.0,348.0,232.0,464.0,green,I
0.0,5.0,1.0,1.0,7.0,5.0,1527.0593409995854,4.0,1.0,phase_3,,,,,192.0,1.0,960.0,576.0,768.0,384.0,192.0,1152.0,gray,circle
0.0,7.0,3.0,1.0,7.0,2.0,2481.0672200001136,4.0,1.0,phase_3,,,,,232.0,2.0,580.0,232.0,464.0,348.0,116.0,696.0,white,triangle
0.0,4.0,4.0,0.0,7.0,6.0,1988.8961070000728,4.0,1.0,phase_3,,,,,810.0,6.0,405.0,675.0,540.0,135.0,270.0,810.0,magenta,cross
0.0,1.0,1.0,0.0,7.0,1.0,2059.804366000208,4.0,1.0,phase_3,,,,,384.0,2.0,384.0,192.0,960.0,768.0,576.0,1152.0,yellow,hexagon
0.0,1.0,1.0,0.0,7.0,3.0,2174.5833020004284,4.0,1.0,phase_3,,,,,154.0,1.0,924.0,308.0,154.0,616.0,770.0,462.0,yellow,hexagon
0.0,1.0,1.0,0.0,7.0,3.0,957.9071669995756,4.0,1.0,phase_3,,,,,348.0,3.0,116.0,464.0,348.0,696.0,232.0,580.0,yellow,hexagon
0.0,2.0,2.0,0.0,7.0,5.0,1685.4831030004789,4.0,1.0,phase_3,,,,,346.0,2.0,519.0,692.0,173.0,1038.0,346.0,865.0,green,I
0.0,7.0,3.0,1.0,7.0,2.0,2093.660409000222,4.0,1.0,phase_3,,,,,519.0,3.0,346.0,519.0,1038.0,692.0,865.0,173.0,white,triangle
0.0,7.0,3.0,1.0,7.0,5.0,3055.1002489992243,4.0,1.0,phase_3,,,,,384.0,2.0,1152.0,192.0,960.0,576.0,384.0,768.0,white,triangle
0.0,6.0,2.0,1.0,7.0,4.0,2163.5728520004704,4.0,1.0,phase_3,,,,,462.0,3.0,308.0,616.0,154.0,462.0,770.0,924.0,cyan,square
0.0,6.0,2.0,1.0,7.0,1.0,1936.531307000223,4.0,1.0,phase_3,,,,,346.0,2.0,346.0,865.0,519.0,692.0,1038.0,173.0,cyan,square
0.0,2.0,2.0,0.0,7.0,2.0,1532.487868000317,4.0,1.0,phase_3,,,,,192.0,1.0,384.0,192.0,576.0,768.0,960.0,1152.0,green,I
0.0,7.0,3.0,1.0,7.0,4.0,2103.192732000025,4.0,1.0,phase_3,,,,,405.0,3.0,135.0,675.0,270.0,405.0,810.0,540.0,white,triangle
