raw_reward_magnitude,stim_reward,stepwise_reward_magnitude,paired_with_stopping,quadrant,response,reaction_time,block,num_trial_presentations,which_part,stop_signal_trial_type,left_SSD,right_SSD,accuracy,chosen_bidding_amount,chosen_bidding_level,possible_bid_1,possible_bid_2,possible_bid_3,possible_bid_4,possible_bid_5,possible_bid_6,color_text,shape_text
0.0,8.0,0.0,1.0,1.0,1.0,855.8029830001033,1.0,1.0,part_1,,,,,,,,,,,,,green,I
661.0,3.0,3.0,0.0,4.0,4.0,492.0858509999561,1.0,1.0,part_1,,,,,,,,,,,,,white,square
0.0,5.0,0.0,1.0,1.0,1.0,492.7673980000691,1.0,1.0,part_1,,,,,,,,,,,,,magenta,circle
178.0,5.0,1.0,1.0,2.0,2.0,528.6091680000027,1.0,1.0,part_1,,,,,,,,,,,,,magenta,circle
311.0,6.0,2.0,1.0,4.0,4.0,408.8595960001839,1.0,1.0,part_1,,,,,,,,,,,,,yellow,triangle
337.0,6.0,2.0,1.0,4.0,4.0,472.7255299999342,1.0,1.0,part_1,,,,,,,,,,,,,yellow,triangle
306.0,6.0,2.0,1.0,3.0,3.0,411.0547220002445,1.0,1.0,part_1,,,,,,,,,,,,,yellow,triangle
345.0,6.0,2.0,1.0,1.0,1.0,418.4215699997367,1.0,1.0,part_1,,,,,,,,,,,,,yellow,triangle
334.0,2.0,2.0,0.0,4.0,4.0,371.8593880003027,1.0,1.0,part_1,,,,,,,,,,,,,blue,hexagon
310.0,6.0,2.0,1.0,1.0,1.0,400.1411550002558,1.0,1.0,part_1,,,,,,,,,,,,,yellow,triangle
347.0,2.0,2.0,0.0,2.0,2.0,445.7158079999317,1.0,1.0,part_1,,,,,,,,,,,,,blue,hexagon
668.0,3.0,3.0,0.0,4.0,4.0,667.2635179997997,1.0,1.0,part_1,,,,,,,,,,,,,white,square
306.0,2.0,2.0,0.0,1.0,1.0,389.959424999688,1.0,1.0,part_1,,,,,,,,,,,,,blue,hexagon
1276.0,8.0,4.0,1.0,3.0,3.0,481.8401810002797,1.0,1.0,part_1,,,,,,,,,,,,,green,I
300.0,6.0,2.0,1.0,2.0,2.0,353.5377930002141,1.0,1.0,part_1,,,,,,,,,,,,,yellow,triangle
0.0,2.0,0.0,0.0,3.0,3.0,399.3303449997256,1.0,1.0,part_1,,,,,,,,,,,,,blue,hexagon
645.0,3.0,3.0,0.0,4.0,4.0,437.6026700001603,1.0,1.0,part_1,,,,,,,,,,,,,white,square
0.0,1.0,0.0,0.0,2.0,2.0,400.2765189998172,1.0,1.0,part_1,,,,,,,,,,,,,gray,flipped triangle
146.0,5.0,1.0,1.0,1.0,1.0,548.3184529998653,1.0,1.0,part_1,,,,,,,,,,,,,magenta,circle
1301.0,4.0,4.0,0.0,1.0,1.0,409.2082160000245,1.0,1.0,part_1,,,,,,,,,,,,,cyan,diamond
1277.0,4.0,4.0,0.0,3.0,3.0,427.7801069997622,1.0,1.0,part_1,,,,,,,,,,,,,cyan,diamond
1319.0,4.0,4.0,0.0,4.0,4.0,380.5200360002345,1.0,1.0,part_1,,,,,,,,,,,,,cyan,diamond
1309.0,8.0,4.0,1.0,1.0,1.0,371.7884969996703,1.0,1.0,part_1,,,,,,,,,,,,,green,I
667.0,3.0,3.0,0.0,4.0,4.0,455.144478999955,1.0,1.0,part_1,,,,,,,,,,,,,white,square
643.0,7.0,3.0,1.0,2.0,2.0,400.48428099999,1.0,1.0,part_1,,,,,,,,,,,,,orange,cross
1294.0,4.0,4.0,0.0,4.0,4.0,409.0214059997379,1.0,1.0,part_1,,,,,,,,,,,,,cyan,diamond
309.0,6.0,2.0,1.0,2.0,2.0,334.8961890001192,1.0,1.0,part_1,,,,,,,,,,,,,yellow,triangle
642.0,3.0,3.0,0.0,2.0,2.0,315.8204950000254,1.0,1.0,part_1,,,,,,,,,,,,,white,square
0.0,5.0,0.0,1.0,2.0,2.0,371.4135899999746,1.0,1.0,part_1,,,,,,,,,,,,,magenta,circle
0.0,7.0,0.0,1.0,4.0,4.0,417.9149000001416,1.0,1.0,part_1,,,,,,,,,,,,,orange,cross
0.0,2.0,0.0,0.0,2.0,2.0,398.1655799998407,1.0,1.0,part_1,,,,,,,,,,,,,blue,hexagon
1301.0,8.0,4.0,1.0,4.0,4.0,481.4370429999144,1.0,1.0,part_1,,,,,,,,,,,,,green,I
155.0,5.0,1.0,1.0,1.0,1.0,527.3259610003151,1.0,1.0,part_1,,,,,,,,,,,,,magenta,circle
0.0,3.0,0.0,0.0,1.0,1.0,379.5997840002201,1.0,1.0,part_1,,,,,,,,,,,,,white,square
0.0,6.0,0.0,1.0,3.0,3.0,647.8744720002396,1.0,1.0,part_1,,,,,,,,,,,,,yellow,triangle
327.0,2.0,2.0,0.0,3.0,3.0,501.10752899990985,1.0,1.0,part_1,,,,,,,,,,,,,blue,hexagon
0.0,1.0,0.0,0.0,3.0,3.0,403.2760879999841,1.0,1.0,part_1,,,,,,,,,,,,,gray,flipped triangle
651.0,7.0,3.0,1.0,4.0,4.0,354.8274960003255,1.0,1.0,part_1,,,,,,,,,,,,,orange,cross
163.0,1.0,1.0,0.0,2.0,2.0,389.3011649997788,1.0,1.0,part_1,,,,,,,,,,,,,gray,flipped triangle
320.0,2.0,2.0,0.0,2.0,2.0,370.4969740001615,1.0,1.0,part_1,,,,,,,,,,,,,blue,hexagon
673.0,3.0,3.0,0.0,2.0,2.0,333.3077100000992,1.0,1.0,part_1,,,,,,,,,,,,,white,square
1321.0,8.0,4.0,1.0,2.0,2.0,341.550596000161,1.0,1.0,part_1,,,,,,,,,,,,,green,I
1316.0,4.0,4.0,0.0,3.0,3.0,565.1461279999239,1.0,1.0,part_1,,,,,,,,,,,,,cyan,diamond
1288.0,8.0,4.0,1.0,2.0,2.0,417.4911070003873,1.0,1.0,part_1,,,,,,,,,,,,,green,I
144.0,1.0,1.0,0.0,1.0,1.0,352.2687359995871,1.0,1.0,part_1,,,,,,,,,,,,,gray,flipped triangle
658.0,3.0,3.0,0.0,4.0,4.0,500.1280679998672,1.0,1.0,part_1,,,,,,,,,,,,,white,square
1288.0,4.0,4.0,0.0,3.0,3.0,418.4143500001482,1.0,1.0,part_1,,,,,,,,,,,,,cyan,diamond
0.0,6.0,0.0,1.0,4.0,4.0,508.99644600031024,1.0,1.0,part_1,,,,,,,,,,,,,yellow,triangle
159.0,1.0,1.0,0.0,3.0,3.0,416.1384469998666,1.0,1.0,part_1,,,,,,,,,,,,,gray,flipped triangle
1313.0,4.0,4.0,0.0,3.0,3.0,510.0979650001136,1.0,1.0,part_1,,,,,,,,,,,,,cyan,diamond
660.0,7.0,3.0,1.0,2.0,2.0,536.6715279997152,1.0,1.0,part_1,,,,,,,,,,,,,orange,cross
186.0,1.0,1.0,0.0,2.0,2.0,481.7984090000209,1.0,1.0,part_1,,,,,,,,,,,,,gray,flipped triangle
173.0,1.0,1.0,0.0,3.0,3.0,538.9108499998656,1.0,1.0,part_1,,,,,,,,,,,,,gray,flipped triangle
1309.0,4.0,4.0,0.0,1.0,1.0,417.8836490000321,1.0,1.0,part_1,,,,,,,,,,,,,cyan,diamond
141.0,1.0,1.0,0.0,2.0,2.0,472.356579999996,1.0,1.0,part_1,,,,,,,,,,,,,gray,flipped triangle
181.0,5.0,1.0,1.0,4.0,4.0,492.3283910002283,1.0,1.0,part_1,,,,,,,,,,,,,magenta,circle
0.0,4.0,0.0,0.0,1.0,1.0,492.2947889999705,1.0,1.0,part_1,,,,,,,,,,,,,cyan,diamond
307.0,6.0,2.0,1.0,1.0,1.0,453.6156129997835,1.0,1.0,part_1,,,,,,,,,,,,,yellow,triangle
0.0,5.0,0.0,1.0,3.0,3.0,565.4729160000898,1.0,1.0,part_1,,,,,,,,,,,,,magenta,circle
148.0,5.0,1.0,1.0,3.0,3.0,509.9874870002168,1.0,1.0,part_1,,,,,,,,,,,,,magenta,circle
0.0,5.0,0.0,1.0,3.0,3.0,353.8326530001541,1.0,1.0,part_1,,,,,,,,,,,,,magenta,circle
167.0,5.0,1.0,1.0,1.0,1.0,380.4910969997763,1.0,1.0,part_1,,,,,,,,,,,,,magenta,circle
1319.0,8.0,4.0,1.0,3.0,3.0,434.4538080003985,1.0,1.0,part_1,,,,,,,,,,,,,green,I
1306.0,4.0,4.0,0.0,1.0,1.0,436.4500659999066,1.0,1.0,part_1,,,,,,,,,,,,,cyan,diamond
1313.0,8.0,4.0,1.0,3.0,3.0,362.1716029997515,1.0,1.0,part_1,,,,,,,,,,,,,green,I
1276.0,8.0,4.0,1.0,2.0,2.0,519.1255760000786,1.0,1.0,part_1,,,,,,,,,,,,,green,I
0.0,4.0,0.0,0.0,1.0,1.0,492.9348389996448,1.0,1.0,part_1,,,,,,,,,,,,,cyan,diamond
1313.0,4.0,4.0,0.0,3.0,3.0,510.7460959998207,1.0,1.0,part_1,,,,,,,,,,,,,cyan,diamond
668.0,7.0,3.0,1.0,4.0,4.0,705.3498029999901,1.0,1.0,part_1,,,,,,,,,,,,,orange,cross
655.0,3.0,3.0,0.0,1.0,1.0,539.290348999657,1.0,1.0,part_1,,,,,,,,,,,,,white,square
0.0,1.0,0.0,0.0,3.0,3.0,445.0869739998779,1.0,1.0,part_1,,,,,,,,,,,,,gray,flipped triangle
184.0,1.0,1.0,0.0,4.0,4.0,805.8794779999516,1.0,1.0,part_1,,,,,,,,,,,,,gray,flipped triangle
139.0,1.0,1.0,0.0,1.0,1.0,621.5259579998929,1.0,1.0,part_1,,,,,,,,,,,,,gray,flipped triangle
655.0,3.0,3.0,0.0,3.0,3.0,428.8459479998892,1.0,1.0,part_1,,,,,,,,,,,,,white,square
316.0,2.0,2.0,0.0,2.0,2.0,528.9354110000204,1.0,1.0,part_1,,,,,,,,,,,,,blue,hexagon
637.0,3.0,3.0,0.0,1.0,1.0,526.3965399999506,1.0,1.0,part_1,,,,,,,,,,,,,white,square
186.0,1.0,1.0,0.0,2.0,2.0,490.3807069999857,1.0,1.0,part_1,,,,,,,,,,,,,gray,flipped triangle
639.0,3.0,3.0,0.0,3.0,3.0,500.4843339997933,1.0,1.0,part_1,,,,,,,,,,,,,white,square
334.0,6.0,2.0,1.0,1.0,1.0,416.6300770002635,1.0,1.0,part_1,,,,,,,,,,,,,yellow,triangle
1317.0,8.0,4.0,1.0,4.0,4.0,362.0198829999026,1.0,1.0,part_1,,,,,,,,,,,,,green,I
1317.0,4.0,4.0,0.0,1.0,1.0,537.6509399998213,1.0,1.0,part_1,,,,,,,,,,,,,cyan,diamond
333.0,6.0,2.0,1.0,3.0,3.0,417.0613419996698,1.0,1.0,part_1,,,,,,,,,,,,,yellow,triangle
658.0,7.0,3.0,1.0,3.0,3.0,362.1745999998893,1.0,1.0,part_1,,,,,,,,,,,,,orange,cross
641.0,3.0,3.0,0.0,4.0,4.0,453.7029539997093,1.0,1.0,part_1,,,,,,,,,,,,,white,square
1299.0,8.0,4.0,1.0,1.0,1.0,463.0374950002078,1.0,1.0,part_1,,,,,,,,,,,,,green,I
344.0,6.0,2.0,1.0,4.0,4.0,565.1108120000572,1.0,1.0,part_1,,,,,,,,,,,,,yellow,triangle
170.0,5.0,1.0,1.0,2.0,2.0,499.5622609999373,1.0,1.0,part_1,,,,,,,,,,,,,magenta,circle
324.0,2.0,2.0,0.0,3.0,3.0,390.043321000121,1.0,1.0,part_1,,,,,,,,,,,,,blue,hexagon
1307.0,8.0,4.0,1.0,4.0,4.0,620.882772999721,1.0,1.0,part_1,,,,,,,,,,,,,green,I
160.0,1.0,1.0,0.0,1.0,1.0,471.5981629997259,1.0,1.0,part_1,,,,,,,,,,,,,gray,flipped triangle
645.0,3.0,3.0,0.0,2.0,2.0,297.7609289996508,1.0,1.0,part_1,,,,,,,,,,,,,white,square
1301.0,4.0,4.0,0.0,4.0,4.0,361.0707769998953,1.0,1.0,part_1,,,,,,,,,,,,,cyan,diamond
316.0,6.0,2.0,1.0,4.0,4.0,421.0820980001699,1.0,1.0,part_1,,,,,,,,,,,,,yellow,triangle
342.0,2.0,2.0,0.0,3.0,3.0,352.5417379996725,1.0,1.0,part_1,,,,,,,,,,,,,blue,hexagon
139.0,5.0,1.0,1.0,3.0,3.0,388.289149999764,1.0,1.0,part_1,,,,,,,,,,,,,magenta,circle
155.0,1.0,1.0,0.0,4.0,4.0,434.6658899999056,1.0,1.0,part_1,,,,,,,,,,,,,gray,flipped triangle
0.0,7.0,0.0,1.0,3.0,3.0,380.7070210000347,1.0,1.0,part_1,,,,,,,,,,,,,orange,cross
349.0,6.0,2.0,1.0,1.0,1.0,509.69199700011814,1.0,2.0,part_1,,,,,,,,,,,,,yellow,triangle
1295.0,8.0,4.0,1.0,4.0,4.0,499.5919620000677,1.0,1.0,part_1,,,,,,,,,,,,,green,I
347.0,6.0,2.0,1.0,4.0,4.0,425.9388420000505,1.0,1.0,part_1,,,,,,,,,,,,,yellow,triangle
640.0,7.0,3.0,1.0,3.0,3.0,491.3298440001199,2.0,1.0,part_1,,,,,,,,,,,,,orange,cross
312.0,6.0,2.0,1.0,4.0,4.0,314.9223209998126,2.0,1.0,part_1,,,,,,,,,,,,,yellow,triangle
662.0,7.0,3.0,1.0,3.0,3.0,305.9170219999032,2.0,1.0,part_1,,,,,,,,,,,,,orange,cross
0.0,4.0,0.0,0.0,4.0,4.0,315.1325240000915,2.0,1.0,part_1,,,,,,,,,,,,,cyan,diamond
162.0,5.0,1.0,1.0,2.0,2.0,399.3575599997712,2.0,1.0,part_1,,,,,,,,,,,,,magenta,circle
342.0,6.0,2.0,1.0,2.0,2.0,586.8079089996172,2.0,1.0,part_1,,,,,,,,,,,,,yellow,triangle
0.0,4.0,0.0,0.0,2.0,2.0,409.2438669999865,2.0,1.0,part_1,,,,,,,,,,,,,cyan,diamond
301.0,2.0,2.0,0.0,1.0,1.0,406.1701779996838,2.0,1.0,part_1,,,,,,,,,,,,,blue,hexagon
0.0,1.0,0.0,0.0,4.0,4.0,471.8880209998133,2.0,1.0,part_1,,,,,,,,,,,,,gray,flipped triangle
635.0,3.0,3.0,0.0,2.0,2.0,611.4728320003451,2.0,1.0,part_1,,,,,,,,,,,,,white,square
661.0,7.0,3.0,1.0,3.0,3.0,436.0348300001533,2.0,1.0,part_1,,,,,,,,,,,,,orange,cross
655.0,7.0,3.0,1.0,1.0,1.0,463.0709889997888,2.0,1.0,part_1,,,,,,,,,,,,,orange,cross
0.0,5.0,0.0,1.0,4.0,4.0,417.5654680002481,2.0,1.0,part_1,,,,,,,,,,,,,magenta,circle
170.0,1.0,1.0,0.0,4.0,4.0,482.6744110000618,2.0,1.0,part_1,,,,,,,,,,,,,gray,flipped triangle
149.0,5.0,1.0,1.0,3.0,3.0,427.05478400012,2.0,1.0,part_1,,,,,,,,,,,,,magenta,circle
153.0,5.0,1.0,1.0,3.0,3.0,389.820568000232,2.0,1.0,part_1,,,,,,,,,,,,,magenta,circle
338.0,6.0,2.0,1.0,2.0,2.0,537.7158100000088,2.0,1.0,part_1,,,,,,,,,,,,,yellow,triangle
646.0,7.0,3.0,1.0,1.0,1.0,380.233526000211,2.0,1.0,part_1,,,,,,,,,,,,,orange,cross
0.0,1.0,0.0,0.0,1.0,1.0,519.2685530000745,2.0,1.0,part_1,,,,,,,,,,,,,gray,flipped triangle
1295.0,4.0,4.0,0.0,2.0,2.0,333.6997480000718,2.0,1.0,part_1,,,,,,,,,,,,,cyan,diamond
182.0,1.0,1.0,0.0,1.0,1.0,621.6739690003124,2.0,1.0,part_1,,,,,,,,,,,,,gray,flipped triangle
0.0,1.0,0.0,0.0,3.0,3.0,611.1235430003035,2.0,1.0,part_1,,,,,,,,,,,,,gray,flipped triangle
0.0,8.0,0.0,1.0,3.0,3.0,370.8480830000553,2.0,1.0,part_1,,,,,,,,,,,,,green,I
159.0,5.0,1.0,1.0,1.0,1.0,620.7576719998542,2.0,1.0,part_1,,,,,,,,,,,,,magenta,circle
1285.0,8.0,4.0,1.0,1.0,1.0,426.9882889998371,2.0,1.0,part_1,,,,,,,,,,,,,green,I
338.0,2.0,2.0,0.0,3.0,3.0,455.3002830002697,2.0,1.0,part_1,,,,,,,,,,,,,blue,hexagon
142.0,1.0,1.0,0.0,1.0,1.0,379.8925049995887,2.0,1.0,part_1,,,,,,,,,,,,,gray,flipped triangle
155.0,5.0,1.0,1.0,2.0,2.0,557.3363919997973,2.0,1.0,part_1,,,,,,,,,,,,,magenta,circle
630.0,7.0,3.0,1.0,2.0,2.0,531.5210700000534,2.0,1.0,part_1,,,,,,,,,,,,,orange,cross
0.0,3.0,0.0,0.0,1.0,1.0,491.265181000017,2.0,1.0,part_1,,,,,,,,,,,,,white,square
327.0,2.0,2.0,0.0,4.0,4.0,674.6269769996616,2.0,1.0,part_1,,,,,,,,,,,,,blue,hexagon
634.0,7.0,3.0,1.0,1.0,1.0,463.2544599999164,2.0,1.0,part_1,,,,,,,,,,,,,orange,cross
145.0,1.0,1.0,0.0,4.0,4.0,676.7920560000675,2.0,1.0,part_1,,,,,,,,,,,,,gray,flipped triangle
327.0,6.0,2.0,1.0,4.0,4.0,611.7926130000342,2.0,1.0,part_1,,,,,,,,,,,,,yellow,triangle
674.0,3.0,3.0,0.0,3.0,3.0,500.6609259999095,2.0,1.0,part_1,,,,,,,,,,,,,white,square
0.0,7.0,0.0,1.0,1.0,1.0,408.7593919998653,2.0,1.0,part_1,,,,,,,,,,,,,orange,cross
1295.0,8.0,4.0,1.0,1.0,1.0,629.14488899969,2.0,1.0,part_1,,,,,,,,,,,,,green,I
1303.0,4.0,4.0,0.0,3.0,3.0,435.2195040000879,2.0,1.0,part_1,,,,,,,,,,,,,cyan,diamond
1309.0,8.0,4.0,1.0,1.0,1.0,417.0577619997857,2.0,1.0,part_1,,,,,,,,,,,,,green,I
1314.0,8.0,4.0,1.0,4.0,4.0,379.6867740002199,2.0,1.0,part_1,,,,,,,,,,,,,green,I
324.0,2.0,2.0,0.0,4.0,4.0,446.066747000259,2.0,1.0,part_1,,,,,,,,,,,,,blue,hexagon
1280.0,8.0,4.0,1.0,4.0,4.0,417.2042549998878,2.0,1.0,part_1,,,,,,,,,,,,,green,I
349.0,6.0,2.0,1.0,1.0,1.0,538.534816000265,2.0,1.0,part_1,,,,,,,,,,,,,yellow,triangle
154.0,1.0,1.0,0.0,2.0,2.0,436.0898810000435,2.0,2.0,part_1,,,,,,,,,,,,,gray,flipped triangle
142.0,5.0,1.0,1.0,3.0,3.0,537.848767000014,2.0,1.0,part_1,,,,,,,,,,,,,magenta,circle
0.0,2.0,0.0,0.0,1.0,1.0,557.5037029998384,2.0,1.0,part_1,,,,,,,,,,,,,blue,hexagon
649.0,7.0,3.0,1.0,4.0,4.0,352.5739699998667,2.0,1.0,part_1,,,,,,,,,,,,,orange,cross
0.0,6.0,0.0,1.0,2.0,2.0,296.5799869998591,2.0,1.0,part_1,,,,,,,,,,,,,yellow,triangle
169.0,5.0,1.0,1.0,4.0,4.0,447.2534110000197,2.0,1.0,part_1,,,,,,,,,,,,,magenta,circle
162.0,1.0,1.0,0.0,4.0,4.0,410.827068999879,2.0,1.0,part_1,,,,,,,,,,,,,gray,flipped triangle
144.0,5.0,1.0,1.0,4.0,4.0,370.8961990000716,2.0,1.0,part_1,,,,,,,,,,,,,magenta,circle
1294.0,8.0,4.0,1.0,3.0,3.0,381.3916690000951,2.0,1.0,part_1,,,,,,,,,,,,,green,I
157.0,1.0,1.0,0.0,3.0,3.0,417.3793539998769,2.0,1.0,part_1,,,,,,,,,,,,,gray,flipped triangle
0.0,3.0,0.0,0.0,2.0,2.0,530.0367499999084,2.0,1.0,part_1,,,,,,,,,,,,,white,square
1307.0,4.0,4.0,0.0,4.0,4.0,463.6682650002512,2.0,1.0,part_1,,,,,,,,,,,,,cyan,diamond
674.0,7.0,3.0,1.0,4.0,4.0,438.1387370003722,2.0,1.0,part_1,,,,,,,,,,,,,orange,cross
154.0,5.0,1.0,1.0,3.0,3.0,370.7906929998898,2.0,1.0,part_1,,,,,,,,,,,,,magenta,circle
0.0,4.0,0.0,0.0,2.0,2.0,493.1911840003522,2.0,1.0,part_1,,,,,,,,,,,,,cyan,diamond
0.0,7.0,0.0,1.0,1.0,1.0,537.747827000203,2.0,1.0,part_1,,,,,,,,,,,,,orange,cross
657.0,7.0,3.0,1.0,2.0,2.0,436.4061289998062,2.0,1.0,part_1,,,,,,,,,,,,,orange,cross
0.0,6.0,0.0,1.0,1.0,1.0,352.6947619998282,2.0,1.0,part_1,,,,,,,,,,,,,yellow,triangle
1313.0,8.0,4.0,1.0,2.0,2.0,380.5589379999219,2.0,1.0,part_1,,,,,,,,,,,,,green,I
1317.0,8.0,4.0,1.0,4.0,4.0,492.3191140001108,2.0,1.0,part_1,,,,,,,,,,,,,green,I
0.0,5.0,0.0,1.0,3.0,3.0,491.2463259997821,2.0,1.0,part_1,,,,,,,,,,,,,magenta,circle
1301.0,4.0,4.0,0.0,4.0,4.0,379.7365320001518,2.0,1.0,part_1,,,,,,,,,,,,,cyan,diamond
327.0,6.0,2.0,1.0,1.0,1.0,390.1217840002573,2.0,1.0,part_1,,,,,,,,,,,,,yellow,triangle
649.0,3.0,3.0,0.0,2.0,2.0,723.1829090001156,2.0,1.0,part_1,,,,,,,,,,,,,white,square
338.0,6.0,2.0,1.0,4.0,4.0,475.0807750001513,2.0,1.0,part_1,,,,,,,,,,,,,yellow,triangle
639.0,7.0,3.0,1.0,2.0,2.0,538.7958269998308,2.0,1.0,part_1,,,,,,,,,,,,,orange,cross
333.0,2.0,2.0,0.0,3.0,3.0,435.5281390003256,2.0,1.0,part_1,,,,,,,,,,,,,blue,hexagon
323.0,6.0,2.0,1.0,2.0,2.0,464.2075810002097,2.0,1.0,part_1,,,,,,,,,,,,,yellow,triangle
634.0,3.0,3.0,0.0,2.0,2.0,464.7607020001487,2.0,1.0,part_1,,,,,,,,,,,,,white,square
154.0,5.0,1.0,1.0,1.0,1.0,417.7226640003937,2.0,1.0,part_1,,,,,,,,,,,,,magenta,circle
1301.0,4.0,4.0,0.0,1.0,1.0,473.2838029999584,2.0,1.0,part_1,,,,,,,,,,,,,cyan,diamond
334.0,6.0,2.0,1.0,4.0,4.0,499.7441189998426,2.0,1.0,part_1,,,,,,,,,,,,,yellow,triangle
0.0,1.0,0.0,0.0,1.0,1.0,501.15944299977855,2.0,1.0,part_1,,,,,,,,,,,,,gray,flipped triangle
300.0,2.0,2.0,0.0,2.0,2.0,761.1656939998284,2.0,1.0,part_1,,,,,,,,,,,,,blue,hexagon
0.0,8.0,0.0,1.0,1.0,1.0,435.5141510000067,2.0,1.0,part_1,,,,,,,,,,,,,green,I
1278.0,4.0,4.0,0.0,4.0,4.0,528.9150309999968,2.0,1.0,part_1,,,,,,,,,,,,,cyan,diamond
1295.0,8.0,4.0,1.0,3.0,3.0,454.2003619999377,2.0,1.0,part_1,,,,,,,,,,,,,green,I
1303.0,8.0,4.0,1.0,1.0,1.0,389.3489940001018,2.0,1.0,part_1,,,,,,,,,,,,,green,I
167.0,1.0,1.0,0.0,1.0,1.0,361.5705560000606,2.0,1.0,part_1,,,,,,,,,,,,,gray,flipped triangle
1289.0,8.0,4.0,1.0,2.0,2.0,427.53188900042,2.0,1.0,part_1,,,,,,,,,,,,,green,I
312.0,2.0,2.0,0.0,2.0,2.0,344.2364920001637,2.0,1.0,part_1,,,,,,,,,,,,,blue,hexagon
646.0,3.0,3.0,0.0,1.0,1.0,416.9783260003896,2.0,1.0,part_1,,,,,,,,,,,,,white,square
310.0,2.0,2.0,0.0,3.0,3.0,595.0463969998054,2.0,1.0,part_1,,,,,,,,,,,,,blue,hexagon
0.0,7.0,0.0,1.0,3.0,3.0,325.391918999685,2.0,1.0,part_1,,,,,,,,,,,,,orange,cross
316.0,2.0,2.0,0.0,2.0,2.0,416.9875129996399,2.0,1.0,part_1,,,,,,,,,,,,,blue,hexagon
307.0,2.0,2.0,0.0,2.0,2.0,341.9062149996534,2.0,1.0,part_1,,,,,,,,,,,,,blue,hexagon
1280.0,4.0,4.0,0.0,2.0,2.0,343.050981000033,2.0,1.0,part_1,,,,,,,,,,,,,cyan,diamond
1306.0,4.0,4.0,0.0,3.0,3.0,473.6284410000735,2.0,1.0,part_1,,,,,,,,,,,,,cyan,diamond
331.0,6.0,2.0,1.0,1.0,1.0,501.13224899996567,2.0,1.0,part_1,,,,,,,,,,,,,yellow,triangle
1276.0,4.0,4.0,0.0,3.0,3.0,379.9077439998655,2.0,1.0,part_1,,,,,,,,,,,,,cyan,diamond
342.0,6.0,2.0,1.0,3.0,3.0,416.6629050000665,2.0,1.0,part_1,,,,,,,,,,,,,yellow,triangle
176.0,5.0,1.0,1.0,2.0,2.0,517.2743429998263,2.0,1.0,part_1,,,,,,,,,,,,,magenta,circle
1314.0,4.0,4.0,0.0,3.0,3.0,528.1641540000237,2.0,1.0,part_1,,,,,,,,,,,,,cyan,diamond
1323.0,4.0,4.0,0.0,1.0,1.0,380.2977669997744,2.0,1.0,part_1,,,,,,,,,,,,,cyan,diamond
179.0,5.0,1.0,1.0,2.0,2.0,361.6384739998466,2.0,1.0,part_1,,,,,,,,,,,,,magenta,circle
673.0,7.0,3.0,1.0,3.0,3.0,334.0164589999403,2.0,1.0,part_1,,,,,,,,,,,,,orange,cross
641.0,7.0,3.0,1.0,1.0,1.0,333.616247000009,2.0,1.0,part_1,,,,,,,,,,,,,orange,cross
344.0,2.0,2.0,0.0,3.0,3.0,548.1735990001653,3.0,1.0,part_1,,,,,,,,,,,,,blue,hexagon
634.0,3.0,3.0,0.0,1.0,1.0,676.6849309997269,3.0,1.0,part_1,,,,,,,,,,,,,white,square
667.0,7.0,3.0,1.0,2.0,2.0,714.843152999947,3.0,1.0,part_1,,,,,,,,,,,,,orange,cross
1323.0,8.0,4.0,1.0,1.0,1.0,437.3653699999522,3.0,1.0,part_1,,,,,,,,,,,,,green,I
673.0,7.0,3.0,1.0,4.0,4.0,545.957289999933,3.0,1.0,part_1,,,,,,,,,,,,,orange,cross
154.0,1.0,1.0,0.0,4.0,4.0,418.108224000207,3.0,1.0,part_1,,,,,,,,,,,,,gray,flipped triangle
1309.0,4.0,4.0,0.0,2.0,2.0,539.6715080000831,3.0,1.0,part_1,,,,,,,,,,,,,cyan,diamond
324.0,6.0,2.0,1.0,2.0,2.0,426.5692080002736,3.0,1.0,part_1,,,,,,,,,,,,,yellow,triangle
143.0,1.0,1.0,0.0,3.0,3.0,418.5116880003079,3.0,1.0,part_1,,,,,,,,,,,,,gray,flipped triangle
1288.0,4.0,4.0,0.0,2.0,2.0,447.3808499997176,3.0,1.0,part_1,,,,,,,,,,,,,cyan,diamond
144.0,1.0,1.0,0.0,1.0,1.0,501.4422179997382,3.0,1.0,part_1,,,,,,,,,,,,,gray,flipped triangle
172.0,1.0,1.0,0.0,3.0,3.0,528.684661999705,3.0,1.0,part_1,,,,,,,,,,,,,gray,flipped triangle
647.0,7.0,3.0,1.0,3.0,3.0,436.1966289998236,3.0,1.0,part_1,,,,,,,,,,,,,orange,cross
0.0,3.0,0.0,0.0,3.0,3.0,418.6718230002952,3.0,1.0,part_1,,,,,,,,,,,,,white,square
637.0,7.0,3.0,1.0,1.0,1.0,697.0064139995884,3.0,1.0,part_1,,,,,,,,,,,,,orange,cross
0.0,7.0,0.0,1.0,2.0,2.0,473.9357059997928,3.0,1.0,part_1,,,,,,,,,,,,,orange,cross
0.0,2.0,0.0,0.0,1.0,1.0,668.6624420003682,3.0,1.0,part_1,,,,,,,,,,,,,blue,hexagon
627.0,3.0,3.0,0.0,3.0,3.0,409.3929109999408,3.0,1.0,part_1,,,,,,,,,,,,,white,square
0.0,3.0,0.0,0.0,4.0,4.0,444.1683360000752,3.0,1.0,part_1,,,,,,,,,,,,,white,square
302.0,6.0,2.0,1.0,2.0,2.0,584.8638449997452,3.0,1.0,part_1,,,,,,,,,,,,,yellow,triangle
1298.0,8.0,4.0,1.0,3.0,3.0,407.8955879999739,3.0,1.0,part_1,,,,,,,,,,,,,green,I
176.0,1.0,1.0,0.0,1.0,1.0,428.0833509997137,3.0,1.0,part_1,,,,,,,,,,,,,gray,flipped triangle
149.0,1.0,1.0,0.0,3.0,3.0,453.834874000222,3.0,1.0,part_1,,,,,,,,,,,,,gray,flipped triangle
172.0,5.0,1.0,1.0,1.0,1.0,427.4862669999493,3.0,1.0,part_1,,,,,,,,,,,,,magenta,circle
673.0,3.0,3.0,0.0,4.0,4.0,604.8362460001044,3.0,1.0,part_1,,,,,,,,,,,,,white,square
323.0,6.0,2.0,1.0,1.0,1.0,538.48453899991,3.0,1.0,part_1,,,,,,,,,,,,,yellow,triangle
632.0,7.0,3.0,1.0,4.0,4.0,455.2240920002077,3.0,1.0,part_1,,,,,,,,,,,,,orange,cross
0.0,4.0,0.0,0.0,3.0,3.0,417.1466350003356,3.0,1.0,part_1,,,,,,,,,,,,,cyan,diamond
0.0,3.0,0.0,0.0,2.0,2.0,453.9776029996574,3.0,1.0,part_1,,,,,,,,,,,,,white,square
630.0,3.0,3.0,0.0,4.0,4.0,576.5800989997842,3.0,1.0,part_1,,,,,,,,,,,,,white,square
1278.0,4.0,4.0,0.0,2.0,2.0,334.7919159996309,3.0,1.0,part_1,,,,,,,,,,,,,cyan,diamond
0.0,2.0,0.0,0.0,1.0,1.0,519.5243309999569,3.0,1.0,part_1,,,,,,,,,,,,,blue,hexagon
0.0,5.0,0.0,1.0,1.0,1.0,464.9336430002222,3.0,1.0,part_1,,,,,,,,,,,,,magenta,circle
1313.0,8.0,4.0,1.0,1.0,1.0,454.1880169999785,3.0,1.0,part_1,,,,,,,,,,,,,green,I
0.0,1.0,0.0,0.0,1.0,1.0,361.5205989999595,3.0,1.0,part_1,,,,,,,,,,,,,gray,flipped triangle
318.0,2.0,2.0,0.0,3.0,3.0,380.8580979998623,3.0,1.0,part_1,,,,,,,,,,,,,blue,hexagon
141.0,5.0,1.0,1.0,4.0,4.0,353.4697909999522,3.0,1.0,part_1,,,,,,,,,,,,,magenta,circle
349.0,2.0,2.0,0.0,4.0,4.0,501.646823000101,3.0,1.0,part_1,,,,,,,,,,,,,blue,hexagon
647.0,3.0,3.0,0.0,3.0,3.0,390.2347769999323,3.0,1.0,part_1,,,,,,,,,,,,,white,square
348.0,2.0,2.0,0.0,3.0,3.0,360.7629960001759,3.0,1.0,part_1,,,,,,,,,,,,,blue,hexagon
318.0,6.0,2.0,1.0,3.0,3.0,373.2569359999615,3.0,1.0,part_1,,,,,,,,,,,,,yellow,triangle
0.0,4.0,0.0,0.0,1.0,1.0,391.2017499997091,3.0,1.0,part_1,,,,,,,,,,,,,cyan,diamond
0.0,5.0,0.0,1.0,3.0,3.0,408.9900819999457,3.0,1.0,part_1,,,,,,,,,,,,,magenta,circle
1298.0,4.0,4.0,0.0,4.0,4.0,437.041727000178,3.0,1.0,part_1,,,,,,,,,,,,,cyan,diamond
337.0,2.0,2.0,0.0,4.0,4.0,409.7174500002438,3.0,1.0,part_1,,,,,,,,,,,,,blue,hexagon
173.0,5.0,1.0,1.0,1.0,1.0,483.3144969998102,3.0,1.0,part_1,,,,,,,,,,,,,magenta,circle
323.0,2.0,2.0,0.0,1.0,1.0,418.6407649999637,3.0,1.0,part_1,,,,,,,,,,,,,blue,hexagon
0.0,6.0,0.0,1.0,2.0,2.0,370.9289339999486,3.0,2.0,part_1,,,,,,,,,,,,,yellow,triangle
0.0,7.0,0.0,1.0,2.0,2.0,444.8514390001037,3.0,1.0,part_1,,,,,,,,,,,,,orange,cross
324.0,6.0,2.0,1.0,3.0,3.0,546.7510329999641,3.0,1.0,part_1,,,,,,,,,,,,,yellow,triangle
137.0,5.0,1.0,1.0,4.0,4.0,492.1434899997621,3.0,1.0,part_1,,,,,,,,,,,,,magenta,circle
334.0,2.0,2.0,0.0,4.0,4.0,435.8973620001052,3.0,1.0,part_1,,,,,,,,,,,,,blue,hexagon
302.0,2.0,2.0,0.0,2.0,2.0,591.2577950002742,3.0,1.0,part_1,,,,,,,,,,,,,blue,hexagon
181.0,1.0,1.0,0.0,3.0,3.0,353.8601449999987,3.0,1.0,part_1,,,,,,,,,,,,,gray,flipped triangle
1301.0,8.0,4.0,1.0,4.0,4.0,602.91972099958,3.0,1.0,part_1,,,,,,,,,,,,,green,I
0.0,4.0,0.0,0.0,1.0,1.0,640.4069089999211,3.0,1.0,part_1,,,,,,,,,,,,,cyan,diamond
1288.0,8.0,4.0,1.0,1.0,1.0,500.8015990001695,3.0,1.0,part_1,,,,,,,,,,,,,green,I
627.0,7.0,3.0,1.0,2.0,2.0,482.3456350000015,3.0,1.0,part_1,,,,,,,,,,,,,orange,cross
1306.0,8.0,4.0,1.0,1.0,1.0,595.3005629999097,3.0,1.0,part_1,,,,,,,,,,,,,green,I
1295.0,4.0,4.0,0.0,3.0,3.0,417.4240520001149,3.0,1.0,part_1,,,,,,,,,,,,,cyan,diamond
1316.0,8.0,4.0,1.0,2.0,2.0,407.4697369997011,3.0,1.0,part_1,,,,,,,,,,,,,green,I
655.0,7.0,3.0,1.0,3.0,3.0,417.7460860000792,3.0,1.0,part_1,,,,,,,,,,,,,orange,cross
0.0,8.0,0.0,1.0,2.0,2.0,463.2463269999789,3.0,1.0,part_1,,,,,,,,,,,,,green,I
301.0,2.0,2.0,0.0,1.0,1.0,370.7491649997791,3.0,1.0,part_1,,,,,,,,,,,,,blue,hexagon
667.0,3.0,3.0,0.0,2.0,2.0,472.4546150000606,3.0,1.0,part_1,,,,,,,,,,,,,white,square
0.0,7.0,0.0,1.0,4.0,4.0,360.9293859999525,3.0,1.0,part_1,,,,,,,,,,,,,orange,cross
310.0,2.0,2.0,0.0,1.0,1.0,343.0029760002071,3.0,1.0,part_1,,,,,,,,,,,,,blue,hexagon
318.0,2.0,2.0,0.0,2.0,2.0,398.9124610002363,3.0,1.0,part_1,,,,,,,,,,,,,blue,hexagon
324.0,6.0,2.0,1.0,3.0,3.0,416.6363650001585,3.0,1.0,part_1,,,,,,,,,,,,,yellow,triangle
666.0,3.0,3.0,0.0,3.0,3.0,408.8241760000528,3.0,1.0,part_1,,,,,,,,,,,,,white,square
153.0,1.0,1.0,0.0,3.0,3.0,409.529836999809,3.0,1.0,part_1,,,,,,,,,,,,,gray,flipped triangle
316.0,6.0,2.0,1.0,2.0,2.0,484.2958159997579,3.0,1.0,part_1,,,,,,,,,,,,,yellow,triangle
662.0,3.0,3.0,0.0,1.0,1.0,389.2980929999794,3.0,1.0,part_1,,,,,,,,,,,,,white,square
1295.0,4.0,4.0,0.0,2.0,2.0,573.616771000161,3.0,1.0,part_1,,,,,,,,,,,,,cyan,diamond
143.0,5.0,1.0,1.0,3.0,3.0,556.1384640000142,3.0,1.0,part_1,,,,,,,,,,,,,magenta,circle
152.0,5.0,1.0,1.0,1.0,1.0,437.6425000000381,3.0,1.0,part_1,,,,,,,,,,,,,magenta,circle
0.0,8.0,0.0,1.0,2.0,2.0,399.6529389996794,3.0,1.0,part_1,,,,,,,,,,,,,green,I
338.0,2.0,2.0,0.0,1.0,1.0,520.4714989999957,3.0,1.0,part_1,,,,,,,,,,,,,blue,hexagon
634.0,7.0,3.0,1.0,4.0,4.0,555.99352299987,3.0,1.0,part_1,,,,,,,,,,,,,orange,cross
1276.0,4.0,4.0,0.0,4.0,4.0,472.8499910002028,3.0,1.0,part_1,,,,,,,,,,,,,cyan,diamond
1299.0,4.0,4.0,0.0,2.0,2.0,817.2653980000177,3.0,1.0,part_1,,,,,,,,,,,,,cyan,diamond
324.0,2.0,2.0,0.0,4.0,4.0,491.7352689999461,3.0,1.0,part_1,,,,,,,,,,,,,blue,hexagon
1277.0,8.0,4.0,1.0,4.0,4.0,565.6830530001571,3.0,1.0,part_1,,,,,,,,,,,,,green,I
667.0,3.0,3.0,0.0,1.0,1.0,825.8250720000433,3.0,1.0,part_1,,,,,,,,,,,,,white,square
160.0,5.0,1.0,1.0,4.0,4.0,556.7818469999111,3.0,1.0,part_1,,,,,,,,,,,,,magenta,circle
0.0,2.0,0.0,0.0,1.0,1.0,473.0478009996659,3.0,1.0,part_1,,,,,,,,,,,,,blue,hexagon
162.0,5.0,1.0,1.0,4.0,4.0,491.4604509999662,3.0,1.0,part_1,,,,,,,,,,,,,magenta,circle
1282.0,8.0,4.0,1.0,2.0,2.0,361.6733200001363,3.0,1.0,part_1,,,,,,,,,,,,,green,I
170.0,5.0,1.0,1.0,4.0,4.0,472.3226690002775,3.0,1.0,part_1,,,,,,,,,,,,,magenta,circle
185.0,5.0,1.0,1.0,2.0,2.0,407.7265169999009,3.0,1.0,part_1,,,,,,,,,,,,,magenta,circle
660.0,3.0,3.0,0.0,4.0,4.0,380.1231229999757,3.0,1.0,part_1,,,,,,,,,,,,,white,square
627.0,7.0,3.0,1.0,3.0,3.0,519.8380189999625,3.0,1.0,part_1,,,,,,,,,,,,,orange,cross
643.0,3.0,3.0,0.0,3.0,3.0,417.6850490002834,3.0,1.0,part_1,,,,,,,,,,,,,white,square
637.0,7.0,3.0,1.0,2.0,2.0,518.4205709997514,3.0,1.0,part_1,,,,,,,,,,,,,orange,cross
645.0,7.0,3.0,1.0,3.0,3.0,398.1359519998477,3.0,1.0,part_1,,,,,,,,,,,,,orange,cross
310.0,6.0,2.0,1.0,3.0,3.0,379.3629059996419,3.0,1.0,part_1,,,,,,,,,,,,,yellow,triangle
177.0,5.0,1.0,1.0,2.0,2.0,464.1109780000079,3.0,1.0,part_1,,,,,,,,,,,,,magenta,circle
0.0,5.0,0.0,1.0,1.0,1.0,629.1364230000909,3.0,1.0,part_1,,,,,,,,,,,,,magenta,circle
155.0,1.0,1.0,0.0,3.0,3.0,444.9242460000278,3.0,1.0,part_1,,,,,,,,,,,,,gray,flipped triangle
146.0,1.0,1.0,0.0,2.0,2.0,584.6585360000063,3.0,1.0,part_1,,,,,,,,,,,,,gray,flipped triangle
1313.0,4.0,4.0,0.0,2.0,2.0,555.6602970000313,4.0,1.0,part_1,,,,,,,,,,,,,cyan,diamond
662.0,7.0,3.0,1.0,4.0,4.0,482.2279950003576,4.0,1.0,part_1,,,,,,,,,,,,,orange,cross
666.0,7.0,3.0,1.0,2.0,2.0,398.1298059998153,4.0,1.0,part_1,,,,,,,,,,,,,orange,cross
0.0,2.0,0.0,0.0,2.0,2.0,621.7309139997269,4.0,1.0,part_1,,,,,,,,,,,,,blue,hexagon
0.0,3.0,0.0,0.0,4.0,4.0,508.8987129997804,4.0,1.0,part_1,,,,,,,,,,,,,white,square
1289.0,4.0,4.0,0.0,1.0,1.0,490.7221329999629,4.0,1.0,part_1,,,,,,,,,,,,,cyan,diamond
0.0,1.0,0.0,0.0,2.0,2.0,287.3104810000768,4.0,1.0,part_1,,,,,,,,,,,,,gray,flipped triangle
311.0,2.0,2.0,0.0,1.0,1.0,306.5715560001081,4.0,1.0,part_1,,,,,,,,,,,,,blue,hexagon
0.0,7.0,0.0,1.0,4.0,4.0,445.0898270001744,4.0,1.0,part_1,,,,,,,,,,,,,orange,cross
301.0,6.0,2.0,1.0,2.0,2.0,528.9234809997652,4.0,1.0,part_1,,,,,,,,,,,,,yellow,triangle
163.0,5.0,1.0,1.0,3.0,3.0,379.5839959998375,4.0,1.0,part_1,,,,,,,,,,,,,magenta,circle
349.0,2.0,2.0,0.0,1.0,1.0,607.3566400000345,4.0,1.0,part_1,,,,,,,,,,,,,blue,hexagon
148.0,1.0,1.0,0.0,4.0,4.0,573.3009810001022,4.0,1.0,part_1,,,,,,,,,,,,,gray,flipped triangle
1321.0,4.0,4.0,0.0,1.0,1.0,426.6657129996929,4.0,1.0,part_1,,,,,,,,,,,,,cyan,diamond
0.0,8.0,0.0,1.0,2.0,2.0,647.0039790001465,4.0,1.0,part_1,,,,,,,,,,,,,green,I
1282.0,4.0,4.0,0.0,2.0,2.0,417.196777999834,4.0,1.0,part_1,,,,,,,,,,,,,cyan,diamond
185.0,1.0,1.0,0.0,1.0,1.0,462.5235339999562,4.0,1.0,part_1,,,,,,,,,,,,,gray,flipped triangle
169.0,1.0,1.0,0.0,2.0,2.0,587.9239480000251,4.0,1.0,part_1,,,,,,,,,,,,,gray,flipped triangle
627.0,3.0,3.0,0.0,1.0,1.0,325.6801090001318,4.0,1.0,part_1,,,,,,,,,,,,,white,square
640.0,3.0,3.0,0.0,2.0,2.0,834.2152380000698,4.0,3.0,part_1,,,,,,,,,,,,,white,square
145.0,5.0,1.0,1.0,4.0,4.0,740.4015490001257,4.0,1.0,part_1,,,,,,,,,,,,,magenta,circle
178.0,1.0,1.0,0.0,2.0,2.0,416.7731659999845,4.0,1.0,part_1,,,,,,,,,,,,,gray,flipped triangle
630.0,7.0,3.0,1.0,3.0,3.0,416.8308740004249,4.0,1.0,part_1,,,,,,,,,,,,,orange,cross
635.0,7.0,3.0,1.0,1.0,1.0,683.7172860000464,4.0,1.0,part_1,,,,,,,,,,,,,orange,cross
334.0,6.0,2.0,1.0,1.0,1.0,399.0095520002796,4.0,1.0,part_1,,,,,,,,,,,,,yellow,triangle
0.0,2.0,0.0,0.0,1.0,1.0,389.9261510000542,4.0,1.0,part_1,,,,,,,,,,,,,blue,hexagon
1317.0,4.0,4.0,0.0,4.0,4.0,638.535599000079,4.0,1.0,part_1,,,,,,,,,,,,,cyan,diamond
0.0,7.0,0.0,1.0,2.0,2.0,592.7371150000909,4.0,1.0,part_1,,,,,,,,,,,,,orange,cross
639.0,7.0,3.0,1.0,1.0,1.0,491.9143859997348,4.0,2.0,part_1,,,,,,,,,,,,,orange,cross
170.0,1.0,1.0,0.0,2.0,2.0,526.5812699999515,4.0,1.0,part_1,,,,,,,,,,,,,gray,flipped triangle
0.0,8.0,0.0,1.0,3.0,3.0,436.0320320001847,4.0,1.0,part_1,,,,,,,,,,,,,green,I
1301.0,8.0,4.0,1.0,2.0,2.0,389.8379950001072,4.0,1.0,part_1,,,,,,,,,,,,,green,I
320.0,6.0,2.0,1.0,3.0,3.0,343.0263130003368,4.0,1.0,part_1,,,,,,,,,,,,,yellow,triangle
632.0,3.0,3.0,0.0,4.0,4.0,574.7184019996894,4.0,1.0,part_1,,,,,,,,,,,,,white,square
348.0,6.0,2.0,1.0,2.0,2.0,390.003378000074,4.0,1.0,part_1,,,,,,,,,,,,,yellow,triangle
0.0,5.0,0.0,1.0,3.0,3.0,622.4241840000104,4.0,1.0,part_1,,,,,,,,,,,,,magenta,circle
662.0,3.0,3.0,0.0,1.0,1.0,778.0478759996186,4.0,1.0,part_1,,,,,,,,,,,,,white,square
320.0,6.0,2.0,1.0,3.0,3.0,520.2475629998844,4.0,1.0,part_1,,,,,,,,,,,,,yellow,triangle
1301.0,8.0,4.0,1.0,2.0,2.0,528.3403349999389,4.0,1.0,part_1,,,,,,,,,,,,,green,I
645.0,7.0,3.0,1.0,1.0,1.0,573.4846689997539,4.0,1.0,part_1,,,,,,,,,,,,,orange,cross
655.0,3.0,3.0,0.0,3.0,3.0,435.2785840001161,4.0,1.0,part_1,,,,,,,,,,,,,white,square
642.0,7.0,3.0,1.0,1.0,1.0,557.8486740000699,4.0,1.0,part_1,,,,,,,,,,,,,orange,cross
184.0,5.0,1.0,1.0,3.0,3.0,371.3527190002423,4.0,1.0,part_1,,,,,,,,,,,,,magenta,circle
170.0,5.0,1.0,1.0,3.0,3.0,547.5357370000893,4.0,1.0,part_1,,,,,,,,,,,,,magenta,circle
334.0,2.0,2.0,0.0,2.0,2.0,409.1706120002527,4.0,1.0,part_1,,,,,,,,,,,,,blue,hexagon
177.0,1.0,1.0,0.0,2.0,2.0,360.8020909996412,4.0,1.0,part_1,,,,,,,,,,,,,gray,flipped triangle
0.0,2.0,0.0,0.0,3.0,3.0,445.631871000387,4.0,1.0,part_1,,,,,,,,,,,,,blue,hexagon
0.0,3.0,0.0,0.0,2.0,2.0,351.3924649996625,4.0,1.0,part_1,,,,,,,,,,,,,white,square
144.0,5.0,1.0,1.0,1.0,1.0,482.6625010000498,4.0,1.0,part_1,,,,,,,,,,,,,magenta,circle
162.0,1.0,1.0,0.0,3.0,3.0,556.9039669999256,4.0,1.0,part_1,,,,,,,,,,,,,gray,flipped triangle
0.0,6.0,0.0,1.0,4.0,4.0,482.7799820000109,4.0,1.0,part_1,,,,,,,,,,,,,yellow,triangle
630.0,3.0,3.0,0.0,2.0,2.0,371.6847020000386,4.0,1.0,part_1,,,,,,,,,,,,,white,square
0.0,6.0,0.0,1.0,3.0,3.0,380.7973900002253,4.0,1.0,part_1,,,,,,,,,,,,,yellow,triangle
0.0,8.0,0.0,1.0,1.0,1.0,601.873132000037,4.0,1.0,part_1,,,,,,,,,,,,,green,I
186.0,5.0,1.0,1.0,1.0,1.0,399.2693979998876,4.0,1.0,part_1,,,,,,,,,,,,,magenta,circle
0.0,8.0,0.0,1.0,3.0,3.0,427.1789469999021,4.0,1.0,part_1,,,,,,,,,,,,,green,I
137.0,1.0,1.0,0.0,4.0,4.0,528.7142559996028,4.0,1.0,part_1,,,,,,,,,,,,,gray,flipped triangle
320.0,2.0,2.0,0.0,1.0,1.0,445.8201800002825,4.0,1.0,part_1,,,,,,,,,,,,,blue,hexagon
318.0,6.0,2.0,1.0,3.0,3.0,398.1372779999219,4.0,1.0,part_1,,,,,,,,,,,,,yellow,triangle
1285.0,4.0,4.0,0.0,4.0,4.0,511.1860980000529,4.0,1.0,part_1,,,,,,,,,,,,,cyan,diamond
667.0,7.0,3.0,1.0,2.0,2.0,638.6834859999908,4.0,1.0,part_1,,,,,,,,,,,,,orange,cross
660.0,7.0,3.0,1.0,4.0,4.0,445.9210159998292,4.0,1.0,part_1,,,,,,,,,,,,,orange,cross
651.0,3.0,3.0,0.0,3.0,3.0,473.2094320002034,4.0,1.0,part_1,,,,,,,,,,,,,white,square
309.0,2.0,2.0,0.0,3.0,3.0,371.2150910000673,4.0,1.0,part_1,,,,,,,,,,,,,blue,hexagon
660.0,3.0,3.0,0.0,3.0,3.0,621.7213410000113,4.0,1.0,part_1,,,,,,,,,,,,,white,square
0.0,6.0,0.0,1.0,4.0,4.0,444.9958649997825,4.0,2.0,part_1,,,,,,,,,,,,,yellow,triangle
179.0,1.0,1.0,0.0,4.0,4.0,400.6087089996981,4.0,1.0,part_1,,,,,,,,,,,,,gray,flipped triangle
0.0,2.0,0.0,0.0,4.0,4.0,361.4184990001376,4.0,1.0,part_1,,,,,,,,,,,,,blue,hexagon
1316.0,4.0,4.0,0.0,1.0,1.0,538.3442110000942,4.0,1.0,part_1,,,,,,,,,,,,,cyan,diamond
1291.0,8.0,4.0,1.0,3.0,3.0,494.9064099996576,4.0,1.0,part_1,,,,,,,,,,,,,green,I
1291.0,4.0,4.0,0.0,2.0,2.0,406.6667909996795,4.0,1.0,part_1,,,,,,,,,,,,,cyan,diamond
1306.0,8.0,4.0,1.0,3.0,3.0,482.3245330003374,4.0,1.0,part_1,,,,,,,,,,,,,green,I
152.0,1.0,1.0,0.0,4.0,4.0,540.5804859997261,4.0,1.0,part_1,,,,,,,,,,,,,gray,flipped triangle
0.0,4.0,0.0,0.0,2.0,2.0,453.0385170000954,4.0,1.0,part_1,,,,,,,,,,,,,cyan,diamond
1295.0,4.0,4.0,0.0,1.0,1.0,647.9813650003052,4.0,1.0,part_1,,,,,,,,,,,,,cyan,diamond
1278.0,8.0,4.0,1.0,3.0,3.0,483.5005999998429,4.0,1.0,part_1,,,,,,,,,,,,,green,I
323.0,2.0,2.0,0.0,1.0,1.0,649.1875449996769,4.0,1.0,part_1,,,,,,,,,,,,,blue,hexagon
0.0,4.0,0.0,0.0,1.0,1.0,565.8997089999502,4.0,1.0,part_1,,,,,,,,,,,,,cyan,diamond
301.0,6.0,2.0,1.0,4.0,4.0,435.5232120001346,4.0,1.0,part_1,,,,,,,,,,,,,yellow,triangle
331.0,2.0,2.0,0.0,4.0,4.0,417.3940460000267,4.0,1.0,part_1,,,,,,,,,,,,,blue,hexagon
655.0,7.0,3.0,1.0,4.0,4.0,621.6955609997967,4.0,1.0,part_1,,,,,,,,,,,,,orange,cross
1316.0,8.0,4.0,1.0,4.0,4.0,351.6022379999413,4.0,1.0,part_1,,,,,,,,,,,,,green,I
0.0,6.0,0.0,1.0,2.0,2.0,678.8893499997357,4.0,1.0,part_1,,,,,,,,,,,,,yellow,triangle
345.0,2.0,2.0,0.0,4.0,4.0,597.1887129999232,4.0,1.0,part_1,,,,,,,,,,,,,blue,hexagon
186.0,5.0,1.0,1.0,4.0,4.0,482.7976490000765,4.0,1.0,part_1,,,,,,,,,,,,,magenta,circle
1278.0,8.0,4.0,1.0,2.0,2.0,474.014937999982,4.0,1.0,part_1,,,,,,,,,,,,,green,I
0.0,3.0,0.0,0.0,3.0,3.0,427.4984290000247,4.0,1.0,part_1,,,,,,,,,,,,,white,square
0.0,8.0,0.0,1.0,1.0,1.0,453.7079520000588,4.0,1.0,part_1,,,,,,,,,,,,,green,I
170.0,1.0,1.0,0.0,1.0,1.0,548.0615390001731,4.0,1.0,part_1,,,,,,,,,,,,,gray,flipped triangle
0.0,3.0,0.0,0.0,2.0,2.0,557.9694059997564,4.0,2.0,part_1,,,,,,,,,,,,,white,square
637.0,3.0,3.0,0.0,2.0,2.0,371.6480640000554,4.0,1.0,part_1,,,,,,,,,,,,,white,square
1295.0,8.0,4.0,1.0,3.0,3.0,480.5022279997502,4.0,1.0,part_1,,,,,,,,,,,,,green,I
157.0,5.0,1.0,1.0,2.0,2.0,485.9344689998579,4.0,1.0,part_1,,,,,,,,,,,,,magenta,circle
342.0,2.0,2.0,0.0,4.0,4.0,543.9425059998939,4.0,1.0,part_1,,,,,,,,,,,,,blue,hexagon
657.0,3.0,3.0,0.0,1.0,1.0,575.2674929999557,4.0,1.0,part_1,,,,,,,,,,,,,white,square
667.0,7.0,3.0,1.0,1.0,1.0,670.5310980000831,4.0,1.0,part_1,,,,,,,,,,,,,orange,cross
0.0,1.0,0.0,0.0,2.0,2.0,582.9978120000305,4.0,1.0,part_1,,,,,,,,,,,,,gray,flipped triangle
182.0,5.0,1.0,1.0,2.0,2.0,427.1357840002565,4.0,1.0,part_1,,,,,,,,,,,,,magenta,circle
0.0,6.0,0.0,1.0,2.0,2.0,389.6191669996369,4.0,1.0,part_1,,,,,,,,,,,,,yellow,triangle
639.0,3.0,3.0,0.0,1.0,1.0,518.2051800002228,4.0,1.0,part_1,,,,,,,,,,,,,white,square
0.0,4.0,4.0,0.0,5.0,5.0,502.9806370002916,1.0,0.0,part_2,go,250.0,250.0,1.0,,,,,,,,,cyan,diamond
0.0,3.0,3.0,0.0,6.0,6.0,373.5988389998965,1.0,0.0,part_2,go,250.0,250.0,1.0,,,,,,,,,white,square
0.0,5.0,1.0,1.0,5.0,5.0,625.107441000182,1.0,0.0,part_2,stop,250.0,250.0,3.0,,,,,,,,,magenta,circle
0.0,6.0,2.0,1.0,5.0,5.0,527.3188090000076,1.0,0.0,part_2,go,200.0,250.0,1.0,,,,,,,,,yellow,triangle
0.0,2.0,2.0,0.0,5.0,5.0,559.8445939999692,1.0,0.0,part_2,go,200.0,250.0,1.0,,,,,,,,,blue,hexagon
0.0,6.0,2.0,1.0,5.0,5.0,418.4961029995975,1.0,0.0,part_2,stop,200.0,250.0,3.0,,,,,,,,,yellow,triangle
0.0,5.0,1.0,1.0,5.0,0.0,0.0,1.0,0.0,part_2,stop,150.0,250.0,4.0,,,,,,,,,magenta,circle
0.0,2.0,2.0,0.0,5.0,5.0,887.546809000014,1.0,0.0,part_2,go,200.0,250.0,1.0,,,,,,,,,blue,hexagon
0.0,5.0,1.0,1.0,6.0,6.0,382.7016099999127,1.0,0.0,part_2,stop,200.0,250.0,3.0,,,,,,,,,magenta,circle
0.0,8.0,4.0,1.0,6.0,0.0,0.0,1.0,0.0,part_2,stop,200.0,200.0,4.0,,,,,,,,,green,I
0.0,4.0,4.0,0.0,6.0,6.0,653.6369700002069,1.0,0.0,part_2,go,200.0,250.0,1.0,,,,,,,,,cyan,diamond
0.0,3.0,3.0,0.0,6.0,6.0,840.7116690000294,1.0,0.0,part_2,go,200.0,250.0,1.0,,,,,,,,,white,square
0.0,2.0,2.0,0.0,5.0,5.0,935.0504720000572,1.0,0.0,part_2,go,200.0,250.0,1.0,,,,,,,,,blue,hexagon
0.0,1.0,1.0,0.0,5.0,5.0,831.5596639999967,1.0,0.0,part_2,go,200.0,250.0,1.0,,,,,,,,,gray,flipped triangle
0.0,2.0,2.0,0.0,6.0,6.0,672.274199000185,1.0,0.0,part_2,go,200.0,250.0,1.0,,,,,,,,,blue,hexagon
0.0,7.0,3.0,1.0,5.0,5.0,375.7920490002107,1.0,0.0,part_2,stop,200.0,250.0,3.0,,,,,,,,,orange,cross
0.0,4.0,4.0,0.0,5.0,5.0,476.9250760000432,1.0,0.0,part_2,go,150.0,250.0,1.0,,,,,,,,,cyan,diamond
0.0,6.0,2.0,1.0,6.0,0.0,0.0,1.0,0.0,part_2,stop,150.0,250.0,4.0,,,,,,,,,yellow,triangle
0.0,4.0,4.0,0.0,6.0,6.0,1139.2786789997444,1.0,0.0,part_2,go,150.0,300.0,1.0,,,,,,,,,cyan,diamond
0.0,4.0,4.0,0.0,5.0,5.0,634.6345920001113,1.0,0.0,part_2,go,150.0,300.0,1.0,,,,,,,,,cyan,diamond
0.0,5.0,1.0,1.0,5.0,0.0,0.0,1.0,0.0,part_2,stop,150.0,300.0,4.0,,,,,,,,,magenta,circle
0.0,5.0,1.0,1.0,5.0,0.0,0.0,1.0,0.0,part_2,stop,200.0,300.0,4.0,,,,,,,,,magenta,circle
0.0,1.0,1.0,0.0,5.0,5.0,1289.062684000328,1.0,0.0,part_2,go,250.0,300.0,1.0,,,,,,,,,gray,flipped triangle
0.0,3.0,3.0,0.0,5.0,5.0,709.6727990001455,1.0,0.0,part_2,go,250.0,300.0,1.0,,,,,,,,,white,square
0.0,3.0,3.0,0.0,6.0,6.0,812.2654320000038,1.0,0.0,part_2,go,250.0,300.0,1.0,,,,,,,,,white,square
0.0,3.0,3.0,0.0,6.0,6.0,664.8077350000676,1.0,0.0,part_2,go,250.0,300.0,1.0,,,,,,,,,white,square
0.0,1.0,1.0,0.0,5.0,5.0,642.7223809996576,1.0,0.0,part_2,go,250.0,300.0,1.0,,,,,,,,,gray,flipped triangle
0.0,1.0,1.0,0.0,6.0,6.0,337.2731730000851,1.0,0.0,part_2,go,250.0,300.0,1.0,,,,,,,,,gray,flipped triangle
0.0,4.0,4.0,0.0,5.0,5.0,544.4244849995812,1.0,0.0,part_2,go,250.0,300.0,1.0,,,,,,,,,cyan,diamond
0.0,6.0,2.0,1.0,6.0,6.0,485.2355470002294,1.0,0.0,part_2,stop,250.0,300.0,3.0,,,,,,,,,yellow,triangle
0.0,4.0,4.0,0.0,5.0,5.0,486.8403159998706,1.0,0.0,part_2,go,250.0,250.0,1.0,,,,,,,,,cyan,diamond
0.0,2.0,2.0,0.0,5.0,5.0,589.0333060001467,1.0,0.0,part_2,go,250.0,250.0,1.0,,,,,,,,,blue,hexagon
0.0,8.0,4.0,1.0,5.0,0.0,0.0,1.0,0.0,part_2,stop,250.0,250.0,4.0,,,,,,,,,green,I
0.0,5.0,1.0,1.0,5.0,5.0,634.7322480000912,1.0,0.0,part_2,go,300.0,250.0,1.0,,,,,,,,,magenta,circle
0.0,3.0,3.0,0.0,5.0,5.0,551.8974760002493,1.0,0.0,part_2,go,300.0,250.0,1.0,,,,,,,,,white,square
0.0,8.0,4.0,1.0,6.0,6.0,434.4653600001038,1.0,0.0,part_2,stop,300.0,250.0,3.0,,,,,,,,,green,I
0.0,5.0,1.0,1.0,6.0,6.0,497.2063860000162,2.0,0.0,part_2,stop,300.0,200.0,3.0,,,,,,,,,magenta,circle
0.0,3.0,3.0,0.0,6.0,6.0,401.6787379996458,2.0,0.0,part_2,go,300.0,150.0,1.0,,,,,,,,,white,square
0.0,5.0,1.0,1.0,5.0,5.0,346.2125209998703,2.0,0.0,part_2,go,300.0,150.0,1.0,,,,,,,,,magenta,circle
0.0,2.0,2.0,0.0,6.0,6.0,289.2653750000136,2.0,0.0,part_2,go,300.0,150.0,1.0,,,,,,,,,blue,hexagon
0.0,8.0,4.0,1.0,5.0,5.0,364.975957000297,2.0,0.0,part_2,go,300.0,150.0,1.0,,,,,,,,,green,I
0.0,7.0,3.0,1.0,5.0,5.0,372.2786809998979,2.0,0.0,part_2,stop,300.0,150.0,3.0,,,,,,,,,orange,cross
0.0,7.0,3.0,1.0,5.0,5.0,458.2533060001879,2.0,0.0,part_2,go,250.0,150.0,1.0,,,,,,,,,orange,cross
0.0,1.0,1.0,0.0,5.0,5.0,384.4827399998394,2.0,0.0,part_2,go,250.0,150.0,1.0,,,,,,,,,gray,flipped triangle
0.0,7.0,3.0,1.0,6.0,6.0,328.9358469996841,2.0,0.0,part_2,stop,250.0,150.0,3.0,,,,,,,,,orange,cross
0.0,6.0,2.0,1.0,5.0,5.0,419.2286689999491,2.0,0.0,part_2,stop,250.0,100.0,3.0,,,,,,,,,yellow,triangle
0.0,2.0,2.0,0.0,6.0,6.0,461.3274019998243,2.0,0.0,part_2,go,200.0,100.0,1.0,,,,,,,,,blue,hexagon
0.0,2.0,2.0,0.0,6.0,6.0,422.7867690001403,2.0,0.0,part_2,go,200.0,100.0,1.0,,,,,,,,,blue,hexagon
0.0,8.0,4.0,1.0,6.0,6.0,346.8081189998884,2.0,0.0,part_2,stop,200.0,100.0,3.0,,,,,,,,,green,I
0.0,7.0,3.0,1.0,5.0,5.0,385.4697110000415,2.0,0.0,part_2,stop,200.0,50.0,3.0,,,,,,,,,orange,cross
0.0,6.0,2.0,1.0,6.0,0.0,0.0,2.0,0.0,part_2,stop,150.0,50.0,4.0,,,,,,,,,yellow,triangle
0.0,6.0,2.0,1.0,6.0,6.0,383.8818409994928,2.0,0.0,part_2,go,150.0,100.0,1.0,,,,,,,,,yellow,triangle
0.0,1.0,1.0,0.0,5.0,5.0,504.8707879996073,2.0,0.0,part_2,go,150.0,100.0,1.0,,,,,,,,,gray,flipped triangle
0.0,3.0,3.0,0.0,5.0,5.0,420.9122140000545,2.0,0.0,part_2,go,150.0,100.0,1.0,,,,,,,,,white,square
0.0,1.0,1.0,0.0,6.0,6.0,355.9962989993437,2.0,0.0,part_2,go,150.0,100.0,1.0,,,,,,,,,gray,flipped triangle
0.0,3.0,3.0,0.0,6.0,6.0,338.5740189996795,2.0,0.0,part_2,go,150.0,100.0,1.0,,,,,,,,,white,square
0.0,6.0,2.0,1.0,6.0,6.0,301.3101970000207,2.0,0.0,part_2,stop,150.0,100.0,3.0,,,,,,,,,yellow,triangle
0.0,2.0,2.0,0.0,6.0,6.0,505.3044099995532,2.0,0.0,part_2,go,150.0,50.0,1.0,,,,,,,,,blue,hexagon
0.0,2.0,2.0,0.0,6.0,6.0,554.5402360003209,2.0,0.0,part_2,go,150.0,50.0,1.0,,,,,,,,,blue,hexagon
0.0,5.0,1.0,1.0,5.0,0.0,0.0,2.0,0.0,part_2,stop,150.0,50.0,4.0,,,,,,,,,magenta,circle
0.0,3.0,3.0,0.0,5.0,5.0,666.9502150007247,2.0,0.0,part_2,go,200.0,50.0,1.0,,,,,,,,,white,square
0.0,4.0,4.0,0.0,5.0,5.0,638.2751569999527,2.0,0.0,part_2,go,200.0,50.0,1.0,,,,,,,,,cyan,diamond
0.0,4.0,4.0,0.0,5.0,5.0,535.3943820000495,2.0,0.0,part_2,go,200.0,50.0,1.0,,,,,,,,,cyan,diamond
0.0,5.0,1.0,1.0,6.0,0.0,0.0,2.0,0.0,part_2,stop,200.0,50.0,4.0,,,,,,,,,magenta,circle
0.0,5.0,1.0,1.0,6.0,6.0,571.7329580002115,2.0,0.0,part_2,go,200.0,100.0,1.0,,,,,,,,,magenta,circle
0.0,6.0,2.0,1.0,5.0,5.0,363.9814269999988,2.0,0.0,part_2,stop,200.0,100.0,3.0,,,,,,,,,yellow,triangle
0.0,1.0,1.0,0.0,6.0,6.0,504.3526709996513,2.0,0.0,part_2,go,150.0,100.0,1.0,,,,,,,,,gray,flipped triangle
0.0,6.0,2.0,1.0,6.0,0.0,0.0,2.0,0.0,part_2,stop,150.0,100.0,4.0,,,,,,,,,yellow,triangle
0.0,7.0,3.0,1.0,6.0,0.0,0.0,2.0,0.0,part_2,stop,150.0,150.0,4.0,,,,,,,,,orange,cross
0.0,8.0,4.0,1.0,6.0,0.0,0.0,2.0,0.0,part_2,stop,150.0,200.0,4.0,,,,,,,,,green,I
0.0,6.0,2.0,1.0,5.0,5.0,672.4688869999227,2.0,0.0,part_2,go,150.0,250.0,1.0,,,,,,,,,yellow,triangle
0.0,8.0,4.0,1.0,5.0,0.0,0.0,2.0,0.0,part_2,stop,150.0,250.0,4.0,,,,,,,,,green,I
0.0,6.0,2.0,1.0,6.0,6.0,523.1800530000328,3.0,0.0,part_2,go,200.0,250.0,1.0,,,,,,,,,yellow,triangle
0.0,7.0,3.0,1.0,5.0,0.0,0.0,3.0,0.0,part_2,stop,200.0,250.0,4.0,,,,,,,,,orange,cross
0.0,6.0,2.0,1.0,6.0,6.0,402.8124899996328,3.0,0.0,part_2,stop,250.0,250.0,3.0,,,,,,,,,yellow,triangle
0.0,3.0,3.0,0.0,6.0,6.0,467.1915839999201,3.0,0.0,part_2,go,250.0,200.0,1.0,,,,,,,,,white,square
0.0,8.0,4.0,1.0,6.0,0.0,0.0,3.0,0.0,part_2,stop,250.0,200.0,4.0,,,,,,,,,green,I
0.0,5.0,1.0,1.0,6.0,6.0,560.8728479992351,3.0,0.0,part_2,go,250.0,250.0,1.0,,,,,,,,,magenta,circle
0.0,2.0,2.0,0.0,6.0,6.0,521.7977239999527,3.0,0.0,part_2,go,250.0,250.0,1.0,,,,,,,,,blue,hexagon
0.0,1.0,1.0,0.0,6.0,6.0,513.8545080008043,3.0,0.0,part_2,go,250.0,250.0,1.0,,,,,,,,,gray,flipped triangle
0.0,8.0,4.0,1.0,6.0,0.0,0.0,3.0,0.0,part_2,stop,250.0,250.0,4.0,,,,,,,,,green,I
0.0,3.0,3.0,0.0,5.0,5.0,485.8577029999651,3.0,0.0,part_2,go,250.0,300.0,1.0,,,,,,,,,white,square
0.0,1.0,1.0,0.0,6.0,6.0,420.033295000394,3.0,0.0,part_2,go,250.0,300.0,1.0,,,,,,,,,gray,flipped triangle
0.0,2.0,2.0,0.0,6.0,6.0,476.4344470004289,3.0,0.0,part_2,go,250.0,300.0,1.0,,,,,,,,,blue,hexagon
0.0,7.0,3.0,1.0,6.0,6.0,512.2071239993602,3.0,0.0,part_2,go,250.0,300.0,1.0,,,,,,,,,orange,cross
0.0,7.0,3.0,1.0,6.0,6.0,448.5084200005076,3.0,0.0,part_2,go,250.0,300.0,1.0,,,,,,,,,orange,cross
0.0,1.0,1.0,0.0,5.0,5.0,439.2562289995112,3.0,0.0,part_2,go,250.0,300.0,1.0,,,,,,,,,gray,flipped triangle
0.0,3.0,3.0,0.0,6.0,6.0,354.4205210000655,3.0,0.0,part_2,go,250.0,300.0,1.0,,,,,,,,,white,square
0.0,6.0,2.0,1.0,5.0,5.0,496.205762999125,3.0,0.0,part_2,stop,250.0,300.0,3.0,,,,,,,,,yellow,triangle
0.0,8.0,4.0,1.0,6.0,6.0,569.428601999789,3.0,0.0,part_2,go,200.0,300.0,1.0,,,,,,,,,green,I
0.0,6.0,2.0,1.0,6.0,6.0,378.9331339994533,3.0,0.0,part_2,stop,200.0,300.0,3.0,,,,,,,,,yellow,triangle
0.0,8.0,4.0,1.0,5.0,0.0,0.0,3.0,0.0,part_2,stop,200.0,250.0,4.0,,,,,,,,,green,I
0.0,2.0,2.0,0.0,6.0,6.0,728.206792000492,3.0,0.0,part_2,go,250.0,250.0,1.0,,,,,,,,,blue,hexagon
0.0,7.0,3.0,1.0,5.0,0.0,0.0,3.0,0.0,part_2,stop,250.0,250.0,4.0,,,,,,,,,orange,cross
0.0,3.0,3.0,0.0,5.0,5.0,698.4935219998079,3.0,0.0,part_2,go,300.0,250.0,1.0,,,,,,,,,white,square
0.0,5.0,1.0,1.0,5.0,0.0,0.0,3.0,0.0,part_2,stop,300.0,250.0,4.0,,,,,,,,,magenta,circle
0.0,8.0,4.0,1.0,5.0,0.0,0.0,3.0,0.0,part_2,stop,350.0,250.0,4.0,,,,,,,,,green,I
0.0,3.0,3.0,0.0,5.0,5.0,1029.1938489999666,3.0,0.0,part_2,go,400.0,250.0,1.0,,,,,,,,,white,square
0.0,5.0,1.0,1.0,6.0,0.0,0.0,3.0,0.0,part_2,stop,400.0,250.0,4.0,,,,,,,,,magenta,circle
0.0,8.0,4.0,1.0,5.0,5.0,533.6269110002831,3.0,0.0,part_2,go,400.0,300.0,1.0,,,,,,,,,green,I
0.0,1.0,1.0,0.0,6.0,6.0,625.3311670006951,3.0,0.0,part_2,go,400.0,300.0,1.0,,,,,,,,,gray,flipped triangle
0.0,7.0,3.0,1.0,6.0,6.0,375.9014790002766,3.0,0.0,part_2,go,400.0,300.0,1.0,,,,,,,,,orange,cross
0.0,2.0,2.0,0.0,6.0,6.0,374.030252999546,3.0,0.0,part_2,go,400.0,300.0,1.0,,,,,,,,,blue,hexagon
0.0,4.0,4.0,0.0,5.0,5.0,383.4080770002401,3.0,0.0,part_2,go,400.0,300.0,1.0,,,,,,,,,cyan,diamond
0.0,6.0,2.0,1.0,5.0,5.0,392.5800590004655,3.0,0.0,part_2,stop,400.0,300.0,3.0,,,,,,,,,yellow,triangle
0.0,7.0,3.0,1.0,6.0,0.0,0.0,3.0,0.0,part_2,stop,350.0,300.0,4.0,,,,,,,,,orange,cross
0.0,6.0,2.0,1.0,6.0,6.0,848.8764439998704,3.0,0.0,part_2,go,350.0,350.0,1.0,,,,,,,,,yellow,triangle
0.0,2.0,2.0,0.0,5.0,5.0,532.5755579997349,3.0,0.0,part_2,go,350.0,350.0,1.0,,,,,,,,,blue,hexagon
0.0,8.0,4.0,1.0,5.0,0.0,0.0,4.0,0.0,part_2,go,350.0,350.0,5.0,,,,,,,,,green,I
0.0,2.0,2.0,0.0,5.0,5.0,440.6284789993151,4.0,0.0,part_2,go,350.0,350.0,1.0,,,,,,,,,blue,hexagon
0.0,4.0,4.0,0.0,5.0,5.0,355.0333910006884,4.0,0.0,part_2,go,350.0,350.0,1.0,,,,,,,,,cyan,diamond
0.0,6.0,2.0,1.0,5.0,5.0,308.3192900003269,4.0,0.0,part_2,go,350.0,350.0,1.0,,,,,,,,,yellow,triangle
0.0,6.0,2.0,1.0,5.0,5.0,397.9112619999796,4.0,0.0,part_2,stop,350.0,350.0,3.0,,,,,,,,,yellow,triangle
0.0,7.0,3.0,1.0,6.0,6.0,383.5261190006349,4.0,0.0,part_2,stop,300.0,350.0,3.0,,,,,,,,,orange,cross
0.0,8.0,4.0,1.0,5.0,5.0,383.7269040004685,4.0,0.0,part_2,stop,300.0,300.0,3.0,,,,,,,,,green,I
0.0,4.0,4.0,0.0,6.0,6.0,318.1686839998292,4.0,0.0,part_2,go,250.0,300.0,1.0,,,,,,,,,cyan,diamond
0.0,3.0,3.0,0.0,5.0,5.0,355.0795959999959,4.0,0.0,part_2,go,250.0,300.0,1.0,,,,,,,,,white,square
0.0,3.0,3.0,0.0,6.0,6.0,318.8588640005037,4.0,0.0,part_2,go,250.0,300.0,1.0,,,,,,,,,white,square
0.0,5.0,1.0,1.0,5.0,0.0,0.0,4.0,0.0,part_2,stop,250.0,300.0,4.0,,,,,,,,,magenta,circle
0.0,4.0,4.0,0.0,5.0,5.0,476.5727880003396,4.0,0.0,part_2,go,300.0,300.0,1.0,,,,,,,,,cyan,diamond
0.0,3.0,3.0,0.0,5.0,5.0,467.0359849997112,4.0,0.0,part_2,go,300.0,300.0,1.0,,,,,,,,,white,square
0.0,2.0,2.0,0.0,5.0,5.0,384.4464559997504,4.0,0.0,part_2,go,300.0,300.0,1.0,,,,,,,,,blue,hexagon
0.0,4.0,4.0,0.0,6.0,6.0,345.3325890004635,4.0,0.0,part_2,go,300.0,300.0,1.0,,,,,,,,,cyan,diamond
0.0,1.0,1.0,0.0,5.0,5.0,309.0126289998807,4.0,0.0,part_2,go,300.0,300.0,1.0,,,,,,,,,gray,flipped triangle
0.0,6.0,2.0,1.0,5.0,5.0,385.1384740000867,4.0,0.0,part_2,stop,300.0,300.0,3.0,,,,,,,,,yellow,triangle
0.0,5.0,1.0,1.0,6.0,6.0,403.4083140004441,4.0,0.0,part_2,stop,250.0,300.0,3.0,,,,,,,,,magenta,circle
0.0,4.0,4.0,0.0,5.0,5.0,476.186427000357,4.0,0.0,part_2,go,250.0,250.0,1.0,,,,,,,,,cyan,diamond
0.0,8.0,4.0,1.0,5.0,5.0,456.6375260001223,4.0,0.0,part_2,stop,250.0,250.0,3.0,,,,,,,,,green,I
0.0,2.0,2.0,0.0,6.0,6.0,374.232712999401,4.0,0.0,part_2,go,200.0,250.0,1.0,,,,,,,,,blue,hexagon
0.0,1.0,1.0,0.0,5.0,5.0,531.4476470002774,4.0,0.0,part_2,go,200.0,250.0,1.0,,,,,,,,,gray,flipped triangle
0.0,4.0,4.0,0.0,5.0,5.0,393.0734120003762,4.0,0.0,part_2,go,200.0,250.0,1.0,,,,,,,,,cyan,diamond
0.0,3.0,3.0,0.0,6.0,6.0,301.6809929995361,4.0,0.0,part_2,go,200.0,250.0,1.0,,,,,,,,,white,square
0.0,8.0,4.0,1.0,5.0,5.0,356.2465599998177,4.0,0.0,part_2,go,200.0,250.0,1.0,,,,,,,,,green,I
0.0,3.0,3.0,0.0,5.0,5.0,386.4687709992722,4.0,0.0,part_2,go,200.0,250.0,1.0,,,,,,,,,white,square
0.0,8.0,4.0,1.0,6.0,6.0,338.8824150006257,4.0,0.0,part_2,go,200.0,250.0,1.0,,,,,,,,,green,I
0.0,7.0,3.0,1.0,6.0,6.0,351.2547430000268,4.0,0.0,part_2,stop,200.0,250.0,3.0,,,,,,,,,orange,cross
0.0,1.0,1.0,0.0,6.0,6.0,432.1047979992727,4.0,0.0,part_2,go,200.0,200.0,1.0,,,,,,,,,gray,flipped triangle
0.0,8.0,4.0,1.0,6.0,6.0,340.1097260002643,4.0,0.0,part_2,stop,200.0,200.0,3.0,,,,,,,,,green,I
0.0,3.0,3.0,0.0,5.0,5.0,459.715732999939,4.0,0.0,part_2,go,200.0,150.0,1.0,,,,,,,,,white,square
0.0,2.0,2.0,0.0,6.0,6.0,300.794424999367,4.0,0.0,part_2,go,200.0,150.0,1.0,,,,,,,,,blue,hexagon
0.0,6.0,2.0,1.0,6.0,6.0,392.16616000067,4.0,0.0,part_2,stop,200.0,150.0,3.0,,,,,,,,,yellow,triangle
0.0,2.0,2.0,0.0,6.0,6.0,673.2307510001192,4.0,0.0,part_2,go,200.0,100.0,1.0,,,,,,,,,blue,hexagon
0.0,2.0,2.0,0.0,5.0,5.0,432.5954010000714,4.0,0.0,part_2,go,200.0,100.0,1.0,,,,,,,,,blue,hexagon
0.0,7.0,3.0,1.0,6.0,6.0,335.8159980007258,4.0,0.0,part_2,stop,200.0,100.0,3.0,,,,,,,,,orange,cross
0.0,5.0,1.0,1.0,6.0,6.0,609.0752270001758,5.0,0.0,part_2,stop,200.0,50.0,3.0,,,,,,,,,magenta,circle
0.0,3.0,3.0,0.0,6.0,6.0,655.6153080000513,5.0,0.0,part_2,go,200.0,0.0,1.0,,,,,,,,,white,square
0.0,6.0,2.0,1.0,5.0,5.0,627.468454999871,5.0,0.0,part_2,go,200.0,0.0,1.0,,,,,,,,,yellow,triangle
0.0,7.0,3.0,1.0,6.0,0.0,0.0,5.0,0.0,part_2,stop,200.0,0.0,4.0,,,,,,,,,orange,cross
0.0,4.0,4.0,0.0,6.0,6.0,625.3290499998911,5.0,0.0,part_2,go,200.0,50.0,1.0,,,,,,,,,cyan,diamond
0.0,3.0,3.0,0.0,5.0,5.0,654.9513580002895,5.0,0.0,part_2,go,200.0,50.0,1.0,,,,,,,,,white,square
0.0,7.0,3.0,1.0,5.0,0.0,0.0,5.0,0.0,part_2,stop,200.0,50.0,4.0,,,,,,,,,orange,cross
0.0,8.0,4.0,1.0,5.0,0.0,0.0,5.0,0.0,part_2,stop,250.0,50.0,4.0,,,,,,,,,green,I
0.0,8.0,4.0,1.0,6.0,6.0,514.9515140001313,5.0,0.0,part_2,go,300.0,50.0,1.0,,,,,,,,,green,I
0.0,8.0,4.0,1.0,5.0,5.0,943.3260369996788,5.0,0.0,part_2,go,300.0,50.0,1.0,,,,,,,,,green,I
0.0,3.0,3.0,0.0,5.0,5.0,618.1348899999648,5.0,0.0,part_2,go,300.0,50.0,1.0,,,,,,,,,white,square
0.0,8.0,4.0,1.0,6.0,0.0,0.0,5.0,0.0,part_2,stop,300.0,50.0,4.0,,,,,,,,,green,I
0.0,1.0,1.0,0.0,5.0,5.0,373.8297810004951,5.0,0.0,part_2,go,300.0,100.0,1.0,,,,,,,,,gray,flipped triangle
0.0,7.0,3.0,1.0,6.0,0.0,0.0,5.0,0.0,part_2,stop,300.0,100.0,4.0,,,,,,,,,orange,cross
0.0,8.0,4.0,1.0,5.0,5.0,508.00805400012905,5.0,0.0,part_2,stop,300.0,150.0,3.0,,,,,,,,,green,I
0.0,4.0,4.0,0.0,6.0,6.0,635.7341410002846,5.0,0.0,part_2,go,250.0,150.0,1.0,,,,,,,,,cyan,diamond
0.0,7.0,3.0,1.0,6.0,6.0,782.8891879998991,5.0,0.0,part_2,go,250.0,150.0,1.0,,,,,,,,,orange,cross
0.0,5.0,1.0,1.0,6.0,0.0,0.0,5.0,0.0,part_2,stop,250.0,150.0,4.0,,,,,,,,,magenta,circle
0.0,7.0,3.0,1.0,6.0,6.0,682.2974209999302,5.0,0.0,part_2,go,250.0,200.0,1.0,,,,,,,,,orange,cross
0.0,7.0,3.0,1.0,5.0,0.0,0.0,5.0,0.0,part_2,stop,250.0,200.0,4.0,,,,,,,,,orange,cross
0.0,7.0,3.0,1.0,6.0,0.0,0.0,5.0,0.0,part_2,stop,300.0,200.0,4.0,,,,,,,,,orange,cross
0.0,6.0,2.0,1.0,6.0,0.0,0.0,5.0,0.0,part_2,stop,300.0,250.0,4.0,,,,,,,,,yellow,triangle
0.0,4.0,4.0,0.0,6.0,6.0,1028.5995650001496,5.0,0.0,part_2,go,300.0,300.0,1.0,,,,,,,,,cyan,diamond
0.0,7.0,3.0,1.0,6.0,5.0,1151.3664599997355,5.0,0.0,part_2,stop,300.0,300.0,3.0,,,,,,,,,orange,cross
0.0,8.0,4.0,1.0,6.0,0.0,0.0,5.0,0.0,part_2,stop,300.0,250.0,4.0,,,,,,,,,green,I
0.0,2.0,2.0,0.0,5.0,5.0,618.4471360002135,5.0,0.0,part_2,go,300.0,300.0,1.0,,,,,,,,,blue,hexagon
0.0,1.0,1.0,0.0,6.0,6.0,637.7611529997012,5.0,0.0,part_2,go,300.0,300.0,1.0,,,,,,,,,gray,flipped triangle
0.0,4.0,4.0,0.0,6.0,6.0,644.6180370003276,5.0,0.0,part_2,go,300.0,300.0,1.0,,,,,,,,,cyan,diamond
0.0,1.0,1.0,0.0,5.0,5.0,564.7254620007516,5.0,0.0,part_2,go,300.0,300.0,1.0,,,,,,,,,gray,flipped triangle
0.0,4.0,4.0,0.0,6.0,6.0,664.8441589995855,5.0,0.0,part_2,go,300.0,300.0,1.0,,,,,,,,,cyan,diamond
0.0,4.0,4.0,0.0,6.0,6.0,683.2307100003163,5.0,0.0,part_2,go,300.0,300.0,1.0,,,,,,,,,cyan,diamond
0.0,7.0,3.0,1.0,6.0,6.0,562.5186289998965,5.0,0.0,part_2,go,300.0,300.0,1.0,,,,,,,,,orange,cross
0.0,7.0,3.0,1.0,5.0,5.0,606.9822070003283,5.0,0.0,part_2,go,300.0,300.0,1.0,,,,,,,,,orange,cross
0.0,6.0,2.0,1.0,6.0,6.0,357.2656870001083,5.0,0.0,part_2,stop,300.0,300.0,3.0,,,,,,,,,yellow,triangle
0.0,4.0,4.0,0.0,6.0,6.0,552.3663440008022,5.0,0.0,part_2,go,300.0,250.0,1.0,,,,,,,,,cyan,diamond
0.0,5.0,1.0,1.0,5.0,5.0,568.9213589994324,5.0,0.0,part_2,go,300.0,250.0,1.0,,,,,,,,,magenta,circle
0.0,4.0,4.0,0.0,5.0,5.0,1255.1460570002746,6.0,0.0,part_2,go,300.0,250.0,1.0,,,,,,,,,cyan,diamond
0.0,7.0,3.0,1.0,5.0,5.0,461.711264000769,6.0,0.0,part_2,stop,300.0,250.0,3.0,,,,,,,,,orange,cross
0.0,2.0,2.0,0.0,6.0,6.0,460.6674710003062,6.0,0.0,part_2,go,250.0,250.0,1.0,,,,,,,,,blue,hexagon
0.0,5.0,1.0,1.0,6.0,6.0,458.6114090006958,6.0,0.0,part_2,stop,250.0,250.0,3.0,,,,,,,,,magenta,circle
0.0,5.0,1.0,1.0,6.0,6.0,562.0905720006704,6.0,0.0,part_2,go,250.0,200.0,1.0,,,,,,,,,magenta,circle
0.0,8.0,4.0,1.0,5.0,5.0,437.1655719996852,6.0,0.0,part_2,stop,250.0,200.0,3.0,,,,,,,,,green,I
0.0,7.0,3.0,1.0,5.0,0.0,0.0,6.0,0.0,part_2,stop,200.0,200.0,4.0,,,,,,,,,orange,cross
0.0,8.0,4.0,1.0,5.0,0.0,0.0,6.0,0.0,part_2,stop,250.0,200.0,4.0,,,,,,,,,green,I
0.0,2.0,2.0,0.0,5.0,5.0,710.8811859998241,6.0,0.0,part_2,go,300.0,200.0,1.0,,,,,,,,,blue,hexagon
0.0,6.0,2.0,1.0,5.0,5.0,675.2037969999947,6.0,0.0,part_2,go,300.0,200.0,1.0,,,,,,,,,yellow,triangle
0.0,5.0,1.0,1.0,5.0,0.0,0.0,6.0,0.0,part_2,stop,300.0,200.0,4.0,,,,,,,,,magenta,circle
0.0,3.0,3.0,0.0,6.0,6.0,674.0697870000076,6.0,0.0,part_2,go,350.0,200.0,1.0,,,,,,,,,white,square
0.0,1.0,1.0,0.0,5.0,5.0,674.5654369997283,6.0,0.0,part_2,go,350.0,200.0,1.0,,,,,,,,,gray,flipped triangle
0.0,2.0,2.0,0.0,5.0,5.0,617.5248809995537,6.0,0.0,part_2,go,350.0,200.0,1.0,,,,,,,,,blue,hexagon
0.0,3.0,3.0,0.0,5.0,5.0,526.0870310003156,6.0,0.0,part_2,go,350.0,200.0,1.0,,,,,,,,,white,square
0.0,1.0,1.0,0.0,6.0,6.0,337.3248210000383,6.0,0.0,part_2,go,350.0,200.0,1.0,,,,,,,,,gray,flipped triangle
0.0,2.0,2.0,0.0,6.0,6.0,598.5164590001659,6.0,0.0,part_2,go,350.0,200.0,1.0,,,,,,,,,blue,hexagon
0.0,6.0,2.0,1.0,6.0,6.0,345.159703999343,6.0,0.0,part_2,go,350.0,200.0,1.0,,,,,,,,,yellow,triangle
0.0,7.0,3.0,1.0,5.0,5.0,546.5831999999864,6.0,0.0,part_2,stop,350.0,200.0,3.0,,,,,,,,,orange,cross
0.0,4.0,4.0,0.0,6.0,6.0,356.67224899953,6.0,0.0,part_2,go,300.0,200.0,1.0,,,,,,,,,cyan,diamond
0.0,1.0,1.0,0.0,5.0,5.0,627.5285280007665,6.0,0.0,part_2,go,300.0,200.0,1.0,,,,,,,,,gray,flipped triangle
0.0,1.0,1.0,0.0,6.0,6.0,410.6615399996371,6.0,0.0,part_2,go,300.0,200.0,1.0,,,,,,,,,gray,flipped triangle
0.0,4.0,4.0,0.0,5.0,5.0,552.9523090008297,6.0,0.0,part_2,go,300.0,200.0,1.0,,,,,,,,,cyan,diamond
0.0,1.0,1.0,0.0,5.0,5.0,533.7592689993471,6.0,0.0,part_2,go,300.0,200.0,1.0,,,,,,,,,gray,flipped triangle
0.0,5.0,1.0,1.0,5.0,5.0,443.0588730001545,6.0,0.0,part_2,stop,300.0,200.0,3.0,,,,,,,,,magenta,circle
0.0,7.0,3.0,1.0,6.0,6.0,393.7726409994866,6.0,0.0,part_2,stop,250.0,200.0,3.0,,,,,,,,,orange,cross
0.0,5.0,1.0,1.0,6.0,6.0,814.5403970002008,6.0,0.0,part_2,go,250.0,150.0,1.0,,,,,,,,,magenta,circle
0.0,5.0,1.0,1.0,5.0,5.0,653.6906599994836,6.0,0.0,part_2,go,250.0,150.0,1.0,,,,,,,,,magenta,circle
0.0,2.0,2.0,0.0,5.0,5.0,589.7842300000775,6.0,0.0,part_2,go,250.0,150.0,1.0,,,,,,,,,blue,hexagon
0.0,1.0,1.0,0.0,6.0,6.0,530.5306529999143,6.0,0.0,part_2,go,250.0,150.0,1.0,,,,,,,,,gray,flipped triangle
0.0,3.0,3.0,0.0,6.0,6.0,652.8669369999989,6.0,0.0,part_2,go,250.0,150.0,1.0,,,,,,,,,white,square
0.0,5.0,1.0,1.0,5.0,0.0,0.0,6.0,0.0,part_2,stop,250.0,150.0,4.0,,,,,,,,,magenta,circle
0.0,6.0,2.0,1.0,5.0,0.0,0.0,6.0,0.0,part_2,stop,300.0,150.0,4.0,,,,,,,,,yellow,triangle
0.0,2.0,2.0,0.0,5.0,5.0,980.0160180002422,6.0,0.0,part_2,go,350.0,150.0,1.0,,,,,,,,,blue,hexagon
0.0,2.0,2.0,0.0,6.0,6.0,823.3927339997535,6.0,0.0,part_2,go,350.0,150.0,1.0,,,,,,,,,blue,hexagon
0.0,2.0,2.0,0.0,5.0,5.0,412.6128130001234,6.0,0.0,part_2,go,350.0,150.0,1.0,,,,,,,,,blue,hexagon
0.0,4.0,4.0,0.0,6.0,6.0,430.5160639996757,7.0,0.0,part_2,go,350.0,150.0,1.0,,,,,,,,,cyan,diamond
0.0,5.0,1.0,1.0,6.0,0.0,0.0,7.0,0.0,part_2,stop,350.0,150.0,4.0,,,,,,,,,magenta,circle
0.0,1.0,1.0,0.0,6.0,6.0,587.9965479998646,7.0,0.0,part_2,go,350.0,200.0,1.0,,,,,,,,,gray,flipped triangle
0.0,7.0,3.0,1.0,5.0,5.0,532.7405480002199,7.0,0.0,part_2,stop,350.0,200.0,3.0,,,,,,,,,orange,cross
0.0,3.0,3.0,0.0,5.0,5.0,617.0791860004101,7.0,0.0,part_2,go,300.0,200.0,1.0,,,,,,,,,white,square
0.0,6.0,2.0,1.0,5.0,0.0,0.0,7.0,0.0,part_2,stop,300.0,200.0,4.0,,,,,,,,,yellow,triangle
0.0,2.0,2.0,0.0,5.0,5.0,634.8822370000562,7.0,0.0,part_2,go,350.0,200.0,1.0,,,,,,,,,blue,hexagon
0.0,1.0,1.0,0.0,6.0,6.0,448.854905999724,7.0,0.0,part_2,go,350.0,200.0,1.0,,,,,,,,,gray,flipped triangle
0.0,6.0,2.0,1.0,5.0,0.0,0.0,7.0,0.0,part_2,stop,350.0,200.0,4.0,,,,,,,,,yellow,triangle
0.0,1.0,1.0,0.0,5.0,5.0,710.8061849994556,7.0,0.0,part_2,go,400.0,200.0,1.0,,,,,,,,,gray,flipped triangle
0.0,5.0,1.0,1.0,6.0,0.0,0.0,7.0,0.0,part_2,stop,400.0,200.0,4.0,,,,,,,,,magenta,circle
0.0,4.0,4.0,0.0,5.0,5.0,448.4273130001384,7.0,0.0,part_2,go,400.0,250.0,1.0,,,,,,,,,cyan,diamond
0.0,5.0,1.0,1.0,6.0,6.0,610.2023470002678,7.0,0.0,part_2,stop,400.0,250.0,3.0,,,,,,,,,magenta,circle
0.0,5.0,1.0,1.0,6.0,0.0,0.0,7.0,0.0,part_2,stop,400.0,200.0,4.0,,,,,,,,,magenta,circle
0.0,4.0,4.0,0.0,6.0,6.0,952.095358000406,7.0,0.0,part_2,go,400.0,250.0,1.0,,,,,,,,,cyan,diamond
0.0,1.0,1.0,0.0,6.0,6.0,571.4807849999488,7.0,0.0,part_2,go,400.0,250.0,1.0,,,,,,,,,gray,flipped triangle
0.0,7.0,3.0,1.0,5.0,5.0,524.4370139998864,7.0,0.0,part_2,stop,400.0,250.0,3.0,,,,,,,,,orange,cross
0.0,8.0,4.0,1.0,6.0,0.0,0.0,7.0,0.0,part_2,stop,350.0,250.0,4.0,,,,,,,,,green,I
0.0,5.0,1.0,1.0,5.0,0.0,0.0,7.0,0.0,part_2,stop,350.0,300.0,4.0,,,,,,,,,magenta,circle
0.0,3.0,3.0,0.0,6.0,6.0,831.3269420004872,7.0,0.0,part_2,go,400.0,300.0,1.0,,,,,,,,,white,square
0.0,6.0,2.0,1.0,5.0,0.0,0.0,7.0,0.0,part_2,stop,400.0,300.0,4.0,,,,,,,,,yellow,triangle
0.0,5.0,1.0,1.0,5.0,5.0,606.432894000136,7.0,0.0,part_2,stop,450.0,300.0,3.0,,,,,,,,,magenta,circle
0.0,1.0,1.0,0.0,6.0,6.0,553.2629560002533,7.0,0.0,part_2,go,400.0,300.0,1.0,,,,,,,,,gray,flipped triangle
0.0,4.0,4.0,0.0,5.0,5.0,541.0578580003857,7.0,0.0,part_2,go,400.0,300.0,1.0,,,,,,,,,cyan,diamond
0.0,1.0,1.0,0.0,6.0,6.0,328.482277999683,7.0,0.0,part_2,go,400.0,300.0,1.0,,,,,,,,,gray,flipped triangle
0.0,8.0,4.0,1.0,6.0,6.0,338.25966000040347,7.0,0.0,part_2,go,400.0,300.0,1.0,,,,,,,,,green,I
0.0,3.0,3.0,0.0,5.0,5.0,430.1113660003466,7.0,0.0,part_2,go,400.0,300.0,1.0,,,,,,,,,white,square
0.0,2.0,2.0,0.0,6.0,6.0,524.9616900000547,7.0,0.0,part_2,go,400.0,300.0,1.0,,,,,,,,,blue,hexagon
0.0,2.0,2.0,0.0,5.0,5.0,636.506408999594,7.0,0.0,part_2,go,400.0,300.0,1.0,,,,,,,,,blue,hexagon
0.0,4.0,4.0,0.0,6.0,6.0,624.3242699993061,7.0,0.0,part_2,go,400.0,300.0,1.0,,,,,,,,,cyan,diamond
0.0,8.0,4.0,1.0,6.0,6.0,382.1085340005083,7.0,0.0,part_2,stop,400.0,300.0,3.0,,,,,,,,,green,I
0.0,2.0,2.0,0.0,6.0,6.0,541.5788939999402,7.0,0.0,part_2,go,400.0,250.0,1.0,,,,,,,,,blue,hexagon
0.0,7.0,3.0,1.0,5.0,5.0,590.6064320006408,7.0,0.0,part_2,stop,400.0,250.0,3.0,,,,,,,,,orange,cross
0.0,2.0,2.0,0.0,5.0,5.0,644.4360680006866,7.0,0.0,part_2,go,350.0,250.0,1.0,,,,,,,,,blue,hexagon
0.0,8.0,4.0,1.0,6.0,0.0,0.0,7.0,0.0,part_2,stop,350.0,250.0,4.0,,,,,,,,,green,I
0.0,5.0,1.0,1.0,6.0,0.0,0.0,7.0,0.0,part_2,stop,350.0,300.0,4.0,,,,,,,,,magenta,circle
0.0,7.0,3.0,1.0,5.0,5.0,616.706415000408,8.0,0.0,part_2,stop,350.0,350.0,3.0,,,,,,,,,orange,cross
0.0,4.0,4.0,0.0,6.0,6.0,401.987446000021,8.0,0.0,part_2,go,300.0,350.0,1.0,,,,,,,,,cyan,diamond
0.0,4.0,4.0,0.0,6.0,6.0,421.6636929995729,8.0,0.0,part_2,go,300.0,350.0,1.0,,,,,,,,,cyan,diamond
0.0,6.0,2.0,1.0,5.0,5.0,410.5294119999598,8.0,0.0,part_2,stop,300.0,350.0,3.0,,,,,,,,,yellow,triangle
0.0,8.0,4.0,1.0,6.0,6.0,439.1504810000697,8.0,0.0,part_2,stop,250.0,350.0,3.0,,,,,,,,,green,I
0.0,1.0,1.0,0.0,6.0,6.0,524.7825779997584,8.0,0.0,part_2,go,250.0,300.0,1.0,,,,,,,,,gray,flipped triangle
0.0,8.0,4.0,1.0,5.0,5.0,443.9756530000522,8.0,0.0,part_2,stop,250.0,300.0,3.0,,,,,,,,,green,I
0.0,1.0,1.0,0.0,5.0,5.0,589.3961720003063,8.0,0.0,part_2,go,200.0,300.0,1.0,,,,,,,,,gray,flipped triangle
0.0,6.0,2.0,1.0,6.0,0.0,0.0,8.0,0.0,part_2,stop,200.0,300.0,4.0,,,,,,,,,yellow,triangle
0.0,3.0,3.0,0.0,6.0,6.0,902.4757369998042,8.0,0.0,part_2,go,200.0,350.0,1.0,,,,,,,,,white,square
0.0,1.0,1.0,0.0,5.0,5.0,746.613162000358,8.0,0.0,part_2,go,200.0,350.0,1.0,,,,,,,,,gray,flipped triangle
0.0,5.0,1.0,1.0,5.0,5.0,664.5248490003723,8.0,0.0,part_2,go,200.0,350.0,1.0,,,,,,,,,magenta,circle
0.0,8.0,4.0,1.0,6.0,6.0,383.2343270005367,8.0,0.0,part_2,stop,200.0,350.0,3.0,,,,,,,,,green,I
0.0,4.0,4.0,0.0,5.0,5.0,886.4231759998802,8.0,0.0,part_2,go,200.0,300.0,1.0,,,,,,,,,cyan,diamond
0.0,4.0,4.0,0.0,6.0,6.0,794.2975890000525,8.0,0.0,part_2,go,200.0,300.0,1.0,,,,,,,,,cyan,diamond
0.0,3.0,3.0,0.0,6.0,6.0,916.6421930003708,8.0,0.0,part_2,go,200.0,300.0,1.0,,,,,,,,,white,square
0.0,4.0,4.0,0.0,5.0,5.0,635.3704620005374,8.0,0.0,part_2,go,200.0,300.0,1.0,,,,,,,,,cyan,diamond
0.0,6.0,2.0,1.0,5.0,0.0,0.0,8.0,0.0,part_2,stop,200.0,300.0,4.0,,,,,,,,,yellow,triangle
0.0,3.0,3.0,0.0,6.0,6.0,578.3213889999388,8.0,0.0,part_2,go,250.0,300.0,1.0,,,,,,,,,white,square
0.0,8.0,4.0,1.0,5.0,0.0,0.0,8.0,0.0,part_2,stop,250.0,300.0,4.0,,,,,,,,,green,I
0.0,6.0,2.0,1.0,6.0,0.0,0.0,8.0,0.0,part_2,stop,300.0,300.0,4.0,,,,,,,,,yellow,triangle
0.0,1.0,1.0,0.0,6.0,6.0,831.2167229996703,8.0,0.0,part_2,go,300.0,350.0,1.0,,,,,,,,,gray,flipped triangle
0.0,6.0,2.0,1.0,6.0,0.0,0.0,8.0,0.0,part_2,stop,300.0,350.0,4.0,,,,,,,,,yellow,triangle
0.0,7.0,3.0,1.0,5.0,0.0,0.0,8.0,0.0,part_2,stop,300.0,400.0,4.0,,,,,,,,,orange,cross
0.0,7.0,3.0,1.0,5.0,0.0,0.0,8.0,0.0,part_2,go,350.0,400.0,5.0,,,,,,,,,orange,cross
0.0,5.0,1.0,1.0,5.0,0.0,0.0,8.0,0.0,part_2,stop,350.0,400.0,4.0,,,,,,,,,magenta,circle
0.0,6.0,2.0,1.0,6.0,0.0,0.0,8.0,0.0,part_2,stop,400.0,400.0,4.0,,,,,,,,,yellow,triangle
0.0,5.0,1.0,1.0,6.0,6.0,589.4017059999896,8.0,0.0,part_2,stop,400.0,450.0,3.0,,,,,,,,,magenta,circle
0.0,1.0,1.0,0.0,5.0,5.0,645.466170999498,8.0,0.0,part_2,go,400.0,400.0,1.0,,,,,,,,,gray,flipped triangle
0.0,3.0,3.0,0.0,5.0,5.0,597.0313699999679,8.0,0.0,part_2,go,400.0,400.0,1.0,,,,,,,,,white,square
0.0,1.0,1.0,0.0,5.0,5.0,597.7944829992339,8.0,0.0,part_2,go,400.0,400.0,1.0,,,,,,,,,gray,flipped triangle
0.0,7.0,3.0,1.0,6.0,6.0,443.4558660004768,8.0,0.0,part_2,stop,400.0,400.0,3.0,,,,,,,,,orange,cross
0.0,8.0,4.0,1.0,5.0,0.0,0.0,8.0,0.0,part_2,stop,400.0,350.0,4.0,,,,,,,,,green,I
0.0,3.0,3.0,0.0,5.0,5.0,934.594952000225,8.0,0.0,part_2,go,450.0,350.0,1.0,,,,,,,,,white,square
0.0,2.0,2.0,0.0,5.0,5.0,475.502499999493,8.0,0.0,part_2,go,450.0,350.0,1.0,,,,,,,,,blue,hexagon
0.0,3.0,3.0,0.0,6.0,6.0,420.3615129999889,8.0,0.0,part_2,go,450.0,350.0,1.0,,,,,,,,,white,square
0.0,4.0,4.0,0.0,7.0,4.0,4908.291083000222,1.0,1.0,part_3,go,0.0,0.0,0.0,960.0,5.0,576.0,384.0,192.0,960.0,768.0,1152.0,cyan,diamond
0.0,1.0,1.0,0.0,7.0,2.0,2893.454727000062,1.0,1.0,part_3,go,0.0,0.0,0.0,348.0,3.0,232.0,348.0,116.0,464.0,696.0,580.0,gray,flipped triangle
0.0,5.0,1.0,1.0,7.0,3.0,981.8711559992151,1.0,2.0,part_3,go,0.0,0.0,0.0,540.0,4.0,405.0,270.0,540.0,810.0,135.0,675.0,magenta,circle
0.0,3.0,3.0,0.0,7.0,2.0,1799.9162880005315,1.0,1.0,part_3,go,0.0,0.0,0.0,462.0,3.0,770.0,462.0,154.0,616.0,924.0,308.0,white,square
0.0,4.0,4.0,0.0,7.0,3.0,3751.469283000006,1.0,1.0,part_3,go,0.0,0.0,0.0,810.0,6.0,675.0,540.0,810.0,405.0,135.0,270.0,cyan,diamond
0.0,1.0,1.0,0.0,7.0,4.0,3254.5158950006225,1.0,1.0,part_3,go,0.0,0.0,0.0,154.0,1.0,462.0,308.0,924.0,154.0,616.0,770.0,gray,flipped triangle
0.0,2.0,2.0,0.0,7.0,1.0,3225.6219580003744,1.0,1.0,part_3,go,0.0,0.0,0.0,580.0,5.0,580.0,696.0,464.0,348.0,232.0,116.0,blue,hexagon
0.0,4.0,4.0,0.0,7.0,6.0,2037.4805800001923,1.0,1.0,part_3,go,0.0,0.0,0.0,692.0,4.0,173.0,865.0,519.0,346.0,1038.0,692.0,cyan,diamond
0.0,4.0,4.0,0.0,7.0,4.0,3897.768836000069,1.0,1.0,part_3,go,0.0,0.0,0.0,810.0,6.0,135.0,540.0,405.0,810.0,675.0,270.0,cyan,diamond
0.0,1.0,1.0,0.0,7.0,2.0,1376.4824390000283,1.0,1.0,part_3,go,0.0,0.0,0.0,384.0,2.0,576.0,384.0,960.0,192.0,1152.0,768.0,gray,flipped triangle
0.0,5.0,1.0,1.0,7.0,6.0,751.9053460000578,1.0,1.0,part_3,go,0.0,0.0,0.0,519.0,3.0,1038.0,865.0,692.0,173.0,346.0,519.0,magenta,circle
0.0,2.0,2.0,0.0,7.0,1.0,3761.3713109994937,1.0,1.0,part_3,go,0.0,0.0,0.0,865.0,5.0,865.0,1038.0,519.0,692.0,346.0,173.0,blue,hexagon
0.0,4.0,4.0,0.0,7.0,6.0,3392.947364000065,1.0,1.0,part_3,go,0.0,0.0,0.0,770.0,5.0,154.0,616.0,308.0,924.0,462.0,770.0,cyan,diamond
0.0,6.0,2.0,1.0,7.0,5.0,3724.373322000247,1.0,1.0,part_3,go,0.0,0.0,0.0,675.0,5.0,135.0,270.0,810.0,540.0,675.0,405.0,yellow,triangle
0.0,8.0,4.0,1.0,7.0,1.0,3254.6025139999983,1.0,1.0,part_3,go,0.0,0.0,0.0,960.0,5.0,960.0,384.0,192.0,1152.0,768.0,576.0,green,I
0.0,8.0,4.0,1.0,7.0,6.0,1362.2417349997704,1.0,1.0,part_3,go,0.0,0.0,0.0,135.0,1.0,270.0,675.0,405.0,540.0,810.0,135.0,green,I
0.0,2.0,2.0,0.0,7.0,3.0,917.8848030005612,1.0,2.0,part_3,go,0.0,0.0,0.0,696.0,6.0,116.0,232.0,696.0,464.0,580.0,348.0,blue,hexagon
0.0,1.0,1.0,0.0,7.0,2.0,2712.0541770000273,1.0,1.0,part_3,go,0.0,0.0,0.0,519.0,3.0,173.0,519.0,1038.0,346.0,692.0,865.0,gray,flipped triangle
0.0,7.0,3.0,1.0,7.0,2.0,3956.0933140001,1.0,1.0,part_3,go,0.0,0.0,0.0,540.0,4.0,135.0,540.0,810.0,675.0,405.0,270.0,orange,cross
0.0,8.0,4.0,1.0,7.0,2.0,3360.6309739998323,1.0,1.0,part_3,go,0.0,0.0,0.0,540.0,4.0,675.0,540.0,405.0,810.0,135.0,270.0,green,I
0.0,7.0,3.0,1.0,7.0,3.0,4034.517387000051,2.0,1.0,part_3,go,0.0,0.0,0.0,770.0,5.0,154.0,308.0,770.0,616.0,462.0,924.0,orange,cross
0.0,3.0,3.0,0.0,7.0,3.0,3197.174877999714,2.0,1.0,part_3,go,0.0,0.0,0.0,865.0,5.0,173.0,346.0,865.0,519.0,692.0,1038.0,white,square
0.0,1.0,1.0,0.0,7.0,4.0,1796.902842000236,2.0,1.0,part_3,go,0.0,0.0,0.0,540.0,4.0,405.0,135.0,270.0,540.0,810.0,675.0,gray,flipped triangle
0.0,8.0,4.0,1.0,7.0,5.0,2430.1948880001873,2.0,1.0,part_3,go,0.0,0.0,0.0,580.0,5.0,464.0,696.0,232.0,116.0,580.0,348.0,green,I
0.0,8.0,4.0,1.0,7.0,1.0,4388.003863999984,2.0,1.0,part_3,go,0.0,0.0,0.0,924.0,6.0,924.0,154.0,308.0,770.0,462.0,616.0,green,I
0.0,8.0,4.0,1.0,7.0,6.0,2907.0633530000123,2.0,1.0,part_3,go,0.0,0.0,0.0,580.0,5.0,232.0,464.0,696.0,116.0,348.0,580.0,green,I
0.0,4.0,4.0,0.0,7.0,3.0,2739.369095999791,2.0,1.0,part_3,go,0.0,0.0,0.0,580.0,5.0,696.0,116.0,580.0,348.0,232.0,464.0,cyan,diamond
0.0,3.0,3.0,0.0,7.0,3.0,1950.3621710000516,2.0,1.0,part_3,go,0.0,0.0,0.0,675.0,5.0,405.0,810.0,675.0,270.0,540.0,135.0,white,square
0.0,2.0,2.0,0.0,7.0,2.0,2794.7592440004883,2.0,1.0,part_3,go,0.0,0.0,0.0,770.0,5.0,616.0,770.0,924.0,154.0,462.0,308.0,blue,hexagon
0.0,7.0,3.0,1.0,7.0,3.0,3584.4923439999548,2.0,1.0,part_3,go,0.0,0.0,0.0,576.0,3.0,384.0,1152.0,576.0,960.0,192.0,768.0,orange,cross
0.0,5.0,1.0,1.0,7.0,5.0,3628.901908000444,2.0,1.0,part_3,go,0.0,0.0,0.0,770.0,5.0,308.0,154.0,462.0,616.0,770.0,924.0,magenta,circle
0.0,2.0,2.0,0.0,7.0,3.0,3860.1108819993897,2.0,1.0,part_3,go,0.0,0.0,0.0,770.0,5.0,308.0,154.0,770.0,616.0,924.0,462.0,blue,hexagon
0.0,2.0,2.0,0.0,7.0,4.0,3551.4058560002013,2.0,1.0,part_3,go,0.0,0.0,0.0,540.0,4.0,675.0,405.0,810.0,540.0,135.0,270.0,blue,hexagon
0.0,1.0,1.0,0.0,7.0,5.0,3629.335417999755,2.0,1.0,part_3,go,0.0,0.0,0.0,464.0,4.0,348.0,116.0,232.0,580.0,464.0,696.0,gray,flipped triangle
0.0,1.0,1.0,0.0,7.0,6.0,3341.314571000112,2.0,1.0,part_3,go,0.0,0.0,0.0,770.0,5.0,616.0,924.0,308.0,462.0,154.0,770.0,gray,flipped triangle
0.0,8.0,4.0,1.0,7.0,2.0,4131.320278000203,2.0,2.0,part_3,go,0.0,0.0,0.0,692.0,4.0,1038.0,692.0,346.0,173.0,865.0,519.0,green,I
0.0,6.0,2.0,1.0,7.0,1.0,3785.332209999978,2.0,1.0,part_3,go,0.0,0.0,0.0,770.0,5.0,770.0,154.0,462.0,616.0,308.0,924.0,yellow,triangle
0.0,7.0,3.0,1.0,7.0,2.0,4363.136166999539,2.0,1.0,part_3,go,0.0,0.0,0.0,770.0,5.0,154.0,770.0,308.0,616.0,924.0,462.0,orange,cross
0.0,4.0,4.0,0.0,7.0,4.0,2398.7745659997017,2.0,1.0,part_3,go,0.0,0.0,0.0,696.0,6.0,464.0,348.0,232.0,696.0,116.0,580.0,cyan,diamond
0.0,4.0,4.0,0.0,7.0,2.0,2921.4035109998804,2.0,1.0,part_3,go,0.0,0.0,0.0,519.0,3.0,346.0,519.0,692.0,173.0,865.0,1038.0,cyan,diamond
0.0,7.0,3.0,1.0,7.0,6.0,3599.911624000015,3.0,1.0,part_3,go,0.0,0.0,0.0,675.0,5.0,270.0,810.0,405.0,540.0,135.0,675.0,orange,cross
0.0,2.0,2.0,0.0,7.0,2.0,4117.363888,3.0,1.0,part_3,go,0.0,0.0,0.0,768.0,4.0,960.0,768.0,384.0,192.0,1152.0,576.0,blue,hexagon
0.0,6.0,2.0,1.0,7.0,1.0,2331.364517000111,3.0,1.0,part_3,go,0.0,0.0,0.0,692.0,4.0,692.0,519.0,173.0,346.0,1038.0,865.0,yellow,triangle
0.0,4.0,4.0,0.0,7.0,5.0,2220.101896000415,3.0,2.0,part_3,go,0.0,0.0,0.0,576.0,3.0,192.0,384.0,768.0,1152.0,576.0,960.0,cyan,diamond
0.0,3.0,3.0,0.0,7.0,2.0,3877.8583660005097,3.0,1.0,part_3,go,0.0,0.0,0.0,616.0,4.0,462.0,616.0,308.0,770.0,924.0,154.0,white,square
0.0,5.0,1.0,1.0,7.0,5.0,3233.5990090005,3.0,1.0,part_3,go,0.0,0.0,0.0,770.0,5.0,154.0,616.0,924.0,462.0,770.0,308.0,magenta,circle
0.0,8.0,4.0,1.0,7.0,4.0,3776.8101649999153,3.0,1.0,part_3,go,0.0,0.0,0.0,384.0,2.0,960.0,192.0,1152.0,384.0,768.0,576.0,green,I
0.0,8.0,4.0,1.0,7.0,2.0,3569.0436839995527,3.0,1.0,part_3,go,0.0,0.0,0.0,692.0,4.0,1038.0,692.0,173.0,346.0,519.0,865.0,green,I
0.0,5.0,1.0,1.0,7.0,3.0,3146.848823000255,3.0,1.0,part_3,go,0.0,0.0,0.0,1038.0,6.0,865.0,519.0,1038.0,692.0,173.0,346.0,magenta,circle
0.0,3.0,3.0,0.0,7.0,1.0,3939.52119900041,3.0,1.0,part_3,go,0.0,0.0,0.0,768.0,4.0,768.0,576.0,384.0,1152.0,192.0,960.0,white,square
0.0,4.0,4.0,0.0,7.0,6.0,2526.1884539995663,3.0,1.0,part_3,go,0.0,0.0,0.0,770.0,5.0,924.0,616.0,462.0,154.0,308.0,770.0,cyan,diamond
0.0,7.0,3.0,1.0,7.0,1.0,2895.7198150001204,3.0,1.0,part_3,go,0.0,0.0,0.0,692.0,4.0,692.0,865.0,173.0,519.0,346.0,1038.0,orange,cross
0.0,5.0,1.0,1.0,7.0,3.0,2655.6427730001815,3.0,1.0,part_3,go,0.0,0.0,0.0,768.0,4.0,192.0,576.0,768.0,1152.0,960.0,384.0,magenta,circle
0.0,8.0,4.0,1.0,7.0,4.0,2043.0570219996298,3.0,1.0,part_3,go,0.0,0.0,0.0,924.0,6.0,770.0,154.0,616.0,924.0,462.0,308.0,green,I
0.0,3.0,3.0,0.0,7.0,5.0,3005.0929740000356,3.0,1.0,part_3,go,0.0,0.0,0.0,464.0,4.0,348.0,116.0,696.0,232.0,464.0,580.0,white,square
0.0,6.0,2.0,1.0,7.0,4.0,2059.1807900000276,3.0,1.0,part_3,go,0.0,0.0,0.0,580.0,5.0,348.0,116.0,232.0,580.0,464.0,696.0,yellow,triangle
0.0,3.0,3.0,0.0,7.0,1.0,1528.817918000641,3.0,1.0,part_3,go,0.0,0.0,0.0,540.0,4.0,540.0,405.0,270.0,675.0,810.0,135.0,white,square
0.0,6.0,2.0,1.0,7.0,5.0,2917.4383070003387,3.0,1.0,part_3,go,0.0,0.0,0.0,865.0,5.0,519.0,692.0,173.0,1038.0,865.0,346.0,yellow,triangle
0.0,1.0,1.0,0.0,7.0,6.0,595.0714959999459,3.0,1.0,part_3,go,0.0,0.0,0.0,810.0,6.0,405.0,135.0,540.0,270.0,675.0,810.0,gray,flipped triangle
0.0,6.0,2.0,1.0,7.0,6.0,3427.7835769999,3.0,1.0,part_3,go,0.0,0.0,0.0,576.0,3.0,192.0,768.0,384.0,1152.0,960.0,576.0,yellow,triangle
0.0,6.0,2.0,1.0,7.0,4.0,3999.687932000598,4.0,1.0,part_3,go,0.0,0.0,0.0,696.0,6.0,464.0,348.0,116.0,696.0,580.0,232.0,yellow,triangle
0.0,5.0,1.0,1.0,7.0,4.0,3654.533481000726,4.0,1.0,part_3,go,0.0,0.0,0.0,384.0,2.0,192.0,1152.0,576.0,384.0,960.0,768.0,magenta,circle
0.0,3.0,3.0,0.0,7.0,6.0,3128.368531999513,4.0,1.0,part_3,go,0.0,0.0,0.0,768.0,4.0,576.0,384.0,960.0,1152.0,192.0,768.0,white,square
0.0,2.0,2.0,0.0,7.0,3.0,2774.546208999709,4.0,1.0,part_3,go,0.0,0.0,0.0,540.0,4.0,810.0,135.0,540.0,405.0,675.0,270.0,blue,hexagon
0.0,7.0,3.0,1.0,7.0,6.0,2629.654593999476,4.0,1.0,part_3,go,0.0,0.0,0.0,576.0,3.0,1152.0,192.0,960.0,768.0,384.0,576.0,orange,cross
0.0,3.0,3.0,0.0,7.0,1.0,4483.697062999454,4.0,1.0,part_3,go,0.0,0.0,0.0,519.0,3.0,519.0,865.0,173.0,692.0,1038.0,346.0,white,square
0.0,6.0,2.0,1.0,7.0,4.0,3741.676274999918,4.0,2.0,part_3,go,0.0,0.0,0.0,770.0,5.0,924.0,462.0,154.0,770.0,616.0,308.0,yellow,triangle
0.0,7.0,3.0,1.0,7.0,6.0,3230.6923090000055,4.0,1.0,part_3,go,0.0,0.0,0.0,580.0,5.0,116.0,464.0,232.0,696.0,348.0,580.0,orange,cross
0.0,7.0,3.0,1.0,7.0,5.0,3967.644305000249,4.0,1.0,part_3,go,0.0,0.0,0.0,692.0,4.0,519.0,173.0,346.0,1038.0,692.0,865.0,orange,cross
0.0,2.0,2.0,0.0,7.0,5.0,3841.2006750004366,4.0,1.0,part_3,go,0.0,0.0,0.0,692.0,4.0,346.0,1038.0,173.0,519.0,692.0,865.0,blue,hexagon
0.0,6.0,2.0,1.0,7.0,5.0,3719.9186360003296,4.0,1.0,part_3,go,0.0,0.0,0.0,768.0,4.0,576.0,960.0,1152.0,384.0,768.0,192.0,yellow,triangle
0.0,1.0,1.0,0.0,7.0,6.0,3714.304672999788,4.0,1.0,part_3,go,0.0,0.0,0.0,768.0,4.0,960.0,192.0,384.0,576.0,1152.0,768.0,gray,flipped triangle
0.0,3.0,3.0,0.0,7.0,5.0,3907.936986000095,4.0,1.0,part_3,go,0.0,0.0,0.0,232.0,2.0,464.0,580.0,696.0,348.0,232.0,116.0,white,square
0.0,1.0,1.0,0.0,7.0,3.0,3989.1586879994065,4.0,2.0,part_3,go,0.0,0.0,0.0,519.0,3.0,346.0,692.0,519.0,1038.0,865.0,173.0,gray,flipped triangle
0.0,5.0,1.0,1.0,7.0,3.0,3869.1742179998982,4.0,1.0,part_3,go,0.0,0.0,0.0,580.0,5.0,116.0,348.0,580.0,232.0,464.0,696.0,magenta,circle
0.0,5.0,1.0,1.0,7.0,6.0,2749.1022079993854,4.0,1.0,part_3,go,0.0,0.0,0.0,540.0,4.0,675.0,405.0,135.0,270.0,810.0,540.0,magenta,circle
0.0,5.0,1.0,1.0,7.0,1.0,1112.0223950001673,4.0,2.0,part_3,go,0.0,0.0,0.0,232.0,2.0,232.0,696.0,348.0,580.0,116.0,464.0,magenta,circle
0.0,2.0,2.0,0.0,7.0,4.0,4039.1038409998146,4.0,1.0,part_3,go,0.0,0.0,0.0,960.0,5.0,768.0,192.0,576.0,960.0,384.0,1152.0,blue,hexagon
0.0,7.0,3.0,1.0,7.0,2.0,3800.148387000263,4.0,1.0,part_3,go,0.0,0.0,0.0,696.0,6.0,348.0,696.0,116.0,580.0,464.0,232.0,orange,cross
0.0,6.0,2.0,1.0,7.0,1.0,2758.073019999756,4.0,1.0,part_3,go,0.0,0.0,0.0,675.0,5.0,675.0,405.0,270.0,135.0,810.0,540.0,yellow,triangle
