raw_reward_magnitude,stim_reward,stepwise_reward_magnitude,paired_with_stopping,stim_location,response,reaction_time,block,num_trial_presentations,which_phase,stop_signal_trial_type,left_SSD,right_SSD,accuracy,chosen_bidding_amount,chosen_bidding_level,possible_bid_1,possible_bid_2,possible_bid_3,possible_bid_4,possible_bid_5,possible_bid_6,color_text,shape_text
145.0,5.0,1.0,1.0,1.0,1.0,243.9367540000603,1.0,1.0,phase_1,,,,,,,,,,,,,orange,diamond
140.0,1.0,1.0,0.0,4.0,4.0,298.2863759998508,1.0,1.0,phase_1,,,,,,,,,,,,,blue,cross
644.0,7.0,3.0,1.0,1.0,1.0,297.5875640004233,1.0,1.0,phase_1,,,,,,,,,,,,,green,hexagon
1305.0,8.0,4.0,1.0,1.0,1.0,362.1913500001028,1.0,1.0,phase_1,,,,,,,,,,,,,white,flipped triangle
662.0,3.0,3.0,0.0,3.0,3.0,278.9838479993705,1.0,1.0,phase_1,,,,,,,,,,,,,cyan,triangle
328.0,6.0,2.0,1.0,2.0,2.0,282.8690259993891,1.0,1.0,phase_1,,,,,,,,,,,,,magenta,I
336.0,6.0,2.0,1.0,2.0,2.0,271.7833400001836,1.0,1.0,phase_1,,,,,,,,,,,,,magenta,I
183.0,5.0,1.0,1.0,4.0,4.0,278.1551750003928,1.0,1.0,phase_1,,,,,,,,,,,,,orange,diamond
164.0,5.0,1.0,1.0,2.0,2.0,240.8543510000527,1.0,1.0,phase_1,,,,,,,,,,,,,orange,diamond
1309.0,4.0,4.0,0.0,2.0,2.0,309.0069890004088,1.0,1.0,phase_1,,,,,,,,,,,,,gray,square
663.0,7.0,3.0,1.0,1.0,1.0,277.4804840000797,1.0,1.0,phase_1,,,,,,,,,,,,,green,hexagon
0.0,5.0,0.0,1.0,1.0,1.0,239.7281769999608,1.0,1.0,phase_1,,,,,,,,,,,,,orange,diamond
665.0,7.0,3.0,1.0,3.0,3.0,296.4467410001816,1.0,2.0,phase_1,,,,,,,,,,,,,green,hexagon
0.0,3.0,0.0,0.0,1.0,1.0,296.6823719998501,1.0,1.0,phase_1,,,,,,,,,,,,,cyan,triangle
649.0,7.0,3.0,1.0,4.0,4.0,265.9457049994671,1.0,1.0,phase_1,,,,,,,,,,,,,green,hexagon
306.0,2.0,2.0,0.0,1.0,1.0,264.2601219995413,1.0,1.0,phase_1,,,,,,,,,,,,,yellow,circle
329.0,6.0,2.0,1.0,3.0,3.0,275.0722419996236,1.0,1.0,phase_1,,,,,,,,,,,,,magenta,I
0.0,7.0,0.0,1.0,2.0,2.0,247.6023459994394,1.0,1.0,phase_1,,,,,,,,,,,,,green,hexagon
666.0,3.0,3.0,0.0,2.0,2.0,307.4326849991848,1.0,1.0,phase_1,,,,,,,,,,,,,cyan,triangle
301.0,2.0,2.0,0.0,1.0,1.0,327.0205959997838,1.0,1.0,phase_1,,,,,,,,,,,,,yellow,circle
149.0,5.0,1.0,1.0,1.0,1.0,251.5725169996585,1.0,1.0,phase_1,,,,,,,,,,,,,orange,diamond
1278.0,8.0,4.0,1.0,2.0,2.0,321.6553439997369,1.0,1.0,phase_1,,,,,,,,,,,,,white,flipped triangle
1277.0,8.0,4.0,1.0,1.0,1.0,257.5895259997196,1.0,1.0,phase_1,,,,,,,,,,,,,white,flipped triangle
1323.0,8.0,4.0,1.0,1.0,1.0,275.9096899999349,1.0,1.0,phase_1,,,,,,,,,,,,,white,flipped triangle
181.0,5.0,1.0,1.0,3.0,3.0,304.7015140000439,1.0,1.0,phase_1,,,,,,,,,,,,,orange,diamond
662.0,7.0,3.0,1.0,3.0,3.0,299.4003730000258,1.0,1.0,phase_1,,,,,,,,,,,,,green,hexagon
0.0,1.0,0.0,0.0,2.0,2.0,317.2487930005445,1.0,1.0,phase_1,,,,,,,,,,,,,blue,cross
0.0,1.0,0.0,0.0,4.0,4.0,300.9240000001227,1.0,1.0,phase_1,,,,,,,,,,,,,blue,cross
138.0,5.0,1.0,1.0,4.0,4.0,281.8846800000756,1.0,1.0,phase_1,,,,,,,,,,,,,orange,diamond
657.0,7.0,3.0,1.0,4.0,4.0,279.5266089997312,1.0,1.0,phase_1,,,,,,,,,,,,,green,hexagon
626.0,3.0,3.0,0.0,4.0,4.0,268.3406480000485,1.0,1.0,phase_1,,,,,,,,,,,,,cyan,triangle
349.0,6.0,2.0,1.0,3.0,3.0,310.4195509995406,1.0,1.0,phase_1,,,,,,,,,,,,,magenta,I
1301.0,4.0,4.0,0.0,4.0,4.0,252.54884100013442,1.0,1.0,phase_1,,,,,,,,,,,,,gray,square
674.0,3.0,3.0,0.0,3.0,3.0,279.7128100000918,1.0,1.0,phase_1,,,,,,,,,,,,,cyan,triangle
666.0,7.0,3.0,1.0,2.0,2.0,321.4552210001784,1.0,1.0,phase_1,,,,,,,,,,,,,green,hexagon
1316.0,8.0,4.0,1.0,1.0,1.0,315.5154229998516,1.0,2.0,phase_1,,,,,,,,,,,,,white,flipped triangle
147.0,5.0,1.0,1.0,3.0,3.0,295.0471040003322,1.0,1.0,phase_1,,,,,,,,,,,,,orange,diamond
1313.0,8.0,4.0,1.0,4.0,4.0,277.3459259997253,1.0,1.0,phase_1,,,,,,,,,,,,,white,flipped triangle
0.0,7.0,0.0,1.0,4.0,4.0,315.458185999887,1.0,1.0,phase_1,,,,,,,,,,,,,green,hexagon
0.0,6.0,0.0,1.0,4.0,4.0,289.1998250006509,1.0,1.0,phase_1,,,,,,,,,,,,,magenta,I
321.0,6.0,2.0,1.0,2.0,2.0,354.55067299972137,1.0,1.0,phase_1,,,,,,,,,,,,,magenta,I
0.0,5.0,0.0,1.0,3.0,3.0,383.2531210000525,1.0,1.0,phase_1,,,,,,,,,,,,,orange,diamond
336.0,2.0,2.0,0.0,3.0,3.0,278.4512130001531,1.0,1.0,phase_1,,,,,,,,,,,,,yellow,circle
1313.0,4.0,4.0,0.0,1.0,1.0,382.8831420005372,1.0,2.0,phase_1,,,,,,,,,,,,,gray,square
1317.0,4.0,4.0,0.0,3.0,3.0,338.1950270004381,1.0,1.0,phase_1,,,,,,,,,,,,,gray,square
659.0,7.0,3.0,1.0,3.0,3.0,325.7485300000553,1.0,1.0,phase_1,,,,,,,,,,,,,green,hexagon
632.0,7.0,3.0,1.0,4.0,4.0,426.6446949995952,1.0,1.0,phase_1,,,,,,,,,,,,,green,hexagon
139.0,1.0,1.0,0.0,3.0,3.0,378.2719410000936,1.0,1.0,phase_1,,,,,,,,,,,,,blue,cross
155.0,5.0,1.0,1.0,2.0,2.0,370.9565840008508,1.0,1.0,phase_1,,,,,,,,,,,,,orange,diamond
1321.0,4.0,4.0,0.0,1.0,1.0,390.5351089997566,1.0,1.0,phase_1,,,,,,,,,,,,,gray,square
0.0,4.0,0.0,0.0,3.0,3.0,380.0137319994974,1.0,1.0,phase_1,,,,,,,,,,,,,gray,square
1312.0,4.0,4.0,0.0,3.0,3.0,315.101180000056,1.0,1.0,phase_1,,,,,,,,,,,,,gray,square
1283.0,8.0,4.0,1.0,1.0,1.0,360.9507520004626,1.0,1.0,phase_1,,,,,,,,,,,,,white,flipped triangle
644.0,3.0,3.0,0.0,2.0,2.0,417.1676930000103,1.0,1.0,phase_1,,,,,,,,,,,,,cyan,triangle
143.0,5.0,1.0,1.0,1.0,1.0,380.5160629999591,1.0,1.0,phase_1,,,,,,,,,,,,,orange,diamond
322.0,2.0,2.0,0.0,1.0,1.0,382.2391780004182,1.0,1.0,phase_1,,,,,,,,,,,,,yellow,circle
646.0,3.0,3.0,0.0,2.0,2.0,315.7443760001115,1.0,1.0,phase_1,,,,,,,,,,,,,cyan,triangle
655.0,7.0,3.0,1.0,3.0,3.0,373.642208000092,1.0,1.0,phase_1,,,,,,,,,,,,,green,hexagon
1279.0,8.0,4.0,1.0,2.0,2.0,303.7993289999576,1.0,1.0,phase_1,,,,,,,,,,,,,white,flipped triangle
336.0,6.0,2.0,1.0,4.0,4.0,323.1694099995366,1.0,1.0,phase_1,,,,,,,,,,,,,magenta,I
0.0,7.0,0.0,1.0,3.0,3.0,303.9366800003336,1.0,1.0,phase_1,,,,,,,,,,,,,green,hexagon
650.0,7.0,3.0,1.0,4.0,4.0,265.5171380001775,1.0,1.0,phase_1,,,,,,,,,,,,,green,hexagon
1309.0,8.0,4.0,1.0,4.0,4.0,275.4796569997779,1.0,1.0,phase_1,,,,,,,,,,,,,white,flipped triangle
0.0,7.0,0.0,1.0,1.0,1.0,293.9139930003875,1.0,1.0,phase_1,,,,,,,,,,,,,green,hexagon
1311.0,8.0,4.0,1.0,1.0,1.0,361.0328479999225,1.0,1.0,phase_1,,,,,,,,,,,,,white,flipped triangle
1317.0,4.0,4.0,0.0,3.0,3.0,365.1869300001635,1.0,1.0,phase_1,,,,,,,,,,,,,gray,square
0.0,1.0,0.0,0.0,2.0,2.0,314.201170999695,1.0,1.0,phase_1,,,,,,,,,,,,,blue,cross
0.0,4.0,0.0,0.0,2.0,2.0,304.5193649995781,1.0,1.0,phase_1,,,,,,,,,,,,,gray,square
314.0,2.0,2.0,0.0,2.0,2.0,334.7154980001505,1.0,1.0,phase_1,,,,,,,,,,,,,yellow,circle
0.0,3.0,0.0,0.0,1.0,1.0,313.1013610000082,1.0,1.0,phase_1,,,,,,,,,,,,,cyan,triangle
1314.0,8.0,4.0,1.0,3.0,3.0,313.0792259998998,1.0,1.0,phase_1,,,,,,,,,,,,,white,flipped triangle
0.0,7.0,0.0,1.0,4.0,4.0,293.3589519998349,1.0,1.0,phase_1,,,,,,,,,,,,,green,hexagon
170.0,1.0,1.0,0.0,2.0,2.0,278.850704999968,1.0,1.0,phase_1,,,,,,,,,,,,,blue,cross
1283.0,4.0,4.0,0.0,4.0,4.0,277.5960010003473,1.0,1.0,phase_1,,,,,,,,,,,,,gray,square
168.0,1.0,1.0,0.0,4.0,4.0,295.7983150008658,1.0,1.0,phase_1,,,,,,,,,,,,,blue,cross
0.0,2.0,0.0,0.0,1.0,1.0,324.5584440001039,1.0,1.0,phase_1,,,,,,,,,,,,,yellow,circle
317.0,2.0,2.0,0.0,2.0,2.0,287.1066059997247,1.0,1.0,phase_1,,,,,,,,,,,,,yellow,circle
312.0,2.0,2.0,0.0,4.0,4.0,273.6631080006191,1.0,1.0,phase_1,,,,,,,,,,,,,yellow,circle
336.0,6.0,2.0,1.0,1.0,1.0,379.3965519998892,1.0,1.0,phase_1,,,,,,,,,,,,,magenta,I
1305.0,4.0,4.0,0.0,4.0,4.0,276.0277929992298,1.0,1.0,phase_1,,,,,,,,,,,,,gray,square
169.0,5.0,1.0,1.0,3.0,3.0,318.4383600000728,1.0,1.0,phase_1,,,,,,,,,,,,,orange,diamond
0.0,1.0,0.0,0.0,4.0,4.0,273.7817690003794,1.0,1.0,phase_1,,,,,,,,,,,,,blue,cross
0.0,3.0,0.0,0.0,1.0,1.0,294.4707269998616,1.0,1.0,phase_1,,,,,,,,,,,,,cyan,triangle
674.0,3.0,3.0,0.0,4.0,4.0,288.9461659997323,1.0,1.0,phase_1,,,,,,,,,,,,,cyan,triangle
168.0,5.0,1.0,1.0,2.0,2.0,305.7935849992645,1.0,1.0,phase_1,,,,,,,,,,,,,orange,diamond
137.0,5.0,1.0,1.0,1.0,1.0,298.6293530002513,1.0,1.0,phase_1,,,,,,,,,,,,,orange,diamond
1308.0,8.0,4.0,1.0,1.0,1.0,368.6719620000076,1.0,1.0,phase_1,,,,,,,,,,,,,white,flipped triangle
160.0,1.0,1.0,0.0,1.0,1.0,293.8410329998078,1.0,1.0,phase_1,,,,,,,,,,,,,blue,cross
0.0,3.0,0.0,0.0,3.0,3.0,368.8559709999026,1.0,1.0,phase_1,,,,,,,,,,,,,cyan,triangle
0.0,5.0,0.0,1.0,4.0,4.0,334.2191760002606,1.0,1.0,phase_1,,,,,,,,,,,,,orange,diamond
1277.0,4.0,4.0,0.0,3.0,3.0,269.7568440007671,1.0,1.0,phase_1,,,,,,,,,,,,,gray,square
1314.0,4.0,4.0,0.0,2.0,2.0,317.6128980003341,1.0,1.0,phase_1,,,,,,,,,,,,,gray,square
0.0,7.0,0.0,1.0,3.0,3.0,365.0398479994692,1.0,1.0,phase_1,,,,,,,,,,,,,green,hexagon
153.0,5.0,1.0,1.0,1.0,1.0,271.4047130002655,1.0,1.0,phase_1,,,,,,,,,,,,,orange,diamond
648.0,3.0,3.0,0.0,3.0,3.0,283.3470929999748,1.0,1.0,phase_1,,,,,,,,,,,,,cyan,triangle
305.0,2.0,2.0,0.0,4.0,4.0,317.8335820002758,1.0,1.0,phase_1,,,,,,,,,,,,,yellow,circle
306.0,6.0,2.0,1.0,1.0,1.0,280.4576650005401,1.0,1.0,phase_1,,,,,,,,,,,,,magenta,I
314.0,6.0,2.0,1.0,1.0,1.0,275.3105600004346,1.0,1.0,phase_1,,,,,,,,,,,,,magenta,I
626.0,7.0,3.0,1.0,3.0,3.0,284.7423690000141,1.0,1.0,phase_1,,,,,,,,,,,,,green,hexagon
317.0,6.0,2.0,1.0,4.0,4.0,252.4399840003752,1.0,1.0,phase_1,,,,,,,,,,,,,magenta,I
172.0,1.0,1.0,0.0,2.0,2.0,338.7994260001505,2.0,1.0,phase_1,,,,,,,,,,,,,blue,cross
1283.0,8.0,4.0,1.0,1.0,1.0,377.0901389998471,2.0,1.0,phase_1,,,,,,,,,,,,,white,flipped triangle
645.0,7.0,3.0,1.0,1.0,1.0,269.3878649997714,2.0,1.0,phase_1,,,,,,,,,,,,,green,hexagon
314.0,6.0,2.0,1.0,3.0,3.0,306.1164559994722,2.0,1.0,phase_1,,,,,,,,,,,,,magenta,I
301.0,2.0,2.0,0.0,3.0,3.0,336.6999749996466,2.0,1.0,phase_1,,,,,,,,,,,,,yellow,circle
164.0,1.0,1.0,0.0,3.0,3.0,269.180492000487,2.0,1.0,phase_1,,,,,,,,,,,,,blue,cross
307.0,2.0,2.0,0.0,2.0,2.0,296.8827369995779,2.0,1.0,phase_1,,,,,,,,,,,,,yellow,circle
341.0,2.0,2.0,0.0,1.0,1.0,302.1655570000803,2.0,1.0,phase_1,,,,,,,,,,,,,yellow,circle
0.0,8.0,0.0,1.0,1.0,1.0,296.958753000581,2.0,1.0,phase_1,,,,,,,,,,,,,white,flipped triangle
0.0,3.0,0.0,0.0,1.0,1.0,315.2149259994985,2.0,1.0,phase_1,,,,,,,,,,,,,cyan,triangle
0.0,7.0,0.0,1.0,1.0,1.0,314.9850850004441,2.0,1.0,phase_1,,,,,,,,,,,,,green,hexagon
0.0,1.0,0.0,0.0,3.0,3.0,304.6858509997037,2.0,1.0,phase_1,,,,,,,,,,,,,blue,cross
674.0,7.0,3.0,1.0,4.0,4.0,239.45513699982249,2.0,1.0,phase_1,,,,,,,,,,,,,green,hexagon
342.0,6.0,2.0,1.0,3.0,3.0,286.3809939999555,2.0,1.0,phase_1,,,,,,,,,,,,,magenta,I
0.0,7.0,0.0,1.0,3.0,3.0,296.7499890000908,2.0,1.0,phase_1,,,,,,,,,,,,,green,hexagon
632.0,3.0,3.0,0.0,2.0,2.0,343.9432069999384,2.0,1.0,phase_1,,,,,,,,,,,,,cyan,triangle
332.0,2.0,2.0,0.0,2.0,2.0,284.9397400004818,2.0,1.0,phase_1,,,,,,,,,,,,,yellow,circle
338.0,6.0,2.0,1.0,1.0,1.0,257.0666319998054,2.0,1.0,phase_1,,,,,,,,,,,,,magenta,I
149.0,5.0,1.0,1.0,3.0,3.0,268.1015580001258,2.0,1.0,phase_1,,,,,,,,,,,,,orange,diamond
654.0,7.0,3.0,1.0,3.0,3.0,317.7763240000786,2.0,1.0,phase_1,,,,,,,,,,,,,green,hexagon
164.0,5.0,1.0,1.0,2.0,2.0,280.0080809993233,2.0,1.0,phase_1,,,,,,,,,,,,,orange,diamond
332.0,6.0,2.0,1.0,1.0,1.0,313.3711079999557,2.0,1.0,phase_1,,,,,,,,,,,,,magenta,I
0.0,2.0,0.0,0.0,4.0,4.0,257.0472449997396,2.0,1.0,phase_1,,,,,,,,,,,,,yellow,circle
661.0,3.0,3.0,0.0,3.0,3.0,295.2630059999137,2.0,1.0,phase_1,,,,,,,,,,,,,cyan,triangle
0.0,1.0,0.0,0.0,3.0,3.0,323.0697620001592,2.0,1.0,phase_1,,,,,,,,,,,,,blue,cross
1320.0,8.0,4.0,1.0,2.0,2.0,324.6956310003952,2.0,1.0,phase_1,,,,,,,,,,,,,white,flipped triangle
321.0,2.0,2.0,0.0,4.0,4.0,288.2815880002454,2.0,1.0,phase_1,,,,,,,,,,,,,yellow,circle
313.0,6.0,2.0,1.0,3.0,3.0,313.9271789996201,2.0,1.0,phase_1,,,,,,,,,,,,,magenta,I
153.0,1.0,1.0,0.0,1.0,1.0,284.3893110002682,2.0,1.0,phase_1,,,,,,,,,,,,,blue,cross
1311.0,4.0,4.0,0.0,2.0,2.0,341.7509350001637,2.0,1.0,phase_1,,,,,,,,,,,,,gray,square
1279.0,4.0,4.0,0.0,1.0,1.0,362.4210609996225,2.0,1.0,phase_1,,,,,,,,,,,,,gray,square
0.0,1.0,0.0,0.0,2.0,2.0,294.846624999991,2.0,1.0,phase_1,,,,,,,,,,,,,blue,cross
670.0,3.0,3.0,0.0,4.0,4.0,286.704639999698,2.0,1.0,phase_1,,,,,,,,,,,,,cyan,triangle
158.0,1.0,1.0,0.0,1.0,1.0,302.3588690002725,2.0,1.0,phase_1,,,,,,,,,,,,,blue,cross
633.0,7.0,3.0,1.0,1.0,1.0,312.185388999751,2.0,1.0,phase_1,,,,,,,,,,,,,green,hexagon
154.0,1.0,1.0,0.0,1.0,1.0,369.2220980001366,2.0,1.0,phase_1,,,,,,,,,,,,,blue,cross
633.0,3.0,3.0,0.0,2.0,2.0,332.1657259994026,2.0,1.0,phase_1,,,,,,,,,,,,,cyan,triangle
168.0,1.0,1.0,0.0,3.0,3.0,322.0007260006241,2.0,1.0,phase_1,,,,,,,,,,,,,blue,cross
638.0,3.0,3.0,0.0,1.0,1.0,254.63077600034012,2.0,1.0,phase_1,,,,,,,,,,,,,cyan,triangle
316.0,6.0,2.0,1.0,3.0,3.0,359.448307999628,2.0,1.0,phase_1,,,,,,,,,,,,,magenta,I
163.0,5.0,1.0,1.0,2.0,2.0,321.9308010002351,2.0,1.0,phase_1,,,,,,,,,,,,,orange,diamond
166.0,1.0,1.0,0.0,1.0,1.0,332.6134239996463,2.0,1.0,phase_1,,,,,,,,,,,,,blue,cross
1321.0,8.0,4.0,1.0,4.0,4.0,283.345040000313,2.0,1.0,phase_1,,,,,,,,,,,,,white,flipped triangle
664.0,3.0,3.0,0.0,1.0,1.0,301.5095549999387,2.0,1.0,phase_1,,,,,,,,,,,,,cyan,triangle
309.0,6.0,2.0,1.0,3.0,3.0,320.6702530005714,2.0,1.0,phase_1,,,,,,,,,,,,,magenta,I
149.0,1.0,1.0,0.0,1.0,1.0,359.556528000212,2.0,1.0,phase_1,,,,,,,,,,,,,blue,cross
182.0,1.0,1.0,0.0,3.0,3.0,312.1246840000822,2.0,1.0,phase_1,,,,,,,,,,,,,blue,cross
0.0,4.0,0.0,0.0,3.0,3.0,322.8315350006596,2.0,1.0,phase_1,,,,,,,,,,,,,gray,square
0.0,6.0,0.0,1.0,2.0,2.0,331.533395000406,2.0,1.0,phase_1,,,,,,,,,,,,,magenta,I
0.0,8.0,0.0,1.0,3.0,3.0,313.6039259998142,2.0,1.0,phase_1,,,,,,,,,,,,,white,flipped triangle
0.0,5.0,0.0,1.0,1.0,1.0,302.7253520003796,2.0,1.0,phase_1,,,,,,,,,,,,,orange,diamond
315.0,6.0,2.0,1.0,4.0,4.0,284.0691329993206,2.0,1.0,phase_1,,,,,,,,,,,,,magenta,I
0.0,2.0,0.0,0.0,1.0,1.0,349.769527000717,2.0,1.0,phase_1,,,,,,,,,,,,,yellow,circle
0.0,6.0,0.0,1.0,3.0,3.0,322.4171840001872,2.0,1.0,phase_1,,,,,,,,,,,,,magenta,I
1280.0,4.0,4.0,0.0,1.0,1.0,293.4354520002671,2.0,1.0,phase_1,,,,,,,,,,,,,gray,square
341.0,6.0,2.0,1.0,2.0,2.0,482.2939509995194,2.0,1.0,phase_1,,,,,,,,,,,,,magenta,I
663.0,3.0,3.0,0.0,1.0,1.0,378.9421669998774,2.0,1.0,phase_1,,,,,,,,,,,,,cyan,triangle
1278.0,4.0,4.0,0.0,4.0,4.0,398.3044649994554,2.0,1.0,phase_1,,,,,,,,,,,,,gray,square
0.0,6.0,0.0,1.0,1.0,1.0,322.8176530001292,2.0,1.0,phase_1,,,,,,,,,,,,,magenta,I
1302.0,8.0,4.0,1.0,2.0,2.0,273.8690759997553,2.0,1.0,phase_1,,,,,,,,,,,,,white,flipped triangle
181.0,1.0,1.0,0.0,3.0,3.0,321.4417010003672,2.0,1.0,phase_1,,,,,,,,,,,,,blue,cross
341.0,6.0,2.0,1.0,4.0,4.0,313.7928790001751,2.0,1.0,phase_1,,,,,,,,,,,,,magenta,I
164.0,1.0,1.0,0.0,3.0,3.0,370.2465559999837,2.0,1.0,phase_1,,,,,,,,,,,,,blue,cross
0.0,2.0,0.0,0.0,2.0,2.0,302.5960349996239,2.0,1.0,phase_1,,,,,,,,,,,,,yellow,circle
315.0,6.0,2.0,1.0,4.0,4.0,331.268375000036,2.0,1.0,phase_1,,,,,,,,,,,,,magenta,I
646.0,7.0,3.0,1.0,3.0,3.0,274.3816919992241,2.0,1.0,phase_1,,,,,,,,,,,,,green,hexagon
0.0,4.0,0.0,0.0,3.0,3.0,273.9665319995765,2.0,1.0,phase_1,,,,,,,,,,,,,gray,square
315.0,6.0,2.0,1.0,2.0,2.0,294.3122030001177,2.0,1.0,phase_1,,,,,,,,,,,,,magenta,I
1287.0,4.0,4.0,0.0,1.0,1.0,285.95042500001,2.0,1.0,phase_1,,,,,,,,,,,,,gray,square
1319.0,4.0,4.0,0.0,3.0,3.0,292.6380520002567,2.0,1.0,phase_1,,,,,,,,,,,,,gray,square
1319.0,8.0,4.0,1.0,3.0,3.0,292.9369670000596,2.0,1.0,phase_1,,,,,,,,,,,,,white,flipped triangle
0.0,8.0,0.0,1.0,3.0,3.0,293.9901350000582,2.0,1.0,phase_1,,,,,,,,,,,,,white,flipped triangle
166.0,1.0,1.0,0.0,4.0,4.0,294.1772169997421,2.0,1.0,phase_1,,,,,,,,,,,,,blue,cross
332.0,2.0,2.0,0.0,2.0,2.0,330.8923000004142,2.0,1.0,phase_1,,,,,,,,,,,,,yellow,circle
1298.0,8.0,4.0,1.0,4.0,4.0,273.337638999692,2.0,1.0,phase_1,,,,,,,,,,,,,white,flipped triangle
646.0,3.0,3.0,0.0,4.0,4.0,302.1982250002111,2.0,1.0,phase_1,,,,,,,,,,,,,cyan,triangle
0.0,5.0,0.0,1.0,4.0,4.0,264.7221170000193,2.0,1.0,phase_1,,,,,,,,,,,,,orange,diamond
0.0,3.0,0.0,0.0,1.0,1.0,283.4251679996669,2.0,1.0,phase_1,,,,,,,,,,,,,cyan,triangle
174.0,5.0,1.0,1.0,2.0,2.0,239.0479189998586,2.0,1.0,phase_1,,,,,,,,,,,,,orange,diamond
1276.0,4.0,4.0,0.0,3.0,3.0,321.1304559999917,2.0,1.0,phase_1,,,,,,,,,,,,,gray,square
145.0,1.0,1.0,0.0,4.0,4.0,264.5988799995393,2.0,1.0,phase_1,,,,,,,,,,,,,blue,cross
652.0,3.0,3.0,0.0,1.0,1.0,254.5186279994595,2.0,1.0,phase_1,,,,,,,,,,,,,cyan,triangle
1300.0,4.0,4.0,0.0,3.0,3.0,312.5955420000537,2.0,1.0,phase_1,,,,,,,,,,,,,gray,square
329.0,6.0,2.0,1.0,4.0,4.0,301.752824999312,2.0,1.0,phase_1,,,,,,,,,,,,,magenta,I
1298.0,4.0,4.0,0.0,1.0,1.0,301.8680970008063,2.0,1.0,phase_1,,,,,,,,,,,,,gray,square
0.0,8.0,0.0,1.0,1.0,1.0,292.5692190001427,2.0,1.0,phase_1,,,,,,,,,,,,,white,flipped triangle
0.0,8.0,0.0,1.0,3.0,3.0,320.7810889998654,2.0,1.0,phase_1,,,,,,,,,,,,,white,flipped triangle
335.0,2.0,2.0,0.0,3.0,3.0,320.4997970005934,2.0,1.0,phase_1,,,,,,,,,,,,,yellow,circle
655.0,3.0,3.0,0.0,3.0,3.0,283.1101060000947,2.0,1.0,phase_1,,,,,,,,,,,,,cyan,triangle
315.0,6.0,2.0,1.0,2.0,2.0,330.433481,2.0,1.0,phase_1,,,,,,,,,,,,,magenta,I
0.0,2.0,0.0,0.0,4.0,4.0,320.3700439999011,2.0,1.0,phase_1,,,,,,,,,,,,,yellow,circle
181.0,5.0,1.0,1.0,2.0,2.0,310.9893500004546,2.0,1.0,phase_1,,,,,,,,,,,,,orange,diamond
315.0,2.0,2.0,0.0,4.0,4.0,311.8833520002226,2.0,1.0,phase_1,,,,,,,,,,,,,yellow,circle
302.0,2.0,2.0,0.0,2.0,2.0,284.0510220003125,2.0,1.0,phase_1,,,,,,,,,,,,,yellow,circle
673.0,7.0,3.0,1.0,1.0,1.0,320.6644279998727,2.0,1.0,phase_1,,,,,,,,,,,,,green,hexagon
166.0,5.0,1.0,1.0,4.0,4.0,284.7529029995712,2.0,1.0,phase_1,,,,,,,,,,,,,orange,diamond
1293.0,4.0,4.0,0.0,3.0,3.0,293.0816019998019,2.0,2.0,phase_1,,,,,,,,,,,,,gray,square
335.0,6.0,2.0,1.0,4.0,4.0,351.7479319998529,2.0,1.0,phase_1,,,,,,,,,,,,,magenta,I
342.0,2.0,2.0,0.0,1.0,1.0,351.8983419999131,2.0,1.0,phase_1,,,,,,,,,,,,,yellow,circle
313.0,2.0,2.0,0.0,2.0,2.0,302.5711659993249,2.0,1.0,phase_1,,,,,,,,,,,,,yellow,circle
1278.0,4.0,4.0,0.0,4.0,4.0,370.315711999865,3.0,1.0,phase_1,,,,,,,,,,,,,gray,square
1283.0,8.0,4.0,1.0,4.0,4.0,264.7923169997739,3.0,1.0,phase_1,,,,,,,,,,,,,white,flipped triangle
0.0,4.0,0.0,0.0,3.0,3.0,274.6097259996531,3.0,1.0,phase_1,,,,,,,,,,,,,gray,square
653.0,3.0,3.0,0.0,2.0,2.0,293.7792180000542,3.0,1.0,phase_1,,,,,,,,,,,,,cyan,triangle
1304.0,8.0,4.0,1.0,3.0,3.0,302.9115490007825,3.0,1.0,phase_1,,,,,,,,,,,,,white,flipped triangle
1286.0,8.0,4.0,1.0,4.0,4.0,302.9448950001097,3.0,1.0,phase_1,,,,,,,,,,,,,white,flipped triangle
0.0,6.0,0.0,1.0,3.0,3.0,258.1980750001094,3.0,1.0,phase_1,,,,,,,,,,,,,magenta,I
1322.0,4.0,4.0,0.0,2.0,2.0,293.2397730000957,3.0,1.0,phase_1,,,,,,,,,,,,,gray,square
137.0,1.0,1.0,0.0,1.0,1.0,303.0125240002235,3.0,1.0,phase_1,,,,,,,,,,,,,blue,cross
155.0,1.0,1.0,0.0,4.0,4.0,303.3379959997546,3.0,1.0,phase_1,,,,,,,,,,,,,blue,cross
656.0,7.0,3.0,1.0,2.0,2.0,255.3448119997483,3.0,1.0,phase_1,,,,,,,,,,,,,green,hexagon
180.0,1.0,1.0,0.0,2.0,2.0,304.6419729998888,3.0,1.0,phase_1,,,,,,,,,,,,,blue,cross
314.0,2.0,2.0,0.0,4.0,4.0,265.7343700002457,3.0,1.0,phase_1,,,,,,,,,,,,,yellow,circle
1288.0,8.0,4.0,1.0,3.0,3.0,294.186971000272,3.0,1.0,phase_1,,,,,,,,,,,,,white,flipped triangle
0.0,8.0,0.0,1.0,4.0,4.0,283.5041509997609,3.0,1.0,phase_1,,,,,,,,,,,,,white,flipped triangle
637.0,3.0,3.0,0.0,1.0,1.0,245.5596449999575,3.0,1.0,phase_1,,,,,,,,,,,,,cyan,triangle
638.0,3.0,3.0,0.0,4.0,4.0,265.1088920001712,3.0,1.0,phase_1,,,,,,,,,,,,,cyan,triangle
666.0,3.0,3.0,0.0,2.0,2.0,292.9973569998765,3.0,2.0,phase_1,,,,,,,,,,,,,cyan,triangle
666.0,7.0,3.0,1.0,2.0,2.0,302.3862280006142,3.0,1.0,phase_1,,,,,,,,,,,,,green,hexagon
0.0,3.0,0.0,0.0,4.0,4.0,274.5491690002382,3.0,1.0,phase_1,,,,,,,,,,,,,cyan,triangle
315.0,2.0,2.0,0.0,1.0,1.0,302.1548460001213,3.0,1.0,phase_1,,,,,,,,,,,,,yellow,circle
627.0,3.0,3.0,0.0,3.0,3.0,311.7423120002058,3.0,1.0,phase_1,,,,,,,,,,,,,cyan,triangle
634.0,3.0,3.0,0.0,3.0,3.0,295.806294000613,3.0,2.0,phase_1,,,,,,,,,,,,,cyan,triangle
145.0,1.0,1.0,0.0,2.0,2.0,292.8798129996721,3.0,1.0,phase_1,,,,,,,,,,,,,blue,cross
1293.0,8.0,4.0,1.0,3.0,3.0,303.3366130002832,3.0,1.0,phase_1,,,,,,,,,,,,,white,flipped triangle
654.0,3.0,3.0,0.0,3.0,3.0,332.5676610002119,3.0,1.0,phase_1,,,,,,,,,,,,,cyan,triangle
347.0,2.0,2.0,0.0,3.0,3.0,322.9369139999107,3.0,1.0,phase_1,,,,,,,,,,,,,yellow,circle
1322.0,8.0,4.0,1.0,2.0,2.0,359.2019719999371,3.0,1.0,phase_1,,,,,,,,,,,,,white,flipped triangle
0.0,5.0,0.0,1.0,1.0,1.0,303.5832829991705,3.0,1.0,phase_1,,,,,,,,,,,,,orange,diamond
332.0,6.0,2.0,1.0,2.0,2.0,350.0876819998666,3.0,1.0,phase_1,,,,,,,,,,,,,magenta,I
347.0,6.0,2.0,1.0,3.0,3.0,292.6054609997663,3.0,1.0,phase_1,,,,,,,,,,,,,magenta,I
641.0,7.0,3.0,1.0,2.0,2.0,254.82908199956,3.0,1.0,phase_1,,,,,,,,,,,,,green,hexagon
1317.0,8.0,4.0,1.0,3.0,3.0,274.1636780001499,3.0,1.0,phase_1,,,,,,,,,,,,,white,flipped triangle
140.0,5.0,1.0,1.0,4.0,4.0,350.1455639998312,3.0,1.0,phase_1,,,,,,,,,,,,,orange,diamond
170.0,5.0,1.0,1.0,1.0,1.0,274.0419269994163,3.0,1.0,phase_1,,,,,,,,,,,,,orange,diamond
654.0,7.0,3.0,1.0,3.0,3.0,315.8801569998104,3.0,1.0,phase_1,,,,,,,,,,,,,green,hexagon
316.0,2.0,2.0,0.0,3.0,3.0,294.7162609998486,3.0,1.0,phase_1,,,,,,,,,,,,,yellow,circle
664.0,7.0,3.0,1.0,4.0,4.0,294.9235839996618,3.0,1.0,phase_1,,,,,,,,,,,,,green,hexagon
1276.0,8.0,4.0,1.0,2.0,2.0,293.9043860005768,3.0,1.0,phase_1,,,,,,,,,,,,,white,flipped triangle
343.0,6.0,2.0,1.0,2.0,2.0,321.4927520002675,3.0,1.0,phase_1,,,,,,,,,,,,,magenta,I
141.0,5.0,1.0,1.0,3.0,3.0,274.5877650004331,3.0,1.0,phase_1,,,,,,,,,,,,,orange,diamond
0.0,6.0,0.0,1.0,2.0,2.0,388.408679999884,3.0,1.0,phase_1,,,,,,,,,,,,,magenta,I
656.0,3.0,3.0,0.0,1.0,1.0,283.6259780006003,3.0,1.0,phase_1,,,,,,,,,,,,,cyan,triangle
329.0,2.0,2.0,0.0,1.0,1.0,350.13532999983,3.0,1.0,phase_1,,,,,,,,,,,,,yellow,circle
648.0,7.0,3.0,1.0,2.0,2.0,330.8494120001342,3.0,1.0,phase_1,,,,,,,,,,,,,green,hexagon
322.0,6.0,2.0,1.0,4.0,4.0,274.199387000408,3.0,1.0,phase_1,,,,,,,,,,,,,magenta,I
148.0,1.0,1.0,0.0,1.0,1.0,331.7284880004081,3.0,1.0,phase_1,,,,,,,,,,,,,blue,cross
627.0,7.0,3.0,1.0,4.0,4.0,272.9269310002564,3.0,1.0,phase_1,,,,,,,,,,,,,green,hexagon
315.0,2.0,2.0,0.0,2.0,2.0,255.7760640002016,3.0,1.0,phase_1,,,,,,,,,,,,,yellow,circle
0.0,4.0,0.0,0.0,3.0,3.0,284.1818659999262,3.0,1.0,phase_1,,,,,,,,,,,,,gray,square
1320.0,4.0,4.0,0.0,2.0,2.0,303.0121190004138,3.0,1.0,phase_1,,,,,,,,,,,,,gray,square
180.0,5.0,1.0,1.0,4.0,4.0,273.0004759996518,3.0,1.0,phase_1,,,,,,,,,,,,,orange,diamond
637.0,7.0,3.0,1.0,3.0,3.0,237.006334000398,3.0,1.0,phase_1,,,,,,,,,,,,,green,hexagon
0.0,2.0,0.0,0.0,3.0,3.0,303.8882410000951,3.0,1.0,phase_1,,,,,,,,,,,,,yellow,circle
172.0,5.0,1.0,1.0,3.0,3.0,284.0074810001169,3.0,1.0,phase_1,,,,,,,,,,,,,orange,diamond
340.0,2.0,2.0,0.0,3.0,3.0,311.7186939998646,3.0,1.0,phase_1,,,,,,,,,,,,,yellow,circle
141.0,1.0,1.0,0.0,4.0,4.0,292.778790999364,3.0,1.0,phase_1,,,,,,,,,,,,,blue,cross
336.0,2.0,2.0,0.0,4.0,4.0,264.5650000004025,3.0,1.0,phase_1,,,,,,,,,,,,,yellow,circle
665.0,3.0,3.0,0.0,1.0,1.0,302.1917559999565,3.0,1.0,phase_1,,,,,,,,,,,,,cyan,triangle
1312.0,8.0,4.0,1.0,2.0,2.0,368.9796290000231,3.0,1.0,phase_1,,,,,,,,,,,,,white,flipped triangle
309.0,2.0,2.0,0.0,1.0,1.0,283.6227199995846,3.0,1.0,phase_1,,,,,,,,,,,,,yellow,circle
1323.0,4.0,4.0,0.0,3.0,3.0,305.0385300002745,3.0,1.0,phase_1,,,,,,,,,,,,,gray,square
0.0,2.0,0.0,0.0,1.0,1.0,265.836152000702,3.0,1.0,phase_1,,,,,,,,,,,,,yellow,circle
139.0,5.0,1.0,1.0,4.0,4.0,312.5167739999597,3.0,1.0,phase_1,,,,,,,,,,,,,orange,diamond
673.0,3.0,3.0,0.0,4.0,4.0,236.0339179995207,3.0,1.0,phase_1,,,,,,,,,,,,,cyan,triangle
0.0,5.0,0.0,1.0,3.0,3.0,266.0410939997746,3.0,1.0,phase_1,,,,,,,,,,,,,orange,diamond
632.0,7.0,3.0,1.0,4.0,4.0,284.262614999534,3.0,1.0,phase_1,,,,,,,,,,,,,green,hexagon
0.0,4.0,0.0,0.0,2.0,2.0,303.11239200000267,3.0,1.0,phase_1,,,,,,,,,,,,,gray,square
328.0,2.0,2.0,0.0,4.0,4.0,266.1564210002325,3.0,1.0,phase_1,,,,,,,,,,,,,yellow,circle
636.0,3.0,3.0,0.0,2.0,2.0,275.8391199995458,3.0,1.0,phase_1,,,,,,,,,,,,,cyan,triangle
0.0,8.0,0.0,1.0,3.0,3.0,302.6811310000994,3.0,1.0,phase_1,,,,,,,,,,,,,white,flipped triangle
186.0,5.0,1.0,1.0,3.0,3.0,332.3031810004977,3.0,1.0,phase_1,,,,,,,,,,,,,orange,diamond
326.0,2.0,2.0,0.0,3.0,3.0,320.0136499999644,3.0,1.0,phase_1,,,,,,,,,,,,,yellow,circle
638.0,7.0,3.0,1.0,1.0,1.0,264.8807750001651,3.0,1.0,phase_1,,,,,,,,,,,,,green,hexagon
186.0,1.0,1.0,0.0,4.0,4.0,264.5453929999348,3.0,1.0,phase_1,,,,,,,,,,,,,blue,cross
174.0,1.0,1.0,0.0,4.0,4.0,330.889703000139,3.0,1.0,phase_1,,,,,,,,,,,,,blue,cross
307.0,6.0,2.0,1.0,1.0,1.0,333.6582590000034,3.0,1.0,phase_1,,,,,,,,,,,,,magenta,I
326.0,6.0,2.0,1.0,1.0,1.0,293.6736949995975,3.0,2.0,phase_1,,,,,,,,,,,,,magenta,I
163.0,1.0,1.0,0.0,4.0,4.0,312.0373530000506,3.0,1.0,phase_1,,,,,,,,,,,,,blue,cross
147.0,1.0,1.0,0.0,2.0,2.0,302.3445600001651,3.0,1.0,phase_1,,,,,,,,,,,,,blue,cross
1290.0,8.0,4.0,1.0,1.0,1.0,360.9547899995959,3.0,1.0,phase_1,,,,,,,,,,,,,white,flipped triangle
182.0,5.0,1.0,1.0,4.0,4.0,303.590763000102,3.0,1.0,phase_1,,,,,,,,,,,,,orange,diamond
1283.0,4.0,4.0,0.0,4.0,4.0,322.1149340006377,3.0,1.0,phase_1,,,,,,,,,,,,,gray,square
154.0,5.0,1.0,1.0,1.0,1.0,312.8101619995505,3.0,1.0,phase_1,,,,,,,,,,,,,orange,diamond
177.0,1.0,1.0,0.0,3.0,3.0,304.1779080003834,3.0,1.0,phase_1,,,,,,,,,,,,,blue,cross
0.0,7.0,0.0,1.0,3.0,3.0,311.3240840002618,3.0,1.0,phase_1,,,,,,,,,,,,,green,hexagon
634.0,7.0,3.0,1.0,2.0,2.0,293.108267000207,3.0,1.0,phase_1,,,,,,,,,,,,,green,hexagon
1276.0,8.0,4.0,1.0,2.0,2.0,359.8588100003326,3.0,1.0,phase_1,,,,,,,,,,,,,white,flipped triangle
350.0,2.0,2.0,0.0,4.0,4.0,292.4127469996165,3.0,1.0,phase_1,,,,,,,,,,,,,yellow,circle
1300.0,8.0,4.0,1.0,3.0,3.0,293.7688629999684,3.0,1.0,phase_1,,,,,,,,,,,,,white,flipped triangle
0.0,2.0,0.0,0.0,3.0,3.0,388.8322400007382,3.0,1.0,phase_1,,,,,,,,,,,,,yellow,circle
349.0,2.0,2.0,0.0,2.0,2.0,261.1314929999935,3.0,1.0,phase_1,,,,,,,,,,,,,yellow,circle
0.0,3.0,0.0,0.0,1.0,1.0,331.128668999554,3.0,1.0,phase_1,,,,,,,,,,,,,cyan,triangle
182.0,5.0,1.0,1.0,3.0,3.0,313.1337270006042,3.0,1.0,phase_1,,,,,,,,,,,,,orange,diamond
347.0,2.0,2.0,0.0,1.0,1.0,283.4129029997712,3.0,1.0,phase_1,,,,,,,,,,,,,yellow,circle
647.0,7.0,3.0,1.0,2.0,2.0,302.5441939998927,3.0,1.0,phase_1,,,,,,,,,,,,,green,hexagon
0.0,3.0,0.0,0.0,3.0,3.0,304.4706129994665,3.0,1.0,phase_1,,,,,,,,,,,,,cyan,triangle
1290.0,4.0,4.0,0.0,2.0,2.0,312.8658449995782,3.0,1.0,phase_1,,,,,,,,,,,,,gray,square
332.0,2.0,2.0,0.0,2.0,2.0,377.6603160004015,3.0,1.0,phase_1,,,,,,,,,,,,,yellow,circle
0.0,2.0,0.0,0.0,4.0,4.0,312.1614130004673,3.0,1.0,phase_1,,,,,,,,,,,,,yellow,circle
350.0,6.0,2.0,1.0,4.0,4.0,303.7595300002067,4.0,2.0,phase_1,,,,,,,,,,,,,magenta,I
645.0,3.0,3.0,0.0,4.0,4.0,293.2911349998903,4.0,1.0,phase_1,,,,,,,,,,,,,cyan,triangle
659.0,3.0,3.0,0.0,2.0,2.0,302.2913129998414,4.0,1.0,phase_1,,,,,,,,,,,,,cyan,triangle
0.0,6.0,0.0,1.0,4.0,4.0,283.4206360003009,4.0,1.0,phase_1,,,,,,,,,,,,,magenta,I
1302.0,4.0,4.0,0.0,4.0,4.0,302.5348659994051,4.0,1.0,phase_1,,,,,,,,,,,,,gray,square
332.0,6.0,2.0,1.0,3.0,3.0,293.6905249998744,4.0,1.0,phase_1,,,,,,,,,,,,,magenta,I
172.0,5.0,1.0,1.0,2.0,2.0,265.3198819998579,4.0,1.0,phase_1,,,,,,,,,,,,,orange,diamond
166.0,5.0,1.0,1.0,2.0,2.0,302.3598010004207,4.0,1.0,phase_1,,,,,,,,,,,,,orange,diamond
145.0,5.0,1.0,1.0,3.0,3.0,274.7577260006437,4.0,1.0,phase_1,,,,,,,,,,,,,orange,diamond
0.0,5.0,0.0,1.0,2.0,2.0,302.4239679998572,4.0,1.0,phase_1,,,,,,,,,,,,,orange,diamond
183.0,1.0,1.0,0.0,3.0,3.0,273.9577419997658,4.0,1.0,phase_1,,,,,,,,,,,,,blue,cross
177.0,5.0,1.0,1.0,1.0,1.0,311.6348319999815,4.0,2.0,phase_1,,,,,,,,,,,,,orange,diamond
639.0,3.0,3.0,0.0,4.0,4.0,330.3377329993964,4.0,1.0,phase_1,,,,,,,,,,,,,cyan,triangle
149.0,1.0,1.0,0.0,1.0,1.0,331.4248990000124,4.0,1.0,phase_1,,,,,,,,,,,,,blue,cross
0.0,2.0,0.0,0.0,2.0,2.0,311.8789499994818,4.0,1.0,phase_1,,,,,,,,,,,,,yellow,circle
340.0,6.0,2.0,1.0,1.0,1.0,348.3065239997813,4.0,1.0,phase_1,,,,,,,,,,,,,magenta,I
0.0,1.0,0.0,0.0,1.0,1.0,292.3522470000534,4.0,1.0,phase_1,,,,,,,,,,,,,blue,cross
185.0,1.0,1.0,0.0,2.0,2.0,322.4750539993692,4.0,1.0,phase_1,,,,,,,,,,,,,blue,cross
1289.0,4.0,4.0,0.0,1.0,1.0,349.4852969997737,4.0,1.0,phase_1,,,,,,,,,,,,,gray,square
646.0,7.0,3.0,1.0,3.0,3.0,340.71870400021,4.0,1.0,phase_1,,,,,,,,,,,,,green,hexagon
1297.0,8.0,4.0,1.0,4.0,4.0,256.570226999429,4.0,1.0,phase_1,,,,,,,,,,,,,white,flipped triangle
641.0,3.0,3.0,0.0,3.0,3.0,293.0796900000132,4.0,1.0,phase_1,,,,,,,,,,,,,cyan,triangle
1297.0,4.0,4.0,0.0,3.0,3.0,293.2312960001582,4.0,1.0,phase_1,,,,,,,,,,,,,gray,square
329.0,2.0,2.0,0.0,4.0,4.0,299.6756929996991,4.0,1.0,phase_1,,,,,,,,,,,,,yellow,circle
1280.0,8.0,4.0,1.0,2.0,2.0,283.1808190003357,4.0,1.0,phase_1,,,,,,,,,,,,,white,flipped triangle
0.0,4.0,0.0,0.0,2.0,2.0,293.056197999249,4.0,1.0,phase_1,,,,,,,,,,,,,gray,square
312.0,6.0,2.0,1.0,2.0,2.0,311.6638490000696,4.0,1.0,phase_1,,,,,,,,,,,,,magenta,I
185.0,5.0,1.0,1.0,2.0,2.0,292.4746019998565,4.0,1.0,phase_1,,,,,,,,,,,,,orange,diamond
301.0,6.0,2.0,1.0,2.0,2.0,311.9558349999352,4.0,1.0,phase_1,,,,,,,,,,,,,magenta,I
0.0,4.0,0.0,0.0,1.0,1.0,312.441562999993,4.0,1.0,phase_1,,,,,,,,,,,,,gray,square
638.0,7.0,3.0,1.0,1.0,1.0,295.2239359992745,4.0,1.0,phase_1,,,,,,,,,,,,,green,hexagon
172.0,1.0,1.0,0.0,3.0,3.0,324.9515840007007,4.0,1.0,phase_1,,,,,,,,,,,,,blue,cross
0.0,6.0,0.0,1.0,2.0,2.0,293.5077060001276,4.0,1.0,phase_1,,,,,,,,,,,,,magenta,I
661.0,7.0,3.0,1.0,4.0,4.0,264.0254119996825,4.0,1.0,phase_1,,,,,,,,,,,,,green,hexagon
315.0,2.0,2.0,0.0,3.0,3.0,302.7132849992995,4.0,1.0,phase_1,,,,,,,,,,,,,yellow,circle
0.0,5.0,0.0,1.0,1.0,1.0,349.3843529995502,4.0,1.0,phase_1,,,,,,,,,,,,,orange,diamond
639.0,7.0,3.0,1.0,1.0,1.0,339.5732459994178,4.0,1.0,phase_1,,,,,,,,,,,,,green,hexagon
0.0,1.0,0.0,0.0,2.0,2.0,397.039976999622,4.0,1.0,phase_1,,,,,,,,,,,,,blue,cross
0.0,1.0,0.0,0.0,4.0,4.0,273.2797680000658,4.0,1.0,phase_1,,,,,,,,,,,,,blue,cross
182.0,1.0,1.0,0.0,3.0,3.0,284.3411650001144,4.0,1.0,phase_1,,,,,,,,,,,,,blue,cross
650.0,3.0,3.0,0.0,1.0,1.0,245.4784380006458,4.0,1.0,phase_1,,,,,,,,,,,,,cyan,triangle
160.0,5.0,1.0,1.0,1.0,1.0,330.0995890003833,4.0,1.0,phase_1,,,,,,,,,,,,,orange,diamond
649.0,7.0,3.0,1.0,2.0,2.0,329.9410680001529,4.0,1.0,phase_1,,,,,,,,,,,,,green,hexagon
0.0,7.0,0.0,1.0,1.0,1.0,330.6207159994301,4.0,1.0,phase_1,,,,,,,,,,,,,green,hexagon
632.0,3.0,3.0,0.0,2.0,2.0,321.2257779996434,4.0,1.0,phase_1,,,,,,,,,,,,,cyan,triangle
647.0,3.0,3.0,0.0,1.0,1.0,245.1506140005221,4.0,1.0,phase_1,,,,,,,,,,,,,cyan,triangle
1286.0,4.0,4.0,0.0,2.0,2.0,339.1091450002932,4.0,1.0,phase_1,,,,,,,,,,,,,gray,square
175.0,1.0,1.0,0.0,2.0,2.0,283.754255000531,4.0,1.0,phase_1,,,,,,,,,,,,,blue,cross
158.0,5.0,1.0,1.0,3.0,3.0,302.8420509999705,4.0,1.0,phase_1,,,,,,,,,,,,,orange,diamond
1276.0,4.0,4.0,0.0,2.0,2.0,323.1947719996242,4.0,1.0,phase_1,,,,,,,,,,,,,gray,square
654.0,3.0,3.0,0.0,1.0,1.0,321.0943000003681,4.0,1.0,phase_1,,,,,,,,,,,,,cyan,triangle
0.0,6.0,0.0,1.0,4.0,4.0,266.0653960001582,4.0,1.0,phase_1,,,,,,,,,,,,,magenta,I
305.0,6.0,2.0,1.0,4.0,4.0,293.7685679999049,4.0,1.0,phase_1,,,,,,,,,,,,,magenta,I
649.0,3.0,3.0,0.0,4.0,4.0,311.3228709999021,4.0,1.0,phase_1,,,,,,,,,,,,,cyan,triangle
168.0,5.0,1.0,1.0,4.0,4.0,321.9018310001047,4.0,1.0,phase_1,,,,,,,,,,,,,orange,diamond
670.0,7.0,3.0,1.0,2.0,2.0,340.5676909997055,4.0,1.0,phase_1,,,,,,,,,,,,,green,hexagon
1309.0,4.0,4.0,0.0,1.0,1.0,322.7469989997189,4.0,1.0,phase_1,,,,,,,,,,,,,gray,square
1288.0,4.0,4.0,0.0,4.0,4.0,265.6479629995374,4.0,1.0,phase_1,,,,,,,,,,,,,gray,square
0.0,8.0,0.0,1.0,2.0,2.0,303.2144369999514,4.0,1.0,phase_1,,,,,,,,,,,,,white,flipped triangle
1289.0,8.0,4.0,1.0,3.0,3.0,293.8109390006502,4.0,1.0,phase_1,,,,,,,,,,,,,white,flipped triangle
1317.0,8.0,4.0,1.0,3.0,3.0,293.2585519993154,4.0,1.0,phase_1,,,,,,,,,,,,,white,flipped triangle
1321.0,8.0,4.0,1.0,4.0,4.0,274.5991869996942,4.0,1.0,phase_1,,,,,,,,,,,,,white,flipped triangle
657.0,3.0,3.0,0.0,4.0,4.0,273.7629000002926,4.0,1.0,phase_1,,,,,,,,,,,,,cyan,triangle
636.0,7.0,3.0,1.0,4.0,4.0,284.475346000363,4.0,1.0,phase_1,,,,,,,,,,,,,green,hexagon
653.0,7.0,3.0,1.0,1.0,1.0,322.6639839995187,4.0,1.0,phase_1,,,,,,,,,,,,,green,hexagon
0.0,5.0,0.0,1.0,1.0,1.0,322.0184989995687,4.0,2.0,phase_1,,,,,,,,,,,,,orange,diamond
138.0,1.0,1.0,0.0,1.0,1.0,323.551667999709,4.0,1.0,phase_1,,,,,,,,,,,,,blue,cross
649.0,3.0,3.0,0.0,3.0,3.0,313.1581249999726,4.0,1.0,phase_1,,,,,,,,,,,,,cyan,triangle
302.0,6.0,2.0,1.0,1.0,1.0,332.7974610001547,4.0,1.0,phase_1,,,,,,,,,,,,,magenta,I
674.0,7.0,3.0,1.0,1.0,1.0,322.6587630006179,4.0,1.0,phase_1,,,,,,,,,,,,,green,hexagon
143.0,1.0,1.0,0.0,2.0,2.0,333.1415120001111,4.0,2.0,phase_1,,,,,,,,,,,,,blue,cross
1316.0,4.0,4.0,0.0,2.0,2.0,332.1095500004958,4.0,1.0,phase_1,,,,,,,,,,,,,gray,square
1321.0,4.0,4.0,0.0,1.0,1.0,304.3117770002936,4.0,1.0,phase_1,,,,,,,,,,,,,gray,square
1287.0,8.0,4.0,1.0,2.0,2.0,294.3302890007544,4.0,1.0,phase_1,,,,,,,,,,,,,white,flipped triangle
343.0,2.0,2.0,0.0,3.0,3.0,326.6038279998611,4.0,1.0,phase_1,,,,,,,,,,,,,yellow,circle
1308.0,4.0,4.0,0.0,4.0,4.0,296.005270999558,4.0,1.0,phase_1,,,,,,,,,,,,,gray,square
341.0,2.0,2.0,0.0,1.0,1.0,322.5665190002473,4.0,1.0,phase_1,,,,,,,,,,,,,yellow,circle
301.0,6.0,2.0,1.0,1.0,1.0,332.1168089996718,4.0,1.0,phase_1,,,,,,,,,,,,,magenta,I
0.0,8.0,0.0,1.0,1.0,1.0,295.883779000178,4.0,1.0,phase_1,,,,,,,,,,,,,white,flipped triangle
1304.0,4.0,4.0,0.0,4.0,4.0,270.5768599998919,4.0,1.0,phase_1,,,,,,,,,,,,,gray,square
0.0,4.0,0.0,0.0,1.0,1.0,322.9402320002918,4.0,1.0,phase_1,,,,,,,,,,,,,gray,square
336.0,2.0,2.0,0.0,4.0,4.0,341.51153400034667,4.0,1.0,phase_1,,,,,,,,,,,,,yellow,circle
1283.0,4.0,4.0,0.0,1.0,1.0,300.8690770002431,4.0,1.0,phase_1,,,,,,,,,,,,,gray,square
175.0,5.0,1.0,1.0,4.0,4.0,302.323014000649,4.0,1.0,phase_1,,,,,,,,,,,,,orange,diamond
1301.0,8.0,4.0,1.0,4.0,4.0,343.9110139997865,4.0,1.0,phase_1,,,,,,,,,,,,,white,flipped triangle
169.0,1.0,1.0,0.0,4.0,4.0,349.9077520000355,4.0,1.0,phase_1,,,,,,,,,,,,,blue,cross
1278.0,8.0,4.0,1.0,4.0,4.0,313.0736180000895,4.0,1.0,phase_1,,,,,,,,,,,,,white,flipped triangle
338.0,2.0,2.0,0.0,3.0,3.0,332.4934579995897,4.0,1.0,phase_1,,,,,,,,,,,,,yellow,circle
1309.0,8.0,4.0,1.0,1.0,1.0,293.4716919999118,4.0,1.0,phase_1,,,,,,,,,,,,,white,flipped triangle
0.0,8.0,0.0,1.0,1.0,1.0,332.4811520005823,4.0,1.0,phase_1,,,,,,,,,,,,,white,flipped triangle
0.0,6.0,0.0,1.0,3.0,3.0,315.0298999998995,4.0,1.0,phase_1,,,,,,,,,,,,,magenta,I
347.0,6.0,2.0,1.0,3.0,3.0,369.9258500000724,4.0,1.0,phase_1,,,,,,,,,,,,,magenta,I
652.0,7.0,3.0,1.0,2.0,2.0,295.3269929994349,4.0,1.0,phase_1,,,,,,,,,,,,,green,hexagon
0.0,3.0,0.0,0.0,3.0,3.0,286.9650329994329,4.0,1.0,phase_1,,,,,,,,,,,,,cyan,triangle
1322.0,8.0,4.0,1.0,3.0,3.0,321.8823739998697,4.0,1.0,phase_1,,,,,,,,,,,,,white,flipped triangle
142.0,5.0,1.0,1.0,4.0,4.0,315.2399049995438,4.0,1.0,phase_1,,,,,,,,,,,,,orange,diamond
148.0,5.0,1.0,1.0,1.0,1.0,286.147159000393,4.0,1.0,phase_1,,,,,,,,,,,,,orange,diamond
181.0,1.0,1.0,0.0,2.0,2.0,312.7399389995844,4.0,1.0,phase_1,,,,,,,,,,,,,blue,cross
1322.0,4.0,4.0,0.0,2.0,2.0,313.7307480001254,4.0,1.0,phase_1,,,,,,,,,,,,,gray,square
142.0,1.0,1.0,0.0,2.0,2.0,293.4390339996753,4.0,1.0,phase_1,,,,,,,,,,,,,blue,cross
0.0,4.0,4.0,0.0,5.0,5.0,293.5898050000105,1.0,1.0,phase_2,go,250.0,250.0,1.0,,,,,,,,,gray,square
0.0,8.0,4.0,1.0,5.0,5.0,255.995041999995,1.0,1.0,phase_2,go,250.0,250.0,1.0,,,,,,,,,white,flipped triangle
0.0,6.0,2.0,1.0,5.0,0.0,0.0,1.0,1.0,phase_2,stop,250.0,250.0,4.0,,,,,,,,,magenta,I
0.0,5.0,1.0,1.0,5.0,5.0,248.82408099983869,1.0,1.0,phase_2,stop,300.0,250.0,3.0,,,,,,,,,orange,diamond
0.0,5.0,1.0,1.0,6.0,6.0,304.6260559995062,1.0,1.0,phase_2,stop,250.0,250.0,3.0,,,,,,,,,orange,diamond
0.0,3.0,3.0,0.0,5.0,5.0,457.1906129995113,1.0,1.0,phase_2,go,250.0,200.0,1.0,,,,,,,,,cyan,triangle
0.0,8.0,4.0,1.0,5.0,5.0,298.2694429992989,1.0,1.0,phase_2,stop,250.0,200.0,3.0,,,,,,,,,white,flipped triangle
0.0,3.0,3.0,0.0,5.0,5.0,381.9197049997456,1.0,1.0,phase_2,go,200.0,200.0,1.0,,,,,,,,,cyan,triangle
0.0,7.0,3.0,1.0,6.0,0.0,0.0,1.0,1.0,phase_2,stop,200.0,200.0,4.0,,,,,,,,,green,hexagon
0.0,4.0,4.0,0.0,5.0,5.0,371.6182719999779,1.0,1.0,phase_2,go,200.0,250.0,1.0,,,,,,,,,gray,square
0.0,3.0,3.0,0.0,5.0,5.0,526.1955659998421,1.0,1.0,phase_2,go,200.0,250.0,1.0,,,,,,,,,cyan,triangle
0.0,1.0,1.0,0.0,5.0,5.0,526.4768509996429,1.0,1.0,phase_2,go,200.0,250.0,1.0,,,,,,,,,blue,cross
0.0,7.0,3.0,1.0,5.0,0.0,0.0,1.0,1.0,phase_2,stop,200.0,250.0,4.0,,,,,,,,,green,hexagon
0.0,6.0,2.0,1.0,5.0,5.0,469.0581929999098,1.0,1.0,phase_2,go,250.0,250.0,1.0,,,,,,,,,magenta,I
0.0,6.0,2.0,1.0,5.0,0.0,0.0,1.0,1.0,phase_2,stop,250.0,250.0,4.0,,,,,,,,,magenta,I
0.0,2.0,2.0,0.0,6.0,6.0,485.9179309996762,1.0,1.0,phase_2,go,300.0,250.0,1.0,,,,,,,,,yellow,circle
0.0,4.0,4.0,0.0,5.0,5.0,530.170218999956,1.0,1.0,phase_2,go,300.0,250.0,1.0,,,,,,,,,gray,square
0.0,1.0,1.0,0.0,6.0,6.0,601.0847670004296,1.0,1.0,phase_2,go,300.0,250.0,1.0,,,,,,,,,blue,cross
0.0,7.0,3.0,1.0,6.0,0.0,0.0,1.0,1.0,phase_2,stop,300.0,250.0,4.0,,,,,,,,,green,hexagon
0.0,2.0,2.0,0.0,5.0,5.0,532.4893549995977,1.0,1.0,phase_2,go,300.0,300.0,1.0,,,,,,,,,yellow,circle
0.0,5.0,1.0,1.0,6.0,6.0,445.5836200004341,1.0,1.0,phase_2,go,300.0,300.0,1.0,,,,,,,,,orange,diamond
0.0,2.0,2.0,0.0,6.0,6.0,567.8577120006594,1.0,1.0,phase_2,go,300.0,300.0,1.0,,,,,,,,,yellow,circle
0.0,6.0,2.0,1.0,5.0,0.0,0.0,1.0,1.0,phase_2,stop,300.0,300.0,4.0,,,,,,,,,magenta,I
0.0,6.0,2.0,1.0,6.0,6.0,485.7527200001641,1.0,1.0,phase_2,stop,350.0,300.0,3.0,,,,,,,,,magenta,I
0.0,3.0,3.0,0.0,6.0,6.0,484.7966540000925,1.0,1.0,phase_2,go,350.0,250.0,1.0,,,,,,,,,cyan,triangle
0.0,6.0,2.0,1.0,5.0,5.0,581.5027159997044,1.0,1.0,phase_2,go,350.0,250.0,1.0,,,,,,,,,magenta,I
0.0,5.0,1.0,1.0,6.0,0.0,0.0,1.0,1.0,phase_2,stop,350.0,250.0,4.0,,,,,,,,,orange,diamond
0.0,6.0,2.0,1.0,5.0,5.0,571.6706249995696,1.0,1.0,phase_2,go,350.0,300.0,1.0,,,,,,,,,magenta,I
0.0,6.0,2.0,1.0,6.0,0.0,0.0,1.0,1.0,phase_2,stop,350.0,300.0,4.0,,,,,,,,,magenta,I
0.0,1.0,1.0,0.0,5.0,5.0,627.556946000368,1.0,1.0,phase_2,go,350.0,350.0,1.0,,,,,,,,,blue,cross
0.0,7.0,3.0,1.0,5.0,5.0,654.5897079995484,1.0,1.0,phase_2,go,350.0,350.0,1.0,,,,,,,,,green,hexagon
0.0,6.0,2.0,1.0,5.0,0.0,0.0,1.0,1.0,phase_2,stop,350.0,350.0,4.0,,,,,,,,,magenta,I
0.0,2.0,2.0,0.0,6.0,6.0,609.3984319995798,1.0,1.0,phase_2,go,400.0,350.0,1.0,,,,,,,,,yellow,circle
0.0,8.0,4.0,1.0,6.0,0.0,0.0,1.0,1.0,phase_2,stop,400.0,350.0,4.0,,,,,,,,,white,flipped triangle
0.0,7.0,3.0,1.0,6.0,0.0,0.0,1.0,1.0,phase_2,stop,400.0,400.0,4.0,,,,,,,,,green,hexagon
0.0,7.0,3.0,1.0,5.0,5.0,332.7613139999812,1.0,1.0,phase_2,stop,400.0,450.0,3.0,,,,,,,,,green,hexagon
0.0,2.0,2.0,0.0,5.0,5.0,466.6106900003797,2.0,1.0,phase_2,go,350.0,450.0,1.0,,,,,,,,,yellow,circle
0.0,7.0,3.0,1.0,5.0,5.0,393.1049120001262,2.0,1.0,phase_2,stop,350.0,450.0,3.0,,,,,,,,,green,hexagon
0.0,7.0,3.0,1.0,6.0,6.0,501.06364600014786,2.0,1.0,phase_2,stop,300.0,450.0,3.0,,,,,,,,,green,hexagon
0.0,7.0,3.0,1.0,5.0,5.0,295.1963920004345,2.0,1.0,phase_2,go,300.0,400.0,1.0,,,,,,,,,green,hexagon
0.0,1.0,1.0,0.0,6.0,6.0,532.1173760003148,2.0,1.0,phase_2,go,300.0,400.0,1.0,,,,,,,,,blue,cross
0.0,5.0,1.0,1.0,5.0,0.0,0.0,2.0,1.0,phase_2,stop,300.0,400.0,4.0,,,,,,,,,orange,diamond
0.0,2.0,2.0,0.0,5.0,5.0,581.8104579993815,2.0,1.0,phase_2,go,350.0,400.0,1.0,,,,,,,,,yellow,circle
0.0,1.0,1.0,0.0,5.0,5.0,668.9234089999445,2.0,1.0,phase_2,go,350.0,400.0,1.0,,,,,,,,,blue,cross
0.0,5.0,1.0,1.0,5.0,0.0,0.0,2.0,1.0,phase_2,stop,350.0,400.0,4.0,,,,,,,,,orange,diamond
0.0,1.0,1.0,0.0,5.0,5.0,646.771888999865,2.0,1.0,phase_2,go,400.0,400.0,1.0,,,,,,,,,blue,cross
0.0,2.0,2.0,0.0,5.0,5.0,608.2703290003337,2.0,1.0,phase_2,go,400.0,400.0,1.0,,,,,,,,,yellow,circle
0.0,3.0,3.0,0.0,6.0,6.0,685.6828210002277,2.0,1.0,phase_2,go,400.0,400.0,1.0,,,,,,,,,cyan,triangle
0.0,2.0,2.0,0.0,6.0,6.0,541.1767199993847,2.0,1.0,phase_2,go,400.0,400.0,1.0,,,,,,,,,yellow,circle
0.0,2.0,2.0,0.0,5.0,5.0,438.9173230001688,2.0,1.0,phase_2,go,400.0,400.0,1.0,,,,,,,,,yellow,circle
0.0,8.0,4.0,1.0,5.0,5.0,570.7607529993766,2.0,1.0,phase_2,stop,400.0,400.0,3.0,,,,,,,,,white,flipped triangle
0.0,2.0,2.0,0.0,6.0,6.0,522.4989930002266,2.0,1.0,phase_2,go,350.0,400.0,1.0,,,,,,,,,yellow,circle
0.0,5.0,1.0,1.0,5.0,0.0,0.0,2.0,1.0,phase_2,stop,350.0,400.0,4.0,,,,,,,,,orange,diamond
0.0,3.0,3.0,0.0,6.0,6.0,627.517887999602,2.0,1.0,phase_2,go,400.0,400.0,1.0,,,,,,,,,cyan,triangle
0.0,5.0,1.0,1.0,6.0,0.0,0.0,2.0,1.0,phase_2,stop,400.0,400.0,4.0,,,,,,,,,orange,diamond
0.0,5.0,1.0,1.0,6.0,0.0,0.0,2.0,1.0,phase_2,stop,400.0,450.0,4.0,,,,,,,,,orange,diamond
0.0,4.0,4.0,0.0,5.0,5.0,580.0435330002074,2.0,1.0,phase_2,go,400.0,500.0,1.0,,,,,,,,,gray,square
0.0,3.0,3.0,0.0,5.0,5.0,703.8296850005281,2.0,1.0,phase_2,go,400.0,500.0,1.0,,,,,,,,,cyan,triangle
0.0,5.0,1.0,1.0,6.0,0.0,0.0,2.0,1.0,phase_2,stop,400.0,500.0,4.0,,,,,,,,,orange,diamond
0.0,3.0,3.0,0.0,6.0,6.0,695.9152310000718,2.0,1.0,phase_2,go,400.0,550.0,1.0,,,,,,,,,cyan,triangle
0.0,7.0,3.0,1.0,6.0,6.0,333.4293070001877,2.0,1.0,phase_2,stop,400.0,550.0,3.0,,,,,,,,,green,hexagon
0.0,1.0,1.0,0.0,5.0,5.0,627.8125689996159,2.0,1.0,phase_2,go,400.0,500.0,1.0,,,,,,,,,blue,cross
0.0,7.0,3.0,1.0,6.0,0.0,0.0,2.0,1.0,phase_2,stop,400.0,500.0,4.0,,,,,,,,,green,hexagon
0.0,8.0,4.0,1.0,5.0,0.0,0.0,2.0,1.0,phase_2,stop,400.0,550.0,4.0,,,,,,,,,white,flipped triangle
0.0,8.0,4.0,1.0,5.0,5.0,608.6620859996401,2.0,1.0,phase_2,go,450.0,550.0,1.0,,,,,,,,,white,flipped triangle
0.0,6.0,2.0,1.0,5.0,0.0,0.0,2.0,1.0,phase_2,stop,450.0,550.0,4.0,,,,,,,,,magenta,I
0.0,8.0,4.0,1.0,5.0,5.0,694.4248069994501,2.0,1.0,phase_2,go,500.0,550.0,1.0,,,,,,,,,white,flipped triangle
0.0,5.0,1.0,1.0,5.0,0.0,0.0,2.0,1.0,phase_2,stop,500.0,550.0,4.0,,,,,,,,,orange,diamond
0.0,7.0,3.0,1.0,6.0,0.0,0.0,2.0,1.0,phase_2,stop,550.0,550.0,4.0,,,,,,,,,green,hexagon
0.0,2.0,2.0,0.0,6.0,6.0,523.9757740000641,2.0,1.0,phase_2,go,550.0,600.0,1.0,,,,,,,,,yellow,circle
0.0,1.0,1.0,0.0,5.0,5.0,818.1868660003602,2.0,1.0,phase_2,go,550.0,600.0,1.0,,,,,,,,,blue,cross
0.0,1.0,1.0,0.0,5.0,5.0,924.0941110001586,2.0,1.0,phase_2,go,550.0,600.0,1.0,,,,,,,,,blue,cross
0.0,4.0,4.0,0.0,6.0,6.0,617.7351320002344,3.0,1.0,phase_2,go,550.0,600.0,1.0,,,,,,,,,gray,square
0.0,1.0,1.0,0.0,5.0,5.0,277.0927970004777,3.0,1.0,phase_2,go,550.0,600.0,1.0,,,,,,,,,blue,cross
0.0,7.0,3.0,1.0,6.0,6.0,551.473953999448,3.0,1.0,phase_2,stop,550.0,600.0,3.0,,,,,,,,,green,hexagon
0.0,8.0,4.0,1.0,6.0,6.0,533.686485000544,3.0,1.0,phase_2,go,550.0,550.0,1.0,,,,,,,,,white,flipped triangle
0.0,1.0,1.0,0.0,6.0,6.0,608.9080620004097,3.0,1.0,phase_2,go,550.0,550.0,1.0,,,,,,,,,blue,cross
0.0,5.0,1.0,1.0,5.0,5.0,732.3362479992284,3.0,1.0,phase_2,go,550.0,550.0,1.0,,,,,,,,,orange,diamond
0.0,4.0,4.0,0.0,6.0,6.0,581.344025999897,3.0,1.0,phase_2,go,550.0,550.0,1.0,,,,,,,,,gray,square
0.0,5.0,1.0,1.0,6.0,6.0,600.1760620001733,3.0,1.0,phase_2,go,550.0,550.0,1.0,,,,,,,,,orange,diamond
0.0,8.0,4.0,1.0,6.0,6.0,523.2246019995728,3.0,1.0,phase_2,stop,550.0,550.0,3.0,,,,,,,,,white,flipped triangle
0.0,2.0,2.0,0.0,6.0,6.0,626.2394779996612,3.0,1.0,phase_2,go,550.0,500.0,1.0,,,,,,,,,yellow,circle
0.0,3.0,3.0,0.0,6.0,6.0,657.8177260007578,3.0,1.0,phase_2,go,550.0,500.0,1.0,,,,,,,,,cyan,triangle
0.0,8.0,4.0,1.0,6.0,6.0,590.4109729999618,3.0,1.0,phase_2,stop,550.0,500.0,3.0,,,,,,,,,white,flipped triangle
0.0,3.0,3.0,0.0,6.0,6.0,865.049409000676,3.0,1.0,phase_2,go,550.0,450.0,1.0,,,,,,,,,cyan,triangle
0.0,4.0,4.0,0.0,6.0,6.0,721.7542749995118,3.0,1.0,phase_2,go,550.0,450.0,1.0,,,,,,,,,gray,square
0.0,2.0,2.0,0.0,5.0,5.0,559.8815379998996,3.0,1.0,phase_2,go,550.0,450.0,1.0,,,,,,,,,yellow,circle
0.0,2.0,2.0,0.0,5.0,5.0,646.6821710000659,3.0,1.0,phase_2,go,550.0,450.0,1.0,,,,,,,,,yellow,circle
0.0,5.0,1.0,1.0,6.0,6.0,553.4173180003563,3.0,1.0,phase_2,stop,550.0,450.0,3.0,,,,,,,,,orange,diamond
0.0,4.0,4.0,0.0,5.0,5.0,598.7900039999658,3.0,1.0,phase_2,go,550.0,400.0,1.0,,,,,,,,,gray,square
0.0,3.0,3.0,0.0,6.0,6.0,627.1760409999843,3.0,1.0,phase_2,go,550.0,400.0,1.0,,,,,,,,,cyan,triangle
0.0,8.0,4.0,1.0,5.0,5.0,738.7537590002466,3.0,1.0,phase_2,stop,550.0,400.0,3.0,,,,,,,,,white,flipped triangle
0.0,3.0,3.0,0.0,6.0,6.0,599.9783099996421,3.0,1.0,phase_2,go,500.0,400.0,1.0,,,,,,,,,cyan,triangle
0.0,1.0,1.0,0.0,6.0,6.0,876.1520150001161,3.0,1.0,phase_2,go,500.0,400.0,1.0,,,,,,,,,blue,cross
0.0,6.0,2.0,1.0,5.0,5.0,711.3835370000743,3.0,1.0,phase_2,stop,500.0,400.0,3.0,,,,,,,,,magenta,I
0.0,2.0,2.0,0.0,5.0,5.0,572.3566759997993,3.0,1.0,phase_2,go,450.0,400.0,1.0,,,,,,,,,yellow,circle
0.0,1.0,1.0,0.0,5.0,5.0,764.7080420001657,3.0,1.0,phase_2,go,450.0,400.0,1.0,,,,,,,,,blue,cross
0.0,8.0,4.0,1.0,6.0,6.0,561.6988359997777,3.0,1.0,phase_2,stop,450.0,400.0,3.0,,,,,,,,,white,flipped triangle
0.0,5.0,1.0,1.0,5.0,0.0,0.0,3.0,1.0,phase_2,stop,450.0,350.0,4.0,,,,,,,,,orange,diamond
0.0,4.0,4.0,0.0,5.0,5.0,600.237754999398,3.0,1.0,phase_2,go,500.0,350.0,1.0,,,,,,,,,gray,square
0.0,1.0,1.0,0.0,6.0,6.0,639.0357110003606,3.0,1.0,phase_2,go,500.0,350.0,1.0,,,,,,,,,blue,cross
0.0,1.0,1.0,0.0,5.0,5.0,702.7387440002713,3.0,1.0,phase_2,go,500.0,350.0,1.0,,,,,,,,,blue,cross
0.0,5.0,1.0,1.0,6.0,6.0,753.0664489995615,3.0,1.0,phase_2,go,500.0,350.0,1.0,,,,,,,,,orange,diamond
0.0,5.0,1.0,1.0,6.0,0.0,0.0,3.0,1.0,phase_2,stop,500.0,350.0,4.0,,,,,,,,,orange,diamond
0.0,3.0,3.0,0.0,5.0,5.0,522.0993429993541,3.0,1.0,phase_2,go,500.0,400.0,1.0,,,,,,,,,cyan,triangle
0.0,3.0,3.0,0.0,6.0,6.0,657.1317980005915,3.0,1.0,phase_2,go,500.0,400.0,1.0,,,,,,,,,cyan,triangle
0.0,1.0,1.0,0.0,5.0,5.0,496.2499880002724,3.0,1.0,phase_2,go,500.0,400.0,1.0,,,,,,,,,blue,cross
0.0,5.0,1.0,1.0,5.0,5.0,588.7839520000853,3.0,1.0,phase_2,stop,500.0,400.0,3.0,,,,,,,,,orange,diamond
0.0,4.0,4.0,0.0,6.0,6.0,543.6641810001674,4.0,1.0,phase_2,go,450.0,400.0,1.0,,,,,,,,,gray,square
0.0,8.0,4.0,1.0,6.0,6.0,561.8283339999834,4.0,1.0,phase_2,go,450.0,400.0,1.0,,,,,,,,,white,flipped triangle
0.0,3.0,3.0,0.0,6.0,6.0,427.2644980001132,4.0,1.0,phase_2,go,450.0,400.0,1.0,,,,,,,,,cyan,triangle
0.0,7.0,3.0,1.0,6.0,6.0,507.99657799962006,4.0,1.0,phase_2,stop,450.0,400.0,3.0,,,,,,,,,green,hexagon
0.0,1.0,1.0,0.0,6.0,6.0,524.181571000554,4.0,1.0,phase_2,go,450.0,350.0,1.0,,,,,,,,,blue,cross
0.0,4.0,4.0,0.0,5.0,5.0,580.6281810000655,4.0,1.0,phase_2,go,450.0,350.0,1.0,,,,,,,,,gray,square
0.0,5.0,1.0,1.0,5.0,5.0,583.1817339994814,4.0,1.0,phase_2,stop,450.0,350.0,3.0,,,,,,,,,orange,diamond
0.0,7.0,3.0,1.0,5.0,0.0,0.0,4.0,1.0,phase_2,stop,400.0,350.0,4.0,,,,,,,,,green,hexagon
0.0,4.0,4.0,0.0,6.0,6.0,695.1012839999748,4.0,1.0,phase_2,go,450.0,350.0,1.0,,,,,,,,,gray,square
0.0,8.0,4.0,1.0,5.0,0.0,0.0,4.0,1.0,phase_2,stop,450.0,350.0,4.0,,,,,,,,,white,flipped triangle
0.0,3.0,3.0,0.0,6.0,6.0,618.7254189999294,4.0,1.0,phase_2,go,500.0,350.0,1.0,,,,,,,,,cyan,triangle
0.0,6.0,2.0,1.0,6.0,0.0,0.0,4.0,1.0,phase_2,stop,500.0,350.0,4.0,,,,,,,,,magenta,I
0.0,6.0,2.0,1.0,5.0,5.0,572.6077699991947,4.0,1.0,phase_2,stop,500.0,400.0,3.0,,,,,,,,,magenta,I
0.0,4.0,4.0,0.0,6.0,6.0,686.8496799997956,4.0,1.0,phase_2,go,450.0,400.0,1.0,,,,,,,,,gray,square
0.0,8.0,4.0,1.0,5.0,5.0,724.5888850002302,4.0,1.0,phase_2,go,450.0,400.0,1.0,,,,,,,,,white,flipped triangle
0.0,7.0,3.0,1.0,5.0,0.0,0.0,4.0,1.0,phase_2,stop,450.0,400.0,4.0,,,,,,,,,green,hexagon
0.0,4.0,4.0,0.0,5.0,5.0,659.6290629995565,4.0,1.0,phase_2,go,500.0,400.0,1.0,,,,,,,,,gray,square
0.0,5.0,1.0,1.0,6.0,0.0,0.0,4.0,1.0,phase_2,stop,500.0,400.0,4.0,,,,,,,,,orange,diamond
0.0,1.0,1.0,0.0,6.0,6.0,763.0599680005616,4.0,1.0,phase_2,go,500.0,450.0,1.0,,,,,,,,,blue,cross
0.0,8.0,4.0,1.0,6.0,0.0,0.0,4.0,1.0,phase_2,stop,500.0,450.0,4.0,,,,,,,,,white,flipped triangle
0.0,1.0,1.0,0.0,6.0,6.0,618.4793790007461,4.0,1.0,phase_2,go,500.0,500.0,1.0,,,,,,,,,blue,cross
0.0,4.0,4.0,0.0,5.0,5.0,669.483159000265,4.0,1.0,phase_2,go,500.0,500.0,1.0,,,,,,,,,gray,square
0.0,3.0,3.0,0.0,6.0,6.0,754.1327620001539,4.0,1.0,phase_2,go,500.0,500.0,1.0,,,,,,,,,cyan,triangle
0.0,4.0,4.0,0.0,6.0,6.0,629.079943000761,4.0,1.0,phase_2,go,500.0,500.0,1.0,,,,,,,,,gray,square
0.0,7.0,3.0,1.0,5.0,5.0,305.4193719999603,4.0,1.0,phase_2,stop,500.0,500.0,3.0,,,,,,,,,green,hexagon
0.0,4.0,4.0,0.0,5.0,5.0,467.3732840001321,4.0,1.0,phase_2,go,450.0,500.0,1.0,,,,,,,,,gray,square
0.0,3.0,3.0,0.0,6.0,6.0,505.43539699992834,4.0,1.0,phase_2,go,450.0,500.0,1.0,,,,,,,,,cyan,triangle
0.0,5.0,1.0,1.0,5.0,0.0,0.0,4.0,1.0,phase_2,stop,450.0,500.0,4.0,,,,,,,,,orange,diamond
0.0,6.0,2.0,1.0,6.0,6.0,656.4065140000821,4.0,1.0,phase_2,stop,500.0,500.0,3.0,,,,,,,,,magenta,I
0.0,2.0,2.0,0.0,6.0,6.0,637.9545180006971,4.0,1.0,phase_2,go,500.0,450.0,1.0,,,,,,,,,yellow,circle
0.0,6.0,2.0,1.0,6.0,0.0,0.0,4.0,1.0,phase_2,stop,500.0,450.0,4.0,,,,,,,,,magenta,I
0.0,3.0,3.0,0.0,5.0,5.0,513.4746390003784,4.0,1.0,phase_2,go,500.0,500.0,1.0,,,,,,,,,cyan,triangle
0.0,2.0,2.0,0.0,6.0,6.0,562.0767789996535,4.0,1.0,phase_2,go,500.0,500.0,1.0,,,,,,,,,yellow,circle
0.0,3.0,3.0,0.0,6.0,6.0,620.0196689997028,4.0,1.0,phase_2,go,500.0,500.0,1.0,,,,,,,,,cyan,triangle
0.0,2.0,2.0,0.0,5.0,5.0,639.841117999822,4.0,1.0,phase_2,go,500.0,500.0,1.0,,,,,,,,,yellow,circle
0.0,1.0,1.0,0.0,6.0,6.0,381.6695649993562,4.0,1.0,phase_2,go,500.0,500.0,1.0,,,,,,,,,blue,cross
0.0,1.0,1.0,0.0,5.0,5.0,437.7325049999854,5.0,1.0,phase_2,go,500.0,500.0,1.0,,,,,,,,,blue,cross
0.0,6.0,2.0,1.0,6.0,6.0,485.1428620004299,5.0,1.0,phase_2,stop,500.0,500.0,3.0,,,,,,,,,magenta,I
0.0,4.0,4.0,0.0,5.0,5.0,475.586943000053,5.0,1.0,phase_2,go,500.0,450.0,1.0,,,,,,,,,gray,square
0.0,4.0,4.0,0.0,5.0,5.0,296.3461019999158,5.0,1.0,phase_2,go,500.0,450.0,1.0,,,,,,,,,gray,square
0.0,1.0,1.0,0.0,5.0,5.0,275.5937229994742,5.0,1.0,phase_2,go,500.0,450.0,1.0,,,,,,,,,blue,cross
0.0,3.0,3.0,0.0,5.0,5.0,286.3668439995308,5.0,1.0,phase_2,go,500.0,450.0,1.0,,,,,,,,,cyan,triangle
0.0,8.0,4.0,1.0,5.0,5.0,570.9354450000319,5.0,1.0,phase_2,stop,500.0,450.0,3.0,,,,,,,,,white,flipped triangle
0.0,2.0,2.0,0.0,5.0,5.0,602.1787299996504,5.0,1.0,phase_2,go,450.0,450.0,1.0,,,,,,,,,yellow,circle
0.0,4.0,4.0,0.0,6.0,6.0,306.5073919997303,5.0,1.0,phase_2,go,450.0,450.0,1.0,,,,,,,,,gray,square
0.0,2.0,2.0,0.0,6.0,6.0,372.4559299998873,5.0,1.0,phase_2,go,450.0,450.0,1.0,,,,,,,,,yellow,circle
0.0,6.0,2.0,1.0,5.0,5.0,514.5342570003777,5.0,1.0,phase_2,stop,450.0,450.0,3.0,,,,,,,,,magenta,I
0.0,2.0,2.0,0.0,5.0,5.0,571.9673559997318,5.0,1.0,phase_2,go,400.0,450.0,1.0,,,,,,,,,yellow,circle
0.0,2.0,2.0,0.0,5.0,5.0,696.1057050002637,5.0,1.0,phase_2,go,400.0,450.0,1.0,,,,,,,,,yellow,circle
0.0,7.0,3.0,1.0,6.0,6.0,570.8869769996454,5.0,1.0,phase_2,go,400.0,450.0,1.0,,,,,,,,,green,hexagon
0.0,6.0,2.0,1.0,6.0,6.0,600.3594439998778,5.0,1.0,phase_2,go,400.0,450.0,1.0,,,,,,,,,magenta,I
0.0,6.0,2.0,1.0,6.0,6.0,343.0010740003126,5.0,1.0,phase_2,go,400.0,450.0,1.0,,,,,,,,,magenta,I
0.0,4.0,4.0,0.0,6.0,6.0,561.1261289996037,5.0,1.0,phase_2,go,400.0,450.0,1.0,,,,,,,,,gray,square
0.0,3.0,3.0,0.0,5.0,5.0,573.1357500008016,5.0,1.0,phase_2,go,400.0,450.0,1.0,,,,,,,,,cyan,triangle
0.0,7.0,3.0,1.0,6.0,6.0,429.6894239996618,5.0,1.0,phase_2,stop,400.0,450.0,3.0,,,,,,,,,green,hexagon
0.0,7.0,3.0,1.0,6.0,6.0,342.3991179997756,5.0,1.0,phase_2,stop,400.0,400.0,3.0,,,,,,,,,green,hexagon
0.0,7.0,3.0,1.0,5.0,5.0,486.3440449998961,5.0,1.0,phase_2,stop,400.0,350.0,3.0,,,,,,,,,green,hexagon
0.0,6.0,2.0,1.0,5.0,5.0,561.2743820001924,5.0,1.0,phase_2,go,350.0,350.0,1.0,,,,,,,,,magenta,I
0.0,7.0,3.0,1.0,5.0,0.0,0.0,5.0,1.0,phase_2,stop,350.0,350.0,4.0,,,,,,,,,green,hexagon
0.0,4.0,4.0,0.0,5.0,5.0,581.3343499994517,5.0,1.0,phase_2,go,400.0,350.0,1.0,,,,,,,,,gray,square
0.0,7.0,3.0,1.0,6.0,6.0,611.811131999275,5.0,1.0,phase_2,go,400.0,350.0,1.0,,,,,,,,,green,hexagon
0.0,2.0,2.0,0.0,6.0,6.0,476.4487299999018,5.0,1.0,phase_2,go,400.0,350.0,1.0,,,,,,,,,yellow,circle
0.0,8.0,4.0,1.0,6.0,0.0,0.0,5.0,1.0,phase_2,stop,400.0,350.0,4.0,,,,,,,,,white,flipped triangle
0.0,8.0,4.0,1.0,5.0,5.0,601.7894530004924,5.0,1.0,phase_2,stop,400.0,400.0,3.0,,,,,,,,,white,flipped triangle
0.0,3.0,3.0,0.0,5.0,5.0,657.1715359996233,5.0,1.0,phase_2,go,350.0,400.0,1.0,,,,,,,,,cyan,triangle
0.0,8.0,4.0,1.0,5.0,0.0,0.0,5.0,1.0,phase_2,stop,350.0,400.0,4.0,,,,,,,,,white,flipped triangle
0.0,5.0,1.0,1.0,5.0,5.0,456.8284240003777,5.0,1.0,phase_2,go,400.0,400.0,1.0,,,,,,,,,orange,diamond
0.0,8.0,4.0,1.0,6.0,0.0,0.0,5.0,1.0,phase_2,stop,400.0,400.0,4.0,,,,,,,,,white,flipped triangle
0.0,4.0,4.0,0.0,6.0,6.0,667.7581419999115,5.0,1.0,phase_2,go,400.0,450.0,1.0,,,,,,,,,gray,square
0.0,3.0,3.0,0.0,6.0,6.0,714.5764520000739,5.0,1.0,phase_2,go,400.0,450.0,1.0,,,,,,,,,cyan,triangle
0.0,3.0,3.0,0.0,5.0,5.0,610.0709020001887,5.0,1.0,phase_2,go,400.0,450.0,1.0,,,,,,,,,cyan,triangle
0.0,8.0,4.0,1.0,6.0,6.0,626.4195530002326,5.0,1.0,phase_2,stop,400.0,450.0,3.0,,,,,,,,,white,flipped triangle
0.0,1.0,1.0,0.0,5.0,5.0,486.7364439996891,6.0,1.0,phase_2,go,400.0,400.0,1.0,,,,,,,,,blue,cross
0.0,6.0,2.0,1.0,5.0,5.0,399.4860189995961,6.0,1.0,phase_2,stop,400.0,400.0,3.0,,,,,,,,,magenta,I
0.0,8.0,4.0,1.0,6.0,6.0,518.6988519999431,6.0,1.0,phase_2,go,350.0,400.0,1.0,,,,,,,,,white,flipped triangle
0.0,4.0,4.0,0.0,6.0,6.0,618.7522090003768,6.0,1.0,phase_2,go,350.0,400.0,1.0,,,,,,,,,gray,square
0.0,5.0,1.0,1.0,6.0,0.0,0.0,6.0,1.0,phase_2,stop,350.0,400.0,4.0,,,,,,,,,orange,diamond
0.0,6.0,2.0,1.0,6.0,0.0,0.0,6.0,1.0,phase_2,stop,350.0,450.0,4.0,,,,,,,,,magenta,I
0.0,3.0,3.0,0.0,6.0,6.0,553.1331550000687,6.0,1.0,phase_2,go,350.0,500.0,1.0,,,,,,,,,cyan,triangle
0.0,6.0,2.0,1.0,6.0,6.0,669.7276059994692,6.0,1.0,phase_2,stop,350.0,500.0,3.0,,,,,,,,,magenta,I
0.0,6.0,2.0,1.0,5.0,0.0,0.0,6.0,1.0,phase_2,stop,350.0,450.0,4.0,,,,,,,,,magenta,I
0.0,8.0,4.0,1.0,6.0,6.0,411.8208650006636,6.0,1.0,phase_2,go,400.0,450.0,1.0,,,,,,,,,white,flipped triangle
0.0,6.0,2.0,1.0,6.0,0.0,0.0,6.0,1.0,phase_2,stop,400.0,450.0,4.0,,,,,,,,,magenta,I
0.0,8.0,4.0,1.0,5.0,5.0,482.6680209998812,6.0,1.0,phase_2,stop,400.0,500.0,3.0,,,,,,,,,white,flipped triangle
0.0,3.0,3.0,0.0,5.0,5.0,600.0816699997813,6.0,1.0,phase_2,go,350.0,500.0,1.0,,,,,,,,,cyan,triangle
0.0,6.0,2.0,1.0,6.0,6.0,596.5110630004347,6.0,1.0,phase_2,stop,350.0,500.0,3.0,,,,,,,,,magenta,I
0.0,4.0,4.0,0.0,5.0,5.0,695.6784099993456,6.0,1.0,phase_2,go,350.0,450.0,1.0,,,,,,,,,gray,square
0.0,4.0,4.0,0.0,5.0,5.0,669.7745149995171,6.0,1.0,phase_2,go,350.0,450.0,1.0,,,,,,,,,gray,square
0.0,8.0,4.0,1.0,6.0,0.0,0.0,6.0,1.0,phase_2,stop,350.0,450.0,4.0,,,,,,,,,white,flipped triangle
0.0,3.0,3.0,0.0,5.0,5.0,552.0865529997536,6.0,1.0,phase_2,go,350.0,500.0,1.0,,,,,,,,,cyan,triangle
0.0,3.0,3.0,0.0,5.0,5.0,761.4007330003005,6.0,1.0,phase_2,go,350.0,500.0,1.0,,,,,,,,,cyan,triangle
0.0,4.0,4.0,0.0,5.0,5.0,698.5991400006242,6.0,1.0,phase_2,go,350.0,500.0,1.0,,,,,,,,,gray,square
0.0,8.0,4.0,1.0,6.0,6.0,601.6259819998595,6.0,1.0,phase_2,stop,350.0,500.0,3.0,,,,,,,,,white,flipped triangle
0.0,1.0,1.0,0.0,5.0,5.0,703.9935359998708,6.0,1.0,phase_2,go,350.0,450.0,1.0,,,,,,,,,blue,cross
0.0,1.0,1.0,0.0,6.0,6.0,648.234988000695,6.0,1.0,phase_2,go,350.0,450.0,1.0,,,,,,,,,blue,cross
0.0,4.0,4.0,0.0,6.0,6.0,591.2630880002325,6.0,1.0,phase_2,go,350.0,450.0,1.0,,,,,,,,,gray,square
0.0,1.0,1.0,0.0,6.0,6.0,522.2022870002547,6.0,1.0,phase_2,go,350.0,450.0,1.0,,,,,,,,,blue,cross
0.0,3.0,3.0,0.0,6.0,6.0,649.1643259996636,6.0,1.0,phase_2,go,350.0,450.0,1.0,,,,,,,,,cyan,triangle
0.0,5.0,1.0,1.0,5.0,0.0,0.0,6.0,1.0,phase_2,stop,350.0,450.0,4.0,,,,,,,,,orange,diamond
0.0,5.0,1.0,1.0,5.0,5.0,552.2846230005598,6.0,1.0,phase_2,go,400.0,450.0,1.0,,,,,,,,,orange,diamond
0.0,1.0,1.0,0.0,5.0,5.0,496.484041000258,6.0,1.0,phase_2,go,400.0,450.0,1.0,,,,,,,,,blue,cross
0.0,1.0,1.0,0.0,6.0,6.0,514.5325470002717,6.0,1.0,phase_2,go,400.0,450.0,1.0,,,,,,,,,blue,cross
0.0,8.0,4.0,1.0,5.0,5.0,529.4946310004889,6.0,1.0,phase_2,stop,400.0,450.0,3.0,,,,,,,,,white,flipped triangle
0.0,2.0,2.0,0.0,5.0,5.0,582.6490720000947,6.0,1.0,phase_2,go,350.0,450.0,1.0,,,,,,,,,yellow,circle
0.0,2.0,2.0,0.0,5.0,5.0,630.4922030003581,6.0,1.0,phase_2,go,350.0,450.0,1.0,,,,,,,,,yellow,circle
0.0,7.0,3.0,1.0,5.0,0.0,0.0,6.0,1.0,phase_2,stop,350.0,450.0,4.0,,,,,,,,,green,hexagon
0.0,3.0,3.0,0.0,5.0,5.0,627.4397839997619,6.0,1.0,phase_2,go,400.0,450.0,1.0,,,,,,,,,cyan,triangle
0.0,8.0,4.0,1.0,6.0,0.0,0.0,6.0,1.0,phase_2,stop,400.0,450.0,4.0,,,,,,,,,white,flipped triangle
0.0,2.0,2.0,0.0,6.0,6.0,381.2158410000847,7.0,1.0,phase_2,go,400.0,500.0,1.0,,,,,,,,,yellow,circle
0.0,8.0,4.0,1.0,5.0,5.0,554.9968669993177,7.0,1.0,phase_2,stop,400.0,500.0,3.0,,,,,,,,,white,flipped triangle
0.0,1.0,1.0,0.0,6.0,6.0,543.2585680000557,7.0,1.0,phase_2,go,350.0,500.0,1.0,,,,,,,,,blue,cross
0.0,5.0,1.0,1.0,5.0,0.0,0.0,7.0,1.0,phase_2,stop,350.0,500.0,4.0,,,,,,,,,orange,diamond
0.0,1.0,1.0,0.0,6.0,6.0,389.1227959993557,7.0,1.0,phase_2,go,400.0,500.0,1.0,,,,,,,,,blue,cross
0.0,6.0,2.0,1.0,5.0,5.0,581.0380310003893,7.0,1.0,phase_2,go,400.0,500.0,1.0,,,,,,,,,magenta,I
0.0,7.0,3.0,1.0,5.0,0.0,0.0,7.0,1.0,phase_2,stop,400.0,500.0,4.0,,,,,,,,,green,hexagon
0.0,1.0,1.0,0.0,5.0,5.0,696.5180490005878,7.0,1.0,phase_2,go,450.0,500.0,1.0,,,,,,,,,blue,cross
0.0,6.0,2.0,1.0,5.0,5.0,513.3159309998518,7.0,1.0,phase_2,stop,450.0,500.0,3.0,,,,,,,,,magenta,I
0.0,2.0,2.0,0.0,6.0,6.0,572.6549929995599,7.0,1.0,phase_2,go,400.0,500.0,1.0,,,,,,,,,yellow,circle
0.0,2.0,2.0,0.0,6.0,6.0,475.9835670001848,7.0,1.0,phase_2,go,400.0,500.0,1.0,,,,,,,,,yellow,circle
0.0,6.0,2.0,1.0,6.0,6.0,597.8887300007045,7.0,1.0,phase_2,stop,400.0,500.0,3.0,,,,,,,,,magenta,I
0.0,8.0,4.0,1.0,5.0,5.0,496.1612839997542,7.0,1.0,phase_2,go,400.0,450.0,1.0,,,,,,,,,white,flipped triangle
0.0,7.0,3.0,1.0,5.0,5.0,533.2406050001737,7.0,1.0,phase_2,go,400.0,450.0,1.0,,,,,,,,,green,hexagon
0.0,4.0,4.0,0.0,6.0,6.0,523.7529400001222,7.0,1.0,phase_2,go,400.0,450.0,1.0,,,,,,,,,gray,square
0.0,7.0,3.0,1.0,6.0,0.0,0.0,7.0,1.0,phase_2,stop,400.0,450.0,4.0,,,,,,,,,green,hexagon
0.0,5.0,1.0,1.0,6.0,0.0,0.0,7.0,1.0,phase_2,stop,400.0,500.0,4.0,,,,,,,,,orange,diamond
0.0,2.0,2.0,0.0,6.0,6.0,695.3713530001551,7.0,1.0,phase_2,go,400.0,550.0,1.0,,,,,,,,,yellow,circle
0.0,3.0,3.0,0.0,5.0,5.0,535.3909309997107,7.0,1.0,phase_2,go,400.0,550.0,1.0,,,,,,,,,cyan,triangle
0.0,7.0,3.0,1.0,5.0,5.0,563.8650920000146,7.0,1.0,phase_2,go,400.0,550.0,1.0,,,,,,,,,green,hexagon
0.0,7.0,3.0,1.0,6.0,6.0,685.1567049998266,7.0,1.0,phase_2,go,400.0,550.0,1.0,,,,,,,,,green,hexagon
0.0,6.0,2.0,1.0,6.0,6.0,657.0229379994998,7.0,1.0,phase_2,go,400.0,550.0,1.0,,,,,,,,,magenta,I
0.0,5.0,1.0,1.0,5.0,0.0,0.0,7.0,1.0,phase_2,stop,400.0,550.0,4.0,,,,,,,,,orange,diamond
0.0,3.0,3.0,0.0,5.0,5.0,524.4744859992352,7.0,1.0,phase_2,go,450.0,550.0,1.0,,,,,,,,,cyan,triangle
0.0,8.0,4.0,1.0,6.0,6.0,597.6601210004446,7.0,1.0,phase_2,stop,450.0,550.0,3.0,,,,,,,,,white,flipped triangle
0.0,7.0,3.0,1.0,5.0,5.0,631.0143159998916,7.0,1.0,phase_2,stop,450.0,500.0,3.0,,,,,,,,,green,hexagon
0.0,8.0,4.0,1.0,5.0,5.0,398.6692150001545,7.0,1.0,phase_2,stop,400.0,500.0,3.0,,,,,,,,,white,flipped triangle
0.0,5.0,1.0,1.0,5.0,5.0,447.8915979998419,7.0,1.0,phase_2,go,350.0,500.0,1.0,,,,,,,,,orange,diamond
0.0,2.0,2.0,0.0,5.0,5.0,562.4484850004592,7.0,1.0,phase_2,go,350.0,500.0,1.0,,,,,,,,,yellow,circle
0.0,1.0,1.0,0.0,6.0,6.0,483.6730240003817,7.0,1.0,phase_2,go,350.0,500.0,1.0,,,,,,,,,blue,cross
0.0,2.0,2.0,0.0,6.0,6.0,629.5421170007103,7.0,1.0,phase_2,go,350.0,500.0,1.0,,,,,,,,,yellow,circle
0.0,6.0,2.0,1.0,6.0,6.0,543.0918489992109,7.0,1.0,phase_2,stop,350.0,500.0,3.0,,,,,,,,,magenta,I
0.0,7.0,3.0,1.0,5.0,0.0,0.0,7.0,1.0,phase_2,stop,350.0,450.0,4.0,,,,,,,,,green,hexagon
0.0,6.0,2.0,1.0,5.0,5.0,491.956681999909,7.0,1.0,phase_2,stop,400.0,450.0,3.0,,,,,,,,,magenta,I
0.0,7.0,3.0,1.0,5.0,5.0,532.4196309993567,7.0,1.0,phase_2,go,350.0,450.0,1.0,,,,,,,,,green,hexagon
0.0,2.0,2.0,0.0,6.0,6.0,637.7678150001884,7.0,1.0,phase_2,go,350.0,450.0,1.0,,,,,,,,,yellow,circle
0.0,4.0,4.0,0.0,6.0,6.0,560.898114000338,8.0,1.0,phase_2,go,350.0,450.0,1.0,,,,,,,,,gray,square
0.0,4.0,4.0,0.0,5.0,5.0,579.5790479996867,8.0,1.0,phase_2,go,350.0,450.0,1.0,,,,,,,,,gray,square
0.0,5.0,1.0,1.0,6.0,0.0,0.0,8.0,1.0,phase_2,stop,350.0,450.0,4.0,,,,,,,,,orange,diamond
0.0,4.0,4.0,0.0,6.0,6.0,579.4329419995847,8.0,1.0,phase_2,go,350.0,500.0,1.0,,,,,,,,,gray,square
0.0,6.0,2.0,1.0,6.0,6.0,655.8917570000631,8.0,1.0,phase_2,stop,350.0,500.0,3.0,,,,,,,,,magenta,I
0.0,7.0,3.0,1.0,5.0,5.0,582.6908580002055,8.0,1.0,phase_2,go,350.0,450.0,1.0,,,,,,,,,green,hexagon
0.0,1.0,1.0,0.0,6.0,6.0,628.8803429997643,8.0,1.0,phase_2,go,350.0,450.0,1.0,,,,,,,,,blue,cross
0.0,8.0,4.0,1.0,6.0,6.0,581.1937230000694,8.0,1.0,phase_2,stop,350.0,450.0,3.0,,,,,,,,,white,flipped triangle
0.0,4.0,4.0,0.0,6.0,6.0,541.8702349998057,8.0,1.0,phase_2,go,350.0,400.0,1.0,,,,,,,,,gray,square
0.0,4.0,4.0,0.0,6.0,6.0,599.4763929993496,8.0,1.0,phase_2,go,350.0,400.0,1.0,,,,,,,,,gray,square
0.0,5.0,1.0,1.0,6.0,0.0,0.0,8.0,1.0,phase_2,stop,350.0,400.0,4.0,,,,,,,,,orange,diamond
0.0,3.0,3.0,0.0,5.0,5.0,439.0061089998198,8.0,1.0,phase_2,go,350.0,450.0,1.0,,,,,,,,,cyan,triangle
0.0,5.0,1.0,1.0,6.0,6.0,574.981034999837,8.0,1.0,phase_2,stop,350.0,450.0,3.0,,,,,,,,,orange,diamond
0.0,2.0,2.0,0.0,5.0,5.0,533.2550039993293,8.0,1.0,phase_2,go,350.0,400.0,1.0,,,,,,,,,yellow,circle
0.0,4.0,4.0,0.0,6.0,6.0,714.4764390004639,8.0,1.0,phase_2,go,350.0,400.0,1.0,,,,,,,,,gray,square
0.0,7.0,3.0,1.0,6.0,0.0,0.0,8.0,1.0,phase_2,stop,350.0,400.0,4.0,,,,,,,,,green,hexagon
0.0,8.0,4.0,1.0,5.0,5.0,496.2178810001205,8.0,1.0,phase_2,stop,350.0,450.0,3.0,,,,,,,,,white,flipped triangle
0.0,4.0,4.0,0.0,5.0,5.0,505.62855699990905,8.0,1.0,phase_2,go,300.0,450.0,1.0,,,,,,,,,gray,square
0.0,5.0,1.0,1.0,5.0,0.0,0.0,8.0,1.0,phase_2,stop,300.0,450.0,4.0,,,,,,,,,orange,diamond
0.0,7.0,3.0,1.0,6.0,6.0,557.7358059999824,8.0,1.0,phase_2,stop,350.0,450.0,3.0,,,,,,,,,green,hexagon
0.0,2.0,2.0,0.0,6.0,6.0,542.2582209994289,8.0,1.0,phase_2,go,350.0,400.0,1.0,,,,,,,,,yellow,circle
0.0,2.0,2.0,0.0,5.0,5.0,428.5590690005847,8.0,1.0,phase_2,go,350.0,400.0,1.0,,,,,,,,,yellow,circle
0.0,2.0,2.0,0.0,5.0,5.0,646.9398180006465,8.0,1.0,phase_2,go,350.0,400.0,1.0,,,,,,,,,yellow,circle
0.0,6.0,2.0,1.0,6.0,0.0,0.0,8.0,1.0,phase_2,stop,350.0,400.0,4.0,,,,,,,,,magenta,I
0.0,1.0,1.0,0.0,6.0,6.0,645.2230450004208,8.0,1.0,phase_2,go,350.0,450.0,1.0,,,,,,,,,blue,cross
0.0,1.0,1.0,0.0,6.0,6.0,599.66095999971,8.0,1.0,phase_2,go,350.0,450.0,1.0,,,,,,,,,blue,cross
0.0,6.0,2.0,1.0,6.0,6.0,600.3829860001133,8.0,1.0,phase_2,go,350.0,450.0,1.0,,,,,,,,,magenta,I
0.0,6.0,2.0,1.0,5.0,0.0,0.0,8.0,1.0,phase_2,stop,350.0,450.0,4.0,,,,,,,,,magenta,I
0.0,1.0,1.0,0.0,5.0,5.0,581.0870300001625,8.0,1.0,phase_2,go,400.0,450.0,1.0,,,,,,,,,blue,cross
0.0,3.0,3.0,0.0,5.0,5.0,563.0467459995998,8.0,1.0,phase_2,go,400.0,450.0,1.0,,,,,,,,,cyan,triangle
0.0,8.0,4.0,1.0,6.0,6.0,578.1572699997923,8.0,1.0,phase_2,stop,400.0,450.0,3.0,,,,,,,,,white,flipped triangle
0.0,3.0,3.0,0.0,6.0,6.0,608.3108620005078,8.0,1.0,phase_2,go,400.0,400.0,1.0,,,,,,,,,cyan,triangle
0.0,5.0,1.0,1.0,6.0,0.0,0.0,8.0,1.0,phase_2,stop,400.0,400.0,4.0,,,,,,,,,orange,diamond
0.0,5.0,1.0,1.0,6.0,6.0,648.0716839996603,8.0,1.0,phase_2,go,400.0,450.0,1.0,,,,,,,,,orange,diamond
0.0,7.0,3.0,1.0,6.0,0.0,0.0,8.0,1.0,phase_2,stop,400.0,450.0,4.0,,,,,,,,,green,hexagon
0.0,5.0,1.0,1.0,5.0,5.0,693.1619150000188,8.0,1.0,phase_2,go,400.0,500.0,1.0,,,,,,,,,orange,diamond
0.0,4.0,4.0,0.0,7.0,5.0,2014.8800589995521,1.0,2.0,phase_3,,,,,346.0,2.0,1038.0,865.0,692.0,519.0,346.0,173.0,gray,square
0.0,1.0,1.0,0.0,7.0,6.0,1577.094899000258,1.0,1.0,phase_3,,,,,173.0,1.0,865.0,346.0,692.0,519.0,1038.0,173.0,blue,cross
0.0,8.0,4.0,1.0,7.0,3.0,3262.013286999718,1.0,1.0,phase_3,,,,,696.0,6.0,464.0,580.0,696.0,232.0,348.0,116.0,white,flipped triangle
0.0,1.0,1.0,0.0,7.0,6.0,3106.46093700052,1.0,1.0,phase_3,,,,,405.0,3.0,810.0,540.0,135.0,270.0,675.0,405.0,blue,cross
0.0,3.0,3.0,0.0,7.0,2.0,1119.0928329997405,1.0,1.0,phase_3,,,,,696.0,6.0,232.0,696.0,116.0,580.0,348.0,464.0,cyan,triangle
0.0,3.0,3.0,0.0,7.0,5.0,1804.4220989995663,1.0,1.0,phase_3,,,,,462.0,3.0,616.0,154.0,924.0,308.0,462.0,770.0,cyan,triangle
0.0,2.0,2.0,0.0,7.0,6.0,1278.488402000221,1.0,1.0,phase_3,,,,,192.0,1.0,960.0,576.0,1152.0,768.0,384.0,192.0,yellow,circle
0.0,8.0,4.0,1.0,7.0,3.0,1728.0096669992415,1.0,1.0,phase_3,,,,,924.0,6.0,308.0,770.0,924.0,616.0,154.0,462.0,white,flipped triangle
0.0,5.0,1.0,1.0,7.0,5.0,1464.989347000483,1.0,1.0,phase_3,,,,,384.0,2.0,768.0,192.0,576.0,960.0,384.0,1152.0,orange,diamond
0.0,5.0,1.0,1.0,7.0,2.0,1541.6943239997636,1.0,1.0,phase_3,,,,,116.0,1.0,232.0,116.0,464.0,696.0,580.0,348.0,orange,diamond
0.0,3.0,3.0,0.0,7.0,2.0,2259.3549260000145,1.0,1.0,phase_3,,,,,519.0,3.0,173.0,519.0,346.0,1038.0,865.0,692.0,cyan,triangle
0.0,3.0,3.0,0.0,7.0,3.0,2164.056331999745,1.0,1.0,phase_3,,,,,576.0,3.0,384.0,192.0,576.0,960.0,768.0,1152.0,cyan,triangle
0.0,3.0,3.0,0.0,7.0,4.0,2013.3202020006138,1.0,1.0,phase_3,,,,,692.0,4.0,173.0,1038.0,346.0,692.0,519.0,865.0,cyan,triangle
0.0,2.0,2.0,0.0,7.0,2.0,2328.4689269994487,1.0,1.0,phase_3,,,,,135.0,1.0,675.0,135.0,540.0,810.0,405.0,270.0,yellow,circle
0.0,5.0,1.0,1.0,7.0,4.0,1476.569051000297,1.0,1.0,phase_3,,,,,540.0,4.0,135.0,405.0,810.0,540.0,675.0,270.0,orange,diamond
0.0,1.0,1.0,0.0,7.0,3.0,2650.0526849995367,1.0,1.0,phase_3,,,,,405.0,3.0,675.0,135.0,405.0,540.0,810.0,270.0,blue,cross
0.0,3.0,3.0,0.0,7.0,3.0,1351.42724599973,1.0,1.0,phase_3,,,,,270.0,2.0,675.0,405.0,270.0,540.0,810.0,135.0,cyan,triangle
0.0,8.0,4.0,1.0,7.0,2.0,3236.857200000486,1.0,1.0,phase_3,,,,,675.0,5.0,405.0,675.0,540.0,270.0,810.0,135.0,white,flipped triangle
0.0,2.0,2.0,0.0,7.0,3.0,2191.679006000413,1.0,1.0,phase_3,,,,,116.0,1.0,464.0,232.0,116.0,696.0,580.0,348.0,yellow,circle
0.0,6.0,2.0,1.0,7.0,2.0,1268.0842800000391,1.0,1.0,phase_3,,,,,865.0,5.0,692.0,865.0,519.0,173.0,1038.0,346.0,magenta,I
0.0,7.0,3.0,1.0,7.0,4.0,1315.3335409997453,2.0,1.0,phase_3,,,,,616.0,4.0,924.0,154.0,308.0,616.0,770.0,462.0,green,hexagon
0.0,2.0,2.0,0.0,7.0,1.0,1269.8612109998066,2.0,1.0,phase_3,,,,,348.0,3.0,348.0,696.0,116.0,464.0,232.0,580.0,yellow,circle
0.0,7.0,3.0,1.0,7.0,1.0,1089.7577499999898,2.0,1.0,phase_3,,,,,675.0,5.0,675.0,810.0,405.0,270.0,135.0,540.0,green,hexagon
0.0,6.0,2.0,1.0,7.0,1.0,1535.2660660000763,2.0,1.0,phase_3,,,,,346.0,2.0,346.0,1038.0,692.0,519.0,865.0,173.0,magenta,I
0.0,8.0,4.0,1.0,7.0,4.0,1835.2040280005892,2.0,1.0,phase_3,,,,,924.0,6.0,154.0,462.0,770.0,924.0,616.0,308.0,white,flipped triangle
0.0,4.0,4.0,0.0,7.0,6.0,1922.667683000327,2.0,1.0,phase_3,,,,,1038.0,6.0,519.0,346.0,692.0,865.0,173.0,1038.0,gray,square
0.0,1.0,1.0,0.0,7.0,6.0,1278.6348299996462,2.0,1.0,phase_3,,,,,696.0,6.0,348.0,464.0,116.0,580.0,232.0,696.0,blue,cross
0.0,7.0,3.0,1.0,7.0,5.0,945.5577810003888,2.0,1.0,phase_3,,,,,692.0,4.0,173.0,1038.0,346.0,865.0,692.0,519.0,green,hexagon
0.0,7.0,3.0,1.0,7.0,2.0,2462.7266550005515,2.0,1.0,phase_3,,,,,768.0,4.0,576.0,768.0,384.0,960.0,1152.0,192.0,green,hexagon
0.0,7.0,3.0,1.0,7.0,2.0,1077.7961249996224,2.0,1.0,phase_3,,,,,675.0,5.0,405.0,675.0,270.0,810.0,540.0,135.0,green,hexagon
0.0,1.0,1.0,0.0,7.0,3.0,1099.16381200037,2.0,1.0,phase_3,,,,,616.0,4.0,924.0,154.0,616.0,462.0,770.0,308.0,blue,cross
0.0,3.0,3.0,0.0,7.0,3.0,1143.757371999527,2.0,1.0,phase_3,,,,,232.0,2.0,348.0,696.0,232.0,116.0,580.0,464.0,cyan,triangle
0.0,3.0,3.0,0.0,7.0,1.0,1982.321365999269,2.0,1.0,phase_3,,,,,192.0,1.0,192.0,1152.0,960.0,768.0,384.0,576.0,cyan,triangle
0.0,7.0,3.0,1.0,7.0,2.0,2024.459666000439,2.0,1.0,phase_3,,,,,576.0,3.0,384.0,576.0,192.0,960.0,768.0,1152.0,green,hexagon
0.0,8.0,4.0,1.0,7.0,6.0,946.3604969996596,2.0,1.0,phase_3,,,,,960.0,5.0,384.0,192.0,576.0,1152.0,768.0,960.0,white,flipped triangle
0.0,6.0,2.0,1.0,7.0,6.0,2034.187756999927,2.0,1.0,phase_3,,,,,768.0,4.0,960.0,384.0,192.0,576.0,1152.0,768.0,magenta,I
0.0,4.0,4.0,0.0,7.0,3.0,2419.5752040004663,2.0,1.0,phase_3,,,,,675.0,5.0,405.0,270.0,675.0,540.0,810.0,135.0,gray,square
0.0,5.0,1.0,1.0,7.0,2.0,1647.3047350000345,2.0,1.0,phase_3,,,,,519.0,3.0,346.0,519.0,865.0,692.0,173.0,1038.0,orange,diamond
0.0,1.0,1.0,0.0,7.0,6.0,1844.9137699999485,2.0,1.0,phase_3,,,,,580.0,5.0,696.0,232.0,464.0,116.0,348.0,580.0,blue,cross
0.0,4.0,4.0,0.0,7.0,4.0,1257.616986999892,2.0,1.0,phase_3,,,,,1152.0,6.0,960.0,384.0,192.0,1152.0,576.0,768.0,gray,square
0.0,2.0,2.0,0.0,7.0,4.0,1897.1210309991875,3.0,1.0,phase_3,,,,,346.0,2.0,1038.0,692.0,173.0,346.0,519.0,865.0,yellow,circle
0.0,1.0,1.0,0.0,7.0,4.0,1098.1311959994855,3.0,1.0,phase_3,,,,,768.0,4.0,960.0,384.0,192.0,768.0,1152.0,576.0,blue,cross
0.0,1.0,1.0,0.0,7.0,4.0,777.5662500007456,3.0,1.0,phase_3,,,,,616.0,4.0,924.0,770.0,462.0,616.0,308.0,154.0,blue,cross
0.0,4.0,4.0,0.0,7.0,1.0,1931.2488149998896,3.0,1.0,phase_3,,,,,924.0,6.0,924.0,616.0,154.0,770.0,308.0,462.0,gray,square
0.0,7.0,3.0,1.0,7.0,2.0,1950.7421440002872,3.0,1.0,phase_3,,,,,692.0,4.0,1038.0,692.0,173.0,865.0,519.0,346.0,green,hexagon
0.0,4.0,4.0,0.0,7.0,6.0,2369.6459590000813,3.0,1.0,phase_3,,,,,924.0,6.0,462.0,308.0,770.0,154.0,616.0,924.0,gray,square
0.0,8.0,4.0,1.0,7.0,3.0,1502.5164759999825,3.0,1.0,phase_3,,,,,1038.0,6.0,519.0,346.0,1038.0,692.0,865.0,173.0,white,flipped triangle
0.0,5.0,1.0,1.0,7.0,2.0,947.3099920005552,3.0,1.0,phase_3,,,,,346.0,2.0,519.0,346.0,865.0,1038.0,173.0,692.0,orange,diamond
0.0,4.0,4.0,0.0,7.0,1.0,1021.883981999963,3.0,1.0,phase_3,,,,,1152.0,6.0,1152.0,960.0,768.0,192.0,384.0,576.0,gray,square
0.0,3.0,3.0,0.0,7.0,4.0,2007.180530000369,3.0,1.0,phase_3,,,,,270.0,2.0,135.0,810.0,675.0,270.0,405.0,540.0,cyan,triangle
0.0,2.0,2.0,0.0,7.0,6.0,1696.1473950004802,3.0,1.0,phase_3,,,,,346.0,2.0,692.0,173.0,1038.0,865.0,519.0,346.0,yellow,circle
0.0,6.0,2.0,1.0,7.0,1.0,2330.435930999556,3.0,1.0,phase_3,,,,,768.0,4.0,768.0,1152.0,384.0,960.0,576.0,192.0,magenta,I
0.0,6.0,2.0,1.0,7.0,4.0,1657.8603060006571,3.0,1.0,phase_3,,,,,675.0,5.0,270.0,405.0,135.0,675.0,810.0,540.0,magenta,I
0.0,4.0,4.0,0.0,7.0,5.0,2623.4987779998846,3.0,1.0,phase_3,,,,,696.0,6.0,348.0,464.0,116.0,232.0,696.0,580.0,gray,square
0.0,4.0,4.0,0.0,7.0,4.0,2100.558309999542,3.0,1.0,phase_3,,,,,696.0,6.0,348.0,580.0,232.0,696.0,464.0,116.0,gray,square
0.0,5.0,1.0,1.0,7.0,3.0,1654.329695999877,3.0,1.0,phase_3,,,,,462.0,3.0,616.0,924.0,462.0,770.0,308.0,154.0,orange,diamond
0.0,5.0,1.0,1.0,7.0,4.0,1180.8151450004516,3.0,1.0,phase_3,,,,,405.0,3.0,135.0,675.0,540.0,405.0,270.0,810.0,orange,diamond
0.0,2.0,2.0,0.0,7.0,5.0,1729.3576009997196,3.0,1.0,phase_3,,,,,192.0,1.0,1152.0,576.0,768.0,384.0,192.0,960.0,yellow,circle
0.0,5.0,1.0,1.0,7.0,5.0,1313.261293999858,3.0,1.0,phase_3,,,,,462.0,3.0,770.0,616.0,308.0,924.0,462.0,154.0,orange,diamond
0.0,7.0,3.0,1.0,7.0,5.0,1664.5389649993376,3.0,1.0,phase_3,,,,,696.0,6.0,580.0,348.0,464.0,232.0,696.0,116.0,green,hexagon
0.0,1.0,1.0,0.0,7.0,5.0,2013.1035120002707,4.0,1.0,phase_3,,,,,576.0,3.0,1152.0,960.0,192.0,384.0,576.0,768.0,blue,cross
0.0,1.0,1.0,0.0,7.0,5.0,955.8261900001526,4.0,1.0,phase_3,,,,,692.0,4.0,519.0,865.0,173.0,346.0,692.0,1038.0,blue,cross
0.0,5.0,1.0,1.0,7.0,3.0,1674.6025410002403,4.0,1.0,phase_3,,,,,464.0,4.0,232.0,696.0,464.0,116.0,580.0,348.0,orange,diamond
0.0,4.0,4.0,0.0,7.0,6.0,1503.8882809994902,4.0,1.0,phase_3,,,,,810.0,6.0,405.0,540.0,675.0,135.0,270.0,810.0,gray,square
0.0,6.0,2.0,1.0,7.0,2.0,1956.1684029995376,4.0,1.0,phase_3,,,,,696.0,6.0,232.0,696.0,348.0,580.0,116.0,464.0,magenta,I
0.0,2.0,2.0,0.0,7.0,3.0,2220.6353729998227,4.0,1.0,phase_3,,,,,270.0,2.0,810.0,540.0,270.0,405.0,675.0,135.0,yellow,circle
0.0,2.0,2.0,0.0,7.0,1.0,2437.7721129994825,4.0,1.0,phase_3,,,,,308.0,2.0,308.0,924.0,154.0,616.0,770.0,462.0,yellow,circle
0.0,6.0,2.0,1.0,7.0,5.0,1088.8607050001156,4.0,1.0,phase_3,,,,,675.0,5.0,405.0,135.0,540.0,810.0,675.0,270.0,magenta,I
0.0,8.0,4.0,1.0,7.0,5.0,1977.2804439999163,4.0,1.0,phase_3,,,,,464.0,4.0,232.0,580.0,348.0,696.0,464.0,116.0,white,flipped triangle
0.0,6.0,2.0,1.0,7.0,1.0,876.3927790005255,4.0,1.0,phase_3,,,,,770.0,5.0,770.0,308.0,616.0,924.0,154.0,462.0,magenta,I
0.0,6.0,2.0,1.0,7.0,4.0,1826.6641150003124,4.0,1.0,phase_3,,,,,308.0,2.0,462.0,154.0,770.0,308.0,924.0,616.0,magenta,I
0.0,8.0,4.0,1.0,7.0,3.0,1464.465354000822,4.0,1.0,phase_3,,,,,1038.0,6.0,346.0,519.0,1038.0,865.0,692.0,173.0,white,flipped triangle
0.0,6.0,2.0,1.0,7.0,3.0,1630.168966000383,4.0,1.0,phase_3,,,,,696.0,6.0,580.0,232.0,696.0,464.0,116.0,348.0,magenta,I
0.0,2.0,2.0,0.0,7.0,5.0,1975.0694739996104,4.0,1.0,phase_3,,,,,308.0,2.0,616.0,154.0,924.0,770.0,308.0,462.0,yellow,circle
0.0,3.0,3.0,0.0,7.0,5.0,2437.980783999592,4.0,1.0,phase_3,,,,,462.0,3.0,616.0,308.0,770.0,154.0,462.0,924.0,cyan,triangle
0.0,5.0,1.0,1.0,7.0,6.0,786.1222860001362,4.0,1.0,phase_3,,,,,192.0,1.0,576.0,1152.0,768.0,960.0,384.0,192.0,orange,diamond
0.0,7.0,3.0,1.0,7.0,2.0,1172.2990660000503,4.0,1.0,phase_3,,,,,770.0,5.0,308.0,770.0,924.0,462.0,616.0,154.0,green,hexagon
0.0,7.0,3.0,1.0,7.0,2.0,1268.9025170002424,4.0,1.0,phase_3,,,,,696.0,6.0,464.0,696.0,232.0,116.0,348.0,580.0,green,hexagon
0.0,8.0,4.0,1.0,7.0,1.0,955.6437500004904,4.0,1.0,phase_3,,,,,1152.0,6.0,1152.0,768.0,576.0,384.0,192.0,960.0,white,flipped triangle
0.0,8.0,4.0,1.0,7.0,2.0,1864.248588999544,4.0,1.0,phase_3,,,,,810.0,6.0,675.0,810.0,270.0,540.0,405.0,135.0,white,flipped triangle
