raw_reward_magnitude,stim_reward,stepwise_reward_magnitude,paired_with_stopping,stim_location,response,reaction_time,block,num_trial_presentations,which_phase,stop_signal_trial_type,left_SSD,right_SSD,accuracy,chosen_bidding_amount,chosen_bidding_level,possible_bid_1,possible_bid_2,possible_bid_3,possible_bid_4,possible_bid_5,possible_bid_6,color_text,shape_text
1279.0,8.0,4.0,1.0,1.0,1.0,609.570567999981,1.0,1.0,phase_1,,,,,,,,,,,,,white,I
0.0,1.0,0.0,0.0,1.0,1.0,554.6789810000519,1.0,1.0,phase_1,,,,,,,,,,,,,magenta,circle
0.0,1.0,0.0,0.0,2.0,2.0,370.0467590001608,1.0,1.0,phase_1,,,,,,,,,,,,,magenta,circle
348.0,2.0,1.0,0.0,3.0,3.0,359.8304839999855,1.0,1.0,phase_1,,,,,,,,,,,,,gray,diamond
1310.0,8.0,4.0,1.0,3.0,3.0,343.6560560000998,1.0,1.0,phase_1,,,,,,,,,,,,,white,I
1310.0,8.0,4.0,1.0,3.0,3.0,380.5436679999729,1.0,1.0,phase_1,,,,,,,,,,,,,white,I
151.0,5.0,0.5,1.0,4.0,4.0,387.9834599999867,1.0,1.0,phase_1,,,,,,,,,,,,,yellow,square
178.0,1.0,0.5,0.0,4.0,4.0,362.0043819998955,1.0,1.0,phase_1,,,,,,,,,,,,,magenta,circle
174.0,1.0,0.5,0.0,1.0,1.0,287.3790569999528,1.0,1.0,phase_1,,,,,,,,,,,,,magenta,circle
1317.0,4.0,4.0,0.0,2.0,2.0,296.2295439999707,1.0,1.0,phase_1,,,,,,,,,,,,,green,flipped triangle
158.0,5.0,0.5,1.0,3.0,3.0,332.3886890000267,1.0,1.0,phase_1,,,,,,,,,,,,,yellow,square
669.0,3.0,2.0,0.0,4.0,4.0,339.8253740001564,1.0,1.0,phase_1,,,,,,,,,,,,,cyan,hexagon
0.0,3.0,0.0,0.0,2.0,2.0,518.7107550000292,1.0,1.0,phase_1,,,,,,,,,,,,,cyan,hexagon
1321.0,4.0,4.0,0.0,1.0,1.0,379.9264570000105,1.0,2.0,phase_1,,,,,,,,,,,,,green,flipped triangle
657.0,7.0,2.0,1.0,2.0,2.0,342.9689280001184,1.0,1.0,phase_1,,,,,,,,,,,,,orange,triangle
346.0,2.0,1.0,0.0,1.0,1.0,408.0177159999039,1.0,1.0,phase_1,,,,,,,,,,,,,gray,diamond
301.0,6.0,1.0,1.0,4.0,4.0,334.4771889999265,1.0,1.0,phase_1,,,,,,,,,,,,,blue,cross
331.0,2.0,1.0,0.0,2.0,2.0,324.7777609999502,1.0,1.0,phase_1,,,,,,,,,,,,,gray,diamond
0.0,5.0,0.0,1.0,1.0,1.0,463.233351999861,1.0,1.0,phase_1,,,,,,,,,,,,,yellow,square
312.0,2.0,1.0,0.0,2.0,2.0,287.967245000118,1.0,1.0,phase_1,,,,,,,,,,,,,gray,diamond
331.0,2.0,1.0,0.0,1.0,1.0,287.2560549999434,1.0,1.0,phase_1,,,,,,,,,,,,,gray,diamond
0.0,3.0,0.0,0.0,3.0,3.0,299.3266250000488,1.0,1.0,phase_1,,,,,,,,,,,,,cyan,hexagon
162.0,5.0,0.5,1.0,4.0,4.0,353.0078310000135,1.0,1.0,phase_1,,,,,,,,,,,,,yellow,square
331.0,6.0,1.0,1.0,3.0,3.0,314.627714000153,1.0,1.0,phase_1,,,,,,,,,,,,,blue,cross
637.0,7.0,2.0,1.0,1.0,1.0,305.8566639999753,1.0,1.0,phase_1,,,,,,,,,,,,,orange,triangle
0.0,6.0,0.0,1.0,3.0,3.0,304.9625219998688,1.0,1.0,phase_1,,,,,,,,,,,,,blue,cross
1302.0,4.0,4.0,0.0,1.0,1.0,472.4301880000894,1.0,1.0,phase_1,,,,,,,,,,,,,green,flipped triangle
661.0,7.0,2.0,1.0,3.0,3.0,351.0138149999875,1.0,1.0,phase_1,,,,,,,,,,,,,orange,triangle
338.0,6.0,1.0,1.0,1.0,1.0,286.671639999895,1.0,1.0,phase_1,,,,,,,,,,,,,blue,cross
172.0,5.0,0.5,1.0,1.0,1.0,340.9320470000239,1.0,1.0,phase_1,,,,,,,,,,,,,yellow,square
0.0,5.0,0.0,1.0,3.0,3.0,314.6536290000767,1.0,1.0,phase_1,,,,,,,,,,,,,yellow,square
1284.0,4.0,4.0,0.0,3.0,3.0,361.4025110000511,1.0,1.0,phase_1,,,,,,,,,,,,,green,flipped triangle
301.0,2.0,1.0,0.0,4.0,4.0,444.2510589999529,1.0,2.0,phase_1,,,,,,,,,,,,,gray,diamond
1279.0,8.0,4.0,1.0,1.0,1.0,546.0093869999127,1.0,1.0,phase_1,,,,,,,,,,,,,white,I
141.0,1.0,0.5,0.0,2.0,2.0,341.8758479999724,1.0,1.0,phase_1,,,,,,,,,,,,,magenta,circle
648.0,3.0,2.0,0.0,4.0,4.0,362.5129439999455,1.0,1.0,phase_1,,,,,,,,,,,,,cyan,hexagon
139.0,1.0,0.5,0.0,1.0,1.0,380.7226910000736,1.0,1.0,phase_1,,,,,,,,,,,,,magenta,circle
314.0,2.0,1.0,0.0,3.0,3.0,333.5658900000453,1.0,1.0,phase_1,,,,,,,,,,,,,gray,diamond
667.0,7.0,2.0,1.0,1.0,1.0,341.3432840000041,1.0,1.0,phase_1,,,,,,,,,,,,,orange,triangle
315.0,6.0,1.0,1.0,4.0,4.0,370.2354409999771,1.0,1.0,phase_1,,,,,,,,,,,,,blue,cross
0.0,6.0,0.0,1.0,3.0,3.0,350.7526260000304,1.0,1.0,phase_1,,,,,,,,,,,,,blue,cross
150.0,5.0,0.5,1.0,1.0,1.0,305.1499810001132,1.0,1.0,phase_1,,,,,,,,,,,,,yellow,square
149.0,5.0,0.5,1.0,2.0,2.0,433.8219290000324,1.0,1.0,phase_1,,,,,,,,,,,,,yellow,square
307.0,2.0,1.0,0.0,4.0,4.0,315.0194610000199,1.0,1.0,phase_1,,,,,,,,,,,,,gray,diamond
0.0,2.0,0.0,0.0,2.0,2.0,269.7147930000483,1.0,1.0,phase_1,,,,,,,,,,,,,gray,diamond
661.0,7.0,2.0,1.0,1.0,1.0,324.9073969998335,1.0,1.0,phase_1,,,,,,,,,,,,,orange,triangle
1303.0,8.0,4.0,1.0,4.0,4.0,500.08628800014776,1.0,1.0,phase_1,,,,,,,,,,,,,white,I
173.0,1.0,0.5,0.0,4.0,4.0,462.3858810000456,1.0,1.0,phase_1,,,,,,,,,,,,,magenta,circle
0.0,7.0,0.0,1.0,3.0,3.0,379.2111909999676,1.0,1.0,phase_1,,,,,,,,,,,,,orange,triangle
665.0,7.0,2.0,1.0,1.0,1.0,397.1448419999888,1.0,2.0,phase_1,,,,,,,,,,,,,orange,triangle
1301.0,4.0,4.0,0.0,3.0,3.0,341.4306710001256,1.0,1.0,phase_1,,,,,,,,,,,,,green,flipped triangle
667.0,3.0,2.0,0.0,4.0,4.0,416.8064929999673,1.0,1.0,phase_1,,,,,,,,,,,,,cyan,hexagon
1318.0,4.0,4.0,0.0,3.0,3.0,343.5002660000918,1.0,1.0,phase_1,,,,,,,,,,,,,green,flipped triangle
638.0,7.0,2.0,1.0,4.0,4.0,416.0451150000881,1.0,1.0,phase_1,,,,,,,,,,,,,orange,triangle
0.0,4.0,0.0,0.0,4.0,4.0,398.8105109999651,1.0,1.0,phase_1,,,,,,,,,,,,,green,flipped triangle
668.0,3.0,2.0,0.0,3.0,3.0,341.4983580000807,1.0,1.0,phase_1,,,,,,,,,,,,,cyan,hexagon
636.0,7.0,2.0,1.0,3.0,3.0,341.9093879999764,1.0,1.0,phase_1,,,,,,,,,,,,,orange,triangle
670.0,7.0,2.0,1.0,3.0,3.0,360.3400330000568,1.0,1.0,phase_1,,,,,,,,,,,,,orange,triangle
151.0,1.0,0.5,0.0,2.0,2.0,306.5492369998992,1.0,2.0,phase_1,,,,,,,,,,,,,magenta,circle
636.0,7.0,2.0,1.0,4.0,4.0,379.8512690000279,1.0,1.0,phase_1,,,,,,,,,,,,,orange,triangle
141.0,5.0,0.5,1.0,4.0,4.0,480.3784759999416,1.0,1.0,phase_1,,,,,,,,,,,,,yellow,square
636.0,3.0,2.0,0.0,1.0,1.0,563.2744619999812,1.0,1.0,phase_1,,,,,,,,,,,,,cyan,hexagon
336.0,6.0,1.0,1.0,2.0,2.0,434.1099109999504,1.0,1.0,phase_1,,,,,,,,,,,,,blue,cross
673.0,3.0,2.0,0.0,3.0,3.0,341.167304999999,1.0,1.0,phase_1,,,,,,,,,,,,,cyan,hexagon
654.0,3.0,2.0,0.0,1.0,1.0,414.960001000054,1.0,1.0,phase_1,,,,,,,,,,,,,cyan,hexagon
0.0,3.0,0.0,0.0,1.0,1.0,526.74713600004,1.0,1.0,phase_1,,,,,,,,,,,,,cyan,hexagon
324.0,6.0,1.0,1.0,3.0,3.0,361.5270709999549,1.0,1.0,phase_1,,,,,,,,,,,,,blue,cross
338.0,2.0,1.0,0.0,1.0,1.0,369.9910679999902,1.0,1.0,phase_1,,,,,,,,,,,,,gray,diamond
634.0,3.0,2.0,0.0,2.0,2.0,260.7726209998873,1.0,2.0,phase_1,,,,,,,,,,,,,cyan,hexagon
657.0,3.0,2.0,0.0,4.0,4.0,390.33506700002357,1.0,1.0,phase_1,,,,,,,,,,,,,cyan,hexagon
336.0,2.0,1.0,0.0,4.0,4.0,488.918257000023,1.0,1.0,phase_1,,,,,,,,,,,,,gray,diamond
176.0,1.0,0.5,0.0,3.0,3.0,442.6111739999214,1.0,1.0,phase_1,,,,,,,,,,,,,magenta,circle
653.0,3.0,2.0,0.0,2.0,2.0,389.7385279999525,1.0,1.0,phase_1,,,,,,,,,,,,,cyan,hexagon
321.0,2.0,1.0,0.0,1.0,1.0,621.9684829998187,1.0,1.0,phase_1,,,,,,,,,,,,,gray,diamond
656.0,7.0,2.0,1.0,2.0,2.0,452.3140999999668,1.0,1.0,phase_1,,,,,,,,,,,,,orange,triangle
169.0,1.0,0.5,0.0,4.0,4.0,416.536767000025,1.0,1.0,phase_1,,,,,,,,,,,,,magenta,circle
669.0,7.0,2.0,1.0,3.0,3.0,424.6128729998872,1.0,1.0,phase_1,,,,,,,,,,,,,orange,triangle
1312.0,4.0,4.0,0.0,4.0,4.0,608.3930469999359,1.0,1.0,phase_1,,,,,,,,,,,,,green,flipped triangle
330.0,2.0,1.0,0.0,2.0,2.0,534.2391040001075,1.0,1.0,phase_1,,,,,,,,,,,,,gray,diamond
0.0,8.0,0.0,1.0,1.0,1.0,711.3531669999702,1.0,1.0,phase_1,,,,,,,,,,,,,white,I
1316.0,8.0,4.0,1.0,2.0,2.0,386.7898839998815,1.0,1.0,phase_1,,,,,,,,,,,,,white,I
661.0,3.0,2.0,0.0,1.0,1.0,453.4757470000841,1.0,1.0,phase_1,,,,,,,,,,,,,cyan,hexagon
307.0,6.0,1.0,1.0,3.0,3.0,346.0975129999042,1.0,1.0,phase_1,,,,,,,,,,,,,blue,cross
1290.0,8.0,4.0,1.0,4.0,4.0,351.0657229999196,1.0,1.0,phase_1,,,,,,,,,,,,,white,I
0.0,6.0,0.0,1.0,2.0,2.0,268.5534430002008,1.0,1.0,phase_1,,,,,,,,,,,,,blue,cross
1292.0,4.0,4.0,0.0,1.0,1.0,296.6510520000156,1.0,2.0,phase_1,,,,,,,,,,,,,green,flipped triangle
325.0,6.0,1.0,1.0,1.0,1.0,454.7646749999785,1.0,1.0,phase_1,,,,,,,,,,,,,blue,cross
649.0,3.0,2.0,0.0,1.0,1.0,417.3736699999608,1.0,1.0,phase_1,,,,,,,,,,,,,cyan,hexagon
0.0,5.0,0.0,1.0,1.0,1.0,398.6316129999068,1.0,1.0,phase_1,,,,,,,,,,,,,yellow,square
0.0,2.0,0.0,0.0,3.0,3.0,380.3801900000962,1.0,1.0,phase_1,,,,,,,,,,,,,gray,diamond
326.0,2.0,1.0,0.0,1.0,1.0,407.0100339999953,1.0,1.0,phase_1,,,,,,,,,,,,,gray,diamond
168.0,1.0,0.5,0.0,2.0,2.0,683.5378860000674,1.0,1.0,phase_1,,,,,,,,,,,,,magenta,circle
339.0,2.0,1.0,0.0,3.0,3.0,655.3943640001307,1.0,1.0,phase_1,,,,,,,,,,,,,gray,diamond
658.0,7.0,2.0,1.0,4.0,4.0,518.097963000173,1.0,1.0,phase_1,,,,,,,,,,,,,orange,triangle
630.0,7.0,2.0,1.0,3.0,3.0,472.6330359999338,1.0,1.0,phase_1,,,,,,,,,,,,,orange,triangle
158.0,1.0,0.5,0.0,3.0,3.0,369.662789999893,1.0,1.0,phase_1,,,,,,,,,,,,,magenta,circle
0.0,7.0,0.0,1.0,1.0,1.0,491.3518010002917,1.0,1.0,phase_1,,,,,,,,,,,,,orange,triangle
157.0,1.0,0.5,0.0,4.0,4.0,434.9605279999196,1.0,1.0,phase_1,,,,,,,,,,,,,magenta,circle
1293.0,8.0,4.0,1.0,1.0,1.0,594.2633999998179,1.0,1.0,phase_1,,,,,,,,,,,,,white,I
346.0,6.0,1.0,1.0,1.0,1.0,545.8791810001458,1.0,1.0,phase_1,,,,,,,,,,,,,blue,cross
344.0,2.0,1.0,0.0,3.0,3.0,472.6910499998666,2.0,1.0,phase_1,,,,,,,,,,,,,gray,diamond
630.0,3.0,2.0,0.0,2.0,2.0,343.2750599999963,2.0,1.0,phase_1,,,,,,,,,,,,,cyan,hexagon
178.0,5.0,0.5,1.0,4.0,4.0,419.1138699998191,2.0,1.0,phase_1,,,,,,,,,,,,,yellow,square
0.0,4.0,0.0,0.0,4.0,4.0,554.1650509999272,2.0,1.0,phase_1,,,,,,,,,,,,,green,flipped triangle
661.0,3.0,2.0,0.0,1.0,1.0,333.1796389998089,2.0,1.0,phase_1,,,,,,,,,,,,,cyan,hexagon
176.0,5.0,0.5,1.0,3.0,3.0,342.7643199997874,2.0,1.0,phase_1,,,,,,,,,,,,,yellow,square
155.0,1.0,0.5,0.0,4.0,4.0,502.0101820000491,2.0,1.0,phase_1,,,,,,,,,,,,,magenta,circle
155.0,5.0,0.5,1.0,3.0,3.0,472.0027220000702,2.0,1.0,phase_1,,,,,,,,,,,,,yellow,square
647.0,3.0,2.0,0.0,3.0,3.0,407.7163490001112,2.0,1.0,phase_1,,,,,,,,,,,,,cyan,hexagon
1301.0,8.0,4.0,1.0,2.0,2.0,590.9962769997037,2.0,1.0,phase_1,,,,,,,,,,,,,white,I
0.0,1.0,0.0,0.0,4.0,4.0,434.011787000145,2.0,1.0,phase_1,,,,,,,,,,,,,magenta,circle
1299.0,4.0,4.0,0.0,4.0,4.0,424.3771159999596,2.0,1.0,phase_1,,,,,,,,,,,,,green,flipped triangle
0.0,7.0,0.0,1.0,1.0,1.0,425.5050449996815,2.0,1.0,phase_1,,,,,,,,,,,,,orange,triangle
0.0,6.0,0.0,1.0,1.0,1.0,555.2306129998215,2.0,1.0,phase_1,,,,,,,,,,,,,blue,cross
172.0,1.0,0.5,0.0,4.0,4.0,508.279759999823,2.0,1.0,phase_1,,,,,,,,,,,,,magenta,circle
0.0,7.0,0.0,1.0,3.0,3.0,435.1261990000239,2.0,1.0,phase_1,,,,,,,,,,,,,orange,triangle
1318.0,8.0,4.0,1.0,3.0,3.0,387.4000450000494,2.0,1.0,phase_1,,,,,,,,,,,,,white,I
634.0,7.0,2.0,1.0,2.0,2.0,454.0756090000286,2.0,1.0,phase_1,,,,,,,,,,,,,orange,triangle
1290.0,4.0,4.0,0.0,4.0,4.0,404.8305430001164,2.0,1.0,phase_1,,,,,,,,,,,,,green,flipped triangle
304.0,6.0,1.0,1.0,4.0,4.0,423.9581649999309,2.0,1.0,phase_1,,,,,,,,,,,,,blue,cross
649.0,3.0,2.0,0.0,4.0,4.0,426.2139590000515,2.0,1.0,phase_1,,,,,,,,,,,,,cyan,hexagon
147.0,5.0,0.5,1.0,4.0,4.0,406.7466079995938,2.0,1.0,phase_1,,,,,,,,,,,,,yellow,square
301.0,6.0,1.0,1.0,3.0,3.0,304.172424999706,2.0,1.0,phase_1,,,,,,,,,,,,,blue,cross
320.0,2.0,1.0,0.0,3.0,3.0,342.1963129999312,2.0,1.0,phase_1,,,,,,,,,,,,,gray,diamond
173.0,1.0,0.5,0.0,2.0,2.0,436.1332150001544,2.0,1.0,phase_1,,,,,,,,,,,,,magenta,circle
149.0,1.0,0.5,0.0,1.0,1.0,719.7561709999718,2.0,1.0,phase_1,,,,,,,,,,,,,magenta,circle
144.0,5.0,0.5,1.0,2.0,2.0,371.9705079997766,2.0,1.0,phase_1,,,,,,,,,,,,,yellow,square
0.0,3.0,0.0,0.0,2.0,2.0,351.1313519998111,2.0,1.0,phase_1,,,,,,,,,,,,,cyan,hexagon
0.0,5.0,0.0,1.0,3.0,3.0,313.7054119997629,2.0,1.0,phase_1,,,,,,,,,,,,,yellow,square
1279.0,4.0,4.0,0.0,3.0,3.0,408.8493600002039,2.0,1.0,phase_1,,,,,,,,,,,,,green,flipped triangle
307.0,2.0,1.0,0.0,2.0,2.0,465.3602849998606,2.0,1.0,phase_1,,,,,,,,,,,,,gray,diamond
1312.0,8.0,4.0,1.0,3.0,3.0,343.8676420000774,2.0,1.0,phase_1,,,,,,,,,,,,,white,I
1302.0,8.0,4.0,1.0,1.0,1.0,609.2686639999556,2.0,1.0,phase_1,,,,,,,,,,,,,white,I
1284.0,8.0,4.0,1.0,2.0,2.0,388.232847999916,2.0,1.0,phase_1,,,,,,,,,,,,,white,I
314.0,6.0,1.0,1.0,4.0,4.0,481.5900290000172,2.0,1.0,phase_1,,,,,,,,,,,,,blue,cross
184.0,1.0,0.5,0.0,1.0,1.0,388.3284389999062,2.0,1.0,phase_1,,,,,,,,,,,,,magenta,circle
315.0,2.0,1.0,0.0,2.0,2.0,287.8664360000584,2.0,1.0,phase_1,,,,,,,,,,,,,gray,diamond
150.0,1.0,0.5,0.0,3.0,3.0,305.0939869999638,2.0,1.0,phase_1,,,,,,,,,,,,,magenta,circle
301.0,2.0,1.0,0.0,3.0,3.0,166.4753720001499,2.0,2.0,phase_1,,,,,,,,,,,,,gray,diamond
1299.0,8.0,4.0,1.0,4.0,4.0,444.6223089998966,2.0,1.0,phase_1,,,,,,,,,,,,,white,I
660.0,3.0,2.0,0.0,3.0,3.0,360.8940399999483,2.0,1.0,phase_1,,,,,,,,,,,,,cyan,hexagon
642.0,7.0,2.0,1.0,1.0,1.0,277.2915410000678,2.0,1.0,phase_1,,,,,,,,,,,,,orange,triangle
0.0,4.0,0.0,0.0,3.0,3.0,342.2740910000357,2.0,1.0,phase_1,,,,,,,,,,,,,green,flipped triangle
0.0,2.0,0.0,0.0,4.0,4.0,417.44748300016,2.0,1.0,phase_1,,,,,,,,,,,,,gray,diamond
348.0,6.0,1.0,1.0,2.0,2.0,267.4980000001596,2.0,2.0,phase_1,,,,,,,,,,,,,blue,cross
325.0,2.0,1.0,0.0,2.0,2.0,387.1454649997758,2.0,1.0,phase_1,,,,,,,,,,,,,gray,diamond
1297.0,4.0,4.0,0.0,1.0,1.0,702.1408659998087,2.0,1.0,phase_1,,,,,,,,,,,,,green,flipped triangle
345.0,2.0,1.0,0.0,4.0,4.0,442.8051300001243,2.0,1.0,phase_1,,,,,,,,,,,,,gray,diamond
161.0,5.0,0.5,1.0,1.0,1.0,590.6054959996254,2.0,1.0,phase_1,,,,,,,,,,,,,yellow,square
348.0,6.0,1.0,1.0,3.0,3.0,406.229003000135,2.0,1.0,phase_1,,,,,,,,,,,,,blue,cross
631.0,7.0,2.0,1.0,2.0,2.0,507.56290499975876,2.0,1.0,phase_1,,,,,,,,,,,,,orange,triangle
0.0,2.0,0.0,0.0,4.0,4.0,461.1869840000508,2.0,1.0,phase_1,,,,,,,,,,,,,gray,diamond
0.0,6.0,0.0,1.0,3.0,3.0,414.8578559997986,2.0,1.0,phase_1,,,,,,,,,,,,,blue,cross
1291.0,4.0,4.0,0.0,3.0,3.0,398.0851050000638,2.0,1.0,phase_1,,,,,,,,,,,,,green,flipped triangle
625.0,7.0,2.0,1.0,4.0,4.0,461.1977109998406,2.0,1.0,phase_1,,,,,,,,,,,,,orange,triangle
302.0,6.0,1.0,1.0,1.0,1.0,488.802036999914,2.0,1.0,phase_1,,,,,,,,,,,,,blue,cross
654.0,7.0,2.0,1.0,1.0,1.0,405.9752280004431,2.0,1.0,phase_1,,,,,,,,,,,,,orange,triangle
637.0,7.0,2.0,1.0,4.0,4.0,450.9344719999717,2.0,1.0,phase_1,,,,,,,,,,,,,orange,triangle
0.0,8.0,0.0,1.0,1.0,1.0,487.0192329999554,2.0,1.0,phase_1,,,,,,,,,,,,,white,I
174.0,5.0,0.5,1.0,3.0,3.0,370.9341859998858,2.0,1.0,phase_1,,,,,,,,,,,,,yellow,square
0.0,1.0,0.0,0.0,3.0,3.0,426.1641670000244,2.0,1.0,phase_1,,,,,,,,,,,,,magenta,circle
183.0,1.0,0.5,0.0,3.0,3.0,443.7812500000291,2.0,1.0,phase_1,,,,,,,,,,,,,magenta,circle
670.0,3.0,2.0,0.0,1.0,1.0,553.6749030002284,2.0,1.0,phase_1,,,,,,,,,,,,,cyan,hexagon
1310.0,4.0,4.0,0.0,2.0,2.0,425.7371910002803,2.0,1.0,phase_1,,,,,,,,,,,,,green,flipped triangle
670.0,7.0,2.0,1.0,2.0,2.0,388.3995349997349,2.0,1.0,phase_1,,,,,,,,,,,,,orange,triangle
1324.0,4.0,4.0,0.0,1.0,1.0,472.8143699999236,2.0,1.0,phase_1,,,,,,,,,,,,,green,flipped triangle
150.0,5.0,0.5,1.0,2.0,2.0,582.1663860001536,2.0,1.0,phase_1,,,,,,,,,,,,,yellow,square
647.0,7.0,2.0,1.0,3.0,3.0,434.3130130000645,2.0,1.0,phase_1,,,,,,,,,,,,,orange,triangle
653.0,7.0,2.0,1.0,2.0,2.0,259.2121009997754,2.0,2.0,phase_1,,,,,,,,,,,,,orange,triangle
0.0,5.0,0.0,1.0,2.0,2.0,334.0373350001755,2.0,1.0,phase_1,,,,,,,,,,,,,yellow,square
331.0,6.0,1.0,1.0,3.0,3.0,497.5419630000033,2.0,1.0,phase_1,,,,,,,,,,,,,blue,cross
150.0,1.0,0.5,0.0,2.0,2.0,544.6872150000672,2.0,1.0,phase_1,,,,,,,,,,,,,magenta,circle
660.0,7.0,2.0,1.0,3.0,3.0,397.7486000003409,2.0,1.0,phase_1,,,,,,,,,,,,,orange,triangle
0.0,1.0,0.0,0.0,4.0,4.0,617.5603370002136,2.0,1.0,phase_1,,,,,,,,,,,,,magenta,circle
1311.0,8.0,4.0,1.0,1.0,1.0,444.1023889999087,2.0,1.0,phase_1,,,,,,,,,,,,,white,I
182.0,1.0,0.5,0.0,3.0,3.0,406.4242439999361,2.0,1.0,phase_1,,,,,,,,,,,,,magenta,circle
157.0,1.0,0.5,0.0,3.0,3.0,436.5548799996759,2.0,1.0,phase_1,,,,,,,,,,,,,magenta,circle
166.0,1.0,0.5,0.0,2.0,2.0,442.7495209997687,2.0,1.0,phase_1,,,,,,,,,,,,,magenta,circle
1291.0,8.0,4.0,1.0,3.0,3.0,379.5003999998698,2.0,1.0,phase_1,,,,,,,,,,,,,white,I
1309.0,8.0,4.0,1.0,2.0,2.0,509.6090510000977,2.0,1.0,phase_1,,,,,,,,,,,,,white,I
661.0,7.0,2.0,1.0,2.0,2.0,536.9573739999396,2.0,1.0,phase_1,,,,,,,,,,,,,orange,triangle
162.0,1.0,0.5,0.0,1.0,1.0,674.3484329999774,2.0,1.0,phase_1,,,,,,,,,,,,,magenta,circle
345.0,6.0,1.0,1.0,3.0,3.0,389.1104300000734,2.0,1.0,phase_1,,,,,,,,,,,,,blue,cross
0.0,4.0,0.0,0.0,2.0,2.0,398.5401210002237,2.0,1.0,phase_1,,,,,,,,,,,,,green,flipped triangle
1293.0,4.0,4.0,0.0,2.0,2.0,398.5697560001426,2.0,1.0,phase_1,,,,,,,,,,,,,green,flipped triangle
186.0,5.0,0.5,1.0,2.0,2.0,470.7807499999035,2.0,1.0,phase_1,,,,,,,,,,,,,yellow,square
144.0,1.0,0.5,0.0,3.0,3.0,361.1311690001457,2.0,1.0,phase_1,,,,,,,,,,,,,magenta,circle
0.0,2.0,0.0,0.0,1.0,1.0,600.1553149999381,2.0,1.0,phase_1,,,,,,,,,,,,,gray,diamond
173.0,5.0,0.5,1.0,3.0,3.0,388.349289999951,2.0,1.0,phase_1,,,,,,,,,,,,,yellow,square
157.0,5.0,0.5,1.0,3.0,3.0,359.9146769997787,2.0,1.0,phase_1,,,,,,,,,,,,,yellow,square
630.0,7.0,2.0,1.0,3.0,3.0,361.4027990001887,2.0,1.0,phase_1,,,,,,,,,,,,,orange,triangle
0.0,8.0,0.0,1.0,2.0,2.0,377.4406329998783,2.0,1.0,phase_1,,,,,,,,,,,,,white,I
141.0,1.0,0.5,0.0,3.0,3.0,434.2029019999245,2.0,1.0,phase_1,,,,,,,,,,,,,magenta,circle
154.0,5.0,0.5,1.0,1.0,1.0,534.5007050000277,2.0,1.0,phase_1,,,,,,,,,,,,,yellow,square
348.0,2.0,1.0,0.0,1.0,1.0,460.935277000317,2.0,1.0,phase_1,,,,,,,,,,,,,gray,diamond
151.0,1.0,0.5,0.0,3.0,3.0,377.4931869997999,2.0,1.0,phase_1,,,,,,,,,,,,,magenta,circle
345.0,6.0,1.0,1.0,1.0,1.0,452.3872609997852,2.0,1.0,phase_1,,,,,,,,,,,,,blue,cross
647.0,3.0,2.0,0.0,4.0,4.0,619.6772549997149,2.0,1.0,phase_1,,,,,,,,,,,,,cyan,hexagon
178.0,5.0,0.5,1.0,1.0,1.0,536.6655380003067,2.0,1.0,phase_1,,,,,,,,,,,,,yellow,square
1287.0,8.0,4.0,1.0,4.0,4.0,443.237025000144,2.0,1.0,phase_1,,,,,,,,,,,,,white,I
1301.0,8.0,4.0,1.0,3.0,3.0,406.4695470001425,3.0,1.0,phase_1,,,,,,,,,,,,,white,I
163.0,1.0,0.5,0.0,4.0,4.0,490.8947899998566,3.0,1.0,phase_1,,,,,,,,,,,,,magenta,circle
169.0,5.0,0.5,1.0,2.0,2.0,499.076124000112,3.0,1.0,phase_1,,,,,,,,,,,,,yellow,square
1276.0,8.0,4.0,1.0,3.0,3.0,406.7309899996871,3.0,1.0,phase_1,,,,,,,,,,,,,white,I
174.0,5.0,0.5,1.0,2.0,2.0,424.5726649996868,3.0,1.0,phase_1,,,,,,,,,,,,,yellow,square
327.0,6.0,1.0,1.0,4.0,4.0,379.8208170001089,3.0,1.0,phase_1,,,,,,,,,,,,,blue,cross
185.0,1.0,0.5,0.0,2.0,2.0,360.1810909999585,3.0,1.0,phase_1,,,,,,,,,,,,,magenta,circle
0.0,4.0,0.0,0.0,2.0,2.0,418.2487220000439,3.0,1.0,phase_1,,,,,,,,,,,,,green,flipped triangle
0.0,8.0,0.0,1.0,3.0,3.0,379.2437070001142,3.0,1.0,phase_1,,,,,,,,,,,,,white,I
1308.0,4.0,4.0,0.0,4.0,4.0,482.1136579998892,3.0,1.0,phase_1,,,,,,,,,,,,,green,flipped triangle
0.0,1.0,0.0,0.0,2.0,2.0,425.2858949998881,3.0,1.0,phase_1,,,,,,,,,,,,,magenta,circle
302.0,6.0,1.0,1.0,4.0,4.0,444.7970559999703,3.0,1.0,phase_1,,,,,,,,,,,,,blue,cross
656.0,3.0,2.0,0.0,3.0,3.0,378.8321909996739,3.0,1.0,phase_1,,,,,,,,,,,,,cyan,hexagon
162.0,1.0,0.5,0.0,3.0,3.0,406.6368769999826,3.0,1.0,phase_1,,,,,,,,,,,,,magenta,circle
0.0,2.0,0.0,0.0,2.0,2.0,407.024986000124,3.0,1.0,phase_1,,,,,,,,,,,,,gray,diamond
326.0,6.0,1.0,1.0,1.0,1.0,536.9259220001368,3.0,2.0,phase_1,,,,,,,,,,,,,blue,cross
141.0,5.0,0.5,1.0,1.0,1.0,428.2339490000595,3.0,1.0,phase_1,,,,,,,,,,,,,yellow,square
1316.0,4.0,4.0,0.0,2.0,2.0,408.6937940001007,3.0,1.0,phase_1,,,,,,,,,,,,,green,flipped triangle
661.0,3.0,2.0,0.0,1.0,1.0,647.0617189997938,3.0,1.0,phase_1,,,,,,,,,,,,,cyan,hexagon
651.0,3.0,2.0,0.0,1.0,1.0,657.6799409999694,3.0,1.0,phase_1,,,,,,,,,,,,,cyan,hexagon
0.0,8.0,0.0,1.0,2.0,2.0,629.4386599997779,3.0,1.0,phase_1,,,,,,,,,,,,,white,I
0.0,3.0,0.0,0.0,2.0,2.0,397.7399230002447,3.0,1.0,phase_1,,,,,,,,,,,,,cyan,hexagon
0.0,8.0,0.0,1.0,2.0,2.0,442.4608700001045,3.0,1.0,phase_1,,,,,,,,,,,,,white,I
327.0,2.0,1.0,0.0,3.0,3.0,388.4716930001559,3.0,1.0,phase_1,,,,,,,,,,,,,gray,diamond
1282.0,8.0,4.0,1.0,2.0,2.0,428.6179769997034,3.0,1.0,phase_1,,,,,,,,,,,,,white,I
0.0,8.0,0.0,1.0,2.0,2.0,471.1238029999549,3.0,1.0,phase_1,,,,,,,,,,,,,white,I
669.0,3.0,2.0,0.0,1.0,1.0,770.0193879995822,3.0,1.0,phase_1,,,,,,,,,,,,,cyan,hexagon
155.0,5.0,0.5,1.0,1.0,1.0,445.1482510003188,3.0,1.0,phase_1,,,,,,,,,,,,,yellow,square
0.0,4.0,0.0,0.0,4.0,4.0,583.8632439999856,3.0,1.0,phase_1,,,,,,,,,,,,,green,flipped triangle
1276.0,4.0,4.0,0.0,4.0,4.0,549.282901999959,3.0,1.0,phase_1,,,,,,,,,,,,,green,flipped triangle
1286.0,4.0,4.0,0.0,3.0,3.0,407.7952289999302,3.0,1.0,phase_1,,,,,,,,,,,,,green,flipped triangle
0.0,1.0,0.0,0.0,3.0,3.0,399.7572080002101,3.0,1.0,phase_1,,,,,,,,,,,,,magenta,circle
665.0,3.0,2.0,0.0,3.0,3.0,398.2428839999556,3.0,1.0,phase_1,,,,,,,,,,,,,cyan,hexagon
640.0,7.0,2.0,1.0,4.0,4.0,453.2774280000922,3.0,1.0,phase_1,,,,,,,,,,,,,orange,triangle
337.0,6.0,1.0,1.0,4.0,4.0,463.2456659996933,3.0,1.0,phase_1,,,,,,,,,,,,,blue,cross
1324.0,8.0,4.0,1.0,2.0,2.0,433.5885420000522,3.0,1.0,phase_1,,,,,,,,,,,,,white,I
0.0,6.0,0.0,1.0,1.0,1.0,536.2145149997559,3.0,1.0,phase_1,,,,,,,,,,,,,blue,cross
630.0,3.0,2.0,0.0,3.0,3.0,381.5864109997164,3.0,1.0,phase_1,,,,,,,,,,,,,cyan,hexagon
1287.0,4.0,4.0,0.0,1.0,1.0,408.8978219997443,3.0,1.0,phase_1,,,,,,,,,,,,,green,flipped triangle
302.0,2.0,1.0,0.0,4.0,4.0,544.9982089999139,3.0,1.0,phase_1,,,,,,,,,,,,,gray,diamond
666.0,7.0,2.0,1.0,2.0,2.0,333.2817410000643,3.0,1.0,phase_1,,,,,,,,,,,,,orange,triangle
0.0,7.0,0.0,1.0,2.0,2.0,426.3177950001591,3.0,1.0,phase_1,,,,,,,,,,,,,orange,triangle
1287.0,8.0,4.0,1.0,3.0,3.0,424.9588949996905,3.0,1.0,phase_1,,,,,,,,,,,,,white,I
628.0,7.0,2.0,1.0,1.0,1.0,433.55743300026,3.0,1.0,phase_1,,,,,,,,,,,,,orange,triangle
1281.0,4.0,4.0,0.0,4.0,4.0,491.3132930000756,3.0,1.0,phase_1,,,,,,,,,,,,,green,flipped triangle
651.0,7.0,2.0,1.0,4.0,4.0,575.2920719996837,3.0,1.0,phase_1,,,,,,,,,,,,,orange,triangle
0.0,4.0,0.0,0.0,1.0,1.0,553.5838269997839,3.0,1.0,phase_1,,,,,,,,,,,,,green,flipped triangle
0.0,4.0,0.0,0.0,1.0,1.0,639.1191190000427,3.0,1.0,phase_1,,,,,,,,,,,,,green,flipped triangle
344.0,6.0,1.0,1.0,4.0,4.0,517.3283190001712,3.0,1.0,phase_1,,,,,,,,,,,,,blue,cross
345.0,2.0,1.0,0.0,2.0,2.0,397.5459249995765,3.0,1.0,phase_1,,,,,,,,,,,,,gray,diamond
1290.0,8.0,4.0,1.0,1.0,1.0,536.1466010003824,3.0,1.0,phase_1,,,,,,,,,,,,,white,I
649.0,7.0,2.0,1.0,4.0,4.0,508.560290999867,3.0,1.0,phase_1,,,,,,,,,,,,,orange,triangle
0.0,7.0,0.0,1.0,4.0,4.0,556.2582360003034,3.0,1.0,phase_1,,,,,,,,,,,,,orange,triangle
673.0,7.0,2.0,1.0,4.0,4.0,463.4049720002622,3.0,1.0,phase_1,,,,,,,,,,,,,orange,triangle
1318.0,8.0,4.0,1.0,1.0,1.0,517.3370130000876,3.0,1.0,phase_1,,,,,,,,,,,,,white,I
640.0,3.0,2.0,0.0,3.0,3.0,399.5324359998449,3.0,1.0,phase_1,,,,,,,,,,,,,cyan,hexagon
0.0,3.0,0.0,0.0,4.0,4.0,426.0421659996609,3.0,1.0,phase_1,,,,,,,,,,,,,cyan,hexagon
337.0,2.0,1.0,0.0,1.0,1.0,470.5792740001016,3.0,1.0,phase_1,,,,,,,,,,,,,gray,diamond
637.0,3.0,2.0,0.0,2.0,2.0,405.9815669997988,3.0,1.0,phase_1,,,,,,,,,,,,,cyan,hexagon
0.0,3.0,0.0,0.0,4.0,4.0,364.3015190000369,3.0,1.0,phase_1,,,,,,,,,,,,,cyan,hexagon
648.0,7.0,2.0,1.0,4.0,4.0,444.8580219996074,3.0,1.0,phase_1,,,,,,,,,,,,,orange,triangle
1308.0,8.0,4.0,1.0,4.0,4.0,479.9701649999406,3.0,1.0,phase_1,,,,,,,,,,,,,white,I
155.0,1.0,0.5,0.0,2.0,2.0,426.3998840001477,3.0,1.0,phase_1,,,,,,,,,,,,,magenta,circle
668.0,7.0,2.0,1.0,2.0,2.0,424.9633039999025,3.0,1.0,phase_1,,,,,,,,,,,,,orange,triangle
321.0,6.0,1.0,1.0,2.0,2.0,379.6391010000661,3.0,1.0,phase_1,,,,,,,,,,,,,blue,cross
166.0,5.0,0.5,1.0,1.0,1.0,304.6848349999891,3.0,2.0,phase_1,,,,,,,,,,,,,yellow,square
1287.0,4.0,4.0,0.0,2.0,2.0,490.3376339998431,3.0,1.0,phase_1,,,,,,,,,,,,,green,flipped triangle
629.0,7.0,2.0,1.0,3.0,3.0,443.9253719997396,3.0,1.0,phase_1,,,,,,,,,,,,,orange,triangle
302.0,2.0,1.0,0.0,1.0,1.0,467.849414000284,3.0,1.0,phase_1,,,,,,,,,,,,,gray,diamond
139.0,5.0,0.5,1.0,4.0,4.0,481.3089260001106,3.0,1.0,phase_1,,,,,,,,,,,,,yellow,square
161.0,1.0,0.5,0.0,4.0,4.0,443.6325550000219,3.0,1.0,phase_1,,,,,,,,,,,,,magenta,circle
0.0,2.0,0.0,0.0,3.0,3.0,435.87175499988,3.0,1.0,phase_1,,,,,,,,,,,,,gray,diamond
317.0,2.0,1.0,0.0,2.0,2.0,553.9821540000958,3.0,1.0,phase_1,,,,,,,,,,,,,gray,diamond
0.0,4.0,0.0,0.0,3.0,3.0,461.6031159998783,3.0,1.0,phase_1,,,,,,,,,,,,,green,flipped triangle
178.0,1.0,0.5,0.0,2.0,2.0,454.352450999977,3.0,1.0,phase_1,,,,,,,,,,,,,magenta,circle
139.0,1.0,0.5,0.0,1.0,1.0,620.314308000161,3.0,1.0,phase_1,,,,,,,,,,,,,magenta,circle
320.0,6.0,1.0,1.0,2.0,2.0,416.3462110000182,3.0,1.0,phase_1,,,,,,,,,,,,,blue,cross
0.0,5.0,0.0,1.0,4.0,4.0,517.8037289997519,3.0,1.0,phase_1,,,,,,,,,,,,,yellow,square
1321.0,8.0,4.0,1.0,2.0,2.0,370.594729000004,3.0,1.0,phase_1,,,,,,,,,,,,,white,I
0.0,7.0,0.0,1.0,1.0,1.0,655.1425080001536,3.0,1.0,phase_1,,,,,,,,,,,,,orange,triangle
315.0,2.0,1.0,0.0,4.0,4.0,705.1507259998289,3.0,1.0,phase_1,,,,,,,,,,,,,gray,diamond
669.0,7.0,2.0,1.0,2.0,2.0,462.4138050003239,3.0,1.0,phase_1,,,,,,,,,,,,,orange,triangle
1281.0,8.0,4.0,1.0,3.0,3.0,424.6519959997386,3.0,1.0,phase_1,,,,,,,,,,,,,white,I
1279.0,4.0,4.0,0.0,4.0,4.0,424.6923230002721,3.0,1.0,phase_1,,,,,,,,,,,,,green,flipped triangle
637.0,7.0,2.0,1.0,1.0,1.0,581.6197109998029,3.0,1.0,phase_1,,,,,,,,,,,,,orange,triangle
628.0,3.0,2.0,0.0,3.0,3.0,414.8131289998673,3.0,1.0,phase_1,,,,,,,,,,,,,cyan,hexagon
139.0,5.0,0.5,1.0,1.0,1.0,471.1085250000906,3.0,1.0,phase_1,,,,,,,,,,,,,yellow,square
647.0,7.0,2.0,1.0,1.0,1.0,415.0181859999975,3.0,1.0,phase_1,,,,,,,,,,,,,orange,triangle
1286.0,8.0,4.0,1.0,4.0,4.0,538.071521999882,3.0,1.0,phase_1,,,,,,,,,,,,,white,I
331.0,6.0,1.0,1.0,1.0,1.0,518.940738999845,3.0,1.0,phase_1,,,,,,,,,,,,,blue,cross
0.0,4.0,0.0,0.0,2.0,2.0,456.0317260002193,3.0,1.0,phase_1,,,,,,,,,,,,,green,flipped triangle
0.0,7.0,0.0,1.0,3.0,3.0,342.7839400001176,3.0,1.0,phase_1,,,,,,,,,,,,,orange,triangle
186.0,1.0,0.5,0.0,1.0,1.0,351.5622250001797,3.0,1.0,phase_1,,,,,,,,,,,,,magenta,circle
0.0,1.0,0.0,0.0,4.0,4.0,479.6612549998826,3.0,1.0,phase_1,,,,,,,,,,,,,magenta,circle
1279.0,8.0,4.0,1.0,2.0,2.0,241.073299999698,3.0,2.0,phase_1,,,,,,,,,,,,,white,I
178.0,1.0,0.5,0.0,4.0,4.0,443.9117040001292,3.0,1.0,phase_1,,,,,,,,,,,,,magenta,circle
315.0,6.0,1.0,1.0,1.0,1.0,433.9462360003381,3.0,1.0,phase_1,,,,,,,,,,,,,blue,cross
311.0,2.0,1.0,0.0,3.0,3.0,334.8666159999993,3.0,1.0,phase_1,,,,,,,,,,,,,gray,diamond
0.0,7.0,0.0,1.0,3.0,3.0,380.3154719998929,3.0,1.0,phase_1,,,,,,,,,,,,,orange,triangle
338.0,2.0,1.0,0.0,2.0,2.0,368.5834289999548,3.0,1.0,phase_1,,,,,,,,,,,,,gray,diamond
1309.0,4.0,4.0,0.0,1.0,1.0,388.987406999604,4.0,1.0,phase_1,,,,,,,,,,,,,green,flipped triangle
1303.0,4.0,4.0,0.0,3.0,3.0,360.2524739999353,4.0,1.0,phase_1,,,,,,,,,,,,,green,flipped triangle
340.0,2.0,1.0,0.0,1.0,1.0,407.7008049998767,4.0,1.0,phase_1,,,,,,,,,,,,,gray,diamond
0.0,2.0,0.0,0.0,4.0,4.0,408.01091000003,4.0,1.0,phase_1,,,,,,,,,,,,,gray,diamond
1315.0,4.0,4.0,0.0,4.0,4.0,221.644773999742,4.0,2.0,phase_1,,,,,,,,,,,,,green,flipped triangle
670.0,3.0,2.0,0.0,2.0,2.0,370.2569590000166,4.0,1.0,phase_1,,,,,,,,,,,,,cyan,hexagon
0.0,6.0,0.0,1.0,1.0,1.0,504.7548789998473,4.0,1.0,phase_1,,,,,,,,,,,,,blue,cross
0.0,5.0,0.0,1.0,4.0,4.0,499.106046000179,4.0,1.0,phase_1,,,,,,,,,,,,,yellow,square
0.0,6.0,0.0,1.0,3.0,3.0,416.0952580000412,4.0,1.0,phase_1,,,,,,,,,,,,,blue,cross
168.0,5.0,0.5,1.0,4.0,4.0,481.2026120002883,4.0,1.0,phase_1,,,,,,,,,,,,,yellow,square
1320.0,4.0,4.0,0.0,2.0,2.0,398.8221439999506,4.0,1.0,phase_1,,,,,,,,,,,,,green,flipped triangle
0.0,8.0,0.0,1.0,2.0,2.0,407.0874389999517,4.0,1.0,phase_1,,,,,,,,,,,,,white,I
638.0,3.0,2.0,0.0,4.0,4.0,416.2611700003253,4.0,1.0,phase_1,,,,,,,,,,,,,cyan,hexagon
184.0,5.0,0.5,1.0,2.0,2.0,516.443846999664,4.0,1.0,phase_1,,,,,,,,,,,,,yellow,square
346.0,6.0,1.0,1.0,1.0,1.0,407.5432260001435,4.0,1.0,phase_1,,,,,,,,,,,,,blue,cross
147.0,1.0,0.5,0.0,1.0,1.0,370.3710170002523,4.0,1.0,phase_1,,,,,,,,,,,,,magenta,circle
166.0,5.0,0.5,1.0,4.0,4.0,396.6148949998569,4.0,1.0,phase_1,,,,,,,,,,,,,yellow,square
142.0,5.0,0.5,1.0,3.0,3.0,379.3608319997474,4.0,1.0,phase_1,,,,,,,,,,,,,yellow,square
312.0,2.0,1.0,0.0,3.0,3.0,388.9312999999674,4.0,1.0,phase_1,,,,,,,,,,,,,gray,diamond
0.0,8.0,0.0,1.0,2.0,2.0,606.2846449999597,4.0,1.0,phase_1,,,,,,,,,,,,,white,I
304.0,2.0,1.0,0.0,4.0,4.0,437.8506800003379,4.0,1.0,phase_1,,,,,,,,,,,,,gray,diamond
163.0,5.0,0.5,1.0,3.0,3.0,372.2214250001343,4.0,1.0,phase_1,,,,,,,,,,,,,yellow,square
1317.0,8.0,4.0,1.0,4.0,4.0,417.2299299998485,4.0,1.0,phase_1,,,,,,,,,,,,,white,I
331.0,2.0,1.0,0.0,3.0,3.0,352.297536000151,4.0,1.0,phase_1,,,,,,,,,,,,,gray,diamond
0.0,1.0,0.0,0.0,3.0,3.0,444.3299910003588,4.0,1.0,phase_1,,,,,,,,,,,,,magenta,circle
0.0,6.0,0.0,1.0,2.0,2.0,389.9064209999778,4.0,1.0,phase_1,,,,,,,,,,,,,blue,cross
1292.0,8.0,4.0,1.0,4.0,4.0,466.957500999797,4.0,1.0,phase_1,,,,,,,,,,,,,white,I
1290.0,4.0,4.0,0.0,2.0,2.0,465.3050730003087,4.0,1.0,phase_1,,,,,,,,,,,,,green,flipped triangle
0.0,1.0,0.0,0.0,1.0,1.0,466.4487469999585,4.0,1.0,phase_1,,,,,,,,,,,,,magenta,circle
1306.0,4.0,4.0,0.0,2.0,2.0,425.1771680001184,4.0,1.0,phase_1,,,,,,,,,,,,,green,flipped triangle
311.0,6.0,1.0,1.0,4.0,4.0,379.167549000158,4.0,1.0,phase_1,,,,,,,,,,,,,blue,cross
1279.0,4.0,4.0,0.0,2.0,2.0,399.3120560003262,4.0,1.0,phase_1,,,,,,,,,,,,,green,flipped triangle
0.0,6.0,0.0,1.0,3.0,3.0,324.0178070000183,4.0,1.0,phase_1,,,,,,,,,,,,,blue,cross
305.0,2.0,1.0,0.0,1.0,1.0,386.1761870002738,4.0,1.0,phase_1,,,,,,,,,,,,,gray,diamond
1282.0,4.0,4.0,0.0,1.0,1.0,479.4929690001481,4.0,1.0,phase_1,,,,,,,,,,,,,green,flipped triangle
0.0,3.0,0.0,0.0,3.0,3.0,382.4933800001417,4.0,1.0,phase_1,,,,,,,,,,,,,cyan,hexagon
340.0,6.0,1.0,1.0,1.0,1.0,350.5160520003301,4.0,1.0,phase_1,,,,,,,,,,,,,blue,cross
0.0,5.0,0.0,1.0,2.0,2.0,389.8156669997661,4.0,1.0,phase_1,,,,,,,,,,,,,yellow,square
173.0,5.0,0.5,1.0,3.0,3.0,314.6186900003158,4.0,1.0,phase_1,,,,,,,,,,,,,yellow,square
0.0,3.0,0.0,0.0,2.0,2.0,370.409070000278,4.0,1.0,phase_1,,,,,,,,,,,,,cyan,hexagon
629.0,3.0,2.0,0.0,2.0,2.0,350.8391609998398,4.0,1.0,phase_1,,,,,,,,,,,,,cyan,hexagon
142.0,1.0,0.5,0.0,4.0,4.0,406.9940070003213,4.0,1.0,phase_1,,,,,,,,,,,,,magenta,circle
1301.0,4.0,4.0,0.0,1.0,1.0,618.152771000041,4.0,1.0,phase_1,,,,,,,,,,,,,green,flipped triangle
658.0,3.0,2.0,0.0,2.0,2.0,342.8075659999194,4.0,1.0,phase_1,,,,,,,,,,,,,cyan,hexagon
162.0,5.0,0.5,1.0,4.0,4.0,387.7483480000592,4.0,1.0,phase_1,,,,,,,,,,,,,yellow,square
1287.0,4.0,4.0,0.0,3.0,3.0,407.3053899996921,4.0,1.0,phase_1,,,,,,,,,,,,,green,flipped triangle
339.0,6.0,1.0,1.0,4.0,4.0,423.3291420000569,4.0,1.0,phase_1,,,,,,,,,,,,,blue,cross
0.0,2.0,0.0,0.0,4.0,4.0,426.6354880001017,4.0,1.0,phase_1,,,,,,,,,,,,,gray,diamond
346.0,2.0,1.0,0.0,4.0,4.0,460.8568210001067,4.0,1.0,phase_1,,,,,,,,,,,,,gray,diamond
185.0,5.0,0.5,1.0,1.0,1.0,599.8936470000444,4.0,1.0,phase_1,,,,,,,,,,,,,yellow,square
625.0,3.0,2.0,0.0,3.0,3.0,424.8879060000945,4.0,1.0,phase_1,,,,,,,,,,,,,cyan,hexagon
1318.0,4.0,4.0,0.0,3.0,3.0,369.175886999983,4.0,1.0,phase_1,,,,,,,,,,,,,green,flipped triangle
1314.0,8.0,4.0,1.0,4.0,4.0,415.2548100000786,4.0,1.0,phase_1,,,,,,,,,,,,,white,I
0.0,7.0,0.0,1.0,1.0,1.0,524.1306070001883,4.0,1.0,phase_1,,,,,,,,,,,,,orange,triangle
182.0,5.0,0.5,1.0,3.0,3.0,370.1811780001662,4.0,1.0,phase_1,,,,,,,,,,,,,yellow,square
338.0,6.0,1.0,1.0,3.0,3.0,387.5259709998317,4.0,1.0,phase_1,,,,,,,,,,,,,blue,cross
157.0,5.0,0.5,1.0,2.0,2.0,202.7759580000747,4.0,2.0,phase_1,,,,,,,,,,,,,yellow,square
637.0,3.0,2.0,0.0,2.0,2.0,323.9730840000447,4.0,1.0,phase_1,,,,,,,,,,,,,cyan,hexagon
0.0,3.0,0.0,0.0,2.0,2.0,324.1429230001813,4.0,1.0,phase_1,,,,,,,,,,,,,cyan,hexagon
154.0,1.0,0.5,0.0,1.0,1.0,480.6906750000053,4.0,1.0,phase_1,,,,,,,,,,,,,magenta,circle
631.0,3.0,2.0,0.0,4.0,4.0,314.5510699996521,4.0,1.0,phase_1,,,,,,,,,,,,,cyan,hexagon
642.0,3.0,2.0,0.0,4.0,4.0,398.9301070000692,4.0,1.0,phase_1,,,,,,,,,,,,,cyan,hexagon
342.0,2.0,1.0,0.0,2.0,2.0,634.3961560000935,4.0,1.0,phase_1,,,,,,,,,,,,,gray,diamond
1287.0,8.0,4.0,1.0,1.0,1.0,416.5960830000585,4.0,1.0,phase_1,,,,,,,,,,,,,white,I
0.0,5.0,0.0,1.0,4.0,4.0,442.5185099998998,4.0,1.0,phase_1,,,,,,,,,,,,,yellow,square
0.0,8.0,0.0,1.0,1.0,1.0,74.7402480001255,4.0,2.0,phase_1,,,,,,,,,,,,,white,I
311.0,6.0,1.0,1.0,2.0,2.0,442.9226109996307,4.0,1.0,phase_1,,,,,,,,,,,,,blue,cross
151.0,5.0,0.5,1.0,2.0,2.0,333.0687220000072,4.0,1.0,phase_1,,,,,,,,,,,,,yellow,square
166.0,1.0,0.5,0.0,1.0,1.0,591.2709679996624,4.0,1.0,phase_1,,,,,,,,,,,,,magenta,circle
307.0,6.0,1.0,1.0,2.0,2.0,557.0489269998689,4.0,1.0,phase_1,,,,,,,,,,,,,blue,cross
1311.0,4.0,4.0,0.0,4.0,4.0,481.6988299999138,4.0,1.0,phase_1,,,,,,,,,,,,,green,flipped triangle
174.0,1.0,0.5,0.0,2.0,2.0,397.7392049996524,4.0,1.0,phase_1,,,,,,,,,,,,,magenta,circle
658.0,3.0,2.0,0.0,2.0,2.0,443.8178759996845,4.0,1.0,phase_1,,,,,,,,,,,,,cyan,hexagon
0.0,5.0,0.0,1.0,4.0,4.0,444.3766469998991,4.0,1.0,phase_1,,,,,,,,,,,,,yellow,square
1315.0,8.0,4.0,1.0,1.0,1.0,433.9517869998417,4.0,1.0,phase_1,,,,,,,,,,,,,white,I
0.0,2.0,0.0,0.0,4.0,4.0,454.0301649999492,4.0,1.0,phase_1,,,,,,,,,,,,,gray,diamond
637.0,3.0,2.0,0.0,2.0,2.0,305.7006490003005,4.0,1.0,phase_1,,,,,,,,,,,,,cyan,hexagon
1306.0,8.0,4.0,1.0,1.0,1.0,471.0458879999351,4.0,1.0,phase_1,,,,,,,,,,,,,white,I
649.0,7.0,2.0,1.0,3.0,3.0,443.7296129999595,4.0,1.0,phase_1,,,,,,,,,,,,,orange,triangle
1297.0,8.0,4.0,1.0,2.0,2.0,369.6879149997585,4.0,1.0,phase_1,,,,,,,,,,,,,white,I
183.0,5.0,0.5,1.0,4.0,4.0,400.8315590003803,4.0,1.0,phase_1,,,,,,,,,,,,,yellow,square
1320.0,8.0,4.0,1.0,3.0,3.0,435.1894990004439,4.0,1.0,phase_1,,,,,,,,,,,,,white,I
1299.0,8.0,4.0,1.0,4.0,4.0,443.5958820004089,4.0,1.0,phase_1,,,,,,,,,,,,,white,I
324.0,2.0,1.0,0.0,4.0,4.0,519.1061239997907,4.0,1.0,phase_1,,,,,,,,,,,,,gray,diamond
317.0,6.0,1.0,1.0,2.0,2.0,557.1880640000018,4.0,1.0,phase_1,,,,,,,,,,,,,blue,cross
311.0,2.0,1.0,0.0,4.0,4.0,424.6095729999979,4.0,1.0,phase_1,,,,,,,,,,,,,gray,diamond
1315.0,4.0,4.0,0.0,2.0,2.0,443.583487000069,4.0,1.0,phase_1,,,,,,,,,,,,,green,flipped triangle
666.0,3.0,2.0,0.0,1.0,1.0,687.4261269999806,4.0,1.0,phase_1,,,,,,,,,,,,,cyan,hexagon
658.0,7.0,2.0,1.0,1.0,1.0,490.071369999896,4.0,1.0,phase_1,,,,,,,,,,,,,orange,triangle
342.0,6.0,1.0,1.0,3.0,3.0,424.3805710002561,4.0,1.0,phase_1,,,,,,,,,,,,,blue,cross
1310.0,4.0,4.0,0.0,4.0,4.0,424.6384250000119,4.0,1.0,phase_1,,,,,,,,,,,,,green,flipped triangle
1299.0,4.0,4.0,0.0,3.0,3.0,379.3839039999511,4.0,1.0,phase_1,,,,,,,,,,,,,green,flipped triangle
330.0,6.0,1.0,1.0,2.0,2.0,610.7825890003369,4.0,2.0,phase_1,,,,,,,,,,,,,blue,cross
1314.0,4.0,4.0,0.0,1.0,1.0,554.4398870001714,4.0,1.0,phase_1,,,,,,,,,,,,,green,flipped triangle
312.0,6.0,1.0,1.0,2.0,2.0,480.679052999676,4.0,1.0,phase_1,,,,,,,,,,,,,blue,cross
312.0,6.0,1.0,1.0,2.0,2.0,453.8084430000708,4.0,1.0,phase_1,,,,,,,,,,,,,blue,cross
178.0,5.0,0.5,1.0,2.0,2.0,359.7236320001684,4.0,1.0,phase_1,,,,,,,,,,,,,yellow,square
305.0,6.0,1.0,1.0,3.0,3.0,332.1218669998416,4.0,1.0,phase_1,,,,,,,,,,,,,blue,cross
636.0,3.0,2.0,0.0,4.0,4.0,389.2861780000203,4.0,1.0,phase_1,,,,,,,,,,,,,cyan,hexagon
1315.0,8.0,4.0,1.0,2.0,2.0,573.8267130000168,4.0,1.0,phase_1,,,,,,,,,,,,,white,I
0.0,6.0,1.0,1.0,5.0,0.0,0.0,1.0,1.0,phase_2,stop,250.0,250.0,4.0,,,,,,,,,blue,cross
0.0,2.0,1.0,0.0,6.0,6.0,502.8927649996149,1.0,1.0,phase_2,go,300.0,250.0,1.0,,,,,,,,,gray,diamond
0.0,6.0,1.0,1.0,5.0,0.0,0.0,1.0,1.0,phase_2,stop,300.0,250.0,4.0,,,,,,,,,blue,cross
0.0,3.0,2.0,0.0,5.0,5.0,788.2560359998934,1.0,1.0,phase_2,go,350.0,250.0,1.0,,,,,,,,,cyan,hexagon
0.0,3.0,2.0,0.0,6.0,6.0,700.2081979999275,1.0,1.0,phase_2,go,350.0,250.0,1.0,,,,,,,,,cyan,hexagon
0.0,6.0,1.0,1.0,6.0,6.0,644.4507709998106,1.0,1.0,phase_2,go,350.0,250.0,1.0,,,,,,,,,blue,cross
0.0,8.0,4.0,1.0,6.0,0.0,0.0,1.0,1.0,phase_2,stop,350.0,250.0,4.0,,,,,,,,,white,I
0.0,3.0,2.0,0.0,6.0,6.0,701.1037669999496,1.0,1.0,phase_2,go,350.0,300.0,1.0,,,,,,,,,cyan,hexagon
0.0,4.0,4.0,0.0,5.0,5.0,691.3743019999856,1.0,1.0,phase_2,go,350.0,300.0,1.0,,,,,,,,,green,flipped triangle
0.0,5.0,0.5,1.0,6.0,6.0,567.0131980000406,1.0,1.0,phase_2,go,350.0,300.0,1.0,,,,,,,,,yellow,square
0.0,5.0,0.5,1.0,5.0,5.0,494.711826999719,1.0,1.0,phase_2,go,350.0,300.0,1.0,,,,,,,,,yellow,square
0.0,2.0,1.0,0.0,6.0,6.0,542.1634110002742,1.0,1.0,phase_2,go,350.0,300.0,1.0,,,,,,,,,gray,diamond
0.0,7.0,2.0,1.0,5.0,0.0,0.0,1.0,1.0,phase_2,stop,350.0,300.0,4.0,,,,,,,,,orange,triangle
0.0,3.0,2.0,0.0,6.0,6.0,596.4742180003668,1.0,1.0,phase_2,go,400.0,300.0,1.0,,,,,,,,,cyan,hexagon
0.0,7.0,2.0,1.0,6.0,0.0,0.0,1.0,1.0,phase_2,stop,400.0,300.0,4.0,,,,,,,,,orange,triangle
0.0,7.0,2.0,1.0,6.0,6.0,737.2001009998712,1.0,1.0,phase_2,go,400.0,350.0,1.0,,,,,,,,,orange,triangle
0.0,4.0,4.0,0.0,6.0,6.0,755.1237339998806,1.0,1.0,phase_2,go,400.0,350.0,1.0,,,,,,,,,green,flipped triangle
0.0,1.0,0.5,0.0,6.0,6.0,736.8011660000775,1.0,1.0,phase_2,go,400.0,350.0,1.0,,,,,,,,,magenta,circle
0.0,6.0,1.0,1.0,5.0,0.0,0.0,1.0,1.0,phase_2,stop,400.0,350.0,4.0,,,,,,,,,blue,cross
0.0,5.0,0.5,1.0,5.0,0.0,0.0,1.0,1.0,phase_2,stop,450.0,350.0,4.0,,,,,,,,,yellow,square
0.0,1.0,0.5,0.0,5.0,5.0,679.3876829997316,1.0,1.0,phase_2,go,500.0,350.0,1.0,,,,,,,,,magenta,circle
0.0,4.0,4.0,0.0,5.0,5.0,996.2092539999504,1.0,1.0,phase_2,go,500.0,350.0,1.0,,,,,,,,,green,flipped triangle
0.0,6.0,1.0,1.0,6.0,6.0,736.5564399997311,1.0,1.0,phase_2,go,500.0,350.0,1.0,,,,,,,,,blue,cross
0.0,4.0,4.0,0.0,5.0,5.0,717.4953639996602,1.0,1.0,phase_2,go,500.0,350.0,1.0,,,,,,,,,green,flipped triangle
0.0,7.0,2.0,1.0,5.0,0.0,0.0,1.0,1.0,phase_2,stop,500.0,350.0,4.0,,,,,,,,,orange,triangle
0.0,2.0,1.0,0.0,5.0,5.0,671.4410999998108,1.0,1.0,phase_2,go,550.0,350.0,1.0,,,,,,,,,gray,diamond
0.0,4.0,4.0,0.0,6.0,6.0,726.9100690000414,1.0,1.0,phase_2,go,550.0,350.0,1.0,,,,,,,,,green,flipped triangle
0.0,1.0,0.5,0.0,5.0,5.0,681.681479999952,1.0,1.0,phase_2,go,550.0,350.0,1.0,,,,,,,,,magenta,circle
0.0,2.0,1.0,0.0,6.0,6.0,679.800062999675,1.0,1.0,phase_2,go,550.0,350.0,1.0,,,,,,,,,gray,diamond
0.0,6.0,1.0,1.0,6.0,0.0,0.0,1.0,1.0,phase_2,stop,550.0,350.0,4.0,,,,,,,,,blue,cross
0.0,7.0,2.0,1.0,5.0,5.0,651.9973700001174,1.0,1.0,phase_2,stop,550.0,400.0,3.0,,,,,,,,,orange,triangle
0.0,4.0,4.0,0.0,6.0,6.0,669.1664060003859,1.0,1.0,phase_2,go,500.0,400.0,1.0,,,,,,,,,green,flipped triangle
0.0,4.0,4.0,0.0,5.0,5.0,706.249643999854,1.0,1.0,phase_2,go,500.0,400.0,1.0,,,,,,,,,green,flipped triangle
0.0,1.0,0.5,0.0,6.0,6.0,697.1594950000508,1.0,1.0,phase_2,go,500.0,400.0,1.0,,,,,,,,,magenta,circle
0.0,2.0,1.0,0.0,6.0,6.0,696.9799739999871,1.0,1.0,phase_2,go,500.0,400.0,1.0,,,,,,,,,gray,diamond
0.0,1.0,0.5,0.0,5.0,5.0,568.6303229999794,1.0,1.0,phase_2,go,500.0,400.0,1.0,,,,,,,,,magenta,circle
0.0,2.0,1.0,0.0,6.0,6.0,679.3365829998947,2.0,1.0,phase_2,go,500.0,400.0,1.0,,,,,,,,,gray,diamond
0.0,4.0,4.0,0.0,5.0,5.0,363.2138629996007,2.0,1.0,phase_2,go,500.0,400.0,1.0,,,,,,,,,green,flipped triangle
0.0,5.0,0.5,1.0,6.0,6.0,307.9897000002347,2.0,1.0,phase_2,go,500.0,400.0,1.0,,,,,,,,,yellow,square
0.0,5.0,0.5,1.0,5.0,5.0,411.2902240003677,2.0,1.0,phase_2,stop,500.0,400.0,3.0,,,,,,,,,yellow,square
0.0,8.0,4.0,1.0,6.0,6.0,583.7549000002582,2.0,1.0,phase_2,stop,450.0,400.0,3.0,,,,,,,,,white,I
0.0,5.0,0.5,1.0,5.0,5.0,737.4085889996422,2.0,1.0,phase_2,stop,450.0,350.0,3.0,,,,,,,,,yellow,square
0.0,3.0,2.0,0.0,6.0,6.0,624.785465000059,2.0,1.0,phase_2,go,400.0,350.0,1.0,,,,,,,,,cyan,hexagon
0.0,7.0,2.0,1.0,5.0,0.0,0.0,2.0,1.0,phase_2,stop,400.0,350.0,4.0,,,,,,,,,orange,triangle
0.0,7.0,2.0,1.0,6.0,6.0,362.807752000208,2.0,1.0,phase_2,go,450.0,350.0,1.0,,,,,,,,,orange,triangle
0.0,3.0,2.0,0.0,5.0,5.0,475.0462430001789,2.0,1.0,phase_2,go,450.0,350.0,1.0,,,,,,,,,cyan,hexagon
0.0,4.0,4.0,0.0,5.0,5.0,586.2229780000234,2.0,1.0,phase_2,go,450.0,350.0,1.0,,,,,,,,,green,flipped triangle
0.0,3.0,2.0,0.0,5.0,5.0,699.6414159998494,2.0,1.0,phase_2,go,450.0,350.0,1.0,,,,,,,,,cyan,hexagon
0.0,8.0,4.0,1.0,6.0,6.0,397.2414840000056,2.0,1.0,phase_2,stop,450.0,350.0,3.0,,,,,,,,,white,I
0.0,5.0,0.5,1.0,5.0,5.0,620.374539000295,2.0,1.0,phase_2,stop,450.0,300.0,3.0,,,,,,,,,yellow,square
0.0,8.0,4.0,1.0,5.0,0.0,0.0,2.0,1.0,phase_2,stop,400.0,300.0,4.0,,,,,,,,,white,I
0.0,3.0,2.0,0.0,5.0,5.0,634.10218800027,2.0,1.0,phase_2,go,450.0,300.0,1.0,,,,,,,,,cyan,hexagon
0.0,5.0,0.5,1.0,5.0,5.0,550.93011200006,2.0,1.0,phase_2,stop,450.0,300.0,3.0,,,,,,,,,yellow,square
0.0,5.0,0.5,1.0,6.0,6.0,502.30161899980885,2.0,1.0,phase_2,stop,400.0,300.0,3.0,,,,,,,,,yellow,square
0.0,3.0,2.0,0.0,5.0,5.0,743.2140910000271,2.0,1.0,phase_2,go,400.0,250.0,1.0,,,,,,,,,cyan,hexagon
0.0,3.0,2.0,0.0,6.0,6.0,790.5175739997503,2.0,1.0,phase_2,go,400.0,250.0,1.0,,,,,,,,,cyan,hexagon
0.0,5.0,0.5,1.0,6.0,0.0,0.0,2.0,1.0,phase_2,stop,400.0,250.0,4.0,,,,,,,,,yellow,square
0.0,7.0,2.0,1.0,5.0,0.0,0.0,2.0,1.0,phase_2,stop,400.0,300.0,4.0,,,,,,,,,orange,triangle
0.0,2.0,1.0,0.0,5.0,5.0,633.9065480001409,2.0,1.0,phase_2,go,450.0,300.0,1.0,,,,,,,,,gray,diamond
0.0,6.0,1.0,1.0,5.0,5.0,727.3033279998344,2.0,1.0,phase_2,go,450.0,300.0,1.0,,,,,,,,,blue,cross
0.0,3.0,2.0,0.0,5.0,5.0,597.5957989999188,2.0,1.0,phase_2,go,450.0,300.0,1.0,,,,,,,,,cyan,hexagon
0.0,7.0,2.0,1.0,5.0,5.0,503.9606529999219,2.0,1.0,phase_2,stop,450.0,300.0,3.0,,,,,,,,,orange,triangle
0.0,6.0,1.0,1.0,6.0,0.0,0.0,2.0,1.0,phase_2,stop,400.0,300.0,4.0,,,,,,,,,blue,cross
0.0,1.0,0.5,0.0,5.0,5.0,531.4527529999395,2.0,1.0,phase_2,go,400.0,350.0,1.0,,,,,,,,,magenta,circle
0.0,7.0,2.0,1.0,6.0,6.0,513.6143959998662,2.0,1.0,phase_2,go,400.0,350.0,1.0,,,,,,,,,orange,triangle
0.0,7.0,2.0,1.0,5.0,0.0,0.0,2.0,1.0,phase_2,stop,400.0,350.0,4.0,,,,,,,,,orange,triangle
0.0,5.0,0.5,1.0,6.0,6.0,523.9745210001274,2.0,1.0,phase_2,stop,450.0,350.0,3.0,,,,,,,,,yellow,square
0.0,4.0,4.0,0.0,5.0,5.0,848.528871000326,2.0,1.0,phase_2,go,450.0,300.0,1.0,,,,,,,,,green,flipped triangle
0.0,1.0,0.5,0.0,6.0,6.0,652.3037169999952,2.0,1.0,phase_2,go,450.0,300.0,1.0,,,,,,,,,magenta,circle
0.0,8.0,4.0,1.0,5.0,0.0,0.0,2.0,1.0,phase_2,stop,450.0,300.0,4.0,,,,,,,,,white,I
0.0,3.0,2.0,0.0,5.0,5.0,725.2351439997256,2.0,1.0,phase_2,go,500.0,300.0,1.0,,,,,,,,,cyan,hexagon
0.0,6.0,1.0,1.0,6.0,0.0,0.0,2.0,1.0,phase_2,stop,500.0,300.0,4.0,,,,,,,,,blue,cross
0.0,8.0,4.0,1.0,5.0,0.0,0.0,3.0,1.0,phase_2,stop,500.0,350.0,4.0,,,,,,,,,white,I
0.0,3.0,2.0,0.0,5.0,5.0,560.0660970003446,3.0,1.0,phase_2,go,550.0,350.0,1.0,,,,,,,,,cyan,hexagon
0.0,5.0,0.5,1.0,6.0,6.0,587.4194370003352,3.0,1.0,phase_2,go,550.0,350.0,1.0,,,,,,,,,yellow,square
0.0,1.0,0.5,0.0,5.0,5.0,559.728807999818,3.0,1.0,phase_2,go,550.0,350.0,1.0,,,,,,,,,magenta,circle
0.0,6.0,1.0,1.0,6.0,6.0,635.1467409999714,3.0,1.0,phase_2,go,550.0,350.0,1.0,,,,,,,,,blue,cross
0.0,1.0,0.5,0.0,6.0,6.0,710.1081959999647,3.0,1.0,phase_2,go,550.0,350.0,1.0,,,,,,,,,magenta,circle
0.0,4.0,4.0,0.0,5.0,5.0,335.3952950001257,3.0,1.0,phase_2,go,550.0,350.0,1.0,,,,,,,,,green,flipped triangle
0.0,6.0,1.0,1.0,6.0,0.0,0.0,3.0,1.0,phase_2,stop,550.0,350.0,4.0,,,,,,,,,blue,cross
0.0,2.0,1.0,0.0,5.0,5.0,557.9946110001401,3.0,1.0,phase_2,go,550.0,400.0,1.0,,,,,,,,,gray,diamond
0.0,8.0,4.0,1.0,6.0,0.0,0.0,3.0,1.0,phase_2,stop,550.0,400.0,4.0,,,,,,,,,white,I
0.0,1.0,0.5,0.0,5.0,5.0,651.9075520000115,3.0,1.0,phase_2,go,550.0,450.0,1.0,,,,,,,,,magenta,circle
0.0,4.0,4.0,0.0,6.0,6.0,735.7311870000558,3.0,1.0,phase_2,go,550.0,450.0,1.0,,,,,,,,,green,flipped triangle
0.0,1.0,0.5,0.0,6.0,6.0,607.196871999804,3.0,1.0,phase_2,go,550.0,450.0,1.0,,,,,,,,,magenta,circle
0.0,2.0,1.0,0.0,6.0,6.0,548.2529590003651,3.0,1.0,phase_2,go,550.0,450.0,1.0,,,,,,,,,gray,diamond
0.0,7.0,2.0,1.0,6.0,0.0,0.0,3.0,1.0,phase_2,stop,550.0,450.0,4.0,,,,,,,,,orange,triangle
0.0,7.0,2.0,1.0,6.0,6.0,612.0398729999579,3.0,1.0,phase_2,stop,550.0,500.0,3.0,,,,,,,,,orange,triangle
0.0,7.0,2.0,1.0,5.0,5.0,627.0894419999422,3.0,1.0,phase_2,stop,550.0,450.0,3.0,,,,,,,,,orange,triangle
0.0,1.0,0.5,0.0,5.0,5.0,482.844317999934,3.0,1.0,phase_2,go,500.0,450.0,1.0,,,,,,,,,magenta,circle
0.0,6.0,1.0,1.0,6.0,6.0,577.8162810001959,3.0,1.0,phase_2,go,500.0,450.0,1.0,,,,,,,,,blue,cross
0.0,2.0,1.0,0.0,5.0,5.0,529.3030240000007,3.0,1.0,phase_2,go,500.0,450.0,1.0,,,,,,,,,gray,diamond
0.0,8.0,4.0,1.0,6.0,0.0,0.0,3.0,1.0,phase_2,stop,500.0,450.0,4.0,,,,,,,,,white,I
0.0,3.0,2.0,0.0,6.0,6.0,607.1576759995878,3.0,1.0,phase_2,go,500.0,500.0,1.0,,,,,,,,,cyan,hexagon
0.0,2.0,1.0,0.0,5.0,5.0,716.247654000199,3.0,1.0,phase_2,go,500.0,500.0,1.0,,,,,,,,,gray,diamond
0.0,8.0,4.0,1.0,5.0,5.0,649.0171709997412,3.0,1.0,phase_2,stop,500.0,500.0,3.0,,,,,,,,,white,I
0.0,8.0,4.0,1.0,6.0,0.0,0.0,3.0,1.0,phase_2,stop,450.0,500.0,4.0,,,,,,,,,white,I
0.0,4.0,4.0,0.0,6.0,6.0,726.7495659998531,3.0,1.0,phase_2,go,450.0,550.0,1.0,,,,,,,,,green,flipped triangle
0.0,7.0,2.0,1.0,6.0,6.0,753.1429979999302,3.0,1.0,phase_2,go,450.0,550.0,1.0,,,,,,,,,orange,triangle
0.0,1.0,0.5,0.0,6.0,6.0,752.425606000088,3.0,1.0,phase_2,go,450.0,550.0,1.0,,,,,,,,,magenta,circle
0.0,2.0,1.0,0.0,5.0,5.0,902.253987000222,3.0,1.0,phase_2,go,450.0,550.0,1.0,,,,,,,,,gray,diamond
0.0,4.0,4.0,0.0,5.0,5.0,661.7857010000989,3.0,1.0,phase_2,go,450.0,550.0,1.0,,,,,,,,,green,flipped triangle
0.0,2.0,1.0,0.0,5.0,5.0,949.4808709996504,3.0,1.0,phase_2,go,450.0,550.0,1.0,,,,,,,,,gray,diamond
0.0,3.0,2.0,0.0,6.0,6.0,586.5462970000408,3.0,1.0,phase_2,go,450.0,550.0,1.0,,,,,,,,,cyan,hexagon
0.0,8.0,4.0,1.0,5.0,5.0,630.7654930001263,3.0,1.0,phase_2,stop,450.0,550.0,3.0,,,,,,,,,white,I
0.0,8.0,4.0,1.0,6.0,6.0,735.6643919997623,3.0,1.0,phase_2,go,400.0,550.0,1.0,,,,,,,,,white,I
0.0,6.0,1.0,1.0,5.0,0.0,0.0,3.0,1.0,phase_2,stop,400.0,550.0,4.0,,,,,,,,,blue,cross
0.0,6.0,1.0,1.0,6.0,6.0,667.9095210001833,3.0,1.0,phase_2,stop,450.0,550.0,3.0,,,,,,,,,blue,cross
0.0,4.0,4.0,0.0,5.0,5.0,982.6130409996948,4.0,1.0,phase_2,go,450.0,500.0,1.0,,,,,,,,,green,flipped triangle
0.0,5.0,0.5,1.0,6.0,6.0,577.985199000068,4.0,1.0,phase_2,stop,450.0,500.0,3.0,,,,,,,,,yellow,square
0.0,8.0,4.0,1.0,5.0,5.0,648.3377300000939,4.0,1.0,phase_2,stop,450.0,450.0,3.0,,,,,,,,,white,I
0.0,8.0,4.0,1.0,5.0,5.0,823.3252049999464,4.0,1.0,phase_2,go,400.0,450.0,1.0,,,,,,,,,white,I
0.0,3.0,2.0,0.0,5.0,5.0,782.5044940000225,4.0,1.0,phase_2,go,400.0,450.0,1.0,,,,,,,,,cyan,hexagon
0.0,8.0,4.0,1.0,6.0,6.0,632.120494999981,4.0,1.0,phase_2,go,400.0,450.0,1.0,,,,,,,,,white,I
0.0,4.0,4.0,0.0,5.0,5.0,438.0064960000709,4.0,1.0,phase_2,go,400.0,450.0,1.0,,,,,,,,,green,flipped triangle
0.0,1.0,0.5,0.0,6.0,6.0,790.7783020000352,4.0,1.0,phase_2,go,400.0,450.0,1.0,,,,,,,,,magenta,circle
0.0,4.0,4.0,0.0,5.0,5.0,681.9283310001083,4.0,1.0,phase_2,go,400.0,450.0,1.0,,,,,,,,,green,flipped triangle
0.0,7.0,2.0,1.0,6.0,0.0,0.0,4.0,1.0,phase_2,stop,400.0,450.0,4.0,,,,,,,,,orange,triangle
0.0,1.0,0.5,0.0,5.0,5.0,604.0431390001686,4.0,1.0,phase_2,go,400.0,500.0,1.0,,,,,,,,,magenta,circle
0.0,1.0,0.5,0.0,6.0,6.0,680.0171250001767,4.0,1.0,phase_2,go,400.0,500.0,1.0,,,,,,,,,magenta,circle
0.0,1.0,0.5,0.0,6.0,6.0,691.7296199999328,4.0,1.0,phase_2,go,400.0,500.0,1.0,,,,,,,,,magenta,circle
0.0,6.0,1.0,1.0,5.0,0.0,0.0,4.0,1.0,phase_2,stop,400.0,500.0,4.0,,,,,,,,,blue,cross
0.0,5.0,0.5,1.0,5.0,0.0,0.0,4.0,1.0,phase_2,stop,450.0,500.0,4.0,,,,,,,,,yellow,square
0.0,3.0,2.0,0.0,6.0,6.0,764.5256389996575,4.0,1.0,phase_2,go,500.0,500.0,1.0,,,,,,,,,cyan,hexagon
0.0,1.0,0.5,0.0,5.0,5.0,903.232288000254,4.0,1.0,phase_2,go,500.0,500.0,1.0,,,,,,,,,magenta,circle
0.0,7.0,2.0,1.0,6.0,0.0,0.0,4.0,1.0,phase_2,stop,500.0,500.0,4.0,,,,,,,,,orange,triangle
0.0,3.0,2.0,0.0,6.0,6.0,840.9723690001556,4.0,1.0,phase_2,go,500.0,550.0,1.0,,,,,,,,,cyan,hexagon
0.0,3.0,2.0,0.0,6.0,6.0,762.7335610000046,4.0,1.0,phase_2,go,500.0,550.0,1.0,,,,,,,,,cyan,hexagon
0.0,7.0,2.0,1.0,5.0,5.0,867.2115890003624,4.0,1.0,phase_2,go,500.0,550.0,1.0,,,,,,,,,orange,triangle
0.0,5.0,0.5,1.0,6.0,0.0,0.0,4.0,1.0,phase_2,stop,500.0,550.0,4.0,,,,,,,,,yellow,square
0.0,6.0,1.0,1.0,5.0,0.0,0.0,4.0,1.0,phase_2,stop,500.0,600.0,4.0,,,,,,,,,blue,cross
0.0,2.0,1.0,0.0,6.0,6.0,724.4011650000175,4.0,1.0,phase_2,go,550.0,600.0,1.0,,,,,,,,,gray,diamond
0.0,7.0,2.0,1.0,5.0,0.0,0.0,4.0,1.0,phase_2,stop,550.0,600.0,4.0,,,,,,,,,orange,triangle
0.0,6.0,1.0,1.0,5.0,5.0,745.9899229997973,4.0,1.0,phase_2,stop,600.0,600.0,3.0,,,,,,,,,blue,cross
0.0,3.0,2.0,0.0,5.0,5.0,858.7152410000272,4.0,1.0,phase_2,go,550.0,600.0,1.0,,,,,,,,,cyan,hexagon
0.0,2.0,1.0,0.0,6.0,6.0,942.882262999774,4.0,1.0,phase_2,go,550.0,600.0,1.0,,,,,,,,,gray,diamond
0.0,4.0,4.0,0.0,6.0,6.0,966.6942310000196,4.0,1.0,phase_2,go,550.0,600.0,1.0,,,,,,,,,green,flipped triangle
0.0,4.0,4.0,0.0,6.0,6.0,792.8210400000353,4.0,1.0,phase_2,go,550.0,600.0,1.0,,,,,,,,,green,flipped triangle
0.0,6.0,1.0,1.0,6.0,0.0,0.0,4.0,1.0,phase_2,stop,550.0,600.0,4.0,,,,,,,,,blue,cross
0.0,2.0,1.0,0.0,5.0,5.0,754.5491240002775,4.0,1.0,phase_2,go,550.0,650.0,1.0,,,,,,,,,gray,diamond
0.0,4.0,4.0,0.0,5.0,5.0,856.8460209999103,4.0,1.0,phase_2,go,550.0,650.0,1.0,,,,,,,,,green,flipped triangle
0.0,5.0,0.5,1.0,5.0,0.0,0.0,4.0,1.0,phase_2,stop,550.0,650.0,4.0,,,,,,,,,yellow,square
0.0,4.0,4.0,0.0,6.0,6.0,836.0280039996724,4.0,1.0,phase_2,go,600.0,650.0,1.0,,,,,,,,,green,flipped triangle
0.0,2.0,1.0,0.0,6.0,6.0,932.3028580001846,4.0,1.0,phase_2,go,600.0,650.0,1.0,,,,,,,,,gray,diamond
0.0,2.0,1.0,0.0,5.0,5.0,794.2535829997723,5.0,1.0,phase_2,go,600.0,650.0,1.0,,,,,,,,,gray,diamond
0.0,4.0,4.0,0.0,6.0,6.0,522.5939340002697,5.0,1.0,phase_2,go,600.0,650.0,1.0,,,,,,,,,green,flipped triangle
0.0,6.0,1.0,1.0,6.0,6.0,716.6258830002334,5.0,1.0,phase_2,go,600.0,650.0,1.0,,,,,,,,,blue,cross
0.0,2.0,1.0,0.0,6.0,6.0,811.9766680001703,5.0,1.0,phase_2,go,600.0,650.0,1.0,,,,,,,,,gray,diamond
0.0,5.0,0.5,1.0,6.0,6.0,767.893180000101,5.0,1.0,phase_2,go,600.0,650.0,1.0,,,,,,,,,yellow,square
0.0,6.0,1.0,1.0,5.0,5.0,801.4593389998481,5.0,1.0,phase_2,stop,600.0,650.0,3.0,,,,,,,,,blue,cross
0.0,8.0,4.0,1.0,6.0,6.0,820.4134679999697,5.0,1.0,phase_2,go,550.0,650.0,1.0,,,,,,,,,white,I
0.0,1.0,0.5,0.0,5.0,5.0,651.7503700001726,5.0,1.0,phase_2,go,550.0,650.0,1.0,,,,,,,,,magenta,circle
0.0,1.0,0.5,0.0,5.0,5.0,699.2257290003181,5.0,1.0,phase_2,go,550.0,650.0,1.0,,,,,,,,,magenta,circle
0.0,1.0,0.5,0.0,6.0,6.0,542.0856539999477,5.0,1.0,phase_2,go,550.0,650.0,1.0,,,,,,,,,magenta,circle
0.0,8.0,4.0,1.0,6.0,6.0,777.0539129996905,5.0,1.0,phase_2,stop,550.0,650.0,3.0,,,,,,,,,white,I
0.0,1.0,0.5,0.0,5.0,5.0,960.0391330000092,5.0,1.0,phase_2,go,550.0,600.0,1.0,,,,,,,,,magenta,circle
0.0,6.0,1.0,1.0,6.0,6.0,297.2663809996447,5.0,1.0,phase_2,stop,550.0,600.0,3.0,,,,,,,,,blue,cross
0.0,7.0,2.0,1.0,6.0,6.0,316.166470999633,5.0,1.0,phase_2,stop,550.0,550.0,3.0,,,,,,,,,orange,triangle
0.0,5.0,0.5,1.0,6.0,6.0,382.583281999814,5.0,1.0,phase_2,go,550.0,500.0,1.0,,,,,,,,,yellow,square
0.0,8.0,4.0,1.0,5.0,5.0,336.6911940001955,5.0,1.0,phase_2,go,550.0,500.0,1.0,,,,,,,,,white,I
0.0,3.0,2.0,0.0,6.0,6.0,354.1853310002807,5.0,1.0,phase_2,go,550.0,500.0,1.0,,,,,,,,,cyan,hexagon
0.0,1.0,0.5,0.0,5.0,5.0,437.3203169998305,5.0,1.0,phase_2,go,550.0,500.0,1.0,,,,,,,,,magenta,circle
0.0,8.0,4.0,1.0,6.0,6.0,541.4213610001752,5.0,1.0,phase_2,stop,550.0,500.0,3.0,,,,,,,,,white,I
0.0,6.0,1.0,1.0,5.0,5.0,737.4332610002057,5.0,1.0,phase_2,stop,550.0,450.0,3.0,,,,,,,,,blue,cross
0.0,2.0,1.0,0.0,5.0,5.0,726.2550079999528,5.0,1.0,phase_2,go,500.0,450.0,1.0,,,,,,,,,gray,diamond
0.0,6.0,1.0,1.0,6.0,0.0,0.0,5.0,1.0,phase_2,stop,500.0,450.0,4.0,,,,,,,,,blue,cross
0.0,7.0,2.0,1.0,5.0,5.0,475.7162699997934,5.0,1.0,phase_2,stop,500.0,500.0,3.0,,,,,,,,,orange,triangle
0.0,3.0,2.0,0.0,6.0,6.0,745.5105519998142,5.0,1.0,phase_2,go,450.0,500.0,1.0,,,,,,,,,cyan,hexagon
0.0,4.0,4.0,0.0,6.0,6.0,549.7892389998924,5.0,1.0,phase_2,go,450.0,500.0,1.0,,,,,,,,,green,flipped triangle
0.0,3.0,2.0,0.0,5.0,5.0,690.6329879998339,5.0,1.0,phase_2,go,450.0,500.0,1.0,,,,,,,,,cyan,hexagon
0.0,5.0,0.5,1.0,6.0,0.0,0.0,5.0,1.0,phase_2,stop,450.0,500.0,4.0,,,,,,,,,yellow,square
0.0,7.0,2.0,1.0,6.0,6.0,640.9454370000276,5.0,1.0,phase_2,go,450.0,550.0,1.0,,,,,,,,,orange,triangle
0.0,3.0,2.0,0.0,5.0,5.0,764.8949570002515,5.0,1.0,phase_2,go,450.0,550.0,1.0,,,,,,,,,cyan,hexagon
0.0,5.0,0.5,1.0,6.0,0.0,0.0,5.0,1.0,phase_2,stop,450.0,550.0,4.0,,,,,,,,,yellow,square
0.0,3.0,2.0,0.0,6.0,6.0,726.3911019999796,5.0,1.0,phase_2,go,450.0,600.0,1.0,,,,,,,,,cyan,hexagon
0.0,6.0,1.0,1.0,6.0,6.0,696.6263080003046,5.0,1.0,phase_2,go,450.0,600.0,1.0,,,,,,,,,blue,cross
0.0,4.0,4.0,0.0,6.0,6.0,884.2235719998826,5.0,1.0,phase_2,go,450.0,600.0,1.0,,,,,,,,,green,flipped triangle
0.0,8.0,4.0,1.0,6.0,0.0,0.0,5.0,1.0,phase_2,stop,450.0,600.0,4.0,,,,,,,,,white,I
0.0,1.0,0.5,0.0,6.0,6.0,669.8312270000315,5.0,1.0,phase_2,go,450.0,650.0,1.0,,,,,,,,,magenta,circle
0.0,5.0,0.5,1.0,5.0,0.0,0.0,5.0,1.0,phase_2,stop,450.0,650.0,4.0,,,,,,,,,yellow,square
0.0,6.0,1.0,1.0,6.0,6.0,786.1419440000645,6.0,1.0,phase_2,stop,500.0,650.0,3.0,,,,,,,,,blue,cross
0.0,7.0,2.0,1.0,6.0,0.0,0.0,6.0,1.0,phase_2,stop,500.0,600.0,4.0,,,,,,,,,orange,triangle
0.0,4.0,4.0,0.0,6.0,6.0,458.2941060002667,6.0,1.0,phase_2,go,500.0,650.0,1.0,,,,,,,,,green,flipped triangle
0.0,4.0,4.0,0.0,6.0,6.0,630.0541900000098,6.0,1.0,phase_2,go,500.0,650.0,1.0,,,,,,,,,green,flipped triangle
0.0,7.0,2.0,1.0,5.0,5.0,618.884619000255,6.0,1.0,phase_2,stop,500.0,650.0,3.0,,,,,,,,,orange,triangle
0.0,2.0,1.0,0.0,5.0,5.0,687.139605000084,6.0,1.0,phase_2,go,450.0,650.0,1.0,,,,,,,,,gray,diamond
0.0,3.0,2.0,0.0,5.0,5.0,763.404953999725,6.0,1.0,phase_2,go,450.0,650.0,1.0,,,,,,,,,cyan,hexagon
0.0,4.0,4.0,0.0,6.0,6.0,454.1107749996627,6.0,1.0,phase_2,go,450.0,650.0,1.0,,,,,,,,,green,flipped triangle
0.0,5.0,0.5,1.0,5.0,5.0,273.8352339997618,6.0,1.0,phase_2,stop,450.0,650.0,3.0,,,,,,,,,yellow,square
0.0,4.0,4.0,0.0,5.0,5.0,372.8968580003311,6.0,1.0,phase_2,go,400.0,650.0,1.0,,,,,,,,,green,flipped triangle
0.0,2.0,1.0,0.0,5.0,6.0,294.8653930002365,6.0,1.0,phase_2,go,400.0,650.0,2.0,,,,,,,,,gray,diamond
0.0,8.0,4.0,1.0,5.0,5.0,394.0645849997963,6.0,1.0,phase_2,stop,400.0,650.0,3.0,,,,,,,,,white,I
0.0,1.0,0.5,0.0,5.0,5.0,843.0454989997997,6.0,1.0,phase_2,go,350.0,650.0,1.0,,,,,,,,,magenta,circle
0.0,6.0,1.0,1.0,6.0,0.0,0.0,6.0,1.0,phase_2,stop,350.0,650.0,4.0,,,,,,,,,blue,cross
0.0,2.0,1.0,0.0,6.0,6.0,642.4712510001882,6.0,1.0,phase_2,go,350.0,700.0,1.0,,,,,,,,,gray,diamond
0.0,5.0,0.5,1.0,5.0,0.0,0.0,6.0,1.0,phase_2,stop,350.0,700.0,4.0,,,,,,,,,yellow,square
0.0,1.0,0.5,0.0,5.0,5.0,882.7464769997277,6.0,1.0,phase_2,go,400.0,700.0,1.0,,,,,,,,,magenta,circle
0.0,2.0,1.0,0.0,5.0,5.0,848.8339090004047,6.0,1.0,phase_2,go,400.0,700.0,1.0,,,,,,,,,gray,diamond
0.0,3.0,2.0,0.0,5.0,5.0,961.454051000146,6.0,1.0,phase_2,go,400.0,700.0,1.0,,,,,,,,,cyan,hexagon
0.0,3.0,2.0,0.0,6.0,6.0,894.5273280000947,6.0,1.0,phase_2,go,400.0,700.0,1.0,,,,,,,,,cyan,hexagon
0.0,8.0,4.0,1.0,5.0,0.0,0.0,6.0,1.0,phase_2,stop,400.0,700.0,4.0,,,,,,,,,white,I
0.0,6.0,1.0,1.0,5.0,5.0,615.1983290001226,6.0,1.0,phase_2,stop,450.0,700.0,3.0,,,,,,,,,blue,cross
0.0,1.0,0.5,0.0,5.0,5.0,604.1109799998594,6.0,1.0,phase_2,go,400.0,700.0,1.0,,,,,,,,,magenta,circle
0.0,2.0,1.0,0.0,6.0,6.0,866.7525629998636,6.0,1.0,phase_2,go,400.0,700.0,1.0,,,,,,,,,gray,diamond
0.0,8.0,4.0,1.0,6.0,6.0,880.3814749999219,6.0,1.0,phase_2,stop,400.0,700.0,3.0,,,,,,,,,white,I
0.0,7.0,2.0,1.0,6.0,6.0,688.5988190001626,6.0,1.0,phase_2,stop,400.0,650.0,3.0,,,,,,,,,orange,triangle
0.0,4.0,4.0,0.0,6.0,6.0,999.2547030001332,6.0,1.0,phase_2,go,400.0,600.0,1.0,,,,,,,,,green,flipped triangle
0.0,7.0,2.0,1.0,6.0,0.0,0.0,6.0,1.0,phase_2,stop,400.0,600.0,4.0,,,,,,,,,orange,triangle
0.0,4.0,4.0,0.0,6.0,6.0,811.9146200001524,6.0,1.0,phase_2,go,400.0,650.0,1.0,,,,,,,,,green,flipped triangle
0.0,5.0,0.5,1.0,6.0,6.0,903.1574470000124,6.0,1.0,phase_2,go,400.0,650.0,1.0,,,,,,,,,yellow,square
0.0,5.0,0.5,1.0,5.0,0.0,0.0,6.0,1.0,phase_2,stop,400.0,650.0,4.0,,,,,,,,,yellow,square
0.0,6.0,1.0,1.0,6.0,6.0,822.5212060001468,6.0,1.0,phase_2,stop,450.0,650.0,3.0,,,,,,,,,blue,cross
0.0,6.0,1.0,1.0,5.0,5.0,988.0152379996616,6.0,1.0,phase_2,go,450.0,600.0,1.0,,,,,,,,,blue,cross
0.0,2.0,1.0,0.0,6.0,6.0,895.1848190004057,6.0,1.0,phase_2,go,450.0,600.0,1.0,,,,,,,,,gray,diamond
0.0,7.0,2.0,1.0,6.0,0.0,0.0,6.0,1.0,phase_2,stop,450.0,600.0,4.0,,,,,,,,,orange,triangle
0.0,5.0,0.5,1.0,5.0,0.0,0.0,6.0,1.0,phase_2,stop,450.0,650.0,4.0,,,,,,,,,yellow,square
0.0,5.0,0.5,1.0,6.0,0.0,0.0,7.0,1.0,phase_2,stop,500.0,650.0,4.0,,,,,,,,,yellow,square
0.0,1.0,0.5,0.0,6.0,6.0,745.1360539998859,7.0,1.0,phase_2,go,500.0,700.0,1.0,,,,,,,,,magenta,circle
0.0,8.0,4.0,1.0,5.0,5.0,745.6347389997973,7.0,1.0,phase_2,go,500.0,700.0,1.0,,,,,,,,,white,I
0.0,4.0,4.0,0.0,6.0,6.0,819.9129000004177,7.0,1.0,phase_2,go,500.0,700.0,1.0,,,,,,,,,green,flipped triangle
0.0,8.0,4.0,1.0,5.0,5.0,492.9535760002181,7.0,1.0,phase_2,stop,500.0,700.0,3.0,,,,,,,,,white,I
0.0,3.0,2.0,0.0,6.0,6.0,297.8505740002219,7.0,1.0,phase_2,go,450.0,700.0,1.0,,,,,,,,,cyan,hexagon
0.0,2.0,1.0,0.0,5.0,5.0,317.3480920004294,7.0,1.0,phase_2,go,450.0,700.0,1.0,,,,,,,,,gray,diamond
0.0,7.0,2.0,1.0,5.0,5.0,318.3763159995578,7.0,1.0,phase_2,stop,450.0,700.0,3.0,,,,,,,,,orange,triangle
0.0,3.0,2.0,0.0,6.0,6.0,261.5393870000844,7.0,1.0,phase_2,go,400.0,700.0,1.0,,,,,,,,,cyan,hexagon
0.0,6.0,1.0,1.0,6.0,6.0,346.6106089999812,7.0,1.0,phase_2,go,400.0,700.0,1.0,,,,,,,,,blue,cross
0.0,6.0,1.0,1.0,5.0,0.0,0.0,7.0,1.0,phase_2,stop,400.0,700.0,4.0,,,,,,,,,blue,cross
0.0,7.0,2.0,1.0,5.0,5.0,652.1485380008016,7.0,1.0,phase_2,go,450.0,700.0,1.0,,,,,,,,,orange,triangle
0.0,6.0,1.0,1.0,5.0,0.0,0.0,7.0,1.0,phase_2,stop,450.0,700.0,4.0,,,,,,,,,blue,cross
0.0,8.0,4.0,1.0,5.0,5.0,532.7455589995225,7.0,1.0,phase_2,go,500.0,700.0,1.0,,,,,,,,,white,I
0.0,5.0,0.5,1.0,5.0,0.0,0.0,7.0,1.0,phase_2,stop,500.0,700.0,4.0,,,,,,,,,yellow,square
0.0,5.0,0.5,1.0,6.0,6.0,270.1966929998889,7.0,1.0,phase_2,stop,550.0,700.0,3.0,,,,,,,,,yellow,square
0.0,6.0,1.0,1.0,5.0,0.0,0.0,7.0,1.0,phase_2,stop,550.0,650.0,4.0,,,,,,,,,blue,cross
0.0,8.0,4.0,1.0,6.0,6.0,484.3592420002096,7.0,1.0,phase_2,go,600.0,650.0,1.0,,,,,,,,,white,I
0.0,1.0,0.5,0.0,6.0,6.0,529.9948310002947,7.0,1.0,phase_2,go,600.0,650.0,1.0,,,,,,,,,magenta,circle
0.0,8.0,4.0,1.0,5.0,5.0,740.7382850005888,7.0,1.0,phase_2,stop,600.0,650.0,3.0,,,,,,,,,white,I
0.0,4.0,4.0,0.0,5.0,5.0,885.4697819997455,7.0,1.0,phase_2,go,550.0,650.0,1.0,,,,,,,,,green,flipped triangle
0.0,1.0,0.5,0.0,6.0,6.0,597.0072860000073,7.0,1.0,phase_2,go,550.0,650.0,1.0,,,,,,,,,magenta,circle
0.0,6.0,1.0,1.0,5.0,0.0,0.0,7.0,1.0,phase_2,stop,550.0,650.0,4.0,,,,,,,,,blue,cross
0.0,1.0,0.5,0.0,6.0,6.0,262.554571999317,7.0,1.0,phase_2,go,600.0,650.0,1.0,,,,,,,,,magenta,circle
0.0,8.0,4.0,1.0,5.0,0.0,0.0,7.0,1.0,phase_2,stop,600.0,650.0,4.0,,,,,,,,,white,I
0.0,1.0,0.5,0.0,6.0,6.0,327.71448999938,7.0,1.0,phase_2,go,650.0,650.0,1.0,,,,,,,,,magenta,circle
0.0,1.0,0.5,0.0,5.0,5.0,607.597258000169,7.0,1.0,phase_2,go,650.0,650.0,1.0,,,,,,,,,magenta,circle
0.0,1.0,0.5,0.0,6.0,6.0,911.1432580002656,7.0,1.0,phase_2,go,650.0,650.0,1.0,,,,,,,,,magenta,circle
0.0,5.0,0.5,1.0,5.0,5.0,806.7431729996315,7.0,1.0,phase_2,stop,650.0,650.0,3.0,,,,,,,,,yellow,square
0.0,6.0,1.0,1.0,5.0,0.0,0.0,7.0,1.0,phase_2,stop,600.0,650.0,4.0,,,,,,,,,blue,cross
0.0,2.0,1.0,0.0,6.0,6.0,438.6703170002874,7.0,1.0,phase_2,go,650.0,650.0,1.0,,,,,,,,,gray,diamond
0.0,7.0,2.0,1.0,5.0,5.0,852.5304009999672,7.0,1.0,phase_2,stop,650.0,650.0,3.0,,,,,,,,,orange,triangle
0.0,7.0,2.0,1.0,5.0,0.0,0.0,7.0,1.0,phase_2,stop,600.0,650.0,4.0,,,,,,,,,orange,triangle
0.0,8.0,4.0,1.0,6.0,6.0,694.305039000028,7.0,1.0,phase_2,stop,650.0,650.0,3.0,,,,,,,,,white,I
0.0,3.0,2.0,0.0,5.0,5.0,922.0987919998151,7.0,1.0,phase_2,go,650.0,600.0,1.0,,,,,,,,,cyan,hexagon
0.0,2.0,1.0,0.0,5.0,5.0,923.4658109999144,7.0,1.0,phase_2,go,650.0,600.0,1.0,,,,,,,,,gray,diamond
0.0,1.0,0.5,0.0,5.0,5.0,1091.1830649993135,8.0,1.0,phase_2,go,650.0,600.0,1.0,,,,,,,,,magenta,circle
0.0,8.0,4.0,1.0,6.0,6.0,768.5463749994597,8.0,1.0,phase_2,stop,650.0,600.0,3.0,,,,,,,,,white,I
0.0,8.0,4.0,1.0,6.0,0.0,0.0,8.0,1.0,phase_2,stop,650.0,550.0,4.0,,,,,,,,,white,I
0.0,2.0,1.0,0.0,5.0,5.0,752.0839919998252,8.0,1.0,phase_2,go,650.0,600.0,1.0,,,,,,,,,gray,diamond
0.0,4.0,4.0,0.0,5.0,5.0,847.8664099993694,8.0,1.0,phase_2,go,650.0,600.0,1.0,,,,,,,,,green,flipped triangle
0.0,3.0,2.0,0.0,6.0,6.0,782.9924750003556,8.0,1.0,phase_2,go,650.0,600.0,1.0,,,,,,,,,cyan,hexagon
0.0,8.0,4.0,1.0,5.0,0.0,0.0,8.0,1.0,phase_2,stop,650.0,600.0,4.0,,,,,,,,,white,I
0.0,6.0,1.0,1.0,5.0,5.0,739.7880890002853,8.0,1.0,phase_2,stop,700.0,600.0,3.0,,,,,,,,,blue,cross
0.0,5.0,0.5,1.0,6.0,0.0,0.0,8.0,1.0,phase_2,stop,650.0,600.0,4.0,,,,,,,,,yellow,square
0.0,5.0,0.5,1.0,5.0,5.0,801.6160850002052,8.0,1.0,phase_2,go,650.0,650.0,1.0,,,,,,,,,yellow,square
0.0,5.0,0.5,1.0,5.0,0.0,0.0,8.0,1.0,phase_2,stop,650.0,650.0,4.0,,,,,,,,,yellow,square
0.0,1.0,0.5,0.0,6.0,6.0,831.4828680004211,8.0,1.0,phase_2,go,700.0,650.0,1.0,,,,,,,,,magenta,circle
0.0,8.0,4.0,1.0,6.0,6.0,410.5259170000863,8.0,1.0,phase_2,stop,700.0,650.0,3.0,,,,,,,,,white,I
0.0,3.0,2.0,0.0,5.0,5.0,550.3306749997137,8.0,1.0,phase_2,go,700.0,600.0,1.0,,,,,,,,,cyan,hexagon
0.0,5.0,0.5,1.0,5.0,0.0,0.0,8.0,1.0,phase_2,stop,700.0,600.0,4.0,,,,,,,,,yellow,square
0.0,7.0,2.0,1.0,6.0,6.0,1174.7565359992225,8.0,1.0,phase_2,go,750.0,600.0,1.0,,,,,,,,,orange,triangle
0.0,7.0,2.0,1.0,5.0,5.0,798.8885670001764,8.0,1.0,phase_2,stop,750.0,600.0,3.0,,,,,,,,,orange,triangle
0.0,2.0,1.0,0.0,5.0,5.0,366.2684740002078,8.0,1.0,phase_2,go,700.0,600.0,1.0,,,,,,,,,gray,diamond
0.0,2.0,1.0,0.0,6.0,6.0,947.8535620000912,8.0,1.0,phase_2,go,700.0,600.0,1.0,,,,,,,,,gray,diamond
0.0,2.0,1.0,0.0,6.0,6.0,797.5689980003153,8.0,1.0,phase_2,go,700.0,600.0,1.0,,,,,,,,,gray,diamond
0.0,3.0,2.0,0.0,6.0,6.0,931.3653899998826,8.0,1.0,phase_2,go,700.0,600.0,1.0,,,,,,,,,cyan,hexagon
0.0,8.0,4.0,1.0,5.0,5.0,752.7876519998244,8.0,1.0,phase_2,stop,700.0,600.0,3.0,,,,,,,,,white,I
0.0,4.0,4.0,0.0,5.0,5.0,678.41102499915,8.0,1.0,phase_2,go,650.0,600.0,1.0,,,,,,,,,green,flipped triangle
0.0,2.0,1.0,0.0,5.0,5.0,354.6412119994784,8.0,1.0,phase_2,go,650.0,600.0,1.0,,,,,,,,,gray,diamond
0.0,3.0,2.0,0.0,5.0,5.0,512.7345320006498,8.0,1.0,phase_2,go,650.0,600.0,1.0,,,,,,,,,cyan,hexagon
0.0,2.0,1.0,0.0,6.0,6.0,892.45820799988,8.0,1.0,phase_2,go,650.0,600.0,1.0,,,,,,,,,gray,diamond
0.0,4.0,4.0,0.0,6.0,6.0,420.1167139999597,8.0,1.0,phase_2,go,650.0,600.0,1.0,,,,,,,,,green,flipped triangle
0.0,5.0,0.5,1.0,6.0,0.0,0.0,8.0,1.0,phase_2,stop,650.0,600.0,4.0,,,,,,,,,yellow,square
0.0,7.0,2.0,1.0,6.0,6.0,728.5430560004897,8.0,1.0,phase_2,go,650.0,650.0,1.0,,,,,,,,,orange,triangle
0.0,7.0,2.0,1.0,6.0,0.0,0.0,8.0,1.0,phase_2,stop,650.0,650.0,4.0,,,,,,,,,orange,triangle
0.0,3.0,2.0,0.0,5.0,5.0,755.5339500004266,8.0,1.0,phase_2,go,650.0,700.0,1.0,,,,,,,,,cyan,hexagon
0.0,7.0,2.0,1.0,5.0,0.0,0.0,8.0,1.0,phase_2,stop,650.0,700.0,4.0,,,,,,,,,orange,triangle
0.0,4.0,4.0,0.0,5.0,5.0,655.1509380005882,8.0,1.0,phase_2,go,700.0,700.0,1.0,,,,,,,,,green,flipped triangle
0.0,5.0,0.5,1.0,6.0,6.0,970.8157860004576,8.0,1.0,phase_2,go,700.0,700.0,1.0,,,,,,,,,yellow,square
0.0,8.0,4.0,1.0,5.0,5.0,913.1793799997469,8.0,1.0,phase_2,go,700.0,700.0,1.0,,,,,,,,,white,I
0.0,2.0,1.0,0.0,6.0,6.0,559.7195540003668,8.0,1.0,phase_2,go,700.0,700.0,1.0,,,,,,,,,gray,diamond
0.0,5.0,0.5,1.0,7.0,4.0,1649.1611580004246,1.0,1.0,phase_3,,,,,405.0,3.0,810.0,135.0,270.0,405.0,675.0,540.0,yellow,square
0.0,8.0,4.0,1.0,7.0,2.0,813.5375130004832,1.0,1.0,phase_3,,,,,692.0,4.0,346.0,692.0,865.0,173.0,1038.0,519.0,white,I
0.0,3.0,2.0,0.0,7.0,5.0,527.9190780001954,1.0,1.0,phase_3,,,,,173.0,1.0,1038.0,346.0,865.0,692.0,173.0,519.0,cyan,hexagon
0.0,4.0,4.0,0.0,7.0,2.0,1044.914867999978,1.0,1.0,phase_3,,,,,346.0,2.0,1038.0,346.0,173.0,692.0,519.0,865.0,green,flipped triangle
0.0,6.0,1.0,1.0,7.0,5.0,1469.084567000209,1.0,1.0,phase_3,,,,,616.0,4.0,924.0,154.0,462.0,770.0,616.0,308.0,blue,cross
0.0,2.0,1.0,0.0,7.0,1.0,1128.850760000205,1.0,1.0,phase_3,,,,,1038.0,6.0,1038.0,692.0,173.0,519.0,346.0,865.0,gray,diamond
0.0,3.0,2.0,0.0,7.0,2.0,1037.5250649994996,1.0,1.0,phase_3,,,,,464.0,4.0,348.0,464.0,580.0,116.0,696.0,232.0,cyan,hexagon
0.0,6.0,1.0,1.0,7.0,3.0,1658.463412999481,1.0,1.0,phase_3,,,,,580.0,5.0,348.0,696.0,580.0,116.0,464.0,232.0,blue,cross
0.0,7.0,2.0,1.0,7.0,5.0,1332.7097040000808,1.0,1.0,phase_3,,,,,924.0,6.0,308.0,462.0,154.0,616.0,924.0,770.0,orange,triangle
0.0,1.0,0.5,0.0,7.0,2.0,1304.798713999844,1.0,1.0,phase_3,,,,,405.0,3.0,135.0,405.0,270.0,810.0,675.0,540.0,magenta,circle
0.0,5.0,0.5,1.0,7.0,5.0,850.5241259999821,1.0,1.0,phase_3,,,,,192.0,1.0,576.0,1152.0,960.0,384.0,192.0,768.0,yellow,square
0.0,2.0,1.0,0.0,7.0,5.0,1118.0409210001017,1.0,1.0,phase_3,,,,,1152.0,6.0,768.0,960.0,192.0,384.0,1152.0,576.0,gray,diamond
0.0,8.0,4.0,1.0,7.0,4.0,1359.4360669994785,1.0,1.0,phase_3,,,,,696.0,6.0,464.0,116.0,348.0,696.0,232.0,580.0,white,I
0.0,7.0,2.0,1.0,7.0,6.0,1475.3023540006325,1.0,1.0,phase_3,,,,,810.0,6.0,540.0,270.0,405.0,675.0,135.0,810.0,orange,triangle
0.0,5.0,0.5,1.0,7.0,2.0,1246.7872580000403,1.0,1.0,phase_3,,,,,135.0,1.0,810.0,135.0,540.0,405.0,270.0,675.0,yellow,square
0.0,5.0,0.5,1.0,7.0,5.0,1543.9706099996329,1.0,1.0,phase_3,,,,,116.0,1.0,696.0,580.0,348.0,232.0,116.0,464.0,yellow,square
0.0,1.0,0.5,0.0,7.0,3.0,2010.0429690000965,1.0,1.0,phase_3,,,,,519.0,3.0,173.0,1038.0,519.0,692.0,865.0,346.0,magenta,circle
0.0,6.0,1.0,1.0,7.0,2.0,2495.8040430001347,1.0,1.0,phase_3,,,,,576.0,3.0,384.0,576.0,1152.0,192.0,960.0,768.0,blue,cross
0.0,6.0,1.0,1.0,7.0,5.0,2216.9145320003736,1.0,1.0,phase_3,,,,,540.0,4.0,810.0,405.0,675.0,270.0,540.0,135.0,blue,cross
0.0,3.0,2.0,0.0,7.0,3.0,2461.268250000103,1.0,1.0,phase_3,,,,,270.0,2.0,135.0,540.0,270.0,810.0,675.0,405.0,cyan,hexagon
0.0,2.0,1.0,0.0,7.0,5.0,1182.1230710002055,2.0,1.0,phase_3,,,,,770.0,5.0,924.0,308.0,616.0,154.0,770.0,462.0,gray,diamond
0.0,8.0,4.0,1.0,7.0,1.0,1395.5796379996173,2.0,1.0,phase_3,,,,,308.0,2.0,308.0,616.0,770.0,924.0,462.0,154.0,white,I
0.0,2.0,1.0,0.0,7.0,2.0,977.8449119994548,2.0,1.0,phase_3,,,,,696.0,6.0,464.0,696.0,348.0,580.0,116.0,232.0,gray,diamond
0.0,6.0,1.0,1.0,7.0,5.0,849.9050210002679,2.0,1.0,phase_3,,,,,865.0,5.0,346.0,519.0,1038.0,692.0,865.0,173.0,blue,cross
0.0,1.0,0.5,0.0,7.0,6.0,978.6370379997608,2.0,1.0,phase_3,,,,,810.0,6.0,270.0,135.0,405.0,675.0,540.0,810.0,magenta,circle
0.0,2.0,1.0,0.0,7.0,5.0,1589.7873279991472,2.0,1.0,phase_3,,,,,810.0,6.0,135.0,540.0,270.0,405.0,810.0,675.0,gray,diamond
0.0,4.0,4.0,0.0,7.0,2.0,1744.8045149994869,2.0,1.0,phase_3,,,,,135.0,1.0,675.0,135.0,270.0,540.0,405.0,810.0,green,flipped triangle
0.0,7.0,2.0,1.0,7.0,2.0,1274.428968000393,2.0,1.0,phase_3,,,,,865.0,5.0,692.0,865.0,519.0,1038.0,346.0,173.0,orange,triangle
0.0,6.0,1.0,1.0,7.0,2.0,1203.8909519997103,2.0,1.0,phase_3,,,,,270.0,2.0,540.0,270.0,810.0,135.0,675.0,405.0,blue,cross
0.0,3.0,2.0,0.0,7.0,5.0,1711.730021000221,2.0,1.0,phase_3,,,,,346.0,2.0,865.0,692.0,1038.0,173.0,346.0,519.0,cyan,hexagon
0.0,4.0,4.0,0.0,7.0,5.0,979.1929129996788,2.0,1.0,phase_3,,,,,192.0,1.0,960.0,768.0,576.0,384.0,192.0,1152.0,green,flipped triangle
0.0,5.0,0.5,1.0,7.0,4.0,2771.962083999824,2.0,1.0,phase_3,,,,,173.0,1.0,865.0,519.0,692.0,173.0,346.0,1038.0,yellow,square
0.0,4.0,4.0,0.0,7.0,5.0,1142.1148370000085,2.0,1.0,phase_3,,,,,173.0,1.0,692.0,346.0,865.0,519.0,173.0,1038.0,green,flipped triangle
0.0,3.0,2.0,0.0,7.0,2.0,970.567564000703,2.0,1.0,phase_3,,,,,924.0,6.0,308.0,924.0,770.0,616.0,462.0,154.0,cyan,hexagon
0.0,5.0,0.5,1.0,7.0,6.0,1228.9448339997762,2.0,1.0,phase_3,,,,,173.0,1.0,519.0,865.0,1038.0,692.0,346.0,173.0,yellow,square
0.0,3.0,2.0,0.0,7.0,4.0,1578.5837160001392,2.0,1.0,phase_3,,,,,270.0,2.0,540.0,810.0,675.0,270.0,135.0,405.0,cyan,hexagon
0.0,7.0,2.0,1.0,7.0,5.0,1818.2209019996665,2.0,1.0,phase_3,,,,,696.0,6.0,348.0,580.0,116.0,464.0,696.0,232.0,orange,triangle
0.0,2.0,1.0,0.0,7.0,1.0,1846.6285479998987,2.0,1.0,phase_3,,,,,696.0,6.0,696.0,580.0,116.0,348.0,464.0,232.0,gray,diamond
0.0,1.0,0.5,0.0,7.0,5.0,1016.273509999337,2.0,1.0,phase_3,,,,,1038.0,6.0,519.0,173.0,865.0,692.0,1038.0,346.0,magenta,circle
0.0,2.0,1.0,0.0,7.0,2.0,933.2781550001528,2.0,1.0,phase_3,,,,,1152.0,6.0,192.0,1152.0,960.0,384.0,768.0,576.0,gray,diamond
0.0,3.0,2.0,0.0,7.0,4.0,796.247296000729,3.0,1.0,phase_3,,,,,770.0,5.0,308.0,154.0,462.0,770.0,616.0,924.0,cyan,hexagon
0.0,8.0,4.0,1.0,7.0,5.0,712.1672690000196,3.0,1.0,phase_3,,,,,173.0,1.0,346.0,1038.0,519.0,692.0,173.0,865.0,white,I
0.0,5.0,0.5,1.0,7.0,3.0,1613.2920720001491,3.0,1.0,phase_3,,,,,154.0,1.0,924.0,616.0,154.0,462.0,770.0,308.0,yellow,square
0.0,4.0,4.0,0.0,7.0,5.0,939.175815999988,3.0,1.0,phase_3,,,,,405.0,3.0,810.0,540.0,270.0,675.0,405.0,135.0,green,flipped triangle
0.0,8.0,4.0,1.0,7.0,1.0,916.2527440003032,3.0,1.0,phase_3,,,,,1152.0,6.0,1152.0,384.0,960.0,576.0,768.0,192.0,white,I
0.0,7.0,2.0,1.0,7.0,2.0,740.4390940000667,3.0,1.0,phase_3,,,,,1152.0,6.0,768.0,1152.0,960.0,384.0,576.0,192.0,orange,triangle
0.0,1.0,0.5,0.0,7.0,3.0,1726.6053909997936,3.0,1.0,phase_3,,,,,960.0,5.0,576.0,768.0,960.0,1152.0,384.0,192.0,magenta,circle
0.0,2.0,1.0,0.0,7.0,2.0,1189.63395999981,3.0,1.0,phase_3,,,,,675.0,5.0,270.0,675.0,135.0,405.0,540.0,810.0,gray,diamond
0.0,7.0,2.0,1.0,7.0,6.0,830.6677239997953,3.0,1.0,phase_3,,,,,1038.0,6.0,519.0,173.0,692.0,346.0,865.0,1038.0,orange,triangle
0.0,4.0,4.0,0.0,7.0,6.0,979.4007719992806,3.0,1.0,phase_3,,,,,154.0,1.0,308.0,616.0,462.0,924.0,770.0,154.0,green,flipped triangle
0.0,1.0,0.5,0.0,7.0,6.0,1312.4940090001471,3.0,1.0,phase_3,,,,,616.0,4.0,924.0,154.0,770.0,462.0,308.0,616.0,magenta,circle
0.0,3.0,2.0,0.0,7.0,5.0,1659.604735999892,3.0,1.0,phase_3,,,,,576.0,3.0,384.0,1152.0,768.0,192.0,576.0,960.0,cyan,hexagon
0.0,3.0,2.0,0.0,7.0,2.0,759.1485719995035,3.0,1.0,phase_3,,,,,696.0,6.0,116.0,696.0,232.0,580.0,348.0,464.0,cyan,hexagon
0.0,7.0,2.0,1.0,7.0,4.0,1385.760484000457,3.0,1.0,phase_3,,,,,810.0,6.0,135.0,540.0,675.0,810.0,405.0,270.0,orange,triangle
0.0,1.0,0.5,0.0,7.0,1.0,1024.0035329998136,3.0,1.0,phase_3,,,,,696.0,6.0,696.0,116.0,464.0,348.0,580.0,232.0,magenta,circle
0.0,5.0,0.5,1.0,7.0,5.0,986.040141000558,3.0,1.0,phase_3,,,,,384.0,2.0,960.0,768.0,1152.0,192.0,384.0,576.0,yellow,square
0.0,1.0,0.5,0.0,7.0,5.0,1211.82238900019,3.0,1.0,phase_3,,,,,770.0,5.0,308.0,616.0,924.0,154.0,770.0,462.0,magenta,circle
0.0,7.0,2.0,1.0,7.0,1.0,1006.8539470003088,3.0,1.0,phase_3,,,,,768.0,4.0,768.0,576.0,384.0,960.0,192.0,1152.0,orange,triangle
0.0,2.0,1.0,0.0,7.0,2.0,998.4062470002756,3.0,1.0,phase_3,,,,,770.0,5.0,308.0,770.0,616.0,462.0,154.0,924.0,gray,diamond
0.0,3.0,2.0,0.0,7.0,6.0,1025.23455499977,3.0,1.0,phase_3,,,,,1152.0,6.0,192.0,960.0,576.0,768.0,384.0,1152.0,cyan,hexagon
0.0,4.0,4.0,0.0,7.0,3.0,1375.758491999477,4.0,1.0,phase_3,,,,,192.0,1.0,384.0,1152.0,192.0,960.0,768.0,576.0,green,flipped triangle
0.0,7.0,2.0,1.0,7.0,1.0,1969.0834479997648,4.0,1.0,phase_3,,,,,696.0,6.0,696.0,348.0,464.0,232.0,580.0,116.0,orange,triangle
0.0,8.0,4.0,1.0,7.0,5.0,600.614931000564,4.0,1.0,phase_3,,,,,1152.0,6.0,384.0,768.0,576.0,192.0,1152.0,960.0,white,I
0.0,8.0,4.0,1.0,7.0,4.0,2123.6926189994847,4.0,1.0,phase_3,,,,,696.0,6.0,464.0,116.0,348.0,696.0,580.0,232.0,white,I
0.0,8.0,4.0,1.0,7.0,2.0,1384.5019039999895,4.0,1.0,phase_3,,,,,770.0,5.0,308.0,770.0,924.0,154.0,462.0,616.0,white,I
0.0,4.0,4.0,0.0,7.0,5.0,2006.1990590002097,4.0,1.0,phase_3,,,,,154.0,1.0,308.0,770.0,616.0,462.0,154.0,924.0,green,flipped triangle
0.0,1.0,0.5,0.0,7.0,6.0,1680.4668650001986,4.0,1.0,phase_3,,,,,576.0,3.0,960.0,384.0,1152.0,192.0,768.0,576.0,magenta,circle
0.0,5.0,0.5,1.0,7.0,4.0,776.2785799995982,4.0,1.0,phase_3,,,,,154.0,1.0,462.0,616.0,308.0,154.0,924.0,770.0,yellow,square
0.0,8.0,4.0,1.0,7.0,2.0,1200.9590510006092,4.0,1.0,phase_3,,,,,675.0,5.0,135.0,675.0,540.0,270.0,810.0,405.0,white,I
0.0,6.0,1.0,1.0,7.0,5.0,1034.7403750001831,4.0,1.0,phase_3,,,,,1038.0,6.0,519.0,173.0,865.0,692.0,1038.0,346.0,blue,cross
0.0,1.0,0.5,0.0,7.0,4.0,1026.538875999904,4.0,1.0,phase_3,,,,,348.0,3.0,116.0,232.0,696.0,348.0,464.0,580.0,magenta,circle
0.0,5.0,0.5,1.0,7.0,5.0,943.8572910003132,4.0,1.0,phase_3,,,,,116.0,1.0,464.0,696.0,232.0,348.0,116.0,580.0,yellow,square
0.0,8.0,4.0,1.0,7.0,3.0,1210.3437559999293,4.0,1.0,phase_3,,,,,810.0,6.0,675.0,405.0,810.0,270.0,540.0,135.0,white,I
0.0,6.0,1.0,1.0,7.0,5.0,858.8489060002757,4.0,1.0,phase_3,,,,,770.0,5.0,462.0,308.0,616.0,924.0,770.0,154.0,blue,cross
0.0,4.0,4.0,0.0,7.0,2.0,757.4701769999592,4.0,1.0,phase_3,,,,,464.0,4.0,580.0,464.0,696.0,232.0,348.0,116.0,green,flipped triangle
0.0,6.0,1.0,1.0,7.0,4.0,1201.951721000114,4.0,1.0,phase_3,,,,,1152.0,6.0,768.0,384.0,576.0,1152.0,192.0,960.0,blue,cross
0.0,7.0,2.0,1.0,7.0,6.0,1116.513588000089,4.0,1.0,phase_3,,,,,616.0,4.0,154.0,308.0,770.0,462.0,924.0,616.0,orange,triangle
0.0,4.0,4.0,0.0,7.0,2.0,877.1931970004516,4.0,1.0,phase_3,,,,,116.0,1.0,348.0,116.0,232.0,464.0,580.0,696.0,green,flipped triangle
0.0,6.0,1.0,1.0,7.0,4.0,1108.4399310002482,4.0,1.0,phase_3,,,,,696.0,6.0,580.0,116.0,232.0,696.0,348.0,464.0,blue,cross
0.0,2.0,1.0,0.0,7.0,5.0,1154.1833460005364,4.0,1.0,phase_3,,,,,1038.0,6.0,173.0,692.0,519.0,346.0,1038.0,865.0,gray,diamond
