raw_reward_magnitude,stim_reward,stepwise_reward_magnitude,paired_with_stopping,stim_location,response,reaction_time,block,num_trial_presentations,which_phase,stop_signal_trial_type,left_SSD,right_SSD,accuracy,chosen_bidding_amount,chosen_bidding_level,possible_bid_1,possible_bid_2,possible_bid_3,possible_bid_4,possible_bid_5,possible_bid_6,color_text,shape_text
0.0,7.0,0.0,1.0,4.0,4.0,582.8418839992082,1.0,1.0,phase_1,,,,,,,,,,,,,magenta,cross
1307.0,8.0,4.0,1.0,3.0,3.0,351.0472910002136,1.0,1.0,phase_1,,,,,,,,,,,,,green,circle
345.0,2.0,1.0,0.0,3.0,3.0,305.700644999888,1.0,1.0,phase_1,,,,,,,,,,,,,blue,hexagon
320.0,6.0,1.0,1.0,2.0,2.0,471.990605999963,1.0,1.0,phase_1,,,,,,,,,,,,,yellow,triangle
174.0,1.0,0.5,0.0,2.0,2.0,778.7379379997219,1.0,1.0,phase_1,,,,,,,,,,,,,cyan,flipped triangle
635.0,3.0,2.0,0.0,4.0,4.0,342.0261800001754,1.0,1.0,phase_1,,,,,,,,,,,,,white,square
340.0,6.0,1.0,1.0,3.0,3.0,378.5837989998981,1.0,1.0,phase_1,,,,,,,,,,,,,yellow,triangle
306.0,6.0,1.0,1.0,2.0,2.0,620.0071840003147,1.0,1.0,phase_1,,,,,,,,,,,,,yellow,triangle
1300.0,4.0,4.0,0.0,4.0,4.0,397.6603390001401,1.0,1.0,phase_1,,,,,,,,,,,,,orange,diamond
0.0,2.0,0.0,0.0,3.0,3.0,359.3423559996154,1.0,1.0,phase_1,,,,,,,,,,,,,blue,hexagon
157.0,5.0,0.5,1.0,2.0,2.0,553.865582999606,1.0,1.0,phase_1,,,,,,,,,,,,,gray,I
650.0,7.0,2.0,1.0,3.0,3.0,388.5508829998798,1.0,1.0,phase_1,,,,,,,,,,,,,magenta,cross
343.0,6.0,1.0,1.0,3.0,3.0,314.7619539995503,1.0,1.0,phase_1,,,,,,,,,,,,,yellow,triangle
637.0,7.0,2.0,1.0,1.0,1.0,529.1631000000052,1.0,2.0,phase_1,,,,,,,,,,,,,magenta,cross
0.0,8.0,0.0,1.0,3.0,3.0,351.9810120005786,1.0,1.0,phase_1,,,,,,,,,,,,,green,circle
146.0,5.0,0.5,1.0,4.0,4.0,417.4699810000675,1.0,1.0,phase_1,,,,,,,,,,,,,gray,I
1311.0,4.0,4.0,0.0,1.0,1.0,610.7880939998722,1.0,1.0,phase_1,,,,,,,,,,,,,orange,diamond
0.0,7.0,0.0,1.0,4.0,4.0,637.1161240003858,1.0,1.0,phase_1,,,,,,,,,,,,,magenta,cross
1309.0,8.0,4.0,1.0,1.0,1.0,637.15778400001,1.0,1.0,phase_1,,,,,,,,,,,,,green,circle
1318.0,8.0,4.0,1.0,1.0,1.0,563.9070879997234,1.0,1.0,phase_1,,,,,,,,,,,,,green,circle
635.0,7.0,2.0,1.0,2.0,2.0,545.3736720000961,1.0,1.0,phase_1,,,,,,,,,,,,,magenta,cross
0.0,7.0,0.0,1.0,2.0,2.0,464.3599819992232,1.0,1.0,phase_1,,,,,,,,,,,,,magenta,cross
652.0,3.0,2.0,0.0,2.0,2.0,500.84450600024866,1.0,1.0,phase_1,,,,,,,,,,,,,white,square
670.0,7.0,2.0,1.0,3.0,3.0,417.4558960003196,1.0,1.0,phase_1,,,,,,,,,,,,,magenta,cross
1308.0,4.0,4.0,0.0,2.0,2.0,564.6803780000482,1.0,1.0,phase_1,,,,,,,,,,,,,orange,diamond
165.0,1.0,0.5,0.0,1.0,1.0,620.1855039998918,1.0,1.0,phase_1,,,,,,,,,,,,,cyan,flipped triangle
656.0,3.0,2.0,0.0,1.0,1.0,399.0264859994568,1.0,1.0,phase_1,,,,,,,,,,,,,white,square
0.0,5.0,0.0,1.0,2.0,2.0,388.40408499982,1.0,1.0,phase_1,,,,,,,,,,,,,gray,I
177.0,1.0,0.5,0.0,1.0,1.0,286.4834209995024,1.0,1.0,phase_1,,,,,,,,,,,,,cyan,flipped triangle
1285.0,8.0,4.0,1.0,4.0,4.0,426.882120999835,1.0,1.0,phase_1,,,,,,,,,,,,,green,circle
0.0,5.0,0.0,1.0,2.0,2.0,398.4502860002976,1.0,1.0,phase_1,,,,,,,,,,,,,gray,I
165.0,1.0,0.5,0.0,3.0,3.0,419.8652499999298,1.0,1.0,phase_1,,,,,,,,,,,,,cyan,flipped triangle
0.0,1.0,0.0,0.0,4.0,4.0,333.115371000531,1.0,1.0,phase_1,,,,,,,,,,,,,cyan,flipped triangle
1318.0,4.0,4.0,0.0,2.0,2.0,425.3302180004539,1.0,1.0,phase_1,,,,,,,,,,,,,orange,diamond
300.0,2.0,1.0,0.0,1.0,1.0,352.272341000571,1.0,1.0,phase_1,,,,,,,,,,,,,blue,hexagon
652.0,7.0,2.0,1.0,2.0,2.0,464.0023170004497,1.0,1.0,phase_1,,,,,,,,,,,,,magenta,cross
1296.0,4.0,4.0,0.0,1.0,1.0,287.934949999908,1.0,1.0,phase_1,,,,,,,,,,,,,orange,diamond
655.0,3.0,2.0,0.0,1.0,1.0,509.09516100000474,1.0,1.0,phase_1,,,,,,,,,,,,,white,square
638.0,7.0,2.0,1.0,3.0,3.0,482.0743929994933,1.0,1.0,phase_1,,,,,,,,,,,,,magenta,cross
1298.0,4.0,4.0,0.0,3.0,3.0,381.7303349997019,1.0,1.0,phase_1,,,,,,,,,,,,,orange,diamond
1297.0,4.0,4.0,0.0,4.0,4.0,389.7717370000464,1.0,1.0,phase_1,,,,,,,,,,,,,orange,diamond
139.0,5.0,0.5,1.0,2.0,2.0,607.1203290002813,1.0,1.0,phase_1,,,,,,,,,,,,,gray,I
644.0,3.0,2.0,0.0,1.0,1.0,463.1382870002198,1.0,1.0,phase_1,,,,,,,,,,,,,white,square
169.0,5.0,0.5,1.0,4.0,4.0,369.9564700000337,1.0,1.0,phase_1,,,,,,,,,,,,,gray,I
157.0,1.0,0.5,0.0,3.0,3.0,361.3647680003851,1.0,1.0,phase_1,,,,,,,,,,,,,cyan,flipped triangle
0.0,6.0,0.0,1.0,2.0,2.0,574.647090000326,1.0,1.0,phase_1,,,,,,,,,,,,,yellow,triangle
647.0,3.0,2.0,0.0,4.0,4.0,527.1858420001081,1.0,1.0,phase_1,,,,,,,,,,,,,white,square
0.0,2.0,0.0,0.0,4.0,4.0,426.1660299998766,1.0,1.0,phase_1,,,,,,,,,,,,,blue,hexagon
628.0,3.0,2.0,0.0,4.0,4.0,343.0862920004074,1.0,1.0,phase_1,,,,,,,,,,,,,white,square
0.0,8.0,0.0,1.0,4.0,4.0,343.3218710006258,1.0,1.0,phase_1,,,,,,,,,,,,,green,circle
0.0,2.0,0.0,0.0,4.0,4.0,323.9146080004502,1.0,1.0,phase_1,,,,,,,,,,,,,blue,hexagon
0.0,6.0,0.0,1.0,4.0,4.0,287.3872850004773,1.0,1.0,phase_1,,,,,,,,,,,,,yellow,triangle
0.0,8.0,0.0,1.0,1.0,1.0,572.5632270005008,1.0,1.0,phase_1,,,,,,,,,,,,,green,circle
651.0,7.0,2.0,1.0,4.0,4.0,509.6657920003054,1.0,1.0,phase_1,,,,,,,,,,,,,magenta,cross
0.0,2.0,0.0,0.0,4.0,4.0,361.8566809991534,1.0,1.0,phase_1,,,,,,,,,,,,,blue,hexagon
300.0,6.0,1.0,1.0,2.0,2.0,427.0480919994952,1.0,2.0,phase_1,,,,,,,,,,,,,yellow,triangle
1303.0,8.0,4.0,1.0,4.0,4.0,398.3870440006285,1.0,1.0,phase_1,,,,,,,,,,,,,green,circle
1276.0,4.0,4.0,0.0,2.0,2.0,435.1158669996948,1.0,1.0,phase_1,,,,,,,,,,,,,orange,diamond
312.0,2.0,1.0,0.0,3.0,3.0,434.140393999769,1.0,1.0,phase_1,,,,,,,,,,,,,blue,hexagon
345.0,2.0,1.0,0.0,1.0,1.0,600.3139099993859,1.0,1.0,phase_1,,,,,,,,,,,,,blue,hexagon
184.0,5.0,0.5,1.0,2.0,2.0,722.0106659997327,1.0,1.0,phase_1,,,,,,,,,,,,,gray,I
0.0,7.0,0.0,1.0,1.0,1.0,481.8259769999713,1.0,1.0,phase_1,,,,,,,,,,,,,magenta,cross
0.0,5.0,0.0,1.0,4.0,4.0,509.2235060001258,1.0,1.0,phase_1,,,,,,,,,,,,,gray,I
165.0,5.0,0.5,1.0,3.0,3.0,435.7327180005086,1.0,1.0,phase_1,,,,,,,,,,,,,gray,I
141.0,5.0,0.5,1.0,3.0,3.0,408.3400950003124,1.0,1.0,phase_1,,,,,,,,,,,,,gray,I
1311.0,8.0,4.0,1.0,1.0,1.0,538.3387299998503,1.0,1.0,phase_1,,,,,,,,,,,,,green,circle
152.0,1.0,0.5,0.0,1.0,1.0,546.136077000483,1.0,1.0,phase_1,,,,,,,,,,,,,cyan,flipped triangle
141.0,1.0,0.5,0.0,4.0,4.0,620.928169999388,1.0,1.0,phase_1,,,,,,,,,,,,,cyan,flipped triangle
662.0,7.0,2.0,1.0,3.0,3.0,463.4481820003202,1.0,1.0,phase_1,,,,,,,,,,,,,magenta,cross
671.0,7.0,2.0,1.0,1.0,1.0,629.4544820002557,1.0,1.0,phase_1,,,,,,,,,,,,,magenta,cross
649.0,3.0,2.0,0.0,1.0,1.0,611.6812640002536,1.0,1.0,phase_1,,,,,,,,,,,,,white,square
341.0,6.0,1.0,1.0,3.0,3.0,452.4308179998115,1.0,1.0,phase_1,,,,,,,,,,,,,yellow,triangle
320.0,2.0,1.0,0.0,2.0,2.0,840.3093229999286,1.0,1.0,phase_1,,,,,,,,,,,,,blue,hexagon
1279.0,8.0,4.0,1.0,4.0,4.0,546.1867809999603,1.0,1.0,phase_1,,,,,,,,,,,,,green,circle
0.0,5.0,0.0,1.0,2.0,2.0,629.1316880005979,1.0,1.0,phase_1,,,,,,,,,,,,,gray,I
303.0,2.0,1.0,0.0,2.0,2.0,620.2678259996901,1.0,1.0,phase_1,,,,,,,,,,,,,blue,hexagon
1306.0,4.0,4.0,0.0,1.0,1.0,527.241179000157,1.0,1.0,phase_1,,,,,,,,,,,,,orange,diamond
350.0,6.0,1.0,1.0,1.0,1.0,546.5692729994771,1.0,1.0,phase_1,,,,,,,,,,,,,yellow,triangle
325.0,2.0,1.0,0.0,4.0,4.0,435.7842670005993,1.0,1.0,phase_1,,,,,,,,,,,,,blue,hexagon
659.0,3.0,2.0,0.0,1.0,1.0,362.0757290000256,1.0,1.0,phase_1,,,,,,,,,,,,,white,square
0.0,4.0,0.0,0.0,1.0,1.0,491.3876440004969,1.0,1.0,phase_1,,,,,,,,,,,,,orange,diamond
0.0,6.0,0.0,1.0,1.0,1.0,453.1003069996586,1.0,1.0,phase_1,,,,,,,,,,,,,yellow,triangle
0.0,5.0,0.0,1.0,2.0,2.0,666.3088839995908,1.0,1.0,phase_1,,,,,,,,,,,,,gray,I
305.0,6.0,1.0,1.0,1.0,1.0,472.6555819997884,1.0,1.0,phase_1,,,,,,,,,,,,,yellow,triangle
1286.0,8.0,4.0,1.0,2.0,2.0,343.2000760003575,1.0,1.0,phase_1,,,,,,,,,,,,,green,circle
1318.0,8.0,4.0,1.0,2.0,2.0,526.8945409998196,1.0,1.0,phase_1,,,,,,,,,,,,,green,circle
1294.0,4.0,4.0,0.0,3.0,3.0,444.6503030003441,1.0,1.0,phase_1,,,,,,,,,,,,,orange,diamond
1303.0,8.0,4.0,1.0,4.0,4.0,509.1467920001378,1.0,1.0,phase_1,,,,,,,,,,,,,green,circle
1303.0,4.0,4.0,0.0,4.0,4.0,445.0508279996938,1.0,1.0,phase_1,,,,,,,,,,,,,orange,diamond
151.0,1.0,0.5,0.0,2.0,2.0,482.5157400000535,1.0,1.0,phase_1,,,,,,,,,,,,,cyan,flipped triangle
342.0,6.0,1.0,1.0,4.0,4.0,379.6569740006816,1.0,1.0,phase_1,,,,,,,,,,,,,yellow,triangle
324.0,6.0,1.0,1.0,1.0,1.0,610.9983919996012,1.0,1.0,phase_1,,,,,,,,,,,,,yellow,triangle
0.0,5.0,0.0,1.0,2.0,2.0,518.9329160002671,1.0,1.0,phase_1,,,,,,,,,,,,,gray,I
345.0,6.0,1.0,1.0,1.0,1.0,444.3545690000974,1.0,1.0,phase_1,,,,,,,,,,,,,yellow,triangle
0.0,7.0,0.0,1.0,1.0,1.0,463.5497169992959,1.0,1.0,phase_1,,,,,,,,,,,,,magenta,cross
1312.0,4.0,4.0,0.0,3.0,3.0,529.1369950000444,1.0,1.0,phase_1,,,,,,,,,,,,,orange,diamond
643.0,7.0,2.0,1.0,3.0,3.0,429.228833999332,1.0,1.0,phase_1,,,,,,,,,,,,,magenta,cross
346.0,2.0,1.0,0.0,2.0,2.0,435.0384560002567,1.0,1.0,phase_1,,,,,,,,,,,,,blue,hexagon
152.0,5.0,0.5,1.0,4.0,4.0,390.1078230001076,1.0,1.0,phase_1,,,,,,,,,,,,,gray,I
659.0,7.0,2.0,1.0,1.0,1.0,315.014273000088,1.0,1.0,phase_1,,,,,,,,,,,,,magenta,cross
347.0,6.0,1.0,1.0,3.0,3.0,407.8875959994548,2.0,1.0,phase_1,,,,,,,,,,,,,yellow,triangle
665.0,3.0,2.0,0.0,2.0,2.0,676.2254129998837,2.0,1.0,phase_1,,,,,,,,,,,,,white,square
146.0,5.0,0.5,1.0,1.0,1.0,701.9298889999845,2.0,1.0,phase_1,,,,,,,,,,,,,gray,I
324.0,2.0,1.0,0.0,1.0,1.0,570.9148299993103,2.0,1.0,phase_1,,,,,,,,,,,,,blue,hexagon
0.0,3.0,0.0,0.0,2.0,2.0,286.9328090000635,2.0,1.0,phase_1,,,,,,,,,,,,,white,square
334.0,6.0,1.0,1.0,3.0,3.0,471.6738400002214,2.0,1.0,phase_1,,,,,,,,,,,,,yellow,triangle
185.0,5.0,0.5,1.0,3.0,3.0,415.925258000243,2.0,1.0,phase_1,,,,,,,,,,,,,gray,I
1286.0,4.0,4.0,0.0,3.0,3.0,323.6639460001242,2.0,1.0,phase_1,,,,,,,,,,,,,orange,diamond
665.0,3.0,2.0,0.0,3.0,3.0,351.838286000202,2.0,1.0,phase_1,,,,,,,,,,,,,white,square
326.0,2.0,1.0,0.0,4.0,4.0,470.7775349997973,2.0,1.0,phase_1,,,,,,,,,,,,,blue,hexagon
159.0,5.0,0.5,1.0,1.0,1.0,305.3687679994254,2.0,1.0,phase_1,,,,,,,,,,,,,gray,I
0.0,8.0,0.0,1.0,3.0,3.0,369.3588209998779,2.0,1.0,phase_1,,,,,,,,,,,,,green,circle
313.0,2.0,1.0,0.0,2.0,2.0,478.9929429998665,2.0,1.0,phase_1,,,,,,,,,,,,,blue,hexagon
157.0,5.0,0.5,1.0,4.0,4.0,490.8852480002679,2.0,1.0,phase_1,,,,,,,,,,,,,gray,I
171.0,5.0,0.5,1.0,3.0,3.0,351.2114189998101,2.0,1.0,phase_1,,,,,,,,,,,,,gray,I
0.0,2.0,0.0,0.0,4.0,4.0,323.4526969999933,2.0,1.0,phase_1,,,,,,,,,,,,,blue,hexagon
342.0,2.0,1.0,0.0,3.0,3.0,453.3943320002436,2.0,2.0,phase_1,,,,,,,,,,,,,blue,hexagon
0.0,6.0,0.0,1.0,4.0,4.0,463.4938819999661,2.0,1.0,phase_1,,,,,,,,,,,,,yellow,triangle
327.0,2.0,1.0,0.0,1.0,1.0,537.385089000054,2.0,1.0,phase_1,,,,,,,,,,,,,blue,hexagon
155.0,5.0,0.5,1.0,1.0,1.0,566.6687090006235,2.0,1.0,phase_1,,,,,,,,,,,,,gray,I
671.0,3.0,2.0,0.0,1.0,1.0,334.8379710005247,2.0,1.0,phase_1,,,,,,,,,,,,,white,square
0.0,1.0,0.0,0.0,3.0,3.0,353.3003789998474,2.0,1.0,phase_1,,,,,,,,,,,,,cyan,flipped triangle
0.0,4.0,0.0,0.0,2.0,2.0,454.7723650002808,2.0,2.0,phase_1,,,,,,,,,,,,,orange,diamond
171.0,1.0,0.5,0.0,1.0,1.0,471.4611270001114,2.0,1.0,phase_1,,,,,,,,,,,,,cyan,flipped triangle
0.0,2.0,0.0,0.0,4.0,4.0,527.4278229999254,2.0,1.0,phase_1,,,,,,,,,,,,,blue,hexagon
338.0,2.0,1.0,0.0,2.0,2.0,369.5672060002835,2.0,1.0,phase_1,,,,,,,,,,,,,blue,hexagon
184.0,1.0,0.5,0.0,1.0,1.0,350.9509120003713,2.0,1.0,phase_1,,,,,,,,,,,,,cyan,flipped triangle
1309.0,4.0,4.0,0.0,1.0,1.0,371.2070589999712,2.0,1.0,phase_1,,,,,,,,,,,,,orange,diamond
632.0,3.0,2.0,0.0,2.0,2.0,545.6355559999793,2.0,1.0,phase_1,,,,,,,,,,,,,white,square
1288.0,4.0,4.0,0.0,2.0,2.0,388.769510000202,2.0,1.0,phase_1,,,,,,,,,,,,,orange,diamond
647.0,7.0,2.0,1.0,4.0,4.0,565.5145949995131,2.0,2.0,phase_1,,,,,,,,,,,,,magenta,cross
0.0,1.0,0.0,0.0,4.0,4.0,582.5614509994921,2.0,1.0,phase_1,,,,,,,,,,,,,cyan,flipped triangle
350.0,2.0,1.0,0.0,4.0,4.0,416.5144030002921,2.0,1.0,phase_1,,,,,,,,,,,,,blue,hexagon
177.0,5.0,0.5,1.0,3.0,3.0,407.5374909998572,2.0,1.0,phase_1,,,,,,,,,,,,,gray,I
347.0,6.0,1.0,1.0,2.0,2.0,416.756691000046,2.0,1.0,phase_1,,,,,,,,,,,,,yellow,triangle
662.0,3.0,2.0,0.0,4.0,4.0,416.3102809998236,2.0,1.0,phase_1,,,,,,,,,,,,,white,square
1307.0,4.0,4.0,0.0,1.0,1.0,350.2122359996065,2.0,1.0,phase_1,,,,,,,,,,,,,orange,diamond
180.0,5.0,0.5,1.0,4.0,4.0,443.9856900007726,2.0,1.0,phase_1,,,,,,,,,,,,,gray,I
1318.0,4.0,4.0,0.0,1.0,1.0,627.7500080004756,2.0,1.0,phase_1,,,,,,,,,,,,,orange,diamond
328.0,6.0,1.0,1.0,4.0,4.0,434.5075080000242,2.0,1.0,phase_1,,,,,,,,,,,,,yellow,triangle
303.0,6.0,1.0,1.0,4.0,4.0,563.9975470003264,2.0,1.0,phase_1,,,,,,,,,,,,,yellow,triangle
1293.0,4.0,4.0,0.0,2.0,2.0,674.7337509996214,2.0,1.0,phase_1,,,,,,,,,,,,,orange,diamond
1280.0,8.0,4.0,1.0,3.0,3.0,435.8517159998882,2.0,1.0,phase_1,,,,,,,,,,,,,green,circle
301.0,2.0,1.0,0.0,3.0,3.0,387.8615830008129,2.0,1.0,phase_1,,,,,,,,,,,,,blue,hexagon
146.0,1.0,0.5,0.0,3.0,3.0,361.3027000001239,2.0,1.0,phase_1,,,,,,,,,,,,,cyan,flipped triangle
1279.0,4.0,4.0,0.0,3.0,3.0,327.0652939991123,2.0,1.0,phase_1,,,,,,,,,,,,,orange,diamond
629.0,3.0,2.0,0.0,4.0,4.0,425.594576999174,2.0,1.0,phase_1,,,,,,,,,,,,,white,square
0.0,8.0,0.0,1.0,3.0,3.0,452.8216099997735,2.0,1.0,phase_1,,,,,,,,,,,,,green,circle
306.0,2.0,1.0,0.0,4.0,4.0,363.4559849997458,2.0,1.0,phase_1,,,,,,,,,,,,,blue,hexagon
1283.0,4.0,4.0,0.0,4.0,4.0,407.6200700001209,2.0,1.0,phase_1,,,,,,,,,,,,,orange,diamond
333.0,2.0,1.0,0.0,2.0,2.0,361.4478939998662,2.0,1.0,phase_1,,,,,,,,,,,,,blue,hexagon
1308.0,8.0,4.0,1.0,2.0,2.0,622.0685259995662,2.0,1.0,phase_1,,,,,,,,,,,,,green,circle
318.0,6.0,1.0,1.0,3.0,3.0,451.865963000273,2.0,1.0,phase_1,,,,,,,,,,,,,yellow,triangle
1276.0,8.0,4.0,1.0,4.0,4.0,379.2633760003809,2.0,1.0,phase_1,,,,,,,,,,,,,green,circle
0.0,3.0,0.0,0.0,3.0,3.0,371.5711449995069,2.0,1.0,phase_1,,,,,,,,,,,,,white,square
0.0,6.0,0.0,1.0,2.0,2.0,286.7185240002072,2.0,1.0,phase_1,,,,,,,,,,,,,yellow,triangle
315.0,6.0,1.0,1.0,3.0,3.0,361.9398689997979,2.0,1.0,phase_1,,,,,,,,,,,,,yellow,triangle
1301.0,4.0,4.0,0.0,2.0,2.0,287.3941809993994,2.0,1.0,phase_1,,,,,,,,,,,,,orange,diamond
1319.0,4.0,4.0,0.0,2.0,2.0,555.5531859999974,2.0,1.0,phase_1,,,,,,,,,,,,,orange,diamond
1307.0,8.0,4.0,1.0,1.0,1.0,553.7854690001041,2.0,1.0,phase_1,,,,,,,,,,,,,green,circle
324.0,6.0,1.0,1.0,2.0,2.0,398.3002129998567,2.0,1.0,phase_1,,,,,,,,,,,,,yellow,triangle
176.0,5.0,0.5,1.0,4.0,4.0,620.1858430003995,2.0,1.0,phase_1,,,,,,,,,,,,,gray,I
1300.0,8.0,4.0,1.0,2.0,2.0,416.1198120000335,2.0,1.0,phase_1,,,,,,,,,,,,,green,circle
327.0,6.0,1.0,1.0,1.0,1.0,518.5771720007324,2.0,1.0,phase_1,,,,,,,,,,,,,yellow,triangle
305.0,6.0,1.0,1.0,4.0,4.0,425.7712509997873,2.0,1.0,phase_1,,,,,,,,,,,,,yellow,triangle
165.0,1.0,0.5,0.0,2.0,2.0,397.7808039999218,2.0,1.0,phase_1,,,,,,,,,,,,,cyan,flipped triangle
1322.0,4.0,4.0,0.0,3.0,3.0,471.6526170004727,2.0,1.0,phase_1,,,,,,,,,,,,,orange,diamond
157.0,1.0,0.5,0.0,4.0,4.0,425.5866630001037,2.0,1.0,phase_1,,,,,,,,,,,,,cyan,flipped triangle
0.0,3.0,0.0,0.0,2.0,2.0,323.5235840002133,2.0,1.0,phase_1,,,,,,,,,,,,,white,square
305.0,2.0,1.0,0.0,4.0,4.0,491.3718469997548,2.0,1.0,phase_1,,,,,,,,,,,,,blue,hexagon
315.0,6.0,1.0,1.0,2.0,2.0,536.951408999812,2.0,1.0,phase_1,,,,,,,,,,,,,yellow,triangle
0.0,8.0,0.0,1.0,4.0,4.0,619.3923809996704,2.0,1.0,phase_1,,,,,,,,,,,,,green,circle
0.0,2.0,0.0,0.0,4.0,4.0,416.6762459999518,2.0,1.0,phase_1,,,,,,,,,,,,,blue,hexagon
150.0,1.0,0.5,0.0,2.0,2.0,519.351335000465,2.0,1.0,phase_1,,,,,,,,,,,,,cyan,flipped triangle
306.0,6.0,1.0,1.0,3.0,3.0,324.5452250002927,2.0,1.0,phase_1,,,,,,,,,,,,,yellow,triangle
1309.0,4.0,4.0,0.0,1.0,1.0,638.3770060001552,2.0,1.0,phase_1,,,,,,,,,,,,,orange,diamond
347.0,2.0,1.0,0.0,1.0,1.0,416.2888850005402,2.0,1.0,phase_1,,,,,,,,,,,,,blue,hexagon
639.0,3.0,2.0,0.0,1.0,1.0,398.2601730003807,2.0,1.0,phase_1,,,,,,,,,,,,,white,square
664.0,3.0,2.0,0.0,2.0,2.0,470.3688109993891,2.0,2.0,phase_1,,,,,,,,,,,,,white,square
660.0,3.0,2.0,0.0,3.0,3.0,462.2175149997929,2.0,1.0,phase_1,,,,,,,,,,,,,white,square
301.0,6.0,1.0,1.0,4.0,4.0,434.4279950000782,2.0,1.0,phase_1,,,,,,,,,,,,,yellow,triangle
1325.0,8.0,4.0,1.0,4.0,4.0,528.2374119997257,2.0,1.0,phase_1,,,,,,,,,,,,,green,circle
1315.0,8.0,4.0,1.0,2.0,2.0,527.9790189997584,2.0,1.0,phase_1,,,,,,,,,,,,,green,circle
644.0,7.0,2.0,1.0,2.0,2.0,482.6804309996078,2.0,1.0,phase_1,,,,,,,,,,,,,magenta,cross
313.0,6.0,1.0,1.0,1.0,1.0,463.3750499997404,2.0,1.0,phase_1,,,,,,,,,,,,,yellow,triangle
0.0,7.0,0.0,1.0,1.0,1.0,379.2163629996139,2.0,1.0,phase_1,,,,,,,,,,,,,magenta,cross
0.0,7.0,0.0,1.0,3.0,3.0,351.8948479995742,2.0,1.0,phase_1,,,,,,,,,,,,,magenta,cross
333.0,6.0,1.0,1.0,4.0,4.0,467.7017570002135,2.0,1.0,phase_1,,,,,,,,,,,,,yellow,triangle
151.0,5.0,0.5,1.0,4.0,4.0,434.6756940003615,2.0,1.0,phase_1,,,,,,,,,,,,,gray,I
0.0,5.0,0.0,1.0,4.0,4.0,416.5176400001655,2.0,1.0,phase_1,,,,,,,,,,,,,gray,I
0.0,6.0,0.0,1.0,2.0,2.0,491.9423199999073,2.0,1.0,phase_1,,,,,,,,,,,,,yellow,triangle
326.0,2.0,1.0,0.0,3.0,3.0,344.6414879999793,2.0,1.0,phase_1,,,,,,,,,,,,,blue,hexagon
642.0,7.0,2.0,1.0,1.0,1.0,463.1974549993174,2.0,1.0,phase_1,,,,,,,,,,,,,magenta,cross
1293.0,8.0,4.0,1.0,1.0,1.0,397.9849000006652,2.0,1.0,phase_1,,,,,,,,,,,,,green,circle
660.0,7.0,2.0,1.0,4.0,4.0,416.1709270001665,2.0,1.0,phase_1,,,,,,,,,,,,,magenta,cross
1312.0,8.0,4.0,1.0,2.0,2.0,520.1868839994859,2.0,2.0,phase_1,,,,,,,,,,,,,green,circle
152.0,1.0,0.5,0.0,4.0,4.0,528.4381859992209,2.0,1.0,phase_1,,,,,,,,,,,,,cyan,flipped triangle
326.0,6.0,1.0,1.0,4.0,4.0,453.8961640000707,2.0,1.0,phase_1,,,,,,,,,,,,,yellow,triangle
1306.0,8.0,4.0,1.0,1.0,1.0,499.9127540004338,2.0,2.0,phase_1,,,,,,,,,,,,,green,circle
315.0,2.0,1.0,0.0,1.0,1.0,462.5146379994476,2.0,1.0,phase_1,,,,,,,,,,,,,blue,hexagon
0.0,1.0,0.0,0.0,2.0,2.0,416.3046260000556,3.0,1.0,phase_1,,,,,,,,,,,,,cyan,flipped triangle
644.0,3.0,2.0,0.0,2.0,2.0,362.0763219996661,3.0,1.0,phase_1,,,,,,,,,,,,,white,square
1319.0,8.0,4.0,1.0,3.0,3.0,313.9906450005583,3.0,1.0,phase_1,,,,,,,,,,,,,green,circle
0.0,6.0,0.0,1.0,2.0,2.0,434.2234689993347,3.0,1.0,phase_1,,,,,,,,,,,,,yellow,triangle
345.0,6.0,1.0,1.0,2.0,2.0,426.2943540006745,3.0,1.0,phase_1,,,,,,,,,,,,,yellow,triangle
180.0,1.0,0.5,0.0,2.0,2.0,305.2651580001111,3.0,1.0,phase_1,,,,,,,,,,,,,cyan,flipped triangle
1317.0,8.0,4.0,1.0,4.0,4.0,389.6597829998427,3.0,1.0,phase_1,,,,,,,,,,,,,green,circle
318.0,6.0,1.0,1.0,1.0,1.0,352.2255819998463,3.0,1.0,phase_1,,,,,,,,,,,,,yellow,triangle
0.0,4.0,0.0,0.0,1.0,1.0,470.5961230001776,3.0,1.0,phase_1,,,,,,,,,,,,,orange,diamond
669.0,3.0,2.0,0.0,3.0,3.0,369.1104760000598,3.0,1.0,phase_1,,,,,,,,,,,,,white,square
152.0,5.0,0.5,1.0,1.0,1.0,334.1127600006075,3.0,1.0,phase_1,,,,,,,,,,,,,gray,I
163.0,1.0,0.5,0.0,1.0,1.0,370.1894709993212,3.0,1.0,phase_1,,,,,,,,,,,,,cyan,flipped triangle
0.0,6.0,0.0,1.0,3.0,3.0,351.3271649999296,3.0,1.0,phase_1,,,,,,,,,,,,,yellow,triangle
0.0,3.0,0.0,0.0,3.0,3.0,340.3831679997893,3.0,1.0,phase_1,,,,,,,,,,,,,white,square
643.0,7.0,2.0,1.0,2.0,2.0,416.4312769999014,3.0,1.0,phase_1,,,,,,,,,,,,,magenta,cross
0.0,6.0,0.0,1.0,1.0,1.0,462.3476360002314,3.0,1.0,phase_1,,,,,,,,,,,,,yellow,triangle
1300.0,8.0,4.0,1.0,3.0,3.0,397.3903619998964,3.0,1.0,phase_1,,,,,,,,,,,,,green,circle
1303.0,8.0,4.0,1.0,3.0,3.0,363.6019539999324,3.0,1.0,phase_1,,,,,,,,,,,,,green,circle
336.0,6.0,1.0,1.0,4.0,4.0,682.2253499994986,3.0,1.0,phase_1,,,,,,,,,,,,,yellow,triangle
627.0,3.0,2.0,0.0,3.0,3.0,480.8397890001288,3.0,1.0,phase_1,,,,,,,,,,,,,white,square
632.0,7.0,2.0,1.0,2.0,2.0,399.6631569998499,3.0,1.0,phase_1,,,,,,,,,,,,,magenta,cross
655.0,3.0,2.0,0.0,1.0,1.0,417.42655500002,3.0,1.0,phase_1,,,,,,,,,,,,,white,square
631.0,7.0,2.0,1.0,3.0,3.0,325.5721929999708,3.0,1.0,phase_1,,,,,,,,,,,,,magenta,cross
305.0,2.0,1.0,0.0,3.0,3.0,341.3432699999248,3.0,1.0,phase_1,,,,,,,,,,,,,blue,hexagon
0.0,5.0,0.0,1.0,1.0,1.0,591.0601059995315,3.0,1.0,phase_1,,,,,,,,,,,,,gray,I
1286.0,4.0,4.0,0.0,2.0,2.0,452.0962649994544,3.0,1.0,phase_1,,,,,,,,,,,,,orange,diamond
318.0,2.0,1.0,0.0,2.0,2.0,407.0897749998039,3.0,1.0,phase_1,,,,,,,,,,,,,blue,hexagon
671.0,3.0,2.0,0.0,4.0,4.0,638.1371399993441,3.0,1.0,phase_1,,,,,,,,,,,,,white,square
1297.0,4.0,4.0,0.0,1.0,1.0,582.6932800000577,3.0,1.0,phase_1,,,,,,,,,,,,,orange,diamond
1300.0,4.0,4.0,0.0,4.0,4.0,443.5433300004661,3.0,2.0,phase_1,,,,,,,,,,,,,orange,diamond
314.0,2.0,1.0,0.0,4.0,4.0,480.2985229998739,3.0,1.0,phase_1,,,,,,,,,,,,,blue,hexagon
629.0,7.0,2.0,1.0,2.0,2.0,647.8182010005185,3.0,1.0,phase_1,,,,,,,,,,,,,magenta,cross
643.0,3.0,2.0,0.0,3.0,3.0,434.3388140005118,3.0,1.0,phase_1,,,,,,,,,,,,,white,square
315.0,2.0,1.0,0.0,3.0,3.0,545.8524379992014,3.0,1.0,phase_1,,,,,,,,,,,,,blue,hexagon
1297.0,8.0,4.0,1.0,2.0,2.0,599.7977750002974,3.0,1.0,phase_1,,,,,,,,,,,,,green,circle
667.0,7.0,2.0,1.0,1.0,1.0,406.1767809998855,3.0,1.0,phase_1,,,,,,,,,,,,,magenta,cross
0.0,4.0,0.0,0.0,2.0,2.0,396.6908900001726,3.0,1.0,phase_1,,,,,,,,,,,,,orange,diamond
0.0,8.0,0.0,1.0,1.0,1.0,341.9137720002254,3.0,1.0,phase_1,,,,,,,,,,,,,green,circle
1303.0,4.0,4.0,0.0,3.0,3.0,277.2432550000303,3.0,1.0,phase_1,,,,,,,,,,,,,orange,diamond
0.0,7.0,0.0,1.0,2.0,2.0,572.4946580003234,3.0,1.0,phase_1,,,,,,,,,,,,,magenta,cross
670.0,3.0,2.0,0.0,1.0,1.0,509.0811820000454,3.0,1.0,phase_1,,,,,,,,,,,,,white,square
167.0,5.0,0.5,1.0,3.0,3.0,341.070080999998,3.0,1.0,phase_1,,,,,,,,,,,,,gray,I
347.0,2.0,1.0,0.0,3.0,3.0,377.1553669994318,3.0,1.0,phase_1,,,,,,,,,,,,,blue,hexagon
165.0,5.0,0.5,1.0,3.0,3.0,396.7648440002449,3.0,1.0,phase_1,,,,,,,,,,,,,gray,I
165.0,5.0,0.5,1.0,2.0,2.0,471.8705590003083,3.0,1.0,phase_1,,,,,,,,,,,,,gray,I
1315.0,4.0,4.0,0.0,4.0,4.0,407.7406910000718,3.0,1.0,phase_1,,,,,,,,,,,,,orange,diamond
656.0,7.0,2.0,1.0,2.0,2.0,415.4803150004227,3.0,1.0,phase_1,,,,,,,,,,,,,magenta,cross
313.0,2.0,1.0,0.0,1.0,1.0,462.4009769995609,3.0,1.0,phase_1,,,,,,,,,,,,,blue,hexagon
644.0,7.0,2.0,1.0,3.0,3.0,351.1388029992304,3.0,1.0,phase_1,,,,,,,,,,,,,magenta,cross
650.0,3.0,2.0,0.0,2.0,2.0,406.2756519997492,3.0,1.0,phase_1,,,,,,,,,,,,,white,square
1303.0,4.0,4.0,0.0,2.0,2.0,518.3040540005095,3.0,1.0,phase_1,,,,,,,,,,,,,orange,diamond
180.0,5.0,0.5,1.0,1.0,1.0,536.7024979996131,3.0,2.0,phase_1,,,,,,,,,,,,,gray,I
668.0,7.0,2.0,1.0,1.0,1.0,425.5756120001024,3.0,1.0,phase_1,,,,,,,,,,,,,magenta,cross
643.0,3.0,2.0,0.0,2.0,2.0,612.0019319996572,3.0,1.0,phase_1,,,,,,,,,,,,,white,square
1301.0,8.0,4.0,1.0,2.0,2.0,378.4382720004942,3.0,1.0,phase_1,,,,,,,,,,,,,green,circle
637.0,3.0,2.0,0.0,4.0,4.0,499.8936689999027,3.0,1.0,phase_1,,,,,,,,,,,,,white,square
0.0,4.0,0.0,0.0,3.0,3.0,351.7184189995532,3.0,1.0,phase_1,,,,,,,,,,,,,orange,diamond
346.0,6.0,1.0,1.0,2.0,2.0,360.0006960004975,3.0,1.0,phase_1,,,,,,,,,,,,,yellow,triangle
343.0,2.0,1.0,0.0,4.0,4.0,480.418150999867,3.0,1.0,phase_1,,,,,,,,,,,,,blue,hexagon
1276.0,4.0,4.0,0.0,1.0,1.0,535.8930630000032,3.0,1.0,phase_1,,,,,,,,,,,,,orange,diamond
1320.0,4.0,4.0,0.0,4.0,4.0,489.4293490006021,3.0,1.0,phase_1,,,,,,,,,,,,,orange,diamond
0.0,1.0,0.0,0.0,1.0,1.0,573.0561250002211,3.0,1.0,phase_1,,,,,,,,,,,,,cyan,flipped triangle
649.0,7.0,2.0,1.0,1.0,1.0,498.0408040000839,3.0,1.0,phase_1,,,,,,,,,,,,,magenta,cross
642.0,3.0,2.0,0.0,3.0,3.0,546.8363079999108,3.0,1.0,phase_1,,,,,,,,,,,,,white,square
665.0,7.0,2.0,1.0,3.0,3.0,379.1056410000237,3.0,1.0,phase_1,,,,,,,,,,,,,magenta,cross
338.0,6.0,1.0,1.0,1.0,1.0,581.8545120000636,3.0,1.0,phase_1,,,,,,,,,,,,,yellow,triangle
664.0,7.0,2.0,1.0,4.0,4.0,525.0608100004683,3.0,1.0,phase_1,,,,,,,,,,,,,magenta,cross
1277.0,4.0,4.0,0.0,3.0,3.0,388.4383889999299,3.0,1.0,phase_1,,,,,,,,,,,,,orange,diamond
665.0,7.0,2.0,1.0,4.0,4.0,424.6126560001357,3.0,1.0,phase_1,,,,,,,,,,,,,magenta,cross
185.0,1.0,0.5,0.0,3.0,3.0,398.3146480004507,3.0,1.0,phase_1,,,,,,,,,,,,,cyan,flipped triangle
146.0,1.0,0.5,0.0,4.0,4.0,444.3077020005148,3.0,1.0,phase_1,,,,,,,,,,,,,cyan,flipped triangle
313.0,6.0,1.0,1.0,4.0,4.0,370.0413819997266,3.0,1.0,phase_1,,,,,,,,,,,,,yellow,triangle
1309.0,8.0,4.0,1.0,4.0,4.0,452.2969939998802,3.0,1.0,phase_1,,,,,,,,,,,,,green,circle
139.0,1.0,0.5,0.0,4.0,4.0,352.2118349992524,3.0,1.0,phase_1,,,,,,,,,,,,,cyan,flipped triangle
664.0,7.0,2.0,1.0,2.0,2.0,564.4989960001112,3.0,1.0,phase_1,,,,,,,,,,,,,magenta,cross
326.0,2.0,1.0,0.0,1.0,1.0,406.8841460002659,3.0,1.0,phase_1,,,,,,,,,,,,,blue,hexagon
639.0,7.0,2.0,1.0,1.0,1.0,425.4852570002185,3.0,1.0,phase_1,,,,,,,,,,,,,magenta,cross
0.0,4.0,0.0,0.0,2.0,2.0,342.7953219998016,3.0,1.0,phase_1,,,,,,,,,,,,,orange,diamond
161.0,1.0,0.5,0.0,4.0,4.0,417.1993770005429,3.0,1.0,phase_1,,,,,,,,,,,,,cyan,flipped triangle
628.0,7.0,2.0,1.0,2.0,2.0,665.1467020001292,3.0,1.0,phase_1,,,,,,,,,,,,,magenta,cross
667.0,3.0,2.0,0.0,3.0,3.0,508.5755740001332,3.0,1.0,phase_1,,,,,,,,,,,,,white,square
141.0,5.0,0.5,1.0,3.0,3.0,332.6326950000293,3.0,1.0,phase_1,,,,,,,,,,,,,gray,I
151.0,5.0,0.5,1.0,1.0,1.0,406.5822870006741,3.0,1.0,phase_1,,,,,,,,,,,,,gray,I
341.0,2.0,1.0,0.0,2.0,2.0,407.1764580003219,3.0,1.0,phase_1,,,,,,,,,,,,,blue,hexagon
0.0,8.0,0.0,1.0,3.0,3.0,352.1695889994589,3.0,1.0,phase_1,,,,,,,,,,,,,green,circle
1277.0,8.0,4.0,1.0,3.0,3.0,323.5372670005745,3.0,1.0,phase_1,,,,,,,,,,,,,green,circle
647.0,7.0,2.0,1.0,4.0,4.0,351.7316050001682,3.0,1.0,phase_1,,,,,,,,,,,,,magenta,cross
149.0,5.0,0.5,1.0,2.0,2.0,324.0659270004471,3.0,1.0,phase_1,,,,,,,,,,,,,gray,I
324.0,2.0,1.0,0.0,2.0,2.0,491.0698060002687,3.0,1.0,phase_1,,,,,,,,,,,,,blue,hexagon
180.0,1.0,0.5,0.0,3.0,3.0,360.2155729995502,3.0,1.0,phase_1,,,,,,,,,,,,,cyan,flipped triangle
161.0,1.0,0.5,0.0,2.0,2.0,416.7092079997019,3.0,1.0,phase_1,,,,,,,,,,,,,cyan,flipped triangle
1276.0,8.0,4.0,1.0,1.0,1.0,452.1140010001545,3.0,2.0,phase_1,,,,,,,,,,,,,green,circle
151.0,1.0,0.5,0.0,2.0,2.0,627.6135489997614,3.0,1.0,phase_1,,,,,,,,,,,,,cyan,flipped triangle
324.0,2.0,1.0,0.0,3.0,3.0,397.5673600007212,3.0,1.0,phase_1,,,,,,,,,,,,,blue,hexagon
1296.0,8.0,4.0,1.0,4.0,4.0,378.1704129996797,3.0,1.0,phase_1,,,,,,,,,,,,,green,circle
1294.0,8.0,4.0,1.0,3.0,3.0,314.6893140001339,3.0,1.0,phase_1,,,,,,,,,,,,,green,circle
169.0,1.0,0.5,0.0,4.0,4.0,480.1797520003674,3.0,1.0,phase_1,,,,,,,,,,,,,cyan,flipped triangle
0.0,4.0,0.0,0.0,3.0,3.0,324.6623949999048,3.0,1.0,phase_1,,,,,,,,,,,,,orange,diamond
306.0,2.0,1.0,0.0,1.0,1.0,388.7444690008124,3.0,1.0,phase_1,,,,,,,,,,,,,blue,hexagon
146.0,5.0,0.5,1.0,1.0,1.0,499.0518109998447,3.0,1.0,phase_1,,,,,,,,,,,,,gray,I
0.0,1.0,0.0,0.0,4.0,4.0,435.5907380004282,4.0,1.0,phase_1,,,,,,,,,,,,,cyan,flipped triangle
669.0,7.0,2.0,1.0,4.0,4.0,359.3305049998889,4.0,1.0,phase_1,,,,,,,,,,,,,magenta,cross
161.0,5.0,0.5,1.0,1.0,1.0,427.1371849999923,4.0,1.0,phase_1,,,,,,,,,,,,,gray,I
1284.0,8.0,4.0,1.0,3.0,3.0,398.7262939999709,4.0,1.0,phase_1,,,,,,,,,,,,,green,circle
0.0,1.0,0.0,0.0,3.0,3.0,353.0805179998424,4.0,1.0,phase_1,,,,,,,,,,,,,cyan,flipped triangle
187.0,5.0,0.5,1.0,3.0,3.0,379.4425910000427,4.0,1.0,phase_1,,,,,,,,,,,,,gray,I
168.0,5.0,0.5,1.0,2.0,2.0,545.3717990003497,4.0,1.0,phase_1,,,,,,,,,,,,,gray,I
162.0,5.0,0.5,1.0,3.0,3.0,342.9916209997827,4.0,1.0,phase_1,,,,,,,,,,,,,gray,I
0.0,1.0,0.0,0.0,3.0,3.0,759.6012760004669,4.0,1.0,phase_1,,,,,,,,,,,,,cyan,flipped triangle
627.0,7.0,2.0,1.0,4.0,4.0,389.7789359998569,4.0,1.0,phase_1,,,,,,,,,,,,,magenta,cross
0.0,3.0,0.0,0.0,1.0,1.0,362.1127860005799,4.0,1.0,phase_1,,,,,,,,,,,,,white,square
631.0,3.0,2.0,0.0,2.0,2.0,370.9229649994086,4.0,1.0,phase_1,,,,,,,,,,,,,white,square
0.0,2.0,0.0,0.0,4.0,4.0,426.4140509994831,4.0,1.0,phase_1,,,,,,,,,,,,,blue,hexagon
161.0,5.0,0.5,1.0,4.0,4.0,545.8861790002629,4.0,1.0,phase_1,,,,,,,,,,,,,gray,I
314.0,6.0,1.0,1.0,4.0,4.0,389.3243989996335,4.0,1.0,phase_1,,,,,,,,,,,,,yellow,triangle
1307.0,4.0,4.0,0.0,4.0,4.0,379.0265469997393,4.0,1.0,phase_1,,,,,,,,,,,,,orange,diamond
1284.0,4.0,4.0,0.0,3.0,3.0,406.0979349997069,4.0,1.0,phase_1,,,,,,,,,,,,,orange,diamond
163.0,1.0,0.5,0.0,3.0,3.0,343.9198189998933,4.0,1.0,phase_1,,,,,,,,,,,,,cyan,flipped triangle
312.0,6.0,1.0,1.0,3.0,3.0,333.0000089999885,4.0,1.0,phase_1,,,,,,,,,,,,,yellow,triangle
326.0,6.0,1.0,1.0,1.0,1.0,684.422498999993,4.0,2.0,phase_1,,,,,,,,,,,,,yellow,triangle
0.0,7.0,0.0,1.0,1.0,1.0,426.2470670000766,4.0,1.0,phase_1,,,,,,,,,,,,,magenta,cross
1320.0,8.0,4.0,1.0,2.0,2.0,337.0794630000091,4.0,2.0,phase_1,,,,,,,,,,,,,green,circle
629.0,7.0,2.0,1.0,3.0,3.0,444.1711200006466,4.0,1.0,phase_1,,,,,,,,,,,,,magenta,cross
167.0,1.0,0.5,0.0,4.0,4.0,381.807636999838,4.0,1.0,phase_1,,,,,,,,,,,,,cyan,flipped triangle
146.0,1.0,0.5,0.0,1.0,1.0,397.3946649994104,4.0,1.0,phase_1,,,,,,,,,,,,,cyan,flipped triangle
633.0,7.0,2.0,1.0,4.0,4.0,426.5177449997281,4.0,1.0,phase_1,,,,,,,,,,,,,magenta,cross
161.0,5.0,0.5,1.0,2.0,2.0,351.1975310002526,4.0,1.0,phase_1,,,,,,,,,,,,,gray,I
177.0,1.0,0.5,0.0,4.0,4.0,444.0908899996429,4.0,1.0,phase_1,,,,,,,,,,,,,cyan,flipped triangle
0.0,6.0,0.0,1.0,1.0,1.0,370.7274719999986,4.0,1.0,phase_1,,,,,,,,,,,,,yellow,triangle
644.0,3.0,2.0,0.0,1.0,1.0,398.0548720001025,4.0,1.0,phase_1,,,,,,,,,,,,,white,square
668.0,3.0,2.0,0.0,3.0,3.0,362.16109399993,4.0,1.0,phase_1,,,,,,,,,,,,,white,square
336.0,2.0,1.0,0.0,4.0,4.0,519.8301999998876,4.0,1.0,phase_1,,,,,,,,,,,,,blue,hexagon
647.0,7.0,2.0,1.0,2.0,2.0,499.4928210007856,4.0,1.0,phase_1,,,,,,,,,,,,,magenta,cross
155.0,1.0,0.5,0.0,4.0,4.0,380.6596069998704,4.0,1.0,phase_1,,,,,,,,,,,,,cyan,flipped triangle
0.0,2.0,0.0,0.0,1.0,1.0,425.9024829998452,4.0,1.0,phase_1,,,,,,,,,,,,,blue,hexagon
186.0,5.0,0.5,1.0,4.0,4.0,462.1619329991517,4.0,1.0,phase_1,,,,,,,,,,,,,gray,I
1322.0,8.0,4.0,1.0,3.0,3.0,389.6585120000964,4.0,1.0,phase_1,,,,,,,,,,,,,green,circle
141.0,1.0,0.5,0.0,3.0,3.0,361.4043019997552,4.0,1.0,phase_1,,,,,,,,,,,,,cyan,flipped triangle
0.0,8.0,0.0,1.0,3.0,3.0,342.2746520000146,4.0,1.0,phase_1,,,,,,,,,,,,,green,circle
186.0,1.0,0.5,0.0,3.0,3.0,352.4214489998485,4.0,1.0,phase_1,,,,,,,,,,,,,cyan,flipped triangle
328.0,2.0,1.0,0.0,1.0,1.0,296.0209709999617,4.0,2.0,phase_1,,,,,,,,,,,,,blue,hexagon
655.0,7.0,2.0,1.0,1.0,1.0,426.1863629999425,4.0,1.0,phase_1,,,,,,,,,,,,,magenta,cross
187.0,1.0,0.5,0.0,1.0,1.0,361.3510450004469,4.0,1.0,phase_1,,,,,,,,,,,,,cyan,flipped triangle
174.0,5.0,0.5,1.0,1.0,1.0,352.0709880003778,4.0,1.0,phase_1,,,,,,,,,,,,,gray,I
1285.0,4.0,4.0,0.0,4.0,4.0,749.5274550001341,4.0,1.0,phase_1,,,,,,,,,,,,,orange,diamond
0.0,3.0,0.0,0.0,1.0,1.0,564.9023249998208,4.0,1.0,phase_1,,,,,,,,,,,,,white,square
161.0,1.0,0.5,0.0,3.0,3.0,352.249297000526,4.0,1.0,phase_1,,,,,,,,,,,,,cyan,flipped triangle
0.0,5.0,0.0,1.0,3.0,3.0,406.4731759999631,4.0,1.0,phase_1,,,,,,,,,,,,,gray,I
0.0,3.0,0.0,0.0,4.0,4.0,408.8101930001357,4.0,1.0,phase_1,,,,,,,,,,,,,white,square
162.0,1.0,0.5,0.0,3.0,3.0,341.9583369995962,4.0,1.0,phase_1,,,,,,,,,,,,,cyan,flipped triangle
176.0,1.0,0.5,0.0,2.0,2.0,398.1543279996913,4.0,1.0,phase_1,,,,,,,,,,,,,cyan,flipped triangle
163.0,5.0,0.5,1.0,4.0,4.0,516.4615450003112,4.0,1.0,phase_1,,,,,,,,,,,,,gray,I
638.0,3.0,2.0,0.0,4.0,4.0,529.1143309996187,4.0,1.0,phase_1,,,,,,,,,,,,,white,square
647.0,3.0,2.0,0.0,4.0,4.0,453.2863809999981,4.0,1.0,phase_1,,,,,,,,,,,,,white,square
149.0,1.0,0.5,0.0,1.0,1.0,600.3778089998377,4.0,1.0,phase_1,,,,,,,,,,,,,cyan,flipped triangle
0.0,3.0,0.0,0.0,4.0,4.0,545.031009000013,4.0,1.0,phase_1,,,,,,,,,,,,,white,square
0.0,1.0,0.0,0.0,4.0,4.0,555.0435209997886,4.0,1.0,phase_1,,,,,,,,,,,,,cyan,flipped triangle
1293.0,8.0,4.0,1.0,1.0,1.0,675.9132429997408,4.0,1.0,phase_1,,,,,,,,,,,,,green,circle
152.0,5.0,0.5,1.0,2.0,2.0,406.7115330008164,4.0,1.0,phase_1,,,,,,,,,,,,,gray,I
1288.0,8.0,4.0,1.0,1.0,1.0,296.5898630000083,4.0,1.0,phase_1,,,,,,,,,,,,,green,circle
0.0,4.0,0.0,0.0,2.0,2.0,268.5940820001633,4.0,1.0,phase_1,,,,,,,,,,,,,orange,diamond
0.0,8.0,0.0,1.0,2.0,2.0,351.2451859996872,4.0,1.0,phase_1,,,,,,,,,,,,,green,circle
1325.0,4.0,4.0,0.0,1.0,1.0,545.7830389996161,4.0,2.0,phase_1,,,,,,,,,,,,,orange,diamond
326.0,6.0,1.0,1.0,3.0,3.0,591.6325250000227,4.0,1.0,phase_1,,,,,,,,,,,,,yellow,triangle
306.0,6.0,1.0,1.0,1.0,1.0,360.5401499999061,4.0,1.0,phase_1,,,,,,,,,,,,,yellow,triangle
0.0,4.0,0.0,0.0,2.0,2.0,666.1062020002646,4.0,1.0,phase_1,,,,,,,,,,,,,orange,diamond
168.0,1.0,0.5,0.0,2.0,2.0,434.2868339999768,4.0,1.0,phase_1,,,,,,,,,,,,,cyan,flipped triangle
0.0,3.0,0.0,0.0,3.0,3.0,573.8967899997078,4.0,1.0,phase_1,,,,,,,,,,,,,white,square
306.0,2.0,1.0,0.0,2.0,2.0,388.1632720003836,4.0,1.0,phase_1,,,,,,,,,,,,,blue,hexagon
340.0,2.0,1.0,0.0,4.0,4.0,501.82535699968867,4.0,1.0,phase_1,,,,,,,,,,,,,blue,hexagon
1283.0,8.0,4.0,1.0,2.0,2.0,518.9687379997849,4.0,1.0,phase_1,,,,,,,,,,,,,green,circle
664.0,3.0,2.0,0.0,3.0,3.0,397.4345180004093,4.0,1.0,phase_1,,,,,,,,,,,,,white,square
0.0,5.0,0.0,1.0,3.0,3.0,388.2428910001181,4.0,1.0,phase_1,,,,,,,,,,,,,gray,I
0.0,2.0,0.0,0.0,3.0,3.0,371.5554229993358,4.0,1.0,phase_1,,,,,,,,,,,,,blue,hexagon
163.0,5.0,0.5,1.0,2.0,2.0,351.9938940007705,4.0,1.0,phase_1,,,,,,,,,,,,,gray,I
629.0,3.0,2.0,0.0,4.0,4.0,380.5841710000095,4.0,1.0,phase_1,,,,,,,,,,,,,white,square
150.0,5.0,0.5,1.0,2.0,2.0,371.7157529999895,4.0,1.0,phase_1,,,,,,,,,,,,,gray,I
0.0,7.0,0.0,1.0,3.0,3.0,397.5657579994731,4.0,1.0,phase_1,,,,,,,,,,,,,magenta,cross
177.0,5.0,0.5,1.0,1.0,1.0,546.4029279992246,4.0,1.0,phase_1,,,,,,,,,,,,,gray,I
324.0,6.0,1.0,1.0,2.0,2.0,444.5717649996368,4.0,1.0,phase_1,,,,,,,,,,,,,yellow,triangle
1297.0,8.0,4.0,1.0,1.0,1.0,489.5874709991403,4.0,2.0,phase_1,,,,,,,,,,,,,green,circle
0.0,4.0,0.0,0.0,1.0,1.0,370.5667650001487,4.0,1.0,phase_1,,,,,,,,,,,,,orange,diamond
655.0,7.0,2.0,1.0,1.0,1.0,342.3761569993075,4.0,1.0,phase_1,,,,,,,,,,,,,magenta,cross
633.0,3.0,2.0,0.0,3.0,3.0,397.2152149999601,4.0,1.0,phase_1,,,,,,,,,,,,,white,square
1298.0,8.0,4.0,1.0,3.0,3.0,335.050453999429,4.0,1.0,phase_1,,,,,,,,,,,,,green,circle
644.0,7.0,2.0,1.0,3.0,3.0,324.0592510001079,4.0,1.0,phase_1,,,,,,,,,,,,,magenta,cross
325.0,6.0,1.0,1.0,2.0,2.0,343.2788740001342,4.0,1.0,phase_1,,,,,,,,,,,,,yellow,triangle
1293.0,4.0,4.0,0.0,3.0,3.0,361.2743699995917,4.0,1.0,phase_1,,,,,,,,,,,,,orange,diamond
334.0,2.0,1.0,0.0,4.0,4.0,721.0839290000877,4.0,1.0,phase_1,,,,,,,,,,,,,blue,hexagon
0.0,3.0,0.0,0.0,4.0,4.0,474.1099600005327,4.0,1.0,phase_1,,,,,,,,,,,,,white,square
0.0,1.0,0.0,0.0,3.0,3.0,382.1642470002189,4.0,1.0,phase_1,,,,,,,,,,,,,cyan,flipped triangle
647.0,3.0,2.0,0.0,2.0,2.0,841.7597079996995,4.0,1.0,phase_1,,,,,,,,,,,,,white,square
1280.0,4.0,4.0,0.0,4.0,4.0,444.0608229997451,4.0,1.0,phase_1,,,,,,,,,,,,,orange,diamond
1317.0,4.0,4.0,0.0,2.0,2.0,381.6895859999931,4.0,1.0,phase_1,,,,,,,,,,,,,orange,diamond
1286.0,8.0,4.0,1.0,4.0,4.0,333.185190000222,4.0,1.0,phase_1,,,,,,,,,,,,,green,circle
671.0,7.0,2.0,1.0,4.0,4.0,454.6459180000965,4.0,1.0,phase_1,,,,,,,,,,,,,magenta,cross
651.0,3.0,2.0,0.0,2.0,2.0,610.3306579998389,4.0,1.0,phase_1,,,,,,,,,,,,,white,square
318.0,2.0,1.0,0.0,3.0,3.0,341.502448999563,4.0,1.0,phase_1,,,,,,,,,,,,,blue,hexagon
152.0,1.0,0.5,0.0,2.0,2.0,574.3207120003717,4.0,1.0,phase_1,,,,,,,,,,,,,cyan,flipped triangle
159.0,1.0,0.5,0.0,1.0,1.0,425.6054340003175,4.0,1.0,phase_1,,,,,,,,,,,,,cyan,flipped triangle
0.0,2.0,1.0,0.0,6.0,6.0,345.45425899978,1.0,1.0,phase_2,go,250.0,250.0,1.0,,,,,,,,,blue,hexagon
0.0,1.0,0.5,0.0,6.0,6.0,536.765464000382,1.0,1.0,phase_2,go,250.0,250.0,1.0,,,,,,,,,cyan,flipped triangle
0.0,3.0,2.0,0.0,5.0,5.0,491.1886429999867,1.0,1.0,phase_2,go,250.0,250.0,1.0,,,,,,,,,white,square
0.0,5.0,0.5,1.0,5.0,5.0,620.6187889993089,1.0,1.0,phase_2,stop,250.0,250.0,3.0,,,,,,,,,gray,I
0.0,4.0,4.0,0.0,5.0,5.0,558.9472729998306,1.0,1.0,phase_2,go,200.0,250.0,1.0,,,,,,,,,orange,diamond
0.0,6.0,1.0,1.0,6.0,6.0,513.6492050005472,1.0,1.0,phase_2,go,200.0,250.0,1.0,,,,,,,,,yellow,triangle
0.0,6.0,1.0,1.0,5.0,5.0,386.0621109997737,1.0,1.0,phase_2,go,200.0,250.0,1.0,,,,,,,,,yellow,triangle
0.0,6.0,1.0,1.0,6.0,6.0,280.1695280004423,1.0,1.0,phase_2,stop,200.0,250.0,3.0,,,,,,,,,yellow,triangle
0.0,8.0,4.0,1.0,6.0,6.0,354.8753420000139,1.0,1.0,phase_2,stop,200.0,200.0,3.0,,,,,,,,,green,circle
0.0,4.0,4.0,0.0,5.0,5.0,503.55355300052906,1.0,1.0,phase_2,go,200.0,150.0,1.0,,,,,,,,,orange,diamond
0.0,6.0,1.0,1.0,5.0,5.0,412.5134679998155,1.0,1.0,phase_2,go,200.0,150.0,1.0,,,,,,,,,yellow,triangle
0.0,2.0,1.0,0.0,6.0,6.0,519.4376469999042,1.0,1.0,phase_2,go,200.0,150.0,1.0,,,,,,,,,blue,hexagon
0.0,8.0,4.0,1.0,5.0,5.0,341.2225259999104,1.0,1.0,phase_2,stop,200.0,150.0,3.0,,,,,,,,,green,circle
0.0,8.0,4.0,1.0,5.0,5.0,405.6339970002227,1.0,1.0,phase_2,stop,150.0,150.0,3.0,,,,,,,,,green,circle
0.0,4.0,4.0,0.0,5.0,5.0,614.5445640004255,1.0,1.0,phase_2,go,100.0,150.0,1.0,,,,,,,,,orange,diamond
0.0,4.0,4.0,0.0,5.0,5.0,476.0052219999124,1.0,1.0,phase_2,go,100.0,150.0,1.0,,,,,,,,,orange,diamond
0.0,3.0,2.0,0.0,5.0,5.0,553.4911249997094,1.0,1.0,phase_2,go,100.0,150.0,1.0,,,,,,,,,white,square
0.0,1.0,0.5,0.0,5.0,5.0,735.1452550001341,1.0,1.0,phase_2,go,100.0,150.0,1.0,,,,,,,,,cyan,flipped triangle
0.0,2.0,1.0,0.0,5.0,5.0,400.1036360004946,1.0,1.0,phase_2,go,100.0,150.0,1.0,,,,,,,,,blue,hexagon
0.0,2.0,1.0,0.0,5.0,5.0,631.0256389997448,1.0,1.0,phase_2,go,100.0,150.0,1.0,,,,,,,,,blue,hexagon
0.0,4.0,4.0,0.0,6.0,6.0,820.7221269994989,1.0,1.0,phase_2,go,100.0,150.0,1.0,,,,,,,,,orange,diamond
0.0,7.0,2.0,1.0,5.0,0.0,0.0,1.0,1.0,phase_2,stop,100.0,150.0,4.0,,,,,,,,,magenta,cross
0.0,8.0,4.0,1.0,5.0,0.0,0.0,1.0,1.0,phase_2,stop,150.0,150.0,4.0,,,,,,,,,green,circle
0.0,4.0,4.0,0.0,5.0,5.0,493.1777229994623,1.0,1.0,phase_2,go,200.0,150.0,1.0,,,,,,,,,orange,diamond
0.0,7.0,2.0,1.0,6.0,0.0,0.0,1.0,1.0,phase_2,stop,200.0,150.0,4.0,,,,,,,,,magenta,cross
0.0,3.0,2.0,0.0,6.0,6.0,400.3540610001437,1.0,1.0,phase_2,go,200.0,200.0,1.0,,,,,,,,,white,square
0.0,6.0,1.0,1.0,5.0,5.0,651.5331040000092,1.0,1.0,phase_2,go,200.0,200.0,1.0,,,,,,,,,yellow,triangle
0.0,8.0,4.0,1.0,5.0,0.0,0.0,1.0,1.0,phase_2,stop,200.0,200.0,4.0,,,,,,,,,green,circle
0.0,1.0,0.5,0.0,6.0,6.0,333.8037140001688,1.0,1.0,phase_2,go,250.0,200.0,1.0,,,,,,,,,cyan,flipped triangle
0.0,7.0,2.0,1.0,5.0,0.0,0.0,1.0,1.0,phase_2,stop,250.0,200.0,4.0,,,,,,,,,magenta,cross
0.0,2.0,1.0,0.0,6.0,6.0,495.630560999416,1.0,1.0,phase_2,go,300.0,200.0,1.0,,,,,,,,,blue,hexagon
0.0,7.0,2.0,1.0,5.0,5.0,773.7172980005198,1.0,1.0,phase_2,go,300.0,200.0,1.0,,,,,,,,,magenta,cross
0.0,1.0,0.5,0.0,5.0,5.0,502.089464999699,1.0,1.0,phase_2,go,300.0,200.0,1.0,,,,,,,,,cyan,flipped triangle
0.0,5.0,0.5,1.0,5.0,0.0,0.0,1.0,1.0,phase_2,stop,300.0,200.0,4.0,,,,,,,,,gray,I
0.0,2.0,1.0,0.0,6.0,6.0,484.127876000457,1.0,1.0,phase_2,go,350.0,200.0,1.0,,,,,,,,,blue,hexagon
0.0,7.0,2.0,1.0,6.0,6.0,323.2388159995025,1.0,1.0,phase_2,stop,350.0,200.0,3.0,,,,,,,,,magenta,cross
0.0,8.0,4.0,1.0,5.0,0.0,0.0,2.0,1.0,phase_2,stop,350.0,150.0,4.0,,,,,,,,,green,circle
0.0,3.0,2.0,0.0,6.0,6.0,447.7892009999777,2.0,1.0,phase_2,go,400.0,150.0,1.0,,,,,,,,,white,square
0.0,5.0,0.5,1.0,5.0,5.0,548.7927119993401,2.0,1.0,phase_2,stop,400.0,150.0,3.0,,,,,,,,,gray,I
0.0,7.0,2.0,1.0,5.0,0.0,0.0,2.0,1.0,phase_2,stop,350.0,150.0,4.0,,,,,,,,,magenta,cross
0.0,2.0,1.0,0.0,6.0,6.0,474.7787630003586,2.0,1.0,phase_2,go,400.0,150.0,1.0,,,,,,,,,blue,hexagon
0.0,5.0,0.5,1.0,5.0,5.0,576.6113030003908,2.0,1.0,phase_2,stop,400.0,150.0,3.0,,,,,,,,,gray,I
0.0,4.0,4.0,0.0,6.0,6.0,494.1550829998959,2.0,1.0,phase_2,go,350.0,150.0,1.0,,,,,,,,,orange,diamond
0.0,3.0,2.0,0.0,5.0,5.0,728.89335400032,2.0,1.0,phase_2,go,350.0,150.0,1.0,,,,,,,,,white,square
0.0,6.0,1.0,1.0,6.0,6.0,438.1516050007121,2.0,1.0,phase_2,go,350.0,150.0,1.0,,,,,,,,,yellow,triangle
0.0,6.0,1.0,1.0,6.0,0.0,0.0,2.0,1.0,phase_2,stop,350.0,150.0,4.0,,,,,,,,,yellow,triangle
0.0,7.0,2.0,1.0,5.0,5.0,512.6613439997527,2.0,1.0,phase_2,go,350.0,200.0,1.0,,,,,,,,,magenta,cross
0.0,7.0,2.0,1.0,5.0,5.0,501.4558679995389,2.0,1.0,phase_2,stop,350.0,200.0,3.0,,,,,,,,,magenta,cross
0.0,8.0,4.0,1.0,6.0,0.0,0.0,2.0,1.0,phase_2,stop,300.0,200.0,4.0,,,,,,,,,green,circle
0.0,1.0,0.5,0.0,6.0,6.0,587.7351540002564,2.0,1.0,phase_2,go,300.0,250.0,1.0,,,,,,,,,cyan,flipped triangle
0.0,6.0,1.0,1.0,5.0,0.0,0.0,2.0,1.0,phase_2,stop,300.0,250.0,4.0,,,,,,,,,yellow,triangle
0.0,5.0,0.5,1.0,5.0,5.0,774.1099069999109,2.0,1.0,phase_2,go,350.0,250.0,1.0,,,,,,,,,gray,I
0.0,5.0,0.5,1.0,6.0,0.0,0.0,2.0,1.0,phase_2,stop,350.0,250.0,4.0,,,,,,,,,gray,I
0.0,4.0,4.0,0.0,6.0,6.0,532.0125830003235,2.0,1.0,phase_2,go,350.0,300.0,1.0,,,,,,,,,orange,diamond
0.0,8.0,4.0,1.0,6.0,0.0,0.0,2.0,1.0,phase_2,stop,350.0,300.0,4.0,,,,,,,,,green,circle
0.0,8.0,4.0,1.0,6.0,6.0,764.6689620005418,2.0,1.0,phase_2,go,350.0,350.0,1.0,,,,,,,,,green,circle
0.0,1.0,0.5,0.0,5.0,5.0,531.5057930001785,2.0,1.0,phase_2,go,350.0,350.0,1.0,,,,,,,,,cyan,flipped triangle
0.0,7.0,2.0,1.0,5.0,0.0,0.0,2.0,1.0,phase_2,stop,350.0,350.0,4.0,,,,,,,,,magenta,cross
0.0,8.0,4.0,1.0,6.0,6.0,474.8003539998535,2.0,1.0,phase_2,stop,400.0,350.0,3.0,,,,,,,,,green,circle
0.0,4.0,4.0,0.0,6.0,6.0,456.6056830008165,2.0,1.0,phase_2,go,400.0,300.0,1.0,,,,,,,,,orange,diamond
0.0,3.0,2.0,0.0,6.0,6.0,457.2219600004246,2.0,1.0,phase_2,go,400.0,300.0,1.0,,,,,,,,,white,square
0.0,4.0,4.0,0.0,5.0,5.0,427.7969849999863,2.0,1.0,phase_2,go,400.0,300.0,1.0,,,,,,,,,orange,diamond
0.0,1.0,0.5,0.0,5.0,5.0,501.39929499982827,2.0,1.0,phase_2,go,400.0,300.0,1.0,,,,,,,,,cyan,flipped triangle
0.0,7.0,2.0,1.0,5.0,0.0,0.0,2.0,1.0,phase_2,stop,400.0,300.0,4.0,,,,,,,,,magenta,cross
0.0,3.0,2.0,0.0,5.0,5.0,494.5025299994086,2.0,1.0,phase_2,go,450.0,300.0,1.0,,,,,,,,,white,square
0.0,1.0,0.5,0.0,6.0,6.0,494.3217909994928,2.0,1.0,phase_2,go,450.0,300.0,1.0,,,,,,,,,cyan,flipped triangle
0.0,8.0,4.0,1.0,6.0,6.0,484.8296099999061,2.0,1.0,phase_2,go,450.0,300.0,1.0,,,,,,,,,green,circle
0.0,7.0,2.0,1.0,6.0,0.0,0.0,2.0,1.0,phase_2,stop,450.0,300.0,4.0,,,,,,,,,magenta,cross
0.0,1.0,0.5,0.0,6.0,6.0,399.8133020004388,2.0,1.0,phase_2,go,450.0,350.0,1.0,,,,,,,,,cyan,flipped triangle
0.0,2.0,1.0,0.0,5.0,5.0,513.8414779994491,2.0,1.0,phase_2,go,450.0,350.0,1.0,,,,,,,,,blue,hexagon
0.0,3.0,2.0,0.0,6.0,6.0,473.4839299999294,2.0,1.0,phase_2,go,450.0,350.0,1.0,,,,,,,,,white,square
0.0,2.0,1.0,0.0,5.0,5.0,465.7188950004638,2.0,1.0,phase_2,go,450.0,350.0,1.0,,,,,,,,,blue,hexagon
0.0,6.0,1.0,1.0,6.0,6.0,501.04691900014586,3.0,1.0,phase_2,stop,450.0,350.0,3.0,,,,,,,,,yellow,triangle
0.0,8.0,4.0,1.0,5.0,5.0,577.9948680001326,3.0,1.0,phase_2,stop,450.0,300.0,3.0,,,,,,,,,green,circle
0.0,1.0,0.5,0.0,6.0,6.0,641.9891440000356,3.0,1.0,phase_2,go,400.0,300.0,1.0,,,,,,,,,cyan,flipped triangle
0.0,3.0,2.0,0.0,6.0,6.0,652.462703999845,3.0,1.0,phase_2,go,400.0,300.0,1.0,,,,,,,,,white,square
0.0,5.0,0.5,1.0,5.0,5.0,494.0756630003307,3.0,1.0,phase_2,stop,400.0,300.0,3.0,,,,,,,,,gray,I
0.0,7.0,2.0,1.0,5.0,5.0,724.3206869998176,3.0,1.0,phase_2,go,350.0,300.0,1.0,,,,,,,,,magenta,cross
0.0,1.0,0.5,0.0,6.0,6.0,660.4713410006298,3.0,1.0,phase_2,go,350.0,300.0,1.0,,,,,,,,,cyan,flipped triangle
0.0,8.0,4.0,1.0,6.0,0.0,0.0,3.0,1.0,phase_2,stop,350.0,300.0,4.0,,,,,,,,,green,circle
0.0,2.0,1.0,0.0,5.0,5.0,503.0303549992823,3.0,1.0,phase_2,go,350.0,350.0,1.0,,,,,,,,,blue,hexagon
0.0,3.0,2.0,0.0,5.0,5.0,680.8808999994653,3.0,1.0,phase_2,go,350.0,350.0,1.0,,,,,,,,,white,square
0.0,5.0,0.5,1.0,5.0,5.0,687.5460449991806,3.0,1.0,phase_2,go,350.0,350.0,1.0,,,,,,,,,gray,I
0.0,6.0,1.0,1.0,5.0,0.0,0.0,3.0,1.0,phase_2,stop,350.0,350.0,4.0,,,,,,,,,yellow,triangle
0.0,7.0,2.0,1.0,6.0,0.0,0.0,3.0,1.0,phase_2,stop,400.0,350.0,4.0,,,,,,,,,magenta,cross
0.0,3.0,2.0,0.0,6.0,6.0,548.2336920003945,3.0,1.0,phase_2,go,400.0,400.0,1.0,,,,,,,,,white,square
0.0,7.0,2.0,1.0,6.0,0.0,0.0,3.0,1.0,phase_2,stop,400.0,400.0,4.0,,,,,,,,,magenta,cross
0.0,6.0,1.0,1.0,5.0,0.0,0.0,3.0,1.0,phase_2,stop,400.0,450.0,4.0,,,,,,,,,yellow,triangle
0.0,3.0,2.0,0.0,6.0,6.0,465.0712239999848,3.0,1.0,phase_2,go,450.0,450.0,1.0,,,,,,,,,white,square
0.0,2.0,1.0,0.0,5.0,5.0,532.0055129996035,3.0,1.0,phase_2,go,450.0,450.0,1.0,,,,,,,,,blue,hexagon
0.0,4.0,4.0,0.0,6.0,6.0,570.6952219998129,3.0,1.0,phase_2,go,450.0,450.0,1.0,,,,,,,,,orange,diamond
0.0,6.0,1.0,1.0,5.0,0.0,0.0,3.0,1.0,phase_2,stop,450.0,450.0,4.0,,,,,,,,,yellow,triangle
0.0,4.0,4.0,0.0,5.0,5.0,521.8202460000612,3.0,1.0,phase_2,go,500.0,450.0,1.0,,,,,,,,,orange,diamond
0.0,2.0,1.0,0.0,5.0,5.0,417.1495930004312,3.0,1.0,phase_2,go,500.0,450.0,1.0,,,,,,,,,blue,hexagon
0.0,7.0,2.0,1.0,5.0,5.0,613.8472590000674,3.0,1.0,phase_2,go,500.0,450.0,1.0,,,,,,,,,magenta,cross
0.0,3.0,2.0,0.0,5.0,5.0,596.3307739993979,3.0,1.0,phase_2,go,500.0,450.0,1.0,,,,,,,,,white,square
0.0,4.0,4.0,0.0,6.0,6.0,429.7214799998983,3.0,1.0,phase_2,go,500.0,450.0,1.0,,,,,,,,,orange,diamond
0.0,1.0,0.5,0.0,6.0,6.0,808.0022470003314,3.0,1.0,phase_2,go,500.0,450.0,1.0,,,,,,,,,cyan,flipped triangle
0.0,7.0,2.0,1.0,5.0,5.0,635.9546800003955,3.0,1.0,phase_2,stop,500.0,450.0,3.0,,,,,,,,,magenta,cross
0.0,6.0,1.0,1.0,6.0,6.0,475.2770309996776,3.0,1.0,phase_2,go,450.0,450.0,1.0,,,,,,,,,yellow,triangle
0.0,1.0,0.5,0.0,6.0,6.0,640.52213100058,3.0,1.0,phase_2,go,450.0,450.0,1.0,,,,,,,,,cyan,flipped triangle
0.0,5.0,0.5,1.0,6.0,6.0,939.0617100007148,3.0,1.0,phase_2,go,450.0,450.0,1.0,,,,,,,,,gray,I
0.0,6.0,1.0,1.0,5.0,5.0,674.27304299963,3.0,1.0,phase_2,stop,450.0,450.0,3.0,,,,,,,,,yellow,triangle
0.0,1.0,0.5,0.0,6.0,6.0,567.442112000208,3.0,1.0,phase_2,go,400.0,450.0,1.0,,,,,,,,,cyan,flipped triangle
0.0,3.0,2.0,0.0,5.0,5.0,688.4235199995601,3.0,1.0,phase_2,go,400.0,450.0,1.0,,,,,,,,,white,square
0.0,4.0,4.0,0.0,6.0,6.0,503.4008819993687,3.0,1.0,phase_2,go,400.0,450.0,1.0,,,,,,,,,orange,diamond
0.0,5.0,0.5,1.0,6.0,0.0,0.0,3.0,1.0,phase_2,stop,400.0,450.0,4.0,,,,,,,,,gray,I
0.0,1.0,0.5,0.0,6.0,6.0,587.653264000437,3.0,1.0,phase_2,go,400.0,500.0,1.0,,,,,,,,,cyan,flipped triangle
0.0,7.0,2.0,1.0,6.0,6.0,547.282651000387,4.0,1.0,phase_2,stop,400.0,500.0,3.0,,,,,,,,,magenta,cross
0.0,3.0,2.0,0.0,5.0,5.0,726.7531759998747,4.0,1.0,phase_2,go,400.0,450.0,1.0,,,,,,,,,white,square
0.0,1.0,0.5,0.0,5.0,5.0,530.8386549995703,4.0,1.0,phase_2,go,400.0,450.0,1.0,,,,,,,,,cyan,flipped triangle
0.0,2.0,1.0,0.0,6.0,6.0,596.9693420001931,4.0,1.0,phase_2,go,400.0,450.0,1.0,,,,,,,,,blue,hexagon
0.0,5.0,0.5,1.0,6.0,0.0,0.0,4.0,1.0,phase_2,stop,400.0,450.0,4.0,,,,,,,,,gray,I
0.0,6.0,1.0,1.0,6.0,6.0,670.98072600038,4.0,1.0,phase_2,stop,400.0,500.0,3.0,,,,,,,,,yellow,triangle
0.0,6.0,1.0,1.0,5.0,0.0,0.0,4.0,1.0,phase_2,stop,400.0,450.0,4.0,,,,,,,,,yellow,triangle
0.0,4.0,4.0,0.0,6.0,6.0,554.1205949994037,4.0,1.0,phase_2,go,450.0,450.0,1.0,,,,,,,,,orange,diamond
0.0,2.0,1.0,0.0,6.0,6.0,726.2756780000927,4.0,1.0,phase_2,go,450.0,450.0,1.0,,,,,,,,,blue,hexagon
0.0,1.0,0.5,0.0,5.0,5.0,706.8685189997268,4.0,1.0,phase_2,go,450.0,450.0,1.0,,,,,,,,,cyan,flipped triangle
0.0,3.0,2.0,0.0,6.0,6.0,520.5351349995908,4.0,1.0,phase_2,go,450.0,450.0,1.0,,,,,,,,,white,square
0.0,6.0,1.0,1.0,6.0,0.0,0.0,4.0,1.0,phase_2,stop,450.0,450.0,4.0,,,,,,,,,yellow,triangle
0.0,1.0,0.5,0.0,5.0,5.0,522.471434000181,4.0,1.0,phase_2,go,450.0,500.0,1.0,,,,,,,,,cyan,flipped triangle
0.0,4.0,4.0,0.0,5.0,5.0,576.1832340003821,4.0,1.0,phase_2,go,450.0,500.0,1.0,,,,,,,,,orange,diamond
0.0,4.0,4.0,0.0,5.0,5.0,594.8401449995799,4.0,1.0,phase_2,go,450.0,500.0,1.0,,,,,,,,,orange,diamond
0.0,4.0,4.0,0.0,6.0,6.0,605.1059819992588,4.0,1.0,phase_2,go,450.0,500.0,1.0,,,,,,,,,orange,diamond
0.0,5.0,0.5,1.0,5.0,5.0,855.9725229997639,4.0,1.0,phase_2,go,450.0,500.0,1.0,,,,,,,,,gray,I
0.0,8.0,4.0,1.0,5.0,5.0,588.9379709997229,4.0,1.0,phase_2,stop,450.0,500.0,3.0,,,,,,,,,green,circle
0.0,5.0,0.5,1.0,6.0,6.0,635.0431189994197,4.0,1.0,phase_2,go,400.0,500.0,1.0,,,,,,,,,gray,I
0.0,2.0,1.0,0.0,5.0,5.0,679.1074760003539,4.0,1.0,phase_2,go,400.0,500.0,1.0,,,,,,,,,blue,hexagon
0.0,4.0,4.0,0.0,5.0,5.0,709.750871000324,4.0,1.0,phase_2,go,400.0,500.0,1.0,,,,,,,,,orange,diamond
0.0,6.0,1.0,1.0,5.0,5.0,584.6418119999726,4.0,1.0,phase_2,stop,400.0,500.0,3.0,,,,,,,,,yellow,triangle
0.0,2.0,1.0,0.0,5.0,5.0,635.0695559995074,4.0,1.0,phase_2,go,350.0,500.0,1.0,,,,,,,,,blue,hexagon
0.0,6.0,1.0,1.0,6.0,0.0,0.0,4.0,1.0,phase_2,stop,350.0,500.0,4.0,,,,,,,,,yellow,triangle
0.0,3.0,2.0,0.0,6.0,6.0,988.6521079997692,4.0,1.0,phase_2,go,350.0,550.0,1.0,,,,,,,,,white,square
0.0,2.0,1.0,0.0,5.0,5.0,650.0399410006139,4.0,1.0,phase_2,go,350.0,550.0,1.0,,,,,,,,,blue,hexagon
0.0,7.0,2.0,1.0,5.0,0.0,0.0,4.0,1.0,phase_2,stop,350.0,550.0,4.0,,,,,,,,,magenta,cross
0.0,7.0,2.0,1.0,6.0,6.0,568.3197259995723,4.0,1.0,phase_2,go,400.0,550.0,1.0,,,,,,,,,magenta,cross
0.0,8.0,4.0,1.0,5.0,5.0,586.4122319999296,4.0,1.0,phase_2,go,400.0,550.0,1.0,,,,,,,,,green,circle
0.0,5.0,0.5,1.0,6.0,6.0,568.5291970003163,4.0,1.0,phase_2,go,400.0,550.0,1.0,,,,,,,,,gray,I
0.0,5.0,0.5,1.0,6.0,6.0,503.60353700034466,4.0,1.0,phase_2,go,400.0,550.0,1.0,,,,,,,,,gray,I
0.0,4.0,4.0,0.0,6.0,6.0,837.1837279992178,4.0,1.0,phase_2,go,400.0,550.0,1.0,,,,,,,,,orange,diamond
0.0,3.0,2.0,0.0,6.0,6.0,381.5105060002679,4.0,1.0,phase_2,go,400.0,550.0,1.0,,,,,,,,,white,square
0.0,7.0,2.0,1.0,5.0,0.0,0.0,4.0,1.0,phase_2,stop,400.0,550.0,4.0,,,,,,,,,magenta,cross
0.0,3.0,2.0,0.0,5.0,5.0,715.6331309997768,4.0,1.0,phase_2,go,450.0,550.0,1.0,,,,,,,,,white,square
0.0,8.0,4.0,1.0,6.0,6.0,641.0668959997565,4.0,1.0,phase_2,go,450.0,550.0,1.0,,,,,,,,,green,circle
0.0,8.0,4.0,1.0,5.0,5.0,494.8519130002751,5.0,1.0,phase_2,stop,450.0,550.0,3.0,,,,,,,,,green,circle
0.0,3.0,2.0,0.0,6.0,6.0,568.5947459996896,5.0,1.0,phase_2,go,400.0,550.0,1.0,,,,,,,,,white,square
0.0,4.0,4.0,0.0,5.0,5.0,572.1327000001111,5.0,1.0,phase_2,go,400.0,550.0,1.0,,,,,,,,,orange,diamond
0.0,5.0,0.5,1.0,5.0,5.0,523.6359179998544,5.0,1.0,phase_2,stop,400.0,550.0,3.0,,,,,,,,,gray,I
0.0,1.0,0.5,0.0,5.0,5.0,786.4847860000737,5.0,1.0,phase_2,go,350.0,550.0,1.0,,,,,,,,,cyan,flipped triangle
0.0,7.0,2.0,1.0,6.0,6.0,595.1987159996861,5.0,1.0,phase_2,stop,350.0,550.0,3.0,,,,,,,,,magenta,cross
0.0,8.0,4.0,1.0,5.0,0.0,0.0,5.0,1.0,phase_2,stop,350.0,500.0,4.0,,,,,,,,,green,circle
0.0,6.0,1.0,1.0,6.0,6.0,662.0119389999672,5.0,1.0,phase_2,go,400.0,500.0,1.0,,,,,,,,,yellow,triangle
0.0,5.0,0.5,1.0,5.0,5.0,526.2461689999327,5.0,1.0,phase_2,stop,400.0,500.0,3.0,,,,,,,,,gray,I
0.0,2.0,1.0,0.0,5.0,5.0,675.4716400000689,5.0,1.0,phase_2,go,350.0,500.0,1.0,,,,,,,,,blue,hexagon
0.0,6.0,1.0,1.0,6.0,0.0,0.0,5.0,1.0,phase_2,stop,350.0,500.0,4.0,,,,,,,,,yellow,triangle
0.0,6.0,1.0,1.0,6.0,6.0,738.8766960002613,5.0,1.0,phase_2,stop,350.0,550.0,3.0,,,,,,,,,yellow,triangle
0.0,3.0,2.0,0.0,6.0,6.0,765.8289310002147,5.0,1.0,phase_2,go,350.0,500.0,1.0,,,,,,,,,white,square
0.0,4.0,4.0,0.0,6.0,6.0,923.0987199998708,5.0,1.0,phase_2,go,350.0,500.0,1.0,,,,,,,,,orange,diamond
0.0,2.0,1.0,0.0,5.0,5.0,710.0738049994106,5.0,1.0,phase_2,go,350.0,500.0,1.0,,,,,,,,,blue,hexagon
0.0,1.0,0.5,0.0,6.0,6.0,756.5908200003832,5.0,1.0,phase_2,go,350.0,500.0,1.0,,,,,,,,,cyan,flipped triangle
0.0,4.0,4.0,0.0,5.0,5.0,808.3810329999324,5.0,1.0,phase_2,go,350.0,500.0,1.0,,,,,,,,,orange,diamond
0.0,2.0,1.0,0.0,6.0,6.0,735.3717570003937,5.0,1.0,phase_2,go,350.0,500.0,1.0,,,,,,,,,blue,hexagon
0.0,3.0,2.0,0.0,6.0,6.0,531.4845720004087,5.0,1.0,phase_2,go,350.0,500.0,1.0,,,,,,,,,white,square
0.0,6.0,1.0,1.0,6.0,0.0,0.0,5.0,1.0,phase_2,stop,350.0,500.0,4.0,,,,,,,,,yellow,triangle
0.0,6.0,1.0,1.0,5.0,5.0,773.3124759997736,5.0,1.0,phase_2,go,350.0,550.0,1.0,,,,,,,,,yellow,triangle
0.0,5.0,0.5,1.0,5.0,0.0,0.0,5.0,1.0,phase_2,stop,350.0,550.0,4.0,,,,,,,,,gray,I
0.0,4.0,4.0,0.0,5.0,5.0,512.6528840000901,5.0,1.0,phase_2,go,400.0,550.0,1.0,,,,,,,,,orange,diamond
0.0,7.0,2.0,1.0,6.0,6.0,638.393688999713,5.0,1.0,phase_2,stop,400.0,550.0,3.0,,,,,,,,,magenta,cross
0.0,3.0,2.0,0.0,5.0,5.0,692.9931149998083,5.0,1.0,phase_2,go,400.0,500.0,1.0,,,,,,,,,white,square
0.0,4.0,4.0,0.0,5.0,5.0,981.4270349997968,5.0,1.0,phase_2,go,400.0,500.0,1.0,,,,,,,,,orange,diamond
0.0,1.0,0.5,0.0,5.0,5.0,876.3063040005363,5.0,1.0,phase_2,go,400.0,500.0,1.0,,,,,,,,,cyan,flipped triangle
0.0,7.0,2.0,1.0,6.0,6.0,888.0322180002622,5.0,1.0,phase_2,go,400.0,500.0,1.0,,,,,,,,,magenta,cross
0.0,5.0,0.5,1.0,6.0,0.0,0.0,5.0,1.0,phase_2,stop,400.0,500.0,4.0,,,,,,,,,gray,I
0.0,5.0,0.5,1.0,5.0,5.0,451.5191870004855,5.0,1.0,phase_2,stop,400.0,550.0,3.0,,,,,,,,,gray,I
0.0,8.0,4.0,1.0,6.0,6.0,648.3864839992748,5.0,1.0,phase_2,stop,350.0,550.0,3.0,,,,,,,,,green,circle
0.0,1.0,0.5,0.0,6.0,6.0,731.2429469993731,5.0,1.0,phase_2,go,350.0,500.0,1.0,,,,,,,,,cyan,flipped triangle
0.0,5.0,0.5,1.0,6.0,0.0,0.0,5.0,1.0,phase_2,stop,350.0,500.0,4.0,,,,,,,,,gray,I
0.0,5.0,0.5,1.0,5.0,0.0,0.0,5.0,1.0,phase_2,stop,350.0,550.0,4.0,,,,,,,,,gray,I
0.0,3.0,2.0,0.0,6.0,6.0,616.9993310004429,5.0,1.0,phase_2,go,400.0,550.0,1.0,,,,,,,,,white,square
0.0,8.0,4.0,1.0,5.0,5.0,710.5566889995316,5.0,1.0,phase_2,go,400.0,550.0,1.0,,,,,,,,,green,circle
0.0,5.0,0.5,1.0,6.0,6.0,390.1871870002651,6.0,1.0,phase_2,stop,400.0,550.0,3.0,,,,,,,,,gray,I
0.0,1.0,0.5,0.0,6.0,6.0,558.6191519996646,6.0,1.0,phase_2,go,400.0,500.0,1.0,,,,,,,,,cyan,flipped triangle
0.0,6.0,1.0,1.0,6.0,6.0,651.2477849992138,6.0,1.0,phase_2,stop,400.0,500.0,3.0,,,,,,,,,yellow,triangle
0.0,8.0,4.0,1.0,5.0,5.0,531.512720000137,6.0,1.0,phase_2,go,400.0,450.0,1.0,,,,,,,,,green,circle
0.0,8.0,4.0,1.0,6.0,6.0,538.0237319996013,6.0,1.0,phase_2,stop,400.0,450.0,3.0,,,,,,,,,green,circle
0.0,5.0,0.5,1.0,6.0,0.0,0.0,6.0,1.0,phase_2,stop,400.0,400.0,4.0,,,,,,,,,gray,I
0.0,4.0,4.0,0.0,6.0,6.0,399.8640259997046,6.0,1.0,phase_2,go,400.0,450.0,1.0,,,,,,,,,orange,diamond
0.0,8.0,4.0,1.0,6.0,6.0,583.9869820001695,6.0,1.0,phase_2,stop,400.0,450.0,3.0,,,,,,,,,green,circle
0.0,8.0,4.0,1.0,6.0,0.0,0.0,6.0,1.0,phase_2,stop,400.0,400.0,4.0,,,,,,,,,green,circle
0.0,3.0,2.0,0.0,5.0,5.0,560.7414910000443,6.0,1.0,phase_2,go,400.0,450.0,1.0,,,,,,,,,white,square
0.0,4.0,4.0,0.0,5.0,5.0,689.1251520000878,6.0,1.0,phase_2,go,400.0,450.0,1.0,,,,,,,,,orange,diamond
0.0,3.0,2.0,0.0,5.0,5.0,829.6761290002905,6.0,1.0,phase_2,go,400.0,450.0,1.0,,,,,,,,,white,square
0.0,7.0,2.0,1.0,6.0,0.0,0.0,6.0,1.0,phase_2,stop,400.0,450.0,4.0,,,,,,,,,magenta,cross
0.0,2.0,1.0,0.0,5.0,5.0,363.6193709999133,6.0,1.0,phase_2,go,400.0,500.0,1.0,,,,,,,,,blue,hexagon
0.0,6.0,1.0,1.0,6.0,0.0,0.0,6.0,1.0,phase_2,stop,400.0,500.0,4.0,,,,,,,,,yellow,triangle
0.0,1.0,0.5,0.0,5.0,5.0,503.90454300031706,6.0,1.0,phase_2,go,400.0,550.0,1.0,,,,,,,,,cyan,flipped triangle
0.0,1.0,0.5,0.0,5.0,5.0,428.2954700001937,6.0,1.0,phase_2,go,400.0,550.0,1.0,,,,,,,,,cyan,flipped triangle
0.0,2.0,1.0,0.0,6.0,6.0,715.8139940002002,6.0,1.0,phase_2,go,400.0,550.0,1.0,,,,,,,,,blue,hexagon
0.0,4.0,4.0,0.0,5.0,5.0,549.8324850004792,6.0,1.0,phase_2,go,400.0,550.0,1.0,,,,,,,,,orange,diamond
0.0,7.0,2.0,1.0,6.0,6.0,633.6931000005279,6.0,1.0,phase_2,stop,400.0,550.0,3.0,,,,,,,,,magenta,cross
0.0,1.0,0.5,0.0,6.0,6.0,865.4121800000212,6.0,1.0,phase_2,go,400.0,500.0,1.0,,,,,,,,,cyan,flipped triangle
0.0,1.0,0.5,0.0,5.0,5.0,531.7291989995283,6.0,1.0,phase_2,go,400.0,500.0,1.0,,,,,,,,,cyan,flipped triangle
0.0,8.0,4.0,1.0,5.0,0.0,0.0,6.0,1.0,phase_2,stop,400.0,500.0,4.0,,,,,,,,,green,circle
0.0,1.0,0.5,0.0,5.0,5.0,578.0552379992514,6.0,1.0,phase_2,go,450.0,500.0,1.0,,,,,,,,,cyan,flipped triangle
0.0,6.0,1.0,1.0,6.0,0.0,0.0,6.0,1.0,phase_2,stop,450.0,500.0,4.0,,,,,,,,,yellow,triangle
0.0,3.0,2.0,0.0,6.0,6.0,557.6939940001466,6.0,1.0,phase_2,go,450.0,550.0,1.0,,,,,,,,,white,square
0.0,3.0,2.0,0.0,5.0,5.0,679.8951440005112,6.0,1.0,phase_2,go,450.0,550.0,1.0,,,,,,,,,white,square
0.0,3.0,2.0,0.0,5.0,5.0,978.7556950004728,6.0,1.0,phase_2,go,450.0,550.0,1.0,,,,,,,,,white,square
0.0,5.0,0.5,1.0,5.0,0.0,0.0,6.0,1.0,phase_2,stop,450.0,550.0,4.0,,,,,,,,,gray,I
0.0,6.0,1.0,1.0,6.0,6.0,390.5286839999462,6.0,1.0,phase_2,stop,500.0,550.0,3.0,,,,,,,,,yellow,triangle
0.0,5.0,0.5,1.0,5.0,5.0,590.6390890004332,6.0,1.0,phase_2,stop,500.0,500.0,3.0,,,,,,,,,gray,I
0.0,3.0,2.0,0.0,5.0,5.0,345.2640920004342,6.0,1.0,phase_2,go,450.0,500.0,1.0,,,,,,,,,white,square
0.0,2.0,1.0,0.0,6.0,6.0,549.8096139999689,6.0,1.0,phase_2,go,450.0,500.0,1.0,,,,,,,,,blue,hexagon
0.0,6.0,1.0,1.0,5.0,0.0,0.0,6.0,1.0,phase_2,stop,450.0,500.0,4.0,,,,,,,,,yellow,triangle
0.0,6.0,1.0,1.0,5.0,0.0,0.0,6.0,1.0,phase_2,stop,500.0,500.0,4.0,,,,,,,,,yellow,triangle
0.0,8.0,4.0,1.0,5.0,5.0,522.7903590002825,6.0,1.0,phase_2,go,550.0,500.0,1.0,,,,,,,,,green,circle
0.0,8.0,4.0,1.0,6.0,6.0,566.8609500007733,7.0,1.0,phase_2,stop,550.0,500.0,3.0,,,,,,,,,green,circle
0.0,3.0,2.0,0.0,6.0,6.0,630.9609510008158,7.0,1.0,phase_2,go,550.0,450.0,1.0,,,,,,,,,white,square
0.0,4.0,4.0,0.0,6.0,6.0,549.1481930002919,7.0,1.0,phase_2,go,550.0,450.0,1.0,,,,,,,,,orange,diamond
0.0,2.0,1.0,0.0,6.0,6.0,653.439556000194,7.0,1.0,phase_2,go,550.0,450.0,1.0,,,,,,,,,blue,hexagon
0.0,3.0,2.0,0.0,5.0,5.0,877.841124999577,7.0,1.0,phase_2,go,550.0,450.0,1.0,,,,,,,,,white,square
0.0,2.0,1.0,0.0,5.0,5.0,623.4657989998595,7.0,1.0,phase_2,go,550.0,450.0,1.0,,,,,,,,,blue,hexagon
0.0,5.0,0.5,1.0,6.0,6.0,988.013705999947,7.0,1.0,phase_2,go,550.0,450.0,1.0,,,,,,,,,gray,I
0.0,5.0,0.5,1.0,6.0,0.0,0.0,7.0,1.0,phase_2,stop,550.0,450.0,4.0,,,,,,,,,gray,I
0.0,1.0,0.5,0.0,5.0,5.0,558.2928829999219,7.0,1.0,phase_2,go,550.0,500.0,1.0,,,,,,,,,cyan,flipped triangle
0.0,5.0,0.5,1.0,5.0,5.0,639.3633749994478,7.0,1.0,phase_2,stop,550.0,500.0,3.0,,,,,,,,,gray,I
0.0,2.0,1.0,0.0,6.0,6.0,608.8842429999204,7.0,1.0,phase_2,go,500.0,500.0,1.0,,,,,,,,,blue,hexagon
0.0,6.0,1.0,1.0,5.0,0.0,0.0,7.0,1.0,phase_2,stop,500.0,500.0,4.0,,,,,,,,,yellow,triangle
0.0,8.0,4.0,1.0,6.0,6.0,401.3709360006032,7.0,1.0,phase_2,go,550.0,500.0,1.0,,,,,,,,,green,circle
0.0,5.0,0.5,1.0,5.0,5.0,594.4793529997696,7.0,1.0,phase_2,stop,550.0,500.0,3.0,,,,,,,,,gray,I
0.0,1.0,0.5,0.0,5.0,5.0,530.2982150005846,7.0,1.0,phase_2,go,500.0,500.0,1.0,,,,,,,,,cyan,flipped triangle
0.0,2.0,1.0,0.0,6.0,6.0,641.105615000015,7.0,1.0,phase_2,go,500.0,500.0,1.0,,,,,,,,,blue,hexagon
0.0,4.0,4.0,0.0,5.0,5.0,827.4607269995613,7.0,1.0,phase_2,go,500.0,500.0,1.0,,,,,,,,,orange,diamond
0.0,8.0,4.0,1.0,6.0,6.0,733.6814139998751,7.0,1.0,phase_2,go,500.0,500.0,1.0,,,,,,,,,green,circle
0.0,7.0,2.0,1.0,6.0,0.0,0.0,7.0,1.0,phase_2,stop,500.0,500.0,4.0,,,,,,,,,magenta,cross
0.0,7.0,2.0,1.0,6.0,0.0,0.0,7.0,1.0,phase_2,stop,500.0,550.0,4.0,,,,,,,,,magenta,cross
0.0,3.0,2.0,0.0,5.0,5.0,528.7837480000235,7.0,1.0,phase_2,go,500.0,600.0,1.0,,,,,,,,,white,square
0.0,1.0,0.5,0.0,5.0,5.0,633.9744500000961,7.0,1.0,phase_2,go,500.0,600.0,1.0,,,,,,,,,cyan,flipped triangle
0.0,7.0,2.0,1.0,6.0,6.0,715.5758729995796,7.0,1.0,phase_2,go,500.0,600.0,1.0,,,,,,,,,magenta,cross
0.0,2.0,1.0,0.0,5.0,5.0,643.2270490004157,7.0,1.0,phase_2,go,500.0,600.0,1.0,,,,,,,,,blue,hexagon
0.0,7.0,2.0,1.0,5.0,0.0,0.0,7.0,1.0,phase_2,stop,500.0,600.0,4.0,,,,,,,,,magenta,cross
0.0,2.0,1.0,0.0,5.0,5.0,539.1022109997721,7.0,1.0,phase_2,go,550.0,600.0,1.0,,,,,,,,,blue,hexagon
0.0,6.0,1.0,1.0,5.0,5.0,614.3509880002966,7.0,1.0,phase_2,go,550.0,600.0,1.0,,,,,,,,,yellow,triangle
0.0,8.0,4.0,1.0,6.0,6.0,641.3688070006174,7.0,1.0,phase_2,stop,550.0,600.0,3.0,,,,,,,,,green,circle
0.0,7.0,2.0,1.0,5.0,0.0,0.0,7.0,1.0,phase_2,stop,550.0,550.0,4.0,,,,,,,,,magenta,cross
0.0,2.0,1.0,0.0,6.0,6.0,649.566130000494,7.0,1.0,phase_2,go,600.0,550.0,1.0,,,,,,,,,blue,hexagon
0.0,1.0,0.5,0.0,5.0,5.0,781.6250400001081,7.0,1.0,phase_2,go,600.0,550.0,1.0,,,,,,,,,cyan,flipped triangle
0.0,7.0,2.0,1.0,6.0,6.0,615.6887920005829,7.0,1.0,phase_2,stop,600.0,550.0,3.0,,,,,,,,,magenta,cross
0.0,2.0,1.0,0.0,5.0,5.0,484.8848820001876,7.0,1.0,phase_2,go,600.0,500.0,1.0,,,,,,,,,blue,hexagon
0.0,5.0,0.5,1.0,6.0,6.0,838.7457030003134,7.0,1.0,phase_2,go,600.0,500.0,1.0,,,,,,,,,gray,I
0.0,2.0,1.0,0.0,6.0,6.0,836.0089870002412,7.0,1.0,phase_2,go,600.0,500.0,1.0,,,,,,,,,blue,hexagon
0.0,1.0,0.5,0.0,5.0,5.0,901.4646100004028,7.0,1.0,phase_2,go,600.0,500.0,1.0,,,,,,,,,cyan,flipped triangle
0.0,6.0,1.0,1.0,5.0,0.0,0.0,8.0,1.0,phase_2,stop,600.0,500.0,4.0,,,,,,,,,yellow,triangle
0.0,6.0,1.0,1.0,5.0,5.0,466.3443899999038,8.0,1.0,phase_2,stop,650.0,500.0,3.0,,,,,,,,,yellow,triangle
0.0,7.0,2.0,1.0,5.0,5.0,652.5662370004284,8.0,1.0,phase_2,go,600.0,500.0,1.0,,,,,,,,,magenta,cross
0.0,5.0,0.5,1.0,6.0,6.0,554.071993999969,8.0,1.0,phase_2,stop,600.0,500.0,3.0,,,,,,,,,gray,I
0.0,8.0,4.0,1.0,5.0,5.0,643.9307199998439,8.0,1.0,phase_2,stop,600.0,450.0,3.0,,,,,,,,,green,circle
0.0,1.0,0.5,0.0,6.0,6.0,808.4809590000077,8.0,1.0,phase_2,go,550.0,450.0,1.0,,,,,,,,,cyan,flipped triangle
0.0,1.0,0.5,0.0,6.0,6.0,614.0223080001306,8.0,1.0,phase_2,go,550.0,450.0,1.0,,,,,,,,,cyan,flipped triangle
0.0,7.0,2.0,1.0,6.0,6.0,643.7299690005602,8.0,1.0,phase_2,go,550.0,450.0,1.0,,,,,,,,,magenta,cross
0.0,6.0,1.0,1.0,5.0,0.0,0.0,8.0,1.0,phase_2,stop,550.0,450.0,4.0,,,,,,,,,yellow,triangle
0.0,5.0,0.5,1.0,6.0,6.0,575.8072640001046,8.0,1.0,phase_2,stop,600.0,450.0,3.0,,,,,,,,,gray,I
0.0,4.0,4.0,0.0,5.0,5.0,568.3436169993001,8.0,1.0,phase_2,go,600.0,400.0,1.0,,,,,,,,,orange,diamond
0.0,7.0,2.0,1.0,6.0,0.0,0.0,8.0,1.0,phase_2,stop,600.0,400.0,4.0,,,,,,,,,magenta,cross
0.0,3.0,2.0,0.0,6.0,6.0,472.8479950008477,8.0,1.0,phase_2,go,600.0,450.0,1.0,,,,,,,,,white,square
0.0,4.0,4.0,0.0,6.0,6.0,494.2644239999936,8.0,1.0,phase_2,go,600.0,450.0,1.0,,,,,,,,,orange,diamond
0.0,5.0,0.5,1.0,5.0,5.0,701.7435010002373,8.0,1.0,phase_2,stop,600.0,450.0,3.0,,,,,,,,,gray,I
0.0,4.0,4.0,0.0,6.0,6.0,547.2377740006777,8.0,1.0,phase_2,go,550.0,450.0,1.0,,,,,,,,,orange,diamond
0.0,4.0,4.0,0.0,6.0,6.0,706.830281999828,8.0,1.0,phase_2,go,550.0,450.0,1.0,,,,,,,,,orange,diamond
0.0,3.0,2.0,0.0,6.0,6.0,569.3803080002908,8.0,1.0,phase_2,go,550.0,450.0,1.0,,,,,,,,,white,square
0.0,5.0,0.5,1.0,6.0,0.0,0.0,8.0,1.0,phase_2,stop,550.0,450.0,4.0,,,,,,,,,gray,I
0.0,2.0,1.0,0.0,6.0,6.0,707.8029690001131,8.0,1.0,phase_2,go,550.0,500.0,1.0,,,,,,,,,blue,hexagon
0.0,1.0,0.5,0.0,6.0,6.0,996.0276709998652,8.0,1.0,phase_2,go,550.0,500.0,1.0,,,,,,,,,cyan,flipped triangle
0.0,8.0,4.0,1.0,5.0,0.0,0.0,8.0,1.0,phase_2,stop,550.0,500.0,4.0,,,,,,,,,green,circle
0.0,8.0,4.0,1.0,6.0,6.0,372.6539649996994,8.0,1.0,phase_2,stop,600.0,500.0,3.0,,,,,,,,,green,circle
0.0,8.0,4.0,1.0,5.0,5.0,521.8489019998742,8.0,1.0,phase_2,stop,600.0,450.0,3.0,,,,,,,,,green,circle
0.0,4.0,4.0,0.0,6.0,6.0,473.5809050007447,8.0,1.0,phase_2,go,550.0,450.0,1.0,,,,,,,,,orange,diamond
0.0,5.0,0.5,1.0,6.0,0.0,0.0,8.0,1.0,phase_2,stop,550.0,450.0,4.0,,,,,,,,,gray,I
0.0,2.0,1.0,0.0,6.0,6.0,428.1039289999171,8.0,1.0,phase_2,go,550.0,500.0,1.0,,,,,,,,,blue,hexagon
0.0,7.0,2.0,1.0,5.0,0.0,0.0,8.0,1.0,phase_2,stop,550.0,500.0,4.0,,,,,,,,,magenta,cross
0.0,6.0,1.0,1.0,6.0,0.0,0.0,8.0,1.0,phase_2,stop,600.0,500.0,4.0,,,,,,,,,yellow,triangle
0.0,8.0,4.0,1.0,5.0,5.0,356.0063409995564,8.0,1.0,phase_2,stop,600.0,550.0,3.0,,,,,,,,,green,circle
0.0,3.0,2.0,0.0,5.0,5.0,643.832884999938,8.0,1.0,phase_2,go,550.0,550.0,1.0,,,,,,,,,white,square
0.0,2.0,1.0,0.0,6.0,6.0,316.8300199995428,8.0,1.0,phase_2,go,550.0,550.0,1.0,,,,,,,,,blue,hexagon
0.0,7.0,2.0,1.0,5.0,0.0,0.0,8.0,1.0,phase_2,stop,550.0,550.0,4.0,,,,,,,,,magenta,cross
0.0,4.0,4.0,0.0,6.0,6.0,513.3367460002773,8.0,1.0,phase_2,go,600.0,550.0,1.0,,,,,,,,,orange,diamond
0.0,8.0,4.0,1.0,6.0,0.0,0.0,8.0,1.0,phase_2,stop,600.0,550.0,4.0,,,,,,,,,green,circle
0.0,2.0,1.0,0.0,5.0,5.0,558.5924130000421,8.0,1.0,phase_2,go,600.0,600.0,1.0,,,,,,,,,blue,hexagon
0.0,7.0,2.0,1.0,7.0,3.0,1414.815861999159,1.0,2.0,phase_3,,,,,232.0,2.0,696.0,464.0,232.0,580.0,348.0,116.0,magenta,cross
0.0,6.0,1.0,1.0,7.0,4.0,2173.360106999098,1.0,1.0,phase_3,,,,,540.0,4.0,810.0,135.0,405.0,540.0,675.0,270.0,yellow,triangle
0.0,7.0,2.0,1.0,7.0,3.0,2617.3255600006087,1.0,1.0,phase_3,,,,,348.0,3.0,232.0,580.0,348.0,116.0,696.0,464.0,magenta,cross
0.0,3.0,2.0,0.0,7.0,2.0,1961.5842990006056,1.0,1.0,phase_3,,,,,116.0,1.0,696.0,116.0,232.0,464.0,580.0,348.0,white,square
0.0,5.0,0.5,1.0,7.0,6.0,2329.410259000724,1.0,1.0,phase_3,,,,,960.0,5.0,384.0,768.0,1152.0,192.0,576.0,960.0,gray,I
0.0,8.0,4.0,1.0,7.0,5.0,2021.9782999993186,1.0,1.0,phase_3,,,,,576.0,3.0,960.0,1152.0,768.0,192.0,576.0,384.0,green,circle
0.0,4.0,4.0,0.0,7.0,3.0,2465.791273998548,1.0,1.0,phase_3,,,,,154.0,1.0,924.0,462.0,154.0,616.0,770.0,308.0,orange,diamond
0.0,1.0,0.5,0.0,7.0,4.0,1765.1529100003245,1.0,1.0,phase_3,,,,,770.0,5.0,462.0,616.0,154.0,770.0,924.0,308.0,cyan,flipped triangle
0.0,1.0,0.5,0.0,7.0,3.0,2743.454899999051,1.0,1.0,phase_3,,,,,346.0,2.0,519.0,692.0,346.0,173.0,865.0,1038.0,cyan,flipped triangle
0.0,6.0,1.0,1.0,7.0,3.0,3184.4821059985406,1.0,1.0,phase_3,,,,,1038.0,6.0,865.0,692.0,1038.0,346.0,173.0,519.0,yellow,triangle
0.0,3.0,2.0,0.0,7.0,4.0,1958.643927000594,1.0,1.0,phase_3,,,,,154.0,1.0,308.0,924.0,770.0,154.0,616.0,462.0,white,square
0.0,5.0,0.5,1.0,7.0,4.0,2316.7025499988085,1.0,1.0,phase_3,,,,,924.0,6.0,616.0,154.0,770.0,924.0,308.0,462.0,gray,I
0.0,6.0,1.0,1.0,7.0,2.0,1831.6782170004444,1.0,1.0,phase_3,,,,,462.0,3.0,154.0,462.0,770.0,308.0,616.0,924.0,yellow,triangle
0.0,3.0,2.0,0.0,7.0,6.0,2152.084774001196,1.0,1.0,phase_3,,,,,173.0,1.0,519.0,346.0,865.0,692.0,1038.0,173.0,white,square
0.0,5.0,0.5,1.0,7.0,3.0,2363.9928009997675,1.0,1.0,phase_3,,,,,770.0,5.0,462.0,154.0,770.0,308.0,616.0,924.0,gray,I
0.0,6.0,1.0,1.0,7.0,1.0,2087.062885000705,1.0,1.0,phase_3,,,,,464.0,4.0,464.0,580.0,348.0,696.0,116.0,232.0,yellow,triangle
0.0,2.0,1.0,0.0,7.0,2.0,1893.8374829995157,1.0,1.0,phase_3,,,,,810.0,6.0,540.0,810.0,270.0,675.0,135.0,405.0,blue,hexagon
0.0,3.0,2.0,0.0,7.0,5.0,1691.650521999691,1.0,1.0,phase_3,,,,,116.0,1.0,232.0,464.0,696.0,580.0,116.0,348.0,white,square
0.0,2.0,1.0,0.0,7.0,3.0,3052.796332998696,1.0,1.0,phase_3,,,,,924.0,6.0,462.0,154.0,924.0,770.0,308.0,616.0,blue,hexagon
0.0,5.0,0.5,1.0,7.0,1.0,3625.480985998365,1.0,1.0,phase_3,,,,,696.0,6.0,696.0,116.0,464.0,580.0,232.0,348.0,gray,I
0.0,4.0,4.0,0.0,7.0,4.0,1611.9698129987228,2.0,1.0,phase_3,,,,,540.0,4.0,675.0,405.0,810.0,540.0,270.0,135.0,orange,diamond
0.0,2.0,1.0,0.0,7.0,4.0,1707.6059310002163,2.0,1.0,phase_3,,,,,768.0,4.0,1152.0,960.0,576.0,768.0,384.0,192.0,blue,hexagon
0.0,8.0,4.0,1.0,7.0,3.0,1754.5647589995497,2.0,1.0,phase_3,,,,,116.0,1.0,348.0,696.0,116.0,232.0,580.0,464.0,green,circle
0.0,7.0,2.0,1.0,7.0,6.0,3138.3667299996887,2.0,1.0,phase_3,,,,,865.0,5.0,519.0,1038.0,346.0,173.0,692.0,865.0,magenta,cross
0.0,8.0,4.0,1.0,7.0,1.0,1763.2038570009172,2.0,1.0,phase_3,,,,,154.0,1.0,154.0,924.0,308.0,462.0,770.0,616.0,green,circle
0.0,1.0,0.5,0.0,7.0,4.0,2632.381581001028,2.0,1.0,phase_3,,,,,192.0,1.0,960.0,384.0,768.0,192.0,576.0,1152.0,cyan,flipped triangle
0.0,4.0,4.0,0.0,7.0,6.0,2839.642613998876,2.0,1.0,phase_3,,,,,462.0,3.0,154.0,308.0,770.0,616.0,924.0,462.0,orange,diamond
0.0,8.0,4.0,1.0,7.0,3.0,1617.0761690009383,2.0,1.0,phase_3,,,,,154.0,1.0,770.0,924.0,154.0,462.0,616.0,308.0,green,circle
0.0,4.0,4.0,0.0,7.0,6.0,1847.259431000566,2.0,1.0,phase_3,,,,,960.0,5.0,192.0,384.0,1152.0,576.0,768.0,960.0,orange,diamond
0.0,3.0,2.0,0.0,7.0,2.0,1957.991352001045,2.0,1.0,phase_3,,,,,1038.0,6.0,519.0,1038.0,346.0,865.0,173.0,692.0,white,square
0.0,1.0,0.5,0.0,7.0,5.0,1821.821675001047,2.0,1.0,phase_3,,,,,270.0,2.0,810.0,405.0,675.0,540.0,270.0,135.0,cyan,flipped triangle
0.0,7.0,2.0,1.0,7.0,3.0,1387.2467189994495,2.0,1.0,phase_3,,,,,576.0,3.0,768.0,1152.0,576.0,192.0,384.0,960.0,magenta,cross
0.0,4.0,4.0,0.0,7.0,5.0,1756.856052999865,2.0,1.0,phase_3,,,,,692.0,4.0,346.0,865.0,173.0,519.0,692.0,1038.0,orange,diamond
0.0,4.0,4.0,0.0,7.0,2.0,1799.3163820010525,2.0,1.0,phase_3,,,,,576.0,3.0,768.0,576.0,192.0,1152.0,960.0,384.0,orange,diamond
0.0,7.0,2.0,1.0,7.0,4.0,1551.962169000035,2.0,1.0,phase_3,,,,,810.0,6.0,270.0,135.0,540.0,810.0,405.0,675.0,magenta,cross
0.0,4.0,4.0,0.0,7.0,2.0,1443.014217999007,2.0,1.0,phase_3,,,,,232.0,2.0,580.0,232.0,116.0,696.0,348.0,464.0,orange,diamond
0.0,7.0,2.0,1.0,7.0,6.0,2173.640200999216,2.0,1.0,phase_3,,,,,192.0,1.0,1152.0,384.0,768.0,960.0,576.0,192.0,magenta,cross
0.0,6.0,1.0,1.0,7.0,4.0,2002.2630160001427,2.0,1.0,phase_3,,,,,768.0,4.0,576.0,384.0,192.0,768.0,1152.0,960.0,yellow,triangle
0.0,2.0,1.0,0.0,7.0,1.0,1888.5528039991184,2.0,1.0,phase_3,,,,,696.0,6.0,696.0,348.0,580.0,232.0,116.0,464.0,blue,hexagon
0.0,2.0,1.0,0.0,7.0,2.0,1489.4419940010266,2.0,1.0,phase_3,,,,,616.0,4.0,924.0,616.0,308.0,154.0,462.0,770.0,blue,hexagon
0.0,8.0,4.0,1.0,7.0,2.0,1641.2936950000585,3.0,1.0,phase_3,,,,,116.0,1.0,232.0,116.0,348.0,580.0,696.0,464.0,green,circle
0.0,2.0,1.0,0.0,7.0,3.0,1183.605237001757,3.0,1.0,phase_3,,,,,1038.0,6.0,173.0,519.0,1038.0,346.0,865.0,692.0,blue,hexagon
0.0,1.0,0.5,0.0,7.0,5.0,2093.534821000503,3.0,1.0,phase_3,,,,,384.0,2.0,1152.0,576.0,768.0,192.0,384.0,960.0,cyan,flipped triangle
0.0,4.0,4.0,0.0,7.0,1.0,1848.5098410001228,3.0,1.0,phase_3,,,,,696.0,6.0,696.0,348.0,580.0,464.0,232.0,116.0,orange,diamond
0.0,8.0,4.0,1.0,7.0,5.0,1831.0622869994404,3.0,1.0,phase_3,,,,,173.0,1.0,346.0,519.0,865.0,692.0,173.0,1038.0,green,circle
0.0,5.0,0.5,1.0,7.0,5.0,1744.5002849999582,3.0,1.0,phase_3,,,,,519.0,3.0,1038.0,865.0,692.0,173.0,519.0,346.0,gray,I
0.0,6.0,1.0,1.0,7.0,3.0,1638.7131969986513,3.0,1.0,phase_3,,,,,308.0,2.0,924.0,616.0,308.0,770.0,462.0,154.0,yellow,triangle
0.0,2.0,1.0,0.0,7.0,6.0,1810.1870649989,3.0,1.0,phase_3,,,,,960.0,5.0,384.0,192.0,1152.0,576.0,768.0,960.0,blue,hexagon
0.0,7.0,2.0,1.0,7.0,2.0,1550.9473649999563,3.0,1.0,phase_3,,,,,540.0,4.0,405.0,540.0,675.0,810.0,270.0,135.0,magenta,cross
0.0,3.0,2.0,0.0,7.0,5.0,3309.736569999586,3.0,1.0,phase_3,,,,,768.0,4.0,192.0,576.0,384.0,1152.0,768.0,960.0,white,square
0.0,6.0,1.0,1.0,7.0,4.0,3122.2449209999468,3.0,1.0,phase_3,,,,,232.0,2.0,696.0,464.0,580.0,232.0,116.0,348.0,yellow,triangle
0.0,8.0,4.0,1.0,7.0,3.0,1868.6985619988263,3.0,1.0,phase_3,,,,,270.0,2.0,810.0,675.0,270.0,135.0,540.0,405.0,green,circle
0.0,7.0,2.0,1.0,7.0,1.0,1688.2737309988445,3.0,1.0,phase_3,,,,,770.0,5.0,770.0,308.0,616.0,462.0,154.0,924.0,magenta,cross
0.0,1.0,0.5,0.0,7.0,6.0,1356.8404890011152,3.0,1.0,phase_3,,,,,464.0,4.0,696.0,348.0,116.0,232.0,580.0,464.0,cyan,flipped triangle
0.0,4.0,4.0,0.0,7.0,2.0,1479.4762900000933,3.0,1.0,phase_3,,,,,675.0,5.0,810.0,675.0,270.0,135.0,405.0,540.0,orange,diamond
0.0,5.0,0.5,1.0,7.0,4.0,1912.261457000568,3.0,1.0,phase_3,,,,,348.0,3.0,232.0,696.0,116.0,348.0,464.0,580.0,gray,I
0.0,8.0,4.0,1.0,7.0,5.0,1530.8290270004363,3.0,1.0,phase_3,,,,,1152.0,6.0,192.0,576.0,960.0,384.0,1152.0,768.0,green,circle
0.0,2.0,1.0,0.0,7.0,3.0,1506.815815000664,3.0,1.0,phase_3,,,,,270.0,2.0,675.0,810.0,270.0,405.0,135.0,540.0,blue,hexagon
0.0,1.0,0.5,0.0,7.0,5.0,1558.4834879991831,3.0,1.0,phase_3,,,,,154.0,1.0,462.0,924.0,770.0,308.0,154.0,616.0,cyan,flipped triangle
0.0,5.0,0.5,1.0,7.0,6.0,1551.2607670007128,3.0,1.0,phase_3,,,,,675.0,5.0,405.0,540.0,270.0,135.0,810.0,675.0,gray,I
0.0,1.0,0.5,0.0,7.0,4.0,1498.7773449993256,4.0,1.0,phase_3,,,,,865.0,5.0,1038.0,692.0,346.0,865.0,519.0,173.0,cyan,flipped triangle
0.0,1.0,0.5,0.0,7.0,2.0,1392.4629320008537,4.0,1.0,phase_3,,,,,135.0,1.0,405.0,135.0,675.0,810.0,270.0,540.0,cyan,flipped triangle
0.0,3.0,2.0,0.0,7.0,2.0,1839.6824400006155,4.0,1.0,phase_3,,,,,924.0,6.0,154.0,924.0,770.0,616.0,462.0,308.0,white,square
0.0,7.0,2.0,1.0,7.0,3.0,1487.3770689991943,4.0,1.0,phase_3,,,,,865.0,5.0,519.0,346.0,865.0,173.0,692.0,1038.0,magenta,cross
0.0,5.0,0.5,1.0,7.0,5.0,1496.5191460014466,4.0,1.0,phase_3,,,,,1152.0,6.0,192.0,768.0,384.0,576.0,1152.0,960.0,gray,I
0.0,6.0,1.0,1.0,7.0,1.0,1311.3981379992763,4.0,1.0,phase_3,,,,,576.0,3.0,576.0,768.0,192.0,384.0,960.0,1152.0,yellow,triangle
0.0,5.0,0.5,1.0,7.0,2.0,2193.642615000499,4.0,1.0,phase_3,,,,,405.0,3.0,675.0,405.0,270.0,810.0,135.0,540.0,gray,I
0.0,7.0,2.0,1.0,7.0,3.0,1645.420959999683,4.0,1.0,phase_3,,,,,770.0,5.0,616.0,154.0,770.0,462.0,924.0,308.0,magenta,cross
0.0,4.0,4.0,0.0,7.0,4.0,2210.111815998971,4.0,1.0,phase_3,,,,,1038.0,6.0,346.0,692.0,173.0,1038.0,519.0,865.0,orange,diamond
0.0,3.0,2.0,0.0,7.0,3.0,1793.8780410004256,4.0,1.0,phase_3,,,,,675.0,5.0,270.0,810.0,675.0,135.0,540.0,405.0,white,square
0.0,2.0,1.0,0.0,7.0,6.0,1442.0461839999916,4.0,1.0,phase_3,,,,,346.0,2.0,1038.0,692.0,173.0,519.0,865.0,346.0,blue,hexagon
0.0,5.0,0.5,1.0,7.0,2.0,1356.2818739992508,4.0,1.0,phase_3,,,,,519.0,3.0,692.0,519.0,1038.0,346.0,173.0,865.0,gray,I
0.0,3.0,2.0,0.0,7.0,5.0,1340.6815199996345,4.0,1.0,phase_3,,,,,270.0,2.0,810.0,405.0,675.0,540.0,270.0,135.0,white,square
0.0,2.0,1.0,0.0,7.0,2.0,1478.021262000766,4.0,1.0,phase_3,,,,,116.0,1.0,348.0,116.0,232.0,696.0,580.0,464.0,blue,hexagon
0.0,1.0,0.5,0.0,7.0,3.0,1702.4310099986906,4.0,1.0,phase_3,,,,,232.0,2.0,464.0,696.0,232.0,116.0,348.0,580.0,cyan,flipped triangle
0.0,3.0,2.0,0.0,7.0,3.0,1729.9691230000462,4.0,1.0,phase_3,,,,,384.0,2.0,1152.0,768.0,384.0,960.0,192.0,576.0,white,square
0.0,6.0,1.0,1.0,7.0,1.0,1785.4336090003926,4.0,1.0,phase_3,,,,,346.0,2.0,346.0,519.0,865.0,692.0,173.0,1038.0,yellow,triangle
0.0,8.0,4.0,1.0,7.0,4.0,2843.615410998609,4.0,1.0,phase_3,,,,,865.0,5.0,173.0,1038.0,519.0,865.0,346.0,692.0,green,circle
0.0,8.0,4.0,1.0,7.0,2.0,2268.313631000637,4.0,1.0,phase_3,,,,,810.0,6.0,405.0,810.0,540.0,270.0,135.0,675.0,green,circle
0.0,6.0,1.0,1.0,7.0,3.0,2255.886607999855,4.0,1.0,phase_3,,,,,405.0,3.0,135.0,540.0,405.0,810.0,675.0,270.0,yellow,triangle
