raw_reward_magnitude,stim_reward,stepwise_reward_magnitude,paired_with_stopping,stim_location,response,reaction_time,block,num_trial_presentations,which_phase,stop_signal_trial_type,left_SSD,right_SSD,accuracy,chosen_bidding_amount,chosen_bidding_level,possible_bid_1,possible_bid_2,possible_bid_3,possible_bid_4,possible_bid_5,possible_bid_6,color_text,shape_text
345.0,2.0,1.0,0.0,4.0,4.0,672.4301560000185,1.0,1.0,phase_1,,,,,,,,,,,,,yellow,square
0.0,4.0,0.0,0.0,3.0,3.0,406.4197149998563,1.0,1.0,phase_1,,,,,,,,,,,,,cyan,diamond
319.0,6.0,1.0,1.0,3.0,3.0,476.7898390000482,1.0,1.0,phase_1,,,,,,,,,,,,,orange,cross
0.0,3.0,0.0,0.0,1.0,1.0,545.6333820000054,1.0,1.0,phase_1,,,,,,,,,,,,,green,triangle
1324.0,8.0,4.0,1.0,4.0,4.0,500.32029500016506,1.0,1.0,phase_1,,,,,,,,,,,,,gray,circle
139.0,1.0,0.5,0.0,2.0,2.0,366.6029359999356,1.0,1.0,phase_1,,,,,,,,,,,,,white,I
154.0,1.0,0.5,0.0,3.0,3.0,380.2892280000378,1.0,1.0,phase_1,,,,,,,,,,,,,white,I
327.0,2.0,1.0,0.0,4.0,4.0,317.048461000013,1.0,1.0,phase_1,,,,,,,,,,,,,yellow,square
1282.0,8.0,4.0,1.0,2.0,2.0,348.1297900000299,1.0,2.0,phase_1,,,,,,,,,,,,,gray,circle
157.0,1.0,0.5,0.0,3.0,3.0,377.3503800000526,1.0,1.0,phase_1,,,,,,,,,,,,,white,I
167.0,5.0,0.5,1.0,2.0,2.0,593.9649099998405,1.0,1.0,phase_1,,,,,,,,,,,,,blue,hexagon
0.0,1.0,0.0,0.0,3.0,3.0,414.9600979999377,1.0,1.0,phase_1,,,,,,,,,,,,,white,I
150.0,5.0,0.5,1.0,2.0,2.0,379.8996800001077,1.0,1.0,phase_1,,,,,,,,,,,,,blue,hexagon
176.0,5.0,0.5,1.0,4.0,4.0,423.3627169999181,1.0,1.0,phase_1,,,,,,,,,,,,,blue,hexagon
0.0,8.0,0.0,1.0,4.0,4.0,374.4743949998792,1.0,1.0,phase_1,,,,,,,,,,,,,gray,circle
0.0,2.0,0.0,0.0,1.0,1.0,273.6711099998956,1.0,1.0,phase_1,,,,,,,,,,,,,yellow,square
656.0,7.0,2.0,1.0,2.0,2.0,356.9071619999704,1.0,1.0,phase_1,,,,,,,,,,,,,magenta,flipped triangle
148.0,5.0,0.5,1.0,4.0,4.0,460.4199749999225,1.0,1.0,phase_1,,,,,,,,,,,,,blue,hexagon
319.0,6.0,1.0,1.0,3.0,3.0,424.4951100001799,1.0,1.0,phase_1,,,,,,,,,,,,,orange,cross
631.0,7.0,2.0,1.0,3.0,3.0,330.1105210000514,1.0,1.0,phase_1,,,,,,,,,,,,,magenta,flipped triangle
167.0,5.0,0.5,1.0,4.0,4.0,393.9526400001796,1.0,1.0,phase_1,,,,,,,,,,,,,blue,hexagon
0.0,1.0,0.0,0.0,1.0,1.0,424.0685800000392,1.0,2.0,phase_1,,,,,,,,,,,,,white,I
0.0,1.0,0.0,0.0,2.0,2.0,283.544423999956,1.0,1.0,phase_1,,,,,,,,,,,,,white,I
649.0,7.0,2.0,1.0,2.0,2.0,357.2636449998754,1.0,1.0,phase_1,,,,,,,,,,,,,magenta,flipped triangle
152.0,5.0,0.5,1.0,3.0,3.0,406.0994199999186,1.0,1.0,phase_1,,,,,,,,,,,,,blue,hexagon
345.0,6.0,1.0,1.0,2.0,2.0,347.4813899999844,1.0,1.0,phase_1,,,,,,,,,,,,,orange,cross
656.0,3.0,2.0,0.0,4.0,4.0,335.4390580000199,1.0,1.0,phase_1,,,,,,,,,,,,,green,triangle
182.0,5.0,0.5,1.0,3.0,3.0,366.5885079999498,1.0,1.0,phase_1,,,,,,,,,,,,,blue,hexagon
180.0,5.0,0.5,1.0,4.0,4.0,355.1272950001021,1.0,1.0,phase_1,,,,,,,,,,,,,blue,hexagon
1303.0,4.0,4.0,0.0,3.0,3.0,324.0234120000878,1.0,1.0,phase_1,,,,,,,,,,,,,cyan,diamond
1280.0,8.0,4.0,1.0,4.0,4.0,339.0234449998388,1.0,1.0,phase_1,,,,,,,,,,,,,gray,circle
0.0,1.0,0.0,0.0,4.0,4.0,309.120817999883,1.0,1.0,phase_1,,,,,,,,,,,,,white,I
1322.0,4.0,4.0,0.0,3.0,3.0,338.6071439999796,1.0,1.0,phase_1,,,,,,,,,,,,,cyan,diamond
0.0,3.0,0.0,0.0,1.0,1.0,440.5788619999384,1.0,1.0,phase_1,,,,,,,,,,,,,green,triangle
0.0,8.0,0.0,1.0,1.0,1.0,469.5462160000261,1.0,1.0,phase_1,,,,,,,,,,,,,gray,circle
0.0,7.0,0.0,1.0,2.0,2.0,421.7314719999194,1.0,2.0,phase_1,,,,,,,,,,,,,magenta,flipped triangle
0.0,5.0,0.0,1.0,1.0,1.0,559.0368770001533,1.0,1.0,phase_1,,,,,,,,,,,,,blue,hexagon
0.0,6.0,0.0,1.0,1.0,1.0,484.4142330000522,1.0,1.0,phase_1,,,,,,,,,,,,,orange,cross
1301.0,8.0,4.0,1.0,1.0,1.0,400.5956290000085,1.0,1.0,phase_1,,,,,,,,,,,,,gray,circle
159.0,5.0,0.5,1.0,2.0,2.0,494.4456610000998,1.0,1.0,phase_1,,,,,,,,,,,,,blue,hexagon
1277.0,4.0,4.0,0.0,4.0,4.0,430.0563869999223,1.0,1.0,phase_1,,,,,,,,,,,,,cyan,diamond
0.0,1.0,0.0,0.0,3.0,3.0,336.139446000061,1.0,1.0,phase_1,,,,,,,,,,,,,white,I
1321.0,8.0,4.0,1.0,2.0,2.0,392.9847809999955,1.0,1.0,phase_1,,,,,,,,,,,,,gray,circle
672.0,7.0,2.0,1.0,4.0,4.0,337.4203340001713,1.0,1.0,phase_1,,,,,,,,,,,,,magenta,flipped triangle
662.0,7.0,2.0,1.0,4.0,4.0,392.7636799999163,1.0,1.0,phase_1,,,,,,,,,,,,,magenta,flipped triangle
187.0,5.0,0.5,1.0,3.0,3.0,326.6476710000461,1.0,1.0,phase_1,,,,,,,,,,,,,blue,hexagon
640.0,3.0,2.0,0.0,1.0,1.0,457.7965680000488,1.0,1.0,phase_1,,,,,,,,,,,,,green,triangle
145.0,1.0,0.5,0.0,2.0,2.0,317.3229550000087,1.0,1.0,phase_1,,,,,,,,,,,,,white,I
345.0,2.0,1.0,0.0,3.0,3.0,337.2099979999348,1.0,1.0,phase_1,,,,,,,,,,,,,yellow,square
176.0,5.0,0.5,1.0,3.0,3.0,308.0278879999696,1.0,1.0,phase_1,,,,,,,,,,,,,blue,hexagon
334.0,2.0,1.0,0.0,4.0,4.0,298.6633900000015,1.0,1.0,phase_1,,,,,,,,,,,,,yellow,square
1303.0,4.0,4.0,0.0,1.0,1.0,336.6819660000146,1.0,1.0,phase_1,,,,,,,,,,,,,cyan,diamond
165.0,1.0,0.5,0.0,2.0,2.0,270.4162960001213,1.0,1.0,phase_1,,,,,,,,,,,,,white,I
320.0,2.0,1.0,0.0,3.0,3.0,252.1048269998118,1.0,1.0,phase_1,,,,,,,,,,,,,yellow,square
320.0,6.0,1.0,1.0,1.0,1.0,336.3692059999721,1.0,1.0,phase_1,,,,,,,,,,,,,orange,cross
1280.0,8.0,4.0,1.0,2.0,2.0,409.9750500001846,1.0,1.0,phase_1,,,,,,,,,,,,,gray,circle
0.0,6.0,0.0,1.0,4.0,4.0,354.2534260000138,1.0,1.0,phase_1,,,,,,,,,,,,,orange,cross
1293.0,8.0,4.0,1.0,3.0,3.0,356.3205719999587,1.0,1.0,phase_1,,,,,,,,,,,,,gray,circle
672.0,3.0,2.0,0.0,4.0,4.0,327.0389360000081,1.0,1.0,phase_1,,,,,,,,,,,,,green,triangle
157.0,5.0,0.5,1.0,3.0,3.0,355.4805900000701,1.0,1.0,phase_1,,,,,,,,,,,,,blue,hexagon
304.0,2.0,1.0,0.0,3.0,3.0,355.0467339998704,1.0,1.0,phase_1,,,,,,,,,,,,,yellow,square
306.0,2.0,1.0,0.0,2.0,2.0,309.18420099988,1.0,1.0,phase_1,,,,,,,,,,,,,yellow,square
1315.0,8.0,4.0,1.0,3.0,3.0,309.1421770000124,1.0,1.0,phase_1,,,,,,,,,,,,,gray,circle
175.0,5.0,0.5,1.0,4.0,4.0,328.2438870000987,1.0,1.0,phase_1,,,,,,,,,,,,,blue,hexagon
144.0,5.0,0.5,1.0,1.0,1.0,337.3062210000626,1.0,1.0,phase_1,,,,,,,,,,,,,blue,hexagon
320.0,2.0,1.0,0.0,1.0,1.0,363.8537580000047,1.0,1.0,phase_1,,,,,,,,,,,,,yellow,square
312.0,2.0,1.0,0.0,4.0,4.0,326.481719999947,1.0,1.0,phase_1,,,,,,,,,,,,,yellow,square
1317.0,8.0,4.0,1.0,4.0,4.0,326.7323320001196,1.0,1.0,phase_1,,,,,,,,,,,,,gray,circle
306.0,6.0,1.0,1.0,3.0,3.0,374.4829359998221,1.0,1.0,phase_1,,,,,,,,,,,,,orange,cross
149.0,1.0,0.5,0.0,2.0,2.0,345.1537810001355,1.0,1.0,phase_1,,,,,,,,,,,,,white,I
662.0,7.0,2.0,1.0,2.0,2.0,419.786398000042,1.0,1.0,phase_1,,,,,,,,,,,,,magenta,flipped triangle
649.0,3.0,2.0,0.0,1.0,1.0,429.6400240000366,1.0,1.0,phase_1,,,,,,,,,,,,,green,triangle
0.0,3.0,0.0,0.0,2.0,2.0,391.3740800001051,1.0,1.0,phase_1,,,,,,,,,,,,,green,triangle
1292.0,8.0,4.0,1.0,2.0,2.0,382.17369299991327,1.0,2.0,phase_1,,,,,,,,,,,,,gray,circle
0.0,1.0,0.0,0.0,4.0,4.0,328.1625929998881,1.0,1.0,phase_1,,,,,,,,,,,,,white,I
650.0,7.0,2.0,1.0,1.0,1.0,374.0158299999621,1.0,1.0,phase_1,,,,,,,,,,,,,magenta,flipped triangle
305.0,6.0,1.0,1.0,3.0,3.0,383.0052760001763,1.0,1.0,phase_1,,,,,,,,,,,,,orange,cross
158.0,1.0,0.5,0.0,4.0,4.0,318.6236940000526,1.0,1.0,phase_1,,,,,,,,,,,,,white,I
644.0,7.0,2.0,1.0,1.0,1.0,411.4961510001649,1.0,1.0,phase_1,,,,,,,,,,,,,magenta,flipped triangle
1319.0,4.0,4.0,0.0,1.0,1.0,364.5685149999735,1.0,1.0,phase_1,,,,,,,,,,,,,cyan,diamond
0.0,1.0,0.0,0.0,1.0,1.0,355.4967669999769,1.0,1.0,phase_1,,,,,,,,,,,,,white,I
1304.0,8.0,4.0,1.0,1.0,1.0,318.6300319998736,1.0,1.0,phase_1,,,,,,,,,,,,,gray,circle
666.0,7.0,2.0,1.0,4.0,4.0,363.956829000017,1.0,1.0,phase_1,,,,,,,,,,,,,magenta,flipped triangle
1294.0,4.0,4.0,0.0,2.0,2.0,317.7858939998259,1.0,1.0,phase_1,,,,,,,,,,,,,cyan,diamond
148.0,1.0,0.5,0.0,4.0,4.0,429.5841990001463,1.0,1.0,phase_1,,,,,,,,,,,,,white,I
0.0,3.0,0.0,0.0,1.0,1.0,513.7170539999261,1.0,1.0,phase_1,,,,,,,,,,,,,green,triangle
0.0,8.0,0.0,1.0,2.0,2.0,326.8325320000258,1.0,1.0,phase_1,,,,,,,,,,,,,gray,circle
645.0,7.0,2.0,1.0,1.0,1.0,299.2194270000254,1.0,1.0,phase_1,,,,,,,,,,,,,magenta,flipped triangle
327.0,6.0,1.0,1.0,4.0,4.0,345.3489600001376,1.0,1.0,phase_1,,,,,,,,,,,,,orange,cross
183.0,1.0,0.5,0.0,2.0,2.0,299.3356800000128,1.0,1.0,phase_1,,,,,,,,,,,,,white,I
350.0,6.0,1.0,1.0,2.0,2.0,354.6879450000233,1.0,1.0,phase_1,,,,,,,,,,,,,orange,cross
636.0,7.0,2.0,1.0,3.0,3.0,271.0451379998631,1.0,1.0,phase_1,,,,,,,,,,,,,magenta,flipped triangle
666.0,7.0,2.0,1.0,3.0,3.0,279.1988509998191,1.0,1.0,phase_1,,,,,,,,,,,,,magenta,flipped triangle
627.0,3.0,2.0,0.0,3.0,3.0,283.2668370001556,1.0,1.0,phase_1,,,,,,,,,,,,,green,triangle
334.0,6.0,1.0,1.0,4.0,4.0,298.9475039998979,1.0,1.0,phase_1,,,,,,,,,,,,,orange,cross
1292.0,4.0,4.0,0.0,1.0,1.0,271.8618009998863,1.0,1.0,phase_1,,,,,,,,,,,,,cyan,diamond
318.0,6.0,1.0,1.0,3.0,3.0,382.6294450000205,1.0,2.0,phase_1,,,,,,,,,,,,,orange,cross
149.0,5.0,0.5,1.0,2.0,2.0,467.1994210000321,1.0,1.0,phase_1,,,,,,,,,,,,,blue,hexagon
1287.0,4.0,4.0,0.0,2.0,2.0,372.8807410000172,1.0,1.0,phase_1,,,,,,,,,,,,,cyan,diamond
305.0,2.0,1.0,0.0,1.0,1.0,335.6546530001196,1.0,1.0,phase_1,,,,,,,,,,,,,yellow,square
653.0,7.0,2.0,1.0,2.0,2.0,802.7561149999656,2.0,1.0,phase_1,,,,,,,,,,,,,magenta,flipped triangle
344.0,6.0,1.0,1.0,3.0,3.0,385.8774440000161,2.0,1.0,phase_1,,,,,,,,,,,,,orange,cross
642.0,7.0,2.0,1.0,1.0,1.0,467.8367829999388,2.0,1.0,phase_1,,,,,,,,,,,,,magenta,flipped triangle
0.0,4.0,0.0,0.0,3.0,3.0,560.8608769998682,2.0,1.0,phase_1,,,,,,,,,,,,,cyan,diamond
0.0,2.0,0.0,0.0,1.0,1.0,569.3715180000254,2.0,2.0,phase_1,,,,,,,,,,,,,yellow,square
1298.0,8.0,4.0,1.0,4.0,4.0,354.4884279999678,2.0,1.0,phase_1,,,,,,,,,,,,,gray,circle
304.0,6.0,1.0,1.0,3.0,3.0,400.9032539997861,2.0,1.0,phase_1,,,,,,,,,,,,,orange,cross
0.0,3.0,0.0,0.0,1.0,1.0,690.8245449999413,2.0,1.0,phase_1,,,,,,,,,,,,,green,triangle
0.0,6.0,0.0,1.0,2.0,2.0,419.6926590000203,2.0,1.0,phase_1,,,,,,,,,,,,,orange,cross
1310.0,4.0,4.0,0.0,4.0,4.0,410.7029790000069,2.0,1.0,phase_1,,,,,,,,,,,,,cyan,diamond
1303.0,8.0,4.0,1.0,3.0,3.0,336.2674749998859,2.0,1.0,phase_1,,,,,,,,,,,,,gray,circle
333.0,6.0,1.0,1.0,1.0,1.0,531.0216330001367,2.0,1.0,phase_1,,,,,,,,,,,,,orange,cross
1279.0,4.0,4.0,0.0,3.0,3.0,447.8741990001254,2.0,1.0,phase_1,,,,,,,,,,,,,cyan,diamond
642.0,3.0,2.0,0.0,2.0,2.0,475.880984000014,2.0,1.0,phase_1,,,,,,,,,,,,,green,triangle
0.0,1.0,0.0,0.0,4.0,4.0,418.4122270000898,2.0,1.0,phase_1,,,,,,,,,,,,,white,I
0.0,2.0,0.0,0.0,3.0,3.0,429.3438029999379,2.0,1.0,phase_1,,,,,,,,,,,,,yellow,square
664.0,3.0,2.0,0.0,2.0,2.0,541.3045330001296,2.0,1.0,phase_1,,,,,,,,,,,,,green,triangle
326.0,6.0,1.0,1.0,4.0,4.0,447.5528799998756,2.0,1.0,phase_1,,,,,,,,,,,,,orange,cross
173.0,1.0,0.5,0.0,4.0,4.0,382.9699499999606,2.0,1.0,phase_1,,,,,,,,,,,,,white,I
0.0,4.0,0.0,0.0,2.0,2.0,457.7029390000007,2.0,1.0,phase_1,,,,,,,,,,,,,cyan,diamond
151.0,1.0,0.5,0.0,3.0,3.0,347.2014769999987,2.0,1.0,phase_1,,,,,,,,,,,,,white,I
322.0,2.0,1.0,0.0,3.0,3.0,383.2762619999812,2.0,1.0,phase_1,,,,,,,,,,,,,yellow,square
330.0,6.0,1.0,1.0,4.0,4.0,355.7653800000935,2.0,1.0,phase_1,,,,,,,,,,,,,orange,cross
0.0,6.0,0.0,1.0,1.0,1.0,298.6397990000569,2.0,1.0,phase_1,,,,,,,,,,,,,orange,cross
183.0,1.0,0.5,0.0,1.0,1.0,429.6928690000641,2.0,1.0,phase_1,,,,,,,,,,,,,white,I
302.0,6.0,1.0,1.0,1.0,1.0,410.9899659999882,2.0,1.0,phase_1,,,,,,,,,,,,,orange,cross
301.0,6.0,1.0,1.0,2.0,2.0,410.0114930001837,2.0,1.0,phase_1,,,,,,,,,,,,,orange,cross
0.0,1.0,0.0,0.0,1.0,1.0,393.30945200003947,2.0,1.0,phase_1,,,,,,,,,,,,,white,I
315.0,6.0,1.0,1.0,3.0,3.0,280.0849449999987,2.0,1.0,phase_1,,,,,,,,,,,,,orange,cross
0.0,4.0,0.0,0.0,1.0,1.0,475.7033729999875,2.0,1.0,phase_1,,,,,,,,,,,,,cyan,diamond
0.0,4.0,0.0,0.0,2.0,2.0,329.8812739999448,2.0,1.0,phase_1,,,,,,,,,,,,,cyan,diamond
673.0,3.0,2.0,0.0,3.0,3.0,400.1329309999164,2.0,1.0,phase_1,,,,,,,,,,,,,green,triangle
322.0,6.0,1.0,1.0,1.0,1.0,495.4996120000032,2.0,1.0,phase_1,,,,,,,,,,,,,orange,cross
1298.0,4.0,4.0,0.0,3.0,3.0,420.0902130000941,2.0,1.0,phase_1,,,,,,,,,,,,,cyan,diamond
1287.0,8.0,4.0,1.0,1.0,1.0,437.1930879999581,2.0,1.0,phase_1,,,,,,,,,,,,,gray,circle
1289.0,4.0,4.0,0.0,3.0,3.0,431.5954009998677,2.0,1.0,phase_1,,,,,,,,,,,,,cyan,diamond
344.0,2.0,1.0,0.0,1.0,1.0,495.7599730000765,2.0,1.0,phase_1,,,,,,,,,,,,,yellow,square
0.0,6.0,0.0,1.0,3.0,3.0,448.5601410001436,2.0,1.0,phase_1,,,,,,,,,,,,,orange,cross
319.0,2.0,1.0,0.0,4.0,4.0,458.7233740001011,2.0,1.0,phase_1,,,,,,,,,,,,,yellow,square
150.0,5.0,0.5,1.0,4.0,4.0,430.4869990000952,2.0,1.0,phase_1,,,,,,,,,,,,,blue,hexagon
150.0,1.0,0.5,0.0,1.0,1.0,618.5420039998917,2.0,1.0,phase_1,,,,,,,,,,,,,white,I
650.0,3.0,2.0,0.0,2.0,2.0,493.8757740001165,2.0,1.0,phase_1,,,,,,,,,,,,,green,triangle
1317.0,4.0,4.0,0.0,2.0,2.0,441.6706859999522,2.0,1.0,phase_1,,,,,,,,,,,,,cyan,diamond
158.0,5.0,0.5,1.0,1.0,1.0,476.8961160000344,2.0,1.0,phase_1,,,,,,,,,,,,,blue,hexagon
659.0,7.0,2.0,1.0,1.0,1.0,382.4447770000461,2.0,1.0,phase_1,,,,,,,,,,,,,magenta,flipped triangle
315.0,2.0,1.0,0.0,1.0,1.0,474.8803600000428,2.0,1.0,phase_1,,,,,,,,,,,,,yellow,square
153.0,5.0,0.5,1.0,1.0,1.0,476.7770529999779,2.0,1.0,phase_1,,,,,,,,,,,,,blue,hexagon
144.0,1.0,0.5,0.0,2.0,2.0,421.8840410001121,2.0,1.0,phase_1,,,,,,,,,,,,,white,I
0.0,5.0,0.0,1.0,2.0,2.0,466.5170709999984,2.0,1.0,phase_1,,,,,,,,,,,,,blue,hexagon
647.0,3.0,2.0,0.0,1.0,1.0,513.0910350001159,2.0,1.0,phase_1,,,,,,,,,,,,,green,triangle
326.0,2.0,1.0,0.0,2.0,2.0,393.2301970000935,2.0,1.0,phase_1,,,,,,,,,,,,,yellow,square
150.0,1.0,0.5,0.0,4.0,4.0,438.3344269999725,2.0,1.0,phase_1,,,,,,,,,,,,,white,I
647.0,7.0,2.0,1.0,1.0,1.0,521.7325799999344,2.0,1.0,phase_1,,,,,,,,,,,,,magenta,flipped triangle
172.0,1.0,0.5,0.0,1.0,1.0,467.027145999964,2.0,1.0,phase_1,,,,,,,,,,,,,white,I
629.0,3.0,2.0,0.0,2.0,2.0,401.7163080000046,2.0,1.0,phase_1,,,,,,,,,,,,,green,triangle
1282.0,4.0,4.0,0.0,1.0,1.0,400.8941570000388,2.0,1.0,phase_1,,,,,,,,,,,,,cyan,diamond
0.0,4.0,0.0,0.0,2.0,2.0,346.094351000147,2.0,1.0,phase_1,,,,,,,,,,,,,cyan,diamond
0.0,2.0,0.0,0.0,4.0,4.0,457.8285679999681,2.0,1.0,phase_1,,,,,,,,,,,,,yellow,square
320.0,2.0,1.0,0.0,2.0,2.0,772.7012249999916,2.0,1.0,phase_1,,,,,,,,,,,,,yellow,square
176.0,1.0,0.5,0.0,1.0,1.0,465.1794450001034,2.0,1.0,phase_1,,,,,,,,,,,,,white,I
653.0,7.0,2.0,1.0,1.0,1.0,375.6890649999604,2.0,1.0,phase_1,,,,,,,,,,,,,magenta,flipped triangle
1310.0,8.0,4.0,1.0,2.0,2.0,354.53109299987767,2.0,1.0,phase_1,,,,,,,,,,,,,gray,circle
1322.0,8.0,4.0,1.0,1.0,1.0,307.6758529998642,2.0,1.0,phase_1,,,,,,,,,,,,,gray,circle
1289.0,4.0,4.0,0.0,2.0,2.0,336.8532810000033,2.0,1.0,phase_1,,,,,,,,,,,,,cyan,diamond
349.0,2.0,1.0,0.0,3.0,3.0,410.5063819999941,2.0,1.0,phase_1,,,,,,,,,,,,,yellow,square
649.0,3.0,2.0,0.0,3.0,3.0,365.174670999977,2.0,1.0,phase_1,,,,,,,,,,,,,green,triangle
145.0,5.0,0.5,1.0,1.0,1.0,289.8611759999312,2.0,1.0,phase_1,,,,,,,,,,,,,blue,hexagon
327.0,6.0,1.0,1.0,4.0,4.0,328.1737089998842,2.0,1.0,phase_1,,,,,,,,,,,,,orange,cross
153.0,1.0,0.5,0.0,3.0,3.0,419.4116930000291,2.0,1.0,phase_1,,,,,,,,,,,,,white,I
637.0,7.0,2.0,1.0,3.0,3.0,391.5927310001734,2.0,1.0,phase_1,,,,,,,,,,,,,magenta,flipped triangle
1280.0,4.0,4.0,0.0,4.0,4.0,356.7695849999381,2.0,1.0,phase_1,,,,,,,,,,,,,cyan,diamond
645.0,3.0,2.0,0.0,1.0,1.0,577.6762170000893,2.0,1.0,phase_1,,,,,,,,,,,,,green,triangle
324.0,6.0,1.0,1.0,2.0,2.0,335.817550999991,2.0,1.0,phase_1,,,,,,,,,,,,,orange,cross
1294.0,8.0,4.0,1.0,1.0,1.0,513.7584689998675,2.0,1.0,phase_1,,,,,,,,,,,,,gray,circle
0.0,2.0,0.0,0.0,4.0,4.0,354.7041970000464,2.0,1.0,phase_1,,,,,,,,,,,,,yellow,square
176.0,1.0,0.5,0.0,3.0,3.0,345.9074320001036,2.0,1.0,phase_1,,,,,,,,,,,,,white,I
1290.0,8.0,4.0,1.0,2.0,2.0,363.8841110000612,2.0,1.0,phase_1,,,,,,,,,,,,,gray,circle
0.0,5.0,0.0,1.0,4.0,4.0,466.6691410000112,2.0,1.0,phase_1,,,,,,,,,,,,,blue,hexagon
629.0,7.0,2.0,1.0,2.0,2.0,448.382414000207,2.0,1.0,phase_1,,,,,,,,,,,,,magenta,flipped triangle
324.0,2.0,1.0,0.0,1.0,1.0,438.0970950001028,2.0,1.0,phase_1,,,,,,,,,,,,,yellow,square
324.0,2.0,1.0,0.0,3.0,3.0,466.7320670000663,2.0,1.0,phase_1,,,,,,,,,,,,,yellow,square
1315.0,4.0,4.0,0.0,1.0,1.0,466.0143420001077,2.0,1.0,phase_1,,,,,,,,,,,,,cyan,diamond
1282.0,4.0,4.0,0.0,3.0,3.0,392.8543709998848,2.0,1.0,phase_1,,,,,,,,,,,,,cyan,diamond
180.0,1.0,0.5,0.0,3.0,3.0,503.1746419999763,2.0,1.0,phase_1,,,,,,,,,,,,,white,I
150.0,5.0,0.5,1.0,1.0,1.0,597.4160379998921,2.0,1.0,phase_1,,,,,,,,,,,,,blue,hexagon
1303.0,8.0,4.0,1.0,1.0,1.0,449.2112299999462,2.0,1.0,phase_1,,,,,,,,,,,,,gray,circle
0.0,6.0,0.0,1.0,1.0,1.0,381.648751000057,2.0,1.0,phase_1,,,,,,,,,,,,,orange,cross
183.0,5.0,0.5,1.0,3.0,3.0,411.6124489999038,2.0,1.0,phase_1,,,,,,,,,,,,,blue,hexagon
320.0,6.0,1.0,1.0,1.0,1.0,364.6911319999617,2.0,1.0,phase_1,,,,,,,,,,,,,orange,cross
183.0,5.0,0.5,1.0,4.0,4.0,356.1297720000311,2.0,1.0,phase_1,,,,,,,,,,,,,blue,hexagon
649.0,7.0,2.0,1.0,4.0,4.0,402.2216920000119,2.0,1.0,phase_1,,,,,,,,,,,,,magenta,flipped triangle
631.0,3.0,2.0,0.0,3.0,3.0,456.9369619998724,2.0,1.0,phase_1,,,,,,,,,,,,,green,triangle
653.0,3.0,2.0,0.0,1.0,1.0,467.0012770000085,2.0,1.0,phase_1,,,,,,,,,,,,,green,triangle
309.0,2.0,1.0,0.0,1.0,1.0,567.7535059999173,2.0,1.0,phase_1,,,,,,,,,,,,,yellow,square
1307.0,8.0,4.0,1.0,2.0,2.0,373.0378810000729,2.0,1.0,phase_1,,,,,,,,,,,,,gray,circle
662.0,7.0,2.0,1.0,1.0,1.0,448.107261000132,2.0,1.0,phase_1,,,,,,,,,,,,,magenta,flipped triangle
653.0,3.0,2.0,0.0,1.0,1.0,391.2192100001448,2.0,1.0,phase_1,,,,,,,,,,,,,green,triangle
0.0,5.0,0.0,1.0,2.0,2.0,651.845344000094,2.0,1.0,phase_1,,,,,,,,,,,,,blue,hexagon
140.0,1.0,0.5,0.0,2.0,2.0,606.4715360000719,2.0,1.0,phase_1,,,,,,,,,,,,,white,I
182.0,1.0,0.5,0.0,1.0,1.0,392.2586290000254,2.0,1.0,phase_1,,,,,,,,,,,,,white,I
0.0,2.0,0.0,0.0,4.0,4.0,570.5124970002089,3.0,1.0,phase_1,,,,,,,,,,,,,yellow,square
330.0,2.0,1.0,0.0,3.0,3.0,458.717131999947,3.0,1.0,phase_1,,,,,,,,,,,,,yellow,square
0.0,7.0,0.0,1.0,4.0,4.0,486.5001929999835,3.0,1.0,phase_1,,,,,,,,,,,,,magenta,flipped triangle
1289.0,8.0,4.0,1.0,3.0,3.0,411.2665499999366,3.0,1.0,phase_1,,,,,,,,,,,,,gray,circle
183.0,1.0,0.5,0.0,3.0,3.0,422.6092990002144,3.0,1.0,phase_1,,,,,,,,,,,,,white,I
673.0,3.0,2.0,0.0,1.0,1.0,494.9917369999639,3.0,1.0,phase_1,,,,,,,,,,,,,green,triangle
1299.0,8.0,4.0,1.0,2.0,2.0,317.9309189999912,3.0,1.0,phase_1,,,,,,,,,,,,,gray,circle
1299.0,4.0,4.0,0.0,2.0,2.0,484.2494570000326,3.0,1.0,phase_1,,,,,,,,,,,,,cyan,diamond
1303.0,4.0,4.0,0.0,3.0,3.0,317.5810330001241,3.0,1.0,phase_1,,,,,,,,,,,,,cyan,diamond
641.0,3.0,2.0,0.0,1.0,1.0,438.54402199986,3.0,1.0,phase_1,,,,,,,,,,,,,green,triangle
0.0,5.0,0.0,1.0,3.0,3.0,373.3670599999641,3.0,1.0,phase_1,,,,,,,,,,,,,blue,hexagon
163.0,5.0,0.5,1.0,2.0,2.0,364.6204889998898,3.0,1.0,phase_1,,,,,,,,,,,,,blue,hexagon
181.0,5.0,0.5,1.0,1.0,1.0,420.0661530001071,3.0,1.0,phase_1,,,,,,,,,,,,,blue,hexagon
0.0,8.0,0.0,1.0,2.0,2.0,448.0497240001568,3.0,1.0,phase_1,,,,,,,,,,,,,gray,circle
324.0,6.0,1.0,1.0,4.0,4.0,309.0924660000382,3.0,1.0,phase_1,,,,,,,,,,,,,orange,cross
628.0,7.0,2.0,1.0,3.0,3.0,372.9565500000262,3.0,1.0,phase_1,,,,,,,,,,,,,magenta,flipped triangle
150.0,1.0,0.5,0.0,2.0,2.0,326.9296350001696,3.0,1.0,phase_1,,,,,,,,,,,,,white,I
640.0,7.0,2.0,1.0,4.0,4.0,411.125770000126,3.0,1.0,phase_1,,,,,,,,,,,,,magenta,flipped triangle
627.0,7.0,2.0,1.0,2.0,2.0,523.2068150000941,3.0,1.0,phase_1,,,,,,,,,,,,,magenta,flipped triangle
0.0,2.0,0.0,0.0,4.0,4.0,420.5874529998255,3.0,1.0,phase_1,,,,,,,,,,,,,yellow,square
0.0,5.0,0.0,1.0,3.0,3.0,326.7680609999388,3.0,1.0,phase_1,,,,,,,,,,,,,blue,hexagon
311.0,2.0,1.0,0.0,1.0,1.0,494.6546850001141,3.0,1.0,phase_1,,,,,,,,,,,,,yellow,square
165.0,5.0,0.5,1.0,1.0,1.0,448.9402099998187,3.0,1.0,phase_1,,,,,,,,,,,,,blue,hexagon
163.0,1.0,0.5,0.0,4.0,4.0,448.2090669998797,3.0,1.0,phase_1,,,,,,,,,,,,,white,I
1299.0,8.0,4.0,1.0,1.0,1.0,485.3038470000683,3.0,1.0,phase_1,,,,,,,,,,,,,gray,circle
339.0,2.0,1.0,0.0,2.0,2.0,439.3122330000096,3.0,1.0,phase_1,,,,,,,,,,,,,yellow,square
645.0,3.0,2.0,0.0,3.0,3.0,280.2961279999181,3.0,1.0,phase_1,,,,,,,,,,,,,green,triangle
180.0,5.0,0.5,1.0,2.0,2.0,448.2690719999027,3.0,1.0,phase_1,,,,,,,,,,,,,blue,hexagon
313.0,2.0,1.0,0.0,2.0,2.0,401.4474829998562,3.0,1.0,phase_1,,,,,,,,,,,,,yellow,square
1319.0,8.0,4.0,1.0,1.0,1.0,392.1373319999475,3.0,1.0,phase_1,,,,,,,,,,,,,gray,circle
642.0,7.0,2.0,1.0,3.0,3.0,309.537796000086,3.0,1.0,phase_1,,,,,,,,,,,,,magenta,flipped triangle
322.0,2.0,1.0,0.0,4.0,4.0,374.0348710000489,3.0,1.0,phase_1,,,,,,,,,,,,,yellow,square
0.0,7.0,0.0,1.0,1.0,1.0,439.4117790000109,3.0,1.0,phase_1,,,,,,,,,,,,,magenta,flipped triangle
656.0,7.0,2.0,1.0,3.0,3.0,382.5506330001644,3.0,1.0,phase_1,,,,,,,,,,,,,magenta,flipped triangle
659.0,7.0,2.0,1.0,4.0,4.0,326.4770460000363,3.0,1.0,phase_1,,,,,,,,,,,,,magenta,flipped triangle
663.0,3.0,2.0,0.0,3.0,3.0,439.6140370001831,3.0,1.0,phase_1,,,,,,,,,,,,,green,triangle
301.0,2.0,1.0,0.0,3.0,3.0,410.8646119998411,3.0,1.0,phase_1,,,,,,,,,,,,,yellow,square
336.0,2.0,1.0,0.0,4.0,4.0,365.2749909999784,3.0,1.0,phase_1,,,,,,,,,,,,,yellow,square
0.0,4.0,0.0,0.0,2.0,2.0,363.4370899999339,3.0,1.0,phase_1,,,,,,,,,,,,,cyan,diamond
670.0,3.0,2.0,0.0,2.0,2.0,466.6903260001618,3.0,1.0,phase_1,,,,,,,,,,,,,green,triangle
626.0,3.0,2.0,0.0,1.0,1.0,364.6942889999991,3.0,1.0,phase_1,,,,,,,,,,,,,green,triangle
318.0,2.0,1.0,0.0,2.0,2.0,550.3924700001335,3.0,1.0,phase_1,,,,,,,,,,,,,yellow,square
656.0,3.0,2.0,0.0,2.0,2.0,430.5107550001139,3.0,1.0,phase_1,,,,,,,,,,,,,green,triangle
0.0,6.0,0.0,1.0,1.0,1.0,484.5133239998631,3.0,1.0,phase_1,,,,,,,,,,,,,orange,cross
151.0,5.0,0.5,1.0,3.0,3.0,317.8766270000324,3.0,1.0,phase_1,,,,,,,,,,,,,blue,hexagon
1311.0,4.0,4.0,0.0,2.0,2.0,421.2650549998216,3.0,1.0,phase_1,,,,,,,,,,,,,cyan,diamond
1314.0,8.0,4.0,1.0,2.0,2.0,457.9317010000068,3.0,1.0,phase_1,,,,,,,,,,,,,gray,circle
1311.0,4.0,4.0,0.0,4.0,4.0,747.186289000183,3.0,1.0,phase_1,,,,,,,,,,,,,cyan,diamond
0.0,3.0,0.0,0.0,4.0,4.0,448.5189619999801,3.0,1.0,phase_1,,,,,,,,,,,,,green,triangle
159.0,1.0,0.5,0.0,4.0,4.0,503.84409100001903,3.0,1.0,phase_1,,,,,,,,,,,,,white,I
155.0,5.0,0.5,1.0,3.0,3.0,374.2153240000334,3.0,1.0,phase_1,,,,,,,,,,,,,blue,hexagon
1286.0,8.0,4.0,1.0,4.0,4.0,392.4563489999855,3.0,1.0,phase_1,,,,,,,,,,,,,gray,circle
636.0,3.0,2.0,0.0,2.0,2.0,484.8054120000142,3.0,1.0,phase_1,,,,,,,,,,,,,green,triangle
152.0,1.0,0.5,0.0,4.0,4.0,438.8233380000201,3.0,1.0,phase_1,,,,,,,,,,,,,white,I
187.0,1.0,0.5,0.0,1.0,1.0,439.1063990001385,3.0,1.0,phase_1,,,,,,,,,,,,,white,I
0.0,7.0,0.0,1.0,4.0,4.0,375.2438910000819,3.0,1.0,phase_1,,,,,,,,,,,,,magenta,flipped triangle
339.0,6.0,1.0,1.0,2.0,2.0,466.6724409999006,3.0,1.0,phase_1,,,,,,,,,,,,,orange,cross
314.0,6.0,1.0,1.0,2.0,2.0,374.0091919999031,3.0,1.0,phase_1,,,,,,,,,,,,,orange,cross
0.0,2.0,0.0,0.0,3.0,3.0,409.8035299998628,3.0,1.0,phase_1,,,,,,,,,,,,,yellow,square
637.0,3.0,2.0,0.0,3.0,3.0,419.466188999877,3.0,1.0,phase_1,,,,,,,,,,,,,green,triangle
334.0,6.0,1.0,1.0,1.0,1.0,550.2544849998685,3.0,1.0,phase_1,,,,,,,,,,,,,orange,cross
183.0,5.0,0.5,1.0,1.0,1.0,448.4133719997771,3.0,1.0,phase_1,,,,,,,,,,,,,blue,hexagon
176.0,1.0,0.5,0.0,1.0,1.0,410.4085679998661,3.0,1.0,phase_1,,,,,,,,,,,,,white,I
628.0,3.0,2.0,0.0,4.0,4.0,409.8850970001422,3.0,1.0,phase_1,,,,,,,,,,,,,green,triangle
0.0,3.0,0.0,0.0,4.0,4.0,373.7333500000659,3.0,1.0,phase_1,,,,,,,,,,,,,green,triangle
330.0,6.0,1.0,1.0,4.0,4.0,347.0918289999645,3.0,1.0,phase_1,,,,,,,,,,,,,orange,cross
1301.0,4.0,4.0,0.0,3.0,3.0,439.5590199999333,3.0,1.0,phase_1,,,,,,,,,,,,,cyan,diamond
666.0,3.0,2.0,0.0,4.0,4.0,420.2137460001722,3.0,1.0,phase_1,,,,,,,,,,,,,green,triangle
644.0,3.0,2.0,0.0,4.0,4.0,365.0262529999963,3.0,1.0,phase_1,,,,,,,,,,,,,green,triangle
0.0,7.0,0.0,1.0,1.0,1.0,540.5167449998771,3.0,1.0,phase_1,,,,,,,,,,,,,magenta,flipped triangle
181.0,1.0,0.5,0.0,3.0,3.0,401.446610999983,3.0,1.0,phase_1,,,,,,,,,,,,,white,I
1324.0,4.0,4.0,0.0,3.0,3.0,391.3230269999985,3.0,1.0,phase_1,,,,,,,,,,,,,cyan,diamond
670.0,3.0,2.0,0.0,4.0,4.0,391.8632990000787,3.0,1.0,phase_1,,,,,,,,,,,,,green,triangle
0.0,6.0,0.0,1.0,3.0,3.0,382.9469309998785,3.0,1.0,phase_1,,,,,,,,,,,,,orange,cross
0.0,7.0,0.0,1.0,2.0,2.0,429.6273330000986,3.0,1.0,phase_1,,,,,,,,,,,,,magenta,flipped triangle
673.0,7.0,2.0,1.0,3.0,3.0,376.064063000058,3.0,1.0,phase_1,,,,,,,,,,,,,magenta,flipped triangle
0.0,8.0,0.0,1.0,4.0,4.0,298.5471480001251,3.0,1.0,phase_1,,,,,,,,,,,,,gray,circle
139.0,5.0,0.5,1.0,3.0,3.0,393.6675420000028,3.0,1.0,phase_1,,,,,,,,,,,,,blue,hexagon
638.0,3.0,2.0,0.0,3.0,3.0,484.7328500000003,3.0,1.0,phase_1,,,,,,,,,,,,,green,triangle
148.0,1.0,0.5,0.0,4.0,4.0,457.7768999999989,3.0,1.0,phase_1,,,,,,,,,,,,,white,I
0.0,4.0,0.0,0.0,2.0,2.0,326.4565919998858,3.0,1.0,phase_1,,,,,,,,,,,,,cyan,diamond
312.0,6.0,1.0,1.0,2.0,2.0,402.1172320001369,3.0,1.0,phase_1,,,,,,,,,,,,,orange,cross
165.0,1.0,0.5,0.0,4.0,4.0,438.5497200000827,3.0,1.0,phase_1,,,,,,,,,,,,,white,I
333.0,2.0,1.0,0.0,3.0,3.0,373.3912560001045,3.0,1.0,phase_1,,,,,,,,,,,,,yellow,square
1299.0,4.0,4.0,0.0,4.0,4.0,542.4782269999469,3.0,1.0,phase_1,,,,,,,,,,,,,cyan,diamond
1320.0,4.0,4.0,0.0,2.0,2.0,866.8984420000925,3.0,1.0,phase_1,,,,,,,,,,,,,cyan,diamond
670.0,7.0,2.0,1.0,2.0,2.0,745.5359990001398,3.0,1.0,phase_1,,,,,,,,,,,,,magenta,flipped triangle
148.0,5.0,0.5,1.0,1.0,1.0,391.4824559999488,3.0,1.0,phase_1,,,,,,,,,,,,,blue,hexagon
1314.0,4.0,4.0,0.0,1.0,1.0,764.1886020001039,3.0,1.0,phase_1,,,,,,,,,,,,,cyan,diamond
155.0,1.0,0.5,0.0,1.0,1.0,410.1441719999457,3.0,1.0,phase_1,,,,,,,,,,,,,white,I
328.0,6.0,1.0,1.0,1.0,1.0,557.9133799999454,3.0,1.0,phase_1,,,,,,,,,,,,,orange,cross
0.0,7.0,0.0,1.0,2.0,2.0,327.489013000104,3.0,1.0,phase_1,,,,,,,,,,,,,magenta,flipped triangle
350.0,2.0,1.0,0.0,4.0,4.0,494.574448000094,3.0,1.0,phase_1,,,,,,,,,,,,,yellow,square
314.0,2.0,1.0,0.0,3.0,3.0,317.1054760000515,3.0,1.0,phase_1,,,,,,,,,,,,,yellow,square
1311.0,8.0,4.0,1.0,3.0,3.0,456.2873300001229,3.0,1.0,phase_1,,,,,,,,,,,,,gray,circle
1280.0,4.0,4.0,0.0,2.0,2.0,486.7225250000047,3.0,1.0,phase_1,,,,,,,,,,,,,cyan,diamond
340.0,2.0,1.0,0.0,2.0,2.0,513.9158660001613,3.0,1.0,phase_1,,,,,,,,,,,,,yellow,square
1307.0,4.0,4.0,0.0,1.0,1.0,400.7060429999001,3.0,1.0,phase_1,,,,,,,,,,,,,cyan,diamond
0.0,7.0,0.0,1.0,2.0,2.0,578.096362999986,3.0,1.0,phase_1,,,,,,,,,,,,,magenta,flipped triangle
1311.0,8.0,4.0,1.0,4.0,4.0,354.2808639999748,3.0,1.0,phase_1,,,,,,,,,,,,,gray,circle
663.0,7.0,2.0,1.0,2.0,2.0,512.9384609999761,4.0,1.0,phase_1,,,,,,,,,,,,,magenta,flipped triangle
659.0,3.0,2.0,0.0,2.0,2.0,515.296115999945,4.0,1.0,phase_1,,,,,,,,,,,,,green,triangle
1285.0,8.0,4.0,1.0,3.0,3.0,429.0173609999783,4.0,1.0,phase_1,,,,,,,,,,,,,gray,circle
0.0,8.0,0.0,1.0,3.0,3.0,476.4858529999856,4.0,1.0,phase_1,,,,,,,,,,,,,gray,circle
180.0,1.0,0.5,0.0,2.0,2.0,540.8780780001052,4.0,1.0,phase_1,,,,,,,,,,,,,white,I
652.0,3.0,2.0,0.0,2.0,2.0,495.3660740000032,4.0,1.0,phase_1,,,,,,,,,,,,,green,triangle
144.0,5.0,0.5,1.0,2.0,2.0,429.3948580000233,4.0,1.0,phase_1,,,,,,,,,,,,,blue,hexagon
330.0,2.0,1.0,0.0,4.0,4.0,474.7543280000172,4.0,1.0,phase_1,,,,,,,,,,,,,yellow,square
144.0,1.0,0.5,0.0,3.0,3.0,430.2745109998795,4.0,1.0,phase_1,,,,,,,,,,,,,white,I
659.0,3.0,2.0,0.0,3.0,3.0,353.9881970000351,4.0,1.0,phase_1,,,,,,,,,,,,,green,triangle
636.0,7.0,2.0,1.0,1.0,1.0,541.7587770000409,4.0,1.0,phase_1,,,,,,,,,,,,,magenta,flipped triangle
349.0,6.0,1.0,1.0,2.0,2.0,494.5965309998428,4.0,1.0,phase_1,,,,,,,,,,,,,orange,cross
1299.0,8.0,4.0,1.0,3.0,3.0,354.0994189997946,4.0,1.0,phase_1,,,,,,,,,,,,,gray,circle
1296.0,4.0,4.0,0.0,2.0,2.0,364.6260460000121,4.0,1.0,phase_1,,,,,,,,,,,,,cyan,diamond
637.0,3.0,2.0,0.0,4.0,4.0,485.7964709999578,4.0,1.0,phase_1,,,,,,,,,,,,,green,triangle
662.0,3.0,2.0,0.0,4.0,4.0,478.8111450002361,4.0,1.0,phase_1,,,,,,,,,,,,,green,triangle
0.0,2.0,0.0,0.0,1.0,1.0,522.8695399996468,4.0,1.0,phase_1,,,,,,,,,,,,,yellow,square
0.0,8.0,0.0,1.0,3.0,3.0,465.2823859996715,4.0,1.0,phase_1,,,,,,,,,,,,,gray,circle
0.0,2.0,0.0,0.0,1.0,1.0,598.6179409997021,4.0,1.0,phase_1,,,,,,,,,,,,,yellow,square
167.0,1.0,0.5,0.0,2.0,2.0,318.4036309999101,4.0,1.0,phase_1,,,,,,,,,,,,,white,I
664.0,7.0,2.0,1.0,4.0,4.0,438.6916630000996,4.0,1.0,phase_1,,,,,,,,,,,,,magenta,flipped triangle
1290.0,4.0,4.0,0.0,3.0,3.0,354.60687900013,4.0,1.0,phase_1,,,,,,,,,,,,,cyan,diamond
328.0,2.0,1.0,0.0,1.0,1.0,512.2195660001125,4.0,1.0,phase_1,,,,,,,,,,,,,yellow,square
1317.0,8.0,4.0,1.0,4.0,4.0,382.3605880002105,4.0,1.0,phase_1,,,,,,,,,,,,,gray,circle
0.0,7.0,0.0,1.0,2.0,2.0,419.7675499999604,4.0,1.0,phase_1,,,,,,,,,,,,,magenta,flipped triangle
171.0,5.0,0.5,1.0,1.0,1.0,420.1740889998291,4.0,1.0,phase_1,,,,,,,,,,,,,blue,hexagon
345.0,6.0,1.0,1.0,1.0,1.0,420.8437130000675,4.0,1.0,phase_1,,,,,,,,,,,,,orange,cross
319.0,2.0,1.0,0.0,1.0,1.0,596.7040460000135,4.0,1.0,phase_1,,,,,,,,,,,,,yellow,square
642.0,3.0,2.0,0.0,3.0,3.0,411.5015100001074,4.0,1.0,phase_1,,,,,,,,,,,,,green,triangle
1322.0,8.0,4.0,1.0,3.0,3.0,429.7183979997498,4.0,1.0,phase_1,,,,,,,,,,,,,gray,circle
171.0,1.0,0.5,0.0,3.0,3.0,355.6444890000421,4.0,1.0,phase_1,,,,,,,,,,,,,white,I
1285.0,4.0,4.0,0.0,1.0,1.0,530.3385590000289,4.0,1.0,phase_1,,,,,,,,,,,,,cyan,diamond
636.0,3.0,2.0,0.0,4.0,4.0,438.2453700000042,4.0,1.0,phase_1,,,,,,,,,,,,,green,triangle
1286.0,4.0,4.0,0.0,4.0,4.0,466.9687629998407,4.0,1.0,phase_1,,,,,,,,,,,,,cyan,diamond
1320.0,8.0,4.0,1.0,1.0,1.0,494.5333860000573,4.0,1.0,phase_1,,,,,,,,,,,,,gray,circle
302.0,2.0,1.0,0.0,2.0,2.0,308.0211760002385,4.0,1.0,phase_1,,,,,,,,,,,,,yellow,square
0.0,7.0,0.0,1.0,1.0,1.0,466.9965600000978,4.0,1.0,phase_1,,,,,,,,,,,,,magenta,flipped triangle
1289.0,8.0,4.0,1.0,3.0,3.0,458.3999789997506,4.0,1.0,phase_1,,,,,,,,,,,,,gray,circle
1299.0,4.0,4.0,0.0,4.0,4.0,410.5154059998313,4.0,1.0,phase_1,,,,,,,,,,,,,cyan,diamond
638.0,7.0,2.0,1.0,3.0,3.0,476.4649489998191,4.0,1.0,phase_1,,,,,,,,,,,,,magenta,flipped triangle
1293.0,4.0,4.0,0.0,2.0,2.0,596.6410650003127,4.0,1.0,phase_1,,,,,,,,,,,,,cyan,diamond
319.0,6.0,1.0,1.0,2.0,2.0,634.5897649998733,4.0,1.0,phase_1,,,,,,,,,,,,,orange,cross
0.0,4.0,0.0,0.0,4.0,4.0,495.5038210000566,4.0,1.0,phase_1,,,,,,,,,,,,,cyan,diamond
311.0,6.0,1.0,1.0,4.0,4.0,412.9823919997761,4.0,1.0,phase_1,,,,,,,,,,,,,orange,cross
344.0,2.0,1.0,0.0,1.0,1.0,336.7471090000435,4.0,1.0,phase_1,,,,,,,,,,,,,yellow,square
154.0,5.0,0.5,1.0,4.0,4.0,329.7430299999178,4.0,1.0,phase_1,,,,,,,,,,,,,blue,hexagon
670.0,7.0,2.0,1.0,1.0,1.0,483.9366789997257,4.0,1.0,phase_1,,,,,,,,,,,,,magenta,flipped triangle
1293.0,8.0,4.0,1.0,2.0,2.0,315.9676499999477,4.0,1.0,phase_1,,,,,,,,,,,,,gray,circle
141.0,5.0,0.5,1.0,2.0,2.0,458.1209970001509,4.0,1.0,phase_1,,,,,,,,,,,,,blue,hexagon
1279.0,8.0,4.0,1.0,4.0,4.0,431.2675900000613,4.0,1.0,phase_1,,,,,,,,,,,,,gray,circle
1296.0,8.0,4.0,1.0,3.0,3.0,457.1185679997143,4.0,1.0,phase_1,,,,,,,,,,,,,gray,circle
662.0,3.0,2.0,0.0,1.0,1.0,374.2172300003403,4.0,1.0,phase_1,,,,,,,,,,,,,green,triangle
1317.0,4.0,4.0,0.0,4.0,4.0,335.0173159997212,4.0,1.0,phase_1,,,,,,,,,,,,,cyan,diamond
309.0,6.0,1.0,1.0,4.0,4.0,419.7551050001493,4.0,1.0,phase_1,,,,,,,,,,,,,orange,cross
175.0,1.0,0.5,0.0,1.0,1.0,448.0865600003199,4.0,1.0,phase_1,,,,,,,,,,,,,white,I
334.0,2.0,1.0,0.0,2.0,2.0,289.3229960000099,4.0,1.0,phase_1,,,,,,,,,,,,,yellow,square
0.0,6.0,0.0,1.0,4.0,4.0,363.931355999739,4.0,1.0,phase_1,,,,,,,,,,,,,orange,cross
167.0,1.0,0.5,0.0,4.0,4.0,401.1781929998506,4.0,1.0,phase_1,,,,,,,,,,,,,white,I
637.0,7.0,2.0,1.0,4.0,4.0,355.7190809997337,4.0,1.0,phase_1,,,,,,,,,,,,,magenta,flipped triangle
645.0,7.0,2.0,1.0,3.0,3.0,457.7140910000707,4.0,1.0,phase_1,,,,,,,,,,,,,magenta,flipped triangle
1293.0,4.0,4.0,0.0,1.0,1.0,514.3623069998284,4.0,1.0,phase_1,,,,,,,,,,,,,cyan,diamond
673.0,7.0,2.0,1.0,4.0,4.0,420.5252120000295,4.0,1.0,phase_1,,,,,,,,,,,,,magenta,flipped triangle
172.0,5.0,0.5,1.0,3.0,3.0,410.9126530001958,4.0,1.0,phase_1,,,,,,,,,,,,,blue,hexagon
0.0,5.0,0.0,1.0,3.0,3.0,372.9616849996091,4.0,1.0,phase_1,,,,,,,,,,,,,blue,hexagon
1282.0,8.0,4.0,1.0,1.0,1.0,504.3275610000819,4.0,1.0,phase_1,,,,,,,,,,,,,gray,circle
0.0,4.0,0.0,0.0,4.0,4.0,345.931242000006,4.0,1.0,phase_1,,,,,,,,,,,,,cyan,diamond
0.0,6.0,0.0,1.0,2.0,2.0,485.0968580003609,4.0,1.0,phase_1,,,,,,,,,,,,,orange,cross
0.0,3.0,0.0,0.0,2.0,2.0,373.8368629997239,4.0,1.0,phase_1,,,,,,,,,,,,,green,triangle
0.0,8.0,0.0,1.0,1.0,1.0,411.7997680000371,4.0,1.0,phase_1,,,,,,,,,,,,,gray,circle
0.0,3.0,0.0,0.0,3.0,3.0,383.1446529998175,4.0,1.0,phase_1,,,,,,,,,,,,,green,triangle
0.0,5.0,0.0,1.0,3.0,3.0,382.2654010000406,4.0,1.0,phase_1,,,,,,,,,,,,,blue,hexagon
336.0,6.0,1.0,1.0,3.0,3.0,316.9791489999625,4.0,1.0,phase_1,,,,,,,,,,,,,orange,cross
173.0,5.0,0.5,1.0,4.0,4.0,355.2500549999422,4.0,1.0,phase_1,,,,,,,,,,,,,blue,hexagon
626.0,7.0,2.0,1.0,2.0,2.0,345.6403410000348,4.0,1.0,phase_1,,,,,,,,,,,,,magenta,flipped triangle
140.0,5.0,0.5,1.0,2.0,2.0,392.5853149999057,4.0,2.0,phase_1,,,,,,,,,,,,,blue,hexagon
319.0,2.0,1.0,0.0,2.0,2.0,327.6807580000422,4.0,1.0,phase_1,,,,,,,,,,,,,yellow,square
0.0,8.0,0.0,1.0,3.0,3.0,568.410976999985,4.0,1.0,phase_1,,,,,,,,,,,,,gray,circle
666.0,3.0,2.0,0.0,4.0,4.0,484.2954729997473,4.0,1.0,phase_1,,,,,,,,,,,,,green,triangle
176.0,5.0,0.5,1.0,4.0,4.0,381.9091440000193,4.0,1.0,phase_1,,,,,,,,,,,,,blue,hexagon
340.0,6.0,1.0,1.0,1.0,1.0,354.0519400003177,4.0,1.0,phase_1,,,,,,,,,,,,,orange,cross
0.0,3.0,0.0,0.0,1.0,1.0,391.8817300000228,4.0,1.0,phase_1,,,,,,,,,,,,,green,triangle
1322.0,4.0,4.0,0.0,4.0,4.0,392.166425999676,4.0,1.0,phase_1,,,,,,,,,,,,,cyan,diamond
662.0,3.0,2.0,0.0,2.0,2.0,401.0880480000196,4.0,1.0,phase_1,,,,,,,,,,,,,green,triangle
165.0,5.0,0.5,1.0,2.0,2.0,438.145177000024,4.0,1.0,phase_1,,,,,,,,,,,,,blue,hexagon
1304.0,4.0,4.0,0.0,1.0,1.0,438.7207149998176,4.0,1.0,phase_1,,,,,,,,,,,,,cyan,diamond
141.0,1.0,0.5,0.0,1.0,1.0,456.676470000275,4.0,1.0,phase_1,,,,,,,,,,,,,white,I
320.0,6.0,1.0,1.0,2.0,2.0,401.9420230001742,4.0,1.0,phase_1,,,,,,,,,,,,,orange,cross
652.0,7.0,2.0,1.0,4.0,4.0,495.7641070000136,4.0,1.0,phase_1,,,,,,,,,,,,,magenta,flipped triangle
0.0,5.0,0.0,1.0,4.0,4.0,373.606792999908,4.0,1.0,phase_1,,,,,,,,,,,,,blue,hexagon
313.0,6.0,1.0,1.0,4.0,4.0,401.5542079996521,4.0,1.0,phase_1,,,,,,,,,,,,,orange,cross
322.0,6.0,1.0,1.0,3.0,3.0,522.5771240002359,4.0,1.0,phase_1,,,,,,,,,,,,,orange,cross
1303.0,8.0,4.0,1.0,4.0,4.0,401.6466469997795,4.0,1.0,phase_1,,,,,,,,,,,,,gray,circle
0.0,1.0,0.0,0.0,2.0,2.0,437.9335670000728,4.0,1.0,phase_1,,,,,,,,,,,,,white,I
327.0,2.0,1.0,0.0,4.0,4.0,410.9103050000158,4.0,1.0,phase_1,,,,,,,,,,,,,yellow,square
0.0,8.0,0.0,1.0,2.0,2.0,469.5950270001958,4.0,1.0,phase_1,,,,,,,,,,,,,gray,circle
1277.0,8.0,4.0,1.0,4.0,4.0,476.1660179997307,4.0,1.0,phase_1,,,,,,,,,,,,,gray,circle
1321.0,4.0,4.0,0.0,4.0,4.0,476.64294399965,4.0,1.0,phase_1,,,,,,,,,,,,,cyan,diamond
0.0,5.0,0.0,1.0,2.0,2.0,549.9065530002554,4.0,1.0,phase_1,,,,,,,,,,,,,blue,hexagon
641.0,7.0,2.0,1.0,2.0,2.0,522.1080530000108,4.0,1.0,phase_1,,,,,,,,,,,,,magenta,flipped triangle
344.0,6.0,1.0,1.0,1.0,1.0,373.3682250003767,4.0,1.0,phase_1,,,,,,,,,,,,,orange,cross
0.0,7.0,2.0,1.0,6.0,6.0,755.1461240000208,1.0,1.0,phase_2,go,250.0,250.0,1.0,,,,,,,,,magenta,flipped triangle
0.0,6.0,1.0,1.0,5.0,5.0,740.5161399997269,1.0,1.0,phase_2,stop,250.0,250.0,3.0,,,,,,,,,orange,cross
0.0,5.0,0.5,1.0,5.0,0.0,0.0,1.0,1.0,phase_2,stop,200.0,250.0,4.0,,,,,,,,,blue,hexagon
0.0,5.0,0.5,1.0,5.0,5.0,872.5783889999548,1.0,1.0,phase_2,go,250.0,250.0,1.0,,,,,,,,,blue,hexagon
0.0,2.0,1.0,0.0,6.0,6.0,939.4980580000264,1.0,1.0,phase_2,go,250.0,250.0,1.0,,,,,,,,,yellow,square
0.0,1.0,0.5,0.0,5.0,5.0,882.4032379998243,1.0,1.0,phase_2,go,250.0,250.0,1.0,,,,,,,,,white,I
0.0,5.0,0.5,1.0,6.0,0.0,0.0,1.0,1.0,phase_2,stop,250.0,250.0,4.0,,,,,,,,,blue,hexagon
0.0,8.0,4.0,1.0,5.0,5.0,873.8362939998296,1.0,1.0,phase_2,go,250.0,300.0,1.0,,,,,,,,,gray,circle
0.0,4.0,4.0,0.0,6.0,6.0,1008.5175409999465,1.0,1.0,phase_2,go,250.0,300.0,1.0,,,,,,,,,cyan,diamond
0.0,5.0,0.5,1.0,6.0,0.0,0.0,1.0,1.0,phase_2,stop,250.0,300.0,4.0,,,,,,,,,blue,hexagon
0.0,5.0,0.5,1.0,6.0,0.0,0.0,1.0,1.0,phase_2,stop,250.0,350.0,4.0,,,,,,,,,blue,hexagon
0.0,4.0,4.0,0.0,6.0,6.0,762.3094439995839,1.0,1.0,phase_2,go,250.0,400.0,1.0,,,,,,,,,cyan,diamond
0.0,8.0,4.0,1.0,6.0,0.0,0.0,1.0,1.0,phase_2,stop,250.0,400.0,4.0,,,,,,,,,gray,circle
0.0,6.0,1.0,1.0,5.0,0.0,0.0,1.0,1.0,phase_2,stop,250.0,450.0,4.0,,,,,,,,,orange,cross
0.0,6.0,1.0,1.0,5.0,0.0,0.0,1.0,1.0,phase_2,stop,300.0,450.0,4.0,,,,,,,,,orange,cross
0.0,4.0,4.0,0.0,6.0,6.0,778.1326950002949,1.0,1.0,phase_2,go,350.0,450.0,1.0,,,,,,,,,cyan,diamond
0.0,2.0,1.0,0.0,6.0,6.0,975.409740000032,1.0,1.0,phase_2,go,350.0,450.0,1.0,,,,,,,,,yellow,square
0.0,5.0,0.5,1.0,5.0,5.0,751.2765960000252,1.0,1.0,phase_2,go,350.0,450.0,1.0,,,,,,,,,blue,hexagon
0.0,5.0,0.5,1.0,5.0,0.0,0.0,1.0,1.0,phase_2,stop,350.0,450.0,4.0,,,,,,,,,blue,hexagon
0.0,6.0,1.0,1.0,5.0,0.0,0.0,1.0,1.0,phase_2,stop,400.0,450.0,4.0,,,,,,,,,orange,cross
0.0,2.0,1.0,0.0,5.0,5.0,871.922799999993,1.0,1.0,phase_2,go,450.0,450.0,1.0,,,,,,,,,yellow,square
0.0,4.0,4.0,0.0,6.0,6.0,778.7480960000721,1.0,1.0,phase_2,go,450.0,450.0,1.0,,,,,,,,,cyan,diamond
0.0,1.0,0.5,0.0,5.0,5.0,874.5060530000046,1.0,1.0,phase_2,go,450.0,450.0,1.0,,,,,,,,,white,I
0.0,3.0,2.0,0.0,6.0,6.0,965.8058909999454,1.0,1.0,phase_2,go,450.0,450.0,1.0,,,,,,,,,green,triangle
0.0,6.0,1.0,1.0,6.0,6.0,814.5745540000462,1.0,1.0,phase_2,go,450.0,450.0,1.0,,,,,,,,,orange,cross
0.0,6.0,1.0,1.0,5.0,5.0,817.9252640002233,1.0,1.0,phase_2,go,450.0,450.0,1.0,,,,,,,,,orange,cross
0.0,6.0,1.0,1.0,5.0,0.0,0.0,1.0,1.0,phase_2,stop,450.0,450.0,4.0,,,,,,,,,orange,cross
0.0,2.0,1.0,0.0,6.0,6.0,665.1576479998766,1.0,1.0,phase_2,go,500.0,450.0,1.0,,,,,,,,,yellow,square
0.0,3.0,2.0,0.0,6.0,6.0,928.4396419998302,1.0,1.0,phase_2,go,500.0,450.0,1.0,,,,,,,,,green,triangle
0.0,3.0,2.0,0.0,5.0,5.0,1051.6137199997502,1.0,1.0,phase_2,go,500.0,450.0,1.0,,,,,,,,,green,triangle
0.0,2.0,1.0,0.0,5.0,5.0,815.7154059999812,1.0,1.0,phase_2,go,500.0,450.0,1.0,,,,,,,,,yellow,square
0.0,4.0,4.0,0.0,6.0,6.0,940.3452409997044,1.0,1.0,phase_2,go,500.0,450.0,1.0,,,,,,,,,cyan,diamond
0.0,7.0,2.0,1.0,5.0,5.0,902.5037540000084,1.0,1.0,phase_2,go,500.0,450.0,1.0,,,,,,,,,magenta,flipped triangle
0.0,2.0,1.0,0.0,5.0,5.0,755.2012709998053,1.0,1.0,phase_2,go,500.0,450.0,1.0,,,,,,,,,yellow,square
0.0,7.0,2.0,1.0,5.0,0.0,0.0,1.0,1.0,phase_2,stop,500.0,450.0,4.0,,,,,,,,,magenta,flipped triangle
0.0,5.0,0.5,1.0,6.0,0.0,0.0,1.0,1.0,phase_2,stop,550.0,450.0,4.0,,,,,,,,,blue,hexagon
0.0,3.0,2.0,0.0,5.0,5.0,897.6845360002699,2.0,1.0,phase_2,go,550.0,500.0,1.0,,,,,,,,,green,triangle
0.0,8.0,4.0,1.0,5.0,5.0,621.7572720001954,2.0,1.0,phase_2,stop,550.0,500.0,3.0,,,,,,,,,gray,circle
0.0,6.0,1.0,1.0,6.0,6.0,740.5489830002807,2.0,1.0,phase_2,go,500.0,500.0,1.0,,,,,,,,,orange,cross
0.0,3.0,2.0,0.0,5.0,5.0,816.3083260001258,2.0,1.0,phase_2,go,500.0,500.0,1.0,,,,,,,,,green,triangle
0.0,1.0,0.5,0.0,6.0,6.0,855.7382559997677,2.0,1.0,phase_2,go,500.0,500.0,1.0,,,,,,,,,white,I
0.0,2.0,1.0,0.0,5.0,5.0,770.8161669997935,2.0,1.0,phase_2,go,500.0,500.0,1.0,,,,,,,,,yellow,square
0.0,2.0,1.0,0.0,6.0,6.0,732.3361640001167,2.0,1.0,phase_2,go,500.0,500.0,1.0,,,,,,,,,yellow,square
0.0,1.0,0.5,0.0,5.0,5.0,779.0631740003846,2.0,1.0,phase_2,go,500.0,500.0,1.0,,,,,,,,,white,I
0.0,7.0,2.0,1.0,5.0,5.0,770.2082460000383,2.0,1.0,phase_2,go,500.0,500.0,1.0,,,,,,,,,magenta,flipped triangle
0.0,8.0,4.0,1.0,5.0,0.0,0.0,2.0,1.0,phase_2,stop,500.0,500.0,4.0,,,,,,,,,gray,circle
0.0,6.0,1.0,1.0,6.0,0.0,0.0,2.0,1.0,phase_2,stop,550.0,500.0,4.0,,,,,,,,,orange,cross
0.0,3.0,2.0,0.0,6.0,6.0,758.8381820000905,2.0,1.0,phase_2,go,550.0,550.0,1.0,,,,,,,,,green,triangle
0.0,3.0,2.0,0.0,6.0,6.0,1031.3813769998887,2.0,1.0,phase_2,go,550.0,550.0,1.0,,,,,,,,,green,triangle
0.0,3.0,2.0,0.0,6.0,6.0,805.6984230001945,2.0,1.0,phase_2,go,550.0,550.0,1.0,,,,,,,,,green,triangle
0.0,4.0,4.0,0.0,6.0,6.0,936.8922379999276,2.0,1.0,phase_2,go,550.0,550.0,1.0,,,,,,,,,cyan,diamond
0.0,8.0,4.0,1.0,6.0,6.0,873.959413999728,2.0,1.0,phase_2,go,550.0,550.0,1.0,,,,,,,,,gray,circle
0.0,8.0,4.0,1.0,6.0,0.0,0.0,2.0,1.0,phase_2,stop,550.0,550.0,4.0,,,,,,,,,gray,circle
0.0,1.0,0.5,0.0,6.0,6.0,827.9339189998609,2.0,1.0,phase_2,go,550.0,600.0,1.0,,,,,,,,,white,I
0.0,7.0,2.0,1.0,6.0,0.0,0.0,2.0,1.0,phase_2,stop,550.0,600.0,4.0,,,,,,,,,magenta,flipped triangle
0.0,6.0,1.0,1.0,6.0,6.0,909.7479520000888,2.0,1.0,phase_2,go,550.0,650.0,1.0,,,,,,,,,orange,cross
0.0,7.0,2.0,1.0,6.0,0.0,0.0,2.0,1.0,phase_2,stop,550.0,650.0,4.0,,,,,,,,,magenta,flipped triangle
0.0,5.0,0.5,1.0,5.0,5.0,714.8918240000057,2.0,1.0,phase_2,stop,550.0,700.0,3.0,,,,,,,,,blue,hexagon
0.0,1.0,0.5,0.0,6.0,6.0,790.6428870001037,2.0,1.0,phase_2,go,500.0,700.0,1.0,,,,,,,,,white,I
0.0,8.0,4.0,1.0,6.0,6.0,891.6809570000623,2.0,1.0,phase_2,go,500.0,700.0,1.0,,,,,,,,,gray,circle
0.0,8.0,4.0,1.0,6.0,6.0,825.5667669996001,2.0,1.0,phase_2,go,500.0,700.0,1.0,,,,,,,,,gray,circle
0.0,4.0,4.0,0.0,5.0,5.0,826.5417110001181,2.0,1.0,phase_2,go,500.0,700.0,1.0,,,,,,,,,cyan,diamond
0.0,1.0,0.5,0.0,6.0,6.0,666.7239120001796,2.0,1.0,phase_2,go,500.0,700.0,1.0,,,,,,,,,white,I
0.0,3.0,2.0,0.0,6.0,6.0,741.9814109998697,2.0,1.0,phase_2,go,500.0,700.0,1.0,,,,,,,,,green,triangle
0.0,5.0,0.5,1.0,6.0,6.0,648.9327599997523,2.0,1.0,phase_2,stop,500.0,700.0,3.0,,,,,,,,,blue,hexagon
0.0,8.0,4.0,1.0,6.0,0.0,0.0,2.0,1.0,phase_2,stop,500.0,650.0,4.0,,,,,,,,,gray,circle
0.0,4.0,4.0,0.0,5.0,5.0,938.678849000098,2.0,1.0,phase_2,go,500.0,700.0,1.0,,,,,,,,,cyan,diamond
0.0,1.0,0.5,0.0,6.0,6.0,854.8005940001531,2.0,1.0,phase_2,go,500.0,700.0,1.0,,,,,,,,,white,I
0.0,2.0,1.0,0.0,5.0,5.0,730.3066320000653,2.0,1.0,phase_2,go,500.0,700.0,1.0,,,,,,,,,yellow,square
0.0,7.0,2.0,1.0,6.0,6.0,764.1955089998191,2.0,1.0,phase_2,stop,500.0,700.0,3.0,,,,,,,,,magenta,flipped triangle
0.0,2.0,1.0,0.0,6.0,6.0,824.834875000306,2.0,1.0,phase_2,go,500.0,650.0,1.0,,,,,,,,,yellow,square
0.0,7.0,2.0,1.0,5.0,0.0,0.0,2.0,1.0,phase_2,stop,500.0,650.0,4.0,,,,,,,,,magenta,flipped triangle
0.0,6.0,1.0,1.0,6.0,6.0,648.1832879999274,3.0,1.0,phase_2,stop,550.0,650.0,3.0,,,,,,,,,orange,cross
0.0,3.0,2.0,0.0,6.0,6.0,795.9564100001444,3.0,1.0,phase_2,go,550.0,600.0,1.0,,,,,,,,,green,triangle
0.0,1.0,0.5,0.0,6.0,6.0,776.3479019999977,3.0,1.0,phase_2,go,550.0,600.0,1.0,,,,,,,,,white,I
0.0,6.0,1.0,1.0,6.0,6.0,692.8799120000804,3.0,1.0,phase_2,go,550.0,600.0,1.0,,,,,,,,,orange,cross
0.0,2.0,1.0,0.0,5.0,5.0,623.3635509997839,3.0,1.0,phase_2,go,550.0,600.0,1.0,,,,,,,,,yellow,square
0.0,4.0,4.0,0.0,6.0,6.0,617.5606320002771,3.0,1.0,phase_2,go,550.0,600.0,1.0,,,,,,,,,cyan,diamond
0.0,8.0,4.0,1.0,5.0,0.0,0.0,3.0,1.0,phase_2,stop,550.0,600.0,4.0,,,,,,,,,gray,circle
0.0,6.0,1.0,1.0,6.0,6.0,726.7687399998977,3.0,1.0,phase_2,stop,600.0,600.0,3.0,,,,,,,,,orange,cross
0.0,5.0,0.5,1.0,5.0,0.0,0.0,3.0,1.0,phase_2,stop,600.0,550.0,4.0,,,,,,,,,blue,hexagon
0.0,8.0,4.0,1.0,5.0,5.0,732.5871779999034,3.0,1.0,phase_2,go,650.0,550.0,1.0,,,,,,,,,gray,circle
0.0,2.0,1.0,0.0,6.0,0.0,0.0,3.0,1.0,phase_2,go,650.0,550.0,5.0,,,,,,,,,yellow,square
0.0,7.0,2.0,1.0,5.0,0.0,0.0,3.0,1.0,phase_2,stop,650.0,550.0,4.0,,,,,,,,,magenta,flipped triangle
0.0,3.0,2.0,0.0,5.0,5.0,872.9845049997493,3.0,1.0,phase_2,go,700.0,550.0,1.0,,,,,,,,,green,triangle
0.0,7.0,2.0,1.0,6.0,0.0,0.0,3.0,1.0,phase_2,stop,700.0,550.0,4.0,,,,,,,,,magenta,flipped triangle
0.0,7.0,2.0,1.0,6.0,0.0,0.0,3.0,1.0,phase_2,stop,700.0,600.0,4.0,,,,,,,,,magenta,flipped triangle
0.0,3.0,2.0,0.0,5.0,5.0,796.9852050000554,3.0,1.0,phase_2,go,700.0,650.0,1.0,,,,,,,,,green,triangle
0.0,5.0,0.5,1.0,6.0,6.0,763.8331429998289,3.0,1.0,phase_2,stop,700.0,650.0,3.0,,,,,,,,,blue,hexagon
0.0,7.0,2.0,1.0,6.0,0.0,0.0,3.0,1.0,phase_2,stop,700.0,600.0,4.0,,,,,,,,,magenta,flipped triangle
0.0,3.0,2.0,0.0,5.0,5.0,863.536837999618,3.0,1.0,phase_2,go,700.0,650.0,1.0,,,,,,,,,green,triangle
0.0,4.0,4.0,0.0,5.0,5.0,843.9825660002498,3.0,1.0,phase_2,go,700.0,650.0,1.0,,,,,,,,,cyan,diamond
0.0,3.0,2.0,0.0,5.0,5.0,742.0290179998119,3.0,1.0,phase_2,go,700.0,650.0,1.0,,,,,,,,,green,triangle
0.0,6.0,1.0,1.0,6.0,0.0,0.0,3.0,1.0,phase_2,stop,700.0,650.0,4.0,,,,,,,,,orange,cross
0.0,6.0,1.0,1.0,5.0,0.0,0.0,3.0,1.0,phase_2,stop,700.0,700.0,4.0,,,,,,,,,orange,cross
0.0,4.0,4.0,0.0,5.0,5.0,948.7651809999988,3.0,1.0,phase_2,go,750.0,700.0,1.0,,,,,,,,,cyan,diamond
0.0,5.0,0.5,1.0,5.0,5.0,858.272283000133,3.0,1.0,phase_2,stop,750.0,700.0,3.0,,,,,,,,,blue,hexagon
0.0,1.0,0.5,0.0,5.0,5.0,1153.1510829995568,3.0,1.0,phase_2,go,700.0,700.0,1.0,,,,,,,,,white,I
0.0,4.0,4.0,0.0,5.0,5.0,985.8916600001066,3.0,1.0,phase_2,go,700.0,700.0,1.0,,,,,,,,,cyan,diamond
0.0,3.0,2.0,0.0,6.0,6.0,949.0540960000544,3.0,1.0,phase_2,go,700.0,700.0,1.0,,,,,,,,,green,triangle
0.0,2.0,1.0,0.0,5.0,5.0,817.7502539997477,3.0,1.0,phase_2,go,700.0,700.0,1.0,,,,,,,,,yellow,square
0.0,6.0,1.0,1.0,5.0,5.0,865.6125020002037,3.0,1.0,phase_2,stop,700.0,700.0,3.0,,,,,,,,,orange,cross
0.0,6.0,1.0,1.0,5.0,0.0,0.0,3.0,1.0,phase_2,stop,650.0,700.0,4.0,,,,,,,,,orange,cross
0.0,1.0,0.5,0.0,5.0,5.0,931.495199999972,3.0,1.0,phase_2,go,700.0,700.0,1.0,,,,,,,,,white,I
0.0,1.0,0.5,0.0,5.0,5.0,1052.4704089998522,3.0,1.0,phase_2,go,700.0,700.0,1.0,,,,,,,,,white,I
0.0,2.0,1.0,0.0,6.0,6.0,797.5458800001434,3.0,1.0,phase_2,go,700.0,700.0,1.0,,,,,,,,,yellow,square
0.0,3.0,2.0,0.0,5.0,5.0,826.2357029998384,3.0,1.0,phase_2,go,700.0,700.0,1.0,,,,,,,,,green,triangle
0.0,2.0,1.0,0.0,6.0,6.0,1004.6876229998816,3.0,1.0,phase_2,go,700.0,700.0,1.0,,,,,,,,,yellow,square
0.0,1.0,0.5,0.0,6.0,6.0,696.1052579999887,4.0,1.0,phase_2,go,700.0,700.0,1.0,,,,,,,,,white,I
0.0,4.0,4.0,0.0,6.0,6.0,337.8659390000393,4.0,1.0,phase_2,go,700.0,700.0,1.0,,,,,,,,,cyan,diamond
0.0,3.0,2.0,0.0,5.0,5.0,282.9954159997214,4.0,1.0,phase_2,go,700.0,700.0,1.0,,,,,,,,,green,triangle
0.0,5.0,0.5,1.0,6.0,6.0,281.6574280000168,4.0,1.0,phase_2,stop,700.0,700.0,3.0,,,,,,,,,blue,hexagon
0.0,1.0,0.5,0.0,6.0,6.0,741.5350030000809,4.0,1.0,phase_2,go,700.0,650.0,1.0,,,,,,,,,white,I
0.0,7.0,2.0,1.0,5.0,5.0,479.1145870003674,4.0,1.0,phase_2,stop,700.0,650.0,3.0,,,,,,,,,magenta,flipped triangle
0.0,4.0,4.0,0.0,5.0,5.0,658.0038780002724,4.0,1.0,phase_2,go,650.0,650.0,1.0,,,,,,,,,cyan,diamond
0.0,4.0,4.0,0.0,5.0,5.0,771.1561259998234,4.0,1.0,phase_2,go,650.0,650.0,1.0,,,,,,,,,cyan,diamond
0.0,2.0,1.0,0.0,6.0,6.0,685.8187509997151,4.0,1.0,phase_2,go,650.0,650.0,1.0,,,,,,,,,yellow,square
0.0,3.0,2.0,0.0,5.0,5.0,518.1909709999672,4.0,1.0,phase_2,go,650.0,650.0,1.0,,,,,,,,,green,triangle
0.0,7.0,2.0,1.0,5.0,5.0,687.1964720003234,4.0,1.0,phase_2,stop,650.0,650.0,3.0,,,,,,,,,magenta,flipped triangle
0.0,5.0,0.5,1.0,6.0,6.0,836.9377720000557,4.0,1.0,phase_2,stop,600.0,650.0,3.0,,,,,,,,,blue,hexagon
0.0,6.0,1.0,1.0,6.0,6.0,733.6253949997626,4.0,1.0,phase_2,go,600.0,600.0,1.0,,,,,,,,,orange,cross
0.0,7.0,2.0,1.0,6.0,6.0,722.8853310002705,4.0,1.0,phase_2,go,600.0,600.0,1.0,,,,,,,,,magenta,flipped triangle
0.0,2.0,1.0,0.0,6.0,6.0,696.175347999997,4.0,1.0,phase_2,go,600.0,600.0,1.0,,,,,,,,,yellow,square
0.0,6.0,1.0,1.0,6.0,6.0,639.8126299995965,4.0,1.0,phase_2,go,600.0,600.0,1.0,,,,,,,,,orange,cross
0.0,6.0,1.0,1.0,5.0,5.0,647.3147510000672,4.0,1.0,phase_2,stop,600.0,600.0,3.0,,,,,,,,,orange,cross
0.0,5.0,0.5,1.0,6.0,6.0,696.5256560001762,4.0,1.0,phase_2,go,550.0,600.0,1.0,,,,,,,,,blue,hexagon
0.0,1.0,0.5,0.0,6.0,6.0,723.472860000129,4.0,1.0,phase_2,go,550.0,600.0,1.0,,,,,,,,,white,I
0.0,2.0,1.0,0.0,6.0,6.0,772.3539519997757,4.0,1.0,phase_2,go,550.0,600.0,1.0,,,,,,,,,yellow,square
0.0,8.0,4.0,1.0,6.0,6.0,537.2903440002119,4.0,1.0,phase_2,stop,550.0,600.0,3.0,,,,,,,,,gray,circle
0.0,5.0,0.5,1.0,6.0,0.0,0.0,4.0,1.0,phase_2,stop,550.0,550.0,4.0,,,,,,,,,blue,hexagon
0.0,5.0,0.5,1.0,6.0,6.0,712.6604000000043,4.0,1.0,phase_2,go,550.0,600.0,1.0,,,,,,,,,blue,hexagon
0.0,7.0,2.0,1.0,6.0,6.0,686.7763500004003,4.0,1.0,phase_2,stop,550.0,600.0,3.0,,,,,,,,,magenta,flipped triangle
0.0,8.0,4.0,1.0,5.0,0.0,0.0,4.0,1.0,phase_2,stop,550.0,550.0,4.0,,,,,,,,,gray,circle
0.0,2.0,1.0,0.0,5.0,5.0,713.7416119999216,4.0,1.0,phase_2,go,600.0,550.0,1.0,,,,,,,,,yellow,square
0.0,2.0,1.0,0.0,5.0,5.0,1003.7379619998319,4.0,1.0,phase_2,go,600.0,550.0,1.0,,,,,,,,,yellow,square
0.0,4.0,4.0,0.0,6.0,6.0,844.6010520001437,4.0,1.0,phase_2,go,600.0,550.0,1.0,,,,,,,,,cyan,diamond
0.0,5.0,0.5,1.0,5.0,5.0,695.9534839998014,4.0,1.0,phase_2,go,600.0,550.0,1.0,,,,,,,,,blue,hexagon
0.0,3.0,2.0,0.0,5.0,5.0,761.3847859997804,4.0,1.0,phase_2,go,600.0,550.0,1.0,,,,,,,,,green,triangle
0.0,5.0,0.5,1.0,5.0,5.0,341.0949979997895,4.0,1.0,phase_2,stop,600.0,550.0,3.0,,,,,,,,,blue,hexagon
0.0,7.0,2.0,1.0,5.0,0.0,0.0,4.0,1.0,phase_2,stop,550.0,550.0,4.0,,,,,,,,,magenta,flipped triangle
0.0,3.0,2.0,0.0,6.0,6.0,518.1707940000706,4.0,1.0,phase_2,go,600.0,550.0,1.0,,,,,,,,,green,triangle
0.0,6.0,1.0,1.0,5.0,5.0,748.468788000082,4.0,1.0,phase_2,stop,600.0,550.0,3.0,,,,,,,,,orange,cross
0.0,7.0,2.0,1.0,5.0,0.0,0.0,4.0,1.0,phase_2,stop,550.0,550.0,4.0,,,,,,,,,magenta,flipped triangle
0.0,3.0,2.0,0.0,5.0,5.0,667.9791709998426,4.0,1.0,phase_2,go,600.0,550.0,1.0,,,,,,,,,green,triangle
0.0,8.0,4.0,1.0,5.0,5.0,646.1010859998169,5.0,1.0,phase_2,stop,600.0,550.0,3.0,,,,,,,,,gray,circle
0.0,7.0,2.0,1.0,5.0,5.0,339.3616099997416,5.0,1.0,phase_2,stop,550.0,550.0,3.0,,,,,,,,,magenta,flipped triangle
0.0,3.0,2.0,0.0,5.0,5.0,565.1611460002641,5.0,1.0,phase_2,go,500.0,550.0,1.0,,,,,,,,,green,triangle
0.0,1.0,0.5,0.0,5.0,5.0,319.5749050000813,5.0,1.0,phase_2,go,500.0,550.0,1.0,,,,,,,,,white,I
0.0,3.0,2.0,0.0,6.0,6.0,475.3307660002974,5.0,1.0,phase_2,go,500.0,550.0,1.0,,,,,,,,,green,triangle
0.0,4.0,4.0,0.0,5.0,5.0,390.8383830003004,5.0,1.0,phase_2,go,500.0,550.0,1.0,,,,,,,,,cyan,diamond
0.0,6.0,1.0,1.0,6.0,6.0,539.3652739999197,5.0,1.0,phase_2,stop,500.0,550.0,3.0,,,,,,,,,orange,cross
0.0,3.0,2.0,0.0,6.0,6.0,606.4637439999387,5.0,1.0,phase_2,go,500.0,500.0,1.0,,,,,,,,,green,triangle
0.0,5.0,0.5,1.0,5.0,5.0,563.7630100000024,5.0,1.0,phase_2,stop,500.0,500.0,3.0,,,,,,,,,blue,hexagon
0.0,2.0,1.0,0.0,5.0,5.0,852.898372999789,5.0,1.0,phase_2,go,450.0,500.0,1.0,,,,,,,,,yellow,square
0.0,2.0,1.0,0.0,5.0,5.0,939.396794000004,5.0,1.0,phase_2,go,450.0,500.0,1.0,,,,,,,,,yellow,square
0.0,4.0,4.0,0.0,5.0,5.0,385.5794280002556,5.0,1.0,phase_2,go,450.0,500.0,1.0,,,,,,,,,cyan,diamond
0.0,8.0,4.0,1.0,5.0,5.0,687.1723189997283,5.0,1.0,phase_2,go,450.0,500.0,1.0,,,,,,,,,gray,circle
0.0,4.0,4.0,0.0,5.0,5.0,319.7193309997601,5.0,1.0,phase_2,go,450.0,500.0,1.0,,,,,,,,,cyan,diamond
0.0,6.0,1.0,1.0,6.0,6.0,641.3894060001439,5.0,1.0,phase_2,stop,450.0,500.0,3.0,,,,,,,,,orange,cross
0.0,6.0,1.0,1.0,5.0,5.0,599.4085869997434,5.0,1.0,phase_2,stop,450.0,450.0,3.0,,,,,,,,,orange,cross
0.0,8.0,4.0,1.0,6.0,6.0,560.5503799997678,5.0,1.0,phase_2,stop,400.0,450.0,3.0,,,,,,,,,gray,circle
0.0,3.0,2.0,0.0,5.0,5.0,638.927773999967,5.0,1.0,phase_2,go,400.0,400.0,1.0,,,,,,,,,green,triangle
0.0,8.0,4.0,1.0,5.0,0.0,0.0,5.0,1.0,phase_2,stop,400.0,400.0,4.0,,,,,,,,,gray,circle
0.0,6.0,1.0,1.0,6.0,6.0,526.6765409996879,5.0,1.0,phase_2,go,450.0,400.0,1.0,,,,,,,,,orange,cross
0.0,2.0,1.0,0.0,6.0,6.0,322.635610999896,5.0,1.0,phase_2,go,450.0,400.0,1.0,,,,,,,,,yellow,square
0.0,3.0,2.0,0.0,6.0,6.0,437.7668330002962,5.0,1.0,phase_2,go,450.0,400.0,1.0,,,,,,,,,green,triangle
0.0,6.0,1.0,1.0,6.0,6.0,331.3830339998276,5.0,1.0,phase_2,stop,450.0,400.0,3.0,,,,,,,,,orange,cross
0.0,6.0,1.0,1.0,5.0,5.0,442.1736860003875,5.0,1.0,phase_2,stop,450.0,350.0,3.0,,,,,,,,,orange,cross
0.0,8.0,4.0,1.0,6.0,0.0,0.0,5.0,1.0,phase_2,stop,400.0,350.0,4.0,,,,,,,,,gray,circle
0.0,2.0,1.0,0.0,6.0,6.0,489.5665509998252,5.0,1.0,phase_2,go,400.0,400.0,1.0,,,,,,,,,yellow,square
0.0,8.0,4.0,1.0,5.0,5.0,338.3240139996815,5.0,1.0,phase_2,stop,400.0,400.0,3.0,,,,,,,,,gray,circle
0.0,2.0,1.0,0.0,6.0,6.0,518.7935139997535,5.0,1.0,phase_2,go,350.0,400.0,1.0,,,,,,,,,yellow,square
0.0,5.0,0.5,1.0,6.0,6.0,424.2381170001863,5.0,1.0,phase_2,go,350.0,400.0,1.0,,,,,,,,,blue,hexagon
0.0,3.0,2.0,0.0,5.0,5.0,527.3942669996359,5.0,1.0,phase_2,go,350.0,400.0,1.0,,,,,,,,,green,triangle
0.0,4.0,4.0,0.0,5.0,5.0,509.4513349999943,5.0,1.0,phase_2,go,350.0,400.0,1.0,,,,,,,,,cyan,diamond
0.0,7.0,2.0,1.0,6.0,6.0,517.1688880000147,5.0,1.0,phase_2,stop,350.0,400.0,3.0,,,,,,,,,magenta,flipped triangle
0.0,7.0,2.0,1.0,6.0,0.0,0.0,5.0,1.0,phase_2,stop,350.0,350.0,4.0,,,,,,,,,magenta,flipped triangle
0.0,3.0,2.0,0.0,6.0,6.0,684.632049999891,5.0,1.0,phase_2,go,350.0,400.0,1.0,,,,,,,,,green,triangle
0.0,4.0,4.0,0.0,5.0,5.0,424.8774160000721,5.0,1.0,phase_2,go,350.0,400.0,1.0,,,,,,,,,cyan,diamond
0.0,1.0,0.5,0.0,6.0,6.0,554.7035409999808,5.0,1.0,phase_2,go,350.0,400.0,1.0,,,,,,,,,white,I
0.0,5.0,0.5,1.0,6.0,6.0,433.9259240000501,6.0,1.0,phase_2,stop,350.0,400.0,3.0,,,,,,,,,blue,hexagon
0.0,2.0,1.0,0.0,5.0,5.0,452.0604690001164,6.0,1.0,phase_2,go,350.0,350.0,1.0,,,,,,,,,yellow,square
0.0,7.0,2.0,1.0,5.0,5.0,432.913422999718,6.0,1.0,phase_2,go,350.0,350.0,1.0,,,,,,,,,magenta,flipped triangle
0.0,3.0,2.0,0.0,5.0,5.0,281.5898409999136,6.0,1.0,phase_2,go,350.0,350.0,1.0,,,,,,,,,green,triangle
0.0,6.0,1.0,1.0,5.0,5.0,399.4796080000924,6.0,1.0,phase_2,stop,350.0,350.0,3.0,,,,,,,,,orange,cross
0.0,1.0,0.5,0.0,6.0,6.0,348.7965799999983,6.0,1.0,phase_2,go,300.0,350.0,1.0,,,,,,,,,white,I
0.0,1.0,0.5,0.0,5.0,5.0,346.897182000248,6.0,1.0,phase_2,go,300.0,350.0,1.0,,,,,,,,,white,I
0.0,4.0,4.0,0.0,5.0,5.0,281.4643629999409,6.0,1.0,phase_2,go,300.0,350.0,1.0,,,,,,,,,cyan,diamond
0.0,7.0,2.0,1.0,6.0,6.0,309.3756240000402,6.0,1.0,phase_2,stop,300.0,350.0,3.0,,,,,,,,,magenta,flipped triangle
0.0,7.0,2.0,1.0,5.0,5.0,440.6303040000239,6.0,1.0,phase_2,stop,300.0,300.0,3.0,,,,,,,,,magenta,flipped triangle
0.0,5.0,0.5,1.0,6.0,6.0,814.8489840000366,6.0,1.0,phase_2,go,250.0,300.0,1.0,,,,,,,,,blue,hexagon
0.0,1.0,0.5,0.0,5.0,5.0,356.7764809999971,6.0,1.0,phase_2,go,250.0,300.0,1.0,,,,,,,,,white,I
0.0,4.0,4.0,0.0,5.0,5.0,339.496847999726,6.0,1.0,phase_2,go,250.0,300.0,1.0,,,,,,,,,cyan,diamond
0.0,2.0,1.0,0.0,6.0,6.0,488.7883989999864,6.0,1.0,phase_2,go,250.0,300.0,1.0,,,,,,,,,yellow,square
0.0,8.0,4.0,1.0,5.0,5.0,479.4585519998691,6.0,1.0,phase_2,go,250.0,300.0,1.0,,,,,,,,,gray,circle
0.0,1.0,0.5,0.0,5.0,5.0,328.1630750002478,6.0,1.0,phase_2,go,250.0,300.0,1.0,,,,,,,,,white,I
0.0,2.0,1.0,0.0,5.0,5.0,337.5260640000306,6.0,1.0,phase_2,go,250.0,300.0,1.0,,,,,,,,,yellow,square
0.0,1.0,0.5,0.0,5.0,5.0,339.1887619995941,6.0,1.0,phase_2,go,250.0,300.0,1.0,,,,,,,,,white,I
0.0,1.0,0.5,0.0,6.0,6.0,320.0559659999271,6.0,1.0,phase_2,go,250.0,300.0,1.0,,,,,,,,,white,I
0.0,6.0,1.0,1.0,5.0,0.0,0.0,6.0,1.0,phase_2,stop,250.0,300.0,4.0,,,,,,,,,orange,cross
0.0,8.0,4.0,1.0,6.0,0.0,0.0,6.0,1.0,phase_2,stop,300.0,300.0,4.0,,,,,,,,,gray,circle
0.0,5.0,0.5,1.0,6.0,0.0,0.0,6.0,1.0,phase_2,stop,300.0,350.0,4.0,,,,,,,,,blue,hexagon
0.0,5.0,0.5,1.0,5.0,5.0,544.732176999787,6.0,1.0,phase_2,go,300.0,400.0,1.0,,,,,,,,,blue,hexagon
0.0,8.0,4.0,1.0,6.0,6.0,376.7033479998645,6.0,1.0,phase_2,stop,300.0,400.0,3.0,,,,,,,,,gray,circle
0.0,3.0,2.0,0.0,6.0,6.0,526.7587640000784,6.0,1.0,phase_2,go,300.0,350.0,1.0,,,,,,,,,green,triangle
0.0,2.0,1.0,0.0,6.0,6.0,394.9586049998288,6.0,1.0,phase_2,go,300.0,350.0,1.0,,,,,,,,,yellow,square
0.0,6.0,1.0,1.0,5.0,5.0,291.7158329996709,6.0,1.0,phase_2,stop,300.0,350.0,3.0,,,,,,,,,orange,cross
0.0,5.0,0.5,1.0,5.0,5.0,356.6598750003322,6.0,1.0,phase_2,stop,250.0,350.0,3.0,,,,,,,,,blue,hexagon
0.0,4.0,4.0,0.0,5.0,5.0,414.9231789997429,6.0,1.0,phase_2,go,200.0,350.0,1.0,,,,,,,,,cyan,diamond
0.0,4.0,4.0,0.0,6.0,6.0,282.2198670000944,6.0,1.0,phase_2,go,200.0,350.0,1.0,,,,,,,,,cyan,diamond
0.0,8.0,4.0,1.0,6.0,6.0,301.3394679996963,6.0,1.0,phase_2,stop,200.0,350.0,3.0,,,,,,,,,gray,circle
0.0,6.0,1.0,1.0,6.0,6.0,448.5287429997697,6.0,1.0,phase_2,stop,200.0,300.0,3.0,,,,,,,,,orange,cross
0.0,6.0,1.0,1.0,6.0,0.0,0.0,6.0,1.0,phase_2,stop,200.0,250.0,4.0,,,,,,,,,orange,cross
0.0,4.0,4.0,0.0,5.0,5.0,517.9116090002935,6.0,1.0,phase_2,go,200.0,300.0,1.0,,,,,,,,,cyan,diamond
0.0,5.0,0.5,1.0,5.0,5.0,431.3804890002757,6.0,1.0,phase_2,go,200.0,300.0,1.0,,,,,,,,,blue,hexagon
0.0,4.0,4.0,0.0,5.0,5.0,517.1295350000946,6.0,1.0,phase_2,go,200.0,300.0,1.0,,,,,,,,,cyan,diamond
0.0,7.0,2.0,1.0,6.0,0.0,0.0,7.0,1.0,phase_2,stop,200.0,300.0,4.0,,,,,,,,,magenta,flipped triangle
0.0,2.0,1.0,0.0,6.0,6.0,667.3460140000316,7.0,1.0,phase_2,go,200.0,350.0,1.0,,,,,,,,,yellow,square
0.0,8.0,4.0,1.0,5.0,5.0,423.7853829999949,7.0,1.0,phase_2,go,200.0,350.0,1.0,,,,,,,,,gray,circle
0.0,4.0,4.0,0.0,6.0,6.0,546.5140090000205,7.0,1.0,phase_2,go,200.0,350.0,1.0,,,,,,,,,cyan,diamond
0.0,1.0,0.5,0.0,5.0,5.0,474.6898060002422,7.0,1.0,phase_2,go,200.0,350.0,1.0,,,,,,,,,white,I
0.0,4.0,4.0,0.0,6.0,6.0,494.3845010002405,7.0,1.0,phase_2,go,200.0,350.0,1.0,,,,,,,,,cyan,diamond
0.0,2.0,1.0,0.0,5.0,5.0,545.5042339999636,7.0,1.0,phase_2,go,200.0,350.0,1.0,,,,,,,,,yellow,square
0.0,8.0,4.0,1.0,5.0,0.0,0.0,7.0,1.0,phase_2,stop,200.0,350.0,4.0,,,,,,,,,gray,circle
0.0,2.0,1.0,0.0,5.0,5.0,704.8104829996191,7.0,1.0,phase_2,go,250.0,350.0,1.0,,,,,,,,,yellow,square
0.0,5.0,0.5,1.0,5.0,0.0,0.0,7.0,1.0,phase_2,stop,250.0,350.0,4.0,,,,,,,,,blue,hexagon
0.0,7.0,2.0,1.0,5.0,0.0,0.0,7.0,1.0,phase_2,stop,300.0,350.0,4.0,,,,,,,,,magenta,flipped triangle
0.0,3.0,2.0,0.0,6.0,6.0,574.1813769996043,7.0,1.0,phase_2,go,350.0,350.0,1.0,,,,,,,,,green,triangle
0.0,7.0,2.0,1.0,5.0,0.0,0.0,7.0,1.0,phase_2,stop,350.0,350.0,4.0,,,,,,,,,magenta,flipped triangle
0.0,6.0,1.0,1.0,5.0,0.0,0.0,7.0,1.0,phase_2,stop,400.0,350.0,4.0,,,,,,,,,orange,cross
0.0,2.0,1.0,0.0,6.0,6.0,452.1326359999875,7.0,1.0,phase_2,go,450.0,350.0,1.0,,,,,,,,,yellow,square
0.0,7.0,2.0,1.0,6.0,6.0,411.8780469998455,7.0,1.0,phase_2,stop,450.0,350.0,3.0,,,,,,,,,magenta,flipped triangle
0.0,6.0,1.0,1.0,5.0,5.0,507.74962100013,7.0,1.0,phase_2,go,450.0,300.0,1.0,,,,,,,,,orange,cross
0.0,1.0,0.5,0.0,5.0,5.0,574.2642889999843,7.0,1.0,phase_2,go,450.0,300.0,1.0,,,,,,,,,white,I
0.0,5.0,0.5,1.0,5.0,0.0,0.0,7.0,1.0,phase_2,stop,450.0,300.0,4.0,,,,,,,,,blue,hexagon
0.0,7.0,2.0,1.0,5.0,5.0,609.3280039999627,7.0,1.0,phase_2,stop,500.0,300.0,3.0,,,,,,,,,magenta,flipped triangle
0.0,1.0,0.5,0.0,6.0,6.0,789.1869520003638,7.0,1.0,phase_2,go,450.0,300.0,1.0,,,,,,,,,white,I
0.0,8.0,4.0,1.0,6.0,6.0,422.826114000145,7.0,1.0,phase_2,stop,450.0,300.0,3.0,,,,,,,,,gray,circle
0.0,8.0,4.0,1.0,5.0,0.0,0.0,7.0,1.0,phase_2,stop,450.0,250.0,4.0,,,,,,,,,gray,circle
0.0,1.0,0.5,0.0,5.0,5.0,574.5541579999554,7.0,1.0,phase_2,go,500.0,250.0,1.0,,,,,,,,,white,I
0.0,8.0,4.0,1.0,6.0,0.0,0.0,7.0,1.0,phase_2,stop,500.0,250.0,4.0,,,,,,,,,gray,circle
0.0,8.0,4.0,1.0,6.0,0.0,0.0,7.0,1.0,phase_2,stop,500.0,300.0,4.0,,,,,,,,,gray,circle
0.0,4.0,4.0,0.0,6.0,6.0,572.1640259998821,7.0,1.0,phase_2,go,500.0,350.0,1.0,,,,,,,,,cyan,diamond
0.0,1.0,0.5,0.0,5.0,5.0,529.501350999908,7.0,1.0,phase_2,go,500.0,350.0,1.0,,,,,,,,,white,I
0.0,7.0,2.0,1.0,6.0,6.0,498.6024920003729,7.0,1.0,phase_2,go,500.0,350.0,1.0,,,,,,,,,magenta,flipped triangle
0.0,3.0,2.0,0.0,6.0,6.0,403.6345089998576,7.0,1.0,phase_2,go,500.0,350.0,1.0,,,,,,,,,green,triangle
0.0,5.0,0.5,1.0,6.0,0.0,0.0,7.0,1.0,phase_2,stop,500.0,350.0,4.0,,,,,,,,,blue,hexagon
0.0,4.0,4.0,0.0,6.0,6.0,552.1479500002897,7.0,1.0,phase_2,go,500.0,400.0,1.0,,,,,,,,,cyan,diamond
0.0,3.0,2.0,0.0,5.0,5.0,624.6882489999734,7.0,1.0,phase_2,go,500.0,400.0,1.0,,,,,,,,,green,triangle
0.0,6.0,1.0,1.0,6.0,6.0,443.7100189998091,7.0,1.0,phase_2,stop,500.0,400.0,3.0,,,,,,,,,orange,cross
0.0,1.0,0.5,0.0,6.0,6.0,523.0653930002518,7.0,1.0,phase_2,go,500.0,350.0,1.0,,,,,,,,,white,I
0.0,1.0,0.5,0.0,6.0,6.0,582.0902499999647,7.0,1.0,phase_2,go,500.0,350.0,1.0,,,,,,,,,white,I
0.0,8.0,4.0,1.0,6.0,0.0,0.0,8.0,1.0,phase_2,stop,500.0,350.0,4.0,,,,,,,,,gray,circle
0.0,7.0,2.0,1.0,6.0,0.0,0.0,8.0,1.0,phase_2,stop,500.0,400.0,4.0,,,,,,,,,magenta,flipped triangle
0.0,1.0,0.5,0.0,5.0,5.0,519.315387000006,8.0,1.0,phase_2,go,500.0,450.0,1.0,,,,,,,,,white,I
0.0,6.0,1.0,1.0,6.0,6.0,605.8001590004096,8.0,1.0,phase_2,stop,500.0,450.0,3.0,,,,,,,,,orange,cross
0.0,8.0,4.0,1.0,5.0,5.0,670.8207790002234,8.0,1.0,phase_2,stop,500.0,400.0,3.0,,,,,,,,,gray,circle
0.0,3.0,2.0,0.0,6.0,6.0,678.354605000095,8.0,1.0,phase_2,go,450.0,400.0,1.0,,,,,,,,,green,triangle
0.0,7.0,2.0,1.0,5.0,0.0,0.0,8.0,1.0,phase_2,stop,450.0,400.0,4.0,,,,,,,,,magenta,flipped triangle
0.0,5.0,0.5,1.0,6.0,6.0,581.7148629998883,8.0,1.0,phase_2,stop,500.0,400.0,3.0,,,,,,,,,blue,hexagon
0.0,8.0,4.0,1.0,5.0,5.0,737.6543610002955,8.0,1.0,phase_2,go,500.0,350.0,1.0,,,,,,,,,gray,circle
0.0,3.0,2.0,0.0,5.0,5.0,626.7833619999692,8.0,1.0,phase_2,go,500.0,350.0,1.0,,,,,,,,,green,triangle
0.0,3.0,2.0,0.0,6.0,6.0,611.097671999687,8.0,1.0,phase_2,go,500.0,350.0,1.0,,,,,,,,,green,triangle
0.0,1.0,0.5,0.0,6.0,6.0,677.4978049998026,8.0,1.0,phase_2,go,500.0,350.0,1.0,,,,,,,,,white,I
0.0,5.0,0.5,1.0,5.0,0.0,0.0,8.0,1.0,phase_2,stop,500.0,350.0,4.0,,,,,,,,,blue,hexagon
0.0,1.0,0.5,0.0,5.0,5.0,602.7076440000201,8.0,1.0,phase_2,go,550.0,350.0,1.0,,,,,,,,,white,I
0.0,8.0,4.0,1.0,5.0,5.0,660.5408390000775,8.0,1.0,phase_2,stop,550.0,350.0,3.0,,,,,,,,,gray,circle
0.0,4.0,4.0,0.0,5.0,5.0,919.4341010002064,8.0,1.0,phase_2,go,500.0,350.0,1.0,,,,,,,,,cyan,diamond
0.0,7.0,2.0,1.0,5.0,5.0,684.0628689997175,8.0,1.0,phase_2,stop,500.0,350.0,3.0,,,,,,,,,magenta,flipped triangle
0.0,8.0,4.0,1.0,5.0,0.0,0.0,8.0,1.0,phase_2,stop,450.0,350.0,4.0,,,,,,,,,gray,circle
0.0,5.0,0.5,1.0,5.0,0.0,0.0,8.0,1.0,phase_2,stop,500.0,350.0,4.0,,,,,,,,,blue,hexagon
0.0,4.0,4.0,0.0,6.0,6.0,619.6741789999578,8.0,1.0,phase_2,go,550.0,350.0,1.0,,,,,,,,,cyan,diamond
0.0,1.0,0.5,0.0,6.0,6.0,554.7503990001132,8.0,1.0,phase_2,go,550.0,350.0,1.0,,,,,,,,,white,I
0.0,7.0,2.0,1.0,6.0,6.0,573.7724030000209,8.0,1.0,phase_2,go,550.0,350.0,1.0,,,,,,,,,magenta,flipped triangle
0.0,4.0,4.0,0.0,6.0,6.0,592.5650250001127,8.0,1.0,phase_2,go,550.0,350.0,1.0,,,,,,,,,cyan,diamond
0.0,5.0,0.5,1.0,5.0,5.0,626.7924829999174,8.0,1.0,phase_2,stop,550.0,350.0,3.0,,,,,,,,,blue,hexagon
0.0,1.0,0.5,0.0,5.0,5.0,640.0040059997991,8.0,1.0,phase_2,go,500.0,350.0,1.0,,,,,,,,,white,I
0.0,7.0,2.0,1.0,5.0,5.0,507.67914300013217,8.0,1.0,phase_2,go,500.0,350.0,1.0,,,,,,,,,magenta,flipped triangle
0.0,1.0,0.5,0.0,6.0,6.0,562.8355270000611,8.0,1.0,phase_2,go,500.0,350.0,1.0,,,,,,,,,white,I
0.0,2.0,1.0,0.0,5.0,5.0,760.5261060002704,8.0,1.0,phase_2,go,500.0,350.0,1.0,,,,,,,,,yellow,square
0.0,4.0,4.0,0.0,6.0,6.0,647.6902439999321,8.0,1.0,phase_2,go,500.0,350.0,1.0,,,,,,,,,cyan,diamond
0.0,4.0,4.0,0.0,6.0,6.0,487.5842739998006,8.0,1.0,phase_2,go,500.0,350.0,1.0,,,,,,,,,cyan,diamond
0.0,8.0,4.0,1.0,6.0,0.0,0.0,8.0,1.0,phase_2,stop,500.0,350.0,4.0,,,,,,,,,gray,circle
0.0,2.0,1.0,0.0,5.0,5.0,555.4877630002011,8.0,1.0,phase_2,go,500.0,400.0,1.0,,,,,,,,,yellow,square
0.0,2.0,1.0,0.0,5.0,5.0,629.349449000074,8.0,1.0,phase_2,go,500.0,400.0,1.0,,,,,,,,,yellow,square
0.0,5.0,0.5,1.0,6.0,6.0,492.9034639999372,8.0,1.0,phase_2,stop,500.0,400.0,3.0,,,,,,,,,blue,hexagon
0.0,8.0,4.0,1.0,6.0,0.0,0.0,8.0,1.0,phase_2,stop,500.0,350.0,4.0,,,,,,,,,gray,circle
0.0,7.0,2.0,1.0,6.0,6.0,611.8278899998586,8.0,1.0,phase_2,go,500.0,400.0,1.0,,,,,,,,,magenta,flipped triangle
0.0,5.0,0.5,1.0,7.0,4.0,2433.482630999606,1.0,1.0,phase_3,,,,,1038.0,6.0,346.0,692.0,173.0,1038.0,519.0,865.0,blue,hexagon
0.0,4.0,4.0,0.0,7.0,2.0,1538.811144000192,1.0,1.0,phase_3,,,,,580.0,5.0,464.0,580.0,696.0,348.0,232.0,116.0,cyan,diamond
0.0,2.0,1.0,0.0,7.0,1.0,2126.92375000006,1.0,1.0,phase_3,,,,,616.0,4.0,616.0,770.0,154.0,308.0,924.0,462.0,yellow,square
0.0,2.0,1.0,0.0,7.0,1.0,569.001266000214,1.0,1.0,phase_3,,,,,675.0,5.0,675.0,270.0,135.0,540.0,810.0,405.0,yellow,square
0.0,3.0,2.0,0.0,7.0,1.0,944.4400830002452,1.0,1.0,phase_3,,,,,580.0,5.0,580.0,464.0,116.0,348.0,232.0,696.0,green,triangle
0.0,1.0,0.5,0.0,7.0,6.0,1082.4123140000663,1.0,1.0,phase_3,,,,,616.0,4.0,924.0,154.0,770.0,308.0,462.0,616.0,white,I
0.0,6.0,1.0,1.0,7.0,6.0,1190.3581229998963,1.0,1.0,phase_3,,,,,116.0,1.0,232.0,696.0,464.0,580.0,348.0,116.0,orange,cross
0.0,6.0,1.0,1.0,7.0,2.0,3052.5721829999384,1.0,1.0,phase_3,,,,,810.0,6.0,135.0,810.0,540.0,675.0,270.0,405.0,orange,cross
0.0,7.0,2.0,1.0,7.0,2.0,2311.718386999928,1.0,1.0,phase_3,,,,,116.0,1.0,232.0,116.0,580.0,696.0,464.0,348.0,magenta,flipped triangle
0.0,1.0,0.5,0.0,7.0,3.0,2604.78069599958,1.0,1.0,phase_3,,,,,770.0,5.0,308.0,924.0,770.0,154.0,462.0,616.0,white,I
0.0,7.0,2.0,1.0,7.0,2.0,1475.1677740005107,1.0,1.0,phase_3,,,,,154.0,1.0,616.0,154.0,924.0,462.0,770.0,308.0,magenta,flipped triangle
0.0,7.0,2.0,1.0,7.0,6.0,2358.466956000484,1.0,1.0,phase_3,,,,,154.0,1.0,462.0,924.0,308.0,616.0,770.0,154.0,magenta,flipped triangle
0.0,5.0,0.5,1.0,7.0,1.0,3564.467467000213,1.0,1.0,phase_3,,,,,576.0,3.0,576.0,1152.0,768.0,384.0,960.0,192.0,blue,hexagon
0.0,7.0,2.0,1.0,7.0,3.0,1795.854519000386,1.0,1.0,phase_3,,,,,135.0,1.0,270.0,540.0,135.0,405.0,810.0,675.0,magenta,flipped triangle
0.0,3.0,2.0,0.0,7.0,1.0,1829.426589000832,1.0,1.0,phase_3,,,,,135.0,1.0,135.0,540.0,810.0,405.0,270.0,675.0,green,triangle
0.0,8.0,4.0,1.0,7.0,5.0,2504.78621000002,1.0,1.0,phase_3,,,,,232.0,2.0,696.0,464.0,580.0,348.0,232.0,116.0,gray,circle
0.0,7.0,2.0,1.0,7.0,6.0,1415.589022999484,1.0,1.0,phase_3,,,,,116.0,1.0,232.0,348.0,464.0,580.0,696.0,116.0,magenta,flipped triangle
0.0,6.0,1.0,1.0,7.0,3.0,1333.9185659997383,1.0,1.0,phase_3,,,,,1152.0,6.0,576.0,768.0,1152.0,192.0,960.0,384.0,orange,cross
0.0,7.0,2.0,1.0,7.0,1.0,1729.8740979995273,1.0,1.0,phase_3,,,,,173.0,1.0,173.0,692.0,1038.0,346.0,519.0,865.0,magenta,flipped triangle
0.0,4.0,4.0,0.0,7.0,3.0,3189.57996699919,1.0,1.0,phase_3,,,,,270.0,2.0,675.0,135.0,270.0,405.0,540.0,810.0,cyan,diamond
0.0,7.0,2.0,1.0,7.0,1.0,1060.8562880006502,2.0,1.0,phase_3,,,,,192.0,1.0,192.0,1152.0,384.0,576.0,960.0,768.0,magenta,flipped triangle
0.0,3.0,2.0,0.0,7.0,3.0,1290.8953919995838,2.0,1.0,phase_3,,,,,173.0,1.0,519.0,346.0,173.0,865.0,1038.0,692.0,green,triangle
0.0,4.0,4.0,0.0,7.0,1.0,1603.434573999948,2.0,1.0,phase_3,,,,,232.0,2.0,232.0,348.0,580.0,116.0,696.0,464.0,cyan,diamond
0.0,3.0,2.0,0.0,7.0,2.0,1164.2964209995623,2.0,1.0,phase_3,,,,,173.0,1.0,1038.0,173.0,865.0,346.0,692.0,519.0,green,triangle
0.0,1.0,0.5,0.0,7.0,3.0,2543.048657000327,2.0,1.0,phase_3,,,,,865.0,5.0,173.0,519.0,865.0,346.0,692.0,1038.0,white,I
0.0,1.0,0.5,0.0,7.0,2.0,2126.697919000435,2.0,1.0,phase_3,,,,,810.0,6.0,405.0,810.0,540.0,135.0,675.0,270.0,white,I
0.0,2.0,1.0,0.0,7.0,6.0,2159.858011000324,2.0,1.0,phase_3,,,,,384.0,2.0,192.0,960.0,768.0,576.0,1152.0,384.0,yellow,square
0.0,2.0,1.0,0.0,7.0,3.0,1408.0454780005311,2.0,1.0,phase_3,,,,,308.0,2.0,154.0,924.0,308.0,616.0,770.0,462.0,yellow,square
0.0,6.0,1.0,1.0,7.0,5.0,2522.535123000125,2.0,1.0,phase_3,,,,,696.0,6.0,348.0,116.0,464.0,232.0,696.0,580.0,orange,cross
0.0,1.0,0.5,0.0,7.0,1.0,2075.328511999942,2.0,1.0,phase_3,,,,,1152.0,6.0,1152.0,384.0,192.0,576.0,960.0,768.0,white,I
0.0,3.0,2.0,0.0,7.0,5.0,2143.943054999909,2.0,1.0,phase_3,,,,,696.0,6.0,580.0,232.0,348.0,116.0,696.0,464.0,green,triangle
0.0,1.0,0.5,0.0,7.0,6.0,1415.6999180004275,2.0,1.0,phase_3,,,,,1038.0,6.0,865.0,519.0,173.0,346.0,692.0,1038.0,white,I
0.0,2.0,1.0,0.0,7.0,4.0,2097.981668000102,2.0,1.0,phase_3,,,,,346.0,2.0,865.0,519.0,1038.0,346.0,692.0,173.0,yellow,square
0.0,1.0,0.5,0.0,7.0,5.0,1740.5167269998856,2.0,1.0,phase_3,,,,,1152.0,6.0,576.0,960.0,384.0,192.0,1152.0,768.0,white,I
0.0,8.0,4.0,1.0,7.0,3.0,1695.158712999728,2.0,1.0,phase_3,,,,,346.0,2.0,1038.0,865.0,346.0,692.0,519.0,173.0,gray,circle
0.0,2.0,1.0,0.0,7.0,5.0,1969.460165999408,2.0,1.0,phase_3,,,,,384.0,2.0,960.0,192.0,1152.0,576.0,384.0,768.0,yellow,square
0.0,8.0,4.0,1.0,7.0,5.0,1246.405262000735,2.0,1.0,phase_3,,,,,384.0,2.0,1152.0,192.0,960.0,768.0,384.0,576.0,gray,circle
0.0,8.0,4.0,1.0,7.0,2.0,2095.060308000029,2.0,1.0,phase_3,,,,,308.0,2.0,616.0,308.0,154.0,924.0,770.0,462.0,gray,circle
0.0,6.0,1.0,1.0,7.0,1.0,1239.1912399998546,2.0,1.0,phase_3,,,,,1152.0,6.0,1152.0,384.0,960.0,768.0,192.0,576.0,orange,cross
0.0,2.0,1.0,0.0,7.0,5.0,2256.7515359996837,2.0,1.0,phase_3,,,,,346.0,2.0,519.0,692.0,1038.0,865.0,346.0,173.0,yellow,square
0.0,5.0,0.5,1.0,7.0,6.0,1983.7922799997611,3.0,1.0,phase_3,,,,,696.0,6.0,348.0,464.0,116.0,232.0,580.0,696.0,blue,hexagon
0.0,1.0,0.5,0.0,7.0,4.0,1772.9145670000437,3.0,1.0,phase_3,,,,,810.0,6.0,675.0,405.0,540.0,810.0,135.0,270.0,white,I
0.0,5.0,0.5,1.0,7.0,5.0,1112.6643150000746,3.0,1.0,phase_3,,,,,616.0,4.0,154.0,462.0,770.0,924.0,616.0,308.0,blue,hexagon
0.0,3.0,2.0,0.0,7.0,5.0,1733.8185909993626,3.0,1.0,phase_3,,,,,135.0,1.0,270.0,675.0,540.0,810.0,135.0,405.0,green,triangle
0.0,7.0,2.0,1.0,7.0,6.0,2777.2873620006067,3.0,1.0,phase_3,,,,,192.0,1.0,960.0,384.0,768.0,576.0,1152.0,192.0,magenta,flipped triangle
0.0,6.0,1.0,1.0,7.0,1.0,1855.511048000153,3.0,1.0,phase_3,,,,,810.0,6.0,810.0,135.0,540.0,270.0,675.0,405.0,orange,cross
0.0,3.0,2.0,0.0,7.0,2.0,2590.8198139995875,3.0,1.0,phase_3,,,,,154.0,1.0,924.0,154.0,462.0,770.0,308.0,616.0,green,triangle
0.0,4.0,4.0,0.0,7.0,3.0,1943.126981000205,3.0,1.0,phase_3,,,,,384.0,2.0,576.0,960.0,384.0,1152.0,768.0,192.0,cyan,diamond
0.0,7.0,2.0,1.0,7.0,5.0,1575.809687000401,3.0,1.0,phase_3,,,,,173.0,1.0,865.0,692.0,1038.0,346.0,173.0,519.0,magenta,flipped triangle
0.0,7.0,2.0,1.0,7.0,3.0,1462.9403919998367,3.0,1.0,phase_3,,,,,135.0,1.0,675.0,405.0,135.0,270.0,540.0,810.0,magenta,flipped triangle
0.0,3.0,2.0,0.0,7.0,6.0,896.5291750000688,3.0,1.0,phase_3,,,,,154.0,1.0,770.0,924.0,308.0,616.0,462.0,154.0,green,triangle
0.0,4.0,4.0,0.0,7.0,5.0,1054.891542000405,3.0,1.0,phase_3,,,,,384.0,2.0,576.0,960.0,192.0,768.0,384.0,1152.0,cyan,diamond
0.0,4.0,4.0,0.0,7.0,3.0,2764.887789999193,3.0,1.0,phase_3,,,,,405.0,3.0,810.0,675.0,405.0,270.0,540.0,135.0,cyan,diamond
0.0,6.0,1.0,1.0,7.0,6.0,2338.2604320004248,3.0,1.0,phase_3,,,,,1038.0,6.0,865.0,692.0,346.0,173.0,519.0,1038.0,orange,cross
0.0,8.0,4.0,1.0,7.0,3.0,2227.385653000056,3.0,1.0,phase_3,,,,,346.0,2.0,865.0,519.0,346.0,173.0,692.0,1038.0,gray,circle
0.0,8.0,4.0,1.0,7.0,1.0,2696.509694000269,3.0,1.0,phase_3,,,,,405.0,3.0,405.0,135.0,675.0,810.0,540.0,270.0,gray,circle
0.0,6.0,1.0,1.0,7.0,1.0,2224.8596230001567,3.0,1.0,phase_3,,,,,924.0,6.0,924.0,308.0,770.0,462.0,616.0,154.0,orange,cross
0.0,4.0,4.0,0.0,7.0,5.0,1722.1455910002987,3.0,1.0,phase_3,,,,,462.0,3.0,154.0,770.0,308.0,616.0,462.0,924.0,cyan,diamond
0.0,4.0,4.0,0.0,7.0,4.0,1370.4609159995016,3.0,1.0,phase_3,,,,,462.0,3.0,308.0,770.0,616.0,462.0,154.0,924.0,cyan,diamond
0.0,5.0,0.5,1.0,7.0,1.0,2911.0139510003137,3.0,1.0,phase_3,,,,,810.0,6.0,810.0,540.0,405.0,675.0,270.0,135.0,blue,hexagon
0.0,8.0,4.0,1.0,7.0,4.0,1269.2628510003487,4.0,1.0,phase_3,,,,,384.0,2.0,960.0,192.0,768.0,384.0,1152.0,576.0,gray,circle
0.0,3.0,2.0,0.0,7.0,6.0,1129.6795059997748,4.0,1.0,phase_3,,,,,192.0,1.0,576.0,960.0,1152.0,384.0,768.0,192.0,green,triangle
0.0,6.0,1.0,1.0,7.0,3.0,1890.3475350007284,4.0,1.0,phase_3,,,,,1038.0,6.0,519.0,865.0,1038.0,173.0,346.0,692.0,orange,cross
0.0,8.0,4.0,1.0,7.0,2.0,2002.490635999493,4.0,1.0,phase_3,,,,,405.0,3.0,675.0,405.0,540.0,135.0,810.0,270.0,gray,circle
0.0,2.0,1.0,0.0,7.0,4.0,2020.3957400008221,4.0,1.0,phase_3,,,,,464.0,4.0,348.0,696.0,116.0,464.0,580.0,232.0,yellow,square
0.0,8.0,4.0,1.0,7.0,4.0,1228.066456000306,4.0,1.0,phase_3,,,,,308.0,2.0,462.0,770.0,924.0,308.0,616.0,154.0,gray,circle
0.0,2.0,1.0,0.0,7.0,4.0,1370.049750000362,4.0,1.0,phase_3,,,,,464.0,4.0,232.0,580.0,348.0,464.0,116.0,696.0,yellow,square
0.0,3.0,2.0,0.0,7.0,1.0,2143.545509999967,4.0,1.0,phase_3,,,,,192.0,1.0,192.0,960.0,1152.0,576.0,768.0,384.0,green,triangle
0.0,1.0,0.5,0.0,7.0,4.0,2866.176532999816,4.0,1.0,phase_3,,,,,348.0,3.0,116.0,464.0,580.0,348.0,696.0,232.0,white,I
0.0,2.0,1.0,0.0,7.0,4.0,2361.183711999729,4.0,1.0,phase_3,,,,,405.0,3.0,135.0,270.0,540.0,405.0,810.0,675.0,yellow,square
0.0,5.0,0.5,1.0,7.0,6.0,2420.537164000052,4.0,1.0,phase_3,,,,,696.0,6.0,116.0,580.0,348.0,232.0,464.0,696.0,blue,hexagon
0.0,8.0,4.0,1.0,7.0,4.0,2509.1266930003258,4.0,1.0,phase_3,,,,,464.0,4.0,116.0,696.0,232.0,464.0,580.0,348.0,gray,circle
0.0,4.0,4.0,0.0,7.0,5.0,3135.681963000025,4.0,1.0,phase_3,,,,,346.0,2.0,692.0,865.0,173.0,519.0,346.0,1038.0,cyan,diamond
0.0,4.0,4.0,0.0,7.0,4.0,2794.17041600027,4.0,1.0,phase_3,,,,,346.0,2.0,173.0,1038.0,692.0,346.0,865.0,519.0,cyan,diamond
0.0,5.0,0.5,1.0,7.0,2.0,2744.288996999785,4.0,1.0,phase_3,,,,,675.0,5.0,270.0,675.0,810.0,405.0,540.0,135.0,blue,hexagon
0.0,6.0,1.0,1.0,7.0,4.0,2404.2232020001397,4.0,1.0,phase_3,,,,,924.0,6.0,154.0,462.0,616.0,924.0,770.0,308.0,orange,cross
0.0,5.0,0.5,1.0,7.0,5.0,3167.2100149999096,4.0,1.0,phase_3,,,,,960.0,5.0,192.0,768.0,1152.0,384.0,960.0,576.0,blue,hexagon
0.0,5.0,0.5,1.0,7.0,6.0,2951.77991699984,4.0,1.0,phase_3,,,,,865.0,5.0,519.0,173.0,1038.0,346.0,692.0,865.0,blue,hexagon
0.0,1.0,0.5,0.0,7.0,5.0,2786.1131339996064,4.0,1.0,phase_3,,,,,696.0,6.0,580.0,464.0,232.0,348.0,696.0,116.0,white,I
0.0,5.0,0.5,1.0,7.0,1.0,2813.379500999872,4.0,1.0,phase_3,,,,,616.0,4.0,616.0,924.0,462.0,154.0,308.0,770.0,blue,hexagon
