raw_reward_magnitude,stim_reward,stepwise_reward_magnitude,paired_with_stopping,stim_location,response,reaction_time,block,num_trial_presentations,which_phase,stop_signal_trial_type,left_SSD,right_SSD,accuracy,chosen_bidding_amount,chosen_bidding_level,possible_bid_1,possible_bid_2,possible_bid_3,possible_bid_4,possible_bid_5,possible_bid_6,color_text,shape_text
1323.0,8.0,4.0,1.0,3.0,3.0,454.5137850000174,1.0,1.0,phase_1,,,,,,,,,,,,,green,flipped triangle
658.0,7.0,3.0,1.0,4.0,4.0,522.3958639999182,1.0,1.0,phase_1,,,,,,,,,,,,,white,I
653.0,3.0,3.0,0.0,4.0,4.0,421.6041740000946,1.0,1.0,phase_1,,,,,,,,,,,,,yellow,circle
1302.0,8.0,4.0,1.0,4.0,4.0,353.6275240003306,1.0,2.0,phase_1,,,,,,,,,,,,,green,flipped triangle
644.0,7.0,3.0,1.0,3.0,3.0,353.9404610000929,1.0,1.0,phase_1,,,,,,,,,,,,,white,I
1287.0,4.0,4.0,0.0,3.0,3.0,318.6260270003913,1.0,1.0,phase_1,,,,,,,,,,,,,cyan,square
628.0,7.0,3.0,1.0,1.0,1.0,474.6109429997887,1.0,2.0,phase_1,,,,,,,,,,,,,white,I
632.0,7.0,3.0,1.0,1.0,1.0,418.526047999876,1.0,1.0,phase_1,,,,,,,,,,,,,white,I
0.0,6.0,0.0,1.0,3.0,3.0,344.8886670003048,1.0,1.0,phase_1,,,,,,,,,,,,,blue,hexagon
1314.0,4.0,4.0,0.0,2.0,2.0,327.1101229993292,1.0,1.0,phase_1,,,,,,,,,,,,,cyan,square
1287.0,8.0,4.0,1.0,4.0,4.0,355.4500929994901,1.0,1.0,phase_1,,,,,,,,,,,,,green,flipped triangle
0.0,3.0,0.0,0.0,3.0,3.0,334.3104670002503,1.0,1.0,phase_1,,,,,,,,,,,,,yellow,circle
338.0,2.0,2.0,0.0,2.0,2.0,413.1533050003781,1.0,1.0,phase_1,,,,,,,,,,,,,magenta,cross
0.0,8.0,0.0,1.0,3.0,3.0,330.9163520007132,1.0,1.0,phase_1,,,,,,,,,,,,,green,flipped triangle
177.0,1.0,1.0,0.0,1.0,1.0,369.867043999875,1.0,1.0,phase_1,,,,,,,,,,,,,orange,diamond
148.0,5.0,1.0,1.0,2.0,2.0,418.3052449998286,1.0,2.0,phase_1,,,,,,,,,,,,,gray,triangle
0.0,6.0,0.0,1.0,4.0,4.0,361.8655840000429,1.0,1.0,phase_1,,,,,,,,,,,,,blue,hexagon
162.0,5.0,1.0,1.0,3.0,3.0,381.6624660003072,1.0,1.0,phase_1,,,,,,,,,,,,,gray,triangle
315.0,6.0,2.0,1.0,4.0,4.0,408.5493829998086,1.0,1.0,phase_1,,,,,,,,,,,,,blue,hexagon
318.0,2.0,2.0,0.0,2.0,2.0,436.1467899998388,1.0,1.0,phase_1,,,,,,,,,,,,,magenta,cross
0.0,5.0,0.0,1.0,2.0,2.0,352.2940060001929,1.0,1.0,phase_1,,,,,,,,,,,,,gray,triangle
185.0,5.0,1.0,1.0,1.0,1.0,333.868975999394,1.0,1.0,phase_1,,,,,,,,,,,,,gray,triangle
0.0,1.0,0.0,0.0,3.0,3.0,361.1302789995534,1.0,1.0,phase_1,,,,,,,,,,,,,orange,diamond
0.0,8.0,0.0,1.0,4.0,4.0,371.5672939997603,1.0,1.0,phase_1,,,,,,,,,,,,,green,flipped triangle
322.0,2.0,2.0,0.0,4.0,4.0,363.0170739997993,1.0,1.0,phase_1,,,,,,,,,,,,,magenta,cross
1290.0,8.0,4.0,1.0,1.0,1.0,399.9956029992972,1.0,1.0,phase_1,,,,,,,,,,,,,green,flipped triangle
176.0,5.0,1.0,1.0,3.0,3.0,408.7389400001484,1.0,1.0,phase_1,,,,,,,,,,,,,gray,triangle
333.0,2.0,2.0,0.0,4.0,4.0,334.642905999317,1.0,1.0,phase_1,,,,,,,,,,,,,magenta,cross
1315.0,8.0,4.0,1.0,2.0,2.0,287.5614910008153,1.0,1.0,phase_1,,,,,,,,,,,,,green,flipped triangle
177.0,5.0,1.0,1.0,2.0,2.0,344.2594420002933,1.0,1.0,phase_1,,,,,,,,,,,,,gray,triangle
653.0,7.0,3.0,1.0,4.0,4.0,446.7092719996799,1.0,1.0,phase_1,,,,,,,,,,,,,white,I
158.0,1.0,1.0,0.0,1.0,1.0,481.7397169999822,1.0,1.0,phase_1,,,,,,,,,,,,,orange,diamond
1323.0,8.0,4.0,1.0,1.0,1.0,371.457430999726,1.0,1.0,phase_1,,,,,,,,,,,,,green,flipped triangle
0.0,2.0,0.0,0.0,2.0,2.0,362.292119999438,1.0,1.0,phase_1,,,,,,,,,,,,,magenta,cross
1323.0,4.0,4.0,0.0,3.0,3.0,343.9500380000027,1.0,1.0,phase_1,,,,,,,,,,,,,cyan,square
328.0,6.0,2.0,1.0,2.0,2.0,362.6726799993776,1.0,1.0,phase_1,,,,,,,,,,,,,blue,hexagon
154.0,1.0,1.0,0.0,4.0,4.0,409.0947149998101,1.0,1.0,phase_1,,,,,,,,,,,,,orange,diamond
137.0,1.0,1.0,0.0,4.0,4.0,437.3069060002308,1.0,1.0,phase_1,,,,,,,,,,,,,orange,diamond
307.0,2.0,2.0,0.0,4.0,4.0,352.357966999989,1.0,1.0,phase_1,,,,,,,,,,,,,magenta,cross
0.0,6.0,0.0,1.0,2.0,2.0,508.654745000058,1.0,1.0,phase_1,,,,,,,,,,,,,blue,hexagon
0.0,1.0,0.0,0.0,3.0,3.0,306.0700840005665,1.0,1.0,phase_1,,,,,,,,,,,,,orange,diamond
160.0,1.0,1.0,0.0,1.0,1.0,444.5204749999902,1.0,1.0,phase_1,,,,,,,,,,,,,orange,diamond
344.0,6.0,2.0,1.0,4.0,4.0,409.5069720005995,1.0,1.0,phase_1,,,,,,,,,,,,,blue,hexagon
1299.0,8.0,4.0,1.0,1.0,1.0,324.8461309995036,1.0,1.0,phase_1,,,,,,,,,,,,,green,flipped triangle
338.0,6.0,2.0,1.0,1.0,1.0,371.6821220004931,1.0,1.0,phase_1,,,,,,,,,,,,,blue,hexagon
0.0,4.0,0.0,0.0,2.0,2.0,297.27270100011077,1.0,1.0,phase_1,,,,,,,,,,,,,cyan,square
343.0,6.0,2.0,1.0,2.0,2.0,315.5657560000691,1.0,1.0,phase_1,,,,,,,,,,,,,blue,hexagon
0.0,2.0,0.0,0.0,3.0,3.0,363.5598370001389,1.0,1.0,phase_1,,,,,,,,,,,,,magenta,cross
0.0,7.0,0.0,1.0,2.0,2.0,390.6543980001515,1.0,1.0,phase_1,,,,,,,,,,,,,white,I
348.0,6.0,2.0,1.0,3.0,3.0,408.0677539996031,1.0,1.0,phase_1,,,,,,,,,,,,,blue,hexagon
1302.0,8.0,4.0,1.0,3.0,3.0,325.6515820003187,1.0,1.0,phase_1,,,,,,,,,,,,,green,flipped triangle
0.0,2.0,0.0,0.0,1.0,1.0,408.4562029993321,1.0,1.0,phase_1,,,,,,,,,,,,,magenta,cross
146.0,5.0,1.0,1.0,3.0,3.0,380.8646299994507,1.0,1.0,phase_1,,,,,,,,,,,,,gray,triangle
340.0,6.0,2.0,1.0,4.0,4.0,408.9207910001278,1.0,1.0,phase_1,,,,,,,,,,,,,blue,hexagon
161.0,1.0,1.0,0.0,2.0,2.0,316.2105259998498,1.0,1.0,phase_1,,,,,,,,,,,,,orange,diamond
635.0,3.0,3.0,0.0,4.0,4.0,585.3199769999264,1.0,1.0,phase_1,,,,,,,,,,,,,yellow,circle
628.0,3.0,3.0,0.0,2.0,2.0,725.1826230003644,1.0,1.0,phase_1,,,,,,,,,,,,,yellow,circle
171.0,1.0,1.0,0.0,3.0,3.0,380.2256560002206,1.0,1.0,phase_1,,,,,,,,,,,,,orange,diamond
1311.0,8.0,4.0,1.0,2.0,2.0,326.0347119994549,1.0,1.0,phase_1,,,,,,,,,,,,,green,flipped triangle
329.0,6.0,2.0,1.0,3.0,3.0,344.2894729996624,1.0,1.0,phase_1,,,,,,,,,,,,,blue,hexagon
671.0,3.0,3.0,0.0,1.0,1.0,463.3992560002298,1.0,1.0,phase_1,,,,,,,,,,,,,yellow,circle
160.0,5.0,1.0,1.0,2.0,2.0,389.7741049995602,1.0,2.0,phase_1,,,,,,,,,,,,,gray,triangle
167.0,1.0,1.0,0.0,4.0,4.0,436.2015940005221,1.0,1.0,phase_1,,,,,,,,,,,,,orange,diamond
652.0,7.0,3.0,1.0,2.0,2.0,352.2305770002276,1.0,1.0,phase_1,,,,,,,,,,,,,white,I
330.0,6.0,2.0,1.0,2.0,2.0,408.8367300000755,1.0,1.0,phase_1,,,,,,,,,,,,,blue,hexagon
0.0,1.0,0.0,0.0,1.0,1.0,381.0521590003191,1.0,1.0,phase_1,,,,,,,,,,,,,orange,diamond
666.0,3.0,3.0,0.0,2.0,2.0,326.2321590000283,1.0,1.0,phase_1,,,,,,,,,,,,,yellow,circle
0.0,1.0,0.0,0.0,1.0,1.0,389.9751320004725,1.0,1.0,phase_1,,,,,,,,,,,,,orange,diamond
0.0,1.0,0.0,0.0,4.0,4.0,672.4966620004125,1.0,1.0,phase_1,,,,,,,,,,,,,orange,diamond
1282.0,8.0,4.0,1.0,3.0,3.0,399.4338279999283,1.0,1.0,phase_1,,,,,,,,,,,,,green,flipped triangle
176.0,1.0,1.0,0.0,1.0,1.0,466.0510700005034,1.0,1.0,phase_1,,,,,,,,,,,,,orange,diamond
643.0,3.0,3.0,0.0,4.0,4.0,381.1302759995669,1.0,1.0,phase_1,,,,,,,,,,,,,yellow,circle
1276.0,8.0,4.0,1.0,4.0,4.0,426.3150420001693,1.0,1.0,phase_1,,,,,,,,,,,,,green,flipped triangle
632.0,3.0,3.0,0.0,1.0,1.0,389.8334900004556,1.0,1.0,phase_1,,,,,,,,,,,,,yellow,circle
0.0,3.0,0.0,0.0,1.0,1.0,353.1185600004392,1.0,1.0,phase_1,,,,,,,,,,,,,yellow,circle
321.0,2.0,2.0,0.0,4.0,4.0,390.9964160002346,1.0,1.0,phase_1,,,,,,,,,,,,,magenta,cross
318.0,6.0,2.0,1.0,4.0,4.0,407.8003349995924,1.0,1.0,phase_1,,,,,,,,,,,,,blue,hexagon
160.0,5.0,1.0,1.0,1.0,1.0,399.7061410000242,1.0,1.0,phase_1,,,,,,,,,,,,,gray,triangle
314.0,6.0,2.0,1.0,2.0,2.0,354.3493140005012,1.0,3.0,phase_1,,,,,,,,,,,,,blue,hexagon
1295.0,4.0,4.0,0.0,2.0,2.0,344.0111940008137,1.0,1.0,phase_1,,,,,,,,,,,,,cyan,square
327.0,2.0,2.0,0.0,2.0,2.0,325.6064099996365,1.0,1.0,phase_1,,,,,,,,,,,,,magenta,cross
171.0,5.0,1.0,1.0,1.0,1.0,409.2083209998236,1.0,1.0,phase_1,,,,,,,,,,,,,gray,triangle
654.0,3.0,3.0,0.0,4.0,4.0,445.2966050002942,1.0,1.0,phase_1,,,,,,,,,,,,,yellow,circle
662.0,7.0,3.0,1.0,1.0,1.0,344.0834770008223,1.0,1.0,phase_1,,,,,,,,,,,,,white,I
180.0,5.0,1.0,1.0,4.0,4.0,364.2556240001795,1.0,1.0,phase_1,,,,,,,,,,,,,gray,triangle
670.0,3.0,3.0,0.0,4.0,4.0,400.1264749995243,1.0,1.0,phase_1,,,,,,,,,,,,,yellow,circle
1307.0,8.0,4.0,1.0,4.0,4.0,362.7558409998528,1.0,1.0,phase_1,,,,,,,,,,,,,green,flipped triangle
1322.0,4.0,4.0,0.0,2.0,2.0,838.6618290005572,1.0,1.0,phase_1,,,,,,,,,,,,,cyan,square
162.0,5.0,1.0,1.0,2.0,2.0,529.2787539992787,1.0,1.0,phase_1,,,,,,,,,,,,,gray,triangle
308.0,2.0,2.0,0.0,3.0,3.0,288.7366079994535,1.0,1.0,phase_1,,,,,,,,,,,,,magenta,cross
654.0,7.0,3.0,1.0,2.0,2.0,363.0674089999957,1.0,1.0,phase_1,,,,,,,,,,,,,white,I
302.0,2.0,2.0,0.0,2.0,2.0,371.4926759994341,1.0,1.0,phase_1,,,,,,,,,,,,,magenta,cross
185.0,1.0,1.0,0.0,1.0,1.0,566.7959190004694,1.0,1.0,phase_1,,,,,,,,,,,,,orange,diamond
334.0,6.0,2.0,1.0,1.0,1.0,446.9094739997672,1.0,1.0,phase_1,,,,,,,,,,,,,blue,hexagon
157.0,5.0,1.0,1.0,2.0,2.0,344.1408250000677,1.0,1.0,phase_1,,,,,,,,,,,,,gray,triangle
325.0,6.0,2.0,1.0,2.0,2.0,399.0909159992952,1.0,1.0,phase_1,,,,,,,,,,,,,blue,hexagon
346.0,6.0,2.0,1.0,3.0,3.0,354.52639200048,1.0,1.0,phase_1,,,,,,,,,,,,,blue,hexagon
1279.0,8.0,4.0,1.0,2.0,2.0,353.6294140003519,1.0,1.0,phase_1,,,,,,,,,,,,,green,flipped triangle
0.0,7.0,0.0,1.0,3.0,3.0,390.3053889998773,1.0,1.0,phase_1,,,,,,,,,,,,,white,I
141.0,5.0,1.0,1.0,2.0,2.0,391.3811779993921,1.0,1.0,phase_1,,,,,,,,,,,,,gray,triangle
154.0,1.0,1.0,0.0,2.0,2.0,352.3640050007088,2.0,2.0,phase_1,,,,,,,,,,,,,orange,diamond
185.0,1.0,1.0,0.0,4.0,4.0,576.7638800007262,2.0,1.0,phase_1,,,,,,,,,,,,,orange,diamond
0.0,8.0,0.0,1.0,3.0,3.0,389.2033840002113,2.0,1.0,phase_1,,,,,,,,,,,,,green,flipped triangle
0.0,2.0,0.0,0.0,2.0,2.0,472.9778369992345,2.0,1.0,phase_1,,,,,,,,,,,,,magenta,cross
0.0,5.0,0.0,1.0,3.0,3.0,482.9483980001896,2.0,1.0,phase_1,,,,,,,,,,,,,gray,triangle
666.0,7.0,3.0,1.0,3.0,3.0,343.2458710003629,2.0,1.0,phase_1,,,,,,,,,,,,,white,I
667.0,3.0,3.0,0.0,3.0,3.0,324.5866569995996,2.0,1.0,phase_1,,,,,,,,,,,,,yellow,circle
1316.0,8.0,4.0,1.0,3.0,3.0,361.4735889996154,2.0,1.0,phase_1,,,,,,,,,,,,,green,flipped triangle
637.0,7.0,3.0,1.0,2.0,2.0,409.7446590003528,2.0,1.0,phase_1,,,,,,,,,,,,,white,I
0.0,6.0,0.0,1.0,4.0,4.0,316.7867590000242,2.0,1.0,phase_1,,,,,,,,,,,,,blue,hexagon
0.0,4.0,0.0,0.0,2.0,2.0,426.7870719995699,2.0,1.0,phase_1,,,,,,,,,,,,,cyan,square
307.0,2.0,2.0,0.0,2.0,2.0,381.6538790006234,2.0,1.0,phase_1,,,,,,,,,,,,,magenta,cross
338.0,6.0,2.0,1.0,2.0,2.0,353.4386339997581,2.0,1.0,phase_1,,,,,,,,,,,,,blue,hexagon
345.0,6.0,2.0,1.0,1.0,1.0,491.8239669996183,2.0,1.0,phase_1,,,,,,,,,,,,,blue,hexagon
175.0,5.0,1.0,1.0,4.0,4.0,555.9403090001069,2.0,1.0,phase_1,,,,,,,,,,,,,gray,triangle
0.0,4.0,0.0,0.0,2.0,2.0,585.4249450003408,2.0,1.0,phase_1,,,,,,,,,,,,,cyan,square
1281.0,4.0,4.0,0.0,1.0,1.0,325.3640279999672,2.0,1.0,phase_1,,,,,,,,,,,,,cyan,square
162.0,1.0,1.0,0.0,3.0,3.0,343.3552550004606,2.0,1.0,phase_1,,,,,,,,,,,,,orange,diamond
1307.0,4.0,4.0,0.0,4.0,4.0,372.2907640003541,2.0,1.0,phase_1,,,,,,,,,,,,,cyan,square
0.0,4.0,0.0,0.0,3.0,3.0,408.7806870002168,2.0,1.0,phase_1,,,,,,,,,,,,,cyan,square
0.0,2.0,0.0,0.0,2.0,2.0,315.3070969992768,2.0,1.0,phase_1,,,,,,,,,,,,,magenta,cross
1302.0,8.0,4.0,1.0,1.0,1.0,390.6489900000451,2.0,1.0,phase_1,,,,,,,,,,,,,green,flipped triangle
1276.0,4.0,4.0,0.0,2.0,2.0,362.9780440005561,2.0,1.0,phase_1,,,,,,,,,,,,,cyan,square
0.0,8.0,0.0,1.0,3.0,3.0,375.9523609996904,2.0,1.0,phase_1,,,,,,,,,,,,,green,flipped triangle
0.0,6.0,0.0,1.0,3.0,3.0,342.3998869993738,2.0,1.0,phase_1,,,,,,,,,,,,,blue,hexagon
654.0,3.0,3.0,0.0,4.0,4.0,425.3626870004154,2.0,1.0,phase_1,,,,,,,,,,,,,yellow,circle
163.0,5.0,1.0,1.0,2.0,2.0,388.8092580000375,2.0,1.0,phase_1,,,,,,,,,,,,,gray,triangle
627.0,7.0,3.0,1.0,1.0,1.0,333.5771219999515,2.0,1.0,phase_1,,,,,,,,,,,,,white,I
0.0,7.0,0.0,1.0,1.0,1.0,333.8336209999397,2.0,1.0,phase_1,,,,,,,,,,,,,white,I
0.0,7.0,0.0,1.0,4.0,4.0,482.2770270002365,2.0,1.0,phase_1,,,,,,,,,,,,,white,I
348.0,2.0,2.0,0.0,3.0,3.0,360.8600929992462,2.0,1.0,phase_1,,,,,,,,,,,,,magenta,cross
0.0,4.0,0.0,0.0,3.0,3.0,416.8685869999535,2.0,1.0,phase_1,,,,,,,,,,,,,cyan,square
1319.0,4.0,4.0,0.0,1.0,1.0,314.0811229995961,2.0,1.0,phase_1,,,,,,,,,,,,,cyan,square
0.0,2.0,0.0,0.0,4.0,4.0,397.5916070003222,2.0,1.0,phase_1,,,,,,,,,,,,,magenta,cross
1281.0,8.0,4.0,1.0,4.0,4.0,387.672652999754,2.0,1.0,phase_1,,,,,,,,,,,,,green,flipped triangle
146.0,1.0,1.0,0.0,1.0,1.0,379.4911489994774,2.0,1.0,phase_1,,,,,,,,,,,,,orange,diamond
653.0,3.0,3.0,0.0,2.0,2.0,332.6387290007915,2.0,1.0,phase_1,,,,,,,,,,,,,yellow,circle
1302.0,4.0,4.0,0.0,4.0,4.0,407.6026739994631,2.0,1.0,phase_1,,,,,,,,,,,,,cyan,square
321.0,6.0,2.0,1.0,1.0,1.0,336.1022330000196,2.0,1.0,phase_1,,,,,,,,,,,,,blue,hexagon
321.0,2.0,2.0,0.0,1.0,1.0,362.278470000092,2.0,1.0,phase_1,,,,,,,,,,,,,magenta,cross
672.0,7.0,3.0,1.0,2.0,2.0,723.0663109994566,2.0,1.0,phase_1,,,,,,,,,,,,,white,I
137.0,5.0,1.0,1.0,3.0,3.0,418.7551780005378,2.0,1.0,phase_1,,,,,,,,,,,,,gray,triangle
314.0,2.0,2.0,0.0,3.0,3.0,399.86879699972627,2.0,1.0,phase_1,,,,,,,,,,,,,magenta,cross
162.0,5.0,1.0,1.0,1.0,1.0,399.7981659995275,2.0,1.0,phase_1,,,,,,,,,,,,,gray,triangle
636.0,7.0,3.0,1.0,3.0,3.0,353.413781999734,2.0,1.0,phase_1,,,,,,,,,,,,,white,I
1275.0,8.0,4.0,1.0,1.0,1.0,426.4404539999304,2.0,1.0,phase_1,,,,,,,,,,,,,green,flipped triangle
0.0,4.0,0.0,0.0,1.0,1.0,315.3301680004006,2.0,1.0,phase_1,,,,,,,,,,,,,cyan,square
0.0,3.0,0.0,0.0,2.0,2.0,530.2466729999651,2.0,1.0,phase_1,,,,,,,,,,,,,yellow,circle
1293.0,4.0,4.0,0.0,1.0,1.0,361.4871670006323,2.0,1.0,phase_1,,,,,,,,,,,,,cyan,square
0.0,2.0,0.0,0.0,1.0,1.0,389.496648000204,2.0,1.0,phase_1,,,,,,,,,,,,,magenta,cross
149.0,1.0,1.0,0.0,3.0,3.0,361.6090679997796,2.0,1.0,phase_1,,,,,,,,,,,,,orange,diamond
0.0,2.0,0.0,0.0,3.0,3.0,426.4307839994217,2.0,1.0,phase_1,,,,,,,,,,,,,magenta,cross
0.0,6.0,0.0,1.0,1.0,1.0,538.1422219998058,2.0,1.0,phase_1,,,,,,,,,,,,,blue,hexagon
157.0,1.0,1.0,0.0,4.0,4.0,476.8537100007961,2.0,1.0,phase_1,,,,,,,,,,,,,orange,diamond
658.0,3.0,3.0,0.0,2.0,2.0,409.026084999823,2.0,1.0,phase_1,,,,,,,,,,,,,yellow,circle
302.0,6.0,2.0,1.0,4.0,4.0,361.822146999657,2.0,1.0,phase_1,,,,,,,,,,,,,blue,hexagon
0.0,8.0,0.0,1.0,3.0,3.0,343.5772720004024,2.0,1.0,phase_1,,,,,,,,,,,,,green,flipped triangle
318.0,6.0,2.0,1.0,3.0,3.0,343.4041089994935,2.0,1.0,phase_1,,,,,,,,,,,,,blue,hexagon
0.0,5.0,0.0,1.0,4.0,4.0,361.8036789994221,2.0,1.0,phase_1,,,,,,,,,,,,,gray,triangle
643.0,7.0,3.0,1.0,1.0,1.0,334.658042999763,2.0,1.0,phase_1,,,,,,,,,,,,,white,I
160.0,5.0,1.0,1.0,1.0,1.0,361.8219760001011,2.0,1.0,phase_1,,,,,,,,,,,,,gray,triangle
318.0,2.0,2.0,0.0,3.0,3.0,362.0873720001327,2.0,1.0,phase_1,,,,,,,,,,,,,magenta,cross
632.0,7.0,3.0,1.0,2.0,2.0,370.9622819997094,2.0,1.0,phase_1,,,,,,,,,,,,,white,I
1284.0,4.0,4.0,0.0,3.0,3.0,389.6675890000551,2.0,1.0,phase_1,,,,,,,,,,,,,cyan,square
156.0,1.0,1.0,0.0,2.0,2.0,315.8017589994415,2.0,1.0,phase_1,,,,,,,,,,,,,orange,diamond
1293.0,4.0,4.0,0.0,2.0,2.0,407.1496950000437,2.0,1.0,phase_1,,,,,,,,,,,,,cyan,square
0.0,3.0,0.0,0.0,2.0,2.0,436.2300789998699,2.0,1.0,phase_1,,,,,,,,,,,,,yellow,circle
637.0,3.0,3.0,0.0,3.0,3.0,344.4185830003334,2.0,1.0,phase_1,,,,,,,,,,,,,yellow,circle
1281.0,8.0,4.0,1.0,1.0,1.0,343.7016230000154,2.0,1.0,phase_1,,,,,,,,,,,,,green,flipped triangle
303.0,6.0,2.0,1.0,3.0,3.0,454.8910470002738,2.0,1.0,phase_1,,,,,,,,,,,,,blue,hexagon
1323.0,4.0,4.0,0.0,4.0,4.0,475.1669420002145,2.0,1.0,phase_1,,,,,,,,,,,,,cyan,square
168.0,1.0,1.0,0.0,2.0,2.0,446.1760720005259,2.0,1.0,phase_1,,,,,,,,,,,,,orange,diamond
1308.0,8.0,4.0,1.0,3.0,3.0,454.0300640001078,2.0,1.0,phase_1,,,,,,,,,,,,,green,flipped triangle
653.0,7.0,3.0,1.0,4.0,4.0,399.8808360001931,2.0,1.0,phase_1,,,,,,,,,,,,,white,I
1319.0,8.0,4.0,1.0,1.0,1.0,436.594748999596,2.0,1.0,phase_1,,,,,,,,,,,,,green,flipped triangle
344.0,2.0,2.0,0.0,4.0,4.0,456.7911619997176,2.0,1.0,phase_1,,,,,,,,,,,,,magenta,cross
0.0,7.0,0.0,1.0,3.0,3.0,372.5304379995577,2.0,1.0,phase_1,,,,,,,,,,,,,white,I
1284.0,8.0,4.0,1.0,3.0,3.0,436.4410019998104,2.0,1.0,phase_1,,,,,,,,,,,,,green,flipped triangle
653.0,3.0,3.0,0.0,2.0,2.0,502.48734900014824,2.0,1.0,phase_1,,,,,,,,,,,,,yellow,circle
654.0,3.0,3.0,0.0,1.0,1.0,426.6692900000635,2.0,1.0,phase_1,,,,,,,,,,,,,yellow,circle
1296.0,4.0,4.0,0.0,3.0,3.0,408.6850670000785,2.0,1.0,phase_1,,,,,,,,,,,,,cyan,square
668.0,3.0,3.0,0.0,1.0,1.0,398.9502300000822,2.0,1.0,phase_1,,,,,,,,,,,,,yellow,circle
0.0,1.0,0.0,0.0,3.0,3.0,362.0431130002544,2.0,1.0,phase_1,,,,,,,,,,,,,orange,diamond
0.0,8.0,0.0,1.0,3.0,3.0,445.8344380000199,2.0,1.0,phase_1,,,,,,,,,,,,,green,flipped triangle
143.0,1.0,1.0,0.0,3.0,3.0,334.153034999872,2.0,1.0,phase_1,,,,,,,,,,,,,orange,diamond
671.0,3.0,3.0,0.0,2.0,2.0,380.5121360001067,2.0,1.0,phase_1,,,,,,,,,,,,,yellow,circle
670.0,3.0,3.0,0.0,4.0,4.0,383.0298740003854,2.0,1.0,phase_1,,,,,,,,,,,,,yellow,circle
321.0,2.0,2.0,0.0,2.0,2.0,428.5683829994013,2.0,1.0,phase_1,,,,,,,,,,,,,magenta,cross
1289.0,8.0,4.0,1.0,2.0,2.0,334.8537449992363,2.0,1.0,phase_1,,,,,,,,,,,,,green,flipped triangle
160.0,1.0,1.0,0.0,2.0,2.0,407.6185730000361,2.0,1.0,phase_1,,,,,,,,,,,,,orange,diamond
180.0,1.0,1.0,0.0,4.0,4.0,418.8900259996444,2.0,1.0,phase_1,,,,,,,,,,,,,orange,diamond
1275.0,8.0,4.0,1.0,4.0,4.0,371.6237890002958,2.0,1.0,phase_1,,,,,,,,,,,,,green,flipped triangle
0.0,3.0,0.0,0.0,3.0,3.0,427.3165049999079,2.0,1.0,phase_1,,,,,,,,,,,,,yellow,circle
0.0,2.0,0.0,0.0,3.0,3.0,416.5288940002938,2.0,1.0,phase_1,,,,,,,,,,,,,magenta,cross
321.0,6.0,2.0,1.0,4.0,4.0,371.0019170002852,2.0,1.0,phase_1,,,,,,,,,,,,,blue,hexagon
0.0,1.0,0.0,0.0,3.0,3.0,372.1106920002057,2.0,1.0,phase_1,,,,,,,,,,,,,orange,diamond
654.0,7.0,3.0,1.0,4.0,4.0,490.88230899997137,2.0,1.0,phase_1,,,,,,,,,,,,,white,I
1322.0,8.0,4.0,1.0,4.0,4.0,454.9246090000451,2.0,1.0,phase_1,,,,,,,,,,,,,green,flipped triangle
0.0,7.0,0.0,1.0,4.0,4.0,408.6952999996356,2.0,1.0,phase_1,,,,,,,,,,,,,white,I
652.0,3.0,3.0,0.0,4.0,4.0,407.4416230005226,2.0,1.0,phase_1,,,,,,,,,,,,,yellow,circle
1307.0,4.0,4.0,0.0,2.0,2.0,379.3198960001973,3.0,1.0,phase_1,,,,,,,,,,,,,cyan,square
0.0,3.0,0.0,0.0,2.0,2.0,325.2912589996413,3.0,1.0,phase_1,,,,,,,,,,,,,yellow,circle
0.0,1.0,0.0,0.0,3.0,3.0,353.746497999964,3.0,1.0,phase_1,,,,,,,,,,,,,orange,diamond
0.0,3.0,0.0,0.0,1.0,1.0,373.6301400003867,3.0,1.0,phase_1,,,,,,,,,,,,,yellow,circle
0.0,2.0,0.0,0.0,3.0,3.0,390.7943249996606,3.0,1.0,phase_1,,,,,,,,,,,,,magenta,cross
303.0,6.0,2.0,1.0,1.0,1.0,344.2626209998707,3.0,1.0,phase_1,,,,,,,,,,,,,blue,hexagon
649.0,7.0,3.0,1.0,1.0,1.0,390.8200589994521,3.0,1.0,phase_1,,,,,,,,,,,,,white,I
162.0,1.0,1.0,0.0,4.0,4.0,371.0700590008855,3.0,1.0,phase_1,,,,,,,,,,,,,orange,diamond
628.0,3.0,3.0,0.0,2.0,2.0,354.0494330000001,3.0,1.0,phase_1,,,,,,,,,,,,,yellow,circle
670.0,7.0,3.0,1.0,3.0,3.0,289.4744340001125,3.0,1.0,phase_1,,,,,,,,,,,,,white,I
175.0,1.0,1.0,0.0,3.0,3.0,372.537232000468,3.0,1.0,phase_1,,,,,,,,,,,,,orange,diamond
648.0,7.0,3.0,1.0,1.0,1.0,397.1731370002089,3.0,1.0,phase_1,,,,,,,,,,,,,white,I
343.0,2.0,2.0,0.0,3.0,3.0,334.1730029997052,3.0,1.0,phase_1,,,,,,,,,,,,,magenta,cross
637.0,7.0,3.0,1.0,2.0,2.0,336.2512100002277,3.0,1.0,phase_1,,,,,,,,,,,,,white,I
346.0,2.0,2.0,0.0,3.0,3.0,324.8700710000776,3.0,1.0,phase_1,,,,,,,,,,,,,magenta,cross
343.0,6.0,2.0,1.0,2.0,2.0,333.9356619999307,3.0,1.0,phase_1,,,,,,,,,,,,,blue,hexagon
666.0,3.0,3.0,0.0,1.0,1.0,352.9898409997258,3.0,1.0,phase_1,,,,,,,,,,,,,yellow,circle
154.0,5.0,1.0,1.0,3.0,3.0,343.6274790001334,3.0,1.0,phase_1,,,,,,,,,,,,,gray,triangle
0.0,6.0,0.0,1.0,4.0,4.0,408.4120689994961,3.0,1.0,phase_1,,,,,,,,,,,,,blue,hexagon
659.0,3.0,3.0,0.0,4.0,4.0,473.5488890000852,3.0,1.0,phase_1,,,,,,,,,,,,,yellow,circle
627.0,3.0,3.0,0.0,4.0,4.0,325.0823950002086,3.0,1.0,phase_1,,,,,,,,,,,,,yellow,circle
343.0,2.0,2.0,0.0,1.0,1.0,464.528416999201,3.0,1.0,phase_1,,,,,,,,,,,,,magenta,cross
161.0,5.0,1.0,1.0,1.0,1.0,381.3707469998917,3.0,1.0,phase_1,,,,,,,,,,,,,gray,triangle
328.0,2.0,2.0,0.0,3.0,3.0,315.1210229998469,3.0,1.0,phase_1,,,,,,,,,,,,,magenta,cross
1288.0,4.0,4.0,0.0,4.0,4.0,438.8880380001865,3.0,1.0,phase_1,,,,,,,,,,,,,cyan,square
303.0,2.0,2.0,0.0,4.0,4.0,380.1142109996362,3.0,1.0,phase_1,,,,,,,,,,,,,magenta,cross
645.0,3.0,3.0,0.0,1.0,1.0,361.0736519995043,3.0,1.0,phase_1,,,,,,,,,,,,,yellow,circle
318.0,6.0,2.0,1.0,1.0,1.0,370.9182350003175,3.0,1.0,phase_1,,,,,,,,,,,,,blue,hexagon
667.0,7.0,3.0,1.0,3.0,3.0,360.5076610001561,3.0,1.0,phase_1,,,,,,,,,,,,,white,I
0.0,6.0,0.0,1.0,4.0,4.0,370.6204359996263,3.0,1.0,phase_1,,,,,,,,,,,,,blue,hexagon
323.0,6.0,2.0,1.0,2.0,2.0,333.3899110002676,3.0,1.0,phase_1,,,,,,,,,,,,,blue,hexagon
143.0,5.0,1.0,1.0,3.0,3.0,281.97396700034,3.0,1.0,phase_1,,,,,,,,,,,,,gray,triangle
144.0,1.0,1.0,0.0,1.0,1.0,315.286491999359,3.0,1.0,phase_1,,,,,,,,,,,,,orange,diamond
315.0,2.0,2.0,0.0,2.0,2.0,297.4956190000739,3.0,1.0,phase_1,,,,,,,,,,,,,magenta,cross
345.0,2.0,2.0,0.0,1.0,1.0,361.0854290000134,3.0,2.0,phase_1,,,,,,,,,,,,,magenta,cross
660.0,7.0,3.0,1.0,4.0,4.0,474.2969330000051,3.0,1.0,phase_1,,,,,,,,,,,,,white,I
671.0,7.0,3.0,1.0,2.0,2.0,417.1239809993494,3.0,1.0,phase_1,,,,,,,,,,,,,white,I
1323.0,8.0,4.0,1.0,1.0,1.0,464.5044180006152,3.0,1.0,phase_1,,,,,,,,,,,,,green,flipped triangle
0.0,3.0,0.0,0.0,2.0,2.0,397.5751580001088,3.0,1.0,phase_1,,,,,,,,,,,,,yellow,circle
1302.0,4.0,4.0,0.0,4.0,4.0,314.6612640002786,3.0,1.0,phase_1,,,,,,,,,,,,,cyan,square
662.0,3.0,3.0,0.0,3.0,3.0,362.2329359996001,3.0,1.0,phase_1,,,,,,,,,,,,,yellow,circle
644.0,3.0,3.0,0.0,1.0,1.0,380.7370899994566,3.0,1.0,phase_1,,,,,,,,,,,,,yellow,circle
0.0,4.0,0.0,0.0,2.0,2.0,440.8367589994668,3.0,1.0,phase_1,,,,,,,,,,,,,cyan,square
142.0,1.0,1.0,0.0,2.0,2.0,361.76081099984,3.0,1.0,phase_1,,,,,,,,,,,,,orange,diamond
635.0,7.0,3.0,1.0,2.0,2.0,333.6555260002569,3.0,1.0,phase_1,,,,,,,,,,,,,white,I
334.0,2.0,2.0,0.0,4.0,4.0,417.8692150007919,3.0,1.0,phase_1,,,,,,,,,,,,,magenta,cross
180.0,1.0,1.0,0.0,3.0,3.0,343.7446520001685,3.0,1.0,phase_1,,,,,,,,,,,,,orange,diamond
303.0,2.0,2.0,0.0,3.0,3.0,361.9885099997191,3.0,1.0,phase_1,,,,,,,,,,,,,magenta,cross
141.0,1.0,1.0,0.0,2.0,2.0,389.1551239994442,3.0,1.0,phase_1,,,,,,,,,,,,,orange,diamond
1316.0,4.0,4.0,0.0,3.0,3.0,297.8666099998008,3.0,1.0,phase_1,,,,,,,,,,,,,cyan,square
331.0,2.0,2.0,0.0,1.0,1.0,381.2444870000036,3.0,1.0,phase_1,,,,,,,,,,,,,magenta,cross
0.0,3.0,0.0,0.0,2.0,2.0,379.6955389998402,3.0,1.0,phase_1,,,,,,,,,,,,,yellow,circle
174.0,1.0,1.0,0.0,1.0,1.0,454.391227999622,3.0,1.0,phase_1,,,,,,,,,,,,,orange,diamond
1307.0,4.0,4.0,0.0,4.0,4.0,418.5715610001352,3.0,1.0,phase_1,,,,,,,,,,,,,cyan,square
645.0,7.0,3.0,1.0,3.0,3.0,362.3948569993445,3.0,1.0,phase_1,,,,,,,,,,,,,white,I
1289.0,4.0,4.0,0.0,1.0,1.0,408.7816130004285,3.0,1.0,phase_1,,,,,,,,,,,,,cyan,square
1290.0,4.0,4.0,0.0,4.0,4.0,408.1588290000582,3.0,1.0,phase_1,,,,,,,,,,,,,cyan,square
141.0,1.0,1.0,0.0,1.0,1.0,362.1164180003688,3.0,1.0,phase_1,,,,,,,,,,,,,orange,diamond
325.0,2.0,2.0,0.0,3.0,3.0,389.3691840003157,3.0,2.0,phase_1,,,,,,,,,,,,,magenta,cross
180.0,5.0,1.0,1.0,1.0,1.0,389.6817660006491,3.0,1.0,phase_1,,,,,,,,,,,,,gray,triangle
338.0,2.0,2.0,0.0,3.0,3.0,398.833217000174,3.0,1.0,phase_1,,,,,,,,,,,,,magenta,cross
0.0,4.0,0.0,0.0,4.0,4.0,445.7432989993322,3.0,1.0,phase_1,,,,,,,,,,,,,cyan,square
348.0,6.0,2.0,1.0,1.0,1.0,417.4729369997294,3.0,1.0,phase_1,,,,,,,,,,,,,blue,hexagon
185.0,5.0,1.0,1.0,2.0,2.0,408.1936170005065,3.0,2.0,phase_1,,,,,,,,,,,,,gray,triangle
331.0,6.0,2.0,1.0,3.0,3.0,408.6961539996991,3.0,1.0,phase_1,,,,,,,,,,,,,blue,hexagon
670.0,7.0,3.0,1.0,4.0,4.0,546.8785690000004,3.0,1.0,phase_1,,,,,,,,,,,,,white,I
640.0,3.0,3.0,0.0,3.0,3.0,417.7230380000765,3.0,1.0,phase_1,,,,,,,,,,,,,yellow,circle
631.0,3.0,3.0,0.0,3.0,3.0,418.5339880004903,3.0,1.0,phase_1,,,,,,,,,,,,,yellow,circle
649.0,3.0,3.0,0.0,3.0,3.0,398.7933500002327,3.0,1.0,phase_1,,,,,,,,,,,,,yellow,circle
1318.0,8.0,4.0,1.0,4.0,4.0,642.7184829999533,3.0,1.0,phase_1,,,,,,,,,,,,,green,flipped triangle
1295.0,8.0,4.0,1.0,3.0,3.0,352.8787189998184,3.0,1.0,phase_1,,,,,,,,,,,,,green,flipped triangle
322.0,2.0,2.0,0.0,2.0,2.0,343.7050339998677,3.0,1.0,phase_1,,,,,,,,,,,,,magenta,cross
642.0,7.0,3.0,1.0,1.0,1.0,436.6013349999775,3.0,1.0,phase_1,,,,,,,,,,,,,white,I
672.0,3.0,3.0,0.0,2.0,2.0,455.9777329995995,3.0,1.0,phase_1,,,,,,,,,,,,,yellow,circle
149.0,5.0,1.0,1.0,3.0,3.0,380.999726000482,3.0,1.0,phase_1,,,,,,,,,,,,,gray,triangle
659.0,7.0,3.0,1.0,1.0,1.0,400.4631230000086,3.0,1.0,phase_1,,,,,,,,,,,,,white,I
1318.0,4.0,4.0,0.0,2.0,2.0,611.6484459998901,3.0,2.0,phase_1,,,,,,,,,,,,,cyan,square
318.0,6.0,2.0,1.0,4.0,4.0,695.5744450006023,3.0,1.0,phase_1,,,,,,,,,,,,,blue,hexagon
162.0,1.0,1.0,0.0,3.0,3.0,473.7021520004418,3.0,1.0,phase_1,,,,,,,,,,,,,orange,diamond
628.0,7.0,3.0,1.0,4.0,4.0,501.6361389998565,3.0,1.0,phase_1,,,,,,,,,,,,,white,I
307.0,6.0,2.0,1.0,1.0,1.0,379.6778500000073,3.0,1.0,phase_1,,,,,,,,,,,,,blue,hexagon
1308.0,4.0,4.0,0.0,1.0,1.0,417.3669809997591,3.0,1.0,phase_1,,,,,,,,,,,,,cyan,square
1302.0,4.0,4.0,0.0,4.0,4.0,446.1154099999476,3.0,1.0,phase_1,,,,,,,,,,,,,cyan,square
668.0,7.0,3.0,1.0,2.0,2.0,445.6243129998256,3.0,1.0,phase_1,,,,,,,,,,,,,white,I
1275.0,4.0,4.0,0.0,2.0,2.0,389.7266979993219,3.0,1.0,phase_1,,,,,,,,,,,,,cyan,square
1299.0,4.0,4.0,0.0,2.0,2.0,381.0712859994964,3.0,1.0,phase_1,,,,,,,,,,,,,cyan,square
0.0,7.0,0.0,1.0,4.0,4.0,575.1235500001712,3.0,1.0,phase_1,,,,,,,,,,,,,white,I
0.0,7.0,0.0,1.0,2.0,2.0,606.6118949993324,3.0,1.0,phase_1,,,,,,,,,,,,,white,I
637.0,3.0,3.0,0.0,1.0,1.0,531.712582000182,3.0,1.0,phase_1,,,,,,,,,,,,,yellow,circle
631.0,7.0,3.0,1.0,4.0,4.0,371.3477499995861,3.0,1.0,phase_1,,,,,,,,,,,,,white,I
185.0,5.0,1.0,1.0,3.0,3.0,381.0111060001873,3.0,1.0,phase_1,,,,,,,,,,,,,gray,triangle
349.0,6.0,2.0,1.0,2.0,2.0,353.3007549995091,3.0,1.0,phase_1,,,,,,,,,,,,,blue,hexagon
310.0,2.0,2.0,0.0,1.0,1.0,380.9156269999221,3.0,1.0,phase_1,,,,,,,,,,,,,magenta,cross
340.0,2.0,2.0,0.0,1.0,1.0,400.1216560000102,3.0,1.0,phase_1,,,,,,,,,,,,,magenta,cross
1278.0,8.0,4.0,1.0,3.0,3.0,408.1782519997432,3.0,1.0,phase_1,,,,,,,,,,,,,green,flipped triangle
1316.0,4.0,4.0,0.0,2.0,2.0,362.3748620002516,3.0,1.0,phase_1,,,,,,,,,,,,,cyan,square
154.0,5.0,1.0,1.0,4.0,4.0,361.7143980000037,3.0,1.0,phase_1,,,,,,,,,,,,,gray,triangle
0.0,5.0,0.0,1.0,2.0,2.0,436.1780710005405,3.0,1.0,phase_1,,,,,,,,,,,,,gray,triangle
1278.0,4.0,4.0,0.0,3.0,3.0,400.19129600023,3.0,1.0,phase_1,,,,,,,,,,,,,cyan,square
307.0,6.0,2.0,1.0,1.0,1.0,510.1026049997017,3.0,1.0,phase_1,,,,,,,,,,,,,blue,hexagon
0.0,7.0,0.0,1.0,2.0,2.0,417.6005760000407,4.0,1.0,phase_1,,,,,,,,,,,,,white,I
1293.0,8.0,4.0,1.0,2.0,2.0,353.4502869997595,4.0,1.0,phase_1,,,,,,,,,,,,,green,flipped triangle
0.0,6.0,0.0,1.0,2.0,2.0,371.5616680001403,4.0,1.0,phase_1,,,,,,,,,,,,,blue,hexagon
176.0,1.0,1.0,0.0,3.0,3.0,371.5583550001611,4.0,1.0,phase_1,,,,,,,,,,,,,orange,diamond
1286.0,8.0,4.0,1.0,3.0,3.0,372.6638580001236,4.0,1.0,phase_1,,,,,,,,,,,,,green,flipped triangle
1314.0,8.0,4.0,1.0,2.0,2.0,325.6442399997468,4.0,1.0,phase_1,,,,,,,,,,,,,green,flipped triangle
308.0,2.0,2.0,0.0,1.0,1.0,427.6196269993306,4.0,1.0,phase_1,,,,,,,,,,,,,magenta,cross
175.0,1.0,1.0,0.0,4.0,4.0,696.0351480001918,4.0,1.0,phase_1,,,,,,,,,,,,,orange,diamond
308.0,6.0,2.0,1.0,4.0,4.0,372.3224169998502,4.0,1.0,phase_1,,,,,,,,,,,,,blue,hexagon
308.0,6.0,2.0,1.0,3.0,3.0,354.2838069997742,4.0,1.0,phase_1,,,,,,,,,,,,,blue,hexagon
185.0,1.0,1.0,0.0,3.0,3.0,474.0147769998657,4.0,1.0,phase_1,,,,,,,,,,,,,orange,diamond
158.0,5.0,1.0,1.0,4.0,4.0,465.89655400021,4.0,1.0,phase_1,,,,,,,,,,,,,gray,triangle
176.0,5.0,1.0,1.0,1.0,1.0,510.47682799980976,4.0,1.0,phase_1,,,,,,,,,,,,,gray,triangle
1279.0,4.0,4.0,0.0,1.0,1.0,391.7439959996045,4.0,1.0,phase_1,,,,,,,,,,,,,cyan,square
144.0,5.0,1.0,1.0,2.0,2.0,473.784983000769,4.0,1.0,phase_1,,,,,,,,,,,,,gray,triangle
0.0,3.0,0.0,0.0,4.0,4.0,473.6114649995215,4.0,1.0,phase_1,,,,,,,,,,,,,yellow,circle
1286.0,4.0,4.0,0.0,4.0,4.0,427.9260789999171,4.0,1.0,phase_1,,,,,,,,,,,,,cyan,square
1281.0,4.0,4.0,0.0,3.0,3.0,696.5905999995812,4.0,1.0,phase_1,,,,,,,,,,,,,cyan,square
1307.0,8.0,4.0,1.0,1.0,1.0,474.3110159997741,4.0,1.0,phase_1,,,,,,,,,,,,,green,flipped triangle
327.0,6.0,2.0,1.0,4.0,4.0,353.6403879998033,4.0,1.0,phase_1,,,,,,,,,,,,,blue,hexagon
1314.0,4.0,4.0,0.0,1.0,1.0,372.8577030005908,4.0,1.0,phase_1,,,,,,,,,,,,,cyan,square
0.0,5.0,0.0,1.0,1.0,1.0,454.4338980003886,4.0,2.0,phase_1,,,,,,,,,,,,,gray,triangle
318.0,2.0,2.0,0.0,2.0,2.0,436.4336799999364,4.0,1.0,phase_1,,,,,,,,,,,,,magenta,cross
653.0,7.0,3.0,1.0,3.0,3.0,371.4737039999818,4.0,1.0,phase_1,,,,,,,,,,,,,white,I
671.0,7.0,3.0,1.0,3.0,3.0,389.2529169997942,4.0,1.0,phase_1,,,,,,,,,,,,,white,I
163.0,1.0,1.0,0.0,4.0,4.0,445.4145420004352,4.0,1.0,phase_1,,,,,,,,,,,,,orange,diamond
0.0,5.0,0.0,1.0,1.0,1.0,389.0246050004862,4.0,1.0,phase_1,,,,,,,,,,,,,gray,triangle
310.0,6.0,2.0,1.0,2.0,2.0,362.8445139993346,4.0,1.0,phase_1,,,,,,,,,,,,,blue,hexagon
141.0,5.0,1.0,1.0,4.0,4.0,371.6430169997693,4.0,1.0,phase_1,,,,,,,,,,,,,gray,triangle
640.0,7.0,3.0,1.0,2.0,2.0,402.221231999647,4.0,1.0,phase_1,,,,,,,,,,,,,white,I
642.0,3.0,3.0,0.0,1.0,1.0,400.25481199973,4.0,1.0,phase_1,,,,,,,,,,,,,yellow,circle
0.0,4.0,0.0,0.0,3.0,3.0,427.7691199995388,4.0,1.0,phase_1,,,,,,,,,,,,,cyan,square
0.0,8.0,0.0,1.0,1.0,1.0,427.5573580007403,4.0,1.0,phase_1,,,,,,,,,,,,,green,flipped triangle
1323.0,4.0,4.0,0.0,1.0,1.0,445.2945289995114,4.0,1.0,phase_1,,,,,,,,,,,,,cyan,square
0.0,8.0,0.0,1.0,1.0,1.0,362.113880999459,4.0,1.0,phase_1,,,,,,,,,,,,,green,flipped triangle
0.0,5.0,0.0,1.0,2.0,2.0,399.4092090006234,4.0,1.0,phase_1,,,,,,,,,,,,,gray,triangle
144.0,1.0,1.0,0.0,2.0,2.0,361.7971539997597,4.0,1.0,phase_1,,,,,,,,,,,,,orange,diamond
0.0,5.0,0.0,1.0,2.0,2.0,343.0703900003209,4.0,1.0,phase_1,,,,,,,,,,,,,gray,triangle
1289.0,4.0,4.0,0.0,1.0,1.0,344.8991889999888,4.0,1.0,phase_1,,,,,,,,,,,,,cyan,square
148.0,5.0,1.0,1.0,4.0,4.0,659.6061390000614,4.0,1.0,phase_1,,,,,,,,,,,,,gray,triangle
167.0,5.0,1.0,1.0,4.0,4.0,548.173696000049,4.0,1.0,phase_1,,,,,,,,,,,,,gray,triangle
144.0,5.0,1.0,1.0,1.0,1.0,495.1091980001365,4.0,2.0,phase_1,,,,,,,,,,,,,gray,triangle
1324.0,8.0,4.0,1.0,2.0,2.0,381.1780149999322,4.0,1.0,phase_1,,,,,,,,,,,,,green,flipped triangle
1296.0,8.0,4.0,1.0,2.0,2.0,381.0222850006539,4.0,1.0,phase_1,,,,,,,,,,,,,green,flipped triangle
304.0,6.0,2.0,1.0,3.0,3.0,400.6240539993086,4.0,1.0,phase_1,,,,,,,,,,,,,blue,hexagon
174.0,5.0,1.0,1.0,4.0,4.0,446.4154340003006,4.0,1.0,phase_1,,,,,,,,,,,,,gray,triangle
1288.0,8.0,4.0,1.0,2.0,2.0,537.4735929999588,4.0,1.0,phase_1,,,,,,,,,,,,,green,flipped triangle
304.0,2.0,2.0,0.0,2.0,2.0,370.6277279998176,4.0,1.0,phase_1,,,,,,,,,,,,,magenta,cross
1275.0,4.0,4.0,0.0,3.0,3.0,344.3310740003653,4.0,1.0,phase_1,,,,,,,,,,,,,cyan,square
1315.0,4.0,4.0,0.0,4.0,4.0,435.3095750002467,4.0,1.0,phase_1,,,,,,,,,,,,,cyan,square
185.0,1.0,1.0,0.0,2.0,2.0,390.6453800000236,4.0,1.0,phase_1,,,,,,,,,,,,,orange,diamond
648.0,3.0,3.0,0.0,2.0,2.0,390.4708549998759,4.0,1.0,phase_1,,,,,,,,,,,,,yellow,circle
349.0,2.0,2.0,0.0,1.0,1.0,482.9486530006761,4.0,1.0,phase_1,,,,,,,,,,,,,magenta,cross
323.0,2.0,2.0,0.0,1.0,1.0,445.800538000185,4.0,1.0,phase_1,,,,,,,,,,,,,magenta,cross
142.0,5.0,1.0,1.0,3.0,3.0,372.1272020002288,4.0,1.0,phase_1,,,,,,,,,,,,,gray,triangle
160.0,1.0,1.0,0.0,3.0,3.0,511.6505619998861,4.0,1.0,phase_1,,,,,,,,,,,,,orange,diamond
1314.0,8.0,4.0,1.0,1.0,1.0,436.14747599986,4.0,1.0,phase_1,,,,,,,,,,,,,green,flipped triangle
0.0,1.0,0.0,0.0,2.0,2.0,381.2280100000862,4.0,1.0,phase_1,,,,,,,,,,,,,orange,diamond
1324.0,4.0,4.0,0.0,3.0,3.0,380.9912269998676,4.0,1.0,phase_1,,,,,,,,,,,,,cyan,square
0.0,5.0,0.0,1.0,3.0,3.0,390.8776849993955,4.0,1.0,phase_1,,,,,,,,,,,,,gray,triangle
333.0,6.0,2.0,1.0,1.0,1.0,500.7261800001288,4.0,1.0,phase_1,,,,,,,,,,,,,blue,hexagon
644.0,3.0,3.0,0.0,3.0,3.0,391.1945039999409,4.0,1.0,phase_1,,,,,,,,,,,,,yellow,circle
660.0,7.0,3.0,1.0,3.0,3.0,419.0358329997252,4.0,1.0,phase_1,,,,,,,,,,,,,white,I
0.0,1.0,0.0,0.0,3.0,3.0,381.2920419995862,4.0,1.0,phase_1,,,,,,,,,,,,,orange,diamond
322.0,6.0,2.0,1.0,4.0,4.0,419.742848000169,4.0,1.0,phase_1,,,,,,,,,,,,,blue,hexagon
0.0,6.0,0.0,1.0,3.0,3.0,408.6259629993947,4.0,1.0,phase_1,,,,,,,,,,,,,blue,hexagon
185.0,5.0,1.0,1.0,2.0,2.0,409.7101380002641,4.0,1.0,phase_1,,,,,,,,,,,,,gray,triangle
168.0,5.0,1.0,1.0,4.0,4.0,363.0795429999125,4.0,1.0,phase_1,,,,,,,,,,,,,gray,triangle
321.0,6.0,2.0,1.0,3.0,3.0,315.6034650000947,4.0,1.0,phase_1,,,,,,,,,,,,,blue,hexagon
329.0,2.0,2.0,0.0,4.0,4.0,446.1845249998077,4.0,1.0,phase_1,,,,,,,,,,,,,magenta,cross
1293.0,8.0,4.0,1.0,4.0,4.0,362.7018810002482,4.0,1.0,phase_1,,,,,,,,,,,,,green,flipped triangle
1289.0,8.0,4.0,1.0,2.0,2.0,621.3182420005978,4.0,1.0,phase_1,,,,,,,,,,,,,green,flipped triangle
644.0,7.0,3.0,1.0,3.0,3.0,390.1517149997744,4.0,1.0,phase_1,,,,,,,,,,,,,white,I
161.0,5.0,1.0,1.0,1.0,1.0,447.053037999467,4.0,1.0,phase_1,,,,,,,,,,,,,gray,triangle
348.0,2.0,2.0,0.0,4.0,4.0,500.4286780003895,4.0,1.0,phase_1,,,,,,,,,,,,,magenta,cross
1307.0,8.0,4.0,1.0,3.0,3.0,371.7009259999031,4.0,1.0,phase_1,,,,,,,,,,,,,green,flipped triangle
156.0,5.0,1.0,1.0,4.0,4.0,410.0219920001109,4.0,1.0,phase_1,,,,,,,,,,,,,gray,triangle
632.0,3.0,3.0,0.0,1.0,1.0,427.9428969994114,4.0,1.0,phase_1,,,,,,,,,,,,,yellow,circle
322.0,6.0,2.0,1.0,3.0,3.0,370.4035029995793,4.0,1.0,phase_1,,,,,,,,,,,,,blue,hexagon
635.0,7.0,3.0,1.0,4.0,4.0,371.2283719996776,4.0,1.0,phase_1,,,,,,,,,,,,,white,I
175.0,5.0,1.0,1.0,3.0,3.0,379.9135549998027,4.0,1.0,phase_1,,,,,,,,,,,,,gray,triangle
666.0,7.0,3.0,1.0,1.0,1.0,484.0223010005502,4.0,1.0,phase_1,,,,,,,,,,,,,white,I
148.0,1.0,1.0,0.0,1.0,1.0,995.9983710004964,4.0,1.0,phase_1,,,,,,,,,,,,,orange,diamond
660.0,3.0,3.0,0.0,2.0,2.0,631.4602630000081,4.0,1.0,phase_1,,,,,,,,,,,,,yellow,circle
1316.0,8.0,4.0,1.0,4.0,4.0,379.8061629995573,4.0,1.0,phase_1,,,,,,,,,,,,,green,flipped triangle
660.0,3.0,3.0,0.0,3.0,3.0,352.5220040000931,4.0,1.0,phase_1,,,,,,,,,,,,,yellow,circle
636.0,3.0,3.0,0.0,3.0,3.0,353.5249050000857,4.0,1.0,phase_1,,,,,,,,,,,,,yellow,circle
318.0,2.0,2.0,0.0,4.0,4.0,343.3881009996185,4.0,1.0,phase_1,,,,,,,,,,,,,magenta,cross
635.0,3.0,3.0,0.0,3.0,3.0,370.9581439998146,4.0,1.0,phase_1,,,,,,,,,,,,,yellow,circle
0.0,7.0,0.0,1.0,1.0,1.0,704.9010959999578,4.0,1.0,phase_1,,,,,,,,,,,,,white,I
1282.0,4.0,4.0,0.0,3.0,3.0,334.0387259995623,4.0,1.0,phase_1,,,,,,,,,,,,,cyan,square
161.0,1.0,1.0,0.0,4.0,4.0,360.9034710007108,4.0,1.0,phase_1,,,,,,,,,,,,,orange,diamond
148.0,1.0,1.0,0.0,2.0,2.0,602.3228419999214,4.0,1.0,phase_1,,,,,,,,,,,,,orange,diamond
0.0,5.0,0.0,1.0,4.0,4.0,417.1266719986306,4.0,1.0,phase_1,,,,,,,,,,,,,gray,triangle
0.0,8.0,0.0,1.0,4.0,4.0,427.1827020002092,4.0,1.0,phase_1,,,,,,,,,,,,,green,flipped triangle
0.0,8.0,0.0,1.0,2.0,2.0,406.9337970013293,4.0,1.0,phase_1,,,,,,,,,,,,,green,flipped triangle
330.0,2.0,2.0,0.0,1.0,1.0,455.3670389996114,4.0,1.0,phase_1,,,,,,,,,,,,,magenta,cross
654.0,7.0,3.0,1.0,4.0,4.0,408.207577000212,4.0,1.0,phase_1,,,,,,,,,,,,,white,I
0.0,4.0,0.0,0.0,4.0,4.0,371.5629990001616,4.0,1.0,phase_1,,,,,,,,,,,,,cyan,square
1311.0,4.0,4.0,0.0,1.0,1.0,408.0325140002969,4.0,1.0,phase_1,,,,,,,,,,,,,cyan,square
0.0,2.0,2.0,0.0,5.0,5.0,501.69917800121766,1.0,1.0,phase_2,go,250.0,250.0,1.0,,,,,,,,,magenta,cross
0.0,6.0,2.0,1.0,6.0,0.0,0.0,1.0,1.0,phase_2,stop,250.0,250.0,4.0,,,,,,,,,blue,hexagon
0.0,5.0,1.0,1.0,5.0,5.0,422.5360760010517,1.0,1.0,phase_2,stop,250.0,300.0,3.0,,,,,,,,,gray,triangle
0.0,1.0,1.0,0.0,6.0,6.0,299.8865490008029,1.0,1.0,phase_2,go,200.0,300.0,1.0,,,,,,,,,orange,diamond
0.0,6.0,2.0,1.0,6.0,6.0,356.7270470011863,1.0,1.0,phase_2,go,200.0,300.0,1.0,,,,,,,,,blue,hexagon
0.0,8.0,4.0,1.0,5.0,5.0,338.4290499998315,1.0,1.0,phase_2,stop,200.0,300.0,3.0,,,,,,,,,green,flipped triangle
0.0,4.0,4.0,0.0,6.0,6.0,467.3171790000197,1.0,1.0,phase_2,go,150.0,300.0,1.0,,,,,,,,,cyan,square
0.0,2.0,2.0,0.0,6.0,6.0,354.5715679993009,1.0,1.0,phase_2,go,150.0,300.0,1.0,,,,,,,,,magenta,cross
0.0,8.0,4.0,1.0,6.0,6.0,711.590911998428,1.0,1.0,phase_2,stop,150.0,300.0,3.0,,,,,,,,,green,flipped triangle
0.0,6.0,2.0,1.0,5.0,5.0,905.553640999642,1.0,1.0,phase_2,go,150.0,250.0,1.0,,,,,,,,,blue,hexagon
0.0,5.0,1.0,1.0,5.0,5.0,787.7180280011089,1.0,1.0,phase_2,go,150.0,250.0,1.0,,,,,,,,,gray,triangle
0.0,8.0,4.0,1.0,6.0,0.0,0.0,1.0,1.0,phase_2,stop,150.0,250.0,4.0,,,,,,,,,green,flipped triangle
0.0,2.0,2.0,0.0,5.0,5.0,533.9159480008675,1.0,1.0,phase_2,go,150.0,300.0,1.0,,,,,,,,,magenta,cross
0.0,3.0,3.0,0.0,6.0,6.0,609.0064039999561,1.0,1.0,phase_2,go,150.0,300.0,1.0,,,,,,,,,yellow,circle
0.0,7.0,3.0,1.0,5.0,5.0,394.1321059992333,1.0,1.0,phase_2,stop,150.0,300.0,3.0,,,,,,,,,white,I
0.0,3.0,3.0,0.0,6.0,6.0,439.5634230004361,1.0,1.0,phase_2,go,100.0,300.0,1.0,,,,,,,,,yellow,circle
0.0,7.0,3.0,1.0,5.0,0.0,0.0,1.0,1.0,phase_2,stop,100.0,300.0,4.0,,,,,,,,,white,I
0.0,1.0,1.0,0.0,6.0,6.0,608.5340890003863,1.0,1.0,phase_2,go,150.0,300.0,1.0,,,,,,,,,orange,diamond
0.0,8.0,4.0,1.0,5.0,5.0,560.9939259993553,1.0,1.0,phase_2,go,150.0,300.0,1.0,,,,,,,,,green,flipped triangle
0.0,7.0,3.0,1.0,5.0,5.0,606.6493019989139,1.0,1.0,phase_2,go,150.0,300.0,1.0,,,,,,,,,white,I
0.0,8.0,4.0,1.0,5.0,0.0,0.0,1.0,1.0,phase_2,stop,150.0,300.0,4.0,,,,,,,,,green,flipped triangle
0.0,3.0,3.0,0.0,6.0,6.0,496.7098959987197,1.0,1.0,phase_2,go,200.0,300.0,1.0,,,,,,,,,yellow,circle
0.0,4.0,4.0,0.0,6.0,6.0,478.7424360001751,1.0,1.0,phase_2,go,200.0,300.0,1.0,,,,,,,,,cyan,square
0.0,2.0,2.0,0.0,5.0,5.0,439.6355230001063,1.0,1.0,phase_2,go,200.0,300.0,1.0,,,,,,,,,magenta,cross
0.0,2.0,2.0,0.0,6.0,6.0,467.7603350010031,1.0,1.0,phase_2,go,200.0,300.0,1.0,,,,,,,,,magenta,cross
0.0,3.0,3.0,0.0,5.0,5.0,308.8595799999893,1.0,1.0,phase_2,go,200.0,300.0,1.0,,,,,,,,,yellow,circle
0.0,2.0,2.0,0.0,5.0,5.0,440.1251809995301,1.0,1.0,phase_2,go,200.0,300.0,1.0,,,,,,,,,magenta,cross
0.0,6.0,2.0,1.0,6.0,6.0,345.8820470004866,1.0,1.0,phase_2,stop,200.0,300.0,3.0,,,,,,,,,blue,hexagon
0.0,6.0,2.0,1.0,6.0,0.0,0.0,1.0,1.0,phase_2,stop,200.0,250.0,4.0,,,,,,,,,blue,hexagon
0.0,2.0,2.0,0.0,5.0,5.0,425.2111459991283,1.0,1.0,phase_2,go,200.0,300.0,1.0,,,,,,,,,magenta,cross
0.0,5.0,1.0,1.0,6.0,0.0,0.0,1.0,1.0,phase_2,stop,200.0,300.0,4.0,,,,,,,,,gray,triangle
0.0,4.0,4.0,0.0,5.0,5.0,411.0636410005099,1.0,1.0,phase_2,go,200.0,350.0,1.0,,,,,,,,,cyan,square
0.0,6.0,2.0,1.0,5.0,5.0,403.1631339985324,1.0,1.0,phase_2,stop,200.0,350.0,3.0,,,,,,,,,blue,hexagon
0.0,2.0,2.0,0.0,6.0,6.0,567.9929050002102,1.0,1.0,phase_2,go,150.0,350.0,1.0,,,,,,,,,magenta,cross
0.0,3.0,3.0,0.0,5.0,5.0,384.378746000948,1.0,1.0,phase_2,go,150.0,350.0,1.0,,,,,,,,,yellow,circle
0.0,6.0,2.0,1.0,5.0,0.0,0.0,1.0,1.0,phase_2,stop,150.0,350.0,4.0,,,,,,,,,blue,hexagon
0.0,3.0,3.0,0.0,5.0,5.0,477.3052729997289,2.0,1.0,phase_2,go,200.0,350.0,1.0,,,,,,,,,yellow,circle
0.0,7.0,3.0,1.0,5.0,5.0,465.693830001328,2.0,1.0,phase_2,stop,200.0,350.0,3.0,,,,,,,,,white,I
0.0,8.0,4.0,1.0,5.0,0.0,0.0,2.0,1.0,phase_2,stop,150.0,350.0,4.0,,,,,,,,,green,flipped triangle
0.0,5.0,1.0,1.0,6.0,6.0,479.0692139995371,2.0,1.0,phase_2,stop,200.0,350.0,3.0,,,,,,,,,gray,triangle
0.0,1.0,1.0,0.0,5.0,5.0,517.3499530010304,2.0,1.0,phase_2,go,200.0,300.0,1.0,,,,,,,,,orange,diamond
0.0,4.0,4.0,0.0,5.0,5.0,414.9425249997875,2.0,1.0,phase_2,go,200.0,300.0,1.0,,,,,,,,,cyan,square
0.0,4.0,4.0,0.0,5.0,5.0,421.3667140011239,2.0,1.0,phase_2,go,200.0,300.0,1.0,,,,,,,,,cyan,square
0.0,4.0,4.0,0.0,5.0,5.0,395.228887000485,2.0,1.0,phase_2,go,200.0,300.0,1.0,,,,,,,,,cyan,square
0.0,7.0,3.0,1.0,6.0,0.0,0.0,2.0,1.0,phase_2,stop,200.0,300.0,4.0,,,,,,,,,white,I
0.0,4.0,4.0,0.0,5.0,5.0,588.2683509989874,2.0,1.0,phase_2,go,200.0,350.0,1.0,,,,,,,,,cyan,square
0.0,7.0,3.0,1.0,5.0,5.0,684.4206189998658,2.0,1.0,phase_2,go,200.0,350.0,1.0,,,,,,,,,white,I
0.0,3.0,3.0,0.0,5.0,5.0,562.9881250006292,2.0,1.0,phase_2,go,200.0,350.0,1.0,,,,,,,,,yellow,circle
0.0,5.0,1.0,1.0,6.0,6.0,618.2844420000038,2.0,1.0,phase_2,go,200.0,350.0,1.0,,,,,,,,,gray,triangle
0.0,7.0,3.0,1.0,6.0,6.0,404.5650230000319,2.0,1.0,phase_2,stop,200.0,350.0,3.0,,,,,,,,,white,I
0.0,1.0,1.0,0.0,6.0,6.0,619.5175860011659,2.0,1.0,phase_2,go,200.0,300.0,1.0,,,,,,,,,orange,diamond
0.0,1.0,1.0,0.0,5.0,5.0,524.623065999549,2.0,1.0,phase_2,go,200.0,300.0,1.0,,,,,,,,,orange,diamond
0.0,8.0,4.0,1.0,5.0,5.0,402.8472019999753,2.0,1.0,phase_2,stop,200.0,300.0,3.0,,,,,,,,,green,flipped triangle
0.0,2.0,2.0,0.0,5.0,5.0,665.6618590004655,2.0,1.0,phase_2,go,150.0,300.0,1.0,,,,,,,,,magenta,cross
0.0,4.0,4.0,0.0,6.0,6.0,569.2431699990266,2.0,1.0,phase_2,go,150.0,300.0,1.0,,,,,,,,,cyan,square
0.0,4.0,4.0,0.0,6.0,6.0,365.2699670001311,2.0,1.0,phase_2,go,150.0,300.0,1.0,,,,,,,,,cyan,square
0.0,7.0,3.0,1.0,6.0,6.0,394.8309580009663,2.0,1.0,phase_2,go,150.0,300.0,1.0,,,,,,,,,white,I
0.0,7.0,3.0,1.0,6.0,0.0,0.0,2.0,1.0,phase_2,stop,150.0,300.0,4.0,,,,,,,,,white,I
0.0,1.0,1.0,0.0,6.0,6.0,515.567636999549,2.0,1.0,phase_2,go,150.0,350.0,1.0,,,,,,,,,orange,diamond
0.0,2.0,2.0,0.0,5.0,5.0,496.56559200047917,2.0,1.0,phase_2,go,150.0,350.0,1.0,,,,,,,,,magenta,cross
0.0,5.0,1.0,1.0,6.0,0.0,0.0,2.0,1.0,phase_2,stop,150.0,350.0,4.0,,,,,,,,,gray,triangle
0.0,7.0,3.0,1.0,5.0,0.0,0.0,2.0,1.0,phase_2,stop,150.0,400.0,4.0,,,,,,,,,white,I
0.0,4.0,4.0,0.0,6.0,6.0,329.2303689995606,2.0,1.0,phase_2,go,200.0,400.0,1.0,,,,,,,,,cyan,square
0.0,3.0,3.0,0.0,5.0,5.0,412.1109160005289,2.0,1.0,phase_2,go,200.0,400.0,1.0,,,,,,,,,yellow,circle
0.0,8.0,4.0,1.0,6.0,6.0,300.6325819987978,2.0,1.0,phase_2,stop,200.0,400.0,3.0,,,,,,,,,green,flipped triangle
0.0,5.0,1.0,1.0,5.0,5.0,562.6631600007386,2.0,1.0,phase_2,go,200.0,350.0,1.0,,,,,,,,,gray,triangle
0.0,3.0,3.0,0.0,6.0,6.0,533.8210059999255,2.0,1.0,phase_2,go,200.0,350.0,1.0,,,,,,,,,yellow,circle
0.0,5.0,1.0,1.0,6.0,6.0,431.6265059987927,2.0,1.0,phase_2,stop,200.0,350.0,3.0,,,,,,,,,gray,triangle
0.0,2.0,2.0,0.0,5.0,5.0,757.4305229991296,2.0,1.0,phase_2,go,200.0,300.0,1.0,,,,,,,,,magenta,cross
0.0,8.0,4.0,1.0,5.0,5.0,506.50087499889196,2.0,1.0,phase_2,go,200.0,300.0,1.0,,,,,,,,,green,flipped triangle
0.0,7.0,3.0,1.0,6.0,6.0,676.5566279991617,2.0,1.0,phase_2,go,200.0,300.0,1.0,,,,,,,,,white,I
0.0,1.0,1.0,0.0,5.0,5.0,703.386531000433,2.0,1.0,phase_2,go,200.0,300.0,1.0,,,,,,,,,orange,diamond
0.0,7.0,3.0,1.0,6.0,6.0,458.0827470017539,3.0,1.0,phase_2,stop,200.0,300.0,3.0,,,,,,,,,white,I
0.0,1.0,1.0,0.0,5.0,5.0,467.68197900019,3.0,1.0,phase_2,go,200.0,250.0,1.0,,,,,,,,,orange,diamond
0.0,4.0,4.0,0.0,6.0,6.0,347.5788529995043,3.0,1.0,phase_2,go,200.0,250.0,1.0,,,,,,,,,cyan,square
0.0,2.0,2.0,0.0,5.0,5.0,364.2576839993126,3.0,1.0,phase_2,go,200.0,250.0,1.0,,,,,,,,,magenta,cross
0.0,1.0,1.0,0.0,6.0,6.0,327.8628259995457,3.0,1.0,phase_2,go,200.0,250.0,1.0,,,,,,,,,orange,diamond
0.0,6.0,2.0,1.0,6.0,6.0,433.1670120009221,3.0,1.0,phase_2,go,200.0,250.0,1.0,,,,,,,,,blue,hexagon
0.0,4.0,4.0,0.0,5.0,5.0,504.9241950000578,3.0,1.0,phase_2,go,200.0,250.0,1.0,,,,,,,,,cyan,square
0.0,7.0,3.0,1.0,5.0,5.0,395.5386690013256,3.0,1.0,phase_2,stop,200.0,250.0,3.0,,,,,,,,,white,I
0.0,6.0,2.0,1.0,6.0,6.0,497.0719270004338,3.0,1.0,phase_2,go,150.0,250.0,1.0,,,,,,,,,blue,hexagon
0.0,8.0,4.0,1.0,6.0,6.0,431.4344310005253,3.0,1.0,phase_2,stop,150.0,250.0,3.0,,,,,,,,,green,flipped triangle
0.0,6.0,2.0,1.0,6.0,0.0,0.0,3.0,1.0,phase_2,stop,150.0,200.0,4.0,,,,,,,,,blue,hexagon
0.0,5.0,1.0,1.0,6.0,0.0,0.0,3.0,1.0,phase_2,stop,150.0,250.0,4.0,,,,,,,,,gray,triangle
0.0,3.0,3.0,0.0,6.0,6.0,591.0011439991649,3.0,1.0,phase_2,go,150.0,300.0,1.0,,,,,,,,,yellow,circle
0.0,5.0,1.0,1.0,5.0,5.0,313.9392060002137,3.0,1.0,phase_2,stop,150.0,300.0,3.0,,,,,,,,,gray,triangle
0.0,4.0,4.0,0.0,5.0,5.0,552.2479209994344,3.0,1.0,phase_2,go,100.0,300.0,1.0,,,,,,,,,cyan,square
0.0,2.0,2.0,0.0,6.0,6.0,458.288789001017,3.0,1.0,phase_2,go,100.0,300.0,1.0,,,,,,,,,magenta,cross
0.0,7.0,3.0,1.0,5.0,0.0,0.0,3.0,1.0,phase_2,stop,100.0,300.0,4.0,,,,,,,,,white,I
0.0,5.0,1.0,1.0,5.0,5.0,608.3422909996443,3.0,1.0,phase_2,go,150.0,300.0,1.0,,,,,,,,,gray,triangle
0.0,7.0,3.0,1.0,6.0,0.0,0.0,3.0,1.0,phase_2,stop,150.0,300.0,4.0,,,,,,,,,white,I
0.0,1.0,1.0,0.0,5.0,5.0,552.496219999739,3.0,1.0,phase_2,go,150.0,350.0,1.0,,,,,,,,,orange,diamond
0.0,4.0,4.0,0.0,6.0,6.0,533.262492999711,3.0,1.0,phase_2,go,150.0,350.0,1.0,,,,,,,,,cyan,square
0.0,7.0,3.0,1.0,5.0,5.0,312.4163819993555,3.0,1.0,phase_2,stop,150.0,350.0,3.0,,,,,,,,,white,I
0.0,8.0,4.0,1.0,5.0,0.0,0.0,3.0,1.0,phase_2,stop,100.0,350.0,4.0,,,,,,,,,green,flipped triangle
0.0,5.0,1.0,1.0,5.0,0.0,0.0,3.0,1.0,phase_2,stop,150.0,350.0,4.0,,,,,,,,,gray,triangle
0.0,8.0,4.0,1.0,6.0,6.0,347.0218689999456,3.0,1.0,phase_2,go,200.0,350.0,1.0,,,,,,,,,green,flipped triangle
0.0,2.0,2.0,0.0,6.0,6.0,458.2866729997477,3.0,1.0,phase_2,go,200.0,350.0,1.0,,,,,,,,,magenta,cross
0.0,4.0,4.0,0.0,6.0,6.0,486.9746259992098,3.0,1.0,phase_2,go,200.0,350.0,1.0,,,,,,,,,cyan,square
0.0,5.0,1.0,1.0,5.0,0.0,0.0,3.0,1.0,phase_2,stop,200.0,350.0,4.0,,,,,,,,,gray,triangle
0.0,1.0,1.0,0.0,5.0,5.0,597.5905359991884,3.0,1.0,phase_2,go,250.0,350.0,1.0,,,,,,,,,orange,diamond
0.0,7.0,3.0,1.0,6.0,6.0,396.7667190008797,3.0,1.0,phase_2,stop,250.0,350.0,3.0,,,,,,,,,white,I
0.0,6.0,2.0,1.0,6.0,6.0,467.0162860002165,3.0,1.0,phase_2,stop,250.0,300.0,3.0,,,,,,,,,blue,hexagon
0.0,2.0,2.0,0.0,6.0,6.0,709.9090810006601,3.0,1.0,phase_2,go,250.0,250.0,1.0,,,,,,,,,magenta,cross
0.0,6.0,2.0,1.0,6.0,6.0,775.421219999771,3.0,1.0,phase_2,go,250.0,250.0,1.0,,,,,,,,,blue,hexagon
0.0,8.0,4.0,1.0,5.0,0.0,0.0,3.0,1.0,phase_2,stop,250.0,250.0,4.0,,,,,,,,,green,flipped triangle
0.0,3.0,3.0,0.0,5.0,5.0,570.7005069998559,3.0,1.0,phase_2,go,300.0,250.0,1.0,,,,,,,,,yellow,circle
0.0,1.0,1.0,0.0,5.0,5.0,524.614345998998,3.0,1.0,phase_2,go,300.0,250.0,1.0,,,,,,,,,orange,diamond
0.0,1.0,1.0,0.0,6.0,6.0,448.648454999784,4.0,1.0,phase_2,go,300.0,250.0,1.0,,,,,,,,,orange,diamond
0.0,4.0,4.0,0.0,5.0,5.0,458.7461270002677,4.0,1.0,phase_2,go,300.0,250.0,1.0,,,,,,,,,cyan,square
0.0,7.0,3.0,1.0,5.0,5.0,403.259471999263,4.0,1.0,phase_2,stop,300.0,250.0,3.0,,,,,,,,,white,I
0.0,5.0,1.0,1.0,5.0,0.0,0.0,4.0,1.0,phase_2,stop,250.0,250.0,4.0,,,,,,,,,gray,triangle
0.0,4.0,4.0,0.0,5.0,5.0,608.5093700003199,4.0,1.0,phase_2,go,300.0,250.0,1.0,,,,,,,,,cyan,square
0.0,5.0,1.0,1.0,6.0,6.0,356.6975600006117,4.0,1.0,phase_2,stop,300.0,250.0,3.0,,,,,,,,,gray,triangle
0.0,6.0,2.0,1.0,6.0,0.0,0.0,4.0,1.0,phase_2,stop,300.0,200.0,4.0,,,,,,,,,blue,hexagon
0.0,1.0,1.0,0.0,6.0,6.0,543.453498999952,4.0,1.0,phase_2,go,300.0,250.0,1.0,,,,,,,,,orange,diamond
0.0,7.0,3.0,1.0,5.0,5.0,336.6378890004853,4.0,1.0,phase_2,stop,300.0,250.0,3.0,,,,,,,,,white,I
0.0,7.0,3.0,1.0,6.0,6.0,588.9625229992816,4.0,1.0,phase_2,go,250.0,250.0,1.0,,,,,,,,,white,I
0.0,4.0,4.0,0.0,6.0,6.0,357.1366450014466,4.0,1.0,phase_2,go,250.0,250.0,1.0,,,,,,,,,cyan,square
0.0,4.0,4.0,0.0,6.0,6.0,477.9136159995687,4.0,1.0,phase_2,go,250.0,250.0,1.0,,,,,,,,,cyan,square
0.0,6.0,2.0,1.0,6.0,6.0,348.0234390008263,4.0,1.0,phase_2,stop,250.0,250.0,3.0,,,,,,,,,blue,hexagon
0.0,8.0,4.0,1.0,5.0,0.0,0.0,4.0,1.0,phase_2,stop,250.0,200.0,4.0,,,,,,,,,green,flipped triangle
0.0,6.0,2.0,1.0,6.0,0.0,0.0,4.0,1.0,phase_2,stop,300.0,200.0,4.0,,,,,,,,,blue,hexagon
0.0,2.0,2.0,0.0,6.0,6.0,541.855809999106,4.0,1.0,phase_2,go,300.0,250.0,1.0,,,,,,,,,magenta,cross
0.0,3.0,3.0,0.0,6.0,6.0,411.8638529998861,4.0,1.0,phase_2,go,300.0,250.0,1.0,,,,,,,,,yellow,circle
0.0,8.0,4.0,1.0,5.0,5.0,711.414548999528,4.0,1.0,phase_2,go,300.0,250.0,1.0,,,,,,,,,green,flipped triangle
0.0,5.0,1.0,1.0,5.0,0.0,0.0,4.0,1.0,phase_2,stop,300.0,250.0,4.0,,,,,,,,,gray,triangle
0.0,1.0,1.0,0.0,6.0,6.0,544.3985540005087,4.0,1.0,phase_2,go,350.0,250.0,1.0,,,,,,,,,orange,diamond
0.0,4.0,4.0,0.0,6.0,6.0,477.407819000291,4.0,1.0,phase_2,go,350.0,250.0,1.0,,,,,,,,,cyan,square
0.0,8.0,4.0,1.0,6.0,0.0,0.0,4.0,1.0,phase_2,stop,350.0,250.0,4.0,,,,,,,,,green,flipped triangle
0.0,5.0,1.0,1.0,6.0,0.0,0.0,4.0,1.0,phase_2,stop,350.0,300.0,4.0,,,,,,,,,gray,triangle
0.0,3.0,3.0,0.0,5.0,5.0,534.2106240004796,4.0,1.0,phase_2,go,350.0,350.0,1.0,,,,,,,,,yellow,circle
0.0,6.0,2.0,1.0,5.0,5.0,464.1861740001332,4.0,1.0,phase_2,stop,350.0,350.0,3.0,,,,,,,,,blue,hexagon
0.0,2.0,2.0,0.0,5.0,5.0,553.7087880002218,4.0,1.0,phase_2,go,300.0,350.0,1.0,,,,,,,,,magenta,cross
0.0,5.0,1.0,1.0,6.0,6.0,529.0180140000302,4.0,1.0,phase_2,stop,300.0,350.0,3.0,,,,,,,,,gray,triangle
0.0,5.0,1.0,1.0,5.0,5.0,485.4481990005297,4.0,1.0,phase_2,stop,300.0,300.0,3.0,,,,,,,,,gray,triangle
0.0,7.0,3.0,1.0,5.0,0.0,0.0,4.0,1.0,phase_2,stop,250.0,300.0,4.0,,,,,,,,,white,I
0.0,2.0,2.0,0.0,6.0,6.0,570.8012779996352,4.0,1.0,phase_2,go,300.0,300.0,1.0,,,,,,,,,magenta,cross
0.0,2.0,2.0,0.0,6.0,6.0,430.2879080005368,4.0,1.0,phase_2,go,300.0,300.0,1.0,,,,,,,,,magenta,cross
0.0,3.0,3.0,0.0,6.0,6.0,478.8652779989206,4.0,1.0,phase_2,go,300.0,300.0,1.0,,,,,,,,,yellow,circle
0.0,2.0,2.0,0.0,6.0,6.0,469.9823669998295,4.0,1.0,phase_2,go,300.0,300.0,1.0,,,,,,,,,magenta,cross
0.0,8.0,4.0,1.0,6.0,6.0,1028.164225999717,4.0,1.0,phase_2,go,300.0,300.0,1.0,,,,,,,,,green,flipped triangle
0.0,6.0,2.0,1.0,5.0,0.0,0.0,4.0,1.0,phase_2,stop,300.0,300.0,4.0,,,,,,,,,blue,hexagon
0.0,7.0,3.0,1.0,5.0,5.0,501.45621199953894,4.0,1.0,phase_2,stop,350.0,300.0,3.0,,,,,,,,,white,I
0.0,3.0,3.0,0.0,5.0,5.0,450.4204539989587,5.0,1.0,phase_2,go,300.0,300.0,1.0,,,,,,,,,yellow,circle
0.0,2.0,2.0,0.0,6.0,6.0,478.6292959997809,5.0,1.0,phase_2,go,300.0,300.0,1.0,,,,,,,,,magenta,cross
0.0,7.0,3.0,1.0,5.0,5.0,390.6823220004298,5.0,1.0,phase_2,stop,300.0,300.0,3.0,,,,,,,,,white,I
0.0,7.0,3.0,1.0,6.0,0.0,0.0,5.0,1.0,phase_2,stop,250.0,300.0,4.0,,,,,,,,,white,I
0.0,2.0,2.0,0.0,6.0,6.0,505.94430199998897,5.0,1.0,phase_2,go,250.0,350.0,1.0,,,,,,,,,magenta,cross
0.0,7.0,3.0,1.0,5.0,0.0,0.0,5.0,1.0,phase_2,stop,250.0,350.0,4.0,,,,,,,,,white,I
0.0,3.0,3.0,0.0,5.0,5.0,544.6005110006809,5.0,1.0,phase_2,go,300.0,350.0,1.0,,,,,,,,,yellow,circle
0.0,4.0,4.0,0.0,6.0,6.0,346.8337680005788,5.0,1.0,phase_2,go,300.0,350.0,1.0,,,,,,,,,cyan,square
0.0,6.0,2.0,1.0,5.0,0.0,0.0,5.0,1.0,phase_2,stop,300.0,350.0,4.0,,,,,,,,,blue,hexagon
0.0,7.0,3.0,1.0,6.0,0.0,0.0,5.0,1.0,phase_2,stop,350.0,350.0,4.0,,,,,,,,,white,I
0.0,1.0,1.0,0.0,5.0,5.0,618.0258499989577,5.0,1.0,phase_2,go,350.0,400.0,1.0,,,,,,,,,orange,diamond
0.0,3.0,3.0,0.0,6.0,6.0,579.7680039995612,5.0,1.0,phase_2,go,350.0,400.0,1.0,,,,,,,,,yellow,circle
0.0,1.0,1.0,0.0,6.0,6.0,459.9633160014491,5.0,1.0,phase_2,go,350.0,400.0,1.0,,,,,,,,,orange,diamond
0.0,8.0,4.0,1.0,5.0,5.0,562.4745469995105,5.0,1.0,phase_2,go,350.0,400.0,1.0,,,,,,,,,green,flipped triangle
0.0,1.0,1.0,0.0,6.0,6.0,468.8564899988705,5.0,1.0,phase_2,go,350.0,400.0,1.0,,,,,,,,,orange,diamond
0.0,6.0,2.0,1.0,5.0,5.0,347.4662759999773,5.0,1.0,phase_2,go,350.0,400.0,1.0,,,,,,,,,blue,hexagon
0.0,7.0,3.0,1.0,6.0,6.0,512.7378159995715,5.0,1.0,phase_2,stop,350.0,400.0,3.0,,,,,,,,,white,I
0.0,2.0,2.0,0.0,5.0,5.0,561.8769989996508,5.0,1.0,phase_2,go,350.0,350.0,1.0,,,,,,,,,magenta,cross
0.0,6.0,2.0,1.0,5.0,5.0,539.3582419983431,5.0,1.0,phase_2,stop,350.0,350.0,3.0,,,,,,,,,blue,hexagon
0.0,4.0,4.0,0.0,6.0,6.0,626.4114890000201,5.0,1.0,phase_2,go,300.0,350.0,1.0,,,,,,,,,cyan,square
0.0,7.0,3.0,1.0,6.0,6.0,767.8099979984836,5.0,1.0,phase_2,go,300.0,350.0,1.0,,,,,,,,,white,I
0.0,5.0,1.0,1.0,6.0,6.0,407.9184220008756,5.0,1.0,phase_2,stop,300.0,350.0,3.0,,,,,,,,,gray,triangle
0.0,5.0,1.0,1.0,5.0,0.0,0.0,5.0,1.0,phase_2,stop,300.0,300.0,4.0,,,,,,,,,gray,triangle
0.0,1.0,1.0,0.0,5.0,5.0,516.5041419986665,5.0,1.0,phase_2,go,350.0,300.0,1.0,,,,,,,,,orange,diamond
0.0,3.0,3.0,0.0,5.0,5.0,487.4404309994133,5.0,1.0,phase_2,go,350.0,300.0,1.0,,,,,,,,,yellow,circle
0.0,1.0,1.0,0.0,5.0,5.0,431.8009179987712,5.0,1.0,phase_2,go,350.0,300.0,1.0,,,,,,,,,orange,diamond
0.0,4.0,4.0,0.0,6.0,6.0,484.3427899995731,5.0,1.0,phase_2,go,350.0,300.0,1.0,,,,,,,,,cyan,square
0.0,2.0,2.0,0.0,5.0,5.0,449.6482979993743,5.0,1.0,phase_2,go,350.0,300.0,1.0,,,,,,,,,magenta,cross
0.0,8.0,4.0,1.0,6.0,6.0,271.1666469986085,5.0,1.0,phase_2,stop,350.0,300.0,3.0,,,,,,,,,green,flipped triangle
0.0,6.0,2.0,1.0,5.0,0.0,0.0,5.0,1.0,phase_2,stop,350.0,250.0,4.0,,,,,,,,,blue,hexagon
0.0,7.0,3.0,1.0,6.0,6.0,534.504162000303,5.0,1.0,phase_2,go,400.0,250.0,1.0,,,,,,,,,white,I
0.0,8.0,4.0,1.0,6.0,0.0,0.0,5.0,1.0,phase_2,stop,400.0,250.0,4.0,,,,,,,,,green,flipped triangle
0.0,6.0,2.0,1.0,5.0,0.0,0.0,5.0,1.0,phase_2,stop,400.0,300.0,4.0,,,,,,,,,blue,hexagon
0.0,5.0,1.0,1.0,5.0,5.0,641.8090600000141,5.0,1.0,phase_2,stop,450.0,300.0,3.0,,,,,,,,,gray,triangle
0.0,1.0,1.0,0.0,6.0,6.0,496.8613210003241,5.0,1.0,phase_2,go,400.0,300.0,1.0,,,,,,,,,orange,diamond
0.0,1.0,1.0,0.0,5.0,5.0,496.1476200005563,5.0,1.0,phase_2,go,400.0,300.0,1.0,,,,,,,,,orange,diamond
0.0,4.0,4.0,0.0,5.0,1.0,560.1054020007723,6.0,1.0,phase_2,go,400.0,300.0,2.0,,,,,,,,,cyan,square
0.0,3.0,3.0,0.0,6.0,6.0,327.4244610001915,6.0,1.0,phase_2,go,400.0,300.0,1.0,,,,,,,,,yellow,circle
0.0,8.0,4.0,1.0,6.0,6.0,335.7940499990945,6.0,1.0,phase_2,stop,400.0,300.0,3.0,,,,,,,,,green,flipped triangle
0.0,2.0,2.0,0.0,6.0,6.0,563.3649619994685,6.0,1.0,phase_2,go,400.0,250.0,1.0,,,,,,,,,magenta,cross
0.0,2.0,2.0,0.0,6.0,6.0,355.5005649996019,6.0,1.0,phase_2,go,400.0,250.0,1.0,,,,,,,,,magenta,cross
0.0,4.0,4.0,0.0,5.0,5.0,551.8032430009043,6.0,1.0,phase_2,go,400.0,250.0,1.0,,,,,,,,,cyan,square
0.0,7.0,3.0,1.0,5.0,5.0,337.6712030003546,6.0,1.0,phase_2,stop,400.0,250.0,3.0,,,,,,,,,white,I
0.0,3.0,3.0,0.0,6.0,6.0,382.718429000306,6.0,1.0,phase_2,go,350.0,250.0,1.0,,,,,,,,,yellow,circle
0.0,8.0,4.0,1.0,5.0,5.0,557.7890180011309,6.0,1.0,phase_2,stop,350.0,250.0,3.0,,,,,,,,,green,flipped triangle
0.0,1.0,1.0,0.0,6.0,6.0,505.807139999888,6.0,1.0,phase_2,go,300.0,250.0,1.0,,,,,,,,,orange,diamond
0.0,6.0,2.0,1.0,5.0,0.0,0.0,6.0,1.0,phase_2,stop,300.0,250.0,4.0,,,,,,,,,blue,hexagon
0.0,6.0,2.0,1.0,6.0,0.0,0.0,6.0,1.0,phase_2,stop,350.0,250.0,4.0,,,,,,,,,blue,hexagon
0.0,3.0,3.0,0.0,5.0,5.0,599.9925510004687,6.0,1.0,phase_2,go,350.0,300.0,1.0,,,,,,,,,yellow,circle
0.0,1.0,1.0,0.0,5.0,5.0,411.8030219997308,6.0,1.0,phase_2,go,350.0,300.0,1.0,,,,,,,,,orange,diamond
0.0,2.0,2.0,0.0,5.0,5.0,440.185258999918,6.0,1.0,phase_2,go,350.0,300.0,1.0,,,,,,,,,magenta,cross
0.0,3.0,3.0,0.0,5.0,5.0,412.4145130008401,6.0,1.0,phase_2,go,350.0,300.0,1.0,,,,,,,,,yellow,circle
0.0,6.0,2.0,1.0,5.0,5.0,401.6911339986109,6.0,1.0,phase_2,stop,350.0,300.0,3.0,,,,,,,,,blue,hexagon
0.0,7.0,3.0,1.0,5.0,5.0,795.520346999183,6.0,1.0,phase_2,go,300.0,300.0,1.0,,,,,,,,,white,I
0.0,4.0,4.0,0.0,5.0,5.0,656.1786839993147,6.0,1.0,phase_2,go,300.0,300.0,1.0,,,,,,,,,cyan,square
0.0,1.0,1.0,0.0,6.0,6.0,673.1533340007445,6.0,1.0,phase_2,go,300.0,300.0,1.0,,,,,,,,,orange,diamond
0.0,4.0,4.0,0.0,6.0,6.0,460.1806339996983,6.0,1.0,phase_2,go,300.0,300.0,1.0,,,,,,,,,cyan,square
0.0,8.0,4.0,1.0,5.0,5.0,558.78732400015,6.0,1.0,phase_2,stop,300.0,300.0,3.0,,,,,,,,,green,flipped triangle
0.0,4.0,4.0,0.0,6.0,6.0,580.1389810003457,6.0,1.0,phase_2,go,250.0,300.0,1.0,,,,,,,,,cyan,square
0.0,8.0,4.0,1.0,5.0,0.0,0.0,6.0,1.0,phase_2,stop,250.0,300.0,4.0,,,,,,,,,green,flipped triangle
0.0,6.0,2.0,1.0,6.0,6.0,458.660812000744,6.0,1.0,phase_2,stop,300.0,300.0,3.0,,,,,,,,,blue,hexagon
0.0,4.0,4.0,0.0,5.0,5.0,533.0107120007597,6.0,1.0,phase_2,go,300.0,250.0,1.0,,,,,,,,,cyan,square
0.0,3.0,3.0,0.0,6.0,6.0,487.9318399998738,6.0,1.0,phase_2,go,300.0,250.0,1.0,,,,,,,,,yellow,circle
0.0,7.0,3.0,1.0,6.0,6.0,384.1721670014522,6.0,1.0,phase_2,stop,300.0,250.0,3.0,,,,,,,,,white,I
0.0,3.0,3.0,0.0,5.0,5.0,628.2005899993237,6.0,1.0,phase_2,go,300.0,200.0,1.0,,,,,,,,,yellow,circle
0.0,3.0,3.0,0.0,6.0,6.0,477.6336070008256,6.0,1.0,phase_2,go,300.0,200.0,1.0,,,,,,,,,yellow,circle
0.0,6.0,2.0,1.0,6.0,6.0,440.5802630008111,6.0,1.0,phase_2,stop,300.0,200.0,3.0,,,,,,,,,blue,hexagon
0.0,8.0,4.0,1.0,5.0,0.0,0.0,6.0,1.0,phase_2,stop,300.0,150.0,4.0,,,,,,,,,green,flipped triangle
0.0,1.0,1.0,0.0,6.0,6.0,543.3381929997267,6.0,1.0,phase_2,go,350.0,150.0,1.0,,,,,,,,,orange,diamond
0.0,2.0,2.0,0.0,6.0,6.0,525.5257829994662,6.0,1.0,phase_2,go,350.0,150.0,1.0,,,,,,,,,magenta,cross
0.0,2.0,2.0,0.0,5.0,5.0,572.8992180011119,6.0,1.0,phase_2,go,350.0,150.0,1.0,,,,,,,,,magenta,cross
0.0,6.0,2.0,1.0,6.0,6.0,318.3771490002982,6.0,1.0,phase_2,go,350.0,150.0,1.0,,,,,,,,,blue,hexagon
0.0,1.0,1.0,0.0,6.0,6.0,747.9806100000133,7.0,1.0,phase_2,go,350.0,150.0,1.0,,,,,,,,,orange,diamond
0.0,5.0,1.0,1.0,5.0,5.0,346.1303860003681,7.0,1.0,phase_2,stop,350.0,150.0,3.0,,,,,,,,,gray,triangle
0.0,1.0,1.0,0.0,5.0,5.0,617.4577669989958,7.0,1.0,phase_2,go,300.0,150.0,1.0,,,,,,,,,orange,diamond
0.0,1.0,1.0,0.0,6.0,6.0,317.5499849985499,7.0,1.0,phase_2,go,300.0,150.0,1.0,,,,,,,,,orange,diamond
0.0,3.0,3.0,0.0,6.0,6.0,391.8858840006578,7.0,1.0,phase_2,go,300.0,150.0,1.0,,,,,,,,,yellow,circle
0.0,2.0,2.0,0.0,6.0,6.0,440.2101870000479,7.0,1.0,phase_2,go,300.0,150.0,1.0,,,,,,,,,magenta,cross
0.0,8.0,4.0,1.0,6.0,0.0,0.0,7.0,1.0,phase_2,stop,300.0,150.0,4.0,,,,,,,,,green,flipped triangle
0.0,1.0,1.0,0.0,6.0,6.0,672.6100779997068,7.0,1.0,phase_2,go,300.0,200.0,1.0,,,,,,,,,orange,diamond
0.0,8.0,4.0,1.0,5.0,0.0,0.0,7.0,1.0,phase_2,stop,300.0,200.0,4.0,,,,,,,,,green,flipped triangle
0.0,8.0,4.0,1.0,6.0,0.0,0.0,7.0,1.0,phase_2,stop,350.0,200.0,4.0,,,,,,,,,green,flipped triangle
0.0,5.0,1.0,1.0,5.0,5.0,702.2130920013296,7.0,1.0,phase_2,go,350.0,250.0,1.0,,,,,,,,,gray,triangle
0.0,8.0,4.0,1.0,6.0,6.0,559.8374020009942,7.0,1.0,phase_2,go,350.0,250.0,1.0,,,,,,,,,green,flipped triangle
0.0,7.0,3.0,1.0,6.0,0.0,0.0,7.0,1.0,phase_2,stop,350.0,250.0,4.0,,,,,,,,,white,I
0.0,2.0,2.0,0.0,6.0,6.0,516.7059620016516,7.0,1.0,phase_2,go,350.0,300.0,1.0,,,,,,,,,magenta,cross
0.0,2.0,2.0,0.0,5.0,5.0,448.5332130007009,7.0,1.0,phase_2,go,350.0,300.0,1.0,,,,,,,,,magenta,cross
0.0,5.0,1.0,1.0,6.0,6.0,353.78179700092,7.0,1.0,phase_2,stop,350.0,300.0,3.0,,,,,,,,,gray,triangle
0.0,6.0,2.0,1.0,6.0,6.0,720.4704510004376,7.0,1.0,phase_2,go,350.0,250.0,1.0,,,,,,,,,blue,hexagon
0.0,5.0,1.0,1.0,6.0,6.0,728.0623950009613,7.0,1.0,phase_2,go,350.0,250.0,1.0,,,,,,,,,gray,triangle
0.0,4.0,4.0,0.0,5.0,5.0,588.7967929993465,7.0,1.0,phase_2,go,350.0,250.0,1.0,,,,,,,,,cyan,square
0.0,6.0,2.0,1.0,5.0,5.0,397.0855709994794,7.0,1.0,phase_2,stop,350.0,250.0,3.0,,,,,,,,,blue,hexagon
0.0,6.0,2.0,1.0,6.0,0.0,0.0,7.0,1.0,phase_2,stop,300.0,250.0,4.0,,,,,,,,,blue,hexagon
0.0,4.0,4.0,0.0,5.0,5.0,449.5023269992089,7.0,1.0,phase_2,go,300.0,300.0,1.0,,,,,,,,,cyan,square
0.0,4.0,4.0,0.0,6.0,6.0,579.9690460007696,7.0,1.0,phase_2,go,300.0,300.0,1.0,,,,,,,,,cyan,square
0.0,3.0,3.0,0.0,5.0,5.0,393.2121699999698,7.0,1.0,phase_2,go,300.0,300.0,1.0,,,,,,,,,yellow,circle
0.0,8.0,4.0,1.0,5.0,5.0,413.3902079993277,7.0,1.0,phase_2,go,300.0,300.0,1.0,,,,,,,,,green,flipped triangle
0.0,8.0,4.0,1.0,6.0,6.0,343.9375559992186,7.0,1.0,phase_2,stop,300.0,300.0,3.0,,,,,,,,,green,flipped triangle
0.0,3.0,3.0,0.0,5.0,5.0,743.1491360002838,7.0,1.0,phase_2,go,300.0,250.0,1.0,,,,,,,,,yellow,circle
0.0,7.0,3.0,1.0,6.0,6.0,384.978668000258,7.0,1.0,phase_2,go,300.0,250.0,1.0,,,,,,,,,white,I
0.0,2.0,2.0,0.0,6.0,6.0,401.5528449999692,7.0,1.0,phase_2,go,300.0,250.0,1.0,,,,,,,,,magenta,cross
0.0,7.0,3.0,1.0,6.0,6.0,344.1521559998364,7.0,1.0,phase_2,stop,300.0,250.0,3.0,,,,,,,,,white,I
0.0,5.0,1.0,1.0,6.0,6.0,516.3383889994293,7.0,1.0,phase_2,go,300.0,200.0,1.0,,,,,,,,,gray,triangle
0.0,3.0,3.0,0.0,5.0,5.0,383.2127130008302,7.0,1.0,phase_2,go,300.0,200.0,1.0,,,,,,,,,yellow,circle
0.0,3.0,3.0,0.0,6.0,6.0,486.1226879984315,7.0,1.0,phase_2,go,300.0,200.0,1.0,,,,,,,,,yellow,circle
0.0,6.0,2.0,1.0,5.0,5.0,344.5612199993775,7.0,1.0,phase_2,stop,300.0,200.0,3.0,,,,,,,,,blue,hexagon
0.0,5.0,1.0,1.0,6.0,6.0,348.9659229999233,7.0,1.0,phase_2,stop,250.0,200.0,3.0,,,,,,,,,gray,triangle
0.0,8.0,4.0,1.0,6.0,6.0,587.4811270005011,7.0,1.0,phase_2,go,250.0,150.0,1.0,,,,,,,,,green,flipped triangle
0.0,1.0,1.0,0.0,6.0,6.0,420.594240000355,8.0,1.0,phase_2,go,250.0,150.0,1.0,,,,,,,,,orange,diamond
0.0,4.0,4.0,0.0,6.0,6.0,457.0406169987109,8.0,1.0,phase_2,go,250.0,150.0,1.0,,,,,,,,,cyan,square
0.0,1.0,1.0,0.0,5.0,5.0,514.8296240004129,8.0,1.0,phase_2,go,250.0,150.0,1.0,,,,,,,,,orange,diamond
0.0,2.0,2.0,0.0,5.0,5.0,355.9744179983681,8.0,1.0,phase_2,go,250.0,150.0,1.0,,,,,,,,,magenta,cross
0.0,4.0,4.0,0.0,5.0,5.0,373.9852860016981,8.0,1.0,phase_2,go,250.0,150.0,1.0,,,,,,,,,cyan,square
0.0,5.0,1.0,1.0,5.0,5.0,343.1144819987821,8.0,1.0,phase_2,stop,250.0,150.0,3.0,,,,,,,,,gray,triangle
0.0,1.0,1.0,0.0,5.0,5.0,429.9298080004519,8.0,1.0,phase_2,go,200.0,150.0,1.0,,,,,,,,,orange,diamond
0.0,3.0,3.0,0.0,6.0,6.0,383.5785280007258,8.0,1.0,phase_2,go,200.0,150.0,1.0,,,,,,,,,yellow,circle
0.0,5.0,1.0,1.0,5.0,0.0,0.0,8.0,1.0,phase_2,stop,200.0,150.0,4.0,,,,,,,,,gray,triangle
0.0,5.0,1.0,1.0,6.0,6.0,561.490166999647,8.0,1.0,phase_2,go,250.0,150.0,1.0,,,,,,,,,gray,triangle
0.0,7.0,3.0,1.0,5.0,5.0,456.2674070002686,8.0,1.0,phase_2,stop,250.0,150.0,3.0,,,,,,,,,white,I
0.0,5.0,1.0,1.0,6.0,6.0,439.9913550005294,8.0,1.0,phase_2,stop,200.0,150.0,3.0,,,,,,,,,gray,triangle
0.0,3.0,3.0,0.0,5.0,5.0,533.2328619988402,8.0,1.0,phase_2,go,200.0,100.0,1.0,,,,,,,,,yellow,circle
0.0,8.0,4.0,1.0,6.0,0.0,0.0,8.0,1.0,phase_2,stop,200.0,100.0,4.0,,,,,,,,,green,flipped triangle
0.0,2.0,2.0,0.0,5.0,5.0,598.0092129993864,8.0,1.0,phase_2,go,200.0,150.0,1.0,,,,,,,,,magenta,cross
0.0,6.0,2.0,1.0,5.0,0.0,0.0,8.0,1.0,phase_2,stop,200.0,150.0,4.0,,,,,,,,,blue,hexagon
0.0,1.0,1.0,0.0,5.0,5.0,561.4731750010833,8.0,1.0,phase_2,go,250.0,150.0,1.0,,,,,,,,,orange,diamond
0.0,4.0,4.0,0.0,5.0,5.0,496.4088520009682,8.0,1.0,phase_2,go,250.0,150.0,1.0,,,,,,,,,cyan,square
0.0,6.0,2.0,1.0,5.0,5.0,455.2363880011398,8.0,1.0,phase_2,stop,250.0,150.0,3.0,,,,,,,,,blue,hexagon
0.0,1.0,1.0,0.0,5.0,5.0,645.9395729998505,8.0,1.0,phase_2,go,200.0,150.0,1.0,,,,,,,,,orange,diamond
0.0,3.0,3.0,0.0,5.0,5.0,506.85217600039323,8.0,1.0,phase_2,go,200.0,150.0,1.0,,,,,,,,,yellow,circle
0.0,1.0,1.0,0.0,5.0,5.0,522.9352170008497,8.0,1.0,phase_2,go,200.0,150.0,1.0,,,,,,,,,orange,diamond
0.0,2.0,2.0,0.0,5.0,5.0,542.9634190004435,8.0,1.0,phase_2,go,200.0,150.0,1.0,,,,,,,,,magenta,cross
0.0,5.0,1.0,1.0,5.0,0.0,0.0,8.0,1.0,phase_2,stop,200.0,150.0,4.0,,,,,,,,,gray,triangle
0.0,6.0,2.0,1.0,5.0,5.0,626.537993999591,8.0,1.0,phase_2,go,250.0,150.0,1.0,,,,,,,,,blue,hexagon
0.0,5.0,1.0,1.0,5.0,0.0,0.0,8.0,1.0,phase_2,stop,250.0,150.0,4.0,,,,,,,,,gray,triangle
0.0,8.0,4.0,1.0,6.0,0.0,0.0,8.0,1.0,phase_2,stop,300.0,150.0,4.0,,,,,,,,,green,flipped triangle
0.0,3.0,3.0,0.0,6.0,6.0,607.9722159993253,8.0,1.0,phase_2,go,300.0,200.0,1.0,,,,,,,,,yellow,circle
0.0,3.0,3.0,0.0,6.0,6.0,506.3344190002681,8.0,1.0,phase_2,go,300.0,200.0,1.0,,,,,,,,,yellow,circle
0.0,3.0,3.0,0.0,6.0,6.0,375.0561779997952,8.0,1.0,phase_2,go,300.0,200.0,1.0,,,,,,,,,yellow,circle
0.0,8.0,4.0,1.0,5.0,0.0,0.0,8.0,1.0,phase_2,stop,300.0,200.0,4.0,,,,,,,,,green,flipped triangle
0.0,5.0,1.0,1.0,6.0,6.0,590.3496150003775,8.0,1.0,phase_2,go,350.0,200.0,1.0,,,,,,,,,gray,triangle
0.0,6.0,2.0,1.0,5.0,5.0,601.274562000981,8.0,1.0,phase_2,stop,350.0,200.0,3.0,,,,,,,,,blue,hexagon
0.0,8.0,4.0,1.0,6.0,0.0,0.0,8.0,1.0,phase_2,stop,300.0,200.0,4.0,,,,,,,,,green,flipped triangle
0.0,4.0,4.0,0.0,5.0,5.0,523.561203999634,8.0,1.0,phase_2,go,300.0,250.0,1.0,,,,,,,,,cyan,square
0.0,5.0,1.0,1.0,6.0,0.0,0.0,8.0,1.0,phase_2,stop,300.0,250.0,4.0,,,,,,,,,gray,triangle
0.0,4.0,4.0,0.0,7.0,5.0,1958.9873820004868,1.0,1.0,phase_3,,,,,154.0,1.0,616.0,924.0,770.0,462.0,154.0,308.0,cyan,square
0.0,8.0,4.0,1.0,7.0,6.0,2240.243856998859,1.0,1.0,phase_3,,,,,960.0,5.0,1152.0,192.0,384.0,768.0,576.0,960.0,green,flipped triangle
0.0,4.0,4.0,0.0,7.0,1.0,2315.163778999704,1.0,1.0,phase_3,,,,,270.0,2.0,270.0,810.0,135.0,675.0,540.0,405.0,cyan,square
0.0,7.0,3.0,1.0,7.0,5.0,1302.0155980011625,1.0,1.0,phase_3,,,,,696.0,6.0,232.0,464.0,348.0,116.0,696.0,580.0,white,I
0.0,5.0,1.0,1.0,7.0,2.0,541.0047459990892,1.0,1.0,phase_3,,,,,675.0,5.0,810.0,675.0,135.0,270.0,540.0,405.0,gray,triangle
0.0,8.0,4.0,1.0,7.0,2.0,1701.215017001232,1.0,1.0,phase_3,,,,,768.0,4.0,576.0,768.0,192.0,384.0,960.0,1152.0,green,flipped triangle
0.0,2.0,2.0,0.0,7.0,5.0,1286.6039590007858,1.0,1.0,phase_3,,,,,865.0,5.0,1038.0,692.0,173.0,346.0,865.0,519.0,magenta,cross
0.0,1.0,1.0,0.0,7.0,3.0,1117.3136600009457,1.0,1.0,phase_3,,,,,810.0,6.0,135.0,270.0,810.0,675.0,405.0,540.0,orange,diamond
0.0,3.0,3.0,0.0,7.0,4.0,1034.612759000083,1.0,1.0,phase_3,,,,,270.0,2.0,135.0,540.0,405.0,270.0,810.0,675.0,yellow,circle
0.0,8.0,4.0,1.0,7.0,6.0,545.4361890006112,1.0,1.0,phase_3,,,,,116.0,1.0,464.0,580.0,348.0,696.0,232.0,116.0,green,flipped triangle
0.0,3.0,3.0,0.0,7.0,2.0,1871.230887998536,1.0,1.0,phase_3,,,,,308.0,2.0,462.0,308.0,154.0,616.0,924.0,770.0,yellow,circle
0.0,8.0,4.0,1.0,7.0,3.0,1392.7350900012243,1.0,1.0,phase_3,,,,,810.0,6.0,135.0,675.0,810.0,540.0,405.0,270.0,green,flipped triangle
0.0,8.0,4.0,1.0,7.0,1.0,1790.8862179992866,1.0,1.0,phase_3,,,,,810.0,6.0,810.0,270.0,405.0,135.0,675.0,540.0,green,flipped triangle
0.0,4.0,4.0,0.0,7.0,4.0,1761.4454959984869,1.0,1.0,phase_3,,,,,192.0,1.0,768.0,1152.0,960.0,192.0,384.0,576.0,cyan,square
0.0,1.0,1.0,0.0,7.0,4.0,1635.9488670004794,1.0,1.0,phase_3,,,,,405.0,3.0,135.0,675.0,540.0,405.0,810.0,270.0,orange,diamond
0.0,1.0,1.0,0.0,7.0,4.0,627.9525459995057,1.0,1.0,phase_3,,,,,154.0,1.0,462.0,616.0,924.0,154.0,308.0,770.0,orange,diamond
0.0,5.0,1.0,1.0,7.0,4.0,544.1445079995901,1.0,1.0,phase_3,,,,,462.0,3.0,770.0,154.0,308.0,462.0,924.0,616.0,gray,triangle
0.0,1.0,1.0,0.0,7.0,6.0,3163.068104999184,1.0,1.0,phase_3,,,,,192.0,1.0,1152.0,384.0,768.0,960.0,576.0,192.0,orange,diamond
0.0,7.0,3.0,1.0,7.0,5.0,2581.609519998892,1.0,1.0,phase_3,,,,,192.0,1.0,960.0,576.0,384.0,1152.0,192.0,768.0,white,I
0.0,7.0,3.0,1.0,7.0,1.0,555.7445459999144,1.0,1.0,phase_3,,,,,116.0,1.0,116.0,696.0,348.0,464.0,232.0,580.0,white,I
0.0,3.0,3.0,0.0,7.0,5.0,1892.9130859996803,2.0,1.0,phase_3,,,,,308.0,2.0,462.0,616.0,770.0,154.0,308.0,924.0,yellow,circle
0.0,7.0,3.0,1.0,7.0,2.0,499.0959019996808,2.0,1.0,phase_3,,,,,692.0,4.0,346.0,692.0,173.0,1038.0,865.0,519.0,white,I
0.0,7.0,3.0,1.0,7.0,6.0,1397.3390629998903,2.0,1.0,phase_3,,,,,616.0,4.0,462.0,924.0,308.0,770.0,154.0,616.0,white,I
0.0,8.0,4.0,1.0,7.0,2.0,488.7385349993565,2.0,1.0,phase_3,,,,,462.0,3.0,308.0,462.0,924.0,770.0,616.0,154.0,green,flipped triangle
0.0,5.0,1.0,1.0,7.0,4.0,434.3855259994598,2.0,1.0,phase_3,,,,,405.0,3.0,540.0,135.0,810.0,405.0,270.0,675.0,gray,triangle
0.0,5.0,1.0,1.0,7.0,1.0,203.1018119996588,2.0,1.0,phase_3,,,,,173.0,1.0,173.0,865.0,346.0,1038.0,692.0,519.0,gray,triangle
0.0,8.0,4.0,1.0,7.0,5.0,2067.44310799877,2.0,1.0,phase_3,,,,,616.0,4.0,770.0,462.0,154.0,308.0,616.0,924.0,green,flipped triangle
0.0,2.0,2.0,0.0,7.0,2.0,877.6575039992167,2.0,1.0,phase_3,,,,,405.0,3.0,135.0,405.0,675.0,540.0,270.0,810.0,magenta,cross
0.0,2.0,2.0,0.0,7.0,6.0,2499.533657999564,2.0,1.0,phase_3,,,,,308.0,2.0,616.0,770.0,924.0,462.0,154.0,308.0,magenta,cross
0.0,3.0,3.0,0.0,7.0,1.0,2075.994982998964,2.0,1.0,phase_3,,,,,173.0,1.0,173.0,1038.0,346.0,865.0,692.0,519.0,yellow,circle
0.0,7.0,3.0,1.0,7.0,4.0,3098.8848180004425,2.0,1.0,phase_3,,,,,540.0,4.0,135.0,810.0,270.0,540.0,405.0,675.0,white,I
0.0,4.0,4.0,0.0,7.0,6.0,2731.85712600025,2.0,1.0,phase_3,,,,,346.0,2.0,519.0,1038.0,173.0,692.0,865.0,346.0,cyan,square
0.0,8.0,4.0,1.0,7.0,5.0,1283.3610580000825,2.0,1.0,phase_3,,,,,1038.0,6.0,692.0,519.0,346.0,865.0,1038.0,173.0,green,flipped triangle
0.0,6.0,2.0,1.0,7.0,4.0,2089.1437890004454,2.0,1.0,phase_3,,,,,576.0,3.0,768.0,384.0,192.0,576.0,960.0,1152.0,blue,hexagon
0.0,7.0,3.0,1.0,7.0,3.0,3119.413407001048,2.0,1.0,phase_3,,,,,576.0,3.0,768.0,1152.0,576.0,960.0,384.0,192.0,white,I
0.0,6.0,2.0,1.0,7.0,2.0,1764.6188369999436,2.0,1.0,phase_3,,,,,540.0,4.0,135.0,540.0,405.0,675.0,810.0,270.0,blue,hexagon
0.0,6.0,2.0,1.0,7.0,5.0,2132.087510000929,2.0,1.0,phase_3,,,,,308.0,2.0,770.0,462.0,616.0,154.0,308.0,924.0,blue,hexagon
0.0,4.0,4.0,0.0,7.0,1.0,2437.547077999625,2.0,1.0,phase_3,,,,,696.0,6.0,696.0,464.0,116.0,580.0,232.0,348.0,cyan,square
0.0,4.0,4.0,0.0,7.0,5.0,1799.907118000192,2.0,1.0,phase_3,,,,,675.0,5.0,405.0,270.0,810.0,540.0,675.0,135.0,cyan,square
0.0,5.0,1.0,1.0,7.0,2.0,1919.464988000982,2.0,1.0,phase_3,,,,,232.0,2.0,348.0,232.0,580.0,464.0,116.0,696.0,gray,triangle
0.0,3.0,3.0,0.0,7.0,3.0,1508.3983719996468,3.0,1.0,phase_3,,,,,519.0,3.0,1038.0,346.0,519.0,865.0,692.0,173.0,yellow,circle
0.0,1.0,1.0,0.0,7.0,5.0,1191.0446410001896,3.0,1.0,phase_3,,,,,348.0,3.0,464.0,580.0,116.0,232.0,348.0,696.0,orange,diamond
0.0,2.0,2.0,0.0,7.0,2.0,1771.1507260009969,3.0,1.0,phase_3,,,,,464.0,4.0,116.0,464.0,696.0,348.0,580.0,232.0,magenta,cross
0.0,6.0,2.0,1.0,7.0,2.0,2131.308566000371,3.0,1.0,phase_3,,,,,576.0,3.0,384.0,576.0,1152.0,192.0,768.0,960.0,blue,hexagon
0.0,5.0,1.0,1.0,7.0,2.0,1912.330232999011,3.0,1.0,phase_3,,,,,116.0,1.0,696.0,116.0,464.0,348.0,232.0,580.0,gray,triangle
0.0,7.0,3.0,1.0,7.0,5.0,2021.8571720015461,3.0,1.0,phase_3,,,,,519.0,3.0,865.0,346.0,173.0,1038.0,519.0,692.0,white,I
0.0,8.0,4.0,1.0,7.0,5.0,2634.8628549985733,3.0,1.0,phase_3,,,,,696.0,6.0,116.0,232.0,580.0,464.0,696.0,348.0,green,flipped triangle
0.0,4.0,4.0,0.0,7.0,4.0,1311.253949001184,3.0,1.0,phase_3,,,,,1038.0,6.0,519.0,865.0,173.0,1038.0,346.0,692.0,cyan,square
0.0,1.0,1.0,0.0,7.0,6.0,1579.533252001056,3.0,1.0,phase_3,,,,,232.0,2.0,696.0,464.0,580.0,348.0,116.0,232.0,orange,diamond
0.0,1.0,1.0,0.0,7.0,1.0,2901.0685039993405,3.0,1.0,phase_3,,,,,346.0,2.0,346.0,865.0,173.0,692.0,1038.0,519.0,orange,diamond
0.0,6.0,2.0,1.0,7.0,1.0,2021.1325109994505,3.0,1.0,phase_3,,,,,616.0,4.0,616.0,462.0,770.0,154.0,308.0,924.0,blue,hexagon
0.0,7.0,3.0,1.0,7.0,3.0,1607.2675440009334,3.0,1.0,phase_3,,,,,405.0,3.0,540.0,810.0,405.0,135.0,675.0,270.0,white,I
0.0,6.0,2.0,1.0,7.0,5.0,2144.3563619995984,3.0,1.0,phase_3,,,,,692.0,4.0,519.0,173.0,346.0,865.0,692.0,1038.0,blue,hexagon
0.0,2.0,2.0,0.0,7.0,3.0,3544.467886000348,3.0,1.0,phase_3,,,,,576.0,3.0,960.0,1152.0,576.0,192.0,768.0,384.0,magenta,cross
0.0,5.0,1.0,1.0,7.0,5.0,1625.4339189999882,3.0,1.0,phase_3,,,,,154.0,1.0,462.0,308.0,770.0,616.0,154.0,924.0,gray,triangle
0.0,5.0,1.0,1.0,7.0,6.0,1946.1558269995292,3.0,1.0,phase_3,,,,,192.0,1.0,576.0,960.0,768.0,384.0,1152.0,192.0,gray,triangle
0.0,3.0,3.0,0.0,7.0,4.0,1790.7281619991409,3.0,1.0,phase_3,,,,,384.0,2.0,768.0,960.0,1152.0,384.0,576.0,192.0,yellow,circle
0.0,1.0,1.0,0.0,7.0,3.0,1356.9183760009764,3.0,1.0,phase_3,,,,,346.0,2.0,519.0,173.0,346.0,865.0,1038.0,692.0,orange,diamond
0.0,1.0,1.0,0.0,7.0,1.0,1762.5620950002483,3.0,1.0,phase_3,,,,,462.0,3.0,462.0,154.0,308.0,924.0,616.0,770.0,orange,diamond
0.0,4.0,4.0,0.0,7.0,5.0,2832.658334000371,3.0,1.0,phase_3,,,,,960.0,5.0,1152.0,576.0,192.0,768.0,960.0,384.0,cyan,square
0.0,5.0,1.0,1.0,7.0,5.0,1240.8913660001415,4.0,1.0,phase_3,,,,,173.0,1.0,865.0,692.0,346.0,1038.0,173.0,519.0,gray,triangle
0.0,6.0,2.0,1.0,7.0,3.0,1037.019553001301,4.0,1.0,phase_3,,,,,696.0,6.0,348.0,580.0,696.0,116.0,232.0,464.0,blue,hexagon
0.0,3.0,3.0,0.0,7.0,6.0,1766.969913000139,4.0,1.0,phase_3,,,,,232.0,2.0,348.0,696.0,116.0,464.0,580.0,232.0,yellow,circle
0.0,2.0,2.0,0.0,7.0,1.0,2080.1666139996087,4.0,1.0,phase_3,,,,,576.0,3.0,576.0,1152.0,960.0,768.0,192.0,384.0,magenta,cross
0.0,2.0,2.0,0.0,7.0,6.0,2612.905994999892,4.0,1.0,phase_3,,,,,462.0,3.0,616.0,308.0,924.0,770.0,154.0,462.0,magenta,cross
0.0,5.0,1.0,1.0,7.0,1.0,2690.458455001135,4.0,1.0,phase_3,,,,,192.0,1.0,192.0,768.0,1152.0,384.0,960.0,576.0,gray,triangle
0.0,3.0,3.0,0.0,7.0,1.0,2013.1639830015047,4.0,1.0,phase_3,,,,,384.0,2.0,384.0,192.0,960.0,768.0,576.0,1152.0,yellow,circle
0.0,4.0,4.0,0.0,7.0,1.0,1457.7751220003847,4.0,1.0,phase_3,,,,,770.0,5.0,770.0,924.0,462.0,308.0,154.0,616.0,cyan,square
0.0,6.0,2.0,1.0,7.0,6.0,2303.450270999747,4.0,1.0,phase_3,,,,,692.0,4.0,519.0,346.0,173.0,1038.0,865.0,692.0,blue,hexagon
0.0,6.0,2.0,1.0,7.0,4.0,1062.93661699965,4.0,1.0,phase_3,,,,,675.0,5.0,810.0,540.0,405.0,675.0,135.0,270.0,blue,hexagon
0.0,2.0,2.0,0.0,7.0,4.0,1662.4933080001938,4.0,1.0,phase_3,,,,,519.0,3.0,1038.0,865.0,173.0,519.0,692.0,346.0,magenta,cross
0.0,2.0,2.0,0.0,7.0,6.0,2616.6217049994884,4.0,1.0,phase_3,,,,,580.0,5.0,116.0,696.0,232.0,464.0,348.0,580.0,magenta,cross
0.0,6.0,2.0,1.0,7.0,6.0,2155.455207999694,4.0,1.0,phase_3,,,,,696.0,6.0,116.0,232.0,348.0,464.0,580.0,696.0,blue,hexagon
0.0,2.0,2.0,0.0,7.0,6.0,2372.997757000121,4.0,1.0,phase_3,,,,,540.0,4.0,405.0,270.0,810.0,675.0,135.0,540.0,magenta,cross
0.0,3.0,3.0,0.0,7.0,3.0,1332.1196239994606,4.0,1.0,phase_3,,,,,270.0,2.0,540.0,405.0,270.0,135.0,810.0,675.0,yellow,circle
0.0,8.0,4.0,1.0,7.0,1.0,1452.3646819998248,4.0,1.0,phase_3,,,,,1038.0,6.0,1038.0,346.0,692.0,173.0,865.0,519.0,green,flipped triangle
0.0,4.0,4.0,0.0,7.0,4.0,3008.818803000395,4.0,1.0,phase_3,,,,,696.0,6.0,232.0,116.0,464.0,696.0,580.0,348.0,cyan,square
0.0,3.0,3.0,0.0,7.0,2.0,1921.244704000856,4.0,1.0,phase_3,,,,,232.0,2.0,348.0,232.0,696.0,580.0,464.0,116.0,yellow,circle
0.0,1.0,1.0,0.0,7.0,4.0,1456.8153549989802,4.0,1.0,phase_3,,,,,384.0,2.0,960.0,192.0,1152.0,384.0,768.0,576.0,orange,diamond
0.0,7.0,3.0,1.0,7.0,1.0,1505.8937550002156,4.0,1.0,phase_3,,,,,308.0,2.0,308.0,924.0,154.0,770.0,616.0,462.0,white,I
