raw_reward_magnitude,stim_reward,stepwise_reward_magnitude,paired_with_stopping,quadrant,response,reaction_time,block,num_trial_presentations,which_part,stop_signal_trial_type,left_SSD,right_SSD,accuracy,chosen_bidding_amount,chosen_bidding_level,possible_bid_1,possible_bid_2,possible_bid_3,possible_bid_4,possible_bid_5,possible_bid_6,color_text,shape_text
313.0,6.0,2.0,1.0,2.0,2.0,496.4130700000169,1.0,1.0,part_1,,,,,,,,,,,,,magenta,square
1317.0,4.0,4.0,0.0,3.0,3.0,413.46947400001,1.0,1.0,part_1,,,,,,,,,,,,,blue,I
0.0,7.0,0.0,1.0,3.0,3.0,356.4804600000002,1.0,1.0,part_1,,,,,,,,,,,,,gray,diamond
164.0,1.0,1.0,0.0,3.0,3.0,328.2025180000119,1.0,1.0,part_1,,,,,,,,,,,,,green,cross
311.0,2.0,2.0,0.0,3.0,3.0,300.4104460000008,1.0,1.0,part_1,,,,,,,,,,,,,cyan,hexagon
167.0,1.0,1.0,0.0,1.0,1.0,393.6409689999891,1.0,1.0,part_1,,,,,,,,,,,,,green,cross
1283.0,8.0,4.0,1.0,3.0,3.0,262.562121000002,1.0,1.0,part_1,,,,,,,,,,,,,orange,triangle
318.0,6.0,2.0,1.0,2.0,2.0,357.0183020000002,1.0,1.0,part_1,,,,,,,,,,,,,magenta,square
1278.0,8.0,4.0,1.0,1.0,1.0,339.7555019999743,1.0,1.0,part_1,,,,,,,,,,,,,orange,triangle
635.0,3.0,3.0,0.0,2.0,2.0,384.7023410000076,1.0,1.0,part_1,,,,,,,,,,,,,yellow,flipped triangle
664.0,7.0,3.0,1.0,3.0,3.0,329.0006899999866,1.0,1.0,part_1,,,,,,,,,,,,,gray,diamond
629.0,7.0,3.0,1.0,4.0,4.0,377.0050450000326,1.0,1.0,part_1,,,,,,,,,,,,,gray,diamond
643.0,7.0,3.0,1.0,1.0,1.0,328.3502749999911,1.0,1.0,part_1,,,,,,,,,,,,,gray,diamond
151.0,1.0,1.0,0.0,2.0,2.0,300.5434140000034,1.0,1.0,part_1,,,,,,,,,,,,,green,cross
0.0,6.0,0.0,1.0,2.0,2.0,329.7016489999578,1.0,1.0,part_1,,,,,,,,,,,,,magenta,square
629.0,7.0,3.0,1.0,2.0,2.0,338.1526900000153,1.0,1.0,part_1,,,,,,,,,,,,,gray,diamond
185.0,5.0,1.0,1.0,4.0,4.0,347.288170000013,1.0,1.0,part_1,,,,,,,,,,,,,white,circle
654.0,3.0,3.0,0.0,4.0,4.0,328.3292090000032,1.0,1.0,part_1,,,,,,,,,,,,,yellow,flipped triangle
137.0,1.0,1.0,0.0,4.0,4.0,374.700851,1.0,1.0,part_1,,,,,,,,,,,,,green,cross
657.0,7.0,3.0,1.0,2.0,2.0,385.0439349999988,1.0,1.0,part_1,,,,,,,,,,,,,gray,diamond
338.0,2.0,2.0,0.0,1.0,1.0,317.932876000043,1.0,1.0,part_1,,,,,,,,,,,,,cyan,hexagon
0.0,2.0,0.0,0.0,1.0,1.0,346.2361720000331,1.0,1.0,part_1,,,,,,,,,,,,,cyan,hexagon
0.0,2.0,0.0,0.0,4.0,4.0,431.9169789999932,1.0,1.0,part_1,,,,,,,,,,,,,cyan,hexagon
0.0,8.0,0.0,1.0,3.0,3.0,364.6745899999928,1.0,1.0,part_1,,,,,,,,,,,,,orange,triangle
0.0,1.0,0.0,0.0,2.0,2.0,319.0497080000227,1.0,1.0,part_1,,,,,,,,,,,,,green,cross
0.0,8.0,0.0,1.0,1.0,1.0,347.7570869999908,1.0,1.0,part_1,,,,,,,,,,,,,orange,triangle
0.0,2.0,0.0,0.0,2.0,2.0,327.3260789999881,1.0,2.0,part_1,,,,,,,,,,,,,cyan,hexagon
643.0,7.0,3.0,1.0,1.0,1.0,347.4034650000135,1.0,1.0,part_1,,,,,,,,,,,,,gray,diamond
324.0,2.0,2.0,0.0,1.0,1.0,339.4862549999971,1.0,1.0,part_1,,,,,,,,,,,,,cyan,hexagon
340.0,6.0,2.0,1.0,3.0,3.0,366.6038750000098,1.0,1.0,part_1,,,,,,,,,,,,,magenta,square
1315.0,8.0,4.0,1.0,4.0,4.0,356.6970950000154,1.0,1.0,part_1,,,,,,,,,,,,,orange,triangle
0.0,7.0,0.0,1.0,2.0,2.0,403.6390719999758,1.0,1.0,part_1,,,,,,,,,,,,,gray,diamond
1311.0,4.0,4.0,0.0,1.0,1.0,346.8872220000207,1.0,1.0,part_1,,,,,,,,,,,,,blue,I
1310.0,4.0,4.0,0.0,3.0,3.0,316.8670100000099,1.0,1.0,part_1,,,,,,,,,,,,,blue,I
324.0,2.0,2.0,0.0,2.0,2.0,394.6708980000153,1.0,1.0,part_1,,,,,,,,,,,,,cyan,hexagon
326.0,2.0,2.0,0.0,4.0,4.0,404.6864569999684,1.0,1.0,part_1,,,,,,,,,,,,,cyan,hexagon
313.0,2.0,2.0,0.0,4.0,4.0,347.3266900000453,1.0,1.0,part_1,,,,,,,,,,,,,cyan,hexagon
174.0,1.0,1.0,0.0,3.0,3.0,318.2534029999715,1.0,1.0,part_1,,,,,,,,,,,,,green,cross
348.0,6.0,2.0,1.0,1.0,1.0,382.6208350000115,1.0,1.0,part_1,,,,,,,,,,,,,magenta,square
0.0,1.0,0.0,0.0,3.0,3.0,395.0596199999836,1.0,1.0,part_1,,,,,,,,,,,,,green,cross
318.0,2.0,2.0,0.0,4.0,4.0,366.0228989999723,1.0,1.0,part_1,,,,,,,,,,,,,cyan,hexagon
661.0,3.0,3.0,0.0,3.0,3.0,310.0160289999962,1.0,1.0,part_1,,,,,,,,,,,,,yellow,flipped triangle
1290.0,4.0,4.0,0.0,1.0,1.0,384.3509009999479,1.0,1.0,part_1,,,,,,,,,,,,,blue,I
0.0,8.0,0.0,1.0,3.0,3.0,291.3869729999874,1.0,1.0,part_1,,,,,,,,,,,,,orange,triangle
639.0,7.0,3.0,1.0,4.0,4.0,356.3434409999786,1.0,1.0,part_1,,,,,,,,,,,,,gray,diamond
166.0,1.0,1.0,0.0,1.0,1.0,357.5953750000167,1.0,1.0,part_1,,,,,,,,,,,,,green,cross
179.0,1.0,1.0,0.0,2.0,2.0,431.167065000011,1.0,1.0,part_1,,,,,,,,,,,,,green,cross
1310.0,8.0,4.0,1.0,3.0,3.0,328.577292000034,1.0,1.0,part_1,,,,,,,,,,,,,orange,triangle
0.0,6.0,0.0,1.0,4.0,4.0,339.1149070000097,1.0,1.0,part_1,,,,,,,,,,,,,magenta,square
0.0,3.0,0.0,0.0,2.0,2.0,327.4845750000281,1.0,1.0,part_1,,,,,,,,,,,,,yellow,flipped triangle
1297.0,4.0,4.0,0.0,4.0,4.0,366.4827299999729,1.0,1.0,part_1,,,,,,,,,,,,,blue,I
165.0,5.0,1.0,1.0,1.0,1.0,328.7618220000468,1.0,1.0,part_1,,,,,,,,,,,,,white,circle
0.0,4.0,0.0,0.0,1.0,1.0,281.3711279999893,1.0,1.0,part_1,,,,,,,,,,,,,blue,I
174.0,5.0,1.0,1.0,1.0,1.0,274.2333909999956,1.0,1.0,part_1,,,,,,,,,,,,,white,circle
631.0,3.0,3.0,0.0,2.0,2.0,347.448853000003,1.0,1.0,part_1,,,,,,,,,,,,,yellow,flipped triangle
1285.0,8.0,4.0,1.0,4.0,4.0,328.8933229999884,1.0,1.0,part_1,,,,,,,,,,,,,orange,triangle
638.0,7.0,3.0,1.0,4.0,4.0,553.213793999987,1.0,1.0,part_1,,,,,,,,,,,,,gray,diamond
156.0,5.0,1.0,1.0,2.0,2.0,430.8511600000315,1.0,1.0,part_1,,,,,,,,,,,,,white,circle
0.0,5.0,0.0,1.0,4.0,4.0,376.548176999961,1.0,1.0,part_1,,,,,,,,,,,,,white,circle
167.0,5.0,1.0,1.0,2.0,2.0,432.1473669999705,1.0,1.0,part_1,,,,,,,,,,,,,white,circle
1283.0,8.0,4.0,1.0,3.0,3.0,338.5300749999942,1.0,1.0,part_1,,,,,,,,,,,,,orange,triangle
0.0,3.0,0.0,0.0,4.0,4.0,365.175158999989,1.0,1.0,part_1,,,,,,,,,,,,,yellow,flipped triangle
317.0,6.0,2.0,1.0,3.0,3.0,421.8220109999606,1.0,1.0,part_1,,,,,,,,,,,,,magenta,square
309.0,2.0,2.0,0.0,1.0,1.0,337.17612800001,1.0,1.0,part_1,,,,,,,,,,,,,cyan,hexagon
159.0,5.0,1.0,1.0,4.0,4.0,384.1792850000161,1.0,1.0,part_1,,,,,,,,,,,,,white,circle
1312.0,8.0,4.0,1.0,2.0,2.0,422.3761959999592,1.0,1.0,part_1,,,,,,,,,,,,,orange,triangle
309.0,2.0,2.0,0.0,2.0,2.0,413.8130829999795,1.0,1.0,part_1,,,,,,,,,,,,,cyan,hexagon
645.0,3.0,3.0,0.0,3.0,3.0,328.8248810000027,1.0,1.0,part_1,,,,,,,,,,,,,yellow,flipped triangle
309.0,6.0,2.0,1.0,2.0,2.0,346.6125929999748,1.0,1.0,part_1,,,,,,,,,,,,,magenta,square
1303.0,8.0,4.0,1.0,2.0,2.0,319.1298720000191,1.0,1.0,part_1,,,,,,,,,,,,,orange,triangle
0.0,2.0,0.0,0.0,3.0,3.0,337.1734130000163,1.0,1.0,part_1,,,,,,,,,,,,,cyan,hexagon
653.0,3.0,3.0,0.0,4.0,4.0,318.5815310000066,1.0,1.0,part_1,,,,,,,,,,,,,yellow,flipped triangle
155.0,5.0,1.0,1.0,4.0,4.0,403.0764500000146,1.0,1.0,part_1,,,,,,,,,,,,,white,circle
314.0,6.0,2.0,1.0,4.0,4.0,376.9084720000251,1.0,1.0,part_1,,,,,,,,,,,,,magenta,square
347.0,2.0,2.0,0.0,4.0,4.0,338.2238969999775,1.0,1.0,part_1,,,,,,,,,,,,,cyan,hexagon
302.0,6.0,2.0,1.0,1.0,1.0,496.7516490000321,1.0,1.0,part_1,,,,,,,,,,,,,magenta,square
183.0,1.0,1.0,0.0,4.0,4.0,430.9857509999801,1.0,1.0,part_1,,,,,,,,,,,,,green,cross
143.0,5.0,1.0,1.0,1.0,1.0,331.1995220000199,1.0,1.0,part_1,,,,,,,,,,,,,white,circle
336.0,2.0,2.0,0.0,3.0,3.0,337.3821920000068,1.0,1.0,part_1,,,,,,,,,,,,,cyan,hexagon
0.0,5.0,0.0,1.0,2.0,2.0,357.7381110000033,1.0,1.0,part_1,,,,,,,,,,,,,white,circle
643.0,3.0,3.0,0.0,1.0,1.0,421.9846379999694,1.0,1.0,part_1,,,,,,,,,,,,,yellow,flipped triangle
1290.0,8.0,4.0,1.0,2.0,2.0,310.8335430000011,1.0,1.0,part_1,,,,,,,,,,,,,orange,triangle
1305.0,8.0,4.0,1.0,3.0,3.0,338.8114050000013,1.0,1.0,part_1,,,,,,,,,,,,,orange,triangle
0.0,6.0,0.0,1.0,1.0,1.0,300.1921279999919,1.0,1.0,part_1,,,,,,,,,,,,,magenta,square
330.0,2.0,2.0,0.0,3.0,3.0,384.4593229999873,1.0,1.0,part_1,,,,,,,,,,,,,cyan,hexagon
148.0,5.0,1.0,1.0,3.0,3.0,345.6730460000017,1.0,1.0,part_1,,,,,,,,,,,,,white,circle
0.0,8.0,0.0,1.0,2.0,2.0,346.9559209999602,1.0,1.0,part_1,,,,,,,,,,,,,orange,triangle
0.0,7.0,0.0,1.0,4.0,4.0,412.531008999963,1.0,1.0,part_1,,,,,,,,,,,,,gray,diamond
1319.0,4.0,4.0,0.0,1.0,1.0,375.1573320000148,1.0,1.0,part_1,,,,,,,,,,,,,blue,I
324.0,6.0,2.0,1.0,1.0,1.0,421.853963999979,1.0,1.0,part_1,,,,,,,,,,,,,magenta,square
1278.0,4.0,4.0,0.0,4.0,4.0,432.1793970000271,1.0,1.0,part_1,,,,,,,,,,,,,blue,I
1275.0,4.0,4.0,0.0,1.0,1.0,329.1015760000277,1.0,1.0,part_1,,,,,,,,,,,,,blue,I
0.0,8.0,0.0,1.0,2.0,2.0,365.71500499997,1.0,2.0,part_1,,,,,,,,,,,,,orange,triangle
0.0,7.0,0.0,1.0,4.0,4.0,496.4019899999812,1.0,1.0,part_1,,,,,,,,,,,,,gray,diamond
309.0,6.0,2.0,1.0,3.0,3.0,357.3915540000598,1.0,1.0,part_1,,,,,,,,,,,,,magenta,square
657.0,3.0,3.0,0.0,4.0,4.0,394.1932039999756,1.0,1.0,part_1,,,,,,,,,,,,,yellow,flipped triangle
0.0,6.0,0.0,1.0,3.0,3.0,374.7462989999803,1.0,1.0,part_1,,,,,,,,,,,,,magenta,square
313.0,6.0,2.0,1.0,1.0,1.0,346.9008630000871,1.0,1.0,part_1,,,,,,,,,,,,,magenta,square
1296.0,8.0,4.0,1.0,4.0,4.0,385.1274840000087,1.0,1.0,part_1,,,,,,,,,,,,,orange,triangle
341.0,6.0,2.0,1.0,1.0,1.0,357.7209200000197,1.0,1.0,part_1,,,,,,,,,,,,,magenta,square
347.0,6.0,2.0,1.0,4.0,4.0,348.1141340000704,2.0,1.0,part_1,,,,,,,,,,,,,magenta,square
666.0,7.0,3.0,1.0,4.0,4.0,340.6634610000765,2.0,1.0,part_1,,,,,,,,,,,,,gray,diamond
141.0,1.0,1.0,0.0,4.0,4.0,357.9257359999701,2.0,1.0,part_1,,,,,,,,,,,,,green,cross
0.0,5.0,0.0,1.0,4.0,4.0,377.4557490000916,2.0,1.0,part_1,,,,,,,,,,,,,white,circle
329.0,2.0,2.0,0.0,4.0,4.0,310.0278809999963,2.0,1.0,part_1,,,,,,,,,,,,,cyan,hexagon
629.0,3.0,3.0,0.0,3.0,3.0,394.3805549999979,2.0,1.0,part_1,,,,,,,,,,,,,yellow,flipped triangle
333.0,2.0,2.0,0.0,2.0,2.0,422.4508380000316,2.0,1.0,part_1,,,,,,,,,,,,,cyan,hexagon
650.0,7.0,3.0,1.0,1.0,1.0,431.5202399999407,2.0,1.0,part_1,,,,,,,,,,,,,gray,diamond
643.0,3.0,3.0,0.0,4.0,4.0,356.9635740000194,2.0,1.0,part_1,,,,,,,,,,,,,yellow,flipped triangle
1310.0,4.0,4.0,0.0,2.0,2.0,421.6559760000109,2.0,1.0,part_1,,,,,,,,,,,,,blue,I
643.0,7.0,3.0,1.0,1.0,1.0,357.5841880000325,2.0,1.0,part_1,,,,,,,,,,,,,gray,diamond
0.0,2.0,0.0,0.0,3.0,3.0,347.0537770000419,2.0,1.0,part_1,,,,,,,,,,,,,cyan,hexagon
1283.0,4.0,4.0,0.0,1.0,1.0,478.7635129999898,2.0,1.0,part_1,,,,,,,,,,,,,blue,I
141.0,5.0,1.0,1.0,3.0,3.0,431.5082440000424,2.0,1.0,part_1,,,,,,,,,,,,,white,circle
0.0,7.0,0.0,1.0,2.0,2.0,422.9858679999552,2.0,1.0,part_1,,,,,,,,,,,,,gray,diamond
671.0,3.0,3.0,0.0,1.0,1.0,375.334070000008,2.0,1.0,part_1,,,,,,,,,,,,,yellow,flipped triangle
332.0,6.0,2.0,1.0,2.0,2.0,348.1537049999588,2.0,1.0,part_1,,,,,,,,,,,,,magenta,square
167.0,1.0,1.0,0.0,4.0,4.0,356.7835320000085,2.0,1.0,part_1,,,,,,,,,,,,,green,cross
1306.0,4.0,4.0,0.0,3.0,3.0,366.0377450000851,2.0,1.0,part_1,,,,,,,,,,,,,blue,I
632.0,7.0,3.0,1.0,1.0,1.0,365.8071849999942,2.0,1.0,part_1,,,,,,,,,,,,,gray,diamond
0.0,3.0,0.0,0.0,2.0,2.0,422.1602000000075,2.0,1.0,part_1,,,,,,,,,,,,,yellow,flipped triangle
0.0,1.0,0.0,0.0,4.0,4.0,356.0258149999526,2.0,1.0,part_1,,,,,,,,,,,,,green,cross
657.0,3.0,3.0,0.0,1.0,1.0,374.9382920000244,2.0,1.0,part_1,,,,,,,,,,,,,yellow,flipped triangle
639.0,3.0,3.0,0.0,4.0,4.0,356.8383599999833,2.0,1.0,part_1,,,,,,,,,,,,,yellow,flipped triangle
643.0,3.0,3.0,0.0,4.0,4.0,336.907971999949,2.0,1.0,part_1,,,,,,,,,,,,,yellow,flipped triangle
670.0,7.0,3.0,1.0,1.0,1.0,469.202952000046,2.0,1.0,part_1,,,,,,,,,,,,,gray,diamond
323.0,6.0,2.0,1.0,2.0,2.0,384.5219160000397,2.0,1.0,part_1,,,,,,,,,,,,,magenta,square
160.0,1.0,1.0,0.0,2.0,2.0,394.307614000013,2.0,1.0,part_1,,,,,,,,,,,,,green,cross
341.0,2.0,2.0,0.0,1.0,1.0,384.845192000057,2.0,1.0,part_1,,,,,,,,,,,,,cyan,hexagon
159.0,1.0,1.0,0.0,4.0,4.0,432.5031580000313,2.0,1.0,part_1,,,,,,,,,,,,,green,cross
1315.0,8.0,4.0,1.0,4.0,4.0,479.5670459999428,2.0,1.0,part_1,,,,,,,,,,,,,orange,triangle
330.0,6.0,2.0,1.0,4.0,4.0,386.0249289999728,2.0,1.0,part_1,,,,,,,,,,,,,magenta,square
336.0,6.0,2.0,1.0,3.0,3.0,403.9289579999376,2.0,1.0,part_1,,,,,,,,,,,,,magenta,square
183.0,5.0,1.0,1.0,3.0,3.0,422.0321400000557,2.0,1.0,part_1,,,,,,,,,,,,,white,circle
187.0,1.0,1.0,0.0,1.0,1.0,471.3418520000232,2.0,1.0,part_1,,,,,,,,,,,,,green,cross
138.0,1.0,1.0,0.0,2.0,2.0,638.0411379999487,2.0,1.0,part_1,,,,,,,,,,,,,green,cross
165.0,1.0,1.0,0.0,1.0,1.0,441.044464000015,2.0,1.0,part_1,,,,,,,,,,,,,green,cross
151.0,5.0,1.0,1.0,2.0,2.0,413.0462080000825,2.0,1.0,part_1,,,,,,,,,,,,,white,circle
323.0,2.0,2.0,0.0,2.0,2.0,348.3070459999453,2.0,1.0,part_1,,,,,,,,,,,,,cyan,hexagon
324.0,2.0,2.0,0.0,2.0,2.0,357.2146149999753,2.0,1.0,part_1,,,,,,,,,,,,,cyan,hexagon
165.0,1.0,1.0,0.0,3.0,3.0,403.1109510000306,2.0,1.0,part_1,,,,,,,,,,,,,green,cross
187.0,5.0,1.0,1.0,3.0,3.0,377.2686620000058,2.0,1.0,part_1,,,,,,,,,,,,,white,circle
0.0,5.0,0.0,1.0,4.0,4.0,394.5019789999833,2.0,1.0,part_1,,,,,,,,,,,,,white,circle
174.0,1.0,1.0,0.0,2.0,2.0,356.9352849999632,2.0,1.0,part_1,,,,,,,,,,,,,green,cross
636.0,7.0,3.0,1.0,3.0,3.0,357.8084490000037,2.0,1.0,part_1,,,,,,,,,,,,,gray,diamond
0.0,4.0,0.0,0.0,4.0,4.0,384.7597760000099,2.0,1.0,part_1,,,,,,,,,,,,,blue,I
0.0,2.0,0.0,0.0,3.0,3.0,384.2359959999157,2.0,1.0,part_1,,,,,,,,,,,,,cyan,hexagon
141.0,1.0,1.0,0.0,4.0,4.0,376.1864659999219,2.0,1.0,part_1,,,,,,,,,,,,,green,cross
319.0,2.0,2.0,0.0,3.0,3.0,358.0968689999508,2.0,1.0,part_1,,,,,,,,,,,,,cyan,hexagon
1280.0,4.0,4.0,0.0,2.0,2.0,451.5040920000501,2.0,1.0,part_1,,,,,,,,,,,,,blue,I
1285.0,8.0,4.0,1.0,4.0,4.0,346.7980990000114,2.0,1.0,part_1,,,,,,,,,,,,,orange,triangle
1312.0,4.0,4.0,0.0,3.0,3.0,340.3024780000123,2.0,1.0,part_1,,,,,,,,,,,,,blue,I
632.0,3.0,3.0,0.0,4.0,4.0,355.9173520000058,2.0,1.0,part_1,,,,,,,,,,,,,yellow,flipped triangle
181.0,5.0,1.0,1.0,4.0,4.0,319.5693000000119,2.0,1.0,part_1,,,,,,,,,,,,,white,circle
0.0,4.0,0.0,0.0,4.0,4.0,397.7789990000246,2.0,1.0,part_1,,,,,,,,,,,,,blue,I
326.0,6.0,2.0,1.0,2.0,2.0,431.5504699999337,2.0,1.0,part_1,,,,,,,,,,,,,magenta,square
0.0,1.0,0.0,0.0,3.0,3.0,338.4858879999228,2.0,1.0,part_1,,,,,,,,,,,,,green,cross
320.0,2.0,2.0,0.0,1.0,1.0,684.9375539999301,2.0,1.0,part_1,,,,,,,,,,,,,cyan,hexagon
0.0,3.0,0.0,0.0,2.0,2.0,395.2199160000873,2.0,1.0,part_1,,,,,,,,,,,,,yellow,flipped triangle
0.0,1.0,0.0,0.0,2.0,2.0,387.0754150000266,2.0,1.0,part_1,,,,,,,,,,,,,green,cross
0.0,7.0,0.0,1.0,1.0,1.0,403.2177150000962,2.0,1.0,part_1,,,,,,,,,,,,,gray,diamond
1301.0,4.0,4.0,0.0,2.0,2.0,388.0386959999669,2.0,1.0,part_1,,,,,,,,,,,,,blue,I
151.0,1.0,1.0,0.0,2.0,2.0,328.2564859999866,2.0,1.0,part_1,,,,,,,,,,,,,green,cross
1310.0,8.0,4.0,1.0,2.0,2.0,328.8009850000435,2.0,1.0,part_1,,,,,,,,,,,,,orange,triangle
0.0,5.0,0.0,1.0,1.0,1.0,412.9846570000381,2.0,1.0,part_1,,,,,,,,,,,,,white,circle
626.0,3.0,3.0,0.0,2.0,2.0,301.487155000018,2.0,1.0,part_1,,,,,,,,,,,,,yellow,flipped triangle
1311.0,8.0,4.0,1.0,1.0,1.0,394.7593689999848,2.0,1.0,part_1,,,,,,,,,,,,,orange,triangle
173.0,5.0,1.0,1.0,3.0,3.0,469.2783230000259,2.0,1.0,part_1,,,,,,,,,,,,,white,circle
324.0,2.0,2.0,0.0,2.0,2.0,291.4431689999901,2.0,1.0,part_1,,,,,,,,,,,,,cyan,hexagon
185.0,1.0,1.0,0.0,1.0,1.0,272.7243520000684,2.0,1.0,part_1,,,,,,,,,,,,,green,cross
1291.0,4.0,4.0,0.0,3.0,3.0,319.665083000018,2.0,1.0,part_1,,,,,,,,,,,,,blue,I
0.0,8.0,0.0,1.0,2.0,2.0,366.1775450000277,2.0,1.0,part_1,,,,,,,,,,,,,orange,triangle
0.0,6.0,0.0,1.0,3.0,3.0,347.8606969999873,2.0,1.0,part_1,,,,,,,,,,,,,magenta,square
334.0,2.0,2.0,0.0,3.0,3.0,366.3437000000158,2.0,1.0,part_1,,,,,,,,,,,,,cyan,hexagon
642.0,3.0,3.0,0.0,1.0,1.0,338.1156840000585,2.0,1.0,part_1,,,,,,,,,,,,,yellow,flipped triangle
0.0,4.0,0.0,0.0,3.0,3.0,395.2700930000219,2.0,1.0,part_1,,,,,,,,,,,,,blue,I
141.0,5.0,1.0,1.0,4.0,4.0,357.4834579999333,2.0,1.0,part_1,,,,,,,,,,,,,white,circle
170.0,1.0,1.0,0.0,2.0,2.0,412.6421000000846,2.0,1.0,part_1,,,,,,,,,,,,,green,cross
324.0,6.0,2.0,1.0,4.0,4.0,347.2716909999462,2.0,1.0,part_1,,,,,,,,,,,,,magenta,square
304.0,2.0,2.0,0.0,4.0,4.0,376.7789160000347,2.0,1.0,part_1,,,,,,,,,,,,,cyan,hexagon
670.0,7.0,3.0,1.0,4.0,4.0,292.7132089999986,2.0,1.0,part_1,,,,,,,,,,,,,gray,diamond
0.0,4.0,0.0,0.0,2.0,2.0,375.6786100000227,2.0,1.0,part_1,,,,,,,,,,,,,blue,I
144.0,5.0,1.0,1.0,3.0,3.0,367.0991149999736,2.0,1.0,part_1,,,,,,,,,,,,,white,circle
0.0,3.0,0.0,0.0,2.0,2.0,376.8586229999755,2.0,1.0,part_1,,,,,,,,,,,,,yellow,flipped triangle
0.0,8.0,0.0,1.0,3.0,3.0,368.1436220000478,2.0,1.0,part_1,,,,,,,,,,,,,orange,triangle
325.0,6.0,2.0,1.0,4.0,4.0,301.6806570000199,2.0,1.0,part_1,,,,,,,,,,,,,magenta,square
632.0,3.0,3.0,0.0,2.0,2.0,377.2074659999589,2.0,1.0,part_1,,,,,,,,,,,,,yellow,flipped triangle
0.0,4.0,0.0,0.0,1.0,1.0,423.7984900000811,2.0,1.0,part_1,,,,,,,,,,,,,blue,I
1307.0,8.0,4.0,1.0,1.0,1.0,356.7797800000107,2.0,1.0,part_1,,,,,,,,,,,,,orange,triangle
150.0,5.0,1.0,1.0,3.0,3.0,356.8681519999472,2.0,1.0,part_1,,,,,,,,,,,,,white,circle
310.0,2.0,2.0,0.0,3.0,3.0,338.8473230000954,2.0,1.0,part_1,,,,,,,,,,,,,cyan,hexagon
302.0,2.0,2.0,0.0,2.0,2.0,320.0142250000226,2.0,1.0,part_1,,,,,,,,,,,,,cyan,hexagon
138.0,5.0,1.0,1.0,2.0,2.0,309.8022829999536,2.0,1.0,part_1,,,,,,,,,,,,,white,circle
140.0,1.0,1.0,0.0,1.0,1.0,310.4875170000696,2.0,1.0,part_1,,,,,,,,,,,,,green,cross
1286.0,4.0,4.0,0.0,4.0,4.0,338.8832730000786,2.0,1.0,part_1,,,,,,,,,,,,,blue,I
662.0,7.0,3.0,1.0,1.0,1.0,366.139999999973,2.0,1.0,part_1,,,,,,,,,,,,,gray,diamond
313.0,2.0,2.0,0.0,3.0,3.0,338.1243210000093,2.0,1.0,part_1,,,,,,,,,,,,,cyan,hexagon
165.0,5.0,1.0,1.0,1.0,1.0,366.2026409999726,2.0,1.0,part_1,,,,,,,,,,,,,white,circle
320.0,6.0,2.0,1.0,4.0,4.0,404.3538700000226,2.0,1.0,part_1,,,,,,,,,,,,,magenta,square
339.0,6.0,2.0,1.0,3.0,3.0,338.6801719999539,2.0,1.0,part_1,,,,,,,,,,,,,magenta,square
675.0,7.0,3.0,1.0,2.0,2.0,375.595168000018,3.0,2.0,part_1,,,,,,,,,,,,,gray,diamond
324.0,6.0,2.0,1.0,4.0,4.0,385.3953530000353,3.0,1.0,part_1,,,,,,,,,,,,,magenta,square
170.0,5.0,1.0,1.0,2.0,2.0,394.0378439999676,3.0,1.0,part_1,,,,,,,,,,,,,white,circle
666.0,3.0,3.0,0.0,2.0,2.0,357.2852589999229,3.0,1.0,part_1,,,,,,,,,,,,,yellow,flipped triangle
0.0,4.0,0.0,0.0,3.0,3.0,338.2196009999916,3.0,1.0,part_1,,,,,,,,,,,,,blue,I
0.0,3.0,0.0,0.0,1.0,1.0,412.3429039999564,3.0,1.0,part_1,,,,,,,,,,,,,yellow,flipped triangle
329.0,6.0,2.0,1.0,3.0,3.0,348.0736459999889,3.0,1.0,part_1,,,,,,,,,,,,,magenta,square
1312.0,8.0,4.0,1.0,2.0,2.0,337.5763330000154,3.0,1.0,part_1,,,,,,,,,,,,,orange,triangle
1315.0,4.0,4.0,0.0,4.0,4.0,339.1411989999824,3.0,1.0,part_1,,,,,,,,,,,,,blue,I
632.0,3.0,3.0,0.0,3.0,3.0,338.167111999951,3.0,1.0,part_1,,,,,,,,,,,,,yellow,flipped triangle
309.0,6.0,2.0,1.0,2.0,2.0,356.3120740000158,3.0,1.0,part_1,,,,,,,,,,,,,magenta,square
155.0,1.0,1.0,0.0,1.0,1.0,431.9726879999734,3.0,1.0,part_1,,,,,,,,,,,,,green,cross
661.0,7.0,3.0,1.0,2.0,2.0,366.3425639999786,3.0,1.0,part_1,,,,,,,,,,,,,gray,diamond
316.0,2.0,2.0,0.0,1.0,1.0,394.4230859999607,3.0,1.0,part_1,,,,,,,,,,,,,cyan,hexagon
0.0,6.0,0.0,1.0,1.0,1.0,440.9868600000663,3.0,1.0,part_1,,,,,,,,,,,,,magenta,square
0.0,1.0,0.0,0.0,1.0,1.0,376.1618700000326,3.0,1.0,part_1,,,,,,,,,,,,,green,cross
142.0,5.0,1.0,1.0,3.0,3.0,377.8471850000642,3.0,1.0,part_1,,,,,,,,,,,,,white,circle
346.0,2.0,2.0,0.0,2.0,2.0,365.0671960000409,3.0,1.0,part_1,,,,,,,,,,,,,cyan,hexagon
140.0,5.0,1.0,1.0,4.0,4.0,384.4499070000893,3.0,1.0,part_1,,,,,,,,,,,,,white,circle
170.0,1.0,1.0,0.0,3.0,3.0,329.4786689999682,3.0,1.0,part_1,,,,,,,,,,,,,green,cross
156.0,1.0,1.0,0.0,3.0,3.0,366.1068110000087,3.0,1.0,part_1,,,,,,,,,,,,,green,cross
1297.0,4.0,4.0,0.0,1.0,1.0,816.6725360000555,3.0,1.0,part_1,,,,,,,,,,,,,blue,I
671.0,7.0,3.0,1.0,1.0,1.0,555.3434579999248,3.0,1.0,part_1,,,,,,,,,,,,,gray,diamond
626.0,7.0,3.0,1.0,1.0,1.0,346.4492499999778,3.0,1.0,part_1,,,,,,,,,,,,,gray,diamond
0.0,1.0,0.0,0.0,2.0,2.0,385.6845440000143,3.0,1.0,part_1,,,,,,,,,,,,,green,cross
1297.0,8.0,4.0,1.0,1.0,1.0,319.2377990000068,3.0,1.0,part_1,,,,,,,,,,,,,orange,triangle
170.0,5.0,1.0,1.0,4.0,4.0,430.529727000021,3.0,1.0,part_1,,,,,,,,,,,,,white,circle
0.0,6.0,0.0,1.0,4.0,4.0,461.1215570000695,3.0,1.0,part_1,,,,,,,,,,,,,magenta,square
657.0,7.0,3.0,1.0,4.0,4.0,404.365619000032,3.0,1.0,part_1,,,,,,,,,,,,,gray,diamond
632.0,7.0,3.0,1.0,2.0,2.0,348.336402999962,3.0,1.0,part_1,,,,,,,,,,,,,gray,diamond
1297.0,8.0,4.0,1.0,1.0,1.0,404.0693900000178,3.0,1.0,part_1,,,,,,,,,,,,,orange,triangle
1312.0,8.0,4.0,1.0,3.0,3.0,366.29247999997,3.0,1.0,part_1,,,,,,,,,,,,,orange,triangle
0.0,5.0,0.0,1.0,3.0,3.0,451.4070540000148,3.0,1.0,part_1,,,,,,,,,,,,,white,circle
1290.0,4.0,4.0,0.0,2.0,2.0,406.2460159999546,3.0,1.0,part_1,,,,,,,,,,,,,blue,I
0.0,6.0,0.0,1.0,2.0,2.0,385.1405439999098,3.0,1.0,part_1,,,,,,,,,,,,,magenta,square
1290.0,4.0,4.0,0.0,4.0,4.0,422.7598279999256,3.0,1.0,part_1,,,,,,,,,,,,,blue,I
661.0,3.0,3.0,0.0,3.0,3.0,320.3749159999915,3.0,1.0,part_1,,,,,,,,,,,,,yellow,flipped triangle
662.0,3.0,3.0,0.0,4.0,4.0,423.2294760000741,3.0,1.0,part_1,,,,,,,,,,,,,yellow,flipped triangle
666.0,3.0,3.0,0.0,3.0,3.0,310.2030600000489,3.0,1.0,part_1,,,,,,,,,,,,,yellow,flipped triangle
666.0,7.0,3.0,1.0,3.0,3.0,319.6202029999995,3.0,1.0,part_1,,,,,,,,,,,,,gray,diamond
174.0,1.0,1.0,0.0,1.0,1.0,574.7341530000085,3.0,1.0,part_1,,,,,,,,,,,,,green,cross
159.0,1.0,1.0,0.0,4.0,4.0,470.3962209999872,3.0,1.0,part_1,,,,,,,,,,,,,green,cross
155.0,1.0,1.0,0.0,2.0,2.0,441.6366919999746,3.0,1.0,part_1,,,,,,,,,,,,,green,cross
662.0,3.0,3.0,0.0,1.0,1.0,431.3038090000418,3.0,1.0,part_1,,,,,,,,,,,,,yellow,flipped triangle
164.0,5.0,1.0,1.0,2.0,2.0,385.7737789999191,3.0,1.0,part_1,,,,,,,,,,,,,white,circle
0.0,5.0,0.0,1.0,1.0,1.0,404.400580000015,3.0,1.0,part_1,,,,,,,,,,,,,white,circle
1323.0,4.0,4.0,0.0,4.0,4.0,451.6004249999241,3.0,1.0,part_1,,,,,,,,,,,,,blue,I
325.0,2.0,2.0,0.0,1.0,1.0,394.3052219999572,3.0,1.0,part_1,,,,,,,,,,,,,cyan,hexagon
650.0,3.0,3.0,0.0,3.0,3.0,347.8828080001221,3.0,1.0,part_1,,,,,,,,,,,,,yellow,flipped triangle
1280.0,8.0,4.0,1.0,1.0,1.0,402.6988440000423,3.0,1.0,part_1,,,,,,,,,,,,,orange,triangle
309.0,2.0,2.0,0.0,1.0,1.0,422.4149950000537,3.0,1.0,part_1,,,,,,,,,,,,,cyan,hexagon
1285.0,4.0,4.0,0.0,3.0,3.0,347.3490839999158,3.0,1.0,part_1,,,,,,,,,,,,,blue,I
657.0,7.0,3.0,1.0,2.0,2.0,460.8397500001047,3.0,1.0,part_1,,,,,,,,,,,,,gray,diamond
0.0,3.0,0.0,0.0,3.0,3.0,349.0753470000527,3.0,1.0,part_1,,,,,,,,,,,,,yellow,flipped triangle
1290.0,8.0,4.0,1.0,1.0,1.0,385.8472670001447,3.0,1.0,part_1,,,,,,,,,,,,,orange,triangle
159.0,5.0,1.0,1.0,1.0,1.0,375.1498260000971,3.0,1.0,part_1,,,,,,,,,,,,,white,circle
349.0,2.0,2.0,0.0,4.0,4.0,479.7216729998581,3.0,1.0,part_1,,,,,,,,,,,,,cyan,hexagon
179.0,5.0,1.0,1.0,4.0,4.0,431.2091090000649,3.0,1.0,part_1,,,,,,,,,,,,,white,circle
0.0,8.0,0.0,1.0,1.0,1.0,366.5721869999743,3.0,1.0,part_1,,,,,,,,,,,,,orange,triangle
165.0,1.0,1.0,0.0,3.0,3.0,328.5258579999208,3.0,1.0,part_1,,,,,,,,,,,,,green,cross
631.0,7.0,3.0,1.0,2.0,2.0,366.1606939999728,3.0,1.0,part_1,,,,,,,,,,,,,gray,diamond
185.0,1.0,1.0,0.0,4.0,4.0,413.7213469998642,3.0,1.0,part_1,,,,,,,,,,,,,green,cross
137.0,5.0,1.0,1.0,2.0,2.0,347.9090309999719,3.0,1.0,part_1,,,,,,,,,,,,,white,circle
0.0,4.0,0.0,0.0,3.0,3.0,310.3871179998805,3.0,1.0,part_1,,,,,,,,,,,,,blue,I
1285.0,8.0,4.0,1.0,4.0,4.0,359.3294489999152,3.0,1.0,part_1,,,,,,,,,,,,,orange,triangle
181.0,1.0,1.0,0.0,4.0,4.0,403.596749000144,3.0,1.0,part_1,,,,,,,,,,,,,green,cross
1322.0,8.0,4.0,1.0,4.0,4.0,318.2064210000135,3.0,1.0,part_1,,,,,,,,,,,,,orange,triangle
348.0,2.0,2.0,0.0,3.0,3.0,338.1485699999302,3.0,1.0,part_1,,,,,,,,,,,,,cyan,hexagon
660.0,3.0,3.0,0.0,4.0,4.0,385.6631370001651,3.0,1.0,part_1,,,,,,,,,,,,,yellow,flipped triangle
0.0,2.0,0.0,0.0,1.0,1.0,490.1059860001169,3.0,1.0,part_1,,,,,,,,,,,,,cyan,hexagon
675.0,3.0,3.0,0.0,3.0,3.0,309.2088409998723,3.0,1.0,part_1,,,,,,,,,,,,,yellow,flipped triangle
626.0,3.0,3.0,0.0,3.0,3.0,329.0155639999739,3.0,1.0,part_1,,,,,,,,,,,,,yellow,flipped triangle
332.0,2.0,2.0,0.0,4.0,4.0,329.0477399998508,3.0,1.0,part_1,,,,,,,,,,,,,cyan,hexagon
644.0,7.0,3.0,1.0,3.0,3.0,366.773313000067,3.0,1.0,part_1,,,,,,,,,,,,,gray,diamond
311.0,6.0,2.0,1.0,1.0,1.0,498.479535999877,3.0,1.0,part_1,,,,,,,,,,,,,magenta,square
0.0,3.0,0.0,0.0,4.0,4.0,356.3173359998473,3.0,1.0,part_1,,,,,,,,,,,,,yellow,flipped triangle
336.0,6.0,2.0,1.0,3.0,3.0,330.4186950001622,3.0,1.0,part_1,,,,,,,,,,,,,magenta,square
338.0,6.0,2.0,1.0,3.0,3.0,347.0045809999647,3.0,1.0,part_1,,,,,,,,,,,,,magenta,square
310.0,6.0,2.0,1.0,4.0,4.0,393.3541999999761,3.0,1.0,part_1,,,,,,,,,,,,,magenta,square
1312.0,4.0,4.0,0.0,4.0,4.0,403.2574400000612,3.0,1.0,part_1,,,,,,,,,,,,,blue,I
340.0,2.0,2.0,0.0,3.0,3.0,329.3436869998913,3.0,1.0,part_1,,,,,,,,,,,,,cyan,hexagon
661.0,7.0,3.0,1.0,2.0,2.0,439.9231250001776,3.0,1.0,part_1,,,,,,,,,,,,,gray,diamond
0.0,8.0,0.0,1.0,1.0,1.0,487.7849330000572,3.0,1.0,part_1,,,,,,,,,,,,,orange,triangle
1312.0,4.0,4.0,0.0,1.0,1.0,329.0351949999603,3.0,1.0,part_1,,,,,,,,,,,,,blue,I
645.0,7.0,3.0,1.0,3.0,3.0,338.2529939999585,3.0,1.0,part_1,,,,,,,,,,,,,gray,diamond
0.0,6.0,0.0,1.0,3.0,3.0,375.9524520000923,3.0,1.0,part_1,,,,,,,,,,,,,magenta,square
666.0,3.0,3.0,0.0,2.0,2.0,393.9047660001051,3.0,1.0,part_1,,,,,,,,,,,,,yellow,flipped triangle
317.0,2.0,2.0,0.0,4.0,4.0,476.3189140001032,3.0,1.0,part_1,,,,,,,,,,,,,cyan,hexagon
642.0,7.0,3.0,1.0,3.0,3.0,347.8704110000308,3.0,1.0,part_1,,,,,,,,,,,,,gray,diamond
1305.0,4.0,4.0,0.0,4.0,4.0,470.0986450000073,3.0,1.0,part_1,,,,,,,,,,,,,blue,I
0.0,3.0,0.0,0.0,3.0,3.0,337.7652589999798,3.0,1.0,part_1,,,,,,,,,,,,,yellow,flipped triangle
666.0,7.0,3.0,1.0,3.0,3.0,346.5095409999321,3.0,1.0,part_1,,,,,,,,,,,,,gray,diamond
626.0,7.0,3.0,1.0,4.0,4.0,376.4853620000394,3.0,1.0,part_1,,,,,,,,,,,,,gray,diamond
148.0,1.0,1.0,0.0,1.0,1.0,524.902930999815,3.0,1.0,part_1,,,,,,,,,,,,,green,cross
1323.0,8.0,4.0,1.0,3.0,3.0,337.9922550000174,3.0,1.0,part_1,,,,,,,,,,,,,orange,triangle
164.0,1.0,1.0,0.0,2.0,2.0,421.9595079998726,3.0,1.0,part_1,,,,,,,,,,,,,green,cross
1301.0,8.0,4.0,1.0,3.0,3.0,347.5641319998885,3.0,1.0,part_1,,,,,,,,,,,,,orange,triangle
1303.0,4.0,4.0,0.0,2.0,2.0,365.9080370000538,3.0,1.0,part_1,,,,,,,,,,,,,blue,I
174.0,5.0,1.0,1.0,1.0,1.0,393.4048799999345,3.0,1.0,part_1,,,,,,,,,,,,,white,circle
0.0,1.0,0.0,0.0,1.0,1.0,329.380909000065,3.0,1.0,part_1,,,,,,,,,,,,,green,cross
334.0,6.0,2.0,1.0,3.0,3.0,327.6896120000856,4.0,1.0,part_1,,,,,,,,,,,,,magenta,square
152.0,1.0,1.0,0.0,3.0,3.0,310.3722769999422,4.0,1.0,part_1,,,,,,,,,,,,,green,cross
654.0,3.0,3.0,0.0,2.0,2.0,375.0310689999878,4.0,1.0,part_1,,,,,,,,,,,,,yellow,flipped triangle
657.0,7.0,3.0,1.0,1.0,1.0,374.9077449999731,4.0,1.0,part_1,,,,,,,,,,,,,gray,diamond
0.0,2.0,0.0,0.0,2.0,2.0,668.5866089999308,4.0,1.0,part_1,,,,,,,,,,,,,cyan,hexagon
304.0,6.0,2.0,1.0,1.0,1.0,375.0851729998885,4.0,1.0,part_1,,,,,,,,,,,,,magenta,square
670.0,3.0,3.0,0.0,2.0,2.0,356.1640920001991,4.0,1.0,part_1,,,,,,,,,,,,,yellow,flipped triangle
0.0,5.0,0.0,1.0,1.0,1.0,355.9723050000229,4.0,1.0,part_1,,,,,,,,,,,,,white,circle
349.0,6.0,2.0,1.0,1.0,1.0,347.9045009999026,4.0,1.0,part_1,,,,,,,,,,,,,magenta,square
155.0,5.0,1.0,1.0,1.0,1.0,300.4276359999949,4.0,1.0,part_1,,,,,,,,,,,,,white,circle
0.0,1.0,0.0,0.0,2.0,2.0,351.4939789999971,4.0,1.0,part_1,,,,,,,,,,,,,green,cross
174.0,5.0,1.0,1.0,4.0,4.0,536.0483089998525,4.0,1.0,part_1,,,,,,,,,,,,,white,circle
316.0,6.0,2.0,1.0,2.0,2.0,365.8753459999389,4.0,1.0,part_1,,,,,,,,,,,,,magenta,square
662.0,7.0,3.0,1.0,2.0,2.0,389.4375229999696,4.0,1.0,part_1,,,,,,,,,,,,,gray,diamond
1324.0,4.0,4.0,0.0,4.0,4.0,546.518499000058,4.0,1.0,part_1,,,,,,,,,,,,,blue,I
333.0,6.0,2.0,1.0,2.0,2.0,328.5200090001581,4.0,1.0,part_1,,,,,,,,,,,,,magenta,square
339.0,2.0,2.0,0.0,2.0,2.0,346.7476240000451,4.0,1.0,part_1,,,,,,,,,,,,,cyan,hexagon
313.0,2.0,2.0,0.0,4.0,4.0,346.1397670000679,4.0,1.0,part_1,,,,,,,,,,,,,cyan,hexagon
1276.0,4.0,4.0,0.0,1.0,1.0,347.1831570000177,4.0,1.0,part_1,,,,,,,,,,,,,blue,I
181.0,5.0,1.0,1.0,1.0,1.0,328.5981559999982,4.0,1.0,part_1,,,,,,,,,,,,,white,circle
346.0,6.0,2.0,1.0,4.0,4.0,412.5720130000445,4.0,1.0,part_1,,,,,,,,,,,,,magenta,square
0.0,3.0,0.0,0.0,1.0,1.0,329.1185609998592,4.0,1.0,part_1,,,,,,,,,,,,,yellow,flipped triangle
1290.0,8.0,4.0,1.0,4.0,4.0,337.1226670001306,4.0,1.0,part_1,,,,,,,,,,,,,orange,triangle
0.0,5.0,0.0,1.0,1.0,1.0,347.0648350000829,4.0,1.0,part_1,,,,,,,,,,,,,white,circle
635.0,7.0,3.0,1.0,4.0,4.0,376.5926619998936,4.0,1.0,part_1,,,,,,,,,,,,,gray,diamond
660.0,7.0,3.0,1.0,2.0,2.0,355.4766140000538,4.0,2.0,part_1,,,,,,,,,,,,,gray,diamond
661.0,7.0,3.0,1.0,4.0,4.0,365.2936349999436,4.0,1.0,part_1,,,,,,,,,,,,,gray,diamond
0.0,7.0,0.0,1.0,4.0,4.0,402.6923649998934,4.0,1.0,part_1,,,,,,,,,,,,,gray,diamond
661.0,3.0,3.0,0.0,1.0,1.0,469.3430559998433,4.0,1.0,part_1,,,,,,,,,,,,,yellow,flipped triangle
1321.0,4.0,4.0,0.0,1.0,1.0,355.8602460000202,4.0,1.0,part_1,,,,,,,,,,,,,blue,I
629.0,3.0,3.0,0.0,3.0,3.0,356.1573260001296,4.0,1.0,part_1,,,,,,,,,,,,,yellow,flipped triangle
329.0,6.0,2.0,1.0,3.0,3.0,366.2773910000396,4.0,1.0,part_1,,,,,,,,,,,,,magenta,square
143.0,1.0,1.0,0.0,3.0,3.0,403.3018669999819,4.0,1.0,part_1,,,,,,,,,,,,,green,cross
0.0,7.0,0.0,1.0,1.0,1.0,374.9135080001906,4.0,1.0,part_1,,,,,,,,,,,,,gray,diamond
165.0,5.0,1.0,1.0,3.0,3.0,375.1857330000803,4.0,1.0,part_1,,,,,,,,,,,,,white,circle
336.0,2.0,2.0,0.0,1.0,1.0,365.7132679998085,4.0,1.0,part_1,,,,,,,,,,,,,cyan,hexagon
1317.0,8.0,4.0,1.0,4.0,4.0,394.5831549999639,4.0,1.0,part_1,,,,,,,,,,,,,orange,triangle
1306.0,8.0,4.0,1.0,1.0,1.0,384.7747199999958,4.0,1.0,part_1,,,,,,,,,,,,,orange,triangle
167.0,5.0,1.0,1.0,1.0,1.0,339.2814910000652,4.0,1.0,part_1,,,,,,,,,,,,,white,circle
173.0,1.0,1.0,0.0,2.0,2.0,384.8513099999309,4.0,1.0,part_1,,,,,,,,,,,,,green,cross
1276.0,8.0,4.0,1.0,1.0,1.0,301.0113719999481,4.0,1.0,part_1,,,,,,,,,,,,,orange,triangle
332.0,2.0,2.0,0.0,3.0,3.0,356.4045919999898,4.0,1.0,part_1,,,,,,,,,,,,,cyan,hexagon
1324.0,8.0,4.0,1.0,2.0,2.0,422.9482959999586,4.0,1.0,part_1,,,,,,,,,,,,,orange,triangle
0.0,8.0,0.0,1.0,2.0,2.0,356.6087840001728,4.0,1.0,part_1,,,,,,,,,,,,,orange,triangle
653.0,7.0,3.0,1.0,4.0,4.0,411.9645890000356,4.0,1.0,part_1,,,,,,,,,,,,,gray,diamond
664.0,3.0,3.0,0.0,1.0,1.0,327.9098040000008,4.0,1.0,part_1,,,,,,,,,,,,,yellow,flipped triangle
314.0,2.0,2.0,0.0,2.0,2.0,328.2194609998896,4.0,1.0,part_1,,,,,,,,,,,,,cyan,hexagon
0.0,1.0,0.0,0.0,1.0,1.0,374.3867400000908,4.0,1.0,part_1,,,,,,,,,,,,,green,cross
0.0,2.0,0.0,0.0,1.0,1.0,459.4536229999448,4.0,1.0,part_1,,,,,,,,,,,,,cyan,hexagon
324.0,6.0,2.0,1.0,1.0,1.0,365.5820500000573,4.0,1.0,part_1,,,,,,,,,,,,,magenta,square
1322.0,4.0,4.0,0.0,3.0,3.0,477.0272819998808,4.0,1.0,part_1,,,,,,,,,,,,,blue,I
1321.0,8.0,4.0,1.0,3.0,3.0,411.5984029999708,4.0,1.0,part_1,,,,,,,,,,,,,orange,triangle
185.0,5.0,1.0,1.0,2.0,2.0,486.0306870000386,4.0,1.0,part_1,,,,,,,,,,,,,white,circle
654.0,7.0,3.0,1.0,3.0,3.0,477.3540159999356,4.0,1.0,part_1,,,,,,,,,,,,,gray,diamond
1286.0,8.0,4.0,1.0,2.0,2.0,364.9207099999785,4.0,1.0,part_1,,,,,,,,,,,,,orange,triangle
657.0,3.0,3.0,0.0,2.0,2.0,411.0211350000554,4.0,1.0,part_1,,,,,,,,,,,,,yellow,flipped triangle
1324.0,8.0,4.0,1.0,2.0,2.0,358.1246300000202,4.0,1.0,part_1,,,,,,,,,,,,,orange,triangle
670.0,3.0,3.0,0.0,1.0,1.0,516.6310909999083,4.0,1.0,part_1,,,,,,,,,,,,,yellow,flipped triangle
636.0,3.0,3.0,0.0,1.0,1.0,346.0975319999306,4.0,1.0,part_1,,,,,,,,,,,,,yellow,flipped triangle
150.0,1.0,1.0,0.0,1.0,1.0,346.5262409999923,4.0,1.0,part_1,,,,,,,,,,,,,green,cross
638.0,3.0,3.0,0.0,2.0,2.0,422.7370000000974,4.0,1.0,part_1,,,,,,,,,,,,,yellow,flipped triangle
1307.0,4.0,4.0,0.0,1.0,1.0,365.4490540000097,4.0,1.0,part_1,,,,,,,,,,,,,blue,I
319.0,6.0,2.0,1.0,2.0,2.0,365.0484879999567,4.0,1.0,part_1,,,,,,,,,,,,,magenta,square
0.0,4.0,0.0,0.0,2.0,2.0,364.8073839999597,4.0,1.0,part_1,,,,,,,,,,,,,blue,I
0.0,4.0,0.0,0.0,2.0,2.0,356.4470890000848,4.0,1.0,part_1,,,,,,,,,,,,,blue,I
0.0,2.0,0.0,0.0,2.0,2.0,356.5070330000708,4.0,1.0,part_1,,,,,,,,,,,,,cyan,hexagon
1287.0,8.0,4.0,1.0,4.0,4.0,479.2934629999763,4.0,1.0,part_1,,,,,,,,,,,,,orange,triangle
181.0,1.0,1.0,0.0,3.0,3.0,468.9540990000296,4.0,1.0,part_1,,,,,,,,,,,,,green,cross
657.0,3.0,3.0,0.0,1.0,1.0,347.0901609998691,4.0,1.0,part_1,,,,,,,,,,,,,yellow,flipped triangle
164.0,5.0,1.0,1.0,3.0,3.0,386.9423769999685,4.0,1.0,part_1,,,,,,,,,,,,,white,circle
1294.0,4.0,4.0,0.0,3.0,3.0,356.8830750000415,4.0,1.0,part_1,,,,,,,,,,,,,blue,I
313.0,6.0,2.0,1.0,1.0,1.0,366.3366560001577,4.0,1.0,part_1,,,,,,,,,,,,,magenta,square
1275.0,8.0,4.0,1.0,2.0,2.0,384.4074399999044,4.0,1.0,part_1,,,,,,,,,,,,,orange,triangle
644.0,3.0,3.0,0.0,4.0,4.0,440.8122739998816,4.0,1.0,part_1,,,,,,,,,,,,,yellow,flipped triangle
166.0,5.0,1.0,1.0,1.0,1.0,346.3397720001921,4.0,1.0,part_1,,,,,,,,,,,,,white,circle
632.0,7.0,3.0,1.0,3.0,3.0,328.7866970001687,4.0,1.0,part_1,,,,,,,,,,,,,gray,diamond
151.0,5.0,1.0,1.0,4.0,4.0,393.5722070000338,4.0,1.0,part_1,,,,,,,,,,,,,white,circle
654.0,7.0,3.0,1.0,3.0,3.0,355.5094089999784,4.0,1.0,part_1,,,,,,,,,,,,,gray,diamond
1315.0,4.0,4.0,0.0,3.0,3.0,487.4828699998943,4.0,1.0,part_1,,,,,,,,,,,,,blue,I
1283.0,4.0,4.0,0.0,2.0,2.0,365.5471850001959,4.0,1.0,part_1,,,,,,,,,,,,,blue,I
1319.0,8.0,4.0,1.0,3.0,3.0,338.0401389999861,4.0,1.0,part_1,,,,,,,,,,,,,orange,triangle
1296.0,4.0,4.0,0.0,2.0,2.0,411.8353189999197,4.0,1.0,part_1,,,,,,,,,,,,,blue,I
0.0,7.0,0.0,1.0,4.0,4.0,497.2610539998641,4.0,1.0,part_1,,,,,,,,,,,,,gray,diamond
144.0,1.0,1.0,0.0,3.0,3.0,328.7198779999016,4.0,1.0,part_1,,,,,,,,,,,,,green,cross
1291.0,8.0,4.0,1.0,2.0,2.0,412.5068480000209,4.0,1.0,part_1,,,,,,,,,,,,,orange,triangle
152.0,5.0,1.0,1.0,2.0,2.0,375.2520140001252,4.0,1.0,part_1,,,,,,,,,,,,,white,circle
1285.0,4.0,4.0,0.0,2.0,2.0,394.1965689998596,4.0,1.0,part_1,,,,,,,,,,,,,blue,I
332.0,6.0,2.0,1.0,4.0,4.0,393.7406270001702,4.0,1.0,part_1,,,,,,,,,,,,,magenta,square
1283.0,4.0,4.0,0.0,2.0,2.0,374.3692800001099,4.0,1.0,part_1,,,,,,,,,,,,,blue,I
1287.0,4.0,4.0,0.0,3.0,3.0,338.4658569998464,4.0,1.0,part_1,,,,,,,,,,,,,blue,I
160.0,5.0,1.0,1.0,2.0,2.0,347.2894340000039,4.0,1.0,part_1,,,,,,,,,,,,,white,circle
329.0,2.0,2.0,0.0,1.0,1.0,459.5941980001043,4.0,1.0,part_1,,,,,,,,,,,,,cyan,hexagon
1324.0,4.0,4.0,0.0,2.0,2.0,375.0724290000562,4.0,1.0,part_1,,,,,,,,,,,,,blue,I
1294.0,8.0,4.0,1.0,1.0,1.0,469.0723349999643,4.0,1.0,part_1,,,,,,,,,,,,,orange,triangle
1283.0,8.0,4.0,1.0,3.0,3.0,375.8935729999848,4.0,1.0,part_1,,,,,,,,,,,,,orange,triangle
0.0,5.0,0.0,1.0,3.0,3.0,348.091629999999,4.0,1.0,part_1,,,,,,,,,,,,,white,circle
0.0,7.0,0.0,1.0,2.0,2.0,403.749014999903,4.0,1.0,part_1,,,,,,,,,,,,,gray,diamond
142.0,1.0,1.0,0.0,4.0,4.0,507.53527799997755,4.0,1.0,part_1,,,,,,,,,,,,,green,cross
1285.0,4.0,4.0,0.0,4.0,4.0,441.2558779999926,4.0,1.0,part_1,,,,,,,,,,,,,blue,I
0.0,6.0,0.0,1.0,3.0,3.0,337.7351220001401,4.0,1.0,part_1,,,,,,,,,,,,,magenta,square
0.0,4.0,4.0,0.0,5.0,5.0,321.0147970000889,1.0,0.0,part_2,go,250.0,250.0,1.0,,,,,,,,,blue,I
0.0,6.0,2.0,1.0,5.0,5.0,535.6221020001612,1.0,0.0,part_2,go,250.0,250.0,1.0,,,,,,,,,magenta,square
0.0,1.0,1.0,0.0,5.0,5.0,497.80482999995,1.0,0.0,part_2,go,250.0,250.0,1.0,,,,,,,,,green,cross
0.0,8.0,4.0,1.0,5.0,5.0,623.5023009999168,1.0,0.0,part_2,stop,250.0,250.0,3.0,,,,,,,,,orange,triangle
0.0,8.0,4.0,1.0,6.0,0.0,0.0,1.0,0.0,part_2,stop,200.0,250.0,4.0,,,,,,,,,orange,triangle
0.0,1.0,1.0,0.0,6.0,6.0,443.2433760000549,1.0,0.0,part_2,go,200.0,300.0,1.0,,,,,,,,,green,cross
0.0,6.0,2.0,1.0,6.0,0.0,0.0,1.0,0.0,part_2,stop,200.0,300.0,4.0,,,,,,,,,magenta,square
0.0,3.0,3.0,0.0,6.0,6.0,574.5653809999567,1.0,0.0,part_2,go,200.0,350.0,1.0,,,,,,,,,yellow,flipped triangle
0.0,7.0,3.0,1.0,6.0,0.0,0.0,1.0,0.0,part_2,stop,200.0,350.0,4.0,,,,,,,,,gray,diamond
0.0,3.0,3.0,0.0,6.0,6.0,659.6596259998933,1.0,0.0,part_2,go,200.0,400.0,1.0,,,,,,,,,yellow,flipped triangle
0.0,5.0,1.0,1.0,6.0,6.0,481.6649340000367,1.0,0.0,part_2,stop,200.0,400.0,3.0,,,,,,,,,white,circle
0.0,7.0,3.0,1.0,6.0,0.0,0.0,1.0,0.0,part_2,stop,200.0,350.0,4.0,,,,,,,,,gray,diamond
0.0,5.0,1.0,1.0,5.0,0.0,0.0,1.0,0.0,part_2,stop,200.0,400.0,4.0,,,,,,,,,white,circle
0.0,1.0,1.0,0.0,6.0,6.0,687.8094129999681,1.0,0.0,part_2,go,250.0,400.0,1.0,,,,,,,,,green,cross
0.0,6.0,2.0,1.0,5.0,0.0,0.0,1.0,0.0,part_2,stop,250.0,400.0,4.0,,,,,,,,,magenta,square
0.0,2.0,2.0,0.0,5.0,5.0,717.3582929999611,1.0,0.0,part_2,go,300.0,400.0,1.0,,,,,,,,,cyan,hexagon
0.0,2.0,2.0,0.0,5.0,5.0,781.9355549997908,1.0,0.0,part_2,go,300.0,400.0,1.0,,,,,,,,,cyan,hexagon
0.0,8.0,4.0,1.0,6.0,0.0,0.0,1.0,0.0,part_2,stop,300.0,400.0,4.0,,,,,,,,,orange,triangle
0.0,8.0,4.0,1.0,6.0,6.0,641.8229870000687,1.0,0.0,part_2,go,300.0,450.0,1.0,,,,,,,,,orange,triangle
0.0,6.0,2.0,1.0,6.0,0.0,0.0,1.0,0.0,part_2,stop,300.0,450.0,4.0,,,,,,,,,magenta,square
0.0,2.0,2.0,0.0,5.0,5.0,650.4721149999568,1.0,0.0,part_2,go,300.0,500.0,1.0,,,,,,,,,cyan,hexagon
0.0,1.0,1.0,0.0,6.0,6.0,752.9139080002096,1.0,0.0,part_2,go,300.0,500.0,1.0,,,,,,,,,green,cross
0.0,7.0,3.0,1.0,6.0,6.0,763.2761419999952,1.0,0.0,part_2,go,300.0,500.0,1.0,,,,,,,,,gray,diamond
0.0,3.0,3.0,0.0,5.0,5.0,649.9606879999646,1.0,0.0,part_2,go,300.0,500.0,1.0,,,,,,,,,yellow,flipped triangle
0.0,7.0,3.0,1.0,5.0,0.0,0.0,1.0,0.0,part_2,stop,300.0,500.0,4.0,,,,,,,,,gray,diamond
0.0,2.0,2.0,0.0,6.0,6.0,706.8416909999087,1.0,0.0,part_2,go,350.0,500.0,1.0,,,,,,,,,cyan,hexagon
0.0,5.0,1.0,1.0,5.0,0.0,0.0,1.0,0.0,part_2,stop,350.0,500.0,4.0,,,,,,,,,white,circle
0.0,3.0,3.0,0.0,6.0,6.0,592.2401249999893,1.0,0.0,part_2,go,400.0,500.0,1.0,,,,,,,,,yellow,flipped triangle
0.0,8.0,4.0,1.0,5.0,0.0,0.0,1.0,0.0,part_2,stop,400.0,500.0,4.0,,,,,,,,,orange,triangle
0.0,3.0,3.0,0.0,6.0,6.0,839.1195249998873,1.0,0.0,part_2,go,450.0,500.0,1.0,,,,,,,,,yellow,flipped triangle
0.0,2.0,2.0,0.0,5.0,5.0,719.596815000159,1.0,0.0,part_2,go,450.0,500.0,1.0,,,,,,,,,cyan,hexagon
0.0,2.0,2.0,0.0,5.0,5.0,636.6720059997988,1.0,0.0,part_2,go,450.0,500.0,1.0,,,,,,,,,cyan,hexagon
0.0,4.0,4.0,0.0,5.0,5.0,427.6822309998351,1.0,0.0,part_2,go,450.0,500.0,1.0,,,,,,,,,blue,I
0.0,8.0,4.0,1.0,5.0,0.0,0.0,1.0,0.0,part_2,stop,450.0,500.0,4.0,,,,,,,,,orange,triangle
0.0,5.0,1.0,1.0,6.0,6.0,603.8412769999013,1.0,0.0,part_2,go,500.0,500.0,1.0,,,,,,,,,white,circle
0.0,8.0,4.0,1.0,6.0,0.0,0.0,1.0,0.0,part_2,stop,500.0,500.0,4.0,,,,,,,,,orange,triangle
0.0,1.0,1.0,0.0,5.0,5.0,414.7366180000063,2.0,0.0,part_2,go,500.0,550.0,1.0,,,,,,,,,green,cross
0.0,2.0,2.0,0.0,6.0,6.0,774.9161900001127,2.0,0.0,part_2,go,500.0,550.0,1.0,,,,,,,,,cyan,hexagon
0.0,2.0,2.0,0.0,6.0,6.0,377.4726020001253,2.0,0.0,part_2,go,500.0,550.0,1.0,,,,,,,,,cyan,hexagon
0.0,7.0,3.0,1.0,5.0,0.0,0.0,2.0,0.0,part_2,stop,500.0,550.0,4.0,,,,,,,,,gray,diamond
0.0,3.0,3.0,0.0,5.0,5.0,886.5798540000469,2.0,0.0,part_2,go,550.0,550.0,1.0,,,,,,,,,yellow,flipped triangle
0.0,1.0,1.0,0.0,5.0,5.0,784.5755729999837,2.0,0.0,part_2,go,550.0,550.0,1.0,,,,,,,,,green,cross
0.0,6.0,2.0,1.0,5.0,0.0,0.0,2.0,0.0,part_2,stop,550.0,550.0,4.0,,,,,,,,,magenta,square
0.0,7.0,3.0,1.0,5.0,5.0,556.6988030000175,2.0,0.0,part_2,stop,600.0,550.0,3.0,,,,,,,,,gray,diamond
0.0,7.0,3.0,1.0,5.0,5.0,912.399331000188,2.0,0.0,part_2,go,550.0,550.0,1.0,,,,,,,,,gray,diamond
0.0,6.0,2.0,1.0,6.0,0.0,0.0,2.0,0.0,part_2,stop,550.0,550.0,4.0,,,,,,,,,magenta,square
0.0,1.0,1.0,0.0,6.0,6.0,613.3942550000029,2.0,0.0,part_2,go,550.0,600.0,1.0,,,,,,,,,green,cross
0.0,2.0,2.0,0.0,5.0,5.0,509.75769499996204,2.0,0.0,part_2,go,550.0,600.0,1.0,,,,,,,,,cyan,hexagon
0.0,8.0,4.0,1.0,6.0,6.0,527.0166179998341,2.0,0.0,part_2,go,550.0,600.0,1.0,,,,,,,,,orange,triangle
0.0,6.0,2.0,1.0,5.0,5.0,433.2639839999501,2.0,0.0,part_2,go,550.0,600.0,1.0,,,,,,,,,magenta,square
0.0,8.0,4.0,1.0,5.0,5.0,916.2163280000186,2.0,0.0,part_2,go,550.0,600.0,1.0,,,,,,,,,orange,triangle
0.0,5.0,1.0,1.0,6.0,6.0,789.0448979999292,2.0,0.0,part_2,stop,550.0,600.0,3.0,,,,,,,,,white,circle
0.0,8.0,4.0,1.0,6.0,0.0,0.0,2.0,0.0,part_2,stop,550.0,550.0,4.0,,,,,,,,,orange,triangle
0.0,2.0,2.0,0.0,5.0,5.0,771.2075389999882,2.0,0.0,part_2,go,550.0,600.0,1.0,,,,,,,,,cyan,hexagon
0.0,3.0,3.0,0.0,6.0,6.0,886.2898269999278,2.0,0.0,part_2,go,550.0,600.0,1.0,,,,,,,,,yellow,flipped triangle
0.0,6.0,2.0,1.0,5.0,5.0,482.017962999862,2.0,0.0,part_2,stop,550.0,600.0,3.0,,,,,,,,,magenta,square
0.0,8.0,4.0,1.0,6.0,0.0,0.0,2.0,0.0,part_2,stop,500.0,600.0,4.0,,,,,,,,,orange,triangle
0.0,3.0,3.0,0.0,6.0,6.0,848.6773039999207,2.0,0.0,part_2,go,500.0,650.0,1.0,,,,,,,,,yellow,flipped triangle
0.0,1.0,1.0,0.0,5.0,5.0,824.5890079999754,2.0,0.0,part_2,go,500.0,650.0,1.0,,,,,,,,,green,cross
0.0,3.0,3.0,0.0,5.0,5.0,1008.60107099993,2.0,0.0,part_2,go,500.0,650.0,1.0,,,,,,,,,yellow,flipped triangle
0.0,2.0,2.0,0.0,6.0,6.0,914.9726509999708,2.0,0.0,part_2,go,500.0,650.0,1.0,,,,,,,,,cyan,hexagon
0.0,8.0,4.0,1.0,5.0,5.0,831.6407840000011,2.0,0.0,part_2,go,500.0,650.0,1.0,,,,,,,,,orange,triangle
0.0,6.0,2.0,1.0,6.0,6.0,424.3243319999692,2.0,0.0,part_2,go,500.0,650.0,1.0,,,,,,,,,magenta,square
0.0,1.0,1.0,0.0,6.0,6.0,782.0228100001714,2.0,0.0,part_2,go,500.0,650.0,1.0,,,,,,,,,green,cross
0.0,4.0,4.0,0.0,5.0,5.0,823.8231379998524,2.0,0.0,part_2,go,500.0,650.0,1.0,,,,,,,,,blue,I
0.0,7.0,3.0,1.0,5.0,5.0,899.8754900001131,2.0,0.0,part_2,go,500.0,650.0,1.0,,,,,,,,,gray,diamond
0.0,8.0,4.0,1.0,6.0,0.0,0.0,2.0,0.0,part_2,stop,500.0,650.0,4.0,,,,,,,,,orange,triangle
0.0,6.0,2.0,1.0,6.0,6.0,828.1558229998609,2.0,0.0,part_2,stop,500.0,700.0,3.0,,,,,,,,,magenta,square
0.0,6.0,2.0,1.0,5.0,0.0,0.0,2.0,0.0,part_2,stop,500.0,650.0,4.0,,,,,,,,,magenta,square
0.0,3.0,3.0,0.0,5.0,5.0,828.9602209999885,2.0,0.0,part_2,go,550.0,650.0,1.0,,,,,,,,,yellow,flipped triangle
0.0,6.0,2.0,1.0,6.0,6.0,1035.235562000025,2.0,0.0,part_2,go,550.0,650.0,1.0,,,,,,,,,magenta,square
0.0,8.0,4.0,1.0,6.0,6.0,867.2985690000132,2.0,0.0,part_2,go,550.0,650.0,1.0,,,,,,,,,orange,triangle
0.0,5.0,1.0,1.0,6.0,6.0,424.4142919999376,3.0,0.0,part_2,stop,550.0,650.0,3.0,,,,,,,,,white,circle
0.0,7.0,3.0,1.0,6.0,0.0,0.0,3.0,0.0,part_2,stop,550.0,600.0,4.0,,,,,,,,,gray,diamond
0.0,4.0,4.0,0.0,5.0,5.0,470.8838889998787,3.0,0.0,part_2,go,550.0,650.0,1.0,,,,,,,,,blue,I
0.0,5.0,1.0,1.0,5.0,0.0,0.0,3.0,0.0,part_2,stop,550.0,650.0,4.0,,,,,,,,,white,circle
0.0,8.0,4.0,1.0,5.0,5.0,669.9076520001199,3.0,0.0,part_2,stop,600.0,650.0,3.0,,,,,,,,,orange,triangle
0.0,4.0,4.0,0.0,6.0,6.0,649.4144430000688,3.0,0.0,part_2,go,550.0,650.0,1.0,,,,,,,,,blue,I
0.0,1.0,1.0,0.0,5.0,5.0,471.450372000163,3.0,0.0,part_2,go,550.0,650.0,1.0,,,,,,,,,green,cross
0.0,8.0,4.0,1.0,5.0,5.0,716.2531349999881,3.0,0.0,part_2,go,550.0,650.0,1.0,,,,,,,,,orange,triangle
0.0,1.0,1.0,0.0,5.0,5.0,707.7414399998361,3.0,0.0,part_2,go,550.0,650.0,1.0,,,,,,,,,green,cross
0.0,6.0,2.0,1.0,5.0,0.0,0.0,3.0,0.0,part_2,stop,550.0,650.0,4.0,,,,,,,,,magenta,square
0.0,7.0,3.0,1.0,5.0,5.0,704.9855690002005,3.0,0.0,part_2,stop,600.0,650.0,3.0,,,,,,,,,gray,diamond
0.0,2.0,2.0,0.0,6.0,6.0,736.2593129998913,3.0,0.0,part_2,go,550.0,650.0,1.0,,,,,,,,,cyan,hexagon
0.0,2.0,2.0,0.0,6.0,6.0,735.7077809999737,3.0,0.0,part_2,go,550.0,650.0,1.0,,,,,,,,,cyan,hexagon
0.0,8.0,4.0,1.0,5.0,5.0,735.7127980001223,3.0,0.0,part_2,go,550.0,650.0,1.0,,,,,,,,,orange,triangle
0.0,5.0,1.0,1.0,5.0,0.0,0.0,3.0,0.0,part_2,stop,550.0,650.0,4.0,,,,,,,,,white,circle
0.0,1.0,1.0,0.0,6.0,6.0,811.7981789998794,3.0,0.0,part_2,go,600.0,650.0,1.0,,,,,,,,,green,cross
0.0,4.0,4.0,0.0,6.0,6.0,471.000899000046,3.0,0.0,part_2,go,600.0,650.0,1.0,,,,,,,,,blue,I
0.0,7.0,3.0,1.0,6.0,6.0,781.4152710000144,3.0,0.0,part_2,stop,600.0,650.0,3.0,,,,,,,,,gray,diamond
0.0,6.0,2.0,1.0,5.0,0.0,0.0,3.0,0.0,part_2,stop,600.0,600.0,4.0,,,,,,,,,magenta,square
0.0,2.0,2.0,0.0,6.0,6.0,660.3513509999175,3.0,0.0,part_2,go,650.0,600.0,1.0,,,,,,,,,cyan,hexagon
0.0,5.0,1.0,1.0,5.0,5.0,537.3525360000713,3.0,0.0,part_2,stop,650.0,600.0,3.0,,,,,,,,,white,circle
0.0,7.0,3.0,1.0,6.0,6.0,906.364690999908,3.0,0.0,part_2,go,600.0,600.0,1.0,,,,,,,,,gray,diamond
0.0,5.0,1.0,1.0,5.0,0.0,0.0,3.0,0.0,part_2,stop,600.0,600.0,4.0,,,,,,,,,white,circle
0.0,6.0,2.0,1.0,5.0,5.0,825.3277789999629,3.0,0.0,part_2,stop,650.0,600.0,3.0,,,,,,,,,magenta,square
0.0,4.0,4.0,0.0,6.0,6.0,849.2499080000471,3.0,0.0,part_2,go,600.0,600.0,1.0,,,,,,,,,blue,I
0.0,2.0,2.0,0.0,5.0,5.0,641.1547359998622,3.0,0.0,part_2,go,600.0,600.0,1.0,,,,,,,,,cyan,hexagon
0.0,4.0,4.0,0.0,6.0,6.0,638.9281799999935,3.0,0.0,part_2,go,600.0,600.0,1.0,,,,,,,,,blue,I
0.0,7.0,3.0,1.0,6.0,6.0,480.4131310002049,3.0,0.0,part_2,stop,600.0,600.0,3.0,,,,,,,,,gray,diamond
0.0,4.0,4.0,0.0,5.0,5.0,1008.76452600005,3.0,0.0,part_2,go,600.0,550.0,1.0,,,,,,,,,blue,I
0.0,1.0,1.0,0.0,5.0,5.0,810.7106479999402,3.0,0.0,part_2,go,600.0,550.0,1.0,,,,,,,,,green,cross
0.0,8.0,4.0,1.0,5.0,5.0,727.486042999999,3.0,0.0,part_2,stop,600.0,550.0,3.0,,,,,,,,,orange,triangle
0.0,4.0,4.0,0.0,6.0,6.0,529.5876420000241,3.0,0.0,part_2,go,550.0,550.0,1.0,,,,,,,,,blue,I
0.0,6.0,2.0,1.0,6.0,6.0,367.9194060000554,3.0,0.0,part_2,stop,550.0,550.0,3.0,,,,,,,,,magenta,square
0.0,6.0,2.0,1.0,6.0,6.0,651.6857229999005,3.0,0.0,part_2,go,550.0,500.0,1.0,,,,,,,,,magenta,square
0.0,3.0,3.0,0.0,6.0,6.0,811.0599009999078,3.0,0.0,part_2,go,550.0,500.0,1.0,,,,,,,,,yellow,flipped triangle
0.0,5.0,1.0,1.0,6.0,6.0,405.7665359998736,3.0,0.0,part_2,stop,550.0,500.0,3.0,,,,,,,,,white,circle
0.0,3.0,3.0,0.0,6.0,6.0,255.504695999889,4.0,0.0,part_2,go,550.0,450.0,1.0,,,,,,,,,yellow,flipped triangle
0.0,6.0,2.0,1.0,6.0,6.0,395.8256789999268,4.0,0.0,part_2,stop,550.0,450.0,3.0,,,,,,,,,magenta,square
0.0,3.0,3.0,0.0,5.0,5.0,434.50618199995,4.0,0.0,part_2,go,550.0,400.0,1.0,,,,,,,,,yellow,flipped triangle
0.0,4.0,4.0,0.0,5.0,5.0,377.8690839999399,4.0,0.0,part_2,go,550.0,400.0,1.0,,,,,,,,,blue,I
0.0,7.0,3.0,1.0,5.0,5.0,462.2172039998986,4.0,0.0,part_2,stop,550.0,400.0,3.0,,,,,,,,,gray,diamond
0.0,3.0,3.0,0.0,5.0,5.0,678.1350420001218,4.0,0.0,part_2,go,500.0,400.0,1.0,,,,,,,,,yellow,flipped triangle
0.0,2.0,2.0,0.0,6.0,6.0,509.19741699999577,4.0,0.0,part_2,go,500.0,400.0,1.0,,,,,,,,,cyan,hexagon
0.0,8.0,4.0,1.0,6.0,0.0,0.0,4.0,0.0,part_2,stop,500.0,400.0,4.0,,,,,,,,,orange,triangle
0.0,2.0,2.0,0.0,5.0,5.0,378.2747370000834,4.0,0.0,part_2,go,500.0,450.0,1.0,,,,,,,,,cyan,hexagon
0.0,4.0,4.0,0.0,5.0,5.0,576.0346449997087,4.0,0.0,part_2,go,500.0,450.0,1.0,,,,,,,,,blue,I
0.0,2.0,2.0,0.0,6.0,6.0,651.351004999924,4.0,0.0,part_2,go,500.0,450.0,1.0,,,,,,,,,cyan,hexagon
0.0,6.0,2.0,1.0,6.0,6.0,539.7032410000975,4.0,0.0,part_2,stop,500.0,450.0,3.0,,,,,,,,,magenta,square
0.0,1.0,1.0,0.0,6.0,6.0,696.7264959998829,4.0,0.0,part_2,go,500.0,400.0,1.0,,,,,,,,,green,cross
0.0,3.0,3.0,0.0,6.0,6.0,537.8162349998092,4.0,0.0,part_2,go,500.0,400.0,1.0,,,,,,,,,yellow,flipped triangle
0.0,1.0,1.0,0.0,5.0,5.0,567.1924220000619,4.0,0.0,part_2,go,500.0,400.0,1.0,,,,,,,,,green,cross
0.0,5.0,1.0,1.0,6.0,0.0,0.0,4.0,0.0,part_2,stop,500.0,400.0,4.0,,,,,,,,,white,circle
0.0,4.0,4.0,0.0,6.0,6.0,528.9595829999598,4.0,0.0,part_2,go,500.0,450.0,1.0,,,,,,,,,blue,I
0.0,7.0,3.0,1.0,6.0,0.0,0.0,4.0,0.0,part_2,stop,500.0,450.0,4.0,,,,,,,,,gray,diamond
0.0,5.0,1.0,1.0,5.0,5.0,672.5553549999859,4.0,0.0,part_2,stop,500.0,500.0,3.0,,,,,,,,,white,circle
0.0,7.0,3.0,1.0,5.0,0.0,0.0,4.0,0.0,part_2,stop,450.0,500.0,4.0,,,,,,,,,gray,diamond
0.0,1.0,1.0,0.0,5.0,5.0,706.8126610001855,4.0,0.0,part_2,go,500.0,500.0,1.0,,,,,,,,,green,cross
0.0,5.0,1.0,1.0,6.0,6.0,698.8753660002658,4.0,0.0,part_2,go,500.0,500.0,1.0,,,,,,,,,white,circle
0.0,2.0,2.0,0.0,6.0,6.0,471.2646010002572,4.0,0.0,part_2,go,500.0,500.0,1.0,,,,,,,,,cyan,hexagon
0.0,5.0,1.0,1.0,5.0,5.0,621.727066999938,4.0,0.0,part_2,stop,500.0,500.0,3.0,,,,,,,,,white,circle
0.0,2.0,2.0,0.0,5.0,5.0,746.3656539998738,4.0,0.0,part_2,go,450.0,500.0,1.0,,,,,,,,,cyan,hexagon
0.0,8.0,4.0,1.0,5.0,5.0,485.0784999998723,4.0,0.0,part_2,stop,450.0,500.0,3.0,,,,,,,,,orange,triangle
0.0,7.0,3.0,1.0,6.0,6.0,635.3670859998601,4.0,0.0,part_2,stop,400.0,500.0,3.0,,,,,,,,,gray,diamond
0.0,7.0,3.0,1.0,5.0,5.0,716.4868979998573,4.0,0.0,part_2,go,400.0,450.0,1.0,,,,,,,,,gray,diamond
0.0,1.0,1.0,0.0,5.0,5.0,585.9777859996029,4.0,0.0,part_2,go,400.0,450.0,1.0,,,,,,,,,green,cross
0.0,1.0,1.0,0.0,5.0,5.0,433.5687299999335,4.0,0.0,part_2,go,400.0,450.0,1.0,,,,,,,,,green,cross
0.0,4.0,4.0,0.0,5.0,5.0,632.2107959999812,4.0,0.0,part_2,go,400.0,450.0,1.0,,,,,,,,,blue,I
0.0,8.0,4.0,1.0,6.0,6.0,615.1889790003224,4.0,0.0,part_2,stop,400.0,450.0,3.0,,,,,,,,,orange,triangle
0.0,4.0,4.0,0.0,5.0,5.0,480.7102830000076,4.0,0.0,part_2,go,400.0,400.0,1.0,,,,,,,,,blue,I
0.0,4.0,4.0,0.0,6.0,6.0,510.34819599999537,4.0,0.0,part_2,go,400.0,400.0,1.0,,,,,,,,,blue,I
0.0,4.0,4.0,0.0,5.0,5.0,397.0285290001811,4.0,0.0,part_2,go,400.0,400.0,1.0,,,,,,,,,blue,I
0.0,1.0,1.0,0.0,6.0,6.0,669.4952689999809,4.0,0.0,part_2,go,400.0,400.0,1.0,,,,,,,,,green,cross
0.0,5.0,1.0,1.0,6.0,6.0,567.9893599999559,5.0,0.0,part_2,go,400.0,400.0,1.0,,,,,,,,,white,circle
0.0,6.0,2.0,1.0,6.0,6.0,462.1218309998767,5.0,0.0,part_2,stop,400.0,400.0,3.0,,,,,,,,,magenta,square
0.0,1.0,1.0,0.0,5.0,5.0,463.4260520001589,5.0,0.0,part_2,go,400.0,350.0,1.0,,,,,,,,,green,cross
0.0,3.0,3.0,0.0,6.0,6.0,414.3137820001357,5.0,0.0,part_2,go,400.0,350.0,1.0,,,,,,,,,yellow,flipped triangle
0.0,7.0,3.0,1.0,6.0,6.0,481.5333760002431,5.0,0.0,part_2,go,400.0,350.0,1.0,,,,,,,,,gray,diamond
0.0,4.0,4.0,0.0,5.0,5.0,452.4232979997578,5.0,0.0,part_2,go,400.0,350.0,1.0,,,,,,,,,blue,I
0.0,6.0,2.0,1.0,5.0,5.0,585.6409200000599,5.0,0.0,part_2,go,400.0,350.0,1.0,,,,,,,,,magenta,square
0.0,2.0,2.0,0.0,6.0,6.0,518.9783549999447,5.0,0.0,part_2,go,400.0,350.0,1.0,,,,,,,,,cyan,hexagon
0.0,8.0,4.0,1.0,5.0,5.0,349.7022770002331,5.0,0.0,part_2,stop,400.0,350.0,3.0,,,,,,,,,orange,triangle
0.0,7.0,3.0,1.0,5.0,5.0,443.8552380001965,5.0,0.0,part_2,go,350.0,350.0,1.0,,,,,,,,,gray,diamond
0.0,2.0,2.0,0.0,6.0,6.0,462.8794459999881,5.0,0.0,part_2,go,350.0,350.0,1.0,,,,,,,,,cyan,hexagon
0.0,4.0,4.0,0.0,6.0,6.0,396.2301069996101,5.0,0.0,part_2,go,350.0,350.0,1.0,,,,,,,,,blue,I
0.0,7.0,3.0,1.0,6.0,6.0,450.1368629998978,5.0,0.0,part_2,stop,350.0,350.0,3.0,,,,,,,,,gray,diamond
0.0,1.0,1.0,0.0,6.0,6.0,405.7682640000166,5.0,0.0,part_2,go,350.0,300.0,1.0,,,,,,,,,green,cross
0.0,2.0,2.0,0.0,6.0,6.0,621.4849740003956,5.0,0.0,part_2,go,350.0,300.0,1.0,,,,,,,,,cyan,hexagon
0.0,1.0,1.0,0.0,5.0,5.0,508.34269799997855,5.0,0.0,part_2,go,350.0,300.0,1.0,,,,,,,,,green,cross
0.0,5.0,1.0,1.0,6.0,6.0,420.7918490001248,5.0,0.0,part_2,stop,350.0,300.0,3.0,,,,,,,,,white,circle
0.0,2.0,2.0,0.0,5.0,5.0,406.1989339998035,5.0,0.0,part_2,go,350.0,250.0,1.0,,,,,,,,,cyan,hexagon
0.0,7.0,3.0,1.0,6.0,0.0,0.0,5.0,0.0,part_2,stop,350.0,250.0,4.0,,,,,,,,,gray,diamond
0.0,5.0,1.0,1.0,6.0,6.0,424.5248140000512,5.0,0.0,part_2,stop,350.0,300.0,3.0,,,,,,,,,white,circle
0.0,5.0,1.0,1.0,6.0,6.0,679.4613690003644,5.0,0.0,part_2,go,350.0,250.0,1.0,,,,,,,,,white,circle
0.0,4.0,4.0,0.0,6.0,6.0,368.2394590000513,5.0,0.0,part_2,go,350.0,250.0,1.0,,,,,,,,,blue,I
0.0,8.0,4.0,1.0,5.0,5.0,283.4774550001384,5.0,0.0,part_2,stop,350.0,250.0,3.0,,,,,,,,,orange,triangle
0.0,5.0,1.0,1.0,5.0,5.0,593.9679739999519,5.0,0.0,part_2,go,300.0,250.0,1.0,,,,,,,,,white,circle
0.0,1.0,1.0,0.0,6.0,6.0,470.6528420001632,5.0,0.0,part_2,go,300.0,250.0,1.0,,,,,,,,,green,cross
0.0,8.0,4.0,1.0,5.0,0.0,0.0,5.0,0.0,part_2,stop,300.0,250.0,4.0,,,,,,,,,orange,triangle
0.0,5.0,1.0,1.0,5.0,0.0,0.0,5.0,0.0,part_2,stop,350.0,250.0,4.0,,,,,,,,,white,circle
0.0,6.0,2.0,1.0,6.0,0.0,0.0,5.0,0.0,part_2,stop,400.0,250.0,4.0,,,,,,,,,magenta,square
0.0,3.0,3.0,0.0,5.0,5.0,472.8460930000437,5.0,0.0,part_2,go,400.0,300.0,1.0,,,,,,,,,yellow,flipped triangle
0.0,3.0,3.0,0.0,5.0,5.0,547.5290340000356,5.0,0.0,part_2,go,400.0,300.0,1.0,,,,,,,,,yellow,flipped triangle
0.0,4.0,4.0,0.0,6.0,6.0,553.3402860000933,5.0,0.0,part_2,go,400.0,300.0,1.0,,,,,,,,,blue,I
0.0,6.0,2.0,1.0,6.0,6.0,385.4666140000518,5.0,0.0,part_2,stop,400.0,300.0,3.0,,,,,,,,,magenta,square
0.0,4.0,4.0,0.0,6.0,6.0,566.660309999861,5.0,0.0,part_2,go,400.0,250.0,1.0,,,,,,,,,blue,I
0.0,7.0,3.0,1.0,6.0,0.0,0.0,5.0,0.0,part_2,stop,400.0,250.0,4.0,,,,,,,,,gray,diamond
0.0,5.0,1.0,1.0,5.0,5.0,457.7161530000921,5.0,0.0,part_2,stop,400.0,300.0,3.0,,,,,,,,,white,circle
0.0,6.0,2.0,1.0,5.0,5.0,688.9611230003538,5.0,0.0,part_2,go,350.0,300.0,1.0,,,,,,,,,magenta,square
0.0,3.0,3.0,0.0,5.0,5.0,396.4456399999108,6.0,0.0,part_2,go,350.0,300.0,1.0,,,,,,,,,yellow,flipped triangle
0.0,6.0,2.0,1.0,6.0,6.0,434.2686810000487,6.0,0.0,part_2,stop,350.0,300.0,3.0,,,,,,,,,magenta,square
0.0,1.0,1.0,0.0,5.0,5.0,387.183515000288,6.0,0.0,part_2,go,350.0,250.0,1.0,,,,,,,,,green,cross
0.0,7.0,3.0,1.0,5.0,0.0,0.0,6.0,0.0,part_2,stop,350.0,250.0,4.0,,,,,,,,,gray,diamond
0.0,4.0,4.0,0.0,6.0,6.0,470.3466410001056,6.0,0.0,part_2,go,400.0,250.0,1.0,,,,,,,,,blue,I
0.0,1.0,1.0,0.0,5.0,5.0,452.4541760001739,6.0,0.0,part_2,go,400.0,250.0,1.0,,,,,,,,,green,cross
0.0,8.0,4.0,1.0,5.0,0.0,0.0,6.0,0.0,part_2,stop,400.0,250.0,4.0,,,,,,,,,orange,triangle
0.0,8.0,4.0,1.0,6.0,0.0,0.0,6.0,0.0,part_2,stop,450.0,250.0,4.0,,,,,,,,,orange,triangle
0.0,6.0,2.0,1.0,6.0,6.0,584.577746999912,6.0,0.0,part_2,go,450.0,300.0,1.0,,,,,,,,,magenta,square
0.0,7.0,3.0,1.0,5.0,5.0,480.321553000067,6.0,0.0,part_2,stop,450.0,300.0,3.0,,,,,,,,,gray,diamond
0.0,7.0,3.0,1.0,5.0,5.0,546.3738670000566,6.0,0.0,part_2,go,400.0,300.0,1.0,,,,,,,,,gray,diamond
0.0,2.0,2.0,0.0,5.0,5.0,509.85288800029593,6.0,0.0,part_2,go,400.0,300.0,1.0,,,,,,,,,cyan,hexagon
0.0,2.0,2.0,0.0,6.0,6.0,649.9687890000132,6.0,0.0,part_2,go,400.0,300.0,1.0,,,,,,,,,cyan,hexagon
0.0,4.0,4.0,0.0,6.0,6.0,547.0890399997188,6.0,0.0,part_2,go,400.0,300.0,1.0,,,,,,,,,blue,I
0.0,8.0,4.0,1.0,5.0,5.0,591.3681829997586,6.0,0.0,part_2,stop,400.0,300.0,3.0,,,,,,,,,orange,triangle
0.0,6.0,2.0,1.0,5.0,0.0,0.0,6.0,0.0,part_2,stop,350.0,300.0,4.0,,,,,,,,,magenta,square
0.0,2.0,2.0,0.0,6.0,6.0,602.9863650001062,6.0,0.0,part_2,go,400.0,300.0,1.0,,,,,,,,,cyan,hexagon
0.0,7.0,3.0,1.0,5.0,5.0,557.1077220001825,6.0,0.0,part_2,stop,400.0,300.0,3.0,,,,,,,,,gray,diamond
0.0,6.0,2.0,1.0,5.0,0.0,0.0,6.0,0.0,part_2,stop,350.0,300.0,4.0,,,,,,,,,magenta,square
0.0,5.0,1.0,1.0,5.0,0.0,0.0,6.0,0.0,part_2,stop,400.0,300.0,4.0,,,,,,,,,white,circle
0.0,1.0,1.0,0.0,6.0,6.0,697.964089999914,6.0,0.0,part_2,go,450.0,300.0,1.0,,,,,,,,,green,cross
0.0,3.0,3.0,0.0,6.0,6.0,614.4039380001232,6.0,0.0,part_2,go,450.0,300.0,1.0,,,,,,,,,yellow,flipped triangle
0.0,5.0,1.0,1.0,6.0,0.0,0.0,6.0,0.0,part_2,stop,450.0,300.0,4.0,,,,,,,,,white,circle
0.0,5.0,1.0,1.0,6.0,6.0,528.572281000379,6.0,0.0,part_2,go,450.0,350.0,1.0,,,,,,,,,white,circle
0.0,1.0,1.0,0.0,6.0,6.0,340.8762029998797,6.0,0.0,part_2,go,450.0,350.0,1.0,,,,,,,,,green,cross
0.0,1.0,1.0,0.0,6.0,6.0,471.6631599999346,6.0,0.0,part_2,go,450.0,350.0,1.0,,,,,,,,,green,cross
0.0,7.0,3.0,1.0,5.0,5.0,575.2319360003639,6.0,0.0,part_2,stop,450.0,350.0,3.0,,,,,,,,,gray,diamond
0.0,8.0,4.0,1.0,6.0,6.0,434.829327999978,6.0,0.0,part_2,stop,400.0,350.0,3.0,,,,,,,,,orange,triangle
0.0,3.0,3.0,0.0,6.0,6.0,677.5213209998583,6.0,0.0,part_2,go,400.0,300.0,1.0,,,,,,,,,yellow,flipped triangle
0.0,2.0,2.0,0.0,5.0,5.0,575.3970840000875,6.0,0.0,part_2,go,400.0,300.0,1.0,,,,,,,,,cyan,hexagon
0.0,6.0,2.0,1.0,5.0,5.0,556.3151279998237,6.0,0.0,part_2,go,400.0,300.0,1.0,,,,,,,,,magenta,square
0.0,1.0,1.0,0.0,6.0,6.0,482.6213060000555,6.0,0.0,part_2,go,400.0,300.0,1.0,,,,,,,,,green,cross
0.0,4.0,4.0,0.0,5.0,5.0,650.7215560000077,6.0,0.0,part_2,go,400.0,300.0,1.0,,,,,,,,,blue,I
0.0,6.0,2.0,1.0,5.0,0.0,0.0,6.0,0.0,part_2,stop,400.0,300.0,4.0,,,,,,,,,magenta,square
0.0,1.0,1.0,0.0,6.0,6.0,497.8086999999505,6.0,0.0,part_2,go,450.0,300.0,1.0,,,,,,,,,green,cross
0.0,5.0,1.0,1.0,5.0,5.0,587.2197860003325,6.0,0.0,part_2,stop,450.0,300.0,3.0,,,,,,,,,white,circle
0.0,4.0,4.0,0.0,5.0,5.0,433.5220699999809,7.0,0.0,part_2,go,400.0,300.0,1.0,,,,,,,,,blue,I
0.0,3.0,3.0,0.0,5.0,5.0,292.9202359996452,7.0,0.0,part_2,go,400.0,300.0,1.0,,,,,,,,,yellow,flipped triangle
0.0,3.0,3.0,0.0,6.0,6.0,453.6131300001216,7.0,0.0,part_2,go,400.0,300.0,1.0,,,,,,,,,yellow,flipped triangle
0.0,5.0,1.0,1.0,5.0,5.0,481.1849160000747,7.0,0.0,part_2,go,400.0,300.0,1.0,,,,,,,,,white,circle
0.0,4.0,4.0,0.0,6.0,6.0,491.4301520002482,7.0,0.0,part_2,go,400.0,300.0,1.0,,,,,,,,,blue,I
0.0,8.0,4.0,1.0,5.0,5.0,397.4573339996823,7.0,0.0,part_2,stop,400.0,300.0,3.0,,,,,,,,,orange,triangle
0.0,5.0,1.0,1.0,5.0,5.0,406.7451780001647,7.0,0.0,part_2,stop,350.0,300.0,3.0,,,,,,,,,white,circle
0.0,4.0,4.0,0.0,5.0,5.0,707.8818189997946,7.0,0.0,part_2,go,300.0,300.0,1.0,,,,,,,,,blue,I
0.0,7.0,3.0,1.0,5.0,0.0,0.0,7.0,0.0,part_2,stop,300.0,300.0,4.0,,,,,,,,,gray,diamond
0.0,3.0,3.0,0.0,5.0,5.0,640.5950369999118,7.0,0.0,part_2,go,350.0,300.0,1.0,,,,,,,,,yellow,flipped triangle
0.0,1.0,1.0,0.0,5.0,5.0,502.00944000016534,7.0,0.0,part_2,go,350.0,300.0,1.0,,,,,,,,,green,cross
0.0,3.0,3.0,0.0,5.0,5.0,444.875380999747,7.0,0.0,part_2,go,350.0,300.0,1.0,,,,,,,,,yellow,flipped triangle
0.0,4.0,4.0,0.0,5.0,5.0,575.8971580003163,7.0,0.0,part_2,go,350.0,300.0,1.0,,,,,,,,,blue,I
0.0,7.0,3.0,1.0,5.0,0.0,0.0,7.0,0.0,part_2,stop,350.0,300.0,4.0,,,,,,,,,gray,diamond
0.0,7.0,3.0,1.0,6.0,0.0,0.0,7.0,0.0,part_2,stop,400.0,300.0,4.0,,,,,,,,,gray,diamond
0.0,2.0,2.0,0.0,5.0,5.0,575.1759099998708,7.0,0.0,part_2,go,400.0,350.0,1.0,,,,,,,,,cyan,hexagon
0.0,3.0,3.0,0.0,5.0,5.0,603.2027490000473,7.0,0.0,part_2,go,400.0,350.0,1.0,,,,,,,,,yellow,flipped triangle
0.0,7.0,3.0,1.0,5.0,0.0,0.0,7.0,0.0,part_2,stop,400.0,350.0,4.0,,,,,,,,,gray,diamond
0.0,8.0,4.0,1.0,6.0,0.0,0.0,7.0,0.0,part_2,stop,450.0,350.0,4.0,,,,,,,,,orange,triangle
0.0,2.0,2.0,0.0,5.0,5.0,453.2259750003504,7.0,0.0,part_2,go,450.0,400.0,1.0,,,,,,,,,cyan,hexagon
0.0,5.0,1.0,1.0,5.0,5.0,522.072599999774,7.0,0.0,part_2,stop,450.0,400.0,3.0,,,,,,,,,white,circle
0.0,6.0,2.0,1.0,5.0,0.0,0.0,7.0,0.0,part_2,stop,400.0,400.0,4.0,,,,,,,,,magenta,square
0.0,4.0,4.0,0.0,6.0,6.0,283.9361780002036,7.0,0.0,part_2,go,450.0,400.0,1.0,,,,,,,,,blue,I
0.0,4.0,4.0,0.0,6.0,6.0,727.1473470000274,7.0,0.0,part_2,go,450.0,400.0,1.0,,,,,,,,,blue,I
0.0,3.0,3.0,0.0,6.0,6.0,735.1980710000134,7.0,0.0,part_2,go,450.0,400.0,1.0,,,,,,,,,yellow,flipped triangle
0.0,7.0,3.0,1.0,6.0,6.0,622.4612390001312,7.0,0.0,part_2,go,450.0,400.0,1.0,,,,,,,,,gray,diamond
0.0,6.0,2.0,1.0,6.0,0.0,0.0,7.0,0.0,part_2,stop,450.0,400.0,4.0,,,,,,,,,magenta,square
0.0,5.0,1.0,1.0,6.0,0.0,0.0,7.0,0.0,part_2,stop,450.0,450.0,4.0,,,,,,,,,white,circle
0.0,5.0,1.0,1.0,6.0,6.0,625.4468279998946,7.0,0.0,part_2,stop,450.0,500.0,3.0,,,,,,,,,white,circle
0.0,5.0,1.0,1.0,6.0,6.0,708.764242000143,7.0,0.0,part_2,go,450.0,450.0,1.0,,,,,,,,,white,circle
0.0,3.0,3.0,0.0,5.0,5.0,489.7953009999582,7.0,0.0,part_2,go,450.0,450.0,1.0,,,,,,,,,yellow,flipped triangle
0.0,3.0,3.0,0.0,5.0,5.0,692.5525379997453,7.0,0.0,part_2,go,450.0,450.0,1.0,,,,,,,,,yellow,flipped triangle
0.0,3.0,3.0,0.0,6.0,6.0,660.464237999804,7.0,0.0,part_2,go,450.0,450.0,1.0,,,,,,,,,yellow,flipped triangle
0.0,4.0,4.0,0.0,5.0,5.0,311.6158560001167,7.0,0.0,part_2,go,450.0,450.0,1.0,,,,,,,,,blue,I
0.0,6.0,2.0,1.0,5.0,5.0,548.3258459998979,7.0,0.0,part_2,stop,450.0,450.0,3.0,,,,,,,,,magenta,square
0.0,6.0,2.0,1.0,6.0,6.0,435.5807809997714,7.0,0.0,part_2,stop,400.0,450.0,3.0,,,,,,,,,magenta,square
0.0,3.0,3.0,0.0,5.0,5.0,595.101601999886,8.0,0.0,part_2,go,400.0,400.0,1.0,,,,,,,,,yellow,flipped triangle
0.0,4.0,4.0,0.0,6.0,6.0,575.6874469998365,8.0,0.0,part_2,go,400.0,400.0,1.0,,,,,,,,,blue,I
0.0,2.0,2.0,0.0,5.0,5.0,501.4491129995804,8.0,0.0,part_2,go,400.0,400.0,1.0,,,,,,,,,cyan,hexagon
0.0,4.0,4.0,0.0,5.0,5.0,623.7161140002172,8.0,0.0,part_2,go,400.0,400.0,1.0,,,,,,,,,blue,I
0.0,2.0,2.0,0.0,6.0,6.0,566.6544360001353,8.0,0.0,part_2,go,400.0,400.0,1.0,,,,,,,,,cyan,hexagon
0.0,1.0,1.0,0.0,6.0,6.0,576.5790730001754,8.0,0.0,part_2,go,400.0,400.0,1.0,,,,,,,,,green,cross
0.0,3.0,3.0,0.0,6.0,6.0,491.5216939998572,8.0,0.0,part_2,go,400.0,400.0,1.0,,,,,,,,,yellow,flipped triangle
0.0,6.0,2.0,1.0,6.0,6.0,377.7455660001578,8.0,0.0,part_2,stop,400.0,400.0,3.0,,,,,,,,,magenta,square
0.0,5.0,1.0,1.0,6.0,0.0,0.0,8.0,0.0,part_2,stop,400.0,350.0,4.0,,,,,,,,,white,circle
0.0,8.0,4.0,1.0,6.0,6.0,681.2477910002599,8.0,0.0,part_2,go,400.0,400.0,1.0,,,,,,,,,orange,triangle
0.0,5.0,1.0,1.0,5.0,0.0,0.0,8.0,0.0,part_2,stop,400.0,400.0,4.0,,,,,,,,,white,circle
0.0,1.0,1.0,0.0,6.0,6.0,710.3819889998704,8.0,0.0,part_2,go,450.0,400.0,1.0,,,,,,,,,green,cross
0.0,3.0,3.0,0.0,6.0,6.0,603.4450469996955,8.0,0.0,part_2,go,450.0,400.0,1.0,,,,,,,,,yellow,flipped triangle
0.0,4.0,4.0,0.0,6.0,6.0,623.4709669997756,8.0,0.0,part_2,go,450.0,400.0,1.0,,,,,,,,,blue,I
0.0,3.0,3.0,0.0,5.0,5.0,622.5242679997791,8.0,0.0,part_2,go,450.0,400.0,1.0,,,,,,,,,yellow,flipped triangle
0.0,5.0,1.0,1.0,6.0,6.0,585.7962069999303,8.0,0.0,part_2,go,450.0,400.0,1.0,,,,,,,,,white,circle
0.0,3.0,3.0,0.0,6.0,6.0,445.494107000286,8.0,0.0,part_2,go,450.0,400.0,1.0,,,,,,,,,yellow,flipped triangle
0.0,5.0,1.0,1.0,5.0,5.0,406.6373300001942,8.0,0.0,part_2,stop,450.0,400.0,3.0,,,,,,,,,white,circle
0.0,8.0,4.0,1.0,6.0,0.0,0.0,8.0,0.0,part_2,stop,400.0,400.0,4.0,,,,,,,,,orange,triangle
0.0,2.0,2.0,0.0,5.0,5.0,491.8070029998489,8.0,0.0,part_2,go,400.0,450.0,1.0,,,,,,,,,cyan,hexagon
0.0,8.0,4.0,1.0,5.0,5.0,642.9652219999298,8.0,0.0,part_2,go,400.0,450.0,1.0,,,,,,,,,orange,triangle
0.0,3.0,3.0,0.0,5.0,5.0,643.3899960002236,8.0,0.0,part_2,go,400.0,450.0,1.0,,,,,,,,,yellow,flipped triangle
0.0,7.0,3.0,1.0,6.0,6.0,570.4831729999569,8.0,0.0,part_2,stop,400.0,450.0,3.0,,,,,,,,,gray,diamond
0.0,8.0,4.0,1.0,5.0,0.0,0.0,8.0,0.0,part_2,stop,400.0,400.0,4.0,,,,,,,,,orange,triangle
0.0,6.0,2.0,1.0,5.0,0.0,0.0,8.0,0.0,part_2,stop,450.0,400.0,4.0,,,,,,,,,magenta,square
0.0,2.0,2.0,0.0,6.0,6.0,584.645441000248,8.0,0.0,part_2,go,500.0,400.0,1.0,,,,,,,,,cyan,hexagon
0.0,7.0,3.0,1.0,6.0,6.0,545.3145290002794,8.0,0.0,part_2,stop,500.0,400.0,3.0,,,,,,,,,gray,diamond
0.0,1.0,1.0,0.0,6.0,6.0,650.0269089997346,8.0,0.0,part_2,go,500.0,350.0,1.0,,,,,,,,,green,cross
0.0,8.0,4.0,1.0,6.0,0.0,0.0,8.0,0.0,part_2,stop,500.0,350.0,4.0,,,,,,,,,orange,triangle
0.0,2.0,2.0,0.0,6.0,6.0,594.0096379999886,8.0,0.0,part_2,go,500.0,400.0,1.0,,,,,,,,,cyan,hexagon
0.0,1.0,1.0,0.0,5.0,5.0,537.5117819999105,8.0,0.0,part_2,go,500.0,400.0,1.0,,,,,,,,,green,cross
0.0,8.0,4.0,1.0,6.0,6.0,495.3433000000586,8.0,0.0,part_2,stop,500.0,400.0,3.0,,,,,,,,,orange,triangle
0.0,2.0,2.0,0.0,5.0,5.0,643.3471989998907,8.0,0.0,part_2,go,500.0,350.0,1.0,,,,,,,,,cyan,hexagon
0.0,7.0,3.0,1.0,6.0,0.0,0.0,8.0,0.0,part_2,stop,500.0,350.0,4.0,,,,,,,,,gray,diamond
0.0,4.0,4.0,0.0,5.0,5.0,605.2689010002723,8.0,0.0,part_2,go,500.0,400.0,1.0,,,,,,,,,blue,I
0.0,1.0,1.0,0.0,5.0,5.0,473.3861200002138,8.0,0.0,part_2,go,500.0,400.0,1.0,,,,,,,,,green,cross
0.0,6.0,2.0,1.0,7.0,3.0,1575.7619609998983,1.0,1.0,part_3,go,0.0,0.0,0.0,270.0,2.0,675.0,540.0,270.0,405.0,810.0,135.0,magenta,square
0.0,1.0,1.0,0.0,7.0,5.0,1581.038622000051,1.0,1.0,part_3,go,0.0,0.0,0.0,770.0,5.0,924.0,462.0,616.0,154.0,770.0,308.0,green,cross
0.0,5.0,1.0,1.0,7.0,2.0,872.0374449999326,1.0,1.0,part_3,go,0.0,0.0,0.0,519.0,3.0,1038.0,519.0,173.0,865.0,692.0,346.0,white,circle
0.0,4.0,4.0,0.0,7.0,3.0,618.1038740000986,1.0,1.0,part_3,go,0.0,0.0,0.0,576.0,3.0,192.0,960.0,576.0,1152.0,768.0,384.0,blue,I
0.0,2.0,2.0,0.0,7.0,5.0,3073.917421999795,1.0,1.0,part_3,go,0.0,0.0,0.0,1038.0,6.0,519.0,692.0,346.0,173.0,1038.0,865.0,cyan,hexagon
0.0,5.0,1.0,1.0,7.0,2.0,1046.841955000218,1.0,1.0,part_3,go,0.0,0.0,0.0,540.0,4.0,135.0,540.0,675.0,270.0,405.0,810.0,white,circle
0.0,4.0,4.0,0.0,7.0,1.0,739.8584560000927,1.0,1.0,part_3,go,0.0,0.0,0.0,519.0,3.0,519.0,692.0,865.0,346.0,1038.0,173.0,blue,I
0.0,1.0,1.0,0.0,7.0,2.0,75.3497529999549,1.0,1.0,part_3,go,0.0,0.0,0.0,696.0,6.0,232.0,696.0,580.0,348.0,116.0,464.0,green,cross
0.0,1.0,1.0,0.0,7.0,2.0,2054.461467999772,1.0,1.0,part_3,go,0.0,0.0,0.0,192.0,1.0,384.0,192.0,960.0,576.0,768.0,1152.0,green,cross
0.0,2.0,2.0,0.0,7.0,4.0,910.90442299992,1.0,1.0,part_3,go,0.0,0.0,0.0,810.0,6.0,135.0,405.0,675.0,810.0,270.0,540.0,cyan,hexagon
0.0,2.0,2.0,0.0,7.0,4.0,982.5665130001652,1.0,1.0,part_3,go,0.0,0.0,0.0,192.0,1.0,960.0,768.0,1152.0,192.0,576.0,384.0,cyan,hexagon
0.0,8.0,4.0,1.0,7.0,5.0,1699.2752159999327,1.0,1.0,part_3,go,0.0,0.0,0.0,692.0,4.0,1038.0,173.0,865.0,519.0,692.0,346.0,orange,triangle
0.0,8.0,4.0,1.0,7.0,5.0,1108.311131999926,1.0,1.0,part_3,go,0.0,0.0,0.0,270.0,2.0,810.0,405.0,135.0,540.0,270.0,675.0,orange,triangle
0.0,2.0,2.0,0.0,7.0,1.0,1408.881793999626,1.0,1.0,part_3,go,0.0,0.0,0.0,696.0,6.0,696.0,116.0,348.0,464.0,232.0,580.0,cyan,hexagon
0.0,5.0,1.0,1.0,7.0,6.0,1322.6551020002262,1.0,1.0,part_3,go,0.0,0.0,0.0,173.0,1.0,692.0,1038.0,865.0,346.0,519.0,173.0,white,circle
0.0,2.0,2.0,0.0,7.0,5.0,1386.982361000264,1.0,1.0,part_3,go,0.0,0.0,0.0,580.0,5.0,696.0,116.0,348.0,232.0,580.0,464.0,cyan,hexagon
0.0,4.0,4.0,0.0,7.0,2.0,1066.2060879999444,1.0,1.0,part_3,go,0.0,0.0,0.0,173.0,1.0,865.0,173.0,346.0,1038.0,692.0,519.0,blue,I
0.0,1.0,1.0,0.0,7.0,5.0,909.2678140000316,1.0,1.0,part_3,go,0.0,0.0,0.0,384.0,2.0,960.0,192.0,576.0,768.0,384.0,1152.0,green,cross
0.0,3.0,3.0,0.0,7.0,5.0,949.2762529998801,1.0,1.0,part_3,go,0.0,0.0,0.0,692.0,4.0,346.0,519.0,865.0,173.0,692.0,1038.0,yellow,flipped triangle
0.0,7.0,3.0,1.0,7.0,1.0,759.1213720002088,1.0,1.0,part_3,go,0.0,0.0,0.0,232.0,2.0,232.0,580.0,348.0,464.0,696.0,116.0,gray,diamond
0.0,5.0,1.0,1.0,7.0,1.0,703.1962850001037,2.0,1.0,part_3,go,0.0,0.0,0.0,576.0,3.0,576.0,960.0,192.0,384.0,768.0,1152.0,white,circle
0.0,3.0,3.0,0.0,7.0,5.0,731.6336690000753,2.0,1.0,part_3,go,0.0,0.0,0.0,173.0,1.0,519.0,1038.0,692.0,865.0,173.0,346.0,yellow,flipped triangle
0.0,7.0,3.0,1.0,7.0,6.0,862.2333600001184,2.0,1.0,part_3,go,0.0,0.0,0.0,580.0,5.0,116.0,696.0,348.0,232.0,464.0,580.0,gray,diamond
0.0,5.0,1.0,1.0,7.0,1.0,636.9276649998028,2.0,1.0,part_3,go,0.0,0.0,0.0,462.0,3.0,462.0,154.0,616.0,924.0,770.0,308.0,white,circle
0.0,6.0,2.0,1.0,7.0,2.0,1096.7206939999414,2.0,1.0,part_3,go,0.0,0.0,0.0,580.0,5.0,696.0,580.0,348.0,232.0,464.0,116.0,magenta,square
0.0,6.0,2.0,1.0,7.0,5.0,515.13894899972,2.0,1.0,part_3,go,0.0,0.0,0.0,924.0,6.0,462.0,308.0,770.0,154.0,924.0,616.0,magenta,square
0.0,6.0,2.0,1.0,7.0,6.0,797.7557499998511,2.0,1.0,part_3,go,0.0,0.0,0.0,924.0,6.0,154.0,308.0,770.0,462.0,616.0,924.0,magenta,square
0.0,4.0,4.0,0.0,7.0,5.0,1126.393005999944,2.0,1.0,part_3,go,0.0,0.0,0.0,540.0,4.0,810.0,675.0,405.0,135.0,540.0,270.0,blue,I
0.0,2.0,2.0,0.0,7.0,1.0,898.2380580000608,2.0,1.0,part_3,go,0.0,0.0,0.0,692.0,4.0,692.0,173.0,1038.0,865.0,519.0,346.0,cyan,hexagon
0.0,6.0,2.0,1.0,7.0,5.0,778.202661999785,2.0,1.0,part_3,go,0.0,0.0,0.0,405.0,3.0,270.0,675.0,135.0,810.0,405.0,540.0,magenta,square
0.0,7.0,3.0,1.0,7.0,5.0,918.6564900001032,2.0,1.0,part_3,go,0.0,0.0,0.0,540.0,4.0,405.0,270.0,810.0,675.0,540.0,135.0,gray,diamond
0.0,7.0,3.0,1.0,7.0,2.0,1076.3498100000106,2.0,1.0,part_3,go,0.0,0.0,0.0,768.0,4.0,192.0,768.0,960.0,1152.0,576.0,384.0,gray,diamond
0.0,6.0,2.0,1.0,7.0,1.0,873.296707999998,2.0,1.0,part_3,go,0.0,0.0,0.0,1152.0,6.0,1152.0,192.0,384.0,768.0,960.0,576.0,magenta,square
0.0,8.0,4.0,1.0,7.0,2.0,928.836515999592,2.0,1.0,part_3,go,0.0,0.0,0.0,696.0,6.0,348.0,696.0,464.0,116.0,580.0,232.0,orange,triangle
0.0,4.0,4.0,0.0,7.0,6.0,899.9493679998523,2.0,1.0,part_3,go,0.0,0.0,0.0,960.0,5.0,384.0,768.0,1152.0,576.0,192.0,960.0,blue,I
0.0,5.0,1.0,1.0,7.0,5.0,609.4551430001047,2.0,1.0,part_3,go,0.0,0.0,0.0,308.0,2.0,154.0,462.0,924.0,770.0,308.0,616.0,white,circle
0.0,6.0,2.0,1.0,7.0,2.0,864.4220180003686,2.0,1.0,part_3,go,0.0,0.0,0.0,348.0,3.0,696.0,348.0,116.0,580.0,232.0,464.0,magenta,square
0.0,6.0,2.0,1.0,7.0,2.0,1331.7754969998532,2.0,1.0,part_3,go,0.0,0.0,0.0,1038.0,6.0,173.0,1038.0,346.0,865.0,692.0,519.0,magenta,square
0.0,8.0,4.0,1.0,7.0,6.0,468.1439579999278,2.0,1.0,part_3,go,0.0,0.0,0.0,116.0,1.0,348.0,580.0,696.0,464.0,232.0,116.0,orange,triangle
0.0,3.0,3.0,0.0,7.0,5.0,571.6328890002842,2.0,1.0,part_3,go,0.0,0.0,0.0,154.0,1.0,462.0,616.0,770.0,924.0,154.0,308.0,yellow,flipped triangle
0.0,4.0,4.0,0.0,7.0,2.0,534.7042900002634,3.0,1.0,part_3,go,0.0,0.0,0.0,924.0,6.0,616.0,924.0,462.0,154.0,770.0,308.0,blue,I
0.0,4.0,4.0,0.0,7.0,2.0,506.5788690003501,3.0,1.0,part_3,go,0.0,0.0,0.0,348.0,3.0,696.0,348.0,116.0,580.0,464.0,232.0,blue,I
0.0,3.0,3.0,0.0,7.0,5.0,235.1221620001524,3.0,1.0,part_3,go,0.0,0.0,0.0,960.0,5.0,192.0,576.0,768.0,1152.0,960.0,384.0,yellow,flipped triangle
0.0,4.0,4.0,0.0,7.0,6.0,459.9448659996596,3.0,1.0,part_3,go,0.0,0.0,0.0,462.0,3.0,616.0,924.0,154.0,308.0,770.0,462.0,blue,I
0.0,3.0,3.0,0.0,7.0,1.0,693.257648999861,3.0,1.0,part_3,go,0.0,0.0,0.0,580.0,5.0,580.0,116.0,696.0,348.0,232.0,464.0,yellow,flipped triangle
0.0,5.0,1.0,1.0,7.0,1.0,836.8912149999232,3.0,1.0,part_3,go,0.0,0.0,0.0,348.0,3.0,348.0,116.0,696.0,464.0,232.0,580.0,white,circle
0.0,1.0,1.0,0.0,7.0,6.0,348.0175139998209,3.0,1.0,part_3,go,0.0,0.0,0.0,464.0,4.0,580.0,696.0,232.0,116.0,348.0,464.0,green,cross
0.0,1.0,1.0,0.0,7.0,6.0,581.2448890001178,3.0,1.0,part_3,go,0.0,0.0,0.0,270.0,2.0,540.0,675.0,135.0,405.0,810.0,270.0,green,cross
0.0,4.0,4.0,0.0,7.0,5.0,515.085363000253,3.0,1.0,part_3,go,0.0,0.0,0.0,810.0,6.0,405.0,270.0,540.0,675.0,810.0,135.0,blue,I
0.0,1.0,1.0,0.0,7.0,2.0,666.4217649999955,3.0,1.0,part_3,go,0.0,0.0,0.0,308.0,2.0,154.0,308.0,770.0,924.0,616.0,462.0,green,cross
0.0,3.0,3.0,0.0,7.0,2.0,674.3493979997766,3.0,1.0,part_3,go,0.0,0.0,0.0,464.0,4.0,348.0,464.0,116.0,232.0,580.0,696.0,yellow,flipped triangle
0.0,7.0,3.0,1.0,7.0,6.0,1030.5650320001405,3.0,1.0,part_3,go,0.0,0.0,0.0,924.0,6.0,616.0,154.0,308.0,770.0,462.0,924.0,gray,diamond
0.0,7.0,3.0,1.0,7.0,5.0,526.2983939996957,3.0,1.0,part_3,go,0.0,0.0,0.0,270.0,2.0,810.0,675.0,135.0,540.0,270.0,405.0,gray,diamond
0.0,8.0,4.0,1.0,7.0,6.0,497.0785259997683,3.0,1.0,part_3,go,0.0,0.0,0.0,865.0,5.0,346.0,173.0,1038.0,692.0,519.0,865.0,orange,triangle
0.0,1.0,1.0,0.0,7.0,5.0,459.2340770000191,3.0,1.0,part_3,go,0.0,0.0,0.0,346.0,2.0,865.0,1038.0,173.0,519.0,346.0,692.0,green,cross
0.0,8.0,4.0,1.0,7.0,2.0,591.3019310000891,3.0,1.0,part_3,go,0.0,0.0,0.0,810.0,6.0,270.0,810.0,405.0,540.0,135.0,675.0,orange,triangle
0.0,8.0,4.0,1.0,7.0,5.0,470.1674279999679,3.0,1.0,part_3,go,0.0,0.0,0.0,924.0,6.0,616.0,154.0,308.0,770.0,924.0,462.0,orange,triangle
0.0,6.0,2.0,1.0,7.0,6.0,412.4163020001106,3.0,1.0,part_3,go,0.0,0.0,0.0,576.0,3.0,192.0,384.0,1152.0,960.0,768.0,576.0,magenta,square
0.0,1.0,1.0,0.0,7.0,2.0,635.8431109997582,3.0,1.0,part_3,go,0.0,0.0,0.0,1038.0,6.0,865.0,1038.0,346.0,692.0,519.0,173.0,green,cross
0.0,7.0,3.0,1.0,7.0,1.0,618.8606499999878,3.0,1.0,part_3,go,0.0,0.0,0.0,1038.0,6.0,1038.0,173.0,692.0,346.0,865.0,519.0,gray,diamond
0.0,3.0,3.0,0.0,7.0,5.0,534.9563439999656,4.0,1.0,part_3,go,0.0,0.0,0.0,540.0,4.0,810.0,270.0,135.0,405.0,540.0,675.0,yellow,flipped triangle
0.0,6.0,2.0,1.0,7.0,5.0,553.9468749998377,4.0,1.0,part_3,go,0.0,0.0,0.0,346.0,2.0,1038.0,173.0,519.0,692.0,346.0,865.0,magenta,square
0.0,5.0,1.0,1.0,7.0,1.0,627.674898999885,4.0,1.0,part_3,go,0.0,0.0,0.0,540.0,4.0,540.0,270.0,810.0,135.0,675.0,405.0,white,circle
0.0,5.0,1.0,1.0,7.0,6.0,469.3280890001006,4.0,1.0,part_3,go,0.0,0.0,0.0,464.0,4.0,580.0,116.0,696.0,232.0,348.0,464.0,white,circle
0.0,8.0,4.0,1.0,7.0,2.0,693.4545330000219,4.0,1.0,part_3,go,0.0,0.0,0.0,462.0,3.0,154.0,462.0,308.0,924.0,616.0,770.0,orange,triangle
0.0,7.0,3.0,1.0,7.0,4.0,591.4159049998489,4.0,1.0,part_3,go,0.0,0.0,0.0,1152.0,6.0,768.0,576.0,192.0,1152.0,960.0,384.0,gray,diamond
0.0,7.0,3.0,1.0,7.0,5.0,516.0049750002145,4.0,1.0,part_3,go,0.0,0.0,0.0,924.0,6.0,616.0,308.0,770.0,462.0,924.0,154.0,gray,diamond
0.0,7.0,3.0,1.0,7.0,5.0,535.3707519998352,4.0,1.0,part_3,go,0.0,0.0,0.0,173.0,1.0,692.0,519.0,346.0,1038.0,173.0,865.0,gray,diamond
0.0,2.0,2.0,0.0,7.0,2.0,553.3858339999824,4.0,1.0,part_3,go,0.0,0.0,0.0,308.0,2.0,154.0,308.0,770.0,616.0,924.0,462.0,cyan,hexagon
0.0,3.0,3.0,0.0,7.0,3.0,421.6763659997014,4.0,1.0,part_3,go,0.0,0.0,0.0,770.0,5.0,462.0,924.0,770.0,308.0,616.0,154.0,yellow,flipped triangle
0.0,8.0,4.0,1.0,7.0,3.0,617.8998749996936,4.0,1.0,part_3,go,0.0,0.0,0.0,1152.0,6.0,384.0,576.0,1152.0,768.0,960.0,192.0,orange,triangle
0.0,5.0,1.0,1.0,7.0,4.0,391.7639289998078,4.0,1.0,part_3,go,0.0,0.0,0.0,768.0,4.0,576.0,960.0,384.0,768.0,1152.0,192.0,white,circle
0.0,8.0,4.0,1.0,7.0,5.0,581.0981429999629,4.0,1.0,part_3,go,0.0,0.0,0.0,576.0,3.0,960.0,768.0,192.0,1152.0,576.0,384.0,orange,triangle
0.0,2.0,2.0,0.0,7.0,3.0,479.3975329998829,4.0,1.0,part_3,go,0.0,0.0,0.0,770.0,5.0,308.0,924.0,770.0,616.0,462.0,154.0,cyan,hexagon
0.0,4.0,4.0,0.0,7.0,3.0,535.5581530002382,4.0,1.0,part_3,go,0.0,0.0,0.0,232.0,2.0,116.0,348.0,232.0,580.0,696.0,464.0,blue,I
0.0,3.0,3.0,0.0,7.0,3.0,609.433652000007,4.0,1.0,part_3,go,0.0,0.0,0.0,405.0,3.0,675.0,270.0,405.0,810.0,540.0,135.0,yellow,flipped triangle
0.0,3.0,3.0,0.0,7.0,3.0,413.9852919997793,4.0,1.0,part_3,go,0.0,0.0,0.0,384.0,2.0,192.0,768.0,384.0,1152.0,576.0,960.0,yellow,flipped triangle
0.0,2.0,2.0,0.0,7.0,6.0,496.7031259998293,4.0,1.0,part_3,go,0.0,0.0,0.0,1152.0,6.0,960.0,192.0,768.0,384.0,576.0,1152.0,cyan,hexagon
0.0,1.0,1.0,0.0,7.0,3.0,974.7688359998392,4.0,1.0,part_3,go,0.0,0.0,0.0,810.0,6.0,405.0,135.0,810.0,270.0,675.0,540.0,green,cross
0.0,2.0,2.0,0.0,7.0,6.0,760.1424230001612,4.0,1.0,part_3,go,0.0,0.0,0.0,675.0,5.0,540.0,810.0,270.0,135.0,405.0,675.0,cyan,hexagon
