raw_reward_magnitude,stim_reward,stepwise_reward_magnitude,paired_with_stopping,stim_location,response,reaction_time,block,num_trial_presentations,which_phase,stop_signal_trial_type,left_SSD,right_SSD,accuracy,chosen_bidding_amount,chosen_bidding_level,possible_bid_1,possible_bid_2,possible_bid_3,possible_bid_4,possible_bid_5,possible_bid_6,color_text,shape_text
641.0,3.0,3.0,0.0,4.0,4.0,617.0640239997738,1.0,1.0,phase_1,,,,,,,,,,,,,white,hexagon
182.0,1.0,1.0,0.0,4.0,4.0,565.3551639998113,1.0,1.0,phase_1,,,,,,,,,,,,,gray,triangle
343.0,6.0,2.0,1.0,3.0,3.0,491.8505169998752,1.0,1.0,phase_1,,,,,,,,,,,,,orange,circle
651.0,7.0,3.0,1.0,2.0,2.0,483.3580780004922,1.0,2.0,phase_1,,,,,,,,,,,,,green,square
179.0,5.0,1.0,1.0,4.0,4.0,428.2554149995121,1.0,1.0,phase_1,,,,,,,,,,,,,cyan,diamond
642.0,7.0,3.0,1.0,1.0,1.0,688.6006539998561,1.0,1.0,phase_1,,,,,,,,,,,,,green,square
1321.0,8.0,4.0,1.0,1.0,1.0,548.0068079996272,1.0,1.0,phase_1,,,,,,,,,,,,,magenta,flipped triangle
636.0,3.0,3.0,0.0,3.0,3.0,418.1209799999124,1.0,1.0,phase_1,,,,,,,,,,,,,white,hexagon
336.0,2.0,2.0,0.0,1.0,1.0,643.4969629999614,1.0,1.0,phase_1,,,,,,,,,,,,,blue,cross
179.0,1.0,1.0,0.0,3.0,3.0,447.0921689999159,1.0,1.0,phase_1,,,,,,,,,,,,,gray,triangle
0.0,3.0,0.0,0.0,3.0,3.0,437.805102999846,1.0,1.0,phase_1,,,,,,,,,,,,,white,hexagon
323.0,6.0,2.0,1.0,4.0,4.0,465.8264800000324,1.0,1.0,phase_1,,,,,,,,,,,,,orange,circle
632.0,3.0,3.0,0.0,4.0,4.0,411.178648000714,1.0,1.0,phase_1,,,,,,,,,,,,,white,hexagon
330.0,2.0,2.0,0.0,3.0,3.0,363.767402999656,1.0,1.0,phase_1,,,,,,,,,,,,,blue,cross
1304.0,4.0,4.0,0.0,3.0,3.0,389.4872350001606,1.0,1.0,phase_1,,,,,,,,,,,,,yellow,I
184.0,1.0,1.0,0.0,3.0,3.0,445.4246569994211,1.0,1.0,phase_1,,,,,,,,,,,,,gray,triangle
337.0,2.0,2.0,0.0,2.0,2.0,548.5113260001526,1.0,1.0,phase_1,,,,,,,,,,,,,blue,cross
184.0,5.0,1.0,1.0,4.0,4.0,380.54116199964477,1.0,1.0,phase_1,,,,,,,,,,,,,cyan,diamond
174.0,5.0,1.0,1.0,3.0,3.0,334.18822800013,1.0,1.0,phase_1,,,,,,,,,,,,,cyan,diamond
661.0,7.0,3.0,1.0,1.0,1.0,568.1556340005045,1.0,1.0,phase_1,,,,,,,,,,,,,green,square
645.0,3.0,3.0,0.0,4.0,4.0,372.8177350003534,1.0,1.0,phase_1,,,,,,,,,,,,,white,hexagon
313.0,2.0,2.0,0.0,3.0,3.0,391.9787570002881,1.0,1.0,phase_1,,,,,,,,,,,,,blue,cross
1311.0,4.0,4.0,0.0,1.0,1.0,577.5544970001647,1.0,1.0,phase_1,,,,,,,,,,,,,yellow,I
310.0,2.0,2.0,0.0,2.0,2.0,613.4083540000574,1.0,1.0,phase_1,,,,,,,,,,,,,blue,cross
0.0,7.0,0.0,1.0,3.0,3.0,349.3255660005161,1.0,1.0,phase_1,,,,,,,,,,,,,green,square
185.0,5.0,1.0,1.0,2.0,2.0,539.8746319997372,1.0,1.0,phase_1,,,,,,,,,,,,,cyan,diamond
1299.0,8.0,4.0,1.0,2.0,2.0,521.0431779996725,1.0,1.0,phase_1,,,,,,,,,,,,,magenta,flipped triangle
342.0,6.0,2.0,1.0,3.0,3.0,427.2303050001937,1.0,1.0,phase_1,,,,,,,,,,,,,orange,circle
1322.0,8.0,4.0,1.0,1.0,1.0,447.8118870001708,1.0,1.0,phase_1,,,,,,,,,,,,,magenta,flipped triangle
167.0,1.0,1.0,0.0,3.0,3.0,345.3208979999544,1.0,1.0,phase_1,,,,,,,,,,,,,gray,triangle
1305.0,4.0,4.0,0.0,2.0,2.0,539.7328919998472,1.0,1.0,phase_1,,,,,,,,,,,,,yellow,I
143.0,5.0,1.0,1.0,4.0,4.0,428.6140450003586,1.0,1.0,phase_1,,,,,,,,,,,,,cyan,diamond
161.0,1.0,1.0,0.0,2.0,2.0,373.3254179996947,1.0,1.0,phase_1,,,,,,,,,,,,,gray,triangle
657.0,3.0,3.0,0.0,3.0,3.0,372.8577349993429,1.0,1.0,phase_1,,,,,,,,,,,,,white,hexagon
157.0,5.0,1.0,1.0,2.0,2.0,465.3572799998073,1.0,1.0,phase_1,,,,,,,,,,,,,cyan,diamond
0.0,3.0,0.0,0.0,4.0,4.0,483.2084939998822,1.0,1.0,phase_1,,,,,,,,,,,,,white,hexagon
1295.0,8.0,4.0,1.0,4.0,4.0,494.8560839993661,1.0,1.0,phase_1,,,,,,,,,,,,,magenta,flipped triangle
1278.0,8.0,4.0,1.0,4.0,4.0,454.3575550005698,1.0,1.0,phase_1,,,,,,,,,,,,,magenta,flipped triangle
321.0,6.0,2.0,1.0,2.0,2.0,557.3607149999589,1.0,1.0,phase_1,,,,,,,,,,,,,orange,circle
0.0,2.0,0.0,0.0,2.0,2.0,482.4355860000651,1.0,2.0,phase_1,,,,,,,,,,,,,blue,cross
155.0,1.0,1.0,0.0,3.0,3.0,409.2383099996368,1.0,1.0,phase_1,,,,,,,,,,,,,gray,triangle
157.0,1.0,1.0,0.0,1.0,1.0,398.8935399993352,1.0,1.0,phase_1,,,,,,,,,,,,,gray,triangle
0.0,1.0,0.0,0.0,4.0,4.0,380.3502270002354,1.0,1.0,phase_1,,,,,,,,,,,,,gray,triangle
655.0,7.0,3.0,1.0,2.0,2.0,390.3902100000778,1.0,1.0,phase_1,,,,,,,,,,,,,green,square
1277.0,8.0,4.0,1.0,4.0,4.0,399.2524349996529,1.0,1.0,phase_1,,,,,,,,,,,,,magenta,flipped triangle
0.0,1.0,0.0,0.0,3.0,3.0,409.2565199998716,1.0,1.0,phase_1,,,,,,,,,,,,,gray,triangle
171.0,1.0,1.0,0.0,3.0,3.0,464.8703509992629,1.0,1.0,phase_1,,,,,,,,,,,,,gray,triangle
1290.0,8.0,4.0,1.0,4.0,4.0,334.1231679996781,1.0,1.0,phase_1,,,,,,,,,,,,,magenta,flipped triangle
653.0,3.0,3.0,0.0,2.0,2.0,503.5776610002358,1.0,1.0,phase_1,,,,,,,,,,,,,white,hexagon
318.0,2.0,2.0,0.0,1.0,1.0,678.9110629997595,1.0,1.0,phase_1,,,,,,,,,,,,,blue,cross
313.0,6.0,2.0,1.0,1.0,1.0,492.2379039999214,1.0,1.0,phase_1,,,,,,,,,,,,,orange,circle
651.0,3.0,3.0,0.0,2.0,2.0,714.9987220000185,1.0,1.0,phase_1,,,,,,,,,,,,,white,hexagon
154.0,5.0,1.0,1.0,3.0,3.0,363.07211500025,1.0,1.0,phase_1,,,,,,,,,,,,,cyan,diamond
348.0,2.0,2.0,0.0,4.0,4.0,417.9984640004477,1.0,1.0,phase_1,,,,,,,,,,,,,blue,cross
645.0,7.0,3.0,1.0,4.0,4.0,454.1375790004167,1.0,1.0,phase_1,,,,,,,,,,,,,green,square
0.0,8.0,0.0,1.0,3.0,3.0,370.5729189996418,1.0,1.0,phase_1,,,,,,,,,,,,,magenta,flipped triangle
0.0,1.0,0.0,0.0,1.0,1.0,556.7524050002248,1.0,1.0,phase_1,,,,,,,,,,,,,gray,triangle
140.0,5.0,1.0,1.0,4.0,4.0,417.3567699999694,1.0,1.0,phase_1,,,,,,,,,,,,,cyan,diamond
0.0,5.0,0.0,1.0,2.0,2.0,428.2497739995961,1.0,1.0,phase_1,,,,,,,,,,,,,cyan,diamond
174.0,1.0,1.0,0.0,4.0,4.0,472.9330030004348,1.0,1.0,phase_1,,,,,,,,,,,,,gray,triangle
182.0,5.0,1.0,1.0,3.0,3.0,343.350862999614,1.0,1.0,phase_1,,,,,,,,,,,,,cyan,diamond
0.0,4.0,0.0,0.0,2.0,2.0,574.4189150000238,1.0,1.0,phase_1,,,,,,,,,,,,,yellow,I
1286.0,8.0,4.0,1.0,2.0,2.0,539.9555550002333,1.0,1.0,phase_1,,,,,,,,,,,,,magenta,flipped triangle
316.0,2.0,2.0,0.0,4.0,4.0,364.4492090006679,1.0,1.0,phase_1,,,,,,,,,,,,,blue,cross
1293.0,4.0,4.0,0.0,4.0,4.0,372.4481559993364,1.0,1.0,phase_1,,,,,,,,,,,,,yellow,I
646.0,7.0,3.0,1.0,3.0,3.0,353.4743570007777,1.0,1.0,phase_1,,,,,,,,,,,,,green,square
1317.0,4.0,4.0,0.0,3.0,3.0,353.409590999945,1.0,1.0,phase_1,,,,,,,,,,,,,yellow,I
336.0,2.0,2.0,0.0,4.0,4.0,372.7788590003911,1.0,1.0,phase_1,,,,,,,,,,,,,blue,cross
147.0,1.0,1.0,0.0,3.0,3.0,336.2380360003953,1.0,1.0,phase_1,,,,,,,,,,,,,gray,triangle
315.0,6.0,2.0,1.0,2.0,2.0,492.8728569993836,1.0,1.0,phase_1,,,,,,,,,,,,,orange,circle
315.0,2.0,2.0,0.0,3.0,3.0,353.2279790006214,1.0,1.0,phase_1,,,,,,,,,,,,,blue,cross
160.0,5.0,1.0,1.0,2.0,2.0,531.0229750002691,1.0,1.0,phase_1,,,,,,,,,,,,,cyan,diamond
0.0,8.0,0.0,1.0,1.0,1.0,538.5030130000814,1.0,1.0,phase_1,,,,,,,,,,,,,magenta,flipped triangle
655.0,3.0,3.0,0.0,2.0,2.0,492.8390200002468,1.0,1.0,phase_1,,,,,,,,,,,,,white,hexagon
0.0,7.0,0.0,1.0,3.0,3.0,409.241144000589,1.0,1.0,phase_1,,,,,,,,,,,,,green,square
341.0,6.0,2.0,1.0,4.0,4.0,390.099256999747,1.0,1.0,phase_1,,,,,,,,,,,,,orange,circle
1318.0,8.0,4.0,1.0,1.0,1.0,459.8305449999316,1.0,1.0,phase_1,,,,,,,,,,,,,magenta,flipped triangle
0.0,1.0,0.0,0.0,4.0,4.0,529.1318439994939,1.0,1.0,phase_1,,,,,,,,,,,,,gray,triangle
1277.0,4.0,4.0,0.0,2.0,2.0,529.9536579996129,1.0,1.0,phase_1,,,,,,,,,,,,,yellow,I
1323.0,8.0,4.0,1.0,2.0,2.0,493.6055250000208,1.0,1.0,phase_1,,,,,,,,,,,,,magenta,flipped triangle
0.0,4.0,0.0,0.0,2.0,2.0,429.2324709995228,1.0,1.0,phase_1,,,,,,,,,,,,,yellow,I
0.0,6.0,0.0,1.0,4.0,4.0,447.5714499994865,1.0,1.0,phase_1,,,,,,,,,,,,,orange,circle
1320.0,8.0,4.0,1.0,4.0,4.0,466.3279880005575,1.0,1.0,phase_1,,,,,,,,,,,,,magenta,flipped triangle
0.0,7.0,0.0,1.0,1.0,1.0,523.0643770000825,1.0,1.0,phase_1,,,,,,,,,,,,,green,square
147.0,5.0,1.0,1.0,4.0,4.0,381.2484179998137,1.0,1.0,phase_1,,,,,,,,,,,,,cyan,diamond
1290.0,4.0,4.0,0.0,4.0,4.0,381.1475709999286,1.0,1.0,phase_1,,,,,,,,,,,,,yellow,I
1290.0,4.0,4.0,0.0,1.0,1.0,563.9089559999775,1.0,1.0,phase_1,,,,,,,,,,,,,yellow,I
0.0,3.0,0.0,0.0,4.0,4.0,494.2320680002012,1.0,1.0,phase_1,,,,,,,,,,,,,white,hexagon
323.0,2.0,2.0,0.0,2.0,2.0,539.6072739995361,1.0,1.0,phase_1,,,,,,,,,,,,,blue,cross
642.0,3.0,3.0,0.0,3.0,3.0,409.4053299995721,1.0,1.0,phase_1,,,,,,,,,,,,,white,hexagon
0.0,6.0,0.0,1.0,4.0,4.0,473.3990630002154,1.0,1.0,phase_1,,,,,,,,,,,,,orange,circle
0.0,5.0,0.0,1.0,4.0,4.0,383.4707120004168,1.0,1.0,phase_1,,,,,,,,,,,,,cyan,diamond
0.0,1.0,0.0,0.0,1.0,1.0,493.7582069997006,1.0,1.0,phase_1,,,,,,,,,,,,,gray,triangle
184.0,5.0,1.0,1.0,2.0,2.0,586.3222830002996,1.0,1.0,phase_1,,,,,,,,,,,,,cyan,diamond
636.0,3.0,3.0,0.0,4.0,4.0,418.5810549997768,1.0,1.0,phase_1,,,,,,,,,,,,,white,hexagon
342.0,2.0,2.0,0.0,2.0,2.0,566.8250740000076,1.0,1.0,phase_1,,,,,,,,,,,,,blue,cross
1303.0,8.0,4.0,1.0,2.0,2.0,466.9449869998061,1.0,1.0,phase_1,,,,,,,,,,,,,magenta,flipped triangle
0.0,3.0,0.0,0.0,4.0,4.0,317.8623849998985,1.0,1.0,phase_1,,,,,,,,,,,,,white,hexagon
662.0,7.0,3.0,1.0,3.0,3.0,505.87580199953663,1.0,1.0,phase_1,,,,,,,,,,,,,green,square
656.0,3.0,3.0,0.0,3.0,3.0,409.4121920006728,1.0,1.0,phase_1,,,,,,,,,,,,,white,hexagon
0.0,8.0,0.0,1.0,1.0,1.0,606.744821000575,2.0,1.0,phase_1,,,,,,,,,,,,,magenta,flipped triangle
344.0,2.0,2.0,0.0,3.0,3.0,374.0814989996579,2.0,1.0,phase_1,,,,,,,,,,,,,blue,cross
324.0,2.0,2.0,0.0,4.0,4.0,577.8248179994989,2.0,1.0,phase_1,,,,,,,,,,,,,blue,cross
138.0,5.0,1.0,1.0,3.0,3.0,326.5583510001306,2.0,1.0,phase_1,,,,,,,,,,,,,cyan,diamond
627.0,3.0,3.0,0.0,1.0,1.0,512.4658690001525,2.0,1.0,phase_1,,,,,,,,,,,,,white,hexagon
655.0,3.0,3.0,0.0,3.0,3.0,374.0114669999457,2.0,1.0,phase_1,,,,,,,,,,,,,white,hexagon
0.0,8.0,0.0,1.0,1.0,1.0,485.561709000649,2.0,1.0,phase_1,,,,,,,,,,,,,magenta,flipped triangle
659.0,3.0,3.0,0.0,2.0,2.0,419.6581740006877,2.0,1.0,phase_1,,,,,,,,,,,,,white,hexagon
1278.0,4.0,4.0,0.0,1.0,1.0,610.0524699995731,2.0,1.0,phase_1,,,,,,,,,,,,,yellow,I
0.0,6.0,0.0,1.0,3.0,3.0,317.1153279999998,2.0,1.0,phase_1,,,,,,,,,,,,,orange,circle
151.0,5.0,1.0,1.0,4.0,4.0,383.2467940001152,2.0,1.0,phase_1,,,,,,,,,,,,,cyan,diamond
324.0,6.0,2.0,1.0,2.0,2.0,614.8963929999809,2.0,1.0,phase_1,,,,,,,,,,,,,orange,circle
172.0,5.0,1.0,1.0,2.0,2.0,466.6498699998556,2.0,1.0,phase_1,,,,,,,,,,,,,cyan,diamond
1313.0,4.0,4.0,0.0,1.0,1.0,457.7266350006539,2.0,1.0,phase_1,,,,,,,,,,,,,yellow,I
155.0,5.0,1.0,1.0,1.0,1.0,531.2043949998042,2.0,1.0,phase_1,,,,,,,,,,,,,cyan,diamond
1278.0,4.0,4.0,0.0,2.0,2.0,540.3698740001346,2.0,1.0,phase_1,,,,,,,,,,,,,yellow,I
636.0,7.0,3.0,1.0,4.0,4.0,595.3649869998117,2.0,1.0,phase_1,,,,,,,,,,,,,green,square
0.0,7.0,0.0,1.0,1.0,1.0,467.150870000296,2.0,1.0,phase_1,,,,,,,,,,,,,green,square
0.0,8.0,0.0,1.0,1.0,1.0,513.167629000236,2.0,1.0,phase_1,,,,,,,,,,,,,magenta,flipped triangle
1308.0,8.0,4.0,1.0,2.0,2.0,429.0332470000066,2.0,1.0,phase_1,,,,,,,,,,,,,magenta,flipped triangle
320.0,6.0,2.0,1.0,2.0,2.0,643.4507780004424,2.0,1.0,phase_1,,,,,,,,,,,,,orange,circle
314.0,2.0,2.0,0.0,1.0,1.0,430.1985080001032,2.0,1.0,phase_1,,,,,,,,,,,,,blue,cross
333.0,2.0,2.0,0.0,1.0,1.0,420.8175220001067,2.0,1.0,phase_1,,,,,,,,,,,,,blue,cross
315.0,6.0,2.0,1.0,1.0,1.0,477.2371589997419,2.0,1.0,phase_1,,,,,,,,,,,,,orange,circle
670.0,3.0,3.0,0.0,3.0,3.0,402.1279930002492,2.0,1.0,phase_1,,,,,,,,,,,,,white,hexagon
156.0,1.0,1.0,0.0,1.0,1.0,456.1656360001507,2.0,1.0,phase_1,,,,,,,,,,,,,gray,triangle
0.0,4.0,0.0,0.0,1.0,1.0,569.7553789996164,2.0,1.0,phase_1,,,,,,,,,,,,,yellow,I
174.0,5.0,1.0,1.0,4.0,4.0,478.6843889996817,2.0,1.0,phase_1,,,,,,,,,,,,,cyan,diamond
0.0,1.0,0.0,0.0,2.0,2.0,418.3664789998147,2.0,1.0,phase_1,,,,,,,,,,,,,gray,triangle
1281.0,4.0,4.0,0.0,4.0,4.0,382.7055009996911,2.0,1.0,phase_1,,,,,,,,,,,,,yellow,I
1308.0,4.0,4.0,0.0,1.0,1.0,512.362309999844,2.0,1.0,phase_1,,,,,,,,,,,,,yellow,I
145.0,5.0,1.0,1.0,2.0,2.0,426.9452360003924,2.0,1.0,phase_1,,,,,,,,,,,,,cyan,diamond
145.0,1.0,1.0,0.0,1.0,1.0,409.3507349998617,2.0,1.0,phase_1,,,,,,,,,,,,,gray,triangle
1298.0,4.0,4.0,0.0,2.0,2.0,581.5772879996075,2.0,2.0,phase_1,,,,,,,,,,,,,yellow,I
314.0,6.0,2.0,1.0,2.0,2.0,595.4436849997364,2.0,1.0,phase_1,,,,,,,,,,,,,orange,circle
179.0,5.0,1.0,1.0,3.0,3.0,474.5059039996704,2.0,1.0,phase_1,,,,,,,,,,,,,cyan,diamond
0.0,4.0,0.0,0.0,3.0,3.0,393.3110010002565,2.0,1.0,phase_1,,,,,,,,,,,,,yellow,I
665.0,7.0,3.0,1.0,3.0,3.0,437.1396509995975,2.0,1.0,phase_1,,,,,,,,,,,,,green,square
315.0,2.0,2.0,0.0,1.0,1.0,429.35376599962177,2.0,1.0,phase_1,,,,,,,,,,,,,blue,cross
0.0,6.0,0.0,1.0,2.0,2.0,595.5664699995395,2.0,1.0,phase_1,,,,,,,,,,,,,orange,circle
666.0,3.0,3.0,0.0,1.0,1.0,533.3570900002087,2.0,1.0,phase_1,,,,,,,,,,,,,white,hexagon
324.0,2.0,2.0,0.0,2.0,2.0,531.2584960001914,2.0,1.0,phase_1,,,,,,,,,,,,,blue,cross
0.0,1.0,0.0,0.0,2.0,2.0,624.3572519997542,2.0,1.0,phase_1,,,,,,,,,,,,,gray,triangle
1288.0,4.0,4.0,0.0,3.0,3.0,446.0689850002381,2.0,1.0,phase_1,,,,,,,,,,,,,yellow,I
302.0,6.0,2.0,1.0,1.0,1.0,474.7439430002487,2.0,1.0,phase_1,,,,,,,,,,,,,orange,circle
640.0,7.0,3.0,1.0,4.0,4.0,540.498760000446,2.0,1.0,phase_1,,,,,,,,,,,,,green,square
1299.0,4.0,4.0,0.0,2.0,2.0,399.4284930004141,2.0,1.0,phase_1,,,,,,,,,,,,,yellow,I
0.0,3.0,0.0,0.0,3.0,3.0,391.566960000091,2.0,1.0,phase_1,,,,,,,,,,,,,white,hexagon
172.0,1.0,1.0,0.0,4.0,4.0,485.1895479996528,2.0,1.0,phase_1,,,,,,,,,,,,,gray,triangle
649.0,3.0,3.0,0.0,2.0,2.0,622.8796099994724,2.0,1.0,phase_1,,,,,,,,,,,,,white,hexagon
150.0,5.0,1.0,1.0,1.0,1.0,512.7324999994016,2.0,1.0,phase_1,,,,,,,,,,,,,cyan,diamond
337.0,2.0,2.0,0.0,3.0,3.0,391.6895559996192,2.0,1.0,phase_1,,,,,,,,,,,,,blue,cross
1310.0,8.0,4.0,1.0,1.0,1.0,512.6686319999862,2.0,1.0,phase_1,,,,,,,,,,,,,magenta,flipped triangle
0.0,8.0,0.0,1.0,3.0,3.0,402.7837130006446,2.0,1.0,phase_1,,,,,,,,,,,,,magenta,flipped triangle
675.0,3.0,3.0,0.0,4.0,4.0,447.4742679994961,2.0,1.0,phase_1,,,,,,,,,,,,,white,hexagon
1318.0,4.0,4.0,0.0,2.0,2.0,439.8490029998356,2.0,1.0,phase_1,,,,,,,,,,,,,yellow,I
1303.0,4.0,4.0,0.0,1.0,1.0,475.5356519999623,2.0,1.0,phase_1,,,,,,,,,,,,,yellow,I
309.0,2.0,2.0,0.0,2.0,2.0,531.9619029996829,2.0,1.0,phase_1,,,,,,,,,,,,,blue,cross
653.0,7.0,3.0,1.0,1.0,1.0,410.7193410000036,2.0,1.0,phase_1,,,,,,,,,,,,,green,square
142.0,5.0,1.0,1.0,1.0,1.0,419.9200240000209,2.0,1.0,phase_1,,,,,,,,,,,,,cyan,diamond
138.0,1.0,1.0,0.0,3.0,3.0,549.1119299995262,2.0,1.0,phase_1,,,,,,,,,,,,,gray,triangle
1282.0,8.0,4.0,1.0,4.0,4.0,382.3182309997719,2.0,1.0,phase_1,,,,,,,,,,,,,magenta,flipped triangle
167.0,1.0,1.0,0.0,3.0,3.0,482.898915000078,2.0,1.0,phase_1,,,,,,,,,,,,,gray,triangle
0.0,6.0,0.0,1.0,4.0,4.0,485.029270999803,2.0,1.0,phase_1,,,,,,,,,,,,,orange,circle
337.0,2.0,2.0,0.0,1.0,1.0,514.4495109998388,2.0,1.0,phase_1,,,,,,,,,,,,,blue,cross
0.0,5.0,0.0,1.0,1.0,1.0,494.0281769995636,2.0,1.0,phase_1,,,,,,,,,,,,,cyan,diamond
1292.0,4.0,4.0,0.0,2.0,2.0,643.4651599993231,2.0,1.0,phase_1,,,,,,,,,,,,,yellow,I
1303.0,8.0,4.0,1.0,1.0,1.0,383.544250000341,2.0,1.0,phase_1,,,,,,,,,,,,,magenta,flipped triangle
0.0,2.0,0.0,0.0,2.0,2.0,483.72312399988,2.0,2.0,phase_1,,,,,,,,,,,,,blue,cross
0.0,6.0,0.0,1.0,3.0,3.0,437.4843519999558,2.0,1.0,phase_1,,,,,,,,,,,,,orange,circle
654.0,7.0,3.0,1.0,1.0,1.0,383.7149529999806,2.0,1.0,phase_1,,,,,,,,,,,,,green,square
177.0,5.0,1.0,1.0,1.0,1.0,354.5426339996993,2.0,1.0,phase_1,,,,,,,,,,,,,cyan,diamond
0.0,1.0,0.0,0.0,1.0,1.0,402.250140000433,2.0,1.0,phase_1,,,,,,,,,,,,,gray,triangle
630.0,3.0,3.0,0.0,1.0,1.0,410.1600160001908,2.0,1.0,phase_1,,,,,,,,,,,,,white,hexagon
655.0,7.0,3.0,1.0,4.0,4.0,523.3585930000118,2.0,1.0,phase_1,,,,,,,,,,,,,green,square
141.0,1.0,1.0,0.0,4.0,4.0,466.7144249997363,2.0,1.0,phase_1,,,,,,,,,,,,,gray,triangle
0.0,5.0,0.0,1.0,4.0,4.0,344.6861599995827,2.0,1.0,phase_1,,,,,,,,,,,,,cyan,diamond
627.0,7.0,3.0,1.0,2.0,2.0,558.5029829999257,2.0,1.0,phase_1,,,,,,,,,,,,,green,square
0.0,8.0,0.0,1.0,1.0,1.0,540.0262049997764,2.0,1.0,phase_1,,,,,,,,,,,,,magenta,flipped triangle
1315.0,4.0,4.0,0.0,3.0,3.0,457.4615419996917,2.0,1.0,phase_1,,,,,,,,,,,,,yellow,I
311.0,2.0,2.0,0.0,1.0,1.0,576.9726449998416,2.0,1.0,phase_1,,,,,,,,,,,,,blue,cross
315.0,6.0,2.0,1.0,4.0,4.0,382.1135370008051,2.0,1.0,phase_1,,,,,,,,,,,,,orange,circle
1292.0,8.0,4.0,1.0,3.0,3.0,486.3173440007813,2.0,1.0,phase_1,,,,,,,,,,,,,magenta,flipped triangle
1286.0,4.0,4.0,0.0,4.0,4.0,372.906999999941,2.0,1.0,phase_1,,,,,,,,,,,,,yellow,I
653.0,7.0,3.0,1.0,3.0,3.0,448.0706559997998,2.0,1.0,phase_1,,,,,,,,,,,,,green,square
153.0,5.0,1.0,1.0,2.0,2.0,562.0723570000337,2.0,1.0,phase_1,,,,,,,,,,,,,cyan,diamond
146.0,1.0,1.0,0.0,1.0,1.0,520.5737619999127,2.0,1.0,phase_1,,,,,,,,,,,,,gray,triangle
1295.0,8.0,4.0,1.0,1.0,1.0,420.6758560003436,2.0,1.0,phase_1,,,,,,,,,,,,,magenta,flipped triangle
0.0,3.0,0.0,0.0,2.0,2.0,543.1824070001312,2.0,1.0,phase_1,,,,,,,,,,,,,white,hexagon
157.0,5.0,1.0,1.0,3.0,3.0,466.6494419998344,2.0,1.0,phase_1,,,,,,,,,,,,,cyan,diamond
312.0,2.0,2.0,0.0,4.0,4.0,345.1968339995801,2.0,1.0,phase_1,,,,,,,,,,,,,blue,cross
302.0,2.0,2.0,0.0,1.0,1.0,513.0143220003447,2.0,1.0,phase_1,,,,,,,,,,,,,blue,cross
313.0,6.0,2.0,1.0,3.0,3.0,457.3851370005286,2.0,1.0,phase_1,,,,,,,,,,,,,orange,circle
0.0,7.0,0.0,1.0,2.0,2.0,549.3353149995528,2.0,1.0,phase_1,,,,,,,,,,,,,green,square
667.0,7.0,3.0,1.0,2.0,2.0,598.7025869999343,2.0,1.0,phase_1,,,,,,,,,,,,,green,square
329.0,6.0,2.0,1.0,3.0,3.0,483.3884990002843,2.0,1.0,phase_1,,,,,,,,,,,,,orange,circle
167.0,5.0,1.0,1.0,3.0,3.0,364.2944100001841,2.0,1.0,phase_1,,,,,,,,,,,,,cyan,diamond
675.0,7.0,3.0,1.0,3.0,3.0,316.6013410000232,2.0,1.0,phase_1,,,,,,,,,,,,,green,square
0.0,5.0,0.0,1.0,3.0,3.0,319.5630050004183,2.0,1.0,phase_1,,,,,,,,,,,,,cyan,diamond
321.0,2.0,2.0,0.0,3.0,3.0,325.7874060000176,2.0,1.0,phase_1,,,,,,,,,,,,,blue,cross
666.0,7.0,3.0,1.0,1.0,1.0,761.8404500008182,3.0,1.0,phase_1,,,,,,,,,,,,,green,square
0.0,5.0,0.0,1.0,4.0,4.0,548.6548039998524,3.0,1.0,phase_1,,,,,,,,,,,,,cyan,diamond
0.0,7.0,0.0,1.0,1.0,1.0,427.7845509996041,3.0,1.0,phase_1,,,,,,,,,,,,,green,square
649.0,7.0,3.0,1.0,2.0,2.0,556.667171999834,3.0,1.0,phase_1,,,,,,,,,,,,,green,square
0.0,4.0,0.0,0.0,1.0,1.0,371.0954010002751,3.0,1.0,phase_1,,,,,,,,,,,,,yellow,I
0.0,3.0,0.0,0.0,1.0,1.0,409.0272920002462,3.0,1.0,phase_1,,,,,,,,,,,,,white,hexagon
332.0,6.0,2.0,1.0,3.0,3.0,454.904288999387,3.0,1.0,phase_1,,,,,,,,,,,,,orange,circle
168.0,5.0,1.0,1.0,3.0,3.0,400.5367420004404,3.0,1.0,phase_1,,,,,,,,,,,,,cyan,diamond
157.0,1.0,1.0,0.0,3.0,3.0,474.6363479998763,3.0,1.0,phase_1,,,,,,,,,,,,,gray,triangle
649.0,7.0,3.0,1.0,4.0,4.0,681.7985509997015,3.0,1.0,phase_1,,,,,,,,,,,,,green,square
143.0,1.0,1.0,0.0,4.0,4.0,463.3648039998661,3.0,1.0,phase_1,,,,,,,,,,,,,gray,triangle
1321.0,4.0,4.0,0.0,1.0,1.0,540.1913199993942,3.0,1.0,phase_1,,,,,,,,,,,,,yellow,I
343.0,2.0,2.0,0.0,2.0,2.0,716.1247119993277,3.0,1.0,phase_1,,,,,,,,,,,,,blue,cross
659.0,3.0,3.0,0.0,2.0,2.0,569.0913250000449,3.0,1.0,phase_1,,,,,,,,,,,,,white,hexagon
320.0,2.0,2.0,0.0,1.0,1.0,550.6786170008127,3.0,1.0,phase_1,,,,,,,,,,,,,blue,cross
0.0,2.0,0.0,0.0,4.0,4.0,545.2865839997685,3.0,1.0,phase_1,,,,,,,,,,,,,blue,cross
0.0,4.0,0.0,0.0,4.0,4.0,436.7555200005881,3.0,1.0,phase_1,,,,,,,,,,,,,yellow,I
632.0,3.0,3.0,0.0,1.0,1.0,520.5283929999496,3.0,1.0,phase_1,,,,,,,,,,,,,white,hexagon
639.0,7.0,3.0,1.0,1.0,1.0,391.337951999958,3.0,1.0,phase_1,,,,,,,,,,,,,green,square
1281.0,8.0,4.0,1.0,3.0,3.0,402.1728309999162,3.0,1.0,phase_1,,,,,,,,,,,,,magenta,flipped triangle
660.0,7.0,3.0,1.0,1.0,1.0,493.3471399999689,3.0,1.0,phase_1,,,,,,,,,,,,,green,square
0.0,6.0,0.0,1.0,4.0,4.0,437.4621090000801,3.0,1.0,phase_1,,,,,,,,,,,,,orange,circle
308.0,2.0,2.0,0.0,2.0,2.0,513.1003490005241,3.0,1.0,phase_1,,,,,,,,,,,,,blue,cross
309.0,6.0,2.0,1.0,4.0,4.0,344.7189139997135,3.0,1.0,phase_1,,,,,,,,,,,,,orange,circle
1288.0,8.0,4.0,1.0,2.0,2.0,556.5494829997988,3.0,1.0,phase_1,,,,,,,,,,,,,magenta,flipped triangle
316.0,6.0,2.0,1.0,3.0,3.0,475.5752989995017,3.0,1.0,phase_1,,,,,,,,,,,,,orange,circle
0.0,2.0,0.0,0.0,1.0,1.0,483.9922840001236,3.0,1.0,phase_1,,,,,,,,,,,,,blue,cross
1295.0,4.0,4.0,0.0,3.0,3.0,475.1852520003012,3.0,1.0,phase_1,,,,,,,,,,,,,yellow,I
665.0,3.0,3.0,0.0,4.0,4.0,427.958168999794,3.0,1.0,phase_1,,,,,,,,,,,,,white,hexagon
185.0,1.0,1.0,0.0,2.0,2.0,483.3804620002411,3.0,1.0,phase_1,,,,,,,,,,,,,gray,triangle
642.0,7.0,3.0,1.0,2.0,2.0,420.949782000207,3.0,1.0,phase_1,,,,,,,,,,,,,green,square
337.0,6.0,2.0,1.0,1.0,1.0,567.391652999504,3.0,1.0,phase_1,,,,,,,,,,,,,orange,circle
0.0,2.0,0.0,0.0,3.0,3.0,540.3886869999042,3.0,1.0,phase_1,,,,,,,,,,,,,blue,cross
331.0,6.0,2.0,1.0,4.0,4.0,392.3183460001382,3.0,1.0,phase_1,,,,,,,,,,,,,orange,circle
667.0,3.0,3.0,0.0,1.0,1.0,502.93060500007414,3.0,1.0,phase_1,,,,,,,,,,,,,white,hexagon
169.0,5.0,1.0,1.0,4.0,4.0,530.3591409992805,3.0,1.0,phase_1,,,,,,,,,,,,,cyan,diamond
1281.0,4.0,4.0,0.0,4.0,4.0,437.4257660001603,3.0,1.0,phase_1,,,,,,,,,,,,,yellow,I
1322.0,4.0,4.0,0.0,3.0,3.0,364.0989479999916,3.0,1.0,phase_1,,,,,,,,,,,,,yellow,I
0.0,8.0,0.0,1.0,3.0,3.0,381.9936870004312,3.0,1.0,phase_1,,,,,,,,,,,,,magenta,flipped triangle
675.0,7.0,3.0,1.0,4.0,4.0,327.4815869999656,3.0,1.0,phase_1,,,,,,,,,,,,,green,square
0.0,5.0,0.0,1.0,3.0,3.0,419.7879359999206,3.0,1.0,phase_1,,,,,,,,,,,,,cyan,diamond
1278.0,8.0,4.0,1.0,2.0,2.0,614.9277549993712,3.0,1.0,phase_1,,,,,,,,,,,,,magenta,flipped triangle
1310.0,4.0,4.0,0.0,4.0,4.0,414.1324170004736,3.0,1.0,phase_1,,,,,,,,,,,,,yellow,I
0.0,8.0,0.0,1.0,1.0,1.0,613.6563219997697,3.0,1.0,phase_1,,,,,,,,,,,,,magenta,flipped triangle
626.0,3.0,3.0,0.0,3.0,3.0,372.7966199994625,3.0,1.0,phase_1,,,,,,,,,,,,,white,hexagon
324.0,6.0,2.0,1.0,1.0,1.0,455.8694249999462,3.0,1.0,phase_1,,,,,,,,,,,,,orange,circle
0.0,2.0,0.0,0.0,3.0,3.0,484.184156000083,3.0,1.0,phase_1,,,,,,,,,,,,,blue,cross
142.0,1.0,1.0,0.0,2.0,2.0,529.9971099993854,3.0,1.0,phase_1,,,,,,,,,,,,,gray,triangle
1303.0,4.0,4.0,0.0,3.0,3.0,603.4966770002939,3.0,1.0,phase_1,,,,,,,,,,,,,yellow,I
336.0,6.0,2.0,1.0,1.0,1.0,446.1264720002873,3.0,1.0,phase_1,,,,,,,,,,,,,orange,circle
318.0,6.0,2.0,1.0,3.0,3.0,418.1524550003814,3.0,1.0,phase_1,,,,,,,,,,,,,orange,circle
301.0,6.0,2.0,1.0,3.0,3.0,353.3146559993838,3.0,1.0,phase_1,,,,,,,,,,,,,orange,circle
0.0,4.0,0.0,0.0,4.0,4.0,353.1752539993249,3.0,1.0,phase_1,,,,,,,,,,,,,yellow,I
663.0,7.0,3.0,1.0,2.0,2.0,473.8810259996171,3.0,1.0,phase_1,,,,,,,,,,,,,green,square
632.0,7.0,3.0,1.0,4.0,4.0,390.6591609993484,3.0,1.0,phase_1,,,,,,,,,,,,,green,square
657.0,7.0,3.0,1.0,1.0,1.0,430.9542840001086,3.0,1.0,phase_1,,,,,,,,,,,,,green,square
308.0,6.0,2.0,1.0,2.0,2.0,476.2147769997682,3.0,1.0,phase_1,,,,,,,,,,,,,orange,circle
182.0,1.0,1.0,0.0,4.0,4.0,419.4231850005963,3.0,1.0,phase_1,,,,,,,,,,,,,gray,triangle
146.0,5.0,1.0,1.0,3.0,3.0,466.4640579994739,3.0,1.0,phase_1,,,,,,,,,,,,,cyan,diamond
639.0,3.0,3.0,0.0,4.0,4.0,355.227695999929,3.0,1.0,phase_1,,,,,,,,,,,,,white,hexagon
0.0,1.0,0.0,0.0,2.0,2.0,494.7601209996719,3.0,1.0,phase_1,,,,,,,,,,,,,gray,triangle
329.0,2.0,2.0,0.0,3.0,3.0,344.6349229998304,3.0,1.0,phase_1,,,,,,,,,,,,,blue,cross
300.0,2.0,2.0,0.0,4.0,4.0,448.0272959999638,3.0,1.0,phase_1,,,,,,,,,,,,,blue,cross
0.0,4.0,0.0,0.0,1.0,1.0,457.2229640007208,3.0,1.0,phase_1,,,,,,,,,,,,,yellow,I
181.0,5.0,1.0,1.0,3.0,3.0,418.9857760002269,3.0,1.0,phase_1,,,,,,,,,,,,,cyan,diamond
631.0,3.0,3.0,0.0,4.0,4.0,307.6342280000972,3.0,1.0,phase_1,,,,,,,,,,,,,white,hexagon
300.0,6.0,2.0,1.0,1.0,1.0,446.5904799999407,3.0,1.0,phase_1,,,,,,,,,,,,,orange,circle
1309.0,4.0,4.0,0.0,2.0,2.0,410.118419000355,3.0,1.0,phase_1,,,,,,,,,,,,,yellow,I
669.0,3.0,3.0,0.0,2.0,2.0,466.1488219999228,3.0,1.0,phase_1,,,,,,,,,,,,,white,hexagon
641.0,7.0,3.0,1.0,1.0,1.0,483.0380909997984,3.0,1.0,phase_1,,,,,,,,,,,,,green,square
649.0,3.0,3.0,0.0,1.0,1.0,382.1741420006219,3.0,1.0,phase_1,,,,,,,,,,,,,white,hexagon
311.0,6.0,2.0,1.0,4.0,4.0,327.4184609999793,3.0,1.0,phase_1,,,,,,,,,,,,,orange,circle
181.0,1.0,1.0,0.0,4.0,4.0,400.5210019995502,3.0,1.0,phase_1,,,,,,,,,,,,,gray,triangle
159.0,5.0,1.0,1.0,1.0,1.0,475.5531209993933,3.0,1.0,phase_1,,,,,,,,,,,,,cyan,diamond
1282.0,4.0,4.0,0.0,4.0,4.0,428.2464500001879,3.0,1.0,phase_1,,,,,,,,,,,,,yellow,I
140.0,1.0,1.0,0.0,2.0,2.0,468.5082159994636,3.0,1.0,phase_1,,,,,,,,,,,,,gray,triangle
0.0,7.0,0.0,1.0,3.0,3.0,418.8704280004458,3.0,1.0,phase_1,,,,,,,,,,,,,green,square
347.0,2.0,2.0,0.0,4.0,4.0,372.1092730002056,3.0,1.0,phase_1,,,,,,,,,,,,,blue,cross
1325.0,4.0,4.0,0.0,3.0,3.0,465.8271460002652,3.0,1.0,phase_1,,,,,,,,,,,,,yellow,I
1286.0,4.0,4.0,0.0,2.0,2.0,484.5142389995089,3.0,1.0,phase_1,,,,,,,,,,,,,yellow,I
163.0,5.0,1.0,1.0,4.0,4.0,418.5940730003494,3.0,1.0,phase_1,,,,,,,,,,,,,cyan,diamond
179.0,1.0,1.0,0.0,2.0,2.0,520.5350579999504,3.0,1.0,phase_1,,,,,,,,,,,,,gray,triangle
0.0,2.0,0.0,0.0,2.0,2.0,429.9474139997983,3.0,1.0,phase_1,,,,,,,,,,,,,blue,cross
663.0,3.0,3.0,0.0,3.0,3.0,420.7895959998495,3.0,1.0,phase_1,,,,,,,,,,,,,white,hexagon
0.0,8.0,0.0,1.0,2.0,2.0,446.5838950000034,3.0,1.0,phase_1,,,,,,,,,,,,,magenta,flipped triangle
168.0,1.0,1.0,0.0,1.0,1.0,337.2745590004342,3.0,1.0,phase_1,,,,,,,,,,,,,gray,triangle
636.0,7.0,3.0,1.0,3.0,3.0,426.9245020004746,3.0,1.0,phase_1,,,,,,,,,,,,,green,square
154.0,1.0,1.0,0.0,1.0,1.0,512.0199829998455,3.0,1.0,phase_1,,,,,,,,,,,,,gray,triangle
1293.0,8.0,4.0,1.0,1.0,1.0,392.5400970001647,3.0,1.0,phase_1,,,,,,,,,,,,,magenta,flipped triangle
174.0,1.0,1.0,0.0,2.0,2.0,391.0196910001104,3.0,1.0,phase_1,,,,,,,,,,,,,gray,triangle
161.0,5.0,1.0,1.0,1.0,1.0,326.7675340002824,3.0,2.0,phase_1,,,,,,,,,,,,,cyan,diamond
1286.0,8.0,4.0,1.0,4.0,4.0,467.0823369997379,3.0,1.0,phase_1,,,,,,,,,,,,,magenta,flipped triangle
1311.0,8.0,4.0,1.0,3.0,3.0,429.4977380004638,3.0,1.0,phase_1,,,,,,,,,,,,,magenta,flipped triangle
1317.0,8.0,4.0,1.0,1.0,1.0,485.2225969998471,3.0,1.0,phase_1,,,,,,,,,,,,,magenta,flipped triangle
653.0,3.0,3.0,0.0,1.0,1.0,363.6122370007797,3.0,1.0,phase_1,,,,,,,,,,,,,white,hexagon
1315.0,8.0,4.0,1.0,4.0,4.0,419.0617630001725,3.0,1.0,phase_1,,,,,,,,,,,,,magenta,flipped triangle
1283.0,8.0,4.0,1.0,3.0,3.0,363.4096879995923,3.0,1.0,phase_1,,,,,,,,,,,,,magenta,flipped triangle
1298.0,8.0,4.0,1.0,3.0,3.0,401.2350430002698,3.0,1.0,phase_1,,,,,,,,,,,,,magenta,flipped triangle
1278.0,8.0,4.0,1.0,3.0,3.0,382.3469939998176,3.0,1.0,phase_1,,,,,,,,,,,,,magenta,flipped triangle
0.0,7.0,0.0,1.0,4.0,4.0,513.3169040000212,3.0,1.0,phase_1,,,,,,,,,,,,,green,square
301.0,2.0,2.0,0.0,1.0,1.0,483.3506810000472,4.0,1.0,phase_1,,,,,,,,,,,,,blue,cross
0.0,2.0,0.0,0.0,4.0,4.0,456.2267020000945,4.0,1.0,phase_1,,,,,,,,,,,,,blue,cross
642.0,3.0,3.0,0.0,2.0,2.0,409.9566710001454,4.0,1.0,phase_1,,,,,,,,,,,,,white,hexagon
662.0,3.0,3.0,0.0,2.0,2.0,446.1995849997038,4.0,1.0,phase_1,,,,,,,,,,,,,white,hexagon
344.0,6.0,2.0,1.0,4.0,4.0,419.6424709998609,4.0,1.0,phase_1,,,,,,,,,,,,,orange,circle
0.0,3.0,0.0,0.0,4.0,4.0,344.5419429999674,4.0,1.0,phase_1,,,,,,,,,,,,,white,hexagon
329.0,6.0,2.0,1.0,1.0,1.0,418.3846150008321,4.0,1.0,phase_1,,,,,,,,,,,,,orange,circle
169.0,1.0,1.0,0.0,4.0,4.0,473.9680490001774,4.0,1.0,phase_1,,,,,,,,,,,,,gray,triangle
156.0,5.0,1.0,1.0,1.0,1.0,408.4912859998439,4.0,1.0,phase_1,,,,,,,,,,,,,cyan,diamond
184.0,1.0,1.0,0.0,4.0,4.0,363.5848160001842,4.0,1.0,phase_1,,,,,,,,,,,,,gray,triangle
659.0,7.0,3.0,1.0,3.0,3.0,391.6665410006317,4.0,1.0,phase_1,,,,,,,,,,,,,green,square
0.0,6.0,0.0,1.0,2.0,2.0,428.5806060006507,4.0,1.0,phase_1,,,,,,,,,,,,,orange,circle
182.0,5.0,1.0,1.0,4.0,4.0,362.9814570003873,4.0,1.0,phase_1,,,,,,,,,,,,,cyan,diamond
139.0,1.0,1.0,0.0,1.0,1.0,418.0833259997598,4.0,1.0,phase_1,,,,,,,,,,,,,gray,triangle
640.0,3.0,3.0,0.0,1.0,1.0,529.4578420007383,4.0,1.0,phase_1,,,,,,,,,,,,,white,hexagon
348.0,6.0,2.0,1.0,3.0,3.0,455.8912250004141,4.0,1.0,phase_1,,,,,,,,,,,,,orange,circle
0.0,4.0,0.0,0.0,4.0,4.0,307.3888039998564,4.0,1.0,phase_1,,,,,,,,,,,,,yellow,I
1287.0,4.0,4.0,0.0,3.0,3.0,390.8078149997891,4.0,1.0,phase_1,,,,,,,,,,,,,yellow,I
312.0,6.0,2.0,1.0,4.0,4.0,400.0609409995377,4.0,1.0,phase_1,,,,,,,,,,,,,orange,circle
333.0,6.0,2.0,1.0,1.0,1.0,400.6643469992923,4.0,1.0,phase_1,,,,,,,,,,,,,orange,circle
0.0,5.0,0.0,1.0,3.0,3.0,410.1769409999178,4.0,1.0,phase_1,,,,,,,,,,,,,cyan,diamond
630.0,7.0,3.0,1.0,3.0,3.0,408.8710819996777,4.0,1.0,phase_1,,,,,,,,,,,,,green,square
159.0,1.0,1.0,0.0,1.0,1.0,428.252607000104,4.0,1.0,phase_1,,,,,,,,,,,,,gray,triangle
1321.0,8.0,4.0,1.0,1.0,1.0,428.7799100002303,4.0,1.0,phase_1,,,,,,,,,,,,,magenta,flipped triangle
0.0,6.0,0.0,1.0,3.0,3.0,374.398774999463,4.0,1.0,phase_1,,,,,,,,,,,,,orange,circle
337.0,6.0,2.0,1.0,2.0,2.0,790.113886000654,4.0,1.0,phase_1,,,,,,,,,,,,,orange,circle
0.0,7.0,0.0,1.0,4.0,4.0,391.1061720000361,4.0,1.0,phase_1,,,,,,,,,,,,,green,square
1325.0,8.0,4.0,1.0,3.0,3.0,400.6721109999489,4.0,1.0,phase_1,,,,,,,,,,,,,magenta,flipped triangle
660.0,3.0,3.0,0.0,4.0,4.0,372.5282030000016,4.0,1.0,phase_1,,,,,,,,,,,,,white,hexagon
648.0,3.0,3.0,0.0,3.0,3.0,400.552556000548,4.0,1.0,phase_1,,,,,,,,,,,,,white,hexagon
0.0,4.0,0.0,0.0,3.0,3.0,381.50178900014,4.0,1.0,phase_1,,,,,,,,,,,,,yellow,I
323.0,2.0,2.0,0.0,2.0,2.0,510.595118999845,4.0,1.0,phase_1,,,,,,,,,,,,,blue,cross
670.0,7.0,3.0,1.0,2.0,2.0,529.8852890000489,4.0,1.0,phase_1,,,,,,,,,,,,,green,square
330.0,6.0,2.0,1.0,4.0,4.0,474.1100300007019,4.0,1.0,phase_1,,,,,,,,,,,,,orange,circle
669.0,7.0,3.0,1.0,4.0,4.0,344.4567090000419,4.0,1.0,phase_1,,,,,,,,,,,,,green,square
331.0,2.0,2.0,0.0,4.0,4.0,418.45368200029037,4.0,1.0,phase_1,,,,,,,,,,,,,blue,cross
310.0,6.0,2.0,1.0,2.0,2.0,445.5303159993491,4.0,1.0,phase_1,,,,,,,,,,,,,orange,circle
163.0,5.0,1.0,1.0,1.0,1.0,540.4967009999382,4.0,1.0,phase_1,,,,,,,,,,,,,cyan,diamond
163.0,1.0,1.0,0.0,2.0,2.0,428.2706770000004,4.0,1.0,phase_1,,,,,,,,,,,,,gray,triangle
0.0,6.0,0.0,1.0,1.0,1.0,408.5705569996207,4.0,1.0,phase_1,,,,,,,,,,,,,orange,circle
659.0,7.0,3.0,1.0,3.0,3.0,454.0848810001989,4.0,1.0,phase_1,,,,,,,,,,,,,green,square
1295.0,4.0,4.0,0.0,4.0,4.0,279.096168000251,4.0,1.0,phase_1,,,,,,,,,,,,,yellow,I
139.0,5.0,1.0,1.0,1.0,1.0,370.8436010001605,4.0,1.0,phase_1,,,,,,,,,,,,,cyan,diamond
151.0,1.0,1.0,0.0,3.0,3.0,482.4700210001538,4.0,1.0,phase_1,,,,,,,,,,,,,gray,triangle
141.0,5.0,1.0,1.0,1.0,1.0,400.3183040003932,4.0,1.0,phase_1,,,,,,,,,,,,,cyan,diamond
631.0,7.0,3.0,1.0,4.0,4.0,361.4355450008588,4.0,1.0,phase_1,,,,,,,,,,,,,green,square
632.0,7.0,3.0,1.0,4.0,4.0,417.8691189999881,4.0,1.0,phase_1,,,,,,,,,,,,,green,square
1283.0,8.0,4.0,1.0,2.0,2.0,389.9881269999241,4.0,1.0,phase_1,,,,,,,,,,,,,magenta,flipped triangle
0.0,1.0,0.0,0.0,1.0,1.0,482.8890560002037,4.0,1.0,phase_1,,,,,,,,,,,,,gray,triangle
654.0,3.0,3.0,0.0,1.0,1.0,463.6803670000518,4.0,1.0,phase_1,,,,,,,,,,,,,white,hexagon
1278.0,4.0,4.0,0.0,1.0,1.0,390.6817759998375,4.0,1.0,phase_1,,,,,,,,,,,,,yellow,I
177.0,1.0,1.0,0.0,1.0,1.0,464.1937860005782,4.0,1.0,phase_1,,,,,,,,,,,,,gray,triangle
313.0,2.0,2.0,0.0,3.0,3.0,446.3576100006321,4.0,1.0,phase_1,,,,,,,,,,,,,blue,cross
1313.0,8.0,4.0,1.0,4.0,4.0,576.1594330006119,4.0,1.0,phase_1,,,,,,,,,,,,,magenta,flipped triangle
661.0,3.0,3.0,0.0,1.0,1.0,447.4883180000688,4.0,1.0,phase_1,,,,,,,,,,,,,white,hexagon
1287.0,8.0,4.0,1.0,1.0,1.0,420.4751959996429,4.0,1.0,phase_1,,,,,,,,,,,,,magenta,flipped triangle
349.0,2.0,2.0,0.0,4.0,4.0,521.6230610003549,4.0,1.0,phase_1,,,,,,,,,,,,,blue,cross
656.0,7.0,3.0,1.0,2.0,2.0,473.3446360005473,4.0,1.0,phase_1,,,,,,,,,,,,,green,square
349.0,6.0,2.0,1.0,3.0,3.0,362.8455079997366,4.0,1.0,phase_1,,,,,,,,,,,,,orange,circle
163.0,1.0,1.0,0.0,2.0,2.0,446.6578729998218,4.0,1.0,phase_1,,,,,,,,,,,,,gray,triangle
171.0,5.0,1.0,1.0,2.0,2.0,465.5844499993691,4.0,1.0,phase_1,,,,,,,,,,,,,cyan,diamond
0.0,5.0,0.0,1.0,4.0,4.0,362.1432059999279,4.0,1.0,phase_1,,,,,,,,,,,,,cyan,diamond
315.0,2.0,2.0,0.0,3.0,3.0,372.6423719999729,4.0,1.0,phase_1,,,,,,,,,,,,,blue,cross
336.0,6.0,2.0,1.0,1.0,1.0,428.0058189997362,4.0,1.0,phase_1,,,,,,,,,,,,,orange,circle
1325.0,4.0,4.0,0.0,2.0,2.0,670.2380670003549,4.0,1.0,phase_1,,,,,,,,,,,,,yellow,I
646.0,3.0,3.0,0.0,3.0,3.0,465.5247279997638,4.0,1.0,phase_1,,,,,,,,,,,,,white,hexagon
1305.0,8.0,4.0,1.0,2.0,2.0,436.3353480002843,4.0,1.0,phase_1,,,,,,,,,,,,,magenta,flipped triangle
648.0,7.0,3.0,1.0,1.0,1.0,417.4847129997943,4.0,1.0,phase_1,,,,,,,,,,,,,green,square
1321.0,4.0,4.0,0.0,1.0,1.0,364.4510840003931,4.0,1.0,phase_1,,,,,,,,,,,,,yellow,I
0.0,5.0,0.0,1.0,4.0,4.0,362.7402950005489,4.0,1.0,phase_1,,,,,,,,,,,,,cyan,diamond
153.0,1.0,1.0,0.0,2.0,2.0,436.4511450003192,4.0,1.0,phase_1,,,,,,,,,,,,,gray,triangle
0.0,2.0,0.0,0.0,1.0,1.0,401.0526249994655,4.0,1.0,phase_1,,,,,,,,,,,,,blue,cross
1320.0,4.0,4.0,0.0,4.0,4.0,381.8015189999642,4.0,1.0,phase_1,,,,,,,,,,,,,yellow,I
1281.0,8.0,4.0,1.0,3.0,3.0,455.6908209997345,4.0,1.0,phase_1,,,,,,,,,,,,,magenta,flipped triangle
150.0,1.0,1.0,0.0,2.0,2.0,519.3769950001297,4.0,1.0,phase_1,,,,,,,,,,,,,gray,triangle
1325.0,8.0,4.0,1.0,4.0,4.0,575.9324689997811,4.0,1.0,phase_1,,,,,,,,,,,,,magenta,flipped triangle
0.0,3.0,0.0,0.0,1.0,1.0,420.6870640000488,4.0,1.0,phase_1,,,,,,,,,,,,,white,hexagon
323.0,6.0,2.0,1.0,2.0,2.0,575.3793320000113,4.0,1.0,phase_1,,,,,,,,,,,,,orange,circle
640.0,7.0,3.0,1.0,2.0,2.0,547.7053980002893,4.0,1.0,phase_1,,,,,,,,,,,,,green,square
626.0,7.0,3.0,1.0,3.0,3.0,482.5238459998218,4.0,1.0,phase_1,,,,,,,,,,,,,green,square
1283.0,4.0,4.0,0.0,4.0,4.0,482.9078470002059,4.0,1.0,phase_1,,,,,,,,,,,,,yellow,I
1309.0,8.0,4.0,1.0,2.0,2.0,454.8759670005893,4.0,1.0,phase_1,,,,,,,,,,,,,magenta,flipped triangle
167.0,5.0,1.0,1.0,2.0,2.0,540.4380760001004,4.0,1.0,phase_1,,,,,,,,,,,,,cyan,diamond
675.0,3.0,3.0,0.0,4.0,4.0,353.3015709999745,4.0,1.0,phase_1,,,,,,,,,,,,,white,hexagon
154.0,5.0,1.0,1.0,2.0,2.0,455.9296449997418,4.0,1.0,phase_1,,,,,,,,,,,,,cyan,diamond
337.0,6.0,2.0,1.0,4.0,4.0,400.7200530004411,4.0,1.0,phase_1,,,,,,,,,,,,,orange,circle
1290.0,8.0,4.0,1.0,3.0,3.0,446.838261999801,4.0,1.0,phase_1,,,,,,,,,,,,,magenta,flipped triangle
160.0,1.0,1.0,0.0,1.0,1.0,408.6672749999707,4.0,1.0,phase_1,,,,,,,,,,,,,gray,triangle
341.0,2.0,2.0,0.0,2.0,2.0,398.8601070004733,4.0,1.0,phase_1,,,,,,,,,,,,,blue,cross
0.0,2.0,0.0,0.0,1.0,1.0,371.944165000059,4.0,1.0,phase_1,,,,,,,,,,,,,blue,cross
1304.0,8.0,4.0,1.0,3.0,3.0,482.8705340005399,4.0,1.0,phase_1,,,,,,,,,,,,,magenta,flipped triangle
329.0,2.0,2.0,0.0,4.0,4.0,380.4359420000764,4.0,1.0,phase_1,,,,,,,,,,,,,blue,cross
0.0,3.0,0.0,0.0,4.0,4.0,408.7351529997249,4.0,1.0,phase_1,,,,,,,,,,,,,white,hexagon
347.0,6.0,2.0,1.0,2.0,2.0,566.1150519999865,4.0,1.0,phase_1,,,,,,,,,,,,,orange,circle
0.0,7.0,0.0,1.0,3.0,3.0,389.34798799982667,4.0,1.0,phase_1,,,,,,,,,,,,,green,square
1283.0,4.0,4.0,0.0,3.0,3.0,426.6489609999553,4.0,1.0,phase_1,,,,,,,,,,,,,yellow,I
332.0,2.0,2.0,0.0,3.0,3.0,390.6408749999173,4.0,1.0,phase_1,,,,,,,,,,,,,blue,cross
640.0,3.0,3.0,0.0,2.0,2.0,520.203439999932,4.0,1.0,phase_1,,,,,,,,,,,,,white,hexagon
1323.0,4.0,4.0,0.0,1.0,1.0,408.1140680000317,4.0,1.0,phase_1,,,,,,,,,,,,,yellow,I
154.0,1.0,1.0,0.0,4.0,4.0,473.3721039992815,4.0,1.0,phase_1,,,,,,,,,,,,,gray,triangle
0.0,7.0,3.0,1.0,6.0,6.0,621.6765720000694,1.0,1.0,phase_2,stop,250.0,250.0,3.0,,,,,,,,,green,square
0.0,7.0,3.0,1.0,6.0,0.0,0.0,1.0,1.0,phase_2,stop,250.0,200.0,4.0,,,,,,,,,green,square
0.0,4.0,4.0,0.0,5.0,5.0,486.3834810003027,1.0,1.0,phase_2,go,250.0,250.0,1.0,,,,,,,,,yellow,I
0.0,3.0,3.0,0.0,5.0,5.0,682.6029180001569,1.0,1.0,phase_2,go,250.0,250.0,1.0,,,,,,,,,white,hexagon
0.0,7.0,3.0,1.0,6.0,0.0,0.0,1.0,1.0,phase_2,stop,250.0,250.0,4.0,,,,,,,,,green,square
0.0,2.0,2.0,0.0,5.0,5.0,617.5054840005032,1.0,1.0,phase_2,go,250.0,300.0,1.0,,,,,,,,,blue,cross
0.0,4.0,4.0,0.0,6.0,6.0,543.3235000000423,1.0,1.0,phase_2,go,250.0,300.0,1.0,,,,,,,,,yellow,I
0.0,2.0,2.0,0.0,6.0,6.0,525.9410489998118,1.0,1.0,phase_2,go,250.0,300.0,1.0,,,,,,,,,blue,cross
0.0,8.0,4.0,1.0,5.0,0.0,0.0,1.0,1.0,phase_2,stop,250.0,300.0,4.0,,,,,,,,,magenta,flipped triangle
0.0,3.0,3.0,0.0,5.0,5.0,740.6827610002438,1.0,1.0,phase_2,go,300.0,300.0,1.0,,,,,,,,,white,hexagon
0.0,3.0,3.0,0.0,6.0,6.0,580.8055379993675,1.0,1.0,phase_2,go,300.0,300.0,1.0,,,,,,,,,white,hexagon
0.0,5.0,1.0,1.0,6.0,6.0,561.1734320000323,1.0,1.0,phase_2,go,300.0,300.0,1.0,,,,,,,,,cyan,diamond
0.0,1.0,1.0,0.0,6.0,6.0,453.5130629992636,1.0,1.0,phase_2,go,300.0,300.0,1.0,,,,,,,,,gray,triangle
0.0,7.0,3.0,1.0,5.0,5.0,365.0654240000222,1.0,1.0,phase_2,stop,300.0,300.0,3.0,,,,,,,,,green,square
0.0,6.0,2.0,1.0,5.0,0.0,0.0,1.0,1.0,phase_2,stop,250.0,300.0,4.0,,,,,,,,,orange,circle
0.0,8.0,4.0,1.0,6.0,0.0,0.0,1.0,1.0,phase_2,stop,300.0,300.0,4.0,,,,,,,,,magenta,flipped triangle
0.0,2.0,2.0,0.0,5.0,5.0,551.8479330003174,1.0,1.0,phase_2,go,300.0,350.0,1.0,,,,,,,,,blue,cross
0.0,2.0,2.0,0.0,5.0,5.0,485.632261000319,1.0,1.0,phase_2,go,300.0,350.0,1.0,,,,,,,,,blue,cross
0.0,2.0,2.0,0.0,6.0,6.0,702.4831490007273,1.0,1.0,phase_2,go,300.0,350.0,1.0,,,,,,,,,blue,cross
0.0,4.0,4.0,0.0,5.0,5.0,662.5648890003504,1.0,1.0,phase_2,go,300.0,350.0,1.0,,,,,,,,,yellow,I
0.0,1.0,1.0,0.0,5.0,5.0,545.5696620001618,1.0,1.0,phase_2,go,300.0,350.0,1.0,,,,,,,,,gray,triangle
0.0,3.0,3.0,0.0,5.0,5.0,636.5756279992638,1.0,1.0,phase_2,go,300.0,350.0,1.0,,,,,,,,,white,hexagon
0.0,7.0,3.0,1.0,6.0,0.0,0.0,1.0,1.0,phase_2,stop,300.0,350.0,4.0,,,,,,,,,green,square
0.0,2.0,2.0,0.0,6.0,6.0,777.0216810004058,1.0,1.0,phase_2,go,300.0,400.0,1.0,,,,,,,,,blue,cross
0.0,1.0,1.0,0.0,6.0,6.0,515.3372129998388,1.0,1.0,phase_2,go,300.0,400.0,1.0,,,,,,,,,gray,triangle
0.0,7.0,3.0,1.0,5.0,0.0,0.0,1.0,1.0,phase_2,stop,300.0,400.0,4.0,,,,,,,,,green,square
0.0,1.0,1.0,0.0,6.0,6.0,645.8855349992518,1.0,1.0,phase_2,go,350.0,400.0,1.0,,,,,,,,,gray,triangle
0.0,7.0,3.0,1.0,6.0,6.0,496.2388690000807,1.0,1.0,phase_2,stop,350.0,400.0,3.0,,,,,,,,,green,square
0.0,8.0,4.0,1.0,6.0,0.0,0.0,1.0,1.0,phase_2,stop,350.0,350.0,4.0,,,,,,,,,magenta,flipped triangle
0.0,2.0,2.0,0.0,6.0,6.0,702.549428000566,1.0,1.0,phase_2,go,350.0,400.0,1.0,,,,,,,,,blue,cross
0.0,1.0,1.0,0.0,6.0,6.0,785.2366220004114,1.0,1.0,phase_2,go,350.0,400.0,1.0,,,,,,,,,gray,triangle
0.0,2.0,2.0,0.0,6.0,6.0,888.3345450003617,1.0,1.0,phase_2,go,350.0,400.0,1.0,,,,,,,,,blue,cross
0.0,4.0,4.0,0.0,6.0,6.0,747.072191999905,1.0,1.0,phase_2,go,350.0,400.0,1.0,,,,,,,,,yellow,I
0.0,1.0,1.0,0.0,6.0,6.0,648.5591009995915,1.0,1.0,phase_2,go,350.0,400.0,1.0,,,,,,,,,gray,triangle
0.0,8.0,4.0,1.0,6.0,0.0,0.0,1.0,1.0,phase_2,stop,350.0,400.0,4.0,,,,,,,,,magenta,flipped triangle
0.0,6.0,2.0,1.0,5.0,5.0,785.5492349999622,1.0,1.0,phase_2,go,350.0,450.0,1.0,,,,,,,,,orange,circle
0.0,4.0,4.0,0.0,6.0,6.0,899.9611169992932,2.0,1.0,phase_2,go,350.0,450.0,1.0,,,,,,,,,yellow,I
0.0,1.0,1.0,0.0,5.0,5.0,430.9248290001051,2.0,1.0,phase_2,go,350.0,450.0,1.0,,,,,,,,,gray,triangle
0.0,4.0,4.0,0.0,6.0,6.0,552.6626870005202,2.0,1.0,phase_2,go,350.0,450.0,1.0,,,,,,,,,yellow,I
0.0,6.0,2.0,1.0,6.0,0.0,0.0,2.0,1.0,phase_2,stop,350.0,450.0,4.0,,,,,,,,,orange,circle
0.0,7.0,3.0,1.0,5.0,0.0,0.0,2.0,1.0,phase_2,stop,350.0,500.0,4.0,,,,,,,,,green,square
0.0,7.0,3.0,1.0,6.0,0.0,0.0,2.0,1.0,phase_2,stop,400.0,500.0,4.0,,,,,,,,,green,square
0.0,7.0,3.0,1.0,6.0,6.0,739.3930860007458,2.0,1.0,phase_2,go,400.0,550.0,1.0,,,,,,,,,green,square
0.0,8.0,4.0,1.0,5.0,0.0,0.0,2.0,1.0,phase_2,stop,400.0,550.0,4.0,,,,,,,,,magenta,flipped triangle
0.0,4.0,4.0,0.0,6.0,6.0,694.8815089999698,2.0,1.0,phase_2,go,450.0,550.0,1.0,,,,,,,,,yellow,I
0.0,5.0,1.0,1.0,5.0,5.0,684.3264039998758,2.0,1.0,phase_2,go,450.0,550.0,1.0,,,,,,,,,cyan,diamond
0.0,7.0,3.0,1.0,5.0,5.0,336.7600670007959,2.0,1.0,phase_2,stop,450.0,550.0,3.0,,,,,,,,,green,square
0.0,1.0,1.0,0.0,5.0,5.0,589.5034709992615,2.0,1.0,phase_2,go,400.0,550.0,1.0,,,,,,,,,gray,triangle
0.0,2.0,2.0,0.0,6.0,6.0,674.0902040000947,2.0,1.0,phase_2,go,400.0,550.0,1.0,,,,,,,,,blue,cross
0.0,5.0,1.0,1.0,6.0,6.0,496.9865980001486,2.0,1.0,phase_2,stop,400.0,550.0,3.0,,,,,,,,,cyan,diamond
0.0,8.0,4.0,1.0,6.0,0.0,0.0,2.0,1.0,phase_2,stop,400.0,500.0,4.0,,,,,,,,,magenta,flipped triangle
0.0,4.0,4.0,0.0,6.0,6.0,824.1353599996728,2.0,1.0,phase_2,go,400.0,550.0,1.0,,,,,,,,,yellow,I
0.0,4.0,4.0,0.0,6.0,6.0,788.4134719997746,2.0,1.0,phase_2,go,400.0,550.0,1.0,,,,,,,,,yellow,I
0.0,6.0,2.0,1.0,5.0,5.0,710.8637119999912,2.0,1.0,phase_2,go,400.0,550.0,1.0,,,,,,,,,orange,circle
0.0,5.0,1.0,1.0,6.0,0.0,0.0,2.0,1.0,phase_2,stop,400.0,550.0,4.0,,,,,,,,,cyan,diamond
0.0,1.0,1.0,0.0,6.0,6.0,857.7548109997224,2.0,1.0,phase_2,go,400.0,600.0,1.0,,,,,,,,,gray,triangle
0.0,2.0,2.0,0.0,5.0,5.0,749.6241709995957,2.0,1.0,phase_2,go,400.0,600.0,1.0,,,,,,,,,blue,cross
0.0,6.0,2.0,1.0,6.0,0.0,0.0,2.0,1.0,phase_2,stop,400.0,600.0,4.0,,,,,,,,,orange,circle
0.0,1.0,1.0,0.0,5.0,5.0,840.3674029996182,2.0,1.0,phase_2,go,400.0,650.0,1.0,,,,,,,,,gray,triangle
0.0,3.0,3.0,0.0,5.0,5.0,861.2075029996049,2.0,1.0,phase_2,go,400.0,650.0,1.0,,,,,,,,,white,hexagon
0.0,8.0,4.0,1.0,5.0,0.0,0.0,2.0,1.0,phase_2,stop,400.0,650.0,4.0,,,,,,,,,magenta,flipped triangle
0.0,3.0,3.0,0.0,6.0,6.0,849.0527550002298,2.0,1.0,phase_2,go,450.0,650.0,1.0,,,,,,,,,white,hexagon
0.0,3.0,3.0,0.0,5.0,5.0,841.1462459998802,2.0,1.0,phase_2,go,450.0,650.0,1.0,,,,,,,,,white,hexagon
0.0,1.0,1.0,0.0,6.0,6.0,937.1752390006804,2.0,1.0,phase_2,go,450.0,650.0,1.0,,,,,,,,,gray,triangle
0.0,8.0,4.0,1.0,6.0,6.0,823.6038929999268,2.0,1.0,phase_2,go,450.0,650.0,1.0,,,,,,,,,magenta,flipped triangle
0.0,4.0,4.0,0.0,6.0,6.0,722.9162580006232,2.0,1.0,phase_2,go,450.0,650.0,1.0,,,,,,,,,yellow,I
0.0,5.0,1.0,1.0,6.0,6.0,589.9853000000803,2.0,1.0,phase_2,stop,450.0,650.0,3.0,,,,,,,,,cyan,diamond
0.0,1.0,1.0,0.0,5.0,5.0,665.7957830002488,2.0,1.0,phase_2,go,450.0,600.0,1.0,,,,,,,,,gray,triangle
0.0,1.0,1.0,0.0,6.0,6.0,712.73170799941,2.0,1.0,phase_2,go,450.0,600.0,1.0,,,,,,,,,gray,triangle
0.0,8.0,4.0,1.0,6.0,6.0,749.5908330001839,2.0,1.0,phase_2,stop,450.0,600.0,3.0,,,,,,,,,magenta,flipped triangle
0.0,6.0,2.0,1.0,5.0,5.0,487.7998760002811,2.0,1.0,phase_2,go,450.0,550.0,1.0,,,,,,,,,orange,circle
0.0,5.0,1.0,1.0,6.0,6.0,604.0293160003785,2.0,1.0,phase_2,stop,450.0,550.0,3.0,,,,,,,,,cyan,diamond
0.0,6.0,2.0,1.0,5.0,5.0,666.8731859999752,3.0,1.0,phase_2,go,450.0,500.0,1.0,,,,,,,,,orange,circle
0.0,2.0,2.0,0.0,6.0,6.0,657.464548000462,3.0,1.0,phase_2,go,450.0,500.0,1.0,,,,,,,,,blue,cross
0.0,7.0,3.0,1.0,5.0,5.0,440.3851749993919,3.0,1.0,phase_2,stop,450.0,500.0,3.0,,,,,,,,,green,square
0.0,6.0,2.0,1.0,5.0,5.0,505.104713000037,3.0,1.0,phase_2,go,400.0,500.0,1.0,,,,,,,,,orange,circle
0.0,7.0,3.0,1.0,6.0,6.0,628.8926449997234,3.0,1.0,phase_2,go,400.0,500.0,1.0,,,,,,,,,green,square
0.0,6.0,2.0,1.0,5.0,5.0,443.2289090000267,3.0,1.0,phase_2,stop,400.0,500.0,3.0,,,,,,,,,orange,circle
0.0,7.0,3.0,1.0,5.0,5.0,497.0824490001178,3.0,1.0,phase_2,go,350.0,500.0,1.0,,,,,,,,,green,square
0.0,4.0,4.0,0.0,5.0,5.0,562.8659590001917,3.0,1.0,phase_2,go,350.0,500.0,1.0,,,,,,,,,yellow,I
0.0,8.0,4.0,1.0,6.0,6.0,498.0310060000192,3.0,1.0,phase_2,stop,350.0,500.0,3.0,,,,,,,,,magenta,flipped triangle
0.0,5.0,1.0,1.0,5.0,5.0,272.3667809996186,3.0,1.0,phase_2,go,350.0,450.0,1.0,,,,,,,,,cyan,diamond
0.0,6.0,2.0,1.0,5.0,5.0,558.0498819999775,3.0,1.0,phase_2,stop,350.0,450.0,3.0,,,,,,,,,orange,circle
0.0,5.0,1.0,1.0,5.0,0.0,0.0,3.0,1.0,phase_2,stop,300.0,450.0,4.0,,,,,,,,,cyan,diamond
0.0,4.0,4.0,0.0,6.0,6.0,375.2364990004935,3.0,1.0,phase_2,go,350.0,450.0,1.0,,,,,,,,,yellow,I
0.0,3.0,3.0,0.0,6.0,6.0,695.8461589993021,3.0,1.0,phase_2,go,350.0,450.0,1.0,,,,,,,,,white,hexagon
0.0,5.0,1.0,1.0,5.0,0.0,0.0,3.0,1.0,phase_2,stop,350.0,450.0,4.0,,,,,,,,,cyan,diamond
0.0,4.0,4.0,0.0,5.0,5.0,695.2629569996134,3.0,1.0,phase_2,go,400.0,450.0,1.0,,,,,,,,,yellow,I
0.0,2.0,2.0,0.0,6.0,6.0,639.0615119998984,3.0,1.0,phase_2,go,400.0,450.0,1.0,,,,,,,,,blue,cross
0.0,2.0,2.0,0.0,6.0,6.0,609.8111140008768,3.0,1.0,phase_2,go,400.0,450.0,1.0,,,,,,,,,blue,cross
0.0,8.0,4.0,1.0,6.0,6.0,798.8121529997443,3.0,1.0,phase_2,go,400.0,450.0,1.0,,,,,,,,,magenta,flipped triangle
0.0,5.0,1.0,1.0,6.0,6.0,549.5188139993843,3.0,1.0,phase_2,stop,400.0,450.0,3.0,,,,,,,,,cyan,diamond
0.0,5.0,1.0,1.0,5.0,0.0,0.0,3.0,1.0,phase_2,stop,400.0,400.0,4.0,,,,,,,,,cyan,diamond
0.0,3.0,3.0,0.0,6.0,6.0,800.5206580000959,3.0,1.0,phase_2,go,450.0,400.0,1.0,,,,,,,,,white,hexagon
0.0,5.0,1.0,1.0,6.0,0.0,0.0,3.0,1.0,phase_2,stop,450.0,400.0,4.0,,,,,,,,,cyan,diamond
0.0,8.0,4.0,1.0,5.0,5.0,789.3338750000112,3.0,1.0,phase_2,go,450.0,450.0,1.0,,,,,,,,,magenta,flipped triangle
0.0,8.0,4.0,1.0,5.0,0.0,0.0,3.0,1.0,phase_2,stop,450.0,450.0,4.0,,,,,,,,,magenta,flipped triangle
0.0,4.0,4.0,0.0,5.0,5.0,526.412636000714,3.0,1.0,phase_2,go,500.0,450.0,1.0,,,,,,,,,yellow,I
0.0,8.0,4.0,1.0,5.0,5.0,507.96288499986986,3.0,1.0,phase_2,go,500.0,450.0,1.0,,,,,,,,,magenta,flipped triangle
0.0,6.0,2.0,1.0,5.0,5.0,603.0913000004148,3.0,1.0,phase_2,stop,500.0,450.0,3.0,,,,,,,,,orange,circle
0.0,8.0,4.0,1.0,6.0,6.0,726.0909469996477,3.0,1.0,phase_2,go,450.0,450.0,1.0,,,,,,,,,magenta,flipped triangle
0.0,8.0,4.0,1.0,5.0,5.0,674.4480300003488,3.0,1.0,phase_2,go,450.0,450.0,1.0,,,,,,,,,magenta,flipped triangle
0.0,5.0,1.0,1.0,6.0,0.0,0.0,3.0,1.0,phase_2,stop,450.0,450.0,4.0,,,,,,,,,cyan,diamond
0.0,7.0,3.0,1.0,6.0,6.0,693.702401000337,3.0,1.0,phase_2,stop,450.0,500.0,3.0,,,,,,,,,green,square
0.0,2.0,2.0,0.0,5.0,5.0,580.9474540001247,3.0,1.0,phase_2,go,450.0,450.0,1.0,,,,,,,,,blue,cross
0.0,7.0,3.0,1.0,5.0,0.0,0.0,3.0,1.0,phase_2,stop,450.0,450.0,4.0,,,,,,,,,green,square
0.0,3.0,3.0,0.0,6.0,6.0,658.7806820007245,3.0,1.0,phase_2,go,500.0,450.0,1.0,,,,,,,,,white,hexagon
0.0,6.0,2.0,1.0,5.0,0.0,0.0,3.0,1.0,phase_2,stop,500.0,450.0,4.0,,,,,,,,,orange,circle
0.0,7.0,3.0,1.0,6.0,6.0,599.9996890004695,4.0,1.0,phase_2,go,550.0,450.0,1.0,,,,,,,,,green,square
0.0,1.0,1.0,0.0,6.0,6.0,531.2500950003596,4.0,1.0,phase_2,go,550.0,450.0,1.0,,,,,,,,,gray,triangle
0.0,2.0,2.0,0.0,5.0,5.0,712.7486829995178,4.0,1.0,phase_2,go,550.0,450.0,1.0,,,,,,,,,blue,cross
0.0,2.0,2.0,0.0,5.0,5.0,365.6693820003056,4.0,1.0,phase_2,go,550.0,450.0,1.0,,,,,,,,,blue,cross
0.0,1.0,1.0,0.0,6.0,6.0,383.5250829997676,4.0,1.0,phase_2,go,550.0,450.0,1.0,,,,,,,,,gray,triangle
0.0,7.0,3.0,1.0,5.0,5.0,281.5100320003694,4.0,1.0,phase_2,stop,550.0,450.0,3.0,,,,,,,,,green,square
0.0,3.0,3.0,0.0,5.0,5.0,608.949837000182,4.0,1.0,phase_2,go,500.0,450.0,1.0,,,,,,,,,white,hexagon
0.0,1.0,1.0,0.0,5.0,5.0,431.6972560000067,4.0,1.0,phase_2,go,500.0,450.0,1.0,,,,,,,,,gray,triangle
0.0,1.0,1.0,0.0,6.0,6.0,581.1405740005284,4.0,1.0,phase_2,go,500.0,450.0,1.0,,,,,,,,,gray,triangle
0.0,7.0,3.0,1.0,6.0,0.0,0.0,4.0,1.0,phase_2,stop,500.0,450.0,4.0,,,,,,,,,green,square
0.0,5.0,1.0,1.0,6.0,0.0,0.0,4.0,1.0,phase_2,stop,500.0,500.0,4.0,,,,,,,,,cyan,diamond
0.0,8.0,4.0,1.0,5.0,5.0,669.750144000318,4.0,1.0,phase_2,stop,500.0,550.0,3.0,,,,,,,,,magenta,flipped triangle
0.0,3.0,3.0,0.0,5.0,5.0,674.893905999852,4.0,1.0,phase_2,go,450.0,550.0,1.0,,,,,,,,,white,hexagon
0.0,6.0,2.0,1.0,5.0,5.0,597.1569419998559,4.0,1.0,phase_2,stop,450.0,550.0,3.0,,,,,,,,,orange,circle
0.0,6.0,2.0,1.0,6.0,6.0,721.0846530006165,4.0,1.0,phase_2,go,400.0,550.0,1.0,,,,,,,,,orange,circle
0.0,1.0,1.0,0.0,5.0,5.0,488.6123010001029,4.0,1.0,phase_2,go,400.0,550.0,1.0,,,,,,,,,gray,triangle
0.0,5.0,1.0,1.0,5.0,0.0,0.0,4.0,1.0,phase_2,stop,400.0,550.0,4.0,,,,,,,,,cyan,diamond
0.0,6.0,2.0,1.0,6.0,0.0,0.0,4.0,1.0,phase_2,stop,450.0,550.0,4.0,,,,,,,,,orange,circle
0.0,5.0,1.0,1.0,5.0,5.0,666.6886490002071,4.0,1.0,phase_2,go,450.0,600.0,1.0,,,,,,,,,cyan,diamond
0.0,3.0,3.0,0.0,5.0,5.0,609.01708900019,4.0,1.0,phase_2,go,450.0,600.0,1.0,,,,,,,,,white,hexagon
0.0,1.0,1.0,0.0,6.0,6.0,608.4107660008158,4.0,1.0,phase_2,go,450.0,600.0,1.0,,,,,,,,,gray,triangle
0.0,6.0,2.0,1.0,6.0,6.0,383.4505579998222,4.0,1.0,phase_2,stop,450.0,600.0,3.0,,,,,,,,,orange,circle
0.0,3.0,3.0,0.0,6.0,6.0,461.0828020004192,4.0,1.0,phase_2,go,450.0,550.0,1.0,,,,,,,,,white,hexagon
0.0,8.0,4.0,1.0,6.0,6.0,448.7554759998602,4.0,1.0,phase_2,stop,450.0,550.0,3.0,,,,,,,,,magenta,flipped triangle
0.0,1.0,1.0,0.0,6.0,6.0,692.5529469999674,4.0,1.0,phase_2,go,450.0,500.0,1.0,,,,,,,,,gray,triangle
0.0,6.0,2.0,1.0,5.0,5.0,657.1663400000034,4.0,1.0,phase_2,stop,450.0,500.0,3.0,,,,,,,,,orange,circle
0.0,4.0,4.0,0.0,5.0,5.0,609.9642580002183,4.0,1.0,phase_2,go,400.0,500.0,1.0,,,,,,,,,yellow,I
0.0,1.0,1.0,0.0,5.0,5.0,626.5237440002238,4.0,1.0,phase_2,go,400.0,500.0,1.0,,,,,,,,,gray,triangle
0.0,2.0,2.0,0.0,6.0,6.0,729.629744999329,4.0,1.0,phase_2,go,400.0,500.0,1.0,,,,,,,,,blue,cross
0.0,4.0,4.0,0.0,5.0,5.0,580.6391149999399,4.0,1.0,phase_2,go,400.0,500.0,1.0,,,,,,,,,yellow,I
0.0,6.0,2.0,1.0,6.0,6.0,672.2467210001923,4.0,1.0,phase_2,stop,400.0,500.0,3.0,,,,,,,,,orange,circle
0.0,4.0,4.0,0.0,6.0,6.0,870.3517050007576,4.0,1.0,phase_2,go,400.0,450.0,1.0,,,,,,,,,yellow,I
0.0,5.0,1.0,1.0,6.0,0.0,0.0,4.0,1.0,phase_2,stop,400.0,450.0,4.0,,,,,,,,,cyan,diamond
0.0,8.0,4.0,1.0,5.0,0.0,0.0,4.0,1.0,phase_2,stop,400.0,500.0,4.0,,,,,,,,,magenta,flipped triangle
0.0,4.0,4.0,0.0,5.0,5.0,785.8575519994702,4.0,1.0,phase_2,go,450.0,500.0,1.0,,,,,,,,,yellow,I
0.0,4.0,4.0,0.0,5.0,5.0,786.1573030004365,4.0,1.0,phase_2,go,450.0,500.0,1.0,,,,,,,,,yellow,I
0.0,5.0,1.0,1.0,5.0,5.0,413.2956719995491,5.0,1.0,phase_2,stop,450.0,500.0,3.0,,,,,,,,,cyan,diamond
0.0,8.0,4.0,1.0,6.0,6.0,542.0861770007832,5.0,1.0,phase_2,stop,400.0,500.0,3.0,,,,,,,,,magenta,flipped triangle
0.0,3.0,3.0,0.0,5.0,5.0,720.3208049995737,5.0,1.0,phase_2,go,400.0,450.0,1.0,,,,,,,,,white,hexagon
0.0,7.0,3.0,1.0,5.0,0.0,0.0,5.0,1.0,phase_2,stop,400.0,450.0,4.0,,,,,,,,,green,square
0.0,4.0,4.0,0.0,6.0,6.0,767.5476009999329,5.0,1.0,phase_2,go,450.0,450.0,1.0,,,,,,,,,yellow,I
0.0,3.0,3.0,0.0,5.0,5.0,740.6363969994345,5.0,1.0,phase_2,go,450.0,450.0,1.0,,,,,,,,,white,hexagon
0.0,3.0,3.0,0.0,6.0,6.0,1005.2791980006075,5.0,1.0,phase_2,go,450.0,450.0,1.0,,,,,,,,,white,hexagon
0.0,7.0,3.0,1.0,6.0,6.0,794.7443220000423,5.0,1.0,phase_2,go,450.0,450.0,1.0,,,,,,,,,green,square
0.0,1.0,1.0,0.0,6.0,6.0,704.2666019997341,5.0,1.0,phase_2,go,450.0,450.0,1.0,,,,,,,,,gray,triangle
0.0,5.0,1.0,1.0,5.0,5.0,638.0697869999494,5.0,1.0,phase_2,stop,450.0,450.0,3.0,,,,,,,,,cyan,diamond
0.0,4.0,4.0,0.0,5.0,5.0,702.7256439996563,5.0,1.0,phase_2,go,400.0,450.0,1.0,,,,,,,,,yellow,I
0.0,3.0,3.0,0.0,6.0,6.0,858.9774379997834,5.0,1.0,phase_2,go,400.0,450.0,1.0,,,,,,,,,white,hexagon
0.0,4.0,4.0,0.0,6.0,6.0,794.5351749995098,5.0,1.0,phase_2,go,400.0,450.0,1.0,,,,,,,,,yellow,I
0.0,2.0,2.0,0.0,6.0,6.0,654.6073669996986,5.0,1.0,phase_2,go,400.0,450.0,1.0,,,,,,,,,blue,cross
0.0,6.0,2.0,1.0,6.0,0.0,0.0,5.0,1.0,phase_2,stop,400.0,450.0,4.0,,,,,,,,,orange,circle
0.0,2.0,2.0,0.0,6.0,6.0,993.9690840001276,5.0,1.0,phase_2,go,400.0,500.0,1.0,,,,,,,,,blue,cross
0.0,3.0,3.0,0.0,6.0,6.0,728.8940620001085,5.0,1.0,phase_2,go,400.0,500.0,1.0,,,,,,,,,white,hexagon
0.0,3.0,3.0,0.0,6.0,6.0,712.3652909995144,5.0,1.0,phase_2,go,400.0,500.0,1.0,,,,,,,,,white,hexagon
0.0,1.0,1.0,0.0,5.0,5.0,783.5360029994263,5.0,1.0,phase_2,go,400.0,500.0,1.0,,,,,,,,,gray,triangle
0.0,7.0,3.0,1.0,6.0,6.0,701.2880550000773,5.0,1.0,phase_2,go,400.0,500.0,1.0,,,,,,,,,green,square
0.0,5.0,1.0,1.0,6.0,0.0,0.0,5.0,1.0,phase_2,stop,400.0,500.0,4.0,,,,,,,,,cyan,diamond
0.0,8.0,4.0,1.0,6.0,0.0,0.0,5.0,1.0,phase_2,stop,400.0,550.0,4.0,,,,,,,,,magenta,flipped triangle
0.0,4.0,4.0,0.0,5.0,5.0,832.7355479996186,5.0,1.0,phase_2,go,400.0,600.0,1.0,,,,,,,,,yellow,I
0.0,4.0,4.0,0.0,5.0,5.0,824.5205510002052,5.0,1.0,phase_2,go,400.0,600.0,1.0,,,,,,,,,yellow,I
0.0,3.0,3.0,0.0,5.0,5.0,504.8396220008726,5.0,1.0,phase_2,go,400.0,600.0,1.0,,,,,,,,,white,hexagon
0.0,8.0,4.0,1.0,5.0,0.0,0.0,5.0,1.0,phase_2,stop,400.0,600.0,4.0,,,,,,,,,magenta,flipped triangle
0.0,6.0,2.0,1.0,6.0,0.0,0.0,5.0,1.0,phase_2,stop,450.0,600.0,4.0,,,,,,,,,orange,circle
0.0,7.0,3.0,1.0,5.0,0.0,0.0,5.0,1.0,phase_2,stop,450.0,650.0,4.0,,,,,,,,,green,square
0.0,4.0,4.0,0.0,6.0,6.0,803.4722470001725,5.0,1.0,phase_2,go,500.0,650.0,1.0,,,,,,,,,yellow,I
0.0,2.0,2.0,0.0,5.0,5.0,738.0905330001042,5.0,1.0,phase_2,go,500.0,650.0,1.0,,,,,,,,,blue,cross
0.0,5.0,1.0,1.0,6.0,6.0,716.7700400004833,5.0,1.0,phase_2,stop,500.0,650.0,3.0,,,,,,,,,cyan,diamond
0.0,3.0,3.0,0.0,6.0,6.0,878.6047180001333,5.0,1.0,phase_2,go,500.0,600.0,1.0,,,,,,,,,white,hexagon
0.0,4.0,4.0,0.0,5.0,5.0,702.1981279995089,5.0,1.0,phase_2,go,500.0,600.0,1.0,,,,,,,,,yellow,I
0.0,3.0,3.0,0.0,5.0,5.0,918.1223420000606,5.0,1.0,phase_2,go,500.0,600.0,1.0,,,,,,,,,white,hexagon
0.0,8.0,4.0,1.0,5.0,0.0,0.0,5.0,1.0,phase_2,stop,500.0,600.0,4.0,,,,,,,,,magenta,flipped triangle
0.0,8.0,4.0,1.0,6.0,6.0,776.2177049999082,5.0,1.0,phase_2,stop,550.0,600.0,3.0,,,,,,,,,magenta,flipped triangle
0.0,5.0,1.0,1.0,5.0,5.0,741.1484229996859,6.0,1.0,phase_2,go,550.0,550.0,1.0,,,,,,,,,cyan,diamond
0.0,7.0,3.0,1.0,6.0,6.0,712.9113869996218,6.0,1.0,phase_2,stop,550.0,550.0,3.0,,,,,,,,,green,square
0.0,7.0,3.0,1.0,5.0,5.0,675.1328809996267,6.0,1.0,phase_2,go,550.0,500.0,1.0,,,,,,,,,green,square
0.0,2.0,2.0,0.0,6.0,6.0,647.6928680003766,6.0,1.0,phase_2,go,550.0,500.0,1.0,,,,,,,,,blue,cross
0.0,2.0,2.0,0.0,5.0,5.0,649.4813680001243,6.0,1.0,phase_2,go,550.0,500.0,1.0,,,,,,,,,blue,cross
0.0,3.0,3.0,0.0,5.0,5.0,647.03974799977,6.0,1.0,phase_2,go,550.0,500.0,1.0,,,,,,,,,white,hexagon
0.0,5.0,1.0,1.0,5.0,5.0,349.7546930002499,6.0,1.0,phase_2,go,550.0,500.0,1.0,,,,,,,,,cyan,diamond
0.0,3.0,3.0,0.0,6.0,6.0,376.4363719992616,6.0,1.0,phase_2,go,550.0,500.0,1.0,,,,,,,,,white,hexagon
0.0,1.0,1.0,0.0,5.0,5.0,300.0992610004687,6.0,1.0,phase_2,go,550.0,500.0,1.0,,,,,,,,,gray,triangle
0.0,8.0,4.0,1.0,6.0,6.0,376.1703440004567,6.0,1.0,phase_2,stop,550.0,500.0,3.0,,,,,,,,,magenta,flipped triangle
0.0,4.0,4.0,0.0,6.0,6.0,637.154613000348,6.0,1.0,phase_2,go,550.0,450.0,1.0,,,,,,,,,yellow,I
0.0,7.0,3.0,1.0,5.0,5.0,584.8973290003414,6.0,1.0,phase_2,stop,550.0,450.0,3.0,,,,,,,,,green,square
0.0,2.0,2.0,0.0,5.0,5.0,590.810779000094,6.0,1.0,phase_2,go,500.0,450.0,1.0,,,,,,,,,blue,cross
0.0,8.0,4.0,1.0,6.0,0.0,0.0,6.0,1.0,phase_2,stop,500.0,450.0,4.0,,,,,,,,,magenta,flipped triangle
0.0,5.0,1.0,1.0,6.0,0.0,0.0,6.0,1.0,phase_2,stop,500.0,500.0,4.0,,,,,,,,,cyan,diamond
0.0,2.0,2.0,0.0,5.0,5.0,743.0677959991954,6.0,1.0,phase_2,go,500.0,550.0,1.0,,,,,,,,,blue,cross
0.0,5.0,1.0,1.0,5.0,5.0,714.4218510002247,6.0,1.0,phase_2,stop,500.0,550.0,3.0,,,,,,,,,cyan,diamond
0.0,3.0,3.0,0.0,5.0,5.0,655.2768109995668,6.0,1.0,phase_2,go,450.0,550.0,1.0,,,,,,,,,white,hexagon
0.0,4.0,4.0,0.0,6.0,6.0,695.5298190005124,6.0,1.0,phase_2,go,450.0,550.0,1.0,,,,,,,,,yellow,I
0.0,1.0,1.0,0.0,6.0,6.0,655.0084840000636,6.0,1.0,phase_2,go,450.0,550.0,1.0,,,,,,,,,gray,triangle
0.0,8.0,4.0,1.0,6.0,6.0,531.2445819999994,6.0,1.0,phase_2,go,450.0,550.0,1.0,,,,,,,,,magenta,flipped triangle
0.0,6.0,2.0,1.0,5.0,5.0,581.7856100002246,6.0,1.0,phase_2,stop,450.0,550.0,3.0,,,,,,,,,orange,circle
0.0,3.0,3.0,0.0,6.0,6.0,816.6120059995592,6.0,1.0,phase_2,go,400.0,550.0,1.0,,,,,,,,,white,hexagon
0.0,6.0,2.0,1.0,6.0,0.0,0.0,6.0,1.0,phase_2,stop,400.0,550.0,4.0,,,,,,,,,orange,circle
0.0,6.0,2.0,1.0,6.0,0.0,0.0,6.0,1.0,phase_2,stop,400.0,600.0,4.0,,,,,,,,,orange,circle
0.0,8.0,4.0,1.0,5.0,0.0,0.0,6.0,1.0,phase_2,stop,400.0,650.0,4.0,,,,,,,,,magenta,flipped triangle
0.0,7.0,3.0,1.0,6.0,6.0,695.0870539994867,6.0,1.0,phase_2,go,450.0,650.0,1.0,,,,,,,,,green,square
0.0,8.0,4.0,1.0,6.0,0.0,0.0,6.0,1.0,phase_2,stop,450.0,650.0,4.0,,,,,,,,,magenta,flipped triangle
0.0,1.0,1.0,0.0,5.0,5.0,806.2398649999523,6.0,1.0,phase_2,go,450.0,700.0,1.0,,,,,,,,,gray,triangle
0.0,1.0,1.0,0.0,6.0,6.0,626.5269750001607,6.0,1.0,phase_2,go,450.0,700.0,1.0,,,,,,,,,gray,triangle
0.0,6.0,2.0,1.0,6.0,6.0,885.9323659999063,6.0,1.0,phase_2,stop,450.0,700.0,3.0,,,,,,,,,orange,circle
0.0,4.0,4.0,0.0,6.0,6.0,874.5252540002184,6.0,1.0,phase_2,go,450.0,650.0,1.0,,,,,,,,,yellow,I
0.0,5.0,1.0,1.0,5.0,0.0,0.0,6.0,1.0,phase_2,stop,450.0,650.0,4.0,,,,,,,,,cyan,diamond
0.0,3.0,3.0,0.0,6.0,6.0,740.9627200004252,6.0,1.0,phase_2,go,500.0,650.0,1.0,,,,,,,,,white,hexagon
0.0,6.0,2.0,1.0,6.0,6.0,647.638468999503,6.0,1.0,phase_2,stop,500.0,650.0,3.0,,,,,,,,,orange,circle
0.0,2.0,2.0,0.0,5.0,5.0,424.307981000311,6.0,1.0,phase_2,go,500.0,600.0,1.0,,,,,,,,,blue,cross
0.0,8.0,4.0,1.0,5.0,5.0,592.8060260002894,7.0,1.0,phase_2,stop,500.0,600.0,3.0,,,,,,,,,magenta,flipped triangle
0.0,7.0,3.0,1.0,5.0,5.0,619.1532870006995,7.0,1.0,phase_2,stop,450.0,600.0,3.0,,,,,,,,,green,square
0.0,4.0,4.0,0.0,5.0,5.0,470.735080999475,7.0,1.0,phase_2,go,400.0,600.0,1.0,,,,,,,,,yellow,I
0.0,8.0,4.0,1.0,5.0,5.0,749.9611789999108,7.0,1.0,phase_2,go,400.0,600.0,1.0,,,,,,,,,magenta,flipped triangle
0.0,2.0,2.0,0.0,5.0,5.0,674.963888000093,7.0,1.0,phase_2,go,400.0,600.0,1.0,,,,,,,,,blue,cross
0.0,4.0,4.0,0.0,5.0,5.0,458.1687529998817,7.0,1.0,phase_2,go,400.0,600.0,1.0,,,,,,,,,yellow,I
0.0,6.0,2.0,1.0,5.0,0.0,0.0,7.0,1.0,phase_2,stop,400.0,600.0,4.0,,,,,,,,,orange,circle
0.0,6.0,2.0,1.0,6.0,6.0,778.1624850003936,7.0,1.0,phase_2,go,450.0,600.0,1.0,,,,,,,,,orange,circle
0.0,7.0,3.0,1.0,5.0,0.0,0.0,7.0,1.0,phase_2,stop,450.0,600.0,4.0,,,,,,,,,green,square
0.0,5.0,1.0,1.0,6.0,6.0,937.7082819992212,7.0,1.0,phase_2,go,500.0,600.0,1.0,,,,,,,,,cyan,diamond
0.0,6.0,2.0,1.0,6.0,0.0,0.0,7.0,1.0,phase_2,stop,500.0,600.0,4.0,,,,,,,,,orange,circle
0.0,1.0,1.0,0.0,5.0,5.0,863.9435120003327,7.0,1.0,phase_2,go,500.0,650.0,1.0,,,,,,,,,gray,triangle
0.0,4.0,4.0,0.0,5.0,5.0,808.1530910003494,7.0,1.0,phase_2,go,500.0,650.0,1.0,,,,,,,,,yellow,I
0.0,7.0,3.0,1.0,5.0,0.0,0.0,7.0,1.0,phase_2,stop,500.0,650.0,4.0,,,,,,,,,green,square
0.0,1.0,1.0,0.0,6.0,6.0,1042.0486929997423,7.0,1.0,phase_2,go,550.0,650.0,1.0,,,,,,,,,gray,triangle
0.0,5.0,1.0,1.0,6.0,6.0,711.6595030001918,7.0,1.0,phase_2,go,550.0,650.0,1.0,,,,,,,,,cyan,diamond
0.0,2.0,2.0,0.0,5.0,5.0,844.555276000392,7.0,1.0,phase_2,go,550.0,650.0,1.0,,,,,,,,,blue,cross
0.0,5.0,1.0,1.0,5.0,0.0,0.0,7.0,1.0,phase_2,stop,550.0,650.0,4.0,,,,,,,,,cyan,diamond
0.0,6.0,2.0,1.0,5.0,5.0,762.9924360007863,7.0,1.0,phase_2,stop,600.0,650.0,3.0,,,,,,,,,orange,circle
0.0,6.0,2.0,1.0,6.0,6.0,712.80156100147,7.0,1.0,phase_2,go,550.0,650.0,1.0,,,,,,,,,orange,circle
0.0,8.0,4.0,1.0,5.0,5.0,657.5876440001593,7.0,1.0,phase_2,stop,550.0,650.0,3.0,,,,,,,,,magenta,flipped triangle
0.0,6.0,2.0,1.0,5.0,5.0,669.8087610002403,7.0,1.0,phase_2,stop,500.0,650.0,3.0,,,,,,,,,orange,circle
0.0,3.0,3.0,0.0,6.0,6.0,478.1634120008675,7.0,1.0,phase_2,go,450.0,650.0,1.0,,,,,,,,,white,hexagon
0.0,2.0,2.0,0.0,6.0,6.0,543.3158190007816,7.0,1.0,phase_2,go,450.0,650.0,1.0,,,,,,,,,blue,cross
0.0,3.0,3.0,0.0,5.0,5.0,732.1900899987668,7.0,1.0,phase_2,go,450.0,650.0,1.0,,,,,,,,,white,hexagon
0.0,4.0,4.0,0.0,6.0,6.0,815.396072999647,7.0,1.0,phase_2,go,450.0,650.0,1.0,,,,,,,,,yellow,I
0.0,6.0,2.0,1.0,6.0,6.0,846.2035470001865,7.0,1.0,phase_2,stop,450.0,650.0,3.0,,,,,,,,,orange,circle
0.0,2.0,2.0,0.0,6.0,6.0,788.0389109996031,7.0,1.0,phase_2,go,450.0,600.0,1.0,,,,,,,,,blue,cross
0.0,7.0,3.0,1.0,5.0,0.0,0.0,7.0,1.0,phase_2,stop,450.0,600.0,4.0,,,,,,,,,green,square
0.0,2.0,2.0,0.0,6.0,6.0,966.2643949995982,7.0,1.0,phase_2,go,500.0,600.0,1.0,,,,,,,,,blue,cross
0.0,5.0,1.0,1.0,5.0,0.0,0.0,7.0,1.0,phase_2,stop,500.0,600.0,4.0,,,,,,,,,cyan,diamond
0.0,8.0,4.0,1.0,5.0,0.0,0.0,7.0,1.0,phase_2,stop,550.0,600.0,4.0,,,,,,,,,magenta,flipped triangle
0.0,1.0,1.0,0.0,6.0,6.0,816.0279120002087,7.0,1.0,phase_2,go,600.0,600.0,1.0,,,,,,,,,gray,triangle
0.0,7.0,3.0,1.0,6.0,6.0,384.5272570015368,7.0,1.0,phase_2,stop,600.0,600.0,3.0,,,,,,,,,green,square
0.0,2.0,2.0,0.0,5.0,5.0,592.7508219992887,7.0,1.0,phase_2,go,600.0,550.0,1.0,,,,,,,,,blue,cross
0.0,1.0,1.0,0.0,5.0,5.0,507.1244699993258,7.0,1.0,phase_2,go,600.0,550.0,1.0,,,,,,,,,gray,triangle
0.0,3.0,3.0,0.0,6.0,6.0,617.7682289999211,8.0,1.0,phase_2,go,600.0,550.0,1.0,,,,,,,,,white,hexagon
0.0,2.0,2.0,0.0,5.0,5.0,393.0082000006223,8.0,1.0,phase_2,go,600.0,550.0,1.0,,,,,,,,,blue,cross
0.0,1.0,1.0,0.0,5.0,5.0,683.4056179995969,8.0,1.0,phase_2,go,600.0,550.0,1.0,,,,,,,,,gray,triangle
0.0,8.0,4.0,1.0,5.0,5.0,560.9597860002395,8.0,1.0,phase_2,go,600.0,550.0,1.0,,,,,,,,,magenta,flipped triangle
0.0,7.0,3.0,1.0,6.0,6.0,595.4000719993928,8.0,1.0,phase_2,stop,600.0,550.0,3.0,,,,,,,,,green,square
0.0,4.0,4.0,0.0,5.0,5.0,543.5917049999262,8.0,1.0,phase_2,go,600.0,500.0,1.0,,,,,,,,,yellow,I
0.0,6.0,2.0,1.0,6.0,6.0,643.6942640011694,8.0,1.0,phase_2,stop,600.0,500.0,3.0,,,,,,,,,orange,circle
0.0,1.0,1.0,0.0,5.0,5.0,621.3781709993782,8.0,1.0,phase_2,go,600.0,450.0,1.0,,,,,,,,,gray,triangle
0.0,5.0,1.0,1.0,5.0,5.0,653.0679499992402,8.0,1.0,phase_2,stop,600.0,450.0,3.0,,,,,,,,,cyan,diamond
0.0,3.0,3.0,0.0,5.0,5.0,721.5587430000596,8.0,1.0,phase_2,go,550.0,450.0,1.0,,,,,,,,,white,hexagon
0.0,2.0,2.0,0.0,5.0,5.0,809.01658699986,8.0,1.0,phase_2,go,550.0,450.0,1.0,,,,,,,,,blue,cross
0.0,6.0,2.0,1.0,5.0,5.0,377.9741029993602,8.0,1.0,phase_2,go,550.0,450.0,1.0,,,,,,,,,orange,circle
0.0,5.0,1.0,1.0,6.0,0.0,0.0,8.0,1.0,phase_2,stop,550.0,450.0,4.0,,,,,,,,,cyan,diamond
0.0,1.0,1.0,0.0,5.0,5.0,807.8998500004673,8.0,1.0,phase_2,go,550.0,500.0,1.0,,,,,,,,,gray,triangle
0.0,6.0,2.0,1.0,6.0,0.0,0.0,8.0,1.0,phase_2,stop,550.0,500.0,4.0,,,,,,,,,orange,circle
0.0,5.0,1.0,1.0,5.0,5.0,702.7504649995535,8.0,1.0,phase_2,stop,550.0,550.0,3.0,,,,,,,,,cyan,diamond
0.0,1.0,1.0,0.0,5.0,5.0,562.4647589993401,8.0,1.0,phase_2,go,500.0,550.0,1.0,,,,,,,,,gray,triangle
0.0,8.0,4.0,1.0,5.0,5.0,384.487123999861,8.0,1.0,phase_2,stop,500.0,550.0,3.0,,,,,,,,,magenta,flipped triangle
0.0,8.0,4.0,1.0,6.0,6.0,583.1326799998351,8.0,1.0,phase_2,stop,450.0,550.0,3.0,,,,,,,,,magenta,flipped triangle
0.0,6.0,2.0,1.0,5.0,0.0,0.0,8.0,1.0,phase_2,stop,450.0,500.0,4.0,,,,,,,,,orange,circle
0.0,2.0,2.0,0.0,5.0,5.0,823.6915999987104,8.0,1.0,phase_2,go,500.0,500.0,1.0,,,,,,,,,blue,cross
0.0,4.0,4.0,0.0,5.0,5.0,646.423407999464,8.0,1.0,phase_2,go,500.0,500.0,1.0,,,,,,,,,yellow,I
0.0,7.0,3.0,1.0,6.0,6.0,692.3658239993529,8.0,1.0,phase_2,go,500.0,500.0,1.0,,,,,,,,,green,square
0.0,7.0,3.0,1.0,5.0,0.0,0.0,8.0,1.0,phase_2,stop,500.0,500.0,4.0,,,,,,,,,green,square
0.0,2.0,2.0,0.0,6.0,6.0,636.9437129997095,8.0,1.0,phase_2,go,550.0,500.0,1.0,,,,,,,,,blue,cross
0.0,2.0,2.0,0.0,6.0,6.0,636.8491950015596,8.0,1.0,phase_2,go,550.0,500.0,1.0,,,,,,,,,blue,cross
0.0,3.0,3.0,0.0,6.0,6.0,654.2000450008345,8.0,1.0,phase_2,go,550.0,500.0,1.0,,,,,,,,,white,hexagon
0.0,5.0,1.0,1.0,5.0,5.0,697.3412410006858,8.0,1.0,phase_2,go,550.0,500.0,1.0,,,,,,,,,cyan,diamond
0.0,3.0,3.0,0.0,5.0,5.0,683.2085719997849,8.0,1.0,phase_2,go,550.0,500.0,1.0,,,,,,,,,white,hexagon
0.0,7.0,3.0,1.0,5.0,5.0,740.5811700009508,8.0,1.0,phase_2,stop,550.0,500.0,3.0,,,,,,,,,green,square
0.0,5.0,1.0,1.0,6.0,0.0,0.0,8.0,1.0,phase_2,stop,500.0,500.0,4.0,,,,,,,,,cyan,diamond
0.0,3.0,3.0,0.0,5.0,5.0,778.3253099987633,8.0,1.0,phase_2,go,500.0,550.0,1.0,,,,,,,,,white,hexagon
0.0,1.0,1.0,0.0,5.0,5.0,734.9795659993106,8.0,1.0,phase_2,go,500.0,550.0,1.0,,,,,,,,,gray,triangle
0.0,4.0,4.0,0.0,6.0,6.0,693.2882620003511,8.0,1.0,phase_2,go,500.0,550.0,1.0,,,,,,,,,yellow,I
0.0,5.0,1.0,1.0,6.0,6.0,367.2005759999592,8.0,1.0,phase_2,stop,500.0,550.0,3.0,,,,,,,,,cyan,diamond
0.0,3.0,3.0,0.0,6.0,6.0,356.2924590005423,8.0,1.0,phase_2,go,500.0,500.0,1.0,,,,,,,,,white,hexagon
0.0,7.0,3.0,1.0,7.0,4.0,2201.2463589999243,1.0,1.0,phase_3,,,,,464.0,4.0,696.0,232.0,348.0,464.0,580.0,116.0,green,square
0.0,3.0,3.0,0.0,7.0,1.0,3836.7649689989776,1.0,1.0,phase_3,,,,,768.0,4.0,768.0,960.0,384.0,192.0,1152.0,576.0,white,hexagon
0.0,8.0,4.0,1.0,7.0,2.0,2676.960663999125,1.0,1.0,phase_3,,,,,692.0,4.0,519.0,692.0,865.0,1038.0,173.0,346.0,magenta,flipped triangle
0.0,3.0,3.0,0.0,7.0,2.0,2088.4971280011086,1.0,1.0,phase_3,,,,,405.0,3.0,135.0,405.0,675.0,270.0,540.0,810.0,white,hexagon
0.0,7.0,3.0,1.0,7.0,5.0,2070.787172000564,1.0,1.0,phase_3,,,,,576.0,3.0,960.0,384.0,768.0,192.0,576.0,1152.0,green,square
0.0,3.0,3.0,0.0,7.0,6.0,3848.453006999989,1.0,1.0,phase_3,,,,,462.0,3.0,924.0,770.0,616.0,154.0,308.0,462.0,white,hexagon
0.0,7.0,3.0,1.0,7.0,4.0,2078.642252999998,1.0,1.0,phase_3,,,,,519.0,3.0,173.0,692.0,865.0,519.0,346.0,1038.0,green,square
0.0,5.0,1.0,1.0,7.0,2.0,3285.424179999609,1.0,1.0,phase_3,,,,,576.0,3.0,192.0,576.0,768.0,960.0,384.0,1152.0,cyan,diamond
0.0,1.0,1.0,0.0,7.0,1.0,2564.4523760001903,1.0,1.0,phase_3,,,,,462.0,3.0,462.0,616.0,770.0,154.0,308.0,924.0,gray,triangle
0.0,3.0,3.0,0.0,7.0,1.0,2924.307029999909,1.0,1.0,phase_3,,,,,616.0,4.0,616.0,770.0,462.0,154.0,924.0,308.0,white,hexagon
0.0,6.0,2.0,1.0,7.0,5.0,2615.5072469991865,1.0,1.0,phase_3,,,,,692.0,4.0,1038.0,173.0,346.0,865.0,692.0,519.0,orange,circle
0.0,6.0,2.0,1.0,7.0,4.0,1705.7846050010994,1.0,1.0,phase_3,,,,,580.0,5.0,116.0,232.0,464.0,580.0,696.0,348.0,orange,circle
0.0,2.0,2.0,0.0,7.0,3.0,3520.470520001254,1.0,1.0,phase_3,,,,,462.0,3.0,770.0,308.0,462.0,924.0,154.0,616.0,blue,cross
0.0,2.0,2.0,0.0,7.0,1.0,2667.862476000664,1.0,1.0,phase_3,,,,,540.0,4.0,540.0,675.0,270.0,810.0,135.0,405.0,blue,cross
0.0,2.0,2.0,0.0,7.0,3.0,2936.927855000249,1.0,1.0,phase_3,,,,,462.0,3.0,924.0,308.0,462.0,616.0,154.0,770.0,blue,cross
0.0,5.0,1.0,1.0,7.0,4.0,3478.6129819985945,1.0,1.0,phase_3,,,,,865.0,5.0,346.0,173.0,692.0,865.0,1038.0,519.0,cyan,diamond
0.0,2.0,2.0,0.0,7.0,1.0,2255.612195998765,1.0,1.0,phase_3,,,,,865.0,5.0,865.0,173.0,519.0,692.0,346.0,1038.0,blue,cross
0.0,6.0,2.0,1.0,7.0,3.0,1363.7794650003343,1.0,1.0,phase_3,,,,,576.0,3.0,1152.0,192.0,576.0,768.0,960.0,384.0,orange,circle
0.0,8.0,4.0,1.0,7.0,6.0,1428.597706999426,1.0,1.0,phase_3,,,,,696.0,6.0,116.0,348.0,232.0,464.0,580.0,696.0,magenta,flipped triangle
0.0,5.0,1.0,1.0,7.0,6.0,2116.066492000755,1.0,1.0,phase_3,,,,,692.0,4.0,173.0,865.0,1038.0,519.0,346.0,692.0,cyan,diamond
0.0,5.0,1.0,1.0,7.0,2.0,2471.232470999894,2.0,1.0,phase_3,,,,,675.0,5.0,540.0,675.0,810.0,405.0,135.0,270.0,cyan,diamond
0.0,1.0,1.0,0.0,7.0,6.0,1775.0094710008852,2.0,1.0,phase_3,,,,,810.0,6.0,675.0,270.0,135.0,405.0,540.0,810.0,gray,triangle
0.0,7.0,3.0,1.0,7.0,3.0,2329.301357998702,2.0,1.0,phase_3,,,,,462.0,3.0,616.0,924.0,462.0,770.0,308.0,154.0,green,square
0.0,8.0,4.0,1.0,7.0,2.0,3833.033807000902,2.0,1.0,phase_3,,,,,576.0,3.0,192.0,576.0,960.0,384.0,768.0,1152.0,magenta,flipped triangle
0.0,4.0,4.0,0.0,7.0,2.0,2538.6595240015595,2.0,1.0,phase_3,,,,,580.0,5.0,348.0,580.0,464.0,696.0,232.0,116.0,yellow,I
0.0,4.0,4.0,0.0,7.0,3.0,2711.4625970007182,2.0,1.0,phase_3,,,,,692.0,4.0,1038.0,519.0,692.0,173.0,865.0,346.0,yellow,I
0.0,2.0,2.0,0.0,7.0,1.0,2163.449239998954,2.0,1.0,phase_3,,,,,768.0,4.0,768.0,192.0,384.0,1152.0,960.0,576.0,blue,cross
0.0,6.0,2.0,1.0,7.0,6.0,3398.4880120005982,2.0,1.0,phase_3,,,,,616.0,4.0,770.0,154.0,924.0,308.0,462.0,616.0,orange,circle
0.0,7.0,3.0,1.0,7.0,4.0,1637.6774089985702,2.0,1.0,phase_3,,,,,462.0,3.0,154.0,616.0,770.0,462.0,308.0,924.0,green,square
0.0,5.0,1.0,1.0,7.0,4.0,3382.235999999466,2.0,1.0,phase_3,,,,,696.0,6.0,232.0,348.0,116.0,696.0,464.0,580.0,cyan,diamond
0.0,1.0,1.0,0.0,7.0,4.0,1823.829349999869,2.0,1.0,phase_3,,,,,580.0,5.0,116.0,232.0,696.0,580.0,348.0,464.0,gray,triangle
0.0,2.0,2.0,0.0,7.0,5.0,2992.924103000405,2.0,1.0,phase_3,,,,,348.0,3.0,116.0,232.0,696.0,464.0,348.0,580.0,blue,cross
0.0,7.0,3.0,1.0,7.0,3.0,3275.8857919998263,2.0,1.0,phase_3,,,,,192.0,1.0,960.0,576.0,192.0,384.0,1152.0,768.0,green,square
0.0,3.0,3.0,0.0,7.0,4.0,2376.0907590003626,2.0,1.0,phase_3,,,,,675.0,5.0,135.0,270.0,405.0,675.0,810.0,540.0,white,hexagon
0.0,4.0,4.0,0.0,7.0,5.0,1821.8539910012623,2.0,1.0,phase_3,,,,,462.0,3.0,770.0,154.0,924.0,308.0,462.0,616.0,yellow,I
0.0,6.0,2.0,1.0,7.0,1.0,3013.0085380005767,2.0,1.0,phase_3,,,,,540.0,4.0,540.0,675.0,405.0,270.0,810.0,135.0,orange,circle
0.0,4.0,4.0,0.0,7.0,6.0,2835.7447779999347,2.0,1.0,phase_3,,,,,576.0,3.0,960.0,768.0,1152.0,192.0,384.0,576.0,yellow,I
0.0,6.0,2.0,1.0,7.0,2.0,3067.8653869999835,2.0,1.0,phase_3,,,,,576.0,3.0,1152.0,576.0,384.0,192.0,960.0,768.0,orange,circle
0.0,4.0,4.0,0.0,7.0,2.0,3588.731400999677,2.0,1.0,phase_3,,,,,616.0,4.0,154.0,616.0,308.0,462.0,924.0,770.0,yellow,I
0.0,5.0,1.0,1.0,7.0,4.0,1998.892532001264,2.0,1.0,phase_3,,,,,580.0,5.0,348.0,464.0,696.0,580.0,232.0,116.0,cyan,diamond
0.0,1.0,1.0,0.0,7.0,2.0,1879.59930299985,3.0,1.0,phase_3,,,,,580.0,5.0,232.0,580.0,116.0,696.0,464.0,348.0,gray,triangle
0.0,7.0,3.0,1.0,7.0,5.0,2778.9930519993504,3.0,1.0,phase_3,,,,,540.0,4.0,135.0,810.0,405.0,675.0,540.0,270.0,green,square
0.0,4.0,4.0,0.0,7.0,1.0,2643.8807969989284,3.0,1.0,phase_3,,,,,405.0,3.0,405.0,270.0,810.0,540.0,135.0,675.0,yellow,I
0.0,3.0,3.0,0.0,7.0,3.0,2662.700639000832,3.0,1.0,phase_3,,,,,576.0,3.0,960.0,1152.0,576.0,768.0,384.0,192.0,white,hexagon
0.0,5.0,1.0,1.0,7.0,3.0,2144.6330259987008,3.0,1.0,phase_3,,,,,405.0,3.0,810.0,270.0,405.0,135.0,675.0,540.0,cyan,diamond
0.0,6.0,2.0,1.0,7.0,3.0,1784.8305739989885,3.0,1.0,phase_3,,,,,464.0,4.0,116.0,348.0,464.0,580.0,232.0,696.0,orange,circle
0.0,7.0,3.0,1.0,7.0,1.0,2839.8754139998346,3.0,1.0,phase_3,,,,,464.0,4.0,464.0,116.0,232.0,696.0,580.0,348.0,green,square
0.0,4.0,4.0,0.0,7.0,1.0,2425.675102000241,3.0,1.0,phase_3,,,,,692.0,4.0,692.0,865.0,1038.0,173.0,519.0,346.0,yellow,I
0.0,8.0,4.0,1.0,7.0,5.0,3103.017438001189,3.0,1.0,phase_3,,,,,675.0,5.0,135.0,540.0,270.0,405.0,675.0,810.0,magenta,flipped triangle
0.0,3.0,3.0,0.0,7.0,4.0,1407.700035999369,3.0,1.0,phase_3,,,,,464.0,4.0,348.0,580.0,232.0,464.0,696.0,116.0,white,hexagon
0.0,2.0,2.0,0.0,7.0,1.0,2706.6429170008632,3.0,1.0,phase_3,,,,,405.0,3.0,405.0,270.0,675.0,810.0,540.0,135.0,blue,cross
0.0,3.0,3.0,0.0,7.0,1.0,2490.6295820001105,3.0,1.0,phase_3,,,,,519.0,3.0,519.0,692.0,865.0,1038.0,173.0,346.0,white,hexagon
0.0,2.0,2.0,0.0,7.0,2.0,2472.526787001698,3.0,1.0,phase_3,,,,,580.0,5.0,348.0,580.0,464.0,116.0,232.0,696.0,blue,cross
0.0,5.0,1.0,1.0,7.0,2.0,3177.801031000854,3.0,1.0,phase_3,,,,,192.0,1.0,1152.0,192.0,576.0,768.0,384.0,960.0,cyan,diamond
0.0,1.0,1.0,0.0,7.0,4.0,1607.1980079996138,3.0,1.0,phase_3,,,,,675.0,5.0,405.0,540.0,135.0,675.0,270.0,810.0,gray,triangle
0.0,5.0,1.0,1.0,7.0,6.0,3308.538041999782,3.0,1.0,phase_3,,,,,462.0,3.0,616.0,154.0,308.0,924.0,770.0,462.0,cyan,diamond
0.0,3.0,3.0,0.0,7.0,4.0,3031.119517001571,3.0,1.0,phase_3,,,,,519.0,3.0,1038.0,865.0,346.0,519.0,173.0,692.0,white,hexagon
0.0,3.0,3.0,0.0,7.0,5.0,1679.2468419989746,3.0,1.0,phase_3,,,,,580.0,5.0,116.0,348.0,232.0,464.0,580.0,696.0,white,hexagon
0.0,8.0,4.0,1.0,7.0,1.0,2473.9248269997915,3.0,1.0,phase_3,,,,,348.0,3.0,348.0,580.0,696.0,116.0,232.0,464.0,magenta,flipped triangle
0.0,8.0,4.0,1.0,7.0,3.0,3053.8857780011317,3.0,1.0,phase_3,,,,,692.0,4.0,1038.0,346.0,692.0,865.0,173.0,519.0,magenta,flipped triangle
0.0,5.0,1.0,1.0,7.0,1.0,2544.735809000485,4.0,1.0,phase_3,,,,,770.0,5.0,770.0,308.0,154.0,924.0,616.0,462.0,cyan,diamond
0.0,7.0,3.0,1.0,7.0,2.0,2247.623088000182,4.0,1.0,phase_3,,,,,540.0,4.0,135.0,540.0,405.0,675.0,810.0,270.0,green,square
0.0,8.0,4.0,1.0,7.0,3.0,1601.3196610001614,4.0,1.0,phase_3,,,,,540.0,4.0,675.0,135.0,540.0,270.0,810.0,405.0,magenta,flipped triangle
0.0,1.0,1.0,0.0,7.0,6.0,3715.766100998735,4.0,1.0,phase_3,,,,,865.0,5.0,1038.0,346.0,692.0,519.0,173.0,865.0,gray,triangle
0.0,6.0,2.0,1.0,7.0,3.0,2110.3585869987,4.0,1.0,phase_3,,,,,692.0,4.0,519.0,865.0,692.0,1038.0,173.0,346.0,orange,circle
0.0,4.0,4.0,0.0,7.0,4.0,2267.649467999945,4.0,1.0,phase_3,,,,,675.0,5.0,270.0,135.0,405.0,675.0,810.0,540.0,yellow,I
0.0,1.0,1.0,0.0,7.0,2.0,2538.6257099999057,4.0,1.0,phase_3,,,,,616.0,4.0,308.0,616.0,154.0,924.0,462.0,770.0,gray,triangle
0.0,4.0,4.0,0.0,7.0,2.0,1573.1030230017495,4.0,1.0,phase_3,,,,,576.0,3.0,384.0,576.0,1152.0,960.0,768.0,192.0,yellow,I
0.0,1.0,1.0,0.0,7.0,2.0,1466.2686709998525,4.0,1.0,phase_3,,,,,960.0,5.0,768.0,960.0,192.0,384.0,576.0,1152.0,gray,triangle
0.0,8.0,4.0,1.0,7.0,3.0,1826.9659600009616,4.0,1.0,phase_3,,,,,768.0,4.0,192.0,576.0,768.0,1152.0,384.0,960.0,magenta,flipped triangle
0.0,4.0,4.0,0.0,7.0,5.0,2321.677877000184,4.0,1.0,phase_3,,,,,580.0,5.0,464.0,232.0,116.0,696.0,580.0,348.0,yellow,I
0.0,8.0,4.0,1.0,7.0,4.0,1460.068513000806,4.0,1.0,phase_3,,,,,462.0,3.0,616.0,154.0,308.0,462.0,924.0,770.0,magenta,flipped triangle
0.0,2.0,2.0,0.0,7.0,4.0,2813.636572998803,4.0,1.0,phase_3,,,,,519.0,3.0,865.0,1038.0,346.0,519.0,173.0,692.0,blue,cross
0.0,6.0,2.0,1.0,7.0,2.0,1458.802144999936,4.0,1.0,phase_3,,,,,462.0,3.0,616.0,462.0,154.0,308.0,770.0,924.0,orange,circle
0.0,2.0,2.0,0.0,7.0,2.0,1924.746546001188,4.0,1.0,phase_3,,,,,576.0,3.0,192.0,576.0,768.0,1152.0,960.0,384.0,blue,cross
0.0,1.0,1.0,0.0,7.0,4.0,2479.591269999218,4.0,1.0,phase_3,,,,,384.0,2.0,192.0,768.0,960.0,384.0,576.0,1152.0,gray,triangle
0.0,6.0,2.0,1.0,7.0,1.0,1806.2599869990663,4.0,1.0,phase_3,,,,,675.0,5.0,675.0,270.0,540.0,810.0,405.0,135.0,orange,circle
0.0,1.0,1.0,0.0,7.0,3.0,2975.361079999857,4.0,1.0,phase_3,,,,,865.0,5.0,519.0,1038.0,865.0,173.0,346.0,692.0,gray,triangle
0.0,7.0,3.0,1.0,7.0,1.0,1439.7662930005026,4.0,1.0,phase_3,,,,,519.0,3.0,519.0,692.0,865.0,346.0,1038.0,173.0,green,square
0.0,8.0,4.0,1.0,7.0,2.0,1518.331033999857,4.0,1.0,phase_3,,,,,616.0,4.0,154.0,616.0,924.0,308.0,770.0,462.0,magenta,flipped triangle
