raw_reward_magnitude,stim_reward,stepwise_reward_magnitude,paired_with_stopping,stim_location,response,reaction_time,block,num_trial_presentations,which_phase,stop_signal_trial_type,left_SSD,right_SSD,accuracy,chosen_bidding_amount,chosen_bidding_level,possible_bid_1,possible_bid_2,possible_bid_3,possible_bid_4,possible_bid_5,possible_bid_6,color_text,shape_text
325.0,2.0,2.0,0.0,3.0,3.0,381.8927019999591,1.0,1.0,phase_1,,,,,,,,,,,,,magenta,cross
638.0,7.0,3.0,1.0,4.0,4.0,319.5598270000346,1.0,1.0,phase_1,,,,,,,,,,,,,yellow,triangle
640.0,7.0,3.0,1.0,1.0,1.0,381.8555760000208,1.0,1.0,phase_1,,,,,,,,,,,,,yellow,triangle
175.0,5.0,1.0,1.0,2.0,2.0,316.9382700000369,1.0,1.0,phase_1,,,,,,,,,,,,,gray,diamond
184.0,5.0,1.0,1.0,1.0,1.0,352.4204439999039,1.0,1.0,phase_1,,,,,,,,,,,,,gray,diamond
648.0,7.0,3.0,1.0,3.0,3.0,267.8212030000395,1.0,1.0,phase_1,,,,,,,,,,,,,yellow,triangle
661.0,7.0,3.0,1.0,3.0,3.0,367.6915720000124,1.0,1.0,phase_1,,,,,,,,,,,,,yellow,triangle
302.0,2.0,2.0,0.0,1.0,1.0,452.7502680000452,1.0,2.0,phase_1,,,,,,,,,,,,,magenta,cross
1320.0,4.0,4.0,0.0,4.0,4.0,332.5851189999866,1.0,1.0,phase_1,,,,,,,,,,,,,green,I
145.0,1.0,1.0,0.0,4.0,4.0,365.6868829999666,1.0,1.0,phase_1,,,,,,,,,,,,,blue,flipped triangle
0.0,1.0,0.0,0.0,2.0,2.0,281.8922299999258,1.0,1.0,phase_1,,,,,,,,,,,,,blue,flipped triangle
625.0,7.0,3.0,1.0,4.0,4.0,323.705292999989,1.0,1.0,phase_1,,,,,,,,,,,,,yellow,triangle
1293.0,8.0,4.0,1.0,1.0,1.0,586.5068990000282,1.0,1.0,phase_1,,,,,,,,,,,,,white,square
1286.0,8.0,4.0,1.0,3.0,3.0,375.8449939999764,1.0,1.0,phase_1,,,,,,,,,,,,,white,square
140.0,1.0,1.0,0.0,4.0,4.0,382.0104520000313,1.0,1.0,phase_1,,,,,,,,,,,,,blue,flipped triangle
1276.0,8.0,4.0,1.0,4.0,4.0,354.3337500000234,1.0,1.0,phase_1,,,,,,,,,,,,,white,square
0.0,1.0,0.0,0.0,1.0,1.0,333.8111730000719,1.0,1.0,phase_1,,,,,,,,,,,,,blue,flipped triangle
0.0,4.0,0.0,0.0,4.0,4.0,373.2543500000247,1.0,1.0,phase_1,,,,,,,,,,,,,green,I
151.0,5.0,1.0,1.0,2.0,2.0,437.582625999994,1.0,1.0,phase_1,,,,,,,,,,,,,gray,diamond
1279.0,8.0,4.0,1.0,4.0,4.0,298.4689359999493,1.0,1.0,phase_1,,,,,,,,,,,,,white,square
344.0,6.0,2.0,1.0,4.0,4.0,357.8871849999814,1.0,1.0,phase_1,,,,,,,,,,,,,orange,hexagon
344.0,2.0,2.0,0.0,4.0,4.0,352.3018849999744,1.0,1.0,phase_1,,,,,,,,,,,,,magenta,cross
626.0,3.0,3.0,0.0,3.0,3.0,386.2922919998937,1.0,1.0,phase_1,,,,,,,,,,,,,cyan,circle
0.0,2.0,0.0,0.0,4.0,4.0,338.4138700000676,1.0,1.0,phase_1,,,,,,,,,,,,,magenta,cross
145.0,1.0,1.0,0.0,2.0,2.0,402.7993270000252,1.0,1.0,phase_1,,,,,,,,,,,,,blue,flipped triangle
0.0,3.0,0.0,0.0,4.0,4.0,319.0878699999757,1.0,1.0,phase_1,,,,,,,,,,,,,cyan,circle
181.0,1.0,1.0,0.0,2.0,2.0,311.6467369999327,1.0,1.0,phase_1,,,,,,,,,,,,,blue,flipped triangle
648.0,3.0,3.0,0.0,4.0,4.0,355.7226510000646,1.0,1.0,phase_1,,,,,,,,,,,,,cyan,circle
329.0,6.0,2.0,1.0,2.0,2.0,330.4750910000393,1.0,1.0,phase_1,,,,,,,,,,,,,orange,hexagon
1290.0,4.0,4.0,0.0,3.0,3.0,318.9019760000064,1.0,1.0,phase_1,,,,,,,,,,,,,green,I
0.0,1.0,0.0,0.0,1.0,1.0,310.6905070000039,1.0,1.0,phase_1,,,,,,,,,,,,,blue,flipped triangle
0.0,8.0,0.0,1.0,2.0,2.0,314.0577860000348,1.0,1.0,phase_1,,,,,,,,,,,,,white,square
0.0,5.0,0.0,1.0,1.0,1.0,405.4056410000157,1.0,1.0,phase_1,,,,,,,,,,,,,gray,diamond
654.0,7.0,3.0,1.0,1.0,1.0,374.4614350000574,1.0,1.0,phase_1,,,,,,,,,,,,,yellow,triangle
1325.0,8.0,4.0,1.0,1.0,1.0,374.7420209999745,1.0,1.0,phase_1,,,,,,,,,,,,,white,square
659.0,3.0,3.0,0.0,3.0,3.0,384.6835800000008,1.0,2.0,phase_1,,,,,,,,,,,,,cyan,circle
157.0,1.0,1.0,0.0,1.0,1.0,457.589750000011,1.0,1.0,phase_1,,,,,,,,,,,,,blue,flipped triangle
140.0,5.0,1.0,1.0,4.0,4.0,335.875150999982,1.0,1.0,phase_1,,,,,,,,,,,,,gray,diamond
1294.0,8.0,4.0,1.0,2.0,2.0,468.0329249999886,1.0,1.0,phase_1,,,,,,,,,,,,,white,square
1325.0,4.0,4.0,0.0,1.0,1.0,384.5282419999876,1.0,1.0,phase_1,,,,,,,,,,,,,green,I
335.0,2.0,2.0,0.0,3.0,3.0,309.6085889999358,1.0,1.0,phase_1,,,,,,,,,,,,,magenta,cross
634.0,3.0,3.0,0.0,1.0,1.0,317.0332270000244,1.0,1.0,phase_1,,,,,,,,,,,,,cyan,circle
151.0,1.0,1.0,0.0,3.0,3.0,325.8473750000803,1.0,1.0,phase_1,,,,,,,,,,,,,blue,flipped triangle
1293.0,8.0,4.0,1.0,1.0,1.0,311.9331679999959,1.0,1.0,phase_1,,,,,,,,,,,,,white,square
318.0,6.0,2.0,1.0,1.0,1.0,345.6075190000547,1.0,1.0,phase_1,,,,,,,,,,,,,orange,hexagon
0.0,1.0,0.0,0.0,2.0,2.0,329.7671549998995,1.0,1.0,phase_1,,,,,,,,,,,,,blue,flipped triangle
0.0,3.0,0.0,0.0,2.0,2.0,347.7181250000285,1.0,1.0,phase_1,,,,,,,,,,,,,cyan,circle
1302.0,8.0,4.0,1.0,3.0,3.0,433.8258300000461,1.0,1.0,phase_1,,,,,,,,,,,,,white,square
659.0,3.0,3.0,0.0,4.0,4.0,351.5021570000272,1.0,1.0,phase_1,,,,,,,,,,,,,cyan,circle
1302.0,4.0,4.0,0.0,2.0,2.0,305.5218209999566,1.0,1.0,phase_1,,,,,,,,,,,,,green,I
155.0,1.0,1.0,0.0,4.0,4.0,307.5071660000503,1.0,1.0,phase_1,,,,,,,,,,,,,blue,flipped triangle
1299.0,8.0,4.0,1.0,4.0,4.0,311.6114049998941,1.0,1.0,phase_1,,,,,,,,,,,,,white,square
1283.0,4.0,4.0,0.0,3.0,3.0,305.5256139999756,1.0,1.0,phase_1,,,,,,,,,,,,,green,I
0.0,5.0,0.0,1.0,4.0,4.0,269.5379819999743,1.0,1.0,phase_1,,,,,,,,,,,,,gray,diamond
157.0,1.0,1.0,0.0,4.0,4.0,455.4436980000673,1.0,1.0,phase_1,,,,,,,,,,,,,blue,flipped triangle
185.0,1.0,1.0,0.0,2.0,2.0,339.519057000075,1.0,1.0,phase_1,,,,,,,,,,,,,blue,flipped triangle
1293.0,4.0,4.0,0.0,3.0,3.0,307.2651380000479,1.0,1.0,phase_1,,,,,,,,,,,,,green,I
1314.0,8.0,4.0,1.0,1.0,1.0,334.4711299999972,1.0,1.0,phase_1,,,,,,,,,,,,,white,square
1288.0,8.0,4.0,1.0,3.0,3.0,294.7520930000564,1.0,1.0,phase_1,,,,,,,,,,,,,white,square
145.0,5.0,1.0,1.0,1.0,1.0,343.7882380000019,1.0,1.0,phase_1,,,,,,,,,,,,,gray,diamond
656.0,7.0,3.0,1.0,2.0,2.0,296.3669119999395,1.0,1.0,phase_1,,,,,,,,,,,,,yellow,triangle
155.0,5.0,1.0,1.0,1.0,1.0,304.3087240000659,1.0,1.0,phase_1,,,,,,,,,,,,,gray,diamond
169.0,1.0,1.0,0.0,1.0,1.0,304.5398579999983,1.0,1.0,phase_1,,,,,,,,,,,,,blue,flipped triangle
155.0,5.0,1.0,1.0,1.0,1.0,326.4740769999434,1.0,1.0,phase_1,,,,,,,,,,,,,gray,diamond
349.0,6.0,2.0,1.0,3.0,3.0,334.558750000042,1.0,1.0,phase_1,,,,,,,,,,,,,orange,hexagon
1315.0,8.0,4.0,1.0,3.0,3.0,292.6733500000864,1.0,1.0,phase_1,,,,,,,,,,,,,white,square
1284.0,4.0,4.0,0.0,4.0,4.0,316.1320199999409,1.0,1.0,phase_1,,,,,,,,,,,,,green,I
323.0,6.0,2.0,1.0,3.0,3.0,317.6987719999715,1.0,1.0,phase_1,,,,,,,,,,,,,orange,hexagon
344.0,2.0,2.0,0.0,1.0,1.0,251.51540100000602,1.0,1.0,phase_1,,,,,,,,,,,,,magenta,cross
304.0,2.0,2.0,0.0,3.0,3.0,316.653223000003,1.0,1.0,phase_1,,,,,,,,,,,,,magenta,cross
176.0,1.0,1.0,0.0,2.0,2.0,262.923029000035,1.0,1.0,phase_1,,,,,,,,,,,,,blue,flipped triangle
0.0,8.0,0.0,1.0,4.0,4.0,300.293631000045,1.0,1.0,phase_1,,,,,,,,,,,,,white,square
139.0,5.0,1.0,1.0,2.0,2.0,337.1105929999203,1.0,1.0,phase_1,,,,,,,,,,,,,gray,diamond
155.0,1.0,1.0,0.0,2.0,2.0,332.8549509999448,1.0,1.0,phase_1,,,,,,,,,,,,,blue,flipped triangle
636.0,3.0,3.0,0.0,2.0,2.0,329.5859370000471,1.0,1.0,phase_1,,,,,,,,,,,,,cyan,circle
0.0,7.0,0.0,1.0,4.0,4.0,334.9540399999569,1.0,1.0,phase_1,,,,,,,,,,,,,yellow,triangle
333.0,6.0,2.0,1.0,3.0,3.0,306.9100000000162,1.0,1.0,phase_1,,,,,,,,,,,,,orange,hexagon
0.0,6.0,0.0,1.0,3.0,3.0,343.3700100000578,1.0,1.0,phase_1,,,,,,,,,,,,,orange,hexagon
0.0,5.0,0.0,1.0,3.0,3.0,335.5176960000108,1.0,1.0,phase_1,,,,,,,,,,,,,gray,diamond
317.0,6.0,2.0,1.0,4.0,4.0,319.3014549999589,1.0,1.0,phase_1,,,,,,,,,,,,,orange,hexagon
306.0,2.0,2.0,0.0,4.0,4.0,283.4072119999291,1.0,1.0,phase_1,,,,,,,,,,,,,magenta,cross
632.0,3.0,3.0,0.0,2.0,2.0,335.2361820000169,1.0,2.0,phase_1,,,,,,,,,,,,,cyan,circle
321.0,6.0,2.0,1.0,1.0,1.0,306.2922919999664,1.0,1.0,phase_1,,,,,,,,,,,,,orange,hexagon
0.0,8.0,0.0,1.0,1.0,1.0,299.0238169999202,1.0,1.0,phase_1,,,,,,,,,,,,,white,square
321.0,2.0,2.0,0.0,2.0,2.0,457.2180050000725,1.0,1.0,phase_1,,,,,,,,,,,,,magenta,cross
672.0,3.0,3.0,0.0,3.0,3.0,316.4454559999967,1.0,1.0,phase_1,,,,,,,,,,,,,cyan,circle
0.0,7.0,0.0,1.0,1.0,1.0,279.676949000077,1.0,1.0,phase_1,,,,,,,,,,,,,yellow,triangle
182.0,1.0,1.0,0.0,4.0,4.0,344.7025120000262,1.0,1.0,phase_1,,,,,,,,,,,,,blue,flipped triangle
633.0,3.0,3.0,0.0,3.0,3.0,344.5161509999934,1.0,1.0,phase_1,,,,,,,,,,,,,cyan,circle
179.0,5.0,1.0,1.0,2.0,2.0,434.6889639999745,1.0,1.0,phase_1,,,,,,,,,,,,,gray,diamond
303.0,2.0,2.0,0.0,3.0,3.0,317.6729170000953,1.0,1.0,phase_1,,,,,,,,,,,,,magenta,cross
665.0,7.0,3.0,1.0,4.0,4.0,411.2043600000561,1.0,1.0,phase_1,,,,,,,,,,,,,yellow,triangle
333.0,2.0,2.0,0.0,2.0,2.0,297.7057269999932,1.0,1.0,phase_1,,,,,,,,,,,,,magenta,cross
321.0,6.0,2.0,1.0,2.0,2.0,343.9403370000491,1.0,1.0,phase_1,,,,,,,,,,,,,orange,hexagon
632.0,3.0,3.0,0.0,3.0,3.0,318.8566469999614,1.0,1.0,phase_1,,,,,,,,,,,,,cyan,circle
1314.0,4.0,4.0,0.0,4.0,4.0,354.2272149999235,1.0,2.0,phase_1,,,,,,,,,,,,,green,I
144.0,5.0,1.0,1.0,4.0,4.0,375.3413529999534,1.0,1.0,phase_1,,,,,,,,,,,,,gray,diamond
662.0,7.0,3.0,1.0,2.0,2.0,349.7640089999549,1.0,1.0,phase_1,,,,,,,,,,,,,yellow,triangle
317.0,2.0,2.0,0.0,4.0,4.0,355.4735970000138,1.0,1.0,phase_1,,,,,,,,,,,,,magenta,cross
174.0,5.0,1.0,1.0,2.0,2.0,323.4364900000628,1.0,1.0,phase_1,,,,,,,,,,,,,gray,diamond
1279.0,4.0,4.0,0.0,4.0,4.0,482.3879260000012,2.0,1.0,phase_1,,,,,,,,,,,,,green,I
0.0,4.0,0.0,0.0,3.0,3.0,392.7611830000614,2.0,1.0,phase_1,,,,,,,,,,,,,green,I
168.0,5.0,1.0,1.0,3.0,3.0,326.8584680000685,2.0,1.0,phase_1,,,,,,,,,,,,,gray,diamond
151.0,1.0,1.0,0.0,3.0,3.0,386.562677000029,2.0,1.0,phase_1,,,,,,,,,,,,,blue,flipped triangle
169.0,1.0,1.0,0.0,2.0,2.0,312.8047870000046,2.0,1.0,phase_1,,,,,,,,,,,,,blue,flipped triangle
626.0,3.0,3.0,0.0,3.0,3.0,398.9620649999779,2.0,1.0,phase_1,,,,,,,,,,,,,cyan,circle
154.0,5.0,1.0,1.0,1.0,1.0,335.437408999951,2.0,1.0,phase_1,,,,,,,,,,,,,gray,diamond
1308.0,4.0,4.0,0.0,1.0,1.0,427.8260260000479,2.0,1.0,phase_1,,,,,,,,,,,,,green,I
164.0,1.0,1.0,0.0,1.0,1.0,387.4674219999861,2.0,1.0,phase_1,,,,,,,,,,,,,blue,flipped triangle
648.0,7.0,3.0,1.0,3.0,3.0,321.079898999983,2.0,1.0,phase_1,,,,,,,,,,,,,yellow,triangle
303.0,2.0,2.0,0.0,3.0,3.0,301.7404170000191,2.0,1.0,phase_1,,,,,,,,,,,,,magenta,cross
1307.0,4.0,4.0,0.0,2.0,2.0,332.7210850000028,2.0,1.0,phase_1,,,,,,,,,,,,,green,I
171.0,5.0,1.0,1.0,2.0,2.0,364.6025120000331,2.0,1.0,phase_1,,,,,,,,,,,,,gray,diamond
323.0,2.0,2.0,0.0,1.0,1.0,481.6357199999856,2.0,1.0,phase_1,,,,,,,,,,,,,magenta,cross
626.0,7.0,3.0,1.0,3.0,3.0,304.5901500000809,2.0,1.0,phase_1,,,,,,,,,,,,,yellow,triangle
0.0,7.0,0.0,1.0,4.0,4.0,345.0217600000087,2.0,1.0,phase_1,,,,,,,,,,,,,yellow,triangle
626.0,7.0,3.0,1.0,1.0,1.0,309.1007640000498,2.0,2.0,phase_1,,,,,,,,,,,,,yellow,triangle
318.0,2.0,2.0,0.0,2.0,2.0,514.783692999913,2.0,1.0,phase_1,,,,,,,,,,,,,magenta,cross
1284.0,8.0,4.0,1.0,4.0,4.0,323.4818089999862,2.0,1.0,phase_1,,,,,,,,,,,,,white,square
0.0,1.0,0.0,0.0,4.0,4.0,409.3061489999172,2.0,1.0,phase_1,,,,,,,,,,,,,blue,flipped triangle
1284.0,8.0,4.0,1.0,3.0,3.0,405.4238950000126,2.0,1.0,phase_1,,,,,,,,,,,,,white,square
0.0,4.0,0.0,0.0,2.0,2.0,446.209847000091,2.0,1.0,phase_1,,,,,,,,,,,,,green,I
672.0,7.0,3.0,1.0,3.0,3.0,384.5431350000581,2.0,1.0,phase_1,,,,,,,,,,,,,yellow,triangle
641.0,3.0,3.0,0.0,1.0,1.0,348.431808999976,2.0,1.0,phase_1,,,,,,,,,,,,,cyan,circle
326.0,6.0,2.0,1.0,4.0,4.0,287.8478600000562,2.0,1.0,phase_1,,,,,,,,,,,,,orange,hexagon
0.0,7.0,0.0,1.0,2.0,2.0,500.8137649999753,2.0,1.0,phase_1,,,,,,,,,,,,,yellow,triangle
1275.0,4.0,4.0,0.0,2.0,2.0,351.0392840000804,2.0,1.0,phase_1,,,,,,,,,,,,,green,I
632.0,7.0,3.0,1.0,4.0,4.0,317.0994260001407,2.0,1.0,phase_1,,,,,,,,,,,,,yellow,triangle
0.0,7.0,0.0,1.0,2.0,2.0,400.2334059998702,2.0,1.0,phase_1,,,,,,,,,,,,,yellow,triangle
154.0,5.0,1.0,1.0,4.0,4.0,299.035731999993,2.0,1.0,phase_1,,,,,,,,,,,,,gray,diamond
339.0,2.0,2.0,0.0,4.0,4.0,353.980619999902,2.0,1.0,phase_1,,,,,,,,,,,,,magenta,cross
669.0,3.0,3.0,0.0,2.0,2.0,326.0024500000327,2.0,1.0,phase_1,,,,,,,,,,,,,cyan,circle
304.0,6.0,2.0,1.0,2.0,2.0,315.6784390000666,2.0,1.0,phase_1,,,,,,,,,,,,,orange,hexagon
0.0,6.0,0.0,1.0,1.0,1.0,343.3199959999911,2.0,1.0,phase_1,,,,,,,,,,,,,orange,hexagon
154.0,1.0,1.0,0.0,1.0,1.0,522.7901729999758,2.0,1.0,phase_1,,,,,,,,,,,,,blue,flipped triangle
152.0,5.0,1.0,1.0,3.0,3.0,315.7932409999375,2.0,1.0,phase_1,,,,,,,,,,,,,gray,diamond
339.0,6.0,2.0,1.0,3.0,3.0,355.8627280001474,2.0,1.0,phase_1,,,,,,,,,,,,,orange,hexagon
0.0,6.0,0.0,1.0,2.0,2.0,280.4805670000405,2.0,1.0,phase_1,,,,,,,,,,,,,orange,hexagon
164.0,5.0,1.0,1.0,3.0,3.0,317.191327999808,2.0,1.0,phase_1,,,,,,,,,,,,,gray,diamond
184.0,5.0,1.0,1.0,4.0,4.0,345.3843629999937,2.0,1.0,phase_1,,,,,,,,,,,,,gray,diamond
158.0,1.0,1.0,0.0,3.0,3.0,419.943941999918,2.0,1.0,phase_1,,,,,,,,,,,,,blue,flipped triangle
1301.0,4.0,4.0,0.0,2.0,2.0,314.3740530001651,2.0,1.0,phase_1,,,,,,,,,,,,,green,I
0.0,3.0,0.0,0.0,1.0,1.0,326.523429999952,2.0,1.0,phase_1,,,,,,,,,,,,,cyan,circle
1299.0,4.0,4.0,0.0,1.0,1.0,363.1288779999977,2.0,2.0,phase_1,,,,,,,,,,,,,green,I
313.0,2.0,2.0,0.0,2.0,2.0,415.9219929999835,2.0,1.0,phase_1,,,,,,,,,,,,,magenta,cross
1306.0,4.0,4.0,0.0,3.0,3.0,324.0468429999055,2.0,1.0,phase_1,,,,,,,,,,,,,green,I
330.0,2.0,2.0,0.0,4.0,4.0,325.4790869998487,2.0,1.0,phase_1,,,,,,,,,,,,,magenta,cross
308.0,2.0,2.0,0.0,1.0,1.0,369.2471990000285,2.0,2.0,phase_1,,,,,,,,,,,,,magenta,cross
646.0,7.0,3.0,1.0,3.0,3.0,331.8619090000538,2.0,2.0,phase_1,,,,,,,,,,,,,yellow,triangle
0.0,3.0,0.0,0.0,3.0,3.0,294.2161080000005,2.0,1.0,phase_1,,,,,,,,,,,,,cyan,circle
335.0,6.0,2.0,1.0,4.0,4.0,360.6206940000902,2.0,1.0,phase_1,,,,,,,,,,,,,orange,hexagon
155.0,1.0,1.0,0.0,3.0,3.0,323.0821760000708,2.0,1.0,phase_1,,,,,,,,,,,,,blue,flipped triangle
1312.0,4.0,4.0,0.0,3.0,3.0,332.0175409999137,2.0,1.0,phase_1,,,,,,,,,,,,,green,I
168.0,5.0,1.0,1.0,3.0,3.0,324.1912569999385,2.0,1.0,phase_1,,,,,,,,,,,,,gray,diamond
151.0,5.0,1.0,1.0,3.0,3.0,313.7621230000604,2.0,1.0,phase_1,,,,,,,,,,,,,gray,diamond
0.0,1.0,0.0,0.0,2.0,2.0,332.1020780001618,2.0,1.0,phase_1,,,,,,,,,,,,,blue,flipped triangle
0.0,2.0,0.0,0.0,3.0,3.0,297.5322489999144,2.0,1.0,phase_1,,,,,,,,,,,,,magenta,cross
321.0,2.0,2.0,0.0,3.0,3.0,305.4486789999373,2.0,1.0,phase_1,,,,,,,,,,,,,magenta,cross
145.0,5.0,1.0,1.0,4.0,4.0,398.0501580001601,2.0,1.0,phase_1,,,,,,,,,,,,,gray,diamond
169.0,5.0,1.0,1.0,4.0,4.0,388.9540039999701,2.0,1.0,phase_1,,,,,,,,,,,,,gray,diamond
665.0,7.0,3.0,1.0,2.0,2.0,509.2578169999342,2.0,1.0,phase_1,,,,,,,,,,,,,yellow,triangle
174.0,1.0,1.0,0.0,1.0,1.0,407.9737510000996,2.0,1.0,phase_1,,,,,,,,,,,,,blue,flipped triangle
1291.0,8.0,4.0,1.0,1.0,1.0,380.5957950000902,2.0,1.0,phase_1,,,,,,,,,,,,,white,square
1316.0,4.0,4.0,0.0,1.0,1.0,389.5751669999754,2.0,1.0,phase_1,,,,,,,,,,,,,green,I
661.0,3.0,3.0,0.0,3.0,3.0,378.0925999999454,2.0,1.0,phase_1,,,,,,,,,,,,,cyan,circle
308.0,6.0,2.0,1.0,2.0,2.0,305.4190150000977,2.0,1.0,phase_1,,,,,,,,,,,,,orange,hexagon
1323.0,4.0,4.0,0.0,4.0,4.0,452.6941799999804,2.0,2.0,phase_1,,,,,,,,,,,,,green,I
665.0,3.0,3.0,0.0,1.0,1.0,425.0799109997842,2.0,1.0,phase_1,,,,,,,,,,,,,cyan,circle
154.0,1.0,1.0,0.0,1.0,1.0,432.4554500001341,2.0,1.0,phase_1,,,,,,,,,,,,,blue,flipped triangle
311.0,6.0,2.0,1.0,2.0,2.0,378.7387740001122,2.0,1.0,phase_1,,,,,,,,,,,,,orange,hexagon
338.0,6.0,2.0,1.0,1.0,1.0,406.4426100001128,2.0,1.0,phase_1,,,,,,,,,,,,,orange,hexagon
336.0,2.0,2.0,0.0,1.0,1.0,370.231461000003,2.0,1.0,phase_1,,,,,,,,,,,,,magenta,cross
144.0,1.0,1.0,0.0,4.0,4.0,462.0819639999354,2.0,1.0,phase_1,,,,,,,,,,,,,blue,flipped triangle
315.0,2.0,2.0,0.0,3.0,3.0,388.0039989999204,2.0,1.0,phase_1,,,,,,,,,,,,,magenta,cross
0.0,6.0,0.0,1.0,1.0,1.0,434.4243159998768,2.0,1.0,phase_1,,,,,,,,,,,,,orange,hexagon
653.0,7.0,3.0,1.0,2.0,2.0,361.0982220000096,2.0,1.0,phase_1,,,,,,,,,,,,,yellow,triangle
162.0,5.0,1.0,1.0,3.0,3.0,322.1744910001689,2.0,1.0,phase_1,,,,,,,,,,,,,gray,diamond
0.0,2.0,0.0,0.0,1.0,1.0,508.1330010000329,2.0,1.0,phase_1,,,,,,,,,,,,,magenta,cross
308.0,6.0,2.0,1.0,2.0,2.0,415.6714010000542,2.0,1.0,phase_1,,,,,,,,,,,,,orange,hexagon
329.0,2.0,2.0,0.0,2.0,2.0,369.9803699998938,2.0,1.0,phase_1,,,,,,,,,,,,,magenta,cross
632.0,3.0,3.0,0.0,1.0,1.0,360.199190000003,2.0,1.0,phase_1,,,,,,,,,,,,,cyan,circle
330.0,2.0,2.0,0.0,1.0,1.0,414.8454310000034,2.0,1.0,phase_1,,,,,,,,,,,,,magenta,cross
0.0,7.0,0.0,1.0,1.0,1.0,378.9402880001944,2.0,1.0,phase_1,,,,,,,,,,,,,yellow,triangle
1279.0,8.0,4.0,1.0,4.0,4.0,463.1896870000673,2.0,1.0,phase_1,,,,,,,,,,,,,white,square
0.0,2.0,0.0,0.0,3.0,3.0,426.6388000000916,2.0,1.0,phase_1,,,,,,,,,,,,,magenta,cross
659.0,7.0,3.0,1.0,4.0,4.0,387.7728019999722,2.0,1.0,phase_1,,,,,,,,,,,,,yellow,triangle
0.0,8.0,0.0,1.0,4.0,4.0,408.3553320001556,2.0,1.0,phase_1,,,,,,,,,,,,,white,square
176.0,5.0,1.0,1.0,2.0,2.0,360.6248099999902,2.0,1.0,phase_1,,,,,,,,,,,,,gray,diamond
673.0,3.0,3.0,0.0,4.0,4.0,314.87700299999227,2.0,1.0,phase_1,,,,,,,,,,,,,cyan,circle
317.0,2.0,2.0,0.0,4.0,4.0,342.7647329999672,2.0,1.0,phase_1,,,,,,,,,,,,,magenta,cross
308.0,2.0,2.0,0.0,3.0,3.0,341.2835859999177,2.0,1.0,phase_1,,,,,,,,,,,,,magenta,cross
665.0,3.0,3.0,0.0,2.0,2.0,360.5150409998714,2.0,1.0,phase_1,,,,,,,,,,,,,cyan,circle
302.0,6.0,2.0,1.0,2.0,2.0,417.3283850000189,2.0,1.0,phase_1,,,,,,,,,,,,,orange,hexagon
142.0,5.0,1.0,1.0,3.0,3.0,361.593085999857,2.0,1.0,phase_1,,,,,,,,,,,,,gray,diamond
157.0,5.0,1.0,1.0,2.0,2.0,332.9579119999835,2.0,1.0,phase_1,,,,,,,,,,,,,gray,diamond
0.0,4.0,0.0,0.0,3.0,3.0,351.0126020000825,2.0,1.0,phase_1,,,,,,,,,,,,,green,I
333.0,6.0,2.0,1.0,3.0,3.0,360.8750199998667,2.0,1.0,phase_1,,,,,,,,,,,,,orange,hexagon
646.0,3.0,3.0,0.0,4.0,4.0,377.6380940000763,2.0,1.0,phase_1,,,,,,,,,,,,,cyan,circle
1319.0,8.0,4.0,1.0,1.0,1.0,435.5734279999979,2.0,1.0,phase_1,,,,,,,,,,,,,white,square
0.0,2.0,0.0,0.0,3.0,3.0,333.73269599997,2.0,1.0,phase_1,,,,,,,,,,,,,magenta,cross
641.0,7.0,3.0,1.0,1.0,1.0,451.2312449999172,3.0,1.0,phase_1,,,,,,,,,,,,,yellow,triangle
1290.0,8.0,4.0,1.0,3.0,3.0,378.1791510000403,3.0,1.0,phase_1,,,,,,,,,,,,,white,square
171.0,1.0,1.0,0.0,2.0,2.0,368.7718589999349,3.0,1.0,phase_1,,,,,,,,,,,,,blue,flipped triangle
0.0,4.0,0.0,0.0,2.0,2.0,334.4328220000534,3.0,1.0,phase_1,,,,,,,,,,,,,green,I
155.0,5.0,1.0,1.0,1.0,1.0,443.4963749999951,3.0,1.0,phase_1,,,,,,,,,,,,,gray,diamond
0.0,7.0,0.0,1.0,4.0,4.0,359.6380039998621,3.0,1.0,phase_1,,,,,,,,,,,,,yellow,triangle
0.0,2.0,0.0,0.0,2.0,2.0,314.2165159999877,3.0,1.0,phase_1,,,,,,,,,,,,,magenta,cross
348.0,2.0,2.0,0.0,2.0,2.0,359.1495989999202,3.0,1.0,phase_1,,,,,,,,,,,,,magenta,cross
327.0,2.0,2.0,0.0,2.0,2.0,313.8422110000647,3.0,1.0,phase_1,,,,,,,,,,,,,magenta,cross
145.0,1.0,1.0,0.0,3.0,3.0,351.7815069999415,3.0,1.0,phase_1,,,,,,,,,,,,,blue,flipped triangle
640.0,3.0,3.0,0.0,2.0,2.0,314.3734200000381,3.0,1.0,phase_1,,,,,,,,,,,,,cyan,circle
0.0,2.0,0.0,0.0,3.0,3.0,295.6063169999652,3.0,1.0,phase_1,,,,,,,,,,,,,magenta,cross
349.0,2.0,2.0,0.0,1.0,1.0,405.3314760001285,3.0,1.0,phase_1,,,,,,,,,,,,,magenta,cross
0.0,3.0,0.0,0.0,2.0,2.0,387.6460989999941,3.0,1.0,phase_1,,,,,,,,,,,,,cyan,circle
0.0,2.0,0.0,0.0,3.0,3.0,332.6773639998919,3.0,1.0,phase_1,,,,,,,,,,,,,magenta,cross
0.0,4.0,0.0,0.0,3.0,3.0,396.753579999995,3.0,1.0,phase_1,,,,,,,,,,,,,green,I
659.0,7.0,3.0,1.0,4.0,4.0,487.7246410001135,3.0,1.0,phase_1,,,,,,,,,,,,,yellow,triangle
174.0,1.0,1.0,0.0,1.0,1.0,387.8165400001307,3.0,1.0,phase_1,,,,,,,,,,,,,blue,flipped triangle
184.0,1.0,1.0,0.0,1.0,1.0,524.5960929999001,3.0,1.0,phase_1,,,,,,,,,,,,,blue,flipped triangle
659.0,3.0,3.0,0.0,2.0,2.0,377.2323880000385,3.0,1.0,phase_1,,,,,,,,,,,,,cyan,circle
175.0,1.0,1.0,0.0,1.0,1.0,395.5113510000956,3.0,1.0,phase_1,,,,,,,,,,,,,blue,flipped triangle
0.0,4.0,0.0,0.0,1.0,1.0,386.5770479999355,3.0,1.0,phase_1,,,,,,,,,,,,,green,I
303.0,6.0,2.0,1.0,3.0,3.0,359.0793710000071,3.0,1.0,phase_1,,,,,,,,,,,,,orange,hexagon
0.0,5.0,0.0,1.0,2.0,2.0,385.5617399999573,3.0,1.0,phase_1,,,,,,,,,,,,,gray,diamond
0.0,5.0,0.0,1.0,1.0,1.0,359.1330269998707,3.0,1.0,phase_1,,,,,,,,,,,,,gray,diamond
139.0,1.0,1.0,0.0,4.0,4.0,441.0367880000194,3.0,1.0,phase_1,,,,,,,,,,,,,blue,flipped triangle
0.0,6.0,0.0,1.0,4.0,4.0,413.5510060000342,3.0,1.0,phase_1,,,,,,,,,,,,,orange,hexagon
181.0,5.0,1.0,1.0,4.0,4.0,368.3389650000208,3.0,1.0,phase_1,,,,,,,,,,,,,gray,diamond
1319.0,4.0,4.0,0.0,1.0,1.0,387.7966799998376,3.0,1.0,phase_1,,,,,,,,,,,,,green,I
184.0,1.0,1.0,0.0,2.0,2.0,326.5651429999252,3.0,1.0,phase_1,,,,,,,,,,,,,blue,flipped triangle
1301.0,8.0,4.0,1.0,4.0,4.0,498.0958710000323,3.0,1.0,phase_1,,,,,,,,,,,,,white,square
145.0,5.0,1.0,1.0,1.0,1.0,451.9528109999555,3.0,1.0,phase_1,,,,,,,,,,,,,gray,diamond
636.0,7.0,3.0,1.0,2.0,2.0,360.5790470001011,3.0,1.0,phase_1,,,,,,,,,,,,,yellow,triangle
1321.0,4.0,4.0,0.0,1.0,1.0,423.4176520001256,3.0,1.0,phase_1,,,,,,,,,,,,,green,I
303.0,6.0,2.0,1.0,4.0,4.0,388.2155500000408,3.0,1.0,phase_1,,,,,,,,,,,,,orange,hexagon
333.0,2.0,2.0,0.0,4.0,4.0,424.2029750000711,3.0,1.0,phase_1,,,,,,,,,,,,,magenta,cross
0.0,6.0,0.0,1.0,1.0,1.0,460.0780470000245,3.0,1.0,phase_1,,,,,,,,,,,,,orange,hexagon
0.0,1.0,0.0,0.0,2.0,2.0,359.4939710001199,3.0,1.0,phase_1,,,,,,,,,,,,,blue,flipped triangle
662.0,3.0,3.0,0.0,2.0,2.0,387.3982669999805,3.0,1.0,phase_1,,,,,,,,,,,,,cyan,circle
330.0,6.0,2.0,1.0,1.0,1.0,410.4119809999247,3.0,1.0,phase_1,,,,,,,,,,,,,orange,hexagon
653.0,7.0,3.0,1.0,2.0,2.0,358.3168130001013,3.0,1.0,phase_1,,,,,,,,,,,,,yellow,triangle
1312.0,8.0,4.0,1.0,1.0,1.0,343.6691930000961,3.0,1.0,phase_1,,,,,,,,,,,,,white,square
148.0,5.0,1.0,1.0,3.0,3.0,379.0380079999522,3.0,1.0,phase_1,,,,,,,,,,,,,gray,diamond
306.0,6.0,2.0,1.0,1.0,1.0,326.4766730001156,3.0,1.0,phase_1,,,,,,,,,,,,,orange,hexagon
667.0,7.0,3.0,1.0,3.0,3.0,387.7603649998491,3.0,1.0,phase_1,,,,,,,,,,,,,yellow,triangle
159.0,1.0,1.0,0.0,1.0,1.0,432.0356719999836,3.0,1.0,phase_1,,,,,,,,,,,,,blue,flipped triangle
633.0,7.0,3.0,1.0,3.0,3.0,387.2035280001,3.0,1.0,phase_1,,,,,,,,,,,,,yellow,triangle
346.0,6.0,2.0,1.0,4.0,4.0,441.7997960001685,3.0,1.0,phase_1,,,,,,,,,,,,,orange,hexagon
0.0,3.0,0.0,0.0,2.0,2.0,331.2112179999076,3.0,1.0,phase_1,,,,,,,,,,,,,cyan,circle
1323.0,4.0,4.0,0.0,1.0,1.0,423.3910460000061,3.0,1.0,phase_1,,,,,,,,,,,,,green,I
1306.0,8.0,4.0,1.0,2.0,2.0,331.3790449999487,3.0,1.0,phase_1,,,,,,,,,,,,,white,square
159.0,5.0,1.0,1.0,3.0,3.0,457.7785619999304,3.0,1.0,phase_1,,,,,,,,,,,,,gray,diamond
0.0,1.0,0.0,0.0,1.0,1.0,322.9195179999351,3.0,1.0,phase_1,,,,,,,,,,,,,blue,flipped triangle
1283.0,8.0,4.0,1.0,2.0,2.0,350.6244360000892,3.0,1.0,phase_1,,,,,,,,,,,,,white,square
339.0,6.0,2.0,1.0,1.0,1.0,378.2009459998789,3.0,1.0,phase_1,,,,,,,,,,,,,orange,hexagon
310.0,6.0,2.0,1.0,2.0,2.0,313.3462909997888,3.0,1.0,phase_1,,,,,,,,,,,,,orange,hexagon
350.0,6.0,2.0,1.0,4.0,4.0,369.3657970000004,3.0,1.0,phase_1,,,,,,,,,,,,,orange,hexagon
308.0,2.0,2.0,0.0,4.0,4.0,395.4343989998961,3.0,1.0,phase_1,,,,,,,,,,,,,magenta,cross
313.0,6.0,2.0,1.0,1.0,1.0,382.8610489999846,3.0,1.0,phase_1,,,,,,,,,,,,,orange,hexagon
672.0,3.0,3.0,0.0,3.0,3.0,354.7061159999884,3.0,1.0,phase_1,,,,,,,,,,,,,cyan,circle
174.0,5.0,1.0,1.0,1.0,1.0,371.5327280001474,3.0,1.0,phase_1,,,,,,,,,,,,,gray,diamond
633.0,3.0,3.0,0.0,2.0,2.0,322.0525140000063,3.0,1.0,phase_1,,,,,,,,,,,,,cyan,circle
350.0,2.0,2.0,0.0,2.0,2.0,387.967258999879,3.0,1.0,phase_1,,,,,,,,,,,,,magenta,cross
1318.0,8.0,4.0,1.0,2.0,2.0,309.4908529999429,3.0,1.0,phase_1,,,,,,,,,,,,,white,square
308.0,6.0,2.0,1.0,1.0,1.0,314.6635649998188,3.0,1.0,phase_1,,,,,,,,,,,,,orange,hexagon
0.0,8.0,0.0,1.0,2.0,2.0,341.7544999999791,3.0,1.0,phase_1,,,,,,,,,,,,,white,square
0.0,8.0,0.0,1.0,1.0,1.0,316.4527000001271,3.0,1.0,phase_1,,,,,,,,,,,,,white,square
158.0,5.0,1.0,1.0,3.0,3.0,352.7601900000263,3.0,1.0,phase_1,,,,,,,,,,,,,gray,diamond
1275.0,8.0,4.0,1.0,3.0,3.0,378.1183020000753,3.0,1.0,phase_1,,,,,,,,,,,,,white,square
662.0,7.0,3.0,1.0,1.0,1.0,387.4650509999355,3.0,1.0,phase_1,,,,,,,,,,,,,yellow,triangle
656.0,3.0,3.0,0.0,1.0,1.0,437.2778330000528,3.0,1.0,phase_1,,,,,,,,,,,,,cyan,circle
346.0,2.0,2.0,0.0,1.0,1.0,353.2763260000138,3.0,1.0,phase_1,,,,,,,,,,,,,magenta,cross
1294.0,8.0,4.0,1.0,2.0,2.0,331.2744459999521,3.0,1.0,phase_1,,,,,,,,,,,,,white,square
0.0,6.0,0.0,1.0,3.0,3.0,359.5242369999596,3.0,1.0,phase_1,,,,,,,,,,,,,orange,hexagon
310.0,2.0,2.0,0.0,1.0,1.0,461.192887000152,3.0,1.0,phase_1,,,,,,,,,,,,,magenta,cross
1320.0,8.0,4.0,1.0,2.0,2.0,321.5700900000229,3.0,1.0,phase_1,,,,,,,,,,,,,white,square
312.0,6.0,2.0,1.0,3.0,3.0,349.4892769999751,3.0,1.0,phase_1,,,,,,,,,,,,,orange,hexagon
656.0,7.0,3.0,1.0,1.0,1.0,312.8267449999384,3.0,1.0,phase_1,,,,,,,,,,,,,yellow,triangle
182.0,5.0,1.0,1.0,4.0,4.0,303.3275610000601,3.0,1.0,phase_1,,,,,,,,,,,,,gray,diamond
185.0,5.0,1.0,1.0,4.0,4.0,322.7093880000211,3.0,1.0,phase_1,,,,,,,,,,,,,gray,diamond
1307.0,8.0,4.0,1.0,1.0,1.0,352.566852000109,3.0,1.0,phase_1,,,,,,,,,,,,,white,square
323.0,2.0,2.0,0.0,2.0,2.0,379.3720240000766,3.0,1.0,phase_1,,,,,,,,,,,,,magenta,cross
0.0,5.0,0.0,1.0,1.0,1.0,350.4447029999937,3.0,1.0,phase_1,,,,,,,,,,,,,gray,diamond
672.0,7.0,3.0,1.0,1.0,1.0,313.5910839998814,3.0,1.0,phase_1,,,,,,,,,,,,,yellow,triangle
643.0,3.0,3.0,0.0,1.0,1.0,333.3344409998062,3.0,1.0,phase_1,,,,,,,,,,,,,cyan,circle
168.0,1.0,1.0,0.0,3.0,3.0,385.6809760000033,3.0,1.0,phase_1,,,,,,,,,,,,,blue,flipped triangle
0.0,6.0,0.0,1.0,2.0,2.0,341.2522699998135,3.0,1.0,phase_1,,,,,,,,,,,,,orange,hexagon
1294.0,4.0,4.0,0.0,3.0,3.0,348.6698159999832,3.0,1.0,phase_1,,,,,,,,,,,,,green,I
0.0,5.0,0.0,1.0,3.0,3.0,359.0536100000463,3.0,1.0,phase_1,,,,,,,,,,,,,gray,diamond
0.0,2.0,0.0,0.0,2.0,2.0,469.132725999998,3.0,1.0,phase_1,,,,,,,,,,,,,magenta,cross
168.0,1.0,1.0,0.0,3.0,3.0,367.5875460000952,3.0,1.0,phase_1,,,,,,,,,,,,,blue,flipped triangle
164.0,5.0,1.0,1.0,4.0,4.0,443.2748439999159,3.0,1.0,phase_1,,,,,,,,,,,,,gray,diamond
1275.0,4.0,4.0,0.0,1.0,1.0,340.6476369998472,3.0,1.0,phase_1,,,,,,,,,,,,,green,I
0.0,4.0,0.0,0.0,3.0,3.0,358.1829019999532,3.0,1.0,phase_1,,,,,,,,,,,,,green,I
348.0,2.0,2.0,0.0,3.0,3.0,358.6779549998482,3.0,1.0,phase_1,,,,,,,,,,,,,magenta,cross
1294.0,4.0,4.0,0.0,1.0,1.0,517.3822930000824,3.0,1.0,phase_1,,,,,,,,,,,,,green,I
0.0,8.0,0.0,1.0,2.0,2.0,396.9746689999738,3.0,1.0,phase_1,,,,,,,,,,,,,white,square
1312.0,4.0,4.0,0.0,4.0,4.0,414.8459850000563,3.0,1.0,phase_1,,,,,,,,,,,,,green,I
339.0,2.0,2.0,0.0,3.0,3.0,359.366307000073,3.0,1.0,phase_1,,,,,,,,,,,,,magenta,cross
0.0,1.0,0.0,0.0,3.0,3.0,340.9251030000177,3.0,1.0,phase_1,,,,,,,,,,,,,blue,flipped triangle
1321.0,8.0,4.0,1.0,1.0,1.0,414.7782709999319,4.0,1.0,phase_1,,,,,,,,,,,,,white,square
317.0,6.0,2.0,1.0,4.0,4.0,386.2781729999369,4.0,1.0,phase_1,,,,,,,,,,,,,orange,hexagon
171.0,1.0,1.0,0.0,4.0,4.0,341.2792849999277,4.0,1.0,phase_1,,,,,,,,,,,,,blue,flipped triangle
1288.0,4.0,4.0,0.0,4.0,4.0,313.2807980000507,4.0,1.0,phase_1,,,,,,,,,,,,,green,I
315.0,6.0,2.0,1.0,3.0,3.0,359.1159499999321,4.0,1.0,phase_1,,,,,,,,,,,,,orange,hexagon
665.0,7.0,3.0,1.0,2.0,2.0,305.2010919998338,4.0,1.0,phase_1,,,,,,,,,,,,,yellow,triangle
638.0,3.0,3.0,0.0,1.0,1.0,341.5243090000786,4.0,1.0,phase_1,,,,,,,,,,,,,cyan,circle
323.0,6.0,2.0,1.0,3.0,3.0,313.4248420001313,4.0,1.0,phase_1,,,,,,,,,,,,,orange,hexagon
348.0,6.0,2.0,1.0,1.0,1.0,323.7540279999393,4.0,1.0,phase_1,,,,,,,,,,,,,orange,hexagon
157.0,5.0,1.0,1.0,1.0,1.0,323.4328430000914,4.0,1.0,phase_1,,,,,,,,,,,,,gray,diamond
647.0,7.0,3.0,1.0,2.0,2.0,305.345213999999,4.0,1.0,phase_1,,,,,,,,,,,,,yellow,triangle
0.0,2.0,0.0,0.0,3.0,3.0,331.777756000065,4.0,1.0,phase_1,,,,,,,,,,,,,magenta,cross
625.0,3.0,3.0,0.0,4.0,4.0,452.7338770001279,4.0,1.0,phase_1,,,,,,,,,,,,,cyan,circle
644.0,7.0,3.0,1.0,4.0,4.0,351.1649520000901,4.0,1.0,phase_1,,,,,,,,,,,,,yellow,triangle
0.0,7.0,0.0,1.0,3.0,3.0,396.4876949999052,4.0,1.0,phase_1,,,,,,,,,,,,,yellow,triangle
162.0,1.0,1.0,0.0,4.0,4.0,332.5554289999672,4.0,1.0,phase_1,,,,,,,,,,,,,blue,flipped triangle
312.0,2.0,2.0,0.0,2.0,2.0,295.0397999998131,4.0,1.0,phase_1,,,,,,,,,,,,,magenta,cross
1297.0,8.0,4.0,1.0,3.0,3.0,276.3199600001371,4.0,1.0,phase_1,,,,,,,,,,,,,white,square
1291.0,4.0,4.0,0.0,4.0,4.0,313.805900999796,4.0,1.0,phase_1,,,,,,,,,,,,,green,I
1276.0,4.0,4.0,0.0,1.0,1.0,350.1814890000787,4.0,1.0,phase_1,,,,,,,,,,,,,green,I
674.0,3.0,3.0,0.0,1.0,1.0,369.1182980001031,4.0,2.0,phase_1,,,,,,,,,,,,,cyan,circle
659.0,7.0,3.0,1.0,1.0,1.0,566.5472610000961,4.0,1.0,phase_1,,,,,,,,,,,,,yellow,triangle
1275.0,8.0,4.0,1.0,4.0,4.0,379.0714540000408,4.0,1.0,phase_1,,,,,,,,,,,,,white,square
0.0,3.0,0.0,0.0,1.0,1.0,286.0286200000246,4.0,1.0,phase_1,,,,,,,,,,,,,cyan,circle
1323.0,8.0,4.0,1.0,2.0,2.0,330.9702809999635,4.0,1.0,phase_1,,,,,,,,,,,,,white,square
179.0,1.0,1.0,0.0,3.0,3.0,351.8481820001398,4.0,1.0,phase_1,,,,,,,,,,,,,blue,flipped triangle
0.0,6.0,0.0,1.0,2.0,2.0,307.1466310000232,4.0,1.0,phase_1,,,,,,,,,,,,,orange,hexagon
632.0,7.0,3.0,1.0,2.0,2.0,350.8778679999977,4.0,1.0,phase_1,,,,,,,,,,,,,yellow,triangle
0.0,5.0,0.0,1.0,3.0,3.0,315.2462040000046,4.0,1.0,phase_1,,,,,,,,,,,,,gray,diamond
628.0,3.0,3.0,0.0,4.0,4.0,331.9239299999026,4.0,1.0,phase_1,,,,,,,,,,,,,cyan,circle
653.0,3.0,3.0,0.0,1.0,1.0,351.7133789998752,4.0,1.0,phase_1,,,,,,,,,,,,,cyan,circle
0.0,3.0,0.0,0.0,3.0,3.0,414.9548059999688,4.0,1.0,phase_1,,,,,,,,,,,,,cyan,circle
0.0,7.0,0.0,1.0,4.0,4.0,388.4492469999259,4.0,1.0,phase_1,,,,,,,,,,,,,yellow,triangle
673.0,7.0,3.0,1.0,4.0,4.0,321.6967509999904,4.0,1.0,phase_1,,,,,,,,,,,,,yellow,triangle
634.0,7.0,3.0,1.0,4.0,4.0,323.3406689998901,4.0,1.0,phase_1,,,,,,,,,,,,,yellow,triangle
1279.0,4.0,4.0,0.0,3.0,3.0,304.2705269999715,4.0,1.0,phase_1,,,,,,,,,,,,,green,I
1308.0,8.0,4.0,1.0,2.0,2.0,295.3944900000351,4.0,1.0,phase_1,,,,,,,,,,,,,white,square
669.0,7.0,3.0,1.0,3.0,3.0,305.1268889998937,4.0,1.0,phase_1,,,,,,,,,,,,,yellow,triangle
148.0,1.0,1.0,0.0,4.0,4.0,350.7027170001038,4.0,1.0,phase_1,,,,,,,,,,,,,blue,flipped triangle
665.0,3.0,3.0,0.0,4.0,4.0,323.6800069998935,4.0,1.0,phase_1,,,,,,,,,,,,,cyan,circle
633.0,7.0,3.0,1.0,2.0,2.0,405.2019099999597,4.0,1.0,phase_1,,,,,,,,,,,,,yellow,triangle
338.0,2.0,2.0,0.0,4.0,4.0,351.497277999897,4.0,1.0,phase_1,,,,,,,,,,,,,magenta,cross
667.0,3.0,3.0,0.0,4.0,4.0,314.3497359999401,4.0,1.0,phase_1,,,,,,,,,,,,,cyan,circle
674.0,7.0,3.0,1.0,1.0,1.0,286.5328800000952,4.0,1.0,phase_1,,,,,,,,,,,,,yellow,triangle
0.0,6.0,0.0,1.0,1.0,1.0,331.3630019999891,4.0,1.0,phase_1,,,,,,,,,,,,,orange,hexagon
325.0,6.0,2.0,1.0,4.0,4.0,333.1335279999621,4.0,1.0,phase_1,,,,,,,,,,,,,orange,hexagon
1319.0,8.0,4.0,1.0,4.0,4.0,380.0856770001246,4.0,1.0,phase_1,,,,,,,,,,,,,white,square
1297.0,8.0,4.0,1.0,2.0,2.0,294.5610680001209,4.0,1.0,phase_1,,,,,,,,,,,,,white,square
1295.0,4.0,4.0,0.0,2.0,2.0,321.5107010000793,4.0,1.0,phase_1,,,,,,,,,,,,,green,I
1297.0,4.0,4.0,0.0,4.0,4.0,379.8131770001873,4.0,1.0,phase_1,,,,,,,,,,,,,green,I
653.0,3.0,3.0,0.0,3.0,3.0,387.0682149999993,4.0,1.0,phase_1,,,,,,,,,,,,,cyan,circle
656.0,3.0,3.0,0.0,2.0,2.0,295.1686850001351,4.0,1.0,phase_1,,,,,,,,,,,,,cyan,circle
171.0,5.0,1.0,1.0,2.0,2.0,314.1759160000674,4.0,1.0,phase_1,,,,,,,,,,,,,gray,diamond
1282.0,8.0,4.0,1.0,1.0,1.0,378.4221680000428,4.0,1.0,phase_1,,,,,,,,,,,,,white,square
348.0,6.0,2.0,1.0,2.0,2.0,369.4698879999123,4.0,1.0,phase_1,,,,,,,,,,,,,orange,hexagon
169.0,5.0,1.0,1.0,2.0,2.0,314.7878259999288,4.0,1.0,phase_1,,,,,,,,,,,,,gray,diamond
643.0,7.0,3.0,1.0,1.0,1.0,370.0703959998463,4.0,2.0,phase_1,,,,,,,,,,,,,yellow,triangle
1312.0,8.0,4.0,1.0,2.0,2.0,381.0630609998497,4.0,1.0,phase_1,,,,,,,,,,,,,white,square
1315.0,4.0,4.0,0.0,2.0,2.0,323.4994110000571,4.0,1.0,phase_1,,,,,,,,,,,,,green,I
0.0,1.0,0.0,0.0,4.0,4.0,435.1111159999163,4.0,1.0,phase_1,,,,,,,,,,,,,blue,flipped triangle
0.0,5.0,0.0,1.0,2.0,2.0,350.9213899999395,4.0,1.0,phase_1,,,,,,,,,,,,,gray,diamond
344.0,6.0,2.0,1.0,3.0,3.0,516.3200409999718,4.0,1.0,phase_1,,,,,,,,,,,,,orange,hexagon
1295.0,8.0,4.0,1.0,3.0,3.0,351.6454479999993,4.0,1.0,phase_1,,,,,,,,,,,,,white,square
336.0,6.0,2.0,1.0,1.0,1.0,396.8559740001183,4.0,1.0,phase_1,,,,,,,,,,,,,orange,hexagon
647.0,3.0,3.0,0.0,3.0,3.0,342.6498339999853,4.0,1.0,phase_1,,,,,,,,,,,,,cyan,circle
0.0,3.0,0.0,0.0,1.0,1.0,351.4830130000064,4.0,1.0,phase_1,,,,,,,,,,,,,cyan,circle
152.0,1.0,1.0,0.0,2.0,2.0,350.5265259998396,4.0,1.0,phase_1,,,,,,,,,,,,,blue,flipped triangle
0.0,3.0,0.0,0.0,1.0,1.0,410.6265190000613,4.0,1.0,phase_1,,,,,,,,,,,,,cyan,circle
628.0,7.0,3.0,1.0,3.0,3.0,351.1957360001361,4.0,1.0,phase_1,,,,,,,,,,,,,yellow,triangle
0.0,8.0,0.0,1.0,2.0,2.0,314.9155010000868,4.0,1.0,phase_1,,,,,,,,,,,,,white,square
662.0,3.0,3.0,0.0,4.0,4.0,415.6609519998255,4.0,1.0,phase_1,,,,,,,,,,,,,cyan,circle
1319.0,4.0,4.0,0.0,2.0,2.0,323.0159209999783,4.0,1.0,phase_1,,,,,,,,,,,,,green,I
164.0,1.0,1.0,0.0,2.0,2.0,333.3561130000362,4.0,1.0,phase_1,,,,,,,,,,,,,blue,flipped triangle
644.0,3.0,3.0,0.0,2.0,2.0,323.2944689998476,4.0,1.0,phase_1,,,,,,,,,,,,,cyan,circle
174.0,1.0,1.0,0.0,3.0,3.0,322.4409809999997,4.0,1.0,phase_1,,,,,,,,,,,,,blue,flipped triangle
0.0,4.0,0.0,0.0,4.0,4.0,404.7873940000954,4.0,1.0,phase_1,,,,,,,,,,,,,green,I
0.0,7.0,0.0,1.0,1.0,1.0,303.9653180001096,4.0,1.0,phase_1,,,,,,,,,,,,,yellow,triangle
0.0,5.0,0.0,1.0,1.0,1.0,496.1805269999786,4.0,2.0,phase_1,,,,,,,,,,,,,gray,diamond
1316.0,8.0,4.0,1.0,4.0,4.0,424.2329730000165,4.0,1.0,phase_1,,,,,,,,,,,,,white,square
1297.0,4.0,4.0,0.0,3.0,3.0,571.1615159998473,4.0,1.0,phase_1,,,,,,,,,,,,,green,I
1323.0,8.0,4.0,1.0,4.0,4.0,461.628656999892,4.0,1.0,phase_1,,,,,,,,,,,,,white,square
0.0,8.0,0.0,1.0,4.0,4.0,415.684586999987,4.0,1.0,phase_1,,,,,,,,,,,,,white,square
1282.0,4.0,4.0,0.0,2.0,2.0,452.7571129999614,4.0,1.0,phase_1,,,,,,,,,,,,,green,I
174.0,5.0,1.0,1.0,1.0,1.0,453.3114020000539,4.0,1.0,phase_1,,,,,,,,,,,,,gray,diamond
1299.0,4.0,4.0,0.0,4.0,4.0,387.7772470000309,4.0,1.0,phase_1,,,,,,,,,,,,,green,I
632.0,7.0,3.0,1.0,4.0,4.0,516.0615210002106,4.0,1.0,phase_1,,,,,,,,,,,,,yellow,triangle
1293.0,4.0,4.0,0.0,2.0,2.0,341.3451159999567,4.0,1.0,phase_1,,,,,,,,,,,,,green,I
0.0,4.0,0.0,0.0,4.0,4.0,351.0163629998715,4.0,1.0,phase_1,,,,,,,,,,,,,green,I
654.0,3.0,3.0,0.0,4.0,4.0,414.8321810000652,4.0,1.0,phase_1,,,,,,,,,,,,,cyan,circle
326.0,2.0,2.0,0.0,1.0,1.0,368.8754750000953,4.0,1.0,phase_1,,,,,,,,,,,,,magenta,cross
1299.0,8.0,4.0,1.0,3.0,3.0,508.2702329998483,4.0,1.0,phase_1,,,,,,,,,,,,,white,square
1284.0,4.0,4.0,0.0,2.0,2.0,416.8762819999756,4.0,1.0,phase_1,,,,,,,,,,,,,green,I
327.0,6.0,2.0,1.0,4.0,4.0,480.0081630000932,4.0,1.0,phase_1,,,,,,,,,,,,,orange,hexagon
311.0,2.0,2.0,0.0,4.0,4.0,405.0343249998605,4.0,1.0,phase_1,,,,,,,,,,,,,magenta,cross
648.0,3.0,3.0,0.0,1.0,1.0,377.7225669998643,4.0,1.0,phase_1,,,,,,,,,,,,,cyan,circle
330.0,6.0,2.0,1.0,2.0,2.0,378.6924070000168,4.0,1.0,phase_1,,,,,,,,,,,,,orange,hexagon
142.0,1.0,1.0,0.0,3.0,3.0,368.0769789998521,4.0,1.0,phase_1,,,,,,,,,,,,,blue,flipped triangle
1286.0,4.0,4.0,0.0,3.0,3.0,359.664266999971,4.0,1.0,phase_1,,,,,,,,,,,,,green,I
1318.0,4.0,4.0,0.0,3.0,3.0,359.3464299999596,4.0,1.0,phase_1,,,,,,,,,,,,,green,I
0.0,8.0,0.0,1.0,4.0,4.0,387.386294999942,4.0,1.0,phase_1,,,,,,,,,,,,,white,square
0.0,4.0,4.0,0.0,6.0,6.0,489.3124349998743,1.0,1.0,phase_2,go,250.0,250.0,1.0,,,,,,,,,green,I
0.0,6.0,2.0,1.0,5.0,5.0,561.202799999819,1.0,1.0,phase_2,go,250.0,250.0,1.0,,,,,,,,,orange,hexagon
0.0,1.0,1.0,0.0,5.0,5.0,422.6983829998971,1.0,1.0,phase_2,go,250.0,250.0,1.0,,,,,,,,,blue,flipped triangle
0.0,2.0,2.0,0.0,6.0,6.0,625.0478490001115,1.0,1.0,phase_2,go,250.0,250.0,1.0,,,,,,,,,magenta,cross
0.0,3.0,3.0,0.0,5.0,5.0,442.6083289999951,1.0,1.0,phase_2,go,250.0,250.0,1.0,,,,,,,,,cyan,circle
0.0,4.0,4.0,0.0,5.0,5.0,552.1388869999555,1.0,1.0,phase_2,go,250.0,250.0,1.0,,,,,,,,,green,I
0.0,6.0,2.0,1.0,5.0,5.0,454.1733739999927,1.0,1.0,phase_2,go,250.0,250.0,1.0,,,,,,,,,orange,hexagon
0.0,6.0,2.0,1.0,5.0,5.0,619.390070999998,1.0,1.0,phase_2,stop,250.0,250.0,3.0,,,,,,,,,orange,hexagon
0.0,4.0,4.0,0.0,6.0,6.0,622.4146690001362,1.0,1.0,phase_2,go,200.0,250.0,1.0,,,,,,,,,green,I
0.0,5.0,1.0,1.0,6.0,0.0,0.0,1.0,1.0,phase_2,stop,200.0,250.0,4.0,,,,,,,,,gray,diamond
0.0,5.0,1.0,1.0,6.0,6.0,639.6924159998889,1.0,1.0,phase_2,go,200.0,300.0,1.0,,,,,,,,,gray,diamond
0.0,6.0,2.0,1.0,6.0,0.0,0.0,1.0,1.0,phase_2,stop,200.0,300.0,4.0,,,,,,,,,orange,hexagon
0.0,7.0,3.0,1.0,6.0,6.0,424.9857839995457,1.0,1.0,phase_2,stop,200.0,350.0,3.0,,,,,,,,,yellow,triangle
0.0,7.0,3.0,1.0,6.0,0.0,0.0,1.0,1.0,phase_2,stop,200.0,300.0,4.0,,,,,,,,,yellow,triangle
0.0,3.0,3.0,0.0,5.0,5.0,527.5654760002908,1.0,1.0,phase_2,go,200.0,350.0,1.0,,,,,,,,,cyan,circle
0.0,7.0,3.0,1.0,5.0,0.0,0.0,1.0,1.0,phase_2,stop,200.0,350.0,4.0,,,,,,,,,yellow,triangle
0.0,2.0,2.0,0.0,6.0,6.0,724.2245500001445,1.0,1.0,phase_2,go,250.0,350.0,1.0,,,,,,,,,magenta,cross
0.0,3.0,3.0,0.0,6.0,6.0,843.6909920001199,1.0,1.0,phase_2,go,250.0,350.0,1.0,,,,,,,,,cyan,circle
0.0,7.0,3.0,1.0,5.0,0.0,0.0,1.0,1.0,phase_2,stop,250.0,350.0,4.0,,,,,,,,,yellow,triangle
0.0,8.0,4.0,1.0,5.0,0.0,0.0,1.0,1.0,phase_2,stop,300.0,350.0,4.0,,,,,,,,,white,square
0.0,2.0,2.0,0.0,5.0,5.0,676.8513120000534,1.0,1.0,phase_2,go,350.0,350.0,1.0,,,,,,,,,magenta,cross
0.0,6.0,2.0,1.0,6.0,0.0,0.0,1.0,1.0,phase_2,stop,350.0,350.0,4.0,,,,,,,,,orange,hexagon
0.0,4.0,4.0,0.0,5.0,5.0,749.4969109998237,1.0,1.0,phase_2,go,350.0,400.0,1.0,,,,,,,,,green,I
0.0,8.0,4.0,1.0,5.0,5.0,851.1164250003276,1.0,1.0,phase_2,go,350.0,400.0,1.0,,,,,,,,,white,square
0.0,1.0,1.0,0.0,5.0,5.0,749.4434790000923,1.0,1.0,phase_2,go,350.0,400.0,1.0,,,,,,,,,blue,flipped triangle
0.0,4.0,4.0,0.0,5.0,5.0,715.4221389996565,1.0,1.0,phase_2,go,350.0,400.0,1.0,,,,,,,,,green,I
0.0,3.0,3.0,0.0,5.0,5.0,696.5894410000146,1.0,1.0,phase_2,go,350.0,400.0,1.0,,,,,,,,,cyan,circle
0.0,6.0,2.0,1.0,6.0,0.0,0.0,1.0,1.0,phase_2,stop,350.0,400.0,4.0,,,,,,,,,orange,hexagon
0.0,2.0,2.0,0.0,5.0,5.0,703.2638640002915,1.0,1.0,phase_2,go,350.0,450.0,1.0,,,,,,,,,magenta,cross
0.0,2.0,2.0,0.0,5.0,5.0,622.9334659997221,1.0,1.0,phase_2,go,350.0,450.0,1.0,,,,,,,,,magenta,cross
0.0,3.0,3.0,0.0,5.0,5.0,603.0847639999593,1.0,1.0,phase_2,go,350.0,450.0,1.0,,,,,,,,,cyan,circle
0.0,4.0,4.0,0.0,6.0,6.0,593.78712500029,1.0,1.0,phase_2,go,350.0,450.0,1.0,,,,,,,,,green,I
0.0,7.0,3.0,1.0,5.0,0.0,0.0,1.0,1.0,phase_2,stop,350.0,450.0,4.0,,,,,,,,,yellow,triangle
0.0,1.0,1.0,0.0,5.0,5.0,490.5259629999818,1.0,1.0,phase_2,go,400.0,450.0,1.0,,,,,,,,,blue,flipped triangle
0.0,6.0,2.0,1.0,6.0,6.0,646.8597490002139,1.0,1.0,phase_2,go,400.0,450.0,1.0,,,,,,,,,orange,hexagon
0.0,1.0,1.0,0.0,6.0,6.0,669.1061750002518,1.0,1.0,phase_2,go,400.0,450.0,1.0,,,,,,,,,blue,flipped triangle
0.0,1.0,1.0,0.0,6.0,6.0,707.0503939999071,2.0,1.0,phase_2,go,400.0,450.0,1.0,,,,,,,,,blue,flipped triangle
0.0,1.0,1.0,0.0,5.0,5.0,500.42018099975394,2.0,1.0,phase_2,go,400.0,450.0,1.0,,,,,,,,,blue,flipped triangle
0.0,8.0,4.0,1.0,6.0,0.0,0.0,2.0,1.0,phase_2,stop,400.0,450.0,4.0,,,,,,,,,white,square
0.0,6.0,2.0,1.0,5.0,5.0,583.9675410002201,2.0,1.0,phase_2,stop,400.0,500.0,3.0,,,,,,,,,orange,hexagon
0.0,5.0,1.0,1.0,6.0,6.0,599.5050620003894,2.0,1.0,phase_2,stop,350.0,500.0,3.0,,,,,,,,,gray,diamond
0.0,7.0,3.0,1.0,6.0,6.0,704.9715039997864,2.0,1.0,phase_2,go,350.0,450.0,1.0,,,,,,,,,yellow,triangle
0.0,3.0,3.0,0.0,6.0,6.0,865.5194070001926,2.0,1.0,phase_2,go,350.0,450.0,1.0,,,,,,,,,cyan,circle
0.0,6.0,2.0,1.0,6.0,0.0,0.0,2.0,1.0,phase_2,stop,350.0,450.0,4.0,,,,,,,,,orange,hexagon
0.0,5.0,1.0,1.0,6.0,6.0,723.3226269995612,2.0,1.0,phase_2,go,350.0,500.0,1.0,,,,,,,,,gray,diamond
0.0,1.0,1.0,0.0,5.0,5.0,854.1933179999432,2.0,1.0,phase_2,go,350.0,500.0,1.0,,,,,,,,,blue,flipped triangle
0.0,6.0,2.0,1.0,5.0,0.0,0.0,2.0,1.0,phase_2,stop,350.0,500.0,4.0,,,,,,,,,orange,hexagon
0.0,1.0,1.0,0.0,6.0,6.0,605.1760020000074,2.0,1.0,phase_2,go,400.0,500.0,1.0,,,,,,,,,blue,flipped triangle
0.0,3.0,3.0,0.0,6.0,6.0,779.5668220001062,2.0,1.0,phase_2,go,400.0,500.0,1.0,,,,,,,,,cyan,circle
0.0,7.0,3.0,1.0,5.0,5.0,836.097848999998,2.0,1.0,phase_2,go,400.0,500.0,1.0,,,,,,,,,yellow,triangle
0.0,1.0,1.0,0.0,5.0,5.0,483.0554850000226,2.0,1.0,phase_2,go,400.0,500.0,1.0,,,,,,,,,blue,flipped triangle
0.0,6.0,2.0,1.0,5.0,5.0,649.6623130001353,2.0,1.0,phase_2,go,400.0,500.0,1.0,,,,,,,,,orange,hexagon
0.0,2.0,2.0,0.0,6.0,6.0,558.4349899995686,2.0,1.0,phase_2,go,400.0,500.0,1.0,,,,,,,,,magenta,cross
0.0,8.0,4.0,1.0,5.0,0.0,0.0,2.0,1.0,phase_2,stop,400.0,500.0,4.0,,,,,,,,,white,square
0.0,1.0,1.0,0.0,6.0,6.0,493.0058069999177,2.0,1.0,phase_2,go,450.0,500.0,1.0,,,,,,,,,blue,flipped triangle
0.0,3.0,3.0,0.0,5.0,5.0,716.0916980001275,2.0,1.0,phase_2,go,450.0,500.0,1.0,,,,,,,,,cyan,circle
0.0,5.0,1.0,1.0,6.0,0.0,0.0,2.0,1.0,phase_2,stop,450.0,500.0,4.0,,,,,,,,,gray,diamond
0.0,6.0,2.0,1.0,5.0,5.0,549.7753559998273,2.0,1.0,phase_2,stop,450.0,550.0,3.0,,,,,,,,,orange,hexagon
0.0,6.0,2.0,1.0,6.0,0.0,0.0,2.0,1.0,phase_2,stop,400.0,550.0,4.0,,,,,,,,,orange,hexagon
0.0,2.0,2.0,0.0,5.0,5.0,817.4616159999459,2.0,1.0,phase_2,go,400.0,600.0,1.0,,,,,,,,,magenta,cross
0.0,5.0,1.0,1.0,6.0,0.0,0.0,2.0,1.0,phase_2,stop,400.0,600.0,4.0,,,,,,,,,gray,diamond
0.0,6.0,2.0,1.0,6.0,6.0,839.292769000167,2.0,1.0,phase_2,go,400.0,650.0,1.0,,,,,,,,,orange,hexagon
0.0,1.0,1.0,0.0,5.0,5.0,1084.9929430000884,2.0,1.0,phase_2,go,400.0,650.0,1.0,,,,,,,,,blue,flipped triangle
0.0,3.0,3.0,0.0,5.0,5.0,677.0382400000017,2.0,1.0,phase_2,go,400.0,650.0,1.0,,,,,,,,,cyan,circle
0.0,2.0,2.0,0.0,6.0,6.0,677.054877000046,2.0,1.0,phase_2,go,400.0,650.0,1.0,,,,,,,,,magenta,cross
0.0,5.0,1.0,1.0,5.0,5.0,751.7497769999864,2.0,1.0,phase_2,go,400.0,650.0,1.0,,,,,,,,,gray,diamond
0.0,6.0,2.0,1.0,6.0,6.0,798.8489309996112,2.0,1.0,phase_2,stop,400.0,650.0,3.0,,,,,,,,,orange,hexagon
0.0,2.0,2.0,0.0,6.0,6.0,870.6588519999059,2.0,1.0,phase_2,go,400.0,600.0,1.0,,,,,,,,,magenta,cross
0.0,4.0,4.0,0.0,5.0,5.0,1057.6314350000755,2.0,1.0,phase_2,go,400.0,600.0,1.0,,,,,,,,,green,I
0.0,1.0,1.0,0.0,6.0,6.0,797.7437399999872,2.0,1.0,phase_2,go,400.0,600.0,1.0,,,,,,,,,blue,flipped triangle
0.0,8.0,4.0,1.0,5.0,5.0,854.3308459998116,2.0,1.0,phase_2,go,400.0,600.0,1.0,,,,,,,,,white,square
0.0,3.0,3.0,0.0,6.0,6.0,815.4996039997968,2.0,1.0,phase_2,go,400.0,600.0,1.0,,,,,,,,,cyan,circle
0.0,4.0,4.0,0.0,5.0,5.0,547.9631990001508,3.0,1.0,phase_2,go,400.0,600.0,1.0,,,,,,,,,green,I
0.0,3.0,3.0,0.0,5.0,5.0,436.1516590001884,3.0,1.0,phase_2,go,400.0,600.0,1.0,,,,,,,,,cyan,circle
0.0,6.0,2.0,1.0,5.0,5.0,545.8708249998381,3.0,1.0,phase_2,go,400.0,600.0,1.0,,,,,,,,,orange,hexagon
0.0,6.0,2.0,1.0,5.0,0.0,0.0,3.0,1.0,phase_2,stop,400.0,600.0,4.0,,,,,,,,,orange,hexagon
0.0,1.0,1.0,0.0,5.0,5.0,639.9275270000544,3.0,1.0,phase_2,go,450.0,600.0,1.0,,,,,,,,,blue,flipped triangle
0.0,8.0,4.0,1.0,5.0,0.0,0.0,3.0,1.0,phase_2,stop,450.0,600.0,4.0,,,,,,,,,white,square
0.0,5.0,1.0,1.0,6.0,0.0,0.0,3.0,1.0,phase_2,stop,500.0,600.0,4.0,,,,,,,,,gray,diamond
0.0,2.0,2.0,0.0,5.0,5.0,760.7730599997922,3.0,1.0,phase_2,go,500.0,650.0,1.0,,,,,,,,,magenta,cross
0.0,5.0,1.0,1.0,6.0,6.0,777.9504360000828,3.0,1.0,phase_2,stop,500.0,650.0,3.0,,,,,,,,,gray,diamond
0.0,4.0,4.0,0.0,6.0,6.0,945.488886000021,3.0,1.0,phase_2,go,500.0,600.0,1.0,,,,,,,,,green,I
0.0,8.0,4.0,1.0,5.0,0.0,0.0,3.0,1.0,phase_2,stop,500.0,600.0,4.0,,,,,,,,,white,square
0.0,1.0,1.0,0.0,5.0,5.0,630.0983249998353,3.0,1.0,phase_2,go,550.0,600.0,1.0,,,,,,,,,blue,flipped triangle
0.0,1.0,1.0,0.0,6.0,6.0,925.5944269998508,3.0,1.0,phase_2,go,550.0,600.0,1.0,,,,,,,,,blue,flipped triangle
0.0,2.0,2.0,0.0,6.0,6.0,659.6581699996023,3.0,1.0,phase_2,go,550.0,600.0,1.0,,,,,,,,,magenta,cross
0.0,1.0,1.0,0.0,6.0,6.0,389.636996000263,3.0,1.0,phase_2,go,550.0,600.0,1.0,,,,,,,,,blue,flipped triangle
0.0,2.0,2.0,0.0,6.0,6.0,630.3944549999869,3.0,1.0,phase_2,go,550.0,600.0,1.0,,,,,,,,,magenta,cross
0.0,5.0,1.0,1.0,5.0,5.0,529.2000540002846,3.0,1.0,phase_2,stop,550.0,600.0,3.0,,,,,,,,,gray,diamond
0.0,3.0,3.0,0.0,6.0,6.0,668.2109799999125,3.0,1.0,phase_2,go,500.0,600.0,1.0,,,,,,,,,cyan,circle
0.0,8.0,4.0,1.0,6.0,0.0,0.0,3.0,1.0,phase_2,stop,500.0,600.0,4.0,,,,,,,,,white,square
0.0,1.0,1.0,0.0,6.0,6.0,769.8438289999103,3.0,1.0,phase_2,go,500.0,650.0,1.0,,,,,,,,,blue,flipped triangle
0.0,8.0,4.0,1.0,6.0,0.0,0.0,3.0,1.0,phase_2,stop,500.0,650.0,4.0,,,,,,,,,white,square
0.0,2.0,2.0,0.0,6.0,6.0,670.1776710001468,3.0,1.0,phase_2,go,500.0,700.0,1.0,,,,,,,,,magenta,cross
0.0,4.0,4.0,0.0,6.0,6.0,762.0169040001201,3.0,1.0,phase_2,go,500.0,700.0,1.0,,,,,,,,,green,I
0.0,8.0,4.0,1.0,6.0,6.0,854.0996650003763,3.0,1.0,phase_2,stop,500.0,700.0,3.0,,,,,,,,,white,square
0.0,6.0,2.0,1.0,6.0,0.0,0.0,3.0,1.0,phase_2,stop,500.0,650.0,4.0,,,,,,,,,orange,hexagon
0.0,4.0,4.0,0.0,5.0,5.0,918.7578299997768,3.0,1.0,phase_2,go,500.0,700.0,1.0,,,,,,,,,green,I
0.0,3.0,3.0,0.0,6.0,6.0,1030.4301479995956,3.0,1.0,phase_2,go,500.0,700.0,1.0,,,,,,,,,cyan,circle
0.0,5.0,1.0,1.0,5.0,0.0,0.0,3.0,1.0,phase_2,stop,500.0,700.0,4.0,,,,,,,,,gray,diamond
0.0,3.0,3.0,0.0,6.0,6.0,731.2025650003307,3.0,1.0,phase_2,go,550.0,700.0,1.0,,,,,,,,,cyan,circle
0.0,1.0,1.0,0.0,6.0,6.0,629.1696150001371,3.0,1.0,phase_2,go,550.0,700.0,1.0,,,,,,,,,blue,flipped triangle
0.0,3.0,3.0,0.0,6.0,6.0,594.2103289999068,3.0,1.0,phase_2,go,550.0,700.0,1.0,,,,,,,,,cyan,circle
0.0,5.0,1.0,1.0,5.0,5.0,660.679613999946,3.0,1.0,phase_2,go,550.0,700.0,1.0,,,,,,,,,gray,diamond
0.0,2.0,2.0,0.0,5.0,5.0,638.5082099995998,3.0,1.0,phase_2,go,550.0,700.0,1.0,,,,,,,,,magenta,cross
0.0,1.0,1.0,0.0,6.0,6.0,482.5053019999359,3.0,1.0,phase_2,go,550.0,700.0,1.0,,,,,,,,,blue,flipped triangle
0.0,3.0,3.0,0.0,5.0,5.0,409.4471839998732,3.0,1.0,phase_2,go,550.0,700.0,1.0,,,,,,,,,cyan,circle
0.0,3.0,3.0,0.0,6.0,6.0,465.1646889997209,3.0,1.0,phase_2,go,550.0,700.0,1.0,,,,,,,,,cyan,circle
0.0,5.0,1.0,1.0,5.0,5.0,464.4156009999278,4.0,1.0,phase_2,go,550.0,700.0,1.0,,,,,,,,,gray,diamond
0.0,5.0,1.0,1.0,5.0,5.0,657.157721999738,4.0,1.0,phase_2,stop,550.0,700.0,3.0,,,,,,,,,gray,diamond
0.0,3.0,3.0,0.0,6.0,6.0,388.8377450002735,4.0,1.0,phase_2,go,500.0,700.0,1.0,,,,,,,,,cyan,circle
0.0,4.0,4.0,0.0,5.0,5.0,687.3295709997365,4.0,1.0,phase_2,go,500.0,700.0,1.0,,,,,,,,,green,I
0.0,5.0,1.0,1.0,6.0,6.0,733.3407699998133,4.0,1.0,phase_2,stop,500.0,700.0,3.0,,,,,,,,,gray,diamond
0.0,5.0,1.0,1.0,5.0,0.0,0.0,4.0,1.0,phase_2,stop,500.0,650.0,4.0,,,,,,,,,gray,diamond
0.0,1.0,1.0,0.0,5.0,5.0,631.5809140000965,4.0,1.0,phase_2,go,550.0,650.0,1.0,,,,,,,,,blue,flipped triangle
0.0,5.0,1.0,1.0,6.0,0.0,0.0,4.0,1.0,phase_2,stop,550.0,650.0,4.0,,,,,,,,,gray,diamond
0.0,4.0,4.0,0.0,5.0,5.0,744.4916710001053,4.0,1.0,phase_2,go,550.0,700.0,1.0,,,,,,,,,green,I
0.0,6.0,2.0,1.0,6.0,0.0,0.0,4.0,1.0,phase_2,stop,550.0,700.0,4.0,,,,,,,,,orange,hexagon
0.0,4.0,4.0,0.0,5.0,5.0,500.4985920004401,4.0,1.0,phase_2,go,550.0,750.0,1.0,,,,,,,,,green,I
0.0,8.0,4.0,1.0,6.0,6.0,1001.7725360003169,4.0,1.0,phase_2,go,550.0,750.0,1.0,,,,,,,,,white,square
0.0,8.0,4.0,1.0,6.0,6.0,649.3186390002847,4.0,1.0,phase_2,stop,550.0,750.0,3.0,,,,,,,,,white,square
0.0,5.0,1.0,1.0,6.0,0.0,0.0,4.0,1.0,phase_2,stop,550.0,700.0,4.0,,,,,,,,,gray,diamond
0.0,4.0,4.0,0.0,6.0,6.0,594.5740719998867,4.0,1.0,phase_2,go,550.0,750.0,1.0,,,,,,,,,green,I
0.0,8.0,4.0,1.0,6.0,0.0,0.0,4.0,1.0,phase_2,stop,550.0,750.0,4.0,,,,,,,,,white,square
0.0,1.0,1.0,0.0,6.0,6.0,706.2743930000579,4.0,1.0,phase_2,go,550.0,800.0,1.0,,,,,,,,,blue,flipped triangle
0.0,8.0,4.0,1.0,5.0,0.0,0.0,4.0,1.0,phase_2,stop,550.0,800.0,4.0,,,,,,,,,white,square
0.0,6.0,2.0,1.0,5.0,0.0,0.0,4.0,1.0,phase_2,stop,600.0,800.0,4.0,,,,,,,,,orange,hexagon
0.0,3.0,3.0,0.0,5.0,5.0,537.3151750000034,4.0,1.0,phase_2,go,650.0,800.0,1.0,,,,,,,,,cyan,circle
0.0,2.0,2.0,0.0,6.0,6.0,974.0373200002068,4.0,1.0,phase_2,go,650.0,800.0,1.0,,,,,,,,,magenta,cross
0.0,2.0,2.0,0.0,5.0,5.0,688.1508189999295,4.0,1.0,phase_2,go,650.0,800.0,1.0,,,,,,,,,magenta,cross
0.0,8.0,4.0,1.0,5.0,0.0,0.0,4.0,1.0,phase_2,stop,650.0,800.0,4.0,,,,,,,,,white,square
0.0,3.0,3.0,0.0,5.0,5.0,455.6892719997449,4.0,1.0,phase_2,go,700.0,800.0,1.0,,,,,,,,,cyan,circle
0.0,6.0,2.0,1.0,5.0,5.0,795.764617000259,4.0,1.0,phase_2,stop,700.0,800.0,3.0,,,,,,,,,orange,hexagon
0.0,3.0,3.0,0.0,5.0,5.0,657.8540169998632,4.0,1.0,phase_2,go,650.0,800.0,1.0,,,,,,,,,cyan,circle
0.0,7.0,3.0,1.0,6.0,6.0,456.183160999899,4.0,1.0,phase_2,stop,650.0,800.0,3.0,,,,,,,,,yellow,triangle
0.0,8.0,4.0,1.0,6.0,6.0,1102.7639210001323,4.0,1.0,phase_2,go,650.0,750.0,1.0,,,,,,,,,white,square
0.0,2.0,2.0,0.0,5.0,5.0,704.5819400000255,4.0,1.0,phase_2,go,650.0,750.0,1.0,,,,,,,,,magenta,cross
0.0,5.0,1.0,1.0,5.0,5.0,683.7739890002013,4.0,1.0,phase_2,stop,650.0,750.0,3.0,,,,,,,,,gray,diamond
0.0,1.0,1.0,0.0,6.0,6.0,677.06936400009,4.0,1.0,phase_2,go,600.0,750.0,1.0,,,,,,,,,blue,flipped triangle
0.0,8.0,4.0,1.0,5.0,5.0,869.811290999678,4.0,1.0,phase_2,go,600.0,750.0,1.0,,,,,,,,,white,square
0.0,4.0,4.0,0.0,6.0,6.0,519.3581119997361,4.0,1.0,phase_2,go,600.0,750.0,1.0,,,,,,,,,green,I
0.0,7.0,3.0,1.0,5.0,5.0,695.9666059997289,4.0,1.0,phase_2,go,600.0,750.0,1.0,,,,,,,,,yellow,triangle
0.0,7.0,3.0,1.0,5.0,5.0,436.1133689999406,4.0,1.0,phase_2,go,600.0,750.0,1.0,,,,,,,,,yellow,triangle
0.0,4.0,4.0,0.0,5.0,5.0,472.5772580000011,4.0,1.0,phase_2,go,600.0,750.0,1.0,,,,,,,,,green,I
0.0,4.0,4.0,0.0,5.0,5.0,502.24691899984464,5.0,1.0,phase_2,go,600.0,750.0,1.0,,,,,,,,,green,I
0.0,5.0,1.0,1.0,6.0,6.0,473.5549779998109,5.0,1.0,phase_2,stop,600.0,750.0,3.0,,,,,,,,,gray,diamond
0.0,2.0,2.0,0.0,5.0,5.0,435.0837739998496,5.0,1.0,phase_2,go,600.0,700.0,1.0,,,,,,,,,magenta,cross
0.0,5.0,1.0,1.0,6.0,6.0,527.496530999997,5.0,1.0,phase_2,stop,600.0,700.0,3.0,,,,,,,,,gray,diamond
0.0,1.0,1.0,0.0,5.0,5.0,535.7859119999375,5.0,1.0,phase_2,go,600.0,650.0,1.0,,,,,,,,,blue,flipped triangle
0.0,4.0,4.0,0.0,5.0,5.0,380.6015400000433,5.0,1.0,phase_2,go,600.0,650.0,1.0,,,,,,,,,green,I
0.0,1.0,1.0,0.0,6.0,6.0,501.1318659999233,5.0,1.0,phase_2,go,600.0,650.0,1.0,,,,,,,,,blue,flipped triangle
0.0,6.0,2.0,1.0,6.0,0.0,0.0,5.0,1.0,phase_2,stop,600.0,650.0,4.0,,,,,,,,,orange,hexagon
0.0,6.0,2.0,1.0,5.0,5.0,768.2737730001463,5.0,1.0,phase_2,stop,600.0,700.0,3.0,,,,,,,,,orange,hexagon
0.0,6.0,2.0,1.0,5.0,5.0,962.555317999886,5.0,1.0,phase_2,go,550.0,700.0,1.0,,,,,,,,,orange,hexagon
0.0,4.0,4.0,0.0,6.0,6.0,527.9323630002182,5.0,1.0,phase_2,go,550.0,700.0,1.0,,,,,,,,,green,I
0.0,7.0,3.0,1.0,6.0,6.0,657.3038400001678,5.0,1.0,phase_2,stop,550.0,700.0,3.0,,,,,,,,,yellow,triangle
0.0,8.0,4.0,1.0,6.0,6.0,885.1190430000315,5.0,1.0,phase_2,stop,550.0,650.0,3.0,,,,,,,,,white,square
0.0,8.0,4.0,1.0,6.0,6.0,934.3852400002106,5.0,1.0,phase_2,go,550.0,600.0,1.0,,,,,,,,,white,square
0.0,7.0,3.0,1.0,5.0,0.0,0.0,5.0,1.0,phase_2,stop,550.0,600.0,4.0,,,,,,,,,yellow,triangle
0.0,5.0,1.0,1.0,5.0,0.0,0.0,5.0,1.0,phase_2,stop,600.0,600.0,4.0,,,,,,,,,gray,diamond
0.0,4.0,4.0,0.0,5.0,5.0,443.4772499998871,5.0,1.0,phase_2,go,650.0,600.0,1.0,,,,,,,,,green,I
0.0,5.0,1.0,1.0,6.0,0.0,0.0,5.0,1.0,phase_2,stop,650.0,600.0,4.0,,,,,,,,,gray,diamond
0.0,7.0,3.0,1.0,6.0,0.0,0.0,5.0,1.0,phase_2,stop,650.0,650.0,4.0,,,,,,,,,yellow,triangle
0.0,7.0,3.0,1.0,5.0,5.0,832.2946040002535,5.0,1.0,phase_2,go,650.0,700.0,1.0,,,,,,,,,yellow,triangle
0.0,3.0,3.0,0.0,6.0,6.0,555.4105510000227,5.0,1.0,phase_2,go,650.0,700.0,1.0,,,,,,,,,cyan,circle
0.0,3.0,3.0,0.0,5.0,5.0,426.0122440000486,5.0,1.0,phase_2,go,650.0,700.0,1.0,,,,,,,,,cyan,circle
0.0,2.0,2.0,0.0,6.0,6.0,472.9326390001915,5.0,1.0,phase_2,go,650.0,700.0,1.0,,,,,,,,,magenta,cross
0.0,5.0,1.0,1.0,5.0,5.0,917.2440869997444,5.0,1.0,phase_2,go,650.0,700.0,1.0,,,,,,,,,gray,diamond
0.0,8.0,4.0,1.0,6.0,6.0,809.4148750001295,5.0,1.0,phase_2,stop,650.0,700.0,3.0,,,,,,,,,white,square
0.0,8.0,4.0,1.0,5.0,0.0,0.0,5.0,1.0,phase_2,stop,650.0,650.0,4.0,,,,,,,,,white,square
0.0,7.0,3.0,1.0,5.0,5.0,736.4517350001734,5.0,1.0,phase_2,stop,700.0,650.0,3.0,,,,,,,,,yellow,triangle
0.0,3.0,3.0,0.0,5.0,5.0,573.7078919996748,5.0,1.0,phase_2,go,650.0,650.0,1.0,,,,,,,,,cyan,circle
0.0,3.0,3.0,0.0,5.0,5.0,804.8747409998214,5.0,1.0,phase_2,go,650.0,650.0,1.0,,,,,,,,,cyan,circle
0.0,5.0,1.0,1.0,6.0,0.0,0.0,5.0,1.0,phase_2,stop,650.0,650.0,4.0,,,,,,,,,gray,diamond
0.0,5.0,1.0,1.0,5.0,0.0,0.0,5.0,1.0,phase_2,stop,650.0,700.0,4.0,,,,,,,,,gray,diamond
0.0,7.0,3.0,1.0,6.0,6.0,748.7818479999078,5.0,1.0,phase_2,stop,700.0,700.0,3.0,,,,,,,,,yellow,triangle
0.0,7.0,3.0,1.0,6.0,6.0,778.5753729999669,5.0,1.0,phase_2,go,700.0,650.0,1.0,,,,,,,,,yellow,triangle
0.0,8.0,4.0,1.0,5.0,0.0,0.0,5.0,1.0,phase_2,stop,700.0,650.0,4.0,,,,,,,,,white,square
0.0,6.0,2.0,1.0,6.0,0.0,0.0,5.0,1.0,phase_2,stop,750.0,650.0,4.0,,,,,,,,,orange,hexagon
0.0,6.0,2.0,1.0,6.0,6.0,804.4839249996585,5.0,1.0,phase_2,stop,750.0,700.0,3.0,,,,,,,,,orange,hexagon
0.0,2.0,2.0,0.0,6.0,6.0,613.1179139997585,6.0,1.0,phase_2,go,750.0,650.0,1.0,,,,,,,,,magenta,cross
0.0,2.0,2.0,0.0,6.0,6.0,427.6126100003239,6.0,1.0,phase_2,go,750.0,650.0,1.0,,,,,,,,,magenta,cross
0.0,8.0,4.0,1.0,6.0,0.0,0.0,6.0,1.0,phase_2,stop,750.0,650.0,4.0,,,,,,,,,white,square
0.0,1.0,1.0,0.0,5.0,5.0,750.3489249997983,6.0,1.0,phase_2,go,750.0,700.0,1.0,,,,,,,,,blue,flipped triangle
0.0,5.0,1.0,1.0,5.0,0.0,0.0,6.0,1.0,phase_2,stop,750.0,700.0,4.0,,,,,,,,,gray,diamond
0.0,7.0,3.0,1.0,6.0,0.0,0.0,6.0,1.0,phase_2,stop,800.0,700.0,4.0,,,,,,,,,yellow,triangle
0.0,7.0,3.0,1.0,5.0,5.0,751.100641999983,6.0,1.0,phase_2,stop,800.0,750.0,3.0,,,,,,,,,yellow,triangle
0.0,1.0,1.0,0.0,5.0,5.0,594.6868370001539,6.0,1.0,phase_2,go,750.0,750.0,1.0,,,,,,,,,blue,flipped triangle
0.0,1.0,1.0,0.0,6.0,6.0,566.4873830000943,6.0,1.0,phase_2,go,750.0,750.0,1.0,,,,,,,,,blue,flipped triangle
0.0,4.0,4.0,0.0,5.0,5.0,491.3818179998088,6.0,1.0,phase_2,go,750.0,750.0,1.0,,,,,,,,,green,I
0.0,1.0,1.0,0.0,6.0,6.0,436.0468340000807,6.0,1.0,phase_2,go,750.0,750.0,1.0,,,,,,,,,blue,flipped triangle
0.0,4.0,4.0,0.0,6.0,6.0,510.8264389996293,6.0,1.0,phase_2,go,750.0,750.0,1.0,,,,,,,,,green,I
0.0,4.0,4.0,0.0,6.0,6.0,455.318563000219,6.0,1.0,phase_2,go,750.0,750.0,1.0,,,,,,,,,green,I
0.0,7.0,3.0,1.0,6.0,0.0,0.0,6.0,1.0,phase_2,stop,750.0,750.0,4.0,,,,,,,,,yellow,triangle
0.0,4.0,4.0,0.0,6.0,6.0,474.0079929997591,6.0,1.0,phase_2,go,750.0,800.0,1.0,,,,,,,,,green,I
0.0,6.0,2.0,1.0,6.0,0.0,0.0,6.0,1.0,phase_2,stop,750.0,800.0,4.0,,,,,,,,,orange,hexagon
0.0,2.0,2.0,0.0,5.0,5.0,621.3507510001364,6.0,1.0,phase_2,go,750.0,850.0,1.0,,,,,,,,,magenta,cross
0.0,6.0,2.0,1.0,6.0,0.0,0.0,6.0,1.0,phase_2,stop,750.0,850.0,4.0,,,,,,,,,orange,hexagon
0.0,1.0,1.0,0.0,6.0,6.0,510.3274080001938,6.0,1.0,phase_2,go,750.0,900.0,1.0,,,,,,,,,blue,flipped triangle
0.0,3.0,3.0,0.0,5.0,5.0,530.2585660001569,6.0,1.0,phase_2,go,750.0,900.0,1.0,,,,,,,,,cyan,circle
0.0,2.0,2.0,0.0,5.0,5.0,388.8523599998734,6.0,1.0,phase_2,go,750.0,900.0,1.0,,,,,,,,,magenta,cross
0.0,1.0,1.0,0.0,5.0,5.0,389.5614140001271,6.0,1.0,phase_2,go,750.0,900.0,1.0,,,,,,,,,blue,flipped triangle
0.0,8.0,4.0,1.0,5.0,0.0,0.0,6.0,1.0,phase_2,stop,750.0,900.0,4.0,,,,,,,,,white,square
0.0,5.0,1.0,1.0,5.0,0.0,0.0,6.0,1.0,phase_2,stop,800.0,900.0,4.0,,,,,,,,,gray,diamond
0.0,4.0,4.0,0.0,5.0,5.0,492.0477709997612,6.0,1.0,phase_2,go,850.0,900.0,1.0,,,,,,,,,green,I
0.0,1.0,1.0,0.0,5.0,5.0,501.7131119998339,6.0,1.0,phase_2,go,850.0,900.0,1.0,,,,,,,,,blue,flipped triangle
0.0,3.0,3.0,0.0,6.0,6.0,344.0724960000807,6.0,1.0,phase_2,go,850.0,900.0,1.0,,,,,,,,,cyan,circle
0.0,4.0,4.0,0.0,6.0,6.0,343.9278330001798,6.0,1.0,phase_2,go,850.0,900.0,1.0,,,,,,,,,green,I
0.0,3.0,3.0,0.0,5.0,5.0,427.3299609999412,6.0,1.0,phase_2,go,850.0,900.0,1.0,,,,,,,,,cyan,circle
0.0,2.0,2.0,0.0,5.0,5.0,399.3167640001047,6.0,1.0,phase_2,go,850.0,900.0,1.0,,,,,,,,,magenta,cross
0.0,3.0,3.0,0.0,5.0,5.0,352.8830210002525,6.0,1.0,phase_2,go,850.0,900.0,1.0,,,,,,,,,cyan,circle
0.0,8.0,4.0,1.0,5.0,5.0,1076.331491000019,6.0,1.0,phase_2,go,850.0,900.0,1.0,,,,,,,,,white,square
0.0,8.0,4.0,1.0,6.0,6.0,957.0218230001046,6.0,1.0,phase_2,stop,850.0,900.0,3.0,,,,,,,,,white,square
0.0,7.0,3.0,1.0,5.0,5.0,408.0525829999715,6.0,1.0,phase_2,stop,850.0,850.0,3.0,,,,,,,,,yellow,triangle
0.0,2.0,2.0,0.0,6.0,6.0,509.86716199986404,6.0,1.0,phase_2,go,800.0,850.0,1.0,,,,,,,,,magenta,cross
0.0,8.0,4.0,1.0,5.0,5.0,888.1831310000052,6.0,1.0,phase_2,stop,800.0,850.0,3.0,,,,,,,,,white,square
0.0,2.0,2.0,0.0,6.0,6.0,434.5350470002813,7.0,1.0,phase_2,go,750.0,850.0,1.0,,,,,,,,,magenta,cross
0.0,7.0,3.0,1.0,5.0,5.0,353.1820900002458,7.0,1.0,phase_2,stop,750.0,850.0,3.0,,,,,,,,,yellow,triangle
0.0,2.0,2.0,0.0,6.0,6.0,315.1161960004174,7.0,1.0,phase_2,go,700.0,850.0,1.0,,,,,,,,,magenta,cross
0.0,5.0,1.0,1.0,5.0,0.0,0.0,7.0,1.0,phase_2,stop,700.0,850.0,4.0,,,,,,,,,gray,diamond
0.0,3.0,3.0,0.0,6.0,6.0,334.39381100015447,7.0,1.0,phase_2,go,750.0,850.0,1.0,,,,,,,,,cyan,circle
0.0,5.0,1.0,1.0,5.0,0.0,0.0,7.0,1.0,phase_2,stop,750.0,850.0,4.0,,,,,,,,,gray,diamond
0.0,8.0,4.0,1.0,5.0,0.0,0.0,7.0,1.0,phase_2,stop,800.0,850.0,4.0,,,,,,,,,white,square
0.0,2.0,2.0,0.0,5.0,5.0,498.4656269998595,7.0,1.0,phase_2,go,850.0,850.0,1.0,,,,,,,,,magenta,cross
0.0,4.0,4.0,0.0,6.0,6.0,583.5669019998022,7.0,1.0,phase_2,go,850.0,850.0,1.0,,,,,,,,,green,I
0.0,4.0,4.0,0.0,5.0,5.0,416.6181199998391,7.0,1.0,phase_2,go,850.0,850.0,1.0,,,,,,,,,green,I
0.0,3.0,3.0,0.0,6.0,6.0,278.0442250000305,7.0,1.0,phase_2,go,850.0,850.0,1.0,,,,,,,,,cyan,circle
0.0,1.0,1.0,0.0,5.0,5.0,389.0486919999603,7.0,1.0,phase_2,go,850.0,850.0,1.0,,,,,,,,,blue,flipped triangle
0.0,8.0,4.0,1.0,5.0,5.0,749.705074999838,7.0,1.0,phase_2,go,850.0,850.0,1.0,,,,,,,,,white,square
0.0,6.0,2.0,1.0,6.0,6.0,370.9306119999382,7.0,1.0,phase_2,stop,850.0,850.0,3.0,,,,,,,,,orange,hexagon
0.0,8.0,4.0,1.0,6.0,0.0,0.0,7.0,1.0,phase_2,stop,850.0,800.0,4.0,,,,,,,,,white,square
0.0,1.0,1.0,0.0,5.0,5.0,558.248654000181,7.0,1.0,phase_2,go,850.0,850.0,1.0,,,,,,,,,blue,flipped triangle
0.0,5.0,1.0,1.0,5.0,5.0,1049.2331929999636,7.0,1.0,phase_2,stop,850.0,850.0,3.0,,,,,,,,,gray,diamond
0.0,3.0,3.0,0.0,5.0,5.0,483.8675020000664,7.0,1.0,phase_2,go,800.0,850.0,1.0,,,,,,,,,cyan,circle
0.0,2.0,2.0,0.0,5.0,5.0,399.5683849998386,7.0,1.0,phase_2,go,800.0,850.0,1.0,,,,,,,,,magenta,cross
0.0,8.0,4.0,1.0,6.0,0.0,0.0,7.0,1.0,phase_2,stop,800.0,850.0,4.0,,,,,,,,,white,square
0.0,4.0,4.0,0.0,6.0,6.0,427.34125500010117,7.0,1.0,phase_2,go,800.0,900.0,1.0,,,,,,,,,green,I
0.0,7.0,3.0,1.0,6.0,0.0,0.0,7.0,1.0,phase_2,stop,800.0,900.0,4.0,,,,,,,,,yellow,triangle
0.0,4.0,4.0,0.0,5.0,5.0,490.3944040001988,7.0,1.0,phase_2,go,800.0,950.0,1.0,,,,,,,,,green,I
0.0,3.0,3.0,0.0,6.0,6.0,445.3369540001404,7.0,1.0,phase_2,go,800.0,950.0,1.0,,,,,,,,,cyan,circle
0.0,5.0,1.0,1.0,6.0,6.0,1064.2208889998983,7.0,1.0,phase_2,go,800.0,950.0,1.0,,,,,,,,,gray,diamond
0.0,5.0,1.0,1.0,5.0,0.0,0.0,7.0,1.0,phase_2,stop,800.0,950.0,4.0,,,,,,,,,gray,diamond
0.0,7.0,3.0,1.0,6.0,6.0,397.2289309999723,7.0,1.0,phase_2,stop,850.0,950.0,3.0,,,,,,,,,yellow,triangle
0.0,4.0,4.0,0.0,5.0,5.0,482.7093250000871,7.0,1.0,phase_2,go,850.0,900.0,1.0,,,,,,,,,green,I
0.0,8.0,4.0,1.0,5.0,0.0,0.0,7.0,1.0,phase_2,stop,850.0,900.0,4.0,,,,,,,,,white,square
0.0,7.0,3.0,1.0,6.0,6.0,1089.5588869998392,7.0,1.0,phase_2,stop,900.0,900.0,3.0,,,,,,,,,yellow,triangle
0.0,2.0,2.0,0.0,5.0,5.0,519.7353160001512,7.0,1.0,phase_2,go,900.0,850.0,1.0,,,,,,,,,magenta,cross
0.0,7.0,3.0,1.0,5.0,0.0,0.0,7.0,1.0,phase_2,stop,900.0,850.0,4.0,,,,,,,,,yellow,triangle
0.0,6.0,2.0,1.0,6.0,0.0,0.0,7.0,1.0,phase_2,stop,950.0,850.0,4.0,,,,,,,,,orange,hexagon
0.0,8.0,4.0,1.0,6.0,6.0,1094.564404999801,7.0,1.0,phase_2,go,950.0,900.0,1.0,,,,,,,,,white,square
0.0,2.0,2.0,0.0,5.0,5.0,473.439449000125,7.0,1.0,phase_2,go,950.0,900.0,1.0,,,,,,,,,magenta,cross
0.0,8.0,4.0,1.0,5.0,0.0,0.0,7.0,1.0,phase_2,stop,950.0,900.0,4.0,,,,,,,,,white,square
0.0,7.0,3.0,1.0,6.0,0.0,0.0,8.0,1.0,phase_2,stop,1000.0,900.0,4.0,,,,,,,,,yellow,triangle
0.0,4.0,4.0,0.0,6.0,6.0,481.7714750001869,8.0,1.0,phase_2,go,1000.0,950.0,1.0,,,,,,,,,green,I
0.0,6.0,2.0,1.0,5.0,5.0,1161.8768000003,8.0,1.0,phase_2,stop,1000.0,950.0,3.0,,,,,,,,,orange,hexagon
0.0,6.0,2.0,1.0,6.0,0.0,0.0,8.0,1.0,phase_2,stop,950.0,950.0,4.0,,,,,,,,,orange,hexagon
0.0,1.0,1.0,0.0,6.0,6.0,508.37903799993,8.0,1.0,phase_2,go,950.0,1000.0,1.0,,,,,,,,,blue,flipped triangle
0.0,2.0,2.0,0.0,6.0,6.0,434.9926710001455,8.0,1.0,phase_2,go,950.0,1000.0,1.0,,,,,,,,,magenta,cross
0.0,8.0,4.0,1.0,6.0,0.0,0.0,8.0,1.0,phase_2,stop,950.0,1000.0,4.0,,,,,,,,,white,square
0.0,7.0,3.0,1.0,5.0,0.0,0.0,8.0,1.0,phase_2,stop,950.0,1050.0,4.0,,,,,,,,,yellow,triangle
0.0,5.0,1.0,1.0,6.0,6.0,1212.999112000034,8.0,1.0,phase_2,stop,1000.0,1050.0,3.0,,,,,,,,,gray,diamond
0.0,5.0,1.0,1.0,5.0,5.0,996.3657270000112,8.0,1.0,phase_2,go,1000.0,1000.0,1.0,,,,,,,,,gray,diamond
0.0,4.0,4.0,0.0,6.0,6.0,379.9070610002673,8.0,1.0,phase_2,go,1000.0,1000.0,1.0,,,,,,,,,green,I
0.0,7.0,3.0,1.0,5.0,0.0,0.0,8.0,1.0,phase_2,stop,1000.0,1000.0,4.0,,,,,,,,,yellow,triangle
0.0,2.0,2.0,0.0,6.0,6.0,452.8491310002209,8.0,1.0,phase_2,go,1050.0,1000.0,1.0,,,,,,,,,magenta,cross
0.0,8.0,4.0,1.0,6.0,0.0,0.0,8.0,1.0,phase_2,stop,1050.0,1000.0,4.0,,,,,,,,,white,square
0.0,2.0,2.0,0.0,6.0,6.0,471.3375520000227,8.0,1.0,phase_2,go,1050.0,1050.0,1.0,,,,,,,,,magenta,cross
0.0,3.0,3.0,0.0,6.0,6.0,434.609110999645,8.0,1.0,phase_2,go,1050.0,1050.0,1.0,,,,,,,,,cyan,circle
0.0,1.0,1.0,0.0,6.0,6.0,565.9301179998693,8.0,1.0,phase_2,go,1050.0,1050.0,1.0,,,,,,,,,blue,flipped triangle
0.0,2.0,2.0,0.0,5.0,5.0,435.7614169998669,8.0,1.0,phase_2,go,1050.0,1050.0,1.0,,,,,,,,,magenta,cross
0.0,6.0,2.0,1.0,5.0,5.0,352.9546510003456,8.0,1.0,phase_2,go,1050.0,1050.0,1.0,,,,,,,,,orange,hexagon
0.0,7.0,3.0,1.0,6.0,6.0,1216.6230240000004,8.0,1.0,phase_2,go,1050.0,1050.0,1.0,,,,,,,,,yellow,triangle
0.0,7.0,3.0,1.0,5.0,5.0,1009.8860339999192,8.0,1.0,phase_2,stop,1050.0,1050.0,3.0,,,,,,,,,yellow,triangle
0.0,7.0,3.0,1.0,6.0,6.0,1415.8572840001398,8.0,1.0,phase_2,go,1000.0,1050.0,1.0,,,,,,,,,yellow,triangle
0.0,5.0,1.0,1.0,6.0,6.0,1382.0534679998673,8.0,1.0,phase_2,go,1000.0,1050.0,1.0,,,,,,,,,gray,diamond
0.0,7.0,3.0,1.0,6.0,6.0,917.2581899997568,8.0,1.0,phase_2,stop,1000.0,1050.0,3.0,,,,,,,,,yellow,triangle
0.0,6.0,2.0,1.0,5.0,5.0,928.2925200000136,8.0,1.0,phase_2,stop,1000.0,1000.0,3.0,,,,,,,,,orange,hexagon
0.0,7.0,3.0,1.0,5.0,5.0,400.1121310002418,8.0,1.0,phase_2,go,950.0,1000.0,1.0,,,,,,,,,yellow,triangle
0.0,6.0,2.0,1.0,5.0,5.0,1127.438321000227,8.0,1.0,phase_2,go,950.0,1000.0,1.0,,,,,,,,,orange,hexagon
0.0,3.0,3.0,0.0,6.0,6.0,436.179834000086,8.0,1.0,phase_2,go,950.0,1000.0,1.0,,,,,,,,,cyan,circle
0.0,6.0,2.0,1.0,5.0,5.0,445.7955800003219,8.0,1.0,phase_2,stop,950.0,1000.0,3.0,,,,,,,,,orange,hexagon
0.0,7.0,3.0,1.0,5.0,5.0,713.1180779997521,8.0,1.0,phase_2,stop,900.0,1000.0,3.0,,,,,,,,,yellow,triangle
0.0,4.0,4.0,0.0,6.0,6.0,445.1750129996981,8.0,1.0,phase_2,go,850.0,1000.0,1.0,,,,,,,,,green,I
0.0,1.0,1.0,0.0,5.0,5.0,425.1554810002744,8.0,1.0,phase_2,go,850.0,1000.0,1.0,,,,,,,,,blue,flipped triangle
0.0,2.0,2.0,0.0,5.0,5.0,464.0144989998589,8.0,1.0,phase_2,go,850.0,1000.0,1.0,,,,,,,,,magenta,cross
0.0,7.0,3.0,1.0,6.0,6.0,315.7829020001372,8.0,1.0,phase_2,stop,850.0,1000.0,3.0,,,,,,,,,yellow,triangle
0.0,4.0,4.0,0.0,6.0,6.0,434.8709420000887,8.0,1.0,phase_2,go,850.0,950.0,1.0,,,,,,,,,green,I
0.0,3.0,3.0,0.0,6.0,6.0,390.4284519999237,8.0,1.0,phase_2,go,850.0,950.0,1.0,,,,,,,,,cyan,circle
0.0,1.0,1.0,0.0,7.0,3.0,3617.090886000369,1.0,1.0,phase_3,,,,,540.0,4.0,270.0,675.0,540.0,405.0,135.0,810.0,blue,flipped triangle
0.0,1.0,1.0,0.0,7.0,5.0,2677.697101999911,1.0,1.0,phase_3,,,,,696.0,6.0,580.0,116.0,464.0,348.0,696.0,232.0,blue,flipped triangle
0.0,6.0,2.0,1.0,7.0,4.0,3968.076459999793,1.0,1.0,phase_3,,,,,154.0,1.0,462.0,616.0,924.0,154.0,308.0,770.0,orange,hexagon
0.0,8.0,4.0,1.0,7.0,1.0,1804.7920419999173,1.0,1.0,phase_3,,,,,346.0,2.0,346.0,865.0,692.0,519.0,1038.0,173.0,white,square
0.0,8.0,4.0,1.0,7.0,5.0,1052.317998000035,1.0,1.0,phase_3,,,,,135.0,1.0,675.0,270.0,540.0,810.0,135.0,405.0,white,square
0.0,2.0,2.0,0.0,7.0,3.0,1902.104865000183,1.0,1.0,phase_3,,,,,924.0,6.0,616.0,308.0,924.0,462.0,154.0,770.0,magenta,cross
0.0,8.0,4.0,1.0,7.0,4.0,3760.438496000006,1.0,1.0,phase_3,,,,,116.0,1.0,232.0,696.0,580.0,116.0,348.0,464.0,white,square
0.0,7.0,3.0,1.0,7.0,3.0,3064.43746199966,1.0,1.0,phase_3,,,,,232.0,2.0,116.0,348.0,232.0,580.0,696.0,464.0,yellow,triangle
0.0,4.0,4.0,0.0,7.0,4.0,2142.6678439997886,1.0,1.0,phase_3,,,,,696.0,6.0,464.0,580.0,348.0,696.0,232.0,116.0,green,I
0.0,3.0,3.0,0.0,7.0,4.0,887.3245219997443,1.0,1.0,phase_3,,,,,696.0,6.0,348.0,580.0,464.0,696.0,116.0,232.0,cyan,circle
0.0,2.0,2.0,0.0,7.0,1.0,2141.061866999735,1.0,1.0,phase_3,,,,,1152.0,6.0,1152.0,576.0,768.0,384.0,192.0,960.0,magenta,cross
0.0,1.0,1.0,0.0,7.0,2.0,959.2767510002886,1.0,1.0,phase_3,,,,,1038.0,6.0,519.0,1038.0,346.0,173.0,692.0,865.0,blue,flipped triangle
0.0,7.0,3.0,1.0,7.0,3.0,1454.8990669995874,1.0,1.0,phase_3,,,,,154.0,1.0,924.0,462.0,154.0,308.0,770.0,616.0,yellow,triangle
0.0,5.0,1.0,1.0,7.0,6.0,2398.7378229999194,1.0,1.0,phase_3,,,,,173.0,1.0,346.0,519.0,865.0,692.0,1038.0,173.0,gray,diamond
0.0,5.0,1.0,1.0,7.0,1.0,2034.2510030000085,1.0,1.0,phase_3,,,,,135.0,1.0,135.0,540.0,405.0,270.0,675.0,810.0,gray,diamond
0.0,4.0,4.0,0.0,7.0,3.0,3895.811369000057,1.0,1.0,phase_3,,,,,1038.0,6.0,173.0,865.0,1038.0,346.0,519.0,692.0,green,I
0.0,3.0,3.0,0.0,7.0,2.0,1336.3907230000225,1.0,1.0,phase_3,,,,,675.0,5.0,270.0,675.0,810.0,135.0,405.0,540.0,cyan,circle
0.0,2.0,2.0,0.0,7.0,4.0,1006.2816080003358,1.0,1.0,phase_3,,,,,675.0,5.0,810.0,540.0,135.0,675.0,270.0,405.0,magenta,cross
0.0,5.0,1.0,1.0,7.0,5.0,705.7312199999615,1.0,1.0,phase_3,,,,,116.0,1.0,580.0,696.0,464.0,348.0,116.0,232.0,gray,diamond
0.0,4.0,4.0,0.0,7.0,5.0,1344.6858410002278,1.0,1.0,phase_3,,,,,924.0,6.0,770.0,308.0,154.0,616.0,924.0,462.0,green,I
0.0,3.0,3.0,0.0,7.0,3.0,1315.868104999936,2.0,1.0,phase_3,,,,,924.0,6.0,154.0,770.0,924.0,616.0,308.0,462.0,cyan,circle
0.0,4.0,4.0,0.0,7.0,5.0,837.5334530001055,2.0,1.0,phase_3,,,,,1038.0,6.0,519.0,692.0,173.0,346.0,1038.0,865.0,green,I
0.0,5.0,1.0,1.0,7.0,5.0,1333.8547650000692,2.0,1.0,phase_3,,,,,154.0,1.0,924.0,462.0,616.0,308.0,154.0,770.0,gray,diamond
0.0,1.0,1.0,0.0,7.0,6.0,1320.4419650001,2.0,1.0,phase_3,,,,,810.0,6.0,405.0,675.0,270.0,135.0,540.0,810.0,blue,flipped triangle
0.0,4.0,4.0,0.0,7.0,1.0,727.4951059998784,2.0,1.0,phase_3,,,,,1152.0,6.0,1152.0,576.0,960.0,384.0,192.0,768.0,green,I
0.0,7.0,3.0,1.0,7.0,6.0,2844.054706999941,2.0,1.0,phase_3,,,,,308.0,2.0,770.0,616.0,462.0,154.0,924.0,308.0,yellow,triangle
0.0,1.0,1.0,0.0,7.0,6.0,1434.8110349997114,2.0,1.0,phase_3,,,,,1152.0,6.0,384.0,768.0,576.0,192.0,960.0,1152.0,blue,flipped triangle
0.0,3.0,3.0,0.0,7.0,3.0,2353.3039619997,2.0,1.0,phase_3,,,,,1152.0,6.0,384.0,960.0,1152.0,768.0,192.0,576.0,cyan,circle
0.0,3.0,3.0,0.0,7.0,2.0,1102.0599019998372,2.0,1.0,phase_3,,,,,1038.0,6.0,692.0,1038.0,173.0,865.0,519.0,346.0,cyan,circle
0.0,6.0,2.0,1.0,7.0,3.0,2267.959810999855,2.0,1.0,phase_3,,,,,135.0,1.0,810.0,675.0,135.0,270.0,405.0,540.0,orange,hexagon
0.0,3.0,3.0,0.0,7.0,6.0,2258.4973950001768,2.0,1.0,phase_3,,,,,696.0,6.0,232.0,116.0,580.0,464.0,348.0,696.0,cyan,circle
0.0,6.0,2.0,1.0,7.0,4.0,2265.47341899959,2.0,1.0,phase_3,,,,,232.0,2.0,116.0,580.0,348.0,232.0,464.0,696.0,orange,hexagon
0.0,5.0,1.0,1.0,7.0,5.0,1001.395305999722,2.0,1.0,phase_3,,,,,270.0,2.0,540.0,135.0,675.0,405.0,270.0,810.0,gray,diamond
0.0,8.0,4.0,1.0,7.0,2.0,2141.6291860000456,2.0,1.0,phase_3,,,,,384.0,2.0,192.0,384.0,768.0,960.0,1152.0,576.0,white,square
0.0,2.0,2.0,0.0,7.0,6.0,1662.8243390000534,2.0,1.0,phase_3,,,,,810.0,6.0,540.0,270.0,135.0,675.0,405.0,810.0,magenta,cross
0.0,5.0,1.0,1.0,7.0,5.0,3717.6151429998754,2.0,1.0,phase_3,,,,,384.0,2.0,576.0,192.0,960.0,1152.0,384.0,768.0,gray,diamond
0.0,8.0,4.0,1.0,7.0,2.0,2146.739651999724,2.0,1.0,phase_3,,,,,270.0,2.0,540.0,270.0,675.0,135.0,810.0,405.0,white,square
0.0,8.0,4.0,1.0,7.0,6.0,1801.2680899996667,2.0,1.0,phase_3,,,,,192.0,1.0,384.0,1152.0,960.0,576.0,768.0,192.0,white,square
0.0,2.0,2.0,0.0,7.0,5.0,699.9727800002802,2.0,1.0,phase_3,,,,,865.0,5.0,692.0,519.0,346.0,1038.0,865.0,173.0,magenta,cross
0.0,8.0,4.0,1.0,7.0,3.0,819.9171680003019,2.0,1.0,phase_3,,,,,173.0,1.0,1038.0,519.0,173.0,346.0,865.0,692.0,white,square
0.0,1.0,1.0,0.0,7.0,3.0,1066.1844129999736,3.0,1.0,phase_3,,,,,1038.0,6.0,519.0,173.0,1038.0,346.0,865.0,692.0,blue,flipped triangle
0.0,8.0,4.0,1.0,7.0,5.0,1536.2724120000166,3.0,1.0,phase_3,,,,,308.0,2.0,924.0,462.0,616.0,770.0,308.0,154.0,white,square
0.0,5.0,1.0,1.0,7.0,4.0,2729.0399600001365,3.0,1.0,phase_3,,,,,348.0,3.0,232.0,464.0,580.0,348.0,696.0,116.0,gray,diamond
0.0,6.0,2.0,1.0,7.0,1.0,772.0462009997391,3.0,1.0,phase_3,,,,,154.0,1.0,154.0,462.0,770.0,616.0,308.0,924.0,orange,hexagon
0.0,7.0,3.0,1.0,7.0,5.0,1464.1435559997262,3.0,1.0,phase_3,,,,,135.0,1.0,270.0,675.0,540.0,405.0,135.0,810.0,yellow,triangle
0.0,3.0,3.0,0.0,7.0,3.0,1674.5907979998265,3.0,1.0,phase_3,,,,,1152.0,6.0,384.0,768.0,1152.0,192.0,576.0,960.0,cyan,circle
0.0,7.0,3.0,1.0,7.0,2.0,964.9555149999288,3.0,1.0,phase_3,,,,,173.0,1.0,692.0,173.0,1038.0,865.0,346.0,519.0,yellow,triangle
0.0,5.0,1.0,1.0,7.0,5.0,2685.6265780002104,3.0,1.0,phase_3,,,,,346.0,2.0,173.0,519.0,692.0,865.0,346.0,1038.0,gray,diamond
0.0,3.0,3.0,0.0,7.0,6.0,1041.4867290000984,3.0,1.0,phase_3,,,,,770.0,5.0,616.0,154.0,308.0,924.0,462.0,770.0,cyan,circle
0.0,1.0,1.0,0.0,7.0,5.0,883.8754809999045,3.0,1.0,phase_3,,,,,960.0,5.0,576.0,384.0,192.0,768.0,960.0,1152.0,blue,flipped triangle
0.0,7.0,3.0,1.0,7.0,5.0,2459.1986030000044,3.0,1.0,phase_3,,,,,346.0,2.0,1038.0,173.0,519.0,692.0,346.0,865.0,yellow,triangle
0.0,7.0,3.0,1.0,7.0,5.0,1684.543070000018,3.0,1.0,phase_3,,,,,464.0,4.0,696.0,232.0,580.0,116.0,464.0,348.0,yellow,triangle
0.0,4.0,4.0,0.0,7.0,6.0,1167.562362999888,3.0,1.0,phase_3,,,,,810.0,6.0,675.0,405.0,540.0,135.0,270.0,810.0,green,I
0.0,7.0,3.0,1.0,7.0,2.0,2025.224166000044,3.0,1.0,phase_3,,,,,540.0,4.0,270.0,540.0,810.0,405.0,135.0,675.0,yellow,triangle
0.0,6.0,2.0,1.0,7.0,2.0,791.5687650001928,3.0,1.0,phase_3,,,,,173.0,1.0,346.0,173.0,1038.0,692.0,865.0,519.0,orange,hexagon
0.0,8.0,4.0,1.0,7.0,2.0,1061.982493999949,3.0,1.0,phase_3,,,,,232.0,2.0,580.0,232.0,348.0,116.0,464.0,696.0,white,square
0.0,7.0,3.0,1.0,7.0,5.0,1868.432249000307,3.0,1.0,phase_3,,,,,576.0,3.0,384.0,960.0,768.0,192.0,576.0,1152.0,yellow,triangle
0.0,6.0,2.0,1.0,7.0,4.0,618.1583390002743,3.0,1.0,phase_3,,,,,405.0,3.0,810.0,270.0,135.0,405.0,675.0,540.0,orange,hexagon
0.0,3.0,3.0,0.0,7.0,6.0,699.9287859998731,3.0,1.0,phase_3,,,,,1038.0,6.0,865.0,692.0,173.0,519.0,346.0,1038.0,cyan,circle
0.0,2.0,2.0,0.0,7.0,4.0,1832.977918999859,3.0,1.0,phase_3,,,,,696.0,6.0,232.0,116.0,580.0,696.0,348.0,464.0,magenta,cross
0.0,8.0,4.0,1.0,7.0,2.0,1142.9431040000964,4.0,1.0,phase_3,,,,,154.0,1.0,462.0,154.0,924.0,616.0,308.0,770.0,white,square
0.0,2.0,2.0,0.0,7.0,4.0,996.6317999997044,4.0,1.0,phase_3,,,,,960.0,5.0,576.0,384.0,1152.0,960.0,768.0,192.0,magenta,cross
0.0,6.0,2.0,1.0,7.0,6.0,1531.8445739999331,4.0,1.0,phase_3,,,,,576.0,3.0,192.0,960.0,384.0,768.0,1152.0,576.0,orange,hexagon
0.0,6.0,2.0,1.0,7.0,3.0,1268.6074190000909,4.0,1.0,phase_3,,,,,192.0,1.0,576.0,1152.0,192.0,384.0,960.0,768.0,orange,hexagon
0.0,1.0,1.0,0.0,7.0,3.0,1114.7938969997997,4.0,1.0,phase_3,,,,,770.0,5.0,616.0,308.0,770.0,154.0,924.0,462.0,blue,flipped triangle
0.0,4.0,4.0,0.0,7.0,6.0,1270.5649969998376,4.0,1.0,phase_3,,,,,696.0,6.0,580.0,464.0,348.0,116.0,232.0,696.0,green,I
0.0,4.0,4.0,0.0,7.0,5.0,984.5187770001758,4.0,1.0,phase_3,,,,,924.0,6.0,308.0,154.0,770.0,462.0,924.0,616.0,green,I
0.0,6.0,2.0,1.0,7.0,2.0,599.3793459997505,4.0,1.0,phase_3,,,,,116.0,1.0,580.0,116.0,464.0,348.0,232.0,696.0,orange,hexagon
0.0,4.0,4.0,0.0,7.0,4.0,1658.9858039997123,4.0,1.0,phase_3,,,,,675.0,5.0,405.0,270.0,135.0,675.0,540.0,810.0,green,I
0.0,6.0,2.0,1.0,7.0,3.0,674.2230889999519,4.0,1.0,phase_3,,,,,865.0,5.0,346.0,1038.0,865.0,692.0,519.0,173.0,orange,hexagon
0.0,4.0,4.0,0.0,7.0,5.0,507.3889430000236,4.0,1.0,phase_3,,,,,192.0,1.0,960.0,384.0,768.0,1152.0,192.0,576.0,green,I
0.0,3.0,3.0,0.0,7.0,2.0,542.5934640002197,4.0,1.0,phase_3,,,,,675.0,5.0,135.0,675.0,810.0,540.0,270.0,405.0,cyan,circle
0.0,1.0,1.0,0.0,7.0,3.0,469.6047420002287,4.0,1.0,phase_3,,,,,580.0,5.0,696.0,348.0,580.0,232.0,464.0,116.0,blue,flipped triangle
0.0,7.0,3.0,1.0,7.0,5.0,1409.8096969996732,4.0,1.0,phase_3,,,,,768.0,4.0,1152.0,384.0,576.0,960.0,768.0,192.0,yellow,triangle
0.0,2.0,2.0,0.0,7.0,5.0,680.5077510002775,4.0,1.0,phase_3,,,,,924.0,6.0,462.0,308.0,154.0,770.0,924.0,616.0,magenta,cross
0.0,2.0,2.0,0.0,7.0,4.0,1078.2625159999952,4.0,1.0,phase_3,,,,,1038.0,6.0,519.0,692.0,346.0,1038.0,865.0,173.0,magenta,cross
0.0,1.0,1.0,0.0,7.0,6.0,2107.160221999948,4.0,1.0,phase_3,,,,,770.0,5.0,924.0,462.0,154.0,616.0,308.0,770.0,blue,flipped triangle
0.0,2.0,2.0,0.0,7.0,6.0,1599.7423359995082,4.0,1.0,phase_3,,,,,696.0,6.0,116.0,232.0,348.0,580.0,464.0,696.0,magenta,cross
0.0,5.0,1.0,1.0,7.0,5.0,2285.1248599999963,4.0,1.0,phase_3,,,,,308.0,2.0,462.0,154.0,924.0,770.0,308.0,616.0,gray,diamond
0.0,5.0,1.0,1.0,7.0,6.0,1793.2979850002084,4.0,1.0,phase_3,,,,,384.0,2.0,576.0,768.0,192.0,1152.0,960.0,384.0,gray,diamond
