raw_reward_magnitude,stim_reward,stepwise_reward_magnitude,paired_with_stopping,quadrant,response,reaction_time,block,num_trial_presentations,which_part,stop_signal_trial_type,left_SSD,right_SSD,accuracy,chosen_bidding_amount,chosen_bidding_level,possible_bid_1,possible_bid_2,possible_bid_3,possible_bid_4,possible_bid_5,possible_bid_6,color_text,shape_text
646.0,7.0,3.0,1.0,3.0,3.0,492.1156219999147,1.0,1.0,part_1,,,,,,,,,,,,,blue,hexagon
310.0,6.0,2.0,1.0,3.0,3.0,522.1967070000346,1.0,1.0,part_1,,,,,,,,,,,,,white,cross
655.0,7.0,3.0,1.0,1.0,1.0,607.0727789999637,1.0,1.0,part_1,,,,,,,,,,,,,blue,hexagon
655.0,3.0,3.0,0.0,2.0,2.0,391.5079860000787,1.0,2.0,part_1,,,,,,,,,,,,,green,circle
0.0,5.0,0.0,1.0,4.0,4.0,405.7468989999506,1.0,1.0,part_1,,,,,,,,,,,,,cyan,square
667.0,3.0,3.0,0.0,2.0,2.0,472.6536069999838,1.0,1.0,part_1,,,,,,,,,,,,,green,circle
1295.0,8.0,4.0,1.0,3.0,3.0,335.2807029999667,1.0,1.0,part_1,,,,,,,,,,,,,orange,flipped triangle
0.0,2.0,0.0,0.0,3.0,3.0,379.6865949999528,1.0,1.0,part_1,,,,,,,,,,,,,magenta,diamond
0.0,4.0,0.0,0.0,3.0,3.0,407.8336430000036,1.0,1.0,part_1,,,,,,,,,,,,,gray,triangle
660.0,7.0,3.0,1.0,4.0,4.0,837.416515999962,1.0,1.0,part_1,,,,,,,,,,,,,blue,hexagon
658.0,3.0,3.0,0.0,1.0,1.0,632.8835749999371,1.0,1.0,part_1,,,,,,,,,,,,,green,circle
1291.0,8.0,4.0,1.0,2.0,2.0,406.8208260000574,1.0,1.0,part_1,,,,,,,,,,,,,orange,flipped triangle
650.0,3.0,3.0,0.0,4.0,4.0,436.5089489999718,1.0,1.0,part_1,,,,,,,,,,,,,green,circle
651.0,3.0,3.0,0.0,3.0,3.0,434.6059869999408,1.0,1.0,part_1,,,,,,,,,,,,,green,circle
309.0,6.0,2.0,1.0,3.0,3.0,356.7179829999531,1.0,1.0,part_1,,,,,,,,,,,,,white,cross
327.0,2.0,2.0,0.0,4.0,4.0,307.3320739999872,1.0,1.0,part_1,,,,,,,,,,,,,magenta,diamond
1282.0,8.0,4.0,1.0,1.0,1.0,433.7747580000268,1.0,2.0,part_1,,,,,,,,,,,,,orange,flipped triangle
148.0,5.0,1.0,1.0,1.0,1.0,517.5984369999469,1.0,1.0,part_1,,,,,,,,,,,,,cyan,square
0.0,8.0,0.0,1.0,3.0,3.0,528.1721759999982,1.0,1.0,part_1,,,,,,,,,,,,,orange,flipped triangle
1312.0,8.0,4.0,1.0,2.0,2.0,752.8951449999113,1.0,1.0,part_1,,,,,,,,,,,,,orange,flipped triangle
148.0,1.0,1.0,0.0,2.0,2.0,509.8704990000442,1.0,1.0,part_1,,,,,,,,,,,,,yellow,I
628.0,7.0,3.0,1.0,4.0,4.0,581.7594249999729,1.0,1.0,part_1,,,,,,,,,,,,,blue,hexagon
179.0,5.0,1.0,1.0,4.0,4.0,550.5292920000784,1.0,1.0,part_1,,,,,,,,,,,,,cyan,square
311.0,6.0,2.0,1.0,3.0,3.0,347.494021999978,1.0,1.0,part_1,,,,,,,,,,,,,white,cross
1276.0,4.0,4.0,0.0,3.0,3.0,319.5980519999466,1.0,1.0,part_1,,,,,,,,,,,,,gray,triangle
1290.0,4.0,4.0,0.0,3.0,3.0,339.1163609999239,1.0,1.0,part_1,,,,,,,,,,,,,gray,triangle
1292.0,8.0,4.0,1.0,3.0,3.0,320.9568060000265,1.0,1.0,part_1,,,,,,,,,,,,,orange,flipped triangle
1300.0,4.0,4.0,0.0,2.0,2.0,426.0211239999307,1.0,1.0,part_1,,,,,,,,,,,,,gray,triangle
313.0,2.0,2.0,0.0,1.0,1.0,732.7631650000512,1.0,1.0,part_1,,,,,,,,,,,,,magenta,diamond
1318.0,4.0,4.0,0.0,4.0,4.0,377.1108299999923,1.0,1.0,part_1,,,,,,,,,,,,,gray,triangle
150.0,1.0,1.0,0.0,4.0,4.0,434.2769990000761,1.0,1.0,part_1,,,,,,,,,,,,,yellow,I
154.0,1.0,1.0,0.0,3.0,3.0,406.7925909999985,1.0,1.0,part_1,,,,,,,,,,,,,yellow,I
0.0,8.0,0.0,1.0,2.0,2.0,497.620735000055,1.0,1.0,part_1,,,,,,,,,,,,,orange,flipped triangle
666.0,3.0,3.0,0.0,4.0,4.0,432.759553999972,1.0,1.0,part_1,,,,,,,,,,,,,green,circle
1276.0,8.0,4.0,1.0,4.0,4.0,375.6471290000718,1.0,1.0,part_1,,,,,,,,,,,,,orange,flipped triangle
157.0,5.0,1.0,1.0,2.0,2.0,482.1906860000808,1.0,2.0,part_1,,,,,,,,,,,,,cyan,square
0.0,3.0,0.0,0.0,3.0,3.0,565.4709489999732,1.0,1.0,part_1,,,,,,,,,,,,,green,circle
1320.0,4.0,4.0,0.0,3.0,3.0,326.836424000021,1.0,1.0,part_1,,,,,,,,,,,,,gray,triangle
630.0,3.0,3.0,0.0,2.0,2.0,449.5726180000474,1.0,1.0,part_1,,,,,,,,,,,,,green,circle
0.0,3.0,0.0,0.0,4.0,4.0,486.3970070000505,1.0,1.0,part_1,,,,,,,,,,,,,green,circle
1302.0,8.0,4.0,1.0,2.0,2.0,479.1166850000081,1.0,1.0,part_1,,,,,,,,,,,,,orange,flipped triangle
180.0,1.0,1.0,0.0,1.0,1.0,489.2298569999411,1.0,1.0,part_1,,,,,,,,,,,,,yellow,I
0.0,3.0,0.0,0.0,1.0,1.0,447.0803960000467,1.0,1.0,part_1,,,,,,,,,,,,,green,circle
1298.0,4.0,4.0,0.0,3.0,3.0,432.0228349999979,1.0,1.0,part_1,,,,,,,,,,,,,gray,triangle
342.0,2.0,2.0,0.0,2.0,2.0,397.0146420000446,1.0,1.0,part_1,,,,,,,,,,,,,magenta,diamond
634.0,3.0,3.0,0.0,4.0,4.0,469.0067309999222,1.0,1.0,part_1,,,,,,,,,,,,,green,circle
1298.0,4.0,4.0,0.0,3.0,3.0,495.1396970000132,1.0,1.0,part_1,,,,,,,,,,,,,gray,triangle
326.0,2.0,2.0,0.0,2.0,2.0,407.1317840000574,1.0,1.0,part_1,,,,,,,,,,,,,magenta,diamond
0.0,8.0,0.0,1.0,1.0,1.0,520.1726369999733,1.0,1.0,part_1,,,,,,,,,,,,,orange,flipped triangle
1281.0,8.0,4.0,1.0,4.0,4.0,460.2833280000595,1.0,1.0,part_1,,,,,,,,,,,,,orange,flipped triangle
0.0,7.0,0.0,1.0,4.0,4.0,441.9004059999452,1.0,1.0,part_1,,,,,,,,,,,,,blue,hexagon
0.0,4.0,0.0,0.0,2.0,2.0,487.3104660000535,1.0,1.0,part_1,,,,,,,,,,,,,gray,triangle
306.0,2.0,2.0,0.0,1.0,1.0,594.3349060000855,1.0,1.0,part_1,,,,,,,,,,,,,magenta,diamond
668.0,3.0,3.0,0.0,1.0,1.0,387.8617979999035,1.0,1.0,part_1,,,,,,,,,,,,,green,circle
329.0,2.0,2.0,0.0,4.0,4.0,516.6236239999762,1.0,1.0,part_1,,,,,,,,,,,,,magenta,diamond
1301.0,4.0,4.0,0.0,2.0,2.0,394.5834059999242,1.0,1.0,part_1,,,,,,,,,,,,,gray,triangle
181.0,5.0,1.0,1.0,2.0,2.0,383.7599070000124,1.0,1.0,part_1,,,,,,,,,,,,,cyan,square
342.0,2.0,2.0,0.0,3.0,3.0,434.3286779999289,1.0,1.0,part_1,,,,,,,,,,,,,magenta,diamond
674.0,7.0,3.0,1.0,1.0,1.0,452.3202179999543,1.0,1.0,part_1,,,,,,,,,,,,,blue,hexagon
0.0,2.0,0.0,0.0,3.0,3.0,333.1953099999509,1.0,1.0,part_1,,,,,,,,,,,,,magenta,diamond
1276.0,8.0,4.0,1.0,1.0,1.0,442.3123379999651,1.0,1.0,part_1,,,,,,,,,,,,,orange,flipped triangle
644.0,3.0,3.0,0.0,3.0,3.0,359.0293910000355,1.0,1.0,part_1,,,,,,,,,,,,,green,circle
654.0,3.0,3.0,0.0,4.0,4.0,375.0983410000117,1.0,1.0,part_1,,,,,,,,,,,,,green,circle
1320.0,8.0,4.0,1.0,3.0,3.0,424.6234440000762,1.0,1.0,part_1,,,,,,,,,,,,,orange,flipped triangle
305.0,2.0,2.0,0.0,2.0,2.0,338.6241969999446,1.0,1.0,part_1,,,,,,,,,,,,,magenta,diamond
655.0,3.0,3.0,0.0,1.0,1.0,676.1921510000093,1.0,1.0,part_1,,,,,,,,,,,,,green,circle
0.0,1.0,0.0,0.0,2.0,2.0,501.447475999953,1.0,2.0,part_1,,,,,,,,,,,,,yellow,I
1287.0,8.0,4.0,1.0,1.0,1.0,533.3582529999603,1.0,1.0,part_1,,,,,,,,,,,,,orange,flipped triangle
330.0,2.0,2.0,0.0,4.0,4.0,512.7556710000363,1.0,1.0,part_1,,,,,,,,,,,,,magenta,diamond
1311.0,8.0,4.0,1.0,2.0,2.0,695.820117999915,1.0,1.0,part_1,,,,,,,,,,,,,orange,flipped triangle
645.0,7.0,3.0,1.0,1.0,1.0,879.9567180000167,1.0,1.0,part_1,,,,,,,,,,,,,blue,hexagon
0.0,3.0,0.0,0.0,4.0,4.0,525.361668999949,1.0,1.0,part_1,,,,,,,,,,,,,green,circle
1320.0,8.0,4.0,1.0,2.0,2.0,525.9006119999867,1.0,1.0,part_1,,,,,,,,,,,,,orange,flipped triangle
628.0,3.0,3.0,0.0,1.0,1.0,705.8737999999494,1.0,1.0,part_1,,,,,,,,,,,,,green,circle
0.0,1.0,0.0,0.0,2.0,2.0,453.0334070000208,1.0,1.0,part_1,,,,,,,,,,,,,yellow,I
632.0,7.0,3.0,1.0,3.0,3.0,481.7902690000437,1.0,1.0,part_1,,,,,,,,,,,,,blue,hexagon
301.0,2.0,2.0,0.0,2.0,2.0,471.5300230000139,1.0,1.0,part_1,,,,,,,,,,,,,magenta,diamond
310.0,2.0,2.0,0.0,4.0,4.0,556.4838379999628,1.0,1.0,part_1,,,,,,,,,,,,,magenta,diamond
670.0,3.0,3.0,0.0,2.0,2.0,614.2390339999793,1.0,1.0,part_1,,,,,,,,,,,,,green,circle
0.0,8.0,0.0,1.0,2.0,2.0,451.9973820000587,1.0,1.0,part_1,,,,,,,,,,,,,orange,flipped triangle
170.0,1.0,1.0,0.0,3.0,3.0,461.8720510000003,1.0,1.0,part_1,,,,,,,,,,,,,yellow,I
342.0,6.0,2.0,1.0,4.0,4.0,490.9412709999969,1.0,1.0,part_1,,,,,,,,,,,,,white,cross
169.0,1.0,1.0,0.0,3.0,3.0,500.2309449999984,1.0,1.0,part_1,,,,,,,,,,,,,yellow,I
653.0,7.0,3.0,1.0,3.0,3.0,451.9864480000706,1.0,1.0,part_1,,,,,,,,,,,,,blue,hexagon
1288.0,8.0,4.0,1.0,3.0,3.0,367.312161999962,1.0,1.0,part_1,,,,,,,,,,,,,orange,flipped triangle
1320.0,4.0,4.0,0.0,1.0,1.0,391.220890999989,1.0,1.0,part_1,,,,,,,,,,,,,gray,triangle
668.0,7.0,3.0,1.0,1.0,1.0,292.353845999969,1.0,1.0,part_1,,,,,,,,,,,,,blue,hexagon
0.0,5.0,0.0,1.0,1.0,1.0,416.7428660000496,1.0,1.0,part_1,,,,,,,,,,,,,cyan,square
644.0,7.0,3.0,1.0,2.0,2.0,602.289183000039,1.0,1.0,part_1,,,,,,,,,,,,,blue,hexagon
0.0,7.0,0.0,1.0,4.0,4.0,425.5621350000638,1.0,1.0,part_1,,,,,,,,,,,,,blue,hexagon
159.0,1.0,1.0,0.0,2.0,2.0,480.1022450000118,1.0,1.0,part_1,,,,,,,,,,,,,yellow,I
0.0,5.0,0.0,1.0,2.0,2.0,350.0844269999561,1.0,1.0,part_1,,,,,,,,,,,,,cyan,square
150.0,5.0,1.0,1.0,4.0,4.0,367.8082110000105,1.0,1.0,part_1,,,,,,,,,,,,,cyan,square
0.0,7.0,0.0,1.0,2.0,2.0,302.8070119999029,1.0,1.0,part_1,,,,,,,,,,,,,blue,hexagon
671.0,3.0,3.0,0.0,3.0,3.0,452.4136649999946,1.0,1.0,part_1,,,,,,,,,,,,,green,circle
314.0,2.0,2.0,0.0,2.0,2.0,471.6027560000384,1.0,1.0,part_1,,,,,,,,,,,,,magenta,diamond
650.0,7.0,3.0,1.0,3.0,3.0,593.6724010000489,1.0,2.0,part_1,,,,,,,,,,,,,blue,hexagon
662.0,7.0,3.0,1.0,1.0,1.0,735.140949999959,1.0,1.0,part_1,,,,,,,,,,,,,blue,hexagon
0.0,7.0,0.0,1.0,2.0,2.0,779.0013300000282,1.0,1.0,part_1,,,,,,,,,,,,,blue,hexagon
168.0,5.0,1.0,1.0,2.0,2.0,454.7254730000531,1.0,1.0,part_1,,,,,,,,,,,,,cyan,square
1317.0,4.0,4.0,0.0,2.0,2.0,376.7489669999122,2.0,2.0,part_1,,,,,,,,,,,,,gray,triangle
317.0,2.0,2.0,0.0,4.0,4.0,526.159608999933,2.0,1.0,part_1,,,,,,,,,,,,,magenta,diamond
0.0,1.0,0.0,0.0,2.0,2.0,536.0945999998421,2.0,1.0,part_1,,,,,,,,,,,,,yellow,I
646.0,3.0,3.0,0.0,2.0,2.0,461.087224000039,2.0,1.0,part_1,,,,,,,,,,,,,green,circle
0.0,3.0,0.0,0.0,3.0,3.0,349.8094599999604,2.0,1.0,part_1,,,,,,,,,,,,,green,circle
0.0,6.0,0.0,1.0,1.0,1.0,405.1102650000757,2.0,1.0,part_1,,,,,,,,,,,,,white,cross
0.0,2.0,0.0,0.0,1.0,1.0,404.2183809999642,2.0,1.0,part_1,,,,,,,,,,,,,magenta,diamond
0.0,3.0,0.0,0.0,2.0,2.0,545.3089799998452,2.0,1.0,part_1,,,,,,,,,,,,,green,circle
320.0,2.0,2.0,0.0,1.0,1.0,404.5032030001039,2.0,1.0,part_1,,,,,,,,,,,,,magenta,diamond
160.0,5.0,1.0,1.0,2.0,2.0,356.8656999998438,2.0,1.0,part_1,,,,,,,,,,,,,cyan,square
350.0,2.0,2.0,0.0,3.0,3.0,367.6456639998378,2.0,1.0,part_1,,,,,,,,,,,,,magenta,diamond
1320.0,8.0,4.0,1.0,2.0,2.0,506.79251800011116,2.0,1.0,part_1,,,,,,,,,,,,,orange,flipped triangle
329.0,6.0,2.0,1.0,1.0,1.0,385.2201240001704,2.0,1.0,part_1,,,,,,,,,,,,,white,cross
0.0,1.0,0.0,0.0,1.0,1.0,450.401900000088,2.0,1.0,part_1,,,,,,,,,,,,,yellow,I
1318.0,8.0,4.0,1.0,4.0,4.0,376.7350389998682,2.0,1.0,part_1,,,,,,,,,,,,,orange,flipped triangle
168.0,5.0,1.0,1.0,1.0,1.0,487.6906110000618,2.0,1.0,part_1,,,,,,,,,,,,,cyan,square
1317.0,4.0,4.0,0.0,4.0,4.0,488.6893360001068,2.0,1.0,part_1,,,,,,,,,,,,,gray,triangle
1287.0,8.0,4.0,1.0,4.0,4.0,451.0472639999534,2.0,1.0,part_1,,,,,,,,,,,,,orange,flipped triangle
651.0,7.0,3.0,1.0,1.0,1.0,517.1384239999952,2.0,1.0,part_1,,,,,,,,,,,,,blue,hexagon
650.0,3.0,3.0,0.0,3.0,3.0,402.9760949999854,2.0,1.0,part_1,,,,,,,,,,,,,green,circle
628.0,7.0,3.0,1.0,4.0,4.0,604.219748000105,2.0,1.0,part_1,,,,,,,,,,,,,blue,hexagon
0.0,1.0,0.0,0.0,2.0,2.0,797.9140340000868,2.0,1.0,part_1,,,,,,,,,,,,,yellow,I
166.0,1.0,1.0,0.0,2.0,2.0,366.1610090000522,2.0,1.0,part_1,,,,,,,,,,,,,yellow,I
317.0,2.0,2.0,0.0,3.0,3.0,506.11471899992466,2.0,1.0,part_1,,,,,,,,,,,,,magenta,diamond
1280.0,4.0,4.0,0.0,4.0,4.0,433.3190909999302,2.0,1.0,part_1,,,,,,,,,,,,,gray,triangle
0.0,5.0,0.0,1.0,3.0,3.0,376.475788000107,2.0,1.0,part_1,,,,,,,,,,,,,cyan,square
638.0,3.0,3.0,0.0,3.0,3.0,291.7568339998979,2.0,1.0,part_1,,,,,,,,,,,,,green,circle
0.0,6.0,0.0,1.0,1.0,1.0,374.9552709998625,2.0,1.0,part_1,,,,,,,,,,,,,white,cross
152.0,5.0,1.0,1.0,1.0,1.0,347.4252949999936,2.0,1.0,part_1,,,,,,,,,,,,,cyan,square
330.0,6.0,2.0,1.0,2.0,2.0,703.7825290001365,2.0,1.0,part_1,,,,,,,,,,,,,white,cross
159.0,5.0,1.0,1.0,3.0,3.0,478.4595660000832,2.0,1.0,part_1,,,,,,,,,,,,,cyan,square
1320.0,4.0,4.0,0.0,1.0,1.0,497.7753269999994,2.0,1.0,part_1,,,,,,,,,,,,,gray,triangle
138.0,5.0,1.0,1.0,4.0,4.0,534.7073160000946,2.0,1.0,part_1,,,,,,,,,,,,,cyan,square
1280.0,8.0,4.0,1.0,1.0,1.0,506.4500189998853,2.0,1.0,part_1,,,,,,,,,,,,,orange,flipped triangle
667.0,7.0,3.0,1.0,4.0,4.0,413.5799170001064,2.0,1.0,part_1,,,,,,,,,,,,,blue,hexagon
319.0,6.0,2.0,1.0,2.0,2.0,469.8783079998065,2.0,2.0,part_1,,,,,,,,,,,,,white,cross
350.0,6.0,2.0,1.0,2.0,2.0,412.2505699999692,2.0,1.0,part_1,,,,,,,,,,,,,white,cross
671.0,7.0,3.0,1.0,2.0,2.0,431.6750099999353,2.0,1.0,part_1,,,,,,,,,,,,,blue,hexagon
635.0,3.0,3.0,0.0,4.0,4.0,675.3706609999881,2.0,1.0,part_1,,,,,,,,,,,,,green,circle
348.0,6.0,2.0,1.0,2.0,2.0,460.8346819998132,2.0,1.0,part_1,,,,,,,,,,,,,white,cross
142.0,5.0,1.0,1.0,4.0,4.0,592.2581180000179,2.0,1.0,part_1,,,,,,,,,,,,,cyan,square
634.0,3.0,3.0,0.0,4.0,4.0,498.3610550000321,2.0,1.0,part_1,,,,,,,,,,,,,green,circle
1314.0,8.0,4.0,1.0,4.0,4.0,486.9427860000996,2.0,1.0,part_1,,,,,,,,,,,,,orange,flipped triangle
142.0,1.0,1.0,0.0,3.0,3.0,440.0564599998233,2.0,1.0,part_1,,,,,,,,,,,,,yellow,I
326.0,6.0,2.0,1.0,1.0,1.0,592.2269090001464,2.0,1.0,part_1,,,,,,,,,,,,,white,cross
652.0,3.0,3.0,0.0,1.0,1.0,403.2866299999114,2.0,1.0,part_1,,,,,,,,,,,,,green,circle
137.0,1.0,1.0,0.0,4.0,4.0,488.7236269998993,2.0,1.0,part_1,,,,,,,,,,,,,yellow,I
319.0,2.0,2.0,0.0,1.0,1.0,459.2141660000379,2.0,1.0,part_1,,,,,,,,,,,,,magenta,diamond
674.0,3.0,3.0,0.0,2.0,2.0,694.4228030001796,2.0,1.0,part_1,,,,,,,,,,,,,green,circle
142.0,5.0,1.0,1.0,3.0,3.0,533.8787700000012,2.0,1.0,part_1,,,,,,,,,,,,,cyan,square
0.0,6.0,0.0,1.0,3.0,3.0,440.2881170001365,2.0,1.0,part_1,,,,,,,,,,,,,white,cross
1286.0,4.0,4.0,0.0,1.0,1.0,356.6578889999618,2.0,1.0,part_1,,,,,,,,,,,,,gray,triangle
321.0,6.0,2.0,1.0,4.0,4.0,543.9612259999649,2.0,1.0,part_1,,,,,,,,,,,,,white,cross
183.0,5.0,1.0,1.0,3.0,3.0,365.4324499998438,2.0,1.0,part_1,,,,,,,,,,,,,cyan,square
0.0,4.0,0.0,0.0,3.0,3.0,393.2957459999215,2.0,1.0,part_1,,,,,,,,,,,,,gray,triangle
669.0,7.0,3.0,1.0,2.0,2.0,805.1405210001121,2.0,1.0,part_1,,,,,,,,,,,,,blue,hexagon
660.0,3.0,3.0,0.0,3.0,3.0,412.2124320001603,2.0,1.0,part_1,,,,,,,,,,,,,green,circle
183.0,5.0,1.0,1.0,2.0,2.0,552.4736730001223,2.0,2.0,part_1,,,,,,,,,,,,,cyan,square
320.0,2.0,2.0,0.0,4.0,4.0,479.9218400000882,2.0,1.0,part_1,,,,,,,,,,,,,magenta,diamond
0.0,5.0,0.0,1.0,1.0,1.0,477.6987709999503,2.0,1.0,part_1,,,,,,,,,,,,,cyan,square
313.0,6.0,2.0,1.0,3.0,3.0,497.9312269999809,2.0,1.0,part_1,,,,,,,,,,,,,white,cross
1281.0,4.0,4.0,0.0,1.0,1.0,656.9767100002082,2.0,1.0,part_1,,,,,,,,,,,,,gray,triangle
325.0,6.0,2.0,1.0,3.0,3.0,422.9011190000165,2.0,1.0,part_1,,,,,,,,,,,,,white,cross
332.0,2.0,2.0,0.0,1.0,1.0,777.8337790000478,2.0,1.0,part_1,,,,,,,,,,,,,magenta,diamond
323.0,2.0,2.0,0.0,2.0,2.0,645.9213840000757,2.0,1.0,part_1,,,,,,,,,,,,,magenta,diamond
1292.0,4.0,4.0,0.0,3.0,3.0,497.4632789999305,2.0,1.0,part_1,,,,,,,,,,,,,gray,triangle
320.0,6.0,2.0,1.0,4.0,4.0,516.500016000009,2.0,1.0,part_1,,,,,,,,,,,,,white,cross
330.0,2.0,2.0,0.0,3.0,3.0,450.3889170000548,2.0,1.0,part_1,,,,,,,,,,,,,magenta,diamond
338.0,6.0,2.0,1.0,4.0,4.0,478.1865810000454,2.0,1.0,part_1,,,,,,,,,,,,,white,cross
301.0,2.0,2.0,0.0,4.0,4.0,452.1025420001479,2.0,1.0,part_1,,,,,,,,,,,,,magenta,diamond
327.0,6.0,2.0,1.0,1.0,1.0,489.4202579998818,2.0,1.0,part_1,,,,,,,,,,,,,white,cross
660.0,7.0,3.0,1.0,2.0,2.0,516.6171650000706,2.0,1.0,part_1,,,,,,,,,,,,,blue,hexagon
1314.0,4.0,4.0,0.0,2.0,2.0,384.7754260000329,2.0,1.0,part_1,,,,,,,,,,,,,gray,triangle
1298.0,8.0,4.0,1.0,3.0,3.0,394.5187809999879,2.0,1.0,part_1,,,,,,,,,,,,,orange,flipped triangle
1316.0,8.0,4.0,1.0,3.0,3.0,337.8483580002012,2.0,1.0,part_1,,,,,,,,,,,,,orange,flipped triangle
163.0,1.0,1.0,0.0,1.0,1.0,441.9742430000042,2.0,1.0,part_1,,,,,,,,,,,,,yellow,I
0.0,4.0,0.0,0.0,1.0,1.0,412.8006739999819,2.0,1.0,part_1,,,,,,,,,,,,,gray,triangle
0.0,1.0,0.0,0.0,4.0,4.0,497.2034620000158,2.0,1.0,part_1,,,,,,,,,,,,,yellow,I
1295.0,4.0,4.0,0.0,3.0,3.0,394.4736859998556,2.0,1.0,part_1,,,,,,,,,,,,,gray,triangle
185.0,1.0,1.0,0.0,4.0,4.0,525.9244739997939,2.0,1.0,part_1,,,,,,,,,,,,,yellow,I
1291.0,4.0,4.0,0.0,3.0,3.0,422.1572199999173,2.0,1.0,part_1,,,,,,,,,,,,,gray,triangle
175.0,1.0,1.0,0.0,3.0,3.0,431.5943930000685,2.0,1.0,part_1,,,,,,,,,,,,,yellow,I
348.0,2.0,2.0,0.0,2.0,2.0,637.6647239999329,2.0,1.0,part_1,,,,,,,,,,,,,magenta,diamond
161.0,1.0,1.0,0.0,2.0,2.0,403.5353069998564,2.0,1.0,part_1,,,,,,,,,,,,,yellow,I
657.0,7.0,3.0,1.0,3.0,3.0,319.1221530000803,2.0,1.0,part_1,,,,,,,,,,,,,blue,hexagon
317.0,6.0,2.0,1.0,3.0,3.0,349.0335730000424,2.0,1.0,part_1,,,,,,,,,,,,,white,cross
648.0,7.0,3.0,1.0,3.0,3.0,432.0823799998834,2.0,1.0,part_1,,,,,,,,,,,,,blue,hexagon
142.0,1.0,1.0,0.0,1.0,1.0,646.6667999998208,2.0,1.0,part_1,,,,,,,,,,,,,yellow,I
175.0,5.0,1.0,1.0,4.0,4.0,459.8757910000586,2.0,1.0,part_1,,,,,,,,,,,,,cyan,square
0.0,6.0,0.0,1.0,3.0,3.0,450.5553520000376,2.0,1.0,part_1,,,,,,,,,,,,,white,cross
180.0,5.0,1.0,1.0,3.0,3.0,422.5972310000543,2.0,1.0,part_1,,,,,,,,,,,,,cyan,square
1312.0,4.0,4.0,0.0,2.0,2.0,459.1470200000458,2.0,1.0,part_1,,,,,,,,,,,,,gray,triangle
653.0,3.0,3.0,0.0,1.0,1.0,479.1192809998392,2.0,1.0,part_1,,,,,,,,,,,,,green,circle
0.0,8.0,0.0,1.0,2.0,2.0,534.4282579999344,2.0,2.0,part_1,,,,,,,,,,,,,orange,flipped triangle
0.0,1.0,0.0,0.0,3.0,3.0,422.2442049999699,2.0,1.0,part_1,,,,,,,,,,,,,yellow,I
0.0,5.0,0.0,1.0,3.0,3.0,318.4078990000216,2.0,1.0,part_1,,,,,,,,,,,,,cyan,square
644.0,3.0,3.0,0.0,1.0,1.0,495.4701679998834,2.0,1.0,part_1,,,,,,,,,,,,,green,circle
337.0,2.0,2.0,0.0,2.0,2.0,730.7082209999862,2.0,1.0,part_1,,,,,,,,,,,,,magenta,diamond
145.0,5.0,1.0,1.0,2.0,2.0,450.2209750000929,2.0,1.0,part_1,,,,,,,,,,,,,cyan,square
330.0,6.0,2.0,1.0,1.0,1.0,431.0255479999796,2.0,1.0,part_1,,,,,,,,,,,,,white,cross
639.0,7.0,3.0,1.0,1.0,1.0,689.1903900000216,3.0,1.0,part_1,,,,,,,,,,,,,blue,hexagon
0.0,6.0,0.0,1.0,4.0,4.0,556.2092019999909,3.0,1.0,part_1,,,,,,,,,,,,,white,cross
152.0,1.0,1.0,0.0,2.0,2.0,659.9325029999363,3.0,1.0,part_1,,,,,,,,,,,,,yellow,I
634.0,7.0,3.0,1.0,2.0,2.0,376.9547500000954,3.0,1.0,part_1,,,,,,,,,,,,,blue,hexagon
154.0,1.0,1.0,0.0,4.0,4.0,544.3697670000347,3.0,1.0,part_1,,,,,,,,,,,,,yellow,I
326.0,2.0,2.0,0.0,1.0,1.0,553.9766580000105,3.0,1.0,part_1,,,,,,,,,,,,,magenta,diamond
648.0,3.0,3.0,0.0,1.0,1.0,441.5176659999815,3.0,1.0,part_1,,,,,,,,,,,,,green,circle
0.0,2.0,0.0,0.0,3.0,3.0,395.8459860000403,3.0,1.0,part_1,,,,,,,,,,,,,magenta,diamond
0.0,8.0,0.0,1.0,1.0,1.0,504.88365299997895,3.0,1.0,part_1,,,,,,,,,,,,,orange,flipped triangle
185.0,1.0,1.0,0.0,1.0,1.0,366.6067429999202,3.0,1.0,part_1,,,,,,,,,,,,,yellow,I
655.0,3.0,3.0,0.0,2.0,2.0,685.4258319999644,3.0,1.0,part_1,,,,,,,,,,,,,green,circle
0.0,8.0,0.0,1.0,2.0,2.0,367.7270140001383,3.0,1.0,part_1,,,,,,,,,,,,,orange,flipped triangle
185.0,5.0,1.0,1.0,3.0,3.0,430.8553500000016,3.0,1.0,part_1,,,,,,,,,,,,,cyan,square
0.0,5.0,0.0,1.0,3.0,3.0,375.9739629999785,3.0,1.0,part_1,,,,,,,,,,,,,cyan,square
137.0,5.0,1.0,1.0,1.0,1.0,348.8271979999808,3.0,1.0,part_1,,,,,,,,,,,,,cyan,square
652.0,7.0,3.0,1.0,4.0,4.0,451.2249489998794,3.0,1.0,part_1,,,,,,,,,,,,,blue,hexagon
336.0,6.0,2.0,1.0,2.0,2.0,434.0928889998849,3.0,1.0,part_1,,,,,,,,,,,,,white,cross
1287.0,4.0,4.0,0.0,2.0,2.0,377.4018229999001,3.0,1.0,part_1,,,,,,,,,,,,,gray,triangle
1306.0,4.0,4.0,0.0,2.0,2.0,339.1432900000382,3.0,1.0,part_1,,,,,,,,,,,,,gray,triangle
342.0,6.0,2.0,1.0,4.0,4.0,469.2819930000951,3.0,1.0,part_1,,,,,,,,,,,,,white,cross
1321.0,8.0,4.0,1.0,2.0,2.0,384.3869180000183,3.0,1.0,part_1,,,,,,,,,,,,,orange,flipped triangle
638.0,7.0,3.0,1.0,4.0,4.0,432.1010280000337,3.0,1.0,part_1,,,,,,,,,,,,,blue,hexagon
632.0,3.0,3.0,0.0,3.0,3.0,459.7929980000117,3.0,1.0,part_1,,,,,,,,,,,,,green,circle
670.0,7.0,3.0,1.0,4.0,4.0,573.0979110001044,3.0,1.0,part_1,,,,,,,,,,,,,blue,hexagon
308.0,2.0,2.0,0.0,3.0,3.0,517.3805189999712,3.0,1.0,part_1,,,,,,,,,,,,,magenta,diamond
1288.0,4.0,4.0,0.0,4.0,4.0,460.5743380000149,3.0,1.0,part_1,,,,,,,,,,,,,gray,triangle
1302.0,4.0,4.0,0.0,3.0,3.0,460.7666570000219,3.0,1.0,part_1,,,,,,,,,,,,,gray,triangle
170.0,5.0,1.0,1.0,1.0,1.0,592.4871619999976,3.0,1.0,part_1,,,,,,,,,,,,,cyan,square
166.0,5.0,1.0,1.0,4.0,4.0,901.7348940001284,3.0,1.0,part_1,,,,,,,,,,,,,cyan,square
333.0,6.0,2.0,1.0,4.0,4.0,489.2014859999563,3.0,1.0,part_1,,,,,,,,,,,,,white,cross
674.0,7.0,3.0,1.0,1.0,1.0,534.838488999867,3.0,1.0,part_1,,,,,,,,,,,,,blue,hexagon
630.0,7.0,3.0,1.0,2.0,2.0,639.4090310000138,3.0,1.0,part_1,,,,,,,,,,,,,blue,hexagon
163.0,5.0,1.0,1.0,4.0,4.0,516.6202590000921,3.0,1.0,part_1,,,,,,,,,,,,,cyan,square
0.0,4.0,0.0,0.0,2.0,2.0,365.7289239999954,3.0,1.0,part_1,,,,,,,,,,,,,gray,triangle
305.0,2.0,2.0,0.0,3.0,3.0,460.2495710000767,3.0,1.0,part_1,,,,,,,,,,,,,magenta,diamond
137.0,5.0,1.0,1.0,4.0,4.0,659.4113740000012,3.0,1.0,part_1,,,,,,,,,,,,,cyan,square
350.0,2.0,2.0,0.0,2.0,2.0,722.0980649999547,3.0,1.0,part_1,,,,,,,,,,,,,magenta,diamond
321.0,2.0,2.0,0.0,2.0,2.0,460.645771000145,3.0,1.0,part_1,,,,,,,,,,,,,magenta,diamond
348.0,2.0,2.0,0.0,3.0,3.0,478.7228340001093,3.0,2.0,part_1,,,,,,,,,,,,,magenta,diamond
350.0,6.0,2.0,1.0,1.0,1.0,853.9628390001326,3.0,1.0,part_1,,,,,,,,,,,,,white,cross
183.0,1.0,1.0,0.0,2.0,2.0,894.8258719999558,3.0,1.0,part_1,,,,,,,,,,,,,yellow,I
626.0,3.0,3.0,0.0,1.0,1.0,555.6937469998502,3.0,1.0,part_1,,,,,,,,,,,,,green,circle
328.0,2.0,2.0,0.0,1.0,1.0,441.8068360000688,3.0,1.0,part_1,,,,,,,,,,,,,magenta,diamond
139.0,5.0,1.0,1.0,4.0,4.0,574.0665990001617,3.0,1.0,part_1,,,,,,,,,,,,,cyan,square
634.0,7.0,3.0,1.0,4.0,4.0,432.5615420000304,3.0,1.0,part_1,,,,,,,,,,,,,blue,hexagon
1324.0,8.0,4.0,1.0,4.0,4.0,442.7866569999423,3.0,1.0,part_1,,,,,,,,,,,,,orange,flipped triangle
0.0,6.0,0.0,1.0,3.0,3.0,386.4800930000456,3.0,1.0,part_1,,,,,,,,,,,,,white,cross
657.0,7.0,3.0,1.0,3.0,3.0,394.5321879998573,3.0,1.0,part_1,,,,,,,,,,,,,blue,hexagon
1282.0,4.0,4.0,0.0,1.0,1.0,779.6694910000497,3.0,1.0,part_1,,,,,,,,,,,,,gray,triangle
139.0,1.0,1.0,0.0,1.0,1.0,413.2637550001163,3.0,1.0,part_1,,,,,,,,,,,,,yellow,I
1312.0,4.0,4.0,0.0,1.0,1.0,405.4066119999788,3.0,1.0,part_1,,,,,,,,,,,,,gray,triangle
645.0,3.0,3.0,0.0,3.0,3.0,431.2927040000431,3.0,1.0,part_1,,,,,,,,,,,,,green,circle
1290.0,8.0,4.0,1.0,4.0,4.0,573.553585000127,3.0,1.0,part_1,,,,,,,,,,,,,orange,flipped triangle
1286.0,8.0,4.0,1.0,1.0,1.0,421.7963119999695,3.0,1.0,part_1,,,,,,,,,,,,,orange,flipped triangle
654.0,7.0,3.0,1.0,2.0,2.0,488.9990350000062,3.0,1.0,part_1,,,,,,,,,,,,,blue,hexagon
0.0,4.0,0.0,0.0,3.0,3.0,440.6590700000379,3.0,1.0,part_1,,,,,,,,,,,,,gray,triangle
338.0,2.0,2.0,0.0,1.0,1.0,724.0944170000603,3.0,1.0,part_1,,,,,,,,,,,,,magenta,diamond
157.0,1.0,1.0,0.0,3.0,3.0,601.8769380000322,3.0,1.0,part_1,,,,,,,,,,,,,yellow,I
0.0,7.0,0.0,1.0,1.0,1.0,440.8149420000882,3.0,1.0,part_1,,,,,,,,,,,,,blue,hexagon
145.0,5.0,1.0,1.0,3.0,3.0,347.8987529999813,3.0,1.0,part_1,,,,,,,,,,,,,cyan,square
1300.0,8.0,4.0,1.0,1.0,1.0,395.5827550000776,3.0,1.0,part_1,,,,,,,,,,,,,orange,flipped triangle
0.0,4.0,0.0,0.0,4.0,4.0,713.2320420000724,3.0,1.0,part_1,,,,,,,,,,,,,gray,triangle
625.0,3.0,3.0,0.0,4.0,4.0,470.6883040000775,3.0,1.0,part_1,,,,,,,,,,,,,green,circle
138.0,1.0,1.0,0.0,3.0,3.0,460.4639090000546,3.0,1.0,part_1,,,,,,,,,,,,,yellow,I
335.0,2.0,2.0,0.0,3.0,3.0,404.5292960001916,3.0,1.0,part_1,,,,,,,,,,,,,magenta,diamond
301.0,6.0,2.0,1.0,4.0,4.0,478.9189859998259,3.0,1.0,part_1,,,,,,,,,,,,,white,cross
1276.0,4.0,4.0,0.0,4.0,4.0,468.5432249998484,3.0,1.0,part_1,,,,,,,,,,,,,gray,triangle
1288.0,8.0,4.0,1.0,4.0,4.0,466.3721260001239,3.0,1.0,part_1,,,,,,,,,,,,,orange,flipped triangle
185.0,5.0,1.0,1.0,3.0,3.0,426.4077730001645,3.0,1.0,part_1,,,,,,,,,,,,,cyan,square
1280.0,4.0,4.0,0.0,4.0,4.0,418.418137999879,3.0,1.0,part_1,,,,,,,,,,,,,gray,triangle
1300.0,4.0,4.0,0.0,1.0,1.0,369.8503470000105,3.0,1.0,part_1,,,,,,,,,,,,,gray,triangle
139.0,5.0,1.0,1.0,1.0,1.0,359.4951609998134,3.0,1.0,part_1,,,,,,,,,,,,,cyan,square
0.0,7.0,0.0,1.0,2.0,2.0,457.1168909999414,3.0,2.0,part_1,,,,,,,,,,,,,blue,hexagon
315.0,2.0,2.0,0.0,3.0,3.0,519.7359579999556,3.0,1.0,part_1,,,,,,,,,,,,,magenta,diamond
1317.0,8.0,4.0,1.0,4.0,4.0,517.6723770000535,3.0,1.0,part_1,,,,,,,,,,,,,orange,flipped triangle
183.0,1.0,1.0,0.0,4.0,4.0,404.1427350000504,3.0,1.0,part_1,,,,,,,,,,,,,yellow,I
1295.0,4.0,4.0,0.0,4.0,4.0,516.4214549999997,3.0,1.0,part_1,,,,,,,,,,,,,gray,triangle
334.0,6.0,2.0,1.0,2.0,2.0,734.1797480000878,3.0,1.0,part_1,,,,,,,,,,,,,white,cross
644.0,7.0,3.0,1.0,4.0,4.0,497.3006820000591,3.0,1.0,part_1,,,,,,,,,,,,,blue,hexagon
674.0,3.0,3.0,0.0,3.0,3.0,873.1518380000125,3.0,1.0,part_1,,,,,,,,,,,,,green,circle
1298.0,8.0,4.0,1.0,1.0,1.0,496.3701639999271,3.0,1.0,part_1,,,,,,,,,,,,,orange,flipped triangle
0.0,5.0,0.0,1.0,1.0,1.0,423.113290999936,3.0,1.0,part_1,,,,,,,,,,,,,cyan,square
137.0,1.0,1.0,0.0,3.0,3.0,629.0529369998694,3.0,1.0,part_1,,,,,,,,,,,,,yellow,I
180.0,5.0,1.0,1.0,2.0,2.0,495.2272810000977,3.0,1.0,part_1,,,,,,,,,,,,,cyan,square
1286.0,8.0,4.0,1.0,2.0,2.0,470.8915870000965,3.0,1.0,part_1,,,,,,,,,,,,,orange,flipped triangle
0.0,4.0,0.0,0.0,4.0,4.0,461.72820700007827,3.0,1.0,part_1,,,,,,,,,,,,,gray,triangle
1299.0,8.0,4.0,1.0,4.0,4.0,384.2894089998481,3.0,1.0,part_1,,,,,,,,,,,,,orange,flipped triangle
1301.0,8.0,4.0,1.0,3.0,3.0,506.38989500021125,3.0,1.0,part_1,,,,,,,,,,,,,orange,flipped triangle
0.0,3.0,0.0,0.0,4.0,4.0,555.225615999916,3.0,1.0,part_1,,,,,,,,,,,,,green,circle
0.0,1.0,0.0,0.0,1.0,1.0,432.5494140000501,3.0,1.0,part_1,,,,,,,,,,,,,yellow,I
305.0,6.0,2.0,1.0,3.0,3.0,440.2863929999512,3.0,1.0,part_1,,,,,,,,,,,,,white,cross
0.0,5.0,0.0,1.0,3.0,3.0,422.5363369998831,3.0,1.0,part_1,,,,,,,,,,,,,cyan,square
626.0,7.0,3.0,1.0,4.0,4.0,564.7371769998699,3.0,1.0,part_1,,,,,,,,,,,,,blue,hexagon
301.0,6.0,2.0,1.0,2.0,2.0,862.5047989999075,3.0,1.0,part_1,,,,,,,,,,,,,white,cross
168.0,1.0,1.0,0.0,2.0,2.0,393.0010369999763,3.0,1.0,part_1,,,,,,,,,,,,,yellow,I
323.0,6.0,2.0,1.0,2.0,2.0,365.1903160000529,3.0,1.0,part_1,,,,,,,,,,,,,white,cross
335.0,6.0,2.0,1.0,3.0,3.0,525.2969109999412,3.0,1.0,part_1,,,,,,,,,,,,,white,cross
154.0,5.0,1.0,1.0,1.0,1.0,535.2037410000321,3.0,1.0,part_1,,,,,,,,,,,,,cyan,square
0.0,4.0,0.0,0.0,1.0,1.0,359.9382869999772,3.0,1.0,part_1,,,,,,,,,,,,,gray,triangle
0.0,8.0,0.0,1.0,1.0,1.0,424.2709949999153,3.0,1.0,part_1,,,,,,,,,,,,,orange,flipped triangle
0.0,4.0,0.0,0.0,3.0,3.0,517.870233000167,4.0,1.0,part_1,,,,,,,,,,,,,gray,triangle
166.0,1.0,1.0,0.0,4.0,4.0,657.2451720001027,4.0,1.0,part_1,,,,,,,,,,,,,yellow,I
1317.0,8.0,4.0,1.0,3.0,3.0,479.483848999962,4.0,1.0,part_1,,,,,,,,,,,,,orange,flipped triangle
657.0,3.0,3.0,0.0,4.0,4.0,534.9408849999691,4.0,1.0,part_1,,,,,,,,,,,,,green,circle
166.0,5.0,1.0,1.0,1.0,1.0,657.5478709999061,4.0,1.0,part_1,,,,,,,,,,,,,cyan,square
326.0,6.0,2.0,1.0,4.0,4.0,564.2123770001035,4.0,1.0,part_1,,,,,,,,,,,,,white,cross
161.0,5.0,1.0,1.0,2.0,2.0,561.7564880001282,4.0,1.0,part_1,,,,,,,,,,,,,cyan,square
320.0,6.0,2.0,1.0,1.0,1.0,722.960164000142,4.0,1.0,part_1,,,,,,,,,,,,,white,cross
0.0,2.0,0.0,0.0,4.0,4.0,412.5265469999704,4.0,1.0,part_1,,,,,,,,,,,,,magenta,diamond
167.0,5.0,1.0,1.0,4.0,4.0,468.1330680000428,4.0,1.0,part_1,,,,,,,,,,,,,cyan,square
657.0,3.0,3.0,0.0,2.0,2.0,581.8190089999007,4.0,1.0,part_1,,,,,,,,,,,,,green,circle
0.0,7.0,0.0,1.0,1.0,1.0,507.83358900002895,4.0,1.0,part_1,,,,,,,,,,,,,blue,hexagon
308.0,6.0,2.0,1.0,3.0,3.0,451.4415030000691,4.0,1.0,part_1,,,,,,,,,,,,,white,cross
328.0,6.0,2.0,1.0,1.0,1.0,583.3436789998814,4.0,1.0,part_1,,,,,,,,,,,,,white,cross
639.0,3.0,3.0,0.0,2.0,2.0,629.6474050000143,4.0,1.0,part_1,,,,,,,,,,,,,green,circle
332.0,6.0,2.0,1.0,2.0,2.0,413.4713749999719,4.0,1.0,part_1,,,,,,,,,,,,,white,cross
658.0,7.0,3.0,1.0,2.0,2.0,384.6860590001597,4.0,1.0,part_1,,,,,,,,,,,,,blue,hexagon
0.0,8.0,0.0,1.0,3.0,3.0,414.173018999918,4.0,1.0,part_1,,,,,,,,,,,,,orange,flipped triangle
1324.0,4.0,4.0,0.0,2.0,2.0,582.2393480000301,4.0,1.0,part_1,,,,,,,,,,,,,gray,triangle
0.0,2.0,0.0,0.0,4.0,4.0,507.2147749999658,4.0,1.0,part_1,,,,,,,,,,,,,magenta,diamond
0.0,5.0,0.0,1.0,3.0,3.0,524.9797030000991,4.0,1.0,part_1,,,,,,,,,,,,,cyan,square
0.0,7.0,0.0,1.0,4.0,4.0,496.5937150000172,4.0,1.0,part_1,,,,,,,,,,,,,blue,hexagon
1325.0,4.0,4.0,0.0,1.0,1.0,629.2130720000841,4.0,1.0,part_1,,,,,,,,,,,,,gray,triangle
635.0,7.0,3.0,1.0,3.0,3.0,385.3799390001313,4.0,1.0,part_1,,,,,,,,,,,,,blue,hexagon
655.0,7.0,3.0,1.0,1.0,1.0,608.4729990000142,4.0,1.0,part_1,,,,,,,,,,,,,blue,hexagon
1288.0,4.0,4.0,0.0,3.0,3.0,414.1422719999355,4.0,1.0,part_1,,,,,,,,,,,,,gray,triangle
0.0,6.0,0.0,1.0,1.0,1.0,450.8173530000476,4.0,1.0,part_1,,,,,,,,,,,,,white,cross
0.0,6.0,0.0,1.0,2.0,2.0,393.7115230000927,4.0,2.0,part_1,,,,,,,,,,,,,white,cross
669.0,3.0,3.0,0.0,1.0,1.0,470.8717179998984,4.0,1.0,part_1,,,,,,,,,,,,,green,circle
169.0,5.0,1.0,1.0,1.0,1.0,356.8049159998736,4.0,1.0,part_1,,,,,,,,,,,,,cyan,square
174.0,5.0,1.0,1.0,3.0,3.0,460.1736179999989,4.0,1.0,part_1,,,,,,,,,,,,,cyan,square
0.0,2.0,0.0,0.0,1.0,1.0,499.8529290000988,4.0,1.0,part_1,,,,,,,,,,,,,magenta,diamond
0.0,6.0,0.0,1.0,1.0,1.0,366.999240000041,4.0,1.0,part_1,,,,,,,,,,,,,white,cross
309.0,2.0,2.0,0.0,4.0,4.0,507.1512619999794,4.0,1.0,part_1,,,,,,,,,,,,,magenta,diamond
0.0,3.0,0.0,0.0,3.0,3.0,385.1795159998801,4.0,1.0,part_1,,,,,,,,,,,,,green,circle
0.0,1.0,0.0,0.0,1.0,1.0,612.9619819998879,4.0,1.0,part_1,,,,,,,,,,,,,yellow,I
1316.0,4.0,4.0,0.0,4.0,4.0,347.9043059999185,4.0,1.0,part_1,,,,,,,,,,,,,gray,triangle
0.0,1.0,0.0,0.0,1.0,1.0,319.3358889998308,4.0,1.0,part_1,,,,,,,,,,,,,yellow,I
0.0,6.0,0.0,1.0,4.0,4.0,451.6521049999937,4.0,1.0,part_1,,,,,,,,,,,,,white,cross
139.0,1.0,1.0,0.0,1.0,1.0,367.5610840000445,4.0,1.0,part_1,,,,,,,,,,,,,yellow,I
348.0,6.0,2.0,1.0,4.0,4.0,479.629401000011,4.0,1.0,part_1,,,,,,,,,,,,,white,cross
311.0,2.0,2.0,0.0,1.0,1.0,397.1901800000523,4.0,1.0,part_1,,,,,,,,,,,,,magenta,diamond
154.0,5.0,1.0,1.0,3.0,3.0,406.3722349999352,4.0,1.0,part_1,,,,,,,,,,,,,cyan,square
145.0,5.0,1.0,1.0,2.0,2.0,320.1866110000537,4.0,1.0,part_1,,,,,,,,,,,,,cyan,square
181.0,1.0,1.0,0.0,1.0,1.0,470.7798419999562,4.0,1.0,part_1,,,,,,,,,,,,,yellow,I
145.0,1.0,1.0,0.0,2.0,2.0,906.2950420000108,4.0,1.0,part_1,,,,,,,,,,,,,yellow,I
650.0,7.0,3.0,1.0,2.0,2.0,406.9481229998928,4.0,1.0,part_1,,,,,,,,,,,,,blue,hexagon
1280.0,4.0,4.0,0.0,1.0,1.0,469.1358179998133,4.0,1.0,part_1,,,,,,,,,,,,,gray,triangle
655.0,7.0,3.0,1.0,2.0,2.0,432.4408859999948,4.0,1.0,part_1,,,,,,,,,,,,,blue,hexagon
1287.0,4.0,4.0,0.0,4.0,4.0,649.9273639999501,4.0,1.0,part_1,,,,,,,,,,,,,gray,triangle
168.0,1.0,1.0,0.0,4.0,4.0,421.3874079998732,4.0,1.0,part_1,,,,,,,,,,,,,yellow,I
1312.0,8.0,4.0,1.0,3.0,3.0,479.3108370001846,4.0,1.0,part_1,,,,,,,,,,,,,orange,flipped triangle
159.0,1.0,1.0,0.0,4.0,4.0,501.3854049998372,4.0,1.0,part_1,,,,,,,,,,,,,yellow,I
305.0,6.0,2.0,1.0,1.0,1.0,461.5285130000757,4.0,1.0,part_1,,,,,,,,,,,,,white,cross
179.0,1.0,1.0,0.0,1.0,1.0,442.7379919998202,4.0,1.0,part_1,,,,,,,,,,,,,yellow,I
628.0,3.0,3.0,0.0,3.0,3.0,451.3110809998579,4.0,1.0,part_1,,,,,,,,,,,,,green,circle
183.0,5.0,1.0,1.0,1.0,1.0,413.8577449998593,4.0,1.0,part_1,,,,,,,,,,,,,cyan,square
337.0,6.0,2.0,1.0,3.0,3.0,472.1852570000919,4.0,1.0,part_1,,,,,,,,,,,,,white,cross
1300.0,8.0,4.0,1.0,1.0,1.0,620.4713070001162,4.0,1.0,part_1,,,,,,,,,,,,,orange,flipped triangle
1311.0,4.0,4.0,0.0,2.0,2.0,565.278109000019,4.0,1.0,part_1,,,,,,,,,,,,,gray,triangle
181.0,5.0,1.0,1.0,3.0,3.0,592.633006999904,4.0,1.0,part_1,,,,,,,,,,,,,cyan,square
336.0,2.0,2.0,0.0,3.0,3.0,366.7182030001186,4.0,1.0,part_1,,,,,,,,,,,,,magenta,diamond
145.0,1.0,1.0,0.0,1.0,1.0,488.880151000103,4.0,1.0,part_1,,,,,,,,,,,,,yellow,I
325.0,2.0,2.0,0.0,4.0,4.0,489.5846769998115,4.0,1.0,part_1,,,,,,,,,,,,,magenta,diamond
0.0,7.0,0.0,1.0,4.0,4.0,362.0710179998241,4.0,1.0,part_1,,,,,,,,,,,,,blue,hexagon
1280.0,8.0,4.0,1.0,1.0,1.0,377.3218919998271,4.0,1.0,part_1,,,,,,,,,,,,,orange,flipped triangle
180.0,1.0,1.0,0.0,4.0,4.0,358.3018770000308,4.0,1.0,part_1,,,,,,,,,,,,,yellow,I
306.0,6.0,2.0,1.0,1.0,1.0,359.1792219999661,4.0,1.0,part_1,,,,,,,,,,,,,white,cross
315.0,6.0,2.0,1.0,1.0,1.0,442.6029969999945,4.0,1.0,part_1,,,,,,,,,,,,,white,cross
159.0,5.0,1.0,1.0,2.0,2.0,632.0536870000524,4.0,1.0,part_1,,,,,,,,,,,,,cyan,square
1286.0,4.0,4.0,0.0,2.0,2.0,329.5158199998695,4.0,1.0,part_1,,,,,,,,,,,,,gray,triangle
0.0,7.0,0.0,1.0,1.0,1.0,385.0942919998488,4.0,1.0,part_1,,,,,,,,,,,,,blue,hexagon
651.0,7.0,3.0,1.0,3.0,3.0,482.113973999958,4.0,1.0,part_1,,,,,,,,,,,,,blue,hexagon
651.0,3.0,3.0,0.0,2.0,2.0,330.5597260000468,4.0,1.0,part_1,,,,,,,,,,,,,green,circle
317.0,6.0,2.0,1.0,4.0,4.0,302.701246999959,4.0,1.0,part_1,,,,,,,,,,,,,white,cross
662.0,3.0,3.0,0.0,4.0,4.0,396.1385239999799,4.0,1.0,part_1,,,,,,,,,,,,,green,circle
1306.0,8.0,4.0,1.0,3.0,3.0,424.2959510002038,4.0,1.0,part_1,,,,,,,,,,,,,orange,flipped triangle
333.0,2.0,2.0,0.0,1.0,1.0,478.4422990001076,4.0,2.0,part_1,,,,,,,,,,,,,magenta,diamond
181.0,1.0,1.0,0.0,2.0,2.0,479.4976020000376,4.0,1.0,part_1,,,,,,,,,,,,,yellow,I
666.0,7.0,3.0,1.0,3.0,3.0,441.7715609999959,4.0,1.0,part_1,,,,,,,,,,,,,blue,hexagon
314.0,6.0,2.0,1.0,2.0,2.0,667.4174019999555,4.0,1.0,part_1,,,,,,,,,,,,,white,cross
0.0,3.0,0.0,0.0,2.0,2.0,404.1534949999459,4.0,1.0,part_1,,,,,,,,,,,,,green,circle
145.0,1.0,1.0,0.0,3.0,3.0,422.1305700000357,4.0,1.0,part_1,,,,,,,,,,,,,yellow,I
0.0,3.0,0.0,0.0,4.0,4.0,489.7252559999288,4.0,1.0,part_1,,,,,,,,,,,,,green,circle
625.0,7.0,3.0,1.0,1.0,1.0,356.7528469998251,4.0,1.0,part_1,,,,,,,,,,,,,blue,hexagon
167.0,1.0,1.0,0.0,3.0,3.0,395.2331259999937,4.0,1.0,part_1,,,,,,,,,,,,,yellow,I
174.0,1.0,1.0,0.0,4.0,4.0,339.2456840001614,4.0,1.0,part_1,,,,,,,,,,,,,yellow,I
660.0,3.0,3.0,0.0,4.0,4.0,403.9603300000181,4.0,1.0,part_1,,,,,,,,,,,,,green,circle
1321.0,4.0,4.0,0.0,1.0,1.0,477.9736749999301,4.0,1.0,part_1,,,,,,,,,,,,,gray,triangle
183.0,1.0,1.0,0.0,1.0,1.0,301.5258299999459,4.0,1.0,part_1,,,,,,,,,,,,,yellow,I
160.0,1.0,1.0,0.0,2.0,2.0,498.2153180001205,4.0,1.0,part_1,,,,,,,,,,,,,yellow,I
1325.0,8.0,4.0,1.0,2.0,2.0,309.5410020000599,4.0,1.0,part_1,,,,,,,,,,,,,orange,flipped triangle
0.0,2.0,0.0,0.0,2.0,2.0,330.2065610000682,4.0,1.0,part_1,,,,,,,,,,,,,magenta,diamond
0.0,2.0,0.0,0.0,3.0,3.0,433.6313240000891,4.0,1.0,part_1,,,,,,,,,,,,,magenta,diamond
1299.0,4.0,4.0,0.0,4.0,4.0,394.8925229999531,4.0,1.0,part_1,,,,,,,,,,,,,gray,triangle
1280.0,8.0,4.0,1.0,1.0,1.0,367.23315800009,4.0,1.0,part_1,,,,,,,,,,,,,orange,flipped triangle
0.0,8.0,0.0,1.0,3.0,3.0,339.6167549999518,4.0,1.0,part_1,,,,,,,,,,,,,orange,flipped triangle
334.0,2.0,2.0,0.0,4.0,4.0,545.2700710000045,4.0,1.0,part_1,,,,,,,,,,,,,magenta,diamond
1295.0,8.0,4.0,1.0,2.0,2.0,338.3008060000065,4.0,1.0,part_1,,,,,,,,,,,,,orange,flipped triangle
0.0,2.0,0.0,0.0,1.0,1.0,658.336540000164,4.0,1.0,part_1,,,,,,,,,,,,,magenta,diamond
0.0,4.0,4.0,0.0,5.0,5.0,433.7439679998169,1.0,0.0,part_2,go,250.0,250.0,1.0,,,,,,,,,gray,triangle
0.0,6.0,2.0,1.0,6.0,6.0,621.0134309999376,1.0,0.0,part_2,stop,250.0,250.0,3.0,,,,,,,,,white,cross
0.0,1.0,1.0,0.0,5.0,5.0,698.0884670001615,1.0,0.0,part_2,go,250.0,200.0,1.0,,,,,,,,,yellow,I
0.0,6.0,2.0,1.0,5.0,0.0,0.0,1.0,0.0,part_2,stop,250.0,200.0,4.0,,,,,,,,,white,cross
0.0,7.0,3.0,1.0,5.0,0.0,0.0,1.0,0.0,part_2,stop,300.0,200.0,4.0,,,,,,,,,blue,hexagon
0.0,3.0,3.0,0.0,6.0,6.0,577.0216760001858,1.0,0.0,part_2,go,350.0,200.0,1.0,,,,,,,,,green,circle
0.0,5.0,1.0,1.0,6.0,0.0,0.0,1.0,0.0,part_2,stop,350.0,200.0,4.0,,,,,,,,,cyan,square
0.0,8.0,4.0,1.0,6.0,0.0,0.0,1.0,0.0,part_2,stop,350.0,250.0,4.0,,,,,,,,,orange,flipped triangle
0.0,5.0,1.0,1.0,5.0,5.0,670.1198219998332,1.0,0.0,part_2,go,350.0,300.0,1.0,,,,,,,,,cyan,square
0.0,6.0,2.0,1.0,6.0,0.0,0.0,1.0,0.0,part_2,stop,350.0,300.0,4.0,,,,,,,,,white,cross
0.0,4.0,4.0,0.0,5.0,5.0,1106.9718680000733,1.0,0.0,part_2,go,350.0,350.0,1.0,,,,,,,,,gray,triangle
0.0,5.0,1.0,1.0,5.0,0.0,0.0,1.0,0.0,part_2,stop,350.0,350.0,4.0,,,,,,,,,cyan,square
0.0,7.0,3.0,1.0,6.0,6.0,1010.003504999986,1.0,0.0,part_2,go,400.0,350.0,1.0,,,,,,,,,blue,hexagon
0.0,5.0,1.0,1.0,6.0,0.0,0.0,1.0,0.0,part_2,stop,400.0,350.0,4.0,,,,,,,,,cyan,square
0.0,6.0,2.0,1.0,6.0,0.0,0.0,1.0,0.0,part_2,stop,400.0,400.0,4.0,,,,,,,,,white,cross
0.0,4.0,4.0,0.0,5.0,5.0,727.4811460001729,1.0,0.0,part_2,go,400.0,450.0,1.0,,,,,,,,,gray,triangle
0.0,5.0,1.0,1.0,5.0,0.0,0.0,1.0,0.0,part_2,stop,400.0,450.0,4.0,,,,,,,,,cyan,square
0.0,8.0,4.0,1.0,5.0,0.0,0.0,1.0,0.0,part_2,stop,450.0,450.0,4.0,,,,,,,,,orange,flipped triangle
0.0,6.0,2.0,1.0,6.0,0.0,0.0,1.0,0.0,part_2,stop,500.0,450.0,4.0,,,,,,,,,white,cross
0.0,1.0,1.0,0.0,6.0,6.0,868.9464650001355,1.0,0.0,part_2,go,500.0,500.0,1.0,,,,,,,,,yellow,I
0.0,7.0,3.0,1.0,5.0,5.0,1065.6888609996713,1.0,0.0,part_2,go,500.0,500.0,1.0,,,,,,,,,blue,hexagon
0.0,5.0,1.0,1.0,5.0,5.0,1132.891150999967,1.0,0.0,part_2,go,500.0,500.0,1.0,,,,,,,,,cyan,square
0.0,4.0,4.0,0.0,5.0,5.0,971.8730660001712,1.0,0.0,part_2,go,500.0,500.0,1.0,,,,,,,,,gray,triangle
0.0,5.0,1.0,1.0,5.0,5.0,1358.116973000051,1.0,0.0,part_2,go,500.0,500.0,1.0,,,,,,,,,cyan,square
0.0,7.0,3.0,1.0,5.0,5.0,1036.4032610000322,1.0,0.0,part_2,go,500.0,500.0,1.0,,,,,,,,,blue,hexagon
0.0,2.0,2.0,0.0,5.0,5.0,1057.1127289999822,1.0,0.0,part_2,go,500.0,500.0,1.0,,,,,,,,,magenta,diamond
0.0,3.0,3.0,0.0,6.0,6.0,846.9683719999921,1.0,0.0,part_2,go,500.0,500.0,1.0,,,,,,,,,green,circle
0.0,8.0,4.0,1.0,5.0,0.0,0.0,1.0,0.0,part_2,stop,500.0,500.0,4.0,,,,,,,,,orange,flipped triangle
0.0,6.0,2.0,1.0,6.0,0.0,0.0,1.0,0.0,part_2,stop,550.0,500.0,4.0,,,,,,,,,white,cross
0.0,6.0,2.0,1.0,5.0,0.0,0.0,1.0,0.0,part_2,stop,550.0,550.0,4.0,,,,,,,,,white,cross
0.0,2.0,2.0,0.0,5.0,5.0,878.3520100000715,1.0,0.0,part_2,go,600.0,550.0,1.0,,,,,,,,,magenta,diamond
0.0,8.0,4.0,1.0,6.0,0.0,0.0,1.0,0.0,part_2,stop,600.0,550.0,4.0,,,,,,,,,orange,flipped triangle
0.0,2.0,2.0,0.0,5.0,5.0,1197.4792219998562,1.0,0.0,part_2,go,600.0,600.0,1.0,,,,,,,,,magenta,diamond
0.0,7.0,3.0,1.0,6.0,0.0,0.0,1.0,0.0,part_2,stop,600.0,600.0,4.0,,,,,,,,,blue,hexagon
0.0,5.0,1.0,1.0,6.0,0.0,0.0,1.0,0.0,part_2,stop,600.0,650.0,4.0,,,,,,,,,cyan,square
0.0,8.0,4.0,1.0,5.0,5.0,1113.7092840003788,1.0,0.0,part_2,go,600.0,700.0,1.0,,,,,,,,,orange,flipped triangle
0.0,2.0,2.0,0.0,6.0,6.0,434.3301419999079,2.0,0.0,part_2,go,600.0,700.0,1.0,,,,,,,,,magenta,diamond
0.0,4.0,4.0,0.0,6.0,6.0,415.0813779997406,2.0,0.0,part_2,go,600.0,700.0,1.0,,,,,,,,,gray,triangle
0.0,7.0,3.0,1.0,5.0,0.0,0.0,2.0,0.0,part_2,stop,600.0,700.0,4.0,,,,,,,,,blue,hexagon
0.0,2.0,2.0,0.0,6.0,6.0,406.5102660001685,2.0,0.0,part_2,go,650.0,700.0,1.0,,,,,,,,,magenta,diamond
0.0,8.0,4.0,1.0,5.0,0.0,0.0,2.0,0.0,part_2,stop,650.0,700.0,4.0,,,,,,,,,orange,flipped triangle
0.0,5.0,1.0,1.0,6.0,6.0,322.3659609998321,2.0,0.0,part_2,stop,700.0,700.0,3.0,,,,,,,,,cyan,square
0.0,5.0,1.0,1.0,6.0,0.0,0.0,2.0,0.0,part_2,stop,700.0,650.0,4.0,,,,,,,,,cyan,square
0.0,1.0,1.0,0.0,6.0,6.0,832.3502909997842,2.0,0.0,part_2,go,700.0,700.0,1.0,,,,,,,,,yellow,I
0.0,2.0,2.0,0.0,6.0,6.0,1076.0893819997364,2.0,0.0,part_2,go,700.0,700.0,1.0,,,,,,,,,magenta,diamond
0.0,7.0,3.0,1.0,5.0,0.0,0.0,2.0,0.0,part_2,stop,700.0,700.0,4.0,,,,,,,,,blue,hexagon
0.0,4.0,4.0,0.0,6.0,6.0,802.3124000001189,2.0,0.0,part_2,go,750.0,700.0,1.0,,,,,,,,,gray,triangle
0.0,2.0,2.0,0.0,5.0,5.0,916.0736429998906,2.0,0.0,part_2,go,750.0,700.0,1.0,,,,,,,,,magenta,diamond
0.0,4.0,4.0,0.0,6.0,6.0,493.121353999868,2.0,0.0,part_2,go,750.0,700.0,1.0,,,,,,,,,gray,triangle
0.0,6.0,2.0,1.0,5.0,5.0,884.7608070000206,2.0,0.0,part_2,stop,750.0,700.0,3.0,,,,,,,,,white,cross
0.0,8.0,4.0,1.0,5.0,5.0,1159.6383679998326,2.0,0.0,part_2,go,700.0,700.0,1.0,,,,,,,,,orange,flipped triangle
0.0,8.0,4.0,1.0,6.0,6.0,1086.6797899998346,2.0,0.0,part_2,go,700.0,700.0,1.0,,,,,,,,,orange,flipped triangle
0.0,1.0,1.0,0.0,5.0,5.0,1165.7301929999448,2.0,0.0,part_2,go,700.0,700.0,1.0,,,,,,,,,yellow,I
0.0,4.0,4.0,0.0,6.0,6.0,397.3515279999446,2.0,0.0,part_2,go,700.0,700.0,1.0,,,,,,,,,gray,triangle
0.0,7.0,3.0,1.0,6.0,6.0,981.270694000159,2.0,0.0,part_2,go,700.0,700.0,1.0,,,,,,,,,blue,hexagon
0.0,2.0,2.0,0.0,5.0,5.0,973.4269080004196,2.0,0.0,part_2,go,700.0,700.0,1.0,,,,,,,,,magenta,diamond
0.0,6.0,2.0,1.0,5.0,5.0,406.6210830001182,2.0,0.0,part_2,stop,700.0,700.0,3.0,,,,,,,,,white,cross
0.0,6.0,2.0,1.0,5.0,0.0,0.0,2.0,0.0,part_2,stop,650.0,700.0,4.0,,,,,,,,,white,cross
0.0,3.0,3.0,0.0,5.0,5.0,898.8617689997227,2.0,0.0,part_2,go,700.0,700.0,1.0,,,,,,,,,green,circle
0.0,4.0,4.0,0.0,5.0,5.0,953.1753090000166,2.0,0.0,part_2,go,700.0,700.0,1.0,,,,,,,,,gray,triangle
0.0,1.0,1.0,0.0,6.0,6.0,481.3731039998856,2.0,0.0,part_2,go,700.0,700.0,1.0,,,,,,,,,yellow,I
0.0,3.0,3.0,0.0,5.0,5.0,792.9892019997169,2.0,0.0,part_2,go,700.0,700.0,1.0,,,,,,,,,green,circle
0.0,3.0,3.0,0.0,5.0,5.0,584.373013000004,2.0,0.0,part_2,go,700.0,700.0,1.0,,,,,,,,,green,circle
0.0,4.0,4.0,0.0,6.0,6.0,830.6369180004367,2.0,0.0,part_2,go,700.0,700.0,1.0,,,,,,,,,gray,triangle
0.0,5.0,1.0,1.0,5.0,5.0,888.4370109999509,2.0,0.0,part_2,stop,700.0,700.0,3.0,,,,,,,,,cyan,square
0.0,8.0,4.0,1.0,5.0,0.0,0.0,2.0,0.0,part_2,stop,650.0,700.0,4.0,,,,,,,,,orange,flipped triangle
0.0,2.0,2.0,0.0,5.0,5.0,1021.124785000211,2.0,0.0,part_2,go,700.0,700.0,1.0,,,,,,,,,magenta,diamond
0.0,4.0,4.0,0.0,5.0,5.0,953.9518560000032,2.0,0.0,part_2,go,700.0,700.0,1.0,,,,,,,,,gray,triangle
0.0,8.0,4.0,1.0,5.0,5.0,748.9465110002129,2.0,0.0,part_2,stop,700.0,700.0,3.0,,,,,,,,,orange,flipped triangle
0.0,6.0,2.0,1.0,5.0,0.0,0.0,2.0,0.0,part_2,stop,650.0,700.0,4.0,,,,,,,,,white,cross
0.0,4.0,4.0,0.0,5.0,5.0,925.8869700001924,2.0,0.0,part_2,go,700.0,700.0,1.0,,,,,,,,,gray,triangle
0.0,5.0,1.0,1.0,6.0,6.0,359.1588819999742,2.0,0.0,part_2,stop,700.0,700.0,3.0,,,,,,,,,cyan,square
0.0,2.0,2.0,0.0,6.0,6.0,811.4684460001627,3.0,0.0,part_2,go,700.0,650.0,1.0,,,,,,,,,magenta,diamond
0.0,7.0,3.0,1.0,5.0,5.0,340.1124689999051,3.0,0.0,part_2,stop,700.0,650.0,3.0,,,,,,,,,blue,hexagon
0.0,5.0,1.0,1.0,6.0,6.0,312.2155969999767,3.0,0.0,part_2,go,650.0,650.0,1.0,,,,,,,,,cyan,square
0.0,1.0,1.0,0.0,5.0,5.0,662.0001710002725,3.0,0.0,part_2,go,650.0,650.0,1.0,,,,,,,,,yellow,I
0.0,3.0,3.0,0.0,5.0,5.0,416.6526109997903,3.0,0.0,part_2,go,650.0,650.0,1.0,,,,,,,,,green,circle
0.0,1.0,1.0,0.0,6.0,6.0,292.8571430002193,3.0,0.0,part_2,go,650.0,650.0,1.0,,,,,,,,,yellow,I
0.0,6.0,2.0,1.0,6.0,6.0,314.4302660002722,3.0,0.0,part_2,stop,650.0,650.0,3.0,,,,,,,,,white,cross
0.0,2.0,2.0,0.0,5.0,5.0,405.1832600002854,3.0,0.0,part_2,go,650.0,600.0,1.0,,,,,,,,,magenta,diamond
0.0,3.0,3.0,0.0,6.0,6.0,283.5344960003567,3.0,0.0,part_2,go,650.0,600.0,1.0,,,,,,,,,green,circle
0.0,1.0,1.0,0.0,6.0,6.0,293.0223349999323,3.0,0.0,part_2,go,650.0,600.0,1.0,,,,,,,,,yellow,I
0.0,8.0,4.0,1.0,6.0,6.0,302.8505259999292,3.0,0.0,part_2,stop,650.0,600.0,3.0,,,,,,,,,orange,flipped triangle
0.0,2.0,2.0,0.0,6.0,6.0,312.0761949999178,3.0,0.0,part_2,go,650.0,550.0,1.0,,,,,,,,,magenta,diamond
0.0,1.0,1.0,0.0,5.0,5.0,396.6674989997045,3.0,0.0,part_2,go,650.0,550.0,1.0,,,,,,,,,yellow,I
0.0,3.0,3.0,0.0,6.0,6.0,358.5523090000606,3.0,0.0,part_2,go,650.0,550.0,1.0,,,,,,,,,green,circle
0.0,7.0,3.0,1.0,5.0,5.0,397.9185089997372,3.0,0.0,part_2,stop,650.0,550.0,3.0,,,,,,,,,blue,hexagon
0.0,1.0,1.0,0.0,6.0,6.0,321.4658130000316,3.0,0.0,part_2,go,600.0,550.0,1.0,,,,,,,,,yellow,I
0.0,4.0,4.0,0.0,5.0,5.0,284.726216999843,3.0,0.0,part_2,go,600.0,550.0,1.0,,,,,,,,,gray,triangle
0.0,3.0,3.0,0.0,5.0,5.0,369.1478060000008,3.0,0.0,part_2,go,600.0,550.0,1.0,,,,,,,,,green,circle
0.0,8.0,4.0,1.0,5.0,5.0,294.2990510000527,3.0,0.0,part_2,stop,600.0,550.0,3.0,,,,,,,,,orange,flipped triangle
0.0,8.0,4.0,1.0,5.0,0.0,0.0,3.0,0.0,part_2,stop,550.0,550.0,4.0,,,,,,,,,orange,flipped triangle
0.0,6.0,2.0,1.0,6.0,6.0,586.7856330000905,3.0,0.0,part_2,go,600.0,550.0,1.0,,,,,,,,,white,cross
0.0,2.0,2.0,0.0,5.0,5.0,295.0249610003084,3.0,0.0,part_2,go,600.0,550.0,1.0,,,,,,,,,magenta,diamond
0.0,8.0,4.0,1.0,5.0,5.0,585.3660929997204,3.0,0.0,part_2,stop,600.0,550.0,3.0,,,,,,,,,orange,flipped triangle
0.0,5.0,1.0,1.0,6.0,0.0,0.0,3.0,0.0,part_2,stop,550.0,550.0,4.0,,,,,,,,,cyan,square
0.0,2.0,2.0,0.0,6.0,6.0,1047.084021000046,3.0,0.0,part_2,go,550.0,600.0,1.0,,,,,,,,,magenta,diamond
0.0,8.0,4.0,1.0,6.0,6.0,377.7451620003376,3.0,0.0,part_2,stop,550.0,600.0,3.0,,,,,,,,,orange,flipped triangle
0.0,2.0,2.0,0.0,6.0,6.0,897.8646919999846,3.0,0.0,part_2,go,550.0,550.0,1.0,,,,,,,,,magenta,diamond
0.0,4.0,4.0,0.0,6.0,6.0,387.7653829999872,3.0,0.0,part_2,go,550.0,550.0,1.0,,,,,,,,,gray,triangle
0.0,4.0,4.0,0.0,6.0,6.0,349.1441480000503,3.0,0.0,part_2,go,550.0,550.0,1.0,,,,,,,,,gray,triangle
0.0,7.0,3.0,1.0,6.0,6.0,379.4685379998554,3.0,0.0,part_2,stop,550.0,550.0,3.0,,,,,,,,,blue,hexagon
0.0,2.0,2.0,0.0,6.0,6.0,907.4690289999126,3.0,0.0,part_2,go,550.0,500.0,1.0,,,,,,,,,magenta,diamond
0.0,3.0,3.0,0.0,5.0,5.0,1067.1201739996832,3.0,0.0,part_2,go,550.0,500.0,1.0,,,,,,,,,green,circle
0.0,3.0,3.0,0.0,6.0,6.0,332.2189499999695,3.0,0.0,part_2,go,550.0,500.0,1.0,,,,,,,,,green,circle
0.0,2.0,2.0,0.0,6.0,6.0,292.7531650002493,3.0,0.0,part_2,go,550.0,500.0,1.0,,,,,,,,,magenta,diamond
0.0,7.0,3.0,1.0,5.0,0.0,0.0,3.0,0.0,part_2,stop,550.0,500.0,4.0,,,,,,,,,blue,hexagon
0.0,2.0,2.0,0.0,6.0,6.0,359.6115149998695,3.0,0.0,part_2,go,600.0,500.0,1.0,,,,,,,,,magenta,diamond
0.0,1.0,1.0,0.0,5.0,1.0,1425.6821190001574,4.0,0.0,part_2,go,600.0,500.0,2.0,,,,,,,,,yellow,I
0.0,4.0,4.0,0.0,6.0,6.0,480.7838380002067,4.0,0.0,part_2,go,600.0,500.0,1.0,,,,,,,,,gray,triangle
0.0,6.0,2.0,1.0,5.0,5.0,536.8588579999596,4.0,0.0,part_2,go,600.0,500.0,1.0,,,,,,,,,white,cross
0.0,6.0,2.0,1.0,5.0,5.0,462.9588760003571,4.0,0.0,part_2,stop,600.0,500.0,3.0,,,,,,,,,white,cross
0.0,8.0,4.0,1.0,6.0,6.0,341.1209579999195,4.0,0.0,part_2,go,550.0,500.0,1.0,,,,,,,,,orange,flipped triangle
0.0,8.0,4.0,1.0,6.0,6.0,369.3054109999139,4.0,0.0,part_2,go,550.0,500.0,1.0,,,,,,,,,orange,flipped triangle
0.0,5.0,1.0,1.0,5.0,5.0,339.6975310001835,4.0,0.0,part_2,go,550.0,500.0,1.0,,,,,,,,,cyan,square
0.0,7.0,3.0,1.0,5.0,5.0,387.56309900009,4.0,0.0,part_2,stop,550.0,500.0,3.0,,,,,,,,,blue,hexagon
0.0,4.0,4.0,0.0,6.0,6.0,386.3068129999192,4.0,0.0,part_2,go,500.0,500.0,1.0,,,,,,,,,gray,triangle
0.0,3.0,3.0,0.0,5.0,5.0,321.4016619999711,4.0,0.0,part_2,go,500.0,500.0,1.0,,,,,,,,,green,circle
0.0,7.0,3.0,1.0,5.0,5.0,321.8850100001873,4.0,0.0,part_2,stop,500.0,500.0,3.0,,,,,,,,,blue,hexagon
0.0,5.0,1.0,1.0,5.0,5.0,407.196618999933,4.0,0.0,part_2,go,450.0,500.0,1.0,,,,,,,,,cyan,square
0.0,1.0,1.0,0.0,5.0,5.0,386.8031209999572,4.0,0.0,part_2,go,450.0,500.0,1.0,,,,,,,,,yellow,I
0.0,6.0,2.0,1.0,6.0,6.0,311.5957310001249,4.0,0.0,part_2,go,450.0,500.0,1.0,,,,,,,,,white,cross
0.0,5.0,1.0,1.0,5.0,5.0,340.8851059998596,4.0,0.0,part_2,stop,450.0,500.0,3.0,,,,,,,,,cyan,square
0.0,3.0,3.0,0.0,6.0,6.0,292.8024160000859,4.0,0.0,part_2,go,400.0,500.0,1.0,,,,,,,,,green,circle
0.0,3.0,3.0,0.0,6.0,6.0,341.0120549997373,4.0,0.0,part_2,go,400.0,500.0,1.0,,,,,,,,,green,circle
0.0,3.0,3.0,0.0,5.0,5.0,292.9763860001912,4.0,0.0,part_2,go,400.0,500.0,1.0,,,,,,,,,green,circle
0.0,2.0,2.0,0.0,6.0,6.0,301.3251140000648,4.0,0.0,part_2,go,400.0,500.0,1.0,,,,,,,,,magenta,diamond
0.0,4.0,4.0,0.0,6.0,6.0,319.9131780002062,4.0,0.0,part_2,go,400.0,500.0,1.0,,,,,,,,,gray,triangle
0.0,3.0,3.0,0.0,6.0,6.0,283.8382300001285,4.0,0.0,part_2,go,400.0,500.0,1.0,,,,,,,,,green,circle
0.0,7.0,3.0,1.0,6.0,6.0,283.2903419998729,4.0,0.0,part_2,stop,400.0,500.0,3.0,,,,,,,,,blue,hexagon
0.0,6.0,2.0,1.0,6.0,6.0,329.7547839997605,4.0,0.0,part_2,stop,400.0,450.0,3.0,,,,,,,,,white,cross
0.0,2.0,2.0,0.0,5.0,5.0,359.0420499999709,4.0,0.0,part_2,go,400.0,400.0,1.0,,,,,,,,,magenta,diamond
0.0,5.0,1.0,1.0,5.0,5.0,321.84782000013,4.0,0.0,part_2,stop,400.0,400.0,3.0,,,,,,,,,cyan,square
0.0,8.0,4.0,1.0,5.0,0.0,0.0,4.0,0.0,part_2,stop,350.0,400.0,4.0,,,,,,,,,orange,flipped triangle
0.0,4.0,4.0,0.0,6.0,6.0,603.738037000312,4.0,0.0,part_2,go,400.0,400.0,1.0,,,,,,,,,gray,triangle
0.0,5.0,1.0,1.0,5.0,0.0,0.0,4.0,0.0,part_2,stop,400.0,400.0,4.0,,,,,,,,,cyan,square
0.0,8.0,4.0,1.0,6.0,6.0,294.3707919998815,4.0,0.0,part_2,stop,450.0,400.0,3.0,,,,,,,,,orange,flipped triangle
0.0,3.0,3.0,0.0,5.0,5.0,510.0366550000217,4.0,0.0,part_2,go,450.0,350.0,1.0,,,,,,,,,green,circle
0.0,5.0,1.0,1.0,6.0,6.0,310.6187160001354,4.0,0.0,part_2,stop,450.0,350.0,3.0,,,,,,,,,cyan,square
0.0,7.0,3.0,1.0,6.0,6.0,897.8675040002599,4.0,0.0,part_2,go,450.0,300.0,1.0,,,,,,,,,blue,hexagon
0.0,7.0,3.0,1.0,5.0,0.0,0.0,4.0,0.0,part_2,stop,450.0,300.0,4.0,,,,,,,,,blue,hexagon
0.0,4.0,4.0,0.0,5.0,5.0,490.8839059999081,4.0,0.0,part_2,go,500.0,300.0,1.0,,,,,,,,,gray,triangle
0.0,3.0,3.0,0.0,6.0,6.0,576.2758010000653,4.0,0.0,part_2,go,500.0,300.0,1.0,,,,,,,,,green,circle
0.0,6.0,2.0,1.0,5.0,0.0,0.0,4.0,0.0,part_2,stop,500.0,300.0,4.0,,,,,,,,,white,cross
0.0,4.0,4.0,0.0,6.0,6.0,546.9749069998215,5.0,0.0,part_2,go,550.0,300.0,1.0,,,,,,,,,gray,triangle
0.0,8.0,4.0,1.0,5.0,5.0,377.5897590003296,5.0,0.0,part_2,go,550.0,300.0,1.0,,,,,,,,,orange,flipped triangle
0.0,8.0,4.0,1.0,5.0,5.0,417.1624969999357,5.0,0.0,part_2,stop,550.0,300.0,3.0,,,,,,,,,orange,flipped triangle
0.0,5.0,1.0,1.0,6.0,0.0,0.0,5.0,0.0,part_2,stop,500.0,300.0,4.0,,,,,,,,,cyan,square
0.0,3.0,3.0,0.0,5.0,5.0,501.28437999956077,5.0,0.0,part_2,go,500.0,350.0,1.0,,,,,,,,,green,circle
0.0,3.0,3.0,0.0,5.0,5.0,670.9859970001162,5.0,0.0,part_2,go,500.0,350.0,1.0,,,,,,,,,green,circle
0.0,5.0,1.0,1.0,5.0,0.0,0.0,5.0,0.0,part_2,stop,500.0,350.0,4.0,,,,,,,,,cyan,square
0.0,7.0,3.0,1.0,5.0,0.0,0.0,5.0,0.0,part_2,stop,550.0,350.0,4.0,,,,,,,,,blue,hexagon
0.0,6.0,2.0,1.0,6.0,6.0,933.8050159999513,5.0,0.0,part_2,go,600.0,350.0,1.0,,,,,,,,,white,cross
0.0,5.0,1.0,1.0,5.0,0.0,0.0,5.0,0.0,part_2,stop,600.0,350.0,4.0,,,,,,,,,cyan,square
0.0,1.0,1.0,0.0,5.0,5.0,847.9092259999561,5.0,0.0,part_2,go,650.0,350.0,1.0,,,,,,,,,yellow,I
0.0,8.0,4.0,1.0,6.0,0.0,0.0,5.0,0.0,part_2,stop,650.0,350.0,4.0,,,,,,,,,orange,flipped triangle
0.0,1.0,1.0,0.0,5.0,5.0,1122.5672989999111,5.0,0.0,part_2,go,650.0,400.0,1.0,,,,,,,,,yellow,I
0.0,1.0,1.0,0.0,5.0,5.0,1220.77235200004,5.0,0.0,part_2,go,650.0,400.0,1.0,,,,,,,,,yellow,I
0.0,6.0,2.0,1.0,5.0,0.0,0.0,5.0,0.0,part_2,stop,650.0,400.0,4.0,,,,,,,,,white,cross
0.0,5.0,1.0,1.0,6.0,6.0,350.1550080000015,5.0,0.0,part_2,stop,700.0,400.0,3.0,,,,,,,,,cyan,square
0.0,4.0,4.0,0.0,5.0,5.0,719.6536159999596,5.0,0.0,part_2,go,700.0,350.0,1.0,,,,,,,,,gray,triangle
0.0,6.0,2.0,1.0,6.0,6.0,775.1055259996065,5.0,0.0,part_2,go,700.0,350.0,1.0,,,,,,,,,white,cross
0.0,8.0,4.0,1.0,6.0,0.0,0.0,5.0,0.0,part_2,stop,700.0,350.0,4.0,,,,,,,,,orange,flipped triangle
0.0,2.0,2.0,0.0,6.0,6.0,841.8706879997444,5.0,0.0,part_2,go,700.0,400.0,1.0,,,,,,,,,magenta,diamond
0.0,3.0,3.0,0.0,5.0,5.0,964.0537139998742,5.0,0.0,part_2,go,700.0,400.0,1.0,,,,,,,,,green,circle
0.0,8.0,4.0,1.0,6.0,0.0,0.0,5.0,0.0,part_2,stop,700.0,400.0,4.0,,,,,,,,,orange,flipped triangle
0.0,8.0,4.0,1.0,6.0,0.0,0.0,5.0,0.0,part_2,stop,700.0,450.0,4.0,,,,,,,,,orange,flipped triangle
0.0,6.0,2.0,1.0,6.0,0.0,0.0,5.0,0.0,part_2,stop,700.0,500.0,4.0,,,,,,,,,white,cross
0.0,3.0,3.0,0.0,6.0,6.0,662.3594160000721,5.0,0.0,part_2,go,700.0,550.0,1.0,,,,,,,,,green,circle
0.0,2.0,2.0,0.0,5.0,5.0,556.782998000017,5.0,0.0,part_2,go,700.0,550.0,1.0,,,,,,,,,magenta,diamond
0.0,2.0,2.0,0.0,6.0,6.0,784.4706050000241,5.0,0.0,part_2,go,700.0,550.0,1.0,,,,,,,,,magenta,diamond
0.0,5.0,1.0,1.0,6.0,6.0,673.7883779996992,5.0,0.0,part_2,stop,700.0,550.0,3.0,,,,,,,,,cyan,square
0.0,3.0,3.0,0.0,5.0,5.0,679.3400399997154,5.0,0.0,part_2,go,700.0,500.0,1.0,,,,,,,,,green,circle
0.0,2.0,2.0,0.0,5.0,5.0,830.6763119999232,5.0,0.0,part_2,go,700.0,500.0,1.0,,,,,,,,,magenta,diamond
0.0,1.0,1.0,0.0,6.0,6.0,765.4180689996792,5.0,0.0,part_2,go,700.0,500.0,1.0,,,,,,,,,yellow,I
0.0,2.0,2.0,0.0,5.0,5.0,407.0743480001511,5.0,0.0,part_2,go,700.0,500.0,1.0,,,,,,,,,magenta,diamond
0.0,2.0,2.0,0.0,6.0,6.0,444.5949300002212,5.0,0.0,part_2,go,700.0,500.0,1.0,,,,,,,,,magenta,diamond
0.0,1.0,1.0,0.0,5.0,5.0,340.8320690000437,5.0,0.0,part_2,go,700.0,500.0,1.0,,,,,,,,,yellow,I
0.0,7.0,3.0,1.0,6.0,6.0,341.3970120000158,5.0,0.0,part_2,stop,700.0,500.0,3.0,,,,,,,,,blue,hexagon
0.0,7.0,3.0,1.0,6.0,6.0,624.8252970003705,5.0,0.0,part_2,go,700.0,450.0,1.0,,,,,,,,,blue,hexagon
0.0,5.0,1.0,1.0,5.0,0.0,0.0,6.0,0.0,part_2,stop,700.0,450.0,4.0,,,,,,,,,cyan,square
0.0,1.0,1.0,0.0,6.0,6.0,320.7558440003595,6.0,0.0,part_2,go,750.0,450.0,1.0,,,,,,,,,yellow,I
0.0,3.0,3.0,0.0,6.0,6.0,274.1734979999819,6.0,0.0,part_2,go,750.0,450.0,1.0,,,,,,,,,green,circle
0.0,5.0,1.0,1.0,5.0,5.0,368.4029040000496,6.0,0.0,part_2,stop,750.0,450.0,3.0,,,,,,,,,cyan,square
0.0,8.0,4.0,1.0,5.0,5.0,360.0391539998782,6.0,0.0,part_2,stop,700.0,450.0,3.0,,,,,,,,,orange,flipped triangle
0.0,6.0,2.0,1.0,5.0,5.0,443.9455919996362,6.0,0.0,part_2,stop,650.0,450.0,3.0,,,,,,,,,white,cross
0.0,3.0,3.0,0.0,6.0,6.0,426.0692570001083,6.0,0.0,part_2,go,600.0,450.0,1.0,,,,,,,,,green,circle
0.0,7.0,3.0,1.0,5.0,5.0,556.4246660001118,6.0,0.0,part_2,stop,600.0,450.0,3.0,,,,,,,,,blue,hexagon
0.0,4.0,4.0,0.0,5.0,5.0,812.645393999901,6.0,0.0,part_2,go,550.0,450.0,1.0,,,,,,,,,gray,triangle
0.0,6.0,2.0,1.0,6.0,6.0,264.8591180000039,6.0,0.0,part_2,go,550.0,450.0,1.0,,,,,,,,,white,cross
0.0,6.0,2.0,1.0,5.0,5.0,604.0022689999205,6.0,0.0,part_2,go,550.0,450.0,1.0,,,,,,,,,white,cross
0.0,6.0,2.0,1.0,5.0,5.0,350.6589420003365,6.0,0.0,part_2,stop,550.0,450.0,3.0,,,,,,,,,white,cross
0.0,1.0,1.0,0.0,5.0,5.0,480.901403000189,6.0,0.0,part_2,go,500.0,450.0,1.0,,,,,,,,,yellow,I
0.0,8.0,4.0,1.0,5.0,5.0,284.4482320001589,6.0,0.0,part_2,stop,500.0,450.0,3.0,,,,,,,,,orange,flipped triangle
0.0,8.0,4.0,1.0,6.0,6.0,615.2188480000405,6.0,0.0,part_2,stop,450.0,450.0,3.0,,,,,,,,,orange,flipped triangle
0.0,2.0,2.0,0.0,5.0,5.0,670.1900729999579,6.0,0.0,part_2,go,450.0,400.0,1.0,,,,,,,,,magenta,diamond
0.0,3.0,3.0,0.0,5.0,5.0,416.1265040002035,6.0,0.0,part_2,go,450.0,400.0,1.0,,,,,,,,,green,circle
0.0,4.0,4.0,0.0,6.0,6.0,576.2470670001676,6.0,0.0,part_2,go,450.0,400.0,1.0,,,,,,,,,gray,triangle
0.0,4.0,4.0,0.0,5.0,5.0,265.2894980001292,6.0,0.0,part_2,go,450.0,400.0,1.0,,,,,,,,,gray,triangle
0.0,1.0,1.0,0.0,5.0,5.0,284.7503180000785,6.0,0.0,part_2,go,450.0,400.0,1.0,,,,,,,,,yellow,I
0.0,1.0,1.0,0.0,6.0,6.0,301.9627399999081,6.0,0.0,part_2,go,450.0,400.0,1.0,,,,,,,,,yellow,I
0.0,4.0,4.0,0.0,5.0,5.0,367.453716,6.0,0.0,part_2,go,450.0,400.0,1.0,,,,,,,,,gray,triangle
0.0,5.0,1.0,1.0,6.0,6.0,330.7529740000063,6.0,0.0,part_2,stop,450.0,400.0,3.0,,,,,,,,,cyan,square
0.0,4.0,4.0,0.0,5.0,5.0,662.2560270002396,6.0,0.0,part_2,go,450.0,350.0,1.0,,,,,,,,,gray,triangle
0.0,8.0,4.0,1.0,5.0,5.0,820.3628520000166,6.0,0.0,part_2,go,450.0,350.0,1.0,,,,,,,,,orange,flipped triangle
0.0,7.0,3.0,1.0,6.0,0.0,0.0,6.0,0.0,part_2,stop,450.0,350.0,4.0,,,,,,,,,blue,hexagon
0.0,7.0,3.0,1.0,6.0,0.0,0.0,6.0,0.0,part_2,stop,450.0,400.0,4.0,,,,,,,,,blue,hexagon
0.0,3.0,3.0,0.0,5.0,5.0,622.3252050003794,6.0,0.0,part_2,go,450.0,450.0,1.0,,,,,,,,,green,circle
0.0,6.0,2.0,1.0,6.0,6.0,274.0960259998246,6.0,0.0,part_2,go,450.0,450.0,1.0,,,,,,,,,white,cross
0.0,1.0,1.0,0.0,5.0,5.0,368.1732250001914,6.0,0.0,part_2,go,450.0,450.0,1.0,,,,,,,,,yellow,I
0.0,1.0,1.0,0.0,6.0,6.0,292.9235970000263,6.0,0.0,part_2,go,450.0,450.0,1.0,,,,,,,,,yellow,I
0.0,7.0,3.0,1.0,6.0,6.0,274.0704999996524,6.0,0.0,part_2,stop,450.0,450.0,3.0,,,,,,,,,blue,hexagon
0.0,5.0,1.0,1.0,5.0,5.0,548.1705729998794,6.0,0.0,part_2,go,450.0,400.0,1.0,,,,,,,,,cyan,square
0.0,5.0,1.0,1.0,6.0,6.0,292.5081579996913,6.0,0.0,part_2,stop,450.0,400.0,3.0,,,,,,,,,cyan,square
0.0,7.0,3.0,1.0,6.0,6.0,340.3609060001145,6.0,0.0,part_2,stop,450.0,350.0,3.0,,,,,,,,,blue,hexagon
0.0,4.0,4.0,0.0,5.0,5.0,660.7561119999446,6.0,0.0,part_2,go,450.0,300.0,1.0,,,,,,,,,gray,triangle
0.0,1.0,1.0,0.0,5.0,5.0,443.3864279999397,7.0,0.0,part_2,go,450.0,300.0,1.0,,,,,,,,,yellow,I
0.0,1.0,1.0,0.0,6.0,6.0,330.5942189999769,7.0,0.0,part_2,go,450.0,300.0,1.0,,,,,,,,,yellow,I
0.0,4.0,4.0,0.0,6.0,6.0,642.6245650000055,7.0,0.0,part_2,go,450.0,300.0,1.0,,,,,,,,,gray,triangle
0.0,5.0,1.0,1.0,6.0,0.0,0.0,7.0,0.0,part_2,stop,450.0,300.0,4.0,,,,,,,,,cyan,square
0.0,8.0,4.0,1.0,6.0,6.0,848.4050480001315,7.0,0.0,part_2,go,450.0,350.0,1.0,,,,,,,,,orange,flipped triangle
0.0,2.0,2.0,0.0,6.0,6.0,330.0161060001301,7.0,0.0,part_2,go,450.0,350.0,1.0,,,,,,,,,magenta,diamond
0.0,8.0,4.0,1.0,6.0,6.0,282.6982930000667,7.0,0.0,part_2,stop,450.0,350.0,3.0,,,,,,,,,orange,flipped triangle
0.0,8.0,4.0,1.0,6.0,0.0,0.0,7.0,0.0,part_2,stop,450.0,300.0,4.0,,,,,,,,,orange,flipped triangle
0.0,5.0,1.0,1.0,6.0,0.0,0.0,7.0,0.0,part_2,stop,450.0,350.0,4.0,,,,,,,,,cyan,square
0.0,2.0,2.0,0.0,6.0,6.0,613.5508940001273,7.0,0.0,part_2,go,450.0,400.0,1.0,,,,,,,,,magenta,diamond
0.0,3.0,3.0,0.0,6.0,6.0,340.4103179996127,7.0,0.0,part_2,go,450.0,400.0,1.0,,,,,,,,,green,circle
0.0,7.0,3.0,1.0,6.0,6.0,301.3833200002409,7.0,0.0,part_2,stop,450.0,400.0,3.0,,,,,,,,,blue,hexagon
0.0,1.0,1.0,0.0,6.0,6.0,716.6046219999771,7.0,0.0,part_2,go,450.0,350.0,1.0,,,,,,,,,yellow,I
0.0,1.0,1.0,0.0,6.0,6.0,349.9885639998865,7.0,0.0,part_2,go,450.0,350.0,1.0,,,,,,,,,yellow,I
0.0,5.0,1.0,1.0,5.0,5.0,501.67679400010456,7.0,0.0,part_2,go,450.0,350.0,1.0,,,,,,,,,cyan,square
0.0,2.0,2.0,0.0,6.0,6.0,349.1071929997815,7.0,0.0,part_2,go,450.0,350.0,1.0,,,,,,,,,magenta,diamond
0.0,6.0,2.0,1.0,6.0,6.0,491.1940000001777,7.0,0.0,part_2,stop,450.0,350.0,3.0,,,,,,,,,white,cross
0.0,7.0,3.0,1.0,5.0,0.0,0.0,7.0,0.0,part_2,stop,450.0,300.0,4.0,,,,,,,,,blue,hexagon
0.0,1.0,1.0,0.0,5.0,5.0,633.6447899998348,7.0,0.0,part_2,go,500.0,300.0,1.0,,,,,,,,,yellow,I
0.0,4.0,4.0,0.0,5.0,5.0,378.1440140000995,7.0,0.0,part_2,go,500.0,300.0,1.0,,,,,,,,,gray,triangle
0.0,8.0,4.0,1.0,5.0,5.0,338.5861900001146,7.0,0.0,part_2,stop,500.0,300.0,3.0,,,,,,,,,orange,flipped triangle
0.0,6.0,2.0,1.0,5.0,0.0,0.0,7.0,0.0,part_2,stop,450.0,300.0,4.0,,,,,,,,,white,cross
0.0,7.0,3.0,1.0,5.0,5.0,735.7566900000165,7.0,0.0,part_2,go,500.0,300.0,1.0,,,,,,,,,blue,hexagon
0.0,1.0,1.0,0.0,5.0,5.0,358.4303119996548,7.0,0.0,part_2,go,500.0,300.0,1.0,,,,,,,,,yellow,I
0.0,7.0,3.0,1.0,5.0,0.0,0.0,7.0,0.0,part_2,stop,500.0,300.0,4.0,,,,,,,,,blue,hexagon
0.0,5.0,1.0,1.0,6.0,0.0,0.0,7.0,0.0,part_2,stop,550.0,300.0,4.0,,,,,,,,,cyan,square
0.0,8.0,4.0,1.0,6.0,6.0,539.1087529997094,7.0,0.0,part_2,go,550.0,350.0,1.0,,,,,,,,,orange,flipped triangle
0.0,1.0,1.0,0.0,6.0,6.0,387.5667659999635,7.0,0.0,part_2,go,550.0,350.0,1.0,,,,,,,,,yellow,I
0.0,1.0,1.0,0.0,6.0,6.0,340.603132999604,7.0,0.0,part_2,go,550.0,350.0,1.0,,,,,,,,,yellow,I
0.0,4.0,4.0,0.0,6.0,6.0,348.5774360001414,7.0,0.0,part_2,go,550.0,350.0,1.0,,,,,,,,,gray,triangle
0.0,4.0,4.0,0.0,6.0,6.0,368.7926549996518,7.0,0.0,part_2,go,550.0,350.0,1.0,,,,,,,,,gray,triangle
0.0,7.0,3.0,1.0,6.0,6.0,283.1605809997199,7.0,0.0,part_2,stop,550.0,350.0,3.0,,,,,,,,,blue,hexagon
0.0,3.0,3.0,0.0,6.0,6.0,537.3539000001983,7.0,0.0,part_2,go,550.0,300.0,1.0,,,,,,,,,green,circle
0.0,7.0,3.0,1.0,6.0,6.0,303.5198580000724,7.0,0.0,part_2,go,550.0,300.0,1.0,,,,,,,,,blue,hexagon
0.0,6.0,2.0,1.0,5.0,5.0,349.3424150001374,7.0,0.0,part_2,stop,550.0,300.0,3.0,,,,,,,,,white,cross
0.0,1.0,1.0,0.0,6.0,6.0,536.6066050000882,7.0,0.0,part_2,go,500.0,300.0,1.0,,,,,,,,,yellow,I
0.0,1.0,1.0,0.0,6.0,6.0,368.3571749998009,8.0,0.0,part_2,go,500.0,300.0,1.0,,,,,,,,,yellow,I
0.0,7.0,3.0,1.0,6.0,6.0,384.9157629997535,8.0,0.0,part_2,stop,500.0,300.0,3.0,,,,,,,,,blue,hexagon
0.0,4.0,4.0,0.0,5.0,5.0,462.2923319998335,8.0,0.0,part_2,go,500.0,250.0,1.0,,,,,,,,,gray,triangle
0.0,6.0,2.0,1.0,5.0,5.0,397.6791670002058,8.0,0.0,part_2,stop,500.0,250.0,3.0,,,,,,,,,white,cross
0.0,3.0,3.0,0.0,5.0,5.0,414.9145229998794,8.0,0.0,part_2,go,450.0,250.0,1.0,,,,,,,,,green,circle
0.0,3.0,3.0,0.0,5.0,5.0,396.6154489999098,8.0,0.0,part_2,go,450.0,250.0,1.0,,,,,,,,,green,circle
0.0,4.0,4.0,0.0,5.0,5.0,444.2350660001466,8.0,0.0,part_2,go,450.0,250.0,1.0,,,,,,,,,gray,triangle
0.0,5.0,1.0,1.0,6.0,6.0,358.7092920001851,8.0,0.0,part_2,go,450.0,250.0,1.0,,,,,,,,,cyan,square
0.0,7.0,3.0,1.0,6.0,6.0,376.5574510002807,8.0,0.0,part_2,stop,450.0,250.0,3.0,,,,,,,,,blue,hexagon
0.0,6.0,2.0,1.0,5.0,5.0,499.6800079998138,8.0,0.0,part_2,stop,450.0,200.0,3.0,,,,,,,,,white,cross
0.0,2.0,2.0,0.0,6.0,6.0,932.7816429999984,8.0,0.0,part_2,go,400.0,200.0,1.0,,,,,,,,,magenta,diamond
0.0,3.0,3.0,0.0,6.0,6.0,529.954140999962,8.0,0.0,part_2,go,400.0,200.0,1.0,,,,,,,,,green,circle
0.0,3.0,3.0,0.0,6.0,6.0,679.6502120000696,8.0,0.0,part_2,go,400.0,200.0,1.0,,,,,,,,,green,circle
0.0,6.0,2.0,1.0,5.0,5.0,643.0139340000096,8.0,0.0,part_2,go,400.0,200.0,1.0,,,,,,,,,white,cross
0.0,8.0,4.0,1.0,6.0,0.0,0.0,8.0,0.0,part_2,stop,400.0,200.0,4.0,,,,,,,,,orange,flipped triangle
0.0,1.0,1.0,0.0,5.0,5.0,568.3142219995716,8.0,0.0,part_2,go,400.0,250.0,1.0,,,,,,,,,yellow,I
0.0,4.0,4.0,0.0,6.0,6.0,842.8631239999049,8.0,0.0,part_2,go,400.0,250.0,1.0,,,,,,,,,gray,triangle
0.0,2.0,2.0,0.0,5.0,5.0,737.314360000255,8.0,0.0,part_2,go,400.0,250.0,1.0,,,,,,,,,magenta,diamond
0.0,6.0,2.0,1.0,6.0,6.0,328.9368209998429,8.0,0.0,part_2,stop,400.0,250.0,3.0,,,,,,,,,white,cross
0.0,6.0,2.0,1.0,6.0,0.0,0.0,8.0,0.0,part_2,stop,400.0,200.0,4.0,,,,,,,,,white,cross
0.0,1.0,1.0,0.0,5.0,5.0,688.7024520001432,8.0,0.0,part_2,go,400.0,250.0,1.0,,,,,,,,,yellow,I
0.0,8.0,4.0,1.0,5.0,5.0,518.218471000182,8.0,0.0,part_2,stop,400.0,250.0,3.0,,,,,,,,,orange,flipped triangle
0.0,3.0,3.0,0.0,5.0,5.0,736.4747529995839,8.0,0.0,part_2,go,350.0,250.0,1.0,,,,,,,,,green,circle
0.0,2.0,2.0,0.0,5.0,5.0,388.3524420002686,8.0,0.0,part_2,go,350.0,250.0,1.0,,,,,,,,,magenta,diamond
0.0,5.0,1.0,1.0,5.0,5.0,457.0752790000369,8.0,0.0,part_2,stop,350.0,250.0,3.0,,,,,,,,,cyan,square
0.0,7.0,3.0,1.0,5.0,0.0,0.0,8.0,0.0,part_2,stop,300.0,250.0,4.0,,,,,,,,,blue,hexagon
0.0,2.0,2.0,0.0,5.0,5.0,368.9808789999915,8.0,0.0,part_2,go,350.0,250.0,1.0,,,,,,,,,magenta,diamond
0.0,4.0,4.0,0.0,6.0,6.0,697.7244910003719,8.0,0.0,part_2,go,350.0,250.0,1.0,,,,,,,,,gray,triangle
0.0,7.0,3.0,1.0,5.0,5.0,463.2737510000879,8.0,0.0,part_2,go,350.0,250.0,1.0,,,,,,,,,blue,hexagon
0.0,7.0,3.0,1.0,6.0,6.0,338.4010999998281,8.0,0.0,part_2,stop,350.0,250.0,3.0,,,,,,,,,blue,hexagon
0.0,1.0,1.0,0.0,6.0,6.0,519.4368010002108,8.0,0.0,part_2,go,350.0,200.0,1.0,,,,,,,,,yellow,I
0.0,3.0,3.0,0.0,6.0,6.0,350.1892519998364,8.0,0.0,part_2,go,350.0,200.0,1.0,,,,,,,,,green,circle
0.0,6.0,2.0,1.0,6.0,6.0,285.5663529999219,8.0,0.0,part_2,stop,350.0,200.0,3.0,,,,,,,,,white,cross
0.0,2.0,2.0,0.0,5.0,5.0,462.7274549998219,8.0,0.0,part_2,go,350.0,150.0,1.0,,,,,,,,,magenta,diamond
0.0,2.0,2.0,0.0,5.0,5.0,427.3194339998554,8.0,0.0,part_2,go,350.0,150.0,1.0,,,,,,,,,magenta,diamond
0.0,3.0,3.0,0.0,6.0,6.0,322.78083600022,8.0,0.0,part_2,go,350.0,150.0,1.0,,,,,,,,,green,circle
0.0,2.0,2.0,0.0,7.0,5.0,3200.7345539996095,1.0,1.0,part_3,go,0.0,0.0,0.0,540.0,4.0,135.0,405.0,270.0,675.0,540.0,810.0,magenta,diamond
0.0,1.0,1.0,0.0,7.0,3.0,3203.0437980001807,1.0,1.0,part_3,go,0.0,0.0,0.0,384.0,2.0,192.0,576.0,384.0,960.0,768.0,1152.0,yellow,I
0.0,2.0,2.0,0.0,7.0,6.0,4717.008528000406,1.0,1.0,part_3,go,0.0,0.0,0.0,616.0,4.0,154.0,308.0,770.0,462.0,924.0,616.0,magenta,diamond
0.0,4.0,4.0,0.0,7.0,2.0,4530.329186999552,1.0,1.0,part_3,go,0.0,0.0,0.0,308.0,2.0,770.0,308.0,616.0,154.0,462.0,924.0,gray,triangle
0.0,7.0,3.0,1.0,7.0,3.0,1501.10758000028,1.0,2.0,part_3,go,0.0,0.0,0.0,576.0,3.0,384.0,960.0,576.0,768.0,1152.0,192.0,blue,hexagon
0.0,2.0,2.0,0.0,7.0,6.0,4547.716111000227,1.0,1.0,part_3,go,0.0,0.0,0.0,346.0,2.0,173.0,865.0,519.0,692.0,1038.0,346.0,magenta,diamond
0.0,6.0,2.0,1.0,7.0,5.0,3402.429918000053,1.0,1.0,part_3,go,0.0,0.0,0.0,346.0,2.0,865.0,519.0,692.0,173.0,346.0,1038.0,white,cross
0.0,8.0,4.0,1.0,7.0,1.0,2134.25885200013,1.0,1.0,part_3,go,0.0,0.0,0.0,464.0,4.0,464.0,580.0,232.0,348.0,116.0,696.0,orange,flipped triangle
0.0,6.0,2.0,1.0,7.0,6.0,2797.215634999702,1.0,1.0,part_3,go,0.0,0.0,0.0,405.0,3.0,270.0,810.0,675.0,135.0,540.0,405.0,white,cross
0.0,7.0,3.0,1.0,7.0,4.0,2489.914623999539,1.0,1.0,part_3,go,0.0,0.0,0.0,192.0,1.0,576.0,768.0,384.0,192.0,1152.0,960.0,blue,hexagon
0.0,7.0,3.0,1.0,7.0,4.0,4914.308111000537,1.0,1.0,part_3,go,0.0,0.0,0.0,308.0,2.0,154.0,616.0,462.0,308.0,770.0,924.0,blue,hexagon
0.0,8.0,4.0,1.0,7.0,5.0,4480.045453000457,1.0,1.0,part_3,go,0.0,0.0,0.0,1038.0,6.0,519.0,865.0,346.0,173.0,1038.0,692.0,orange,flipped triangle
0.0,5.0,1.0,1.0,7.0,4.0,1276.8049770002108,1.0,3.0,part_3,go,0.0,0.0,0.0,519.0,3.0,1038.0,865.0,346.0,519.0,692.0,173.0,cyan,square
0.0,5.0,1.0,1.0,7.0,1.0,2988.508370999625,1.0,1.0,part_3,go,0.0,0.0,0.0,540.0,4.0,540.0,810.0,270.0,675.0,405.0,135.0,cyan,square
0.0,8.0,4.0,1.0,7.0,6.0,4510.032987000159,1.0,1.0,part_3,go,0.0,0.0,0.0,960.0,5.0,1152.0,384.0,768.0,576.0,192.0,960.0,orange,flipped triangle
0.0,8.0,4.0,1.0,7.0,4.0,2723.851529000058,1.0,1.0,part_3,go,0.0,0.0,0.0,616.0,4.0,462.0,770.0,924.0,616.0,308.0,154.0,orange,flipped triangle
0.0,1.0,1.0,0.0,7.0,2.0,3945.512795000468,1.0,1.0,part_3,go,0.0,0.0,0.0,405.0,3.0,135.0,405.0,810.0,675.0,270.0,540.0,yellow,I
0.0,7.0,3.0,1.0,7.0,3.0,4488.503177999519,1.0,1.0,part_3,go,0.0,0.0,0.0,519.0,3.0,692.0,346.0,519.0,1038.0,865.0,173.0,blue,hexagon
0.0,6.0,2.0,1.0,7.0,4.0,1501.3707810003325,1.0,1.0,part_3,go,0.0,0.0,0.0,192.0,1.0,960.0,576.0,768.0,192.0,384.0,1152.0,white,cross
0.0,3.0,3.0,0.0,7.0,2.0,1622.9499179999038,1.0,1.0,part_3,go,0.0,0.0,0.0,116.0,1.0,348.0,116.0,464.0,696.0,232.0,580.0,green,circle
0.0,3.0,3.0,0.0,7.0,1.0,2887.3913980005455,2.0,1.0,part_3,go,0.0,0.0,0.0,192.0,1.0,192.0,960.0,1152.0,384.0,576.0,768.0,green,circle
0.0,5.0,1.0,1.0,7.0,4.0,3832.39343599962,2.0,1.0,part_3,go,0.0,0.0,0.0,519.0,3.0,865.0,173.0,692.0,519.0,1038.0,346.0,cyan,square
0.0,1.0,1.0,0.0,7.0,4.0,1285.754516999987,2.0,1.0,part_3,go,0.0,0.0,0.0,308.0,2.0,616.0,462.0,154.0,308.0,770.0,924.0,yellow,I
0.0,8.0,4.0,1.0,7.0,5.0,3355.258667000271,2.0,1.0,part_3,go,0.0,0.0,0.0,616.0,4.0,770.0,462.0,308.0,924.0,616.0,154.0,orange,flipped triangle
0.0,3.0,3.0,0.0,7.0,2.0,4420.379472000604,2.0,1.0,part_3,go,0.0,0.0,0.0,348.0,3.0,232.0,348.0,464.0,580.0,696.0,116.0,green,circle
0.0,3.0,3.0,0.0,7.0,3.0,1787.6274509999348,2.0,1.0,part_3,go,0.0,0.0,0.0,308.0,2.0,770.0,462.0,308.0,924.0,154.0,616.0,green,circle
0.0,4.0,4.0,0.0,7.0,6.0,684.8973619999015,2.0,2.0,part_3,go,0.0,0.0,0.0,1038.0,6.0,173.0,692.0,519.0,865.0,346.0,1038.0,gray,triangle
0.0,3.0,3.0,0.0,7.0,2.0,1930.5870990001497,2.0,1.0,part_3,go,0.0,0.0,0.0,154.0,1.0,924.0,154.0,308.0,770.0,616.0,462.0,green,circle
0.0,7.0,3.0,1.0,7.0,5.0,2342.7989969995906,2.0,1.0,part_3,go,0.0,0.0,0.0,464.0,4.0,232.0,696.0,116.0,348.0,464.0,580.0,blue,hexagon
0.0,1.0,1.0,0.0,7.0,4.0,3016.612557999906,2.0,1.0,part_3,go,0.0,0.0,0.0,116.0,1.0,696.0,464.0,348.0,116.0,580.0,232.0,yellow,I
0.0,3.0,3.0,0.0,7.0,6.0,2977.3598120000315,2.0,1.0,part_3,go,0.0,0.0,0.0,810.0,6.0,405.0,135.0,675.0,270.0,540.0,810.0,green,circle
0.0,3.0,3.0,0.0,7.0,6.0,876.5170689994193,2.0,1.0,part_3,go,0.0,0.0,0.0,1038.0,6.0,173.0,692.0,346.0,519.0,865.0,1038.0,green,circle
0.0,1.0,1.0,0.0,7.0,4.0,1227.7453579999928,2.0,1.0,part_3,go,0.0,0.0,0.0,135.0,1.0,675.0,405.0,540.0,135.0,270.0,810.0,yellow,I
0.0,3.0,3.0,0.0,7.0,3.0,2357.909417999508,2.0,1.0,part_3,go,0.0,0.0,0.0,865.0,5.0,519.0,1038.0,865.0,692.0,346.0,173.0,green,circle
0.0,7.0,3.0,1.0,7.0,1.0,4826.749032000407,2.0,1.0,part_3,go,0.0,0.0,0.0,675.0,5.0,675.0,135.0,540.0,810.0,270.0,405.0,blue,hexagon
0.0,4.0,4.0,0.0,7.0,5.0,4515.273820999937,2.0,1.0,part_3,go,0.0,0.0,0.0,135.0,1.0,270.0,675.0,540.0,810.0,135.0,405.0,gray,triangle
0.0,2.0,2.0,0.0,7.0,3.0,1691.9389790000423,2.0,1.0,part_3,go,0.0,0.0,0.0,768.0,4.0,960.0,384.0,768.0,192.0,576.0,1152.0,magenta,diamond
0.0,2.0,2.0,0.0,7.0,5.0,2264.0480720001506,2.0,1.0,part_3,go,0.0,0.0,0.0,770.0,5.0,308.0,616.0,462.0,924.0,770.0,154.0,magenta,diamond
0.0,3.0,3.0,0.0,7.0,3.0,2495.9366399998544,2.0,1.0,part_3,go,0.0,0.0,0.0,135.0,1.0,675.0,810.0,135.0,405.0,270.0,540.0,green,circle
0.0,2.0,2.0,0.0,7.0,5.0,2888.2695629999944,2.0,1.0,part_3,go,0.0,0.0,0.0,464.0,4.0,232.0,580.0,348.0,696.0,464.0,116.0,magenta,diamond
0.0,1.0,1.0,0.0,7.0,2.0,1753.9962149994608,3.0,1.0,part_3,go,0.0,0.0,0.0,192.0,1.0,960.0,192.0,768.0,576.0,384.0,1152.0,yellow,I
0.0,4.0,4.0,0.0,7.0,4.0,2437.9673399998865,3.0,1.0,part_3,go,0.0,0.0,0.0,348.0,3.0,580.0,232.0,116.0,348.0,696.0,464.0,gray,triangle
0.0,2.0,2.0,0.0,7.0,6.0,4179.477988999679,3.0,1.0,part_3,go,0.0,0.0,0.0,960.0,5.0,384.0,1152.0,768.0,576.0,192.0,960.0,magenta,diamond
0.0,5.0,1.0,1.0,7.0,5.0,2940.9180900001957,3.0,1.0,part_3,go,0.0,0.0,0.0,768.0,4.0,960.0,1152.0,192.0,384.0,768.0,576.0,cyan,square
0.0,7.0,3.0,1.0,7.0,4.0,4066.4207859999806,3.0,1.0,part_3,go,0.0,0.0,0.0,770.0,5.0,462.0,308.0,154.0,770.0,924.0,616.0,blue,hexagon
0.0,5.0,1.0,1.0,7.0,5.0,4046.3356139998723,3.0,1.0,part_3,go,0.0,0.0,0.0,540.0,4.0,810.0,675.0,270.0,135.0,540.0,405.0,cyan,square
0.0,1.0,1.0,0.0,7.0,2.0,2003.2837129992913,3.0,1.0,part_3,go,0.0,0.0,0.0,346.0,2.0,865.0,346.0,173.0,692.0,1038.0,519.0,yellow,I
0.0,8.0,4.0,1.0,7.0,1.0,3211.5876279995064,3.0,1.0,part_3,go,0.0,0.0,0.0,865.0,5.0,865.0,173.0,519.0,1038.0,346.0,692.0,orange,flipped triangle
0.0,7.0,3.0,1.0,7.0,1.0,3962.445809999735,3.0,1.0,part_3,go,0.0,0.0,0.0,865.0,5.0,865.0,692.0,173.0,519.0,346.0,1038.0,blue,hexagon
0.0,2.0,2.0,0.0,7.0,3.0,4188.197923000189,3.0,1.0,part_3,go,0.0,0.0,0.0,519.0,3.0,692.0,865.0,519.0,346.0,173.0,1038.0,magenta,diamond
0.0,4.0,4.0,0.0,7.0,5.0,1630.1281089999975,3.0,1.0,part_3,go,0.0,0.0,0.0,308.0,2.0,924.0,616.0,770.0,154.0,308.0,462.0,gray,triangle
0.0,5.0,1.0,1.0,7.0,3.0,3036.7695459999595,3.0,1.0,part_3,go,0.0,0.0,0.0,576.0,3.0,768.0,960.0,576.0,1152.0,192.0,384.0,cyan,square
0.0,6.0,2.0,1.0,7.0,6.0,3194.48392600043,3.0,1.0,part_3,go,0.0,0.0,0.0,770.0,5.0,924.0,308.0,154.0,616.0,462.0,770.0,white,cross
0.0,4.0,4.0,0.0,7.0,1.0,4606.477567000184,3.0,1.0,part_3,go,0.0,0.0,0.0,192.0,1.0,192.0,576.0,960.0,384.0,1152.0,768.0,gray,triangle
0.0,4.0,4.0,0.0,7.0,3.0,1653.0176599999322,3.0,1.0,part_3,go,0.0,0.0,0.0,519.0,3.0,346.0,692.0,519.0,1038.0,173.0,865.0,gray,triangle
0.0,3.0,3.0,0.0,7.0,2.0,2804.7668070003056,3.0,1.0,part_3,go,0.0,0.0,0.0,192.0,1.0,576.0,192.0,1152.0,384.0,768.0,960.0,green,circle
0.0,8.0,4.0,1.0,7.0,3.0,4105.755786999907,3.0,1.0,part_3,go,0.0,0.0,0.0,1152.0,6.0,384.0,576.0,1152.0,768.0,960.0,192.0,orange,flipped triangle
0.0,5.0,1.0,1.0,7.0,5.0,3952.1150059999854,3.0,1.0,part_3,go,0.0,0.0,0.0,580.0,5.0,232.0,696.0,348.0,116.0,580.0,464.0,cyan,square
0.0,2.0,2.0,0.0,7.0,3.0,1380.560560000049,3.0,1.0,part_3,go,0.0,0.0,0.0,675.0,5.0,405.0,540.0,675.0,810.0,270.0,135.0,magenta,diamond
0.0,5.0,1.0,1.0,7.0,1.0,3251.4871660005156,3.0,1.0,part_3,go,0.0,0.0,0.0,696.0,6.0,696.0,232.0,348.0,464.0,116.0,580.0,cyan,square
0.0,1.0,1.0,0.0,7.0,6.0,2059.423643999253,4.0,1.0,part_3,go,0.0,0.0,0.0,116.0,1.0,696.0,348.0,464.0,232.0,580.0,116.0,yellow,I
0.0,6.0,2.0,1.0,7.0,2.0,2496.0988419998102,4.0,1.0,part_3,go,0.0,0.0,0.0,346.0,2.0,1038.0,346.0,173.0,692.0,519.0,865.0,white,cross
0.0,8.0,4.0,1.0,7.0,2.0,3006.6616980002436,4.0,1.0,part_3,go,0.0,0.0,0.0,696.0,6.0,580.0,696.0,232.0,464.0,116.0,348.0,orange,flipped triangle
0.0,8.0,4.0,1.0,7.0,6.0,3217.6703539998925,4.0,1.0,part_3,go,0.0,0.0,0.0,810.0,6.0,270.0,675.0,405.0,135.0,540.0,810.0,orange,flipped triangle
0.0,4.0,4.0,0.0,7.0,3.0,3533.8764890002494,4.0,1.0,part_3,go,0.0,0.0,0.0,405.0,3.0,675.0,270.0,405.0,135.0,810.0,540.0,gray,triangle
0.0,6.0,2.0,1.0,7.0,4.0,1650.3255439993154,4.0,1.0,part_3,go,0.0,0.0,0.0,116.0,1.0,464.0,696.0,580.0,116.0,348.0,232.0,white,cross
0.0,6.0,2.0,1.0,7.0,5.0,3345.1423689994044,4.0,1.0,part_3,go,0.0,0.0,0.0,135.0,1.0,270.0,540.0,810.0,405.0,135.0,675.0,white,cross
0.0,5.0,1.0,1.0,7.0,5.0,4738.6037650003345,4.0,1.0,part_3,go,0.0,0.0,0.0,462.0,3.0,924.0,308.0,616.0,154.0,462.0,770.0,cyan,square
0.0,7.0,3.0,1.0,7.0,6.0,3883.1777109999166,4.0,1.0,part_3,go,0.0,0.0,0.0,810.0,6.0,540.0,135.0,675.0,270.0,405.0,810.0,blue,hexagon
0.0,2.0,2.0,0.0,7.0,3.0,2963.168752000456,4.0,1.0,part_3,go,0.0,0.0,0.0,696.0,6.0,116.0,348.0,696.0,464.0,232.0,580.0,magenta,diamond
0.0,5.0,1.0,1.0,7.0,2.0,2931.6633060007007,4.0,1.0,part_3,go,0.0,0.0,0.0,616.0,4.0,924.0,616.0,770.0,154.0,462.0,308.0,cyan,square
0.0,6.0,2.0,1.0,7.0,1.0,2755.0266320004084,4.0,1.0,part_3,go,0.0,0.0,0.0,154.0,1.0,154.0,308.0,616.0,770.0,462.0,924.0,white,cross
0.0,7.0,3.0,1.0,7.0,5.0,4628.0192269996405,4.0,1.0,part_3,go,0.0,0.0,0.0,232.0,2.0,348.0,464.0,696.0,116.0,232.0,580.0,blue,hexagon
0.0,6.0,2.0,1.0,7.0,6.0,1963.9676389997476,4.0,1.0,part_3,go,0.0,0.0,0.0,116.0,1.0,580.0,696.0,348.0,232.0,464.0,116.0,white,cross
0.0,4.0,4.0,0.0,7.0,2.0,4324.972293999963,4.0,1.0,part_3,go,0.0,0.0,0.0,192.0,1.0,576.0,192.0,384.0,960.0,768.0,1152.0,gray,triangle
0.0,1.0,1.0,0.0,7.0,5.0,2380.9190860001763,4.0,1.0,part_3,go,0.0,0.0,0.0,154.0,1.0,924.0,770.0,462.0,308.0,154.0,616.0,yellow,I
0.0,4.0,4.0,0.0,7.0,1.0,2021.749718999672,4.0,1.0,part_3,go,0.0,0.0,0.0,116.0,1.0,116.0,696.0,232.0,348.0,580.0,464.0,gray,triangle
0.0,8.0,4.0,1.0,7.0,2.0,4216.631500000403,4.0,1.0,part_3,go,0.0,0.0,0.0,675.0,5.0,810.0,675.0,270.0,135.0,540.0,405.0,orange,flipped triangle
0.0,1.0,1.0,0.0,7.0,4.0,1798.7286050001785,4.0,1.0,part_3,go,0.0,0.0,0.0,173.0,1.0,519.0,346.0,865.0,173.0,1038.0,692.0,yellow,I
0.0,6.0,2.0,1.0,7.0,2.0,1659.467573999791,4.0,1.0,part_3,go,0.0,0.0,0.0,192.0,1.0,1152.0,192.0,960.0,768.0,576.0,384.0,white,cross
