raw_reward_magnitude,stim_reward,stepwise_reward_magnitude,paired_with_stopping,stim_location,response,reaction_time,block,num_trial_presentations,which_phase,stop_signal_trial_type,left_SSD,right_SSD,accuracy,chosen_bidding_amount,chosen_bidding_level,possible_bid_1,possible_bid_2,possible_bid_3,possible_bid_4,possible_bid_5,possible_bid_6,color_text,shape_text
636.0,3.0,2.0,0.0,4.0,4.0,608.6507009999877,1.0,1.0,phase_1,,,,,,,,,,,,,white,flipped triangle
0.0,4.0,0.0,0.0,2.0,2.0,430.548286999965,1.0,2.0,phase_1,,,,,,,,,,,,,yellow,square
138.0,1.0,0.5,0.0,2.0,2.0,476.5420399999129,1.0,1.0,phase_1,,,,,,,,,,,,,magenta,triangle
0.0,1.0,0.0,0.0,1.0,1.0,552.6349330000357,1.0,1.0,phase_1,,,,,,,,,,,,,magenta,triangle
0.0,7.0,0.0,1.0,2.0,2.0,420.9209660000397,1.0,1.0,phase_1,,,,,,,,,,,,,green,diamond
348.0,6.0,1.0,1.0,4.0,4.0,402.0927009999013,1.0,1.0,phase_1,,,,,,,,,,,,,cyan,hexagon
643.0,7.0,2.0,1.0,4.0,4.0,383.8738879999255,1.0,1.0,phase_1,,,,,,,,,,,,,green,diamond
323.0,2.0,1.0,0.0,4.0,4.0,375.2743170000485,1.0,1.0,phase_1,,,,,,,,,,,,,gray,circle
1306.0,8.0,4.0,1.0,3.0,3.0,459.85389700013,1.0,1.0,phase_1,,,,,,,,,,,,,blue,I
1276.0,4.0,4.0,0.0,1.0,1.0,647.7092040001935,1.0,1.0,phase_1,,,,,,,,,,,,,yellow,square
0.0,7.0,0.0,1.0,3.0,3.0,329.5816419999937,1.0,1.0,phase_1,,,,,,,,,,,,,green,diamond
644.0,3.0,2.0,0.0,4.0,4.0,442.477259000043,1.0,1.0,phase_1,,,,,,,,,,,,,white,flipped triangle
304.0,2.0,1.0,0.0,4.0,4.0,450.4466529999718,1.0,1.0,phase_1,,,,,,,,,,,,,gray,circle
0.0,1.0,0.0,0.0,4.0,4.0,322.750477999989,1.0,1.0,phase_1,,,,,,,,,,,,,magenta,triangle
142.0,5.0,0.5,1.0,2.0,2.0,411.2973720000354,1.0,1.0,phase_1,,,,,,,,,,,,,orange,cross
1289.0,8.0,4.0,1.0,4.0,4.0,337.5812619999578,1.0,1.0,phase_1,,,,,,,,,,,,,blue,I
148.0,5.0,0.5,1.0,4.0,4.0,373.8672690001294,1.0,1.0,phase_1,,,,,,,,,,,,,orange,cross
633.0,7.0,2.0,1.0,4.0,4.0,338.204062999921,1.0,1.0,phase_1,,,,,,,,,,,,,green,diamond
349.0,6.0,1.0,1.0,4.0,4.0,317.5277029999961,1.0,1.0,phase_1,,,,,,,,,,,,,cyan,hexagon
1280.0,4.0,4.0,0.0,1.0,1.0,505.31004599997686,1.0,1.0,phase_1,,,,,,,,,,,,,yellow,square
165.0,5.0,0.5,1.0,3.0,3.0,421.9174380000368,1.0,1.0,phase_1,,,,,,,,,,,,,orange,cross
0.0,4.0,0.0,0.0,4.0,4.0,393.4888229998705,1.0,1.0,phase_1,,,,,,,,,,,,,yellow,square
0.0,6.0,0.0,1.0,3.0,3.0,337.5107320000552,1.0,1.0,phase_1,,,,,,,,,,,,,cyan,hexagon
163.0,1.0,0.5,0.0,1.0,1.0,386.0538369999631,1.0,1.0,phase_1,,,,,,,,,,,,,magenta,triangle
643.0,7.0,2.0,1.0,1.0,1.0,441.675651000196,1.0,1.0,phase_1,,,,,,,,,,,,,green,diamond
1317.0,4.0,4.0,0.0,3.0,3.0,359.8184459999629,1.0,1.0,phase_1,,,,,,,,,,,,,yellow,square
323.0,6.0,1.0,1.0,1.0,1.0,411.9652659999246,1.0,2.0,phase_1,,,,,,,,,,,,,cyan,hexagon
313.0,2.0,1.0,0.0,4.0,4.0,449.2505149999033,1.0,1.0,phase_1,,,,,,,,,,,,,gray,circle
668.0,3.0,2.0,0.0,4.0,4.0,487.4282469997979,1.0,1.0,phase_1,,,,,,,,,,,,,white,flipped triangle
168.0,1.0,0.5,0.0,1.0,1.0,468.6144219999733,1.0,1.0,phase_1,,,,,,,,,,,,,magenta,triangle
161.0,1.0,0.5,0.0,2.0,2.0,480.5008630000884,1.0,1.0,phase_1,,,,,,,,,,,,,magenta,triangle
142.0,1.0,0.5,0.0,2.0,2.0,644.9643210000886,1.0,1.0,phase_1,,,,,,,,,,,,,magenta,triangle
0.0,6.0,0.0,1.0,4.0,4.0,410.8598760001314,1.0,1.0,phase_1,,,,,,,,,,,,,cyan,hexagon
1303.0,4.0,4.0,0.0,2.0,2.0,627.2582290000628,1.0,1.0,phase_1,,,,,,,,,,,,,yellow,square
643.0,3.0,2.0,0.0,2.0,2.0,458.9338129999305,1.0,1.0,phase_1,,,,,,,,,,,,,white,flipped triangle
1310.0,8.0,4.0,1.0,4.0,4.0,458.0031430000417,1.0,1.0,phase_1,,,,,,,,,,,,,blue,I
180.0,1.0,0.5,0.0,1.0,1.0,552.4139250001099,1.0,1.0,phase_1,,,,,,,,,,,,,magenta,triangle
0.0,4.0,0.0,0.0,3.0,3.0,476.8798109998897,1.0,1.0,phase_1,,,,,,,,,,,,,yellow,square
664.0,3.0,2.0,0.0,2.0,2.0,608.0740919999243,1.0,1.0,phase_1,,,,,,,,,,,,,white,flipped triangle
1299.0,4.0,4.0,0.0,1.0,1.0,541.0134730000209,1.0,1.0,phase_1,,,,,,,,,,,,,yellow,square
349.0,2.0,1.0,0.0,3.0,3.0,374.4180510000205,1.0,1.0,phase_1,,,,,,,,,,,,,gray,circle
0.0,5.0,0.0,1.0,4.0,4.0,401.1654770001769,1.0,1.0,phase_1,,,,,,,,,,,,,orange,cross
1281.0,4.0,4.0,0.0,3.0,3.0,345.6574560000263,1.0,1.0,phase_1,,,,,,,,,,,,,yellow,square
327.0,6.0,1.0,1.0,4.0,4.0,318.8544330000695,1.0,1.0,phase_1,,,,,,,,,,,,,cyan,hexagon
347.0,6.0,1.0,1.0,1.0,1.0,459.2106149998471,1.0,1.0,phase_1,,,,,,,,,,,,,cyan,hexagon
167.0,1.0,0.5,0.0,2.0,2.0,374.5389099999556,1.0,1.0,phase_1,,,,,,,,,,,,,magenta,triangle
166.0,1.0,0.5,0.0,3.0,3.0,355.0020340001083,1.0,1.0,phase_1,,,,,,,,,,,,,magenta,triangle
180.0,1.0,0.5,0.0,2.0,2.0,450.49644300002,1.0,1.0,phase_1,,,,,,,,,,,,,magenta,triangle
0.0,7.0,0.0,1.0,4.0,4.0,391.2038140001641,1.0,1.0,phase_1,,,,,,,,,,,,,green,diamond
319.0,6.0,1.0,1.0,3.0,3.0,345.4847119999158,1.0,1.0,phase_1,,,,,,,,,,,,,cyan,hexagon
653.0,7.0,2.0,1.0,3.0,3.0,400.492407999991,1.0,1.0,phase_1,,,,,,,,,,,,,green,diamond
138.0,5.0,0.5,1.0,3.0,3.0,393.2704200001353,1.0,1.0,phase_1,,,,,,,,,,,,,orange,cross
1316.0,8.0,4.0,1.0,4.0,4.0,347.0785760000581,1.0,1.0,phase_1,,,,,,,,,,,,,blue,I
304.0,6.0,1.0,1.0,1.0,1.0,466.6940000001887,1.0,1.0,phase_1,,,,,,,,,,,,,cyan,hexagon
152.0,1.0,0.5,0.0,1.0,1.0,402.3111410001547,1.0,1.0,phase_1,,,,,,,,,,,,,magenta,triangle
312.0,2.0,1.0,0.0,1.0,1.0,365.182268999888,1.0,1.0,phase_1,,,,,,,,,,,,,gray,circle
1285.0,8.0,4.0,1.0,4.0,4.0,403.712078999888,1.0,1.0,phase_1,,,,,,,,,,,,,blue,I
1279.0,8.0,4.0,1.0,1.0,1.0,374.1505030000098,1.0,1.0,phase_1,,,,,,,,,,,,,blue,I
663.0,7.0,2.0,1.0,4.0,4.0,355.0092840000616,1.0,1.0,phase_1,,,,,,,,,,,,,green,diamond
315.0,6.0,1.0,1.0,1.0,1.0,420.9037340001487,1.0,1.0,phase_1,,,,,,,,,,,,,cyan,hexagon
0.0,1.0,0.0,0.0,2.0,2.0,514.2354160000195,1.0,1.0,phase_1,,,,,,,,,,,,,magenta,triangle
339.0,6.0,1.0,1.0,2.0,2.0,411.0971380000592,1.0,1.0,phase_1,,,,,,,,,,,,,cyan,hexagon
0.0,6.0,0.0,1.0,3.0,3.0,402.5214910000159,1.0,1.0,phase_1,,,,,,,,,,,,,cyan,hexagon
640.0,7.0,2.0,1.0,1.0,1.0,467.5214630001392,1.0,1.0,phase_1,,,,,,,,,,,,,green,diamond
1314.0,8.0,4.0,1.0,1.0,1.0,438.4683410000889,1.0,1.0,phase_1,,,,,,,,,,,,,blue,I
658.0,3.0,2.0,0.0,2.0,2.0,654.9365129999387,1.0,1.0,phase_1,,,,,,,,,,,,,white,flipped triangle
0.0,2.0,0.0,0.0,2.0,2.0,635.3294160001042,1.0,1.0,phase_1,,,,,,,,,,,,,gray,circle
168.0,1.0,0.5,0.0,1.0,1.0,662.8173709998464,1.0,1.0,phase_1,,,,,,,,,,,,,magenta,triangle
637.0,7.0,2.0,1.0,1.0,1.0,384.7579700000096,1.0,1.0,phase_1,,,,,,,,,,,,,green,diamond
664.0,7.0,2.0,1.0,3.0,3.0,431.0732169999482,1.0,1.0,phase_1,,,,,,,,,,,,,green,diamond
142.0,5.0,0.5,1.0,1.0,1.0,394.3905250000625,1.0,1.0,phase_1,,,,,,,,,,,,,orange,cross
166.0,5.0,0.5,1.0,3.0,3.0,308.9923059999364,1.0,1.0,phase_1,,,,,,,,,,,,,orange,cross
643.0,3.0,2.0,0.0,4.0,4.0,411.7756979999285,1.0,1.0,phase_1,,,,,,,,,,,,,white,flipped triangle
0.0,3.0,0.0,0.0,4.0,4.0,384.3074279998291,1.0,1.0,phase_1,,,,,,,,,,,,,white,flipped triangle
322.0,2.0,1.0,0.0,1.0,1.0,426.6422629998487,1.0,1.0,phase_1,,,,,,,,,,,,,gray,circle
309.0,6.0,1.0,1.0,2.0,2.0,664.4504070000039,1.0,1.0,phase_1,,,,,,,,,,,,,cyan,hexagon
1316.0,4.0,4.0,0.0,3.0,3.0,356.6274919999159,1.0,1.0,phase_1,,,,,,,,,,,,,yellow,square
0.0,2.0,0.0,0.0,3.0,3.0,375.2700710001591,1.0,1.0,phase_1,,,,,,,,,,,,,gray,circle
1276.0,8.0,4.0,1.0,4.0,4.0,440.2002550000361,1.0,1.0,phase_1,,,,,,,,,,,,,blue,I
329.0,6.0,1.0,1.0,4.0,4.0,347.4932869999065,1.0,1.0,phase_1,,,,,,,,,,,,,cyan,hexagon
668.0,7.0,2.0,1.0,4.0,4.0,321.3406019999638,1.0,1.0,phase_1,,,,,,,,,,,,,green,diamond
643.0,7.0,2.0,1.0,1.0,1.0,486.5528389998417,1.0,1.0,phase_1,,,,,,,,,,,,,green,diamond
328.0,6.0,1.0,1.0,2.0,2.0,431.3384960000803,1.0,1.0,phase_1,,,,,,,,,,,,,cyan,hexagon
149.0,5.0,0.5,1.0,1.0,1.0,458.6223480000626,1.0,2.0,phase_1,,,,,,,,,,,,,orange,cross
322.0,6.0,1.0,1.0,2.0,2.0,570.1595870000347,1.0,1.0,phase_1,,,,,,,,,,,,,cyan,hexagon
0.0,8.0,0.0,1.0,2.0,2.0,430.8223890000136,1.0,1.0,phase_1,,,,,,,,,,,,,blue,I
627.0,7.0,2.0,1.0,4.0,4.0,570.4080299999532,1.0,1.0,phase_1,,,,,,,,,,,,,green,diamond
0.0,8.0,0.0,1.0,4.0,4.0,420.3223110000635,1.0,1.0,phase_1,,,,,,,,,,,,,blue,I
1280.0,8.0,4.0,1.0,4.0,4.0,466.5530270001454,1.0,1.0,phase_1,,,,,,,,,,,,,blue,I
186.0,1.0,0.5,0.0,4.0,4.0,335.7952399999249,1.0,1.0,phase_1,,,,,,,,,,,,,magenta,triangle
646.0,7.0,2.0,1.0,3.0,3.0,373.7210389999745,1.0,1.0,phase_1,,,,,,,,,,,,,green,diamond
662.0,7.0,2.0,1.0,4.0,4.0,345.5904920001558,1.0,1.0,phase_1,,,,,,,,,,,,,green,diamond
646.0,3.0,2.0,0.0,3.0,3.0,354.9246560000938,1.0,1.0,phase_1,,,,,,,,,,,,,white,flipped triangle
0.0,5.0,0.0,1.0,2.0,2.0,401.9722069999716,1.0,1.0,phase_1,,,,,,,,,,,,,orange,cross
321.0,2.0,1.0,0.0,1.0,1.0,504.4539079999595,1.0,1.0,phase_1,,,,,,,,,,,,,gray,circle
159.0,5.0,0.5,1.0,2.0,2.0,497.5157439998838,1.0,1.0,phase_1,,,,,,,,,,,,,orange,cross
0.0,1.0,0.0,0.0,3.0,3.0,467.8448069998921,1.0,1.0,phase_1,,,,,,,,,,,,,magenta,triangle
307.0,2.0,1.0,0.0,2.0,2.0,401.7663229999471,1.0,1.0,phase_1,,,,,,,,,,,,,gray,circle
328.0,2.0,1.0,0.0,4.0,4.0,383.5802759999751,1.0,1.0,phase_1,,,,,,,,,,,,,gray,circle
664.0,3.0,2.0,0.0,2.0,2.0,420.8686929998748,1.0,1.0,phase_1,,,,,,,,,,,,,white,flipped triangle
1310.0,4.0,4.0,0.0,2.0,2.0,627.8733179999563,2.0,1.0,phase_1,,,,,,,,,,,,,yellow,square
175.0,1.0,0.5,0.0,4.0,4.0,374.4067899999663,2.0,1.0,phase_1,,,,,,,,,,,,,magenta,triangle
1303.0,8.0,4.0,1.0,4.0,4.0,458.0661390000387,2.0,1.0,phase_1,,,,,,,,,,,,,blue,I
348.0,6.0,1.0,1.0,1.0,1.0,477.5456770000801,2.0,1.0,phase_1,,,,,,,,,,,,,cyan,hexagon
163.0,1.0,0.5,0.0,1.0,1.0,403.1573459999436,2.0,1.0,phase_1,,,,,,,,,,,,,magenta,triangle
0.0,4.0,0.0,0.0,1.0,1.0,468.7872209999568,2.0,1.0,phase_1,,,,,,,,,,,,,yellow,square
1324.0,4.0,4.0,0.0,3.0,3.0,385.0686279999991,2.0,1.0,phase_1,,,,,,,,,,,,,yellow,square
670.0,7.0,2.0,1.0,2.0,2.0,412.7761490001376,2.0,1.0,phase_1,,,,,,,,,,,,,green,diamond
627.0,3.0,2.0,0.0,1.0,1.0,355.490422999992,2.0,1.0,phase_1,,,,,,,,,,,,,white,flipped triangle
315.0,2.0,1.0,0.0,3.0,3.0,412.9196159999537,2.0,1.0,phase_1,,,,,,,,,,,,,gray,circle
162.0,5.0,0.5,1.0,4.0,4.0,505.68756899997425,2.0,1.0,phase_1,,,,,,,,,,,,,orange,cross
313.0,6.0,1.0,1.0,3.0,3.0,401.6123549999975,2.0,1.0,phase_1,,,,,,,,,,,,,cyan,hexagon
1283.0,8.0,4.0,1.0,1.0,1.0,496.6649149998829,2.0,1.0,phase_1,,,,,,,,,,,,,blue,I
0.0,8.0,0.0,1.0,2.0,2.0,505.04555999987133,2.0,1.0,phase_1,,,,,,,,,,,,,blue,I
0.0,6.0,0.0,1.0,3.0,3.0,356.1235910001414,2.0,1.0,phase_1,,,,,,,,,,,,,cyan,hexagon
0.0,3.0,0.0,0.0,3.0,3.0,364.5663680001689,2.0,1.0,phase_1,,,,,,,,,,,,,white,flipped triangle
343.0,6.0,1.0,1.0,1.0,1.0,421.2130559999423,2.0,1.0,phase_1,,,,,,,,,,,,,cyan,hexagon
1308.0,4.0,4.0,0.0,1.0,1.0,459.5154579999416,2.0,1.0,phase_1,,,,,,,,,,,,,yellow,square
1308.0,8.0,4.0,1.0,2.0,2.0,439.9694329999875,2.0,1.0,phase_1,,,,,,,,,,,,,blue,I
1312.0,8.0,4.0,1.0,1.0,1.0,412.2100709998904,2.0,1.0,phase_1,,,,,,,,,,,,,blue,I
1294.0,4.0,4.0,0.0,4.0,4.0,544.117930000084,2.0,1.0,phase_1,,,,,,,,,,,,,yellow,square
672.0,7.0,2.0,1.0,4.0,4.0,525.466194000046,2.0,1.0,phase_1,,,,,,,,,,,,,green,diamond
309.0,2.0,1.0,0.0,3.0,3.0,412.4173850000261,2.0,1.0,phase_1,,,,,,,,,,,,,gray,circle
174.0,1.0,0.5,0.0,3.0,3.0,404.3429450000531,2.0,1.0,phase_1,,,,,,,,,,,,,magenta,triangle
640.0,3.0,2.0,0.0,3.0,3.0,564.6888419998959,2.0,1.0,phase_1,,,,,,,,,,,,,white,flipped triangle
672.0,3.0,2.0,0.0,1.0,1.0,450.2155370000764,2.0,1.0,phase_1,,,,,,,,,,,,,white,flipped triangle
656.0,3.0,2.0,0.0,1.0,1.0,449.6321310000439,2.0,1.0,phase_1,,,,,,,,,,,,,white,flipped triangle
626.0,3.0,2.0,0.0,1.0,1.0,318.8159659998746,2.0,1.0,phase_1,,,,,,,,,,,,,white,flipped triangle
1324.0,8.0,4.0,1.0,3.0,3.0,402.4968549999812,2.0,1.0,phase_1,,,,,,,,,,,,,blue,I
656.0,7.0,2.0,1.0,1.0,1.0,457.6491660000101,2.0,1.0,phase_1,,,,,,,,,,,,,green,diamond
1317.0,8.0,4.0,1.0,4.0,4.0,515.3802159998122,2.0,1.0,phase_1,,,,,,,,,,,,,blue,I
664.0,7.0,2.0,1.0,2.0,2.0,448.7962329999391,2.0,2.0,phase_1,,,,,,,,,,,,,green,diamond
0.0,4.0,0.0,0.0,4.0,4.0,476.501761999998,2.0,1.0,phase_1,,,,,,,,,,,,,yellow,square
138.0,5.0,0.5,1.0,2.0,2.0,701.8283770000835,2.0,1.0,phase_1,,,,,,,,,,,,,orange,cross
321.0,2.0,1.0,0.0,1.0,1.0,467.6598230000763,2.0,1.0,phase_1,,,,,,,,,,,,,gray,circle
344.0,6.0,1.0,1.0,3.0,3.0,337.5785120001637,2.0,1.0,phase_1,,,,,,,,,,,,,cyan,hexagon
1310.0,4.0,4.0,0.0,2.0,2.0,599.7001719999844,2.0,1.0,phase_1,,,,,,,,,,,,,yellow,square
344.0,2.0,1.0,0.0,2.0,2.0,402.5584109999727,2.0,1.0,phase_1,,,,,,,,,,,,,gray,circle
1279.0,4.0,4.0,0.0,1.0,1.0,448.5845930000778,2.0,1.0,phase_1,,,,,,,,,,,,,yellow,square
152.0,5.0,0.5,1.0,4.0,4.0,450.5487940000421,2.0,1.0,phase_1,,,,,,,,,,,,,orange,cross
344.0,6.0,1.0,1.0,3.0,3.0,347.4214350001148,2.0,1.0,phase_1,,,,,,,,,,,,,cyan,hexagon
665.0,3.0,2.0,0.0,4.0,4.0,383.5838190000231,2.0,1.0,phase_1,,,,,,,,,,,,,white,flipped triangle
1292.0,8.0,4.0,1.0,1.0,1.0,346.4592479999737,2.0,1.0,phase_1,,,,,,,,,,,,,blue,I
1293.0,4.0,4.0,0.0,4.0,4.0,356.8501390000165,2.0,1.0,phase_1,,,,,,,,,,,,,yellow,square
668.0,3.0,2.0,0.0,1.0,1.0,394.8488149999321,2.0,1.0,phase_1,,,,,,,,,,,,,white,flipped triangle
144.0,5.0,0.5,1.0,3.0,3.0,376.4483869999822,2.0,1.0,phase_1,,,,,,,,,,,,,orange,cross
1305.0,8.0,4.0,1.0,1.0,1.0,395.4002210000453,2.0,1.0,phase_1,,,,,,,,,,,,,blue,I
1293.0,4.0,4.0,0.0,2.0,2.0,440.5561070000203,2.0,1.0,phase_1,,,,,,,,,,,,,yellow,square
0.0,2.0,0.0,0.0,3.0,3.0,384.8448020000887,2.0,1.0,phase_1,,,,,,,,,,,,,gray,circle
0.0,4.0,0.0,0.0,1.0,1.0,374.2216659998121,2.0,1.0,phase_1,,,,,,,,,,,,,yellow,square
627.0,3.0,2.0,0.0,4.0,4.0,432.5104140000348,2.0,1.0,phase_1,,,,,,,,,,,,,white,flipped triangle
344.0,2.0,1.0,0.0,2.0,2.0,748.3623460000217,2.0,1.0,phase_1,,,,,,,,,,,,,gray,circle
1305.0,4.0,4.0,0.0,3.0,3.0,347.2854029998871,2.0,1.0,phase_1,,,,,,,,,,,,,yellow,square
668.0,7.0,2.0,1.0,2.0,2.0,450.8009670000774,2.0,1.0,phase_1,,,,,,,,,,,,,green,diamond
186.0,5.0,0.5,1.0,4.0,4.0,403.6418140001387,2.0,1.0,phase_1,,,,,,,,,,,,,orange,cross
148.0,1.0,0.5,0.0,2.0,2.0,663.1429100000332,2.0,1.0,phase_1,,,,,,,,,,,,,magenta,triangle
331.0,2.0,1.0,0.0,1.0,1.0,451.208582999925,2.0,1.0,phase_1,,,,,,,,,,,,,gray,circle
0.0,5.0,0.0,1.0,2.0,2.0,544.1545710000355,2.0,1.0,phase_1,,,,,,,,,,,,,orange,cross
180.0,5.0,0.5,1.0,2.0,2.0,422.0826260000194,2.0,1.0,phase_1,,,,,,,,,,,,,orange,cross
1300.0,8.0,4.0,1.0,3.0,3.0,411.3357070000347,2.0,1.0,phase_1,,,,,,,,,,,,,blue,I
150.0,1.0,0.5,0.0,4.0,4.0,439.5858560001215,2.0,1.0,phase_1,,,,,,,,,,,,,magenta,triangle
0.0,8.0,0.0,1.0,2.0,2.0,537.372957000116,2.0,1.0,phase_1,,,,,,,,,,,,,blue,I
308.0,6.0,1.0,1.0,2.0,2.0,589.0831340000204,2.0,1.0,phase_1,,,,,,,,,,,,,cyan,hexagon
336.0,2.0,1.0,0.0,3.0,3.0,403.565141999934,2.0,1.0,phase_1,,,,,,,,,,,,,gray,circle
179.0,1.0,0.5,0.0,2.0,2.0,300.0552149999294,2.0,1.0,phase_1,,,,,,,,,,,,,magenta,triangle
0.0,5.0,0.0,1.0,1.0,1.0,629.2577750000419,2.0,1.0,phase_1,,,,,,,,,,,,,orange,cross
1322.0,4.0,4.0,0.0,4.0,4.0,441.2385629998425,2.0,1.0,phase_1,,,,,,,,,,,,,yellow,square
0.0,1.0,0.0,0.0,1.0,1.0,534.5621530000244,2.0,1.0,phase_1,,,,,,,,,,,,,magenta,triangle
1323.0,8.0,4.0,1.0,4.0,4.0,373.8739410000562,2.0,1.0,phase_1,,,,,,,,,,,,,blue,I
320.0,6.0,1.0,1.0,4.0,4.0,346.0798549999708,2.0,1.0,phase_1,,,,,,,,,,,,,cyan,hexagon
303.0,2.0,1.0,0.0,4.0,4.0,374.0305670000907,2.0,1.0,phase_1,,,,,,,,,,,,,gray,circle
145.0,1.0,0.5,0.0,2.0,2.0,478.4882889998698,2.0,1.0,phase_1,,,,,,,,,,,,,magenta,triangle
667.0,7.0,2.0,1.0,4.0,4.0,563.4682370000519,2.0,1.0,phase_1,,,,,,,,,,,,,green,diamond
313.0,2.0,1.0,0.0,4.0,4.0,365.7516989999294,2.0,1.0,phase_1,,,,,,,,,,,,,gray,circle
338.0,2.0,1.0,0.0,4.0,4.0,308.6247129999719,2.0,1.0,phase_1,,,,,,,,,,,,,gray,circle
0.0,3.0,0.0,0.0,4.0,4.0,329.2804930001693,2.0,1.0,phase_1,,,,,,,,,,,,,white,flipped triangle
139.0,1.0,0.5,0.0,3.0,3.0,449.8914200000854,2.0,1.0,phase_1,,,,,,,,,,,,,magenta,triangle
1284.0,4.0,4.0,0.0,4.0,4.0,347.3741359998712,2.0,1.0,phase_1,,,,,,,,,,,,,yellow,square
628.0,3.0,2.0,0.0,1.0,1.0,712.6142719998825,2.0,1.0,phase_1,,,,,,,,,,,,,white,flipped triangle
1309.0,8.0,4.0,1.0,2.0,2.0,882.8942490001737,2.0,1.0,phase_1,,,,,,,,,,,,,blue,I
1275.0,8.0,4.0,1.0,1.0,1.0,757.6788070000475,2.0,1.0,phase_1,,,,,,,,,,,,,blue,I
179.0,5.0,0.5,1.0,1.0,1.0,496.3659110001117,2.0,1.0,phase_1,,,,,,,,,,,,,orange,cross
0.0,6.0,0.0,1.0,1.0,1.0,628.8111020000997,2.0,1.0,phase_1,,,,,,,,,,,,,cyan,hexagon
1297.0,8.0,4.0,1.0,3.0,3.0,412.9936930000895,2.0,1.0,phase_1,,,,,,,,,,,,,blue,I
1316.0,8.0,4.0,1.0,3.0,3.0,449.6983470000941,2.0,1.0,phase_1,,,,,,,,,,,,,blue,I
326.0,2.0,1.0,0.0,1.0,1.0,478.1598170000052,2.0,1.0,phase_1,,,,,,,,,,,,,gray,circle
1297.0,4.0,4.0,0.0,2.0,2.0,732.0390410000073,2.0,1.0,phase_1,,,,,,,,,,,,,yellow,square
1276.0,8.0,4.0,1.0,4.0,4.0,429.1102709998995,2.0,1.0,phase_1,,,,,,,,,,,,,blue,I
640.0,3.0,2.0,0.0,3.0,3.0,403.9952420000645,2.0,1.0,phase_1,,,,,,,,,,,,,white,flipped triangle
0.0,2.0,0.0,0.0,2.0,2.0,552.8580630000306,2.0,1.0,phase_1,,,,,,,,,,,,,gray,circle
329.0,2.0,1.0,0.0,4.0,4.0,393.8089820001096,2.0,1.0,phase_1,,,,,,,,,,,,,gray,circle
1276.0,4.0,4.0,0.0,2.0,2.0,534.5764720000261,2.0,1.0,phase_1,,,,,,,,,,,,,yellow,square
0.0,5.0,0.0,1.0,2.0,2.0,385.3262349998658,2.0,1.0,phase_1,,,,,,,,,,,,,orange,cross
1294.0,8.0,4.0,1.0,2.0,2.0,374.4405780000761,2.0,1.0,phase_1,,,,,,,,,,,,,blue,I
633.0,3.0,2.0,0.0,1.0,1.0,580.8464870001444,2.0,1.0,phase_1,,,,,,,,,,,,,white,flipped triangle
1289.0,4.0,4.0,0.0,1.0,1.0,384.8625470000115,2.0,1.0,phase_1,,,,,,,,,,,,,yellow,square
1316.0,4.0,4.0,0.0,4.0,4.0,517.6257680000163,2.0,1.0,phase_1,,,,,,,,,,,,,yellow,square
646.0,7.0,2.0,1.0,1.0,1.0,346.0687570000118,2.0,1.0,phase_1,,,,,,,,,,,,,green,diamond
1312.0,4.0,4.0,0.0,4.0,4.0,339.0146510000704,2.0,1.0,phase_1,,,,,,,,,,,,,yellow,square
0.0,3.0,0.0,0.0,3.0,3.0,506.5149469999142,2.0,1.0,phase_1,,,,,,,,,,,,,white,flipped triangle
626.0,7.0,2.0,1.0,3.0,3.0,402.8192959999614,3.0,1.0,phase_1,,,,,,,,,,,,,green,diamond
159.0,1.0,0.5,0.0,3.0,3.0,365.498376000005,3.0,1.0,phase_1,,,,,,,,,,,,,magenta,triangle
308.0,2.0,1.0,0.0,3.0,3.0,328.0790079998041,3.0,1.0,phase_1,,,,,,,,,,,,,gray,circle
326.0,6.0,1.0,1.0,2.0,2.0,403.6214079999354,3.0,1.0,phase_1,,,,,,,,,,,,,cyan,hexagon
670.0,3.0,2.0,0.0,1.0,1.0,560.0510079998458,3.0,1.0,phase_1,,,,,,,,,,,,,white,flipped triangle
162.0,5.0,0.5,1.0,4.0,4.0,383.0906059999961,3.0,1.0,phase_1,,,,,,,,,,,,,orange,cross
344.0,2.0,1.0,0.0,2.0,2.0,495.5461749998449,3.0,1.0,phase_1,,,,,,,,,,,,,gray,circle
332.0,6.0,1.0,1.0,3.0,3.0,319.1769889999705,3.0,1.0,phase_1,,,,,,,,,,,,,cyan,hexagon
0.0,2.0,0.0,0.0,2.0,2.0,336.723075000009,3.0,1.0,phase_1,,,,,,,,,,,,,gray,circle
640.0,7.0,2.0,1.0,2.0,2.0,448.7077909998334,3.0,1.0,phase_1,,,,,,,,,,,,,green,diamond
179.0,5.0,0.5,1.0,2.0,2.0,355.2162670000598,3.0,1.0,phase_1,,,,,,,,,,,,,orange,cross
321.0,6.0,1.0,1.0,1.0,1.0,469.017372000053,3.0,1.0,phase_1,,,,,,,,,,,,,cyan,hexagon
633.0,7.0,2.0,1.0,1.0,1.0,448.9338900000348,3.0,1.0,phase_1,,,,,,,,,,,,,green,diamond
317.0,6.0,1.0,1.0,3.0,3.0,458.2507109998914,3.0,1.0,phase_1,,,,,,,,,,,,,cyan,hexagon
0.0,7.0,0.0,1.0,2.0,2.0,421.5541930000199,3.0,1.0,phase_1,,,,,,,,,,,,,green,diamond
151.0,5.0,0.5,1.0,2.0,2.0,355.9194609999849,3.0,1.0,phase_1,,,,,,,,,,,,,orange,cross
186.0,5.0,0.5,1.0,4.0,4.0,644.5967870001823,3.0,1.0,phase_1,,,,,,,,,,,,,orange,cross
653.0,3.0,2.0,0.0,2.0,2.0,402.0610370000668,3.0,1.0,phase_1,,,,,,,,,,,,,white,flipped triangle
673.0,3.0,2.0,0.0,3.0,3.0,429.494233000014,3.0,1.0,phase_1,,,,,,,,,,,,,white,flipped triangle
653.0,7.0,2.0,1.0,2.0,2.0,487.1386529998744,3.0,1.0,phase_1,,,,,,,,,,,,,green,diamond
1316.0,8.0,4.0,1.0,3.0,3.0,383.9897400000609,3.0,1.0,phase_1,,,,,,,,,,,,,blue,I
633.0,3.0,2.0,0.0,4.0,4.0,374.7640100000353,3.0,1.0,phase_1,,,,,,,,,,,,,white,flipped triangle
1309.0,4.0,4.0,0.0,4.0,4.0,402.9851190000499,3.0,1.0,phase_1,,,,,,,,,,,,,yellow,square
0.0,3.0,0.0,0.0,4.0,4.0,357.2934019998683,3.0,1.0,phase_1,,,,,,,,,,,,,white,flipped triangle
302.0,2.0,1.0,0.0,1.0,1.0,524.3194380000205,3.0,1.0,phase_1,,,,,,,,,,,,,gray,circle
1323.0,4.0,4.0,0.0,1.0,1.0,543.9637179999863,3.0,1.0,phase_1,,,,,,,,,,,,,yellow,square
645.0,3.0,2.0,0.0,4.0,4.0,441.4530270000796,3.0,1.0,phase_1,,,,,,,,,,,,,white,flipped triangle
633.0,3.0,2.0,0.0,2.0,2.0,458.9533470000333,3.0,1.0,phase_1,,,,,,,,,,,,,white,flipped triangle
0.0,2.0,0.0,0.0,4.0,4.0,504.8044200000277,3.0,1.0,phase_1,,,,,,,,,,,,,gray,circle
348.0,2.0,1.0,0.0,4.0,4.0,469.1905869999573,3.0,1.0,phase_1,,,,,,,,,,,,,gray,circle
168.0,5.0,0.5,1.0,1.0,1.0,487.7196779998485,3.0,1.0,phase_1,,,,,,,,,,,,,orange,cross
347.0,2.0,1.0,0.0,3.0,3.0,421.9499959999666,3.0,1.0,phase_1,,,,,,,,,,,,,gray,circle
1323.0,8.0,4.0,1.0,1.0,1.0,421.186759999955,3.0,1.0,phase_1,,,,,,,,,,,,,blue,I
1285.0,4.0,4.0,0.0,4.0,4.0,412.7539329999763,3.0,1.0,phase_1,,,,,,,,,,,,,yellow,square
0.0,2.0,0.0,0.0,2.0,2.0,532.7686729999641,3.0,1.0,phase_1,,,,,,,,,,,,,gray,circle
350.0,2.0,1.0,0.0,3.0,3.0,431.1697820000972,3.0,1.0,phase_1,,,,,,,,,,,,,gray,circle
626.0,3.0,2.0,0.0,1.0,1.0,477.3793870001555,3.0,1.0,phase_1,,,,,,,,,,,,,white,flipped triangle
167.0,5.0,0.5,1.0,1.0,1.0,365.7015930000398,3.0,1.0,phase_1,,,,,,,,,,,,,orange,cross
186.0,1.0,0.5,0.0,3.0,3.0,385.069790999978,3.0,1.0,phase_1,,,,,,,,,,,,,magenta,triangle
142.0,1.0,0.5,0.0,4.0,4.0,448.998660999905,3.0,2.0,phase_1,,,,,,,,,,,,,magenta,triangle
149.0,1.0,0.5,0.0,3.0,3.0,404.6841869999298,3.0,1.0,phase_1,,,,,,,,,,,,,magenta,triangle
144.0,1.0,0.5,0.0,1.0,1.0,470.2189340000586,3.0,1.0,phase_1,,,,,,,,,,,,,magenta,triangle
308.0,2.0,1.0,0.0,2.0,2.0,611.2127999999757,3.0,1.0,phase_1,,,,,,,,,,,,,gray,circle
313.0,6.0,1.0,1.0,3.0,3.0,487.5603529999353,3.0,1.0,phase_1,,,,,,,,,,,,,cyan,hexagon
0.0,8.0,0.0,1.0,4.0,4.0,403.1024370001432,3.0,1.0,phase_1,,,,,,,,,,,,,blue,I
0.0,4.0,0.0,0.0,3.0,3.0,439.7676270000374,3.0,1.0,phase_1,,,,,,,,,,,,,yellow,square
0.0,8.0,0.0,1.0,3.0,3.0,412.3097429999234,3.0,1.0,phase_1,,,,,,,,,,,,,blue,I
0.0,4.0,0.0,0.0,3.0,3.0,348.1781160000992,3.0,1.0,phase_1,,,,,,,,,,,,,yellow,square
0.0,7.0,0.0,1.0,2.0,2.0,664.2932970000857,3.0,1.0,phase_1,,,,,,,,,,,,,green,diamond
165.0,5.0,0.5,1.0,2.0,2.0,536.4681529999871,3.0,1.0,phase_1,,,,,,,,,,,,,orange,cross
658.0,7.0,2.0,1.0,3.0,3.0,366.5254679999634,3.0,1.0,phase_1,,,,,,,,,,,,,green,diamond
179.0,1.0,0.5,0.0,4.0,4.0,488.980839000078,3.0,1.0,phase_1,,,,,,,,,,,,,magenta,triangle
655.0,3.0,2.0,0.0,3.0,3.0,309.3617170000016,3.0,1.0,phase_1,,,,,,,,,,,,,white,flipped triangle
1284.0,8.0,4.0,1.0,3.0,3.0,376.3564240000505,3.0,1.0,phase_1,,,,,,,,,,,,,blue,I
331.0,6.0,1.0,1.0,4.0,4.0,393.4341669998957,3.0,1.0,phase_1,,,,,,,,,,,,,cyan,hexagon
302.0,6.0,1.0,1.0,2.0,2.0,824.9767889999475,3.0,1.0,phase_1,,,,,,,,,,,,,cyan,hexagon
0.0,3.0,0.0,0.0,2.0,2.0,388.5524190000069,3.0,1.0,phase_1,,,,,,,,,,,,,white,flipped triangle
0.0,6.0,0.0,1.0,3.0,3.0,356.2952049999239,3.0,1.0,phase_1,,,,,,,,,,,,,cyan,hexagon
1312.0,4.0,4.0,0.0,2.0,2.0,467.4103800000466,3.0,1.0,phase_1,,,,,,,,,,,,,yellow,square
0.0,3.0,0.0,0.0,3.0,3.0,412.1332769998389,3.0,1.0,phase_1,,,,,,,,,,,,,white,flipped triangle
0.0,8.0,0.0,1.0,3.0,3.0,384.2727830001422,3.0,1.0,phase_1,,,,,,,,,,,,,blue,I
160.0,5.0,0.5,1.0,1.0,1.0,655.6075959999816,3.0,1.0,phase_1,,,,,,,,,,,,,orange,cross
174.0,1.0,0.5,0.0,3.0,3.0,393.4656349999841,3.0,1.0,phase_1,,,,,,,,,,,,,magenta,triangle
168.0,5.0,0.5,1.0,1.0,1.0,589.425680000204,3.0,1.0,phase_1,,,,,,,,,,,,,orange,cross
1275.0,4.0,4.0,0.0,3.0,3.0,346.867747000033,3.0,1.0,phase_1,,,,,,,,,,,,,yellow,square
0.0,6.0,0.0,1.0,1.0,1.0,387.5365240000974,3.0,1.0,phase_1,,,,,,,,,,,,,cyan,hexagon
303.0,6.0,1.0,1.0,3.0,3.0,336.5425700001196,3.0,1.0,phase_1,,,,,,,,,,,,,cyan,hexagon
646.0,3.0,2.0,0.0,3.0,3.0,392.8388190001897,3.0,1.0,phase_1,,,,,,,,,,,,,white,flipped triangle
186.0,1.0,0.5,0.0,2.0,2.0,327.4742389999119,3.0,1.0,phase_1,,,,,,,,,,,,,magenta,triangle
163.0,5.0,0.5,1.0,2.0,2.0,431.1238390000653,3.0,1.0,phase_1,,,,,,,,,,,,,orange,cross
155.0,1.0,0.5,0.0,1.0,1.0,384.6436730000278,3.0,2.0,phase_1,,,,,,,,,,,,,magenta,triangle
343.0,2.0,1.0,0.0,3.0,3.0,439.2500379999546,3.0,1.0,phase_1,,,,,,,,,,,,,gray,circle
0.0,7.0,0.0,1.0,2.0,2.0,748.2657479999943,3.0,1.0,phase_1,,,,,,,,,,,,,green,diamond
1322.0,8.0,4.0,1.0,1.0,1.0,514.0236759998515,3.0,1.0,phase_1,,,,,,,,,,,,,blue,I
309.0,6.0,1.0,1.0,2.0,2.0,552.937891000056,3.0,1.0,phase_1,,,,,,,,,,,,,cyan,hexagon
662.0,3.0,2.0,0.0,2.0,2.0,458.4759659996962,3.0,1.0,phase_1,,,,,,,,,,,,,white,flipped triangle
308.0,6.0,1.0,1.0,4.0,4.0,598.5947720000695,3.0,1.0,phase_1,,,,,,,,,,,,,cyan,hexagon
302.0,6.0,1.0,1.0,3.0,3.0,515.1136689996747,3.0,1.0,phase_1,,,,,,,,,,,,,cyan,hexagon
1306.0,4.0,4.0,0.0,1.0,1.0,430.7238500000494,3.0,1.0,phase_1,,,,,,,,,,,,,yellow,square
347.0,6.0,1.0,1.0,2.0,2.0,383.8442269998268,3.0,1.0,phase_1,,,,,,,,,,,,,cyan,hexagon
1297.0,8.0,4.0,1.0,2.0,2.0,364.2990580001424,3.0,1.0,phase_1,,,,,,,,,,,,,blue,I
0.0,5.0,0.0,1.0,2.0,2.0,365.3392799997164,3.0,1.0,phase_1,,,,,,,,,,,,,orange,cross
636.0,7.0,2.0,1.0,3.0,3.0,467.7876169998853,3.0,1.0,phase_1,,,,,,,,,,,,,green,diamond
319.0,2.0,1.0,0.0,1.0,1.0,439.859141999932,3.0,1.0,phase_1,,,,,,,,,,,,,gray,circle
645.0,7.0,2.0,1.0,1.0,1.0,411.5589660000296,3.0,1.0,phase_1,,,,,,,,,,,,,green,diamond
643.0,3.0,2.0,0.0,2.0,2.0,467.77951400008527,3.0,1.0,phase_1,,,,,,,,,,,,,white,flipped triangle
0.0,7.0,0.0,1.0,2.0,2.0,421.260854999673,3.0,1.0,phase_1,,,,,,,,,,,,,green,diamond
162.0,1.0,0.5,0.0,1.0,1.0,393.0995440000515,3.0,1.0,phase_1,,,,,,,,,,,,,magenta,triangle
655.0,7.0,2.0,1.0,3.0,3.0,393.9140560000851,3.0,1.0,phase_1,,,,,,,,,,,,,green,diamond
0.0,8.0,0.0,1.0,2.0,2.0,429.5332690003306,3.0,1.0,phase_1,,,,,,,,,,,,,blue,I
1316.0,4.0,4.0,0.0,1.0,1.0,458.9349950001633,3.0,1.0,phase_1,,,,,,,,,,,,,yellow,square
1283.0,4.0,4.0,0.0,4.0,4.0,534.3809729997702,3.0,1.0,phase_1,,,,,,,,,,,,,yellow,square
653.0,3.0,2.0,0.0,2.0,2.0,458.279715000117,3.0,1.0,phase_1,,,,,,,,,,,,,white,flipped triangle
0.0,3.0,0.0,0.0,1.0,1.0,365.5229689998123,3.0,1.0,phase_1,,,,,,,,,,,,,white,flipped triangle
162.0,1.0,0.5,0.0,2.0,2.0,384.4036109999251,3.0,1.0,phase_1,,,,,,,,,,,,,magenta,triangle
0.0,4.0,0.0,0.0,4.0,4.0,326.9662179995976,3.0,1.0,phase_1,,,,,,,,,,,,,yellow,square
309.0,2.0,1.0,0.0,4.0,4.0,468.4985990002133,3.0,1.0,phase_1,,,,,,,,,,,,,gray,circle
347.0,2.0,1.0,0.0,1.0,1.0,365.6110670003727,3.0,1.0,phase_1,,,,,,,,,,,,,gray,circle
155.0,5.0,0.5,1.0,3.0,3.0,355.5176800000481,3.0,1.0,phase_1,,,,,,,,,,,,,orange,cross
628.0,7.0,2.0,1.0,3.0,3.0,365.9526280002865,3.0,1.0,phase_1,,,,,,,,,,,,,green,diamond
651.0,7.0,2.0,1.0,1.0,1.0,458.6433160002343,4.0,1.0,phase_1,,,,,,,,,,,,,green,diamond
150.0,5.0,0.5,1.0,3.0,3.0,347.9399269999703,4.0,1.0,phase_1,,,,,,,,,,,,,orange,cross
1294.0,4.0,4.0,0.0,1.0,1.0,357.4900589997014,4.0,1.0,phase_1,,,,,,,,,,,,,yellow,square
633.0,7.0,2.0,1.0,2.0,2.0,382.8405499998553,4.0,1.0,phase_1,,,,,,,,,,,,,green,diamond
626.0,7.0,2.0,1.0,2.0,2.0,410.8449750001455,4.0,1.0,phase_1,,,,,,,,,,,,,green,diamond
180.0,5.0,0.5,1.0,3.0,3.0,383.3858799998779,4.0,1.0,phase_1,,,,,,,,,,,,,orange,cross
185.0,5.0,0.5,1.0,3.0,3.0,458.503594999911,4.0,1.0,phase_1,,,,,,,,,,,,,orange,cross
175.0,5.0,0.5,1.0,4.0,4.0,487.0547740001711,4.0,1.0,phase_1,,,,,,,,,,,,,orange,cross
670.0,3.0,2.0,0.0,4.0,4.0,410.7942440000443,4.0,1.0,phase_1,,,,,,,,,,,,,white,flipped triangle
0.0,1.0,0.0,0.0,4.0,4.0,400.9328110000751,4.0,1.0,phase_1,,,,,,,,,,,,,magenta,triangle
0.0,5.0,0.0,1.0,4.0,4.0,317.54145900004,4.0,1.0,phase_1,,,,,,,,,,,,,orange,cross
350.0,6.0,1.0,1.0,4.0,4.0,346.1631499999384,4.0,1.0,phase_1,,,,,,,,,,,,,cyan,hexagon
151.0,1.0,0.5,0.0,3.0,3.0,374.1438229999403,4.0,1.0,phase_1,,,,,,,,,,,,,magenta,triangle
670.0,7.0,2.0,1.0,3.0,3.0,345.943857000293,4.0,1.0,phase_1,,,,,,,,,,,,,green,diamond
0.0,8.0,0.0,1.0,2.0,2.0,374.084015000335,4.0,1.0,phase_1,,,,,,,,,,,,,blue,I
1310.0,8.0,4.0,1.0,2.0,2.0,346.9761149999613,4.0,1.0,phase_1,,,,,,,,,,,,,blue,I
160.0,1.0,0.5,0.0,1.0,1.0,384.353979000025,4.0,1.0,phase_1,,,,,,,,,,,,,magenta,triangle
344.0,6.0,1.0,1.0,3.0,3.0,356.9064630000866,4.0,1.0,phase_1,,,,,,,,,,,,,cyan,hexagon
186.0,5.0,0.5,1.0,3.0,3.0,365.8580129999791,4.0,1.0,phase_1,,,,,,,,,,,,,orange,cross
1294.0,8.0,4.0,1.0,2.0,2.0,365.525721999802,4.0,1.0,phase_1,,,,,,,,,,,,,blue,I
627.0,7.0,2.0,1.0,3.0,3.0,375.4927070003759,4.0,1.0,phase_1,,,,,,,,,,,,,green,diamond
0.0,1.0,0.0,0.0,1.0,1.0,375.3184549996149,4.0,1.0,phase_1,,,,,,,,,,,,,magenta,triangle
0.0,1.0,0.0,0.0,1.0,1.0,299.7734549999222,4.0,1.0,phase_1,,,,,,,,,,,,,magenta,triangle
138.0,1.0,0.5,0.0,4.0,4.0,346.3195459999042,4.0,2.0,phase_1,,,,,,,,,,,,,magenta,triangle
644.0,7.0,2.0,1.0,2.0,2.0,582.2091140003067,4.0,1.0,phase_1,,,,,,,,,,,,,green,diamond
627.0,7.0,2.0,1.0,2.0,2.0,365.3565249996973,4.0,1.0,phase_1,,,,,,,,,,,,,green,diamond
0.0,7.0,0.0,1.0,4.0,4.0,394.6585829999094,4.0,1.0,phase_1,,,,,,,,,,,,,green,diamond
1303.0,4.0,4.0,0.0,3.0,3.0,430.7799729999715,4.0,1.0,phase_1,,,,,,,,,,,,,yellow,square
1303.0,8.0,4.0,1.0,3.0,3.0,345.6858839999768,4.0,1.0,phase_1,,,,,,,,,,,,,blue,I
321.0,6.0,1.0,1.0,1.0,1.0,449.1376379996836,4.0,1.0,phase_1,,,,,,,,,,,,,cyan,hexagon
0.0,4.0,0.0,0.0,3.0,3.0,328.6585000000741,4.0,1.0,phase_1,,,,,,,,,,,,,yellow,square
338.0,6.0,1.0,1.0,4.0,4.0,393.6735249999401,4.0,1.0,phase_1,,,,,,,,,,,,,cyan,hexagon
0.0,2.0,0.0,0.0,2.0,2.0,412.0148780002637,4.0,1.0,phase_1,,,,,,,,,,,,,gray,circle
1292.0,4.0,4.0,0.0,3.0,3.0,411.6407439996692,4.0,1.0,phase_1,,,,,,,,,,,,,yellow,square
0.0,5.0,0.0,1.0,1.0,1.0,374.7848649995831,4.0,1.0,phase_1,,,,,,,,,,,,,orange,cross
168.0,1.0,0.5,0.0,4.0,4.0,420.6745129999945,4.0,1.0,phase_1,,,,,,,,,,,,,magenta,triangle
1297.0,4.0,4.0,0.0,2.0,2.0,346.02408899991127,4.0,1.0,phase_1,,,,,,,,,,,,,yellow,square
651.0,3.0,2.0,0.0,2.0,2.0,319.1583980001269,4.0,2.0,phase_1,,,,,,,,,,,,,white,flipped triangle
663.0,3.0,2.0,0.0,3.0,3.0,626.9732939999813,4.0,1.0,phase_1,,,,,,,,,,,,,white,flipped triangle
0.0,7.0,0.0,1.0,4.0,4.0,496.3350520001768,4.0,1.0,phase_1,,,,,,,,,,,,,green,diamond
308.0,2.0,1.0,0.0,2.0,2.0,638.2539100000031,4.0,1.0,phase_1,,,,,,,,,,,,,gray,circle
327.0,2.0,1.0,0.0,2.0,2.0,421.4515859998755,4.0,1.0,phase_1,,,,,,,,,,,,,gray,circle
0.0,1.0,0.0,0.0,2.0,2.0,384.1209759998492,4.0,1.0,phase_1,,,,,,,,,,,,,magenta,triangle
0.0,2.0,0.0,0.0,1.0,1.0,573.5242010000547,4.0,1.0,phase_1,,,,,,,,,,,,,gray,circle
173.0,1.0,0.5,0.0,4.0,4.0,404.3847910002114,4.0,1.0,phase_1,,,,,,,,,,,,,magenta,triangle
339.0,2.0,1.0,0.0,2.0,2.0,438.9161740000418,4.0,1.0,phase_1,,,,,,,,,,,,,gray,circle
627.0,3.0,2.0,0.0,3.0,3.0,440.3448959997149,4.0,1.0,phase_1,,,,,,,,,,,,,white,flipped triangle
144.0,1.0,0.5,0.0,4.0,4.0,393.7793039999633,4.0,1.0,phase_1,,,,,,,,,,,,,magenta,triangle
185.0,1.0,0.5,0.0,4.0,4.0,413.929932999963,4.0,1.0,phase_1,,,,,,,,,,,,,magenta,triangle
1301.0,4.0,4.0,0.0,3.0,3.0,327.8481390002525,4.0,1.0,phase_1,,,,,,,,,,,,,yellow,square
332.0,2.0,1.0,0.0,3.0,3.0,345.1494249998177,4.0,1.0,phase_1,,,,,,,,,,,,,gray,circle
637.0,3.0,2.0,0.0,3.0,3.0,393.0282989999796,4.0,1.0,phase_1,,,,,,,,,,,,,white,flipped triangle
0.0,1.0,0.0,0.0,1.0,1.0,391.7340689999946,4.0,1.0,phase_1,,,,,,,,,,,,,magenta,triangle
1292.0,8.0,4.0,1.0,3.0,3.0,374.7103450000395,4.0,1.0,phase_1,,,,,,,,,,,,,blue,I
165.0,1.0,0.5,0.0,3.0,3.0,394.0936849999161,4.0,1.0,phase_1,,,,,,,,,,,,,magenta,triangle
320.0,2.0,1.0,0.0,2.0,2.0,553.0060529999901,4.0,1.0,phase_1,,,,,,,,,,,,,gray,circle
1312.0,8.0,4.0,1.0,2.0,2.0,439.6501699998225,4.0,1.0,phase_1,,,,,,,,,,,,,blue,I
174.0,5.0,0.5,1.0,1.0,1.0,486.686183999609,4.0,1.0,phase_1,,,,,,,,,,,,,orange,cross
0.0,3.0,0.0,0.0,2.0,2.0,562.3738010003763,4.0,1.0,phase_1,,,,,,,,,,,,,white,flipped triangle
0.0,7.0,0.0,1.0,4.0,4.0,578.9529210001092,4.0,1.0,phase_1,,,,,,,,,,,,,green,diamond
165.0,1.0,0.5,0.0,3.0,3.0,382.9670049999549,4.0,1.0,phase_1,,,,,,,,,,,,,magenta,triangle
307.0,6.0,1.0,1.0,4.0,4.0,523.1389300001865,4.0,1.0,phase_1,,,,,,,,,,,,,cyan,hexagon
161.0,5.0,0.5,1.0,2.0,2.0,559.9650780000047,4.0,1.0,phase_1,,,,,,,,,,,,,orange,cross
664.0,7.0,2.0,1.0,1.0,1.0,457.9393250000976,4.0,1.0,phase_1,,,,,,,,,,,,,green,diamond
144.0,5.0,0.5,1.0,1.0,1.0,365.6721570000627,4.0,1.0,phase_1,,,,,,,,,,,,,orange,cross
348.0,2.0,1.0,0.0,3.0,3.0,477.7501879998453,4.0,1.0,phase_1,,,,,,,,,,,,,gray,circle
0.0,6.0,0.0,1.0,2.0,2.0,506.2981830001263,4.0,1.0,phase_1,,,,,,,,,,,,,cyan,hexagon
1301.0,8.0,4.0,1.0,1.0,1.0,402.2339419998388,4.0,1.0,phase_1,,,,,,,,,,,,,blue,I
664.0,3.0,2.0,0.0,1.0,1.0,392.8745820003314,4.0,1.0,phase_1,,,,,,,,,,,,,white,flipped triangle
0.0,5.0,0.0,1.0,3.0,3.0,411.2560849998772,4.0,1.0,phase_1,,,,,,,,,,,,,orange,cross
173.0,5.0,0.5,1.0,2.0,2.0,543.4426890001305,4.0,1.0,phase_1,,,,,,,,,,,,,orange,cross
168.0,5.0,0.5,1.0,4.0,4.0,411.1987239998598,4.0,2.0,phase_1,,,,,,,,,,,,,orange,cross
139.0,5.0,0.5,1.0,3.0,3.0,421.5806150000389,4.0,1.0,phase_1,,,,,,,,,,,,,orange,cross
308.0,6.0,1.0,1.0,2.0,2.0,402.6830100001461,4.0,1.0,phase_1,,,,,,,,,,,,,cyan,hexagon
1299.0,8.0,4.0,1.0,2.0,2.0,394.2134799999621,4.0,1.0,phase_1,,,,,,,,,,,,,blue,I
0.0,3.0,0.0,0.0,2.0,2.0,429.9704830000337,4.0,1.0,phase_1,,,,,,,,,,,,,white,flipped triangle
302.0,2.0,1.0,0.0,1.0,1.0,561.1965840002995,4.0,1.0,phase_1,,,,,,,,,,,,,gray,circle
665.0,7.0,2.0,1.0,4.0,4.0,720.115258000078,4.0,1.0,phase_1,,,,,,,,,,,,,green,diamond
312.0,6.0,1.0,1.0,1.0,1.0,477.0161219998954,4.0,1.0,phase_1,,,,,,,,,,,,,cyan,hexagon
1292.0,4.0,4.0,0.0,4.0,4.0,470.9651889997985,4.0,1.0,phase_1,,,,,,,,,,,,,yellow,square
1314.0,4.0,4.0,0.0,2.0,2.0,532.4862060001578,4.0,1.0,phase_1,,,,,,,,,,,,,yellow,square
0.0,6.0,0.0,1.0,4.0,4.0,524.7383870000704,4.0,1.0,phase_1,,,,,,,,,,,,,cyan,hexagon
317.0,2.0,1.0,0.0,2.0,2.0,420.7248399998207,4.0,1.0,phase_1,,,,,,,,,,,,,gray,circle
1281.0,8.0,4.0,1.0,2.0,2.0,596.4896660002523,4.0,1.0,phase_1,,,,,,,,,,,,,blue,I
1293.0,8.0,4.0,1.0,3.0,3.0,496.5844430003017,4.0,1.0,phase_1,,,,,,,,,,,,,blue,I
672.0,7.0,2.0,1.0,4.0,4.0,580.6806619998497,4.0,1.0,phase_1,,,,,,,,,,,,,green,diamond
174.0,5.0,0.5,1.0,4.0,4.0,448.7890380000863,4.0,1.0,phase_1,,,,,,,,,,,,,orange,cross
667.0,3.0,2.0,0.0,4.0,4.0,477.3507869999775,4.0,1.0,phase_1,,,,,,,,,,,,,white,flipped triangle
673.0,7.0,2.0,1.0,2.0,2.0,496.0841470001469,4.0,1.0,phase_1,,,,,,,,,,,,,green,diamond
0.0,2.0,0.0,0.0,4.0,4.0,386.7663119999633,4.0,1.0,phase_1,,,,,,,,,,,,,gray,circle
1323.0,4.0,4.0,0.0,3.0,3.0,384.560004999912,4.0,1.0,phase_1,,,,,,,,,,,,,yellow,square
336.0,6.0,1.0,1.0,1.0,1.0,477.7981560000626,4.0,1.0,phase_1,,,,,,,,,,,,,cyan,hexagon
0.0,5.0,0.0,1.0,3.0,3.0,356.6704750001008,4.0,1.0,phase_1,,,,,,,,,,,,,orange,cross
145.0,5.0,0.5,1.0,1.0,1.0,458.0822439997973,4.0,1.0,phase_1,,,,,,,,,,,,,orange,cross
1293.0,8.0,4.0,1.0,2.0,2.0,441.4984260001802,4.0,1.0,phase_1,,,,,,,,,,,,,blue,I
0.0,8.0,0.0,1.0,2.0,2.0,440.6532489997516,4.0,1.0,phase_1,,,,,,,,,,,,,blue,I
163.0,5.0,0.5,1.0,4.0,4.0,535.3080840000075,4.0,1.0,phase_1,,,,,,,,,,,,,orange,cross
1300.0,4.0,4.0,0.0,2.0,2.0,403.1676539998443,4.0,1.0,phase_1,,,,,,,,,,,,,yellow,square
672.0,3.0,2.0,0.0,3.0,3.0,375.8114119996207,4.0,1.0,phase_1,,,,,,,,,,,,,white,flipped triangle
0.0,6.0,0.0,1.0,2.0,2.0,357.6105849997475,4.0,1.0,phase_1,,,,,,,,,,,,,cyan,hexagon
0.0,1.0,0.5,0.0,5.0,5.0,396.4222709996647,1.0,1.0,phase_2,go,250.0,250.0,1.0,,,,,,,,,magenta,triangle
0.0,3.0,2.0,0.0,5.0,5.0,356.220267000026,1.0,1.0,phase_2,go,250.0,250.0,1.0,,,,,,,,,white,flipped triangle
0.0,1.0,0.5,0.0,6.0,6.0,502.9123589997653,1.0,1.0,phase_2,go,250.0,250.0,1.0,,,,,,,,,magenta,triangle
0.0,4.0,4.0,0.0,6.0,6.0,580.204913000216,1.0,1.0,phase_2,go,250.0,250.0,1.0,,,,,,,,,yellow,square
0.0,2.0,1.0,0.0,6.0,6.0,355.8199480003168,1.0,1.0,phase_2,go,250.0,250.0,1.0,,,,,,,,,gray,circle
0.0,6.0,1.0,1.0,6.0,6.0,631.8327999997564,1.0,1.0,phase_2,stop,250.0,250.0,3.0,,,,,,,,,cyan,hexagon
0.0,8.0,4.0,1.0,6.0,0.0,0.0,1.0,1.0,phase_2,stop,250.0,200.0,4.0,,,,,,,,,blue,I
0.0,8.0,4.0,1.0,5.0,5.0,535.4858320001767,1.0,1.0,phase_2,go,250.0,250.0,1.0,,,,,,,,,blue,I
0.0,4.0,4.0,0.0,5.0,5.0,583.9284119997501,1.0,1.0,phase_2,go,250.0,250.0,1.0,,,,,,,,,yellow,square
0.0,7.0,2.0,1.0,5.0,0.0,0.0,1.0,1.0,phase_2,stop,250.0,250.0,4.0,,,,,,,,,green,diamond
0.0,1.0,0.5,0.0,6.0,6.0,732.8624899996612,1.0,1.0,phase_2,go,300.0,250.0,1.0,,,,,,,,,magenta,triangle
0.0,1.0,0.5,0.0,5.0,5.0,479.6290159997625,1.0,1.0,phase_2,go,300.0,250.0,1.0,,,,,,,,,magenta,triangle
0.0,6.0,1.0,1.0,5.0,0.0,0.0,1.0,1.0,phase_2,stop,300.0,250.0,4.0,,,,,,,,,cyan,hexagon
0.0,2.0,1.0,0.0,5.0,5.0,319.7462729999643,1.0,1.0,phase_2,go,350.0,250.0,1.0,,,,,,,,,gray,circle
0.0,1.0,0.5,0.0,5.0,5.0,685.8667840001544,1.0,1.0,phase_2,go,350.0,250.0,1.0,,,,,,,,,magenta,triangle
0.0,3.0,2.0,0.0,5.0,5.0,630.4418949998762,1.0,1.0,phase_2,go,350.0,250.0,1.0,,,,,,,,,white,flipped triangle
0.0,7.0,2.0,1.0,6.0,6.0,424.5402269998521,1.0,1.0,phase_2,go,350.0,250.0,1.0,,,,,,,,,green,diamond
0.0,8.0,4.0,1.0,6.0,0.0,0.0,1.0,1.0,phase_2,stop,350.0,250.0,4.0,,,,,,,,,blue,I
0.0,6.0,1.0,1.0,5.0,5.0,628.3135849998871,1.0,1.0,phase_2,go,350.0,300.0,1.0,,,,,,,,,cyan,hexagon
0.0,1.0,0.5,0.0,5.0,5.0,328.4484970004087,1.0,1.0,phase_2,go,350.0,300.0,1.0,,,,,,,,,magenta,triangle
0.0,2.0,1.0,0.0,6.0,6.0,393.8580670001101,1.0,1.0,phase_2,go,350.0,300.0,1.0,,,,,,,,,gray,circle
0.0,1.0,0.5,0.0,6.0,6.0,562.2951619998275,1.0,1.0,phase_2,go,350.0,300.0,1.0,,,,,,,,,magenta,triangle
0.0,4.0,4.0,0.0,6.0,6.0,664.8288910000701,1.0,1.0,phase_2,go,350.0,300.0,1.0,,,,,,,,,yellow,square
0.0,8.0,4.0,1.0,6.0,6.0,338.6943489999794,1.0,1.0,phase_2,stop,350.0,300.0,3.0,,,,,,,,,blue,I
0.0,2.0,1.0,0.0,6.0,6.0,629.3213009998908,1.0,1.0,phase_2,go,350.0,250.0,1.0,,,,,,,,,gray,circle
0.0,7.0,2.0,1.0,6.0,0.0,0.0,1.0,1.0,phase_2,stop,350.0,250.0,4.0,,,,,,,,,green,diamond
0.0,8.0,4.0,1.0,6.0,0.0,0.0,1.0,1.0,phase_2,stop,350.0,300.0,4.0,,,,,,,,,blue,I
0.0,5.0,0.5,1.0,5.0,5.0,610.1364129999638,1.0,1.0,phase_2,go,350.0,350.0,1.0,,,,,,,,,orange,cross
0.0,6.0,1.0,1.0,6.0,0.0,0.0,1.0,1.0,phase_2,stop,350.0,350.0,4.0,,,,,,,,,cyan,hexagon
0.0,7.0,2.0,1.0,5.0,5.0,391.8360229999962,1.0,1.0,phase_2,stop,350.0,400.0,3.0,,,,,,,,,green,diamond
0.0,3.0,2.0,0.0,5.0,5.0,526.5249680001034,1.0,1.0,phase_2,go,300.0,400.0,1.0,,,,,,,,,white,flipped triangle
0.0,6.0,1.0,1.0,5.0,5.0,564.5142779999333,1.0,1.0,phase_2,go,300.0,400.0,1.0,,,,,,,,,cyan,hexagon
0.0,1.0,0.5,0.0,6.0,6.0,609.1433350002262,1.0,1.0,phase_2,go,300.0,400.0,1.0,,,,,,,,,magenta,triangle
0.0,5.0,0.5,1.0,5.0,0.0,0.0,1.0,1.0,phase_2,stop,300.0,400.0,4.0,,,,,,,,,orange,cross
0.0,5.0,0.5,1.0,6.0,6.0,463.8470130003043,1.0,1.0,phase_2,stop,350.0,400.0,3.0,,,,,,,,,orange,cross
0.0,4.0,4.0,0.0,6.0,6.0,712.5200049999876,1.0,1.0,phase_2,go,350.0,350.0,1.0,,,,,,,,,yellow,square
0.0,4.0,4.0,0.0,6.0,6.0,491.7869639998571,2.0,1.0,phase_2,go,350.0,350.0,1.0,,,,,,,,,yellow,square
0.0,1.0,0.5,0.0,6.0,6.0,519.096392999927,2.0,1.0,phase_2,go,350.0,350.0,1.0,,,,,,,,,magenta,triangle
0.0,1.0,0.5,0.0,5.0,5.0,434.7254029999021,2.0,1.0,phase_2,go,350.0,350.0,1.0,,,,,,,,,magenta,triangle
0.0,6.0,1.0,1.0,6.0,6.0,386.1135480001394,2.0,1.0,phase_2,go,350.0,350.0,1.0,,,,,,,,,cyan,hexagon
0.0,3.0,2.0,0.0,5.0,5.0,396.1080569997648,2.0,1.0,phase_2,go,350.0,350.0,1.0,,,,,,,,,white,flipped triangle
0.0,5.0,0.5,1.0,5.0,5.0,466.9186779997289,2.0,1.0,phase_2,stop,350.0,350.0,3.0,,,,,,,,,orange,cross
0.0,3.0,2.0,0.0,5.0,5.0,680.4596599999968,2.0,1.0,phase_2,go,300.0,350.0,1.0,,,,,,,,,white,flipped triangle
0.0,5.0,0.5,1.0,6.0,0.0,0.0,2.0,1.0,phase_2,stop,300.0,350.0,4.0,,,,,,,,,orange,cross
0.0,2.0,1.0,0.0,6.0,6.0,696.2461429998257,2.0,1.0,phase_2,go,300.0,400.0,1.0,,,,,,,,,gray,circle
0.0,4.0,4.0,0.0,6.0,6.0,640.8023290000529,2.0,1.0,phase_2,go,300.0,400.0,1.0,,,,,,,,,yellow,square
0.0,3.0,2.0,0.0,6.0,6.0,347.8656799998134,2.0,1.0,phase_2,go,300.0,400.0,1.0,,,,,,,,,white,flipped triangle
0.0,8.0,4.0,1.0,5.0,0.0,0.0,2.0,1.0,phase_2,stop,300.0,400.0,4.0,,,,,,,,,blue,I
0.0,1.0,0.5,0.0,6.0,6.0,443.5895219999111,2.0,1.0,phase_2,go,350.0,400.0,1.0,,,,,,,,,magenta,triangle
0.0,3.0,2.0,0.0,6.0,6.0,632.1908909999365,2.0,1.0,phase_2,go,350.0,400.0,1.0,,,,,,,,,white,flipped triangle
0.0,6.0,1.0,1.0,6.0,6.0,442.4601960004111,2.0,1.0,phase_2,go,350.0,400.0,1.0,,,,,,,,,cyan,hexagon
0.0,6.0,1.0,1.0,6.0,0.0,0.0,2.0,1.0,phase_2,stop,350.0,400.0,4.0,,,,,,,,,cyan,hexagon
0.0,3.0,2.0,0.0,5.0,5.0,705.5160429999887,2.0,1.0,phase_2,go,350.0,450.0,1.0,,,,,,,,,white,flipped triangle
0.0,8.0,4.0,1.0,6.0,6.0,414.4948389998717,2.0,1.0,phase_2,stop,350.0,450.0,3.0,,,,,,,,,blue,I
0.0,5.0,0.5,1.0,6.0,6.0,577.9124699997737,2.0,1.0,phase_2,stop,350.0,400.0,3.0,,,,,,,,,orange,cross
0.0,7.0,2.0,1.0,5.0,5.0,574.9365420001595,2.0,1.0,phase_2,go,350.0,350.0,1.0,,,,,,,,,green,diamond
0.0,1.0,0.5,0.0,5.0,5.0,518.0880819998492,2.0,1.0,phase_2,go,350.0,350.0,1.0,,,,,,,,,magenta,triangle
0.0,5.0,0.5,1.0,5.0,0.0,0.0,2.0,1.0,phase_2,stop,350.0,350.0,4.0,,,,,,,,,orange,cross
0.0,4.0,4.0,0.0,6.0,6.0,629.3002780003008,2.0,1.0,phase_2,go,400.0,350.0,1.0,,,,,,,,,yellow,square
0.0,6.0,1.0,1.0,6.0,6.0,533.9052600002105,2.0,1.0,phase_2,stop,400.0,350.0,3.0,,,,,,,,,cyan,hexagon
0.0,8.0,4.0,1.0,5.0,0.0,0.0,2.0,1.0,phase_2,stop,400.0,300.0,4.0,,,,,,,,,blue,I
0.0,4.0,4.0,0.0,5.0,5.0,650.533729000017,2.0,1.0,phase_2,go,450.0,300.0,1.0,,,,,,,,,yellow,square
0.0,7.0,2.0,1.0,6.0,0.0,0.0,2.0,1.0,phase_2,stop,450.0,300.0,4.0,,,,,,,,,green,diamond
0.0,3.0,2.0,0.0,6.0,6.0,630.353436000405,2.0,1.0,phase_2,go,450.0,350.0,1.0,,,,,,,,,white,flipped triangle
0.0,4.0,4.0,0.0,5.0,5.0,723.878668999987,2.0,1.0,phase_2,go,450.0,350.0,1.0,,,,,,,,,yellow,square
0.0,6.0,1.0,1.0,6.0,0.0,0.0,2.0,1.0,phase_2,stop,450.0,350.0,4.0,,,,,,,,,cyan,hexagon
0.0,6.0,1.0,1.0,5.0,0.0,0.0,2.0,1.0,phase_2,stop,450.0,400.0,4.0,,,,,,,,,cyan,hexagon
0.0,1.0,0.5,0.0,6.0,6.0,677.2860450000735,2.0,1.0,phase_2,go,500.0,400.0,1.0,,,,,,,,,magenta,triangle
0.0,3.0,2.0,0.0,6.0,6.0,742.8071690001161,2.0,1.0,phase_2,go,500.0,400.0,1.0,,,,,,,,,white,flipped triangle
0.0,4.0,4.0,0.0,6.0,6.0,592.6416940001218,2.0,1.0,phase_2,go,500.0,400.0,1.0,,,,,,,,,yellow,square
0.0,8.0,4.0,1.0,5.0,5.0,550.2397230002316,2.0,1.0,phase_2,stop,500.0,400.0,3.0,,,,,,,,,blue,I
0.0,4.0,4.0,0.0,5.0,5.0,800.3534029999173,2.0,1.0,phase_2,go,450.0,400.0,1.0,,,,,,,,,yellow,square
0.0,8.0,4.0,1.0,5.0,5.0,483.590581000044,3.0,1.0,phase_2,stop,450.0,400.0,3.0,,,,,,,,,blue,I
0.0,3.0,2.0,0.0,6.0,6.0,715.0964289999138,3.0,1.0,phase_2,go,400.0,400.0,1.0,,,,,,,,,white,flipped triangle
0.0,7.0,2.0,1.0,5.0,0.0,0.0,3.0,1.0,phase_2,stop,400.0,400.0,4.0,,,,,,,,,green,diamond
0.0,7.0,2.0,1.0,5.0,5.0,676.605722000204,3.0,1.0,phase_2,go,450.0,400.0,1.0,,,,,,,,,green,diamond
0.0,1.0,0.5,0.0,6.0,6.0,649.4906900002206,3.0,1.0,phase_2,go,450.0,400.0,1.0,,,,,,,,,magenta,triangle
0.0,7.0,2.0,1.0,5.0,0.0,0.0,3.0,1.0,phase_2,stop,450.0,400.0,4.0,,,,,,,,,green,diamond
0.0,8.0,4.0,1.0,5.0,0.0,0.0,3.0,1.0,phase_2,stop,500.0,400.0,4.0,,,,,,,,,blue,I
0.0,1.0,0.5,0.0,6.0,6.0,479.6560710001358,3.0,1.0,phase_2,go,550.0,400.0,1.0,,,,,,,,,magenta,triangle
0.0,3.0,2.0,0.0,5.0,5.0,696.132599000066,3.0,1.0,phase_2,go,550.0,400.0,1.0,,,,,,,,,white,flipped triangle
0.0,2.0,1.0,0.0,6.0,6.0,724.0131110002039,3.0,1.0,phase_2,go,550.0,400.0,1.0,,,,,,,,,gray,circle
0.0,4.0,4.0,0.0,5.0,5.0,696.4417389999653,3.0,1.0,phase_2,go,550.0,400.0,1.0,,,,,,,,,yellow,square
0.0,3.0,2.0,0.0,5.0,5.0,601.9918540000617,3.0,1.0,phase_2,go,550.0,400.0,1.0,,,,,,,,,white,flipped triangle
0.0,5.0,0.5,1.0,6.0,6.0,572.8782000001047,3.0,1.0,phase_2,stop,550.0,400.0,3.0,,,,,,,,,orange,cross
0.0,5.0,0.5,1.0,6.0,6.0,754.5786179998686,3.0,1.0,phase_2,go,550.0,350.0,1.0,,,,,,,,,orange,cross
0.0,6.0,1.0,1.0,5.0,0.0,0.0,3.0,1.0,phase_2,stop,550.0,350.0,4.0,,,,,,,,,cyan,hexagon
0.0,5.0,0.5,1.0,6.0,0.0,0.0,3.0,1.0,phase_2,stop,600.0,350.0,4.0,,,,,,,,,orange,cross
0.0,7.0,2.0,1.0,6.0,6.0,573.4751209997739,3.0,1.0,phase_2,go,600.0,400.0,1.0,,,,,,,,,green,diamond
0.0,7.0,2.0,1.0,6.0,0.0,0.0,3.0,1.0,phase_2,stop,600.0,400.0,4.0,,,,,,,,,green,diamond
0.0,3.0,2.0,0.0,6.0,6.0,957.6196170000912,3.0,1.0,phase_2,go,600.0,450.0,1.0,,,,,,,,,white,flipped triangle
0.0,7.0,2.0,1.0,6.0,0.0,0.0,3.0,1.0,phase_2,stop,600.0,450.0,4.0,,,,,,,,,green,diamond
0.0,1.0,0.5,0.0,5.0,5.0,802.5277030001234,3.0,1.0,phase_2,go,600.0,500.0,1.0,,,,,,,,,magenta,triangle
0.0,8.0,4.0,1.0,5.0,5.0,645.3750539999419,3.0,1.0,phase_2,stop,600.0,500.0,3.0,,,,,,,,,blue,I
0.0,7.0,2.0,1.0,5.0,5.0,688.5076730000037,3.0,1.0,phase_2,stop,550.0,500.0,3.0,,,,,,,,,green,diamond
0.0,1.0,0.5,0.0,5.0,5.0,773.7557829996149,3.0,1.0,phase_2,go,500.0,500.0,1.0,,,,,,,,,magenta,triangle
0.0,7.0,2.0,1.0,6.0,0.0,0.0,3.0,1.0,phase_2,stop,500.0,500.0,4.0,,,,,,,,,green,diamond
0.0,3.0,2.0,0.0,5.0,5.0,849.4265280000945,3.0,1.0,phase_2,go,500.0,550.0,1.0,,,,,,,,,white,flipped triangle
0.0,4.0,4.0,0.0,5.0,5.0,838.5591270002806,3.0,1.0,phase_2,go,500.0,550.0,1.0,,,,,,,,,yellow,square
0.0,8.0,4.0,1.0,5.0,0.0,0.0,3.0,1.0,phase_2,stop,500.0,550.0,4.0,,,,,,,,,blue,I
0.0,3.0,2.0,0.0,6.0,6.0,838.5229470000013,3.0,1.0,phase_2,go,550.0,550.0,1.0,,,,,,,,,white,flipped triangle
0.0,7.0,2.0,1.0,5.0,0.0,0.0,3.0,1.0,phase_2,stop,550.0,550.0,4.0,,,,,,,,,green,diamond
0.0,5.0,0.5,1.0,6.0,6.0,717.1654809999382,3.0,1.0,phase_2,stop,600.0,550.0,3.0,,,,,,,,,orange,cross
0.0,3.0,2.0,0.0,6.0,6.0,960.8096290003232,3.0,1.0,phase_2,go,600.0,500.0,1.0,,,,,,,,,white,flipped triangle
0.0,4.0,4.0,0.0,6.0,6.0,742.9598139997324,3.0,1.0,phase_2,go,600.0,500.0,1.0,,,,,,,,,yellow,square
0.0,2.0,1.0,0.0,6.0,6.0,574.276314999679,3.0,1.0,phase_2,go,600.0,500.0,1.0,,,,,,,,,gray,circle
0.0,8.0,4.0,1.0,6.0,0.0,0.0,3.0,1.0,phase_2,stop,600.0,500.0,4.0,,,,,,,,,blue,I
0.0,4.0,4.0,0.0,6.0,6.0,902.146583999638,3.0,1.0,phase_2,go,600.0,550.0,1.0,,,,,,,,,yellow,square
0.0,2.0,1.0,0.0,6.0,6.0,498.5983780002243,4.0,1.0,phase_2,go,600.0,550.0,1.0,,,,,,,,,gray,circle
0.0,8.0,4.0,1.0,5.0,5.0,413.161320999734,4.0,1.0,phase_2,stop,600.0,550.0,3.0,,,,,,,,,blue,I
0.0,6.0,1.0,1.0,5.0,5.0,422.855692000212,4.0,1.0,phase_2,stop,550.0,550.0,3.0,,,,,,,,,cyan,hexagon
0.0,8.0,4.0,1.0,5.0,5.0,356.0864450000736,4.0,1.0,phase_2,stop,500.0,550.0,3.0,,,,,,,,,blue,I
0.0,1.0,0.5,0.0,6.0,6.0,488.0401230002462,4.0,1.0,phase_2,go,450.0,550.0,1.0,,,,,,,,,magenta,triangle
0.0,4.0,4.0,0.0,6.0,6.0,675.2765369997178,4.0,1.0,phase_2,go,450.0,550.0,1.0,,,,,,,,,yellow,square
0.0,2.0,1.0,0.0,6.0,6.0,600.8552449998206,4.0,1.0,phase_2,go,450.0,550.0,1.0,,,,,,,,,gray,circle
0.0,1.0,0.5,0.0,6.0,6.0,581.842456999766,4.0,1.0,phase_2,go,450.0,550.0,1.0,,,,,,,,,magenta,triangle
0.0,2.0,1.0,0.0,5.0,5.0,564.4042949998038,4.0,1.0,phase_2,go,450.0,550.0,1.0,,,,,,,,,gray,circle
0.0,4.0,4.0,0.0,5.0,5.0,619.7664320002332,4.0,1.0,phase_2,go,450.0,550.0,1.0,,,,,,,,,yellow,square
0.0,3.0,2.0,0.0,6.0,6.0,675.555026999973,4.0,1.0,phase_2,go,450.0,550.0,1.0,,,,,,,,,white,flipped triangle
0.0,1.0,0.5,0.0,6.0,6.0,619.3836749998809,4.0,1.0,phase_2,go,450.0,550.0,1.0,,,,,,,,,magenta,triangle
0.0,7.0,2.0,1.0,6.0,6.0,524.5711329998812,4.0,1.0,phase_2,stop,450.0,550.0,3.0,,,,,,,,,green,diamond
0.0,2.0,1.0,0.0,5.0,5.0,778.4816450002836,4.0,1.0,phase_2,go,450.0,500.0,1.0,,,,,,,,,gray,circle
0.0,3.0,2.0,0.0,5.0,5.0,657.5319070002479,4.0,1.0,phase_2,go,450.0,500.0,1.0,,,,,,,,,white,flipped triangle
0.0,6.0,1.0,1.0,6.0,6.0,310.8341590000236,4.0,1.0,phase_2,stop,450.0,500.0,3.0,,,,,,,,,cyan,hexagon
0.0,1.0,0.5,0.0,6.0,6.0,600.6058200000552,4.0,1.0,phase_2,go,450.0,450.0,1.0,,,,,,,,,magenta,triangle
0.0,6.0,1.0,1.0,6.0,0.0,0.0,4.0,1.0,phase_2,stop,450.0,450.0,4.0,,,,,,,,,cyan,hexagon
0.0,8.0,4.0,1.0,5.0,5.0,638.8029800000368,4.0,1.0,phase_2,go,450.0,500.0,1.0,,,,,,,,,blue,I
0.0,7.0,2.0,1.0,6.0,6.0,357.3230309998507,4.0,1.0,phase_2,stop,450.0,500.0,3.0,,,,,,,,,green,diamond
0.0,5.0,0.5,1.0,6.0,0.0,0.0,4.0,1.0,phase_2,stop,450.0,450.0,4.0,,,,,,,,,orange,cross
0.0,3.0,2.0,0.0,6.0,6.0,395.1867549999406,4.0,1.0,phase_2,go,450.0,500.0,1.0,,,,,,,,,white,flipped triangle
0.0,8.0,4.0,1.0,6.0,6.0,347.6992989999417,4.0,1.0,phase_2,go,450.0,500.0,1.0,,,,,,,,,blue,I
0.0,6.0,1.0,1.0,6.0,6.0,657.4382209996656,4.0,1.0,phase_2,go,450.0,500.0,1.0,,,,,,,,,cyan,hexagon
0.0,7.0,2.0,1.0,5.0,5.0,386.2748470000952,4.0,1.0,phase_2,stop,450.0,500.0,3.0,,,,,,,,,green,diamond
0.0,6.0,1.0,1.0,6.0,0.0,0.0,4.0,1.0,phase_2,stop,400.0,500.0,4.0,,,,,,,,,cyan,hexagon
0.0,1.0,0.5,0.0,5.0,5.0,611.2975790001656,4.0,1.0,phase_2,go,400.0,550.0,1.0,,,,,,,,,magenta,triangle
0.0,4.0,4.0,0.0,6.0,6.0,825.2094849999594,4.0,1.0,phase_2,go,400.0,550.0,1.0,,,,,,,,,yellow,square
0.0,2.0,1.0,0.0,5.0,5.0,632.3422300001766,4.0,1.0,phase_2,go,400.0,550.0,1.0,,,,,,,,,gray,circle
0.0,1.0,0.5,0.0,6.0,6.0,733.6800210000547,4.0,1.0,phase_2,go,400.0,550.0,1.0,,,,,,,,,magenta,triangle
0.0,3.0,2.0,0.0,6.0,6.0,609.3684630000098,4.0,1.0,phase_2,go,400.0,550.0,1.0,,,,,,,,,white,flipped triangle
0.0,3.0,2.0,0.0,5.0,5.0,750.3974809997089,4.0,1.0,phase_2,go,400.0,550.0,1.0,,,,,,,,,white,flipped triangle
0.0,7.0,2.0,1.0,6.0,6.0,671.5608780000366,4.0,1.0,phase_2,go,400.0,550.0,1.0,,,,,,,,,green,diamond
0.0,6.0,1.0,1.0,6.0,6.0,529.9909650002519,4.0,1.0,phase_2,stop,400.0,550.0,3.0,,,,,,,,,cyan,hexagon
0.0,2.0,1.0,0.0,5.0,5.0,875.3665890003504,4.0,1.0,phase_2,go,400.0,500.0,1.0,,,,,,,,,gray,circle
0.0,8.0,4.0,1.0,6.0,6.0,462.2227869999733,4.0,1.0,phase_2,go,400.0,500.0,1.0,,,,,,,,,blue,I
0.0,6.0,1.0,1.0,5.0,5.0,607.1205570001439,5.0,1.0,phase_2,stop,400.0,500.0,3.0,,,,,,,,,cyan,hexagon
0.0,5.0,0.5,1.0,6.0,6.0,405.1943129998108,5.0,1.0,phase_2,stop,350.0,500.0,3.0,,,,,,,,,orange,cross
0.0,2.0,1.0,0.0,6.0,6.0,583.6748249998891,5.0,1.0,phase_2,go,350.0,450.0,1.0,,,,,,,,,gray,circle
0.0,4.0,4.0,0.0,6.0,6.0,582.537646000219,5.0,1.0,phase_2,go,350.0,450.0,1.0,,,,,,,,,yellow,square
0.0,5.0,0.5,1.0,6.0,6.0,337.9046330001074,5.0,1.0,phase_2,go,350.0,450.0,1.0,,,,,,,,,orange,cross
0.0,8.0,4.0,1.0,5.0,0.0,0.0,5.0,1.0,phase_2,stop,350.0,450.0,4.0,,,,,,,,,blue,I
0.0,7.0,2.0,1.0,6.0,6.0,592.8755869999804,5.0,1.0,phase_2,stop,400.0,450.0,3.0,,,,,,,,,green,diamond
0.0,5.0,0.5,1.0,5.0,5.0,798.8867550002396,5.0,1.0,phase_2,go,400.0,400.0,1.0,,,,,,,,,orange,cross
0.0,1.0,0.5,0.0,6.0,6.0,601.962225999614,5.0,1.0,phase_2,go,400.0,400.0,1.0,,,,,,,,,magenta,triangle
0.0,5.0,0.5,1.0,5.0,0.0,0.0,5.0,1.0,phase_2,stop,400.0,400.0,4.0,,,,,,,,,orange,cross
0.0,2.0,1.0,0.0,5.0,5.0,583.2508160001453,5.0,1.0,phase_2,go,450.0,400.0,1.0,,,,,,,,,gray,circle
0.0,7.0,2.0,1.0,5.0,5.0,592.5385890000143,5.0,1.0,phase_2,go,450.0,400.0,1.0,,,,,,,,,green,diamond
0.0,6.0,1.0,1.0,6.0,6.0,638.0518730002223,5.0,1.0,phase_2,go,450.0,400.0,1.0,,,,,,,,,cyan,hexagon
0.0,5.0,0.5,1.0,6.0,0.0,0.0,5.0,1.0,phase_2,stop,450.0,400.0,4.0,,,,,,,,,orange,cross
0.0,4.0,4.0,0.0,6.0,6.0,622.2096839996993,5.0,1.0,phase_2,go,450.0,450.0,1.0,,,,,,,,,yellow,square
0.0,4.0,4.0,0.0,5.0,5.0,507.4484679998932,5.0,1.0,phase_2,go,450.0,450.0,1.0,,,,,,,,,yellow,square
0.0,8.0,4.0,1.0,6.0,6.0,723.5322890001044,5.0,1.0,phase_2,go,450.0,450.0,1.0,,,,,,,,,blue,I
0.0,6.0,1.0,1.0,6.0,6.0,574.7827250002047,5.0,1.0,phase_2,stop,450.0,450.0,3.0,,,,,,,,,cyan,hexagon
0.0,2.0,1.0,0.0,5.0,5.0,864.1350480002075,5.0,1.0,phase_2,go,450.0,400.0,1.0,,,,,,,,,gray,circle
0.0,2.0,1.0,0.0,5.0,5.0,337.9358520001005,5.0,1.0,phase_2,go,450.0,400.0,1.0,,,,,,,,,gray,circle
0.0,7.0,2.0,1.0,5.0,5.0,548.5957539999617,5.0,1.0,phase_2,stop,450.0,400.0,3.0,,,,,,,,,green,diamond
0.0,2.0,1.0,0.0,6.0,6.0,544.9712380000165,5.0,1.0,phase_2,go,400.0,400.0,1.0,,,,,,,,,gray,circle
0.0,2.0,1.0,0.0,5.0,5.0,593.5016439998435,5.0,1.0,phase_2,go,400.0,400.0,1.0,,,,,,,,,gray,circle
0.0,8.0,4.0,1.0,5.0,5.0,656.1497409998083,5.0,1.0,phase_2,go,400.0,400.0,1.0,,,,,,,,,blue,I
0.0,2.0,1.0,0.0,5.0,5.0,648.5126839997974,5.0,1.0,phase_2,go,400.0,400.0,1.0,,,,,,,,,gray,circle
0.0,8.0,4.0,1.0,6.0,0.0,0.0,5.0,1.0,phase_2,stop,400.0,400.0,4.0,,,,,,,,,blue,I
0.0,5.0,0.5,1.0,5.0,5.0,742.8036119999888,5.0,1.0,phase_2,go,400.0,450.0,1.0,,,,,,,,,orange,cross
0.0,3.0,2.0,0.0,6.0,6.0,685.922464000214,5.0,1.0,phase_2,go,400.0,450.0,1.0,,,,,,,,,white,flipped triangle
0.0,7.0,2.0,1.0,6.0,0.0,0.0,5.0,1.0,phase_2,stop,400.0,450.0,4.0,,,,,,,,,green,diamond
0.0,3.0,2.0,0.0,5.0,5.0,658.3370499997727,5.0,1.0,phase_2,go,400.0,500.0,1.0,,,,,,,,,white,flipped triangle
0.0,5.0,0.5,1.0,5.0,5.0,629.062255000008,5.0,1.0,phase_2,go,400.0,500.0,1.0,,,,,,,,,orange,cross
0.0,6.0,1.0,1.0,5.0,0.0,0.0,5.0,1.0,phase_2,stop,400.0,500.0,4.0,,,,,,,,,cyan,hexagon
0.0,7.0,2.0,1.0,6.0,6.0,674.0073870000742,5.0,1.0,phase_2,stop,450.0,500.0,3.0,,,,,,,,,green,diamond
0.0,2.0,1.0,0.0,6.0,6.0,636.8966420000106,5.0,1.0,phase_2,go,450.0,450.0,1.0,,,,,,,,,gray,circle
0.0,7.0,2.0,1.0,5.0,0.0,0.0,5.0,1.0,phase_2,stop,450.0,450.0,4.0,,,,,,,,,green,diamond
0.0,1.0,0.5,0.0,5.0,5.0,554.9951730004068,5.0,1.0,phase_2,go,500.0,450.0,1.0,,,,,,,,,magenta,triangle
0.0,5.0,0.5,1.0,6.0,6.0,405.2953089999391,6.0,1.0,phase_2,stop,500.0,450.0,3.0,,,,,,,,,orange,cross
0.0,6.0,1.0,1.0,6.0,6.0,722.2049549995972,6.0,1.0,phase_2,go,500.0,400.0,1.0,,,,,,,,,cyan,hexagon
0.0,5.0,0.5,1.0,5.0,5.0,449.7215599999435,6.0,1.0,phase_2,stop,500.0,400.0,3.0,,,,,,,,,orange,cross
0.0,2.0,1.0,0.0,5.0,5.0,527.4918879999859,6.0,1.0,phase_2,go,450.0,400.0,1.0,,,,,,,,,gray,circle
0.0,8.0,4.0,1.0,6.0,0.0,0.0,6.0,1.0,phase_2,stop,450.0,400.0,4.0,,,,,,,,,blue,I
0.0,8.0,4.0,1.0,6.0,6.0,600.6949100001293,6.0,1.0,phase_2,stop,450.0,450.0,3.0,,,,,,,,,blue,I
0.0,5.0,0.5,1.0,5.0,0.0,0.0,6.0,1.0,phase_2,stop,450.0,400.0,4.0,,,,,,,,,orange,cross
0.0,6.0,1.0,1.0,5.0,5.0,517.9579759997068,6.0,1.0,phase_2,go,500.0,400.0,1.0,,,,,,,,,cyan,hexagon
0.0,6.0,1.0,1.0,5.0,5.0,669.5901819998653,6.0,1.0,phase_2,stop,500.0,400.0,3.0,,,,,,,,,cyan,hexagon
0.0,5.0,0.5,1.0,6.0,0.0,0.0,6.0,1.0,phase_2,stop,450.0,400.0,4.0,,,,,,,,,orange,cross
0.0,8.0,4.0,1.0,5.0,0.0,0.0,6.0,1.0,phase_2,stop,450.0,450.0,4.0,,,,,,,,,blue,I
0.0,2.0,1.0,0.0,5.0,5.0,648.634127999685,6.0,1.0,phase_2,go,500.0,450.0,1.0,,,,,,,,,gray,circle
0.0,1.0,0.5,0.0,5.0,5.0,733.1117789999553,6.0,1.0,phase_2,go,500.0,450.0,1.0,,,,,,,,,magenta,triangle
0.0,3.0,2.0,0.0,6.0,6.0,769.8494010001014,6.0,1.0,phase_2,go,500.0,450.0,1.0,,,,,,,,,white,flipped triangle
0.0,2.0,1.0,0.0,6.0,6.0,639.1565029998674,6.0,1.0,phase_2,go,500.0,450.0,1.0,,,,,,,,,gray,circle
0.0,4.0,4.0,0.0,5.0,5.0,554.631567999877,6.0,1.0,phase_2,go,500.0,450.0,1.0,,,,,,,,,yellow,square
0.0,3.0,2.0,0.0,6.0,6.0,583.5192670001561,6.0,1.0,phase_2,go,500.0,450.0,1.0,,,,,,,,,white,flipped triangle
0.0,4.0,4.0,0.0,5.0,5.0,619.8834720003106,6.0,1.0,phase_2,go,500.0,450.0,1.0,,,,,,,,,yellow,square
0.0,3.0,2.0,0.0,5.0,5.0,582.989600000019,6.0,1.0,phase_2,go,500.0,450.0,1.0,,,,,,,,,white,flipped triangle
0.0,7.0,2.0,1.0,6.0,0.0,0.0,6.0,1.0,phase_2,stop,500.0,450.0,4.0,,,,,,,,,green,diamond
0.0,3.0,2.0,0.0,5.0,5.0,759.9959190001755,6.0,1.0,phase_2,go,500.0,500.0,1.0,,,,,,,,,white,flipped triangle
0.0,4.0,4.0,0.0,5.0,5.0,629.9533020001036,6.0,1.0,phase_2,go,500.0,500.0,1.0,,,,,,,,,yellow,square
0.0,2.0,1.0,0.0,6.0,6.0,686.9920299996011,6.0,1.0,phase_2,go,500.0,500.0,1.0,,,,,,,,,gray,circle
0.0,6.0,1.0,1.0,5.0,5.0,367.4489360000734,6.0,1.0,phase_2,stop,500.0,500.0,3.0,,,,,,,,,cyan,hexagon
0.0,3.0,2.0,0.0,6.0,6.0,808.018949000143,6.0,1.0,phase_2,go,450.0,500.0,1.0,,,,,,,,,white,flipped triangle
0.0,5.0,0.5,1.0,5.0,0.0,0.0,6.0,1.0,phase_2,stop,450.0,500.0,4.0,,,,,,,,,orange,cross
0.0,2.0,1.0,0.0,5.0,5.0,770.7995259997915,6.0,1.0,phase_2,go,500.0,500.0,1.0,,,,,,,,,gray,circle
0.0,4.0,4.0,0.0,6.0,6.0,620.0935100000606,6.0,1.0,phase_2,go,500.0,500.0,1.0,,,,,,,,,yellow,square
0.0,6.0,1.0,1.0,5.0,5.0,641.1709680000968,6.0,1.0,phase_2,go,500.0,500.0,1.0,,,,,,,,,cyan,hexagon
0.0,1.0,0.5,0.0,6.0,6.0,639.3450069999744,6.0,1.0,phase_2,go,500.0,500.0,1.0,,,,,,,,,magenta,triangle
0.0,5.0,0.5,1.0,5.0,5.0,687.4972719997459,6.0,1.0,phase_2,stop,500.0,500.0,3.0,,,,,,,,,orange,cross
0.0,6.0,1.0,1.0,6.0,0.0,0.0,6.0,1.0,phase_2,stop,450.0,500.0,4.0,,,,,,,,,cyan,hexagon
0.0,8.0,4.0,1.0,6.0,6.0,757.3280890001115,6.0,1.0,phase_2,stop,450.0,550.0,3.0,,,,,,,,,blue,I
0.0,1.0,0.5,0.0,5.0,5.0,603.3660649995909,6.0,1.0,phase_2,go,450.0,500.0,1.0,,,,,,,,,magenta,triangle
0.0,8.0,4.0,1.0,5.0,0.0,0.0,6.0,1.0,phase_2,stop,450.0,500.0,4.0,,,,,,,,,blue,I
0.0,2.0,1.0,0.0,6.0,6.0,855.2478000001429,6.0,1.0,phase_2,go,500.0,500.0,1.0,,,,,,,,,gray,circle
0.0,4.0,4.0,0.0,5.0,5.0,656.8741139999474,7.0,1.0,phase_2,go,500.0,500.0,1.0,,,,,,,,,yellow,square
0.0,5.0,0.5,1.0,5.0,0.0,0.0,7.0,1.0,phase_2,stop,500.0,500.0,4.0,,,,,,,,,orange,cross
0.0,1.0,0.5,0.0,5.0,5.0,628.7822960002813,7.0,1.0,phase_2,go,550.0,500.0,1.0,,,,,,,,,magenta,triangle
0.0,2.0,1.0,0.0,5.0,5.0,572.413348000282,7.0,1.0,phase_2,go,550.0,500.0,1.0,,,,,,,,,gray,circle
0.0,7.0,2.0,1.0,5.0,5.0,582.3258640002678,7.0,1.0,phase_2,go,550.0,500.0,1.0,,,,,,,,,green,diamond
0.0,3.0,2.0,0.0,6.0,6.0,423.0891900001552,7.0,1.0,phase_2,go,550.0,500.0,1.0,,,,,,,,,white,flipped triangle
0.0,8.0,4.0,1.0,6.0,6.0,574.9526839999817,7.0,1.0,phase_2,go,550.0,500.0,1.0,,,,,,,,,blue,I
0.0,4.0,4.0,0.0,5.0,5.0,638.4088519998841,7.0,1.0,phase_2,go,550.0,500.0,1.0,,,,,,,,,yellow,square
0.0,3.0,2.0,0.0,6.0,6.0,675.8420570004091,7.0,1.0,phase_2,go,550.0,500.0,1.0,,,,,,,,,white,flipped triangle
0.0,7.0,2.0,1.0,6.0,6.0,487.5462820000393,7.0,1.0,phase_2,stop,550.0,500.0,3.0,,,,,,,,,green,diamond
0.0,8.0,4.0,1.0,6.0,0.0,0.0,7.0,1.0,phase_2,stop,550.0,450.0,4.0,,,,,,,,,blue,I
0.0,4.0,4.0,0.0,5.0,5.0,637.8410080001231,7.0,1.0,phase_2,go,550.0,500.0,1.0,,,,,,,,,yellow,square
0.0,6.0,1.0,1.0,5.0,0.0,0.0,7.0,1.0,phase_2,stop,550.0,500.0,4.0,,,,,,,,,cyan,hexagon
0.0,2.0,1.0,0.0,5.0,5.0,628.8830180001241,7.0,1.0,phase_2,go,600.0,500.0,1.0,,,,,,,,,gray,circle
0.0,1.0,0.5,0.0,5.0,5.0,751.0736119998,7.0,1.0,phase_2,go,600.0,500.0,1.0,,,,,,,,,magenta,triangle
0.0,7.0,2.0,1.0,6.0,6.0,699.6530249998614,7.0,1.0,phase_2,stop,600.0,500.0,3.0,,,,,,,,,green,diamond
0.0,3.0,2.0,0.0,5.0,5.0,734.1122000002542,7.0,1.0,phase_2,go,600.0,450.0,1.0,,,,,,,,,white,flipped triangle
0.0,2.0,1.0,0.0,6.0,6.0,656.4158020000832,7.0,1.0,phase_2,go,600.0,450.0,1.0,,,,,,,,,gray,circle
0.0,5.0,0.5,1.0,5.0,5.0,720.2621010001167,7.0,1.0,phase_2,stop,600.0,450.0,3.0,,,,,,,,,orange,cross
0.0,5.0,0.5,1.0,6.0,0.0,0.0,7.0,1.0,phase_2,stop,550.0,450.0,4.0,,,,,,,,,orange,cross
0.0,4.0,4.0,0.0,5.0,5.0,768.6844780000683,7.0,1.0,phase_2,go,550.0,500.0,1.0,,,,,,,,,yellow,square
0.0,7.0,2.0,1.0,5.0,0.0,0.0,7.0,1.0,phase_2,stop,550.0,500.0,4.0,,,,,,,,,green,diamond
0.0,8.0,4.0,1.0,6.0,6.0,626.6742620000514,7.0,1.0,phase_2,stop,600.0,500.0,3.0,,,,,,,,,blue,I
0.0,5.0,0.5,1.0,5.0,5.0,821.3184940000247,7.0,1.0,phase_2,stop,600.0,450.0,3.0,,,,,,,,,orange,cross
0.0,2.0,1.0,0.0,5.0,5.0,874.9059059996398,7.0,1.0,phase_2,go,550.0,450.0,1.0,,,,,,,,,gray,circle
0.0,1.0,0.5,0.0,6.0,6.0,1006.3210060002348,7.0,1.0,phase_2,go,550.0,450.0,1.0,,,,,,,,,magenta,triangle
0.0,7.0,2.0,1.0,5.0,5.0,714.5357599997624,7.0,1.0,phase_2,stop,550.0,450.0,3.0,,,,,,,,,green,diamond
0.0,4.0,4.0,0.0,6.0,6.0,854.6628210001472,7.0,1.0,phase_2,go,500.0,450.0,1.0,,,,,,,,,yellow,square
0.0,3.0,2.0,0.0,5.0,5.0,772.1648250003454,7.0,1.0,phase_2,go,500.0,450.0,1.0,,,,,,,,,white,flipped triangle
0.0,5.0,0.5,1.0,5.0,0.0,0.0,7.0,1.0,phase_2,stop,500.0,450.0,4.0,,,,,,,,,orange,cross
0.0,1.0,0.5,0.0,6.0,6.0,806.944478999867,7.0,1.0,phase_2,go,550.0,450.0,1.0,,,,,,,,,magenta,triangle
0.0,8.0,4.0,1.0,6.0,6.0,901.9371320000572,7.0,1.0,phase_2,go,550.0,450.0,1.0,,,,,,,,,blue,I
0.0,7.0,2.0,1.0,5.0,5.0,685.3305260001434,7.0,1.0,phase_2,go,550.0,450.0,1.0,,,,,,,,,green,diamond
0.0,1.0,0.5,0.0,5.0,5.0,460.9862780002913,7.0,1.0,phase_2,go,550.0,450.0,1.0,,,,,,,,,magenta,triangle
0.0,4.0,4.0,0.0,5.0,5.0,733.0370929998935,7.0,1.0,phase_2,go,550.0,450.0,1.0,,,,,,,,,yellow,square
0.0,6.0,1.0,1.0,6.0,6.0,653.128168999956,7.0,1.0,phase_2,stop,550.0,450.0,3.0,,,,,,,,,cyan,hexagon
0.0,4.0,4.0,0.0,6.0,6.0,507.16065799997523,8.0,1.0,phase_2,go,550.0,400.0,1.0,,,,,,,,,yellow,square
0.0,7.0,2.0,1.0,6.0,6.0,446.9871470000726,8.0,1.0,phase_2,stop,550.0,400.0,3.0,,,,,,,,,green,diamond
0.0,4.0,4.0,0.0,6.0,6.0,648.2034149998981,8.0,1.0,phase_2,go,550.0,350.0,1.0,,,,,,,,,yellow,square
0.0,4.0,4.0,0.0,5.0,5.0,704.2851930000325,8.0,1.0,phase_2,go,550.0,350.0,1.0,,,,,,,,,yellow,square
0.0,6.0,1.0,1.0,5.0,5.0,357.9946849999942,8.0,1.0,phase_2,stop,550.0,350.0,3.0,,,,,,,,,cyan,hexagon
0.0,5.0,0.5,1.0,5.0,5.0,552.0380470002237,8.0,1.0,phase_2,stop,500.0,350.0,3.0,,,,,,,,,orange,cross
0.0,4.0,4.0,0.0,5.0,5.0,870.9912869999243,8.0,1.0,phase_2,go,450.0,350.0,1.0,,,,,,,,,yellow,square
0.0,7.0,2.0,1.0,6.0,0.0,0.0,8.0,1.0,phase_2,stop,450.0,350.0,4.0,,,,,,,,,green,diamond
0.0,2.0,1.0,0.0,6.0,6.0,741.3796349997028,8.0,1.0,phase_2,go,450.0,400.0,1.0,,,,,,,,,gray,circle
0.0,8.0,4.0,1.0,5.0,0.0,0.0,8.0,1.0,phase_2,stop,450.0,400.0,4.0,,,,,,,,,blue,I
0.0,4.0,4.0,0.0,6.0,6.0,656.1779260000549,8.0,1.0,phase_2,go,500.0,400.0,1.0,,,,,,,,,yellow,square
0.0,2.0,1.0,0.0,6.0,6.0,516.1115200003223,8.0,1.0,phase_2,go,500.0,400.0,1.0,,,,,,,,,gray,circle
0.0,1.0,0.5,0.0,5.0,5.0,684.7588639998321,8.0,1.0,phase_2,go,500.0,400.0,1.0,,,,,,,,,magenta,triangle
0.0,6.0,1.0,1.0,5.0,5.0,656.9410400002198,8.0,1.0,phase_2,stop,500.0,400.0,3.0,,,,,,,,,cyan,hexagon
0.0,1.0,0.5,0.0,5.0,5.0,873.4999329999482,8.0,1.0,phase_2,go,450.0,400.0,1.0,,,,,,,,,magenta,triangle
0.0,6.0,1.0,1.0,5.0,0.0,0.0,8.0,1.0,phase_2,stop,450.0,400.0,4.0,,,,,,,,,cyan,hexagon
0.0,7.0,2.0,1.0,5.0,5.0,657.3383149998335,8.0,1.0,phase_2,go,500.0,400.0,1.0,,,,,,,,,green,diamond
0.0,7.0,2.0,1.0,5.0,5.0,663.4418560001905,8.0,1.0,phase_2,stop,500.0,400.0,3.0,,,,,,,,,green,diamond
0.0,3.0,2.0,0.0,5.0,5.0,778.0708969999068,8.0,1.0,phase_2,go,450.0,400.0,1.0,,,,,,,,,white,flipped triangle
0.0,5.0,0.5,1.0,6.0,0.0,0.0,8.0,1.0,phase_2,stop,450.0,400.0,4.0,,,,,,,,,orange,cross
0.0,8.0,4.0,1.0,5.0,5.0,581.4190130004135,8.0,1.0,phase_2,go,450.0,450.0,1.0,,,,,,,,,blue,I
0.0,2.0,1.0,0.0,5.0,5.0,902.884472000096,8.0,1.0,phase_2,go,450.0,450.0,1.0,,,,,,,,,gray,circle
0.0,5.0,0.5,1.0,6.0,0.0,0.0,8.0,1.0,phase_2,stop,450.0,450.0,4.0,,,,,,,,,orange,cross
0.0,2.0,1.0,0.0,5.0,5.0,713.6213219996534,8.0,1.0,phase_2,go,450.0,500.0,1.0,,,,,,,,,gray,circle
0.0,3.0,2.0,0.0,6.0,6.0,590.2178569999705,8.0,1.0,phase_2,go,450.0,500.0,1.0,,,,,,,,,white,flipped triangle
0.0,6.0,1.0,1.0,5.0,0.0,0.0,8.0,1.0,phase_2,stop,450.0,500.0,4.0,,,,,,,,,cyan,hexagon
0.0,2.0,1.0,0.0,6.0,6.0,516.1283540001023,8.0,1.0,phase_2,go,500.0,500.0,1.0,,,,,,,,,gray,circle
0.0,8.0,4.0,1.0,6.0,6.0,658.4429740000814,8.0,1.0,phase_2,stop,500.0,500.0,3.0,,,,,,,,,blue,I
0.0,5.0,0.5,1.0,5.0,5.0,674.736977000066,8.0,1.0,phase_2,go,500.0,450.0,1.0,,,,,,,,,orange,cross
0.0,8.0,4.0,1.0,5.0,0.0,0.0,8.0,1.0,phase_2,stop,500.0,450.0,4.0,,,,,,,,,blue,I
0.0,6.0,1.0,1.0,6.0,0.0,0.0,8.0,1.0,phase_2,stop,550.0,450.0,4.0,,,,,,,,,cyan,hexagon
0.0,6.0,1.0,1.0,5.0,5.0,718.1366819995674,8.0,1.0,phase_2,stop,550.0,500.0,3.0,,,,,,,,,cyan,hexagon
0.0,3.0,2.0,0.0,5.0,5.0,687.5810669998828,8.0,1.0,phase_2,go,500.0,500.0,1.0,,,,,,,,,white,flipped triangle
0.0,1.0,0.5,0.0,5.0,5.0,668.8287209999544,8.0,1.0,phase_2,go,500.0,500.0,1.0,,,,,,,,,magenta,triangle
0.0,5.0,0.5,1.0,6.0,6.0,637.3147780000181,8.0,1.0,phase_2,go,500.0,500.0,1.0,,,,,,,,,orange,cross
0.0,5.0,0.5,1.0,6.0,6.0,405.1157019998754,8.0,1.0,phase_2,go,500.0,500.0,1.0,,,,,,,,,orange,cross
0.0,6.0,1.0,1.0,7.0,1.0,2754.2336419992357,1.0,1.0,phase_3,,,,,464.0,4.0,464.0,696.0,580.0,232.0,116.0,348.0,cyan,hexagon
0.0,5.0,0.5,1.0,7.0,2.0,1692.5642679998418,1.0,1.0,phase_3,,,,,540.0,4.0,135.0,540.0,270.0,675.0,810.0,405.0,orange,cross
0.0,1.0,0.5,0.0,7.0,5.0,1035.526337000192,1.0,1.0,phase_3,,,,,116.0,1.0,696.0,464.0,232.0,580.0,116.0,348.0,magenta,triangle
0.0,5.0,0.5,1.0,7.0,3.0,2275.243808000596,1.0,1.0,phase_3,,,,,580.0,5.0,464.0,348.0,580.0,696.0,116.0,232.0,orange,cross
0.0,2.0,1.0,0.0,7.0,4.0,2134.807061000174,1.0,1.0,phase_3,,,,,173.0,1.0,346.0,865.0,519.0,173.0,692.0,1038.0,gray,circle
0.0,8.0,4.0,1.0,7.0,3.0,2473.639120000371,1.0,1.0,phase_3,,,,,692.0,4.0,173.0,519.0,692.0,865.0,1038.0,346.0,blue,I
0.0,4.0,4.0,0.0,7.0,2.0,2205.1684150001165,1.0,1.0,phase_3,,,,,270.0,2.0,540.0,270.0,675.0,405.0,135.0,810.0,yellow,square
0.0,1.0,0.5,0.0,7.0,5.0,2208.133707000343,1.0,1.0,phase_3,,,,,616.0,4.0,308.0,924.0,462.0,154.0,616.0,770.0,magenta,triangle
0.0,2.0,1.0,0.0,7.0,3.0,1979.95279099996,1.0,1.0,phase_3,,,,,154.0,1.0,616.0,924.0,154.0,308.0,770.0,462.0,gray,circle
0.0,8.0,4.0,1.0,7.0,5.0,579.5552760000646,1.0,1.0,phase_3,,,,,1038.0,6.0,692.0,346.0,173.0,519.0,1038.0,865.0,blue,I
0.0,6.0,1.0,1.0,7.0,4.0,1636.2556049998602,1.0,1.0,phase_3,,,,,346.0,2.0,1038.0,692.0,173.0,346.0,865.0,519.0,cyan,hexagon
0.0,5.0,0.5,1.0,7.0,6.0,2350.037780999628,1.0,1.0,phase_3,,,,,405.0,3.0,270.0,135.0,540.0,675.0,810.0,405.0,orange,cross
0.0,3.0,2.0,0.0,7.0,5.0,2979.518434000056,1.0,1.0,phase_3,,,,,384.0,2.0,576.0,192.0,1152.0,768.0,384.0,960.0,white,flipped triangle
0.0,2.0,1.0,0.0,7.0,1.0,1186.392147999868,1.0,1.0,phase_3,,,,,154.0,1.0,154.0,770.0,616.0,462.0,924.0,308.0,gray,circle
0.0,3.0,2.0,0.0,7.0,3.0,2008.958039999925,1.0,1.0,phase_3,,,,,192.0,1.0,384.0,960.0,192.0,576.0,768.0,1152.0,white,flipped triangle
0.0,4.0,4.0,0.0,7.0,5.0,1775.7452870000634,1.0,1.0,phase_3,,,,,865.0,5.0,173.0,346.0,1038.0,519.0,865.0,692.0,yellow,square
0.0,7.0,2.0,1.0,7.0,4.0,1522.495106999486,1.0,1.0,phase_3,,,,,348.0,3.0,116.0,696.0,232.0,348.0,464.0,580.0,green,diamond
0.0,2.0,1.0,0.0,7.0,3.0,1336.8025979998492,1.0,1.0,phase_3,,,,,116.0,1.0,580.0,696.0,116.0,232.0,348.0,464.0,gray,circle
0.0,8.0,4.0,1.0,7.0,4.0,2176.203818000431,1.0,1.0,phase_3,,,,,576.0,3.0,384.0,768.0,960.0,576.0,192.0,1152.0,blue,I
0.0,5.0,0.5,1.0,7.0,5.0,1538.1325819998892,1.0,1.0,phase_3,,,,,696.0,6.0,464.0,116.0,232.0,348.0,696.0,580.0,orange,cross
0.0,4.0,4.0,0.0,7.0,3.0,1511.1589309999545,2.0,1.0,phase_3,,,,,580.0,5.0,696.0,232.0,580.0,464.0,348.0,116.0,yellow,square
0.0,6.0,1.0,1.0,7.0,4.0,1325.825005000297,2.0,1.0,phase_3,,,,,675.0,5.0,135.0,270.0,540.0,675.0,405.0,810.0,cyan,hexagon
0.0,8.0,4.0,1.0,7.0,4.0,1981.87585300002,2.0,1.0,phase_3,,,,,696.0,6.0,116.0,348.0,580.0,696.0,232.0,464.0,blue,I
0.0,8.0,4.0,1.0,7.0,3.0,1823.29954800025,2.0,1.0,phase_3,,,,,405.0,3.0,540.0,675.0,405.0,135.0,270.0,810.0,blue,I
0.0,7.0,2.0,1.0,7.0,4.0,1467.1586750000642,2.0,1.0,phase_3,,,,,308.0,2.0,154.0,770.0,924.0,308.0,462.0,616.0,green,diamond
0.0,2.0,1.0,0.0,7.0,1.0,731.4068760006194,2.0,1.0,phase_3,,,,,116.0,1.0,116.0,580.0,232.0,464.0,348.0,696.0,gray,circle
0.0,6.0,1.0,1.0,7.0,6.0,1819.3872980000376,2.0,1.0,phase_3,,,,,462.0,3.0,308.0,154.0,924.0,616.0,770.0,462.0,cyan,hexagon
0.0,8.0,4.0,1.0,7.0,4.0,1258.146021000357,2.0,1.0,phase_3,,,,,616.0,4.0,462.0,154.0,308.0,616.0,770.0,924.0,blue,I
0.0,4.0,4.0,0.0,7.0,2.0,846.1565080006039,2.0,1.0,phase_3,,,,,462.0,3.0,616.0,462.0,770.0,308.0,154.0,924.0,yellow,square
0.0,1.0,0.5,0.0,7.0,1.0,2275.215747999937,2.0,1.0,phase_3,,,,,346.0,2.0,346.0,865.0,173.0,1038.0,692.0,519.0,magenta,triangle
0.0,4.0,4.0,0.0,7.0,4.0,2013.886235999962,2.0,1.0,phase_3,,,,,384.0,2.0,1152.0,576.0,192.0,384.0,768.0,960.0,yellow,square
0.0,1.0,0.5,0.0,7.0,5.0,908.2047249994504,2.0,1.0,phase_3,,,,,384.0,2.0,192.0,768.0,1152.0,576.0,384.0,960.0,magenta,triangle
0.0,7.0,2.0,1.0,7.0,2.0,1947.948735000864,2.0,1.0,phase_3,,,,,135.0,1.0,675.0,135.0,810.0,270.0,405.0,540.0,green,diamond
0.0,4.0,4.0,0.0,7.0,2.0,1555.889618999572,2.0,1.0,phase_3,,,,,384.0,2.0,960.0,384.0,1152.0,192.0,576.0,768.0,yellow,square
0.0,2.0,1.0,0.0,7.0,6.0,1648.6996479998195,2.0,1.0,phase_3,,,,,192.0,1.0,960.0,1152.0,768.0,384.0,576.0,192.0,gray,circle
0.0,7.0,2.0,1.0,7.0,5.0,1842.9008160001104,2.0,1.0,phase_3,,,,,308.0,2.0,924.0,616.0,154.0,770.0,308.0,462.0,green,diamond
0.0,5.0,0.5,1.0,7.0,3.0,1165.4485990002286,2.0,1.0,phase_3,,,,,770.0,5.0,462.0,924.0,770.0,154.0,616.0,308.0,orange,cross
0.0,5.0,0.5,1.0,7.0,3.0,1863.1666279998167,2.0,1.0,phase_3,,,,,768.0,4.0,960.0,576.0,768.0,192.0,384.0,1152.0,orange,cross
0.0,6.0,1.0,1.0,7.0,5.0,1130.0702709995676,2.0,1.0,phase_3,,,,,768.0,4.0,192.0,384.0,576.0,960.0,768.0,1152.0,cyan,hexagon
0.0,7.0,2.0,1.0,7.0,4.0,1748.085987000195,2.0,1.0,phase_3,,,,,384.0,2.0,576.0,192.0,1152.0,384.0,960.0,768.0,green,diamond
0.0,5.0,0.5,1.0,7.0,4.0,1990.3178059994389,3.0,1.0,phase_3,,,,,960.0,5.0,768.0,384.0,576.0,960.0,1152.0,192.0,orange,cross
0.0,6.0,1.0,1.0,7.0,3.0,3352.830918000109,3.0,1.0,phase_3,,,,,405.0,3.0,810.0,540.0,405.0,270.0,135.0,675.0,cyan,hexagon
0.0,6.0,1.0,1.0,7.0,2.0,2320.9065780001765,3.0,1.0,phase_3,,,,,464.0,4.0,580.0,464.0,348.0,232.0,116.0,696.0,cyan,hexagon
0.0,6.0,1.0,1.0,7.0,5.0,1852.357022000433,3.0,1.0,phase_3,,,,,462.0,3.0,154.0,308.0,616.0,770.0,462.0,924.0,cyan,hexagon
0.0,3.0,2.0,0.0,7.0,1.0,1476.4115599991785,3.0,1.0,phase_3,,,,,154.0,1.0,154.0,462.0,770.0,924.0,308.0,616.0,white,flipped triangle
0.0,3.0,2.0,0.0,7.0,6.0,1029.5902080006272,3.0,1.0,phase_3,,,,,519.0,3.0,173.0,346.0,1038.0,865.0,692.0,519.0,white,flipped triangle
0.0,1.0,0.5,0.0,7.0,2.0,2293.6438829992767,3.0,1.0,phase_3,,,,,865.0,5.0,346.0,865.0,1038.0,173.0,692.0,519.0,magenta,triangle
0.0,5.0,0.5,1.0,7.0,1.0,1725.4344390003098,3.0,1.0,phase_3,,,,,346.0,2.0,346.0,173.0,519.0,692.0,1038.0,865.0,orange,cross
0.0,3.0,2.0,0.0,7.0,3.0,1462.6929229998495,3.0,1.0,phase_3,,,,,116.0,1.0,232.0,348.0,116.0,580.0,464.0,696.0,white,flipped triangle
0.0,1.0,0.5,0.0,7.0,3.0,2087.087142999735,3.0,1.0,phase_3,,,,,135.0,1.0,270.0,810.0,135.0,540.0,675.0,405.0,magenta,triangle
0.0,6.0,1.0,1.0,7.0,4.0,2057.229955999901,3.0,1.0,phase_3,,,,,173.0,1.0,346.0,1038.0,692.0,173.0,519.0,865.0,cyan,hexagon
0.0,4.0,4.0,0.0,7.0,2.0,2084.8239630004173,3.0,1.0,phase_3,,,,,1038.0,6.0,865.0,1038.0,173.0,519.0,346.0,692.0,yellow,square
0.0,3.0,2.0,0.0,7.0,5.0,1720.799257000181,3.0,1.0,phase_3,,,,,464.0,4.0,232.0,348.0,580.0,696.0,464.0,116.0,white,flipped triangle
0.0,4.0,4.0,0.0,7.0,5.0,1811.576822999996,3.0,1.0,phase_3,,,,,135.0,1.0,270.0,675.0,810.0,540.0,135.0,405.0,yellow,square
0.0,2.0,1.0,0.0,7.0,4.0,1637.2250249996796,3.0,1.0,phase_3,,,,,135.0,1.0,675.0,540.0,270.0,135.0,405.0,810.0,gray,circle
0.0,1.0,0.5,0.0,7.0,5.0,1089.8456529994291,3.0,1.0,phase_3,,,,,464.0,4.0,232.0,348.0,580.0,696.0,464.0,116.0,magenta,triangle
0.0,7.0,2.0,1.0,7.0,4.0,2508.665266999742,3.0,1.0,phase_3,,,,,519.0,3.0,173.0,1038.0,692.0,519.0,865.0,346.0,green,diamond
0.0,2.0,1.0,0.0,7.0,2.0,1796.113800999592,3.0,1.0,phase_3,,,,,135.0,1.0,405.0,135.0,810.0,540.0,675.0,270.0,gray,circle
0.0,2.0,1.0,0.0,7.0,5.0,1710.5917250000855,3.0,1.0,phase_3,,,,,576.0,3.0,960.0,768.0,1152.0,192.0,576.0,384.0,gray,circle
0.0,7.0,2.0,1.0,7.0,6.0,1929.7988119997167,3.0,1.0,phase_3,,,,,405.0,3.0,675.0,810.0,270.0,540.0,135.0,405.0,green,diamond
0.0,1.0,0.5,0.0,7.0,2.0,871.7694309998478,4.0,1.0,phase_3,,,,,270.0,2.0,405.0,270.0,540.0,135.0,810.0,675.0,magenta,triangle
0.0,3.0,2.0,0.0,7.0,6.0,1329.1523070001858,4.0,1.0,phase_3,,,,,173.0,1.0,1038.0,519.0,865.0,692.0,346.0,173.0,white,flipped triangle
0.0,8.0,4.0,1.0,7.0,1.0,2241.9104190003054,4.0,1.0,phase_3,,,,,135.0,1.0,135.0,270.0,810.0,405.0,675.0,540.0,blue,I
0.0,3.0,2.0,0.0,7.0,5.0,1758.433963999778,4.0,1.0,phase_3,,,,,270.0,2.0,540.0,135.0,810.0,675.0,270.0,405.0,white,flipped triangle
0.0,7.0,2.0,1.0,7.0,5.0,1628.7492250003195,4.0,1.0,phase_3,,,,,576.0,3.0,384.0,192.0,1152.0,960.0,576.0,768.0,green,diamond
0.0,4.0,4.0,0.0,7.0,3.0,1516.19238999956,4.0,1.0,phase_3,,,,,308.0,2.0,924.0,154.0,308.0,462.0,770.0,616.0,yellow,square
0.0,8.0,4.0,1.0,7.0,4.0,1488.0664599995723,4.0,1.0,phase_3,,,,,308.0,2.0,616.0,924.0,770.0,308.0,462.0,154.0,blue,I
0.0,5.0,0.5,1.0,7.0,5.0,1715.0719040000697,4.0,1.0,phase_3,,,,,770.0,5.0,308.0,462.0,616.0,154.0,770.0,924.0,orange,cross
0.0,6.0,1.0,1.0,7.0,6.0,2271.531275000598,4.0,1.0,phase_3,,,,,576.0,3.0,960.0,384.0,192.0,768.0,1152.0,576.0,cyan,hexagon
0.0,8.0,4.0,1.0,7.0,3.0,926.9374089999474,4.0,1.0,phase_3,,,,,696.0,6.0,116.0,232.0,696.0,464.0,348.0,580.0,blue,I
0.0,4.0,4.0,0.0,7.0,1.0,2096.7984050003,4.0,1.0,phase_3,,,,,696.0,6.0,696.0,464.0,348.0,116.0,232.0,580.0,yellow,square
0.0,8.0,4.0,1.0,7.0,1.0,842.8386770001453,4.0,1.0,phase_3,,,,,1152.0,6.0,1152.0,384.0,192.0,576.0,768.0,960.0,blue,I
0.0,2.0,1.0,0.0,7.0,3.0,1812.8013670002476,4.0,1.0,phase_3,,,,,173.0,1.0,346.0,1038.0,173.0,519.0,692.0,865.0,gray,circle
0.0,3.0,2.0,0.0,7.0,5.0,1959.7643990000504,4.0,1.0,phase_3,,,,,135.0,1.0,540.0,810.0,270.0,405.0,135.0,675.0,white,flipped triangle
0.0,7.0,2.0,1.0,7.0,2.0,1796.6901670006337,4.0,1.0,phase_3,,,,,173.0,1.0,519.0,173.0,692.0,346.0,865.0,1038.0,green,diamond
0.0,1.0,0.5,0.0,7.0,1.0,1672.2329949998311,4.0,1.0,phase_3,,,,,960.0,5.0,960.0,1152.0,768.0,384.0,192.0,576.0,magenta,triangle
0.0,3.0,2.0,0.0,7.0,2.0,1844.2284120001204,4.0,1.0,phase_3,,,,,154.0,1.0,616.0,154.0,924.0,308.0,770.0,462.0,white,flipped triangle
0.0,1.0,0.5,0.0,7.0,6.0,1281.8696089998411,4.0,1.0,phase_3,,,,,462.0,3.0,308.0,616.0,154.0,924.0,770.0,462.0,magenta,triangle
0.0,5.0,0.5,1.0,7.0,2.0,2283.120295000117,4.0,1.0,phase_3,,,,,346.0,2.0,1038.0,346.0,865.0,692.0,519.0,173.0,orange,cross
0.0,7.0,2.0,1.0,7.0,4.0,1470.0113649996638,4.0,1.0,phase_3,,,,,348.0,3.0,464.0,116.0,696.0,348.0,580.0,232.0,green,diamond
