raw_reward_magnitude,stim_reward,stepwise_reward_magnitude,paired_with_stopping,stim_location,response,reaction_time,block,num_trial_presentations,which_phase,stop_signal_trial_type,left_SSD,right_SSD,accuracy,chosen_bidding_amount,chosen_bidding_level,possible_bid_1,possible_bid_2,possible_bid_3,possible_bid_4,possible_bid_5,possible_bid_6,color_text,shape_text
672.0,3.0,3.0,0.0,3.0,3.0,573.596827000074,1.0,1.0,phase_1,,,,,,,,,,,,,cyan,cross
145.0,5.0,1.0,1.0,2.0,2.0,469.7927070001242,1.0,1.0,phase_1,,,,,,,,,,,,,green,diamond
1296.0,8.0,4.0,1.0,2.0,2.0,309.0616480003518,1.0,1.0,phase_1,,,,,,,,,,,,,magenta,flipped triangle
164.0,5.0,1.0,1.0,1.0,1.0,406.2678290001713,1.0,3.0,phase_1,,,,,,,,,,,,,green,diamond
0.0,1.0,0.0,0.0,2.0,2.0,506.39996900008555,1.0,1.0,phase_1,,,,,,,,,,,,,yellow,hexagon
304.0,2.0,2.0,0.0,2.0,2.0,525.5545159998292,1.0,1.0,phase_1,,,,,,,,,,,,,white,triangle
628.0,3.0,3.0,0.0,2.0,2.0,301.3105190002534,1.0,1.0,phase_1,,,,,,,,,,,,,cyan,cross
149.0,5.0,1.0,1.0,2.0,2.0,338.7032570008159,1.0,1.0,phase_1,,,,,,,,,,,,,green,diamond
163.0,5.0,1.0,1.0,4.0,4.0,452.3444390006261,1.0,1.0,phase_1,,,,,,,,,,,,,green,diamond
342.0,2.0,2.0,0.0,4.0,4.0,349.0933490002135,1.0,1.0,phase_1,,,,,,,,,,,,,white,triangle
1296.0,4.0,4.0,0.0,1.0,1.0,347.0527929994205,1.0,2.0,phase_1,,,,,,,,,,,,,gray,circle
0.0,1.0,0.0,0.0,1.0,1.0,459.1820559999178,1.0,1.0,phase_1,,,,,,,,,,,,,yellow,hexagon
664.0,7.0,3.0,1.0,2.0,2.0,430.9827520000908,1.0,1.0,phase_1,,,,,,,,,,,,,orange,I
173.0,5.0,1.0,1.0,4.0,4.0,435.3539220001039,1.0,1.0,phase_1,,,,,,,,,,,,,green,diamond
326.0,6.0,2.0,1.0,2.0,2.0,439.1644420002194,1.0,1.0,phase_1,,,,,,,,,,,,,blue,square
672.0,7.0,3.0,1.0,4.0,4.0,386.8711290006104,1.0,1.0,phase_1,,,,,,,,,,,,,orange,I
151.0,1.0,1.0,0.0,4.0,4.0,424.0425870002582,1.0,1.0,phase_1,,,,,,,,,,,,,yellow,hexagon
660.0,7.0,3.0,1.0,3.0,3.0,366.7312979996495,1.0,1.0,phase_1,,,,,,,,,,,,,orange,I
306.0,2.0,2.0,0.0,1.0,1.0,299.9049270001706,1.0,1.0,phase_1,,,,,,,,,,,,,white,triangle
0.0,4.0,0.0,0.0,3.0,3.0,347.1378389995152,1.0,1.0,phase_1,,,,,,,,,,,,,gray,circle
319.0,6.0,2.0,1.0,1.0,1.0,439.9351010006285,1.0,1.0,phase_1,,,,,,,,,,,,,blue,square
1293.0,8.0,4.0,1.0,2.0,2.0,459.0471690007689,1.0,1.0,phase_1,,,,,,,,,,,,,magenta,flipped triangle
1278.0,4.0,4.0,0.0,2.0,2.0,356.5931700004512,1.0,1.0,phase_1,,,,,,,,,,,,,gray,circle
665.0,3.0,3.0,0.0,2.0,2.0,346.8319319999864,1.0,1.0,phase_1,,,,,,,,,,,,,cyan,cross
156.0,5.0,1.0,1.0,1.0,1.0,328.0675610003527,1.0,1.0,phase_1,,,,,,,,,,,,,green,diamond
0.0,3.0,0.0,0.0,3.0,3.0,412.6147509996372,1.0,1.0,phase_1,,,,,,,,,,,,,cyan,cross
167.0,1.0,1.0,0.0,3.0,3.0,375.8650250001665,1.0,1.0,phase_1,,,,,,,,,,,,,yellow,hexagon
0.0,2.0,0.0,0.0,4.0,4.0,375.6859679997433,1.0,1.0,phase_1,,,,,,,,,,,,,white,triangle
159.0,1.0,1.0,0.0,4.0,4.0,338.1194710000272,1.0,1.0,phase_1,,,,,,,,,,,,,yellow,hexagon
0.0,8.0,0.0,1.0,3.0,3.0,318.6810469996999,1.0,1.0,phase_1,,,,,,,,,,,,,magenta,flipped triangle
315.0,2.0,2.0,0.0,2.0,2.0,375.9804460005398,1.0,1.0,phase_1,,,,,,,,,,,,,white,triangle
1284.0,8.0,4.0,1.0,3.0,3.0,345.5765470007463,1.0,1.0,phase_1,,,,,,,,,,,,,magenta,flipped triangle
665.0,7.0,3.0,1.0,3.0,3.0,308.9176410003347,1.0,1.0,phase_1,,,,,,,,,,,,,orange,I
631.0,7.0,3.0,1.0,2.0,2.0,496.8472700002166,1.0,1.0,phase_1,,,,,,,,,,,,,orange,I
641.0,7.0,3.0,1.0,4.0,4.0,392.7654560002338,1.0,1.0,phase_1,,,,,,,,,,,,,orange,I
0.0,1.0,0.0,0.0,4.0,4.0,392.5200679996123,1.0,1.0,phase_1,,,,,,,,,,,,,yellow,hexagon
159.0,5.0,1.0,1.0,1.0,1.0,355.7032779999645,1.0,1.0,phase_1,,,,,,,,,,,,,green,diamond
1308.0,8.0,4.0,1.0,1.0,1.0,498.4483710004497,1.0,1.0,phase_1,,,,,,,,,,,,,magenta,flipped triangle
1316.0,4.0,4.0,0.0,3.0,3.0,376.2103939998269,1.0,1.0,phase_1,,,,,,,,,,,,,gray,circle
169.0,1.0,1.0,0.0,3.0,3.0,365.7283339998685,1.0,1.0,phase_1,,,,,,,,,,,,,yellow,hexagon
1301.0,8.0,4.0,1.0,3.0,3.0,338.4003909995954,1.0,1.0,phase_1,,,,,,,,,,,,,magenta,flipped triangle
1280.0,4.0,4.0,0.0,2.0,2.0,467.0944080007757,1.0,1.0,phase_1,,,,,,,,,,,,,gray,circle
660.0,7.0,3.0,1.0,4.0,4.0,384.1857739998886,1.0,1.0,phase_1,,,,,,,,,,,,,orange,I
335.0,2.0,2.0,0.0,2.0,2.0,309.1351570001279,1.0,1.0,phase_1,,,,,,,,,,,,,white,triangle
633.0,3.0,3.0,0.0,4.0,4.0,364.131160999932,1.0,1.0,phase_1,,,,,,,,,,,,,cyan,cross
0.0,4.0,0.0,0.0,2.0,2.0,401.6464859996631,1.0,1.0,phase_1,,,,,,,,,,,,,gray,circle
310.0,6.0,2.0,1.0,1.0,1.0,468.7790529997073,1.0,1.0,phase_1,,,,,,,,,,,,,blue,square
151.0,1.0,1.0,0.0,4.0,4.0,404.5611070005179,1.0,1.0,phase_1,,,,,,,,,,,,,yellow,hexagon
1291.0,4.0,4.0,0.0,1.0,1.0,345.3898200004914,1.0,1.0,phase_1,,,,,,,,,,,,,gray,circle
636.0,3.0,3.0,0.0,2.0,2.0,497.2038839996457,1.0,1.0,phase_1,,,,,,,,,,,,,cyan,cross
176.0,1.0,1.0,0.0,1.0,1.0,346.9794890006596,1.0,1.0,phase_1,,,,,,,,,,,,,yellow,hexagon
1276.0,8.0,4.0,1.0,4.0,4.0,469.0554389999306,1.0,1.0,phase_1,,,,,,,,,,,,,magenta,flipped triangle
0.0,7.0,0.0,1.0,1.0,1.0,327.9819169993061,1.0,1.0,phase_1,,,,,,,,,,,,,orange,I
319.0,2.0,2.0,0.0,1.0,1.0,384.7966990006171,1.0,1.0,phase_1,,,,,,,,,,,,,white,triangle
0.0,5.0,0.0,1.0,4.0,4.0,356.0725700008333,1.0,1.0,phase_1,,,,,,,,,,,,,green,diamond
310.0,2.0,2.0,0.0,3.0,3.0,439.8074130003806,1.0,1.0,phase_1,,,,,,,,,,,,,white,triangle
639.0,7.0,3.0,1.0,2.0,2.0,403.0141809998895,1.0,1.0,phase_1,,,,,,,,,,,,,orange,I
332.0,6.0,2.0,1.0,1.0,1.0,442.1961830003056,1.0,1.0,phase_1,,,,,,,,,,,,,blue,square
167.0,1.0,1.0,0.0,2.0,2.0,384.4079979999151,1.0,1.0,phase_1,,,,,,,,,,,,,yellow,hexagon
143.0,1.0,1.0,0.0,2.0,2.0,347.4026850008158,1.0,1.0,phase_1,,,,,,,,,,,,,yellow,hexagon
342.0,6.0,2.0,1.0,4.0,4.0,440.1429099998495,1.0,1.0,phase_1,,,,,,,,,,,,,blue,square
650.0,7.0,3.0,1.0,2.0,2.0,328.4651430003578,1.0,1.0,phase_1,,,,,,,,,,,,,orange,I
180.0,5.0,1.0,1.0,2.0,2.0,489.9114320005537,1.0,1.0,phase_1,,,,,,,,,,,,,green,diamond
332.0,2.0,2.0,0.0,1.0,1.0,395.0721910005086,1.0,1.0,phase_1,,,,,,,,,,,,,white,triangle
167.0,5.0,1.0,1.0,4.0,4.0,394.6621980003328,1.0,1.0,phase_1,,,,,,,,,,,,,green,diamond
301.0,6.0,2.0,1.0,3.0,3.0,432.1351649996359,1.0,1.0,phase_1,,,,,,,,,,,,,blue,square
181.0,1.0,1.0,0.0,3.0,3.0,368.2268649999969,1.0,1.0,phase_1,,,,,,,,,,,,,yellow,hexagon
156.0,1.0,1.0,0.0,4.0,4.0,392.9507670000021,1.0,1.0,phase_1,,,,,,,,,,,,,yellow,hexagon
665.0,3.0,3.0,0.0,4.0,4.0,365.5142139996314,1.0,1.0,phase_1,,,,,,,,,,,,,cyan,cross
659.0,7.0,3.0,1.0,3.0,3.0,318.8840210004855,1.0,1.0,phase_1,,,,,,,,,,,,,orange,I
668.0,7.0,3.0,1.0,3.0,3.0,299.6350610001173,1.0,1.0,phase_1,,,,,,,,,,,,,orange,I
0.0,7.0,0.0,1.0,2.0,2.0,422.0574209994083,1.0,1.0,phase_1,,,,,,,,,,,,,orange,I
150.0,5.0,1.0,1.0,1.0,1.0,519.1064460004782,1.0,1.0,phase_1,,,,,,,,,,,,,green,diamond
1304.0,8.0,4.0,1.0,4.0,4.0,374.1276000000653,1.0,1.0,phase_1,,,,,,,,,,,,,magenta,flipped triangle
344.0,2.0,2.0,0.0,1.0,1.0,348.0132180002329,1.0,1.0,phase_1,,,,,,,,,,,,,white,triangle
635.0,3.0,3.0,0.0,1.0,1.0,469.3953599999076,1.0,1.0,phase_1,,,,,,,,,,,,,cyan,cross
335.0,6.0,2.0,1.0,4.0,4.0,430.4509170005985,1.0,1.0,phase_1,,,,,,,,,,,,,blue,square
320.0,6.0,2.0,1.0,3.0,3.0,376.1471379993963,1.0,1.0,phase_1,,,,,,,,,,,,,blue,square
0.0,7.0,0.0,1.0,3.0,3.0,358.1687739997505,1.0,1.0,phase_1,,,,,,,,,,,,,orange,I
644.0,7.0,3.0,1.0,4.0,4.0,366.0115979992042,1.0,1.0,phase_1,,,,,,,,,,,,,orange,I
151.0,5.0,1.0,1.0,4.0,4.0,421.2565910002013,1.0,1.0,phase_1,,,,,,,,,,,,,green,diamond
631.0,7.0,3.0,1.0,2.0,2.0,442.2561549999955,1.0,1.0,phase_1,,,,,,,,,,,,,orange,I
349.0,6.0,2.0,1.0,2.0,2.0,440.4959079993205,1.0,1.0,phase_1,,,,,,,,,,,,,blue,square
0.0,7.0,0.0,1.0,3.0,3.0,367.3711239998738,1.0,1.0,phase_1,,,,,,,,,,,,,orange,I
0.0,5.0,0.0,1.0,4.0,4.0,322.3365989997546,1.0,1.0,phase_1,,,,,,,,,,,,,green,diamond
339.0,6.0,2.0,1.0,2.0,2.0,347.717110999838,1.0,1.0,phase_1,,,,,,,,,,,,,blue,square
338.0,2.0,2.0,0.0,3.0,3.0,339.7253369994359,1.0,1.0,phase_1,,,,,,,,,,,,,white,triangle
1316.0,8.0,4.0,1.0,1.0,1.0,300.8865159999914,1.0,1.0,phase_1,,,,,,,,,,,,,magenta,flipped triangle
631.0,3.0,3.0,0.0,1.0,1.0,338.1033660007233,1.0,1.0,phase_1,,,,,,,,,,,,,cyan,cross
338.0,6.0,2.0,1.0,1.0,1.0,298.5763990000123,1.0,1.0,phase_1,,,,,,,,,,,,,blue,square
0.0,7.0,0.0,1.0,3.0,3.0,403.2316920001904,1.0,1.0,phase_1,,,,,,,,,,,,,orange,I
666.0,3.0,3.0,0.0,2.0,2.0,429.6050780003497,1.0,1.0,phase_1,,,,,,,,,,,,,cyan,cross
664.0,3.0,3.0,0.0,3.0,3.0,354.9956659999225,1.0,1.0,phase_1,,,,,,,,,,,,,cyan,cross
305.0,2.0,2.0,0.0,4.0,4.0,383.8285749998249,1.0,1.0,phase_1,,,,,,,,,,,,,white,triangle
333.0,6.0,2.0,1.0,2.0,2.0,392.995224000515,1.0,1.0,phase_1,,,,,,,,,,,,,blue,square
173.0,1.0,1.0,0.0,2.0,2.0,458.275520000825,1.0,1.0,phase_1,,,,,,,,,,,,,yellow,hexagon
339.0,6.0,2.0,1.0,2.0,2.0,382.8401880000456,1.0,1.0,phase_1,,,,,,,,,,,,,blue,square
1285.0,4.0,4.0,0.0,3.0,3.0,329.167636999955,1.0,1.0,phase_1,,,,,,,,,,,,,gray,circle
637.0,7.0,3.0,1.0,4.0,4.0,366.1142900000413,1.0,1.0,phase_1,,,,,,,,,,,,,orange,I
1296.0,4.0,4.0,0.0,3.0,3.0,441.8226960005995,1.0,1.0,phase_1,,,,,,,,,,,,,gray,circle
144.0,1.0,1.0,0.0,4.0,4.0,431.9210650000968,2.0,1.0,phase_1,,,,,,,,,,,,,yellow,hexagon
1305.0,8.0,4.0,1.0,2.0,2.0,517.8207180006211,2.0,1.0,phase_1,,,,,,,,,,,,,magenta,flipped triangle
301.0,2.0,2.0,0.0,3.0,3.0,348.537435000253,2.0,1.0,phase_1,,,,,,,,,,,,,white,triangle
1324.0,8.0,4.0,1.0,3.0,3.0,414.9106510003548,2.0,1.0,phase_1,,,,,,,,,,,,,magenta,flipped triangle
1297.0,4.0,4.0,0.0,3.0,3.0,388.8332679998711,2.0,1.0,phase_1,,,,,,,,,,,,,gray,circle
344.0,6.0,2.0,1.0,4.0,4.0,365.0538960000631,2.0,1.0,phase_1,,,,,,,,,,,,,blue,square
1313.0,4.0,4.0,0.0,1.0,1.0,441.6046740007004,2.0,2.0,phase_1,,,,,,,,,,,,,gray,circle
0.0,3.0,0.0,0.0,3.0,3.0,413.9773489996514,2.0,1.0,phase_1,,,,,,,,,,,,,cyan,cross
0.0,3.0,0.0,0.0,2.0,2.0,339.3242829997689,2.0,1.0,phase_1,,,,,,,,,,,,,cyan,cross
1292.0,4.0,4.0,0.0,2.0,2.0,423.9018620000934,2.0,1.0,phase_1,,,,,,,,,,,,,gray,circle
315.0,6.0,2.0,1.0,4.0,4.0,435.6609380001828,2.0,1.0,phase_1,,,,,,,,,,,,,blue,square
0.0,2.0,0.0,0.0,2.0,2.0,461.94702399952797,2.0,1.0,phase_1,,,,,,,,,,,,,white,triangle
173.0,5.0,1.0,1.0,1.0,1.0,356.5796980001323,2.0,1.0,phase_1,,,,,,,,,,,,,green,diamond
320.0,2.0,2.0,0.0,3.0,3.0,338.1889410002259,2.0,1.0,phase_1,,,,,,,,,,,,,white,triangle
641.0,3.0,3.0,0.0,2.0,2.0,379.6252429992819,2.0,1.0,phase_1,,,,,,,,,,,,,cyan,cross
339.0,2.0,2.0,0.0,3.0,3.0,300.7171369999923,2.0,1.0,phase_1,,,,,,,,,,,,,white,triangle
659.0,3.0,3.0,0.0,1.0,1.0,302.3883369996838,2.0,1.0,phase_1,,,,,,,,,,,,,cyan,cross
0.0,3.0,0.0,0.0,4.0,4.0,385.7923129999108,2.0,1.0,phase_1,,,,,,,,,,,,,cyan,cross
340.0,6.0,2.0,1.0,4.0,4.0,396.4689949998501,2.0,1.0,phase_1,,,,,,,,,,,,,blue,square
1293.0,4.0,4.0,0.0,2.0,2.0,377.2839479997856,2.0,1.0,phase_1,,,,,,,,,,,,,gray,circle
159.0,5.0,1.0,1.0,3.0,3.0,292.0168109994847,2.0,1.0,phase_1,,,,,,,,,,,,,green,diamond
640.0,3.0,3.0,0.0,1.0,1.0,377.8782180006601,2.0,1.0,phase_1,,,,,,,,,,,,,cyan,cross
0.0,5.0,0.0,1.0,4.0,4.0,347.6421119994484,2.0,1.0,phase_1,,,,,,,,,,,,,green,diamond
349.0,6.0,2.0,1.0,2.0,2.0,451.4870689999952,2.0,1.0,phase_1,,,,,,,,,,,,,blue,square
660.0,3.0,3.0,0.0,4.0,4.0,342.4352149995684,2.0,1.0,phase_1,,,,,,,,,,,,,cyan,cross
322.0,6.0,2.0,1.0,4.0,4.0,321.5675060000649,2.0,1.0,phase_1,,,,,,,,,,,,,blue,square
177.0,5.0,1.0,1.0,1.0,1.0,358.0477499999688,2.0,1.0,phase_1,,,,,,,,,,,,,green,diamond
1320.0,4.0,4.0,0.0,3.0,3.0,292.4956280003243,2.0,1.0,phase_1,,,,,,,,,,,,,gray,circle
173.0,1.0,1.0,0.0,2.0,2.0,338.9701180003612,2.0,1.0,phase_1,,,,,,,,,,,,,yellow,hexagon
650.0,3.0,3.0,0.0,3.0,3.0,290.5710260001797,2.0,1.0,phase_1,,,,,,,,,,,,,cyan,cross
641.0,7.0,3.0,1.0,3.0,3.0,319.5386420002251,2.0,1.0,phase_1,,,,,,,,,,,,,orange,I
0.0,4.0,0.0,0.0,4.0,4.0,348.9922410008148,2.0,1.0,phase_1,,,,,,,,,,,,,gray,circle
637.0,3.0,3.0,0.0,1.0,1.0,478.4159900000304,2.0,1.0,phase_1,,,,,,,,,,,,,cyan,cross
313.0,6.0,2.0,1.0,2.0,2.0,365.6726300005175,2.0,2.0,phase_1,,,,,,,,,,,,,blue,square
0.0,3.0,0.0,0.0,3.0,3.0,415.9520060002251,2.0,1.0,phase_1,,,,,,,,,,,,,cyan,cross
301.0,6.0,2.0,1.0,1.0,1.0,564.5561720002661,2.0,1.0,phase_1,,,,,,,,,,,,,blue,square
304.0,2.0,2.0,0.0,4.0,4.0,387.0753840001271,2.0,1.0,phase_1,,,,,,,,,,,,,white,triangle
0.0,4.0,0.0,0.0,4.0,4.0,396.6880039997704,2.0,1.0,phase_1,,,,,,,,,,,,,gray,circle
144.0,5.0,1.0,1.0,4.0,4.0,442.3528520001127,2.0,1.0,phase_1,,,,,,,,,,,,,green,diamond
344.0,6.0,2.0,1.0,1.0,1.0,394.9578449992259,2.0,1.0,phase_1,,,,,,,,,,,,,blue,square
167.0,5.0,1.0,1.0,2.0,2.0,565.5149929998515,2.0,1.0,phase_1,,,,,,,,,,,,,green,diamond
0.0,8.0,0.0,1.0,1.0,1.0,478.8585950000197,2.0,1.0,phase_1,,,,,,,,,,,,,magenta,flipped triangle
0.0,6.0,0.0,1.0,2.0,2.0,394.9036969997905,2.0,1.0,phase_1,,,,,,,,,,,,,blue,square
1294.0,8.0,4.0,1.0,1.0,1.0,355.7314149993544,2.0,1.0,phase_1,,,,,,,,,,,,,magenta,flipped triangle
1317.0,4.0,4.0,0.0,4.0,4.0,478.2332940003471,2.0,1.0,phase_1,,,,,,,,,,,,,gray,circle
163.0,1.0,1.0,0.0,4.0,4.0,422.9120890004196,2.0,1.0,phase_1,,,,,,,,,,,,,yellow,hexagon
0.0,1.0,0.0,0.0,2.0,2.0,411.1650859995279,2.0,1.0,phase_1,,,,,,,,,,,,,yellow,hexagon
332.0,6.0,2.0,1.0,3.0,3.0,366.9622830002481,2.0,1.0,phase_1,,,,,,,,,,,,,blue,square
147.0,5.0,1.0,1.0,3.0,3.0,415.1997320004739,2.0,1.0,phase_1,,,,,,,,,,,,,green,diamond
0.0,1.0,0.0,0.0,3.0,3.0,357.6707679994797,2.0,1.0,phase_1,,,,,,,,,,,,,yellow,hexagon
0.0,1.0,0.0,0.0,3.0,3.0,338.9582650006559,2.0,1.0,phase_1,,,,,,,,,,,,,yellow,hexagon
149.0,1.0,1.0,0.0,3.0,3.0,339.691184000003,2.0,1.0,phase_1,,,,,,,,,,,,,yellow,hexagon
319.0,2.0,2.0,0.0,4.0,4.0,347.6452949998929,2.0,1.0,phase_1,,,,,,,,,,,,,white,triangle
1322.0,8.0,4.0,1.0,3.0,3.0,320.8054719998472,2.0,1.0,phase_1,,,,,,,,,,,,,magenta,flipped triangle
180.0,1.0,1.0,0.0,1.0,1.0,433.5652620002292,2.0,1.0,phase_1,,,,,,,,,,,,,yellow,hexagon
186.0,5.0,1.0,1.0,3.0,3.0,416.5000900002269,2.0,1.0,phase_1,,,,,,,,,,,,,green,diamond
653.0,3.0,3.0,0.0,3.0,3.0,320.3505519995815,2.0,1.0,phase_1,,,,,,,,,,,,,cyan,cross
644.0,3.0,3.0,0.0,3.0,3.0,348.0111669996404,2.0,1.0,phase_1,,,,,,,,,,,,,cyan,cross
650.0,7.0,3.0,1.0,1.0,1.0,516.6658919997644,2.0,1.0,phase_1,,,,,,,,,,,,,orange,I
0.0,8.0,0.0,1.0,4.0,4.0,542.4407089994929,2.0,1.0,phase_1,,,,,,,,,,,,,magenta,flipped triangle
145.0,1.0,1.0,0.0,1.0,1.0,385.2886860004219,2.0,1.0,phase_1,,,,,,,,,,,,,yellow,hexagon
1285.0,8.0,4.0,1.0,3.0,3.0,376.7610189997867,2.0,1.0,phase_1,,,,,,,,,,,,,magenta,flipped triangle
653.0,7.0,3.0,1.0,3.0,3.0,348.4204420001333,2.0,1.0,phase_1,,,,,,,,,,,,,orange,I
1322.0,4.0,4.0,0.0,2.0,2.0,423.2905099997879,2.0,1.0,phase_1,,,,,,,,,,,,,gray,circle
629.0,7.0,3.0,1.0,2.0,2.0,376.2655459995585,2.0,1.0,phase_1,,,,,,,,,,,,,orange,I
636.0,3.0,3.0,0.0,3.0,3.0,340.89685500021,2.0,1.0,phase_1,,,,,,,,,,,,,cyan,cross
0.0,6.0,0.0,1.0,3.0,3.0,356.8260140000348,2.0,1.0,phase_1,,,,,,,,,,,,,blue,square
324.0,2.0,2.0,0.0,2.0,2.0,357.4298560006355,2.0,1.0,phase_1,,,,,,,,,,,,,white,triangle
0.0,6.0,0.0,1.0,2.0,2.0,404.0741439994235,2.0,1.0,phase_1,,,,,,,,,,,,,blue,square
651.0,3.0,3.0,0.0,3.0,3.0,380.2024359993083,2.0,1.0,phase_1,,,,,,,,,,,,,cyan,cross
0.0,2.0,0.0,0.0,3.0,3.0,375.9239759992852,2.0,1.0,phase_1,,,,,,,,,,,,,white,triangle
316.0,2.0,2.0,0.0,3.0,3.0,527.5957200001358,2.0,1.0,phase_1,,,,,,,,,,,,,white,triangle
0.0,2.0,0.0,0.0,1.0,1.0,403.6123570003838,2.0,1.0,phase_1,,,,,,,,,,,,,white,triangle
173.0,1.0,1.0,0.0,3.0,3.0,309.8105359995315,2.0,1.0,phase_1,,,,,,,,,,,,,yellow,hexagon
162.0,5.0,1.0,1.0,3.0,3.0,347.9388349996952,2.0,1.0,phase_1,,,,,,,,,,,,,green,diamond
1294.0,4.0,4.0,0.0,1.0,1.0,357.4975539995648,2.0,1.0,phase_1,,,,,,,,,,,,,gray,circle
330.0,2.0,2.0,0.0,4.0,4.0,507.11742700059403,2.0,1.0,phase_1,,,,,,,,,,,,,white,triangle
156.0,5.0,1.0,1.0,3.0,3.0,299.0765530003045,2.0,1.0,phase_1,,,,,,,,,,,,,green,diamond
156.0,1.0,1.0,0.0,1.0,1.0,367.5001849996988,2.0,1.0,phase_1,,,,,,,,,,,,,yellow,hexagon
0.0,5.0,0.0,1.0,3.0,3.0,291.4210899998579,2.0,1.0,phase_1,,,,,,,,,,,,,green,diamond
633.0,7.0,3.0,1.0,4.0,4.0,471.1354149994804,2.0,1.0,phase_1,,,,,,,,,,,,,orange,I
169.0,5.0,1.0,1.0,2.0,2.0,468.7826049994328,2.0,1.0,phase_1,,,,,,,,,,,,,green,diamond
305.0,6.0,2.0,1.0,1.0,1.0,292.1035819999815,2.0,1.0,phase_1,,,,,,,,,,,,,blue,square
1304.0,4.0,4.0,0.0,4.0,4.0,377.1039769999333,2.0,1.0,phase_1,,,,,,,,,,,,,gray,circle
0.0,5.0,0.0,1.0,3.0,3.0,310.8560609998676,2.0,1.0,phase_1,,,,,,,,,,,,,green,diamond
314.0,2.0,2.0,0.0,1.0,1.0,329.5447799991962,2.0,1.0,phase_1,,,,,,,,,,,,,white,triangle
331.0,2.0,2.0,0.0,2.0,2.0,526.3549149995015,2.0,1.0,phase_1,,,,,,,,,,,,,white,triangle
318.0,2.0,2.0,0.0,4.0,4.0,375.8077680004135,2.0,1.0,phase_1,,,,,,,,,,,,,white,triangle
648.0,7.0,3.0,1.0,1.0,1.0,376.8893569995271,2.0,1.0,phase_1,,,,,,,,,,,,,orange,I
635.0,7.0,3.0,1.0,4.0,4.0,368.8203519996023,2.0,1.0,phase_1,,,,,,,,,,,,,orange,I
331.0,6.0,2.0,1.0,3.0,3.0,422.4890169998616,2.0,1.0,phase_1,,,,,,,,,,,,,blue,square
0.0,8.0,0.0,1.0,1.0,1.0,338.2099520003976,2.0,1.0,phase_1,,,,,,,,,,,,,magenta,flipped triangle
1291.0,4.0,4.0,0.0,4.0,4.0,396.331239000574,2.0,1.0,phase_1,,,,,,,,,,,,,gray,circle
177.0,5.0,1.0,1.0,1.0,1.0,442.5603020008566,2.0,1.0,phase_1,,,,,,,,,,,,,green,diamond
663.0,7.0,3.0,1.0,1.0,1.0,451.9765439999901,2.0,1.0,phase_1,,,,,,,,,,,,,orange,I
319.0,6.0,2.0,1.0,3.0,3.0,378.2722309997552,2.0,1.0,phase_1,,,,,,,,,,,,,blue,square
0.0,4.0,0.0,0.0,2.0,2.0,508.4593719993791,2.0,1.0,phase_1,,,,,,,,,,,,,gray,circle
1318.0,4.0,4.0,0.0,3.0,3.0,433.1077370006824,2.0,1.0,phase_1,,,,,,,,,,,,,gray,circle
1286.0,8.0,4.0,1.0,4.0,4.0,405.2060849999179,2.0,1.0,phase_1,,,,,,,,,,,,,magenta,flipped triangle
636.0,7.0,3.0,1.0,1.0,1.0,339.4600210003773,2.0,1.0,phase_1,,,,,,,,,,,,,orange,I
0.0,8.0,0.0,1.0,3.0,3.0,460.3769499999544,3.0,1.0,phase_1,,,,,,,,,,,,,magenta,flipped triangle
143.0,5.0,1.0,1.0,3.0,3.0,346.6065220000018,3.0,1.0,phase_1,,,,,,,,,,,,,green,diamond
1291.0,8.0,4.0,1.0,1.0,1.0,347.2354189998441,3.0,1.0,phase_1,,,,,,,,,,,,,magenta,flipped triangle
637.0,7.0,3.0,1.0,1.0,1.0,459.47857200008,3.0,1.0,phase_1,,,,,,,,,,,,,orange,I
1313.0,4.0,4.0,0.0,1.0,1.0,319.7681689998717,3.0,1.0,phase_1,,,,,,,,,,,,,gray,circle
143.0,5.0,1.0,1.0,1.0,1.0,337.0434480002586,3.0,1.0,phase_1,,,,,,,,,,,,,green,diamond
151.0,5.0,1.0,1.0,2.0,2.0,551.9406579996939,3.0,2.0,phase_1,,,,,,,,,,,,,green,diamond
666.0,7.0,3.0,1.0,4.0,4.0,421.7664509997121,3.0,1.0,phase_1,,,,,,,,,,,,,orange,I
145.0,5.0,1.0,1.0,2.0,2.0,328.3293080003204,3.0,1.0,phase_1,,,,,,,,,,,,,green,diamond
651.0,7.0,3.0,1.0,1.0,1.0,383.4351159994185,3.0,1.0,phase_1,,,,,,,,,,,,,orange,I
1318.0,8.0,4.0,1.0,3.0,3.0,337.1136460000343,3.0,1.0,phase_1,,,,,,,,,,,,,magenta,flipped triangle
0.0,7.0,0.0,1.0,4.0,4.0,506.25695400049153,3.0,1.0,phase_1,,,,,,,,,,,,,orange,I
668.0,3.0,3.0,0.0,4.0,4.0,394.7388560000036,3.0,1.0,phase_1,,,,,,,,,,,,,cyan,cross
0.0,6.0,0.0,1.0,2.0,2.0,374.0545590007968,3.0,1.0,phase_1,,,,,,,,,,,,,blue,square
1293.0,4.0,4.0,0.0,4.0,4.0,394.1380590003973,3.0,1.0,phase_1,,,,,,,,,,,,,gray,circle
1308.0,4.0,4.0,0.0,2.0,2.0,366.7425160001585,3.0,1.0,phase_1,,,,,,,,,,,,,gray,circle
1282.0,8.0,4.0,1.0,2.0,2.0,440.3027119997205,3.0,1.0,phase_1,,,,,,,,,,,,,magenta,flipped triangle
145.0,1.0,1.0,0.0,1.0,1.0,364.9508600001354,3.0,1.0,phase_1,,,,,,,,,,,,,yellow,hexagon
0.0,8.0,0.0,1.0,1.0,1.0,336.9449090005219,3.0,1.0,phase_1,,,,,,,,,,,,,magenta,flipped triangle
332.0,2.0,2.0,0.0,2.0,2.0,477.8789060001145,3.0,1.0,phase_1,,,,,,,,,,,,,white,triangle
0.0,2.0,0.0,0.0,3.0,3.0,448.67719100057,3.0,1.0,phase_1,,,,,,,,,,,,,white,triangle
0.0,8.0,0.0,1.0,1.0,1.0,308.3897659998911,3.0,1.0,phase_1,,,,,,,,,,,,,magenta,flipped triangle
316.0,6.0,2.0,1.0,4.0,4.0,468.0538769998748,3.0,1.0,phase_1,,,,,,,,,,,,,blue,square
1308.0,4.0,4.0,0.0,1.0,1.0,345.966414999566,3.0,1.0,phase_1,,,,,,,,,,,,,gray,circle
0.0,7.0,0.0,1.0,3.0,3.0,394.0686650003044,3.0,1.0,phase_1,,,,,,,,,,,,,orange,I
320.0,6.0,2.0,1.0,1.0,1.0,316.442148000533,3.0,1.0,phase_1,,,,,,,,,,,,,blue,square
350.0,2.0,2.0,0.0,3.0,3.0,337.7705550001337,3.0,1.0,phase_1,,,,,,,,,,,,,white,triangle
0.0,1.0,0.0,0.0,3.0,3.0,375.0509729998157,3.0,1.0,phase_1,,,,,,,,,,,,,yellow,hexagon
0.0,4.0,0.0,0.0,4.0,4.0,336.151370999687,3.0,1.0,phase_1,,,,,,,,,,,,,gray,circle
159.0,1.0,1.0,0.0,3.0,3.0,336.9575299993812,3.0,1.0,phase_1,,,,,,,,,,,,,yellow,hexagon
161.0,5.0,1.0,1.0,4.0,4.0,439.9108710003929,3.0,1.0,phase_1,,,,,,,,,,,,,green,diamond
660.0,3.0,3.0,0.0,3.0,3.0,337.8736129998287,3.0,1.0,phase_1,,,,,,,,,,,,,cyan,cross
0.0,5.0,0.0,1.0,3.0,3.0,344.9347020005007,3.0,1.0,phase_1,,,,,,,,,,,,,green,diamond
0.0,4.0,0.0,0.0,4.0,4.0,356.2560840000515,3.0,1.0,phase_1,,,,,,,,,,,,,gray,circle
0.0,3.0,0.0,0.0,4.0,4.0,298.7421180005185,3.0,1.0,phase_1,,,,,,,,,,,,,cyan,cross
1286.0,4.0,4.0,0.0,1.0,1.0,541.4191299996673,3.0,1.0,phase_1,,,,,,,,,,,,,gray,circle
0.0,7.0,0.0,1.0,2.0,2.0,563.2738750000499,3.0,1.0,phase_1,,,,,,,,,,,,,orange,I
0.0,8.0,0.0,1.0,1.0,1.0,412.0127939995655,3.0,1.0,phase_1,,,,,,,,,,,,,magenta,flipped triangle
0.0,1.0,0.0,0.0,3.0,3.0,383.5759879993929,3.0,1.0,phase_1,,,,,,,,,,,,,yellow,hexagon
165.0,1.0,1.0,0.0,3.0,3.0,412.0301880002444,3.0,1.0,phase_1,,,,,,,,,,,,,yellow,hexagon
1284.0,4.0,4.0,0.0,4.0,4.0,337.8678059998492,3.0,1.0,phase_1,,,,,,,,,,,,,gray,circle
0.0,6.0,0.0,1.0,1.0,1.0,308.1274149999444,3.0,1.0,phase_1,,,,,,,,,,,,,blue,square
1301.0,4.0,4.0,0.0,1.0,1.0,383.2721439994202,3.0,1.0,phase_1,,,,,,,,,,,,,gray,circle
335.0,2.0,2.0,0.0,3.0,3.0,364.7539530002177,3.0,1.0,phase_1,,,,,,,,,,,,,white,triangle
636.0,7.0,3.0,1.0,4.0,4.0,439.1280970003208,3.0,1.0,phase_1,,,,,,,,,,,,,orange,I
660.0,7.0,3.0,1.0,2.0,2.0,447.7821629998288,3.0,1.0,phase_1,,,,,,,,,,,,,orange,I
631.0,3.0,3.0,0.0,4.0,4.0,318.1499749998693,3.0,1.0,phase_1,,,,,,,,,,,,,cyan,cross
1315.0,4.0,4.0,0.0,4.0,4.0,430.6600829995659,3.0,1.0,phase_1,,,,,,,,,,,,,gray,circle
1313.0,8.0,4.0,1.0,2.0,2.0,383.9416500004518,3.0,1.0,phase_1,,,,,,,,,,,,,magenta,flipped triangle
659.0,3.0,3.0,0.0,2.0,2.0,373.4685960007482,3.0,1.0,phase_1,,,,,,,,,,,,,cyan,cross
658.0,3.0,3.0,0.0,4.0,4.0,410.8296190006513,3.0,1.0,phase_1,,,,,,,,,,,,,cyan,cross
0.0,4.0,0.0,0.0,1.0,1.0,394.0874929994606,3.0,1.0,phase_1,,,,,,,,,,,,,gray,circle
317.0,6.0,2.0,1.0,1.0,1.0,421.15806899983,3.0,1.0,phase_1,,,,,,,,,,,,,blue,square
167.0,1.0,1.0,0.0,4.0,4.0,345.4098230004092,3.0,1.0,phase_1,,,,,,,,,,,,,yellow,hexagon
670.0,3.0,3.0,0.0,4.0,4.0,363.8944659996923,3.0,1.0,phase_1,,,,,,,,,,,,,cyan,cross
1303.0,4.0,4.0,0.0,1.0,1.0,413.8219399992522,3.0,1.0,phase_1,,,,,,,,,,,,,gray,circle
1303.0,8.0,4.0,1.0,1.0,1.0,542.2980720004489,3.0,1.0,phase_1,,,,,,,,,,,,,magenta,flipped triangle
1284.0,8.0,4.0,1.0,1.0,1.0,336.5964040003746,3.0,1.0,phase_1,,,,,,,,,,,,,magenta,flipped triangle
0.0,2.0,0.0,0.0,2.0,2.0,448.5141909999584,3.0,1.0,phase_1,,,,,,,,,,,,,white,triangle
330.0,6.0,2.0,1.0,3.0,3.0,420.9238230005212,3.0,1.0,phase_1,,,,,,,,,,,,,blue,square
659.0,7.0,3.0,1.0,3.0,3.0,393.222790999971,3.0,1.0,phase_1,,,,,,,,,,,,,orange,I
647.0,3.0,3.0,0.0,2.0,2.0,412.2275969994007,3.0,1.0,phase_1,,,,,,,,,,,,,cyan,cross
1284.0,4.0,4.0,0.0,4.0,4.0,327.5670979992355,3.0,1.0,phase_1,,,,,,,,,,,,,gray,circle
1276.0,4.0,4.0,0.0,2.0,2.0,345.9708280006452,3.0,1.0,phase_1,,,,,,,,,,,,,gray,circle
180.0,1.0,1.0,0.0,2.0,2.0,513.6800769996626,3.0,1.0,phase_1,,,,,,,,,,,,,yellow,hexagon
0.0,2.0,0.0,0.0,2.0,2.0,383.5188440007187,3.0,1.0,phase_1,,,,,,,,,,,,,white,triangle
313.0,2.0,2.0,0.0,4.0,4.0,385.7053390001965,3.0,1.0,phase_1,,,,,,,,,,,,,white,triangle
1321.0,4.0,4.0,0.0,4.0,4.0,347.441642999911,3.0,1.0,phase_1,,,,,,,,,,,,,gray,circle
663.0,3.0,3.0,0.0,1.0,1.0,458.6407789993245,3.0,1.0,phase_1,,,,,,,,,,,,,cyan,cross
326.0,2.0,2.0,0.0,1.0,1.0,431.3741019996087,3.0,1.0,phase_1,,,,,,,,,,,,,white,triangle
177.0,1.0,1.0,0.0,2.0,2.0,552.0677250005974,3.0,1.0,phase_1,,,,,,,,,,,,,yellow,hexagon
0.0,6.0,0.0,1.0,1.0,1.0,365.3097050000724,3.0,1.0,phase_1,,,,,,,,,,,,,blue,square
0.0,7.0,0.0,1.0,2.0,2.0,457.9757599994991,3.0,1.0,phase_1,,,,,,,,,,,,,orange,I
647.0,7.0,3.0,1.0,2.0,2.0,365.1310159993954,3.0,1.0,phase_1,,,,,,,,,,,,,orange,I
166.0,1.0,1.0,0.0,1.0,1.0,373.9285300007395,3.0,1.0,phase_1,,,,,,,,,,,,,yellow,hexagon
637.0,3.0,3.0,0.0,3.0,3.0,366.0734069999307,3.0,1.0,phase_1,,,,,,,,,,,,,cyan,cross
159.0,5.0,1.0,1.0,2.0,2.0,543.5204650002561,3.0,1.0,phase_1,,,,,,,,,,,,,green,diamond
335.0,6.0,2.0,1.0,2.0,2.0,384.2980609997539,3.0,1.0,phase_1,,,,,,,,,,,,,blue,square
659.0,3.0,3.0,0.0,1.0,1.0,393.8155790001474,3.0,1.0,phase_1,,,,,,,,,,,,,cyan,cross
670.0,7.0,3.0,1.0,3.0,3.0,300.5030780004745,3.0,1.0,phase_1,,,,,,,,,,,,,orange,I
1323.0,8.0,4.0,1.0,2.0,2.0,328.4398729992972,3.0,1.0,phase_1,,,,,,,,,,,,,magenta,flipped triangle
0.0,8.0,0.0,1.0,4.0,4.0,477.3980769996342,3.0,1.0,phase_1,,,,,,,,,,,,,magenta,flipped triangle
1284.0,4.0,4.0,0.0,1.0,1.0,392.8882840000369,3.0,1.0,phase_1,,,,,,,,,,,,,gray,circle
314.0,6.0,2.0,1.0,3.0,3.0,422.3497390003103,3.0,1.0,phase_1,,,,,,,,,,,,,blue,square
665.0,7.0,3.0,1.0,3.0,3.0,355.5992569999944,3.0,1.0,phase_1,,,,,,,,,,,,,orange,I
305.0,2.0,2.0,0.0,1.0,1.0,347.1420010000656,3.0,1.0,phase_1,,,,,,,,,,,,,white,triangle
0.0,1.0,0.0,0.0,4.0,4.0,346.511325999927,3.0,1.0,phase_1,,,,,,,,,,,,,yellow,hexagon
333.0,2.0,2.0,0.0,3.0,3.0,477.6859120001973,3.0,1.0,phase_1,,,,,,,,,,,,,white,triangle
153.0,5.0,1.0,1.0,2.0,2.0,394.4213180002407,3.0,1.0,phase_1,,,,,,,,,,,,,green,diamond
311.0,6.0,2.0,1.0,4.0,4.0,318.8654239993411,3.0,1.0,phase_1,,,,,,,,,,,,,blue,square
168.0,1.0,1.0,0.0,3.0,3.0,364.7417419997509,3.0,1.0,phase_1,,,,,,,,,,,,,yellow,hexagon
166.0,5.0,1.0,1.0,3.0,3.0,393.1476489997294,3.0,1.0,phase_1,,,,,,,,,,,,,green,diamond
669.0,3.0,3.0,0.0,4.0,4.0,388.5395260003861,3.0,1.0,phase_1,,,,,,,,,,,,,cyan,cross
1284.0,8.0,4.0,1.0,3.0,3.0,374.7097639998173,3.0,1.0,phase_1,,,,,,,,,,,,,magenta,flipped triangle
1323.0,4.0,4.0,0.0,3.0,3.0,346.9036599999526,3.0,1.0,phase_1,,,,,,,,,,,,,gray,circle
1297.0,8.0,4.0,1.0,4.0,4.0,432.2380599996904,3.0,1.0,phase_1,,,,,,,,,,,,,magenta,flipped triangle
1286.0,8.0,4.0,1.0,1.0,1.0,515.4090159994666,3.0,1.0,phase_1,,,,,,,,,,,,,magenta,flipped triangle
0.0,7.0,0.0,1.0,3.0,3.0,336.5416110000296,3.0,1.0,phase_1,,,,,,,,,,,,,orange,I
0.0,6.0,0.0,1.0,3.0,3.0,329.6380230003706,3.0,1.0,phase_1,,,,,,,,,,,,,blue,square
1313.0,8.0,4.0,1.0,1.0,1.0,431.9910159993014,3.0,1.0,phase_1,,,,,,,,,,,,,magenta,flipped triangle
339.0,2.0,2.0,0.0,4.0,4.0,489.4439710005827,4.0,1.0,phase_1,,,,,,,,,,,,,white,triangle
1292.0,8.0,4.0,1.0,3.0,3.0,374.8958539999876,4.0,1.0,phase_1,,,,,,,,,,,,,magenta,flipped triangle
182.0,5.0,1.0,1.0,3.0,3.0,337.9950799999278,4.0,1.0,phase_1,,,,,,,,,,,,,green,diamond
143.0,1.0,1.0,0.0,2.0,2.0,374.6002380003119,4.0,1.0,phase_1,,,,,,,,,,,,,yellow,hexagon
153.0,1.0,1.0,0.0,1.0,1.0,440.5446350001512,4.0,1.0,phase_1,,,,,,,,,,,,,yellow,hexagon
176.0,5.0,1.0,1.0,2.0,2.0,393.8879289999022,4.0,1.0,phase_1,,,,,,,,,,,,,green,diamond
324.0,6.0,2.0,1.0,3.0,3.0,317.9893470005481,4.0,1.0,phase_1,,,,,,,,,,,,,blue,square
341.0,6.0,2.0,1.0,3.0,3.0,299.2058390000238,4.0,1.0,phase_1,,,,,,,,,,,,,blue,square
628.0,3.0,3.0,0.0,4.0,4.0,356.3301890008006,4.0,1.0,phase_1,,,,,,,,,,,,,cyan,cross
306.0,6.0,2.0,1.0,2.0,2.0,422.29373999998637,4.0,1.0,phase_1,,,,,,,,,,,,,blue,square
669.0,7.0,3.0,1.0,1.0,1.0,356.7884849999245,4.0,1.0,phase_1,,,,,,,,,,,,,orange,I
660.0,3.0,3.0,0.0,4.0,4.0,328.8101210000604,4.0,1.0,phase_1,,,,,,,,,,,,,cyan,cross
664.0,3.0,3.0,0.0,2.0,2.0,365.7599970001683,4.0,1.0,phase_1,,,,,,,,,,,,,cyan,cross
1298.0,4.0,4.0,0.0,3.0,3.0,402.0782210000106,4.0,1.0,phase_1,,,,,,,,,,,,,gray,circle
1296.0,8.0,4.0,1.0,4.0,4.0,348.1123970004773,4.0,1.0,phase_1,,,,,,,,,,,,,magenta,flipped triangle
317.0,2.0,2.0,0.0,2.0,2.0,543.5301649995381,4.0,1.0,phase_1,,,,,,,,,,,,,white,triangle
659.0,7.0,3.0,1.0,1.0,1.0,486.8459400004212,4.0,1.0,phase_1,,,,,,,,,,,,,orange,I
349.0,2.0,2.0,0.0,4.0,4.0,365.4805090000081,4.0,1.0,phase_1,,,,,,,,,,,,,white,triangle
641.0,3.0,3.0,0.0,3.0,3.0,468.9892859996689,4.0,1.0,phase_1,,,,,,,,,,,,,cyan,cross
0.0,6.0,0.0,1.0,4.0,4.0,384.2438849997052,4.0,1.0,phase_1,,,,,,,,,,,,,blue,square
0.0,3.0,0.0,0.0,2.0,2.0,366.2363319999713,4.0,1.0,phase_1,,,,,,,,,,,,,cyan,cross
304.0,6.0,2.0,1.0,3.0,3.0,330.2097229998253,4.0,1.0,phase_1,,,,,,,,,,,,,blue,square
0.0,4.0,0.0,0.0,2.0,2.0,338.8121070001944,4.0,1.0,phase_1,,,,,,,,,,,,,gray,circle
147.0,1.0,1.0,0.0,2.0,2.0,468.3988719998524,4.0,1.0,phase_1,,,,,,,,,,,,,yellow,hexagon
628.0,7.0,3.0,1.0,1.0,1.0,394.3461749995549,4.0,1.0,phase_1,,,,,,,,,,,,,orange,I
0.0,6.0,0.0,1.0,4.0,4.0,309.643691999554,4.0,1.0,phase_1,,,,,,,,,,,,,blue,square
658.0,7.0,3.0,1.0,1.0,1.0,355.6541719999586,4.0,1.0,phase_1,,,,,,,,,,,,,orange,I
1307.0,4.0,4.0,0.0,2.0,2.0,421.5657510003439,4.0,1.0,phase_1,,,,,,,,,,,,,gray,circle
1320.0,8.0,4.0,1.0,2.0,2.0,430.9539109999605,4.0,1.0,phase_1,,,,,,,,,,,,,magenta,flipped triangle
1280.0,8.0,4.0,1.0,3.0,3.0,367.4139570002808,4.0,1.0,phase_1,,,,,,,,,,,,,magenta,flipped triangle
0.0,5.0,0.0,1.0,3.0,3.0,393.3260020003217,4.0,1.0,phase_1,,,,,,,,,,,,,green,diamond
341.0,2.0,2.0,0.0,1.0,1.0,383.4313569996084,4.0,1.0,phase_1,,,,,,,,,,,,,white,triangle
1284.0,8.0,4.0,1.0,3.0,3.0,514.8395820006044,4.0,1.0,phase_1,,,,,,,,,,,,,magenta,flipped triangle
1305.0,4.0,4.0,0.0,2.0,2.0,413.151110000399,4.0,1.0,phase_1,,,,,,,,,,,,,gray,circle
177.0,1.0,1.0,0.0,4.0,4.0,373.8295920002201,4.0,1.0,phase_1,,,,,,,,,,,,,yellow,hexagon
653.0,3.0,3.0,0.0,1.0,1.0,356.5997809992041,4.0,1.0,phase_1,,,,,,,,,,,,,cyan,cross
0.0,2.0,0.0,0.0,2.0,2.0,346.5726369995536,4.0,1.0,phase_1,,,,,,,,,,,,,white,triangle
1282.0,4.0,4.0,0.0,4.0,4.0,329.4989539999733,4.0,1.0,phase_1,,,,,,,,,,,,,gray,circle
167.0,5.0,1.0,1.0,1.0,1.0,290.4361969995079,4.0,1.0,phase_1,,,,,,,,,,,,,green,diamond
181.0,5.0,1.0,1.0,3.0,3.0,385.1709110003867,4.0,1.0,phase_1,,,,,,,,,,,,,green,diamond
322.0,2.0,2.0,0.0,1.0,1.0,337.9203920003419,4.0,1.0,phase_1,,,,,,,,,,,,,white,triangle
320.0,2.0,2.0,0.0,2.0,2.0,458.026350000182,4.0,1.0,phase_1,,,,,,,,,,,,,white,triangle
653.0,7.0,3.0,1.0,2.0,2.0,468.4647739995853,4.0,1.0,phase_1,,,,,,,,,,,,,orange,I
350.0,6.0,2.0,1.0,4.0,4.0,402.3542919994725,4.0,1.0,phase_1,,,,,,,,,,,,,blue,square
640.0,7.0,3.0,1.0,4.0,4.0,486.0443059997124,4.0,1.0,phase_1,,,,,,,,,,,,,orange,I
650.0,3.0,3.0,0.0,1.0,1.0,346.5945830002965,4.0,1.0,phase_1,,,,,,,,,,,,,cyan,cross
1278.0,8.0,4.0,1.0,4.0,4.0,366.2210519996733,4.0,1.0,phase_1,,,,,,,,,,,,,magenta,flipped triangle
173.0,5.0,1.0,1.0,1.0,1.0,347.7748269997391,4.0,1.0,phase_1,,,,,,,,,,,,,green,diamond
0.0,2.0,0.0,0.0,2.0,2.0,505.47103199915,4.0,1.0,phase_1,,,,,,,,,,,,,white,triangle
0.0,5.0,0.0,1.0,3.0,3.0,357.1201249997102,4.0,1.0,phase_1,,,,,,,,,,,,,green,diamond
1317.0,8.0,4.0,1.0,1.0,1.0,365.2889759996469,4.0,1.0,phase_1,,,,,,,,,,,,,magenta,flipped triangle
628.0,7.0,3.0,1.0,3.0,3.0,367.2586570000931,4.0,1.0,phase_1,,,,,,,,,,,,,orange,I
162.0,1.0,1.0,0.0,2.0,2.0,356.398655000703,4.0,1.0,phase_1,,,,,,,,,,,,,yellow,hexagon
137.0,1.0,1.0,0.0,2.0,2.0,423.1488049999825,4.0,1.0,phase_1,,,,,,,,,,,,,yellow,hexagon
648.0,3.0,3.0,0.0,2.0,2.0,328.083708000122,4.0,1.0,phase_1,,,,,,,,,,,,,cyan,cross
0.0,5.0,0.0,1.0,2.0,2.0,337.7399169994532,4.0,1.0,phase_1,,,,,,,,,,,,,green,diamond
174.0,1.0,1.0,0.0,4.0,4.0,308.4910249999666,4.0,1.0,phase_1,,,,,,,,,,,,,yellow,hexagon
0.0,8.0,0.0,1.0,1.0,1.0,309.6818179992624,4.0,1.0,phase_1,,,,,,,,,,,,,magenta,flipped triangle
1315.0,8.0,4.0,1.0,1.0,1.0,394.0575670003454,4.0,1.0,phase_1,,,,,,,,,,,,,magenta,flipped triangle
180.0,5.0,1.0,1.0,4.0,4.0,375.3464769997663,4.0,1.0,phase_1,,,,,,,,,,,,,green,diamond
344.0,2.0,2.0,0.0,4.0,4.0,571.3686109993432,4.0,1.0,phase_1,,,,,,,,,,,,,white,triangle
186.0,1.0,1.0,0.0,3.0,3.0,412.2027690000323,4.0,1.0,phase_1,,,,,,,,,,,,,yellow,hexagon
311.0,2.0,2.0,0.0,2.0,2.0,413.1838809998953,4.0,1.0,phase_1,,,,,,,,,,,,,white,triangle
0.0,3.0,0.0,0.0,3.0,3.0,336.375818000306,4.0,1.0,phase_1,,,,,,,,,,,,,cyan,cross
0.0,6.0,0.0,1.0,2.0,2.0,317.5976480006284,4.0,1.0,phase_1,,,,,,,,,,,,,blue,square
0.0,2.0,0.0,0.0,1.0,1.0,385.0717900004383,4.0,1.0,phase_1,,,,,,,,,,,,,white,triangle
161.0,1.0,1.0,0.0,1.0,1.0,300.1208700006827,4.0,1.0,phase_1,,,,,,,,,,,,,yellow,hexagon
168.0,5.0,1.0,1.0,3.0,3.0,384.3240399992282,4.0,1.0,phase_1,,,,,,,,,,,,,green,diamond
1293.0,8.0,4.0,1.0,2.0,2.0,504.7894079998514,4.0,1.0,phase_1,,,,,,,,,,,,,magenta,flipped triangle
664.0,7.0,3.0,1.0,2.0,2.0,402.6387619996967,4.0,1.0,phase_1,,,,,,,,,,,,,orange,I
629.0,3.0,3.0,0.0,1.0,1.0,318.3123940007135,4.0,1.0,phase_1,,,,,,,,,,,,,cyan,cross
164.0,1.0,1.0,0.0,4.0,4.0,384.534738000184,4.0,1.0,phase_1,,,,,,,,,,,,,yellow,hexagon
1324.0,4.0,4.0,0.0,4.0,4.0,402.449670000351,4.0,1.0,phase_1,,,,,,,,,,,,,gray,circle
1284.0,4.0,4.0,0.0,2.0,2.0,383.90021899977,4.0,1.0,phase_1,,,,,,,,,,,,,gray,circle
349.0,2.0,2.0,0.0,2.0,2.0,327.6245070001096,4.0,1.0,phase_1,,,,,,,,,,,,,white,triangle
0.0,3.0,0.0,0.0,2.0,2.0,318.8293769999291,4.0,1.0,phase_1,,,,,,,,,,,,,cyan,cross
1298.0,8.0,4.0,1.0,2.0,2.0,355.0784310000381,4.0,1.0,phase_1,,,,,,,,,,,,,magenta,flipped triangle
0.0,5.0,0.0,1.0,4.0,4.0,384.1127339992454,4.0,1.0,phase_1,,,,,,,,,,,,,green,diamond
1313.0,4.0,4.0,0.0,3.0,3.0,374.8650679999628,4.0,1.0,phase_1,,,,,,,,,,,,,gray,circle
1313.0,8.0,4.0,1.0,2.0,2.0,521.396072999778,4.0,1.0,phase_1,,,,,,,,,,,,,magenta,flipped triangle
159.0,1.0,1.0,0.0,1.0,1.0,394.1582719999132,4.0,2.0,phase_1,,,,,,,,,,,,,yellow,hexagon
1307.0,8.0,4.0,1.0,4.0,4.0,364.5639919996029,4.0,1.0,phase_1,,,,,,,,,,,,,magenta,flipped triangle
340.0,2.0,2.0,0.0,1.0,1.0,355.6625119999808,4.0,1.0,phase_1,,,,,,,,,,,,,white,triangle
1321.0,8.0,4.0,1.0,4.0,4.0,382.8274360002979,4.0,1.0,phase_1,,,,,,,,,,,,,magenta,flipped triangle
1308.0,8.0,4.0,1.0,4.0,4.0,423.7861379997412,4.0,1.0,phase_1,,,,,,,,,,,,,magenta,flipped triangle
0.0,4.0,0.0,0.0,2.0,2.0,441.1847370001851,4.0,1.0,phase_1,,,,,,,,,,,,,gray,circle
0.0,3.0,0.0,0.0,4.0,4.0,338.32368900039,4.0,1.0,phase_1,,,,,,,,,,,,,cyan,cross
150.0,1.0,1.0,0.0,1.0,1.0,468.5629039995547,4.0,1.0,phase_1,,,,,,,,,,,,,yellow,hexagon
304.0,6.0,2.0,1.0,1.0,1.0,356.3803540000663,4.0,1.0,phase_1,,,,,,,,,,,,,blue,square
174.0,5.0,1.0,1.0,4.0,4.0,384.49823600058147,4.0,1.0,phase_1,,,,,,,,,,,,,green,diamond
639.0,3.0,3.0,0.0,2.0,2.0,375.3110120005658,4.0,1.0,phase_1,,,,,,,,,,,,,cyan,cross
165.0,5.0,1.0,1.0,4.0,4.0,327.2677160002786,4.0,1.0,phase_1,,,,,,,,,,,,,green,diamond
305.0,6.0,2.0,1.0,2.0,2.0,363.9400680003746,4.0,1.0,phase_1,,,,,,,,,,,,,blue,square
182.0,1.0,1.0,0.0,3.0,3.0,412.2862379999787,4.0,1.0,phase_1,,,,,,,,,,,,,yellow,hexagon
1291.0,8.0,4.0,1.0,4.0,4.0,432.4668090002888,4.0,1.0,phase_1,,,,,,,,,,,,,magenta,flipped triangle
0.0,1.0,0.0,0.0,3.0,3.0,429.9954839998463,4.0,1.0,phase_1,,,,,,,,,,,,,yellow,hexagon
301.0,2.0,2.0,0.0,3.0,3.0,384.3324219997157,4.0,1.0,phase_1,,,,,,,,,,,,,white,triangle
1286.0,4.0,4.0,0.0,3.0,3.0,355.3958000002239,4.0,1.0,phase_1,,,,,,,,,,,,,gray,circle
318.0,6.0,2.0,1.0,4.0,4.0,393.3769450004547,4.0,1.0,phase_1,,,,,,,,,,,,,blue,square
137.0,5.0,1.0,1.0,4.0,4.0,374.1192909992605,4.0,1.0,phase_1,,,,,,,,,,,,,green,diamond
0.0,2.0,2.0,0.0,5.0,5.0,385.0633120000566,1.0,1.0,phase_2,go,250.0,250.0,1.0,,,,,,,,,white,triangle
0.0,5.0,1.0,1.0,6.0,6.0,918.7026909994528,1.0,1.0,phase_2,go,250.0,250.0,1.0,,,,,,,,,green,diamond
0.0,4.0,4.0,0.0,6.0,6.0,750.7060819998514,1.0,1.0,phase_2,go,250.0,250.0,1.0,,,,,,,,,gray,circle
0.0,6.0,2.0,1.0,5.0,0.0,0.0,1.0,1.0,phase_2,stop,250.0,250.0,4.0,,,,,,,,,blue,square
0.0,6.0,2.0,1.0,6.0,6.0,298.9057849999881,1.0,1.0,phase_2,stop,300.0,250.0,3.0,,,,,,,,,blue,square
0.0,5.0,1.0,1.0,6.0,6.0,423.5977959997399,1.0,1.0,phase_2,go,300.0,200.0,1.0,,,,,,,,,green,diamond
0.0,8.0,4.0,1.0,5.0,0.0,0.0,1.0,1.0,phase_2,stop,300.0,200.0,4.0,,,,,,,,,magenta,flipped triangle
0.0,4.0,4.0,0.0,5.0,5.0,547.4428069992427,1.0,1.0,phase_2,go,350.0,200.0,1.0,,,,,,,,,gray,circle
0.0,2.0,2.0,0.0,6.0,6.0,744.5524830000068,1.0,1.0,phase_2,go,350.0,200.0,1.0,,,,,,,,,white,triangle
0.0,7.0,3.0,1.0,5.0,0.0,0.0,1.0,1.0,phase_2,stop,350.0,200.0,4.0,,,,,,,,,orange,I
0.0,4.0,4.0,0.0,6.0,6.0,320.465065999997,1.0,1.0,phase_2,go,400.0,200.0,1.0,,,,,,,,,gray,circle
0.0,3.0,3.0,0.0,6.0,6.0,322.3097230002167,1.0,1.0,phase_2,go,400.0,200.0,1.0,,,,,,,,,cyan,cross
0.0,8.0,4.0,1.0,6.0,6.0,363.5701439998229,1.0,1.0,phase_2,stop,400.0,200.0,3.0,,,,,,,,,magenta,flipped triangle
0.0,1.0,1.0,0.0,5.0,5.0,858.4234930003731,1.0,1.0,phase_2,go,400.0,150.0,1.0,,,,,,,,,yellow,hexagon
0.0,8.0,4.0,1.0,5.0,5.0,679.7951070002455,1.0,1.0,phase_2,go,400.0,150.0,1.0,,,,,,,,,magenta,flipped triangle
0.0,5.0,1.0,1.0,5.0,0.0,0.0,1.0,1.0,phase_2,stop,400.0,150.0,4.0,,,,,,,,,green,diamond
0.0,5.0,1.0,1.0,6.0,6.0,630.45939299991,1.0,1.0,phase_2,go,450.0,150.0,1.0,,,,,,,,,green,diamond
0.0,2.0,2.0,0.0,5.0,5.0,630.0562030000947,1.0,1.0,phase_2,go,450.0,150.0,1.0,,,,,,,,,white,triangle
0.0,5.0,1.0,1.0,5.0,5.0,592.3333719993025,1.0,1.0,phase_2,stop,450.0,150.0,3.0,,,,,,,,,green,diamond
0.0,1.0,1.0,0.0,6.0,6.0,735.5538250003519,1.0,1.0,phase_2,go,400.0,150.0,1.0,,,,,,,,,yellow,hexagon
0.0,3.0,3.0,0.0,6.0,6.0,747.1608599998945,1.0,1.0,phase_2,go,400.0,150.0,1.0,,,,,,,,,cyan,cross
0.0,2.0,2.0,0.0,6.0,6.0,773.0313440006285,1.0,1.0,phase_2,go,400.0,150.0,1.0,,,,,,,,,white,triangle
0.0,8.0,4.0,1.0,6.0,6.0,820.4184699998223,1.0,1.0,phase_2,go,400.0,150.0,1.0,,,,,,,,,magenta,flipped triangle
0.0,7.0,3.0,1.0,5.0,0.0,0.0,1.0,1.0,phase_2,stop,400.0,150.0,4.0,,,,,,,,,orange,I
0.0,2.0,2.0,0.0,5.0,5.0,700.7159289996707,1.0,1.0,phase_2,go,450.0,150.0,1.0,,,,,,,,,white,triangle
0.0,2.0,2.0,0.0,5.0,5.0,791.9281509994107,1.0,1.0,phase_2,go,450.0,150.0,1.0,,,,,,,,,white,triangle
0.0,4.0,4.0,0.0,5.0,5.0,811.419983999258,1.0,1.0,phase_2,go,450.0,150.0,1.0,,,,,,,,,gray,circle
0.0,1.0,1.0,0.0,6.0,6.0,717.325026999788,1.0,1.0,phase_2,go,450.0,150.0,1.0,,,,,,,,,yellow,hexagon
0.0,8.0,4.0,1.0,5.0,0.0,0.0,1.0,1.0,phase_2,stop,450.0,150.0,4.0,,,,,,,,,magenta,flipped triangle
0.0,3.0,3.0,0.0,5.0,5.0,527.7829239994389,1.0,1.0,phase_2,go,500.0,150.0,1.0,,,,,,,,,cyan,cross
0.0,3.0,3.0,0.0,5.0,5.0,699.4627009999022,1.0,1.0,phase_2,go,500.0,150.0,1.0,,,,,,,,,cyan,cross
0.0,7.0,3.0,1.0,6.0,0.0,0.0,1.0,1.0,phase_2,stop,500.0,150.0,4.0,,,,,,,,,orange,I
0.0,4.0,4.0,0.0,5.0,5.0,424.8777539996808,1.0,1.0,phase_2,go,500.0,200.0,1.0,,,,,,,,,gray,circle
0.0,7.0,3.0,1.0,6.0,6.0,340.2309989996865,1.0,1.0,phase_2,stop,500.0,200.0,3.0,,,,,,,,,orange,I
0.0,1.0,1.0,0.0,6.0,6.0,689.0421880007125,1.0,1.0,phase_2,go,500.0,150.0,1.0,,,,,,,,,yellow,hexagon
0.0,5.0,1.0,1.0,5.0,0.0,0.0,1.0,1.0,phase_2,stop,500.0,150.0,4.0,,,,,,,,,green,diamond
0.0,4.0,4.0,0.0,6.0,6.0,471.8545509995238,2.0,1.0,phase_2,go,550.0,150.0,1.0,,,,,,,,,gray,circle
0.0,8.0,4.0,1.0,6.0,6.0,333.5847409998678,2.0,1.0,phase_2,stop,550.0,150.0,3.0,,,,,,,,,magenta,flipped triangle
0.0,2.0,2.0,0.0,5.0,5.0,579.6266090001154,2.0,1.0,phase_2,go,550.0,100.0,1.0,,,,,,,,,white,triangle
0.0,6.0,2.0,1.0,5.0,5.0,332.6985530002275,2.0,1.0,phase_2,stop,550.0,100.0,3.0,,,,,,,,,blue,square
0.0,2.0,2.0,0.0,6.0,6.0,464.0489200000957,2.0,1.0,phase_2,go,500.0,100.0,1.0,,,,,,,,,white,triangle
0.0,3.0,3.0,0.0,6.0,6.0,643.9011419997769,2.0,1.0,phase_2,go,500.0,100.0,1.0,,,,,,,,,cyan,cross
0.0,3.0,3.0,0.0,5.0,5.0,681.0850219999338,2.0,1.0,phase_2,go,500.0,100.0,1.0,,,,,,,,,cyan,cross
0.0,6.0,2.0,1.0,6.0,0.0,0.0,2.0,1.0,phase_2,stop,500.0,100.0,4.0,,,,,,,,,blue,square
0.0,4.0,4.0,0.0,5.0,5.0,284.8229430001083,2.0,1.0,phase_2,go,500.0,150.0,1.0,,,,,,,,,gray,circle
0.0,7.0,3.0,1.0,5.0,5.0,311.3520169999901,2.0,1.0,phase_2,stop,500.0,150.0,3.0,,,,,,,,,orange,I
0.0,3.0,3.0,0.0,6.0,6.0,558.4156859995346,2.0,1.0,phase_2,go,450.0,150.0,1.0,,,,,,,,,cyan,cross
0.0,8.0,4.0,1.0,6.0,6.0,363.871626999753,2.0,1.0,phase_2,stop,450.0,150.0,3.0,,,,,,,,,magenta,flipped triangle
0.0,1.0,1.0,0.0,6.0,6.0,680.2092660000199,2.0,1.0,phase_2,go,450.0,100.0,1.0,,,,,,,,,yellow,hexagon
0.0,6.0,2.0,1.0,5.0,5.0,510.8139559997653,2.0,1.0,phase_2,go,450.0,100.0,1.0,,,,,,,,,blue,square
0.0,1.0,1.0,0.0,5.0,5.0,653.2592470002783,2.0,1.0,phase_2,go,450.0,100.0,1.0,,,,,,,,,yellow,hexagon
0.0,6.0,2.0,1.0,5.0,0.0,0.0,2.0,1.0,phase_2,stop,450.0,100.0,4.0,,,,,,,,,blue,square
0.0,2.0,2.0,0.0,6.0,6.0,329.4882939999297,2.0,1.0,phase_2,go,500.0,100.0,1.0,,,,,,,,,white,triangle
0.0,4.0,4.0,0.0,6.0,6.0,359.4385199994576,2.0,1.0,phase_2,go,500.0,100.0,1.0,,,,,,,,,gray,circle
0.0,8.0,4.0,1.0,5.0,5.0,340.4329019995202,2.0,1.0,phase_2,stop,500.0,100.0,3.0,,,,,,,,,magenta,flipped triangle
0.0,4.0,4.0,0.0,6.0,6.0,434.3732929992256,2.0,1.0,phase_2,go,450.0,100.0,1.0,,,,,,,,,gray,circle
0.0,6.0,2.0,1.0,6.0,0.0,0.0,2.0,1.0,phase_2,stop,450.0,100.0,4.0,,,,,,,,,blue,square
0.0,6.0,2.0,1.0,5.0,5.0,284.6921580003254,2.0,1.0,phase_2,go,450.0,150.0,1.0,,,,,,,,,blue,square
0.0,4.0,4.0,0.0,5.0,5.0,434.1779759997735,2.0,1.0,phase_2,go,450.0,150.0,1.0,,,,,,,,,gray,circle
0.0,7.0,3.0,1.0,5.0,5.0,330.3866139995079,2.0,1.0,phase_2,go,450.0,150.0,1.0,,,,,,,,,orange,I
0.0,6.0,2.0,1.0,6.0,6.0,463.7777690004441,2.0,1.0,phase_2,go,450.0,150.0,1.0,,,,,,,,,blue,square
0.0,3.0,3.0,0.0,6.0,6.0,341.7695150001236,2.0,1.0,phase_2,go,450.0,150.0,1.0,,,,,,,,,cyan,cross
0.0,4.0,4.0,0.0,5.0,5.0,369.9187160000292,2.0,1.0,phase_2,go,450.0,150.0,1.0,,,,,,,,,gray,circle
0.0,5.0,1.0,1.0,6.0,0.0,0.0,2.0,1.0,phase_2,stop,450.0,150.0,4.0,,,,,,,,,green,diamond
0.0,7.0,3.0,1.0,5.0,5.0,434.711032999985,2.0,1.0,phase_2,stop,450.0,200.0,3.0,,,,,,,,,orange,I
0.0,1.0,1.0,0.0,5.0,5.0,492.0630930000698,2.0,1.0,phase_2,go,400.0,200.0,1.0,,,,,,,,,yellow,hexagon
0.0,7.0,3.0,1.0,6.0,6.0,336.6373420003583,2.0,1.0,phase_2,stop,400.0,200.0,3.0,,,,,,,,,orange,I
0.0,6.0,2.0,1.0,5.0,5.0,389.183647000209,2.0,1.0,phase_2,go,400.0,150.0,1.0,,,,,,,,,blue,square
0.0,4.0,4.0,0.0,6.0,6.0,396.2882790001458,2.0,1.0,phase_2,go,400.0,150.0,1.0,,,,,,,,,gray,circle
0.0,7.0,3.0,1.0,6.0,6.0,416.3293869996778,2.0,1.0,phase_2,go,400.0,150.0,1.0,,,,,,,,,orange,I
0.0,7.0,3.0,1.0,5.0,5.0,387.3964129998057,2.0,1.0,phase_2,stop,400.0,150.0,3.0,,,,,,,,,orange,I
0.0,8.0,4.0,1.0,6.0,0.0,0.0,2.0,1.0,phase_2,stop,350.0,150.0,4.0,,,,,,,,,magenta,flipped triangle
0.0,8.0,4.0,1.0,6.0,0.0,0.0,3.0,1.0,phase_2,stop,350.0,200.0,4.0,,,,,,,,,magenta,flipped triangle
0.0,2.0,2.0,0.0,6.0,6.0,349.966126000254,3.0,1.0,phase_2,go,350.0,250.0,1.0,,,,,,,,,white,triangle
0.0,2.0,2.0,0.0,5.0,5.0,302.6390830000309,3.0,1.0,phase_2,go,350.0,250.0,1.0,,,,,,,,,white,triangle
0.0,7.0,3.0,1.0,6.0,6.0,341.6378200008694,3.0,1.0,phase_2,stop,350.0,250.0,3.0,,,,,,,,,orange,I
0.0,7.0,3.0,1.0,6.0,0.0,0.0,3.0,1.0,phase_2,stop,350.0,200.0,4.0,,,,,,,,,orange,I
0.0,5.0,1.0,1.0,5.0,5.0,284.6641980004278,3.0,1.0,phase_2,stop,350.0,250.0,3.0,,,,,,,,,green,diamond
0.0,1.0,1.0,0.0,6.0,6.0,360.2208679994874,3.0,1.0,phase_2,go,300.0,250.0,1.0,,,,,,,,,yellow,hexagon
0.0,1.0,1.0,0.0,6.0,6.0,350.7624509993547,3.0,1.0,phase_2,go,300.0,250.0,1.0,,,,,,,,,yellow,hexagon
0.0,2.0,2.0,0.0,5.0,5.0,293.8195930000802,3.0,1.0,phase_2,go,300.0,250.0,1.0,,,,,,,,,white,triangle
0.0,8.0,4.0,1.0,5.0,5.0,343.499910999526,3.0,1.0,phase_2,stop,300.0,250.0,3.0,,,,,,,,,magenta,flipped triangle
0.0,4.0,4.0,0.0,6.0,6.0,371.8293940000876,3.0,1.0,phase_2,go,250.0,250.0,1.0,,,,,,,,,gray,circle
0.0,7.0,3.0,1.0,5.0,5.0,304.9277070003882,3.0,1.0,phase_2,go,250.0,250.0,1.0,,,,,,,,,orange,I
0.0,6.0,2.0,1.0,5.0,0.0,0.0,3.0,1.0,phase_2,stop,250.0,250.0,4.0,,,,,,,,,blue,square
0.0,2.0,2.0,0.0,5.0,5.0,473.2268640000256,3.0,1.0,phase_2,go,300.0,250.0,1.0,,,,,,,,,white,triangle
0.0,8.0,4.0,1.0,6.0,6.0,311.9372380006098,3.0,1.0,phase_2,go,300.0,250.0,1.0,,,,,,,,,magenta,flipped triangle
0.0,8.0,4.0,1.0,5.0,5.0,293.5509099997944,3.0,1.0,phase_2,stop,300.0,250.0,3.0,,,,,,,,,magenta,flipped triangle
0.0,1.0,1.0,0.0,5.0,5.0,350.2512760005629,3.0,1.0,phase_2,go,250.0,250.0,1.0,,,,,,,,,yellow,hexagon
0.0,2.0,2.0,0.0,5.0,5.0,332.7074110002286,3.0,1.0,phase_2,go,250.0,250.0,1.0,,,,,,,,,white,triangle
0.0,5.0,1.0,1.0,5.0,5.0,293.4262230000968,3.0,1.0,phase_2,stop,250.0,250.0,3.0,,,,,,,,,green,diamond
0.0,5.0,1.0,1.0,6.0,6.0,352.4359479997656,3.0,1.0,phase_2,stop,200.0,250.0,3.0,,,,,,,,,green,diamond
0.0,8.0,4.0,1.0,5.0,5.0,343.7953049997304,3.0,1.0,phase_2,stop,200.0,200.0,3.0,,,,,,,,,magenta,flipped triangle
0.0,5.0,1.0,1.0,6.0,6.0,331.1916489992654,3.0,1.0,phase_2,go,150.0,200.0,1.0,,,,,,,,,green,diamond
0.0,1.0,1.0,0.0,6.0,6.0,492.9221410002355,3.0,1.0,phase_2,go,150.0,200.0,1.0,,,,,,,,,yellow,hexagon
0.0,5.0,1.0,1.0,6.0,0.0,0.0,3.0,1.0,phase_2,stop,150.0,200.0,4.0,,,,,,,,,green,diamond
0.0,8.0,4.0,1.0,6.0,6.0,353.3451389994297,3.0,1.0,phase_2,stop,150.0,250.0,3.0,,,,,,,,,magenta,flipped triangle
0.0,3.0,3.0,0.0,6.0,6.0,349.6226679999381,3.0,1.0,phase_2,go,150.0,200.0,1.0,,,,,,,,,cyan,cross
0.0,7.0,3.0,1.0,6.0,6.0,415.4755139998087,3.0,1.0,phase_2,go,150.0,200.0,1.0,,,,,,,,,orange,I
0.0,6.0,2.0,1.0,6.0,6.0,322.9767250004443,3.0,1.0,phase_2,stop,150.0,200.0,3.0,,,,,,,,,blue,square
0.0,6.0,2.0,1.0,5.0,5.0,340.1913580000837,3.0,1.0,phase_2,go,150.0,150.0,1.0,,,,,,,,,blue,square
0.0,3.0,3.0,0.0,5.0,5.0,331.6319820005446,3.0,1.0,phase_2,go,150.0,150.0,1.0,,,,,,,,,cyan,cross
0.0,8.0,4.0,1.0,5.0,5.0,330.3561669999908,3.0,1.0,phase_2,go,150.0,150.0,1.0,,,,,,,,,magenta,flipped triangle
0.0,1.0,1.0,0.0,6.0,6.0,396.3417630002368,3.0,1.0,phase_2,go,150.0,150.0,1.0,,,,,,,,,yellow,hexagon
0.0,1.0,1.0,0.0,6.0,6.0,377.7171089996045,3.0,1.0,phase_2,go,150.0,150.0,1.0,,,,,,,,,yellow,hexagon
0.0,5.0,1.0,1.0,5.0,0.0,0.0,3.0,1.0,phase_2,stop,150.0,150.0,4.0,,,,,,,,,green,diamond
0.0,1.0,1.0,0.0,6.0,6.0,448.9490759997352,3.0,1.0,phase_2,go,200.0,150.0,1.0,,,,,,,,,yellow,hexagon
0.0,6.0,2.0,1.0,6.0,0.0,0.0,3.0,1.0,phase_2,stop,200.0,150.0,4.0,,,,,,,,,blue,square
0.0,1.0,1.0,0.0,5.0,5.0,567.259878999721,4.0,1.0,phase_2,go,200.0,200.0,1.0,,,,,,,,,yellow,hexagon
0.0,4.0,4.0,0.0,5.0,5.0,434.611589999804,4.0,1.0,phase_2,go,200.0,200.0,1.0,,,,,,,,,gray,circle
0.0,3.0,3.0,0.0,6.0,6.0,569.3147220008541,4.0,1.0,phase_2,go,200.0,200.0,1.0,,,,,,,,,cyan,cross
0.0,3.0,3.0,0.0,6.0,6.0,367.9378209999413,4.0,1.0,phase_2,go,200.0,200.0,1.0,,,,,,,,,cyan,cross
0.0,3.0,3.0,0.0,5.0,5.0,613.9567910004189,4.0,1.0,phase_2,go,200.0,200.0,1.0,,,,,,,,,cyan,cross
0.0,4.0,4.0,0.0,5.0,5.0,604.896675999953,4.0,1.0,phase_2,go,200.0,200.0,1.0,,,,,,,,,gray,circle
0.0,4.0,4.0,0.0,6.0,6.0,358.2170259996928,4.0,1.0,phase_2,go,200.0,200.0,1.0,,,,,,,,,gray,circle
0.0,7.0,3.0,1.0,6.0,0.0,0.0,4.0,1.0,phase_2,stop,200.0,200.0,4.0,,,,,,,,,orange,I
0.0,5.0,1.0,1.0,5.0,5.0,359.172717000547,4.0,1.0,phase_2,stop,200.0,250.0,3.0,,,,,,,,,green,diamond
0.0,6.0,2.0,1.0,5.0,5.0,436.6422900002362,4.0,1.0,phase_2,go,150.0,250.0,1.0,,,,,,,,,blue,square
0.0,3.0,3.0,0.0,6.0,6.0,511.73246300004394,4.0,1.0,phase_2,go,150.0,250.0,1.0,,,,,,,,,cyan,cross
0.0,7.0,3.0,1.0,6.0,6.0,423.7193119997755,4.0,1.0,phase_2,stop,150.0,250.0,3.0,,,,,,,,,orange,I
0.0,4.0,4.0,0.0,6.0,6.0,565.853154999786,4.0,1.0,phase_2,go,150.0,200.0,1.0,,,,,,,,,gray,circle
0.0,1.0,1.0,0.0,6.0,6.0,510.3359360000468,4.0,1.0,phase_2,go,150.0,200.0,1.0,,,,,,,,,yellow,hexagon
0.0,4.0,4.0,0.0,5.0,5.0,689.2878870003187,4.0,1.0,phase_2,go,150.0,200.0,1.0,,,,,,,,,gray,circle
0.0,2.0,2.0,0.0,6.0,6.0,479.808872999456,4.0,1.0,phase_2,go,150.0,200.0,1.0,,,,,,,,,white,triangle
0.0,4.0,4.0,0.0,6.0,6.0,473.3131959992533,4.0,1.0,phase_2,go,150.0,200.0,1.0,,,,,,,,,gray,circle
0.0,1.0,1.0,0.0,5.0,5.0,421.8681160000415,4.0,1.0,phase_2,go,150.0,200.0,1.0,,,,,,,,,yellow,hexagon
0.0,8.0,4.0,1.0,6.0,0.0,0.0,4.0,1.0,phase_2,stop,150.0,200.0,4.0,,,,,,,,,magenta,flipped triangle
0.0,4.0,4.0,0.0,6.0,6.0,556.7301849996511,4.0,1.0,phase_2,go,150.0,250.0,1.0,,,,,,,,,gray,circle
0.0,2.0,2.0,0.0,6.0,6.0,546.0738219999257,4.0,1.0,phase_2,go,150.0,250.0,1.0,,,,,,,,,white,triangle
0.0,6.0,2.0,1.0,5.0,0.0,0.0,4.0,1.0,phase_2,stop,150.0,250.0,4.0,,,,,,,,,blue,square
0.0,2.0,2.0,0.0,6.0,6.0,454.4500700003482,4.0,1.0,phase_2,go,200.0,250.0,1.0,,,,,,,,,white,triangle
0.0,3.0,3.0,0.0,6.0,6.0,479.2864299997745,4.0,1.0,phase_2,go,200.0,250.0,1.0,,,,,,,,,cyan,cross
0.0,1.0,1.0,0.0,5.0,5.0,433.9630550002766,4.0,1.0,phase_2,go,200.0,250.0,1.0,,,,,,,,,yellow,hexagon
0.0,8.0,4.0,1.0,6.0,6.0,340.8072069996706,4.0,1.0,phase_2,stop,200.0,250.0,3.0,,,,,,,,,magenta,flipped triangle
0.0,8.0,4.0,1.0,6.0,6.0,659.9816430007195,4.0,1.0,phase_2,go,200.0,200.0,1.0,,,,,,,,,magenta,flipped triangle
0.0,8.0,4.0,1.0,5.0,5.0,481.1694799991528,4.0,1.0,phase_2,go,200.0,200.0,1.0,,,,,,,,,magenta,flipped triangle
0.0,6.0,2.0,1.0,5.0,0.0,0.0,4.0,1.0,phase_2,stop,200.0,200.0,4.0,,,,,,,,,blue,square
0.0,4.0,4.0,0.0,5.0,5.0,462.1523830001024,4.0,1.0,phase_2,go,250.0,200.0,1.0,,,,,,,,,gray,circle
0.0,6.0,2.0,1.0,5.0,0.0,0.0,4.0,1.0,phase_2,stop,250.0,200.0,4.0,,,,,,,,,blue,square
0.0,8.0,4.0,1.0,6.0,0.0,0.0,4.0,1.0,phase_2,stop,300.0,200.0,4.0,,,,,,,,,magenta,flipped triangle
0.0,2.0,2.0,0.0,5.0,5.0,528.221714999745,4.0,1.0,phase_2,go,300.0,250.0,1.0,,,,,,,,,white,triangle
0.0,8.0,4.0,1.0,6.0,0.0,0.0,4.0,1.0,phase_2,stop,300.0,250.0,4.0,,,,,,,,,magenta,flipped triangle
0.0,2.0,2.0,0.0,6.0,6.0,473.0566860016552,4.0,1.0,phase_2,go,300.0,300.0,1.0,,,,,,,,,white,triangle
0.0,7.0,3.0,1.0,6.0,6.0,425.5134209997777,4.0,1.0,phase_2,stop,300.0,300.0,3.0,,,,,,,,,orange,I
0.0,5.0,1.0,1.0,6.0,6.0,429.6698060006747,5.0,1.0,phase_2,stop,300.0,250.0,3.0,,,,,,,,,green,diamond
0.0,8.0,4.0,1.0,5.0,5.0,328.91278399984,5.0,1.0,phase_2,stop,300.0,200.0,3.0,,,,,,,,,magenta,flipped triangle
0.0,3.0,3.0,0.0,6.0,6.0,520.6668299997546,5.0,1.0,phase_2,go,250.0,200.0,1.0,,,,,,,,,cyan,cross
0.0,8.0,4.0,1.0,6.0,0.0,0.0,5.0,1.0,phase_2,stop,250.0,200.0,4.0,,,,,,,,,magenta,flipped triangle
0.0,4.0,4.0,0.0,6.0,6.0,502.76970300001267,5.0,1.0,phase_2,go,250.0,250.0,1.0,,,,,,,,,gray,circle
0.0,5.0,1.0,1.0,5.0,0.0,0.0,5.0,1.0,phase_2,stop,250.0,250.0,4.0,,,,,,,,,green,diamond
0.0,8.0,4.0,1.0,5.0,0.0,0.0,5.0,1.0,phase_2,stop,300.0,250.0,4.0,,,,,,,,,magenta,flipped triangle
0.0,5.0,1.0,1.0,5.0,0.0,0.0,5.0,1.0,phase_2,stop,350.0,250.0,4.0,,,,,,,,,green,diamond
0.0,5.0,1.0,1.0,6.0,6.0,490.6878959991445,5.0,1.0,phase_2,go,400.0,250.0,1.0,,,,,,,,,green,diamond
0.0,1.0,1.0,0.0,5.0,5.0,472.9958919997443,5.0,1.0,phase_2,go,400.0,250.0,1.0,,,,,,,,,yellow,hexagon
0.0,2.0,2.0,0.0,6.0,6.0,425.4866360006417,5.0,1.0,phase_2,go,400.0,250.0,1.0,,,,,,,,,white,triangle
0.0,3.0,3.0,0.0,5.0,5.0,302.5597060004656,5.0,1.0,phase_2,go,400.0,250.0,1.0,,,,,,,,,cyan,cross
0.0,5.0,1.0,1.0,5.0,5.0,322.1355380010209,5.0,1.0,phase_2,go,400.0,250.0,1.0,,,,,,,,,green,diamond
0.0,4.0,4.0,0.0,5.0,5.0,406.0552810005902,5.0,1.0,phase_2,go,400.0,250.0,1.0,,,,,,,,,gray,circle
0.0,5.0,1.0,1.0,5.0,5.0,583.4407590009505,5.0,1.0,phase_2,stop,400.0,250.0,3.0,,,,,,,,,green,diamond
0.0,2.0,2.0,0.0,5.0,5.0,509.5078390004346,5.0,1.0,phase_2,go,350.0,250.0,1.0,,,,,,,,,white,triangle
0.0,5.0,1.0,1.0,5.0,0.0,0.0,5.0,1.0,phase_2,stop,350.0,250.0,4.0,,,,,,,,,green,diamond
0.0,7.0,3.0,1.0,6.0,6.0,414.0463380008441,5.0,1.0,phase_2,stop,400.0,250.0,3.0,,,,,,,,,orange,I
0.0,3.0,3.0,0.0,5.0,5.0,831.793352999739,5.0,1.0,phase_2,go,400.0,200.0,1.0,,,,,,,,,cyan,cross
0.0,4.0,4.0,0.0,5.0,5.0,557.2369359997538,5.0,1.0,phase_2,go,400.0,200.0,1.0,,,,,,,,,gray,circle
0.0,4.0,4.0,0.0,6.0,6.0,481.8348579992744,5.0,1.0,phase_2,go,400.0,200.0,1.0,,,,,,,,,gray,circle
0.0,6.0,2.0,1.0,6.0,0.0,0.0,5.0,1.0,phase_2,stop,400.0,200.0,4.0,,,,,,,,,blue,square
0.0,6.0,2.0,1.0,6.0,0.0,0.0,5.0,1.0,phase_2,stop,400.0,250.0,4.0,,,,,,,,,blue,square
0.0,1.0,1.0,0.0,5.0,5.0,520.6981190003717,5.0,1.0,phase_2,go,400.0,300.0,1.0,,,,,,,,,yellow,hexagon
0.0,8.0,4.0,1.0,5.0,0.0,0.0,5.0,1.0,phase_2,stop,400.0,300.0,4.0,,,,,,,,,magenta,flipped triangle
0.0,3.0,3.0,0.0,6.0,6.0,680.4490529993927,5.0,1.0,phase_2,go,450.0,300.0,1.0,,,,,,,,,cyan,cross
0.0,1.0,1.0,0.0,5.0,5.0,548.3668819997547,5.0,1.0,phase_2,go,450.0,300.0,1.0,,,,,,,,,yellow,hexagon
0.0,6.0,2.0,1.0,6.0,6.0,670.7833309992566,5.0,1.0,phase_2,go,450.0,300.0,1.0,,,,,,,,,blue,square
0.0,3.0,3.0,0.0,6.0,6.0,435.8426090002467,5.0,1.0,phase_2,go,450.0,300.0,1.0,,,,,,,,,cyan,cross
0.0,1.0,1.0,0.0,5.0,5.0,482.612533000065,5.0,1.0,phase_2,go,450.0,300.0,1.0,,,,,,,,,yellow,hexagon
0.0,8.0,4.0,1.0,6.0,6.0,490.5117889993562,5.0,1.0,phase_2,go,450.0,300.0,1.0,,,,,,,,,magenta,flipped triangle
0.0,8.0,4.0,1.0,5.0,5.0,312.6131090011768,5.0,1.0,phase_2,stop,450.0,300.0,3.0,,,,,,,,,magenta,flipped triangle
0.0,6.0,2.0,1.0,6.0,0.0,0.0,5.0,1.0,phase_2,stop,400.0,300.0,4.0,,,,,,,,,blue,square
0.0,3.0,3.0,0.0,5.0,5.0,510.04647000081604,5.0,1.0,phase_2,go,400.0,350.0,1.0,,,,,,,,,cyan,cross
0.0,7.0,3.0,1.0,5.0,0.0,0.0,5.0,1.0,phase_2,stop,400.0,350.0,4.0,,,,,,,,,orange,I
0.0,3.0,3.0,0.0,5.0,5.0,596.3244740014488,5.0,1.0,phase_2,go,450.0,350.0,1.0,,,,,,,,,cyan,cross
0.0,2.0,2.0,0.0,5.0,5.0,802.7921859993512,6.0,1.0,phase_2,go,450.0,350.0,1.0,,,,,,,,,white,triangle
0.0,6.0,2.0,1.0,6.0,0.0,0.0,6.0,1.0,phase_2,stop,450.0,350.0,4.0,,,,,,,,,blue,square
0.0,3.0,3.0,0.0,5.0,5.0,557.102845999907,6.0,1.0,phase_2,go,450.0,400.0,1.0,,,,,,,,,cyan,cross
0.0,4.0,4.0,0.0,5.0,5.0,594.7424050009431,6.0,1.0,phase_2,go,450.0,400.0,1.0,,,,,,,,,gray,circle
0.0,1.0,1.0,0.0,5.0,5.0,482.2284140009287,6.0,1.0,phase_2,go,450.0,400.0,1.0,,,,,,,,,yellow,hexagon
0.0,5.0,1.0,1.0,6.0,0.0,0.0,6.0,1.0,phase_2,stop,450.0,400.0,4.0,,,,,,,,,green,diamond
0.0,6.0,2.0,1.0,5.0,5.0,488.9464030002273,6.0,1.0,phase_2,stop,450.0,450.0,3.0,,,,,,,,,blue,square
0.0,5.0,1.0,1.0,6.0,0.0,0.0,6.0,1.0,phase_2,stop,400.0,450.0,4.0,,,,,,,,,green,diamond
0.0,1.0,1.0,0.0,6.0,6.0,482.5403570011985,6.0,1.0,phase_2,go,400.0,500.0,1.0,,,,,,,,,yellow,hexagon
0.0,8.0,4.0,1.0,5.0,0.0,0.0,6.0,1.0,phase_2,stop,400.0,500.0,4.0,,,,,,,,,magenta,flipped triangle
0.0,5.0,1.0,1.0,5.0,0.0,0.0,6.0,1.0,phase_2,stop,450.0,500.0,4.0,,,,,,,,,green,diamond
0.0,8.0,4.0,1.0,5.0,5.0,682.798769999863,6.0,1.0,phase_2,go,500.0,500.0,1.0,,,,,,,,,magenta,flipped triangle
0.0,1.0,1.0,0.0,5.0,5.0,463.0399140005465,6.0,1.0,phase_2,go,500.0,500.0,1.0,,,,,,,,,yellow,hexagon
0.0,7.0,3.0,1.0,6.0,6.0,544.1257290003705,6.0,1.0,phase_2,stop,500.0,500.0,3.0,,,,,,,,,orange,I
0.0,2.0,2.0,0.0,5.0,5.0,816.6649209997559,6.0,1.0,phase_2,go,500.0,450.0,1.0,,,,,,,,,white,triangle
0.0,7.0,3.0,1.0,5.0,5.0,528.3967529994698,6.0,1.0,phase_2,stop,500.0,450.0,3.0,,,,,,,,,orange,I
0.0,6.0,2.0,1.0,6.0,0.0,0.0,6.0,1.0,phase_2,stop,450.0,450.0,4.0,,,,,,,,,blue,square
0.0,7.0,3.0,1.0,5.0,5.0,624.4168530010938,6.0,1.0,phase_2,go,450.0,500.0,1.0,,,,,,,,,orange,I
0.0,2.0,2.0,0.0,6.0,6.0,804.1228399997635,6.0,1.0,phase_2,go,450.0,500.0,1.0,,,,,,,,,white,triangle
0.0,6.0,2.0,1.0,5.0,5.0,604.0229859991086,6.0,1.0,phase_2,stop,450.0,500.0,3.0,,,,,,,,,blue,square
0.0,7.0,3.0,1.0,6.0,0.0,0.0,6.0,1.0,phase_2,stop,400.0,500.0,4.0,,,,,,,,,orange,I
0.0,3.0,3.0,0.0,6.0,6.0,765.6857069996477,6.0,1.0,phase_2,go,400.0,550.0,1.0,,,,,,,,,cyan,cross
0.0,3.0,3.0,0.0,5.0,5.0,530.7850310000504,6.0,1.0,phase_2,go,400.0,550.0,1.0,,,,,,,,,cyan,cross
0.0,6.0,2.0,1.0,6.0,6.0,655.7442320008704,6.0,1.0,phase_2,stop,400.0,550.0,3.0,,,,,,,,,blue,square
0.0,2.0,2.0,0.0,5.0,5.0,804.2211590000079,6.0,1.0,phase_2,go,400.0,500.0,1.0,,,,,,,,,white,triangle
0.0,7.0,3.0,1.0,5.0,0.0,0.0,6.0,1.0,phase_2,stop,400.0,500.0,4.0,,,,,,,,,orange,I
0.0,2.0,2.0,0.0,6.0,6.0,815.1253470005031,6.0,1.0,phase_2,go,450.0,500.0,1.0,,,,,,,,,white,triangle
0.0,3.0,3.0,0.0,6.0,6.0,775.6072679985664,6.0,1.0,phase_2,go,450.0,500.0,1.0,,,,,,,,,cyan,cross
0.0,4.0,4.0,0.0,6.0,6.0,482.2108219996153,6.0,1.0,phase_2,go,450.0,500.0,1.0,,,,,,,,,gray,circle
0.0,6.0,2.0,1.0,6.0,0.0,0.0,6.0,1.0,phase_2,stop,450.0,500.0,4.0,,,,,,,,,blue,square
0.0,3.0,3.0,0.0,6.0,6.0,785.2069459986524,6.0,1.0,phase_2,go,450.0,550.0,1.0,,,,,,,,,cyan,cross
0.0,1.0,1.0,0.0,6.0,6.0,454.2166770006588,6.0,1.0,phase_2,go,450.0,550.0,1.0,,,,,,,,,yellow,hexagon
0.0,6.0,2.0,1.0,6.0,6.0,387.7791750001051,6.0,1.0,phase_2,stop,450.0,550.0,3.0,,,,,,,,,blue,square
0.0,2.0,2.0,0.0,6.0,6.0,792.9401839992352,6.0,1.0,phase_2,go,450.0,500.0,1.0,,,,,,,,,white,triangle
0.0,1.0,1.0,0.0,6.0,6.0,521.3845759990363,6.0,1.0,phase_2,go,450.0,500.0,1.0,,,,,,,,,yellow,hexagon
0.0,1.0,1.0,0.0,6.0,6.0,471.9159129999752,6.0,1.0,phase_2,go,450.0,500.0,1.0,,,,,,,,,yellow,hexagon
0.0,5.0,1.0,1.0,6.0,6.0,406.3553319992934,7.0,1.0,phase_2,stop,450.0,500.0,3.0,,,,,,,,,green,diamond
0.0,7.0,3.0,1.0,6.0,0.0,0.0,7.0,1.0,phase_2,stop,450.0,450.0,4.0,,,,,,,,,orange,I
0.0,4.0,4.0,0.0,6.0,6.0,679.6247059992311,7.0,1.0,phase_2,go,450.0,500.0,1.0,,,,,,,,,gray,circle
0.0,7.0,3.0,1.0,6.0,0.0,0.0,7.0,1.0,phase_2,stop,450.0,500.0,4.0,,,,,,,,,orange,I
0.0,7.0,3.0,1.0,5.0,5.0,377.2586710001633,7.0,1.0,phase_2,stop,450.0,550.0,3.0,,,,,,,,,orange,I
0.0,1.0,1.0,0.0,5.0,5.0,575.7966189994477,7.0,1.0,phase_2,go,400.0,550.0,1.0,,,,,,,,,yellow,hexagon
0.0,8.0,4.0,1.0,5.0,0.0,0.0,7.0,1.0,phase_2,stop,400.0,550.0,4.0,,,,,,,,,magenta,flipped triangle
0.0,8.0,4.0,1.0,5.0,0.0,0.0,7.0,1.0,phase_2,stop,450.0,550.0,4.0,,,,,,,,,magenta,flipped triangle
0.0,6.0,2.0,1.0,5.0,0.0,0.0,7.0,1.0,phase_2,stop,500.0,550.0,4.0,,,,,,,,,blue,square
0.0,3.0,3.0,0.0,5.0,5.0,527.9254020006192,7.0,1.0,phase_2,go,550.0,550.0,1.0,,,,,,,,,cyan,cross
0.0,3.0,3.0,0.0,6.0,6.0,425.2490020007826,7.0,1.0,phase_2,go,550.0,550.0,1.0,,,,,,,,,cyan,cross
0.0,5.0,1.0,1.0,6.0,6.0,642.1393589989748,7.0,1.0,phase_2,go,550.0,550.0,1.0,,,,,,,,,green,diamond
0.0,1.0,1.0,0.0,6.0,6.0,463.3257669993327,7.0,1.0,phase_2,go,550.0,550.0,1.0,,,,,,,,,yellow,hexagon
0.0,1.0,1.0,0.0,5.0,5.0,313.1956470006116,7.0,1.0,phase_2,go,550.0,550.0,1.0,,,,,,,,,yellow,hexagon
0.0,2.0,2.0,0.0,6.0,6.0,398.6854249997122,7.0,1.0,phase_2,go,550.0,550.0,1.0,,,,,,,,,white,triangle
0.0,2.0,2.0,0.0,5.0,5.0,321.7317180005921,7.0,1.0,phase_2,go,550.0,550.0,1.0,,,,,,,,,white,triangle
0.0,6.0,2.0,1.0,6.0,6.0,302.0563950012729,7.0,1.0,phase_2,stop,550.0,550.0,3.0,,,,,,,,,blue,square
0.0,4.0,4.0,0.0,5.0,5.0,368.5585590010305,7.0,1.0,phase_2,go,550.0,500.0,1.0,,,,,,,,,gray,circle
0.0,3.0,3.0,0.0,5.0,5.0,621.6845809994993,7.0,1.0,phase_2,go,550.0,500.0,1.0,,,,,,,,,cyan,cross
0.0,1.0,1.0,0.0,6.0,6.0,698.8032429999294,7.0,1.0,phase_2,go,550.0,500.0,1.0,,,,,,,,,yellow,hexagon
0.0,7.0,3.0,1.0,5.0,5.0,640.3111619983974,7.0,1.0,phase_2,stop,550.0,500.0,3.0,,,,,,,,,orange,I
0.0,4.0,4.0,0.0,6.0,6.0,642.919878999237,7.0,1.0,phase_2,go,500.0,500.0,1.0,,,,,,,,,gray,circle
0.0,5.0,1.0,1.0,5.0,0.0,0.0,7.0,1.0,phase_2,stop,500.0,500.0,4.0,,,,,,,,,green,diamond
0.0,5.0,1.0,1.0,5.0,5.0,898.5948619992996,7.0,1.0,phase_2,go,550.0,500.0,1.0,,,,,,,,,green,diamond
0.0,7.0,3.0,1.0,6.0,6.0,802.8446450007323,7.0,1.0,phase_2,go,550.0,500.0,1.0,,,,,,,,,orange,I
0.0,5.0,1.0,1.0,5.0,5.0,603.0912250007532,7.0,1.0,phase_2,stop,550.0,500.0,3.0,,,,,,,,,green,diamond
0.0,7.0,3.0,1.0,5.0,5.0,368.6735119990771,7.0,1.0,phase_2,stop,500.0,500.0,3.0,,,,,,,,,orange,I
0.0,8.0,4.0,1.0,5.0,0.0,0.0,7.0,1.0,phase_2,stop,450.0,500.0,4.0,,,,,,,,,magenta,flipped triangle
0.0,1.0,1.0,0.0,5.0,5.0,680.3101109999261,7.0,1.0,phase_2,go,500.0,500.0,1.0,,,,,,,,,yellow,hexagon
0.0,7.0,3.0,1.0,6.0,6.0,631.7331120008021,7.0,1.0,phase_2,stop,500.0,500.0,3.0,,,,,,,,,orange,I
0.0,4.0,4.0,0.0,5.0,5.0,642.4803330010036,7.0,1.0,phase_2,go,500.0,450.0,1.0,,,,,,,,,gray,circle
0.0,5.0,1.0,1.0,6.0,0.0,0.0,7.0,1.0,phase_2,stop,500.0,450.0,4.0,,,,,,,,,green,diamond
0.0,3.0,3.0,0.0,5.0,5.0,463.3491940003296,7.0,1.0,phase_2,go,500.0,500.0,1.0,,,,,,,,,cyan,cross
0.0,2.0,2.0,0.0,6.0,6.0,763.4211570002662,7.0,1.0,phase_2,go,500.0,500.0,1.0,,,,,,,,,white,triangle
0.0,2.0,2.0,0.0,5.0,5.0,415.983214001244,7.0,1.0,phase_2,go,500.0,500.0,1.0,,,,,,,,,white,triangle
0.0,1.0,1.0,0.0,6.0,6.0,425.2456659996824,7.0,1.0,phase_2,go,500.0,500.0,1.0,,,,,,,,,yellow,hexagon
0.0,3.0,3.0,0.0,5.0,5.0,369.6503419996588,8.0,1.0,phase_2,go,500.0,500.0,1.0,,,,,,,,,cyan,cross
0.0,7.0,3.0,1.0,5.0,5.0,563.1351169995469,8.0,1.0,phase_2,stop,500.0,500.0,3.0,,,,,,,,,orange,I
0.0,4.0,4.0,0.0,6.0,6.0,454.586935999032,8.0,1.0,phase_2,go,450.0,500.0,1.0,,,,,,,,,gray,circle
0.0,6.0,2.0,1.0,5.0,0.0,0.0,8.0,1.0,phase_2,stop,450.0,500.0,4.0,,,,,,,,,blue,square
0.0,8.0,4.0,1.0,6.0,0.0,0.0,8.0,1.0,phase_2,stop,500.0,500.0,4.0,,,,,,,,,magenta,flipped triangle
0.0,3.0,3.0,0.0,5.0,5.0,782.3126399998728,8.0,1.0,phase_2,go,500.0,550.0,1.0,,,,,,,,,cyan,cross
0.0,2.0,2.0,0.0,5.0,5.0,510.24589499866124,8.0,1.0,phase_2,go,500.0,550.0,1.0,,,,,,,,,white,triangle
0.0,3.0,3.0,0.0,5.0,5.0,310.831288999907,8.0,1.0,phase_2,go,500.0,550.0,1.0,,,,,,,,,cyan,cross
0.0,4.0,4.0,0.0,6.0,6.0,340.2876000000105,8.0,1.0,phase_2,go,500.0,550.0,1.0,,,,,,,,,gray,circle
0.0,5.0,1.0,1.0,6.0,6.0,369.1160090002086,8.0,1.0,phase_2,stop,500.0,550.0,3.0,,,,,,,,,green,diamond
0.0,6.0,2.0,1.0,5.0,5.0,765.0685670014354,8.0,1.0,phase_2,go,500.0,500.0,1.0,,,,,,,,,blue,square
0.0,5.0,1.0,1.0,5.0,0.0,0.0,8.0,1.0,phase_2,stop,500.0,500.0,4.0,,,,,,,,,green,diamond
0.0,3.0,3.0,0.0,5.0,5.0,727.4167799987481,8.0,1.0,phase_2,go,550.0,500.0,1.0,,,,,,,,,cyan,cross
0.0,8.0,4.0,1.0,6.0,6.0,635.9789940015617,8.0,1.0,phase_2,stop,550.0,500.0,3.0,,,,,,,,,magenta,flipped triangle
0.0,5.0,1.0,1.0,6.0,0.0,0.0,8.0,1.0,phase_2,stop,550.0,450.0,4.0,,,,,,,,,green,diamond
0.0,6.0,2.0,1.0,5.0,5.0,369.014154000979,8.0,1.0,phase_2,stop,550.0,500.0,3.0,,,,,,,,,blue,square
0.0,3.0,3.0,0.0,6.0,6.0,754.5521320007538,8.0,1.0,phase_2,go,500.0,500.0,1.0,,,,,,,,,cyan,cross
0.0,6.0,2.0,1.0,6.0,6.0,501.5974689995346,8.0,1.0,phase_2,go,500.0,500.0,1.0,,,,,,,,,blue,square
0.0,7.0,3.0,1.0,6.0,6.0,678.6086840002099,8.0,1.0,phase_2,go,500.0,500.0,1.0,,,,,,,,,orange,I
0.0,6.0,2.0,1.0,6.0,6.0,749.1292739996425,8.0,1.0,phase_2,stop,500.0,500.0,3.0,,,,,,,,,blue,square
0.0,8.0,4.0,1.0,6.0,6.0,963.4284589992604,8.0,1.0,phase_2,go,500.0,450.0,1.0,,,,,,,,,magenta,flipped triangle
0.0,5.0,1.0,1.0,5.0,5.0,745.4080690004048,8.0,1.0,phase_2,go,500.0,450.0,1.0,,,,,,,,,green,diamond
0.0,5.0,1.0,1.0,6.0,0.0,0.0,8.0,1.0,phase_2,stop,500.0,450.0,4.0,,,,,,,,,green,diamond
0.0,7.0,3.0,1.0,5.0,5.0,728.9836879990617,8.0,1.0,phase_2,go,500.0,500.0,1.0,,,,,,,,,orange,I
0.0,4.0,4.0,0.0,5.0,5.0,471.7959590016107,8.0,1.0,phase_2,go,500.0,500.0,1.0,,,,,,,,,gray,circle
0.0,1.0,1.0,0.0,5.0,5.0,398.932717000207,8.0,1.0,phase_2,go,500.0,500.0,1.0,,,,,,,,,yellow,hexagon
0.0,2.0,2.0,0.0,6.0,6.0,870.0183910004853,8.0,1.0,phase_2,go,500.0,500.0,1.0,,,,,,,,,white,triangle
0.0,7.0,3.0,1.0,5.0,5.0,358.7240420001762,8.0,1.0,phase_2,go,500.0,500.0,1.0,,,,,,,,,orange,I
0.0,2.0,2.0,0.0,5.0,5.0,339.9201569991419,8.0,1.0,phase_2,go,500.0,500.0,1.0,,,,,,,,,white,triangle
0.0,4.0,4.0,0.0,5.0,5.0,274.6527130002505,8.0,1.0,phase_2,go,500.0,500.0,1.0,,,,,,,,,gray,circle
0.0,1.0,1.0,0.0,5.0,5.0,359.7874320003029,8.0,1.0,phase_2,go,500.0,500.0,1.0,,,,,,,,,yellow,hexagon
0.0,2.0,2.0,0.0,6.0,6.0,407.7471910004533,8.0,1.0,phase_2,go,500.0,500.0,1.0,,,,,,,,,white,triangle
0.0,5.0,1.0,1.0,6.0,6.0,368.6870149995229,8.0,1.0,phase_2,stop,500.0,500.0,3.0,,,,,,,,,green,diamond
0.0,4.0,4.0,0.0,5.0,5.0,594.7687030002271,8.0,1.0,phase_2,go,500.0,450.0,1.0,,,,,,,,,gray,circle
0.0,2.0,2.0,0.0,6.0,6.0,670.7619759999943,8.0,1.0,phase_2,go,500.0,450.0,1.0,,,,,,,,,white,triangle
0.0,7.0,3.0,1.0,5.0,0.0,0.0,8.0,1.0,phase_2,stop,500.0,450.0,4.0,,,,,,,,,orange,I
0.0,3.0,3.0,0.0,7.0,1.0,1551.6918539997278,1.0,1.0,phase_3,,,,,462.0,3.0,462.0,616.0,154.0,308.0,924.0,770.0,cyan,cross
0.0,4.0,4.0,0.0,7.0,2.0,1219.0683879998687,1.0,1.0,phase_3,,,,,960.0,5.0,1152.0,960.0,384.0,576.0,192.0,768.0,gray,circle
0.0,7.0,3.0,1.0,7.0,5.0,469.5121250006195,1.0,1.0,phase_3,,,,,348.0,3.0,580.0,464.0,116.0,696.0,348.0,232.0,orange,I
0.0,2.0,2.0,0.0,7.0,1.0,1573.134326001309,1.0,1.0,phase_3,,,,,960.0,5.0,960.0,384.0,576.0,1152.0,192.0,768.0,white,triangle
0.0,2.0,2.0,0.0,7.0,5.0,1105.79476500061,1.0,1.0,phase_3,,,,,692.0,4.0,173.0,346.0,1038.0,519.0,692.0,865.0,white,triangle
0.0,7.0,3.0,1.0,7.0,4.0,1696.9595579994348,1.0,1.0,phase_3,,,,,462.0,3.0,308.0,924.0,154.0,462.0,616.0,770.0,orange,I
0.0,1.0,1.0,0.0,7.0,3.0,1282.7940400002262,1.0,1.0,phase_3,,,,,232.0,2.0,696.0,580.0,232.0,116.0,348.0,464.0,yellow,hexagon
0.0,8.0,4.0,1.0,7.0,5.0,2180.605265999475,1.0,1.0,phase_3,,,,,462.0,3.0,154.0,924.0,308.0,616.0,462.0,770.0,magenta,flipped triangle
0.0,1.0,1.0,0.0,7.0,1.0,2032.7845150004578,1.0,1.0,phase_3,,,,,173.0,1.0,173.0,519.0,1038.0,692.0,346.0,865.0,yellow,hexagon
0.0,8.0,4.0,1.0,7.0,2.0,1033.674277998216,1.0,1.0,phase_3,,,,,464.0,4.0,696.0,464.0,580.0,348.0,116.0,232.0,magenta,flipped triangle
0.0,5.0,1.0,1.0,7.0,4.0,1134.2777809986728,1.0,1.0,phase_3,,,,,580.0,5.0,464.0,696.0,348.0,580.0,116.0,232.0,green,diamond
0.0,5.0,1.0,1.0,7.0,3.0,993.5358230013662,1.0,1.0,phase_3,,,,,519.0,3.0,346.0,173.0,519.0,865.0,692.0,1038.0,green,diamond
0.0,4.0,4.0,0.0,7.0,4.0,2409.7855489999347,1.0,1.0,phase_3,,,,,308.0,2.0,462.0,770.0,154.0,308.0,616.0,924.0,gray,circle
0.0,7.0,3.0,1.0,7.0,6.0,2523.6388570010604,1.0,1.0,phase_3,,,,,464.0,4.0,580.0,696.0,348.0,116.0,232.0,464.0,orange,I
0.0,3.0,3.0,0.0,7.0,2.0,1285.774180001681,1.0,1.0,phase_3,,,,,576.0,3.0,768.0,576.0,1152.0,192.0,384.0,960.0,cyan,cross
0.0,7.0,3.0,1.0,7.0,2.0,1098.6619169998448,1.0,1.0,phase_3,,,,,692.0,4.0,346.0,692.0,1038.0,173.0,519.0,865.0,orange,I
0.0,5.0,1.0,1.0,7.0,6.0,2136.715357000867,1.0,1.0,phase_3,,,,,462.0,3.0,308.0,924.0,154.0,770.0,616.0,462.0,green,diamond
0.0,6.0,2.0,1.0,7.0,6.0,1490.2822310014017,1.0,1.0,phase_3,,,,,1152.0,6.0,384.0,768.0,960.0,192.0,576.0,1152.0,blue,square
0.0,5.0,1.0,1.0,7.0,2.0,1522.698582000885,1.0,1.0,phase_3,,,,,519.0,3.0,346.0,519.0,865.0,692.0,1038.0,173.0,green,diamond
0.0,4.0,4.0,0.0,7.0,3.0,1760.8988499996483,1.0,1.0,phase_3,,,,,154.0,1.0,462.0,924.0,154.0,308.0,770.0,616.0,gray,circle
0.0,8.0,4.0,1.0,7.0,4.0,1342.3702280015275,2.0,1.0,phase_3,,,,,519.0,3.0,173.0,692.0,346.0,519.0,1038.0,865.0,magenta,flipped triangle
0.0,5.0,1.0,1.0,7.0,2.0,1254.0356240006076,2.0,1.0,phase_3,,,,,616.0,4.0,462.0,616.0,924.0,308.0,154.0,770.0,green,diamond
0.0,3.0,3.0,0.0,7.0,6.0,966.1089220007852,2.0,1.0,phase_3,,,,,768.0,4.0,384.0,1152.0,960.0,192.0,576.0,768.0,cyan,cross
0.0,4.0,4.0,0.0,7.0,3.0,2407.199088998823,2.0,1.0,phase_3,,,,,135.0,1.0,270.0,810.0,135.0,405.0,540.0,675.0,gray,circle
0.0,1.0,1.0,0.0,7.0,1.0,1312.6614250013515,2.0,1.0,phase_3,,,,,675.0,5.0,675.0,135.0,540.0,405.0,810.0,270.0,yellow,hexagon
0.0,1.0,1.0,0.0,7.0,3.0,1548.7649170008808,2.0,1.0,phase_3,,,,,675.0,5.0,270.0,540.0,675.0,405.0,810.0,135.0,yellow,hexagon
0.0,7.0,3.0,1.0,7.0,5.0,1989.959024998825,2.0,1.0,phase_3,,,,,675.0,5.0,810.0,540.0,405.0,135.0,675.0,270.0,orange,I
0.0,3.0,3.0,0.0,7.0,3.0,1191.0365219991943,2.0,1.0,phase_3,,,,,616.0,4.0,462.0,924.0,616.0,770.0,154.0,308.0,cyan,cross
0.0,7.0,3.0,1.0,7.0,4.0,1899.5973080000117,2.0,1.0,phase_3,,,,,924.0,6.0,770.0,154.0,616.0,924.0,462.0,308.0,orange,I
0.0,6.0,2.0,1.0,7.0,4.0,1548.2382339996548,2.0,1.0,phase_3,,,,,1152.0,6.0,960.0,384.0,192.0,1152.0,768.0,576.0,blue,square
0.0,2.0,2.0,0.0,7.0,5.0,1170.28550500072,2.0,1.0,phase_3,,,,,232.0,2.0,348.0,116.0,580.0,696.0,232.0,464.0,white,triangle
0.0,6.0,2.0,1.0,7.0,1.0,488.6904769991815,2.0,1.0,phase_3,,,,,405.0,3.0,405.0,270.0,810.0,675.0,135.0,540.0,blue,square
0.0,8.0,4.0,1.0,7.0,1.0,1558.0547970002954,2.0,1.0,phase_3,,,,,960.0,5.0,960.0,192.0,768.0,576.0,384.0,1152.0,magenta,flipped triangle
0.0,3.0,3.0,0.0,7.0,5.0,1781.085451000763,2.0,1.0,phase_3,,,,,692.0,4.0,173.0,865.0,346.0,1038.0,692.0,519.0,cyan,cross
0.0,5.0,1.0,1.0,7.0,1.0,1324.163942001178,2.0,1.0,phase_3,,,,,192.0,1.0,192.0,1152.0,576.0,768.0,960.0,384.0,green,diamond
0.0,2.0,2.0,0.0,7.0,3.0,1322.016103000351,2.0,1.0,phase_3,,,,,770.0,5.0,462.0,154.0,770.0,616.0,308.0,924.0,white,triangle
0.0,8.0,4.0,1.0,7.0,1.0,2090.364867000972,2.0,1.0,phase_3,,,,,346.0,2.0,346.0,1038.0,865.0,519.0,173.0,692.0,magenta,flipped triangle
0.0,4.0,4.0,0.0,7.0,1.0,1144.6224060000532,2.0,1.0,phase_3,,,,,173.0,1.0,173.0,346.0,865.0,692.0,1038.0,519.0,gray,circle
0.0,8.0,4.0,1.0,7.0,4.0,1108.6667199997464,2.0,1.0,phase_3,,,,,580.0,5.0,232.0,464.0,348.0,580.0,696.0,116.0,magenta,flipped triangle
0.0,2.0,2.0,0.0,7.0,5.0,2045.9092920009425,2.0,1.0,phase_3,,,,,960.0,5.0,192.0,1152.0,576.0,768.0,960.0,384.0,white,triangle
0.0,1.0,1.0,0.0,7.0,3.0,1250.414322999859,3.0,1.0,phase_3,,,,,192.0,1.0,960.0,1152.0,192.0,384.0,576.0,768.0,yellow,hexagon
0.0,8.0,4.0,1.0,7.0,1.0,1372.626312000648,3.0,1.0,phase_3,,,,,462.0,3.0,462.0,154.0,924.0,308.0,616.0,770.0,magenta,flipped triangle
0.0,3.0,3.0,0.0,7.0,3.0,2401.985566999429,3.0,1.0,phase_3,,,,,580.0,5.0,464.0,696.0,580.0,232.0,348.0,116.0,cyan,cross
0.0,1.0,1.0,0.0,7.0,6.0,3274.011387999053,3.0,1.0,phase_3,,,,,308.0,2.0,462.0,616.0,924.0,154.0,770.0,308.0,yellow,hexagon
0.0,3.0,3.0,0.0,7.0,4.0,1663.3199460011383,3.0,1.0,phase_3,,,,,405.0,3.0,675.0,810.0,270.0,405.0,135.0,540.0,cyan,cross
0.0,1.0,1.0,0.0,7.0,1.0,2995.3945240013127,3.0,1.0,phase_3,,,,,173.0,1.0,173.0,692.0,1038.0,346.0,519.0,865.0,yellow,hexagon
0.0,6.0,2.0,1.0,7.0,3.0,1361.622641999929,3.0,1.0,phase_3,,,,,1038.0,6.0,692.0,865.0,1038.0,519.0,346.0,173.0,blue,square
0.0,6.0,2.0,1.0,7.0,2.0,1860.1789540007303,3.0,1.0,phase_3,,,,,810.0,6.0,675.0,810.0,135.0,540.0,270.0,405.0,blue,square
0.0,7.0,3.0,1.0,7.0,5.0,1942.2712049999973,3.0,1.0,phase_3,,,,,540.0,4.0,270.0,675.0,405.0,135.0,540.0,810.0,orange,I
0.0,2.0,2.0,0.0,7.0,4.0,1405.3111559987883,3.0,1.0,phase_3,,,,,540.0,4.0,810.0,405.0,270.0,540.0,135.0,675.0,white,triangle
0.0,2.0,2.0,0.0,7.0,5.0,2453.4762459989,3.0,1.0,phase_3,,,,,865.0,5.0,173.0,1038.0,692.0,519.0,865.0,346.0,white,triangle
0.0,8.0,4.0,1.0,7.0,3.0,1395.188602999042,3.0,1.0,phase_3,,,,,768.0,4.0,576.0,1152.0,768.0,192.0,960.0,384.0,magenta,flipped triangle
0.0,6.0,2.0,1.0,7.0,2.0,2088.4080929990887,3.0,1.0,phase_3,,,,,580.0,5.0,464.0,580.0,116.0,348.0,696.0,232.0,blue,square
0.0,5.0,1.0,1.0,7.0,3.0,1887.3594969991243,3.0,1.0,phase_3,,,,,116.0,1.0,580.0,348.0,116.0,696.0,464.0,232.0,green,diamond
0.0,5.0,1.0,1.0,7.0,4.0,2297.241918000509,3.0,1.0,phase_3,,,,,192.0,1.0,384.0,960.0,768.0,192.0,1152.0,576.0,green,diamond
0.0,7.0,3.0,1.0,7.0,3.0,1330.5977590007387,3.0,1.0,phase_3,,,,,692.0,4.0,1038.0,865.0,692.0,346.0,519.0,173.0,orange,I
0.0,2.0,2.0,0.0,7.0,2.0,1461.809460999575,3.0,1.0,phase_3,,,,,770.0,5.0,616.0,770.0,924.0,308.0,462.0,154.0,white,triangle
0.0,4.0,4.0,0.0,7.0,3.0,2394.602147000114,3.0,1.0,phase_3,,,,,192.0,1.0,576.0,1152.0,192.0,768.0,960.0,384.0,gray,circle
0.0,6.0,2.0,1.0,7.0,1.0,2540.0667110006907,3.0,1.0,phase_3,,,,,1038.0,6.0,1038.0,346.0,692.0,865.0,519.0,173.0,blue,square
0.0,7.0,3.0,1.0,7.0,4.0,1245.8081079985277,3.0,1.0,phase_3,,,,,960.0,5.0,192.0,384.0,768.0,960.0,576.0,1152.0,orange,I
0.0,1.0,1.0,0.0,7.0,5.0,2958.477154999855,4.0,1.0,phase_3,,,,,580.0,5.0,232.0,348.0,696.0,464.0,580.0,116.0,yellow,hexagon
0.0,7.0,3.0,1.0,7.0,1.0,3340.147535000142,4.0,1.0,phase_3,,,,,960.0,5.0,960.0,768.0,192.0,1152.0,576.0,384.0,orange,I
0.0,3.0,3.0,0.0,7.0,3.0,1691.5342880001845,4.0,1.0,phase_3,,,,,810.0,6.0,405.0,135.0,810.0,675.0,270.0,540.0,cyan,cross
0.0,4.0,4.0,0.0,7.0,6.0,1769.9937779998436,4.0,1.0,phase_3,,,,,116.0,1.0,580.0,348.0,464.0,232.0,696.0,116.0,gray,circle
0.0,8.0,4.0,1.0,7.0,4.0,1220.7267550002143,4.0,1.0,phase_3,,,,,270.0,2.0,405.0,675.0,810.0,270.0,135.0,540.0,magenta,flipped triangle
0.0,1.0,1.0,0.0,7.0,3.0,4325.196990999757,4.0,1.0,phase_3,,,,,616.0,4.0,308.0,154.0,616.0,924.0,770.0,462.0,yellow,hexagon
0.0,5.0,1.0,1.0,7.0,2.0,1473.235826999371,4.0,1.0,phase_3,,,,,135.0,1.0,810.0,135.0,675.0,270.0,405.0,540.0,green,diamond
0.0,4.0,4.0,0.0,7.0,4.0,1474.0686060013104,4.0,1.0,phase_3,,,,,116.0,1.0,696.0,580.0,232.0,116.0,464.0,348.0,gray,circle
0.0,6.0,2.0,1.0,7.0,4.0,2242.4060909997934,4.0,1.0,phase_3,,,,,580.0,5.0,696.0,232.0,464.0,580.0,348.0,116.0,blue,square
0.0,4.0,4.0,0.0,7.0,3.0,1072.3176669998793,4.0,1.0,phase_3,,,,,173.0,1.0,1038.0,346.0,173.0,865.0,692.0,519.0,gray,circle
0.0,2.0,2.0,0.0,7.0,3.0,1348.9393279996875,4.0,1.0,phase_3,,,,,580.0,5.0,696.0,464.0,580.0,232.0,116.0,348.0,white,triangle
0.0,3.0,3.0,0.0,7.0,6.0,1629.8415580004075,4.0,1.0,phase_3,,,,,865.0,5.0,346.0,692.0,173.0,519.0,1038.0,865.0,cyan,cross
0.0,1.0,1.0,0.0,7.0,5.0,2748.5730209991743,4.0,1.0,phase_3,,,,,576.0,3.0,960.0,1152.0,768.0,192.0,576.0,384.0,yellow,hexagon
0.0,3.0,3.0,0.0,7.0,4.0,1132.6779800001532,4.0,1.0,phase_3,,,,,580.0,5.0,116.0,348.0,232.0,580.0,464.0,696.0,cyan,cross
0.0,5.0,1.0,1.0,7.0,2.0,1331.8422609991103,4.0,1.0,phase_3,,,,,405.0,3.0,540.0,405.0,675.0,810.0,270.0,135.0,green,diamond
0.0,6.0,2.0,1.0,7.0,2.0,1399.3450590005525,4.0,1.0,phase_3,,,,,770.0,5.0,308.0,770.0,462.0,154.0,924.0,616.0,blue,square
0.0,8.0,4.0,1.0,7.0,4.0,1090.629064001405,4.0,1.0,phase_3,,,,,270.0,2.0,540.0,405.0,675.0,270.0,810.0,135.0,magenta,flipped triangle
0.0,4.0,4.0,0.0,7.0,2.0,1774.1579829998957,4.0,1.0,phase_3,,,,,135.0,1.0,405.0,135.0,270.0,675.0,540.0,810.0,gray,circle
0.0,2.0,2.0,0.0,7.0,2.0,2965.5115160003334,4.0,1.0,phase_3,,,,,810.0,6.0,540.0,810.0,675.0,135.0,405.0,270.0,white,triangle
0.0,6.0,2.0,1.0,7.0,6.0,2270.4467790008493,4.0,1.0,phase_3,,,,,770.0,5.0,924.0,154.0,308.0,462.0,616.0,770.0,blue,square
