raw_reward_magnitude,stim_reward,stepwise_reward_magnitude,paired_with_stopping,quadrant,response,reaction_time,block,num_trial_presentations,which_part,stop_signal_trial_type,left_SSD,right_SSD,accuracy,chosen_bidding_amount,chosen_bidding_level,possible_bid_1,possible_bid_2,possible_bid_3,possible_bid_4,possible_bid_5,possible_bid_6,color_text,shape_text
1307.0,8.0,4.0,1.0,4.0,4.0,576.5834819999327,1.0,1.0,part_1,,,,,,,,,,,,,orange,hexagon
1278.0,8.0,4.0,1.0,4.0,4.0,603.3937669999432,1.0,1.0,part_1,,,,,,,,,,,,,orange,hexagon
629.0,7.0,3.0,1.0,4.0,4.0,530.6566000001567,1.0,1.0,part_1,,,,,,,,,,,,,cyan,flipped triangle
1304.0,8.0,4.0,1.0,3.0,3.0,411.9076229999336,1.0,1.0,part_1,,,,,,,,,,,,,orange,hexagon
159.0,1.0,1.0,0.0,2.0,2.0,431.0741179999695,1.0,1.0,part_1,,,,,,,,,,,,,yellow,triangle
347.0,6.0,2.0,1.0,4.0,4.0,404.9678129999847,1.0,1.0,part_1,,,,,,,,,,,,,gray,I
185.0,5.0,1.0,1.0,2.0,2.0,541.3480889999391,1.0,2.0,part_1,,,,,,,,,,,,,blue,diamond
155.0,1.0,1.0,0.0,2.0,2.0,522.6976279998325,1.0,1.0,part_1,,,,,,,,,,,,,yellow,triangle
0.0,2.0,0.0,0.0,4.0,4.0,453.666898000165,1.0,1.0,part_1,,,,,,,,,,,,,white,circle
183.0,1.0,1.0,0.0,4.0,4.0,467.0125969998935,1.0,1.0,part_1,,,,,,,,,,,,,yellow,triangle
1319.0,4.0,4.0,0.0,3.0,3.0,421.2516770001002,1.0,1.0,part_1,,,,,,,,,,,,,magenta,cross
0.0,3.0,0.0,0.0,3.0,3.0,402.0697229998404,1.0,1.0,part_1,,,,,,,,,,,,,green,square
1310.0,8.0,4.0,1.0,1.0,1.0,507.7897450000819,1.0,2.0,part_1,,,,,,,,,,,,,orange,hexagon
1302.0,4.0,4.0,0.0,1.0,1.0,514.85981299993,1.0,1.0,part_1,,,,,,,,,,,,,magenta,cross
649.0,3.0,3.0,0.0,1.0,1.0,448.6415490000581,1.0,1.0,part_1,,,,,,,,,,,,,green,square
0.0,2.0,0.0,0.0,4.0,4.0,393.6996530001124,1.0,1.0,part_1,,,,,,,,,,,,,white,circle
1283.0,4.0,4.0,0.0,2.0,2.0,641.5901980001308,1.0,1.0,part_1,,,,,,,,,,,,,magenta,cross
1289.0,8.0,4.0,1.0,3.0,3.0,420.531278999988,1.0,1.0,part_1,,,,,,,,,,,,,orange,hexagon
0.0,5.0,0.0,1.0,1.0,1.0,393.6304940000354,1.0,1.0,part_1,,,,,,,,,,,,,blue,diamond
1302.0,4.0,4.0,0.0,2.0,2.0,430.9517229999073,1.0,1.0,part_1,,,,,,,,,,,,,magenta,cross
0.0,6.0,0.0,1.0,4.0,4.0,367.1104439999908,1.0,1.0,part_1,,,,,,,,,,,,,gray,I
152.0,1.0,1.0,0.0,1.0,1.0,357.5758290000976,1.0,1.0,part_1,,,,,,,,,,,,,yellow,triangle
671.0,3.0,3.0,0.0,2.0,2.0,303.1697680000889,1.0,1.0,part_1,,,,,,,,,,,,,green,square
161.0,5.0,1.0,1.0,3.0,3.0,450.468224000133,1.0,1.0,part_1,,,,,,,,,,,,,blue,diamond
667.0,7.0,3.0,1.0,3.0,3.0,458.436582999866,1.0,1.0,part_1,,,,,,,,,,,,,cyan,flipped triangle
635.0,3.0,3.0,0.0,4.0,4.0,404.0966059999391,1.0,1.0,part_1,,,,,,,,,,,,,green,square
150.0,5.0,1.0,1.0,2.0,2.0,587.6638739998725,1.0,1.0,part_1,,,,,,,,,,,,,blue,diamond
1313.0,4.0,4.0,0.0,4.0,4.0,375.9178220000194,1.0,1.0,part_1,,,,,,,,,,,,,magenta,cross
1290.0,8.0,4.0,1.0,3.0,3.0,376.0246610002014,1.0,1.0,part_1,,,,,,,,,,,,,orange,hexagon
0.0,6.0,0.0,1.0,1.0,1.0,584.6325739998974,1.0,2.0,part_1,,,,,,,,,,,,,gray,I
1283.0,4.0,4.0,0.0,1.0,1.0,383.661261999805,1.0,1.0,part_1,,,,,,,,,,,,,magenta,cross
332.0,2.0,2.0,0.0,2.0,2.0,607.8596559998459,1.0,1.0,part_1,,,,,,,,,,,,,white,circle
0.0,1.0,0.0,0.0,3.0,3.0,722.9291539999849,1.0,1.0,part_1,,,,,,,,,,,,,yellow,triangle
347.0,2.0,2.0,0.0,1.0,1.0,501.7834479999692,1.0,1.0,part_1,,,,,,,,,,,,,white,circle
342.0,6.0,2.0,1.0,3.0,3.0,457.5432060000821,1.0,1.0,part_1,,,,,,,,,,,,,gray,I
148.0,1.0,1.0,0.0,2.0,2.0,597.0235029999458,1.0,1.0,part_1,,,,,,,,,,,,,yellow,triangle
0.0,7.0,0.0,1.0,1.0,1.0,422.3112490001313,1.0,1.0,part_1,,,,,,,,,,,,,cyan,flipped triangle
650.0,7.0,3.0,1.0,2.0,2.0,411.5572150001299,1.0,1.0,part_1,,,,,,,,,,,,,cyan,flipped triangle
628.0,7.0,3.0,1.0,4.0,4.0,394.6747070001493,1.0,1.0,part_1,,,,,,,,,,,,,cyan,flipped triangle
138.0,1.0,1.0,0.0,4.0,4.0,431.6907800000535,1.0,1.0,part_1,,,,,,,,,,,,,yellow,triangle
327.0,6.0,2.0,1.0,4.0,4.0,403.4817269998711,1.0,1.0,part_1,,,,,,,,,,,,,gray,I
628.0,7.0,3.0,1.0,1.0,1.0,458.641230000012,1.0,1.0,part_1,,,,,,,,,,,,,cyan,flipped triangle
326.0,2.0,2.0,0.0,1.0,1.0,477.2183620000305,1.0,1.0,part_1,,,,,,,,,,,,,white,circle
183.0,5.0,1.0,1.0,4.0,4.0,466.268097000011,1.0,1.0,part_1,,,,,,,,,,,,,blue,diamond
1308.0,8.0,4.0,1.0,4.0,4.0,448.734537999826,1.0,1.0,part_1,,,,,,,,,,,,,orange,hexagon
0.0,1.0,0.0,0.0,3.0,3.0,550.1597049999418,1.0,1.0,part_1,,,,,,,,,,,,,yellow,triangle
0.0,6.0,0.0,1.0,2.0,2.0,624.273310000035,1.0,1.0,part_1,,,,,,,,,,,,,gray,I
1287.0,8.0,4.0,1.0,3.0,3.0,870.2772599999662,1.0,1.0,part_1,,,,,,,,,,,,,orange,hexagon
635.0,7.0,3.0,1.0,3.0,3.0,990.197563000038,1.0,1.0,part_1,,,,,,,,,,,,,cyan,flipped triangle
179.0,5.0,1.0,1.0,1.0,1.0,578.9970219998395,1.0,1.0,part_1,,,,,,,,,,,,,blue,diamond
0.0,4.0,0.0,0.0,3.0,3.0,430.3530869999576,1.0,1.0,part_1,,,,,,,,,,,,,magenta,cross
1281.0,8.0,4.0,1.0,3.0,3.0,494.5102379999753,1.0,1.0,part_1,,,,,,,,,,,,,orange,hexagon
1284.0,4.0,4.0,0.0,1.0,1.0,384.34330400014,1.0,1.0,part_1,,,,,,,,,,,,,magenta,cross
659.0,3.0,3.0,0.0,3.0,3.0,476.3686200001302,1.0,1.0,part_1,,,,,,,,,,,,,green,square
0.0,6.0,0.0,1.0,3.0,3.0,659.2376230000809,1.0,1.0,part_1,,,,,,,,,,,,,gray,I
641.0,3.0,3.0,0.0,1.0,1.0,723.2882420000806,1.0,1.0,part_1,,,,,,,,,,,,,green,square
333.0,2.0,2.0,0.0,4.0,4.0,541.654084999891,1.0,1.0,part_1,,,,,,,,,,,,,white,circle
166.0,5.0,1.0,1.0,3.0,3.0,458.4165579999535,1.0,1.0,part_1,,,,,,,,,,,,,blue,diamond
326.0,2.0,2.0,0.0,3.0,3.0,466.6717370000697,1.0,1.0,part_1,,,,,,,,,,,,,white,circle
183.0,5.0,1.0,1.0,3.0,3.0,676.9353590000264,1.0,1.0,part_1,,,,,,,,,,,,,blue,diamond
0.0,2.0,0.0,0.0,2.0,2.0,384.9841310000101,1.0,1.0,part_1,,,,,,,,,,,,,white,circle
346.0,2.0,2.0,0.0,4.0,4.0,421.8168120000882,1.0,1.0,part_1,,,,,,,,,,,,,white,circle
1289.0,4.0,4.0,0.0,2.0,2.0,714.7949519999202,1.0,1.0,part_1,,,,,,,,,,,,,magenta,cross
0.0,2.0,0.0,0.0,3.0,3.0,539.1265879998173,1.0,1.0,part_1,,,,,,,,,,,,,white,circle
308.0,6.0,2.0,1.0,4.0,4.0,803.903377000097,1.0,1.0,part_1,,,,,,,,,,,,,gray,I
628.0,3.0,3.0,0.0,3.0,3.0,393.0481249999502,1.0,1.0,part_1,,,,,,,,,,,,,green,square
647.0,3.0,3.0,0.0,3.0,3.0,449.2368609999175,1.0,1.0,part_1,,,,,,,,,,,,,green,square
322.0,6.0,2.0,1.0,1.0,1.0,685.6218630000512,1.0,1.0,part_1,,,,,,,,,,,,,gray,I
153.0,5.0,1.0,1.0,3.0,3.0,457.8279489999204,1.0,1.0,part_1,,,,,,,,,,,,,blue,diamond
174.0,5.0,1.0,1.0,4.0,4.0,515.0808070000039,1.0,1.0,part_1,,,,,,,,,,,,,blue,diamond
183.0,5.0,1.0,1.0,3.0,3.0,376.0015520001616,1.0,1.0,part_1,,,,,,,,,,,,,blue,diamond
343.0,2.0,2.0,0.0,1.0,1.0,613.6434629997893,1.0,1.0,part_1,,,,,,,,,,,,,white,circle
302.0,2.0,2.0,0.0,3.0,3.0,794.2538499999046,1.0,1.0,part_1,,,,,,,,,,,,,white,circle
1321.0,8.0,4.0,1.0,3.0,3.0,680.2673080001114,1.0,1.0,part_1,,,,,,,,,,,,,orange,hexagon
182.0,1.0,1.0,0.0,2.0,2.0,630.4412050001247,1.0,1.0,part_1,,,,,,,,,,,,,yellow,triangle
664.0,3.0,3.0,0.0,3.0,3.0,447.7313609997964,1.0,1.0,part_1,,,,,,,,,,,,,green,square
0.0,4.0,0.0,0.0,1.0,1.0,383.3941780001169,1.0,1.0,part_1,,,,,,,,,,,,,magenta,cross
323.0,6.0,2.0,1.0,1.0,1.0,466.7153059999691,1.0,1.0,part_1,,,,,,,,,,,,,gray,I
1311.0,4.0,4.0,0.0,4.0,4.0,410.2096320000328,1.0,1.0,part_1,,,,,,,,,,,,,magenta,cross
181.0,5.0,1.0,1.0,4.0,4.0,384.0098979999311,1.0,1.0,part_1,,,,,,,,,,,,,blue,diamond
182.0,5.0,1.0,1.0,2.0,2.0,475.5414700000528,1.0,1.0,part_1,,,,,,,,,,,,,blue,diamond
307.0,2.0,2.0,0.0,4.0,4.0,476.6169239999271,1.0,1.0,part_1,,,,,,,,,,,,,white,circle
0.0,1.0,0.0,0.0,3.0,3.0,429.5771730000979,1.0,2.0,part_1,,,,,,,,,,,,,yellow,triangle
0.0,4.0,0.0,0.0,4.0,4.0,460.4381789999934,1.0,1.0,part_1,,,,,,,,,,,,,magenta,cross
0.0,3.0,0.0,0.0,1.0,1.0,650.5742270001065,1.0,1.0,part_1,,,,,,,,,,,,,green,square
1297.0,8.0,4.0,1.0,3.0,3.0,904.4218050000836,1.0,1.0,part_1,,,,,,,,,,,,,orange,hexagon
343.0,6.0,2.0,1.0,1.0,1.0,642.3280399999385,1.0,1.0,part_1,,,,,,,,,,,,,gray,I
183.0,1.0,1.0,0.0,3.0,3.0,468.7261500000659,1.0,1.0,part_1,,,,,,,,,,,,,yellow,triangle
659.0,7.0,3.0,1.0,1.0,1.0,621.8764560001091,1.0,1.0,part_1,,,,,,,,,,,,,cyan,flipped triangle
160.0,5.0,1.0,1.0,4.0,4.0,649.4953690000784,1.0,1.0,part_1,,,,,,,,,,,,,blue,diamond
0.0,8.0,0.0,1.0,2.0,2.0,697.6585170000362,1.0,1.0,part_1,,,,,,,,,,,,,orange,hexagon
1302.0,8.0,4.0,1.0,1.0,1.0,633.026867999888,1.0,1.0,part_1,,,,,,,,,,,,,orange,hexagon
149.0,5.0,1.0,1.0,3.0,3.0,460.010185000101,1.0,1.0,part_1,,,,,,,,,,,,,blue,diamond
666.0,7.0,3.0,1.0,3.0,3.0,459.0638189999936,1.0,1.0,part_1,,,,,,,,,,,,,cyan,flipped triangle
333.0,6.0,2.0,1.0,1.0,1.0,648.8578760001928,1.0,1.0,part_1,,,,,,,,,,,,,gray,I
671.0,3.0,3.0,0.0,2.0,2.0,661.6561270000147,1.0,1.0,part_1,,,,,,,,,,,,,green,square
137.0,5.0,1.0,1.0,1.0,1.0,761.0109199999897,1.0,1.0,part_1,,,,,,,,,,,,,blue,diamond
644.0,3.0,3.0,0.0,3.0,3.0,998.2536099998924,1.0,1.0,part_1,,,,,,,,,,,,,green,square
181.0,1.0,1.0,0.0,1.0,1.0,706.1574730000757,1.0,1.0,part_1,,,,,,,,,,,,,yellow,triangle
1313.0,4.0,4.0,0.0,2.0,2.0,762.0893309999701,1.0,1.0,part_1,,,,,,,,,,,,,magenta,cross
1321.0,8.0,4.0,1.0,2.0,2.0,577.5260319999234,2.0,1.0,part_1,,,,,,,,,,,,,orange,hexagon
665.0,7.0,3.0,1.0,1.0,1.0,625.1192679999349,2.0,1.0,part_1,,,,,,,,,,,,,cyan,flipped triangle
165.0,1.0,1.0,0.0,1.0,1.0,531.3391189999948,2.0,1.0,part_1,,,,,,,,,,,,,yellow,triangle
307.0,2.0,2.0,0.0,4.0,4.0,552.7366030000849,2.0,1.0,part_1,,,,,,,,,,,,,white,circle
171.0,5.0,1.0,1.0,4.0,4.0,505.9490959999948,2.0,1.0,part_1,,,,,,,,,,,,,blue,diamond
0.0,7.0,0.0,1.0,2.0,2.0,579.0167650000058,2.0,1.0,part_1,,,,,,,,,,,,,cyan,flipped triangle
315.0,6.0,2.0,1.0,1.0,1.0,403.5714179999559,2.0,1.0,part_1,,,,,,,,,,,,,gray,I
1321.0,4.0,4.0,0.0,3.0,3.0,504.24717300006705,2.0,1.0,part_1,,,,,,,,,,,,,magenta,cross
154.0,1.0,1.0,0.0,4.0,4.0,588.0552090000037,2.0,1.0,part_1,,,,,,,,,,,,,yellow,triangle
659.0,7.0,3.0,1.0,1.0,1.0,488.1765650000034,2.0,1.0,part_1,,,,,,,,,,,,,cyan,flipped triangle
0.0,3.0,0.0,0.0,3.0,3.0,485.7664640001076,2.0,1.0,part_1,,,,,,,,,,,,,green,square
635.0,3.0,3.0,0.0,1.0,1.0,568.3116509999309,2.0,1.0,part_1,,,,,,,,,,,,,green,square
1302.0,8.0,4.0,1.0,4.0,4.0,459.500184000035,2.0,1.0,part_1,,,,,,,,,,,,,orange,hexagon
1297.0,4.0,4.0,0.0,4.0,4.0,441.5240480000193,2.0,1.0,part_1,,,,,,,,,,,,,magenta,cross
670.0,3.0,3.0,0.0,4.0,4.0,596.0356539999339,2.0,1.0,part_1,,,,,,,,,,,,,green,square
0.0,2.0,0.0,0.0,2.0,2.0,493.4167119999983,2.0,2.0,part_1,,,,,,,,,,,,,white,circle
665.0,3.0,3.0,0.0,1.0,1.0,625.678470000139,2.0,1.0,part_1,,,,,,,,,,,,,green,square
1282.0,4.0,4.0,0.0,1.0,1.0,512.8827329999694,2.0,1.0,part_1,,,,,,,,,,,,,magenta,cross
321.0,6.0,2.0,1.0,3.0,3.0,842.8408859999763,2.0,1.0,part_1,,,,,,,,,,,,,gray,I
171.0,1.0,1.0,0.0,3.0,3.0,557.7893849999782,2.0,1.0,part_1,,,,,,,,,,,,,yellow,triangle
646.0,7.0,3.0,1.0,2.0,2.0,704.3990720001148,2.0,1.0,part_1,,,,,,,,,,,,,cyan,flipped triangle
0.0,1.0,0.0,0.0,4.0,4.0,668.2341339999311,2.0,1.0,part_1,,,,,,,,,,,,,yellow,triangle
1278.0,4.0,4.0,0.0,3.0,3.0,484.0523919999668,2.0,1.0,part_1,,,,,,,,,,,,,magenta,cross
644.0,3.0,3.0,0.0,2.0,2.0,640.1228239999455,2.0,1.0,part_1,,,,,,,,,,,,,green,square
303.0,6.0,2.0,1.0,4.0,4.0,841.2381520001873,2.0,1.0,part_1,,,,,,,,,,,,,gray,I
1292.0,4.0,4.0,0.0,1.0,1.0,758.2079720000365,2.0,1.0,part_1,,,,,,,,,,,,,magenta,cross
172.0,1.0,1.0,0.0,1.0,1.0,879.0968559999328,2.0,1.0,part_1,,,,,,,,,,,,,yellow,triangle
309.0,6.0,2.0,1.0,2.0,2.0,679.4389239998964,2.0,1.0,part_1,,,,,,,,,,,,,gray,I
341.0,6.0,2.0,1.0,2.0,2.0,524.6858960001646,2.0,1.0,part_1,,,,,,,,,,,,,gray,I
641.0,7.0,3.0,1.0,3.0,3.0,567.7663669998765,2.0,1.0,part_1,,,,,,,,,,,,,cyan,flipped triangle
1277.0,8.0,4.0,1.0,1.0,1.0,522.1251329999177,2.0,1.0,part_1,,,,,,,,,,,,,orange,hexagon
1317.0,4.0,4.0,0.0,3.0,3.0,486.4747760000227,2.0,1.0,part_1,,,,,,,,,,,,,magenta,cross
1277.0,4.0,4.0,0.0,2.0,2.0,668.8008940000145,2.0,1.0,part_1,,,,,,,,,,,,,magenta,cross
660.0,3.0,3.0,0.0,3.0,3.0,467.7912309998646,2.0,1.0,part_1,,,,,,,,,,,,,green,square
0.0,7.0,0.0,1.0,2.0,2.0,650.8782890000475,2.0,1.0,part_1,,,,,,,,,,,,,cyan,flipped triangle
1279.0,4.0,4.0,0.0,1.0,1.0,503.56403099999625,2.0,1.0,part_1,,,,,,,,,,,,,magenta,cross
0.0,7.0,0.0,1.0,4.0,4.0,522.6232069999242,2.0,1.0,part_1,,,,,,,,,,,,,cyan,flipped triangle
181.0,1.0,1.0,0.0,4.0,4.0,457.8963609999391,2.0,2.0,part_1,,,,,,,,,,,,,yellow,triangle
165.0,5.0,1.0,1.0,2.0,2.0,879.0269359999456,2.0,1.0,part_1,,,,,,,,,,,,,blue,diamond
0.0,3.0,0.0,0.0,1.0,1.0,842.2949880000488,2.0,1.0,part_1,,,,,,,,,,,,,green,square
338.0,6.0,2.0,1.0,1.0,1.0,649.4952000000467,2.0,1.0,part_1,,,,,,,,,,,,,gray,I
303.0,2.0,2.0,0.0,1.0,1.0,651.130786000067,2.0,1.0,part_1,,,,,,,,,,,,,white,circle
308.0,2.0,2.0,0.0,1.0,1.0,465.6108360002235,2.0,1.0,part_1,,,,,,,,,,,,,white,circle
0.0,8.0,0.0,1.0,4.0,4.0,530.3814339999917,2.0,1.0,part_1,,,,,,,,,,,,,orange,hexagon
0.0,8.0,0.0,1.0,3.0,3.0,832.2672699998748,2.0,1.0,part_1,,,,,,,,,,,,,orange,hexagon
1276.0,8.0,4.0,1.0,2.0,2.0,722.3038160000215,2.0,1.0,part_1,,,,,,,,,,,,,orange,hexagon
0.0,6.0,0.0,1.0,4.0,4.0,511.81143600001633,2.0,1.0,part_1,,,,,,,,,,,,,gray,I
650.0,3.0,3.0,0.0,3.0,3.0,703.5245530000793,2.0,1.0,part_1,,,,,,,,,,,,,green,square
333.0,2.0,2.0,0.0,1.0,1.0,561.8898079999326,2.0,1.0,part_1,,,,,,,,,,,,,white,circle
1297.0,8.0,4.0,1.0,2.0,2.0,566.2485320001451,2.0,1.0,part_1,,,,,,,,,,,,,orange,hexagon
1301.0,4.0,4.0,0.0,1.0,1.0,786.689774000024,2.0,1.0,part_1,,,,,,,,,,,,,magenta,cross
155.0,5.0,1.0,1.0,1.0,1.0,595.7034240000212,2.0,1.0,part_1,,,,,,,,,,,,,blue,diamond
644.0,7.0,3.0,1.0,4.0,4.0,711.812000000009,2.0,1.0,part_1,,,,,,,,,,,,,cyan,flipped triangle
1290.0,4.0,4.0,0.0,3.0,3.0,611.8741620000492,2.0,1.0,part_1,,,,,,,,,,,,,magenta,cross
172.0,5.0,1.0,1.0,1.0,1.0,567.34702499989,2.0,1.0,part_1,,,,,,,,,,,,,blue,diamond
0.0,7.0,0.0,1.0,4.0,4.0,403.9182060000712,2.0,1.0,part_1,,,,,,,,,,,,,cyan,flipped triangle
1305.0,8.0,4.0,1.0,1.0,1.0,621.3759429999755,2.0,1.0,part_1,,,,,,,,,,,,,orange,hexagon
0.0,2.0,0.0,0.0,2.0,2.0,585.1479789998848,2.0,1.0,part_1,,,,,,,,,,,,,white,circle
650.0,7.0,3.0,1.0,2.0,2.0,697.86319800005,2.0,1.0,part_1,,,,,,,,,,,,,cyan,flipped triangle
635.0,7.0,3.0,1.0,1.0,1.0,713.2130340000913,2.0,1.0,part_1,,,,,,,,,,,,,cyan,flipped triangle
1322.0,4.0,4.0,0.0,2.0,2.0,656.5496860000621,2.0,1.0,part_1,,,,,,,,,,,,,magenta,cross
0.0,4.0,0.0,0.0,1.0,1.0,631.3397290000466,2.0,1.0,part_1,,,,,,,,,,,,,magenta,cross
174.0,1.0,1.0,0.0,1.0,1.0,566.1741979999988,2.0,1.0,part_1,,,,,,,,,,,,,yellow,triangle
153.0,5.0,1.0,1.0,3.0,3.0,411.5264469999147,2.0,1.0,part_1,,,,,,,,,,,,,blue,diamond
325.0,2.0,2.0,0.0,2.0,2.0,829.5517309998104,2.0,1.0,part_1,,,,,,,,,,,,,white,circle
644.0,7.0,3.0,1.0,3.0,3.0,530.4247540000233,2.0,1.0,part_1,,,,,,,,,,,,,cyan,flipped triangle
161.0,1.0,1.0,0.0,2.0,2.0,558.5607710002023,2.0,1.0,part_1,,,,,,,,,,,,,yellow,triangle
0.0,3.0,0.0,0.0,1.0,1.0,923.1394260000344,2.0,1.0,part_1,,,,,,,,,,,,,green,square
315.0,6.0,2.0,1.0,4.0,4.0,686.5568340001573,2.0,1.0,part_1,,,,,,,,,,,,,gray,I
0.0,2.0,0.0,0.0,2.0,2.0,612.3348059998079,2.0,1.0,part_1,,,,,,,,,,,,,white,circle
647.0,7.0,3.0,1.0,1.0,1.0,495.7755670000097,2.0,2.0,part_1,,,,,,,,,,,,,cyan,flipped triangle
145.0,5.0,1.0,1.0,3.0,3.0,530.368105999969,2.0,1.0,part_1,,,,,,,,,,,,,blue,diamond
311.0,2.0,2.0,0.0,2.0,2.0,888.484796000057,2.0,1.0,part_1,,,,,,,,,,,,,white,circle
185.0,1.0,1.0,0.0,3.0,3.0,448.8569949999146,2.0,1.0,part_1,,,,,,,,,,,,,yellow,triangle
0.0,8.0,0.0,1.0,4.0,4.0,514.1129829999045,2.0,1.0,part_1,,,,,,,,,,,,,orange,hexagon
324.0,2.0,2.0,0.0,4.0,4.0,448.9494859999468,2.0,1.0,part_1,,,,,,,,,,,,,white,circle
155.0,1.0,1.0,0.0,4.0,4.0,365.7999749998453,2.0,1.0,part_1,,,,,,,,,,,,,yellow,triangle
312.0,6.0,2.0,1.0,3.0,3.0,467.8997430000891,2.0,1.0,part_1,,,,,,,,,,,,,gray,I
339.0,2.0,2.0,0.0,3.0,3.0,423.0013869998856,2.0,1.0,part_1,,,,,,,,,,,,,white,circle
1279.0,8.0,4.0,1.0,2.0,2.0,622.723416000099,2.0,1.0,part_1,,,,,,,,,,,,,orange,hexagon
633.0,7.0,3.0,1.0,2.0,2.0,429.5215590000225,2.0,1.0,part_1,,,,,,,,,,,,,cyan,flipped triangle
649.0,7.0,3.0,1.0,4.0,4.0,320.5408470000748,2.0,1.0,part_1,,,,,,,,,,,,,cyan,flipped triangle
0.0,6.0,0.0,1.0,2.0,2.0,714.1098790000342,2.0,1.0,part_1,,,,,,,,,,,,,gray,I
0.0,5.0,0.0,1.0,1.0,1.0,922.638460999906,2.0,1.0,part_1,,,,,,,,,,,,,blue,diamond
0.0,6.0,0.0,1.0,3.0,3.0,850.9941719999006,2.0,1.0,part_1,,,,,,,,,,,,,gray,I
169.0,1.0,1.0,0.0,1.0,1.0,750.7217500001389,2.0,1.0,part_1,,,,,,,,,,,,,yellow,triangle
141.0,5.0,1.0,1.0,3.0,3.0,704.0745769998011,2.0,1.0,part_1,,,,,,,,,,,,,blue,diamond
1321.0,8.0,4.0,1.0,4.0,4.0,540.4923769999641,2.0,1.0,part_1,,,,,,,,,,,,,orange,hexagon
0.0,8.0,0.0,1.0,4.0,4.0,522.1204399999806,2.0,1.0,part_1,,,,,,,,,,,,,orange,hexagon
179.0,1.0,1.0,0.0,2.0,2.0,630.7886130000497,2.0,1.0,part_1,,,,,,,,,,,,,yellow,triangle
157.0,5.0,1.0,1.0,4.0,4.0,513.3034479999878,2.0,1.0,part_1,,,,,,,,,,,,,blue,diamond
1317.0,8.0,4.0,1.0,3.0,3.0,669.3077990000802,2.0,1.0,part_1,,,,,,,,,,,,,orange,hexagon
667.0,3.0,3.0,0.0,2.0,2.0,849.7877729998891,2.0,1.0,part_1,,,,,,,,,,,,,green,square
1290.0,8.0,4.0,1.0,2.0,2.0,502.2423789998811,2.0,1.0,part_1,,,,,,,,,,,,,orange,hexagon
1308.0,4.0,4.0,0.0,3.0,3.0,504.8780290001105,2.0,1.0,part_1,,,,,,,,,,,,,magenta,cross
667.0,3.0,3.0,0.0,2.0,2.0,642.6302849999956,2.0,1.0,part_1,,,,,,,,,,,,,green,square
633.0,3.0,3.0,0.0,2.0,2.0,385.0495000001501,2.0,2.0,part_1,,,,,,,,,,,,,green,square
647.0,3.0,3.0,0.0,4.0,4.0,539.3881770000917,2.0,1.0,part_1,,,,,,,,,,,,,green,square
1284.0,8.0,4.0,1.0,2.0,2.0,357.0522339998661,2.0,1.0,part_1,,,,,,,,,,,,,orange,hexagon
345.0,2.0,2.0,0.0,4.0,4.0,522.3020739999811,2.0,1.0,part_1,,,,,,,,,,,,,white,circle
650.0,7.0,3.0,1.0,1.0,1.0,797.5907879999795,3.0,1.0,part_1,,,,,,,,,,,,,cyan,flipped triangle
159.0,1.0,1.0,0.0,4.0,4.0,520.6454079998366,3.0,1.0,part_1,,,,,,,,,,,,,yellow,triangle
141.0,5.0,1.0,1.0,4.0,4.0,530.6169430000409,3.0,1.0,part_1,,,,,,,,,,,,,blue,diamond
668.0,3.0,3.0,0.0,4.0,4.0,495.1670970001487,3.0,1.0,part_1,,,,,,,,,,,,,green,square
319.0,2.0,2.0,0.0,2.0,2.0,539.3031139999493,3.0,1.0,part_1,,,,,,,,,,,,,white,circle
338.0,2.0,2.0,0.0,2.0,2.0,466.6321729998799,3.0,1.0,part_1,,,,,,,,,,,,,white,circle
642.0,7.0,3.0,1.0,4.0,4.0,456.9561559999329,3.0,1.0,part_1,,,,,,,,,,,,,cyan,flipped triangle
304.0,2.0,2.0,0.0,2.0,2.0,486.081029999923,3.0,1.0,part_1,,,,,,,,,,,,,white,circle
1313.0,8.0,4.0,1.0,2.0,2.0,520.9819750000406,3.0,1.0,part_1,,,,,,,,,,,,,orange,hexagon
0.0,3.0,0.0,0.0,1.0,1.0,584.7045819998584,3.0,1.0,part_1,,,,,,,,,,,,,green,square
0.0,5.0,0.0,1.0,2.0,2.0,420.8520330000738,3.0,1.0,part_1,,,,,,,,,,,,,blue,diamond
1299.0,4.0,4.0,0.0,2.0,2.0,624.3922809999276,3.0,1.0,part_1,,,,,,,,,,,,,magenta,cross
311.0,6.0,2.0,1.0,4.0,4.0,512.5643359999685,3.0,1.0,part_1,,,,,,,,,,,,,gray,I
153.0,1.0,1.0,0.0,4.0,4.0,413.7120190000587,3.0,1.0,part_1,,,,,,,,,,,,,yellow,triangle
1297.0,4.0,4.0,0.0,2.0,2.0,378.417661000185,3.0,1.0,part_1,,,,,,,,,,,,,magenta,cross
1305.0,4.0,4.0,0.0,4.0,4.0,421.4899040000546,3.0,1.0,part_1,,,,,,,,,,,,,magenta,cross
0.0,5.0,0.0,1.0,2.0,2.0,585.4934460001004,3.0,1.0,part_1,,,,,,,,,,,,,blue,diamond
0.0,1.0,0.0,0.0,1.0,1.0,814.2891749998853,3.0,1.0,part_1,,,,,,,,,,,,,yellow,triangle
157.0,1.0,1.0,0.0,3.0,3.0,420.1617800001713,3.0,1.0,part_1,,,,,,,,,,,,,yellow,triangle
668.0,7.0,3.0,1.0,1.0,1.0,402.3295510000935,3.0,1.0,part_1,,,,,,,,,,,,,cyan,flipped triangle
161.0,5.0,1.0,1.0,1.0,1.0,667.8066189999754,3.0,1.0,part_1,,,,,,,,,,,,,blue,diamond
1303.0,4.0,4.0,0.0,2.0,2.0,575.873275000049,3.0,1.0,part_1,,,,,,,,,,,,,magenta,cross
159.0,5.0,1.0,1.0,2.0,2.0,366.5363170000546,3.0,1.0,part_1,,,,,,,,,,,,,blue,diamond
0.0,4.0,0.0,0.0,3.0,3.0,566.1264210000354,3.0,1.0,part_1,,,,,,,,,,,,,magenta,cross
665.0,3.0,3.0,0.0,1.0,1.0,457.9893160000665,3.0,1.0,part_1,,,,,,,,,,,,,green,square
0.0,8.0,0.0,1.0,1.0,1.0,502.4032450000959,3.0,1.0,part_1,,,,,,,,,,,,,orange,hexagon
662.0,7.0,3.0,1.0,4.0,4.0,576.8602299999657,3.0,1.0,part_1,,,,,,,,,,,,,cyan,flipped triangle
160.0,1.0,1.0,0.0,3.0,3.0,567.0815660000699,3.0,1.0,part_1,,,,,,,,,,,,,yellow,triangle
309.0,2.0,2.0,0.0,1.0,1.0,649.5600879998165,3.0,1.0,part_1,,,,,,,,,,,,,white,circle
0.0,7.0,0.0,1.0,3.0,3.0,466.3586880001276,3.0,1.0,part_1,,,,,,,,,,,,,cyan,flipped triangle
324.0,6.0,2.0,1.0,2.0,2.0,640.1211739998871,3.0,1.0,part_1,,,,,,,,,,,,,gray,I
1319.0,8.0,4.0,1.0,3.0,3.0,622.7648349999981,3.0,1.0,part_1,,,,,,,,,,,,,orange,hexagon
315.0,2.0,2.0,0.0,4.0,4.0,502.6121799999146,3.0,1.0,part_1,,,,,,,,,,,,,white,circle
0.0,8.0,0.0,1.0,1.0,1.0,548.4864640000069,3.0,1.0,part_1,,,,,,,,,,,,,orange,hexagon
138.0,5.0,1.0,1.0,1.0,1.0,474.9922089999927,3.0,1.0,part_1,,,,,,,,,,,,,blue,diamond
183.0,1.0,1.0,0.0,1.0,1.0,421.9234510001115,3.0,1.0,part_1,,,,,,,,,,,,,yellow,triangle
1276.0,4.0,4.0,0.0,4.0,4.0,493.3736190000672,3.0,1.0,part_1,,,,,,,,,,,,,magenta,cross
323.0,2.0,2.0,0.0,3.0,3.0,711.2664710000445,3.0,1.0,part_1,,,,,,,,,,,,,white,circle
152.0,5.0,1.0,1.0,3.0,3.0,448.7899030000335,3.0,1.0,part_1,,,,,,,,,,,,,blue,diamond
1321.0,4.0,4.0,0.0,1.0,1.0,474.9645250001322,3.0,1.0,part_1,,,,,,,,,,,,,magenta,cross
168.0,5.0,1.0,1.0,4.0,4.0,664.4827509999232,3.0,1.0,part_1,,,,,,,,,,,,,blue,diamond
659.0,3.0,3.0,0.0,4.0,4.0,438.4447150000596,3.0,1.0,part_1,,,,,,,,,,,,,green,square
0.0,5.0,0.0,1.0,2.0,2.0,703.0220280000776,3.0,1.0,part_1,,,,,,,,,,,,,blue,diamond
1323.0,8.0,4.0,1.0,4.0,4.0,493.3377919999202,3.0,1.0,part_1,,,,,,,,,,,,,orange,hexagon
633.0,3.0,3.0,0.0,1.0,1.0,738.5693119999814,3.0,2.0,part_1,,,,,,,,,,,,,green,square
345.0,6.0,2.0,1.0,3.0,3.0,912.530697999955,3.0,1.0,part_1,,,,,,,,,,,,,gray,I
312.0,2.0,2.0,0.0,3.0,3.0,474.0485609997904,3.0,1.0,part_1,,,,,,,,,,,,,white,circle
143.0,1.0,1.0,0.0,2.0,2.0,621.3073289998192,3.0,1.0,part_1,,,,,,,,,,,,,yellow,triangle
181.0,5.0,1.0,1.0,1.0,1.0,518.6353050000889,3.0,1.0,part_1,,,,,,,,,,,,,blue,diamond
1310.0,8.0,4.0,1.0,2.0,2.0,619.098294999958,3.0,1.0,part_1,,,,,,,,,,,,,orange,hexagon
662.0,3.0,3.0,0.0,4.0,4.0,557.1667570002319,3.0,1.0,part_1,,,,,,,,,,,,,green,square
0.0,8.0,0.0,1.0,1.0,1.0,502.94780700005504,3.0,1.0,part_1,,,,,,,,,,,,,orange,hexagon
320.0,6.0,2.0,1.0,4.0,4.0,750.5377329998737,3.0,1.0,part_1,,,,,,,,,,,,,gray,I
148.0,5.0,1.0,1.0,2.0,2.0,593.1033340002614,3.0,1.0,part_1,,,,,,,,,,,,,blue,diamond
0.0,6.0,0.0,1.0,4.0,4.0,566.3221149998208,3.0,1.0,part_1,,,,,,,,,,,,,gray,I
0.0,4.0,0.0,0.0,4.0,4.0,593.925119999767,3.0,1.0,part_1,,,,,,,,,,,,,magenta,cross
1302.0,4.0,4.0,0.0,4.0,4.0,456.0606840000218,3.0,1.0,part_1,,,,,,,,,,,,,magenta,cross
671.0,7.0,3.0,1.0,3.0,3.0,531.625790000362,3.0,1.0,part_1,,,,,,,,,,,,,cyan,flipped triangle
631.0,7.0,3.0,1.0,3.0,3.0,429.8790909997478,3.0,1.0,part_1,,,,,,,,,,,,,cyan,flipped triangle
315.0,2.0,2.0,0.0,3.0,3.0,521.1094839996804,3.0,1.0,part_1,,,,,,,,,,,,,white,circle
1292.0,8.0,4.0,1.0,4.0,4.0,557.9360030001226,3.0,1.0,part_1,,,,,,,,,,,,,orange,hexagon
1299.0,8.0,4.0,1.0,4.0,4.0,394.0110809999169,3.0,1.0,part_1,,,,,,,,,,,,,orange,hexagon
332.0,6.0,2.0,1.0,1.0,1.0,767.593871000372,3.0,1.0,part_1,,,,,,,,,,,,,gray,I
1302.0,8.0,4.0,1.0,1.0,1.0,466.055193000102,3.0,1.0,part_1,,,,,,,,,,,,,orange,hexagon
166.0,1.0,1.0,0.0,3.0,3.0,476.5965530000358,3.0,1.0,part_1,,,,,,,,,,,,,yellow,triangle
339.0,2.0,2.0,0.0,3.0,3.0,411.0061189999214,3.0,1.0,part_1,,,,,,,,,,,,,white,circle
672.0,3.0,3.0,0.0,1.0,1.0,411.3801729999977,3.0,1.0,part_1,,,,,,,,,,,,,green,square
339.0,6.0,2.0,1.0,4.0,4.0,466.4977249999538,3.0,1.0,part_1,,,,,,,,,,,,,gray,I
347.0,6.0,2.0,1.0,3.0,3.0,494.8468519996822,3.0,1.0,part_1,,,,,,,,,,,,,gray,I
346.0,6.0,2.0,1.0,2.0,2.0,667.0127080001294,3.0,1.0,part_1,,,,,,,,,,,,,gray,I
0.0,8.0,0.0,1.0,1.0,1.0,711.3658250000299,3.0,1.0,part_1,,,,,,,,,,,,,orange,hexagon
327.0,2.0,2.0,0.0,1.0,1.0,586.771452999983,3.0,1.0,part_1,,,,,,,,,,,,,white,circle
0.0,6.0,0.0,1.0,3.0,3.0,887.633614999686,3.0,1.0,part_1,,,,,,,,,,,,,gray,I
1321.0,4.0,4.0,0.0,4.0,4.0,630.1770269997178,3.0,1.0,part_1,,,,,,,,,,,,,magenta,cross
307.0,6.0,2.0,1.0,1.0,1.0,932.131181999921,3.0,1.0,part_1,,,,,,,,,,,,,gray,I
1290.0,4.0,4.0,0.0,4.0,4.0,576.6685419998794,3.0,1.0,part_1,,,,,,,,,,,,,magenta,cross
655.0,3.0,3.0,0.0,2.0,2.0,638.2055019998916,3.0,1.0,part_1,,,,,,,,,,,,,green,square
179.0,5.0,1.0,1.0,1.0,1.0,610.7923110002957,3.0,1.0,part_1,,,,,,,,,,,,,blue,diamond
0.0,1.0,0.0,0.0,4.0,4.0,556.7986789997121,3.0,2.0,part_1,,,,,,,,,,,,,yellow,triangle
141.0,1.0,1.0,0.0,1.0,1.0,749.0994559998398,3.0,1.0,part_1,,,,,,,,,,,,,yellow,triangle
143.0,5.0,1.0,1.0,2.0,2.0,876.0851289998755,3.0,1.0,part_1,,,,,,,,,,,,,blue,diamond
326.0,6.0,2.0,1.0,2.0,2.0,814.084140000432,3.0,1.0,part_1,,,,,,,,,,,,,gray,I
1301.0,8.0,4.0,1.0,1.0,1.0,786.0716089999187,3.0,1.0,part_1,,,,,,,,,,,,,orange,hexagon
666.0,3.0,3.0,0.0,1.0,1.0,980.0589289998244,3.0,1.0,part_1,,,,,,,,,,,,,green,square
319.0,6.0,2.0,1.0,2.0,2.0,611.3882059999014,3.0,1.0,part_1,,,,,,,,,,,,,gray,I
168.0,1.0,1.0,0.0,2.0,2.0,521.063088000119,3.0,1.0,part_1,,,,,,,,,,,,,yellow,triangle
0.0,3.0,0.0,0.0,3.0,3.0,658.2589989998269,3.0,1.0,part_1,,,,,,,,,,,,,green,square
0.0,5.0,0.0,1.0,4.0,4.0,711.3846759998523,3.0,1.0,part_1,,,,,,,,,,,,,blue,diamond
0.0,2.0,0.0,0.0,1.0,1.0,915.397208000286,3.0,1.0,part_1,,,,,,,,,,,,,white,circle
1304.0,8.0,4.0,1.0,2.0,2.0,557.0956709998427,3.0,1.0,part_1,,,,,,,,,,,,,orange,hexagon
321.0,2.0,2.0,0.0,3.0,3.0,530.7014280001567,3.0,1.0,part_1,,,,,,,,,,,,,white,circle
325.0,6.0,2.0,1.0,3.0,3.0,568.2341319998159,3.0,1.0,part_1,,,,,,,,,,,,,gray,I
339.0,6.0,2.0,1.0,1.0,1.0,715.6882729996141,3.0,5.0,part_1,,,,,,,,,,,,,gray,I
633.0,7.0,3.0,1.0,3.0,3.0,456.4957329998833,3.0,1.0,part_1,,,,,,,,,,,,,cyan,flipped triangle
0.0,1.0,0.0,0.0,3.0,3.0,493.7551449997954,3.0,1.0,part_1,,,,,,,,,,,,,yellow,triangle
154.0,5.0,1.0,1.0,1.0,1.0,396.0704569999507,3.0,1.0,part_1,,,,,,,,,,,,,blue,diamond
166.0,5.0,1.0,1.0,2.0,2.0,894.7492970000894,3.0,1.0,part_1,,,,,,,,,,,,,blue,diamond
312.0,6.0,2.0,1.0,4.0,4.0,601.5144030002375,3.0,1.0,part_1,,,,,,,,,,,,,gray,I
342.0,2.0,2.0,0.0,2.0,2.0,739.2644710002969,3.0,1.0,part_1,,,,,,,,,,,,,white,circle
312.0,6.0,2.0,1.0,2.0,2.0,548.3334579998882,3.0,1.0,part_1,,,,,,,,,,,,,gray,I
1303.0,8.0,4.0,1.0,1.0,1.0,439.3777440000121,4.0,2.0,part_1,,,,,,,,,,,,,orange,hexagon
0.0,8.0,0.0,1.0,1.0,1.0,484.9260609998964,4.0,1.0,part_1,,,,,,,,,,,,,orange,hexagon
665.0,7.0,3.0,1.0,4.0,4.0,513.0354610000722,4.0,1.0,part_1,,,,,,,,,,,,,cyan,flipped triangle
628.0,3.0,3.0,0.0,2.0,2.0,465.7254690000627,4.0,1.0,part_1,,,,,,,,,,,,,green,square
0.0,7.0,0.0,1.0,3.0,3.0,674.312509000174,4.0,1.0,part_1,,,,,,,,,,,,,cyan,flipped triangle
333.0,6.0,2.0,1.0,2.0,2.0,521.6031199997815,4.0,1.0,part_1,,,,,,,,,,,,,gray,I
628.0,7.0,3.0,1.0,2.0,2.0,631.5564530000302,4.0,1.0,part_1,,,,,,,,,,,,,cyan,flipped triangle
646.0,7.0,3.0,1.0,4.0,4.0,439.1723419998925,4.0,1.0,part_1,,,,,,,,,,,,,cyan,flipped triangle
341.0,2.0,2.0,0.0,2.0,2.0,393.7972939997962,4.0,1.0,part_1,,,,,,,,,,,,,white,circle
1310.0,4.0,4.0,0.0,3.0,3.0,522.3452090003775,4.0,1.0,part_1,,,,,,,,,,,,,magenta,cross
344.0,2.0,2.0,0.0,4.0,4.0,575.5462110000735,4.0,1.0,part_1,,,,,,,,,,,,,white,circle
1287.0,4.0,4.0,0.0,3.0,3.0,521.1755479999738,4.0,1.0,part_1,,,,,,,,,,,,,magenta,cross
1310.0,4.0,4.0,0.0,1.0,1.0,612.9015070000605,4.0,1.0,part_1,,,,,,,,,,,,,magenta,cross
0.0,1.0,0.0,0.0,4.0,4.0,868.1767409998429,4.0,1.0,part_1,,,,,,,,,,,,,yellow,triangle
1307.0,4.0,4.0,0.0,1.0,1.0,656.4337159998104,4.0,1.0,part_1,,,,,,,,,,,,,magenta,cross
1289.0,8.0,4.0,1.0,1.0,1.0,639.1125410000313,4.0,1.0,part_1,,,,,,,,,,,,,orange,hexagon
0.0,2.0,0.0,0.0,3.0,3.0,529.985520000082,4.0,1.0,part_1,,,,,,,,,,,,,white,circle
0.0,4.0,0.0,0.0,4.0,4.0,584.8286539999208,4.0,1.0,part_1,,,,,,,,,,,,,magenta,cross
0.0,5.0,0.0,1.0,3.0,3.0,438.4861050002655,4.0,1.0,part_1,,,,,,,,,,,,,blue,diamond
169.0,1.0,1.0,0.0,1.0,1.0,566.1569569997482,4.0,1.0,part_1,,,,,,,,,,,,,yellow,triangle
672.0,7.0,3.0,1.0,2.0,2.0,740.4390890001196,4.0,1.0,part_1,,,,,,,,,,,,,cyan,flipped triangle
326.0,6.0,2.0,1.0,2.0,2.0,575.3386589999536,4.0,1.0,part_1,,,,,,,,,,,,,gray,I
344.0,6.0,2.0,1.0,4.0,4.0,465.7220700000835,4.0,1.0,part_1,,,,,,,,,,,,,gray,I
169.0,5.0,1.0,1.0,2.0,2.0,539.6137929997167,4.0,1.0,part_1,,,,,,,,,,,,,blue,diamond
647.0,7.0,3.0,1.0,1.0,1.0,750.1107809998757,4.0,1.0,part_1,,,,,,,,,,,,,cyan,flipped triangle
1283.0,8.0,4.0,1.0,2.0,2.0,475.0910879997718,4.0,1.0,part_1,,,,,,,,,,,,,orange,hexagon
166.0,1.0,1.0,0.0,1.0,1.0,401.0989000003064,4.0,1.0,part_1,,,,,,,,,,,,,yellow,triangle
0.0,6.0,0.0,1.0,3.0,3.0,429.7412219998477,4.0,1.0,part_1,,,,,,,,,,,,,gray,I
1283.0,8.0,4.0,1.0,1.0,1.0,375.0059090002651,4.0,1.0,part_1,,,,,,,,,,,,,orange,hexagon
631.0,3.0,3.0,0.0,2.0,2.0,474.7367979998671,4.0,1.0,part_1,,,,,,,,,,,,,green,square
671.0,7.0,3.0,1.0,2.0,2.0,539.457107999624,4.0,1.0,part_1,,,,,,,,,,,,,cyan,flipped triangle
141.0,1.0,1.0,0.0,3.0,3.0,447.382528000162,4.0,1.0,part_1,,,,,,,,,,,,,yellow,triangle
0.0,4.0,0.0,0.0,3.0,3.0,412.2241969998867,4.0,1.0,part_1,,,,,,,,,,,,,magenta,cross
0.0,1.0,0.0,0.0,3.0,3.0,402.8579260002516,4.0,1.0,part_1,,,,,,,,,,,,,yellow,triangle
636.0,7.0,3.0,1.0,3.0,3.0,357.2159780001129,4.0,1.0,part_1,,,,,,,,,,,,,cyan,flipped triangle
0.0,7.0,0.0,1.0,1.0,1.0,412.1886769999037,4.0,1.0,part_1,,,,,,,,,,,,,cyan,flipped triangle
0.0,5.0,0.0,1.0,1.0,1.0,456.2302280000949,4.0,1.0,part_1,,,,,,,,,,,,,blue,diamond
344.0,2.0,2.0,0.0,2.0,2.0,410.6406390001211,4.0,1.0,part_1,,,,,,,,,,,,,white,circle
660.0,7.0,3.0,1.0,2.0,2.0,437.8372609999132,4.0,1.0,part_1,,,,,,,,,,,,,cyan,flipped triangle
658.0,7.0,3.0,1.0,2.0,2.0,366.1250129998734,4.0,1.0,part_1,,,,,,,,,,,,,cyan,flipped triangle
641.0,3.0,3.0,0.0,1.0,1.0,474.8003660001814,4.0,1.0,part_1,,,,,,,,,,,,,green,square
333.0,6.0,2.0,1.0,3.0,3.0,402.8002639997794,4.0,1.0,part_1,,,,,,,,,,,,,gray,I
646.0,3.0,3.0,0.0,3.0,3.0,466.6626540001743,4.0,1.0,part_1,,,,,,,,,,,,,green,square
161.0,1.0,1.0,0.0,4.0,4.0,694.8102420001305,4.0,1.0,part_1,,,,,,,,,,,,,yellow,triangle
1289.0,4.0,4.0,0.0,2.0,2.0,521.4834069997778,4.0,1.0,part_1,,,,,,,,,,,,,magenta,cross
0.0,7.0,0.0,1.0,3.0,3.0,438.9001529998495,4.0,1.0,part_1,,,,,,,,,,,,,cyan,flipped triangle
0.0,4.0,0.0,0.0,1.0,1.0,565.7655439999871,4.0,1.0,part_1,,,,,,,,,,,,,magenta,cross
636.0,3.0,3.0,0.0,4.0,4.0,448.4197100000529,4.0,1.0,part_1,,,,,,,,,,,,,green,square
164.0,1.0,1.0,0.0,2.0,2.0,375.1482509997004,4.0,2.0,part_1,,,,,,,,,,,,,yellow,triangle
150.0,1.0,1.0,0.0,3.0,3.0,419.3447509996986,4.0,1.0,part_1,,,,,,,,,,,,,yellow,triangle
0.0,5.0,0.0,1.0,4.0,4.0,455.8046980000654,4.0,1.0,part_1,,,,,,,,,,,,,blue,diamond
0.0,3.0,0.0,0.0,2.0,2.0,447.0707460000085,4.0,1.0,part_1,,,,,,,,,,,,,green,square
149.0,1.0,1.0,0.0,2.0,2.0,438.9612139998462,4.0,1.0,part_1,,,,,,,,,,,,,yellow,triangle
629.0,3.0,3.0,0.0,3.0,3.0,406.3655090003522,4.0,1.0,part_1,,,,,,,,,,,,,green,square
159.0,5.0,1.0,1.0,4.0,4.0,431.873276999795,4.0,1.0,part_1,,,,,,,,,,,,,blue,diamond
650.0,3.0,3.0,0.0,4.0,4.0,464.5378990003337,4.0,1.0,part_1,,,,,,,,,,,,,green,square
1282.0,8.0,4.0,1.0,1.0,1.0,512.0894320002662,4.0,1.0,part_1,,,,,,,,,,,,,orange,hexagon
0.0,3.0,0.0,0.0,2.0,2.0,583.1723920000513,4.0,1.0,part_1,,,,,,,,,,,,,green,square
0.0,4.0,0.0,0.0,4.0,4.0,475.1617899996745,4.0,1.0,part_1,,,,,,,,,,,,,magenta,cross
307.0,6.0,2.0,1.0,3.0,3.0,539.8877820002781,4.0,1.0,part_1,,,,,,,,,,,,,gray,I
302.0,6.0,2.0,1.0,1.0,1.0,548.1590439999309,4.0,1.0,part_1,,,,,,,,,,,,,gray,I
658.0,3.0,3.0,0.0,1.0,1.0,574.9955129999762,4.0,1.0,part_1,,,,,,,,,,,,,green,square
315.0,2.0,2.0,0.0,3.0,3.0,465.6447099996512,4.0,1.0,part_1,,,,,,,,,,,,,white,circle
1304.0,4.0,4.0,0.0,3.0,3.0,467.2583000001395,4.0,1.0,part_1,,,,,,,,,,,,,magenta,cross
0.0,3.0,0.0,0.0,3.0,3.0,365.9657749999496,4.0,1.0,part_1,,,,,,,,,,,,,green,square
155.0,5.0,1.0,1.0,4.0,4.0,441.011109000101,4.0,1.0,part_1,,,,,,,,,,,,,blue,diamond
320.0,2.0,2.0,0.0,4.0,4.0,466.3186029997632,4.0,1.0,part_1,,,,,,,,,,,,,white,circle
179.0,1.0,1.0,0.0,4.0,4.0,412.0980719999352,4.0,1.0,part_1,,,,,,,,,,,,,yellow,triangle
333.0,2.0,2.0,0.0,3.0,3.0,412.4218500001007,4.0,1.0,part_1,,,,,,,,,,,,,white,circle
0.0,7.0,0.0,1.0,4.0,4.0,574.5082509997701,4.0,1.0,part_1,,,,,,,,,,,,,cyan,flipped triangle
655.0,7.0,3.0,1.0,2.0,2.0,466.6723079999428,4.0,1.0,part_1,,,,,,,,,,,,,cyan,flipped triangle
0.0,2.0,0.0,0.0,4.0,4.0,566.857366000022,4.0,1.0,part_1,,,,,,,,,,,,,white,circle
641.0,7.0,3.0,1.0,4.0,4.0,557.9644429999462,4.0,1.0,part_1,,,,,,,,,,,,,cyan,flipped triangle
347.0,2.0,2.0,0.0,2.0,2.0,411.9037939999543,4.0,2.0,part_1,,,,,,,,,,,,,white,circle
1304.0,4.0,4.0,0.0,4.0,4.0,428.8432959997408,4.0,1.0,part_1,,,,,,,,,,,,,magenta,cross
1281.0,4.0,4.0,0.0,3.0,3.0,393.4346320002078,4.0,1.0,part_1,,,,,,,,,,,,,magenta,cross
153.0,1.0,1.0,0.0,3.0,3.0,510.91561900011584,4.0,1.0,part_1,,,,,,,,,,,,,yellow,triangle
0.0,5.0,0.0,1.0,3.0,3.0,466.8272540002363,4.0,1.0,part_1,,,,,,,,,,,,,blue,diamond
1322.0,8.0,4.0,1.0,3.0,3.0,446.2263979999079,4.0,1.0,part_1,,,,,,,,,,,,,orange,hexagon
628.0,3.0,3.0,0.0,4.0,4.0,522.3366199998054,4.0,1.0,part_1,,,,,,,,,,,,,green,square
664.0,7.0,3.0,1.0,3.0,3.0,383.9541289999033,4.0,1.0,part_1,,,,,,,,,,,,,cyan,flipped triangle
315.0,6.0,2.0,1.0,2.0,2.0,529.9037919999137,4.0,2.0,part_1,,,,,,,,,,,,,gray,I
650.0,3.0,3.0,0.0,4.0,4.0,466.8720449999455,4.0,1.0,part_1,,,,,,,,,,,,,green,square
145.0,1.0,1.0,0.0,4.0,4.0,475.9733890000461,4.0,1.0,part_1,,,,,,,,,,,,,yellow,triangle
344.0,6.0,2.0,1.0,3.0,3.0,531.0784090002016,4.0,1.0,part_1,,,,,,,,,,,,,gray,I
164.0,5.0,1.0,1.0,2.0,2.0,465.1743790000182,4.0,1.0,part_1,,,,,,,,,,,,,blue,diamond
642.0,3.0,3.0,0.0,3.0,3.0,467.3849309997422,4.0,1.0,part_1,,,,,,,,,,,,,green,square
312.0,2.0,2.0,0.0,1.0,1.0,529.1720860000169,4.0,1.0,part_1,,,,,,,,,,,,,white,circle
1313.0,8.0,4.0,1.0,4.0,4.0,648.5951999998179,4.0,1.0,part_1,,,,,,,,,,,,,orange,hexagon
670.0,7.0,3.0,1.0,1.0,1.0,731.0269479999079,4.0,1.0,part_1,,,,,,,,,,,,,cyan,flipped triangle
0.0,1.0,0.0,0.0,3.0,3.0,575.3591520001464,4.0,1.0,part_1,,,,,,,,,,,,,yellow,triangle
1323.0,4.0,4.0,0.0,4.0,4.0,538.6354160000337,4.0,1.0,part_1,,,,,,,,,,,,,magenta,cross
304.0,6.0,2.0,1.0,3.0,3.0,537.0297790000222,4.0,1.0,part_1,,,,,,,,,,,,,gray,I
137.0,1.0,1.0,0.0,3.0,3.0,694.3346200000633,4.0,1.0,part_1,,,,,,,,,,,,,yellow,triangle
1311.0,8.0,4.0,1.0,4.0,4.0,528.8243949999014,4.0,1.0,part_1,,,,,,,,,,,,,orange,hexagon
646.0,3.0,3.0,0.0,2.0,2.0,803.1839549998949,4.0,1.0,part_1,,,,,,,,,,,,,green,square
169.0,5.0,1.0,1.0,1.0,1.0,786.6731939998317,4.0,1.0,part_1,,,,,,,,,,,,,blue,diamond
667.0,7.0,3.0,1.0,4.0,4.0,475.1318690000516,4.0,1.0,part_1,,,,,,,,,,,,,cyan,flipped triangle
322.0,2.0,2.0,0.0,1.0,1.0,894.4655899999816,4.0,1.0,part_1,,,,,,,,,,,,,white,circle
312.0,2.0,2.0,0.0,4.0,4.0,539.5791619998818,4.0,2.0,part_1,,,,,,,,,,,,,white,circle
0.0,6.0,2.0,1.0,6.0,6.0,676.4782599998398,1.0,0.0,part_2,go,250.0,250.0,1.0,,,,,,,,,gray,I
0.0,4.0,4.0,0.0,5.0,5.0,503.6365500000102,1.0,0.0,part_2,go,250.0,250.0,1.0,,,,,,,,,magenta,cross
0.0,3.0,3.0,0.0,6.0,6.0,586.5484399996603,1.0,0.0,part_2,go,250.0,250.0,1.0,,,,,,,,,green,square
0.0,5.0,1.0,1.0,6.0,6.0,627.0264370000405,1.0,0.0,part_2,stop,250.0,250.0,3.0,,,,,,,,,blue,diamond
0.0,3.0,3.0,0.0,5.0,5.0,461.6316280003048,1.0,0.0,part_2,go,250.0,200.0,1.0,,,,,,,,,green,square
0.0,8.0,4.0,1.0,6.0,6.0,404.6384970001782,1.0,0.0,part_2,stop,250.0,200.0,3.0,,,,,,,,,orange,hexagon
0.0,1.0,1.0,0.0,6.0,6.0,717.3027550002189,1.0,0.0,part_2,go,250.0,150.0,1.0,,,,,,,,,yellow,triangle
0.0,4.0,4.0,0.0,6.0,6.0,477.8679219998594,1.0,0.0,part_2,go,250.0,150.0,1.0,,,,,,,,,magenta,cross
0.0,6.0,2.0,1.0,6.0,6.0,480.3605060001246,1.0,0.0,part_2,go,250.0,150.0,1.0,,,,,,,,,gray,I
0.0,6.0,2.0,1.0,6.0,0.0,0.0,1.0,0.0,part_2,stop,250.0,150.0,4.0,,,,,,,,,gray,I
0.0,8.0,4.0,1.0,6.0,0.0,0.0,1.0,0.0,part_2,stop,250.0,200.0,4.0,,,,,,,,,orange,hexagon
0.0,1.0,1.0,0.0,5.0,5.0,497.3497710002448,1.0,0.0,part_2,go,250.0,250.0,1.0,,,,,,,,,yellow,triangle
0.0,3.0,3.0,0.0,6.0,6.0,506.2618819997624,1.0,0.0,part_2,go,250.0,250.0,1.0,,,,,,,,,green,square
0.0,5.0,1.0,1.0,6.0,6.0,417.1029269996325,1.0,0.0,part_2,stop,250.0,250.0,3.0,,,,,,,,,blue,diamond
0.0,3.0,3.0,0.0,5.0,5.0,488.5219930001767,1.0,0.0,part_2,go,250.0,200.0,1.0,,,,,,,,,green,square
0.0,8.0,4.0,1.0,5.0,5.0,578.7174709998908,1.0,0.0,part_2,go,250.0,200.0,1.0,,,,,,,,,orange,hexagon
0.0,6.0,2.0,1.0,6.0,6.0,578.7629659998856,1.0,0.0,part_2,go,250.0,200.0,1.0,,,,,,,,,gray,I
0.0,2.0,2.0,0.0,6.0,6.0,469.8063669998191,1.0,0.0,part_2,go,250.0,200.0,1.0,,,,,,,,,white,circle
0.0,3.0,3.0,0.0,5.0,5.0,377.5774220002859,1.0,0.0,part_2,go,250.0,200.0,1.0,,,,,,,,,green,square
0.0,2.0,2.0,0.0,5.0,5.0,589.5495909999227,1.0,0.0,part_2,go,250.0,200.0,1.0,,,,,,,,,white,circle
0.0,2.0,2.0,0.0,5.0,5.0,404.8561950003204,1.0,0.0,part_2,go,250.0,200.0,1.0,,,,,,,,,white,circle
0.0,5.0,1.0,1.0,5.0,5.0,406.6067670000848,1.0,0.0,part_2,stop,250.0,200.0,3.0,,,,,,,,,blue,diamond
0.0,4.0,4.0,0.0,5.0,5.0,1049.1746560001047,1.0,0.0,part_2,go,200.0,200.0,1.0,,,,,,,,,magenta,cross
0.0,2.0,2.0,0.0,6.0,6.0,745.9247859997049,1.0,0.0,part_2,go,200.0,200.0,1.0,,,,,,,,,white,circle
0.0,2.0,2.0,0.0,6.0,6.0,698.3051209999758,1.0,0.0,part_2,go,200.0,200.0,1.0,,,,,,,,,white,circle
0.0,2.0,2.0,0.0,5.0,5.0,570.4131870002129,1.0,0.0,part_2,go,200.0,200.0,1.0,,,,,,,,,white,circle
0.0,6.0,2.0,1.0,5.0,0.0,0.0,1.0,0.0,part_2,stop,200.0,200.0,4.0,,,,,,,,,gray,I
0.0,4.0,4.0,0.0,6.0,6.0,420.402834000015,1.0,0.0,part_2,go,250.0,200.0,1.0,,,,,,,,,magenta,cross
0.0,4.0,4.0,0.0,5.0,5.0,587.9172169998128,1.0,0.0,part_2,go,250.0,200.0,1.0,,,,,,,,,magenta,cross
0.0,3.0,3.0,0.0,6.0,6.0,590.203761000339,1.0,0.0,part_2,go,250.0,200.0,1.0,,,,,,,,,green,square
0.0,1.0,1.0,0.0,5.0,5.0,505.6442700001753,1.0,0.0,part_2,go,250.0,200.0,1.0,,,,,,,,,yellow,triangle
0.0,7.0,3.0,1.0,5.0,0.0,0.0,1.0,0.0,part_2,stop,250.0,200.0,4.0,,,,,,,,,cyan,flipped triangle
0.0,7.0,3.0,1.0,6.0,6.0,433.7042540000766,1.0,0.0,part_2,stop,300.0,200.0,3.0,,,,,,,,,cyan,flipped triangle
0.0,8.0,4.0,1.0,6.0,6.0,580.9992710001097,1.0,0.0,part_2,go,300.0,150.0,1.0,,,,,,,,,orange,hexagon
0.0,7.0,3.0,1.0,6.0,0.0,0.0,1.0,0.0,part_2,stop,300.0,150.0,4.0,,,,,,,,,cyan,flipped triangle
0.0,7.0,3.0,1.0,5.0,0.0,0.0,1.0,0.0,part_2,stop,300.0,200.0,4.0,,,,,,,,,cyan,flipped triangle
0.0,1.0,1.0,0.0,6.0,6.0,838.5212450002655,2.0,0.0,part_2,go,350.0,200.0,1.0,,,,,,,,,yellow,triangle
0.0,1.0,1.0,0.0,6.0,6.0,445.0255420001667,2.0,0.0,part_2,go,350.0,200.0,1.0,,,,,,,,,yellow,triangle
0.0,8.0,4.0,1.0,6.0,0.0,0.0,2.0,0.0,part_2,stop,350.0,200.0,4.0,,,,,,,,,orange,hexagon
0.0,7.0,3.0,1.0,6.0,0.0,0.0,2.0,0.0,part_2,stop,350.0,250.0,4.0,,,,,,,,,cyan,flipped triangle
0.0,8.0,4.0,1.0,6.0,6.0,590.3920000000653,2.0,0.0,part_2,go,350.0,300.0,1.0,,,,,,,,,orange,hexagon
0.0,4.0,4.0,0.0,6.0,6.0,663.0844910000633,2.0,0.0,part_2,go,350.0,300.0,1.0,,,,,,,,,magenta,cross
0.0,7.0,3.0,1.0,6.0,0.0,0.0,2.0,0.0,part_2,stop,350.0,300.0,4.0,,,,,,,,,cyan,flipped triangle
0.0,7.0,3.0,1.0,6.0,0.0,0.0,2.0,0.0,part_2,stop,350.0,350.0,4.0,,,,,,,,,cyan,flipped triangle
0.0,2.0,2.0,0.0,5.0,5.0,673.6355870002626,2.0,0.0,part_2,go,350.0,400.0,1.0,,,,,,,,,white,circle
0.0,2.0,2.0,0.0,6.0,6.0,599.1127500001312,2.0,0.0,part_2,go,350.0,400.0,1.0,,,,,,,,,white,circle
0.0,7.0,3.0,1.0,5.0,5.0,475.9906019999107,2.0,0.0,part_2,stop,350.0,400.0,3.0,,,,,,,,,cyan,flipped triangle
0.0,7.0,3.0,1.0,6.0,0.0,0.0,2.0,0.0,part_2,stop,300.0,400.0,4.0,,,,,,,,,cyan,flipped triangle
0.0,5.0,1.0,1.0,6.0,6.0,790.3433080000468,2.0,0.0,part_2,go,300.0,450.0,1.0,,,,,,,,,blue,diamond
0.0,8.0,4.0,1.0,6.0,0.0,0.0,2.0,0.0,part_2,stop,300.0,450.0,4.0,,,,,,,,,orange,hexagon
0.0,6.0,2.0,1.0,5.0,0.0,0.0,2.0,0.0,part_2,stop,300.0,500.0,4.0,,,,,,,,,gray,I
0.0,3.0,3.0,0.0,5.0,5.0,625.3260830003455,2.0,0.0,part_2,go,350.0,500.0,1.0,,,,,,,,,green,square
0.0,5.0,1.0,1.0,6.0,0.0,0.0,2.0,0.0,part_2,stop,350.0,500.0,4.0,,,,,,,,,blue,diamond
0.0,2.0,2.0,0.0,5.0,5.0,663.9868000002025,2.0,0.0,part_2,go,350.0,550.0,1.0,,,,,,,,,white,circle
0.0,1.0,1.0,0.0,5.0,5.0,900.3179410001394,2.0,0.0,part_2,go,350.0,550.0,1.0,,,,,,,,,yellow,triangle
0.0,5.0,1.0,1.0,6.0,6.0,689.0570909999951,2.0,0.0,part_2,stop,350.0,550.0,3.0,,,,,,,,,blue,diamond
0.0,5.0,1.0,1.0,5.0,5.0,885.945983000056,2.0,0.0,part_2,go,350.0,500.0,1.0,,,,,,,,,blue,diamond
0.0,6.0,2.0,1.0,5.0,0.0,0.0,2.0,0.0,part_2,stop,350.0,500.0,4.0,,,,,,,,,gray,I
0.0,2.0,2.0,0.0,6.0,6.0,846.902110999963,2.0,0.0,part_2,go,400.0,500.0,1.0,,,,,,,,,white,circle
0.0,5.0,1.0,1.0,6.0,6.0,653.1149920001553,2.0,0.0,part_2,go,400.0,500.0,1.0,,,,,,,,,blue,diamond
0.0,6.0,2.0,1.0,5.0,5.0,485.7140320000326,2.0,0.0,part_2,stop,400.0,500.0,3.0,,,,,,,,,gray,I
0.0,1.0,1.0,0.0,6.0,6.0,764.7654349998447,2.0,0.0,part_2,go,350.0,500.0,1.0,,,,,,,,,yellow,triangle
0.0,2.0,2.0,0.0,5.0,5.0,781.8102060000456,2.0,0.0,part_2,go,350.0,500.0,1.0,,,,,,,,,white,circle
0.0,3.0,3.0,0.0,6.0,6.0,718.7921959998675,2.0,0.0,part_2,go,350.0,500.0,1.0,,,,,,,,,green,square
0.0,8.0,4.0,1.0,6.0,6.0,663.5074979999445,2.0,0.0,part_2,go,350.0,500.0,1.0,,,,,,,,,orange,hexagon
0.0,7.0,3.0,1.0,5.0,5.0,509.13965100016867,2.0,0.0,part_2,stop,350.0,500.0,3.0,,,,,,,,,cyan,flipped triangle
0.0,7.0,3.0,1.0,5.0,0.0,0.0,2.0,0.0,part_2,stop,300.0,500.0,4.0,,,,,,,,,cyan,flipped triangle
0.0,7.0,3.0,1.0,5.0,0.0,0.0,2.0,0.0,part_2,stop,350.0,500.0,4.0,,,,,,,,,cyan,flipped triangle
0.0,1.0,1.0,0.0,5.0,5.0,829.6407930001806,2.0,0.0,part_2,go,400.0,500.0,1.0,,,,,,,,,yellow,triangle
0.0,3.0,3.0,0.0,6.0,6.0,718.9228639999783,2.0,0.0,part_2,go,400.0,500.0,1.0,,,,,,,,,green,square
0.0,5.0,1.0,1.0,5.0,5.0,545.0006010000834,2.0,0.0,part_2,stop,400.0,500.0,3.0,,,,,,,,,blue,diamond
0.0,2.0,2.0,0.0,6.0,6.0,561.4334779997989,2.0,0.0,part_2,go,350.0,500.0,1.0,,,,,,,,,white,circle
0.0,4.0,4.0,0.0,6.0,6.0,543.8844380000774,3.0,0.0,part_2,go,350.0,500.0,1.0,,,,,,,,,magenta,cross
0.0,5.0,1.0,1.0,5.0,5.0,437.4932059999992,3.0,0.0,part_2,stop,350.0,500.0,3.0,,,,,,,,,blue,diamond
0.0,5.0,1.0,1.0,6.0,6.0,397.9330450001725,3.0,0.0,part_2,go,300.0,500.0,1.0,,,,,,,,,blue,diamond
0.0,7.0,3.0,1.0,6.0,6.0,482.0460569999341,3.0,0.0,part_2,stop,300.0,500.0,3.0,,,,,,,,,cyan,flipped triangle
0.0,2.0,2.0,0.0,5.0,5.0,608.5233229996447,3.0,0.0,part_2,go,300.0,450.0,1.0,,,,,,,,,white,circle
0.0,1.0,1.0,0.0,6.0,6.0,442.103390000284,3.0,0.0,part_2,go,300.0,450.0,1.0,,,,,,,,,yellow,triangle
0.0,8.0,4.0,1.0,6.0,6.0,386.8625989998691,3.0,0.0,part_2,go,300.0,450.0,1.0,,,,,,,,,orange,hexagon
0.0,7.0,3.0,1.0,6.0,6.0,359.6731059997182,3.0,0.0,part_2,stop,300.0,450.0,3.0,,,,,,,,,cyan,flipped triangle
0.0,8.0,4.0,1.0,5.0,5.0,490.0118190003013,3.0,0.0,part_2,stop,300.0,400.0,3.0,,,,,,,,,orange,hexagon
0.0,1.0,1.0,0.0,6.0,6.0,487.2192729999369,3.0,0.0,part_2,go,250.0,400.0,1.0,,,,,,,,,yellow,triangle
0.0,2.0,2.0,0.0,6.0,6.0,544.2703499998061,3.0,0.0,part_2,go,250.0,400.0,1.0,,,,,,,,,white,circle
0.0,1.0,1.0,0.0,5.0,5.0,388.2587529997181,3.0,0.0,part_2,go,250.0,400.0,1.0,,,,,,,,,yellow,triangle
0.0,1.0,1.0,0.0,6.0,6.0,516.1317100000815,3.0,0.0,part_2,go,250.0,400.0,1.0,,,,,,,,,yellow,triangle
0.0,3.0,3.0,0.0,6.0,6.0,378.6242729997866,3.0,0.0,part_2,go,250.0,400.0,1.0,,,,,,,,,green,square
0.0,4.0,4.0,0.0,6.0,6.0,360.0427659998786,3.0,0.0,part_2,go,250.0,400.0,1.0,,,,,,,,,magenta,cross
0.0,4.0,4.0,0.0,6.0,6.0,433.2921760001227,3.0,0.0,part_2,go,250.0,400.0,1.0,,,,,,,,,magenta,cross
0.0,6.0,2.0,1.0,5.0,5.0,415.3809330000513,3.0,0.0,part_2,stop,250.0,400.0,3.0,,,,,,,,,gray,I
0.0,4.0,4.0,0.0,6.0,6.0,405.3933290001623,3.0,0.0,part_2,go,200.0,400.0,1.0,,,,,,,,,magenta,cross
0.0,3.0,3.0,0.0,5.0,5.0,562.4464940001417,3.0,0.0,part_2,go,200.0,400.0,1.0,,,,,,,,,green,square
0.0,4.0,4.0,0.0,5.0,5.0,489.1280530000585,3.0,0.0,part_2,go,200.0,400.0,1.0,,,,,,,,,magenta,cross
0.0,3.0,3.0,0.0,5.0,5.0,434.7861599999305,3.0,0.0,part_2,go,200.0,400.0,1.0,,,,,,,,,green,square
0.0,4.0,4.0,0.0,6.0,6.0,388.234709000244,3.0,0.0,part_2,go,200.0,400.0,1.0,,,,,,,,,magenta,cross
0.0,5.0,1.0,1.0,5.0,5.0,313.8355780001802,3.0,0.0,part_2,stop,200.0,400.0,3.0,,,,,,,,,blue,diamond
0.0,8.0,4.0,1.0,5.0,0.0,0.0,3.0,0.0,part_2,stop,150.0,400.0,4.0,,,,,,,,,orange,hexagon
0.0,4.0,4.0,0.0,5.0,5.0,542.9535230000511,3.0,0.0,part_2,go,200.0,400.0,1.0,,,,,,,,,magenta,cross
0.0,3.0,3.0,0.0,6.0,6.0,350.1006589999633,3.0,0.0,part_2,go,200.0,400.0,1.0,,,,,,,,,green,square
0.0,1.0,1.0,0.0,6.0,6.0,423.7813720001213,3.0,0.0,part_2,go,200.0,400.0,1.0,,,,,,,,,yellow,triangle
0.0,7.0,3.0,1.0,6.0,6.0,387.7371490002588,3.0,0.0,part_2,go,200.0,400.0,1.0,,,,,,,,,cyan,flipped triangle
0.0,6.0,2.0,1.0,5.0,5.0,481.0868849999679,3.0,0.0,part_2,go,200.0,400.0,1.0,,,,,,,,,gray,I
0.0,5.0,1.0,1.0,5.0,0.0,0.0,3.0,0.0,part_2,stop,200.0,400.0,4.0,,,,,,,,,blue,diamond
0.0,2.0,2.0,0.0,5.0,5.0,600.5124299999807,3.0,0.0,part_2,go,250.0,400.0,1.0,,,,,,,,,white,circle
0.0,5.0,1.0,1.0,5.0,5.0,470.3818650000357,3.0,0.0,part_2,stop,250.0,400.0,3.0,,,,,,,,,blue,diamond
0.0,6.0,2.0,1.0,5.0,0.0,0.0,3.0,0.0,part_2,stop,200.0,400.0,4.0,,,,,,,,,gray,I
0.0,6.0,2.0,1.0,6.0,6.0,711.9187240000429,3.0,0.0,part_2,stop,250.0,400.0,3.0,,,,,,,,,gray,I
0.0,2.0,2.0,0.0,5.0,5.0,553.4790840001733,3.0,0.0,part_2,go,250.0,350.0,1.0,,,,,,,,,white,circle
0.0,5.0,1.0,1.0,5.0,0.0,0.0,3.0,0.0,part_2,stop,250.0,350.0,4.0,,,,,,,,,blue,diamond
0.0,6.0,2.0,1.0,5.0,0.0,0.0,4.0,0.0,part_2,stop,300.0,350.0,4.0,,,,,,,,,gray,I
0.0,3.0,3.0,0.0,6.0,6.0,637.6196460000756,4.0,0.0,part_2,go,350.0,350.0,1.0,,,,,,,,,green,square
0.0,8.0,4.0,1.0,5.0,5.0,431.5559070000745,4.0,0.0,part_2,stop,350.0,350.0,3.0,,,,,,,,,orange,hexagon
0.0,4.0,4.0,0.0,6.0,6.0,700.1300060001086,4.0,0.0,part_2,go,300.0,350.0,1.0,,,,,,,,,magenta,cross
0.0,5.0,1.0,1.0,6.0,6.0,422.5043890000961,4.0,0.0,part_2,go,300.0,350.0,1.0,,,,,,,,,blue,diamond
0.0,6.0,2.0,1.0,6.0,0.0,0.0,4.0,0.0,part_2,stop,300.0,350.0,4.0,,,,,,,,,gray,I
0.0,2.0,2.0,0.0,6.0,6.0,424.6687610002482,4.0,0.0,part_2,go,300.0,400.0,1.0,,,,,,,,,white,circle
0.0,3.0,3.0,0.0,6.0,6.0,544.3997910001599,4.0,0.0,part_2,go,300.0,400.0,1.0,,,,,,,,,green,square
0.0,8.0,4.0,1.0,6.0,6.0,350.3084979997766,4.0,0.0,part_2,stop,300.0,400.0,3.0,,,,,,,,,orange,hexagon
0.0,4.0,4.0,0.0,5.0,5.0,611.65922400005,4.0,0.0,part_2,go,300.0,350.0,1.0,,,,,,,,,magenta,cross
0.0,2.0,2.0,0.0,5.0,5.0,498.19292400025,4.0,0.0,part_2,go,300.0,350.0,1.0,,,,,,,,,white,circle
0.0,7.0,3.0,1.0,6.0,0.0,0.0,4.0,0.0,part_2,stop,300.0,350.0,4.0,,,,,,,,,cyan,flipped triangle
0.0,2.0,2.0,0.0,6.0,6.0,506.2537449998672,4.0,0.0,part_2,go,300.0,400.0,1.0,,,,,,,,,white,circle
0.0,1.0,1.0,0.0,5.0,5.0,480.8791750001546,4.0,0.0,part_2,go,300.0,400.0,1.0,,,,,,,,,yellow,triangle
0.0,1.0,1.0,0.0,5.0,5.0,461.2060399999791,4.0,0.0,part_2,go,300.0,400.0,1.0,,,,,,,,,yellow,triangle
0.0,5.0,1.0,1.0,6.0,6.0,341.8343009998352,4.0,0.0,part_2,stop,300.0,400.0,3.0,,,,,,,,,blue,diamond
0.0,2.0,2.0,0.0,6.0,6.0,1161.044807000053,4.0,0.0,part_2,go,300.0,350.0,1.0,,,,,,,,,white,circle
0.0,3.0,3.0,0.0,5.0,5.0,691.4916800001265,4.0,0.0,part_2,go,300.0,350.0,1.0,,,,,,,,,green,square
0.0,2.0,2.0,0.0,6.0,6.0,450.1037090003592,4.0,0.0,part_2,go,300.0,350.0,1.0,,,,,,,,,white,circle
0.0,3.0,3.0,0.0,5.0,5.0,395.6851139996615,4.0,0.0,part_2,go,300.0,350.0,1.0,,,,,,,,,green,square
0.0,6.0,2.0,1.0,6.0,6.0,471.79412999958,4.0,0.0,part_2,stop,300.0,350.0,3.0,,,,,,,,,gray,I
0.0,1.0,1.0,0.0,5.0,5.0,544.295811000211,4.0,0.0,part_2,go,300.0,300.0,1.0,,,,,,,,,yellow,triangle
0.0,2.0,2.0,0.0,6.0,6.0,479.369196999869,4.0,0.0,part_2,go,300.0,300.0,1.0,,,,,,,,,white,circle
0.0,4.0,4.0,0.0,5.0,5.0,526.4741879996109,4.0,0.0,part_2,go,300.0,300.0,1.0,,,,,,,,,magenta,cross
0.0,7.0,3.0,1.0,5.0,5.0,469.1373950004163,4.0,0.0,part_2,go,300.0,300.0,1.0,,,,,,,,,cyan,flipped triangle
0.0,2.0,2.0,0.0,6.0,6.0,609.7524150000027,4.0,0.0,part_2,go,300.0,300.0,1.0,,,,,,,,,white,circle
0.0,6.0,2.0,1.0,5.0,5.0,431.6833109996878,4.0,0.0,part_2,go,300.0,300.0,1.0,,,,,,,,,gray,I
0.0,8.0,4.0,1.0,6.0,6.0,385.1736609999534,4.0,0.0,part_2,stop,300.0,300.0,3.0,,,,,,,,,orange,hexagon
0.0,6.0,2.0,1.0,5.0,5.0,499.1025489998719,4.0,0.0,part_2,stop,300.0,250.0,3.0,,,,,,,,,gray,I
0.0,1.0,1.0,0.0,6.0,6.0,532.4002540000947,4.0,0.0,part_2,go,250.0,250.0,1.0,,,,,,,,,yellow,triangle
0.0,7.0,3.0,1.0,5.0,5.0,616.6180919999533,4.0,0.0,part_2,go,250.0,250.0,1.0,,,,,,,,,cyan,flipped triangle
0.0,1.0,1.0,0.0,6.0,6.0,351.2318550001509,4.0,0.0,part_2,go,250.0,250.0,1.0,,,,,,,,,yellow,triangle
0.0,4.0,4.0,0.0,5.0,5.0,469.6437859997786,4.0,0.0,part_2,go,250.0,250.0,1.0,,,,,,,,,magenta,cross
0.0,7.0,3.0,1.0,6.0,6.0,562.6440199998797,4.0,0.0,part_2,go,250.0,250.0,1.0,,,,,,,,,cyan,flipped triangle
0.0,4.0,4.0,0.0,5.0,5.0,442.0970209998813,4.0,0.0,part_2,go,250.0,250.0,1.0,,,,,,,,,magenta,cross
0.0,7.0,3.0,1.0,6.0,0.0,0.0,4.0,0.0,part_2,stop,250.0,250.0,4.0,,,,,,,,,cyan,flipped triangle
0.0,2.0,2.0,0.0,6.0,6.0,848.3123050000358,5.0,0.0,part_2,go,250.0,300.0,1.0,,,,,,,,,white,circle
0.0,6.0,2.0,1.0,6.0,0.0,0.0,5.0,0.0,part_2,stop,250.0,300.0,4.0,,,,,,,,,gray,I
0.0,5.0,1.0,1.0,5.0,0.0,0.0,5.0,0.0,part_2,stop,250.0,350.0,4.0,,,,,,,,,blue,diamond
0.0,5.0,1.0,1.0,6.0,0.0,0.0,5.0,0.0,part_2,stop,300.0,350.0,4.0,,,,,,,,,blue,diamond
0.0,1.0,1.0,0.0,5.0,5.0,514.9022339996918,5.0,0.0,part_2,go,300.0,400.0,1.0,,,,,,,,,yellow,triangle
0.0,4.0,4.0,0.0,6.0,6.0,534.651023999686,5.0,0.0,part_2,go,300.0,400.0,1.0,,,,,,,,,magenta,cross
0.0,3.0,3.0,0.0,5.0,5.0,461.8918140004098,5.0,0.0,part_2,go,300.0,400.0,1.0,,,,,,,,,green,square
0.0,8.0,4.0,1.0,5.0,5.0,615.4314780001187,5.0,0.0,part_2,stop,300.0,400.0,3.0,,,,,,,,,orange,hexagon
0.0,3.0,3.0,0.0,6.0,6.0,515.8381929995812,5.0,0.0,part_2,go,250.0,400.0,1.0,,,,,,,,,green,square
0.0,1.0,1.0,0.0,5.0,5.0,635.8420609999484,5.0,0.0,part_2,go,250.0,400.0,1.0,,,,,,,,,yellow,triangle
0.0,3.0,3.0,0.0,6.0,6.0,664.3422150000333,5.0,0.0,part_2,go,250.0,400.0,1.0,,,,,,,,,green,square
0.0,6.0,2.0,1.0,6.0,6.0,594.317969000258,5.0,0.0,part_2,stop,250.0,400.0,3.0,,,,,,,,,gray,I
0.0,8.0,4.0,1.0,5.0,0.0,0.0,5.0,0.0,part_2,stop,250.0,350.0,4.0,,,,,,,,,orange,hexagon
0.0,3.0,3.0,0.0,6.0,6.0,845.8193440001196,5.0,0.0,part_2,go,300.0,350.0,1.0,,,,,,,,,green,square
0.0,1.0,1.0,0.0,6.0,6.0,580.8587100000295,5.0,0.0,part_2,go,300.0,350.0,1.0,,,,,,,,,yellow,triangle
0.0,5.0,1.0,1.0,5.0,0.0,0.0,5.0,0.0,part_2,stop,300.0,350.0,4.0,,,,,,,,,blue,diamond
0.0,2.0,2.0,0.0,5.0,5.0,1020.6614989997431,5.0,0.0,part_2,go,350.0,350.0,1.0,,,,,,,,,white,circle
0.0,7.0,3.0,1.0,5.0,5.0,378.3773270001802,5.0,0.0,part_2,go,350.0,350.0,1.0,,,,,,,,,cyan,flipped triangle
0.0,8.0,4.0,1.0,6.0,6.0,378.4842590002881,5.0,0.0,part_2,go,350.0,350.0,1.0,,,,,,,,,orange,hexagon
0.0,6.0,2.0,1.0,6.0,6.0,516.624562999823,5.0,0.0,part_2,stop,350.0,350.0,3.0,,,,,,,,,gray,I
0.0,4.0,4.0,0.0,6.0,6.0,414.5362360000035,5.0,0.0,part_2,go,350.0,300.0,1.0,,,,,,,,,magenta,cross
0.0,4.0,4.0,0.0,6.0,6.0,553.6303509998106,5.0,0.0,part_2,go,350.0,300.0,1.0,,,,,,,,,magenta,cross
0.0,8.0,4.0,1.0,6.0,6.0,416.5129350003553,5.0,0.0,part_2,stop,350.0,300.0,3.0,,,,,,,,,orange,hexagon
0.0,4.0,4.0,0.0,6.0,6.0,627.4907209999583,5.0,0.0,part_2,go,350.0,250.0,1.0,,,,,,,,,magenta,cross
0.0,2.0,2.0,0.0,6.0,6.0,690.0937140003407,5.0,0.0,part_2,go,350.0,250.0,1.0,,,,,,,,,white,circle
0.0,4.0,4.0,0.0,5.0,5.0,386.9054510000751,5.0,0.0,part_2,go,350.0,250.0,1.0,,,,,,,,,magenta,cross
0.0,6.0,2.0,1.0,6.0,0.0,0.0,5.0,0.0,part_2,stop,350.0,250.0,4.0,,,,,,,,,gray,I
0.0,1.0,1.0,0.0,5.0,5.0,526.8265419999807,5.0,0.0,part_2,go,350.0,300.0,1.0,,,,,,,,,yellow,triangle
0.0,8.0,4.0,1.0,5.0,0.0,0.0,5.0,0.0,part_2,stop,350.0,300.0,4.0,,,,,,,,,orange,hexagon
0.0,2.0,2.0,0.0,6.0,6.0,1287.8551109997716,5.0,0.0,part_2,go,400.0,300.0,1.0,,,,,,,,,white,circle
0.0,7.0,3.0,1.0,5.0,5.0,625.3918959996554,5.0,0.0,part_2,go,400.0,300.0,1.0,,,,,,,,,cyan,flipped triangle
0.0,6.0,2.0,1.0,6.0,6.0,410.1026359999196,5.0,0.0,part_2,stop,400.0,300.0,3.0,,,,,,,,,gray,I
0.0,7.0,3.0,1.0,5.0,0.0,0.0,5.0,0.0,part_2,stop,400.0,250.0,4.0,,,,,,,,,cyan,flipped triangle
0.0,3.0,3.0,0.0,6.0,6.0,543.6610010001459,5.0,0.0,part_2,go,450.0,250.0,1.0,,,,,,,,,green,square
0.0,8.0,4.0,1.0,5.0,0.0,0.0,5.0,0.0,part_2,stop,450.0,250.0,4.0,,,,,,,,,orange,hexagon
0.0,6.0,2.0,1.0,6.0,6.0,392.9981299997962,5.0,0.0,part_2,stop,500.0,250.0,3.0,,,,,,,,,gray,I
0.0,4.0,4.0,0.0,5.0,5.0,500.76023600013286,6.0,0.0,part_2,go,500.0,200.0,1.0,,,,,,,,,magenta,cross
0.0,1.0,1.0,0.0,6.0,6.0,566.4603149998584,6.0,0.0,part_2,go,500.0,200.0,1.0,,,,,,,,,yellow,triangle
0.0,6.0,2.0,1.0,6.0,0.0,0.0,6.0,0.0,part_2,stop,500.0,200.0,4.0,,,,,,,,,gray,I
0.0,6.0,2.0,1.0,5.0,5.0,593.970358000206,6.0,0.0,part_2,go,500.0,250.0,1.0,,,,,,,,,gray,I
0.0,7.0,3.0,1.0,5.0,5.0,544.0601410000454,6.0,0.0,part_2,stop,500.0,250.0,3.0,,,,,,,,,cyan,flipped triangle
0.0,6.0,2.0,1.0,5.0,5.0,510.86311400013074,6.0,0.0,part_2,stop,450.0,250.0,3.0,,,,,,,,,gray,I
0.0,2.0,2.0,0.0,5.0,5.0,566.7443940001249,6.0,0.0,part_2,go,400.0,250.0,1.0,,,,,,,,,white,circle
0.0,6.0,2.0,1.0,5.0,5.0,577.3598949999723,6.0,0.0,part_2,stop,400.0,250.0,3.0,,,,,,,,,gray,I
0.0,4.0,4.0,0.0,5.0,5.0,876.5034450002531,6.0,0.0,part_2,go,350.0,250.0,1.0,,,,,,,,,magenta,cross
0.0,8.0,4.0,1.0,6.0,6.0,616.7017920001854,6.0,0.0,part_2,go,350.0,250.0,1.0,,,,,,,,,orange,hexagon
0.0,2.0,2.0,0.0,5.0,5.0,423.9886170003046,6.0,0.0,part_2,go,350.0,250.0,1.0,,,,,,,,,white,circle
0.0,5.0,1.0,1.0,5.0,0.0,0.0,6.0,0.0,part_2,stop,350.0,250.0,4.0,,,,,,,,,blue,diamond
0.0,3.0,3.0,0.0,6.0,6.0,688.3550590000596,6.0,0.0,part_2,go,400.0,250.0,1.0,,,,,,,,,green,square
0.0,8.0,4.0,1.0,5.0,0.0,0.0,6.0,0.0,part_2,stop,400.0,250.0,4.0,,,,,,,,,orange,hexagon
0.0,3.0,3.0,0.0,5.0,5.0,1241.4989439998865,6.0,0.0,part_2,go,450.0,250.0,1.0,,,,,,,,,green,square
0.0,6.0,2.0,1.0,5.0,5.0,620.712480000293,6.0,0.0,part_2,stop,450.0,250.0,3.0,,,,,,,,,gray,I
0.0,5.0,1.0,1.0,6.0,0.0,0.0,6.0,0.0,part_2,stop,400.0,250.0,4.0,,,,,,,,,blue,diamond
0.0,6.0,2.0,1.0,5.0,0.0,0.0,6.0,0.0,part_2,stop,400.0,300.0,4.0,,,,,,,,,gray,I
0.0,8.0,4.0,1.0,5.0,5.0,652.3585990003085,6.0,0.0,part_2,go,450.0,300.0,1.0,,,,,,,,,orange,hexagon
0.0,8.0,4.0,1.0,5.0,5.0,662.1380950000457,6.0,0.0,part_2,stop,450.0,300.0,3.0,,,,,,,,,orange,hexagon
0.0,3.0,3.0,0.0,5.0,5.0,767.1335069999259,6.0,0.0,part_2,go,400.0,300.0,1.0,,,,,,,,,green,square
0.0,4.0,4.0,0.0,6.0,6.0,617.0831419999558,6.0,0.0,part_2,go,400.0,300.0,1.0,,,,,,,,,magenta,cross
0.0,5.0,1.0,1.0,6.0,0.0,0.0,6.0,0.0,part_2,stop,400.0,300.0,4.0,,,,,,,,,blue,diamond
0.0,1.0,1.0,0.0,6.0,6.0,873.6102169996229,6.0,0.0,part_2,go,400.0,350.0,1.0,,,,,,,,,yellow,triangle
0.0,4.0,4.0,0.0,5.0,5.0,607.1306910002932,6.0,0.0,part_2,go,400.0,350.0,1.0,,,,,,,,,magenta,cross
0.0,6.0,2.0,1.0,6.0,0.0,0.0,6.0,0.0,part_2,stop,400.0,350.0,4.0,,,,,,,,,gray,I
0.0,2.0,2.0,0.0,5.0,5.0,716.4805050001632,6.0,0.0,part_2,go,400.0,400.0,1.0,,,,,,,,,white,circle
0.0,7.0,3.0,1.0,5.0,0.0,0.0,6.0,0.0,part_2,stop,400.0,400.0,4.0,,,,,,,,,cyan,flipped triangle
0.0,8.0,4.0,1.0,6.0,0.0,0.0,6.0,0.0,part_2,stop,450.0,400.0,4.0,,,,,,,,,orange,hexagon
0.0,4.0,4.0,0.0,5.0,5.0,819.6245899998758,6.0,0.0,part_2,go,450.0,450.0,1.0,,,,,,,,,magenta,cross
0.0,5.0,1.0,1.0,6.0,6.0,614.5675719999417,6.0,0.0,part_2,stop,450.0,450.0,3.0,,,,,,,,,blue,diamond
0.0,7.0,3.0,1.0,5.0,5.0,544.144205000066,6.0,0.0,part_2,stop,450.0,400.0,3.0,,,,,,,,,cyan,flipped triangle
0.0,3.0,3.0,0.0,5.0,5.0,818.1464869999218,6.0,0.0,part_2,go,400.0,400.0,1.0,,,,,,,,,green,square
0.0,4.0,4.0,0.0,5.0,5.0,497.8039840002566,6.0,0.0,part_2,go,400.0,400.0,1.0,,,,,,,,,magenta,cross
0.0,8.0,4.0,1.0,6.0,6.0,643.7834859998475,6.0,0.0,part_2,stop,400.0,400.0,3.0,,,,,,,,,orange,hexagon
0.0,7.0,3.0,1.0,6.0,0.0,0.0,6.0,0.0,part_2,stop,400.0,350.0,4.0,,,,,,,,,cyan,flipped triangle
0.0,5.0,1.0,1.0,5.0,5.0,451.2724280002658,7.0,0.0,part_2,go,400.0,400.0,1.0,,,,,,,,,blue,diamond
0.0,1.0,1.0,0.0,5.0,5.0,570.6718820001697,7.0,0.0,part_2,go,400.0,400.0,1.0,,,,,,,,,yellow,triangle
0.0,8.0,4.0,1.0,5.0,5.0,515.5934929998693,7.0,0.0,part_2,stop,400.0,400.0,3.0,,,,,,,,,orange,hexagon
0.0,1.0,1.0,0.0,5.0,5.0,597.3562799999854,7.0,0.0,part_2,go,350.0,400.0,1.0,,,,,,,,,yellow,triangle
0.0,7.0,3.0,1.0,6.0,6.0,578.448015000049,7.0,0.0,part_2,stop,350.0,400.0,3.0,,,,,,,,,cyan,flipped triangle
0.0,3.0,3.0,0.0,6.0,6.0,727.1162649999496,7.0,0.0,part_2,go,350.0,350.0,1.0,,,,,,,,,green,square
0.0,5.0,1.0,1.0,6.0,0.0,0.0,7.0,0.0,part_2,stop,350.0,350.0,4.0,,,,,,,,,blue,diamond
0.0,8.0,4.0,1.0,5.0,0.0,0.0,7.0,0.0,part_2,stop,350.0,400.0,4.0,,,,,,,,,orange,hexagon
0.0,5.0,1.0,1.0,5.0,0.0,0.0,7.0,0.0,part_2,stop,400.0,400.0,4.0,,,,,,,,,blue,diamond
0.0,3.0,3.0,0.0,6.0,6.0,883.3523700000114,7.0,0.0,part_2,go,450.0,400.0,1.0,,,,,,,,,green,square
0.0,6.0,2.0,1.0,6.0,0.0,0.0,7.0,0.0,part_2,stop,450.0,400.0,4.0,,,,,,,,,gray,I
0.0,3.0,3.0,0.0,5.0,5.0,810.5842750001102,7.0,0.0,part_2,go,450.0,450.0,1.0,,,,,,,,,green,square
0.0,5.0,1.0,1.0,5.0,5.0,606.7119270001058,7.0,0.0,part_2,stop,450.0,450.0,3.0,,,,,,,,,blue,diamond
0.0,6.0,2.0,1.0,5.0,0.0,0.0,7.0,0.0,part_2,stop,400.0,450.0,4.0,,,,,,,,,gray,I
0.0,6.0,2.0,1.0,5.0,5.0,893.1724529998064,7.0,0.0,part_2,go,450.0,450.0,1.0,,,,,,,,,gray,I
0.0,3.0,3.0,0.0,5.0,5.0,819.6210740002243,7.0,0.0,part_2,go,450.0,450.0,1.0,,,,,,,,,green,square
0.0,8.0,4.0,1.0,5.0,0.0,0.0,7.0,0.0,part_2,stop,450.0,450.0,4.0,,,,,,,,,orange,hexagon
0.0,8.0,4.0,1.0,6.0,6.0,656.0474200000499,7.0,0.0,part_2,stop,500.0,450.0,3.0,,,,,,,,,orange,hexagon
0.0,7.0,3.0,1.0,5.0,5.0,708.4692959997483,7.0,0.0,part_2,stop,500.0,400.0,3.0,,,,,,,,,cyan,flipped triangle
0.0,2.0,2.0,0.0,5.0,5.0,551.1991939997642,7.0,0.0,part_2,go,450.0,400.0,1.0,,,,,,,,,white,circle
0.0,4.0,4.0,0.0,5.0,5.0,718.5606050002207,7.0,0.0,part_2,go,450.0,400.0,1.0,,,,,,,,,magenta,cross
0.0,1.0,1.0,0.0,6.0,6.0,680.3579259999424,7.0,0.0,part_2,go,450.0,400.0,1.0,,,,,,,,,yellow,triangle
0.0,5.0,1.0,1.0,5.0,0.0,0.0,7.0,0.0,part_2,stop,450.0,400.0,4.0,,,,,,,,,blue,diamond
0.0,3.0,3.0,0.0,6.0,0.0,0.0,7.0,0.0,part_2,go,500.0,400.0,5.0,,,,,,,,,green,square
0.0,7.0,3.0,1.0,6.0,6.0,544.4432640001651,7.0,0.0,part_2,go,500.0,400.0,1.0,,,,,,,,,cyan,flipped triangle
0.0,2.0,2.0,0.0,5.0,5.0,516.4581630001521,7.0,0.0,part_2,go,500.0,400.0,1.0,,,,,,,,,white,circle
0.0,5.0,1.0,1.0,6.0,6.0,535.8654340002431,7.0,0.0,part_2,go,500.0,400.0,1.0,,,,,,,,,blue,diamond
0.0,1.0,1.0,0.0,6.0,6.0,488.6008040002707,7.0,0.0,part_2,go,500.0,400.0,1.0,,,,,,,,,yellow,triangle
0.0,6.0,2.0,1.0,6.0,6.0,683.7013600002138,7.0,0.0,part_2,go,500.0,400.0,1.0,,,,,,,,,gray,I
0.0,5.0,1.0,1.0,6.0,0.0,0.0,7.0,0.0,part_2,stop,500.0,400.0,4.0,,,,,,,,,blue,diamond
0.0,8.0,4.0,1.0,5.0,5.0,617.5520040001174,7.0,0.0,part_2,stop,500.0,450.0,3.0,,,,,,,,,orange,hexagon
0.0,1.0,1.0,0.0,5.0,5.0,414.8164069997619,7.0,0.0,part_2,go,450.0,450.0,1.0,,,,,,,,,yellow,triangle
0.0,8.0,4.0,1.0,5.0,5.0,498.1928329998482,7.0,0.0,part_2,stop,450.0,450.0,3.0,,,,,,,,,orange,hexagon
0.0,7.0,3.0,1.0,6.0,6.0,721.5498230002595,7.0,0.0,part_2,go,400.0,450.0,1.0,,,,,,,,,cyan,flipped triangle
0.0,3.0,3.0,0.0,6.0,6.0,794.3701619997228,7.0,0.0,part_2,go,400.0,450.0,1.0,,,,,,,,,green,square
0.0,4.0,4.0,0.0,6.0,6.0,1004.4283000001997,7.0,0.0,part_2,go,400.0,450.0,1.0,,,,,,,,,magenta,cross
0.0,5.0,1.0,1.0,6.0,6.0,598.5836639997615,8.0,0.0,part_2,stop,400.0,450.0,3.0,,,,,,,,,blue,diamond
0.0,7.0,3.0,1.0,5.0,0.0,0.0,8.0,0.0,part_2,stop,400.0,400.0,4.0,,,,,,,,,cyan,flipped triangle
0.0,6.0,2.0,1.0,5.0,5.0,587.6557340002364,8.0,0.0,part_2,go,450.0,400.0,1.0,,,,,,,,,gray,I
0.0,3.0,3.0,0.0,5.0,5.0,570.1409610001065,8.0,0.0,part_2,go,450.0,400.0,1.0,,,,,,,,,green,square
0.0,5.0,1.0,1.0,5.0,5.0,621.1438220002492,8.0,0.0,part_2,stop,450.0,400.0,3.0,,,,,,,,,blue,diamond
0.0,2.0,2.0,0.0,5.0,5.0,614.1271039996354,8.0,0.0,part_2,go,400.0,400.0,1.0,,,,,,,,,white,circle
0.0,6.0,2.0,1.0,6.0,6.0,576.3378520000515,8.0,0.0,part_2,stop,400.0,400.0,3.0,,,,,,,,,gray,I
0.0,8.0,4.0,1.0,6.0,0.0,0.0,8.0,0.0,part_2,stop,400.0,350.0,4.0,,,,,,,,,orange,hexagon
0.0,4.0,4.0,0.0,6.0,6.0,808.8240379997842,8.0,0.0,part_2,go,400.0,400.0,1.0,,,,,,,,,magenta,cross
0.0,2.0,2.0,0.0,6.0,6.0,727.4747569999818,8.0,0.0,part_2,go,400.0,400.0,1.0,,,,,,,,,white,circle
0.0,7.0,3.0,1.0,6.0,0.0,0.0,8.0,0.0,part_2,stop,400.0,400.0,4.0,,,,,,,,,cyan,flipped triangle
0.0,1.0,1.0,0.0,6.0,6.0,733.7198529999114,8.0,0.0,part_2,go,400.0,450.0,1.0,,,,,,,,,yellow,triangle
0.0,4.0,4.0,0.0,6.0,6.0,844.2608499999551,8.0,0.0,part_2,go,400.0,450.0,1.0,,,,,,,,,magenta,cross
0.0,7.0,3.0,1.0,5.0,0.0,0.0,8.0,0.0,part_2,stop,400.0,450.0,4.0,,,,,,,,,cyan,flipped triangle
0.0,7.0,3.0,1.0,6.0,0.0,0.0,8.0,0.0,part_2,stop,450.0,450.0,4.0,,,,,,,,,cyan,flipped triangle
0.0,4.0,4.0,0.0,6.0,6.0,764.1016219999983,8.0,0.0,part_2,go,450.0,500.0,1.0,,,,,,,,,magenta,cross
0.0,5.0,1.0,1.0,5.0,5.0,616.3903770002435,8.0,0.0,part_2,go,450.0,500.0,1.0,,,,,,,,,blue,diamond
0.0,8.0,4.0,1.0,5.0,5.0,569.6474159999525,8.0,0.0,part_2,go,450.0,500.0,1.0,,,,,,,,,orange,hexagon
0.0,3.0,3.0,0.0,5.0,5.0,470.1589440001044,8.0,0.0,part_2,go,450.0,500.0,1.0,,,,,,,,,green,square
0.0,3.0,3.0,0.0,5.0,5.0,357.9062009998779,8.0,0.0,part_2,go,450.0,500.0,1.0,,,,,,,,,green,square
0.0,5.0,1.0,1.0,5.0,0.0,0.0,8.0,0.0,part_2,stop,450.0,500.0,4.0,,,,,,,,,blue,diamond
0.0,1.0,1.0,0.0,5.0,5.0,536.0847520000789,8.0,0.0,part_2,go,500.0,500.0,1.0,,,,,,,,,yellow,triangle
0.0,1.0,1.0,0.0,5.0,5.0,488.8135399996827,8.0,0.0,part_2,go,500.0,500.0,1.0,,,,,,,,,yellow,triangle
0.0,4.0,4.0,0.0,5.0,5.0,589.4546440003978,8.0,0.0,part_2,go,500.0,500.0,1.0,,,,,,,,,magenta,cross
0.0,1.0,1.0,0.0,6.0,6.0,636.4104459998998,8.0,0.0,part_2,go,500.0,500.0,1.0,,,,,,,,,yellow,triangle
0.0,8.0,4.0,1.0,6.0,6.0,727.1255159998873,8.0,0.0,part_2,stop,500.0,500.0,3.0,,,,,,,,,orange,hexagon
0.0,3.0,3.0,0.0,5.0,5.0,728.8003310000022,8.0,0.0,part_2,go,500.0,450.0,1.0,,,,,,,,,green,square
0.0,1.0,1.0,0.0,6.0,6.0,634.9982090000594,8.0,0.0,part_2,go,500.0,450.0,1.0,,,,,,,,,yellow,triangle
0.0,4.0,4.0,0.0,5.0,5.0,762.8188439998667,8.0,0.0,part_2,go,500.0,450.0,1.0,,,,,,,,,magenta,cross
0.0,1.0,1.0,0.0,5.0,5.0,884.7665569996934,8.0,0.0,part_2,go,500.0,450.0,1.0,,,,,,,,,yellow,triangle
0.0,1.0,1.0,0.0,5.0,5.0,847.531927000091,8.0,0.0,part_2,go,500.0,450.0,1.0,,,,,,,,,yellow,triangle
0.0,8.0,4.0,1.0,5.0,0.0,0.0,8.0,0.0,part_2,stop,500.0,450.0,4.0,,,,,,,,,orange,hexagon
0.0,2.0,2.0,0.0,5.0,5.0,661.4788449996922,8.0,0.0,part_2,go,550.0,450.0,1.0,,,,,,,,,white,circle
0.0,7.0,3.0,1.0,5.0,5.0,1114.2674960001386,8.0,0.0,part_2,go,550.0,450.0,1.0,,,,,,,,,cyan,flipped triangle
0.0,5.0,1.0,1.0,6.0,6.0,682.3989690001326,8.0,0.0,part_2,go,550.0,450.0,1.0,,,,,,,,,blue,diamond
0.0,2.0,2.0,0.0,6.0,6.0,513.987420000376,8.0,0.0,part_2,go,550.0,450.0,1.0,,,,,,,,,white,circle
0.0,1.0,1.0,0.0,7.0,2.0,2469.0925180002523,1.0,1.0,part_3,go,0.0,0.0,0.0,576.0,3.0,960.0,576.0,384.0,192.0,768.0,1152.0,yellow,triangle
0.0,4.0,4.0,0.0,7.0,4.0,1952.5647160007793,1.0,1.0,part_3,go,0.0,0.0,0.0,768.0,4.0,384.0,576.0,192.0,768.0,960.0,1152.0,magenta,cross
0.0,5.0,1.0,1.0,7.0,1.0,2280.3266529999746,1.0,1.0,part_3,go,0.0,0.0,0.0,232.0,2.0,232.0,696.0,348.0,116.0,580.0,464.0,blue,diamond
0.0,6.0,2.0,1.0,7.0,5.0,3724.0963719996216,1.0,1.0,part_3,go,0.0,0.0,0.0,346.0,2.0,692.0,519.0,173.0,1038.0,346.0,865.0,gray,I
0.0,6.0,2.0,1.0,7.0,5.0,2386.2852540005406,1.0,1.0,part_3,go,0.0,0.0,0.0,405.0,3.0,540.0,810.0,135.0,270.0,405.0,675.0,gray,I
0.0,4.0,4.0,0.0,7.0,2.0,1842.2513859995888,1.0,1.0,part_3,go,0.0,0.0,0.0,770.0,5.0,462.0,770.0,154.0,308.0,924.0,616.0,magenta,cross
0.0,7.0,3.0,1.0,7.0,6.0,2721.7814089999592,1.0,1.0,part_3,go,0.0,0.0,0.0,865.0,5.0,519.0,692.0,1038.0,346.0,173.0,865.0,cyan,flipped triangle
0.0,2.0,2.0,0.0,7.0,3.0,1981.7532329998355,1.0,1.0,part_3,go,0.0,0.0,0.0,116.0,1.0,696.0,464.0,116.0,580.0,348.0,232.0,white,circle
0.0,6.0,2.0,1.0,7.0,6.0,2143.3341749998363,1.0,1.0,part_3,go,0.0,0.0,0.0,462.0,3.0,924.0,308.0,616.0,770.0,154.0,462.0,gray,I
0.0,3.0,3.0,0.0,7.0,5.0,0.262333000137,1.0,1.0,part_3,go,0.0,0.0,0.0,692.0,4.0,519.0,865.0,173.0,1038.0,692.0,346.0,green,square
0.0,4.0,4.0,0.0,7.0,1.0,2091.512212000453,1.0,1.0,part_3,go,0.0,0.0,0.0,348.0,3.0,348.0,696.0,116.0,580.0,464.0,232.0,magenta,cross
0.0,3.0,3.0,0.0,7.0,3.0,1665.763244999653,1.0,1.0,part_3,go,0.0,0.0,0.0,1038.0,6.0,865.0,346.0,1038.0,519.0,173.0,692.0,green,square
0.0,4.0,4.0,0.0,7.0,5.0,1828.4263609994016,1.0,1.0,part_3,go,0.0,0.0,0.0,308.0,2.0,924.0,462.0,770.0,154.0,308.0,616.0,magenta,cross
0.0,8.0,4.0,1.0,7.0,6.0,1856.027259000257,1.0,1.0,part_3,go,0.0,0.0,0.0,519.0,3.0,692.0,865.0,173.0,1038.0,346.0,519.0,orange,hexagon
0.0,7.0,3.0,1.0,7.0,3.0,1721.689250000054,1.0,1.0,part_3,go,0.0,0.0,0.0,519.0,3.0,692.0,346.0,519.0,173.0,865.0,1038.0,cyan,flipped triangle
0.0,2.0,2.0,0.0,7.0,2.0,92.2495060003711,1.0,1.0,part_3,go,0.0,0.0,0.0,865.0,5.0,173.0,865.0,1038.0,346.0,692.0,519.0,white,circle
0.0,5.0,1.0,1.0,7.0,5.0,1263.7209350004923,1.0,1.0,part_3,go,0.0,0.0,0.0,405.0,3.0,270.0,810.0,135.0,675.0,405.0,540.0,blue,diamond
0.0,8.0,4.0,1.0,7.0,5.0,1730.5785629996535,1.0,1.0,part_3,go,0.0,0.0,0.0,173.0,1.0,692.0,346.0,865.0,1038.0,173.0,519.0,orange,hexagon
0.0,5.0,1.0,1.0,7.0,1.0,914.8147979994974,1.0,1.0,part_3,go,0.0,0.0,0.0,346.0,2.0,346.0,1038.0,519.0,865.0,173.0,692.0,blue,diamond
0.0,6.0,2.0,1.0,7.0,5.0,1904.22520500033,1.0,1.0,part_3,go,0.0,0.0,0.0,192.0,1.0,384.0,960.0,1152.0,768.0,192.0,576.0,gray,I
0.0,7.0,3.0,1.0,7.0,5.0,1516.757757999585,2.0,1.0,part_3,go,0.0,0.0,0.0,696.0,6.0,580.0,348.0,232.0,116.0,696.0,464.0,cyan,flipped triangle
0.0,5.0,1.0,1.0,7.0,2.0,2066.176710000036,2.0,1.0,part_3,go,0.0,0.0,0.0,768.0,4.0,1152.0,768.0,576.0,384.0,960.0,192.0,blue,diamond
0.0,2.0,2.0,0.0,7.0,6.0,2632.275498999661,2.0,1.0,part_3,go,0.0,0.0,0.0,173.0,1.0,1038.0,346.0,519.0,692.0,865.0,173.0,white,circle
0.0,8.0,4.0,1.0,7.0,5.0,1005.5268189998969,2.0,1.0,part_3,go,0.0,0.0,0.0,462.0,3.0,616.0,770.0,924.0,154.0,462.0,308.0,orange,hexagon
0.0,4.0,4.0,0.0,7.0,1.0,2586.5229790006197,2.0,1.0,part_3,go,0.0,0.0,0.0,1038.0,6.0,1038.0,346.0,865.0,692.0,173.0,519.0,magenta,cross
0.0,6.0,2.0,1.0,7.0,3.0,3078.475769999386,2.0,1.0,part_3,go,0.0,0.0,0.0,154.0,1.0,770.0,924.0,154.0,616.0,462.0,308.0,gray,I
0.0,7.0,3.0,1.0,7.0,4.0,1647.5503720002962,2.0,1.0,part_3,go,0.0,0.0,0.0,116.0,1.0,696.0,580.0,464.0,116.0,232.0,348.0,cyan,flipped triangle
0.0,2.0,2.0,0.0,7.0,4.0,1766.2305780004317,2.0,1.0,part_3,go,0.0,0.0,0.0,270.0,2.0,405.0,810.0,675.0,270.0,135.0,540.0,white,circle
0.0,1.0,1.0,0.0,7.0,6.0,1975.452886999847,2.0,1.0,part_3,go,0.0,0.0,0.0,308.0,2.0,770.0,462.0,616.0,924.0,154.0,308.0,yellow,triangle
0.0,6.0,2.0,1.0,7.0,2.0,1425.42899900036,2.0,1.0,part_3,go,0.0,0.0,0.0,116.0,1.0,696.0,116.0,464.0,232.0,580.0,348.0,gray,I
0.0,7.0,3.0,1.0,7.0,3.0,1584.4644419994438,2.0,1.0,part_3,go,0.0,0.0,0.0,384.0,2.0,1152.0,192.0,384.0,960.0,768.0,576.0,cyan,flipped triangle
0.0,6.0,2.0,1.0,7.0,2.0,924.2220500000258,2.0,1.0,part_3,go,0.0,0.0,0.0,768.0,4.0,384.0,768.0,1152.0,960.0,576.0,192.0,gray,I
0.0,1.0,1.0,0.0,7.0,3.0,3066.63745700007,2.0,1.0,part_3,go,0.0,0.0,0.0,232.0,2.0,580.0,116.0,232.0,348.0,464.0,696.0,yellow,triangle
0.0,1.0,1.0,0.0,7.0,3.0,3148.9240800001426,2.0,1.0,part_3,go,0.0,0.0,0.0,135.0,1.0,675.0,540.0,135.0,810.0,270.0,405.0,yellow,triangle
0.0,8.0,4.0,1.0,7.0,6.0,1734.472563000054,2.0,1.0,part_3,go,0.0,0.0,0.0,580.0,5.0,232.0,464.0,348.0,116.0,696.0,580.0,orange,hexagon
0.0,3.0,3.0,0.0,7.0,2.0,913.5130360000404,2.0,1.0,part_3,go,0.0,0.0,0.0,192.0,1.0,576.0,192.0,384.0,1152.0,768.0,960.0,green,square
0.0,4.0,4.0,0.0,7.0,5.0,1478.1405449994054,2.0,1.0,part_3,go,0.0,0.0,0.0,675.0,5.0,540.0,405.0,135.0,270.0,675.0,810.0,magenta,cross
0.0,5.0,1.0,1.0,7.0,5.0,779.3493339995621,2.0,1.0,part_3,go,0.0,0.0,0.0,462.0,3.0,616.0,154.0,308.0,770.0,462.0,924.0,blue,diamond
0.0,6.0,2.0,1.0,7.0,5.0,566.4761729995007,2.0,1.0,part_3,go,0.0,0.0,0.0,675.0,5.0,135.0,810.0,270.0,540.0,675.0,405.0,gray,I
0.0,2.0,2.0,0.0,7.0,2.0,2098.0251010005304,2.0,1.0,part_3,go,0.0,0.0,0.0,116.0,1.0,580.0,116.0,348.0,696.0,464.0,232.0,white,circle
0.0,5.0,1.0,1.0,7.0,5.0,1834.7866929998415,3.0,1.0,part_3,go,0.0,0.0,0.0,346.0,2.0,173.0,519.0,692.0,865.0,346.0,1038.0,blue,diamond
0.0,8.0,4.0,1.0,7.0,6.0,1806.124662999537,3.0,1.0,part_3,go,0.0,0.0,0.0,464.0,4.0,348.0,580.0,696.0,232.0,116.0,464.0,orange,hexagon
0.0,3.0,3.0,0.0,7.0,2.0,1662.5076680002169,3.0,1.0,part_3,go,0.0,0.0,0.0,540.0,4.0,405.0,540.0,675.0,270.0,810.0,135.0,green,square
0.0,2.0,2.0,0.0,7.0,1.0,1610.0796939999782,3.0,1.0,part_3,go,0.0,0.0,0.0,462.0,3.0,462.0,770.0,616.0,308.0,924.0,154.0,white,circle
0.0,4.0,4.0,0.0,7.0,6.0,1318.1251030000567,3.0,1.0,part_3,go,0.0,0.0,0.0,692.0,4.0,519.0,1038.0,346.0,173.0,865.0,692.0,magenta,cross
0.0,5.0,1.0,1.0,7.0,4.0,1034.821837999516,3.0,1.0,part_3,go,0.0,0.0,0.0,960.0,5.0,1152.0,384.0,192.0,960.0,768.0,576.0,blue,diamond
0.0,8.0,4.0,1.0,7.0,3.0,1729.8223580000922,3.0,1.0,part_3,go,0.0,0.0,0.0,770.0,5.0,924.0,616.0,770.0,154.0,308.0,462.0,orange,hexagon
0.0,2.0,2.0,0.0,7.0,3.0,1530.4576870003077,3.0,1.0,part_3,go,0.0,0.0,0.0,135.0,1.0,540.0,405.0,135.0,675.0,270.0,810.0,white,circle
0.0,1.0,1.0,0.0,7.0,5.0,1852.8269709995584,3.0,1.0,part_3,go,0.0,0.0,0.0,464.0,4.0,580.0,232.0,348.0,696.0,464.0,116.0,yellow,triangle
0.0,3.0,3.0,0.0,7.0,5.0,1701.168284999767,3.0,1.0,part_3,go,0.0,0.0,0.0,308.0,2.0,462.0,154.0,616.0,924.0,308.0,770.0,green,square
0.0,3.0,3.0,0.0,7.0,6.0,1572.266459000275,3.0,1.0,part_3,go,0.0,0.0,0.0,405.0,3.0,675.0,270.0,540.0,810.0,135.0,405.0,green,square
0.0,8.0,4.0,1.0,7.0,4.0,1626.5140099994824,3.0,1.0,part_3,go,0.0,0.0,0.0,675.0,5.0,810.0,270.0,540.0,675.0,405.0,135.0,orange,hexagon
0.0,4.0,4.0,0.0,7.0,3.0,1826.45664499978,3.0,1.0,part_3,go,0.0,0.0,0.0,464.0,4.0,696.0,232.0,464.0,116.0,580.0,348.0,magenta,cross
0.0,2.0,2.0,0.0,7.0,5.0,2675.1865269998234,3.0,1.0,part_3,go,0.0,0.0,0.0,192.0,1.0,576.0,960.0,384.0,768.0,192.0,1152.0,white,circle
0.0,5.0,1.0,1.0,7.0,5.0,3141.233010999713,3.0,1.0,part_3,go,0.0,0.0,0.0,924.0,6.0,462.0,770.0,616.0,308.0,924.0,154.0,blue,diamond
0.0,6.0,2.0,1.0,7.0,4.0,1960.0877510001735,3.0,1.0,part_3,go,0.0,0.0,0.0,173.0,1.0,519.0,692.0,346.0,173.0,865.0,1038.0,gray,I
0.0,5.0,1.0,1.0,7.0,1.0,2008.6743179999762,3.0,1.0,part_3,go,0.0,0.0,0.0,540.0,4.0,540.0,270.0,135.0,675.0,810.0,405.0,blue,diamond
0.0,3.0,3.0,0.0,7.0,4.0,2001.5323870002248,3.0,1.0,part_3,go,0.0,0.0,0.0,576.0,3.0,768.0,960.0,192.0,576.0,384.0,1152.0,green,square
0.0,1.0,1.0,0.0,7.0,2.0,2092.1910550005123,3.0,1.0,part_3,go,0.0,0.0,0.0,384.0,2.0,192.0,384.0,768.0,960.0,1152.0,576.0,yellow,triangle
0.0,1.0,1.0,0.0,7.0,1.0,2154.111425999872,3.0,1.0,part_3,go,0.0,0.0,0.0,405.0,3.0,405.0,135.0,675.0,540.0,270.0,810.0,yellow,triangle
0.0,4.0,4.0,0.0,7.0,5.0,1498.6698590000742,4.0,1.0,part_3,go,0.0,0.0,0.0,810.0,6.0,270.0,540.0,135.0,675.0,810.0,405.0,magenta,cross
0.0,7.0,3.0,1.0,7.0,4.0,1484.1602970000167,4.0,1.0,part_3,go,0.0,0.0,0.0,462.0,3.0,154.0,924.0,308.0,462.0,770.0,616.0,cyan,flipped triangle
0.0,8.0,4.0,1.0,7.0,5.0,1974.7115640002448,4.0,1.0,part_3,go,0.0,0.0,0.0,576.0,3.0,384.0,960.0,768.0,192.0,576.0,1152.0,orange,hexagon
0.0,1.0,1.0,0.0,7.0,4.0,1990.2805499996248,4.0,1.0,part_3,go,0.0,0.0,0.0,173.0,1.0,692.0,865.0,519.0,173.0,1038.0,346.0,yellow,triangle
0.0,7.0,3.0,1.0,7.0,5.0,1524.918166000134,4.0,1.0,part_3,go,0.0,0.0,0.0,675.0,5.0,135.0,405.0,810.0,270.0,675.0,540.0,cyan,flipped triangle
0.0,2.0,2.0,0.0,7.0,4.0,1373.1374280005184,4.0,1.0,part_3,go,0.0,0.0,0.0,154.0,1.0,308.0,924.0,462.0,154.0,770.0,616.0,white,circle
0.0,8.0,4.0,1.0,7.0,3.0,1797.661075999713,4.0,1.0,part_3,go,0.0,0.0,0.0,960.0,5.0,384.0,768.0,960.0,1152.0,192.0,576.0,orange,hexagon
0.0,6.0,2.0,1.0,7.0,6.0,2192.599183999846,4.0,1.0,part_3,go,0.0,0.0,0.0,116.0,1.0,696.0,580.0,464.0,232.0,348.0,116.0,gray,I
0.0,8.0,4.0,1.0,7.0,3.0,1907.887739000216,4.0,1.0,part_3,go,0.0,0.0,0.0,810.0,6.0,675.0,405.0,810.0,135.0,270.0,540.0,orange,hexagon
0.0,3.0,3.0,0.0,7.0,6.0,1853.5138540000844,4.0,1.0,part_3,go,0.0,0.0,0.0,464.0,4.0,580.0,232.0,348.0,116.0,696.0,464.0,green,square
0.0,1.0,1.0,0.0,7.0,2.0,2003.6961599998904,4.0,1.0,part_3,go,0.0,0.0,0.0,616.0,4.0,308.0,616.0,924.0,770.0,462.0,154.0,yellow,triangle
0.0,3.0,3.0,0.0,7.0,6.0,2008.3946210006616,4.0,1.0,part_3,go,0.0,0.0,0.0,580.0,5.0,464.0,348.0,116.0,696.0,232.0,580.0,green,square
0.0,7.0,3.0,1.0,7.0,5.0,2280.230037000365,4.0,1.0,part_3,go,0.0,0.0,0.0,462.0,3.0,616.0,770.0,154.0,924.0,462.0,308.0,cyan,flipped triangle
0.0,4.0,4.0,0.0,7.0,4.0,2127.0364789997984,4.0,1.0,part_3,go,0.0,0.0,0.0,1152.0,6.0,192.0,768.0,384.0,1152.0,576.0,960.0,magenta,cross
0.0,5.0,1.0,1.0,7.0,2.0,3451.1447289996795,4.0,1.0,part_3,go,0.0,0.0,0.0,580.0,5.0,696.0,580.0,348.0,232.0,464.0,116.0,blue,diamond
0.0,7.0,3.0,1.0,7.0,2.0,2080.384555000819,4.0,1.0,part_3,go,0.0,0.0,0.0,384.0,2.0,960.0,384.0,768.0,1152.0,192.0,576.0,cyan,flipped triangle
0.0,3.0,3.0,0.0,7.0,3.0,1709.9831300001824,4.0,1.0,part_3,go,0.0,0.0,0.0,924.0,6.0,154.0,462.0,924.0,308.0,616.0,770.0,green,square
0.0,7.0,3.0,1.0,7.0,4.0,1595.0354810001954,4.0,1.0,part_3,go,0.0,0.0,0.0,405.0,3.0,270.0,540.0,135.0,405.0,810.0,675.0,cyan,flipped triangle
0.0,1.0,1.0,0.0,7.0,6.0,2492.9638670000713,4.0,1.0,part_3,go,0.0,0.0,0.0,692.0,4.0,519.0,346.0,173.0,865.0,1038.0,692.0,yellow,triangle
0.0,2.0,2.0,0.0,7.0,4.0,1849.2393650003576,4.0,1.0,part_3,go,0.0,0.0,0.0,768.0,4.0,1152.0,576.0,192.0,768.0,384.0,960.0,white,circle
