raw_reward_magnitude,stim_reward,stepwise_reward_magnitude,paired_with_stopping,stim_location,response,reaction_time,block,num_trial_presentations,which_phase,stop_signal_trial_type,left_SSD,right_SSD,accuracy,chosen_bidding_amount,chosen_bidding_level,possible_bid_1,possible_bid_2,possible_bid_3,possible_bid_4,possible_bid_5,possible_bid_6,color_text,shape_text
1288.0,4.0,4.0,0.0,1.0,1.0,577.8753219999544,1.0,1.0,phase_1,,,,,,,,,,,,,cyan,flipped triangle
653.0,7.0,2.0,1.0,2.0,2.0,896.0194879998653,1.0,2.0,phase_1,,,,,,,,,,,,,magenta,diamond
1303.0,8.0,4.0,1.0,4.0,4.0,543.7115289998928,1.0,1.0,phase_1,,,,,,,,,,,,,blue,circle
184.0,1.0,0.5,0.0,2.0,2.0,422.0193290000225,1.0,2.0,phase_1,,,,,,,,,,,,,green,square
0.0,1.0,0.0,0.0,3.0,3.0,489.2383849999078,1.0,2.0,phase_1,,,,,,,,,,,,,green,square
0.0,8.0,0.0,1.0,3.0,3.0,426.2451520000923,1.0,1.0,phase_1,,,,,,,,,,,,,blue,circle
159.0,5.0,0.5,1.0,1.0,1.0,581.0819450000508,1.0,1.0,phase_1,,,,,,,,,,,,,yellow,cross
661.0,3.0,2.0,0.0,1.0,1.0,468.9440409999861,1.0,1.0,phase_1,,,,,,,,,,,,,white,I
0.0,5.0,0.0,1.0,3.0,3.0,514.2238600001292,1.0,1.0,phase_1,,,,,,,,,,,,,yellow,cross
177.0,1.0,0.5,0.0,2.0,2.0,534.9455400000807,1.0,1.0,phase_1,,,,,,,,,,,,,green,square
0.0,5.0,0.0,1.0,4.0,4.0,384.6238019998509,1.0,1.0,phase_1,,,,,,,,,,,,,yellow,cross
642.0,3.0,2.0,0.0,1.0,1.0,767.8887619999841,1.0,1.0,phase_1,,,,,,,,,,,,,white,I
342.0,2.0,1.0,0.0,2.0,2.0,449.6627159999207,1.0,1.0,phase_1,,,,,,,,,,,,,orange,hexagon
0.0,7.0,0.0,1.0,2.0,2.0,412.9209989998799,1.0,1.0,phase_1,,,,,,,,,,,,,magenta,diamond
0.0,2.0,0.0,0.0,2.0,2.0,356.9299929999943,1.0,1.0,phase_1,,,,,,,,,,,,,orange,hexagon
0.0,6.0,0.0,1.0,3.0,3.0,450.2202310000029,1.0,1.0,phase_1,,,,,,,,,,,,,gray,triangle
1313.0,4.0,4.0,0.0,2.0,2.0,543.7234940000053,1.0,1.0,phase_1,,,,,,,,,,,,,cyan,flipped triangle
672.0,3.0,2.0,0.0,1.0,1.0,402.5839400001132,1.0,1.0,phase_1,,,,,,,,,,,,,white,I
159.0,1.0,0.5,0.0,1.0,1.0,439.6044469999651,1.0,1.0,phase_1,,,,,,,,,,,,,green,square
626.0,7.0,2.0,1.0,2.0,2.0,533.8002720000077,1.0,1.0,phase_1,,,,,,,,,,,,,magenta,diamond
1313.0,8.0,4.0,1.0,3.0,3.0,366.2391550001302,1.0,1.0,phase_1,,,,,,,,,,,,,blue,circle
0.0,7.0,0.0,1.0,1.0,1.0,532.1666939998977,1.0,1.0,phase_1,,,,,,,,,,,,,magenta,diamond
1319.0,4.0,4.0,0.0,4.0,4.0,468.8605239998651,1.0,1.0,phase_1,,,,,,,,,,,,,cyan,flipped triangle
1322.0,8.0,4.0,1.0,1.0,1.0,523.3589700001176,1.0,1.0,phase_1,,,,,,,,,,,,,blue,circle
0.0,6.0,0.0,1.0,2.0,2.0,596.2124899999708,1.0,1.0,phase_1,,,,,,,,,,,,,gray,triangle
0.0,4.0,0.0,0.0,1.0,1.0,504.9160400001256,1.0,1.0,phase_1,,,,,,,,,,,,,cyan,flipped triangle
0.0,2.0,0.0,0.0,3.0,3.0,402.5798079999276,1.0,1.0,phase_1,,,,,,,,,,,,,orange,hexagon
1288.0,8.0,4.0,1.0,3.0,3.0,468.3562110001276,1.0,1.0,phase_1,,,,,,,,,,,,,blue,circle
174.0,1.0,0.5,0.0,3.0,3.0,401.9916080001167,1.0,1.0,phase_1,,,,,,,,,,,,,green,square
1317.0,8.0,4.0,1.0,2.0,2.0,439.7004639999977,1.0,1.0,phase_1,,,,,,,,,,,,,blue,circle
335.0,2.0,1.0,0.0,3.0,3.0,439.422483999806,1.0,1.0,phase_1,,,,,,,,,,,,,orange,hexagon
642.0,7.0,2.0,1.0,3.0,3.0,393.2240569999976,1.0,1.0,phase_1,,,,,,,,,,,,,magenta,diamond
311.0,2.0,1.0,0.0,4.0,4.0,354.4294329999502,1.0,1.0,phase_1,,,,,,,,,,,,,orange,hexagon
315.0,6.0,1.0,1.0,4.0,4.0,458.9135109999915,1.0,1.0,phase_1,,,,,,,,,,,,,gray,triangle
161.0,1.0,0.5,0.0,4.0,4.0,374.039453000023,1.0,1.0,phase_1,,,,,,,,,,,,,green,square
1292.0,4.0,4.0,0.0,4.0,4.0,392.1607590000349,1.0,1.0,phase_1,,,,,,,,,,,,,cyan,flipped triangle
1304.0,8.0,4.0,1.0,2.0,2.0,523.6300009999013,1.0,1.0,phase_1,,,,,,,,,,,,,blue,circle
0.0,8.0,0.0,1.0,1.0,1.0,400.5398670001341,1.0,1.0,phase_1,,,,,,,,,,,,,blue,circle
187.0,1.0,0.5,0.0,4.0,4.0,477.2310839998681,1.0,1.0,phase_1,,,,,,,,,,,,,green,square
335.0,2.0,1.0,0.0,1.0,1.0,484.966113000155,1.0,1.0,phase_1,,,,,,,,,,,,,orange,hexagon
0.0,1.0,0.0,0.0,3.0,3.0,393.0956230001357,1.0,1.0,phase_1,,,,,,,,,,,,,green,square
0.0,3.0,0.0,0.0,4.0,4.0,373.6472210000556,1.0,1.0,phase_1,,,,,,,,,,,,,white,I
320.0,6.0,1.0,1.0,2.0,2.0,533.202534999873,1.0,1.0,phase_1,,,,,,,,,,,,,gray,triangle
349.0,2.0,1.0,0.0,2.0,2.0,393.2303300000512,1.0,1.0,phase_1,,,,,,,,,,,,,orange,hexagon
318.0,2.0,1.0,0.0,3.0,3.0,440.0189939999563,1.0,1.0,phase_1,,,,,,,,,,,,,orange,hexagon
0.0,4.0,0.0,0.0,2.0,2.0,439.0127520000533,1.0,1.0,phase_1,,,,,,,,,,,,,cyan,flipped triangle
312.0,6.0,1.0,1.0,3.0,3.0,373.1235909999668,1.0,1.0,phase_1,,,,,,,,,,,,,gray,triangle
673.0,3.0,2.0,0.0,4.0,4.0,468.42453400017797,1.0,1.0,phase_1,,,,,,,,,,,,,white,I
0.0,5.0,0.0,1.0,2.0,2.0,430.2979980000145,1.0,1.0,phase_1,,,,,,,,,,,,,yellow,cross
341.0,6.0,1.0,1.0,3.0,3.0,383.4603099999185,1.0,1.0,phase_1,,,,,,,,,,,,,gray,triangle
139.0,5.0,0.5,1.0,2.0,2.0,506.2317389999862,1.0,2.0,phase_1,,,,,,,,,,,,,yellow,cross
319.0,2.0,1.0,0.0,3.0,3.0,451.8483459999061,1.0,1.0,phase_1,,,,,,,,,,,,,orange,hexagon
309.0,2.0,1.0,0.0,4.0,4.0,411.2828180000178,1.0,1.0,phase_1,,,,,,,,,,,,,orange,hexagon
0.0,2.0,0.0,0.0,4.0,4.0,392.49987900007,1.0,1.0,phase_1,,,,,,,,,,,,,orange,hexagon
672.0,7.0,2.0,1.0,1.0,1.0,487.3908270001266,1.0,1.0,phase_1,,,,,,,,,,,,,magenta,diamond
335.0,2.0,1.0,0.0,3.0,3.0,431.3993949999712,1.0,1.0,phase_1,,,,,,,,,,,,,orange,hexagon
322.0,6.0,1.0,1.0,3.0,3.0,449.4433640002171,1.0,1.0,phase_1,,,,,,,,,,,,,gray,triangle
630.0,3.0,2.0,0.0,4.0,4.0,375.0360819999514,1.0,1.0,phase_1,,,,,,,,,,,,,white,I
1325.0,8.0,4.0,1.0,4.0,4.0,423.2411000000411,1.0,1.0,phase_1,,,,,,,,,,,,,blue,circle
1279.0,4.0,4.0,0.0,1.0,1.0,506.18974900021385,1.0,1.0,phase_1,,,,,,,,,,,,,cyan,flipped triangle
0.0,3.0,0.0,0.0,2.0,2.0,439.5315689998824,1.0,1.0,phase_1,,,,,,,,,,,,,white,I
342.0,2.0,1.0,0.0,3.0,3.0,365.4695580000862,1.0,1.0,phase_1,,,,,,,,,,,,,orange,hexagon
140.0,1.0,0.5,0.0,3.0,3.0,505.04428999988704,1.0,1.0,phase_1,,,,,,,,,,,,,green,square
636.0,3.0,2.0,0.0,3.0,3.0,401.3654420000421,1.0,1.0,phase_1,,,,,,,,,,,,,white,I
0.0,7.0,0.0,1.0,1.0,1.0,431.322012999999,1.0,1.0,phase_1,,,,,,,,,,,,,magenta,diamond
181.0,1.0,0.5,0.0,2.0,2.0,457.8094039998177,1.0,1.0,phase_1,,,,,,,,,,,,,green,square
641.0,3.0,2.0,0.0,1.0,1.0,449.7279549998438,1.0,1.0,phase_1,,,,,,,,,,,,,white,I
0.0,3.0,0.0,0.0,1.0,1.0,438.8888109999698,1.0,1.0,phase_1,,,,,,,,,,,,,white,I
311.0,2.0,1.0,0.0,1.0,1.0,467.5011559997983,1.0,1.0,phase_1,,,,,,,,,,,,,orange,hexagon
162.0,5.0,0.5,1.0,4.0,4.0,504.78905099998883,1.0,1.0,phase_1,,,,,,,,,,,,,yellow,cross
1282.0,4.0,4.0,0.0,3.0,3.0,392.8816969998934,1.0,1.0,phase_1,,,,,,,,,,,,,cyan,flipped triangle
335.0,6.0,1.0,1.0,4.0,4.0,374.3990660000236,1.0,1.0,phase_1,,,,,,,,,,,,,gray,triangle
1289.0,4.0,4.0,0.0,3.0,3.0,494.1887780000797,1.0,1.0,phase_1,,,,,,,,,,,,,cyan,flipped triangle
0.0,8.0,0.0,1.0,4.0,4.0,522.1944729998995,1.0,1.0,phase_1,,,,,,,,,,,,,blue,circle
642.0,7.0,2.0,1.0,4.0,4.0,457.488671999954,1.0,1.0,phase_1,,,,,,,,,,,,,magenta,diamond
0.0,4.0,0.0,0.0,4.0,4.0,355.956494999873,1.0,1.0,phase_1,,,,,,,,,,,,,cyan,flipped triangle
180.0,1.0,0.5,0.0,1.0,1.0,438.7516050001068,1.0,1.0,phase_1,,,,,,,,,,,,,green,square
0.0,1.0,0.0,0.0,2.0,2.0,318.6141119999774,1.0,1.0,phase_1,,,,,,,,,,,,,green,square
322.0,2.0,1.0,0.0,1.0,1.0,571.097120000104,1.0,1.0,phase_1,,,,,,,,,,,,,orange,hexagon
665.0,7.0,2.0,1.0,1.0,1.0,429.8610119999466,1.0,1.0,phase_1,,,,,,,,,,,,,magenta,diamond
649.0,3.0,2.0,0.0,2.0,2.0,504.3309269999554,1.0,1.0,phase_1,,,,,,,,,,,,,white,I
643.0,3.0,2.0,0.0,2.0,2.0,312.4682919999486,1.0,1.0,phase_1,,,,,,,,,,,,,white,I
1286.0,8.0,4.0,1.0,1.0,1.0,430.0271889999294,1.0,2.0,phase_1,,,,,,,,,,,,,blue,circle
0.0,7.0,0.0,1.0,4.0,4.0,439.4835670000248,1.0,1.0,phase_1,,,,,,,,,,,,,magenta,diamond
661.0,7.0,2.0,1.0,4.0,4.0,357.7537139999549,1.0,1.0,phase_1,,,,,,,,,,,,,magenta,diamond
177.0,5.0,0.5,1.0,1.0,1.0,504.58785800014994,1.0,1.0,phase_1,,,,,,,,,,,,,yellow,cross
0.0,3.0,0.0,0.0,4.0,4.0,440.9280120000858,1.0,1.0,phase_1,,,,,,,,,,,,,white,I
666.0,7.0,2.0,1.0,3.0,3.0,476.965238000048,1.0,1.0,phase_1,,,,,,,,,,,,,magenta,diamond
158.0,5.0,0.5,1.0,2.0,2.0,495.3650350000771,1.0,1.0,phase_1,,,,,,,,,,,,,yellow,cross
1298.0,8.0,4.0,1.0,4.0,4.0,394.1473480001605,1.0,1.0,phase_1,,,,,,,,,,,,,blue,circle
0.0,3.0,0.0,0.0,3.0,3.0,495.9792240001661,1.0,1.0,phase_1,,,,,,,,,,,,,white,I
673.0,7.0,2.0,1.0,3.0,3.0,468.427365000025,1.0,1.0,phase_1,,,,,,,,,,,,,magenta,diamond
0.0,3.0,0.0,0.0,3.0,3.0,410.1124199999049,1.0,1.0,phase_1,,,,,,,,,,,,,white,I
162.0,1.0,0.5,0.0,2.0,2.0,449.0405460001057,1.0,1.0,phase_1,,,,,,,,,,,,,green,square
661.0,7.0,2.0,1.0,2.0,2.0,355.2969539998685,1.0,1.0,phase_1,,,,,,,,,,,,,magenta,diamond
1308.0,4.0,4.0,0.0,3.0,3.0,412.535354000056,1.0,1.0,phase_1,,,,,,,,,,,,,cyan,flipped triangle
302.0,6.0,1.0,1.0,2.0,2.0,438.4740989999045,1.0,1.0,phase_1,,,,,,,,,,,,,gray,triangle
0.0,5.0,0.0,1.0,2.0,2.0,524.3658520000736,1.0,1.0,phase_1,,,,,,,,,,,,,yellow,cross
670.0,3.0,2.0,0.0,2.0,2.0,506.15439900002457,1.0,1.0,phase_1,,,,,,,,,,,,,white,I
147.0,1.0,0.5,0.0,4.0,4.0,402.4583380000877,1.0,1.0,phase_1,,,,,,,,,,,,,green,square
630.0,7.0,2.0,1.0,1.0,1.0,456.7130249999991,2.0,1.0,phase_1,,,,,,,,,,,,,magenta,diamond
639.0,7.0,2.0,1.0,4.0,4.0,524.8156100001324,2.0,1.0,phase_1,,,,,,,,,,,,,magenta,diamond
349.0,2.0,1.0,0.0,3.0,3.0,337.62274899982,2.0,1.0,phase_1,,,,,,,,,,,,,orange,hexagon
140.0,5.0,0.5,1.0,3.0,3.0,383.8727869999729,2.0,1.0,phase_1,,,,,,,,,,,,,yellow,cross
181.0,1.0,0.5,0.0,4.0,4.0,431.4674730001115,2.0,1.0,phase_1,,,,,,,,,,,,,green,square
658.0,7.0,2.0,1.0,2.0,2.0,357.380848000048,2.0,1.0,phase_1,,,,,,,,,,,,,magenta,diamond
1279.0,4.0,4.0,0.0,3.0,3.0,393.903876999957,2.0,1.0,phase_1,,,,,,,,,,,,,cyan,flipped triangle
330.0,2.0,1.0,0.0,3.0,3.0,345.5954789999396,2.0,1.0,phase_1,,,,,,,,,,,,,orange,hexagon
312.0,2.0,1.0,0.0,1.0,1.0,346.0846969999238,2.0,1.0,phase_1,,,,,,,,,,,,,orange,hexagon
165.0,1.0,0.5,0.0,2.0,2.0,475.3698710001117,2.0,2.0,phase_1,,,,,,,,,,,,,green,square
1300.0,4.0,4.0,0.0,1.0,1.0,561.8151430001035,2.0,1.0,phase_1,,,,,,,,,,,,,cyan,flipped triangle
1297.0,4.0,4.0,0.0,2.0,2.0,523.7551990001066,2.0,1.0,phase_1,,,,,,,,,,,,,cyan,flipped triangle
1291.0,8.0,4.0,1.0,3.0,3.0,551.5682550001202,2.0,1.0,phase_1,,,,,,,,,,,,,blue,circle
165.0,1.0,0.5,0.0,4.0,4.0,365.0988070000949,2.0,1.0,phase_1,,,,,,,,,,,,,green,square
628.0,3.0,2.0,0.0,3.0,3.0,484.2115679998642,2.0,1.0,phase_1,,,,,,,,,,,,,white,I
1304.0,4.0,4.0,0.0,2.0,2.0,606.9324580000739,2.0,2.0,phase_1,,,,,,,,,,,,,cyan,flipped triangle
0.0,7.0,0.0,1.0,2.0,2.0,412.3167750001357,2.0,1.0,phase_1,,,,,,,,,,,,,magenta,diamond
0.0,1.0,0.0,0.0,1.0,1.0,386.5141249998487,2.0,1.0,phase_1,,,,,,,,,,,,,green,square
335.0,6.0,1.0,1.0,4.0,4.0,421.2835920000088,2.0,1.0,phase_1,,,,,,,,,,,,,gray,triangle
305.0,6.0,1.0,1.0,2.0,2.0,532.4760780001725,2.0,1.0,phase_1,,,,,,,,,,,,,gray,triangle
309.0,6.0,1.0,1.0,3.0,3.0,397.4327850000918,2.0,1.0,phase_1,,,,,,,,,,,,,gray,triangle
1319.0,8.0,4.0,1.0,3.0,3.0,470.1428729999861,2.0,1.0,phase_1,,,,,,,,,,,,,blue,circle
665.0,3.0,2.0,0.0,2.0,2.0,419.9309519999588,2.0,1.0,phase_1,,,,,,,,,,,,,white,I
1283.0,8.0,4.0,1.0,4.0,4.0,505.176702999961,2.0,1.0,phase_1,,,,,,,,,,,,,blue,circle
315.0,2.0,1.0,0.0,4.0,4.0,375.1435090000541,2.0,1.0,phase_1,,,,,,,,,,,,,orange,hexagon
0.0,6.0,0.0,1.0,1.0,1.0,487.2833029999128,2.0,2.0,phase_1,,,,,,,,,,,,,gray,triangle
349.0,6.0,1.0,1.0,3.0,3.0,431.0648320001746,2.0,1.0,phase_1,,,,,,,,,,,,,gray,triangle
647.0,3.0,2.0,0.0,3.0,3.0,468.9801760000591,2.0,1.0,phase_1,,,,,,,,,,,,,white,I
163.0,1.0,0.5,0.0,3.0,3.0,429.9304319999919,2.0,1.0,phase_1,,,,,,,,,,,,,green,square
666.0,3.0,2.0,0.0,3.0,3.0,384.3619299998408,2.0,1.0,phase_1,,,,,,,,,,,,,white,I
0.0,4.0,0.0,0.0,3.0,3.0,430.9837189998688,2.0,1.0,phase_1,,,,,,,,,,,,,cyan,flipped triangle
639.0,3.0,2.0,0.0,4.0,4.0,507.0329899999706,2.0,1.0,phase_1,,,,,,,,,,,,,white,I
642.0,7.0,2.0,1.0,1.0,1.0,420.8092450001004,2.0,2.0,phase_1,,,,,,,,,,,,,magenta,diamond
0.0,6.0,0.0,1.0,2.0,2.0,551.8494909999845,2.0,1.0,phase_1,,,,,,,,,,,,,gray,triangle
150.0,1.0,0.5,0.0,4.0,4.0,355.9846659998129,2.0,1.0,phase_1,,,,,,,,,,,,,green,square
163.0,5.0,0.5,1.0,1.0,1.0,496.9875479998791,2.0,1.0,phase_1,,,,,,,,,,,,,yellow,cross
1321.0,8.0,4.0,1.0,2.0,2.0,505.0209690000429,2.0,1.0,phase_1,,,,,,,,,,,,,blue,circle
311.0,2.0,1.0,0.0,4.0,4.0,477.2471530000075,2.0,1.0,phase_1,,,,,,,,,,,,,orange,hexagon
346.0,6.0,1.0,1.0,1.0,1.0,785.4369020001286,2.0,1.0,phase_1,,,,,,,,,,,,,gray,triangle
662.0,7.0,2.0,1.0,1.0,1.0,450.2387680001902,2.0,1.0,phase_1,,,,,,,,,,,,,magenta,diamond
0.0,3.0,0.0,0.0,2.0,2.0,552.1456480000779,2.0,1.0,phase_1,,,,,,,,,,,,,white,I
153.0,1.0,0.5,0.0,3.0,3.0,346.4845900000455,2.0,1.0,phase_1,,,,,,,,,,,,,green,square
148.0,5.0,0.5,1.0,3.0,3.0,402.5761479999801,2.0,1.0,phase_1,,,,,,,,,,,,,yellow,cross
170.0,5.0,0.5,1.0,1.0,1.0,514.6616629999698,2.0,1.0,phase_1,,,,,,,,,,,,,yellow,cross
338.0,6.0,1.0,1.0,4.0,4.0,452.4528520000785,2.0,1.0,phase_1,,,,,,,,,,,,,gray,triangle
325.0,6.0,1.0,1.0,2.0,2.0,504.7677460001978,2.0,1.0,phase_1,,,,,,,,,,,,,gray,triangle
311.0,6.0,1.0,1.0,4.0,4.0,469.1370079999615,2.0,1.0,phase_1,,,,,,,,,,,,,gray,triangle
637.0,3.0,2.0,0.0,1.0,1.0,478.7520009999753,2.0,1.0,phase_1,,,,,,,,,,,,,white,I
184.0,5.0,0.5,1.0,4.0,4.0,478.2000100001369,2.0,1.0,phase_1,,,,,,,,,,,,,yellow,cross
672.0,7.0,2.0,1.0,4.0,4.0,393.6378140001579,2.0,1.0,phase_1,,,,,,,,,,,,,magenta,diamond
145.0,1.0,0.5,0.0,3.0,3.0,515.0777999999718,2.0,1.0,phase_1,,,,,,,,,,,,,green,square
154.0,5.0,0.5,1.0,4.0,4.0,420.6466519999594,2.0,1.0,phase_1,,,,,,,,,,,,,yellow,cross
138.0,5.0,0.5,1.0,1.0,1.0,392.5342340000952,2.0,1.0,phase_1,,,,,,,,,,,,,yellow,cross
311.0,6.0,1.0,1.0,4.0,4.0,469.7200680000151,2.0,1.0,phase_1,,,,,,,,,,,,,gray,triangle
181.0,5.0,0.5,1.0,2.0,2.0,441.3543279999885,2.0,1.0,phase_1,,,,,,,,,,,,,yellow,cross
158.0,1.0,0.5,0.0,1.0,1.0,486.5992499999265,2.0,1.0,phase_1,,,,,,,,,,,,,green,square
319.0,6.0,1.0,1.0,3.0,3.0,317.6844290001099,2.0,1.0,phase_1,,,,,,,,,,,,,gray,triangle
0.0,5.0,0.0,1.0,1.0,1.0,431.1687040001288,2.0,1.0,phase_1,,,,,,,,,,,,,yellow,cross
1292.0,8.0,4.0,1.0,3.0,3.0,364.685172999998,2.0,1.0,phase_1,,,,,,,,,,,,,blue,circle
0.0,7.0,0.0,1.0,4.0,4.0,354.7811589999128,2.0,1.0,phase_1,,,,,,,,,,,,,magenta,diamond
0.0,1.0,0.0,0.0,2.0,2.0,327.2495369999433,2.0,1.0,phase_1,,,,,,,,,,,,,green,square
0.0,8.0,0.0,1.0,3.0,3.0,484.4011529999079,2.0,1.0,phase_1,,,,,,,,,,,,,blue,circle
164.0,1.0,0.5,0.0,2.0,2.0,459.2998769999212,2.0,2.0,phase_1,,,,,,,,,,,,,green,square
1285.0,8.0,4.0,1.0,3.0,3.0,505.4256490000171,2.0,1.0,phase_1,,,,,,,,,,,,,blue,circle
670.0,7.0,2.0,1.0,2.0,2.0,459.1903779999029,2.0,1.0,phase_1,,,,,,,,,,,,,magenta,diamond
672.0,3.0,2.0,0.0,4.0,4.0,572.7299420000236,2.0,1.0,phase_1,,,,,,,,,,,,,white,I
1289.0,8.0,4.0,1.0,4.0,4.0,468.1311389999791,2.0,1.0,phase_1,,,,,,,,,,,,,blue,circle
1321.0,8.0,4.0,1.0,2.0,2.0,468.8715029999457,2.0,1.0,phase_1,,,,,,,,,,,,,blue,circle
661.0,3.0,2.0,0.0,4.0,4.0,440.4012640000019,2.0,1.0,phase_1,,,,,,,,,,,,,white,I
344.0,6.0,1.0,1.0,1.0,1.0,564.5187040001929,2.0,1.0,phase_1,,,,,,,,,,,,,gray,triangle
1316.0,8.0,4.0,1.0,1.0,1.0,591.0371539998778,2.0,1.0,phase_1,,,,,,,,,,,,,blue,circle
0.0,2.0,0.0,0.0,4.0,4.0,541.8086990000575,2.0,1.0,phase_1,,,,,,,,,,,,,orange,hexagon
646.0,3.0,2.0,0.0,3.0,3.0,392.396496000174,2.0,1.0,phase_1,,,,,,,,,,,,,white,I
326.0,6.0,1.0,1.0,1.0,1.0,458.2153060000564,2.0,1.0,phase_1,,,,,,,,,,,,,gray,triangle
302.0,2.0,1.0,0.0,2.0,2.0,308.3403129999169,2.0,1.0,phase_1,,,,,,,,,,,,,orange,hexagon
675.0,7.0,2.0,1.0,1.0,1.0,467.4016070000562,2.0,1.0,phase_1,,,,,,,,,,,,,magenta,diamond
1325.0,4.0,4.0,0.0,4.0,4.0,432.183668000107,2.0,1.0,phase_1,,,,,,,,,,,,,cyan,flipped triangle
1279.0,8.0,4.0,1.0,2.0,2.0,393.6724189998131,2.0,1.0,phase_1,,,,,,,,,,,,,blue,circle
142.0,1.0,0.5,0.0,4.0,4.0,552.2867649999625,2.0,1.0,phase_1,,,,,,,,,,,,,green,square
139.0,1.0,0.5,0.0,2.0,2.0,533.608404000006,2.0,1.0,phase_1,,,,,,,,,,,,,green,square
1297.0,4.0,4.0,0.0,2.0,2.0,469.4695640000645,2.0,1.0,phase_1,,,,,,,,,,,,,cyan,flipped triangle
164.0,5.0,0.5,1.0,3.0,3.0,440.1660080000056,2.0,1.0,phase_1,,,,,,,,,,,,,yellow,cross
145.0,5.0,0.5,1.0,2.0,2.0,599.1148409998459,2.0,1.0,phase_1,,,,,,,,,,,,,yellow,cross
1308.0,8.0,4.0,1.0,1.0,1.0,619.1072239998903,2.0,1.0,phase_1,,,,,,,,,,,,,blue,circle
0.0,5.0,0.0,1.0,3.0,3.0,374.703873000044,2.0,1.0,phase_1,,,,,,,,,,,,,yellow,cross
0.0,7.0,0.0,1.0,4.0,4.0,336.1199240000587,2.0,1.0,phase_1,,,,,,,,,,,,,magenta,diamond
636.0,7.0,2.0,1.0,4.0,4.0,419.9319910001122,2.0,1.0,phase_1,,,,,,,,,,,,,magenta,diamond
335.0,6.0,1.0,1.0,1.0,1.0,513.8615109999591,2.0,1.0,phase_1,,,,,,,,,,,,,gray,triangle
143.0,1.0,0.5,0.0,4.0,4.0,477.6698670000314,2.0,1.0,phase_1,,,,,,,,,,,,,green,square
1282.0,8.0,4.0,1.0,1.0,1.0,429.8475739999503,2.0,1.0,phase_1,,,,,,,,,,,,,blue,circle
1303.0,4.0,4.0,0.0,4.0,4.0,366.628159999891,2.0,1.0,phase_1,,,,,,,,,,,,,cyan,flipped triangle
342.0,2.0,1.0,0.0,2.0,2.0,394.2042490000403,2.0,1.0,phase_1,,,,,,,,,,,,,orange,hexagon
641.0,7.0,2.0,1.0,3.0,3.0,301.2995869999031,2.0,1.0,phase_1,,,,,,,,,,,,,magenta,diamond
628.0,7.0,2.0,1.0,1.0,1.0,600.8704739999757,2.0,1.0,phase_1,,,,,,,,,,,,,magenta,diamond
328.0,6.0,1.0,1.0,2.0,2.0,525.5307259999427,2.0,1.0,phase_1,,,,,,,,,,,,,gray,triangle
1291.0,4.0,4.0,0.0,1.0,1.0,525.6243579999591,2.0,1.0,phase_1,,,,,,,,,,,,,cyan,flipped triangle
1300.0,8.0,4.0,1.0,2.0,2.0,485.5700150001212,2.0,1.0,phase_1,,,,,,,,,,,,,blue,circle
341.0,2.0,1.0,0.0,2.0,2.0,478.3792410000842,2.0,1.0,phase_1,,,,,,,,,,,,,orange,hexagon
631.0,3.0,2.0,0.0,4.0,4.0,347.4676969999564,2.0,1.0,phase_1,,,,,,,,,,,,,white,I
642.0,3.0,2.0,0.0,2.0,2.0,565.1764879999064,2.0,1.0,phase_1,,,,,,,,,,,,,white,I
1298.0,4.0,4.0,0.0,2.0,2.0,608.5254859999623,3.0,1.0,phase_1,,,,,,,,,,,,,cyan,flipped triangle
647.0,7.0,2.0,1.0,4.0,4.0,384.3540000000303,3.0,1.0,phase_1,,,,,,,,,,,,,magenta,diamond
0.0,8.0,0.0,1.0,1.0,1.0,429.0026660000876,3.0,2.0,phase_1,,,,,,,,,,,,,blue,circle
0.0,3.0,0.0,0.0,1.0,1.0,436.4408949998051,3.0,1.0,phase_1,,,,,,,,,,,,,white,I
0.0,8.0,0.0,1.0,3.0,3.0,458.5815039999943,3.0,1.0,phase_1,,,,,,,,,,,,,blue,circle
629.0,3.0,2.0,0.0,4.0,4.0,412.3870850000912,3.0,1.0,phase_1,,,,,,,,,,,,,white,I
326.0,2.0,1.0,0.0,4.0,4.0,476.8057029998545,3.0,1.0,phase_1,,,,,,,,,,,,,orange,hexagon
1279.0,4.0,4.0,0.0,3.0,3.0,590.9271299999546,3.0,1.0,phase_1,,,,,,,,,,,,,cyan,flipped triangle
171.0,1.0,0.5,0.0,2.0,2.0,610.0748200001362,3.0,1.0,phase_1,,,,,,,,,,,,,green,square
0.0,2.0,0.0,0.0,3.0,3.0,430.7482439999148,3.0,1.0,phase_1,,,,,,,,,,,,,orange,hexagon
0.0,6.0,0.0,1.0,4.0,4.0,458.8972199999261,3.0,1.0,phase_1,,,,,,,,,,,,,gray,triangle
1288.0,4.0,4.0,0.0,2.0,2.0,524.9849809999887,3.0,2.0,phase_1,,,,,,,,,,,,,cyan,flipped triangle
309.0,2.0,1.0,0.0,2.0,2.0,541.3326450000113,3.0,1.0,phase_1,,,,,,,,,,,,,orange,hexagon
663.0,3.0,2.0,0.0,3.0,3.0,469.5425519998935,3.0,1.0,phase_1,,,,,,,,,,,,,white,I
1297.0,8.0,4.0,1.0,1.0,1.0,270.9452389999569,3.0,1.0,phase_1,,,,,,,,,,,,,blue,circle
139.0,5.0,0.5,1.0,2.0,2.0,484.4465090000085,3.0,1.0,phase_1,,,,,,,,,,,,,yellow,cross
630.0,3.0,2.0,0.0,2.0,2.0,494.5604819999971,3.0,1.0,phase_1,,,,,,,,,,,,,white,I
0.0,8.0,0.0,1.0,4.0,4.0,319.1817050001191,3.0,1.0,phase_1,,,,,,,,,,,,,blue,circle
328.0,2.0,1.0,0.0,1.0,1.0,467.15412599996847,3.0,1.0,phase_1,,,,,,,,,,,,,orange,hexagon
325.0,2.0,1.0,0.0,1.0,1.0,514.2236799999864,3.0,1.0,phase_1,,,,,,,,,,,,,orange,hexagon
318.0,6.0,1.0,1.0,2.0,2.0,530.9769620000679,3.0,1.0,phase_1,,,,,,,,,,,,,gray,triangle
0.0,6.0,0.0,1.0,2.0,2.0,438.8565989997914,3.0,1.0,phase_1,,,,,,,,,,,,,gray,triangle
159.0,1.0,0.5,0.0,3.0,3.0,475.3536890000305,3.0,1.0,phase_1,,,,,,,,,,,,,green,square
647.0,7.0,2.0,1.0,3.0,3.0,365.9712229998604,3.0,1.0,phase_1,,,,,,,,,,,,,magenta,diamond
0.0,6.0,0.0,1.0,2.0,2.0,419.5334670000648,3.0,1.0,phase_1,,,,,,,,,,,,,gray,triangle
645.0,7.0,2.0,1.0,3.0,3.0,448.505551000153,3.0,1.0,phase_1,,,,,,,,,,,,,magenta,diamond
642.0,3.0,2.0,0.0,4.0,4.0,607.0075159998396,3.0,1.0,phase_1,,,,,,,,,,,,,white,I
0.0,6.0,0.0,1.0,2.0,2.0,617.4929539999994,3.0,1.0,phase_1,,,,,,,,,,,,,gray,triangle
148.0,5.0,0.5,1.0,3.0,3.0,478.01708399993,3.0,1.0,phase_1,,,,,,,,,,,,,yellow,cross
186.0,5.0,0.5,1.0,2.0,2.0,568.8793289998557,3.0,1.0,phase_1,,,,,,,,,,,,,yellow,cross
320.0,2.0,1.0,0.0,2.0,2.0,448.3091810000132,3.0,1.0,phase_1,,,,,,,,,,,,,orange,hexagon
658.0,3.0,2.0,0.0,4.0,4.0,570.1966740000444,3.0,1.0,phase_1,,,,,,,,,,,,,white,I
344.0,2.0,1.0,0.0,3.0,3.0,440.2298819998123,3.0,1.0,phase_1,,,,,,,,,,,,,orange,hexagon
1301.0,8.0,4.0,1.0,1.0,1.0,400.3348250000726,3.0,1.0,phase_1,,,,,,,,,,,,,blue,circle
0.0,4.0,0.0,0.0,2.0,2.0,384.2371820001062,3.0,1.0,phase_1,,,,,,,,,,,,,cyan,flipped triangle
1310.0,8.0,4.0,1.0,3.0,3.0,364.4477699999697,3.0,1.0,phase_1,,,,,,,,,,,,,blue,circle
0.0,4.0,0.0,0.0,4.0,4.0,356.1662609999985,3.0,1.0,phase_1,,,,,,,,,,,,,cyan,flipped triangle
313.0,2.0,1.0,0.0,4.0,4.0,478.1701719998636,3.0,1.0,phase_1,,,,,,,,,,,,,orange,hexagon
150.0,5.0,0.5,1.0,1.0,1.0,701.5261950000422,3.0,1.0,phase_1,,,,,,,,,,,,,yellow,cross
148.0,1.0,0.5,0.0,2.0,2.0,345.0671470000088,3.0,1.0,phase_1,,,,,,,,,,,,,green,square
342.0,6.0,1.0,1.0,2.0,2.0,475.1643259999127,3.0,1.0,phase_1,,,,,,,,,,,,,gray,triangle
659.0,7.0,2.0,1.0,4.0,4.0,541.4932119999776,3.0,1.0,phase_1,,,,,,,,,,,,,magenta,diamond
147.0,5.0,0.5,1.0,3.0,3.0,364.5152560000042,3.0,1.0,phase_1,,,,,,,,,,,,,yellow,cross
645.0,7.0,2.0,1.0,1.0,1.0,393.3389269998315,3.0,1.0,phase_1,,,,,,,,,,,,,magenta,diamond
1321.0,4.0,4.0,0.0,3.0,3.0,412.4976820000938,3.0,1.0,phase_1,,,,,,,,,,,,,cyan,flipped triangle
333.0,6.0,1.0,1.0,4.0,4.0,448.4163409999837,3.0,1.0,phase_1,,,,,,,,,,,,,gray,triangle
174.0,5.0,0.5,1.0,4.0,4.0,458.6310729998786,3.0,1.0,phase_1,,,,,,,,,,,,,yellow,cross
0.0,1.0,0.0,0.0,1.0,1.0,670.8318169999075,3.0,1.0,phase_1,,,,,,,,,,,,,green,square
0.0,4.0,0.0,0.0,1.0,1.0,618.9156099999309,3.0,1.0,phase_1,,,,,,,,,,,,,cyan,flipped triangle
184.0,5.0,0.5,1.0,4.0,4.0,402.3029459999634,3.0,1.0,phase_1,,,,,,,,,,,,,yellow,cross
1290.0,4.0,4.0,0.0,3.0,3.0,401.2105070000871,3.0,1.0,phase_1,,,,,,,,,,,,,cyan,flipped triangle
313.0,6.0,1.0,1.0,2.0,2.0,317.9538169999887,3.0,1.0,phase_1,,,,,,,,,,,,,gray,triangle
311.0,6.0,1.0,1.0,4.0,4.0,346.7398650000177,3.0,1.0,phase_1,,,,,,,,,,,,,gray,triangle
138.0,1.0,0.5,0.0,3.0,3.0,450.9462710000207,3.0,1.0,phase_1,,,,,,,,,,,,,green,square
319.0,2.0,1.0,0.0,1.0,1.0,409.7497879999991,3.0,1.0,phase_1,,,,,,,,,,,,,orange,hexagon
346.0,2.0,1.0,0.0,4.0,4.0,431.152516000111,3.0,1.0,phase_1,,,,,,,,,,,,,orange,hexagon
315.0,6.0,1.0,1.0,3.0,3.0,336.9413679999979,3.0,1.0,phase_1,,,,,,,,,,,,,gray,triangle
328.0,6.0,1.0,1.0,1.0,1.0,541.8345650000447,3.0,1.0,phase_1,,,,,,,,,,,,,gray,triangle
1321.0,4.0,4.0,0.0,1.0,1.0,626.722349999909,3.0,1.0,phase_1,,,,,,,,,,,,,cyan,flipped triangle
0.0,2.0,0.0,0.0,3.0,3.0,608.2473619999291,3.0,1.0,phase_1,,,,,,,,,,,,,orange,hexagon
646.0,7.0,2.0,1.0,2.0,2.0,466.1221079998086,3.0,1.0,phase_1,,,,,,,,,,,,,magenta,diamond
1323.0,4.0,4.0,0.0,1.0,1.0,446.9436680001308,3.0,1.0,phase_1,,,,,,,,,,,,,cyan,flipped triangle
0.0,1.0,0.0,0.0,1.0,1.0,420.0655280001228,3.0,1.0,phase_1,,,,,,,,,,,,,green,square
0.0,3.0,0.0,0.0,4.0,4.0,346.3027779998811,3.0,1.0,phase_1,,,,,,,,,,,,,white,I
649.0,7.0,2.0,1.0,4.0,4.0,402.192967000019,3.0,2.0,phase_1,,,,,,,,,,,,,magenta,diamond
1279.0,8.0,4.0,1.0,4.0,4.0,365.0657210000645,3.0,1.0,phase_1,,,,,,,,,,,,,blue,circle
165.0,5.0,0.5,1.0,2.0,2.0,440.3819179999573,3.0,1.0,phase_1,,,,,,,,,,,,,yellow,cross
645.0,3.0,2.0,0.0,3.0,3.0,336.6235029998279,3.0,1.0,phase_1,,,,,,,,,,,,,white,I
1294.0,4.0,4.0,0.0,1.0,1.0,515.1454899998953,3.0,1.0,phase_1,,,,,,,,,,,,,cyan,flipped triangle
1300.0,4.0,4.0,0.0,3.0,3.0,412.69319800017,3.0,1.0,phase_1,,,,,,,,,,,,,cyan,flipped triangle
0.0,3.0,0.0,0.0,3.0,3.0,467.6940029999059,3.0,1.0,phase_1,,,,,,,,,,,,,white,I
0.0,5.0,0.0,1.0,2.0,2.0,374.9900540001363,3.0,1.0,phase_1,,,,,,,,,,,,,yellow,cross
0.0,2.0,0.0,0.0,4.0,4.0,637.6903800000946,3.0,1.0,phase_1,,,,,,,,,,,,,orange,hexagon
1306.0,8.0,4.0,1.0,4.0,4.0,467.4067640000885,3.0,1.0,phase_1,,,,,,,,,,,,,blue,circle
637.0,7.0,2.0,1.0,3.0,3.0,478.6458139999467,3.0,1.0,phase_1,,,,,,,,,,,,,magenta,diamond
328.0,2.0,1.0,0.0,1.0,1.0,477.4175329998797,3.0,1.0,phase_1,,,,,,,,,,,,,orange,hexagon
1291.0,8.0,4.0,1.0,1.0,1.0,421.9644180000159,3.0,1.0,phase_1,,,,,,,,,,,,,blue,circle
342.0,6.0,1.0,1.0,3.0,3.0,421.4560850000453,3.0,1.0,phase_1,,,,,,,,,,,,,gray,triangle
319.0,6.0,1.0,1.0,3.0,3.0,441.6595659999984,3.0,1.0,phase_1,,,,,,,,,,,,,gray,triangle
0.0,8.0,0.0,1.0,1.0,1.0,702.5302039999133,3.0,1.0,phase_1,,,,,,,,,,,,,blue,circle
166.0,1.0,0.5,0.0,1.0,1.0,533.5005930000989,3.0,1.0,phase_1,,,,,,,,,,,,,green,square
173.0,1.0,0.5,0.0,1.0,1.0,495.4926660000183,3.0,1.0,phase_1,,,,,,,,,,,,,green,square
187.0,5.0,0.5,1.0,4.0,4.0,731.7533249999997,3.0,1.0,phase_1,,,,,,,,,,,,,yellow,cross
1317.0,4.0,4.0,0.0,4.0,4.0,449.8722719999932,3.0,1.0,phase_1,,,,,,,,,,,,,cyan,flipped triangle
0.0,5.0,0.0,1.0,4.0,4.0,373.3275219999541,3.0,1.0,phase_1,,,,,,,,,,,,,yellow,cross
1317.0,4.0,4.0,0.0,1.0,1.0,496.3467290001517,3.0,1.0,phase_1,,,,,,,,,,,,,cyan,flipped triangle
1322.0,4.0,4.0,0.0,1.0,1.0,495.9847610000452,3.0,1.0,phase_1,,,,,,,,,,,,,cyan,flipped triangle
0.0,4.0,0.0,0.0,4.0,4.0,449.4897039999159,3.0,1.0,phase_1,,,,,,,,,,,,,cyan,flipped triangle
153.0,1.0,0.5,0.0,1.0,1.0,439.6610010001041,3.0,1.0,phase_1,,,,,,,,,,,,,green,square
186.0,1.0,0.5,0.0,1.0,1.0,392.9114569998546,3.0,1.0,phase_1,,,,,,,,,,,,,green,square
338.0,2.0,1.0,0.0,1.0,1.0,505.2656070001831,3.0,1.0,phase_1,,,,,,,,,,,,,orange,hexagon
333.0,2.0,1.0,0.0,3.0,3.0,374.6902970001429,3.0,1.0,phase_1,,,,,,,,,,,,,orange,hexagon
342.0,6.0,1.0,1.0,1.0,1.0,475.8872439999777,3.0,1.0,phase_1,,,,,,,,,,,,,gray,triangle
1288.0,8.0,4.0,1.0,4.0,4.0,392.9011519999221,3.0,1.0,phase_1,,,,,,,,,,,,,blue,circle
0.0,5.0,0.0,1.0,2.0,2.0,391.04689900023,3.0,1.0,phase_1,,,,,,,,,,,,,yellow,cross
333.0,6.0,1.0,1.0,1.0,1.0,409.6442929999284,3.0,1.0,phase_1,,,,,,,,,,,,,gray,triangle
0.0,1.0,0.0,0.0,1.0,1.0,494.5005959998525,3.0,1.0,phase_1,,,,,,,,,,,,,green,square
653.0,3.0,2.0,0.0,1.0,1.0,520.479332999912,3.0,1.0,phase_1,,,,,,,,,,,,,white,I
0.0,1.0,0.0,0.0,3.0,3.0,326.9170200001099,3.0,1.0,phase_1,,,,,,,,,,,,,green,square
629.0,7.0,2.0,1.0,3.0,3.0,467.6282460000038,3.0,1.0,phase_1,,,,,,,,,,,,,magenta,diamond
647.0,3.0,2.0,0.0,2.0,2.0,570.7492460001049,4.0,1.0,phase_1,,,,,,,,,,,,,white,I
311.0,2.0,1.0,0.0,1.0,1.0,521.2735909999537,4.0,1.0,phase_1,,,,,,,,,,,,,orange,hexagon
663.0,7.0,2.0,1.0,1.0,1.0,391.9306279999546,4.0,1.0,phase_1,,,,,,,,,,,,,magenta,diamond
184.0,1.0,0.5,0.0,2.0,2.0,374.6791430003213,4.0,1.0,phase_1,,,,,,,,,,,,,green,square
165.0,5.0,0.5,1.0,2.0,2.0,365.407629999936,4.0,1.0,phase_1,,,,,,,,,,,,,yellow,cross
179.0,1.0,0.5,0.0,1.0,1.0,476.3504779998584,4.0,1.0,phase_1,,,,,,,,,,,,,green,square
308.0,6.0,1.0,1.0,1.0,1.0,440.0752299998203,4.0,1.0,phase_1,,,,,,,,,,,,,gray,triangle
171.0,5.0,0.5,1.0,4.0,4.0,338.1099989996983,4.0,1.0,phase_1,,,,,,,,,,,,,yellow,cross
645.0,3.0,2.0,0.0,2.0,2.0,533.2320520001304,4.0,1.0,phase_1,,,,,,,,,,,,,white,I
1306.0,4.0,4.0,0.0,4.0,4.0,403.7040140001409,4.0,1.0,phase_1,,,,,,,,,,,,,cyan,flipped triangle
305.0,2.0,1.0,0.0,4.0,4.0,421.4688209999622,4.0,1.0,phase_1,,,,,,,,,,,,,orange,hexagon
148.0,1.0,0.5,0.0,1.0,1.0,494.288718000007,4.0,1.0,phase_1,,,,,,,,,,,,,green,square
159.0,5.0,0.5,1.0,1.0,1.0,468.5209159997612,4.0,1.0,phase_1,,,,,,,,,,,,,yellow,cross
662.0,3.0,2.0,0.0,1.0,1.0,375.2644249998411,4.0,1.0,phase_1,,,,,,,,,,,,,white,I
173.0,5.0,0.5,1.0,1.0,1.0,515.1970219999384,4.0,1.0,phase_1,,,,,,,,,,,,,yellow,cross
322.0,2.0,1.0,0.0,2.0,2.0,400.7512289999795,4.0,1.0,phase_1,,,,,,,,,,,,,orange,hexagon
626.0,3.0,2.0,0.0,4.0,4.0,365.0451929997871,4.0,1.0,phase_1,,,,,,,,,,,,,white,I
307.0,2.0,1.0,0.0,2.0,2.0,476.348981999763,4.0,1.0,phase_1,,,,,,,,,,,,,orange,hexagon
322.0,6.0,1.0,1.0,4.0,4.0,534.4171669999014,4.0,1.0,phase_1,,,,,,,,,,,,,gray,triangle
1317.0,8.0,4.0,1.0,1.0,1.0,487.5631200002317,4.0,1.0,phase_1,,,,,,,,,,,,,blue,circle
0.0,4.0,0.0,0.0,2.0,2.0,513.5565610003141,4.0,1.0,phase_1,,,,,,,,,,,,,cyan,flipped triangle
631.0,7.0,2.0,1.0,2.0,2.0,421.0046090001924,4.0,1.0,phase_1,,,,,,,,,,,,,magenta,diamond
181.0,5.0,0.5,1.0,3.0,3.0,410.3074439999545,4.0,1.0,phase_1,,,,,,,,,,,,,yellow,cross
637.0,3.0,2.0,0.0,3.0,3.0,383.6889810004322,4.0,1.0,phase_1,,,,,,,,,,,,,white,I
0.0,7.0,0.0,1.0,2.0,2.0,430.1380279998739,4.0,1.0,phase_1,,,,,,,,,,,,,magenta,diamond
143.0,5.0,0.5,1.0,4.0,4.0,625.1538630003779,4.0,1.0,phase_1,,,,,,,,,,,,,yellow,cross
1291.0,4.0,4.0,0.0,4.0,4.0,393.7098740002511,4.0,1.0,phase_1,,,,,,,,,,,,,cyan,flipped triangle
0.0,2.0,0.0,0.0,3.0,3.0,402.0799169998099,4.0,1.0,phase_1,,,,,,,,,,,,,orange,hexagon
154.0,1.0,0.5,0.0,4.0,4.0,478.1643659998735,4.0,1.0,phase_1,,,,,,,,,,,,,green,square
1297.0,8.0,4.0,1.0,2.0,2.0,458.0988780003281,4.0,1.0,phase_1,,,,,,,,,,,,,blue,circle
308.0,2.0,1.0,0.0,4.0,4.0,354.6627699997771,4.0,1.0,phase_1,,,,,,,,,,,,,orange,hexagon
1279.0,4.0,4.0,0.0,3.0,3.0,336.9039580002209,4.0,1.0,phase_1,,,,,,,,,,,,,cyan,flipped triangle
0.0,4.0,0.0,0.0,1.0,1.0,309.2641580001327,4.0,1.0,phase_1,,,,,,,,,,,,,cyan,flipped triangle
333.0,2.0,1.0,0.0,2.0,2.0,410.4424199999812,4.0,1.0,phase_1,,,,,,,,,,,,,orange,hexagon
637.0,7.0,2.0,1.0,1.0,1.0,384.9284709999665,4.0,1.0,phase_1,,,,,,,,,,,,,magenta,diamond
0.0,5.0,0.0,1.0,2.0,2.0,486.6782139997667,4.0,1.0,phase_1,,,,,,,,,,,,,yellow,cross
637.0,7.0,2.0,1.0,4.0,4.0,354.7859189998235,4.0,1.0,phase_1,,,,,,,,,,,,,magenta,diamond
153.0,5.0,0.5,1.0,1.0,1.0,448.9584420002757,4.0,1.0,phase_1,,,,,,,,,,,,,yellow,cross
311.0,6.0,1.0,1.0,1.0,1.0,403.0611920002229,4.0,1.0,phase_1,,,,,,,,,,,,,gray,triangle
668.0,3.0,2.0,0.0,1.0,1.0,384.4331300001613,4.0,1.0,phase_1,,,,,,,,,,,,,white,I
1290.0,8.0,4.0,1.0,2.0,2.0,467.5487289996454,4.0,1.0,phase_1,,,,,,,,,,,,,blue,circle
177.0,5.0,0.5,1.0,4.0,4.0,410.8261410001432,4.0,1.0,phase_1,,,,,,,,,,,,,yellow,cross
668.0,7.0,2.0,1.0,2.0,2.0,421.0785479999686,4.0,1.0,phase_1,,,,,,,,,,,,,magenta,diamond
187.0,1.0,0.5,0.0,1.0,1.0,467.1453590003693,4.0,1.0,phase_1,,,,,,,,,,,,,green,square
0.0,7.0,0.0,1.0,4.0,4.0,383.4383600001274,4.0,1.0,phase_1,,,,,,,,,,,,,magenta,diamond
1283.0,4.0,4.0,0.0,1.0,1.0,440.132526999605,4.0,1.0,phase_1,,,,,,,,,,,,,cyan,flipped triangle
1316.0,4.0,4.0,0.0,2.0,2.0,392.4706330003573,4.0,1.0,phase_1,,,,,,,,,,,,,cyan,flipped triangle
1279.0,8.0,4.0,1.0,1.0,1.0,860.9470030000921,4.0,1.0,phase_1,,,,,,,,,,,,,blue,circle
180.0,5.0,0.5,1.0,2.0,2.0,495.7519580002554,4.0,1.0,phase_1,,,,,,,,,,,,,yellow,cross
637.0,3.0,2.0,0.0,1.0,1.0,486.724232999677,4.0,1.0,phase_1,,,,,,,,,,,,,white,I
166.0,5.0,0.5,1.0,4.0,4.0,364.4588649999605,4.0,1.0,phase_1,,,,,,,,,,,,,yellow,cross
153.0,5.0,0.5,1.0,3.0,3.0,392.7944639999623,4.0,1.0,phase_1,,,,,,,,,,,,,yellow,cross
1286.0,4.0,4.0,0.0,2.0,2.0,364.5680079998783,4.0,1.0,phase_1,,,,,,,,,,,,,cyan,flipped triangle
637.0,3.0,2.0,0.0,3.0,3.0,457.9051100004108,4.0,1.0,phase_1,,,,,,,,,,,,,white,I
673.0,7.0,2.0,1.0,4.0,4.0,366.0749649998251,4.0,1.0,phase_1,,,,,,,,,,,,,magenta,diamond
330.0,6.0,1.0,1.0,2.0,2.0,439.6099730001879,4.0,1.0,phase_1,,,,,,,,,,,,,gray,triangle
1300.0,8.0,4.0,1.0,3.0,3.0,419.704935000027,4.0,1.0,phase_1,,,,,,,,,,,,,blue,circle
643.0,7.0,2.0,1.0,2.0,2.0,421.0784940000849,4.0,1.0,phase_1,,,,,,,,,,,,,magenta,diamond
0.0,8.0,0.0,1.0,1.0,1.0,479.3046189997767,4.0,1.0,phase_1,,,,,,,,,,,,,blue,circle
139.0,5.0,0.5,1.0,2.0,2.0,391.5201039999374,4.0,1.0,phase_1,,,,,,,,,,,,,yellow,cross
142.0,5.0,0.5,1.0,3.0,3.0,317.3455000001013,4.0,1.0,phase_1,,,,,,,,,,,,,yellow,cross
0.0,2.0,0.0,0.0,2.0,2.0,393.5134150001431,4.0,1.0,phase_1,,,,,,,,,,,,,orange,hexagon
177.0,1.0,0.5,0.0,3.0,3.0,543.2271970003058,4.0,1.0,phase_1,,,,,,,,,,,,,green,square
1299.0,8.0,4.0,1.0,3.0,3.0,403.0502149998938,4.0,1.0,phase_1,,,,,,,,,,,,,blue,circle
1285.0,4.0,4.0,0.0,4.0,4.0,383.920924999984,4.0,1.0,phase_1,,,,,,,,,,,,,cyan,flipped triangle
179.0,5.0,0.5,1.0,1.0,1.0,485.8784479997666,4.0,1.0,phase_1,,,,,,,,,,,,,yellow,cross
1277.0,8.0,4.0,1.0,4.0,4.0,533.8437279997379,4.0,1.0,phase_1,,,,,,,,,,,,,blue,circle
0.0,8.0,0.0,1.0,4.0,4.0,429.8883550000028,4.0,1.0,phase_1,,,,,,,,,,,,,blue,circle
170.0,1.0,0.5,0.0,3.0,3.0,374.2716530000507,4.0,1.0,phase_1,,,,,,,,,,,,,green,square
161.0,5.0,0.5,1.0,3.0,3.0,486.2394490000952,4.0,1.0,phase_1,,,,,,,,,,,,,yellow,cross
349.0,6.0,1.0,1.0,2.0,2.0,317.46724300001,4.0,1.0,phase_1,,,,,,,,,,,,,gray,triangle
0.0,1.0,0.0,0.0,2.0,2.0,364.7821439999461,4.0,1.0,phase_1,,,,,,,,,,,,,green,square
0.0,7.0,0.0,1.0,3.0,3.0,532.7705230001811,4.0,1.0,phase_1,,,,,,,,,,,,,magenta,diamond
0.0,2.0,0.0,0.0,2.0,2.0,625.9069399998225,4.0,2.0,phase_1,,,,,,,,,,,,,orange,hexagon
650.0,7.0,2.0,1.0,2.0,2.0,411.8831579999096,4.0,1.0,phase_1,,,,,,,,,,,,,magenta,diamond
0.0,6.0,0.0,1.0,3.0,3.0,440.047981999669,4.0,1.0,phase_1,,,,,,,,,,,,,gray,triangle
1279.0,8.0,4.0,1.0,2.0,2.0,410.0098159997287,4.0,1.0,phase_1,,,,,,,,,,,,,blue,circle
630.0,7.0,2.0,1.0,3.0,3.0,430.3422469997713,4.0,1.0,phase_1,,,,,,,,,,,,,magenta,diamond
1323.0,4.0,4.0,0.0,2.0,2.0,488.0875320000086,4.0,1.0,phase_1,,,,,,,,,,,,,cyan,flipped triangle
139.0,1.0,0.5,0.0,4.0,4.0,430.8033939996676,4.0,1.0,phase_1,,,,,,,,,,,,,green,square
637.0,7.0,2.0,1.0,3.0,3.0,485.7360719997814,4.0,1.0,phase_1,,,,,,,,,,,,,magenta,diamond
675.0,3.0,2.0,0.0,1.0,1.0,457.4484569998276,4.0,1.0,phase_1,,,,,,,,,,,,,white,I
1277.0,4.0,4.0,0.0,4.0,4.0,486.5526219996354,4.0,1.0,phase_1,,,,,,,,,,,,,cyan,flipped triangle
1323.0,8.0,4.0,1.0,4.0,4.0,374.267097000029,4.0,1.0,phase_1,,,,,,,,,,,,,blue,circle
0.0,6.0,0.0,1.0,1.0,1.0,457.9974339999353,4.0,1.0,phase_1,,,,,,,,,,,,,gray,triangle
1299.0,4.0,4.0,0.0,4.0,4.0,430.7647559999168,4.0,1.0,phase_1,,,,,,,,,,,,,cyan,flipped triangle
1310.0,4.0,4.0,0.0,2.0,2.0,813.6166630001753,4.0,1.0,phase_1,,,,,,,,,,,,,cyan,flipped triangle
315.0,2.0,1.0,0.0,4.0,4.0,448.3004579997214,4.0,1.0,phase_1,,,,,,,,,,,,,orange,hexagon
659.0,3.0,2.0,0.0,3.0,3.0,373.4676139997646,4.0,1.0,phase_1,,,,,,,,,,,,,white,I
1323.0,8.0,4.0,1.0,3.0,3.0,444.7503090000282,4.0,1.0,phase_1,,,,,,,,,,,,,blue,circle
333.0,6.0,1.0,1.0,3.0,3.0,457.4118329996963,4.0,1.0,phase_1,,,,,,,,,,,,,gray,triangle
139.0,1.0,0.5,0.0,3.0,3.0,597.2458309997819,4.0,1.0,phase_1,,,,,,,,,,,,,green,square
1301.0,4.0,4.0,0.0,3.0,3.0,485.1220880000255,4.0,1.0,phase_1,,,,,,,,,,,,,cyan,flipped triangle
333.0,2.0,1.0,0.0,3.0,3.0,392.0101550002073,4.0,1.0,phase_1,,,,,,,,,,,,,orange,hexagon
673.0,3.0,2.0,0.0,2.0,2.0,401.4731490001395,4.0,1.0,phase_1,,,,,,,,,,,,,white,I
307.0,6.0,1.0,1.0,4.0,4.0,728.7463100001332,4.0,1.0,phase_1,,,,,,,,,,,,,gray,triangle
187.0,5.0,0.5,1.0,3.0,3.0,400.9817039996051,4.0,1.0,phase_1,,,,,,,,,,,,,yellow,cross
1294.0,8.0,4.0,1.0,2.0,2.0,578.5760700000537,4.0,1.0,phase_1,,,,,,,,,,,,,blue,circle
650.0,3.0,2.0,0.0,2.0,2.0,466.1652200002208,4.0,1.0,phase_1,,,,,,,,,,,,,white,I
309.0,6.0,1.0,1.0,1.0,1.0,635.9153270000206,4.0,1.0,phase_1,,,,,,,,,,,,,gray,triangle
0.0,3.0,2.0,0.0,6.0,6.0,590.7391989999269,1.0,1.0,phase_2,go,250.0,250.0,1.0,,,,,,,,,white,I
0.0,4.0,4.0,0.0,6.0,6.0,485.594115999902,1.0,1.0,phase_2,go,250.0,250.0,1.0,,,,,,,,,cyan,flipped triangle
0.0,8.0,4.0,1.0,5.0,0.0,0.0,1.0,1.0,phase_2,stop,250.0,250.0,4.0,,,,,,,,,blue,circle
0.0,4.0,4.0,0.0,5.0,5.0,516.3758769999731,1.0,1.0,phase_2,go,300.0,250.0,1.0,,,,,,,,,cyan,flipped triangle
0.0,2.0,1.0,0.0,6.0,6.0,283.0022180000924,1.0,1.0,phase_2,go,300.0,250.0,1.0,,,,,,,,,orange,hexagon
0.0,2.0,1.0,0.0,5.0,5.0,300.0601720000304,1.0,1.0,phase_2,go,300.0,250.0,1.0,,,,,,,,,orange,hexagon
0.0,8.0,4.0,1.0,5.0,5.0,645.4253910001171,1.0,1.0,phase_2,go,300.0,250.0,1.0,,,,,,,,,blue,circle
0.0,1.0,0.5,0.0,5.0,5.0,386.5939550000803,1.0,1.0,phase_2,go,300.0,250.0,1.0,,,,,,,,,green,square
0.0,4.0,4.0,0.0,6.0,6.0,536.3824940000086,1.0,1.0,phase_2,go,300.0,250.0,1.0,,,,,,,,,cyan,flipped triangle
0.0,7.0,2.0,1.0,5.0,5.0,334.8802100003922,1.0,1.0,phase_2,stop,300.0,250.0,3.0,,,,,,,,,magenta,diamond
0.0,2.0,1.0,0.0,5.0,5.0,451.6082430000097,1.0,1.0,phase_2,go,250.0,250.0,1.0,,,,,,,,,orange,hexagon
0.0,1.0,0.5,0.0,5.0,5.0,376.9763559998864,1.0,1.0,phase_2,go,250.0,250.0,1.0,,,,,,,,,green,square
0.0,6.0,1.0,1.0,6.0,6.0,291.7051159997754,1.0,1.0,phase_2,stop,250.0,250.0,3.0,,,,,,,,,gray,triangle
0.0,5.0,0.5,1.0,5.0,5.0,348.0427419999614,1.0,1.0,phase_2,stop,250.0,200.0,3.0,,,,,,,,,yellow,cross
0.0,7.0,2.0,1.0,6.0,6.0,546.4407459999165,1.0,1.0,phase_2,go,200.0,200.0,1.0,,,,,,,,,magenta,diamond
0.0,8.0,4.0,1.0,5.0,5.0,357.6218469997911,1.0,1.0,phase_2,go,200.0,200.0,1.0,,,,,,,,,blue,circle
0.0,2.0,1.0,0.0,5.0,5.0,516.8587250000201,1.0,1.0,phase_2,go,200.0,200.0,1.0,,,,,,,,,orange,hexagon
0.0,7.0,2.0,1.0,5.0,5.0,356.4890249999735,1.0,1.0,phase_2,stop,200.0,200.0,3.0,,,,,,,,,magenta,diamond
0.0,3.0,2.0,0.0,6.0,6.0,547.117124000124,1.0,1.0,phase_2,go,150.0,200.0,1.0,,,,,,,,,white,I
0.0,4.0,4.0,0.0,5.0,5.0,498.9189530001567,1.0,1.0,phase_2,go,150.0,200.0,1.0,,,,,,,,,cyan,flipped triangle
0.0,8.0,4.0,1.0,6.0,6.0,330.3445450001163,1.0,1.0,phase_2,stop,150.0,200.0,3.0,,,,,,,,,blue,circle
0.0,4.0,4.0,0.0,6.0,6.0,612.118338000073,1.0,1.0,phase_2,go,150.0,150.0,1.0,,,,,,,,,cyan,flipped triangle
0.0,8.0,4.0,1.0,6.0,6.0,354.0732040000875,1.0,1.0,phase_2,stop,150.0,150.0,3.0,,,,,,,,,blue,circle
0.0,6.0,1.0,1.0,6.0,0.0,0.0,1.0,1.0,phase_2,stop,150.0,100.0,4.0,,,,,,,,,gray,triangle
0.0,3.0,2.0,0.0,6.0,6.0,677.0707669998046,1.0,1.0,phase_2,go,150.0,150.0,1.0,,,,,,,,,white,I
0.0,5.0,0.5,1.0,5.0,5.0,676.5291690003323,1.0,1.0,phase_2,stop,150.0,150.0,3.0,,,,,,,,,yellow,cross
0.0,7.0,2.0,1.0,5.0,5.0,727.2986640000454,1.0,1.0,phase_2,stop,100.0,150.0,3.0,,,,,,,,,magenta,diamond
0.0,3.0,2.0,0.0,5.0,5.0,686.4640839999083,1.0,1.0,phase_2,go,50.0,150.0,1.0,,,,,,,,,white,I
0.0,1.0,0.5,0.0,6.0,6.0,479.9759789998461,1.0,1.0,phase_2,go,50.0,150.0,1.0,,,,,,,,,green,square
0.0,1.0,0.5,0.0,6.0,6.0,461.3483560001441,1.0,1.0,phase_2,go,50.0,150.0,1.0,,,,,,,,,green,square
0.0,6.0,1.0,1.0,5.0,5.0,553.394758000195,1.0,1.0,phase_2,stop,50.0,150.0,3.0,,,,,,,,,gray,triangle
0.0,4.0,4.0,0.0,5.0,5.0,639.1884489999029,1.0,1.0,phase_2,go,0.0,150.0,1.0,,,,,,,,,cyan,flipped triangle
0.0,5.0,0.5,1.0,6.0,6.0,456.5493869999955,1.0,1.0,phase_2,go,0.0,150.0,1.0,,,,,,,,,yellow,cross
0.0,5.0,0.5,1.0,5.0,5.0,543.9552939997156,1.0,1.0,phase_2,stop,0.0,150.0,3.0,,,,,,,,,yellow,cross
0.0,4.0,4.0,0.0,6.0,6.0,388.3819699999549,1.0,1.0,phase_2,go,0.0,150.0,1.0,,,,,,,,,cyan,flipped triangle
0.0,4.0,4.0,0.0,5.0,5.0,362.8032030001122,1.0,1.0,phase_2,go,0.0,150.0,1.0,,,,,,,,,cyan,flipped triangle
0.0,2.0,1.0,0.0,6.0,0.0,0.0,2.0,1.0,phase_2,go,0.0,150.0,5.0,,,,,,,,,orange,hexagon
0.0,5.0,0.5,1.0,6.0,6.0,408.8268320001589,2.0,1.0,phase_2,stop,0.0,150.0,3.0,,,,,,,,,yellow,cross
0.0,1.0,0.5,0.0,5.0,5.0,394.9457650001022,2.0,1.0,phase_2,go,0.0,100.0,1.0,,,,,,,,,green,square
0.0,7.0,2.0,1.0,6.0,6.0,553.2301799999004,2.0,1.0,phase_2,stop,0.0,100.0,3.0,,,,,,,,,magenta,diamond
0.0,6.0,1.0,1.0,6.0,6.0,518.3651920001466,2.0,1.0,phase_2,stop,0.0,50.0,3.0,,,,,,,,,gray,triangle
0.0,4.0,4.0,0.0,5.0,5.0,500.30461899996226,2.0,1.0,phase_2,go,0.0,0.0,1.0,,,,,,,,,cyan,flipped triangle
0.0,4.0,4.0,0.0,5.0,5.0,610.5924620001133,2.0,1.0,phase_2,go,0.0,0.0,1.0,,,,,,,,,cyan,flipped triangle
0.0,4.0,4.0,0.0,6.0,6.0,320.689499999844,2.0,1.0,phase_2,go,0.0,0.0,1.0,,,,,,,,,cyan,flipped triangle
0.0,8.0,4.0,1.0,5.0,5.0,435.93326600012,2.0,1.0,phase_2,stop,0.0,0.0,3.0,,,,,,,,,blue,circle
0.0,6.0,1.0,1.0,5.0,5.0,585.4262530001506,2.0,1.0,phase_2,stop,0.0,0.0,3.0,,,,,,,,,gray,triangle
0.0,5.0,0.5,1.0,6.0,6.0,534.7589279999738,2.0,1.0,phase_2,stop,0.0,0.0,3.0,,,,,,,,,yellow,cross
0.0,2.0,1.0,0.0,6.0,6.0,535.760836999998,2.0,1.0,phase_2,go,0.0,0.0,1.0,,,,,,,,,orange,hexagon
0.0,4.0,4.0,0.0,5.0,5.0,472.5134539999089,2.0,1.0,phase_2,go,0.0,0.0,1.0,,,,,,,,,cyan,flipped triangle
0.0,5.0,0.5,1.0,6.0,6.0,451.1494940002194,2.0,1.0,phase_2,stop,0.0,0.0,3.0,,,,,,,,,yellow,cross
0.0,2.0,1.0,0.0,5.0,5.0,574.2735719995835,2.0,1.0,phase_2,go,0.0,0.0,1.0,,,,,,,,,orange,hexagon
0.0,6.0,1.0,1.0,5.0,5.0,507.27064900002006,2.0,1.0,phase_2,stop,0.0,0.0,3.0,,,,,,,,,gray,triangle
0.0,7.0,2.0,1.0,6.0,6.0,450.9959299998627,2.0,1.0,phase_2,go,0.0,0.0,1.0,,,,,,,,,magenta,diamond
0.0,1.0,0.5,0.0,6.0,6.0,422.8737349999392,2.0,1.0,phase_2,go,0.0,0.0,1.0,,,,,,,,,green,square
0.0,4.0,4.0,0.0,6.0,6.0,451.5084310000929,2.0,1.0,phase_2,go,0.0,0.0,1.0,,,,,,,,,cyan,flipped triangle
0.0,6.0,1.0,1.0,6.0,6.0,601.0854799997105,2.0,1.0,phase_2,stop,0.0,0.0,3.0,,,,,,,,,gray,triangle
0.0,2.0,1.0,0.0,5.0,5.0,468.9846439996472,2.0,1.0,phase_2,go,0.0,0.0,1.0,,,,,,,,,orange,hexagon
0.0,4.0,4.0,0.0,6.0,6.0,562.861607999821,2.0,1.0,phase_2,go,0.0,0.0,1.0,,,,,,,,,cyan,flipped triangle
0.0,8.0,4.0,1.0,5.0,5.0,396.9465590002983,2.0,1.0,phase_2,stop,0.0,0.0,3.0,,,,,,,,,blue,circle
0.0,3.0,2.0,0.0,5.0,5.0,497.5145680000423,2.0,1.0,phase_2,go,0.0,0.0,1.0,,,,,,,,,white,I
0.0,3.0,2.0,0.0,6.0,6.0,497.162440000011,2.0,1.0,phase_2,go,0.0,0.0,1.0,,,,,,,,,white,I
0.0,5.0,0.5,1.0,5.0,5.0,568.6748310004077,2.0,1.0,phase_2,stop,0.0,0.0,3.0,,,,,,,,,yellow,cross
0.0,5.0,0.5,1.0,5.0,5.0,621.5301420002106,2.0,1.0,phase_2,stop,0.0,0.0,3.0,,,,,,,,,yellow,cross
0.0,1.0,0.5,0.0,6.0,6.0,479.6289230002912,2.0,1.0,phase_2,go,0.0,0.0,1.0,,,,,,,,,green,square
0.0,7.0,2.0,1.0,6.0,6.0,337.9873529997894,2.0,1.0,phase_2,stop,0.0,0.0,3.0,,,,,,,,,magenta,diamond
0.0,6.0,1.0,1.0,5.0,5.0,340.7137379999767,2.0,1.0,phase_2,stop,0.0,0.0,3.0,,,,,,,,,gray,triangle
0.0,8.0,4.0,1.0,5.0,5.0,487.0799120003539,2.0,1.0,phase_2,go,0.0,0.0,1.0,,,,,,,,,blue,circle
0.0,8.0,4.0,1.0,6.0,6.0,422.0340130000295,2.0,1.0,phase_2,go,0.0,0.0,1.0,,,,,,,,,blue,circle
0.0,6.0,1.0,1.0,6.0,6.0,638.8733259996116,2.0,1.0,phase_2,go,0.0,0.0,1.0,,,,,,,,,gray,triangle
0.0,3.0,2.0,0.0,5.0,5.0,628.4059530003105,2.0,1.0,phase_2,go,0.0,0.0,1.0,,,,,,,,,white,I
0.0,6.0,1.0,1.0,6.0,6.0,526.8926199996713,2.0,1.0,phase_2,go,0.0,0.0,1.0,,,,,,,,,gray,triangle
0.0,8.0,4.0,1.0,5.0,5.0,432.1428190000915,2.0,1.0,phase_2,go,0.0,0.0,1.0,,,,,,,,,blue,circle
0.0,4.0,4.0,0.0,6.0,0.0,0.0,3.0,1.0,phase_2,go,0.0,0.0,5.0,,,,,,,,,cyan,flipped triangle
0.0,3.0,2.0,0.0,6.0,6.0,592.76058200021,3.0,1.0,phase_2,go,0.0,0.0,1.0,,,,,,,,,white,I
0.0,5.0,0.5,1.0,6.0,6.0,424.9645950003469,3.0,1.0,phase_2,stop,0.0,0.0,3.0,,,,,,,,,yellow,cross
0.0,3.0,2.0,0.0,5.0,5.0,367.796564999935,3.0,1.0,phase_2,go,0.0,0.0,1.0,,,,,,,,,white,I
0.0,3.0,2.0,0.0,6.0,6.0,370.1282770002763,3.0,1.0,phase_2,go,0.0,0.0,1.0,,,,,,,,,white,I
0.0,1.0,0.5,0.0,5.0,5.0,340.1308160000553,3.0,1.0,phase_2,go,0.0,0.0,1.0,,,,,,,,,green,square
0.0,7.0,2.0,1.0,5.0,5.0,414.2293360000622,3.0,1.0,phase_2,stop,0.0,0.0,3.0,,,,,,,,,magenta,diamond
0.0,3.0,2.0,0.0,5.0,5.0,443.6471920002987,3.0,1.0,phase_2,go,0.0,0.0,1.0,,,,,,,,,white,I
0.0,8.0,4.0,1.0,6.0,6.0,333.5540600000968,3.0,1.0,phase_2,stop,0.0,0.0,3.0,,,,,,,,,blue,circle
0.0,5.0,0.5,1.0,5.0,5.0,474.1001580000556,3.0,1.0,phase_2,stop,0.0,0.0,3.0,,,,,,,,,yellow,cross
0.0,5.0,0.5,1.0,6.0,6.0,415.0061790001018,3.0,1.0,phase_2,go,0.0,0.0,1.0,,,,,,,,,yellow,cross
0.0,8.0,4.0,1.0,6.0,6.0,375.8290470000247,3.0,1.0,phase_2,go,0.0,0.0,1.0,,,,,,,,,blue,circle
0.0,8.0,4.0,1.0,6.0,6.0,375.8127389996843,3.0,1.0,phase_2,stop,0.0,0.0,3.0,,,,,,,,,blue,circle
0.0,7.0,2.0,1.0,6.0,6.0,517.2287830000641,3.0,1.0,phase_2,stop,0.0,0.0,3.0,,,,,,,,,magenta,diamond
0.0,4.0,4.0,0.0,5.0,5.0,488.6899650000487,3.0,1.0,phase_2,go,0.0,0.0,1.0,,,,,,,,,cyan,flipped triangle
0.0,5.0,0.5,1.0,5.0,5.0,472.0856809999532,3.0,1.0,phase_2,stop,0.0,0.0,3.0,,,,,,,,,yellow,cross
0.0,4.0,4.0,0.0,5.0,5.0,471.6122079998968,3.0,1.0,phase_2,go,0.0,0.0,1.0,,,,,,,,,cyan,flipped triangle
0.0,2.0,1.0,0.0,6.0,6.0,423.7085619997742,3.0,1.0,phase_2,go,0.0,0.0,1.0,,,,,,,,,orange,hexagon
0.0,5.0,0.5,1.0,5.0,5.0,319.3591209997066,3.0,1.0,phase_2,stop,0.0,0.0,3.0,,,,,,,,,yellow,cross
0.0,3.0,2.0,0.0,6.0,6.0,452.4081130002741,3.0,1.0,phase_2,go,0.0,0.0,1.0,,,,,,,,,white,I
0.0,5.0,0.5,1.0,6.0,6.0,423.5581950001688,3.0,1.0,phase_2,go,0.0,0.0,1.0,,,,,,,,,yellow,cross
0.0,2.0,1.0,0.0,5.0,5.0,388.8295500000822,3.0,1.0,phase_2,go,0.0,0.0,1.0,,,,,,,,,orange,hexagon
0.0,7.0,2.0,1.0,5.0,5.0,472.2643509999216,3.0,1.0,phase_2,stop,0.0,0.0,3.0,,,,,,,,,magenta,diamond
0.0,1.0,0.5,0.0,6.0,6.0,442.6076879999527,3.0,1.0,phase_2,go,0.0,0.0,1.0,,,,,,,,,green,square
0.0,5.0,0.5,1.0,6.0,6.0,363.8158630001271,3.0,1.0,phase_2,stop,0.0,0.0,3.0,,,,,,,,,yellow,cross
0.0,5.0,0.5,1.0,5.0,5.0,428.9612259999558,3.0,1.0,phase_2,stop,0.0,0.0,3.0,,,,,,,,,yellow,cross
0.0,1.0,0.5,0.0,5.0,5.0,405.1745399997344,3.0,1.0,phase_2,go,0.0,0.0,1.0,,,,,,,,,green,square
0.0,7.0,2.0,1.0,6.0,6.0,377.7092089999314,3.0,1.0,phase_2,go,0.0,0.0,1.0,,,,,,,,,magenta,diamond
0.0,3.0,2.0,0.0,5.0,5.0,377.5322609999421,3.0,1.0,phase_2,go,0.0,0.0,1.0,,,,,,,,,white,I
0.0,4.0,4.0,0.0,5.0,5.0,377.0421829999577,3.0,1.0,phase_2,go,0.0,0.0,1.0,,,,,,,,,cyan,flipped triangle
0.0,3.0,2.0,0.0,6.0,6.0,575.0140439999996,3.0,1.0,phase_2,go,0.0,0.0,1.0,,,,,,,,,white,I
0.0,4.0,4.0,0.0,6.0,6.0,414.3727410000792,3.0,1.0,phase_2,go,0.0,0.0,1.0,,,,,,,,,cyan,flipped triangle
0.0,3.0,2.0,0.0,6.0,6.0,376.132575000156,3.0,1.0,phase_2,go,0.0,0.0,1.0,,,,,,,,,white,I
0.0,5.0,0.5,1.0,6.0,6.0,283.0635519999305,3.0,1.0,phase_2,go,0.0,0.0,1.0,,,,,,,,,yellow,cross
0.0,6.0,1.0,1.0,6.0,6.0,340.2479820001645,3.0,1.0,phase_2,stop,0.0,0.0,3.0,,,,,,,,,gray,triangle
0.0,6.0,1.0,1.0,6.0,6.0,525.0665799999297,3.0,1.0,phase_2,stop,0.0,0.0,3.0,,,,,,,,,gray,triangle
0.0,5.0,0.5,1.0,5.0,5.0,947.9632970001148,4.0,1.0,phase_2,stop,0.0,0.0,3.0,,,,,,,,,yellow,cross
0.0,6.0,1.0,1.0,6.0,6.0,415.4367020000791,4.0,1.0,phase_2,go,0.0,0.0,1.0,,,,,,,,,gray,triangle
0.0,8.0,4.0,1.0,5.0,5.0,358.7891199999831,4.0,1.0,phase_2,stop,0.0,0.0,3.0,,,,,,,,,blue,circle
0.0,6.0,1.0,1.0,6.0,6.0,320.2973289999136,4.0,1.0,phase_2,stop,0.0,0.0,3.0,,,,,,,,,gray,triangle
0.0,7.0,2.0,1.0,6.0,6.0,466.0500099998899,4.0,1.0,phase_2,stop,0.0,0.0,3.0,,,,,,,,,magenta,diamond
0.0,2.0,1.0,0.0,5.0,5.0,517.7636680000433,4.0,1.0,phase_2,go,0.0,0.0,1.0,,,,,,,,,orange,hexagon
0.0,1.0,0.5,0.0,5.0,5.0,386.4906399999199,4.0,1.0,phase_2,go,0.0,0.0,1.0,,,,,,,,,green,square
0.0,7.0,2.0,1.0,5.0,5.0,365.3335760000118,4.0,1.0,phase_2,stop,0.0,0.0,3.0,,,,,,,,,magenta,diamond
0.0,8.0,4.0,1.0,5.0,5.0,506.1928899999657,4.0,1.0,phase_2,stop,0.0,0.0,3.0,,,,,,,,,blue,circle
0.0,8.0,4.0,1.0,6.0,6.0,309.592228999918,4.0,1.0,phase_2,stop,0.0,0.0,3.0,,,,,,,,,blue,circle
0.0,5.0,0.5,1.0,6.0,6.0,443.7170020000849,4.0,1.0,phase_2,go,0.0,0.0,1.0,,,,,,,,,yellow,cross
0.0,6.0,1.0,1.0,5.0,5.0,293.8135750000583,4.0,1.0,phase_2,go,0.0,0.0,1.0,,,,,,,,,gray,triangle
0.0,6.0,1.0,1.0,5.0,5.0,496.1096740003086,4.0,1.0,phase_2,stop,0.0,0.0,3.0,,,,,,,,,gray,triangle
0.0,7.0,2.0,1.0,5.0,5.0,618.2993160000478,4.0,1.0,phase_2,stop,0.0,0.0,3.0,,,,,,,,,magenta,diamond
0.0,7.0,2.0,1.0,6.0,6.0,311.7711300001247,4.0,1.0,phase_2,stop,0.0,0.0,3.0,,,,,,,,,magenta,diamond
0.0,3.0,2.0,0.0,5.0,5.0,545.2875760001916,4.0,1.0,phase_2,go,0.0,0.0,1.0,,,,,,,,,white,I
0.0,2.0,1.0,0.0,5.0,5.0,424.2866640001921,4.0,1.0,phase_2,go,0.0,0.0,1.0,,,,,,,,,orange,hexagon
0.0,7.0,2.0,1.0,6.0,6.0,385.2901979998933,4.0,1.0,phase_2,go,0.0,0.0,1.0,,,,,,,,,magenta,diamond
0.0,7.0,2.0,1.0,5.0,5.0,350.3956500003369,4.0,1.0,phase_2,stop,0.0,0.0,3.0,,,,,,,,,magenta,diamond
0.0,1.0,0.5,0.0,6.0,6.0,396.4031269997576,4.0,1.0,phase_2,go,0.0,0.0,1.0,,,,,,,,,green,square
0.0,6.0,1.0,1.0,5.0,5.0,282.9802380001638,4.0,1.0,phase_2,stop,0.0,0.0,3.0,,,,,,,,,gray,triangle
0.0,7.0,2.0,1.0,5.0,5.0,440.347236999969,4.0,1.0,phase_2,stop,0.0,0.0,3.0,,,,,,,,,magenta,diamond
0.0,5.0,0.5,1.0,6.0,6.0,340.1714550000179,4.0,1.0,phase_2,go,0.0,0.0,1.0,,,,,,,,,yellow,cross
0.0,4.0,4.0,0.0,6.0,6.0,347.7357950000623,4.0,1.0,phase_2,go,0.0,0.0,1.0,,,,,,,,,cyan,flipped triangle
0.0,8.0,4.0,1.0,5.0,5.0,536.5518469998278,4.0,1.0,phase_2,stop,0.0,0.0,3.0,,,,,,,,,blue,circle
0.0,1.0,0.5,0.0,6.0,6.0,367.3967269996865,4.0,1.0,phase_2,go,0.0,0.0,1.0,,,,,,,,,green,square
0.0,4.0,4.0,0.0,5.0,5.0,395.5647109996789,4.0,1.0,phase_2,go,0.0,0.0,1.0,,,,,,,,,cyan,flipped triangle
0.0,3.0,2.0,0.0,6.0,6.0,320.0638990001607,4.0,1.0,phase_2,go,0.0,0.0,1.0,,,,,,,,,white,I
0.0,2.0,1.0,0.0,6.0,6.0,396.2145420000524,4.0,1.0,phase_2,go,0.0,0.0,1.0,,,,,,,,,orange,hexagon
0.0,1.0,0.5,0.0,5.0,5.0,329.1083649996835,4.0,1.0,phase_2,go,0.0,0.0,1.0,,,,,,,,,green,square
0.0,5.0,0.5,1.0,6.0,6.0,462.9793989997779,4.0,1.0,phase_2,stop,0.0,0.0,3.0,,,,,,,,,yellow,cross
0.0,5.0,0.5,1.0,6.0,6.0,436.4802129998679,4.0,1.0,phase_2,stop,0.0,0.0,3.0,,,,,,,,,yellow,cross
0.0,1.0,0.5,0.0,5.0,5.0,545.700922999913,4.0,1.0,phase_2,go,0.0,0.0,1.0,,,,,,,,,green,square
0.0,6.0,1.0,1.0,6.0,6.0,307.225496999763,4.0,1.0,phase_2,stop,0.0,0.0,3.0,,,,,,,,,gray,triangle
0.0,3.0,2.0,0.0,5.0,5.0,462.3604449998311,4.0,1.0,phase_2,go,0.0,0.0,1.0,,,,,,,,,white,I
0.0,3.0,2.0,0.0,6.0,6.0,312.4675609997212,4.0,1.0,phase_2,go,0.0,0.0,1.0,,,,,,,,,white,I
0.0,3.0,2.0,0.0,5.0,5.0,527.2984240000369,5.0,1.0,phase_2,go,0.0,0.0,1.0,,,,,,,,,white,I
0.0,4.0,4.0,0.0,5.0,5.0,338.4617750002689,5.0,1.0,phase_2,go,0.0,0.0,1.0,,,,,,,,,cyan,flipped triangle
0.0,7.0,2.0,1.0,6.0,6.0,350.2486610000233,5.0,1.0,phase_2,stop,0.0,0.0,3.0,,,,,,,,,magenta,diamond
0.0,2.0,1.0,0.0,6.0,6.0,460.0179890003346,5.0,1.0,phase_2,go,0.0,0.0,1.0,,,,,,,,,orange,hexagon
0.0,1.0,0.5,0.0,5.0,5.0,348.4803179999289,5.0,1.0,phase_2,go,0.0,0.0,1.0,,,,,,,,,green,square
0.0,7.0,2.0,1.0,5.0,5.0,460.0287530001878,5.0,1.0,phase_2,stop,0.0,0.0,3.0,,,,,,,,,magenta,diamond
0.0,2.0,1.0,0.0,5.0,5.0,564.6949950000817,5.0,1.0,phase_2,go,0.0,0.0,1.0,,,,,,,,,orange,hexagon
0.0,2.0,1.0,0.0,6.0,6.0,584.081820999927,5.0,1.0,phase_2,go,0.0,0.0,1.0,,,,,,,,,orange,hexagon
0.0,6.0,1.0,1.0,5.0,5.0,334.3257509995965,5.0,1.0,phase_2,stop,0.0,0.0,3.0,,,,,,,,,gray,triangle
0.0,7.0,2.0,1.0,5.0,5.0,414.314247999755,5.0,1.0,phase_2,go,0.0,0.0,1.0,,,,,,,,,magenta,diamond
0.0,6.0,1.0,1.0,6.0,6.0,487.5853129997267,5.0,1.0,phase_2,stop,0.0,0.0,3.0,,,,,,,,,gray,triangle
0.0,7.0,2.0,1.0,5.0,5.0,337.6571910002894,5.0,1.0,phase_2,go,0.0,0.0,1.0,,,,,,,,,magenta,diamond
0.0,8.0,4.0,1.0,6.0,6.0,279.2223000001286,5.0,1.0,phase_2,stop,0.0,0.0,3.0,,,,,,,,,blue,circle
0.0,2.0,1.0,0.0,5.0,5.0,441.9539520004036,5.0,1.0,phase_2,go,0.0,0.0,1.0,,,,,,,,,orange,hexagon
0.0,8.0,4.0,1.0,6.0,6.0,301.7748499996742,5.0,1.0,phase_2,go,0.0,0.0,1.0,,,,,,,,,blue,circle
0.0,2.0,1.0,0.0,5.0,5.0,376.781770999969,5.0,1.0,phase_2,go,0.0,0.0,1.0,,,,,,,,,orange,hexagon
0.0,2.0,1.0,0.0,5.0,5.0,320.7954129998143,5.0,1.0,phase_2,go,0.0,0.0,1.0,,,,,,,,,orange,hexagon
0.0,6.0,1.0,1.0,5.0,5.0,332.6905330000045,5.0,1.0,phase_2,stop,0.0,0.0,3.0,,,,,,,,,gray,triangle
0.0,2.0,1.0,0.0,6.0,6.0,395.4328900003929,5.0,1.0,phase_2,go,0.0,0.0,1.0,,,,,,,,,orange,hexagon
0.0,6.0,1.0,1.0,6.0,6.0,338.9116240000476,5.0,1.0,phase_2,go,0.0,0.0,1.0,,,,,,,,,gray,triangle
0.0,7.0,2.0,1.0,6.0,6.0,298.6132299997734,5.0,1.0,phase_2,stop,0.0,0.0,3.0,,,,,,,,,magenta,diamond
0.0,5.0,0.5,1.0,6.0,6.0,330.7349439996869,5.0,1.0,phase_2,stop,0.0,0.0,3.0,,,,,,,,,yellow,cross
0.0,5.0,0.5,1.0,5.0,5.0,416.1944349998521,5.0,1.0,phase_2,stop,0.0,0.0,3.0,,,,,,,,,yellow,cross
0.0,2.0,1.0,0.0,5.0,5.0,385.5326470002183,5.0,1.0,phase_2,go,0.0,0.0,1.0,,,,,,,,,orange,hexagon
0.0,3.0,2.0,0.0,5.0,5.0,413.4982340001443,5.0,1.0,phase_2,go,0.0,0.0,1.0,,,,,,,,,white,I
0.0,5.0,0.5,1.0,5.0,5.0,334.5924099999138,5.0,1.0,phase_2,stop,0.0,0.0,3.0,,,,,,,,,yellow,cross
0.0,4.0,4.0,0.0,5.0,5.0,386.5319120000094,5.0,1.0,phase_2,go,0.0,0.0,1.0,,,,,,,,,cyan,flipped triangle
0.0,2.0,1.0,0.0,6.0,6.0,310.2469710001969,5.0,1.0,phase_2,go,0.0,0.0,1.0,,,,,,,,,orange,hexagon
0.0,3.0,2.0,0.0,6.0,6.0,365.8392480001566,5.0,1.0,phase_2,go,0.0,0.0,1.0,,,,,,,,,white,I
0.0,5.0,0.5,1.0,6.0,6.0,331.453940999836,5.0,1.0,phase_2,stop,0.0,0.0,3.0,,,,,,,,,yellow,cross
0.0,6.0,1.0,1.0,5.0,5.0,329.2661590003263,5.0,1.0,phase_2,go,0.0,0.0,1.0,,,,,,,,,gray,triangle
0.0,1.0,0.5,0.0,5.0,5.0,338.8292720001118,5.0,1.0,phase_2,go,0.0,0.0,1.0,,,,,,,,,green,square
0.0,4.0,4.0,0.0,6.0,6.0,385.4035589997693,5.0,1.0,phase_2,go,0.0,0.0,1.0,,,,,,,,,cyan,flipped triangle
0.0,2.0,1.0,0.0,6.0,6.0,443.0398789995706,5.0,1.0,phase_2,go,0.0,0.0,1.0,,,,,,,,,orange,hexagon
0.0,6.0,1.0,1.0,6.0,6.0,443.2297390003441,5.0,1.0,phase_2,stop,0.0,0.0,3.0,,,,,,,,,gray,triangle
0.0,8.0,4.0,1.0,5.0,5.0,282.040116999724,5.0,1.0,phase_2,stop,0.0,0.0,3.0,,,,,,,,,blue,circle
0.0,2.0,1.0,0.0,5.0,5.0,583.0002489997241,6.0,1.0,phase_2,go,0.0,0.0,1.0,,,,,,,,,orange,hexagon
0.0,6.0,1.0,1.0,6.0,6.0,395.5275079997591,6.0,1.0,phase_2,stop,0.0,0.0,3.0,,,,,,,,,gray,triangle
0.0,1.0,0.5,0.0,5.0,5.0,348.9343989999725,6.0,1.0,phase_2,go,0.0,0.0,1.0,,,,,,,,,green,square
0.0,6.0,1.0,1.0,5.0,6.0,267.51462999982317,6.0,1.0,phase_2,stop,0.0,0.0,3.0,,,,,,,,,gray,triangle
0.0,3.0,2.0,0.0,5.0,5.0,424.0021299997352,6.0,1.0,phase_2,go,0.0,0.0,1.0,,,,,,,,,white,I
0.0,3.0,2.0,0.0,5.0,5.0,452.3471070001506,6.0,1.0,phase_2,go,0.0,0.0,1.0,,,,,,,,,white,I
0.0,2.0,1.0,0.0,6.0,6.0,377.6146790000894,6.0,1.0,phase_2,go,0.0,0.0,1.0,,,,,,,,,orange,hexagon
0.0,6.0,1.0,1.0,5.0,5.0,392.7831390001302,6.0,1.0,phase_2,stop,0.0,0.0,3.0,,,,,,,,,gray,triangle
0.0,1.0,0.5,0.0,6.0,6.0,339.6748989998741,6.0,1.0,phase_2,go,0.0,0.0,1.0,,,,,,,,,green,square
0.0,1.0,0.5,0.0,6.0,6.0,404.6777319999819,6.0,1.0,phase_2,go,0.0,0.0,1.0,,,,,,,,,green,square
0.0,2.0,1.0,0.0,6.0,6.0,426.1385750000954,6.0,1.0,phase_2,go,0.0,0.0,1.0,,,,,,,,,orange,hexagon
0.0,6.0,1.0,1.0,5.0,5.0,362.7722589999393,6.0,1.0,phase_2,stop,0.0,0.0,3.0,,,,,,,,,gray,triangle
0.0,1.0,0.5,0.0,6.0,6.0,384.6526520001134,6.0,1.0,phase_2,go,0.0,0.0,1.0,,,,,,,,,green,square
0.0,3.0,2.0,0.0,5.0,5.0,518.3516859997326,6.0,1.0,phase_2,go,0.0,0.0,1.0,,,,,,,,,white,I
0.0,5.0,0.5,1.0,6.0,6.0,309.3457159998252,6.0,1.0,phase_2,stop,0.0,0.0,3.0,,,,,,,,,yellow,cross
0.0,1.0,0.5,0.0,6.0,6.0,471.4208999998845,6.0,1.0,phase_2,go,0.0,0.0,1.0,,,,,,,,,green,square
0.0,5.0,0.5,1.0,5.0,5.0,877.7770199999395,6.0,1.0,phase_2,stop,0.0,0.0,3.0,,,,,,,,,yellow,cross
0.0,4.0,4.0,0.0,6.0,6.0,424.1717559998506,6.0,1.0,phase_2,go,0.0,0.0,1.0,,,,,,,,,cyan,flipped triangle
0.0,5.0,0.5,1.0,5.0,5.0,348.0927020000308,6.0,1.0,phase_2,go,0.0,0.0,1.0,,,,,,,,,yellow,cross
0.0,5.0,0.5,1.0,6.0,6.0,354.4782939998185,6.0,1.0,phase_2,stop,0.0,0.0,3.0,,,,,,,,,yellow,cross
0.0,4.0,4.0,0.0,6.0,6.0,442.4101209997388,6.0,1.0,phase_2,go,0.0,0.0,1.0,,,,,,,,,cyan,flipped triangle
0.0,3.0,2.0,0.0,6.0,6.0,414.369693000026,6.0,1.0,phase_2,go,0.0,0.0,1.0,,,,,,,,,white,I
0.0,4.0,4.0,0.0,6.0,6.0,358.8775079997504,6.0,1.0,phase_2,go,0.0,0.0,1.0,,,,,,,,,cyan,flipped triangle
0.0,8.0,4.0,1.0,6.0,6.0,610.5963250001878,6.0,1.0,phase_2,stop,0.0,0.0,3.0,,,,,,,,,blue,circle
0.0,6.0,1.0,1.0,5.0,5.0,399.142854999809,6.0,1.0,phase_2,stop,0.0,0.0,3.0,,,,,,,,,gray,triangle
0.0,8.0,4.0,1.0,6.0,6.0,389.60310199991,6.0,1.0,phase_2,stop,0.0,0.0,3.0,,,,,,,,,blue,circle
0.0,1.0,0.5,0.0,6.0,6.0,471.0032920002049,6.0,1.0,phase_2,go,0.0,0.0,1.0,,,,,,,,,green,square
0.0,6.0,1.0,1.0,6.0,6.0,478.3322599996609,6.0,1.0,phase_2,stop,0.0,0.0,3.0,,,,,,,,,gray,triangle
0.0,8.0,4.0,1.0,6.0,6.0,579.9786129996392,6.0,1.0,phase_2,stop,0.0,0.0,3.0,,,,,,,,,blue,circle
0.0,6.0,1.0,1.0,5.0,5.0,406.1072750000676,6.0,1.0,phase_2,go,0.0,0.0,1.0,,,,,,,,,gray,triangle
0.0,1.0,0.5,0.0,5.0,5.0,442.5358379999125,6.0,1.0,phase_2,go,0.0,0.0,1.0,,,,,,,,,green,square
0.0,5.0,0.5,1.0,5.0,5.0,528.2269439999254,6.0,1.0,phase_2,stop,0.0,0.0,3.0,,,,,,,,,yellow,cross
0.0,1.0,0.5,0.0,6.0,6.0,452.5723679998918,6.0,1.0,phase_2,go,0.0,0.0,1.0,,,,,,,,,green,square
0.0,7.0,2.0,1.0,5.0,5.0,399.2562779999389,6.0,1.0,phase_2,stop,0.0,0.0,3.0,,,,,,,,,magenta,diamond
0.0,1.0,0.5,0.0,6.0,6.0,641.5780239999549,6.0,1.0,phase_2,go,0.0,0.0,1.0,,,,,,,,,green,square
0.0,7.0,2.0,1.0,6.0,6.0,377.3103580001589,6.0,1.0,phase_2,go,0.0,0.0,1.0,,,,,,,,,magenta,diamond
0.0,8.0,4.0,1.0,5.0,5.0,696.7272219999359,7.0,1.0,phase_2,go,0.0,0.0,1.0,,,,,,,,,blue,circle
0.0,4.0,4.0,0.0,5.0,5.0,432.9459900000074,7.0,1.0,phase_2,go,0.0,0.0,1.0,,,,,,,,,cyan,flipped triangle
0.0,3.0,2.0,0.0,6.0,6.0,337.4362250001468,7.0,1.0,phase_2,go,0.0,0.0,1.0,,,,,,,,,white,I
0.0,8.0,4.0,1.0,6.0,6.0,685.2015479998954,7.0,1.0,phase_2,stop,0.0,0.0,3.0,,,,,,,,,blue,circle
0.0,7.0,2.0,1.0,5.0,5.0,433.3388389995889,7.0,1.0,phase_2,stop,0.0,0.0,3.0,,,,,,,,,magenta,diamond
0.0,7.0,2.0,1.0,6.0,6.0,436.4975389999017,7.0,1.0,phase_2,stop,0.0,0.0,3.0,,,,,,,,,magenta,diamond
0.0,1.0,0.5,0.0,5.0,5.0,385.5464799999026,7.0,1.0,phase_2,go,0.0,0.0,1.0,,,,,,,,,green,square
0.0,8.0,4.0,1.0,5.0,5.0,425.7466950002708,7.0,1.0,phase_2,stop,0.0,0.0,3.0,,,,,,,,,blue,circle
0.0,8.0,4.0,1.0,6.0,6.0,339.3848549999347,7.0,1.0,phase_2,go,0.0,0.0,1.0,,,,,,,,,blue,circle
0.0,8.0,4.0,1.0,5.0,5.0,315.2602739996837,7.0,1.0,phase_2,stop,0.0,0.0,3.0,,,,,,,,,blue,circle
0.0,3.0,2.0,0.0,5.0,5.0,433.8935820001097,7.0,1.0,phase_2,go,0.0,0.0,1.0,,,,,,,,,white,I
0.0,6.0,1.0,1.0,5.0,5.0,385.9253939999689,7.0,1.0,phase_2,stop,0.0,0.0,3.0,,,,,,,,,gray,triangle
0.0,6.0,1.0,1.0,5.0,5.0,405.4368480001358,7.0,1.0,phase_2,go,0.0,0.0,1.0,,,,,,,,,gray,triangle
0.0,3.0,2.0,0.0,6.0,6.0,375.3986739998254,7.0,1.0,phase_2,go,0.0,0.0,1.0,,,,,,,,,white,I
0.0,3.0,2.0,0.0,6.0,6.0,357.7750009999363,7.0,1.0,phase_2,go,0.0,0.0,1.0,,,,,,,,,white,I
0.0,5.0,0.5,1.0,6.0,6.0,423.4138930000881,7.0,1.0,phase_2,go,0.0,0.0,1.0,,,,,,,,,yellow,cross
0.0,4.0,4.0,0.0,5.0,5.0,376.604479999969,7.0,1.0,phase_2,go,0.0,0.0,1.0,,,,,,,,,cyan,flipped triangle
0.0,8.0,4.0,1.0,6.0,6.0,532.9740349998247,7.0,1.0,phase_2,stop,0.0,0.0,3.0,,,,,,,,,blue,circle
0.0,1.0,0.5,0.0,5.0,5.0,386.5788789998987,7.0,1.0,phase_2,go,0.0,0.0,1.0,,,,,,,,,green,square
0.0,6.0,1.0,1.0,5.0,5.0,432.1489050003038,7.0,1.0,phase_2,go,0.0,0.0,1.0,,,,,,,,,gray,triangle
0.0,8.0,4.0,1.0,5.0,5.0,385.2055439997457,7.0,1.0,phase_2,stop,0.0,0.0,3.0,,,,,,,,,blue,circle
0.0,7.0,2.0,1.0,6.0,6.0,327.3309199998948,7.0,1.0,phase_2,stop,0.0,0.0,3.0,,,,,,,,,magenta,diamond
0.0,2.0,1.0,0.0,6.0,6.0,411.6379150000284,7.0,1.0,phase_2,go,0.0,0.0,1.0,,,,,,,,,orange,hexagon
0.0,8.0,4.0,1.0,5.0,5.0,327.8275799998482,7.0,1.0,phase_2,stop,0.0,0.0,3.0,,,,,,,,,blue,circle
0.0,1.0,0.5,0.0,5.0,5.0,432.8104720002557,7.0,1.0,phase_2,go,0.0,0.0,1.0,,,,,,,,,green,square
0.0,2.0,1.0,0.0,5.0,5.0,433.309730000019,7.0,1.0,phase_2,go,0.0,0.0,1.0,,,,,,,,,orange,hexagon
0.0,2.0,1.0,0.0,6.0,6.0,423.9155629998095,7.0,1.0,phase_2,go,0.0,0.0,1.0,,,,,,,,,orange,hexagon
0.0,2.0,1.0,0.0,6.0,6.0,396.0253599998395,7.0,1.0,phase_2,go,0.0,0.0,1.0,,,,,,,,,orange,hexagon
0.0,7.0,2.0,1.0,6.0,6.0,516.8976159998238,7.0,1.0,phase_2,go,0.0,0.0,1.0,,,,,,,,,magenta,diamond
0.0,3.0,2.0,0.0,6.0,6.0,406.6378249999616,7.0,1.0,phase_2,go,0.0,0.0,1.0,,,,,,,,,white,I
0.0,4.0,4.0,0.0,5.0,5.0,330.9260099999846,7.0,1.0,phase_2,go,0.0,0.0,1.0,,,,,,,,,cyan,flipped triangle
0.0,8.0,4.0,1.0,6.0,6.0,367.0325729999604,7.0,1.0,phase_2,stop,0.0,0.0,3.0,,,,,,,,,blue,circle
0.0,5.0,0.5,1.0,5.0,5.0,619.8062180001216,7.0,1.0,phase_2,stop,0.0,0.0,3.0,,,,,,,,,yellow,cross
0.0,6.0,1.0,1.0,6.0,6.0,421.9347109997216,7.0,1.0,phase_2,stop,0.0,0.0,3.0,,,,,,,,,gray,triangle
0.0,1.0,0.5,0.0,6.0,6.0,470.5379070001072,7.0,1.0,phase_2,go,0.0,0.0,1.0,,,,,,,,,green,square
0.0,2.0,1.0,0.0,5.0,5.0,356.3924060003955,7.0,1.0,phase_2,go,0.0,0.0,1.0,,,,,,,,,orange,hexagon
0.0,1.0,0.5,0.0,6.0,6.0,461.1117280001053,8.0,1.0,phase_2,go,0.0,0.0,1.0,,,,,,,,,green,square
0.0,3.0,2.0,0.0,6.0,6.0,442.6560550000431,8.0,1.0,phase_2,go,0.0,0.0,1.0,,,,,,,,,white,I
0.0,3.0,2.0,0.0,5.0,5.0,346.8283580000388,8.0,1.0,phase_2,go,0.0,0.0,1.0,,,,,,,,,white,I
0.0,8.0,4.0,1.0,5.0,5.0,450.4398900003252,8.0,1.0,phase_2,stop,0.0,0.0,3.0,,,,,,,,,blue,circle
0.0,7.0,2.0,1.0,5.0,5.0,386.5174259999548,8.0,1.0,phase_2,stop,0.0,0.0,3.0,,,,,,,,,magenta,diamond
0.0,1.0,0.5,0.0,5.0,5.0,376.5179000001808,8.0,1.0,phase_2,go,0.0,0.0,1.0,,,,,,,,,green,square
0.0,8.0,4.0,1.0,6.0,6.0,287.6596149999386,8.0,1.0,phase_2,stop,0.0,0.0,3.0,,,,,,,,,blue,circle
0.0,8.0,4.0,1.0,6.0,6.0,427.918526999747,8.0,1.0,phase_2,stop,0.0,0.0,3.0,,,,,,,,,blue,circle
0.0,2.0,1.0,0.0,6.0,6.0,385.3380249997826,8.0,1.0,phase_2,go,0.0,0.0,1.0,,,,,,,,,orange,hexagon
0.0,7.0,2.0,1.0,5.0,5.0,309.6448809997127,8.0,1.0,phase_2,stop,0.0,0.0,3.0,,,,,,,,,magenta,diamond
0.0,1.0,0.5,0.0,5.0,5.0,403.6921800002346,8.0,1.0,phase_2,go,0.0,0.0,1.0,,,,,,,,,green,square
0.0,1.0,0.5,0.0,6.0,6.0,404.3681970001671,8.0,1.0,phase_2,go,0.0,0.0,1.0,,,,,,,,,green,square
0.0,3.0,2.0,0.0,5.0,5.0,349.870909999936,8.0,1.0,phase_2,go,0.0,0.0,1.0,,,,,,,,,white,I
0.0,1.0,0.5,0.0,6.0,6.0,325.3364629999851,8.0,1.0,phase_2,go,0.0,0.0,1.0,,,,,,,,,green,square
0.0,7.0,2.0,1.0,6.0,6.0,344.7773830002916,8.0,1.0,phase_2,stop,0.0,0.0,3.0,,,,,,,,,magenta,diamond
0.0,2.0,1.0,0.0,6.0,6.0,480.8820849998483,8.0,1.0,phase_2,go,0.0,0.0,1.0,,,,,,,,,orange,hexagon
0.0,7.0,2.0,1.0,5.0,5.0,347.3621839998486,8.0,1.0,phase_2,stop,0.0,0.0,3.0,,,,,,,,,magenta,diamond
0.0,4.0,4.0,0.0,6.0,6.0,453.5797660000753,8.0,1.0,phase_2,go,0.0,0.0,1.0,,,,,,,,,cyan,flipped triangle
0.0,4.0,4.0,0.0,5.0,5.0,406.5394910003306,8.0,1.0,phase_2,go,0.0,0.0,1.0,,,,,,,,,cyan,flipped triangle
0.0,5.0,0.5,1.0,5.0,5.0,481.747534999613,8.0,1.0,phase_2,stop,0.0,0.0,3.0,,,,,,,,,yellow,cross
0.0,7.0,2.0,1.0,6.0,6.0,328.2258260001072,8.0,1.0,phase_2,go,0.0,0.0,1.0,,,,,,,,,magenta,diamond
0.0,4.0,4.0,0.0,5.0,5.0,376.2387560000206,8.0,1.0,phase_2,go,0.0,0.0,1.0,,,,,,,,,cyan,flipped triangle
0.0,4.0,4.0,0.0,6.0,6.0,329.2621370001143,8.0,1.0,phase_2,go,0.0,0.0,1.0,,,,,,,,,cyan,flipped triangle
0.0,4.0,4.0,0.0,6.0,6.0,348.5117349996471,8.0,1.0,phase_2,go,0.0,0.0,1.0,,,,,,,,,cyan,flipped triangle
0.0,2.0,1.0,0.0,5.0,5.0,349.0395439998792,8.0,1.0,phase_2,go,0.0,0.0,1.0,,,,,,,,,orange,hexagon
0.0,7.0,2.0,1.0,6.0,6.0,423.9129340003273,8.0,1.0,phase_2,stop,0.0,0.0,3.0,,,,,,,,,magenta,diamond
0.0,8.0,4.0,1.0,5.0,5.0,395.913482999731,8.0,1.0,phase_2,stop,0.0,0.0,3.0,,,,,,,,,blue,circle
0.0,1.0,0.5,0.0,5.0,5.0,404.2707479998171,8.0,1.0,phase_2,go,0.0,0.0,1.0,,,,,,,,,green,square
0.0,7.0,2.0,1.0,5.0,5.0,417.2109159999309,8.0,1.0,phase_2,stop,0.0,0.0,3.0,,,,,,,,,magenta,diamond
0.0,3.0,2.0,0.0,5.0,5.0,394.9251979997825,8.0,1.0,phase_2,go,0.0,0.0,1.0,,,,,,,,,white,I
0.0,4.0,4.0,0.0,6.0,6.0,404.7268180001993,8.0,1.0,phase_2,go,0.0,0.0,1.0,,,,,,,,,cyan,flipped triangle
0.0,2.0,1.0,0.0,6.0,6.0,368.8224050001736,8.0,1.0,phase_2,go,0.0,0.0,1.0,,,,,,,,,orange,hexagon
0.0,6.0,1.0,1.0,6.0,6.0,436.0715359998721,8.0,1.0,phase_2,stop,0.0,0.0,3.0,,,,,,,,,gray,triangle
0.0,5.0,0.5,1.0,5.0,5.0,405.0463799999306,8.0,1.0,phase_2,go,0.0,0.0,1.0,,,,,,,,,yellow,cross
0.0,3.0,2.0,0.0,5.0,5.0,467.7529860000504,8.0,1.0,phase_2,go,0.0,0.0,1.0,,,,,,,,,white,I
0.0,2.0,1.0,0.0,5.0,5.0,695.5974429997696,8.0,1.0,phase_2,go,0.0,0.0,1.0,,,,,,,,,orange,hexagon
0.0,2.0,1.0,0.0,7.0,3.0,346.0541160002321,1.0,1.0,phase_3,,,,,348.0,3.0,580.0,232.0,348.0,116.0,696.0,464.0,orange,hexagon
0.0,1.0,0.5,0.0,7.0,2.0,0.38564999977090003,1.0,1.0,phase_3,,,,,154.0,1.0,616.0,154.0,770.0,924.0,308.0,462.0,green,square
0.0,2.0,1.0,0.0,7.0,5.0,0.3170850004607,1.0,1.0,phase_3,,,,,770.0,5.0,924.0,616.0,154.0,462.0,770.0,308.0,orange,hexagon
0.0,4.0,4.0,0.0,7.0,2.0,0.4314380003052,1.0,1.0,phase_3,,,,,135.0,1.0,675.0,135.0,810.0,540.0,270.0,405.0,cyan,flipped triangle
0.0,1.0,0.5,0.0,7.0,6.0,2313.287085000411,1.0,1.0,phase_3,,,,,464.0,4.0,116.0,580.0,696.0,232.0,348.0,464.0,green,square
0.0,7.0,2.0,1.0,7.0,3.0,1691.3181709996934,1.0,2.0,phase_3,,,,,464.0,4.0,116.0,348.0,464.0,232.0,580.0,696.0,magenta,diamond
0.0,3.0,2.0,0.0,7.0,5.0,1652.3094559997844,1.0,1.0,phase_3,,,,,270.0,2.0,675.0,540.0,135.0,810.0,270.0,405.0,white,I
0.0,6.0,1.0,1.0,7.0,2.0,301.3188709992391,1.0,1.0,phase_3,,,,,192.0,1.0,1152.0,192.0,960.0,384.0,576.0,768.0,gray,triangle
0.0,8.0,4.0,1.0,7.0,6.0,1157.6825370002553,1.0,1.0,phase_3,,,,,616.0,4.0,308.0,924.0,770.0,154.0,462.0,616.0,blue,circle
0.0,6.0,1.0,1.0,7.0,4.0,1375.4908319997412,1.0,1.0,phase_3,,,,,865.0,5.0,346.0,692.0,519.0,865.0,173.0,1038.0,gray,triangle
0.0,4.0,4.0,0.0,7.0,3.0,1512.5518579998245,1.0,1.0,phase_3,,,,,960.0,5.0,768.0,1152.0,960.0,384.0,192.0,576.0,cyan,flipped triangle
0.0,5.0,0.5,1.0,7.0,1.0,1131.4811530000952,1.0,1.0,phase_3,,,,,576.0,3.0,576.0,192.0,960.0,1152.0,384.0,768.0,yellow,cross
0.0,1.0,0.5,0.0,7.0,5.0,579.6692320000147,1.0,1.0,phase_3,,,,,135.0,1.0,675.0,270.0,810.0,540.0,135.0,405.0,green,square
0.0,2.0,1.0,0.0,7.0,6.0,1558.9225519997854,1.0,1.0,phase_3,,,,,540.0,4.0,135.0,270.0,675.0,405.0,810.0,540.0,orange,hexagon
0.0,1.0,0.5,0.0,7.0,3.0,2450.4854460001297,1.0,1.0,phase_3,,,,,1038.0,6.0,346.0,865.0,1038.0,173.0,519.0,692.0,green,square
0.0,6.0,1.0,1.0,7.0,4.0,1350.7103330002792,1.0,1.0,phase_3,,,,,346.0,2.0,692.0,865.0,1038.0,346.0,173.0,519.0,gray,triangle
0.0,2.0,1.0,0.0,7.0,1.0,2553.607843000464,1.0,1.0,phase_3,,,,,232.0,2.0,232.0,348.0,580.0,116.0,464.0,696.0,orange,hexagon
0.0,8.0,4.0,1.0,7.0,5.0,1299.7195250000004,1.0,1.0,phase_3,,,,,464.0,4.0,580.0,696.0,116.0,348.0,464.0,232.0,blue,circle
0.0,4.0,4.0,0.0,7.0,2.0,1577.417112999683,1.0,1.0,phase_3,,,,,270.0,2.0,810.0,270.0,135.0,675.0,540.0,405.0,cyan,flipped triangle
0.0,5.0,0.5,1.0,7.0,6.0,1256.7303140003787,1.0,1.0,phase_3,,,,,696.0,6.0,348.0,232.0,116.0,580.0,464.0,696.0,yellow,cross
0.0,6.0,1.0,1.0,7.0,2.0,1354.5059829993988,2.0,1.0,phase_3,,,,,348.0,3.0,232.0,348.0,696.0,580.0,116.0,464.0,gray,triangle
0.0,3.0,2.0,0.0,7.0,5.0,1009.0401469997232,2.0,1.0,phase_3,,,,,960.0,5.0,1152.0,576.0,192.0,384.0,960.0,768.0,white,I
0.0,5.0,0.5,1.0,7.0,4.0,1232.4237149996409,2.0,1.0,phase_3,,,,,519.0,3.0,865.0,173.0,692.0,519.0,346.0,1038.0,yellow,cross
0.0,1.0,0.5,0.0,7.0,3.0,1356.647941000119,2.0,1.0,phase_3,,,,,405.0,3.0,810.0,270.0,405.0,540.0,675.0,135.0,green,square
0.0,4.0,4.0,0.0,7.0,1.0,1966.443997999704,2.0,1.0,phase_3,,,,,924.0,6.0,924.0,462.0,770.0,616.0,308.0,154.0,cyan,flipped triangle
0.0,2.0,1.0,0.0,7.0,6.0,1435.8596499996563,2.0,1.0,phase_3,,,,,173.0,1.0,346.0,1038.0,865.0,692.0,519.0,173.0,orange,hexagon
0.0,8.0,4.0,1.0,7.0,3.0,1661.4298120002786,2.0,1.0,phase_3,,,,,462.0,3.0,924.0,616.0,462.0,154.0,308.0,770.0,blue,circle
0.0,2.0,1.0,0.0,7.0,2.0,1347.001875999922,2.0,1.0,phase_3,,,,,308.0,2.0,462.0,308.0,770.0,616.0,924.0,154.0,orange,hexagon
0.0,1.0,0.5,0.0,7.0,5.0,1103.0266019997723,2.0,1.0,phase_3,,,,,768.0,4.0,192.0,960.0,576.0,1152.0,768.0,384.0,green,square
0.0,7.0,2.0,1.0,7.0,4.0,1903.9842269994551,2.0,1.0,phase_3,,,,,1152.0,6.0,192.0,960.0,384.0,1152.0,576.0,768.0,magenta,diamond
0.0,6.0,1.0,1.0,7.0,1.0,1543.479073000526,2.0,1.0,phase_3,,,,,462.0,3.0,462.0,154.0,308.0,770.0,616.0,924.0,gray,triangle
0.0,5.0,0.5,1.0,7.0,5.0,2165.834557999915,2.0,1.0,phase_3,,,,,348.0,3.0,116.0,696.0,232.0,580.0,348.0,464.0,yellow,cross
0.0,3.0,2.0,0.0,7.0,6.0,1393.4589139998934,2.0,1.0,phase_3,,,,,580.0,5.0,696.0,116.0,232.0,348.0,464.0,580.0,white,I
0.0,5.0,0.5,1.0,7.0,1.0,1828.0213790003472,2.0,1.0,phase_3,,,,,692.0,4.0,692.0,519.0,346.0,1038.0,173.0,865.0,yellow,cross
0.0,7.0,2.0,1.0,7.0,2.0,1701.2710960007098,2.0,1.0,phase_3,,,,,770.0,5.0,154.0,770.0,616.0,462.0,924.0,308.0,magenta,diamond
0.0,5.0,0.5,1.0,7.0,5.0,2040.4239729996334,2.0,1.0,phase_3,,,,,384.0,2.0,960.0,1152.0,192.0,576.0,384.0,768.0,yellow,cross
0.0,8.0,4.0,1.0,7.0,6.0,1158.607774000302,2.0,1.0,phase_3,,,,,576.0,3.0,768.0,384.0,192.0,1152.0,960.0,576.0,blue,circle
0.0,4.0,4.0,0.0,7.0,2.0,2033.6086150000483,2.0,1.0,phase_3,,,,,576.0,3.0,960.0,576.0,768.0,384.0,192.0,1152.0,cyan,flipped triangle
0.0,5.0,0.5,1.0,7.0,1.0,1869.09983500027,2.0,1.0,phase_3,,,,,135.0,1.0,135.0,540.0,810.0,405.0,675.0,270.0,yellow,cross
0.0,3.0,2.0,0.0,7.0,6.0,2279.1440709997914,2.0,1.0,phase_3,,,,,580.0,5.0,232.0,696.0,464.0,116.0,348.0,580.0,white,I
0.0,7.0,2.0,1.0,7.0,1.0,1643.2055629993556,3.0,1.0,phase_3,,,,,154.0,1.0,154.0,770.0,924.0,462.0,308.0,616.0,magenta,diamond
0.0,6.0,1.0,1.0,7.0,5.0,1879.49821500024,3.0,1.0,phase_3,,,,,768.0,4.0,960.0,384.0,576.0,192.0,768.0,1152.0,gray,triangle
0.0,8.0,4.0,1.0,7.0,4.0,1158.4838710004988,3.0,1.0,phase_3,,,,,519.0,3.0,346.0,173.0,865.0,519.0,1038.0,692.0,blue,circle
0.0,7.0,2.0,1.0,7.0,3.0,1298.7870950000795,3.0,1.0,phase_3,,,,,810.0,6.0,540.0,675.0,810.0,270.0,135.0,405.0,magenta,diamond
0.0,6.0,1.0,1.0,7.0,1.0,1468.1030290003036,3.0,1.0,phase_3,,,,,464.0,4.0,464.0,232.0,696.0,116.0,348.0,580.0,gray,triangle
0.0,7.0,2.0,1.0,7.0,6.0,2113.2292990005226,3.0,1.0,phase_3,,,,,1038.0,6.0,346.0,865.0,692.0,519.0,173.0,1038.0,magenta,diamond
0.0,2.0,1.0,0.0,7.0,5.0,1618.2500099994286,3.0,1.0,phase_3,,,,,576.0,3.0,384.0,192.0,768.0,1152.0,576.0,960.0,orange,hexagon
0.0,3.0,2.0,0.0,7.0,2.0,1930.4771340002844,3.0,1.0,phase_3,,,,,865.0,5.0,692.0,865.0,346.0,519.0,173.0,1038.0,white,I
0.0,3.0,2.0,0.0,7.0,1.0,1505.150983999556,3.0,1.0,phase_3,,,,,770.0,5.0,770.0,924.0,462.0,616.0,154.0,308.0,white,I
0.0,8.0,4.0,1.0,7.0,6.0,1645.2585819997694,3.0,1.0,phase_3,,,,,960.0,5.0,576.0,768.0,192.0,384.0,1152.0,960.0,blue,circle
0.0,7.0,2.0,1.0,7.0,4.0,1297.989685000175,3.0,1.0,phase_3,,,,,576.0,3.0,768.0,960.0,192.0,576.0,384.0,1152.0,magenta,diamond
0.0,3.0,2.0,0.0,7.0,2.0,2223.2571859995005,3.0,1.0,phase_3,,,,,405.0,3.0,675.0,405.0,810.0,540.0,270.0,135.0,white,I
0.0,4.0,4.0,0.0,7.0,1.0,1353.1830579995583,3.0,1.0,phase_3,,,,,865.0,5.0,865.0,346.0,173.0,692.0,519.0,1038.0,cyan,flipped triangle
0.0,7.0,2.0,1.0,7.0,5.0,1777.3730530007017,3.0,1.0,phase_3,,,,,405.0,3.0,135.0,810.0,270.0,540.0,405.0,675.0,magenta,diamond
0.0,3.0,2.0,0.0,7.0,3.0,1532.5075490000015,3.0,1.0,phase_3,,,,,768.0,4.0,576.0,192.0,768.0,1152.0,960.0,384.0,white,I
0.0,1.0,0.5,0.0,7.0,2.0,1301.0040350000054,3.0,1.0,phase_3,,,,,384.0,2.0,192.0,384.0,960.0,1152.0,768.0,576.0,green,square
0.0,8.0,4.0,1.0,7.0,6.0,1653.9262830001462,3.0,1.0,phase_3,,,,,232.0,2.0,116.0,696.0,464.0,580.0,348.0,232.0,blue,circle
0.0,1.0,0.5,0.0,7.0,1.0,2088.494628999797,3.0,1.0,phase_3,,,,,346.0,2.0,346.0,1038.0,692.0,519.0,865.0,173.0,green,square
0.0,4.0,4.0,0.0,7.0,4.0,1760.2395310004797,3.0,1.0,phase_3,,,,,464.0,4.0,116.0,696.0,348.0,464.0,580.0,232.0,cyan,flipped triangle
0.0,1.0,0.5,0.0,7.0,6.0,1484.31939800048,3.0,1.0,phase_3,,,,,924.0,6.0,616.0,462.0,154.0,308.0,770.0,924.0,green,square
0.0,3.0,2.0,0.0,7.0,3.0,1820.0519900001384,4.0,1.0,phase_3,,,,,519.0,3.0,692.0,865.0,519.0,346.0,173.0,1038.0,white,I
0.0,7.0,2.0,1.0,7.0,2.0,1805.994760000431,4.0,1.0,phase_3,,,,,232.0,2.0,116.0,232.0,580.0,348.0,464.0,696.0,magenta,diamond
0.0,5.0,0.5,1.0,7.0,5.0,1967.4496860006911,4.0,1.0,phase_3,,,,,540.0,4.0,810.0,405.0,675.0,135.0,540.0,270.0,yellow,cross
0.0,4.0,4.0,0.0,7.0,1.0,2040.552888000093,4.0,1.0,phase_3,,,,,232.0,2.0,232.0,696.0,348.0,116.0,580.0,464.0,cyan,flipped triangle
0.0,2.0,1.0,0.0,7.0,6.0,1678.9718769996398,4.0,1.0,phase_3,,,,,576.0,3.0,192.0,1152.0,768.0,384.0,960.0,576.0,orange,hexagon
0.0,3.0,2.0,0.0,7.0,4.0,1466.1061990000237,4.0,1.0,phase_3,,,,,462.0,3.0,616.0,308.0,770.0,462.0,924.0,154.0,white,I
0.0,8.0,4.0,1.0,7.0,6.0,1907.2199560005172,4.0,1.0,phase_3,,,,,675.0,5.0,810.0,405.0,135.0,540.0,270.0,675.0,blue,circle
0.0,2.0,1.0,0.0,7.0,1.0,1756.7034430003332,4.0,1.0,phase_3,,,,,346.0,2.0,346.0,865.0,692.0,1038.0,519.0,173.0,orange,hexagon
0.0,6.0,1.0,1.0,7.0,2.0,2580.004294999526,4.0,1.0,phase_3,,,,,810.0,6.0,270.0,810.0,135.0,405.0,540.0,675.0,gray,triangle
0.0,2.0,1.0,0.0,7.0,4.0,4308.335771999737,4.0,1.0,phase_3,,,,,675.0,5.0,135.0,270.0,540.0,675.0,405.0,810.0,orange,hexagon
0.0,4.0,4.0,0.0,7.0,3.0,1825.230150000607,4.0,1.0,phase_3,,,,,1038.0,6.0,519.0,692.0,1038.0,346.0,173.0,865.0,cyan,flipped triangle
0.0,7.0,2.0,1.0,7.0,2.0,3010.243853000248,4.0,1.0,phase_3,,,,,519.0,3.0,173.0,519.0,346.0,1038.0,692.0,865.0,magenta,diamond
0.0,5.0,0.5,1.0,7.0,1.0,2566.556277000018,4.0,1.0,phase_3,,,,,924.0,6.0,924.0,616.0,308.0,462.0,154.0,770.0,yellow,cross
0.0,4.0,4.0,0.0,7.0,5.0,1551.9075310003243,4.0,1.0,phase_3,,,,,308.0,2.0,462.0,616.0,924.0,770.0,308.0,154.0,cyan,flipped triangle
0.0,6.0,1.0,1.0,7.0,6.0,1215.3111919997173,4.0,1.0,phase_3,,,,,405.0,3.0,270.0,135.0,810.0,540.0,675.0,405.0,gray,triangle
0.0,1.0,0.5,0.0,7.0,2.0,2487.126583000645,4.0,1.0,phase_3,,,,,116.0,1.0,580.0,116.0,348.0,696.0,464.0,232.0,green,square
0.0,5.0,0.5,1.0,7.0,1.0,3131.341629000417,4.0,1.0,phase_3,,,,,462.0,3.0,462.0,924.0,308.0,154.0,616.0,770.0,yellow,cross
0.0,8.0,4.0,1.0,7.0,5.0,2756.3889279999785,4.0,1.0,phase_3,,,,,135.0,1.0,810.0,675.0,405.0,540.0,135.0,270.0,blue,circle
0.0,8.0,4.0,1.0,7.0,2.0,2436.729940999612,4.0,1.0,phase_3,,,,,692.0,4.0,346.0,692.0,1038.0,519.0,173.0,865.0,blue,circle
0.0,6.0,1.0,1.0,7.0,6.0,1421.8865130005724,4.0,1.0,phase_3,,,,,308.0,2.0,616.0,924.0,154.0,462.0,770.0,308.0,gray,triangle
