raw_reward_magnitude,stim_reward,stepwise_reward_magnitude,paired_with_stopping,stim_location,response,reaction_time,block,num_trial_presentations,which_phase,stop_signal_trial_type,left_SSD,right_SSD,accuracy,chosen_bidding_amount,chosen_bidding_level,possible_bid_1,possible_bid_2,possible_bid_3,possible_bid_4,possible_bid_5,possible_bid_6,color_text,shape_text
646.0,7.0,2.0,1.0,3.0,3.0,397.4043400003211,1.0,1.0,phase_1,,,,,,,,,,,,,cyan,flipped triangle
333.0,6.0,1.0,1.0,4.0,4.0,360.8100239998748,1.0,1.0,phase_1,,,,,,,,,,,,,yellow,hexagon
178.0,1.0,0.5,0.0,1.0,1.0,379.0622349997647,1.0,1.0,phase_1,,,,,,,,,,,,,gray,square
1323.0,4.0,4.0,0.0,3.0,3.0,322.9375959999743,1.0,1.0,phase_1,,,,,,,,,,,,,magenta,I
337.0,6.0,1.0,1.0,3.0,3.0,342.336955999599,1.0,1.0,phase_1,,,,,,,,,,,,,yellow,hexagon
1304.0,4.0,4.0,0.0,2.0,2.0,343.4497420003026,1.0,1.0,phase_1,,,,,,,,,,,,,magenta,I
322.0,2.0,1.0,0.0,4.0,4.0,323.5116039995773,1.0,1.0,phase_1,,,,,,,,,,,,,white,diamond
645.0,7.0,2.0,1.0,2.0,2.0,322.7639830001862,1.0,1.0,phase_1,,,,,,,,,,,,,cyan,flipped triangle
152.0,1.0,0.5,0.0,1.0,1.0,360.1387430003342,1.0,1.0,phase_1,,,,,,,,,,,,,gray,square
166.0,1.0,0.5,0.0,1.0,1.0,360.4423130000214,1.0,1.0,phase_1,,,,,,,,,,,,,gray,square
151.0,1.0,0.5,0.0,2.0,2.0,416.0021160000724,1.0,2.0,phase_1,,,,,,,,,,,,,gray,square
0.0,2.0,0.0,0.0,4.0,4.0,416.3376020001124,1.0,1.0,phase_1,,,,,,,,,,,,,white,diamond
1285.0,8.0,4.0,1.0,2.0,2.0,327.397318000294,1.0,1.0,phase_1,,,,,,,,,,,,,green,circle
1324.0,4.0,4.0,0.0,4.0,4.0,343.0377109998517,1.0,1.0,phase_1,,,,,,,,,,,,,magenta,I
1312.0,8.0,4.0,1.0,1.0,1.0,408.0994509999982,1.0,1.0,phase_1,,,,,,,,,,,,,green,circle
1281.0,8.0,4.0,1.0,4.0,4.0,368.9582290003272,1.0,1.0,phase_1,,,,,,,,,,,,,green,circle
346.0,6.0,1.0,1.0,2.0,2.0,322.8723160000299,1.0,1.0,phase_1,,,,,,,,,,,,,yellow,hexagon
635.0,3.0,2.0,0.0,1.0,1.0,450.3106930001195,1.0,1.0,phase_1,,,,,,,,,,,,,orange,triangle
1279.0,8.0,4.0,1.0,2.0,2.0,395.4337380000652,1.0,1.0,phase_1,,,,,,,,,,,,,green,circle
0.0,8.0,0.0,1.0,4.0,4.0,378.0319499996949,1.0,1.0,phase_1,,,,,,,,,,,,,green,circle
304.0,2.0,1.0,0.0,4.0,4.0,359.2539839996789,1.0,1.0,phase_1,,,,,,,,,,,,,white,diamond
1277.0,4.0,4.0,0.0,4.0,4.0,378.2318600001417,1.0,1.0,phase_1,,,,,,,,,,,,,magenta,I
340.0,6.0,1.0,1.0,2.0,2.0,331.4960160000737,1.0,1.0,phase_1,,,,,,,,,,,,,yellow,hexagon
161.0,5.0,0.5,1.0,1.0,1.0,524.6543770003882,1.0,1.0,phase_1,,,,,,,,,,,,,blue,cross
626.0,3.0,2.0,0.0,1.0,1.0,451.2422190000507,1.0,1.0,phase_1,,,,,,,,,,,,,orange,triangle
312.0,6.0,1.0,1.0,1.0,1.0,423.9275949998955,1.0,1.0,phase_1,,,,,,,,,,,,,yellow,hexagon
337.0,6.0,1.0,1.0,1.0,1.0,350.9946819999641,1.0,1.0,phase_1,,,,,,,,,,,,,yellow,hexagon
175.0,1.0,0.5,0.0,3.0,3.0,490.5602550002186,1.0,1.0,phase_1,,,,,,,,,,,,,gray,square
664.0,7.0,2.0,1.0,2.0,2.0,414.5926409996718,1.0,1.0,phase_1,,,,,,,,,,,,,cyan,flipped triangle
0.0,2.0,0.0,0.0,1.0,1.0,414.5483389997935,1.0,1.0,phase_1,,,,,,,,,,,,,white,diamond
1297.0,8.0,4.0,1.0,2.0,2.0,369.1440910001802,1.0,1.0,phase_1,,,,,,,,,,,,,green,circle
0.0,4.0,0.0,0.0,3.0,3.0,525.8904810002605,1.0,1.0,phase_1,,,,,,,,,,,,,magenta,I
139.0,1.0,0.5,0.0,3.0,3.0,387.0153269999719,1.0,1.0,phase_1,,,,,,,,,,,,,gray,square
1277.0,8.0,4.0,1.0,1.0,1.0,378.907055000127,1.0,1.0,phase_1,,,,,,,,,,,,,green,circle
642.0,3.0,2.0,0.0,1.0,1.0,359.2009320000215,1.0,1.0,phase_1,,,,,,,,,,,,,orange,triangle
1297.0,8.0,4.0,1.0,2.0,2.0,386.6922140000497,1.0,1.0,phase_1,,,,,,,,,,,,,green,circle
654.0,7.0,2.0,1.0,3.0,3.0,387.9722149999907,1.0,1.0,phase_1,,,,,,,,,,,,,cyan,flipped triangle
178.0,5.0,0.5,1.0,4.0,4.0,360.8229500000561,1.0,1.0,phase_1,,,,,,,,,,,,,blue,cross
144.0,5.0,0.5,1.0,2.0,2.0,322.9050350000761,1.0,1.0,phase_1,,,,,,,,,,,,,blue,cross
185.0,1.0,0.5,0.0,2.0,2.0,378.0459740000879,1.0,1.0,phase_1,,,,,,,,,,,,,gray,square
0.0,1.0,0.0,0.0,1.0,1.0,350.6132990000878,1.0,1.0,phase_1,,,,,,,,,,,,,gray,square
186.0,5.0,0.5,1.0,3.0,3.0,323.0185679999522,1.0,1.0,phase_1,,,,,,,,,,,,,blue,cross
306.0,2.0,1.0,0.0,3.0,3.0,369.2297160000635,1.0,1.0,phase_1,,,,,,,,,,,,,white,diamond
1293.0,4.0,4.0,0.0,3.0,3.0,424.0918719997353,1.0,1.0,phase_1,,,,,,,,,,,,,magenta,I
140.0,1.0,0.5,0.0,3.0,3.0,351.2873099998614,1.0,1.0,phase_1,,,,,,,,,,,,,gray,square
345.0,6.0,1.0,1.0,2.0,2.0,322.6365329996952,1.0,1.0,phase_1,,,,,,,,,,,,,yellow,hexagon
146.0,1.0,0.5,0.0,2.0,2.0,368.4995149997121,1.0,1.0,phase_1,,,,,,,,,,,,,gray,square
1316.0,4.0,4.0,0.0,3.0,3.0,332.6771429997279,1.0,1.0,phase_1,,,,,,,,,,,,,magenta,I
324.0,2.0,1.0,0.0,1.0,1.0,441.5611460003674,1.0,1.0,phase_1,,,,,,,,,,,,,white,diamond
170.0,5.0,0.5,1.0,4.0,4.0,360.7734259999233,1.0,1.0,phase_1,,,,,,,,,,,,,blue,cross
0.0,2.0,0.0,0.0,2.0,2.0,387.8595700002734,1.0,1.0,phase_1,,,,,,,,,,,,,white,diamond
1292.0,4.0,4.0,0.0,4.0,4.0,387.2865140001522,1.0,1.0,phase_1,,,,,,,,,,,,,magenta,I
147.0,5.0,0.5,1.0,4.0,4.0,488.6586279999392,1.0,1.0,phase_1,,,,,,,,,,,,,blue,cross
658.0,7.0,2.0,1.0,3.0,3.0,388.8304059996699,1.0,1.0,phase_1,,,,,,,,,,,,,cyan,flipped triangle
1292.0,8.0,4.0,1.0,4.0,4.0,351.6137719998369,1.0,1.0,phase_1,,,,,,,,,,,,,green,circle
329.0,2.0,1.0,0.0,1.0,1.0,307.5208969999039,1.0,1.0,phase_1,,,,,,,,,,,,,white,diamond
180.0,5.0,0.5,1.0,3.0,3.0,336.2696839999444,1.0,1.0,phase_1,,,,,,,,,,,,,blue,cross
0.0,7.0,0.0,1.0,4.0,4.0,341.6459800000666,1.0,1.0,phase_1,,,,,,,,,,,,,cyan,flipped triangle
1317.0,4.0,4.0,0.0,4.0,4.0,386.9679210001777,1.0,1.0,phase_1,,,,,,,,,,,,,magenta,I
1296.0,8.0,4.0,1.0,4.0,4.0,337.7564079996773,1.0,1.0,phase_1,,,,,,,,,,,,,green,circle
0.0,6.0,0.0,1.0,3.0,3.0,396.4384780001637,1.0,1.0,phase_1,,,,,,,,,,,,,yellow,hexagon
1320.0,4.0,4.0,0.0,3.0,3.0,343.402203000096,1.0,1.0,phase_1,,,,,,,,,,,,,magenta,I
1318.0,8.0,4.0,1.0,1.0,1.0,369.1724639998028,1.0,1.0,phase_1,,,,,,,,,,,,,green,circle
641.0,3.0,2.0,0.0,2.0,2.0,323.6780560000625,1.0,1.0,phase_1,,,,,,,,,,,,,orange,triangle
1320.0,8.0,4.0,1.0,4.0,4.0,360.7038209997881,1.0,1.0,phase_1,,,,,,,,,,,,,green,circle
1316.0,8.0,4.0,1.0,3.0,3.0,314.9627960001453,1.0,1.0,phase_1,,,,,,,,,,,,,green,circle
342.0,6.0,1.0,1.0,1.0,1.0,600.0343239998074,1.0,1.0,phase_1,,,,,,,,,,,,,yellow,hexagon
1276.0,8.0,4.0,1.0,1.0,1.0,425.094705000447,1.0,1.0,phase_1,,,,,,,,,,,,,green,circle
185.0,5.0,0.5,1.0,1.0,1.0,378.7619549998453,1.0,1.0,phase_1,,,,,,,,,,,,,blue,cross
146.0,5.0,0.5,1.0,3.0,3.0,332.2050949996082,1.0,1.0,phase_1,,,,,,,,,,,,,blue,cross
640.0,3.0,2.0,0.0,4.0,4.0,322.9665920002844,1.0,1.0,phase_1,,,,,,,,,,,,,orange,triangle
0.0,7.0,0.0,1.0,3.0,3.0,360.9825379999165,1.0,1.0,phase_1,,,,,,,,,,,,,cyan,flipped triangle
630.0,3.0,2.0,0.0,3.0,3.0,322.517494999829,1.0,1.0,phase_1,,,,,,,,,,,,,orange,triangle
0.0,7.0,0.0,1.0,2.0,2.0,341.131800000312,1.0,1.0,phase_1,,,,,,,,,,,,,cyan,flipped triangle
0.0,2.0,0.0,0.0,3.0,3.0,304.7179729996969,1.0,1.0,phase_1,,,,,,,,,,,,,white,diamond
161.0,1.0,0.5,0.0,4.0,4.0,277.5825930002611,1.0,1.0,phase_1,,,,,,,,,,,,,gray,square
139.0,5.0,0.5,1.0,2.0,2.0,331.8462239999462,1.0,1.0,phase_1,,,,,,,,,,,,,blue,cross
652.0,3.0,2.0,0.0,1.0,1.0,276.9888749999154,1.0,1.0,phase_1,,,,,,,,,,,,,orange,triangle
151.0,5.0,0.5,1.0,3.0,3.0,322.6019209996593,1.0,1.0,phase_1,,,,,,,,,,,,,blue,cross
664.0,7.0,2.0,1.0,2.0,2.0,268.376884999725,1.0,1.0,phase_1,,,,,,,,,,,,,cyan,flipped triangle
635.0,3.0,2.0,0.0,2.0,2.0,322.6700940003866,1.0,1.0,phase_1,,,,,,,,,,,,,orange,triangle
654.0,3.0,2.0,0.0,4.0,4.0,323.8426329999129,1.0,1.0,phase_1,,,,,,,,,,,,,orange,triangle
145.0,5.0,0.5,1.0,4.0,4.0,369.6229669999411,1.0,1.0,phase_1,,,,,,,,,,,,,blue,cross
0.0,6.0,0.0,1.0,4.0,4.0,418.8656370001808,1.0,2.0,phase_1,,,,,,,,,,,,,yellow,hexagon
306.0,6.0,1.0,1.0,4.0,4.0,332.8684289999728,1.0,1.0,phase_1,,,,,,,,,,,,,yellow,hexagon
144.0,5.0,0.5,1.0,4.0,4.0,368.6451529997612,1.0,1.0,phase_1,,,,,,,,,,,,,blue,cross
175.0,5.0,0.5,1.0,1.0,1.0,462.5222439999561,1.0,1.0,phase_1,,,,,,,,,,,,,blue,cross
0.0,2.0,0.0,0.0,1.0,1.0,368.9840889996958,1.0,1.0,phase_1,,,,,,,,,,,,,white,diamond
177.0,1.0,0.5,0.0,4.0,4.0,378.8258399999904,1.0,1.0,phase_1,,,,,,,,,,,,,gray,square
0.0,5.0,0.0,1.0,1.0,1.0,481.2490260001141,1.0,1.0,phase_1,,,,,,,,,,,,,blue,cross
329.0,6.0,1.0,1.0,3.0,3.0,350.2696299997296,1.0,1.0,phase_1,,,,,,,,,,,,,yellow,hexagon
331.0,6.0,1.0,1.0,2.0,2.0,305.5346340001961,1.0,1.0,phase_1,,,,,,,,,,,,,yellow,hexagon
315.0,6.0,1.0,1.0,3.0,3.0,351.7397350001374,1.0,1.0,phase_1,,,,,,,,,,,,,yellow,hexagon
641.0,7.0,2.0,1.0,4.0,4.0,332.4851550000858,1.0,1.0,phase_1,,,,,,,,,,,,,cyan,flipped triangle
174.0,1.0,0.5,0.0,2.0,2.0,378.1008050000309,1.0,1.0,phase_1,,,,,,,,,,,,,gray,square
1302.0,4.0,4.0,0.0,2.0,2.0,479.5444259998476,1.0,1.0,phase_1,,,,,,,,,,,,,magenta,I
344.0,2.0,1.0,0.0,3.0,3.0,366.9140950000837,1.0,1.0,phase_1,,,,,,,,,,,,,white,diamond
166.0,1.0,0.5,0.0,1.0,1.0,369.5535870001549,1.0,1.0,phase_1,,,,,,,,,,,,,gray,square
310.0,6.0,1.0,1.0,1.0,1.0,471.2284080001154,1.0,1.0,phase_1,,,,,,,,,,,,,yellow,hexagon
635.0,7.0,2.0,1.0,1.0,1.0,443.0508519999421,1.0,1.0,phase_1,,,,,,,,,,,,,cyan,flipped triangle
674.0,7.0,2.0,1.0,1.0,1.0,443.1282809996446,2.0,1.0,phase_1,,,,,,,,,,,,,cyan,flipped triangle
0.0,5.0,0.0,1.0,4.0,4.0,361.173411999971,2.0,1.0,phase_1,,,,,,,,,,,,,blue,cross
301.0,2.0,1.0,0.0,4.0,4.0,358.7718490002771,2.0,1.0,phase_1,,,,,,,,,,,,,white,diamond
0.0,3.0,0.0,0.0,3.0,3.0,341.8141110000761,2.0,1.0,phase_1,,,,,,,,,,,,,orange,triangle
0.0,1.0,0.0,0.0,1.0,1.0,397.2732969996286,2.0,1.0,phase_1,,,,,,,,,,,,,gray,square
1278.0,4.0,4.0,0.0,2.0,2.0,305.6761549996736,2.0,1.0,phase_1,,,,,,,,,,,,,magenta,I
164.0,1.0,0.5,0.0,4.0,4.0,368.5471500002677,2.0,1.0,phase_1,,,,,,,,,,,,,gray,square
1310.0,8.0,4.0,1.0,2.0,2.0,304.6847410000737,2.0,1.0,phase_1,,,,,,,,,,,,,green,circle
1279.0,4.0,4.0,0.0,3.0,3.0,378.6496490001809,2.0,1.0,phase_1,,,,,,,,,,,,,magenta,I
331.0,2.0,1.0,0.0,2.0,2.0,470.5155320002632,2.0,1.0,phase_1,,,,,,,,,,,,,white,diamond
322.0,6.0,1.0,1.0,1.0,1.0,341.4473259999795,2.0,1.0,phase_1,,,,,,,,,,,,,yellow,hexagon
659.0,7.0,2.0,1.0,2.0,2.0,323.801216999982,2.0,1.0,phase_1,,,,,,,,,,,,,cyan,flipped triangle
304.0,2.0,1.0,0.0,1.0,1.0,370.4562539996914,2.0,1.0,phase_1,,,,,,,,,,,,,white,diamond
652.0,7.0,2.0,1.0,4.0,4.0,370.2806869996493,2.0,1.0,phase_1,,,,,,,,,,,,,cyan,flipped triangle
186.0,1.0,0.5,0.0,2.0,2.0,393.94322399994047,2.0,1.0,phase_1,,,,,,,,,,,,,gray,square
325.0,6.0,1.0,1.0,3.0,3.0,322.7501239998673,2.0,1.0,phase_1,,,,,,,,,,,,,yellow,hexagon
0.0,2.0,0.0,0.0,1.0,1.0,304.3251590002001,2.0,1.0,phase_1,,,,,,,,,,,,,white,diamond
0.0,3.0,0.0,0.0,3.0,3.0,378.5000140001102,2.0,1.0,phase_1,,,,,,,,,,,,,orange,triangle
1321.0,4.0,4.0,0.0,4.0,4.0,295.7655579998572,2.0,2.0,phase_1,,,,,,,,,,,,,magenta,I
1277.0,4.0,4.0,0.0,2.0,2.0,314.6474029999808,2.0,1.0,phase_1,,,,,,,,,,,,,magenta,I
1306.0,4.0,4.0,0.0,1.0,1.0,360.9754089998205,2.0,1.0,phase_1,,,,,,,,,,,,,magenta,I
346.0,2.0,1.0,0.0,2.0,2.0,350.1270740002837,2.0,1.0,phase_1,,,,,,,,,,,,,white,diamond
0.0,5.0,0.0,1.0,3.0,3.0,378.2683819999874,2.0,1.0,phase_1,,,,,,,,,,,,,blue,cross
650.0,7.0,2.0,1.0,2.0,2.0,369.8338649996913,2.0,1.0,phase_1,,,,,,,,,,,,,cyan,flipped triangle
165.0,1.0,0.5,0.0,4.0,4.0,314.2332300003545,2.0,1.0,phase_1,,,,,,,,,,,,,gray,square
0.0,7.0,0.0,1.0,4.0,4.0,368.8630099995862,2.0,1.0,phase_1,,,,,,,,,,,,,cyan,flipped triangle
1315.0,4.0,4.0,0.0,1.0,1.0,416.1762419998922,2.0,1.0,phase_1,,,,,,,,,,,,,magenta,I
665.0,7.0,2.0,1.0,1.0,1.0,369.089449999592,2.0,1.0,phase_1,,,,,,,,,,,,,cyan,flipped triangle
0.0,7.0,0.0,1.0,1.0,1.0,370.6525200000214,2.0,1.0,phase_1,,,,,,,,,,,,,cyan,flipped triangle
147.0,1.0,0.5,0.0,2.0,2.0,358.7151820001963,2.0,1.0,phase_1,,,,,,,,,,,,,gray,square
673.0,7.0,2.0,1.0,4.0,4.0,352.2997439999926,2.0,1.0,phase_1,,,,,,,,,,,,,cyan,flipped triangle
317.0,6.0,1.0,1.0,4.0,4.0,440.8919249999599,2.0,1.0,phase_1,,,,,,,,,,,,,yellow,hexagon
304.0,2.0,1.0,0.0,1.0,1.0,387.1759990001919,2.0,1.0,phase_1,,,,,,,,,,,,,white,diamond
0.0,4.0,0.0,0.0,3.0,3.0,406.2015389999942,2.0,1.0,phase_1,,,,,,,,,,,,,magenta,I
309.0,6.0,1.0,1.0,4.0,4.0,369.6928320000552,2.0,1.0,phase_1,,,,,,,,,,,,,yellow,hexagon
167.0,1.0,0.5,0.0,4.0,4.0,341.5119359997334,2.0,1.0,phase_1,,,,,,,,,,,,,gray,square
315.0,6.0,1.0,1.0,3.0,3.0,322.6379939997059,2.0,1.0,phase_1,,,,,,,,,,,,,yellow,hexagon
0.0,1.0,0.0,0.0,4.0,4.0,360.4102950002925,2.0,1.0,phase_1,,,,,,,,,,,,,gray,square
0.0,8.0,0.0,1.0,4.0,4.0,360.1503710001452,2.0,1.0,phase_1,,,,,,,,,,,,,green,circle
0.0,6.0,0.0,1.0,3.0,3.0,323.2853019999311,2.0,1.0,phase_1,,,,,,,,,,,,,yellow,hexagon
651.0,7.0,2.0,1.0,4.0,4.0,341.7897300000732,2.0,1.0,phase_1,,,,,,,,,,,,,cyan,flipped triangle
1282.0,4.0,4.0,0.0,2.0,2.0,277.1081839996441,2.0,1.0,phase_1,,,,,,,,,,,,,magenta,I
627.0,7.0,2.0,1.0,1.0,1.0,322.9991289999816,2.0,1.0,phase_1,,,,,,,,,,,,,cyan,flipped triangle
1291.0,8.0,4.0,1.0,3.0,3.0,414.5301169996855,2.0,1.0,phase_1,,,,,,,,,,,,,green,circle
634.0,3.0,2.0,0.0,4.0,4.0,368.8873050000438,2.0,1.0,phase_1,,,,,,,,,,,,,orange,triangle
0.0,8.0,0.0,1.0,3.0,3.0,304.8630120001689,2.0,1.0,phase_1,,,,,,,,,,,,,green,circle
324.0,6.0,1.0,1.0,1.0,1.0,303.9923169999383,2.0,1.0,phase_1,,,,,,,,,,,,,yellow,hexagon
1289.0,8.0,4.0,1.0,3.0,3.0,342.0207039998786,2.0,1.0,phase_1,,,,,,,,,,,,,green,circle
166.0,5.0,0.5,1.0,1.0,1.0,434.2693379999218,2.0,1.0,phase_1,,,,,,,,,,,,,blue,cross
0.0,8.0,0.0,1.0,4.0,4.0,416.3477199999761,2.0,1.0,phase_1,,,,,,,,,,,,,green,circle
153.0,5.0,0.5,1.0,3.0,3.0,360.4604689999178,2.0,1.0,phase_1,,,,,,,,,,,,,blue,cross
1297.0,4.0,4.0,0.0,2.0,2.0,332.5101519999407,2.0,1.0,phase_1,,,,,,,,,,,,,magenta,I
1323.0,8.0,4.0,1.0,3.0,3.0,378.7622569998348,2.0,1.0,phase_1,,,,,,,,,,,,,green,circle
325.0,2.0,1.0,0.0,3.0,3.0,416.4142609997725,2.0,1.0,phase_1,,,,,,,,,,,,,white,diamond
164.0,5.0,0.5,1.0,2.0,2.0,416.1149110000224,2.0,1.0,phase_1,,,,,,,,,,,,,blue,cross
162.0,1.0,0.5,0.0,2.0,2.0,414.5000859998617,2.0,1.0,phase_1,,,,,,,,,,,,,gray,square
161.0,5.0,0.5,1.0,2.0,2.0,378.0189039998731,2.0,1.0,phase_1,,,,,,,,,,,,,blue,cross
160.0,1.0,0.5,0.0,3.0,3.0,434.1868910000812,2.0,1.0,phase_1,,,,,,,,,,,,,gray,square
304.0,6.0,1.0,1.0,3.0,3.0,358.760059999895,2.0,1.0,phase_1,,,,,,,,,,,,,yellow,hexagon
1317.0,8.0,4.0,1.0,1.0,1.0,387.206462999984,2.0,1.0,phase_1,,,,,,,,,,,,,green,circle
0.0,7.0,0.0,1.0,3.0,3.0,295.0971830000526,2.0,1.0,phase_1,,,,,,,,,,,,,cyan,flipped triangle
0.0,2.0,0.0,0.0,4.0,4.0,416.7020220002086,2.0,1.0,phase_1,,,,,,,,,,,,,white,diamond
1310.0,4.0,4.0,0.0,1.0,1.0,415.2126630001476,2.0,1.0,phase_1,,,,,,,,,,,,,magenta,I
635.0,7.0,2.0,1.0,1.0,1.0,442.24872399991,2.0,1.0,phase_1,,,,,,,,,,,,,cyan,flipped triangle
1306.0,4.0,4.0,0.0,4.0,4.0,360.4547180002555,2.0,1.0,phase_1,,,,,,,,,,,,,magenta,I
0.0,3.0,0.0,0.0,2.0,2.0,323.3617139999296,2.0,1.0,phase_1,,,,,,,,,,,,,orange,triangle
178.0,1.0,0.5,0.0,2.0,2.0,350.0164920001225,2.0,1.0,phase_1,,,,,,,,,,,,,gray,square
1317.0,4.0,4.0,0.0,1.0,1.0,350.5860509999365,2.0,1.0,phase_1,,,,,,,,,,,,,magenta,I
1289.0,8.0,4.0,1.0,3.0,3.0,331.3480030001301,2.0,1.0,phase_1,,,,,,,,,,,,,green,circle
0.0,8.0,0.0,1.0,1.0,1.0,542.8745250001157,2.0,1.0,phase_1,,,,,,,,,,,,,green,circle
1293.0,8.0,4.0,1.0,2.0,2.0,359.2864460001692,2.0,1.0,phase_1,,,,,,,,,,,,,green,circle
1281.0,8.0,4.0,1.0,1.0,1.0,360.0331100001313,2.0,1.0,phase_1,,,,,,,,,,,,,green,circle
186.0,1.0,0.5,0.0,2.0,2.0,349.9619550002535,2.0,1.0,phase_1,,,,,,,,,,,,,gray,square
0.0,4.0,0.0,0.0,4.0,4.0,304.9662190001072,2.0,1.0,phase_1,,,,,,,,,,,,,magenta,I
178.0,1.0,0.5,0.0,4.0,4.0,406.0746260001906,2.0,1.0,phase_1,,,,,,,,,,,,,gray,square
1304.0,8.0,4.0,1.0,1.0,1.0,395.3371929997047,2.0,1.0,phase_1,,,,,,,,,,,,,green,circle
645.0,3.0,2.0,0.0,2.0,2.0,295.405490000121,2.0,1.0,phase_1,,,,,,,,,,,,,orange,triangle
179.0,5.0,0.5,1.0,2.0,2.0,359.8091909998402,2.0,1.0,phase_1,,,,,,,,,,,,,blue,cross
0.0,7.0,0.0,1.0,4.0,4.0,323.0479779999768,2.0,1.0,phase_1,,,,,,,,,,,,,cyan,flipped triangle
335.0,6.0,1.0,1.0,1.0,1.0,258.0405720000271,2.0,1.0,phase_1,,,,,,,,,,,,,yellow,hexagon
166.0,5.0,0.5,1.0,4.0,4.0,323.8412800001242,2.0,1.0,phase_1,,,,,,,,,,,,,blue,cross
145.0,1.0,0.5,0.0,1.0,1.0,331.5493439999954,2.0,1.0,phase_1,,,,,,,,,,,,,gray,square
1306.0,8.0,4.0,1.0,2.0,2.0,360.2347579999332,2.0,1.0,phase_1,,,,,,,,,,,,,green,circle
665.0,7.0,2.0,1.0,3.0,3.0,341.1416180001652,2.0,1.0,phase_1,,,,,,,,,,,,,cyan,flipped triangle
674.0,3.0,2.0,0.0,2.0,2.0,295.2216459998453,2.0,1.0,phase_1,,,,,,,,,,,,,orange,triangle
329.0,2.0,1.0,0.0,1.0,1.0,388.1828410003436,2.0,1.0,phase_1,,,,,,,,,,,,,white,diamond
178.0,5.0,0.5,1.0,4.0,4.0,342.733706999752,2.0,1.0,phase_1,,,,,,,,,,,,,blue,cross
147.0,5.0,0.5,1.0,1.0,1.0,397.7483240000765,2.0,1.0,phase_1,,,,,,,,,,,,,blue,cross
640.0,7.0,2.0,1.0,3.0,3.0,424.5111830000496,2.0,1.0,phase_1,,,,,,,,,,,,,cyan,flipped triangle
0.0,2.0,0.0,0.0,4.0,4.0,414.2536170002131,2.0,1.0,phase_1,,,,,,,,,,,,,white,diamond
1291.0,4.0,4.0,0.0,3.0,3.0,378.6968720000914,2.0,1.0,phase_1,,,,,,,,,,,,,magenta,I
0.0,4.0,0.0,0.0,3.0,3.0,414.8277959998268,2.0,1.0,phase_1,,,,,,,,,,,,,magenta,I
337.0,2.0,1.0,0.0,4.0,4.0,434.4277960003637,2.0,1.0,phase_1,,,,,,,,,,,,,white,diamond
315.0,2.0,1.0,0.0,2.0,2.0,333.3230389998789,2.0,1.0,phase_1,,,,,,,,,,,,,white,diamond
1313.0,8.0,4.0,1.0,4.0,4.0,424.4710079997276,2.0,1.0,phase_1,,,,,,,,,,,,,green,circle
318.0,6.0,1.0,1.0,4.0,4.0,351.723149999998,2.0,1.0,phase_1,,,,,,,,,,,,,yellow,hexagon
0.0,1.0,0.0,0.0,3.0,3.0,370.6897390002268,2.0,1.0,phase_1,,,,,,,,,,,,,gray,square
0.0,8.0,0.0,1.0,3.0,3.0,380.3541030001724,2.0,1.0,phase_1,,,,,,,,,,,,,green,circle
333.0,2.0,1.0,0.0,2.0,2.0,360.5943419997857,2.0,1.0,phase_1,,,,,,,,,,,,,white,diamond
656.0,3.0,2.0,0.0,3.0,3.0,461.0594030000357,2.0,1.0,phase_1,,,,,,,,,,,,,orange,triangle
666.0,3.0,2.0,0.0,4.0,4.0,360.5450590002874,3.0,1.0,phase_1,,,,,,,,,,,,,orange,triangle
0.0,8.0,0.0,1.0,1.0,1.0,424.5693519997076,3.0,1.0,phase_1,,,,,,,,,,,,,green,circle
0.0,6.0,0.0,1.0,2.0,2.0,333.3390440002404,3.0,1.0,phase_1,,,,,,,,,,,,,yellow,hexagon
0.0,1.0,0.0,0.0,2.0,2.0,332.8316160000213,3.0,1.0,phase_1,,,,,,,,,,,,,gray,square
652.0,7.0,2.0,1.0,4.0,4.0,342.2661150002568,3.0,1.0,phase_1,,,,,,,,,,,,,cyan,flipped triangle
1324.0,8.0,4.0,1.0,4.0,4.0,370.969524999964,3.0,1.0,phase_1,,,,,,,,,,,,,green,circle
301.0,6.0,1.0,1.0,2.0,2.0,444.8750380001911,3.0,1.0,phase_1,,,,,,,,,,,,,yellow,hexagon
139.0,1.0,0.5,0.0,1.0,1.0,314.1589299998486,3.0,1.0,phase_1,,,,,,,,,,,,,gray,square
159.0,1.0,0.5,0.0,3.0,3.0,286.2445709997701,3.0,1.0,phase_1,,,,,,,,,,,,,gray,square
346.0,2.0,1.0,0.0,4.0,4.0,267.8381860000627,3.0,1.0,phase_1,,,,,,,,,,,,,white,diamond
0.0,3.0,0.0,0.0,1.0,1.0,351.1759100001654,3.0,1.0,phase_1,,,,,,,,,,,,,orange,triangle
1317.0,8.0,4.0,1.0,3.0,3.0,370.5007129997284,3.0,1.0,phase_1,,,,,,,,,,,,,green,circle
627.0,3.0,2.0,0.0,3.0,3.0,453.2092849999571,3.0,1.0,phase_1,,,,,,,,,,,,,orange,triangle
0.0,5.0,0.0,1.0,2.0,2.0,370.0120829998923,3.0,1.0,phase_1,,,,,,,,,,,,,blue,cross
1315.0,8.0,4.0,1.0,4.0,4.0,323.9157439998053,3.0,1.0,phase_1,,,,,,,,,,,,,green,circle
630.0,7.0,2.0,1.0,1.0,1.0,323.7337099999422,3.0,1.0,phase_1,,,,,,,,,,,,,cyan,flipped triangle
0.0,3.0,0.0,0.0,2.0,2.0,342.18965899981407,3.0,1.0,phase_1,,,,,,,,,,,,,orange,triangle
0.0,3.0,0.0,0.0,1.0,1.0,442.8893270001026,3.0,1.0,phase_1,,,,,,,,,,,,,orange,triangle
668.0,3.0,2.0,0.0,4.0,4.0,395.9931829999732,3.0,2.0,phase_1,,,,,,,,,,,,,orange,triangle
139.0,5.0,0.5,1.0,4.0,4.0,443.7921889998506,3.0,1.0,phase_1,,,,,,,,,,,,,blue,cross
0.0,7.0,0.0,1.0,4.0,4.0,433.9251279998279,3.0,1.0,phase_1,,,,,,,,,,,,,cyan,flipped triangle
656.0,3.0,2.0,0.0,2.0,2.0,416.632777000359,3.0,1.0,phase_1,,,,,,,,,,,,,orange,triangle
658.0,7.0,2.0,1.0,1.0,1.0,417.427356999724,3.0,1.0,phase_1,,,,,,,,,,,,,cyan,flipped triangle
0.0,3.0,0.0,0.0,1.0,1.0,425.297345999752,3.0,1.0,phase_1,,,,,,,,,,,,,orange,triangle
666.0,7.0,2.0,1.0,3.0,3.0,378.4469759998501,3.0,1.0,phase_1,,,,,,,,,,,,,cyan,flipped triangle
1296.0,4.0,4.0,0.0,4.0,4.0,370.1269170001069,3.0,1.0,phase_1,,,,,,,,,,,,,magenta,I
1278.0,8.0,4.0,1.0,3.0,3.0,360.5846860000383,3.0,1.0,phase_1,,,,,,,,,,,,,green,circle
0.0,3.0,0.0,0.0,1.0,1.0,332.5699880001593,3.0,1.0,phase_1,,,,,,,,,,,,,orange,triangle
152.0,5.0,0.5,1.0,3.0,3.0,406.3833850000264,3.0,1.0,phase_1,,,,,,,,,,,,,blue,cross
1298.0,8.0,4.0,1.0,4.0,4.0,323.9030959998672,3.0,1.0,phase_1,,,,,,,,,,,,,green,circle
627.0,7.0,2.0,1.0,4.0,4.0,341.3030249998883,3.0,1.0,phase_1,,,,,,,,,,,,,cyan,flipped triangle
344.0,6.0,1.0,1.0,3.0,3.0,360.8025009998528,3.0,1.0,phase_1,,,,,,,,,,,,,yellow,hexagon
673.0,7.0,2.0,1.0,2.0,2.0,369.4578720001118,3.0,1.0,phase_1,,,,,,,,,,,,,cyan,flipped triangle
336.0,2.0,1.0,0.0,1.0,1.0,489.5064569996066,3.0,1.0,phase_1,,,,,,,,,,,,,white,diamond
144.0,1.0,0.5,0.0,4.0,4.0,414.701998000055,3.0,1.0,phase_1,,,,,,,,,,,,,gray,square
315.0,2.0,1.0,0.0,2.0,2.0,339.927417999661,3.0,1.0,phase_1,,,,,,,,,,,,,white,diamond
1312.0,4.0,4.0,0.0,4.0,4.0,406.5770629999861,3.0,1.0,phase_1,,,,,,,,,,,,,magenta,I
322.0,2.0,1.0,0.0,4.0,4.0,377.928804000021,3.0,1.0,phase_1,,,,,,,,,,,,,white,diamond
0.0,5.0,0.0,1.0,4.0,4.0,368.9702299998316,3.0,1.0,phase_1,,,,,,,,,,,,,blue,cross
627.0,3.0,2.0,0.0,4.0,4.0,361.3329579998208,3.0,1.0,phase_1,,,,,,,,,,,,,orange,triangle
322.0,6.0,1.0,1.0,4.0,4.0,350.3802989998803,3.0,1.0,phase_1,,,,,,,,,,,,,yellow,hexagon
312.0,6.0,1.0,1.0,3.0,3.0,359.5972119996986,3.0,1.0,phase_1,,,,,,,,,,,,,yellow,hexagon
139.0,1.0,0.5,0.0,1.0,1.0,341.561812999771,3.0,1.0,phase_1,,,,,,,,,,,,,gray,square
664.0,3.0,2.0,0.0,3.0,3.0,361.5102009998736,3.0,1.0,phase_1,,,,,,,,,,,,,orange,triangle
656.0,7.0,2.0,1.0,3.0,3.0,461.4621609998721,3.0,1.0,phase_1,,,,,,,,,,,,,cyan,flipped triangle
165.0,5.0,0.5,1.0,2.0,2.0,452.2871270000905,3.0,1.0,phase_1,,,,,,,,,,,,,blue,cross
659.0,3.0,2.0,0.0,1.0,1.0,359.7544819999712,3.0,1.0,phase_1,,,,,,,,,,,,,orange,triangle
345.0,2.0,1.0,0.0,2.0,2.0,451.4578939997591,3.0,1.0,phase_1,,,,,,,,,,,,,white,diamond
159.0,5.0,0.5,1.0,1.0,1.0,423.8531030000558,3.0,1.0,phase_1,,,,,,,,,,,,,blue,cross
0.0,2.0,0.0,0.0,3.0,3.0,424.960252999881,3.0,1.0,phase_1,,,,,,,,,,,,,white,diamond
306.0,2.0,1.0,0.0,2.0,2.0,340.5234360002396,3.0,1.0,phase_1,,,,,,,,,,,,,white,diamond
0.0,1.0,0.0,0.0,3.0,3.0,482.0520130001569,3.0,1.0,phase_1,,,,,,,,,,,,,gray,square
1276.0,4.0,4.0,0.0,3.0,3.0,507.9996630001915,3.0,1.0,phase_1,,,,,,,,,,,,,magenta,I
336.0,6.0,1.0,1.0,4.0,4.0,387.3778199999833,3.0,1.0,phase_1,,,,,,,,,,,,,yellow,hexagon
329.0,6.0,1.0,1.0,2.0,2.0,397.802056999808,3.0,1.0,phase_1,,,,,,,,,,,,,yellow,hexagon
631.0,3.0,2.0,0.0,1.0,1.0,386.5320180002527,3.0,1.0,phase_1,,,,,,,,,,,,,orange,triangle
0.0,1.0,0.0,0.0,3.0,3.0,350.052997000148,3.0,1.0,phase_1,,,,,,,,,,,,,gray,square
0.0,4.0,0.0,0.0,2.0,2.0,432.4587869996321,3.0,1.0,phase_1,,,,,,,,,,,,,magenta,I
340.0,2.0,1.0,0.0,3.0,3.0,498.2475919996432,3.0,1.0,phase_1,,,,,,,,,,,,,white,diamond
0.0,4.0,0.0,0.0,2.0,2.0,368.8938300001609,3.0,1.0,phase_1,,,,,,,,,,,,,magenta,I
1318.0,4.0,4.0,0.0,1.0,1.0,387.6195029997689,3.0,1.0,phase_1,,,,,,,,,,,,,magenta,I
308.0,6.0,1.0,1.0,1.0,1.0,387.5843119999445,3.0,1.0,phase_1,,,,,,,,,,,,,yellow,hexagon
639.0,3.0,2.0,0.0,3.0,3.0,377.1689519999199,3.0,1.0,phase_1,,,,,,,,,,,,,orange,triangle
306.0,6.0,1.0,1.0,1.0,1.0,482.5342529998124,3.0,1.0,phase_1,,,,,,,,,,,,,yellow,hexagon
174.0,5.0,0.5,1.0,1.0,1.0,688.3072590003394,3.0,1.0,phase_1,,,,,,,,,,,,,blue,cross
1276.0,4.0,4.0,0.0,1.0,1.0,396.8850890000794,3.0,1.0,phase_1,,,,,,,,,,,,,magenta,I
0.0,7.0,0.0,1.0,4.0,4.0,313.2525500000156,3.0,1.0,phase_1,,,,,,,,,,,,,cyan,flipped triangle
1285.0,4.0,4.0,0.0,2.0,2.0,358.8982100000066,3.0,1.0,phase_1,,,,,,,,,,,,,magenta,I
0.0,4.0,0.0,0.0,4.0,4.0,405.5968460002077,3.0,1.0,phase_1,,,,,,,,,,,,,magenta,I
0.0,5.0,0.0,1.0,4.0,4.0,415.8522429997902,3.0,1.0,phase_1,,,,,,,,,,,,,blue,cross
673.0,3.0,2.0,0.0,3.0,3.0,399.0554800002428,3.0,1.0,phase_1,,,,,,,,,,,,,orange,triangle
0.0,5.0,0.0,1.0,3.0,3.0,388.7092059999304,3.0,1.0,phase_1,,,,,,,,,,,,,blue,cross
0.0,4.0,0.0,0.0,2.0,2.0,332.8990810000505,3.0,1.0,phase_1,,,,,,,,,,,,,magenta,I
165.0,1.0,0.5,0.0,2.0,2.0,396.5139369997814,3.0,1.0,phase_1,,,,,,,,,,,,,gray,square
349.0,6.0,1.0,1.0,2.0,2.0,555.190396999933,3.0,1.0,phase_1,,,,,,,,,,,,,yellow,hexagon
1277.0,8.0,4.0,1.0,3.0,3.0,415.6017300001622,3.0,1.0,phase_1,,,,,,,,,,,,,green,circle
637.0,7.0,2.0,1.0,3.0,3.0,423.0125899998711,3.0,1.0,phase_1,,,,,,,,,,,,,cyan,flipped triangle
639.0,7.0,2.0,1.0,4.0,4.0,379.7980490003283,3.0,1.0,phase_1,,,,,,,,,,,,,cyan,flipped triangle
670.0,3.0,2.0,0.0,2.0,2.0,350.9152779997748,3.0,1.0,phase_1,,,,,,,,,,,,,orange,triangle
673.0,3.0,2.0,0.0,3.0,3.0,369.4730870001876,3.0,1.0,phase_1,,,,,,,,,,,,,orange,triangle
174.0,5.0,0.5,1.0,4.0,4.0,333.2450199995946,3.0,1.0,phase_1,,,,,,,,,,,,,blue,cross
304.0,6.0,1.0,1.0,4.0,4.0,361.064467000233,3.0,1.0,phase_1,,,,,,,,,,,,,yellow,hexagon
658.0,3.0,2.0,0.0,4.0,4.0,350.9801010000046,3.0,1.0,phase_1,,,,,,,,,,,,,orange,triangle
348.0,6.0,1.0,1.0,4.0,4.0,341.8362659999729,3.0,1.0,phase_1,,,,,,,,,,,,,yellow,hexagon
342.0,2.0,1.0,0.0,1.0,1.0,423.7805200000366,3.0,1.0,phase_1,,,,,,,,,,,,,white,diamond
1302.0,8.0,4.0,1.0,2.0,2.0,396.3419770002474,3.0,1.0,phase_1,,,,,,,,,,,,,green,circle
349.0,2.0,1.0,0.0,2.0,2.0,469.3159859998559,3.0,1.0,phase_1,,,,,,,,,,,,,white,diamond
633.0,3.0,2.0,0.0,1.0,1.0,469.7155379999458,3.0,1.0,phase_1,,,,,,,,,,,,,orange,triangle
1323.0,4.0,4.0,0.0,1.0,1.0,441.5860080002858,3.0,1.0,phase_1,,,,,,,,,,,,,magenta,I
668.0,3.0,2.0,0.0,2.0,2.0,395.9357530002307,3.0,1.0,phase_1,,,,,,,,,,,,,orange,triangle
332.0,6.0,1.0,1.0,3.0,3.0,544.7971050002707,3.0,1.0,phase_1,,,,,,,,,,,,,yellow,hexagon
0.0,5.0,0.0,1.0,1.0,1.0,395.0181660002272,3.0,1.0,phase_1,,,,,,,,,,,,,blue,cross
1292.0,8.0,4.0,1.0,4.0,4.0,442.3435419998895,3.0,1.0,phase_1,,,,,,,,,,,,,green,circle
340.0,2.0,1.0,0.0,1.0,1.0,386.9326549997822,3.0,1.0,phase_1,,,,,,,,,,,,,white,diamond
650.0,3.0,2.0,0.0,4.0,4.0,451.9807870001386,3.0,1.0,phase_1,,,,,,,,,,,,,orange,triangle
139.0,5.0,0.5,1.0,3.0,3.0,370.6238149998171,3.0,1.0,phase_1,,,,,,,,,,,,,blue,cross
306.0,2.0,1.0,0.0,4.0,4.0,368.5514929998135,3.0,1.0,phase_1,,,,,,,,,,,,,white,diamond
310.0,2.0,1.0,0.0,3.0,3.0,406.0025789999599,3.0,1.0,phase_1,,,,,,,,,,,,,white,diamond
1281.0,4.0,4.0,0.0,1.0,1.0,470.5659780001952,3.0,1.0,phase_1,,,,,,,,,,,,,magenta,I
633.0,7.0,2.0,1.0,3.0,3.0,405.1205189998654,3.0,1.0,phase_1,,,,,,,,,,,,,cyan,flipped triangle
628.0,3.0,2.0,0.0,3.0,3.0,387.6450679999834,4.0,1.0,phase_1,,,,,,,,,,,,,orange,triangle
0.0,6.0,0.0,1.0,1.0,1.0,452.9216040000392,4.0,2.0,phase_1,,,,,,,,,,,,,yellow,hexagon
1289.0,8.0,4.0,1.0,1.0,1.0,461.3947919997372,4.0,1.0,phase_1,,,,,,,,,,,,,green,circle
0.0,6.0,0.0,1.0,3.0,3.0,433.2677239999611,4.0,1.0,phase_1,,,,,,,,,,,,,yellow,hexagon
335.0,2.0,1.0,0.0,2.0,2.0,350.6226350000361,4.0,1.0,phase_1,,,,,,,,,,,,,white,diamond
668.0,7.0,2.0,1.0,2.0,2.0,368.5741330000383,4.0,1.0,phase_1,,,,,,,,,,,,,cyan,flipped triangle
140.0,5.0,0.5,1.0,1.0,1.0,461.1455549998027,4.0,1.0,phase_1,,,,,,,,,,,,,blue,cross
646.0,7.0,2.0,1.0,2.0,2.0,404.8377429999164,4.0,1.0,phase_1,,,,,,,,,,,,,cyan,flipped triangle
1297.0,4.0,4.0,0.0,1.0,1.0,461.7371459999049,4.0,1.0,phase_1,,,,,,,,,,,,,magenta,I
144.0,1.0,0.5,0.0,1.0,1.0,452.1358110000619,4.0,1.0,phase_1,,,,,,,,,,,,,gray,square
0.0,1.0,0.0,0.0,4.0,4.0,331.9297419998293,4.0,1.0,phase_1,,,,,,,,,,,,,gray,square
1323.0,8.0,4.0,1.0,1.0,1.0,423.3817200001795,4.0,1.0,phase_1,,,,,,,,,,,,,green,circle
1276.0,8.0,4.0,1.0,4.0,4.0,350.0300239998068,4.0,1.0,phase_1,,,,,,,,,,,,,green,circle
0.0,6.0,0.0,1.0,1.0,1.0,396.3097930000003,4.0,1.0,phase_1,,,,,,,,,,,,,yellow,hexagon
167.0,5.0,0.5,1.0,3.0,3.0,671.9678929998736,4.0,1.0,phase_1,,,,,,,,,,,,,blue,cross
0.0,5.0,0.0,1.0,1.0,1.0,397.9491820000476,4.0,1.0,phase_1,,,,,,,,,,,,,blue,cross
165.0,5.0,0.5,1.0,3.0,3.0,359.4880910000029,4.0,1.0,phase_1,,,,,,,,,,,,,blue,cross
1289.0,4.0,4.0,0.0,3.0,3.0,451.493260999996,4.0,1.0,phase_1,,,,,,,,,,,,,magenta,I
161.0,1.0,0.5,0.0,3.0,3.0,350.1373609997245,4.0,1.0,phase_1,,,,,,,,,,,,,gray,square
337.0,2.0,1.0,0.0,3.0,3.0,350.5321580000782,4.0,1.0,phase_1,,,,,,,,,,,,,white,diamond
0.0,2.0,0.0,0.0,4.0,4.0,349.6347630002674,4.0,1.0,phase_1,,,,,,,,,,,,,white,diamond
0.0,6.0,0.0,1.0,1.0,1.0,396.1768680001114,4.0,1.0,phase_1,,,,,,,,,,,,,yellow,hexagon
306.0,6.0,1.0,1.0,4.0,4.0,387.4808049999956,4.0,1.0,phase_1,,,,,,,,,,,,,yellow,hexagon
160.0,5.0,0.5,1.0,3.0,3.0,386.5674219996435,4.0,1.0,phase_1,,,,,,,,,,,,,blue,cross
1282.0,8.0,4.0,1.0,3.0,3.0,406.2700570002562,4.0,1.0,phase_1,,,,,,,,,,,,,green,circle
312.0,2.0,1.0,0.0,4.0,4.0,377.7142220001224,4.0,1.0,phase_1,,,,,,,,,,,,,white,diamond
668.0,7.0,2.0,1.0,1.0,1.0,422.9307220002738,4.0,1.0,phase_1,,,,,,,,,,,,,cyan,flipped triangle
335.0,2.0,1.0,0.0,3.0,3.0,395.9626509999907,4.0,1.0,phase_1,,,,,,,,,,,,,white,diamond
626.0,7.0,2.0,1.0,1.0,1.0,387.2855479999089,4.0,1.0,phase_1,,,,,,,,,,,,,cyan,flipped triangle
0.0,1.0,0.0,0.0,4.0,4.0,359.3605109999771,4.0,1.0,phase_1,,,,,,,,,,,,,gray,square
1289.0,4.0,4.0,0.0,3.0,3.0,368.2300059999761,4.0,1.0,phase_1,,,,,,,,,,,,,magenta,I
0.0,8.0,0.0,1.0,3.0,3.0,425.1113840000471,4.0,1.0,phase_1,,,,,,,,,,,,,green,circle
340.0,6.0,1.0,1.0,2.0,2.0,312.7871780002351,4.0,1.0,phase_1,,,,,,,,,,,,,yellow,hexagon
1298.0,4.0,4.0,0.0,2.0,2.0,349.9368689999755,4.0,1.0,phase_1,,,,,,,,,,,,,magenta,I
651.0,3.0,2.0,0.0,4.0,4.0,350.789271999929,4.0,1.0,phase_1,,,,,,,,,,,,,orange,triangle
0.0,1.0,0.0,0.0,4.0,4.0,459.9549109998406,4.0,1.0,phase_1,,,,,,,,,,,,,gray,square
1306.0,8.0,4.0,1.0,2.0,2.0,341.4410240002326,4.0,1.0,phase_1,,,,,,,,,,,,,green,circle
329.0,6.0,1.0,1.0,2.0,2.0,645.032762000028,4.0,1.0,phase_1,,,,,,,,,,,,,yellow,hexagon
309.0,2.0,1.0,0.0,4.0,4.0,534.3768759998966,4.0,1.0,phase_1,,,,,,,,,,,,,white,diamond
634.0,7.0,2.0,1.0,2.0,2.0,369.9226379999345,4.0,1.0,phase_1,,,,,,,,,,,,,cyan,flipped triangle
179.0,1.0,0.5,0.0,4.0,4.0,406.1608430001797,4.0,1.0,phase_1,,,,,,,,,,,,,gray,square
180.0,1.0,0.5,0.0,3.0,3.0,360.1053920001504,4.0,1.0,phase_1,,,,,,,,,,,,,gray,square
1323.0,4.0,4.0,0.0,3.0,3.0,460.457531999964,4.0,1.0,phase_1,,,,,,,,,,,,,magenta,I
1289.0,4.0,4.0,0.0,4.0,4.0,387.6534969999738,4.0,1.0,phase_1,,,,,,,,,,,,,magenta,I
646.0,3.0,2.0,0.0,1.0,1.0,499.932329999865,4.0,1.0,phase_1,,,,,,,,,,,,,orange,triangle
628.0,7.0,2.0,1.0,1.0,1.0,451.7812940002841,4.0,1.0,phase_1,,,,,,,,,,,,,cyan,flipped triangle
1307.0,4.0,4.0,0.0,2.0,2.0,367.7732410001226,4.0,1.0,phase_1,,,,,,,,,,,,,magenta,I
1292.0,4.0,4.0,0.0,2.0,2.0,406.0047350003515,4.0,1.0,phase_1,,,,,,,,,,,,,magenta,I
631.0,7.0,2.0,1.0,4.0,4.0,387.2737570000026,4.0,1.0,phase_1,,,,,,,,,,,,,cyan,flipped triangle
658.0,3.0,2.0,0.0,1.0,1.0,368.2722919998014,4.0,1.0,phase_1,,,,,,,,,,,,,orange,triangle
312.0,2.0,1.0,0.0,3.0,3.0,305.1495599997906,4.0,1.0,phase_1,,,,,,,,,,,,,white,diamond
163.0,5.0,0.5,1.0,1.0,1.0,415.4549350000707,4.0,1.0,phase_1,,,,,,,,,,,,,blue,cross
332.0,2.0,1.0,0.0,1.0,1.0,352.6682510000682,4.0,1.0,phase_1,,,,,,,,,,,,,white,diamond
170.0,1.0,0.5,0.0,3.0,3.0,323.2673990000876,4.0,1.0,phase_1,,,,,,,,,,,,,gray,square
0.0,6.0,0.0,1.0,1.0,1.0,396.5055529997698,4.0,1.0,phase_1,,,,,,,,,,,,,yellow,hexagon
1281.0,4.0,4.0,0.0,4.0,4.0,333.6354490002122,4.0,1.0,phase_1,,,,,,,,,,,,,magenta,I
1307.0,8.0,4.0,1.0,2.0,2.0,294.5682330000636,4.0,1.0,phase_1,,,,,,,,,,,,,green,circle
348.0,2.0,1.0,0.0,2.0,2.0,359.4725200000539,4.0,1.0,phase_1,,,,,,,,,,,,,white,diamond
652.0,3.0,2.0,0.0,2.0,2.0,331.8993859998045,4.0,1.0,phase_1,,,,,,,,,,,,,orange,triangle
308.0,2.0,1.0,0.0,4.0,4.0,390.0298120001935,4.0,2.0,phase_1,,,,,,,,,,,,,white,diamond
665.0,3.0,2.0,0.0,1.0,1.0,406.0874439996951,4.0,1.0,phase_1,,,,,,,,,,,,,orange,triangle
162.0,5.0,0.5,1.0,1.0,1.0,423.7150769999971,4.0,1.0,phase_1,,,,,,,,,,,,,blue,cross
151.0,1.0,0.5,0.0,4.0,4.0,416.3887309996426,4.0,1.0,phase_1,,,,,,,,,,,,,gray,square
152.0,5.0,0.5,1.0,2.0,2.0,388.2516500002566,4.0,1.0,phase_1,,,,,,,,,,,,,blue,cross
177.0,5.0,0.5,1.0,2.0,2.0,608.4297510001306,4.0,1.0,phase_1,,,,,,,,,,,,,blue,cross
670.0,7.0,2.0,1.0,4.0,4.0,406.270781999865,4.0,1.0,phase_1,,,,,,,,,,,,,cyan,flipped triangle
637.0,3.0,2.0,0.0,2.0,2.0,359.6518609997474,4.0,1.0,phase_1,,,,,,,,,,,,,orange,triangle
668.0,7.0,2.0,1.0,3.0,3.0,452.9526460000852,4.0,1.0,phase_1,,,,,,,,,,,,,cyan,flipped triangle
153.0,1.0,0.5,0.0,4.0,4.0,407.2051249995638,4.0,1.0,phase_1,,,,,,,,,,,,,gray,square
318.0,2.0,1.0,0.0,3.0,3.0,481.8847739998091,4.0,1.0,phase_1,,,,,,,,,,,,,white,diamond
1313.0,4.0,4.0,0.0,1.0,1.0,471.5469060001851,4.0,1.0,phase_1,,,,,,,,,,,,,magenta,I
1323.0,8.0,4.0,1.0,1.0,1.0,702.8571330001796,4.0,1.0,phase_1,,,,,,,,,,,,,green,circle
668.0,3.0,2.0,0.0,3.0,3.0,451.5627020000465,4.0,1.0,phase_1,,,,,,,,,,,,,orange,triangle
0.0,5.0,0.0,1.0,1.0,1.0,564.0440479996869,4.0,1.0,phase_1,,,,,,,,,,,,,blue,cross
346.0,6.0,1.0,1.0,3.0,3.0,407.0946860001641,4.0,1.0,phase_1,,,,,,,,,,,,,yellow,hexagon
0.0,3.0,0.0,0.0,1.0,1.0,461.8474809999497,4.0,1.0,phase_1,,,,,,,,,,,,,orange,triangle
163.0,1.0,0.5,0.0,1.0,1.0,507.741673000055,4.0,1.0,phase_1,,,,,,,,,,,,,gray,square
147.0,1.0,0.5,0.0,3.0,3.0,471.1193289999755,4.0,1.0,phase_1,,,,,,,,,,,,,gray,square
646.0,3.0,2.0,0.0,4.0,4.0,342.6457959999425,4.0,1.0,phase_1,,,,,,,,,,,,,orange,triangle
174.0,1.0,0.5,0.0,3.0,3.0,433.8431810001566,4.0,1.0,phase_1,,,,,,,,,,,,,gray,square
1321.0,8.0,4.0,1.0,3.0,3.0,457.4302850001004,4.0,1.0,phase_1,,,,,,,,,,,,,green,circle
304.0,6.0,1.0,1.0,1.0,1.0,702.5744100001248,4.0,1.0,phase_1,,,,,,,,,,,,,yellow,hexagon
0.0,4.0,0.0,0.0,3.0,3.0,389.8935869997331,4.0,1.0,phase_1,,,,,,,,,,,,,magenta,I
0.0,4.0,0.0,0.0,2.0,2.0,323.6429940002381,4.0,1.0,phase_1,,,,,,,,,,,,,magenta,I
0.0,8.0,0.0,1.0,4.0,4.0,333.8265230004253,4.0,1.0,phase_1,,,,,,,,,,,,,green,circle
152.0,1.0,0.5,0.0,1.0,1.0,361.1573769999268,4.0,1.0,phase_1,,,,,,,,,,,,,gray,square
665.0,3.0,2.0,0.0,3.0,3.0,305.3242529999806,4.0,1.0,phase_1,,,,,,,,,,,,,orange,triangle
656.0,7.0,2.0,1.0,4.0,4.0,323.3585640000456,4.0,1.0,phase_1,,,,,,,,,,,,,cyan,flipped triangle
178.0,5.0,0.5,1.0,2.0,2.0,332.0745510000051,4.0,1.0,phase_1,,,,,,,,,,,,,blue,cross
0.0,8.0,0.0,1.0,3.0,3.0,361.8193500001325,4.0,1.0,phase_1,,,,,,,,,,,,,green,circle
335.0,6.0,1.0,1.0,2.0,2.0,387.5071689999458,4.0,1.0,phase_1,,,,,,,,,,,,,yellow,hexagon
0.0,6.0,0.0,1.0,2.0,2.0,371.181429000444,4.0,1.0,phase_1,,,,,,,,,,,,,yellow,hexagon
186.0,5.0,0.5,1.0,4.0,4.0,379.7673430003669,4.0,1.0,phase_1,,,,,,,,,,,,,blue,cross
151.0,5.0,0.5,1.0,2.0,2.0,369.0467450001051,4.0,1.0,phase_1,,,,,,,,,,,,,blue,cross
329.0,2.0,1.0,0.0,1.0,1.0,398.1570089999877,4.0,1.0,phase_1,,,,,,,,,,,,,white,diamond
642.0,7.0,2.0,1.0,2.0,2.0,350.8192780000172,4.0,1.0,phase_1,,,,,,,,,,,,,cyan,flipped triangle
664.0,3.0,2.0,0.0,2.0,2.0,353.0691500000102,4.0,1.0,phase_1,,,,,,,,,,,,,orange,triangle
317.0,2.0,1.0,0.0,3.0,3.0,388.298257000315,4.0,1.0,phase_1,,,,,,,,,,,,,white,diamond
0.0,3.0,0.0,0.0,4.0,4.0,361.42719400004347,4.0,1.0,phase_1,,,,,,,,,,,,,orange,triangle
0.0,7.0,0.0,1.0,1.0,1.0,361.6048019998743,4.0,1.0,phase_1,,,,,,,,,,,,,cyan,flipped triangle
0.0,1.0,0.5,0.0,5.0,5.0,398.843023000154,1.0,1.0,phase_2,go,250.0,250.0,1.0,,,,,,,,,gray,square
0.0,8.0,4.0,1.0,5.0,0.0,0.0,1.0,1.0,phase_2,stop,250.0,250.0,4.0,,,,,,,,,green,circle
0.0,3.0,2.0,0.0,6.0,6.0,382.2839770000428,1.0,1.0,phase_2,go,300.0,250.0,1.0,,,,,,,,,orange,triangle
0.0,1.0,0.5,0.0,5.0,5.0,364.6185180004977,1.0,1.0,phase_2,go,300.0,250.0,1.0,,,,,,,,,gray,square
0.0,2.0,1.0,0.0,5.0,5.0,501.33072800053924,1.0,1.0,phase_2,go,300.0,250.0,1.0,,,,,,,,,white,diamond
0.0,4.0,4.0,0.0,6.0,6.0,479.4662119993518,1.0,1.0,phase_2,go,300.0,250.0,1.0,,,,,,,,,magenta,I
0.0,2.0,1.0,0.0,6.0,6.0,456.76930099944,1.0,1.0,phase_2,go,300.0,250.0,1.0,,,,,,,,,white,diamond
0.0,8.0,4.0,1.0,5.0,5.0,428.1273630003852,1.0,1.0,phase_2,stop,300.0,250.0,3.0,,,,,,,,,green,circle
0.0,8.0,4.0,1.0,5.0,5.0,705.5096960002629,1.0,1.0,phase_2,go,250.0,250.0,1.0,,,,,,,,,green,circle
0.0,7.0,2.0,1.0,6.0,6.0,413.5230479996608,1.0,1.0,phase_2,stop,250.0,250.0,3.0,,,,,,,,,cyan,flipped triangle
0.0,5.0,0.5,1.0,5.0,0.0,0.0,1.0,1.0,phase_2,stop,250.0,200.0,4.0,,,,,,,,,blue,cross
0.0,1.0,0.5,0.0,5.0,5.0,445.5335630000263,1.0,1.0,phase_2,go,300.0,200.0,1.0,,,,,,,,,gray,square
0.0,6.0,1.0,1.0,6.0,0.0,0.0,1.0,1.0,phase_2,stop,300.0,200.0,4.0,,,,,,,,,yellow,hexagon
0.0,3.0,2.0,0.0,5.0,5.0,843.2183020004231,1.0,1.0,phase_2,go,300.0,250.0,1.0,,,,,,,,,orange,triangle
0.0,4.0,4.0,0.0,6.0,6.0,445.6760049997683,1.0,1.0,phase_2,go,300.0,250.0,1.0,,,,,,,,,magenta,I
0.0,3.0,2.0,0.0,5.0,5.0,391.0805089999485,1.0,1.0,phase_2,go,300.0,250.0,1.0,,,,,,,,,orange,triangle
0.0,6.0,1.0,1.0,5.0,5.0,380.7134970002153,1.0,1.0,phase_2,stop,300.0,250.0,3.0,,,,,,,,,yellow,hexagon
0.0,7.0,2.0,1.0,5.0,5.0,631.1587099999088,1.0,1.0,phase_2,go,250.0,250.0,1.0,,,,,,,,,cyan,flipped triangle
0.0,7.0,2.0,1.0,5.0,0.0,0.0,1.0,1.0,phase_2,stop,250.0,250.0,4.0,,,,,,,,,cyan,flipped triangle
0.0,7.0,2.0,1.0,5.0,5.0,494.1018760000588,1.0,1.0,phase_2,go,300.0,250.0,1.0,,,,,,,,,cyan,flipped triangle
0.0,5.0,0.5,1.0,6.0,0.0,0.0,1.0,1.0,phase_2,stop,300.0,250.0,4.0,,,,,,,,,blue,cross
0.0,4.0,4.0,0.0,6.0,6.0,624.3351559996881,1.0,1.0,phase_2,go,300.0,300.0,1.0,,,,,,,,,magenta,I
0.0,7.0,2.0,1.0,6.0,6.0,420.8664859997952,1.0,1.0,phase_2,stop,300.0,300.0,3.0,,,,,,,,,cyan,flipped triangle
0.0,5.0,0.5,1.0,5.0,0.0,0.0,1.0,1.0,phase_2,stop,300.0,250.0,4.0,,,,,,,,,blue,cross
0.0,8.0,4.0,1.0,5.0,5.0,446.3370470002701,1.0,1.0,phase_2,stop,350.0,250.0,3.0,,,,,,,,,green,circle
0.0,3.0,2.0,0.0,5.0,5.0,752.3726239996904,1.0,1.0,phase_2,go,300.0,250.0,1.0,,,,,,,,,orange,triangle
0.0,5.0,0.5,1.0,6.0,6.0,558.9115369994033,1.0,1.0,phase_2,go,300.0,250.0,1.0,,,,,,,,,blue,cross
0.0,2.0,1.0,0.0,6.0,6.0,428.9096869997593,1.0,1.0,phase_2,go,300.0,250.0,1.0,,,,,,,,,white,diamond
0.0,7.0,2.0,1.0,5.0,0.0,0.0,1.0,1.0,phase_2,stop,300.0,250.0,4.0,,,,,,,,,cyan,flipped triangle
0.0,4.0,4.0,0.0,6.0,6.0,717.2075059997951,1.0,1.0,phase_2,go,350.0,250.0,1.0,,,,,,,,,magenta,I
0.0,3.0,2.0,0.0,6.0,6.0,548.4257990001424,1.0,1.0,phase_2,go,350.0,250.0,1.0,,,,,,,,,orange,triangle
0.0,8.0,4.0,1.0,6.0,0.0,0.0,1.0,1.0,phase_2,stop,350.0,250.0,4.0,,,,,,,,,green,circle
0.0,7.0,2.0,1.0,6.0,0.0,0.0,1.0,1.0,phase_2,stop,350.0,300.0,4.0,,,,,,,,,cyan,flipped triangle
0.0,1.0,0.5,0.0,6.0,6.0,512.5160549996508,1.0,1.0,phase_2,go,350.0,350.0,1.0,,,,,,,,,gray,square
0.0,2.0,1.0,0.0,5.0,5.0,584.5488819995808,1.0,1.0,phase_2,go,350.0,350.0,1.0,,,,,,,,,white,diamond
0.0,1.0,0.5,0.0,6.0,6.0,446.8852469999547,1.0,1.0,phase_2,go,350.0,350.0,1.0,,,,,,,,,gray,square
0.0,3.0,2.0,0.0,6.0,6.0,520.6638650006425,2.0,1.0,phase_2,go,350.0,350.0,1.0,,,,,,,,,orange,triangle
0.0,5.0,0.5,1.0,5.0,0.0,0.0,2.0,1.0,phase_2,stop,350.0,350.0,4.0,,,,,,,,,blue,cross
0.0,5.0,0.5,1.0,6.0,0.0,0.0,2.0,1.0,phase_2,stop,400.0,350.0,4.0,,,,,,,,,blue,cross
0.0,3.0,2.0,0.0,5.0,5.0,399.7968099993159,2.0,1.0,phase_2,go,400.0,400.0,1.0,,,,,,,,,orange,triangle
0.0,7.0,2.0,1.0,6.0,6.0,380.6758239998089,2.0,1.0,phase_2,stop,400.0,400.0,3.0,,,,,,,,,cyan,flipped triangle
0.0,4.0,4.0,0.0,6.0,6.0,855.2943260001484,2.0,1.0,phase_2,go,400.0,350.0,1.0,,,,,,,,,magenta,I
0.0,3.0,2.0,0.0,6.0,6.0,651.3359600003241,2.0,1.0,phase_2,go,400.0,350.0,1.0,,,,,,,,,orange,triangle
0.0,5.0,0.5,1.0,5.0,5.0,526.569508000648,2.0,1.0,phase_2,stop,400.0,350.0,3.0,,,,,,,,,blue,cross
0.0,5.0,0.5,1.0,6.0,0.0,0.0,2.0,1.0,phase_2,stop,350.0,350.0,4.0,,,,,,,,,blue,cross
0.0,6.0,1.0,1.0,5.0,5.0,558.9829089994964,2.0,1.0,phase_2,go,350.0,400.0,1.0,,,,,,,,,yellow,hexagon
0.0,3.0,2.0,0.0,5.0,5.0,412.2392520002904,2.0,1.0,phase_2,go,350.0,400.0,1.0,,,,,,,,,orange,triangle
0.0,6.0,1.0,1.0,5.0,0.0,0.0,2.0,1.0,phase_2,stop,350.0,400.0,4.0,,,,,,,,,yellow,hexagon
0.0,3.0,2.0,0.0,6.0,6.0,696.8694819997836,2.0,1.0,phase_2,go,400.0,400.0,1.0,,,,,,,,,orange,triangle
0.0,2.0,1.0,0.0,5.0,5.0,668.4198650000326,2.0,1.0,phase_2,go,400.0,400.0,1.0,,,,,,,,,white,diamond
0.0,8.0,4.0,1.0,6.0,0.0,0.0,2.0,1.0,phase_2,stop,400.0,400.0,4.0,,,,,,,,,green,circle
0.0,6.0,1.0,1.0,5.0,5.0,546.9458249999661,2.0,1.0,phase_2,stop,400.0,450.0,3.0,,,,,,,,,yellow,hexagon
0.0,4.0,4.0,0.0,5.0,5.0,495.1654880005662,2.0,1.0,phase_2,go,350.0,450.0,1.0,,,,,,,,,magenta,I
0.0,2.0,1.0,0.0,5.0,5.0,613.7079110003469,2.0,1.0,phase_2,go,350.0,450.0,1.0,,,,,,,,,white,diamond
0.0,7.0,2.0,1.0,5.0,5.0,379.7771079998711,2.0,1.0,phase_2,stop,350.0,450.0,3.0,,,,,,,,,cyan,flipped triangle
0.0,8.0,4.0,1.0,5.0,0.0,0.0,2.0,1.0,phase_2,stop,300.0,450.0,4.0,,,,,,,,,green,circle
0.0,8.0,4.0,1.0,5.0,5.0,651.7203370003699,2.0,1.0,phase_2,go,350.0,450.0,1.0,,,,,,,,,green,circle
0.0,2.0,1.0,0.0,6.0,6.0,762.1757369997795,2.0,1.0,phase_2,go,350.0,450.0,1.0,,,,,,,,,white,diamond
0.0,7.0,2.0,1.0,6.0,6.0,510.4651139999987,2.0,1.0,phase_2,stop,350.0,450.0,3.0,,,,,,,,,cyan,flipped triangle
0.0,6.0,1.0,1.0,6.0,0.0,0.0,2.0,1.0,phase_2,stop,350.0,400.0,4.0,,,,,,,,,yellow,hexagon
0.0,2.0,1.0,0.0,5.0,5.0,519.3677940005728,2.0,1.0,phase_2,go,350.0,450.0,1.0,,,,,,,,,white,diamond
0.0,1.0,0.5,0.0,5.0,5.0,901.5771080003104,2.0,1.0,phase_2,go,350.0,450.0,1.0,,,,,,,,,gray,square
0.0,2.0,1.0,0.0,6.0,6.0,410.4413220002243,2.0,1.0,phase_2,go,350.0,450.0,1.0,,,,,,,,,white,diamond
0.0,8.0,4.0,1.0,5.0,0.0,0.0,2.0,1.0,phase_2,stop,350.0,450.0,4.0,,,,,,,,,green,circle
0.0,7.0,2.0,1.0,5.0,0.0,0.0,2.0,1.0,phase_2,stop,400.0,450.0,4.0,,,,,,,,,cyan,flipped triangle
0.0,1.0,0.5,0.0,6.0,6.0,372.5932590004959,2.0,1.0,phase_2,go,450.0,450.0,1.0,,,,,,,,,gray,square
0.0,8.0,4.0,1.0,6.0,0.0,0.0,2.0,1.0,phase_2,stop,450.0,450.0,4.0,,,,,,,,,green,circle
0.0,7.0,2.0,1.0,5.0,5.0,883.5810430000492,2.0,1.0,phase_2,go,450.0,500.0,1.0,,,,,,,,,cyan,flipped triangle
0.0,1.0,0.5,0.0,6.0,6.0,745.3596269997433,2.0,1.0,phase_2,go,450.0,500.0,1.0,,,,,,,,,gray,square
0.0,1.0,0.5,0.0,6.0,6.0,586.5010560000883,2.0,1.0,phase_2,go,450.0,500.0,1.0,,,,,,,,,gray,square
0.0,3.0,2.0,0.0,5.0,5.0,574.6487240003262,2.0,1.0,phase_2,go,450.0,500.0,1.0,,,,,,,,,orange,triangle
0.0,4.0,4.0,0.0,5.0,5.0,549.7332579998329,2.0,1.0,phase_2,go,450.0,500.0,1.0,,,,,,,,,magenta,I
0.0,4.0,4.0,0.0,5.0,5.0,789.8725159993774,3.0,1.0,phase_2,go,450.0,500.0,1.0,,,,,,,,,magenta,I
0.0,7.0,2.0,1.0,6.0,6.0,326.8746680005279,3.0,1.0,phase_2,stop,450.0,500.0,3.0,,,,,,,,,cyan,flipped triangle
0.0,1.0,0.5,0.0,6.0,6.0,410.4223859994818,3.0,1.0,phase_2,go,450.0,450.0,1.0,,,,,,,,,gray,square
0.0,2.0,1.0,0.0,5.0,5.0,344.1832909993536,3.0,1.0,phase_2,go,450.0,450.0,1.0,,,,,,,,,white,diamond
0.0,3.0,2.0,0.0,5.0,5.0,427.2467519995189,3.0,1.0,phase_2,go,450.0,450.0,1.0,,,,,,,,,orange,triangle
0.0,1.0,0.5,0.0,6.0,6.0,587.3465299991949,3.0,1.0,phase_2,go,450.0,450.0,1.0,,,,,,,,,gray,square
0.0,6.0,1.0,1.0,5.0,5.0,609.1238220005835,3.0,1.0,phase_2,stop,450.0,450.0,3.0,,,,,,,,,yellow,hexagon
0.0,2.0,1.0,0.0,6.0,6.0,594.2750960002741,3.0,1.0,phase_2,go,400.0,450.0,1.0,,,,,,,,,white,diamond
0.0,8.0,4.0,1.0,5.0,5.0,789.5161090000329,3.0,1.0,phase_2,go,400.0,450.0,1.0,,,,,,,,,green,circle
0.0,3.0,2.0,0.0,6.0,6.0,742.886555000041,3.0,1.0,phase_2,go,400.0,450.0,1.0,,,,,,,,,orange,triangle
0.0,8.0,4.0,1.0,6.0,0.0,0.0,3.0,1.0,phase_2,stop,400.0,450.0,4.0,,,,,,,,,green,circle
0.0,6.0,1.0,1.0,5.0,5.0,659.8637840006631,3.0,1.0,phase_2,go,400.0,500.0,1.0,,,,,,,,,yellow,hexagon
0.0,6.0,1.0,1.0,6.0,6.0,586.6963799999212,3.0,1.0,phase_2,stop,400.0,500.0,3.0,,,,,,,,,yellow,hexagon
0.0,8.0,4.0,1.0,5.0,0.0,0.0,3.0,1.0,phase_2,stop,400.0,450.0,4.0,,,,,,,,,green,circle
0.0,6.0,1.0,1.0,6.0,6.0,558.5718199999974,3.0,1.0,phase_2,go,450.0,450.0,1.0,,,,,,,,,yellow,hexagon
0.0,3.0,2.0,0.0,5.0,5.0,660.6932220001909,3.0,1.0,phase_2,go,450.0,450.0,1.0,,,,,,,,,orange,triangle
0.0,5.0,0.5,1.0,6.0,6.0,428.5240200006228,3.0,1.0,phase_2,stop,450.0,450.0,3.0,,,,,,,,,blue,cross
0.0,4.0,4.0,0.0,5.0,5.0,921.1651830000848,3.0,1.0,phase_2,go,450.0,400.0,1.0,,,,,,,,,magenta,I
0.0,8.0,4.0,1.0,6.0,0.0,0.0,3.0,1.0,phase_2,stop,450.0,400.0,4.0,,,,,,,,,green,circle
0.0,5.0,0.5,1.0,6.0,0.0,0.0,3.0,1.0,phase_2,stop,450.0,450.0,4.0,,,,,,,,,blue,cross
0.0,6.0,1.0,1.0,6.0,6.0,362.9905539992251,3.0,1.0,phase_2,go,450.0,500.0,1.0,,,,,,,,,yellow,hexagon
0.0,6.0,1.0,1.0,6.0,0.0,0.0,3.0,1.0,phase_2,stop,450.0,500.0,4.0,,,,,,,,,yellow,hexagon
0.0,6.0,1.0,1.0,5.0,0.0,0.0,3.0,1.0,phase_2,stop,450.0,550.0,4.0,,,,,,,,,yellow,hexagon
0.0,3.0,2.0,0.0,6.0,6.0,429.1674080004668,3.0,1.0,phase_2,go,500.0,550.0,1.0,,,,,,,,,orange,triangle
0.0,8.0,4.0,1.0,6.0,0.0,0.0,3.0,1.0,phase_2,stop,500.0,550.0,4.0,,,,,,,,,green,circle
0.0,4.0,4.0,0.0,5.0,5.0,659.6290930001487,3.0,1.0,phase_2,go,500.0,600.0,1.0,,,,,,,,,magenta,I
0.0,6.0,1.0,1.0,6.0,0.0,0.0,3.0,1.0,phase_2,stop,500.0,600.0,4.0,,,,,,,,,yellow,hexagon
0.0,4.0,4.0,0.0,5.0,5.0,891.3372719998733,3.0,1.0,phase_2,go,500.0,650.0,1.0,,,,,,,,,magenta,I
0.0,2.0,1.0,0.0,6.0,6.0,714.4298670000353,3.0,1.0,phase_2,go,500.0,650.0,1.0,,,,,,,,,white,diamond
0.0,7.0,2.0,1.0,5.0,5.0,409.5046239999647,3.0,1.0,phase_2,stop,500.0,650.0,3.0,,,,,,,,,cyan,flipped triangle
0.0,5.0,0.5,1.0,6.0,6.0,734.7254059995976,3.0,1.0,phase_2,go,450.0,650.0,1.0,,,,,,,,,blue,cross
0.0,7.0,2.0,1.0,6.0,0.0,0.0,3.0,1.0,phase_2,stop,450.0,650.0,4.0,,,,,,,,,cyan,flipped triangle
0.0,1.0,0.5,0.0,5.0,5.0,417.6434599994536,3.0,1.0,phase_2,go,450.0,700.0,1.0,,,,,,,,,gray,square
0.0,3.0,2.0,0.0,6.0,6.0,809.7452279998834,3.0,1.0,phase_2,go,450.0,700.0,1.0,,,,,,,,,orange,triangle
0.0,6.0,1.0,1.0,5.0,0.0,0.0,3.0,1.0,phase_2,stop,450.0,700.0,4.0,,,,,,,,,yellow,hexagon
0.0,6.0,1.0,1.0,6.0,6.0,695.8789239997714,3.0,1.0,phase_2,go,500.0,700.0,1.0,,,,,,,,,yellow,hexagon
0.0,1.0,0.5,0.0,5.0,5.0,566.8560120002439,4.0,1.0,phase_2,go,500.0,700.0,1.0,,,,,,,,,gray,square
0.0,1.0,0.5,0.0,5.0,5.0,390.0867229995128,4.0,1.0,phase_2,go,500.0,700.0,1.0,,,,,,,,,gray,square
0.0,1.0,0.5,0.0,5.0,5.0,930.8114479999858,4.0,1.0,phase_2,go,500.0,700.0,1.0,,,,,,,,,gray,square
0.0,2.0,1.0,0.0,5.0,5.0,770.8614889997989,4.0,1.0,phase_2,go,500.0,700.0,1.0,,,,,,,,,white,diamond
0.0,8.0,4.0,1.0,6.0,6.0,779.2081909992703,4.0,1.0,phase_2,stop,500.0,700.0,3.0,,,,,,,,,green,circle
0.0,8.0,4.0,1.0,5.0,0.0,0.0,4.0,1.0,phase_2,stop,500.0,650.0,4.0,,,,,,,,,green,circle
0.0,4.0,4.0,0.0,5.0,5.0,390.6936480007061,4.0,1.0,phase_2,go,550.0,650.0,1.0,,,,,,,,,magenta,I
0.0,5.0,0.5,1.0,5.0,5.0,704.4815760000347,4.0,1.0,phase_2,stop,550.0,650.0,3.0,,,,,,,,,blue,cross
0.0,4.0,4.0,0.0,6.0,6.0,875.9589339997547,4.0,1.0,phase_2,go,500.0,650.0,1.0,,,,,,,,,magenta,I
0.0,1.0,0.5,0.0,5.0,5.0,500.8428389992332,4.0,1.0,phase_2,go,500.0,650.0,1.0,,,,,,,,,gray,square
0.0,4.0,4.0,0.0,6.0,6.0,372.0160529992427,4.0,1.0,phase_2,go,500.0,650.0,1.0,,,,,,,,,magenta,I
0.0,7.0,2.0,1.0,6.0,6.0,399.9591879992294,4.0,1.0,phase_2,go,500.0,650.0,1.0,,,,,,,,,cyan,flipped triangle
0.0,1.0,0.5,0.0,6.0,6.0,958.8446729994756,4.0,1.0,phase_2,go,500.0,650.0,1.0,,,,,,,,,gray,square
0.0,1.0,0.5,0.0,5.0,5.0,455.648005000512,4.0,1.0,phase_2,go,500.0,650.0,1.0,,,,,,,,,gray,square
0.0,4.0,4.0,0.0,6.0,6.0,866.1020569998072,4.0,1.0,phase_2,go,500.0,650.0,1.0,,,,,,,,,magenta,I
0.0,1.0,0.5,0.0,5.0,5.0,723.8070780003909,4.0,1.0,phase_2,go,500.0,650.0,1.0,,,,,,,,,gray,square
0.0,6.0,1.0,1.0,6.0,6.0,315.8670089997031,4.0,1.0,phase_2,stop,500.0,650.0,3.0,,,,,,,,,yellow,hexagon
0.0,4.0,4.0,0.0,6.0,6.0,391.1715189997267,4.0,1.0,phase_2,go,500.0,600.0,1.0,,,,,,,,,magenta,I
0.0,1.0,0.5,0.0,6.0,6.0,446.8463579996751,4.0,1.0,phase_2,go,500.0,600.0,1.0,,,,,,,,,gray,square
0.0,4.0,4.0,0.0,5.0,5.0,501.77109699961875,4.0,1.0,phase_2,go,500.0,600.0,1.0,,,,,,,,,magenta,I
0.0,7.0,2.0,1.0,5.0,5.0,390.9440960005668,4.0,1.0,phase_2,stop,500.0,600.0,3.0,,,,,,,,,cyan,flipped triangle
0.0,5.0,0.5,1.0,5.0,5.0,324.5375930000591,4.0,1.0,phase_2,go,450.0,600.0,1.0,,,,,,,,,blue,cross
0.0,4.0,4.0,0.0,6.0,6.0,576.3490939998519,4.0,1.0,phase_2,go,450.0,600.0,1.0,,,,,,,,,magenta,I
0.0,4.0,4.0,0.0,6.0,6.0,344.450673999745,4.0,1.0,phase_2,go,450.0,600.0,1.0,,,,,,,,,magenta,I
0.0,4.0,4.0,0.0,5.0,5.0,501.5678650006521,4.0,1.0,phase_2,go,450.0,600.0,1.0,,,,,,,,,magenta,I
0.0,8.0,4.0,1.0,6.0,6.0,760.875806000513,4.0,1.0,phase_2,go,450.0,600.0,1.0,,,,,,,,,green,circle
0.0,3.0,2.0,0.0,6.0,6.0,391.0505769999872,4.0,1.0,phase_2,go,450.0,600.0,1.0,,,,,,,,,orange,triangle
0.0,2.0,1.0,0.0,5.0,5.0,555.3108909998627,4.0,1.0,phase_2,go,450.0,600.0,1.0,,,,,,,,,white,diamond
0.0,6.0,1.0,1.0,6.0,6.0,427.5099760006924,4.0,1.0,phase_2,go,450.0,600.0,1.0,,,,,,,,,yellow,hexagon
0.0,1.0,0.5,0.0,6.0,6.0,389.204318999873,4.0,1.0,phase_2,go,450.0,600.0,1.0,,,,,,,,,gray,square
0.0,7.0,2.0,1.0,5.0,5.0,334.999895000692,4.0,1.0,phase_2,stop,450.0,600.0,3.0,,,,,,,,,cyan,flipped triangle
0.0,7.0,2.0,1.0,5.0,5.0,520.00877699993,4.0,1.0,phase_2,stop,400.0,600.0,3.0,,,,,,,,,cyan,flipped triangle
0.0,4.0,4.0,0.0,5.0,5.0,780.0676000006206,4.0,1.0,phase_2,go,350.0,600.0,1.0,,,,,,,,,magenta,I
0.0,7.0,2.0,1.0,6.0,6.0,558.7971349996224,4.0,1.0,phase_2,stop,350.0,600.0,3.0,,,,,,,,,cyan,flipped triangle
0.0,5.0,0.5,1.0,5.0,0.0,0.0,4.0,1.0,phase_2,stop,350.0,550.0,4.0,,,,,,,,,blue,cross
0.0,7.0,2.0,1.0,5.0,5.0,382.6394660000005,4.0,1.0,phase_2,stop,400.0,550.0,3.0,,,,,,,,,cyan,flipped triangle
0.0,2.0,1.0,0.0,5.0,5.0,401.4814760002991,5.0,1.0,phase_2,go,350.0,550.0,1.0,,,,,,,,,white,diamond
0.0,2.0,1.0,0.0,6.0,6.0,334.4565630004581,5.0,1.0,phase_2,go,350.0,550.0,1.0,,,,,,,,,white,diamond
0.0,3.0,2.0,0.0,5.0,5.0,483.6054890001833,5.0,1.0,phase_2,go,350.0,550.0,1.0,,,,,,,,,orange,triangle
0.0,8.0,4.0,1.0,6.0,6.0,663.1453440004407,5.0,1.0,phase_2,stop,350.0,550.0,3.0,,,,,,,,,green,circle
0.0,3.0,2.0,0.0,5.0,5.0,726.6569229996094,5.0,1.0,phase_2,go,350.0,500.0,1.0,,,,,,,,,orange,triangle
0.0,5.0,0.5,1.0,5.0,0.0,0.0,5.0,1.0,phase_2,stop,350.0,500.0,4.0,,,,,,,,,blue,cross
0.0,4.0,4.0,0.0,5.0,5.0,725.2474449996953,5.0,1.0,phase_2,go,400.0,500.0,1.0,,,,,,,,,magenta,I
0.0,3.0,2.0,0.0,6.0,6.0,660.7994709993363,5.0,1.0,phase_2,go,400.0,500.0,1.0,,,,,,,,,orange,triangle
0.0,4.0,4.0,0.0,6.0,6.0,732.8422030004731,5.0,1.0,phase_2,go,400.0,500.0,1.0,,,,,,,,,magenta,I
0.0,3.0,2.0,0.0,6.0,6.0,381.7834739993486,5.0,1.0,phase_2,go,400.0,500.0,1.0,,,,,,,,,orange,triangle
0.0,6.0,1.0,1.0,6.0,6.0,663.327639000272,5.0,1.0,phase_2,stop,400.0,500.0,3.0,,,,,,,,,yellow,hexagon
0.0,5.0,0.5,1.0,5.0,5.0,465.1713100001871,5.0,1.0,phase_2,stop,400.0,450.0,3.0,,,,,,,,,blue,cross
0.0,6.0,1.0,1.0,5.0,0.0,0.0,5.0,1.0,phase_2,stop,350.0,450.0,4.0,,,,,,,,,yellow,hexagon
0.0,1.0,0.5,0.0,6.0,6.0,688.9792040001339,5.0,1.0,phase_2,go,400.0,450.0,1.0,,,,,,,,,gray,square
0.0,6.0,1.0,1.0,6.0,0.0,0.0,5.0,1.0,phase_2,stop,400.0,450.0,4.0,,,,,,,,,yellow,hexagon
0.0,7.0,2.0,1.0,5.0,0.0,0.0,5.0,1.0,phase_2,stop,400.0,500.0,4.0,,,,,,,,,cyan,flipped triangle
0.0,2.0,1.0,0.0,6.0,6.0,726.0947099994155,5.0,1.0,phase_2,go,450.0,500.0,1.0,,,,,,,,,white,diamond
0.0,4.0,4.0,0.0,6.0,6.0,428.3083130003433,5.0,1.0,phase_2,go,450.0,500.0,1.0,,,,,,,,,magenta,I
0.0,7.0,2.0,1.0,6.0,6.0,670.4855830002998,5.0,1.0,phase_2,stop,450.0,500.0,3.0,,,,,,,,,cyan,flipped triangle
0.0,7.0,2.0,1.0,6.0,0.0,0.0,5.0,1.0,phase_2,stop,450.0,450.0,4.0,,,,,,,,,cyan,flipped triangle
0.0,8.0,4.0,1.0,6.0,6.0,1123.9753229992857,5.0,1.0,phase_2,go,450.0,500.0,1.0,,,,,,,,,green,circle
0.0,8.0,4.0,1.0,6.0,6.0,570.0999569999112,5.0,1.0,phase_2,go,450.0,500.0,1.0,,,,,,,,,green,circle
0.0,2.0,1.0,0.0,5.0,5.0,577.3950620005053,5.0,1.0,phase_2,go,450.0,500.0,1.0,,,,,,,,,white,diamond
0.0,5.0,0.5,1.0,6.0,6.0,688.4390310005983,5.0,1.0,phase_2,stop,450.0,500.0,3.0,,,,,,,,,blue,cross
0.0,7.0,2.0,1.0,6.0,0.0,0.0,5.0,1.0,phase_2,stop,450.0,450.0,4.0,,,,,,,,,cyan,flipped triangle
0.0,8.0,4.0,1.0,5.0,5.0,707.7471129996411,5.0,1.0,phase_2,go,450.0,500.0,1.0,,,,,,,,,green,circle
0.0,7.0,2.0,1.0,6.0,6.0,781.5239169995039,5.0,1.0,phase_2,go,450.0,500.0,1.0,,,,,,,,,cyan,flipped triangle
0.0,1.0,0.5,0.0,5.0,5.0,746.9850039997254,5.0,1.0,phase_2,go,450.0,500.0,1.0,,,,,,,,,gray,square
0.0,5.0,0.5,1.0,6.0,0.0,0.0,5.0,1.0,phase_2,stop,450.0,500.0,4.0,,,,,,,,,blue,cross
0.0,3.0,2.0,0.0,6.0,6.0,482.2955050003656,5.0,1.0,phase_2,go,450.0,550.0,1.0,,,,,,,,,orange,triangle
0.0,6.0,1.0,1.0,5.0,0.0,0.0,5.0,1.0,phase_2,stop,450.0,550.0,4.0,,,,,,,,,yellow,hexagon
0.0,4.0,4.0,0.0,6.0,6.0,722.6105170002484,5.0,1.0,phase_2,go,500.0,550.0,1.0,,,,,,,,,magenta,I
0.0,7.0,2.0,1.0,6.0,0.0,0.0,5.0,1.0,phase_2,stop,500.0,550.0,4.0,,,,,,,,,cyan,flipped triangle
0.0,2.0,1.0,0.0,6.0,6.0,614.86550599966,5.0,1.0,phase_2,go,500.0,600.0,1.0,,,,,,,,,white,diamond
0.0,5.0,0.5,1.0,5.0,0.0,0.0,5.0,1.0,phase_2,stop,500.0,600.0,4.0,,,,,,,,,blue,cross
0.0,6.0,1.0,1.0,5.0,5.0,427.5873520000459,5.0,1.0,phase_2,stop,550.0,600.0,3.0,,,,,,,,,yellow,hexagon
0.0,6.0,1.0,1.0,5.0,5.0,345.2210849991388,6.0,1.0,phase_2,stop,500.0,600.0,3.0,,,,,,,,,yellow,hexagon
0.0,1.0,0.5,0.0,5.0,5.0,435.48483300037327,6.0,1.0,phase_2,go,450.0,600.0,1.0,,,,,,,,,gray,square
0.0,6.0,1.0,1.0,5.0,5.0,633.0935120004142,6.0,1.0,phase_2,stop,450.0,600.0,3.0,,,,,,,,,yellow,hexagon
0.0,4.0,4.0,0.0,5.0,5.0,651.8739860002825,6.0,1.0,phase_2,go,400.0,600.0,1.0,,,,,,,,,magenta,I
0.0,5.0,0.5,1.0,5.0,5.0,655.097165999905,6.0,1.0,phase_2,go,400.0,600.0,1.0,,,,,,,,,blue,cross
0.0,4.0,4.0,0.0,5.0,5.0,449.7980500000267,6.0,1.0,phase_2,go,400.0,600.0,1.0,,,,,,,,,magenta,I
0.0,6.0,1.0,1.0,5.0,5.0,355.1320189999387,6.0,1.0,phase_2,stop,400.0,600.0,3.0,,,,,,,,,yellow,hexagon
0.0,8.0,4.0,1.0,6.0,6.0,363.3744509997996,6.0,1.0,phase_2,go,350.0,600.0,1.0,,,,,,,,,green,circle
0.0,4.0,4.0,0.0,6.0,6.0,679.0109170005962,6.0,1.0,phase_2,go,350.0,600.0,1.0,,,,,,,,,magenta,I
0.0,1.0,0.5,0.0,6.0,6.0,418.9561520006464,6.0,1.0,phase_2,go,350.0,600.0,1.0,,,,,,,,,gray,square
0.0,7.0,2.0,1.0,5.0,0.0,0.0,6.0,1.0,phase_2,stop,350.0,600.0,4.0,,,,,,,,,cyan,flipped triangle
0.0,8.0,4.0,1.0,5.0,0.0,0.0,6.0,1.0,phase_2,stop,400.0,600.0,4.0,,,,,,,,,green,circle
0.0,2.0,1.0,0.0,6.0,6.0,576.5105760001461,6.0,1.0,phase_2,go,450.0,600.0,1.0,,,,,,,,,white,diamond
0.0,3.0,2.0,0.0,6.0,6.0,678.0796429993643,6.0,1.0,phase_2,go,450.0,600.0,1.0,,,,,,,,,orange,triangle
0.0,8.0,4.0,1.0,6.0,6.0,549.5169039995744,6.0,1.0,phase_2,stop,450.0,600.0,3.0,,,,,,,,,green,circle
0.0,7.0,2.0,1.0,6.0,6.0,699.5433889997003,6.0,1.0,phase_2,go,450.0,550.0,1.0,,,,,,,,,cyan,flipped triangle
0.0,2.0,1.0,0.0,6.0,6.0,374.1114049998941,6.0,1.0,phase_2,go,450.0,550.0,1.0,,,,,,,,,white,diamond
0.0,3.0,2.0,0.0,6.0,6.0,699.2558780002582,6.0,1.0,phase_2,go,450.0,550.0,1.0,,,,,,,,,orange,triangle
0.0,1.0,0.5,0.0,5.0,5.0,623.6047100001088,6.0,1.0,phase_2,go,450.0,550.0,1.0,,,,,,,,,gray,square
0.0,6.0,1.0,1.0,6.0,6.0,600.0187039999219,6.0,1.0,phase_2,stop,450.0,550.0,3.0,,,,,,,,,yellow,hexagon
0.0,7.0,2.0,1.0,5.0,0.0,0.0,6.0,1.0,phase_2,stop,450.0,500.0,4.0,,,,,,,,,cyan,flipped triangle
0.0,4.0,4.0,0.0,5.0,5.0,698.5669199993936,6.0,1.0,phase_2,go,500.0,500.0,1.0,,,,,,,,,magenta,I
0.0,2.0,1.0,0.0,5.0,5.0,587.3707179998746,6.0,1.0,phase_2,go,500.0,500.0,1.0,,,,,,,,,white,diamond
0.0,2.0,1.0,0.0,5.0,5.0,715.4640509997989,6.0,1.0,phase_2,go,500.0,500.0,1.0,,,,,,,,,white,diamond
0.0,5.0,0.5,1.0,6.0,0.0,0.0,6.0,1.0,phase_2,stop,500.0,500.0,4.0,,,,,,,,,blue,cross
0.0,2.0,1.0,0.0,5.0,5.0,625.0792319997345,6.0,1.0,phase_2,go,500.0,550.0,1.0,,,,,,,,,white,diamond
0.0,4.0,4.0,0.0,6.0,6.0,735.1390020003237,6.0,1.0,phase_2,go,500.0,550.0,1.0,,,,,,,,,magenta,I
0.0,2.0,1.0,0.0,5.0,5.0,733.3419449996654,6.0,1.0,phase_2,go,500.0,550.0,1.0,,,,,,,,,white,diamond
0.0,5.0,0.5,1.0,5.0,0.0,0.0,6.0,1.0,phase_2,stop,500.0,550.0,4.0,,,,,,,,,blue,cross
0.0,1.0,0.5,0.0,6.0,6.0,457.9945179993956,6.0,1.0,phase_2,go,550.0,550.0,1.0,,,,,,,,,gray,square
0.0,6.0,1.0,1.0,5.0,5.0,703.8190889998077,6.0,1.0,phase_2,stop,550.0,550.0,3.0,,,,,,,,,yellow,hexagon
0.0,2.0,1.0,0.0,6.0,6.0,688.9922480004316,6.0,1.0,phase_2,go,500.0,550.0,1.0,,,,,,,,,white,diamond
0.0,2.0,1.0,0.0,5.0,5.0,687.5843309999254,6.0,1.0,phase_2,go,500.0,550.0,1.0,,,,,,,,,white,diamond
0.0,8.0,4.0,1.0,5.0,0.0,0.0,6.0,1.0,phase_2,stop,500.0,550.0,4.0,,,,,,,,,green,circle
0.0,5.0,0.5,1.0,6.0,6.0,632.9608220003138,6.0,1.0,phase_2,stop,550.0,550.0,3.0,,,,,,,,,blue,cross
0.0,7.0,2.0,1.0,5.0,0.0,0.0,6.0,1.0,phase_2,stop,550.0,500.0,4.0,,,,,,,,,cyan,flipped triangle
0.0,2.0,1.0,0.0,6.0,6.0,530.6228910003483,7.0,1.0,phase_2,go,600.0,500.0,1.0,,,,,,,,,white,diamond
0.0,3.0,2.0,0.0,5.0,5.0,355.22052000033,7.0,1.0,phase_2,go,600.0,500.0,1.0,,,,,,,,,orange,triangle
0.0,8.0,4.0,1.0,6.0,6.0,445.4715619995113,7.0,1.0,phase_2,stop,600.0,500.0,3.0,,,,,,,,,green,circle
0.0,8.0,4.0,1.0,5.0,5.0,677.3891530001492,7.0,1.0,phase_2,stop,600.0,450.0,3.0,,,,,,,,,green,circle
0.0,2.0,1.0,0.0,5.0,5.0,650.6306840001344,7.0,1.0,phase_2,go,550.0,450.0,1.0,,,,,,,,,white,diamond
0.0,6.0,1.0,1.0,6.0,6.0,607.7451039991502,7.0,1.0,phase_2,stop,550.0,450.0,3.0,,,,,,,,,yellow,hexagon
0.0,4.0,4.0,0.0,5.0,5.0,773.054444999616,7.0,1.0,phase_2,go,550.0,400.0,1.0,,,,,,,,,magenta,I
0.0,8.0,4.0,1.0,6.0,0.0,0.0,7.0,1.0,phase_2,stop,550.0,400.0,4.0,,,,,,,,,green,circle
0.0,5.0,0.5,1.0,6.0,0.0,0.0,7.0,1.0,phase_2,stop,550.0,450.0,4.0,,,,,,,,,blue,cross
0.0,2.0,1.0,0.0,6.0,6.0,670.5286850001357,7.0,1.0,phase_2,go,550.0,500.0,1.0,,,,,,,,,white,diamond
0.0,8.0,4.0,1.0,5.0,5.0,693.8011080001161,7.0,1.0,phase_2,stop,550.0,500.0,3.0,,,,,,,,,green,circle
0.0,2.0,1.0,0.0,6.0,6.0,863.7687439995716,7.0,1.0,phase_2,go,500.0,500.0,1.0,,,,,,,,,white,diamond
0.0,6.0,1.0,1.0,6.0,0.0,0.0,7.0,1.0,phase_2,stop,500.0,500.0,4.0,,,,,,,,,yellow,hexagon
0.0,7.0,2.0,1.0,5.0,0.0,0.0,7.0,1.0,phase_2,stop,500.0,550.0,4.0,,,,,,,,,cyan,flipped triangle
0.0,2.0,1.0,0.0,6.0,6.0,632.3038669997914,7.0,1.0,phase_2,go,550.0,550.0,1.0,,,,,,,,,white,diamond
0.0,7.0,2.0,1.0,6.0,6.0,745.128128000033,7.0,1.0,phase_2,go,550.0,550.0,1.0,,,,,,,,,cyan,flipped triangle
0.0,8.0,4.0,1.0,6.0,0.0,0.0,7.0,1.0,phase_2,stop,550.0,550.0,4.0,,,,,,,,,green,circle
0.0,4.0,4.0,0.0,5.0,5.0,621.2472740007797,7.0,1.0,phase_2,go,550.0,600.0,1.0,,,,,,,,,magenta,I
0.0,6.0,1.0,1.0,6.0,6.0,725.5089779991977,7.0,1.0,phase_2,go,550.0,600.0,1.0,,,,,,,,,yellow,hexagon
0.0,1.0,0.5,0.0,6.0,6.0,903.7980560005964,7.0,1.0,phase_2,go,550.0,600.0,1.0,,,,,,,,,gray,square
0.0,1.0,0.5,0.0,6.0,6.0,1044.3557010003133,7.0,1.0,phase_2,go,550.0,600.0,1.0,,,,,,,,,gray,square
0.0,8.0,4.0,1.0,6.0,6.0,740.6776150000951,7.0,1.0,phase_2,stop,550.0,600.0,3.0,,,,,,,,,green,circle
0.0,1.0,0.5,0.0,5.0,5.0,586.2260929998229,7.0,1.0,phase_2,go,550.0,550.0,1.0,,,,,,,,,gray,square
0.0,5.0,0.5,1.0,6.0,6.0,636.6324680002435,7.0,1.0,phase_2,stop,550.0,550.0,3.0,,,,,,,,,blue,cross
0.0,7.0,2.0,1.0,5.0,5.0,1123.5573719995957,7.0,1.0,phase_2,go,550.0,500.0,1.0,,,,,,,,,cyan,flipped triangle
0.0,5.0,0.5,1.0,5.0,5.0,985.5207210002844,7.0,1.0,phase_2,go,550.0,500.0,1.0,,,,,,,,,blue,cross
0.0,2.0,1.0,0.0,6.0,6.0,707.8412170003503,7.0,1.0,phase_2,go,550.0,500.0,1.0,,,,,,,,,white,diamond
0.0,5.0,0.5,1.0,5.0,5.0,703.7684839997382,7.0,1.0,phase_2,stop,550.0,500.0,3.0,,,,,,,,,blue,cross
0.0,1.0,0.5,0.0,5.0,5.0,790.9216629996081,7.0,1.0,phase_2,go,500.0,500.0,1.0,,,,,,,,,gray,square
0.0,4.0,4.0,0.0,6.0,6.0,811.6866739992474,7.0,1.0,phase_2,go,500.0,500.0,1.0,,,,,,,,,magenta,I
0.0,3.0,2.0,0.0,6.0,6.0,826.622597000096,7.0,1.0,phase_2,go,500.0,500.0,1.0,,,,,,,,,orange,triangle
0.0,6.0,1.0,1.0,5.0,5.0,855.2405009995709,7.0,1.0,phase_2,go,500.0,500.0,1.0,,,,,,,,,yellow,hexagon
0.0,5.0,0.5,1.0,5.0,5.0,399.8956030000045,7.0,1.0,phase_2,stop,500.0,500.0,3.0,,,,,,,,,blue,cross
0.0,8.0,4.0,1.0,5.0,0.0,0.0,7.0,1.0,phase_2,stop,450.0,500.0,4.0,,,,,,,,,green,circle
0.0,3.0,2.0,0.0,5.0,5.0,586.4988610001092,7.0,1.0,phase_2,go,500.0,500.0,1.0,,,,,,,,,orange,triangle
0.0,5.0,0.5,1.0,5.0,5.0,401.8345029999182,7.0,1.0,phase_2,stop,500.0,500.0,3.0,,,,,,,,,blue,cross
0.0,2.0,1.0,0.0,5.0,5.0,373.6778720003713,8.0,1.0,phase_2,go,450.0,500.0,1.0,,,,,,,,,white,diamond
0.0,7.0,2.0,1.0,6.0,6.0,404.3292450005538,8.0,1.0,phase_2,go,450.0,500.0,1.0,,,,,,,,,cyan,flipped triangle
0.0,5.0,0.5,1.0,6.0,6.0,473.8918760003798,8.0,1.0,phase_2,stop,450.0,500.0,3.0,,,,,,,,,blue,cross
0.0,6.0,1.0,1.0,5.0,5.0,447.9511859999547,8.0,1.0,phase_2,stop,450.0,450.0,3.0,,,,,,,,,yellow,hexagon
0.0,3.0,2.0,0.0,6.0,6.0,421.4111530000082,8.0,1.0,phase_2,go,400.0,450.0,1.0,,,,,,,,,orange,triangle
0.0,1.0,0.5,0.0,6.0,6.0,372.0881210001607,8.0,1.0,phase_2,go,400.0,450.0,1.0,,,,,,,,,gray,square
0.0,8.0,4.0,1.0,5.0,0.0,0.0,8.0,1.0,phase_2,stop,400.0,450.0,4.0,,,,,,,,,green,circle
0.0,2.0,1.0,0.0,6.0,6.0,633.7809420001577,8.0,1.0,phase_2,go,450.0,450.0,1.0,,,,,,,,,white,diamond
0.0,1.0,0.5,0.0,6.0,6.0,640.6311219998315,8.0,1.0,phase_2,go,450.0,450.0,1.0,,,,,,,,,gray,square
0.0,4.0,4.0,0.0,5.0,5.0,698.1509500001266,8.0,1.0,phase_2,go,450.0,450.0,1.0,,,,,,,,,magenta,I
0.0,3.0,2.0,0.0,5.0,5.0,456.0060369994971,8.0,1.0,phase_2,go,450.0,450.0,1.0,,,,,,,,,orange,triangle
0.0,3.0,2.0,0.0,5.0,5.0,632.0960960001685,8.0,1.0,phase_2,go,450.0,450.0,1.0,,,,,,,,,orange,triangle
0.0,8.0,4.0,1.0,5.0,0.0,0.0,8.0,1.0,phase_2,stop,450.0,450.0,4.0,,,,,,,,,green,circle
0.0,5.0,0.5,1.0,6.0,0.0,0.0,8.0,1.0,phase_2,stop,500.0,450.0,4.0,,,,,,,,,blue,cross
0.0,5.0,0.5,1.0,6.0,6.0,408.6120549991392,8.0,1.0,phase_2,go,500.0,500.0,1.0,,,,,,,,,blue,cross
0.0,3.0,2.0,0.0,5.0,5.0,556.7699769999308,8.0,1.0,phase_2,go,500.0,500.0,1.0,,,,,,,,,orange,triangle
0.0,5.0,0.5,1.0,5.0,5.0,772.2313639997083,8.0,1.0,phase_2,go,500.0,500.0,1.0,,,,,,,,,blue,cross
0.0,4.0,4.0,0.0,5.0,5.0,541.793663000135,8.0,1.0,phase_2,go,500.0,500.0,1.0,,,,,,,,,magenta,I
0.0,6.0,1.0,1.0,5.0,5.0,810.9580190002816,8.0,1.0,phase_2,go,500.0,500.0,1.0,,,,,,,,,yellow,hexagon
0.0,8.0,4.0,1.0,6.0,6.0,447.1492729999227,8.0,1.0,phase_2,go,500.0,500.0,1.0,,,,,,,,,green,circle
0.0,5.0,0.5,1.0,5.0,5.0,604.0282070007379,8.0,1.0,phase_2,stop,500.0,500.0,3.0,,,,,,,,,blue,cross
0.0,3.0,2.0,0.0,6.0,6.0,596.7783640007838,8.0,1.0,phase_2,go,450.0,500.0,1.0,,,,,,,,,orange,triangle
0.0,1.0,0.5,0.0,6.0,6.0,475.3434610001932,8.0,1.0,phase_2,go,450.0,500.0,1.0,,,,,,,,,gray,square
0.0,2.0,1.0,0.0,5.0,5.0,734.877260999383,8.0,1.0,phase_2,go,450.0,500.0,1.0,,,,,,,,,white,diamond
0.0,6.0,1.0,1.0,6.0,0.0,0.0,8.0,1.0,phase_2,stop,450.0,500.0,4.0,,,,,,,,,yellow,hexagon
0.0,4.0,4.0,0.0,6.0,6.0,578.531782999562,8.0,1.0,phase_2,go,450.0,550.0,1.0,,,,,,,,,magenta,I
0.0,3.0,2.0,0.0,6.0,6.0,511.6021000003457,8.0,1.0,phase_2,go,450.0,550.0,1.0,,,,,,,,,orange,triangle
0.0,3.0,2.0,0.0,5.0,5.0,372.8413290000389,8.0,1.0,phase_2,go,450.0,550.0,1.0,,,,,,,,,orange,triangle
0.0,3.0,2.0,0.0,5.0,5.0,474.0230970000993,8.0,1.0,phase_2,go,450.0,550.0,1.0,,,,,,,,,orange,triangle
0.0,5.0,0.5,1.0,6.0,6.0,790.0672509995275,8.0,1.0,phase_2,go,450.0,550.0,1.0,,,,,,,,,blue,cross
0.0,6.0,1.0,1.0,6.0,6.0,279.6316439998918,8.0,1.0,phase_2,stop,450.0,550.0,3.0,,,,,,,,,yellow,hexagon
0.0,5.0,0.5,1.0,6.0,6.0,383.0022629999803,8.0,1.0,phase_2,go,450.0,500.0,1.0,,,,,,,,,blue,cross
0.0,7.0,2.0,1.0,6.0,6.0,583.184416000222,8.0,1.0,phase_2,stop,450.0,500.0,3.0,,,,,,,,,cyan,flipped triangle
0.0,1.0,0.5,0.0,5.0,5.0,661.474936000559,8.0,1.0,phase_2,go,450.0,450.0,1.0,,,,,,,,,gray,square
0.0,1.0,0.5,0.0,5.0,5.0,540.304395000021,8.0,1.0,phase_2,go,450.0,450.0,1.0,,,,,,,,,gray,square
0.0,3.0,2.0,0.0,5.0,5.0,705.6805719994372,8.0,1.0,phase_2,go,450.0,450.0,1.0,,,,,,,,,orange,triangle
0.0,4.0,4.0,0.0,7.0,3.0,1635.3522370000064,1.0,2.0,phase_3,,,,,1152.0,6.0,576.0,384.0,1152.0,960.0,192.0,768.0,magenta,I
0.0,3.0,2.0,0.0,7.0,4.0,2167.104606999601,1.0,1.0,phase_3,,,,,580.0,5.0,696.0,348.0,464.0,580.0,232.0,116.0,orange,triangle
0.0,4.0,4.0,0.0,7.0,2.0,1807.6312799994407,1.0,1.0,phase_3,,,,,346.0,2.0,692.0,346.0,1038.0,519.0,173.0,865.0,magenta,I
0.0,2.0,1.0,0.0,7.0,6.0,103.5578620003434,1.0,1.0,phase_3,,,,,308.0,2.0,616.0,770.0,924.0,462.0,154.0,308.0,white,diamond
0.0,6.0,1.0,1.0,7.0,5.0,1054.0793509999276,1.0,1.0,phase_3,,,,,348.0,3.0,116.0,464.0,696.0,580.0,348.0,232.0,yellow,hexagon
0.0,3.0,2.0,0.0,7.0,4.0,3892.697949000649,1.0,1.0,phase_3,,,,,865.0,5.0,692.0,173.0,346.0,865.0,1038.0,519.0,orange,triangle
0.0,2.0,1.0,0.0,7.0,6.0,1382.6979939995,1.0,1.0,phase_3,,,,,173.0,1.0,1038.0,865.0,519.0,346.0,692.0,173.0,white,diamond
0.0,6.0,1.0,1.0,7.0,1.0,2086.65136000036,1.0,1.0,phase_3,,,,,960.0,5.0,960.0,192.0,384.0,1152.0,576.0,768.0,yellow,hexagon
0.0,6.0,1.0,1.0,7.0,2.0,1045.6615310004054,1.0,1.0,phase_3,,,,,154.0,1.0,616.0,154.0,462.0,924.0,770.0,308.0,yellow,hexagon
0.0,3.0,2.0,0.0,7.0,3.0,2103.509254000528,1.0,1.0,phase_3,,,,,135.0,1.0,540.0,405.0,135.0,810.0,270.0,675.0,orange,triangle
0.0,5.0,0.5,1.0,7.0,6.0,1714.0600009997795,1.0,1.0,phase_3,,,,,960.0,5.0,192.0,384.0,576.0,768.0,1152.0,960.0,blue,cross
0.0,2.0,1.0,0.0,7.0,3.0,1975.8181850002077,1.0,1.0,phase_3,,,,,232.0,2.0,696.0,580.0,232.0,348.0,116.0,464.0,white,diamond
0.0,3.0,2.0,0.0,7.0,1.0,1374.8501569998552,1.0,1.0,phase_3,,,,,308.0,2.0,308.0,462.0,616.0,924.0,154.0,770.0,orange,triangle
0.0,8.0,4.0,1.0,7.0,2.0,603.093612999146,1.0,1.0,phase_3,,,,,154.0,1.0,462.0,154.0,308.0,924.0,616.0,770.0,green,circle
0.0,7.0,2.0,1.0,7.0,3.0,527.1722809993662,1.0,1.0,phase_3,,,,,540.0,4.0,270.0,405.0,540.0,675.0,135.0,810.0,cyan,flipped triangle
0.0,1.0,0.5,0.0,7.0,6.0,701.8416880000586,1.0,1.0,phase_3,,,,,768.0,4.0,960.0,192.0,576.0,384.0,1152.0,768.0,gray,square
0.0,1.0,0.5,0.0,7.0,2.0,1199.5746169995982,1.0,1.0,phase_3,,,,,405.0,3.0,270.0,405.0,135.0,810.0,540.0,675.0,gray,square
0.0,8.0,4.0,1.0,7.0,2.0,545.0789029991938,1.0,1.0,phase_3,,,,,308.0,2.0,924.0,308.0,462.0,616.0,154.0,770.0,green,circle
0.0,5.0,0.5,1.0,7.0,1.0,887.3814970002059,1.0,1.0,phase_3,,,,,1038.0,6.0,1038.0,346.0,865.0,519.0,692.0,173.0,blue,cross
0.0,5.0,0.5,1.0,7.0,1.0,462.1760780000841,1.0,1.0,phase_3,,,,,768.0,4.0,768.0,960.0,384.0,576.0,192.0,1152.0,blue,cross
0.0,5.0,0.5,1.0,7.0,1.0,221.69314100028708,2.0,1.0,phase_3,,,,,348.0,3.0,348.0,116.0,232.0,580.0,464.0,696.0,blue,cross
0.0,3.0,2.0,0.0,7.0,4.0,637.7535229994464,2.0,1.0,phase_3,,,,,616.0,4.0,924.0,462.0,308.0,616.0,770.0,154.0,orange,triangle
0.0,7.0,2.0,1.0,7.0,5.0,442.8763759997309,2.0,1.0,phase_3,,,,,348.0,3.0,116.0,232.0,696.0,464.0,348.0,580.0,cyan,flipped triangle
0.0,1.0,0.5,0.0,7.0,6.0,629.4758620006178,2.0,1.0,phase_3,,,,,576.0,3.0,960.0,1152.0,768.0,192.0,384.0,576.0,gray,square
0.0,7.0,2.0,1.0,7.0,5.0,1367.108726999504,2.0,1.0,phase_3,,,,,675.0,5.0,135.0,270.0,540.0,810.0,675.0,405.0,cyan,flipped triangle
0.0,2.0,1.0,0.0,7.0,1.0,460.8662540003934,2.0,1.0,phase_3,,,,,1152.0,6.0,1152.0,768.0,192.0,384.0,960.0,576.0,white,diamond
0.0,4.0,4.0,0.0,7.0,2.0,1991.2535020002904,2.0,1.0,phase_3,,,,,308.0,2.0,154.0,308.0,924.0,616.0,770.0,462.0,magenta,I
0.0,4.0,4.0,0.0,7.0,4.0,1962.1178199995484,2.0,1.0,phase_3,,,,,692.0,4.0,346.0,519.0,173.0,692.0,865.0,1038.0,magenta,I
0.0,3.0,2.0,0.0,7.0,5.0,1022.5768469999821,2.0,1.0,phase_3,,,,,232.0,2.0,580.0,116.0,464.0,348.0,232.0,696.0,orange,triangle
0.0,2.0,1.0,0.0,7.0,2.0,516.171174000192,2.0,1.0,phase_3,,,,,116.0,1.0,580.0,116.0,464.0,348.0,232.0,696.0,white,diamond
0.0,8.0,4.0,1.0,7.0,5.0,1606.4897229998678,2.0,1.0,phase_3,,,,,405.0,3.0,540.0,675.0,135.0,810.0,405.0,270.0,green,circle
0.0,4.0,4.0,0.0,7.0,2.0,930.3408880005009,2.0,1.0,phase_3,,,,,924.0,6.0,616.0,924.0,308.0,770.0,154.0,462.0,magenta,I
0.0,2.0,1.0,0.0,7.0,2.0,1776.5164980000918,2.0,1.0,phase_3,,,,,576.0,3.0,960.0,576.0,768.0,1152.0,384.0,192.0,white,diamond
0.0,4.0,4.0,0.0,7.0,5.0,425.6941450003069,2.0,1.0,phase_3,,,,,270.0,2.0,405.0,135.0,675.0,540.0,270.0,810.0,magenta,I
0.0,8.0,4.0,1.0,7.0,2.0,967.764248000094,2.0,1.0,phase_3,,,,,464.0,4.0,348.0,464.0,232.0,580.0,116.0,696.0,green,circle
0.0,4.0,4.0,0.0,7.0,6.0,803.1788799999049,2.0,1.0,phase_3,,,,,580.0,5.0,464.0,232.0,116.0,696.0,348.0,580.0,magenta,I
0.0,1.0,0.5,0.0,7.0,2.0,903.1281110001146,2.0,1.0,phase_3,,,,,692.0,4.0,173.0,692.0,519.0,346.0,1038.0,865.0,gray,square
0.0,1.0,0.5,0.0,7.0,2.0,1242.6852970002074,2.0,1.0,phase_3,,,,,924.0,6.0,154.0,924.0,308.0,616.0,462.0,770.0,gray,square
0.0,1.0,0.5,0.0,7.0,5.0,857.6329309998982,2.0,1.0,phase_3,,,,,1038.0,6.0,173.0,346.0,692.0,519.0,1038.0,865.0,gray,square
0.0,2.0,1.0,0.0,7.0,4.0,635.2815870004633,2.0,1.0,phase_3,,,,,405.0,3.0,270.0,810.0,675.0,405.0,135.0,540.0,white,diamond
0.0,7.0,2.0,1.0,7.0,1.0,923.3290390002368,3.0,1.0,phase_3,,,,,1038.0,6.0,1038.0,865.0,346.0,519.0,692.0,173.0,cyan,flipped triangle
0.0,7.0,2.0,1.0,7.0,4.0,1794.739029000084,3.0,1.0,phase_3,,,,,462.0,3.0,154.0,616.0,924.0,462.0,770.0,308.0,cyan,flipped triangle
0.0,7.0,2.0,1.0,7.0,1.0,856.8002980000529,3.0,1.0,phase_3,,,,,1152.0,6.0,1152.0,384.0,192.0,768.0,960.0,576.0,cyan,flipped triangle
0.0,2.0,1.0,0.0,7.0,5.0,737.1777770003973,3.0,1.0,phase_3,,,,,1038.0,6.0,865.0,692.0,519.0,173.0,1038.0,346.0,white,diamond
0.0,6.0,1.0,1.0,7.0,2.0,965.9416459999192,3.0,1.0,phase_3,,,,,1038.0,6.0,346.0,1038.0,865.0,173.0,519.0,692.0,yellow,hexagon
0.0,5.0,0.5,1.0,7.0,2.0,1889.7667960000035,3.0,1.0,phase_3,,,,,519.0,3.0,865.0,519.0,1038.0,173.0,346.0,692.0,blue,cross
0.0,6.0,1.0,1.0,7.0,3.0,553.6072449995117,3.0,1.0,phase_3,,,,,173.0,1.0,346.0,1038.0,173.0,865.0,519.0,692.0,yellow,hexagon
0.0,3.0,2.0,0.0,7.0,6.0,987.6917929996124,3.0,1.0,phase_3,,,,,960.0,5.0,1152.0,576.0,192.0,768.0,384.0,960.0,orange,triangle
0.0,2.0,1.0,0.0,7.0,2.0,1326.060231000156,3.0,1.0,phase_3,,,,,405.0,3.0,270.0,405.0,675.0,135.0,540.0,810.0,white,diamond
0.0,4.0,4.0,0.0,7.0,3.0,830.4782739996881,3.0,1.0,phase_3,,,,,464.0,4.0,348.0,580.0,464.0,116.0,232.0,696.0,magenta,I
0.0,3.0,2.0,0.0,7.0,6.0,784.4121580001229,3.0,1.0,phase_3,,,,,540.0,4.0,270.0,810.0,675.0,405.0,135.0,540.0,orange,triangle
0.0,6.0,1.0,1.0,7.0,5.0,850.1721550001093,3.0,1.0,phase_3,,,,,675.0,5.0,810.0,540.0,135.0,270.0,675.0,405.0,yellow,hexagon
0.0,5.0,0.5,1.0,7.0,2.0,1125.0871579995874,3.0,1.0,phase_3,,,,,810.0,6.0,675.0,810.0,405.0,270.0,135.0,540.0,blue,cross
0.0,8.0,4.0,1.0,7.0,1.0,922.667765999904,3.0,1.0,phase_3,,,,,696.0,6.0,696.0,348.0,232.0,464.0,580.0,116.0,green,circle
0.0,8.0,4.0,1.0,7.0,2.0,2834.230965999268,3.0,1.0,phase_3,,,,,960.0,5.0,384.0,960.0,576.0,768.0,192.0,1152.0,green,circle
0.0,5.0,0.5,1.0,7.0,1.0,1539.2188720006743,3.0,1.0,phase_3,,,,,616.0,4.0,616.0,924.0,770.0,462.0,308.0,154.0,blue,cross
0.0,4.0,4.0,0.0,7.0,6.0,1069.6190640001078,3.0,1.0,phase_3,,,,,810.0,6.0,405.0,675.0,540.0,135.0,270.0,810.0,magenta,I
0.0,6.0,1.0,1.0,7.0,4.0,1338.4396679994095,3.0,1.0,phase_3,,,,,154.0,1.0,924.0,462.0,616.0,154.0,308.0,770.0,yellow,hexagon
0.0,7.0,2.0,1.0,7.0,2.0,1467.4189369998203,3.0,1.0,phase_3,,,,,770.0,5.0,154.0,770.0,616.0,308.0,462.0,924.0,cyan,flipped triangle
0.0,8.0,4.0,1.0,7.0,3.0,1670.5026110003018,3.0,1.0,phase_3,,,,,865.0,5.0,1038.0,346.0,865.0,173.0,692.0,519.0,green,circle
0.0,5.0,0.5,1.0,7.0,5.0,2471.5245040006266,4.0,1.0,phase_3,,,,,810.0,6.0,135.0,675.0,405.0,540.0,810.0,270.0,blue,cross
0.0,1.0,0.5,0.0,7.0,5.0,1284.315953999794,4.0,1.0,phase_3,,,,,580.0,5.0,348.0,696.0,464.0,116.0,580.0,232.0,gray,square
0.0,7.0,2.0,1.0,7.0,1.0,1701.2887430000774,4.0,1.0,phase_3,,,,,960.0,5.0,960.0,576.0,384.0,1152.0,768.0,192.0,cyan,flipped triangle
0.0,3.0,2.0,0.0,7.0,6.0,1494.5045719996417,4.0,1.0,phase_3,,,,,192.0,1.0,768.0,384.0,576.0,960.0,1152.0,192.0,orange,triangle
0.0,1.0,0.5,0.0,7.0,6.0,1790.8758089997718,4.0,1.0,phase_3,,,,,232.0,2.0,580.0,696.0,116.0,464.0,348.0,232.0,gray,square
0.0,2.0,1.0,0.0,7.0,1.0,1097.1430039999177,4.0,1.0,phase_3,,,,,770.0,5.0,770.0,462.0,154.0,924.0,308.0,616.0,white,diamond
0.0,1.0,0.5,0.0,7.0,3.0,1820.0174300000072,4.0,1.0,phase_3,,,,,154.0,1.0,616.0,924.0,154.0,462.0,308.0,770.0,gray,square
0.0,6.0,1.0,1.0,7.0,2.0,851.2478259999625,4.0,1.0,phase_3,,,,,580.0,5.0,696.0,580.0,116.0,464.0,348.0,232.0,yellow,hexagon
0.0,4.0,4.0,0.0,7.0,5.0,1190.9133680001105,4.0,1.0,phase_3,,,,,192.0,1.0,576.0,960.0,768.0,1152.0,192.0,384.0,magenta,I
0.0,8.0,4.0,1.0,7.0,6.0,1284.583788999953,4.0,1.0,phase_3,,,,,810.0,6.0,405.0,675.0,270.0,135.0,540.0,810.0,green,circle
0.0,6.0,1.0,1.0,7.0,2.0,1376.011778999782,4.0,1.0,phase_3,,,,,960.0,5.0,576.0,960.0,384.0,1152.0,192.0,768.0,yellow,hexagon
0.0,5.0,0.5,1.0,7.0,6.0,1034.28172599979,4.0,1.0,phase_3,,,,,580.0,5.0,232.0,348.0,116.0,464.0,696.0,580.0,blue,cross
0.0,5.0,0.5,1.0,7.0,5.0,2068.4806489998664,4.0,1.0,phase_3,,,,,924.0,6.0,154.0,770.0,308.0,462.0,924.0,616.0,blue,cross
0.0,7.0,2.0,1.0,7.0,1.0,628.8589430005231,4.0,1.0,phase_3,,,,,1038.0,6.0,1038.0,519.0,173.0,692.0,346.0,865.0,cyan,flipped triangle
0.0,7.0,2.0,1.0,7.0,2.0,2057.776532999924,4.0,1.0,phase_3,,,,,348.0,3.0,464.0,348.0,696.0,232.0,116.0,580.0,cyan,flipped triangle
0.0,3.0,2.0,0.0,7.0,2.0,2120.6277450000925,4.0,1.0,phase_3,,,,,519.0,3.0,692.0,519.0,346.0,865.0,1038.0,173.0,orange,triangle
0.0,8.0,4.0,1.0,7.0,5.0,766.2472829997569,4.0,1.0,phase_3,,,,,1152.0,6.0,384.0,768.0,192.0,960.0,1152.0,576.0,green,circle
0.0,1.0,0.5,0.0,7.0,5.0,2664.40618300021,4.0,1.0,phase_3,,,,,135.0,1.0,810.0,675.0,270.0,405.0,135.0,540.0,gray,square
0.0,8.0,4.0,1.0,7.0,5.0,1476.8460099994627,4.0,1.0,phase_3,,,,,865.0,5.0,173.0,692.0,1038.0,346.0,865.0,519.0,green,circle
0.0,6.0,1.0,1.0,7.0,5.0,654.728394999438,4.0,1.0,phase_3,,,,,810.0,6.0,405.0,270.0,540.0,675.0,810.0,135.0,yellow,hexagon
