raw_reward_magnitude,stim_reward,stepwise_reward_magnitude,paired_with_stopping,stim_location,response,reaction_time,block,num_trial_presentations,which_phase,stop_signal_trial_type,left_SSD,right_SSD,accuracy,chosen_bidding_amount,chosen_bidding_level,possible_bid_1,possible_bid_2,possible_bid_3,possible_bid_4,possible_bid_5,possible_bid_6,color_text,shape_text
344.0,2.0,1.0,0.0,4.0,4.0,552.0954520006853,1.0,1.0,phase_1,,,,,,,,,,,,,white,square
168.0,5.0,0.5,1.0,4.0,4.0,391.7804560005606,1.0,1.0,phase_1,,,,,,,,,,,,,orange,diamond
662.0,7.0,2.0,1.0,1.0,1.0,346.0102950002692,1.0,1.0,phase_1,,,,,,,,,,,,,gray,hexagon
157.0,5.0,0.5,1.0,2.0,2.0,337.2895170004995,1.0,1.0,phase_1,,,,,,,,,,,,,orange,diamond
0.0,2.0,0.0,0.0,1.0,1.0,252.58145399948262,1.0,1.0,phase_1,,,,,,,,,,,,,white,square
165.0,1.0,0.5,0.0,4.0,4.0,420.7121360004748,1.0,1.0,phase_1,,,,,,,,,,,,,yellow,triangle
1321.0,8.0,4.0,1.0,3.0,3.0,364.495996000187,1.0,1.0,phase_1,,,,,,,,,,,,,magenta,I
0.0,4.0,0.0,0.0,4.0,4.0,357.2144440004194,1.0,1.0,phase_1,,,,,,,,,,,,,cyan,cross
665.0,3.0,2.0,0.0,1.0,1.0,289.9542730001485,1.0,1.0,phase_1,,,,,,,,,,,,,green,circle
0.0,1.0,0.0,0.0,2.0,2.0,442.217960000562,1.0,2.0,phase_1,,,,,,,,,,,,,yellow,triangle
305.0,6.0,1.0,1.0,4.0,4.0,421.9553190005172,1.0,1.0,phase_1,,,,,,,,,,,,,blue,flipped triangle
338.0,2.0,1.0,0.0,2.0,2.0,310.1873220002744,1.0,1.0,phase_1,,,,,,,,,,,,,white,square
148.0,5.0,0.5,1.0,1.0,1.0,449.1224359999251,1.0,1.0,phase_1,,,,,,,,,,,,,orange,diamond
1319.0,8.0,4.0,1.0,2.0,2.0,449.5107660004578,1.0,1.0,phase_1,,,,,,,,,,,,,magenta,I
304.0,2.0,1.0,0.0,3.0,3.0,337.0109750003394,1.0,1.0,phase_1,,,,,,,,,,,,,white,square
0.0,7.0,0.0,1.0,1.0,1.0,318.728455999917,1.0,1.0,phase_1,,,,,,,,,,,,,gray,hexagon
1277.0,4.0,4.0,0.0,2.0,2.0,280.5400140005076,1.0,1.0,phase_1,,,,,,,,,,,,,cyan,cross
0.0,4.0,0.0,0.0,4.0,4.0,318.4018909996666,1.0,1.0,phase_1,,,,,,,,,,,,,cyan,cross
638.0,3.0,2.0,0.0,1.0,1.0,337.9889530006039,1.0,1.0,phase_1,,,,,,,,,,,,,green,circle
1302.0,4.0,4.0,0.0,4.0,4.0,328.2694540002921,1.0,1.0,phase_1,,,,,,,,,,,,,cyan,cross
328.0,6.0,1.0,1.0,3.0,3.0,375.1644580006541,1.0,1.0,phase_1,,,,,,,,,,,,,blue,flipped triangle
339.0,2.0,1.0,0.0,3.0,3.0,354.2486790001931,1.0,1.0,phase_1,,,,,,,,,,,,,white,square
1278.0,4.0,4.0,0.0,1.0,1.0,262.3353150002003,1.0,1.0,phase_1,,,,,,,,,,,,,cyan,cross
661.0,7.0,2.0,1.0,1.0,1.0,384.0242879996367,1.0,2.0,phase_1,,,,,,,,,,,,,gray,hexagon
339.0,6.0,1.0,1.0,4.0,4.0,393.3482010006628,1.0,1.0,phase_1,,,,,,,,,,,,,blue,flipped triangle
639.0,3.0,2.0,0.0,3.0,3.0,383.3869969994339,1.0,1.0,phase_1,,,,,,,,,,,,,green,circle
0.0,7.0,0.0,1.0,3.0,3.0,385.4741009999998,1.0,1.0,phase_1,,,,,,,,,,,,,gray,hexagon
629.0,3.0,2.0,0.0,2.0,2.0,421.4551690001826,1.0,1.0,phase_1,,,,,,,,,,,,,green,circle
181.0,1.0,0.5,0.0,1.0,1.0,299.6984970004632,1.0,1.0,phase_1,,,,,,,,,,,,,yellow,triangle
327.0,6.0,1.0,1.0,1.0,1.0,309.1961489999448,1.0,1.0,phase_1,,,,,,,,,,,,,blue,flipped triangle
0.0,2.0,0.0,0.0,4.0,4.0,347.3486909997518,1.0,1.0,phase_1,,,,,,,,,,,,,white,square
0.0,7.0,0.0,1.0,2.0,2.0,441.5769910001472,1.0,1.0,phase_1,,,,,,,,,,,,,gray,hexagon
667.0,3.0,2.0,0.0,3.0,3.0,374.0574769999512,1.0,1.0,phase_1,,,,,,,,,,,,,green,circle
159.0,5.0,0.5,1.0,4.0,4.0,326.3066919998891,1.0,1.0,phase_1,,,,,,,,,,,,,orange,diamond
0.0,5.0,0.0,1.0,3.0,3.0,299.9841040000319,1.0,1.0,phase_1,,,,,,,,,,,,,orange,diamond
1302.0,8.0,4.0,1.0,4.0,4.0,348.8903489997028,1.0,2.0,phase_1,,,,,,,,,,,,,magenta,I
1321.0,4.0,4.0,0.0,1.0,1.0,252.1535229998335,1.0,1.0,phase_1,,,,,,,,,,,,,cyan,cross
651.0,7.0,2.0,1.0,4.0,4.0,271.9555269995908,1.0,1.0,phase_1,,,,,,,,,,,,,gray,hexagon
332.0,2.0,1.0,0.0,2.0,2.0,320.9229770000092,1.0,1.0,phase_1,,,,,,,,,,,,,white,square
154.0,5.0,0.5,1.0,2.0,2.0,327.5257140003305,1.0,1.0,phase_1,,,,,,,,,,,,,orange,diamond
643.0,7.0,2.0,1.0,3.0,3.0,367.2183810003844,1.0,1.0,phase_1,,,,,,,,,,,,,gray,hexagon
349.0,6.0,1.0,1.0,2.0,2.0,364.5875940001133,1.0,1.0,phase_1,,,,,,,,,,,,,blue,flipped triangle
313.0,6.0,1.0,1.0,4.0,4.0,337.7420389997496,1.0,1.0,phase_1,,,,,,,,,,,,,blue,flipped triangle
143.0,1.0,0.5,0.0,4.0,4.0,377.3918030001368,1.0,1.0,phase_1,,,,,,,,,,,,,yellow,triangle
164.0,5.0,0.5,1.0,2.0,2.0,338.1895859993165,1.0,1.0,phase_1,,,,,,,,,,,,,orange,diamond
300.0,2.0,1.0,0.0,3.0,3.0,360.0838290003594,1.0,1.0,phase_1,,,,,,,,,,,,,white,square
1302.0,8.0,4.0,1.0,4.0,4.0,411.1682880002263,1.0,2.0,phase_1,,,,,,,,,,,,,magenta,I
168.0,1.0,0.5,0.0,2.0,2.0,272.8424790002464,1.0,1.0,phase_1,,,,,,,,,,,,,yellow,triangle
1285.0,8.0,4.0,1.0,4.0,4.0,356.8098240002655,1.0,1.0,phase_1,,,,,,,,,,,,,magenta,I
162.0,5.0,0.5,1.0,2.0,2.0,318.7121490000209,1.0,1.0,phase_1,,,,,,,,,,,,,orange,diamond
643.0,3.0,2.0,0.0,4.0,4.0,356.0873790002006,1.0,1.0,phase_1,,,,,,,,,,,,,green,circle
674.0,3.0,2.0,0.0,2.0,2.0,290.9792139998899,1.0,1.0,phase_1,,,,,,,,,,,,,green,circle
344.0,2.0,1.0,0.0,1.0,1.0,478.3817990000898,1.0,2.0,phase_1,,,,,,,,,,,,,white,square
1283.0,4.0,4.0,0.0,2.0,2.0,328.0751740003325,1.0,1.0,phase_1,,,,,,,,,,,,,cyan,cross
318.0,2.0,1.0,0.0,2.0,2.0,328.1271209998522,1.0,1.0,phase_1,,,,,,,,,,,,,white,square
627.0,3.0,2.0,0.0,2.0,2.0,338.6083860004873,1.0,1.0,phase_1,,,,,,,,,,,,,green,circle
304.0,2.0,1.0,0.0,3.0,3.0,386.3022549994639,1.0,1.0,phase_1,,,,,,,,,,,,,white,square
651.0,3.0,2.0,0.0,4.0,4.0,327.5757869996596,1.0,1.0,phase_1,,,,,,,,,,,,,green,circle
0.0,5.0,0.0,1.0,3.0,3.0,422.077944999728,1.0,1.0,phase_1,,,,,,,,,,,,,orange,diamond
0.0,2.0,0.0,0.0,3.0,3.0,367.2640750000937,1.0,1.0,phase_1,,,,,,,,,,,,,white,square
173.0,1.0,0.5,0.0,3.0,3.0,336.5778469997167,1.0,1.0,phase_1,,,,,,,,,,,,,yellow,triangle
183.0,1.0,0.5,0.0,2.0,2.0,331.722883999646,1.0,1.0,phase_1,,,,,,,,,,,,,yellow,triangle
1278.0,8.0,4.0,1.0,1.0,1.0,339.8210269997435,1.0,1.0,phase_1,,,,,,,,,,,,,magenta,I
674.0,7.0,2.0,1.0,3.0,3.0,441.9947019996471,1.0,1.0,phase_1,,,,,,,,,,,,,gray,hexagon
1312.0,4.0,4.0,0.0,4.0,4.0,311.1589270001786,1.0,1.0,phase_1,,,,,,,,,,,,,cyan,cross
627.0,7.0,2.0,1.0,4.0,4.0,392.9359940002541,1.0,1.0,phase_1,,,,,,,,,,,,,gray,hexagon
0.0,2.0,0.0,0.0,1.0,1.0,290.1481159997274,1.0,1.0,phase_1,,,,,,,,,,,,,white,square
0.0,1.0,0.0,0.0,3.0,3.0,349.2007859995283,1.0,1.0,phase_1,,,,,,,,,,,,,yellow,triangle
655.0,3.0,2.0,0.0,1.0,1.0,636.945231000027,1.0,1.0,phase_1,,,,,,,,,,,,,green,circle
0.0,4.0,0.0,0.0,3.0,3.0,376.0487960007594,1.0,1.0,phase_1,,,,,,,,,,,,,cyan,cross
331.0,6.0,1.0,1.0,2.0,2.0,431.7323840004974,1.0,2.0,phase_1,,,,,,,,,,,,,blue,flipped triangle
626.0,3.0,2.0,0.0,2.0,2.0,403.3244010006456,1.0,1.0,phase_1,,,,,,,,,,,,,green,circle
186.0,5.0,0.5,1.0,1.0,1.0,376.181861999612,1.0,1.0,phase_1,,,,,,,,,,,,,orange,diamond
632.0,3.0,2.0,0.0,2.0,2.0,404.3461159999424,1.0,1.0,phase_1,,,,,,,,,,,,,green,circle
160.0,1.0,0.5,0.0,3.0,3.0,496.578295999825,1.0,1.0,phase_1,,,,,,,,,,,,,yellow,triangle
334.0,2.0,1.0,0.0,4.0,4.0,376.2408649999997,1.0,1.0,phase_1,,,,,,,,,,,,,white,square
146.0,1.0,0.5,0.0,4.0,4.0,469.7372230002656,1.0,1.0,phase_1,,,,,,,,,,,,,yellow,triangle
0.0,3.0,0.0,0.0,1.0,1.0,345.4087400004937,1.0,1.0,phase_1,,,,,,,,,,,,,green,circle
670.0,3.0,2.0,0.0,4.0,4.0,328.8672259996019,1.0,1.0,phase_1,,,,,,,,,,,,,green,circle
664.0,7.0,2.0,1.0,4.0,4.0,364.998478000416,1.0,1.0,phase_1,,,,,,,,,,,,,gray,hexagon
144.0,1.0,0.5,0.0,1.0,1.0,460.5345929994655,1.0,2.0,phase_1,,,,,,,,,,,,,yellow,triangle
339.0,2.0,1.0,0.0,2.0,2.0,337.3095639999519,1.0,1.0,phase_1,,,,,,,,,,,,,white,square
165.0,1.0,0.5,0.0,4.0,4.0,356.8235870006901,1.0,1.0,phase_1,,,,,,,,,,,,,yellow,triangle
665.0,7.0,2.0,1.0,2.0,2.0,327.9792399998769,1.0,1.0,phase_1,,,,,,,,,,,,,gray,hexagon
332.0,6.0,1.0,1.0,3.0,3.0,423.1660639998154,1.0,1.0,phase_1,,,,,,,,,,,,,blue,flipped triangle
634.0,3.0,2.0,0.0,1.0,1.0,412.1795700002622,1.0,1.0,phase_1,,,,,,,,,,,,,green,circle
179.0,5.0,0.5,1.0,1.0,1.0,392.8971010000168,1.0,1.0,phase_1,,,,,,,,,,,,,orange,diamond
333.0,2.0,1.0,0.0,1.0,1.0,420.581864000269,1.0,1.0,phase_1,,,,,,,,,,,,,white,square
1323.0,4.0,4.0,0.0,2.0,2.0,327.3886830002084,1.0,1.0,phase_1,,,,,,,,,,,,,cyan,cross
1285.0,4.0,4.0,0.0,1.0,1.0,375.9179609996863,1.0,1.0,phase_1,,,,,,,,,,,,,cyan,cross
342.0,2.0,1.0,0.0,2.0,2.0,281.9761639993885,1.0,1.0,phase_1,,,,,,,,,,,,,white,square
305.0,2.0,1.0,0.0,1.0,1.0,336.5057940000042,1.0,1.0,phase_1,,,,,,,,,,,,,white,square
1322.0,4.0,4.0,0.0,1.0,1.0,383.5914010005581,1.0,1.0,phase_1,,,,,,,,,,,,,cyan,cross
305.0,2.0,1.0,0.0,2.0,2.0,318.8531469995723,1.0,1.0,phase_1,,,,,,,,,,,,,white,square
661.0,3.0,2.0,0.0,1.0,1.0,346.677092000391,1.0,1.0,phase_1,,,,,,,,,,,,,green,circle
644.0,7.0,2.0,1.0,4.0,4.0,478.4788119995937,1.0,1.0,phase_1,,,,,,,,,,,,,gray,hexagon
0.0,6.0,0.0,1.0,1.0,1.0,373.6426539999229,1.0,1.0,phase_1,,,,,,,,,,,,,blue,flipped triangle
1309.0,8.0,4.0,1.0,4.0,4.0,393.6534970007415,1.0,1.0,phase_1,,,,,,,,,,,,,magenta,I
1279.0,8.0,4.0,1.0,1.0,1.0,356.4370900003268,1.0,1.0,phase_1,,,,,,,,,,,,,magenta,I
0.0,7.0,0.0,1.0,3.0,3.0,366.3492480000059,1.0,2.0,phase_1,,,,,,,,,,,,,gray,hexagon
0.0,3.0,0.0,0.0,3.0,3.0,406.0868540000228,2.0,1.0,phase_1,,,,,,,,,,,,,green,circle
186.0,1.0,0.5,0.0,2.0,2.0,374.5181650001541,2.0,2.0,phase_1,,,,,,,,,,,,,yellow,triangle
632.0,7.0,2.0,1.0,2.0,2.0,449.778265000532,2.0,1.0,phase_1,,,,,,,,,,,,,gray,hexagon
165.0,5.0,0.5,1.0,1.0,1.0,468.4222810001301,2.0,1.0,phase_1,,,,,,,,,,,,,orange,diamond
1307.0,8.0,4.0,1.0,2.0,2.0,543.7510330002624,2.0,1.0,phase_1,,,,,,,,,,,,,magenta,I
1280.0,4.0,4.0,0.0,1.0,1.0,374.5192200003657,2.0,1.0,phase_1,,,,,,,,,,,,,cyan,cross
346.0,2.0,1.0,0.0,1.0,1.0,345.9124700002576,2.0,1.0,phase_1,,,,,,,,,,,,,white,square
0.0,3.0,0.0,0.0,2.0,2.0,319.2121960000804,2.0,1.0,phase_1,,,,,,,,,,,,,green,circle
1322.0,8.0,4.0,1.0,4.0,4.0,431.7064529996059,2.0,2.0,phase_1,,,,,,,,,,,,,magenta,I
147.0,1.0,0.5,0.0,4.0,4.0,357.0407310007795,2.0,1.0,phase_1,,,,,,,,,,,,,yellow,triangle
176.0,5.0,0.5,1.0,4.0,4.0,327.7692950005075,2.0,1.0,phase_1,,,,,,,,,,,,,orange,diamond
1289.0,4.0,4.0,0.0,1.0,1.0,347.0440029996098,2.0,1.0,phase_1,,,,,,,,,,,,,cyan,cross
305.0,6.0,1.0,1.0,1.0,1.0,291.0607760004495,2.0,1.0,phase_1,,,,,,,,,,,,,blue,flipped triangle
324.0,6.0,1.0,1.0,2.0,2.0,393.8673530001324,2.0,1.0,phase_1,,,,,,,,,,,,,blue,flipped triangle
0.0,3.0,0.0,0.0,2.0,2.0,403.5724260002098,2.0,1.0,phase_1,,,,,,,,,,,,,green,circle
0.0,3.0,0.0,0.0,2.0,2.0,329.256912999881,2.0,1.0,phase_1,,,,,,,,,,,,,green,circle
639.0,7.0,2.0,1.0,2.0,2.0,337.9818109997359,2.0,1.0,phase_1,,,,,,,,,,,,,gray,hexagon
651.0,7.0,2.0,1.0,3.0,3.0,348.2703919999039,2.0,1.0,phase_1,,,,,,,,,,,,,gray,hexagon
634.0,7.0,2.0,1.0,3.0,3.0,347.0512800004144,2.0,2.0,phase_1,,,,,,,,,,,,,gray,hexagon
667.0,3.0,2.0,0.0,4.0,4.0,366.6306499999336,2.0,1.0,phase_1,,,,,,,,,,,,,green,circle
670.0,7.0,2.0,1.0,1.0,1.0,412.061098999402,2.0,1.0,phase_1,,,,,,,,,,,,,gray,hexagon
0.0,3.0,0.0,0.0,4.0,4.0,412.4127370005226,2.0,1.0,phase_1,,,,,,,,,,,,,green,circle
655.0,7.0,2.0,1.0,1.0,1.0,394.1604869996808,2.0,1.0,phase_1,,,,,,,,,,,,,gray,hexagon
154.0,1.0,0.5,0.0,1.0,1.0,403.9209269994899,2.0,1.0,phase_1,,,,,,,,,,,,,yellow,triangle
177.0,5.0,0.5,1.0,3.0,3.0,383.08289100041287,2.0,1.0,phase_1,,,,,,,,,,,,,orange,diamond
632.0,7.0,2.0,1.0,2.0,2.0,514.8946409999553,2.0,1.0,phase_1,,,,,,,,,,,,,gray,hexagon
161.0,5.0,0.5,1.0,3.0,3.0,393.8846790006209,2.0,1.0,phase_1,,,,,,,,,,,,,orange,diamond
342.0,6.0,1.0,1.0,2.0,2.0,477.0919200000207,2.0,1.0,phase_1,,,,,,,,,,,,,blue,flipped triangle
316.0,2.0,1.0,0.0,3.0,3.0,412.4118179997822,2.0,1.0,phase_1,,,,,,,,,,,,,white,square
185.0,1.0,0.5,0.0,4.0,4.0,581.9066419999217,2.0,1.0,phase_1,,,,,,,,,,,,,yellow,triangle
1283.0,8.0,4.0,1.0,4.0,4.0,430.7099979996565,2.0,1.0,phase_1,,,,,,,,,,,,,magenta,I
303.0,2.0,1.0,0.0,1.0,1.0,429.5835989996703,2.0,1.0,phase_1,,,,,,,,,,,,,white,square
176.0,1.0,0.5,0.0,1.0,1.0,403.3113590003268,2.0,1.0,phase_1,,,,,,,,,,,,,yellow,triangle
303.0,2.0,1.0,0.0,1.0,1.0,449.1417919998639,2.0,1.0,phase_1,,,,,,,,,,,,,white,square
177.0,1.0,0.5,0.0,3.0,3.0,382.9502080006932,2.0,1.0,phase_1,,,,,,,,,,,,,yellow,triangle
630.0,7.0,2.0,1.0,2.0,2.0,375.8109540003715,2.0,1.0,phase_1,,,,,,,,,,,,,gray,hexagon
661.0,3.0,2.0,0.0,4.0,4.0,468.7437839993436,2.0,1.0,phase_1,,,,,,,,,,,,,green,circle
305.0,2.0,1.0,0.0,4.0,4.0,365.8435420002206,2.0,1.0,phase_1,,,,,,,,,,,,,white,square
0.0,8.0,0.0,1.0,4.0,4.0,420.8028779994492,2.0,1.0,phase_1,,,,,,,,,,,,,magenta,I
0.0,7.0,0.0,1.0,2.0,2.0,375.8307629996125,2.0,1.0,phase_1,,,,,,,,,,,,,gray,hexagon
0.0,4.0,0.0,0.0,1.0,1.0,328.2327449996955,2.0,2.0,phase_1,,,,,,,,,,,,,cyan,cross
1300.0,4.0,4.0,0.0,4.0,4.0,365.4255669998747,2.0,1.0,phase_1,,,,,,,,,,,,,cyan,cross
185.0,5.0,0.5,1.0,2.0,2.0,356.1181480008599,2.0,1.0,phase_1,,,,,,,,,,,,,orange,diamond
652.0,3.0,2.0,0.0,1.0,1.0,392.9647880004268,2.0,1.0,phase_1,,,,,,,,,,,,,green,circle
304.0,6.0,1.0,1.0,4.0,4.0,402.5219269997251,2.0,1.0,phase_1,,,,,,,,,,,,,blue,flipped triangle
0.0,8.0,0.0,1.0,4.0,4.0,421.6424610003741,2.0,1.0,phase_1,,,,,,,,,,,,,magenta,I
1312.0,4.0,4.0,0.0,3.0,3.0,356.0001599998941,2.0,1.0,phase_1,,,,,,,,,,,,,cyan,cross
344.0,6.0,1.0,1.0,1.0,1.0,337.2381320004933,2.0,1.0,phase_1,,,,,,,,,,,,,blue,flipped triangle
182.0,1.0,0.5,0.0,1.0,1.0,308.5247630006051,2.0,1.0,phase_1,,,,,,,,,,,,,yellow,triangle
143.0,5.0,0.5,1.0,2.0,2.0,393.1226990007417,2.0,2.0,phase_1,,,,,,,,,,,,,orange,diamond
639.0,7.0,2.0,1.0,2.0,2.0,374.4614279994493,2.0,1.0,phase_1,,,,,,,,,,,,,gray,hexagon
349.0,2.0,1.0,0.0,3.0,3.0,384.1295599995646,2.0,1.0,phase_1,,,,,,,,,,,,,white,square
1279.0,8.0,4.0,1.0,1.0,1.0,374.2297669996333,2.0,1.0,phase_1,,,,,,,,,,,,,magenta,I
318.0,6.0,1.0,1.0,1.0,1.0,384.349638000458,2.0,1.0,phase_1,,,,,,,,,,,,,blue,flipped triangle
160.0,5.0,0.5,1.0,4.0,4.0,468.8365390002218,2.0,1.0,phase_1,,,,,,,,,,,,,orange,diamond
1290.0,4.0,4.0,0.0,2.0,2.0,413.3482369998091,2.0,1.0,phase_1,,,,,,,,,,,,,cyan,cross
1307.0,4.0,4.0,0.0,4.0,4.0,412.2327539998878,2.0,1.0,phase_1,,,,,,,,,,,,,cyan,cross
0.0,5.0,0.0,1.0,3.0,3.0,448.6056990008364,2.0,1.0,phase_1,,,,,,,,,,,,,orange,diamond
336.0,2.0,1.0,0.0,4.0,4.0,328.37677399948,2.0,1.0,phase_1,,,,,,,,,,,,,white,square
349.0,2.0,1.0,0.0,4.0,4.0,328.6313729995527,2.0,1.0,phase_1,,,,,,,,,,,,,white,square
312.0,6.0,1.0,1.0,1.0,1.0,392.9791250002381,2.0,1.0,phase_1,,,,,,,,,,,,,blue,flipped triangle
0.0,5.0,0.0,1.0,4.0,4.0,422.0292840000184,2.0,1.0,phase_1,,,,,,,,,,,,,orange,diamond
0.0,2.0,0.0,0.0,2.0,2.0,365.1429270003063,2.0,1.0,phase_1,,,,,,,,,,,,,white,square
1290.0,4.0,4.0,0.0,3.0,3.0,392.0194060001449,2.0,1.0,phase_1,,,,,,,,,,,,,cyan,cross
667.0,7.0,2.0,1.0,4.0,4.0,421.6284900003302,2.0,1.0,phase_1,,,,,,,,,,,,,gray,hexagon
629.0,7.0,2.0,1.0,3.0,3.0,374.1584919998786,2.0,1.0,phase_1,,,,,,,,,,,,,gray,hexagon
659.0,7.0,2.0,1.0,3.0,3.0,374.4357499999751,2.0,1.0,phase_1,,,,,,,,,,,,,gray,hexagon
658.0,3.0,2.0,0.0,4.0,4.0,402.3957709996466,2.0,1.0,phase_1,,,,,,,,,,,,,green,circle
659.0,3.0,2.0,0.0,3.0,3.0,309.6935339999618,2.0,1.0,phase_1,,,,,,,,,,,,,green,circle
0.0,3.0,0.0,0.0,2.0,2.0,383.3403850003378,2.0,1.0,phase_1,,,,,,,,,,,,,green,circle
339.0,6.0,1.0,1.0,3.0,3.0,409.9321289995714,2.0,1.0,phase_1,,,,,,,,,,,,,blue,flipped triangle
1291.0,8.0,4.0,1.0,3.0,3.0,346.0228959993401,2.0,1.0,phase_1,,,,,,,,,,,,,magenta,I
1305.0,4.0,4.0,0.0,2.0,2.0,310.0743499999225,2.0,1.0,phase_1,,,,,,,,,,,,,cyan,cross
140.0,5.0,0.5,1.0,3.0,3.0,366.1017690001245,2.0,1.0,phase_1,,,,,,,,,,,,,orange,diamond
1289.0,4.0,4.0,0.0,3.0,3.0,356.116590000056,2.0,1.0,phase_1,,,,,,,,,,,,,cyan,cross
344.0,6.0,1.0,1.0,2.0,2.0,384.5871550001902,2.0,1.0,phase_1,,,,,,,,,,,,,blue,flipped triangle
150.0,5.0,0.5,1.0,4.0,4.0,450.5097810006191,2.0,1.0,phase_1,,,,,,,,,,,,,orange,diamond
148.0,1.0,0.5,0.0,2.0,2.0,336.5330359993095,2.0,1.0,phase_1,,,,,,,,,,,,,yellow,triangle
662.0,3.0,2.0,0.0,3.0,3.0,338.0253830000583,2.0,2.0,phase_1,,,,,,,,,,,,,green,circle
661.0,7.0,2.0,1.0,4.0,4.0,358.849403000022,2.0,1.0,phase_1,,,,,,,,,,,,,gray,hexagon
0.0,8.0,0.0,1.0,3.0,3.0,328.1916549995003,2.0,1.0,phase_1,,,,,,,,,,,,,magenta,I
1279.0,4.0,4.0,0.0,4.0,4.0,422.5591370004622,2.0,1.0,phase_1,,,,,,,,,,,,,cyan,cross
1280.0,8.0,4.0,1.0,2.0,2.0,374.7392080003919,2.0,1.0,phase_1,,,,,,,,,,,,,magenta,I
1309.0,4.0,4.0,0.0,2.0,2.0,383.5891019998598,2.0,1.0,phase_1,,,,,,,,,,,,,cyan,cross
182.0,5.0,0.5,1.0,3.0,3.0,375.0121419998322,2.0,1.0,phase_1,,,,,,,,,,,,,orange,diamond
1297.0,4.0,4.0,0.0,1.0,1.0,309.9606480000147,2.0,1.0,phase_1,,,,,,,,,,,,,cyan,cross
0.0,7.0,0.0,1.0,3.0,3.0,374.3320399998993,2.0,1.0,phase_1,,,,,,,,,,,,,gray,hexagon
1324.0,8.0,4.0,1.0,2.0,2.0,440.0760810003703,2.0,1.0,phase_1,,,,,,,,,,,,,magenta,I
1279.0,4.0,4.0,0.0,4.0,4.0,318.9369689998784,2.0,1.0,phase_1,,,,,,,,,,,,,cyan,cross
162.0,1.0,0.5,0.0,2.0,2.0,337.4506669997572,2.0,1.0,phase_1,,,,,,,,,,,,,yellow,triangle
0.0,1.0,0.0,0.0,2.0,2.0,435.5589870001495,2.0,1.0,phase_1,,,,,,,,,,,,,yellow,triangle
671.0,7.0,2.0,1.0,2.0,2.0,327.5319510003101,2.0,1.0,phase_1,,,,,,,,,,,,,gray,hexagon
346.0,6.0,1.0,1.0,2.0,2.0,309.9870959995314,2.0,1.0,phase_1,,,,,,,,,,,,,blue,flipped triangle
152.0,1.0,0.5,0.0,4.0,4.0,392.4683459999869,2.0,1.0,phase_1,,,,,,,,,,,,,yellow,triangle
0.0,3.0,0.0,0.0,4.0,4.0,384.4868859996495,2.0,1.0,phase_1,,,,,,,,,,,,,green,circle
328.0,2.0,1.0,0.0,3.0,3.0,392.9456710002341,2.0,1.0,phase_1,,,,,,,,,,,,,white,square
327.0,2.0,1.0,0.0,3.0,3.0,420.9709300002942,2.0,1.0,phase_1,,,,,,,,,,,,,white,square
0.0,6.0,0.0,1.0,2.0,2.0,355.5152600001747,2.0,1.0,phase_1,,,,,,,,,,,,,blue,flipped triangle
1291.0,8.0,4.0,1.0,1.0,1.0,346.5419399999518,2.0,1.0,phase_1,,,,,,,,,,,,,magenta,I
331.0,2.0,1.0,0.0,1.0,1.0,337.6196159997562,2.0,1.0,phase_1,,,,,,,,,,,,,white,square
324.0,2.0,1.0,0.0,2.0,2.0,525.5979710000247,3.0,1.0,phase_1,,,,,,,,,,,,,white,square
1291.0,4.0,4.0,0.0,3.0,3.0,403.8851689992953,3.0,1.0,phase_1,,,,,,,,,,,,,cyan,cross
664.0,3.0,2.0,0.0,4.0,4.0,431.1677699997744,3.0,1.0,phase_1,,,,,,,,,,,,,green,circle
154.0,1.0,0.5,0.0,1.0,1.0,488.0261470007099,3.0,1.0,phase_1,,,,,,,,,,,,,yellow,triangle
1323.0,4.0,4.0,0.0,3.0,3.0,393.4120080002685,3.0,1.0,phase_1,,,,,,,,,,,,,cyan,cross
0.0,5.0,0.0,1.0,2.0,2.0,412.3234979997505,3.0,1.0,phase_1,,,,,,,,,,,,,orange,diamond
304.0,2.0,1.0,0.0,3.0,3.0,412.9815669994059,3.0,1.0,phase_1,,,,,,,,,,,,,white,square
0.0,3.0,0.0,0.0,2.0,2.0,308.8960869999937,3.0,1.0,phase_1,,,,,,,,,,,,,green,circle
346.0,2.0,1.0,0.0,1.0,1.0,449.8110650001763,3.0,1.0,phase_1,,,,,,,,,,,,,white,square
0.0,6.0,0.0,1.0,1.0,1.0,356.8142289996103,3.0,1.0,phase_1,,,,,,,,,,,,,blue,flipped triangle
1319.0,8.0,4.0,1.0,1.0,1.0,356.2851360002241,3.0,1.0,phase_1,,,,,,,,,,,,,magenta,I
664.0,3.0,2.0,0.0,1.0,1.0,394.4947899999533,3.0,1.0,phase_1,,,,,,,,,,,,,green,circle
317.0,6.0,1.0,1.0,1.0,1.0,403.3148600001368,3.0,1.0,phase_1,,,,,,,,,,,,,blue,flipped triangle
0.0,4.0,0.0,0.0,2.0,2.0,394.8995010005092,3.0,1.0,phase_1,,,,,,,,,,,,,cyan,cross
327.0,6.0,1.0,1.0,4.0,4.0,366.0256020002634,3.0,1.0,phase_1,,,,,,,,,,,,,blue,flipped triangle
651.0,7.0,2.0,1.0,4.0,4.0,421.3527239999166,3.0,1.0,phase_1,,,,,,,,,,,,,gray,hexagon
154.0,5.0,0.5,1.0,1.0,1.0,358.4210950002671,3.0,1.0,phase_1,,,,,,,,,,,,,orange,diamond
642.0,7.0,2.0,1.0,2.0,2.0,384.3954750000193,3.0,1.0,phase_1,,,,,,,,,,,,,gray,hexagon
144.0,5.0,0.5,1.0,3.0,3.0,486.5397929997925,3.0,1.0,phase_1,,,,,,,,,,,,,orange,diamond
1311.0,8.0,4.0,1.0,2.0,2.0,358.9531899997382,3.0,1.0,phase_1,,,,,,,,,,,,,magenta,I
665.0,3.0,2.0,0.0,1.0,1.0,358.2808679993832,3.0,1.0,phase_1,,,,,,,,,,,,,green,circle
649.0,7.0,2.0,1.0,3.0,3.0,477.3037059994749,3.0,1.0,phase_1,,,,,,,,,,,,,gray,hexagon
165.0,5.0,0.5,1.0,1.0,1.0,511.1680259997229,3.0,1.0,phase_1,,,,,,,,,,,,,orange,diamond
159.0,1.0,0.5,0.0,1.0,1.0,401.7440159996113,3.0,1.0,phase_1,,,,,,,,,,,,,yellow,triangle
0.0,7.0,0.0,1.0,2.0,2.0,517.43599800011,3.0,1.0,phase_1,,,,,,,,,,,,,gray,hexagon
320.0,2.0,1.0,0.0,2.0,2.0,517.5472419996368,3.0,1.0,phase_1,,,,,,,,,,,,,white,square
138.0,5.0,0.5,1.0,2.0,2.0,414.2117170003985,3.0,1.0,phase_1,,,,,,,,,,,,,orange,diamond
0.0,2.0,0.0,0.0,2.0,2.0,384.6089019998544,3.0,1.0,phase_1,,,,,,,,,,,,,white,square
0.0,8.0,0.0,1.0,3.0,3.0,430.5139830003099,3.0,1.0,phase_1,,,,,,,,,,,,,magenta,I
632.0,3.0,2.0,0.0,2.0,2.0,426.3212460000432,3.0,1.0,phase_1,,,,,,,,,,,,,green,circle
644.0,3.0,2.0,0.0,3.0,3.0,392.8339960002631,3.0,1.0,phase_1,,,,,,,,,,,,,green,circle
173.0,5.0,0.5,1.0,2.0,2.0,411.6493320007066,3.0,1.0,phase_1,,,,,,,,,,,,,orange,diamond
140.0,1.0,0.5,0.0,1.0,1.0,459.5048840001254,3.0,1.0,phase_1,,,,,,,,,,,,,yellow,triangle
664.0,7.0,2.0,1.0,2.0,2.0,374.4098669994855,3.0,1.0,phase_1,,,,,,,,,,,,,gray,hexagon
1323.0,8.0,4.0,1.0,3.0,3.0,432.6155310000104,3.0,1.0,phase_1,,,,,,,,,,,,,magenta,I
0.0,4.0,0.0,0.0,4.0,4.0,448.7310909998996,3.0,1.0,phase_1,,,,,,,,,,,,,cyan,cross
649.0,7.0,2.0,1.0,1.0,1.0,526.7822139994678,3.0,1.0,phase_1,,,,,,,,,,,,,gray,hexagon
0.0,4.0,0.0,0.0,4.0,4.0,477.3839039999075,3.0,1.0,phase_1,,,,,,,,,,,,,cyan,cross
667.0,7.0,2.0,1.0,1.0,1.0,430.7264749995738,3.0,1.0,phase_1,,,,,,,,,,,,,gray,hexagon
1280.0,8.0,4.0,1.0,4.0,4.0,424.7318959996846,3.0,1.0,phase_1,,,,,,,,,,,,,magenta,I
1323.0,8.0,4.0,1.0,1.0,1.0,414.0099539999937,3.0,1.0,phase_1,,,,,,,,,,,,,magenta,I
0.0,8.0,0.0,1.0,1.0,1.0,384.0038839998669,3.0,1.0,phase_1,,,,,,,,,,,,,magenta,I
150.0,1.0,0.5,0.0,2.0,2.0,384.2432210003608,3.0,1.0,phase_1,,,,,,,,,,,,,yellow,triangle
153.0,5.0,0.5,1.0,1.0,1.0,374.1295939998963,3.0,1.0,phase_1,,,,,,,,,,,,,orange,diamond
313.0,2.0,1.0,0.0,4.0,4.0,448.2109720001972,3.0,1.0,phase_1,,,,,,,,,,,,,white,square
651.0,3.0,2.0,0.0,4.0,4.0,404.6461360003377,3.0,1.0,phase_1,,,,,,,,,,,,,green,circle
1291.0,4.0,4.0,0.0,1.0,1.0,318.2656179997138,3.0,1.0,phase_1,,,,,,,,,,,,,cyan,cross
0.0,6.0,0.0,1.0,1.0,1.0,420.4801259993473,3.0,1.0,phase_1,,,,,,,,,,,,,blue,flipped triangle
630.0,3.0,2.0,0.0,3.0,3.0,374.561900000117,3.0,1.0,phase_1,,,,,,,,,,,,,green,circle
1295.0,8.0,4.0,1.0,4.0,4.0,411.7730220004887,3.0,1.0,phase_1,,,,,,,,,,,,,magenta,I
304.0,6.0,1.0,1.0,3.0,3.0,392.0633299994733,3.0,1.0,phase_1,,,,,,,,,,,,,blue,flipped triangle
150.0,1.0,0.5,0.0,2.0,2.0,391.8693839996194,3.0,1.0,phase_1,,,,,,,,,,,,,yellow,triangle
1302.0,8.0,4.0,1.0,2.0,2.0,448.392283999965,3.0,1.0,phase_1,,,,,,,,,,,,,magenta,I
671.0,3.0,2.0,0.0,2.0,2.0,524.0854230005425,3.0,1.0,phase_1,,,,,,,,,,,,,green,circle
161.0,1.0,0.5,0.0,2.0,2.0,383.9308140004505,3.0,1.0,phase_1,,,,,,,,,,,,,yellow,triangle
146.0,5.0,0.5,1.0,1.0,1.0,439.6810139996887,3.0,1.0,phase_1,,,,,,,,,,,,,orange,diamond
0.0,7.0,0.0,1.0,4.0,4.0,486.3144010005271,3.0,1.0,phase_1,,,,,,,,,,,,,gray,hexagon
148.0,1.0,0.5,0.0,3.0,3.0,700.7441929999914,3.0,1.0,phase_1,,,,,,,,,,,,,yellow,triangle
157.0,1.0,0.5,0.0,4.0,4.0,485.3844899998876,3.0,1.0,phase_1,,,,,,,,,,,,,yellow,triangle
169.0,5.0,0.5,1.0,3.0,3.0,373.4469370001534,3.0,1.0,phase_1,,,,,,,,,,,,,orange,diamond
304.0,6.0,1.0,1.0,2.0,2.0,431.6909150002175,3.0,1.0,phase_1,,,,,,,,,,,,,blue,flipped triangle
638.0,7.0,2.0,1.0,1.0,1.0,430.0775430001522,3.0,1.0,phase_1,,,,,,,,,,,,,gray,hexagon
0.0,1.0,0.0,0.0,4.0,4.0,402.4873569996998,3.0,1.0,phase_1,,,,,,,,,,,,,yellow,triangle
138.0,1.0,0.5,0.0,3.0,3.0,374.2616150002504,3.0,1.0,phase_1,,,,,,,,,,,,,yellow,triangle
335.0,2.0,1.0,0.0,1.0,1.0,375.9200630001942,3.0,1.0,phase_1,,,,,,,,,,,,,white,square
1280.0,4.0,4.0,0.0,2.0,2.0,430.5556549998073,3.0,1.0,phase_1,,,,,,,,,,,,,cyan,cross
0.0,2.0,0.0,0.0,1.0,1.0,422.08282000046887,3.0,1.0,phase_1,,,,,,,,,,,,,white,square
349.0,6.0,1.0,1.0,3.0,3.0,373.6021369995796,3.0,1.0,phase_1,,,,,,,,,,,,,blue,flipped triangle
0.0,2.0,0.0,0.0,4.0,4.0,393.3106690001295,3.0,1.0,phase_1,,,,,,,,,,,,,white,square
1311.0,4.0,4.0,0.0,2.0,2.0,402.03413800009,3.0,1.0,phase_1,,,,,,,,,,,,,cyan,cross
138.0,5.0,0.5,1.0,2.0,2.0,411.5198800000144,3.0,1.0,phase_1,,,,,,,,,,,,,orange,diamond
0.0,1.0,0.0,0.0,2.0,2.0,365.9839900001316,3.0,1.0,phase_1,,,,,,,,,,,,,yellow,triangle
652.0,7.0,2.0,1.0,4.0,4.0,413.8446169999952,3.0,1.0,phase_1,,,,,,,,,,,,,gray,hexagon
0.0,7.0,0.0,1.0,2.0,2.0,421.9036229997073,3.0,1.0,phase_1,,,,,,,,,,,,,gray,hexagon
147.0,5.0,0.5,1.0,1.0,1.0,421.0464679999859,3.0,1.0,phase_1,,,,,,,,,,,,,orange,diamond
0.0,1.0,0.0,0.0,2.0,2.0,393.676408999454,3.0,1.0,phase_1,,,,,,,,,,,,,yellow,triangle
306.0,2.0,1.0,0.0,4.0,4.0,449.746951000634,3.0,1.0,phase_1,,,,,,,,,,,,,white,square
1312.0,8.0,4.0,1.0,1.0,1.0,471.1797579993799,3.0,1.0,phase_1,,,,,,,,,,,,,magenta,I
0.0,4.0,0.0,0.0,3.0,3.0,432.440958999905,3.0,1.0,phase_1,,,,,,,,,,,,,cyan,cross
334.0,6.0,1.0,1.0,3.0,3.0,404.120769999281,3.0,1.0,phase_1,,,,,,,,,,,,,blue,flipped triangle
333.0,6.0,1.0,1.0,4.0,4.0,424.8505059995295,3.0,1.0,phase_1,,,,,,,,,,,,,blue,flipped triangle
630.0,7.0,2.0,1.0,3.0,3.0,414.8789079999915,3.0,1.0,phase_1,,,,,,,,,,,,,gray,hexagon
158.0,1.0,0.5,0.0,2.0,2.0,385.9768649999751,3.0,1.0,phase_1,,,,,,,,,,,,,yellow,triangle
1321.0,8.0,4.0,1.0,3.0,3.0,404.8209180000413,3.0,1.0,phase_1,,,,,,,,,,,,,magenta,I
169.0,1.0,0.5,0.0,1.0,1.0,451.1101050002253,3.0,1.0,phase_1,,,,,,,,,,,,,yellow,triangle
341.0,2.0,1.0,0.0,4.0,4.0,508.59370099988155,3.0,1.0,phase_1,,,,,,,,,,,,,white,square
183.0,5.0,0.5,1.0,4.0,4.0,414.364371999909,3.0,1.0,phase_1,,,,,,,,,,,,,orange,diamond
649.0,3.0,2.0,0.0,2.0,2.0,442.3009140000431,3.0,1.0,phase_1,,,,,,,,,,,,,green,circle
158.0,5.0,0.5,1.0,3.0,3.0,328.7831179995919,3.0,1.0,phase_1,,,,,,,,,,,,,orange,diamond
0.0,5.0,0.0,1.0,3.0,3.0,310.7725129993923,3.0,1.0,phase_1,,,,,,,,,,,,,orange,diamond
138.0,1.0,0.5,0.0,3.0,3.0,347.1342849998109,3.0,1.0,phase_1,,,,,,,,,,,,,yellow,triangle
0.0,1.0,0.0,0.0,2.0,2.0,385.2773360003994,3.0,1.0,phase_1,,,,,,,,,,,,,yellow,triangle
173.0,1.0,0.5,0.0,1.0,1.0,366.4081019996956,3.0,2.0,phase_1,,,,,,,,,,,,,yellow,triangle
0.0,5.0,0.0,1.0,3.0,3.0,402.0576900002197,3.0,1.0,phase_1,,,,,,,,,,,,,orange,diamond
1324.0,4.0,4.0,0.0,3.0,3.0,394.9142270002994,3.0,1.0,phase_1,,,,,,,,,,,,,cyan,cross
651.0,3.0,2.0,0.0,2.0,2.0,384.0767570000025,3.0,1.0,phase_1,,,,,,,,,,,,,green,circle
173.0,5.0,0.5,1.0,3.0,3.0,722.4137809998865,3.0,1.0,phase_1,,,,,,,,,,,,,orange,diamond
1291.0,4.0,4.0,0.0,4.0,4.0,525.9022639993418,3.0,1.0,phase_1,,,,,,,,,,,,,cyan,cross
1279.0,8.0,4.0,1.0,1.0,1.0,543.9400680006656,3.0,1.0,phase_1,,,,,,,,,,,,,magenta,I
341.0,2.0,1.0,0.0,4.0,4.0,553.8053219997892,3.0,1.0,phase_1,,,,,,,,,,,,,white,square
300.0,6.0,1.0,1.0,4.0,4.0,515.4127389996574,4.0,1.0,phase_1,,,,,,,,,,,,,blue,flipped triangle
1295.0,4.0,4.0,0.0,2.0,2.0,439.6213490008449,4.0,1.0,phase_1,,,,,,,,,,,,,cyan,cross
159.0,1.0,0.5,0.0,4.0,4.0,366.0804940000162,4.0,1.0,phase_1,,,,,,,,,,,,,yellow,triangle
306.0,6.0,1.0,1.0,1.0,1.0,337.7122889996826,4.0,1.0,phase_1,,,,,,,,,,,,,blue,flipped triangle
626.0,7.0,2.0,1.0,1.0,1.0,374.578527000267,4.0,1.0,phase_1,,,,,,,,,,,,,gray,hexagon
303.0,6.0,1.0,1.0,2.0,2.0,355.7613529992522,4.0,1.0,phase_1,,,,,,,,,,,,,blue,flipped triangle
1316.0,4.0,4.0,0.0,3.0,3.0,384.1551539999273,4.0,1.0,phase_1,,,,,,,,,,,,,cyan,cross
183.0,5.0,0.5,1.0,3.0,3.0,393.6654609997276,4.0,1.0,phase_1,,,,,,,,,,,,,orange,diamond
317.0,2.0,1.0,0.0,3.0,3.0,393.6305470006118,4.0,1.0,phase_1,,,,,,,,,,,,,white,square
175.0,1.0,0.5,0.0,3.0,3.0,375.0356669997927,4.0,1.0,phase_1,,,,,,,,,,,,,yellow,triangle
152.0,5.0,0.5,1.0,2.0,2.0,401.3210340008299,4.0,1.0,phase_1,,,,,,,,,,,,,orange,diamond
651.0,7.0,2.0,1.0,3.0,3.0,346.3179829996079,4.0,1.0,phase_1,,,,,,,,,,,,,gray,hexagon
0.0,8.0,0.0,1.0,1.0,1.0,374.72045599952247,4.0,1.0,phase_1,,,,,,,,,,,,,magenta,I
1285.0,4.0,4.0,0.0,1.0,1.0,382.8889730002629,4.0,1.0,phase_1,,,,,,,,,,,,,cyan,cross
655.0,3.0,2.0,0.0,3.0,3.0,374.7728140006074,4.0,1.0,phase_1,,,,,,,,,,,,,green,circle
335.0,6.0,1.0,1.0,3.0,3.0,432.1874160004881,4.0,1.0,phase_1,,,,,,,,,,,,,blue,flipped triangle
183.0,1.0,0.5,0.0,3.0,3.0,384.2928369995206,4.0,1.0,phase_1,,,,,,,,,,,,,yellow,triangle
665.0,7.0,2.0,1.0,4.0,4.0,365.7410109999546,4.0,1.0,phase_1,,,,,,,,,,,,,gray,hexagon
1312.0,8.0,4.0,1.0,2.0,2.0,421.6948969997247,4.0,1.0,phase_1,,,,,,,,,,,,,magenta,I
1302.0,4.0,4.0,0.0,2.0,2.0,451.2099650000891,4.0,1.0,phase_1,,,,,,,,,,,,,cyan,cross
0.0,4.0,0.0,0.0,1.0,1.0,365.8016629997291,4.0,1.0,phase_1,,,,,,,,,,,,,cyan,cross
649.0,3.0,2.0,0.0,3.0,3.0,374.7501379993991,4.0,1.0,phase_1,,,,,,,,,,,,,green,circle
0.0,8.0,0.0,1.0,4.0,4.0,375.2487340007064,4.0,1.0,phase_1,,,,,,,,,,,,,magenta,I
0.0,6.0,0.0,1.0,2.0,2.0,412.3854519993983,4.0,1.0,phase_1,,,,,,,,,,,,,blue,flipped triangle
655.0,7.0,2.0,1.0,1.0,1.0,543.7048610001511,4.0,1.0,phase_1,,,,,,,,,,,,,gray,hexagon
1302.0,8.0,4.0,1.0,1.0,1.0,403.82680500079,4.0,1.0,phase_1,,,,,,,,,,,,,magenta,I
0.0,2.0,0.0,0.0,3.0,3.0,393.1163529996411,4.0,1.0,phase_1,,,,,,,,,,,,,white,square
0.0,5.0,0.0,1.0,4.0,4.0,421.1595269998724,4.0,1.0,phase_1,,,,,,,,,,,,,orange,diamond
645.0,7.0,2.0,1.0,4.0,4.0,496.8928990001586,4.0,1.0,phase_1,,,,,,,,,,,,,gray,hexagon
1297.0,8.0,4.0,1.0,3.0,3.0,356.2663510001584,4.0,1.0,phase_1,,,,,,,,,,,,,magenta,I
0.0,2.0,0.0,0.0,1.0,1.0,608.7163040001542,4.0,1.0,phase_1,,,,,,,,,,,,,white,square
150.0,5.0,0.5,1.0,1.0,1.0,468.9211129998512,4.0,1.0,phase_1,,,,,,,,,,,,,orange,diamond
0.0,4.0,0.0,0.0,1.0,1.0,497.1836579998125,4.0,1.0,phase_1,,,,,,,,,,,,,cyan,cross
0.0,1.0,0.0,0.0,2.0,2.0,421.304851000059,4.0,1.0,phase_1,,,,,,,,,,,,,yellow,triangle
0.0,5.0,0.0,1.0,4.0,4.0,449.1222659999039,4.0,1.0,phase_1,,,,,,,,,,,,,orange,diamond
159.0,5.0,0.5,1.0,4.0,4.0,485.997194000447,4.0,1.0,phase_1,,,,,,,,,,,,,orange,diamond
180.0,1.0,0.5,0.0,2.0,2.0,505.61064500016073,4.0,1.0,phase_1,,,,,,,,,,,,,yellow,triangle
341.0,6.0,1.0,1.0,4.0,4.0,383.04133299971,4.0,1.0,phase_1,,,,,,,,,,,,,blue,flipped triangle
0.0,3.0,0.0,0.0,4.0,4.0,411.887274000037,4.0,1.0,phase_1,,,,,,,,,,,,,green,circle
656.0,7.0,2.0,1.0,3.0,3.0,393.7904220001655,4.0,1.0,phase_1,,,,,,,,,,,,,gray,hexagon
642.0,3.0,2.0,0.0,1.0,1.0,393.4716550002122,4.0,1.0,phase_1,,,,,,,,,,,,,green,circle
317.0,6.0,1.0,1.0,4.0,4.0,412.4699599997257,4.0,1.0,phase_1,,,,,,,,,,,,,blue,flipped triangle
656.0,3.0,2.0,0.0,2.0,2.0,514.8727250007141,4.0,1.0,phase_1,,,,,,,,,,,,,green,circle
0.0,8.0,0.0,1.0,4.0,4.0,403.1505910006672,4.0,1.0,phase_1,,,,,,,,,,,,,magenta,I
0.0,8.0,0.0,1.0,2.0,2.0,375.2364239999224,4.0,1.0,phase_1,,,,,,,,,,,,,magenta,I
1291.0,8.0,4.0,1.0,3.0,3.0,355.7100950001768,4.0,1.0,phase_1,,,,,,,,,,,,,magenta,I
320.0,6.0,1.0,1.0,4.0,4.0,364.4244669994805,4.0,1.0,phase_1,,,,,,,,,,,,,blue,flipped triangle
658.0,7.0,2.0,1.0,1.0,1.0,422.1028199999637,4.0,1.0,phase_1,,,,,,,,,,,,,gray,hexagon
0.0,1.0,0.0,0.0,1.0,1.0,393.5793090004154,4.0,1.0,phase_1,,,,,,,,,,,,,yellow,triangle
1319.0,4.0,4.0,0.0,3.0,3.0,374.5002069999827,4.0,1.0,phase_1,,,,,,,,,,,,,cyan,cross
305.0,6.0,1.0,1.0,3.0,3.0,385.4577049996806,4.0,1.0,phase_1,,,,,,,,,,,,,blue,flipped triangle
1302.0,4.0,4.0,0.0,4.0,4.0,439.2316679995929,4.0,1.0,phase_1,,,,,,,,,,,,,cyan,cross
1290.0,8.0,4.0,1.0,3.0,3.0,432.2824850005418,4.0,1.0,phase_1,,,,,,,,,,,,,magenta,I
1321.0,4.0,4.0,0.0,4.0,4.0,449.8340780000944,4.0,1.0,phase_1,,,,,,,,,,,,,cyan,cross
1290.0,8.0,4.0,1.0,2.0,2.0,505.34016500023426,4.0,1.0,phase_1,,,,,,,,,,,,,magenta,I
0.0,6.0,0.0,1.0,3.0,3.0,403.5181560002456,4.0,1.0,phase_1,,,,,,,,,,,,,blue,flipped triangle
0.0,5.0,0.0,1.0,3.0,3.0,450.9350830003313,4.0,1.0,phase_1,,,,,,,,,,,,,orange,diamond
1289.0,8.0,4.0,1.0,1.0,1.0,403.790886999559,4.0,1.0,phase_1,,,,,,,,,,,,,magenta,I
1305.0,8.0,4.0,1.0,3.0,3.0,356.88172799928,4.0,1.0,phase_1,,,,,,,,,,,,,magenta,I
0.0,6.0,0.0,1.0,4.0,4.0,413.5355299995353,4.0,1.0,phase_1,,,,,,,,,,,,,blue,flipped triangle
626.0,7.0,2.0,1.0,2.0,2.0,395.8291290000488,4.0,2.0,phase_1,,,,,,,,,,,,,gray,hexagon
1319.0,4.0,4.0,0.0,4.0,4.0,412.6249890005056,4.0,1.0,phase_1,,,,,,,,,,,,,cyan,cross
164.0,1.0,0.5,0.0,4.0,4.0,423.5646779998205,4.0,1.0,phase_1,,,,,,,,,,,,,yellow,triangle
341.0,2.0,1.0,0.0,2.0,2.0,348.1528709999111,4.0,1.0,phase_1,,,,,,,,,,,,,white,square
0.0,8.0,0.0,1.0,1.0,1.0,375.2356469994993,4.0,1.0,phase_1,,,,,,,,,,,,,magenta,I
179.0,1.0,0.5,0.0,3.0,3.0,348.3750160003183,4.0,1.0,phase_1,,,,,,,,,,,,,yellow,triangle
1319.0,4.0,4.0,0.0,1.0,1.0,385.1347320005516,4.0,1.0,phase_1,,,,,,,,,,,,,cyan,cross
346.0,6.0,1.0,1.0,1.0,1.0,421.6847269999562,4.0,2.0,phase_1,,,,,,,,,,,,,blue,flipped triangle
303.0,6.0,1.0,1.0,2.0,2.0,516.1204040005032,4.0,1.0,phase_1,,,,,,,,,,,,,blue,flipped triangle
1319.0,8.0,4.0,1.0,2.0,2.0,411.9013550007366,4.0,1.0,phase_1,,,,,,,,,,,,,magenta,I
317.0,2.0,1.0,0.0,1.0,1.0,421.2892630002898,4.0,1.0,phase_1,,,,,,,,,,,,,white,square
0.0,6.0,0.0,1.0,1.0,1.0,394.4309890002841,4.0,1.0,phase_1,,,,,,,,,,,,,blue,flipped triangle
1289.0,8.0,4.0,1.0,4.0,4.0,430.995480999627,4.0,1.0,phase_1,,,,,,,,,,,,,magenta,I
181.0,5.0,0.5,1.0,4.0,4.0,403.6990670001614,4.0,1.0,phase_1,,,,,,,,,,,,,orange,diamond
1300.0,8.0,4.0,1.0,4.0,4.0,411.2722059999214,4.0,1.0,phase_1,,,,,,,,,,,,,magenta,I
0.0,1.0,0.0,0.0,4.0,4.0,403.5977659996206,4.0,1.0,phase_1,,,,,,,,,,,,,yellow,triangle
341.0,6.0,1.0,1.0,3.0,3.0,412.734540999736,4.0,1.0,phase_1,,,,,,,,,,,,,blue,flipped triangle
1279.0,4.0,4.0,0.0,3.0,3.0,421.0552989998177,4.0,1.0,phase_1,,,,,,,,,,,,,cyan,cross
645.0,3.0,2.0,0.0,4.0,4.0,403.6869779993139,4.0,1.0,phase_1,,,,,,,,,,,,,green,circle
1277.0,8.0,4.0,1.0,3.0,3.0,394.6884859997226,4.0,1.0,phase_1,,,,,,,,,,,,,magenta,I
0.0,6.0,0.0,1.0,3.0,3.0,346.3308439995671,4.0,1.0,phase_1,,,,,,,,,,,,,blue,flipped triangle
651.0,3.0,2.0,0.0,3.0,3.0,365.5653659998279,4.0,1.0,phase_1,,,,,,,,,,,,,green,circle
1302.0,4.0,4.0,0.0,3.0,3.0,378.2116440006575,4.0,1.0,phase_1,,,,,,,,,,,,,cyan,cross
312.0,2.0,1.0,0.0,2.0,2.0,534.2421749992354,4.0,1.0,phase_1,,,,,,,,,,,,,white,square
327.0,2.0,1.0,0.0,4.0,4.0,477.8899330003696,4.0,1.0,phase_1,,,,,,,,,,,,,white,square
626.0,3.0,2.0,0.0,3.0,3.0,402.852731999701,4.0,1.0,phase_1,,,,,,,,,,,,,green,circle
630.0,3.0,2.0,0.0,1.0,1.0,441.2441130007209,4.0,1.0,phase_1,,,,,,,,,,,,,green,circle
175.0,5.0,0.5,1.0,4.0,4.0,430.6073370007652,4.0,1.0,phase_1,,,,,,,,,,,,,orange,diamond
1316.0,8.0,4.0,1.0,3.0,3.0,404.3916360005823,4.0,1.0,phase_1,,,,,,,,,,,,,magenta,I
316.0,6.0,1.0,1.0,1.0,1.0,417.7266010001403,4.0,1.0,phase_1,,,,,,,,,,,,,blue,flipped triangle
639.0,3.0,2.0,0.0,4.0,4.0,300.4186969992588,4.0,1.0,phase_1,,,,,,,,,,,,,green,circle
338.0,6.0,1.0,1.0,2.0,2.0,516.2235539992253,4.0,1.0,phase_1,,,,,,,,,,,,,blue,flipped triangle
180.0,5.0,0.5,1.0,4.0,4.0,383.4393810002439,4.0,1.0,phase_1,,,,,,,,,,,,,orange,diamond
1285.0,8.0,4.0,1.0,2.0,2.0,478.3000510005877,4.0,1.0,phase_1,,,,,,,,,,,,,magenta,I
0.0,6.0,0.0,1.0,1.0,1.0,485.9799199994086,4.0,1.0,phase_1,,,,,,,,,,,,,blue,flipped triangle
341.0,6.0,1.0,1.0,1.0,1.0,562.6926360000652,4.0,1.0,phase_1,,,,,,,,,,,,,blue,flipped triangle
148.0,5.0,0.5,1.0,3.0,3.0,403.1750910007758,4.0,1.0,phase_1,,,,,,,,,,,,,orange,diamond
336.0,6.0,1.0,1.0,3.0,3.0,394.2303650001122,4.0,1.0,phase_1,,,,,,,,,,,,,blue,flipped triangle
0.0,7.0,0.0,1.0,2.0,2.0,467.7583080001568,4.0,1.0,phase_1,,,,,,,,,,,,,gray,hexagon
153.0,1.0,0.5,0.0,3.0,3.0,328.1663020006817,4.0,1.0,phase_1,,,,,,,,,,,,,yellow,triangle
0.0,6.0,1.0,1.0,5.0,0.0,0.0,1.0,1.0,phase_2,stop,250.0,250.0,4.0,,,,,,,,,blue,flipped triangle
0.0,1.0,0.5,0.0,6.0,6.0,1022.1109470003285,1.0,1.0,phase_2,go,300.0,250.0,1.0,,,,,,,,,yellow,triangle
0.0,4.0,4.0,0.0,5.0,5.0,1114.5445230004043,1.0,1.0,phase_2,go,300.0,250.0,1.0,,,,,,,,,cyan,cross
0.0,4.0,4.0,0.0,5.0,5.0,1157.8375400004006,1.0,1.0,phase_2,go,300.0,250.0,1.0,,,,,,,,,cyan,cross
0.0,4.0,4.0,0.0,6.0,6.0,1243.9121809993594,1.0,1.0,phase_2,go,300.0,250.0,1.0,,,,,,,,,cyan,cross
0.0,6.0,1.0,1.0,6.0,6.0,890.0016030002007,1.0,1.0,phase_2,stop,300.0,250.0,3.0,,,,,,,,,blue,flipped triangle
0.0,8.0,4.0,1.0,6.0,6.0,805.8459229996515,1.0,1.0,phase_2,stop,300.0,200.0,3.0,,,,,,,,,magenta,I
0.0,8.0,4.0,1.0,6.0,6.0,886.1332750002475,1.0,1.0,phase_2,go,300.0,150.0,1.0,,,,,,,,,magenta,I
0.0,7.0,2.0,1.0,5.0,5.0,981.0424850002164,1.0,1.0,phase_2,go,300.0,150.0,1.0,,,,,,,,,gray,hexagon
0.0,6.0,1.0,1.0,5.0,5.0,740.6289139998989,1.0,1.0,phase_2,go,300.0,150.0,1.0,,,,,,,,,blue,flipped triangle
0.0,7.0,2.0,1.0,6.0,6.0,819.6832129997347,1.0,1.0,phase_2,stop,300.0,150.0,3.0,,,,,,,,,gray,hexagon
0.0,8.0,4.0,1.0,6.0,6.0,762.8575230000934,1.0,1.0,phase_2,stop,300.0,100.0,3.0,,,,,,,,,magenta,I
0.0,5.0,0.5,1.0,6.0,6.0,736.4463100002467,1.0,1.0,phase_2,stop,300.0,50.0,3.0,,,,,,,,,orange,diamond
0.0,8.0,4.0,1.0,5.0,5.0,424.8351510004795,1.0,1.0,phase_2,go,300.0,0.0,1.0,,,,,,,,,magenta,I
0.0,2.0,1.0,0.0,5.0,5.0,471.6947719998643,1.0,1.0,phase_2,go,300.0,0.0,1.0,,,,,,,,,white,square
0.0,7.0,2.0,1.0,5.0,5.0,854.0196289995947,1.0,1.0,phase_2,stop,300.0,0.0,3.0,,,,,,,,,gray,hexagon
0.0,1.0,0.5,0.0,5.0,5.0,885.9097380000094,1.0,1.0,phase_2,go,250.0,0.0,1.0,,,,,,,,,yellow,triangle
0.0,7.0,2.0,1.0,5.0,5.0,740.455763000682,1.0,1.0,phase_2,stop,250.0,0.0,3.0,,,,,,,,,gray,hexagon
0.0,8.0,4.0,1.0,5.0,5.0,657.6046059999499,1.0,1.0,phase_2,stop,200.0,0.0,3.0,,,,,,,,,magenta,I
0.0,5.0,0.5,1.0,6.0,6.0,710.7672809997894,1.0,1.0,phase_2,stop,150.0,0.0,3.0,,,,,,,,,orange,diamond
0.0,1.0,0.5,0.0,6.0,6.0,583.5951709996152,1.0,1.0,phase_2,go,150.0,0.0,1.0,,,,,,,,,yellow,triangle
0.0,7.0,2.0,1.0,6.0,6.0,551.83345200021,1.0,1.0,phase_2,stop,150.0,0.0,3.0,,,,,,,,,gray,hexagon
0.0,4.0,4.0,0.0,6.0,6.0,651.505513000302,1.0,1.0,phase_2,go,150.0,0.0,1.0,,,,,,,,,cyan,cross
0.0,2.0,1.0,0.0,5.0,5.0,715.8523819998663,1.0,1.0,phase_2,go,150.0,0.0,1.0,,,,,,,,,white,square
0.0,5.0,0.5,1.0,5.0,5.0,666.0949850001998,1.0,1.0,phase_2,stop,150.0,0.0,3.0,,,,,,,,,orange,diamond
0.0,1.0,0.5,0.0,6.0,6.0,602.1612969998387,1.0,1.0,phase_2,go,100.0,0.0,1.0,,,,,,,,,yellow,triangle
0.0,8.0,4.0,1.0,5.0,5.0,548.240550000628,1.0,1.0,phase_2,stop,100.0,0.0,3.0,,,,,,,,,magenta,I
0.0,5.0,0.5,1.0,5.0,5.0,497.3263749998295,1.0,1.0,phase_2,stop,50.0,0.0,3.0,,,,,,,,,orange,diamond
0.0,7.0,2.0,1.0,6.0,6.0,466.7173899997578,1.0,1.0,phase_2,stop,0.0,0.0,3.0,,,,,,,,,gray,hexagon
0.0,4.0,4.0,0.0,5.0,5.0,376.4129319997664,1.0,1.0,phase_2,go,0.0,0.0,1.0,,,,,,,,,cyan,cross
0.0,7.0,2.0,1.0,5.0,5.0,468.6109920003218,1.0,1.0,phase_2,stop,0.0,0.0,3.0,,,,,,,,,gray,hexagon
0.0,1.0,0.5,0.0,6.0,6.0,539.1515289993549,1.0,1.0,phase_2,go,0.0,0.0,1.0,,,,,,,,,yellow,triangle
0.0,5.0,0.5,1.0,5.0,5.0,553.4299929995541,1.0,1.0,phase_2,stop,0.0,0.0,3.0,,,,,,,,,orange,diamond
0.0,8.0,4.0,1.0,5.0,5.0,640.0461489993177,1.0,1.0,phase_2,go,0.0,0.0,1.0,,,,,,,,,magenta,I
0.0,6.0,1.0,1.0,6.0,6.0,532.5283819993274,1.0,1.0,phase_2,stop,0.0,0.0,3.0,,,,,,,,,blue,flipped triangle
0.0,3.0,2.0,0.0,6.0,6.0,662.0449059992097,1.0,1.0,phase_2,go,0.0,0.0,1.0,,,,,,,,,green,circle
0.0,3.0,2.0,0.0,5.0,5.0,385.7564049994835,2.0,1.0,phase_2,go,0.0,0.0,1.0,,,,,,,,,green,circle
0.0,4.0,4.0,0.0,5.0,5.0,462.8849010005069,2.0,1.0,phase_2,go,0.0,0.0,1.0,,,,,,,,,cyan,cross
0.0,5.0,0.5,1.0,6.0,6.0,281.4487380001083,2.0,1.0,phase_2,stop,0.0,0.0,3.0,,,,,,,,,orange,diamond
0.0,4.0,4.0,0.0,5.0,5.0,329.6065550002822,2.0,1.0,phase_2,go,0.0,0.0,1.0,,,,,,,,,cyan,cross
0.0,7.0,2.0,1.0,5.0,5.0,248.6718049995033,2.0,1.0,phase_2,stop,0.0,0.0,3.0,,,,,,,,,gray,hexagon
0.0,8.0,4.0,1.0,5.0,5.0,235.1142039997285,2.0,1.0,phase_2,stop,0.0,0.0,3.0,,,,,,,,,magenta,I
0.0,3.0,2.0,0.0,6.0,6.0,349.585534999278,2.0,1.0,phase_2,go,0.0,0.0,1.0,,,,,,,,,green,circle
0.0,6.0,1.0,1.0,6.0,6.0,548.1240809995143,2.0,1.0,phase_2,stop,0.0,0.0,3.0,,,,,,,,,blue,flipped triangle
0.0,3.0,2.0,0.0,5.0,5.0,227.1849439994184,2.0,1.0,phase_2,go,0.0,0.0,1.0,,,,,,,,,green,circle
0.0,2.0,1.0,0.0,6.0,6.0,311.3097719997313,2.0,1.0,phase_2,go,0.0,0.0,1.0,,,,,,,,,white,square
0.0,1.0,0.5,0.0,5.0,5.0,282.8290020006534,2.0,1.0,phase_2,go,0.0,0.0,1.0,,,,,,,,,yellow,triangle
0.0,6.0,1.0,1.0,5.0,5.0,234.0848999992886,2.0,1.0,phase_2,stop,0.0,0.0,3.0,,,,,,,,,blue,flipped triangle
0.0,5.0,0.5,1.0,6.0,6.0,224.2986580004071,2.0,1.0,phase_2,stop,0.0,0.0,3.0,,,,,,,,,orange,diamond
0.0,2.0,1.0,0.0,6.0,6.0,329.6710810000149,2.0,1.0,phase_2,go,0.0,0.0,1.0,,,,,,,,,white,square
0.0,3.0,2.0,0.0,6.0,6.0,272.8310620004777,2.0,1.0,phase_2,go,0.0,0.0,1.0,,,,,,,,,green,circle
0.0,1.0,0.5,0.0,5.0,5.0,264.3191090000982,2.0,1.0,phase_2,go,0.0,0.0,1.0,,,,,,,,,yellow,triangle
0.0,5.0,0.5,1.0,5.0,5.0,210.9125099996163,2.0,1.0,phase_2,stop,0.0,0.0,3.0,,,,,,,,,orange,diamond
0.0,4.0,4.0,0.0,6.0,6.0,217.344559000594,2.0,1.0,phase_2,go,0.0,0.0,1.0,,,,,,,,,cyan,cross
0.0,5.0,0.5,1.0,5.0,5.0,236.3593890004267,2.0,1.0,phase_2,go,0.0,0.0,1.0,,,,,,,,,orange,diamond
0.0,2.0,1.0,0.0,6.0,6.0,283.1294440002239,2.0,1.0,phase_2,go,0.0,0.0,1.0,,,,,,,,,white,square
0.0,7.0,2.0,1.0,5.0,5.0,245.7988429996476,2.0,1.0,phase_2,go,0.0,0.0,1.0,,,,,,,,,gray,hexagon
0.0,7.0,2.0,1.0,6.0,6.0,378.4481080001569,2.0,1.0,phase_2,stop,0.0,0.0,3.0,,,,,,,,,gray,hexagon
0.0,3.0,2.0,0.0,6.0,6.0,311.1762689995885,2.0,1.0,phase_2,go,0.0,0.0,1.0,,,,,,,,,green,circle
0.0,1.0,0.5,0.0,5.0,5.0,227.41812100048259,2.0,1.0,phase_2,go,0.0,0.0,1.0,,,,,,,,,yellow,triangle
0.0,8.0,4.0,1.0,5.0,5.0,246.1402090002593,2.0,1.0,phase_2,go,0.0,0.0,1.0,,,,,,,,,magenta,I
0.0,6.0,1.0,1.0,6.0,6.0,264.4030589999602,2.0,1.0,phase_2,go,0.0,0.0,1.0,,,,,,,,,blue,flipped triangle
0.0,8.0,4.0,1.0,6.0,6.0,362.4700939999457,2.0,1.0,phase_2,stop,0.0,0.0,3.0,,,,,,,,,magenta,I
0.0,7.0,2.0,1.0,5.0,5.0,236.068418999821,2.0,1.0,phase_2,go,0.0,0.0,1.0,,,,,,,,,gray,hexagon
0.0,1.0,0.5,0.0,6.0,6.0,272.0257559994934,2.0,1.0,phase_2,go,0.0,0.0,1.0,,,,,,,,,yellow,triangle
0.0,5.0,0.5,1.0,5.0,5.0,248.3285980006258,2.0,1.0,phase_2,stop,0.0,0.0,3.0,,,,,,,,,orange,diamond
0.0,6.0,1.0,1.0,5.0,5.0,366.7487989996516,2.0,1.0,phase_2,stop,0.0,0.0,3.0,,,,,,,,,blue,flipped triangle
0.0,1.0,0.5,0.0,6.0,6.0,225.9478220003075,2.0,1.0,phase_2,go,0.0,0.0,1.0,,,,,,,,,yellow,triangle
0.0,2.0,1.0,0.0,5.0,5.0,245.3379139997196,2.0,1.0,phase_2,go,0.0,0.0,1.0,,,,,,,,,white,square
0.0,5.0,0.5,1.0,6.0,6.0,244.9829930001215,2.0,1.0,phase_2,stop,0.0,0.0,3.0,,,,,,,,,orange,diamond
0.0,1.0,0.5,0.0,5.0,5.0,264.1946180001469,2.0,1.0,phase_2,go,0.0,0.0,1.0,,,,,,,,,yellow,triangle
0.0,7.0,2.0,1.0,5.0,5.0,230.4122619998452,2.0,1.0,phase_2,stop,0.0,0.0,3.0,,,,,,,,,gray,hexagon
0.0,2.0,1.0,0.0,6.0,6.0,613.4792640004889,3.0,1.0,phase_2,go,0.0,0.0,1.0,,,,,,,,,white,square
0.0,2.0,1.0,0.0,5.0,5.0,263.3970549995865,3.0,1.0,phase_2,go,0.0,0.0,1.0,,,,,,,,,white,square
0.0,6.0,1.0,1.0,5.0,5.0,425.3838360000372,3.0,1.0,phase_2,stop,0.0,0.0,3.0,,,,,,,,,blue,flipped triangle
0.0,1.0,0.5,0.0,5.0,5.0,310.2251820000674,3.0,1.0,phase_2,go,0.0,0.0,1.0,,,,,,,,,yellow,triangle
0.0,1.0,0.5,0.0,5.0,5.0,444.2708469996432,3.0,1.0,phase_2,go,0.0,0.0,1.0,,,,,,,,,yellow,triangle
0.0,5.0,0.5,1.0,5.0,5.0,461.2917690001268,3.0,1.0,phase_2,stop,0.0,0.0,3.0,,,,,,,,,orange,diamond
0.0,5.0,0.5,1.0,6.0,6.0,489.6576950004601,3.0,1.0,phase_2,go,0.0,0.0,1.0,,,,,,,,,orange,diamond
0.0,6.0,1.0,1.0,5.0,5.0,397.0311069997478,3.0,1.0,phase_2,go,0.0,0.0,1.0,,,,,,,,,blue,flipped triangle
0.0,7.0,2.0,1.0,5.0,5.0,264.9113000006764,3.0,1.0,phase_2,stop,0.0,0.0,3.0,,,,,,,,,gray,hexagon
0.0,3.0,2.0,0.0,6.0,6.0,472.9093839996494,3.0,1.0,phase_2,go,0.0,0.0,1.0,,,,,,,,,green,circle
0.0,8.0,4.0,1.0,5.0,5.0,431.0664120002911,3.0,1.0,phase_2,stop,0.0,0.0,3.0,,,,,,,,,magenta,I
0.0,2.0,1.0,0.0,6.0,6.0,406.4964740000505,3.0,1.0,phase_2,go,0.0,0.0,1.0,,,,,,,,,white,square
0.0,4.0,4.0,0.0,6.0,6.0,386.8748439999763,3.0,1.0,phase_2,go,0.0,0.0,1.0,,,,,,,,,cyan,cross
0.0,7.0,2.0,1.0,6.0,6.0,392.834364999544,3.0,1.0,phase_2,stop,0.0,0.0,3.0,,,,,,,,,gray,hexagon
0.0,2.0,1.0,0.0,5.0,5.0,427.7744880000682,3.0,1.0,phase_2,go,0.0,0.0,1.0,,,,,,,,,white,square
0.0,8.0,4.0,1.0,6.0,6.0,404.1753310002605,3.0,1.0,phase_2,stop,0.0,0.0,3.0,,,,,,,,,magenta,I
0.0,3.0,2.0,0.0,5.0,5.0,434.7643629998856,3.0,1.0,phase_2,go,0.0,0.0,1.0,,,,,,,,,green,circle
0.0,1.0,0.5,0.0,5.0,5.0,435.6108329993731,3.0,1.0,phase_2,go,0.0,0.0,1.0,,,,,,,,,yellow,triangle
0.0,6.0,1.0,1.0,6.0,6.0,405.5113659997005,3.0,1.0,phase_2,go,0.0,0.0,1.0,,,,,,,,,blue,flipped triangle
0.0,4.0,4.0,0.0,6.0,6.0,368.9329300004829,3.0,1.0,phase_2,go,0.0,0.0,1.0,,,,,,,,,cyan,cross
0.0,7.0,2.0,1.0,6.0,6.0,405.2156429997922,3.0,1.0,phase_2,go,0.0,0.0,1.0,,,,,,,,,gray,hexagon
0.0,4.0,4.0,0.0,6.0,6.0,341.9809409997469,3.0,1.0,phase_2,go,0.0,0.0,1.0,,,,,,,,,cyan,cross
0.0,5.0,0.5,1.0,5.0,5.0,454.2732270001579,3.0,1.0,phase_2,stop,0.0,0.0,3.0,,,,,,,,,orange,diamond
0.0,5.0,0.5,1.0,6.0,6.0,454.5339719998083,3.0,1.0,phase_2,go,0.0,0.0,1.0,,,,,,,,,orange,diamond
0.0,6.0,1.0,1.0,5.0,5.0,443.6008180000499,3.0,1.0,phase_2,stop,0.0,0.0,3.0,,,,,,,,,blue,flipped triangle
0.0,3.0,2.0,0.0,5.0,5.0,398.5959009996804,3.0,1.0,phase_2,go,0.0,0.0,1.0,,,,,,,,,green,circle
0.0,5.0,0.5,1.0,6.0,6.0,413.7034620007398,3.0,1.0,phase_2,stop,0.0,0.0,3.0,,,,,,,,,orange,diamond
0.0,3.0,2.0,0.0,6.0,6.0,452.9368549992796,3.0,1.0,phase_2,go,0.0,0.0,1.0,,,,,,,,,green,circle
0.0,3.0,2.0,0.0,5.0,5.0,348.9132609993248,3.0,1.0,phase_2,go,0.0,0.0,1.0,,,,,,,,,green,circle
0.0,3.0,2.0,0.0,6.0,6.0,406.1371640000288,3.0,1.0,phase_2,go,0.0,0.0,1.0,,,,,,,,,green,circle
0.0,2.0,1.0,0.0,5.0,5.0,432.8245380002045,3.0,1.0,phase_2,go,0.0,0.0,1.0,,,,,,,,,white,square
0.0,1.0,0.5,0.0,5.0,5.0,369.790622000437,3.0,1.0,phase_2,go,0.0,0.0,1.0,,,,,,,,,yellow,triangle
0.0,8.0,4.0,1.0,5.0,5.0,261.701575999723,3.0,1.0,phase_2,stop,0.0,0.0,3.0,,,,,,,,,magenta,I
0.0,6.0,1.0,1.0,5.0,5.0,495.8756010000797,3.0,1.0,phase_2,stop,0.0,0.0,3.0,,,,,,,,,blue,flipped triangle
0.0,7.0,2.0,1.0,6.0,6.0,478.5934859992267,3.0,1.0,phase_2,stop,0.0,0.0,3.0,,,,,,,,,gray,hexagon
0.0,1.0,0.5,0.0,5.0,5.0,339.9784599996565,3.0,1.0,phase_2,go,0.0,0.0,1.0,,,,,,,,,yellow,triangle
0.0,1.0,0.5,0.0,6.0,6.0,537.8383340002983,4.0,1.0,phase_2,go,0.0,0.0,1.0,,,,,,,,,yellow,triangle
0.0,5.0,0.5,1.0,6.0,6.0,582.2282689996428,4.0,1.0,phase_2,stop,0.0,0.0,3.0,,,,,,,,,orange,diamond
0.0,3.0,2.0,0.0,6.0,6.0,340.2761010001995,4.0,1.0,phase_2,go,0.0,0.0,1.0,,,,,,,,,green,circle
0.0,4.0,4.0,0.0,6.0,6.0,405.1233059999504,4.0,1.0,phase_2,go,0.0,0.0,1.0,,,,,,,,,cyan,cross
0.0,5.0,0.5,1.0,6.0,6.0,368.2585060005294,4.0,1.0,phase_2,go,0.0,0.0,1.0,,,,,,,,,orange,diamond
0.0,4.0,4.0,0.0,6.0,6.0,406.4955670000927,4.0,1.0,phase_2,go,0.0,0.0,1.0,,,,,,,,,cyan,cross
0.0,1.0,0.5,0.0,5.0,5.0,414.3655930001841,4.0,1.0,phase_2,go,0.0,0.0,1.0,,,,,,,,,yellow,triangle
0.0,3.0,2.0,0.0,5.0,5.0,377.670844000022,4.0,1.0,phase_2,go,0.0,0.0,1.0,,,,,,,,,green,circle
0.0,3.0,2.0,0.0,5.0,5.0,387.0481769999969,4.0,1.0,phase_2,go,0.0,0.0,1.0,,,,,,,,,green,circle
0.0,6.0,1.0,1.0,6.0,6.0,466.0344920002899,4.0,1.0,phase_2,stop,0.0,0.0,3.0,,,,,,,,,blue,flipped triangle
0.0,2.0,1.0,0.0,6.0,6.0,312.8177160006089,4.0,1.0,phase_2,go,0.0,0.0,1.0,,,,,,,,,white,square
0.0,6.0,1.0,1.0,5.0,5.0,481.322468000144,4.0,1.0,phase_2,stop,0.0,0.0,3.0,,,,,,,,,blue,flipped triangle
0.0,2.0,1.0,0.0,6.0,6.0,321.3158230000772,4.0,1.0,phase_2,go,0.0,0.0,1.0,,,,,,,,,white,square
0.0,4.0,4.0,0.0,5.0,5.0,491.1688869997306,4.0,1.0,phase_2,go,0.0,0.0,1.0,,,,,,,,,cyan,cross
0.0,4.0,4.0,0.0,5.0,5.0,408.3173499993791,4.0,1.0,phase_2,go,0.0,0.0,1.0,,,,,,,,,cyan,cross
0.0,4.0,4.0,0.0,6.0,6.0,585.5249569995067,4.0,1.0,phase_2,go,0.0,0.0,1.0,,,,,,,,,cyan,cross
0.0,2.0,1.0,0.0,5.0,5.0,415.3342100007648,4.0,1.0,phase_2,go,0.0,0.0,1.0,,,,,,,,,white,square
0.0,4.0,4.0,0.0,5.0,5.0,424.9507710001126,4.0,1.0,phase_2,go,0.0,0.0,1.0,,,,,,,,,cyan,cross
0.0,5.0,0.5,1.0,5.0,5.0,445.9362500001589,4.0,1.0,phase_2,stop,0.0,0.0,3.0,,,,,,,,,orange,diamond
0.0,5.0,0.5,1.0,6.0,6.0,508.9571389999037,4.0,1.0,phase_2,go,0.0,0.0,1.0,,,,,,,,,orange,diamond
0.0,2.0,1.0,0.0,6.0,6.0,424.3852889994741,4.0,1.0,phase_2,go,0.0,0.0,1.0,,,,,,,,,white,square
0.0,7.0,2.0,1.0,5.0,5.0,501.0768099991765,4.0,1.0,phase_2,stop,0.0,0.0,3.0,,,,,,,,,gray,hexagon
0.0,8.0,4.0,1.0,6.0,6.0,686.2465969998084,4.0,1.0,phase_2,stop,0.0,0.0,3.0,,,,,,,,,magenta,I
0.0,3.0,2.0,0.0,5.0,5.0,446.2481979999211,4.0,1.0,phase_2,go,0.0,0.0,1.0,,,,,,,,,green,circle
0.0,5.0,0.5,1.0,6.0,6.0,494.342639000024,4.0,1.0,phase_2,stop,0.0,0.0,3.0,,,,,,,,,orange,diamond
0.0,4.0,4.0,0.0,5.0,5.0,527.8283170000577,4.0,1.0,phase_2,go,0.0,0.0,1.0,,,,,,,,,cyan,cross
0.0,8.0,4.0,1.0,6.0,6.0,603.9011410002786,4.0,1.0,phase_2,stop,0.0,0.0,3.0,,,,,,,,,magenta,I
0.0,2.0,1.0,0.0,5.0,5.0,471.9053200005874,4.0,1.0,phase_2,go,0.0,0.0,1.0,,,,,,,,,white,square
0.0,4.0,4.0,0.0,5.0,5.0,357.7982679998968,4.0,1.0,phase_2,go,0.0,0.0,1.0,,,,,,,,,cyan,cross
0.0,8.0,4.0,1.0,5.0,5.0,311.2537899996823,4.0,1.0,phase_2,go,0.0,0.0,1.0,,,,,,,,,magenta,I
0.0,6.0,1.0,1.0,5.0,5.0,511.44030500017834,4.0,1.0,phase_2,stop,0.0,0.0,3.0,,,,,,,,,blue,flipped triangle
0.0,6.0,1.0,1.0,6.0,6.0,520.1648809998005,4.0,1.0,phase_2,stop,0.0,0.0,3.0,,,,,,,,,blue,flipped triangle
0.0,1.0,0.5,0.0,6.0,6.0,397.5272749994474,4.0,1.0,phase_2,go,0.0,0.0,1.0,,,,,,,,,yellow,triangle
0.0,1.0,0.5,0.0,6.0,6.0,470.6368879997171,4.0,1.0,phase_2,go,0.0,0.0,1.0,,,,,,,,,yellow,triangle
0.0,5.0,0.5,1.0,6.0,6.0,539.1652090002026,4.0,1.0,phase_2,stop,0.0,0.0,3.0,,,,,,,,,orange,diamond
0.0,3.0,2.0,0.0,5.0,5.0,481.2254320004285,4.0,1.0,phase_2,go,0.0,0.0,1.0,,,,,,,,,green,circle
0.0,6.0,1.0,1.0,5.0,0.0,0.0,5.0,1.0,phase_2,stop,0.0,0.0,4.0,,,,,,,,,blue,flipped triangle
0.0,2.0,1.0,0.0,5.0,5.0,508.79792100022314,5.0,1.0,phase_2,go,50.0,0.0,1.0,,,,,,,,,white,square
0.0,7.0,2.0,1.0,6.0,6.0,613.7301970002227,5.0,1.0,phase_2,stop,50.0,0.0,3.0,,,,,,,,,gray,hexagon
0.0,8.0,4.0,1.0,6.0,6.0,1116.7096110002603,5.0,1.0,phase_2,stop,50.0,0.0,3.0,,,,,,,,,magenta,I
0.0,2.0,1.0,0.0,5.0,5.0,452.424510000128,5.0,1.0,phase_2,go,50.0,0.0,1.0,,,,,,,,,white,square
0.0,6.0,1.0,1.0,6.0,6.0,483.2838800002719,5.0,1.0,phase_2,stop,50.0,0.0,3.0,,,,,,,,,blue,flipped triangle
0.0,2.0,1.0,0.0,6.0,6.0,398.1016309999177,5.0,1.0,phase_2,go,50.0,0.0,1.0,,,,,,,,,white,square
0.0,2.0,1.0,0.0,6.0,6.0,416.3524030000189,5.0,1.0,phase_2,go,50.0,0.0,1.0,,,,,,,,,white,square
0.0,8.0,4.0,1.0,5.0,5.0,463.8959209996756,5.0,1.0,phase_2,stop,50.0,0.0,3.0,,,,,,,,,magenta,I
0.0,1.0,0.5,0.0,5.0,5.0,320.3187230001276,5.0,1.0,phase_2,go,0.0,0.0,1.0,,,,,,,,,yellow,triangle
0.0,5.0,0.5,1.0,6.0,6.0,467.2883470002489,5.0,1.0,phase_2,stop,0.0,0.0,3.0,,,,,,,,,orange,diamond
0.0,1.0,0.5,0.0,5.0,5.0,349.5423459999074,5.0,1.0,phase_2,go,0.0,0.0,1.0,,,,,,,,,yellow,triangle
0.0,7.0,2.0,1.0,6.0,6.0,410.5839589992683,5.0,1.0,phase_2,stop,0.0,0.0,3.0,,,,,,,,,gray,hexagon
0.0,5.0,0.5,1.0,5.0,5.0,461.964068999805,5.0,1.0,phase_2,stop,0.0,0.0,3.0,,,,,,,,,orange,diamond
0.0,5.0,0.5,1.0,6.0,6.0,386.3076710003952,5.0,1.0,phase_2,go,0.0,0.0,1.0,,,,,,,,,orange,diamond
0.0,3.0,2.0,0.0,6.0,6.0,329.8032359998615,5.0,1.0,phase_2,go,0.0,0.0,1.0,,,,,,,,,green,circle
0.0,3.0,2.0,0.0,5.0,5.0,433.8878250000562,5.0,1.0,phase_2,go,0.0,0.0,1.0,,,,,,,,,green,circle
0.0,4.0,4.0,0.0,6.0,6.0,349.2013960003532,5.0,1.0,phase_2,go,0.0,0.0,1.0,,,,,,,,,cyan,cross
0.0,4.0,4.0,0.0,6.0,6.0,291.2776530001792,5.0,1.0,phase_2,go,0.0,0.0,1.0,,,,,,,,,cyan,cross
0.0,7.0,2.0,1.0,5.0,5.0,386.7634549997092,5.0,1.0,phase_2,go,0.0,0.0,1.0,,,,,,,,,gray,hexagon
0.0,5.0,0.5,1.0,6.0,6.0,468.2322099997691,5.0,1.0,phase_2,stop,0.0,0.0,3.0,,,,,,,,,orange,diamond
0.0,1.0,0.5,0.0,5.0,5.0,480.5248999991818,5.0,1.0,phase_2,go,0.0,0.0,1.0,,,,,,,,,yellow,triangle
0.0,5.0,0.5,1.0,5.0,5.0,491.0329909998836,5.0,1.0,phase_2,go,0.0,0.0,1.0,,,,,,,,,orange,diamond
0.0,8.0,4.0,1.0,5.0,5.0,330.9562399999777,5.0,1.0,phase_2,go,0.0,0.0,1.0,,,,,,,,,magenta,I
0.0,1.0,0.5,0.0,6.0,6.0,452.9100270001436,5.0,1.0,phase_2,go,0.0,0.0,1.0,,,,,,,,,yellow,triangle
0.0,5.0,0.5,1.0,6.0,6.0,388.1722200003423,5.0,1.0,phase_2,stop,0.0,0.0,3.0,,,,,,,,,orange,diamond
0.0,1.0,0.5,0.0,6.0,6.0,433.9914430001954,5.0,1.0,phase_2,go,0.0,0.0,1.0,,,,,,,,,yellow,triangle
0.0,6.0,1.0,1.0,5.0,5.0,746.2002519996531,5.0,1.0,phase_2,stop,0.0,0.0,3.0,,,,,,,,,blue,flipped triangle
0.0,6.0,1.0,1.0,6.0,6.0,622.7315770001951,5.0,1.0,phase_2,go,0.0,0.0,1.0,,,,,,,,,blue,flipped triangle
0.0,4.0,4.0,0.0,5.0,5.0,441.7684830004873,5.0,1.0,phase_2,go,0.0,0.0,1.0,,,,,,,,,cyan,cross
0.0,4.0,4.0,0.0,6.0,6.0,328.7395420002212,5.0,1.0,phase_2,go,0.0,0.0,1.0,,,,,,,,,cyan,cross
0.0,8.0,4.0,1.0,6.0,6.0,528.8585339994825,5.0,1.0,phase_2,stop,0.0,0.0,3.0,,,,,,,,,magenta,I
0.0,8.0,4.0,1.0,5.0,5.0,393.2107400005407,5.0,1.0,phase_2,stop,0.0,0.0,3.0,,,,,,,,,magenta,I
0.0,1.0,0.5,0.0,6.0,6.0,508.19820200013055,5.0,1.0,phase_2,go,0.0,0.0,1.0,,,,,,,,,yellow,triangle
0.0,2.0,1.0,0.0,5.0,5.0,349.1171309997298,5.0,1.0,phase_2,go,0.0,0.0,1.0,,,,,,,,,white,square
0.0,7.0,2.0,1.0,6.0,6.0,800.5812050005261,5.0,1.0,phase_2,stop,0.0,0.0,3.0,,,,,,,,,gray,hexagon
0.0,1.0,0.5,0.0,6.0,6.0,726.8400479997581,6.0,1.0,phase_2,go,0.0,0.0,1.0,,,,,,,,,yellow,triangle
0.0,3.0,2.0,0.0,6.0,6.0,386.1691739994057,6.0,1.0,phase_2,go,0.0,0.0,1.0,,,,,,,,,green,circle
0.0,7.0,2.0,1.0,5.0,5.0,412.81490799974557,6.0,1.0,phase_2,stop,0.0,0.0,3.0,,,,,,,,,gray,hexagon
0.0,7.0,2.0,1.0,6.0,6.0,544.476993999524,6.0,1.0,phase_2,stop,0.0,0.0,3.0,,,,,,,,,gray,hexagon
0.0,1.0,0.5,0.0,6.0,6.0,330.0206269996124,6.0,1.0,phase_2,go,0.0,0.0,1.0,,,,,,,,,yellow,triangle
0.0,7.0,2.0,1.0,5.0,5.0,349.1048489995592,6.0,1.0,phase_2,go,0.0,0.0,1.0,,,,,,,,,gray,hexagon
0.0,2.0,1.0,0.0,6.0,6.0,386.4464410007713,6.0,1.0,phase_2,go,0.0,0.0,1.0,,,,,,,,,white,square
0.0,6.0,1.0,1.0,6.0,6.0,383.4964220004622,6.0,1.0,phase_2,stop,0.0,0.0,3.0,,,,,,,,,blue,flipped triangle
0.0,2.0,1.0,0.0,5.0,5.0,462.965145000453,6.0,1.0,phase_2,go,0.0,0.0,1.0,,,,,,,,,white,square
0.0,5.0,0.5,1.0,5.0,5.0,453.3795819997976,6.0,1.0,phase_2,stop,0.0,0.0,3.0,,,,,,,,,orange,diamond
0.0,8.0,4.0,1.0,5.0,5.0,545.0100129992279,6.0,1.0,phase_2,stop,0.0,0.0,3.0,,,,,,,,,magenta,I
0.0,4.0,4.0,0.0,6.0,6.0,367.2996509994846,6.0,1.0,phase_2,go,0.0,0.0,1.0,,,,,,,,,cyan,cross
0.0,6.0,1.0,1.0,6.0,6.0,330.524019999757,6.0,1.0,phase_2,go,0.0,0.0,1.0,,,,,,,,,blue,flipped triangle
0.0,7.0,2.0,1.0,6.0,6.0,474.00617600033,6.0,1.0,phase_2,stop,0.0,0.0,3.0,,,,,,,,,gray,hexagon
0.0,8.0,4.0,1.0,6.0,6.0,386.1837300000843,6.0,1.0,phase_2,go,0.0,0.0,1.0,,,,,,,,,magenta,I
0.0,7.0,2.0,1.0,5.0,5.0,431.7849210001441,6.0,1.0,phase_2,stop,0.0,0.0,3.0,,,,,,,,,gray,hexagon
0.0,4.0,4.0,0.0,6.0,6.0,301.5201549997073,6.0,1.0,phase_2,go,0.0,0.0,1.0,,,,,,,,,cyan,cross
0.0,5.0,0.5,1.0,5.0,5.0,385.2783599995746,6.0,1.0,phase_2,go,0.0,0.0,1.0,,,,,,,,,orange,diamond
0.0,8.0,4.0,1.0,5.0,5.0,459.4968649998918,6.0,1.0,phase_2,stop,0.0,0.0,3.0,,,,,,,,,magenta,I
0.0,7.0,2.0,1.0,5.0,5.0,413.7019760000839,6.0,1.0,phase_2,stop,0.0,0.0,3.0,,,,,,,,,gray,hexagon
0.0,2.0,1.0,0.0,5.0,5.0,349.26081899993727,6.0,1.0,phase_2,go,0.0,0.0,1.0,,,,,,,,,white,square
0.0,5.0,0.5,1.0,6.0,6.0,329.430396999669,6.0,1.0,phase_2,go,0.0,0.0,1.0,,,,,,,,,orange,diamond
0.0,3.0,2.0,0.0,5.0,5.0,291.8428670000139,6.0,1.0,phase_2,go,0.0,0.0,1.0,,,,,,,,,green,circle
0.0,1.0,0.5,0.0,5.0,5.0,263.8213469999755,6.0,1.0,phase_2,go,0.0,0.0,1.0,,,,,,,,,yellow,triangle
0.0,3.0,2.0,0.0,5.0,5.0,291.5018430003329,6.0,1.0,phase_2,go,0.0,0.0,1.0,,,,,,,,,green,circle
0.0,6.0,1.0,1.0,5.0,5.0,638.5777539999253,6.0,1.0,phase_2,stop,0.0,0.0,3.0,,,,,,,,,blue,flipped triangle
0.0,6.0,1.0,1.0,6.0,6.0,449.9158259995965,6.0,1.0,phase_2,stop,0.0,0.0,3.0,,,,,,,,,blue,flipped triangle
0.0,8.0,4.0,1.0,6.0,6.0,319.8875150001186,6.0,1.0,phase_2,go,0.0,0.0,1.0,,,,,,,,,magenta,I
0.0,3.0,2.0,0.0,5.0,5.0,319.9751350002771,6.0,1.0,phase_2,go,0.0,0.0,1.0,,,,,,,,,green,circle
0.0,8.0,4.0,1.0,6.0,6.0,470.0624470006005,6.0,1.0,phase_2,stop,0.0,0.0,3.0,,,,,,,,,magenta,I
0.0,6.0,1.0,1.0,6.0,6.0,339.9805389999528,6.0,1.0,phase_2,go,0.0,0.0,1.0,,,,,,,,,blue,flipped triangle
0.0,5.0,0.5,1.0,5.0,5.0,510.0932830000602,6.0,1.0,phase_2,stop,0.0,0.0,3.0,,,,,,,,,orange,diamond
0.0,2.0,1.0,0.0,6.0,6.0,339.5827409995036,6.0,1.0,phase_2,go,0.0,0.0,1.0,,,,,,,,,white,square
0.0,2.0,1.0,0.0,5.0,5.0,320.4162399997585,6.0,1.0,phase_2,go,0.0,0.0,1.0,,,,,,,,,white,square
0.0,4.0,4.0,0.0,5.0,5.0,471.163610000076,6.0,1.0,phase_2,go,0.0,0.0,1.0,,,,,,,,,cyan,cross
0.0,3.0,2.0,0.0,6.0,6.0,301.5139809995162,6.0,1.0,phase_2,go,0.0,0.0,1.0,,,,,,,,,green,circle
0.0,6.0,1.0,1.0,6.0,6.0,773.8314360003642,7.0,1.0,phase_2,stop,0.0,0.0,3.0,,,,,,,,,blue,flipped triangle
0.0,2.0,1.0,0.0,5.0,5.0,461.9869289999769,7.0,1.0,phase_2,go,0.0,0.0,1.0,,,,,,,,,white,square
0.0,3.0,2.0,0.0,6.0,6.0,517.477962999692,7.0,1.0,phase_2,go,0.0,0.0,1.0,,,,,,,,,green,circle
0.0,8.0,4.0,1.0,6.0,6.0,748.2840060001763,7.0,1.0,phase_2,stop,0.0,0.0,3.0,,,,,,,,,magenta,I
0.0,6.0,1.0,1.0,5.0,5.0,569.5916419999776,7.0,1.0,phase_2,stop,0.0,0.0,3.0,,,,,,,,,blue,flipped triangle
0.0,3.0,2.0,0.0,5.0,5.0,433.331377000286,7.0,1.0,phase_2,go,0.0,0.0,1.0,,,,,,,,,green,circle
0.0,8.0,4.0,1.0,5.0,5.0,630.8011559995066,7.0,1.0,phase_2,stop,0.0,0.0,3.0,,,,,,,,,magenta,I
0.0,4.0,4.0,0.0,5.0,5.0,385.2116110001589,7.0,1.0,phase_2,go,0.0,0.0,1.0,,,,,,,,,cyan,cross
0.0,4.0,4.0,0.0,5.0,5.0,501.13420599973324,7.0,1.0,phase_2,go,0.0,0.0,1.0,,,,,,,,,cyan,cross
0.0,3.0,2.0,0.0,6.0,6.0,423.9280170004349,7.0,1.0,phase_2,go,0.0,0.0,1.0,,,,,,,,,green,circle
0.0,2.0,1.0,0.0,5.0,5.0,348.4414180002204,7.0,1.0,phase_2,go,0.0,0.0,1.0,,,,,,,,,white,square
0.0,8.0,4.0,1.0,5.0,5.0,508.2170309997309,7.0,1.0,phase_2,stop,0.0,0.0,3.0,,,,,,,,,magenta,I
0.0,4.0,4.0,0.0,5.0,5.0,518.0411450000975,7.0,1.0,phase_2,go,0.0,0.0,1.0,,,,,,,,,cyan,cross
0.0,6.0,1.0,1.0,6.0,6.0,564.9188860006689,7.0,1.0,phase_2,stop,0.0,0.0,3.0,,,,,,,,,blue,flipped triangle
0.0,8.0,4.0,1.0,6.0,6.0,734.5942889996877,7.0,1.0,phase_2,stop,0.0,0.0,3.0,,,,,,,,,magenta,I
0.0,4.0,4.0,0.0,5.0,5.0,565.0852640001176,7.0,1.0,phase_2,go,0.0,0.0,1.0,,,,,,,,,cyan,cross
0.0,6.0,1.0,1.0,6.0,6.0,499.0839310003139,7.0,1.0,phase_2,go,0.0,0.0,1.0,,,,,,,,,blue,flipped triangle
0.0,3.0,2.0,0.0,5.0,5.0,443.0268239993893,7.0,1.0,phase_2,go,0.0,0.0,1.0,,,,,,,,,green,circle
0.0,5.0,0.5,1.0,5.0,5.0,795.7420550001189,7.0,1.0,phase_2,stop,0.0,0.0,3.0,,,,,,,,,orange,diamond
0.0,7.0,2.0,1.0,5.0,5.0,460.9326810004859,7.0,1.0,phase_2,go,0.0,0.0,1.0,,,,,,,,,gray,hexagon
0.0,1.0,0.5,0.0,5.0,5.0,368.7834510001266,7.0,1.0,phase_2,go,0.0,0.0,1.0,,,,,,,,,yellow,triangle
0.0,3.0,2.0,0.0,6.0,6.0,376.1160069998368,7.0,1.0,phase_2,go,0.0,0.0,1.0,,,,,,,,,green,circle
0.0,2.0,1.0,0.0,6.0,6.0,433.6968549996527,7.0,1.0,phase_2,go,0.0,0.0,1.0,,,,,,,,,white,square
0.0,8.0,4.0,1.0,6.0,6.0,574.9225869994916,7.0,1.0,phase_2,stop,0.0,0.0,3.0,,,,,,,,,magenta,I
0.0,2.0,1.0,0.0,5.0,5.0,510.4868689995783,7.0,1.0,phase_2,go,0.0,0.0,1.0,,,,,,,,,white,square
0.0,7.0,2.0,1.0,6.0,6.0,593.1054829998175,7.0,1.0,phase_2,stop,0.0,0.0,3.0,,,,,,,,,gray,hexagon
0.0,3.0,2.0,0.0,5.0,5.0,481.0443750002378,7.0,1.0,phase_2,go,0.0,0.0,1.0,,,,,,,,,green,circle
0.0,3.0,2.0,0.0,6.0,6.0,405.1280980002048,7.0,1.0,phase_2,go,0.0,0.0,1.0,,,,,,,,,green,circle
0.0,8.0,4.0,1.0,5.0,5.0,493.390475000524,7.0,1.0,phase_2,stop,0.0,0.0,3.0,,,,,,,,,magenta,I
0.0,8.0,4.0,1.0,6.0,6.0,785.1225849999537,7.0,1.0,phase_2,stop,0.0,0.0,3.0,,,,,,,,,magenta,I
0.0,6.0,1.0,1.0,5.0,5.0,720.9885770007531,7.0,1.0,phase_2,stop,0.0,0.0,3.0,,,,,,,,,blue,flipped triangle
0.0,3.0,2.0,0.0,5.0,5.0,312.3218099999576,7.0,1.0,phase_2,go,0.0,0.0,1.0,,,,,,,,,green,circle
0.0,4.0,4.0,0.0,6.0,6.0,293.44640599993,7.0,1.0,phase_2,go,0.0,0.0,1.0,,,,,,,,,cyan,cross
0.0,8.0,4.0,1.0,6.0,6.0,623.5314830000789,7.0,1.0,phase_2,stop,0.0,0.0,3.0,,,,,,,,,magenta,I
0.0,8.0,4.0,1.0,6.0,6.0,612.6837479996539,7.0,1.0,phase_2,go,0.0,0.0,1.0,,,,,,,,,magenta,I
0.0,1.0,0.5,0.0,6.0,6.0,386.9499250004082,7.0,1.0,phase_2,go,0.0,0.0,1.0,,,,,,,,,yellow,triangle
0.0,5.0,0.5,1.0,5.0,5.0,651.794687999427,8.0,1.0,phase_2,stop,0.0,0.0,3.0,,,,,,,,,orange,diamond
0.0,7.0,2.0,1.0,5.0,5.0,462.7994379998199,8.0,1.0,phase_2,go,0.0,0.0,1.0,,,,,,,,,gray,hexagon
0.0,1.0,0.5,0.0,6.0,6.0,424.5316779997665,8.0,1.0,phase_2,go,0.0,0.0,1.0,,,,,,,,,yellow,triangle
0.0,7.0,2.0,1.0,6.0,6.0,624.0242240000953,8.0,1.0,phase_2,stop,0.0,0.0,3.0,,,,,,,,,gray,hexagon
0.0,3.0,2.0,0.0,6.0,6.0,442.8824740007258,8.0,1.0,phase_2,go,0.0,0.0,1.0,,,,,,,,,green,circle
0.0,6.0,1.0,1.0,6.0,6.0,519.422516999839,8.0,1.0,phase_2,stop,0.0,0.0,3.0,,,,,,,,,blue,flipped triangle
0.0,6.0,1.0,1.0,5.0,5.0,523.0158590002247,8.0,1.0,phase_2,stop,0.0,0.0,3.0,,,,,,,,,blue,flipped triangle
0.0,5.0,0.5,1.0,5.0,5.0,511.07923400013533,8.0,1.0,phase_2,stop,0.0,0.0,3.0,,,,,,,,,orange,diamond
0.0,2.0,1.0,0.0,5.0,5.0,423.7013749998368,8.0,1.0,phase_2,go,0.0,0.0,1.0,,,,,,,,,white,square
0.0,7.0,2.0,1.0,6.0,6.0,494.989372999953,8.0,1.0,phase_2,stop,0.0,0.0,3.0,,,,,,,,,gray,hexagon
0.0,2.0,1.0,0.0,6.0,6.0,568.1006249997154,8.0,1.0,phase_2,go,0.0,0.0,1.0,,,,,,,,,white,square
0.0,8.0,4.0,1.0,5.0,5.0,588.6627509999016,8.0,1.0,phase_2,stop,0.0,0.0,3.0,,,,,,,,,magenta,I
0.0,4.0,4.0,0.0,6.0,6.0,377.8032449999955,8.0,1.0,phase_2,go,0.0,0.0,1.0,,,,,,,,,cyan,cross
0.0,3.0,2.0,0.0,5.0,5.0,539.1625540005407,8.0,1.0,phase_2,go,0.0,0.0,1.0,,,,,,,,,green,circle
0.0,3.0,2.0,0.0,6.0,6.0,341.7056799999045,8.0,1.0,phase_2,go,0.0,0.0,1.0,,,,,,,,,green,circle
0.0,1.0,0.5,0.0,5.0,5.0,340.9667070000068,8.0,1.0,phase_2,go,0.0,0.0,1.0,,,,,,,,,yellow,triangle
0.0,2.0,1.0,0.0,6.0,6.0,320.7268440000916,8.0,1.0,phase_2,go,0.0,0.0,1.0,,,,,,,,,white,square
0.0,5.0,0.5,1.0,5.0,5.0,469.968661999701,8.0,1.0,phase_2,stop,0.0,0.0,3.0,,,,,,,,,orange,diamond
0.0,4.0,4.0,0.0,5.0,5.0,461.983916000463,8.0,1.0,phase_2,go,0.0,0.0,1.0,,,,,,,,,cyan,cross
0.0,4.0,4.0,0.0,5.0,5.0,425.926929000525,8.0,1.0,phase_2,go,0.0,0.0,1.0,,,,,,,,,cyan,cross
0.0,1.0,0.5,0.0,6.0,6.0,377.6263089994245,8.0,1.0,phase_2,go,0.0,0.0,1.0,,,,,,,,,yellow,triangle
0.0,2.0,1.0,0.0,6.0,6.0,349.9703440002122,8.0,1.0,phase_2,go,0.0,0.0,1.0,,,,,,,,,white,square
0.0,2.0,1.0,0.0,6.0,6.0,367.6627049999297,8.0,1.0,phase_2,go,0.0,0.0,1.0,,,,,,,,,white,square
0.0,7.0,2.0,1.0,6.0,6.0,667.2934829994119,8.0,1.0,phase_2,stop,0.0,0.0,3.0,,,,,,,,,gray,hexagon
0.0,2.0,1.0,0.0,6.0,6.0,508.6548689996562,8.0,1.0,phase_2,go,0.0,0.0,1.0,,,,,,,,,white,square
0.0,4.0,4.0,0.0,6.0,6.0,461.5961130002688,8.0,1.0,phase_2,go,0.0,0.0,1.0,,,,,,,,,cyan,cross
0.0,6.0,1.0,1.0,6.0,6.0,395.9406849999141,8.0,1.0,phase_2,go,0.0,0.0,1.0,,,,,,,,,blue,flipped triangle
0.0,4.0,4.0,0.0,6.0,6.0,369.8974939998152,8.0,1.0,phase_2,go,0.0,0.0,1.0,,,,,,,,,cyan,cross
0.0,7.0,2.0,1.0,5.0,5.0,527.1108739998454,8.0,1.0,phase_2,stop,0.0,0.0,3.0,,,,,,,,,gray,hexagon
0.0,1.0,0.5,0.0,5.0,5.0,425.3053570000702,8.0,1.0,phase_2,go,0.0,0.0,1.0,,,,,,,,,yellow,triangle
0.0,3.0,2.0,0.0,6.0,6.0,367.75259299975,8.0,1.0,phase_2,go,0.0,0.0,1.0,,,,,,,,,green,circle
0.0,7.0,2.0,1.0,6.0,6.0,471.31265700045327,8.0,1.0,phase_2,stop,0.0,0.0,3.0,,,,,,,,,gray,hexagon
0.0,1.0,0.5,0.0,6.0,6.0,460.6291939999209,8.0,1.0,phase_2,go,0.0,0.0,1.0,,,,,,,,,yellow,triangle
0.0,7.0,2.0,1.0,6.0,6.0,424.1523800001232,8.0,1.0,phase_2,go,0.0,0.0,1.0,,,,,,,,,gray,hexagon
0.0,6.0,1.0,1.0,5.0,5.0,573.3089790001031,8.0,1.0,phase_2,stop,0.0,0.0,3.0,,,,,,,,,blue,flipped triangle
0.0,6.0,1.0,1.0,5.0,5.0,490.5641859995739,8.0,1.0,phase_2,stop,0.0,0.0,3.0,,,,,,,,,blue,flipped triangle
0.0,5.0,0.5,1.0,7.0,2.0,4542.745100000502,1.0,1.0,phase_3,,,,,232.0,2.0,464.0,232.0,348.0,696.0,580.0,116.0,orange,diamond
0.0,8.0,4.0,1.0,7.0,4.0,2693.656614000247,1.0,1.0,phase_3,,,,,675.0,5.0,540.0,405.0,270.0,675.0,135.0,810.0,magenta,I
0.0,1.0,0.5,0.0,7.0,5.0,2212.427851000029,1.0,1.0,phase_3,,,,,768.0,4.0,1152.0,192.0,384.0,576.0,768.0,960.0,yellow,triangle
0.0,6.0,1.0,1.0,7.0,2.0,3947.0247780000136,1.0,1.0,phase_3,,,,,696.0,6.0,580.0,696.0,232.0,348.0,464.0,116.0,blue,flipped triangle
0.0,2.0,1.0,0.0,7.0,1.0,834.4893699995737,1.0,1.0,phase_3,,,,,135.0,1.0,135.0,540.0,675.0,270.0,405.0,810.0,white,square
0.0,4.0,4.0,0.0,7.0,6.0,2885.329245000321,1.0,1.0,phase_3,,,,,770.0,5.0,616.0,308.0,462.0,924.0,154.0,770.0,cyan,cross
0.0,1.0,0.5,0.0,7.0,3.0,1718.0126789999122,1.0,1.0,phase_3,,,,,308.0,2.0,462.0,924.0,308.0,154.0,770.0,616.0,yellow,triangle
0.0,8.0,4.0,1.0,7.0,5.0,4101.898380000421,1.0,1.0,phase_3,,,,,580.0,5.0,116.0,348.0,696.0,232.0,580.0,464.0,magenta,I
0.0,1.0,0.5,0.0,7.0,3.0,2350.74339699986,1.0,1.0,phase_3,,,,,135.0,1.0,540.0,810.0,135.0,270.0,405.0,675.0,yellow,triangle
0.0,6.0,1.0,1.0,7.0,3.0,2991.719199999352,1.0,1.0,phase_3,,,,,616.0,4.0,462.0,924.0,616.0,308.0,770.0,154.0,blue,flipped triangle
0.0,2.0,1.0,0.0,7.0,3.0,2344.746544999907,1.0,1.0,phase_3,,,,,1152.0,6.0,192.0,960.0,1152.0,576.0,384.0,768.0,white,square
0.0,6.0,1.0,1.0,7.0,4.0,2614.513014999829,1.0,1.0,phase_3,,,,,346.0,2.0,519.0,1038.0,865.0,346.0,173.0,692.0,blue,flipped triangle
0.0,3.0,2.0,0.0,7.0,6.0,629.4459710006777,1.0,2.0,phase_3,,,,,810.0,6.0,540.0,270.0,675.0,405.0,135.0,810.0,green,circle
0.0,6.0,1.0,1.0,7.0,2.0,2209.545284998967,1.0,1.0,phase_3,,,,,308.0,2.0,924.0,308.0,154.0,770.0,616.0,462.0,blue,flipped triangle
0.0,3.0,2.0,0.0,7.0,4.0,1313.4802540007513,1.0,1.0,phase_3,,,,,346.0,2.0,519.0,1038.0,173.0,346.0,692.0,865.0,green,circle
0.0,8.0,4.0,1.0,7.0,5.0,1118.482063000556,1.0,1.0,phase_3,,,,,540.0,4.0,270.0,810.0,405.0,135.0,540.0,675.0,magenta,I
0.0,8.0,4.0,1.0,7.0,5.0,1378.355945000294,1.0,1.0,phase_3,,,,,576.0,3.0,768.0,1152.0,192.0,384.0,576.0,960.0,magenta,I
0.0,8.0,4.0,1.0,7.0,5.0,1181.645562000995,1.0,1.0,phase_3,,,,,464.0,4.0,116.0,232.0,696.0,348.0,464.0,580.0,magenta,I
0.0,1.0,0.5,0.0,7.0,2.0,1287.1628519988008,1.0,1.0,phase_3,,,,,865.0,5.0,519.0,865.0,692.0,1038.0,346.0,173.0,yellow,triangle
0.0,7.0,2.0,1.0,7.0,6.0,1152.0653160005168,1.0,1.0,phase_3,,,,,580.0,5.0,116.0,232.0,464.0,348.0,696.0,580.0,gray,hexagon
0.0,8.0,4.0,1.0,7.0,3.0,1432.2947460004798,2.0,1.0,phase_3,,,,,960.0,5.0,384.0,1152.0,960.0,768.0,192.0,576.0,magenta,I
0.0,2.0,1.0,0.0,7.0,4.0,1562.2986380003567,2.0,1.0,phase_3,,,,,462.0,3.0,770.0,308.0,616.0,462.0,924.0,154.0,white,square
0.0,4.0,4.0,0.0,7.0,3.0,1609.005017000527,2.0,1.0,phase_3,,,,,232.0,2.0,696.0,348.0,232.0,116.0,580.0,464.0,cyan,cross
0.0,5.0,0.5,1.0,7.0,5.0,1687.8428789987083,2.0,1.0,phase_3,,,,,135.0,1.0,675.0,270.0,405.0,810.0,135.0,540.0,orange,diamond
0.0,5.0,0.5,1.0,7.0,2.0,1321.1647079988325,2.0,1.0,phase_3,,,,,270.0,2.0,135.0,270.0,540.0,405.0,675.0,810.0,orange,diamond
0.0,1.0,0.5,0.0,7.0,5.0,1190.458340000987,2.0,1.0,phase_3,,,,,232.0,2.0,116.0,696.0,464.0,348.0,232.0,580.0,yellow,triangle
0.0,1.0,0.5,0.0,7.0,2.0,2399.463941999784,2.0,1.0,phase_3,,,,,519.0,3.0,865.0,519.0,692.0,173.0,1038.0,346.0,yellow,triangle
0.0,3.0,2.0,0.0,7.0,4.0,1005.7731830002012,2.0,1.0,phase_3,,,,,346.0,2.0,1038.0,692.0,173.0,346.0,865.0,519.0,green,circle
0.0,2.0,1.0,0.0,7.0,5.0,1097.8426120000222,2.0,1.0,phase_3,,,,,692.0,4.0,519.0,346.0,1038.0,173.0,692.0,865.0,white,square
0.0,6.0,1.0,1.0,7.0,4.0,955.0107049999496,2.0,1.0,phase_3,,,,,384.0,2.0,1152.0,768.0,192.0,384.0,960.0,576.0,blue,flipped triangle
0.0,5.0,0.5,1.0,7.0,4.0,1396.5130929991574,2.0,1.0,phase_3,,,,,1038.0,6.0,346.0,692.0,865.0,1038.0,519.0,173.0,orange,diamond
0.0,8.0,4.0,1.0,7.0,4.0,1078.5757039993769,2.0,1.0,phase_3,,,,,346.0,2.0,519.0,1038.0,692.0,346.0,865.0,173.0,magenta,I
0.0,3.0,2.0,0.0,7.0,5.0,1169.7078950001014,2.0,1.0,phase_3,,,,,540.0,4.0,675.0,135.0,270.0,405.0,540.0,810.0,green,circle
0.0,7.0,2.0,1.0,7.0,4.0,1059.2521419985133,2.0,1.0,phase_3,,,,,770.0,5.0,924.0,308.0,462.0,770.0,154.0,616.0,gray,hexagon
0.0,6.0,1.0,1.0,7.0,4.0,1004.2884320009762,2.0,1.0,phase_3,,,,,675.0,5.0,810.0,270.0,540.0,675.0,405.0,135.0,blue,flipped triangle
0.0,5.0,0.5,1.0,7.0,6.0,1491.873549999582,2.0,1.0,phase_3,,,,,232.0,2.0,116.0,348.0,464.0,696.0,580.0,232.0,orange,diamond
0.0,7.0,2.0,1.0,7.0,3.0,1293.196959000852,2.0,1.0,phase_3,,,,,540.0,4.0,405.0,675.0,540.0,270.0,135.0,810.0,gray,hexagon
0.0,4.0,4.0,0.0,7.0,2.0,1518.0479059999925,2.0,1.0,phase_3,,,,,348.0,3.0,580.0,348.0,464.0,232.0,696.0,116.0,cyan,cross
0.0,2.0,1.0,0.0,7.0,2.0,1398.821176000638,2.0,1.0,phase_3,,,,,232.0,2.0,464.0,232.0,116.0,696.0,348.0,580.0,white,square
0.0,1.0,0.5,0.0,7.0,2.0,1105.8900429998175,2.0,1.0,phase_3,,,,,1152.0,6.0,960.0,1152.0,192.0,384.0,576.0,768.0,yellow,triangle
0.0,3.0,2.0,0.0,7.0,5.0,646.8535059993883,3.0,1.0,phase_3,,,,,384.0,2.0,192.0,1152.0,960.0,576.0,384.0,768.0,green,circle
0.0,7.0,2.0,1.0,7.0,2.0,573.8530279995757,3.0,1.0,phase_3,,,,,173.0,1.0,519.0,173.0,1038.0,346.0,865.0,692.0,gray,hexagon
0.0,4.0,4.0,0.0,7.0,5.0,412.6417250008671,3.0,1.0,phase_3,,,,,768.0,4.0,192.0,960.0,1152.0,576.0,768.0,384.0,cyan,cross
0.0,5.0,0.5,1.0,7.0,4.0,450.8286950003821,3.0,1.0,phase_3,,,,,462.0,3.0,616.0,770.0,154.0,462.0,308.0,924.0,orange,diamond
0.0,1.0,0.5,0.0,7.0,5.0,450.2333860000362,3.0,1.0,phase_3,,,,,540.0,4.0,405.0,270.0,810.0,135.0,540.0,675.0,yellow,triangle
0.0,6.0,1.0,1.0,7.0,2.0,507.3296749997098,3.0,1.0,phase_3,,,,,1152.0,6.0,768.0,1152.0,192.0,960.0,384.0,576.0,blue,flipped triangle
0.0,3.0,2.0,0.0,7.0,2.0,469.3363530004717,3.0,1.0,phase_3,,,,,464.0,4.0,696.0,464.0,116.0,232.0,580.0,348.0,green,circle
0.0,4.0,4.0,0.0,7.0,5.0,440.9652800004551,3.0,1.0,phase_3,,,,,576.0,3.0,384.0,192.0,1152.0,768.0,576.0,960.0,cyan,cross
0.0,5.0,0.5,1.0,7.0,5.0,479.5287489996553,3.0,1.0,phase_3,,,,,768.0,4.0,192.0,384.0,960.0,1152.0,768.0,576.0,orange,diamond
0.0,7.0,2.0,1.0,7.0,5.0,442.0461419995263,3.0,1.0,phase_3,,,,,1152.0,6.0,768.0,384.0,576.0,192.0,1152.0,960.0,gray,hexagon
0.0,8.0,4.0,1.0,7.0,6.0,762.2961050001322,3.0,1.0,phase_3,,,,,519.0,3.0,1038.0,692.0,865.0,346.0,173.0,519.0,magenta,I
0.0,4.0,4.0,0.0,7.0,2.0,741.3950989994191,3.0,1.0,phase_3,,,,,173.0,1.0,692.0,173.0,519.0,865.0,346.0,1038.0,cyan,cross
0.0,7.0,2.0,1.0,7.0,1.0,1316.0055190001003,3.0,1.0,phase_3,,,,,116.0,1.0,116.0,696.0,232.0,348.0,580.0,464.0,gray,hexagon
0.0,2.0,1.0,0.0,7.0,1.0,1231.513172000632,3.0,1.0,phase_3,,,,,865.0,5.0,865.0,173.0,692.0,1038.0,346.0,519.0,white,square
0.0,5.0,0.5,1.0,7.0,4.0,1415.4495309994672,3.0,1.0,phase_3,,,,,616.0,4.0,924.0,308.0,462.0,616.0,770.0,154.0,orange,diamond
0.0,7.0,2.0,1.0,7.0,5.0,1373.387963998539,3.0,1.0,phase_3,,,,,770.0,5.0,616.0,154.0,462.0,924.0,770.0,308.0,gray,hexagon
0.0,3.0,2.0,0.0,7.0,4.0,1144.2947810010082,3.0,1.0,phase_3,,,,,616.0,4.0,308.0,770.0,924.0,616.0,154.0,462.0,green,circle
0.0,2.0,1.0,0.0,7.0,4.0,1332.820764000644,3.0,1.0,phase_3,,,,,464.0,4.0,580.0,348.0,116.0,464.0,232.0,696.0,white,square
0.0,7.0,2.0,1.0,7.0,4.0,1027.6852429997234,3.0,1.0,phase_3,,,,,135.0,1.0,810.0,540.0,405.0,135.0,270.0,675.0,gray,hexagon
0.0,4.0,4.0,0.0,7.0,4.0,927.8216060010892,3.0,1.0,phase_3,,,,,1038.0,6.0,519.0,865.0,173.0,1038.0,692.0,346.0,cyan,cross
0.0,3.0,2.0,0.0,7.0,4.0,1247.6808880001045,4.0,1.0,phase_3,,,,,116.0,1.0,232.0,580.0,348.0,116.0,696.0,464.0,green,circle
0.0,7.0,2.0,1.0,7.0,2.0,468.8644149991887,4.0,1.0,phase_3,,,,,768.0,4.0,576.0,768.0,192.0,1152.0,960.0,384.0,gray,hexagon
0.0,4.0,4.0,0.0,7.0,5.0,413.8521139993827,4.0,1.0,phase_3,,,,,135.0,1.0,675.0,270.0,810.0,540.0,135.0,405.0,cyan,cross
0.0,4.0,4.0,0.0,7.0,5.0,357.8567740005383,4.0,1.0,phase_3,,,,,154.0,1.0,770.0,462.0,308.0,924.0,154.0,616.0,cyan,cross
0.0,2.0,1.0,0.0,7.0,4.0,798.8777449991176,4.0,1.0,phase_3,,,,,1152.0,6.0,192.0,576.0,960.0,1152.0,384.0,768.0,white,square
0.0,5.0,0.5,1.0,7.0,3.0,1322.3120089987788,4.0,1.0,phase_3,,,,,192.0,1.0,960.0,768.0,192.0,576.0,384.0,1152.0,orange,diamond
0.0,6.0,1.0,1.0,7.0,2.0,1649.4242159988062,4.0,1.0,phase_3,,,,,865.0,5.0,1038.0,865.0,519.0,692.0,173.0,346.0,blue,flipped triangle
0.0,3.0,2.0,0.0,7.0,2.0,1404.6604490013124,4.0,1.0,phase_3,,,,,576.0,3.0,384.0,576.0,192.0,1152.0,960.0,768.0,green,circle
0.0,1.0,0.5,0.0,7.0,2.0,1211.3436119998369,4.0,1.0,phase_3,,,,,116.0,1.0,464.0,116.0,580.0,232.0,348.0,696.0,yellow,triangle
0.0,4.0,4.0,0.0,7.0,2.0,1080.6820449997758,4.0,1.0,phase_3,,,,,540.0,4.0,810.0,540.0,270.0,135.0,405.0,675.0,cyan,cross
0.0,7.0,2.0,1.0,7.0,5.0,1502.1572040004685,4.0,1.0,phase_3,,,,,1038.0,6.0,173.0,692.0,865.0,346.0,1038.0,519.0,gray,hexagon
0.0,6.0,1.0,1.0,7.0,5.0,1353.6154209996312,4.0,1.0,phase_3,,,,,405.0,3.0,675.0,270.0,540.0,135.0,405.0,810.0,blue,flipped triangle
0.0,5.0,0.5,1.0,7.0,5.0,1325.6733849993907,4.0,1.0,phase_3,,,,,865.0,5.0,173.0,1038.0,346.0,692.0,865.0,519.0,orange,diamond
0.0,3.0,2.0,0.0,7.0,5.0,1294.397651001418,4.0,1.0,phase_3,,,,,308.0,2.0,462.0,154.0,924.0,770.0,308.0,616.0,green,circle
0.0,8.0,4.0,1.0,7.0,6.0,1792.2362919998704,4.0,1.0,phase_3,,,,,154.0,1.0,924.0,308.0,616.0,462.0,770.0,154.0,magenta,I
0.0,8.0,4.0,1.0,7.0,2.0,2002.1629620005115,4.0,1.0,phase_3,,,,,154.0,1.0,770.0,154.0,924.0,462.0,308.0,616.0,magenta,I
0.0,2.0,1.0,0.0,7.0,2.0,1707.73650099909,4.0,1.0,phase_3,,,,,270.0,2.0,540.0,270.0,135.0,675.0,810.0,405.0,white,square
0.0,2.0,1.0,0.0,7.0,2.0,1209.2908049999096,4.0,1.0,phase_3,,,,,154.0,1.0,924.0,154.0,462.0,770.0,616.0,308.0,white,square
0.0,6.0,1.0,1.0,7.0,4.0,1388.8560100003815,4.0,1.0,phase_3,,,,,464.0,4.0,348.0,696.0,232.0,464.0,116.0,580.0,blue,flipped triangle
0.0,1.0,0.5,0.0,7.0,4.0,2425.88809299923,4.0,1.0,phase_3,,,,,770.0,5.0,462.0,616.0,924.0,770.0,154.0,308.0,yellow,triangle
