raw_reward_magnitude,stim_reward,stepwise_reward_magnitude,paired_with_stopping,stim_location,response,reaction_time,block,num_trial_presentations,which_phase,stop_signal_trial_type,left_SSD,right_SSD,accuracy,chosen_bidding_amount,chosen_bidding_level,possible_bid_1,possible_bid_2,possible_bid_3,possible_bid_4,possible_bid_5,possible_bid_6,color_text,shape_text
323.0,6.0,1.0,1.0,3.0,3.0,687.72257099954,1.0,1.0,phase_1,,,,,,,,,,,,,yellow,circle
1286.0,8.0,4.0,1.0,1.0,1.0,725.0636280004983,1.0,1.0,phase_1,,,,,,,,,,,,,gray,I
330.0,6.0,1.0,1.0,3.0,3.0,566.4550709998366,1.0,1.0,phase_1,,,,,,,,,,,,,yellow,circle
1289.0,4.0,4.0,0.0,1.0,1.0,800.904312000057,1.0,1.0,phase_1,,,,,,,,,,,,,blue,flipped triangle
1302.0,8.0,4.0,1.0,1.0,1.0,509.76169200021104,1.0,1.0,phase_1,,,,,,,,,,,,,gray,I
145.0,1.0,0.5,0.0,2.0,2.0,593.136720000075,1.0,1.0,phase_1,,,,,,,,,,,,,white,triangle
629.0,3.0,2.0,0.0,3.0,3.0,557.8826350001691,1.0,1.0,phase_1,,,,,,,,,,,,,orange,square
316.0,6.0,1.0,1.0,1.0,1.0,377.8031000001647,1.0,1.0,phase_1,,,,,,,,,,,,,yellow,circle
316.0,2.0,1.0,0.0,3.0,3.0,480.8773390004717,1.0,1.0,phase_1,,,,,,,,,,,,,green,diamond
647.0,7.0,2.0,1.0,3.0,3.0,454.5753379998132,1.0,1.0,phase_1,,,,,,,,,,,,,magenta,cross
1282.0,8.0,4.0,1.0,4.0,4.0,508.22716199945717,1.0,1.0,phase_1,,,,,,,,,,,,,gray,I
1308.0,4.0,4.0,0.0,3.0,3.0,503.82817999980034,1.0,1.0,phase_1,,,,,,,,,,,,,blue,flipped triangle
1277.0,4.0,4.0,0.0,2.0,2.0,566.2538790002145,1.0,1.0,phase_1,,,,,,,,,,,,,blue,flipped triangle
0.0,3.0,0.0,0.0,1.0,1.0,884.3164600002638,1.0,1.0,phase_1,,,,,,,,,,,,,orange,square
1308.0,8.0,4.0,1.0,2.0,2.0,499.60965199989,1.0,1.0,phase_1,,,,,,,,,,,,,gray,I
646.0,3.0,2.0,0.0,3.0,3.0,388.1436589999794,1.0,1.0,phase_1,,,,,,,,,,,,,orange,square
0.0,8.0,0.0,1.0,1.0,1.0,432.8389689999312,1.0,1.0,phase_1,,,,,,,,,,,,,gray,I
665.0,7.0,2.0,1.0,4.0,4.0,490.98017399956,1.0,1.0,phase_1,,,,,,,,,,,,,magenta,cross
140.0,1.0,0.5,0.0,2.0,2.0,537.0456159998866,1.0,1.0,phase_1,,,,,,,,,,,,,white,triangle
167.0,5.0,0.5,1.0,3.0,3.0,312.6065850001396,1.0,1.0,phase_1,,,,,,,,,,,,,cyan,hexagon
653.0,3.0,2.0,0.0,3.0,3.0,546.7465699994136,1.0,1.0,phase_1,,,,,,,,,,,,,orange,square
0.0,2.0,0.0,0.0,3.0,3.0,377.979392999805,1.0,1.0,phase_1,,,,,,,,,,,,,green,diamond
156.0,5.0,0.5,1.0,4.0,4.0,366.9207849998201,1.0,1.0,phase_1,,,,,,,,,,,,,cyan,hexagon
330.0,2.0,1.0,0.0,4.0,4.0,462.0907170001374,1.0,1.0,phase_1,,,,,,,,,,,,,green,diamond
644.0,3.0,2.0,0.0,3.0,3.0,405.6408320002447,1.0,1.0,phase_1,,,,,,,,,,,,,orange,square
186.0,5.0,0.5,1.0,1.0,1.0,376.5434729994013,1.0,1.0,phase_1,,,,,,,,,,,,,cyan,hexagon
315.0,2.0,1.0,0.0,4.0,4.0,414.2267850002099,1.0,1.0,phase_1,,,,,,,,,,,,,green,diamond
1296.0,4.0,4.0,0.0,2.0,2.0,442.9658689996358,1.0,1.0,phase_1,,,,,,,,,,,,,blue,flipped triangle
1296.0,8.0,4.0,1.0,3.0,3.0,387.2732250001718,1.0,1.0,phase_1,,,,,,,,,,,,,gray,I
644.0,7.0,2.0,1.0,2.0,2.0,321.6626780003935,1.0,1.0,phase_1,,,,,,,,,,,,,magenta,cross
179.0,1.0,0.5,0.0,4.0,4.0,340.1199069994618,1.0,1.0,phase_1,,,,,,,,,,,,,white,triangle
1296.0,4.0,4.0,0.0,1.0,1.0,453.4573309992993,1.0,1.0,phase_1,,,,,,,,,,,,,blue,flipped triangle
1305.0,4.0,4.0,0.0,2.0,2.0,340.3667969996604,1.0,1.0,phase_1,,,,,,,,,,,,,blue,flipped triangle
167.0,5.0,0.5,1.0,2.0,2.0,443.1503710002289,1.0,1.0,phase_1,,,,,,,,,,,,,cyan,hexagon
659.0,7.0,2.0,1.0,1.0,1.0,500.253371999861,1.0,1.0,phase_1,,,,,,,,,,,,,magenta,cross
664.0,3.0,2.0,0.0,2.0,2.0,358.0479820002438,1.0,1.0,phase_1,,,,,,,,,,,,,orange,square
0.0,1.0,0.0,0.0,1.0,1.0,576.4836600001217,1.0,1.0,phase_1,,,,,,,,,,,,,white,triangle
155.0,1.0,0.5,0.0,4.0,4.0,406.0510649997013,1.0,1.0,phase_1,,,,,,,,,,,,,white,triangle
0.0,8.0,0.0,1.0,4.0,4.0,386.5676989998974,1.0,1.0,phase_1,,,,,,,,,,,,,gray,I
147.0,1.0,0.5,0.0,3.0,3.0,433.2501850003609,1.0,1.0,phase_1,,,,,,,,,,,,,white,triangle
1298.0,4.0,4.0,0.0,2.0,2.0,396.3393240001096,1.0,1.0,phase_1,,,,,,,,,,,,,blue,flipped triangle
664.0,7.0,2.0,1.0,4.0,4.0,396.6326059999119,1.0,1.0,phase_1,,,,,,,,,,,,,magenta,cross
656.0,7.0,2.0,1.0,3.0,3.0,424.2802510007095,1.0,1.0,phase_1,,,,,,,,,,,,,magenta,cross
645.0,3.0,2.0,0.0,4.0,4.0,387.9852399995798,1.0,1.0,phase_1,,,,,,,,,,,,,orange,square
1285.0,4.0,4.0,0.0,3.0,3.0,277.5179299997035,1.0,1.0,phase_1,,,,,,,,,,,,,blue,flipped triangle
0.0,8.0,0.0,1.0,4.0,4.0,444.8483240003043,1.0,1.0,phase_1,,,,,,,,,,,,,gray,I
1316.0,4.0,4.0,0.0,4.0,4.0,396.9165419994169,1.0,1.0,phase_1,,,,,,,,,,,,,blue,flipped triangle
343.0,2.0,1.0,0.0,3.0,3.0,340.8898380002938,1.0,1.0,phase_1,,,,,,,,,,,,,green,diamond
1312.0,8.0,4.0,1.0,3.0,3.0,475.4243799998221,1.0,1.0,phase_1,,,,,,,,,,,,,gray,I
651.0,7.0,2.0,1.0,2.0,2.0,360.3582599998844,1.0,1.0,phase_1,,,,,,,,,,,,,magenta,cross
302.0,6.0,1.0,1.0,2.0,2.0,352.0048700002007,1.0,1.0,phase_1,,,,,,,,,,,,,yellow,circle
0.0,1.0,0.0,0.0,2.0,2.0,331.6068770000129,1.0,1.0,phase_1,,,,,,,,,,,,,white,triangle
142.0,1.0,0.5,0.0,1.0,1.0,768.5596250003073,1.0,1.0,phase_1,,,,,,,,,,,,,white,triangle
1318.0,8.0,4.0,1.0,1.0,1.0,523.8191090002147,1.0,1.0,phase_1,,,,,,,,,,,,,gray,I
652.0,7.0,2.0,1.0,1.0,1.0,510.1707229996464,1.0,1.0,phase_1,,,,,,,,,,,,,magenta,cross
309.0,6.0,1.0,1.0,1.0,1.0,444.0771499994298,1.0,1.0,phase_1,,,,,,,,,,,,,yellow,circle
0.0,3.0,0.0,0.0,1.0,1.0,448.1013289996554,1.0,1.0,phase_1,,,,,,,,,,,,,orange,square
308.0,2.0,1.0,0.0,3.0,3.0,616.3873479999893,1.0,1.0,phase_1,,,,,,,,,,,,,green,diamond
1303.0,8.0,4.0,1.0,4.0,4.0,502.37421699966944,1.0,1.0,phase_1,,,,,,,,,,,,,gray,I
156.0,1.0,0.5,0.0,4.0,4.0,475.1889249992018,1.0,1.0,phase_1,,,,,,,,,,,,,white,triangle
153.0,5.0,0.5,1.0,2.0,2.0,503.52991399995517,1.0,1.0,phase_1,,,,,,,,,,,,,cyan,hexagon
342.0,6.0,1.0,1.0,2.0,2.0,444.473186000323,1.0,1.0,phase_1,,,,,,,,,,,,,yellow,circle
329.0,6.0,1.0,1.0,1.0,1.0,414.5729190004203,1.0,2.0,phase_1,,,,,,,,,,,,,yellow,circle
1284.0,8.0,4.0,1.0,3.0,3.0,529.6594729998105,1.0,1.0,phase_1,,,,,,,,,,,,,gray,I
655.0,3.0,2.0,0.0,4.0,4.0,444.6493760005978,1.0,1.0,phase_1,,,,,,,,,,,,,orange,square
314.0,2.0,1.0,0.0,3.0,3.0,415.5002890001924,1.0,1.0,phase_1,,,,,,,,,,,,,green,diamond
330.0,2.0,1.0,0.0,1.0,1.0,492.0129440006349,1.0,1.0,phase_1,,,,,,,,,,,,,green,diamond
635.0,7.0,2.0,1.0,4.0,4.0,473.0840780002836,1.0,1.0,phase_1,,,,,,,,,,,,,magenta,cross
167.0,5.0,0.5,1.0,1.0,1.0,557.1808859995144,1.0,1.0,phase_1,,,,,,,,,,,,,cyan,hexagon
656.0,7.0,2.0,1.0,4.0,4.0,632.6593779995164,1.0,1.0,phase_1,,,,,,,,,,,,,magenta,cross
174.0,5.0,0.5,1.0,2.0,2.0,472.2422400000141,1.0,1.0,phase_1,,,,,,,,,,,,,cyan,hexagon
1318.0,4.0,4.0,0.0,3.0,3.0,435.9543900000062,1.0,1.0,phase_1,,,,,,,,,,,,,blue,flipped triangle
1318.0,4.0,4.0,0.0,3.0,3.0,378.3426140007577,1.0,1.0,phase_1,,,,,,,,,,,,,blue,flipped triangle
176.0,5.0,0.5,1.0,2.0,2.0,358.9028589994996,1.0,1.0,phase_1,,,,,,,,,,,,,cyan,hexagon
1318.0,8.0,4.0,1.0,3.0,3.0,369.1872029994556,1.0,1.0,phase_1,,,,,,,,,,,,,gray,I
342.0,6.0,1.0,1.0,3.0,3.0,330.4168329996173,1.0,1.0,phase_1,,,,,,,,,,,,,yellow,circle
636.0,3.0,2.0,0.0,4.0,4.0,416.58382300011,1.0,1.0,phase_1,,,,,,,,,,,,,orange,square
329.0,2.0,1.0,0.0,2.0,2.0,378.523270000187,1.0,1.0,phase_1,,,,,,,,,,,,,green,diamond
313.0,2.0,1.0,0.0,4.0,4.0,378.2889760004764,1.0,1.0,phase_1,,,,,,,,,,,,,green,diamond
0.0,2.0,0.0,0.0,2.0,2.0,264.44729800005,1.0,1.0,phase_1,,,,,,,,,,,,,green,diamond
1291.0,4.0,4.0,0.0,3.0,3.0,313.1781700003557,1.0,1.0,phase_1,,,,,,,,,,,,,blue,flipped triangle
0.0,3.0,0.0,0.0,2.0,2.0,359.1462459999093,1.0,1.0,phase_1,,,,,,,,,,,,,orange,square
167.0,1.0,0.5,0.0,3.0,3.0,397.48005499950517,1.0,1.0,phase_1,,,,,,,,,,,,,white,triangle
1301.0,8.0,4.0,1.0,2.0,2.0,406.6787219999241,1.0,1.0,phase_1,,,,,,,,,,,,,gray,I
0.0,5.0,0.0,1.0,3.0,3.0,388.1016510003974,1.0,1.0,phase_1,,,,,,,,,,,,,cyan,hexagon
1311.0,4.0,4.0,0.0,4.0,4.0,377.4352169994017,1.0,1.0,phase_1,,,,,,,,,,,,,blue,flipped triangle
179.0,1.0,0.5,0.0,1.0,1.0,472.3045920000004,1.0,2.0,phase_1,,,,,,,,,,,,,white,triangle
1281.0,8.0,4.0,1.0,1.0,1.0,463.4761610004716,1.0,1.0,phase_1,,,,,,,,,,,,,gray,I
318.0,2.0,1.0,0.0,2.0,2.0,329.7154550000414,1.0,1.0,phase_1,,,,,,,,,,,,,green,diamond
1310.0,8.0,4.0,1.0,2.0,2.0,416.029831000742,1.0,1.0,phase_1,,,,,,,,,,,,,gray,I
339.0,2.0,1.0,0.0,1.0,1.0,576.0238259999824,1.0,1.0,phase_1,,,,,,,,,,,,,green,diamond
314.0,6.0,1.0,1.0,1.0,1.0,568.2737619999898,1.0,1.0,phase_1,,,,,,,,,,,,,yellow,circle
138.0,1.0,0.5,0.0,2.0,2.0,443.44671499948157,1.0,1.0,phase_1,,,,,,,,,,,,,white,triangle
328.0,6.0,1.0,1.0,3.0,3.0,444.7250869998242,1.0,1.0,phase_1,,,,,,,,,,,,,yellow,circle
142.0,1.0,0.5,0.0,4.0,4.0,491.0447369993562,1.0,1.0,phase_1,,,,,,,,,,,,,white,triangle
0.0,8.0,0.0,1.0,4.0,4.0,491.617591999784,1.0,1.0,phase_1,,,,,,,,,,,,,gray,I
668.0,3.0,2.0,0.0,4.0,4.0,528.2004160008,1.0,2.0,phase_1,,,,,,,,,,,,,orange,square
139.0,5.0,0.5,1.0,4.0,4.0,444.5820930004629,1.0,1.0,phase_1,,,,,,,,,,,,,cyan,hexagon
323.0,2.0,1.0,0.0,2.0,2.0,416.5155589998903,1.0,1.0,phase_1,,,,,,,,,,,,,green,diamond
332.0,6.0,1.0,1.0,1.0,1.0,850.8184390002498,1.0,1.0,phase_1,,,,,,,,,,,,,yellow,circle
0.0,5.0,0.0,1.0,4.0,4.0,568.4047899994766,2.0,1.0,phase_1,,,,,,,,,,,,,cyan,hexagon
674.0,7.0,2.0,1.0,4.0,4.0,406.0405919999539,2.0,1.0,phase_1,,,,,,,,,,,,,magenta,cross
0.0,4.0,0.0,0.0,4.0,4.0,512.4420370002554,2.0,1.0,phase_1,,,,,,,,,,,,,blue,flipped triangle
309.0,2.0,1.0,0.0,2.0,2.0,321.2130840001919,2.0,1.0,phase_1,,,,,,,,,,,,,green,diamond
1280.0,4.0,4.0,0.0,1.0,1.0,607.1431830005167,2.0,1.0,phase_1,,,,,,,,,,,,,blue,flipped triangle
318.0,6.0,1.0,1.0,2.0,2.0,359.0295430003607,2.0,1.0,phase_1,,,,,,,,,,,,,yellow,circle
1298.0,8.0,4.0,1.0,1.0,1.0,415.5573950001781,2.0,1.0,phase_1,,,,,,,,,,,,,gray,I
633.0,3.0,2.0,0.0,3.0,3.0,595.1174370002263,2.0,1.0,phase_1,,,,,,,,,,,,,orange,square
328.0,2.0,1.0,0.0,1.0,1.0,406.9027189998451,2.0,1.0,phase_1,,,,,,,,,,,,,green,diamond
317.0,2.0,1.0,0.0,1.0,1.0,406.0424990002502,2.0,1.0,phase_1,,,,,,,,,,,,,green,diamond
1310.0,4.0,4.0,0.0,3.0,3.0,584.8332370005664,2.0,2.0,phase_1,,,,,,,,,,,,,blue,flipped triangle
310.0,6.0,1.0,1.0,4.0,4.0,472.6873990002787,2.0,1.0,phase_1,,,,,,,,,,,,,yellow,circle
338.0,2.0,1.0,0.0,4.0,4.0,396.67602999998047,2.0,1.0,phase_1,,,,,,,,,,,,,green,diamond
0.0,7.0,0.0,1.0,4.0,4.0,406.9697449995146,2.0,1.0,phase_1,,,,,,,,,,,,,magenta,cross
314.0,2.0,1.0,0.0,1.0,1.0,426.2948940004207,2.0,1.0,phase_1,,,,,,,,,,,,,green,diamond
646.0,7.0,2.0,1.0,3.0,3.0,480.1217829999586,2.0,1.0,phase_1,,,,,,,,,,,,,magenta,cross
170.0,1.0,0.5,0.0,3.0,3.0,397.2580939998806,2.0,1.0,phase_1,,,,,,,,,,,,,white,triangle
638.0,3.0,2.0,0.0,1.0,1.0,566.929835999872,2.0,1.0,phase_1,,,,,,,,,,,,,orange,square
155.0,5.0,0.5,1.0,4.0,4.0,396.9291419998626,2.0,1.0,phase_1,,,,,,,,,,,,,cyan,hexagon
170.0,1.0,0.5,0.0,3.0,3.0,359.7669049995602,2.0,1.0,phase_1,,,,,,,,,,,,,white,triangle
335.0,6.0,1.0,1.0,4.0,4.0,520.3952390002087,2.0,1.0,phase_1,,,,,,,,,,,,,yellow,circle
323.0,6.0,1.0,1.0,4.0,4.0,331.0615780001171,2.0,1.0,phase_1,,,,,,,,,,,,,yellow,circle
0.0,2.0,0.0,0.0,2.0,2.0,330.808337000235,2.0,2.0,phase_1,,,,,,,,,,,,,green,diamond
657.0,3.0,2.0,0.0,4.0,4.0,415.6343310005468,2.0,1.0,phase_1,,,,,,,,,,,,,orange,square
1311.0,8.0,4.0,1.0,1.0,1.0,415.5891439995685,2.0,1.0,phase_1,,,,,,,,,,,,,gray,I
0.0,1.0,0.0,0.0,2.0,2.0,443.53381899964,2.0,1.0,phase_1,,,,,,,,,,,,,white,triangle
1321.0,4.0,4.0,0.0,3.0,3.0,369.302635999702,2.0,1.0,phase_1,,,,,,,,,,,,,blue,flipped triangle
184.0,5.0,0.5,1.0,1.0,1.0,443.5764250001739,2.0,1.0,phase_1,,,,,,,,,,,,,cyan,hexagon
0.0,7.0,0.0,1.0,3.0,3.0,369.3113849994915,2.0,1.0,phase_1,,,,,,,,,,,,,magenta,cross
1318.0,8.0,4.0,1.0,4.0,4.0,506.8239980000726,2.0,1.0,phase_1,,,,,,,,,,,,,gray,I
142.0,5.0,0.5,1.0,1.0,1.0,369.9662260005425,2.0,1.0,phase_1,,,,,,,,,,,,,cyan,hexagon
179.0,5.0,0.5,1.0,4.0,4.0,500.73485800021444,2.0,1.0,phase_1,,,,,,,,,,,,,cyan,hexagon
1298.0,8.0,4.0,1.0,4.0,4.0,472.51412300011,2.0,1.0,phase_1,,,,,,,,,,,,,gray,I
1324.0,4.0,4.0,0.0,4.0,4.0,585.1334250000946,2.0,1.0,phase_1,,,,,,,,,,,,,blue,flipped triangle
636.0,7.0,2.0,1.0,4.0,4.0,388.3494009996866,2.0,1.0,phase_1,,,,,,,,,,,,,magenta,cross
664.0,3.0,2.0,0.0,2.0,2.0,358.2797829994888,2.0,1.0,phase_1,,,,,,,,,,,,,orange,square
158.0,1.0,0.5,0.0,3.0,3.0,434.181857999647,2.0,1.0,phase_1,,,,,,,,,,,,,white,triangle
629.0,7.0,2.0,1.0,1.0,1.0,406.3412310006242,2.0,1.0,phase_1,,,,,,,,,,,,,magenta,cross
313.0,6.0,1.0,1.0,3.0,3.0,341.7620769996574,2.0,1.0,phase_1,,,,,,,,,,,,,yellow,circle
1304.0,4.0,4.0,0.0,2.0,2.0,283.2690109999021,2.0,1.0,phase_1,,,,,,,,,,,,,blue,flipped triangle
0.0,7.0,0.0,1.0,2.0,2.0,303.3873230006065,2.0,1.0,phase_1,,,,,,,,,,,,,magenta,cross
337.0,2.0,1.0,0.0,4.0,4.0,472.9899599997225,2.0,1.0,phase_1,,,,,,,,,,,,,green,diamond
1317.0,4.0,4.0,0.0,2.0,2.0,285.27638200012,2.0,1.0,phase_1,,,,,,,,,,,,,blue,flipped triangle
659.0,3.0,2.0,0.0,4.0,4.0,585.8511839996936,2.0,1.0,phase_1,,,,,,,,,,,,,orange,square
0.0,3.0,0.0,0.0,1.0,1.0,463.1747070006895,2.0,1.0,phase_1,,,,,,,,,,,,,orange,square
140.0,5.0,0.5,1.0,1.0,1.0,406.2645909998537,2.0,1.0,phase_1,,,,,,,,,,,,,cyan,hexagon
325.0,2.0,1.0,0.0,3.0,3.0,368.7105899998641,2.0,1.0,phase_1,,,,,,,,,,,,,green,diamond
1292.0,8.0,4.0,1.0,1.0,1.0,424.9907029998212,2.0,1.0,phase_1,,,,,,,,,,,,,gray,I
329.0,6.0,1.0,1.0,3.0,3.0,341.1472799998591,2.0,1.0,phase_1,,,,,,,,,,,,,yellow,circle
671.0,3.0,2.0,0.0,2.0,2.0,452.7667419997669,2.0,1.0,phase_1,,,,,,,,,,,,,orange,square
629.0,3.0,2.0,0.0,3.0,3.0,369.276510000418,2.0,1.0,phase_1,,,,,,,,,,,,,orange,square
1283.0,8.0,4.0,1.0,4.0,4.0,556.8922399997973,2.0,1.0,phase_1,,,,,,,,,,,,,gray,I
0.0,2.0,0.0,0.0,1.0,1.0,735.9657380002318,2.0,1.0,phase_1,,,,,,,,,,,,,green,diamond
314.0,6.0,1.0,1.0,2.0,2.0,321.1246179998852,2.0,1.0,phase_1,,,,,,,,,,,,,yellow,circle
157.0,5.0,0.5,1.0,2.0,2.0,284.3912620000992,2.0,2.0,phase_1,,,,,,,,,,,,,cyan,hexagon
0.0,1.0,0.0,0.0,1.0,1.0,611.409434000052,2.0,1.0,phase_1,,,,,,,,,,,,,white,triangle
1281.0,4.0,4.0,0.0,2.0,2.0,395.8717730001808,2.0,1.0,phase_1,,,,,,,,,,,,,blue,flipped triangle
313.0,6.0,1.0,1.0,4.0,4.0,518.0900850000398,2.0,1.0,phase_1,,,,,,,,,,,,,yellow,circle
633.0,7.0,2.0,1.0,3.0,3.0,415.593450000415,2.0,1.0,phase_1,,,,,,,,,,,,,magenta,cross
1318.0,4.0,4.0,0.0,3.0,3.0,377.3440260001734,2.0,1.0,phase_1,,,,,,,,,,,,,blue,flipped triangle
142.0,5.0,0.5,1.0,3.0,3.0,301.8223050003144,2.0,1.0,phase_1,,,,,,,,,,,,,cyan,hexagon
163.0,5.0,0.5,1.0,3.0,3.0,282.9652140007965,2.0,1.0,phase_1,,,,,,,,,,,,,cyan,hexagon
1286.0,4.0,4.0,0.0,1.0,1.0,519.2626730004122,2.0,1.0,phase_1,,,,,,,,,,,,,blue,flipped triangle
0.0,2.0,0.0,0.0,4.0,4.0,640.9955099998115,2.0,1.0,phase_1,,,,,,,,,,,,,green,diamond
1299.0,4.0,4.0,0.0,1.0,1.0,462.6433129997167,2.0,1.0,phase_1,,,,,,,,,,,,,blue,flipped triangle
0.0,2.0,0.0,0.0,1.0,1.0,368.229976999828,2.0,1.0,phase_1,,,,,,,,,,,,,green,diamond
0.0,4.0,0.0,0.0,3.0,3.0,396.4064700003291,2.0,1.0,phase_1,,,,,,,,,,,,,blue,flipped triangle
167.0,1.0,0.5,0.0,2.0,2.0,377.5019950007845,2.0,1.0,phase_1,,,,,,,,,,,,,white,triangle
642.0,3.0,2.0,0.0,1.0,1.0,594.0759660006734,2.0,2.0,phase_1,,,,,,,,,,,,,orange,square
0.0,6.0,0.0,1.0,3.0,3.0,359.3432640000173,2.0,1.0,phase_1,,,,,,,,,,,,,yellow,circle
302.0,2.0,1.0,0.0,4.0,4.0,500.52130699987174,2.0,1.0,phase_1,,,,,,,,,,,,,green,diamond
342.0,2.0,1.0,0.0,4.0,4.0,443.4310850001566,2.0,1.0,phase_1,,,,,,,,,,,,,green,diamond
313.0,6.0,1.0,1.0,2.0,2.0,488.2330790005653,2.0,1.0,phase_1,,,,,,,,,,,,,yellow,circle
636.0,7.0,2.0,1.0,3.0,3.0,331.1873619995822,2.0,1.0,phase_1,,,,,,,,,,,,,magenta,cross
168.0,5.0,0.5,1.0,2.0,2.0,359.283312000116,2.0,1.0,phase_1,,,,,,,,,,,,,cyan,hexagon
636.0,3.0,2.0,0.0,2.0,2.0,433.8030129993058,2.0,1.0,phase_1,,,,,,,,,,,,,orange,square
1308.0,4.0,4.0,0.0,4.0,4.0,556.0709869996572,2.0,1.0,phase_1,,,,,,,,,,,,,blue,flipped triangle
664.0,7.0,2.0,1.0,1.0,1.0,509.9718199999188,2.0,1.0,phase_1,,,,,,,,,,,,,magenta,cross
318.0,6.0,1.0,1.0,1.0,1.0,500.04085000000487,2.0,1.0,phase_1,,,,,,,,,,,,,yellow,circle
633.0,3.0,2.0,0.0,2.0,2.0,367.7257869994719,2.0,1.0,phase_1,,,,,,,,,,,,,orange,square
1289.0,4.0,4.0,0.0,2.0,2.0,387.2650230005092,2.0,1.0,phase_1,,,,,,,,,,,,,blue,flipped triangle
161.0,5.0,0.5,1.0,3.0,3.0,416.6117189997749,2.0,1.0,phase_1,,,,,,,,,,,,,cyan,hexagon
628.0,7.0,2.0,1.0,3.0,3.0,397.0190779991753,2.0,1.0,phase_1,,,,,,,,,,,,,magenta,cross
176.0,1.0,0.5,0.0,3.0,3.0,454.5137889999751,2.0,1.0,phase_1,,,,,,,,,,,,,white,triangle
329.0,2.0,1.0,0.0,3.0,3.0,310.9749929999452,2.0,1.0,phase_1,,,,,,,,,,,,,green,diamond
1277.0,8.0,4.0,1.0,2.0,2.0,396.4606419995107,2.0,1.0,phase_1,,,,,,,,,,,,,gray,I
0.0,1.0,0.0,0.0,1.0,1.0,443.6885900004199,2.0,1.0,phase_1,,,,,,,,,,,,,white,triangle
157.0,5.0,0.5,1.0,2.0,2.0,245.0739209998573,2.0,2.0,phase_1,,,,,,,,,,,,,cyan,hexagon
645.0,7.0,2.0,1.0,1.0,1.0,377.2038649995011,2.0,1.0,phase_1,,,,,,,,,,,,,magenta,cross
1321.0,8.0,4.0,1.0,1.0,1.0,349.1897060002884,2.0,1.0,phase_1,,,,,,,,,,,,,gray,I
664.0,3.0,2.0,0.0,1.0,1.0,368.4279190001689,2.0,1.0,phase_1,,,,,,,,,,,,,orange,square
186.0,1.0,0.5,0.0,1.0,1.0,396.9787120004184,2.0,1.0,phase_1,,,,,,,,,,,,,white,triangle
0.0,4.0,0.0,0.0,2.0,2.0,481.9730589997562,2.0,1.0,phase_1,,,,,,,,,,,,,blue,flipped triangle
655.0,7.0,2.0,1.0,3.0,3.0,405.650183999569,2.0,1.0,phase_1,,,,,,,,,,,,,magenta,cross
0.0,2.0,0.0,0.0,2.0,2.0,480.9475079991898,2.0,1.0,phase_1,,,,,,,,,,,,,green,diamond
138.0,5.0,0.5,1.0,3.0,3.0,424.6049319999656,2.0,1.0,phase_1,,,,,,,,,,,,,cyan,hexagon
141.0,5.0,0.5,1.0,3.0,3.0,480.7966400003352,2.0,1.0,phase_1,,,,,,,,,,,,,cyan,hexagon
340.0,6.0,1.0,1.0,4.0,4.0,445.7442780003475,2.0,2.0,phase_1,,,,,,,,,,,,,yellow,circle
338.0,6.0,1.0,1.0,2.0,2.0,455.8830880005189,2.0,1.0,phase_1,,,,,,,,,,,,,yellow,circle
653.0,7.0,2.0,1.0,2.0,2.0,511.05963200006954,2.0,1.0,phase_1,,,,,,,,,,,,,magenta,cross
664.0,7.0,2.0,1.0,2.0,2.0,453.6105580000367,3.0,1.0,phase_1,,,,,,,,,,,,,magenta,cross
0.0,2.0,0.0,0.0,4.0,4.0,482.099511999877,3.0,1.0,phase_1,,,,,,,,,,,,,green,diamond
645.0,7.0,2.0,1.0,4.0,4.0,548.1176459998096,3.0,1.0,phase_1,,,,,,,,,,,,,magenta,cross
164.0,1.0,0.5,0.0,4.0,4.0,443.9561660001345,3.0,1.0,phase_1,,,,,,,,,,,,,white,triangle
345.0,2.0,1.0,0.0,2.0,2.0,461.7905370005246,3.0,1.0,phase_1,,,,,,,,,,,,,green,diamond
0.0,4.0,0.0,0.0,4.0,4.0,415.5239270003221,3.0,1.0,phase_1,,,,,,,,,,,,,blue,flipped triangle
167.0,1.0,0.5,0.0,1.0,1.0,889.717821000886,3.0,1.0,phase_1,,,,,,,,,,,,,white,triangle
148.0,1.0,0.5,0.0,2.0,2.0,396.372238999902,3.0,1.0,phase_1,,,,,,,,,,,,,white,triangle
163.0,1.0,0.5,0.0,1.0,1.0,365.640252999583,3.0,1.0,phase_1,,,,,,,,,,,,,white,triangle
335.0,2.0,1.0,0.0,2.0,2.0,274.3054419997861,3.0,1.0,phase_1,,,,,,,,,,,,,green,diamond
0.0,1.0,0.0,0.0,1.0,1.0,510.340011000153,3.0,1.0,phase_1,,,,,,,,,,,,,white,triangle
667.0,3.0,2.0,0.0,1.0,1.0,396.701437000047,3.0,1.0,phase_1,,,,,,,,,,,,,orange,square
667.0,7.0,2.0,1.0,1.0,1.0,321.080042000176,3.0,1.0,phase_1,,,,,,,,,,,,,magenta,cross
330.0,6.0,1.0,1.0,1.0,1.0,378.7132389998078,3.0,1.0,phase_1,,,,,,,,,,,,,yellow,circle
1313.0,8.0,4.0,1.0,3.0,3.0,556.7306100001588,3.0,1.0,phase_1,,,,,,,,,,,,,gray,I
150.0,1.0,0.5,0.0,3.0,3.0,453.0150790005791,3.0,1.0,phase_1,,,,,,,,,,,,,white,triangle
310.0,2.0,1.0,0.0,3.0,3.0,339.4367619994227,3.0,1.0,phase_1,,,,,,,,,,,,,green,diamond
1298.0,8.0,4.0,1.0,4.0,4.0,472.2741630002929,3.0,1.0,phase_1,,,,,,,,,,,,,gray,I
0.0,6.0,0.0,1.0,1.0,1.0,292.3315059997549,3.0,1.0,phase_1,,,,,,,,,,,,,yellow,circle
184.0,5.0,0.5,1.0,2.0,2.0,330.5815790008637,3.0,1.0,phase_1,,,,,,,,,,,,,cyan,hexagon
637.0,3.0,2.0,0.0,4.0,4.0,625.130502000502,3.0,1.0,phase_1,,,,,,,,,,,,,orange,square
1298.0,4.0,4.0,0.0,4.0,4.0,434.8421570002756,3.0,1.0,phase_1,,,,,,,,,,,,,blue,flipped triangle
183.0,5.0,0.5,1.0,3.0,3.0,386.7910939998182,3.0,1.0,phase_1,,,,,,,,,,,,,cyan,hexagon
317.0,6.0,1.0,1.0,3.0,3.0,368.3838289998675,3.0,1.0,phase_1,,,,,,,,,,,,,yellow,circle
139.0,1.0,0.5,0.0,1.0,1.0,321.6114920005566,3.0,1.0,phase_1,,,,,,,,,,,,,white,triangle
1284.0,4.0,4.0,0.0,2.0,2.0,388.0921049994867,3.0,1.0,phase_1,,,,,,,,,,,,,blue,flipped triangle
651.0,3.0,2.0,0.0,4.0,4.0,379.1815099993982,3.0,1.0,phase_1,,,,,,,,,,,,,orange,square
635.0,3.0,2.0,0.0,2.0,2.0,350.1756169998771,3.0,1.0,phase_1,,,,,,,,,,,,,orange,square
148.0,5.0,0.5,1.0,4.0,4.0,539.3235609999465,3.0,1.0,phase_1,,,,,,,,,,,,,cyan,hexagon
174.0,1.0,0.5,0.0,3.0,3.0,436.0339029999522,3.0,1.0,phase_1,,,,,,,,,,,,,white,triangle
645.0,3.0,2.0,0.0,2.0,2.0,312.3819409993302,3.0,1.0,phase_1,,,,,,,,,,,,,orange,square
315.0,6.0,1.0,1.0,4.0,4.0,352.3040230002152,3.0,1.0,phase_1,,,,,,,,,,,,,yellow,circle
300.0,6.0,1.0,1.0,3.0,3.0,379.003831000773,3.0,1.0,phase_1,,,,,,,,,,,,,yellow,circle
305.0,6.0,1.0,1.0,3.0,3.0,444.6060319996832,3.0,1.0,phase_1,,,,,,,,,,,,,yellow,circle
628.0,3.0,2.0,0.0,1.0,1.0,397.1019710006658,3.0,1.0,phase_1,,,,,,,,,,,,,orange,square
1317.0,8.0,4.0,1.0,4.0,4.0,377.5102500003413,3.0,1.0,phase_1,,,,,,,,,,,,,gray,I
1308.0,8.0,4.0,1.0,3.0,3.0,397.6875409998683,3.0,1.0,phase_1,,,,,,,,,,,,,gray,I
1277.0,4.0,4.0,0.0,4.0,4.0,641.8019140000979,3.0,1.0,phase_1,,,,,,,,,,,,,blue,flipped triangle
651.0,7.0,2.0,1.0,2.0,2.0,463.6110510000435,3.0,1.0,phase_1,,,,,,,,,,,,,magenta,cross
0.0,5.0,0.0,1.0,1.0,1.0,415.3575599993928,3.0,1.0,phase_1,,,,,,,,,,,,,cyan,hexagon
170.0,5.0,0.5,1.0,4.0,4.0,414.770026000042,3.0,1.0,phase_1,,,,,,,,,,,,,cyan,hexagon
0.0,3.0,0.0,0.0,2.0,2.0,463.0901999998968,3.0,1.0,phase_1,,,,,,,,,,,,,orange,square
668.0,7.0,2.0,1.0,2.0,2.0,406.5573649995713,3.0,1.0,phase_1,,,,,,,,,,,,,magenta,cross
636.0,7.0,2.0,1.0,3.0,3.0,604.9847089998366,3.0,1.0,phase_1,,,,,,,,,,,,,magenta,cross
313.0,2.0,1.0,0.0,4.0,4.0,565.894646999368,3.0,1.0,phase_1,,,,,,,,,,,,,green,diamond
168.0,1.0,0.5,0.0,1.0,1.0,435.164081000039,3.0,1.0,phase_1,,,,,,,,,,,,,white,triangle
1292.0,4.0,4.0,0.0,4.0,4.0,443.7859250001565,3.0,1.0,phase_1,,,,,,,,,,,,,blue,flipped triangle
1283.0,4.0,4.0,0.0,1.0,1.0,386.5750099994329,3.0,1.0,phase_1,,,,,,,,,,,,,blue,flipped triangle
313.0,2.0,1.0,0.0,1.0,1.0,406.2486089997037,3.0,1.0,phase_1,,,,,,,,,,,,,green,diamond
645.0,3.0,2.0,0.0,3.0,3.0,481.9720460000098,3.0,1.0,phase_1,,,,,,,,,,,,,orange,square
1282.0,4.0,4.0,0.0,3.0,3.0,462.9014009997263,3.0,1.0,phase_1,,,,,,,,,,,,,blue,flipped triangle
674.0,3.0,2.0,0.0,4.0,4.0,537.040745000013,3.0,1.0,phase_1,,,,,,,,,,,,,orange,square
629.0,3.0,2.0,0.0,2.0,2.0,351.179513999341,3.0,2.0,phase_1,,,,,,,,,,,,,orange,square
318.0,2.0,1.0,0.0,3.0,3.0,424.2810840005404,3.0,1.0,phase_1,,,,,,,,,,,,,green,diamond
1299.0,8.0,4.0,1.0,4.0,4.0,472.4278160001631,3.0,1.0,phase_1,,,,,,,,,,,,,gray,I
322.0,6.0,1.0,1.0,4.0,4.0,415.4759379998722,3.0,1.0,phase_1,,,,,,,,,,,,,yellow,circle
0.0,5.0,0.0,1.0,1.0,1.0,489.8088529998858,3.0,1.0,phase_1,,,,,,,,,,,,,cyan,hexagon
1304.0,8.0,4.0,1.0,4.0,4.0,359.1267050005626,3.0,1.0,phase_1,,,,,,,,,,,,,gray,I
147.0,5.0,0.5,1.0,1.0,1.0,284.7701630007577,3.0,1.0,phase_1,,,,,,,,,,,,,cyan,hexagon
672.0,7.0,2.0,1.0,4.0,4.0,444.2882410003221,3.0,1.0,phase_1,,,,,,,,,,,,,magenta,cross
145.0,5.0,0.5,1.0,1.0,1.0,368.6424940005963,3.0,1.0,phase_1,,,,,,,,,,,,,cyan,hexagon
180.0,1.0,0.5,0.0,2.0,2.0,462.4852110000574,3.0,1.0,phase_1,,,,,,,,,,,,,white,triangle
0.0,6.0,0.0,1.0,1.0,1.0,509.8062420001952,3.0,1.0,phase_1,,,,,,,,,,,,,yellow,circle
0.0,5.0,0.0,1.0,1.0,1.0,386.2667470002634,3.0,1.0,phase_1,,,,,,,,,,,,,cyan,hexagon
1280.0,8.0,4.0,1.0,2.0,2.0,491.7902659999527,3.0,1.0,phase_1,,,,,,,,,,,,,gray,I
656.0,3.0,2.0,0.0,4.0,4.0,463.2626519996847,3.0,1.0,phase_1,,,,,,,,,,,,,orange,square
0.0,1.0,0.0,0.0,3.0,3.0,386.7284280004242,3.0,1.0,phase_1,,,,,,,,,,,,,white,triangle
656.0,3.0,2.0,0.0,3.0,3.0,368.8401790004718,3.0,1.0,phase_1,,,,,,,,,,,,,orange,square
0.0,7.0,0.0,1.0,3.0,3.0,369.4075200000952,3.0,1.0,phase_1,,,,,,,,,,,,,magenta,cross
308.0,6.0,1.0,1.0,2.0,2.0,565.8265370002482,3.0,1.0,phase_1,,,,,,,,,,,,,yellow,circle
305.0,2.0,1.0,0.0,1.0,1.0,443.9183190006588,3.0,1.0,phase_1,,,,,,,,,,,,,green,diamond
0.0,4.0,0.0,0.0,1.0,1.0,360.4473589994086,3.0,1.0,phase_1,,,,,,,,,,,,,blue,flipped triangle
652.0,3.0,2.0,0.0,1.0,1.0,372.073205999186,3.0,1.0,phase_1,,,,,,,,,,,,,orange,square
0.0,4.0,0.0,0.0,2.0,2.0,358.3568390004075,3.0,1.0,phase_1,,,,,,,,,,,,,blue,flipped triangle
144.0,5.0,0.5,1.0,2.0,2.0,321.3946830001077,3.0,1.0,phase_1,,,,,,,,,,,,,cyan,hexagon
0.0,4.0,0.0,0.0,1.0,1.0,358.3147199997256,3.0,1.0,phase_1,,,,,,,,,,,,,blue,flipped triangle
157.0,1.0,0.5,0.0,2.0,2.0,568.1709320006121,3.0,1.0,phase_1,,,,,,,,,,,,,white,triangle
1298.0,4.0,4.0,0.0,4.0,4.0,547.7769670005728,3.0,1.0,phase_1,,,,,,,,,,,,,blue,flipped triangle
342.0,2.0,1.0,0.0,3.0,3.0,566.462705000049,3.0,1.0,phase_1,,,,,,,,,,,,,green,diamond
340.0,2.0,1.0,0.0,2.0,2.0,651.6147149995959,3.0,1.0,phase_1,,,,,,,,,,,,,green,diamond
665.0,3.0,2.0,0.0,2.0,2.0,452.332610000667,3.0,1.0,phase_1,,,,,,,,,,,,,orange,square
666.0,3.0,2.0,0.0,1.0,1.0,310.8296540003721,3.0,1.0,phase_1,,,,,,,,,,,,,orange,square
300.0,2.0,1.0,0.0,4.0,4.0,454.7492209994743,3.0,1.0,phase_1,,,,,,,,,,,,,green,diamond
0.0,1.0,0.0,0.0,1.0,1.0,387.9358929998489,3.0,1.0,phase_1,,,,,,,,,,,,,white,triangle
0.0,5.0,0.0,1.0,3.0,3.0,453.7086489999637,3.0,1.0,phase_1,,,,,,,,,,,,,cyan,hexagon
0.0,5.0,0.0,1.0,2.0,2.0,621.8144169997686,3.0,1.0,phase_1,,,,,,,,,,,,,cyan,hexagon
343.0,6.0,1.0,1.0,2.0,2.0,593.8812589993177,3.0,1.0,phase_1,,,,,,,,,,,,,yellow,circle
330.0,2.0,1.0,0.0,4.0,4.0,612.3862910008029,3.0,1.0,phase_1,,,,,,,,,,,,,green,diamond
665.0,7.0,2.0,1.0,1.0,1.0,330.8000310007628,3.0,1.0,phase_1,,,,,,,,,,,,,magenta,cross
1303.0,4.0,4.0,0.0,4.0,4.0,340.7932820000496,3.0,1.0,phase_1,,,,,,,,,,,,,blue,flipped triangle
666.0,7.0,2.0,1.0,3.0,3.0,302.6626790006048,3.0,1.0,phase_1,,,,,,,,,,,,,magenta,cross
1289.0,8.0,4.0,1.0,1.0,1.0,396.173570999963,3.0,1.0,phase_1,,,,,,,,,,,,,gray,I
651.0,3.0,2.0,0.0,3.0,3.0,395.5184579999695,3.0,1.0,phase_1,,,,,,,,,,,,,orange,square
0.0,5.0,0.0,1.0,4.0,4.0,575.1716249997116,3.0,1.0,phase_1,,,,,,,,,,,,,cyan,hexagon
636.0,3.0,2.0,0.0,2.0,2.0,329.4334840002193,3.0,1.0,phase_1,,,,,,,,,,,,,orange,square
0.0,3.0,0.0,0.0,3.0,3.0,340.7158609998078,3.0,1.0,phase_1,,,,,,,,,,,,,orange,square
642.0,7.0,2.0,1.0,2.0,2.0,330.7915929999581,3.0,1.0,phase_1,,,,,,,,,,,,,magenta,cross
170.0,5.0,0.5,1.0,3.0,3.0,556.4936659993691,3.0,1.0,phase_1,,,,,,,,,,,,,cyan,hexagon
323.0,2.0,1.0,0.0,2.0,2.0,349.0638829998715,3.0,1.0,phase_1,,,,,,,,,,,,,green,diamond
633.0,7.0,2.0,1.0,3.0,3.0,481.3426189994061,3.0,1.0,phase_1,,,,,,,,,,,,,magenta,cross
0.0,7.0,0.0,1.0,3.0,3.0,462.2457499999655,4.0,1.0,phase_1,,,,,,,,,,,,,magenta,cross
0.0,4.0,0.0,0.0,4.0,4.0,453.5444260000076,4.0,1.0,phase_1,,,,,,,,,,,,,blue,flipped triangle
0.0,6.0,0.0,1.0,4.0,4.0,407.8065809999316,4.0,1.0,phase_1,,,,,,,,,,,,,yellow,circle
0.0,8.0,0.0,1.0,3.0,3.0,367.8896800001894,4.0,1.0,phase_1,,,,,,,,,,,,,gray,I
345.0,6.0,1.0,1.0,3.0,3.0,378.5710929996639,4.0,1.0,phase_1,,,,,,,,,,,,,yellow,circle
0.0,1.0,0.0,0.0,1.0,1.0,376.6002309994292,4.0,1.0,phase_1,,,,,,,,,,,,,white,triangle
142.0,5.0,0.5,1.0,4.0,4.0,321.4490560003469,4.0,1.0,phase_1,,,,,,,,,,,,,cyan,hexagon
1324.0,8.0,4.0,1.0,2.0,2.0,367.5229020000188,4.0,1.0,phase_1,,,,,,,,,,,,,gray,I
153.0,1.0,0.5,0.0,1.0,1.0,481.9606780001777,4.0,1.0,phase_1,,,,,,,,,,,,,white,triangle
0.0,7.0,0.0,1.0,2.0,2.0,376.9658949995573,4.0,1.0,phase_1,,,,,,,,,,,,,magenta,cross
665.0,3.0,2.0,0.0,1.0,1.0,310.9515340001962,4.0,1.0,phase_1,,,,,,,,,,,,,orange,square
0.0,6.0,0.0,1.0,1.0,1.0,417.353942999398,4.0,1.0,phase_1,,,,,,,,,,,,,yellow,circle
1285.0,8.0,4.0,1.0,2.0,2.0,385.9094700001151,4.0,1.0,phase_1,,,,,,,,,,,,,gray,I
337.0,6.0,1.0,1.0,1.0,1.0,396.4254160000564,4.0,1.0,phase_1,,,,,,,,,,,,,yellow,circle
150.0,5.0,0.5,1.0,4.0,4.0,688.6909439999727,4.0,1.0,phase_1,,,,,,,,,,,,,cyan,hexagon
1314.0,4.0,4.0,0.0,4.0,4.0,577.5396369999726,4.0,1.0,phase_1,,,,,,,,,,,,,blue,flipped triangle
0.0,4.0,0.0,0.0,4.0,4.0,414.7668269997666,4.0,1.0,phase_1,,,,,,,,,,,,,blue,flipped triangle
322.0,2.0,1.0,0.0,1.0,1.0,442.8405910002766,4.0,1.0,phase_1,,,,,,,,,,,,,green,diamond
0.0,7.0,0.0,1.0,2.0,2.0,321.4127649998772,4.0,1.0,phase_1,,,,,,,,,,,,,magenta,cross
0.0,8.0,0.0,1.0,3.0,3.0,707.7357320004012,4.0,1.0,phase_1,,,,,,,,,,,,,gray,I
1322.0,8.0,4.0,1.0,2.0,2.0,443.1081970005834,4.0,1.0,phase_1,,,,,,,,,,,,,gray,I
349.0,2.0,1.0,0.0,2.0,2.0,339.3269980006153,4.0,1.0,phase_1,,,,,,,,,,,,,green,diamond
340.0,2.0,1.0,0.0,3.0,3.0,425.5234000002019,4.0,1.0,phase_1,,,,,,,,,,,,,green,diamond
0.0,1.0,0.0,0.0,3.0,3.0,473.4037240004909,4.0,1.0,phase_1,,,,,,,,,,,,,white,triangle
339.0,6.0,1.0,1.0,2.0,2.0,302.2350040000674,4.0,1.0,phase_1,,,,,,,,,,,,,yellow,circle
666.0,7.0,2.0,1.0,4.0,4.0,388.7891230006062,4.0,1.0,phase_1,,,,,,,,,,,,,magenta,cross
176.0,1.0,0.5,0.0,2.0,2.0,425.6537040000694,4.0,1.0,phase_1,,,,,,,,,,,,,white,triangle
0.0,6.0,0.0,1.0,3.0,3.0,445.1153670006533,4.0,1.0,phase_1,,,,,,,,,,,,,yellow,circle
179.0,5.0,0.5,1.0,3.0,3.0,463.6711939992892,4.0,1.0,phase_1,,,,,,,,,,,,,cyan,hexagon
0.0,7.0,0.0,1.0,1.0,1.0,397.2937299995465,4.0,1.0,phase_1,,,,,,,,,,,,,magenta,cross
184.0,1.0,0.5,0.0,3.0,3.0,396.6116150004382,4.0,1.0,phase_1,,,,,,,,,,,,,white,triangle
645.0,7.0,2.0,1.0,1.0,1.0,340.4627520003487,4.0,1.0,phase_1,,,,,,,,,,,,,magenta,cross
335.0,6.0,1.0,1.0,1.0,1.0,368.2901620004486,4.0,1.0,phase_1,,,,,,,,,,,,,yellow,circle
170.0,5.0,0.5,1.0,4.0,4.0,434.8159700002725,4.0,1.0,phase_1,,,,,,,,,,,,,cyan,hexagon
184.0,1.0,0.5,0.0,4.0,4.0,518.699129000197,4.0,1.0,phase_1,,,,,,,,,,,,,white,triangle
1283.0,4.0,4.0,0.0,2.0,2.0,387.1131229998354,4.0,1.0,phase_1,,,,,,,,,,,,,blue,flipped triangle
176.0,5.0,0.5,1.0,1.0,1.0,330.4213740002524,4.0,1.0,phase_1,,,,,,,,,,,,,cyan,hexagon
0.0,4.0,0.0,0.0,4.0,4.0,395.9334399996805,4.0,1.0,phase_1,,,,,,,,,,,,,blue,flipped triangle
1313.0,4.0,4.0,0.0,1.0,1.0,358.4878029996616,4.0,1.0,phase_1,,,,,,,,,,,,,blue,flipped triangle
647.0,3.0,2.0,0.0,1.0,1.0,375.8871420004652,4.0,1.0,phase_1,,,,,,,,,,,,,orange,square
638.0,7.0,2.0,1.0,4.0,4.0,395.1094910007668,4.0,1.0,phase_1,,,,,,,,,,,,,magenta,cross
1316.0,8.0,4.0,1.0,2.0,2.0,311.5051009999661,4.0,1.0,phase_1,,,,,,,,,,,,,gray,I
666.0,3.0,2.0,0.0,3.0,3.0,498.8627579996318,4.0,1.0,phase_1,,,,,,,,,,,,,orange,square
161.0,5.0,0.5,1.0,1.0,1.0,387.1878460004154,4.0,1.0,phase_1,,,,,,,,,,,,,cyan,hexagon
142.0,1.0,0.5,0.0,4.0,4.0,424.5670130003418,4.0,1.0,phase_1,,,,,,,,,,,,,white,triangle
0.0,6.0,0.0,1.0,1.0,1.0,613.8356189994738,4.0,1.0,phase_1,,,,,,,,,,,,,yellow,circle
340.0,6.0,1.0,1.0,4.0,4.0,453.8671090003845,4.0,2.0,phase_1,,,,,,,,,,,,,yellow,circle
1277.0,8.0,4.0,1.0,3.0,3.0,360.2414419992783,4.0,1.0,phase_1,,,,,,,,,,,,,gray,I
180.0,1.0,0.5,0.0,2.0,2.0,331.0939760003748,4.0,1.0,phase_1,,,,,,,,,,,,,white,triangle
1305.0,8.0,4.0,1.0,3.0,3.0,471.1443200003486,4.0,1.0,phase_1,,,,,,,,,,,,,gray,I
0.0,3.0,0.0,0.0,2.0,2.0,320.7949960005862,4.0,1.0,phase_1,,,,,,,,,,,,,orange,square
672.0,3.0,2.0,0.0,1.0,1.0,509.1805560005014,4.0,1.0,phase_1,,,,,,,,,,,,,orange,square
0.0,6.0,0.0,1.0,1.0,1.0,376.4592679999623,4.0,1.0,phase_1,,,,,,,,,,,,,yellow,circle
637.0,7.0,2.0,1.0,2.0,2.0,320.3713049997532,4.0,1.0,phase_1,,,,,,,,,,,,,magenta,cross
328.0,2.0,1.0,0.0,1.0,1.0,349.1994329997396,4.0,1.0,phase_1,,,,,,,,,,,,,green,diamond
1314.0,8.0,4.0,1.0,2.0,2.0,303.0773299997236,4.0,1.0,phase_1,,,,,,,,,,,,,gray,I
158.0,5.0,0.5,1.0,1.0,1.0,368.0494919999546,4.0,1.0,phase_1,,,,,,,,,,,,,cyan,hexagon
0.0,3.0,0.0,0.0,1.0,1.0,434.2445700003736,4.0,1.0,phase_1,,,,,,,,,,,,,orange,square
1322.0,4.0,4.0,0.0,1.0,1.0,396.7617160005829,4.0,1.0,phase_1,,,,,,,,,,,,,blue,flipped triangle
0.0,5.0,0.0,1.0,2.0,2.0,575.7062980001137,4.0,1.0,phase_1,,,,,,,,,,,,,cyan,hexagon
1283.0,8.0,4.0,1.0,3.0,3.0,461.5574389999892,4.0,1.0,phase_1,,,,,,,,,,,,,gray,I
671.0,7.0,2.0,1.0,1.0,1.0,405.6452009999702,4.0,1.0,phase_1,,,,,,,,,,,,,magenta,cross
1312.0,4.0,4.0,0.0,1.0,1.0,389.4650140000522,4.0,1.0,phase_1,,,,,,,,,,,,,blue,flipped triangle
0.0,3.0,0.0,0.0,3.0,3.0,497.8692889999365,4.0,1.0,phase_1,,,,,,,,,,,,,orange,square
1289.0,8.0,4.0,1.0,1.0,1.0,330.4010570000173,4.0,1.0,phase_1,,,,,,,,,,,,,gray,I
1291.0,8.0,4.0,1.0,4.0,4.0,398.8783289996718,4.0,1.0,phase_1,,,,,,,,,,,,,gray,I
0.0,3.0,0.0,0.0,2.0,2.0,339.190796999901,4.0,1.0,phase_1,,,,,,,,,,,,,orange,square
349.0,6.0,1.0,1.0,4.0,4.0,472.9626700000153,4.0,1.0,phase_1,,,,,,,,,,,,,yellow,circle
0.0,2.0,0.0,0.0,3.0,3.0,387.9857960000663,4.0,1.0,phase_1,,,,,,,,,,,,,green,diamond
157.0,1.0,0.5,0.0,1.0,1.0,378.6526550002236,4.0,1.0,phase_1,,,,,,,,,,,,,white,triangle
0.0,6.0,0.0,1.0,1.0,1.0,341.2161759997616,4.0,1.0,phase_1,,,,,,,,,,,,,yellow,circle
325.0,6.0,1.0,1.0,4.0,4.0,519.3794609995166,4.0,1.0,phase_1,,,,,,,,,,,,,yellow,circle
144.0,1.0,0.5,0.0,4.0,4.0,340.6604479996531,4.0,1.0,phase_1,,,,,,,,,,,,,white,triangle
0.0,8.0,0.0,1.0,3.0,3.0,360.294807000173,4.0,1.0,phase_1,,,,,,,,,,,,,gray,I
629.0,7.0,2.0,1.0,1.0,1.0,366.6900509997504,4.0,1.0,phase_1,,,,,,,,,,,,,magenta,cross
183.0,1.0,0.5,0.0,2.0,2.0,329.6099839999442,4.0,1.0,phase_1,,,,,,,,,,,,,white,triangle
0.0,6.0,0.0,1.0,4.0,4.0,433.5561719999532,4.0,1.0,phase_1,,,,,,,,,,,,,yellow,circle
1302.0,4.0,4.0,0.0,3.0,3.0,397.3768530004236,4.0,1.0,phase_1,,,,,,,,,,,,,blue,flipped triangle
0.0,7.0,0.0,1.0,3.0,3.0,415.1913979994788,4.0,1.0,phase_1,,,,,,,,,,,,,magenta,cross
328.0,6.0,1.0,1.0,1.0,1.0,339.5474849994571,4.0,1.0,phase_1,,,,,,,,,,,,,yellow,circle
0.0,8.0,0.0,1.0,2.0,2.0,738.2640870000614,4.0,1.0,phase_1,,,,,,,,,,,,,gray,I
161.0,1.0,0.5,0.0,4.0,4.0,536.7714069998328,4.0,1.0,phase_1,,,,,,,,,,,,,white,triangle
0.0,5.0,0.0,1.0,2.0,2.0,434.1684319997512,4.0,1.0,phase_1,,,,,,,,,,,,,cyan,hexagon
330.0,6.0,1.0,1.0,2.0,2.0,351.1924679996809,4.0,1.0,phase_1,,,,,,,,,,,,,yellow,circle
141.0,1.0,0.5,0.0,3.0,3.0,357.6440870001534,4.0,1.0,phase_1,,,,,,,,,,,,,white,triangle
1301.0,4.0,4.0,0.0,1.0,1.0,568.0149519994302,4.0,1.0,phase_1,,,,,,,,,,,,,blue,flipped triangle
0.0,8.0,0.0,1.0,4.0,4.0,423.8741400004073,4.0,1.0,phase_1,,,,,,,,,,,,,gray,I
0.0,7.0,0.0,1.0,1.0,1.0,480.2838309997241,4.0,1.0,phase_1,,,,,,,,,,,,,magenta,cross
180.0,5.0,0.5,1.0,4.0,4.0,653.8199299993721,4.0,1.0,phase_1,,,,,,,,,,,,,cyan,hexagon
180.0,5.0,0.5,1.0,2.0,2.0,518.8158130004012,4.0,1.0,phase_1,,,,,,,,,,,,,cyan,hexagon
161.0,1.0,0.5,0.0,4.0,4.0,562.1730540005956,4.0,1.0,phase_1,,,,,,,,,,,,,white,triangle
0.0,2.0,0.0,0.0,2.0,2.0,470.3884119990107,4.0,1.0,phase_1,,,,,,,,,,,,,green,diamond
629.0,7.0,2.0,1.0,2.0,2.0,446.2657820004096,4.0,1.0,phase_1,,,,,,,,,,,,,magenta,cross
1296.0,8.0,4.0,1.0,3.0,3.0,405.7523570008925,4.0,1.0,phase_1,,,,,,,,,,,,,gray,I
0.0,8.0,0.0,1.0,2.0,2.0,348.4140709988423,4.0,1.0,phase_1,,,,,,,,,,,,,gray,I
332.0,2.0,1.0,0.0,2.0,2.0,414.98529799901,4.0,1.0,phase_1,,,,,,,,,,,,,green,diamond
170.0,1.0,0.5,0.0,1.0,1.0,386.6313429989532,4.0,1.0,phase_1,,,,,,,,,,,,,white,triangle
657.0,7.0,2.0,1.0,2.0,2.0,358.557262999966,4.0,1.0,phase_1,,,,,,,,,,,,,magenta,cross
335.0,2.0,1.0,0.0,1.0,1.0,434.2450100011774,4.0,1.0,phase_1,,,,,,,,,,,,,green,diamond
164.0,5.0,0.5,1.0,3.0,3.0,228.318900000886,4.0,2.0,phase_1,,,,,,,,,,,,,cyan,hexagon
0.0,7.0,2.0,1.0,5.0,5.0,623.8569659999484,1.0,1.0,phase_2,stop,250.0,250.0,3.0,,,,,,,,,magenta,cross
0.0,4.0,4.0,0.0,5.0,5.0,804.691240999091,1.0,1.0,phase_2,go,200.0,250.0,1.0,,,,,,,,,blue,flipped triangle
0.0,4.0,4.0,0.0,6.0,6.0,851.5092090001417,1.0,1.0,phase_2,go,200.0,250.0,1.0,,,,,,,,,blue,flipped triangle
0.0,7.0,2.0,1.0,6.0,6.0,744.0867469995283,1.0,1.0,phase_2,stop,200.0,250.0,3.0,,,,,,,,,magenta,cross
0.0,1.0,0.5,0.0,6.0,6.0,1013.7909509994645,1.0,1.0,phase_2,go,200.0,200.0,1.0,,,,,,,,,white,triangle
0.0,7.0,2.0,1.0,5.0,5.0,880.717572001231,1.0,1.0,phase_2,go,200.0,200.0,1.0,,,,,,,,,magenta,cross
0.0,5.0,0.5,1.0,6.0,0.0,0.0,1.0,1.0,phase_2,stop,200.0,200.0,4.0,,,,,,,,,cyan,hexagon
0.0,8.0,4.0,1.0,6.0,0.0,0.0,1.0,1.0,phase_2,stop,200.0,250.0,4.0,,,,,,,,,gray,I
0.0,2.0,1.0,0.0,6.0,6.0,889.5306229987909,1.0,1.0,phase_2,go,200.0,300.0,1.0,,,,,,,,,green,diamond
0.0,3.0,2.0,0.0,6.0,6.0,942.5134929988416,1.0,1.0,phase_2,go,200.0,300.0,1.0,,,,,,,,,orange,square
0.0,5.0,0.5,1.0,6.0,0.0,0.0,1.0,1.0,phase_2,stop,200.0,300.0,4.0,,,,,,,,,cyan,hexagon
0.0,7.0,2.0,1.0,6.0,0.0,0.0,1.0,1.0,phase_2,stop,200.0,350.0,4.0,,,,,,,,,magenta,cross
0.0,1.0,0.5,0.0,5.0,5.0,863.1895649996295,1.0,1.0,phase_2,go,200.0,400.0,1.0,,,,,,,,,white,triangle
0.0,6.0,1.0,1.0,6.0,6.0,860.8482239997102,1.0,1.0,phase_2,go,200.0,400.0,1.0,,,,,,,,,yellow,circle
0.0,6.0,1.0,1.0,5.0,0.0,0.0,1.0,1.0,phase_2,stop,200.0,400.0,4.0,,,,,,,,,yellow,circle
0.0,2.0,1.0,0.0,5.0,5.0,777.0782470015547,1.0,1.0,phase_2,go,250.0,400.0,1.0,,,,,,,,,green,diamond
0.0,5.0,0.5,1.0,5.0,0.0,0.0,1.0,1.0,phase_2,stop,250.0,400.0,4.0,,,,,,,,,cyan,hexagon
0.0,8.0,4.0,1.0,6.0,0.0,0.0,1.0,1.0,phase_2,stop,300.0,400.0,4.0,,,,,,,,,gray,I
0.0,5.0,0.5,1.0,6.0,0.0,0.0,1.0,1.0,phase_2,stop,300.0,450.0,4.0,,,,,,,,,cyan,hexagon
0.0,8.0,4.0,1.0,6.0,6.0,880.6405080013064,1.0,1.0,phase_2,go,300.0,500.0,1.0,,,,,,,,,gray,I
0.0,6.0,1.0,1.0,5.0,0.0,0.0,1.0,1.0,phase_2,stop,300.0,500.0,4.0,,,,,,,,,yellow,circle
0.0,4.0,4.0,0.0,6.0,6.0,1176.1269050002738,1.0,1.0,phase_2,go,350.0,500.0,1.0,,,,,,,,,blue,flipped triangle
0.0,1.0,0.5,0.0,6.0,6.0,691.7983109997294,1.0,1.0,phase_2,go,350.0,500.0,1.0,,,,,,,,,white,triangle
0.0,8.0,4.0,1.0,6.0,6.0,455.3120869986742,1.0,1.0,phase_2,stop,350.0,500.0,3.0,,,,,,,,,gray,I
0.0,6.0,1.0,1.0,6.0,0.0,0.0,1.0,1.0,phase_2,stop,350.0,450.0,4.0,,,,,,,,,yellow,circle
0.0,2.0,1.0,0.0,6.0,6.0,862.2507899999619,1.0,1.0,phase_2,go,350.0,500.0,1.0,,,,,,,,,green,diamond
0.0,2.0,1.0,0.0,6.0,6.0,789.4605130004493,1.0,1.0,phase_2,go,350.0,500.0,1.0,,,,,,,,,green,diamond
0.0,2.0,1.0,0.0,5.0,5.0,719.995788000233,1.0,1.0,phase_2,go,350.0,500.0,1.0,,,,,,,,,green,diamond
0.0,7.0,2.0,1.0,6.0,0.0,0.0,1.0,1.0,phase_2,stop,350.0,500.0,4.0,,,,,,,,,magenta,cross
0.0,2.0,1.0,0.0,6.0,6.0,634.5831539983919,1.0,1.0,phase_2,go,350.0,550.0,1.0,,,,,,,,,green,diamond
0.0,8.0,4.0,1.0,5.0,0.0,0.0,1.0,1.0,phase_2,stop,350.0,550.0,4.0,,,,,,,,,gray,I
0.0,4.0,4.0,0.0,5.0,5.0,606.8868740003381,1.0,1.0,phase_2,go,400.0,550.0,1.0,,,,,,,,,blue,flipped triangle
0.0,3.0,2.0,0.0,5.0,5.0,935.9855910006444,1.0,1.0,phase_2,go,400.0,550.0,1.0,,,,,,,,,orange,square
0.0,8.0,4.0,1.0,5.0,0.0,0.0,1.0,1.0,phase_2,stop,400.0,550.0,4.0,,,,,,,,,gray,I
0.0,5.0,0.5,1.0,5.0,5.0,625.6701319998683,1.0,1.0,phase_2,go,450.0,550.0,1.0,,,,,,,,,cyan,hexagon
0.0,4.0,4.0,0.0,5.0,5.0,768.1514800005971,1.0,1.0,phase_2,go,450.0,550.0,1.0,,,,,,,,,blue,flipped triangle
0.0,6.0,1.0,1.0,5.0,5.0,617.4330470003042,2.0,1.0,phase_2,stop,450.0,550.0,3.0,,,,,,,,,yellow,circle
0.0,5.0,0.5,1.0,6.0,6.0,702.762619999703,2.0,1.0,phase_2,stop,400.0,550.0,3.0,,,,,,,,,cyan,hexagon
0.0,5.0,0.5,1.0,5.0,5.0,891.0527129992261,2.0,1.0,phase_2,go,400.0,500.0,1.0,,,,,,,,,cyan,hexagon
0.0,5.0,0.5,1.0,5.0,0.0,0.0,2.0,1.0,phase_2,stop,400.0,500.0,4.0,,,,,,,,,cyan,hexagon
0.0,1.0,0.5,0.0,5.0,5.0,598.3528010001464,2.0,1.0,phase_2,go,450.0,500.0,1.0,,,,,,,,,white,triangle
0.0,6.0,1.0,1.0,6.0,6.0,588.9325079988339,2.0,1.0,phase_2,go,450.0,500.0,1.0,,,,,,,,,yellow,circle
0.0,1.0,0.5,0.0,5.0,5.0,590.3876800002763,2.0,1.0,phase_2,go,450.0,500.0,1.0,,,,,,,,,white,triangle
0.0,2.0,1.0,0.0,5.0,5.0,684.4838599990908,2.0,1.0,phase_2,go,450.0,500.0,1.0,,,,,,,,,green,diamond
0.0,4.0,4.0,0.0,5.0,5.0,569.9986559993704,2.0,1.0,phase_2,go,450.0,500.0,1.0,,,,,,,,,blue,flipped triangle
0.0,7.0,2.0,1.0,5.0,0.0,0.0,2.0,1.0,phase_2,stop,450.0,500.0,4.0,,,,,,,,,magenta,cross
0.0,8.0,4.0,1.0,6.0,0.0,0.0,2.0,1.0,phase_2,stop,500.0,500.0,4.0,,,,,,,,,gray,I
0.0,2.0,1.0,0.0,6.0,6.0,807.4237519995222,2.0,1.0,phase_2,go,500.0,550.0,1.0,,,,,,,,,green,diamond
0.0,5.0,0.5,1.0,5.0,0.0,0.0,2.0,1.0,phase_2,stop,500.0,550.0,4.0,,,,,,,,,cyan,hexagon
0.0,3.0,2.0,0.0,5.0,5.0,827.5653979999333,2.0,1.0,phase_2,go,550.0,550.0,1.0,,,,,,,,,orange,square
0.0,4.0,4.0,0.0,5.0,5.0,808.0822129995795,2.0,1.0,phase_2,go,550.0,550.0,1.0,,,,,,,,,blue,flipped triangle
0.0,3.0,2.0,0.0,5.0,5.0,445.9086709994153,2.0,1.0,phase_2,go,550.0,550.0,1.0,,,,,,,,,orange,square
0.0,7.0,2.0,1.0,5.0,5.0,494.7752520001813,2.0,1.0,phase_2,stop,550.0,550.0,3.0,,,,,,,,,magenta,cross
0.0,3.0,2.0,0.0,6.0,6.0,998.610104999898,2.0,1.0,phase_2,go,500.0,550.0,1.0,,,,,,,,,orange,square
0.0,4.0,4.0,0.0,5.0,5.0,807.4099020013819,2.0,1.0,phase_2,go,500.0,550.0,1.0,,,,,,,,,blue,flipped triangle
0.0,2.0,1.0,0.0,5.0,5.0,626.6917700013437,2.0,1.0,phase_2,go,500.0,550.0,1.0,,,,,,,,,green,diamond
0.0,8.0,4.0,1.0,5.0,5.0,686.4930390001973,2.0,1.0,phase_2,stop,500.0,550.0,3.0,,,,,,,,,gray,I
0.0,6.0,1.0,1.0,6.0,6.0,770.6967540016194,2.0,1.0,phase_2,go,450.0,550.0,1.0,,,,,,,,,yellow,circle
0.0,8.0,4.0,1.0,5.0,0.0,0.0,2.0,1.0,phase_2,stop,450.0,550.0,4.0,,,,,,,,,gray,I
0.0,6.0,1.0,1.0,5.0,0.0,0.0,2.0,1.0,phase_2,stop,500.0,550.0,4.0,,,,,,,,,yellow,circle
0.0,5.0,0.5,1.0,5.0,5.0,696.890566001457,2.0,1.0,phase_2,stop,550.0,550.0,3.0,,,,,,,,,cyan,hexagon
0.0,4.0,4.0,0.0,6.0,6.0,941.3277149997156,2.0,1.0,phase_2,go,500.0,550.0,1.0,,,,,,,,,blue,flipped triangle
0.0,1.0,0.5,0.0,6.0,6.0,800.1776740002242,2.0,1.0,phase_2,go,500.0,550.0,1.0,,,,,,,,,white,triangle
0.0,6.0,1.0,1.0,5.0,0.0,0.0,2.0,1.0,phase_2,stop,500.0,550.0,4.0,,,,,,,,,yellow,circle
0.0,6.0,1.0,1.0,5.0,0.0,0.0,2.0,1.0,phase_2,stop,550.0,550.0,4.0,,,,,,,,,yellow,circle
0.0,4.0,4.0,0.0,6.0,6.0,876.0454180010129,2.0,1.0,phase_2,go,600.0,550.0,1.0,,,,,,,,,blue,flipped triangle
0.0,8.0,4.0,1.0,6.0,0.0,0.0,2.0,1.0,phase_2,stop,600.0,550.0,4.0,,,,,,,,,gray,I
0.0,4.0,4.0,0.0,5.0,5.0,1053.1818590006878,2.0,1.0,phase_2,go,600.0,600.0,1.0,,,,,,,,,blue,flipped triangle
0.0,8.0,4.0,1.0,5.0,0.0,0.0,2.0,1.0,phase_2,stop,600.0,600.0,4.0,,,,,,,,,gray,I
0.0,5.0,0.5,1.0,6.0,6.0,985.5687170002057,2.0,1.0,phase_2,go,650.0,600.0,1.0,,,,,,,,,cyan,hexagon
0.0,3.0,2.0,0.0,6.0,6.0,1437.1803710000677,2.0,1.0,phase_2,go,650.0,600.0,1.0,,,,,,,,,orange,square
0.0,7.0,2.0,1.0,5.0,0.0,0.0,2.0,1.0,phase_2,stop,650.0,600.0,4.0,,,,,,,,,magenta,cross
0.0,4.0,4.0,0.0,6.0,6.0,1110.1223080004274,3.0,1.0,phase_2,go,700.0,600.0,1.0,,,,,,,,,blue,flipped triangle
0.0,2.0,1.0,0.0,6.0,6.0,380.3591229989251,3.0,1.0,phase_2,go,700.0,600.0,1.0,,,,,,,,,green,diamond
0.0,6.0,1.0,1.0,5.0,5.0,474.126241999329,3.0,1.0,phase_2,stop,700.0,600.0,3.0,,,,,,,,,yellow,circle
0.0,5.0,0.5,1.0,5.0,5.0,809.0060229988012,3.0,1.0,phase_2,stop,650.0,600.0,3.0,,,,,,,,,cyan,hexagon
0.0,7.0,2.0,1.0,5.0,0.0,0.0,3.0,1.0,phase_2,stop,600.0,600.0,4.0,,,,,,,,,magenta,cross
0.0,2.0,1.0,0.0,5.0,5.0,750.1749769999151,3.0,1.0,phase_2,go,650.0,600.0,1.0,,,,,,,,,green,diamond
0.0,2.0,1.0,0.0,6.0,6.0,722.5444729992887,3.0,1.0,phase_2,go,650.0,600.0,1.0,,,,,,,,,green,diamond
0.0,5.0,0.5,1.0,6.0,6.0,389.637390999269,3.0,1.0,phase_2,stop,650.0,600.0,3.0,,,,,,,,,cyan,hexagon
0.0,2.0,1.0,0.0,5.0,5.0,966.4551000005304,3.0,1.0,phase_2,go,650.0,550.0,1.0,,,,,,,,,green,diamond
0.0,8.0,4.0,1.0,6.0,6.0,484.1491790011787,3.0,1.0,phase_2,stop,650.0,550.0,3.0,,,,,,,,,gray,I
0.0,2.0,1.0,0.0,5.0,5.0,986.0549240002,3.0,1.0,phase_2,go,650.0,500.0,1.0,,,,,,,,,green,diamond
0.0,8.0,4.0,1.0,5.0,5.0,799.8602610005037,3.0,1.0,phase_2,stop,650.0,500.0,3.0,,,,,,,,,gray,I
0.0,8.0,4.0,1.0,6.0,6.0,920.5777900006068,3.0,1.0,phase_2,go,600.0,500.0,1.0,,,,,,,,,gray,I
0.0,1.0,0.5,0.0,5.0,5.0,816.2099119999766,3.0,1.0,phase_2,go,600.0,500.0,1.0,,,,,,,,,white,triangle
0.0,4.0,4.0,0.0,5.0,5.0,779.1144580005493,3.0,1.0,phase_2,go,600.0,500.0,1.0,,,,,,,,,blue,flipped triangle
0.0,2.0,1.0,0.0,5.0,5.0,494.9629839993577,3.0,1.0,phase_2,go,600.0,500.0,1.0,,,,,,,,,green,diamond
0.0,8.0,4.0,1.0,6.0,6.0,464.9038749994361,3.0,1.0,phase_2,stop,600.0,500.0,3.0,,,,,,,,,gray,I
0.0,7.0,2.0,1.0,5.0,5.0,579.3118220008182,3.0,1.0,phase_2,stop,600.0,450.0,3.0,,,,,,,,,magenta,cross
0.0,4.0,4.0,0.0,5.0,5.0,694.3505079998431,3.0,1.0,phase_2,go,550.0,450.0,1.0,,,,,,,,,blue,flipped triangle
0.0,5.0,0.5,1.0,6.0,6.0,342.5612750015716,3.0,1.0,phase_2,stop,550.0,450.0,3.0,,,,,,,,,cyan,hexagon
0.0,1.0,0.5,0.0,6.0,6.0,807.0217330005107,3.0,1.0,phase_2,go,550.0,400.0,1.0,,,,,,,,,white,triangle
0.0,7.0,2.0,1.0,5.0,5.0,635.6534599999577,3.0,1.0,phase_2,stop,550.0,400.0,3.0,,,,,,,,,magenta,cross
0.0,5.0,0.5,1.0,5.0,5.0,562.9273829999875,3.0,1.0,phase_2,stop,500.0,400.0,3.0,,,,,,,,,cyan,hexagon
0.0,8.0,4.0,1.0,6.0,6.0,353.0286379991594,3.0,1.0,phase_2,stop,450.0,400.0,3.0,,,,,,,,,gray,I
0.0,1.0,0.5,0.0,6.0,6.0,770.1779889994214,3.0,1.0,phase_2,go,450.0,350.0,1.0,,,,,,,,,white,triangle
0.0,8.0,4.0,1.0,6.0,6.0,418.4104129999468,3.0,1.0,phase_2,stop,450.0,350.0,3.0,,,,,,,,,gray,I
0.0,5.0,0.5,1.0,6.0,6.0,408.5390229993209,3.0,1.0,phase_2,go,450.0,300.0,1.0,,,,,,,,,cyan,hexagon
0.0,4.0,4.0,0.0,6.0,6.0,408.4526940005162,3.0,1.0,phase_2,go,450.0,300.0,1.0,,,,,,,,,blue,flipped triangle
0.0,3.0,2.0,0.0,5.0,5.0,684.4785180001054,3.0,1.0,phase_2,go,450.0,300.0,1.0,,,,,,,,,orange,square
0.0,2.0,1.0,0.0,5.0,5.0,475.1569410000229,3.0,1.0,phase_2,go,450.0,300.0,1.0,,,,,,,,,green,diamond
0.0,3.0,2.0,0.0,5.0,5.0,417.9959049997706,3.0,1.0,phase_2,go,450.0,300.0,1.0,,,,,,,,,orange,square
0.0,7.0,2.0,1.0,6.0,6.0,350.3386239990504,3.0,1.0,phase_2,stop,450.0,300.0,3.0,,,,,,,,,magenta,cross
0.0,6.0,1.0,1.0,6.0,0.0,0.0,3.0,1.0,phase_2,stop,450.0,250.0,4.0,,,,,,,,,yellow,circle
0.0,5.0,0.5,1.0,5.0,0.0,0.0,3.0,1.0,phase_2,stop,450.0,300.0,4.0,,,,,,,,,cyan,hexagon
0.0,4.0,4.0,0.0,6.0,6.0,725.3628950002167,3.0,1.0,phase_2,go,500.0,300.0,1.0,,,,,,,,,blue,flipped triangle
0.0,3.0,2.0,0.0,6.0,6.0,406.7301929990208,3.0,1.0,phase_2,go,500.0,300.0,1.0,,,,,,,,,orange,square
0.0,3.0,2.0,0.0,5.0,5.0,492.866149999827,4.0,1.0,phase_2,go,500.0,300.0,1.0,,,,,,,,,orange,square
0.0,5.0,0.5,1.0,5.0,5.0,353.3761130001949,4.0,1.0,phase_2,stop,500.0,300.0,3.0,,,,,,,,,cyan,hexagon
0.0,6.0,1.0,1.0,5.0,5.0,380.3046780012664,4.0,1.0,phase_2,stop,450.0,300.0,3.0,,,,,,,,,yellow,circle
0.0,6.0,1.0,1.0,5.0,0.0,0.0,4.0,1.0,phase_2,stop,400.0,300.0,4.0,,,,,,,,,yellow,circle
0.0,1.0,0.5,0.0,5.0,5.0,646.724558000642,4.0,1.0,phase_2,go,450.0,300.0,1.0,,,,,,,,,white,triangle
0.0,8.0,4.0,1.0,6.0,6.0,383.9484489999449,4.0,1.0,phase_2,stop,450.0,300.0,3.0,,,,,,,,,gray,I
0.0,8.0,4.0,1.0,5.0,5.0,719.6320349994494,4.0,1.0,phase_2,go,450.0,250.0,1.0,,,,,,,,,gray,I
0.0,3.0,2.0,0.0,5.0,5.0,371.6098380009498,4.0,1.0,phase_2,go,450.0,250.0,1.0,,,,,,,,,orange,square
0.0,3.0,2.0,0.0,6.0,6.0,332.0564580008067,4.0,1.0,phase_2,go,450.0,250.0,1.0,,,,,,,,,orange,square
0.0,1.0,0.5,0.0,5.0,5.0,417.7648679997219,4.0,1.0,phase_2,go,450.0,250.0,1.0,,,,,,,,,white,triangle
0.0,8.0,4.0,1.0,5.0,5.0,322.696104998613,4.0,1.0,phase_2,go,450.0,250.0,1.0,,,,,,,,,gray,I
0.0,7.0,2.0,1.0,5.0,5.0,323.0871330015361,4.0,1.0,phase_2,stop,450.0,250.0,3.0,,,,,,,,,magenta,cross
0.0,2.0,1.0,0.0,5.0,5.0,490.9409529991535,4.0,1.0,phase_2,go,400.0,250.0,1.0,,,,,,,,,green,diamond
0.0,4.0,4.0,0.0,5.0,5.0,351.1421639996115,4.0,1.0,phase_2,go,400.0,250.0,1.0,,,,,,,,,blue,flipped triangle
0.0,5.0,0.5,1.0,5.0,5.0,702.5840469996183,4.0,1.0,phase_2,go,400.0,250.0,1.0,,,,,,,,,cyan,hexagon
0.0,6.0,1.0,1.0,5.0,0.0,0.0,4.0,1.0,phase_2,stop,400.0,250.0,4.0,,,,,,,,,yellow,circle
0.0,1.0,0.5,0.0,6.0,6.0,401.3597269986348,4.0,1.0,phase_2,go,450.0,250.0,1.0,,,,,,,,,white,triangle
0.0,5.0,0.5,1.0,6.0,6.0,328.0684159999509,4.0,1.0,phase_2,stop,450.0,250.0,3.0,,,,,,,,,cyan,hexagon
0.0,8.0,4.0,1.0,5.0,5.0,796.424317999481,4.0,1.0,phase_2,go,450.0,200.0,1.0,,,,,,,,,gray,I
0.0,1.0,0.5,0.0,6.0,6.0,648.0206420001196,4.0,1.0,phase_2,go,450.0,200.0,1.0,,,,,,,,,white,triangle
0.0,5.0,0.5,1.0,5.0,5.0,333.6882049989071,4.0,1.0,phase_2,stop,450.0,200.0,3.0,,,,,,,,,cyan,hexagon
0.0,5.0,0.5,1.0,5.0,5.0,630.0582430012582,4.0,1.0,phase_2,go,400.0,200.0,1.0,,,,,,,,,cyan,hexagon
0.0,3.0,2.0,0.0,6.0,6.0,696.0421979983948,4.0,1.0,phase_2,go,400.0,200.0,1.0,,,,,,,,,orange,square
0.0,7.0,2.0,1.0,5.0,5.0,571.8377009998221,4.0,1.0,phase_2,stop,400.0,200.0,3.0,,,,,,,,,magenta,cross
0.0,2.0,1.0,0.0,6.0,6.0,390.3386189995217,4.0,1.0,phase_2,go,350.0,200.0,1.0,,,,,,,,,green,diamond
0.0,4.0,4.0,0.0,5.0,5.0,571.8650760009041,4.0,1.0,phase_2,go,350.0,200.0,1.0,,,,,,,,,blue,flipped triangle
0.0,2.0,1.0,0.0,5.0,5.0,474.9188169989793,4.0,1.0,phase_2,go,350.0,200.0,1.0,,,,,,,,,green,diamond
0.0,4.0,4.0,0.0,6.0,6.0,313.240751000194,4.0,1.0,phase_2,go,350.0,200.0,1.0,,,,,,,,,blue,flipped triangle
0.0,4.0,4.0,0.0,6.0,6.0,322.4011580005026,4.0,1.0,phase_2,go,350.0,200.0,1.0,,,,,,,,,blue,flipped triangle
0.0,3.0,2.0,0.0,5.0,5.0,361.4597859996138,4.0,1.0,phase_2,go,350.0,200.0,1.0,,,,,,,,,orange,square
0.0,1.0,0.5,0.0,5.0,5.0,419.1907450003782,4.0,1.0,phase_2,go,350.0,200.0,1.0,,,,,,,,,white,triangle
0.0,6.0,1.0,1.0,6.0,0.0,0.0,4.0,1.0,phase_2,stop,350.0,200.0,4.0,,,,,,,,,yellow,circle
0.0,8.0,4.0,1.0,6.0,0.0,0.0,4.0,1.0,phase_2,stop,350.0,250.0,4.0,,,,,,,,,gray,I
0.0,4.0,4.0,0.0,6.0,6.0,862.1487250002247,4.0,1.0,phase_2,go,350.0,300.0,1.0,,,,,,,,,blue,flipped triangle
0.0,7.0,2.0,1.0,5.0,5.0,414.7420900008001,4.0,1.0,phase_2,stop,350.0,300.0,3.0,,,,,,,,,magenta,cross
0.0,2.0,1.0,0.0,6.0,6.0,560.121632001028,4.0,1.0,phase_2,go,300.0,300.0,1.0,,,,,,,,,green,diamond
0.0,1.0,0.5,0.0,5.0,5.0,485.447777000445,5.0,1.0,phase_2,go,300.0,300.0,1.0,,,,,,,,,white,triangle
0.0,1.0,0.5,0.0,6.0,6.0,313.8185369989514,5.0,1.0,phase_2,go,300.0,300.0,1.0,,,,,,,,,white,triangle
0.0,3.0,2.0,0.0,6.0,6.0,351.7556539991346,5.0,1.0,phase_2,go,300.0,300.0,1.0,,,,,,,,,orange,square
0.0,5.0,0.5,1.0,6.0,6.0,323.0040280013782,5.0,1.0,phase_2,go,300.0,300.0,1.0,,,,,,,,,cyan,hexagon
0.0,1.0,0.5,0.0,6.0,6.0,324.4641820001561,5.0,1.0,phase_2,go,300.0,300.0,1.0,,,,,,,,,white,triangle
0.0,2.0,1.0,0.0,5.0,5.0,332.3041559997364,5.0,1.0,phase_2,go,300.0,300.0,1.0,,,,,,,,,green,diamond
0.0,7.0,2.0,1.0,6.0,6.0,361.5031089993863,5.0,1.0,phase_2,stop,300.0,300.0,3.0,,,,,,,,,magenta,cross
0.0,4.0,4.0,0.0,6.0,6.0,455.0438679998478,5.0,1.0,phase_2,go,300.0,250.0,1.0,,,,,,,,,blue,flipped triangle
0.0,5.0,0.5,1.0,6.0,6.0,352.5848409990431,5.0,1.0,phase_2,go,300.0,250.0,1.0,,,,,,,,,cyan,hexagon
0.0,3.0,2.0,0.0,5.0,5.0,351.4435600009165,5.0,1.0,phase_2,go,300.0,250.0,1.0,,,,,,,,,orange,square
0.0,3.0,2.0,0.0,6.0,6.0,341.495519000091,5.0,1.0,phase_2,go,300.0,250.0,1.0,,,,,,,,,orange,square
0.0,4.0,4.0,0.0,6.0,6.0,380.9236269989924,5.0,1.0,phase_2,go,300.0,250.0,1.0,,,,,,,,,blue,flipped triangle
0.0,8.0,4.0,1.0,5.0,5.0,445.2018930005579,5.0,1.0,phase_2,stop,300.0,250.0,3.0,,,,,,,,,gray,I
0.0,5.0,0.5,1.0,6.0,0.0,0.0,5.0,1.0,phase_2,stop,250.0,250.0,4.0,,,,,,,,,cyan,hexagon
0.0,1.0,0.5,0.0,5.0,5.0,533.1391509989771,5.0,1.0,phase_2,go,250.0,300.0,1.0,,,,,,,,,white,triangle
0.0,3.0,2.0,0.0,6.0,6.0,654.6251239997218,5.0,1.0,phase_2,go,250.0,300.0,1.0,,,,,,,,,orange,square
0.0,7.0,2.0,1.0,6.0,6.0,426.7703749992506,5.0,1.0,phase_2,go,250.0,300.0,1.0,,,,,,,,,magenta,cross
0.0,2.0,1.0,0.0,6.0,6.0,399.3831490006414,5.0,1.0,phase_2,go,250.0,300.0,1.0,,,,,,,,,green,diamond
0.0,6.0,1.0,1.0,6.0,6.0,351.3999229999172,5.0,1.0,phase_2,go,250.0,300.0,1.0,,,,,,,,,yellow,circle
0.0,4.0,4.0,0.0,6.0,6.0,493.2170859992766,5.0,1.0,phase_2,go,250.0,300.0,1.0,,,,,,,,,blue,flipped triangle
0.0,3.0,2.0,0.0,6.0,6.0,456.2059309992037,5.0,1.0,phase_2,go,250.0,300.0,1.0,,,,,,,,,orange,square
0.0,1.0,0.5,0.0,6.0,6.0,398.228955000377,5.0,1.0,phase_2,go,250.0,300.0,1.0,,,,,,,,,white,triangle
0.0,1.0,0.5,0.0,5.0,5.0,427.2300300017377,5.0,1.0,phase_2,go,250.0,300.0,1.0,,,,,,,,,white,triangle
0.0,5.0,0.5,1.0,6.0,6.0,377.4829180001688,5.0,1.0,phase_2,stop,250.0,300.0,3.0,,,,,,,,,cyan,hexagon
0.0,8.0,4.0,1.0,5.0,5.0,485.0770169996394,5.0,1.0,phase_2,go,250.0,250.0,1.0,,,,,,,,,gray,I
0.0,8.0,4.0,1.0,5.0,5.0,626.18208800086,5.0,1.0,phase_2,go,250.0,250.0,1.0,,,,,,,,,gray,I
0.0,5.0,0.5,1.0,5.0,0.0,0.0,5.0,1.0,phase_2,stop,250.0,250.0,4.0,,,,,,,,,cyan,hexagon
0.0,2.0,1.0,0.0,5.0,5.0,616.9790889998694,5.0,1.0,phase_2,go,300.0,250.0,1.0,,,,,,,,,green,diamond
0.0,3.0,2.0,0.0,5.0,5.0,550.4558550001093,5.0,1.0,phase_2,go,300.0,250.0,1.0,,,,,,,,,orange,square
0.0,7.0,2.0,1.0,6.0,6.0,438.5374729990872,5.0,1.0,phase_2,stop,300.0,250.0,3.0,,,,,,,,,magenta,cross
0.0,8.0,4.0,1.0,5.0,5.0,779.129679000107,5.0,1.0,phase_2,go,300.0,200.0,1.0,,,,,,,,,gray,I
0.0,1.0,0.5,0.0,6.0,6.0,467.3669200001313,5.0,1.0,phase_2,go,300.0,200.0,1.0,,,,,,,,,white,triangle
0.0,5.0,0.5,1.0,5.0,5.0,419.0472210011648,5.0,1.0,phase_2,stop,300.0,200.0,3.0,,,,,,,,,cyan,hexagon
0.0,2.0,1.0,0.0,5.0,5.0,617.3220099990431,5.0,1.0,phase_2,go,250.0,200.0,1.0,,,,,,,,,green,diamond
0.0,7.0,2.0,1.0,6.0,6.0,398.3270569988235,5.0,1.0,phase_2,stop,250.0,200.0,3.0,,,,,,,,,magenta,cross
0.0,5.0,0.5,1.0,5.0,0.0,0.0,5.0,1.0,phase_2,stop,250.0,150.0,4.0,,,,,,,,,cyan,hexagon
0.0,5.0,0.5,1.0,6.0,6.0,589.1044910003984,6.0,1.0,phase_2,go,300.0,150.0,1.0,,,,,,,,,cyan,hexagon
0.0,7.0,2.0,1.0,6.0,6.0,332.0742809992225,6.0,1.0,phase_2,stop,300.0,150.0,3.0,,,,,,,,,magenta,cross
0.0,7.0,2.0,1.0,5.0,5.0,608.7782089998655,6.0,1.0,phase_2,go,300.0,100.0,1.0,,,,,,,,,magenta,cross
0.0,1.0,0.5,0.0,6.0,6.0,333.0079990009835,6.0,1.0,phase_2,go,300.0,100.0,1.0,,,,,,,,,white,triangle
0.0,4.0,4.0,0.0,5.0,5.0,379.1763369990804,6.0,1.0,phase_2,go,300.0,100.0,1.0,,,,,,,,,blue,flipped triangle
0.0,3.0,2.0,0.0,6.0,6.0,398.9907979994314,6.0,1.0,phase_2,go,300.0,100.0,1.0,,,,,,,,,orange,square
0.0,1.0,0.5,0.0,5.0,5.0,617.6536290004151,6.0,1.0,phase_2,go,300.0,100.0,1.0,,,,,,,,,white,triangle
0.0,6.0,1.0,1.0,6.0,0.0,0.0,6.0,1.0,phase_2,stop,300.0,100.0,4.0,,,,,,,,,yellow,circle
0.0,5.0,0.5,1.0,5.0,5.0,401.1498349991598,6.0,1.0,phase_2,stop,300.0,150.0,3.0,,,,,,,,,cyan,hexagon
0.0,4.0,4.0,0.0,6.0,6.0,521.4159330007533,6.0,1.0,phase_2,go,250.0,150.0,1.0,,,,,,,,,blue,flipped triangle
0.0,6.0,1.0,1.0,6.0,6.0,340.0446129999181,6.0,1.0,phase_2,stop,250.0,150.0,3.0,,,,,,,,,yellow,circle
0.0,2.0,1.0,0.0,6.0,6.0,672.4029609995341,6.0,1.0,phase_2,go,250.0,100.0,1.0,,,,,,,,,green,diamond
0.0,5.0,0.5,1.0,6.0,0.0,0.0,6.0,1.0,phase_2,stop,250.0,100.0,4.0,,,,,,,,,cyan,hexagon
0.0,1.0,0.5,0.0,6.0,6.0,418.0075240001315,6.0,1.0,phase_2,go,250.0,150.0,1.0,,,,,,,,,white,triangle
0.0,1.0,0.5,0.0,6.0,6.0,436.9150040001841,6.0,1.0,phase_2,go,250.0,150.0,1.0,,,,,,,,,white,triangle
0.0,2.0,1.0,0.0,6.0,6.0,370.2350340008706,6.0,1.0,phase_2,go,250.0,150.0,1.0,,,,,,,,,green,diamond
0.0,3.0,2.0,0.0,5.0,5.0,398.4346320012264,6.0,1.0,phase_2,go,250.0,150.0,1.0,,,,,,,,,orange,square
0.0,2.0,1.0,0.0,6.0,6.0,380.7881160009856,6.0,1.0,phase_2,go,250.0,150.0,1.0,,,,,,,,,green,diamond
0.0,7.0,2.0,1.0,6.0,0.0,0.0,6.0,1.0,phase_2,stop,250.0,150.0,4.0,,,,,,,,,magenta,cross
0.0,6.0,1.0,1.0,6.0,0.0,0.0,6.0,1.0,phase_2,stop,250.0,200.0,4.0,,,,,,,,,yellow,circle
0.0,5.0,0.5,1.0,6.0,6.0,398.0544000005466,6.0,1.0,phase_2,stop,250.0,250.0,3.0,,,,,,,,,cyan,hexagon
0.0,7.0,2.0,1.0,6.0,6.0,665.9649119992537,6.0,1.0,phase_2,go,250.0,200.0,1.0,,,,,,,,,magenta,cross
0.0,2.0,1.0,0.0,5.0,5.0,512.3258399999031,6.0,1.0,phase_2,go,250.0,200.0,1.0,,,,,,,,,green,diamond
0.0,2.0,1.0,0.0,5.0,5.0,476.5782720005518,6.0,1.0,phase_2,go,250.0,200.0,1.0,,,,,,,,,green,diamond
0.0,6.0,1.0,1.0,6.0,0.0,0.0,6.0,1.0,phase_2,stop,250.0,200.0,4.0,,,,,,,,,yellow,circle
0.0,3.0,2.0,0.0,5.0,5.0,644.8343949996342,6.0,1.0,phase_2,go,250.0,250.0,1.0,,,,,,,,,orange,square
0.0,8.0,4.0,1.0,6.0,0.0,0.0,6.0,1.0,phase_2,stop,250.0,250.0,4.0,,,,,,,,,gray,I
0.0,7.0,2.0,1.0,5.0,0.0,0.0,6.0,1.0,phase_2,stop,250.0,300.0,4.0,,,,,,,,,magenta,cross
0.0,7.0,2.0,1.0,5.0,5.0,682.7081270002964,6.0,1.0,phase_2,go,300.0,300.0,1.0,,,,,,,,,magenta,cross
0.0,6.0,1.0,1.0,5.0,5.0,439.0504549992329,6.0,1.0,phase_2,stop,300.0,300.0,3.0,,,,,,,,,yellow,circle
0.0,4.0,4.0,0.0,5.0,5.0,656.6552550011693,6.0,1.0,phase_2,go,250.0,300.0,1.0,,,,,,,,,blue,flipped triangle
0.0,7.0,2.0,1.0,6.0,6.0,474.954692999745,6.0,1.0,phase_2,go,250.0,300.0,1.0,,,,,,,,,magenta,cross
0.0,7.0,2.0,1.0,6.0,6.0,418.6962870007846,6.0,1.0,phase_2,go,250.0,300.0,1.0,,,,,,,,,magenta,cross
0.0,5.0,0.5,1.0,6.0,6.0,519.9967459993786,6.0,1.0,phase_2,stop,250.0,300.0,3.0,,,,,,,,,cyan,hexagon
0.0,1.0,0.5,0.0,5.0,5.0,768.9779069987708,6.0,1.0,phase_2,go,250.0,250.0,1.0,,,,,,,,,white,triangle
0.0,8.0,4.0,1.0,5.0,0.0,0.0,6.0,1.0,phase_2,stop,250.0,250.0,4.0,,,,,,,,,gray,I
0.0,1.0,0.5,0.0,6.0,6.0,542.0385149991489,7.0,1.0,phase_2,go,300.0,250.0,1.0,,,,,,,,,white,triangle
0.0,2.0,1.0,0.0,5.0,5.0,388.2702030005021,7.0,1.0,phase_2,go,300.0,250.0,1.0,,,,,,,,,green,diamond
0.0,8.0,4.0,1.0,6.0,6.0,312.9814040003111,7.0,1.0,phase_2,stop,300.0,250.0,3.0,,,,,,,,,gray,I
0.0,7.0,2.0,1.0,5.0,5.0,377.7191680001124,7.0,1.0,phase_2,go,300.0,200.0,1.0,,,,,,,,,magenta,cross
0.0,2.0,1.0,0.0,6.0,6.0,340.3291480008192,7.0,1.0,phase_2,go,300.0,200.0,1.0,,,,,,,,,green,diamond
0.0,8.0,4.0,1.0,6.0,6.0,397.9325140007859,7.0,1.0,phase_2,go,300.0,200.0,1.0,,,,,,,,,gray,I
0.0,1.0,0.5,0.0,6.0,6.0,417.5100379998184,7.0,1.0,phase_2,go,300.0,200.0,1.0,,,,,,,,,white,triangle
0.0,1.0,0.5,0.0,5.0,5.0,370.6647169983625,7.0,1.0,phase_2,go,300.0,200.0,1.0,,,,,,,,,white,triangle
0.0,6.0,1.0,1.0,6.0,6.0,413.5329780001484,7.0,1.0,phase_2,stop,300.0,200.0,3.0,,,,,,,,,yellow,circle
0.0,6.0,1.0,1.0,6.0,0.0,0.0,7.0,1.0,phase_2,stop,300.0,150.0,4.0,,,,,,,,,yellow,circle
0.0,1.0,0.5,0.0,5.0,5.0,613.3923390007112,7.0,1.0,phase_2,go,300.0,200.0,1.0,,,,,,,,,white,triangle
0.0,4.0,4.0,0.0,6.0,6.0,474.8812540001381,7.0,1.0,phase_2,go,300.0,200.0,1.0,,,,,,,,,blue,flipped triangle
0.0,7.0,2.0,1.0,6.0,0.0,0.0,7.0,1.0,phase_2,stop,300.0,200.0,4.0,,,,,,,,,magenta,cross
0.0,6.0,1.0,1.0,6.0,6.0,646.0634260001825,7.0,1.0,phase_2,go,300.0,250.0,1.0,,,,,,,,,yellow,circle
0.0,4.0,4.0,0.0,6.0,6.0,436.5998760004004,7.0,1.0,phase_2,go,300.0,250.0,1.0,,,,,,,,,blue,flipped triangle
0.0,3.0,2.0,0.0,5.0,5.0,568.7768050011073,7.0,1.0,phase_2,go,300.0,250.0,1.0,,,,,,,,,orange,square
0.0,6.0,1.0,1.0,6.0,6.0,444.5682069999748,7.0,1.0,phase_2,stop,300.0,250.0,3.0,,,,,,,,,yellow,circle
0.0,3.0,2.0,0.0,5.0,5.0,608.3532459997514,7.0,1.0,phase_2,go,300.0,200.0,1.0,,,,,,,,,orange,square
0.0,2.0,1.0,0.0,6.0,6.0,350.4238939985953,7.0,1.0,phase_2,go,300.0,200.0,1.0,,,,,,,,,green,diamond
0.0,1.0,0.5,0.0,5.0,5.0,407.0490459998837,7.0,1.0,phase_2,go,300.0,200.0,1.0,,,,,,,,,white,triangle
0.0,3.0,2.0,0.0,6.0,6.0,453.9738510011375,7.0,1.0,phase_2,go,300.0,200.0,1.0,,,,,,,,,orange,square
0.0,2.0,1.0,0.0,6.0,6.0,313.7226690014358,7.0,1.0,phase_2,go,300.0,200.0,1.0,,,,,,,,,green,diamond
0.0,4.0,4.0,0.0,5.0,5.0,416.1021069994604,7.0,1.0,phase_2,go,300.0,200.0,1.0,,,,,,,,,blue,flipped triangle
0.0,1.0,0.5,0.0,5.0,5.0,407.8766550010186,7.0,1.0,phase_2,go,300.0,200.0,1.0,,,,,,,,,white,triangle
0.0,6.0,1.0,1.0,5.0,5.0,339.8396440006763,7.0,1.0,phase_2,stop,300.0,200.0,3.0,,,,,,,,,yellow,circle
0.0,8.0,4.0,1.0,5.0,5.0,522.1073949996935,7.0,1.0,phase_2,stop,250.0,200.0,3.0,,,,,,,,,gray,I
0.0,2.0,1.0,0.0,5.0,5.0,559.1271849989425,7.0,1.0,phase_2,go,200.0,200.0,1.0,,,,,,,,,green,diamond
0.0,7.0,2.0,1.0,6.0,0.0,0.0,7.0,1.0,phase_2,stop,200.0,200.0,4.0,,,,,,,,,magenta,cross
0.0,3.0,2.0,0.0,5.0,5.0,663.4375610010466,7.0,1.0,phase_2,go,200.0,250.0,1.0,,,,,,,,,orange,square
0.0,3.0,2.0,0.0,5.0,5.0,541.5148270003556,7.0,1.0,phase_2,go,200.0,250.0,1.0,,,,,,,,,orange,square
0.0,7.0,2.0,1.0,5.0,5.0,424.8917220011208,7.0,1.0,phase_2,stop,200.0,250.0,3.0,,,,,,,,,magenta,cross
0.0,7.0,2.0,1.0,5.0,0.0,0.0,7.0,1.0,phase_2,stop,150.0,250.0,4.0,,,,,,,,,magenta,cross
0.0,3.0,2.0,0.0,5.0,5.0,826.5840300009586,7.0,1.0,phase_2,go,200.0,250.0,1.0,,,,,,,,,orange,square
0.0,8.0,4.0,1.0,6.0,0.0,0.0,7.0,1.0,phase_2,stop,200.0,250.0,4.0,,,,,,,,,gray,I
0.0,1.0,0.5,0.0,5.0,5.0,598.4288959989499,7.0,1.0,phase_2,go,200.0,300.0,1.0,,,,,,,,,white,triangle
0.0,3.0,2.0,0.0,6.0,6.0,446.3986299997486,7.0,1.0,phase_2,go,200.0,300.0,1.0,,,,,,,,,orange,square
0.0,3.0,2.0,0.0,6.0,6.0,448.0512800000724,8.0,1.0,phase_2,go,200.0,300.0,1.0,,,,,,,,,orange,square
0.0,8.0,4.0,1.0,5.0,5.0,356.2877330004994,8.0,1.0,phase_2,stop,200.0,300.0,3.0,,,,,,,,,gray,I
0.0,7.0,2.0,1.0,6.0,6.0,353.7945970001601,8.0,1.0,phase_2,stop,150.0,300.0,3.0,,,,,,,,,magenta,cross
0.0,6.0,1.0,1.0,6.0,6.0,474.9429620005685,8.0,1.0,phase_2,go,150.0,250.0,1.0,,,,,,,,,yellow,circle
0.0,5.0,0.5,1.0,6.0,6.0,381.1050780004734,8.0,1.0,phase_2,stop,150.0,250.0,3.0,,,,,,,,,cyan,hexagon
0.0,5.0,0.5,1.0,5.0,0.0,0.0,8.0,1.0,phase_2,stop,150.0,200.0,4.0,,,,,,,,,cyan,hexagon
0.0,7.0,2.0,1.0,6.0,6.0,304.6625579991087,8.0,1.0,phase_2,go,200.0,200.0,1.0,,,,,,,,,magenta,cross
0.0,3.0,2.0,0.0,6.0,6.0,380.2508429998852,8.0,1.0,phase_2,go,200.0,200.0,1.0,,,,,,,,,orange,square
0.0,8.0,4.0,1.0,6.0,0.0,0.0,8.0,1.0,phase_2,stop,200.0,200.0,4.0,,,,,,,,,gray,I
0.0,3.0,2.0,0.0,6.0,6.0,540.5134560005536,8.0,1.0,phase_2,go,200.0,250.0,1.0,,,,,,,,,orange,square
0.0,4.0,4.0,0.0,5.0,5.0,483.8978320003662,8.0,1.0,phase_2,go,200.0,250.0,1.0,,,,,,,,,blue,flipped triangle
0.0,7.0,2.0,1.0,6.0,0.0,0.0,8.0,1.0,phase_2,stop,200.0,250.0,4.0,,,,,,,,,magenta,cross
0.0,4.0,4.0,0.0,6.0,6.0,786.4410770016548,8.0,1.0,phase_2,go,200.0,300.0,1.0,,,,,,,,,blue,flipped triangle
0.0,1.0,0.5,0.0,6.0,6.0,483.5543540011713,8.0,1.0,phase_2,go,200.0,300.0,1.0,,,,,,,,,white,triangle
0.0,4.0,4.0,0.0,5.0,5.0,416.5688009998121,8.0,1.0,phase_2,go,200.0,300.0,1.0,,,,,,,,,blue,flipped triangle
0.0,6.0,1.0,1.0,5.0,0.0,0.0,8.0,1.0,phase_2,stop,200.0,300.0,4.0,,,,,,,,,yellow,circle
0.0,6.0,1.0,1.0,5.0,5.0,759.5089780006674,8.0,1.0,phase_2,go,250.0,300.0,1.0,,,,,,,,,yellow,circle
0.0,8.0,4.0,1.0,5.0,5.0,439.538418999291,8.0,1.0,phase_2,stop,250.0,300.0,3.0,,,,,,,,,gray,I
0.0,6.0,1.0,1.0,6.0,6.0,587.0438120000472,8.0,1.0,phase_2,go,200.0,300.0,1.0,,,,,,,,,yellow,circle
0.0,6.0,1.0,1.0,5.0,0.0,0.0,8.0,1.0,phase_2,stop,200.0,300.0,4.0,,,,,,,,,yellow,circle
0.0,8.0,4.0,1.0,5.0,0.0,0.0,8.0,1.0,phase_2,stop,250.0,300.0,4.0,,,,,,,,,gray,I
0.0,6.0,1.0,1.0,6.0,6.0,730.1560790001531,8.0,1.0,phase_2,go,300.0,300.0,1.0,,,,,,,,,yellow,circle
0.0,6.0,1.0,1.0,5.0,0.0,0.0,8.0,1.0,phase_2,stop,300.0,300.0,4.0,,,,,,,,,yellow,circle
0.0,6.0,1.0,1.0,5.0,0.0,0.0,8.0,1.0,phase_2,stop,350.0,300.0,4.0,,,,,,,,,yellow,circle
0.0,4.0,4.0,0.0,5.0,5.0,769.1772719990695,8.0,1.0,phase_2,go,400.0,300.0,1.0,,,,,,,,,blue,flipped triangle
0.0,3.0,2.0,0.0,6.0,6.0,513.5900489985943,8.0,1.0,phase_2,go,400.0,300.0,1.0,,,,,,,,,orange,square
0.0,3.0,2.0,0.0,6.0,6.0,333.3474189985281,8.0,1.0,phase_2,go,400.0,300.0,1.0,,,,,,,,,orange,square
0.0,2.0,1.0,0.0,6.0,6.0,407.9548460013029,8.0,1.0,phase_2,go,400.0,300.0,1.0,,,,,,,,,green,diamond
0.0,3.0,2.0,0.0,5.0,5.0,398.8217489986709,8.0,1.0,phase_2,go,400.0,300.0,1.0,,,,,,,,,orange,square
0.0,6.0,1.0,1.0,5.0,5.0,435.1739820012881,8.0,1.0,phase_2,stop,400.0,300.0,3.0,,,,,,,,,yellow,circle
0.0,1.0,0.5,0.0,6.0,6.0,389.2065539985196,8.0,1.0,phase_2,go,350.0,300.0,1.0,,,,,,,,,white,triangle
0.0,4.0,4.0,0.0,6.0,6.0,474.354472999039,8.0,1.0,phase_2,go,350.0,300.0,1.0,,,,,,,,,blue,flipped triangle
0.0,2.0,1.0,0.0,6.0,6.0,285.168700000213,8.0,1.0,phase_2,go,350.0,300.0,1.0,,,,,,,,,green,diamond
0.0,1.0,0.5,0.0,5.0,5.0,626.2545579993457,8.0,1.0,phase_2,go,350.0,300.0,1.0,,,,,,,,,white,triangle
0.0,7.0,2.0,1.0,5.0,5.0,389.6727179999288,8.0,1.0,phase_2,stop,350.0,300.0,3.0,,,,,,,,,magenta,cross
0.0,4.0,4.0,0.0,5.0,5.0,492.9772970008343,8.0,1.0,phase_2,go,300.0,300.0,1.0,,,,,,,,,blue,flipped triangle
0.0,7.0,2.0,1.0,7.0,3.0,1225.7451099994796,1.0,2.0,phase_3,,,,,270.0,2.0,405.0,810.0,270.0,540.0,135.0,675.0,magenta,cross
0.0,1.0,0.5,0.0,7.0,4.0,1456.4071280001372,1.0,1.0,phase_3,,,,,810.0,6.0,540.0,405.0,270.0,810.0,675.0,135.0,white,triangle
0.0,1.0,0.5,0.0,7.0,1.0,1425.3058190006411,1.0,1.0,phase_3,,,,,540.0,4.0,540.0,135.0,810.0,675.0,405.0,270.0,white,triangle
0.0,1.0,0.5,0.0,7.0,4.0,643.6598170002981,1.0,1.0,phase_3,,,,,616.0,4.0,154.0,924.0,308.0,616.0,770.0,462.0,white,triangle
0.0,4.0,4.0,0.0,7.0,5.0,728.4791750007571,1.0,1.0,phase_3,,,,,960.0,5.0,768.0,192.0,384.0,1152.0,960.0,576.0,blue,flipped triangle
0.0,3.0,2.0,0.0,7.0,1.0,1527.7460510005767,1.0,1.0,phase_3,,,,,692.0,4.0,692.0,1038.0,519.0,173.0,865.0,346.0,orange,square
0.0,5.0,0.5,1.0,7.0,3.0,1585.415973000636,1.0,1.0,phase_3,,,,,924.0,6.0,154.0,462.0,924.0,770.0,616.0,308.0,cyan,hexagon
0.0,1.0,0.5,0.0,7.0,3.0,2636.228306999328,1.0,1.0,phase_3,,,,,1038.0,6.0,519.0,692.0,1038.0,346.0,173.0,865.0,white,triangle
0.0,3.0,2.0,0.0,7.0,4.0,1301.640291001604,1.0,1.0,phase_3,,,,,696.0,6.0,464.0,580.0,348.0,696.0,232.0,116.0,orange,square
0.0,1.0,0.5,0.0,7.0,6.0,2345.3625360016304,1.0,1.0,phase_3,,,,,384.0,2.0,192.0,576.0,1152.0,768.0,960.0,384.0,white,triangle
0.0,1.0,0.5,0.0,7.0,3.0,2047.242806000213,1.0,1.0,phase_3,,,,,464.0,4.0,580.0,696.0,464.0,348.0,232.0,116.0,white,triangle
0.0,6.0,1.0,1.0,7.0,5.0,1407.7119280009356,1.0,1.0,phase_3,,,,,768.0,4.0,960.0,192.0,384.0,1152.0,768.0,576.0,yellow,circle
0.0,4.0,4.0,0.0,7.0,2.0,1235.146317001636,1.0,1.0,phase_3,,,,,1152.0,6.0,384.0,1152.0,576.0,960.0,768.0,192.0,blue,flipped triangle
0.0,2.0,1.0,0.0,7.0,4.0,2694.113350000407,1.0,1.0,phase_3,,,,,346.0,2.0,173.0,865.0,519.0,346.0,692.0,1038.0,green,diamond
0.0,5.0,0.5,1.0,7.0,2.0,1988.1421179998144,1.0,1.0,phase_3,,,,,346.0,2.0,865.0,346.0,692.0,519.0,173.0,1038.0,cyan,hexagon
0.0,6.0,1.0,1.0,7.0,4.0,2101.886275000652,1.0,1.0,phase_3,,,,,405.0,3.0,135.0,675.0,540.0,405.0,270.0,810.0,yellow,circle
0.0,8.0,4.0,1.0,7.0,5.0,1453.7280940003257,1.0,1.0,phase_3,,,,,960.0,5.0,576.0,384.0,192.0,768.0,960.0,1152.0,gray,I
0.0,6.0,1.0,1.0,7.0,1.0,1633.7625380001557,1.0,1.0,phase_3,,,,,519.0,3.0,519.0,346.0,1038.0,692.0,865.0,173.0,yellow,circle
0.0,6.0,1.0,1.0,7.0,4.0,1762.8597940001782,1.0,1.0,phase_3,,,,,692.0,4.0,346.0,519.0,1038.0,692.0,173.0,865.0,yellow,circle
0.0,2.0,1.0,0.0,7.0,2.0,1517.1258260015748,1.0,1.0,phase_3,,,,,346.0,2.0,692.0,346.0,173.0,519.0,865.0,1038.0,green,diamond
0.0,4.0,4.0,0.0,7.0,4.0,661.2291860001278,2.0,1.0,phase_3,,,,,462.0,3.0,154.0,308.0,770.0,462.0,616.0,924.0,blue,flipped triangle
0.0,8.0,4.0,1.0,7.0,5.0,3198.9229209993937,2.0,1.0,phase_3,,,,,865.0,5.0,692.0,346.0,1038.0,519.0,865.0,173.0,gray,I
0.0,5.0,0.5,1.0,7.0,2.0,880.2045320007892,2.0,1.0,phase_3,,,,,405.0,3.0,675.0,405.0,270.0,540.0,810.0,135.0,cyan,hexagon
0.0,7.0,2.0,1.0,7.0,5.0,1129.4858279998152,2.0,1.0,phase_3,,,,,464.0,4.0,696.0,116.0,232.0,348.0,464.0,580.0,magenta,cross
0.0,3.0,2.0,0.0,7.0,5.0,2248.7258140008635,2.0,1.0,phase_3,,,,,384.0,2.0,192.0,576.0,960.0,1152.0,384.0,768.0,orange,square
0.0,3.0,2.0,0.0,7.0,2.0,1263.796014000036,2.0,1.0,phase_3,,,,,346.0,2.0,519.0,346.0,1038.0,865.0,692.0,173.0,orange,square
0.0,2.0,1.0,0.0,7.0,5.0,726.8671879992326,2.0,1.0,phase_3,,,,,675.0,5.0,405.0,135.0,270.0,540.0,675.0,810.0,green,diamond
0.0,8.0,4.0,1.0,7.0,3.0,1159.6103889987717,2.0,1.0,phase_3,,,,,696.0,6.0,116.0,348.0,696.0,232.0,464.0,580.0,gray,I
0.0,7.0,2.0,1.0,7.0,1.0,1951.22614399952,2.0,1.0,phase_3,,,,,384.0,2.0,384.0,1152.0,960.0,768.0,192.0,576.0,magenta,cross
0.0,2.0,1.0,0.0,7.0,5.0,1907.2698760010096,2.0,1.0,phase_3,,,,,384.0,2.0,768.0,576.0,960.0,192.0,384.0,1152.0,green,diamond
0.0,2.0,1.0,0.0,7.0,5.0,858.2609340010094,2.0,1.0,phase_3,,,,,540.0,4.0,405.0,810.0,270.0,135.0,540.0,675.0,green,diamond
0.0,3.0,2.0,0.0,7.0,1.0,1803.6493050003628,2.0,1.0,phase_3,,,,,576.0,3.0,576.0,1152.0,384.0,768.0,192.0,960.0,orange,square
0.0,8.0,4.0,1.0,7.0,5.0,4012.2636100004456,2.0,1.0,phase_3,,,,,865.0,5.0,1038.0,692.0,346.0,173.0,865.0,519.0,gray,I
0.0,6.0,1.0,1.0,7.0,3.0,1658.3842709987948,2.0,1.0,phase_3,,,,,308.0,2.0,154.0,616.0,308.0,770.0,924.0,462.0,yellow,circle
0.0,7.0,2.0,1.0,7.0,5.0,828.8571729990508,2.0,1.0,phase_3,,,,,675.0,5.0,405.0,810.0,270.0,540.0,675.0,135.0,magenta,cross
0.0,2.0,1.0,0.0,7.0,3.0,2521.70732400009,2.0,1.0,phase_3,,,,,960.0,5.0,192.0,384.0,960.0,768.0,576.0,1152.0,green,diamond
0.0,7.0,2.0,1.0,7.0,5.0,991.8326170009096,2.0,1.0,phase_3,,,,,696.0,6.0,116.0,580.0,464.0,232.0,696.0,348.0,magenta,cross
0.0,6.0,1.0,1.0,7.0,2.0,133.2274669985054,2.0,1.0,phase_3,,,,,308.0,2.0,154.0,308.0,924.0,616.0,770.0,462.0,yellow,circle
0.0,8.0,4.0,1.0,7.0,5.0,1126.4299399990705,2.0,1.0,phase_3,,,,,960.0,5.0,192.0,576.0,1152.0,768.0,960.0,384.0,gray,I
0.0,7.0,2.0,1.0,7.0,2.0,209.4041689997539,2.0,1.0,phase_3,,,,,346.0,2.0,865.0,346.0,519.0,692.0,173.0,1038.0,magenta,cross
0.0,4.0,4.0,0.0,7.0,2.0,1583.4144339987688,3.0,1.0,phase_3,,,,,580.0,5.0,696.0,580.0,232.0,116.0,348.0,464.0,blue,flipped triangle
0.0,4.0,4.0,0.0,7.0,4.0,1142.847328001153,3.0,1.0,phase_3,,,,,135.0,1.0,405.0,270.0,810.0,135.0,675.0,540.0,blue,flipped triangle
0.0,1.0,0.5,0.0,7.0,4.0,1931.199877000836,3.0,1.0,phase_3,,,,,770.0,5.0,308.0,154.0,924.0,770.0,462.0,616.0,white,triangle
0.0,4.0,4.0,0.0,7.0,5.0,1443.1434660000375,3.0,1.0,phase_3,,,,,405.0,3.0,810.0,135.0,270.0,675.0,405.0,540.0,blue,flipped triangle
0.0,5.0,0.5,1.0,7.0,2.0,813.8246949984023,3.0,1.0,phase_3,,,,,770.0,5.0,616.0,770.0,154.0,924.0,462.0,308.0,cyan,hexagon
0.0,8.0,4.0,1.0,7.0,5.0,1302.2197329992196,3.0,1.0,phase_3,,,,,540.0,4.0,675.0,135.0,405.0,810.0,540.0,270.0,gray,I
0.0,2.0,1.0,0.0,7.0,1.0,557.6486800000566,3.0,1.0,phase_3,,,,,308.0,2.0,308.0,770.0,924.0,616.0,154.0,462.0,green,diamond
0.0,2.0,1.0,0.0,7.0,6.0,1416.2209470014204,3.0,1.0,phase_3,,,,,464.0,4.0,116.0,232.0,580.0,348.0,696.0,464.0,green,diamond
0.0,7.0,2.0,1.0,7.0,1.0,858.3771539997542,3.0,1.0,phase_3,,,,,768.0,4.0,768.0,192.0,576.0,384.0,1152.0,960.0,magenta,cross
0.0,4.0,4.0,0.0,7.0,4.0,613.7391459997161,3.0,1.0,phase_3,,,,,308.0,2.0,616.0,462.0,770.0,308.0,154.0,924.0,blue,flipped triangle
0.0,6.0,1.0,1.0,7.0,3.0,1169.971715000429,3.0,1.0,phase_3,,,,,270.0,2.0,135.0,540.0,270.0,405.0,810.0,675.0,yellow,circle
0.0,5.0,0.5,1.0,7.0,6.0,728.1833349989029,3.0,1.0,phase_3,,,,,232.0,2.0,348.0,116.0,464.0,580.0,696.0,232.0,cyan,hexagon
0.0,4.0,4.0,0.0,7.0,3.0,2111.047141999734,3.0,1.0,phase_3,,,,,865.0,5.0,1038.0,692.0,865.0,173.0,519.0,346.0,blue,flipped triangle
0.0,5.0,0.5,1.0,7.0,2.0,1681.3223879998986,3.0,1.0,phase_3,,,,,464.0,4.0,232.0,464.0,696.0,580.0,348.0,116.0,cyan,hexagon
0.0,6.0,1.0,1.0,7.0,1.0,2066.435594000722,3.0,1.0,phase_3,,,,,232.0,2.0,232.0,696.0,348.0,116.0,580.0,464.0,yellow,circle
0.0,3.0,2.0,0.0,7.0,4.0,2124.255758999425,3.0,1.0,phase_3,,,,,308.0,2.0,924.0,770.0,462.0,308.0,616.0,154.0,orange,square
0.0,1.0,0.5,0.0,7.0,1.0,1085.9884789988428,3.0,1.0,phase_3,,,,,696.0,6.0,696.0,580.0,464.0,232.0,348.0,116.0,white,triangle
0.0,3.0,2.0,0.0,7.0,3.0,795.3632590015332,3.0,1.0,phase_3,,,,,270.0,2.0,540.0,810.0,270.0,135.0,675.0,405.0,orange,square
0.0,5.0,0.5,1.0,7.0,5.0,1149.4640419987263,3.0,1.0,phase_3,,,,,519.0,3.0,1038.0,346.0,865.0,173.0,519.0,692.0,cyan,hexagon
0.0,3.0,2.0,0.0,7.0,1.0,981.2520470004528,3.0,1.0,phase_3,,,,,348.0,3.0,348.0,232.0,116.0,696.0,464.0,580.0,orange,square
0.0,2.0,1.0,0.0,7.0,3.0,1133.920202999434,4.0,1.0,phase_3,,,,,616.0,4.0,308.0,770.0,616.0,154.0,462.0,924.0,green,diamond
0.0,4.0,4.0,0.0,7.0,2.0,1340.3272809991904,4.0,1.0,phase_3,,,,,464.0,4.0,232.0,464.0,348.0,116.0,696.0,580.0,blue,flipped triangle
0.0,5.0,0.5,1.0,7.0,2.0,698.2929770001647,4.0,1.0,phase_3,,,,,675.0,5.0,810.0,675.0,135.0,405.0,270.0,540.0,cyan,hexagon
0.0,5.0,0.5,1.0,7.0,5.0,396.4268420004373,4.0,1.0,phase_3,,,,,960.0,5.0,576.0,192.0,384.0,768.0,960.0,1152.0,cyan,hexagon
0.0,1.0,0.5,0.0,7.0,1.0,1310.1946839997254,4.0,1.0,phase_3,,,,,960.0,5.0,960.0,192.0,384.0,1152.0,768.0,576.0,white,triangle
0.0,8.0,4.0,1.0,7.0,6.0,2142.123060999438,4.0,1.0,phase_3,,,,,308.0,2.0,154.0,462.0,924.0,616.0,770.0,308.0,gray,I
0.0,3.0,2.0,0.0,7.0,4.0,566.2524710005528,4.0,1.0,phase_3,,,,,462.0,3.0,770.0,308.0,154.0,462.0,616.0,924.0,orange,square
0.0,8.0,4.0,1.0,7.0,5.0,1483.4848989994498,4.0,1.0,phase_3,,,,,348.0,3.0,116.0,464.0,696.0,232.0,348.0,580.0,gray,I
0.0,8.0,4.0,1.0,7.0,2.0,1424.6166840002843,4.0,1.0,phase_3,,,,,540.0,4.0,675.0,540.0,135.0,810.0,405.0,270.0,gray,I
0.0,5.0,0.5,1.0,7.0,4.0,819.260584001313,4.0,1.0,phase_3,,,,,384.0,2.0,768.0,576.0,192.0,384.0,1152.0,960.0,cyan,hexagon
0.0,7.0,2.0,1.0,7.0,5.0,1046.5641259997938,4.0,1.0,phase_3,,,,,692.0,4.0,173.0,1038.0,519.0,346.0,692.0,865.0,magenta,cross
0.0,7.0,2.0,1.0,7.0,1.0,669.7874769997725,4.0,1.0,phase_3,,,,,770.0,5.0,770.0,616.0,308.0,462.0,924.0,154.0,magenta,cross
0.0,2.0,1.0,0.0,7.0,3.0,1341.3440650001576,4.0,1.0,phase_3,,,,,464.0,4.0,348.0,116.0,464.0,580.0,696.0,232.0,green,diamond
0.0,4.0,4.0,0.0,7.0,6.0,499.0816990011808,4.0,1.0,phase_3,,,,,346.0,2.0,519.0,692.0,865.0,173.0,1038.0,346.0,blue,flipped triangle
0.0,6.0,1.0,1.0,7.0,1.0,621.6666310010623,4.0,1.0,phase_3,,,,,116.0,1.0,116.0,580.0,348.0,464.0,232.0,696.0,yellow,circle
0.0,7.0,2.0,1.0,7.0,4.0,981.5235580008448,4.0,1.0,phase_3,,,,,770.0,5.0,616.0,924.0,462.0,770.0,308.0,154.0,magenta,cross
0.0,3.0,2.0,0.0,7.0,5.0,566.4091290000215,4.0,1.0,phase_3,,,,,135.0,1.0,270.0,540.0,405.0,675.0,135.0,810.0,orange,square
0.0,6.0,1.0,1.0,7.0,2.0,895.8570209997561,4.0,1.0,phase_3,,,,,768.0,4.0,384.0,768.0,192.0,576.0,960.0,1152.0,yellow,circle
0.0,8.0,4.0,1.0,7.0,6.0,1555.539494000186,4.0,1.0,phase_3,,,,,770.0,5.0,154.0,924.0,462.0,616.0,308.0,770.0,gray,I
0.0,1.0,0.5,0.0,7.0,6.0,1955.1867749996743,4.0,1.0,phase_3,,,,,692.0,4.0,346.0,173.0,865.0,519.0,1038.0,692.0,white,triangle
