raw_reward_magnitude,stim_reward,stepwise_reward_magnitude,paired_with_stopping,stim_location,response,reaction_time,block,num_trial_presentations,which_phase,stop_signal_trial_type,left_SSD,right_SSD,accuracy,chosen_bidding_amount,chosen_bidding_level,possible_bid_1,possible_bid_2,possible_bid_3,possible_bid_4,possible_bid_5,possible_bid_6,color_text,shape_text
347.0,6.0,2.0,1.0,4.0,4.0,751.9241769998644,1.0,1.0,phase_1,,,,,,,,,,,,,yellow,I
1298.0,4.0,4.0,0.0,4.0,4.0,445.3080650000629,1.0,1.0,phase_1,,,,,,,,,,,,,orange,cross
151.0,5.0,1.0,1.0,4.0,4.0,438.0596080000032,1.0,1.0,phase_1,,,,,,,,,,,,,green,circle
626.0,7.0,3.0,1.0,2.0,2.0,454.3212790001689,1.0,1.0,phase_1,,,,,,,,,,,,,cyan,hexagon
144.0,1.0,1.0,0.0,2.0,2.0,419.5154980000097,1.0,1.0,phase_1,,,,,,,,,,,,,blue,diamond
151.0,1.0,1.0,0.0,3.0,3.0,361.8231210000431,1.0,1.0,phase_1,,,,,,,,,,,,,blue,diamond
185.0,5.0,1.0,1.0,2.0,2.0,398.8226589999613,1.0,1.0,phase_1,,,,,,,,,,,,,green,circle
0.0,3.0,0.0,0.0,3.0,3.0,316.4682980000179,1.0,1.0,phase_1,,,,,,,,,,,,,magenta,triangle
667.0,7.0,3.0,1.0,4.0,4.0,378.8755709999805,1.0,1.0,phase_1,,,,,,,,,,,,,cyan,hexagon
0.0,8.0,0.0,1.0,1.0,1.0,472.1434539999336,1.0,1.0,phase_1,,,,,,,,,,,,,white,square
645.0,7.0,3.0,1.0,1.0,1.0,407.8260700000555,1.0,1.0,phase_1,,,,,,,,,,,,,cyan,hexagon
316.0,2.0,2.0,0.0,3.0,3.0,405.8207420000599,1.0,1.0,phase_1,,,,,,,,,,,,,gray,flipped triangle
181.0,1.0,1.0,0.0,3.0,3.0,361.6184820000399,1.0,1.0,phase_1,,,,,,,,,,,,,blue,diamond
0.0,3.0,0.0,0.0,1.0,1.0,463.8374989999647,1.0,1.0,phase_1,,,,,,,,,,,,,magenta,triangle
1280.0,8.0,4.0,1.0,1.0,1.0,420.0922040001842,1.0,1.0,phase_1,,,,,,,,,,,,,white,square
640.0,7.0,3.0,1.0,4.0,4.0,444.4972300000245,1.0,1.0,phase_1,,,,,,,,,,,,,cyan,hexagon
1288.0,4.0,4.0,0.0,4.0,4.0,445.2420500001608,1.0,1.0,phase_1,,,,,,,,,,,,,orange,cross
336.0,2.0,2.0,0.0,1.0,1.0,462.4331989998609,1.0,1.0,phase_1,,,,,,,,,,,,,gray,flipped triangle
1286.0,4.0,4.0,0.0,4.0,4.0,435.4447529999561,1.0,1.0,phase_1,,,,,,,,,,,,,orange,cross
667.0,3.0,3.0,0.0,1.0,1.0,433.9045080000687,1.0,1.0,phase_1,,,,,,,,,,,,,magenta,triangle
656.0,7.0,3.0,1.0,1.0,1.0,398.0565429999387,1.0,1.0,phase_1,,,,,,,,,,,,,cyan,hexagon
173.0,5.0,1.0,1.0,4.0,4.0,399.2600700000821,1.0,1.0,phase_1,,,,,,,,,,,,,green,circle
0.0,4.0,0.0,0.0,3.0,3.0,462.455589000001,1.0,1.0,phase_1,,,,,,,,,,,,,orange,cross
314.0,6.0,2.0,1.0,1.0,1.0,620.4054590000396,1.0,1.0,phase_1,,,,,,,,,,,,,yellow,I
314.0,6.0,2.0,1.0,4.0,4.0,381.0373239998625,1.0,1.0,phase_1,,,,,,,,,,,,,yellow,I
0.0,4.0,0.0,0.0,1.0,1.0,425.6535500001064,1.0,1.0,phase_1,,,,,,,,,,,,,orange,cross
332.0,2.0,2.0,0.0,4.0,4.0,436.8091369999547,1.0,1.0,phase_1,,,,,,,,,,,,,gray,flipped triangle
305.0,2.0,2.0,0.0,1.0,1.0,736.2078129999645,1.0,1.0,phase_1,,,,,,,,,,,,,gray,flipped triangle
339.0,6.0,2.0,1.0,3.0,3.0,537.6321179999195,1.0,1.0,phase_1,,,,,,,,,,,,,yellow,I
1299.0,8.0,4.0,1.0,2.0,2.0,528.1478950000746,1.0,1.0,phase_1,,,,,,,,,,,,,white,square
650.0,3.0,3.0,0.0,1.0,1.0,582.5881450000452,1.0,1.0,phase_1,,,,,,,,,,,,,magenta,triangle
1314.0,4.0,4.0,0.0,3.0,3.0,518.3244840000043,1.0,1.0,phase_1,,,,,,,,,,,,,orange,cross
0.0,2.0,0.0,0.0,4.0,4.0,415.6116999999995,1.0,1.0,phase_1,,,,,,,,,,,,,gray,flipped triangle
1290.0,4.0,4.0,0.0,4.0,4.0,425.8134849999351,1.0,1.0,phase_1,,,,,,,,,,,,,orange,cross
643.0,3.0,3.0,0.0,3.0,3.0,469.4885599999452,1.0,1.0,phase_1,,,,,,,,,,,,,magenta,triangle
648.0,7.0,3.0,1.0,3.0,3.0,407.4125310000909,1.0,1.0,phase_1,,,,,,,,,,,,,cyan,hexagon
300.0,6.0,2.0,1.0,4.0,4.0,415.3097250000428,1.0,1.0,phase_1,,,,,,,,,,,,,yellow,I
172.0,5.0,1.0,1.0,3.0,3.0,406.1617020001904,1.0,1.0,phase_1,,,,,,,,,,,,,green,circle
1297.0,8.0,4.0,1.0,2.0,2.0,766.3278590000573,1.0,1.0,phase_1,,,,,,,,,,,,,white,square
143.0,5.0,1.0,1.0,2.0,2.0,489.4106130000182,1.0,1.0,phase_1,,,,,,,,,,,,,green,circle
0.0,3.0,0.0,0.0,3.0,3.0,405.7958850000887,1.0,1.0,phase_1,,,,,,,,,,,,,magenta,triangle
0.0,4.0,0.0,0.0,4.0,4.0,425.9434979999241,1.0,1.0,phase_1,,,,,,,,,,,,,orange,cross
139.0,5.0,1.0,1.0,1.0,1.0,387.8801900000326,1.0,1.0,phase_1,,,,,,,,,,,,,green,circle
1308.0,8.0,4.0,1.0,4.0,4.0,425.674514000093,1.0,1.0,phase_1,,,,,,,,,,,,,white,square
1300.0,4.0,4.0,0.0,1.0,1.0,407.4725350001245,1.0,1.0,phase_1,,,,,,,,,,,,,orange,cross
1324.0,8.0,4.0,1.0,2.0,2.0,444.3693910000093,1.0,1.0,phase_1,,,,,,,,,,,,,white,square
0.0,1.0,0.0,0.0,3.0,3.0,378.5478779998357,1.0,1.0,phase_1,,,,,,,,,,,,,blue,diamond
183.0,1.0,1.0,0.0,3.0,3.0,406.3554280000971,1.0,1.0,phase_1,,,,,,,,,,,,,blue,diamond
333.0,2.0,2.0,0.0,2.0,2.0,509.31727900001533,1.0,1.0,phase_1,,,,,,,,,,,,,gray,flipped triangle
339.0,2.0,2.0,0.0,4.0,4.0,445.3299220001554,1.0,1.0,phase_1,,,,,,,,,,,,,gray,flipped triangle
1282.0,8.0,4.0,1.0,1.0,1.0,333.0509740001162,1.0,1.0,phase_1,,,,,,,,,,,,,white,square
1319.0,4.0,4.0,0.0,1.0,1.0,434.2761090001659,1.0,1.0,phase_1,,,,,,,,,,,,,orange,cross
0.0,5.0,0.0,1.0,3.0,3.0,682.5863619999382,1.0,1.0,phase_1,,,,,,,,,,,,,green,circle
0.0,8.0,0.0,1.0,2.0,2.0,637.8246059998673,1.0,1.0,phase_1,,,,,,,,,,,,,white,square
1324.0,4.0,4.0,0.0,2.0,2.0,571.4566990000094,1.0,1.0,phase_1,,,,,,,,,,,,,orange,cross
633.0,7.0,3.0,1.0,4.0,4.0,434.6621540000797,1.0,1.0,phase_1,,,,,,,,,,,,,cyan,hexagon
666.0,3.0,3.0,0.0,2.0,2.0,425.2304490000824,1.0,1.0,phase_1,,,,,,,,,,,,,magenta,triangle
0.0,1.0,0.0,0.0,4.0,4.0,406.9965789999514,1.0,1.0,phase_1,,,,,,,,,,,,,blue,diamond
674.0,3.0,3.0,0.0,4.0,4.0,461.9514349999463,1.0,1.0,phase_1,,,,,,,,,,,,,magenta,triangle
1306.0,4.0,4.0,0.0,1.0,1.0,674.450305000164,1.0,1.0,phase_1,,,,,,,,,,,,,orange,cross
1311.0,4.0,4.0,0.0,4.0,4.0,461.303634999922,1.0,1.0,phase_1,,,,,,,,,,,,,orange,cross
643.0,7.0,3.0,1.0,3.0,3.0,435.2957739999965,1.0,1.0,phase_1,,,,,,,,,,,,,cyan,hexagon
636.0,7.0,3.0,1.0,3.0,3.0,442.7946319999591,1.0,1.0,phase_1,,,,,,,,,,,,,cyan,hexagon
0.0,3.0,0.0,0.0,4.0,4.0,471.5424490000259,1.0,1.0,phase_1,,,,,,,,,,,,,magenta,triangle
331.0,6.0,2.0,1.0,1.0,1.0,481.1955339998803,1.0,1.0,phase_1,,,,,,,,,,,,,yellow,I
0.0,6.0,0.0,1.0,1.0,1.0,489.1722620000109,1.0,1.0,phase_1,,,,,,,,,,,,,yellow,I
1289.0,4.0,4.0,0.0,4.0,4.0,490.457865000053,1.0,1.0,phase_1,,,,,,,,,,,,,orange,cross
0.0,6.0,0.0,1.0,2.0,2.0,507.4560640000527,1.0,1.0,phase_1,,,,,,,,,,,,,yellow,I
1279.0,8.0,4.0,1.0,3.0,3.0,435.0542490001317,1.0,1.0,phase_1,,,,,,,,,,,,,white,square
1321.0,8.0,4.0,1.0,2.0,2.0,479.9461820000488,1.0,1.0,phase_1,,,,,,,,,,,,,white,square
1292.0,8.0,4.0,1.0,1.0,1.0,516.1379569999553,1.0,1.0,phase_1,,,,,,,,,,,,,white,square
1300.0,8.0,4.0,1.0,4.0,4.0,313.9884839999922,1.0,1.0,phase_1,,,,,,,,,,,,,white,square
0.0,7.0,0.0,1.0,3.0,3.0,294.5468380000875,1.0,1.0,phase_1,,,,,,,,,,,,,cyan,hexagon
343.0,2.0,2.0,0.0,2.0,2.0,386.5965349998532,1.0,1.0,phase_1,,,,,,,,,,,,,gray,flipped triangle
184.0,5.0,1.0,1.0,3.0,3.0,621.0884130000522,1.0,1.0,phase_1,,,,,,,,,,,,,green,circle
343.0,6.0,2.0,1.0,1.0,1.0,545.3857649999918,1.0,1.0,phase_1,,,,,,,,,,,,,yellow,I
0.0,6.0,0.0,1.0,3.0,3.0,501.93285499995,1.0,1.0,phase_1,,,,,,,,,,,,,yellow,I
328.0,2.0,2.0,0.0,1.0,1.0,595.3011440001319,1.0,1.0,phase_1,,,,,,,,,,,,,gray,flipped triangle
0.0,4.0,0.0,0.0,3.0,3.0,393.5600279999107,1.0,1.0,phase_1,,,,,,,,,,,,,orange,cross
347.0,6.0,2.0,1.0,2.0,2.0,683.0720399998427,1.0,1.0,phase_1,,,,,,,,,,,,,yellow,I
0.0,5.0,0.0,1.0,3.0,3.0,446.2877260000368,1.0,1.0,phase_1,,,,,,,,,,,,,green,circle
169.0,1.0,1.0,0.0,2.0,2.0,447.1127809999871,1.0,1.0,phase_1,,,,,,,,,,,,,blue,diamond
138.0,5.0,1.0,1.0,2.0,2.0,361.3946020000185,1.0,1.0,phase_1,,,,,,,,,,,,,green,circle
139.0,1.0,1.0,0.0,2.0,2.0,389.0132359999825,1.0,1.0,phase_1,,,,,,,,,,,,,blue,diamond
331.0,6.0,2.0,1.0,1.0,1.0,442.9293880000386,1.0,1.0,phase_1,,,,,,,,,,,,,yellow,I
1294.0,8.0,4.0,1.0,1.0,1.0,409.9818719998893,1.0,1.0,phase_1,,,,,,,,,,,,,white,square
154.0,1.0,1.0,0.0,1.0,1.0,430.3365029998076,1.0,1.0,phase_1,,,,,,,,,,,,,blue,diamond
0.0,1.0,0.0,0.0,3.0,3.0,398.2690959999218,1.0,1.0,phase_1,,,,,,,,,,,,,blue,diamond
0.0,1.0,0.0,0.0,2.0,2.0,666.376166999953,1.0,1.0,phase_1,,,,,,,,,,,,,blue,diamond
0.0,8.0,0.0,1.0,1.0,1.0,481.8897180000476,1.0,1.0,phase_1,,,,,,,,,,,,,white,square
0.0,2.0,0.0,0.0,2.0,2.0,397.8881929999716,1.0,1.0,phase_1,,,,,,,,,,,,,gray,flipped triangle
0.0,2.0,0.0,0.0,2.0,2.0,369.2784730001222,1.0,1.0,phase_1,,,,,,,,,,,,,gray,flipped triangle
339.0,6.0,2.0,1.0,1.0,1.0,462.3654299998634,1.0,1.0,phase_1,,,,,,,,,,,,,yellow,I
0.0,3.0,0.0,0.0,2.0,2.0,405.8018520001951,1.0,1.0,phase_1,,,,,,,,,,,,,magenta,triangle
318.0,6.0,2.0,1.0,3.0,3.0,407.8908129999945,1.0,1.0,phase_1,,,,,,,,,,,,,yellow,I
142.0,5.0,1.0,1.0,4.0,4.0,545.1720559999558,1.0,1.0,phase_1,,,,,,,,,,,,,green,circle
300.0,2.0,2.0,0.0,3.0,3.0,463.49800400003,1.0,1.0,phase_1,,,,,,,,,,,,,gray,flipped triangle
660.0,3.0,3.0,0.0,2.0,2.0,513.1489990001228,1.0,1.0,phase_1,,,,,,,,,,,,,magenta,triangle
318.0,2.0,2.0,0.0,1.0,1.0,546.5180300000156,1.0,1.0,phase_1,,,,,,,,,,,,,gray,flipped triangle
155.0,1.0,1.0,0.0,2.0,2.0,398.3444010000312,1.0,2.0,phase_1,,,,,,,,,,,,,blue,diamond
1307.0,8.0,4.0,1.0,4.0,4.0,703.7682679999762,2.0,1.0,phase_1,,,,,,,,,,,,,white,square
1320.0,8.0,4.0,1.0,4.0,4.0,519.0687450001406,2.0,1.0,phase_1,,,,,,,,,,,,,white,square
674.0,3.0,3.0,0.0,2.0,2.0,445.7533220002005,2.0,1.0,phase_1,,,,,,,,,,,,,magenta,triangle
0.0,7.0,0.0,1.0,1.0,1.0,443.7797449998015,2.0,1.0,phase_1,,,,,,,,,,,,,cyan,hexagon
179.0,1.0,1.0,0.0,1.0,1.0,417.2932670001046,2.0,1.0,phase_1,,,,,,,,,,,,,blue,diamond
644.0,7.0,3.0,1.0,3.0,3.0,388.918558000114,2.0,1.0,phase_1,,,,,,,,,,,,,cyan,hexagon
671.0,7.0,3.0,1.0,2.0,2.0,458.7016130001302,2.0,1.0,phase_1,,,,,,,,,,,,,cyan,hexagon
666.0,7.0,3.0,1.0,1.0,1.0,499.7010729998692,2.0,1.0,phase_1,,,,,,,,,,,,,cyan,hexagon
325.0,2.0,2.0,0.0,2.0,2.0,408.5506840001471,2.0,1.0,phase_1,,,,,,,,,,,,,gray,flipped triangle
333.0,6.0,2.0,1.0,1.0,1.0,443.2474069999443,2.0,1.0,phase_1,,,,,,,,,,,,,yellow,I
160.0,1.0,1.0,0.0,2.0,2.0,452.3586619998241,2.0,2.0,phase_1,,,,,,,,,,,,,blue,diamond
1313.0,8.0,4.0,1.0,3.0,3.0,426.007405999826,2.0,1.0,phase_1,,,,,,,,,,,,,white,square
1297.0,4.0,4.0,0.0,2.0,2.0,406.2822379999034,2.0,1.0,phase_1,,,,,,,,,,,,,orange,cross
672.0,3.0,3.0,0.0,2.0,2.0,389.2882650000047,2.0,1.0,phase_1,,,,,,,,,,,,,magenta,triangle
640.0,3.0,3.0,0.0,2.0,2.0,370.3622049999922,2.0,1.0,phase_1,,,,,,,,,,,,,magenta,triangle
154.0,1.0,1.0,0.0,1.0,1.0,407.0845300000201,2.0,1.0,phase_1,,,,,,,,,,,,,blue,diamond
341.0,6.0,2.0,1.0,2.0,2.0,369.213850000051,2.0,1.0,phase_1,,,,,,,,,,,,,yellow,I
647.0,3.0,3.0,0.0,1.0,1.0,462.9613459999291,2.0,1.0,phase_1,,,,,,,,,,,,,magenta,triangle
305.0,6.0,2.0,1.0,3.0,3.0,397.3007859999597,2.0,1.0,phase_1,,,,,,,,,,,,,yellow,I
311.0,2.0,2.0,0.0,4.0,4.0,443.2216390000576,2.0,1.0,phase_1,,,,,,,,,,,,,gray,flipped triangle
173.0,1.0,1.0,0.0,4.0,4.0,424.3599290000475,2.0,1.0,phase_1,,,,,,,,,,,,,blue,diamond
672.0,7.0,3.0,1.0,1.0,1.0,460.8786070000406,2.0,1.0,phase_1,,,,,,,,,,,,,cyan,hexagon
339.0,2.0,2.0,0.0,2.0,2.0,378.8400339999498,2.0,1.0,phase_1,,,,,,,,,,,,,gray,flipped triangle
1280.0,4.0,4.0,0.0,1.0,1.0,443.4843469998668,2.0,1.0,phase_1,,,,,,,,,,,,,orange,cross
1300.0,8.0,4.0,1.0,4.0,4.0,417.3588469998321,2.0,1.0,phase_1,,,,,,,,,,,,,white,square
324.0,2.0,2.0,0.0,4.0,4.0,400.2188050001223,2.0,1.0,phase_1,,,,,,,,,,,,,gray,flipped triangle
180.0,5.0,1.0,1.0,2.0,2.0,351.4834439999958,2.0,1.0,phase_1,,,,,,,,,,,,,green,circle
0.0,2.0,0.0,0.0,1.0,1.0,426.6720350001378,2.0,1.0,phase_1,,,,,,,,,,,,,gray,flipped triangle
644.0,7.0,3.0,1.0,2.0,2.0,388.9453799999955,2.0,1.0,phase_1,,,,,,,,,,,,,cyan,hexagon
0.0,1.0,0.0,0.0,3.0,3.0,406.3688129999718,2.0,1.0,phase_1,,,,,,,,,,,,,blue,diamond
668.0,7.0,3.0,1.0,2.0,2.0,463.4010309998757,2.0,1.0,phase_1,,,,,,,,,,,,,cyan,hexagon
627.0,3.0,3.0,0.0,2.0,2.0,389.1583290001108,2.0,1.0,phase_1,,,,,,,,,,,,,magenta,triangle
147.0,5.0,1.0,1.0,3.0,3.0,353.0091969998921,2.0,1.0,phase_1,,,,,,,,,,,,,green,circle
318.0,6.0,2.0,1.0,4.0,4.0,445.0185900000178,2.0,1.0,phase_1,,,,,,,,,,,,,yellow,I
0.0,5.0,0.0,1.0,2.0,2.0,408.4632459998829,2.0,1.0,phase_1,,,,,,,,,,,,,green,circle
630.0,7.0,3.0,1.0,2.0,2.0,389.7390330000689,2.0,1.0,phase_1,,,,,,,,,,,,,cyan,hexagon
1297.0,8.0,4.0,1.0,4.0,4.0,517.298166000046,2.0,1.0,phase_1,,,,,,,,,,,,,white,square
674.0,7.0,3.0,1.0,1.0,1.0,425.4486390000238,2.0,1.0,phase_1,,,,,,,,,,,,,cyan,hexagon
636.0,3.0,3.0,0.0,3.0,3.0,657.0971070000269,2.0,1.0,phase_1,,,,,,,,,,,,,magenta,triangle
0.0,8.0,0.0,1.0,4.0,4.0,500.4873469999893,2.0,1.0,phase_1,,,,,,,,,,,,,white,square
632.0,3.0,3.0,0.0,4.0,4.0,379.4780149999042,2.0,1.0,phase_1,,,,,,,,,,,,,magenta,triangle
643.0,3.0,3.0,0.0,3.0,3.0,445.253282000067,2.0,1.0,phase_1,,,,,,,,,,,,,magenta,triangle
325.0,6.0,2.0,1.0,3.0,3.0,370.303462000038,2.0,1.0,phase_1,,,,,,,,,,,,,yellow,I
1289.0,8.0,4.0,1.0,1.0,1.0,497.8851000000759,2.0,1.0,phase_1,,,,,,,,,,,,,white,square
144.0,5.0,1.0,1.0,3.0,3.0,379.7249979998014,2.0,1.0,phase_1,,,,,,,,,,,,,green,circle
348.0,2.0,2.0,0.0,4.0,4.0,390.4956549999951,2.0,1.0,phase_1,,,,,,,,,,,,,gray,flipped triangle
656.0,3.0,3.0,0.0,4.0,4.0,406.6578360000221,2.0,1.0,phase_1,,,,,,,,,,,,,magenta,triangle
656.0,3.0,3.0,0.0,1.0,1.0,433.6779049999677,2.0,1.0,phase_1,,,,,,,,,,,,,magenta,triangle
345.0,6.0,2.0,1.0,2.0,2.0,397.426176999943,2.0,1.0,phase_1,,,,,,,,,,,,,yellow,I
648.0,3.0,3.0,0.0,2.0,2.0,359.8346659998697,2.0,1.0,phase_1,,,,,,,,,,,,,magenta,triangle
0.0,2.0,0.0,0.0,4.0,4.0,452.296583999896,2.0,1.0,phase_1,,,,,,,,,,,,,gray,flipped triangle
169.0,1.0,1.0,0.0,3.0,3.0,351.6334229998392,2.0,1.0,phase_1,,,,,,,,,,,,,blue,diamond
0.0,7.0,0.0,1.0,1.0,1.0,452.4323309999545,2.0,1.0,phase_1,,,,,,,,,,,,,cyan,hexagon
140.0,1.0,1.0,0.0,1.0,1.0,464.3891989999247,2.0,1.0,phase_1,,,,,,,,,,,,,blue,diamond
332.0,6.0,2.0,1.0,3.0,3.0,413.8803399998778,2.0,1.0,phase_1,,,,,,,,,,,,,yellow,I
0.0,3.0,0.0,0.0,4.0,4.0,359.9249159999544,2.0,1.0,phase_1,,,,,,,,,,,,,magenta,triangle
0.0,7.0,0.0,1.0,1.0,1.0,452.0653290001064,2.0,1.0,phase_1,,,,,,,,,,,,,cyan,hexagon
139.0,5.0,1.0,1.0,1.0,1.0,370.032682000101,2.0,1.0,phase_1,,,,,,,,,,,,,green,circle
1313.0,4.0,4.0,0.0,3.0,3.0,406.2930350000897,2.0,1.0,phase_1,,,,,,,,,,,,,orange,cross
185.0,5.0,1.0,1.0,3.0,3.0,360.7759960000294,2.0,1.0,phase_1,,,,,,,,,,,,,green,circle
169.0,1.0,1.0,0.0,2.0,2.0,929.4434930002352,2.0,1.0,phase_1,,,,,,,,,,,,,blue,diamond
185.0,1.0,1.0,0.0,3.0,3.0,508.617736999895,2.0,1.0,phase_1,,,,,,,,,,,,,blue,diamond
1319.0,8.0,4.0,1.0,2.0,2.0,408.6503879998417,2.0,1.0,phase_1,,,,,,,,,,,,,white,square
1281.0,8.0,4.0,1.0,3.0,3.0,498.7914539997291,2.0,1.0,phase_1,,,,,,,,,,,,,white,square
324.0,6.0,2.0,1.0,3.0,3.0,407.7653350000219,2.0,1.0,phase_1,,,,,,,,,,,,,yellow,I
154.0,5.0,1.0,1.0,1.0,1.0,443.8035580001269,2.0,1.0,phase_1,,,,,,,,,,,,,green,circle
648.0,3.0,3.0,0.0,1.0,1.0,369.0524969997568,2.0,1.0,phase_1,,,,,,,,,,,,,magenta,triangle
311.0,2.0,2.0,0.0,2.0,2.0,692.759365999791,2.0,1.0,phase_1,,,,,,,,,,,,,gray,flipped triangle
1300.0,4.0,4.0,0.0,1.0,1.0,450.9221880002769,2.0,1.0,phase_1,,,,,,,,,,,,,orange,cross
161.0,1.0,1.0,0.0,1.0,1.0,369.5641549998072,2.0,1.0,phase_1,,,,,,,,,,,,,blue,diamond
0.0,3.0,0.0,0.0,3.0,3.0,407.2875769998063,2.0,1.0,phase_1,,,,,,,,,,,,,magenta,triangle
631.0,3.0,3.0,0.0,1.0,1.0,480.9370349998971,2.0,1.0,phase_1,,,,,,,,,,,,,magenta,triangle
627.0,7.0,3.0,1.0,1.0,1.0,426.1699909998242,2.0,1.0,phase_1,,,,,,,,,,,,,cyan,hexagon
146.0,5.0,1.0,1.0,4.0,4.0,720.3389539999989,2.0,1.0,phase_1,,,,,,,,,,,,,green,circle
674.0,7.0,3.0,1.0,4.0,4.0,526.2641360000089,2.0,1.0,phase_1,,,,,,,,,,,,,cyan,hexagon
0.0,6.0,0.0,1.0,4.0,4.0,554.8377800000708,2.0,1.0,phase_1,,,,,,,,,,,,,yellow,I
0.0,4.0,0.0,0.0,4.0,4.0,673.6070030001429,2.0,1.0,phase_1,,,,,,,,,,,,,orange,cross
656.0,7.0,3.0,1.0,3.0,3.0,517.0531290000326,2.0,1.0,phase_1,,,,,,,,,,,,,cyan,hexagon
1308.0,4.0,4.0,0.0,2.0,2.0,608.9532129999498,2.0,1.0,phase_1,,,,,,,,,,,,,orange,cross
651.0,7.0,3.0,1.0,2.0,2.0,499.5110970003225,2.0,1.0,phase_1,,,,,,,,,,,,,cyan,hexagon
161.0,5.0,1.0,1.0,1.0,1.0,544.6798090001721,2.0,1.0,phase_1,,,,,,,,,,,,,green,circle
634.0,7.0,3.0,1.0,4.0,4.0,378.7052860002404,2.0,1.0,phase_1,,,,,,,,,,,,,cyan,hexagon
1307.0,4.0,4.0,0.0,1.0,1.0,508.5424190001504,2.0,1.0,phase_1,,,,,,,,,,,,,orange,cross
310.0,2.0,2.0,0.0,4.0,4.0,905.8815789999244,2.0,1.0,phase_1,,,,,,,,,,,,,gray,flipped triangle
1286.0,8.0,4.0,1.0,3.0,3.0,610.6278890001704,2.0,1.0,phase_1,,,,,,,,,,,,,white,square
332.0,6.0,2.0,1.0,1.0,1.0,846.7914130001191,2.0,1.0,phase_1,,,,,,,,,,,,,yellow,I
146.0,1.0,1.0,0.0,3.0,3.0,526.9444999998996,2.0,1.0,phase_1,,,,,,,,,,,,,blue,diamond
1279.0,4.0,4.0,0.0,4.0,4.0,408.3828170000743,2.0,1.0,phase_1,,,,,,,,,,,,,orange,cross
665.0,7.0,3.0,1.0,3.0,3.0,396.5591749997657,2.0,1.0,phase_1,,,,,,,,,,,,,cyan,hexagon
660.0,7.0,3.0,1.0,3.0,3.0,368.274989999918,2.0,1.0,phase_1,,,,,,,,,,,,,cyan,hexagon
0.0,1.0,0.0,0.0,4.0,4.0,429.790482000044,2.0,1.0,phase_1,,,,,,,,,,,,,blue,diamond
179.0,5.0,1.0,1.0,1.0,1.0,471.0585450002327,2.0,1.0,phase_1,,,,,,,,,,,,,green,circle
654.0,3.0,3.0,0.0,3.0,3.0,368.8320709998152,2.0,1.0,phase_1,,,,,,,,,,,,,magenta,triangle
652.0,3.0,3.0,0.0,1.0,1.0,442.5991989996873,2.0,1.0,phase_1,,,,,,,,,,,,,magenta,triangle
665.0,3.0,3.0,0.0,1.0,1.0,443.0227289999493,2.0,1.0,phase_1,,,,,,,,,,,,,magenta,triangle
0.0,4.0,0.0,0.0,2.0,2.0,378.2934790001491,2.0,2.0,phase_1,,,,,,,,,,,,,orange,cross
627.0,3.0,3.0,0.0,2.0,2.0,344.2146229999707,2.0,1.0,phase_1,,,,,,,,,,,,,magenta,triangle
1297.0,4.0,4.0,0.0,2.0,2.0,372.0815860001494,2.0,1.0,phase_1,,,,,,,,,,,,,orange,cross
654.0,7.0,3.0,1.0,4.0,4.0,361.1974099999315,2.0,1.0,phase_1,,,,,,,,,,,,,cyan,hexagon
0.0,7.0,0.0,1.0,3.0,3.0,415.6374910003251,2.0,1.0,phase_1,,,,,,,,,,,,,cyan,hexagon
314.0,2.0,2.0,0.0,4.0,4.0,425.9066399999938,3.0,1.0,phase_1,,,,,,,,,,,,,gray,flipped triangle
642.0,3.0,3.0,0.0,3.0,3.0,416.2648349997653,3.0,1.0,phase_1,,,,,,,,,,,,,magenta,triangle
0.0,8.0,0.0,1.0,3.0,3.0,396.6551019998405,3.0,1.0,phase_1,,,,,,,,,,,,,white,square
184.0,1.0,1.0,0.0,4.0,4.0,369.4984900002964,3.0,1.0,phase_1,,,,,,,,,,,,,blue,diamond
165.0,1.0,1.0,0.0,1.0,1.0,434.4999790000656,3.0,1.0,phase_1,,,,,,,,,,,,,blue,diamond
0.0,4.0,0.0,0.0,3.0,3.0,453.9872249997643,3.0,1.0,phase_1,,,,,,,,,,,,,orange,cross
1292.0,4.0,4.0,0.0,2.0,2.0,460.8757789997071,3.0,1.0,phase_1,,,,,,,,,,,,,orange,cross
322.0,6.0,2.0,1.0,2.0,2.0,536.7782789999183,3.0,1.0,phase_1,,,,,,,,,,,,,yellow,I
327.0,2.0,2.0,0.0,3.0,3.0,436.1696860000847,3.0,1.0,phase_1,,,,,,,,,,,,,gray,flipped triangle
1279.0,8.0,4.0,1.0,4.0,4.0,360.8006740000746,3.0,1.0,phase_1,,,,,,,,,,,,,white,square
0.0,7.0,0.0,1.0,3.0,3.0,683.3989719998499,3.0,1.0,phase_1,,,,,,,,,,,,,cyan,hexagon
627.0,7.0,3.0,1.0,1.0,1.0,518.1803599998602,3.0,1.0,phase_1,,,,,,,,,,,,,cyan,hexagon
331.0,2.0,2.0,0.0,3.0,3.0,470.7174680002026,3.0,1.0,phase_1,,,,,,,,,,,,,gray,flipped triangle
643.0,7.0,3.0,1.0,2.0,2.0,461.9047749997662,3.0,1.0,phase_1,,,,,,,,,,,,,cyan,hexagon
181.0,5.0,1.0,1.0,1.0,1.0,388.9364319998094,3.0,1.0,phase_1,,,,,,,,,,,,,green,circle
0.0,1.0,0.0,0.0,3.0,3.0,417.121706999751,3.0,1.0,phase_1,,,,,,,,,,,,,blue,diamond
148.0,1.0,1.0,0.0,4.0,4.0,534.7914590001892,3.0,1.0,phase_1,,,,,,,,,,,,,blue,diamond
185.0,1.0,1.0,0.0,2.0,2.0,609.7735399998783,3.0,1.0,phase_1,,,,,,,,,,,,,blue,diamond
660.0,7.0,3.0,1.0,1.0,1.0,342.1409679999669,3.0,1.0,phase_1,,,,,,,,,,,,,cyan,hexagon
0.0,6.0,0.0,1.0,2.0,2.0,554.4734660002177,3.0,1.0,phase_1,,,,,,,,,,,,,yellow,I
668.0,3.0,3.0,0.0,3.0,3.0,553.530414999841,3.0,1.0,phase_1,,,,,,,,,,,,,magenta,triangle
0.0,8.0,0.0,1.0,2.0,2.0,555.4070250000223,3.0,1.0,phase_1,,,,,,,,,,,,,white,square
648.0,7.0,3.0,1.0,4.0,4.0,472.4897639998744,3.0,1.0,phase_1,,,,,,,,,,,,,cyan,hexagon
323.0,2.0,2.0,0.0,3.0,3.0,425.3027069999007,3.0,1.0,phase_1,,,,,,,,,,,,,gray,flipped triangle
151.0,1.0,1.0,0.0,4.0,4.0,388.0338690000826,3.0,1.0,phase_1,,,,,,,,,,,,,blue,diamond
153.0,5.0,1.0,1.0,4.0,4.0,379.9939579998863,3.0,1.0,phase_1,,,,,,,,,,,,,green,circle
1292.0,4.0,4.0,0.0,3.0,3.0,406.890747000034,3.0,1.0,phase_1,,,,,,,,,,,,,orange,cross
340.0,2.0,2.0,0.0,1.0,1.0,443.3412409998709,3.0,1.0,phase_1,,,,,,,,,,,,,gray,flipped triangle
0.0,6.0,0.0,1.0,4.0,4.0,949.9326800000744,3.0,1.0,phase_1,,,,,,,,,,,,,yellow,I
1297.0,4.0,4.0,0.0,2.0,2.0,611.148017999767,3.0,1.0,phase_1,,,,,,,,,,,,,orange,cross
305.0,6.0,2.0,1.0,1.0,1.0,729.0754379996542,3.0,1.0,phase_1,,,,,,,,,,,,,yellow,I
304.0,6.0,2.0,1.0,1.0,1.0,480.2047440002752,3.0,1.0,phase_1,,,,,,,,,,,,,yellow,I
310.0,6.0,2.0,1.0,2.0,2.0,682.1581300000616,3.0,1.0,phase_1,,,,,,,,,,,,,yellow,I
1314.0,8.0,4.0,1.0,2.0,2.0,940.4292059998623,3.0,1.0,phase_1,,,,,,,,,,,,,white,square
143.0,1.0,1.0,0.0,3.0,3.0,507.6567820001401,3.0,1.0,phase_1,,,,,,,,,,,,,blue,diamond
305.0,2.0,2.0,0.0,1.0,1.0,544.6488259999569,3.0,1.0,phase_1,,,,,,,,,,,,,gray,flipped triangle
1309.0,4.0,4.0,0.0,2.0,2.0,497.2748149998551,3.0,1.0,phase_1,,,,,,,,,,,,,orange,cross
1306.0,8.0,4.0,1.0,2.0,2.0,471.1221480001768,3.0,1.0,phase_1,,,,,,,,,,,,,white,square
644.0,3.0,3.0,0.0,4.0,4.0,434.2325590000655,3.0,1.0,phase_1,,,,,,,,,,,,,magenta,triangle
0.0,2.0,0.0,0.0,2.0,2.0,452.1322499999769,3.0,1.0,phase_1,,,,,,,,,,,,,gray,flipped triangle
1288.0,4.0,4.0,0.0,3.0,3.0,387.0738040000105,3.0,1.0,phase_1,,,,,,,,,,,,,orange,cross
1290.0,8.0,4.0,1.0,2.0,2.0,396.369969999796,3.0,1.0,phase_1,,,,,,,,,,,,,white,square
348.0,6.0,2.0,1.0,1.0,1.0,470.5381730000226,3.0,1.0,phase_1,,,,,,,,,,,,,yellow,I
1311.0,8.0,4.0,1.0,4.0,4.0,323.7872699996842,3.0,1.0,phase_1,,,,,,,,,,,,,white,square
155.0,5.0,1.0,1.0,4.0,4.0,340.5390859998078,3.0,1.0,phase_1,,,,,,,,,,,,,green,circle
302.0,2.0,2.0,0.0,4.0,4.0,342.1563980000428,3.0,1.0,phase_1,,,,,,,,,,,,,gray,flipped triangle
323.0,2.0,2.0,0.0,1.0,1.0,369.267949999994,3.0,1.0,phase_1,,,,,,,,,,,,,gray,flipped triangle
345.0,2.0,2.0,0.0,4.0,4.0,370.5581139997775,3.0,1.0,phase_1,,,,,,,,,,,,,gray,flipped triangle
1320.0,4.0,4.0,0.0,1.0,1.0,331.7990670002473,3.0,1.0,phase_1,,,,,,,,,,,,,orange,cross
671.0,3.0,3.0,0.0,4.0,4.0,388.2782260002386,3.0,1.0,phase_1,,,,,,,,,,,,,magenta,triangle
161.0,1.0,1.0,0.0,1.0,1.0,378.4786569999596,3.0,1.0,phase_1,,,,,,,,,,,,,blue,diamond
0.0,1.0,0.0,0.0,4.0,4.0,378.37595100018,3.0,1.0,phase_1,,,,,,,,,,,,,blue,diamond
325.0,2.0,2.0,0.0,1.0,1.0,498.4567090000382,3.0,1.0,phase_1,,,,,,,,,,,,,gray,flipped triangle
1289.0,8.0,4.0,1.0,3.0,3.0,525.7292549999875,3.0,1.0,phase_1,,,,,,,,,,,,,white,square
304.0,2.0,2.0,0.0,4.0,4.0,396.6877269999713,3.0,1.0,phase_1,,,,,,,,,,,,,gray,flipped triangle
652.0,7.0,3.0,1.0,2.0,2.0,663.6144620001687,3.0,1.0,phase_1,,,,,,,,,,,,,cyan,hexagon
0.0,5.0,0.0,1.0,2.0,2.0,471.8339720002404,3.0,1.0,phase_1,,,,,,,,,,,,,green,circle
664.0,7.0,3.0,1.0,4.0,4.0,343.0418090001694,3.0,1.0,phase_1,,,,,,,,,,,,,cyan,hexagon
184.0,1.0,1.0,0.0,4.0,4.0,332.4230020002687,3.0,1.0,phase_1,,,,,,,,,,,,,blue,diamond
1288.0,8.0,4.0,1.0,1.0,1.0,517.6720250001381,3.0,1.0,phase_1,,,,,,,,,,,,,white,square
184.0,1.0,1.0,0.0,4.0,4.0,369.9225189998287,3.0,1.0,phase_1,,,,,,,,,,,,,blue,diamond
169.0,5.0,1.0,1.0,2.0,2.0,444.3080579999332,3.0,1.0,phase_1,,,,,,,,,,,,,green,circle
1313.0,8.0,4.0,1.0,2.0,2.0,386.9960759998321,3.0,1.0,phase_1,,,,,,,,,,,,,white,square
340.0,6.0,2.0,1.0,4.0,4.0,378.9570720000483,3.0,1.0,phase_1,,,,,,,,,,,,,yellow,I
176.0,1.0,1.0,0.0,4.0,4.0,359.6928740003022,3.0,1.0,phase_1,,,,,,,,,,,,,blue,diamond
341.0,2.0,2.0,0.0,3.0,3.0,424.336650999976,3.0,1.0,phase_1,,,,,,,,,,,,,gray,flipped triangle
187.0,1.0,1.0,0.0,1.0,1.0,589.7606919997997,3.0,1.0,phase_1,,,,,,,,,,,,,blue,diamond
642.0,7.0,3.0,1.0,4.0,4.0,433.6731019998296,3.0,1.0,phase_1,,,,,,,,,,,,,cyan,hexagon
169.0,5.0,1.0,1.0,4.0,4.0,369.6848179997687,3.0,1.0,phase_1,,,,,,,,,,,,,green,circle
328.0,6.0,2.0,1.0,2.0,2.0,443.8166640002237,3.0,1.0,phase_1,,,,,,,,,,,,,yellow,I
314.0,2.0,2.0,0.0,3.0,3.0,398.4083860000282,3.0,1.0,phase_1,,,,,,,,,,,,,gray,flipped triangle
0.0,2.0,0.0,0.0,4.0,4.0,407.2040450000713,3.0,1.0,phase_1,,,,,,,,,,,,,gray,flipped triangle
640.0,3.0,3.0,0.0,1.0,1.0,433.8337789999968,3.0,1.0,phase_1,,,,,,,,,,,,,magenta,triangle
0.0,3.0,0.0,0.0,4.0,4.0,323.4743130001334,3.0,1.0,phase_1,,,,,,,,,,,,,magenta,triangle
169.0,5.0,1.0,1.0,3.0,3.0,406.6061739999895,3.0,1.0,phase_1,,,,,,,,,,,,,green,circle
142.0,1.0,1.0,0.0,3.0,3.0,361.9397200000094,3.0,1.0,phase_1,,,,,,,,,,,,,blue,diamond
632.0,7.0,3.0,1.0,3.0,3.0,371.0206159998961,3.0,1.0,phase_1,,,,,,,,,,,,,cyan,hexagon
1319.0,4.0,4.0,0.0,1.0,1.0,536.3507209999625,3.0,1.0,phase_1,,,,,,,,,,,,,orange,cross
318.0,2.0,2.0,0.0,3.0,3.0,424.3753490000017,3.0,1.0,phase_1,,,,,,,,,,,,,gray,flipped triangle
325.0,6.0,2.0,1.0,4.0,4.0,443.3839179996539,3.0,1.0,phase_1,,,,,,,,,,,,,yellow,I
156.0,5.0,1.0,1.0,1.0,1.0,342.1881570002369,3.0,1.0,phase_1,,,,,,,,,,,,,green,circle
654.0,3.0,3.0,0.0,4.0,4.0,379.2890089998764,3.0,1.0,phase_1,,,,,,,,,,,,,magenta,triangle
172.0,1.0,1.0,0.0,3.0,3.0,424.2659860001367,3.0,1.0,phase_1,,,,,,,,,,,,,blue,diamond
0.0,8.0,0.0,1.0,4.0,4.0,331.8190209997738,3.0,1.0,phase_1,,,,,,,,,,,,,white,square
1314.0,4.0,4.0,0.0,3.0,3.0,388.1466630000432,3.0,1.0,phase_1,,,,,,,,,,,,,orange,cross
302.0,6.0,2.0,1.0,4.0,4.0,323.5057280003275,3.0,1.0,phase_1,,,,,,,,,,,,,yellow,I
1319.0,8.0,4.0,1.0,1.0,1.0,360.3290390001348,3.0,1.0,phase_1,,,,,,,,,,,,,white,square
332.0,2.0,2.0,0.0,2.0,2.0,618.5361900002135,3.0,1.0,phase_1,,,,,,,,,,,,,gray,flipped triangle
138.0,1.0,1.0,0.0,1.0,1.0,489.4281499996396,3.0,1.0,phase_1,,,,,,,,,,,,,blue,diamond
322.0,2.0,2.0,0.0,2.0,2.0,360.5214529998193,3.0,1.0,phase_1,,,,,,,,,,,,,gray,flipped triangle
165.0,5.0,1.0,1.0,2.0,2.0,490.7358560003558,3.0,1.0,phase_1,,,,,,,,,,,,,green,circle
327.0,6.0,2.0,1.0,2.0,2.0,444.5997440002429,3.0,1.0,phase_1,,,,,,,,,,,,,yellow,I
0.0,7.0,0.0,1.0,1.0,1.0,361.605710999811,3.0,1.0,phase_1,,,,,,,,,,,,,cyan,hexagon
1281.0,4.0,4.0,0.0,3.0,3.0,396.8706489999931,3.0,1.0,phase_1,,,,,,,,,,,,,orange,cross
650.0,7.0,3.0,1.0,3.0,3.0,599.6132190002754,3.0,1.0,phase_1,,,,,,,,,,,,,cyan,hexagon
347.0,2.0,2.0,0.0,1.0,1.0,471.23808999958777,3.0,1.0,phase_1,,,,,,,,,,,,,gray,flipped triangle
333.0,6.0,2.0,1.0,3.0,3.0,433.0502950001573,3.0,1.0,phase_1,,,,,,,,,,,,,yellow,I
151.0,5.0,1.0,1.0,3.0,3.0,397.1473439996771,3.0,1.0,phase_1,,,,,,,,,,,,,green,circle
327.0,2.0,2.0,0.0,2.0,2.0,444.85389700003,3.0,1.0,phase_1,,,,,,,,,,,,,gray,flipped triangle
636.0,3.0,3.0,0.0,4.0,4.0,434.4084049998855,3.0,1.0,phase_1,,,,,,,,,,,,,magenta,triangle
1277.0,4.0,4.0,0.0,3.0,3.0,582.0310260000952,4.0,1.0,phase_1,,,,,,,,,,,,,orange,cross
1298.0,8.0,4.0,1.0,3.0,3.0,371.9457379997948,4.0,1.0,phase_1,,,,,,,,,,,,,white,square
0.0,4.0,0.0,0.0,2.0,2.0,433.9673360000233,4.0,1.0,phase_1,,,,,,,,,,,,,orange,cross
0.0,5.0,0.0,1.0,1.0,1.0,677.1033579998402,4.0,1.0,phase_1,,,,,,,,,,,,,green,circle
180.0,1.0,1.0,0.0,3.0,3.0,416.4196719998472,4.0,1.0,phase_1,,,,,,,,,,,,,blue,diamond
161.0,5.0,1.0,1.0,4.0,4.0,474.0954399999282,4.0,1.0,phase_1,,,,,,,,,,,,,green,circle
0.0,6.0,0.0,1.0,3.0,3.0,361.9749069998761,4.0,1.0,phase_1,,,,,,,,,,,,,yellow,I
323.0,6.0,2.0,1.0,4.0,4.0,426.0513489998629,4.0,1.0,phase_1,,,,,,,,,,,,,yellow,I
633.0,3.0,3.0,0.0,3.0,3.0,509.3056760001673,4.0,1.0,phase_1,,,,,,,,,,,,,magenta,triangle
1300.0,8.0,4.0,1.0,1.0,1.0,463.5318590003408,4.0,1.0,phase_1,,,,,,,,,,,,,white,square
160.0,5.0,1.0,1.0,2.0,2.0,434.7422310002002,4.0,1.0,phase_1,,,,,,,,,,,,,green,circle
1300.0,4.0,4.0,0.0,2.0,2.0,464.3473900000572,4.0,1.0,phase_1,,,,,,,,,,,,,orange,cross
179.0,5.0,1.0,1.0,2.0,2.0,370.90116399986067,4.0,1.0,phase_1,,,,,,,,,,,,,green,circle
334.0,2.0,2.0,0.0,2.0,2.0,370.5825260003621,4.0,1.0,phase_1,,,,,,,,,,,,,gray,flipped triangle
0.0,6.0,0.0,1.0,1.0,1.0,398.1126539997603,4.0,1.0,phase_1,,,,,,,,,,,,,yellow,I
334.0,6.0,2.0,1.0,4.0,4.0,350.1863729998149,4.0,1.0,phase_1,,,,,,,,,,,,,yellow,I
1313.0,4.0,4.0,0.0,1.0,1.0,360.8420159998786,4.0,1.0,phase_1,,,,,,,,,,,,,orange,cross
336.0,6.0,2.0,1.0,3.0,3.0,361.4393079997171,4.0,1.0,phase_1,,,,,,,,,,,,,yellow,I
675.0,7.0,3.0,1.0,2.0,2.0,417.2462380001889,4.0,1.0,phase_1,,,,,,,,,,,,,cyan,hexagon
636.0,7.0,3.0,1.0,3.0,3.0,500.9713690001263,4.0,1.0,phase_1,,,,,,,,,,,,,cyan,hexagon
0.0,7.0,0.0,1.0,3.0,3.0,392.8496029998314,4.0,1.0,phase_1,,,,,,,,,,,,,cyan,hexagon
647.0,7.0,3.0,1.0,4.0,4.0,434.7681760000341,4.0,1.0,phase_1,,,,,,,,,,,,,cyan,hexagon
184.0,5.0,1.0,1.0,3.0,3.0,387.8432659998907,4.0,1.0,phase_1,,,,,,,,,,,,,green,circle
179.0,1.0,1.0,0.0,4.0,4.0,406.970137999906,4.0,1.0,phase_1,,,,,,,,,,,,,blue,diamond
1314.0,8.0,4.0,1.0,1.0,1.0,481.4752540000881,4.0,1.0,phase_1,,,,,,,,,,,,,white,square
0.0,7.0,0.0,1.0,3.0,3.0,352.1011510001699,4.0,1.0,phase_1,,,,,,,,,,,,,cyan,hexagon
1279.0,4.0,4.0,0.0,1.0,1.0,452.9828790000465,4.0,1.0,phase_1,,,,,,,,,,,,,orange,cross
1288.0,8.0,4.0,1.0,3.0,3.0,333.5926210002071,4.0,1.0,phase_1,,,,,,,,,,,,,white,square
1282.0,4.0,4.0,0.0,2.0,2.0,563.2358339998973,4.0,1.0,phase_1,,,,,,,,,,,,,orange,cross
301.0,6.0,2.0,1.0,3.0,3.0,360.81154199973747,4.0,1.0,phase_1,,,,,,,,,,,,,yellow,I
316.0,6.0,2.0,1.0,2.0,2.0,462.0828430001893,4.0,1.0,phase_1,,,,,,,,,,,,,yellow,I
147.0,1.0,1.0,0.0,4.0,4.0,471.9784640001307,4.0,1.0,phase_1,,,,,,,,,,,,,blue,diamond
634.0,3.0,3.0,0.0,1.0,1.0,370.1316020001286,4.0,1.0,phase_1,,,,,,,,,,,,,magenta,triangle
0.0,6.0,0.0,1.0,2.0,2.0,489.9374239998906,4.0,1.0,phase_1,,,,,,,,,,,,,yellow,I
148.0,5.0,1.0,1.0,3.0,3.0,353.3502139998745,4.0,1.0,phase_1,,,,,,,,,,,,,green,circle
176.0,5.0,1.0,1.0,4.0,4.0,425.0968370001828,4.0,1.0,phase_1,,,,,,,,,,,,,green,circle
1318.0,4.0,4.0,0.0,4.0,4.0,444.3772139998145,4.0,1.0,phase_1,,,,,,,,,,,,,orange,cross
1294.0,4.0,4.0,0.0,3.0,3.0,351.7597000000023,4.0,1.0,phase_1,,,,,,,,,,,,,orange,cross
1297.0,8.0,4.0,1.0,3.0,3.0,351.611782999953,4.0,1.0,phase_1,,,,,,,,,,,,,white,square
139.0,1.0,1.0,0.0,2.0,2.0,480.5503040001895,4.0,1.0,phase_1,,,,,,,,,,,,,blue,diamond
1289.0,4.0,4.0,0.0,2.0,2.0,461.5513659996395,4.0,1.0,phase_1,,,,,,,,,,,,,orange,cross
0.0,4.0,0.0,0.0,1.0,1.0,517.2396580001077,4.0,1.0,phase_1,,,,,,,,,,,,,orange,cross
153.0,1.0,1.0,0.0,4.0,4.0,388.7882530002571,4.0,1.0,phase_1,,,,,,,,,,,,,blue,diamond
626.0,3.0,3.0,0.0,3.0,3.0,342.7621690002524,4.0,1.0,phase_1,,,,,,,,,,,,,magenta,triangle
301.0,2.0,2.0,0.0,2.0,2.0,415.9380500000225,4.0,1.0,phase_1,,,,,,,,,,,,,gray,flipped triangle
1284.0,8.0,4.0,1.0,2.0,2.0,332.6030990001527,4.0,1.0,phase_1,,,,,,,,,,,,,white,square
311.0,6.0,2.0,1.0,3.0,3.0,380.2859719999105,4.0,1.0,phase_1,,,,,,,,,,,,,yellow,I
640.0,7.0,3.0,1.0,1.0,1.0,472.436984000069,4.0,1.0,phase_1,,,,,,,,,,,,,cyan,hexagon
0.0,3.0,0.0,0.0,4.0,4.0,398.7338500000987,4.0,1.0,phase_1,,,,,,,,,,,,,magenta,triangle
664.0,3.0,3.0,0.0,3.0,3.0,361.5098860000216,4.0,1.0,phase_1,,,,,,,,,,,,,magenta,triangle
0.0,6.0,0.0,1.0,1.0,1.0,490.68811799998,4.0,1.0,phase_1,,,,,,,,,,,,,yellow,I
140.0,5.0,1.0,1.0,3.0,3.0,398.275755999748,4.0,1.0,phase_1,,,,,,,,,,,,,green,circle
0.0,7.0,0.0,1.0,1.0,1.0,435.1140109997686,4.0,1.0,phase_1,,,,,,,,,,,,,cyan,hexagon
168.0,5.0,1.0,1.0,1.0,1.0,471.5330549997816,4.0,1.0,phase_1,,,,,,,,,,,,,green,circle
1284.0,4.0,4.0,0.0,4.0,4.0,566.9407090003915,4.0,1.0,phase_1,,,,,,,,,,,,,orange,cross
0.0,2.0,0.0,0.0,1.0,1.0,463.5118209998836,4.0,1.0,phase_1,,,,,,,,,,,,,gray,flipped triangle
0.0,5.0,0.0,1.0,4.0,4.0,500.9791300003599,4.0,1.0,phase_1,,,,,,,,,,,,,green,circle
654.0,7.0,3.0,1.0,2.0,2.0,736.4919880001253,4.0,1.0,phase_1,,,,,,,,,,,,,cyan,hexagon
311.0,6.0,2.0,1.0,2.0,2.0,545.475733999865,4.0,1.0,phase_1,,,,,,,,,,,,,yellow,I
660.0,3.0,3.0,0.0,4.0,4.0,555.4467060001116,4.0,1.0,phase_1,,,,,,,,,,,,,magenta,triangle
1299.0,4.0,4.0,0.0,4.0,4.0,409.8846910001157,4.0,1.0,phase_1,,,,,,,,,,,,,orange,cross
141.0,5.0,1.0,1.0,2.0,2.0,499.1549450001002,4.0,1.0,phase_1,,,,,,,,,,,,,green,circle
327.0,6.0,2.0,1.0,2.0,2.0,434.1890330001661,4.0,1.0,phase_1,,,,,,,,,,,,,yellow,I
1277.0,8.0,4.0,1.0,4.0,4.0,378.8563260000046,4.0,1.0,phase_1,,,,,,,,,,,,,white,square
1321.0,4.0,4.0,0.0,3.0,3.0,388.3123890000206,4.0,1.0,phase_1,,,,,,,,,,,,,orange,cross
651.0,3.0,3.0,0.0,4.0,4.0,397.4891240000033,4.0,1.0,phase_1,,,,,,,,,,,,,magenta,triangle
631.0,7.0,3.0,1.0,1.0,1.0,425.541756000257,4.0,1.0,phase_1,,,,,,,,,,,,,cyan,hexagon
168.0,1.0,1.0,0.0,1.0,1.0,452.0281929999328,4.0,1.0,phase_1,,,,,,,,,,,,,blue,diamond
0.0,4.0,0.0,0.0,1.0,1.0,369.6727989999999,4.0,1.0,phase_1,,,,,,,,,,,,,orange,cross
0.0,5.0,0.0,1.0,4.0,4.0,397.9024390000631,4.0,1.0,phase_1,,,,,,,,,,,,,green,circle
331.0,2.0,2.0,0.0,1.0,1.0,508.611277,4.0,1.0,phase_1,,,,,,,,,,,,,gray,flipped triangle
1318.0,8.0,4.0,1.0,3.0,3.0,369.3694909998157,4.0,1.0,phase_1,,,,,,,,,,,,,white,square
0.0,2.0,0.0,0.0,4.0,4.0,396.5449499996794,4.0,1.0,phase_1,,,,,,,,,,,,,gray,flipped triangle
333.0,2.0,2.0,0.0,3.0,3.0,369.0666480001709,4.0,1.0,phase_1,,,,,,,,,,,,,gray,flipped triangle
0.0,5.0,0.0,1.0,1.0,1.0,442.7302429999145,4.0,1.0,phase_1,,,,,,,,,,,,,green,circle
154.0,5.0,1.0,1.0,2.0,2.0,433.3725569999842,4.0,1.0,phase_1,,,,,,,,,,,,,green,circle
1309.0,8.0,4.0,1.0,4.0,4.0,351.1922950001462,4.0,1.0,phase_1,,,,,,,,,,,,,white,square
0.0,5.0,0.0,1.0,3.0,3.0,406.7188209996857,4.0,1.0,phase_1,,,,,,,,,,,,,green,circle
0.0,1.0,0.0,0.0,1.0,1.0,471.3879099999758,4.0,1.0,phase_1,,,,,,,,,,,,,blue,diamond
183.0,5.0,1.0,1.0,1.0,1.0,406.7498409999643,4.0,1.0,phase_1,,,,,,,,,,,,,green,circle
645.0,3.0,3.0,0.0,2.0,2.0,444.2391849997875,4.0,1.0,phase_1,,,,,,,,,,,,,magenta,triangle
630.0,3.0,3.0,0.0,3.0,3.0,765.6653059998462,4.0,1.0,phase_1,,,,,,,,,,,,,magenta,triangle
184.0,5.0,1.0,1.0,1.0,1.0,536.6050580000774,4.0,1.0,phase_1,,,,,,,,,,,,,green,circle
644.0,3.0,3.0,0.0,4.0,4.0,398.0509640000491,4.0,1.0,phase_1,,,,,,,,,,,,,magenta,triangle
323.0,6.0,2.0,1.0,4.0,4.0,369.9743979996128,4.0,1.0,phase_1,,,,,,,,,,,,,yellow,I
156.0,1.0,1.0,0.0,2.0,2.0,414.9548310001592,4.0,1.0,phase_1,,,,,,,,,,,,,blue,diamond
0.0,8.0,0.0,1.0,4.0,4.0,342.7927510001609,4.0,1.0,phase_1,,,,,,,,,,,,,white,square
187.0,5.0,1.0,1.0,4.0,4.0,342.4752179998904,4.0,1.0,phase_1,,,,,,,,,,,,,green,circle
0.0,5.0,0.0,1.0,4.0,4.0,343.0435219997889,4.0,1.0,phase_1,,,,,,,,,,,,,green,circle
0.0,1.0,0.0,0.0,2.0,2.0,397.5135150003552,4.0,1.0,phase_1,,,,,,,,,,,,,blue,diamond
347.0,2.0,2.0,0.0,3.0,3.0,388.7233240002388,4.0,1.0,phase_1,,,,,,,,,,,,,gray,flipped triangle
0.0,2.0,0.0,0.0,4.0,4.0,416.5986360003444,4.0,1.0,phase_1,,,,,,,,,,,,,gray,flipped triangle
675.0,3.0,3.0,0.0,2.0,2.0,426.2046039998495,4.0,1.0,phase_1,,,,,,,,,,,,,magenta,triangle
0.0,3.0,0.0,0.0,4.0,4.0,380.1617819999592,4.0,1.0,phase_1,,,,,,,,,,,,,magenta,triangle
1292.0,8.0,4.0,1.0,1.0,1.0,455.0096419998226,4.0,1.0,phase_1,,,,,,,,,,,,,white,square
0.0,8.0,0.0,1.0,3.0,3.0,351.6603449998001,4.0,1.0,phase_1,,,,,,,,,,,,,white,square
1307.0,4.0,4.0,0.0,3.0,3.0,370.0807469999745,4.0,1.0,phase_1,,,,,,,,,,,,,orange,cross
0.0,8.0,0.0,1.0,1.0,1.0,369.8121140000694,4.0,1.0,phase_1,,,,,,,,,,,,,white,square
141.0,1.0,1.0,0.0,2.0,2.0,564.3537139999353,4.0,1.0,phase_1,,,,,,,,,,,,,blue,diamond
1307.0,8.0,4.0,1.0,3.0,3.0,379.6840750001138,4.0,1.0,phase_1,,,,,,,,,,,,,white,square
0.0,7.0,3.0,1.0,5.0,5.0,640.7146239998838,1.0,1.0,phase_2,go,250.0,250.0,1.0,,,,,,,,,cyan,hexagon
0.0,6.0,2.0,1.0,6.0,6.0,712.0312060001197,1.0,1.0,phase_2,stop,250.0,250.0,3.0,,,,,,,,,yellow,I
0.0,8.0,4.0,1.0,5.0,0.0,0.0,1.0,1.0,phase_2,stop,250.0,200.0,4.0,,,,,,,,,white,square
0.0,1.0,1.0,0.0,6.0,6.0,607.3311939999257,1.0,1.0,phase_2,go,300.0,200.0,1.0,,,,,,,,,blue,diamond
0.0,5.0,1.0,1.0,6.0,0.0,0.0,1.0,1.0,phase_2,stop,300.0,200.0,4.0,,,,,,,,,green,circle
0.0,4.0,4.0,0.0,5.0,5.0,605.699136000112,1.0,1.0,phase_2,go,300.0,250.0,1.0,,,,,,,,,orange,cross
0.0,6.0,2.0,1.0,5.0,0.0,0.0,1.0,1.0,phase_2,stop,300.0,250.0,4.0,,,,,,,,,yellow,I
0.0,3.0,3.0,0.0,6.0,6.0,700.0665139999,1.0,1.0,phase_2,go,350.0,250.0,1.0,,,,,,,,,magenta,triangle
0.0,8.0,4.0,1.0,5.0,0.0,0.0,1.0,1.0,phase_2,stop,350.0,250.0,4.0,,,,,,,,,white,square
0.0,7.0,3.0,1.0,6.0,6.0,739.3096379996678,1.0,1.0,phase_2,go,400.0,250.0,1.0,,,,,,,,,cyan,hexagon
0.0,4.0,4.0,0.0,5.0,5.0,747.5100860001476,1.0,1.0,phase_2,go,400.0,250.0,1.0,,,,,,,,,orange,cross
0.0,5.0,1.0,1.0,6.0,0.0,0.0,1.0,1.0,phase_2,stop,400.0,250.0,4.0,,,,,,,,,green,circle
0.0,7.0,3.0,1.0,6.0,0.0,0.0,1.0,1.0,phase_2,stop,400.0,300.0,4.0,,,,,,,,,cyan,hexagon
0.0,4.0,4.0,0.0,5.0,5.0,598.0729319999227,1.0,1.0,phase_2,go,400.0,350.0,1.0,,,,,,,,,orange,cross
0.0,2.0,2.0,0.0,6.0,6.0,549.4033169998147,1.0,1.0,phase_2,go,400.0,350.0,1.0,,,,,,,,,gray,flipped triangle
0.0,1.0,1.0,0.0,5.0,5.0,580.5432219999602,1.0,1.0,phase_2,go,400.0,350.0,1.0,,,,,,,,,blue,diamond
0.0,2.0,2.0,0.0,5.0,5.0,708.0072120002114,1.0,1.0,phase_2,go,400.0,350.0,1.0,,,,,,,,,gray,flipped triangle
0.0,4.0,4.0,0.0,6.0,6.0,604.5206449998659,1.0,1.0,phase_2,go,400.0,350.0,1.0,,,,,,,,,orange,cross
0.0,2.0,2.0,0.0,6.0,6.0,776.581644000089,1.0,1.0,phase_2,go,400.0,350.0,1.0,,,,,,,,,gray,flipped triangle
0.0,8.0,4.0,1.0,6.0,0.0,0.0,1.0,1.0,phase_2,stop,400.0,350.0,4.0,,,,,,,,,white,square
0.0,4.0,4.0,0.0,6.0,6.0,737.4227909999718,1.0,1.0,phase_2,go,400.0,400.0,1.0,,,,,,,,,orange,cross
0.0,7.0,3.0,1.0,5.0,0.0,0.0,1.0,1.0,phase_2,stop,400.0,400.0,4.0,,,,,,,,,cyan,hexagon
0.0,1.0,1.0,0.0,5.0,5.0,763.6525590000929,1.0,1.0,phase_2,go,450.0,400.0,1.0,,,,,,,,,blue,diamond
0.0,8.0,4.0,1.0,6.0,0.0,0.0,1.0,1.0,phase_2,stop,450.0,400.0,4.0,,,,,,,,,white,square
0.0,6.0,2.0,1.0,6.0,0.0,0.0,1.0,1.0,phase_2,stop,450.0,450.0,4.0,,,,,,,,,yellow,I
0.0,6.0,2.0,1.0,6.0,0.0,0.0,1.0,1.0,phase_2,stop,450.0,500.0,4.0,,,,,,,,,yellow,I
0.0,3.0,3.0,0.0,5.0,5.0,753.731413999958,1.0,1.0,phase_2,go,450.0,550.0,1.0,,,,,,,,,magenta,triangle
0.0,7.0,3.0,1.0,6.0,6.0,717.8241169999637,1.0,1.0,phase_2,stop,450.0,550.0,3.0,,,,,,,,,cyan,hexagon
0.0,8.0,4.0,1.0,6.0,0.0,0.0,1.0,1.0,phase_2,stop,450.0,500.0,4.0,,,,,,,,,white,square
0.0,3.0,3.0,0.0,5.0,5.0,734.7594099996968,1.0,1.0,phase_2,go,450.0,550.0,1.0,,,,,,,,,magenta,triangle
0.0,8.0,4.0,1.0,5.0,0.0,0.0,1.0,1.0,phase_2,stop,450.0,550.0,4.0,,,,,,,,,white,square
0.0,2.0,2.0,0.0,5.0,5.0,754.6711949999008,1.0,1.0,phase_2,go,500.0,550.0,1.0,,,,,,,,,gray,flipped triangle
0.0,1.0,1.0,0.0,6.0,6.0,756.2298259999807,1.0,1.0,phase_2,go,500.0,550.0,1.0,,,,,,,,,blue,diamond
0.0,3.0,3.0,0.0,6.0,6.0,706.9106200001443,1.0,1.0,phase_2,go,500.0,550.0,1.0,,,,,,,,,magenta,triangle
0.0,8.0,4.0,1.0,6.0,0.0,0.0,1.0,1.0,phase_2,stop,500.0,550.0,4.0,,,,,,,,,white,square
0.0,6.0,2.0,1.0,6.0,6.0,799.1865889998735,1.0,1.0,phase_2,stop,500.0,600.0,3.0,,,,,,,,,yellow,I
0.0,2.0,2.0,0.0,6.0,6.0,1027.657982999699,2.0,1.0,phase_2,go,500.0,550.0,1.0,,,,,,,,,gray,flipped triangle
0.0,7.0,3.0,1.0,5.0,5.0,883.372707000035,2.0,1.0,phase_2,go,500.0,550.0,1.0,,,,,,,,,cyan,hexagon
0.0,7.0,3.0,1.0,6.0,6.0,850.8873179998773,2.0,1.0,phase_2,go,500.0,550.0,1.0,,,,,,,,,cyan,hexagon
0.0,5.0,1.0,1.0,6.0,0.0,0.0,2.0,1.0,phase_2,stop,500.0,550.0,4.0,,,,,,,,,green,circle
0.0,8.0,4.0,1.0,5.0,0.0,0.0,2.0,1.0,phase_2,stop,500.0,600.0,4.0,,,,,,,,,white,square
0.0,1.0,1.0,0.0,5.0,5.0,941.8000519999624,2.0,1.0,phase_2,go,550.0,600.0,1.0,,,,,,,,,blue,diamond
0.0,1.0,1.0,0.0,6.0,6.0,876.9540850003068,2.0,1.0,phase_2,go,550.0,600.0,1.0,,,,,,,,,blue,diamond
0.0,4.0,4.0,0.0,5.0,5.0,874.5769900001505,2.0,1.0,phase_2,go,550.0,600.0,1.0,,,,,,,,,orange,cross
0.0,5.0,1.0,1.0,5.0,0.0,0.0,2.0,1.0,phase_2,stop,550.0,600.0,4.0,,,,,,,,,green,circle
0.0,6.0,2.0,1.0,5.0,5.0,895.912128999953,2.0,1.0,phase_2,go,600.0,600.0,1.0,,,,,,,,,yellow,I
0.0,7.0,3.0,1.0,5.0,5.0,757.9279809997388,2.0,1.0,phase_2,stop,600.0,600.0,3.0,,,,,,,,,cyan,hexagon
0.0,8.0,4.0,1.0,6.0,6.0,862.3405190000994,2.0,1.0,phase_2,go,550.0,600.0,1.0,,,,,,,,,white,square
0.0,2.0,2.0,0.0,6.0,6.0,719.0648709997731,2.0,1.0,phase_2,go,550.0,600.0,1.0,,,,,,,,,gray,flipped triangle
0.0,6.0,2.0,1.0,6.0,6.0,820.5473569996684,2.0,1.0,phase_2,go,550.0,600.0,1.0,,,,,,,,,yellow,I
0.0,3.0,3.0,0.0,6.0,6.0,813.4369870003866,2.0,1.0,phase_2,go,550.0,600.0,1.0,,,,,,,,,magenta,triangle
0.0,5.0,1.0,1.0,5.0,0.0,0.0,2.0,1.0,phase_2,stop,550.0,600.0,4.0,,,,,,,,,green,circle
0.0,1.0,1.0,0.0,5.0,5.0,895.143115999872,2.0,1.0,phase_2,go,600.0,600.0,1.0,,,,,,,,,blue,diamond
0.0,5.0,1.0,1.0,5.0,0.0,0.0,2.0,1.0,phase_2,stop,600.0,600.0,4.0,,,,,,,,,green,circle
0.0,6.0,2.0,1.0,5.0,5.0,914.731159999974,2.0,1.0,phase_2,go,650.0,600.0,1.0,,,,,,,,,yellow,I
0.0,4.0,4.0,0.0,6.0,6.0,765.7438020000882,2.0,1.0,phase_2,go,650.0,600.0,1.0,,,,,,,,,orange,cross
0.0,7.0,3.0,1.0,6.0,6.0,839.9877669999114,2.0,1.0,phase_2,go,650.0,600.0,1.0,,,,,,,,,cyan,hexagon
0.0,1.0,1.0,0.0,5.0,5.0,987.8789069998676,2.0,1.0,phase_2,go,650.0,600.0,1.0,,,,,,,,,blue,diamond
0.0,3.0,3.0,0.0,6.0,6.0,923.3965859998534,2.0,1.0,phase_2,go,650.0,600.0,1.0,,,,,,,,,magenta,triangle
0.0,4.0,4.0,0.0,6.0,6.0,786.6103189999194,2.0,1.0,phase_2,go,650.0,600.0,1.0,,,,,,,,,orange,cross
0.0,5.0,1.0,1.0,5.0,0.0,0.0,2.0,1.0,phase_2,stop,650.0,600.0,4.0,,,,,,,,,green,circle
0.0,2.0,2.0,0.0,6.0,6.0,363.5188929997639,2.0,1.0,phase_2,go,700.0,600.0,1.0,,,,,,,,,gray,flipped triangle
0.0,8.0,4.0,1.0,5.0,5.0,751.9750500000555,2.0,1.0,phase_2,stop,700.0,600.0,3.0,,,,,,,,,white,square
0.0,5.0,1.0,1.0,5.0,5.0,959.9492850002208,2.0,1.0,phase_2,go,650.0,600.0,1.0,,,,,,,,,green,circle
0.0,7.0,3.0,1.0,5.0,5.0,814.3149989996346,2.0,1.0,phase_2,stop,650.0,600.0,3.0,,,,,,,,,cyan,hexagon
0.0,3.0,3.0,0.0,6.0,6.0,915.9648929999094,2.0,1.0,phase_2,go,600.0,600.0,1.0,,,,,,,,,magenta,triangle
0.0,6.0,2.0,1.0,6.0,6.0,904.2071220001162,2.0,1.0,phase_2,go,600.0,600.0,1.0,,,,,,,,,yellow,I
0.0,2.0,2.0,0.0,5.0,5.0,914.628601000004,2.0,1.0,phase_2,go,600.0,600.0,1.0,,,,,,,,,gray,flipped triangle
0.0,3.0,3.0,0.0,5.0,5.0,961.2309819999608,2.0,1.0,phase_2,go,600.0,600.0,1.0,,,,,,,,,magenta,triangle
0.0,7.0,3.0,1.0,6.0,0.0,0.0,2.0,1.0,phase_2,stop,600.0,600.0,4.0,,,,,,,,,cyan,hexagon
0.0,1.0,1.0,0.0,6.0,6.0,906.6207259998008,2.0,1.0,phase_2,go,600.0,650.0,1.0,,,,,,,,,blue,diamond
0.0,4.0,4.0,0.0,6.0,6.0,960.7769750000444,2.0,1.0,phase_2,go,600.0,650.0,1.0,,,,,,,,,orange,cross
0.0,6.0,2.0,1.0,6.0,0.0,0.0,3.0,1.0,phase_2,stop,600.0,650.0,4.0,,,,,,,,,yellow,I
0.0,8.0,4.0,1.0,5.0,0.0,0.0,3.0,1.0,phase_2,stop,600.0,700.0,4.0,,,,,,,,,white,square
0.0,7.0,3.0,1.0,6.0,6.0,1016.5609209998363,3.0,1.0,phase_2,go,650.0,700.0,1.0,,,,,,,,,cyan,hexagon
0.0,4.0,4.0,0.0,5.0,5.0,773.1115870001304,3.0,1.0,phase_2,go,650.0,700.0,1.0,,,,,,,,,orange,cross
0.0,5.0,1.0,1.0,6.0,6.0,801.11550599986,3.0,1.0,phase_2,go,650.0,700.0,1.0,,,,,,,,,green,circle
0.0,6.0,2.0,1.0,5.0,5.0,822.1611999997549,3.0,1.0,phase_2,stop,650.0,700.0,3.0,,,,,,,,,yellow,I
0.0,5.0,1.0,1.0,5.0,0.0,0.0,3.0,1.0,phase_2,stop,600.0,700.0,4.0,,,,,,,,,green,circle
0.0,5.0,1.0,1.0,6.0,6.0,874.5252139997319,3.0,1.0,phase_2,go,650.0,700.0,1.0,,,,,,,,,green,circle
0.0,7.0,3.0,1.0,5.0,0.0,0.0,3.0,1.0,phase_2,stop,650.0,700.0,4.0,,,,,,,,,cyan,hexagon
0.0,2.0,2.0,0.0,5.0,5.0,1000.8882259999154,3.0,1.0,phase_2,go,700.0,700.0,1.0,,,,,,,,,gray,flipped triangle
0.0,6.0,2.0,1.0,5.0,0.0,0.0,3.0,1.0,phase_2,stop,700.0,700.0,4.0,,,,,,,,,yellow,I
0.0,8.0,4.0,1.0,6.0,0.0,0.0,3.0,1.0,phase_2,stop,750.0,700.0,4.0,,,,,,,,,white,square
0.0,7.0,3.0,1.0,5.0,5.0,794.3536759999006,3.0,1.0,phase_2,stop,750.0,750.0,3.0,,,,,,,,,cyan,hexagon
0.0,8.0,4.0,1.0,5.0,5.0,1062.5029510001696,3.0,1.0,phase_2,go,700.0,750.0,1.0,,,,,,,,,white,square
0.0,4.0,4.0,0.0,6.0,6.0,884.1877269996985,3.0,1.0,phase_2,go,700.0,750.0,1.0,,,,,,,,,orange,cross
0.0,6.0,2.0,1.0,5.0,0.0,0.0,3.0,1.0,phase_2,stop,700.0,750.0,4.0,,,,,,,,,yellow,I
0.0,7.0,3.0,1.0,6.0,0.0,0.0,3.0,1.0,phase_2,stop,750.0,750.0,4.0,,,,,,,,,cyan,hexagon
0.0,1.0,1.0,0.0,6.0,6.0,1091.1688099999992,3.0,1.0,phase_2,go,750.0,800.0,1.0,,,,,,,,,blue,diamond
0.0,2.0,2.0,0.0,6.0,6.0,990.2445480001916,3.0,1.0,phase_2,go,750.0,800.0,1.0,,,,,,,,,gray,flipped triangle
0.0,5.0,1.0,1.0,5.0,5.0,1136.2753059997883,3.0,1.0,phase_2,go,750.0,800.0,1.0,,,,,,,,,green,circle
0.0,8.0,4.0,1.0,5.0,0.0,0.0,3.0,1.0,phase_2,stop,750.0,800.0,4.0,,,,,,,,,white,square
0.0,1.0,1.0,0.0,5.0,5.0,1140.6871679996584,3.0,1.0,phase_2,go,800.0,800.0,1.0,,,,,,,,,blue,diamond
0.0,6.0,2.0,1.0,5.0,0.0,0.0,3.0,1.0,phase_2,stop,800.0,800.0,4.0,,,,,,,,,yellow,I
0.0,6.0,2.0,1.0,6.0,0.0,0.0,3.0,1.0,phase_2,stop,850.0,800.0,4.0,,,,,,,,,yellow,I
0.0,2.0,2.0,0.0,6.0,6.0,1114.7354519998771,3.0,1.0,phase_2,go,850.0,850.0,1.0,,,,,,,,,gray,flipped triangle
0.0,7.0,3.0,1.0,5.0,0.0,0.0,3.0,1.0,phase_2,stop,850.0,850.0,4.0,,,,,,,,,cyan,hexagon
0.0,2.0,2.0,0.0,5.0,5.0,1202.0547430001898,3.0,1.0,phase_2,go,900.0,850.0,1.0,,,,,,,,,gray,flipped triangle
0.0,2.0,2.0,0.0,6.0,6.0,1014.9942350003585,3.0,1.0,phase_2,go,900.0,850.0,1.0,,,,,,,,,gray,flipped triangle
0.0,7.0,3.0,1.0,5.0,5.0,1020.8769930000017,3.0,1.0,phase_2,stop,900.0,850.0,3.0,,,,,,,,,cyan,hexagon
0.0,2.0,2.0,0.0,5.0,5.0,1238.6069549997956,3.0,1.0,phase_2,go,850.0,850.0,1.0,,,,,,,,,gray,flipped triangle
0.0,2.0,2.0,0.0,6.0,6.0,1159.790651000094,3.0,1.0,phase_2,go,850.0,850.0,1.0,,,,,,,,,gray,flipped triangle
0.0,5.0,1.0,1.0,6.0,0.0,0.0,3.0,1.0,phase_2,stop,850.0,850.0,4.0,,,,,,,,,green,circle
0.0,5.0,1.0,1.0,5.0,5.0,1227.7739900000595,3.0,1.0,phase_2,go,850.0,900.0,1.0,,,,,,,,,green,circle
0.0,7.0,3.0,1.0,6.0,6.0,1063.7380009998196,3.0,1.0,phase_2,go,850.0,900.0,1.0,,,,,,,,,cyan,hexagon
0.0,4.0,4.0,0.0,6.0,6.0,1164.3177019996074,3.0,1.0,phase_2,go,850.0,900.0,1.0,,,,,,,,,orange,cross
0.0,3.0,3.0,0.0,5.0,5.0,1097.712743000102,3.0,1.0,phase_2,go,850.0,900.0,1.0,,,,,,,,,magenta,triangle
0.0,8.0,4.0,1.0,5.0,5.0,1164.3282529998942,4.0,1.0,phase_2,stop,850.0,900.0,3.0,,,,,,,,,white,square
0.0,5.0,1.0,1.0,5.0,5.0,524.0870920001726,4.0,1.0,phase_2,stop,800.0,900.0,3.0,,,,,,,,,green,circle
0.0,3.0,3.0,0.0,6.0,6.0,486.7467000003671,4.0,1.0,phase_2,go,750.0,900.0,1.0,,,,,,,,,magenta,triangle
0.0,4.0,4.0,0.0,6.0,6.0,728.6738570001035,4.0,1.0,phase_2,go,750.0,900.0,1.0,,,,,,,,,orange,cross
0.0,7.0,3.0,1.0,6.0,6.0,607.6515169997947,4.0,1.0,phase_2,stop,750.0,900.0,3.0,,,,,,,,,cyan,hexagon
0.0,5.0,1.0,1.0,6.0,6.0,413.4262370002943,4.0,1.0,phase_2,stop,750.0,850.0,3.0,,,,,,,,,green,circle
0.0,4.0,4.0,0.0,5.0,5.0,926.2074539997228,4.0,1.0,phase_2,go,750.0,800.0,1.0,,,,,,,,,orange,cross
0.0,6.0,2.0,1.0,6.0,6.0,402.5952479996704,4.0,1.0,phase_2,stop,750.0,800.0,3.0,,,,,,,,,yellow,I
0.0,5.0,1.0,1.0,6.0,0.0,0.0,4.0,1.0,phase_2,stop,750.0,750.0,4.0,,,,,,,,,green,circle
0.0,6.0,2.0,1.0,5.0,5.0,954.191278000053,4.0,1.0,phase_2,stop,750.0,800.0,3.0,,,,,,,,,yellow,I
0.0,3.0,3.0,0.0,5.0,5.0,1209.4472260000655,4.0,1.0,phase_2,go,700.0,800.0,1.0,,,,,,,,,magenta,triangle
0.0,6.0,2.0,1.0,6.0,6.0,934.149895000246,4.0,1.0,phase_2,stop,700.0,800.0,3.0,,,,,,,,,yellow,I
0.0,3.0,3.0,0.0,5.0,5.0,1140.3793609997592,4.0,1.0,phase_2,go,700.0,750.0,1.0,,,,,,,,,magenta,triangle
0.0,1.0,1.0,0.0,5.0,5.0,1053.4354510000412,4.0,1.0,phase_2,go,700.0,750.0,1.0,,,,,,,,,blue,diamond
0.0,6.0,2.0,1.0,5.0,5.0,907.6961820001088,4.0,1.0,phase_2,go,700.0,750.0,1.0,,,,,,,,,yellow,I
0.0,8.0,4.0,1.0,6.0,6.0,851.012381000146,4.0,1.0,phase_2,stop,700.0,750.0,3.0,,,,,,,,,white,square
0.0,1.0,1.0,0.0,5.0,5.0,888.8566240002547,4.0,1.0,phase_2,go,700.0,700.0,1.0,,,,,,,,,blue,diamond
0.0,3.0,3.0,0.0,5.0,5.0,1038.7663710002926,4.0,1.0,phase_2,go,700.0,700.0,1.0,,,,,,,,,magenta,triangle
0.0,8.0,4.0,1.0,6.0,6.0,951.3733870003308,4.0,1.0,phase_2,go,700.0,700.0,1.0,,,,,,,,,white,square
0.0,4.0,4.0,0.0,5.0,5.0,842.4187820000952,4.0,1.0,phase_2,go,700.0,700.0,1.0,,,,,,,,,orange,cross
0.0,5.0,1.0,1.0,5.0,5.0,742.238511999858,4.0,1.0,phase_2,stop,700.0,700.0,3.0,,,,,,,,,green,circle
0.0,3.0,3.0,0.0,6.0,6.0,290.5060369998864,4.0,1.0,phase_2,go,650.0,700.0,1.0,,,,,,,,,magenta,triangle
0.0,1.0,1.0,0.0,6.0,6.0,384.6833229999902,4.0,1.0,phase_2,go,650.0,700.0,1.0,,,,,,,,,blue,diamond
0.0,5.0,1.0,1.0,5.0,5.0,551.7817820000346,4.0,1.0,phase_2,stop,650.0,700.0,3.0,,,,,,,,,green,circle
0.0,6.0,2.0,1.0,5.0,5.0,1094.7371960000964,4.0,1.0,phase_2,go,600.0,700.0,1.0,,,,,,,,,yellow,I
0.0,7.0,3.0,1.0,6.0,6.0,802.0145719997345,4.0,1.0,phase_2,stop,600.0,700.0,3.0,,,,,,,,,cyan,hexagon
0.0,2.0,2.0,0.0,6.0,6.0,1102.8841289999036,4.0,1.0,phase_2,go,600.0,650.0,1.0,,,,,,,,,gray,flipped triangle
0.0,7.0,3.0,1.0,6.0,6.0,430.7328909999341,4.0,1.0,phase_2,stop,600.0,650.0,3.0,,,,,,,,,cyan,hexagon
0.0,6.0,2.0,1.0,6.0,0.0,0.0,4.0,1.0,phase_2,stop,600.0,600.0,4.0,,,,,,,,,yellow,I
0.0,3.0,3.0,0.0,5.0,5.0,475.6642950001151,4.0,1.0,phase_2,go,600.0,650.0,1.0,,,,,,,,,magenta,triangle
0.0,1.0,1.0,0.0,6.0,6.0,941.8465170001582,4.0,1.0,phase_2,go,600.0,650.0,1.0,,,,,,,,,blue,diamond
0.0,1.0,1.0,0.0,5.0,5.0,906.397995000134,4.0,1.0,phase_2,go,600.0,650.0,1.0,,,,,,,,,blue,diamond
0.0,1.0,1.0,0.0,5.0,5.0,784.8629770001025,4.0,1.0,phase_2,go,600.0,650.0,1.0,,,,,,,,,blue,diamond
0.0,2.0,2.0,0.0,5.0,5.0,382.3285509997731,4.0,1.0,phase_2,go,600.0,650.0,1.0,,,,,,,,,gray,flipped triangle
0.0,7.0,3.0,1.0,6.0,6.0,316.8866670002899,4.0,1.0,phase_2,stop,600.0,650.0,3.0,,,,,,,,,cyan,hexagon
0.0,3.0,3.0,0.0,6.0,6.0,860.6050339999456,4.0,1.0,phase_2,go,600.0,600.0,1.0,,,,,,,,,magenta,triangle
0.0,1.0,1.0,0.0,5.0,5.0,497.0748149999053,5.0,1.0,phase_2,go,600.0,600.0,1.0,,,,,,,,,blue,diamond
0.0,8.0,4.0,1.0,6.0,6.0,309.1797659999429,5.0,1.0,phase_2,stop,600.0,600.0,3.0,,,,,,,,,white,square
0.0,6.0,2.0,1.0,6.0,6.0,301.0424650001368,5.0,1.0,phase_2,stop,600.0,550.0,3.0,,,,,,,,,yellow,I
0.0,2.0,2.0,0.0,5.0,5.0,243.8283989999945,5.0,1.0,phase_2,go,600.0,500.0,1.0,,,,,,,,,gray,flipped triangle
0.0,8.0,4.0,1.0,6.0,0.0,0.0,5.0,1.0,phase_2,stop,600.0,500.0,4.0,,,,,,,,,white,square
0.0,8.0,4.0,1.0,6.0,6.0,979.4443790001424,5.0,1.0,phase_2,go,600.0,550.0,1.0,,,,,,,,,white,square
0.0,3.0,3.0,0.0,6.0,6.0,797.0575600002121,5.0,1.0,phase_2,go,600.0,550.0,1.0,,,,,,,,,magenta,triangle
0.0,7.0,3.0,1.0,5.0,5.0,252.19871099989177,5.0,1.0,phase_2,go,600.0,550.0,1.0,,,,,,,,,cyan,hexagon
0.0,6.0,2.0,1.0,6.0,6.0,623.9820379996672,5.0,1.0,phase_2,stop,600.0,550.0,3.0,,,,,,,,,yellow,I
0.0,7.0,3.0,1.0,5.0,5.0,326.2877310003205,5.0,1.0,phase_2,stop,600.0,500.0,3.0,,,,,,,,,cyan,hexagon
0.0,3.0,3.0,0.0,5.0,5.0,889.1749199997321,5.0,1.0,phase_2,go,550.0,500.0,1.0,,,,,,,,,magenta,triangle
0.0,3.0,3.0,0.0,6.0,6.0,711.9919739998295,5.0,1.0,phase_2,go,550.0,500.0,1.0,,,,,,,,,magenta,triangle
0.0,8.0,4.0,1.0,5.0,0.0,0.0,5.0,1.0,phase_2,stop,550.0,500.0,4.0,,,,,,,,,white,square
0.0,6.0,2.0,1.0,5.0,5.0,373.1876189999639,5.0,1.0,phase_2,stop,600.0,500.0,3.0,,,,,,,,,yellow,I
0.0,4.0,4.0,0.0,5.0,5.0,833.937672999582,5.0,1.0,phase_2,go,550.0,500.0,1.0,,,,,,,,,orange,cross
0.0,3.0,3.0,0.0,5.0,5.0,948.6838330003592,5.0,1.0,phase_2,go,550.0,500.0,1.0,,,,,,,,,magenta,triangle
0.0,1.0,1.0,0.0,6.0,6.0,804.2613620000338,5.0,1.0,phase_2,go,550.0,500.0,1.0,,,,,,,,,blue,diamond
0.0,8.0,4.0,1.0,6.0,6.0,346.013660999688,5.0,1.0,phase_2,stop,550.0,500.0,3.0,,,,,,,,,white,square
0.0,7.0,3.0,1.0,5.0,5.0,590.666229999897,5.0,1.0,phase_2,stop,550.0,450.0,3.0,,,,,,,,,cyan,hexagon
0.0,2.0,2.0,0.0,6.0,6.0,795.2444219999961,5.0,1.0,phase_2,go,500.0,450.0,1.0,,,,,,,,,gray,flipped triangle
0.0,2.0,2.0,0.0,6.0,6.0,894.2651810002644,5.0,1.0,phase_2,go,500.0,450.0,1.0,,,,,,,,,gray,flipped triangle
0.0,6.0,2.0,1.0,6.0,5.0,966.835815000195,5.0,1.0,phase_2,stop,500.0,450.0,3.0,,,,,,,,,yellow,I
0.0,2.0,2.0,0.0,5.0,5.0,850.7849190000343,5.0,1.0,phase_2,go,500.0,400.0,1.0,,,,,,,,,gray,flipped triangle
0.0,3.0,3.0,0.0,6.0,6.0,812.566944000082,5.0,1.0,phase_2,go,500.0,400.0,1.0,,,,,,,,,magenta,triangle
0.0,2.0,2.0,0.0,6.0,6.0,811.933111000144,5.0,1.0,phase_2,go,500.0,400.0,1.0,,,,,,,,,gray,flipped triangle
0.0,1.0,1.0,0.0,5.0,5.0,645.1696759995684,5.0,1.0,phase_2,go,500.0,400.0,1.0,,,,,,,,,blue,diamond
0.0,8.0,4.0,1.0,6.0,0.0,0.0,5.0,1.0,phase_2,stop,500.0,400.0,4.0,,,,,,,,,white,square
0.0,4.0,4.0,0.0,5.0,5.0,458.0315739999605,5.0,1.0,phase_2,go,500.0,450.0,1.0,,,,,,,,,orange,cross
0.0,2.0,2.0,0.0,6.0,6.0,592.0959830000356,5.0,1.0,phase_2,go,500.0,450.0,1.0,,,,,,,,,gray,flipped triangle
0.0,3.0,3.0,0.0,5.0,5.0,346.4120229996297,5.0,1.0,phase_2,go,500.0,450.0,1.0,,,,,,,,,magenta,triangle
0.0,4.0,4.0,0.0,5.0,5.0,700.8598530001109,5.0,1.0,phase_2,go,500.0,450.0,1.0,,,,,,,,,orange,cross
0.0,1.0,1.0,0.0,6.0,6.0,725.0803970000561,5.0,1.0,phase_2,go,500.0,450.0,1.0,,,,,,,,,blue,diamond
0.0,3.0,3.0,0.0,6.0,6.0,309.0359219995662,5.0,1.0,phase_2,go,500.0,450.0,1.0,,,,,,,,,magenta,triangle
0.0,2.0,2.0,0.0,5.0,5.0,691.7594940000527,5.0,1.0,phase_2,go,500.0,450.0,1.0,,,,,,,,,gray,flipped triangle
0.0,1.0,1.0,0.0,5.0,5.0,394.2851629999495,5.0,1.0,phase_2,go,500.0,450.0,1.0,,,,,,,,,blue,diamond
0.0,8.0,4.0,1.0,5.0,5.0,290.98079000004867,5.0,1.0,phase_2,stop,500.0,450.0,3.0,,,,,,,,,white,square
0.0,5.0,1.0,1.0,5.0,5.0,699.9387109999589,6.0,1.0,phase_2,stop,450.0,450.0,3.0,,,,,,,,,green,circle
0.0,2.0,2.0,0.0,5.0,5.0,316.9840770001428,6.0,1.0,phase_2,go,400.0,450.0,1.0,,,,,,,,,gray,flipped triangle
0.0,8.0,4.0,1.0,6.0,6.0,270.3770809998786,6.0,1.0,phase_2,go,400.0,450.0,1.0,,,,,,,,,white,square
0.0,5.0,1.0,1.0,6.0,6.0,346.8520179999359,6.0,1.0,phase_2,stop,400.0,450.0,3.0,,,,,,,,,green,circle
0.0,2.0,2.0,0.0,5.0,5.0,793.1093480001437,6.0,1.0,phase_2,go,400.0,400.0,1.0,,,,,,,,,gray,flipped triangle
0.0,6.0,2.0,1.0,5.0,5.0,616.6154339998684,6.0,1.0,phase_2,go,400.0,400.0,1.0,,,,,,,,,yellow,I
0.0,4.0,4.0,0.0,5.0,5.0,689.8193479996735,6.0,1.0,phase_2,go,400.0,400.0,1.0,,,,,,,,,orange,cross
0.0,4.0,4.0,0.0,5.0,5.0,635.1718900000378,6.0,1.0,phase_2,go,400.0,400.0,1.0,,,,,,,,,orange,cross
0.0,8.0,4.0,1.0,5.0,5.0,345.6590949999736,6.0,1.0,phase_2,stop,400.0,400.0,3.0,,,,,,,,,white,square
0.0,7.0,3.0,1.0,5.0,5.0,290.6378339998809,6.0,1.0,phase_2,go,350.0,400.0,1.0,,,,,,,,,cyan,hexagon
0.0,5.0,1.0,1.0,6.0,6.0,299.2574019999665,6.0,1.0,phase_2,stop,350.0,400.0,3.0,,,,,,,,,green,circle
0.0,5.0,1.0,1.0,6.0,6.0,290.6815269998333,6.0,1.0,phase_2,stop,350.0,350.0,3.0,,,,,,,,,green,circle
0.0,8.0,4.0,1.0,5.0,5.0,297.8510880002432,6.0,1.0,phase_2,stop,350.0,300.0,3.0,,,,,,,,,white,square
0.0,4.0,4.0,0.0,5.0,5.0,290.1061249999657,6.0,1.0,phase_2,go,300.0,300.0,1.0,,,,,,,,,orange,cross
0.0,1.0,1.0,0.0,5.0,5.0,309.0961870002502,6.0,1.0,phase_2,go,300.0,300.0,1.0,,,,,,,,,blue,diamond
0.0,7.0,3.0,1.0,6.0,6.0,271.4905340003497,6.0,1.0,phase_2,stop,300.0,300.0,3.0,,,,,,,,,cyan,hexagon
0.0,6.0,2.0,1.0,6.0,0.0,0.0,6.0,1.0,phase_2,stop,300.0,250.0,4.0,,,,,,,,,yellow,I
0.0,8.0,4.0,1.0,5.0,5.0,359.3973539996113,6.0,1.0,phase_2,stop,300.0,300.0,3.0,,,,,,,,,white,square
0.0,3.0,3.0,0.0,6.0,6.0,458.221291999962,6.0,1.0,phase_2,go,250.0,300.0,1.0,,,,,,,,,magenta,triangle
0.0,3.0,3.0,0.0,5.0,5.0,476.9973989996288,6.0,1.0,phase_2,go,250.0,300.0,1.0,,,,,,,,,magenta,triangle
0.0,1.0,1.0,0.0,6.0,6.0,646.1389080000117,6.0,1.0,phase_2,go,250.0,300.0,1.0,,,,,,,,,blue,diamond
0.0,6.0,2.0,1.0,5.0,5.0,606.3225620000594,6.0,1.0,phase_2,go,250.0,300.0,1.0,,,,,,,,,yellow,I
0.0,5.0,1.0,1.0,6.0,6.0,655.3323030002502,6.0,1.0,phase_2,go,250.0,300.0,1.0,,,,,,,,,green,circle
0.0,7.0,3.0,1.0,5.0,0.0,0.0,6.0,1.0,phase_2,stop,250.0,300.0,4.0,,,,,,,,,cyan,hexagon
0.0,6.0,2.0,1.0,5.0,0.0,0.0,6.0,1.0,phase_2,stop,300.0,300.0,4.0,,,,,,,,,yellow,I
0.0,3.0,3.0,0.0,6.0,6.0,681.9883379998828,6.0,1.0,phase_2,go,350.0,300.0,1.0,,,,,,,,,magenta,triangle
0.0,2.0,2.0,0.0,5.0,5.0,578.8781509995715,6.0,1.0,phase_2,go,350.0,300.0,1.0,,,,,,,,,gray,flipped triangle
0.0,4.0,4.0,0.0,5.0,5.0,317.6712370000132,6.0,1.0,phase_2,go,350.0,300.0,1.0,,,,,,,,,orange,cross
0.0,2.0,2.0,0.0,6.0,6.0,544.1573870002685,6.0,1.0,phase_2,go,350.0,300.0,1.0,,,,,,,,,gray,flipped triangle
0.0,8.0,4.0,1.0,6.0,6.0,342.7194809996763,6.0,1.0,phase_2,stop,350.0,300.0,3.0,,,,,,,,,white,square
0.0,2.0,2.0,0.0,5.0,5.0,570.3516409998883,6.0,1.0,phase_2,go,350.0,250.0,1.0,,,,,,,,,gray,flipped triangle
0.0,4.0,4.0,0.0,6.0,6.0,420.2727510000841,6.0,1.0,phase_2,go,350.0,250.0,1.0,,,,,,,,,orange,cross
0.0,2.0,2.0,0.0,6.0,6.0,326.9461529998807,6.0,1.0,phase_2,go,350.0,250.0,1.0,,,,,,,,,gray,flipped triangle
0.0,1.0,1.0,0.0,6.0,6.0,307.7241619998858,6.0,1.0,phase_2,go,350.0,250.0,1.0,,,,,,,,,blue,diamond
0.0,8.0,4.0,1.0,5.0,5.0,299.3262740001228,6.0,1.0,phase_2,stop,350.0,250.0,3.0,,,,,,,,,white,square
0.0,7.0,3.0,1.0,5.0,5.0,262.3389280001902,6.0,1.0,phase_2,stop,300.0,250.0,3.0,,,,,,,,,cyan,hexagon
0.0,1.0,1.0,0.0,6.0,6.0,531.3054209996153,7.0,1.0,phase_2,go,250.0,250.0,1.0,,,,,,,,,blue,diamond
0.0,7.0,3.0,1.0,5.0,5.0,285.9291220001978,7.0,1.0,phase_2,stop,250.0,250.0,3.0,,,,,,,,,cyan,hexagon
0.0,5.0,1.0,1.0,6.0,6.0,294.8049079996053,7.0,1.0,phase_2,stop,200.0,250.0,3.0,,,,,,,,,green,circle
0.0,4.0,4.0,0.0,6.0,6.0,328.1027430002723,7.0,1.0,phase_2,go,200.0,200.0,1.0,,,,,,,,,orange,cross
0.0,2.0,2.0,0.0,6.0,6.0,317.5897799997074,7.0,1.0,phase_2,go,200.0,200.0,1.0,,,,,,,,,gray,flipped triangle
0.0,5.0,1.0,1.0,5.0,5.0,234.1746449997117,7.0,1.0,phase_2,go,200.0,200.0,1.0,,,,,,,,,green,circle
0.0,8.0,4.0,1.0,5.0,5.0,467.73999800007,7.0,1.0,phase_2,stop,200.0,200.0,3.0,,,,,,,,,white,square
0.0,3.0,3.0,0.0,5.0,5.0,581.4601689999108,7.0,1.0,phase_2,go,150.0,200.0,1.0,,,,,,,,,magenta,triangle
0.0,7.0,3.0,1.0,5.0,0.0,0.0,7.0,1.0,phase_2,stop,150.0,200.0,4.0,,,,,,,,,cyan,hexagon
0.0,6.0,2.0,1.0,5.0,0.0,0.0,7.0,1.0,phase_2,stop,200.0,200.0,4.0,,,,,,,,,yellow,I
0.0,3.0,3.0,0.0,6.0,6.0,466.8474869999954,7.0,1.0,phase_2,go,250.0,200.0,1.0,,,,,,,,,magenta,triangle
0.0,4.0,4.0,0.0,6.0,6.0,441.3008100000297,7.0,1.0,phase_2,go,250.0,200.0,1.0,,,,,,,,,orange,cross
0.0,8.0,4.0,1.0,6.0,6.0,550.6239299998015,7.0,1.0,phase_2,go,250.0,200.0,1.0,,,,,,,,,white,square
0.0,3.0,3.0,0.0,5.0,5.0,570.0194729997747,7.0,1.0,phase_2,go,250.0,200.0,1.0,,,,,,,,,magenta,triangle
0.0,1.0,1.0,0.0,5.0,5.0,411.5852800000539,7.0,1.0,phase_2,go,250.0,200.0,1.0,,,,,,,,,blue,diamond
0.0,4.0,4.0,0.0,5.0,5.0,572.3045820000152,7.0,1.0,phase_2,go,250.0,200.0,1.0,,,,,,,,,orange,cross
0.0,4.0,4.0,0.0,6.0,6.0,511.93971100019553,7.0,1.0,phase_2,go,250.0,200.0,1.0,,,,,,,,,orange,cross
0.0,1.0,1.0,0.0,6.0,6.0,504.2039640002258,7.0,1.0,phase_2,go,250.0,200.0,1.0,,,,,,,,,blue,diamond
0.0,6.0,2.0,1.0,5.0,5.0,593.8128409998171,7.0,1.0,phase_2,go,250.0,200.0,1.0,,,,,,,,,yellow,I
0.0,7.0,3.0,1.0,6.0,0.0,0.0,7.0,1.0,phase_2,stop,250.0,200.0,4.0,,,,,,,,,cyan,hexagon
0.0,6.0,2.0,1.0,5.0,0.0,0.0,7.0,1.0,phase_2,stop,250.0,250.0,4.0,,,,,,,,,yellow,I
0.0,5.0,1.0,1.0,6.0,6.0,522.4132409998674,7.0,1.0,phase_2,go,300.0,250.0,1.0,,,,,,,,,green,circle
0.0,6.0,2.0,1.0,6.0,6.0,396.6518360002737,7.0,1.0,phase_2,stop,300.0,250.0,3.0,,,,,,,,,yellow,I
0.0,3.0,3.0,0.0,6.0,6.0,484.6132790003139,7.0,1.0,phase_2,go,300.0,200.0,1.0,,,,,,,,,magenta,triangle
0.0,1.0,1.0,0.0,5.0,5.0,401.5001610000581,7.0,1.0,phase_2,go,300.0,200.0,1.0,,,,,,,,,blue,diamond
0.0,4.0,4.0,0.0,6.0,6.0,505.54650300000503,7.0,1.0,phase_2,go,300.0,200.0,1.0,,,,,,,,,orange,cross
0.0,5.0,1.0,1.0,5.0,0.0,0.0,7.0,1.0,phase_2,stop,300.0,200.0,4.0,,,,,,,,,green,circle
0.0,3.0,3.0,0.0,5.0,5.0,671.328148000157,7.0,1.0,phase_2,go,350.0,200.0,1.0,,,,,,,,,magenta,triangle
0.0,5.0,1.0,1.0,6.0,0.0,0.0,7.0,1.0,phase_2,stop,350.0,200.0,4.0,,,,,,,,,green,circle
0.0,8.0,4.0,1.0,6.0,6.0,523.1440180000391,7.0,1.0,phase_2,go,350.0,250.0,1.0,,,,,,,,,white,square
0.0,4.0,4.0,0.0,5.0,5.0,363.896652999756,7.0,1.0,phase_2,go,350.0,250.0,1.0,,,,,,,,,orange,cross
0.0,6.0,2.0,1.0,5.0,0.0,0.0,7.0,1.0,phase_2,stop,350.0,250.0,4.0,,,,,,,,,yellow,I
0.0,3.0,3.0,0.0,6.0,6.0,522.5079709998681,7.0,1.0,phase_2,go,400.0,250.0,1.0,,,,,,,,,magenta,triangle
0.0,7.0,3.0,1.0,5.0,5.0,354.6079569996436,7.0,1.0,phase_2,stop,400.0,250.0,3.0,,,,,,,,,cyan,hexagon
0.0,1.0,1.0,0.0,6.0,6.0,326.9222410003749,7.0,1.0,phase_2,go,350.0,250.0,1.0,,,,,,,,,blue,diamond
0.0,4.0,4.0,0.0,6.0,6.0,663.3091250000689,7.0,1.0,phase_2,go,350.0,250.0,1.0,,,,,,,,,orange,cross
0.0,5.0,1.0,1.0,5.0,5.0,604.4133199998214,8.0,1.0,phase_2,stop,350.0,250.0,3.0,,,,,,,,,green,circle
0.0,4.0,4.0,0.0,5.0,5.0,328.3585059998586,8.0,1.0,phase_2,go,300.0,250.0,1.0,,,,,,,,,orange,cross
0.0,4.0,4.0,0.0,5.0,5.0,329.9587960000281,8.0,1.0,phase_2,go,300.0,250.0,1.0,,,,,,,,,orange,cross
0.0,2.0,2.0,0.0,5.0,5.0,597.1841430000495,8.0,1.0,phase_2,go,300.0,250.0,1.0,,,,,,,,,gray,flipped triangle
0.0,1.0,1.0,0.0,6.0,6.0,550.9014579997711,8.0,1.0,phase_2,go,300.0,250.0,1.0,,,,,,,,,blue,diamond
0.0,1.0,1.0,0.0,6.0,6.0,291.1732929997015,8.0,1.0,phase_2,go,300.0,250.0,1.0,,,,,,,,,blue,diamond
0.0,5.0,1.0,1.0,5.0,5.0,485.5450539998855,8.0,1.0,phase_2,go,300.0,250.0,1.0,,,,,,,,,green,circle
0.0,7.0,3.0,1.0,6.0,6.0,393.2927340001697,8.0,1.0,phase_2,stop,300.0,250.0,3.0,,,,,,,,,cyan,hexagon
0.0,4.0,4.0,0.0,6.0,6.0,487.2715480000806,8.0,1.0,phase_2,go,300.0,200.0,1.0,,,,,,,,,orange,cross
0.0,4.0,4.0,0.0,6.0,6.0,392.1564910001507,8.0,1.0,phase_2,go,300.0,200.0,1.0,,,,,,,,,orange,cross
0.0,6.0,2.0,1.0,6.0,0.0,0.0,8.0,1.0,phase_2,stop,300.0,200.0,4.0,,,,,,,,,yellow,I
0.0,4.0,4.0,0.0,6.0,6.0,475.6501269998807,8.0,1.0,phase_2,go,300.0,250.0,1.0,,,,,,,,,orange,cross
0.0,4.0,4.0,0.0,6.0,6.0,364.7346780003317,8.0,1.0,phase_2,go,300.0,250.0,1.0,,,,,,,,,orange,cross
0.0,2.0,2.0,0.0,5.0,5.0,549.8202240000865,8.0,1.0,phase_2,go,300.0,250.0,1.0,,,,,,,,,gray,flipped triangle
0.0,5.0,1.0,1.0,5.0,5.0,421.7543710001337,8.0,1.0,phase_2,stop,300.0,250.0,3.0,,,,,,,,,green,circle
0.0,3.0,3.0,0.0,5.0,5.0,503.652792000139,8.0,1.0,phase_2,go,250.0,250.0,1.0,,,,,,,,,magenta,triangle
0.0,1.0,1.0,0.0,6.0,6.0,504.5807720002813,8.0,1.0,phase_2,go,250.0,250.0,1.0,,,,,,,,,blue,diamond
0.0,8.0,4.0,1.0,6.0,0.0,0.0,8.0,1.0,phase_2,stop,250.0,250.0,4.0,,,,,,,,,white,square
0.0,8.0,4.0,1.0,5.0,5.0,452.3553610001727,8.0,1.0,phase_2,go,250.0,300.0,1.0,,,,,,,,,white,square
0.0,7.0,3.0,1.0,6.0,6.0,402.0542339999338,8.0,1.0,phase_2,stop,250.0,300.0,3.0,,,,,,,,,cyan,hexagon
0.0,7.0,3.0,1.0,6.0,0.0,0.0,8.0,1.0,phase_2,stop,250.0,250.0,4.0,,,,,,,,,cyan,hexagon
0.0,2.0,2.0,0.0,6.0,6.0,540.5077659997914,8.0,1.0,phase_2,go,250.0,300.0,1.0,,,,,,,,,gray,flipped triangle
0.0,5.0,1.0,1.0,6.0,0.0,0.0,8.0,1.0,phase_2,stop,250.0,300.0,4.0,,,,,,,,,green,circle
0.0,2.0,2.0,0.0,5.0,5.0,523.4317349995763,8.0,1.0,phase_2,go,250.0,350.0,1.0,,,,,,,,,gray,flipped triangle
0.0,8.0,4.0,1.0,5.0,5.0,373.7904039999193,8.0,1.0,phase_2,go,250.0,350.0,1.0,,,,,,,,,white,square
0.0,6.0,2.0,1.0,6.0,0.0,0.0,8.0,1.0,phase_2,stop,250.0,350.0,4.0,,,,,,,,,yellow,I
0.0,5.0,1.0,1.0,6.0,6.0,580.6787980000081,8.0,1.0,phase_2,stop,250.0,400.0,3.0,,,,,,,,,green,circle
0.0,1.0,1.0,0.0,5.0,5.0,579.8182569997152,8.0,1.0,phase_2,go,250.0,350.0,1.0,,,,,,,,,blue,diamond
0.0,3.0,3.0,0.0,5.0,5.0,569.7261929999513,8.0,1.0,phase_2,go,250.0,350.0,1.0,,,,,,,,,magenta,triangle
0.0,5.0,1.0,1.0,6.0,0.0,0.0,8.0,1.0,phase_2,stop,250.0,350.0,4.0,,,,,,,,,green,circle
0.0,3.0,3.0,0.0,5.0,5.0,568.3275189994674,8.0,1.0,phase_2,go,250.0,400.0,1.0,,,,,,,,,magenta,triangle
0.0,3.0,3.0,0.0,6.0,6.0,559.6697970004243,8.0,1.0,phase_2,go,250.0,400.0,1.0,,,,,,,,,magenta,triangle
0.0,1.0,1.0,0.0,6.0,6.0,635.7829540002058,8.0,1.0,phase_2,go,250.0,400.0,1.0,,,,,,,,,blue,diamond
0.0,2.0,2.0,0.0,5.0,5.0,551.1533380004039,8.0,1.0,phase_2,go,250.0,400.0,1.0,,,,,,,,,gray,flipped triangle
0.0,1.0,1.0,0.0,5.0,5.0,372.4047519999658,8.0,1.0,phase_2,go,250.0,400.0,1.0,,,,,,,,,blue,diamond
0.0,5.0,1.0,1.0,5.0,5.0,402.9721110000537,8.0,1.0,phase_2,stop,250.0,400.0,3.0,,,,,,,,,green,circle
0.0,7.0,3.0,1.0,7.0,4.0,1433.2402150002963,1.0,1.0,phase_3,,,,,810.0,6.0,675.0,540.0,135.0,810.0,405.0,270.0,cyan,hexagon
0.0,5.0,1.0,1.0,7.0,6.0,2987.0149959997434,1.0,1.0,phase_3,,,,,960.0,5.0,768.0,576.0,384.0,192.0,1152.0,960.0,green,circle
0.0,2.0,2.0,0.0,7.0,4.0,3182.012835000023,1.0,1.0,phase_3,,,,,173.0,1.0,1038.0,865.0,692.0,173.0,519.0,346.0,gray,flipped triangle
0.0,3.0,3.0,0.0,7.0,4.0,1629.1925109999283,1.0,1.0,phase_3,,,,,540.0,4.0,675.0,135.0,405.0,540.0,270.0,810.0,magenta,triangle
0.0,7.0,3.0,1.0,7.0,2.0,2332.814252999924,1.0,1.0,phase_3,,,,,924.0,6.0,154.0,924.0,308.0,770.0,462.0,616.0,cyan,hexagon
0.0,5.0,1.0,1.0,7.0,3.0,1868.7640889993415,1.0,1.0,phase_3,,,,,116.0,1.0,696.0,464.0,116.0,348.0,580.0,232.0,green,circle
0.0,8.0,4.0,1.0,7.0,3.0,2667.3632450001605,1.0,1.0,phase_3,,,,,960.0,5.0,768.0,576.0,960.0,1152.0,384.0,192.0,white,square
0.0,1.0,1.0,0.0,7.0,6.0,2145.4500910003844,1.0,1.0,phase_3,,,,,1038.0,6.0,346.0,865.0,519.0,173.0,692.0,1038.0,blue,diamond
0.0,7.0,3.0,1.0,7.0,5.0,2218.61317999992,1.0,1.0,phase_3,,,,,519.0,3.0,865.0,1038.0,692.0,173.0,519.0,346.0,cyan,hexagon
0.0,4.0,4.0,0.0,7.0,3.0,2573.033857000155,1.0,1.0,phase_3,,,,,692.0,4.0,519.0,865.0,692.0,1038.0,346.0,173.0,orange,cross
0.0,5.0,1.0,1.0,7.0,4.0,2235.946237999997,1.0,1.0,phase_3,,,,,192.0,1.0,576.0,768.0,960.0,192.0,1152.0,384.0,green,circle
0.0,8.0,4.0,1.0,7.0,5.0,1820.982757999445,1.0,1.0,phase_3,,,,,960.0,5.0,192.0,1152.0,576.0,768.0,960.0,384.0,white,square
0.0,7.0,3.0,1.0,7.0,6.0,1920.0421169998665,1.0,1.0,phase_3,,,,,576.0,3.0,768.0,960.0,384.0,1152.0,192.0,576.0,cyan,hexagon
0.0,1.0,1.0,0.0,7.0,4.0,1765.248650999638,1.0,1.0,phase_3,,,,,810.0,6.0,135.0,540.0,675.0,810.0,405.0,270.0,blue,diamond
0.0,3.0,3.0,0.0,7.0,3.0,1929.7774100004967,1.0,1.0,phase_3,,,,,960.0,5.0,768.0,1152.0,960.0,192.0,576.0,384.0,magenta,triangle
0.0,2.0,2.0,0.0,7.0,1.0,2852.591025000038,1.0,1.0,phase_3,,,,,576.0,3.0,576.0,384.0,1152.0,192.0,960.0,768.0,gray,flipped triangle
0.0,8.0,4.0,1.0,7.0,2.0,1640.921464999337,1.0,1.0,phase_3,,,,,1038.0,6.0,173.0,1038.0,346.0,519.0,865.0,692.0,white,square
0.0,5.0,1.0,1.0,7.0,1.0,2710.855879999144,1.0,1.0,phase_3,,,,,519.0,3.0,519.0,692.0,346.0,865.0,173.0,1038.0,green,circle
0.0,6.0,2.0,1.0,7.0,6.0,1457.326576000014,1.0,1.0,phase_3,,,,,1152.0,6.0,768.0,960.0,576.0,192.0,384.0,1152.0,yellow,I
0.0,5.0,1.0,1.0,7.0,5.0,1762.499303000368,1.0,1.0,phase_3,,,,,405.0,3.0,675.0,810.0,135.0,540.0,405.0,270.0,green,circle
0.0,2.0,2.0,0.0,7.0,4.0,1164.9685209995368,2.0,1.0,phase_3,,,,,346.0,2.0,692.0,519.0,1038.0,346.0,173.0,865.0,gray,flipped triangle
0.0,3.0,3.0,0.0,7.0,3.0,2746.5597999998863,2.0,1.0,phase_3,,,,,696.0,6.0,348.0,232.0,696.0,580.0,464.0,116.0,magenta,triangle
0.0,7.0,3.0,1.0,7.0,3.0,1699.4615359999443,2.0,1.0,phase_3,,,,,1038.0,6.0,865.0,692.0,1038.0,346.0,519.0,173.0,cyan,hexagon
0.0,3.0,3.0,0.0,7.0,5.0,1108.0656579997594,2.0,1.0,phase_3,,,,,173.0,1.0,346.0,1038.0,692.0,865.0,173.0,519.0,magenta,triangle
0.0,7.0,3.0,1.0,7.0,2.0,1024.8093800000788,2.0,1.0,phase_3,,,,,348.0,3.0,580.0,348.0,116.0,464.0,696.0,232.0,cyan,hexagon
0.0,2.0,2.0,0.0,7.0,2.0,1034.6575809999194,2.0,1.0,phase_3,,,,,116.0,1.0,348.0,116.0,464.0,696.0,580.0,232.0,gray,flipped triangle
0.0,6.0,2.0,1.0,7.0,6.0,1128.7668610002584,2.0,1.0,phase_3,,,,,1038.0,6.0,692.0,865.0,519.0,346.0,173.0,1038.0,yellow,I
0.0,5.0,1.0,1.0,7.0,3.0,1182.8349910001634,2.0,1.0,phase_3,,,,,810.0,6.0,270.0,540.0,810.0,135.0,675.0,405.0,green,circle
0.0,7.0,3.0,1.0,7.0,5.0,897.0275279998532,2.0,1.0,phase_3,,,,,192.0,1.0,384.0,768.0,1152.0,576.0,192.0,960.0,cyan,hexagon
0.0,7.0,3.0,1.0,7.0,5.0,924.7597479998147,2.0,1.0,phase_3,,,,,462.0,3.0,924.0,308.0,154.0,770.0,462.0,616.0,cyan,hexagon
0.0,5.0,1.0,1.0,7.0,5.0,996.7312420003508,2.0,1.0,phase_3,,,,,173.0,1.0,865.0,1038.0,692.0,346.0,173.0,519.0,green,circle
0.0,4.0,4.0,0.0,7.0,2.0,1911.5248279995285,2.0,1.0,phase_3,,,,,675.0,5.0,810.0,675.0,540.0,135.0,270.0,405.0,orange,cross
0.0,6.0,2.0,1.0,7.0,3.0,2429.839741000251,2.0,1.0,phase_3,,,,,696.0,6.0,348.0,232.0,696.0,580.0,116.0,464.0,yellow,I
0.0,6.0,2.0,1.0,7.0,1.0,1371.601599999849,2.0,1.0,phase_3,,,,,1152.0,6.0,1152.0,960.0,576.0,192.0,384.0,768.0,yellow,I
0.0,1.0,1.0,0.0,7.0,1.0,1754.874844999904,2.0,1.0,phase_3,,,,,696.0,6.0,696.0,116.0,580.0,464.0,232.0,348.0,blue,diamond
0.0,3.0,3.0,0.0,7.0,1.0,2003.7685559991587,2.0,1.0,phase_3,,,,,675.0,5.0,675.0,270.0,405.0,810.0,135.0,540.0,magenta,triangle
0.0,3.0,3.0,0.0,7.0,5.0,1542.602321000231,2.0,1.0,phase_3,,,,,692.0,4.0,865.0,1038.0,519.0,346.0,692.0,173.0,magenta,triangle
0.0,1.0,1.0,0.0,7.0,2.0,1263.5604739998598,2.0,1.0,phase_3,,,,,924.0,6.0,462.0,924.0,616.0,308.0,770.0,154.0,blue,diamond
0.0,1.0,1.0,0.0,7.0,1.0,1448.9568239996515,2.0,1.0,phase_3,,,,,810.0,6.0,810.0,270.0,540.0,675.0,135.0,405.0,blue,diamond
0.0,5.0,1.0,1.0,7.0,2.0,1604.9124129995107,2.0,1.0,phase_3,,,,,464.0,4.0,580.0,464.0,348.0,116.0,232.0,696.0,green,circle
0.0,3.0,3.0,0.0,7.0,5.0,1626.082965999558,3.0,1.0,phase_3,,,,,696.0,6.0,464.0,580.0,348.0,116.0,696.0,232.0,magenta,triangle
0.0,1.0,1.0,0.0,7.0,2.0,2450.4272450003555,3.0,1.0,phase_3,,,,,696.0,6.0,580.0,696.0,232.0,116.0,348.0,464.0,blue,diamond
0.0,2.0,2.0,0.0,7.0,2.0,1577.2963569997955,3.0,1.0,phase_3,,,,,135.0,1.0,270.0,135.0,540.0,405.0,675.0,810.0,gray,flipped triangle
0.0,6.0,2.0,1.0,7.0,6.0,1605.5482279998614,3.0,1.0,phase_3,,,,,810.0,6.0,540.0,135.0,270.0,405.0,675.0,810.0,yellow,I
0.0,8.0,4.0,1.0,7.0,4.0,1632.9741509998712,3.0,1.0,phase_3,,,,,770.0,5.0,308.0,154.0,462.0,770.0,924.0,616.0,white,square
0.0,4.0,4.0,0.0,7.0,3.0,2037.8682290001962,3.0,1.0,phase_3,,,,,616.0,4.0,770.0,154.0,616.0,308.0,924.0,462.0,orange,cross
0.0,4.0,4.0,0.0,7.0,3.0,1238.5428480001792,3.0,1.0,phase_3,,,,,692.0,4.0,865.0,173.0,692.0,346.0,519.0,1038.0,orange,cross
0.0,3.0,3.0,0.0,7.0,6.0,1816.612401000384,3.0,1.0,phase_3,,,,,924.0,6.0,308.0,462.0,154.0,770.0,616.0,924.0,magenta,triangle
0.0,1.0,1.0,0.0,7.0,3.0,1217.047341999205,3.0,1.0,phase_3,,,,,960.0,5.0,1152.0,384.0,960.0,768.0,576.0,192.0,blue,diamond
0.0,2.0,2.0,0.0,7.0,5.0,858.082122000269,3.0,1.0,phase_3,,,,,135.0,1.0,405.0,675.0,810.0,540.0,135.0,270.0,gray,flipped triangle
0.0,3.0,3.0,0.0,7.0,6.0,1421.7743159997551,3.0,1.0,phase_3,,,,,770.0,5.0,616.0,462.0,308.0,154.0,924.0,770.0,magenta,triangle
0.0,6.0,2.0,1.0,7.0,3.0,1588.022219000777,3.0,1.0,phase_3,,,,,675.0,5.0,810.0,135.0,675.0,540.0,270.0,405.0,yellow,I
0.0,8.0,4.0,1.0,7.0,5.0,1638.1812500003434,3.0,1.0,phase_3,,,,,616.0,4.0,770.0,154.0,924.0,462.0,616.0,308.0,white,square
0.0,2.0,2.0,0.0,7.0,5.0,2111.950092999905,3.0,1.0,phase_3,,,,,308.0,2.0,154.0,924.0,616.0,770.0,308.0,462.0,gray,flipped triangle
0.0,4.0,4.0,0.0,7.0,6.0,1153.5335910002686,3.0,1.0,phase_3,,,,,770.0,5.0,154.0,308.0,462.0,924.0,616.0,770.0,orange,cross
0.0,8.0,4.0,1.0,7.0,2.0,1763.0786810004793,3.0,1.0,phase_3,,,,,696.0,6.0,464.0,696.0,348.0,580.0,116.0,232.0,white,square
0.0,4.0,4.0,0.0,7.0,1.0,1557.719059000192,3.0,1.0,phase_3,,,,,810.0,6.0,810.0,135.0,270.0,540.0,675.0,405.0,orange,cross
0.0,2.0,2.0,0.0,7.0,2.0,1604.9638080003206,3.0,1.0,phase_3,,,,,696.0,6.0,464.0,696.0,116.0,580.0,232.0,348.0,gray,flipped triangle
0.0,8.0,4.0,1.0,7.0,1.0,1653.224962999957,3.0,1.0,phase_3,,,,,810.0,6.0,810.0,540.0,135.0,675.0,270.0,405.0,white,square
0.0,8.0,4.0,1.0,7.0,2.0,1006.4606320001983,3.0,1.0,phase_3,,,,,1038.0,6.0,346.0,1038.0,173.0,692.0,519.0,865.0,white,square
0.0,6.0,2.0,1.0,7.0,2.0,1154.6954989998994,4.0,1.0,phase_3,,,,,770.0,5.0,308.0,770.0,616.0,154.0,462.0,924.0,yellow,I
0.0,7.0,3.0,1.0,7.0,4.0,712.4682069998016,4.0,1.0,phase_3,,,,,675.0,5.0,135.0,540.0,810.0,675.0,405.0,270.0,cyan,hexagon
0.0,8.0,4.0,1.0,7.0,2.0,1309.965005999402,4.0,1.0,phase_3,,,,,270.0,2.0,675.0,270.0,810.0,405.0,540.0,135.0,white,square
0.0,3.0,3.0,0.0,7.0,2.0,1686.3343710001573,4.0,1.0,phase_3,,,,,192.0,1.0,384.0,192.0,960.0,1152.0,576.0,768.0,magenta,triangle
0.0,1.0,1.0,0.0,7.0,2.0,1851.8488170002456,4.0,1.0,phase_3,,,,,1038.0,6.0,692.0,1038.0,865.0,173.0,346.0,519.0,blue,diamond
0.0,4.0,4.0,0.0,7.0,2.0,1762.3689839992949,4.0,1.0,phase_3,,,,,696.0,6.0,348.0,696.0,580.0,116.0,232.0,464.0,orange,cross
0.0,5.0,1.0,1.0,7.0,3.0,1824.083876000259,4.0,1.0,phase_3,,,,,462.0,3.0,308.0,616.0,462.0,924.0,770.0,154.0,green,circle
0.0,8.0,4.0,1.0,7.0,5.0,1928.4735219998763,4.0,1.0,phase_3,,,,,696.0,6.0,464.0,580.0,348.0,116.0,696.0,232.0,white,square
0.0,6.0,2.0,1.0,7.0,4.0,1227.563071000077,4.0,1.0,phase_3,,,,,1038.0,6.0,173.0,519.0,865.0,1038.0,692.0,346.0,yellow,I
0.0,2.0,2.0,0.0,7.0,5.0,1052.0571659999405,4.0,1.0,phase_3,,,,,192.0,1.0,768.0,1152.0,384.0,960.0,192.0,576.0,gray,flipped triangle
0.0,4.0,4.0,0.0,7.0,5.0,1230.7251140000517,4.0,1.0,phase_3,,,,,696.0,6.0,464.0,116.0,232.0,348.0,696.0,580.0,orange,cross
0.0,2.0,2.0,0.0,7.0,5.0,991.0745429997404,4.0,1.0,phase_3,,,,,154.0,1.0,924.0,616.0,770.0,462.0,154.0,308.0,gray,flipped triangle
0.0,1.0,1.0,0.0,7.0,1.0,1248.06048299979,4.0,1.0,phase_3,,,,,1152.0,6.0,1152.0,192.0,768.0,576.0,384.0,960.0,blue,diamond
0.0,6.0,2.0,1.0,7.0,4.0,2440.8758129993657,4.0,1.0,phase_3,,,,,696.0,6.0,580.0,348.0,464.0,696.0,232.0,116.0,yellow,I
0.0,6.0,2.0,1.0,7.0,3.0,1521.095236000292,4.0,1.0,phase_3,,,,,616.0,4.0,462.0,154.0,616.0,308.0,924.0,770.0,yellow,I
0.0,5.0,1.0,1.0,7.0,4.0,1203.8279289999991,4.0,1.0,phase_3,,,,,154.0,1.0,770.0,308.0,462.0,154.0,616.0,924.0,green,circle
0.0,1.0,1.0,0.0,7.0,4.0,1825.583157999972,4.0,1.0,phase_3,,,,,924.0,6.0,770.0,308.0,616.0,924.0,154.0,462.0,blue,diamond
0.0,4.0,4.0,0.0,7.0,1.0,1644.6014410003045,4.0,1.0,phase_3,,,,,1152.0,6.0,1152.0,768.0,576.0,192.0,384.0,960.0,orange,cross
0.0,7.0,3.0,1.0,7.0,3.0,2296.019119999982,4.0,1.0,phase_3,,,,,696.0,6.0,580.0,232.0,696.0,116.0,464.0,348.0,cyan,hexagon
0.0,4.0,4.0,0.0,7.0,3.0,944.8956379992524,4.0,1.0,phase_3,,,,,1152.0,6.0,576.0,768.0,1152.0,960.0,384.0,192.0,orange,cross
