raw_reward_magnitude,stim_reward,stepwise_reward_magnitude,paired_with_stopping,stim_location,response,reaction_time,block,num_trial_presentations,which_phase,stop_signal_trial_type,left_SSD,right_SSD,accuracy,chosen_bidding_amount,chosen_bidding_level,possible_bid_1,possible_bid_2,possible_bid_3,possible_bid_4,possible_bid_5,possible_bid_6,color_text,shape_text
657.0,3.0,3.0,0.0,1.0,1.0,605.5054690004908,1.0,1.0,phase_1,,,,,,,,,,,,,gray,hexagon
318.0,2.0,2.0,0.0,2.0,2.0,315.3292440001678,1.0,1.0,phase_1,,,,,,,,,,,,,green,circle
305.0,2.0,2.0,0.0,2.0,2.0,383.8640369995119,1.0,2.0,phase_1,,,,,,,,,,,,,green,circle
1280.0,8.0,4.0,1.0,1.0,1.0,346.9118969987903,1.0,1.0,phase_1,,,,,,,,,,,,,cyan,cross
309.0,6.0,2.0,1.0,4.0,4.0,300.4310729993449,1.0,1.0,phase_1,,,,,,,,,,,,,orange,square
0.0,8.0,0.0,1.0,4.0,4.0,386.4132239996252,1.0,1.0,phase_1,,,,,,,,,,,,,cyan,cross
1283.0,4.0,4.0,0.0,4.0,4.0,375.4828649998671,1.0,1.0,phase_1,,,,,,,,,,,,,magenta,triangle
141.0,1.0,1.0,0.0,1.0,1.0,328.429387000142,1.0,1.0,phase_1,,,,,,,,,,,,,yellow,flipped triangle
0.0,4.0,0.0,0.0,2.0,2.0,384.998274001191,1.0,1.0,phase_1,,,,,,,,,,,,,magenta,triangle
339.0,6.0,2.0,1.0,1.0,1.0,386.4054850000684,1.0,1.0,phase_1,,,,,,,,,,,,,orange,square
1311.0,4.0,4.0,0.0,1.0,1.0,291.9540460006828,1.0,1.0,phase_1,,,,,,,,,,,,,magenta,triangle
346.0,2.0,2.0,0.0,3.0,3.0,386.3170639997406,1.0,1.0,phase_1,,,,,,,,,,,,,green,circle
0.0,1.0,0.0,0.0,3.0,3.0,330.1512569996703,1.0,1.0,phase_1,,,,,,,,,,,,,yellow,flipped triangle
147.0,1.0,1.0,0.0,3.0,3.0,356.9887339999695,1.0,1.0,phase_1,,,,,,,,,,,,,yellow,flipped triangle
1283.0,8.0,4.0,1.0,1.0,1.0,291.3237559987465,1.0,1.0,phase_1,,,,,,,,,,,,,cyan,cross
0.0,2.0,0.0,0.0,4.0,4.0,329.6561980005208,1.0,1.0,phase_1,,,,,,,,,,,,,green,circle
1315.0,4.0,4.0,0.0,3.0,3.0,375.870895000844,1.0,1.0,phase_1,,,,,,,,,,,,,magenta,triangle
1298.0,4.0,4.0,0.0,4.0,4.0,347.5837400001182,1.0,1.0,phase_1,,,,,,,,,,,,,magenta,triangle
328.0,2.0,2.0,0.0,1.0,1.0,338.5586219992547,1.0,1.0,phase_1,,,,,,,,,,,,,green,circle
641.0,7.0,3.0,1.0,4.0,4.0,301.729084998442,1.0,1.0,phase_1,,,,,,,,,,,,,white,I
1288.0,8.0,4.0,1.0,1.0,1.0,356.9699019990366,1.0,1.0,phase_1,,,,,,,,,,,,,cyan,cross
315.0,6.0,2.0,1.0,3.0,3.0,329.1847170003166,1.0,1.0,phase_1,,,,,,,,,,,,,orange,square
653.0,7.0,3.0,1.0,1.0,1.0,396.3886589990579,1.0,1.0,phase_1,,,,,,,,,,,,,white,I
0.0,3.0,0.0,0.0,4.0,4.0,404.46807599983,1.0,1.0,phase_1,,,,,,,,,,,,,gray,hexagon
0.0,8.0,0.0,1.0,4.0,4.0,301.7943830000149,1.0,1.0,phase_1,,,,,,,,,,,,,cyan,cross
663.0,7.0,3.0,1.0,2.0,2.0,376.4532770001096,1.0,1.0,phase_1,,,,,,,,,,,,,white,I
0.0,5.0,0.0,1.0,3.0,3.0,339.2141059994173,1.0,1.0,phase_1,,,,,,,,,,,,,blue,diamond
304.0,2.0,2.0,0.0,2.0,2.0,479.5898940010374,1.0,1.0,phase_1,,,,,,,,,,,,,green,circle
645.0,7.0,3.0,1.0,4.0,4.0,318.0019440005708,1.0,1.0,phase_1,,,,,,,,,,,,,white,I
339.0,2.0,2.0,0.0,4.0,4.0,329.9662779991195,1.0,1.0,phase_1,,,,,,,,,,,,,green,circle
309.0,2.0,2.0,0.0,2.0,2.0,300.8298069999,1.0,1.0,phase_1,,,,,,,,,,,,,green,circle
651.0,3.0,3.0,0.0,2.0,2.0,347.1523940006591,1.0,1.0,phase_1,,,,,,,,,,,,,gray,hexagon
0.0,8.0,0.0,1.0,3.0,3.0,432.3150279997207,1.0,1.0,phase_1,,,,,,,,,,,,,cyan,cross
0.0,7.0,0.0,1.0,3.0,3.0,377.2650779992545,1.0,1.0,phase_1,,,,,,,,,,,,,white,I
323.0,2.0,2.0,0.0,4.0,4.0,319.7485089986003,1.0,1.0,phase_1,,,,,,,,,,,,,green,circle
325.0,2.0,2.0,0.0,1.0,1.0,374.6861449999414,1.0,1.0,phase_1,,,,,,,,,,,,,green,circle
0.0,7.0,0.0,1.0,4.0,4.0,337.1296840014111,1.0,1.0,phase_1,,,,,,,,,,,,,white,I
1299.0,8.0,4.0,1.0,3.0,3.0,357.2679389999393,1.0,1.0,phase_1,,,,,,,,,,,,,cyan,cross
176.0,1.0,1.0,0.0,4.0,4.0,299.5188140012033,1.0,1.0,phase_1,,,,,,,,,,,,,yellow,flipped triangle
1303.0,8.0,4.0,1.0,1.0,1.0,357.0557090006332,1.0,1.0,phase_1,,,,,,,,,,,,,cyan,cross
342.0,2.0,2.0,0.0,1.0,1.0,311.3452060006239,1.0,1.0,phase_1,,,,,,,,,,,,,green,circle
147.0,1.0,1.0,0.0,3.0,3.0,318.2629450002423,1.0,1.0,phase_1,,,,,,,,,,,,,yellow,flipped triangle
342.0,6.0,2.0,1.0,4.0,4.0,328.9379809993988,1.0,1.0,phase_1,,,,,,,,,,,,,orange,square
1323.0,4.0,4.0,0.0,3.0,3.0,308.9166879999538,1.0,1.0,phase_1,,,,,,,,,,,,,magenta,triangle
159.0,5.0,1.0,1.0,1.0,1.0,280.9117670003616,1.0,1.0,phase_1,,,,,,,,,,,,,blue,diamond
1292.0,4.0,4.0,0.0,1.0,1.0,291.6041329990548,1.0,1.0,phase_1,,,,,,,,,,,,,magenta,triangle
0.0,1.0,0.0,0.0,3.0,3.0,328.6392890004208,1.0,1.0,phase_1,,,,,,,,,,,,,yellow,flipped triangle
332.0,6.0,2.0,1.0,3.0,3.0,328.0933320002077,1.0,1.0,phase_1,,,,,,,,,,,,,orange,square
631.0,7.0,3.0,1.0,4.0,4.0,393.1600609994348,1.0,1.0,phase_1,,,,,,,,,,,,,white,I
0.0,3.0,0.0,0.0,4.0,4.0,271.5322820004076,1.0,1.0,phase_1,,,,,,,,,,,,,gray,hexagon
1283.0,4.0,4.0,0.0,4.0,4.0,302.3414090002916,1.0,1.0,phase_1,,,,,,,,,,,,,magenta,triangle
1301.0,8.0,4.0,1.0,1.0,1.0,357.3073650004517,1.0,1.0,phase_1,,,,,,,,,,,,,cyan,cross
660.0,7.0,3.0,1.0,2.0,2.0,395.954816000085,1.0,1.0,phase_1,,,,,,,,,,,,,white,I
0.0,8.0,0.0,1.0,3.0,3.0,329.6006720011064,1.0,1.0,phase_1,,,,,,,,,,,,,cyan,cross
0.0,1.0,0.0,0.0,1.0,1.0,272.5381510008446,1.0,1.0,phase_1,,,,,,,,,,,,,yellow,flipped triangle
649.0,7.0,3.0,1.0,3.0,3.0,331.1304390008445,1.0,1.0,phase_1,,,,,,,,,,,,,white,I
627.0,3.0,3.0,0.0,3.0,3.0,437.851482998667,1.0,1.0,phase_1,,,,,,,,,,,,,gray,hexagon
0.0,3.0,0.0,0.0,3.0,3.0,348.9426279993495,1.0,1.0,phase_1,,,,,,,,,,,,,gray,hexagon
140.0,5.0,1.0,1.0,1.0,1.0,356.6196120009408,1.0,1.0,phase_1,,,,,,,,,,,,,blue,diamond
659.0,3.0,3.0,0.0,4.0,4.0,405.8201269981509,1.0,1.0,phase_1,,,,,,,,,,,,,gray,hexagon
1315.0,8.0,4.0,1.0,4.0,4.0,321.0915159979777,1.0,1.0,phase_1,,,,,,,,,,,,,cyan,cross
643.0,7.0,3.0,1.0,3.0,3.0,330.7985989995359,1.0,1.0,phase_1,,,,,,,,,,,,,white,I
661.0,7.0,3.0,1.0,2.0,2.0,695.0118089989701,1.0,1.0,phase_1,,,,,,,,,,,,,white,I
0.0,3.0,0.0,0.0,1.0,1.0,461.0896980011603,1.0,1.0,phase_1,,,,,,,,,,,,,gray,hexagon
632.0,3.0,3.0,0.0,1.0,1.0,349.8002579981403,1.0,1.0,phase_1,,,,,,,,,,,,,gray,hexagon
0.0,3.0,0.0,0.0,3.0,3.0,282.5051580002764,1.0,1.0,phase_1,,,,,,,,,,,,,gray,hexagon
324.0,6.0,2.0,1.0,2.0,2.0,581.7023169984168,1.0,1.0,phase_1,,,,,,,,,,,,,orange,square
328.0,6.0,2.0,1.0,2.0,2.0,347.6221050004824,1.0,1.0,phase_1,,,,,,,,,,,,,orange,square
147.0,1.0,1.0,0.0,2.0,2.0,264.3700199987506,1.0,1.0,phase_1,,,,,,,,,,,,,yellow,flipped triangle
154.0,1.0,1.0,0.0,3.0,3.0,328.9605829995707,1.0,2.0,phase_1,,,,,,,,,,,,,yellow,flipped triangle
168.0,5.0,1.0,1.0,2.0,2.0,403.6456320027355,1.0,1.0,phase_1,,,,,,,,,,,,,blue,diamond
0.0,1.0,0.0,0.0,3.0,3.0,311.7863430015859,1.0,1.0,phase_1,,,,,,,,,,,,,yellow,flipped triangle
0.0,4.0,0.0,0.0,4.0,4.0,338.5668049995729,1.0,1.0,phase_1,,,,,,,,,,,,,magenta,triangle
160.0,1.0,1.0,0.0,2.0,2.0,366.7307760006224,1.0,1.0,phase_1,,,,,,,,,,,,,yellow,flipped triangle
1301.0,4.0,4.0,0.0,4.0,4.0,375.1174490025732,1.0,1.0,phase_1,,,,,,,,,,,,,magenta,triangle
301.0,2.0,2.0,0.0,2.0,2.0,385.0031229994783,1.0,1.0,phase_1,,,,,,,,,,,,,green,circle
661.0,3.0,3.0,0.0,4.0,4.0,366.1145030018815,1.0,1.0,phase_1,,,,,,,,,,,,,gray,hexagon
304.0,6.0,2.0,1.0,3.0,3.0,385.5770820009638,1.0,1.0,phase_1,,,,,,,,,,,,,orange,square
1309.0,4.0,4.0,0.0,1.0,1.0,282.604990999971,1.0,1.0,phase_1,,,,,,,,,,,,,magenta,triangle
1281.0,8.0,4.0,1.0,1.0,1.0,300.5147840012796,1.0,1.0,phase_1,,,,,,,,,,,,,cyan,cross
163.0,5.0,1.0,1.0,3.0,3.0,366.6563740007404,1.0,1.0,phase_1,,,,,,,,,,,,,blue,diamond
1295.0,8.0,4.0,1.0,3.0,3.0,377.1195829976932,1.0,1.0,phase_1,,,,,,,,,,,,,cyan,cross
673.0,3.0,3.0,0.0,3.0,3.0,328.8603520013566,1.0,1.0,phase_1,,,,,,,,,,,,,gray,hexagon
1311.0,8.0,4.0,1.0,4.0,4.0,339.1720440013159,1.0,1.0,phase_1,,,,,,,,,,,,,cyan,cross
346.0,2.0,2.0,0.0,3.0,3.0,320.7968620008614,1.0,1.0,phase_1,,,,,,,,,,,,,green,circle
645.0,7.0,3.0,1.0,4.0,4.0,292.3641800007317,1.0,1.0,phase_1,,,,,,,,,,,,,white,I
147.0,1.0,1.0,0.0,3.0,3.0,319.2486699990695,1.0,1.0,phase_1,,,,,,,,,,,,,yellow,flipped triangle
0.0,6.0,0.0,1.0,4.0,4.0,309.5158299984177,1.0,1.0,phase_1,,,,,,,,,,,,,orange,square
339.0,6.0,2.0,1.0,4.0,4.0,358.2148740024422,1.0,1.0,phase_1,,,,,,,,,,,,,orange,square
1280.0,4.0,4.0,0.0,4.0,4.0,403.9296690025367,1.0,1.0,phase_1,,,,,,,,,,,,,magenta,triangle
0.0,2.0,0.0,0.0,4.0,4.0,346.42754499873257,1.0,1.0,phase_1,,,,,,,,,,,,,green,circle
177.0,1.0,1.0,0.0,4.0,4.0,291.9888440010254,1.0,1.0,phase_1,,,,,,,,,,,,,yellow,flipped triangle
147.0,5.0,1.0,1.0,3.0,3.0,386.3303439975425,1.0,1.0,phase_1,,,,,,,,,,,,,blue,diamond
0.0,8.0,0.0,1.0,3.0,3.0,338.361062000331,1.0,1.0,phase_1,,,,,,,,,,,,,cyan,cross
653.0,3.0,3.0,0.0,4.0,4.0,330.9957210003631,1.0,1.0,phase_1,,,,,,,,,,,,,gray,hexagon
0.0,5.0,0.0,1.0,3.0,3.0,292.8175939996436,1.0,1.0,phase_1,,,,,,,,,,,,,blue,diamond
1308.0,8.0,4.0,1.0,2.0,2.0,441.2071490005473,1.0,1.0,phase_1,,,,,,,,,,,,,cyan,cross
1315.0,4.0,4.0,0.0,1.0,1.0,329.3069819992524,1.0,1.0,phase_1,,,,,,,,,,,,,magenta,triangle
654.0,3.0,3.0,0.0,1.0,1.0,367.0938230025058,1.0,1.0,phase_1,,,,,,,,,,,,,gray,hexagon
0.0,4.0,0.0,0.0,2.0,2.0,358.156679001695,1.0,1.0,phase_1,,,,,,,,,,,,,magenta,triangle
0.0,3.0,0.0,0.0,2.0,2.0,349.0872289985418,2.0,1.0,phase_1,,,,,,,,,,,,,gray,hexagon
309.0,2.0,2.0,0.0,3.0,3.0,386.2228450016118,2.0,1.0,phase_1,,,,,,,,,,,,,green,circle
317.0,6.0,2.0,1.0,4.0,4.0,366.7794440007128,2.0,1.0,phase_1,,,,,,,,,,,,,orange,square
141.0,5.0,1.0,1.0,2.0,2.0,283.2827129968791,2.0,1.0,phase_1,,,,,,,,,,,,,blue,diamond
330.0,6.0,2.0,1.0,1.0,1.0,328.8675299991155,2.0,1.0,phase_1,,,,,,,,,,,,,orange,square
1315.0,8.0,4.0,1.0,1.0,1.0,339.3521869984397,2.0,1.0,phase_1,,,,,,,,,,,,,cyan,cross
1277.0,8.0,4.0,1.0,2.0,2.0,291.3670279995131,2.0,1.0,phase_1,,,,,,,,,,,,,cyan,cross
308.0,2.0,2.0,0.0,1.0,1.0,254.29882200114662,2.0,1.0,phase_1,,,,,,,,,,,,,green,circle
1323.0,8.0,4.0,1.0,3.0,3.0,271.766966998257,2.0,1.0,phase_1,,,,,,,,,,,,,cyan,cross
182.0,1.0,1.0,0.0,3.0,3.0,309.9635279977519,2.0,1.0,phase_1,,,,,,,,,,,,,yellow,flipped triangle
332.0,6.0,2.0,1.0,2.0,2.0,300.0875800025824,2.0,1.0,phase_1,,,,,,,,,,,,,orange,square
163.0,1.0,1.0,0.0,4.0,4.0,300.643022001168,2.0,1.0,phase_1,,,,,,,,,,,,,yellow,flipped triangle
1324.0,8.0,4.0,1.0,2.0,2.0,367.0699600006628,2.0,1.0,phase_1,,,,,,,,,,,,,cyan,cross
629.0,3.0,3.0,0.0,3.0,3.0,366.6789790004259,2.0,1.0,phase_1,,,,,,,,,,,,,gray,hexagon
0.0,5.0,0.0,1.0,2.0,2.0,280.9533740000915,2.0,1.0,phase_1,,,,,,,,,,,,,blue,diamond
1306.0,4.0,4.0,0.0,4.0,4.0,311.0505279983044,2.0,1.0,phase_1,,,,,,,,,,,,,magenta,triangle
179.0,5.0,1.0,1.0,4.0,4.0,319.9016050020873,2.0,1.0,phase_1,,,,,,,,,,,,,blue,diamond
0.0,7.0,0.0,1.0,4.0,4.0,310.403375999158,2.0,1.0,phase_1,,,,,,,,,,,,,white,I
324.0,2.0,2.0,0.0,4.0,4.0,283.2706500012136,2.0,1.0,phase_1,,,,,,,,,,,,,green,circle
0.0,4.0,0.0,0.0,4.0,4.0,253.3623299968894,2.0,1.0,phase_1,,,,,,,,,,,,,magenta,triangle
310.0,2.0,2.0,0.0,3.0,3.0,329.55223200042377,2.0,1.0,phase_1,,,,,,,,,,,,,green,circle
0.0,6.0,0.0,1.0,4.0,4.0,253.8102920007077,2.0,1.0,phase_1,,,,,,,,,,,,,orange,square
334.0,2.0,2.0,0.0,4.0,4.0,243.57153000164539,2.0,1.0,phase_1,,,,,,,,,,,,,green,circle
323.0,6.0,2.0,1.0,1.0,1.0,443.1954700012284,2.0,1.0,phase_1,,,,,,,,,,,,,orange,square
0.0,2.0,0.0,0.0,3.0,3.0,310.6142290016578,2.0,1.0,phase_1,,,,,,,,,,,,,green,circle
341.0,6.0,2.0,1.0,2.0,2.0,301.2272240011953,2.0,1.0,phase_1,,,,,,,,,,,,,orange,square
311.0,2.0,2.0,0.0,1.0,1.0,488.3744580001803,2.0,2.0,phase_1,,,,,,,,,,,,,green,circle
310.0,6.0,2.0,1.0,3.0,3.0,300.4574789993057,2.0,1.0,phase_1,,,,,,,,,,,,,orange,square
165.0,5.0,1.0,1.0,4.0,4.0,375.8764270023675,2.0,1.0,phase_1,,,,,,,,,,,,,blue,diamond
176.0,1.0,1.0,0.0,1.0,1.0,383.8591649982845,2.0,2.0,phase_1,,,,,,,,,,,,,yellow,flipped triangle
147.0,1.0,1.0,0.0,2.0,2.0,451.760171999922,2.0,1.0,phase_1,,,,,,,,,,,,,yellow,flipped triangle
0.0,2.0,0.0,0.0,3.0,3.0,543.8422360020922,2.0,1.0,phase_1,,,,,,,,,,,,,green,circle
318.0,6.0,2.0,1.0,1.0,1.0,274.2008929999429,2.0,1.0,phase_1,,,,,,,,,,,,,orange,square
0.0,4.0,0.0,0.0,1.0,1.0,366.2087560005602,2.0,1.0,phase_1,,,,,,,,,,,,,magenta,triangle
160.0,5.0,1.0,1.0,4.0,4.0,318.9501010019739,2.0,1.0,phase_1,,,,,,,,,,,,,blue,diamond
157.0,5.0,1.0,1.0,2.0,2.0,422.3142660011945,2.0,1.0,phase_1,,,,,,,,,,,,,blue,diamond
668.0,7.0,3.0,1.0,2.0,2.0,299.8299460014095,2.0,1.0,phase_1,,,,,,,,,,,,,white,I
645.0,3.0,3.0,0.0,1.0,1.0,338.4442889982892,2.0,2.0,phase_1,,,,,,,,,,,,,gray,hexagon
1285.0,4.0,4.0,0.0,1.0,1.0,434.4453929988958,2.0,1.0,phase_1,,,,,,,,,,,,,magenta,triangle
0.0,1.0,0.0,0.0,4.0,4.0,376.3600339989352,2.0,1.0,phase_1,,,,,,,,,,,,,yellow,flipped triangle
0.0,4.0,0.0,0.0,2.0,2.0,499.9595839981339,2.0,1.0,phase_1,,,,,,,,,,,,,magenta,triangle
1319.0,4.0,4.0,0.0,2.0,2.0,453.946191999421,2.0,1.0,phase_1,,,,,,,,,,,,,magenta,triangle
171.0,1.0,1.0,0.0,4.0,4.0,358.1326179992175,2.0,1.0,phase_1,,,,,,,,,,,,,yellow,flipped triangle
1312.0,4.0,4.0,0.0,2.0,2.0,330.6026860009297,2.0,1.0,phase_1,,,,,,,,,,,,,magenta,triangle
0.0,3.0,0.0,0.0,1.0,1.0,368.8299290006398,2.0,1.0,phase_1,,,,,,,,,,,,,gray,hexagon
1306.0,4.0,4.0,0.0,3.0,3.0,340.1719670000602,2.0,1.0,phase_1,,,,,,,,,,,,,magenta,triangle
0.0,1.0,0.0,0.0,2.0,2.0,282.5779039994813,2.0,1.0,phase_1,,,,,,,,,,,,,yellow,flipped triangle
180.0,5.0,1.0,1.0,4.0,4.0,385.4879649989016,2.0,1.0,phase_1,,,,,,,,,,,,,blue,diamond
157.0,1.0,1.0,0.0,2.0,2.0,292.4910859983356,2.0,1.0,phase_1,,,,,,,,,,,,,yellow,flipped triangle
649.0,3.0,3.0,0.0,3.0,3.0,293.8452519993006,2.0,1.0,phase_1,,,,,,,,,,,,,gray,hexagon
668.0,7.0,3.0,1.0,2.0,2.0,321.5421400018385,2.0,1.0,phase_1,,,,,,,,,,,,,white,I
656.0,3.0,3.0,0.0,4.0,4.0,389.4790220001596,2.0,1.0,phase_1,,,,,,,,,,,,,gray,hexagon
1306.0,8.0,4.0,1.0,1.0,1.0,423.8430250006786,2.0,2.0,phase_1,,,,,,,,,,,,,cyan,cross
631.0,3.0,3.0,0.0,4.0,4.0,424.8836089973338,2.0,1.0,phase_1,,,,,,,,,,,,,gray,hexagon
173.0,5.0,1.0,1.0,2.0,2.0,334.107734997815,2.0,1.0,phase_1,,,,,,,,,,,,,blue,diamond
320.0,2.0,2.0,0.0,3.0,3.0,367.5932789992657,2.0,1.0,phase_1,,,,,,,,,,,,,green,circle
169.0,1.0,1.0,0.0,3.0,3.0,311.8818749971979,2.0,1.0,phase_1,,,,,,,,,,,,,yellow,flipped triangle
661.0,7.0,3.0,1.0,4.0,4.0,394.7005549998721,2.0,1.0,phase_1,,,,,,,,,,,,,white,I
655.0,3.0,3.0,0.0,1.0,1.0,397.9412890003004,2.0,1.0,phase_1,,,,,,,,,,,,,gray,hexagon
674.0,7.0,3.0,1.0,1.0,1.0,368.130304999795,2.0,1.0,phase_1,,,,,,,,,,,,,white,I
1293.0,8.0,4.0,1.0,2.0,2.0,518.2330690004164,2.0,1.0,phase_1,,,,,,,,,,,,,cyan,cross
660.0,3.0,3.0,0.0,4.0,4.0,376.324194996414,2.0,1.0,phase_1,,,,,,,,,,,,,gray,hexagon
1323.0,4.0,4.0,0.0,2.0,2.0,309.2693619983038,2.0,1.0,phase_1,,,,,,,,,,,,,magenta,triangle
325.0,6.0,2.0,1.0,3.0,3.0,330.5069620000722,2.0,1.0,phase_1,,,,,,,,,,,,,orange,square
320.0,6.0,2.0,1.0,1.0,1.0,415.002204998018,2.0,2.0,phase_1,,,,,,,,,,,,,orange,square
175.0,1.0,1.0,0.0,4.0,4.0,443.1588709994685,2.0,1.0,phase_1,,,,,,,,,,,,,yellow,flipped triangle
1323.0,8.0,4.0,1.0,1.0,1.0,375.7831910006644,2.0,1.0,phase_1,,,,,,,,,,,,,cyan,cross
0.0,1.0,0.0,0.0,1.0,1.0,395.679952998762,2.0,1.0,phase_1,,,,,,,,,,,,,yellow,flipped triangle
631.0,7.0,3.0,1.0,3.0,3.0,385.2406959995278,2.0,1.0,phase_1,,,,,,,,,,,,,white,I
1293.0,4.0,4.0,0.0,4.0,4.0,339.0768530007335,2.0,1.0,phase_1,,,,,,,,,,,,,magenta,triangle
0.0,7.0,0.0,1.0,1.0,1.0,329.8299310008588,2.0,1.0,phase_1,,,,,,,,,,,,,white,I
653.0,3.0,3.0,0.0,4.0,4.0,358.6942000001727,2.0,1.0,phase_1,,,,,,,,,,,,,gray,hexagon
145.0,5.0,1.0,1.0,3.0,3.0,339.3617910005559,2.0,1.0,phase_1,,,,,,,,,,,,,blue,diamond
1312.0,8.0,4.0,1.0,4.0,4.0,357.4750320003659,2.0,1.0,phase_1,,,,,,,,,,,,,cyan,cross
661.0,7.0,3.0,1.0,3.0,3.0,432.9826200009847,2.0,1.0,phase_1,,,,,,,,,,,,,white,I
341.0,6.0,2.0,1.0,2.0,2.0,388.7149200018029,2.0,1.0,phase_1,,,,,,,,,,,,,orange,square
663.0,3.0,3.0,0.0,4.0,4.0,329.1903979989001,2.0,1.0,phase_1,,,,,,,,,,,,,gray,hexagon
1285.0,8.0,4.0,1.0,4.0,4.0,375.8101019993773,2.0,1.0,phase_1,,,,,,,,,,,,,cyan,cross
180.0,1.0,1.0,0.0,1.0,1.0,329.6761690035055,2.0,1.0,phase_1,,,,,,,,,,,,,yellow,flipped triangle
629.0,3.0,3.0,0.0,1.0,1.0,300.6225999997696,2.0,1.0,phase_1,,,,,,,,,,,,,gray,hexagon
324.0,6.0,2.0,1.0,3.0,3.0,328.6277890001656,2.0,1.0,phase_1,,,,,,,,,,,,,orange,square
661.0,3.0,3.0,0.0,3.0,3.0,338.222685000801,2.0,1.0,phase_1,,,,,,,,,,,,,gray,hexagon
179.0,1.0,1.0,0.0,2.0,2.0,927.3413779992552,2.0,1.0,phase_1,,,,,,,,,,,,,yellow,flipped triangle
161.0,1.0,1.0,0.0,3.0,3.0,413.4576840006048,2.0,1.0,phase_1,,,,,,,,,,,,,yellow,flipped triangle
1316.0,8.0,4.0,1.0,2.0,2.0,301.9694449976668,2.0,1.0,phase_1,,,,,,,,,,,,,cyan,cross
176.0,5.0,1.0,1.0,4.0,4.0,442.1906960014894,2.0,2.0,phase_1,,,,,,,,,,,,,blue,diamond
657.0,7.0,3.0,1.0,3.0,3.0,374.8776220018044,2.0,1.0,phase_1,,,,,,,,,,,,,white,I
156.0,1.0,1.0,0.0,1.0,1.0,507.13087099939,2.0,1.0,phase_1,,,,,,,,,,,,,yellow,flipped triangle
339.0,2.0,2.0,0.0,3.0,3.0,375.6140820005385,2.0,1.0,phase_1,,,,,,,,,,,,,green,circle
310.0,2.0,2.0,0.0,3.0,3.0,356.4531179981713,2.0,1.0,phase_1,,,,,,,,,,,,,green,circle
1319.0,8.0,4.0,1.0,3.0,3.0,366.8108120000397,2.0,1.0,phase_1,,,,,,,,,,,,,cyan,cross
1312.0,4.0,4.0,0.0,2.0,2.0,480.376391999016,2.0,2.0,phase_1,,,,,,,,,,,,,magenta,triangle
1324.0,4.0,4.0,0.0,2.0,2.0,338.282276999962,2.0,1.0,phase_1,,,,,,,,,,,,,magenta,triangle
0.0,2.0,0.0,0.0,1.0,1.0,405.3743019976537,2.0,1.0,phase_1,,,,,,,,,,,,,green,circle
1281.0,4.0,4.0,0.0,1.0,1.0,366.0533980000764,2.0,1.0,phase_1,,,,,,,,,,,,,magenta,triangle
145.0,1.0,1.0,0.0,4.0,4.0,405.5188649981573,2.0,1.0,phase_1,,,,,,,,,,,,,yellow,flipped triangle
336.0,6.0,2.0,1.0,2.0,2.0,451.7725100013194,2.0,1.0,phase_1,,,,,,,,,,,,,orange,square
330.0,2.0,2.0,0.0,2.0,2.0,328.9582829966093,2.0,1.0,phase_1,,,,,,,,,,,,,green,circle
0.0,7.0,0.0,1.0,3.0,3.0,377.2814419971837,2.0,1.0,phase_1,,,,,,,,,,,,,white,I
140.0,1.0,1.0,0.0,1.0,1.0,330.2666039999167,2.0,1.0,phase_1,,,,,,,,,,,,,yellow,flipped triangle
330.0,6.0,2.0,1.0,4.0,4.0,386.6496800001187,3.0,1.0,phase_1,,,,,,,,,,,,,orange,square
640.0,7.0,3.0,1.0,3.0,3.0,291.7420520025189,3.0,1.0,phase_1,,,,,,,,,,,,,white,I
169.0,5.0,1.0,1.0,4.0,4.0,331.3171970003168,3.0,1.0,phase_1,,,,,,,,,,,,,blue,diamond
178.0,5.0,1.0,1.0,3.0,3.0,292.9777950012067,3.0,1.0,phase_1,,,,,,,,,,,,,blue,diamond
1287.0,8.0,4.0,1.0,3.0,3.0,320.1635949990304,3.0,1.0,phase_1,,,,,,,,,,,,,cyan,cross
1293.0,8.0,4.0,1.0,4.0,4.0,345.6502949993592,3.0,1.0,phase_1,,,,,,,,,,,,,cyan,cross
176.0,1.0,1.0,0.0,3.0,3.0,264.0509830016526,3.0,1.0,phase_1,,,,,,,,,,,,,yellow,flipped triangle
1293.0,4.0,4.0,0.0,3.0,3.0,311.4362020023691,3.0,1.0,phase_1,,,,,,,,,,,,,magenta,triangle
0.0,6.0,0.0,1.0,4.0,4.0,295.5965129985998,3.0,1.0,phase_1,,,,,,,,,,,,,orange,square
1302.0,4.0,4.0,0.0,4.0,4.0,329.4207690014445,3.0,1.0,phase_1,,,,,,,,,,,,,magenta,triangle
165.0,5.0,1.0,1.0,3.0,3.0,301.5095349983312,3.0,1.0,phase_1,,,,,,,,,,,,,blue,diamond
657.0,3.0,3.0,0.0,2.0,2.0,553.919500001939,3.0,1.0,phase_1,,,,,,,,,,,,,gray,hexagon
0.0,8.0,0.0,1.0,1.0,1.0,366.4018229974317,3.0,1.0,phase_1,,,,,,,,,,,,,cyan,cross
656.0,7.0,3.0,1.0,1.0,1.0,328.7386570009403,3.0,1.0,phase_1,,,,,,,,,,,,,white,I
655.0,7.0,3.0,1.0,2.0,2.0,403.607436997845,3.0,1.0,phase_1,,,,,,,,,,,,,white,I
310.0,6.0,2.0,1.0,4.0,4.0,350.2013830002397,3.0,1.0,phase_1,,,,,,,,,,,,,orange,square
332.0,2.0,2.0,0.0,1.0,1.0,289.6573769976385,3.0,1.0,phase_1,,,,,,,,,,,,,green,circle
0.0,6.0,0.0,1.0,1.0,1.0,291.9547869969392,3.0,1.0,phase_1,,,,,,,,,,,,,orange,square
182.0,5.0,1.0,1.0,1.0,1.0,300.1832810004998,3.0,1.0,phase_1,,,,,,,,,,,,,blue,diamond
0.0,4.0,0.0,0.0,4.0,4.0,367.9932710001594,3.0,1.0,phase_1,,,,,,,,,,,,,magenta,triangle
0.0,8.0,0.0,1.0,4.0,4.0,470.6589910019829,3.0,1.0,phase_1,,,,,,,,,,,,,cyan,cross
311.0,6.0,2.0,1.0,2.0,2.0,338.8374870010011,3.0,1.0,phase_1,,,,,,,,,,,,,orange,square
0.0,5.0,0.0,1.0,3.0,3.0,339.0884229993389,3.0,2.0,phase_1,,,,,,,,,,,,,blue,diamond
324.0,2.0,2.0,0.0,4.0,4.0,358.5885180000332,3.0,1.0,phase_1,,,,,,,,,,,,,green,circle
346.0,6.0,2.0,1.0,4.0,4.0,386.4873570018972,3.0,1.0,phase_1,,,,,,,,,,,,,orange,square
1305.0,8.0,4.0,1.0,2.0,2.0,375.6688559988106,3.0,1.0,phase_1,,,,,,,,,,,,,cyan,cross
315.0,2.0,2.0,0.0,4.0,4.0,347.5261659987154,3.0,1.0,phase_1,,,,,,,,,,,,,green,circle
637.0,3.0,3.0,0.0,1.0,1.0,979.6876439977495,3.0,2.0,phase_1,,,,,,,,,,,,,gray,hexagon
318.0,6.0,2.0,1.0,1.0,1.0,451.5450940016308,3.0,1.0,phase_1,,,,,,,,,,,,,orange,square
630.0,7.0,3.0,1.0,1.0,1.0,347.9157519977889,3.0,1.0,phase_1,,,,,,,,,,,,,white,I
323.0,2.0,2.0,0.0,4.0,4.0,377.8664860001299,3.0,1.0,phase_1,,,,,,,,,,,,,green,circle
332.0,2.0,2.0,0.0,3.0,3.0,348.9786739992269,3.0,1.0,phase_1,,,,,,,,,,,,,green,circle
340.0,2.0,2.0,0.0,2.0,2.0,374.9379830005637,3.0,3.0,phase_1,,,,,,,,,,,,,green,circle
318.0,2.0,2.0,0.0,1.0,1.0,404.6091700001852,3.0,1.0,phase_1,,,,,,,,,,,,,green,circle
653.0,7.0,3.0,1.0,1.0,1.0,347.6918100022885,3.0,1.0,phase_1,,,,,,,,,,,,,white,I
159.0,1.0,1.0,0.0,2.0,2.0,300.0121650002256,3.0,1.0,phase_1,,,,,,,,,,,,,yellow,flipped triangle
301.0,6.0,2.0,1.0,2.0,2.0,329.0631830022903,3.0,1.0,phase_1,,,,,,,,,,,,,orange,square
640.0,3.0,3.0,0.0,2.0,2.0,300.1478449987189,3.0,1.0,phase_1,,,,,,,,,,,,,gray,hexagon
664.0,7.0,3.0,1.0,2.0,2.0,338.2572240006993,3.0,1.0,phase_1,,,,,,,,,,,,,white,I
640.0,7.0,3.0,1.0,3.0,3.0,348.0547969993495,3.0,1.0,phase_1,,,,,,,,,,,,,white,I
169.0,5.0,1.0,1.0,2.0,2.0,319.9338670019642,3.0,1.0,phase_1,,,,,,,,,,,,,blue,diamond
0.0,5.0,0.0,1.0,2.0,2.0,283.7003979984729,3.0,1.0,phase_1,,,,,,,,,,,,,blue,diamond
303.0,6.0,2.0,1.0,1.0,1.0,347.3650229971099,3.0,1.0,phase_1,,,,,,,,,,,,,orange,square
637.0,7.0,3.0,1.0,1.0,1.0,374.8742520001542,3.0,1.0,phase_1,,,,,,,,,,,,,white,I
341.0,2.0,2.0,0.0,1.0,1.0,385.3961179993348,3.0,1.0,phase_1,,,,,,,,,,,,,green,circle
142.0,5.0,1.0,1.0,2.0,2.0,405.6491320006898,3.0,1.0,phase_1,,,,,,,,,,,,,blue,diamond
1297.0,8.0,4.0,1.0,3.0,3.0,328.97878699805,3.0,1.0,phase_1,,,,,,,,,,,,,cyan,cross
0.0,7.0,0.0,1.0,2.0,2.0,309.30991599962,3.0,1.0,phase_1,,,,,,,,,,,,,white,I
143.0,5.0,1.0,1.0,2.0,2.0,320.7982809981331,3.0,1.0,phase_1,,,,,,,,,,,,,blue,diamond
0.0,2.0,0.0,0.0,2.0,2.0,356.6774840001017,3.0,1.0,phase_1,,,,,,,,,,,,,green,circle
629.0,7.0,3.0,1.0,3.0,3.0,311.4745919992856,3.0,1.0,phase_1,,,,,,,,,,,,,white,I
165.0,1.0,1.0,0.0,4.0,4.0,340.0245740012906,3.0,1.0,phase_1,,,,,,,,,,,,,yellow,flipped triangle
1305.0,8.0,4.0,1.0,4.0,4.0,320.6190040000365,3.0,1.0,phase_1,,,,,,,,,,,,,cyan,cross
1321.0,4.0,4.0,0.0,2.0,2.0,301.2905750001664,3.0,1.0,phase_1,,,,,,,,,,,,,magenta,triangle
0.0,2.0,0.0,0.0,4.0,4.0,367.516415000864,3.0,1.0,phase_1,,,,,,,,,,,,,green,circle
641.0,3.0,3.0,0.0,2.0,2.0,357.3519279998436,3.0,1.0,phase_1,,,,,,,,,,,,,gray,hexagon
0.0,7.0,0.0,1.0,3.0,3.0,338.1767769969883,3.0,1.0,phase_1,,,,,,,,,,,,,white,I
176.0,5.0,1.0,1.0,4.0,4.0,339.0343579994805,3.0,1.0,phase_1,,,,,,,,,,,,,blue,diamond
158.0,1.0,1.0,0.0,1.0,1.0,413.7628329990548,3.0,2.0,phase_1,,,,,,,,,,,,,yellow,flipped triangle
665.0,7.0,3.0,1.0,1.0,1.0,338.2093569998687,3.0,1.0,phase_1,,,,,,,,,,,,,white,I
334.0,6.0,2.0,1.0,4.0,4.0,310.1952590004657,3.0,1.0,phase_1,,,,,,,,,,,,,orange,square
668.0,3.0,3.0,0.0,3.0,3.0,356.0594300033699,3.0,1.0,phase_1,,,,,,,,,,,,,gray,hexagon
0.0,8.0,0.0,1.0,1.0,1.0,376.7285440007981,3.0,1.0,phase_1,,,,,,,,,,,,,cyan,cross
1303.0,4.0,4.0,0.0,4.0,4.0,443.3840760029852,3.0,1.0,phase_1,,,,,,,,,,,,,magenta,triangle
0.0,5.0,0.0,1.0,2.0,2.0,422.9641540005104,3.0,1.0,phase_1,,,,,,,,,,,,,blue,diamond
1321.0,8.0,4.0,1.0,1.0,1.0,488.0355219975172,3.0,1.0,phase_1,,,,,,,,,,,,,cyan,cross
666.0,3.0,3.0,0.0,1.0,1.0,376.10199700066,3.0,1.0,phase_1,,,,,,,,,,,,,gray,hexagon
165.0,1.0,1.0,0.0,2.0,2.0,364.6736390001024,3.0,1.0,phase_1,,,,,,,,,,,,,yellow,flipped triangle
1292.0,8.0,4.0,1.0,3.0,3.0,365.2689529990311,3.0,1.0,phase_1,,,,,,,,,,,,,cyan,cross
324.0,2.0,2.0,0.0,4.0,4.0,413.1359330021951,3.0,1.0,phase_1,,,,,,,,,,,,,green,circle
0.0,1.0,0.0,0.0,4.0,4.0,394.0813750014058,3.0,1.0,phase_1,,,,,,,,,,,,,yellow,flipped triangle
639.0,7.0,3.0,1.0,4.0,4.0,328.4852079996199,3.0,1.0,phase_1,,,,,,,,,,,,,white,I
185.0,5.0,1.0,1.0,4.0,4.0,337.9150120017584,3.0,1.0,phase_1,,,,,,,,,,,,,blue,diamond
1302.0,8.0,4.0,1.0,4.0,4.0,330.2991109994764,3.0,1.0,phase_1,,,,,,,,,,,,,cyan,cross
309.0,6.0,2.0,1.0,4.0,4.0,337.5389949978853,3.0,1.0,phase_1,,,,,,,,,,,,,orange,square
147.0,5.0,1.0,1.0,3.0,3.0,357.3852709996572,3.0,1.0,phase_1,,,,,,,,,,,,,blue,diamond
1280.0,8.0,4.0,1.0,2.0,2.0,957.052540001314,3.0,1.0,phase_1,,,,,,,,,,,,,cyan,cross
630.0,3.0,3.0,0.0,4.0,4.0,421.7410639976151,3.0,1.0,phase_1,,,,,,,,,,,,,gray,hexagon
158.0,5.0,1.0,1.0,1.0,1.0,487.9434579997905,3.0,1.0,phase_1,,,,,,,,,,,,,blue,diamond
143.0,1.0,1.0,0.0,3.0,3.0,365.2143500003149,3.0,1.0,phase_1,,,,,,,,,,,,,yellow,flipped triangle
645.0,3.0,3.0,0.0,3.0,3.0,346.2189909987501,3.0,1.0,phase_1,,,,,,,,,,,,,gray,hexagon
1305.0,4.0,4.0,0.0,3.0,3.0,338.6396630012314,3.0,1.0,phase_1,,,,,,,,,,,,,magenta,triangle
640.0,3.0,3.0,0.0,2.0,2.0,806.9968879972294,3.0,1.0,phase_1,,,,,,,,,,,,,gray,hexagon
169.0,1.0,1.0,0.0,2.0,2.0,631.2945060017228,3.0,1.0,phase_1,,,,,,,,,,,,,yellow,flipped triangle
140.0,5.0,1.0,1.0,4.0,4.0,380.0056750005751,3.0,1.0,phase_1,,,,,,,,,,,,,blue,diamond
0.0,6.0,0.0,1.0,4.0,4.0,375.2316440004506,3.0,1.0,phase_1,,,,,,,,,,,,,orange,square
0.0,5.0,0.0,1.0,3.0,3.0,329.9623790007899,3.0,1.0,phase_1,,,,,,,,,,,,,blue,diamond
330.0,2.0,2.0,0.0,1.0,1.0,347.3121889983304,3.0,1.0,phase_1,,,,,,,,,,,,,green,circle
0.0,7.0,0.0,1.0,2.0,2.0,573.5218129993882,3.0,1.0,phase_1,,,,,,,,,,,,,white,I
165.0,5.0,1.0,1.0,4.0,4.0,394.7460830022464,3.0,1.0,phase_1,,,,,,,,,,,,,blue,diamond
165.0,1.0,1.0,0.0,2.0,2.0,413.2718979999481,3.0,1.0,phase_1,,,,,,,,,,,,,yellow,flipped triangle
340.0,6.0,2.0,1.0,3.0,3.0,413.4944179968443,3.0,1.0,phase_1,,,,,,,,,,,,,orange,square
1305.0,4.0,4.0,0.0,1.0,1.0,404.4396899989806,3.0,2.0,phase_1,,,,,,,,,,,,,magenta,triangle
0.0,3.0,0.0,0.0,4.0,4.0,440.220242999203,3.0,1.0,phase_1,,,,,,,,,,,,,gray,hexagon
0.0,6.0,0.0,1.0,3.0,3.0,301.4804439990257,3.0,1.0,phase_1,,,,,,,,,,,,,orange,square
144.0,1.0,1.0,0.0,1.0,1.0,365.2440040023066,3.0,1.0,phase_1,,,,,,,,,,,,,yellow,flipped triangle
346.0,6.0,2.0,1.0,4.0,4.0,365.6497060001129,3.0,1.0,phase_1,,,,,,,,,,,,,orange,square
0.0,5.0,0.0,1.0,2.0,2.0,610.8989669992297,3.0,1.0,phase_1,,,,,,,,,,,,,blue,diamond
0.0,5.0,0.0,1.0,3.0,3.0,319.2721090017585,3.0,1.0,phase_1,,,,,,,,,,,,,blue,diamond
674.0,3.0,3.0,0.0,1.0,1.0,394.8928060017351,3.0,1.0,phase_1,,,,,,,,,,,,,gray,hexagon
158.0,1.0,1.0,0.0,1.0,1.0,309.5687439999892,4.0,2.0,phase_1,,,,,,,,,,,,,yellow,flipped triangle
1298.0,8.0,4.0,1.0,4.0,4.0,395.0049449995276,4.0,1.0,phase_1,,,,,,,,,,,,,cyan,cross
650.0,7.0,3.0,1.0,1.0,1.0,412.7174800014472,4.0,1.0,phase_1,,,,,,,,,,,,,white,I
1280.0,4.0,4.0,0.0,3.0,3.0,394.6099750028224,4.0,1.0,phase_1,,,,,,,,,,,,,magenta,triangle
305.0,6.0,2.0,1.0,1.0,1.0,308.9407900006335,4.0,1.0,phase_1,,,,,,,,,,,,,orange,square
1308.0,4.0,4.0,0.0,3.0,3.0,281.7482380014553,4.0,1.0,phase_1,,,,,,,,,,,,,magenta,triangle
1312.0,8.0,4.0,1.0,3.0,3.0,358.8513149989012,4.0,1.0,phase_1,,,,,,,,,,,,,cyan,cross
1277.0,4.0,4.0,0.0,2.0,2.0,478.5781470018264,4.0,1.0,phase_1,,,,,,,,,,,,,magenta,triangle
650.0,3.0,3.0,0.0,2.0,2.0,327.9270299972268,4.0,1.0,phase_1,,,,,,,,,,,,,gray,hexagon
144.0,5.0,1.0,1.0,2.0,2.0,272.1758010011399,4.0,1.0,phase_1,,,,,,,,,,,,,blue,diamond
0.0,8.0,0.0,1.0,3.0,3.0,356.7283369993674,4.0,1.0,phase_1,,,,,,,,,,,,,cyan,cross
345.0,2.0,2.0,0.0,4.0,4.0,489.711680002074,4.0,1.0,phase_1,,,,,,,,,,,,,green,circle
1309.0,8.0,4.0,1.0,3.0,3.0,365.6175619980786,4.0,1.0,phase_1,,,,,,,,,,,,,cyan,cross
176.0,5.0,1.0,1.0,1.0,1.0,384.2156620012247,4.0,1.0,phase_1,,,,,,,,,,,,,blue,diamond
651.0,7.0,3.0,1.0,4.0,4.0,357.234019000316,4.0,1.0,phase_1,,,,,,,,,,,,,white,I
323.0,6.0,2.0,1.0,2.0,2.0,299.226605999138,4.0,1.0,phase_1,,,,,,,,,,,,,orange,square
147.0,5.0,1.0,1.0,3.0,3.0,328.3765950000088,4.0,1.0,phase_1,,,,,,,,,,,,,blue,diamond
1277.0,8.0,4.0,1.0,3.0,3.0,329.480495001917,4.0,1.0,phase_1,,,,,,,,,,,,,cyan,cross
176.0,5.0,1.0,1.0,2.0,2.0,347.5064909980574,4.0,1.0,phase_1,,,,,,,,,,,,,blue,diamond
161.0,5.0,1.0,1.0,1.0,1.0,385.6411500019021,4.0,1.0,phase_1,,,,,,,,,,,,,blue,diamond
324.0,6.0,2.0,1.0,1.0,1.0,423.1971429981058,4.0,1.0,phase_1,,,,,,,,,,,,,orange,square
308.0,6.0,2.0,1.0,3.0,3.0,365.3509950017906,4.0,1.0,phase_1,,,,,,,,,,,,,orange,square
1279.0,8.0,4.0,1.0,4.0,4.0,394.2609750010888,4.0,1.0,phase_1,,,,,,,,,,,,,cyan,cross
0.0,3.0,0.0,0.0,4.0,4.0,329.6503999990818,4.0,1.0,phase_1,,,,,,,,,,,,,gray,hexagon
1283.0,8.0,4.0,1.0,2.0,2.0,375.6687300010526,4.0,1.0,phase_1,,,,,,,,,,,,,cyan,cross
158.0,5.0,1.0,1.0,1.0,1.0,376.6311289982695,4.0,1.0,phase_1,,,,,,,,,,,,,blue,diamond
0.0,5.0,0.0,1.0,3.0,3.0,340.1406510020024,4.0,1.0,phase_1,,,,,,,,,,,,,blue,diamond
0.0,8.0,0.0,1.0,4.0,4.0,347.9231909986993,4.0,1.0,phase_1,,,,,,,,,,,,,cyan,cross
1287.0,4.0,4.0,0.0,1.0,1.0,329.3109380028909,4.0,1.0,phase_1,,,,,,,,,,,,,magenta,triangle
1320.0,8.0,4.0,1.0,2.0,2.0,386.5917580005771,4.0,1.0,phase_1,,,,,,,,,,,,,cyan,cross
1288.0,8.0,4.0,1.0,4.0,4.0,320.8447370016074,4.0,1.0,phase_1,,,,,,,,,,,,,cyan,cross
0.0,2.0,0.0,0.0,4.0,4.0,349.2330539993418,4.0,1.0,phase_1,,,,,,,,,,,,,green,circle
664.0,3.0,3.0,0.0,3.0,3.0,328.9556060008181,4.0,1.0,phase_1,,,,,,,,,,,,,gray,hexagon
629.0,7.0,3.0,1.0,4.0,4.0,329.7850000017206,4.0,1.0,phase_1,,,,,,,,,,,,,white,I
645.0,3.0,3.0,0.0,3.0,3.0,319.8073300009127,4.0,1.0,phase_1,,,,,,,,,,,,,gray,hexagon
643.0,3.0,3.0,0.0,1.0,1.0,404.7017640004924,4.0,1.0,phase_1,,,,,,,,,,,,,gray,hexagon
1288.0,4.0,4.0,0.0,3.0,3.0,329.4511969979794,4.0,1.0,phase_1,,,,,,,,,,,,,magenta,triangle
1277.0,4.0,4.0,0.0,3.0,3.0,348.5738000017591,4.0,1.0,phase_1,,,,,,,,,,,,,magenta,triangle
1299.0,4.0,4.0,0.0,2.0,2.0,536.3220809995255,4.0,1.0,phase_1,,,,,,,,,,,,,magenta,triangle
631.0,3.0,3.0,0.0,4.0,4.0,366.7911719967378,4.0,1.0,phase_1,,,,,,,,,,,,,gray,hexagon
336.0,2.0,2.0,0.0,2.0,2.0,451.9266110000899,4.0,1.0,phase_1,,,,,,,,,,,,,green,circle
657.0,7.0,3.0,1.0,1.0,1.0,375.9576929987815,4.0,1.0,phase_1,,,,,,,,,,,,,white,I
0.0,7.0,0.0,1.0,3.0,3.0,300.9159560024272,4.0,1.0,phase_1,,,,,,,,,,,,,white,I
171.0,5.0,1.0,1.0,1.0,1.0,310.2513110025029,4.0,1.0,phase_1,,,,,,,,,,,,,blue,diamond
639.0,3.0,3.0,0.0,2.0,2.0,394.9821339992923,4.0,1.0,phase_1,,,,,,,,,,,,,gray,hexagon
645.0,7.0,3.0,1.0,4.0,4.0,517.4397279988625,4.0,1.0,phase_1,,,,,,,,,,,,,white,I
154.0,5.0,1.0,1.0,2.0,2.0,329.3879789998755,4.0,1.0,phase_1,,,,,,,,,,,,,blue,diamond
168.0,1.0,1.0,0.0,1.0,1.0,262.8233319992432,4.0,1.0,phase_1,,,,,,,,,,,,,yellow,flipped triangle
147.0,5.0,1.0,1.0,1.0,1.0,300.5591420005657,4.0,1.0,phase_1,,,,,,,,,,,,,blue,diamond
668.0,3.0,3.0,0.0,2.0,2.0,379.8253749992,4.0,1.0,phase_1,,,,,,,,,,,,,gray,hexagon
661.0,3.0,3.0,0.0,2.0,2.0,299.5932360026927,4.0,1.0,phase_1,,,,,,,,,,,,,gray,hexagon
185.0,1.0,1.0,0.0,4.0,4.0,329.1747290022613,4.0,1.0,phase_1,,,,,,,,,,,,,yellow,flipped triangle
1297.0,4.0,4.0,0.0,1.0,1.0,396.2643740014755,4.0,1.0,phase_1,,,,,,,,,,,,,magenta,triangle
673.0,7.0,3.0,1.0,2.0,2.0,301.0957930018776,4.0,1.0,phase_1,,,,,,,,,,,,,white,I
177.0,5.0,1.0,1.0,3.0,3.0,338.7585359996592,4.0,1.0,phase_1,,,,,,,,,,,,,blue,diamond
653.0,3.0,3.0,0.0,2.0,2.0,319.1299380014243,4.0,1.0,phase_1,,,,,,,,,,,,,gray,hexagon
653.0,7.0,3.0,1.0,2.0,2.0,300.9256499972252,4.0,1.0,phase_1,,,,,,,,,,,,,white,I
666.0,7.0,3.0,1.0,4.0,4.0,383.922895998694,4.0,1.0,phase_1,,,,,,,,,,,,,white,I
335.0,6.0,2.0,1.0,2.0,2.0,328.7909840000793,4.0,1.0,phase_1,,,,,,,,,,,,,orange,square
337.0,6.0,2.0,1.0,3.0,3.0,328.9897470021969,4.0,1.0,phase_1,,,,,,,,,,,,,orange,square
632.0,7.0,3.0,1.0,3.0,3.0,319.6652619990345,4.0,1.0,phase_1,,,,,,,,,,,,,white,I
175.0,5.0,1.0,1.0,1.0,1.0,328.4984140009328,4.0,1.0,phase_1,,,,,,,,,,,,,blue,diamond
142.0,1.0,1.0,0.0,4.0,4.0,346.9994570004928,4.0,1.0,phase_1,,,,,,,,,,,,,yellow,flipped triangle
1295.0,4.0,4.0,0.0,2.0,2.0,309.8954069973842,4.0,1.0,phase_1,,,,,,,,,,,,,magenta,triangle
0.0,1.0,0.0,0.0,3.0,3.0,327.3255929998413,4.0,1.0,phase_1,,,,,,,,,,,,,yellow,flipped triangle
173.0,1.0,1.0,0.0,2.0,2.0,309.5015170001716,4.0,1.0,phase_1,,,,,,,,,,,,,yellow,flipped triangle
1306.0,8.0,4.0,1.0,2.0,2.0,319.9616320016503,4.0,1.0,phase_1,,,,,,,,,,,,,cyan,cross
178.0,1.0,1.0,0.0,1.0,1.0,366.5362220017414,4.0,2.0,phase_1,,,,,,,,,,,,,yellow,flipped triangle
317.0,2.0,2.0,0.0,1.0,1.0,329.9418700007663,4.0,1.0,phase_1,,,,,,,,,,,,,green,circle
0.0,4.0,0.0,0.0,1.0,1.0,304.806970001664,4.0,1.0,phase_1,,,,,,,,,,,,,magenta,triangle
1279.0,4.0,4.0,0.0,4.0,4.0,411.9554129974858,4.0,1.0,phase_1,,,,,,,,,,,,,magenta,triangle
1320.0,4.0,4.0,0.0,2.0,2.0,498.2483040002989,4.0,1.0,phase_1,,,,,,,,,,,,,magenta,triangle
1316.0,4.0,4.0,0.0,1.0,1.0,346.8880010004795,4.0,1.0,phase_1,,,,,,,,,,,,,magenta,triangle
0.0,4.0,0.0,0.0,3.0,3.0,328.3693230005156,4.0,1.0,phase_1,,,,,,,,,,,,,magenta,triangle
176.0,1.0,1.0,0.0,3.0,3.0,319.1573809999681,4.0,1.0,phase_1,,,,,,,,,,,,,yellow,flipped triangle
0.0,1.0,0.0,0.0,4.0,4.0,385.3908869969018,4.0,1.0,phase_1,,,,,,,,,,,,,yellow,flipped triangle
335.0,2.0,2.0,0.0,3.0,3.0,330.9422269994684,4.0,1.0,phase_1,,,,,,,,,,,,,green,circle
0.0,2.0,0.0,0.0,3.0,3.0,311.7349189997185,4.0,1.0,phase_1,,,,,,,,,,,,,green,circle
1288.0,4.0,4.0,0.0,3.0,3.0,376.8832310015568,4.0,1.0,phase_1,,,,,,,,,,,,,magenta,triangle
303.0,2.0,2.0,0.0,4.0,4.0,358.4344900009455,4.0,1.0,phase_1,,,,,,,,,,,,,green,circle
341.0,2.0,2.0,0.0,2.0,2.0,319.3626440006483,4.0,1.0,phase_1,,,,,,,,,,,,,green,circle
147.0,5.0,1.0,1.0,3.0,3.0,311.643549001019,4.0,1.0,phase_1,,,,,,,,,,,,,blue,diamond
654.0,7.0,3.0,1.0,1.0,1.0,339.7241570019105,4.0,1.0,phase_1,,,,,,,,,,,,,white,I
665.0,3.0,3.0,0.0,3.0,3.0,376.9565959992178,4.0,1.0,phase_1,,,,,,,,,,,,,gray,hexagon
140.0,1.0,1.0,0.0,4.0,4.0,396.4046119981503,4.0,1.0,phase_1,,,,,,,,,,,,,yellow,flipped triangle
0.0,4.0,0.0,0.0,1.0,1.0,311.2262489994464,4.0,1.0,phase_1,,,,,,,,,,,,,magenta,triangle
0.0,3.0,0.0,0.0,3.0,3.0,375.5910580002819,4.0,1.0,phase_1,,,,,,,,,,,,,gray,hexagon
307.0,2.0,2.0,0.0,3.0,3.0,338.1935940014955,4.0,1.0,phase_1,,,,,,,,,,,,,green,circle
345.0,6.0,2.0,1.0,3.0,3.0,292.4613489994954,4.0,1.0,phase_1,,,,,,,,,,,,,orange,square
0.0,6.0,0.0,1.0,2.0,2.0,648.3899869999732,4.0,1.0,phase_1,,,,,,,,,,,,,orange,square
0.0,7.0,0.0,1.0,3.0,3.0,320.6193500009249,4.0,1.0,phase_1,,,,,,,,,,,,,white,I
0.0,6.0,0.0,1.0,3.0,3.0,384.5215910005208,4.0,1.0,phase_1,,,,,,,,,,,,,orange,square
0.0,6.0,0.0,1.0,1.0,1.0,300.2419439981167,4.0,1.0,phase_1,,,,,,,,,,,,,orange,square
0.0,6.0,0.0,1.0,4.0,4.0,423.4386989992345,4.0,1.0,phase_1,,,,,,,,,,,,,orange,square
156.0,5.0,1.0,1.0,3.0,3.0,319.4350880003185,4.0,1.0,phase_1,,,,,,,,,,,,,blue,diamond
0.0,2.0,0.0,0.0,4.0,4.0,302.8061469995009,4.0,1.0,phase_1,,,,,,,,,,,,,green,circle
337.0,2.0,2.0,0.0,2.0,2.0,878.1758190016262,4.0,1.0,phase_1,,,,,,,,,,,,,green,circle
307.0,6.0,2.0,1.0,1.0,1.0,366.1676399970019,4.0,1.0,phase_1,,,,,,,,,,,,,orange,square
659.0,7.0,3.0,1.0,3.0,3.0,291.6271479989518,4.0,1.0,phase_1,,,,,,,,,,,,,white,I
627.0,7.0,3.0,1.0,2.0,2.0,480.7339759972819,4.0,1.0,phase_1,,,,,,,,,,,,,white,I
0.0,6.0,2.0,1.0,5.0,5.0,623.8345769997977,1.0,1.0,phase_2,stop,250.0,250.0,3.0,,,,,,,,,orange,square
0.0,7.0,3.0,1.0,5.0,5.0,276.2256460009666,1.0,1.0,phase_2,go,200.0,250.0,1.0,,,,,,,,,white,I
0.0,1.0,1.0,0.0,6.0,6.0,340.1795040008437,1.0,1.0,phase_2,go,200.0,250.0,1.0,,,,,,,,,yellow,flipped triangle
0.0,8.0,4.0,1.0,6.0,6.0,338.3632240002043,1.0,1.0,phase_2,stop,200.0,250.0,3.0,,,,,,,,,cyan,cross
0.0,1.0,1.0,0.0,6.0,6.0,361.7349810010637,1.0,1.0,phase_2,go,200.0,200.0,1.0,,,,,,,,,yellow,flipped triangle
0.0,5.0,1.0,1.0,5.0,5.0,489.759435000451,1.0,1.0,phase_2,stop,200.0,200.0,3.0,,,,,,,,,blue,diamond
0.0,7.0,3.0,1.0,6.0,0.0,0.0,1.0,1.0,phase_2,stop,150.0,200.0,4.0,,,,,,,,,white,I
0.0,8.0,4.0,1.0,5.0,0.0,0.0,1.0,1.0,phase_2,stop,150.0,250.0,4.0,,,,,,,,,cyan,cross
0.0,4.0,4.0,0.0,5.0,5.0,473.3242789989162,1.0,1.0,phase_2,go,200.0,250.0,1.0,,,,,,,,,magenta,triangle
0.0,2.0,2.0,0.0,6.0,6.0,566.16545399811,1.0,1.0,phase_2,go,200.0,250.0,1.0,,,,,,,,,green,circle
0.0,6.0,2.0,1.0,6.0,6.0,418.7313619986526,1.0,1.0,phase_2,stop,200.0,250.0,3.0,,,,,,,,,orange,square
0.0,7.0,3.0,1.0,5.0,0.0,0.0,1.0,1.0,phase_2,stop,200.0,200.0,4.0,,,,,,,,,white,I
0.0,7.0,3.0,1.0,5.0,0.0,0.0,1.0,1.0,phase_2,stop,250.0,200.0,4.0,,,,,,,,,white,I
0.0,4.0,4.0,0.0,5.0,5.0,566.5532849998272,1.0,1.0,phase_2,go,300.0,200.0,1.0,,,,,,,,,magenta,triangle
0.0,8.0,4.0,1.0,6.0,0.0,0.0,1.0,1.0,phase_2,stop,300.0,200.0,4.0,,,,,,,,,cyan,cross
0.0,4.0,4.0,0.0,6.0,6.0,710.1314160026959,1.0,1.0,phase_2,go,300.0,250.0,1.0,,,,,,,,,magenta,triangle
0.0,2.0,2.0,0.0,6.0,6.0,745.3335059981328,1.0,1.0,phase_2,go,300.0,250.0,1.0,,,,,,,,,green,circle
0.0,8.0,4.0,1.0,5.0,0.0,0.0,1.0,1.0,phase_2,stop,300.0,250.0,4.0,,,,,,,,,cyan,cross
0.0,6.0,2.0,1.0,6.0,0.0,0.0,1.0,1.0,phase_2,stop,350.0,250.0,4.0,,,,,,,,,orange,square
0.0,8.0,4.0,1.0,6.0,0.0,0.0,1.0,1.0,phase_2,stop,350.0,300.0,4.0,,,,,,,,,cyan,cross
0.0,4.0,4.0,0.0,6.0,6.0,717.2250709991204,1.0,1.0,phase_2,go,350.0,350.0,1.0,,,,,,,,,magenta,triangle
0.0,3.0,3.0,0.0,5.0,5.0,671.0008529989864,1.0,1.0,phase_2,go,350.0,350.0,1.0,,,,,,,,,gray,hexagon
0.0,8.0,4.0,1.0,5.0,5.0,501.70761900153593,1.0,1.0,phase_2,go,350.0,350.0,1.0,,,,,,,,,cyan,cross
0.0,7.0,3.0,1.0,6.0,6.0,642.6061639976979,1.0,1.0,phase_2,stop,350.0,350.0,3.0,,,,,,,,,white,I
0.0,8.0,4.0,1.0,6.0,6.0,765.5915159994038,1.0,1.0,phase_2,go,350.0,300.0,1.0,,,,,,,,,cyan,cross
0.0,1.0,1.0,0.0,6.0,6.0,596.8174070003442,1.0,1.0,phase_2,go,350.0,300.0,1.0,,,,,,,,,yellow,flipped triangle
0.0,2.0,2.0,0.0,5.0,5.0,483.5114540001086,1.0,1.0,phase_2,go,350.0,300.0,1.0,,,,,,,,,green,circle
0.0,5.0,1.0,1.0,6.0,6.0,455.7907669986889,1.0,1.0,phase_2,stop,350.0,300.0,3.0,,,,,,,,,blue,diamond
0.0,5.0,1.0,1.0,6.0,0.0,0.0,1.0,1.0,phase_2,stop,350.0,250.0,4.0,,,,,,,,,blue,diamond
0.0,6.0,2.0,1.0,6.0,6.0,475.7534020027378,1.0,1.0,phase_2,stop,350.0,300.0,3.0,,,,,,,,,orange,square
0.0,4.0,4.0,0.0,5.0,5.0,804.8825780024345,1.0,1.0,phase_2,go,350.0,250.0,1.0,,,,,,,,,magenta,triangle
0.0,1.0,1.0,0.0,6.0,6.0,747.6879810019454,1.0,1.0,phase_2,go,350.0,250.0,1.0,,,,,,,,,yellow,flipped triangle
0.0,1.0,1.0,0.0,5.0,5.0,585.2195549996395,1.0,1.0,phase_2,go,350.0,250.0,1.0,,,,,,,,,yellow,flipped triangle
0.0,4.0,4.0,0.0,6.0,6.0,529.305285999726,1.0,1.0,phase_2,go,350.0,250.0,1.0,,,,,,,,,magenta,triangle
0.0,8.0,4.0,1.0,6.0,0.0,0.0,1.0,1.0,phase_2,stop,350.0,250.0,4.0,,,,,,,,,cyan,cross
0.0,5.0,1.0,1.0,6.0,0.0,0.0,1.0,1.0,phase_2,stop,350.0,300.0,4.0,,,,,,,,,blue,diamond
0.0,5.0,1.0,1.0,5.0,5.0,700.8491300002788,2.0,1.0,phase_2,go,350.0,350.0,1.0,,,,,,,,,blue,diamond
0.0,4.0,4.0,0.0,6.0,6.0,358.9225319992692,2.0,1.0,phase_2,go,350.0,350.0,1.0,,,,,,,,,magenta,triangle
0.0,6.0,2.0,1.0,5.0,5.0,497.0653210002638,2.0,1.0,phase_2,stop,350.0,350.0,3.0,,,,,,,,,orange,square
0.0,3.0,3.0,0.0,6.0,6.0,473.6782750005659,2.0,1.0,phase_2,go,300.0,350.0,1.0,,,,,,,,,gray,hexagon
0.0,7.0,3.0,1.0,5.0,5.0,511.1557339987485,2.0,1.0,phase_2,go,300.0,350.0,1.0,,,,,,,,,white,I
0.0,3.0,3.0,0.0,6.0,6.0,454.3042280020017,2.0,1.0,phase_2,go,300.0,350.0,1.0,,,,,,,,,gray,hexagon
0.0,6.0,2.0,1.0,5.0,5.0,347.9448250000132,2.0,1.0,phase_2,stop,300.0,350.0,3.0,,,,,,,,,orange,square
0.0,5.0,1.0,1.0,6.0,6.0,341.1680630015326,2.0,1.0,phase_2,stop,250.0,350.0,3.0,,,,,,,,,blue,diamond
0.0,7.0,3.0,1.0,6.0,0.0,0.0,2.0,1.0,phase_2,stop,250.0,300.0,4.0,,,,,,,,,white,I
0.0,1.0,1.0,0.0,6.0,6.0,577.3050210009387,2.0,1.0,phase_2,go,250.0,350.0,1.0,,,,,,,,,yellow,flipped triangle
0.0,7.0,3.0,1.0,6.0,6.0,321.9460180007445,2.0,1.0,phase_2,stop,250.0,350.0,3.0,,,,,,,,,white,I
0.0,8.0,4.0,1.0,5.0,5.0,427.7638310013572,2.0,1.0,phase_2,stop,250.0,300.0,3.0,,,,,,,,,cyan,cross
0.0,5.0,1.0,1.0,6.0,0.0,0.0,2.0,1.0,phase_2,stop,200.0,300.0,4.0,,,,,,,,,blue,diamond
0.0,3.0,3.0,0.0,6.0,6.0,557.6184320016182,2.0,1.0,phase_2,go,200.0,350.0,1.0,,,,,,,,,gray,hexagon
0.0,8.0,4.0,1.0,5.0,0.0,0.0,2.0,1.0,phase_2,stop,200.0,350.0,4.0,,,,,,,,,cyan,cross
0.0,5.0,1.0,1.0,5.0,0.0,0.0,2.0,1.0,phase_2,stop,250.0,350.0,4.0,,,,,,,,,blue,diamond
0.0,7.0,3.0,1.0,6.0,6.0,654.6626909985207,2.0,1.0,phase_2,go,300.0,350.0,1.0,,,,,,,,,white,I
0.0,3.0,3.0,0.0,6.0,6.0,748.3756500005256,2.0,1.0,phase_2,go,300.0,350.0,1.0,,,,,,,,,gray,hexagon
0.0,3.0,3.0,0.0,6.0,6.0,437.0410750016162,2.0,1.0,phase_2,go,300.0,350.0,1.0,,,,,,,,,gray,hexagon
0.0,8.0,4.0,1.0,5.0,5.0,533.4782099998847,2.0,1.0,phase_2,go,300.0,350.0,1.0,,,,,,,,,cyan,cross
0.0,1.0,1.0,0.0,6.0,6.0,445.4152059988701,2.0,1.0,phase_2,go,300.0,350.0,1.0,,,,,,,,,yellow,flipped triangle
0.0,7.0,3.0,1.0,5.0,5.0,389.6164830002817,2.0,1.0,phase_2,stop,300.0,350.0,3.0,,,,,,,,,white,I
0.0,1.0,1.0,0.0,6.0,6.0,540.3778079999029,2.0,1.0,phase_2,go,250.0,350.0,1.0,,,,,,,,,yellow,flipped triangle
0.0,5.0,1.0,1.0,5.0,0.0,0.0,2.0,1.0,phase_2,stop,250.0,350.0,4.0,,,,,,,,,blue,diamond
0.0,6.0,2.0,1.0,5.0,5.0,437.4567480008409,2.0,1.0,phase_2,stop,300.0,350.0,3.0,,,,,,,,,orange,square
0.0,1.0,1.0,0.0,6.0,6.0,665.8109370000602,2.0,1.0,phase_2,go,250.0,350.0,1.0,,,,,,,,,yellow,flipped triangle
0.0,6.0,2.0,1.0,6.0,6.0,636.0680610014242,2.0,1.0,phase_2,go,250.0,350.0,1.0,,,,,,,,,orange,square
0.0,6.0,2.0,1.0,6.0,6.0,464.8766980026266,2.0,1.0,phase_2,stop,250.0,350.0,3.0,,,,,,,,,orange,square
0.0,5.0,1.0,1.0,6.0,0.0,0.0,2.0,1.0,phase_2,stop,250.0,300.0,4.0,,,,,,,,,blue,diamond
0.0,2.0,2.0,0.0,5.0,5.0,587.1970169973793,2.0,1.0,phase_2,go,250.0,350.0,1.0,,,,,,,,,green,circle
0.0,6.0,2.0,1.0,6.0,0.0,0.0,2.0,1.0,phase_2,stop,250.0,350.0,4.0,,,,,,,,,orange,square
0.0,4.0,4.0,0.0,5.0,5.0,494.5841689986991,2.0,1.0,phase_2,go,250.0,400.0,1.0,,,,,,,,,magenta,triangle
0.0,7.0,3.0,1.0,5.0,0.0,0.0,2.0,1.0,phase_2,stop,250.0,400.0,4.0,,,,,,,,,white,I
0.0,5.0,1.0,1.0,6.0,6.0,556.1902330009616,2.0,1.0,phase_2,stop,300.0,400.0,3.0,,,,,,,,,blue,diamond
0.0,2.0,2.0,0.0,6.0,6.0,635.3083470021375,2.0,1.0,phase_2,go,300.0,350.0,1.0,,,,,,,,,green,circle
0.0,7.0,3.0,1.0,5.0,0.0,0.0,2.0,1.0,phase_2,stop,300.0,350.0,4.0,,,,,,,,,white,I
0.0,7.0,3.0,1.0,5.0,5.0,1125.268258998403,3.0,1.0,phase_2,go,350.0,350.0,1.0,,,,,,,,,white,I
0.0,8.0,4.0,1.0,6.0,6.0,294.0794200003438,3.0,1.0,phase_2,go,350.0,350.0,1.0,,,,,,,,,cyan,cross
0.0,3.0,3.0,0.0,6.0,6.0,405.8958839996194,3.0,1.0,phase_2,go,350.0,350.0,1.0,,,,,,,,,gray,hexagon
0.0,3.0,3.0,0.0,5.0,5.0,568.532730001607,3.0,1.0,phase_2,go,350.0,350.0,1.0,,,,,,,,,gray,hexagon
0.0,4.0,4.0,0.0,6.0,6.0,306.4202500027022,3.0,1.0,phase_2,go,350.0,350.0,1.0,,,,,,,,,magenta,triangle
0.0,4.0,4.0,0.0,6.0,6.0,381.0775769998145,3.0,1.0,phase_2,go,350.0,350.0,1.0,,,,,,,,,magenta,triangle
0.0,7.0,3.0,1.0,5.0,5.0,454.309872999147,3.0,1.0,phase_2,go,350.0,350.0,1.0,,,,,,,,,white,I
0.0,5.0,1.0,1.0,5.0,5.0,394.4206829983159,3.0,1.0,phase_2,stop,350.0,350.0,3.0,,,,,,,,,blue,diamond
0.0,4.0,4.0,0.0,5.0,5.0,579.8038259999885,3.0,1.0,phase_2,go,300.0,350.0,1.0,,,,,,,,,magenta,triangle
0.0,1.0,1.0,0.0,5.0,5.0,331.8684119985846,3.0,1.0,phase_2,go,300.0,350.0,1.0,,,,,,,,,yellow,flipped triangle
0.0,4.0,4.0,0.0,6.0,6.0,330.2980389998993,3.0,1.0,phase_2,go,300.0,350.0,1.0,,,,,,,,,magenta,triangle
0.0,1.0,1.0,0.0,5.0,5.0,568.5099910006102,3.0,1.0,phase_2,go,300.0,350.0,1.0,,,,,,,,,yellow,flipped triangle
0.0,8.0,4.0,1.0,6.0,6.0,408.7822479996248,3.0,1.0,phase_2,go,300.0,350.0,1.0,,,,,,,,,cyan,cross
0.0,2.0,2.0,0.0,6.0,6.0,304.505591000634,3.0,1.0,phase_2,go,300.0,350.0,1.0,,,,,,,,,green,circle
0.0,1.0,1.0,0.0,6.0,6.0,313.4622899997339,3.0,1.0,phase_2,go,300.0,350.0,1.0,,,,,,,,,yellow,flipped triangle
0.0,7.0,3.0,1.0,6.0,6.0,480.3077489996212,3.0,1.0,phase_2,stop,300.0,350.0,3.0,,,,,,,,,white,I
0.0,7.0,3.0,1.0,6.0,6.0,501.872402997833,3.0,1.0,phase_2,go,300.0,300.0,1.0,,,,,,,,,white,I
0.0,4.0,4.0,0.0,6.0,6.0,605.7690559973707,3.0,1.0,phase_2,go,300.0,300.0,1.0,,,,,,,,,magenta,triangle
0.0,2.0,2.0,0.0,5.0,5.0,378.1724979999126,3.0,1.0,phase_2,go,300.0,300.0,1.0,,,,,,,,,green,circle
0.0,8.0,4.0,1.0,6.0,6.0,339.8055280013068,3.0,1.0,phase_2,stop,300.0,300.0,3.0,,,,,,,,,cyan,cross
0.0,2.0,2.0,0.0,6.0,6.0,377.681156998733,3.0,1.0,phase_2,go,300.0,250.0,1.0,,,,,,,,,green,circle
0.0,1.0,1.0,0.0,6.0,6.0,453.1532940018223,3.0,1.0,phase_2,go,300.0,250.0,1.0,,,,,,,,,yellow,flipped triangle
0.0,8.0,4.0,1.0,5.0,5.0,556.7140960010875,3.0,1.0,phase_2,go,300.0,250.0,1.0,,,,,,,,,cyan,cross
0.0,1.0,1.0,0.0,5.0,5.0,396.1991600008332,3.0,1.0,phase_2,go,300.0,250.0,1.0,,,,,,,,,yellow,flipped triangle
0.0,3.0,3.0,0.0,5.0,5.0,397.0246889984992,3.0,1.0,phase_2,go,300.0,250.0,1.0,,,,,,,,,gray,hexagon
0.0,8.0,4.0,1.0,6.0,6.0,321.5563749981811,3.0,1.0,phase_2,stop,300.0,250.0,3.0,,,,,,,,,cyan,cross
0.0,5.0,1.0,1.0,5.0,5.0,389.825872000074,3.0,1.0,phase_2,go,300.0,200.0,1.0,,,,,,,,,blue,diamond
0.0,1.0,1.0,0.0,5.0,5.0,379.3391209983383,3.0,1.0,phase_2,go,300.0,200.0,1.0,,,,,,,,,yellow,flipped triangle
0.0,4.0,4.0,0.0,6.0,6.0,558.7002489992301,3.0,1.0,phase_2,go,300.0,200.0,1.0,,,,,,,,,magenta,triangle
0.0,2.0,2.0,0.0,5.0,5.0,444.7361700003966,3.0,1.0,phase_2,go,300.0,200.0,1.0,,,,,,,,,green,circle
0.0,4.0,4.0,0.0,6.0,6.0,356.1481399992772,3.0,1.0,phase_2,go,300.0,200.0,1.0,,,,,,,,,magenta,triangle
0.0,6.0,2.0,1.0,6.0,6.0,360.4057580014341,3.0,1.0,phase_2,go,300.0,200.0,1.0,,,,,,,,,orange,square
0.0,8.0,4.0,1.0,5.0,5.0,466.2125680006284,3.0,1.0,phase_2,stop,300.0,200.0,3.0,,,,,,,,,cyan,cross
0.0,2.0,2.0,0.0,5.0,5.0,359.4030080021184,3.0,1.0,phase_2,go,250.0,200.0,1.0,,,,,,,,,green,circle
0.0,5.0,1.0,1.0,5.0,5.0,432.2152200002165,3.0,1.0,phase_2,go,250.0,200.0,1.0,,,,,,,,,blue,diamond
0.0,1.0,1.0,0.0,5.0,5.0,402.2896799979207,3.0,1.0,phase_2,go,250.0,200.0,1.0,,,,,,,,,yellow,flipped triangle
0.0,8.0,4.0,1.0,5.0,5.0,438.3696919976501,4.0,1.0,phase_2,stop,250.0,200.0,3.0,,,,,,,,,cyan,cross
0.0,3.0,3.0,0.0,5.0,5.0,417.9137180035468,4.0,1.0,phase_2,go,200.0,200.0,1.0,,,,,,,,,gray,hexagon
0.0,3.0,3.0,0.0,6.0,6.0,714.84430000055,4.0,1.0,phase_2,go,200.0,200.0,1.0,,,,,,,,,gray,hexagon
0.0,1.0,1.0,0.0,5.0,5.0,447.4236249989189,4.0,1.0,phase_2,go,200.0,200.0,1.0,,,,,,,,,yellow,flipped triangle
0.0,3.0,3.0,0.0,6.0,6.0,417.2465330011619,4.0,1.0,phase_2,go,200.0,200.0,1.0,,,,,,,,,gray,hexagon
0.0,7.0,3.0,1.0,5.0,5.0,364.4545280003513,4.0,1.0,phase_2,stop,200.0,200.0,3.0,,,,,,,,,white,I
0.0,2.0,2.0,0.0,5.0,5.0,408.9325349996215,4.0,1.0,phase_2,go,150.0,200.0,1.0,,,,,,,,,green,circle
0.0,4.0,4.0,0.0,5.0,5.0,398.6600220014225,4.0,1.0,phase_2,go,150.0,200.0,1.0,,,,,,,,,magenta,triangle
0.0,4.0,4.0,0.0,5.0,5.0,446.8632959979004,4.0,1.0,phase_2,go,150.0,200.0,1.0,,,,,,,,,magenta,triangle
0.0,7.0,3.0,1.0,5.0,5.0,426.0591679994832,4.0,1.0,phase_2,go,150.0,200.0,1.0,,,,,,,,,white,I
0.0,2.0,2.0,0.0,6.0,6.0,324.5758850025595,4.0,1.0,phase_2,go,150.0,200.0,1.0,,,,,,,,,green,circle
0.0,3.0,3.0,0.0,6.0,6.0,353.0551670010027,4.0,1.0,phase_2,go,150.0,200.0,1.0,,,,,,,,,gray,hexagon
0.0,5.0,1.0,1.0,6.0,0.0,0.0,4.0,1.0,phase_2,stop,150.0,200.0,4.0,,,,,,,,,blue,diamond
0.0,5.0,1.0,1.0,6.0,6.0,465.3973860004043,4.0,1.0,phase_2,stop,150.0,250.0,3.0,,,,,,,,,blue,diamond
0.0,3.0,3.0,0.0,6.0,6.0,523.5463240023819,4.0,1.0,phase_2,go,150.0,200.0,1.0,,,,,,,,,gray,hexagon
0.0,7.0,3.0,1.0,5.0,0.0,0.0,4.0,1.0,phase_2,stop,150.0,200.0,4.0,,,,,,,,,white,I
0.0,6.0,2.0,1.0,6.0,0.0,0.0,4.0,1.0,phase_2,stop,200.0,200.0,4.0,,,,,,,,,orange,square
0.0,7.0,3.0,1.0,6.0,0.0,0.0,4.0,1.0,phase_2,stop,200.0,250.0,4.0,,,,,,,,,white,I
0.0,5.0,1.0,1.0,5.0,5.0,615.1226140027575,4.0,1.0,phase_2,go,200.0,300.0,1.0,,,,,,,,,blue,diamond
0.0,6.0,2.0,1.0,5.0,0.0,0.0,4.0,1.0,phase_2,stop,200.0,300.0,4.0,,,,,,,,,orange,square
0.0,1.0,1.0,0.0,5.0,5.0,527.1525829994061,4.0,1.0,phase_2,go,250.0,300.0,1.0,,,,,,,,,yellow,flipped triangle
0.0,2.0,2.0,0.0,6.0,6.0,551.02508300115,4.0,1.0,phase_2,go,250.0,300.0,1.0,,,,,,,,,green,circle
0.0,2.0,2.0,0.0,5.0,5.0,568.7791390009806,4.0,1.0,phase_2,go,250.0,300.0,1.0,,,,,,,,,green,circle
0.0,2.0,2.0,0.0,5.0,5.0,370.516401999339,4.0,1.0,phase_2,go,250.0,300.0,1.0,,,,,,,,,green,circle
0.0,5.0,1.0,1.0,6.0,6.0,398.9164560007339,4.0,1.0,phase_2,go,250.0,300.0,1.0,,,,,,,,,blue,diamond
0.0,3.0,3.0,0.0,5.0,5.0,428.0538160019205,4.0,1.0,phase_2,go,250.0,300.0,1.0,,,,,,,,,gray,hexagon
0.0,5.0,1.0,1.0,5.0,5.0,424.483352999232,4.0,1.0,phase_2,stop,250.0,300.0,3.0,,,,,,,,,blue,diamond
0.0,3.0,3.0,0.0,6.0,6.0,635.4588569993211,4.0,1.0,phase_2,go,200.0,300.0,1.0,,,,,,,,,gray,hexagon
0.0,2.0,2.0,0.0,5.0,5.0,587.3386919993209,4.0,1.0,phase_2,go,200.0,300.0,1.0,,,,,,,,,green,circle
0.0,7.0,3.0,1.0,6.0,6.0,460.9827439999208,4.0,1.0,phase_2,stop,200.0,300.0,3.0,,,,,,,,,white,I
0.0,5.0,1.0,1.0,5.0,0.0,0.0,4.0,1.0,phase_2,stop,200.0,250.0,4.0,,,,,,,,,blue,diamond
0.0,8.0,4.0,1.0,5.0,5.0,446.6225099968142,4.0,1.0,phase_2,stop,250.0,250.0,3.0,,,,,,,,,cyan,cross
0.0,6.0,2.0,1.0,6.0,6.0,539.5303339973907,4.0,1.0,phase_2,go,200.0,250.0,1.0,,,,,,,,,orange,square
0.0,2.0,2.0,0.0,5.0,5.0,757.3763180007518,4.0,1.0,phase_2,go,200.0,250.0,1.0,,,,,,,,,green,circle
0.0,4.0,4.0,0.0,5.0,5.0,387.9815790023713,4.0,1.0,phase_2,go,200.0,250.0,1.0,,,,,,,,,magenta,triangle
0.0,8.0,4.0,1.0,6.0,6.0,446.235927996895,4.0,1.0,phase_2,stop,200.0,250.0,3.0,,,,,,,,,cyan,cross
0.0,5.0,1.0,1.0,6.0,6.0,344.800495000527,5.0,1.0,phase_2,stop,200.0,200.0,3.0,,,,,,,,,blue,diamond
0.0,6.0,2.0,1.0,5.0,0.0,0.0,5.0,1.0,phase_2,stop,200.0,150.0,4.0,,,,,,,,,orange,square
0.0,3.0,3.0,0.0,5.0,5.0,360.0014220028242,5.0,1.0,phase_2,go,250.0,150.0,1.0,,,,,,,,,gray,hexagon
0.0,3.0,3.0,0.0,6.0,6.0,452.9567720019258,5.0,1.0,phase_2,go,250.0,150.0,1.0,,,,,,,,,gray,hexagon
0.0,3.0,3.0,0.0,6.0,6.0,426.4943609996408,5.0,1.0,phase_2,go,250.0,150.0,1.0,,,,,,,,,gray,hexagon
0.0,2.0,2.0,0.0,5.0,5.0,322.3624279999058,5.0,1.0,phase_2,go,250.0,150.0,1.0,,,,,,,,,green,circle
0.0,8.0,4.0,1.0,6.0,6.0,454.74527999977,5.0,1.0,phase_2,stop,250.0,150.0,3.0,,,,,,,,,cyan,cross
0.0,2.0,2.0,0.0,6.0,6.0,492.6607569977932,5.0,1.0,phase_2,go,250.0,100.0,1.0,,,,,,,,,green,circle
0.0,1.0,1.0,0.0,6.0,6.0,424.2331499990541,5.0,1.0,phase_2,go,250.0,100.0,1.0,,,,,,,,,yellow,flipped triangle
0.0,3.0,3.0,0.0,5.0,5.0,379.8328880002373,5.0,1.0,phase_2,go,250.0,100.0,1.0,,,,,,,,,gray,hexagon
0.0,7.0,3.0,1.0,6.0,6.0,476.1584980005864,5.0,1.0,phase_2,go,250.0,100.0,1.0,,,,,,,,,white,I
0.0,7.0,3.0,1.0,6.0,6.0,332.5579640004434,5.0,1.0,phase_2,stop,250.0,100.0,3.0,,,,,,,,,white,I
0.0,1.0,1.0,0.0,5.0,5.0,457.8229550024844,5.0,1.0,phase_2,go,250.0,50.0,1.0,,,,,,,,,yellow,flipped triangle
0.0,7.0,3.0,1.0,6.0,0.0,0.0,5.0,1.0,phase_2,stop,250.0,50.0,4.0,,,,,,,,,white,I
0.0,3.0,3.0,0.0,6.0,6.0,481.9976369981305,5.0,1.0,phase_2,go,250.0,100.0,1.0,,,,,,,,,gray,hexagon
0.0,2.0,2.0,0.0,6.0,6.0,445.8318169999984,5.0,1.0,phase_2,go,250.0,100.0,1.0,,,,,,,,,green,circle
0.0,8.0,4.0,1.0,5.0,5.0,618.6946100024215,5.0,1.0,phase_2,go,250.0,100.0,1.0,,,,,,,,,cyan,cross
0.0,6.0,2.0,1.0,5.0,5.0,359.4825120017049,5.0,1.0,phase_2,stop,250.0,100.0,3.0,,,,,,,,,orange,square
0.0,7.0,3.0,1.0,6.0,6.0,388.4065459969861,5.0,1.0,phase_2,stop,200.0,100.0,3.0,,,,,,,,,white,I
0.0,3.0,3.0,0.0,5.0,5.0,768.0282609981077,5.0,1.0,phase_2,go,200.0,50.0,1.0,,,,,,,,,gray,hexagon
0.0,6.0,2.0,1.0,6.0,0.0,0.0,5.0,1.0,phase_2,stop,200.0,50.0,4.0,,,,,,,,,orange,square
0.0,4.0,4.0,0.0,5.0,5.0,740.4614829974889,5.0,1.0,phase_2,go,200.0,100.0,1.0,,,,,,,,,magenta,triangle
0.0,4.0,4.0,0.0,5.0,5.0,371.1237440002151,5.0,1.0,phase_2,go,200.0,100.0,1.0,,,,,,,,,magenta,triangle
0.0,5.0,1.0,1.0,5.0,5.0,340.9640080026292,5.0,1.0,phase_2,go,200.0,100.0,1.0,,,,,,,,,blue,diamond
0.0,3.0,3.0,0.0,5.0,5.0,419.5393279987911,5.0,1.0,phase_2,go,200.0,100.0,1.0,,,,,,,,,gray,hexagon
0.0,5.0,1.0,1.0,5.0,5.0,332.1744009990652,5.0,1.0,phase_2,stop,200.0,100.0,3.0,,,,,,,,,blue,diamond
0.0,8.0,4.0,1.0,6.0,0.0,0.0,5.0,1.0,phase_2,stop,150.0,100.0,4.0,,,,,,,,,cyan,cross
0.0,7.0,3.0,1.0,6.0,0.0,0.0,5.0,1.0,phase_2,stop,150.0,150.0,4.0,,,,,,,,,white,I
0.0,4.0,4.0,0.0,6.0,6.0,1119.699061000574,5.0,1.0,phase_2,go,150.0,200.0,1.0,,,,,,,,,magenta,triangle
0.0,5.0,1.0,1.0,6.0,6.0,434.9695220007561,5.0,1.0,phase_2,go,150.0,200.0,1.0,,,,,,,,,blue,diamond
0.0,6.0,2.0,1.0,5.0,0.0,0.0,5.0,1.0,phase_2,stop,150.0,200.0,4.0,,,,,,,,,orange,square
0.0,4.0,4.0,0.0,5.0,5.0,519.7721810000075,5.0,1.0,phase_2,go,200.0,200.0,1.0,,,,,,,,,magenta,triangle
0.0,7.0,3.0,1.0,5.0,0.0,0.0,5.0,1.0,phase_2,stop,200.0,200.0,4.0,,,,,,,,,white,I
0.0,7.0,3.0,1.0,6.0,6.0,471.269437999581,5.0,1.0,phase_2,stop,250.0,200.0,3.0,,,,,,,,,white,I
0.0,2.0,2.0,0.0,6.0,6.0,483.4943240020948,5.0,1.0,phase_2,go,250.0,150.0,1.0,,,,,,,,,green,circle
0.0,3.0,3.0,0.0,5.0,5.0,509.54489200012176,5.0,1.0,phase_2,go,250.0,150.0,1.0,,,,,,,,,gray,hexagon
0.0,8.0,4.0,1.0,6.0,6.0,464.6246529991913,6.0,1.0,phase_2,stop,250.0,150.0,3.0,,,,,,,,,cyan,cross
0.0,4.0,4.0,0.0,6.0,6.0,484.1552389989374,6.0,1.0,phase_2,go,250.0,100.0,1.0,,,,,,,,,magenta,triangle
0.0,6.0,2.0,1.0,5.0,5.0,341.1053529998753,6.0,1.0,phase_2,stop,250.0,100.0,3.0,,,,,,,,,orange,square
0.0,1.0,1.0,0.0,5.0,5.0,331.1115670003346,6.0,1.0,phase_2,go,200.0,100.0,1.0,,,,,,,,,yellow,flipped triangle
0.0,6.0,2.0,1.0,5.0,5.0,426.5991209977073,6.0,1.0,phase_2,go,200.0,100.0,1.0,,,,,,,,,orange,square
0.0,3.0,3.0,0.0,5.0,5.0,351.1086790022091,6.0,1.0,phase_2,go,200.0,100.0,1.0,,,,,,,,,gray,hexagon
0.0,7.0,3.0,1.0,6.0,6.0,335.1349990007293,6.0,1.0,phase_2,stop,200.0,100.0,3.0,,,,,,,,,white,I
0.0,6.0,2.0,1.0,5.0,5.0,427.862415999698,6.0,1.0,phase_2,stop,200.0,50.0,3.0,,,,,,,,,orange,square
0.0,3.0,3.0,0.0,6.0,6.0,443.5007970023434,6.0,1.0,phase_2,go,150.0,50.0,1.0,,,,,,,,,gray,hexagon
0.0,5.0,1.0,1.0,6.0,6.0,339.2988360028539,6.0,1.0,phase_2,go,150.0,50.0,1.0,,,,,,,,,blue,diamond
0.0,5.0,1.0,1.0,5.0,5.0,402.3835669977416,6.0,1.0,phase_2,stop,150.0,50.0,3.0,,,,,,,,,blue,diamond
0.0,3.0,3.0,0.0,5.0,5.0,492.6433120017464,6.0,1.0,phase_2,go,100.0,50.0,1.0,,,,,,,,,gray,hexagon
0.0,8.0,4.0,1.0,6.0,6.0,407.004306998715,6.0,1.0,phase_2,go,100.0,50.0,1.0,,,,,,,,,cyan,cross
0.0,1.0,1.0,0.0,5.0,5.0,379.5153480023145,6.0,1.0,phase_2,go,100.0,50.0,1.0,,,,,,,,,yellow,flipped triangle
0.0,8.0,4.0,1.0,6.0,0.0,0.0,6.0,1.0,phase_2,stop,100.0,50.0,4.0,,,,,,,,,cyan,cross
0.0,1.0,1.0,0.0,6.0,6.0,396.7473419979797,6.0,1.0,phase_2,go,100.0,100.0,1.0,,,,,,,,,yellow,flipped triangle
0.0,5.0,1.0,1.0,6.0,0.0,0.0,6.0,1.0,phase_2,stop,100.0,100.0,4.0,,,,,,,,,blue,diamond
0.0,7.0,3.0,1.0,6.0,0.0,0.0,6.0,1.0,phase_2,stop,100.0,150.0,4.0,,,,,,,,,white,I
0.0,4.0,4.0,0.0,6.0,6.0,568.5630250009126,6.0,1.0,phase_2,go,100.0,200.0,1.0,,,,,,,,,magenta,triangle
0.0,7.0,3.0,1.0,5.0,0.0,0.0,6.0,1.0,phase_2,stop,100.0,200.0,4.0,,,,,,,,,white,I
0.0,8.0,4.0,1.0,6.0,0.0,0.0,6.0,1.0,phase_2,stop,150.0,200.0,4.0,,,,,,,,,cyan,cross
0.0,2.0,2.0,0.0,6.0,6.0,510.93472499997006,6.0,1.0,phase_2,go,150.0,250.0,1.0,,,,,,,,,green,circle
0.0,5.0,1.0,1.0,5.0,0.0,0.0,6.0,1.0,phase_2,stop,150.0,250.0,4.0,,,,,,,,,blue,diamond
0.0,6.0,2.0,1.0,5.0,0.0,0.0,6.0,1.0,phase_2,stop,200.0,250.0,4.0,,,,,,,,,orange,square
0.0,7.0,3.0,1.0,5.0,0.0,0.0,6.0,1.0,phase_2,stop,250.0,250.0,4.0,,,,,,,,,white,I
0.0,1.0,1.0,0.0,5.0,5.0,547.7250360017933,6.0,1.0,phase_2,go,300.0,250.0,1.0,,,,,,,,,yellow,flipped triangle
0.0,2.0,2.0,0.0,6.0,6.0,558.3801219981979,6.0,1.0,phase_2,go,300.0,250.0,1.0,,,,,,,,,green,circle
0.0,1.0,1.0,0.0,6.0,6.0,360.3345299998182,6.0,1.0,phase_2,go,300.0,250.0,1.0,,,,,,,,,yellow,flipped triangle
0.0,3.0,3.0,0.0,5.0,5.0,340.7992940010445,6.0,1.0,phase_2,go,300.0,250.0,1.0,,,,,,,,,gray,hexagon
0.0,4.0,4.0,0.0,5.0,5.0,396.9543849998445,6.0,1.0,phase_2,go,300.0,250.0,1.0,,,,,,,,,magenta,triangle
0.0,4.0,4.0,0.0,6.0,6.0,473.3901129984588,6.0,1.0,phase_2,go,300.0,250.0,1.0,,,,,,,,,magenta,triangle
0.0,2.0,2.0,0.0,6.0,6.0,397.3104309989139,6.0,1.0,phase_2,go,300.0,250.0,1.0,,,,,,,,,green,circle
0.0,7.0,3.0,1.0,5.0,5.0,381.5284580014122,6.0,1.0,phase_2,stop,300.0,250.0,3.0,,,,,,,,,white,I
0.0,6.0,2.0,1.0,5.0,5.0,529.3871050016605,6.0,1.0,phase_2,go,250.0,250.0,1.0,,,,,,,,,orange,square
0.0,6.0,2.0,1.0,6.0,6.0,433.5488149990851,6.0,1.0,phase_2,stop,250.0,250.0,3.0,,,,,,,,,orange,square
0.0,8.0,4.0,1.0,5.0,5.0,441.9592970007215,6.0,1.0,phase_2,stop,250.0,200.0,3.0,,,,,,,,,cyan,cross
0.0,7.0,3.0,1.0,5.0,5.0,342.882605997147,7.0,1.0,phase_2,go,200.0,200.0,1.0,,,,,,,,,white,I
0.0,8.0,4.0,1.0,5.0,0.0,0.0,7.0,1.0,phase_2,stop,200.0,200.0,4.0,,,,,,,,,cyan,cross
0.0,3.0,3.0,0.0,5.0,5.0,464.0895359989372,7.0,1.0,phase_2,go,250.0,200.0,1.0,,,,,,,,,gray,hexagon
0.0,2.0,2.0,0.0,5.0,5.0,483.063472998765,7.0,1.0,phase_2,go,250.0,200.0,1.0,,,,,,,,,green,circle
0.0,5.0,1.0,1.0,6.0,0.0,0.0,7.0,1.0,phase_2,stop,250.0,200.0,4.0,,,,,,,,,blue,diamond
0.0,6.0,2.0,1.0,6.0,0.0,0.0,7.0,1.0,phase_2,stop,250.0,250.0,4.0,,,,,,,,,orange,square
0.0,1.0,1.0,0.0,5.0,5.0,407.671601002221,7.0,1.0,phase_2,go,250.0,300.0,1.0,,,,,,,,,yellow,flipped triangle
0.0,1.0,1.0,0.0,5.0,5.0,311.731788002362,7.0,1.0,phase_2,go,250.0,300.0,1.0,,,,,,,,,yellow,flipped triangle
0.0,6.0,2.0,1.0,6.0,6.0,468.7115750020894,7.0,1.0,phase_2,stop,250.0,300.0,3.0,,,,,,,,,orange,square
0.0,1.0,1.0,0.0,5.0,5.0,540.0459510019573,7.0,1.0,phase_2,go,250.0,250.0,1.0,,,,,,,,,yellow,flipped triangle
0.0,2.0,2.0,0.0,5.0,5.0,331.2313450005604,7.0,1.0,phase_2,go,250.0,250.0,1.0,,,,,,,,,green,circle
0.0,6.0,2.0,1.0,6.0,6.0,321.7642519994115,7.0,1.0,phase_2,go,250.0,250.0,1.0,,,,,,,,,orange,square
0.0,1.0,1.0,0.0,6.0,6.0,343.2332680022227,7.0,1.0,phase_2,go,250.0,250.0,1.0,,,,,,,,,yellow,flipped triangle
0.0,4.0,4.0,0.0,5.0,5.0,371.1042249997263,7.0,1.0,phase_2,go,250.0,250.0,1.0,,,,,,,,,magenta,triangle
0.0,7.0,3.0,1.0,5.0,5.0,324.8841770000581,7.0,1.0,phase_2,stop,250.0,250.0,3.0,,,,,,,,,white,I
0.0,5.0,1.0,1.0,6.0,6.0,447.377836000669,7.0,1.0,phase_2,go,200.0,250.0,1.0,,,,,,,,,blue,diamond
0.0,6.0,2.0,1.0,6.0,6.0,378.5687149975274,7.0,1.0,phase_2,go,200.0,250.0,1.0,,,,,,,,,orange,square
0.0,3.0,3.0,0.0,5.0,5.0,465.9257439998328,7.0,1.0,phase_2,go,200.0,250.0,1.0,,,,,,,,,gray,hexagon
0.0,3.0,3.0,0.0,6.0,6.0,435.7785809988854,7.0,1.0,phase_2,go,200.0,250.0,1.0,,,,,,,,,gray,hexagon
0.0,2.0,2.0,0.0,6.0,6.0,294.5395839997218,7.0,1.0,phase_2,go,200.0,250.0,1.0,,,,,,,,,green,circle
0.0,1.0,1.0,0.0,6.0,6.0,322.8580659997533,7.0,1.0,phase_2,go,200.0,250.0,1.0,,,,,,,,,yellow,flipped triangle
0.0,2.0,2.0,0.0,5.0,5.0,389.4229110010201,7.0,1.0,phase_2,go,200.0,250.0,1.0,,,,,,,,,green,circle
0.0,6.0,2.0,1.0,5.0,5.0,375.3641650000645,7.0,1.0,phase_2,stop,200.0,250.0,3.0,,,,,,,,,orange,square
0.0,3.0,3.0,0.0,6.0,6.0,473.5751160005748,7.0,1.0,phase_2,go,150.0,250.0,1.0,,,,,,,,,gray,hexagon
0.0,6.0,2.0,1.0,5.0,0.0,0.0,7.0,1.0,phase_2,stop,150.0,250.0,4.0,,,,,,,,,orange,square
0.0,4.0,4.0,0.0,6.0,6.0,452.3016089988232,7.0,1.0,phase_2,go,200.0,250.0,1.0,,,,,,,,,magenta,triangle
0.0,3.0,3.0,0.0,5.0,5.0,445.2520929989987,7.0,1.0,phase_2,go,200.0,250.0,1.0,,,,,,,,,gray,hexagon
0.0,2.0,2.0,0.0,5.0,5.0,398.0009740007517,7.0,1.0,phase_2,go,200.0,250.0,1.0,,,,,,,,,green,circle
0.0,5.0,1.0,1.0,5.0,0.0,0.0,7.0,1.0,phase_2,stop,200.0,250.0,4.0,,,,,,,,,blue,diamond
0.0,4.0,4.0,0.0,6.0,6.0,381.1497679998865,7.0,1.0,phase_2,go,250.0,250.0,1.0,,,,,,,,,magenta,triangle
0.0,2.0,2.0,0.0,6.0,6.0,425.988506001886,7.0,1.0,phase_2,go,250.0,250.0,1.0,,,,,,,,,green,circle
0.0,4.0,4.0,0.0,5.0,5.0,502.80413500149734,7.0,1.0,phase_2,go,250.0,250.0,1.0,,,,,,,,,magenta,triangle
0.0,8.0,4.0,1.0,5.0,5.0,367.1872740014805,7.0,1.0,phase_2,stop,250.0,250.0,3.0,,,,,,,,,cyan,cross
0.0,5.0,1.0,1.0,5.0,0.0,0.0,7.0,1.0,phase_2,stop,200.0,250.0,4.0,,,,,,,,,blue,diamond
0.0,4.0,4.0,0.0,5.0,5.0,624.3650150026951,7.0,1.0,phase_2,go,250.0,250.0,1.0,,,,,,,,,magenta,triangle
0.0,6.0,2.0,1.0,5.0,5.0,425.972378001461,7.0,1.0,phase_2,stop,250.0,250.0,3.0,,,,,,,,,orange,square
0.0,6.0,2.0,1.0,6.0,0.0,0.0,8.0,1.0,phase_2,stop,200.0,250.0,4.0,,,,,,,,,orange,square
0.0,5.0,1.0,1.0,6.0,6.0,372.8374679994886,8.0,1.0,phase_2,stop,200.0,300.0,3.0,,,,,,,,,blue,diamond
0.0,4.0,4.0,0.0,6.0,6.0,511.6875829990022,8.0,1.0,phase_2,go,200.0,250.0,1.0,,,,,,,,,magenta,triangle
0.0,2.0,2.0,0.0,5.0,5.0,398.4119849992567,8.0,1.0,phase_2,go,200.0,250.0,1.0,,,,,,,,,green,circle
0.0,2.0,2.0,0.0,6.0,6.0,407.3671139994985,8.0,1.0,phase_2,go,200.0,250.0,1.0,,,,,,,,,green,circle
0.0,6.0,2.0,1.0,5.0,5.0,398.3768930011138,8.0,1.0,phase_2,go,200.0,250.0,1.0,,,,,,,,,orange,square
0.0,3.0,3.0,0.0,6.0,6.0,294.9627630005125,8.0,1.0,phase_2,go,200.0,250.0,1.0,,,,,,,,,gray,hexagon
0.0,8.0,4.0,1.0,6.0,0.0,0.0,8.0,1.0,phase_2,stop,200.0,250.0,4.0,,,,,,,,,cyan,cross
0.0,6.0,2.0,1.0,5.0,0.0,0.0,8.0,1.0,phase_2,stop,200.0,300.0,4.0,,,,,,,,,orange,square
0.0,1.0,1.0,0.0,5.0,5.0,539.557555999636,8.0,1.0,phase_2,go,250.0,300.0,1.0,,,,,,,,,yellow,flipped triangle
0.0,5.0,1.0,1.0,5.0,0.0,0.0,8.0,1.0,phase_2,stop,250.0,300.0,4.0,,,,,,,,,blue,diamond
0.0,8.0,4.0,1.0,5.0,0.0,0.0,8.0,1.0,phase_2,stop,300.0,300.0,4.0,,,,,,,,,cyan,cross
0.0,4.0,4.0,0.0,5.0,5.0,589.8484499994083,8.0,1.0,phase_2,go,350.0,300.0,1.0,,,,,,,,,magenta,triangle
0.0,8.0,4.0,1.0,6.0,0.0,0.0,8.0,1.0,phase_2,stop,350.0,300.0,4.0,,,,,,,,,cyan,cross
0.0,2.0,2.0,0.0,6.0,6.0,595.5784349971509,8.0,1.0,phase_2,go,350.0,350.0,1.0,,,,,,,,,green,circle
0.0,5.0,1.0,1.0,5.0,0.0,0.0,8.0,1.0,phase_2,stop,350.0,350.0,4.0,,,,,,,,,blue,diamond
0.0,2.0,2.0,0.0,6.0,6.0,578.7312940010452,8.0,1.0,phase_2,go,400.0,350.0,1.0,,,,,,,,,green,circle
0.0,3.0,3.0,0.0,5.0,5.0,653.835525001341,8.0,1.0,phase_2,go,400.0,350.0,1.0,,,,,,,,,gray,hexagon
0.0,2.0,2.0,0.0,5.0,5.0,416.9470819979324,8.0,1.0,phase_2,go,400.0,350.0,1.0,,,,,,,,,green,circle
0.0,8.0,4.0,1.0,5.0,5.0,523.5835909988964,8.0,1.0,phase_2,go,400.0,350.0,1.0,,,,,,,,,cyan,cross
0.0,1.0,1.0,0.0,6.0,6.0,361.151172000973,8.0,1.0,phase_2,go,400.0,350.0,1.0,,,,,,,,,yellow,flipped triangle
0.0,7.0,3.0,1.0,6.0,6.0,331.0775289974117,8.0,1.0,phase_2,stop,400.0,350.0,3.0,,,,,,,,,white,I
0.0,1.0,1.0,0.0,5.0,5.0,438.7756479991367,8.0,1.0,phase_2,go,400.0,300.0,1.0,,,,,,,,,yellow,flipped triangle
0.0,1.0,1.0,0.0,5.0,5.0,417.1882709997589,8.0,1.0,phase_2,go,400.0,300.0,1.0,,,,,,,,,yellow,flipped triangle
0.0,1.0,1.0,0.0,6.0,6.0,591.2677149972296,8.0,1.0,phase_2,go,400.0,300.0,1.0,,,,,,,,,yellow,flipped triangle
0.0,6.0,2.0,1.0,6.0,6.0,491.3375239993911,8.0,1.0,phase_2,stop,400.0,300.0,3.0,,,,,,,,,orange,square
0.0,4.0,4.0,0.0,5.0,5.0,597.1315499991761,8.0,1.0,phase_2,go,400.0,250.0,1.0,,,,,,,,,magenta,triangle
0.0,5.0,1.0,1.0,6.0,0.0,0.0,8.0,1.0,phase_2,stop,400.0,250.0,4.0,,,,,,,,,blue,diamond
0.0,8.0,4.0,1.0,5.0,5.0,513.8215289989603,8.0,1.0,phase_2,stop,400.0,300.0,3.0,,,,,,,,,cyan,cross
0.0,8.0,4.0,1.0,5.0,0.0,0.0,8.0,1.0,phase_2,stop,350.0,300.0,4.0,,,,,,,,,cyan,cross
0.0,1.0,1.0,0.0,6.0,6.0,596.1045950025436,8.0,1.0,phase_2,go,400.0,300.0,1.0,,,,,,,,,yellow,flipped triangle
0.0,4.0,4.0,0.0,6.0,6.0,566.7790309998963,8.0,1.0,phase_2,go,400.0,300.0,1.0,,,,,,,,,magenta,triangle
0.0,3.0,3.0,0.0,5.0,5.0,482.9717360007635,8.0,1.0,phase_2,go,400.0,300.0,1.0,,,,,,,,,gray,hexagon
0.0,4.0,4.0,0.0,5.0,5.0,532.0383809994382,8.0,1.0,phase_2,go,400.0,300.0,1.0,,,,,,,,,magenta,triangle
0.0,2.0,2.0,0.0,5.0,5.0,569.0876609987754,8.0,1.0,phase_2,go,400.0,300.0,1.0,,,,,,,,,green,circle
0.0,6.0,2.0,1.0,6.0,6.0,368.9867890025198,8.0,1.0,phase_2,go,400.0,300.0,1.0,,,,,,,,,orange,square
0.0,4.0,4.0,0.0,7.0,3.0,1821.6067450011903,1.0,1.0,phase_3,,,,,576.0,3.0,1152.0,384.0,576.0,768.0,960.0,192.0,magenta,triangle
0.0,1.0,1.0,0.0,7.0,5.0,2129.554775001452,1.0,1.0,phase_3,,,,,270.0,2.0,405.0,675.0,135.0,810.0,270.0,540.0,yellow,flipped triangle
0.0,4.0,4.0,0.0,7.0,1.0,2186.5851849979663,1.0,1.0,phase_3,,,,,173.0,1.0,173.0,346.0,1038.0,692.0,865.0,519.0,magenta,triangle
0.0,4.0,4.0,0.0,7.0,5.0,1862.400557998626,1.0,1.0,phase_3,,,,,462.0,3.0,616.0,924.0,308.0,770.0,462.0,154.0,magenta,triangle
0.0,4.0,4.0,0.0,7.0,1.0,1371.1663139984012,1.0,1.0,phase_3,,,,,580.0,5.0,580.0,348.0,116.0,464.0,232.0,696.0,magenta,triangle
0.0,2.0,2.0,0.0,7.0,6.0,1388.8736779990722,1.0,1.0,phase_3,,,,,1038.0,6.0,692.0,865.0,346.0,173.0,519.0,1038.0,green,circle
0.0,6.0,2.0,1.0,7.0,4.0,1621.6507400022238,1.0,1.0,phase_3,,,,,960.0,5.0,768.0,576.0,1152.0,960.0,384.0,192.0,orange,square
0.0,8.0,4.0,1.0,7.0,1.0,1736.7959119983425,1.0,1.0,phase_3,,,,,308.0,2.0,308.0,154.0,770.0,462.0,924.0,616.0,cyan,cross
0.0,1.0,1.0,0.0,7.0,6.0,1506.6967169987038,1.0,1.0,phase_3,,,,,768.0,4.0,576.0,960.0,384.0,1152.0,192.0,768.0,yellow,flipped triangle
0.0,7.0,3.0,1.0,7.0,4.0,1830.6015140005911,1.0,1.0,phase_3,,,,,462.0,3.0,616.0,154.0,924.0,462.0,770.0,308.0,white,I
0.0,7.0,3.0,1.0,7.0,1.0,3411.205997999786,1.0,1.0,phase_3,,,,,384.0,2.0,384.0,192.0,1152.0,576.0,768.0,960.0,white,I
0.0,1.0,1.0,0.0,7.0,3.0,1940.240937001363,1.0,1.0,phase_3,,,,,192.0,1.0,576.0,384.0,192.0,960.0,1152.0,768.0,yellow,flipped triangle
0.0,6.0,2.0,1.0,7.0,5.0,525.562329999957,1.0,1.0,phase_3,,,,,192.0,1.0,384.0,1152.0,576.0,768.0,192.0,960.0,orange,square
0.0,5.0,1.0,1.0,7.0,2.0,995.1915010024096,1.0,1.0,phase_3,,,,,1038.0,6.0,692.0,1038.0,173.0,346.0,519.0,865.0,blue,diamond
0.0,1.0,1.0,0.0,7.0,6.0,732.479867998336,1.0,1.0,phase_3,,,,,770.0,5.0,616.0,154.0,308.0,462.0,924.0,770.0,yellow,flipped triangle
0.0,6.0,2.0,1.0,7.0,5.0,657.2022999971523,1.0,1.0,phase_3,,,,,154.0,1.0,770.0,308.0,924.0,462.0,154.0,616.0,orange,square
0.0,5.0,1.0,1.0,7.0,2.0,882.5504060005187,1.0,1.0,phase_3,,,,,768.0,4.0,384.0,768.0,960.0,1152.0,192.0,576.0,blue,diamond
0.0,7.0,3.0,1.0,7.0,1.0,404.220909000287,1.0,1.0,phase_3,,,,,462.0,3.0,462.0,924.0,770.0,308.0,616.0,154.0,white,I
0.0,5.0,1.0,1.0,7.0,5.0,517.4514050013386,1.0,1.0,phase_3,,,,,308.0,2.0,462.0,924.0,616.0,154.0,308.0,770.0,blue,diamond
0.0,8.0,4.0,1.0,7.0,2.0,1317.7465300032054,1.0,1.0,phase_3,,,,,384.0,2.0,1152.0,384.0,192.0,960.0,576.0,768.0,cyan,cross
0.0,8.0,4.0,1.0,7.0,4.0,594.1784579990781,2.0,1.0,phase_3,,,,,540.0,4.0,135.0,810.0,675.0,540.0,270.0,405.0,cyan,cross
0.0,2.0,2.0,0.0,7.0,6.0,760.8708320003643,2.0,1.0,phase_3,,,,,384.0,2.0,192.0,768.0,576.0,960.0,1152.0,384.0,green,circle
0.0,2.0,2.0,0.0,7.0,2.0,958.322839000175,2.0,1.0,phase_3,,,,,384.0,2.0,576.0,384.0,192.0,1152.0,960.0,768.0,green,circle
0.0,3.0,3.0,0.0,7.0,3.0,994.336404997739,2.0,1.0,phase_3,,,,,464.0,4.0,580.0,696.0,464.0,348.0,116.0,232.0,gray,hexagon
0.0,5.0,1.0,1.0,7.0,2.0,896.734579000622,2.0,1.0,phase_3,,,,,232.0,2.0,116.0,232.0,696.0,464.0,580.0,348.0,blue,diamond
0.0,5.0,1.0,1.0,7.0,5.0,488.2654169996385,2.0,1.0,phase_3,,,,,810.0,6.0,270.0,675.0,540.0,135.0,810.0,405.0,blue,diamond
0.0,7.0,3.0,1.0,7.0,4.0,656.4525629983109,2.0,1.0,phase_3,,,,,116.0,1.0,696.0,464.0,232.0,116.0,580.0,348.0,white,I
0.0,4.0,4.0,0.0,7.0,5.0,1032.607568999083,2.0,1.0,phase_3,,,,,924.0,6.0,308.0,462.0,616.0,770.0,924.0,154.0,magenta,triangle
0.0,4.0,4.0,0.0,7.0,4.0,670.3337219987588,2.0,1.0,phase_3,,,,,519.0,3.0,173.0,346.0,692.0,519.0,865.0,1038.0,magenta,triangle
0.0,3.0,3.0,0.0,7.0,2.0,958.3494459984648,2.0,1.0,phase_3,,,,,540.0,4.0,810.0,540.0,405.0,675.0,135.0,270.0,gray,hexagon
0.0,3.0,3.0,0.0,7.0,2.0,1207.2745320001561,2.0,1.0,phase_3,,,,,696.0,6.0,580.0,696.0,116.0,232.0,348.0,464.0,gray,hexagon
0.0,2.0,2.0,0.0,7.0,5.0,721.8171399981657,2.0,1.0,phase_3,,,,,405.0,3.0,810.0,675.0,270.0,540.0,405.0,135.0,green,circle
0.0,1.0,1.0,0.0,7.0,2.0,695.9696560006705,2.0,1.0,phase_3,,,,,135.0,1.0,810.0,135.0,270.0,675.0,405.0,540.0,yellow,flipped triangle
0.0,1.0,1.0,0.0,7.0,5.0,564.2205579970323,2.0,1.0,phase_3,,,,,173.0,1.0,346.0,865.0,692.0,1038.0,173.0,519.0,yellow,flipped triangle
0.0,4.0,4.0,0.0,7.0,4.0,1164.3093380007483,2.0,1.0,phase_3,,,,,384.0,2.0,768.0,576.0,1152.0,384.0,960.0,192.0,magenta,triangle
0.0,3.0,3.0,0.0,7.0,2.0,807.4754890003533,2.0,1.0,phase_3,,,,,810.0,6.0,270.0,810.0,405.0,675.0,135.0,540.0,gray,hexagon
0.0,8.0,4.0,1.0,7.0,3.0,639.6084110019729,2.0,1.0,phase_3,,,,,810.0,6.0,270.0,405.0,810.0,135.0,675.0,540.0,cyan,cross
0.0,7.0,3.0,1.0,7.0,6.0,744.0480910008773,2.0,1.0,phase_3,,,,,1038.0,6.0,692.0,865.0,346.0,173.0,519.0,1038.0,white,I
0.0,2.0,2.0,0.0,7.0,2.0,545.9180530015146,2.0,1.0,phase_3,,,,,616.0,4.0,154.0,616.0,308.0,462.0,924.0,770.0,green,circle
0.0,2.0,2.0,0.0,7.0,3.0,779.9194479994185,2.0,1.0,phase_3,,,,,770.0,5.0,154.0,616.0,770.0,924.0,462.0,308.0,green,circle
0.0,7.0,3.0,1.0,7.0,4.0,506.8692300010298,3.0,1.0,phase_3,,,,,232.0,2.0,116.0,348.0,696.0,232.0,580.0,464.0,white,I
0.0,7.0,3.0,1.0,7.0,4.0,695.1497539994307,3.0,1.0,phase_3,,,,,675.0,5.0,135.0,810.0,405.0,675.0,540.0,270.0,white,I
0.0,7.0,3.0,1.0,7.0,6.0,1392.790737998439,3.0,1.0,phase_3,,,,,675.0,5.0,405.0,810.0,540.0,135.0,270.0,675.0,white,I
0.0,8.0,4.0,1.0,7.0,4.0,1072.205007996672,3.0,1.0,phase_3,,,,,865.0,5.0,692.0,519.0,1038.0,865.0,346.0,173.0,cyan,cross
0.0,2.0,2.0,0.0,7.0,5.0,609.4804790009221,3.0,1.0,phase_3,,,,,540.0,4.0,810.0,270.0,675.0,405.0,540.0,135.0,green,circle
0.0,2.0,2.0,0.0,7.0,2.0,591.7645109984733,3.0,1.0,phase_3,,,,,696.0,6.0,580.0,696.0,232.0,116.0,348.0,464.0,green,circle
0.0,1.0,1.0,0.0,7.0,2.0,1163.0480009989697,3.0,1.0,phase_3,,,,,154.0,1.0,462.0,154.0,924.0,770.0,308.0,616.0,yellow,flipped triangle
0.0,1.0,1.0,0.0,7.0,4.0,1259.076632999495,3.0,1.0,phase_3,,,,,116.0,1.0,696.0,348.0,580.0,116.0,464.0,232.0,yellow,flipped triangle
0.0,5.0,1.0,1.0,7.0,6.0,1013.0230360009591,3.0,1.0,phase_3,,,,,346.0,2.0,173.0,692.0,1038.0,519.0,865.0,346.0,blue,diamond
0.0,6.0,2.0,1.0,7.0,3.0,1268.5270160000073,3.0,1.0,phase_3,,,,,464.0,4.0,232.0,116.0,464.0,580.0,348.0,696.0,orange,square
0.0,3.0,3.0,0.0,7.0,2.0,1032.6356900004612,3.0,1.0,phase_3,,,,,865.0,5.0,1038.0,865.0,519.0,346.0,173.0,692.0,gray,hexagon
0.0,3.0,3.0,0.0,7.0,3.0,1050.0254159996985,3.0,1.0,phase_3,,,,,616.0,4.0,770.0,462.0,616.0,308.0,924.0,154.0,gray,hexagon
0.0,6.0,2.0,1.0,7.0,6.0,618.639546999475,3.0,1.0,phase_3,,,,,232.0,2.0,696.0,116.0,580.0,348.0,464.0,232.0,orange,square
0.0,3.0,3.0,0.0,7.0,6.0,975.1241480007592,3.0,1.0,phase_3,,,,,616.0,4.0,924.0,770.0,308.0,154.0,462.0,616.0,gray,hexagon
0.0,7.0,3.0,1.0,7.0,6.0,815.7203029986704,3.0,1.0,phase_3,,,,,384.0,2.0,1152.0,768.0,192.0,960.0,576.0,384.0,white,I
0.0,4.0,4.0,0.0,7.0,4.0,664.7424430011597,3.0,1.0,phase_3,,,,,135.0,1.0,270.0,810.0,540.0,135.0,405.0,675.0,magenta,triangle
0.0,6.0,2.0,1.0,7.0,6.0,602.339305998612,3.0,1.0,phase_3,,,,,540.0,4.0,675.0,270.0,135.0,405.0,810.0,540.0,orange,square
0.0,6.0,2.0,1.0,7.0,6.0,882.9217979982786,3.0,1.0,phase_3,,,,,135.0,1.0,810.0,270.0,675.0,405.0,540.0,135.0,orange,square
0.0,2.0,2.0,0.0,7.0,4.0,590.8529200023622,3.0,1.0,phase_3,,,,,580.0,5.0,464.0,696.0,116.0,580.0,232.0,348.0,green,circle
0.0,5.0,1.0,1.0,7.0,4.0,733.1524100009119,3.0,1.0,phase_3,,,,,576.0,3.0,192.0,768.0,1152.0,576.0,960.0,384.0,blue,diamond
0.0,6.0,2.0,1.0,7.0,4.0,726.2673100012762,4.0,1.0,phase_3,,,,,173.0,1.0,865.0,346.0,1038.0,173.0,519.0,692.0,orange,square
0.0,5.0,1.0,1.0,7.0,1.0,376.8964139999298,4.0,1.0,phase_3,,,,,308.0,2.0,308.0,616.0,154.0,770.0,924.0,462.0,blue,diamond
0.0,2.0,2.0,0.0,7.0,6.0,492.3808950006787,4.0,1.0,phase_3,,,,,346.0,2.0,865.0,692.0,519.0,173.0,1038.0,346.0,green,circle
0.0,3.0,3.0,0.0,7.0,4.0,536.2132359987299,4.0,1.0,phase_3,,,,,192.0,1.0,384.0,768.0,576.0,192.0,1152.0,960.0,gray,hexagon
0.0,5.0,1.0,1.0,7.0,2.0,434.085030999995,4.0,1.0,phase_3,,,,,580.0,5.0,696.0,580.0,232.0,116.0,464.0,348.0,blue,diamond
0.0,8.0,4.0,1.0,7.0,4.0,451.6004520010028,4.0,1.0,phase_3,,,,,770.0,5.0,308.0,154.0,462.0,770.0,616.0,924.0,cyan,cross
0.0,5.0,1.0,1.0,7.0,5.0,631.0474070014607,4.0,1.0,phase_3,,,,,810.0,6.0,405.0,135.0,675.0,540.0,810.0,270.0,blue,diamond
0.0,6.0,2.0,1.0,7.0,4.0,531.9040690010297,4.0,1.0,phase_3,,,,,616.0,4.0,462.0,308.0,154.0,616.0,924.0,770.0,orange,square
0.0,8.0,4.0,1.0,7.0,2.0,697.0002320013009,4.0,1.0,phase_3,,,,,173.0,1.0,692.0,173.0,346.0,865.0,519.0,1038.0,cyan,cross
0.0,3.0,3.0,0.0,7.0,6.0,1101.726934000908,4.0,1.0,phase_3,,,,,768.0,4.0,1152.0,192.0,960.0,576.0,384.0,768.0,gray,hexagon
0.0,7.0,3.0,1.0,7.0,4.0,601.895728999807,4.0,1.0,phase_3,,,,,692.0,4.0,865.0,1038.0,346.0,692.0,173.0,519.0,white,I
0.0,8.0,4.0,1.0,7.0,2.0,350.2213980027591,4.0,1.0,phase_3,,,,,768.0,4.0,384.0,768.0,1152.0,576.0,192.0,960.0,cyan,cross
0.0,8.0,4.0,1.0,7.0,4.0,604.6670579999045,4.0,1.0,phase_3,,,,,232.0,2.0,116.0,464.0,348.0,232.0,580.0,696.0,cyan,cross
0.0,1.0,1.0,0.0,7.0,4.0,920.162184000219,4.0,1.0,phase_3,,,,,696.0,6.0,232.0,580.0,116.0,696.0,348.0,464.0,yellow,flipped triangle
0.0,1.0,1.0,0.0,7.0,5.0,631.0743549984181,4.0,1.0,phase_3,,,,,173.0,1.0,519.0,865.0,1038.0,692.0,173.0,346.0,yellow,flipped triangle
0.0,3.0,3.0,0.0,7.0,6.0,613.0292859998008,4.0,1.0,phase_3,,,,,346.0,2.0,1038.0,692.0,519.0,865.0,173.0,346.0,gray,hexagon
0.0,8.0,4.0,1.0,7.0,1.0,516.4186139991216,4.0,1.0,phase_3,,,,,580.0,5.0,580.0,464.0,232.0,116.0,696.0,348.0,cyan,cross
0.0,4.0,4.0,0.0,7.0,5.0,445.24791799995,4.0,1.0,phase_3,,,,,810.0,6.0,675.0,135.0,405.0,270.0,810.0,540.0,magenta,triangle
0.0,6.0,2.0,1.0,7.0,4.0,544.5065359999717,4.0,1.0,phase_3,,,,,692.0,4.0,346.0,519.0,1038.0,692.0,865.0,173.0,orange,square
0.0,4.0,4.0,0.0,7.0,5.0,611.0443020006642,4.0,1.0,phase_3,,,,,232.0,2.0,580.0,464.0,348.0,116.0,232.0,696.0,magenta,triangle
