raw_reward_magnitude,stim_reward,stepwise_reward_magnitude,paired_with_stopping,quadrant,response,reaction_time,block,num_trial_presentations,which_part,stop_signal_trial_type,left_SSD,right_SSD,accuracy,chosen_bidding_amount,chosen_bidding_level,possible_bid_1,possible_bid_2,possible_bid_3,possible_bid_4,possible_bid_5,possible_bid_6,color_text,shape_text
144.0,1.0,1.0,0.0,4.0,4.0,486.7204729998775,1.0,1.0,part_1,,,,,,,,,,,,,orange,triangle
1278.0,4.0,4.0,0.0,3.0,3.0,429.1364499999872,1.0,1.0,part_1,,,,,,,,,,,,,white,square
306.0,6.0,2.0,1.0,1.0,1.0,566.0509809999894,1.0,1.0,part_1,,,,,,,,,,,,,gray,flipped triangle
147.0,5.0,1.0,1.0,2.0,2.0,386.9427550000637,1.0,1.0,part_1,,,,,,,,,,,,,green,cross
308.0,2.0,2.0,0.0,4.0,4.0,381.6950880000149,1.0,1.0,part_1,,,,,,,,,,,,,cyan,I
173.0,5.0,1.0,1.0,4.0,4.0,362.9350999999587,1.0,1.0,part_1,,,,,,,,,,,,,green,cross
1308.0,4.0,4.0,0.0,1.0,1.0,447.0665549999921,1.0,1.0,part_1,,,,,,,,,,,,,white,square
344.0,6.0,2.0,1.0,4.0,4.0,363.5251739999603,1.0,1.0,part_1,,,,,,,,,,,,,gray,flipped triangle
1304.0,8.0,4.0,1.0,2.0,2.0,279.1283970000222,1.0,1.0,part_1,,,,,,,,,,,,,magenta,hexagon
142.0,1.0,1.0,0.0,1.0,1.0,499.7456549999697,1.0,1.0,part_1,,,,,,,,,,,,,orange,triangle
1285.0,8.0,4.0,1.0,3.0,3.0,297.7260840000326,1.0,1.0,part_1,,,,,,,,,,,,,magenta,hexagon
183.0,1.0,1.0,0.0,1.0,1.0,324.7413130000041,1.0,1.0,part_1,,,,,,,,,,,,,orange,triangle
0.0,8.0,0.0,1.0,3.0,3.0,334.7154699999919,1.0,1.0,part_1,,,,,,,,,,,,,magenta,hexagon
659.0,3.0,3.0,0.0,2.0,2.0,298.8914780000868,1.0,1.0,part_1,,,,,,,,,,,,,blue,circle
0.0,7.0,0.0,1.0,1.0,1.0,333.7250179999955,1.0,1.0,part_1,,,,,,,,,,,,,yellow,diamond
325.0,6.0,2.0,1.0,2.0,2.0,389.9762359999386,1.0,1.0,part_1,,,,,,,,,,,,,gray,flipped triangle
0.0,2.0,0.0,0.0,2.0,2.0,331.6104059999816,1.0,1.0,part_1,,,,,,,,,,,,,cyan,I
1303.0,4.0,4.0,0.0,1.0,1.0,334.1638419999526,1.0,1.0,part_1,,,,,,,,,,,,,white,square
349.0,2.0,2.0,0.0,1.0,1.0,333.3345910000389,1.0,1.0,part_1,,,,,,,,,,,,,cyan,I
1301.0,8.0,4.0,1.0,2.0,2.0,342.1608700000433,1.0,1.0,part_1,,,,,,,,,,,,,magenta,hexagon
0.0,4.0,0.0,0.0,2.0,2.0,314.7472279999874,1.0,1.0,part_1,,,,,,,,,,,,,white,square
343.0,6.0,2.0,1.0,2.0,2.0,277.6473379999515,1.0,1.0,part_1,,,,,,,,,,,,,gray,flipped triangle
306.0,2.0,2.0,0.0,3.0,3.0,353.2759940001142,1.0,1.0,part_1,,,,,,,,,,,,,cyan,I
0.0,6.0,0.0,1.0,4.0,4.0,327.5812040001256,1.0,1.0,part_1,,,,,,,,,,,,,gray,flipped triangle
1325.0,4.0,4.0,0.0,1.0,1.0,297.1287609998398,1.0,1.0,part_1,,,,,,,,,,,,,white,square
1292.0,8.0,4.0,1.0,2.0,2.0,268.5477569998511,1.0,1.0,part_1,,,,,,,,,,,,,magenta,hexagon
652.0,3.0,3.0,0.0,1.0,1.0,382.2693540000728,1.0,1.0,part_1,,,,,,,,,,,,,blue,circle
1278.0,4.0,4.0,0.0,1.0,1.0,343.4900110000853,1.0,1.0,part_1,,,,,,,,,,,,,white,square
314.0,2.0,2.0,0.0,2.0,2.0,306.5371550001146,1.0,1.0,part_1,,,,,,,,,,,,,cyan,I
0.0,8.0,0.0,1.0,3.0,3.0,352.6839090000067,1.0,1.0,part_1,,,,,,,,,,,,,magenta,hexagon
634.0,7.0,3.0,1.0,3.0,3.0,306.2095200002659,1.0,1.0,part_1,,,,,,,,,,,,,yellow,diamond
646.0,7.0,3.0,1.0,3.0,3.0,295.8677520000492,1.0,1.0,part_1,,,,,,,,,,,,,yellow,diamond
344.0,2.0,2.0,0.0,1.0,1.0,438.1934109997019,1.0,2.0,part_1,,,,,,,,,,,,,cyan,I
1320.0,8.0,4.0,1.0,3.0,3.0,451.6949960002421,1.0,1.0,part_1,,,,,,,,,,,,,magenta,hexagon
0.0,2.0,0.0,0.0,3.0,3.0,344.9567009997736,1.0,1.0,part_1,,,,,,,,,,,,,cyan,I
0.0,6.0,0.0,1.0,1.0,1.0,382.7669000002061,1.0,1.0,part_1,,,,,,,,,,,,,gray,flipped triangle
1294.0,4.0,4.0,0.0,2.0,2.0,343.6015869997391,1.0,1.0,part_1,,,,,,,,,,,,,white,square
0.0,2.0,0.0,0.0,2.0,2.0,315.7312240000465,1.0,1.0,part_1,,,,,,,,,,,,,cyan,I
668.0,3.0,3.0,0.0,3.0,3.0,344.0640429998893,1.0,1.0,part_1,,,,,,,,,,,,,blue,circle
1296.0,4.0,4.0,0.0,3.0,3.0,362.9965300001458,1.0,1.0,part_1,,,,,,,,,,,,,white,square
627.0,7.0,3.0,1.0,1.0,1.0,325.6503609995889,1.0,1.0,part_1,,,,,,,,,,,,,yellow,diamond
154.0,1.0,1.0,0.0,2.0,2.0,306.3171889998557,1.0,1.0,part_1,,,,,,,,,,,,,orange,triangle
656.0,7.0,3.0,1.0,4.0,4.0,344.7823279998374,1.0,1.0,part_1,,,,,,,,,,,,,yellow,diamond
670.0,7.0,3.0,1.0,3.0,3.0,275.919843000338,1.0,1.0,part_1,,,,,,,,,,,,,yellow,diamond
668.0,7.0,3.0,1.0,2.0,2.0,307.7184359999592,1.0,1.0,part_1,,,,,,,,,,,,,yellow,diamond
649.0,7.0,3.0,1.0,4.0,4.0,363.1695839999338,1.0,1.0,part_1,,,,,,,,,,,,,yellow,diamond
327.0,2.0,2.0,0.0,3.0,3.0,287.8590350001104,1.0,1.0,part_1,,,,,,,,,,,,,cyan,I
1303.0,8.0,4.0,1.0,4.0,4.0,345.7604410000385,1.0,1.0,part_1,,,,,,,,,,,,,magenta,hexagon
0.0,2.0,0.0,0.0,3.0,3.0,286.901793999732,1.0,1.0,part_1,,,,,,,,,,,,,cyan,I
0.0,6.0,0.0,1.0,2.0,2.0,316.033852000146,1.0,1.0,part_1,,,,,,,,,,,,,gray,flipped triangle
1315.0,8.0,4.0,1.0,2.0,2.0,345.1248500000474,1.0,1.0,part_1,,,,,,,,,,,,,magenta,hexagon
0.0,1.0,0.0,0.0,4.0,4.0,325.4425449999871,1.0,1.0,part_1,,,,,,,,,,,,,orange,triangle
319.0,6.0,2.0,1.0,2.0,2.0,362.6534509999146,1.0,2.0,part_1,,,,,,,,,,,,,gray,flipped triangle
1297.0,8.0,4.0,1.0,4.0,4.0,372.4636719998671,1.0,1.0,part_1,,,,,,,,,,,,,magenta,hexagon
303.0,6.0,2.0,1.0,3.0,3.0,287.8431860003729,1.0,1.0,part_1,,,,,,,,,,,,,gray,flipped triangle
669.0,7.0,3.0,1.0,2.0,2.0,276.6610470002888,1.0,1.0,part_1,,,,,,,,,,,,,yellow,diamond
668.0,3.0,3.0,0.0,1.0,1.0,381.193451999934,1.0,1.0,part_1,,,,,,,,,,,,,blue,circle
308.0,6.0,2.0,1.0,1.0,1.0,392.4234589999287,1.0,1.0,part_1,,,,,,,,,,,,,gray,flipped triangle
675.0,7.0,3.0,1.0,2.0,2.0,354.3630710000798,1.0,1.0,part_1,,,,,,,,,,,,,yellow,diamond
337.0,2.0,2.0,0.0,1.0,1.0,325.2147429998331,1.0,1.0,part_1,,,,,,,,,,,,,cyan,I
0.0,8.0,0.0,1.0,2.0,2.0,334.2259890000605,1.0,1.0,part_1,,,,,,,,,,,,,magenta,hexagon
656.0,7.0,3.0,1.0,1.0,1.0,334.6241909998753,1.0,1.0,part_1,,,,,,,,,,,,,yellow,diamond
160.0,5.0,1.0,1.0,1.0,1.0,315.9577530000206,1.0,1.0,part_1,,,,,,,,,,,,,green,cross
337.0,2.0,2.0,0.0,4.0,4.0,410.4225609999048,1.0,1.0,part_1,,,,,,,,,,,,,cyan,I
1286.0,4.0,4.0,0.0,1.0,1.0,395.2397930002007,1.0,1.0,part_1,,,,,,,,,,,,,white,square
0.0,2.0,0.0,0.0,2.0,2.0,438.3527130003131,1.0,1.0,part_1,,,,,,,,,,,,,cyan,I
146.0,5.0,1.0,1.0,2.0,2.0,315.6786839999768,1.0,1.0,part_1,,,,,,,,,,,,,green,cross
337.0,6.0,2.0,1.0,1.0,1.0,325.6037599999217,1.0,1.0,part_1,,,,,,,,,,,,,gray,flipped triangle
347.0,2.0,2.0,0.0,1.0,1.0,285.9283590000814,1.0,1.0,part_1,,,,,,,,,,,,,cyan,I
0.0,5.0,0.0,1.0,1.0,1.0,315.0558850002198,1.0,1.0,part_1,,,,,,,,,,,,,green,cross
313.0,2.0,2.0,0.0,2.0,2.0,305.9810479999214,1.0,1.0,part_1,,,,,,,,,,,,,cyan,I
1278.0,8.0,4.0,1.0,3.0,3.0,353.5648039996886,1.0,1.0,part_1,,,,,,,,,,,,,magenta,hexagon
330.0,2.0,2.0,0.0,4.0,4.0,315.2268429998912,1.0,1.0,part_1,,,,,,,,,,,,,cyan,I
0.0,5.0,0.0,1.0,4.0,4.0,439.5251539999663,1.0,1.0,part_1,,,,,,,,,,,,,green,cross
0.0,7.0,0.0,1.0,4.0,4.0,336.7973819999861,1.0,1.0,part_1,,,,,,,,,,,,,yellow,diamond
314.0,6.0,2.0,1.0,1.0,1.0,333.0381309997392,1.0,1.0,part_1,,,,,,,,,,,,,gray,flipped triangle
0.0,1.0,0.0,0.0,3.0,3.0,412.0243459997255,1.0,1.0,part_1,,,,,,,,,,,,,orange,triangle
1310.0,8.0,4.0,1.0,4.0,4.0,344.2677110001568,1.0,1.0,part_1,,,,,,,,,,,,,magenta,hexagon
313.0,6.0,2.0,1.0,4.0,4.0,344.9317820000033,1.0,1.0,part_1,,,,,,,,,,,,,gray,flipped triangle
1320.0,4.0,4.0,0.0,2.0,2.0,381.1910409999655,1.0,1.0,part_1,,,,,,,,,,,,,white,square
169.0,1.0,1.0,0.0,3.0,3.0,344.1779959998712,1.0,1.0,part_1,,,,,,,,,,,,,orange,triangle
1300.0,8.0,4.0,1.0,4.0,4.0,487.0786129999942,1.0,1.0,part_1,,,,,,,,,,,,,magenta,hexagon
179.0,1.0,1.0,0.0,2.0,2.0,353.4167869997873,1.0,1.0,part_1,,,,,,,,,,,,,orange,triangle
313.0,2.0,2.0,0.0,1.0,1.0,372.4153539997132,1.0,2.0,part_1,,,,,,,,,,,,,cyan,I
339.0,2.0,2.0,0.0,2.0,2.0,380.7192089998352,1.0,1.0,part_1,,,,,,,,,,,,,cyan,I
673.0,7.0,3.0,1.0,1.0,1.0,371.7922179998822,1.0,1.0,part_1,,,,,,,,,,,,,yellow,diamond
151.0,1.0,1.0,0.0,3.0,3.0,363.4005879998767,1.0,1.0,part_1,,,,,,,,,,,,,orange,triangle
166.0,1.0,1.0,0.0,3.0,3.0,383.8919119998536,1.0,1.0,part_1,,,,,,,,,,,,,orange,triangle
323.0,6.0,2.0,1.0,3.0,3.0,428.3151820000057,1.0,1.0,part_1,,,,,,,,,,,,,gray,flipped triangle
0.0,8.0,0.0,1.0,4.0,4.0,430.5683969996607,1.0,1.0,part_1,,,,,,,,,,,,,magenta,hexagon
1296.0,8.0,4.0,1.0,1.0,1.0,431.0767659999328,1.0,1.0,part_1,,,,,,,,,,,,,magenta,hexagon
179.0,5.0,1.0,1.0,4.0,4.0,354.9704370002473,1.0,1.0,part_1,,,,,,,,,,,,,green,cross
629.0,3.0,3.0,0.0,2.0,2.0,313.9872729998387,1.0,1.0,part_1,,,,,,,,,,,,,blue,circle
0.0,1.0,0.0,0.0,4.0,4.0,325.3537999999025,1.0,1.0,part_1,,,,,,,,,,,,,orange,triangle
343.0,2.0,2.0,0.0,2.0,2.0,314.4847220000883,1.0,1.0,part_1,,,,,,,,,,,,,cyan,I
1284.0,4.0,4.0,0.0,2.0,2.0,342.3481679997167,1.0,1.0,part_1,,,,,,,,,,,,,white,square
669.0,7.0,3.0,1.0,3.0,3.0,409.9712849997559,1.0,1.0,part_1,,,,,,,,,,,,,yellow,diamond
643.0,3.0,3.0,0.0,4.0,4.0,372.2659249997377,1.0,1.0,part_1,,,,,,,,,,,,,blue,circle
1281.0,8.0,4.0,1.0,3.0,3.0,401.1176680000972,1.0,1.0,part_1,,,,,,,,,,,,,magenta,hexagon
306.0,2.0,2.0,0.0,4.0,4.0,390.8760839999559,1.0,1.0,part_1,,,,,,,,,,,,,cyan,I
143.0,1.0,1.0,0.0,2.0,2.0,373.9689529998031,2.0,1.0,part_1,,,,,,,,,,,,,orange,triangle
1310.0,4.0,4.0,0.0,2.0,2.0,343.8575730001503,2.0,1.0,part_1,,,,,,,,,,,,,white,square
0.0,3.0,0.0,0.0,1.0,1.0,409.8701269999765,2.0,1.0,part_1,,,,,,,,,,,,,blue,circle
350.0,2.0,2.0,0.0,2.0,2.0,325.0392490003833,2.0,1.0,part_1,,,,,,,,,,,,,cyan,I
149.0,5.0,1.0,1.0,2.0,2.0,315.6248810000761,2.0,1.0,part_1,,,,,,,,,,,,,green,cross
0.0,4.0,0.0,0.0,2.0,2.0,315.3207160003148,2.0,1.0,part_1,,,,,,,,,,,,,white,square
152.0,1.0,1.0,0.0,3.0,3.0,459.3908739998369,2.0,1.0,part_1,,,,,,,,,,,,,orange,triangle
175.0,1.0,1.0,0.0,1.0,1.0,372.3977009999544,2.0,1.0,part_1,,,,,,,,,,,,,orange,triangle
1290.0,4.0,4.0,0.0,2.0,2.0,278.1950989997312,2.0,1.0,part_1,,,,,,,,,,,,,white,square
173.0,1.0,1.0,0.0,4.0,4.0,372.8078940002888,2.0,1.0,part_1,,,,,,,,,,,,,orange,triangle
649.0,3.0,3.0,0.0,1.0,1.0,410.7388259999425,2.0,1.0,part_1,,,,,,,,,,,,,blue,circle
0.0,3.0,0.0,0.0,2.0,2.0,298.3761049999884,2.0,1.0,part_1,,,,,,,,,,,,,blue,circle
0.0,6.0,0.0,1.0,1.0,1.0,353.9932270000463,2.0,1.0,part_1,,,,,,,,,,,,,gray,flipped triangle
339.0,6.0,2.0,1.0,2.0,2.0,297.5365070001317,2.0,1.0,part_1,,,,,,,,,,,,,gray,flipped triangle
144.0,5.0,1.0,1.0,4.0,4.0,392.7607199998419,2.0,1.0,part_1,,,,,,,,,,,,,green,cross
1298.0,8.0,4.0,1.0,2.0,2.0,279.0769299999738,2.0,1.0,part_1,,,,,,,,,,,,,magenta,hexagon
669.0,3.0,3.0,0.0,3.0,3.0,392.9349650002223,2.0,1.0,part_1,,,,,,,,,,,,,blue,circle
673.0,3.0,3.0,0.0,3.0,3.0,393.0864560002192,2.0,1.0,part_1,,,,,,,,,,,,,blue,circle
1296.0,8.0,4.0,1.0,4.0,4.0,363.1978270000218,2.0,1.0,part_1,,,,,,,,,,,,,magenta,hexagon
310.0,2.0,2.0,0.0,4.0,4.0,374.1238030002023,2.0,1.0,part_1,,,,,,,,,,,,,cyan,I
142.0,1.0,1.0,0.0,3.0,3.0,411.4641419996587,2.0,1.0,part_1,,,,,,,,,,,,,orange,triangle
167.0,1.0,1.0,0.0,4.0,4.0,345.2256860000489,2.0,1.0,part_1,,,,,,,,,,,,,orange,triangle
670.0,7.0,3.0,1.0,4.0,4.0,334.5609640000475,2.0,1.0,part_1,,,,,,,,,,,,,yellow,diamond
152.0,5.0,1.0,1.0,1.0,1.0,592.4303300002975,2.0,1.0,part_1,,,,,,,,,,,,,green,cross
0.0,6.0,0.0,1.0,1.0,1.0,495.4547690003892,2.0,1.0,part_1,,,,,,,,,,,,,gray,flipped triangle
349.0,6.0,2.0,1.0,4.0,4.0,524.1979960001117,2.0,1.0,part_1,,,,,,,,,,,,,gray,flipped triangle
0.0,7.0,0.0,1.0,3.0,3.0,352.2842079996735,2.0,1.0,part_1,,,,,,,,,,,,,yellow,diamond
169.0,1.0,1.0,0.0,2.0,2.0,409.5200030001251,2.0,1.0,part_1,,,,,,,,,,,,,orange,triangle
0.0,4.0,0.0,0.0,3.0,3.0,381.7466780001268,2.0,1.0,part_1,,,,,,,,,,,,,white,square
1301.0,4.0,4.0,0.0,1.0,1.0,372.1850010001617,2.0,1.0,part_1,,,,,,,,,,,,,white,square
334.0,2.0,2.0,0.0,3.0,3.0,334.0285379999841,2.0,1.0,part_1,,,,,,,,,,,,,cyan,I
660.0,3.0,3.0,0.0,4.0,4.0,363.0318860000443,2.0,1.0,part_1,,,,,,,,,,,,,blue,circle
154.0,5.0,1.0,1.0,1.0,1.0,382.215843999802,2.0,1.0,part_1,,,,,,,,,,,,,green,cross
186.0,5.0,1.0,1.0,4.0,4.0,372.3062449998906,2.0,1.0,part_1,,,,,,,,,,,,,green,cross
327.0,6.0,2.0,1.0,4.0,4.0,369.6509140004309,2.0,1.0,part_1,,,,,,,,,,,,,gray,flipped triangle
1292.0,8.0,4.0,1.0,3.0,3.0,381.5340840001227,2.0,1.0,part_1,,,,,,,,,,,,,magenta,hexagon
154.0,1.0,1.0,0.0,4.0,4.0,362.445629999911,2.0,1.0,part_1,,,,,,,,,,,,,orange,triangle
644.0,7.0,3.0,1.0,2.0,2.0,295.0793109998813,2.0,1.0,part_1,,,,,,,,,,,,,yellow,diamond
649.0,3.0,3.0,0.0,2.0,2.0,401.2742039999466,2.0,1.0,part_1,,,,,,,,,,,,,blue,circle
649.0,3.0,3.0,0.0,2.0,2.0,372.333626999989,2.0,1.0,part_1,,,,,,,,,,,,,blue,circle
162.0,5.0,1.0,1.0,2.0,2.0,334.3460020000748,2.0,1.0,part_1,,,,,,,,,,,,,green,cross
1300.0,4.0,4.0,0.0,3.0,3.0,342.5430890001735,2.0,1.0,part_1,,,,,,,,,,,,,white,square
310.0,6.0,2.0,1.0,1.0,1.0,333.1795140002214,2.0,2.0,part_1,,,,,,,,,,,,,gray,flipped triangle
0.0,2.0,0.0,0.0,2.0,2.0,390.0594819997423,2.0,1.0,part_1,,,,,,,,,,,,,cyan,I
0.0,5.0,0.0,1.0,4.0,4.0,420.192071999736,2.0,1.0,part_1,,,,,,,,,,,,,green,cross
149.0,1.0,1.0,0.0,2.0,2.0,314.4353489997229,2.0,1.0,part_1,,,,,,,,,,,,,orange,triangle
169.0,5.0,1.0,1.0,2.0,2.0,277.8553830003147,2.0,1.0,part_1,,,,,,,,,,,,,green,cross
1320.0,4.0,4.0,0.0,4.0,4.0,409.8789900003794,2.0,1.0,part_1,,,,,,,,,,,,,white,square
316.0,2.0,2.0,0.0,2.0,2.0,333.846590000121,2.0,1.0,part_1,,,,,,,,,,,,,cyan,I
641.0,7.0,3.0,1.0,2.0,2.0,314.3181149998781,2.0,1.0,part_1,,,,,,,,,,,,,yellow,diamond
656.0,3.0,3.0,0.0,1.0,1.0,438.3989869998004,2.0,1.0,part_1,,,,,,,,,,,,,blue,circle
306.0,6.0,2.0,1.0,3.0,3.0,428.4815890000573,2.0,1.0,part_1,,,,,,,,,,,,,gray,flipped triangle
0.0,5.0,0.0,1.0,1.0,1.0,372.9019289999087,2.0,1.0,part_1,,,,,,,,,,,,,green,cross
662.0,3.0,3.0,0.0,3.0,3.0,372.2418970000944,2.0,1.0,part_1,,,,,,,,,,,,,blue,circle
656.0,7.0,3.0,1.0,3.0,3.0,352.7667230000588,2.0,1.0,part_1,,,,,,,,,,,,,yellow,diamond
646.0,3.0,3.0,0.0,4.0,4.0,363.9129640000647,2.0,1.0,part_1,,,,,,,,,,,,,blue,circle
320.0,6.0,2.0,1.0,2.0,2.0,353.2975520001855,2.0,1.0,part_1,,,,,,,,,,,,,gray,flipped triangle
167.0,5.0,1.0,1.0,1.0,1.0,420.0725860000602,2.0,1.0,part_1,,,,,,,,,,,,,green,cross
1294.0,8.0,4.0,1.0,2.0,2.0,333.6696239998673,2.0,1.0,part_1,,,,,,,,,,,,,magenta,hexagon
162.0,1.0,1.0,0.0,4.0,4.0,383.0312620002587,2.0,1.0,part_1,,,,,,,,,,,,,orange,triangle
1297.0,4.0,4.0,0.0,3.0,3.0,447.2949359997074,2.0,1.0,part_1,,,,,,,,,,,,,white,square
656.0,3.0,3.0,0.0,4.0,4.0,381.5940310000769,2.0,1.0,part_1,,,,,,,,,,,,,blue,circle
330.0,6.0,2.0,1.0,2.0,2.0,269.0185060000658,2.0,1.0,part_1,,,,,,,,,,,,,gray,flipped triangle
1283.0,8.0,4.0,1.0,1.0,1.0,335.1492490000964,2.0,1.0,part_1,,,,,,,,,,,,,magenta,hexagon
636.0,7.0,3.0,1.0,4.0,4.0,344.6429800001169,2.0,1.0,part_1,,,,,,,,,,,,,yellow,diamond
0.0,4.0,0.0,0.0,4.0,4.0,373.7438610000936,2.0,1.0,part_1,,,,,,,,,,,,,white,square
0.0,6.0,0.0,1.0,1.0,1.0,382.8153130002647,2.0,1.0,part_1,,,,,,,,,,,,,gray,flipped triangle
325.0,2.0,2.0,0.0,3.0,3.0,364.0303279998989,2.0,1.0,part_1,,,,,,,,,,,,,cyan,I
345.0,2.0,2.0,0.0,2.0,2.0,362.7112049998686,2.0,1.0,part_1,,,,,,,,,,,,,cyan,I
628.0,3.0,3.0,0.0,2.0,2.0,467.7922780001609,2.0,1.0,part_1,,,,,,,,,,,,,blue,circle
668.0,7.0,3.0,1.0,4.0,4.0,410.5087819998516,2.0,1.0,part_1,,,,,,,,,,,,,yellow,diamond
161.0,5.0,1.0,1.0,1.0,1.0,381.3668350003354,2.0,1.0,part_1,,,,,,,,,,,,,green,cross
626.0,3.0,3.0,0.0,4.0,4.0,410.0150320000466,2.0,2.0,part_1,,,,,,,,,,,,,blue,circle
334.0,2.0,2.0,0.0,4.0,4.0,371.8380179998348,2.0,1.0,part_1,,,,,,,,,,,,,cyan,I
161.0,1.0,1.0,0.0,4.0,4.0,363.1464270001743,2.0,1.0,part_1,,,,,,,,,,,,,orange,triangle
628.0,7.0,3.0,1.0,2.0,2.0,371.1090440001499,2.0,1.0,part_1,,,,,,,,,,,,,yellow,diamond
334.0,6.0,2.0,1.0,4.0,4.0,373.5412569999425,2.0,1.0,part_1,,,,,,,,,,,,,gray,flipped triangle
0.0,8.0,0.0,1.0,2.0,2.0,370.1456450003206,2.0,1.0,part_1,,,,,,,,,,,,,magenta,hexagon
1304.0,4.0,4.0,0.0,4.0,4.0,352.8993630002333,2.0,1.0,part_1,,,,,,,,,,,,,white,square
1324.0,4.0,4.0,0.0,4.0,4.0,315.5286569999589,2.0,1.0,part_1,,,,,,,,,,,,,white,square
641.0,3.0,3.0,0.0,3.0,3.0,572.3448859998825,2.0,1.0,part_1,,,,,,,,,,,,,blue,circle
0.0,1.0,0.0,0.0,1.0,1.0,439.158407999912,2.0,1.0,part_1,,,,,,,,,,,,,orange,triangle
307.0,6.0,2.0,1.0,1.0,1.0,335.5231949999506,2.0,1.0,part_1,,,,,,,,,,,,,gray,flipped triangle
659.0,7.0,3.0,1.0,1.0,1.0,296.8021769997904,2.0,1.0,part_1,,,,,,,,,,,,,yellow,diamond
142.0,1.0,1.0,0.0,1.0,1.0,286.5318750000369,2.0,1.0,part_1,,,,,,,,,,,,,orange,triangle
0.0,6.0,0.0,1.0,3.0,3.0,382.5377590001153,2.0,1.0,part_1,,,,,,,,,,,,,gray,flipped triangle
335.0,6.0,2.0,1.0,2.0,2.0,392.050788999768,2.0,1.0,part_1,,,,,,,,,,,,,gray,flipped triangle
0.0,8.0,0.0,1.0,3.0,3.0,317.628354000135,2.0,1.0,part_1,,,,,,,,,,,,,magenta,hexagon
0.0,3.0,0.0,0.0,3.0,3.0,383.4433289998742,2.0,1.0,part_1,,,,,,,,,,,,,blue,circle
669.0,3.0,3.0,0.0,1.0,1.0,401.807620999989,2.0,1.0,part_1,,,,,,,,,,,,,blue,circle
1308.0,8.0,4.0,1.0,4.0,4.0,334.6733570001561,2.0,1.0,part_1,,,,,,,,,,,,,magenta,hexagon
1301.0,8.0,4.0,1.0,2.0,2.0,373.9401240000006,2.0,1.0,part_1,,,,,,,,,,,,,magenta,hexagon
1314.0,8.0,4.0,1.0,1.0,1.0,355.1971790002426,2.0,1.0,part_1,,,,,,,,,,,,,magenta,hexagon
627.0,3.0,3.0,0.0,1.0,1.0,307.0981350001602,2.0,1.0,part_1,,,,,,,,,,,,,blue,circle
162.0,1.0,1.0,0.0,1.0,1.0,296.2185989999852,2.0,1.0,part_1,,,,,,,,,,,,,orange,triangle
1298.0,8.0,4.0,1.0,4.0,4.0,344.5136249997631,2.0,1.0,part_1,,,,,,,,,,,,,magenta,hexagon
341.0,2.0,2.0,0.0,4.0,4.0,363.2898259998001,2.0,2.0,part_1,,,,,,,,,,,,,cyan,I
0.0,3.0,0.0,0.0,4.0,4.0,295.1788720001786,2.0,1.0,part_1,,,,,,,,,,,,,blue,circle
1304.0,4.0,4.0,0.0,2.0,2.0,391.0421850000602,2.0,1.0,part_1,,,,,,,,,,,,,white,square
0.0,7.0,0.0,1.0,4.0,4.0,315.0020359998962,2.0,1.0,part_1,,,,,,,,,,,,,yellow,diamond
0.0,7.0,0.0,1.0,2.0,2.0,370.8757180002067,3.0,1.0,part_1,,,,,,,,,,,,,yellow,diamond
1290.0,8.0,4.0,1.0,3.0,3.0,431.1085210001693,3.0,1.0,part_1,,,,,,,,,,,,,magenta,hexagon
1308.0,8.0,4.0,1.0,1.0,1.0,352.4998929997309,3.0,1.0,part_1,,,,,,,,,,,,,magenta,hexagon
146.0,1.0,1.0,0.0,1.0,1.0,334.2657419998431,3.0,1.0,part_1,,,,,,,,,,,,,orange,triangle
142.0,5.0,1.0,1.0,1.0,1.0,238.3770669998739,3.0,1.0,part_1,,,,,,,,,,,,,green,cross
337.0,6.0,2.0,1.0,1.0,1.0,287.0486589999927,3.0,1.0,part_1,,,,,,,,,,,,,gray,flipped triangle
323.0,2.0,2.0,0.0,1.0,1.0,239.2045880001205,3.0,1.0,part_1,,,,,,,,,,,,,cyan,I
183.0,5.0,1.0,1.0,4.0,4.0,382.0916380000199,3.0,1.0,part_1,,,,,,,,,,,,,green,cross
301.0,6.0,2.0,1.0,2.0,2.0,315.1502589998927,3.0,1.0,part_1,,,,,,,,,,,,,gray,flipped triangle
319.0,2.0,2.0,0.0,4.0,4.0,344.0339570001924,3.0,1.0,part_1,,,,,,,,,,,,,cyan,I
0.0,4.0,0.0,0.0,2.0,2.0,323.8107319998562,3.0,1.0,part_1,,,,,,,,,,,,,white,square
186.0,1.0,1.0,0.0,2.0,2.0,372.7114919997802,3.0,1.0,part_1,,,,,,,,,,,,,orange,triangle
350.0,6.0,2.0,1.0,2.0,2.0,381.1419210001077,3.0,1.0,part_1,,,,,,,,,,,,,gray,flipped triangle
169.0,5.0,1.0,1.0,3.0,3.0,326.2666519999584,3.0,1.0,part_1,,,,,,,,,,,,,green,cross
0.0,4.0,0.0,0.0,3.0,3.0,363.435304000177,3.0,1.0,part_1,,,,,,,,,,,,,white,square
0.0,8.0,0.0,1.0,2.0,2.0,382.3486830001457,3.0,1.0,part_1,,,,,,,,,,,,,magenta,hexagon
633.0,3.0,3.0,0.0,4.0,4.0,363.1917900002008,3.0,1.0,part_1,,,,,,,,,,,,,blue,circle
316.0,6.0,2.0,1.0,3.0,3.0,400.7463860002644,3.0,1.0,part_1,,,,,,,,,,,,,gray,flipped triangle
675.0,3.0,3.0,0.0,1.0,1.0,421.260281999821,3.0,1.0,part_1,,,,,,,,,,,,,blue,circle
659.0,3.0,3.0,0.0,4.0,4.0,322.7332980000028,3.0,1.0,part_1,,,,,,,,,,,,,blue,circle
1292.0,4.0,4.0,0.0,2.0,2.0,373.2250729999578,3.0,1.0,part_1,,,,,,,,,,,,,white,square
324.0,6.0,2.0,1.0,3.0,3.0,490.3841699997429,3.0,1.0,part_1,,,,,,,,,,,,,gray,flipped triangle
306.0,2.0,2.0,0.0,4.0,4.0,363.4183760000269,3.0,1.0,part_1,,,,,,,,,,,,,cyan,I
347.0,6.0,2.0,1.0,3.0,3.0,347.2870479999983,3.0,1.0,part_1,,,,,,,,,,,,,gray,flipped triangle
1324.0,8.0,4.0,1.0,3.0,3.0,410.0823290000335,3.0,1.0,part_1,,,,,,,,,,,,,magenta,hexagon
1298.0,4.0,4.0,0.0,3.0,3.0,354.3905330002417,3.0,1.0,part_1,,,,,,,,,,,,,white,square
1289.0,4.0,4.0,0.0,2.0,2.0,380.2876979998473,3.0,1.0,part_1,,,,,,,,,,,,,white,square
182.0,5.0,1.0,1.0,3.0,3.0,305.8856339998783,3.0,1.0,part_1,,,,,,,,,,,,,green,cross
169.0,1.0,1.0,0.0,1.0,1.0,411.2651420000475,3.0,1.0,part_1,,,,,,,,,,,,,orange,triangle
162.0,5.0,1.0,1.0,2.0,2.0,476.6414290002103,3.0,1.0,part_1,,,,,,,,,,,,,green,cross
178.0,5.0,1.0,1.0,3.0,3.0,364.6879150001041,3.0,1.0,part_1,,,,,,,,,,,,,green,cross
0.0,7.0,0.0,1.0,4.0,4.0,334.7055060003185,3.0,1.0,part_1,,,,,,,,,,,,,yellow,diamond
330.0,2.0,2.0,0.0,3.0,3.0,315.5430790002356,3.0,1.0,part_1,,,,,,,,,,,,,cyan,I
151.0,5.0,1.0,1.0,1.0,1.0,384.0710750000653,3.0,1.0,part_1,,,,,,,,,,,,,green,cross
331.0,6.0,2.0,1.0,1.0,1.0,468.6215710003125,3.0,1.0,part_1,,,,,,,,,,,,,gray,flipped triangle
1315.0,4.0,4.0,0.0,2.0,2.0,354.0777139996862,3.0,1.0,part_1,,,,,,,,,,,,,white,square
182.0,1.0,1.0,0.0,4.0,4.0,343.2227880002756,3.0,1.0,part_1,,,,,,,,,,,,,orange,triangle
0.0,2.0,0.0,0.0,4.0,4.0,324.9180890002208,3.0,1.0,part_1,,,,,,,,,,,,,cyan,I
347.0,2.0,2.0,0.0,3.0,3.0,344.0428559997599,3.0,1.0,part_1,,,,,,,,,,,,,cyan,I
645.0,7.0,3.0,1.0,3.0,3.0,400.0335969999469,3.0,1.0,part_1,,,,,,,,,,,,,yellow,diamond
660.0,7.0,3.0,1.0,2.0,2.0,324.92711399982,3.0,1.0,part_1,,,,,,,,,,,,,yellow,diamond
1292.0,4.0,4.0,0.0,4.0,4.0,325.0276039998425,3.0,1.0,part_1,,,,,,,,,,,,,white,square
313.0,2.0,2.0,0.0,3.0,3.0,343.7998120002703,3.0,1.0,part_1,,,,,,,,,,,,,cyan,I
169.0,5.0,1.0,1.0,4.0,4.0,362.15533900031,3.0,1.0,part_1,,,,,,,,,,,,,green,cross
307.0,2.0,2.0,0.0,2.0,2.0,305.3929520001475,3.0,1.0,part_1,,,,,,,,,,,,,cyan,I
183.0,1.0,1.0,0.0,3.0,3.0,393.8381620000655,3.0,1.0,part_1,,,,,,,,,,,,,orange,triangle
651.0,7.0,3.0,1.0,1.0,1.0,315.0703679998514,3.0,1.0,part_1,,,,,,,,,,,,,yellow,diamond
641.0,3.0,3.0,0.0,2.0,2.0,390.8124149998002,3.0,1.0,part_1,,,,,,,,,,,,,blue,circle
156.0,5.0,1.0,1.0,3.0,3.0,345.9607090003374,3.0,1.0,part_1,,,,,,,,,,,,,green,cross
0.0,8.0,0.0,1.0,4.0,4.0,365.0071800002479,3.0,1.0,part_1,,,,,,,,,,,,,magenta,hexagon
178.0,5.0,1.0,1.0,3.0,3.0,344.3250889999945,3.0,1.0,part_1,,,,,,,,,,,,,green,cross
331.0,2.0,2.0,0.0,2.0,2.0,276.2829829998736,3.0,1.0,part_1,,,,,,,,,,,,,cyan,I
147.0,1.0,1.0,0.0,2.0,2.0,363.7168390000624,3.0,1.0,part_1,,,,,,,,,,,,,orange,triangle
341.0,6.0,2.0,1.0,3.0,3.0,346.3163989999884,3.0,1.0,part_1,,,,,,,,,,,,,gray,flipped triangle
639.0,3.0,3.0,0.0,3.0,3.0,297.5944959998742,3.0,1.0,part_1,,,,,,,,,,,,,blue,circle
0.0,1.0,0.0,0.0,4.0,4.0,296.072125000137,3.0,1.0,part_1,,,,,,,,,,,,,orange,triangle
150.0,1.0,1.0,0.0,4.0,4.0,334.2290559999128,3.0,1.0,part_1,,,,,,,,,,,,,orange,triangle
313.0,6.0,2.0,1.0,1.0,1.0,335.5814500000633,3.0,2.0,part_1,,,,,,,,,,,,,gray,flipped triangle
1293.0,8.0,4.0,1.0,2.0,2.0,392.7755289996639,3.0,1.0,part_1,,,,,,,,,,,,,magenta,hexagon
646.0,3.0,3.0,0.0,1.0,1.0,373.3930000003056,3.0,1.0,part_1,,,,,,,,,,,,,blue,circle
1320.0,8.0,4.0,1.0,1.0,1.0,399.9172630001339,3.0,1.0,part_1,,,,,,,,,,,,,magenta,hexagon
0.0,6.0,0.0,1.0,2.0,2.0,410.0504130001354,3.0,1.0,part_1,,,,,,,,,,,,,gray,flipped triangle
1289.0,8.0,4.0,1.0,1.0,1.0,315.9427599998707,3.0,1.0,part_1,,,,,,,,,,,,,magenta,hexagon
1293.0,4.0,4.0,0.0,3.0,3.0,355.9505770003852,3.0,1.0,part_1,,,,,,,,,,,,,white,square
1303.0,4.0,4.0,0.0,4.0,4.0,421.0112780001509,3.0,2.0,part_1,,,,,,,,,,,,,white,square
0.0,8.0,0.0,1.0,4.0,4.0,411.4704220000931,3.0,1.0,part_1,,,,,,,,,,,,,magenta,hexagon
143.0,5.0,1.0,1.0,1.0,1.0,363.5077339999952,3.0,1.0,part_1,,,,,,,,,,,,,green,cross
178.0,1.0,1.0,0.0,3.0,3.0,364.4254830001046,3.0,1.0,part_1,,,,,,,,,,,,,orange,triangle
0.0,5.0,0.0,1.0,4.0,4.0,325.2183449999393,3.0,1.0,part_1,,,,,,,,,,,,,green,cross
0.0,3.0,0.0,0.0,2.0,2.0,373.5980020001079,3.0,1.0,part_1,,,,,,,,,,,,,blue,circle
1283.0,4.0,4.0,0.0,4.0,4.0,372.5066889996924,3.0,1.0,part_1,,,,,,,,,,,,,white,square
1310.0,4.0,4.0,0.0,1.0,1.0,285.9771260000343,3.0,1.0,part_1,,,,,,,,,,,,,white,square
313.0,6.0,2.0,1.0,3.0,3.0,353.7533999997322,3.0,1.0,part_1,,,,,,,,,,,,,gray,flipped triangle
626.0,7.0,3.0,1.0,4.0,4.0,333.7898720001249,3.0,1.0,part_1,,,,,,,,,,,,,yellow,diamond
644.0,3.0,3.0,0.0,2.0,2.0,362.7205090001553,3.0,1.0,part_1,,,,,,,,,,,,,blue,circle
178.0,1.0,1.0,0.0,4.0,4.0,348.4608820003814,3.0,1.0,part_1,,,,,,,,,,,,,orange,triangle
1298.0,4.0,4.0,0.0,3.0,3.0,324.6851089998017,3.0,1.0,part_1,,,,,,,,,,,,,white,square
641.0,7.0,3.0,1.0,3.0,3.0,469.1221509997376,3.0,1.0,part_1,,,,,,,,,,,,,yellow,diamond
651.0,3.0,3.0,0.0,2.0,2.0,323.1190449996575,3.0,1.0,part_1,,,,,,,,,,,,,blue,circle
316.0,2.0,2.0,0.0,3.0,3.0,440.321827000389,3.0,1.0,part_1,,,,,,,,,,,,,cyan,I
0.0,4.0,0.0,0.0,2.0,2.0,372.044198000367,3.0,1.0,part_1,,,,,,,,,,,,,white,square
645.0,3.0,3.0,0.0,3.0,3.0,305.2129200000308,3.0,1.0,part_1,,,,,,,,,,,,,blue,circle
0.0,5.0,0.0,1.0,1.0,1.0,363.8055940000413,3.0,1.0,part_1,,,,,,,,,,,,,green,cross
0.0,2.0,0.0,0.0,4.0,4.0,343.96810199996247,3.0,1.0,part_1,,,,,,,,,,,,,cyan,I
320.0,2.0,2.0,0.0,3.0,3.0,361.8034440000883,3.0,1.0,part_1,,,,,,,,,,,,,cyan,I
345.0,6.0,2.0,1.0,4.0,4.0,429.8328089998904,3.0,1.0,part_1,,,,,,,,,,,,,gray,flipped triangle
343.0,2.0,2.0,0.0,1.0,1.0,276.168374000008,3.0,1.0,part_1,,,,,,,,,,,,,cyan,I
150.0,5.0,1.0,1.0,3.0,3.0,296.6825479998078,3.0,1.0,part_1,,,,,,,,,,,,,green,cross
0.0,2.0,0.0,0.0,3.0,3.0,325.3409810004086,3.0,1.0,part_1,,,,,,,,,,,,,cyan,I
306.0,6.0,2.0,1.0,4.0,4.0,325.4617500001586,3.0,1.0,part_1,,,,,,,,,,,,,gray,flipped triangle
160.0,5.0,1.0,1.0,2.0,2.0,267.6591970002846,3.0,2.0,part_1,,,,,,,,,,,,,green,cross
639.0,7.0,3.0,1.0,4.0,4.0,315.8337770000798,3.0,1.0,part_1,,,,,,,,,,,,,yellow,diamond
1285.0,4.0,4.0,0.0,2.0,2.0,344.3457719999969,3.0,1.0,part_1,,,,,,,,,,,,,white,square
0.0,1.0,0.0,0.0,1.0,1.0,364.0499250000175,3.0,1.0,part_1,,,,,,,,,,,,,orange,triangle
651.0,3.0,3.0,0.0,3.0,3.0,441.0761760000241,3.0,1.0,part_1,,,,,,,,,,,,,blue,circle
0.0,4.0,0.0,0.0,4.0,4.0,315.2372430004106,3.0,1.0,part_1,,,,,,,,,,,,,white,square
141.0,1.0,1.0,0.0,2.0,2.0,294.7425180000209,3.0,1.0,part_1,,,,,,,,,,,,,orange,triangle
324.0,2.0,2.0,0.0,3.0,3.0,402.6520050001636,3.0,1.0,part_1,,,,,,,,,,,,,cyan,I
0.0,2.0,0.0,0.0,1.0,1.0,344.8389629998019,3.0,1.0,part_1,,,,,,,,,,,,,cyan,I
330.0,6.0,2.0,1.0,3.0,3.0,344.6723849997397,3.0,1.0,part_1,,,,,,,,,,,,,gray,flipped triangle
142.0,5.0,1.0,1.0,4.0,4.0,354.3989049999254,4.0,1.0,part_1,,,,,,,,,,,,,green,cross
0.0,6.0,0.0,1.0,2.0,2.0,382.5646820000656,4.0,1.0,part_1,,,,,,,,,,,,,gray,flipped triangle
1282.0,4.0,4.0,0.0,4.0,4.0,334.5052220001889,4.0,1.0,part_1,,,,,,,,,,,,,white,square
0.0,7.0,0.0,1.0,2.0,2.0,334.9953050001204,4.0,1.0,part_1,,,,,,,,,,,,,yellow,diamond
646.0,7.0,3.0,1.0,4.0,4.0,374.6560589997898,4.0,1.0,part_1,,,,,,,,,,,,,yellow,diamond
161.0,1.0,1.0,0.0,3.0,3.0,372.7549690001979,4.0,1.0,part_1,,,,,,,,,,,,,orange,triangle
335.0,2.0,2.0,0.0,2.0,2.0,286.3467189999937,4.0,1.0,part_1,,,,,,,,,,,,,cyan,I
638.0,7.0,3.0,1.0,4.0,4.0,229.9462050000329,4.0,2.0,part_1,,,,,,,,,,,,,yellow,diamond
670.0,3.0,3.0,0.0,2.0,2.0,276.3924390001193,4.0,1.0,part_1,,,,,,,,,,,,,blue,circle
1315.0,4.0,4.0,0.0,4.0,4.0,335.1832779999313,4.0,1.0,part_1,,,,,,,,,,,,,white,square
629.0,7.0,3.0,1.0,1.0,1.0,380.9034890000475,4.0,1.0,part_1,,,,,,,,,,,,,yellow,diamond
659.0,7.0,3.0,1.0,2.0,2.0,448.2224629996381,4.0,1.0,part_1,,,,,,,,,,,,,yellow,diamond
1303.0,8.0,4.0,1.0,1.0,1.0,324.7922330001529,4.0,1.0,part_1,,,,,,,,,,,,,magenta,hexagon
0.0,1.0,0.0,0.0,2.0,2.0,334.6107859997573,4.0,1.0,part_1,,,,,,,,,,,,,orange,triangle
0.0,5.0,0.0,1.0,3.0,3.0,296.7569179995735,4.0,1.0,part_1,,,,,,,,,,,,,green,cross
316.0,6.0,2.0,1.0,4.0,4.0,374.0919729998495,4.0,1.0,part_1,,,,,,,,,,,,,gray,flipped triangle
343.0,6.0,2.0,1.0,3.0,3.0,421.5536560000146,4.0,1.0,part_1,,,,,,,,,,,,,gray,flipped triangle
309.0,6.0,2.0,1.0,2.0,2.0,343.0913150000378,4.0,1.0,part_1,,,,,,,,,,,,,gray,flipped triangle
639.0,7.0,3.0,1.0,3.0,3.0,391.8265519996566,4.0,1.0,part_1,,,,,,,,,,,,,yellow,diamond
0.0,8.0,0.0,1.0,2.0,2.0,372.9908259997501,4.0,1.0,part_1,,,,,,,,,,,,,magenta,hexagon
169.0,1.0,1.0,0.0,1.0,1.0,373.5488780002924,4.0,1.0,part_1,,,,,,,,,,,,,orange,triangle
1311.0,8.0,4.0,1.0,1.0,1.0,343.2662269997308,4.0,1.0,part_1,,,,,,,,,,,,,magenta,hexagon
1308.0,4.0,4.0,0.0,3.0,3.0,306.138920000194,4.0,1.0,part_1,,,,,,,,,,,,,white,square
0.0,4.0,0.0,0.0,2.0,2.0,382.5283000001036,4.0,1.0,part_1,,,,,,,,,,,,,white,square
0.0,3.0,0.0,0.0,1.0,1.0,362.3745790000612,4.0,1.0,part_1,,,,,,,,,,,,,blue,circle
633.0,7.0,3.0,1.0,1.0,1.0,371.8143769997368,4.0,1.0,part_1,,,,,,,,,,,,,yellow,diamond
303.0,2.0,2.0,0.0,1.0,1.0,381.5606010002739,4.0,1.0,part_1,,,,,,,,,,,,,cyan,I
1278.0,4.0,4.0,0.0,4.0,4.0,429.8902509999607,4.0,1.0,part_1,,,,,,,,,,,,,white,square
0.0,5.0,0.0,1.0,1.0,1.0,383.2778789997064,4.0,1.0,part_1,,,,,,,,,,,,,green,cross
160.0,1.0,1.0,0.0,3.0,3.0,352.4903140000788,4.0,1.0,part_1,,,,,,,,,,,,,orange,triangle
651.0,7.0,3.0,1.0,1.0,1.0,372.4803089999113,4.0,1.0,part_1,,,,,,,,,,,,,yellow,diamond
0.0,1.0,0.0,0.0,2.0,2.0,477.7545480001208,4.0,1.0,part_1,,,,,,,,,,,,,orange,triangle
0.0,7.0,0.0,1.0,4.0,4.0,400.9085970001251,4.0,1.0,part_1,,,,,,,,,,,,,yellow,diamond
183.0,5.0,1.0,1.0,2.0,2.0,351.7262489999666,4.0,1.0,part_1,,,,,,,,,,,,,green,cross
0.0,3.0,0.0,0.0,4.0,4.0,381.6689469999801,4.0,1.0,part_1,,,,,,,,,,,,,blue,circle
1311.0,4.0,4.0,0.0,3.0,3.0,382.5176320001446,4.0,1.0,part_1,,,,,,,,,,,,,white,square
150.0,5.0,1.0,1.0,3.0,3.0,400.1096269998925,4.0,1.0,part_1,,,,,,,,,,,,,green,cross
1278.0,8.0,4.0,1.0,4.0,4.0,409.6451779996641,4.0,1.0,part_1,,,,,,,,,,,,,magenta,hexagon
662.0,7.0,3.0,1.0,4.0,4.0,333.9816739999151,4.0,1.0,part_1,,,,,,,,,,,,,yellow,diamond
0.0,3.0,0.0,0.0,1.0,1.0,360.9880779999912,4.0,1.0,part_1,,,,,,,,,,,,,blue,circle
661.0,3.0,3.0,0.0,2.0,2.0,380.5199789999278,4.0,1.0,part_1,,,,,,,,,,,,,blue,circle
1310.0,8.0,4.0,1.0,3.0,3.0,345.2193200000693,4.0,1.0,part_1,,,,,,,,,,,,,magenta,hexagon
347.0,6.0,2.0,1.0,4.0,4.0,324.8261550002098,4.0,1.0,part_1,,,,,,,,,,,,,gray,flipped triangle
652.0,7.0,3.0,1.0,2.0,2.0,314.3004399998972,4.0,1.0,part_1,,,,,,,,,,,,,yellow,diamond
649.0,7.0,3.0,1.0,2.0,2.0,353.2841729997926,4.0,1.0,part_1,,,,,,,,,,,,,yellow,diamond
334.0,6.0,2.0,1.0,1.0,1.0,391.4363700000649,4.0,1.0,part_1,,,,,,,,,,,,,gray,flipped triangle
0.0,6.0,0.0,1.0,1.0,1.0,362.6793029998225,4.0,1.0,part_1,,,,,,,,,,,,,gray,flipped triangle
1325.0,8.0,4.0,1.0,4.0,4.0,400.1631510000152,4.0,1.0,part_1,,,,,,,,,,,,,magenta,hexagon
1286.0,8.0,4.0,1.0,3.0,3.0,342.5699399999757,4.0,1.0,part_1,,,,,,,,,,,,,magenta,hexagon
0.0,1.0,0.0,0.0,4.0,4.0,401.3465289999658,4.0,1.0,part_1,,,,,,,,,,,,,orange,triangle
166.0,5.0,1.0,1.0,3.0,3.0,315.361509000013,4.0,1.0,part_1,,,,,,,,,,,,,green,cross
1323.0,8.0,4.0,1.0,1.0,1.0,344.5273329998599,4.0,1.0,part_1,,,,,,,,,,,,,magenta,hexagon
316.0,6.0,2.0,1.0,4.0,4.0,400.8630059997813,4.0,1.0,part_1,,,,,,,,,,,,,gray,flipped triangle
629.0,7.0,3.0,1.0,1.0,1.0,343.1816450001861,4.0,1.0,part_1,,,,,,,,,,,,,yellow,diamond
172.0,5.0,1.0,1.0,3.0,3.0,362.3954869999579,4.0,1.0,part_1,,,,,,,,,,,,,green,cross
172.0,1.0,1.0,0.0,1.0,1.0,373.9201139997021,4.0,1.0,part_1,,,,,,,,,,,,,orange,triangle
0.0,5.0,0.0,1.0,3.0,3.0,333.2080879999921,4.0,1.0,part_1,,,,,,,,,,,,,green,cross
154.0,5.0,1.0,1.0,4.0,4.0,382.6248350001151,4.0,1.0,part_1,,,,,,,,,,,,,green,cross
1278.0,8.0,4.0,1.0,4.0,4.0,447.0152559997586,4.0,1.0,part_1,,,,,,,,,,,,,magenta,hexagon
670.0,3.0,3.0,0.0,4.0,4.0,352.1633790001033,4.0,1.0,part_1,,,,,,,,,,,,,blue,circle
142.0,5.0,1.0,1.0,4.0,4.0,286.526213000343,4.0,1.0,part_1,,,,,,,,,,,,,green,cross
1323.0,4.0,4.0,0.0,4.0,4.0,325.6910729996889,4.0,1.0,part_1,,,,,,,,,,,,,white,square
649.0,7.0,3.0,1.0,3.0,3.0,400.5086080001092,4.0,1.0,part_1,,,,,,,,,,,,,yellow,diamond
141.0,5.0,1.0,1.0,4.0,4.0,391.6680489996906,4.0,1.0,part_1,,,,,,,,,,,,,green,cross
150.0,1.0,1.0,0.0,3.0,3.0,315.7550330001868,4.0,1.0,part_1,,,,,,,,,,,,,orange,triangle
181.0,1.0,1.0,0.0,2.0,2.0,362.3111319998315,4.0,1.0,part_1,,,,,,,,,,,,,orange,triangle
301.0,2.0,2.0,0.0,1.0,1.0,363.3783430000221,4.0,1.0,part_1,,,,,,,,,,,,,cyan,I
181.0,5.0,1.0,1.0,2.0,2.0,391.8641800000841,4.0,1.0,part_1,,,,,,,,,,,,,green,cross
1281.0,4.0,4.0,0.0,1.0,1.0,324.1795960002491,4.0,1.0,part_1,,,,,,,,,,,,,white,square
656.0,3.0,3.0,0.0,4.0,4.0,353.4584469998663,4.0,1.0,part_1,,,,,,,,,,,,,blue,circle
634.0,3.0,3.0,0.0,1.0,1.0,324.4128750002346,4.0,1.0,part_1,,,,,,,,,,,,,blue,circle
1315.0,8.0,4.0,1.0,1.0,1.0,324.6559479998723,4.0,1.0,part_1,,,,,,,,,,,,,magenta,hexagon
0.0,7.0,0.0,1.0,1.0,1.0,294.7458049998204,4.0,1.0,part_1,,,,,,,,,,,,,yellow,diamond
161.0,5.0,1.0,1.0,1.0,1.0,325.1159659998848,4.0,1.0,part_1,,,,,,,,,,,,,green,cross
629.0,3.0,3.0,0.0,3.0,3.0,334.6977790001801,4.0,1.0,part_1,,,,,,,,,,,,,blue,circle
0.0,5.0,0.0,1.0,2.0,2.0,344.2409899998893,4.0,1.0,part_1,,,,,,,,,,,,,green,cross
1314.0,4.0,4.0,0.0,3.0,3.0,334.3084769999223,4.0,1.0,part_1,,,,,,,,,,,,,white,square
1304.0,8.0,4.0,1.0,3.0,3.0,343.7077870003122,4.0,1.0,part_1,,,,,,,,,,,,,magenta,hexagon
316.0,2.0,2.0,0.0,1.0,1.0,295.9283469999718,4.0,1.0,part_1,,,,,,,,,,,,,cyan,I
166.0,5.0,1.0,1.0,1.0,1.0,325.1092959999369,4.0,1.0,part_1,,,,,,,,,,,,,green,cross
175.0,5.0,1.0,1.0,2.0,2.0,210.3153709999787,4.0,2.0,part_1,,,,,,,,,,,,,green,cross
169.0,5.0,1.0,1.0,3.0,3.0,296.2373939999452,4.0,1.0,part_1,,,,,,,,,,,,,green,cross
638.0,3.0,3.0,0.0,1.0,1.0,352.9604359996483,4.0,1.0,part_1,,,,,,,,,,,,,blue,circle
1284.0,8.0,4.0,1.0,2.0,2.0,486.7109709998658,4.0,1.0,part_1,,,,,,,,,,,,,magenta,hexagon
1282.0,8.0,4.0,1.0,2.0,2.0,402.9913570002463,4.0,1.0,part_1,,,,,,,,,,,,,magenta,hexagon
1296.0,4.0,4.0,0.0,1.0,1.0,407.2457100000974,4.0,1.0,part_1,,,,,,,,,,,,,white,square
661.0,7.0,3.0,1.0,3.0,3.0,353.3231719998184,4.0,1.0,part_1,,,,,,,,,,,,,yellow,diamond
639.0,3.0,3.0,0.0,3.0,3.0,362.9888539999228,4.0,1.0,part_1,,,,,,,,,,,,,blue,circle
166.0,1.0,1.0,0.0,4.0,4.0,287.4998289998984,4.0,1.0,part_1,,,,,,,,,,,,,orange,triangle
643.0,7.0,3.0,1.0,1.0,1.0,315.5766900003982,4.0,1.0,part_1,,,,,,,,,,,,,yellow,diamond
0.0,4.0,0.0,0.0,3.0,3.0,399.8695109999062,4.0,1.0,part_1,,,,,,,,,,,,,white,square
309.0,2.0,2.0,0.0,4.0,4.0,430.4702959998394,4.0,1.0,part_1,,,,,,,,,,,,,cyan,I
0.0,3.0,0.0,0.0,4.0,4.0,469.3164770001203,4.0,1.0,part_1,,,,,,,,,,,,,blue,circle
0.0,3.0,0.0,0.0,2.0,2.0,400.4464199997528,4.0,1.0,part_1,,,,,,,,,,,,,blue,circle
636.0,3.0,3.0,0.0,4.0,4.0,381.3979920000747,4.0,1.0,part_1,,,,,,,,,,,,,blue,circle
0.0,1.0,0.0,0.0,2.0,2.0,362.827797999671,4.0,1.0,part_1,,,,,,,,,,,,,orange,triangle
0.0,7.0,0.0,1.0,2.0,2.0,420.0611179999214,4.0,1.0,part_1,,,,,,,,,,,,,yellow,diamond
1301.0,4.0,4.0,0.0,1.0,1.0,410.4432650001399,4.0,1.0,part_1,,,,,,,,,,,,,white,square
156.0,1.0,1.0,0.0,2.0,2.0,419.9445939998441,4.0,1.0,part_1,,,,,,,,,,,,,orange,triangle
160.0,1.0,1.0,0.0,1.0,1.0,475.5141430000549,4.0,1.0,part_1,,,,,,,,,,,,,orange,triangle
0.0,1.0,1.0,0.0,5.0,5.0,515.34872000002,1.0,0.0,part_2,go,250.0,250.0,1.0,,,,,,,,,orange,triangle
0.0,6.0,2.0,1.0,5.0,5.0,693.552262999674,1.0,0.0,part_2,stop,250.0,250.0,3.0,,,,,,,,,gray,flipped triangle
0.0,8.0,4.0,1.0,6.0,6.0,384.1521460003605,1.0,0.0,part_2,go,200.0,250.0,1.0,,,,,,,,,magenta,hexagon
0.0,7.0,3.0,1.0,5.0,0.0,0.0,1.0,0.0,part_2,stop,200.0,250.0,4.0,,,,,,,,,yellow,diamond
0.0,1.0,1.0,0.0,6.0,6.0,718.2659090003654,1.0,0.0,part_2,go,250.0,250.0,1.0,,,,,,,,,orange,triangle
0.0,8.0,4.0,1.0,6.0,6.0,1338.1637880002015,1.0,0.0,part_2,go,250.0,250.0,1.0,,,,,,,,,magenta,hexagon
0.0,6.0,2.0,1.0,6.0,0.0,0.0,1.0,0.0,part_2,stop,250.0,250.0,4.0,,,,,,,,,gray,flipped triangle
0.0,8.0,4.0,1.0,5.0,5.0,499.5305819998066,1.0,0.0,part_2,go,250.0,300.0,1.0,,,,,,,,,magenta,hexagon
0.0,2.0,2.0,0.0,5.0,5.0,1005.8556149997455,1.0,0.0,part_2,go,250.0,300.0,1.0,,,,,,,,,cyan,I
0.0,2.0,2.0,0.0,6.0,6.0,899.7030319997066,1.0,0.0,part_2,go,250.0,300.0,1.0,,,,,,,,,cyan,I
0.0,1.0,1.0,0.0,6.0,6.0,873.6206869998568,1.0,0.0,part_2,go,250.0,300.0,1.0,,,,,,,,,orange,triangle
0.0,3.0,3.0,0.0,6.0,6.0,760.553869999967,1.0,0.0,part_2,go,250.0,300.0,1.0,,,,,,,,,blue,circle
0.0,3.0,3.0,0.0,5.0,5.0,958.5524320000331,1.0,0.0,part_2,go,250.0,300.0,1.0,,,,,,,,,blue,circle
0.0,8.0,4.0,1.0,5.0,0.0,0.0,1.0,0.0,part_2,stop,250.0,300.0,4.0,,,,,,,,,magenta,hexagon
0.0,5.0,1.0,1.0,5.0,5.0,412.1311579997382,1.0,0.0,part_2,stop,300.0,300.0,3.0,,,,,,,,,green,cross
0.0,7.0,3.0,1.0,5.0,0.0,0.0,1.0,0.0,part_2,stop,250.0,300.0,4.0,,,,,,,,,yellow,diamond
0.0,2.0,2.0,0.0,5.0,5.0,725.286904999848,1.0,0.0,part_2,go,300.0,300.0,1.0,,,,,,,,,cyan,I
0.0,7.0,3.0,1.0,6.0,0.0,0.0,1.0,0.0,part_2,stop,300.0,300.0,4.0,,,,,,,,,yellow,diamond
0.0,2.0,2.0,0.0,6.0,6.0,738.5601900000438,1.0,0.0,part_2,go,300.0,350.0,1.0,,,,,,,,,cyan,I
0.0,3.0,3.0,0.0,6.0,6.0,796.3415209997038,1.0,0.0,part_2,go,300.0,350.0,1.0,,,,,,,,,blue,circle
0.0,8.0,4.0,1.0,6.0,6.0,824.7663049996845,1.0,0.0,part_2,go,300.0,350.0,1.0,,,,,,,,,magenta,hexagon
0.0,2.0,2.0,0.0,5.0,5.0,785.1935250000679,1.0,0.0,part_2,go,300.0,350.0,1.0,,,,,,,,,cyan,I
0.0,7.0,3.0,1.0,5.0,0.0,0.0,1.0,0.0,part_2,stop,300.0,350.0,4.0,,,,,,,,,yellow,diamond
0.0,6.0,2.0,1.0,5.0,5.0,709.7915190001913,1.0,0.0,part_2,go,350.0,350.0,1.0,,,,,,,,,gray,flipped triangle
0.0,5.0,1.0,1.0,5.0,0.0,0.0,1.0,0.0,part_2,stop,350.0,350.0,4.0,,,,,,,,,green,cross
0.0,2.0,2.0,0.0,5.0,5.0,653.3405570003197,1.0,0.0,part_2,go,400.0,350.0,1.0,,,,,,,,,cyan,I
0.0,7.0,3.0,1.0,5.0,5.0,728.9028970003528,1.0,0.0,part_2,go,400.0,350.0,1.0,,,,,,,,,yellow,diamond
0.0,1.0,1.0,0.0,6.0,6.0,841.390317999867,1.0,0.0,part_2,go,400.0,350.0,1.0,,,,,,,,,orange,triangle
0.0,3.0,3.0,0.0,6.0,6.0,527.3977169999853,1.0,0.0,part_2,go,400.0,350.0,1.0,,,,,,,,,blue,circle
0.0,1.0,1.0,0.0,5.0,5.0,594.9136350000117,1.0,0.0,part_2,go,400.0,350.0,1.0,,,,,,,,,orange,triangle
0.0,1.0,1.0,0.0,6.0,6.0,615.9788019999723,1.0,0.0,part_2,go,400.0,350.0,1.0,,,,,,,,,orange,triangle
0.0,6.0,2.0,1.0,5.0,5.0,520.6732760002524,1.0,0.0,part_2,stop,400.0,350.0,3.0,,,,,,,,,gray,flipped triangle
0.0,8.0,4.0,1.0,6.0,0.0,0.0,1.0,0.0,part_2,stop,350.0,350.0,4.0,,,,,,,,,magenta,hexagon
0.0,4.0,4.0,0.0,6.0,6.0,693.648727999971,1.0,0.0,part_2,go,350.0,400.0,1.0,,,,,,,,,white,square
0.0,8.0,4.0,1.0,6.0,6.0,685.7263609999791,1.0,0.0,part_2,go,350.0,400.0,1.0,,,,,,,,,magenta,hexagon
0.0,3.0,3.0,0.0,6.0,6.0,727.7099679999992,1.0,0.0,part_2,go,350.0,400.0,1.0,,,,,,,,,blue,circle
0.0,6.0,2.0,1.0,5.0,5.0,511.2770629998522,2.0,0.0,part_2,stop,350.0,400.0,3.0,,,,,,,,,gray,flipped triangle
0.0,4.0,4.0,0.0,5.0,5.0,376.4035099998182,2.0,0.0,part_2,go,300.0,400.0,1.0,,,,,,,,,white,square
0.0,3.0,3.0,0.0,6.0,6.0,318.4135589999641,2.0,0.0,part_2,go,300.0,400.0,1.0,,,,,,,,,blue,circle
0.0,7.0,3.0,1.0,6.0,6.0,300.8191660001102,2.0,0.0,part_2,stop,300.0,400.0,3.0,,,,,,,,,yellow,diamond
0.0,5.0,1.0,1.0,6.0,6.0,346.2950799998907,2.0,0.0,part_2,stop,300.0,350.0,3.0,,,,,,,,,green,cross
0.0,2.0,2.0,0.0,6.0,6.0,393.3447110002817,2.0,0.0,part_2,go,300.0,300.0,1.0,,,,,,,,,cyan,I
0.0,5.0,1.0,1.0,5.0,5.0,326.0642109999025,2.0,0.0,part_2,go,300.0,300.0,1.0,,,,,,,,,green,cross
0.0,7.0,3.0,1.0,6.0,6.0,268.7910099998589,2.0,0.0,part_2,stop,300.0,300.0,3.0,,,,,,,,,yellow,diamond
0.0,3.0,3.0,0.0,6.0,6.0,575.7017470000392,2.0,0.0,part_2,go,300.0,250.0,1.0,,,,,,,,,blue,circle
0.0,2.0,2.0,0.0,6.0,6.0,518.2297789997392,2.0,0.0,part_2,go,300.0,250.0,1.0,,,,,,,,,cyan,I
0.0,3.0,3.0,0.0,5.0,5.0,479.1307739997137,2.0,0.0,part_2,go,300.0,250.0,1.0,,,,,,,,,blue,circle
0.0,8.0,4.0,1.0,6.0,6.0,335.2863599998272,2.0,0.0,part_2,go,300.0,250.0,1.0,,,,,,,,,magenta,hexagon
0.0,3.0,3.0,0.0,5.0,5.0,326.4224199997443,2.0,0.0,part_2,go,300.0,250.0,1.0,,,,,,,,,blue,circle
0.0,3.0,3.0,0.0,6.0,6.0,364.5564680000461,2.0,0.0,part_2,go,300.0,250.0,1.0,,,,,,,,,blue,circle
0.0,2.0,2.0,0.0,5.0,5.0,355.2742910001143,2.0,0.0,part_2,go,300.0,250.0,1.0,,,,,,,,,cyan,I
0.0,1.0,1.0,0.0,5.0,5.0,337.438640000073,2.0,0.0,part_2,go,300.0,250.0,1.0,,,,,,,,,orange,triangle
0.0,7.0,3.0,1.0,6.0,6.0,306.7960700000185,2.0,0.0,part_2,stop,300.0,250.0,3.0,,,,,,,,,yellow,diamond
0.0,5.0,1.0,1.0,5.0,5.0,411.7037169999094,2.0,0.0,part_2,go,300.0,200.0,1.0,,,,,,,,,green,cross
0.0,1.0,1.0,0.0,6.0,6.0,311.3974999996571,2.0,0.0,part_2,go,300.0,200.0,1.0,,,,,,,,,orange,triangle
0.0,5.0,1.0,1.0,5.0,5.0,450.9917159998622,2.0,0.0,part_2,go,300.0,200.0,1.0,,,,,,,,,green,cross
0.0,5.0,1.0,1.0,5.0,5.0,352.2338890002174,2.0,0.0,part_2,stop,300.0,200.0,3.0,,,,,,,,,green,cross
0.0,4.0,4.0,0.0,6.0,6.0,352.0960500000001,2.0,0.0,part_2,go,250.0,200.0,1.0,,,,,,,,,white,square
0.0,7.0,3.0,1.0,6.0,6.0,285.2108420001968,2.0,0.0,part_2,stop,250.0,200.0,3.0,,,,,,,,,yellow,diamond
0.0,6.0,2.0,1.0,5.0,5.0,317.4394590000702,2.0,0.0,part_2,go,250.0,150.0,1.0,,,,,,,,,gray,flipped triangle
0.0,5.0,1.0,1.0,5.0,5.0,316.4967230000002,2.0,0.0,part_2,go,250.0,150.0,1.0,,,,,,,,,green,cross
0.0,3.0,3.0,0.0,6.0,6.0,339.0746710001622,2.0,0.0,part_2,go,250.0,150.0,1.0,,,,,,,,,blue,circle
0.0,2.0,2.0,0.0,5.0,5.0,402.184785999907,2.0,0.0,part_2,go,250.0,150.0,1.0,,,,,,,,,cyan,I
0.0,7.0,3.0,1.0,6.0,6.0,335.5488219999643,2.0,0.0,part_2,stop,250.0,150.0,3.0,,,,,,,,,yellow,diamond
0.0,8.0,4.0,1.0,6.0,0.0,0.0,2.0,0.0,part_2,stop,250.0,100.0,4.0,,,,,,,,,magenta,hexagon
0.0,7.0,3.0,1.0,5.0,5.0,327.3579000001518,2.0,0.0,part_2,stop,250.0,150.0,3.0,,,,,,,,,yellow,diamond
0.0,7.0,3.0,1.0,5.0,5.0,698.0209779999313,2.0,0.0,part_2,go,200.0,150.0,1.0,,,,,,,,,yellow,diamond
0.0,4.0,4.0,0.0,5.0,5.0,456.4053060003061,2.0,0.0,part_2,go,200.0,150.0,1.0,,,,,,,,,white,square
0.0,5.0,1.0,1.0,5.0,5.0,334.2333509999662,2.0,0.0,part_2,stop,200.0,150.0,3.0,,,,,,,,,green,cross
0.0,3.0,3.0,0.0,5.0,5.0,518.5242490001656,2.0,0.0,part_2,go,150.0,150.0,1.0,,,,,,,,,blue,circle
0.0,7.0,3.0,1.0,5.0,0.0,0.0,2.0,0.0,part_2,stop,150.0,150.0,4.0,,,,,,,,,yellow,diamond
0.0,8.0,4.0,1.0,6.0,0.0,0.0,2.0,0.0,part_2,stop,200.0,150.0,4.0,,,,,,,,,magenta,hexagon
0.0,2.0,2.0,0.0,6.0,6.0,402.4389810001594,3.0,0.0,part_2,go,200.0,200.0,1.0,,,,,,,,,cyan,I
0.0,7.0,3.0,1.0,5.0,5.0,302.7052930001446,3.0,0.0,part_2,stop,200.0,200.0,3.0,,,,,,,,,yellow,diamond
0.0,6.0,2.0,1.0,6.0,6.0,351.1593379998885,3.0,0.0,part_2,stop,150.0,200.0,3.0,,,,,,,,,gray,flipped triangle
0.0,4.0,4.0,0.0,6.0,6.0,403.0244260002291,3.0,0.0,part_2,go,150.0,150.0,1.0,,,,,,,,,white,square
0.0,6.0,2.0,1.0,5.0,0.0,0.0,3.0,0.0,part_2,stop,150.0,150.0,4.0,,,,,,,,,gray,flipped triangle
0.0,5.0,1.0,1.0,6.0,6.0,364.9990010003421,3.0,0.0,part_2,go,200.0,150.0,1.0,,,,,,,,,green,cross
0.0,1.0,1.0,0.0,6.0,6.0,422.0485640003062,3.0,0.0,part_2,go,200.0,150.0,1.0,,,,,,,,,orange,triangle
0.0,4.0,4.0,0.0,5.0,5.0,384.3159800003377,3.0,0.0,part_2,go,200.0,150.0,1.0,,,,,,,,,white,square
0.0,7.0,3.0,1.0,6.0,6.0,291.5978379996886,3.0,0.0,part_2,go,200.0,150.0,1.0,,,,,,,,,yellow,diamond
0.0,3.0,3.0,0.0,5.0,5.0,355.5637760000536,3.0,0.0,part_2,go,200.0,150.0,1.0,,,,,,,,,blue,circle
0.0,5.0,1.0,1.0,5.0,5.0,375.5077730002085,3.0,0.0,part_2,stop,200.0,150.0,3.0,,,,,,,,,green,cross
0.0,8.0,4.0,1.0,5.0,0.0,0.0,3.0,0.0,part_2,stop,150.0,150.0,4.0,,,,,,,,,magenta,hexagon
0.0,7.0,3.0,1.0,5.0,5.0,460.4180970000016,3.0,0.0,part_2,go,200.0,150.0,1.0,,,,,,,,,yellow,diamond
0.0,1.0,1.0,0.0,5.0,5.0,478.2869170003323,3.0,0.0,part_2,go,200.0,150.0,1.0,,,,,,,,,orange,triangle
0.0,5.0,1.0,1.0,5.0,0.0,0.0,3.0,0.0,part_2,stop,200.0,150.0,4.0,,,,,,,,,green,cross
0.0,8.0,4.0,1.0,6.0,0.0,0.0,3.0,0.0,part_2,stop,250.0,150.0,4.0,,,,,,,,,magenta,hexagon
0.0,8.0,4.0,1.0,5.0,5.0,427.6640989996849,3.0,0.0,part_2,stop,250.0,200.0,3.0,,,,,,,,,magenta,hexagon
0.0,1.0,1.0,0.0,6.0,6.0,375.2179980001529,3.0,0.0,part_2,go,200.0,200.0,1.0,,,,,,,,,orange,triangle
0.0,6.0,2.0,1.0,5.0,5.0,352.7715939999325,3.0,0.0,part_2,stop,200.0,200.0,3.0,,,,,,,,,gray,flipped triangle
0.0,5.0,1.0,1.0,6.0,6.0,614.449157999843,3.0,0.0,part_2,go,150.0,200.0,1.0,,,,,,,,,green,cross
0.0,8.0,4.0,1.0,5.0,0.0,0.0,3.0,0.0,part_2,stop,150.0,200.0,4.0,,,,,,,,,magenta,hexagon
0.0,8.0,4.0,1.0,5.0,0.0,0.0,3.0,0.0,part_2,stop,200.0,200.0,4.0,,,,,,,,,magenta,hexagon
0.0,5.0,1.0,1.0,6.0,0.0,0.0,3.0,0.0,part_2,stop,250.0,200.0,4.0,,,,,,,,,green,cross
0.0,1.0,1.0,0.0,6.0,6.0,363.2777890002217,3.0,0.0,part_2,go,250.0,250.0,1.0,,,,,,,,,orange,triangle
0.0,4.0,4.0,0.0,6.0,6.0,394.5800110000164,3.0,0.0,part_2,go,250.0,250.0,1.0,,,,,,,,,white,square
0.0,8.0,4.0,1.0,6.0,6.0,428.171423999629,3.0,0.0,part_2,stop,250.0,250.0,3.0,,,,,,,,,magenta,hexagon
0.0,6.0,2.0,1.0,6.0,6.0,575.2525050002077,3.0,0.0,part_2,go,250.0,200.0,1.0,,,,,,,,,gray,flipped triangle
0.0,5.0,1.0,1.0,6.0,0.0,0.0,3.0,0.0,part_2,stop,250.0,200.0,4.0,,,,,,,,,green,cross
0.0,2.0,2.0,0.0,6.0,6.0,586.7083010002716,3.0,0.0,part_2,go,250.0,250.0,1.0,,,,,,,,,cyan,I
0.0,5.0,1.0,1.0,6.0,0.0,0.0,3.0,0.0,part_2,stop,250.0,250.0,4.0,,,,,,,,,green,cross
0.0,1.0,1.0,0.0,6.0,6.0,538.3311579998917,3.0,0.0,part_2,go,250.0,300.0,1.0,,,,,,,,,orange,triangle
0.0,7.0,3.0,1.0,6.0,0.0,0.0,3.0,0.0,part_2,stop,250.0,300.0,4.0,,,,,,,,,yellow,diamond
0.0,3.0,3.0,0.0,6.0,6.0,614.400759000091,3.0,0.0,part_2,go,250.0,350.0,1.0,,,,,,,,,blue,circle
0.0,6.0,2.0,1.0,6.0,0.0,0.0,3.0,0.0,part_2,stop,250.0,350.0,4.0,,,,,,,,,gray,flipped triangle
0.0,7.0,3.0,1.0,6.0,6.0,748.6324840001544,3.0,0.0,part_2,go,250.0,400.0,1.0,,,,,,,,,yellow,diamond
0.0,7.0,3.0,1.0,5.0,0.0,0.0,3.0,0.0,part_2,stop,250.0,400.0,4.0,,,,,,,,,yellow,diamond
0.0,5.0,1.0,1.0,5.0,0.0,0.0,4.0,0.0,part_2,stop,300.0,400.0,4.0,,,,,,,,,green,cross
0.0,6.0,2.0,1.0,5.0,5.0,479.902194999795,4.0,0.0,part_2,stop,350.0,400.0,3.0,,,,,,,,,gray,flipped triangle
0.0,3.0,3.0,0.0,5.0,5.0,632.4236519999431,4.0,0.0,part_2,go,300.0,400.0,1.0,,,,,,,,,blue,circle
0.0,2.0,2.0,0.0,6.0,6.0,488.2876409997152,4.0,0.0,part_2,go,300.0,400.0,1.0,,,,,,,,,cyan,I
0.0,2.0,2.0,0.0,6.0,6.0,499.8766919998161,4.0,0.0,part_2,go,300.0,400.0,1.0,,,,,,,,,cyan,I
0.0,3.0,3.0,0.0,6.0,6.0,451.4858319998893,4.0,0.0,part_2,go,300.0,400.0,1.0,,,,,,,,,blue,circle
0.0,8.0,4.0,1.0,5.0,5.0,498.3632560001751,4.0,0.0,part_2,go,300.0,400.0,1.0,,,,,,,,,magenta,hexagon
0.0,2.0,2.0,0.0,6.0,6.0,375.28774600014,4.0,0.0,part_2,go,300.0,400.0,1.0,,,,,,,,,cyan,I
0.0,8.0,4.0,1.0,5.0,0.0,0.0,4.0,0.0,part_2,stop,300.0,400.0,4.0,,,,,,,,,magenta,hexagon
0.0,4.0,4.0,0.0,5.0,5.0,487.9591900003106,4.0,0.0,part_2,go,350.0,400.0,1.0,,,,,,,,,white,square
0.0,2.0,2.0,0.0,5.0,5.0,556.9276779997381,4.0,0.0,part_2,go,350.0,400.0,1.0,,,,,,,,,cyan,I
0.0,7.0,3.0,1.0,6.0,6.0,545.6121100000928,4.0,0.0,part_2,go,350.0,400.0,1.0,,,,,,,,,yellow,diamond
0.0,3.0,3.0,0.0,6.0,6.0,487.7618079999593,4.0,0.0,part_2,go,350.0,400.0,1.0,,,,,,,,,blue,circle
0.0,2.0,2.0,0.0,5.0,5.0,421.8278090002059,4.0,0.0,part_2,go,350.0,400.0,1.0,,,,,,,,,cyan,I
0.0,8.0,4.0,1.0,6.0,6.0,498.6750520001806,4.0,0.0,part_2,stop,350.0,400.0,3.0,,,,,,,,,magenta,hexagon
0.0,6.0,2.0,1.0,6.0,0.0,0.0,4.0,0.0,part_2,stop,350.0,350.0,4.0,,,,,,,,,gray,flipped triangle
0.0,1.0,1.0,0.0,5.0,5.0,527.8788939999686,4.0,0.0,part_2,go,350.0,400.0,1.0,,,,,,,,,orange,triangle
0.0,7.0,3.0,1.0,5.0,0.0,0.0,4.0,0.0,part_2,stop,350.0,400.0,4.0,,,,,,,,,yellow,diamond
0.0,3.0,3.0,0.0,5.0,5.0,644.9326399997517,4.0,0.0,part_2,go,400.0,400.0,1.0,,,,,,,,,blue,circle
0.0,6.0,2.0,1.0,5.0,0.0,0.0,4.0,0.0,part_2,stop,400.0,400.0,4.0,,,,,,,,,gray,flipped triangle
0.0,2.0,2.0,0.0,6.0,6.0,509.565916000156,4.0,0.0,part_2,go,450.0,400.0,1.0,,,,,,,,,cyan,I
0.0,4.0,4.0,0.0,5.0,5.0,604.3564589999733,4.0,0.0,part_2,go,450.0,400.0,1.0,,,,,,,,,white,square
0.0,6.0,2.0,1.0,6.0,6.0,584.239142000115,4.0,0.0,part_2,stop,450.0,400.0,3.0,,,,,,,,,gray,flipped triangle
0.0,5.0,1.0,1.0,5.0,5.0,623.7941350000256,4.0,0.0,part_2,stop,450.0,350.0,3.0,,,,,,,,,green,cross
0.0,3.0,3.0,0.0,5.0,5.0,749.2034550000426,4.0,0.0,part_2,go,400.0,350.0,1.0,,,,,,,,,blue,circle
0.0,6.0,2.0,1.0,5.0,5.0,701.8955919998007,4.0,0.0,part_2,go,400.0,350.0,1.0,,,,,,,,,gray,flipped triangle
0.0,6.0,2.0,1.0,5.0,0.0,0.0,4.0,0.0,part_2,stop,400.0,350.0,4.0,,,,,,,,,gray,flipped triangle
0.0,7.0,3.0,1.0,6.0,0.0,0.0,4.0,0.0,part_2,stop,450.0,350.0,4.0,,,,,,,,,yellow,diamond
0.0,6.0,2.0,1.0,5.0,0.0,0.0,4.0,0.0,part_2,stop,450.0,400.0,4.0,,,,,,,,,gray,flipped triangle
0.0,8.0,4.0,1.0,5.0,5.0,769.3760959996325,4.0,0.0,part_2,go,500.0,400.0,1.0,,,,,,,,,magenta,hexagon
0.0,8.0,4.0,1.0,6.0,0.0,0.0,4.0,0.0,part_2,stop,500.0,400.0,4.0,,,,,,,,,magenta,hexagon
0.0,4.0,4.0,0.0,6.0,6.0,671.3229609999871,4.0,0.0,part_2,go,500.0,450.0,1.0,,,,,,,,,white,square
0.0,4.0,4.0,0.0,6.0,6.0,806.5791730000456,4.0,0.0,part_2,go,500.0,450.0,1.0,,,,,,,,,white,square
0.0,7.0,3.0,1.0,6.0,6.0,706.7428949999339,4.0,0.0,part_2,go,500.0,450.0,1.0,,,,,,,,,yellow,diamond
0.0,2.0,2.0,0.0,6.0,6.0,394.1481400001976,4.0,0.0,part_2,go,500.0,450.0,1.0,,,,,,,,,cyan,I
0.0,2.0,2.0,0.0,5.0,5.0,527.1006430002672,4.0,0.0,part_2,go,500.0,450.0,1.0,,,,,,,,,cyan,I
0.0,8.0,4.0,1.0,6.0,6.0,491.7756790000567,5.0,0.0,part_2,stop,500.0,450.0,3.0,,,,,,,,,magenta,hexagon
0.0,4.0,4.0,0.0,5.0,5.0,565.0599679997867,5.0,0.0,part_2,go,500.0,400.0,1.0,,,,,,,,,white,square
0.0,6.0,2.0,1.0,6.0,6.0,355.0940449999871,5.0,0.0,part_2,go,500.0,400.0,1.0,,,,,,,,,gray,flipped triangle
0.0,3.0,3.0,0.0,5.0,5.0,364.8544920001768,5.0,0.0,part_2,go,500.0,400.0,1.0,,,,,,,,,blue,circle
0.0,1.0,1.0,0.0,6.0,6.0,316.69915700013,5.0,0.0,part_2,go,500.0,400.0,1.0,,,,,,,,,orange,triangle
0.0,6.0,2.0,1.0,5.0,5.0,402.0212200002788,5.0,0.0,part_2,stop,500.0,400.0,3.0,,,,,,,,,gray,flipped triangle
0.0,1.0,1.0,0.0,5.0,5.0,575.0115549999464,5.0,0.0,part_2,go,450.0,400.0,1.0,,,,,,,,,orange,triangle
0.0,4.0,4.0,0.0,5.0,5.0,488.3486509997965,5.0,0.0,part_2,go,450.0,400.0,1.0,,,,,,,,,white,square
0.0,6.0,2.0,1.0,6.0,6.0,306.6125239997745,5.0,0.0,part_2,stop,450.0,400.0,3.0,,,,,,,,,gray,flipped triangle
0.0,6.0,2.0,1.0,6.0,0.0,0.0,5.0,0.0,part_2,stop,450.0,350.0,4.0,,,,,,,,,gray,flipped triangle
0.0,1.0,1.0,0.0,5.0,5.0,556.757818999813,5.0,0.0,part_2,go,450.0,400.0,1.0,,,,,,,,,orange,triangle
0.0,4.0,4.0,0.0,6.0,6.0,593.551490000209,5.0,0.0,part_2,go,450.0,400.0,1.0,,,,,,,,,white,square
0.0,5.0,1.0,1.0,6.0,0.0,0.0,5.0,0.0,part_2,stop,450.0,400.0,4.0,,,,,,,,,green,cross
0.0,2.0,2.0,0.0,6.0,6.0,585.3577679999944,5.0,0.0,part_2,go,450.0,450.0,1.0,,,,,,,,,cyan,I
0.0,7.0,3.0,1.0,5.0,5.0,545.9207980002247,5.0,0.0,part_2,stop,450.0,450.0,3.0,,,,,,,,,yellow,diamond
0.0,4.0,4.0,0.0,5.0,5.0,633.6480269997082,5.0,0.0,part_2,go,400.0,450.0,1.0,,,,,,,,,white,square
0.0,5.0,1.0,1.0,6.0,6.0,581.8233089999012,5.0,0.0,part_2,stop,400.0,450.0,3.0,,,,,,,,,green,cross
0.0,2.0,2.0,0.0,5.0,5.0,611.8112559997826,5.0,0.0,part_2,go,400.0,400.0,1.0,,,,,,,,,cyan,I
0.0,8.0,4.0,1.0,5.0,0.0,0.0,5.0,0.0,part_2,stop,400.0,400.0,4.0,,,,,,,,,magenta,hexagon
0.0,3.0,3.0,0.0,6.0,6.0,538.0630979998386,5.0,0.0,part_2,go,450.0,400.0,1.0,,,,,,,,,blue,circle
0.0,6.0,2.0,1.0,5.0,5.0,527.2131530000479,5.0,0.0,part_2,stop,450.0,400.0,3.0,,,,,,,,,gray,flipped triangle
0.0,4.0,4.0,0.0,6.0,6.0,508.56801999998424,5.0,0.0,part_2,go,400.0,400.0,1.0,,,,,,,,,white,square
0.0,2.0,2.0,0.0,6.0,6.0,461.7194749998816,5.0,0.0,part_2,go,400.0,400.0,1.0,,,,,,,,,cyan,I
0.0,5.0,1.0,1.0,6.0,0.0,0.0,5.0,0.0,part_2,stop,400.0,400.0,4.0,,,,,,,,,green,cross
0.0,2.0,2.0,0.0,5.0,5.0,556.2604279994048,5.0,0.0,part_2,go,400.0,450.0,1.0,,,,,,,,,cyan,I
0.0,5.0,1.0,1.0,6.0,6.0,414.2913570003657,5.0,0.0,part_2,stop,400.0,450.0,3.0,,,,,,,,,green,cross
0.0,2.0,2.0,0.0,5.0,5.0,651.452029000211,5.0,0.0,part_2,go,400.0,400.0,1.0,,,,,,,,,cyan,I
0.0,6.0,2.0,1.0,6.0,0.0,0.0,5.0,0.0,part_2,stop,400.0,400.0,4.0,,,,,,,,,gray,flipped triangle
0.0,2.0,2.0,0.0,5.0,5.0,536.1924620001446,5.0,0.0,part_2,go,400.0,450.0,1.0,,,,,,,,,cyan,I
0.0,3.0,3.0,0.0,5.0,5.0,632.8612830002385,5.0,0.0,part_2,go,400.0,450.0,1.0,,,,,,,,,blue,circle
0.0,7.0,3.0,1.0,6.0,0.0,0.0,5.0,0.0,part_2,stop,400.0,450.0,4.0,,,,,,,,,yellow,diamond
0.0,3.0,3.0,0.0,6.0,6.0,527.2137049996672,5.0,0.0,part_2,go,400.0,500.0,1.0,,,,,,,,,blue,circle
0.0,4.0,4.0,0.0,5.0,5.0,652.4146759993528,5.0,0.0,part_2,go,400.0,500.0,1.0,,,,,,,,,white,square
0.0,4.0,4.0,0.0,5.0,5.0,527.2622580005191,5.0,0.0,part_2,go,400.0,500.0,1.0,,,,,,,,,white,square
0.0,5.0,1.0,1.0,6.0,6.0,509.01235500077746,5.0,0.0,part_2,go,400.0,500.0,1.0,,,,,,,,,green,cross
0.0,6.0,2.0,1.0,5.0,0.0,0.0,5.0,0.0,part_2,stop,400.0,500.0,4.0,,,,,,,,,gray,flipped triangle
0.0,8.0,4.0,1.0,5.0,0.0,0.0,6.0,0.0,part_2,stop,450.0,500.0,4.0,,,,,,,,,magenta,hexagon
0.0,3.0,3.0,0.0,5.0,5.0,564.578005999465,6.0,0.0,part_2,go,500.0,500.0,1.0,,,,,,,,,blue,circle
0.0,3.0,3.0,0.0,5.0,5.0,381.0977290004302,6.0,0.0,part_2,go,500.0,500.0,1.0,,,,,,,,,blue,circle
0.0,1.0,1.0,0.0,5.0,5.0,393.9401510006064,6.0,0.0,part_2,go,500.0,500.0,1.0,,,,,,,,,orange,triangle
0.0,2.0,2.0,0.0,6.0,6.0,440.1513889997659,6.0,0.0,part_2,go,500.0,500.0,1.0,,,,,,,,,cyan,I
0.0,5.0,1.0,1.0,6.0,6.0,564.6120999999766,6.0,0.0,part_2,stop,500.0,500.0,3.0,,,,,,,,,green,cross
0.0,4.0,4.0,0.0,6.0,6.0,546.034762999625,6.0,0.0,part_2,go,500.0,450.0,1.0,,,,,,,,,white,square
0.0,5.0,1.0,1.0,6.0,6.0,575.8367580001504,6.0,0.0,part_2,stop,500.0,450.0,3.0,,,,,,,,,green,cross
0.0,7.0,3.0,1.0,6.0,0.0,0.0,6.0,0.0,part_2,stop,500.0,400.0,4.0,,,,,,,,,yellow,diamond
0.0,7.0,3.0,1.0,6.0,6.0,658.8355829999273,6.0,0.0,part_2,stop,500.0,450.0,3.0,,,,,,,,,yellow,diamond
0.0,1.0,1.0,0.0,6.0,6.0,603.0569529993954,6.0,0.0,part_2,go,500.0,400.0,1.0,,,,,,,,,orange,triangle
0.0,5.0,1.0,1.0,6.0,0.0,0.0,6.0,0.0,part_2,stop,500.0,400.0,4.0,,,,,,,,,green,cross
0.0,4.0,4.0,0.0,5.0,5.0,606.7468600003849,6.0,0.0,part_2,go,500.0,450.0,1.0,,,,,,,,,white,square
0.0,4.0,4.0,0.0,6.0,6.0,678.3176440003444,6.0,0.0,part_2,go,500.0,450.0,1.0,,,,,,,,,white,square
0.0,1.0,1.0,0.0,5.0,5.0,566.7162419995293,6.0,0.0,part_2,go,500.0,450.0,1.0,,,,,,,,,orange,triangle
0.0,1.0,1.0,0.0,5.0,5.0,430.1696600005016,6.0,0.0,part_2,go,500.0,450.0,1.0,,,,,,,,,orange,triangle
0.0,2.0,2.0,0.0,6.0,6.0,431.8338339999172,6.0,0.0,part_2,go,500.0,450.0,1.0,,,,,,,,,cyan,I
0.0,5.0,1.0,1.0,6.0,0.0,0.0,6.0,0.0,part_2,stop,500.0,450.0,4.0,,,,,,,,,green,cross
0.0,1.0,1.0,0.0,5.0,5.0,528.6406699997315,6.0,0.0,part_2,go,500.0,500.0,1.0,,,,,,,,,orange,triangle
0.0,5.0,1.0,1.0,6.0,0.0,0.0,6.0,0.0,part_2,stop,500.0,500.0,4.0,,,,,,,,,green,cross
0.0,1.0,1.0,0.0,5.0,5.0,528.4051600001476,6.0,0.0,part_2,go,500.0,550.0,1.0,,,,,,,,,orange,triangle
0.0,4.0,4.0,0.0,6.0,6.0,412.2826960001475,6.0,0.0,part_2,go,500.0,550.0,1.0,,,,,,,,,white,square
0.0,1.0,1.0,0.0,6.0,6.0,652.2671089996948,6.0,0.0,part_2,go,500.0,550.0,1.0,,,,,,,,,orange,triangle
0.0,6.0,2.0,1.0,6.0,6.0,497.9238619998796,6.0,0.0,part_2,stop,500.0,550.0,3.0,,,,,,,,,gray,flipped triangle
0.0,6.0,2.0,1.0,6.0,0.0,0.0,6.0,0.0,part_2,stop,500.0,500.0,4.0,,,,,,,,,gray,flipped triangle
0.0,4.0,4.0,0.0,5.0,5.0,594.7869330002504,6.0,0.0,part_2,go,500.0,550.0,1.0,,,,,,,,,white,square
0.0,1.0,1.0,0.0,6.0,6.0,663.1773559993235,6.0,0.0,part_2,go,500.0,550.0,1.0,,,,,,,,,orange,triangle
0.0,2.0,2.0,0.0,5.0,5.0,526.9722379998711,6.0,0.0,part_2,go,500.0,550.0,1.0,,,,,,,,,cyan,I
0.0,8.0,4.0,1.0,6.0,6.0,413.0863570007932,6.0,0.0,part_2,stop,500.0,550.0,3.0,,,,,,,,,magenta,hexagon
0.0,2.0,2.0,0.0,6.0,6.0,721.9596919994729,6.0,0.0,part_2,go,500.0,500.0,1.0,,,,,,,,,cyan,I
0.0,8.0,4.0,1.0,6.0,6.0,834.5528099998774,6.0,0.0,part_2,go,500.0,500.0,1.0,,,,,,,,,magenta,hexagon
0.0,8.0,4.0,1.0,5.0,0.0,0.0,6.0,0.0,part_2,stop,500.0,500.0,4.0,,,,,,,,,magenta,hexagon
0.0,5.0,1.0,1.0,5.0,5.0,729.4697200004521,6.0,0.0,part_2,go,550.0,500.0,1.0,,,,,,,,,green,cross
0.0,7.0,3.0,1.0,5.0,5.0,597.2321890003514,6.0,0.0,part_2,stop,550.0,500.0,3.0,,,,,,,,,yellow,diamond
0.0,4.0,4.0,0.0,5.0,5.0,709.1336209996371,6.0,0.0,part_2,go,500.0,500.0,1.0,,,,,,,,,white,square
0.0,6.0,2.0,1.0,6.0,6.0,698.7938660004147,6.0,0.0,part_2,stop,500.0,500.0,3.0,,,,,,,,,gray,flipped triangle
0.0,4.0,4.0,0.0,6.0,6.0,566.3677769998685,7.0,0.0,part_2,go,500.0,450.0,1.0,,,,,,,,,white,square
0.0,5.0,1.0,1.0,5.0,5.0,610.031969999909,7.0,0.0,part_2,stop,500.0,450.0,3.0,,,,,,,,,green,cross
0.0,1.0,1.0,0.0,5.0,5.0,603.0522389992257,7.0,0.0,part_2,go,450.0,450.0,1.0,,,,,,,,,orange,triangle
0.0,1.0,1.0,0.0,6.0,6.0,460.4729590000715,7.0,0.0,part_2,go,450.0,450.0,1.0,,,,,,,,,orange,triangle
0.0,6.0,2.0,1.0,6.0,6.0,412.5761779996537,7.0,0.0,part_2,stop,450.0,450.0,3.0,,,,,,,,,gray,flipped triangle
0.0,2.0,2.0,0.0,5.0,5.0,500.5357720001484,7.0,0.0,part_2,go,450.0,400.0,1.0,,,,,,,,,cyan,I
0.0,1.0,1.0,0.0,6.0,6.0,479.0547660004449,7.0,0.0,part_2,go,450.0,400.0,1.0,,,,,,,,,orange,triangle
0.0,2.0,2.0,0.0,5.0,5.0,508.7399789999836,7.0,0.0,part_2,go,450.0,400.0,1.0,,,,,,,,,cyan,I
0.0,4.0,4.0,0.0,5.0,5.0,651.6996110003674,7.0,0.0,part_2,go,450.0,400.0,1.0,,,,,,,,,white,square
0.0,6.0,2.0,1.0,5.0,0.0,0.0,7.0,0.0,part_2,stop,450.0,400.0,4.0,,,,,,,,,gray,flipped triangle
0.0,3.0,3.0,0.0,6.0,6.0,528.7168710001424,7.0,0.0,part_2,go,500.0,400.0,1.0,,,,,,,,,blue,circle
0.0,4.0,4.0,0.0,6.0,6.0,521.1148080006751,7.0,0.0,part_2,go,500.0,400.0,1.0,,,,,,,,,white,square
0.0,2.0,2.0,0.0,5.0,5.0,517.6227490001111,7.0,0.0,part_2,go,500.0,400.0,1.0,,,,,,,,,cyan,I
0.0,7.0,3.0,1.0,6.0,6.0,393.760881000162,7.0,0.0,part_2,stop,500.0,400.0,3.0,,,,,,,,,yellow,diamond
0.0,5.0,1.0,1.0,5.0,5.0,553.1153620004261,7.0,0.0,part_2,stop,500.0,350.0,3.0,,,,,,,,,green,cross
0.0,1.0,1.0,0.0,5.0,5.0,537.2246449996965,7.0,0.0,part_2,go,450.0,350.0,1.0,,,,,,,,,orange,triangle
0.0,7.0,3.0,1.0,5.0,5.0,442.1354440000868,7.0,0.0,part_2,stop,450.0,350.0,3.0,,,,,,,,,yellow,diamond
0.0,4.0,4.0,0.0,6.0,6.0,460.6144950002999,7.0,0.0,part_2,go,400.0,350.0,1.0,,,,,,,,,white,square
0.0,6.0,2.0,1.0,5.0,5.0,931.3205670005118,7.0,0.0,part_2,go,400.0,350.0,1.0,,,,,,,,,gray,flipped triangle
0.0,6.0,2.0,1.0,6.0,0.0,0.0,7.0,0.0,part_2,stop,400.0,350.0,4.0,,,,,,,,,gray,flipped triangle
0.0,1.0,1.0,0.0,6.0,6.0,547.7007789995696,7.0,0.0,part_2,go,400.0,400.0,1.0,,,,,,,,,orange,triangle
0.0,1.0,1.0,0.0,5.0,5.0,634.6398119994774,7.0,0.0,part_2,go,400.0,400.0,1.0,,,,,,,,,orange,triangle
0.0,1.0,1.0,0.0,5.0,5.0,546.3234050002939,7.0,0.0,part_2,go,400.0,400.0,1.0,,,,,,,,,orange,triangle
0.0,5.0,1.0,1.0,5.0,0.0,0.0,7.0,0.0,part_2,stop,400.0,400.0,4.0,,,,,,,,,green,cross
0.0,7.0,3.0,1.0,5.0,0.0,0.0,7.0,0.0,part_2,stop,450.0,400.0,4.0,,,,,,,,,yellow,diamond
0.0,6.0,2.0,1.0,6.0,6.0,660.9975919991484,7.0,0.0,part_2,go,500.0,400.0,1.0,,,,,,,,,gray,flipped triangle
0.0,7.0,3.0,1.0,5.0,5.0,756.7679880003197,7.0,0.0,part_2,stop,500.0,400.0,3.0,,,,,,,,,yellow,diamond
0.0,3.0,3.0,0.0,5.0,5.0,727.7795850004622,7.0,0.0,part_2,go,450.0,400.0,1.0,,,,,,,,,blue,circle
0.0,5.0,1.0,1.0,6.0,0.0,0.0,7.0,0.0,part_2,stop,450.0,400.0,4.0,,,,,,,,,green,cross
0.0,1.0,1.0,0.0,6.0,6.0,528.2848040005774,7.0,0.0,part_2,go,450.0,450.0,1.0,,,,,,,,,orange,triangle
0.0,5.0,1.0,1.0,6.0,6.0,730.1322160001291,7.0,0.0,part_2,go,450.0,450.0,1.0,,,,,,,,,green,cross
0.0,4.0,4.0,0.0,6.0,6.0,488.7072209994585,7.0,0.0,part_2,go,450.0,450.0,1.0,,,,,,,,,white,square
0.0,2.0,2.0,0.0,6.0,6.0,411.9279490005283,7.0,0.0,part_2,go,450.0,450.0,1.0,,,,,,,,,cyan,I
0.0,3.0,3.0,0.0,5.0,5.0,413.222510000196,7.0,0.0,part_2,go,450.0,450.0,1.0,,,,,,,,,blue,circle
0.0,5.0,1.0,1.0,5.0,0.0,0.0,7.0,0.0,part_2,stop,450.0,450.0,4.0,,,,,,,,,green,cross
0.0,7.0,3.0,1.0,6.0,6.0,759.2075740003565,7.0,0.0,part_2,go,500.0,450.0,1.0,,,,,,,,,yellow,diamond
0.0,7.0,3.0,1.0,5.0,5.0,584.1132229998038,8.0,0.0,part_2,go,500.0,450.0,1.0,,,,,,,,,yellow,diamond
0.0,7.0,3.0,1.0,5.0,5.0,545.1944759997787,8.0,0.0,part_2,stop,500.0,450.0,3.0,,,,,,,,,yellow,diamond
0.0,4.0,4.0,0.0,5.0,5.0,440.7847579996087,8.0,0.0,part_2,go,450.0,450.0,1.0,,,,,,,,,white,square
0.0,8.0,4.0,1.0,6.0,0.0,0.0,8.0,0.0,part_2,stop,450.0,450.0,4.0,,,,,,,,,magenta,hexagon
0.0,8.0,4.0,1.0,6.0,6.0,602.6763460004076,8.0,0.0,part_2,stop,450.0,500.0,3.0,,,,,,,,,magenta,hexagon
0.0,6.0,2.0,1.0,6.0,6.0,932.2187230000054,8.0,0.0,part_2,go,450.0,450.0,1.0,,,,,,,,,gray,flipped triangle
0.0,3.0,3.0,0.0,5.0,5.0,527.8177010004583,8.0,0.0,part_2,go,450.0,450.0,1.0,,,,,,,,,blue,circle
0.0,8.0,4.0,1.0,5.0,0.0,0.0,8.0,0.0,part_2,stop,450.0,450.0,4.0,,,,,,,,,magenta,hexagon
0.0,8.0,4.0,1.0,5.0,0.0,0.0,8.0,0.0,part_2,stop,500.0,450.0,4.0,,,,,,,,,magenta,hexagon
0.0,3.0,3.0,0.0,5.0,5.0,645.142859999396,8.0,0.0,part_2,go,550.0,450.0,1.0,,,,,,,,,blue,circle
0.0,4.0,4.0,0.0,6.0,6.0,470.0975189998644,8.0,0.0,part_2,go,550.0,450.0,1.0,,,,,,,,,white,square
0.0,8.0,4.0,1.0,5.0,0.0,0.0,8.0,0.0,part_2,stop,550.0,450.0,4.0,,,,,,,,,magenta,hexagon
0.0,3.0,3.0,0.0,6.0,6.0,529.7551819994624,8.0,0.0,part_2,go,600.0,450.0,1.0,,,,,,,,,blue,circle
0.0,4.0,4.0,0.0,5.0,5.0,432.7038719993652,8.0,0.0,part_2,go,600.0,450.0,1.0,,,,,,,,,white,square
0.0,3.0,3.0,0.0,6.0,6.0,403.5467679996145,8.0,0.0,part_2,go,600.0,450.0,1.0,,,,,,,,,blue,circle
0.0,3.0,3.0,0.0,6.0,6.0,518.8912700004948,8.0,0.0,part_2,go,600.0,450.0,1.0,,,,,,,,,blue,circle
0.0,7.0,3.0,1.0,6.0,0.0,0.0,8.0,0.0,part_2,stop,600.0,450.0,4.0,,,,,,,,,yellow,diamond
0.0,8.0,4.0,1.0,5.0,5.0,718.2528760004061,8.0,0.0,part_2,stop,600.0,500.0,3.0,,,,,,,,,magenta,hexagon
0.0,8.0,4.0,1.0,5.0,0.0,0.0,8.0,0.0,part_2,stop,550.0,500.0,4.0,,,,,,,,,magenta,hexagon
0.0,3.0,3.0,0.0,6.0,6.0,498.9205320007386,8.0,0.0,part_2,go,600.0,500.0,1.0,,,,,,,,,blue,circle
0.0,3.0,3.0,0.0,5.0,5.0,854.3004049997762,8.0,0.0,part_2,go,600.0,500.0,1.0,,,,,,,,,blue,circle
0.0,4.0,4.0,0.0,5.0,5.0,691.2236069993014,8.0,0.0,part_2,go,600.0,500.0,1.0,,,,,,,,,white,square
0.0,2.0,2.0,0.0,5.0,5.0,565.9548620005808,8.0,0.0,part_2,go,600.0,500.0,1.0,,,,,,,,,cyan,I
0.0,4.0,4.0,0.0,6.0,6.0,520.1037790002374,8.0,0.0,part_2,go,600.0,500.0,1.0,,,,,,,,,white,square
0.0,4.0,4.0,0.0,5.0,5.0,498.7767189995793,8.0,0.0,part_2,go,600.0,500.0,1.0,,,,,,,,,white,square
0.0,1.0,1.0,0.0,6.0,6.0,683.0170970006293,8.0,0.0,part_2,go,600.0,500.0,1.0,,,,,,,,,orange,triangle
0.0,6.0,2.0,1.0,5.0,5.0,951.1885829997482,8.0,0.0,part_2,go,600.0,500.0,1.0,,,,,,,,,gray,flipped triangle
0.0,5.0,1.0,1.0,5.0,0.0,0.0,8.0,0.0,part_2,stop,600.0,500.0,4.0,,,,,,,,,green,cross
0.0,3.0,3.0,0.0,5.0,5.0,556.8823350004095,8.0,0.0,part_2,go,650.0,500.0,1.0,,,,,,,,,blue,circle
0.0,1.0,1.0,0.0,5.0,5.0,578.0972829998063,8.0,0.0,part_2,go,650.0,500.0,1.0,,,,,,,,,orange,triangle
0.0,1.0,1.0,0.0,5.0,5.0,451.2201270008518,8.0,0.0,part_2,go,650.0,500.0,1.0,,,,,,,,,orange,triangle
0.0,8.0,4.0,1.0,6.0,0.0,0.0,8.0,0.0,part_2,stop,650.0,500.0,4.0,,,,,,,,,magenta,hexagon
0.0,8.0,4.0,1.0,5.0,0.0,0.0,8.0,0.0,part_2,stop,650.0,550.0,4.0,,,,,,,,,magenta,hexagon
0.0,6.0,2.0,1.0,6.0,0.0,0.0,8.0,0.0,part_2,stop,700.0,550.0,4.0,,,,,,,,,gray,flipped triangle
0.0,4.0,4.0,0.0,6.0,6.0,535.843431000103,8.0,0.0,part_2,go,700.0,600.0,1.0,,,,,,,,,white,square
0.0,2.0,2.0,0.0,6.0,6.0,470.4934320006941,8.0,0.0,part_2,go,700.0,600.0,1.0,,,,,,,,,cyan,I
0.0,1.0,1.0,0.0,7.0,3.0,2512.2872000001735,1.0,1.0,part_3,go,0.0,0.0,0.0,576.0,3.0,1152.0,768.0,576.0,192.0,384.0,960.0,orange,triangle
0.0,6.0,2.0,1.0,7.0,3.0,2808.2786999993914,1.0,1.0,part_3,go,0.0,0.0,0.0,1152.0,6.0,768.0,960.0,1152.0,192.0,384.0,576.0,gray,flipped triangle
0.0,1.0,1.0,0.0,7.0,4.0,2456.8340400001034,1.0,1.0,part_3,go,0.0,0.0,0.0,692.0,4.0,865.0,346.0,519.0,692.0,173.0,1038.0,orange,triangle
0.0,4.0,4.0,0.0,7.0,6.0,1012.7682379998078,1.0,1.0,part_3,go,0.0,0.0,0.0,405.0,3.0,675.0,135.0,810.0,270.0,540.0,405.0,white,square
0.0,3.0,3.0,0.0,7.0,1.0,1374.024109999482,1.0,1.0,part_3,go,0.0,0.0,0.0,810.0,6.0,810.0,540.0,270.0,135.0,405.0,675.0,blue,circle
0.0,8.0,4.0,1.0,7.0,2.0,1600.3803980001976,1.0,1.0,part_3,go,0.0,0.0,0.0,696.0,6.0,580.0,696.0,464.0,348.0,116.0,232.0,magenta,hexagon
0.0,2.0,2.0,0.0,7.0,3.0,1383.2097470003646,1.0,1.0,part_3,go,0.0,0.0,0.0,348.0,3.0,116.0,232.0,348.0,580.0,696.0,464.0,cyan,I
0.0,6.0,2.0,1.0,7.0,1.0,1040.8408059993235,1.0,1.0,part_3,go,0.0,0.0,0.0,1038.0,6.0,1038.0,173.0,519.0,692.0,865.0,346.0,gray,flipped triangle
0.0,3.0,3.0,0.0,7.0,5.0,1745.2495349998571,1.0,1.0,part_3,go,0.0,0.0,0.0,960.0,5.0,576.0,192.0,384.0,768.0,960.0,1152.0,blue,circle
0.0,5.0,1.0,1.0,7.0,6.0,866.2371620002887,1.0,1.0,part_3,go,0.0,0.0,0.0,348.0,3.0,116.0,232.0,696.0,464.0,580.0,348.0,green,cross
0.0,3.0,3.0,0.0,7.0,3.0,1368.9636959998095,1.0,1.0,part_3,go,0.0,0.0,0.0,580.0,5.0,348.0,696.0,580.0,464.0,232.0,116.0,blue,circle
0.0,2.0,2.0,0.0,7.0,2.0,916.7132490001676,1.0,1.0,part_3,go,0.0,0.0,0.0,696.0,6.0,232.0,696.0,464.0,348.0,116.0,580.0,cyan,I
0.0,3.0,3.0,0.0,7.0,5.0,1191.0558260005928,1.0,1.0,part_3,go,0.0,0.0,0.0,924.0,6.0,462.0,154.0,770.0,616.0,924.0,308.0,blue,circle
0.0,8.0,4.0,1.0,7.0,6.0,1233.492250000381,1.0,1.0,part_3,go,0.0,0.0,0.0,173.0,1.0,1038.0,865.0,519.0,346.0,692.0,173.0,magenta,hexagon
0.0,7.0,3.0,1.0,7.0,2.0,600.8669720004036,1.0,1.0,part_3,go,0.0,0.0,0.0,540.0,4.0,405.0,540.0,810.0,675.0,270.0,135.0,yellow,diamond
0.0,2.0,2.0,0.0,7.0,2.0,2083.6683939996874,1.0,1.0,part_3,go,0.0,0.0,0.0,960.0,5.0,192.0,960.0,576.0,1152.0,768.0,384.0,cyan,I
0.0,7.0,3.0,1.0,7.0,5.0,886.5794980001738,1.0,1.0,part_3,go,0.0,0.0,0.0,384.0,2.0,1152.0,768.0,960.0,192.0,384.0,576.0,yellow,diamond
0.0,7.0,3.0,1.0,7.0,4.0,582.4591410000721,1.0,1.0,part_3,go,0.0,0.0,0.0,580.0,5.0,348.0,116.0,464.0,580.0,696.0,232.0,yellow,diamond
0.0,2.0,2.0,0.0,7.0,2.0,296.542280999347,1.0,1.0,part_3,go,0.0,0.0,0.0,519.0,3.0,346.0,519.0,173.0,692.0,1038.0,865.0,cyan,I
0.0,4.0,4.0,0.0,7.0,6.0,1060.6443289998424,1.0,1.0,part_3,go,0.0,0.0,0.0,810.0,6.0,135.0,405.0,270.0,675.0,540.0,810.0,white,square
0.0,8.0,4.0,1.0,7.0,6.0,609.1599999999744,2.0,1.0,part_3,go,0.0,0.0,0.0,192.0,1.0,768.0,384.0,576.0,1152.0,960.0,192.0,magenta,hexagon
0.0,7.0,3.0,1.0,7.0,3.0,314.2563580004207,2.0,1.0,part_3,go,0.0,0.0,0.0,675.0,5.0,540.0,270.0,675.0,810.0,135.0,405.0,yellow,diamond
0.0,6.0,2.0,1.0,7.0,4.0,211.1719120002817,2.0,1.0,part_3,go,0.0,0.0,0.0,464.0,4.0,696.0,580.0,232.0,464.0,116.0,348.0,gray,flipped triangle
0.0,5.0,1.0,1.0,7.0,5.0,28.8761170004363,2.0,1.0,part_3,go,0.0,0.0,0.0,405.0,3.0,270.0,675.0,135.0,540.0,405.0,810.0,green,cross
0.0,2.0,2.0,0.0,7.0,5.0,267.1893599999748,2.0,1.0,part_3,go,0.0,0.0,0.0,768.0,4.0,1152.0,384.0,576.0,960.0,768.0,192.0,cyan,I
0.0,4.0,4.0,0.0,7.0,2.0,248.9722410000467,2.0,1.0,part_3,go,0.0,0.0,0.0,616.0,4.0,924.0,616.0,462.0,154.0,770.0,308.0,white,square
0.0,7.0,3.0,1.0,7.0,1.0,210.8050919996458,2.0,1.0,part_3,go,0.0,0.0,0.0,346.0,2.0,346.0,865.0,692.0,519.0,173.0,1038.0,yellow,diamond
0.0,7.0,3.0,1.0,7.0,5.0,0.2742179995038,2.0,1.0,part_3,go,0.0,0.0,0.0,154.0,1.0,616.0,462.0,924.0,308.0,154.0,770.0,yellow,diamond
0.0,5.0,1.0,1.0,7.0,3.0,287.4882899996009,2.0,1.0,part_3,go,0.0,0.0,0.0,384.0,2.0,768.0,576.0,384.0,192.0,960.0,1152.0,green,cross
0.0,6.0,2.0,1.0,7.0,6.0,0.26962499941870005,2.0,1.0,part_3,go,0.0,0.0,0.0,346.0,2.0,692.0,1038.0,519.0,865.0,173.0,346.0,gray,flipped triangle
0.0,5.0,1.0,1.0,7.0,5.0,163.4905619994242,2.0,1.0,part_3,go,0.0,0.0,0.0,405.0,3.0,540.0,810.0,135.0,675.0,405.0,270.0,green,cross
0.0,2.0,2.0,0.0,7.0,2.0,0.2598860000944,2.0,1.0,part_3,go,0.0,0.0,0.0,924.0,6.0,462.0,924.0,616.0,770.0,308.0,154.0,cyan,I
0.0,4.0,4.0,0.0,7.0,1.0,94.93242300050039,2.0,1.0,part_3,go,0.0,0.0,0.0,308.0,2.0,308.0,770.0,616.0,924.0,462.0,154.0,white,square
0.0,1.0,1.0,0.0,7.0,4.0,428.9040419998855,2.0,1.0,part_3,go,0.0,0.0,0.0,384.0,2.0,768.0,576.0,1152.0,384.0,192.0,960.0,orange,triangle
0.0,4.0,4.0,0.0,7.0,3.0,324.2318709999381,2.0,1.0,part_3,go,0.0,0.0,0.0,580.0,5.0,348.0,232.0,580.0,464.0,696.0,116.0,white,square
0.0,6.0,2.0,1.0,7.0,1.0,1315.2495869999257,2.0,1.0,part_3,go,0.0,0.0,0.0,770.0,5.0,770.0,616.0,462.0,154.0,308.0,924.0,gray,flipped triangle
0.0,6.0,2.0,1.0,7.0,2.0,1393.820983000296,2.0,1.0,part_3,go,0.0,0.0,0.0,810.0,6.0,675.0,810.0,135.0,540.0,270.0,405.0,gray,flipped triangle
0.0,8.0,4.0,1.0,7.0,6.0,352.2314530000585,2.0,1.0,part_3,go,0.0,0.0,0.0,616.0,4.0,154.0,308.0,770.0,462.0,924.0,616.0,magenta,hexagon
0.0,4.0,4.0,0.0,7.0,3.0,0.24763400051589998,2.0,1.0,part_3,go,0.0,0.0,0.0,692.0,4.0,519.0,173.0,692.0,346.0,865.0,1038.0,white,square
0.0,5.0,1.0,1.0,7.0,2.0,134.9129850004828,2.0,1.0,part_3,go,0.0,0.0,0.0,1152.0,6.0,192.0,1152.0,576.0,768.0,384.0,960.0,green,cross
0.0,2.0,2.0,0.0,7.0,5.0,486.9372680004744,3.0,1.0,part_3,go,0.0,0.0,0.0,346.0,2.0,865.0,519.0,173.0,1038.0,346.0,692.0,cyan,I
0.0,8.0,4.0,1.0,7.0,3.0,105.877572999816,3.0,1.0,part_3,go,0.0,0.0,0.0,924.0,6.0,462.0,308.0,924.0,154.0,770.0,616.0,magenta,hexagon
0.0,7.0,3.0,1.0,7.0,3.0,372.763302999374,3.0,1.0,part_3,go,0.0,0.0,0.0,308.0,2.0,924.0,770.0,308.0,154.0,462.0,616.0,yellow,diamond
0.0,1.0,1.0,0.0,7.0,2.0,105.3414820007674,3.0,1.0,part_3,go,0.0,0.0,0.0,810.0,6.0,135.0,810.0,675.0,405.0,270.0,540.0,orange,triangle
0.0,3.0,3.0,0.0,7.0,6.0,47.9760750004061,3.0,1.0,part_3,go,0.0,0.0,0.0,675.0,5.0,135.0,405.0,810.0,540.0,270.0,675.0,blue,circle
0.0,6.0,2.0,1.0,7.0,4.0,144.3075729994234,3.0,1.0,part_3,go,0.0,0.0,0.0,768.0,4.0,576.0,1152.0,384.0,768.0,192.0,960.0,gray,flipped triangle
0.0,5.0,1.0,1.0,7.0,1.0,48.7543469998854,3.0,1.0,part_3,go,0.0,0.0,0.0,616.0,4.0,616.0,462.0,154.0,924.0,770.0,308.0,green,cross
0.0,4.0,4.0,0.0,7.0,2.0,38.9261020000049,3.0,1.0,part_3,go,0.0,0.0,0.0,865.0,5.0,519.0,865.0,692.0,1038.0,346.0,173.0,white,square
0.0,8.0,4.0,1.0,7.0,4.0,142.769385000065,3.0,1.0,part_3,go,0.0,0.0,0.0,696.0,6.0,348.0,232.0,464.0,696.0,116.0,580.0,magenta,hexagon
0.0,8.0,4.0,1.0,7.0,5.0,238.8196009997045,3.0,1.0,part_3,go,0.0,0.0,0.0,865.0,5.0,346.0,519.0,1038.0,173.0,865.0,692.0,magenta,hexagon
0.0,4.0,4.0,0.0,7.0,3.0,399.9920160003967,3.0,1.0,part_3,go,0.0,0.0,0.0,768.0,4.0,192.0,960.0,768.0,384.0,576.0,1152.0,white,square
0.0,4.0,4.0,0.0,7.0,6.0,1525.959843000237,3.0,1.0,part_3,go,0.0,0.0,0.0,232.0,2.0,696.0,580.0,348.0,464.0,116.0,232.0,white,square
0.0,6.0,2.0,1.0,7.0,1.0,877.393934999418,3.0,1.0,part_3,go,0.0,0.0,0.0,770.0,5.0,770.0,308.0,924.0,616.0,154.0,462.0,gray,flipped triangle
0.0,1.0,1.0,0.0,7.0,5.0,1858.710012999836,3.0,1.0,part_3,go,0.0,0.0,0.0,810.0,6.0,405.0,540.0,675.0,135.0,810.0,270.0,orange,triangle
0.0,4.0,4.0,0.0,7.0,3.0,1210.395111999787,3.0,1.0,part_3,go,0.0,0.0,0.0,1152.0,6.0,384.0,768.0,1152.0,576.0,960.0,192.0,white,square
0.0,2.0,2.0,0.0,7.0,5.0,1332.0782840000902,3.0,1.0,part_3,go,0.0,0.0,0.0,810.0,6.0,540.0,405.0,135.0,270.0,810.0,675.0,cyan,I
0.0,5.0,1.0,1.0,7.0,5.0,903.6722169994392,3.0,1.0,part_3,go,0.0,0.0,0.0,1038.0,6.0,692.0,519.0,346.0,173.0,1038.0,865.0,green,cross
0.0,1.0,1.0,0.0,7.0,5.0,1208.9752339998086,3.0,1.0,part_3,go,0.0,0.0,0.0,464.0,4.0,232.0,116.0,348.0,580.0,464.0,696.0,orange,triangle
0.0,5.0,1.0,1.0,7.0,4.0,1211.6430639998723,3.0,1.0,part_3,go,0.0,0.0,0.0,696.0,6.0,580.0,116.0,464.0,696.0,232.0,348.0,green,cross
0.0,3.0,3.0,0.0,7.0,3.0,1057.2932939994644,3.0,1.0,part_3,go,0.0,0.0,0.0,348.0,3.0,232.0,580.0,348.0,464.0,696.0,116.0,blue,circle
0.0,7.0,3.0,1.0,7.0,5.0,617.9279690004478,4.0,1.0,part_3,go,0.0,0.0,0.0,960.0,5.0,1152.0,576.0,192.0,768.0,960.0,384.0,yellow,diamond
0.0,5.0,1.0,1.0,7.0,2.0,564.2299090004599,4.0,1.0,part_3,go,0.0,0.0,0.0,462.0,3.0,154.0,462.0,770.0,308.0,924.0,616.0,green,cross
0.0,1.0,1.0,0.0,7.0,4.0,809.1799140001967,4.0,1.0,part_3,go,0.0,0.0,0.0,464.0,4.0,116.0,696.0,232.0,464.0,580.0,348.0,orange,triangle
0.0,3.0,3.0,0.0,7.0,1.0,324.5451290003984,4.0,1.0,part_3,go,0.0,0.0,0.0,1038.0,6.0,1038.0,692.0,865.0,173.0,519.0,346.0,blue,circle
0.0,5.0,1.0,1.0,7.0,2.0,820.2828459998273,4.0,1.0,part_3,go,0.0,0.0,0.0,1038.0,6.0,692.0,1038.0,346.0,519.0,865.0,173.0,green,cross
0.0,1.0,1.0,0.0,7.0,5.0,20.0267929994879,4.0,1.0,part_3,go,0.0,0.0,0.0,308.0,2.0,924.0,154.0,616.0,462.0,308.0,770.0,orange,triangle
0.0,2.0,2.0,0.0,7.0,2.0,0.2720190004765,4.0,1.0,part_3,go,0.0,0.0,0.0,770.0,5.0,616.0,770.0,924.0,154.0,308.0,462.0,cyan,I
0.0,8.0,4.0,1.0,7.0,4.0,335.1705510003739,4.0,1.0,part_3,go,0.0,0.0,0.0,675.0,5.0,270.0,135.0,405.0,675.0,810.0,540.0,magenta,hexagon
0.0,1.0,1.0,0.0,7.0,1.0,287.907680999524,4.0,1.0,part_3,go,0.0,0.0,0.0,865.0,5.0,865.0,692.0,1038.0,173.0,346.0,519.0,orange,triangle
0.0,3.0,3.0,0.0,7.0,5.0,334.3161160000818,4.0,1.0,part_3,go,0.0,0.0,0.0,462.0,3.0,924.0,616.0,770.0,154.0,462.0,308.0,blue,circle
0.0,2.0,2.0,0.0,7.0,4.0,38.4584479998011,4.0,1.0,part_3,go,0.0,0.0,0.0,135.0,1.0,540.0,405.0,270.0,135.0,675.0,810.0,cyan,I
0.0,7.0,3.0,1.0,7.0,2.0,86.1660450000272,4.0,1.0,part_3,go,0.0,0.0,0.0,232.0,2.0,580.0,232.0,348.0,116.0,696.0,464.0,yellow,diamond
0.0,1.0,1.0,0.0,7.0,5.0,704.0385440004684,4.0,1.0,part_3,go,0.0,0.0,0.0,616.0,4.0,770.0,154.0,462.0,308.0,616.0,924.0,orange,triangle
0.0,3.0,3.0,0.0,7.0,2.0,304.1933949998565,4.0,1.0,part_3,go,0.0,0.0,0.0,1038.0,6.0,865.0,1038.0,692.0,346.0,173.0,519.0,blue,circle
0.0,8.0,4.0,1.0,7.0,4.0,133.6364549997597,4.0,1.0,part_3,go,0.0,0.0,0.0,768.0,4.0,576.0,192.0,1152.0,768.0,960.0,384.0,magenta,hexagon
0.0,7.0,3.0,1.0,7.0,3.0,191.2649010000677,4.0,1.0,part_3,go,0.0,0.0,0.0,173.0,1.0,865.0,346.0,173.0,519.0,692.0,1038.0,yellow,diamond
0.0,6.0,2.0,1.0,7.0,6.0,419.2423910008074,4.0,1.0,part_3,go,0.0,0.0,0.0,232.0,2.0,348.0,116.0,696.0,464.0,580.0,232.0,gray,flipped triangle
0.0,8.0,4.0,1.0,7.0,1.0,238.4352499993838,4.0,1.0,part_3,go,0.0,0.0,0.0,810.0,6.0,810.0,675.0,135.0,540.0,270.0,405.0,magenta,hexagon
0.0,6.0,2.0,1.0,7.0,6.0,86.81649600021039,4.0,1.0,part_3,go,0.0,0.0,0.0,810.0,6.0,675.0,405.0,135.0,270.0,540.0,810.0,gray,flipped triangle
0.0,3.0,3.0,0.0,7.0,2.0,0.42710300022,4.0,1.0,part_3,go,0.0,0.0,0.0,576.0,3.0,768.0,576.0,960.0,1152.0,384.0,192.0,blue,circle
