raw_reward_magnitude,stim_reward,stepwise_reward_magnitude,paired_with_stopping,stim_location,response,reaction_time,block,num_trial_presentations,which_phase,stop_signal_trial_type,left_SSD,right_SSD,accuracy,chosen_bidding_amount,chosen_bidding_level,possible_bid_1,possible_bid_2,possible_bid_3,possible_bid_4,possible_bid_5,possible_bid_6,color_text,shape_text
328.0,6.0,1.0,1.0,3.0,3.0,506.19193800002904,1.0,1.0,phase_1,,,,,,,,,,,,,blue,triangle
326.0,2.0,1.0,0.0,1.0,1.0,497.6142370001071,1.0,1.0,phase_1,,,,,,,,,,,,,gray,cross
312.0,6.0,1.0,1.0,2.0,2.0,306.7342679996727,1.0,1.0,phase_1,,,,,,,,,,,,,blue,triangle
662.0,3.0,2.0,0.0,3.0,3.0,379.8750900000414,1.0,1.0,phase_1,,,,,,,,,,,,,orange,diamond
1290.0,8.0,4.0,1.0,3.0,3.0,359.8168550001901,1.0,1.0,phase_1,,,,,,,,,,,,,white,circle
314.0,2.0,1.0,0.0,3.0,3.0,342.5382759996864,1.0,1.0,phase_1,,,,,,,,,,,,,gray,cross
0.0,8.0,0.0,1.0,2.0,2.0,315.7465379999848,1.0,1.0,phase_1,,,,,,,,,,,,,white,circle
0.0,7.0,0.0,1.0,1.0,1.0,341.5917620000073,1.0,1.0,phase_1,,,,,,,,,,,,,yellow,square
332.0,2.0,1.0,0.0,1.0,1.0,461.6001479998886,1.0,1.0,phase_1,,,,,,,,,,,,,gray,cross
0.0,4.0,0.0,0.0,1.0,1.0,333.746020000035,1.0,1.0,phase_1,,,,,,,,,,,,,green,hexagon
634.0,7.0,2.0,1.0,1.0,1.0,313.4103430002142,1.0,1.0,phase_1,,,,,,,,,,,,,yellow,square
640.0,7.0,2.0,1.0,4.0,4.0,361.6372170004069,1.0,1.0,phase_1,,,,,,,,,,,,,yellow,square
181.0,1.0,0.5,0.0,3.0,3.0,425.5613450000055,1.0,2.0,phase_1,,,,,,,,,,,,,cyan,I
346.0,2.0,1.0,0.0,4.0,4.0,500.64936400031,1.0,1.0,phase_1,,,,,,,,,,,,,gray,cross
166.0,5.0,0.5,1.0,4.0,4.0,379.6811170000183,1.0,1.0,phase_1,,,,,,,,,,,,,magenta,flipped triangle
636.0,7.0,2.0,1.0,2.0,2.0,434.5495550001033,1.0,1.0,phase_1,,,,,,,,,,,,,yellow,square
0.0,6.0,0.0,1.0,2.0,2.0,332.4586690000615,1.0,1.0,phase_1,,,,,,,,,,,,,blue,triangle
0.0,2.0,0.0,0.0,1.0,1.0,424.8031649999575,1.0,2.0,phase_1,,,,,,,,,,,,,gray,cross
643.0,3.0,2.0,0.0,2.0,2.0,443.0207860000337,1.0,1.0,phase_1,,,,,,,,,,,,,orange,diamond
1296.0,8.0,4.0,1.0,3.0,3.0,369.4043069999679,1.0,1.0,phase_1,,,,,,,,,,,,,white,circle
179.0,5.0,0.5,1.0,3.0,3.0,368.5738700000911,1.0,1.0,phase_1,,,,,,,,,,,,,magenta,flipped triangle
1285.0,4.0,4.0,0.0,3.0,3.0,387.5793339998381,1.0,1.0,phase_1,,,,,,,,,,,,,green,hexagon
1314.0,4.0,4.0,0.0,4.0,4.0,314.7862700002406,1.0,1.0,phase_1,,,,,,,,,,,,,green,hexagon
152.0,1.0,0.5,0.0,1.0,1.0,369.4099040003493,1.0,1.0,phase_1,,,,,,,,,,,,,cyan,I
627.0,7.0,2.0,1.0,3.0,3.0,306.287348999831,1.0,1.0,phase_1,,,,,,,,,,,,,yellow,square
0.0,4.0,0.0,0.0,2.0,2.0,351.9059759996708,1.0,1.0,phase_1,,,,,,,,,,,,,green,hexagon
0.0,3.0,0.0,0.0,4.0,4.0,286.4499160000378,1.0,1.0,phase_1,,,,,,,,,,,,,orange,diamond
0.0,4.0,0.0,0.0,4.0,4.0,407.8263860001243,1.0,1.0,phase_1,,,,,,,,,,,,,green,hexagon
1301.0,4.0,4.0,0.0,1.0,1.0,333.0779789998814,1.0,1.0,phase_1,,,,,,,,,,,,,green,hexagon
647.0,7.0,2.0,1.0,4.0,4.0,378.9573180001753,1.0,1.0,phase_1,,,,,,,,,,,,,yellow,square
318.0,2.0,1.0,0.0,4.0,4.0,323.738867999964,1.0,1.0,phase_1,,,,,,,,,,,,,gray,cross
0.0,1.0,0.0,0.0,4.0,4.0,276.9296189999295,1.0,1.0,phase_1,,,,,,,,,,,,,cyan,I
321.0,2.0,1.0,0.0,2.0,2.0,314.7157240000524,1.0,1.0,phase_1,,,,,,,,,,,,,gray,cross
168.0,5.0,0.5,1.0,3.0,3.0,314.4307039997329,1.0,1.0,phase_1,,,,,,,,,,,,,magenta,flipped triangle
1313.0,4.0,4.0,0.0,1.0,1.0,350.51056800011787,1.0,1.0,phase_1,,,,,,,,,,,,,green,hexagon
0.0,1.0,0.0,0.0,2.0,2.0,313.3235830000558,1.0,1.0,phase_1,,,,,,,,,,,,,cyan,I
0.0,6.0,0.0,1.0,2.0,2.0,341.810457000065,1.0,1.0,phase_1,,,,,,,,,,,,,blue,triangle
1276.0,8.0,4.0,1.0,1.0,1.0,552.5998920002166,1.0,1.0,phase_1,,,,,,,,,,,,,white,circle
320.0,6.0,1.0,1.0,1.0,1.0,343.2602030002272,1.0,1.0,phase_1,,,,,,,,,,,,,blue,triangle
318.0,6.0,1.0,1.0,3.0,3.0,379.0729819997978,1.0,1.0,phase_1,,,,,,,,,,,,,blue,triangle
307.0,6.0,1.0,1.0,4.0,4.0,333.0507840000791,1.0,1.0,phase_1,,,,,,,,,,,,,blue,triangle
341.0,2.0,1.0,0.0,4.0,4.0,314.0577919998577,1.0,1.0,phase_1,,,,,,,,,,,,,gray,cross
1300.0,4.0,4.0,0.0,1.0,1.0,329.3318399996678,1.0,1.0,phase_1,,,,,,,,,,,,,green,hexagon
314.0,6.0,1.0,1.0,1.0,1.0,351.2793719996807,1.0,1.0,phase_1,,,,,,,,,,,,,blue,triangle
0.0,5.0,0.0,1.0,1.0,1.0,414.6729579997554,1.0,1.0,phase_1,,,,,,,,,,,,,magenta,flipped triangle
0.0,4.0,0.0,0.0,4.0,4.0,322.1807129998524,1.0,1.0,phase_1,,,,,,,,,,,,,green,hexagon
1281.0,8.0,4.0,1.0,3.0,3.0,359.1543640000054,1.0,1.0,phase_1,,,,,,,,,,,,,white,circle
332.0,6.0,1.0,1.0,3.0,3.0,295.5212360002406,1.0,1.0,phase_1,,,,,,,,,,,,,blue,triangle
648.0,7.0,2.0,1.0,3.0,3.0,360.1553390003573,1.0,1.0,phase_1,,,,,,,,,,,,,yellow,square
0.0,3.0,0.0,0.0,4.0,4.0,349.4363529998736,1.0,1.0,phase_1,,,,,,,,,,,,,orange,diamond
1304.0,4.0,4.0,0.0,4.0,4.0,330.3442950000317,1.0,1.0,phase_1,,,,,,,,,,,,,green,hexagon
141.0,1.0,0.5,0.0,3.0,3.0,339.5988759998545,1.0,1.0,phase_1,,,,,,,,,,,,,cyan,I
335.0,6.0,1.0,1.0,2.0,2.0,340.5055279999942,1.0,1.0,phase_1,,,,,,,,,,,,,blue,triangle
335.0,2.0,1.0,0.0,1.0,1.0,396.2313390002236,1.0,1.0,phase_1,,,,,,,,,,,,,gray,cross
316.0,2.0,1.0,0.0,4.0,4.0,304.2871030002061,1.0,1.0,phase_1,,,,,,,,,,,,,gray,cross
674.0,3.0,2.0,0.0,1.0,1.0,290.5603849999352,1.0,1.0,phase_1,,,,,,,,,,,,,orange,diamond
1296.0,4.0,4.0,0.0,4.0,4.0,286.2976910000725,1.0,1.0,phase_1,,,,,,,,,,,,,green,hexagon
650.0,7.0,2.0,1.0,1.0,1.0,305.2934729998924,1.0,1.0,phase_1,,,,,,,,,,,,,yellow,square
152.0,1.0,0.5,0.0,4.0,4.0,409.268054000222,1.0,1.0,phase_1,,,,,,,,,,,,,cyan,I
160.0,5.0,0.5,1.0,4.0,4.0,367.9901840000639,1.0,1.0,phase_1,,,,,,,,,,,,,magenta,flipped triangle
322.0,6.0,1.0,1.0,2.0,2.0,331.6876730000331,1.0,1.0,phase_1,,,,,,,,,,,,,blue,triangle
307.0,2.0,1.0,0.0,1.0,1.0,377.6928160000352,1.0,1.0,phase_1,,,,,,,,,,,,,gray,cross
0.0,8.0,0.0,1.0,4.0,4.0,295.4270280001765,1.0,1.0,phase_1,,,,,,,,,,,,,white,circle
659.0,7.0,2.0,1.0,4.0,4.0,387.2697710003194,1.0,1.0,phase_1,,,,,,,,,,,,,yellow,square
302.0,2.0,1.0,0.0,2.0,2.0,322.1927569998115,1.0,1.0,phase_1,,,,,,,,,,,,,gray,cross
659.0,3.0,2.0,0.0,3.0,3.0,372.4468979999074,1.0,1.0,phase_1,,,,,,,,,,,,,orange,diamond
1308.0,4.0,4.0,0.0,3.0,3.0,359.0386129999388,1.0,1.0,phase_1,,,,,,,,,,,,,green,hexagon
0.0,2.0,0.0,0.0,4.0,4.0,312.7554650000093,1.0,1.0,phase_1,,,,,,,,,,,,,gray,cross
0.0,6.0,0.0,1.0,2.0,2.0,303.7069980000524,1.0,1.0,phase_1,,,,,,,,,,,,,blue,triangle
0.0,1.0,0.0,0.0,2.0,2.0,332.7892530001008,1.0,1.0,phase_1,,,,,,,,,,,,,cyan,I
0.0,8.0,0.0,1.0,4.0,4.0,285.7445409999855,1.0,1.0,phase_1,,,,,,,,,,,,,white,circle
1293.0,8.0,4.0,1.0,2.0,2.0,340.6515880001279,1.0,1.0,phase_1,,,,,,,,,,,,,white,circle
1281.0,4.0,4.0,0.0,2.0,2.0,340.2534680003555,1.0,1.0,phase_1,,,,,,,,,,,,,green,hexagon
168.0,1.0,0.5,0.0,1.0,1.0,350.1098199999433,1.0,1.0,phase_1,,,,,,,,,,,,,cyan,I
1292.0,4.0,4.0,0.0,3.0,3.0,350.5701060003048,1.0,1.0,phase_1,,,,,,,,,,,,,green,hexagon
1278.0,8.0,4.0,1.0,4.0,4.0,297.0284550001452,1.0,1.0,phase_1,,,,,,,,,,,,,white,circle
341.0,2.0,1.0,0.0,2.0,2.0,323.7957859996641,1.0,1.0,phase_1,,,,,,,,,,,,,gray,cross
1321.0,4.0,4.0,0.0,4.0,4.0,305.5042969999704,1.0,1.0,phase_1,,,,,,,,,,,,,green,hexagon
1308.0,8.0,4.0,1.0,1.0,1.0,333.5874260001219,1.0,1.0,phase_1,,,,,,,,,,,,,white,circle
159.0,5.0,0.5,1.0,1.0,1.0,377.9147169998396,1.0,1.0,phase_1,,,,,,,,,,,,,magenta,flipped triangle
1315.0,4.0,4.0,0.0,4.0,4.0,323.8713770001595,1.0,1.0,phase_1,,,,,,,,,,,,,green,hexagon
635.0,7.0,2.0,1.0,4.0,4.0,332.173516000239,1.0,1.0,phase_1,,,,,,,,,,,,,yellow,square
0.0,8.0,0.0,1.0,2.0,2.0,359.3547360001139,1.0,1.0,phase_1,,,,,,,,,,,,,white,circle
0.0,8.0,0.0,1.0,2.0,2.0,331.4829609998924,1.0,1.0,phase_1,,,,,,,,,,,,,white,circle
316.0,2.0,1.0,0.0,3.0,3.0,405.8570460001647,1.0,1.0,phase_1,,,,,,,,,,,,,gray,cross
185.0,1.0,0.5,0.0,3.0,3.0,304.8353620001762,1.0,1.0,phase_1,,,,,,,,,,,,,cyan,I
184.0,1.0,0.5,0.0,2.0,2.0,305.521946999761,1.0,1.0,phase_1,,,,,,,,,,,,,cyan,I
1285.0,8.0,4.0,1.0,2.0,2.0,296.0851469997578,1.0,1.0,phase_1,,,,,,,,,,,,,white,circle
0.0,6.0,0.0,1.0,1.0,1.0,350.5356910000046,1.0,1.0,phase_1,,,,,,,,,,,,,blue,triangle
155.0,1.0,0.5,0.0,4.0,4.0,352.2785469999689,1.0,1.0,phase_1,,,,,,,,,,,,,cyan,I
307.0,6.0,1.0,1.0,2.0,2.0,332.9074889998082,1.0,1.0,phase_1,,,,,,,,,,,,,blue,triangle
0.0,2.0,0.0,0.0,3.0,3.0,406.617216000086,1.0,1.0,phase_1,,,,,,,,,,,,,gray,cross
174.0,1.0,0.5,0.0,3.0,3.0,360.347178000211,1.0,1.0,phase_1,,,,,,,,,,,,,cyan,I
1285.0,8.0,4.0,1.0,1.0,1.0,369.9844990001111,1.0,1.0,phase_1,,,,,,,,,,,,,white,circle
0.0,3.0,0.0,0.0,3.0,3.0,369.1085720001865,1.0,1.0,phase_1,,,,,,,,,,,,,orange,diamond
0.0,4.0,0.0,0.0,3.0,3.0,315.0451960000282,1.0,1.0,phase_1,,,,,,,,,,,,,green,hexagon
634.0,7.0,2.0,1.0,4.0,4.0,360.6460519999928,1.0,1.0,phase_1,,,,,,,,,,,,,yellow,square
0.0,6.0,0.0,1.0,4.0,4.0,315.433677999863,1.0,1.0,phase_1,,,,,,,,,,,,,blue,triangle
659.0,7.0,2.0,1.0,1.0,1.0,343.2211920003283,1.0,1.0,phase_1,,,,,,,,,,,,,yellow,square
155.0,1.0,0.5,0.0,4.0,4.0,388.4221389998856,1.0,1.0,phase_1,,,,,,,,,,,,,cyan,I
177.0,1.0,0.5,0.0,2.0,2.0,341.6894350002621,2.0,1.0,phase_1,,,,,,,,,,,,,cyan,I
642.0,7.0,2.0,1.0,1.0,1.0,350.0931720000153,2.0,1.0,phase_1,,,,,,,,,,,,,yellow,square
0.0,6.0,0.0,1.0,4.0,4.0,407.4112560001595,2.0,1.0,phase_1,,,,,,,,,,,,,blue,triangle
183.0,5.0,0.5,1.0,3.0,3.0,315.1962100000673,2.0,1.0,phase_1,,,,,,,,,,,,,magenta,flipped triangle
151.0,1.0,0.5,0.0,1.0,1.0,453.0210430002626,2.0,2.0,phase_1,,,,,,,,,,,,,cyan,I
1324.0,8.0,4.0,1.0,4.0,4.0,408.4588960004112,2.0,1.0,phase_1,,,,,,,,,,,,,white,circle
666.0,7.0,2.0,1.0,3.0,3.0,434.2121680001582,2.0,1.0,phase_1,,,,,,,,,,,,,yellow,square
1304.0,8.0,4.0,1.0,3.0,3.0,443.1639929998709,2.0,1.0,phase_1,,,,,,,,,,,,,white,circle
0.0,2.0,0.0,0.0,4.0,4.0,517.3717479997322,2.0,1.0,phase_1,,,,,,,,,,,,,gray,cross
153.0,5.0,0.5,1.0,2.0,2.0,341.6576350000468,2.0,1.0,phase_1,,,,,,,,,,,,,magenta,flipped triangle
640.0,3.0,2.0,0.0,1.0,1.0,360.8694519998607,2.0,1.0,phase_1,,,,,,,,,,,,,orange,diamond
653.0,3.0,2.0,0.0,1.0,1.0,416.1840350002421,2.0,1.0,phase_1,,,,,,,,,,,,,orange,diamond
1307.0,4.0,4.0,0.0,4.0,4.0,359.8649699997622,2.0,1.0,phase_1,,,,,,,,,,,,,green,hexagon
138.0,5.0,0.5,1.0,3.0,3.0,378.4615399999893,2.0,1.0,phase_1,,,,,,,,,,,,,magenta,flipped triangle
0.0,8.0,0.0,1.0,3.0,3.0,378.2236879997072,2.0,1.0,phase_1,,,,,,,,,,,,,white,circle
166.0,1.0,0.5,0.0,2.0,2.0,378.458959999989,2.0,1.0,phase_1,,,,,,,,,,,,,cyan,I
1314.0,8.0,4.0,1.0,2.0,2.0,332.9608760000155,2.0,1.0,phase_1,,,,,,,,,,,,,white,circle
1276.0,4.0,4.0,0.0,4.0,4.0,369.0501679998306,2.0,1.0,phase_1,,,,,,,,,,,,,green,hexagon
307.0,2.0,1.0,0.0,1.0,1.0,370.2673990001131,2.0,1.0,phase_1,,,,,,,,,,,,,gray,cross
1302.0,8.0,4.0,1.0,3.0,3.0,451.7899620000207,2.0,1.0,phase_1,,,,,,,,,,,,,white,circle
674.0,7.0,2.0,1.0,2.0,2.0,350.7504690001042,2.0,1.0,phase_1,,,,,,,,,,,,,yellow,square
179.0,1.0,0.5,0.0,4.0,4.0,498.8749929998448,2.0,1.0,phase_1,,,,,,,,,,,,,cyan,I
662.0,7.0,2.0,1.0,1.0,1.0,276.6404290000537,2.0,1.0,phase_1,,,,,,,,,,,,,yellow,square
155.0,5.0,0.5,1.0,1.0,1.0,396.5196200001628,2.0,1.0,phase_1,,,,,,,,,,,,,magenta,flipped triangle
1308.0,4.0,4.0,0.0,3.0,3.0,371.4438940000946,2.0,1.0,phase_1,,,,,,,,,,,,,green,hexagon
322.0,2.0,1.0,0.0,2.0,2.0,415.9040019999338,2.0,2.0,phase_1,,,,,,,,,,,,,gray,cross
327.0,6.0,1.0,1.0,3.0,3.0,535.4129209999883,2.0,1.0,phase_1,,,,,,,,,,,,,blue,triangle
174.0,5.0,0.5,1.0,2.0,2.0,527.4957340002402,2.0,1.0,phase_1,,,,,,,,,,,,,magenta,flipped triangle
1311.0,4.0,4.0,0.0,3.0,3.0,324.2887490000612,2.0,1.0,phase_1,,,,,,,,,,,,,green,hexagon
650.0,7.0,2.0,1.0,3.0,3.0,378.1863859999248,2.0,2.0,phase_1,,,,,,,,,,,,,yellow,square
0.0,2.0,0.0,0.0,1.0,1.0,674.1850889998204,2.0,1.0,phase_1,,,,,,,,,,,,,gray,cross
167.0,5.0,0.5,1.0,2.0,2.0,466.9684649998089,2.0,1.0,phase_1,,,,,,,,,,,,,magenta,flipped triangle
0.0,5.0,0.0,1.0,2.0,2.0,332.5860119998651,2.0,1.0,phase_1,,,,,,,,,,,,,magenta,flipped triangle
1294.0,4.0,4.0,0.0,2.0,2.0,332.0524600003409,2.0,1.0,phase_1,,,,,,,,,,,,,green,hexagon
661.0,7.0,2.0,1.0,2.0,2.0,286.4373299998988,2.0,1.0,phase_1,,,,,,,,,,,,,yellow,square
1325.0,8.0,4.0,1.0,1.0,1.0,591.5648889999829,2.0,1.0,phase_1,,,,,,,,,,,,,white,circle
181.0,1.0,0.5,0.0,3.0,3.0,370.1945200000409,2.0,1.0,phase_1,,,,,,,,,,,,,cyan,I
632.0,3.0,2.0,0.0,3.0,3.0,358.4841429997141,2.0,1.0,phase_1,,,,,,,,,,,,,orange,diamond
647.0,3.0,2.0,0.0,3.0,3.0,341.891626999768,2.0,1.0,phase_1,,,,,,,,,,,,,orange,diamond
660.0,3.0,2.0,0.0,2.0,2.0,368.5623870001109,2.0,1.0,phase_1,,,,,,,,,,,,,orange,diamond
167.0,1.0,0.5,0.0,4.0,4.0,399.0104299996346,2.0,1.0,phase_1,,,,,,,,,,,,,cyan,I
346.0,6.0,1.0,1.0,4.0,4.0,424.9904929997683,2.0,1.0,phase_1,,,,,,,,,,,,,blue,triangle
181.0,5.0,0.5,1.0,1.0,1.0,398.9890499997273,2.0,1.0,phase_1,,,,,,,,,,,,,magenta,flipped triangle
1318.0,8.0,4.0,1.0,3.0,3.0,352.4074050001218,2.0,1.0,phase_1,,,,,,,,,,,,,white,circle
666.0,7.0,2.0,1.0,1.0,1.0,519.9008169997796,2.0,1.0,phase_1,,,,,,,,,,,,,yellow,square
655.0,3.0,2.0,0.0,3.0,3.0,387.9783190000125,2.0,1.0,phase_1,,,,,,,,,,,,,orange,diamond
0.0,5.0,0.0,1.0,1.0,1.0,517.9037870002503,2.0,1.0,phase_1,,,,,,,,,,,,,magenta,flipped triangle
642.0,3.0,2.0,0.0,4.0,4.0,370.2983999996831,2.0,1.0,phase_1,,,,,,,,,,,,,orange,diamond
329.0,6.0,1.0,1.0,1.0,1.0,342.7248269999836,2.0,1.0,phase_1,,,,,,,,,,,,,blue,triangle
177.0,5.0,0.5,1.0,2.0,2.0,332.2759669999868,2.0,1.0,phase_1,,,,,,,,,,,,,magenta,flipped triangle
646.0,3.0,2.0,0.0,1.0,1.0,295.7233739998628,2.0,1.0,phase_1,,,,,,,,,,,,,orange,diamond
167.0,1.0,0.5,0.0,4.0,4.0,388.2953010001984,2.0,1.0,phase_1,,,,,,,,,,,,,cyan,I
1279.0,4.0,4.0,0.0,2.0,2.0,314.6955729998808,2.0,1.0,phase_1,,,,,,,,,,,,,green,hexagon
674.0,3.0,2.0,0.0,2.0,2.0,350.9931939997841,2.0,1.0,phase_1,,,,,,,,,,,,,orange,diamond
629.0,7.0,2.0,1.0,2.0,2.0,303.9747299999362,2.0,1.0,phase_1,,,,,,,,,,,,,yellow,square
1287.0,4.0,4.0,0.0,1.0,1.0,331.9206569999551,2.0,1.0,phase_1,,,,,,,,,,,,,green,hexagon
141.0,5.0,0.5,1.0,3.0,3.0,377.9439830000228,2.0,1.0,phase_1,,,,,,,,,,,,,magenta,flipped triangle
634.0,3.0,2.0,0.0,2.0,2.0,377.5748580001163,2.0,2.0,phase_1,,,,,,,,,,,,,orange,diamond
632.0,7.0,2.0,1.0,2.0,2.0,378.1554129996038,2.0,1.0,phase_1,,,,,,,,,,,,,yellow,square
341.0,6.0,1.0,1.0,1.0,1.0,497.7380049999738,2.0,1.0,phase_1,,,,,,,,,,,,,blue,triangle
1310.0,4.0,4.0,0.0,4.0,4.0,350.3190780002114,2.0,1.0,phase_1,,,,,,,,,,,,,green,hexagon
138.0,5.0,0.5,1.0,2.0,2.0,322.2785699999804,2.0,1.0,phase_1,,,,,,,,,,,,,magenta,flipped triangle
668.0,3.0,2.0,0.0,1.0,1.0,480.3028709998216,2.0,1.0,phase_1,,,,,,,,,,,,,orange,diamond
1302.0,4.0,4.0,0.0,3.0,3.0,471.0991029996876,2.0,1.0,phase_1,,,,,,,,,,,,,green,hexagon
1279.0,8.0,4.0,1.0,3.0,3.0,422.633044000122,2.0,1.0,phase_1,,,,,,,,,,,,,white,circle
631.0,7.0,2.0,1.0,2.0,2.0,415.0664270000561,2.0,1.0,phase_1,,,,,,,,,,,,,yellow,square
0.0,7.0,0.0,1.0,1.0,1.0,479.3434610000986,2.0,1.0,phase_1,,,,,,,,,,,,,yellow,square
1293.0,4.0,4.0,0.0,3.0,3.0,434.1054530000292,2.0,1.0,phase_1,,,,,,,,,,,,,green,hexagon
0.0,2.0,0.0,0.0,3.0,3.0,359.2540829999961,2.0,1.0,phase_1,,,,,,,,,,,,,gray,cross
303.0,6.0,1.0,1.0,1.0,1.0,545.372221999969,2.0,1.0,phase_1,,,,,,,,,,,,,blue,triangle
0.0,1.0,0.0,0.0,4.0,4.0,341.0706370000298,2.0,1.0,phase_1,,,,,,,,,,,,,cyan,I
1293.0,4.0,4.0,0.0,3.0,3.0,441.8171070001335,2.0,1.0,phase_1,,,,,,,,,,,,,green,hexagon
663.0,3.0,2.0,0.0,3.0,3.0,433.6815169999681,2.0,1.0,phase_1,,,,,,,,,,,,,orange,diamond
164.0,5.0,0.5,1.0,4.0,4.0,396.8335380000098,2.0,1.0,phase_1,,,,,,,,,,,,,magenta,flipped triangle
312.0,2.0,1.0,0.0,3.0,3.0,350.7055899999614,2.0,1.0,phase_1,,,,,,,,,,,,,gray,cross
302.0,6.0,1.0,1.0,4.0,4.0,305.8800279995921,2.0,1.0,phase_1,,,,,,,,,,,,,blue,triangle
0.0,3.0,0.0,0.0,1.0,1.0,397.6539339996634,2.0,1.0,phase_1,,,,,,,,,,,,,orange,diamond
653.0,7.0,2.0,1.0,2.0,2.0,406.7085609999594,2.0,1.0,phase_1,,,,,,,,,,,,,yellow,square
138.0,1.0,0.5,0.0,3.0,3.0,407.13595599982,2.0,1.0,phase_1,,,,,,,,,,,,,cyan,I
167.0,5.0,0.5,1.0,3.0,3.0,295.0131299999157,2.0,1.0,phase_1,,,,,,,,,,,,,magenta,flipped triangle
140.0,5.0,0.5,1.0,1.0,1.0,379.4291680001151,2.0,1.0,phase_1,,,,,,,,,,,,,magenta,flipped triangle
0.0,1.0,0.0,0.0,2.0,2.0,378.4927259998767,2.0,1.0,phase_1,,,,,,,,,,,,,cyan,I
1279.0,4.0,4.0,0.0,2.0,2.0,332.2566479996567,2.0,1.0,phase_1,,,,,,,,,,,,,green,hexagon
186.0,5.0,0.5,1.0,4.0,4.0,416.3276469998891,2.0,1.0,phase_1,,,,,,,,,,,,,magenta,flipped triangle
329.0,2.0,1.0,0.0,3.0,3.0,397.6301259999673,2.0,1.0,phase_1,,,,,,,,,,,,,gray,cross
642.0,7.0,2.0,1.0,3.0,3.0,370.530587000303,2.0,1.0,phase_1,,,,,,,,,,,,,yellow,square
0.0,8.0,0.0,1.0,1.0,1.0,349.92721899971,2.0,1.0,phase_1,,,,,,,,,,,,,white,circle
0.0,3.0,0.0,0.0,1.0,1.0,388.2051330001559,2.0,1.0,phase_1,,,,,,,,,,,,,orange,diamond
309.0,2.0,1.0,0.0,4.0,4.0,461.326095000004,2.0,1.0,phase_1,,,,,,,,,,,,,gray,cross
144.0,5.0,0.5,1.0,3.0,3.0,388.3783890000813,2.0,1.0,phase_1,,,,,,,,,,,,,magenta,flipped triangle
0.0,7.0,0.0,1.0,1.0,1.0,342.9000819996872,2.0,2.0,phase_1,,,,,,,,,,,,,yellow,square
316.0,6.0,1.0,1.0,4.0,4.0,406.1343590001343,2.0,1.0,phase_1,,,,,,,,,,,,,blue,triangle
636.0,3.0,2.0,0.0,3.0,3.0,443.8325839996651,2.0,1.0,phase_1,,,,,,,,,,,,,orange,diamond
166.0,5.0,0.5,1.0,1.0,1.0,609.4421980001243,2.0,1.0,phase_1,,,,,,,,,,,,,magenta,flipped triangle
669.0,3.0,2.0,0.0,3.0,3.0,324.0086889995837,2.0,1.0,phase_1,,,,,,,,,,,,,orange,diamond
332.0,6.0,1.0,1.0,4.0,4.0,416.0778569998911,2.0,1.0,phase_1,,,,,,,,,,,,,blue,triangle
1286.0,4.0,4.0,0.0,2.0,2.0,423.3742139999776,2.0,2.0,phase_1,,,,,,,,,,,,,green,hexagon
164.0,5.0,0.5,1.0,4.0,4.0,729.0446169999996,2.0,1.0,phase_1,,,,,,,,,,,,,magenta,flipped triangle
631.0,3.0,2.0,0.0,1.0,1.0,415.1020279996373,2.0,1.0,phase_1,,,,,,,,,,,,,orange,diamond
0.0,4.0,0.0,0.0,3.0,3.0,445.3505139999834,2.0,1.0,phase_1,,,,,,,,,,,,,green,hexagon
0.0,5.0,0.0,1.0,4.0,4.0,526.9319240001096,3.0,1.0,phase_1,,,,,,,,,,,,,magenta,flipped triangle
1294.0,8.0,4.0,1.0,1.0,1.0,498.2349689998955,3.0,1.0,phase_1,,,,,,,,,,,,,white,circle
167.0,1.0,0.5,0.0,1.0,1.0,424.0456530001211,3.0,1.0,phase_1,,,,,,,,,,,,,cyan,I
166.0,1.0,0.5,0.0,2.0,2.0,435.4017069999827,3.0,1.0,phase_1,,,,,,,,,,,,,cyan,I
1307.0,8.0,4.0,1.0,2.0,2.0,443.9038689997687,3.0,1.0,phase_1,,,,,,,,,,,,,white,circle
1290.0,4.0,4.0,0.0,4.0,4.0,622.9750040001818,3.0,1.0,phase_1,,,,,,,,,,,,,green,hexagon
0.0,6.0,0.0,1.0,1.0,1.0,564.8870350000834,3.0,1.0,phase_1,,,,,,,,,,,,,blue,triangle
345.0,2.0,1.0,0.0,4.0,4.0,497.8747700001804,3.0,1.0,phase_1,,,,,,,,,,,,,gray,cross
185.0,5.0,0.5,1.0,1.0,1.0,508.25156399969273,3.0,1.0,phase_1,,,,,,,,,,,,,magenta,flipped triangle
634.0,3.0,2.0,0.0,2.0,2.0,406.6343080003207,3.0,1.0,phase_1,,,,,,,,,,,,,orange,diamond
0.0,5.0,0.0,1.0,2.0,2.0,452.5301489998128,3.0,1.0,phase_1,,,,,,,,,,,,,magenta,flipped triangle
1285.0,4.0,4.0,0.0,3.0,3.0,488.4164019999844,3.0,1.0,phase_1,,,,,,,,,,,,,green,hexagon
326.0,2.0,1.0,0.0,3.0,3.0,349.9787590003507,3.0,1.0,phase_1,,,,,,,,,,,,,gray,cross
0.0,2.0,0.0,0.0,3.0,3.0,396.8516190002447,3.0,1.0,phase_1,,,,,,,,,,,,,gray,cross
330.0,2.0,1.0,0.0,4.0,4.0,350.790273000257,3.0,1.0,phase_1,,,,,,,,,,,,,gray,cross
183.0,1.0,0.5,0.0,4.0,4.0,361.1663229999067,3.0,1.0,phase_1,,,,,,,,,,,,,cyan,I
345.0,6.0,1.0,1.0,1.0,1.0,462.6053020001563,3.0,1.0,phase_1,,,,,,,,,,,,,blue,triangle
301.0,2.0,1.0,0.0,3.0,3.0,322.49388900027037,3.0,1.0,phase_1,,,,,,,,,,,,,gray,cross
162.0,1.0,0.5,0.0,4.0,4.0,387.7859419999367,3.0,1.0,phase_1,,,,,,,,,,,,,cyan,I
1295.0,4.0,4.0,0.0,2.0,2.0,360.4970229998798,3.0,1.0,phase_1,,,,,,,,,,,,,green,hexagon
144.0,1.0,0.5,0.0,2.0,2.0,359.9317580001298,3.0,1.0,phase_1,,,,,,,,,,,,,cyan,I
0.0,2.0,0.0,0.0,2.0,2.0,304.2436529999577,3.0,1.0,phase_1,,,,,,,,,,,,,gray,cross
339.0,6.0,1.0,1.0,2.0,2.0,342.2954570000911,3.0,1.0,phase_1,,,,,,,,,,,,,blue,triangle
647.0,3.0,2.0,0.0,1.0,1.0,369.5090549999804,3.0,1.0,phase_1,,,,,,,,,,,,,orange,diamond
1325.0,4.0,4.0,0.0,1.0,1.0,391.1044419996869,3.0,1.0,phase_1,,,,,,,,,,,,,green,hexagon
174.0,1.0,0.5,0.0,2.0,2.0,315.8766080000532,3.0,1.0,phase_1,,,,,,,,,,,,,cyan,I
1325.0,4.0,4.0,0.0,1.0,1.0,331.3225060001059,3.0,1.0,phase_1,,,,,,,,,,,,,green,hexagon
332.0,2.0,1.0,0.0,3.0,3.0,350.5009949999476,3.0,1.0,phase_1,,,,,,,,,,,,,gray,cross
167.0,5.0,0.5,1.0,2.0,2.0,370.6220770000072,3.0,1.0,phase_1,,,,,,,,,,,,,magenta,flipped triangle
160.0,1.0,0.5,0.0,3.0,3.0,370.0338380003813,3.0,1.0,phase_1,,,,,,,,,,,,,cyan,I
0.0,3.0,0.0,0.0,4.0,4.0,341.9647079999777,3.0,1.0,phase_1,,,,,,,,,,,,,orange,diamond
0.0,7.0,0.0,1.0,1.0,1.0,331.098330000259,3.0,1.0,phase_1,,,,,,,,,,,,,yellow,square
657.0,3.0,2.0,0.0,4.0,4.0,461.1510509998879,3.0,1.0,phase_1,,,,,,,,,,,,,orange,diamond
0.0,4.0,0.0,0.0,4.0,4.0,323.00669099959117,3.0,1.0,phase_1,,,,,,,,,,,,,green,hexagon
647.0,7.0,2.0,1.0,4.0,4.0,387.8045189999284,3.0,1.0,phase_1,,,,,,,,,,,,,yellow,square
327.0,2.0,1.0,0.0,1.0,1.0,370.3372439999839,3.0,1.0,phase_1,,,,,,,,,,,,,gray,cross
650.0,3.0,2.0,0.0,4.0,4.0,303.9332309999736,3.0,1.0,phase_1,,,,,,,,,,,,,orange,diamond
1308.0,8.0,4.0,1.0,3.0,3.0,371.9483909999326,3.0,1.0,phase_1,,,,,,,,,,,,,white,circle
337.0,2.0,1.0,0.0,3.0,3.0,352.7413189999606,3.0,1.0,phase_1,,,,,,,,,,,,,gray,cross
661.0,7.0,2.0,1.0,3.0,3.0,332.3997520001285,3.0,1.0,phase_1,,,,,,,,,,,,,yellow,square
186.0,1.0,0.5,0.0,2.0,2.0,340.8167490001688,3.0,1.0,phase_1,,,,,,,,,,,,,cyan,I
1292.0,8.0,4.0,1.0,4.0,4.0,286.4212800000132,3.0,1.0,phase_1,,,,,,,,,,,,,white,circle
0.0,4.0,0.0,0.0,1.0,1.0,408.0259019997356,3.0,1.0,phase_1,,,,,,,,,,,,,green,hexagon
1325.0,8.0,4.0,1.0,2.0,2.0,333.5929530003341,3.0,1.0,phase_1,,,,,,,,,,,,,white,circle
1325.0,8.0,4.0,1.0,2.0,2.0,275.6084530001317,3.0,1.0,phase_1,,,,,,,,,,,,,white,circle
0.0,1.0,0.0,0.0,3.0,3.0,314.0556890002699,3.0,1.0,phase_1,,,,,,,,,,,,,cyan,I
0.0,8.0,0.0,1.0,3.0,3.0,332.7645630001825,3.0,1.0,phase_1,,,,,,,,,,,,,white,circle
0.0,5.0,0.0,1.0,2.0,2.0,305.3081319999364,3.0,1.0,phase_1,,,,,,,,,,,,,magenta,flipped triangle
326.0,6.0,1.0,1.0,2.0,2.0,312.747470999966,3.0,1.0,phase_1,,,,,,,,,,,,,blue,triangle
0.0,1.0,0.0,0.0,3.0,3.0,359.4496000000617,3.0,1.0,phase_1,,,,,,,,,,,,,cyan,I
320.0,2.0,1.0,0.0,2.0,2.0,321.8992379997871,3.0,1.0,phase_1,,,,,,,,,,,,,gray,cross
164.0,1.0,0.5,0.0,1.0,1.0,359.2328240001734,3.0,1.0,phase_1,,,,,,,,,,,,,cyan,I
319.0,6.0,1.0,1.0,3.0,3.0,369.504230000075,3.0,1.0,phase_1,,,,,,,,,,,,,blue,triangle
341.0,6.0,1.0,1.0,3.0,3.0,368.9856670002882,3.0,1.0,phase_1,,,,,,,,,,,,,blue,triangle
151.0,5.0,0.5,1.0,2.0,2.0,277.5273880001805,3.0,1.0,phase_1,,,,,,,,,,,,,magenta,flipped triangle
138.0,1.0,0.5,0.0,4.0,4.0,361.2185140000292,3.0,1.0,phase_1,,,,,,,,,,,,,cyan,I
662.0,7.0,2.0,1.0,1.0,1.0,305.6685980000111,3.0,1.0,phase_1,,,,,,,,,,,,,yellow,square
0.0,7.0,0.0,1.0,2.0,2.0,277.5325210000119,3.0,1.0,phase_1,,,,,,,,,,,,,yellow,square
332.0,6.0,1.0,1.0,3.0,3.0,416.7633279998881,3.0,1.0,phase_1,,,,,,,,,,,,,blue,triangle
1324.0,4.0,4.0,0.0,2.0,2.0,332.1988110001257,3.0,1.0,phase_1,,,,,,,,,,,,,green,hexagon
138.0,1.0,0.5,0.0,2.0,2.0,340.8142190000944,3.0,1.0,phase_1,,,,,,,,,,,,,cyan,I
344.0,6.0,1.0,1.0,3.0,3.0,397.0990460002213,3.0,1.0,phase_1,,,,,,,,,,,,,blue,triangle
662.0,3.0,2.0,0.0,2.0,2.0,304.511471999831,3.0,1.0,phase_1,,,,,,,,,,,,,orange,diamond
0.0,5.0,0.0,1.0,2.0,2.0,331.8736979999812,3.0,1.0,phase_1,,,,,,,,,,,,,magenta,flipped triangle
1315.0,8.0,4.0,1.0,1.0,1.0,534.6511799998552,3.0,1.0,phase_1,,,,,,,,,,,,,white,circle
144.0,1.0,0.5,0.0,3.0,3.0,368.6630590000277,3.0,1.0,phase_1,,,,,,,,,,,,,cyan,I
0.0,7.0,0.0,1.0,1.0,1.0,340.4142209997189,3.0,1.0,phase_1,,,,,,,,,,,,,yellow,square
168.0,1.0,0.5,0.0,1.0,1.0,441.6766730000745,3.0,1.0,phase_1,,,,,,,,,,,,,cyan,I
1277.0,8.0,4.0,1.0,3.0,3.0,377.8981909999857,3.0,1.0,phase_1,,,,,,,,,,,,,white,circle
301.0,6.0,1.0,1.0,4.0,4.0,359.3105710001509,3.0,1.0,phase_1,,,,,,,,,,,,,blue,triangle
1293.0,8.0,4.0,1.0,4.0,4.0,378.9742220001244,3.0,1.0,phase_1,,,,,,,,,,,,,white,circle
660.0,7.0,2.0,1.0,4.0,4.0,332.7341000003798,3.0,1.0,phase_1,,,,,,,,,,,,,yellow,square
643.0,7.0,2.0,1.0,4.0,4.0,293.8165870000375,3.0,1.0,phase_1,,,,,,,,,,,,,yellow,square
152.0,5.0,0.5,1.0,3.0,3.0,341.2407230002827,3.0,1.0,phase_1,,,,,,,,,,,,,magenta,flipped triangle
642.0,3.0,2.0,0.0,3.0,3.0,332.3042879997047,3.0,1.0,phase_1,,,,,,,,,,,,,orange,diamond
164.0,1.0,0.5,0.0,1.0,1.0,351.89595899964837,3.0,1.0,phase_1,,,,,,,,,,,,,cyan,I
1325.0,4.0,4.0,0.0,1.0,1.0,342.6253630000246,3.0,1.0,phase_1,,,,,,,,,,,,,green,hexagon
0.0,4.0,0.0,0.0,3.0,3.0,417.509629000051,3.0,1.0,phase_1,,,,,,,,,,,,,green,hexagon
628.0,3.0,2.0,0.0,2.0,2.0,358.6696870002015,3.0,1.0,phase_1,,,,,,,,,,,,,orange,diamond
327.0,6.0,1.0,1.0,3.0,3.0,350.9438860000955,3.0,1.0,phase_1,,,,,,,,,,,,,blue,triangle
0.0,6.0,0.0,1.0,3.0,3.0,294.2323729998861,3.0,1.0,phase_1,,,,,,,,,,,,,blue,triangle
655.0,7.0,2.0,1.0,1.0,1.0,306.4115289998881,3.0,1.0,phase_1,,,,,,,,,,,,,yellow,square
303.0,2.0,1.0,0.0,2.0,2.0,462.6174390000415,3.0,1.0,phase_1,,,,,,,,,,,,,gray,cross
0.0,4.0,0.0,0.0,1.0,1.0,451.3325090001672,3.0,1.0,phase_1,,,,,,,,,,,,,green,hexagon
1318.0,8.0,4.0,1.0,3.0,3.0,322.6555609999195,3.0,1.0,phase_1,,,,,,,,,,,,,white,circle
162.0,5.0,0.5,1.0,2.0,2.0,322.884344999693,3.0,1.0,phase_1,,,,,,,,,,,,,magenta,flipped triangle
0.0,1.0,0.0,0.0,2.0,2.0,314.7268379998422,3.0,1.0,phase_1,,,,,,,,,,,,,cyan,I
309.0,6.0,1.0,1.0,4.0,4.0,378.3038809997379,3.0,1.0,phase_1,,,,,,,,,,,,,blue,triangle
174.0,5.0,0.5,1.0,3.0,3.0,434.7127539999746,3.0,1.0,phase_1,,,,,,,,,,,,,magenta,flipped triangle
1296.0,4.0,4.0,0.0,2.0,2.0,563.3685949997016,3.0,1.0,phase_1,,,,,,,,,,,,,green,hexagon
642.0,3.0,2.0,0.0,4.0,4.0,428.9496189999227,3.0,1.0,phase_1,,,,,,,,,,,,,orange,diamond
330.0,6.0,1.0,1.0,2.0,2.0,378.7689450000471,3.0,1.0,phase_1,,,,,,,,,,,,,blue,triangle
144.0,1.0,0.5,0.0,1.0,1.0,461.9373470000028,3.0,1.0,phase_1,,,,,,,,,,,,,cyan,I
155.0,5.0,0.5,1.0,4.0,4.0,323.6918600000535,3.0,1.0,phase_1,,,,,,,,,,,,,magenta,flipped triangle
181.0,5.0,0.5,1.0,2.0,2.0,416.3002790000973,3.0,1.0,phase_1,,,,,,,,,,,,,magenta,flipped triangle
1314.0,8.0,4.0,1.0,1.0,1.0,519.0482950001751,3.0,1.0,phase_1,,,,,,,,,,,,,white,circle
1279.0,8.0,4.0,1.0,4.0,4.0,360.400877000302,3.0,1.0,phase_1,,,,,,,,,,,,,white,circle
138.0,5.0,0.5,1.0,4.0,4.0,407.2186040002634,3.0,1.0,phase_1,,,,,,,,,,,,,magenta,flipped triangle
650.0,3.0,2.0,0.0,4.0,4.0,314.5379539996611,3.0,1.0,phase_1,,,,,,,,,,,,,orange,diamond
659.0,3.0,2.0,0.0,4.0,4.0,314.0592780000588,3.0,1.0,phase_1,,,,,,,,,,,,,orange,diamond
319.0,2.0,1.0,0.0,3.0,3.0,793.2422409999162,4.0,1.0,phase_1,,,,,,,,,,,,,gray,cross
176.0,5.0,0.5,1.0,3.0,3.0,360.6125609999253,4.0,1.0,phase_1,,,,,,,,,,,,,magenta,flipped triangle
0.0,1.0,0.0,0.0,2.0,2.0,359.8946189999878,4.0,1.0,phase_1,,,,,,,,,,,,,cyan,I
1296.0,8.0,4.0,1.0,4.0,4.0,350.5374880001,4.0,1.0,phase_1,,,,,,,,,,,,,white,circle
176.0,1.0,0.5,0.0,3.0,3.0,351.0028919999968,4.0,1.0,phase_1,,,,,,,,,,,,,cyan,I
316.0,6.0,1.0,1.0,2.0,2.0,341.1604849998184,4.0,1.0,phase_1,,,,,,,,,,,,,blue,triangle
0.0,3.0,0.0,0.0,2.0,2.0,369.40040699983,4.0,1.0,phase_1,,,,,,,,,,,,,orange,diamond
140.0,1.0,0.5,0.0,3.0,3.0,287.9294449999179,4.0,1.0,phase_1,,,,,,,,,,,,,cyan,I
1296.0,8.0,4.0,1.0,4.0,4.0,304.5571849997941,4.0,1.0,phase_1,,,,,,,,,,,,,white,circle
1301.0,8.0,4.0,1.0,1.0,1.0,287.3037949998434,4.0,1.0,phase_1,,,,,,,,,,,,,white,circle
335.0,6.0,1.0,1.0,1.0,1.0,495.731287000126,4.0,1.0,phase_1,,,,,,,,,,,,,blue,triangle
340.0,6.0,1.0,1.0,1.0,1.0,376.7669210001259,4.0,1.0,phase_1,,,,,,,,,,,,,blue,triangle
320.0,6.0,1.0,1.0,2.0,2.0,340.3814519997468,4.0,1.0,phase_1,,,,,,,,,,,,,blue,triangle
666.0,3.0,2.0,0.0,3.0,3.0,313.922156999979,4.0,1.0,phase_1,,,,,,,,,,,,,orange,diamond
1280.0,4.0,4.0,0.0,2.0,2.0,349.840580000091,4.0,1.0,phase_1,,,,,,,,,,,,,green,hexagon
1286.0,8.0,4.0,1.0,2.0,2.0,314.6300719999999,4.0,1.0,phase_1,,,,,,,,,,,,,white,circle
151.0,5.0,0.5,1.0,1.0,1.0,396.9138920001569,4.0,1.0,phase_1,,,,,,,,,,,,,magenta,flipped triangle
1278.0,4.0,4.0,0.0,1.0,1.0,385.497745000066,4.0,1.0,phase_1,,,,,,,,,,,,,green,hexagon
635.0,3.0,2.0,0.0,2.0,2.0,368.1569469999886,4.0,1.0,phase_1,,,,,,,,,,,,,orange,diamond
1277.0,4.0,4.0,0.0,1.0,1.0,302.4155170000995,4.0,1.0,phase_1,,,,,,,,,,,,,green,hexagon
1313.0,8.0,4.0,1.0,4.0,4.0,516.7684900002314,4.0,1.0,phase_1,,,,,,,,,,,,,white,circle
669.0,7.0,2.0,1.0,3.0,3.0,359.566986000118,4.0,1.0,phase_1,,,,,,,,,,,,,yellow,square
303.0,6.0,1.0,1.0,4.0,4.0,395.8075919999828,4.0,1.0,phase_1,,,,,,,,,,,,,blue,triangle
174.0,5.0,0.5,1.0,1.0,1.0,322.0067520001066,4.0,1.0,phase_1,,,,,,,,,,,,,magenta,flipped triangle
648.0,3.0,2.0,0.0,1.0,1.0,368.9206499998363,4.0,1.0,phase_1,,,,,,,,,,,,,orange,diamond
303.0,2.0,1.0,0.0,4.0,4.0,368.4255829998619,4.0,1.0,phase_1,,,,,,,,,,,,,gray,cross
663.0,7.0,2.0,1.0,2.0,2.0,322.3665179998534,4.0,1.0,phase_1,,,,,,,,,,,,,yellow,square
0.0,7.0,0.0,1.0,2.0,2.0,294.1498389996013,4.0,1.0,phase_1,,,,,,,,,,,,,yellow,square
1287.0,8.0,4.0,1.0,4.0,4.0,340.4493980001462,4.0,1.0,phase_1,,,,,,,,,,,,,white,circle
646.0,7.0,2.0,1.0,2.0,2.0,303.6678200001006,4.0,1.0,phase_1,,,,,,,,,,,,,yellow,square
0.0,8.0,0.0,1.0,2.0,2.0,305.6642870001269,4.0,1.0,phase_1,,,,,,,,,,,,,white,circle
1311.0,8.0,4.0,1.0,2.0,2.0,304.2926470002385,4.0,1.0,phase_1,,,,,,,,,,,,,white,circle
1314.0,4.0,4.0,0.0,2.0,2.0,314.4433829997979,4.0,1.0,phase_1,,,,,,,,,,,,,green,hexagon
0.0,1.0,0.0,0.0,4.0,4.0,316.3849100001243,4.0,1.0,phase_1,,,,,,,,,,,,,cyan,I
167.0,5.0,0.5,1.0,2.0,2.0,267.4173360001077,4.0,1.0,phase_1,,,,,,,,,,,,,magenta,flipped triangle
642.0,7.0,2.0,1.0,2.0,2.0,377.7330070001881,4.0,1.0,phase_1,,,,,,,,,,,,,yellow,square
328.0,2.0,1.0,0.0,1.0,1.0,450.8421840000665,4.0,1.0,phase_1,,,,,,,,,,,,,gray,cross
659.0,3.0,2.0,0.0,4.0,4.0,387.9611849997673,4.0,1.0,phase_1,,,,,,,,,,,,,orange,diamond
0.0,8.0,0.0,1.0,1.0,1.0,285.9223880000172,4.0,1.0,phase_1,,,,,,,,,,,,,white,circle
1296.0,4.0,4.0,0.0,1.0,1.0,388.5913300000538,4.0,1.0,phase_1,,,,,,,,,,,,,green,hexagon
326.0,6.0,1.0,1.0,4.0,4.0,343.039091999799,4.0,1.0,phase_1,,,,,,,,,,,,,blue,triangle
0.0,5.0,0.0,1.0,4.0,4.0,368.4978340002089,4.0,1.0,phase_1,,,,,,,,,,,,,magenta,flipped triangle
144.0,5.0,0.5,1.0,1.0,1.0,295.4949019999731,4.0,1.0,phase_1,,,,,,,,,,,,,magenta,flipped triangle
0.0,2.0,0.0,0.0,2.0,2.0,341.2698669999372,4.0,1.0,phase_1,,,,,,,,,,,,,gray,cross
667.0,7.0,2.0,1.0,3.0,3.0,360.746864000248,4.0,1.0,phase_1,,,,,,,,,,,,,yellow,square
327.0,2.0,1.0,0.0,2.0,2.0,295.6532660000448,4.0,1.0,phase_1,,,,,,,,,,,,,gray,cross
628.0,7.0,2.0,1.0,1.0,1.0,285.2282809999451,4.0,1.0,phase_1,,,,,,,,,,,,,yellow,square
0.0,7.0,0.0,1.0,4.0,4.0,313.662242999726,4.0,1.0,phase_1,,,,,,,,,,,,,yellow,square
321.0,6.0,1.0,1.0,4.0,4.0,368.6110670000744,4.0,1.0,phase_1,,,,,,,,,,,,,blue,triangle
334.0,2.0,1.0,0.0,4.0,4.0,341.9466229997852,4.0,1.0,phase_1,,,,,,,,,,,,,gray,cross
346.0,6.0,1.0,1.0,2.0,2.0,322.9882089999591,4.0,1.0,phase_1,,,,,,,,,,,,,blue,triangle
657.0,7.0,2.0,1.0,3.0,3.0,275.8644489999824,4.0,1.0,phase_1,,,,,,,,,,,,,yellow,square
144.0,5.0,0.5,1.0,4.0,4.0,294.1242389997569,4.0,1.0,phase_1,,,,,,,,,,,,,magenta,flipped triangle
661.0,3.0,2.0,0.0,2.0,2.0,295.1830510000945,4.0,1.0,phase_1,,,,,,,,,,,,,orange,diamond
346.0,2.0,1.0,0.0,1.0,1.0,378.2383890002165,4.0,1.0,phase_1,,,,,,,,,,,,,gray,cross
320.0,2.0,1.0,0.0,1.0,1.0,433.2779470000787,4.0,1.0,phase_1,,,,,,,,,,,,,gray,cross
1295.0,8.0,4.0,1.0,4.0,4.0,350.6113039998126,4.0,1.0,phase_1,,,,,,,,,,,,,white,circle
1321.0,8.0,4.0,1.0,1.0,1.0,303.5651449999932,4.0,1.0,phase_1,,,,,,,,,,,,,white,circle
666.0,3.0,2.0,0.0,4.0,4.0,285.6746810002732,4.0,1.0,phase_1,,,,,,,,,,,,,orange,diamond
153.0,1.0,0.5,0.0,2.0,2.0,305.1550790000874,4.0,1.0,phase_1,,,,,,,,,,,,,cyan,I
0.0,3.0,0.0,0.0,4.0,4.0,359.2328009999619,4.0,1.0,phase_1,,,,,,,,,,,,,orange,diamond
1280.0,8.0,4.0,1.0,1.0,1.0,506.3755430001038,4.0,1.0,phase_1,,,,,,,,,,,,,white,circle
0.0,3.0,0.0,0.0,3.0,3.0,341.6576360000363,4.0,1.0,phase_1,,,,,,,,,,,,,orange,diamond
667.0,3.0,2.0,0.0,2.0,2.0,295.166400999733,4.0,1.0,phase_1,,,,,,,,,,,,,orange,diamond
661.0,3.0,2.0,0.0,4.0,4.0,322.3372920001566,4.0,2.0,phase_1,,,,,,,,,,,,,orange,diamond
634.0,7.0,2.0,1.0,4.0,4.0,323.7371099999109,4.0,1.0,phase_1,,,,,,,,,,,,,yellow,square
339.0,2.0,1.0,0.0,2.0,2.0,359.1770749999341,4.0,1.0,phase_1,,,,,,,,,,,,,gray,cross
629.0,3.0,2.0,0.0,4.0,4.0,304.2941319999954,4.0,1.0,phase_1,,,,,,,,,,,,,orange,diamond
0.0,6.0,0.0,1.0,1.0,1.0,377.6884250000876,4.0,1.0,phase_1,,,,,,,,,,,,,blue,triangle
334.0,6.0,1.0,1.0,3.0,3.0,286.7004050003743,4.0,1.0,phase_1,,,,,,,,,,,,,blue,triangle
634.0,3.0,2.0,0.0,1.0,1.0,469.8329259999809,4.0,1.0,phase_1,,,,,,,,,,,,,orange,diamond
332.0,2.0,1.0,0.0,1.0,1.0,366.9986449999669,4.0,1.0,phase_1,,,,,,,,,,,,,gray,cross
318.0,2.0,1.0,0.0,3.0,3.0,331.242547000329,4.0,1.0,phase_1,,,,,,,,,,,,,gray,cross
1318.0,4.0,4.0,0.0,4.0,4.0,551.0101690001648,4.0,1.0,phase_1,,,,,,,,,,,,,green,hexagon
0.0,7.0,0.0,1.0,1.0,1.0,321.2321760001941,4.0,1.0,phase_1,,,,,,,,,,,,,yellow,square
1318.0,4.0,4.0,0.0,3.0,3.0,312.3418929999388,4.0,1.0,phase_1,,,,,,,,,,,,,green,hexagon
1310.0,8.0,4.0,1.0,2.0,2.0,304.4573360002687,4.0,1.0,phase_1,,,,,,,,,,,,,white,circle
0.0,5.0,0.0,1.0,4.0,4.0,303.7740509998912,4.0,1.0,phase_1,,,,,,,,,,,,,magenta,flipped triangle
1300.0,8.0,4.0,1.0,2.0,2.0,348.6262579999675,4.0,1.0,phase_1,,,,,,,,,,,,,white,circle
340.0,2.0,1.0,0.0,2.0,2.0,285.0579460000517,4.0,1.0,phase_1,,,,,,,,,,,,,gray,cross
174.0,1.0,0.5,0.0,2.0,2.0,376.7582549999133,4.0,1.0,phase_1,,,,,,,,,,,,,cyan,I
337.0,6.0,1.0,1.0,1.0,1.0,598.2151019998128,4.0,1.0,phase_1,,,,,,,,,,,,,blue,triangle
0.0,3.0,0.0,0.0,1.0,1.0,368.0209170001944,4.0,1.0,phase_1,,,,,,,,,,,,,orange,diamond
674.0,7.0,2.0,1.0,3.0,3.0,385.2766250001878,4.0,1.0,phase_1,,,,,,,,,,,,,yellow,square
344.0,2.0,1.0,0.0,2.0,2.0,330.7472750002489,4.0,1.0,phase_1,,,,,,,,,,,,,gray,cross
335.0,2.0,1.0,0.0,4.0,4.0,477.905240000382,4.0,1.0,phase_1,,,,,,,,,,,,,gray,cross
151.0,1.0,0.5,0.0,4.0,4.0,331.9398180001371,4.0,1.0,phase_1,,,,,,,,,,,,,cyan,I
659.0,7.0,2.0,1.0,4.0,4.0,321.970586000134,4.0,1.0,phase_1,,,,,,,,,,,,,yellow,square
159.0,1.0,0.5,0.0,1.0,1.0,451.962518000073,4.0,1.0,phase_1,,,,,,,,,,,,,cyan,I
0.0,7.0,0.0,1.0,2.0,2.0,303.2292729999426,4.0,1.0,phase_1,,,,,,,,,,,,,yellow,square
0.0,6.0,0.0,1.0,2.0,2.0,395.6679389998498,4.0,1.0,phase_1,,,,,,,,,,,,,blue,triangle
318.0,6.0,1.0,1.0,1.0,1.0,413.8738009996814,4.0,1.0,phase_1,,,,,,,,,,,,,blue,triangle
152.0,5.0,0.5,1.0,4.0,4.0,304.2546379997475,4.0,1.0,phase_1,,,,,,,,,,,,,magenta,flipped triangle
0.0,2.0,0.0,0.0,1.0,1.0,304.1018110002369,4.0,1.0,phase_1,,,,,,,,,,,,,gray,cross
184.0,5.0,0.5,1.0,4.0,4.0,284.2612720000943,4.0,1.0,phase_1,,,,,,,,,,,,,magenta,flipped triangle
627.0,3.0,2.0,0.0,1.0,1.0,377.4867299998732,4.0,1.0,phase_1,,,,,,,,,,,,,orange,diamond
168.0,5.0,0.5,1.0,1.0,1.0,358.4183419998226,4.0,1.0,phase_1,,,,,,,,,,,,,magenta,flipped triangle
668.0,7.0,2.0,1.0,1.0,1.0,535.6407699996453,4.0,1.0,phase_1,,,,,,,,,,,,,yellow,square
167.0,1.0,0.5,0.0,1.0,1.0,442.3979999996845,4.0,1.0,phase_1,,,,,,,,,,,,,cyan,I
0.0,5.0,0.0,1.0,1.0,1.0,367.6949180003248,4.0,1.0,phase_1,,,,,,,,,,,,,magenta,flipped triangle
0.0,5.0,0.5,1.0,6.0,0.0,0.0,1.0,1.0,phase_2,stop,250.0,250.0,4.0,,,,,,,,,magenta,flipped triangle
0.0,3.0,2.0,0.0,5.0,5.0,325.0637670003016,1.0,1.0,phase_2,go,250.0,300.0,1.0,,,,,,,,,orange,diamond
0.0,8.0,4.0,1.0,5.0,0.0,0.0,1.0,1.0,phase_2,stop,250.0,300.0,4.0,,,,,,,,,white,circle
0.0,5.0,0.5,1.0,6.0,6.0,498.3858450000298,1.0,1.0,phase_2,stop,300.0,300.0,3.0,,,,,,,,,magenta,flipped triangle
0.0,7.0,2.0,1.0,6.0,0.0,0.0,1.0,1.0,phase_2,stop,300.0,250.0,4.0,,,,,,,,,yellow,square
0.0,8.0,4.0,1.0,6.0,6.0,528.4078939998835,1.0,1.0,phase_2,go,300.0,300.0,1.0,,,,,,,,,white,circle
0.0,5.0,0.5,1.0,6.0,0.0,0.0,1.0,1.0,phase_2,stop,300.0,300.0,4.0,,,,,,,,,magenta,flipped triangle
0.0,7.0,2.0,1.0,5.0,0.0,0.0,1.0,1.0,phase_2,stop,300.0,350.0,4.0,,,,,,,,,yellow,square
0.0,4.0,4.0,0.0,5.0,5.0,381.4064680000228,1.0,1.0,phase_2,go,350.0,350.0,1.0,,,,,,,,,green,hexagon
0.0,7.0,2.0,1.0,5.0,0.0,0.0,1.0,1.0,phase_2,stop,350.0,350.0,4.0,,,,,,,,,yellow,square
0.0,5.0,0.5,1.0,5.0,5.0,713.2244829999763,1.0,1.0,phase_2,go,400.0,350.0,1.0,,,,,,,,,magenta,flipped triangle
0.0,5.0,0.5,1.0,6.0,0.0,0.0,1.0,1.0,phase_2,stop,400.0,350.0,4.0,,,,,,,,,magenta,flipped triangle
0.0,7.0,2.0,1.0,6.0,0.0,0.0,1.0,1.0,phase_2,stop,400.0,400.0,4.0,,,,,,,,,yellow,square
0.0,6.0,1.0,1.0,5.0,5.0,511.2801469999795,1.0,1.0,phase_2,go,400.0,450.0,1.0,,,,,,,,,blue,triangle
0.0,2.0,1.0,0.0,5.0,5.0,688.525459000175,1.0,1.0,phase_2,go,400.0,450.0,1.0,,,,,,,,,gray,cross
0.0,6.0,1.0,1.0,6.0,0.0,0.0,1.0,1.0,phase_2,stop,400.0,450.0,4.0,,,,,,,,,blue,triangle
0.0,3.0,2.0,0.0,5.0,5.0,771.5449649999755,1.0,1.0,phase_2,go,400.0,500.0,1.0,,,,,,,,,orange,diamond
0.0,6.0,1.0,1.0,5.0,5.0,827.6501109999117,1.0,1.0,phase_2,go,400.0,500.0,1.0,,,,,,,,,blue,triangle
0.0,3.0,2.0,0.0,5.0,5.0,713.5674430001018,1.0,1.0,phase_2,go,400.0,500.0,1.0,,,,,,,,,orange,diamond
0.0,2.0,1.0,0.0,6.0,6.0,623.896252999657,1.0,1.0,phase_2,go,400.0,500.0,1.0,,,,,,,,,gray,cross
0.0,8.0,4.0,1.0,5.0,5.0,457.162444000005,1.0,1.0,phase_2,stop,400.0,500.0,3.0,,,,,,,,,white,circle
0.0,4.0,4.0,0.0,5.0,5.0,446.6387330003272,1.0,1.0,phase_2,go,350.0,500.0,1.0,,,,,,,,,green,hexagon
0.0,2.0,1.0,0.0,6.0,6.0,709.3558499996107,1.0,1.0,phase_2,go,350.0,500.0,1.0,,,,,,,,,gray,cross
0.0,8.0,4.0,1.0,5.0,0.0,0.0,1.0,1.0,phase_2,stop,350.0,500.0,4.0,,,,,,,,,white,circle
0.0,2.0,1.0,0.0,6.0,6.0,538.3410499998718,1.0,1.0,phase_2,go,400.0,500.0,1.0,,,,,,,,,gray,cross
0.0,2.0,1.0,0.0,6.0,6.0,384.0812570001617,1.0,1.0,phase_2,go,400.0,500.0,1.0,,,,,,,,,gray,cross
0.0,7.0,2.0,1.0,5.0,5.0,723.8104120001481,1.0,1.0,phase_2,go,400.0,500.0,1.0,,,,,,,,,yellow,square
0.0,4.0,4.0,0.0,6.0,6.0,649.9138640001547,1.0,1.0,phase_2,go,400.0,500.0,1.0,,,,,,,,,green,hexagon
0.0,2.0,1.0,0.0,5.0,5.0,662.3189219999404,1.0,1.0,phase_2,go,400.0,500.0,1.0,,,,,,,,,gray,cross
0.0,8.0,4.0,1.0,5.0,5.0,408.8740940001116,1.0,1.0,phase_2,go,400.0,500.0,1.0,,,,,,,,,white,circle
0.0,1.0,0.5,0.0,6.0,6.0,316.4829459997236,1.0,1.0,phase_2,go,400.0,500.0,1.0,,,,,,,,,cyan,I
0.0,5.0,0.5,1.0,5.0,5.0,539.8576540001159,1.0,1.0,phase_2,go,400.0,500.0,1.0,,,,,,,,,magenta,flipped triangle
0.0,7.0,2.0,1.0,5.0,5.0,354.2143490003582,1.0,1.0,phase_2,go,400.0,500.0,1.0,,,,,,,,,yellow,square
0.0,5.0,0.5,1.0,6.0,6.0,549.0753609997228,1.0,1.0,phase_2,stop,400.0,500.0,3.0,,,,,,,,,magenta,flipped triangle
0.0,5.0,0.5,1.0,6.0,6.0,624.9651500002074,1.0,1.0,phase_2,stop,400.0,450.0,3.0,,,,,,,,,magenta,flipped triangle
0.0,8.0,4.0,1.0,5.0,0.0,0.0,1.0,1.0,phase_2,stop,400.0,400.0,4.0,,,,,,,,,white,circle
0.0,4.0,4.0,0.0,6.0,6.0,576.5069650001351,2.0,1.0,phase_2,go,450.0,400.0,1.0,,,,,,,,,green,hexagon
0.0,3.0,2.0,0.0,6.0,6.0,333.6236000000099,2.0,1.0,phase_2,go,450.0,400.0,1.0,,,,,,,,,orange,diamond
0.0,6.0,1.0,1.0,6.0,6.0,452.6623279998603,2.0,1.0,phase_2,stop,450.0,400.0,3.0,,,,,,,,,blue,triangle
0.0,4.0,4.0,0.0,6.0,6.0,483.5354070000903,2.0,1.0,phase_2,go,450.0,350.0,1.0,,,,,,,,,green,hexagon
0.0,1.0,0.5,0.0,6.0,6.0,684.6352939996905,2.0,1.0,phase_2,go,450.0,350.0,1.0,,,,,,,,,cyan,I
0.0,4.0,4.0,0.0,6.0,6.0,530.4744730001403,2.0,1.0,phase_2,go,450.0,350.0,1.0,,,,,,,,,green,hexagon
0.0,7.0,2.0,1.0,6.0,6.0,539.9126389997946,2.0,1.0,phase_2,stop,450.0,350.0,3.0,,,,,,,,,yellow,square
0.0,1.0,0.5,0.0,5.0,5.0,595.7730519999132,2.0,1.0,phase_2,go,450.0,300.0,1.0,,,,,,,,,cyan,I
0.0,6.0,1.0,1.0,6.0,0.0,0.0,2.0,1.0,phase_2,stop,450.0,300.0,4.0,,,,,,,,,blue,triangle
0.0,5.0,0.5,1.0,6.0,0.0,0.0,2.0,1.0,phase_2,stop,450.0,350.0,4.0,,,,,,,,,magenta,flipped triangle
0.0,4.0,4.0,0.0,6.0,6.0,714.9397820003287,2.0,1.0,phase_2,go,450.0,400.0,1.0,,,,,,,,,green,hexagon
0.0,4.0,4.0,0.0,6.0,6.0,641.1781649999284,2.0,1.0,phase_2,go,450.0,400.0,1.0,,,,,,,,,green,hexagon
0.0,4.0,4.0,0.0,6.0,6.0,315.5812619997959,2.0,1.0,phase_2,go,450.0,400.0,1.0,,,,,,,,,green,hexagon
0.0,5.0,0.5,1.0,6.0,0.0,0.0,2.0,1.0,phase_2,stop,450.0,400.0,4.0,,,,,,,,,magenta,flipped triangle
0.0,3.0,2.0,0.0,5.0,5.0,733.7351679998392,2.0,1.0,phase_2,go,450.0,450.0,1.0,,,,,,,,,orange,diamond
0.0,3.0,2.0,0.0,6.0,6.0,305.7211300001654,2.0,1.0,phase_2,go,450.0,450.0,1.0,,,,,,,,,orange,diamond
0.0,6.0,1.0,1.0,6.0,0.0,0.0,2.0,1.0,phase_2,stop,450.0,450.0,4.0,,,,,,,,,blue,triangle
0.0,2.0,1.0,0.0,5.0,5.0,501.44640899998194,2.0,1.0,phase_2,go,450.0,500.0,1.0,,,,,,,,,gray,cross
0.0,3.0,2.0,0.0,6.0,6.0,586.4316790002704,2.0,1.0,phase_2,go,450.0,500.0,1.0,,,,,,,,,orange,diamond
0.0,6.0,1.0,1.0,6.0,6.0,652.6907190000202,2.0,1.0,phase_2,stop,450.0,500.0,3.0,,,,,,,,,blue,triangle
0.0,6.0,1.0,1.0,5.0,5.0,537.7225570000519,2.0,1.0,phase_2,go,450.0,450.0,1.0,,,,,,,,,blue,triangle
0.0,5.0,0.5,1.0,5.0,5.0,871.504859000197,2.0,1.0,phase_2,go,450.0,450.0,1.0,,,,,,,,,magenta,flipped triangle
0.0,2.0,1.0,0.0,6.0,6.0,661.7193150000276,2.0,1.0,phase_2,go,450.0,450.0,1.0,,,,,,,,,gray,cross
0.0,2.0,1.0,0.0,5.0,5.0,612.2605669997938,2.0,1.0,phase_2,go,450.0,450.0,1.0,,,,,,,,,gray,cross
0.0,8.0,4.0,1.0,5.0,0.0,0.0,2.0,1.0,phase_2,stop,450.0,450.0,4.0,,,,,,,,,white,circle
0.0,2.0,1.0,0.0,5.0,5.0,612.5149150002471,2.0,1.0,phase_2,go,500.0,450.0,1.0,,,,,,,,,gray,cross
0.0,1.0,0.5,0.0,5.0,5.0,704.7065550000298,2.0,1.0,phase_2,go,500.0,450.0,1.0,,,,,,,,,cyan,I
0.0,7.0,2.0,1.0,6.0,6.0,614.8041040000862,2.0,1.0,phase_2,stop,500.0,450.0,3.0,,,,,,,,,yellow,square
0.0,8.0,4.0,1.0,5.0,5.0,817.189574999702,2.0,1.0,phase_2,go,500.0,400.0,1.0,,,,,,,,,white,circle
0.0,6.0,1.0,1.0,5.0,0.0,0.0,2.0,1.0,phase_2,stop,500.0,400.0,4.0,,,,,,,,,blue,triangle
0.0,5.0,0.5,1.0,6.0,0.0,0.0,2.0,1.0,phase_2,stop,550.0,400.0,4.0,,,,,,,,,magenta,flipped triangle
0.0,1.0,0.5,0.0,5.0,5.0,659.7086490000947,2.0,1.0,phase_2,go,550.0,450.0,1.0,,,,,,,,,cyan,I
0.0,2.0,1.0,0.0,5.0,5.0,705.2829969998129,2.0,1.0,phase_2,go,550.0,450.0,1.0,,,,,,,,,gray,cross
0.0,2.0,1.0,0.0,5.0,5.0,398.6003549998713,2.0,1.0,phase_2,go,550.0,450.0,1.0,,,,,,,,,gray,cross
0.0,7.0,2.0,1.0,5.0,5.0,483.0101089996788,2.0,1.0,phase_2,stop,550.0,450.0,3.0,,,,,,,,,yellow,square
0.0,3.0,2.0,0.0,6.0,6.0,790.3077000000849,2.0,1.0,phase_2,go,500.0,450.0,1.0,,,,,,,,,orange,diamond
0.0,5.0,0.5,1.0,5.0,5.0,566.0137459999532,3.0,1.0,phase_2,go,500.0,450.0,1.0,,,,,,,,,magenta,flipped triangle
0.0,5.0,0.5,1.0,5.0,5.0,344.0482940000038,3.0,1.0,phase_2,stop,500.0,450.0,3.0,,,,,,,,,magenta,flipped triangle
0.0,1.0,0.5,0.0,6.0,6.0,687.1707899999819,3.0,1.0,phase_2,go,450.0,450.0,1.0,,,,,,,,,cyan,I
0.0,8.0,4.0,1.0,6.0,6.0,602.7294260002236,3.0,1.0,phase_2,stop,450.0,450.0,3.0,,,,,,,,,white,circle
0.0,2.0,1.0,0.0,6.0,6.0,520.7399810001334,3.0,1.0,phase_2,go,450.0,400.0,1.0,,,,,,,,,gray,cross
0.0,3.0,2.0,0.0,6.0,6.0,623.1434149999586,3.0,1.0,phase_2,go,450.0,400.0,1.0,,,,,,,,,orange,diamond
0.0,6.0,1.0,1.0,6.0,0.0,0.0,3.0,1.0,phase_2,stop,450.0,400.0,4.0,,,,,,,,,blue,triangle
0.0,4.0,4.0,0.0,5.0,5.0,706.1545500000648,3.0,1.0,phase_2,go,450.0,450.0,1.0,,,,,,,,,green,hexagon
0.0,4.0,4.0,0.0,6.0,6.0,685.1027830002749,3.0,1.0,phase_2,go,450.0,450.0,1.0,,,,,,,,,green,hexagon
0.0,6.0,1.0,1.0,6.0,6.0,572.3480209999252,3.0,1.0,phase_2,stop,450.0,450.0,3.0,,,,,,,,,blue,triangle
0.0,2.0,1.0,0.0,6.0,6.0,742.2615749997021,3.0,1.0,phase_2,go,450.0,400.0,1.0,,,,,,,,,gray,cross
0.0,3.0,2.0,0.0,6.0,6.0,324.7888949999833,3.0,1.0,phase_2,go,450.0,400.0,1.0,,,,,,,,,orange,diamond
0.0,6.0,1.0,1.0,5.0,5.0,724.3785559999196,3.0,1.0,phase_2,go,450.0,400.0,1.0,,,,,,,,,blue,triangle
0.0,8.0,4.0,1.0,6.0,0.0,0.0,3.0,1.0,phase_2,stop,450.0,400.0,4.0,,,,,,,,,white,circle
0.0,5.0,0.5,1.0,5.0,5.0,712.7753329996267,3.0,1.0,phase_2,stop,450.0,450.0,3.0,,,,,,,,,magenta,flipped triangle
0.0,4.0,4.0,0.0,5.0,5.0,696.5500330002214,3.0,1.0,phase_2,go,400.0,450.0,1.0,,,,,,,,,green,hexagon
0.0,8.0,4.0,1.0,5.0,0.0,0.0,3.0,1.0,phase_2,stop,400.0,450.0,4.0,,,,,,,,,white,circle
0.0,7.0,2.0,1.0,6.0,0.0,0.0,3.0,1.0,phase_2,stop,450.0,450.0,4.0,,,,,,,,,yellow,square
0.0,3.0,2.0,0.0,6.0,6.0,706.8251669998062,3.0,1.0,phase_2,go,450.0,500.0,1.0,,,,,,,,,orange,diamond
0.0,7.0,2.0,1.0,6.0,6.0,595.2928830001838,3.0,1.0,phase_2,stop,450.0,500.0,3.0,,,,,,,,,yellow,square
0.0,2.0,1.0,0.0,6.0,6.0,881.293882999671,3.0,1.0,phase_2,go,450.0,450.0,1.0,,,,,,,,,gray,cross
0.0,3.0,2.0,0.0,6.0,6.0,334.8587089999455,3.0,1.0,phase_2,go,450.0,450.0,1.0,,,,,,,,,orange,diamond
0.0,2.0,1.0,0.0,5.0,5.0,584.6510349997516,3.0,1.0,phase_2,go,450.0,450.0,1.0,,,,,,,,,gray,cross
0.0,7.0,2.0,1.0,6.0,6.0,304.9246730001869,3.0,1.0,phase_2,stop,450.0,450.0,3.0,,,,,,,,,yellow,square
0.0,5.0,0.5,1.0,5.0,0.0,0.0,3.0,1.0,phase_2,stop,450.0,400.0,4.0,,,,,,,,,magenta,flipped triangle
0.0,6.0,1.0,1.0,5.0,5.0,596.8495979996078,3.0,1.0,phase_2,stop,500.0,400.0,3.0,,,,,,,,,blue,triangle
0.0,1.0,0.5,0.0,6.0,6.0,723.912337999991,3.0,1.0,phase_2,go,450.0,400.0,1.0,,,,,,,,,cyan,I
0.0,4.0,4.0,0.0,5.0,5.0,814.7047959996598,3.0,1.0,phase_2,go,450.0,400.0,1.0,,,,,,,,,green,hexagon
0.0,2.0,1.0,0.0,6.0,6.0,1010.8211679998931,3.0,1.0,phase_2,go,450.0,400.0,1.0,,,,,,,,,gray,cross
0.0,8.0,4.0,1.0,5.0,0.0,0.0,3.0,1.0,phase_2,stop,450.0,400.0,4.0,,,,,,,,,white,circle
0.0,4.0,4.0,0.0,6.0,6.0,771.1547889998656,3.0,1.0,phase_2,go,500.0,400.0,1.0,,,,,,,,,green,hexagon
0.0,3.0,2.0,0.0,5.0,5.0,418.2523970002876,3.0,1.0,phase_2,go,500.0,400.0,1.0,,,,,,,,,orange,diamond
0.0,5.0,0.5,1.0,6.0,6.0,770.2663110003414,3.0,1.0,phase_2,go,500.0,400.0,1.0,,,,,,,,,magenta,flipped triangle
0.0,1.0,0.5,0.0,6.0,6.0,699.782843000321,3.0,1.0,phase_2,go,500.0,400.0,1.0,,,,,,,,,cyan,I
0.0,8.0,4.0,1.0,5.0,5.0,371.02127300022397,3.0,1.0,phase_2,go,500.0,400.0,1.0,,,,,,,,,white,circle
0.0,1.0,0.5,0.0,6.0,6.0,316.5393150002273,3.0,1.0,phase_2,go,500.0,400.0,1.0,,,,,,,,,cyan,I
0.0,3.0,2.0,0.0,6.0,6.0,325.7056510001348,4.0,1.0,phase_2,go,500.0,400.0,1.0,,,,,,,,,orange,diamond
0.0,5.0,0.5,1.0,6.0,6.0,439.3339270000069,4.0,1.0,phase_2,stop,500.0,400.0,3.0,,,,,,,,,magenta,flipped triangle
0.0,8.0,4.0,1.0,6.0,6.0,583.6180420001256,4.0,1.0,phase_2,go,500.0,350.0,1.0,,,,,,,,,white,circle
0.0,2.0,1.0,0.0,5.0,5.0,637.2643189997689,4.0,1.0,phase_2,go,500.0,350.0,1.0,,,,,,,,,gray,cross
0.0,1.0,0.5,0.0,6.0,6.0,757.4007960001836,4.0,1.0,phase_2,go,500.0,350.0,1.0,,,,,,,,,cyan,I
0.0,7.0,2.0,1.0,6.0,0.0,0.0,4.0,1.0,phase_2,stop,500.0,350.0,4.0,,,,,,,,,yellow,square
0.0,7.0,2.0,1.0,5.0,5.0,678.8394329996663,4.0,1.0,phase_2,stop,500.0,400.0,3.0,,,,,,,,,yellow,square
0.0,4.0,4.0,0.0,6.0,6.0,670.7010700001774,4.0,1.0,phase_2,go,450.0,400.0,1.0,,,,,,,,,green,hexagon
0.0,4.0,4.0,0.0,5.0,5.0,750.6671700002698,4.0,1.0,phase_2,go,450.0,400.0,1.0,,,,,,,,,green,hexagon
0.0,1.0,0.5,0.0,5.0,5.0,591.8369300006816,4.0,1.0,phase_2,go,450.0,400.0,1.0,,,,,,,,,cyan,I
0.0,2.0,1.0,0.0,6.0,6.0,667.214475000037,4.0,1.0,phase_2,go,450.0,400.0,1.0,,,,,,,,,gray,cross
0.0,3.0,2.0,0.0,5.0,5.0,707.3805429999993,4.0,1.0,phase_2,go,450.0,400.0,1.0,,,,,,,,,orange,diamond
0.0,6.0,1.0,1.0,5.0,0.0,0.0,4.0,1.0,phase_2,stop,450.0,400.0,4.0,,,,,,,,,blue,triangle
0.0,3.0,2.0,0.0,6.0,6.0,677.8556429999298,4.0,1.0,phase_2,go,500.0,400.0,1.0,,,,,,,,,orange,diamond
0.0,8.0,4.0,1.0,6.0,0.0,0.0,4.0,1.0,phase_2,stop,500.0,400.0,4.0,,,,,,,,,white,circle
0.0,6.0,1.0,1.0,6.0,6.0,537.0927899994058,4.0,1.0,phase_2,go,500.0,450.0,1.0,,,,,,,,,blue,triangle
0.0,2.0,1.0,0.0,6.0,6.0,684.8326979998092,4.0,1.0,phase_2,go,500.0,450.0,1.0,,,,,,,,,gray,cross
0.0,1.0,0.5,0.0,5.0,5.0,491.1060579997865,4.0,1.0,phase_2,go,500.0,450.0,1.0,,,,,,,,,cyan,I
0.0,2.0,1.0,0.0,5.0,5.0,389.1799530001663,4.0,1.0,phase_2,go,500.0,450.0,1.0,,,,,,,,,gray,cross
0.0,2.0,1.0,0.0,6.0,6.0,604.037346000041,4.0,1.0,phase_2,go,500.0,450.0,1.0,,,,,,,,,gray,cross
0.0,4.0,4.0,0.0,6.0,6.0,586.0557030000564,4.0,1.0,phase_2,go,500.0,450.0,1.0,,,,,,,,,green,hexagon
0.0,1.0,0.5,0.0,6.0,6.0,767.8589489996739,4.0,1.0,phase_2,go,500.0,450.0,1.0,,,,,,,,,cyan,I
0.0,7.0,2.0,1.0,5.0,0.0,0.0,4.0,1.0,phase_2,stop,500.0,450.0,4.0,,,,,,,,,yellow,square
0.0,3.0,2.0,0.0,5.0,5.0,602.5328220002848,4.0,1.0,phase_2,go,550.0,450.0,1.0,,,,,,,,,orange,diamond
0.0,7.0,2.0,1.0,5.0,5.0,521.1853380005778,4.0,1.0,phase_2,go,550.0,450.0,1.0,,,,,,,,,yellow,square
0.0,6.0,1.0,1.0,5.0,0.0,0.0,4.0,1.0,phase_2,stop,550.0,450.0,4.0,,,,,,,,,blue,triangle
0.0,4.0,4.0,0.0,5.0,5.0,628.9368890002152,4.0,1.0,phase_2,go,600.0,450.0,1.0,,,,,,,,,green,hexagon
0.0,2.0,1.0,0.0,6.0,6.0,473.337211999933,4.0,1.0,phase_2,go,600.0,450.0,1.0,,,,,,,,,gray,cross
0.0,3.0,2.0,0.0,5.0,5.0,334.4800109998687,4.0,1.0,phase_2,go,600.0,450.0,1.0,,,,,,,,,orange,diamond
0.0,6.0,1.0,1.0,5.0,5.0,575.8756279992667,4.0,1.0,phase_2,stop,600.0,450.0,3.0,,,,,,,,,blue,triangle
0.0,6.0,1.0,1.0,5.0,0.0,0.0,4.0,1.0,phase_2,stop,550.0,450.0,4.0,,,,,,,,,blue,triangle
0.0,1.0,0.5,0.0,5.0,5.0,755.083895000098,4.0,1.0,phase_2,go,600.0,450.0,1.0,,,,,,,,,cyan,I
0.0,7.0,2.0,1.0,6.0,6.0,484.7998989998814,4.0,1.0,phase_2,stop,600.0,450.0,3.0,,,,,,,,,yellow,square
0.0,1.0,0.5,0.0,6.0,6.0,761.7661880003652,4.0,1.0,phase_2,go,600.0,400.0,1.0,,,,,,,,,cyan,I
0.0,3.0,2.0,0.0,5.0,5.0,687.6929149993884,4.0,1.0,phase_2,go,600.0,400.0,1.0,,,,,,,,,orange,diamond
0.0,4.0,4.0,0.0,6.0,6.0,353.5234020000644,4.0,1.0,phase_2,go,600.0,400.0,1.0,,,,,,,,,green,hexagon
0.0,7.0,2.0,1.0,6.0,6.0,306.5321859994583,5.0,1.0,phase_2,stop,600.0,400.0,3.0,,,,,,,,,yellow,square
0.0,6.0,1.0,1.0,6.0,6.0,471.1932189993604,5.0,1.0,phase_2,stop,600.0,350.0,3.0,,,,,,,,,blue,triangle
0.0,1.0,0.5,0.0,5.0,5.0,380.8926379997501,5.0,1.0,phase_2,go,600.0,300.0,1.0,,,,,,,,,cyan,I
0.0,8.0,4.0,1.0,5.0,5.0,379.8395739995612,5.0,1.0,phase_2,stop,600.0,300.0,3.0,,,,,,,,,white,circle
0.0,2.0,1.0,0.0,5.0,5.0,611.5562049999426,5.0,1.0,phase_2,go,550.0,300.0,1.0,,,,,,,,,gray,cross
0.0,2.0,1.0,0.0,5.0,5.0,391.1313640001026,5.0,1.0,phase_2,go,550.0,300.0,1.0,,,,,,,,,gray,cross
0.0,2.0,1.0,0.0,6.0,6.0,648.6577170007877,5.0,1.0,phase_2,go,550.0,300.0,1.0,,,,,,,,,gray,cross
0.0,4.0,4.0,0.0,5.0,5.0,639.4028190006793,5.0,1.0,phase_2,go,550.0,300.0,1.0,,,,,,,,,green,hexagon
0.0,7.0,2.0,1.0,5.0,0.0,0.0,5.0,1.0,phase_2,stop,550.0,300.0,4.0,,,,,,,,,yellow,square
0.0,5.0,0.5,1.0,5.0,0.0,0.0,5.0,1.0,phase_2,stop,600.0,300.0,4.0,,,,,,,,,magenta,flipped triangle
0.0,4.0,4.0,0.0,6.0,6.0,557.9438909999226,5.0,1.0,phase_2,go,650.0,300.0,1.0,,,,,,,,,green,hexagon
0.0,6.0,1.0,1.0,6.0,6.0,734.887229999913,5.0,1.0,phase_2,go,650.0,300.0,1.0,,,,,,,,,blue,triangle
0.0,6.0,1.0,1.0,6.0,0.0,0.0,5.0,1.0,phase_2,stop,650.0,300.0,4.0,,,,,,,,,blue,triangle
0.0,6.0,1.0,1.0,6.0,6.0,835.1974879997215,5.0,1.0,phase_2,go,650.0,350.0,1.0,,,,,,,,,blue,triangle
0.0,1.0,0.5,0.0,5.0,5.0,567.7102730005572,5.0,1.0,phase_2,go,650.0,350.0,1.0,,,,,,,,,cyan,I
0.0,6.0,1.0,1.0,6.0,0.0,0.0,5.0,1.0,phase_2,stop,650.0,350.0,4.0,,,,,,,,,blue,triangle
0.0,5.0,0.5,1.0,6.0,6.0,724.2937520004489,5.0,1.0,phase_2,go,650.0,400.0,1.0,,,,,,,,,magenta,flipped triangle
0.0,1.0,0.5,0.0,6.0,6.0,632.6741780003431,5.0,1.0,phase_2,go,650.0,400.0,1.0,,,,,,,,,cyan,I
0.0,6.0,1.0,1.0,6.0,0.0,0.0,5.0,1.0,phase_2,stop,650.0,400.0,4.0,,,,,,,,,blue,triangle
0.0,8.0,4.0,1.0,5.0,5.0,444.0185690000362,5.0,1.0,phase_2,stop,650.0,450.0,3.0,,,,,,,,,white,circle
0.0,5.0,0.5,1.0,6.0,6.0,677.7671429999828,5.0,1.0,phase_2,go,600.0,450.0,1.0,,,,,,,,,magenta,flipped triangle
0.0,1.0,0.5,0.0,6.0,6.0,521.4572800005044,5.0,1.0,phase_2,go,600.0,450.0,1.0,,,,,,,,,cyan,I
0.0,7.0,2.0,1.0,6.0,6.0,380.2143170005365,5.0,1.0,phase_2,go,600.0,450.0,1.0,,,,,,,,,yellow,square
0.0,6.0,1.0,1.0,6.0,6.0,446.2709889994585,5.0,1.0,phase_2,stop,600.0,450.0,3.0,,,,,,,,,blue,triangle
0.0,5.0,0.5,1.0,5.0,5.0,509.5695159998286,5.0,1.0,phase_2,stop,600.0,400.0,3.0,,,,,,,,,magenta,flipped triangle
0.0,1.0,0.5,0.0,6.0,6.0,612.6291999999012,5.0,1.0,phase_2,go,550.0,400.0,1.0,,,,,,,,,cyan,I
0.0,4.0,4.0,0.0,5.0,5.0,707.5962079998135,5.0,1.0,phase_2,go,550.0,400.0,1.0,,,,,,,,,green,hexagon
0.0,3.0,2.0,0.0,5.0,5.0,620.4614960006438,5.0,1.0,phase_2,go,550.0,400.0,1.0,,,,,,,,,orange,diamond
0.0,7.0,2.0,1.0,5.0,5.0,718.711403999805,5.0,1.0,phase_2,stop,550.0,400.0,3.0,,,,,,,,,yellow,square
0.0,5.0,0.5,1.0,5.0,0.0,0.0,5.0,1.0,phase_2,stop,500.0,400.0,4.0,,,,,,,,,magenta,flipped triangle
0.0,7.0,2.0,1.0,5.0,5.0,806.478653999875,5.0,1.0,phase_2,go,550.0,400.0,1.0,,,,,,,,,yellow,square
0.0,1.0,0.5,0.0,5.0,5.0,687.2857579992342,5.0,1.0,phase_2,go,550.0,400.0,1.0,,,,,,,,,cyan,I
0.0,6.0,1.0,1.0,5.0,5.0,719.768244000079,5.0,1.0,phase_2,stop,550.0,400.0,3.0,,,,,,,,,blue,triangle
0.0,7.0,2.0,1.0,5.0,0.0,0.0,5.0,1.0,phase_2,stop,500.0,400.0,4.0,,,,,,,,,yellow,square
0.0,1.0,0.5,0.0,5.0,5.0,927.8002499995636,5.0,1.0,phase_2,go,550.0,400.0,1.0,,,,,,,,,cyan,I
0.0,1.0,0.5,0.0,6.0,6.0,657.9719720002686,5.0,1.0,phase_2,go,550.0,400.0,1.0,,,,,,,,,cyan,I
0.0,8.0,4.0,1.0,6.0,6.0,576.7040079999788,6.0,1.0,phase_2,go,550.0,400.0,1.0,,,,,,,,,white,circle
0.0,5.0,0.5,1.0,5.0,5.0,712.6945549998709,6.0,1.0,phase_2,stop,550.0,400.0,3.0,,,,,,,,,magenta,flipped triangle
0.0,5.0,0.5,1.0,5.0,5.0,919.4682799998192,6.0,1.0,phase_2,go,500.0,400.0,1.0,,,,,,,,,magenta,flipped triangle
0.0,7.0,2.0,1.0,5.0,0.0,0.0,6.0,1.0,phase_2,stop,500.0,400.0,4.0,,,,,,,,,yellow,square
0.0,3.0,2.0,0.0,6.0,6.0,1057.7850319996287,6.0,1.0,phase_2,go,550.0,400.0,1.0,,,,,,,,,orange,diamond
0.0,4.0,4.0,0.0,5.0,5.0,660.8207610006502,6.0,1.0,phase_2,go,550.0,400.0,1.0,,,,,,,,,green,hexagon
0.0,2.0,1.0,0.0,6.0,6.0,715.714294999998,6.0,1.0,phase_2,go,550.0,400.0,1.0,,,,,,,,,gray,cross
0.0,2.0,1.0,0.0,5.0,5.0,759.1361589993539,6.0,1.0,phase_2,go,550.0,400.0,1.0,,,,,,,,,gray,cross
0.0,2.0,1.0,0.0,5.0,5.0,428.5619000002043,6.0,1.0,phase_2,go,550.0,400.0,1.0,,,,,,,,,gray,cross
0.0,4.0,4.0,0.0,5.0,5.0,651.5402269997139,6.0,1.0,phase_2,go,550.0,400.0,1.0,,,,,,,,,green,hexagon
0.0,7.0,2.0,1.0,6.0,0.0,0.0,6.0,1.0,phase_2,stop,550.0,400.0,4.0,,,,,,,,,yellow,square
0.0,8.0,4.0,1.0,6.0,0.0,0.0,6.0,1.0,phase_2,stop,550.0,450.0,4.0,,,,,,,,,white,circle
0.0,2.0,1.0,0.0,6.0,6.0,547.7572380004858,6.0,1.0,phase_2,go,550.0,500.0,1.0,,,,,,,,,gray,cross
0.0,4.0,4.0,0.0,5.0,5.0,640.645857999516,6.0,1.0,phase_2,go,550.0,500.0,1.0,,,,,,,,,green,hexagon
0.0,8.0,4.0,1.0,6.0,0.0,0.0,6.0,1.0,phase_2,stop,550.0,500.0,4.0,,,,,,,,,white,circle
0.0,8.0,4.0,1.0,6.0,6.0,758.632631999717,6.0,1.0,phase_2,stop,550.0,550.0,3.0,,,,,,,,,white,circle
0.0,7.0,2.0,1.0,5.0,5.0,719.993906000127,6.0,1.0,phase_2,stop,550.0,500.0,3.0,,,,,,,,,yellow,square
0.0,1.0,0.5,0.0,6.0,6.0,648.1851140006256,6.0,1.0,phase_2,go,500.0,500.0,1.0,,,,,,,,,cyan,I
0.0,7.0,2.0,1.0,5.0,0.0,0.0,6.0,1.0,phase_2,stop,500.0,500.0,4.0,,,,,,,,,yellow,square
0.0,2.0,1.0,0.0,6.0,6.0,807.650315000501,6.0,1.0,phase_2,go,550.0,500.0,1.0,,,,,,,,,gray,cross
0.0,6.0,1.0,1.0,5.0,0.0,0.0,6.0,1.0,phase_2,stop,550.0,500.0,4.0,,,,,,,,,blue,triangle
0.0,4.0,4.0,0.0,5.0,5.0,743.5204060002434,6.0,1.0,phase_2,go,600.0,500.0,1.0,,,,,,,,,green,hexagon
0.0,2.0,1.0,0.0,6.0,6.0,380.0572199997987,6.0,1.0,phase_2,go,600.0,500.0,1.0,,,,,,,,,gray,cross
0.0,4.0,4.0,0.0,5.0,5.0,667.8700510001363,6.0,1.0,phase_2,go,600.0,500.0,1.0,,,,,,,,,green,hexagon
0.0,8.0,4.0,1.0,6.0,0.0,0.0,6.0,1.0,phase_2,stop,600.0,500.0,4.0,,,,,,,,,white,circle
0.0,8.0,4.0,1.0,6.0,0.0,0.0,6.0,1.0,phase_2,stop,600.0,550.0,4.0,,,,,,,,,white,circle
0.0,3.0,2.0,0.0,5.0,5.0,715.2876310001375,6.0,1.0,phase_2,go,600.0,600.0,1.0,,,,,,,,,orange,diamond
0.0,4.0,4.0,0.0,5.0,5.0,666.5807099998347,6.0,1.0,phase_2,go,600.0,600.0,1.0,,,,,,,,,green,hexagon
0.0,2.0,1.0,0.0,5.0,5.0,807.1835529999589,6.0,1.0,phase_2,go,600.0,600.0,1.0,,,,,,,,,gray,cross
0.0,1.0,0.5,0.0,5.0,5.0,666.3778300007834,6.0,1.0,phase_2,go,600.0,600.0,1.0,,,,,,,,,cyan,I
0.0,5.0,0.5,1.0,5.0,5.0,909.937837999678,6.0,1.0,phase_2,go,600.0,600.0,1.0,,,,,,,,,magenta,flipped triangle
0.0,2.0,1.0,0.0,5.0,5.0,612.8877199998897,6.0,1.0,phase_2,go,600.0,600.0,1.0,,,,,,,,,gray,cross
0.0,5.0,0.5,1.0,6.0,0.0,0.0,6.0,1.0,phase_2,stop,600.0,600.0,4.0,,,,,,,,,magenta,flipped triangle
0.0,7.0,2.0,1.0,5.0,0.0,0.0,6.0,1.0,phase_2,stop,600.0,650.0,4.0,,,,,,,,,yellow,square
0.0,8.0,4.0,1.0,6.0,6.0,778.658204999374,6.0,1.0,phase_2,stop,650.0,650.0,3.0,,,,,,,,,white,circle
0.0,4.0,4.0,0.0,6.0,6.0,615.0693800000226,6.0,1.0,phase_2,go,650.0,600.0,1.0,,,,,,,,,green,hexagon
0.0,8.0,4.0,1.0,6.0,6.0,642.5233910003953,7.0,1.0,phase_2,stop,650.0,600.0,3.0,,,,,,,,,white,circle
0.0,7.0,2.0,1.0,6.0,6.0,768.685744999857,7.0,1.0,phase_2,stop,650.0,550.0,3.0,,,,,,,,,yellow,square
0.0,4.0,4.0,0.0,5.0,5.0,679.526044999875,7.0,1.0,phase_2,go,650.0,500.0,1.0,,,,,,,,,green,hexagon
0.0,4.0,4.0,0.0,5.0,5.0,446.164931999192,7.0,1.0,phase_2,go,650.0,500.0,1.0,,,,,,,,,green,hexagon
0.0,3.0,2.0,0.0,6.0,6.0,565.2859910005645,7.0,1.0,phase_2,go,650.0,500.0,1.0,,,,,,,,,orange,diamond
0.0,4.0,4.0,0.0,6.0,6.0,510.13195299947256,7.0,1.0,phase_2,go,650.0,500.0,1.0,,,,,,,,,green,hexagon
0.0,3.0,2.0,0.0,6.0,6.0,631.9775780002601,7.0,1.0,phase_2,go,650.0,500.0,1.0,,,,,,,,,orange,diamond
0.0,7.0,2.0,1.0,6.0,6.0,965.3208429999722,7.0,1.0,phase_2,go,650.0,500.0,1.0,,,,,,,,,yellow,square
0.0,5.0,0.5,1.0,6.0,0.0,0.0,7.0,1.0,phase_2,stop,650.0,500.0,4.0,,,,,,,,,magenta,flipped triangle
0.0,5.0,0.5,1.0,5.0,0.0,0.0,7.0,1.0,phase_2,stop,650.0,550.0,4.0,,,,,,,,,magenta,flipped triangle
0.0,8.0,4.0,1.0,6.0,0.0,0.0,7.0,1.0,phase_2,stop,700.0,550.0,4.0,,,,,,,,,white,circle
0.0,3.0,2.0,0.0,5.0,5.0,788.4897049998472,7.0,1.0,phase_2,go,700.0,600.0,1.0,,,,,,,,,orange,diamond
0.0,7.0,2.0,1.0,5.0,5.0,482.9293900002085,7.0,1.0,phase_2,stop,700.0,600.0,3.0,,,,,,,,,yellow,square
0.0,4.0,4.0,0.0,5.0,5.0,965.5708290001712,7.0,1.0,phase_2,go,650.0,600.0,1.0,,,,,,,,,green,hexagon
0.0,8.0,4.0,1.0,5.0,0.0,0.0,7.0,1.0,phase_2,stop,650.0,600.0,4.0,,,,,,,,,white,circle
0.0,8.0,4.0,1.0,6.0,0.0,0.0,7.0,1.0,phase_2,stop,700.0,600.0,4.0,,,,,,,,,white,circle
0.0,4.0,4.0,0.0,6.0,6.0,622.6287290000982,7.0,1.0,phase_2,go,700.0,650.0,1.0,,,,,,,,,green,hexagon
0.0,1.0,0.5,0.0,5.0,5.0,511.2121450001723,7.0,1.0,phase_2,go,700.0,650.0,1.0,,,,,,,,,cyan,I
0.0,5.0,0.5,1.0,6.0,0.0,0.0,7.0,1.0,phase_2,stop,700.0,650.0,4.0,,,,,,,,,magenta,flipped triangle
0.0,7.0,2.0,1.0,6.0,6.0,612.3298350003097,7.0,1.0,phase_2,stop,700.0,700.0,3.0,,,,,,,,,yellow,square
0.0,6.0,1.0,1.0,5.0,0.0,0.0,7.0,1.0,phase_2,stop,700.0,650.0,4.0,,,,,,,,,blue,triangle
0.0,3.0,2.0,0.0,5.0,5.0,787.6914109992867,7.0,1.0,phase_2,go,750.0,650.0,1.0,,,,,,,,,orange,diamond
0.0,5.0,0.5,1.0,5.0,0.0,0.0,7.0,1.0,phase_2,stop,750.0,650.0,4.0,,,,,,,,,magenta,flipped triangle
0.0,3.0,2.0,0.0,6.0,6.0,686.0983879996638,7.0,1.0,phase_2,go,800.0,650.0,1.0,,,,,,,,,orange,diamond
0.0,5.0,0.5,1.0,5.0,0.0,0.0,7.0,1.0,phase_2,stop,800.0,650.0,4.0,,,,,,,,,magenta,flipped triangle
0.0,1.0,0.5,0.0,6.0,6.0,483.1589179993898,7.0,1.0,phase_2,go,850.0,650.0,1.0,,,,,,,,,cyan,I
0.0,3.0,2.0,0.0,5.0,5.0,583.9170669996747,7.0,1.0,phase_2,go,850.0,650.0,1.0,,,,,,,,,orange,diamond
0.0,7.0,2.0,1.0,6.0,6.0,1094.077132000166,7.0,1.0,phase_2,go,850.0,650.0,1.0,,,,,,,,,yellow,square
0.0,3.0,2.0,0.0,6.0,6.0,604.6093699997073,7.0,1.0,phase_2,go,850.0,650.0,1.0,,,,,,,,,orange,diamond
0.0,6.0,1.0,1.0,5.0,5.0,1004.7330259994851,7.0,1.0,phase_2,stop,850.0,650.0,3.0,,,,,,,,,blue,triangle
0.0,8.0,4.0,1.0,6.0,0.0,0.0,7.0,1.0,phase_2,stop,800.0,650.0,4.0,,,,,,,,,white,circle
0.0,1.0,0.5,0.0,5.0,5.0,464.8107220000383,7.0,1.0,phase_2,go,800.0,700.0,1.0,,,,,,,,,cyan,I
0.0,5.0,0.5,1.0,5.0,0.0,0.0,7.0,1.0,phase_2,stop,800.0,700.0,4.0,,,,,,,,,magenta,flipped triangle
0.0,2.0,1.0,0.0,5.0,5.0,631.247505999454,7.0,1.0,phase_2,go,850.0,700.0,1.0,,,,,,,,,gray,cross
0.0,1.0,0.5,0.0,5.0,5.0,566.5580780005257,7.0,1.0,phase_2,go,850.0,700.0,1.0,,,,,,,,,cyan,I
0.0,3.0,2.0,0.0,5.0,5.0,704.0314779997061,7.0,1.0,phase_2,go,850.0,700.0,1.0,,,,,,,,,orange,diamond
0.0,6.0,1.0,1.0,5.0,5.0,539.4212199998947,8.0,1.0,phase_2,stop,850.0,700.0,3.0,,,,,,,,,blue,triangle
0.0,5.0,0.5,1.0,5.0,0.0,0.0,8.0,1.0,phase_2,stop,800.0,700.0,4.0,,,,,,,,,magenta,flipped triangle
0.0,1.0,0.5,0.0,5.0,5.0,668.9681509997172,8.0,1.0,phase_2,go,850.0,700.0,1.0,,,,,,,,,cyan,I
0.0,3.0,2.0,0.0,6.0,6.0,501.3498059997801,8.0,1.0,phase_2,go,850.0,700.0,1.0,,,,,,,,,orange,diamond
0.0,3.0,2.0,0.0,6.0,6.0,448.2886510004391,8.0,1.0,phase_2,go,850.0,700.0,1.0,,,,,,,,,orange,diamond
0.0,6.0,1.0,1.0,5.0,5.0,883.5054579994903,8.0,1.0,phase_2,stop,850.0,700.0,3.0,,,,,,,,,blue,triangle
0.0,8.0,4.0,1.0,5.0,0.0,0.0,8.0,1.0,phase_2,go,800.0,700.0,5.0,,,,,,,,,white,circle
0.0,8.0,4.0,1.0,6.0,6.0,826.4050839998163,8.0,1.0,phase_2,stop,800.0,700.0,3.0,,,,,,,,,white,circle
0.0,4.0,4.0,0.0,6.0,6.0,725.3069679991313,8.0,1.0,phase_2,go,800.0,650.0,1.0,,,,,,,,,green,hexagon
0.0,1.0,0.5,0.0,5.0,5.0,521.8454949999796,8.0,1.0,phase_2,go,800.0,650.0,1.0,,,,,,,,,cyan,I
0.0,7.0,2.0,1.0,6.0,6.0,306.2851080003383,8.0,1.0,phase_2,go,800.0,650.0,1.0,,,,,,,,,yellow,square
0.0,5.0,0.5,1.0,6.0,0.0,0.0,8.0,1.0,phase_2,stop,800.0,650.0,4.0,,,,,,,,,magenta,flipped triangle
0.0,8.0,4.0,1.0,5.0,5.0,614.0613130000929,8.0,1.0,phase_2,stop,800.0,700.0,3.0,,,,,,,,,white,circle
0.0,6.0,1.0,1.0,6.0,0.0,0.0,8.0,1.0,phase_2,stop,750.0,700.0,4.0,,,,,,,,,blue,triangle
0.0,1.0,0.5,0.0,6.0,6.0,482.8653219992702,8.0,1.0,phase_2,go,750.0,750.0,1.0,,,,,,,,,cyan,I
0.0,1.0,0.5,0.0,6.0,6.0,426.9938379993618,8.0,1.0,phase_2,go,750.0,750.0,1.0,,,,,,,,,cyan,I
0.0,6.0,1.0,1.0,6.0,6.0,381.6630989995246,8.0,1.0,phase_2,stop,750.0,750.0,3.0,,,,,,,,,blue,triangle
0.0,7.0,2.0,1.0,5.0,5.0,1065.823232999719,8.0,1.0,phase_2,go,750.0,700.0,1.0,,,,,,,,,yellow,square
0.0,6.0,1.0,1.0,5.0,5.0,949.9453349999384,8.0,1.0,phase_2,stop,750.0,700.0,3.0,,,,,,,,,blue,triangle
0.0,1.0,0.5,0.0,5.0,5.0,512.9089559995919,8.0,1.0,phase_2,go,700.0,700.0,1.0,,,,,,,,,cyan,I
0.0,8.0,4.0,1.0,5.0,5.0,1159.349182999904,8.0,1.0,phase_2,go,700.0,700.0,1.0,,,,,,,,,white,circle
0.0,6.0,1.0,1.0,6.0,6.0,984.8858790001032,8.0,1.0,phase_2,go,700.0,700.0,1.0,,,,,,,,,blue,triangle
0.0,3.0,2.0,0.0,5.0,5.0,380.4113660007715,8.0,1.0,phase_2,go,700.0,700.0,1.0,,,,,,,,,orange,diamond
0.0,5.0,0.5,1.0,6.0,6.0,893.146154000533,8.0,1.0,phase_2,stop,700.0,700.0,3.0,,,,,,,,,magenta,flipped triangle
0.0,3.0,2.0,0.0,5.0,5.0,491.550403000474,8.0,1.0,phase_2,go,700.0,650.0,1.0,,,,,,,,,orange,diamond
0.0,3.0,2.0,0.0,5.0,5.0,427.7604080007222,8.0,1.0,phase_2,go,700.0,650.0,1.0,,,,,,,,,orange,diamond
0.0,4.0,4.0,0.0,6.0,6.0,536.4596159997745,8.0,1.0,phase_2,go,700.0,650.0,1.0,,,,,,,,,green,hexagon
0.0,8.0,4.0,1.0,5.0,0.0,0.0,8.0,1.0,phase_2,stop,700.0,650.0,4.0,,,,,,,,,white,circle
0.0,1.0,0.5,0.0,5.0,5.0,565.9457430001567,8.0,1.0,phase_2,go,750.0,650.0,1.0,,,,,,,,,cyan,I
0.0,2.0,1.0,0.0,5.0,5.0,483.9567210001405,8.0,1.0,phase_2,go,750.0,650.0,1.0,,,,,,,,,gray,cross
0.0,7.0,2.0,1.0,6.0,6.0,362.290369999755,8.0,1.0,phase_2,stop,750.0,650.0,3.0,,,,,,,,,yellow,square
0.0,1.0,0.5,0.0,6.0,6.0,520.9530749998521,8.0,1.0,phase_2,go,750.0,600.0,1.0,,,,,,,,,cyan,I
0.0,3.0,2.0,0.0,6.0,6.0,491.0841149994667,8.0,1.0,phase_2,go,750.0,600.0,1.0,,,,,,,,,orange,diamond
0.0,6.0,1.0,1.0,5.0,5.0,1039.9211370004195,8.0,1.0,phase_2,go,750.0,600.0,1.0,,,,,,,,,blue,triangle
0.0,8.0,4.0,1.0,5.0,5.0,959.6122000002651,8.0,1.0,phase_2,stop,750.0,600.0,3.0,,,,,,,,,white,circle
0.0,8.0,4.0,1.0,6.0,6.0,1175.856038000347,8.0,1.0,phase_2,go,700.0,600.0,1.0,,,,,,,,,white,circle
0.0,1.0,0.5,0.0,7.0,1.0,3184.581540999716,1.0,1.0,phase_3,,,,,346.0,2.0,346.0,173.0,692.0,865.0,1038.0,519.0,cyan,I
0.0,2.0,1.0,0.0,7.0,6.0,4335.325279000244,1.0,1.0,phase_3,,,,,696.0,6.0,464.0,232.0,348.0,580.0,116.0,696.0,gray,cross
0.0,5.0,0.5,1.0,7.0,4.0,1410.9793090001403,1.0,1.0,phase_3,,,,,580.0,5.0,696.0,232.0,348.0,580.0,116.0,464.0,magenta,flipped triangle
0.0,2.0,1.0,0.0,7.0,2.0,2439.168195999628,1.0,1.0,phase_3,,,,,405.0,3.0,675.0,405.0,135.0,810.0,270.0,540.0,gray,cross
0.0,7.0,2.0,1.0,7.0,3.0,1937.7322109994568,1.0,1.0,phase_3,,,,,576.0,3.0,1152.0,384.0,576.0,192.0,768.0,960.0,yellow,square
0.0,5.0,0.5,1.0,7.0,5.0,2610.0478529997417,1.0,1.0,phase_3,,,,,580.0,5.0,696.0,232.0,116.0,348.0,580.0,464.0,magenta,flipped triangle
0.0,1.0,0.5,0.0,7.0,4.0,3017.980047999117,1.0,1.0,phase_3,,,,,464.0,4.0,580.0,116.0,232.0,464.0,696.0,348.0,cyan,I
0.0,3.0,2.0,0.0,7.0,2.0,3207.486818999314,1.0,1.0,phase_3,,,,,192.0,1.0,1152.0,192.0,960.0,384.0,768.0,576.0,orange,diamond
0.0,4.0,4.0,0.0,7.0,5.0,2518.03120600016,1.0,1.0,phase_3,,,,,348.0,3.0,464.0,232.0,580.0,116.0,348.0,696.0,green,hexagon
0.0,1.0,0.5,0.0,7.0,6.0,2209.78226599982,1.0,1.0,phase_3,,,,,192.0,1.0,384.0,1152.0,960.0,768.0,576.0,192.0,cyan,I
0.0,7.0,2.0,1.0,7.0,4.0,1484.778803000154,1.0,1.0,phase_3,,,,,692.0,4.0,865.0,173.0,346.0,692.0,1038.0,519.0,yellow,square
0.0,7.0,2.0,1.0,7.0,4.0,3263.6176170008184,1.0,1.0,phase_3,,,,,519.0,3.0,346.0,173.0,692.0,519.0,1038.0,865.0,yellow,square
0.0,6.0,1.0,1.0,7.0,6.0,2397.8895639993425,1.0,1.0,phase_3,,,,,924.0,6.0,770.0,308.0,154.0,462.0,616.0,924.0,blue,triangle
0.0,8.0,4.0,1.0,7.0,1.0,2836.344249000831,1.0,1.0,phase_3,,,,,616.0,4.0,616.0,154.0,462.0,924.0,308.0,770.0,white,circle
0.0,2.0,1.0,0.0,7.0,2.0,1847.5832819995048,1.0,1.0,phase_3,,,,,519.0,3.0,346.0,519.0,692.0,865.0,173.0,1038.0,gray,cross
0.0,1.0,0.5,0.0,7.0,2.0,3225.8196729999327,1.0,1.0,phase_3,,,,,232.0,2.0,580.0,232.0,696.0,464.0,116.0,348.0,cyan,I
0.0,7.0,2.0,1.0,7.0,3.0,2248.1291519998194,1.0,1.0,phase_3,,,,,464.0,4.0,232.0,116.0,464.0,696.0,348.0,580.0,yellow,square
0.0,4.0,4.0,0.0,7.0,5.0,1838.7370929995088,1.0,1.0,phase_3,,,,,675.0,5.0,270.0,540.0,810.0,405.0,675.0,135.0,green,hexagon
0.0,3.0,2.0,0.0,7.0,2.0,2469.5044119998784,1.0,1.0,phase_3,,,,,768.0,4.0,1152.0,768.0,384.0,960.0,576.0,192.0,orange,diamond
0.0,6.0,1.0,1.0,7.0,3.0,2164.951370000381,1.0,1.0,phase_3,,,,,580.0,5.0,464.0,696.0,580.0,232.0,348.0,116.0,blue,triangle
0.0,2.0,1.0,0.0,7.0,3.0,1407.141163000233,2.0,1.0,phase_3,,,,,576.0,3.0,384.0,768.0,576.0,192.0,960.0,1152.0,gray,cross
0.0,1.0,0.5,0.0,7.0,4.0,1811.6253030002556,2.0,1.0,phase_3,,,,,346.0,2.0,173.0,519.0,865.0,346.0,692.0,1038.0,cyan,I
0.0,4.0,4.0,0.0,7.0,3.0,2069.710273000055,2.0,1.0,phase_3,,,,,462.0,3.0,924.0,154.0,462.0,308.0,770.0,616.0,green,hexagon
0.0,3.0,2.0,0.0,7.0,2.0,1547.4904379998409,2.0,1.0,phase_3,,,,,616.0,4.0,462.0,616.0,924.0,770.0,308.0,154.0,orange,diamond
0.0,4.0,4.0,0.0,7.0,2.0,1259.2007279999962,2.0,1.0,phase_3,,,,,519.0,3.0,173.0,519.0,865.0,346.0,692.0,1038.0,green,hexagon
0.0,6.0,1.0,1.0,7.0,4.0,2103.035106000789,2.0,1.0,phase_3,,,,,308.0,2.0,462.0,616.0,154.0,308.0,770.0,924.0,blue,triangle
0.0,1.0,0.5,0.0,7.0,4.0,2408.602626999709,2.0,1.0,phase_3,,,,,270.0,2.0,810.0,135.0,405.0,270.0,540.0,675.0,cyan,I
0.0,5.0,0.5,1.0,7.0,3.0,1436.5265450005609,2.0,1.0,phase_3,,,,,810.0,6.0,135.0,675.0,810.0,540.0,405.0,270.0,magenta,flipped triangle
0.0,1.0,0.5,0.0,7.0,4.0,1633.388231999561,2.0,1.0,phase_3,,,,,384.0,2.0,960.0,192.0,768.0,384.0,1152.0,576.0,cyan,I
0.0,8.0,4.0,1.0,7.0,6.0,1547.9338949999146,2.0,1.0,phase_3,,,,,768.0,4.0,1152.0,960.0,384.0,576.0,192.0,768.0,white,circle
0.0,5.0,0.5,1.0,7.0,5.0,1360.5084379996697,2.0,1.0,phase_3,,,,,384.0,2.0,960.0,768.0,576.0,192.0,384.0,1152.0,magenta,flipped triangle
0.0,3.0,2.0,0.0,7.0,3.0,1029.0642840000146,2.0,1.0,phase_3,,,,,519.0,3.0,692.0,1038.0,519.0,346.0,865.0,173.0,orange,diamond
0.0,2.0,1.0,0.0,7.0,1.0,1314.2002169997795,2.0,1.0,phase_3,,,,,308.0,2.0,308.0,616.0,924.0,154.0,770.0,462.0,gray,cross
0.0,1.0,0.5,0.0,7.0,3.0,1424.203235999812,2.0,1.0,phase_3,,,,,270.0,2.0,675.0,135.0,270.0,405.0,540.0,810.0,cyan,I
0.0,2.0,1.0,0.0,7.0,2.0,1169.4158880000032,2.0,1.0,phase_3,,,,,346.0,2.0,692.0,346.0,173.0,1038.0,865.0,519.0,gray,cross
0.0,3.0,2.0,0.0,7.0,1.0,2060.693849999552,2.0,1.0,phase_3,,,,,462.0,3.0,462.0,616.0,308.0,770.0,154.0,924.0,orange,diamond
0.0,4.0,4.0,0.0,7.0,5.0,1585.1136170003883,2.0,1.0,phase_3,,,,,405.0,3.0,810.0,270.0,135.0,675.0,405.0,540.0,green,hexagon
0.0,2.0,1.0,0.0,7.0,3.0,1178.3580840001378,2.0,1.0,phase_3,,,,,348.0,3.0,464.0,696.0,348.0,232.0,116.0,580.0,gray,cross
0.0,6.0,1.0,1.0,7.0,2.0,1511.1638789994686,2.0,1.0,phase_3,,,,,692.0,4.0,1038.0,692.0,865.0,173.0,519.0,346.0,blue,triangle
0.0,5.0,0.5,1.0,7.0,3.0,2572.448441999768,2.0,1.0,phase_3,,,,,865.0,5.0,1038.0,346.0,865.0,519.0,173.0,692.0,magenta,flipped triangle
0.0,6.0,1.0,1.0,7.0,4.0,1234.4845890002034,3.0,1.0,phase_3,,,,,696.0,6.0,348.0,464.0,232.0,696.0,580.0,116.0,blue,triangle
0.0,2.0,1.0,0.0,7.0,6.0,2178.523497000242,3.0,1.0,phase_3,,,,,384.0,2.0,1152.0,960.0,768.0,192.0,576.0,384.0,gray,cross
0.0,3.0,2.0,0.0,7.0,4.0,1530.0553289998788,3.0,1.0,phase_3,,,,,464.0,4.0,232.0,348.0,116.0,464.0,580.0,696.0,orange,diamond
0.0,4.0,4.0,0.0,7.0,2.0,2521.709720999752,3.0,1.0,phase_3,,,,,192.0,1.0,1152.0,192.0,960.0,576.0,768.0,384.0,green,hexagon
0.0,8.0,4.0,1.0,7.0,3.0,1300.526670999716,3.0,1.0,phase_3,,,,,519.0,3.0,346.0,1038.0,519.0,865.0,692.0,173.0,white,circle
0.0,3.0,2.0,0.0,7.0,3.0,1732.0041590000983,3.0,1.0,phase_3,,,,,270.0,2.0,675.0,810.0,270.0,405.0,135.0,540.0,orange,diamond
0.0,5.0,0.5,1.0,7.0,1.0,1743.8860189995466,3.0,1.0,phase_3,,,,,924.0,6.0,924.0,308.0,770.0,616.0,154.0,462.0,magenta,flipped triangle
0.0,7.0,2.0,1.0,7.0,3.0,2651.217423000162,3.0,1.0,phase_3,,,,,616.0,4.0,462.0,924.0,616.0,308.0,154.0,770.0,yellow,square
0.0,6.0,1.0,1.0,7.0,4.0,1935.403800000131,3.0,1.0,phase_3,,,,,405.0,3.0,540.0,675.0,270.0,405.0,810.0,135.0,blue,triangle
0.0,2.0,1.0,0.0,7.0,1.0,1411.1817029997835,3.0,1.0,phase_3,,,,,308.0,2.0,308.0,924.0,154.0,770.0,462.0,616.0,gray,cross
0.0,7.0,2.0,1.0,7.0,4.0,1880.3904039996269,3.0,1.0,phase_3,,,,,270.0,2.0,540.0,810.0,675.0,270.0,135.0,405.0,yellow,square
0.0,1.0,0.5,0.0,7.0,1.0,1546.5932019997126,3.0,1.0,phase_3,,,,,308.0,2.0,308.0,770.0,616.0,924.0,462.0,154.0,cyan,I
0.0,6.0,1.0,1.0,7.0,4.0,1521.3945109999258,3.0,1.0,phase_3,,,,,540.0,4.0,675.0,810.0,270.0,540.0,405.0,135.0,blue,triangle
0.0,6.0,1.0,1.0,7.0,4.0,1409.7632969996994,3.0,1.0,phase_3,,,,,576.0,3.0,192.0,1152.0,768.0,576.0,384.0,960.0,blue,triangle
0.0,4.0,4.0,0.0,7.0,6.0,1666.8737139998484,3.0,1.0,phase_3,,,,,384.0,2.0,192.0,1152.0,768.0,960.0,576.0,384.0,green,hexagon
0.0,7.0,2.0,1.0,7.0,2.0,1738.086899999871,3.0,1.0,phase_3,,,,,464.0,4.0,348.0,464.0,580.0,232.0,116.0,696.0,yellow,square
0.0,3.0,2.0,0.0,7.0,1.0,2251.9878610000887,3.0,1.0,phase_3,,,,,348.0,3.0,348.0,116.0,464.0,696.0,232.0,580.0,orange,diamond
0.0,7.0,2.0,1.0,7.0,4.0,1609.2548019996684,3.0,1.0,phase_3,,,,,308.0,2.0,154.0,616.0,924.0,308.0,770.0,462.0,yellow,square
0.0,1.0,0.5,0.0,7.0,1.0,1226.525359000334,3.0,1.0,phase_3,,,,,154.0,1.0,154.0,924.0,770.0,616.0,462.0,308.0,cyan,I
0.0,4.0,4.0,0.0,7.0,4.0,1021.662367999852,3.0,1.0,phase_3,,,,,348.0,3.0,696.0,232.0,580.0,348.0,464.0,116.0,green,hexagon
0.0,8.0,4.0,1.0,7.0,1.0,1418.6329519998253,4.0,1.0,phase_3,,,,,810.0,6.0,810.0,405.0,270.0,675.0,135.0,540.0,white,circle
0.0,8.0,4.0,1.0,7.0,5.0,1895.4735950001125,4.0,1.0,phase_3,,,,,924.0,6.0,770.0,616.0,154.0,308.0,924.0,462.0,white,circle
0.0,7.0,2.0,1.0,7.0,5.0,1076.142443999743,4.0,1.0,phase_3,,,,,405.0,3.0,135.0,540.0,810.0,675.0,405.0,270.0,yellow,square
0.0,8.0,4.0,1.0,7.0,4.0,1448.5125350001908,4.0,1.0,phase_3,,,,,810.0,6.0,270.0,540.0,405.0,810.0,675.0,135.0,white,circle
0.0,6.0,1.0,1.0,7.0,3.0,2069.9547539998093,4.0,1.0,phase_3,,,,,960.0,5.0,1152.0,192.0,960.0,576.0,768.0,384.0,blue,triangle
0.0,8.0,4.0,1.0,7.0,1.0,1629.305961000682,4.0,1.0,phase_3,,,,,1038.0,6.0,1038.0,519.0,865.0,173.0,346.0,692.0,white,circle
0.0,4.0,4.0,0.0,7.0,3.0,1346.0654609998528,4.0,1.0,phase_3,,,,,692.0,4.0,346.0,865.0,692.0,1038.0,173.0,519.0,green,hexagon
0.0,8.0,4.0,1.0,7.0,4.0,1372.6000389997353,4.0,1.0,phase_3,,,,,696.0,6.0,116.0,348.0,580.0,696.0,464.0,232.0,white,circle
0.0,7.0,2.0,1.0,7.0,1.0,1465.144183999655,4.0,1.0,phase_3,,,,,576.0,3.0,576.0,192.0,768.0,960.0,384.0,1152.0,yellow,square
0.0,3.0,2.0,0.0,7.0,6.0,1200.0950869996814,4.0,1.0,phase_3,,,,,540.0,4.0,675.0,810.0,270.0,405.0,135.0,540.0,orange,diamond
0.0,2.0,1.0,0.0,7.0,2.0,653.1495740000537,4.0,1.0,phase_3,,,,,135.0,1.0,270.0,135.0,675.0,405.0,540.0,810.0,gray,cross
0.0,5.0,0.5,1.0,7.0,4.0,1641.225664000558,4.0,1.0,phase_3,,,,,692.0,4.0,519.0,865.0,1038.0,692.0,346.0,173.0,magenta,flipped triangle
0.0,8.0,4.0,1.0,7.0,4.0,1344.0157470004124,4.0,1.0,phase_3,,,,,696.0,6.0,232.0,464.0,116.0,696.0,580.0,348.0,white,circle
0.0,4.0,4.0,0.0,7.0,1.0,1825.0148170000105,4.0,1.0,phase_3,,,,,308.0,2.0,308.0,770.0,462.0,154.0,616.0,924.0,green,hexagon
0.0,5.0,0.5,1.0,7.0,4.0,1420.024927000668,4.0,1.0,phase_3,,,,,616.0,4.0,308.0,154.0,924.0,616.0,770.0,462.0,magenta,flipped triangle
0.0,5.0,0.5,1.0,7.0,1.0,1115.9279780004,4.0,1.0,phase_3,,,,,675.0,5.0,675.0,270.0,810.0,135.0,405.0,540.0,magenta,flipped triangle
0.0,8.0,4.0,1.0,7.0,1.0,743.5837929997433,4.0,1.0,phase_3,,,,,576.0,3.0,576.0,960.0,192.0,384.0,1152.0,768.0,white,circle
0.0,5.0,0.5,1.0,7.0,6.0,1308.199570999932,4.0,1.0,phase_3,,,,,576.0,3.0,192.0,384.0,768.0,1152.0,960.0,576.0,magenta,flipped triangle
0.0,6.0,1.0,1.0,7.0,3.0,1160.1582020002752,4.0,1.0,phase_3,,,,,346.0,2.0,519.0,692.0,346.0,865.0,173.0,1038.0,blue,triangle
0.0,3.0,2.0,0.0,7.0,5.0,985.112602999834,4.0,1.0,phase_3,,,,,519.0,3.0,865.0,1038.0,346.0,173.0,519.0,692.0,orange,diamond
