raw_reward_magnitude,stim_reward,stepwise_reward_magnitude,paired_with_stopping,stim_location,response,reaction_time,block,num_trial_presentations,which_phase,stop_signal_trial_type,left_SSD,right_SSD,accuracy,chosen_bidding_amount,chosen_bidding_level,possible_bid_1,possible_bid_2,possible_bid_3,possible_bid_4,possible_bid_5,possible_bid_6,color_text,shape_text
645.0,3.0,3.0,0.0,4.0,4.0,463.3630720000496,1.0,1.0,phase_1,,,,,,,,,,,,,blue,diamond
347.0,6.0,2.0,1.0,3.0,3.0,427.0786929999985,1.0,1.0,phase_1,,,,,,,,,,,,,magenta,hexagon
637.0,7.0,3.0,1.0,4.0,4.0,498.3655359999943,1.0,1.0,phase_1,,,,,,,,,,,,,green,cross
344.0,2.0,2.0,0.0,2.0,2.0,586.0078229999885,1.0,1.0,phase_1,,,,,,,,,,,,,yellow,I
0.0,1.0,0.0,0.0,4.0,4.0,429.37539899998,1.0,1.0,phase_1,,,,,,,,,,,,,orange,square
1316.0,4.0,4.0,0.0,2.0,2.0,696.756454000024,1.0,1.0,phase_1,,,,,,,,,,,,,white,triangle
336.0,2.0,2.0,0.0,4.0,4.0,437.7047629999993,1.0,1.0,phase_1,,,,,,,,,,,,,yellow,I
665.0,7.0,3.0,1.0,4.0,4.0,418.6008369999854,1.0,1.0,phase_1,,,,,,,,,,,,,green,cross
651.0,3.0,3.0,0.0,4.0,4.0,429.7870850000436,1.0,1.0,phase_1,,,,,,,,,,,,,blue,diamond
336.0,6.0,2.0,1.0,3.0,3.0,418.9090309999983,1.0,1.0,phase_1,,,,,,,,,,,,,magenta,hexagon
1279.0,4.0,4.0,0.0,3.0,3.0,390.9542799999599,1.0,1.0,phase_1,,,,,,,,,,,,,white,triangle
324.0,6.0,2.0,1.0,2.0,2.0,598.8392799999929,1.0,1.0,phase_1,,,,,,,,,,,,,magenta,hexagon
168.0,1.0,1.0,0.0,1.0,1.0,457.3731549999706,1.0,2.0,phase_1,,,,,,,,,,,,,orange,square
331.0,6.0,2.0,1.0,4.0,4.0,419.1593459999581,1.0,1.0,phase_1,,,,,,,,,,,,,magenta,hexagon
327.0,6.0,2.0,1.0,1.0,1.0,614.7745609999902,1.0,1.0,phase_1,,,,,,,,,,,,,magenta,hexagon
0.0,1.0,0.0,0.0,4.0,4.0,503.1151950000208,1.0,1.0,phase_1,,,,,,,,,,,,,orange,square
0.0,6.0,0.0,1.0,2.0,2.0,381.7139010000119,1.0,1.0,phase_1,,,,,,,,,,,,,magenta,hexagon
0.0,8.0,0.0,1.0,4.0,4.0,429.1203909999694,1.0,1.0,phase_1,,,,,,,,,,,,,cyan,flipped triangle
159.0,1.0,1.0,0.0,3.0,3.0,382.4901109999814,1.0,1.0,phase_1,,,,,,,,,,,,,orange,square
635.0,3.0,3.0,0.0,2.0,2.0,523.4978669999464,1.0,1.0,phase_1,,,,,,,,,,,,,blue,diamond
347.0,2.0,2.0,0.0,2.0,2.0,484.4732290000024,1.0,1.0,phase_1,,,,,,,,,,,,,yellow,I
647.0,7.0,3.0,1.0,2.0,2.0,373.2940409999514,1.0,1.0,phase_1,,,,,,,,,,,,,green,cross
1322.0,4.0,4.0,0.0,1.0,1.0,428.7015250000081,1.0,2.0,phase_1,,,,,,,,,,,,,white,triangle
627.0,3.0,3.0,0.0,3.0,3.0,480.7399840000244,1.0,1.0,phase_1,,,,,,,,,,,,,blue,diamond
644.0,3.0,3.0,0.0,1.0,1.0,615.1147389999778,1.0,1.0,phase_1,,,,,,,,,,,,,blue,diamond
1322.0,8.0,4.0,1.0,3.0,3.0,455.7039340000415,1.0,1.0,phase_1,,,,,,,,,,,,,cyan,flipped triangle
644.0,7.0,3.0,1.0,4.0,4.0,549.8280199999499,1.0,1.0,phase_1,,,,,,,,,,,,,green,cross
1290.0,4.0,4.0,0.0,4.0,4.0,529.5070639999722,1.0,1.0,phase_1,,,,,,,,,,,,,white,triangle
177.0,5.0,1.0,1.0,4.0,4.0,540.7486940000013,1.0,1.0,phase_1,,,,,,,,,,,,,gray,circle
1279.0,8.0,4.0,1.0,3.0,3.0,389.9396290000254,1.0,1.0,phase_1,,,,,,,,,,,,,cyan,flipped triangle
142.0,5.0,1.0,1.0,4.0,4.0,503.351753000004,1.0,1.0,phase_1,,,,,,,,,,,,,gray,circle
0.0,5.0,0.0,1.0,3.0,3.0,409.2066409999688,1.0,1.0,phase_1,,,,,,,,,,,,,gray,circle
650.0,3.0,3.0,0.0,3.0,3.0,326.0527900000056,1.0,1.0,phase_1,,,,,,,,,,,,,blue,diamond
625.0,7.0,3.0,1.0,1.0,1.0,578.06623700003,1.0,1.0,phase_1,,,,,,,,,,,,,green,cross
173.0,5.0,1.0,1.0,4.0,4.0,474.2537490000131,1.0,1.0,phase_1,,,,,,,,,,,,,gray,circle
343.0,6.0,2.0,1.0,4.0,4.0,445.8464780000213,1.0,1.0,phase_1,,,,,,,,,,,,,magenta,hexagon
0.0,4.0,0.0,0.0,2.0,2.0,502.86017500002345,1.0,1.0,phase_1,,,,,,,,,,,,,white,triangle
350.0,6.0,2.0,1.0,1.0,1.0,539.8417020000466,1.0,1.0,phase_1,,,,,,,,,,,,,magenta,hexagon
635.0,7.0,3.0,1.0,2.0,2.0,668.3383949999779,1.0,1.0,phase_1,,,,,,,,,,,,,green,cross
0.0,1.0,0.0,0.0,3.0,3.0,466.2867389999974,1.0,1.0,phase_1,,,,,,,,,,,,,orange,square
655.0,3.0,3.0,0.0,1.0,1.0,334.7966840000254,1.0,1.0,phase_1,,,,,,,,,,,,,blue,diamond
326.0,6.0,2.0,1.0,4.0,4.0,585.5997649999836,1.0,1.0,phase_1,,,,,,,,,,,,,magenta,hexagon
319.0,6.0,2.0,1.0,2.0,2.0,539.1554160000283,1.0,1.0,phase_1,,,,,,,,,,,,,magenta,hexagon
330.0,2.0,2.0,0.0,1.0,1.0,399.7372739999605,1.0,1.0,phase_1,,,,,,,,,,,,,yellow,I
637.0,7.0,3.0,1.0,3.0,3.0,439.8260390000246,1.0,1.0,phase_1,,,,,,,,,,,,,green,cross
0.0,4.0,0.0,0.0,4.0,4.0,574.6809000000326,1.0,1.0,phase_1,,,,,,,,,,,,,white,triangle
341.0,2.0,2.0,0.0,3.0,3.0,437.1929740000269,1.0,1.0,phase_1,,,,,,,,,,,,,yellow,I
1299.0,8.0,4.0,1.0,4.0,4.0,539.4316799999501,1.0,1.0,phase_1,,,,,,,,,,,,,cyan,flipped triangle
625.0,3.0,3.0,0.0,3.0,3.0,439.6667869999646,1.0,1.0,phase_1,,,,,,,,,,,,,blue,diamond
637.0,3.0,3.0,0.0,1.0,1.0,521.789488999957,1.0,2.0,phase_1,,,,,,,,,,,,,blue,diamond
146.0,1.0,1.0,0.0,4.0,4.0,502.3742729999867,1.0,1.0,phase_1,,,,,,,,,,,,,orange,square
0.0,3.0,0.0,0.0,3.0,3.0,391.9665840000448,1.0,1.0,phase_1,,,,,,,,,,,,,blue,diamond
182.0,1.0,1.0,0.0,1.0,1.0,327.1591700000158,1.0,1.0,phase_1,,,,,,,,,,,,,orange,square
1318.0,8.0,4.0,1.0,1.0,1.0,390.6093479999981,1.0,1.0,phase_1,,,,,,,,,,,,,cyan,flipped triangle
0.0,3.0,0.0,0.0,1.0,1.0,316.561326999988,1.0,1.0,phase_1,,,,,,,,,,,,,blue,diamond
334.0,2.0,2.0,0.0,2.0,2.0,559.2221070000392,1.0,1.0,phase_1,,,,,,,,,,,,,yellow,I
161.0,5.0,1.0,1.0,1.0,1.0,540.3575899999851,1.0,1.0,phase_1,,,,,,,,,,,,,gray,circle
1291.0,8.0,4.0,1.0,3.0,3.0,467.1593959999995,1.0,1.0,phase_1,,,,,,,,,,,,,cyan,flipped triangle
0.0,5.0,0.0,1.0,4.0,4.0,707.6473429999623,1.0,1.0,phase_1,,,,,,,,,,,,,gray,circle
1290.0,8.0,4.0,1.0,4.0,4.0,484.426462999977,1.0,1.0,phase_1,,,,,,,,,,,,,cyan,flipped triangle
0.0,7.0,0.0,1.0,3.0,3.0,502.6191059999974,1.0,1.0,phase_1,,,,,,,,,,,,,green,cross
154.0,5.0,1.0,1.0,4.0,4.0,484.7295660000554,1.0,1.0,phase_1,,,,,,,,,,,,,gray,circle
1279.0,8.0,4.0,1.0,3.0,3.0,399.8740380000072,1.0,1.0,phase_1,,,,,,,,,,,,,cyan,flipped triangle
1286.0,8.0,4.0,1.0,4.0,4.0,410.4599219999727,1.0,1.0,phase_1,,,,,,,,,,,,,cyan,flipped triangle
171.0,5.0,1.0,1.0,3.0,3.0,419.767151999963,1.0,1.0,phase_1,,,,,,,,,,,,,gray,circle
0.0,6.0,0.0,1.0,2.0,2.0,662.0538769999484,1.0,1.0,phase_1,,,,,,,,,,,,,magenta,hexagon
0.0,3.0,0.0,0.0,2.0,2.0,485.2760910000597,1.0,1.0,phase_1,,,,,,,,,,,,,blue,diamond
0.0,7.0,0.0,1.0,3.0,3.0,466.3017970000283,1.0,1.0,phase_1,,,,,,,,,,,,,green,cross
341.0,6.0,2.0,1.0,1.0,1.0,409.5347369999444,1.0,1.0,phase_1,,,,,,,,,,,,,magenta,hexagon
1322.0,8.0,4.0,1.0,3.0,3.0,419.3474630000082,1.0,1.0,phase_1,,,,,,,,,,,,,cyan,flipped triangle
309.0,6.0,2.0,1.0,2.0,2.0,522.4432730000217,1.0,1.0,phase_1,,,,,,,,,,,,,magenta,hexagon
0.0,5.0,0.0,1.0,3.0,3.0,464.8665050000318,1.0,1.0,phase_1,,,,,,,,,,,,,gray,circle
1291.0,8.0,4.0,1.0,4.0,4.0,560.5305609999505,1.0,1.0,phase_1,,,,,,,,,,,,,cyan,flipped triangle
326.0,6.0,2.0,1.0,1.0,1.0,531.569668999964,1.0,1.0,phase_1,,,,,,,,,,,,,magenta,hexagon
0.0,5.0,0.0,1.0,3.0,3.0,447.8700969999636,1.0,1.0,phase_1,,,,,,,,,,,,,gray,circle
1301.0,8.0,4.0,1.0,2.0,2.0,579.9984210000275,1.0,1.0,phase_1,,,,,,,,,,,,,cyan,flipped triangle
309.0,2.0,2.0,0.0,2.0,2.0,429.1782930000636,1.0,1.0,phase_1,,,,,,,,,,,,,yellow,I
0.0,1.0,0.0,0.0,4.0,4.0,512.0817709999983,1.0,1.0,phase_1,,,,,,,,,,,,,orange,square
0.0,7.0,0.0,1.0,2.0,2.0,456.5338229999724,1.0,1.0,phase_1,,,,,,,,,,,,,green,cross
1283.0,4.0,4.0,0.0,2.0,2.0,383.2496960000071,1.0,1.0,phase_1,,,,,,,,,,,,,white,triangle
141.0,5.0,1.0,1.0,3.0,3.0,511.9324480000387,1.0,1.0,phase_1,,,,,,,,,,,,,gray,circle
139.0,1.0,1.0,0.0,2.0,2.0,503.1087590000425,1.0,1.0,phase_1,,,,,,,,,,,,,orange,square
163.0,1.0,1.0,0.0,1.0,1.0,456.6495130000021,1.0,1.0,phase_1,,,,,,,,,,,,,orange,square
183.0,1.0,1.0,0.0,2.0,2.0,504.56983499998387,1.0,1.0,phase_1,,,,,,,,,,,,,orange,square
0.0,7.0,0.0,1.0,3.0,3.0,417.9009350000342,1.0,1.0,phase_1,,,,,,,,,,,,,green,cross
1286.0,8.0,4.0,1.0,2.0,2.0,643.4329349999643,1.0,1.0,phase_1,,,,,,,,,,,,,cyan,flipped triangle
326.0,6.0,2.0,1.0,2.0,2.0,409.1952640000045,1.0,1.0,phase_1,,,,,,,,,,,,,magenta,hexagon
0.0,6.0,0.0,1.0,3.0,3.0,446.9598870000482,1.0,1.0,phase_1,,,,,,,,,,,,,magenta,hexagon
663.0,3.0,3.0,0.0,2.0,2.0,439.6466650000548,1.0,1.0,phase_1,,,,,,,,,,,,,blue,diamond
164.0,5.0,1.0,1.0,1.0,1.0,456.1784349999698,1.0,1.0,phase_1,,,,,,,,,,,,,gray,circle
326.0,2.0,2.0,0.0,2.0,2.0,485.4985369998985,1.0,1.0,phase_1,,,,,,,,,,,,,yellow,I
1284.0,4.0,4.0,0.0,1.0,1.0,456.7084999999906,1.0,1.0,phase_1,,,,,,,,,,,,,white,triangle
0.0,8.0,0.0,1.0,1.0,1.0,408.6436549999916,1.0,1.0,phase_1,,,,,,,,,,,,,cyan,flipped triangle
345.0,2.0,2.0,0.0,4.0,4.0,493.36090099996,1.0,1.0,phase_1,,,,,,,,,,,,,yellow,I
1296.0,4.0,4.0,0.0,4.0,4.0,457.4081840000872,1.0,1.0,phase_1,,,,,,,,,,,,,white,triangle
345.0,6.0,2.0,1.0,2.0,2.0,354.6433129999968,1.0,1.0,phase_1,,,,,,,,,,,,,magenta,hexagon
1317.0,8.0,4.0,1.0,1.0,1.0,567.6072499999236,1.0,1.0,phase_1,,,,,,,,,,,,,cyan,flipped triangle
1319.0,8.0,4.0,1.0,4.0,4.0,809.7611040000174,1.0,1.0,phase_1,,,,,,,,,,,,,cyan,flipped triangle
0.0,2.0,0.0,0.0,2.0,2.0,455.549640000072,1.0,1.0,phase_1,,,,,,,,,,,,,yellow,I
0.0,3.0,0.0,0.0,4.0,4.0,503.08009399998355,1.0,1.0,phase_1,,,,,,,,,,,,,blue,diamond
304.0,2.0,2.0,0.0,3.0,3.0,461.0525519999555,2.0,1.0,phase_1,,,,,,,,,,,,,yellow,I
315.0,2.0,2.0,0.0,3.0,3.0,393.7782549999156,2.0,1.0,phase_1,,,,,,,,,,,,,yellow,I
0.0,5.0,0.0,1.0,2.0,2.0,497.5282630000492,2.0,1.0,phase_1,,,,,,,,,,,,,gray,circle
1318.0,4.0,4.0,0.0,1.0,1.0,543.2641419999982,2.0,1.0,phase_1,,,,,,,,,,,,,white,triangle
154.0,1.0,1.0,0.0,2.0,2.0,458.4177680000039,2.0,1.0,phase_1,,,,,,,,,,,,,orange,square
0.0,4.0,0.0,0.0,2.0,2.0,372.9945200000202,2.0,1.0,phase_1,,,,,,,,,,,,,white,triangle
670.0,7.0,3.0,1.0,2.0,2.0,354.2522289999397,2.0,1.0,phase_1,,,,,,,,,,,,,green,cross
184.0,5.0,1.0,1.0,2.0,2.0,363.1819699999141,2.0,1.0,phase_1,,,,,,,,,,,,,gray,circle
315.0,2.0,2.0,0.0,1.0,1.0,343.2038259999217,2.0,1.0,phase_1,,,,,,,,,,,,,yellow,I
638.0,7.0,3.0,1.0,1.0,1.0,372.8923810000424,2.0,1.0,phase_1,,,,,,,,,,,,,green,cross
637.0,3.0,3.0,0.0,2.0,2.0,478.185413999995,2.0,1.0,phase_1,,,,,,,,,,,,,blue,diamond
0.0,4.0,0.0,0.0,2.0,2.0,372.1263339999723,2.0,1.0,phase_1,,,,,,,,,,,,,white,triangle
1320.0,4.0,4.0,0.0,1.0,1.0,437.2708810000176,2.0,1.0,phase_1,,,,,,,,,,,,,white,triangle
650.0,3.0,3.0,0.0,4.0,4.0,541.6646920000403,2.0,1.0,phase_1,,,,,,,,,,,,,blue,diamond
0.0,7.0,0.0,1.0,2.0,2.0,366.3225259999763,2.0,1.0,phase_1,,,,,,,,,,,,,green,cross
1322.0,4.0,4.0,0.0,3.0,3.0,457.7666749999025,2.0,1.0,phase_1,,,,,,,,,,,,,white,triangle
650.0,7.0,3.0,1.0,3.0,3.0,467.8118970000469,2.0,1.0,phase_1,,,,,,,,,,,,,green,cross
0.0,2.0,0.0,0.0,4.0,4.0,719.3560489999982,2.0,1.0,phase_1,,,,,,,,,,,,,yellow,I
175.0,1.0,1.0,0.0,3.0,3.0,430.6543739999142,2.0,1.0,phase_1,,,,,,,,,,,,,orange,square
0.0,1.0,0.0,0.0,3.0,3.0,354.9545480000233,2.0,1.0,phase_1,,,,,,,,,,,,,orange,square
350.0,2.0,2.0,0.0,2.0,2.0,437.9463340000029,2.0,1.0,phase_1,,,,,,,,,,,,,yellow,I
662.0,3.0,3.0,0.0,4.0,4.0,474.9193029999787,2.0,1.0,phase_1,,,,,,,,,,,,,blue,diamond
1291.0,4.0,4.0,0.0,4.0,4.0,476.0855139999194,2.0,1.0,phase_1,,,,,,,,,,,,,white,triangle
674.0,7.0,3.0,1.0,4.0,4.0,391.9902789999696,2.0,1.0,phase_1,,,,,,,,,,,,,green,cross
0.0,5.0,0.0,1.0,4.0,4.0,429.5577120000189,2.0,1.0,phase_1,,,,,,,,,,,,,gray,circle
183.0,5.0,1.0,1.0,2.0,2.0,457.8448519999938,2.0,1.0,phase_1,,,,,,,,,,,,,gray,circle
301.0,6.0,2.0,1.0,4.0,4.0,421.077074999971,2.0,1.0,phase_1,,,,,,,,,,,,,magenta,hexagon
345.0,6.0,2.0,1.0,4.0,4.0,384.1281950000166,2.0,1.0,phase_1,,,,,,,,,,,,,magenta,hexagon
304.0,6.0,2.0,1.0,1.0,1.0,494.6333940000613,2.0,1.0,phase_1,,,,,,,,,,,,,magenta,hexagon
655.0,7.0,3.0,1.0,3.0,3.0,410.2540110000063,2.0,1.0,phase_1,,,,,,,,,,,,,green,cross
647.0,7.0,3.0,1.0,1.0,1.0,503.87790899992524,2.0,1.0,phase_1,,,,,,,,,,,,,green,cross
1304.0,8.0,4.0,1.0,2.0,2.0,512.0284820000052,2.0,1.0,phase_1,,,,,,,,,,,,,cyan,flipped triangle
666.0,3.0,3.0,0.0,2.0,2.0,355.8073750000403,2.0,1.0,phase_1,,,,,,,,,,,,,blue,diamond
0.0,1.0,0.0,0.0,3.0,3.0,485.3365369999665,2.0,1.0,phase_1,,,,,,,,,,,,,orange,square
171.0,1.0,1.0,0.0,1.0,1.0,355.7319589999679,2.0,1.0,phase_1,,,,,,,,,,,,,orange,square
0.0,1.0,0.0,0.0,4.0,4.0,488.2964910000282,2.0,1.0,phase_1,,,,,,,,,,,,,orange,square
665.0,3.0,3.0,0.0,3.0,3.0,477.6989380000032,2.0,1.0,phase_1,,,,,,,,,,,,,blue,diamond
0.0,6.0,0.0,1.0,4.0,4.0,410.8996180000304,2.0,2.0,phase_1,,,,,,,,,,,,,magenta,hexagon
1296.0,8.0,4.0,1.0,2.0,2.0,540.223145999903,2.0,1.0,phase_1,,,,,,,,,,,,,cyan,flipped triangle
139.0,5.0,1.0,1.0,3.0,3.0,446.5012980000438,2.0,1.0,phase_1,,,,,,,,,,,,,gray,circle
155.0,1.0,1.0,0.0,1.0,1.0,484.2312939999829,2.0,1.0,phase_1,,,,,,,,,,,,,orange,square
341.0,6.0,2.0,1.0,1.0,1.0,560.6166509999184,2.0,1.0,phase_1,,,,,,,,,,,,,magenta,hexagon
1284.0,8.0,4.0,1.0,2.0,2.0,494.2338759999529,2.0,1.0,phase_1,,,,,,,,,,,,,cyan,flipped triangle
0.0,8.0,0.0,1.0,2.0,2.0,419.7419380000156,2.0,1.0,phase_1,,,,,,,,,,,,,cyan,flipped triangle
671.0,3.0,3.0,0.0,2.0,2.0,372.087863000047,2.0,1.0,phase_1,,,,,,,,,,,,,blue,diamond
146.0,5.0,1.0,1.0,2.0,2.0,429.1686620000519,2.0,1.0,phase_1,,,,,,,,,,,,,gray,circle
662.0,7.0,3.0,1.0,3.0,3.0,504.3851220000306,2.0,1.0,phase_1,,,,,,,,,,,,,green,cross
1316.0,8.0,4.0,1.0,2.0,2.0,523.4317340000416,2.0,1.0,phase_1,,,,,,,,,,,,,cyan,flipped triangle
0.0,5.0,0.0,1.0,4.0,4.0,540.2792200000022,2.0,1.0,phase_1,,,,,,,,,,,,,gray,circle
0.0,2.0,0.0,0.0,2.0,2.0,558.1102160000455,2.0,1.0,phase_1,,,,,,,,,,,,,yellow,I
1299.0,4.0,4.0,0.0,1.0,1.0,579.3798530000913,2.0,1.0,phase_1,,,,,,,,,,,,,white,triangle
1294.0,8.0,4.0,1.0,3.0,3.0,455.2857099999983,2.0,1.0,phase_1,,,,,,,,,,,,,cyan,flipped triangle
0.0,3.0,0.0,0.0,2.0,2.0,522.338383000033,2.0,1.0,phase_1,,,,,,,,,,,,,blue,diamond
1279.0,4.0,4.0,0.0,4.0,4.0,447.2168920000285,2.0,1.0,phase_1,,,,,,,,,,,,,white,triangle
171.0,5.0,1.0,1.0,2.0,2.0,355.4295259999662,2.0,1.0,phase_1,,,,,,,,,,,,,gray,circle
155.0,5.0,1.0,1.0,4.0,4.0,597.5650159999759,2.0,1.0,phase_1,,,,,,,,,,,,,gray,circle
177.0,5.0,1.0,1.0,1.0,1.0,673.1506739999986,2.0,1.0,phase_1,,,,,,,,,,,,,gray,circle
184.0,1.0,1.0,0.0,2.0,2.0,949.4098000000122,2.0,1.0,phase_1,,,,,,,,,,,,,orange,square
665.0,3.0,3.0,0.0,4.0,4.0,604.2292349999343,2.0,1.0,phase_1,,,,,,,,,,,,,blue,diamond
343.0,2.0,2.0,0.0,3.0,3.0,483.9672429999382,2.0,1.0,phase_1,,,,,,,,,,,,,yellow,I
179.0,5.0,1.0,1.0,2.0,2.0,345.1192229999833,2.0,1.0,phase_1,,,,,,,,,,,,,gray,circle
1294.0,4.0,4.0,0.0,3.0,3.0,464.756611000098,2.0,1.0,phase_1,,,,,,,,,,,,,white,triangle
1276.0,8.0,4.0,1.0,2.0,2.0,345.0823959999525,2.0,1.0,phase_1,,,,,,,,,,,,,cyan,flipped triangle
0.0,4.0,0.0,0.0,1.0,1.0,409.336876999987,2.0,1.0,phase_1,,,,,,,,,,,,,white,triangle
1286.0,4.0,4.0,0.0,2.0,2.0,456.788103000008,2.0,1.0,phase_1,,,,,,,,,,,,,white,triangle
336.0,6.0,2.0,1.0,2.0,2.0,465.6988469999987,2.0,1.0,phase_1,,,,,,,,,,,,,magenta,hexagon
632.0,7.0,3.0,1.0,3.0,3.0,595.2834820000135,2.0,1.0,phase_1,,,,,,,,,,,,,green,cross
630.0,3.0,3.0,0.0,1.0,1.0,532.3896589999322,2.0,1.0,phase_1,,,,,,,,,,,,,blue,diamond
0.0,3.0,0.0,0.0,3.0,3.0,514.9329019999414,2.0,1.0,phase_1,,,,,,,,,,,,,blue,diamond
637.0,7.0,3.0,1.0,3.0,3.0,450.533711999924,2.0,1.0,phase_1,,,,,,,,,,,,,green,cross
0.0,8.0,0.0,1.0,2.0,2.0,570.7502110000178,2.0,1.0,phase_1,,,,,,,,,,,,,cyan,flipped triangle
176.0,1.0,1.0,0.0,3.0,3.0,421.2616769999613,2.0,1.0,phase_1,,,,,,,,,,,,,orange,square
0.0,6.0,0.0,1.0,3.0,3.0,495.4976760000136,2.0,1.0,phase_1,,,,,,,,,,,,,magenta,hexagon
630.0,7.0,3.0,1.0,3.0,3.0,383.9676210000107,2.0,1.0,phase_1,,,,,,,,,,,,,green,cross
1306.0,8.0,4.0,1.0,2.0,2.0,347.2777360000236,2.0,1.0,phase_1,,,,,,,,,,,,,cyan,flipped triangle
1312.0,8.0,4.0,1.0,1.0,1.0,448.1733910000685,2.0,1.0,phase_1,,,,,,,,,,,,,cyan,flipped triangle
151.0,5.0,1.0,1.0,4.0,4.0,494.823823000047,2.0,1.0,phase_1,,,,,,,,,,,,,gray,circle
0.0,8.0,0.0,1.0,3.0,3.0,449.7607340000513,2.0,1.0,phase_1,,,,,,,,,,,,,cyan,flipped triangle
335.0,2.0,2.0,0.0,3.0,3.0,513.1838009999683,2.0,1.0,phase_1,,,,,,,,,,,,,yellow,I
144.0,1.0,1.0,0.0,3.0,3.0,419.5990129999245,2.0,1.0,phase_1,,,,,,,,,,,,,orange,square
1288.0,8.0,4.0,1.0,1.0,1.0,428.482577000068,2.0,1.0,phase_1,,,,,,,,,,,,,cyan,flipped triangle
0.0,8.0,0.0,1.0,1.0,1.0,393.4727320000775,2.0,1.0,phase_1,,,,,,,,,,,,,cyan,flipped triangle
146.0,5.0,1.0,1.0,2.0,2.0,356.3148439999395,2.0,1.0,phase_1,,,,,,,,,,,,,gray,circle
0.0,2.0,0.0,0.0,4.0,4.0,580.1407910000762,2.0,1.0,phase_1,,,,,,,,,,,,,yellow,I
0.0,6.0,0.0,1.0,1.0,1.0,588.8033469999527,2.0,1.0,phase_1,,,,,,,,,,,,,magenta,hexagon
627.0,7.0,3.0,1.0,2.0,2.0,317.8694279999945,2.0,1.0,phase_1,,,,,,,,,,,,,green,cross
0.0,1.0,0.0,0.0,1.0,1.0,558.9094429999477,2.0,1.0,phase_1,,,,,,,,,,,,,orange,square
158.0,5.0,1.0,1.0,3.0,3.0,552.50665199992,2.0,1.0,phase_1,,,,,,,,,,,,,gray,circle
149.0,5.0,1.0,1.0,3.0,3.0,523.790045999931,2.0,1.0,phase_1,,,,,,,,,,,,,gray,circle
1321.0,4.0,4.0,0.0,2.0,2.0,401.8237510000517,2.0,1.0,phase_1,,,,,,,,,,,,,white,triangle
674.0,3.0,3.0,0.0,3.0,3.0,456.5472560000216,2.0,1.0,phase_1,,,,,,,,,,,,,blue,diamond
667.0,3.0,3.0,0.0,3.0,3.0,402.5055450000536,2.0,1.0,phase_1,,,,,,,,,,,,,blue,diamond
645.0,7.0,3.0,1.0,2.0,2.0,439.4885850000491,2.0,1.0,phase_1,,,,,,,,,,,,,green,cross
667.0,7.0,3.0,1.0,1.0,1.0,613.1015529999786,2.0,2.0,phase_1,,,,,,,,,,,,,green,cross
1299.0,4.0,4.0,0.0,4.0,4.0,538.9377569999851,2.0,1.0,phase_1,,,,,,,,,,,,,white,triangle
0.0,1.0,0.0,0.0,4.0,4.0,565.7480009999745,2.0,1.0,phase_1,,,,,,,,,,,,,orange,square
0.0,2.0,0.0,0.0,3.0,3.0,494.7276649999139,2.0,1.0,phase_1,,,,,,,,,,,,,yellow,I
662.0,3.0,3.0,0.0,1.0,1.0,519.3900099999382,2.0,1.0,phase_1,,,,,,,,,,,,,blue,diamond
638.0,7.0,3.0,1.0,2.0,2.0,511.95374300004914,2.0,1.0,phase_1,,,,,,,,,,,,,green,cross
1288.0,4.0,4.0,0.0,4.0,4.0,454.5870450000393,2.0,1.0,phase_1,,,,,,,,,,,,,white,triangle
666.0,7.0,3.0,1.0,4.0,4.0,577.3150480001732,3.0,1.0,phase_1,,,,,,,,,,,,,green,cross
1321.0,8.0,4.0,1.0,3.0,3.0,436.4483570000175,3.0,1.0,phase_1,,,,,,,,,,,,,cyan,flipped triangle
667.0,7.0,3.0,1.0,2.0,2.0,473.6834410000483,3.0,1.0,phase_1,,,,,,,,,,,,,green,cross
176.0,1.0,1.0,0.0,3.0,3.0,446.4482440000665,3.0,1.0,phase_1,,,,,,,,,,,,,orange,square
650.0,7.0,3.0,1.0,1.0,1.0,464.637582000023,3.0,1.0,phase_1,,,,,,,,,,,,,green,cross
320.0,6.0,2.0,1.0,3.0,3.0,436.8773619999047,3.0,1.0,phase_1,,,,,,,,,,,,,magenta,hexagon
336.0,2.0,2.0,0.0,4.0,4.0,512.917077000111,3.0,1.0,phase_1,,,,,,,,,,,,,yellow,I
0.0,8.0,0.0,1.0,3.0,3.0,455.5250549999527,3.0,1.0,phase_1,,,,,,,,,,,,,cyan,flipped triangle
1291.0,4.0,4.0,0.0,2.0,2.0,502.85161900001185,3.0,1.0,phase_1,,,,,,,,,,,,,white,triangle
0.0,7.0,0.0,1.0,1.0,1.0,522.0134600001529,3.0,1.0,phase_1,,,,,,,,,,,,,green,cross
0.0,2.0,0.0,0.0,3.0,3.0,466.5217450001364,3.0,1.0,phase_1,,,,,,,,,,,,,yellow,I
318.0,6.0,2.0,1.0,4.0,4.0,539.413328999899,3.0,1.0,phase_1,,,,,,,,,,,,,magenta,hexagon
671.0,7.0,3.0,1.0,2.0,2.0,398.6545069999465,3.0,1.0,phase_1,,,,,,,,,,,,,green,cross
641.0,3.0,3.0,0.0,3.0,3.0,418.0182279999371,3.0,1.0,phase_1,,,,,,,,,,,,,blue,diamond
1300.0,4.0,4.0,0.0,4.0,4.0,623.9544400000341,3.0,1.0,phase_1,,,,,,,,,,,,,white,triangle
645.0,3.0,3.0,0.0,1.0,1.0,418.2438220000222,3.0,1.0,phase_1,,,,,,,,,,,,,blue,diamond
317.0,6.0,2.0,1.0,3.0,3.0,530.023440999912,3.0,1.0,phase_1,,,,,,,,,,,,,magenta,hexagon
637.0,3.0,3.0,0.0,4.0,4.0,511.31913199992596,3.0,1.0,phase_1,,,,,,,,,,,,,blue,diamond
318.0,2.0,2.0,0.0,2.0,2.0,491.3673040000503,3.0,1.0,phase_1,,,,,,,,,,,,,yellow,I
658.0,7.0,3.0,1.0,2.0,2.0,446.4723799999319,3.0,1.0,phase_1,,,,,,,,,,,,,green,cross
0.0,5.0,0.0,1.0,2.0,2.0,417.6462289999563,3.0,1.0,phase_1,,,,,,,,,,,,,gray,circle
0.0,6.0,0.0,1.0,3.0,3.0,716.3212699999804,3.0,1.0,phase_1,,,,,,,,,,,,,magenta,hexagon
1321.0,4.0,4.0,0.0,2.0,2.0,391.0121409999192,3.0,1.0,phase_1,,,,,,,,,,,,,white,triangle
144.0,5.0,1.0,1.0,3.0,3.0,381.4495130000068,3.0,1.0,phase_1,,,,,,,,,,,,,gray,circle
314.0,6.0,2.0,1.0,2.0,2.0,335.8240980001028,3.0,1.0,phase_1,,,,,,,,,,,,,magenta,hexagon
330.0,6.0,2.0,1.0,3.0,3.0,400.7230509998862,3.0,1.0,phase_1,,,,,,,,,,,,,magenta,hexagon
158.0,1.0,1.0,0.0,4.0,4.0,520.3680259999146,3.0,1.0,phase_1,,,,,,,,,,,,,orange,square
142.0,1.0,1.0,0.0,3.0,3.0,455.6087829998887,3.0,1.0,phase_1,,,,,,,,,,,,,orange,square
160.0,1.0,1.0,0.0,2.0,2.0,558.3487660001083,3.0,1.0,phase_1,,,,,,,,,,,,,orange,square
185.0,5.0,1.0,1.0,1.0,1.0,509.10744299994803,3.0,1.0,phase_1,,,,,,,,,,,,,gray,circle
0.0,4.0,0.0,0.0,1.0,1.0,491.9488269999874,3.0,1.0,phase_1,,,,,,,,,,,,,white,triangle
1317.0,4.0,4.0,0.0,3.0,3.0,455.5577389999143,3.0,1.0,phase_1,,,,,,,,,,,,,white,triangle
645.0,7.0,3.0,1.0,2.0,2.0,391.190650999988,3.0,1.0,phase_1,,,,,,,,,,,,,green,cross
0.0,7.0,0.0,1.0,1.0,1.0,473.8983120000739,3.0,1.0,phase_1,,,,,,,,,,,,,green,cross
310.0,6.0,2.0,1.0,3.0,3.0,372.3410989998683,3.0,1.0,phase_1,,,,,,,,,,,,,magenta,hexagon
144.0,5.0,1.0,1.0,3.0,3.0,477.7534410000044,3.0,1.0,phase_1,,,,,,,,,,,,,gray,circle
154.0,5.0,1.0,1.0,4.0,4.0,475.0624030000381,3.0,1.0,phase_1,,,,,,,,,,,,,gray,circle
626.0,3.0,3.0,0.0,2.0,2.0,372.5793419998808,3.0,1.0,phase_1,,,,,,,,,,,,,blue,diamond
638.0,3.0,3.0,0.0,4.0,4.0,558.6251290001201,3.0,1.0,phase_1,,,,,,,,,,,,,blue,diamond
0.0,3.0,0.0,0.0,2.0,2.0,363.5438620001423,3.0,1.0,phase_1,,,,,,,,,,,,,blue,diamond
1308.0,4.0,4.0,0.0,1.0,1.0,371.5808590000051,3.0,1.0,phase_1,,,,,,,,,,,,,white,triangle
1276.0,4.0,4.0,0.0,3.0,3.0,344.3552479998288,3.0,1.0,phase_1,,,,,,,,,,,,,white,triangle
170.0,5.0,1.0,1.0,2.0,2.0,352.999705000002,3.0,1.0,phase_1,,,,,,,,,,,,,gray,circle
176.0,5.0,1.0,1.0,3.0,3.0,373.2046850000188,3.0,1.0,phase_1,,,,,,,,,,,,,gray,circle
1320.0,8.0,4.0,1.0,2.0,2.0,381.1827029999222,3.0,1.0,phase_1,,,,,,,,,,,,,cyan,flipped triangle
651.0,7.0,3.0,1.0,3.0,3.0,399.0017159999297,3.0,1.0,phase_1,,,,,,,,,,,,,green,cross
665.0,7.0,3.0,1.0,1.0,1.0,540.071707999914,3.0,1.0,phase_1,,,,,,,,,,,,,green,cross
1306.0,8.0,4.0,1.0,1.0,1.0,382.435821999934,3.0,1.0,phase_1,,,,,,,,,,,,,cyan,flipped triangle
0.0,3.0,0.0,0.0,1.0,1.0,492.8658640001231,3.0,1.0,phase_1,,,,,,,,,,,,,blue,diamond
168.0,5.0,1.0,1.0,4.0,4.0,537.8810420002083,3.0,1.0,phase_1,,,,,,,,,,,,,gray,circle
171.0,1.0,1.0,0.0,2.0,2.0,371.251741000151,3.0,1.0,phase_1,,,,,,,,,,,,,orange,square
138.0,5.0,1.0,1.0,1.0,1.0,438.4078489999865,3.0,1.0,phase_1,,,,,,,,,,,,,gray,circle
0.0,2.0,0.0,0.0,3.0,3.0,568.0981020000218,3.0,2.0,phase_1,,,,,,,,,,,,,yellow,I
314.0,6.0,2.0,1.0,3.0,3.0,380.1316610001777,3.0,1.0,phase_1,,,,,,,,,,,,,magenta,hexagon
671.0,7.0,3.0,1.0,4.0,4.0,687.2396589999425,3.0,1.0,phase_1,,,,,,,,,,,,,green,cross
309.0,6.0,2.0,1.0,2.0,2.0,399.7024020000026,3.0,1.0,phase_1,,,,,,,,,,,,,magenta,hexagon
1311.0,8.0,4.0,1.0,4.0,4.0,408.2230679998702,3.0,1.0,phase_1,,,,,,,,,,,,,cyan,flipped triangle
0.0,4.0,0.0,0.0,3.0,3.0,409.9793380000847,3.0,1.0,phase_1,,,,,,,,,,,,,white,triangle
0.0,7.0,0.0,1.0,1.0,1.0,408.721635999882,3.0,1.0,phase_1,,,,,,,,,,,,,green,cross
641.0,7.0,3.0,1.0,4.0,4.0,521.4676509999663,3.0,1.0,phase_1,,,,,,,,,,,,,green,cross
185.0,1.0,1.0,0.0,2.0,2.0,445.974981000063,3.0,1.0,phase_1,,,,,,,,,,,,,orange,square
326.0,2.0,2.0,0.0,4.0,4.0,437.7172140000311,3.0,1.0,phase_1,,,,,,,,,,,,,yellow,I
1295.0,4.0,4.0,0.0,1.0,1.0,457.3845479999363,3.0,1.0,phase_1,,,,,,,,,,,,,white,triangle
640.0,7.0,3.0,1.0,4.0,4.0,464.7595399999318,3.0,1.0,phase_1,,,,,,,,,,,,,green,cross
144.0,1.0,1.0,0.0,4.0,4.0,521.1510880001242,3.0,1.0,phase_1,,,,,,,,,,,,,orange,square
0.0,4.0,0.0,0.0,3.0,3.0,659.800138999799,3.0,1.0,phase_1,,,,,,,,,,,,,white,triangle
0.0,4.0,0.0,0.0,2.0,2.0,455.430288000116,3.0,1.0,phase_1,,,,,,,,,,,,,white,triangle
655.0,3.0,3.0,0.0,1.0,1.0,513.8845559999936,3.0,1.0,phase_1,,,,,,,,,,,,,blue,diamond
0.0,6.0,0.0,1.0,4.0,4.0,492.7304190000541,3.0,1.0,phase_1,,,,,,,,,,,,,magenta,hexagon
0.0,3.0,0.0,0.0,2.0,2.0,483.1956670000181,3.0,1.0,phase_1,,,,,,,,,,,,,blue,diamond
168.0,1.0,1.0,0.0,2.0,2.0,438.0415109999376,3.0,1.0,phase_1,,,,,,,,,,,,,orange,square
335.0,6.0,2.0,1.0,2.0,2.0,409.5397060000323,3.0,1.0,phase_1,,,,,,,,,,,,,magenta,hexagon
182.0,5.0,1.0,1.0,4.0,4.0,512.9454479999822,3.0,1.0,phase_1,,,,,,,,,,,,,gray,circle
177.0,1.0,1.0,0.0,4.0,4.0,496.8833989998984,3.0,1.0,phase_1,,,,,,,,,,,,,orange,square
1321.0,4.0,4.0,0.0,3.0,3.0,538.5616209998716,3.0,1.0,phase_1,,,,,,,,,,,,,white,triangle
0.0,2.0,0.0,0.0,1.0,1.0,548.1933179999032,3.0,1.0,phase_1,,,,,,,,,,,,,yellow,I
1278.0,8.0,4.0,1.0,3.0,3.0,427.1562159999575,3.0,1.0,phase_1,,,,,,,,,,,,,cyan,flipped triangle
163.0,5.0,1.0,1.0,1.0,1.0,617.2628680001253,3.0,1.0,phase_1,,,,,,,,,,,,,gray,circle
145.0,5.0,1.0,1.0,1.0,1.0,363.6917000001176,3.0,1.0,phase_1,,,,,,,,,,,,,gray,circle
154.0,1.0,1.0,0.0,4.0,4.0,427.9737099998328,3.0,1.0,phase_1,,,,,,,,,,,,,orange,square
173.0,1.0,1.0,0.0,4.0,4.0,706.7916379999133,3.0,1.0,phase_1,,,,,,,,,,,,,orange,square
327.0,2.0,2.0,0.0,1.0,1.0,519.68029700015,3.0,1.0,phase_1,,,,,,,,,,,,,yellow,I
628.0,7.0,3.0,1.0,4.0,4.0,474.4302470001003,3.0,1.0,phase_1,,,,,,,,,,,,,green,cross
1308.0,8.0,4.0,1.0,4.0,4.0,486.5356090001569,3.0,1.0,phase_1,,,,,,,,,,,,,cyan,flipped triangle
335.0,2.0,2.0,0.0,1.0,1.0,511.26028699991366,3.0,1.0,phase_1,,,,,,,,,,,,,yellow,I
0.0,5.0,0.0,1.0,4.0,4.0,474.6825770000669,3.0,1.0,phase_1,,,,,,,,,,,,,gray,circle
0.0,8.0,0.0,1.0,1.0,1.0,371.7220759999691,3.0,1.0,phase_1,,,,,,,,,,,,,cyan,flipped triangle
1295.0,8.0,4.0,1.0,1.0,1.0,353.3397220001006,3.0,1.0,phase_1,,,,,,,,,,,,,cyan,flipped triangle
1295.0,8.0,4.0,1.0,3.0,3.0,465.2960589999111,3.0,1.0,phase_1,,,,,,,,,,,,,cyan,flipped triangle
317.0,6.0,2.0,1.0,3.0,3.0,382.762312000068,3.0,1.0,phase_1,,,,,,,,,,,,,magenta,hexagon
326.0,2.0,2.0,0.0,1.0,1.0,428.0779829998664,3.0,1.0,phase_1,,,,,,,,,,,,,yellow,I
184.0,5.0,1.0,1.0,4.0,4.0,464.9164970001038,3.0,1.0,phase_1,,,,,,,,,,,,,gray,circle
141.0,1.0,1.0,0.0,4.0,4.0,410.7930860000124,3.0,1.0,phase_1,,,,,,,,,,,,,orange,square
1278.0,4.0,4.0,0.0,3.0,3.0,585.8957929999633,3.0,1.0,phase_1,,,,,,,,,,,,,white,triangle
655.0,3.0,3.0,0.0,3.0,3.0,464.7991639999418,3.0,1.0,phase_1,,,,,,,,,,,,,blue,diamond
168.0,5.0,1.0,1.0,2.0,2.0,633.9600020000944,3.0,1.0,phase_1,,,,,,,,,,,,,gray,circle
310.0,2.0,2.0,0.0,1.0,1.0,473.0352489998495,3.0,1.0,phase_1,,,,,,,,,,,,,yellow,I
1312.0,4.0,4.0,0.0,2.0,2.0,380.5881410000893,3.0,1.0,phase_1,,,,,,,,,,,,,white,triangle
632.0,3.0,3.0,0.0,2.0,2.0,353.8084730000719,3.0,1.0,phase_1,,,,,,,,,,,,,blue,diamond
344.0,6.0,2.0,1.0,3.0,3.0,566.9905769998422,3.0,1.0,phase_1,,,,,,,,,,,,,magenta,hexagon
326.0,6.0,2.0,1.0,1.0,1.0,557.2385579998809,4.0,1.0,phase_1,,,,,,,,,,,,,magenta,hexagon
1321.0,8.0,4.0,1.0,1.0,1.0,429.1780210000979,4.0,1.0,phase_1,,,,,,,,,,,,,cyan,flipped triangle
638.0,3.0,3.0,0.0,3.0,3.0,456.738912000219,4.0,1.0,phase_1,,,,,,,,,,,,,blue,diamond
655.0,7.0,3.0,1.0,4.0,4.0,641.5483189998668,4.0,1.0,phase_1,,,,,,,,,,,,,green,cross
1321.0,8.0,4.0,1.0,4.0,4.0,502.10801499997615,4.0,1.0,phase_1,,,,,,,,,,,,,cyan,flipped triangle
315.0,2.0,2.0,0.0,4.0,4.0,409.4564869999431,4.0,1.0,phase_1,,,,,,,,,,,,,yellow,I
670.0,3.0,3.0,0.0,3.0,3.0,398.1905109999388,4.0,1.0,phase_1,,,,,,,,,,,,,blue,diamond
0.0,2.0,0.0,0.0,2.0,2.0,559.83550499991,4.0,1.0,phase_1,,,,,,,,,,,,,yellow,I
335.0,6.0,2.0,1.0,1.0,1.0,549.0437519999887,4.0,1.0,phase_1,,,,,,,,,,,,,magenta,hexagon
1278.0,8.0,4.0,1.0,4.0,4.0,456.9393739998304,4.0,1.0,phase_1,,,,,,,,,,,,,cyan,flipped triangle
0.0,4.0,0.0,0.0,1.0,1.0,401.1673879999762,4.0,1.0,phase_1,,,,,,,,,,,,,white,triangle
332.0,6.0,2.0,1.0,1.0,1.0,427.6057529998525,4.0,1.0,phase_1,,,,,,,,,,,,,magenta,hexagon
151.0,1.0,1.0,0.0,3.0,3.0,502.63748299994404,4.0,1.0,phase_1,,,,,,,,,,,,,orange,square
1295.0,4.0,4.0,0.0,1.0,1.0,448.3822939998845,4.0,1.0,phase_1,,,,,,,,,,,,,white,triangle
309.0,2.0,2.0,0.0,1.0,1.0,381.6068490000361,4.0,1.0,phase_1,,,,,,,,,,,,,yellow,I
1301.0,4.0,4.0,0.0,3.0,3.0,371.7393069998707,4.0,1.0,phase_1,,,,,,,,,,,,,white,triangle
323.0,6.0,2.0,1.0,4.0,4.0,537.744517999954,4.0,1.0,phase_1,,,,,,,,,,,,,magenta,hexagon
184.0,1.0,1.0,0.0,2.0,2.0,391.8642290000207,4.0,1.0,phase_1,,,,,,,,,,,,,orange,square
0.0,6.0,0.0,1.0,3.0,3.0,417.4891959999058,4.0,1.0,phase_1,,,,,,,,,,,,,magenta,hexagon
302.0,6.0,2.0,1.0,4.0,4.0,531.0243789999731,4.0,1.0,phase_1,,,,,,,,,,,,,magenta,hexagon
331.0,2.0,2.0,0.0,2.0,2.0,521.8627050001032,4.0,1.0,phase_1,,,,,,,,,,,,,yellow,I
138.0,1.0,1.0,0.0,1.0,1.0,483.4011139998893,4.0,1.0,phase_1,,,,,,,,,,,,,orange,square
1307.0,4.0,4.0,0.0,4.0,4.0,457.8585639999346,4.0,1.0,phase_1,,,,,,,,,,,,,white,triangle
663.0,7.0,3.0,1.0,1.0,1.0,420.0233149999803,4.0,1.0,phase_1,,,,,,,,,,,,,green,cross
317.0,2.0,2.0,0.0,3.0,3.0,438.110005999988,4.0,1.0,phase_1,,,,,,,,,,,,,yellow,I
0.0,2.0,0.0,0.0,4.0,4.0,503.76916499999425,4.0,1.0,phase_1,,,,,,,,,,,,,yellow,I
159.0,5.0,1.0,1.0,3.0,3.0,530.7677360001435,4.0,1.0,phase_1,,,,,,,,,,,,,gray,circle
314.0,2.0,2.0,0.0,2.0,2.0,400.5146239999249,4.0,1.0,phase_1,,,,,,,,,,,,,yellow,I
1300.0,8.0,4.0,1.0,3.0,3.0,531.0263110000051,4.0,1.0,phase_1,,,,,,,,,,,,,cyan,flipped triangle
314.0,6.0,2.0,1.0,2.0,2.0,428.7106350000158,4.0,1.0,phase_1,,,,,,,,,,,,,magenta,hexagon
161.0,1.0,1.0,0.0,3.0,3.0,391.5023689999088,4.0,1.0,phase_1,,,,,,,,,,,,,orange,square
626.0,7.0,3.0,1.0,1.0,1.0,430.5960230001346,4.0,1.0,phase_1,,,,,,,,,,,,,green,cross
665.0,7.0,3.0,1.0,3.0,3.0,382.4472930000411,4.0,1.0,phase_1,,,,,,,,,,,,,green,cross
655.0,7.0,3.0,1.0,1.0,1.0,409.6073630000774,4.0,1.0,phase_1,,,,,,,,,,,,,green,cross
159.0,5.0,1.0,1.0,3.0,3.0,419.8202490001677,4.0,1.0,phase_1,,,,,,,,,,,,,gray,circle
323.0,2.0,2.0,0.0,1.0,1.0,418.8552949999575,4.0,1.0,phase_1,,,,,,,,,,,,,yellow,I
145.0,1.0,1.0,0.0,4.0,4.0,408.9966620001632,4.0,1.0,phase_1,,,,,,,,,,,,,orange,square
667.0,3.0,3.0,0.0,2.0,2.0,363.1930740000371,4.0,1.0,phase_1,,,,,,,,,,,,,blue,diamond
175.0,5.0,1.0,1.0,1.0,1.0,484.7318309998627,4.0,1.0,phase_1,,,,,,,,,,,,,gray,circle
146.0,1.0,1.0,0.0,3.0,3.0,483.4038310000323,4.0,1.0,phase_1,,,,,,,,,,,,,orange,square
170.0,1.0,1.0,0.0,4.0,4.0,447.4954970000908,4.0,1.0,phase_1,,,,,,,,,,,,,orange,square
1286.0,4.0,4.0,0.0,3.0,3.0,484.1887840000254,4.0,1.0,phase_1,,,,,,,,,,,,,white,triangle
332.0,2.0,2.0,0.0,4.0,4.0,437.7179680000154,4.0,1.0,phase_1,,,,,,,,,,,,,yellow,I
647.0,3.0,3.0,0.0,4.0,4.0,354.3327780000709,4.0,1.0,phase_1,,,,,,,,,,,,,blue,diamond
334.0,6.0,2.0,1.0,3.0,3.0,372.8971109999293,4.0,1.0,phase_1,,,,,,,,,,,,,magenta,hexagon
665.0,3.0,3.0,0.0,4.0,4.0,410.4411559999334,4.0,1.0,phase_1,,,,,,,,,,,,,blue,diamond
315.0,6.0,2.0,1.0,4.0,4.0,344.4542680001632,4.0,1.0,phase_1,,,,,,,,,,,,,magenta,hexagon
0.0,5.0,0.0,1.0,2.0,2.0,622.2786729999825,4.0,1.0,phase_1,,,,,,,,,,,,,gray,circle
0.0,6.0,0.0,1.0,3.0,3.0,381.642821000014,4.0,1.0,phase_1,,,,,,,,,,,,,magenta,hexagon
1306.0,4.0,4.0,0.0,2.0,2.0,530.3948039997977,4.0,1.0,phase_1,,,,,,,,,,,,,white,triangle
1309.0,4.0,4.0,0.0,2.0,2.0,373.6437600000499,4.0,1.0,phase_1,,,,,,,,,,,,,white,triangle
314.0,2.0,2.0,0.0,3.0,3.0,538.4838180000315,4.0,1.0,phase_1,,,,,,,,,,,,,yellow,I
0.0,3.0,0.0,0.0,4.0,4.0,622.9652820002229,4.0,1.0,phase_1,,,,,,,,,,,,,blue,diamond
655.0,7.0,3.0,1.0,1.0,1.0,521.8403670000953,4.0,1.0,phase_1,,,,,,,,,,,,,green,cross
662.0,7.0,3.0,1.0,3.0,3.0,400.8631340000192,4.0,1.0,phase_1,,,,,,,,,,,,,green,cross
628.0,3.0,3.0,0.0,2.0,2.0,521.8353010000101,4.0,1.0,phase_1,,,,,,,,,,,,,blue,diamond
0.0,7.0,0.0,1.0,3.0,3.0,410.4589319999832,4.0,1.0,phase_1,,,,,,,,,,,,,green,cross
671.0,3.0,3.0,0.0,4.0,4.0,531.3491089998479,4.0,1.0,phase_1,,,,,,,,,,,,,blue,diamond
1278.0,4.0,4.0,0.0,1.0,1.0,494.5880149998629,4.0,1.0,phase_1,,,,,,,,,,,,,white,triangle
164.0,1.0,1.0,0.0,1.0,1.0,455.1729760000853,4.0,1.0,phase_1,,,,,,,,,,,,,orange,square
315.0,6.0,2.0,1.0,4.0,4.0,437.9825359999358,4.0,1.0,phase_1,,,,,,,,,,,,,magenta,hexagon
0.0,1.0,0.0,0.0,1.0,1.0,447.2342550000121,4.0,1.0,phase_1,,,,,,,,,,,,,orange,square
155.0,1.0,1.0,0.0,3.0,3.0,383.5245699999632,4.0,1.0,phase_1,,,,,,,,,,,,,orange,square
155.0,5.0,1.0,1.0,1.0,1.0,502.62052500011123,4.0,1.0,phase_1,,,,,,,,,,,,,gray,circle
176.0,5.0,1.0,1.0,2.0,2.0,502.8974130000279,4.0,1.0,phase_1,,,,,,,,,,,,,gray,circle
149.0,5.0,1.0,1.0,2.0,2.0,410.9374170000137,4.0,1.0,phase_1,,,,,,,,,,,,,gray,circle
345.0,2.0,2.0,0.0,4.0,4.0,421.0258690000046,4.0,1.0,phase_1,,,,,,,,,,,,,yellow,I
317.0,2.0,2.0,0.0,1.0,1.0,409.9339940000845,4.0,1.0,phase_1,,,,,,,,,,,,,yellow,I
315.0,6.0,2.0,1.0,1.0,1.0,429.2133060000651,4.0,1.0,phase_1,,,,,,,,,,,,,magenta,hexagon
1319.0,4.0,4.0,0.0,4.0,4.0,475.1867830000265,4.0,1.0,phase_1,,,,,,,,,,,,,white,triangle
1311.0,4.0,4.0,0.0,1.0,1.0,446.1897359999511,4.0,1.0,phase_1,,,,,,,,,,,,,white,triangle
324.0,2.0,2.0,0.0,3.0,3.0,511.2079600000925,4.0,1.0,phase_1,,,,,,,,,,,,,yellow,I
658.0,3.0,3.0,0.0,2.0,2.0,437.3588369999197,4.0,1.0,phase_1,,,,,,,,,,,,,blue,diamond
341.0,2.0,2.0,0.0,3.0,3.0,436.9694069998786,4.0,1.0,phase_1,,,,,,,,,,,,,yellow,I
0.0,8.0,0.0,1.0,3.0,3.0,372.928075000118,4.0,1.0,phase_1,,,,,,,,,,,,,cyan,flipped triangle
314.0,2.0,2.0,0.0,2.0,2.0,421.3486539999849,4.0,1.0,phase_1,,,,,,,,,,,,,yellow,I
149.0,1.0,1.0,0.0,1.0,1.0,549.8882399999729,4.0,2.0,phase_1,,,,,,,,,,,,,orange,square
655.0,3.0,3.0,0.0,1.0,1.0,361.9871599998987,4.0,1.0,phase_1,,,,,,,,,,,,,blue,diamond
1281.0,4.0,4.0,0.0,4.0,4.0,465.3156399999716,4.0,1.0,phase_1,,,,,,,,,,,,,white,triangle
149.0,1.0,1.0,0.0,1.0,1.0,438.4426890001123,4.0,1.0,phase_1,,,,,,,,,,,,,orange,square
640.0,3.0,3.0,0.0,1.0,1.0,428.0074529999638,4.0,1.0,phase_1,,,,,,,,,,,,,blue,diamond
1306.0,4.0,4.0,0.0,3.0,3.0,382.4848410001777,4.0,1.0,phase_1,,,,,,,,,,,,,white,triangle
1304.0,4.0,4.0,0.0,2.0,2.0,392.1479719999752,4.0,1.0,phase_1,,,,,,,,,,,,,white,triangle
179.0,1.0,1.0,0.0,4.0,4.0,509.31142400008866,4.0,1.0,phase_1,,,,,,,,,,,,,orange,square
1283.0,8.0,4.0,1.0,1.0,1.0,487.5496350000503,4.0,1.0,phase_1,,,,,,,,,,,,,cyan,flipped triangle
326.0,2.0,2.0,0.0,1.0,1.0,382.1620960000018,4.0,1.0,phase_1,,,,,,,,,,,,,yellow,I
1299.0,8.0,4.0,1.0,4.0,4.0,483.8496960001066,4.0,1.0,phase_1,,,,,,,,,,,,,cyan,flipped triangle
319.0,2.0,2.0,0.0,4.0,4.0,464.3884719998823,4.0,1.0,phase_1,,,,,,,,,,,,,yellow,I
302.0,2.0,2.0,0.0,3.0,3.0,474.1351840000334,4.0,1.0,phase_1,,,,,,,,,,,,,yellow,I
647.0,3.0,3.0,0.0,1.0,1.0,540.0340919998143,4.0,1.0,phase_1,,,,,,,,,,,,,blue,diamond
177.0,1.0,1.0,0.0,1.0,1.0,521.1183390001679,4.0,1.0,phase_1,,,,,,,,,,,,,orange,square
0.0,7.0,0.0,1.0,2.0,2.0,474.4955639998807,4.0,1.0,phase_1,,,,,,,,,,,,,green,cross
0.0,8.0,0.0,1.0,4.0,4.0,475.4820139999083,4.0,1.0,phase_1,,,,,,,,,,,,,cyan,flipped triangle
1307.0,8.0,4.0,1.0,1.0,1.0,559.4438650000484,4.0,1.0,phase_1,,,,,,,,,,,,,cyan,flipped triangle
301.0,2.0,2.0,0.0,4.0,4.0,468.7221789999967,4.0,1.0,phase_1,,,,,,,,,,,,,yellow,I
320.0,2.0,2.0,0.0,4.0,4.0,494.9005350001698,4.0,1.0,phase_1,,,,,,,,,,,,,yellow,I
159.0,1.0,1.0,0.0,2.0,2.0,624.0452689999074,4.0,1.0,phase_1,,,,,,,,,,,,,orange,square
160.0,5.0,1.0,1.0,1.0,1.0,624.2498809999688,4.0,2.0,phase_1,,,,,,,,,,,,,gray,circle
1281.0,8.0,4.0,1.0,2.0,2.0,531.4620260000993,4.0,1.0,phase_1,,,,,,,,,,,,,cyan,flipped triangle
1309.0,8.0,4.0,1.0,1.0,1.0,371.1953449999328,4.0,1.0,phase_1,,,,,,,,,,,,,cyan,flipped triangle
0.0,3.0,3.0,0.0,5.0,5.0,599.6033939998142,1.0,1.0,phase_2,go,250.0,250.0,1.0,,,,,,,,,blue,diamond
0.0,6.0,2.0,1.0,5.0,0.0,0.0,1.0,1.0,phase_2,stop,250.0,250.0,4.0,,,,,,,,,magenta,hexagon
0.0,5.0,1.0,1.0,5.0,5.0,639.6070430000691,1.0,1.0,phase_2,stop,300.0,250.0,3.0,,,,,,,,,gray,circle
0.0,6.0,2.0,1.0,5.0,0.0,0.0,1.0,1.0,phase_2,stop,250.0,250.0,4.0,,,,,,,,,magenta,hexagon
0.0,6.0,2.0,1.0,5.0,5.0,403.6093030001666,1.0,1.0,phase_2,go,300.0,250.0,1.0,,,,,,,,,magenta,hexagon
0.0,1.0,1.0,0.0,5.0,5.0,365.686783000001,1.0,1.0,phase_2,go,300.0,250.0,1.0,,,,,,,,,orange,square
0.0,8.0,4.0,1.0,6.0,0.0,0.0,1.0,1.0,phase_2,stop,300.0,250.0,4.0,,,,,,,,,cyan,flipped triangle
0.0,4.0,4.0,0.0,6.0,6.0,739.0953789999912,1.0,1.0,phase_2,go,300.0,300.0,1.0,,,,,,,,,white,triangle
0.0,7.0,3.0,1.0,6.0,6.0,406.2254119999124,1.0,1.0,phase_2,stop,300.0,300.0,3.0,,,,,,,,,green,cross
0.0,1.0,1.0,0.0,5.0,5.0,757.1080929999425,1.0,1.0,phase_2,go,300.0,250.0,1.0,,,,,,,,,orange,square
0.0,4.0,4.0,0.0,5.0,5.0,516.6704810001193,1.0,1.0,phase_2,go,300.0,250.0,1.0,,,,,,,,,white,triangle
0.0,3.0,3.0,0.0,5.0,5.0,721.4919749999353,1.0,1.0,phase_2,go,300.0,250.0,1.0,,,,,,,,,blue,diamond
0.0,8.0,4.0,1.0,6.0,0.0,0.0,1.0,1.0,phase_2,stop,300.0,250.0,4.0,,,,,,,,,cyan,flipped triangle
0.0,3.0,3.0,0.0,6.0,6.0,692.6526059999105,1.0,1.0,phase_2,go,300.0,300.0,1.0,,,,,,,,,blue,diamond
0.0,6.0,2.0,1.0,6.0,6.0,403.69578800005,1.0,1.0,phase_2,stop,300.0,300.0,3.0,,,,,,,,,magenta,hexagon
0.0,7.0,3.0,1.0,5.0,0.0,0.0,1.0,1.0,phase_2,stop,300.0,250.0,4.0,,,,,,,,,green,cross
0.0,7.0,3.0,1.0,5.0,5.0,618.3458049999899,1.0,1.0,phase_2,go,350.0,250.0,1.0,,,,,,,,,green,cross
0.0,7.0,3.0,1.0,5.0,5.0,431.4973479999935,1.0,1.0,phase_2,go,350.0,250.0,1.0,,,,,,,,,green,cross
0.0,5.0,1.0,1.0,5.0,5.0,600.322363000032,1.0,1.0,phase_2,go,350.0,250.0,1.0,,,,,,,,,gray,circle
0.0,3.0,3.0,0.0,5.0,5.0,646.202717000051,1.0,1.0,phase_2,go,350.0,250.0,1.0,,,,,,,,,blue,diamond
0.0,7.0,3.0,1.0,5.0,5.0,507.68143899995266,1.0,1.0,phase_2,stop,350.0,250.0,3.0,,,,,,,,,green,cross
0.0,5.0,1.0,1.0,6.0,0.0,0.0,1.0,1.0,phase_2,stop,300.0,250.0,4.0,,,,,,,,,gray,circle
0.0,2.0,2.0,0.0,5.0,5.0,578.1390099998589,1.0,1.0,phase_2,go,300.0,300.0,1.0,,,,,,,,,yellow,I
0.0,7.0,3.0,1.0,6.0,0.0,0.0,1.0,1.0,phase_2,stop,300.0,300.0,4.0,,,,,,,,,green,cross
0.0,2.0,2.0,0.0,5.0,5.0,523.3526520000851,1.0,1.0,phase_2,go,300.0,350.0,1.0,,,,,,,,,yellow,I
0.0,7.0,3.0,1.0,5.0,5.0,627.2945349996917,1.0,1.0,phase_2,go,300.0,350.0,1.0,,,,,,,,,green,cross
0.0,1.0,1.0,0.0,5.0,5.0,618.1002910002462,1.0,1.0,phase_2,go,300.0,350.0,1.0,,,,,,,,,orange,square
0.0,2.0,2.0,0.0,5.0,5.0,618.833886000175,1.0,1.0,phase_2,go,300.0,350.0,1.0,,,,,,,,,yellow,I
0.0,7.0,3.0,1.0,5.0,0.0,0.0,1.0,1.0,phase_2,stop,300.0,350.0,4.0,,,,,,,,,green,cross
0.0,2.0,2.0,0.0,6.0,6.0,553.169397000147,1.0,1.0,phase_2,go,350.0,350.0,1.0,,,,,,,,,yellow,I
0.0,4.0,4.0,0.0,6.0,6.0,515.1897800001279,1.0,1.0,phase_2,go,350.0,350.0,1.0,,,,,,,,,white,triangle
0.0,2.0,2.0,0.0,6.0,6.0,795.6467839999277,1.0,1.0,phase_2,go,350.0,350.0,1.0,,,,,,,,,yellow,I
0.0,4.0,4.0,0.0,6.0,6.0,450.892771999861,1.0,1.0,phase_2,go,350.0,350.0,1.0,,,,,,,,,white,triangle
0.0,3.0,3.0,0.0,6.0,6.0,545.4771830000027,1.0,1.0,phase_2,go,350.0,350.0,1.0,,,,,,,,,blue,diamond
0.0,5.0,1.0,1.0,5.0,0.0,0.0,1.0,1.0,phase_2,stop,350.0,350.0,4.0,,,,,,,,,gray,circle
0.0,4.0,4.0,0.0,6.0,6.0,534.8442089998571,1.0,1.0,phase_2,go,400.0,350.0,1.0,,,,,,,,,white,triangle
0.0,3.0,3.0,0.0,5.0,5.0,552.8624300000047,2.0,1.0,phase_2,go,400.0,350.0,1.0,,,,,,,,,blue,diamond
0.0,1.0,1.0,0.0,6.0,6.0,431.8887039999026,2.0,1.0,phase_2,go,400.0,350.0,1.0,,,,,,,,,orange,square
0.0,1.0,1.0,0.0,5.0,5.0,384.4482629997401,2.0,1.0,phase_2,go,400.0,350.0,1.0,,,,,,,,,orange,square
0.0,3.0,3.0,0.0,5.0,5.0,451.9602459999987,2.0,1.0,phase_2,go,400.0,350.0,1.0,,,,,,,,,blue,diamond
0.0,1.0,1.0,0.0,6.0,6.0,564.0237540001181,2.0,1.0,phase_2,go,400.0,350.0,1.0,,,,,,,,,orange,square
0.0,1.0,1.0,0.0,5.0,5.0,320.367609999721,2.0,1.0,phase_2,go,400.0,350.0,1.0,,,,,,,,,orange,square
0.0,5.0,1.0,1.0,6.0,6.0,444.594269999925,2.0,1.0,phase_2,stop,400.0,350.0,3.0,,,,,,,,,gray,circle
0.0,1.0,1.0,0.0,5.0,5.0,524.9185799998486,2.0,1.0,phase_2,go,400.0,300.0,1.0,,,,,,,,,orange,square
0.0,6.0,2.0,1.0,5.0,5.0,479.8890099996242,2.0,1.0,phase_2,stop,400.0,300.0,3.0,,,,,,,,,magenta,hexagon
0.0,3.0,3.0,0.0,6.0,6.0,497.3861479998049,2.0,1.0,phase_2,go,350.0,300.0,1.0,,,,,,,,,blue,diamond
0.0,7.0,3.0,1.0,5.0,5.0,467.33673000017,2.0,1.0,phase_2,stop,350.0,300.0,3.0,,,,,,,,,green,cross
0.0,6.0,2.0,1.0,5.0,0.0,0.0,2.0,1.0,phase_2,stop,300.0,300.0,4.0,,,,,,,,,magenta,hexagon
0.0,6.0,2.0,1.0,6.0,0.0,0.0,2.0,1.0,phase_2,stop,350.0,300.0,4.0,,,,,,,,,magenta,hexagon
0.0,3.0,3.0,0.0,5.0,5.0,458.9883059998101,2.0,1.0,phase_2,go,350.0,350.0,1.0,,,,,,,,,blue,diamond
0.0,2.0,2.0,0.0,6.0,6.0,600.7288589999007,2.0,1.0,phase_2,go,350.0,350.0,1.0,,,,,,,,,yellow,I
0.0,2.0,2.0,0.0,6.0,6.0,776.8887379997977,2.0,1.0,phase_2,go,350.0,350.0,1.0,,,,,,,,,yellow,I
0.0,4.0,4.0,0.0,6.0,6.0,413.1836729998213,2.0,1.0,phase_2,go,350.0,350.0,1.0,,,,,,,,,white,triangle
0.0,5.0,1.0,1.0,6.0,6.0,412.3895630000334,2.0,1.0,phase_2,go,350.0,350.0,1.0,,,,,,,,,gray,circle
0.0,7.0,3.0,1.0,6.0,6.0,399.9218369999653,2.0,1.0,phase_2,stop,350.0,350.0,3.0,,,,,,,,,green,cross
0.0,8.0,4.0,1.0,6.0,0.0,0.0,2.0,1.0,phase_2,stop,350.0,300.0,4.0,,,,,,,,,cyan,flipped triangle
0.0,6.0,2.0,1.0,5.0,5.0,543.4612260000904,2.0,1.0,phase_2,go,350.0,350.0,1.0,,,,,,,,,magenta,hexagon
0.0,2.0,2.0,0.0,6.0,6.0,507.62444300016796,2.0,1.0,phase_2,go,350.0,350.0,1.0,,,,,,,,,yellow,I
0.0,7.0,3.0,1.0,6.0,0.0,0.0,2.0,1.0,phase_2,stop,350.0,350.0,4.0,,,,,,,,,green,cross
0.0,5.0,1.0,1.0,6.0,6.0,465.4858509998121,2.0,1.0,phase_2,stop,350.0,400.0,3.0,,,,,,,,,gray,circle
0.0,6.0,2.0,1.0,6.0,6.0,592.1725779999178,2.0,1.0,phase_2,go,350.0,350.0,1.0,,,,,,,,,magenta,hexagon
0.0,2.0,2.0,0.0,6.0,6.0,657.9383650000636,2.0,1.0,phase_2,go,350.0,350.0,1.0,,,,,,,,,yellow,I
0.0,2.0,2.0,0.0,6.0,6.0,730.4686940001375,2.0,1.0,phase_2,go,350.0,350.0,1.0,,,,,,,,,yellow,I
0.0,6.0,2.0,1.0,5.0,0.0,0.0,2.0,1.0,phase_2,stop,350.0,350.0,4.0,,,,,,,,,magenta,hexagon
0.0,8.0,4.0,1.0,6.0,6.0,516.627654000331,2.0,1.0,phase_2,stop,400.0,350.0,3.0,,,,,,,,,cyan,flipped triangle
0.0,2.0,2.0,0.0,5.0,5.0,711.2944479999896,2.0,1.0,phase_2,go,400.0,300.0,1.0,,,,,,,,,yellow,I
0.0,4.0,4.0,0.0,5.0,5.0,805.2002570002514,2.0,1.0,phase_2,go,400.0,300.0,1.0,,,,,,,,,white,triangle
0.0,8.0,4.0,1.0,6.0,6.0,806.658207000055,2.0,1.0,phase_2,go,400.0,300.0,1.0,,,,,,,,,cyan,flipped triangle
0.0,5.0,1.0,1.0,5.0,5.0,693.3795579998332,2.0,1.0,phase_2,go,400.0,300.0,1.0,,,,,,,,,gray,circle
0.0,6.0,2.0,1.0,6.0,0.0,0.0,2.0,1.0,phase_2,stop,400.0,300.0,4.0,,,,,,,,,magenta,hexagon
0.0,4.0,4.0,0.0,5.0,5.0,739.7067000001698,2.0,1.0,phase_2,go,400.0,350.0,1.0,,,,,,,,,white,triangle
0.0,1.0,1.0,0.0,5.0,5.0,635.8043690001978,2.0,1.0,phase_2,go,400.0,350.0,1.0,,,,,,,,,orange,square
0.0,1.0,1.0,0.0,6.0,6.0,515.3548309999678,3.0,1.0,phase_2,go,400.0,350.0,1.0,,,,,,,,,orange,square
0.0,8.0,4.0,1.0,6.0,6.0,395.8778070000335,3.0,1.0,phase_2,stop,400.0,350.0,3.0,,,,,,,,,cyan,flipped triangle
0.0,6.0,2.0,1.0,6.0,0.0,0.0,3.0,1.0,phase_2,stop,400.0,300.0,4.0,,,,,,,,,magenta,hexagon
0.0,6.0,2.0,1.0,5.0,5.0,581.5767799999776,3.0,1.0,phase_2,go,400.0,350.0,1.0,,,,,,,,,magenta,hexagon
0.0,7.0,3.0,1.0,6.0,0.0,0.0,3.0,1.0,phase_2,stop,400.0,350.0,4.0,,,,,,,,,green,cross
0.0,3.0,3.0,0.0,5.0,5.0,582.4268579999625,3.0,1.0,phase_2,go,400.0,400.0,1.0,,,,,,,,,blue,diamond
0.0,2.0,2.0,0.0,5.0,5.0,525.9241400003702,3.0,1.0,phase_2,go,400.0,400.0,1.0,,,,,,,,,yellow,I
0.0,6.0,2.0,1.0,5.0,5.0,465.5722309998964,3.0,1.0,phase_2,stop,400.0,400.0,3.0,,,,,,,,,magenta,hexagon
0.0,5.0,1.0,1.0,5.0,0.0,0.0,3.0,1.0,phase_2,stop,350.0,400.0,4.0,,,,,,,,,gray,circle
0.0,4.0,4.0,0.0,6.0,6.0,564.4990839996353,3.0,1.0,phase_2,go,400.0,400.0,1.0,,,,,,,,,white,triangle
0.0,8.0,4.0,1.0,6.0,6.0,529.9092830000518,3.0,1.0,phase_2,stop,400.0,400.0,3.0,,,,,,,,,cyan,flipped triangle
0.0,1.0,1.0,0.0,6.0,6.0,910.1946239998142,3.0,1.0,phase_2,go,400.0,350.0,1.0,,,,,,,,,orange,square
0.0,4.0,4.0,0.0,6.0,6.0,564.4908700000997,3.0,1.0,phase_2,go,400.0,350.0,1.0,,,,,,,,,white,triangle
0.0,2.0,2.0,0.0,5.0,5.0,544.341452000026,3.0,1.0,phase_2,go,400.0,350.0,1.0,,,,,,,,,yellow,I
0.0,8.0,4.0,1.0,5.0,0.0,0.0,3.0,1.0,phase_2,stop,400.0,350.0,4.0,,,,,,,,,cyan,flipped triangle
0.0,2.0,2.0,0.0,6.0,6.0,611.1382560002312,3.0,1.0,phase_2,go,450.0,350.0,1.0,,,,,,,,,yellow,I
0.0,4.0,4.0,0.0,6.0,6.0,477.9125659997589,3.0,1.0,phase_2,go,450.0,350.0,1.0,,,,,,,,,white,triangle
0.0,3.0,3.0,0.0,5.0,5.0,507.13561500015203,3.0,1.0,phase_2,go,450.0,350.0,1.0,,,,,,,,,blue,diamond
0.0,2.0,2.0,0.0,6.0,6.0,488.5156199998164,3.0,1.0,phase_2,go,450.0,350.0,1.0,,,,,,,,,yellow,I
0.0,6.0,2.0,1.0,6.0,0.0,0.0,3.0,1.0,phase_2,stop,450.0,350.0,4.0,,,,,,,,,magenta,hexagon
0.0,7.0,3.0,1.0,6.0,6.0,751.272489999792,3.0,1.0,phase_2,go,450.0,400.0,1.0,,,,,,,,,green,cross
0.0,5.0,1.0,1.0,5.0,5.0,441.4457500001845,3.0,1.0,phase_2,stop,450.0,400.0,3.0,,,,,,,,,gray,circle
0.0,1.0,1.0,0.0,6.0,6.0,654.1502179998133,3.0,1.0,phase_2,go,400.0,400.0,1.0,,,,,,,,,orange,square
0.0,5.0,1.0,1.0,6.0,6.0,491.8620920002468,3.0,1.0,phase_2,go,400.0,400.0,1.0,,,,,,,,,gray,circle
0.0,6.0,2.0,1.0,6.0,6.0,591.5586009996332,3.0,1.0,phase_2,go,400.0,400.0,1.0,,,,,,,,,magenta,hexagon
0.0,1.0,1.0,0.0,6.0,6.0,766.2330580001253,3.0,1.0,phase_2,go,400.0,400.0,1.0,,,,,,,,,orange,square
0.0,1.0,1.0,0.0,6.0,6.0,544.1319149999799,3.0,1.0,phase_2,go,400.0,400.0,1.0,,,,,,,,,orange,square
0.0,7.0,3.0,1.0,6.0,0.0,0.0,3.0,1.0,phase_2,stop,400.0,400.0,4.0,,,,,,,,,green,cross
0.0,5.0,1.0,1.0,6.0,0.0,0.0,3.0,1.0,phase_2,stop,400.0,450.0,4.0,,,,,,,,,gray,circle
0.0,7.0,3.0,1.0,5.0,0.0,0.0,3.0,1.0,phase_2,stop,400.0,500.0,4.0,,,,,,,,,green,cross
0.0,1.0,1.0,0.0,5.0,5.0,534.6490120000453,3.0,1.0,phase_2,go,450.0,500.0,1.0,,,,,,,,,orange,square
0.0,5.0,1.0,1.0,5.0,0.0,0.0,3.0,1.0,phase_2,stop,450.0,500.0,4.0,,,,,,,,,gray,circle
0.0,7.0,3.0,1.0,6.0,0.0,0.0,3.0,1.0,phase_2,stop,500.0,500.0,4.0,,,,,,,,,green,cross
0.0,4.0,4.0,0.0,5.0,5.0,843.8774199998988,3.0,1.0,phase_2,go,500.0,550.0,1.0,,,,,,,,,white,triangle
0.0,8.0,4.0,1.0,6.0,0.0,0.0,3.0,1.0,phase_2,stop,500.0,550.0,4.0,,,,,,,,,cyan,flipped triangle
0.0,7.0,3.0,1.0,6.0,0.0,0.0,3.0,1.0,phase_2,stop,500.0,600.0,4.0,,,,,,,,,green,cross
0.0,3.0,3.0,0.0,6.0,6.0,683.5717389999445,4.0,1.0,phase_2,go,500.0,650.0,1.0,,,,,,,,,blue,diamond
0.0,7.0,3.0,1.0,6.0,6.0,739.6317569996427,4.0,1.0,phase_2,go,500.0,650.0,1.0,,,,,,,,,green,cross
0.0,7.0,3.0,1.0,6.0,6.0,797.7993290000995,4.0,1.0,phase_2,go,500.0,650.0,1.0,,,,,,,,,green,cross
0.0,8.0,4.0,1.0,5.0,0.0,0.0,4.0,1.0,phase_2,stop,500.0,650.0,4.0,,,,,,,,,cyan,flipped triangle
0.0,5.0,1.0,1.0,5.0,5.0,674.9614989998918,4.0,1.0,phase_2,go,550.0,650.0,1.0,,,,,,,,,gray,circle
0.0,1.0,1.0,0.0,5.0,5.0,580.4427499997473,4.0,1.0,phase_2,go,550.0,650.0,1.0,,,,,,,,,orange,square
0.0,1.0,1.0,0.0,6.0,6.0,690.7706970000618,4.0,1.0,phase_2,go,550.0,650.0,1.0,,,,,,,,,orange,square
0.0,1.0,1.0,0.0,5.0,5.0,712.49281099972,4.0,1.0,phase_2,go,550.0,650.0,1.0,,,,,,,,,orange,square
0.0,6.0,2.0,1.0,6.0,6.0,687.2858749998159,4.0,1.0,phase_2,go,550.0,650.0,1.0,,,,,,,,,magenta,hexagon
0.0,4.0,4.0,0.0,6.0,6.0,694.3266859998403,4.0,1.0,phase_2,go,550.0,650.0,1.0,,,,,,,,,white,triangle
0.0,3.0,3.0,0.0,6.0,6.0,511.18211699986205,4.0,1.0,phase_2,go,550.0,650.0,1.0,,,,,,,,,blue,diamond
0.0,8.0,4.0,1.0,5.0,5.0,620.3947150002023,4.0,1.0,phase_2,stop,550.0,650.0,3.0,,,,,,,,,cyan,flipped triangle
0.0,8.0,4.0,1.0,5.0,0.0,0.0,4.0,1.0,phase_2,stop,500.0,650.0,4.0,,,,,,,,,cyan,flipped triangle
0.0,3.0,3.0,0.0,5.0,5.0,807.5296000001799,4.0,1.0,phase_2,go,550.0,650.0,1.0,,,,,,,,,blue,diamond
0.0,5.0,1.0,1.0,6.0,0.0,0.0,4.0,1.0,phase_2,stop,550.0,650.0,4.0,,,,,,,,,gray,circle
0.0,7.0,3.0,1.0,5.0,0.0,0.0,4.0,1.0,phase_2,stop,550.0,700.0,4.0,,,,,,,,,green,cross
0.0,5.0,1.0,1.0,6.0,6.0,405.0536059999103,4.0,1.0,phase_2,stop,600.0,700.0,3.0,,,,,,,,,gray,circle
0.0,5.0,1.0,1.0,6.0,6.0,998.65600000021,4.0,1.0,phase_2,go,600.0,650.0,1.0,,,,,,,,,gray,circle
0.0,7.0,3.0,1.0,5.0,0.0,0.0,4.0,1.0,phase_2,stop,600.0,650.0,4.0,,,,,,,,,green,cross
0.0,8.0,4.0,1.0,5.0,0.0,0.0,4.0,1.0,phase_2,stop,650.0,650.0,4.0,,,,,,,,,cyan,flipped triangle
0.0,1.0,1.0,0.0,5.0,0.0,0.0,4.0,1.0,phase_2,go,700.0,650.0,5.0,,,,,,,,,orange,square
0.0,8.0,4.0,1.0,6.0,0.0,0.0,4.0,1.0,phase_2,stop,700.0,650.0,4.0,,,,,,,,,cyan,flipped triangle
0.0,2.0,2.0,0.0,5.0,5.0,543.6642119998396,4.0,1.0,phase_2,go,700.0,700.0,1.0,,,,,,,,,yellow,I
0.0,7.0,3.0,1.0,5.0,5.0,850.339841999812,4.0,1.0,phase_2,stop,700.0,700.0,3.0,,,,,,,,,green,cross
0.0,1.0,1.0,0.0,6.0,6.0,1108.4344770001735,4.0,1.0,phase_2,go,650.0,700.0,1.0,,,,,,,,,orange,square
0.0,3.0,3.0,0.0,6.0,6.0,834.5380060000025,4.0,1.0,phase_2,go,650.0,700.0,1.0,,,,,,,,,blue,diamond
0.0,2.0,2.0,0.0,5.0,5.0,748.0596989998958,4.0,1.0,phase_2,go,650.0,700.0,1.0,,,,,,,,,yellow,I
0.0,4.0,4.0,0.0,6.0,6.0,598.2581749999554,4.0,1.0,phase_2,go,650.0,700.0,1.0,,,,,,,,,white,triangle
0.0,8.0,4.0,1.0,5.0,5.0,581.2295109999468,4.0,1.0,phase_2,stop,650.0,700.0,3.0,,,,,,,,,cyan,flipped triangle
0.0,3.0,3.0,0.0,6.0,6.0,833.1947729998319,4.0,1.0,phase_2,go,600.0,700.0,1.0,,,,,,,,,blue,diamond
0.0,4.0,4.0,0.0,5.0,5.0,545.1512550002917,4.0,1.0,phase_2,go,600.0,700.0,1.0,,,,,,,,,white,triangle
0.0,1.0,1.0,0.0,5.0,5.0,740.7920509999713,4.0,1.0,phase_2,go,600.0,700.0,1.0,,,,,,,,,orange,square
0.0,6.0,2.0,1.0,5.0,5.0,653.8850090000778,4.0,1.0,phase_2,stop,600.0,700.0,3.0,,,,,,,,,magenta,hexagon
0.0,1.0,1.0,0.0,6.0,6.0,729.9918169997,4.0,1.0,phase_2,go,550.0,700.0,1.0,,,,,,,,,orange,square
0.0,8.0,4.0,1.0,6.0,6.0,740.7057039999927,4.0,1.0,phase_2,go,550.0,700.0,1.0,,,,,,,,,cyan,flipped triangle
0.0,5.0,1.0,1.0,5.0,0.0,0.0,4.0,1.0,phase_2,stop,550.0,700.0,4.0,,,,,,,,,gray,circle
0.0,5.0,1.0,1.0,6.0,6.0,440.876530999958,5.0,1.0,phase_2,stop,600.0,700.0,3.0,,,,,,,,,gray,circle
0.0,3.0,3.0,0.0,5.0,5.0,524.1698970003199,5.0,1.0,phase_2,go,600.0,650.0,1.0,,,,,,,,,blue,diamond
0.0,4.0,4.0,0.0,6.0,6.0,552.9270659999383,5.0,1.0,phase_2,go,600.0,650.0,1.0,,,,,,,,,white,triangle
0.0,3.0,3.0,0.0,5.0,5.0,608.6363140002504,5.0,1.0,phase_2,go,600.0,650.0,1.0,,,,,,,,,blue,diamond
0.0,3.0,3.0,0.0,6.0,6.0,571.086483000272,5.0,1.0,phase_2,go,600.0,650.0,1.0,,,,,,,,,blue,diamond
0.0,4.0,4.0,0.0,5.0,5.0,561.3650499999494,5.0,1.0,phase_2,go,600.0,650.0,1.0,,,,,,,,,white,triangle
0.0,3.0,3.0,0.0,6.0,6.0,553.9077990001715,5.0,1.0,phase_2,go,600.0,650.0,1.0,,,,,,,,,blue,diamond
0.0,2.0,2.0,0.0,6.0,6.0,645.7491500000287,5.0,1.0,phase_2,go,600.0,650.0,1.0,,,,,,,,,yellow,I
0.0,5.0,1.0,1.0,6.0,6.0,580.1970870002151,5.0,1.0,phase_2,stop,600.0,650.0,3.0,,,,,,,,,gray,circle
0.0,4.0,4.0,0.0,5.0,5.0,748.0368029996498,5.0,1.0,phase_2,go,600.0,600.0,1.0,,,,,,,,,white,triangle
0.0,5.0,1.0,1.0,6.0,6.0,662.9397060000883,5.0,1.0,phase_2,stop,600.0,600.0,3.0,,,,,,,,,gray,circle
0.0,4.0,4.0,0.0,5.0,5.0,626.9151589999638,5.0,1.0,phase_2,go,600.0,550.0,1.0,,,,,,,,,white,triangle
0.0,2.0,2.0,0.0,6.0,6.0,712.2987910001939,5.0,1.0,phase_2,go,600.0,550.0,1.0,,,,,,,,,yellow,I
0.0,3.0,3.0,0.0,6.0,6.0,768.0039689998921,5.0,1.0,phase_2,go,600.0,550.0,1.0,,,,,,,,,blue,diamond
0.0,7.0,3.0,1.0,5.0,5.0,749.0293159999055,5.0,1.0,phase_2,stop,600.0,550.0,3.0,,,,,,,,,green,cross
0.0,2.0,2.0,0.0,5.0,5.0,704.2538589998912,5.0,1.0,phase_2,go,550.0,550.0,1.0,,,,,,,,,yellow,I
0.0,2.0,2.0,0.0,5.0,5.0,619.1405429999577,5.0,1.0,phase_2,go,550.0,550.0,1.0,,,,,,,,,yellow,I
0.0,5.0,1.0,1.0,5.0,0.0,0.0,5.0,1.0,phase_2,stop,550.0,550.0,4.0,,,,,,,,,gray,circle
0.0,8.0,4.0,1.0,6.0,6.0,731.8096300000434,5.0,1.0,phase_2,stop,600.0,550.0,3.0,,,,,,,,,cyan,flipped triangle
0.0,2.0,2.0,0.0,5.0,5.0,815.1369229999545,5.0,1.0,phase_2,go,600.0,500.0,1.0,,,,,,,,,yellow,I
0.0,7.0,3.0,1.0,5.0,0.0,0.0,5.0,1.0,phase_2,stop,600.0,500.0,4.0,,,,,,,,,green,cross
0.0,2.0,2.0,0.0,5.0,5.0,740.8849459998237,5.0,1.0,phase_2,go,650.0,500.0,1.0,,,,,,,,,yellow,I
0.0,8.0,4.0,1.0,5.0,0.0,0.0,5.0,1.0,phase_2,stop,650.0,500.0,4.0,,,,,,,,,cyan,flipped triangle
0.0,4.0,4.0,0.0,6.0,6.0,1034.2750350000642,5.0,1.0,phase_2,go,700.0,500.0,1.0,,,,,,,,,white,triangle
0.0,5.0,1.0,1.0,5.0,5.0,816.0429239997029,5.0,1.0,phase_2,go,700.0,500.0,1.0,,,,,,,,,gray,circle
0.0,3.0,3.0,0.0,5.0,5.0,458.6504349999813,5.0,1.0,phase_2,go,700.0,500.0,1.0,,,,,,,,,blue,diamond
0.0,8.0,4.0,1.0,5.0,5.0,657.0045770004072,5.0,1.0,phase_2,go,700.0,500.0,1.0,,,,,,,,,cyan,flipped triangle
0.0,6.0,2.0,1.0,5.0,5.0,805.1625520001835,5.0,1.0,phase_2,stop,700.0,500.0,3.0,,,,,,,,,magenta,hexagon
0.0,6.0,2.0,1.0,5.0,0.0,0.0,5.0,1.0,phase_2,stop,650.0,500.0,4.0,,,,,,,,,magenta,hexagon
0.0,3.0,3.0,0.0,6.0,6.0,609.1682890000811,5.0,1.0,phase_2,go,700.0,500.0,1.0,,,,,,,,,blue,diamond
0.0,3.0,3.0,0.0,5.0,5.0,908.6589490002552,5.0,1.0,phase_2,go,700.0,500.0,1.0,,,,,,,,,blue,diamond
0.0,7.0,3.0,1.0,6.0,6.0,576.202276999993,5.0,1.0,phase_2,stop,700.0,500.0,3.0,,,,,,,,,green,cross
0.0,5.0,1.0,1.0,5.0,5.0,677.2336170001836,5.0,1.0,phase_2,stop,700.0,450.0,3.0,,,,,,,,,gray,circle
0.0,1.0,1.0,0.0,5.0,5.0,743.0338350000056,5.0,1.0,phase_2,go,650.0,450.0,1.0,,,,,,,,,orange,square
0.0,5.0,1.0,1.0,6.0,0.0,0.0,5.0,1.0,phase_2,stop,650.0,450.0,4.0,,,,,,,,,gray,circle
0.0,2.0,2.0,0.0,5.0,5.0,468.6551340000733,5.0,1.0,phase_2,go,650.0,500.0,1.0,,,,,,,,,yellow,I
0.0,8.0,4.0,1.0,5.0,5.0,422.4497689997406,6.0,1.0,phase_2,stop,650.0,500.0,3.0,,,,,,,,,cyan,flipped triangle
0.0,5.0,1.0,1.0,5.0,5.0,656.1735489999592,6.0,1.0,phase_2,go,600.0,500.0,1.0,,,,,,,,,gray,circle
0.0,6.0,2.0,1.0,6.0,6.0,544.514387000163,6.0,1.0,phase_2,stop,600.0,500.0,3.0,,,,,,,,,magenta,hexagon
0.0,3.0,3.0,0.0,6.0,6.0,854.9284279997664,6.0,1.0,phase_2,go,600.0,450.0,1.0,,,,,,,,,blue,diamond
0.0,8.0,4.0,1.0,5.0,5.0,580.5982520000725,6.0,1.0,phase_2,stop,600.0,450.0,3.0,,,,,,,,,cyan,flipped triangle
0.0,3.0,3.0,0.0,6.0,6.0,355.9214689998953,6.0,1.0,phase_2,go,550.0,450.0,1.0,,,,,,,,,blue,diamond
0.0,6.0,2.0,1.0,6.0,6.0,348.2659800001784,6.0,1.0,phase_2,go,550.0,450.0,1.0,,,,,,,,,magenta,hexagon
0.0,3.0,3.0,0.0,5.0,5.0,439.6439440001813,6.0,1.0,phase_2,go,550.0,450.0,1.0,,,,,,,,,blue,diamond
0.0,6.0,2.0,1.0,6.0,6.0,507.38379899985375,6.0,1.0,phase_2,stop,550.0,450.0,3.0,,,,,,,,,magenta,hexagon
0.0,4.0,4.0,0.0,5.0,5.0,618.2839130001412,6.0,1.0,phase_2,go,550.0,400.0,1.0,,,,,,,,,white,triangle
0.0,8.0,4.0,1.0,5.0,5.0,383.8976729998649,6.0,1.0,phase_2,stop,550.0,400.0,3.0,,,,,,,,,cyan,flipped triangle
0.0,6.0,2.0,1.0,5.0,5.0,730.1928319998297,6.0,1.0,phase_2,go,500.0,400.0,1.0,,,,,,,,,magenta,hexagon
0.0,4.0,4.0,0.0,6.0,6.0,505.9955550000268,6.0,1.0,phase_2,go,500.0,400.0,1.0,,,,,,,,,white,triangle
0.0,6.0,2.0,1.0,6.0,6.0,444.935901000008,6.0,1.0,phase_2,stop,500.0,400.0,3.0,,,,,,,,,magenta,hexagon
0.0,8.0,4.0,1.0,6.0,0.0,0.0,6.0,1.0,phase_2,stop,500.0,350.0,4.0,,,,,,,,,cyan,flipped triangle
0.0,1.0,1.0,0.0,6.0,6.0,769.1462859997955,6.0,1.0,phase_2,go,500.0,400.0,1.0,,,,,,,,,orange,square
0.0,7.0,3.0,1.0,5.0,5.0,384.3229909998626,6.0,1.0,phase_2,stop,500.0,400.0,3.0,,,,,,,,,green,cross
0.0,2.0,2.0,0.0,5.0,5.0,505.9829480001099,6.0,1.0,phase_2,go,450.0,400.0,1.0,,,,,,,,,yellow,I
0.0,5.0,1.0,1.0,6.0,6.0,428.7458480002897,6.0,1.0,phase_2,stop,450.0,400.0,3.0,,,,,,,,,gray,circle
0.0,4.0,4.0,0.0,5.0,5.0,664.7918310000023,6.0,1.0,phase_2,go,450.0,350.0,1.0,,,,,,,,,white,triangle
0.0,2.0,2.0,0.0,5.0,5.0,618.5190369997144,6.0,1.0,phase_2,go,450.0,350.0,1.0,,,,,,,,,yellow,I
0.0,1.0,1.0,0.0,6.0,6.0,523.5560799997074,6.0,1.0,phase_2,go,450.0,350.0,1.0,,,,,,,,,orange,square
0.0,1.0,1.0,0.0,6.0,6.0,374.42425800009,6.0,1.0,phase_2,go,450.0,350.0,1.0,,,,,,,,,orange,square
0.0,8.0,4.0,1.0,6.0,6.0,337.3170099998788,6.0,1.0,phase_2,stop,450.0,350.0,3.0,,,,,,,,,cyan,flipped triangle
0.0,8.0,4.0,1.0,6.0,6.0,589.8321259996919,6.0,1.0,phase_2,go,450.0,300.0,1.0,,,,,,,,,cyan,flipped triangle
0.0,2.0,2.0,0.0,6.0,6.0,346.9922300000689,6.0,1.0,phase_2,go,450.0,300.0,1.0,,,,,,,,,yellow,I
0.0,8.0,4.0,1.0,6.0,6.0,319.841161000113,6.0,1.0,phase_2,go,450.0,300.0,1.0,,,,,,,,,cyan,flipped triangle
0.0,1.0,1.0,0.0,6.0,6.0,346.6690029999881,6.0,1.0,phase_2,go,450.0,300.0,1.0,,,,,,,,,orange,square
0.0,2.0,2.0,0.0,5.0,5.0,505.85320500022135,6.0,1.0,phase_2,go,450.0,300.0,1.0,,,,,,,,,yellow,I
0.0,8.0,4.0,1.0,5.0,5.0,511.172045999956,6.0,1.0,phase_2,stop,450.0,300.0,3.0,,,,,,,,,cyan,flipped triangle
0.0,4.0,4.0,0.0,5.0,5.0,535.792419000245,6.0,1.0,phase_2,go,400.0,300.0,1.0,,,,,,,,,white,triangle
0.0,1.0,1.0,0.0,6.0,6.0,506.00957699998617,6.0,1.0,phase_2,go,400.0,300.0,1.0,,,,,,,,,orange,square
0.0,5.0,1.0,1.0,6.0,6.0,339.0989099998478,6.0,1.0,phase_2,stop,400.0,300.0,3.0,,,,,,,,,gray,circle
0.0,5.0,1.0,1.0,5.0,5.0,440.5501189999086,6.0,1.0,phase_2,stop,400.0,250.0,3.0,,,,,,,,,gray,circle
0.0,4.0,4.0,0.0,5.0,5.0,592.3309909999261,6.0,1.0,phase_2,go,350.0,250.0,1.0,,,,,,,,,white,triangle
0.0,6.0,2.0,1.0,6.0,6.0,316.5754740002739,6.0,1.0,phase_2,stop,350.0,250.0,3.0,,,,,,,,,magenta,hexagon
0.0,4.0,4.0,0.0,5.0,5.0,393.2061580003392,7.0,1.0,phase_2,go,350.0,200.0,1.0,,,,,,,,,white,triangle
0.0,8.0,4.0,1.0,5.0,5.0,354.7324850001132,7.0,1.0,phase_2,go,350.0,200.0,1.0,,,,,,,,,cyan,flipped triangle
0.0,3.0,3.0,0.0,5.0,5.0,355.2948950000427,7.0,1.0,phase_2,go,350.0,200.0,1.0,,,,,,,,,blue,diamond
0.0,4.0,4.0,0.0,5.0,5.0,309.1071869998814,7.0,1.0,phase_2,go,350.0,200.0,1.0,,,,,,,,,white,triangle
0.0,3.0,3.0,0.0,6.0,6.0,310.0492870003108,7.0,1.0,phase_2,go,350.0,200.0,1.0,,,,,,,,,blue,diamond
0.0,1.0,1.0,0.0,6.0,6.0,364.6322600002349,7.0,1.0,phase_2,go,350.0,200.0,1.0,,,,,,,,,orange,square
0.0,7.0,3.0,1.0,6.0,6.0,328.6207129999638,7.0,1.0,phase_2,stop,350.0,200.0,3.0,,,,,,,,,green,cross
0.0,8.0,4.0,1.0,5.0,5.0,334.9549059998935,7.0,1.0,phase_2,go,350.0,150.0,1.0,,,,,,,,,cyan,flipped triangle
0.0,3.0,3.0,0.0,6.0,6.0,309.792606999963,7.0,1.0,phase_2,go,350.0,150.0,1.0,,,,,,,,,blue,diamond
0.0,8.0,4.0,1.0,6.0,6.0,291.1148289999801,7.0,1.0,phase_2,go,350.0,150.0,1.0,,,,,,,,,cyan,flipped triangle
0.0,8.0,4.0,1.0,5.0,5.0,401.3702919996831,7.0,1.0,phase_2,stop,350.0,150.0,3.0,,,,,,,,,cyan,flipped triangle
0.0,6.0,2.0,1.0,5.0,5.0,299.8443730002691,7.0,1.0,phase_2,stop,300.0,150.0,3.0,,,,,,,,,magenta,hexagon
0.0,7.0,3.0,1.0,5.0,0.0,0.0,7.0,1.0,phase_2,stop,250.0,150.0,4.0,,,,,,,,,green,cross
0.0,4.0,4.0,0.0,5.0,5.0,346.7025029999604,7.0,1.0,phase_2,go,300.0,150.0,1.0,,,,,,,,,white,triangle
0.0,8.0,4.0,1.0,6.0,6.0,348.6133880001034,7.0,1.0,phase_2,go,300.0,150.0,1.0,,,,,,,,,cyan,flipped triangle
0.0,7.0,3.0,1.0,5.0,5.0,355.6401710002319,7.0,1.0,phase_2,stop,300.0,150.0,3.0,,,,,,,,,green,cross
0.0,3.0,3.0,0.0,6.0,6.0,541.3709139997991,7.0,1.0,phase_2,go,250.0,150.0,1.0,,,,,,,,,blue,diamond
0.0,4.0,4.0,0.0,6.0,6.0,497.0240480001848,7.0,1.0,phase_2,go,250.0,150.0,1.0,,,,,,,,,white,triangle
0.0,6.0,2.0,1.0,5.0,0.0,0.0,7.0,1.0,phase_2,stop,250.0,150.0,4.0,,,,,,,,,magenta,hexagon
0.0,7.0,3.0,1.0,6.0,6.0,328.0060779998166,7.0,1.0,phase_2,go,300.0,150.0,1.0,,,,,,,,,green,cross
0.0,1.0,1.0,0.0,5.0,5.0,515.0100259997998,7.0,1.0,phase_2,go,300.0,150.0,1.0,,,,,,,,,orange,square
0.0,7.0,3.0,1.0,5.0,5.0,487.298500000179,7.0,1.0,phase_2,go,300.0,150.0,1.0,,,,,,,,,green,cross
0.0,6.0,2.0,1.0,6.0,0.0,0.0,7.0,1.0,phase_2,stop,300.0,150.0,4.0,,,,,,,,,magenta,hexagon
0.0,8.0,4.0,1.0,5.0,5.0,380.2436200003285,7.0,1.0,phase_2,stop,300.0,200.0,3.0,,,,,,,,,cyan,flipped triangle
0.0,1.0,1.0,0.0,5.0,5.0,626.7332879997412,7.0,1.0,phase_2,go,250.0,200.0,1.0,,,,,,,,,orange,square
0.0,4.0,4.0,0.0,5.0,5.0,618.0246080002689,7.0,1.0,phase_2,go,250.0,200.0,1.0,,,,,,,,,white,triangle
0.0,4.0,4.0,0.0,5.0,5.0,357.1986259998994,7.0,1.0,phase_2,go,250.0,200.0,1.0,,,,,,,,,white,triangle
0.0,6.0,2.0,1.0,5.0,5.0,363.3506179999131,7.0,1.0,phase_2,stop,250.0,200.0,3.0,,,,,,,,,magenta,hexagon
0.0,2.0,2.0,0.0,6.0,6.0,318.8715270002831,7.0,1.0,phase_2,go,200.0,200.0,1.0,,,,,,,,,yellow,I
0.0,6.0,2.0,1.0,6.0,0.0,0.0,7.0,1.0,phase_2,stop,200.0,200.0,4.0,,,,,,,,,magenta,hexagon
0.0,4.0,4.0,0.0,6.0,6.0,580.6611379998685,7.0,1.0,phase_2,go,200.0,250.0,1.0,,,,,,,,,white,triangle
0.0,8.0,4.0,1.0,5.0,5.0,374.3088510000234,7.0,1.0,phase_2,stop,200.0,250.0,3.0,,,,,,,,,cyan,flipped triangle
0.0,4.0,4.0,0.0,6.0,6.0,561.9864280001821,7.0,1.0,phase_2,go,150.0,250.0,1.0,,,,,,,,,white,triangle
0.0,5.0,1.0,1.0,6.0,6.0,659.2347119999431,7.0,1.0,phase_2,stop,150.0,250.0,3.0,,,,,,,,,gray,circle
0.0,7.0,3.0,1.0,6.0,0.0,0.0,7.0,1.0,phase_2,stop,150.0,200.0,4.0,,,,,,,,,green,cross
0.0,5.0,1.0,1.0,5.0,0.0,0.0,7.0,1.0,phase_2,stop,150.0,250.0,4.0,,,,,,,,,gray,circle
0.0,6.0,2.0,1.0,6.0,6.0,635.855351000373,8.0,1.0,phase_2,go,200.0,250.0,1.0,,,,,,,,,magenta,hexagon
0.0,8.0,4.0,1.0,6.0,6.0,379.5499689999815,8.0,1.0,phase_2,stop,200.0,250.0,3.0,,,,,,,,,cyan,flipped triangle
0.0,2.0,2.0,0.0,6.0,6.0,561.1514940001143,8.0,1.0,phase_2,go,200.0,200.0,1.0,,,,,,,,,yellow,I
0.0,3.0,3.0,0.0,5.0,5.0,449.6543899999778,8.0,1.0,phase_2,go,200.0,200.0,1.0,,,,,,,,,blue,diamond
0.0,3.0,3.0,0.0,6.0,6.0,318.4270659999129,8.0,1.0,phase_2,go,200.0,200.0,1.0,,,,,,,,,blue,diamond
0.0,6.0,2.0,1.0,6.0,6.0,271.8925579997631,8.0,1.0,phase_2,stop,200.0,200.0,3.0,,,,,,,,,magenta,hexagon
0.0,2.0,2.0,0.0,5.0,5.0,392.4298879996968,8.0,1.0,phase_2,go,200.0,150.0,1.0,,,,,,,,,yellow,I
0.0,5.0,1.0,1.0,5.0,5.0,364.0402269998049,8.0,1.0,phase_2,stop,200.0,150.0,3.0,,,,,,,,,gray,circle
0.0,3.0,3.0,0.0,6.0,6.0,532.615812000131,8.0,1.0,phase_2,go,150.0,150.0,1.0,,,,,,,,,blue,diamond
0.0,2.0,2.0,0.0,5.0,5.0,328.985174999616,8.0,1.0,phase_2,go,150.0,150.0,1.0,,,,,,,,,yellow,I
0.0,7.0,3.0,1.0,6.0,6.0,282.7655270002651,8.0,1.0,phase_2,stop,150.0,150.0,3.0,,,,,,,,,green,cross
0.0,5.0,1.0,1.0,5.0,0.0,0.0,8.0,1.0,phase_2,stop,150.0,100.0,4.0,,,,,,,,,gray,circle
0.0,3.0,3.0,0.0,5.0,5.0,478.5203260003072,8.0,1.0,phase_2,go,200.0,100.0,1.0,,,,,,,,,blue,diamond
0.0,7.0,3.0,1.0,6.0,6.0,323.8430719998177,8.0,1.0,phase_2,stop,200.0,100.0,3.0,,,,,,,,,green,cross
0.0,3.0,3.0,0.0,5.0,5.0,448.078316000192,8.0,1.0,phase_2,go,200.0,50.0,1.0,,,,,,,,,blue,diamond
0.0,6.0,2.0,1.0,6.0,0.0,0.0,8.0,1.0,phase_2,stop,200.0,50.0,4.0,,,,,,,,,magenta,hexagon
0.0,1.0,1.0,0.0,5.0,5.0,504.5753939998576,8.0,1.0,phase_2,go,200.0,100.0,1.0,,,,,,,,,orange,square
0.0,4.0,4.0,0.0,6.0,6.0,533.9451109998663,8.0,1.0,phase_2,go,200.0,100.0,1.0,,,,,,,,,white,triangle
0.0,1.0,1.0,0.0,5.0,5.0,375.7074539998939,8.0,1.0,phase_2,go,200.0,100.0,1.0,,,,,,,,,orange,square
0.0,2.0,2.0,0.0,6.0,6.0,488.2350110001425,8.0,1.0,phase_2,go,200.0,100.0,1.0,,,,,,,,,yellow,I
0.0,4.0,4.0,0.0,6.0,6.0,462.6913060001243,8.0,1.0,phase_2,go,200.0,100.0,1.0,,,,,,,,,white,triangle
0.0,6.0,2.0,1.0,5.0,5.0,319.6095610001066,8.0,1.0,phase_2,stop,200.0,100.0,3.0,,,,,,,,,magenta,hexagon
0.0,5.0,1.0,1.0,5.0,0.0,0.0,8.0,1.0,phase_2,stop,150.0,100.0,4.0,,,,,,,,,gray,circle
0.0,7.0,3.0,1.0,6.0,6.0,421.8066130001716,8.0,1.0,phase_2,go,200.0,100.0,1.0,,,,,,,,,green,cross
0.0,1.0,1.0,0.0,5.0,5.0,338.2943910000904,8.0,1.0,phase_2,go,200.0,100.0,1.0,,,,,,,,,orange,square
0.0,5.0,1.0,1.0,6.0,6.0,496.6632619998563,8.0,1.0,phase_2,go,200.0,100.0,1.0,,,,,,,,,gray,circle
0.0,1.0,1.0,0.0,6.0,6.0,450.39537799993917,8.0,1.0,phase_2,go,200.0,100.0,1.0,,,,,,,,,orange,square
0.0,7.0,3.0,1.0,5.0,5.0,342.0027440001831,8.0,1.0,phase_2,stop,200.0,100.0,3.0,,,,,,,,,green,cross
0.0,2.0,2.0,0.0,6.0,6.0,318.0335600000035,8.0,1.0,phase_2,go,150.0,100.0,1.0,,,,,,,,,yellow,I
0.0,6.0,2.0,1.0,5.0,0.0,0.0,8.0,1.0,phase_2,stop,150.0,100.0,4.0,,,,,,,,,magenta,hexagon
0.0,1.0,1.0,0.0,6.0,6.0,533.8673900000686,8.0,1.0,phase_2,go,200.0,100.0,1.0,,,,,,,,,orange,square
0.0,5.0,1.0,1.0,6.0,0.0,0.0,8.0,1.0,phase_2,stop,200.0,100.0,4.0,,,,,,,,,gray,circle
0.0,8.0,4.0,1.0,5.0,0.0,0.0,8.0,1.0,phase_2,stop,200.0,150.0,4.0,,,,,,,,,cyan,flipped triangle
0.0,2.0,2.0,0.0,6.0,6.0,487.5976419998551,8.0,1.0,phase_2,go,250.0,150.0,1.0,,,,,,,,,yellow,I
0.0,2.0,2.0,0.0,6.0,6.0,496.1194659999819,8.0,1.0,phase_2,go,250.0,150.0,1.0,,,,,,,,,yellow,I
0.0,4.0,4.0,0.0,5.0,5.0,383.44621299984277,8.0,1.0,phase_2,go,250.0,150.0,1.0,,,,,,,,,white,triangle
0.0,2.0,2.0,0.0,7.0,4.0,1985.2394029999232,1.0,1.0,phase_3,,,,,692.0,4.0,346.0,173.0,519.0,692.0,1038.0,865.0,yellow,I
0.0,3.0,3.0,0.0,7.0,1.0,1315.531973999896,1.0,1.0,phase_3,,,,,192.0,1.0,192.0,768.0,576.0,960.0,1152.0,384.0,blue,diamond
0.0,7.0,3.0,1.0,7.0,5.0,1358.2876850000505,1.0,1.0,phase_3,,,,,173.0,1.0,692.0,346.0,519.0,1038.0,173.0,865.0,green,cross
0.0,2.0,2.0,0.0,7.0,2.0,1243.674166999881,1.0,1.0,phase_3,,,,,348.0,3.0,464.0,348.0,696.0,116.0,232.0,580.0,yellow,I
0.0,6.0,2.0,1.0,7.0,5.0,1244.1896610002914,1.0,1.0,phase_3,,,,,770.0,5.0,154.0,462.0,616.0,924.0,770.0,308.0,magenta,hexagon
0.0,5.0,1.0,1.0,7.0,2.0,2818.6157809996075,1.0,1.0,phase_3,,,,,810.0,6.0,405.0,810.0,540.0,135.0,675.0,270.0,gray,circle
0.0,4.0,4.0,0.0,7.0,3.0,1792.2709409999698,1.0,1.0,phase_3,,,,,692.0,4.0,519.0,1038.0,692.0,346.0,173.0,865.0,white,triangle
0.0,6.0,2.0,1.0,7.0,2.0,2628.6317119997875,1.0,1.0,phase_3,,,,,308.0,2.0,924.0,308.0,616.0,154.0,770.0,462.0,magenta,hexagon
0.0,4.0,4.0,0.0,7.0,2.0,1448.8442560000294,1.0,1.0,phase_3,,,,,308.0,2.0,924.0,308.0,770.0,154.0,462.0,616.0,white,triangle
0.0,1.0,1.0,0.0,7.0,5.0,2004.3084269996143,1.0,1.0,phase_3,,,,,464.0,4.0,696.0,116.0,580.0,348.0,464.0,232.0,orange,square
0.0,1.0,1.0,0.0,7.0,5.0,613.5841810000784,1.0,1.0,phase_3,,,,,462.0,3.0,770.0,616.0,924.0,154.0,462.0,308.0,orange,square
0.0,1.0,1.0,0.0,7.0,5.0,2354.557186999955,1.0,1.0,phase_3,,,,,384.0,2.0,192.0,1152.0,576.0,960.0,384.0,768.0,orange,square
0.0,7.0,3.0,1.0,7.0,3.0,1582.2320199999922,1.0,1.0,phase_3,,,,,580.0,5.0,348.0,232.0,580.0,116.0,696.0,464.0,green,cross
0.0,8.0,4.0,1.0,7.0,4.0,1865.6490789999225,1.0,1.0,phase_3,,,,,348.0,3.0,232.0,464.0,580.0,348.0,116.0,696.0,cyan,flipped triangle
0.0,2.0,2.0,0.0,7.0,2.0,1298.522119000154,1.0,1.0,phase_3,,,,,865.0,5.0,1038.0,865.0,519.0,173.0,692.0,346.0,yellow,I
0.0,5.0,1.0,1.0,7.0,6.0,1948.9020169999092,1.0,1.0,phase_3,,,,,696.0,6.0,232.0,116.0,348.0,580.0,464.0,696.0,gray,circle
0.0,1.0,1.0,0.0,7.0,5.0,1837.8608550001445,1.0,1.0,phase_3,,,,,865.0,5.0,519.0,692.0,173.0,1038.0,865.0,346.0,orange,square
0.0,1.0,1.0,0.0,7.0,2.0,686.0717550002846,1.0,1.0,phase_3,,,,,405.0,3.0,810.0,405.0,675.0,540.0,270.0,135.0,orange,square
0.0,7.0,3.0,1.0,7.0,5.0,1103.0580930000724,1.0,1.0,phase_3,,,,,308.0,2.0,154.0,770.0,462.0,616.0,308.0,924.0,green,cross
0.0,3.0,3.0,0.0,7.0,2.0,540.6555440004013,1.0,1.0,phase_3,,,,,135.0,1.0,675.0,135.0,810.0,540.0,270.0,405.0,blue,diamond
0.0,6.0,2.0,1.0,7.0,5.0,930.6451080001352,2.0,1.0,phase_3,,,,,692.0,4.0,1038.0,865.0,173.0,346.0,692.0,519.0,magenta,hexagon
0.0,5.0,1.0,1.0,7.0,2.0,2675.252501000159,2.0,1.0,phase_3,,,,,960.0,5.0,192.0,960.0,1152.0,768.0,576.0,384.0,gray,circle
0.0,7.0,3.0,1.0,7.0,5.0,2306.298565999896,2.0,1.0,phase_3,,,,,768.0,4.0,576.0,960.0,1152.0,384.0,768.0,192.0,green,cross
0.0,3.0,3.0,0.0,7.0,2.0,928.9397170000484,2.0,1.0,phase_3,,,,,768.0,4.0,576.0,768.0,192.0,384.0,960.0,1152.0,blue,diamond
0.0,4.0,4.0,0.0,7.0,5.0,818.0372560000251,2.0,1.0,phase_3,,,,,232.0,2.0,580.0,348.0,696.0,116.0,232.0,464.0,white,triangle
0.0,3.0,3.0,0.0,7.0,3.0,1274.5052999998734,2.0,1.0,phase_3,,,,,116.0,1.0,696.0,232.0,116.0,580.0,464.0,348.0,blue,diamond
0.0,8.0,4.0,1.0,7.0,5.0,1156.169417000001,2.0,1.0,phase_3,,,,,405.0,3.0,810.0,270.0,675.0,135.0,405.0,540.0,cyan,flipped triangle
0.0,8.0,4.0,1.0,7.0,3.0,1291.0233789998529,2.0,1.0,phase_3,,,,,308.0,2.0,462.0,154.0,308.0,616.0,770.0,924.0,cyan,flipped triangle
0.0,1.0,1.0,0.0,7.0,4.0,1201.4620360000663,2.0,1.0,phase_3,,,,,616.0,4.0,462.0,770.0,154.0,616.0,924.0,308.0,orange,square
0.0,4.0,4.0,0.0,7.0,3.0,1374.755241999992,2.0,1.0,phase_3,,,,,576.0,3.0,192.0,768.0,576.0,384.0,960.0,1152.0,white,triangle
0.0,5.0,1.0,1.0,7.0,3.0,1129.9267509998572,2.0,1.0,phase_3,,,,,308.0,2.0,616.0,462.0,308.0,924.0,770.0,154.0,gray,circle
0.0,7.0,3.0,1.0,7.0,4.0,846.0692000003291,2.0,1.0,phase_3,,,,,675.0,5.0,405.0,270.0,810.0,675.0,135.0,540.0,green,cross
0.0,8.0,4.0,1.0,7.0,3.0,1272.8893230000722,2.0,1.0,phase_3,,,,,462.0,3.0,616.0,308.0,462.0,770.0,154.0,924.0,cyan,flipped triangle
0.0,7.0,3.0,1.0,7.0,4.0,1236.930689000019,2.0,1.0,phase_3,,,,,924.0,6.0,616.0,462.0,770.0,924.0,308.0,154.0,green,cross
0.0,4.0,4.0,0.0,7.0,2.0,1164.0408220000609,2.0,1.0,phase_3,,,,,540.0,4.0,135.0,540.0,675.0,810.0,405.0,270.0,white,triangle
0.0,6.0,2.0,1.0,7.0,3.0,2047.6660860003904,2.0,1.0,phase_3,,,,,675.0,5.0,810.0,270.0,675.0,405.0,540.0,135.0,magenta,hexagon
0.0,4.0,4.0,0.0,7.0,4.0,625.1437709997845,2.0,1.0,phase_3,,,,,768.0,4.0,960.0,384.0,1152.0,768.0,192.0,576.0,white,triangle
0.0,4.0,4.0,0.0,7.0,3.0,939.233379000143,2.0,1.0,phase_3,,,,,540.0,4.0,810.0,675.0,540.0,135.0,405.0,270.0,white,triangle
0.0,2.0,2.0,0.0,7.0,4.0,1077.7924650001296,2.0,1.0,phase_3,,,,,770.0,5.0,616.0,154.0,308.0,770.0,462.0,924.0,yellow,I
0.0,3.0,3.0,0.0,7.0,4.0,1811.307596000006,2.0,1.0,phase_3,,,,,519.0,3.0,692.0,1038.0,173.0,519.0,865.0,346.0,blue,diamond
0.0,6.0,2.0,1.0,7.0,5.0,1877.641405000304,3.0,1.0,phase_3,,,,,576.0,3.0,960.0,768.0,1152.0,192.0,576.0,384.0,magenta,hexagon
0.0,5.0,1.0,1.0,7.0,3.0,1848.0325699997595,3.0,1.0,phase_3,,,,,696.0,6.0,232.0,580.0,696.0,464.0,348.0,116.0,gray,circle
0.0,8.0,4.0,1.0,7.0,6.0,1686.114759999782,3.0,1.0,phase_3,,,,,692.0,4.0,519.0,173.0,346.0,865.0,1038.0,692.0,cyan,flipped triangle
0.0,6.0,2.0,1.0,7.0,5.0,930.182120000154,3.0,1.0,phase_3,,,,,346.0,2.0,1038.0,173.0,865.0,519.0,346.0,692.0,magenta,hexagon
0.0,5.0,1.0,1.0,7.0,2.0,1300.9319190000497,3.0,1.0,phase_3,,,,,960.0,5.0,768.0,960.0,192.0,1152.0,384.0,576.0,gray,circle
0.0,6.0,2.0,1.0,7.0,5.0,780.634290999842,3.0,1.0,phase_3,,,,,384.0,2.0,576.0,960.0,192.0,768.0,384.0,1152.0,magenta,hexagon
0.0,4.0,4.0,0.0,7.0,3.0,1060.3815640001812,3.0,1.0,phase_3,,,,,580.0,5.0,232.0,696.0,580.0,116.0,348.0,464.0,white,triangle
0.0,2.0,2.0,0.0,7.0,2.0,1640.075481999702,3.0,1.0,phase_3,,,,,810.0,6.0,540.0,810.0,675.0,135.0,270.0,405.0,yellow,I
0.0,3.0,3.0,0.0,7.0,4.0,885.763230000066,3.0,1.0,phase_3,,,,,616.0,4.0,770.0,924.0,462.0,616.0,154.0,308.0,blue,diamond
0.0,8.0,4.0,1.0,7.0,2.0,1717.2032140001647,3.0,1.0,phase_3,,,,,576.0,3.0,384.0,576.0,960.0,192.0,1152.0,768.0,cyan,flipped triangle
0.0,5.0,1.0,1.0,7.0,6.0,996.5252990000408,3.0,1.0,phase_3,,,,,1038.0,6.0,519.0,173.0,346.0,865.0,692.0,1038.0,gray,circle
0.0,1.0,1.0,0.0,7.0,4.0,1244.9185639998177,3.0,1.0,phase_3,,,,,768.0,4.0,960.0,576.0,192.0,768.0,1152.0,384.0,orange,square
0.0,7.0,3.0,1.0,7.0,3.0,920.4551570001058,3.0,1.0,phase_3,,,,,692.0,4.0,519.0,173.0,692.0,346.0,1038.0,865.0,green,cross
0.0,3.0,3.0,0.0,7.0,4.0,993.898690000151,3.0,1.0,phase_3,,,,,173.0,1.0,346.0,519.0,1038.0,173.0,865.0,692.0,blue,diamond
0.0,1.0,1.0,0.0,7.0,3.0,1063.9976039997237,3.0,1.0,phase_3,,,,,675.0,5.0,540.0,405.0,675.0,270.0,810.0,135.0,orange,square
0.0,4.0,4.0,0.0,7.0,4.0,976.6483309999784,3.0,1.0,phase_3,,,,,865.0,5.0,173.0,519.0,1038.0,865.0,346.0,692.0,white,triangle
0.0,8.0,4.0,1.0,7.0,2.0,1060.2612389998285,3.0,1.0,phase_3,,,,,580.0,5.0,696.0,580.0,232.0,348.0,116.0,464.0,cyan,flipped triangle
0.0,5.0,1.0,1.0,7.0,4.0,764.6281030001774,3.0,1.0,phase_3,,,,,346.0,2.0,692.0,519.0,173.0,346.0,865.0,1038.0,gray,circle
0.0,6.0,2.0,1.0,7.0,6.0,855.3304710003431,3.0,1.0,phase_3,,,,,580.0,5.0,464.0,116.0,232.0,348.0,696.0,580.0,magenta,hexagon
0.0,2.0,2.0,0.0,7.0,4.0,1973.109015999853,3.0,1.0,phase_3,,,,,116.0,1.0,348.0,232.0,464.0,116.0,696.0,580.0,yellow,I
0.0,2.0,2.0,0.0,7.0,3.0,1368.1191300001956,4.0,1.0,phase_3,,,,,675.0,5.0,135.0,540.0,675.0,405.0,270.0,810.0,yellow,I
0.0,7.0,3.0,1.0,7.0,3.0,1468.16044399975,4.0,1.0,phase_3,,,,,580.0,5.0,348.0,696.0,580.0,232.0,464.0,116.0,green,cross
0.0,2.0,2.0,0.0,7.0,2.0,2415.398041000117,4.0,1.0,phase_3,,,,,1152.0,6.0,768.0,1152.0,384.0,192.0,960.0,576.0,yellow,I
0.0,2.0,2.0,0.0,7.0,4.0,2491.359264000039,4.0,1.0,phase_3,,,,,960.0,5.0,384.0,192.0,576.0,960.0,1152.0,768.0,yellow,I
0.0,6.0,2.0,1.0,7.0,4.0,1310.017902999789,4.0,1.0,phase_3,,,,,540.0,4.0,675.0,135.0,810.0,540.0,270.0,405.0,magenta,hexagon
0.0,5.0,1.0,1.0,7.0,2.0,2157.7599749998626,4.0,1.0,phase_3,,,,,616.0,4.0,154.0,616.0,770.0,924.0,308.0,462.0,gray,circle
0.0,6.0,2.0,1.0,7.0,4.0,1356.3905979999618,4.0,1.0,phase_3,,,,,696.0,6.0,464.0,116.0,232.0,696.0,348.0,580.0,magenta,hexagon
0.0,3.0,3.0,0.0,7.0,3.0,1060.5545680000432,4.0,1.0,phase_3,,,,,540.0,4.0,270.0,135.0,540.0,405.0,810.0,675.0,blue,diamond
0.0,8.0,4.0,1.0,7.0,4.0,1145.4309229998216,4.0,1.0,phase_3,,,,,405.0,3.0,135.0,540.0,675.0,405.0,810.0,270.0,cyan,flipped triangle
0.0,3.0,3.0,0.0,7.0,3.0,1541.2641060001988,4.0,1.0,phase_3,,,,,770.0,5.0,462.0,154.0,770.0,924.0,616.0,308.0,blue,diamond
0.0,8.0,4.0,1.0,7.0,4.0,717.8861229999711,4.0,1.0,phase_3,,,,,192.0,1.0,384.0,576.0,768.0,192.0,960.0,1152.0,cyan,flipped triangle
0.0,7.0,3.0,1.0,7.0,3.0,1330.8204959998875,4.0,1.0,phase_3,,,,,810.0,6.0,540.0,675.0,810.0,270.0,135.0,405.0,green,cross
0.0,3.0,3.0,0.0,7.0,4.0,894.2938980003419,4.0,1.0,phase_3,,,,,232.0,2.0,348.0,464.0,696.0,232.0,116.0,580.0,blue,diamond
0.0,2.0,2.0,0.0,7.0,2.0,1519.8821069998305,4.0,1.0,phase_3,,,,,616.0,4.0,462.0,616.0,308.0,770.0,924.0,154.0,yellow,I
0.0,1.0,1.0,0.0,7.0,4.0,1011.4831240002786,4.0,1.0,phase_3,,,,,464.0,4.0,232.0,696.0,348.0,464.0,580.0,116.0,orange,square
0.0,1.0,1.0,0.0,7.0,4.0,938.680358000056,4.0,1.0,phase_3,,,,,1038.0,6.0,173.0,519.0,692.0,1038.0,346.0,865.0,orange,square
0.0,4.0,4.0,0.0,7.0,4.0,1234.7097639999447,4.0,1.0,phase_3,,,,,462.0,3.0,616.0,924.0,770.0,462.0,308.0,154.0,white,triangle
0.0,7.0,3.0,1.0,7.0,4.0,1078.0086630002188,4.0,1.0,phase_3,,,,,576.0,3.0,768.0,192.0,384.0,576.0,960.0,1152.0,green,cross
0.0,8.0,4.0,1.0,7.0,6.0,2350.8320910000293,4.0,1.0,phase_3,,,,,692.0,4.0,346.0,519.0,865.0,173.0,1038.0,692.0,cyan,flipped triangle
0.0,5.0,1.0,1.0,7.0,3.0,1969.016711000222,4.0,1.0,phase_3,,,,,270.0,2.0,540.0,810.0,270.0,675.0,135.0,405.0,gray,circle
