raw_reward_magnitude,stim_reward,stepwise_reward_magnitude,paired_with_stopping,stim_location,response,reaction_time,block,num_trial_presentations,which_phase,stop_signal_trial_type,left_SSD,right_SSD,accuracy,chosen_bidding_amount,chosen_bidding_level,possible_bid_1,possible_bid_2,possible_bid_3,possible_bid_4,possible_bid_5,possible_bid_6,color_text,shape_text
0.0,4.0,0.0,0.0,2.0,2.0,383.6642150000671,1.0,1.0,phase_1,,,,,,,,,,,,,orange,circle
628.0,3.0,2.0,0.0,3.0,3.0,326.549075999992,1.0,1.0,phase_1,,,,,,,,,,,,,gray,triangle
1297.0,4.0,4.0,0.0,4.0,4.0,439.0407120000645,1.0,1.0,phase_1,,,,,,,,,,,,,orange,circle
1316.0,8.0,4.0,1.0,2.0,2.0,363.3839679999937,1.0,2.0,phase_1,,,,,,,,,,,,,green,diamond
668.0,7.0,2.0,1.0,3.0,3.0,299.8330990000113,1.0,1.0,phase_1,,,,,,,,,,,,,white,flipped triangle
145.0,5.0,0.5,1.0,4.0,4.0,393.8187189999098,1.0,1.0,phase_1,,,,,,,,,,,,,blue,square
0.0,8.0,0.0,1.0,1.0,1.0,382.8607340000189,1.0,1.0,phase_1,,,,,,,,,,,,,green,diamond
302.0,6.0,1.0,1.0,4.0,4.0,411.0003050000159,1.0,1.0,phase_1,,,,,,,,,,,,,yellow,I
346.0,2.0,1.0,0.0,1.0,1.0,430.2643149999312,1.0,2.0,phase_1,,,,,,,,,,,,,cyan,cross
343.0,6.0,1.0,1.0,4.0,4.0,354.4111250000696,1.0,1.0,phase_1,,,,,,,,,,,,,yellow,I
165.0,5.0,0.5,1.0,3.0,3.0,372.8484140000319,1.0,1.0,phase_1,,,,,,,,,,,,,blue,square
159.0,1.0,0.5,0.0,3.0,3.0,364.3122109999694,1.0,1.0,phase_1,,,,,,,,,,,,,magenta,hexagon
347.0,6.0,1.0,1.0,2.0,2.0,280.6987330000083,1.0,1.0,phase_1,,,,,,,,,,,,,yellow,I
660.0,7.0,2.0,1.0,4.0,4.0,346.2693400000489,1.0,1.0,phase_1,,,,,,,,,,,,,white,flipped triangle
166.0,5.0,0.5,1.0,3.0,3.0,335.2584440000328,1.0,1.0,phase_1,,,,,,,,,,,,,blue,square
162.0,5.0,0.5,1.0,4.0,4.0,338.0722210000613,1.0,1.0,phase_1,,,,,,,,,,,,,blue,square
159.0,5.0,0.5,1.0,1.0,1.0,317.2148290000223,1.0,1.0,phase_1,,,,,,,,,,,,,blue,square
306.0,2.0,1.0,0.0,2.0,2.0,364.8213559999931,1.0,1.0,phase_1,,,,,,,,,,,,,cyan,cross
657.0,7.0,2.0,1.0,2.0,2.0,420.282942999961,1.0,1.0,phase_1,,,,,,,,,,,,,white,flipped triangle
181.0,1.0,0.5,0.0,4.0,4.0,346.1778129999402,1.0,1.0,phase_1,,,,,,,,,,,,,magenta,hexagon
1306.0,8.0,4.0,1.0,4.0,4.0,412.6340450000043,1.0,1.0,phase_1,,,,,,,,,,,,,green,diamond
163.0,1.0,0.5,0.0,1.0,1.0,335.8442769999783,1.0,1.0,phase_1,,,,,,,,,,,,,magenta,hexagon
0.0,7.0,0.0,1.0,2.0,2.0,467.5521159999789,1.0,1.0,phase_1,,,,,,,,,,,,,white,flipped triangle
316.0,6.0,1.0,1.0,1.0,1.0,439.7550459999593,1.0,1.0,phase_1,,,,,,,,,,,,,yellow,I
138.0,5.0,0.5,1.0,3.0,3.0,376.2733209999851,1.0,1.0,phase_1,,,,,,,,,,,,,blue,square
0.0,2.0,0.0,0.0,2.0,2.0,402.942517999918,1.0,1.0,phase_1,,,,,,,,,,,,,cyan,cross
1323.0,4.0,4.0,0.0,2.0,2.0,392.9568959999869,1.0,1.0,phase_1,,,,,,,,,,,,,orange,circle
1281.0,4.0,4.0,0.0,2.0,2.0,374.3488320000097,1.0,1.0,phase_1,,,,,,,,,,,,,orange,circle
1320.0,8.0,4.0,1.0,1.0,1.0,401.8460219999724,1.0,1.0,phase_1,,,,,,,,,,,,,green,diamond
667.0,7.0,2.0,1.0,1.0,1.0,346.5200670000286,1.0,1.0,phase_1,,,,,,,,,,,,,white,flipped triangle
1281.0,8.0,4.0,1.0,3.0,3.0,347.6167780000878,1.0,1.0,phase_1,,,,,,,,,,,,,green,diamond
630.0,7.0,2.0,1.0,2.0,2.0,410.4410830000233,1.0,1.0,phase_1,,,,,,,,,,,,,white,flipped triangle
314.0,2.0,1.0,0.0,1.0,1.0,532.0834679999962,1.0,1.0,phase_1,,,,,,,,,,,,,cyan,cross
0.0,3.0,0.0,0.0,4.0,4.0,365.1574799999935,1.0,1.0,phase_1,,,,,,,,,,,,,gray,triangle
344.0,2.0,1.0,0.0,3.0,3.0,364.8349720000396,1.0,1.0,phase_1,,,,,,,,,,,,,cyan,cross
659.0,7.0,2.0,1.0,1.0,1.0,308.2031479999614,1.0,1.0,phase_1,,,,,,,,,,,,,white,flipped triangle
0.0,6.0,0.0,1.0,1.0,1.0,307.4203649999845,1.0,1.0,phase_1,,,,,,,,,,,,,yellow,I
162.0,5.0,0.5,1.0,1.0,1.0,365.6877680000434,1.0,1.0,phase_1,,,,,,,,,,,,,blue,square
1293.0,8.0,4.0,1.0,3.0,3.0,355.5299869999544,1.0,1.0,phase_1,,,,,,,,,,,,,green,diamond
328.0,2.0,1.0,0.0,3.0,3.0,345.3897279999864,1.0,1.0,phase_1,,,,,,,,,,,,,cyan,cross
630.0,3.0,2.0,0.0,4.0,4.0,356.2647460000789,1.0,1.0,phase_1,,,,,,,,,,,,,gray,triangle
138.0,5.0,0.5,1.0,2.0,2.0,335.4336149999426,1.0,1.0,phase_1,,,,,,,,,,,,,blue,square
1298.0,4.0,4.0,0.0,4.0,4.0,354.0915020000739,1.0,1.0,phase_1,,,,,,,,,,,,,orange,circle
320.0,6.0,1.0,1.0,4.0,4.0,336.0500950000187,1.0,1.0,phase_1,,,,,,,,,,,,,yellow,I
0.0,1.0,0.0,0.0,4.0,4.0,325.8401490001006,1.0,1.0,phase_1,,,,,,,,,,,,,magenta,hexagon
673.0,3.0,2.0,0.0,1.0,1.0,513.4145600000011,1.0,1.0,phase_1,,,,,,,,,,,,,gray,triangle
165.0,1.0,0.5,0.0,1.0,1.0,421.2608320000299,1.0,1.0,phase_1,,,,,,,,,,,,,magenta,hexagon
649.0,7.0,2.0,1.0,3.0,3.0,364.2933840000069,1.0,1.0,phase_1,,,,,,,,,,,,,white,flipped triangle
314.0,6.0,1.0,1.0,3.0,3.0,318.8403970000308,1.0,1.0,phase_1,,,,,,,,,,,,,yellow,I
176.0,1.0,0.5,0.0,2.0,2.0,429.807882000091,1.0,1.0,phase_1,,,,,,,,,,,,,magenta,hexagon
0.0,1.0,0.0,0.0,3.0,3.0,383.5460960000318,1.0,1.0,phase_1,,,,,,,,,,,,,magenta,hexagon
320.0,2.0,1.0,0.0,1.0,1.0,394.0827149999677,1.0,1.0,phase_1,,,,,,,,,,,,,cyan,cross
316.0,2.0,1.0,0.0,4.0,4.0,430.657449000023,1.0,1.0,phase_1,,,,,,,,,,,,,cyan,cross
648.0,3.0,2.0,0.0,2.0,2.0,288.9960649999921,1.0,1.0,phase_1,,,,,,,,,,,,,gray,triangle
657.0,7.0,2.0,1.0,2.0,2.0,392.4011960000371,1.0,1.0,phase_1,,,,,,,,,,,,,white,flipped triangle
0.0,5.0,0.0,1.0,3.0,3.0,354.3562199999996,1.0,1.0,phase_1,,,,,,,,,,,,,blue,square
304.0,6.0,1.0,1.0,1.0,1.0,364.3150070000729,1.0,1.0,phase_1,,,,,,,,,,,,,yellow,I
333.0,6.0,1.0,1.0,3.0,3.0,299.2598680000355,1.0,1.0,phase_1,,,,,,,,,,,,,yellow,I
348.0,6.0,1.0,1.0,3.0,3.0,327.9066669999793,1.0,1.0,phase_1,,,,,,,,,,,,,yellow,I
155.0,5.0,0.5,1.0,1.0,1.0,298.1158830000368,1.0,1.0,phase_1,,,,,,,,,,,,,blue,square
170.0,5.0,0.5,1.0,3.0,3.0,317.3434620000535,1.0,1.0,phase_1,,,,,,,,,,,,,blue,square
1286.0,4.0,4.0,0.0,1.0,1.0,385.2581190000137,1.0,1.0,phase_1,,,,,,,,,,,,,orange,circle
309.0,2.0,1.0,0.0,1.0,1.0,317.3043740000594,1.0,1.0,phase_1,,,,,,,,,,,,,cyan,cross
667.0,3.0,2.0,0.0,1.0,1.0,372.3383870000134,1.0,1.0,phase_1,,,,,,,,,,,,,gray,triangle
313.0,6.0,1.0,1.0,2.0,2.0,326.7526619999898,1.0,2.0,phase_1,,,,,,,,,,,,,yellow,I
1277.0,8.0,4.0,1.0,4.0,4.0,418.749938000019,1.0,1.0,phase_1,,,,,,,,,,,,,green,diamond
1279.0,8.0,4.0,1.0,3.0,3.0,362.7526730000454,1.0,1.0,phase_1,,,,,,,,,,,,,green,diamond
302.0,2.0,1.0,0.0,4.0,4.0,390.9221640000169,1.0,1.0,phase_1,,,,,,,,,,,,,cyan,cross
325.0,6.0,1.0,1.0,3.0,3.0,345.2239109999482,1.0,1.0,phase_1,,,,,,,,,,,,,yellow,I
1310.0,4.0,4.0,0.0,3.0,3.0,344.3984100000534,1.0,1.0,phase_1,,,,,,,,,,,,,orange,circle
641.0,3.0,2.0,0.0,3.0,3.0,345.198804000006,1.0,1.0,phase_1,,,,,,,,,,,,,gray,triangle
659.0,3.0,2.0,0.0,3.0,3.0,347.1738650000588,1.0,1.0,phase_1,,,,,,,,,,,,,gray,triangle
318.0,6.0,1.0,1.0,4.0,4.0,475.78412200005,1.0,1.0,phase_1,,,,,,,,,,,,,yellow,I
631.0,7.0,2.0,1.0,4.0,4.0,448.2831750000287,1.0,1.0,phase_1,,,,,,,,,,,,,white,flipped triangle
173.0,5.0,0.5,1.0,4.0,4.0,392.930682000042,1.0,1.0,phase_1,,,,,,,,,,,,,blue,square
153.0,1.0,0.5,0.0,2.0,2.0,414.2629560000159,1.0,1.0,phase_1,,,,,,,,,,,,,magenta,hexagon
0.0,7.0,0.0,1.0,2.0,2.0,382.1388659999911,1.0,1.0,phase_1,,,,,,,,,,,,,white,flipped triangle
0.0,1.0,0.0,0.0,3.0,3.0,346.3846009999543,1.0,1.0,phase_1,,,,,,,,,,,,,magenta,hexagon
1300.0,4.0,4.0,0.0,1.0,1.0,429.4016379999448,1.0,1.0,phase_1,,,,,,,,,,,,,orange,circle
1321.0,4.0,4.0,0.0,2.0,2.0,354.7135229999867,1.0,1.0,phase_1,,,,,,,,,,,,,orange,circle
1283.0,8.0,4.0,1.0,3.0,3.0,382.3730829999476,1.0,1.0,phase_1,,,,,,,,,,,,,green,diamond
0.0,3.0,0.0,0.0,3.0,3.0,344.7926450000977,1.0,1.0,phase_1,,,,,,,,,,,,,gray,triangle
1306.0,4.0,4.0,0.0,3.0,3.0,354.8391880000281,1.0,1.0,phase_1,,,,,,,,,,,,,orange,circle
170.0,1.0,0.5,0.0,3.0,3.0,384.191077999958,1.0,1.0,phase_1,,,,,,,,,,,,,magenta,hexagon
645.0,3.0,2.0,0.0,1.0,1.0,428.6204339999813,1.0,1.0,phase_1,,,,,,,,,,,,,gray,triangle
672.0,7.0,2.0,1.0,3.0,3.0,383.2840269999451,1.0,1.0,phase_1,,,,,,,,,,,,,white,flipped triangle
0.0,1.0,0.0,0.0,1.0,1.0,431.7743569999948,1.0,2.0,phase_1,,,,,,,,,,,,,magenta,hexagon
329.0,6.0,1.0,1.0,1.0,1.0,391.7391770000904,1.0,1.0,phase_1,,,,,,,,,,,,,yellow,I
343.0,2.0,1.0,0.0,2.0,2.0,447.8412360000448,1.0,1.0,phase_1,,,,,,,,,,,,,cyan,cross
672.0,3.0,2.0,0.0,2.0,2.0,391.7620330000773,1.0,1.0,phase_1,,,,,,,,,,,,,gray,triangle
645.0,7.0,2.0,1.0,4.0,4.0,403.2567460000109,1.0,1.0,phase_1,,,,,,,,,,,,,white,flipped triangle
1320.0,8.0,4.0,1.0,2.0,2.0,308.9454390000128,1.0,1.0,phase_1,,,,,,,,,,,,,green,diamond
144.0,5.0,0.5,1.0,2.0,2.0,345.4870279999795,1.0,1.0,phase_1,,,,,,,,,,,,,blue,square
166.0,1.0,0.5,0.0,2.0,2.0,325.9628209999619,1.0,1.0,phase_1,,,,,,,,,,,,,magenta,hexagon
333.0,2.0,1.0,0.0,3.0,3.0,402.3482929999318,1.0,1.0,phase_1,,,,,,,,,,,,,cyan,cross
1301.0,8.0,4.0,1.0,4.0,4.0,373.3114640000394,1.0,1.0,phase_1,,,,,,,,,,,,,green,diamond
0.0,3.0,0.0,0.0,1.0,1.0,465.6511080000882,1.0,1.0,phase_1,,,,,,,,,,,,,gray,triangle
651.0,7.0,2.0,1.0,3.0,3.0,420.0506380000206,1.0,1.0,phase_1,,,,,,,,,,,,,white,flipped triangle
147.0,5.0,0.5,1.0,3.0,3.0,523.8546399999677,1.0,1.0,phase_1,,,,,,,,,,,,,blue,square
322.0,2.0,1.0,0.0,4.0,4.0,400.1164669999753,1.0,1.0,phase_1,,,,,,,,,,,,,cyan,cross
0.0,2.0,0.0,0.0,3.0,3.0,495.3806999999415,2.0,1.0,phase_1,,,,,,,,,,,,,cyan,cross
0.0,6.0,0.0,1.0,4.0,4.0,438.9034880000508,2.0,1.0,phase_1,,,,,,,,,,,,,yellow,I
0.0,8.0,0.0,1.0,3.0,3.0,317.3300880000624,2.0,1.0,phase_1,,,,,,,,,,,,,green,diamond
153.0,5.0,0.5,1.0,2.0,2.0,364.1690599999947,2.0,1.0,phase_1,,,,,,,,,,,,,blue,square
672.0,3.0,2.0,0.0,3.0,3.0,345.2386930000557,2.0,1.0,phase_1,,,,,,,,,,,,,gray,triangle
328.0,2.0,1.0,0.0,1.0,1.0,430.2401889999601,2.0,1.0,phase_1,,,,,,,,,,,,,cyan,cross
1297.0,8.0,4.0,1.0,4.0,4.0,346.6845860000376,2.0,1.0,phase_1,,,,,,,,,,,,,green,diamond
633.0,3.0,2.0,0.0,3.0,3.0,364.30357800009,2.0,1.0,phase_1,,,,,,,,,,,,,gray,triangle
1288.0,4.0,4.0,0.0,1.0,1.0,430.2115779998985,2.0,1.0,phase_1,,,,,,,,,,,,,orange,circle
147.0,5.0,0.5,1.0,1.0,1.0,381.737861999909,2.0,1.0,phase_1,,,,,,,,,,,,,blue,square
1316.0,4.0,4.0,0.0,3.0,3.0,345.7223490001979,2.0,1.0,phase_1,,,,,,,,,,,,,orange,circle
315.0,6.0,1.0,1.0,4.0,4.0,410.7505580000179,2.0,1.0,phase_1,,,,,,,,,,,,,yellow,I
153.0,5.0,0.5,1.0,1.0,1.0,327.6025409998055,2.0,1.0,phase_1,,,,,,,,,,,,,blue,square
343.0,6.0,1.0,1.0,4.0,4.0,412.4463900000137,2.0,1.0,phase_1,,,,,,,,,,,,,yellow,I
1288.0,4.0,4.0,0.0,3.0,3.0,383.3762560000195,2.0,1.0,phase_1,,,,,,,,,,,,,orange,circle
1309.0,8.0,4.0,1.0,3.0,3.0,374.0093199999137,2.0,1.0,phase_1,,,,,,,,,,,,,green,diamond
0.0,3.0,0.0,0.0,1.0,1.0,449.2403450001347,2.0,1.0,phase_1,,,,,,,,,,,,,gray,triangle
0.0,8.0,0.0,1.0,1.0,1.0,430.425778999961,2.0,1.0,phase_1,,,,,,,,,,,,,green,diamond
307.0,2.0,1.0,0.0,3.0,3.0,356.0366599999724,2.0,1.0,phase_1,,,,,,,,,,,,,cyan,cross
650.0,7.0,2.0,1.0,4.0,4.0,290.6104239998512,2.0,1.0,phase_1,,,,,,,,,,,,,white,flipped triangle
648.0,3.0,2.0,0.0,3.0,3.0,402.9050229999029,2.0,1.0,phase_1,,,,,,,,,,,,,gray,triangle
318.0,2.0,1.0,0.0,4.0,4.0,421.7269040000246,2.0,1.0,phase_1,,,,,,,,,,,,,cyan,cross
0.0,6.0,0.0,1.0,4.0,4.0,345.8696589998453,2.0,1.0,phase_1,,,,,,,,,,,,,yellow,I
0.0,5.0,0.0,1.0,2.0,2.0,477.0381770001677,2.0,1.0,phase_1,,,,,,,,,,,,,blue,square
643.0,3.0,2.0,0.0,4.0,4.0,438.6059050000312,2.0,1.0,phase_1,,,,,,,,,,,,,gray,triangle
657.0,3.0,2.0,0.0,1.0,1.0,534.3455770000674,2.0,1.0,phase_1,,,,,,,,,,,,,gray,triangle
0.0,8.0,0.0,1.0,3.0,3.0,392.6299279999057,2.0,1.0,phase_1,,,,,,,,,,,,,green,diamond
158.0,1.0,0.5,0.0,1.0,1.0,384.0113329999894,2.0,1.0,phase_1,,,,,,,,,,,,,magenta,hexagon
162.0,1.0,0.5,0.0,3.0,3.0,338.5984389999521,2.0,1.0,phase_1,,,,,,,,,,,,,magenta,hexagon
155.0,1.0,0.5,0.0,2.0,2.0,375.4709580000508,2.0,1.0,phase_1,,,,,,,,,,,,,magenta,hexagon
313.0,6.0,1.0,1.0,4.0,4.0,420.4146070001116,2.0,1.0,phase_1,,,,,,,,,,,,,yellow,I
651.0,7.0,2.0,1.0,3.0,3.0,401.8874959999721,2.0,1.0,phase_1,,,,,,,,,,,,,white,flipped triangle
636.0,7.0,2.0,1.0,4.0,4.0,327.1797239999614,2.0,1.0,phase_1,,,,,,,,,,,,,white,flipped triangle
158.0,5.0,0.5,1.0,3.0,3.0,336.5243209998425,2.0,1.0,phase_1,,,,,,,,,,,,,blue,square
636.0,7.0,2.0,1.0,4.0,4.0,326.749085000074,2.0,1.0,phase_1,,,,,,,,,,,,,white,flipped triangle
0.0,5.0,0.0,1.0,4.0,4.0,374.9711720001869,2.0,1.0,phase_1,,,,,,,,,,,,,blue,square
0.0,6.0,0.0,1.0,3.0,3.0,327.267466999956,2.0,1.0,phase_1,,,,,,,,,,,,,yellow,I
1293.0,4.0,4.0,0.0,2.0,2.0,419.8678759998984,2.0,1.0,phase_1,,,,,,,,,,,,,orange,circle
149.0,1.0,0.5,0.0,4.0,4.0,356.0395039999093,2.0,1.0,phase_1,,,,,,,,,,,,,magenta,hexagon
162.0,1.0,0.5,0.0,3.0,3.0,337.0760530001462,2.0,1.0,phase_1,,,,,,,,,,,,,magenta,hexagon
632.0,7.0,2.0,1.0,4.0,4.0,429.4836849999228,2.0,1.0,phase_1,,,,,,,,,,,,,white,flipped triangle
659.0,7.0,2.0,1.0,1.0,1.0,392.2006430000238,2.0,1.0,phase_1,,,,,,,,,,,,,white,flipped triangle
1298.0,4.0,4.0,0.0,4.0,4.0,560.2247809999881,2.0,1.0,phase_1,,,,,,,,,,,,,orange,circle
186.0,1.0,0.5,0.0,4.0,4.0,364.3248659998335,2.0,1.0,phase_1,,,,,,,,,,,,,magenta,hexagon
1286.0,8.0,4.0,1.0,1.0,1.0,477.3242320000008,2.0,1.0,phase_1,,,,,,,,,,,,,green,diamond
181.0,1.0,0.5,0.0,1.0,1.0,420.5483359999107,2.0,1.0,phase_1,,,,,,,,,,,,,magenta,hexagon
0.0,4.0,0.0,0.0,3.0,3.0,392.4994200001492,2.0,1.0,phase_1,,,,,,,,,,,,,orange,circle
0.0,1.0,0.0,0.0,2.0,2.0,364.3171580001763,2.0,1.0,phase_1,,,,,,,,,,,,,magenta,hexagon
0.0,4.0,0.0,0.0,3.0,3.0,327.1399650000148,2.0,1.0,phase_1,,,,,,,,,,,,,orange,circle
140.0,5.0,0.5,1.0,2.0,2.0,504.9295379999421,2.0,1.0,phase_1,,,,,,,,,,,,,blue,square
325.0,2.0,1.0,0.0,1.0,1.0,486.1998720000429,2.0,1.0,phase_1,,,,,,,,,,,,,cyan,cross
628.0,7.0,2.0,1.0,3.0,3.0,363.7013099998967,2.0,1.0,phase_1,,,,,,,,,,,,,white,flipped triangle
1305.0,8.0,4.0,1.0,4.0,4.0,466.9180849998611,2.0,1.0,phase_1,,,,,,,,,,,,,green,diamond
162.0,5.0,0.5,1.0,2.0,2.0,355.0366629999644,2.0,1.0,phase_1,,,,,,,,,,,,,blue,square
1324.0,4.0,4.0,0.0,4.0,4.0,364.2403759999979,2.0,1.0,phase_1,,,,,,,,,,,,,orange,circle
147.0,1.0,0.5,0.0,1.0,1.0,440.2752130001772,2.0,1.0,phase_1,,,,,,,,,,,,,magenta,hexagon
0.0,2.0,0.0,0.0,4.0,4.0,469.6510110002236,2.0,1.0,phase_1,,,,,,,,,,,,,cyan,cross
1301.0,8.0,4.0,1.0,4.0,4.0,356.4279999998234,2.0,1.0,phase_1,,,,,,,,,,,,,green,diamond
1309.0,4.0,4.0,0.0,4.0,4.0,412.3568259999501,2.0,1.0,phase_1,,,,,,,,,,,,,orange,circle
310.0,6.0,1.0,1.0,1.0,1.0,411.1404549998951,2.0,1.0,phase_1,,,,,,,,,,,,,yellow,I
0.0,4.0,0.0,0.0,3.0,3.0,336.5468649999457,2.0,1.0,phase_1,,,,,,,,,,,,,orange,circle
655.0,3.0,2.0,0.0,1.0,1.0,383.1184400000893,2.0,1.0,phase_1,,,,,,,,,,,,,gray,triangle
345.0,2.0,1.0,0.0,3.0,3.0,326.7797089999931,2.0,1.0,phase_1,,,,,,,,,,,,,cyan,cross
0.0,4.0,0.0,0.0,3.0,3.0,346.4812459999393,2.0,1.0,phase_1,,,,,,,,,,,,,orange,circle
348.0,2.0,1.0,0.0,3.0,3.0,338.3211170000777,2.0,1.0,phase_1,,,,,,,,,,,,,cyan,cross
326.0,2.0,1.0,0.0,2.0,2.0,364.6292809999067,2.0,1.0,phase_1,,,,,,,,,,,,,cyan,cross
1298.0,8.0,4.0,1.0,2.0,2.0,390.9193130000403,2.0,1.0,phase_1,,,,,,,,,,,,,green,diamond
345.0,6.0,1.0,1.0,2.0,2.0,393.1534289999945,2.0,1.0,phase_1,,,,,,,,,,,,,yellow,I
1289.0,4.0,4.0,0.0,1.0,1.0,374.755081000103,2.0,1.0,phase_1,,,,,,,,,,,,,orange,circle
0.0,5.0,0.0,1.0,2.0,2.0,429.9082060001638,2.0,1.0,phase_1,,,,,,,,,,,,,blue,square
176.0,5.0,0.5,1.0,1.0,1.0,327.8334080000604,2.0,1.0,phase_1,,,,,,,,,,,,,blue,square
1298.0,8.0,4.0,1.0,4.0,4.0,450.2195430000029,2.0,1.0,phase_1,,,,,,,,,,,,,green,diamond
310.0,2.0,1.0,0.0,1.0,1.0,346.7123479999827,2.0,1.0,phase_1,,,,,,,,,,,,,cyan,cross
0.0,6.0,0.0,1.0,2.0,2.0,420.4560030000266,2.0,1.0,phase_1,,,,,,,,,,,,,yellow,I
1313.0,8.0,4.0,1.0,4.0,4.0,402.0294439999361,2.0,1.0,phase_1,,,,,,,,,,,,,green,diamond
667.0,3.0,2.0,0.0,2.0,2.0,355.505858000015,2.0,1.0,phase_1,,,,,,,,,,,,,gray,triangle
0.0,3.0,0.0,0.0,3.0,3.0,392.2188839999307,2.0,1.0,phase_1,,,,,,,,,,,,,gray,triangle
0.0,5.0,0.0,1.0,2.0,2.0,698.9732209999602,2.0,1.0,phase_1,,,,,,,,,,,,,blue,square
302.0,2.0,1.0,0.0,3.0,3.0,448.8110789998245,2.0,1.0,phase_1,,,,,,,,,,,,,cyan,cross
318.0,2.0,1.0,0.0,4.0,4.0,430.2494990001833,2.0,1.0,phase_1,,,,,,,,,,,,,cyan,cross
162.0,1.0,0.5,0.0,4.0,4.0,447.4401840000155,2.0,1.0,phase_1,,,,,,,,,,,,,magenta,hexagon
306.0,6.0,1.0,1.0,4.0,4.0,412.9142320000483,2.0,1.0,phase_1,,,,,,,,,,,,,yellow,I
344.0,6.0,1.0,1.0,2.0,2.0,522.7680460000101,2.0,1.0,phase_1,,,,,,,,,,,,,yellow,I
181.0,5.0,0.5,1.0,2.0,2.0,459.9622109999473,2.0,1.0,phase_1,,,,,,,,,,,,,blue,square
1305.0,4.0,4.0,0.0,3.0,3.0,345.6580500001109,2.0,1.0,phase_1,,,,,,,,,,,,,orange,circle
0.0,5.0,0.0,1.0,3.0,3.0,393.4139409998352,2.0,1.0,phase_1,,,,,,,,,,,,,blue,square
668.0,3.0,2.0,0.0,1.0,1.0,419.7051099999953,2.0,1.0,phase_1,,,,,,,,,,,,,gray,triangle
326.0,6.0,1.0,1.0,2.0,2.0,449.3520810001428,2.0,1.0,phase_1,,,,,,,,,,,,,yellow,I
178.0,1.0,0.5,0.0,4.0,4.0,458.2288040001003,2.0,1.0,phase_1,,,,,,,,,,,,,magenta,hexagon
347.0,2.0,1.0,0.0,2.0,2.0,363.9360039999246,2.0,1.0,phase_1,,,,,,,,,,,,,cyan,cross
0.0,6.0,0.0,1.0,1.0,1.0,486.7143300000407,2.0,1.0,phase_1,,,,,,,,,,,,,yellow,I
305.0,2.0,1.0,0.0,3.0,3.0,412.9696239999703,2.0,1.0,phase_1,,,,,,,,,,,,,cyan,cross
1313.0,8.0,4.0,1.0,2.0,2.0,337.2718030000214,2.0,1.0,phase_1,,,,,,,,,,,,,green,diamond
1291.0,4.0,4.0,0.0,2.0,2.0,383.9033410001775,2.0,1.0,phase_1,,,,,,,,,,,,,orange,circle
329.0,2.0,1.0,0.0,2.0,2.0,280.8322050000242,2.0,1.0,phase_1,,,,,,,,,,,,,cyan,cross
0.0,2.0,0.0,0.0,3.0,3.0,431.0474149999663,2.0,1.0,phase_1,,,,,,,,,,,,,cyan,cross
1323.0,8.0,4.0,1.0,2.0,2.0,317.09266200005,2.0,1.0,phase_1,,,,,,,,,,,,,green,diamond
632.0,7.0,2.0,1.0,1.0,1.0,373.2593120000729,2.0,1.0,phase_1,,,,,,,,,,,,,white,flipped triangle
632.0,3.0,2.0,0.0,3.0,3.0,393.5428800000409,2.0,1.0,phase_1,,,,,,,,,,,,,gray,triangle
633.0,3.0,2.0,0.0,4.0,4.0,401.9775379999828,2.0,1.0,phase_1,,,,,,,,,,,,,gray,triangle
313.0,2.0,1.0,0.0,2.0,2.0,384.3303680000645,3.0,1.0,phase_1,,,,,,,,,,,,,cyan,cross
0.0,3.0,0.0,0.0,2.0,2.0,307.3654279999118,3.0,1.0,phase_1,,,,,,,,,,,,,gray,triangle
0.0,8.0,0.0,1.0,3.0,3.0,355.0031899999339,3.0,1.0,phase_1,,,,,,,,,,,,,green,diamond
326.0,2.0,1.0,0.0,2.0,2.0,357.1681379999063,3.0,1.0,phase_1,,,,,,,,,,,,,cyan,cross
0.0,2.0,0.0,0.0,2.0,2.0,337.6773620000222,3.0,1.0,phase_1,,,,,,,,,,,,,cyan,cross
649.0,3.0,2.0,0.0,1.0,1.0,345.7278739999765,3.0,1.0,phase_1,,,,,,,,,,,,,gray,triangle
145.0,5.0,0.5,1.0,4.0,4.0,458.6128920000192,3.0,1.0,phase_1,,,,,,,,,,,,,blue,square
0.0,7.0,0.0,1.0,1.0,1.0,561.0847589998684,3.0,1.0,phase_1,,,,,,,,,,,,,white,flipped triangle
0.0,8.0,0.0,1.0,3.0,3.0,374.5285810000496,3.0,1.0,phase_1,,,,,,,,,,,,,green,diamond
346.0,6.0,1.0,1.0,2.0,2.0,345.3829970001152,3.0,1.0,phase_1,,,,,,,,,,,,,yellow,I
0.0,7.0,0.0,1.0,3.0,3.0,383.5190110000894,3.0,1.0,phase_1,,,,,,,,,,,,,white,flipped triangle
652.0,7.0,2.0,1.0,2.0,2.0,336.4424829999279,3.0,1.0,phase_1,,,,,,,,,,,,,white,flipped triangle
655.0,7.0,2.0,1.0,3.0,3.0,355.9066589998565,3.0,1.0,phase_1,,,,,,,,,,,,,white,flipped triangle
1313.0,4.0,4.0,0.0,3.0,3.0,393.1038820001049,3.0,1.0,phase_1,,,,,,,,,,,,,orange,circle
641.0,7.0,2.0,1.0,1.0,1.0,393.2014550000531,3.0,1.0,phase_1,,,,,,,,,,,,,white,flipped triangle
185.0,5.0,0.5,1.0,4.0,4.0,337.5871509999797,3.0,1.0,phase_1,,,,,,,,,,,,,blue,square
0.0,5.0,0.0,1.0,1.0,1.0,364.729423999961,3.0,1.0,phase_1,,,,,,,,,,,,,blue,square
178.0,5.0,0.5,1.0,4.0,4.0,412.1994090000953,3.0,1.0,phase_1,,,,,,,,,,,,,blue,square
632.0,3.0,2.0,0.0,4.0,4.0,512.6657470000282,3.0,1.0,phase_1,,,,,,,,,,,,,gray,triangle
668.0,3.0,2.0,0.0,4.0,4.0,438.9695339998525,3.0,1.0,phase_1,,,,,,,,,,,,,gray,triangle
309.0,6.0,1.0,1.0,1.0,1.0,568.5000859998581,3.0,1.0,phase_1,,,,,,,,,,,,,yellow,I
1281.0,4.0,4.0,0.0,3.0,3.0,440.5116660000203,3.0,1.0,phase_1,,,,,,,,,,,,,orange,circle
1278.0,4.0,4.0,0.0,1.0,1.0,514.3238119999296,3.0,1.0,phase_1,,,,,,,,,,,,,orange,circle
144.0,1.0,0.5,0.0,2.0,2.0,675.1101360000575,3.0,1.0,phase_1,,,,,,,,,,,,,magenta,hexagon
0.0,5.0,0.0,1.0,3.0,3.0,485.1624820000779,3.0,1.0,phase_1,,,,,,,,,,,,,blue,square
1317.0,8.0,4.0,1.0,1.0,1.0,531.9530699998722,3.0,1.0,phase_1,,,,,,,,,,,,,green,diamond
328.0,6.0,1.0,1.0,1.0,1.0,457.4084209998545,3.0,1.0,phase_1,,,,,,,,,,,,,yellow,I
1297.0,8.0,4.0,1.0,1.0,1.0,429.1859420000037,3.0,1.0,phase_1,,,,,,,,,,,,,green,diamond
0.0,4.0,0.0,0.0,2.0,2.0,485.2619819998836,3.0,1.0,phase_1,,,,,,,,,,,,,orange,circle
171.0,5.0,0.5,1.0,1.0,1.0,467.3086100001455,3.0,1.0,phase_1,,,,,,,,,,,,,blue,square
150.0,5.0,0.5,1.0,2.0,2.0,391.0423079998963,3.0,1.0,phase_1,,,,,,,,,,,,,blue,square
631.0,3.0,2.0,0.0,1.0,1.0,372.8760050000801,3.0,1.0,phase_1,,,,,,,,,,,,,gray,triangle
627.0,7.0,2.0,1.0,1.0,1.0,505.15550000000076,3.0,1.0,phase_1,,,,,,,,,,,,,white,flipped triangle
0.0,7.0,0.0,1.0,3.0,3.0,504.7017069998674,3.0,1.0,phase_1,,,,,,,,,,,,,white,flipped triangle
338.0,2.0,1.0,0.0,4.0,4.0,458.5934479998741,3.0,1.0,phase_1,,,,,,,,,,,,,cyan,cross
182.0,5.0,0.5,1.0,3.0,3.0,421.4889149998271,3.0,1.0,phase_1,,,,,,,,,,,,,blue,square
1302.0,8.0,4.0,1.0,3.0,3.0,363.8831340001616,3.0,1.0,phase_1,,,,,,,,,,,,,green,diamond
0.0,4.0,0.0,0.0,3.0,3.0,382.1281549999185,3.0,1.0,phase_1,,,,,,,,,,,,,orange,circle
1307.0,8.0,4.0,1.0,1.0,1.0,504.9936230000185,3.0,1.0,phase_1,,,,,,,,,,,,,green,diamond
633.0,7.0,2.0,1.0,2.0,2.0,617.4368980000509,3.0,1.0,phase_1,,,,,,,,,,,,,white,flipped triangle
302.0,6.0,1.0,1.0,2.0,2.0,419.5913290000135,3.0,1.0,phase_1,,,,,,,,,,,,,yellow,I
1278.0,4.0,4.0,0.0,2.0,2.0,355.7215319999613,3.0,1.0,phase_1,,,,,,,,,,,,,orange,circle
180.0,5.0,0.5,1.0,3.0,3.0,400.960484000052,3.0,1.0,phase_1,,,,,,,,,,,,,blue,square
181.0,5.0,0.5,1.0,4.0,4.0,428.5144099999343,3.0,1.0,phase_1,,,,,,,,,,,,,blue,square
145.0,1.0,0.5,0.0,3.0,3.0,391.6743069999029,3.0,1.0,phase_1,,,,,,,,,,,,,magenta,hexagon
322.0,2.0,1.0,0.0,4.0,4.0,364.8220369998398,3.0,1.0,phase_1,,,,,,,,,,,,,cyan,cross
1291.0,4.0,4.0,0.0,4.0,4.0,428.6911280000822,3.0,1.0,phase_1,,,,,,,,,,,,,orange,circle
152.0,5.0,0.5,1.0,1.0,1.0,412.8257190000113,3.0,1.0,phase_1,,,,,,,,,,,,,blue,square
333.0,6.0,1.0,1.0,3.0,3.0,448.5996640000849,3.0,1.0,phase_1,,,,,,,,,,,,,yellow,I
162.0,5.0,0.5,1.0,1.0,1.0,364.187622999907,3.0,1.0,phase_1,,,,,,,,,,,,,blue,square
322.0,6.0,1.0,1.0,4.0,4.0,363.9757969999664,3.0,1.0,phase_1,,,,,,,,,,,,,yellow,I
1291.0,8.0,4.0,1.0,4.0,4.0,347.213555000053,3.0,1.0,phase_1,,,,,,,,,,,,,green,diamond
668.0,7.0,2.0,1.0,3.0,3.0,392.876957999988,3.0,1.0,phase_1,,,,,,,,,,,,,white,flipped triangle
662.0,7.0,2.0,1.0,2.0,2.0,626.5665459998218,3.0,1.0,phase_1,,,,,,,,,,,,,white,flipped triangle
648.0,7.0,2.0,1.0,2.0,2.0,374.3477790001179,3.0,1.0,phase_1,,,,,,,,,,,,,white,flipped triangle
1323.0,8.0,4.0,1.0,4.0,4.0,420.9678750000876,3.0,1.0,phase_1,,,,,,,,,,,,,green,diamond
180.0,1.0,0.5,0.0,2.0,2.0,541.7906259999654,3.0,1.0,phase_1,,,,,,,,,,,,,magenta,hexagon
0.0,1.0,0.0,0.0,3.0,3.0,447.5570340000558,3.0,1.0,phase_1,,,,,,,,,,,,,magenta,hexagon
0.0,2.0,0.0,0.0,4.0,4.0,383.6166260000482,3.0,1.0,phase_1,,,,,,,,,,,,,cyan,cross
138.0,1.0,0.5,0.0,2.0,2.0,391.8769020001491,3.0,1.0,phase_1,,,,,,,,,,,,,magenta,hexagon
185.0,5.0,0.5,1.0,4.0,4.0,327.8548809998938,3.0,1.0,phase_1,,,,,,,,,,,,,blue,square
628.0,7.0,2.0,1.0,4.0,4.0,364.0889589999005,3.0,1.0,phase_1,,,,,,,,,,,,,white,flipped triangle
337.0,6.0,1.0,1.0,2.0,2.0,401.7119779998666,3.0,1.0,phase_1,,,,,,,,,,,,,yellow,I
145.0,1.0,0.5,0.0,1.0,1.0,559.7206169998117,3.0,1.0,phase_1,,,,,,,,,,,,,magenta,hexagon
636.0,3.0,2.0,0.0,2.0,2.0,466.3442620001206,3.0,1.0,phase_1,,,,,,,,,,,,,gray,triangle
1289.0,8.0,4.0,1.0,2.0,2.0,382.4273790000916,3.0,1.0,phase_1,,,,,,,,,,,,,green,diamond
0.0,6.0,0.0,1.0,2.0,2.0,372.8773519999322,3.0,1.0,phase_1,,,,,,,,,,,,,yellow,I
182.0,1.0,0.5,0.0,1.0,1.0,391.7624180000985,3.0,1.0,phase_1,,,,,,,,,,,,,magenta,hexagon
0.0,5.0,0.0,1.0,1.0,1.0,364.5719579999422,3.0,1.0,phase_1,,,,,,,,,,,,,blue,square
0.0,2.0,0.0,0.0,4.0,4.0,476.861172000099,3.0,1.0,phase_1,,,,,,,,,,,,,cyan,cross
1324.0,8.0,4.0,1.0,1.0,1.0,362.912334000157,3.0,1.0,phase_1,,,,,,,,,,,,,green,diamond
161.0,5.0,0.5,1.0,3.0,3.0,390.6938810000611,3.0,1.0,phase_1,,,,,,,,,,,,,blue,square
309.0,2.0,1.0,0.0,4.0,4.0,466.9687970001632,3.0,1.0,phase_1,,,,,,,,,,,,,cyan,cross
1291.0,8.0,4.0,1.0,1.0,1.0,449.8803659998884,3.0,1.0,phase_1,,,,,,,,,,,,,green,diamond
0.0,4.0,0.0,0.0,4.0,4.0,346.3555010000618,3.0,1.0,phase_1,,,,,,,,,,,,,orange,circle
0.0,8.0,0.0,1.0,4.0,4.0,400.4737340001156,3.0,1.0,phase_1,,,,,,,,,,,,,green,diamond
162.0,1.0,0.5,0.0,3.0,3.0,401.7458750001879,3.0,1.0,phase_1,,,,,,,,,,,,,magenta,hexagon
650.0,3.0,2.0,0.0,3.0,3.0,447.1642410001095,3.0,1.0,phase_1,,,,,,,,,,,,,gray,triangle
1288.0,8.0,4.0,1.0,1.0,1.0,550.1104569998461,3.0,2.0,phase_1,,,,,,,,,,,,,green,diamond
1305.0,8.0,4.0,1.0,2.0,2.0,541.8758430000707,3.0,1.0,phase_1,,,,,,,,,,,,,green,diamond
0.0,7.0,0.0,1.0,1.0,1.0,410.5085260000578,3.0,1.0,phase_1,,,,,,,,,,,,,white,flipped triangle
326.0,6.0,1.0,1.0,3.0,3.0,475.6908970000495,3.0,1.0,phase_1,,,,,,,,,,,,,yellow,I
186.0,5.0,0.5,1.0,4.0,4.0,467.2622049999972,3.0,1.0,phase_1,,,,,,,,,,,,,blue,square
1315.0,8.0,4.0,1.0,3.0,3.0,430.0522940000064,3.0,1.0,phase_1,,,,,,,,,,,,,green,diamond
651.0,3.0,2.0,0.0,2.0,2.0,447.6232279998839,3.0,1.0,phase_1,,,,,,,,,,,,,gray,triangle
0.0,2.0,0.0,0.0,2.0,2.0,384.0469659999144,3.0,1.0,phase_1,,,,,,,,,,,,,cyan,cross
0.0,6.0,0.0,1.0,1.0,1.0,439.3154110000523,3.0,1.0,phase_1,,,,,,,,,,,,,yellow,I
0.0,4.0,0.0,0.0,4.0,4.0,448.7480370000867,3.0,1.0,phase_1,,,,,,,,,,,,,orange,circle
138.0,1.0,0.5,0.0,3.0,3.0,487.1301380001114,3.0,1.0,phase_1,,,,,,,,,,,,,magenta,hexagon
346.0,6.0,1.0,1.0,4.0,4.0,476.502180000125,3.0,1.0,phase_1,,,,,,,,,,,,,yellow,I
642.0,7.0,2.0,1.0,1.0,1.0,487.2240450001754,3.0,1.0,phase_1,,,,,,,,,,,,,white,flipped triangle
147.0,5.0,0.5,1.0,4.0,4.0,458.1106579998959,3.0,1.0,phase_1,,,,,,,,,,,,,blue,square
0.0,1.0,0.0,0.0,1.0,1.0,365.3529340001569,3.0,1.0,phase_1,,,,,,,,,,,,,magenta,hexagon
1301.0,4.0,4.0,0.0,4.0,4.0,420.0320459999602,3.0,1.0,phase_1,,,,,,,,,,,,,orange,circle
1294.0,8.0,4.0,1.0,2.0,2.0,401.8171069999425,3.0,1.0,phase_1,,,,,,,,,,,,,green,diamond
1307.0,4.0,4.0,0.0,2.0,2.0,437.7704070000163,3.0,1.0,phase_1,,,,,,,,,,,,,orange,circle
309.0,6.0,1.0,1.0,1.0,1.0,382.8466699999353,3.0,1.0,phase_1,,,,,,,,,,,,,yellow,I
0.0,6.0,0.0,1.0,4.0,4.0,476.2692720000814,3.0,1.0,phase_1,,,,,,,,,,,,,yellow,I
185.0,1.0,0.5,0.0,4.0,4.0,486.2764510000943,3.0,1.0,phase_1,,,,,,,,,,,,,magenta,hexagon
163.0,5.0,0.5,1.0,3.0,3.0,496.353463999867,3.0,1.0,phase_1,,,,,,,,,,,,,blue,square
328.0,6.0,1.0,1.0,1.0,1.0,671.4820110000801,4.0,1.0,phase_1,,,,,,,,,,,,,yellow,I
161.0,1.0,0.5,0.0,3.0,3.0,430.7218339999963,4.0,1.0,phase_1,,,,,,,,,,,,,magenta,hexagon
1301.0,4.0,4.0,0.0,1.0,1.0,448.55474099995257,4.0,1.0,phase_1,,,,,,,,,,,,,orange,circle
657.0,3.0,2.0,0.0,3.0,3.0,372.7213499998925,4.0,1.0,phase_1,,,,,,,,,,,,,gray,triangle
667.0,7.0,2.0,1.0,1.0,1.0,412.0427830000608,4.0,1.0,phase_1,,,,,,,,,,,,,white,flipped triangle
346.0,2.0,1.0,0.0,2.0,2.0,495.5109059999358,4.0,1.0,phase_1,,,,,,,,,,,,,cyan,cross
0.0,8.0,0.0,1.0,2.0,2.0,420.0079980000737,4.0,1.0,phase_1,,,,,,,,,,,,,green,diamond
669.0,3.0,2.0,0.0,3.0,3.0,393.3377700000164,4.0,1.0,phase_1,,,,,,,,,,,,,gray,triangle
628.0,3.0,2.0,0.0,4.0,4.0,459.8332739999478,4.0,1.0,phase_1,,,,,,,,,,,,,gray,triangle
322.0,6.0,1.0,1.0,3.0,3.0,597.1305279999797,4.0,1.0,phase_1,,,,,,,,,,,,,yellow,I
669.0,7.0,2.0,1.0,3.0,3.0,468.1410570001389,4.0,1.0,phase_1,,,,,,,,,,,,,white,flipped triangle
0.0,7.0,0.0,1.0,4.0,4.0,392.7929960000256,4.0,1.0,phase_1,,,,,,,,,,,,,white,flipped triangle
0.0,5.0,0.0,1.0,1.0,1.0,485.3341370001089,4.0,1.0,phase_1,,,,,,,,,,,,,blue,square
152.0,1.0,0.5,0.0,1.0,1.0,402.1292049999374,4.0,1.0,phase_1,,,,,,,,,,,,,magenta,hexagon
672.0,7.0,2.0,1.0,1.0,1.0,354.8534930000642,4.0,1.0,phase_1,,,,,,,,,,,,,white,flipped triangle
640.0,7.0,2.0,1.0,1.0,1.0,354.32998400006,4.0,1.0,phase_1,,,,,,,,,,,,,white,flipped triangle
1278.0,8.0,4.0,1.0,3.0,3.0,457.1928249999928,4.0,1.0,phase_1,,,,,,,,,,,,,green,diamond
0.0,3.0,0.0,0.0,2.0,2.0,456.1620459999176,4.0,1.0,phase_1,,,,,,,,,,,,,gray,triangle
0.0,8.0,0.0,1.0,1.0,1.0,418.943309000042,4.0,1.0,phase_1,,,,,,,,,,,,,green,diamond
147.0,1.0,0.5,0.0,4.0,4.0,411.5247020001789,4.0,1.0,phase_1,,,,,,,,,,,,,magenta,hexagon
643.0,7.0,2.0,1.0,2.0,2.0,503.8536259999091,4.0,1.0,phase_1,,,,,,,,,,,,,white,flipped triangle
0.0,7.0,0.0,1.0,4.0,4.0,403.1158220000179,4.0,1.0,phase_1,,,,,,,,,,,,,white,flipped triangle
1323.0,4.0,4.0,0.0,2.0,2.0,495.3936239999166,4.0,1.0,phase_1,,,,,,,,,,,,,orange,circle
672.0,3.0,2.0,0.0,2.0,2.0,420.3891219999605,4.0,1.0,phase_1,,,,,,,,,,,,,gray,triangle
662.0,3.0,2.0,0.0,2.0,2.0,419.5028320000347,4.0,1.0,phase_1,,,,,,,,,,,,,gray,triangle
185.0,1.0,0.5,0.0,2.0,2.0,326.9671659998039,4.0,1.0,phase_1,,,,,,,,,,,,,magenta,hexagon
1294.0,4.0,4.0,0.0,1.0,1.0,560.320443000137,4.0,1.0,phase_1,,,,,,,,,,,,,orange,circle
1321.0,8.0,4.0,1.0,3.0,3.0,476.5482769998925,4.0,1.0,phase_1,,,,,,,,,,,,,green,diamond
1277.0,4.0,4.0,0.0,1.0,1.0,485.8254769999348,4.0,1.0,phase_1,,,,,,,,,,,,,orange,circle
172.0,1.0,0.5,0.0,3.0,3.0,429.9905080001736,4.0,1.0,phase_1,,,,,,,,,,,,,magenta,hexagon
659.0,3.0,2.0,0.0,2.0,2.0,662.8366069999174,4.0,1.0,phase_1,,,,,,,,,,,,,gray,triangle
0.0,3.0,0.0,0.0,1.0,1.0,456.7083109998293,4.0,1.0,phase_1,,,,,,,,,,,,,gray,triangle
343.0,2.0,1.0,0.0,1.0,1.0,420.3930619999028,4.0,1.0,phase_1,,,,,,,,,,,,,cyan,cross
0.0,8.0,0.0,1.0,3.0,3.0,448.2441550001113,4.0,1.0,phase_1,,,,,,,,,,,,,green,diamond
336.0,6.0,1.0,1.0,1.0,1.0,419.81884300003,4.0,1.0,phase_1,,,,,,,,,,,,,yellow,I
660.0,3.0,2.0,0.0,1.0,1.0,448.1224349999593,4.0,1.0,phase_1,,,,,,,,,,,,,gray,triangle
181.0,1.0,0.5,0.0,1.0,1.0,410.9188420000009,4.0,1.0,phase_1,,,,,,,,,,,,,magenta,hexagon
343.0,2.0,1.0,0.0,2.0,2.0,605.6719109999449,4.0,1.0,phase_1,,,,,,,,,,,,,cyan,cross
0.0,1.0,0.0,0.0,3.0,3.0,457.6296380000713,4.0,1.0,phase_1,,,,,,,,,,,,,magenta,hexagon
0.0,7.0,0.0,1.0,3.0,3.0,374.5725119999861,4.0,1.0,phase_1,,,,,,,,,,,,,white,flipped triangle
0.0,1.0,0.0,0.0,3.0,3.0,364.5151470000201,4.0,1.0,phase_1,,,,,,,,,,,,,magenta,hexagon
0.0,3.0,0.0,0.0,1.0,1.0,308.4729910001442,4.0,1.0,phase_1,,,,,,,,,,,,,gray,triangle
171.0,1.0,0.5,0.0,2.0,2.0,457.4369140000272,4.0,1.0,phase_1,,,,,,,,,,,,,magenta,hexagon
651.0,3.0,2.0,0.0,2.0,2.0,373.1054259999382,4.0,1.0,phase_1,,,,,,,,,,,,,gray,triangle
140.0,1.0,0.5,0.0,4.0,4.0,458.3493659999931,4.0,2.0,phase_1,,,,,,,,,,,,,magenta,hexagon
153.0,1.0,0.5,0.0,3.0,3.0,468.928877000053,4.0,1.0,phase_1,,,,,,,,,,,,,magenta,hexagon
673.0,7.0,2.0,1.0,2.0,2.0,411.9228629999725,4.0,1.0,phase_1,,,,,,,,,,,,,white,flipped triangle
648.0,7.0,2.0,1.0,3.0,3.0,432.5637150000148,4.0,1.0,phase_1,,,,,,,,,,,,,white,flipped triangle
313.0,2.0,1.0,0.0,4.0,4.0,449.3607270001121,4.0,1.0,phase_1,,,,,,,,,,,,,cyan,cross
642.0,3.0,2.0,0.0,2.0,2.0,441.3727999999537,4.0,1.0,phase_1,,,,,,,,,,,,,gray,triangle
173.0,1.0,0.5,0.0,4.0,4.0,391.8860910000603,4.0,1.0,phase_1,,,,,,,,,,,,,magenta,hexagon
147.0,1.0,0.5,0.0,4.0,4.0,401.3849670000127,4.0,1.0,phase_1,,,,,,,,,,,,,magenta,hexagon
145.0,5.0,0.5,1.0,2.0,2.0,439.2967539999972,4.0,1.0,phase_1,,,,,,,,,,,,,blue,square
636.0,3.0,2.0,0.0,4.0,4.0,495.1326590000917,4.0,1.0,phase_1,,,,,,,,,,,,,gray,triangle
1281.0,8.0,4.0,1.0,2.0,2.0,419.7313039999244,4.0,1.0,phase_1,,,,,,,,,,,,,green,diamond
1302.0,4.0,4.0,0.0,2.0,2.0,346.1919400001534,4.0,1.0,phase_1,,,,,,,,,,,,,orange,circle
672.0,7.0,2.0,1.0,4.0,4.0,402.36618899984927,4.0,1.0,phase_1,,,,,,,,,,,,,white,flipped triangle
315.0,2.0,1.0,0.0,2.0,2.0,400.7033650000267,4.0,1.0,phase_1,,,,,,,,,,,,,cyan,cross
627.0,3.0,2.0,0.0,4.0,4.0,354.6745419998842,4.0,1.0,phase_1,,,,,,,,,,,,,gray,triangle
305.0,6.0,1.0,1.0,2.0,2.0,411.0502949999954,4.0,1.0,phase_1,,,,,,,,,,,,,yellow,I
318.0,6.0,1.0,1.0,3.0,3.0,381.6308949999438,4.0,1.0,phase_1,,,,,,,,,,,,,yellow,I
1300.0,8.0,4.0,1.0,2.0,2.0,363.780024999869,4.0,1.0,phase_1,,,,,,,,,,,,,green,diamond
1297.0,4.0,4.0,0.0,3.0,3.0,401.6766930001267,4.0,1.0,phase_1,,,,,,,,,,,,,orange,circle
343.0,6.0,1.0,1.0,3.0,3.0,318.0469529997936,4.0,1.0,phase_1,,,,,,,,,,,,,yellow,I
337.0,2.0,1.0,0.0,1.0,1.0,391.4185860000998,4.0,1.0,phase_1,,,,,,,,,,,,,cyan,cross
1278.0,8.0,4.0,1.0,3.0,3.0,420.4485169998406,4.0,1.0,phase_1,,,,,,,,,,,,,green,diamond
0.0,6.0,0.0,1.0,3.0,3.0,345.4030880000118,4.0,1.0,phase_1,,,,,,,,,,,,,yellow,I
181.0,5.0,0.5,1.0,2.0,2.0,458.2151560000511,4.0,1.0,phase_1,,,,,,,,,,,,,blue,square
1283.0,4.0,4.0,0.0,4.0,4.0,447.1557929998653,4.0,1.0,phase_1,,,,,,,,,,,,,orange,circle
1305.0,4.0,4.0,0.0,3.0,3.0,381.6144610000265,4.0,1.0,phase_1,,,,,,,,,,,,,orange,circle
0.0,2.0,0.0,0.0,4.0,4.0,494.4114049999371,4.0,1.0,phase_1,,,,,,,,,,,,,cyan,cross
145.0,1.0,0.5,0.0,2.0,2.0,381.6488289999142,4.0,1.0,phase_1,,,,,,,,,,,,,magenta,hexagon
652.0,3.0,2.0,0.0,1.0,1.0,474.5445010000821,4.0,1.0,phase_1,,,,,,,,,,,,,gray,triangle
335.0,2.0,1.0,0.0,4.0,4.0,374.0565470000092,4.0,1.0,phase_1,,,,,,,,,,,,,cyan,cross
0.0,7.0,0.0,1.0,1.0,1.0,505.20733400003337,4.0,1.0,phase_1,,,,,,,,,,,,,white,flipped triangle
335.0,6.0,1.0,1.0,1.0,1.0,391.0749889998897,4.0,1.0,phase_1,,,,,,,,,,,,,yellow,I
1315.0,4.0,4.0,0.0,2.0,2.0,400.6334880000395,4.0,1.0,phase_1,,,,,,,,,,,,,orange,circle
1288.0,8.0,4.0,1.0,1.0,1.0,419.5321649999641,4.0,1.0,phase_1,,,,,,,,,,,,,green,diamond
307.0,6.0,1.0,1.0,2.0,2.0,392.1782259999418,4.0,1.0,phase_1,,,,,,,,,,,,,yellow,I
1279.0,4.0,4.0,0.0,3.0,3.0,436.9114510000145,4.0,1.0,phase_1,,,,,,,,,,,,,orange,circle
0.0,2.0,0.0,0.0,4.0,4.0,586.155743000063,4.0,1.0,phase_1,,,,,,,,,,,,,cyan,cross
640.0,3.0,2.0,0.0,4.0,4.0,494.4565210000746,4.0,1.0,phase_1,,,,,,,,,,,,,gray,triangle
333.0,2.0,1.0,0.0,1.0,1.0,418.843071000083,4.0,1.0,phase_1,,,,,,,,,,,,,cyan,cross
1320.0,4.0,4.0,0.0,1.0,1.0,391.4292060001116,4.0,1.0,phase_1,,,,,,,,,,,,,orange,circle
0.0,3.0,0.0,0.0,3.0,3.0,409.5027460000437,4.0,1.0,phase_1,,,,,,,,,,,,,gray,triangle
172.0,5.0,0.5,1.0,1.0,1.0,354.4631669999489,4.0,1.0,phase_1,,,,,,,,,,,,,blue,square
1320.0,4.0,4.0,0.0,4.0,4.0,402.0001989999855,4.0,1.0,phase_1,,,,,,,,,,,,,orange,circle
1310.0,8.0,4.0,1.0,1.0,1.0,410.1080740001634,4.0,1.0,phase_1,,,,,,,,,,,,,green,diamond
304.0,2.0,1.0,0.0,3.0,3.0,345.0808679999682,4.0,1.0,phase_1,,,,,,,,,,,,,cyan,cross
668.0,7.0,2.0,1.0,2.0,2.0,391.8174929999622,4.0,2.0,phase_1,,,,,,,,,,,,,white,flipped triangle
149.0,5.0,0.5,1.0,2.0,2.0,372.5471639997977,4.0,1.0,phase_1,,,,,,,,,,,,,blue,square
150.0,1.0,0.5,0.0,1.0,1.0,391.6566589998638,4.0,1.0,phase_1,,,,,,,,,,,,,magenta,hexagon
0.0,1.0,0.0,0.0,2.0,2.0,484.7936749999917,4.0,1.0,phase_1,,,,,,,,,,,,,magenta,hexagon
338.0,6.0,1.0,1.0,3.0,3.0,551.4978339999743,4.0,1.0,phase_1,,,,,,,,,,,,,yellow,I
1313.0,4.0,4.0,0.0,4.0,4.0,484.586489999856,4.0,1.0,phase_1,,,,,,,,,,,,,orange,circle
336.0,2.0,1.0,0.0,3.0,3.0,362.8672259999348,4.0,1.0,phase_1,,,,,,,,,,,,,cyan,cross
668.0,3.0,2.0,0.0,4.0,4.0,420.2131219999501,4.0,1.0,phase_1,,,,,,,,,,,,,gray,triangle
0.0,4.0,0.0,0.0,4.0,4.0,466.5686320001896,4.0,1.0,phase_1,,,,,,,,,,,,,orange,circle
1317.0,4.0,4.0,0.0,1.0,1.0,401.9496959999742,4.0,1.0,phase_1,,,,,,,,,,,,,orange,circle
633.0,7.0,2.0,1.0,4.0,4.0,401.3393939999332,4.0,1.0,phase_1,,,,,,,,,,,,,white,flipped triangle
0.0,7.0,2.0,1.0,5.0,0.0,0.0,1.0,1.0,phase_2,stop,250.0,250.0,4.0,,,,,,,,,white,flipped triangle
0.0,7.0,2.0,1.0,5.0,5.0,263.4878869998829,1.0,1.0,phase_2,go,300.0,250.0,1.0,,,,,,,,,white,flipped triangle
0.0,5.0,0.5,1.0,5.0,5.0,274.3417629999385,1.0,1.0,phase_2,stop,300.0,250.0,3.0,,,,,,,,,blue,square
0.0,3.0,2.0,0.0,5.0,5.0,282.2714989997621,1.0,1.0,phase_2,go,250.0,250.0,1.0,,,,,,,,,gray,triangle
0.0,8.0,4.0,1.0,6.0,6.0,19.6016790000612,1.0,1.0,phase_2,go,250.0,250.0,1.0,,,,,,,,,green,diamond
0.0,6.0,1.0,1.0,6.0,6.0,302.1441089999825,1.0,1.0,phase_2,stop,250.0,250.0,3.0,,,,,,,,,yellow,I
0.0,2.0,1.0,0.0,5.0,5.0,273.7138319998848,1.0,1.0,phase_2,go,250.0,200.0,1.0,,,,,,,,,cyan,cross
0.0,2.0,1.0,0.0,6.0,6.0,527.2133119997306,1.0,1.0,phase_2,go,250.0,200.0,1.0,,,,,,,,,cyan,cross
0.0,3.0,2.0,0.0,5.0,5.0,1110.4684880001514,1.0,1.0,phase_2,go,250.0,200.0,1.0,,,,,,,,,gray,triangle
0.0,4.0,4.0,0.0,6.0,6.0,620.9253520000857,1.0,1.0,phase_2,go,250.0,200.0,1.0,,,,,,,,,orange,circle
0.0,4.0,4.0,0.0,5.0,5.0,1402.8117759999077,1.0,1.0,phase_2,go,250.0,200.0,1.0,,,,,,,,,orange,circle
0.0,6.0,1.0,1.0,5.0,5.0,958.1332730003852,1.0,1.0,phase_2,go,250.0,200.0,1.0,,,,,,,,,yellow,I
0.0,7.0,2.0,1.0,6.0,0.0,0.0,1.0,1.0,phase_2,stop,250.0,200.0,4.0,,,,,,,,,white,flipped triangle
0.0,6.0,1.0,1.0,6.0,0.0,0.0,1.0,1.0,phase_2,stop,250.0,250.0,4.0,,,,,,,,,yellow,I
0.0,7.0,2.0,1.0,6.0,6.0,457.9979380000623,1.0,1.0,phase_2,stop,250.0,300.0,3.0,,,,,,,,,white,flipped triangle
0.0,3.0,2.0,0.0,6.0,6.0,779.243616000258,1.0,1.0,phase_2,go,250.0,250.0,1.0,,,,,,,,,gray,triangle
0.0,4.0,4.0,0.0,5.0,5.0,465.4197129998465,1.0,1.0,phase_2,go,250.0,250.0,1.0,,,,,,,,,orange,circle
0.0,6.0,1.0,1.0,5.0,0.0,0.0,1.0,1.0,phase_2,stop,250.0,250.0,4.0,,,,,,,,,yellow,I
0.0,1.0,0.5,0.0,5.0,5.0,947.7141120000852,1.0,1.0,phase_2,go,300.0,250.0,1.0,,,,,,,,,magenta,hexagon
0.0,7.0,2.0,1.0,5.0,0.0,0.0,1.0,1.0,phase_2,stop,300.0,250.0,4.0,,,,,,,,,white,flipped triangle
0.0,1.0,0.5,0.0,6.0,6.0,451.6046019998612,1.0,1.0,phase_2,go,350.0,250.0,1.0,,,,,,,,,magenta,hexagon
0.0,8.0,4.0,1.0,5.0,0.0,0.0,1.0,1.0,phase_2,stop,350.0,250.0,4.0,,,,,,,,,green,diamond
0.0,3.0,2.0,0.0,5.0,5.0,713.2018109996352,1.0,1.0,phase_2,go,400.0,250.0,1.0,,,,,,,,,gray,triangle
0.0,5.0,0.5,1.0,6.0,6.0,799.1929579998214,1.0,1.0,phase_2,go,400.0,250.0,1.0,,,,,,,,,blue,square
0.0,3.0,2.0,0.0,5.0,5.0,1246.6384809999909,1.0,1.0,phase_2,go,400.0,250.0,1.0,,,,,,,,,gray,triangle
0.0,7.0,2.0,1.0,5.0,0.0,0.0,1.0,1.0,phase_2,stop,400.0,250.0,4.0,,,,,,,,,white,flipped triangle
0.0,5.0,0.5,1.0,6.0,0.0,0.0,1.0,1.0,phase_2,stop,450.0,250.0,4.0,,,,,,,,,blue,square
0.0,2.0,1.0,0.0,6.0,6.0,966.605920999882,1.0,1.0,phase_2,go,450.0,300.0,1.0,,,,,,,,,cyan,cross
0.0,2.0,1.0,0.0,6.0,0.0,0.0,1.0,1.0,phase_2,go,450.0,300.0,5.0,,,,,,,,,cyan,cross
0.0,3.0,2.0,0.0,5.0,5.0,1080.847480999637,1.0,1.0,phase_2,go,450.0,300.0,1.0,,,,,,,,,gray,triangle
0.0,3.0,2.0,0.0,6.0,6.0,553.8120910000544,1.0,1.0,phase_2,go,450.0,300.0,1.0,,,,,,,,,gray,triangle
0.0,6.0,1.0,1.0,5.0,0.0,0.0,1.0,1.0,phase_2,stop,450.0,300.0,4.0,,,,,,,,,yellow,I
0.0,6.0,1.0,1.0,5.0,0.0,0.0,1.0,1.0,phase_2,stop,500.0,300.0,4.0,,,,,,,,,yellow,I
0.0,2.0,1.0,0.0,6.0,6.0,799.9368129999311,1.0,1.0,phase_2,go,550.0,300.0,1.0,,,,,,,,,cyan,cross
0.0,8.0,4.0,1.0,6.0,0.0,0.0,1.0,1.0,phase_2,stop,550.0,300.0,4.0,,,,,,,,,green,diamond
0.0,5.0,0.5,1.0,5.0,5.0,665.9353380000539,1.0,1.0,phase_2,go,550.0,350.0,1.0,,,,,,,,,blue,square
0.0,2.0,1.0,0.0,6.0,6.0,498.4974770000008,2.0,1.0,phase_2,go,550.0,350.0,1.0,,,,,,,,,cyan,cross
0.0,2.0,1.0,0.0,6.0,6.0,469.2718219998824,2.0,1.0,phase_2,go,550.0,350.0,1.0,,,,,,,,,cyan,cross
0.0,3.0,2.0,0.0,5.0,5.0,489.5996949999244,2.0,1.0,phase_2,go,550.0,350.0,1.0,,,,,,,,,gray,triangle
0.0,5.0,0.5,1.0,6.0,6.0,479.9391740002647,2.0,1.0,phase_2,go,550.0,350.0,1.0,,,,,,,,,blue,square
0.0,3.0,2.0,0.0,5.0,5.0,721.718016000068,2.0,1.0,phase_2,go,550.0,350.0,1.0,,,,,,,,,gray,triangle
0.0,2.0,1.0,0.0,5.0,5.0,958.8886950000416,2.0,1.0,phase_2,go,550.0,350.0,1.0,,,,,,,,,cyan,cross
0.0,6.0,1.0,1.0,5.0,0.0,0.0,2.0,1.0,phase_2,stop,550.0,350.0,4.0,,,,,,,,,yellow,I
0.0,4.0,4.0,0.0,5.0,5.0,768.7419339999906,2.0,1.0,phase_2,go,600.0,350.0,1.0,,,,,,,,,orange,circle
0.0,5.0,0.5,1.0,5.0,5.0,358.3649040001546,2.0,1.0,phase_2,stop,600.0,350.0,3.0,,,,,,,,,blue,square
0.0,3.0,2.0,0.0,6.0,6.0,546.0878080002658,2.0,1.0,phase_2,go,550.0,350.0,1.0,,,,,,,,,gray,triangle
0.0,8.0,4.0,1.0,5.0,5.0,300.7298469997295,2.0,1.0,phase_2,stop,550.0,350.0,3.0,,,,,,,,,green,diamond
0.0,1.0,0.5,0.0,6.0,6.0,545.2461810000386,2.0,1.0,phase_2,go,500.0,350.0,1.0,,,,,,,,,magenta,hexagon
0.0,6.0,1.0,1.0,6.0,0.0,0.0,2.0,1.0,phase_2,stop,500.0,350.0,4.0,,,,,,,,,yellow,I
0.0,1.0,0.5,0.0,6.0,6.0,816.3372280000658,2.0,1.0,phase_2,go,500.0,400.0,1.0,,,,,,,,,magenta,hexagon
0.0,4.0,4.0,0.0,6.0,6.0,808.0525700001999,2.0,1.0,phase_2,go,500.0,400.0,1.0,,,,,,,,,orange,circle
0.0,7.0,2.0,1.0,6.0,6.0,855.6266069999765,2.0,1.0,phase_2,go,500.0,400.0,1.0,,,,,,,,,white,flipped triangle
0.0,5.0,0.5,1.0,5.0,0.0,0.0,2.0,1.0,phase_2,stop,500.0,400.0,4.0,,,,,,,,,blue,square
0.0,4.0,4.0,0.0,6.0,6.0,788.235075999637,2.0,1.0,phase_2,go,550.0,400.0,1.0,,,,,,,,,orange,circle
0.0,7.0,2.0,1.0,5.0,0.0,0.0,2.0,1.0,phase_2,stop,550.0,400.0,4.0,,,,,,,,,white,flipped triangle
0.0,1.0,0.5,0.0,5.0,5.0,789.545827999973,2.0,1.0,phase_2,go,600.0,400.0,1.0,,,,,,,,,magenta,hexagon
0.0,7.0,2.0,1.0,6.0,0.0,0.0,2.0,1.0,phase_2,stop,600.0,400.0,4.0,,,,,,,,,white,flipped triangle
0.0,6.0,1.0,1.0,5.0,0.0,0.0,2.0,1.0,phase_2,stop,600.0,450.0,4.0,,,,,,,,,yellow,I
0.0,6.0,1.0,1.0,5.0,5.0,727.765866000027,2.0,1.0,phase_2,stop,650.0,450.0,3.0,,,,,,,,,yellow,I
0.0,4.0,4.0,0.0,6.0,6.0,911.4920990000428,2.0,1.0,phase_2,go,600.0,450.0,1.0,,,,,,,,,orange,circle
0.0,7.0,2.0,1.0,6.0,0.0,0.0,2.0,1.0,phase_2,stop,600.0,450.0,4.0,,,,,,,,,white,flipped triangle
0.0,6.0,1.0,1.0,5.0,5.0,866.7285440001251,2.0,1.0,phase_2,go,600.0,500.0,1.0,,,,,,,,,yellow,I
0.0,2.0,1.0,0.0,6.0,6.0,873.4670700000606,2.0,1.0,phase_2,go,600.0,500.0,1.0,,,,,,,,,cyan,cross
0.0,8.0,4.0,1.0,6.0,0.0,0.0,2.0,1.0,phase_2,stop,600.0,500.0,4.0,,,,,,,,,green,diamond
0.0,5.0,0.5,1.0,6.0,0.0,0.0,2.0,1.0,phase_2,stop,600.0,550.0,4.0,,,,,,,,,blue,square
0.0,5.0,0.5,1.0,6.0,0.0,0.0,2.0,1.0,phase_2,stop,600.0,600.0,4.0,,,,,,,,,blue,square
0.0,1.0,0.5,0.0,5.0,5.0,975.897645999794,2.0,1.0,phase_2,go,600.0,650.0,1.0,,,,,,,,,magenta,hexagon
0.0,2.0,1.0,0.0,5.0,5.0,966.5641430001416,2.0,1.0,phase_2,go,600.0,650.0,1.0,,,,,,,,,cyan,cross
0.0,1.0,0.5,0.0,6.0,6.0,957.2521280001638,2.0,1.0,phase_2,go,600.0,650.0,1.0,,,,,,,,,magenta,hexagon
0.0,2.0,1.0,0.0,5.0,5.0,873.7330989997645,2.0,1.0,phase_2,go,600.0,650.0,1.0,,,,,,,,,cyan,cross
0.0,5.0,0.5,1.0,6.0,0.0,0.0,2.0,1.0,phase_2,stop,600.0,650.0,4.0,,,,,,,,,blue,square
0.0,1.0,0.5,0.0,5.0,5.0,1081.0757340000237,2.0,1.0,phase_2,go,600.0,700.0,1.0,,,,,,,,,magenta,hexagon
0.0,7.0,2.0,1.0,5.0,5.0,507.5322459997551,3.0,1.0,phase_2,stop,600.0,700.0,3.0,,,,,,,,,white,flipped triangle
0.0,7.0,2.0,1.0,5.0,5.0,873.7538590003169,3.0,1.0,phase_2,go,550.0,700.0,1.0,,,,,,,,,white,flipped triangle
0.0,7.0,2.0,1.0,6.0,6.0,823.897900999782,3.0,1.0,phase_2,stop,550.0,700.0,3.0,,,,,,,,,white,flipped triangle
0.0,4.0,4.0,0.0,6.0,6.0,885.8272420002322,3.0,1.0,phase_2,go,550.0,650.0,1.0,,,,,,,,,orange,circle
0.0,3.0,2.0,0.0,5.0,5.0,1044.906299000104,3.0,1.0,phase_2,go,550.0,650.0,1.0,,,,,,,,,gray,triangle
0.0,6.0,1.0,1.0,6.0,0.0,0.0,3.0,1.0,phase_2,stop,550.0,650.0,4.0,,,,,,,,,yellow,I
0.0,7.0,2.0,1.0,5.0,0.0,0.0,3.0,1.0,phase_2,stop,550.0,700.0,4.0,,,,,,,,,white,flipped triangle
0.0,3.0,2.0,0.0,5.0,5.0,930.536521999784,3.0,1.0,phase_2,go,600.0,700.0,1.0,,,,,,,,,gray,triangle
0.0,5.0,0.5,1.0,5.0,5.0,481.3471900001786,3.0,1.0,phase_2,stop,600.0,700.0,3.0,,,,,,,,,blue,square
0.0,1.0,0.5,0.0,6.0,6.0,1032.0771659999082,3.0,1.0,phase_2,go,550.0,700.0,1.0,,,,,,,,,magenta,hexagon
0.0,6.0,1.0,1.0,5.0,0.0,0.0,3.0,1.0,phase_2,stop,550.0,700.0,4.0,,,,,,,,,yellow,I
0.0,5.0,0.5,1.0,6.0,6.0,441.6344670003127,3.0,1.0,phase_2,stop,600.0,700.0,3.0,,,,,,,,,blue,square
0.0,4.0,4.0,0.0,5.0,5.0,638.861499000086,3.0,1.0,phase_2,go,600.0,650.0,1.0,,,,,,,,,orange,circle
0.0,3.0,2.0,0.0,5.0,5.0,347.5623510003061,3.0,1.0,phase_2,go,600.0,650.0,1.0,,,,,,,,,gray,triangle
0.0,4.0,4.0,0.0,5.0,5.0,460.48478200009407,3.0,1.0,phase_2,go,600.0,650.0,1.0,,,,,,,,,orange,circle
0.0,7.0,2.0,1.0,5.0,5.0,893.9158630000748,3.0,1.0,phase_2,go,600.0,650.0,1.0,,,,,,,,,white,flipped triangle
0.0,7.0,2.0,1.0,6.0,6.0,1045.35583400002,3.0,1.0,phase_2,go,600.0,650.0,1.0,,,,,,,,,white,flipped triangle
0.0,2.0,1.0,0.0,5.0,5.0,904.7658009999396,3.0,1.0,phase_2,go,600.0,650.0,1.0,,,,,,,,,cyan,cross
0.0,4.0,4.0,0.0,6.0,6.0,958.8466939999308,3.0,1.0,phase_2,go,600.0,650.0,1.0,,,,,,,,,orange,circle
0.0,1.0,0.5,0.0,5.0,5.0,798.6658479999278,3.0,1.0,phase_2,go,600.0,650.0,1.0,,,,,,,,,magenta,hexagon
0.0,7.0,2.0,1.0,6.0,0.0,0.0,3.0,1.0,phase_2,stop,600.0,650.0,4.0,,,,,,,,,white,flipped triangle
0.0,2.0,1.0,0.0,6.0,6.0,854.7792979998121,3.0,1.0,phase_2,go,600.0,700.0,1.0,,,,,,,,,cyan,cross
0.0,5.0,0.5,1.0,5.0,5.0,554.9768329997278,3.0,1.0,phase_2,stop,600.0,700.0,3.0,,,,,,,,,blue,square
0.0,7.0,2.0,1.0,5.0,5.0,300.9323820001555,3.0,1.0,phase_2,stop,550.0,700.0,3.0,,,,,,,,,white,flipped triangle
0.0,2.0,1.0,0.0,5.0,5.0,732.6664020001772,3.0,1.0,phase_2,go,500.0,700.0,1.0,,,,,,,,,cyan,cross
0.0,5.0,0.5,1.0,5.0,5.0,835.5966419999277,3.0,1.0,phase_2,go,500.0,700.0,1.0,,,,,,,,,blue,square
0.0,4.0,4.0,0.0,5.0,5.0,863.3369550002499,3.0,1.0,phase_2,go,500.0,700.0,1.0,,,,,,,,,orange,circle
0.0,8.0,4.0,1.0,5.0,0.0,0.0,3.0,1.0,phase_2,stop,500.0,700.0,4.0,,,,,,,,,green,diamond
0.0,8.0,4.0,1.0,6.0,6.0,430.9251049999147,3.0,1.0,phase_2,go,550.0,700.0,1.0,,,,,,,,,green,diamond
0.0,8.0,4.0,1.0,6.0,6.0,347.6227309997739,3.0,1.0,phase_2,stop,550.0,700.0,3.0,,,,,,,,,green,diamond
0.0,2.0,1.0,0.0,6.0,6.0,855.157810000037,3.0,1.0,phase_2,go,550.0,650.0,1.0,,,,,,,,,cyan,cross
0.0,4.0,4.0,0.0,5.0,5.0,874.4337590001123,3.0,1.0,phase_2,go,550.0,650.0,1.0,,,,,,,,,orange,circle
0.0,8.0,4.0,1.0,6.0,6.0,846.4240670000436,3.0,1.0,phase_2,go,550.0,650.0,1.0,,,,,,,,,green,diamond
0.0,7.0,2.0,1.0,6.0,6.0,829.1281299998445,3.0,1.0,phase_2,stop,550.0,650.0,3.0,,,,,,,,,white,flipped triangle
0.0,6.0,1.0,1.0,5.0,0.0,0.0,3.0,1.0,phase_2,stop,550.0,600.0,4.0,,,,,,,,,yellow,I
0.0,5.0,0.5,1.0,5.0,5.0,987.0602050000344,3.0,1.0,phase_2,go,600.0,600.0,1.0,,,,,,,,,blue,square
0.0,5.0,0.5,1.0,6.0,6.0,442.6007550000577,4.0,1.0,phase_2,stop,600.0,600.0,3.0,,,,,,,,,blue,square
0.0,3.0,2.0,0.0,5.0,5.0,837.3830479999924,4.0,1.0,phase_2,go,600.0,550.0,1.0,,,,,,,,,gray,triangle
0.0,2.0,1.0,0.0,5.0,5.0,864.8293480000575,4.0,1.0,phase_2,go,600.0,550.0,1.0,,,,,,,,,cyan,cross
0.0,1.0,0.5,0.0,5.0,5.0,423.4475289999864,4.0,1.0,phase_2,go,600.0,550.0,1.0,,,,,,,,,magenta,hexagon
0.0,5.0,0.5,1.0,5.0,5.0,348.871605000113,4.0,1.0,phase_2,go,600.0,550.0,1.0,,,,,,,,,blue,square
0.0,8.0,4.0,1.0,5.0,5.0,573.958453999694,4.0,1.0,phase_2,stop,600.0,550.0,3.0,,,,,,,,,green,diamond
0.0,2.0,1.0,0.0,6.0,6.0,810.8159869998417,4.0,1.0,phase_2,go,550.0,550.0,1.0,,,,,,,,,cyan,cross
0.0,7.0,2.0,1.0,5.0,0.0,0.0,4.0,1.0,phase_2,stop,550.0,550.0,4.0,,,,,,,,,white,flipped triangle
0.0,3.0,2.0,0.0,6.0,6.0,696.2010819997886,4.0,1.0,phase_2,go,600.0,550.0,1.0,,,,,,,,,gray,triangle
0.0,1.0,0.5,0.0,6.0,6.0,415.5751369999052,4.0,1.0,phase_2,go,600.0,550.0,1.0,,,,,,,,,magenta,hexagon
0.0,3.0,2.0,0.0,5.0,5.0,855.9399109999504,4.0,1.0,phase_2,go,600.0,550.0,1.0,,,,,,,,,gray,triangle
0.0,6.0,1.0,1.0,6.0,0.0,0.0,4.0,1.0,phase_2,stop,600.0,550.0,4.0,,,,,,,,,yellow,I
0.0,4.0,4.0,0.0,6.0,6.0,330.6489670003429,4.0,1.0,phase_2,go,600.0,600.0,1.0,,,,,,,,,orange,circle
0.0,8.0,4.0,1.0,5.0,5.0,264.2736120001245,4.0,1.0,phase_2,go,600.0,600.0,1.0,,,,,,,,,green,diamond
0.0,6.0,1.0,1.0,5.0,5.0,489.9624590002531,4.0,1.0,phase_2,go,600.0,600.0,1.0,,,,,,,,,yellow,I
0.0,8.0,4.0,1.0,5.0,5.0,750.9882159997687,4.0,1.0,phase_2,stop,600.0,600.0,3.0,,,,,,,,,green,diamond
0.0,3.0,2.0,0.0,6.0,6.0,602.8340190000563,4.0,1.0,phase_2,go,550.0,600.0,1.0,,,,,,,,,gray,triangle
0.0,1.0,0.5,0.0,6.0,6.0,367.030521000288,4.0,1.0,phase_2,go,550.0,600.0,1.0,,,,,,,,,magenta,hexagon
0.0,5.0,0.5,1.0,5.0,5.0,996.7647879998368,4.0,1.0,phase_2,go,550.0,600.0,1.0,,,,,,,,,blue,square
0.0,7.0,2.0,1.0,6.0,6.0,573.9842359998875,4.0,1.0,phase_2,stop,550.0,600.0,3.0,,,,,,,,,white,flipped triangle
0.0,2.0,1.0,0.0,6.0,6.0,931.1061640000844,4.0,1.0,phase_2,go,550.0,550.0,1.0,,,,,,,,,cyan,cross
0.0,7.0,2.0,1.0,5.0,0.0,0.0,4.0,1.0,phase_2,stop,550.0,550.0,4.0,,,,,,,,,white,flipped triangle
0.0,4.0,4.0,0.0,6.0,6.0,687.2949919998064,4.0,1.0,phase_2,go,600.0,550.0,1.0,,,,,,,,,orange,circle
0.0,4.0,4.0,0.0,6.0,6.0,932.058078999944,4.0,1.0,phase_2,go,600.0,550.0,1.0,,,,,,,,,orange,circle
0.0,6.0,1.0,1.0,5.0,0.0,0.0,4.0,1.0,phase_2,stop,600.0,550.0,4.0,,,,,,,,,yellow,I
0.0,1.0,0.5,0.0,5.0,5.0,875.4768730000251,4.0,1.0,phase_2,go,650.0,550.0,1.0,,,,,,,,,magenta,hexagon
0.0,3.0,2.0,0.0,6.0,6.0,1026.192121999884,4.0,1.0,phase_2,go,650.0,550.0,1.0,,,,,,,,,gray,triangle
0.0,8.0,4.0,1.0,5.0,5.0,868.5227279997889,4.0,1.0,phase_2,go,650.0,550.0,1.0,,,,,,,,,green,diamond
0.0,3.0,2.0,0.0,6.0,6.0,941.8722169998546,4.0,1.0,phase_2,go,650.0,550.0,1.0,,,,,,,,,gray,triangle
0.0,5.0,0.5,1.0,6.0,6.0,905.2924220000024,4.0,1.0,phase_2,go,650.0,550.0,1.0,,,,,,,,,blue,square
0.0,1.0,0.5,0.0,5.0,5.0,883.3031519998258,4.0,1.0,phase_2,go,650.0,550.0,1.0,,,,,,,,,magenta,hexagon
0.0,8.0,4.0,1.0,6.0,6.0,440.3325910002422,4.0,1.0,phase_2,stop,650.0,550.0,3.0,,,,,,,,,green,diamond
0.0,5.0,0.5,1.0,6.0,6.0,338.5693340001126,4.0,1.0,phase_2,stop,650.0,500.0,3.0,,,,,,,,,blue,square
0.0,4.0,4.0,0.0,6.0,6.0,764.0085719999661,4.0,1.0,phase_2,go,650.0,450.0,1.0,,,,,,,,,orange,circle
0.0,5.0,0.5,1.0,6.0,0.0,0.0,4.0,1.0,phase_2,stop,650.0,450.0,4.0,,,,,,,,,blue,square
0.0,8.0,4.0,1.0,6.0,6.0,563.8567949999924,4.0,1.0,phase_2,stop,650.0,500.0,3.0,,,,,,,,,green,diamond
0.0,1.0,0.5,0.0,6.0,6.0,622.6757600002202,5.0,1.0,phase_2,go,650.0,450.0,1.0,,,,,,,,,magenta,hexagon
0.0,3.0,2.0,0.0,6.0,6.0,378.726381999968,5.0,1.0,phase_2,go,650.0,450.0,1.0,,,,,,,,,gray,triangle
0.0,8.0,4.0,1.0,6.0,0.0,0.0,5.0,1.0,phase_2,stop,650.0,450.0,4.0,,,,,,,,,green,diamond
0.0,2.0,1.0,0.0,6.0,6.0,425.3129570001874,5.0,1.0,phase_2,go,650.0,500.0,1.0,,,,,,,,,cyan,cross
0.0,8.0,4.0,1.0,5.0,5.0,709.6490670001003,5.0,1.0,phase_2,stop,650.0,500.0,3.0,,,,,,,,,green,diamond
0.0,6.0,1.0,1.0,5.0,5.0,818.6833900003876,5.0,1.0,phase_2,go,600.0,500.0,1.0,,,,,,,,,yellow,I
0.0,4.0,4.0,0.0,5.0,5.0,301.3097470002321,5.0,1.0,phase_2,go,600.0,500.0,1.0,,,,,,,,,orange,circle
0.0,6.0,1.0,1.0,5.0,0.0,0.0,5.0,1.0,phase_2,go,600.0,500.0,5.0,,,,,,,,,yellow,I
0.0,7.0,2.0,1.0,6.0,6.0,394.8385710000366,5.0,1.0,phase_2,stop,600.0,500.0,3.0,,,,,,,,,white,flipped triangle
0.0,2.0,1.0,0.0,6.0,6.0,1194.0444399997432,5.0,1.0,phase_2,go,600.0,450.0,1.0,,,,,,,,,cyan,cross
0.0,8.0,4.0,1.0,5.0,0.0,0.0,5.0,1.0,phase_2,stop,600.0,450.0,4.0,,,,,,,,,green,diamond
0.0,3.0,2.0,0.0,6.0,6.0,526.7492550001407,5.0,1.0,phase_2,go,650.0,450.0,1.0,,,,,,,,,gray,triangle
0.0,6.0,1.0,1.0,6.0,6.0,552.334936999614,5.0,1.0,phase_2,stop,650.0,450.0,3.0,,,,,,,,,yellow,I
0.0,5.0,0.5,1.0,5.0,5.0,452.4188129998947,5.0,1.0,phase_2,stop,650.0,400.0,3.0,,,,,,,,,blue,square
0.0,4.0,4.0,0.0,6.0,6.0,742.9475210001328,5.0,1.0,phase_2,go,600.0,400.0,1.0,,,,,,,,,orange,circle
0.0,1.0,0.5,0.0,6.0,6.0,918.0965539999306,5.0,1.0,phase_2,go,600.0,400.0,1.0,,,,,,,,,magenta,hexagon
0.0,3.0,2.0,0.0,6.0,6.0,1109.1235459998643,5.0,1.0,phase_2,go,600.0,400.0,1.0,,,,,,,,,gray,triangle
0.0,7.0,2.0,1.0,5.0,5.0,526.7747449997842,5.0,1.0,phase_2,stop,600.0,400.0,3.0,,,,,,,,,white,flipped triangle
0.0,4.0,4.0,0.0,5.0,5.0,881.6528929996821,5.0,1.0,phase_2,go,550.0,400.0,1.0,,,,,,,,,orange,circle
0.0,5.0,0.5,1.0,5.0,0.0,0.0,5.0,1.0,phase_2,stop,550.0,400.0,4.0,,,,,,,,,blue,square
0.0,1.0,0.5,0.0,6.0,0.0,0.0,5.0,1.0,phase_2,go,600.0,400.0,5.0,,,,,,,,,magenta,hexagon
0.0,8.0,4.0,1.0,5.0,5.0,592.0183970001744,5.0,1.0,phase_2,go,600.0,400.0,1.0,,,,,,,,,green,diamond
0.0,3.0,2.0,0.0,5.0,0.0,0.0,5.0,1.0,phase_2,go,600.0,400.0,5.0,,,,,,,,,gray,triangle
0.0,7.0,2.0,1.0,6.0,0.0,0.0,5.0,1.0,phase_2,stop,600.0,400.0,4.0,,,,,,,,,white,flipped triangle
0.0,5.0,0.5,1.0,6.0,0.0,0.0,5.0,1.0,phase_2,stop,600.0,450.0,4.0,,,,,,,,,blue,square
0.0,1.0,0.5,0.0,6.0,6.0,676.5399719997731,5.0,1.0,phase_2,go,600.0,500.0,1.0,,,,,,,,,magenta,hexagon
0.0,3.0,2.0,0.0,6.0,6.0,320.0355529997978,5.0,1.0,phase_2,go,600.0,500.0,1.0,,,,,,,,,gray,triangle
0.0,7.0,2.0,1.0,5.0,0.0,0.0,5.0,1.0,phase_2,stop,600.0,500.0,4.0,,,,,,,,,white,flipped triangle
0.0,5.0,0.5,1.0,6.0,6.0,422.3033100001885,5.0,1.0,phase_2,stop,650.0,500.0,3.0,,,,,,,,,blue,square
0.0,1.0,0.5,0.0,6.0,6.0,629.4872390003547,5.0,1.0,phase_2,go,650.0,450.0,1.0,,,,,,,,,magenta,hexagon
0.0,3.0,2.0,0.0,6.0,6.0,546.045585000229,5.0,1.0,phase_2,go,650.0,450.0,1.0,,,,,,,,,gray,triangle
0.0,8.0,4.0,1.0,6.0,6.0,431.6837860001214,5.0,1.0,phase_2,stop,650.0,450.0,3.0,,,,,,,,,green,diamond
0.0,5.0,0.5,1.0,5.0,0.0,0.0,5.0,1.0,phase_2,stop,650.0,400.0,4.0,,,,,,,,,blue,square
0.0,2.0,1.0,0.0,5.0,5.0,881.4715359999354,5.0,1.0,phase_2,go,700.0,400.0,1.0,,,,,,,,,cyan,cross
0.0,3.0,2.0,0.0,6.0,6.0,919.0699619998668,5.0,1.0,phase_2,go,700.0,400.0,1.0,,,,,,,,,gray,triangle
0.0,2.0,1.0,0.0,5.0,0.0,0.0,5.0,1.0,phase_2,go,700.0,400.0,5.0,,,,,,,,,cyan,cross
0.0,2.0,1.0,0.0,5.0,5.0,611.4037709999138,6.0,1.0,phase_2,go,700.0,400.0,1.0,,,,,,,,,cyan,cross
0.0,2.0,1.0,0.0,6.0,6.0,441.24859600015037,6.0,1.0,phase_2,go,700.0,400.0,1.0,,,,,,,,,cyan,cross
0.0,8.0,4.0,1.0,6.0,0.0,0.0,6.0,1.0,phase_2,stop,700.0,400.0,4.0,,,,,,,,,green,diamond
0.0,7.0,2.0,1.0,6.0,6.0,273.6066600000413,6.0,1.0,phase_2,stop,700.0,450.0,3.0,,,,,,,,,white,flipped triangle
0.0,8.0,4.0,1.0,6.0,0.0,0.0,6.0,1.0,phase_2,stop,700.0,400.0,4.0,,,,,,,,,green,diamond
0.0,3.0,2.0,0.0,6.0,6.0,593.4212440001829,6.0,1.0,phase_2,go,700.0,450.0,1.0,,,,,,,,,gray,triangle
0.0,6.0,1.0,1.0,5.0,0.0,0.0,6.0,1.0,phase_2,stop,700.0,450.0,4.0,,,,,,,,,yellow,I
0.0,4.0,4.0,0.0,5.0,5.0,753.1408160002684,6.0,1.0,phase_2,go,750.0,450.0,1.0,,,,,,,,,orange,circle
0.0,6.0,1.0,1.0,5.0,5.0,912.7811940002176,6.0,1.0,phase_2,stop,750.0,450.0,3.0,,,,,,,,,yellow,I
0.0,1.0,0.5,0.0,5.0,5.0,1071.398142999897,6.0,1.0,phase_2,go,700.0,450.0,1.0,,,,,,,,,magenta,hexagon
0.0,5.0,0.5,1.0,5.0,5.0,526.7790840002817,6.0,1.0,phase_2,stop,700.0,450.0,3.0,,,,,,,,,blue,square
0.0,4.0,4.0,0.0,5.0,5.0,478.8814850003291,6.0,1.0,phase_2,go,650.0,450.0,1.0,,,,,,,,,orange,circle
0.0,4.0,4.0,0.0,5.0,5.0,1363.683497999773,6.0,1.0,phase_2,go,650.0,450.0,1.0,,,,,,,,,orange,circle
0.0,8.0,4.0,1.0,6.0,0.0,0.0,6.0,1.0,phase_2,stop,650.0,450.0,4.0,,,,,,,,,green,diamond
0.0,8.0,4.0,1.0,5.0,5.0,884.6446190000279,6.0,1.0,phase_2,go,650.0,500.0,1.0,,,,,,,,,green,diamond
0.0,7.0,2.0,1.0,6.0,0.0,0.0,6.0,1.0,phase_2,stop,650.0,500.0,4.0,,,,,,,,,white,flipped triangle
0.0,4.0,4.0,0.0,6.0,0.0,0.0,6.0,1.0,phase_2,go,650.0,550.0,5.0,,,,,,,,,orange,circle
0.0,8.0,4.0,1.0,5.0,0.0,0.0,6.0,1.0,phase_2,stop,650.0,550.0,4.0,,,,,,,,,green,diamond
0.0,6.0,1.0,1.0,5.0,0.0,0.0,6.0,1.0,phase_2,stop,700.0,550.0,4.0,,,,,,,,,yellow,I
0.0,4.0,4.0,0.0,5.0,5.0,349.109438999676,6.0,1.0,phase_2,go,750.0,550.0,1.0,,,,,,,,,orange,circle
0.0,1.0,0.5,0.0,5.0,5.0,359.3014969997057,6.0,1.0,phase_2,go,750.0,550.0,1.0,,,,,,,,,magenta,hexagon
0.0,2.0,1.0,0.0,5.0,0.0,0.0,6.0,1.0,phase_2,go,750.0,550.0,5.0,,,,,,,,,cyan,cross
0.0,8.0,4.0,1.0,6.0,0.0,0.0,6.0,1.0,phase_2,stop,750.0,550.0,4.0,,,,,,,,,green,diamond
0.0,2.0,1.0,0.0,5.0,0.0,0.0,6.0,1.0,phase_2,go,750.0,600.0,5.0,,,,,,,,,cyan,cross
0.0,2.0,1.0,0.0,5.0,5.0,1167.958776999967,6.0,1.0,phase_2,go,750.0,600.0,1.0,,,,,,,,,cyan,cross
0.0,3.0,2.0,0.0,5.0,5.0,1035.1568920000318,6.0,1.0,phase_2,go,750.0,600.0,1.0,,,,,,,,,gray,triangle
0.0,4.0,4.0,0.0,6.0,6.0,1045.2899089996208,6.0,1.0,phase_2,go,750.0,600.0,1.0,,,,,,,,,orange,circle
0.0,1.0,0.5,0.0,5.0,5.0,903.4561430003124,6.0,1.0,phase_2,go,750.0,600.0,1.0,,,,,,,,,magenta,hexagon
0.0,6.0,1.0,1.0,6.0,0.0,0.0,6.0,1.0,phase_2,stop,750.0,600.0,4.0,,,,,,,,,yellow,I
0.0,4.0,4.0,0.0,6.0,6.0,1000.3110600000582,6.0,1.0,phase_2,go,750.0,650.0,1.0,,,,,,,,,orange,circle
0.0,7.0,2.0,1.0,6.0,6.0,1151.1506380002174,6.0,1.0,phase_2,go,750.0,650.0,1.0,,,,,,,,,white,flipped triangle
0.0,2.0,1.0,0.0,5.0,5.0,932.6844399997752,6.0,1.0,phase_2,go,750.0,650.0,1.0,,,,,,,,,cyan,cross
0.0,1.0,0.5,0.0,6.0,6.0,876.4123249998192,6.0,1.0,phase_2,go,750.0,650.0,1.0,,,,,,,,,magenta,hexagon
0.0,6.0,1.0,1.0,6.0,0.0,0.0,6.0,1.0,phase_2,stop,750.0,650.0,4.0,,,,,,,,,yellow,I
0.0,2.0,1.0,0.0,6.0,6.0,781.2099679999847,6.0,1.0,phase_2,go,750.0,700.0,1.0,,,,,,,,,cyan,cross
0.0,2.0,1.0,0.0,6.0,6.0,830.0650000001042,6.0,1.0,phase_2,go,750.0,700.0,1.0,,,,,,,,,cyan,cross
0.0,8.0,4.0,1.0,5.0,5.0,395.1584199999161,7.0,1.0,phase_2,go,750.0,700.0,1.0,,,,,,,,,green,diamond
0.0,4.0,4.0,0.0,6.0,6.0,750.5241520002528,7.0,1.0,phase_2,go,750.0,700.0,1.0,,,,,,,,,orange,circle
0.0,2.0,1.0,0.0,6.0,6.0,864.2495049998615,7.0,1.0,phase_2,go,750.0,700.0,1.0,,,,,,,,,cyan,cross
0.0,8.0,4.0,1.0,5.0,0.0,0.0,7.0,1.0,phase_2,stop,750.0,700.0,4.0,,,,,,,,,green,diamond
0.0,2.0,1.0,0.0,5.0,5.0,696.0005890000502,7.0,1.0,phase_2,go,800.0,700.0,1.0,,,,,,,,,cyan,cross
0.0,8.0,4.0,1.0,5.0,0.0,0.0,7.0,1.0,phase_2,stop,800.0,700.0,4.0,,,,,,,,,green,diamond
0.0,1.0,0.5,0.0,6.0,6.0,338.4495629998127,7.0,1.0,phase_2,go,850.0,700.0,1.0,,,,,,,,,magenta,hexagon
0.0,3.0,2.0,0.0,5.0,0.0,0.0,7.0,1.0,phase_2,go,850.0,700.0,5.0,,,,,,,,,gray,triangle
0.0,2.0,1.0,0.0,5.0,5.0,857.4226679997992,7.0,1.0,phase_2,go,850.0,700.0,1.0,,,,,,,,,cyan,cross
0.0,4.0,4.0,0.0,6.0,6.0,808.81022199992,7.0,1.0,phase_2,go,850.0,700.0,1.0,,,,,,,,,orange,circle
0.0,4.0,4.0,0.0,6.0,6.0,489.8910929996418,7.0,1.0,phase_2,go,850.0,700.0,1.0,,,,,,,,,orange,circle
0.0,7.0,2.0,1.0,5.0,5.0,359.6041680002599,7.0,1.0,phase_2,stop,850.0,700.0,3.0,,,,,,,,,white,flipped triangle
0.0,8.0,4.0,1.0,5.0,5.0,602.0211980003296,7.0,1.0,phase_2,stop,800.0,700.0,3.0,,,,,,,,,green,diamond
0.0,2.0,1.0,0.0,6.0,6.0,443.1061700001919,7.0,1.0,phase_2,go,750.0,700.0,1.0,,,,,,,,,cyan,cross
0.0,5.0,0.5,1.0,6.0,6.0,867.2391790000802,7.0,1.0,phase_2,go,750.0,700.0,1.0,,,,,,,,,blue,square
0.0,1.0,0.5,0.0,6.0,6.0,657.9426379998949,7.0,1.0,phase_2,go,750.0,700.0,1.0,,,,,,,,,magenta,hexagon
0.0,3.0,2.0,0.0,6.0,6.0,801.6023719997065,7.0,1.0,phase_2,go,750.0,700.0,1.0,,,,,,,,,gray,triangle
0.0,1.0,0.5,0.0,5.0,5.0,1024.659779999638,7.0,1.0,phase_2,go,750.0,700.0,1.0,,,,,,,,,magenta,hexagon
0.0,3.0,2.0,0.0,5.0,0.0,0.0,7.0,1.0,phase_2,go,750.0,700.0,5.0,,,,,,,,,gray,triangle
0.0,7.0,2.0,1.0,5.0,5.0,883.7353539997821,7.0,1.0,phase_2,go,750.0,700.0,1.0,,,,,,,,,white,flipped triangle
0.0,6.0,1.0,1.0,6.0,6.0,1203.2700539998586,7.0,1.0,phase_2,go,750.0,700.0,1.0,,,,,,,,,yellow,I
0.0,1.0,0.5,0.0,6.0,6.0,525.3508030000376,7.0,1.0,phase_2,go,750.0,700.0,1.0,,,,,,,,,magenta,hexagon
0.0,6.0,1.0,1.0,6.0,6.0,592.455790999793,7.0,1.0,phase_2,stop,750.0,700.0,3.0,,,,,,,,,yellow,I
0.0,3.0,2.0,0.0,6.0,6.0,464.3457429997397,7.0,1.0,phase_2,go,750.0,650.0,1.0,,,,,,,,,gray,triangle
0.0,2.0,1.0,0.0,5.0,5.0,517.7484689997982,7.0,1.0,phase_2,go,750.0,650.0,1.0,,,,,,,,,cyan,cross
0.0,6.0,1.0,1.0,6.0,0.0,0.0,7.0,1.0,phase_2,stop,750.0,650.0,4.0,,,,,,,,,yellow,I
0.0,1.0,0.5,0.0,5.0,5.0,397.2864400002436,7.0,1.0,phase_2,go,750.0,700.0,1.0,,,,,,,,,magenta,hexagon
0.0,4.0,4.0,0.0,5.0,5.0,547.9915099999744,7.0,1.0,phase_2,go,750.0,700.0,1.0,,,,,,,,,orange,circle
0.0,5.0,0.5,1.0,5.0,0.0,0.0,7.0,1.0,phase_2,stop,750.0,700.0,4.0,,,,,,,,,blue,square
0.0,7.0,2.0,1.0,5.0,5.0,662.8522849996443,7.0,1.0,phase_2,stop,800.0,700.0,3.0,,,,,,,,,white,flipped triangle
0.0,5.0,0.5,1.0,6.0,0.0,0.0,7.0,1.0,phase_2,stop,750.0,700.0,4.0,,,,,,,,,blue,square
0.0,6.0,1.0,1.0,6.0,6.0,960.801710999931,7.0,1.0,phase_2,go,750.0,750.0,1.0,,,,,,,,,yellow,I
0.0,5.0,0.5,1.0,6.0,6.0,937.5168900000972,7.0,1.0,phase_2,stop,750.0,750.0,3.0,,,,,,,,,blue,square
0.0,4.0,4.0,0.0,6.0,6.0,545.9963680000328,7.0,1.0,phase_2,go,750.0,700.0,1.0,,,,,,,,,orange,circle
0.0,3.0,2.0,0.0,6.0,6.0,349.1346499999963,7.0,1.0,phase_2,go,750.0,700.0,1.0,,,,,,,,,gray,triangle
0.0,6.0,1.0,1.0,6.0,6.0,1041.2601309999443,7.0,1.0,phase_2,go,750.0,700.0,1.0,,,,,,,,,yellow,I
0.0,6.0,1.0,1.0,6.0,6.0,610.5651850002687,8.0,1.0,phase_2,stop,750.0,700.0,3.0,,,,,,,,,yellow,I
0.0,8.0,4.0,1.0,5.0,5.0,921.5450050000982,8.0,1.0,phase_2,stop,750.0,650.0,3.0,,,,,,,,,green,diamond
0.0,6.0,1.0,1.0,6.0,0.0,0.0,8.0,1.0,phase_2,stop,700.0,650.0,4.0,,,,,,,,,yellow,I
0.0,3.0,2.0,0.0,6.0,6.0,612.4150729997382,8.0,1.0,phase_2,go,700.0,700.0,1.0,,,,,,,,,gray,triangle
0.0,6.0,1.0,1.0,6.0,0.0,0.0,8.0,1.0,phase_2,stop,700.0,700.0,4.0,,,,,,,,,yellow,I
0.0,5.0,0.5,1.0,5.0,0.0,0.0,8.0,1.0,phase_2,stop,700.0,750.0,4.0,,,,,,,,,blue,square
0.0,8.0,4.0,1.0,6.0,6.0,516.7476530000386,8.0,1.0,phase_2,stop,750.0,750.0,3.0,,,,,,,,,green,diamond
0.0,4.0,4.0,0.0,5.0,5.0,365.846792999946,8.0,1.0,phase_2,go,750.0,700.0,1.0,,,,,,,,,orange,circle
0.0,7.0,2.0,1.0,5.0,0.0,0.0,8.0,1.0,phase_2,stop,750.0,700.0,4.0,,,,,,,,,white,flipped triangle
0.0,1.0,0.5,0.0,5.0,5.0,584.2225680003139,8.0,1.0,phase_2,go,800.0,700.0,1.0,,,,,,,,,magenta,hexagon
0.0,8.0,4.0,1.0,6.0,6.0,1200.5880659999093,8.0,1.0,phase_2,go,800.0,700.0,1.0,,,,,,,,,green,diamond
0.0,5.0,0.5,1.0,6.0,0.0,0.0,8.0,1.0,phase_2,stop,800.0,700.0,4.0,,,,,,,,,blue,square
0.0,1.0,0.5,0.0,5.0,5.0,403.7323959996683,8.0,1.0,phase_2,go,800.0,750.0,1.0,,,,,,,,,magenta,hexagon
0.0,1.0,0.5,0.0,6.0,6.0,422.858584000096,8.0,1.0,phase_2,go,800.0,750.0,1.0,,,,,,,,,magenta,hexagon
0.0,5.0,0.5,1.0,5.0,0.0,0.0,8.0,1.0,phase_2,stop,800.0,750.0,4.0,,,,,,,,,blue,square
0.0,8.0,4.0,1.0,5.0,0.0,0.0,8.0,1.0,phase_2,stop,850.0,750.0,4.0,,,,,,,,,green,diamond
0.0,3.0,2.0,0.0,5.0,5.0,666.3824350002869,8.0,1.0,phase_2,go,900.0,750.0,1.0,,,,,,,,,gray,triangle
0.0,8.0,4.0,1.0,6.0,0.0,0.0,8.0,1.0,phase_2,stop,900.0,750.0,4.0,,,,,,,,,green,diamond
0.0,7.0,2.0,1.0,6.0,6.0,479.4055910001589,8.0,1.0,phase_2,stop,900.0,800.0,3.0,,,,,,,,,white,flipped triangle
0.0,6.0,1.0,1.0,5.0,0.0,0.0,8.0,1.0,phase_2,stop,900.0,750.0,4.0,,,,,,,,,yellow,I
0.0,1.0,0.5,0.0,6.0,6.0,527.5911210001141,8.0,1.0,phase_2,go,950.0,750.0,1.0,,,,,,,,,magenta,hexagon
0.0,2.0,1.0,0.0,5.0,5.0,470.4068739997638,8.0,1.0,phase_2,go,950.0,750.0,1.0,,,,,,,,,cyan,cross
0.0,5.0,0.5,1.0,5.0,0.0,0.0,8.0,1.0,phase_2,stop,950.0,750.0,4.0,,,,,,,,,blue,square
0.0,4.0,4.0,0.0,5.0,5.0,495.1030440001887,8.0,1.0,phase_2,go,1000.0,750.0,1.0,,,,,,,,,orange,circle
0.0,4.0,4.0,0.0,5.0,5.0,366.8348239998522,8.0,1.0,phase_2,go,1000.0,750.0,1.0,,,,,,,,,orange,circle
0.0,1.0,0.5,0.0,5.0,5.0,356.8424280001636,8.0,1.0,phase_2,go,1000.0,750.0,1.0,,,,,,,,,magenta,hexagon
0.0,7.0,2.0,1.0,6.0,6.0,364.97250999991587,8.0,1.0,phase_2,go,1000.0,750.0,1.0,,,,,,,,,white,flipped triangle
0.0,4.0,4.0,0.0,5.0,5.0,338.1965890002902,8.0,1.0,phase_2,go,1000.0,750.0,1.0,,,,,,,,,orange,circle
0.0,6.0,1.0,1.0,6.0,6.0,374.849076999908,8.0,1.0,phase_2,go,1000.0,750.0,1.0,,,,,,,,,yellow,I
0.0,5.0,0.5,1.0,6.0,0.0,0.0,8.0,1.0,phase_2,stop,1000.0,750.0,4.0,,,,,,,,,blue,square
0.0,8.0,4.0,1.0,6.0,0.0,0.0,8.0,1.0,phase_2,stop,1000.0,800.0,4.0,,,,,,,,,green,diamond
0.0,1.0,0.5,0.0,5.0,5.0,450.2758530002211,8.0,1.0,phase_2,go,1000.0,850.0,1.0,,,,,,,,,magenta,hexagon
0.0,3.0,2.0,0.0,5.0,5.0,422.6712879999468,8.0,1.0,phase_2,go,1000.0,850.0,1.0,,,,,,,,,gray,triangle
0.0,1.0,0.5,0.0,5.0,5.0,395.1514720001796,8.0,1.0,phase_2,go,1000.0,850.0,1.0,,,,,,,,,magenta,hexagon
0.0,7.0,2.0,1.0,6.0,6.0,412.8966849998505,8.0,1.0,phase_2,go,1000.0,850.0,1.0,,,,,,,,,white,flipped triangle
0.0,6.0,1.0,1.0,6.0,0.0,0.0,8.0,1.0,phase_2,stop,1000.0,850.0,4.0,,,,,,,,,yellow,I
0.0,5.0,0.5,1.0,7.0,4.0,1976.170894999996,1.0,1.0,phase_3,,,,,576.0,3.0,1152.0,960.0,192.0,576.0,768.0,384.0,blue,square
0.0,6.0,1.0,1.0,7.0,2.0,1540.2815269999337,1.0,1.0,phase_3,,,,,173.0,1.0,865.0,173.0,346.0,692.0,1038.0,519.0,yellow,I
0.0,5.0,0.5,1.0,7.0,3.0,1129.640284999823,1.0,1.0,phase_3,,,,,192.0,1.0,1152.0,768.0,192.0,960.0,384.0,576.0,blue,square
0.0,3.0,2.0,0.0,7.0,5.0,905.310750999888,1.0,1.0,phase_3,,,,,768.0,4.0,192.0,384.0,576.0,1152.0,768.0,960.0,gray,triangle
0.0,1.0,0.5,0.0,7.0,1.0,769.0660900002513,1.0,1.0,phase_3,,,,,616.0,4.0,616.0,770.0,924.0,308.0,154.0,462.0,magenta,hexagon
0.0,7.0,2.0,1.0,7.0,3.0,1176.1285560000942,1.0,1.0,phase_3,,,,,1038.0,6.0,865.0,173.0,1038.0,346.0,519.0,692.0,white,flipped triangle
0.0,4.0,4.0,0.0,7.0,5.0,764.8511760003203,1.0,1.0,phase_3,,,,,519.0,3.0,692.0,1038.0,173.0,346.0,519.0,865.0,orange,circle
0.0,1.0,0.5,0.0,7.0,6.0,719.6830180000688,1.0,1.0,phase_3,,,,,116.0,1.0,464.0,580.0,232.0,348.0,696.0,116.0,magenta,hexagon
0.0,7.0,2.0,1.0,7.0,4.0,746.4253459997963,1.0,1.0,phase_3,,,,,540.0,4.0,675.0,135.0,270.0,540.0,810.0,405.0,white,flipped triangle
0.0,6.0,1.0,1.0,7.0,6.0,981.1721410001156,1.0,1.0,phase_3,,,,,192.0,1.0,960.0,768.0,384.0,576.0,1152.0,192.0,yellow,I
0.0,1.0,0.5,0.0,7.0,3.0,717.5406290002684,1.0,1.0,phase_3,,,,,519.0,3.0,1038.0,865.0,519.0,173.0,692.0,346.0,magenta,hexagon
0.0,6.0,1.0,1.0,7.0,2.0,951.2751400002344,1.0,1.0,phase_3,,,,,173.0,1.0,346.0,173.0,519.0,1038.0,865.0,692.0,yellow,I
0.0,1.0,0.5,0.0,7.0,3.0,765.4963119998683,1.0,1.0,phase_3,,,,,384.0,2.0,576.0,960.0,384.0,1152.0,192.0,768.0,magenta,hexagon
0.0,1.0,0.5,0.0,7.0,4.0,457.6761059997807,1.0,1.0,phase_3,,,,,865.0,5.0,1038.0,692.0,173.0,865.0,519.0,346.0,magenta,hexagon
0.0,2.0,1.0,0.0,7.0,5.0,786.4993260000119,1.0,1.0,phase_3,,,,,692.0,4.0,519.0,346.0,1038.0,865.0,692.0,173.0,cyan,cross
0.0,8.0,4.0,1.0,7.0,3.0,700.8577699998568,1.0,1.0,phase_3,,,,,462.0,3.0,616.0,308.0,462.0,154.0,770.0,924.0,green,diamond
0.0,8.0,4.0,1.0,7.0,2.0,1020.906248999836,1.0,1.0,phase_3,,,,,270.0,2.0,675.0,270.0,810.0,405.0,540.0,135.0,green,diamond
0.0,4.0,4.0,0.0,7.0,3.0,904.396811999959,1.0,1.0,phase_3,,,,,1038.0,6.0,173.0,519.0,1038.0,865.0,346.0,692.0,orange,circle
0.0,4.0,4.0,0.0,7.0,4.0,1036.4550809999855,1.0,1.0,phase_3,,,,,1152.0,6.0,192.0,960.0,576.0,1152.0,768.0,384.0,orange,circle
0.0,7.0,2.0,1.0,7.0,2.0,1108.955695000077,1.0,1.0,phase_3,,,,,770.0,5.0,924.0,770.0,154.0,462.0,616.0,308.0,white,flipped triangle
0.0,2.0,1.0,0.0,7.0,4.0,1157.9021279999324,2.0,1.0,phase_3,,,,,810.0,6.0,540.0,270.0,135.0,810.0,405.0,675.0,cyan,cross
0.0,7.0,2.0,1.0,7.0,2.0,1230.2528999998683,2.0,1.0,phase_3,,,,,462.0,3.0,770.0,462.0,308.0,924.0,616.0,154.0,white,flipped triangle
0.0,4.0,4.0,0.0,7.0,3.0,1676.8210559998806,2.0,1.0,phase_3,,,,,696.0,6.0,232.0,464.0,696.0,580.0,348.0,116.0,orange,circle
0.0,3.0,2.0,0.0,7.0,6.0,2250.7673389995944,2.0,1.0,phase_3,,,,,346.0,2.0,865.0,1038.0,692.0,519.0,173.0,346.0,gray,triangle
0.0,2.0,1.0,0.0,7.0,4.0,2032.862308000404,2.0,1.0,phase_3,,,,,768.0,4.0,384.0,1152.0,576.0,768.0,960.0,192.0,cyan,cross
0.0,5.0,0.5,1.0,7.0,6.0,2378.6654720001934,2.0,1.0,phase_3,,,,,270.0,2.0,675.0,405.0,810.0,135.0,540.0,270.0,blue,square
0.0,1.0,0.5,0.0,7.0,4.0,2165.154249999887,2.0,1.0,phase_3,,,,,696.0,6.0,580.0,116.0,464.0,696.0,232.0,348.0,magenta,hexagon
0.0,4.0,4.0,0.0,7.0,2.0,2029.9642769996358,2.0,1.0,phase_3,,,,,924.0,6.0,770.0,924.0,154.0,616.0,308.0,462.0,orange,circle
0.0,2.0,1.0,0.0,7.0,3.0,1102.2250089999943,2.0,1.0,phase_3,,,,,810.0,6.0,135.0,675.0,810.0,540.0,405.0,270.0,cyan,cross
0.0,7.0,2.0,1.0,7.0,4.0,1648.3731200000875,2.0,1.0,phase_3,,,,,384.0,2.0,576.0,1152.0,192.0,384.0,768.0,960.0,white,flipped triangle
0.0,3.0,2.0,0.0,7.0,3.0,1072.0702019998498,2.0,1.0,phase_3,,,,,232.0,2.0,580.0,464.0,232.0,116.0,348.0,696.0,gray,triangle
0.0,5.0,0.5,1.0,7.0,1.0,1322.8496560000167,2.0,1.0,phase_3,,,,,116.0,1.0,116.0,464.0,696.0,232.0,348.0,580.0,blue,square
0.0,6.0,1.0,1.0,7.0,5.0,1562.968046000151,2.0,1.0,phase_3,,,,,675.0,5.0,810.0,540.0,135.0,405.0,675.0,270.0,yellow,I
0.0,6.0,1.0,1.0,7.0,1.0,1790.1356649999798,2.0,1.0,phase_3,,,,,696.0,6.0,696.0,232.0,348.0,464.0,580.0,116.0,yellow,I
0.0,7.0,2.0,1.0,7.0,4.0,1326.5462899998963,2.0,1.0,phase_3,,,,,348.0,3.0,464.0,116.0,696.0,348.0,580.0,232.0,white,flipped triangle
0.0,2.0,1.0,0.0,7.0,2.0,1528.9337919998616,2.0,1.0,phase_3,,,,,924.0,6.0,770.0,924.0,308.0,616.0,154.0,462.0,cyan,cross
0.0,8.0,4.0,1.0,7.0,2.0,1240.9518539998317,2.0,1.0,phase_3,,,,,192.0,1.0,384.0,192.0,1152.0,960.0,576.0,768.0,green,diamond
0.0,1.0,0.5,0.0,7.0,3.0,1512.8994409997176,2.0,1.0,phase_3,,,,,768.0,4.0,960.0,1152.0,768.0,192.0,576.0,384.0,magenta,hexagon
0.0,1.0,0.5,0.0,7.0,2.0,923.679460999665,2.0,1.0,phase_3,,,,,770.0,5.0,616.0,770.0,308.0,462.0,924.0,154.0,magenta,hexagon
0.0,4.0,4.0,0.0,7.0,6.0,2972.009180999976,2.0,1.0,phase_3,,,,,810.0,6.0,540.0,675.0,135.0,405.0,270.0,810.0,orange,circle
0.0,5.0,0.5,1.0,7.0,2.0,1377.9057040001137,3.0,1.0,phase_3,,,,,116.0,1.0,696.0,116.0,348.0,232.0,464.0,580.0,blue,square
0.0,2.0,1.0,0.0,7.0,3.0,2970.6742550001763,3.0,1.0,phase_3,,,,,865.0,5.0,519.0,346.0,865.0,692.0,173.0,1038.0,cyan,cross
0.0,2.0,1.0,0.0,7.0,2.0,2999.6066420003444,3.0,1.0,phase_3,,,,,580.0,5.0,696.0,580.0,116.0,348.0,232.0,464.0,cyan,cross
0.0,5.0,0.5,1.0,7.0,3.0,2527.604021000116,3.0,1.0,phase_3,,,,,462.0,3.0,308.0,154.0,462.0,616.0,924.0,770.0,blue,square
0.0,1.0,0.5,0.0,7.0,4.0,2320.096972000101,3.0,1.0,phase_3,,,,,810.0,6.0,405.0,135.0,675.0,810.0,270.0,540.0,magenta,hexagon
0.0,6.0,1.0,1.0,7.0,2.0,1695.1771849999204,3.0,1.0,phase_3,,,,,270.0,2.0,405.0,270.0,135.0,810.0,675.0,540.0,yellow,I
0.0,4.0,4.0,0.0,7.0,3.0,1817.327836000004,3.0,1.0,phase_3,,,,,1152.0,6.0,768.0,576.0,1152.0,192.0,384.0,960.0,orange,circle
0.0,7.0,2.0,1.0,7.0,4.0,1649.079969000013,3.0,1.0,phase_3,,,,,540.0,4.0,270.0,675.0,405.0,540.0,135.0,810.0,white,flipped triangle
0.0,2.0,1.0,0.0,7.0,6.0,2483.938321000096,3.0,1.0,phase_3,,,,,616.0,4.0,308.0,462.0,924.0,770.0,154.0,616.0,cyan,cross
0.0,4.0,4.0,0.0,7.0,3.0,1878.736327000297,3.0,1.0,phase_3,,,,,696.0,6.0,348.0,232.0,696.0,464.0,580.0,116.0,orange,circle
0.0,2.0,1.0,0.0,7.0,4.0,1270.2198730003147,3.0,1.0,phase_3,,,,,696.0,6.0,232.0,580.0,348.0,696.0,116.0,464.0,cyan,cross
0.0,4.0,4.0,0.0,7.0,4.0,911.6778890002024,3.0,1.0,phase_3,,,,,675.0,5.0,270.0,405.0,135.0,675.0,810.0,540.0,orange,circle
0.0,8.0,4.0,1.0,7.0,3.0,1797.2668910006178,3.0,1.0,phase_3,,,,,192.0,1.0,576.0,960.0,192.0,768.0,384.0,1152.0,green,diamond
0.0,6.0,1.0,1.0,7.0,2.0,1163.856205999764,3.0,1.0,phase_3,,,,,384.0,2.0,960.0,384.0,1152.0,576.0,768.0,192.0,yellow,I
0.0,4.0,4.0,0.0,7.0,4.0,1035.3309780002746,3.0,1.0,phase_3,,,,,924.0,6.0,770.0,308.0,154.0,924.0,462.0,616.0,orange,circle
0.0,3.0,2.0,0.0,7.0,5.0,1345.1920269999391,3.0,1.0,phase_3,,,,,616.0,4.0,770.0,462.0,154.0,308.0,616.0,924.0,gray,triangle
0.0,3.0,2.0,0.0,7.0,1.0,1799.5812449998994,3.0,1.0,phase_3,,,,,519.0,3.0,519.0,1038.0,346.0,173.0,692.0,865.0,gray,triangle
0.0,5.0,0.5,1.0,7.0,5.0,1544.5546219998505,3.0,1.0,phase_3,,,,,173.0,1.0,692.0,865.0,1038.0,346.0,173.0,519.0,blue,square
0.0,7.0,2.0,1.0,7.0,4.0,903.0404810000618,3.0,1.0,phase_3,,,,,384.0,2.0,768.0,960.0,192.0,384.0,576.0,1152.0,white,flipped triangle
0.0,3.0,2.0,0.0,7.0,2.0,1798.244500999317,3.0,1.0,phase_3,,,,,696.0,6.0,580.0,696.0,116.0,232.0,348.0,464.0,gray,triangle
0.0,7.0,2.0,1.0,7.0,1.0,1527.61261500018,4.0,1.0,phase_3,,,,,173.0,1.0,173.0,692.0,1038.0,865.0,519.0,346.0,white,flipped triangle
0.0,8.0,4.0,1.0,7.0,5.0,1353.192558000046,4.0,1.0,phase_3,,,,,173.0,1.0,519.0,692.0,346.0,1038.0,173.0,865.0,green,diamond
0.0,6.0,1.0,1.0,7.0,4.0,1339.7800720003945,4.0,1.0,phase_3,,,,,154.0,1.0,462.0,616.0,770.0,154.0,924.0,308.0,yellow,I
0.0,8.0,4.0,1.0,7.0,5.0,1181.8848320008328,4.0,1.0,phase_3,,,,,116.0,1.0,348.0,696.0,464.0,232.0,116.0,580.0,green,diamond
0.0,3.0,2.0,0.0,7.0,1.0,1939.0625570003976,4.0,1.0,phase_3,,,,,462.0,3.0,462.0,154.0,770.0,924.0,308.0,616.0,gray,triangle
0.0,8.0,4.0,1.0,7.0,5.0,1552.4223369993706,4.0,1.0,phase_3,,,,,154.0,1.0,308.0,924.0,462.0,616.0,154.0,770.0,green,diamond
0.0,3.0,2.0,0.0,7.0,1.0,1577.5868780001474,4.0,1.0,phase_3,,,,,384.0,2.0,384.0,192.0,1152.0,768.0,960.0,576.0,gray,triangle
0.0,8.0,4.0,1.0,7.0,6.0,1986.6030140001385,4.0,1.0,phase_3,,,,,135.0,1.0,675.0,810.0,270.0,540.0,405.0,135.0,green,diamond
0.0,7.0,2.0,1.0,7.0,5.0,1557.2710280002866,4.0,1.0,phase_3,,,,,580.0,5.0,696.0,348.0,464.0,116.0,580.0,232.0,white,flipped triangle
0.0,2.0,1.0,0.0,7.0,4.0,1408.8856260004832,4.0,1.0,phase_3,,,,,1152.0,6.0,960.0,384.0,192.0,1152.0,768.0,576.0,cyan,cross
0.0,5.0,0.5,1.0,7.0,3.0,1436.1438099995212,4.0,1.0,phase_3,,,,,173.0,1.0,692.0,519.0,173.0,346.0,865.0,1038.0,blue,square
0.0,1.0,0.5,0.0,7.0,6.0,1512.3556750004354,4.0,1.0,phase_3,,,,,810.0,6.0,675.0,405.0,270.0,135.0,540.0,810.0,magenta,hexagon
0.0,8.0,4.0,1.0,7.0,6.0,2517.9804680001325,4.0,1.0,phase_3,,,,,173.0,1.0,1038.0,346.0,865.0,519.0,692.0,173.0,green,diamond
0.0,5.0,0.5,1.0,7.0,4.0,2489.3968119995407,4.0,1.0,phase_3,,,,,154.0,1.0,462.0,770.0,308.0,154.0,616.0,924.0,blue,square
0.0,5.0,0.5,1.0,7.0,4.0,2236.628560999634,4.0,1.0,phase_3,,,,,405.0,3.0,135.0,810.0,540.0,405.0,675.0,270.0,blue,square
0.0,6.0,1.0,1.0,7.0,2.0,1341.9917139999598,4.0,1.0,phase_3,,,,,308.0,2.0,154.0,308.0,462.0,770.0,924.0,616.0,yellow,I
0.0,3.0,2.0,0.0,7.0,4.0,1239.2513370004965,4.0,1.0,phase_3,,,,,675.0,5.0,810.0,540.0,270.0,675.0,135.0,405.0,gray,triangle
0.0,8.0,4.0,1.0,7.0,4.0,2078.927601000032,4.0,1.0,phase_3,,,,,232.0,2.0,580.0,464.0,696.0,232.0,348.0,116.0,green,diamond
0.0,3.0,2.0,0.0,7.0,1.0,1615.478331000304,4.0,1.0,phase_3,,,,,540.0,4.0,540.0,675.0,810.0,405.0,135.0,270.0,gray,triangle
0.0,6.0,1.0,1.0,7.0,5.0,924.6942409999974,4.0,1.0,phase_3,,,,,580.0,5.0,696.0,464.0,116.0,348.0,580.0,232.0,yellow,I
