raw_reward_magnitude,stim_reward,stepwise_reward_magnitude,paired_with_stopping,stim_location,response,reaction_time,block,num_trial_presentations,which_phase,stop_signal_trial_type,left_SSD,right_SSD,accuracy,chosen_bidding_amount,chosen_bidding_level,possible_bid_1,possible_bid_2,possible_bid_3,possible_bid_4,possible_bid_5,possible_bid_6,color_text,shape_text
325.0,2.0,2.0,0.0,3.0,3.0,502.63658599942573,1.0,1.0,phase_1,,,,,,,,,,,,,magenta,cross
638.0,7.0,3.0,1.0,4.0,4.0,473.6506059998646,1.0,1.0,phase_1,,,,,,,,,,,,,yellow,triangle
640.0,7.0,3.0,1.0,1.0,1.0,473.8351949999924,1.0,1.0,phase_1,,,,,,,,,,,,,yellow,triangle
175.0,5.0,1.0,1.0,2.0,2.0,394.0456009995614,1.0,1.0,phase_1,,,,,,,,,,,,,gray,diamond
184.0,5.0,1.0,1.0,1.0,1.0,549.8500210005659,1.0,1.0,phase_1,,,,,,,,,,,,,gray,diamond
648.0,7.0,3.0,1.0,3.0,3.0,370.9568510003009,1.0,1.0,phase_1,,,,,,,,,,,,,yellow,triangle
661.0,7.0,3.0,1.0,3.0,3.0,324.3246680003722,1.0,1.0,phase_1,,,,,,,,,,,,,yellow,triangle
302.0,2.0,2.0,0.0,1.0,1.0,454.5464440006981,1.0,1.0,phase_1,,,,,,,,,,,,,magenta,cross
1320.0,4.0,4.0,0.0,4.0,4.0,509.43709300008777,1.0,1.0,phase_1,,,,,,,,,,,,,green,I
145.0,1.0,1.0,0.0,4.0,4.0,351.7369770006553,1.0,1.0,phase_1,,,,,,,,,,,,,blue,flipped triangle
0.0,1.0,0.0,0.0,2.0,2.0,491.7369119993964,1.0,1.0,phase_1,,,,,,,,,,,,,blue,flipped triangle
625.0,7.0,3.0,1.0,4.0,4.0,388.9113570003246,1.0,1.0,phase_1,,,,,,,,,,,,,yellow,triangle
1293.0,8.0,4.0,1.0,1.0,1.0,424.5409040004233,1.0,1.0,phase_1,,,,,,,,,,,,,white,square
1286.0,8.0,4.0,1.0,3.0,3.0,437.9433100002643,1.0,1.0,phase_1,,,,,,,,,,,,,white,square
140.0,1.0,1.0,0.0,4.0,4.0,407.0236719999229,1.0,1.0,phase_1,,,,,,,,,,,,,blue,flipped triangle
1276.0,8.0,4.0,1.0,4.0,4.0,426.3837480002621,1.0,1.0,phase_1,,,,,,,,,,,,,white,square
0.0,1.0,0.0,0.0,1.0,1.0,509.5541249993403,1.0,1.0,phase_1,,,,,,,,,,,,,blue,flipped triangle
0.0,4.0,0.0,0.0,4.0,4.0,435.7566429998769,1.0,1.0,phase_1,,,,,,,,,,,,,green,I
151.0,5.0,1.0,1.0,2.0,2.0,574.925947000338,1.0,1.0,phase_1,,,,,,,,,,,,,gray,diamond
1279.0,8.0,4.0,1.0,4.0,4.0,378.643985999588,1.0,1.0,phase_1,,,,,,,,,,,,,white,square
344.0,6.0,2.0,1.0,4.0,4.0,416.3850000004458,1.0,1.0,phase_1,,,,,,,,,,,,,orange,hexagon
344.0,2.0,2.0,0.0,4.0,4.0,352.1844939996299,1.0,1.0,phase_1,,,,,,,,,,,,,magenta,cross
626.0,3.0,3.0,0.0,3.0,3.0,407.2428059998856,1.0,1.0,phase_1,,,,,,,,,,,,,cyan,circle
0.0,2.0,0.0,0.0,4.0,4.0,340.5686199994306,1.0,1.0,phase_1,,,,,,,,,,,,,magenta,cross
145.0,1.0,1.0,0.0,2.0,2.0,537.3963649999496,1.0,1.0,phase_1,,,,,,,,,,,,,blue,flipped triangle
0.0,3.0,0.0,0.0,4.0,4.0,370.3306650004379,1.0,1.0,phase_1,,,,,,,,,,,,,cyan,circle
181.0,1.0,1.0,0.0,2.0,2.0,499.4886680005947,1.0,1.0,phase_1,,,,,,,,,,,,,blue,flipped triangle
648.0,3.0,3.0,0.0,4.0,4.0,305.8146620005573,1.0,1.0,phase_1,,,,,,,,,,,,,cyan,circle
329.0,6.0,2.0,1.0,2.0,2.0,416.9732529999237,1.0,1.0,phase_1,,,,,,,,,,,,,orange,hexagon
1290.0,4.0,4.0,0.0,3.0,3.0,619.8690410001291,1.0,1.0,phase_1,,,,,,,,,,,,,green,I
0.0,1.0,0.0,0.0,1.0,1.0,435.7732810003654,1.0,1.0,phase_1,,,,,,,,,,,,,blue,flipped triangle
0.0,8.0,0.0,1.0,2.0,2.0,417.5990209996598,1.0,2.0,phase_1,,,,,,,,,,,,,white,square
0.0,5.0,0.0,1.0,1.0,1.0,572.6062009998714,1.0,1.0,phase_1,,,,,,,,,,,,,gray,diamond
654.0,7.0,3.0,1.0,1.0,1.0,492.6301449995662,1.0,1.0,phase_1,,,,,,,,,,,,,yellow,triangle
1325.0,8.0,4.0,1.0,1.0,1.0,343.5408450004615,1.0,1.0,phase_1,,,,,,,,,,,,,white,square
659.0,3.0,3.0,0.0,3.0,3.0,535.9694620001392,1.0,1.0,phase_1,,,,,,,,,,,,,cyan,circle
157.0,1.0,1.0,0.0,1.0,1.0,642.0183030004409,1.0,1.0,phase_1,,,,,,,,,,,,,blue,flipped triangle
140.0,5.0,1.0,1.0,4.0,4.0,499.4698999998945,1.0,1.0,phase_1,,,,,,,,,,,,,gray,diamond
1294.0,8.0,4.0,1.0,2.0,2.0,324.1092870002831,1.0,1.0,phase_1,,,,,,,,,,,,,white,square
1325.0,4.0,4.0,0.0,1.0,1.0,406.4711680002801,1.0,1.0,phase_1,,,,,,,,,,,,,green,I
335.0,2.0,2.0,0.0,3.0,3.0,378.9150709999376,1.0,1.0,phase_1,,,,,,,,,,,,,magenta,cross
634.0,3.0,3.0,0.0,1.0,1.0,360.7709540001451,1.0,1.0,phase_1,,,,,,,,,,,,,cyan,circle
151.0,1.0,1.0,0.0,3.0,3.0,445.0044269997306,1.0,1.0,phase_1,,,,,,,,,,,,,blue,flipped triangle
1293.0,8.0,4.0,1.0,1.0,1.0,425.1406120001775,1.0,1.0,phase_1,,,,,,,,,,,,,white,square
318.0,6.0,2.0,1.0,1.0,1.0,433.5307589999502,1.0,1.0,phase_1,,,,,,,,,,,,,orange,hexagon
0.0,1.0,0.0,0.0,2.0,2.0,358.9559330002885,1.0,1.0,phase_1,,,,,,,,,,,,,blue,flipped triangle
0.0,3.0,0.0,0.0,2.0,2.0,387.3659410000982,1.0,1.0,phase_1,,,,,,,,,,,,,cyan,circle
1302.0,8.0,4.0,1.0,3.0,3.0,453.9685589998044,1.0,1.0,phase_1,,,,,,,,,,,,,white,square
659.0,3.0,3.0,0.0,4.0,4.0,602.2897830007423,1.0,1.0,phase_1,,,,,,,,,,,,,cyan,circle
1302.0,4.0,4.0,0.0,2.0,2.0,444.181904999823,1.0,1.0,phase_1,,,,,,,,,,,,,green,I
155.0,1.0,1.0,0.0,4.0,4.0,424.9562280001555,1.0,1.0,phase_1,,,,,,,,,,,,,blue,flipped triangle
1299.0,8.0,4.0,1.0,4.0,4.0,370.1660950000587,1.0,1.0,phase_1,,,,,,,,,,,,,white,square
1283.0,4.0,4.0,0.0,3.0,3.0,398.2863270002781,1.0,1.0,phase_1,,,,,,,,,,,,,green,I
0.0,5.0,0.0,1.0,4.0,4.0,279.0086190007059,1.0,1.0,phase_1,,,,,,,,,,,,,gray,diamond
157.0,1.0,1.0,0.0,4.0,4.0,351.8647979999514,1.0,1.0,phase_1,,,,,,,,,,,,,blue,flipped triangle
185.0,1.0,1.0,0.0,2.0,2.0,324.2984790003902,1.0,1.0,phase_1,,,,,,,,,,,,,blue,flipped triangle
1293.0,4.0,4.0,0.0,3.0,3.0,416.5041539999947,1.0,1.0,phase_1,,,,,,,,,,,,,green,I
1314.0,8.0,4.0,1.0,1.0,1.0,443.1063279998852,1.0,2.0,phase_1,,,,,,,,,,,,,white,square
1288.0,8.0,4.0,1.0,3.0,3.0,417.4813350000477,1.0,1.0,phase_1,,,,,,,,,,,,,white,square
145.0,5.0,1.0,1.0,1.0,1.0,334.7253629999613,1.0,1.0,phase_1,,,,,,,,,,,,,gray,diamond
656.0,7.0,3.0,1.0,2.0,2.0,612.7535089999583,1.0,1.0,phase_1,,,,,,,,,,,,,yellow,triangle
155.0,5.0,1.0,1.0,1.0,1.0,387.8527590004523,1.0,1.0,phase_1,,,,,,,,,,,,,gray,diamond
169.0,1.0,1.0,0.0,1.0,1.0,416.9193019997692,1.0,1.0,phase_1,,,,,,,,,,,,,blue,flipped triangle
155.0,5.0,1.0,1.0,1.0,1.0,352.4911869999414,1.0,1.0,phase_1,,,,,,,,,,,,,gray,diamond
349.0,6.0,2.0,1.0,3.0,3.0,397.5594629991974,1.0,1.0,phase_1,,,,,,,,,,,,,orange,hexagon
1315.0,8.0,4.0,1.0,3.0,3.0,453.4349440000369,1.0,1.0,phase_1,,,,,,,,,,,,,white,square
1284.0,4.0,4.0,0.0,4.0,4.0,407.5700840003264,1.0,1.0,phase_1,,,,,,,,,,,,,green,I
323.0,6.0,2.0,1.0,3.0,3.0,389.0251359998729,1.0,1.0,phase_1,,,,,,,,,,,,,orange,hexagon
344.0,2.0,2.0,0.0,1.0,1.0,295.8044509996398,1.0,1.0,phase_1,,,,,,,,,,,,,magenta,cross
304.0,2.0,2.0,0.0,3.0,3.0,409.0502700000797,1.0,1.0,phase_1,,,,,,,,,,,,,magenta,cross
176.0,1.0,1.0,0.0,2.0,2.0,591.4032430000589,1.0,1.0,phase_1,,,,,,,,,,,,,blue,flipped triangle
0.0,8.0,0.0,1.0,4.0,4.0,397.8068010001152,1.0,1.0,phase_1,,,,,,,,,,,,,white,square
139.0,5.0,1.0,1.0,2.0,2.0,361.5446110006814,1.0,1.0,phase_1,,,,,,,,,,,,,gray,diamond
155.0,1.0,1.0,0.0,2.0,2.0,352.9221150001831,1.0,1.0,phase_1,,,,,,,,,,,,,blue,flipped triangle
636.0,3.0,3.0,0.0,2.0,2.0,470.8281290004379,1.0,1.0,phase_1,,,,,,,,,,,,,cyan,circle
0.0,7.0,0.0,1.0,4.0,4.0,361.4149240002007,1.0,1.0,phase_1,,,,,,,,,,,,,yellow,triangle
333.0,6.0,2.0,1.0,3.0,3.0,517.5623969998924,1.0,1.0,phase_1,,,,,,,,,,,,,orange,hexagon
0.0,6.0,0.0,1.0,3.0,3.0,398.9477999994051,1.0,1.0,phase_1,,,,,,,,,,,,,orange,hexagon
0.0,5.0,0.0,1.0,3.0,3.0,389.0759979994982,1.0,1.0,phase_1,,,,,,,,,,,,,gray,diamond
317.0,6.0,2.0,1.0,4.0,4.0,355.1065029996607,1.0,1.0,phase_1,,,,,,,,,,,,,orange,hexagon
306.0,2.0,2.0,0.0,4.0,4.0,406.9363509997856,1.0,1.0,phase_1,,,,,,,,,,,,,magenta,cross
632.0,3.0,3.0,0.0,2.0,2.0,500.15000500025053,1.0,1.0,phase_1,,,,,,,,,,,,,cyan,circle
321.0,6.0,2.0,1.0,1.0,1.0,416.1921759996403,1.0,2.0,phase_1,,,,,,,,,,,,,orange,hexagon
0.0,8.0,0.0,1.0,1.0,1.0,360.2154280006289,1.0,1.0,phase_1,,,,,,,,,,,,,white,square
321.0,2.0,2.0,0.0,2.0,2.0,434.3171749997054,1.0,1.0,phase_1,,,,,,,,,,,,,magenta,cross
672.0,3.0,3.0,0.0,3.0,3.0,599.1737019994616,1.0,1.0,phase_1,,,,,,,,,,,,,cyan,circle
0.0,7.0,0.0,1.0,1.0,1.0,489.1637950004224,1.0,1.0,phase_1,,,,,,,,,,,,,yellow,triangle
182.0,1.0,1.0,0.0,4.0,4.0,325.974786000188,1.0,1.0,phase_1,,,,,,,,,,,,,blue,flipped triangle
633.0,3.0,3.0,0.0,3.0,3.0,361.513111000022,1.0,1.0,phase_1,,,,,,,,,,,,,cyan,circle
179.0,5.0,1.0,1.0,2.0,2.0,488.6930919992664,1.0,1.0,phase_1,,,,,,,,,,,,,gray,diamond
303.0,2.0,2.0,0.0,3.0,3.0,370.2935110004546,1.0,1.0,phase_1,,,,,,,,,,,,,magenta,cross
665.0,7.0,3.0,1.0,4.0,4.0,442.6396099997873,1.0,1.0,phase_1,,,,,,,,,,,,,yellow,triangle
333.0,2.0,2.0,0.0,2.0,2.0,443.3435690007172,1.0,1.0,phase_1,,,,,,,,,,,,,magenta,cross
321.0,6.0,2.0,1.0,2.0,2.0,406.3814050005021,1.0,1.0,phase_1,,,,,,,,,,,,,orange,hexagon
632.0,3.0,3.0,0.0,3.0,3.0,451.8815050005287,1.0,1.0,phase_1,,,,,,,,,,,,,cyan,circle
1314.0,4.0,4.0,0.0,4.0,4.0,388.9418570006455,1.0,1.0,phase_1,,,,,,,,,,,,,green,I
144.0,5.0,1.0,1.0,4.0,4.0,387.3059530005776,1.0,1.0,phase_1,,,,,,,,,,,,,gray,diamond
662.0,7.0,3.0,1.0,2.0,2.0,360.8875830004763,1.0,1.0,phase_1,,,,,,,,,,,,,yellow,triangle
317.0,2.0,2.0,0.0,4.0,4.0,379.5186549996288,1.0,1.0,phase_1,,,,,,,,,,,,,magenta,cross
174.0,5.0,1.0,1.0,2.0,2.0,426.9062859993937,1.0,2.0,phase_1,,,,,,,,,,,,,gray,diamond
1279.0,4.0,4.0,0.0,4.0,4.0,546.0650220002208,2.0,1.0,phase_1,,,,,,,,,,,,,green,I
0.0,4.0,0.0,0.0,3.0,3.0,433.2856250002805,2.0,1.0,phase_1,,,,,,,,,,,,,green,I
168.0,5.0,1.0,1.0,3.0,3.0,508.60792900039087,2.0,1.0,phase_1,,,,,,,,,,,,,gray,diamond
151.0,1.0,1.0,0.0,3.0,3.0,600.6994030003625,2.0,1.0,phase_1,,,,,,,,,,,,,blue,flipped triangle
169.0,1.0,1.0,0.0,2.0,2.0,666.3089989997388,2.0,1.0,phase_1,,,,,,,,,,,,,blue,flipped triangle
626.0,3.0,3.0,0.0,3.0,3.0,500.61948700022185,2.0,1.0,phase_1,,,,,,,,,,,,,cyan,circle
154.0,5.0,1.0,1.0,1.0,1.0,380.4915680002523,2.0,1.0,phase_1,,,,,,,,,,,,,gray,diamond
1308.0,4.0,4.0,0.0,1.0,1.0,406.9800050001504,2.0,1.0,phase_1,,,,,,,,,,,,,green,I
164.0,1.0,1.0,0.0,1.0,1.0,332.7123830003984,2.0,1.0,phase_1,,,,,,,,,,,,,blue,flipped triangle
648.0,7.0,3.0,1.0,3.0,3.0,361.5308349999395,2.0,1.0,phase_1,,,,,,,,,,,,,yellow,triangle
303.0,2.0,2.0,0.0,3.0,3.0,462.0140960005301,2.0,1.0,phase_1,,,,,,,,,,,,,magenta,cross
1307.0,4.0,4.0,0.0,2.0,2.0,639.6064560003651,2.0,1.0,phase_1,,,,,,,,,,,,,green,I
171.0,5.0,1.0,1.0,2.0,2.0,534.825465000722,2.0,1.0,phase_1,,,,,,,,,,,,,gray,diamond
323.0,2.0,2.0,0.0,1.0,1.0,507.8964000003907,2.0,1.0,phase_1,,,,,,,,,,,,,magenta,cross
626.0,7.0,3.0,1.0,3.0,3.0,565.5367859999387,2.0,1.0,phase_1,,,,,,,,,,,,,yellow,triangle
0.0,7.0,0.0,1.0,4.0,4.0,335.3143720005391,2.0,1.0,phase_1,,,,,,,,,,,,,yellow,triangle
626.0,7.0,3.0,1.0,1.0,1.0,305.85654800052,2.0,1.0,phase_1,,,,,,,,,,,,,yellow,triangle
318.0,2.0,2.0,0.0,2.0,2.0,361.3257050001266,2.0,1.0,phase_1,,,,,,,,,,,,,magenta,cross
1284.0,8.0,4.0,1.0,4.0,4.0,397.9505229999631,2.0,2.0,phase_1,,,,,,,,,,,,,white,square
0.0,1.0,0.0,0.0,4.0,4.0,325.3064640002776,2.0,1.0,phase_1,,,,,,,,,,,,,blue,flipped triangle
1284.0,8.0,4.0,1.0,3.0,3.0,425.7524239992563,2.0,1.0,phase_1,,,,,,,,,,,,,white,square
0.0,4.0,0.0,0.0,2.0,2.0,406.2896790001105,2.0,1.0,phase_1,,,,,,,,,,,,,green,I
672.0,7.0,3.0,1.0,3.0,3.0,380.5467400006819,2.0,1.0,phase_1,,,,,,,,,,,,,yellow,triangle
641.0,3.0,3.0,0.0,1.0,1.0,399.523555000087,2.0,1.0,phase_1,,,,,,,,,,,,,cyan,circle
326.0,6.0,2.0,1.0,4.0,4.0,425.9736800004248,2.0,1.0,phase_1,,,,,,,,,,,,,orange,hexagon
0.0,7.0,0.0,1.0,2.0,2.0,370.7985230003032,2.0,1.0,phase_1,,,,,,,,,,,,,yellow,triangle
1275.0,4.0,4.0,0.0,2.0,2.0,539.174980000098,2.0,1.0,phase_1,,,,,,,,,,,,,green,I
632.0,7.0,3.0,1.0,4.0,4.0,425.5363349993786,2.0,1.0,phase_1,,,,,,,,,,,,,yellow,triangle
0.0,7.0,0.0,1.0,2.0,2.0,361.3356920004662,2.0,1.0,phase_1,,,,,,,,,,,,,yellow,triangle
154.0,5.0,1.0,1.0,4.0,4.0,361.2870950000797,2.0,1.0,phase_1,,,,,,,,,,,,,gray,diamond
339.0,2.0,2.0,0.0,4.0,4.0,371.9861390000005,2.0,1.0,phase_1,,,,,,,,,,,,,magenta,cross
669.0,3.0,3.0,0.0,2.0,2.0,527.1418820002509,2.0,1.0,phase_1,,,,,,,,,,,,,cyan,circle
304.0,6.0,2.0,1.0,2.0,2.0,526.869608999732,2.0,1.0,phase_1,,,,,,,,,,,,,orange,hexagon
0.0,6.0,0.0,1.0,1.0,1.0,554.368224999962,2.0,1.0,phase_1,,,,,,,,,,,,,orange,hexagon
154.0,1.0,1.0,0.0,1.0,1.0,388.0779840001196,2.0,1.0,phase_1,,,,,,,,,,,,,blue,flipped triangle
152.0,5.0,1.0,1.0,3.0,3.0,380.7841690004352,2.0,1.0,phase_1,,,,,,,,,,,,,gray,diamond
339.0,6.0,2.0,1.0,3.0,3.0,406.4637689998562,2.0,1.0,phase_1,,,,,,,,,,,,,orange,hexagon
0.0,6.0,0.0,1.0,2.0,2.0,491.8825819995618,2.0,2.0,phase_1,,,,,,,,,,,,,orange,hexagon
164.0,5.0,1.0,1.0,3.0,3.0,592.931179999141,2.0,1.0,phase_1,,,,,,,,,,,,,gray,diamond
184.0,5.0,1.0,1.0,4.0,4.0,389.4283919998997,2.0,1.0,phase_1,,,,,,,,,,,,,gray,diamond
158.0,1.0,1.0,0.0,3.0,3.0,425.8415350004725,2.0,1.0,phase_1,,,,,,,,,,,,,blue,flipped triangle
1301.0,4.0,4.0,0.0,2.0,2.0,398.5438049994627,2.0,1.0,phase_1,,,,,,,,,,,,,green,I
0.0,3.0,0.0,0.0,1.0,1.0,351.6743050004152,2.0,1.0,phase_1,,,,,,,,,,,,,cyan,circle
1299.0,4.0,4.0,0.0,1.0,1.0,370.9335840003405,2.0,1.0,phase_1,,,,,,,,,,,,,green,I
313.0,2.0,2.0,0.0,2.0,2.0,647.8896870003155,2.0,1.0,phase_1,,,,,,,,,,,,,magenta,cross
1306.0,4.0,4.0,0.0,3.0,3.0,388.5364689995185,2.0,1.0,phase_1,,,,,,,,,,,,,green,I
330.0,2.0,2.0,0.0,4.0,4.0,324.539549000292,2.0,1.0,phase_1,,,,,,,,,,,,,magenta,cross
308.0,2.0,2.0,0.0,1.0,1.0,618.8626519997342,2.0,1.0,phase_1,,,,,,,,,,,,,magenta,cross
646.0,7.0,3.0,1.0,3.0,3.0,509.1388230002849,2.0,1.0,phase_1,,,,,,,,,,,,,yellow,triangle
0.0,3.0,0.0,0.0,3.0,3.0,472.3541860003024,2.0,1.0,phase_1,,,,,,,,,,,,,cyan,circle
335.0,6.0,2.0,1.0,4.0,4.0,491.7060489997311,2.0,1.0,phase_1,,,,,,,,,,,,,orange,hexagon
155.0,1.0,1.0,0.0,3.0,3.0,470.4728510005225,2.0,1.0,phase_1,,,,,,,,,,,,,blue,flipped triangle
1312.0,4.0,4.0,0.0,3.0,3.0,423.9851120000821,2.0,1.0,phase_1,,,,,,,,,,,,,green,I
168.0,5.0,1.0,1.0,3.0,3.0,379.6225189998949,2.0,1.0,phase_1,,,,,,,,,,,,,gray,diamond
151.0,5.0,1.0,1.0,3.0,3.0,424.7613770003227,2.0,1.0,phase_1,,,,,,,,,,,,,gray,diamond
0.0,1.0,0.0,0.0,2.0,2.0,500.46123700030876,2.0,1.0,phase_1,,,,,,,,,,,,,blue,flipped triangle
0.0,2.0,0.0,0.0,3.0,3.0,388.1156670004202,2.0,1.0,phase_1,,,,,,,,,,,,,magenta,cross
321.0,2.0,2.0,0.0,3.0,3.0,386.6843099995094,2.0,1.0,phase_1,,,,,,,,,,,,,magenta,cross
145.0,5.0,1.0,1.0,4.0,4.0,416.6433730006247,2.0,1.0,phase_1,,,,,,,,,,,,,gray,diamond
169.0,5.0,1.0,1.0,4.0,4.0,370.2362200001516,2.0,1.0,phase_1,,,,,,,,,,,,,gray,diamond
665.0,7.0,3.0,1.0,2.0,2.0,359.4607909999467,2.0,1.0,phase_1,,,,,,,,,,,,,yellow,triangle
174.0,1.0,1.0,0.0,1.0,1.0,425.3899040004398,2.0,1.0,phase_1,,,,,,,,,,,,,blue,flipped triangle
1291.0,8.0,4.0,1.0,1.0,1.0,369.8969510005554,2.0,1.0,phase_1,,,,,,,,,,,,,white,square
1316.0,4.0,4.0,0.0,1.0,1.0,387.3289530001784,2.0,1.0,phase_1,,,,,,,,,,,,,green,I
661.0,3.0,3.0,0.0,3.0,3.0,489.027272000385,2.0,1.0,phase_1,,,,,,,,,,,,,cyan,circle
308.0,6.0,2.0,1.0,2.0,2.0,525.8116329996483,2.0,1.0,phase_1,,,,,,,,,,,,,orange,hexagon
1323.0,4.0,4.0,0.0,4.0,4.0,519.8404029997619,2.0,1.0,phase_1,,,,,,,,,,,,,green,I
665.0,3.0,3.0,0.0,1.0,1.0,455.6263530002979,2.0,1.0,phase_1,,,,,,,,,,,,,cyan,circle
154.0,1.0,1.0,0.0,1.0,1.0,507.42986500063125,2.0,1.0,phase_1,,,,,,,,,,,,,blue,flipped triangle
311.0,6.0,2.0,1.0,2.0,2.0,496.7895990002944,2.0,2.0,phase_1,,,,,,,,,,,,,orange,hexagon
338.0,6.0,2.0,1.0,1.0,1.0,418.5097890003817,2.0,1.0,phase_1,,,,,,,,,,,,,orange,hexagon
336.0,2.0,2.0,0.0,1.0,1.0,538.2125470005121,2.0,1.0,phase_1,,,,,,,,,,,,,magenta,cross
144.0,1.0,1.0,0.0,4.0,4.0,482.3265810000521,2.0,1.0,phase_1,,,,,,,,,,,,,blue,flipped triangle
315.0,2.0,2.0,0.0,3.0,3.0,758.194306000405,2.0,1.0,phase_1,,,,,,,,,,,,,magenta,cross
0.0,6.0,0.0,1.0,1.0,1.0,461.9329039996955,2.0,1.0,phase_1,,,,,,,,,,,,,orange,hexagon
653.0,7.0,3.0,1.0,2.0,2.0,352.0627970001442,2.0,1.0,phase_1,,,,,,,,,,,,,yellow,triangle
162.0,5.0,1.0,1.0,3.0,3.0,406.759374000103,2.0,1.0,phase_1,,,,,,,,,,,,,gray,diamond
0.0,2.0,0.0,0.0,1.0,1.0,269.2231850005555,2.0,1.0,phase_1,,,,,,,,,,,,,magenta,cross
308.0,6.0,2.0,1.0,2.0,2.0,405.8744949998072,2.0,1.0,phase_1,,,,,,,,,,,,,orange,hexagon
329.0,2.0,2.0,0.0,2.0,2.0,480.25658400001697,2.0,1.0,phase_1,,,,,,,,,,,,,magenta,cross
632.0,3.0,3.0,0.0,1.0,1.0,544.9072850005905,2.0,1.0,phase_1,,,,,,,,,,,,,cyan,circle
330.0,2.0,2.0,0.0,1.0,1.0,424.8066860000108,2.0,1.0,phase_1,,,,,,,,,,,,,magenta,cross
0.0,7.0,0.0,1.0,1.0,1.0,388.6350519996995,2.0,1.0,phase_1,,,,,,,,,,,,,yellow,triangle
1279.0,8.0,4.0,1.0,4.0,4.0,462.8597009996156,2.0,1.0,phase_1,,,,,,,,,,,,,white,square
0.0,2.0,0.0,0.0,3.0,3.0,371.7357880004783,2.0,1.0,phase_1,,,,,,,,,,,,,magenta,cross
659.0,7.0,3.0,1.0,4.0,4.0,351.8839500002286,2.0,1.0,phase_1,,,,,,,,,,,,,yellow,triangle
0.0,8.0,0.0,1.0,4.0,4.0,333.4215699997003,2.0,1.0,phase_1,,,,,,,,,,,,,white,square
176.0,5.0,1.0,1.0,2.0,2.0,392.5409939993187,2.0,1.0,phase_1,,,,,,,,,,,,,gray,diamond
673.0,3.0,3.0,0.0,4.0,4.0,332.5698199996623,2.0,1.0,phase_1,,,,,,,,,,,,,cyan,circle
317.0,2.0,2.0,0.0,4.0,4.0,351.3970679996419,2.0,1.0,phase_1,,,,,,,,,,,,,magenta,cross
308.0,2.0,2.0,0.0,3.0,3.0,453.1802009996681,2.0,1.0,phase_1,,,,,,,,,,,,,magenta,cross
665.0,3.0,3.0,0.0,2.0,2.0,405.7919649994801,2.0,1.0,phase_1,,,,,,,,,,,,,cyan,circle
302.0,6.0,2.0,1.0,2.0,2.0,378.7684369999624,2.0,1.0,phase_1,,,,,,,,,,,,,orange,hexagon
142.0,5.0,1.0,1.0,3.0,3.0,427.8115779998188,2.0,1.0,phase_1,,,,,,,,,,,,,gray,diamond
157.0,5.0,1.0,1.0,2.0,2.0,315.160447999915,2.0,1.0,phase_1,,,,,,,,,,,,,gray,diamond
0.0,4.0,0.0,0.0,3.0,3.0,379.2363339998701,2.0,1.0,phase_1,,,,,,,,,,,,,green,I
333.0,6.0,2.0,1.0,3.0,3.0,409.622139000021,2.0,2.0,phase_1,,,,,,,,,,,,,orange,hexagon
646.0,3.0,3.0,0.0,4.0,4.0,499.8649279996243,2.0,1.0,phase_1,,,,,,,,,,,,,cyan,circle
1319.0,8.0,4.0,1.0,1.0,1.0,582.4224789994332,2.0,1.0,phase_1,,,,,,,,,,,,,white,square
0.0,2.0,0.0,0.0,3.0,3.0,452.6895930002865,2.0,1.0,phase_1,,,,,,,,,,,,,magenta,cross
641.0,7.0,3.0,1.0,1.0,1.0,584.2269129998385,3.0,1.0,phase_1,,,,,,,,,,,,,yellow,triangle
1290.0,8.0,4.0,1.0,3.0,3.0,398.2292040000175,3.0,1.0,phase_1,,,,,,,,,,,,,white,square
171.0,1.0,1.0,0.0,2.0,2.0,648.508710999522,3.0,1.0,phase_1,,,,,,,,,,,,,blue,flipped triangle
0.0,4.0,0.0,0.0,2.0,2.0,536.4636929998596,3.0,1.0,phase_1,,,,,,,,,,,,,green,I
155.0,5.0,1.0,1.0,1.0,1.0,481.2028400001509,3.0,1.0,phase_1,,,,,,,,,,,,,gray,diamond
0.0,7.0,0.0,1.0,4.0,4.0,444.6917049999683,3.0,1.0,phase_1,,,,,,,,,,,,,yellow,triangle
0.0,2.0,0.0,0.0,2.0,2.0,425.3657119998024,3.0,1.0,phase_1,,,,,,,,,,,,,magenta,cross
348.0,2.0,2.0,0.0,2.0,2.0,501.65962200026115,3.0,1.0,phase_1,,,,,,,,,,,,,magenta,cross
327.0,2.0,2.0,0.0,2.0,2.0,425.4008309999335,3.0,1.0,phase_1,,,,,,,,,,,,,magenta,cross
145.0,1.0,1.0,0.0,3.0,3.0,360.3148089996466,3.0,1.0,phase_1,,,,,,,,,,,,,blue,flipped triangle
640.0,3.0,3.0,0.0,2.0,2.0,425.7544759993834,3.0,1.0,phase_1,,,,,,,,,,,,,cyan,circle
0.0,2.0,0.0,0.0,3.0,3.0,323.1216849999327,3.0,1.0,phase_1,,,,,,,,,,,,,magenta,cross
349.0,2.0,2.0,0.0,1.0,1.0,444.1470749998188,3.0,1.0,phase_1,,,,,,,,,,,,,magenta,cross
0.0,3.0,0.0,0.0,2.0,2.0,435.1873149998937,3.0,1.0,phase_1,,,,,,,,,,,,,cyan,circle
0.0,2.0,0.0,0.0,3.0,3.0,369.2752239994661,3.0,1.0,phase_1,,,,,,,,,,,,,magenta,cross
0.0,4.0,0.0,0.0,3.0,3.0,406.89917899999267,3.0,1.0,phase_1,,,,,,,,,,,,,green,I
659.0,7.0,3.0,1.0,4.0,4.0,481.1655470002733,3.0,2.0,phase_1,,,,,,,,,,,,,yellow,triangle
174.0,1.0,1.0,0.0,1.0,1.0,563.7255550000191,3.0,1.0,phase_1,,,,,,,,,,,,,blue,flipped triangle
184.0,1.0,1.0,0.0,1.0,1.0,379.8044519999166,3.0,1.0,phase_1,,,,,,,,,,,,,blue,flipped triangle
659.0,3.0,3.0,0.0,2.0,2.0,572.0211379993998,3.0,2.0,phase_1,,,,,,,,,,,,,cyan,circle
175.0,1.0,1.0,0.0,1.0,1.0,527.7471999997942,3.0,1.0,phase_1,,,,,,,,,,,,,blue,flipped triangle
0.0,4.0,0.0,0.0,1.0,1.0,461.7714989999513,3.0,1.0,phase_1,,,,,,,,,,,,,green,I
303.0,6.0,2.0,1.0,3.0,3.0,370.0907219999862,3.0,1.0,phase_1,,,,,,,,,,,,,orange,hexagon
0.0,5.0,0.0,1.0,2.0,2.0,518.0000959999234,3.0,1.0,phase_1,,,,,,,,,,,,,gray,diamond
0.0,5.0,0.0,1.0,1.0,1.0,469.5746119996329,3.0,1.0,phase_1,,,,,,,,,,,,,gray,diamond
139.0,1.0,1.0,0.0,4.0,4.0,480.3284330000679,3.0,1.0,phase_1,,,,,,,,,,,,,blue,flipped triangle
0.0,6.0,0.0,1.0,4.0,4.0,434.4992770002136,3.0,1.0,phase_1,,,,,,,,,,,,,orange,hexagon
181.0,5.0,1.0,1.0,4.0,4.0,397.8844379998918,3.0,1.0,phase_1,,,,,,,,,,,,,gray,diamond
1319.0,4.0,4.0,0.0,1.0,1.0,425.3958520002925,3.0,1.0,phase_1,,,,,,,,,,,,,green,I
184.0,1.0,1.0,0.0,2.0,2.0,415.9093349999239,3.0,1.0,phase_1,,,,,,,,,,,,,blue,flipped triangle
1301.0,8.0,4.0,1.0,4.0,4.0,332.971484999689,3.0,1.0,phase_1,,,,,,,,,,,,,white,square
145.0,5.0,1.0,1.0,1.0,1.0,498.4925489998204,3.0,2.0,phase_1,,,,,,,,,,,,,gray,diamond
636.0,7.0,3.0,1.0,2.0,2.0,526.4250000000175,3.0,1.0,phase_1,,,,,,,,,,,,,yellow,triangle
1321.0,4.0,4.0,0.0,1.0,1.0,407.9010000004928,3.0,1.0,phase_1,,,,,,,,,,,,,green,I
303.0,6.0,2.0,1.0,4.0,4.0,518.015698000454,3.0,1.0,phase_1,,,,,,,,,,,,,orange,hexagon
333.0,2.0,2.0,0.0,4.0,4.0,444.1471459995227,3.0,1.0,phase_1,,,,,,,,,,,,,magenta,cross
0.0,6.0,0.0,1.0,1.0,1.0,360.5923329996585,3.0,1.0,phase_1,,,,,,,,,,,,,orange,hexagon
0.0,1.0,0.0,0.0,2.0,2.0,332.3446140002488,3.0,1.0,phase_1,,,,,,,,,,,,,blue,flipped triangle
662.0,3.0,3.0,0.0,2.0,2.0,407.5942790004774,3.0,1.0,phase_1,,,,,,,,,,,,,cyan,circle
330.0,6.0,2.0,1.0,1.0,1.0,408.4243759998571,3.0,1.0,phase_1,,,,,,,,,,,,,orange,hexagon
653.0,7.0,3.0,1.0,2.0,2.0,407.6060179995693,3.0,1.0,phase_1,,,,,,,,,,,,,yellow,triangle
1312.0,8.0,4.0,1.0,1.0,1.0,331.9902479997836,3.0,1.0,phase_1,,,,,,,,,,,,,white,square
148.0,5.0,1.0,1.0,3.0,3.0,369.7201899994979,3.0,1.0,phase_1,,,,,,,,,,,,,gray,diamond
306.0,6.0,2.0,1.0,1.0,1.0,435.6696129998454,3.0,1.0,phase_1,,,,,,,,,,,,,orange,hexagon
667.0,7.0,3.0,1.0,3.0,3.0,446.8457220000346,3.0,1.0,phase_1,,,,,,,,,,,,,yellow,triangle
159.0,1.0,1.0,0.0,1.0,1.0,536.2098069999774,3.0,1.0,phase_1,,,,,,,,,,,,,blue,flipped triangle
633.0,7.0,3.0,1.0,3.0,3.0,352.5739540000359,3.0,1.0,phase_1,,,,,,,,,,,,,yellow,triangle
346.0,6.0,2.0,1.0,4.0,4.0,370.7519130002765,3.0,1.0,phase_1,,,,,,,,,,,,,orange,hexagon
0.0,3.0,0.0,0.0,2.0,2.0,480.0362750002023,3.0,1.0,phase_1,,,,,,,,,,,,,cyan,circle
1323.0,4.0,4.0,0.0,1.0,1.0,307.778725999924,3.0,1.0,phase_1,,,,,,,,,,,,,green,I
1306.0,8.0,4.0,1.0,2.0,2.0,343.4019569995143,3.0,1.0,phase_1,,,,,,,,,,,,,white,square
159.0,5.0,1.0,1.0,3.0,3.0,417.9412409994256,3.0,1.0,phase_1,,,,,,,,,,,,,gray,diamond
0.0,1.0,0.0,0.0,1.0,1.0,307.5960800006214,3.0,1.0,phase_1,,,,,,,,,,,,,blue,flipped triangle
1283.0,8.0,4.0,1.0,2.0,2.0,462.0527589995618,3.0,1.0,phase_1,,,,,,,,,,,,,white,square
339.0,6.0,2.0,1.0,1.0,1.0,481.4415139999255,3.0,1.0,phase_1,,,,,,,,,,,,,orange,hexagon
310.0,6.0,2.0,1.0,2.0,2.0,406.9429830005902,3.0,1.0,phase_1,,,,,,,,,,,,,orange,hexagon
350.0,6.0,2.0,1.0,4.0,4.0,481.3375840003573,3.0,2.0,phase_1,,,,,,,,,,,,,orange,hexagon
308.0,2.0,2.0,0.0,4.0,4.0,389.0521820003414,3.0,1.0,phase_1,,,,,,,,,,,,,magenta,cross
313.0,6.0,2.0,1.0,1.0,1.0,444.9345009998069,3.0,1.0,phase_1,,,,,,,,,,,,,orange,hexagon
672.0,3.0,3.0,0.0,3.0,3.0,415.8482539996839,3.0,1.0,phase_1,,,,,,,,,,,,,cyan,circle
174.0,5.0,1.0,1.0,1.0,1.0,371.4066950005872,3.0,1.0,phase_1,,,,,,,,,,,,,gray,diamond
633.0,3.0,3.0,0.0,2.0,2.0,416.2061419992824,3.0,1.0,phase_1,,,,,,,,,,,,,cyan,circle
350.0,2.0,2.0,0.0,2.0,2.0,628.5836609995386,3.0,1.0,phase_1,,,,,,,,,,,,,magenta,cross
1318.0,8.0,4.0,1.0,2.0,2.0,463.6136900007841,3.0,1.0,phase_1,,,,,,,,,,,,,white,square
308.0,6.0,2.0,1.0,1.0,1.0,332.5533300003371,3.0,1.0,phase_1,,,,,,,,,,,,,orange,hexagon
0.0,8.0,0.0,1.0,2.0,2.0,535.5583170003229,3.0,1.0,phase_1,,,,,,,,,,,,,white,square
0.0,8.0,0.0,1.0,1.0,1.0,389.51060100043827,3.0,1.0,phase_1,,,,,,,,,,,,,white,square
158.0,5.0,1.0,1.0,3.0,3.0,480.9698170001866,3.0,1.0,phase_1,,,,,,,,,,,,,gray,diamond
1275.0,8.0,4.0,1.0,3.0,3.0,443.8989450000008,3.0,1.0,phase_1,,,,,,,,,,,,,white,square
662.0,7.0,3.0,1.0,1.0,1.0,592.4665080001432,3.0,1.0,phase_1,,,,,,,,,,,,,yellow,triangle
656.0,3.0,3.0,0.0,1.0,1.0,451.8302939995919,3.0,1.0,phase_1,,,,,,,,,,,,,cyan,circle
346.0,2.0,2.0,0.0,1.0,1.0,418.4109249999892,3.0,1.0,phase_1,,,,,,,,,,,,,magenta,cross
1294.0,8.0,4.0,1.0,2.0,2.0,640.6425140003194,3.0,1.0,phase_1,,,,,,,,,,,,,white,square
0.0,6.0,0.0,1.0,3.0,3.0,510.6633030000012,3.0,1.0,phase_1,,,,,,,,,,,,,orange,hexagon
310.0,2.0,2.0,0.0,1.0,1.0,371.3612919991647,3.0,1.0,phase_1,,,,,,,,,,,,,magenta,cross
1320.0,8.0,4.0,1.0,2.0,2.0,509.2373879997467,3.0,1.0,phase_1,,,,,,,,,,,,,white,square
312.0,6.0,2.0,1.0,3.0,3.0,594.8593230004917,3.0,1.0,phase_1,,,,,,,,,,,,,orange,hexagon
656.0,7.0,3.0,1.0,1.0,1.0,362.214414999471,3.0,1.0,phase_1,,,,,,,,,,,,,yellow,triangle
182.0,5.0,1.0,1.0,4.0,4.0,425.6621009999435,3.0,1.0,phase_1,,,,,,,,,,,,,gray,diamond
185.0,5.0,1.0,1.0,4.0,4.0,491.6749710000658,3.0,1.0,phase_1,,,,,,,,,,,,,gray,diamond
1307.0,8.0,4.0,1.0,1.0,1.0,454.7732429991811,3.0,1.0,phase_1,,,,,,,,,,,,,white,square
323.0,2.0,2.0,0.0,2.0,2.0,435.4388140000083,3.0,2.0,phase_1,,,,,,,,,,,,,magenta,cross
0.0,5.0,0.0,1.0,1.0,1.0,464.1062099999544,3.0,1.0,phase_1,,,,,,,,,,,,,gray,diamond
672.0,7.0,3.0,1.0,1.0,1.0,557.6113010001791,3.0,1.0,phase_1,,,,,,,,,,,,,yellow,triangle
643.0,3.0,3.0,0.0,1.0,1.0,426.0217400005786,3.0,1.0,phase_1,,,,,,,,,,,,,cyan,circle
168.0,1.0,1.0,0.0,3.0,3.0,497.2543080002651,3.0,1.0,phase_1,,,,,,,,,,,,,blue,flipped triangle
0.0,6.0,0.0,1.0,2.0,2.0,490.475700999923,3.0,1.0,phase_1,,,,,,,,,,,,,orange,hexagon
1294.0,4.0,4.0,0.0,3.0,3.0,433.5045439993337,3.0,1.0,phase_1,,,,,,,,,,,,,green,I
0.0,5.0,0.0,1.0,3.0,3.0,426.0590160001811,3.0,1.0,phase_1,,,,,,,,,,,,,gray,diamond
0.0,2.0,0.0,0.0,2.0,2.0,407.1336310007609,3.0,1.0,phase_1,,,,,,,,,,,,,magenta,cross
168.0,1.0,1.0,0.0,3.0,3.0,426.3621239997519,3.0,1.0,phase_1,,,,,,,,,,,,,blue,flipped triangle
164.0,5.0,1.0,1.0,4.0,4.0,472.0102299997961,3.0,1.0,phase_1,,,,,,,,,,,,,gray,diamond
1275.0,4.0,4.0,0.0,1.0,1.0,378.5745089999182,3.0,1.0,phase_1,,,,,,,,,,,,,green,I
0.0,4.0,0.0,0.0,3.0,3.0,415.9495570002036,3.0,1.0,phase_1,,,,,,,,,,,,,green,I
348.0,2.0,2.0,0.0,3.0,3.0,500.4285920003895,3.0,1.0,phase_1,,,,,,,,,,,,,magenta,cross
1294.0,4.0,4.0,0.0,1.0,1.0,415.9303579999687,3.0,1.0,phase_1,,,,,,,,,,,,,green,I
0.0,8.0,0.0,1.0,2.0,2.0,371.0085310003705,3.0,1.0,phase_1,,,,,,,,,,,,,white,square
1312.0,4.0,4.0,0.0,4.0,4.0,408.0618429998139,3.0,1.0,phase_1,,,,,,,,,,,,,green,I
339.0,2.0,2.0,0.0,3.0,3.0,398.2617259998733,3.0,1.0,phase_1,,,,,,,,,,,,,magenta,cross
0.0,1.0,0.0,0.0,3.0,3.0,464.0675020000344,3.0,1.0,phase_1,,,,,,,,,,,,,blue,flipped triangle
1321.0,8.0,4.0,1.0,1.0,1.0,417.1503500001563,4.0,1.0,phase_1,,,,,,,,,,,,,white,square
317.0,6.0,2.0,1.0,4.0,4.0,535.8763340000223,4.0,1.0,phase_1,,,,,,,,,,,,,orange,hexagon
171.0,1.0,1.0,0.0,4.0,4.0,446.2521200002811,4.0,1.0,phase_1,,,,,,,,,,,,,blue,flipped triangle
1288.0,4.0,4.0,0.0,4.0,4.0,398.5206530005598,4.0,1.0,phase_1,,,,,,,,,,,,,green,I
315.0,6.0,2.0,1.0,3.0,3.0,406.229758000336,4.0,1.0,phase_1,,,,,,,,,,,,,orange,hexagon
665.0,7.0,3.0,1.0,2.0,2.0,488.893427000221,4.0,1.0,phase_1,,,,,,,,,,,,,yellow,triangle
638.0,3.0,3.0,0.0,1.0,1.0,443.0520140003864,4.0,2.0,phase_1,,,,,,,,,,,,,cyan,circle
323.0,6.0,2.0,1.0,3.0,3.0,462.2219410002799,4.0,1.0,phase_1,,,,,,,,,,,,,orange,hexagon
348.0,6.0,2.0,1.0,1.0,1.0,500.47861999973975,4.0,1.0,phase_1,,,,,,,,,,,,,orange,hexagon
157.0,5.0,1.0,1.0,1.0,1.0,434.040023000307,4.0,1.0,phase_1,,,,,,,,,,,,,gray,diamond
647.0,7.0,3.0,1.0,2.0,2.0,526.8168330003391,4.0,2.0,phase_1,,,,,,,,,,,,,yellow,triangle
0.0,2.0,0.0,0.0,3.0,3.0,482.2199280006316,4.0,1.0,phase_1,,,,,,,,,,,,,magenta,cross
625.0,3.0,3.0,0.0,4.0,4.0,389.1525799999726,4.0,1.0,phase_1,,,,,,,,,,,,,cyan,circle
644.0,7.0,3.0,1.0,4.0,4.0,360.1388970000698,4.0,1.0,phase_1,,,,,,,,,,,,,yellow,triangle
0.0,7.0,0.0,1.0,3.0,3.0,516.5744730002189,4.0,1.0,phase_1,,,,,,,,,,,,,yellow,triangle
162.0,1.0,1.0,0.0,4.0,4.0,351.6195090005567,4.0,1.0,phase_1,,,,,,,,,,,,,blue,flipped triangle
312.0,2.0,2.0,0.0,2.0,2.0,415.2282209997793,4.0,1.0,phase_1,,,,,,,,,,,,,magenta,cross
1297.0,8.0,4.0,1.0,3.0,3.0,462.1242140001413,4.0,1.0,phase_1,,,,,,,,,,,,,white,square
1291.0,4.0,4.0,0.0,4.0,4.0,361.6958250004245,4.0,1.0,phase_1,,,,,,,,,,,,,green,I
1276.0,4.0,4.0,0.0,1.0,1.0,648.4388429998944,4.0,1.0,phase_1,,,,,,,,,,,,,green,I
674.0,3.0,3.0,0.0,1.0,1.0,389.1846300002726,4.0,1.0,phase_1,,,,,,,,,,,,,cyan,circle
659.0,7.0,3.0,1.0,1.0,1.0,351.8450199999279,4.0,1.0,phase_1,,,,,,,,,,,,,yellow,triangle
1275.0,8.0,4.0,1.0,4.0,4.0,444.1571019997354,4.0,1.0,phase_1,,,,,,,,,,,,,white,square
0.0,3.0,0.0,0.0,1.0,1.0,425.5536290002055,4.0,1.0,phase_1,,,,,,,,,,,,,cyan,circle
1323.0,8.0,4.0,1.0,2.0,2.0,490.1251269993736,4.0,1.0,phase_1,,,,,,,,,,,,,white,square
179.0,1.0,1.0,0.0,3.0,3.0,416.454963000433,4.0,1.0,phase_1,,,,,,,,,,,,,blue,flipped triangle
0.0,6.0,0.0,1.0,2.0,2.0,396.2296220006465,4.0,1.0,phase_1,,,,,,,,,,,,,orange,hexagon
632.0,7.0,3.0,1.0,2.0,2.0,416.55803499998,4.0,1.0,phase_1,,,,,,,,,,,,,yellow,triangle
0.0,5.0,0.0,1.0,3.0,3.0,434.3690520008749,4.0,1.0,phase_1,,,,,,,,,,,,,gray,diamond
628.0,3.0,3.0,0.0,4.0,4.0,407.2635360007552,4.0,1.0,phase_1,,,,,,,,,,,,,cyan,circle
653.0,3.0,3.0,0.0,1.0,1.0,388.9746069999091,4.0,1.0,phase_1,,,,,,,,,,,,,cyan,circle
0.0,3.0,0.0,0.0,3.0,3.0,480.8345239998743,4.0,1.0,phase_1,,,,,,,,,,,,,cyan,circle
0.0,7.0,0.0,1.0,4.0,4.0,379.7706690002087,4.0,1.0,phase_1,,,,,,,,,,,,,yellow,triangle
673.0,7.0,3.0,1.0,4.0,4.0,543.631431999529,4.0,1.0,phase_1,,,,,,,,,,,,,yellow,triangle
634.0,7.0,3.0,1.0,4.0,4.0,425.4886690005151,4.0,1.0,phase_1,,,,,,,,,,,,,yellow,triangle
1279.0,4.0,4.0,0.0,3.0,3.0,491.0751199995502,4.0,1.0,phase_1,,,,,,,,,,,,,green,I
1308.0,8.0,4.0,1.0,2.0,2.0,471.20114700010157,4.0,1.0,phase_1,,,,,,,,,,,,,white,square
669.0,7.0,3.0,1.0,3.0,3.0,389.8162940004113,4.0,1.0,phase_1,,,,,,,,,,,,,yellow,triangle
148.0,1.0,1.0,0.0,4.0,4.0,388.3700890000909,4.0,1.0,phase_1,,,,,,,,,,,,,blue,flipped triangle
665.0,3.0,3.0,0.0,4.0,4.0,463.8892469993152,4.0,1.0,phase_1,,,,,,,,,,,,,cyan,circle
633.0,7.0,3.0,1.0,2.0,2.0,489.9919149993366,4.0,1.0,phase_1,,,,,,,,,,,,,yellow,triangle
338.0,2.0,2.0,0.0,4.0,4.0,341.1266240000259,4.0,1.0,phase_1,,,,,,,,,,,,,magenta,cross
667.0,3.0,3.0,0.0,4.0,4.0,379.3275919997541,4.0,1.0,phase_1,,,,,,,,,,,,,cyan,circle
674.0,7.0,3.0,1.0,1.0,1.0,499.645220000275,4.0,1.0,phase_1,,,,,,,,,,,,,yellow,triangle
0.0,6.0,0.0,1.0,1.0,1.0,397.4935739997818,4.0,1.0,phase_1,,,,,,,,,,,,,orange,hexagon
325.0,6.0,2.0,1.0,4.0,4.0,379.7967760001484,4.0,1.0,phase_1,,,,,,,,,,,,,orange,hexagon
1319.0,8.0,4.0,1.0,4.0,4.0,380.3728359998786,4.0,1.0,phase_1,,,,,,,,,,,,,white,square
1297.0,8.0,4.0,1.0,2.0,2.0,414.3975140004841,4.0,1.0,phase_1,,,,,,,,,,,,,white,square
1295.0,4.0,4.0,0.0,2.0,2.0,480.9059420003905,4.0,1.0,phase_1,,,,,,,,,,,,,green,I
1297.0,4.0,4.0,0.0,4.0,4.0,471.8849310002042,4.0,1.0,phase_1,,,,,,,,,,,,,green,I
653.0,3.0,3.0,0.0,3.0,3.0,416.1297509999713,4.0,1.0,phase_1,,,,,,,,,,,,,cyan,circle
656.0,3.0,3.0,0.0,2.0,2.0,544.9348020001707,4.0,1.0,phase_1,,,,,,,,,,,,,cyan,circle
171.0,5.0,1.0,1.0,2.0,2.0,398.5149090003688,4.0,1.0,phase_1,,,,,,,,,,,,,gray,diamond
1282.0,8.0,4.0,1.0,1.0,1.0,619.3109079995338,4.0,1.0,phase_1,,,,,,,,,,,,,white,square
348.0,6.0,2.0,1.0,2.0,2.0,491.0936570004196,4.0,1.0,phase_1,,,,,,,,,,,,,orange,hexagon
169.0,5.0,1.0,1.0,2.0,2.0,571.7962630005786,4.0,1.0,phase_1,,,,,,,,,,,,,gray,diamond
643.0,7.0,3.0,1.0,1.0,1.0,638.3567299999413,4.0,1.0,phase_1,,,,,,,,,,,,,yellow,triangle
1312.0,8.0,4.0,1.0,2.0,2.0,554.3283850001899,4.0,1.0,phase_1,,,,,,,,,,,,,white,square
1315.0,4.0,4.0,0.0,2.0,2.0,655.270510000264,4.0,1.0,phase_1,,,,,,,,,,,,,green,I
0.0,1.0,0.0,0.0,4.0,4.0,406.6906019997987,4.0,1.0,phase_1,,,,,,,,,,,,,blue,flipped triangle
0.0,5.0,0.0,1.0,2.0,2.0,903.6971819996324,4.0,1.0,phase_1,,,,,,,,,,,,,gray,diamond
344.0,6.0,2.0,1.0,3.0,3.0,454.3857950002348,4.0,2.0,phase_1,,,,,,,,,,,,,orange,hexagon
1295.0,8.0,4.0,1.0,3.0,3.0,934.308936999514,4.0,1.0,phase_1,,,,,,,,,,,,,white,square
336.0,6.0,2.0,1.0,1.0,1.0,519.5211469999776,4.0,1.0,phase_1,,,,,,,,,,,,,orange,hexagon
647.0,3.0,3.0,0.0,3.0,3.0,397.9272659998969,4.0,1.0,phase_1,,,,,,,,,,,,,cyan,circle
0.0,3.0,0.0,0.0,1.0,1.0,609.1985390003174,4.0,1.0,phase_1,,,,,,,,,,,,,cyan,circle
152.0,1.0,1.0,0.0,2.0,2.0,611.2114899997323,4.0,1.0,phase_1,,,,,,,,,,,,,blue,flipped triangle
0.0,3.0,0.0,0.0,1.0,1.0,462.7854060008758,4.0,1.0,phase_1,,,,,,,,,,,,,cyan,circle
628.0,7.0,3.0,1.0,3.0,3.0,416.6371249993972,4.0,1.0,phase_1,,,,,,,,,,,,,yellow,triangle
0.0,8.0,0.0,1.0,2.0,2.0,474.1975639999509,4.0,1.0,phase_1,,,,,,,,,,,,,white,square
662.0,3.0,3.0,0.0,4.0,4.0,499.5305270003882,4.0,2.0,phase_1,,,,,,,,,,,,,cyan,circle
1319.0,4.0,4.0,0.0,2.0,2.0,472.7919269998892,4.0,1.0,phase_1,,,,,,,,,,,,,green,I
164.0,1.0,1.0,0.0,2.0,2.0,482.924264999383,4.0,1.0,phase_1,,,,,,,,,,,,,blue,flipped triangle
644.0,3.0,3.0,0.0,2.0,2.0,407.1377550008037,4.0,1.0,phase_1,,,,,,,,,,,,,cyan,circle
174.0,1.0,1.0,0.0,3.0,3.0,445.2344809997157,4.0,1.0,phase_1,,,,,,,,,,,,,blue,flipped triangle
0.0,4.0,0.0,0.0,4.0,4.0,463.7094039999283,4.0,1.0,phase_1,,,,,,,,,,,,,green,I
0.0,7.0,0.0,1.0,1.0,1.0,593.1712730007348,4.0,1.0,phase_1,,,,,,,,,,,,,yellow,triangle
0.0,5.0,0.0,1.0,1.0,1.0,536.7195839999113,4.0,1.0,phase_1,,,,,,,,,,,,,gray,diamond
1316.0,8.0,4.0,1.0,4.0,4.0,500.4821789998459,4.0,1.0,phase_1,,,,,,,,,,,,,white,square
1297.0,4.0,4.0,0.0,3.0,3.0,472.8399370005718,4.0,1.0,phase_1,,,,,,,,,,,,,green,I
1323.0,8.0,4.0,1.0,4.0,4.0,388.3233820006353,4.0,1.0,phase_1,,,,,,,,,,,,,white,square
0.0,8.0,0.0,1.0,4.0,4.0,389.6856749997823,4.0,1.0,phase_1,,,,,,,,,,,,,white,square
1282.0,4.0,4.0,0.0,2.0,2.0,546.8768279997676,4.0,1.0,phase_1,,,,,,,,,,,,,green,I
174.0,5.0,1.0,1.0,1.0,1.0,424.6710559991697,4.0,1.0,phase_1,,,,,,,,,,,,,gray,diamond
1299.0,4.0,4.0,0.0,4.0,4.0,499.6043749997625,4.0,1.0,phase_1,,,,,,,,,,,,,green,I
632.0,7.0,3.0,1.0,4.0,4.0,416.340637999383,4.0,1.0,phase_1,,,,,,,,,,,,,yellow,triangle
1293.0,4.0,4.0,0.0,2.0,2.0,491.5209460004917,4.0,1.0,phase_1,,,,,,,,,,,,,green,I
0.0,4.0,0.0,0.0,4.0,4.0,368.2824570005323,4.0,1.0,phase_1,,,,,,,,,,,,,green,I
654.0,3.0,3.0,0.0,4.0,4.0,444.9750519997906,4.0,1.0,phase_1,,,,,,,,,,,,,cyan,circle
326.0,2.0,2.0,0.0,1.0,1.0,573.8374359998488,4.0,1.0,phase_1,,,,,,,,,,,,,magenta,cross
1299.0,8.0,4.0,1.0,3.0,3.0,443.2700130000739,4.0,1.0,phase_1,,,,,,,,,,,,,white,square
1284.0,4.0,4.0,0.0,2.0,2.0,432.9617169996709,4.0,1.0,phase_1,,,,,,,,,,,,,green,I
327.0,6.0,2.0,1.0,4.0,4.0,315.9774219993778,4.0,1.0,phase_1,,,,,,,,,,,,,orange,hexagon
311.0,2.0,2.0,0.0,4.0,4.0,378.5953409997091,4.0,1.0,phase_1,,,,,,,,,,,,,magenta,cross
648.0,3.0,3.0,0.0,1.0,1.0,536.7746789997909,4.0,1.0,phase_1,,,,,,,,,,,,,cyan,circle
330.0,6.0,2.0,1.0,2.0,2.0,490.8848630002467,4.0,1.0,phase_1,,,,,,,,,,,,,orange,hexagon
142.0,1.0,1.0,0.0,3.0,3.0,427.1002909999879,4.0,1.0,phase_1,,,,,,,,,,,,,blue,flipped triangle
1286.0,4.0,4.0,0.0,3.0,3.0,471.7850269998962,4.0,1.0,phase_1,,,,,,,,,,,,,green,I
1318.0,4.0,4.0,0.0,3.0,3.0,369.354612999814,4.0,1.0,phase_1,,,,,,,,,,,,,green,I
0.0,8.0,0.0,1.0,4.0,4.0,481.8461269996987,4.0,1.0,phase_1,,,,,,,,,,,,,white,square
0.0,2.0,2.0,0.0,6.0,6.0,529.1537650000464,1.0,1.0,phase_2,go,250.0,250.0,1.0,,,,,,,,,magenta,cross
0.0,2.0,2.0,0.0,5.0,5.0,629.8927189991446,1.0,1.0,phase_2,go,250.0,250.0,1.0,,,,,,,,,magenta,cross
0.0,1.0,1.0,0.0,5.0,5.0,491.0221829995862,1.0,1.0,phase_2,go,250.0,250.0,1.0,,,,,,,,,blue,flipped triangle
0.0,5.0,1.0,1.0,6.0,6.0,462.9064379996634,1.0,1.0,phase_2,go,250.0,250.0,1.0,,,,,,,,,gray,diamond
0.0,6.0,2.0,1.0,6.0,0.0,0.0,1.0,1.0,phase_2,stop,250.0,250.0,4.0,,,,,,,,,orange,hexagon
0.0,4.0,4.0,0.0,5.0,5.0,726.825122000264,1.0,1.0,phase_2,go,250.0,300.0,1.0,,,,,,,,,green,I
0.0,5.0,1.0,1.0,5.0,0.0,0.0,1.0,1.0,phase_2,stop,250.0,300.0,4.0,,,,,,,,,gray,diamond
0.0,6.0,2.0,1.0,5.0,0.0,0.0,1.0,1.0,phase_2,stop,300.0,300.0,4.0,,,,,,,,,orange,hexagon
0.0,7.0,3.0,1.0,5.0,5.0,700.424220000059,1.0,1.0,phase_2,go,350.0,300.0,1.0,,,,,,,,,yellow,triangle
0.0,2.0,2.0,0.0,6.0,6.0,443.6261669998202,1.0,1.0,phase_2,go,350.0,300.0,1.0,,,,,,,,,magenta,cross
0.0,4.0,4.0,0.0,5.0,5.0,329.1763850002098,1.0,1.0,phase_2,go,350.0,300.0,1.0,,,,,,,,,green,I
0.0,6.0,2.0,1.0,5.0,5.0,382.0794800003568,1.0,1.0,phase_2,stop,350.0,300.0,3.0,,,,,,,,,orange,hexagon
0.0,1.0,1.0,0.0,5.0,5.0,567.9295959998854,1.0,1.0,phase_2,go,300.0,300.0,1.0,,,,,,,,,blue,flipped triangle
0.0,1.0,1.0,0.0,5.0,5.0,669.3458010004179,1.0,1.0,phase_2,go,300.0,300.0,1.0,,,,,,,,,blue,flipped triangle
0.0,2.0,2.0,0.0,6.0,6.0,622.2993169994879,1.0,1.0,phase_2,go,300.0,300.0,1.0,,,,,,,,,magenta,cross
0.0,8.0,4.0,1.0,6.0,0.0,0.0,1.0,1.0,phase_2,stop,300.0,300.0,4.0,,,,,,,,,white,square
0.0,1.0,1.0,0.0,6.0,6.0,579.6954790002928,1.0,1.0,phase_2,go,300.0,350.0,1.0,,,,,,,,,blue,flipped triangle
0.0,4.0,4.0,0.0,5.0,5.0,578.5553890000301,1.0,1.0,phase_2,go,300.0,350.0,1.0,,,,,,,,,green,I
0.0,2.0,2.0,0.0,6.0,6.0,401.2718009998934,1.0,1.0,phase_2,go,300.0,350.0,1.0,,,,,,,,,magenta,cross
0.0,6.0,2.0,1.0,5.0,5.0,356.2182180003219,1.0,1.0,phase_2,stop,300.0,350.0,3.0,,,,,,,,,orange,hexagon
0.0,4.0,4.0,0.0,5.0,5.0,785.9745980003936,1.0,1.0,phase_2,go,250.0,350.0,1.0,,,,,,,,,green,I
0.0,6.0,2.0,1.0,6.0,0.0,0.0,1.0,1.0,phase_2,stop,250.0,350.0,4.0,,,,,,,,,orange,hexagon
0.0,2.0,2.0,0.0,5.0,5.0,765.8302250001725,1.0,1.0,phase_2,go,250.0,400.0,1.0,,,,,,,,,magenta,cross
0.0,8.0,4.0,1.0,5.0,0.0,0.0,1.0,1.0,phase_2,stop,250.0,400.0,4.0,,,,,,,,,white,square
0.0,1.0,1.0,0.0,6.0,6.0,560.4652499996519,1.0,1.0,phase_2,go,300.0,400.0,1.0,,,,,,,,,blue,flipped triangle
0.0,2.0,2.0,0.0,5.0,5.0,821.9918349996078,1.0,1.0,phase_2,go,300.0,400.0,1.0,,,,,,,,,magenta,cross
0.0,4.0,4.0,0.0,5.0,5.0,438.6495180006022,1.0,1.0,phase_2,go,300.0,400.0,1.0,,,,,,,,,green,I
0.0,7.0,3.0,1.0,5.0,5.0,626.556502999847,1.0,1.0,phase_2,go,300.0,400.0,1.0,,,,,,,,,yellow,triangle
0.0,2.0,2.0,0.0,6.0,6.0,522.6386909998837,1.0,1.0,phase_2,go,300.0,400.0,1.0,,,,,,,,,magenta,cross
0.0,8.0,4.0,1.0,6.0,6.0,504.0729430002102,1.0,1.0,phase_2,stop,300.0,400.0,3.0,,,,,,,,,white,square
0.0,5.0,1.0,1.0,5.0,0.0,0.0,1.0,1.0,phase_2,stop,300.0,350.0,4.0,,,,,,,,,gray,diamond
0.0,6.0,2.0,1.0,6.0,6.0,1078.5231989993918,1.0,1.0,phase_2,go,350.0,350.0,1.0,,,,,,,,,orange,hexagon
0.0,1.0,1.0,0.0,6.0,6.0,640.1280700001735,1.0,1.0,phase_2,go,350.0,350.0,1.0,,,,,,,,,blue,flipped triangle
0.0,1.0,1.0,0.0,6.0,6.0,541.4939649999724,1.0,1.0,phase_2,go,350.0,350.0,1.0,,,,,,,,,blue,flipped triangle
0.0,4.0,4.0,0.0,6.0,6.0,559.193434000008,1.0,1.0,phase_2,go,350.0,350.0,1.0,,,,,,,,,green,I
0.0,2.0,2.0,0.0,5.0,5.0,542.0815580000635,1.0,1.0,phase_2,go,350.0,350.0,1.0,,,,,,,,,magenta,cross
0.0,6.0,2.0,1.0,6.0,0.0,0.0,2.0,1.0,phase_2,stop,350.0,350.0,4.0,,,,,,,,,orange,hexagon
0.0,5.0,1.0,1.0,6.0,6.0,580.5927709998286,2.0,1.0,phase_2,go,350.0,400.0,1.0,,,,,,,,,gray,diamond
0.0,8.0,4.0,1.0,5.0,5.0,467.1292579996589,2.0,1.0,phase_2,stop,350.0,400.0,3.0,,,,,,,,,white,square
0.0,8.0,4.0,1.0,6.0,6.0,603.811028000564,2.0,1.0,phase_2,go,300.0,400.0,1.0,,,,,,,,,white,square
0.0,6.0,2.0,1.0,5.0,5.0,431.2707890003366,2.0,1.0,phase_2,stop,300.0,400.0,3.0,,,,,,,,,orange,hexagon
0.0,5.0,1.0,1.0,6.0,0.0,0.0,2.0,1.0,phase_2,stop,250.0,400.0,4.0,,,,,,,,,gray,diamond
0.0,8.0,4.0,1.0,6.0,0.0,0.0,2.0,1.0,phase_2,stop,250.0,450.0,4.0,,,,,,,,,white,square
0.0,7.0,3.0,1.0,6.0,6.0,653.185253000629,2.0,1.0,phase_2,go,250.0,500.0,1.0,,,,,,,,,yellow,triangle
0.0,7.0,3.0,1.0,5.0,5.0,413.005505000001,2.0,1.0,phase_2,stop,250.0,500.0,3.0,,,,,,,,,yellow,triangle
0.0,7.0,3.0,1.0,6.0,0.0,0.0,2.0,1.0,phase_2,stop,200.0,500.0,4.0,,,,,,,,,yellow,triangle
0.0,1.0,1.0,0.0,6.0,6.0,796.1551699991105,2.0,1.0,phase_2,go,200.0,550.0,1.0,,,,,,,,,blue,flipped triangle
0.0,3.0,3.0,0.0,5.0,5.0,606.7666250000912,2.0,1.0,phase_2,go,200.0,550.0,1.0,,,,,,,,,cyan,circle
0.0,1.0,1.0,0.0,5.0,5.0,515.3323380000074,2.0,1.0,phase_2,go,200.0,550.0,1.0,,,,,,,,,blue,flipped triangle
0.0,3.0,3.0,0.0,5.0,5.0,448.1972220000898,2.0,1.0,phase_2,go,200.0,550.0,1.0,,,,,,,,,cyan,circle
0.0,1.0,1.0,0.0,5.0,5.0,503.4652670001378,2.0,1.0,phase_2,go,200.0,550.0,1.0,,,,,,,,,blue,flipped triangle
0.0,7.0,3.0,1.0,5.0,5.0,321.5049950003958,2.0,1.0,phase_2,stop,200.0,550.0,3.0,,,,,,,,,yellow,triangle
0.0,3.0,3.0,0.0,6.0,6.0,717.6764420000836,2.0,1.0,phase_2,go,150.0,550.0,1.0,,,,,,,,,cyan,circle
0.0,5.0,1.0,1.0,6.0,6.0,653.3805700000812,2.0,1.0,phase_2,stop,150.0,550.0,3.0,,,,,,,,,gray,diamond
0.0,6.0,2.0,1.0,5.0,0.0,0.0,2.0,1.0,phase_2,stop,150.0,500.0,4.0,,,,,,,,,orange,hexagon
0.0,4.0,4.0,0.0,5.0,5.0,532.1992769995632,2.0,1.0,phase_2,go,200.0,500.0,1.0,,,,,,,,,green,I
0.0,3.0,3.0,0.0,6.0,6.0,653.0257439999332,2.0,1.0,phase_2,go,200.0,500.0,1.0,,,,,,,,,cyan,circle
0.0,7.0,3.0,1.0,5.0,5.0,523.6850100000083,2.0,1.0,phase_2,go,200.0,500.0,1.0,,,,,,,,,yellow,triangle
0.0,1.0,1.0,0.0,5.0,5.0,625.4505919996518,2.0,1.0,phase_2,go,200.0,500.0,1.0,,,,,,,,,blue,flipped triangle
0.0,2.0,2.0,0.0,5.0,5.0,456.7526669998187,2.0,1.0,phase_2,go,200.0,500.0,1.0,,,,,,,,,magenta,cross
0.0,3.0,3.0,0.0,6.0,6.0,458.0084660001375,2.0,1.0,phase_2,go,200.0,500.0,1.0,,,,,,,,,cyan,circle
0.0,6.0,2.0,1.0,6.0,6.0,581.3708209998367,2.0,1.0,phase_2,stop,200.0,500.0,3.0,,,,,,,,,orange,hexagon
0.0,6.0,2.0,1.0,6.0,6.0,717.9742719999922,2.0,1.0,phase_2,go,200.0,450.0,1.0,,,,,,,,,orange,hexagon
0.0,8.0,4.0,1.0,6.0,0.0,0.0,2.0,1.0,phase_2,stop,200.0,450.0,4.0,,,,,,,,,white,square
0.0,8.0,4.0,1.0,5.0,0.0,0.0,2.0,1.0,phase_2,stop,200.0,500.0,4.0,,,,,,,,,white,square
0.0,3.0,3.0,0.0,6.0,6.0,746.2593810005274,2.0,1.0,phase_2,go,250.0,500.0,1.0,,,,,,,,,cyan,circle
0.0,5.0,1.0,1.0,6.0,6.0,895.25747100015,2.0,1.0,phase_2,go,250.0,500.0,1.0,,,,,,,,,gray,diamond
0.0,2.0,2.0,0.0,5.0,5.0,671.3281729998926,2.0,1.0,phase_2,go,250.0,500.0,1.0,,,,,,,,,magenta,cross
0.0,8.0,4.0,1.0,6.0,6.0,653.3595539995076,2.0,1.0,phase_2,go,250.0,500.0,1.0,,,,,,,,,white,square
0.0,1.0,1.0,0.0,6.0,6.0,485.4992620003031,2.0,1.0,phase_2,go,250.0,500.0,1.0,,,,,,,,,blue,flipped triangle
0.0,6.0,2.0,1.0,6.0,0.0,0.0,2.0,1.0,phase_2,stop,250.0,500.0,4.0,,,,,,,,,orange,hexagon
0.0,7.0,3.0,1.0,6.0,6.0,867.3916419993475,2.0,1.0,phase_2,go,250.0,550.0,1.0,,,,,,,,,yellow,triangle
0.0,3.0,3.0,0.0,6.0,6.0,631.7021650002062,3.0,1.0,phase_2,go,250.0,550.0,1.0,,,,,,,,,cyan,circle
0.0,4.0,4.0,0.0,5.0,5.0,334.7786929998619,3.0,1.0,phase_2,go,250.0,550.0,1.0,,,,,,,,,green,I
0.0,6.0,2.0,1.0,6.0,6.0,401.2964909998118,3.0,1.0,phase_2,go,250.0,550.0,1.0,,,,,,,,,orange,hexagon
0.0,3.0,3.0,0.0,6.0,6.0,401.038236000204,3.0,1.0,phase_2,go,250.0,550.0,1.0,,,,,,,,,cyan,circle
0.0,2.0,2.0,0.0,6.0,6.0,401.9110690005618,3.0,1.0,phase_2,go,250.0,550.0,1.0,,,,,,,,,magenta,cross
0.0,7.0,3.0,1.0,5.0,5.0,430.8181320002404,3.0,1.0,phase_2,go,250.0,550.0,1.0,,,,,,,,,yellow,triangle
0.0,3.0,3.0,0.0,5.0,5.0,557.9663480002637,3.0,1.0,phase_2,go,250.0,550.0,1.0,,,,,,,,,cyan,circle
0.0,7.0,3.0,1.0,5.0,5.0,437.6305750001847,3.0,1.0,phase_2,stop,250.0,550.0,3.0,,,,,,,,,yellow,triangle
0.0,2.0,2.0,0.0,5.0,5.0,616.6329510006108,3.0,1.0,phase_2,go,200.0,550.0,1.0,,,,,,,,,magenta,cross
0.0,6.0,2.0,1.0,5.0,5.0,635.4554900008225,3.0,1.0,phase_2,go,200.0,550.0,1.0,,,,,,,,,orange,hexagon
0.0,5.0,1.0,1.0,6.0,6.0,588.2977539995409,3.0,1.0,phase_2,stop,200.0,550.0,3.0,,,,,,,,,gray,diamond
0.0,6.0,2.0,1.0,5.0,5.0,953.3674430003884,3.0,1.0,phase_2,go,200.0,500.0,1.0,,,,,,,,,orange,hexagon
0.0,3.0,3.0,0.0,5.0,5.0,578.0975150000813,3.0,1.0,phase_2,go,200.0,500.0,1.0,,,,,,,,,cyan,circle
0.0,6.0,2.0,1.0,6.0,0.0,0.0,3.0,1.0,phase_2,stop,200.0,500.0,4.0,,,,,,,,,orange,hexagon
0.0,7.0,3.0,1.0,6.0,0.0,0.0,3.0,1.0,phase_2,stop,200.0,550.0,4.0,,,,,,,,,yellow,triangle
0.0,3.0,3.0,0.0,5.0,5.0,513.3612019999418,3.0,1.0,phase_2,go,200.0,600.0,1.0,,,,,,,,,cyan,circle
0.0,1.0,1.0,0.0,6.0,6.0,833.8745979999658,3.0,1.0,phase_2,go,200.0,600.0,1.0,,,,,,,,,blue,flipped triangle
0.0,4.0,4.0,0.0,6.0,6.0,849.6378789996015,3.0,1.0,phase_2,go,200.0,600.0,1.0,,,,,,,,,green,I
0.0,3.0,3.0,0.0,5.0,5.0,820.1119900004414,3.0,1.0,phase_2,go,200.0,600.0,1.0,,,,,,,,,cyan,circle
0.0,2.0,2.0,0.0,6.0,6.0,821.0632360005548,3.0,1.0,phase_2,go,200.0,600.0,1.0,,,,,,,,,magenta,cross
0.0,5.0,1.0,1.0,5.0,0.0,0.0,3.0,1.0,phase_2,stop,200.0,600.0,4.0,,,,,,,,,gray,diamond
0.0,3.0,3.0,0.0,5.0,5.0,759.4376309998552,3.0,1.0,phase_2,go,250.0,600.0,1.0,,,,,,,,,cyan,circle
0.0,6.0,2.0,1.0,5.0,0.0,0.0,3.0,1.0,phase_2,stop,250.0,600.0,4.0,,,,,,,,,orange,hexagon
0.0,6.0,2.0,1.0,5.0,5.0,887.2618209998109,3.0,1.0,phase_2,go,300.0,600.0,1.0,,,,,,,,,orange,hexagon
0.0,5.0,1.0,1.0,6.0,0.0,0.0,3.0,1.0,phase_2,stop,300.0,600.0,4.0,,,,,,,,,gray,diamond
0.0,5.0,1.0,1.0,5.0,0.0,0.0,3.0,1.0,phase_2,stop,300.0,650.0,4.0,,,,,,,,,gray,diamond
0.0,7.0,3.0,1.0,6.0,6.0,688.0203500004427,3.0,1.0,phase_2,stop,350.0,650.0,3.0,,,,,,,,,yellow,triangle
0.0,2.0,2.0,0.0,5.0,5.0,1041.3846270002978,3.0,1.0,phase_2,go,350.0,600.0,1.0,,,,,,,,,magenta,cross
0.0,3.0,3.0,0.0,5.0,5.0,707.5362019995737,3.0,1.0,phase_2,go,350.0,600.0,1.0,,,,,,,,,cyan,circle
0.0,2.0,2.0,0.0,6.0,6.0,552.1994459995767,3.0,1.0,phase_2,go,350.0,600.0,1.0,,,,,,,,,magenta,cross
0.0,8.0,4.0,1.0,5.0,5.0,510.1295669992396,3.0,1.0,phase_2,stop,350.0,600.0,3.0,,,,,,,,,white,square
0.0,8.0,4.0,1.0,6.0,0.0,0.0,3.0,1.0,phase_2,stop,300.0,600.0,4.0,,,,,,,,,white,square
0.0,4.0,4.0,0.0,6.0,6.0,998.7493329990684,3.0,1.0,phase_2,go,300.0,650.0,1.0,,,,,,,,,green,I
0.0,8.0,4.0,1.0,5.0,0.0,0.0,3.0,1.0,phase_2,stop,300.0,650.0,4.0,,,,,,,,,white,square
0.0,8.0,4.0,1.0,5.0,5.0,1009.6306590003223,3.0,1.0,phase_2,go,350.0,650.0,1.0,,,,,,,,,white,square
0.0,1.0,1.0,0.0,5.0,5.0,904.7765659997822,3.0,1.0,phase_2,go,350.0,650.0,1.0,,,,,,,,,blue,flipped triangle
0.0,3.0,3.0,0.0,5.0,5.0,513.8713689993892,4.0,1.0,phase_2,go,350.0,650.0,1.0,,,,,,,,,cyan,circle
0.0,1.0,1.0,0.0,5.0,5.0,402.340867998646,4.0,1.0,phase_2,go,350.0,650.0,1.0,,,,,,,,,blue,flipped triangle
0.0,1.0,1.0,0.0,6.0,6.0,336.7389869999897,4.0,1.0,phase_2,go,350.0,650.0,1.0,,,,,,,,,blue,flipped triangle
0.0,7.0,3.0,1.0,5.0,5.0,391.5405549996649,4.0,1.0,phase_2,stop,350.0,650.0,3.0,,,,,,,,,yellow,triangle
0.0,8.0,4.0,1.0,5.0,5.0,484.7236260011414,4.0,1.0,phase_2,go,300.0,650.0,1.0,,,,,,,,,white,square
0.0,8.0,4.0,1.0,6.0,6.0,373.8942590007355,4.0,1.0,phase_2,stop,300.0,650.0,3.0,,,,,,,,,white,square
0.0,4.0,4.0,0.0,6.0,6.0,450.1439189989469,4.0,1.0,phase_2,go,300.0,600.0,1.0,,,,,,,,,green,I
0.0,5.0,1.0,1.0,5.0,5.0,355.6238849996589,4.0,1.0,phase_2,stop,300.0,600.0,3.0,,,,,,,,,gray,diamond
0.0,7.0,3.0,1.0,5.0,0.0,0.0,4.0,1.0,phase_2,stop,250.0,600.0,4.0,,,,,,,,,yellow,triangle
0.0,4.0,4.0,0.0,6.0,6.0,430.3271600001608,4.0,1.0,phase_2,go,300.0,600.0,1.0,,,,,,,,,green,I
0.0,2.0,2.0,0.0,6.0,6.0,646.2050290010666,4.0,1.0,phase_2,go,300.0,600.0,1.0,,,,,,,,,magenta,cross
0.0,8.0,4.0,1.0,5.0,0.0,0.0,4.0,1.0,phase_2,stop,300.0,600.0,4.0,,,,,,,,,white,square
0.0,6.0,2.0,1.0,6.0,6.0,514.412225000342,4.0,1.0,phase_2,stop,350.0,600.0,3.0,,,,,,,,,orange,hexagon
0.0,2.0,2.0,0.0,6.0,6.0,586.6646369995578,4.0,1.0,phase_2,go,350.0,550.0,1.0,,,,,,,,,magenta,cross
0.0,6.0,2.0,1.0,6.0,6.0,494.613543000014,4.0,1.0,phase_2,stop,350.0,550.0,3.0,,,,,,,,,orange,hexagon
0.0,4.0,4.0,0.0,6.0,6.0,614.995755999189,4.0,1.0,phase_2,go,350.0,500.0,1.0,,,,,,,,,green,I
0.0,6.0,2.0,1.0,6.0,6.0,544.7116949999327,4.0,1.0,phase_2,stop,350.0,500.0,3.0,,,,,,,,,orange,hexagon
0.0,8.0,4.0,1.0,5.0,5.0,390.9034879998216,4.0,1.0,phase_2,stop,350.0,450.0,3.0,,,,,,,,,white,square
0.0,3.0,3.0,0.0,5.0,5.0,403.4304870001506,4.0,1.0,phase_2,go,300.0,450.0,1.0,,,,,,,,,cyan,circle
0.0,7.0,3.0,1.0,6.0,6.0,547.5750759997027,4.0,1.0,phase_2,stop,300.0,450.0,3.0,,,,,,,,,yellow,triangle
0.0,3.0,3.0,0.0,5.0,5.0,634.8584400002437,4.0,1.0,phase_2,go,300.0,400.0,1.0,,,,,,,,,cyan,circle
0.0,1.0,1.0,0.0,5.0,5.0,513.7854759996117,4.0,1.0,phase_2,go,300.0,400.0,1.0,,,,,,,,,blue,flipped triangle
0.0,5.0,1.0,1.0,5.0,0.0,0.0,4.0,1.0,phase_2,stop,300.0,400.0,4.0,,,,,,,,,gray,diamond
0.0,8.0,4.0,1.0,6.0,6.0,486.3949720001983,4.0,1.0,phase_2,stop,350.0,400.0,3.0,,,,,,,,,white,square
0.0,4.0,4.0,0.0,6.0,6.0,532.3726370006625,4.0,1.0,phase_2,go,350.0,350.0,1.0,,,,,,,,,green,I
0.0,8.0,4.0,1.0,5.0,5.0,503.12295900039317,4.0,1.0,phase_2,stop,350.0,350.0,3.0,,,,,,,,,white,square
0.0,2.0,2.0,0.0,6.0,6.0,354.9651619996439,4.0,1.0,phase_2,go,300.0,350.0,1.0,,,,,,,,,magenta,cross
0.0,2.0,2.0,0.0,5.0,5.0,327.7297909990011,4.0,1.0,phase_2,go,300.0,350.0,1.0,,,,,,,,,magenta,cross
0.0,7.0,3.0,1.0,5.0,0.0,0.0,4.0,1.0,phase_2,stop,300.0,350.0,4.0,,,,,,,,,yellow,triangle
0.0,8.0,4.0,1.0,6.0,6.0,597.8524890015251,4.0,1.0,phase_2,go,350.0,350.0,1.0,,,,,,,,,white,square
0.0,1.0,1.0,0.0,6.0,6.0,588.2934700002806,4.0,1.0,phase_2,go,350.0,350.0,1.0,,,,,,,,,blue,flipped triangle
0.0,6.0,2.0,1.0,6.0,0.0,0.0,4.0,1.0,phase_2,stop,350.0,350.0,4.0,,,,,,,,,orange,hexagon
0.0,5.0,1.0,1.0,5.0,5.0,479.6418930000072,4.0,1.0,phase_2,stop,350.0,400.0,3.0,,,,,,,,,gray,diamond
0.0,5.0,1.0,1.0,5.0,5.0,597.095127999637,4.0,1.0,phase_2,go,300.0,400.0,1.0,,,,,,,,,gray,diamond
0.0,5.0,1.0,1.0,6.0,6.0,433.4102729990263,4.0,1.0,phase_2,stop,300.0,400.0,3.0,,,,,,,,,gray,diamond
0.0,7.0,3.0,1.0,5.0,5.0,701.1883489994943,4.0,1.0,phase_2,go,300.0,350.0,1.0,,,,,,,,,yellow,triangle
0.0,8.0,4.0,1.0,5.0,5.0,375.5481479984155,5.0,1.0,phase_2,stop,300.0,350.0,3.0,,,,,,,,,white,square
0.0,6.0,2.0,1.0,5.0,0.0,0.0,5.0,1.0,phase_2,stop,250.0,350.0,4.0,,,,,,,,,orange,hexagon
0.0,8.0,4.0,1.0,6.0,6.0,457.8329300002224,5.0,1.0,phase_2,stop,300.0,350.0,3.0,,,,,,,,,white,square
0.0,2.0,2.0,0.0,5.0,5.0,317.567071000667,5.0,1.0,phase_2,go,300.0,300.0,1.0,,,,,,,,,magenta,cross
0.0,5.0,1.0,1.0,5.0,5.0,496.5207929999451,5.0,1.0,phase_2,go,300.0,300.0,1.0,,,,,,,,,gray,diamond
0.0,3.0,3.0,0.0,5.0,5.0,337.30379500048,5.0,1.0,phase_2,go,300.0,300.0,1.0,,,,,,,,,cyan,circle
0.0,7.0,3.0,1.0,5.0,5.0,354.6824879995256,5.0,1.0,phase_2,go,300.0,300.0,1.0,,,,,,,,,yellow,triangle
0.0,4.0,4.0,0.0,5.0,5.0,354.4833199994173,5.0,1.0,phase_2,go,300.0,300.0,1.0,,,,,,,,,green,I
0.0,3.0,3.0,0.0,6.0,6.0,384.1445079997356,5.0,1.0,phase_2,go,300.0,300.0,1.0,,,,,,,,,cyan,circle
0.0,5.0,1.0,1.0,5.0,5.0,343.6015290008072,5.0,1.0,phase_2,stop,300.0,300.0,3.0,,,,,,,,,gray,diamond
0.0,1.0,1.0,0.0,6.0,6.0,589.5527630000288,5.0,1.0,phase_2,go,250.0,300.0,1.0,,,,,,,,,blue,flipped triangle
0.0,4.0,4.0,0.0,6.0,6.0,452.0464340002945,5.0,1.0,phase_2,go,250.0,300.0,1.0,,,,,,,,,green,I
0.0,1.0,1.0,0.0,6.0,6.0,410.4645870011154,5.0,1.0,phase_2,go,250.0,300.0,1.0,,,,,,,,,blue,flipped triangle
0.0,7.0,3.0,1.0,6.0,6.0,370.4589469998609,5.0,1.0,phase_2,stop,250.0,300.0,3.0,,,,,,,,,yellow,triangle
0.0,8.0,4.0,1.0,6.0,6.0,382.8599270000268,5.0,1.0,phase_2,go,250.0,250.0,1.0,,,,,,,,,white,square
0.0,8.0,4.0,1.0,6.0,6.0,401.0875240001041,5.0,1.0,phase_2,go,250.0,250.0,1.0,,,,,,,,,white,square
0.0,2.0,2.0,0.0,5.0,5.0,400.9646369995607,5.0,1.0,phase_2,go,250.0,250.0,1.0,,,,,,,,,magenta,cross
0.0,7.0,3.0,1.0,6.0,6.0,356.3348899988341,5.0,1.0,phase_2,stop,250.0,250.0,3.0,,,,,,,,,yellow,triangle
0.0,8.0,4.0,1.0,5.0,0.0,0.0,5.0,1.0,phase_2,stop,250.0,200.0,4.0,,,,,,,,,white,square
0.0,2.0,2.0,0.0,5.0,5.0,708.8231899997481,5.0,1.0,phase_2,go,300.0,200.0,1.0,,,,,,,,,magenta,cross
0.0,3.0,3.0,0.0,6.0,6.0,438.1114560001151,5.0,1.0,phase_2,go,300.0,200.0,1.0,,,,,,,,,cyan,circle
0.0,7.0,3.0,1.0,5.0,5.0,346.2391969987948,5.0,1.0,phase_2,stop,300.0,200.0,3.0,,,,,,,,,yellow,triangle
0.0,2.0,2.0,0.0,6.0,6.0,513.8509389998944,5.0,1.0,phase_2,go,250.0,200.0,1.0,,,,,,,,,magenta,cross
0.0,5.0,1.0,1.0,5.0,5.0,346.0302160001447,5.0,1.0,phase_2,go,250.0,200.0,1.0,,,,,,,,,gray,diamond
0.0,6.0,2.0,1.0,6.0,0.0,0.0,5.0,1.0,phase_2,stop,250.0,200.0,4.0,,,,,,,,,orange,hexagon
0.0,1.0,1.0,0.0,6.0,6.0,531.2117760004185,5.0,1.0,phase_2,go,250.0,250.0,1.0,,,,,,,,,blue,flipped triangle
0.0,4.0,4.0,0.0,5.0,5.0,390.6483549999393,5.0,1.0,phase_2,go,250.0,250.0,1.0,,,,,,,,,green,I
0.0,3.0,3.0,0.0,6.0,6.0,681.7772189988318,5.0,1.0,phase_2,go,250.0,250.0,1.0,,,,,,,,,cyan,circle
0.0,2.0,2.0,0.0,5.0,5.0,505.977848000839,5.0,1.0,phase_2,go,250.0,250.0,1.0,,,,,,,,,magenta,cross
0.0,2.0,2.0,0.0,5.0,5.0,382.5780379993375,5.0,1.0,phase_2,go,250.0,250.0,1.0,,,,,,,,,magenta,cross
0.0,6.0,2.0,1.0,6.0,6.0,334.972917999039,5.0,1.0,phase_2,go,250.0,250.0,1.0,,,,,,,,,orange,hexagon
0.0,5.0,1.0,1.0,5.0,5.0,313.1321359996946,5.0,1.0,phase_2,stop,250.0,250.0,3.0,,,,,,,,,gray,diamond
0.0,1.0,1.0,0.0,6.0,6.0,438.1903720004629,5.0,1.0,phase_2,go,200.0,250.0,1.0,,,,,,,,,blue,flipped triangle
0.0,5.0,1.0,1.0,5.0,5.0,380.3711749987997,5.0,1.0,phase_2,stop,200.0,250.0,3.0,,,,,,,,,gray,diamond
0.0,6.0,2.0,1.0,5.0,0.0,0.0,5.0,1.0,phase_2,stop,150.0,250.0,4.0,,,,,,,,,orange,hexagon
0.0,7.0,3.0,1.0,5.0,5.0,606.356551999852,5.0,1.0,phase_2,go,200.0,250.0,1.0,,,,,,,,,yellow,triangle
0.0,8.0,4.0,1.0,5.0,0.0,0.0,6.0,1.0,phase_2,stop,200.0,250.0,4.0,,,,,,,,,white,square
0.0,7.0,3.0,1.0,6.0,0.0,0.0,6.0,1.0,phase_2,stop,250.0,250.0,4.0,,,,,,,,,yellow,triangle
0.0,6.0,2.0,1.0,5.0,5.0,513.2504579996748,6.0,1.0,phase_2,go,250.0,300.0,1.0,,,,,,,,,orange,hexagon
0.0,1.0,1.0,0.0,5.0,5.0,504.00834799984295,6.0,1.0,phase_2,go,250.0,300.0,1.0,,,,,,,,,blue,flipped triangle
0.0,3.0,3.0,0.0,6.0,6.0,279.8565890007012,6.0,1.0,phase_2,go,250.0,300.0,1.0,,,,,,,,,cyan,circle
0.0,5.0,1.0,1.0,6.0,6.0,344.6895520010002,6.0,1.0,phase_2,go,250.0,300.0,1.0,,,,,,,,,gray,diamond
0.0,5.0,1.0,1.0,6.0,6.0,335.7152589996985,6.0,1.0,phase_2,stop,250.0,300.0,3.0,,,,,,,,,gray,diamond
0.0,8.0,4.0,1.0,5.0,0.0,0.0,6.0,1.0,phase_2,stop,250.0,250.0,4.0,,,,,,,,,white,square
0.0,8.0,4.0,1.0,5.0,0.0,0.0,6.0,1.0,phase_2,stop,300.0,250.0,4.0,,,,,,,,,white,square
0.0,2.0,2.0,0.0,6.0,6.0,410.9189410010003,6.0,1.0,phase_2,go,350.0,250.0,1.0,,,,,,,,,magenta,cross
0.0,5.0,1.0,1.0,6.0,0.0,0.0,6.0,1.0,phase_2,stop,350.0,250.0,4.0,,,,,,,,,gray,diamond
0.0,6.0,2.0,1.0,5.0,0.0,0.0,6.0,1.0,phase_2,stop,350.0,300.0,4.0,,,,,,,,,orange,hexagon
0.0,7.0,3.0,1.0,6.0,0.0,0.0,6.0,1.0,phase_2,stop,400.0,300.0,4.0,,,,,,,,,yellow,triangle
0.0,1.0,1.0,0.0,5.0,5.0,579.0676409997104,6.0,1.0,phase_2,go,400.0,350.0,1.0,,,,,,,,,blue,flipped triangle
0.0,1.0,1.0,0.0,5.0,5.0,476.7549299995153,6.0,1.0,phase_2,go,400.0,350.0,1.0,,,,,,,,,blue,flipped triangle
0.0,4.0,4.0,0.0,5.0,5.0,652.8079370000341,6.0,1.0,phase_2,go,400.0,350.0,1.0,,,,,,,,,green,I
0.0,5.0,1.0,1.0,5.0,5.0,681.610179000927,6.0,1.0,phase_2,go,400.0,350.0,1.0,,,,,,,,,gray,diamond
0.0,4.0,4.0,0.0,5.0,5.0,477.1051019997685,6.0,1.0,phase_2,go,400.0,350.0,1.0,,,,,,,,,green,I
0.0,5.0,1.0,1.0,5.0,5.0,430.7686209995154,6.0,1.0,phase_2,stop,400.0,350.0,3.0,,,,,,,,,gray,diamond
0.0,5.0,1.0,1.0,6.0,0.0,0.0,6.0,1.0,phase_2,stop,350.0,350.0,4.0,,,,,,,,,gray,diamond
0.0,8.0,4.0,1.0,6.0,0.0,0.0,6.0,1.0,phase_2,stop,350.0,400.0,4.0,,,,,,,,,white,square
0.0,1.0,1.0,0.0,5.0,5.0,504.17988099979993,6.0,1.0,phase_2,go,350.0,450.0,1.0,,,,,,,,,blue,flipped triangle
0.0,8.0,4.0,1.0,6.0,6.0,576.6600759998255,6.0,1.0,phase_2,stop,350.0,450.0,3.0,,,,,,,,,white,square
0.0,1.0,1.0,0.0,6.0,6.0,680.3329899994424,6.0,1.0,phase_2,go,350.0,400.0,1.0,,,,,,,,,blue,flipped triangle
0.0,2.0,2.0,0.0,6.0,6.0,857.0995310001308,6.0,1.0,phase_2,go,350.0,400.0,1.0,,,,,,,,,magenta,cross
0.0,3.0,3.0,0.0,5.0,5.0,467.929163000008,6.0,1.0,phase_2,go,350.0,400.0,1.0,,,,,,,,,cyan,circle
0.0,1.0,1.0,0.0,6.0,6.0,345.7383479999407,6.0,1.0,phase_2,go,350.0,400.0,1.0,,,,,,,,,blue,flipped triangle
0.0,8.0,4.0,1.0,5.0,5.0,308.146018998741,6.0,1.0,phase_2,stop,350.0,400.0,3.0,,,,,,,,,white,square
0.0,3.0,3.0,0.0,5.0,5.0,504.265180999937,6.0,1.0,phase_2,go,300.0,400.0,1.0,,,,,,,,,cyan,circle
0.0,4.0,4.0,0.0,6.0,6.0,355.3123639994737,6.0,1.0,phase_2,go,300.0,400.0,1.0,,,,,,,,,green,I
0.0,4.0,4.0,0.0,5.0,5.0,289.1530090000742,6.0,1.0,phase_2,go,300.0,400.0,1.0,,,,,,,,,green,I
0.0,7.0,3.0,1.0,5.0,5.0,355.2603050011385,6.0,1.0,phase_2,stop,300.0,400.0,3.0,,,,,,,,,yellow,triangle
0.0,2.0,2.0,0.0,6.0,6.0,494.9267449992476,6.0,1.0,phase_2,go,250.0,400.0,1.0,,,,,,,,,magenta,cross
0.0,3.0,3.0,0.0,6.0,6.0,409.9604799994267,6.0,1.0,phase_2,go,250.0,400.0,1.0,,,,,,,,,cyan,circle
0.0,6.0,2.0,1.0,6.0,6.0,507.197057000667,6.0,1.0,phase_2,stop,250.0,400.0,3.0,,,,,,,,,orange,hexagon
0.0,7.0,3.0,1.0,6.0,6.0,530.5789680005546,6.0,1.0,phase_2,stop,250.0,350.0,3.0,,,,,,,,,yellow,triangle
0.0,5.0,1.0,1.0,6.0,6.0,448.2381460002216,7.0,1.0,phase_2,stop,250.0,300.0,3.0,,,,,,,,,gray,diamond
0.0,3.0,3.0,0.0,6.0,6.0,542.9529440007173,7.0,1.0,phase_2,go,250.0,250.0,1.0,,,,,,,,,cyan,circle
0.0,5.0,1.0,1.0,6.0,0.0,0.0,7.0,1.0,phase_2,stop,250.0,250.0,4.0,,,,,,,,,gray,diamond
0.0,2.0,2.0,0.0,6.0,6.0,755.8295580001868,7.0,1.0,phase_2,go,250.0,300.0,1.0,,,,,,,,,magenta,cross
0.0,5.0,1.0,1.0,5.0,5.0,662.3245740011043,7.0,1.0,phase_2,go,250.0,300.0,1.0,,,,,,,,,gray,diamond
0.0,7.0,3.0,1.0,6.0,6.0,354.3866489999345,7.0,1.0,phase_2,stop,250.0,300.0,3.0,,,,,,,,,yellow,triangle
0.0,7.0,3.0,1.0,6.0,0.0,0.0,7.0,1.0,phase_2,stop,250.0,250.0,4.0,,,,,,,,,yellow,triangle
0.0,6.0,2.0,1.0,5.0,0.0,0.0,7.0,1.0,phase_2,stop,250.0,300.0,4.0,,,,,,,,,orange,hexagon
0.0,4.0,4.0,0.0,5.0,5.0,412.0193559992913,7.0,1.0,phase_2,go,300.0,300.0,1.0,,,,,,,,,green,I
0.0,3.0,3.0,0.0,5.0,5.0,598.2578019993525,7.0,1.0,phase_2,go,300.0,300.0,1.0,,,,,,,,,cyan,circle
0.0,1.0,1.0,0.0,5.0,5.0,345.3374750006333,7.0,1.0,phase_2,go,300.0,300.0,1.0,,,,,,,,,blue,flipped triangle
0.0,4.0,4.0,0.0,6.0,6.0,504.0124860006472,7.0,1.0,phase_2,go,300.0,300.0,1.0,,,,,,,,,green,I
0.0,4.0,4.0,0.0,6.0,6.0,375.2290230004291,7.0,1.0,phase_2,go,300.0,300.0,1.0,,,,,,,,,green,I
0.0,4.0,4.0,0.0,5.0,5.0,330.9567929991317,7.0,1.0,phase_2,go,300.0,300.0,1.0,,,,,,,,,green,I
0.0,3.0,3.0,0.0,6.0,6.0,373.5485800007154,7.0,1.0,phase_2,go,300.0,300.0,1.0,,,,,,,,,cyan,circle
0.0,1.0,1.0,0.0,6.0,6.0,383.075875999566,7.0,1.0,phase_2,go,300.0,300.0,1.0,,,,,,,,,blue,flipped triangle
0.0,5.0,1.0,1.0,5.0,5.0,341.7609830012225,7.0,1.0,phase_2,stop,300.0,300.0,3.0,,,,,,,,,gray,diamond
0.0,6.0,2.0,1.0,5.0,5.0,786.1556059997383,7.0,1.0,phase_2,go,250.0,300.0,1.0,,,,,,,,,orange,hexagon
0.0,4.0,4.0,0.0,5.0,5.0,580.4907999990974,7.0,1.0,phase_2,go,250.0,300.0,1.0,,,,,,,,,green,I
0.0,1.0,1.0,0.0,6.0,6.0,363.5624969992932,7.0,1.0,phase_2,go,250.0,300.0,1.0,,,,,,,,,blue,flipped triangle
0.0,7.0,3.0,1.0,6.0,6.0,356.8755440010136,7.0,1.0,phase_2,stop,250.0,300.0,3.0,,,,,,,,,yellow,triangle
0.0,6.0,2.0,1.0,5.0,0.0,0.0,7.0,1.0,phase_2,stop,250.0,250.0,4.0,,,,,,,,,orange,hexagon
0.0,3.0,3.0,0.0,6.0,6.0,669.2180639984144,7.0,1.0,phase_2,go,300.0,250.0,1.0,,,,,,,,,cyan,circle
0.0,1.0,1.0,0.0,5.0,5.0,689.3962630001624,7.0,1.0,phase_2,go,300.0,250.0,1.0,,,,,,,,,blue,flipped triangle
0.0,3.0,3.0,0.0,6.0,6.0,373.9484180005092,7.0,1.0,phase_2,go,300.0,250.0,1.0,,,,,,,,,cyan,circle
0.0,4.0,4.0,0.0,6.0,6.0,401.139024999793,7.0,1.0,phase_2,go,300.0,250.0,1.0,,,,,,,,,green,I
0.0,1.0,1.0,0.0,5.0,5.0,447.1760520009411,7.0,1.0,phase_2,go,300.0,250.0,1.0,,,,,,,,,blue,flipped triangle
0.0,8.0,4.0,1.0,6.0,6.0,410.4624510000576,7.0,1.0,phase_2,stop,300.0,250.0,3.0,,,,,,,,,white,square
0.0,5.0,1.0,1.0,6.0,0.0,0.0,7.0,1.0,phase_2,stop,300.0,200.0,4.0,,,,,,,,,gray,diamond
0.0,4.0,4.0,0.0,6.0,6.0,673.8810510014446,7.0,1.0,phase_2,go,300.0,250.0,1.0,,,,,,,,,green,I
0.0,2.0,2.0,0.0,5.0,5.0,589.4534669987479,7.0,1.0,phase_2,go,300.0,250.0,1.0,,,,,,,,,magenta,cross
0.0,2.0,2.0,0.0,5.0,5.0,524.2479769985948,7.0,1.0,phase_2,go,300.0,250.0,1.0,,,,,,,,,magenta,cross
0.0,3.0,3.0,0.0,6.0,6.0,430.9085740005685,7.0,1.0,phase_2,go,300.0,250.0,1.0,,,,,,,,,cyan,circle
0.0,7.0,3.0,1.0,5.0,5.0,348.1104309994407,7.0,1.0,phase_2,stop,300.0,250.0,3.0,,,,,,,,,yellow,triangle
0.0,7.0,3.0,1.0,6.0,0.0,0.0,7.0,1.0,phase_2,stop,250.0,250.0,4.0,,,,,,,,,yellow,triangle
0.0,3.0,3.0,0.0,6.0,6.0,737.8735619986401,7.0,1.0,phase_2,go,250.0,300.0,1.0,,,,,,,,,cyan,circle
0.0,5.0,1.0,1.0,6.0,0.0,0.0,8.0,1.0,phase_2,stop,250.0,300.0,4.0,,,,,,,,,gray,diamond
0.0,8.0,4.0,1.0,5.0,5.0,393.6072159995092,8.0,1.0,phase_2,go,250.0,350.0,1.0,,,,,,,,,white,square
0.0,4.0,4.0,0.0,6.0,6.0,400.059183999474,8.0,1.0,phase_2,go,250.0,350.0,1.0,,,,,,,,,green,I
0.0,4.0,4.0,0.0,6.0,6.0,633.8582930002303,8.0,1.0,phase_2,go,250.0,350.0,1.0,,,,,,,,,green,I
0.0,3.0,3.0,0.0,5.0,5.0,335.8947440010524,8.0,1.0,phase_2,go,250.0,350.0,1.0,,,,,,,,,cyan,circle
0.0,8.0,4.0,1.0,5.0,5.0,335.0596180007414,8.0,1.0,phase_2,stop,250.0,350.0,3.0,,,,,,,,,white,square
0.0,7.0,3.0,1.0,5.0,0.0,0.0,8.0,1.0,phase_2,stop,200.0,350.0,4.0,,,,,,,,,yellow,triangle
0.0,4.0,4.0,0.0,5.0,5.0,757.9724219995114,8.0,1.0,phase_2,go,250.0,350.0,1.0,,,,,,,,,green,I
0.0,8.0,4.0,1.0,6.0,0.0,0.0,8.0,1.0,phase_2,stop,250.0,350.0,4.0,,,,,,,,,white,square
0.0,2.0,2.0,0.0,6.0,6.0,641.2597720009217,8.0,1.0,phase_2,go,250.0,400.0,1.0,,,,,,,,,magenta,cross
0.0,6.0,2.0,1.0,5.0,0.0,0.0,8.0,1.0,phase_2,stop,250.0,400.0,4.0,,,,,,,,,orange,hexagon
0.0,3.0,3.0,0.0,5.0,5.0,401.102069999979,8.0,1.0,phase_2,go,300.0,400.0,1.0,,,,,,,,,cyan,circle
0.0,1.0,1.0,0.0,6.0,6.0,418.2834219991491,8.0,1.0,phase_2,go,300.0,400.0,1.0,,,,,,,,,blue,flipped triangle
0.0,1.0,1.0,0.0,5.0,5.0,363.88137799986,8.0,1.0,phase_2,go,300.0,400.0,1.0,,,,,,,,,blue,flipped triangle
0.0,5.0,1.0,1.0,6.0,6.0,317.4288049995084,8.0,1.0,phase_2,stop,300.0,400.0,3.0,,,,,,,,,gray,diamond
0.0,7.0,3.0,1.0,6.0,6.0,424.1409369988105,8.0,1.0,phase_2,stop,300.0,350.0,3.0,,,,,,,,,yellow,triangle
0.0,5.0,1.0,1.0,5.0,5.0,466.5564560000348,8.0,1.0,phase_2,stop,300.0,300.0,3.0,,,,,,,,,gray,diamond
0.0,3.0,3.0,0.0,6.0,6.0,336.7872079998051,8.0,1.0,phase_2,go,250.0,300.0,1.0,,,,,,,,,cyan,circle
0.0,7.0,3.0,1.0,5.0,0.0,0.0,8.0,1.0,phase_2,stop,250.0,300.0,4.0,,,,,,,,,yellow,triangle
0.0,2.0,2.0,0.0,5.0,5.0,617.1177830001398,8.0,1.0,phase_2,go,300.0,300.0,1.0,,,,,,,,,magenta,cross
0.0,4.0,4.0,0.0,5.0,5.0,438.8044090010226,8.0,1.0,phase_2,go,300.0,300.0,1.0,,,,,,,,,green,I
0.0,2.0,2.0,0.0,5.0,5.0,402.0839790009631,8.0,1.0,phase_2,go,300.0,300.0,1.0,,,,,,,,,magenta,cross
0.0,6.0,2.0,1.0,6.0,0.0,0.0,8.0,1.0,phase_2,stop,300.0,300.0,4.0,,,,,,,,,orange,hexagon
0.0,6.0,2.0,1.0,5.0,5.0,382.8667800007679,8.0,1.0,phase_2,stop,300.0,350.0,3.0,,,,,,,,,orange,hexagon
0.0,5.0,1.0,1.0,6.0,0.0,0.0,8.0,1.0,phase_2,stop,250.0,350.0,4.0,,,,,,,,,gray,diamond
0.0,4.0,4.0,0.0,6.0,6.0,412.908342999799,8.0,1.0,phase_2,go,250.0,400.0,1.0,,,,,,,,,green,I
0.0,2.0,2.0,0.0,6.0,6.0,531.3634880003519,8.0,1.0,phase_2,go,250.0,400.0,1.0,,,,,,,,,magenta,cross
0.0,6.0,2.0,1.0,6.0,0.0,0.0,8.0,1.0,phase_2,stop,250.0,400.0,4.0,,,,,,,,,orange,hexagon
0.0,8.0,4.0,1.0,6.0,6.0,885.3067039999587,8.0,1.0,phase_2,go,250.0,450.0,1.0,,,,,,,,,white,square
0.0,1.0,1.0,0.0,5.0,5.0,550.0949050001509,8.0,1.0,phase_2,go,250.0,450.0,1.0,,,,,,,,,blue,flipped triangle
0.0,4.0,4.0,0.0,6.0,6.0,476.283396999861,8.0,1.0,phase_2,go,250.0,450.0,1.0,,,,,,,,,green,I
0.0,7.0,3.0,1.0,6.0,6.0,427.9126950004865,8.0,1.0,phase_2,stop,250.0,450.0,3.0,,,,,,,,,yellow,triangle
0.0,4.0,4.0,0.0,6.0,6.0,719.7780589995091,8.0,1.0,phase_2,go,250.0,400.0,1.0,,,,,,,,,green,I
0.0,4.0,4.0,0.0,5.0,5.0,438.8175900003261,8.0,1.0,phase_2,go,250.0,400.0,1.0,,,,,,,,,green,I
0.0,3.0,3.0,0.0,5.0,5.0,459.685633000845,8.0,1.0,phase_2,go,250.0,400.0,1.0,,,,,,,,,cyan,circle
0.0,7.0,3.0,1.0,6.0,6.0,438.0679559999407,8.0,1.0,phase_2,stop,250.0,400.0,3.0,,,,,,,,,yellow,triangle
0.0,4.0,4.0,0.0,7.0,3.0,1751.8417430001136,1.0,1.0,phase_3,,,,,540.0,4.0,135.0,675.0,540.0,270.0,810.0,405.0,green,I
0.0,1.0,1.0,0.0,7.0,4.0,1040.6016249999084,1.0,1.0,phase_3,,,,,810.0,6.0,540.0,675.0,405.0,810.0,135.0,270.0,blue,flipped triangle
0.0,5.0,1.0,1.0,7.0,1.0,0.36187200021230004,1.0,1.0,phase_3,,,,,192.0,1.0,192.0,960.0,768.0,1152.0,576.0,384.0,gray,diamond
0.0,8.0,4.0,1.0,7.0,6.0,804.7007989989652,1.0,1.0,phase_3,,,,,346.0,2.0,692.0,865.0,173.0,519.0,1038.0,346.0,white,square
0.0,1.0,1.0,0.0,7.0,4.0,1148.9711589983926,1.0,1.0,phase_3,,,,,692.0,4.0,519.0,346.0,173.0,692.0,1038.0,865.0,blue,flipped triangle
0.0,3.0,3.0,0.0,7.0,2.0,1296.248500000729,1.0,1.0,phase_3,,,,,346.0,2.0,865.0,346.0,692.0,1038.0,173.0,519.0,cyan,circle
0.0,7.0,3.0,1.0,7.0,1.0,2250.9938849998434,1.0,1.0,phase_3,,,,,1152.0,6.0,1152.0,768.0,384.0,960.0,192.0,576.0,yellow,triangle
0.0,7.0,3.0,1.0,7.0,4.0,1997.4001699993096,1.0,1.0,phase_3,,,,,270.0,2.0,540.0,135.0,675.0,270.0,405.0,810.0,yellow,triangle
0.0,4.0,4.0,0.0,7.0,6.0,2007.550880000053,1.0,1.0,phase_3,,,,,768.0,4.0,384.0,1152.0,192.0,576.0,960.0,768.0,green,I
0.0,3.0,3.0,0.0,7.0,3.0,1094.5954919989165,1.0,1.0,phase_3,,,,,116.0,1.0,580.0,696.0,116.0,464.0,232.0,348.0,cyan,circle
0.0,6.0,2.0,1.0,7.0,5.0,556.4796180005942,1.0,1.0,phase_3,,,,,696.0,6.0,232.0,464.0,116.0,580.0,696.0,348.0,orange,hexagon
0.0,3.0,3.0,0.0,7.0,1.0,768.117252000593,1.0,1.0,phase_3,,,,,270.0,2.0,270.0,675.0,810.0,405.0,540.0,135.0,cyan,circle
0.0,5.0,1.0,1.0,7.0,6.0,1082.8901370005042,1.0,1.0,phase_3,,,,,576.0,3.0,1152.0,768.0,384.0,192.0,960.0,576.0,gray,diamond
0.0,7.0,3.0,1.0,7.0,6.0,1408.889932999955,1.0,1.0,phase_3,,,,,270.0,2.0,810.0,405.0,540.0,675.0,135.0,270.0,yellow,triangle
0.0,2.0,2.0,0.0,7.0,5.0,1232.8270330017403,1.0,1.0,phase_3,,,,,116.0,1.0,464.0,232.0,348.0,696.0,116.0,580.0,magenta,cross
0.0,5.0,1.0,1.0,7.0,1.0,1490.3883499991937,1.0,1.0,phase_3,,,,,696.0,6.0,696.0,464.0,116.0,580.0,348.0,232.0,gray,diamond
0.0,2.0,2.0,0.0,7.0,6.0,1769.183175998478,1.0,1.0,phase_3,,,,,135.0,1.0,675.0,270.0,540.0,810.0,405.0,135.0,magenta,cross
0.0,5.0,1.0,1.0,7.0,5.0,1610.9815130002971,1.0,1.0,phase_3,,,,,865.0,5.0,346.0,173.0,519.0,692.0,865.0,1038.0,gray,diamond
0.0,2.0,2.0,0.0,7.0,6.0,1165.9219880002638,1.0,1.0,phase_3,,,,,173.0,1.0,1038.0,519.0,692.0,346.0,865.0,173.0,magenta,cross
0.0,8.0,4.0,1.0,7.0,5.0,951.5760329995828,1.0,1.0,phase_3,,,,,519.0,3.0,173.0,346.0,865.0,1038.0,519.0,692.0,white,square
0.0,6.0,2.0,1.0,7.0,3.0,686.3021059998573,2.0,1.0,phase_3,,,,,405.0,3.0,675.0,270.0,405.0,810.0,135.0,540.0,orange,hexagon
0.0,8.0,4.0,1.0,7.0,5.0,328.7133189987798,2.0,1.0,phase_3,,,,,768.0,4.0,384.0,960.0,192.0,1152.0,768.0,576.0,white,square
0.0,5.0,1.0,1.0,7.0,6.0,1178.3038949997715,2.0,1.0,phase_3,,,,,173.0,1.0,865.0,692.0,1038.0,519.0,346.0,173.0,gray,diamond
0.0,3.0,3.0,0.0,7.0,2.0,750.883339000211,2.0,1.0,phase_3,,,,,462.0,3.0,154.0,462.0,924.0,770.0,308.0,616.0,cyan,circle
0.0,1.0,1.0,0.0,7.0,1.0,1325.274000000718,2.0,1.0,phase_3,,,,,576.0,3.0,576.0,1152.0,960.0,768.0,192.0,384.0,blue,flipped triangle
0.0,8.0,4.0,1.0,7.0,1.0,1389.924682000128,2.0,1.0,phase_3,,,,,770.0,5.0,770.0,154.0,616.0,308.0,924.0,462.0,white,square
0.0,4.0,4.0,0.0,7.0,6.0,825.7116369986761,2.0,1.0,phase_3,,,,,675.0,5.0,405.0,135.0,270.0,540.0,810.0,675.0,green,I
0.0,5.0,1.0,1.0,7.0,2.0,1224.4077310006105,2.0,1.0,phase_3,,,,,154.0,1.0,308.0,154.0,616.0,770.0,462.0,924.0,gray,diamond
0.0,6.0,2.0,1.0,7.0,5.0,462.9494380005781,2.0,1.0,phase_3,,,,,135.0,1.0,675.0,405.0,810.0,540.0,135.0,270.0,orange,hexagon
0.0,6.0,2.0,1.0,7.0,3.0,390.1507500013395,2.0,1.0,phase_3,,,,,616.0,4.0,154.0,462.0,616.0,308.0,924.0,770.0,orange,hexagon
0.0,7.0,3.0,1.0,7.0,5.0,297.654058000262,2.0,1.0,phase_3,,,,,616.0,4.0,308.0,770.0,924.0,154.0,616.0,462.0,yellow,triangle
0.0,6.0,2.0,1.0,7.0,2.0,1150.2913750009611,2.0,1.0,phase_3,,,,,1038.0,6.0,865.0,1038.0,173.0,692.0,519.0,346.0,orange,hexagon
0.0,2.0,2.0,0.0,7.0,5.0,390.2491199987707,2.0,1.0,phase_3,,,,,232.0,2.0,348.0,116.0,464.0,580.0,232.0,696.0,magenta,cross
0.0,3.0,3.0,0.0,7.0,1.0,722.7604959989549,2.0,1.0,phase_3,,,,,232.0,2.0,232.0,696.0,464.0,116.0,580.0,348.0,cyan,circle
0.0,3.0,3.0,0.0,7.0,5.0,399.1057870007353,2.0,1.0,phase_3,,,,,960.0,5.0,192.0,384.0,768.0,1152.0,960.0,576.0,cyan,circle
0.0,7.0,3.0,1.0,7.0,3.0,436.076261999915,2.0,1.0,phase_3,,,,,464.0,4.0,348.0,232.0,464.0,580.0,116.0,696.0,yellow,triangle
0.0,8.0,4.0,1.0,7.0,2.0,1619.319191999239,2.0,1.0,phase_3,,,,,675.0,5.0,405.0,675.0,270.0,810.0,540.0,135.0,white,square
0.0,3.0,3.0,0.0,7.0,5.0,573.4049700004107,2.0,1.0,phase_3,,,,,1152.0,6.0,192.0,576.0,768.0,384.0,1152.0,960.0,cyan,circle
0.0,7.0,3.0,1.0,7.0,6.0,990.53899700084,2.0,1.0,phase_3,,,,,580.0,5.0,232.0,696.0,116.0,348.0,464.0,580.0,yellow,triangle
0.0,5.0,1.0,1.0,7.0,5.0,1185.9337099995173,2.0,1.0,phase_3,,,,,232.0,2.0,696.0,580.0,348.0,116.0,232.0,464.0,gray,diamond
0.0,1.0,1.0,0.0,7.0,3.0,379.8949800002447,3.0,1.0,phase_3,,,,,810.0,6.0,270.0,675.0,810.0,405.0,540.0,135.0,blue,flipped triangle
0.0,8.0,4.0,1.0,7.0,5.0,1532.4084160001803,3.0,1.0,phase_3,,,,,462.0,3.0,616.0,770.0,308.0,924.0,462.0,154.0,white,square
0.0,7.0,3.0,1.0,7.0,3.0,341.6099959995335,3.0,1.0,phase_3,,,,,924.0,6.0,154.0,308.0,924.0,770.0,616.0,462.0,yellow,triangle
0.0,8.0,4.0,1.0,7.0,5.0,314.6945070002402,3.0,1.0,phase_3,,,,,384.0,2.0,192.0,576.0,1152.0,960.0,384.0,768.0,white,square
0.0,4.0,4.0,0.0,7.0,3.0,296.1780290006572,3.0,1.0,phase_3,,,,,1038.0,6.0,865.0,346.0,1038.0,519.0,692.0,173.0,green,I
0.0,4.0,4.0,0.0,7.0,2.0,705.8395440017193,3.0,1.0,phase_3,,,,,173.0,1.0,519.0,173.0,692.0,865.0,1038.0,346.0,green,I
0.0,3.0,3.0,0.0,7.0,6.0,760.947490000035,3.0,1.0,phase_3,,,,,405.0,3.0,810.0,270.0,135.0,540.0,675.0,405.0,cyan,circle
0.0,7.0,3.0,1.0,7.0,1.0,333.2361449993186,3.0,1.0,phase_3,,,,,346.0,2.0,346.0,519.0,1038.0,173.0,865.0,692.0,yellow,triangle
0.0,2.0,2.0,0.0,7.0,3.0,324.1957930003991,3.0,1.0,phase_3,,,,,865.0,5.0,173.0,692.0,865.0,1038.0,346.0,519.0,magenta,cross
0.0,6.0,2.0,1.0,7.0,5.0,379.8896700009209,3.0,1.0,phase_3,,,,,770.0,5.0,924.0,154.0,616.0,308.0,770.0,462.0,orange,hexagon
0.0,6.0,2.0,1.0,7.0,3.0,334.3362230007187,3.0,1.0,phase_3,,,,,384.0,2.0,960.0,192.0,384.0,1152.0,576.0,768.0,orange,hexagon
0.0,4.0,4.0,0.0,7.0,6.0,297.0910039985028,3.0,1.0,phase_3,,,,,924.0,6.0,154.0,616.0,308.0,462.0,770.0,924.0,green,I
0.0,7.0,3.0,1.0,7.0,1.0,398.9723099984985,3.0,1.0,phase_3,,,,,519.0,3.0,519.0,692.0,1038.0,865.0,346.0,173.0,yellow,triangle
0.0,8.0,4.0,1.0,7.0,6.0,343.9124489996175,3.0,1.0,phase_3,,,,,348.0,3.0,696.0,464.0,116.0,580.0,232.0,348.0,white,square
0.0,6.0,2.0,1.0,7.0,3.0,342.902698999751,3.0,1.0,phase_3,,,,,116.0,1.0,464.0,696.0,116.0,348.0,580.0,232.0,orange,hexagon
0.0,1.0,1.0,0.0,7.0,3.0,363.6543880002136,3.0,1.0,phase_3,,,,,464.0,4.0,232.0,116.0,464.0,696.0,348.0,580.0,blue,flipped triangle
0.0,2.0,2.0,0.0,7.0,1.0,342.3544630004471,3.0,1.0,phase_3,,,,,154.0,1.0,154.0,462.0,308.0,924.0,770.0,616.0,magenta,cross
0.0,2.0,2.0,0.0,7.0,6.0,287.447726001119,3.0,1.0,phase_3,,,,,1152.0,6.0,768.0,576.0,384.0,960.0,192.0,1152.0,magenta,cross
0.0,2.0,2.0,0.0,7.0,1.0,361.653459000081,3.0,1.0,phase_3,,,,,960.0,5.0,960.0,576.0,192.0,1152.0,768.0,384.0,magenta,cross
0.0,1.0,1.0,0.0,7.0,5.0,1066.271195999434,3.0,1.0,phase_3,,,,,116.0,1.0,348.0,232.0,580.0,464.0,116.0,696.0,blue,flipped triangle
0.0,2.0,2.0,0.0,7.0,3.0,879.0382030001638,4.0,1.0,phase_3,,,,,675.0,5.0,810.0,540.0,675.0,270.0,135.0,405.0,magenta,cross
0.0,3.0,3.0,0.0,7.0,5.0,361.7476110011921,4.0,1.0,phase_3,,,,,616.0,4.0,462.0,770.0,154.0,308.0,616.0,924.0,cyan,circle
0.0,1.0,1.0,0.0,7.0,1.0,278.4152120002545,4.0,1.0,phase_3,,,,,173.0,1.0,173.0,346.0,1038.0,519.0,692.0,865.0,blue,flipped triangle
0.0,3.0,3.0,0.0,7.0,4.0,435.5433599994285,4.0,1.0,phase_3,,,,,692.0,4.0,1038.0,173.0,346.0,692.0,519.0,865.0,cyan,circle
0.0,4.0,4.0,0.0,7.0,5.0,342.4972029988566,4.0,1.0,phase_3,,,,,924.0,6.0,770.0,462.0,154.0,616.0,924.0,308.0,green,I
0.0,8.0,4.0,1.0,7.0,1.0,324.5762839997042,4.0,1.0,phase_3,,,,,232.0,2.0,232.0,116.0,348.0,580.0,464.0,696.0,white,square
0.0,4.0,4.0,0.0,7.0,3.0,434.4634789995325,4.0,1.0,phase_3,,,,,464.0,4.0,232.0,348.0,464.0,116.0,696.0,580.0,green,I
0.0,4.0,4.0,0.0,7.0,6.0,444.2830770003638,4.0,1.0,phase_3,,,,,768.0,4.0,384.0,960.0,576.0,1152.0,192.0,768.0,green,I
0.0,8.0,4.0,1.0,7.0,3.0,333.7220809989958,4.0,1.0,phase_3,,,,,405.0,3.0,270.0,540.0,405.0,675.0,135.0,810.0,white,square
0.0,6.0,2.0,1.0,7.0,1.0,371.1373329988419,4.0,1.0,phase_3,,,,,1152.0,6.0,1152.0,192.0,576.0,768.0,384.0,960.0,orange,hexagon
0.0,1.0,1.0,0.0,7.0,6.0,389.061463998587,4.0,1.0,phase_3,,,,,924.0,6.0,462.0,154.0,308.0,770.0,616.0,924.0,blue,flipped triangle
0.0,5.0,1.0,1.0,7.0,1.0,352.3925190002046,4.0,1.0,phase_3,,,,,135.0,1.0,135.0,405.0,675.0,270.0,540.0,810.0,gray,diamond
0.0,2.0,2.0,0.0,7.0,3.0,342.9340269995009,4.0,1.0,phase_3,,,,,616.0,4.0,924.0,462.0,616.0,770.0,154.0,308.0,magenta,cross
0.0,5.0,1.0,1.0,7.0,2.0,390.5543189994205,4.0,1.0,phase_3,,,,,540.0,4.0,810.0,540.0,675.0,405.0,270.0,135.0,gray,diamond
0.0,5.0,1.0,1.0,7.0,5.0,323.5574280006403,4.0,1.0,phase_3,,,,,462.0,3.0,308.0,924.0,154.0,770.0,462.0,616.0,gray,diamond
0.0,1.0,1.0,0.0,7.0,3.0,361.5305990006163,4.0,1.0,phase_3,,,,,192.0,1.0,960.0,1152.0,192.0,384.0,576.0,768.0,blue,flipped triangle
0.0,4.0,4.0,0.0,7.0,1.0,380.4415069989773,4.0,1.0,phase_3,,,,,116.0,1.0,116.0,232.0,580.0,348.0,464.0,696.0,green,I
0.0,1.0,1.0,0.0,7.0,6.0,472.0527290010068,4.0,1.0,phase_3,,,,,154.0,1.0,616.0,462.0,924.0,770.0,308.0,154.0,blue,flipped triangle
0.0,6.0,2.0,1.0,7.0,2.0,352.3769879993779,4.0,1.0,phase_3,,,,,173.0,1.0,519.0,173.0,692.0,1038.0,865.0,346.0,orange,hexagon
0.0,7.0,3.0,1.0,7.0,3.0,314.9067889989965,4.0,1.0,phase_3,,,,,576.0,3.0,192.0,768.0,576.0,960.0,384.0,1152.0,yellow,triangle
