raw_reward_magnitude,stim_reward,stepwise_reward_magnitude,paired_with_stopping,stim_location,response,reaction_time,block,num_trial_presentations,which_phase,stop_signal_trial_type,left_SSD,right_SSD,accuracy,chosen_bidding_amount,chosen_bidding_level,possible_bid_1,possible_bid_2,possible_bid_3,possible_bid_4,possible_bid_5,possible_bid_6,color_text,shape_text
0.0,5.0,0.0,1.0,2.0,2.0,379.1720859999259,1.0,2.0,phase_1,,,,,,,,,,,,,white,flipped triangle
0.0,8.0,0.0,1.0,3.0,3.0,350.9094280000226,1.0,1.0,phase_1,,,,,,,,,,,,,gray,diamond
1294.0,8.0,4.0,1.0,2.0,2.0,313.3462119999421,1.0,1.0,phase_1,,,,,,,,,,,,,gray,diamond
1276.0,4.0,4.0,0.0,3.0,3.0,309.3111590001172,1.0,1.0,phase_1,,,,,,,,,,,,,magenta,I
347.0,6.0,1.0,1.0,3.0,3.0,516.8167679998987,1.0,1.0,phase_1,,,,,,,,,,,,,orange,circle
1283.0,4.0,4.0,0.0,1.0,1.0,395.0333069999487,1.0,1.0,phase_1,,,,,,,,,,,,,magenta,I
649.0,3.0,2.0,0.0,3.0,3.0,331.8890359998931,1.0,1.0,phase_1,,,,,,,,,,,,,yellow,hexagon
345.0,6.0,1.0,1.0,3.0,3.0,312.8899000000729,1.0,1.0,phase_1,,,,,,,,,,,,,orange,circle
319.0,6.0,1.0,1.0,4.0,4.0,378.9784130001408,1.0,1.0,phase_1,,,,,,,,,,,,,orange,circle
1275.0,4.0,4.0,0.0,2.0,2.0,369.6298570000635,1.0,1.0,phase_1,,,,,,,,,,,,,magenta,I
0.0,4.0,0.0,0.0,3.0,3.0,481.6896869999709,1.0,1.0,phase_1,,,,,,,,,,,,,magenta,I
0.0,3.0,0.0,0.0,2.0,2.0,443.2274739999684,1.0,1.0,phase_1,,,,,,,,,,,,,yellow,hexagon
670.0,3.0,2.0,0.0,3.0,3.0,360.4561349998221,1.0,1.0,phase_1,,,,,,,,,,,,,yellow,hexagon
1314.0,8.0,4.0,1.0,2.0,2.0,277.1593699999357,1.0,1.0,phase_1,,,,,,,,,,,,,gray,diamond
322.0,6.0,1.0,1.0,3.0,3.0,434.696016000089,1.0,1.0,phase_1,,,,,,,,,,,,,orange,circle
1314.0,4.0,4.0,0.0,1.0,1.0,286.5751340000315,1.0,1.0,phase_1,,,,,,,,,,,,,magenta,I
672.0,7.0,2.0,1.0,1.0,1.0,323.3812940000007,1.0,1.0,phase_1,,,,,,,,,,,,,blue,square
153.0,5.0,0.5,1.0,4.0,4.0,305.3867230000833,1.0,1.0,phase_1,,,,,,,,,,,,,white,flipped triangle
305.0,6.0,1.0,1.0,1.0,1.0,323.4327080001549,1.0,1.0,phase_1,,,,,,,,,,,,,orange,circle
0.0,7.0,0.0,1.0,2.0,2.0,267.7909710000676,1.0,1.0,phase_1,,,,,,,,,,,,,blue,square
1307.0,4.0,4.0,0.0,2.0,2.0,323.4255429999848,1.0,1.0,phase_1,,,,,,,,,,,,,magenta,I
0.0,3.0,0.0,0.0,1.0,1.0,369.2666679999092,1.0,1.0,phase_1,,,,,,,,,,,,,yellow,hexagon
0.0,8.0,0.0,1.0,3.0,3.0,287.7064720000817,1.0,1.0,phase_1,,,,,,,,,,,,,gray,diamond
149.0,1.0,0.5,0.0,1.0,1.0,333.3181660000264,1.0,1.0,phase_1,,,,,,,,,,,,,green,cross
632.0,3.0,2.0,0.0,4.0,4.0,363.2589850001295,1.0,1.0,phase_1,,,,,,,,,,,,,yellow,hexagon
661.0,7.0,2.0,1.0,3.0,3.0,334.1148829999838,1.0,1.0,phase_1,,,,,,,,,,,,,blue,square
0.0,4.0,0.0,0.0,4.0,4.0,360.1283629998306,1.0,1.0,phase_1,,,,,,,,,,,,,magenta,I
0.0,1.0,0.0,0.0,4.0,4.0,350.8463699999993,1.0,1.0,phase_1,,,,,,,,,,,,,green,cross
1288.0,4.0,4.0,0.0,1.0,1.0,370.38056900019,1.0,1.0,phase_1,,,,,,,,,,,,,magenta,I
0.0,6.0,0.0,1.0,3.0,3.0,369.2616640000778,1.0,1.0,phase_1,,,,,,,,,,,,,orange,circle
1299.0,4.0,4.0,0.0,1.0,1.0,452.3183700002846,1.0,1.0,phase_1,,,,,,,,,,,,,magenta,I
344.0,6.0,1.0,1.0,4.0,4.0,360.1758700001483,1.0,1.0,phase_1,,,,,,,,,,,,,orange,circle
1294.0,4.0,4.0,0.0,3.0,3.0,324.3927640000947,1.0,1.0,phase_1,,,,,,,,,,,,,magenta,I
0.0,8.0,0.0,1.0,2.0,2.0,342.8218929998365,1.0,1.0,phase_1,,,,,,,,,,,,,gray,diamond
322.0,2.0,1.0,0.0,1.0,1.0,341.4946419998159,1.0,1.0,phase_1,,,,,,,,,,,,,cyan,triangle
340.0,6.0,1.0,1.0,2.0,2.0,442.4376079996364,1.0,1.0,phase_1,,,,,,,,,,,,,orange,circle
302.0,2.0,1.0,0.0,4.0,4.0,286.1587520001194,1.0,1.0,phase_1,,,,,,,,,,,,,cyan,triangle
1308.0,4.0,4.0,0.0,2.0,2.0,296.4147180000509,1.0,1.0,phase_1,,,,,,,,,,,,,magenta,I
301.0,2.0,1.0,0.0,2.0,2.0,313.3154980000654,1.0,1.0,phase_1,,,,,,,,,,,,,cyan,triangle
1299.0,8.0,4.0,1.0,3.0,3.0,323.1078059998253,1.0,1.0,phase_1,,,,,,,,,,,,,gray,diamond
168.0,1.0,0.5,0.0,3.0,3.0,350.3136670001368,1.0,1.0,phase_1,,,,,,,,,,,,,green,cross
1277.0,4.0,4.0,0.0,3.0,3.0,332.2743099997751,1.0,1.0,phase_1,,,,,,,,,,,,,magenta,I
1308.0,8.0,4.0,1.0,1.0,1.0,388.1016289997205,1.0,1.0,phase_1,,,,,,,,,,,,,gray,diamond
0.0,6.0,0.0,1.0,4.0,4.0,286.0614950000126,1.0,1.0,phase_1,,,,,,,,,,,,,orange,circle
632.0,7.0,2.0,1.0,4.0,4.0,295.3359699999964,1.0,1.0,phase_1,,,,,,,,,,,,,blue,square
647.0,7.0,2.0,1.0,2.0,2.0,369.0449730002001,1.0,1.0,phase_1,,,,,,,,,,,,,blue,square
1280.0,4.0,4.0,0.0,1.0,1.0,396.9896600001448,1.0,1.0,phase_1,,,,,,,,,,,,,magenta,I
165.0,5.0,0.5,1.0,3.0,3.0,331.4009580003585,1.0,1.0,phase_1,,,,,,,,,,,,,white,flipped triangle
157.0,5.0,0.5,1.0,3.0,3.0,351.555572000052,1.0,1.0,phase_1,,,,,,,,,,,,,white,flipped triangle
166.0,1.0,0.5,0.0,3.0,3.0,341.1540370002512,1.0,1.0,phase_1,,,,,,,,,,,,,green,cross
0.0,6.0,0.0,1.0,4.0,4.0,332.0532329998968,1.0,1.0,phase_1,,,,,,,,,,,,,orange,circle
669.0,7.0,2.0,1.0,4.0,4.0,276.6020629997001,1.0,1.0,phase_1,,,,,,,,,,,,,blue,square
138.0,5.0,0.5,1.0,3.0,3.0,313.8785969999844,1.0,1.0,phase_1,,,,,,,,,,,,,white,flipped triangle
182.0,1.0,0.5,0.0,1.0,1.0,323.1308229997012,1.0,1.0,phase_1,,,,,,,,,,,,,green,cross
1281.0,4.0,4.0,0.0,2.0,2.0,341.7368840000563,1.0,1.0,phase_1,,,,,,,,,,,,,magenta,I
178.0,1.0,0.5,0.0,3.0,3.0,323.606762000054,1.0,1.0,phase_1,,,,,,,,,,,,,green,cross
313.0,2.0,1.0,0.0,2.0,2.0,423.3832149998306,1.0,1.0,phase_1,,,,,,,,,,,,,cyan,triangle
632.0,7.0,2.0,1.0,1.0,1.0,341.9484380001449,1.0,2.0,phase_1,,,,,,,,,,,,,blue,square
165.0,5.0,0.5,1.0,1.0,1.0,323.7773989999368,1.0,1.0,phase_1,,,,,,,,,,,,,white,flipped triangle
0.0,5.0,0.0,1.0,1.0,1.0,295.184111999788,1.0,1.0,phase_1,,,,,,,,,,,,,white,flipped triangle
664.0,7.0,2.0,1.0,3.0,3.0,396.2133770000946,1.0,1.0,phase_1,,,,,,,,,,,,,blue,square
165.0,1.0,0.5,0.0,3.0,3.0,349.8986979998335,1.0,1.0,phase_1,,,,,,,,,,,,,green,cross
632.0,7.0,2.0,1.0,4.0,4.0,324.1142920001039,1.0,1.0,phase_1,,,,,,,,,,,,,blue,square
162.0,5.0,0.5,1.0,3.0,3.0,332.7653830001509,1.0,1.0,phase_1,,,,,,,,,,,,,white,flipped triangle
1308.0,8.0,4.0,1.0,2.0,2.0,304.8002999998971,1.0,1.0,phase_1,,,,,,,,,,,,,gray,diamond
176.0,1.0,0.5,0.0,1.0,1.0,287.1852329999456,1.0,1.0,phase_1,,,,,,,,,,,,,green,cross
644.0,7.0,2.0,1.0,1.0,1.0,369.5316289999937,1.0,1.0,phase_1,,,,,,,,,,,,,blue,square
1284.0,8.0,4.0,1.0,2.0,2.0,424.7539970001526,1.0,1.0,phase_1,,,,,,,,,,,,,gray,diamond
1324.0,4.0,4.0,0.0,3.0,3.0,324.0938839999217,1.0,1.0,phase_1,,,,,,,,,,,,,magenta,I
347.0,2.0,1.0,0.0,1.0,1.0,414.4427219998761,1.0,1.0,phase_1,,,,,,,,,,,,,cyan,triangle
0.0,5.0,0.0,1.0,4.0,4.0,314.1993920003187,1.0,1.0,phase_1,,,,,,,,,,,,,white,flipped triangle
1280.0,8.0,4.0,1.0,3.0,3.0,379.3637560002025,1.0,1.0,phase_1,,,,,,,,,,,,,gray,diamond
0.0,3.0,0.0,0.0,4.0,4.0,323.1906910000361,1.0,1.0,phase_1,,,,,,,,,,,,,yellow,hexagon
184.0,1.0,0.5,0.0,2.0,2.0,406.5213979997679,1.0,1.0,phase_1,,,,,,,,,,,,,green,cross
649.0,7.0,2.0,1.0,1.0,1.0,499.2246040001191,1.0,1.0,phase_1,,,,,,,,,,,,,blue,square
182.0,5.0,0.5,1.0,3.0,3.0,352.3371340002086,1.0,1.0,phase_1,,,,,,,,,,,,,white,flipped triangle
658.0,3.0,2.0,0.0,2.0,2.0,380.6972620000124,1.0,1.0,phase_1,,,,,,,,,,,,,yellow,hexagon
0.0,7.0,0.0,1.0,4.0,4.0,360.0145219998012,1.0,1.0,phase_1,,,,,,,,,,,,,blue,square
315.0,6.0,1.0,1.0,1.0,1.0,324.2443740000453,1.0,1.0,phase_1,,,,,,,,,,,,,orange,circle
310.0,2.0,1.0,0.0,3.0,3.0,315.5446089999714,1.0,1.0,phase_1,,,,,,,,,,,,,cyan,triangle
1299.0,4.0,4.0,0.0,4.0,4.0,406.5930460001254,1.0,1.0,phase_1,,,,,,,,,,,,,magenta,I
345.0,2.0,1.0,0.0,2.0,2.0,323.6644970002089,1.0,1.0,phase_1,,,,,,,,,,,,,cyan,triangle
317.0,2.0,1.0,0.0,3.0,3.0,333.3406870001454,1.0,1.0,phase_1,,,,,,,,,,,,,cyan,triangle
333.0,6.0,1.0,1.0,1.0,1.0,480.362199999945,1.0,1.0,phase_1,,,,,,,,,,,,,orange,circle
1294.0,8.0,4.0,1.0,4.0,4.0,304.6464929998365,1.0,1.0,phase_1,,,,,,,,,,,,,gray,diamond
0.0,3.0,0.0,0.0,4.0,4.0,342.8799859998435,1.0,1.0,phase_1,,,,,,,,,,,,,yellow,hexagon
0.0,5.0,0.0,1.0,3.0,3.0,287.6347709998299,1.0,1.0,phase_1,,,,,,,,,,,,,white,flipped triangle
1320.0,8.0,4.0,1.0,4.0,4.0,344.7708060002696,1.0,1.0,phase_1,,,,,,,,,,,,,gray,diamond
1289.0,4.0,4.0,0.0,1.0,1.0,361.3907630001449,1.0,1.0,phase_1,,,,,,,,,,,,,magenta,I
1298.0,8.0,4.0,1.0,2.0,2.0,333.1449910001538,1.0,1.0,phase_1,,,,,,,,,,,,,gray,diamond
150.0,1.0,0.5,0.0,1.0,1.0,324.4161069997062,1.0,1.0,phase_1,,,,,,,,,,,,,green,cross
0.0,7.0,0.0,1.0,2.0,2.0,379.567235000195,1.0,1.0,phase_1,,,,,,,,,,,,,blue,square
637.0,7.0,2.0,1.0,3.0,3.0,296.2519450002219,1.0,1.0,phase_1,,,,,,,,,,,,,blue,square
179.0,5.0,0.5,1.0,1.0,1.0,304.1999259999102,1.0,1.0,phase_1,,,,,,,,,,,,,white,flipped triangle
0.0,1.0,0.0,0.0,1.0,1.0,359.9716170001557,1.0,1.0,phase_1,,,,,,,,,,,,,green,cross
340.0,2.0,1.0,0.0,2.0,2.0,342.7800539998316,1.0,1.0,phase_1,,,,,,,,,,,,,cyan,triangle
654.0,7.0,2.0,1.0,4.0,4.0,323.9735380002457,1.0,1.0,phase_1,,,,,,,,,,,,,blue,square
178.0,5.0,0.5,1.0,2.0,2.0,407.1433660001275,1.0,1.0,phase_1,,,,,,,,,,,,,white,flipped triangle
301.0,6.0,1.0,1.0,1.0,1.0,332.2300199997698,1.0,1.0,phase_1,,,,,,,,,,,,,orange,circle
626.0,3.0,2.0,0.0,3.0,3.0,350.9092199997212,1.0,1.0,phase_1,,,,,,,,,,,,,yellow,hexagon
0.0,2.0,0.0,0.0,3.0,3.0,396.1444399997162,2.0,1.0,phase_1,,,,,,,,,,,,,cyan,triangle
636.0,7.0,2.0,1.0,2.0,2.0,295.8165820000431,2.0,1.0,phase_1,,,,,,,,,,,,,blue,square
344.0,2.0,1.0,0.0,4.0,4.0,277.8560789997755,2.0,1.0,phase_1,,,,,,,,,,,,,cyan,triangle
1324.0,8.0,4.0,1.0,4.0,4.0,387.03976899978437,2.0,1.0,phase_1,,,,,,,,,,,,,gray,diamond
186.0,5.0,0.5,1.0,4.0,4.0,389.1267990002234,2.0,1.0,phase_1,,,,,,,,,,,,,white,flipped triangle
632.0,3.0,2.0,0.0,1.0,1.0,307.0445549997203,2.0,1.0,phase_1,,,,,,,,,,,,,yellow,hexagon
0.0,3.0,0.0,0.0,1.0,1.0,533.9578719999736,2.0,1.0,phase_1,,,,,,,,,,,,,yellow,hexagon
667.0,3.0,2.0,0.0,4.0,4.0,378.9678359999016,2.0,1.0,phase_1,,,,,,,,,,,,,yellow,hexagon
0.0,6.0,0.0,1.0,3.0,3.0,341.3180460001968,2.0,1.0,phase_1,,,,,,,,,,,,,orange,circle
0.0,7.0,0.0,1.0,4.0,4.0,297.5589870002295,2.0,1.0,phase_1,,,,,,,,,,,,,blue,square
328.0,2.0,1.0,0.0,3.0,3.0,350.6931689998964,2.0,1.0,phase_1,,,,,,,,,,,,,cyan,triangle
1276.0,4.0,4.0,0.0,4.0,4.0,305.6683709996832,2.0,1.0,phase_1,,,,,,,,,,,,,magenta,I
147.0,1.0,0.5,0.0,4.0,4.0,305.1021420001234,2.0,1.0,phase_1,,,,,,,,,,,,,green,cross
1276.0,8.0,4.0,1.0,1.0,1.0,416.5829630001099,2.0,1.0,phase_1,,,,,,,,,,,,,gray,diamond
663.0,7.0,2.0,1.0,4.0,4.0,398.0357339996772,2.0,1.0,phase_1,,,,,,,,,,,,,blue,square
662.0,7.0,2.0,1.0,4.0,4.0,269.3537280001692,2.0,1.0,phase_1,,,,,,,,,,,,,blue,square
1300.0,8.0,4.0,1.0,1.0,1.0,406.1501399996814,2.0,2.0,phase_1,,,,,,,,,,,,,gray,diamond
665.0,3.0,2.0,0.0,2.0,2.0,534.9497379997956,2.0,1.0,phase_1,,,,,,,,,,,,,yellow,hexagon
1315.0,8.0,4.0,1.0,4.0,4.0,332.3010699996302,2.0,1.0,phase_1,,,,,,,,,,,,,gray,diamond
661.0,3.0,2.0,0.0,3.0,3.0,360.0521670000489,2.0,1.0,phase_1,,,,,,,,,,,,,yellow,hexagon
637.0,7.0,2.0,1.0,2.0,2.0,359.6824020000895,2.0,1.0,phase_1,,,,,,,,,,,,,blue,square
0.0,1.0,0.0,0.0,2.0,2.0,351.0268129998621,2.0,1.0,phase_1,,,,,,,,,,,,,green,cross
1283.0,8.0,4.0,1.0,1.0,1.0,518.0302150001808,2.0,1.0,phase_1,,,,,,,,,,,,,gray,diamond
340.0,2.0,1.0,0.0,4.0,4.0,323.3902279998801,2.0,1.0,phase_1,,,,,,,,,,,,,cyan,triangle
178.0,1.0,0.5,0.0,2.0,2.0,296.0250410001208,2.0,1.0,phase_1,,,,,,,,,,,,,green,cross
178.0,1.0,0.5,0.0,4.0,4.0,406.235992999882,2.0,1.0,phase_1,,,,,,,,,,,,,green,cross
176.0,5.0,0.5,1.0,1.0,1.0,415.7813980000355,2.0,2.0,phase_1,,,,,,,,,,,,,white,flipped triangle
334.0,6.0,1.0,1.0,4.0,4.0,426.3407620001089,2.0,1.0,phase_1,,,,,,,,,,,,,orange,circle
179.0,1.0,0.5,0.0,1.0,1.0,576.4017399997101,2.0,1.0,phase_1,,,,,,,,,,,,,green,cross
664.0,3.0,2.0,0.0,3.0,3.0,379.6694429997842,2.0,1.0,phase_1,,,,,,,,,,,,,yellow,hexagon
306.0,2.0,1.0,0.0,1.0,1.0,503.3729570000105,2.0,1.0,phase_1,,,,,,,,,,,,,cyan,triangle
186.0,1.0,0.5,0.0,2.0,2.0,349.936795999838,2.0,1.0,phase_1,,,,,,,,,,,,,green,cross
312.0,6.0,1.0,1.0,4.0,4.0,323.0165090003538,2.0,1.0,phase_1,,,,,,,,,,,,,orange,circle
1320.0,8.0,4.0,1.0,3.0,3.0,383.125605999794,2.0,1.0,phase_1,,,,,,,,,,,,,gray,diamond
651.0,7.0,2.0,1.0,3.0,3.0,353.9155409998784,2.0,1.0,phase_1,,,,,,,,,,,,,blue,square
0.0,7.0,0.0,1.0,4.0,4.0,380.6547239996689,2.0,1.0,phase_1,,,,,,,,,,,,,blue,square
142.0,5.0,0.5,1.0,4.0,4.0,425.8904789999178,2.0,1.0,phase_1,,,,,,,,,,,,,white,flipped triangle
632.0,3.0,2.0,0.0,4.0,4.0,350.6756150000001,2.0,1.0,phase_1,,,,,,,,,,,,,yellow,hexagon
1298.0,8.0,4.0,1.0,4.0,4.0,323.1797349999397,2.0,1.0,phase_1,,,,,,,,,,,,,gray,diamond
317.0,6.0,1.0,1.0,1.0,1.0,508.8079600000128,2.0,1.0,phase_1,,,,,,,,,,,,,orange,circle
0.0,5.0,0.0,1.0,4.0,4.0,351.2427549999302,2.0,1.0,phase_1,,,,,,,,,,,,,white,flipped triangle
668.0,3.0,2.0,0.0,1.0,1.0,359.3721400002323,2.0,1.0,phase_1,,,,,,,,,,,,,yellow,hexagon
339.0,2.0,1.0,0.0,4.0,4.0,305.5851559997791,2.0,1.0,phase_1,,,,,,,,,,,,,cyan,triangle
633.0,7.0,2.0,1.0,4.0,4.0,389.3311860001631,2.0,1.0,phase_1,,,,,,,,,,,,,blue,square
0.0,4.0,0.0,0.0,2.0,2.0,386.7966530001467,2.0,1.0,phase_1,,,,,,,,,,,,,magenta,I
660.0,3.0,2.0,0.0,3.0,3.0,479.9290659998405,2.0,1.0,phase_1,,,,,,,,,,,,,yellow,hexagon
1286.0,4.0,4.0,0.0,2.0,2.0,322.8966220003713,2.0,1.0,phase_1,,,,,,,,,,,,,magenta,I
181.0,5.0,0.5,1.0,2.0,2.0,314.6818469999743,2.0,1.0,phase_1,,,,,,,,,,,,,white,flipped triangle
644.0,3.0,2.0,0.0,2.0,2.0,463.8394720000178,2.0,1.0,phase_1,,,,,,,,,,,,,yellow,hexagon
0.0,7.0,0.0,1.0,1.0,1.0,462.2216170000683,2.0,1.0,phase_1,,,,,,,,,,,,,blue,square
0.0,2.0,0.0,0.0,3.0,3.0,370.6344080001145,2.0,1.0,phase_1,,,,,,,,,,,,,cyan,triangle
169.0,1.0,0.5,0.0,3.0,3.0,361.6158830000131,2.0,1.0,phase_1,,,,,,,,,,,,,green,cross
173.0,5.0,0.5,1.0,2.0,2.0,351.6311469998072,2.0,1.0,phase_1,,,,,,,,,,,,,white,flipped triangle
1321.0,8.0,4.0,1.0,3.0,3.0,369.5509200001652,2.0,1.0,phase_1,,,,,,,,,,,,,gray,diamond
331.0,6.0,1.0,1.0,3.0,3.0,277.1644350000315,2.0,1.0,phase_1,,,,,,,,,,,,,orange,circle
334.0,2.0,1.0,0.0,3.0,3.0,351.2950229996932,2.0,1.0,phase_1,,,,,,,,,,,,,cyan,triangle
319.0,2.0,1.0,0.0,3.0,3.0,313.7001609998151,2.0,1.0,phase_1,,,,,,,,,,,,,cyan,triangle
675.0,7.0,2.0,1.0,3.0,3.0,286.2905309998496,2.0,1.0,phase_1,,,,,,,,,,,,,blue,square
159.0,1.0,0.5,0.0,1.0,1.0,694.7945890001392,2.0,1.0,phase_1,,,,,,,,,,,,,green,cross
1277.0,8.0,4.0,1.0,1.0,1.0,340.8227169998099,2.0,1.0,phase_1,,,,,,,,,,,,,gray,diamond
316.0,2.0,1.0,0.0,2.0,2.0,359.4127910000679,2.0,1.0,phase_1,,,,,,,,,,,,,cyan,triangle
670.0,3.0,2.0,0.0,3.0,3.0,341.6166010001689,2.0,1.0,phase_1,,,,,,,,,,,,,yellow,hexagon
647.0,3.0,2.0,0.0,2.0,2.0,369.4769019998603,2.0,1.0,phase_1,,,,,,,,,,,,,yellow,hexagon
0.0,4.0,0.0,0.0,2.0,2.0,372.2703039998123,2.0,1.0,phase_1,,,,,,,,,,,,,magenta,I
1318.0,8.0,4.0,1.0,2.0,2.0,396.4568920000602,2.0,1.0,phase_1,,,,,,,,,,,,,gray,diamond
148.0,5.0,0.5,1.0,3.0,3.0,340.9320269997806,2.0,1.0,phase_1,,,,,,,,,,,,,white,flipped triangle
0.0,4.0,0.0,0.0,3.0,3.0,358.9511580003091,2.0,1.0,phase_1,,,,,,,,,,,,,magenta,I
0.0,8.0,0.0,1.0,1.0,1.0,406.5631169996777,2.0,1.0,phase_1,,,,,,,,,,,,,gray,diamond
313.0,6.0,1.0,1.0,3.0,3.0,306.2513439999748,2.0,1.0,phase_1,,,,,,,,,,,,,orange,circle
168.0,1.0,0.5,0.0,4.0,4.0,324.0053650001755,2.0,1.0,phase_1,,,,,,,,,,,,,green,cross
156.0,1.0,0.5,0.0,3.0,3.0,332.2421790003318,2.0,1.0,phase_1,,,,,,,,,,,,,green,cross
1291.0,4.0,4.0,0.0,4.0,4.0,359.6596489996955,2.0,1.0,phase_1,,,,,,,,,,,,,magenta,I
342.0,2.0,1.0,0.0,4.0,4.0,361.009720000311,2.0,1.0,phase_1,,,,,,,,,,,,,cyan,triangle
322.0,6.0,1.0,1.0,1.0,1.0,443.9771429997563,2.0,1.0,phase_1,,,,,,,,,,,,,orange,circle
1291.0,8.0,4.0,1.0,2.0,2.0,553.8433440001427,2.0,1.0,phase_1,,,,,,,,,,,,,gray,diamond
0.0,2.0,0.0,0.0,1.0,1.0,508.70881800028656,2.0,1.0,phase_1,,,,,,,,,,,,,cyan,triangle
146.0,1.0,0.5,0.0,2.0,2.0,370.0640730003215,2.0,1.0,phase_1,,,,,,,,,,,,,green,cross
0.0,7.0,0.0,1.0,4.0,4.0,305.6753209998533,2.0,2.0,phase_1,,,,,,,,,,,,,blue,square
338.0,6.0,1.0,1.0,3.0,3.0,399.6992949996638,2.0,1.0,phase_1,,,,,,,,,,,,,orange,circle
0.0,3.0,0.0,0.0,3.0,3.0,490.4635610000696,2.0,1.0,phase_1,,,,,,,,,,,,,yellow,hexagon
0.0,1.0,0.0,0.0,2.0,2.0,342.5013319997561,2.0,1.0,phase_1,,,,,,,,,,,,,green,cross
626.0,7.0,2.0,1.0,1.0,1.0,795.6135539998286,2.0,1.0,phase_1,,,,,,,,,,,,,blue,square
153.0,1.0,0.5,0.0,4.0,4.0,351.0270179999679,2.0,1.0,phase_1,,,,,,,,,,,,,green,cross
633.0,3.0,2.0,0.0,1.0,1.0,499.3721850000838,2.0,1.0,phase_1,,,,,,,,,,,,,yellow,hexagon
328.0,6.0,1.0,1.0,3.0,3.0,351.7293959998824,2.0,1.0,phase_1,,,,,,,,,,,,,orange,circle
322.0,2.0,1.0,0.0,2.0,2.0,435.1589289999538,2.0,1.0,phase_1,,,,,,,,,,,,,cyan,triangle
1320.0,4.0,4.0,0.0,4.0,4.0,416.1604129999432,2.0,1.0,phase_1,,,,,,,,,,,,,magenta,I
0.0,4.0,0.0,0.0,1.0,1.0,379.5220679999147,2.0,1.0,phase_1,,,,,,,,,,,,,magenta,I
175.0,1.0,0.5,0.0,4.0,4.0,379.2081780002263,2.0,1.0,phase_1,,,,,,,,,,,,,green,cross
328.0,6.0,1.0,1.0,2.0,2.0,370.5473029999666,2.0,1.0,phase_1,,,,,,,,,,,,,orange,circle
0.0,3.0,0.0,0.0,3.0,3.0,341.5730980000262,2.0,1.0,phase_1,,,,,,,,,,,,,yellow,hexagon
0.0,1.0,0.0,0.0,4.0,4.0,499.4880190001822,2.0,1.0,phase_1,,,,,,,,,,,,,green,cross
175.0,5.0,0.5,1.0,4.0,4.0,361.3959099998283,2.0,1.0,phase_1,,,,,,,,,,,,,white,flipped triangle
660.0,7.0,2.0,1.0,2.0,2.0,322.9893560001073,2.0,1.0,phase_1,,,,,,,,,,,,,blue,square
1305.0,8.0,4.0,1.0,1.0,1.0,600.2052459998595,2.0,1.0,phase_1,,,,,,,,,,,,,gray,diamond
334.0,6.0,1.0,1.0,2.0,2.0,388.653985000019,2.0,1.0,phase_1,,,,,,,,,,,,,orange,circle
0.0,1.0,0.0,0.0,3.0,3.0,277.1541059996707,2.0,1.0,phase_1,,,,,,,,,,,,,green,cross
173.0,1.0,0.5,0.0,3.0,3.0,415.16038600002497,2.0,1.0,phase_1,,,,,,,,,,,,,green,cross
1287.0,8.0,4.0,1.0,3.0,3.0,407.1340850000524,2.0,1.0,phase_1,,,,,,,,,,,,,gray,diamond
148.0,5.0,0.5,1.0,2.0,2.0,333.1859879999683,2.0,1.0,phase_1,,,,,,,,,,,,,white,flipped triangle
0.0,3.0,0.0,0.0,1.0,1.0,378.5576860000219,3.0,1.0,phase_1,,,,,,,,,,,,,yellow,hexagon
316.0,6.0,1.0,1.0,2.0,2.0,350.3760590001548,3.0,2.0,phase_1,,,,,,,,,,,,,orange,circle
146.0,5.0,0.5,1.0,1.0,1.0,417.9011259998333,3.0,1.0,phase_1,,,,,,,,,,,,,white,flipped triangle
0.0,6.0,0.0,1.0,1.0,1.0,360.4355400002532,3.0,1.0,phase_1,,,,,,,,,,,,,orange,circle
162.0,1.0,0.5,0.0,3.0,3.0,314.8954060002324,3.0,1.0,phase_1,,,,,,,,,,,,,green,cross
338.0,2.0,1.0,0.0,2.0,2.0,350.3719669997736,3.0,1.0,phase_1,,,,,,,,,,,,,cyan,triangle
326.0,6.0,1.0,1.0,3.0,3.0,351.5624729998308,3.0,1.0,phase_1,,,,,,,,,,,,,orange,circle
1301.0,4.0,4.0,0.0,3.0,3.0,344.6451619997788,3.0,1.0,phase_1,,,,,,,,,,,,,magenta,I
654.0,3.0,2.0,0.0,4.0,4.0,427.4029519997384,3.0,1.0,phase_1,,,,,,,,,,,,,yellow,hexagon
1321.0,4.0,4.0,0.0,3.0,3.0,361.9065520001641,3.0,1.0,phase_1,,,,,,,,,,,,,magenta,I
317.0,6.0,1.0,1.0,3.0,3.0,336.0733699996672,3.0,1.0,phase_1,,,,,,,,,,,,,orange,circle
143.0,1.0,0.5,0.0,1.0,1.0,386.7666490000374,3.0,1.0,phase_1,,,,,,,,,,,,,green,cross
0.0,2.0,0.0,0.0,2.0,2.0,389.2357419999825,3.0,1.0,phase_1,,,,,,,,,,,,,cyan,triangle
166.0,5.0,0.5,1.0,1.0,1.0,426.194439000028,3.0,1.0,phase_1,,,,,,,,,,,,,white,flipped triangle
662.0,3.0,2.0,0.0,1.0,1.0,377.7950069998042,3.0,1.0,phase_1,,,,,,,,,,,,,yellow,hexagon
312.0,2.0,1.0,0.0,3.0,3.0,387.6930890000949,3.0,1.0,phase_1,,,,,,,,,,,,,cyan,triangle
1298.0,4.0,4.0,0.0,3.0,3.0,351.0940090000076,3.0,1.0,phase_1,,,,,,,,,,,,,magenta,I
342.0,6.0,1.0,1.0,4.0,4.0,425.709592000203,3.0,1.0,phase_1,,,,,,,,,,,,,orange,circle
632.0,7.0,2.0,1.0,4.0,4.0,351.4680190000945,3.0,1.0,phase_1,,,,,,,,,,,,,blue,square
140.0,1.0,0.5,0.0,4.0,4.0,361.7154529997606,3.0,1.0,phase_1,,,,,,,,,,,,,green,cross
1288.0,8.0,4.0,1.0,4.0,4.0,398.7169000001813,3.0,1.0,phase_1,,,,,,,,,,,,,gray,diamond
1308.0,4.0,4.0,0.0,2.0,2.0,361.8241210001542,3.0,1.0,phase_1,,,,,,,,,,,,,magenta,I
1315.0,4.0,4.0,0.0,1.0,1.0,591.7789479999556,3.0,1.0,phase_1,,,,,,,,,,,,,magenta,I
333.0,2.0,1.0,0.0,1.0,1.0,379.6407400000134,3.0,1.0,phase_1,,,,,,,,,,,,,cyan,triangle
310.0,6.0,1.0,1.0,1.0,1.0,452.7244189998782,3.0,1.0,phase_1,,,,,,,,,,,,,orange,circle
0.0,5.0,0.0,1.0,1.0,1.0,332.483486000001,3.0,1.0,phase_1,,,,,,,,,,,,,white,flipped triangle
344.0,6.0,1.0,1.0,4.0,4.0,353.7015219999375,3.0,1.0,phase_1,,,,,,,,,,,,,orange,circle
331.0,2.0,1.0,0.0,1.0,1.0,471.2232130000302,3.0,1.0,phase_1,,,,,,,,,,,,,cyan,triangle
1300.0,4.0,4.0,0.0,4.0,4.0,406.5297870001814,3.0,1.0,phase_1,,,,,,,,,,,,,magenta,I
306.0,2.0,1.0,0.0,3.0,3.0,406.7768039999464,3.0,1.0,phase_1,,,,,,,,,,,,,cyan,triangle
319.0,6.0,1.0,1.0,4.0,4.0,382.2468470002604,3.0,1.0,phase_1,,,,,,,,,,,,,orange,circle
670.0,7.0,2.0,1.0,1.0,1.0,544.7451459999684,3.0,1.0,phase_1,,,,,,,,,,,,,blue,square
1275.0,8.0,4.0,1.0,4.0,4.0,334.0146640002785,3.0,1.0,phase_1,,,,,,,,,,,,,gray,diamond
328.0,2.0,1.0,0.0,1.0,1.0,426.26305199974007,3.0,1.0,phase_1,,,,,,,,,,,,,cyan,triangle
639.0,7.0,2.0,1.0,4.0,4.0,324.907451999934,3.0,1.0,phase_1,,,,,,,,,,,,,blue,square
1323.0,4.0,4.0,0.0,4.0,4.0,371.0869669998828,3.0,1.0,phase_1,,,,,,,,,,,,,magenta,I
302.0,6.0,1.0,1.0,2.0,2.0,353.5463650000565,3.0,1.0,phase_1,,,,,,,,,,,,,orange,circle
1315.0,8.0,4.0,1.0,2.0,2.0,388.2061510003041,3.0,1.0,phase_1,,,,,,,,,,,,,gray,diamond
169.0,5.0,0.5,1.0,1.0,1.0,452.1607450001284,3.0,1.0,phase_1,,,,,,,,,,,,,white,flipped triangle
1301.0,8.0,4.0,1.0,1.0,1.0,473.4463269996922,3.0,1.0,phase_1,,,,,,,,,,,,,gray,diamond
0.0,7.0,0.0,1.0,4.0,4.0,470.8513779996792,3.0,1.0,phase_1,,,,,,,,,,,,,blue,square
647.0,3.0,2.0,0.0,4.0,4.0,396.4829890001056,3.0,1.0,phase_1,,,,,,,,,,,,,yellow,hexagon
658.0,7.0,2.0,1.0,2.0,2.0,333.1388589999733,3.0,1.0,phase_1,,,,,,,,,,,,,blue,square
0.0,6.0,0.0,1.0,3.0,3.0,378.433460999986,3.0,1.0,phase_1,,,,,,,,,,,,,orange,circle
168.0,5.0,0.5,1.0,2.0,2.0,460.6242230001953,3.0,1.0,phase_1,,,,,,,,,,,,,white,flipped triangle
319.0,2.0,1.0,0.0,1.0,1.0,608.5388689998581,3.0,1.0,phase_1,,,,,,,,,,,,,cyan,triangle
632.0,3.0,2.0,0.0,4.0,4.0,295.9295119999297,3.0,1.0,phase_1,,,,,,,,,,,,,yellow,hexagon
139.0,5.0,0.5,1.0,1.0,1.0,388.2440729998961,3.0,1.0,phase_1,,,,,,,,,,,,,white,flipped triangle
184.0,5.0,0.5,1.0,4.0,4.0,360.862189999807,3.0,1.0,phase_1,,,,,,,,,,,,,white,flipped triangle
1282.0,8.0,4.0,1.0,1.0,1.0,324.4379209995713,3.0,1.0,phase_1,,,,,,,,,,,,,gray,diamond
305.0,2.0,1.0,0.0,4.0,4.0,305.6333660001655,3.0,1.0,phase_1,,,,,,,,,,,,,cyan,triangle
0.0,6.0,0.0,1.0,2.0,2.0,591.3602149998951,3.0,1.0,phase_1,,,,,,,,,,,,,orange,circle
1305.0,4.0,4.0,0.0,4.0,4.0,461.3843790002647,3.0,1.0,phase_1,,,,,,,,,,,,,magenta,I
1310.0,8.0,4.0,1.0,3.0,3.0,557.8088279999065,3.0,1.0,phase_1,,,,,,,,,,,,,gray,diamond
663.0,3.0,2.0,0.0,2.0,2.0,352.0926010000949,3.0,1.0,phase_1,,,,,,,,,,,,,yellow,hexagon
656.0,7.0,2.0,1.0,2.0,2.0,341.1930980000761,3.0,1.0,phase_1,,,,,,,,,,,,,blue,square
669.0,3.0,2.0,0.0,2.0,2.0,313.8515320001716,3.0,1.0,phase_1,,,,,,,,,,,,,yellow,hexagon
656.0,3.0,2.0,0.0,2.0,2.0,341.1039800002982,3.0,1.0,phase_1,,,,,,,,,,,,,yellow,hexagon
0.0,5.0,0.0,1.0,2.0,2.0,333.2163710001623,3.0,1.0,phase_1,,,,,,,,,,,,,white,flipped triangle
338.0,2.0,1.0,0.0,2.0,2.0,361.0224450003443,3.0,1.0,phase_1,,,,,,,,,,,,,cyan,triangle
334.0,2.0,1.0,0.0,2.0,2.0,271.5544140000929,3.0,1.0,phase_1,,,,,,,,,,,,,cyan,triangle
630.0,3.0,2.0,0.0,3.0,3.0,334.2247909999969,3.0,1.0,phase_1,,,,,,,,,,,,,yellow,hexagon
321.0,6.0,1.0,1.0,2.0,2.0,454.4222849999642,3.0,1.0,phase_1,,,,,,,,,,,,,orange,circle
1299.0,8.0,4.0,1.0,2.0,2.0,296.2139360001856,3.0,1.0,phase_1,,,,,,,,,,,,,gray,diamond
0.0,2.0,0.0,0.0,4.0,4.0,371.4595030000964,3.0,1.0,phase_1,,,,,,,,,,,,,cyan,triangle
658.0,3.0,2.0,0.0,4.0,4.0,343.3862960000624,3.0,1.0,phase_1,,,,,,,,,,,,,yellow,hexagon
651.0,3.0,2.0,0.0,2.0,2.0,305.3908810002212,3.0,1.0,phase_1,,,,,,,,,,,,,yellow,hexagon
0.0,2.0,0.0,0.0,2.0,2.0,333.4027730002162,3.0,1.0,phase_1,,,,,,,,,,,,,cyan,triangle
0.0,5.0,0.0,1.0,2.0,2.0,335.6896260002031,3.0,1.0,phase_1,,,,,,,,,,,,,white,flipped triangle
667.0,7.0,2.0,1.0,1.0,1.0,390.2850780000335,3.0,1.0,phase_1,,,,,,,,,,,,,blue,square
1286.0,8.0,4.0,1.0,3.0,3.0,360.4252289997021,3.0,1.0,phase_1,,,,,,,,,,,,,gray,diamond
1321.0,8.0,4.0,1.0,3.0,3.0,380.9260550001454,3.0,1.0,phase_1,,,,,,,,,,,,,gray,diamond
0.0,6.0,0.0,1.0,2.0,2.0,297.2841369996786,3.0,1.0,phase_1,,,,,,,,,,,,,orange,circle
165.0,1.0,0.5,0.0,3.0,3.0,338.0197809997298,3.0,1.0,phase_1,,,,,,,,,,,,,green,cross
165.0,1.0,0.5,0.0,2.0,2.0,345.8271489998878,3.0,1.0,phase_1,,,,,,,,,,,,,green,cross
636.0,3.0,2.0,0.0,4.0,4.0,370.5900189997919,3.0,1.0,phase_1,,,,,,,,,,,,,yellow,hexagon
306.0,6.0,1.0,1.0,3.0,3.0,400.3561949998584,3.0,1.0,phase_1,,,,,,,,,,,,,orange,circle
1311.0,4.0,4.0,0.0,1.0,1.0,518.6247579999872,3.0,1.0,phase_1,,,,,,,,,,,,,magenta,I
0.0,1.0,0.0,0.0,3.0,3.0,632.7032909998707,3.0,1.0,phase_1,,,,,,,,,,,,,green,cross
317.0,2.0,1.0,0.0,1.0,1.0,335.3794580002613,3.0,1.0,phase_1,,,,,,,,,,,,,cyan,triangle
1305.0,4.0,4.0,0.0,2.0,2.0,360.8236029999716,3.0,1.0,phase_1,,,,,,,,,,,,,magenta,I
0.0,2.0,0.0,0.0,2.0,2.0,360.9837730000436,3.0,1.0,phase_1,,,,,,,,,,,,,cyan,triangle
0.0,4.0,0.0,0.0,4.0,4.0,382.3957380000138,3.0,1.0,phase_1,,,,,,,,,,,,,magenta,I
628.0,3.0,2.0,0.0,1.0,1.0,501.14595100012593,3.0,1.0,phase_1,,,,,,,,,,,,,yellow,hexagon
1294.0,4.0,4.0,0.0,3.0,3.0,369.8302940001667,3.0,1.0,phase_1,,,,,,,,,,,,,magenta,I
178.0,5.0,0.5,1.0,3.0,3.0,389.2360820000249,3.0,1.0,phase_1,,,,,,,,,,,,,white,flipped triangle
649.0,7.0,2.0,1.0,3.0,3.0,332.5164210000366,3.0,1.0,phase_1,,,,,,,,,,,,,blue,square
150.0,5.0,0.5,1.0,4.0,4.0,341.1893809998219,3.0,1.0,phase_1,,,,,,,,,,,,,white,flipped triangle
311.0,2.0,1.0,0.0,4.0,4.0,351.8770689997836,3.0,1.0,phase_1,,,,,,,,,,,,,cyan,triangle
340.0,6.0,1.0,1.0,1.0,1.0,390.3902650004056,3.0,1.0,phase_1,,,,,,,,,,,,,orange,circle
348.0,2.0,1.0,0.0,2.0,2.0,221.0476919999564,3.0,2.0,phase_1,,,,,,,,,,,,,cyan,triangle
1281.0,8.0,4.0,1.0,3.0,3.0,332.6067620000685,3.0,1.0,phase_1,,,,,,,,,,,,,gray,diamond
667.0,7.0,2.0,1.0,3.0,3.0,361.3434099997903,3.0,1.0,phase_1,,,,,,,,,,,,,blue,square
0.0,8.0,0.0,1.0,3.0,3.0,343.8010989998474,3.0,1.0,phase_1,,,,,,,,,,,,,gray,diamond
148.0,1.0,0.5,0.0,3.0,3.0,335.748653000337,3.0,1.0,phase_1,,,,,,,,,,,,,green,cross
139.0,1.0,0.5,0.0,2.0,2.0,436.301161999836,3.0,1.0,phase_1,,,,,,,,,,,,,green,cross
0.0,1.0,0.0,0.0,2.0,2.0,353.1414819999554,3.0,1.0,phase_1,,,,,,,,,,,,,green,cross
1315.0,4.0,4.0,0.0,3.0,3.0,315.8633689999988,3.0,1.0,phase_1,,,,,,,,,,,,,magenta,I
0.0,4.0,0.0,0.0,3.0,3.0,353.7348220002059,3.0,1.0,phase_1,,,,,,,,,,,,,magenta,I
159.0,5.0,0.5,1.0,3.0,3.0,345.2268290002394,3.0,1.0,phase_1,,,,,,,,,,,,,white,flipped triangle
672.0,3.0,2.0,0.0,1.0,1.0,462.3231880000276,4.0,1.0,phase_1,,,,,,,,,,,,,yellow,hexagon
0.0,2.0,0.0,0.0,3.0,3.0,323.2780459998139,4.0,1.0,phase_1,,,,,,,,,,,,,cyan,triangle
321.0,6.0,1.0,1.0,2.0,2.0,295.3648479997355,4.0,1.0,phase_1,,,,,,,,,,,,,orange,circle
150.0,1.0,0.5,0.0,1.0,1.0,406.3231420000193,4.0,1.0,phase_1,,,,,,,,,,,,,green,cross
0.0,6.0,0.0,1.0,3.0,3.0,258.5580630002368,4.0,1.0,phase_1,,,,,,,,,,,,,orange,circle
182.0,5.0,0.5,1.0,2.0,2.0,379.4050830001652,4.0,1.0,phase_1,,,,,,,,,,,,,white,flipped triangle
1318.0,4.0,4.0,0.0,1.0,1.0,377.8674939999291,4.0,1.0,phase_1,,,,,,,,,,,,,magenta,I
0.0,6.0,0.0,1.0,3.0,3.0,341.7895610000414,4.0,1.0,phase_1,,,,,,,,,,,,,orange,circle
641.0,3.0,2.0,0.0,1.0,1.0,406.0659920000944,4.0,1.0,phase_1,,,,,,,,,,,,,yellow,hexagon
1284.0,4.0,4.0,0.0,4.0,4.0,369.372088000091,4.0,1.0,phase_1,,,,,,,,,,,,,magenta,I
1323.0,8.0,4.0,1.0,4.0,4.0,379.6028659999138,4.0,1.0,phase_1,,,,,,,,,,,,,gray,diamond
675.0,3.0,2.0,0.0,3.0,3.0,341.9025449998116,4.0,1.0,phase_1,,,,,,,,,,,,,yellow,hexagon
157.0,1.0,0.5,0.0,2.0,2.0,321.9768239996483,4.0,1.0,phase_1,,,,,,,,,,,,,green,cross
670.0,7.0,2.0,1.0,2.0,2.0,304.8777389999486,4.0,1.0,phase_1,,,,,,,,,,,,,blue,square
1307.0,8.0,4.0,1.0,3.0,3.0,315.5900360002306,4.0,1.0,phase_1,,,,,,,,,,,,,gray,diamond
165.0,5.0,0.5,1.0,4.0,4.0,369.0061530001003,4.0,1.0,phase_1,,,,,,,,,,,,,white,flipped triangle
1298.0,4.0,4.0,0.0,2.0,2.0,332.3781190001682,4.0,1.0,phase_1,,,,,,,,,,,,,magenta,I
157.0,5.0,0.5,1.0,4.0,4.0,360.3672659996846,4.0,1.0,phase_1,,,,,,,,,,,,,white,flipped triangle
306.0,6.0,1.0,1.0,4.0,4.0,415.0641760002145,4.0,1.0,phase_1,,,,,,,,,,,,,orange,circle
321.0,2.0,1.0,0.0,1.0,1.0,350.3634759999841,4.0,1.0,phase_1,,,,,,,,,,,,,cyan,triangle
0.0,4.0,0.0,0.0,2.0,2.0,396.2250780000431,4.0,1.0,phase_1,,,,,,,,,,,,,magenta,I
626.0,7.0,2.0,1.0,2.0,2.0,341.6795429998274,4.0,1.0,phase_1,,,,,,,,,,,,,blue,square
0.0,7.0,0.0,1.0,2.0,2.0,322.2887729998547,4.0,1.0,phase_1,,,,,,,,,,,,,blue,square
639.0,3.0,2.0,0.0,1.0,1.0,462.6273220001167,4.0,1.0,phase_1,,,,,,,,,,,,,yellow,hexagon
151.0,5.0,0.5,1.0,1.0,1.0,371.4603470002657,4.0,1.0,phase_1,,,,,,,,,,,,,white,flipped triangle
0.0,3.0,0.0,0.0,4.0,4.0,303.6745229996995,4.0,1.0,phase_1,,,,,,,,,,,,,yellow,hexagon
150.0,5.0,0.5,1.0,3.0,3.0,396.1583860000246,4.0,1.0,phase_1,,,,,,,,,,,,,white,flipped triangle
630.0,7.0,2.0,1.0,2.0,2.0,332.5292270001228,4.0,1.0,phase_1,,,,,,,,,,,,,blue,square
1320.0,4.0,4.0,0.0,2.0,2.0,322.8019149996726,4.0,1.0,phase_1,,,,,,,,,,,,,magenta,I
649.0,3.0,2.0,0.0,3.0,3.0,312.5128469996525,4.0,1.0,phase_1,,,,,,,,,,,,,yellow,hexagon
641.0,3.0,2.0,0.0,2.0,2.0,360.7714280001346,4.0,1.0,phase_1,,,,,,,,,,,,,yellow,hexagon
182.0,1.0,0.5,0.0,2.0,2.0,306.0207469998204,4.0,1.0,phase_1,,,,,,,,,,,,,green,cross
181.0,1.0,0.5,0.0,4.0,4.0,397.443973999998,4.0,1.0,phase_1,,,,,,,,,,,,,green,cross
1311.0,8.0,4.0,1.0,4.0,4.0,360.1340309996885,4.0,1.0,phase_1,,,,,,,,,,,,,gray,diamond
668.0,7.0,2.0,1.0,2.0,2.0,387.6263940001081,4.0,1.0,phase_1,,,,,,,,,,,,,blue,square
178.0,5.0,0.5,1.0,2.0,2.0,314.0589999998155,4.0,1.0,phase_1,,,,,,,,,,,,,white,flipped triangle
0.0,8.0,0.0,1.0,2.0,2.0,359.29775600016,4.0,1.0,phase_1,,,,,,,,,,,,,gray,diamond
626.0,3.0,2.0,0.0,1.0,1.0,563.0869799997527,4.0,1.0,phase_1,,,,,,,,,,,,,yellow,hexagon
138.0,1.0,0.5,0.0,1.0,1.0,379.9320810003337,4.0,1.0,phase_1,,,,,,,,,,,,,green,cross
1282.0,4.0,4.0,0.0,2.0,2.0,445.2464279997912,4.0,1.0,phase_1,,,,,,,,,,,,,magenta,I
151.0,1.0,0.5,0.0,2.0,2.0,379.3840839998665,4.0,1.0,phase_1,,,,,,,,,,,,,green,cross
1323.0,4.0,4.0,0.0,1.0,1.0,333.6229749997983,4.0,1.0,phase_1,,,,,,,,,,,,,magenta,I
637.0,3.0,2.0,0.0,4.0,4.0,351.4976670003307,4.0,1.0,phase_1,,,,,,,,,,,,,yellow,hexagon
647.0,7.0,2.0,1.0,3.0,3.0,378.1688199997006,4.0,1.0,phase_1,,,,,,,,,,,,,blue,square
168.0,5.0,0.5,1.0,2.0,2.0,332.7794100000574,4.0,1.0,phase_1,,,,,,,,,,,,,white,flipped triangle
301.0,6.0,1.0,1.0,4.0,4.0,351.4382839998689,4.0,1.0,phase_1,,,,,,,,,,,,,orange,circle
348.0,6.0,1.0,1.0,2.0,2.0,315.0359579999531,4.0,1.0,phase_1,,,,,,,,,,,,,orange,circle
142.0,1.0,0.5,0.0,1.0,1.0,369.1420979998838,4.0,1.0,phase_1,,,,,,,,,,,,,green,cross
651.0,3.0,2.0,0.0,2.0,2.0,341.7150889999902,4.0,1.0,phase_1,,,,,,,,,,,,,yellow,hexagon
175.0,1.0,0.5,0.0,2.0,2.0,360.2932040002997,4.0,1.0,phase_1,,,,,,,,,,,,,green,cross
152.0,1.0,0.5,0.0,4.0,4.0,277.8493470000285,4.0,2.0,phase_1,,,,,,,,,,,,,green,cross
0.0,1.0,0.0,0.0,3.0,3.0,414.6420029996989,4.0,1.0,phase_1,,,,,,,,,,,,,green,cross
0.0,5.0,0.0,1.0,2.0,2.0,295.777494000049,4.0,1.0,phase_1,,,,,,,,,,,,,white,flipped triangle
0.0,8.0,0.0,1.0,2.0,2.0,377.59409399996,4.0,1.0,phase_1,,,,,,,,,,,,,gray,diamond
0.0,1.0,0.0,0.0,2.0,2.0,377.8341649999674,4.0,1.0,phase_1,,,,,,,,,,,,,green,cross
0.0,8.0,0.0,1.0,4.0,4.0,388.6472519998278,4.0,1.0,phase_1,,,,,,,,,,,,,gray,diamond
0.0,5.0,0.0,1.0,3.0,3.0,332.032524999704,4.0,1.0,phase_1,,,,,,,,,,,,,white,flipped triangle
641.0,7.0,2.0,1.0,1.0,1.0,636.8006410002636,4.0,1.0,phase_1,,,,,,,,,,,,,blue,square
658.0,7.0,2.0,1.0,1.0,1.0,360.874954999872,4.0,1.0,phase_1,,,,,,,,,,,,,blue,square
321.0,2.0,1.0,0.0,4.0,4.0,452.6305849999517,4.0,1.0,phase_1,,,,,,,,,,,,,cyan,triangle
148.0,1.0,0.5,0.0,4.0,4.0,471.1909829998149,4.0,1.0,phase_1,,,,,,,,,,,,,green,cross
308.0,6.0,1.0,1.0,2.0,2.0,351.1498899997605,4.0,1.0,phase_1,,,,,,,,,,,,,orange,circle
308.0,2.0,1.0,0.0,1.0,1.0,472.2109530002853,4.0,1.0,phase_1,,,,,,,,,,,,,cyan,triangle
311.0,6.0,1.0,1.0,1.0,1.0,352.4674039999809,4.0,1.0,phase_1,,,,,,,,,,,,,orange,circle
0.0,2.0,0.0,0.0,2.0,2.0,408.0703529998573,4.0,1.0,phase_1,,,,,,,,,,,,,cyan,triangle
667.0,3.0,2.0,0.0,1.0,1.0,454.608446000293,4.0,1.0,phase_1,,,,,,,,,,,,,yellow,hexagon
1287.0,4.0,4.0,0.0,4.0,4.0,360.4686550002043,4.0,1.0,phase_1,,,,,,,,,,,,,magenta,I
1323.0,8.0,4.0,1.0,1.0,1.0,333.4634220000225,4.0,1.0,phase_1,,,,,,,,,,,,,gray,diamond
341.0,2.0,1.0,0.0,3.0,3.0,352.312867999899,4.0,1.0,phase_1,,,,,,,,,,,,,cyan,triangle
665.0,7.0,2.0,1.0,4.0,4.0,407.0358740000301,4.0,1.0,phase_1,,,,,,,,,,,,,blue,square
0.0,8.0,0.0,1.0,3.0,3.0,424.4674060000761,4.0,1.0,phase_1,,,,,,,,,,,,,gray,diamond
339.0,6.0,1.0,1.0,4.0,4.0,371.2090760000137,4.0,1.0,phase_1,,,,,,,,,,,,,orange,circle
147.0,5.0,0.5,1.0,2.0,2.0,370.2958669996405,4.0,1.0,phase_1,,,,,,,,,,,,,white,flipped triangle
341.0,6.0,1.0,1.0,1.0,1.0,563.2030480001049,4.0,1.0,phase_1,,,,,,,,,,,,,orange,circle
140.0,5.0,0.5,1.0,4.0,4.0,452.3502280003413,4.0,1.0,phase_1,,,,,,,,,,,,,white,flipped triangle
1305.0,8.0,4.0,1.0,4.0,4.0,351.3623420003569,4.0,1.0,phase_1,,,,,,,,,,,,,gray,diamond
175.0,5.0,0.5,1.0,4.0,4.0,258.7589949998801,4.0,2.0,phase_1,,,,,,,,,,,,,white,flipped triangle
149.0,5.0,0.5,1.0,1.0,1.0,387.7472879999004,4.0,1.0,phase_1,,,,,,,,,,,,,white,flipped triangle
157.0,1.0,0.5,0.0,4.0,4.0,332.4108289998548,4.0,1.0,phase_1,,,,,,,,,,,,,green,cross
0.0,2.0,0.0,0.0,1.0,1.0,295.1780449998296,4.0,1.0,phase_1,,,,,,,,,,,,,cyan,triangle
641.0,7.0,2.0,1.0,3.0,3.0,378.0052470001465,4.0,1.0,phase_1,,,,,,,,,,,,,blue,square
0.0,8.0,0.0,1.0,2.0,2.0,332.258475999879,4.0,1.0,phase_1,,,,,,,,,,,,,gray,diamond
315.0,2.0,1.0,0.0,3.0,3.0,351.6637899997477,4.0,1.0,phase_1,,,,,,,,,,,,,cyan,triangle
0.0,3.0,0.0,0.0,2.0,2.0,303.4075750001648,4.0,1.0,phase_1,,,,,,,,,,,,,yellow,hexagon
344.0,2.0,1.0,0.0,3.0,3.0,515.0653290002083,4.0,1.0,phase_1,,,,,,,,,,,,,cyan,triangle
1289.0,8.0,4.0,1.0,1.0,1.0,350.4455160000361,4.0,1.0,phase_1,,,,,,,,,,,,,gray,diamond
1310.0,4.0,4.0,0.0,4.0,4.0,306.7219570002635,4.0,1.0,phase_1,,,,,,,,,,,,,magenta,I
1276.0,8.0,4.0,1.0,2.0,2.0,350.0322959998811,4.0,1.0,phase_1,,,,,,,,,,,,,gray,diamond
0.0,7.0,0.0,1.0,2.0,2.0,351.365024000188,4.0,1.0,phase_1,,,,,,,,,,,,,blue,square
326.0,2.0,1.0,0.0,4.0,4.0,370.1316619999488,4.0,1.0,phase_1,,,,,,,,,,,,,cyan,triangle
156.0,5.0,0.5,1.0,2.0,2.0,371.2841960000332,4.0,1.0,phase_1,,,,,,,,,,,,,white,flipped triangle
651.0,7.0,2.0,1.0,3.0,3.0,350.563473999955,4.0,1.0,phase_1,,,,,,,,,,,,,blue,square
1321.0,4.0,4.0,0.0,3.0,3.0,268.2095160002973,4.0,2.0,phase_1,,,,,,,,,,,,,magenta,I
152.0,5.0,0.5,1.0,1.0,1.0,645.6342289998247,4.0,1.0,phase_1,,,,,,,,,,,,,white,flipped triangle
143.0,5.0,0.5,1.0,3.0,3.0,379.3967810001959,4.0,1.0,phase_1,,,,,,,,,,,,,white,flipped triangle
628.0,7.0,2.0,1.0,1.0,1.0,517.711959999815,4.0,1.0,phase_1,,,,,,,,,,,,,blue,square
637.0,3.0,2.0,0.0,4.0,4.0,378.3324569999422,4.0,1.0,phase_1,,,,,,,,,,,,,yellow,hexagon
0.0,4.0,0.0,0.0,2.0,2.0,322.554656000193,4.0,1.0,phase_1,,,,,,,,,,,,,magenta,I
338.0,6.0,1.0,1.0,2.0,2.0,416.1148240000329,4.0,1.0,phase_1,,,,,,,,,,,,,orange,circle
301.0,2.0,1.0,0.0,4.0,4.0,435.8299559999068,4.0,1.0,phase_1,,,,,,,,,,,,,cyan,triangle
0.0,4.0,4.0,0.0,5.0,5.0,306.261896000251,1.0,1.0,phase_2,go,250.0,250.0,1.0,,,,,,,,,magenta,I
0.0,8.0,4.0,1.0,6.0,0.0,0.0,1.0,1.0,phase_2,stop,250.0,250.0,4.0,,,,,,,,,gray,diamond
0.0,4.0,4.0,0.0,6.0,6.0,419.3774519999351,1.0,1.0,phase_2,go,250.0,300.0,1.0,,,,,,,,,magenta,I
0.0,3.0,2.0,0.0,5.0,5.0,326.2891009999293,1.0,1.0,phase_2,go,250.0,300.0,1.0,,,,,,,,,yellow,hexagon
0.0,5.0,0.5,1.0,6.0,6.0,474.8091280002882,1.0,1.0,phase_2,go,250.0,300.0,1.0,,,,,,,,,white,flipped triangle
0.0,2.0,1.0,0.0,6.0,6.0,519.6750489999431,1.0,1.0,phase_2,go,250.0,300.0,1.0,,,,,,,,,cyan,triangle
0.0,3.0,2.0,0.0,6.0,6.0,459.6124330000748,1.0,1.0,phase_2,go,250.0,300.0,1.0,,,,,,,,,yellow,hexagon
0.0,3.0,2.0,0.0,6.0,6.0,492.6010889998906,1.0,1.0,phase_2,go,250.0,300.0,1.0,,,,,,,,,yellow,hexagon
0.0,2.0,1.0,0.0,5.0,5.0,401.2748000000101,1.0,1.0,phase_2,go,250.0,300.0,1.0,,,,,,,,,cyan,triangle
0.0,2.0,1.0,0.0,5.0,5.0,363.0024399999456,1.0,1.0,phase_2,go,250.0,300.0,1.0,,,,,,,,,cyan,triangle
0.0,8.0,4.0,1.0,6.0,6.0,362.1186300001682,1.0,1.0,phase_2,stop,250.0,300.0,3.0,,,,,,,,,gray,diamond
0.0,2.0,1.0,0.0,5.0,5.0,334.606143000201,1.0,1.0,phase_2,go,250.0,250.0,1.0,,,,,,,,,cyan,triangle
0.0,4.0,4.0,0.0,5.0,5.0,353.7221119995593,1.0,1.0,phase_2,go,250.0,250.0,1.0,,,,,,,,,magenta,I
0.0,7.0,2.0,1.0,6.0,6.0,373.2192719999148,1.0,1.0,phase_2,go,250.0,250.0,1.0,,,,,,,,,blue,square
0.0,6.0,1.0,1.0,5.0,5.0,709.9480120000408,1.0,1.0,phase_2,stop,250.0,250.0,3.0,,,,,,,,,orange,circle
0.0,3.0,2.0,0.0,6.0,6.0,465.5009859998245,1.0,1.0,phase_2,go,200.0,250.0,1.0,,,,,,,,,yellow,hexagon
0.0,4.0,4.0,0.0,6.0,6.0,409.2276549999951,1.0,1.0,phase_2,go,200.0,250.0,1.0,,,,,,,,,magenta,I
0.0,8.0,4.0,1.0,5.0,0.0,0.0,1.0,1.0,phase_2,stop,200.0,250.0,4.0,,,,,,,,,gray,diamond
0.0,1.0,0.5,0.0,5.0,5.0,603.4942209998917,1.0,1.0,phase_2,go,250.0,250.0,1.0,,,,,,,,,green,cross
0.0,7.0,2.0,1.0,6.0,6.0,376.7655130000094,1.0,1.0,phase_2,stop,250.0,250.0,3.0,,,,,,,,,blue,square
0.0,3.0,2.0,0.0,6.0,6.0,614.4160759999977,1.0,1.0,phase_2,go,250.0,200.0,1.0,,,,,,,,,yellow,hexagon
0.0,4.0,4.0,0.0,5.0,5.0,502.0984349998798,1.0,1.0,phase_2,go,250.0,200.0,1.0,,,,,,,,,magenta,I
0.0,8.0,4.0,1.0,5.0,5.0,365.7828410000547,1.0,1.0,phase_2,stop,250.0,200.0,3.0,,,,,,,,,gray,diamond
0.0,1.0,0.5,0.0,6.0,6.0,440.3156609996586,1.0,1.0,phase_2,go,200.0,200.0,1.0,,,,,,,,,green,cross
0.0,7.0,2.0,1.0,6.0,6.0,346.2236049999774,1.0,1.0,phase_2,stop,200.0,200.0,3.0,,,,,,,,,blue,square
0.0,6.0,1.0,1.0,6.0,6.0,527.9346919996897,1.0,1.0,phase_2,go,200.0,150.0,1.0,,,,,,,,,orange,circle
0.0,8.0,4.0,1.0,5.0,5.0,502.71077200022773,1.0,1.0,phase_2,go,200.0,150.0,1.0,,,,,,,,,gray,diamond
0.0,8.0,4.0,1.0,5.0,0.0,0.0,1.0,1.0,phase_2,stop,200.0,150.0,4.0,,,,,,,,,gray,diamond
0.0,6.0,1.0,1.0,5.0,0.0,0.0,1.0,1.0,phase_2,stop,250.0,150.0,4.0,,,,,,,,,orange,circle
0.0,2.0,1.0,0.0,6.0,6.0,414.1694679997272,1.0,1.0,phase_2,go,300.0,150.0,1.0,,,,,,,,,cyan,triangle
0.0,2.0,1.0,0.0,5.0,5.0,531.0746240002118,1.0,1.0,phase_2,go,300.0,150.0,1.0,,,,,,,,,cyan,triangle
0.0,7.0,2.0,1.0,5.0,5.0,466.596754999955,1.0,1.0,phase_2,stop,300.0,150.0,3.0,,,,,,,,,blue,square
0.0,6.0,1.0,1.0,6.0,0.0,0.0,1.0,1.0,phase_2,stop,250.0,150.0,4.0,,,,,,,,,orange,circle
0.0,5.0,0.5,1.0,5.0,0.0,0.0,1.0,1.0,phase_2,stop,250.0,200.0,4.0,,,,,,,,,white,flipped triangle
0.0,2.0,1.0,0.0,6.0,6.0,576.0708660000091,1.0,1.0,phase_2,go,300.0,200.0,1.0,,,,,,,,,cyan,triangle
0.0,4.0,4.0,0.0,6.0,6.0,466.1204869998983,1.0,1.0,phase_2,go,300.0,200.0,1.0,,,,,,,,,magenta,I
0.0,4.0,4.0,0.0,5.0,5.0,602.9939869999907,2.0,1.0,phase_2,go,300.0,200.0,1.0,,,,,,,,,magenta,I
0.0,6.0,1.0,1.0,6.0,0.0,0.0,2.0,1.0,phase_2,stop,300.0,200.0,4.0,,,,,,,,,orange,circle
0.0,6.0,1.0,1.0,6.0,0.0,0.0,2.0,1.0,phase_2,stop,300.0,250.0,4.0,,,,,,,,,orange,circle
0.0,8.0,4.0,1.0,6.0,6.0,381.8004429999746,2.0,1.0,phase_2,go,300.0,300.0,1.0,,,,,,,,,gray,diamond
0.0,7.0,2.0,1.0,6.0,6.0,373.8995250000698,2.0,1.0,phase_2,stop,300.0,300.0,3.0,,,,,,,,,blue,square
0.0,3.0,2.0,0.0,5.0,5.0,445.1538550001714,2.0,1.0,phase_2,go,300.0,250.0,1.0,,,,,,,,,yellow,hexagon
0.0,6.0,1.0,1.0,5.0,0.0,0.0,2.0,1.0,phase_2,stop,300.0,250.0,4.0,,,,,,,,,orange,circle
0.0,5.0,0.5,1.0,6.0,6.0,494.2269130001477,2.0,1.0,phase_2,go,350.0,250.0,1.0,,,,,,,,,white,flipped triangle
0.0,5.0,0.5,1.0,5.0,5.0,438.2339139997384,2.0,1.0,phase_2,go,350.0,250.0,1.0,,,,,,,,,white,flipped triangle
0.0,7.0,2.0,1.0,5.0,5.0,523.7270269999499,2.0,1.0,phase_2,stop,350.0,250.0,3.0,,,,,,,,,blue,square
0.0,7.0,2.0,1.0,5.0,0.0,0.0,2.0,1.0,phase_2,stop,300.0,250.0,4.0,,,,,,,,,blue,square
0.0,1.0,0.5,0.0,5.0,5.0,597.3972240003604,2.0,1.0,phase_2,go,350.0,250.0,1.0,,,,,,,,,green,cross
0.0,3.0,2.0,0.0,5.0,5.0,568.9204479999717,2.0,1.0,phase_2,go,350.0,250.0,1.0,,,,,,,,,yellow,hexagon
0.0,2.0,1.0,0.0,6.0,6.0,538.3861539999089,2.0,1.0,phase_2,go,350.0,250.0,1.0,,,,,,,,,cyan,triangle
0.0,8.0,4.0,1.0,6.0,0.0,0.0,2.0,1.0,phase_2,stop,350.0,250.0,4.0,,,,,,,,,gray,diamond
0.0,4.0,4.0,0.0,6.0,6.0,502.5668480002423,2.0,1.0,phase_2,go,350.0,300.0,1.0,,,,,,,,,magenta,I
0.0,7.0,2.0,1.0,6.0,6.0,399.4765749998805,2.0,1.0,phase_2,go,350.0,300.0,1.0,,,,,,,,,blue,square
0.0,3.0,2.0,0.0,5.0,5.0,511.1866279999049,2.0,1.0,phase_2,go,350.0,300.0,1.0,,,,,,,,,yellow,hexagon
0.0,1.0,0.5,0.0,5.0,5.0,437.1976420002283,2.0,1.0,phase_2,go,350.0,300.0,1.0,,,,,,,,,green,cross
0.0,6.0,1.0,1.0,6.0,6.0,454.1963329997998,2.0,1.0,phase_2,go,350.0,300.0,1.0,,,,,,,,,orange,circle
0.0,2.0,1.0,0.0,6.0,6.0,465.7331680000425,2.0,1.0,phase_2,go,350.0,300.0,1.0,,,,,,,,,cyan,triangle
0.0,6.0,1.0,1.0,5.0,0.0,0.0,2.0,1.0,phase_2,stop,350.0,300.0,4.0,,,,,,,,,orange,circle
0.0,8.0,4.0,1.0,6.0,6.0,399.6629190000931,2.0,1.0,phase_2,stop,400.0,300.0,3.0,,,,,,,,,gray,diamond
0.0,7.0,2.0,1.0,5.0,5.0,516.6639889998805,2.0,1.0,phase_2,stop,400.0,250.0,3.0,,,,,,,,,blue,square
0.0,1.0,0.5,0.0,6.0,6.0,539.0581750002639,2.0,1.0,phase_2,go,350.0,250.0,1.0,,,,,,,,,green,cross
0.0,6.0,1.0,1.0,6.0,6.0,342.8675520003708,2.0,1.0,phase_2,stop,350.0,250.0,3.0,,,,,,,,,orange,circle
0.0,1.0,0.5,0.0,6.0,6.0,633.2338130000608,2.0,1.0,phase_2,go,350.0,200.0,1.0,,,,,,,,,green,cross
0.0,5.0,0.5,1.0,6.0,6.0,380.2297750003163,2.0,1.0,phase_2,stop,350.0,200.0,3.0,,,,,,,,,white,flipped triangle
0.0,6.0,1.0,1.0,5.0,0.0,0.0,2.0,1.0,phase_2,stop,350.0,150.0,4.0,,,,,,,,,orange,circle
0.0,1.0,0.5,0.0,6.0,6.0,716.4431090000107,2.0,1.0,phase_2,go,400.0,150.0,1.0,,,,,,,,,green,cross
0.0,3.0,2.0,0.0,5.0,5.0,606.8913529998099,2.0,1.0,phase_2,go,400.0,150.0,1.0,,,,,,,,,yellow,hexagon
0.0,2.0,1.0,0.0,5.0,5.0,530.5561120003404,2.0,1.0,phase_2,go,400.0,150.0,1.0,,,,,,,,,cyan,triangle
0.0,8.0,4.0,1.0,6.0,0.0,0.0,2.0,1.0,phase_2,stop,400.0,150.0,4.0,,,,,,,,,gray,diamond
0.0,8.0,4.0,1.0,5.0,5.0,449.9764270003652,2.0,1.0,phase_2,stop,400.0,200.0,3.0,,,,,,,,,gray,diamond
0.0,6.0,1.0,1.0,6.0,0.0,0.0,2.0,1.0,phase_2,stop,350.0,200.0,4.0,,,,,,,,,orange,circle
0.0,4.0,4.0,0.0,5.0,5.0,464.882751999994,2.0,1.0,phase_2,go,350.0,250.0,1.0,,,,,,,,,magenta,I
0.0,4.0,4.0,0.0,6.0,6.0,482.0937519998551,3.0,1.0,phase_2,go,350.0,250.0,1.0,,,,,,,,,magenta,I
0.0,4.0,4.0,0.0,5.0,5.0,316.8549930001063,3.0,1.0,phase_2,go,350.0,250.0,1.0,,,,,,,,,magenta,I
0.0,6.0,1.0,1.0,5.0,5.0,448.067956000159,3.0,1.0,phase_2,stop,350.0,250.0,3.0,,,,,,,,,orange,circle
0.0,5.0,0.5,1.0,5.0,5.0,482.9494119999253,3.0,1.0,phase_2,stop,300.0,250.0,3.0,,,,,,,,,white,flipped triangle
0.0,1.0,0.5,0.0,6.0,6.0,529.772082999898,3.0,1.0,phase_2,go,250.0,250.0,1.0,,,,,,,,,green,cross
0.0,2.0,1.0,0.0,6.0,6.0,521.1048830001346,3.0,1.0,phase_2,go,250.0,250.0,1.0,,,,,,,,,cyan,triangle
0.0,6.0,1.0,1.0,5.0,5.0,502.1459549998326,3.0,1.0,phase_2,go,250.0,250.0,1.0,,,,,,,,,orange,circle
0.0,6.0,1.0,1.0,5.0,5.0,365.6446909999431,3.0,1.0,phase_2,stop,250.0,250.0,3.0,,,,,,,,,orange,circle
0.0,4.0,4.0,0.0,5.0,5.0,424.3619899998521,3.0,1.0,phase_2,go,200.0,250.0,1.0,,,,,,,,,magenta,I
0.0,5.0,0.5,1.0,5.0,0.0,0.0,3.0,1.0,phase_2,stop,200.0,250.0,4.0,,,,,,,,,white,flipped triangle
0.0,2.0,1.0,0.0,5.0,5.0,494.5640669998283,3.0,1.0,phase_2,go,250.0,250.0,1.0,,,,,,,,,cyan,triangle
0.0,8.0,4.0,1.0,5.0,0.0,0.0,3.0,1.0,phase_2,stop,250.0,250.0,4.0,,,,,,,,,gray,diamond
0.0,5.0,0.5,1.0,6.0,0.0,0.0,3.0,1.0,phase_2,stop,300.0,250.0,4.0,,,,,,,,,white,flipped triangle
0.0,7.0,2.0,1.0,5.0,0.0,0.0,3.0,1.0,phase_2,stop,300.0,300.0,4.0,,,,,,,,,blue,square
0.0,5.0,0.5,1.0,5.0,5.0,634.2486980001922,3.0,1.0,phase_2,go,350.0,300.0,1.0,,,,,,,,,white,flipped triangle
0.0,6.0,1.0,1.0,6.0,0.0,0.0,3.0,1.0,phase_2,stop,350.0,300.0,4.0,,,,,,,,,orange,circle
0.0,7.0,2.0,1.0,6.0,0.0,0.0,3.0,1.0,phase_2,stop,350.0,350.0,4.0,,,,,,,,,blue,square
0.0,2.0,1.0,0.0,5.0,5.0,429.1030709996448,3.0,1.0,phase_2,go,350.0,400.0,1.0,,,,,,,,,cyan,triangle
0.0,8.0,4.0,1.0,6.0,6.0,390.5943529998694,3.0,1.0,phase_2,stop,350.0,400.0,3.0,,,,,,,,,gray,diamond
0.0,1.0,0.5,0.0,5.0,5.0,661.0193779997644,3.0,1.0,phase_2,go,350.0,350.0,1.0,,,,,,,,,green,cross
0.0,1.0,0.5,0.0,5.0,5.0,344.9099930003285,3.0,1.0,phase_2,go,350.0,350.0,1.0,,,,,,,,,green,cross
0.0,3.0,2.0,0.0,6.0,6.0,324.722126999859,3.0,1.0,phase_2,go,350.0,350.0,1.0,,,,,,,,,yellow,hexagon
0.0,2.0,1.0,0.0,6.0,6.0,337.099785999726,3.0,1.0,phase_2,go,350.0,350.0,1.0,,,,,,,,,cyan,triangle
0.0,3.0,2.0,0.0,6.0,6.0,354.3396929999289,3.0,1.0,phase_2,go,350.0,350.0,1.0,,,,,,,,,yellow,hexagon
0.0,8.0,4.0,1.0,5.0,5.0,487.1476759999495,3.0,1.0,phase_2,stop,350.0,350.0,3.0,,,,,,,,,gray,diamond
0.0,3.0,2.0,0.0,6.0,6.0,522.5761799997599,3.0,1.0,phase_2,go,300.0,350.0,1.0,,,,,,,,,yellow,hexagon
0.0,2.0,1.0,0.0,6.0,6.0,521.5542890000506,3.0,1.0,phase_2,go,300.0,350.0,1.0,,,,,,,,,cyan,triangle
0.0,6.0,1.0,1.0,6.0,0.0,0.0,3.0,1.0,phase_2,stop,300.0,350.0,4.0,,,,,,,,,orange,circle
0.0,5.0,0.5,1.0,5.0,0.0,0.0,3.0,1.0,phase_2,stop,300.0,400.0,4.0,,,,,,,,,white,flipped triangle
0.0,4.0,4.0,0.0,5.0,5.0,533.3660360001886,3.0,1.0,phase_2,go,350.0,400.0,1.0,,,,,,,,,magenta,I
0.0,5.0,0.5,1.0,5.0,5.0,445.924295000168,3.0,1.0,phase_2,stop,350.0,400.0,3.0,,,,,,,,,white,flipped triangle
0.0,3.0,2.0,0.0,5.0,5.0,477.231329999995,3.0,1.0,phase_2,go,300.0,400.0,1.0,,,,,,,,,yellow,hexagon
0.0,1.0,0.5,0.0,5.0,5.0,457.8464000001077,3.0,1.0,phase_2,go,300.0,400.0,1.0,,,,,,,,,green,cross
0.0,4.0,4.0,0.0,6.0,6.0,345.325485000103,3.0,1.0,phase_2,go,300.0,400.0,1.0,,,,,,,,,magenta,I
0.0,1.0,0.5,0.0,5.0,5.0,473.5364600001048,3.0,1.0,phase_2,go,300.0,400.0,1.0,,,,,,,,,green,cross
0.0,8.0,4.0,1.0,6.0,6.0,361.5864929997769,3.0,1.0,phase_2,stop,300.0,400.0,3.0,,,,,,,,,gray,diamond
0.0,7.0,2.0,1.0,6.0,6.0,393.7381959999584,4.0,1.0,phase_2,stop,300.0,350.0,3.0,,,,,,,,,blue,square
0.0,2.0,1.0,0.0,6.0,6.0,326.7357529998662,4.0,1.0,phase_2,go,300.0,300.0,1.0,,,,,,,,,cyan,triangle
0.0,1.0,0.5,0.0,5.0,5.0,288.6410470000555,4.0,1.0,phase_2,go,300.0,300.0,1.0,,,,,,,,,green,cross
0.0,3.0,2.0,0.0,6.0,6.0,315.9652869999263,4.0,1.0,phase_2,go,300.0,300.0,1.0,,,,,,,,,yellow,hexagon
0.0,1.0,0.5,0.0,6.0,6.0,391.8844109998645,4.0,1.0,phase_2,go,300.0,300.0,1.0,,,,,,,,,green,cross
0.0,6.0,1.0,1.0,6.0,6.0,341.3130869998895,4.0,1.0,phase_2,stop,300.0,300.0,3.0,,,,,,,,,orange,circle
0.0,4.0,4.0,0.0,6.0,6.0,402.3247059999448,4.0,1.0,phase_2,go,300.0,250.0,1.0,,,,,,,,,magenta,I
0.0,7.0,2.0,1.0,6.0,6.0,354.1446929998528,4.0,1.0,phase_2,go,300.0,250.0,1.0,,,,,,,,,blue,square
0.0,5.0,0.5,1.0,6.0,6.0,351.8486489997485,4.0,1.0,phase_2,stop,300.0,250.0,3.0,,,,,,,,,white,flipped triangle
0.0,1.0,0.5,0.0,6.0,6.0,432.127013000354,4.0,1.0,phase_2,go,300.0,200.0,1.0,,,,,,,,,green,cross
0.0,7.0,2.0,1.0,5.0,0.0,0.0,4.0,1.0,phase_2,stop,300.0,200.0,4.0,,,,,,,,,blue,square
0.0,3.0,2.0,0.0,5.0,5.0,626.7097719996855,4.0,1.0,phase_2,go,350.0,200.0,1.0,,,,,,,,,yellow,hexagon
0.0,7.0,2.0,1.0,5.0,5.0,414.4076600000517,4.0,1.0,phase_2,stop,350.0,200.0,3.0,,,,,,,,,blue,square
0.0,7.0,2.0,1.0,6.0,0.0,0.0,4.0,1.0,phase_2,stop,300.0,200.0,4.0,,,,,,,,,blue,square
0.0,2.0,1.0,0.0,6.0,6.0,568.5605019998548,4.0,1.0,phase_2,go,300.0,250.0,1.0,,,,,,,,,cyan,triangle
0.0,8.0,4.0,1.0,5.0,5.0,442.2358449996864,4.0,1.0,phase_2,stop,300.0,250.0,3.0,,,,,,,,,gray,diamond
0.0,7.0,2.0,1.0,5.0,0.0,0.0,4.0,1.0,phase_2,stop,250.0,250.0,4.0,,,,,,,,,blue,square
0.0,2.0,1.0,0.0,5.0,5.0,466.8143630001395,4.0,1.0,phase_2,go,300.0,250.0,1.0,,,,,,,,,cyan,triangle
0.0,6.0,1.0,1.0,5.0,0.0,0.0,4.0,1.0,phase_2,stop,300.0,250.0,4.0,,,,,,,,,orange,circle
0.0,5.0,0.5,1.0,6.0,0.0,0.0,4.0,1.0,phase_2,stop,350.0,250.0,4.0,,,,,,,,,white,flipped triangle
0.0,6.0,1.0,1.0,6.0,6.0,511.80240099984076,4.0,1.0,phase_2,stop,350.0,300.0,3.0,,,,,,,,,orange,circle
0.0,8.0,4.0,1.0,5.0,5.0,512.9916450000565,4.0,1.0,phase_2,go,350.0,250.0,1.0,,,,,,,,,gray,diamond
0.0,2.0,1.0,0.0,5.0,5.0,603.5323999999491,4.0,1.0,phase_2,go,350.0,250.0,1.0,,,,,,,,,cyan,triangle
0.0,6.0,1.0,1.0,5.0,5.0,550.6397549997928,4.0,1.0,phase_2,go,350.0,250.0,1.0,,,,,,,,,orange,circle
0.0,1.0,0.5,0.0,5.0,5.0,419.952641999771,4.0,1.0,phase_2,go,350.0,250.0,1.0,,,,,,,,,green,cross
0.0,1.0,0.5,0.0,5.0,5.0,475.6146049999188,4.0,1.0,phase_2,go,350.0,250.0,1.0,,,,,,,,,green,cross
0.0,5.0,0.5,1.0,6.0,0.0,0.0,4.0,1.0,phase_2,stop,350.0,250.0,4.0,,,,,,,,,white,flipped triangle
0.0,2.0,1.0,0.0,6.0,6.0,492.7393789998859,4.0,1.0,phase_2,go,350.0,300.0,1.0,,,,,,,,,cyan,triangle
0.0,3.0,2.0,0.0,5.0,5.0,521.7097539998576,4.0,1.0,phase_2,go,350.0,300.0,1.0,,,,,,,,,yellow,hexagon
0.0,8.0,4.0,1.0,6.0,6.0,484.0255350000007,4.0,1.0,phase_2,stop,350.0,300.0,3.0,,,,,,,,,gray,diamond
0.0,1.0,0.5,0.0,5.0,5.0,447.6867569992464,4.0,1.0,phase_2,go,350.0,250.0,1.0,,,,,,,,,green,cross
0.0,5.0,0.5,1.0,6.0,6.0,372.8026549997594,4.0,1.0,phase_2,go,350.0,250.0,1.0,,,,,,,,,white,flipped triangle
0.0,5.0,0.5,1.0,6.0,0.0,0.0,4.0,1.0,phase_2,stop,350.0,250.0,4.0,,,,,,,,,white,flipped triangle
0.0,4.0,4.0,0.0,5.0,5.0,538.8507259995095,4.0,1.0,phase_2,go,350.0,300.0,1.0,,,,,,,,,magenta,I
0.0,7.0,2.0,1.0,6.0,6.0,435.8759830001872,4.0,1.0,phase_2,stop,350.0,300.0,3.0,,,,,,,,,blue,square
0.0,1.0,0.5,0.0,6.0,6.0,457.6120639994769,4.0,1.0,phase_2,go,350.0,250.0,1.0,,,,,,,,,green,cross
0.0,1.0,0.5,0.0,6.0,6.0,467.6721480000196,5.0,1.0,phase_2,go,350.0,250.0,1.0,,,,,,,,,green,cross
0.0,8.0,4.0,1.0,5.0,5.0,383.6278819999279,5.0,1.0,phase_2,stop,350.0,250.0,3.0,,,,,,,,,gray,diamond
0.0,5.0,0.5,1.0,6.0,6.0,375.092794000011,5.0,1.0,phase_2,stop,300.0,250.0,3.0,,,,,,,,,white,flipped triangle
0.0,4.0,4.0,0.0,5.0,5.0,504.28485500015086,5.0,1.0,phase_2,go,300.0,200.0,1.0,,,,,,,,,magenta,I
0.0,5.0,0.5,1.0,5.0,5.0,390.84347900006827,5.0,1.0,phase_2,stop,300.0,200.0,3.0,,,,,,,,,white,flipped triangle
0.0,6.0,1.0,1.0,6.0,6.0,494.1670749994955,5.0,1.0,phase_2,go,250.0,200.0,1.0,,,,,,,,,orange,circle
0.0,1.0,0.5,0.0,6.0,6.0,437.2190329995646,5.0,1.0,phase_2,go,250.0,200.0,1.0,,,,,,,,,green,cross
0.0,7.0,2.0,1.0,5.0,5.0,392.0671169998968,5.0,1.0,phase_2,go,250.0,200.0,1.0,,,,,,,,,blue,square
0.0,1.0,0.5,0.0,6.0,6.0,297.9395590000422,5.0,1.0,phase_2,go,250.0,200.0,1.0,,,,,,,,,green,cross
0.0,4.0,4.0,0.0,5.0,5.0,409.408534999784,5.0,1.0,phase_2,go,250.0,200.0,1.0,,,,,,,,,magenta,I
0.0,8.0,4.0,1.0,6.0,6.0,344.6430109997891,5.0,1.0,phase_2,go,250.0,200.0,1.0,,,,,,,,,gray,diamond
0.0,6.0,1.0,1.0,6.0,6.0,357.9669969994938,5.0,1.0,phase_2,stop,250.0,200.0,3.0,,,,,,,,,orange,circle
0.0,4.0,4.0,0.0,5.0,5.0,456.5867089995663,5.0,1.0,phase_2,go,250.0,150.0,1.0,,,,,,,,,magenta,I
0.0,5.0,0.5,1.0,5.0,5.0,374.2547599995305,5.0,1.0,phase_2,stop,250.0,150.0,3.0,,,,,,,,,white,flipped triangle
0.0,6.0,1.0,1.0,5.0,0.0,0.0,5.0,1.0,phase_2,stop,200.0,150.0,4.0,,,,,,,,,orange,circle
0.0,2.0,1.0,0.0,5.0,5.0,448.6509299995305,5.0,1.0,phase_2,go,250.0,150.0,1.0,,,,,,,,,cyan,triangle
0.0,2.0,1.0,0.0,5.0,5.0,408.8992300003156,5.0,1.0,phase_2,go,250.0,150.0,1.0,,,,,,,,,cyan,triangle
0.0,4.0,4.0,0.0,5.0,5.0,420.0242910001179,5.0,1.0,phase_2,go,250.0,150.0,1.0,,,,,,,,,magenta,I
0.0,5.0,0.5,1.0,5.0,0.0,0.0,5.0,1.0,phase_2,stop,250.0,150.0,4.0,,,,,,,,,white,flipped triangle
0.0,6.0,1.0,1.0,6.0,6.0,546.8185850004375,5.0,1.0,phase_2,go,300.0,150.0,1.0,,,,,,,,,orange,circle
0.0,5.0,0.5,1.0,5.0,0.0,0.0,5.0,1.0,phase_2,stop,300.0,150.0,4.0,,,,,,,,,white,flipped triangle
0.0,7.0,2.0,1.0,5.0,0.0,0.0,5.0,1.0,phase_2,stop,350.0,150.0,4.0,,,,,,,,,blue,square
0.0,8.0,4.0,1.0,6.0,6.0,550.1832310001191,5.0,1.0,phase_2,go,400.0,150.0,1.0,,,,,,,,,gray,diamond
0.0,3.0,2.0,0.0,6.0,6.0,364.2622010002014,5.0,1.0,phase_2,go,400.0,150.0,1.0,,,,,,,,,yellow,hexagon
0.0,3.0,2.0,0.0,6.0,6.0,399.5968270000958,5.0,1.0,phase_2,go,400.0,150.0,1.0,,,,,,,,,yellow,hexagon
0.0,4.0,4.0,0.0,5.0,5.0,484.6186920003674,5.0,1.0,phase_2,go,400.0,150.0,1.0,,,,,,,,,magenta,I
0.0,5.0,0.5,1.0,6.0,6.0,356.8140819998007,5.0,1.0,phase_2,stop,400.0,150.0,3.0,,,,,,,,,white,flipped triangle
0.0,5.0,0.5,1.0,6.0,6.0,466.0513159997208,5.0,1.0,phase_2,go,400.0,100.0,1.0,,,,,,,,,white,flipped triangle
0.0,8.0,4.0,1.0,5.0,5.0,446.8160449996503,5.0,1.0,phase_2,stop,400.0,100.0,3.0,,,,,,,,,gray,diamond
0.0,8.0,4.0,1.0,5.0,5.0,438.9879770005791,5.0,1.0,phase_2,stop,350.0,100.0,3.0,,,,,,,,,gray,diamond
0.0,3.0,2.0,0.0,5.0,5.0,475.93667000001,5.0,1.0,phase_2,go,300.0,100.0,1.0,,,,,,,,,yellow,hexagon
0.0,4.0,4.0,0.0,6.0,6.0,468.0839180000475,5.0,1.0,phase_2,go,300.0,100.0,1.0,,,,,,,,,magenta,I
0.0,1.0,0.5,0.0,6.0,6.0,373.5880480007836,5.0,1.0,phase_2,go,300.0,100.0,1.0,,,,,,,,,green,cross
0.0,7.0,2.0,1.0,5.0,5.0,431.3838849993772,5.0,1.0,phase_2,stop,300.0,100.0,3.0,,,,,,,,,blue,square
0.0,2.0,1.0,0.0,5.0,5.0,522.2530709997955,5.0,1.0,phase_2,go,250.0,100.0,1.0,,,,,,,,,cyan,triangle
0.0,6.0,1.0,1.0,5.0,5.0,402.2825520005426,5.0,1.0,phase_2,stop,250.0,100.0,3.0,,,,,,,,,orange,circle
0.0,3.0,2.0,0.0,6.0,6.0,420.0895399999353,6.0,1.0,phase_2,go,200.0,100.0,1.0,,,,,,,,,yellow,hexagon
0.0,8.0,4.0,1.0,6.0,0.0,0.0,6.0,1.0,phase_2,stop,200.0,100.0,4.0,,,,,,,,,gray,diamond
0.0,2.0,1.0,0.0,6.0,6.0,488.5574400004771,6.0,1.0,phase_2,go,200.0,150.0,1.0,,,,,,,,,cyan,triangle
0.0,7.0,2.0,1.0,6.0,0.0,0.0,6.0,1.0,phase_2,stop,200.0,150.0,4.0,,,,,,,,,blue,square
0.0,7.0,2.0,1.0,6.0,6.0,576.9169369996234,6.0,1.0,phase_2,go,200.0,200.0,1.0,,,,,,,,,blue,square
0.0,6.0,1.0,1.0,5.0,0.0,0.0,6.0,1.0,phase_2,stop,200.0,200.0,4.0,,,,,,,,,orange,circle
0.0,7.0,2.0,1.0,5.0,5.0,538.7349490001725,6.0,1.0,phase_2,go,250.0,200.0,1.0,,,,,,,,,blue,square
0.0,8.0,4.0,1.0,6.0,0.0,0.0,6.0,1.0,phase_2,stop,250.0,200.0,4.0,,,,,,,,,gray,diamond
0.0,2.0,1.0,0.0,5.0,5.0,539.0970609996657,6.0,1.0,phase_2,go,250.0,250.0,1.0,,,,,,,,,cyan,triangle
0.0,5.0,0.5,1.0,5.0,5.0,437.8395909998289,6.0,1.0,phase_2,go,250.0,250.0,1.0,,,,,,,,,white,flipped triangle
0.0,6.0,1.0,1.0,5.0,0.0,0.0,6.0,1.0,phase_2,stop,250.0,250.0,4.0,,,,,,,,,orange,circle
0.0,5.0,0.5,1.0,6.0,0.0,0.0,6.0,1.0,phase_2,stop,300.0,250.0,4.0,,,,,,,,,white,flipped triangle
0.0,3.0,2.0,0.0,5.0,5.0,623.0407640005069,6.0,1.0,phase_2,go,300.0,300.0,1.0,,,,,,,,,yellow,hexagon
0.0,6.0,1.0,1.0,5.0,5.0,361.3684429992645,6.0,1.0,phase_2,stop,300.0,300.0,3.0,,,,,,,,,orange,circle
0.0,6.0,1.0,1.0,5.0,5.0,446.2289670000245,6.0,1.0,phase_2,go,250.0,300.0,1.0,,,,,,,,,orange,circle
0.0,1.0,0.5,0.0,5.0,5.0,419.4190610005535,6.0,1.0,phase_2,go,250.0,300.0,1.0,,,,,,,,,green,cross
0.0,8.0,4.0,1.0,6.0,6.0,353.9712219999273,6.0,1.0,phase_2,go,250.0,300.0,1.0,,,,,,,,,gray,diamond
0.0,1.0,0.5,0.0,5.0,5.0,392.7806310002779,6.0,1.0,phase_2,go,250.0,300.0,1.0,,,,,,,,,green,cross
0.0,3.0,2.0,0.0,6.0,6.0,316.8044539997936,6.0,1.0,phase_2,go,250.0,300.0,1.0,,,,,,,,,yellow,hexagon
0.0,7.0,2.0,1.0,5.0,5.0,391.3223999998081,6.0,1.0,phase_2,stop,250.0,300.0,3.0,,,,,,,,,blue,square
0.0,7.0,2.0,1.0,5.0,0.0,0.0,6.0,1.0,phase_2,stop,200.0,300.0,4.0,,,,,,,,,blue,square
0.0,1.0,0.5,0.0,5.0,5.0,492.3606969996399,6.0,1.0,phase_2,go,250.0,300.0,1.0,,,,,,,,,green,cross
0.0,1.0,0.5,0.0,6.0,6.0,548.7716949992318,6.0,1.0,phase_2,go,250.0,300.0,1.0,,,,,,,,,green,cross
0.0,7.0,2.0,1.0,6.0,6.0,406.8936209996536,6.0,1.0,phase_2,stop,250.0,300.0,3.0,,,,,,,,,blue,square
0.0,3.0,2.0,0.0,5.0,5.0,553.2333549999748,6.0,1.0,phase_2,go,250.0,250.0,1.0,,,,,,,,,yellow,hexagon
0.0,2.0,1.0,0.0,6.0,6.0,382.4028369999723,6.0,1.0,phase_2,go,250.0,250.0,1.0,,,,,,,,,cyan,triangle
0.0,5.0,0.5,1.0,5.0,0.0,0.0,6.0,1.0,phase_2,stop,250.0,250.0,4.0,,,,,,,,,white,flipped triangle
0.0,6.0,1.0,1.0,6.0,6.0,438.6513429999468,6.0,1.0,phase_2,go,300.0,250.0,1.0,,,,,,,,,orange,circle
0.0,3.0,2.0,0.0,5.0,5.0,492.1766459992795,6.0,1.0,phase_2,go,300.0,250.0,1.0,,,,,,,,,yellow,hexagon
0.0,2.0,1.0,0.0,6.0,6.0,501.6458970003441,6.0,1.0,phase_2,go,300.0,250.0,1.0,,,,,,,,,cyan,triangle
0.0,1.0,0.5,0.0,6.0,6.0,458.3346050003456,6.0,1.0,phase_2,go,300.0,250.0,1.0,,,,,,,,,green,cross
0.0,4.0,4.0,0.0,6.0,6.0,483.5859290005828,6.0,1.0,phase_2,go,300.0,250.0,1.0,,,,,,,,,magenta,I
0.0,4.0,4.0,0.0,6.0,6.0,344.9415630002477,6.0,1.0,phase_2,go,300.0,250.0,1.0,,,,,,,,,magenta,I
0.0,1.0,0.5,0.0,5.0,5.0,465.2270299993688,6.0,1.0,phase_2,go,300.0,250.0,1.0,,,,,,,,,green,cross
0.0,7.0,2.0,1.0,6.0,6.0,335.1489049991869,6.0,1.0,phase_2,stop,300.0,250.0,3.0,,,,,,,,,blue,square
0.0,4.0,4.0,0.0,5.0,5.0,445.8196170007795,6.0,1.0,phase_2,go,300.0,200.0,1.0,,,,,,,,,magenta,I
0.0,4.0,4.0,0.0,6.0,6.0,446.6284589998395,7.0,1.0,phase_2,go,300.0,200.0,1.0,,,,,,,,,magenta,I
0.0,2.0,1.0,0.0,5.0,5.0,373.0831579996447,7.0,1.0,phase_2,go,300.0,200.0,1.0,,,,,,,,,cyan,triangle
0.0,7.0,2.0,1.0,5.0,5.0,316.8139210001754,7.0,1.0,phase_2,go,300.0,200.0,1.0,,,,,,,,,blue,square
0.0,4.0,4.0,0.0,6.0,6.0,334.8143659995912,7.0,1.0,phase_2,go,300.0,200.0,1.0,,,,,,,,,magenta,I
0.0,8.0,4.0,1.0,5.0,5.0,361.9515390000742,7.0,1.0,phase_2,stop,300.0,200.0,3.0,,,,,,,,,gray,diamond
0.0,1.0,0.5,0.0,5.0,5.0,409.2744820000007,7.0,1.0,phase_2,go,250.0,200.0,1.0,,,,,,,,,green,cross
0.0,8.0,4.0,1.0,5.0,5.0,355.0561569991259,7.0,1.0,phase_2,stop,250.0,200.0,3.0,,,,,,,,,gray,diamond
0.0,2.0,1.0,0.0,5.0,5.0,354.0189900004407,7.0,1.0,phase_2,go,200.0,200.0,1.0,,,,,,,,,cyan,triangle
0.0,3.0,2.0,0.0,5.0,5.0,474.6835300002203,7.0,1.0,phase_2,go,200.0,200.0,1.0,,,,,,,,,yellow,hexagon
0.0,5.0,0.5,1.0,6.0,6.0,366.826872999809,7.0,1.0,phase_2,stop,200.0,200.0,3.0,,,,,,,,,white,flipped triangle
0.0,8.0,4.0,1.0,5.0,0.0,0.0,7.0,1.0,phase_2,stop,200.0,150.0,4.0,,,,,,,,,gray,diamond
0.0,6.0,1.0,1.0,6.0,0.0,0.0,7.0,1.0,phase_2,stop,250.0,150.0,4.0,,,,,,,,,orange,circle
0.0,4.0,4.0,0.0,5.0,5.0,436.8563230000291,7.0,1.0,phase_2,go,250.0,200.0,1.0,,,,,,,,,magenta,I
0.0,7.0,2.0,1.0,6.0,6.0,375.0910360004127,7.0,1.0,phase_2,stop,250.0,200.0,3.0,,,,,,,,,blue,square
0.0,8.0,4.0,1.0,6.0,6.0,558.1227379998381,7.0,1.0,phase_2,go,250.0,150.0,1.0,,,,,,,,,gray,diamond
0.0,7.0,2.0,1.0,5.0,5.0,400.9730159996252,7.0,1.0,phase_2,go,250.0,150.0,1.0,,,,,,,,,blue,square
0.0,3.0,2.0,0.0,6.0,6.0,483.264961999339,7.0,1.0,phase_2,go,250.0,150.0,1.0,,,,,,,,,yellow,hexagon
0.0,6.0,1.0,1.0,5.0,5.0,377.38635300047457,7.0,1.0,phase_2,stop,250.0,150.0,3.0,,,,,,,,,orange,circle
0.0,4.0,4.0,0.0,5.0,5.0,455.9208579994447,7.0,1.0,phase_2,go,200.0,150.0,1.0,,,,,,,,,magenta,I
0.0,6.0,1.0,1.0,6.0,0.0,0.0,7.0,1.0,phase_2,stop,200.0,150.0,4.0,,,,,,,,,orange,circle
0.0,7.0,2.0,1.0,6.0,0.0,0.0,7.0,1.0,phase_2,stop,200.0,200.0,4.0,,,,,,,,,blue,square
0.0,3.0,2.0,0.0,5.0,5.0,446.8939700000192,7.0,1.0,phase_2,go,200.0,250.0,1.0,,,,,,,,,yellow,hexagon
0.0,8.0,4.0,1.0,5.0,5.0,474.9579749995973,7.0,1.0,phase_2,go,200.0,250.0,1.0,,,,,,,,,gray,diamond
0.0,2.0,1.0,0.0,6.0,6.0,483.2532219998029,7.0,1.0,phase_2,go,200.0,250.0,1.0,,,,,,,,,cyan,triangle
0.0,6.0,1.0,1.0,6.0,6.0,401.20307300003327,7.0,1.0,phase_2,stop,200.0,250.0,3.0,,,,,,,,,orange,circle
0.0,4.0,4.0,0.0,6.0,6.0,465.709396999955,7.0,1.0,phase_2,go,200.0,200.0,1.0,,,,,,,,,magenta,I
0.0,3.0,2.0,0.0,5.0,5.0,408.4924250000767,7.0,1.0,phase_2,go,200.0,200.0,1.0,,,,,,,,,yellow,hexagon
0.0,5.0,0.5,1.0,6.0,0.0,0.0,7.0,1.0,phase_2,stop,200.0,200.0,4.0,,,,,,,,,white,flipped triangle
0.0,7.0,2.0,1.0,5.0,5.0,493.275851999897,7.0,1.0,phase_2,go,200.0,250.0,1.0,,,,,,,,,blue,square
0.0,2.0,1.0,0.0,6.0,6.0,427.4194679992433,7.0,1.0,phase_2,go,200.0,250.0,1.0,,,,,,,,,cyan,triangle
0.0,8.0,4.0,1.0,5.0,0.0,0.0,7.0,1.0,phase_2,stop,200.0,250.0,4.0,,,,,,,,,gray,diamond
0.0,6.0,1.0,1.0,5.0,5.0,522.2580550007478,7.0,1.0,phase_2,go,250.0,250.0,1.0,,,,,,,,,orange,circle
0.0,1.0,0.5,0.0,5.0,5.0,437.4502119999306,7.0,1.0,phase_2,go,250.0,250.0,1.0,,,,,,,,,green,cross
0.0,8.0,4.0,1.0,6.0,0.0,0.0,7.0,1.0,phase_2,stop,250.0,250.0,4.0,,,,,,,,,gray,diamond
0.0,1.0,0.5,0.0,6.0,6.0,492.7424309998969,7.0,1.0,phase_2,go,250.0,300.0,1.0,,,,,,,,,green,cross
0.0,1.0,0.5,0.0,6.0,6.0,576.891851000255,7.0,1.0,phase_2,go,250.0,300.0,1.0,,,,,,,,,green,cross
0.0,8.0,4.0,1.0,6.0,6.0,377.7090929997939,8.0,1.0,phase_2,stop,250.0,300.0,3.0,,,,,,,,,gray,diamond
0.0,3.0,2.0,0.0,6.0,6.0,363.3009690001927,8.0,1.0,phase_2,go,250.0,250.0,1.0,,,,,,,,,yellow,hexagon
0.0,3.0,2.0,0.0,5.0,5.0,354.0432130002955,8.0,1.0,phase_2,go,250.0,250.0,1.0,,,,,,,,,yellow,hexagon
0.0,4.0,4.0,0.0,6.0,6.0,344.5650319999913,8.0,1.0,phase_2,go,250.0,250.0,1.0,,,,,,,,,magenta,I
0.0,5.0,0.5,1.0,5.0,5.0,336.1077359995761,8.0,1.0,phase_2,stop,250.0,250.0,3.0,,,,,,,,,white,flipped triangle
0.0,4.0,4.0,0.0,6.0,6.0,370.8247510003275,8.0,1.0,phase_2,go,200.0,250.0,1.0,,,,,,,,,magenta,I
0.0,4.0,4.0,0.0,6.0,6.0,391.9733999991877,8.0,1.0,phase_2,go,200.0,250.0,1.0,,,,,,,,,magenta,I
0.0,1.0,0.5,0.0,6.0,6.0,520.6895400006033,8.0,1.0,phase_2,go,200.0,250.0,1.0,,,,,,,,,green,cross
0.0,7.0,2.0,1.0,6.0,6.0,341.1647829998401,8.0,1.0,phase_2,stop,200.0,250.0,3.0,,,,,,,,,blue,square
0.0,4.0,4.0,0.0,5.0,5.0,445.760538000286,8.0,1.0,phase_2,go,200.0,200.0,1.0,,,,,,,,,magenta,I
0.0,1.0,0.5,0.0,6.0,6.0,371.7290360000334,8.0,1.0,phase_2,go,200.0,200.0,1.0,,,,,,,,,green,cross
0.0,8.0,4.0,1.0,6.0,6.0,438.4694219997982,8.0,1.0,phase_2,go,200.0,200.0,1.0,,,,,,,,,gray,diamond
0.0,2.0,1.0,0.0,6.0,6.0,381.3299659996119,8.0,1.0,phase_2,go,200.0,200.0,1.0,,,,,,,,,cyan,triangle
0.0,5.0,0.5,1.0,6.0,0.0,0.0,8.0,1.0,phase_2,stop,200.0,200.0,4.0,,,,,,,,,white,flipped triangle
0.0,5.0,0.5,1.0,5.0,0.0,0.0,8.0,1.0,phase_2,stop,200.0,250.0,4.0,,,,,,,,,white,flipped triangle
0.0,2.0,1.0,0.0,5.0,5.0,429.127071000039,8.0,1.0,phase_2,go,250.0,250.0,1.0,,,,,,,,,cyan,triangle
0.0,5.0,0.5,1.0,6.0,6.0,436.4943629998379,8.0,1.0,phase_2,go,250.0,250.0,1.0,,,,,,,,,white,flipped triangle
0.0,3.0,2.0,0.0,6.0,6.0,521.9764310004393,8.0,1.0,phase_2,go,250.0,250.0,1.0,,,,,,,,,yellow,hexagon
0.0,2.0,1.0,0.0,5.0,5.0,438.6909149998246,8.0,1.0,phase_2,go,250.0,250.0,1.0,,,,,,,,,cyan,triangle
0.0,2.0,1.0,0.0,6.0,6.0,382.3739090003073,8.0,1.0,phase_2,go,250.0,250.0,1.0,,,,,,,,,cyan,triangle
0.0,4.0,4.0,0.0,6.0,6.0,373.9755400001741,8.0,1.0,phase_2,go,250.0,250.0,1.0,,,,,,,,,magenta,I
0.0,8.0,4.0,1.0,5.0,5.0,362.4531779996687,8.0,1.0,phase_2,stop,250.0,250.0,3.0,,,,,,,,,gray,diamond
0.0,2.0,1.0,0.0,5.0,5.0,465.8338489998641,8.0,1.0,phase_2,go,200.0,250.0,1.0,,,,,,,,,cyan,triangle
0.0,1.0,0.5,0.0,5.0,5.0,345.3936030000477,8.0,1.0,phase_2,go,200.0,250.0,1.0,,,,,,,,,green,cross
0.0,3.0,2.0,0.0,6.0,6.0,344.8785050004517,8.0,1.0,phase_2,go,200.0,250.0,1.0,,,,,,,,,yellow,hexagon
0.0,7.0,2.0,1.0,6.0,6.0,353.0239680003433,8.0,1.0,phase_2,stop,200.0,250.0,3.0,,,,,,,,,blue,square
0.0,7.0,2.0,1.0,5.0,0.0,0.0,8.0,1.0,phase_2,stop,200.0,200.0,4.0,,,,,,,,,blue,square
0.0,5.0,0.5,1.0,6.0,6.0,399.7078050006166,8.0,1.0,phase_2,go,250.0,200.0,1.0,,,,,,,,,white,flipped triangle
0.0,4.0,4.0,0.0,6.0,6.0,465.7986259999234,8.0,1.0,phase_2,go,250.0,200.0,1.0,,,,,,,,,magenta,I
0.0,3.0,2.0,0.0,5.0,5.0,485.0759179998931,8.0,1.0,phase_2,go,250.0,200.0,1.0,,,,,,,,,yellow,hexagon
0.0,5.0,0.5,1.0,5.0,0.0,0.0,8.0,1.0,phase_2,stop,250.0,200.0,4.0,,,,,,,,,white,flipped triangle
0.0,3.0,2.0,0.0,6.0,6.0,427.742341999874,8.0,1.0,phase_2,go,300.0,200.0,1.0,,,,,,,,,yellow,hexagon
0.0,5.0,0.5,1.0,5.0,0.0,0.0,8.0,1.0,phase_2,stop,300.0,200.0,4.0,,,,,,,,,white,flipped triangle
0.0,3.0,2.0,0.0,5.0,5.0,493.4850820000065,8.0,1.0,phase_2,go,350.0,200.0,1.0,,,,,,,,,yellow,hexagon
0.0,5.0,0.5,1.0,5.0,5.0,410.2037379998364,8.0,1.0,phase_2,stop,350.0,200.0,3.0,,,,,,,,,white,flipped triangle
0.0,3.0,2.0,0.0,6.0,6.0,465.6719420008812,8.0,1.0,phase_2,go,300.0,200.0,1.0,,,,,,,,,yellow,hexagon
0.0,6.0,1.0,1.0,7.0,3.0,656.7415610006719,1.0,2.0,phase_3,,,,,696.0,6.0,580.0,116.0,696.0,232.0,464.0,348.0,orange,circle
0.0,1.0,0.5,0.0,7.0,1.0,1843.977468000048,1.0,1.0,phase_3,,,,,464.0,4.0,464.0,696.0,580.0,116.0,348.0,232.0,green,cross
0.0,1.0,0.5,0.0,7.0,2.0,2788.6385080000764,1.0,1.0,phase_3,,,,,173.0,1.0,692.0,173.0,519.0,1038.0,865.0,346.0,green,cross
0.0,8.0,4.0,1.0,7.0,2.0,1991.5602989995025,1.0,1.0,phase_3,,,,,346.0,2.0,692.0,346.0,519.0,173.0,865.0,1038.0,gray,diamond
0.0,5.0,0.5,1.0,7.0,5.0,969.2038000002868,1.0,1.0,phase_3,,,,,462.0,3.0,924.0,616.0,154.0,308.0,462.0,770.0,white,flipped triangle
0.0,4.0,4.0,0.0,7.0,6.0,1866.8964039998173,1.0,1.0,phase_3,,,,,384.0,2.0,1152.0,960.0,768.0,192.0,576.0,384.0,magenta,I
0.0,5.0,0.5,1.0,7.0,5.0,1709.8834560001706,1.0,1.0,phase_3,,,,,696.0,6.0,464.0,232.0,580.0,116.0,696.0,348.0,white,flipped triangle
0.0,8.0,4.0,1.0,7.0,3.0,1340.42809300081,1.0,1.0,phase_3,,,,,540.0,4.0,675.0,810.0,540.0,405.0,270.0,135.0,gray,diamond
0.0,4.0,4.0,0.0,7.0,6.0,1620.6823200000144,1.0,1.0,phase_3,,,,,540.0,4.0,135.0,405.0,675.0,270.0,810.0,540.0,magenta,I
0.0,5.0,0.5,1.0,7.0,2.0,1200.07370500025,1.0,1.0,phase_3,,,,,576.0,3.0,768.0,576.0,960.0,1152.0,192.0,384.0,white,flipped triangle
0.0,1.0,0.5,0.0,7.0,5.0,887.2647650005092,1.0,1.0,phase_3,,,,,405.0,3.0,540.0,135.0,270.0,675.0,405.0,810.0,green,cross
0.0,1.0,0.5,0.0,7.0,6.0,1276.612586999363,1.0,1.0,phase_3,,,,,519.0,3.0,173.0,1038.0,692.0,346.0,865.0,519.0,green,cross
0.0,7.0,2.0,1.0,7.0,2.0,1107.6054870000007,1.0,1.0,phase_3,,,,,519.0,3.0,346.0,519.0,692.0,1038.0,173.0,865.0,blue,square
0.0,5.0,0.5,1.0,7.0,4.0,1723.273065000285,1.0,1.0,phase_3,,,,,173.0,1.0,692.0,519.0,346.0,173.0,865.0,1038.0,white,flipped triangle
0.0,8.0,4.0,1.0,7.0,3.0,1024.3267490004655,1.0,1.0,phase_3,,,,,675.0,5.0,135.0,270.0,675.0,405.0,810.0,540.0,gray,diamond
0.0,7.0,2.0,1.0,7.0,1.0,803.4173830001237,1.0,1.0,phase_3,,,,,405.0,3.0,405.0,810.0,540.0,270.0,675.0,135.0,blue,square
0.0,2.0,1.0,0.0,7.0,4.0,1127.57035300001,1.0,1.0,phase_3,,,,,692.0,4.0,1038.0,173.0,346.0,692.0,519.0,865.0,cyan,triangle
0.0,1.0,0.5,0.0,7.0,6.0,657.2977429996172,1.0,1.0,phase_3,,,,,462.0,3.0,924.0,616.0,308.0,154.0,770.0,462.0,green,cross
0.0,2.0,1.0,0.0,7.0,1.0,1039.1963700003544,1.0,1.0,phase_3,,,,,346.0,2.0,346.0,865.0,519.0,173.0,692.0,1038.0,cyan,triangle
0.0,3.0,2.0,0.0,7.0,4.0,915.6524090003586,1.0,1.0,phase_3,,,,,616.0,4.0,154.0,924.0,308.0,616.0,770.0,462.0,yellow,hexagon
0.0,3.0,2.0,0.0,7.0,5.0,922.6238549999836,2.0,1.0,phase_3,,,,,580.0,5.0,464.0,348.0,696.0,232.0,580.0,116.0,yellow,hexagon
0.0,8.0,4.0,1.0,7.0,3.0,913.1613540002944,2.0,1.0,phase_3,,,,,576.0,3.0,384.0,960.0,576.0,192.0,1152.0,768.0,gray,diamond
0.0,5.0,0.5,1.0,7.0,5.0,1267.1535509998648,2.0,1.0,phase_3,,,,,405.0,3.0,135.0,540.0,270.0,810.0,405.0,675.0,white,flipped triangle
0.0,6.0,1.0,1.0,7.0,1.0,672.8588339992712,2.0,1.0,phase_3,,,,,865.0,5.0,865.0,1038.0,173.0,692.0,346.0,519.0,orange,circle
0.0,7.0,2.0,1.0,7.0,6.0,638.9795690001847,2.0,1.0,phase_3,,,,,696.0,6.0,580.0,464.0,232.0,116.0,348.0,696.0,blue,square
0.0,3.0,2.0,0.0,7.0,4.0,1050.98726200049,2.0,1.0,phase_3,,,,,519.0,3.0,692.0,1038.0,346.0,519.0,865.0,173.0,yellow,hexagon
0.0,8.0,4.0,1.0,7.0,2.0,591.5640489993166,2.0,1.0,phase_3,,,,,576.0,3.0,192.0,576.0,768.0,960.0,384.0,1152.0,gray,diamond
0.0,4.0,4.0,0.0,7.0,1.0,1789.8235659995407,2.0,1.0,phase_3,,,,,696.0,6.0,696.0,580.0,232.0,464.0,116.0,348.0,magenta,I
0.0,8.0,4.0,1.0,7.0,1.0,1656.4353039993875,2.0,1.0,phase_3,,,,,770.0,5.0,770.0,924.0,462.0,308.0,154.0,616.0,gray,diamond
0.0,1.0,0.5,0.0,7.0,3.0,1938.8792380004816,2.0,1.0,phase_3,,,,,384.0,2.0,768.0,192.0,384.0,960.0,1152.0,576.0,green,cross
0.0,2.0,1.0,0.0,7.0,5.0,2160.784680000688,2.0,1.0,phase_3,,,,,192.0,1.0,768.0,384.0,576.0,1152.0,192.0,960.0,cyan,triangle
0.0,2.0,1.0,0.0,7.0,1.0,1053.4560619998956,2.0,1.0,phase_3,,,,,135.0,1.0,135.0,405.0,270.0,540.0,675.0,810.0,cyan,triangle
0.0,5.0,0.5,1.0,7.0,2.0,1814.9617440003567,2.0,1.0,phase_3,,,,,384.0,2.0,960.0,384.0,192.0,1152.0,768.0,576.0,white,flipped triangle
0.0,2.0,1.0,0.0,7.0,3.0,879.9944980000873,2.0,1.0,phase_3,,,,,154.0,1.0,462.0,616.0,154.0,308.0,924.0,770.0,cyan,triangle
0.0,6.0,1.0,1.0,7.0,2.0,1415.9843040006308,2.0,1.0,phase_3,,,,,960.0,5.0,768.0,960.0,576.0,1152.0,192.0,384.0,orange,circle
0.0,7.0,2.0,1.0,7.0,6.0,766.0609730000942,2.0,1.0,phase_3,,,,,616.0,4.0,308.0,462.0,770.0,924.0,154.0,616.0,blue,square
0.0,6.0,1.0,1.0,7.0,1.0,1062.0008020005116,2.0,1.0,phase_3,,,,,384.0,2.0,384.0,1152.0,768.0,576.0,960.0,192.0,orange,circle
0.0,7.0,2.0,1.0,7.0,3.0,1739.4997929995952,2.0,1.0,phase_3,,,,,810.0,6.0,540.0,675.0,810.0,405.0,270.0,135.0,blue,square
0.0,8.0,4.0,1.0,7.0,4.0,1117.2603389995857,2.0,1.0,phase_3,,,,,696.0,6.0,464.0,348.0,580.0,696.0,116.0,232.0,gray,diamond
0.0,3.0,2.0,0.0,7.0,4.0,1651.937932000692,2.0,1.0,phase_3,,,,,135.0,1.0,810.0,540.0,270.0,135.0,675.0,405.0,yellow,hexagon
0.0,5.0,0.5,1.0,7.0,5.0,1222.9659550002907,3.0,1.0,phase_3,,,,,540.0,4.0,270.0,675.0,810.0,405.0,540.0,135.0,white,flipped triangle
0.0,2.0,1.0,0.0,7.0,1.0,1200.0404549999075,3.0,1.0,phase_3,,,,,154.0,1.0,154.0,924.0,770.0,462.0,308.0,616.0,cyan,triangle
0.0,3.0,2.0,0.0,7.0,5.0,785.5030099999567,3.0,1.0,phase_3,,,,,768.0,4.0,1152.0,384.0,192.0,960.0,768.0,576.0,yellow,hexagon
0.0,7.0,2.0,1.0,7.0,2.0,979.9551999994948,3.0,1.0,phase_3,,,,,346.0,2.0,692.0,346.0,173.0,519.0,865.0,1038.0,blue,square
0.0,8.0,4.0,1.0,7.0,5.0,2058.7058409992096,3.0,1.0,phase_3,,,,,616.0,4.0,770.0,462.0,308.0,924.0,616.0,154.0,gray,diamond
0.0,6.0,1.0,1.0,7.0,4.0,1451.5854450000916,3.0,1.0,phase_3,,,,,810.0,6.0,135.0,540.0,270.0,810.0,405.0,675.0,orange,circle
0.0,7.0,2.0,1.0,7.0,2.0,1042.3791130006066,3.0,1.0,phase_3,,,,,576.0,3.0,1152.0,576.0,384.0,768.0,960.0,192.0,blue,square
0.0,4.0,4.0,0.0,7.0,5.0,951.9055549999392,3.0,1.0,phase_3,,,,,348.0,3.0,464.0,696.0,580.0,232.0,348.0,116.0,magenta,I
0.0,6.0,1.0,1.0,7.0,6.0,1580.627843000002,3.0,1.0,phase_3,,,,,924.0,6.0,616.0,770.0,308.0,154.0,462.0,924.0,orange,circle
0.0,2.0,1.0,0.0,7.0,2.0,1386.674602999847,3.0,1.0,phase_3,,,,,464.0,4.0,116.0,464.0,696.0,232.0,580.0,348.0,cyan,triangle
0.0,2.0,1.0,0.0,7.0,2.0,601.9247690001066,3.0,1.0,phase_3,,,,,405.0,3.0,540.0,405.0,135.0,270.0,810.0,675.0,cyan,triangle
0.0,4.0,4.0,0.0,7.0,3.0,1336.1404979996223,3.0,1.0,phase_3,,,,,346.0,2.0,519.0,1038.0,346.0,173.0,865.0,692.0,magenta,I
0.0,4.0,4.0,0.0,7.0,4.0,1030.9395180001957,3.0,1.0,phase_3,,,,,308.0,2.0,616.0,154.0,924.0,308.0,462.0,770.0,magenta,I
0.0,3.0,2.0,0.0,7.0,5.0,1806.9630079999115,3.0,1.0,phase_3,,,,,173.0,1.0,865.0,346.0,1038.0,519.0,173.0,692.0,yellow,hexagon
0.0,1.0,0.5,0.0,7.0,6.0,1504.6550639999623,3.0,1.0,phase_3,,,,,405.0,3.0,270.0,540.0,810.0,675.0,135.0,405.0,green,cross
0.0,5.0,0.5,1.0,7.0,1.0,564.2023180007527,3.0,1.0,phase_3,,,,,462.0,3.0,462.0,154.0,308.0,770.0,924.0,616.0,white,flipped triangle
0.0,6.0,1.0,1.0,7.0,6.0,1106.7848969996703,3.0,1.0,phase_3,,,,,1038.0,6.0,865.0,346.0,173.0,692.0,519.0,1038.0,orange,circle
0.0,5.0,0.5,1.0,7.0,2.0,939.4263840003988,3.0,1.0,phase_3,,,,,348.0,3.0,116.0,348.0,696.0,464.0,232.0,580.0,white,flipped triangle
0.0,4.0,4.0,0.0,7.0,1.0,1809.110091000548,3.0,1.0,phase_3,,,,,308.0,2.0,308.0,924.0,616.0,462.0,770.0,154.0,magenta,I
0.0,5.0,0.5,1.0,7.0,2.0,1337.9752729997565,3.0,1.0,phase_3,,,,,173.0,1.0,1038.0,173.0,346.0,865.0,519.0,692.0,white,flipped triangle
0.0,3.0,2.0,0.0,7.0,3.0,1497.059029000411,4.0,1.0,phase_3,,,,,308.0,2.0,154.0,462.0,308.0,770.0,616.0,924.0,yellow,hexagon
0.0,4.0,4.0,0.0,7.0,2.0,993.6298259999604,4.0,1.0,phase_3,,,,,270.0,2.0,810.0,270.0,405.0,540.0,135.0,675.0,magenta,I
0.0,8.0,4.0,1.0,7.0,3.0,1217.3554379996858,4.0,1.0,phase_3,,,,,696.0,6.0,580.0,464.0,696.0,348.0,232.0,116.0,gray,diamond
0.0,3.0,2.0,0.0,7.0,3.0,1409.7692389996157,4.0,1.0,phase_3,,,,,384.0,2.0,1152.0,192.0,384.0,576.0,960.0,768.0,yellow,hexagon
0.0,3.0,2.0,0.0,7.0,4.0,949.3248820008376,4.0,1.0,phase_3,,,,,464.0,4.0,116.0,696.0,580.0,464.0,232.0,348.0,yellow,hexagon
0.0,6.0,1.0,1.0,7.0,5.0,2174.37991099996,4.0,1.0,phase_3,,,,,696.0,6.0,232.0,116.0,348.0,464.0,696.0,580.0,orange,circle
0.0,4.0,4.0,0.0,7.0,6.0,1337.3880540002574,4.0,1.0,phase_3,,,,,384.0,2.0,576.0,1152.0,960.0,192.0,768.0,384.0,magenta,I
0.0,1.0,0.5,0.0,7.0,1.0,1585.3029240006435,4.0,1.0,phase_3,,,,,580.0,5.0,580.0,232.0,696.0,116.0,348.0,464.0,green,cross
0.0,1.0,0.5,0.0,7.0,2.0,948.1340279999132,4.0,1.0,phase_3,,,,,576.0,3.0,1152.0,576.0,192.0,960.0,768.0,384.0,green,cross
0.0,2.0,1.0,0.0,7.0,4.0,1467.0588139997562,4.0,1.0,phase_3,,,,,192.0,1.0,384.0,768.0,960.0,192.0,1152.0,576.0,cyan,triangle
0.0,7.0,2.0,1.0,7.0,3.0,1856.8058600003496,4.0,1.0,phase_3,,,,,384.0,2.0,960.0,1152.0,384.0,768.0,192.0,576.0,blue,square
0.0,4.0,4.0,0.0,7.0,3.0,2039.5526530001007,4.0,1.0,phase_3,,,,,346.0,2.0,519.0,1038.0,346.0,865.0,692.0,173.0,magenta,I
0.0,1.0,0.5,0.0,7.0,2.0,1199.115012999755,4.0,1.0,phase_3,,,,,462.0,3.0,308.0,462.0,924.0,616.0,154.0,770.0,green,cross
0.0,2.0,1.0,0.0,7.0,5.0,720.256242000687,4.0,1.0,phase_3,,,,,232.0,2.0,116.0,696.0,348.0,580.0,232.0,464.0,cyan,triangle
0.0,3.0,2.0,0.0,7.0,6.0,1394.096130999969,4.0,1.0,phase_3,,,,,405.0,3.0,540.0,270.0,810.0,135.0,675.0,405.0,yellow,hexagon
0.0,6.0,1.0,1.0,7.0,6.0,1705.78789999945,4.0,1.0,phase_3,,,,,540.0,4.0,675.0,810.0,270.0,135.0,405.0,540.0,orange,circle
0.0,7.0,2.0,1.0,7.0,1.0,675.2658909999809,4.0,1.0,phase_3,,,,,348.0,3.0,348.0,696.0,232.0,580.0,116.0,464.0,blue,square
0.0,8.0,4.0,1.0,7.0,5.0,1062.330610000572,4.0,1.0,phase_3,,,,,865.0,5.0,519.0,173.0,692.0,1038.0,865.0,346.0,gray,diamond
0.0,6.0,1.0,1.0,7.0,3.0,1196.142210999824,4.0,1.0,phase_3,,,,,924.0,6.0,770.0,308.0,924.0,462.0,154.0,616.0,orange,circle
0.0,7.0,2.0,1.0,7.0,1.0,1272.088237999924,4.0,1.0,phase_3,,,,,924.0,6.0,924.0,308.0,154.0,770.0,462.0,616.0,blue,square
