raw_reward_magnitude,stim_reward,stepwise_reward_magnitude,paired_with_stopping,stim_location,response,reaction_time,block,num_trial_presentations,which_phase,stop_signal_trial_type,left_SSD,right_SSD,accuracy,chosen_bidding_amount,chosen_bidding_level,possible_bid_1,possible_bid_2,possible_bid_3,possible_bid_4,possible_bid_5,possible_bid_6,color_text,shape_text
636.0,7.0,2.0,1.0,3.0,3.0,432.1745859999737,1.0,1.0,phase_1,,,,,,,,,,,,,magenta,hexagon
656.0,3.0,2.0,0.0,3.0,3.0,478.4293369998522,1.0,1.0,phase_1,,,,,,,,,,,,,gray,I
324.0,2.0,1.0,0.0,4.0,4.0,403.2540939999762,1.0,1.0,phase_1,,,,,,,,,,,,,white,flipped triangle
0.0,6.0,0.0,1.0,2.0,2.0,411.0942119998526,1.0,1.0,phase_1,,,,,,,,,,,,,cyan,triangle
661.0,3.0,2.0,0.0,2.0,2.0,458.7661980001485,1.0,1.0,phase_1,,,,,,,,,,,,,gray,I
323.0,2.0,1.0,0.0,4.0,4.0,469.4303759999911,1.0,1.0,phase_1,,,,,,,,,,,,,white,flipped triangle
0.0,8.0,0.0,1.0,4.0,4.0,440.4538320000029,1.0,1.0,phase_1,,,,,,,,,,,,,blue,cross
648.0,7.0,2.0,1.0,1.0,1.0,525.3187120001712,1.0,1.0,phase_1,,,,,,,,,,,,,magenta,hexagon
1282.0,8.0,4.0,1.0,3.0,3.0,459.889363000002,1.0,1.0,phase_1,,,,,,,,,,,,,blue,cross
1318.0,4.0,4.0,0.0,1.0,1.0,582.3519250000118,1.0,1.0,phase_1,,,,,,,,,,,,,yellow,diamond
1302.0,8.0,4.0,1.0,3.0,3.0,534.1209840000829,1.0,1.0,phase_1,,,,,,,,,,,,,blue,cross
142.0,5.0,0.5,1.0,1.0,1.0,787.152449000132,1.0,1.0,phase_1,,,,,,,,,,,,,orange,circle
0.0,7.0,0.0,1.0,3.0,3.0,385.3296260001571,1.0,1.0,phase_1,,,,,,,,,,,,,magenta,hexagon
1303.0,4.0,4.0,0.0,2.0,2.0,739.9409770000602,1.0,1.0,phase_1,,,,,,,,,,,,,yellow,diamond
330.0,6.0,1.0,1.0,4.0,4.0,440.4121580000719,1.0,1.0,phase_1,,,,,,,,,,,,,cyan,triangle
1299.0,8.0,4.0,1.0,1.0,1.0,554.5577970001432,1.0,1.0,phase_1,,,,,,,,,,,,,blue,cross
1275.0,8.0,4.0,1.0,3.0,3.0,422.7658390000215,1.0,1.0,phase_1,,,,,,,,,,,,,blue,cross
1308.0,8.0,4.0,1.0,1.0,1.0,439.8182289999113,1.0,1.0,phase_1,,,,,,,,,,,,,blue,cross
1302.0,4.0,4.0,0.0,1.0,1.0,506.62898700011283,1.0,1.0,phase_1,,,,,,,,,,,,,yellow,diamond
673.0,7.0,2.0,1.0,3.0,3.0,469.596761000048,1.0,1.0,phase_1,,,,,,,,,,,,,magenta,hexagon
1293.0,4.0,4.0,0.0,4.0,4.0,356.4560709999114,1.0,1.0,phase_1,,,,,,,,,,,,,yellow,diamond
341.0,2.0,1.0,0.0,1.0,1.0,636.2677730000996,1.0,1.0,phase_1,,,,,,,,,,,,,white,flipped triangle
649.0,7.0,2.0,1.0,3.0,3.0,328.5699450000265,1.0,1.0,phase_1,,,,,,,,,,,,,magenta,hexagon
661.0,7.0,2.0,1.0,3.0,3.0,403.1499370000801,1.0,1.0,phase_1,,,,,,,,,,,,,magenta,hexagon
1308.0,8.0,4.0,1.0,2.0,2.0,468.675912000208,1.0,1.0,phase_1,,,,,,,,,,,,,blue,cross
0.0,8.0,0.0,1.0,3.0,3.0,412.1036839999306,1.0,1.0,phase_1,,,,,,,,,,,,,blue,cross
642.0,3.0,2.0,0.0,1.0,1.0,617.3896889999924,1.0,1.0,phase_1,,,,,,,,,,,,,gray,I
304.0,6.0,1.0,1.0,2.0,2.0,476.8145020000247,1.0,1.0,phase_1,,,,,,,,,,,,,cyan,triangle
341.0,6.0,1.0,1.0,2.0,2.0,413.1156119999559,1.0,1.0,phase_1,,,,,,,,,,,,,cyan,triangle
631.0,7.0,2.0,1.0,4.0,4.0,457.8494560000763,1.0,1.0,phase_1,,,,,,,,,,,,,magenta,hexagon
315.0,6.0,1.0,1.0,3.0,3.0,347.5550389998716,1.0,1.0,phase_1,,,,,,,,,,,,,cyan,triangle
161.0,5.0,0.5,1.0,4.0,4.0,543.4597620001114,1.0,1.0,phase_1,,,,,,,,,,,,,orange,circle
180.0,5.0,0.5,1.0,2.0,2.0,507.63980800002173,1.0,1.0,phase_1,,,,,,,,,,,,,orange,circle
1303.0,8.0,4.0,1.0,4.0,4.0,441.1141509999652,1.0,1.0,phase_1,,,,,,,,,,,,,blue,cross
645.0,3.0,2.0,0.0,1.0,1.0,590.2548340000067,1.0,1.0,phase_1,,,,,,,,,,,,,gray,I
0.0,5.0,0.0,1.0,4.0,4.0,544.727076999834,1.0,1.0,phase_1,,,,,,,,,,,,,orange,circle
1275.0,4.0,4.0,0.0,2.0,2.0,534.1214160000618,1.0,1.0,phase_1,,,,,,,,,,,,,yellow,diamond
335.0,2.0,1.0,0.0,4.0,4.0,460.5286810001416,1.0,1.0,phase_1,,,,,,,,,,,,,white,flipped triangle
310.0,6.0,1.0,1.0,2.0,2.0,412.8998850001153,1.0,1.0,phase_1,,,,,,,,,,,,,cyan,triangle
1301.0,4.0,4.0,0.0,4.0,4.0,421.5716349999638,1.0,1.0,phase_1,,,,,,,,,,,,,yellow,diamond
336.0,2.0,1.0,0.0,2.0,2.0,496.9042210000225,1.0,1.0,phase_1,,,,,,,,,,,,,white,flipped triangle
322.0,2.0,1.0,0.0,4.0,4.0,367.2454160000598,1.0,1.0,phase_1,,,,,,,,,,,,,white,flipped triangle
653.0,7.0,2.0,1.0,2.0,2.0,487.1505599999182,1.0,1.0,phase_1,,,,,,,,,,,,,magenta,hexagon
310.0,6.0,1.0,1.0,4.0,4.0,327.9201639998064,1.0,1.0,phase_1,,,,,,,,,,,,,cyan,triangle
1294.0,4.0,4.0,0.0,3.0,3.0,413.5283010000421,1.0,1.0,phase_1,,,,,,,,,,,,,yellow,diamond
0.0,6.0,0.0,1.0,1.0,1.0,619.1977670000597,1.0,2.0,phase_1,,,,,,,,,,,,,cyan,triangle
0.0,1.0,0.0,0.0,4.0,4.0,637.7190490002249,1.0,1.0,phase_1,,,,,,,,,,,,,green,square
310.0,2.0,1.0,0.0,3.0,3.0,450.1843689999987,1.0,1.0,phase_1,,,,,,,,,,,,,white,flipped triangle
0.0,6.0,0.0,1.0,2.0,2.0,777.3369590004222,1.0,1.0,phase_1,,,,,,,,,,,,,cyan,triangle
0.0,6.0,0.0,1.0,1.0,1.0,450.8386930001506,1.0,1.0,phase_1,,,,,,,,,,,,,cyan,triangle
0.0,3.0,0.0,0.0,3.0,3.0,517.4086369997895,1.0,1.0,phase_1,,,,,,,,,,,,,gray,I
633.0,3.0,2.0,0.0,4.0,4.0,534.4036999999844,1.0,1.0,phase_1,,,,,,,,,,,,,gray,I
341.0,6.0,1.0,1.0,4.0,4.0,496.7739930002608,1.0,1.0,phase_1,,,,,,,,,,,,,cyan,triangle
0.0,8.0,0.0,1.0,4.0,4.0,450.9411449998879,1.0,1.0,phase_1,,,,,,,,,,,,,blue,cross
665.0,7.0,2.0,1.0,4.0,4.0,393.3297739999943,1.0,1.0,phase_1,,,,,,,,,,,,,magenta,hexagon
1289.0,4.0,4.0,0.0,4.0,4.0,376.4223540001694,1.0,1.0,phase_1,,,,,,,,,,,,,yellow,diamond
0.0,2.0,0.0,0.0,4.0,4.0,403.0048390000047,1.0,1.0,phase_1,,,,,,,,,,,,,white,flipped triangle
152.0,1.0,0.5,0.0,3.0,3.0,442.2578910002812,1.0,1.0,phase_1,,,,,,,,,,,,,green,square
334.0,2.0,1.0,0.0,3.0,3.0,393.3876159999272,1.0,1.0,phase_1,,,,,,,,,,,,,white,flipped triangle
152.0,5.0,0.5,1.0,2.0,2.0,701.904026000193,1.0,1.0,phase_1,,,,,,,,,,,,,orange,circle
167.0,5.0,0.5,1.0,1.0,1.0,730.1946510001471,1.0,1.0,phase_1,,,,,,,,,,,,,orange,circle
309.0,2.0,1.0,0.0,1.0,1.0,581.5233489997809,1.0,1.0,phase_1,,,,,,,,,,,,,white,flipped triangle
177.0,1.0,0.5,0.0,4.0,4.0,458.8675249997322,1.0,1.0,phase_1,,,,,,,,,,,,,green,square
0.0,3.0,0.0,0.0,2.0,2.0,470.0098829998751,1.0,1.0,phase_1,,,,,,,,,,,,,gray,I
302.0,2.0,1.0,0.0,1.0,1.0,600.9365149998303,1.0,1.0,phase_1,,,,,,,,,,,,,white,flipped triangle
348.0,6.0,1.0,1.0,4.0,4.0,346.7724570000428,1.0,1.0,phase_1,,,,,,,,,,,,,cyan,triangle
1322.0,4.0,4.0,0.0,3.0,3.0,413.7982999995984,1.0,1.0,phase_1,,,,,,,,,,,,,yellow,diamond
173.0,5.0,0.5,1.0,3.0,3.0,467.9760960002568,1.0,1.0,phase_1,,,,,,,,,,,,,orange,circle
0.0,1.0,0.0,0.0,1.0,1.0,636.7542230000254,1.0,1.0,phase_1,,,,,,,,,,,,,green,square
663.0,3.0,2.0,0.0,3.0,3.0,457.7220169999236,1.0,1.0,phase_1,,,,,,,,,,,,,gray,I
668.0,7.0,2.0,1.0,2.0,2.0,656.587891000072,1.0,1.0,phase_1,,,,,,,,,,,,,magenta,hexagon
141.0,5.0,0.5,1.0,4.0,4.0,507.99893400017027,1.0,1.0,phase_1,,,,,,,,,,,,,orange,circle
1301.0,8.0,4.0,1.0,1.0,1.0,675.3480180000224,1.0,1.0,phase_1,,,,,,,,,,,,,blue,cross
1294.0,4.0,4.0,0.0,4.0,4.0,542.9071609996754,1.0,1.0,phase_1,,,,,,,,,,,,,yellow,diamond
0.0,2.0,0.0,0.0,1.0,1.0,619.0933679999944,1.0,1.0,phase_1,,,,,,,,,,,,,white,flipped triangle
656.0,3.0,2.0,0.0,2.0,2.0,600.3158369999255,1.0,1.0,phase_1,,,,,,,,,,,,,gray,I
304.0,2.0,1.0,0.0,2.0,2.0,440.1528759999564,1.0,1.0,phase_1,,,,,,,,,,,,,white,flipped triangle
329.0,2.0,1.0,0.0,4.0,4.0,431.5932989998146,1.0,1.0,phase_1,,,,,,,,,,,,,white,flipped triangle
0.0,7.0,0.0,1.0,3.0,3.0,501.80045600018275,1.0,1.0,phase_1,,,,,,,,,,,,,magenta,hexagon
163.0,1.0,0.5,0.0,3.0,3.0,477.9381250000369,1.0,1.0,phase_1,,,,,,,,,,,,,green,square
0.0,1.0,0.0,0.0,4.0,4.0,468.4599820002404,1.0,1.0,phase_1,,,,,,,,,,,,,green,square
310.0,2.0,1.0,0.0,2.0,2.0,563.8175129997762,1.0,1.0,phase_1,,,,,,,,,,,,,white,flipped triangle
0.0,2.0,0.0,0.0,3.0,3.0,470.5350350000117,1.0,1.0,phase_1,,,,,,,,,,,,,white,flipped triangle
666.0,3.0,2.0,0.0,1.0,1.0,722.2198380000009,1.0,1.0,phase_1,,,,,,,,,,,,,gray,I
1294.0,8.0,4.0,1.0,2.0,2.0,657.142007999937,1.0,1.0,phase_1,,,,,,,,,,,,,blue,cross
1275.0,8.0,4.0,1.0,3.0,3.0,440.9596599998622,1.0,1.0,phase_1,,,,,,,,,,,,,blue,cross
1290.0,8.0,4.0,1.0,4.0,4.0,469.5986060000905,1.0,1.0,phase_1,,,,,,,,,,,,,blue,cross
656.0,3.0,2.0,0.0,2.0,2.0,544.2243429997689,1.0,1.0,phase_1,,,,,,,,,,,,,gray,I
1319.0,8.0,4.0,1.0,4.0,4.0,477.2411209996789,1.0,1.0,phase_1,,,,,,,,,,,,,blue,cross
164.0,5.0,0.5,1.0,2.0,2.0,720.9012060002351,1.0,1.0,phase_1,,,,,,,,,,,,,orange,circle
143.0,1.0,0.5,0.0,4.0,4.0,469.80434399984,1.0,1.0,phase_1,,,,,,,,,,,,,green,square
631.0,3.0,2.0,0.0,1.0,1.0,731.1739169999782,1.0,1.0,phase_1,,,,,,,,,,,,,gray,I
308.0,2.0,1.0,0.0,4.0,4.0,543.1735329998446,1.0,1.0,phase_1,,,,,,,,,,,,,white,flipped triangle
140.0,5.0,0.5,1.0,1.0,1.0,525.6222620000699,1.0,1.0,phase_1,,,,,,,,,,,,,orange,circle
666.0,7.0,2.0,1.0,4.0,4.0,486.918837000303,1.0,1.0,phase_1,,,,,,,,,,,,,magenta,hexagon
0.0,1.0,0.0,0.0,4.0,4.0,486.6450089998579,1.0,1.0,phase_1,,,,,,,,,,,,,green,square
661.0,7.0,2.0,1.0,1.0,1.0,505.17946899981325,1.0,1.0,phase_1,,,,,,,,,,,,,magenta,hexagon
168.0,5.0,0.5,1.0,3.0,3.0,431.8010619999768,1.0,1.0,phase_1,,,,,,,,,,,,,orange,circle
312.0,2.0,1.0,0.0,1.0,1.0,900.6175990002703,1.0,1.0,phase_1,,,,,,,,,,,,,white,flipped triangle
329.0,6.0,1.0,1.0,3.0,3.0,469.3784870000854,1.0,1.0,phase_1,,,,,,,,,,,,,cyan,triangle
155.0,5.0,0.5,1.0,1.0,1.0,658.2658719999017,2.0,1.0,phase_1,,,,,,,,,,,,,orange,circle
168.0,1.0,0.5,0.0,1.0,1.0,489.5298520000324,2.0,1.0,phase_1,,,,,,,,,,,,,green,square
1322.0,8.0,4.0,1.0,4.0,4.0,506.340155000089,2.0,1.0,phase_1,,,,,,,,,,,,,blue,cross
1311.0,4.0,4.0,0.0,1.0,1.0,489.1896859999178,2.0,1.0,phase_1,,,,,,,,,,,,,yellow,diamond
0.0,3.0,0.0,0.0,1.0,1.0,441.6255480000473,2.0,1.0,phase_1,,,,,,,,,,,,,gray,I
340.0,6.0,1.0,1.0,2.0,2.0,366.042618999927,2.0,1.0,phase_1,,,,,,,,,,,,,cyan,triangle
0.0,1.0,0.0,0.0,3.0,3.0,412.6005279999845,2.0,1.0,phase_1,,,,,,,,,,,,,green,square
184.0,5.0,0.5,1.0,1.0,1.0,431.7311660001905,2.0,1.0,phase_1,,,,,,,,,,,,,orange,circle
0.0,1.0,0.0,0.0,1.0,1.0,422.6920600003723,2.0,1.0,phase_1,,,,,,,,,,,,,green,square
347.0,2.0,1.0,0.0,4.0,4.0,497.0346869999957,2.0,1.0,phase_1,,,,,,,,,,,,,white,flipped triangle
152.0,5.0,0.5,1.0,2.0,2.0,580.9964599998239,2.0,1.0,phase_1,,,,,,,,,,,,,orange,circle
0.0,4.0,0.0,0.0,4.0,4.0,516.1721220001709,2.0,1.0,phase_1,,,,,,,,,,,,,yellow,diamond
322.0,6.0,1.0,1.0,3.0,3.0,460.9382979997463,2.0,1.0,phase_1,,,,,,,,,,,,,cyan,triangle
319.0,6.0,1.0,1.0,3.0,3.0,459.7306659998139,2.0,1.0,phase_1,,,,,,,,,,,,,cyan,triangle
1311.0,8.0,4.0,1.0,3.0,3.0,423.8797860002705,2.0,1.0,phase_1,,,,,,,,,,,,,blue,cross
666.0,3.0,2.0,0.0,3.0,3.0,459.8114340001302,2.0,1.0,phase_1,,,,,,,,,,,,,gray,I
0.0,5.0,0.0,1.0,2.0,2.0,367.086110999935,2.0,1.0,phase_1,,,,,,,,,,,,,orange,circle
312.0,6.0,1.0,1.0,2.0,2.0,413.5099710001668,2.0,1.0,phase_1,,,,,,,,,,,,,cyan,triangle
627.0,3.0,2.0,0.0,3.0,3.0,394.3119069999738,2.0,1.0,phase_1,,,,,,,,,,,,,gray,I
183.0,1.0,0.5,0.0,2.0,2.0,413.4542070000861,2.0,1.0,phase_1,,,,,,,,,,,,,green,square
626.0,7.0,2.0,1.0,2.0,2.0,450.7068400002936,2.0,1.0,phase_1,,,,,,,,,,,,,magenta,hexagon
0.0,3.0,0.0,0.0,4.0,4.0,479.1777509999519,2.0,1.0,phase_1,,,,,,,,,,,,,gray,I
0.0,8.0,0.0,1.0,2.0,2.0,468.4865019999051,2.0,1.0,phase_1,,,,,,,,,,,,,blue,cross
648.0,7.0,2.0,1.0,3.0,3.0,394.4692339996436,2.0,1.0,phase_1,,,,,,,,,,,,,magenta,hexagon
152.0,1.0,0.5,0.0,3.0,3.0,383.9039240001511,2.0,1.0,phase_1,,,,,,,,,,,,,green,square
648.0,3.0,2.0,0.0,1.0,1.0,441.8965709996882,2.0,1.0,phase_1,,,,,,,,,,,,,gray,I
666.0,7.0,2.0,1.0,3.0,3.0,319.763380999575,2.0,1.0,phase_1,,,,,,,,,,,,,magenta,hexagon
1275.0,4.0,4.0,0.0,3.0,3.0,364.59686799980767,2.0,1.0,phase_1,,,,,,,,,,,,,yellow,diamond
185.0,5.0,0.5,1.0,4.0,4.0,422.306633000062,2.0,1.0,phase_1,,,,,,,,,,,,,orange,circle
147.0,1.0,0.5,0.0,4.0,4.0,403.9236389999132,2.0,1.0,phase_1,,,,,,,,,,,,,green,square
1280.0,8.0,4.0,1.0,4.0,4.0,336.9169640000109,2.0,1.0,phase_1,,,,,,,,,,,,,blue,cross
1295.0,4.0,4.0,0.0,4.0,4.0,488.2178389998444,2.0,1.0,phase_1,,,,,,,,,,,,,yellow,diamond
0.0,7.0,0.0,1.0,3.0,3.0,403.8595129995883,2.0,1.0,phase_1,,,,,,,,,,,,,magenta,hexagon
651.0,3.0,2.0,0.0,3.0,3.0,376.4319160000013,2.0,1.0,phase_1,,,,,,,,,,,,,gray,I
313.0,2.0,1.0,0.0,3.0,3.0,525.6417189998501,2.0,1.0,phase_1,,,,,,,,,,,,,white,flipped triangle
348.0,2.0,1.0,0.0,1.0,1.0,415.0827190001109,2.0,1.0,phase_1,,,,,,,,,,,,,white,flipped triangle
1309.0,4.0,4.0,0.0,1.0,1.0,413.1319390003227,2.0,1.0,phase_1,,,,,,,,,,,,,yellow,diamond
636.0,3.0,2.0,0.0,2.0,2.0,469.8642409998683,2.0,1.0,phase_1,,,,,,,,,,,,,gray,I
167.0,1.0,0.5,0.0,2.0,2.0,375.7941909998408,2.0,1.0,phase_1,,,,,,,,,,,,,green,square
651.0,7.0,2.0,1.0,2.0,2.0,393.9707449999332,2.0,1.0,phase_1,,,,,,,,,,,,,magenta,hexagon
185.0,1.0,0.5,0.0,2.0,2.0,281.3428650001697,2.0,1.0,phase_1,,,,,,,,,,,,,green,square
670.0,7.0,2.0,1.0,4.0,4.0,515.9640619999664,2.0,1.0,phase_1,,,,,,,,,,,,,magenta,hexagon
1276.0,8.0,4.0,1.0,1.0,1.0,470.0259969999933,2.0,1.0,phase_1,,,,,,,,,,,,,blue,cross
157.0,5.0,0.5,1.0,4.0,4.0,469.4239270002072,2.0,1.0,phase_1,,,,,,,,,,,,,orange,circle
142.0,1.0,0.5,0.0,4.0,4.0,338.6757140001464,2.0,1.0,phase_1,,,,,,,,,,,,,green,square
636.0,7.0,2.0,1.0,3.0,3.0,338.0010599998968,2.0,1.0,phase_1,,,,,,,,,,,,,magenta,hexagon
319.0,2.0,1.0,0.0,3.0,3.0,348.2067930003722,2.0,1.0,phase_1,,,,,,,,,,,,,white,flipped triangle
308.0,6.0,1.0,1.0,1.0,1.0,408.0891189996691,2.0,1.0,phase_1,,,,,,,,,,,,,cyan,triangle
673.0,3.0,2.0,0.0,4.0,4.0,403.2696389999728,2.0,1.0,phase_1,,,,,,,,,,,,,gray,I
138.0,1.0,0.5,0.0,1.0,1.0,450.3234620001421,2.0,1.0,phase_1,,,,,,,,,,,,,green,square
641.0,7.0,2.0,1.0,4.0,4.0,366.4298290000261,2.0,1.0,phase_1,,,,,,,,,,,,,magenta,hexagon
1301.0,4.0,4.0,0.0,1.0,1.0,441.1762280001312,2.0,1.0,phase_1,,,,,,,,,,,,,yellow,diamond
0.0,4.0,0.0,0.0,4.0,4.0,291.2691229998927,2.0,1.0,phase_1,,,,,,,,,,,,,yellow,diamond
340.0,2.0,1.0,0.0,2.0,2.0,365.6000679998215,2.0,1.0,phase_1,,,,,,,,,,,,,white,flipped triangle
158.0,5.0,0.5,1.0,3.0,3.0,346.4315059995897,2.0,1.0,phase_1,,,,,,,,,,,,,orange,circle
317.0,2.0,1.0,0.0,1.0,1.0,402.1039000003839,2.0,1.0,phase_1,,,,,,,,,,,,,white,flipped triangle
0.0,5.0,0.0,1.0,4.0,4.0,357.7393400000801,2.0,1.0,phase_1,,,,,,,,,,,,,orange,circle
330.0,2.0,1.0,0.0,3.0,3.0,310.6022420001864,2.0,1.0,phase_1,,,,,,,,,,,,,white,flipped triangle
316.0,6.0,1.0,1.0,2.0,2.0,347.5284870000905,2.0,1.0,phase_1,,,,,,,,,,,,,cyan,triangle
1290.0,4.0,4.0,0.0,3.0,3.0,384.9204520001876,2.0,1.0,phase_1,,,,,,,,,,,,,yellow,diamond
0.0,8.0,0.0,1.0,4.0,4.0,347.797797000112,2.0,1.0,phase_1,,,,,,,,,,,,,blue,cross
179.0,5.0,0.5,1.0,4.0,4.0,423.2000350002636,2.0,1.0,phase_1,,,,,,,,,,,,,orange,circle
669.0,3.0,2.0,0.0,1.0,1.0,375.1559600000291,2.0,1.0,phase_1,,,,,,,,,,,,,gray,I
648.0,3.0,2.0,0.0,1.0,1.0,629.1398579996894,2.0,1.0,phase_1,,,,,,,,,,,,,gray,I
325.0,6.0,1.0,1.0,1.0,1.0,508.1540829996811,2.0,1.0,phase_1,,,,,,,,,,,,,cyan,triangle
640.0,7.0,2.0,1.0,4.0,4.0,507.2450160000699,2.0,1.0,phase_1,,,,,,,,,,,,,magenta,hexagon
1309.0,8.0,4.0,1.0,1.0,1.0,384.5873850000316,2.0,1.0,phase_1,,,,,,,,,,,,,blue,cross
141.0,5.0,0.5,1.0,4.0,4.0,395.3086189999339,2.0,1.0,phase_1,,,,,,,,,,,,,orange,circle
331.0,6.0,1.0,1.0,1.0,1.0,376.4047820000087,2.0,1.0,phase_1,,,,,,,,,,,,,cyan,triangle
673.0,3.0,2.0,0.0,2.0,2.0,562.9681929999606,2.0,2.0,phase_1,,,,,,,,,,,,,gray,I
176.0,1.0,0.5,0.0,3.0,3.0,423.2078979998732,2.0,1.0,phase_1,,,,,,,,,,,,,green,square
0.0,1.0,0.0,0.0,2.0,2.0,365.5721750001248,2.0,1.0,phase_1,,,,,,,,,,,,,green,square
1309.0,4.0,4.0,0.0,1.0,1.0,375.870802999998,2.0,1.0,phase_1,,,,,,,,,,,,,yellow,diamond
0.0,5.0,0.0,1.0,1.0,1.0,458.7146889998621,2.0,1.0,phase_1,,,,,,,,,,,,,orange,circle
328.0,2.0,1.0,0.0,3.0,3.0,458.4206899999117,2.0,1.0,phase_1,,,,,,,,,,,,,white,flipped triangle
0.0,4.0,0.0,0.0,3.0,3.0,460.8216000001448,2.0,1.0,phase_1,,,,,,,,,,,,,yellow,diamond
1322.0,4.0,4.0,0.0,2.0,2.0,458.9003490000323,2.0,1.0,phase_1,,,,,,,,,,,,,yellow,diamond
0.0,7.0,0.0,1.0,4.0,4.0,403.7671920000321,2.0,1.0,phase_1,,,,,,,,,,,,,magenta,hexagon
325.0,2.0,1.0,0.0,3.0,3.0,433.1653280000864,2.0,1.0,phase_1,,,,,,,,,,,,,white,flipped triangle
324.0,2.0,1.0,0.0,4.0,4.0,384.9785070001417,2.0,1.0,phase_1,,,,,,,,,,,,,white,flipped triangle
0.0,3.0,0.0,0.0,2.0,2.0,459.3717789998663,2.0,1.0,phase_1,,,,,,,,,,,,,gray,I
1299.0,8.0,4.0,1.0,1.0,1.0,572.384446000342,2.0,1.0,phase_1,,,,,,,,,,,,,blue,cross
0.0,2.0,0.0,0.0,1.0,1.0,403.8144930000271,2.0,2.0,phase_1,,,,,,,,,,,,,white,flipped triangle
0.0,3.0,0.0,0.0,4.0,4.0,488.7495910002144,2.0,1.0,phase_1,,,,,,,,,,,,,gray,I
649.0,3.0,2.0,0.0,4.0,4.0,383.9922539996223,2.0,1.0,phase_1,,,,,,,,,,,,,gray,I
140.0,1.0,0.5,0.0,4.0,4.0,433.4948290002103,2.0,1.0,phase_1,,,,,,,,,,,,,green,square
306.0,6.0,1.0,1.0,1.0,1.0,470.0217770000563,2.0,1.0,phase_1,,,,,,,,,,,,,cyan,triangle
167.0,1.0,0.5,0.0,1.0,1.0,403.4475529997507,2.0,1.0,phase_1,,,,,,,,,,,,,green,square
1299.0,4.0,4.0,0.0,4.0,4.0,431.3378259998899,2.0,1.0,phase_1,,,,,,,,,,,,,yellow,diamond
0.0,6.0,0.0,1.0,2.0,2.0,431.7782849998366,2.0,1.0,phase_1,,,,,,,,,,,,,cyan,triangle
1278.0,4.0,4.0,0.0,3.0,3.0,375.2059749999716,2.0,1.0,phase_1,,,,,,,,,,,,,yellow,diamond
642.0,7.0,2.0,1.0,1.0,1.0,477.3844749997806,2.0,1.0,phase_1,,,,,,,,,,,,,magenta,hexagon
177.0,5.0,0.5,1.0,1.0,1.0,384.7974600002999,2.0,1.0,phase_1,,,,,,,,,,,,,orange,circle
641.0,7.0,2.0,1.0,1.0,1.0,347.720814999775,2.0,1.0,phase_1,,,,,,,,,,,,,magenta,hexagon
1282.0,4.0,4.0,0.0,2.0,2.0,403.2428350001282,2.0,1.0,phase_1,,,,,,,,,,,,,yellow,diamond
1322.0,8.0,4.0,1.0,2.0,2.0,413.445591999789,2.0,1.0,phase_1,,,,,,,,,,,,,blue,cross
319.0,6.0,1.0,1.0,4.0,4.0,487.1083640000506,2.0,1.0,phase_1,,,,,,,,,,,,,cyan,triangle
159.0,5.0,0.5,1.0,4.0,4.0,458.2337269998788,2.0,1.0,phase_1,,,,,,,,,,,,,orange,circle
1319.0,4.0,4.0,0.0,1.0,1.0,383.52841300002177,2.0,1.0,phase_1,,,,,,,,,,,,,yellow,diamond
167.0,5.0,0.5,1.0,2.0,2.0,413.6044769998079,2.0,1.0,phase_1,,,,,,,,,,,,,orange,circle
0.0,6.0,0.0,1.0,3.0,3.0,356.5512690001924,3.0,1.0,phase_1,,,,,,,,,,,,,cyan,triangle
138.0,5.0,0.5,1.0,1.0,1.0,497.7012829999694,3.0,1.0,phase_1,,,,,,,,,,,,,orange,circle
173.0,5.0,0.5,1.0,3.0,3.0,393.1674469999962,3.0,1.0,phase_1,,,,,,,,,,,,,orange,circle
1315.0,4.0,4.0,0.0,4.0,4.0,507.0920319999459,3.0,1.0,phase_1,,,,,,,,,,,,,yellow,diamond
179.0,1.0,0.5,0.0,2.0,2.0,813.4808720001274,3.0,1.0,phase_1,,,,,,,,,,,,,green,square
344.0,2.0,1.0,0.0,1.0,1.0,534.2388160001974,3.0,1.0,phase_1,,,,,,,,,,,,,white,flipped triangle
656.0,7.0,2.0,1.0,1.0,1.0,505.4466730002787,3.0,1.0,phase_1,,,,,,,,,,,,,magenta,hexagon
331.0,2.0,1.0,0.0,2.0,2.0,412.2345000000678,3.0,1.0,phase_1,,,,,,,,,,,,,white,flipped triangle
0.0,5.0,0.0,1.0,4.0,4.0,551.6356959997211,3.0,1.0,phase_1,,,,,,,,,,,,,orange,circle
0.0,6.0,0.0,1.0,2.0,2.0,403.2178739998926,3.0,1.0,phase_1,,,,,,,,,,,,,cyan,triangle
315.0,2.0,1.0,0.0,3.0,3.0,572.2224370001641,3.0,1.0,phase_1,,,,,,,,,,,,,white,flipped triangle
665.0,3.0,2.0,0.0,4.0,4.0,487.1554500000457,3.0,1.0,phase_1,,,,,,,,,,,,,gray,I
334.0,6.0,1.0,1.0,1.0,1.0,412.3017070000969,3.0,1.0,phase_1,,,,,,,,,,,,,cyan,triangle
628.0,3.0,2.0,0.0,3.0,3.0,412.696698000218,3.0,1.0,phase_1,,,,,,,,,,,,,gray,I
182.0,5.0,0.5,1.0,3.0,3.0,393.6725369999294,3.0,1.0,phase_1,,,,,,,,,,,,,orange,circle
1299.0,4.0,4.0,0.0,2.0,2.0,403.5236730001088,3.0,1.0,phase_1,,,,,,,,,,,,,yellow,diamond
168.0,5.0,0.5,1.0,2.0,2.0,356.320747999689,3.0,1.0,phase_1,,,,,,,,,,,,,orange,circle
0.0,4.0,0.0,0.0,3.0,3.0,403.827418000219,3.0,1.0,phase_1,,,,,,,,,,,,,yellow,diamond
1315.0,8.0,4.0,1.0,2.0,2.0,384.9746730002152,3.0,1.0,phase_1,,,,,,,,,,,,,blue,cross
343.0,2.0,1.0,0.0,1.0,1.0,384.7721809997892,3.0,1.0,phase_1,,,,,,,,,,,,,white,flipped triangle
183.0,5.0,0.5,1.0,3.0,3.0,385.9459169998445,3.0,1.0,phase_1,,,,,,,,,,,,,orange,circle
158.0,1.0,0.5,0.0,1.0,1.0,421.7224849999184,3.0,1.0,phase_1,,,,,,,,,,,,,green,square
663.0,7.0,2.0,1.0,4.0,4.0,441.4682430001448,3.0,1.0,phase_1,,,,,,,,,,,,,magenta,hexagon
1301.0,8.0,4.0,1.0,4.0,4.0,514.970582999922,3.0,1.0,phase_1,,,,,,,,,,,,,blue,cross
176.0,1.0,0.5,0.0,4.0,4.0,374.5186250002916,3.0,1.0,phase_1,,,,,,,,,,,,,green,square
660.0,3.0,2.0,0.0,2.0,2.0,478.8625840001259,3.0,1.0,phase_1,,,,,,,,,,,,,gray,I
673.0,7.0,2.0,1.0,1.0,1.0,375.9051520000867,3.0,1.0,phase_1,,,,,,,,,,,,,magenta,hexagon
0.0,5.0,0.0,1.0,2.0,2.0,366.4942239997799,3.0,1.0,phase_1,,,,,,,,,,,,,orange,circle
0.0,8.0,0.0,1.0,1.0,1.0,375.4447800001799,3.0,1.0,phase_1,,,,,,,,,,,,,blue,cross
0.0,2.0,0.0,0.0,1.0,1.0,376.5838189997339,3.0,1.0,phase_1,,,,,,,,,,,,,white,flipped triangle
347.0,6.0,1.0,1.0,3.0,3.0,376.1821670000245,3.0,1.0,phase_1,,,,,,,,,,,,,cyan,triangle
164.0,5.0,0.5,1.0,2.0,2.0,356.5213399997446,3.0,1.0,phase_1,,,,,,,,,,,,,orange,circle
0.0,3.0,0.0,0.0,3.0,3.0,422.78971499990797,3.0,1.0,phase_1,,,,,,,,,,,,,gray,I
0.0,6.0,0.0,1.0,3.0,3.0,405.2169609999509,3.0,1.0,phase_1,,,,,,,,,,,,,cyan,triangle
665.0,7.0,2.0,1.0,3.0,3.0,422.24988099997057,3.0,1.0,phase_1,,,,,,,,,,,,,magenta,hexagon
668.0,3.0,2.0,0.0,4.0,4.0,525.1537399999506,3.0,1.0,phase_1,,,,,,,,,,,,,gray,I
309.0,6.0,1.0,1.0,1.0,1.0,412.9635650001546,3.0,1.0,phase_1,,,,,,,,,,,,,cyan,triangle
141.0,1.0,0.5,0.0,4.0,4.0,413.9867089998006,3.0,1.0,phase_1,,,,,,,,,,,,,green,square
641.0,3.0,2.0,0.0,2.0,2.0,431.0431429998971,3.0,1.0,phase_1,,,,,,,,,,,,,gray,I
1295.0,8.0,4.0,1.0,3.0,3.0,403.6447680000492,3.0,1.0,phase_1,,,,,,,,,,,,,blue,cross
653.0,3.0,2.0,0.0,1.0,1.0,405.1524260003134,3.0,1.0,phase_1,,,,,,,,,,,,,gray,I
173.0,1.0,0.5,0.0,1.0,1.0,356.1414799996782,3.0,1.0,phase_1,,,,,,,,,,,,,green,square
1277.0,4.0,4.0,0.0,2.0,2.0,374.7141769999871,3.0,1.0,phase_1,,,,,,,,,,,,,yellow,diamond
628.0,7.0,2.0,1.0,2.0,2.0,374.6592219999911,3.0,1.0,phase_1,,,,,,,,,,,,,magenta,hexagon
1276.0,4.0,4.0,0.0,1.0,1.0,356.9545780001135,3.0,1.0,phase_1,,,,,,,,,,,,,yellow,diamond
316.0,2.0,1.0,0.0,2.0,2.0,284.300291999898,3.0,1.0,phase_1,,,,,,,,,,,,,white,flipped triangle
1312.0,8.0,4.0,1.0,2.0,2.0,386.7919369999981,3.0,1.0,phase_1,,,,,,,,,,,,,blue,cross
145.0,1.0,0.5,0.0,1.0,1.0,366.251996000301,3.0,1.0,phase_1,,,,,,,,,,,,,green,square
339.0,2.0,1.0,0.0,4.0,4.0,598.5550020000119,3.0,1.0,phase_1,,,,,,,,,,,,,white,flipped triangle
146.0,5.0,0.5,1.0,1.0,1.0,529.7964449996471,3.0,1.0,phase_1,,,,,,,,,,,,,orange,circle
139.0,5.0,0.5,1.0,2.0,2.0,460.1025729998582,3.0,1.0,phase_1,,,,,,,,,,,,,orange,circle
628.0,3.0,2.0,0.0,1.0,1.0,450.4193599996142,3.0,1.0,phase_1,,,,,,,,,,,,,gray,I
320.0,2.0,1.0,0.0,3.0,3.0,460.1697170000989,3.0,1.0,phase_1,,,,,,,,,,,,,white,flipped triangle
1312.0,4.0,4.0,0.0,2.0,2.0,377.2891029998391,3.0,1.0,phase_1,,,,,,,,,,,,,yellow,diamond
627.0,7.0,2.0,1.0,1.0,1.0,374.6896909997304,3.0,1.0,phase_1,,,,,,,,,,,,,magenta,hexagon
1308.0,4.0,4.0,0.0,2.0,2.0,459.8003850001078,3.0,1.0,phase_1,,,,,,,,,,,,,yellow,diamond
0.0,5.0,0.0,1.0,1.0,1.0,365.3028040002937,3.0,1.0,phase_1,,,,,,,,,,,,,orange,circle
0.0,7.0,0.0,1.0,4.0,4.0,469.493089000025,3.0,1.0,phase_1,,,,,,,,,,,,,magenta,hexagon
141.0,1.0,0.5,0.0,3.0,3.0,395.1672419998431,3.0,1.0,phase_1,,,,,,,,,,,,,green,square
1293.0,8.0,4.0,1.0,3.0,3.0,403.1741700000566,3.0,1.0,phase_1,,,,,,,,,,,,,blue,cross
184.0,1.0,0.5,0.0,2.0,2.0,355.8590790003109,3.0,1.0,phase_1,,,,,,,,,,,,,green,square
665.0,3.0,2.0,0.0,3.0,3.0,477.7071559997239,3.0,1.0,phase_1,,,,,,,,,,,,,gray,I
1321.0,4.0,4.0,0.0,3.0,3.0,374.5593290000215,3.0,1.0,phase_1,,,,,,,,,,,,,yellow,diamond
0.0,8.0,0.0,1.0,4.0,4.0,385.3695540001354,3.0,1.0,phase_1,,,,,,,,,,,,,blue,cross
1314.0,4.0,4.0,0.0,4.0,4.0,394.6596700002374,3.0,1.0,phase_1,,,,,,,,,,,,,yellow,diamond
343.0,6.0,1.0,1.0,4.0,4.0,412.6380029997563,3.0,1.0,phase_1,,,,,,,,,,,,,cyan,triangle
633.0,3.0,2.0,0.0,3.0,3.0,393.181449000167,3.0,1.0,phase_1,,,,,,,,,,,,,gray,I
173.0,1.0,0.5,0.0,4.0,4.0,432.0352660001845,3.0,1.0,phase_1,,,,,,,,,,,,,green,square
660.0,7.0,2.0,1.0,3.0,3.0,423.8121029998183,3.0,1.0,phase_1,,,,,,,,,,,,,magenta,hexagon
158.0,1.0,0.5,0.0,2.0,2.0,403.2293129998834,3.0,1.0,phase_1,,,,,,,,,,,,,green,square
171.0,5.0,0.5,1.0,1.0,1.0,375.1117309998335,3.0,1.0,phase_1,,,,,,,,,,,,,orange,circle
0.0,7.0,0.0,1.0,1.0,1.0,385.1570299998457,3.0,1.0,phase_1,,,,,,,,,,,,,magenta,hexagon
313.0,6.0,1.0,1.0,2.0,2.0,338.348748000044,3.0,1.0,phase_1,,,,,,,,,,,,,cyan,triangle
164.0,1.0,0.5,0.0,2.0,2.0,366.7808569998669,3.0,1.0,phase_1,,,,,,,,,,,,,green,square
168.0,1.0,0.5,0.0,1.0,1.0,384.5256610002252,3.0,1.0,phase_1,,,,,,,,,,,,,green,square
1301.0,8.0,4.0,1.0,1.0,1.0,685.0500599998668,3.0,1.0,phase_1,,,,,,,,,,,,,blue,cross
1277.0,8.0,4.0,1.0,4.0,4.0,591.2654320000001,3.0,1.0,phase_1,,,,,,,,,,,,,blue,cross
1320.0,4.0,4.0,0.0,3.0,3.0,385.5948850000459,3.0,1.0,phase_1,,,,,,,,,,,,,yellow,diamond
0.0,4.0,0.0,0.0,3.0,3.0,423.3967230002236,3.0,1.0,phase_1,,,,,,,,,,,,,yellow,diamond
1320.0,8.0,4.0,1.0,3.0,3.0,376.4541340001415,3.0,1.0,phase_1,,,,,,,,,,,,,blue,cross
0.0,2.0,0.0,0.0,2.0,2.0,395.3811910000695,3.0,1.0,phase_1,,,,,,,,,,,,,white,flipped triangle
654.0,3.0,2.0,0.0,2.0,2.0,347.4986620003619,3.0,1.0,phase_1,,,,,,,,,,,,,gray,I
1321.0,8.0,4.0,1.0,1.0,1.0,376.4959439999984,3.0,1.0,phase_1,,,,,,,,,,,,,blue,cross
327.0,2.0,1.0,0.0,3.0,3.0,478.8496440000926,3.0,1.0,phase_1,,,,,,,,,,,,,white,flipped triangle
158.0,5.0,0.5,1.0,1.0,1.0,365.4746959996373,3.0,1.0,phase_1,,,,,,,,,,,,,orange,circle
0.0,8.0,0.0,1.0,3.0,3.0,337.5955900000917,3.0,1.0,phase_1,,,,,,,,,,,,,blue,cross
180.0,1.0,0.5,0.0,1.0,1.0,347.5180139998883,3.0,1.0,phase_1,,,,,,,,,,,,,green,square
0.0,6.0,0.0,1.0,4.0,4.0,440.6433399999514,3.0,1.0,phase_1,,,,,,,,,,,,,cyan,triangle
1281.0,4.0,4.0,0.0,2.0,2.0,412.9966539999259,3.0,1.0,phase_1,,,,,,,,,,,,,yellow,diamond
656.0,7.0,2.0,1.0,1.0,1.0,413.3816329999717,3.0,1.0,phase_1,,,,,,,,,,,,,magenta,hexagon
628.0,7.0,2.0,1.0,2.0,2.0,365.0093209998886,3.0,1.0,phase_1,,,,,,,,,,,,,magenta,hexagon
347.0,6.0,1.0,1.0,2.0,2.0,346.4073320001262,3.0,1.0,phase_1,,,,,,,,,,,,,cyan,triangle
341.0,2.0,1.0,0.0,4.0,4.0,516.6622399997323,3.0,1.0,phase_1,,,,,,,,,,,,,white,flipped triangle
645.0,7.0,2.0,1.0,4.0,4.0,421.1352080001234,3.0,1.0,phase_1,,,,,,,,,,,,,magenta,hexagon
327.0,6.0,1.0,1.0,2.0,2.0,393.0536719999509,3.0,1.0,phase_1,,,,,,,,,,,,,cyan,triangle
327.0,6.0,1.0,1.0,3.0,3.0,394.3285700001979,3.0,1.0,phase_1,,,,,,,,,,,,,cyan,triangle
320.0,6.0,1.0,1.0,1.0,1.0,403.9718730000459,3.0,1.0,phase_1,,,,,,,,,,,,,cyan,triangle
0.0,1.0,0.0,0.0,3.0,3.0,451.8278640002791,3.0,1.0,phase_1,,,,,,,,,,,,,green,square
0.0,5.0,0.0,1.0,4.0,4.0,480.9863569998924,3.0,1.0,phase_1,,,,,,,,,,,,,orange,circle
636.0,3.0,2.0,0.0,3.0,3.0,516.1196420003762,3.0,1.0,phase_1,,,,,,,,,,,,,gray,I
0.0,2.0,0.0,0.0,4.0,4.0,441.3588419997722,4.0,1.0,phase_1,,,,,,,,,,,,,white,flipped triangle
347.0,2.0,1.0,0.0,2.0,2.0,413.6939790000724,4.0,1.0,phase_1,,,,,,,,,,,,,white,flipped triangle
1301.0,8.0,4.0,1.0,2.0,2.0,385.1064529999348,4.0,1.0,phase_1,,,,,,,,,,,,,blue,cross
1301.0,4.0,4.0,0.0,1.0,1.0,487.4725269996816,4.0,1.0,phase_1,,,,,,,,,,,,,yellow,diamond
1280.0,4.0,4.0,0.0,3.0,3.0,349.4326250001904,4.0,1.0,phase_1,,,,,,,,,,,,,yellow,diamond
661.0,3.0,2.0,0.0,1.0,1.0,395.874688999811,4.0,1.0,phase_1,,,,,,,,,,,,,gray,I
0.0,8.0,0.0,1.0,1.0,1.0,404.528037000091,4.0,1.0,phase_1,,,,,,,,,,,,,blue,cross
173.0,5.0,0.5,1.0,3.0,3.0,525.6853979999505,4.0,1.0,phase_1,,,,,,,,,,,,,orange,circle
0.0,4.0,0.0,0.0,1.0,1.0,365.60822899991757,4.0,1.0,phase_1,,,,,,,,,,,,,yellow,diamond
323.0,2.0,1.0,0.0,2.0,2.0,394.5193009999457,4.0,1.0,phase_1,,,,,,,,,,,,,white,flipped triangle
176.0,5.0,0.5,1.0,2.0,2.0,384.7084279996124,4.0,1.0,phase_1,,,,,,,,,,,,,orange,circle
159.0,1.0,0.5,0.0,2.0,2.0,347.883912999805,4.0,1.0,phase_1,,,,,,,,,,,,,green,square
1281.0,8.0,4.0,1.0,3.0,3.0,377.7521439997144,4.0,1.0,phase_1,,,,,,,,,,,,,blue,cross
1289.0,8.0,4.0,1.0,2.0,2.0,330.5720610001117,4.0,1.0,phase_1,,,,,,,,,,,,,blue,cross
327.0,2.0,1.0,0.0,1.0,1.0,346.6336639999099,4.0,1.0,phase_1,,,,,,,,,,,,,white,flipped triangle
168.0,5.0,0.5,1.0,3.0,3.0,374.4972889999189,4.0,1.0,phase_1,,,,,,,,,,,,,orange,circle
1298.0,4.0,4.0,0.0,4.0,4.0,555.0236850003785,4.0,1.0,phase_1,,,,,,,,,,,,,yellow,diamond
1315.0,8.0,4.0,1.0,3.0,3.0,384.3589919997612,4.0,1.0,phase_1,,,,,,,,,,,,,blue,cross
639.0,7.0,2.0,1.0,2.0,2.0,348.9466259998153,4.0,1.0,phase_1,,,,,,,,,,,,,magenta,hexagon
641.0,3.0,2.0,0.0,3.0,3.0,393.9148769995881,4.0,1.0,phase_1,,,,,,,,,,,,,gray,I
1315.0,4.0,4.0,0.0,1.0,1.0,423.9986090001366,4.0,1.0,phase_1,,,,,,,,,,,,,yellow,diamond
180.0,5.0,0.5,1.0,3.0,3.0,394.911661000151,4.0,1.0,phase_1,,,,,,,,,,,,,orange,circle
143.0,5.0,0.5,1.0,3.0,3.0,319.5593509999526,4.0,1.0,phase_1,,,,,,,,,,,,,orange,circle
631.0,3.0,2.0,0.0,4.0,4.0,516.1445300000196,4.0,1.0,phase_1,,,,,,,,,,,,,gray,I
0.0,7.0,0.0,1.0,4.0,4.0,365.3678780001428,4.0,1.0,phase_1,,,,,,,,,,,,,magenta,hexagon
657.0,3.0,2.0,0.0,2.0,2.0,413.0933629999163,4.0,1.0,phase_1,,,,,,,,,,,,,gray,I
0.0,7.0,0.0,1.0,4.0,4.0,346.8923800000993,4.0,1.0,phase_1,,,,,,,,,,,,,magenta,hexagon
324.0,6.0,1.0,1.0,4.0,4.0,404.0162630003578,4.0,1.0,phase_1,,,,,,,,,,,,,cyan,triangle
173.0,1.0,0.5,0.0,4.0,4.0,347.6324549997116,4.0,1.0,phase_1,,,,,,,,,,,,,green,square
639.0,3.0,2.0,0.0,4.0,4.0,357.0544270000937,4.0,1.0,phase_1,,,,,,,,,,,,,gray,I
0.0,5.0,0.0,1.0,2.0,2.0,459.2907649998778,4.0,1.0,phase_1,,,,,,,,,,,,,orange,circle
1301.0,4.0,4.0,0.0,3.0,3.0,366.6623110002547,4.0,1.0,phase_1,,,,,,,,,,,,,yellow,diamond
1319.0,8.0,4.0,1.0,2.0,2.0,348.2013530001495,4.0,1.0,phase_1,,,,,,,,,,,,,blue,cross
0.0,2.0,0.0,0.0,3.0,3.0,346.5944869999475,4.0,1.0,phase_1,,,,,,,,,,,,,white,flipped triangle
633.0,7.0,2.0,1.0,1.0,1.0,375.6844819999969,4.0,1.0,phase_1,,,,,,,,,,,,,magenta,hexagon
328.0,6.0,1.0,1.0,4.0,4.0,516.0791160001281,4.0,1.0,phase_1,,,,,,,,,,,,,cyan,triangle
670.0,3.0,2.0,0.0,4.0,4.0,384.8338879997754,4.0,1.0,phase_1,,,,,,,,,,,,,gray,I
0.0,3.0,0.0,0.0,3.0,3.0,366.1554219997924,4.0,1.0,phase_1,,,,,,,,,,,,,gray,I
171.0,1.0,0.5,0.0,2.0,2.0,366.49249800029787,4.0,1.0,phase_1,,,,,,,,,,,,,green,square
1309.0,8.0,4.0,1.0,4.0,4.0,338.8992690001942,4.0,1.0,phase_1,,,,,,,,,,,,,blue,cross
168.0,1.0,0.5,0.0,3.0,3.0,403.9618100000552,4.0,1.0,phase_1,,,,,,,,,,,,,green,square
0.0,5.0,0.0,1.0,4.0,4.0,414.3684419996134,4.0,1.0,phase_1,,,,,,,,,,,,,orange,circle
640.0,3.0,2.0,0.0,2.0,2.0,411.3114699998732,4.0,1.0,phase_1,,,,,,,,,,,,,gray,I
1314.0,8.0,4.0,1.0,4.0,4.0,281.5305290000651,4.0,1.0,phase_1,,,,,,,,,,,,,blue,cross
157.0,1.0,0.5,0.0,3.0,3.0,348.0845960002625,4.0,1.0,phase_1,,,,,,,,,,,,,green,square
633.0,7.0,2.0,1.0,3.0,3.0,394.5403610000539,4.0,1.0,phase_1,,,,,,,,,,,,,magenta,hexagon
660.0,3.0,2.0,0.0,4.0,4.0,413.8134499999069,4.0,1.0,phase_1,,,,,,,,,,,,,gray,I
0.0,2.0,0.0,0.0,2.0,2.0,412.7074410002933,4.0,1.0,phase_1,,,,,,,,,,,,,white,flipped triangle
302.0,6.0,1.0,1.0,3.0,3.0,375.3140589997201,4.0,1.0,phase_1,,,,,,,,,,,,,cyan,triangle
660.0,7.0,2.0,1.0,1.0,1.0,696.6690809999818,4.0,1.0,phase_1,,,,,,,,,,,,,magenta,hexagon
657.0,7.0,2.0,1.0,2.0,2.0,375.4055519998474,4.0,1.0,phase_1,,,,,,,,,,,,,magenta,hexagon
0.0,1.0,0.0,0.0,1.0,1.0,543.957945999864,4.0,1.0,phase_1,,,,,,,,,,,,,green,square
626.0,3.0,2.0,0.0,4.0,4.0,497.4847489997955,4.0,1.0,phase_1,,,,,,,,,,,,,gray,I
0.0,2.0,0.0,0.0,4.0,4.0,441.7393089997858,4.0,1.0,phase_1,,,,,,,,,,,,,white,flipped triangle
319.0,6.0,1.0,1.0,3.0,3.0,414.0379740001663,4.0,1.0,phase_1,,,,,,,,,,,,,cyan,triangle
656.0,7.0,2.0,1.0,4.0,4.0,364.8837870000534,4.0,1.0,phase_1,,,,,,,,,,,,,magenta,hexagon
176.0,5.0,0.5,1.0,4.0,4.0,470.0449000001754,4.0,1.0,phase_1,,,,,,,,,,,,,orange,circle
180.0,1.0,0.5,0.0,1.0,1.0,488.9141329999802,4.0,1.0,phase_1,,,,,,,,,,,,,green,square
147.0,5.0,0.5,1.0,2.0,2.0,451.31653499993257,4.0,1.0,phase_1,,,,,,,,,,,,,orange,circle
335.0,6.0,1.0,1.0,1.0,1.0,311.3275030000295,4.0,2.0,phase_1,,,,,,,,,,,,,cyan,triangle
0.0,4.0,0.0,0.0,1.0,1.0,441.6525070000716,4.0,1.0,phase_1,,,,,,,,,,,,,yellow,diamond
336.0,6.0,1.0,1.0,2.0,2.0,402.9699940001592,4.0,1.0,phase_1,,,,,,,,,,,,,cyan,triangle
1294.0,8.0,4.0,1.0,1.0,1.0,486.7501640001137,4.0,1.0,phase_1,,,,,,,,,,,,,blue,cross
0.0,4.0,0.0,0.0,2.0,2.0,365.8698790000017,4.0,1.0,phase_1,,,,,,,,,,,,,yellow,diamond
339.0,6.0,1.0,1.0,3.0,3.0,610.1632350000727,4.0,1.0,phase_1,,,,,,,,,,,,,cyan,triangle
669.0,7.0,2.0,1.0,2.0,2.0,477.4074209999526,4.0,1.0,phase_1,,,,,,,,,,,,,magenta,hexagon
344.0,6.0,1.0,1.0,3.0,3.0,422.5689490003788,4.0,1.0,phase_1,,,,,,,,,,,,,cyan,triangle
182.0,1.0,0.5,0.0,3.0,3.0,403.4886150002421,4.0,1.0,phase_1,,,,,,,,,,,,,green,square
1282.0,4.0,4.0,0.0,2.0,2.0,392.0727380000244,4.0,1.0,phase_1,,,,,,,,,,,,,yellow,diamond
139.0,1.0,0.5,0.0,3.0,3.0,366.1229920003279,4.0,1.0,phase_1,,,,,,,,,,,,,green,square
0.0,3.0,0.0,0.0,1.0,1.0,570.966535000025,4.0,1.0,phase_1,,,,,,,,,,,,,gray,I
1318.0,8.0,4.0,1.0,1.0,1.0,489.0875129999585,4.0,1.0,phase_1,,,,,,,,,,,,,blue,cross
145.0,5.0,0.5,1.0,4.0,4.0,551.6975099999399,4.0,1.0,phase_1,,,,,,,,,,,,,orange,circle
319.0,2.0,1.0,0.0,2.0,2.0,365.8546999999998,4.0,1.0,phase_1,,,,,,,,,,,,,white,flipped triangle
164.0,1.0,0.5,0.0,4.0,4.0,440.7375269997828,4.0,1.0,phase_1,,,,,,,,,,,,,green,square
1319.0,4.0,4.0,0.0,4.0,4.0,450.2578929996161,4.0,1.0,phase_1,,,,,,,,,,,,,yellow,diamond
146.0,1.0,0.5,0.0,1.0,1.0,385.089022000102,4.0,1.0,phase_1,,,,,,,,,,,,,green,square
161.0,1.0,0.5,0.0,3.0,3.0,337.4696840000979,4.0,1.0,phase_1,,,,,,,,,,,,,green,square
324.0,6.0,1.0,1.0,1.0,1.0,478.1468910000512,4.0,1.0,phase_1,,,,,,,,,,,,,cyan,triangle
0.0,6.0,0.0,1.0,3.0,3.0,365.5181859999175,4.0,1.0,phase_1,,,,,,,,,,,,,cyan,triangle
306.0,2.0,1.0,0.0,2.0,2.0,423.2774470001459,4.0,1.0,phase_1,,,,,,,,,,,,,white,flipped triangle
1298.0,8.0,4.0,1.0,2.0,2.0,356.9619549998606,4.0,1.0,phase_1,,,,,,,,,,,,,blue,cross
319.0,2.0,1.0,0.0,1.0,1.0,402.3445709999578,4.0,1.0,phase_1,,,,,,,,,,,,,white,flipped triangle
1278.0,8.0,4.0,1.0,2.0,2.0,412.9467620000469,4.0,1.0,phase_1,,,,,,,,,,,,,blue,cross
0.0,7.0,0.0,1.0,1.0,1.0,412.8283930003817,4.0,1.0,phase_1,,,,,,,,,,,,,magenta,hexagon
0.0,1.0,0.0,0.0,1.0,1.0,414.2226100002517,4.0,1.0,phase_1,,,,,,,,,,,,,green,square
0.0,7.0,0.0,1.0,4.0,4.0,497.4255189999894,4.0,1.0,phase_1,,,,,,,,,,,,,magenta,hexagon
1282.0,8.0,4.0,1.0,4.0,4.0,552.4426090000816,4.0,1.0,phase_1,,,,,,,,,,,,,blue,cross
0.0,3.0,0.0,0.0,4.0,4.0,450.3183189999618,4.0,1.0,phase_1,,,,,,,,,,,,,gray,I
323.0,6.0,1.0,1.0,1.0,1.0,394.0832600001158,4.0,1.0,phase_1,,,,,,,,,,,,,cyan,triangle
631.0,7.0,2.0,1.0,2.0,2.0,420.9719680002308,4.0,1.0,phase_1,,,,,,,,,,,,,magenta,hexagon
654.0,7.0,2.0,1.0,4.0,4.0,468.8254890002099,4.0,1.0,phase_1,,,,,,,,,,,,,magenta,hexagon
0.0,4.0,0.0,0.0,2.0,2.0,309.8185379999449,4.0,1.0,phase_1,,,,,,,,,,,,,yellow,diamond
323.0,6.0,1.0,1.0,4.0,4.0,412.0483060000879,4.0,1.0,phase_1,,,,,,,,,,,,,cyan,triangle
163.0,5.0,0.5,1.0,4.0,4.0,449.575126000127,4.0,1.0,phase_1,,,,,,,,,,,,,orange,circle
155.0,1.0,0.5,0.0,2.0,2.0,431.0996819999673,4.0,1.0,phase_1,,,,,,,,,,,,,green,square
1308.0,4.0,4.0,0.0,3.0,3.0,403.0584249999265,4.0,1.0,phase_1,,,,,,,,,,,,,yellow,diamond
0.0,4.0,0.0,0.0,4.0,4.0,383.8956509998752,4.0,1.0,phase_1,,,,,,,,,,,,,yellow,diamond
0.0,8.0,0.0,1.0,1.0,1.0,552.4162689998775,4.0,1.0,phase_1,,,,,,,,,,,,,blue,cross
317.0,6.0,1.0,1.0,4.0,4.0,337.3602200003915,4.0,1.0,phase_1,,,,,,,,,,,,,cyan,triangle
0.0,2.0,1.0,0.0,6.0,6.0,649.19301000009,1.0,1.0,phase_2,go,250.0,250.0,1.0,,,,,,,,,white,flipped triangle
0.0,8.0,4.0,1.0,6.0,6.0,621.6233130003275,1.0,1.0,phase_2,stop,250.0,250.0,3.0,,,,,,,,,blue,cross
0.0,1.0,0.5,0.0,5.0,5.0,631.4304869997613,1.0,1.0,phase_2,go,250.0,200.0,1.0,,,,,,,,,green,square
0.0,7.0,2.0,1.0,5.0,0.0,0.0,1.0,1.0,phase_2,stop,250.0,200.0,4.0,,,,,,,,,magenta,hexagon
0.0,3.0,2.0,0.0,5.0,5.0,772.3035840003831,1.0,1.0,phase_2,go,300.0,200.0,1.0,,,,,,,,,gray,I
0.0,3.0,2.0,0.0,6.0,6.0,942.6738180000028,1.0,1.0,phase_2,go,300.0,200.0,1.0,,,,,,,,,gray,I
0.0,1.0,0.5,0.0,5.0,5.0,613.0146520004018,1.0,1.0,phase_2,go,300.0,200.0,1.0,,,,,,,,,green,square
0.0,6.0,1.0,1.0,6.0,0.0,0.0,1.0,1.0,phase_2,stop,300.0,200.0,4.0,,,,,,,,,cyan,triangle
0.0,2.0,1.0,0.0,6.0,6.0,801.3540040001317,1.0,1.0,phase_2,go,300.0,250.0,1.0,,,,,,,,,white,flipped triangle
0.0,3.0,2.0,0.0,6.0,6.0,988.92627899977,1.0,1.0,phase_2,go,300.0,250.0,1.0,,,,,,,,,gray,I
0.0,6.0,1.0,1.0,6.0,6.0,821.6874479999206,1.0,1.0,phase_2,go,300.0,250.0,1.0,,,,,,,,,cyan,triangle
0.0,6.0,1.0,1.0,5.0,0.0,0.0,1.0,1.0,phase_2,stop,300.0,250.0,4.0,,,,,,,,,cyan,triangle
0.0,5.0,0.5,1.0,6.0,0.0,0.0,1.0,1.0,phase_2,stop,350.0,250.0,4.0,,,,,,,,,orange,circle
0.0,7.0,2.0,1.0,6.0,6.0,753.9757940003255,1.0,1.0,phase_2,go,350.0,300.0,1.0,,,,,,,,,magenta,hexagon
0.0,6.0,1.0,1.0,5.0,0.0,0.0,1.0,1.0,phase_2,stop,350.0,300.0,4.0,,,,,,,,,cyan,triangle
0.0,5.0,0.5,1.0,5.0,5.0,961.2239190000764,1.0,1.0,phase_2,go,400.0,300.0,1.0,,,,,,,,,orange,circle
0.0,3.0,2.0,0.0,5.0,5.0,943.4216419999756,1.0,1.0,phase_2,go,400.0,300.0,1.0,,,,,,,,,gray,I
0.0,2.0,1.0,0.0,5.0,5.0,839.6868780000659,1.0,1.0,phase_2,go,400.0,300.0,1.0,,,,,,,,,white,flipped triangle
0.0,8.0,4.0,1.0,6.0,0.0,0.0,1.0,1.0,phase_2,stop,400.0,300.0,4.0,,,,,,,,,blue,cross
0.0,3.0,2.0,0.0,5.0,5.0,886.1848090000422,1.0,1.0,phase_2,go,400.0,350.0,1.0,,,,,,,,,gray,I
0.0,1.0,0.5,0.0,5.0,5.0,1046.4742350000051,1.0,1.0,phase_2,go,400.0,350.0,1.0,,,,,,,,,green,square
0.0,4.0,4.0,0.0,5.0,5.0,1008.6027839997769,1.0,1.0,phase_2,go,400.0,350.0,1.0,,,,,,,,,yellow,diamond
0.0,1.0,0.5,0.0,6.0,6.0,726.4763909997782,1.0,1.0,phase_2,go,400.0,350.0,1.0,,,,,,,,,green,square
0.0,5.0,0.5,1.0,6.0,6.0,623.1317339997986,1.0,1.0,phase_2,go,400.0,350.0,1.0,,,,,,,,,orange,circle
0.0,7.0,2.0,1.0,5.0,0.0,0.0,1.0,1.0,phase_2,stop,400.0,350.0,4.0,,,,,,,,,magenta,hexagon
0.0,7.0,2.0,1.0,5.0,0.0,0.0,1.0,1.0,phase_2,stop,450.0,350.0,4.0,,,,,,,,,magenta,hexagon
0.0,6.0,1.0,1.0,5.0,0.0,0.0,1.0,1.0,phase_2,stop,500.0,350.0,4.0,,,,,,,,,cyan,triangle
0.0,3.0,2.0,0.0,5.0,5.0,829.6323019999363,1.0,1.0,phase_2,go,550.0,350.0,1.0,,,,,,,,,gray,I
0.0,8.0,4.0,1.0,5.0,0.0,0.0,1.0,1.0,phase_2,stop,550.0,350.0,4.0,,,,,,,,,blue,cross
0.0,2.0,1.0,0.0,5.0,5.0,916.494041000078,1.0,1.0,phase_2,go,600.0,350.0,1.0,,,,,,,,,white,flipped triangle
0.0,4.0,4.0,0.0,6.0,6.0,886.4375930002097,1.0,1.0,phase_2,go,600.0,350.0,1.0,,,,,,,,,yellow,diamond
0.0,5.0,0.5,1.0,6.0,6.0,840.3767159998097,1.0,1.0,phase_2,go,600.0,350.0,1.0,,,,,,,,,orange,circle
0.0,6.0,1.0,1.0,6.0,6.0,1020.8110819999092,1.0,1.0,phase_2,go,600.0,350.0,1.0,,,,,,,,,cyan,triangle
0.0,8.0,4.0,1.0,6.0,0.0,0.0,1.0,1.0,phase_2,stop,600.0,350.0,4.0,,,,,,,,,blue,cross
0.0,8.0,4.0,1.0,5.0,0.0,0.0,1.0,1.0,phase_2,stop,600.0,400.0,4.0,,,,,,,,,blue,cross
0.0,3.0,2.0,0.0,5.0,5.0,564.6806280001329,1.0,1.0,phase_2,go,650.0,400.0,1.0,,,,,,,,,gray,I
0.0,8.0,4.0,1.0,6.0,6.0,575.3954100000556,2.0,1.0,phase_2,stop,650.0,400.0,3.0,,,,,,,,,blue,cross
0.0,2.0,1.0,0.0,6.0,6.0,443.4055990000161,2.0,1.0,phase_2,go,650.0,350.0,1.0,,,,,,,,,white,flipped triangle
0.0,4.0,4.0,0.0,6.0,6.0,583.8229179998962,2.0,1.0,phase_2,go,650.0,350.0,1.0,,,,,,,,,yellow,diamond
0.0,2.0,1.0,0.0,5.0,5.0,746.1958760000016,2.0,1.0,phase_2,go,650.0,350.0,1.0,,,,,,,,,white,flipped triangle
0.0,3.0,2.0,0.0,5.0,5.0,405.4153530000803,2.0,1.0,phase_2,go,650.0,350.0,1.0,,,,,,,,,gray,I
0.0,1.0,0.5,0.0,5.0,5.0,773.8790739999786,2.0,1.0,phase_2,go,650.0,350.0,1.0,,,,,,,,,green,square
0.0,7.0,2.0,1.0,5.0,5.0,782.329075999769,2.0,1.0,phase_2,stop,650.0,350.0,3.0,,,,,,,,,magenta,hexagon
0.0,2.0,1.0,0.0,5.0,5.0,916.3364789997104,2.0,1.0,phase_2,go,600.0,350.0,1.0,,,,,,,,,white,flipped triangle
0.0,6.0,1.0,1.0,5.0,5.0,848.531008000009,2.0,1.0,phase_2,go,600.0,350.0,1.0,,,,,,,,,cyan,triangle
0.0,1.0,0.5,0.0,5.0,5.0,696.0946979997971,2.0,1.0,phase_2,go,600.0,350.0,1.0,,,,,,,,,green,square
0.0,7.0,2.0,1.0,6.0,6.0,773.6597899997832,2.0,1.0,phase_2,go,600.0,350.0,1.0,,,,,,,,,magenta,hexagon
0.0,8.0,4.0,1.0,6.0,6.0,850.4142990000219,2.0,1.0,phase_2,go,600.0,350.0,1.0,,,,,,,,,blue,cross
0.0,6.0,1.0,1.0,5.0,0.0,0.0,2.0,1.0,phase_2,stop,600.0,350.0,4.0,,,,,,,,,cyan,triangle
0.0,5.0,0.5,1.0,5.0,0.0,0.0,2.0,1.0,phase_2,stop,650.0,350.0,4.0,,,,,,,,,orange,circle
0.0,1.0,0.5,0.0,6.0,6.0,952.2866110000904,2.0,1.0,phase_2,go,700.0,350.0,1.0,,,,,,,,,green,square
0.0,4.0,4.0,0.0,6.0,6.0,1064.5712090004054,2.0,1.0,phase_2,go,700.0,350.0,1.0,,,,,,,,,yellow,diamond
0.0,2.0,1.0,0.0,6.0,6.0,971.6105379998226,2.0,1.0,phase_2,go,700.0,350.0,1.0,,,,,,,,,white,flipped triangle
0.0,7.0,2.0,1.0,5.0,0.0,0.0,2.0,1.0,phase_2,stop,700.0,350.0,4.0,,,,,,,,,magenta,hexagon
0.0,4.0,4.0,0.0,6.0,6.0,1092.977211999823,2.0,1.0,phase_2,go,750.0,350.0,1.0,,,,,,,,,yellow,diamond
0.0,2.0,1.0,0.0,5.0,5.0,1102.5997409997217,2.0,1.0,phase_2,go,750.0,350.0,1.0,,,,,,,,,white,flipped triangle
0.0,1.0,0.5,0.0,5.0,5.0,1140.6142949999776,2.0,1.0,phase_2,go,750.0,350.0,1.0,,,,,,,,,green,square
0.0,6.0,1.0,1.0,5.0,0.0,0.0,2.0,1.0,phase_2,stop,750.0,350.0,4.0,,,,,,,,,cyan,triangle
0.0,7.0,2.0,1.0,6.0,6.0,1141.1248049998903,2.0,1.0,phase_2,go,800.0,350.0,1.0,,,,,,,,,magenta,hexagon
0.0,3.0,2.0,0.0,6.0,6.0,998.1172379998496,2.0,1.0,phase_2,go,800.0,350.0,1.0,,,,,,,,,gray,I
0.0,4.0,4.0,0.0,5.0,5.0,989.688680999734,2.0,1.0,phase_2,go,800.0,350.0,1.0,,,,,,,,,yellow,diamond
0.0,7.0,2.0,1.0,5.0,5.0,878.0111619998934,2.0,1.0,phase_2,stop,800.0,350.0,3.0,,,,,,,,,magenta,hexagon
0.0,4.0,4.0,0.0,6.0,6.0,1038.2003230001828,2.0,1.0,phase_2,go,750.0,350.0,1.0,,,,,,,,,yellow,diamond
0.0,7.0,2.0,1.0,6.0,6.0,1055.0326590000625,2.0,1.0,phase_2,go,750.0,350.0,1.0,,,,,,,,,magenta,hexagon
0.0,4.0,4.0,0.0,5.0,5.0,971.8320349998066,2.0,1.0,phase_2,go,750.0,350.0,1.0,,,,,,,,,yellow,diamond
0.0,3.0,2.0,0.0,6.0,6.0,1069.304738000028,2.0,1.0,phase_2,go,750.0,350.0,1.0,,,,,,,,,gray,I
0.0,2.0,1.0,0.0,6.0,6.0,1167.911157999697,2.0,1.0,phase_2,go,750.0,350.0,1.0,,,,,,,,,white,flipped triangle
0.0,4.0,4.0,0.0,6.0,6.0,1076.3796250002995,2.0,1.0,phase_2,go,750.0,350.0,1.0,,,,,,,,,yellow,diamond
0.0,1.0,0.5,0.0,6.0,6.0,982.3928040000284,2.0,1.0,phase_2,go,750.0,350.0,1.0,,,,,,,,,green,square
0.0,6.0,1.0,1.0,6.0,6.0,1082.595590999972,2.0,1.0,phase_2,go,750.0,350.0,1.0,,,,,,,,,cyan,triangle
0.0,7.0,2.0,1.0,5.0,0.0,0.0,2.0,1.0,phase_2,stop,750.0,350.0,4.0,,,,,,,,,magenta,hexagon
0.0,3.0,2.0,0.0,6.0,6.0,715.5329269999129,2.0,1.0,phase_2,go,800.0,350.0,1.0,,,,,,,,,gray,I
0.0,8.0,4.0,1.0,6.0,0.0,0.0,3.0,1.0,phase_2,stop,800.0,350.0,4.0,,,,,,,,,blue,cross
0.0,4.0,4.0,0.0,5.0,5.0,623.0858359999729,3.0,1.0,phase_2,go,800.0,400.0,1.0,,,,,,,,,yellow,diamond
0.0,5.0,0.5,1.0,6.0,0.0,0.0,3.0,1.0,phase_2,stop,800.0,400.0,4.0,,,,,,,,,orange,circle
0.0,6.0,1.0,1.0,6.0,6.0,576.1685690004015,3.0,1.0,phase_2,go,800.0,450.0,1.0,,,,,,,,,cyan,triangle
0.0,2.0,1.0,0.0,5.0,5.0,669.9695369998153,3.0,1.0,phase_2,go,800.0,450.0,1.0,,,,,,,,,white,flipped triangle
0.0,2.0,1.0,0.0,6.0,6.0,868.6807740000404,3.0,1.0,phase_2,go,800.0,450.0,1.0,,,,,,,,,white,flipped triangle
0.0,6.0,1.0,1.0,5.0,5.0,1084.7562560002189,3.0,1.0,phase_2,go,800.0,450.0,1.0,,,,,,,,,cyan,triangle
0.0,2.0,1.0,0.0,5.0,5.0,870.0612689999616,3.0,1.0,phase_2,go,800.0,450.0,1.0,,,,,,,,,white,flipped triangle
0.0,5.0,0.5,1.0,5.0,5.0,939.9903180001274,3.0,1.0,phase_2,stop,800.0,450.0,3.0,,,,,,,,,orange,circle
0.0,1.0,0.5,0.0,6.0,6.0,585.8757920000244,3.0,1.0,phase_2,go,750.0,450.0,1.0,,,,,,,,,green,square
0.0,4.0,4.0,0.0,5.0,5.0,1076.5723209997304,3.0,1.0,phase_2,go,750.0,450.0,1.0,,,,,,,,,yellow,diamond
0.0,2.0,1.0,0.0,5.0,5.0,1020.2188570001454,3.0,1.0,phase_2,go,750.0,450.0,1.0,,,,,,,,,white,flipped triangle
0.0,7.0,2.0,1.0,5.0,5.0,707.3676850000084,3.0,1.0,phase_2,go,750.0,450.0,1.0,,,,,,,,,magenta,hexagon
0.0,7.0,2.0,1.0,6.0,0.0,0.0,3.0,1.0,phase_2,stop,750.0,450.0,4.0,,,,,,,,,magenta,hexagon
0.0,6.0,1.0,1.0,6.0,0.0,0.0,3.0,1.0,phase_2,stop,750.0,500.0,4.0,,,,,,,,,cyan,triangle
0.0,7.0,2.0,1.0,6.0,0.0,0.0,3.0,1.0,phase_2,stop,750.0,550.0,4.0,,,,,,,,,magenta,hexagon
0.0,6.0,1.0,1.0,6.0,6.0,680.1389960000961,3.0,1.0,phase_2,go,750.0,600.0,1.0,,,,,,,,,cyan,triangle
0.0,5.0,0.5,1.0,6.0,6.0,767.828555000051,3.0,1.0,phase_2,stop,750.0,600.0,3.0,,,,,,,,,orange,circle
0.0,7.0,2.0,1.0,6.0,0.0,0.0,3.0,1.0,phase_2,stop,750.0,550.0,4.0,,,,,,,,,magenta,hexagon
0.0,6.0,1.0,1.0,5.0,5.0,878.2420620000266,3.0,1.0,phase_2,stop,750.0,600.0,3.0,,,,,,,,,cyan,triangle
0.0,2.0,1.0,0.0,6.0,6.0,1150.3333470000143,3.0,1.0,phase_2,go,700.0,600.0,1.0,,,,,,,,,white,flipped triangle
0.0,6.0,1.0,1.0,5.0,5.0,769.772765000198,3.0,1.0,phase_2,stop,700.0,600.0,3.0,,,,,,,,,cyan,triangle
0.0,8.0,4.0,1.0,5.0,0.0,0.0,3.0,1.0,phase_2,stop,650.0,600.0,4.0,,,,,,,,,blue,cross
0.0,8.0,4.0,1.0,6.0,0.0,0.0,3.0,1.0,phase_2,stop,700.0,600.0,4.0,,,,,,,,,blue,cross
0.0,1.0,0.5,0.0,6.0,6.0,772.33384200008,3.0,1.0,phase_2,go,700.0,650.0,1.0,,,,,,,,,green,square
0.0,5.0,0.5,1.0,5.0,0.0,0.0,3.0,1.0,phase_2,stop,700.0,650.0,4.0,,,,,,,,,orange,circle
0.0,6.0,1.0,1.0,6.0,0.0,0.0,3.0,1.0,phase_2,stop,750.0,650.0,4.0,,,,,,,,,cyan,triangle
0.0,1.0,0.5,0.0,5.0,5.0,1244.822115000261,3.0,1.0,phase_2,go,750.0,700.0,1.0,,,,,,,,,green,square
0.0,7.0,2.0,1.0,6.0,6.0,641.4588529996763,3.0,1.0,phase_2,stop,750.0,700.0,3.0,,,,,,,,,magenta,hexagon
0.0,5.0,0.5,1.0,5.0,5.0,1070.0679719998334,3.0,1.0,phase_2,go,750.0,650.0,1.0,,,,,,,,,orange,circle
0.0,2.0,1.0,0.0,6.0,6.0,960.35381899992,3.0,1.0,phase_2,go,750.0,650.0,1.0,,,,,,,,,white,flipped triangle
0.0,2.0,1.0,0.0,5.0,5.0,984.010496999872,3.0,1.0,phase_2,go,750.0,650.0,1.0,,,,,,,,,white,flipped triangle
0.0,4.0,4.0,0.0,5.0,5.0,941.5521870000704,3.0,1.0,phase_2,go,750.0,650.0,1.0,,,,,,,,,yellow,diamond
0.0,1.0,0.5,0.0,5.0,5.0,914.5576589999108,3.0,1.0,phase_2,go,750.0,650.0,1.0,,,,,,,,,green,square
0.0,4.0,4.0,0.0,6.0,6.0,842.0749820002129,3.0,1.0,phase_2,go,750.0,650.0,1.0,,,,,,,,,yellow,diamond
0.0,8.0,4.0,1.0,5.0,0.0,0.0,3.0,1.0,phase_2,stop,750.0,650.0,4.0,,,,,,,,,blue,cross
0.0,3.0,2.0,0.0,5.0,5.0,612.1089840003151,4.0,1.0,phase_2,go,800.0,650.0,1.0,,,,,,,,,gray,I
0.0,6.0,1.0,1.0,6.0,6.0,613.1948420002118,4.0,1.0,phase_2,stop,800.0,650.0,3.0,,,,,,,,,cyan,triangle
0.0,3.0,2.0,0.0,5.0,5.0,867.3368940003456,4.0,1.0,phase_2,go,800.0,600.0,1.0,,,,,,,,,gray,I
0.0,8.0,4.0,1.0,6.0,6.0,1074.9202389997663,4.0,1.0,phase_2,go,800.0,600.0,1.0,,,,,,,,,blue,cross
0.0,7.0,2.0,1.0,6.0,0.0,0.0,4.0,1.0,phase_2,stop,800.0,600.0,4.0,,,,,,,,,magenta,hexagon
0.0,5.0,0.5,1.0,5.0,0.0,0.0,4.0,1.0,phase_2,stop,800.0,650.0,4.0,,,,,,,,,orange,circle
0.0,4.0,4.0,0.0,5.0,5.0,1150.32062399996,4.0,1.0,phase_2,go,850.0,650.0,1.0,,,,,,,,,yellow,diamond
0.0,3.0,2.0,0.0,5.0,0.0,0.0,4.0,1.0,phase_2,go,850.0,650.0,5.0,,,,,,,,,gray,I
0.0,1.0,0.5,0.0,6.0,6.0,1227.9769679998935,4.0,1.0,phase_2,go,850.0,650.0,1.0,,,,,,,,,green,square
0.0,5.0,0.5,1.0,6.0,6.0,568.310160999772,4.0,1.0,phase_2,stop,850.0,650.0,3.0,,,,,,,,,orange,circle
0.0,1.0,0.5,0.0,6.0,6.0,887.9745680001179,4.0,1.0,phase_2,go,850.0,600.0,1.0,,,,,,,,,green,square
0.0,5.0,0.5,1.0,5.0,5.0,709.1025209997497,4.0,1.0,phase_2,stop,850.0,600.0,3.0,,,,,,,,,orange,circle
0.0,8.0,4.0,1.0,5.0,5.0,511.50563600003807,4.0,1.0,phase_2,stop,800.0,600.0,3.0,,,,,,,,,blue,cross
0.0,6.0,1.0,1.0,6.0,0.0,0.0,4.0,1.0,phase_2,stop,750.0,600.0,4.0,,,,,,,,,cyan,triangle
0.0,4.0,4.0,0.0,5.0,5.0,870.5175729996881,4.0,1.0,phase_2,go,750.0,650.0,1.0,,,,,,,,,yellow,diamond
0.0,8.0,4.0,1.0,6.0,6.0,924.6040140001242,4.0,1.0,phase_2,go,750.0,650.0,1.0,,,,,,,,,blue,cross
0.0,2.0,1.0,0.0,6.0,6.0,897.4209620000693,4.0,1.0,phase_2,go,750.0,650.0,1.0,,,,,,,,,white,flipped triangle
0.0,2.0,1.0,0.0,5.0,5.0,774.9613670002873,4.0,1.0,phase_2,go,750.0,650.0,1.0,,,,,,,,,white,flipped triangle
0.0,3.0,2.0,0.0,5.0,5.0,792.4278430000413,4.0,1.0,phase_2,go,750.0,650.0,1.0,,,,,,,,,gray,I
0.0,6.0,1.0,1.0,6.0,6.0,730.8777080002073,4.0,1.0,phase_2,stop,750.0,650.0,3.0,,,,,,,,,cyan,triangle
0.0,3.0,2.0,0.0,5.0,5.0,849.677482000061,4.0,1.0,phase_2,go,750.0,600.0,1.0,,,,,,,,,gray,I
0.0,8.0,4.0,1.0,5.0,0.0,0.0,4.0,1.0,phase_2,stop,750.0,600.0,4.0,,,,,,,,,blue,cross
0.0,1.0,0.5,0.0,5.0,5.0,1106.1369839999315,4.0,1.0,phase_2,go,800.0,600.0,1.0,,,,,,,,,green,square
0.0,6.0,1.0,1.0,5.0,5.0,849.6244759999172,4.0,1.0,phase_2,stop,800.0,600.0,3.0,,,,,,,,,cyan,triangle
0.0,7.0,2.0,1.0,5.0,0.0,0.0,4.0,1.0,phase_2,stop,750.0,600.0,4.0,,,,,,,,,magenta,hexagon
0.0,5.0,0.5,1.0,5.0,5.0,885.9997669997028,4.0,1.0,phase_2,stop,800.0,600.0,3.0,,,,,,,,,orange,circle
0.0,2.0,1.0,0.0,6.0,6.0,908.2058300000426,4.0,1.0,phase_2,go,750.0,600.0,1.0,,,,,,,,,white,flipped triangle
0.0,4.0,4.0,0.0,5.0,5.0,1287.5610299997788,4.0,1.0,phase_2,go,750.0,600.0,1.0,,,,,,,,,yellow,diamond
0.0,4.0,4.0,0.0,5.0,5.0,1261.1926639997364,4.0,1.0,phase_2,go,750.0,600.0,1.0,,,,,,,,,yellow,diamond
0.0,1.0,0.5,0.0,5.0,5.0,1096.009292999952,4.0,1.0,phase_2,go,750.0,600.0,1.0,,,,,,,,,green,square
0.0,1.0,0.5,0.0,5.0,5.0,929.2099809999854,4.0,1.0,phase_2,go,750.0,600.0,1.0,,,,,,,,,green,square
0.0,7.0,2.0,1.0,6.0,0.0,0.0,4.0,1.0,phase_2,stop,750.0,600.0,4.0,,,,,,,,,magenta,hexagon
0.0,8.0,4.0,1.0,5.0,5.0,1096.4682349999748,4.0,1.0,phase_2,go,750.0,650.0,1.0,,,,,,,,,blue,cross
0.0,2.0,1.0,0.0,6.0,6.0,890.001717999894,4.0,1.0,phase_2,go,750.0,650.0,1.0,,,,,,,,,white,flipped triangle
0.0,6.0,1.0,1.0,6.0,6.0,736.9507369999155,4.0,1.0,phase_2,go,750.0,650.0,1.0,,,,,,,,,cyan,triangle
0.0,6.0,1.0,1.0,5.0,5.0,832.8081269992254,4.0,1.0,phase_2,go,750.0,650.0,1.0,,,,,,,,,cyan,triangle
0.0,3.0,2.0,0.0,6.0,6.0,653.7577240005703,5.0,1.0,phase_2,go,750.0,650.0,1.0,,,,,,,,,gray,I
0.0,5.0,0.5,1.0,5.0,5.0,537.9058549997353,5.0,1.0,phase_2,stop,750.0,650.0,3.0,,,,,,,,,orange,circle
0.0,2.0,1.0,0.0,5.0,5.0,745.1886779999768,5.0,1.0,phase_2,go,700.0,650.0,1.0,,,,,,,,,white,flipped triangle
0.0,8.0,4.0,1.0,5.0,5.0,812.0522030003485,5.0,1.0,phase_2,stop,700.0,650.0,3.0,,,,,,,,,blue,cross
0.0,7.0,2.0,1.0,5.0,0.0,0.0,5.0,1.0,phase_2,stop,650.0,650.0,4.0,,,,,,,,,magenta,hexagon
0.0,2.0,1.0,0.0,5.0,5.0,941.9300920008028,5.0,1.0,phase_2,go,700.0,650.0,1.0,,,,,,,,,white,flipped triangle
0.0,6.0,1.0,1.0,6.0,6.0,726.0094309995111,5.0,1.0,phase_2,stop,700.0,650.0,3.0,,,,,,,,,cyan,triangle
0.0,7.0,2.0,1.0,6.0,6.0,1140.4846899995391,5.0,1.0,phase_2,go,700.0,600.0,1.0,,,,,,,,,magenta,hexagon
0.0,1.0,0.5,0.0,6.0,6.0,1282.6261790005449,5.0,1.0,phase_2,go,700.0,600.0,1.0,,,,,,,,,green,square
0.0,4.0,4.0,0.0,6.0,6.0,1123.2622039997295,5.0,1.0,phase_2,go,700.0,600.0,1.0,,,,,,,,,yellow,diamond
0.0,8.0,4.0,1.0,5.0,5.0,772.2989149997375,5.0,1.0,phase_2,go,700.0,600.0,1.0,,,,,,,,,blue,cross
0.0,1.0,0.5,0.0,6.0,6.0,823.3623260002787,5.0,1.0,phase_2,go,700.0,600.0,1.0,,,,,,,,,green,square
0.0,2.0,1.0,0.0,6.0,6.0,782.0676749997801,5.0,1.0,phase_2,go,700.0,600.0,1.0,,,,,,,,,white,flipped triangle
0.0,8.0,4.0,1.0,6.0,6.0,990.0823609996224,5.0,1.0,phase_2,go,700.0,600.0,1.0,,,,,,,,,blue,cross
0.0,8.0,4.0,1.0,5.0,5.0,1022.5563939993665,5.0,1.0,phase_2,go,700.0,600.0,1.0,,,,,,,,,blue,cross
0.0,8.0,4.0,1.0,5.0,0.0,0.0,5.0,1.0,phase_2,stop,700.0,600.0,4.0,,,,,,,,,blue,cross
0.0,1.0,0.5,0.0,6.0,6.0,1019.705882999915,5.0,1.0,phase_2,go,750.0,600.0,1.0,,,,,,,,,green,square
0.0,7.0,2.0,1.0,6.0,0.0,0.0,5.0,1.0,phase_2,stop,750.0,600.0,4.0,,,,,,,,,magenta,hexagon
0.0,5.0,0.5,1.0,5.0,0.0,0.0,5.0,1.0,phase_2,stop,750.0,650.0,4.0,,,,,,,,,orange,circle
0.0,1.0,0.5,0.0,6.0,6.0,1294.53966499932,5.0,1.0,phase_2,go,800.0,650.0,1.0,,,,,,,,,green,square
0.0,2.0,1.0,0.0,5.0,5.0,1237.4926160000539,5.0,1.0,phase_2,go,800.0,650.0,1.0,,,,,,,,,white,flipped triangle
0.0,4.0,4.0,0.0,5.0,5.0,1341.670895999414,5.0,1.0,phase_2,go,800.0,650.0,1.0,,,,,,,,,yellow,diamond
0.0,4.0,4.0,0.0,6.0,6.0,1256.4689580003687,5.0,1.0,phase_2,go,800.0,650.0,1.0,,,,,,,,,yellow,diamond
0.0,6.0,1.0,1.0,5.0,0.0,0.0,5.0,1.0,phase_2,stop,800.0,650.0,4.0,,,,,,,,,cyan,triangle
0.0,1.0,0.5,0.0,5.0,5.0,962.3358600001666,5.0,1.0,phase_2,go,850.0,650.0,1.0,,,,,,,,,green,square
0.0,2.0,1.0,0.0,6.0,6.0,829.666829999951,5.0,1.0,phase_2,go,850.0,650.0,1.0,,,,,,,,,white,flipped triangle
0.0,8.0,4.0,1.0,6.0,0.0,0.0,5.0,1.0,phase_2,stop,850.0,650.0,4.0,,,,,,,,,blue,cross
0.0,3.0,2.0,0.0,5.0,5.0,857.9787139997279,5.0,1.0,phase_2,go,850.0,700.0,1.0,,,,,,,,,gray,I
0.0,1.0,0.5,0.0,6.0,6.0,1020.6982210002025,5.0,1.0,phase_2,go,850.0,700.0,1.0,,,,,,,,,green,square
0.0,6.0,1.0,1.0,5.0,5.0,1046.7196529998546,5.0,1.0,phase_2,stop,850.0,700.0,3.0,,,,,,,,,cyan,triangle
0.0,5.0,0.5,1.0,5.0,0.0,0.0,5.0,1.0,phase_2,stop,800.0,700.0,4.0,,,,,,,,,orange,circle
0.0,3.0,2.0,0.0,6.0,6.0,1063.1595049999305,5.0,1.0,phase_2,go,850.0,700.0,1.0,,,,,,,,,gray,I
0.0,4.0,4.0,0.0,5.0,5.0,961.1083370000416,5.0,1.0,phase_2,go,850.0,700.0,1.0,,,,,,,,,yellow,diamond
0.0,5.0,0.5,1.0,5.0,5.0,970.260518000032,5.0,1.0,phase_2,stop,850.0,700.0,3.0,,,,,,,,,orange,circle
0.0,4.0,4.0,0.0,6.0,6.0,1434.2102999999042,5.0,1.0,phase_2,go,800.0,700.0,1.0,,,,,,,,,yellow,diamond
0.0,6.0,1.0,1.0,5.0,5.0,928.4756189999824,5.0,1.0,phase_2,stop,800.0,700.0,3.0,,,,,,,,,cyan,triangle
0.0,2.0,1.0,0.0,5.0,5.0,377.5558999996065,6.0,1.0,phase_2,go,750.0,700.0,1.0,,,,,,,,,white,flipped triangle
0.0,1.0,0.5,0.0,5.0,5.0,783.814304999396,6.0,1.0,phase_2,go,750.0,700.0,1.0,,,,,,,,,green,square
0.0,5.0,0.5,1.0,6.0,6.0,840.6624190001821,6.0,1.0,phase_2,go,750.0,700.0,1.0,,,,,,,,,orange,circle
0.0,5.0,0.5,1.0,6.0,6.0,770.9065929993812,6.0,1.0,phase_2,stop,750.0,700.0,3.0,,,,,,,,,orange,circle
0.0,1.0,0.5,0.0,5.0,5.0,952.8250430003028,6.0,1.0,phase_2,go,750.0,650.0,1.0,,,,,,,,,green,square
0.0,1.0,0.5,0.0,6.0,6.0,885.4936349998752,6.0,1.0,phase_2,go,750.0,650.0,1.0,,,,,,,,,green,square
0.0,7.0,2.0,1.0,5.0,0.0,0.0,6.0,1.0,phase_2,stop,750.0,650.0,4.0,,,,,,,,,magenta,hexagon
0.0,3.0,2.0,0.0,6.0,6.0,791.4176149997729,6.0,1.0,phase_2,go,800.0,650.0,1.0,,,,,,,,,gray,I
0.0,3.0,2.0,0.0,6.0,6.0,1141.1663050002971,6.0,1.0,phase_2,go,800.0,650.0,1.0,,,,,,,,,gray,I
0.0,5.0,0.5,1.0,6.0,0.0,0.0,6.0,1.0,phase_2,stop,800.0,650.0,4.0,,,,,,,,,orange,circle
0.0,2.0,1.0,0.0,6.0,6.0,859.3576709999979,6.0,1.0,phase_2,go,800.0,700.0,1.0,,,,,,,,,white,flipped triangle
0.0,8.0,4.0,1.0,5.0,5.0,912.8085990005276,6.0,1.0,phase_2,stop,800.0,700.0,3.0,,,,,,,,,blue,cross
0.0,6.0,1.0,1.0,5.0,0.0,0.0,6.0,1.0,phase_2,stop,750.0,700.0,4.0,,,,,,,,,cyan,triangle
0.0,4.0,4.0,0.0,6.0,6.0,1047.9829969999628,6.0,1.0,phase_2,go,800.0,700.0,1.0,,,,,,,,,yellow,diamond
0.0,4.0,4.0,0.0,5.0,5.0,1162.0135600005597,6.0,1.0,phase_2,go,800.0,700.0,1.0,,,,,,,,,yellow,diamond
0.0,1.0,0.5,0.0,5.0,5.0,1113.562276000266,6.0,1.0,phase_2,go,800.0,700.0,1.0,,,,,,,,,green,square
0.0,8.0,4.0,1.0,5.0,5.0,1049.3119359998673,6.0,1.0,phase_2,go,800.0,700.0,1.0,,,,,,,,,blue,cross
0.0,8.0,4.0,1.0,5.0,0.0,0.0,6.0,1.0,phase_2,stop,800.0,700.0,4.0,,,,,,,,,blue,cross
0.0,2.0,1.0,0.0,6.0,6.0,896.1366009998528,6.0,1.0,phase_2,go,850.0,700.0,1.0,,,,,,,,,white,flipped triangle
0.0,3.0,2.0,0.0,5.0,5.0,962.6887510003144,6.0,1.0,phase_2,go,850.0,700.0,1.0,,,,,,,,,gray,I
0.0,3.0,2.0,0.0,6.0,6.0,1019.6409229993151,6.0,1.0,phase_2,go,850.0,700.0,1.0,,,,,,,,,gray,I
0.0,3.0,2.0,0.0,5.0,5.0,1028.8424680002208,6.0,1.0,phase_2,go,850.0,700.0,1.0,,,,,,,,,gray,I
0.0,2.0,1.0,0.0,5.0,5.0,1057.3963420001746,6.0,1.0,phase_2,go,850.0,700.0,1.0,,,,,,,,,white,flipped triangle
0.0,7.0,2.0,1.0,5.0,5.0,1046.185694000087,6.0,1.0,phase_2,stop,850.0,700.0,3.0,,,,,,,,,magenta,hexagon
0.0,7.0,2.0,1.0,6.0,6.0,1130.083912000373,6.0,1.0,phase_2,go,800.0,700.0,1.0,,,,,,,,,magenta,hexagon
0.0,4.0,4.0,0.0,6.0,6.0,1103.7075189997267,6.0,1.0,phase_2,go,800.0,700.0,1.0,,,,,,,,,yellow,diamond
0.0,1.0,0.5,0.0,6.0,6.0,1171.637839000141,6.0,1.0,phase_2,go,800.0,700.0,1.0,,,,,,,,,green,square
0.0,7.0,2.0,1.0,5.0,0.0,0.0,6.0,1.0,phase_2,stop,800.0,700.0,4.0,,,,,,,,,magenta,hexagon
0.0,6.0,1.0,1.0,6.0,0.0,0.0,6.0,1.0,phase_2,stop,850.0,700.0,4.0,,,,,,,,,cyan,triangle
0.0,5.0,0.5,1.0,6.0,6.0,1275.0986940000075,6.0,1.0,phase_2,go,850.0,750.0,1.0,,,,,,,,,orange,circle
0.0,7.0,2.0,1.0,6.0,0.0,0.0,6.0,1.0,phase_2,stop,850.0,750.0,4.0,,,,,,,,,magenta,hexagon
0.0,2.0,1.0,0.0,6.0,6.0,1192.3823469996933,6.0,1.0,phase_2,go,850.0,800.0,1.0,,,,,,,,,white,flipped triangle
0.0,5.0,0.5,1.0,5.0,0.0,0.0,6.0,1.0,phase_2,stop,850.0,800.0,4.0,,,,,,,,,orange,circle
0.0,3.0,2.0,0.0,6.0,6.0,953.238223999506,6.0,1.0,phase_2,go,900.0,800.0,1.0,,,,,,,,,gray,I
0.0,4.0,4.0,0.0,6.0,0.0,0.0,6.0,1.0,phase_2,go,900.0,800.0,5.0,,,,,,,,,yellow,diamond
0.0,3.0,2.0,0.0,6.0,6.0,1124.3593139997756,6.0,1.0,phase_2,go,900.0,800.0,1.0,,,,,,,,,gray,I
0.0,3.0,2.0,0.0,5.0,5.0,377.1456889999172,7.0,1.0,phase_2,go,900.0,800.0,1.0,,,,,,,,,gray,I
0.0,1.0,0.5,0.0,6.0,6.0,660.1356909995957,7.0,1.0,phase_2,go,900.0,800.0,1.0,,,,,,,,,green,square
0.0,5.0,0.5,1.0,5.0,5.0,734.4576570003483,7.0,1.0,phase_2,stop,900.0,800.0,3.0,,,,,,,,,orange,circle
0.0,8.0,4.0,1.0,6.0,6.0,781.3953759996366,7.0,1.0,phase_2,stop,850.0,800.0,3.0,,,,,,,,,blue,cross
0.0,8.0,4.0,1.0,6.0,0.0,0.0,7.0,1.0,phase_2,stop,850.0,750.0,4.0,,,,,,,,,blue,cross
0.0,4.0,4.0,0.0,6.0,6.0,896.9414329994834,7.0,1.0,phase_2,go,850.0,800.0,1.0,,,,,,,,,yellow,diamond
0.0,8.0,4.0,1.0,6.0,0.0,0.0,7.0,1.0,phase_2,stop,850.0,800.0,4.0,,,,,,,,,blue,cross
0.0,5.0,0.5,1.0,5.0,5.0,1007.5745550002466,7.0,1.0,phase_2,stop,850.0,850.0,3.0,,,,,,,,,orange,circle
0.0,1.0,0.5,0.0,5.0,5.0,1375.2930319997176,7.0,1.0,phase_2,go,800.0,850.0,1.0,,,,,,,,,green,square
0.0,4.0,4.0,0.0,6.0,6.0,1263.7621200001377,7.0,1.0,phase_2,go,800.0,850.0,1.0,,,,,,,,,yellow,diamond
0.0,5.0,0.5,1.0,5.0,0.0,0.0,7.0,1.0,phase_2,stop,800.0,850.0,4.0,,,,,,,,,orange,circle
0.0,8.0,4.0,1.0,6.0,6.0,950.1192529996842,7.0,1.0,phase_2,go,850.0,850.0,1.0,,,,,,,,,blue,cross
0.0,3.0,2.0,0.0,5.0,5.0,932.7475500003856,7.0,1.0,phase_2,go,850.0,850.0,1.0,,,,,,,,,gray,I
0.0,1.0,0.5,0.0,6.0,6.0,1045.0570660004814,7.0,1.0,phase_2,go,850.0,850.0,1.0,,,,,,,,,green,square
0.0,7.0,2.0,1.0,5.0,0.0,0.0,7.0,1.0,phase_2,stop,850.0,850.0,4.0,,,,,,,,,magenta,hexagon
0.0,8.0,4.0,1.0,6.0,0.0,0.0,7.0,1.0,phase_2,stop,900.0,850.0,4.0,,,,,,,,,blue,cross
0.0,2.0,1.0,0.0,5.0,5.0,959.8146580001412,7.0,1.0,phase_2,go,900.0,900.0,1.0,,,,,,,,,white,flipped triangle
0.0,6.0,1.0,1.0,5.0,0.0,0.0,7.0,1.0,phase_2,stop,900.0,900.0,4.0,,,,,,,,,cyan,triangle
0.0,6.0,1.0,1.0,5.0,0.0,0.0,7.0,1.0,phase_2,stop,950.0,900.0,4.0,,,,,,,,,cyan,triangle
0.0,3.0,2.0,0.0,6.0,6.0,1024.1169710006943,7.0,1.0,phase_2,go,1000.0,900.0,1.0,,,,,,,,,gray,I
0.0,4.0,4.0,0.0,6.0,6.0,1457.499213999654,7.0,1.0,phase_2,go,1000.0,900.0,1.0,,,,,,,,,yellow,diamond
0.0,3.0,2.0,0.0,6.0,6.0,1166.7261720003808,7.0,1.0,phase_2,go,1000.0,900.0,1.0,,,,,,,,,gray,I
0.0,7.0,2.0,1.0,6.0,0.0,0.0,7.0,1.0,phase_2,stop,1000.0,900.0,4.0,,,,,,,,,magenta,hexagon
0.0,3.0,2.0,0.0,6.0,6.0,1461.4937830001509,7.0,1.0,phase_2,go,1000.0,950.0,1.0,,,,,,,,,gray,I
0.0,3.0,2.0,0.0,5.0,5.0,1483.0746070001624,7.0,1.0,phase_2,go,1000.0,950.0,1.0,,,,,,,,,gray,I
0.0,5.0,0.5,1.0,5.0,0.0,0.0,7.0,1.0,phase_2,stop,1000.0,950.0,4.0,,,,,,,,,orange,circle
0.0,8.0,4.0,1.0,5.0,0.0,0.0,7.0,1.0,phase_2,stop,1050.0,950.0,4.0,,,,,,,,,blue,cross
0.0,8.0,4.0,1.0,5.0,0.0,0.0,7.0,1.0,phase_2,stop,1100.0,950.0,4.0,,,,,,,,,blue,cross
0.0,5.0,0.5,1.0,6.0,6.0,1081.6196010000567,7.0,1.0,phase_2,go,1150.0,950.0,1.0,,,,,,,,,orange,circle
0.0,7.0,2.0,1.0,5.0,0.0,0.0,7.0,1.0,phase_2,stop,1150.0,950.0,4.0,,,,,,,,,magenta,hexagon
0.0,8.0,4.0,1.0,6.0,0.0,0.0,7.0,1.0,phase_2,stop,1200.0,950.0,4.0,,,,,,,,,blue,cross
0.0,5.0,0.5,1.0,5.0,5.0,1261.0440950002155,7.0,1.0,phase_2,stop,1200.0,1000.0,3.0,,,,,,,,,orange,circle
0.0,2.0,1.0,0.0,6.0,0.0,0.0,7.0,1.0,phase_2,go,1150.0,1000.0,5.0,,,,,,,,,white,flipped triangle
0.0,3.0,2.0,0.0,6.0,6.0,1177.1721220002291,7.0,1.0,phase_2,go,1150.0,1000.0,1.0,,,,,,,,,gray,I
0.0,8.0,4.0,1.0,5.0,0.0,0.0,7.0,1.0,phase_2,stop,1150.0,1000.0,4.0,,,,,,,,,blue,cross
0.0,7.0,2.0,1.0,6.0,6.0,1148.4393749997253,7.0,1.0,phase_2,stop,1200.0,1000.0,3.0,,,,,,,,,magenta,hexagon
0.0,4.0,4.0,0.0,6.0,6.0,1024.0267350000067,8.0,1.0,phase_2,go,1200.0,950.0,1.0,,,,,,,,,yellow,diamond
0.0,3.0,2.0,0.0,6.0,6.0,1193.3123190001425,8.0,1.0,phase_2,go,1200.0,950.0,1.0,,,,,,,,,gray,I
0.0,5.0,0.5,1.0,6.0,6.0,1028.023476999806,8.0,1.0,phase_2,stop,1200.0,950.0,3.0,,,,,,,,,orange,circle
0.0,1.0,0.5,0.0,5.0,0.0,0.0,8.0,1.0,phase_2,go,1200.0,900.0,5.0,,,,,,,,,green,square
0.0,2.0,1.0,0.0,5.0,5.0,1035.9175969997525,8.0,1.0,phase_2,go,1200.0,900.0,1.0,,,,,,,,,white,flipped triangle
0.0,5.0,0.5,1.0,6.0,0.0,0.0,8.0,1.0,phase_2,stop,1200.0,900.0,4.0,,,,,,,,,orange,circle
0.0,7.0,2.0,1.0,5.0,5.0,1291.1062370003492,8.0,1.0,phase_2,go,1200.0,950.0,1.0,,,,,,,,,magenta,hexagon
0.0,2.0,1.0,0.0,5.0,5.0,1074.189266999383,8.0,1.0,phase_2,go,1200.0,950.0,1.0,,,,,,,,,white,flipped triangle
0.0,5.0,0.5,1.0,6.0,6.0,1148.908592000225,8.0,1.0,phase_2,go,1200.0,950.0,1.0,,,,,,,,,orange,circle
0.0,4.0,4.0,0.0,5.0,5.0,1185.8696120007153,8.0,1.0,phase_2,go,1200.0,950.0,1.0,,,,,,,,,yellow,diamond
0.0,6.0,1.0,1.0,6.0,0.0,0.0,8.0,1.0,phase_2,stop,1200.0,950.0,4.0,,,,,,,,,cyan,triangle
0.0,5.0,0.5,1.0,6.0,0.0,0.0,8.0,1.0,phase_2,stop,1200.0,1000.0,4.0,,,,,,,,,orange,circle
0.0,7.0,2.0,1.0,6.0,6.0,1223.103952999736,8.0,1.0,phase_2,stop,1200.0,1050.0,3.0,,,,,,,,,magenta,hexagon
0.0,4.0,4.0,0.0,6.0,0.0,0.0,8.0,1.0,phase_2,go,1200.0,1000.0,5.0,,,,,,,,,yellow,diamond
0.0,4.0,4.0,0.0,5.0,5.0,1302.4602759996924,8.0,1.0,phase_2,go,1200.0,1000.0,1.0,,,,,,,,,yellow,diamond
0.0,8.0,4.0,1.0,6.0,0.0,0.0,8.0,1.0,phase_2,stop,1200.0,1000.0,4.0,,,,,,,,,blue,cross
0.0,1.0,0.5,0.0,6.0,6.0,1244.1324020001048,8.0,1.0,phase_2,go,1200.0,1050.0,1.0,,,,,,,,,green,square
0.0,4.0,4.0,0.0,5.0,5.0,1336.0824789997423,8.0,1.0,phase_2,go,1200.0,1050.0,1.0,,,,,,,,,yellow,diamond
0.0,7.0,2.0,1.0,6.0,0.0,0.0,8.0,1.0,phase_2,stop,1200.0,1050.0,4.0,,,,,,,,,magenta,hexagon
0.0,5.0,0.5,1.0,6.0,0.0,0.0,8.0,1.0,phase_2,stop,1200.0,1100.0,4.0,,,,,,,,,orange,circle
0.0,8.0,4.0,1.0,5.0,0.0,0.0,8.0,1.0,phase_2,stop,1200.0,1150.0,4.0,,,,,,,,,blue,cross
0.0,5.0,0.5,1.0,6.0,6.0,1375.2313420000064,8.0,1.0,phase_2,go,1250.0,1150.0,1.0,,,,,,,,,orange,circle
0.0,4.0,4.0,0.0,5.0,0.0,0.0,8.0,1.0,phase_2,go,1250.0,1150.0,5.0,,,,,,,,,yellow,diamond
0.0,2.0,1.0,0.0,6.0,6.0,622.1706369997264,8.0,1.0,phase_2,go,1250.0,1150.0,1.0,,,,,,,,,white,flipped triangle
0.0,1.0,0.5,0.0,5.0,5.0,867.0360099995378,8.0,1.0,phase_2,go,1250.0,1150.0,1.0,,,,,,,,,green,square
0.0,1.0,0.5,0.0,6.0,6.0,1141.9947330005016,8.0,1.0,phase_2,go,1250.0,1150.0,1.0,,,,,,,,,green,square
0.0,6.0,1.0,1.0,5.0,5.0,874.9610489994666,8.0,1.0,phase_2,stop,1250.0,1150.0,3.0,,,,,,,,,cyan,triangle
0.0,4.0,4.0,0.0,5.0,0.0,0.0,8.0,1.0,phase_2,go,1200.0,1150.0,5.0,,,,,,,,,yellow,diamond
0.0,5.0,0.5,1.0,6.0,6.0,837.9606600001352,8.0,1.0,phase_2,stop,1200.0,1150.0,3.0,,,,,,,,,orange,circle
0.0,3.0,2.0,0.0,6.0,6.0,601.60772800009,8.0,1.0,phase_2,go,1200.0,1100.0,1.0,,,,,,,,,gray,I
0.0,3.0,2.0,0.0,5.0,5.0,518.9802760005477,8.0,1.0,phase_2,go,1200.0,1100.0,1.0,,,,,,,,,gray,I
0.0,6.0,1.0,1.0,6.0,6.0,744.7305280002183,8.0,1.0,phase_2,stop,1200.0,1100.0,3.0,,,,,,,,,cyan,triangle
0.0,6.0,1.0,1.0,6.0,6.0,499.4552739999562,8.0,1.0,phase_2,stop,1200.0,1050.0,3.0,,,,,,,,,cyan,triangle
0.0,7.0,2.0,1.0,5.0,5.0,820.701327000279,8.0,1.0,phase_2,stop,1200.0,1000.0,3.0,,,,,,,,,magenta,hexagon
0.0,7.0,2.0,1.0,5.0,5.0,1167.6793960004943,8.0,1.0,phase_2,go,1150.0,1000.0,1.0,,,,,,,,,magenta,hexagon
0.0,6.0,1.0,1.0,6.0,0.0,0.0,8.0,1.0,phase_2,stop,1150.0,1000.0,4.0,,,,,,,,,cyan,triangle
0.0,5.0,0.5,1.0,7.0,5.0,1717.3190180001257,1.0,2.0,phase_3,,,,,960.0,5.0,576.0,192.0,384.0,1152.0,960.0,768.0,orange,circle
0.0,7.0,2.0,1.0,7.0,4.0,3751.784549000149,1.0,1.0,phase_3,,,,,576.0,3.0,768.0,960.0,1152.0,576.0,384.0,192.0,magenta,hexagon
0.0,3.0,2.0,0.0,7.0,4.0,3361.219533999247,1.0,1.0,phase_3,,,,,768.0,4.0,576.0,384.0,192.0,768.0,960.0,1152.0,gray,I
0.0,2.0,1.0,0.0,7.0,6.0,2680.390597999576,1.0,1.0,phase_3,,,,,519.0,3.0,1038.0,346.0,865.0,692.0,173.0,519.0,white,flipped triangle
0.0,7.0,2.0,1.0,7.0,2.0,1947.7583039997623,1.0,1.0,phase_3,,,,,540.0,4.0,675.0,540.0,135.0,270.0,810.0,405.0,magenta,hexagon
0.0,8.0,4.0,1.0,7.0,1.0,2898.214349999762,1.0,1.0,phase_3,,,,,960.0,5.0,960.0,576.0,192.0,768.0,1152.0,384.0,blue,cross
0.0,3.0,2.0,0.0,7.0,6.0,1891.937395000241,1.0,1.0,phase_3,,,,,464.0,4.0,232.0,116.0,696.0,580.0,348.0,464.0,gray,I
0.0,5.0,0.5,1.0,7.0,2.0,1656.021865999719,1.0,1.0,phase_3,,,,,519.0,3.0,692.0,519.0,173.0,346.0,865.0,1038.0,orange,circle
0.0,8.0,4.0,1.0,7.0,1.0,2007.458004,1.0,1.0,phase_3,,,,,810.0,6.0,810.0,405.0,675.0,135.0,540.0,270.0,blue,cross
0.0,3.0,2.0,0.0,7.0,5.0,1622.5191060002544,1.0,1.0,phase_3,,,,,519.0,3.0,692.0,346.0,865.0,1038.0,519.0,173.0,gray,I
0.0,7.0,2.0,1.0,7.0,2.0,1066.4079090001906,1.0,1.0,phase_3,,,,,696.0,6.0,116.0,696.0,580.0,348.0,232.0,464.0,magenta,hexagon
0.0,2.0,1.0,0.0,7.0,3.0,1554.994111999804,1.0,1.0,phase_3,,,,,692.0,4.0,173.0,519.0,692.0,346.0,865.0,1038.0,white,flipped triangle
0.0,1.0,0.5,0.0,7.0,5.0,1294.1038019998814,1.0,1.0,phase_3,,,,,1038.0,6.0,865.0,346.0,519.0,173.0,1038.0,692.0,green,square
0.0,2.0,1.0,0.0,7.0,1.0,1408.1502660001206,1.0,1.0,phase_3,,,,,924.0,6.0,924.0,308.0,616.0,462.0,154.0,770.0,white,flipped triangle
0.0,8.0,4.0,1.0,7.0,3.0,2817.7413960002013,1.0,1.0,phase_3,,,,,384.0,2.0,1152.0,960.0,384.0,576.0,192.0,768.0,blue,cross
0.0,8.0,4.0,1.0,7.0,1.0,1575.2424699994665,1.0,1.0,phase_3,,,,,346.0,2.0,346.0,865.0,519.0,1038.0,692.0,173.0,blue,cross
0.0,3.0,2.0,0.0,7.0,5.0,1290.940242000033,1.0,1.0,phase_3,,,,,696.0,6.0,232.0,580.0,348.0,464.0,696.0,116.0,gray,I
0.0,6.0,1.0,1.0,7.0,2.0,844.2966479997267,1.0,1.0,phase_3,,,,,768.0,4.0,1152.0,768.0,960.0,576.0,192.0,384.0,cyan,triangle
0.0,1.0,0.5,0.0,7.0,4.0,1444.4199189993014,1.0,1.0,phase_3,,,,,1038.0,6.0,173.0,865.0,346.0,1038.0,519.0,692.0,green,square
0.0,4.0,4.0,0.0,7.0,6.0,1271.7689020000762,1.0,1.0,phase_3,,,,,405.0,3.0,135.0,810.0,675.0,270.0,540.0,405.0,yellow,diamond
0.0,4.0,4.0,0.0,7.0,4.0,1290.9893260002718,2.0,1.0,phase_3,,,,,462.0,3.0,308.0,616.0,924.0,462.0,154.0,770.0,yellow,diamond
0.0,1.0,0.5,0.0,7.0,1.0,858.4906709993447,2.0,1.0,phase_3,,,,,810.0,6.0,810.0,135.0,270.0,405.0,675.0,540.0,green,square
0.0,8.0,4.0,1.0,7.0,1.0,2235.2314669997213,2.0,1.0,phase_3,,,,,696.0,6.0,696.0,464.0,580.0,348.0,232.0,116.0,blue,cross
0.0,4.0,4.0,0.0,7.0,2.0,1489.8585319997435,2.0,1.0,phase_3,,,,,308.0,2.0,770.0,308.0,924.0,154.0,616.0,462.0,yellow,diamond
0.0,3.0,2.0,0.0,7.0,1.0,1317.4971650005318,2.0,1.0,phase_3,,,,,154.0,1.0,154.0,462.0,770.0,924.0,308.0,616.0,gray,I
0.0,1.0,0.5,0.0,7.0,5.0,729.9667019997287,2.0,1.0,phase_3,,,,,464.0,4.0,580.0,232.0,116.0,348.0,464.0,696.0,green,square
0.0,5.0,0.5,1.0,7.0,2.0,1880.0058349997928,2.0,1.0,phase_3,,,,,308.0,2.0,924.0,308.0,616.0,462.0,770.0,154.0,orange,circle
0.0,2.0,1.0,0.0,7.0,2.0,1385.732229000496,2.0,1.0,phase_3,,,,,616.0,4.0,770.0,616.0,462.0,924.0,154.0,308.0,white,flipped triangle
0.0,1.0,0.5,0.0,7.0,6.0,1112.5334790003762,2.0,1.0,phase_3,,,,,810.0,6.0,135.0,675.0,270.0,405.0,540.0,810.0,green,square
0.0,4.0,4.0,0.0,7.0,4.0,964.0416180000102,2.0,1.0,phase_3,,,,,675.0,5.0,405.0,270.0,540.0,675.0,135.0,810.0,yellow,diamond
0.0,3.0,2.0,0.0,7.0,4.0,1507.345637999606,2.0,1.0,phase_3,,,,,154.0,1.0,462.0,770.0,616.0,154.0,924.0,308.0,gray,I
0.0,1.0,0.5,0.0,7.0,1.0,1487.6470110002629,2.0,1.0,phase_3,,,,,348.0,3.0,348.0,580.0,464.0,116.0,232.0,696.0,green,square
0.0,1.0,0.5,0.0,7.0,5.0,1328.0496790002871,2.0,1.0,phase_3,,,,,462.0,3.0,308.0,154.0,616.0,770.0,462.0,924.0,green,square
0.0,6.0,1.0,1.0,7.0,3.0,1020.0268270000381,2.0,1.0,phase_3,,,,,675.0,5.0,405.0,270.0,675.0,135.0,810.0,540.0,cyan,triangle
0.0,7.0,2.0,1.0,7.0,3.0,1086.9366779998018,2.0,1.0,phase_3,,,,,924.0,6.0,154.0,462.0,924.0,308.0,770.0,616.0,magenta,hexagon
0.0,4.0,4.0,0.0,7.0,2.0,1215.3593559996807,2.0,1.0,phase_3,,,,,580.0,5.0,232.0,580.0,696.0,116.0,464.0,348.0,yellow,diamond
0.0,3.0,2.0,0.0,7.0,1.0,1185.6193760004317,2.0,1.0,phase_3,,,,,135.0,1.0,135.0,675.0,810.0,270.0,405.0,540.0,gray,I
0.0,5.0,0.5,1.0,7.0,2.0,1685.6406000006243,2.0,1.0,phase_3,,,,,462.0,3.0,616.0,462.0,770.0,154.0,924.0,308.0,orange,circle
0.0,7.0,2.0,1.0,7.0,2.0,1261.5578979994098,2.0,1.0,phase_3,,,,,810.0,6.0,405.0,810.0,135.0,540.0,675.0,270.0,magenta,hexagon
0.0,4.0,4.0,0.0,7.0,5.0,1002.390531999481,2.0,1.0,phase_3,,,,,865.0,5.0,346.0,519.0,692.0,1038.0,865.0,173.0,yellow,diamond
0.0,1.0,0.5,0.0,7.0,1.0,1564.7078849997342,3.0,1.0,phase_3,,,,,768.0,4.0,768.0,192.0,384.0,576.0,960.0,1152.0,green,square
0.0,2.0,1.0,0.0,7.0,6.0,1601.2019130002957,3.0,1.0,phase_3,,,,,384.0,2.0,960.0,1152.0,768.0,192.0,576.0,384.0,white,flipped triangle
0.0,2.0,1.0,0.0,7.0,1.0,1067.3332440001104,3.0,1.0,phase_3,,,,,405.0,3.0,405.0,810.0,270.0,675.0,540.0,135.0,white,flipped triangle
0.0,8.0,4.0,1.0,7.0,1.0,1336.7891719999534,3.0,1.0,phase_3,,,,,770.0,5.0,770.0,462.0,308.0,924.0,616.0,154.0,blue,cross
0.0,6.0,1.0,1.0,7.0,5.0,664.8917399998027,3.0,1.0,phase_3,,,,,576.0,3.0,384.0,192.0,768.0,1152.0,576.0,960.0,cyan,triangle
0.0,2.0,1.0,0.0,7.0,2.0,1028.3274910007094,3.0,1.0,phase_3,,,,,116.0,1.0,464.0,116.0,696.0,580.0,348.0,232.0,white,flipped triangle
0.0,7.0,2.0,1.0,7.0,2.0,1010.9048679996704,3.0,1.0,phase_3,,,,,770.0,5.0,462.0,770.0,616.0,154.0,308.0,924.0,magenta,hexagon
0.0,5.0,0.5,1.0,7.0,2.0,1552.785658000175,3.0,1.0,phase_3,,,,,675.0,5.0,270.0,675.0,405.0,540.0,135.0,810.0,orange,circle
0.0,6.0,1.0,1.0,7.0,5.0,1246.1524829996051,3.0,1.0,phase_3,,,,,464.0,4.0,116.0,232.0,348.0,580.0,464.0,696.0,cyan,triangle
0.0,7.0,2.0,1.0,7.0,2.0,823.8172390001637,3.0,1.0,phase_3,,,,,692.0,4.0,1038.0,692.0,865.0,519.0,346.0,173.0,magenta,hexagon
0.0,5.0,0.5,1.0,7.0,3.0,702.876701000605,3.0,1.0,phase_3,,,,,348.0,3.0,580.0,116.0,348.0,464.0,232.0,696.0,orange,circle
0.0,6.0,1.0,1.0,7.0,5.0,1161.530479999783,3.0,1.0,phase_3,,,,,308.0,2.0,616.0,462.0,154.0,924.0,308.0,770.0,cyan,triangle
0.0,6.0,1.0,1.0,7.0,1.0,1320.8579839993035,3.0,1.0,phase_3,,,,,346.0,2.0,346.0,865.0,1038.0,692.0,173.0,519.0,cyan,triangle
0.0,2.0,1.0,0.0,7.0,5.0,769.4560959998853,3.0,1.0,phase_3,,,,,270.0,2.0,405.0,675.0,810.0,540.0,270.0,135.0,white,flipped triangle
0.0,1.0,0.5,0.0,7.0,2.0,1329.7000060001665,3.0,1.0,phase_3,,,,,768.0,4.0,960.0,768.0,576.0,192.0,384.0,1152.0,green,square
0.0,7.0,2.0,1.0,7.0,5.0,693.7920450000092,3.0,1.0,phase_3,,,,,576.0,3.0,192.0,1152.0,768.0,960.0,576.0,384.0,magenta,hexagon
0.0,5.0,0.5,1.0,7.0,3.0,1328.199767000115,3.0,1.0,phase_3,,,,,540.0,4.0,810.0,675.0,540.0,135.0,270.0,405.0,orange,circle
0.0,8.0,4.0,1.0,7.0,4.0,1629.268018999937,3.0,1.0,phase_3,,,,,405.0,3.0,675.0,810.0,540.0,405.0,270.0,135.0,blue,cross
0.0,8.0,4.0,1.0,7.0,4.0,1210.279122999964,3.0,1.0,phase_3,,,,,519.0,3.0,173.0,346.0,865.0,519.0,1038.0,692.0,blue,cross
0.0,4.0,4.0,0.0,7.0,3.0,1544.7791449996655,3.0,1.0,phase_3,,,,,1152.0,6.0,576.0,384.0,1152.0,960.0,768.0,192.0,yellow,diamond
0.0,4.0,4.0,0.0,7.0,3.0,1405.740814000637,4.0,1.0,phase_3,,,,,580.0,5.0,232.0,348.0,580.0,696.0,116.0,464.0,yellow,diamond
0.0,5.0,0.5,1.0,7.0,5.0,638.493844999175,4.0,1.0,phase_3,,,,,519.0,3.0,692.0,865.0,173.0,346.0,519.0,1038.0,orange,circle
0.0,6.0,1.0,1.0,7.0,1.0,693.9966809995894,4.0,1.0,phase_3,,,,,464.0,4.0,464.0,696.0,580.0,232.0,116.0,348.0,cyan,triangle
0.0,6.0,1.0,1.0,7.0,6.0,674.8947890000636,4.0,1.0,phase_3,,,,,865.0,5.0,346.0,173.0,692.0,519.0,1038.0,865.0,cyan,triangle
0.0,3.0,2.0,0.0,7.0,3.0,879.8270750003212,4.0,1.0,phase_3,,,,,192.0,1.0,960.0,576.0,192.0,1152.0,768.0,384.0,gray,I
0.0,7.0,2.0,1.0,7.0,5.0,1275.120225000137,4.0,1.0,phase_3,,,,,696.0,6.0,348.0,464.0,580.0,116.0,696.0,232.0,magenta,hexagon
0.0,4.0,4.0,0.0,7.0,2.0,607.0610380002108,4.0,1.0,phase_3,,,,,865.0,5.0,346.0,865.0,692.0,519.0,1038.0,173.0,yellow,diamond
0.0,5.0,0.5,1.0,7.0,4.0,525.3944740006773,4.0,1.0,phase_3,,,,,768.0,4.0,1152.0,384.0,960.0,768.0,192.0,576.0,orange,circle
0.0,4.0,4.0,0.0,7.0,6.0,543.2090379999863,4.0,1.0,phase_3,,,,,768.0,4.0,960.0,576.0,1152.0,384.0,192.0,768.0,yellow,diamond
0.0,3.0,2.0,0.0,7.0,3.0,1348.4517520000736,4.0,1.0,phase_3,,,,,346.0,2.0,865.0,692.0,346.0,1038.0,519.0,173.0,gray,I
0.0,6.0,1.0,1.0,7.0,6.0,1191.5175989997806,4.0,1.0,phase_3,,,,,270.0,2.0,675.0,405.0,810.0,540.0,135.0,270.0,cyan,triangle
0.0,2.0,1.0,0.0,7.0,4.0,1020.2793449998353,4.0,1.0,phase_3,,,,,768.0,4.0,1152.0,384.0,192.0,768.0,960.0,576.0,white,flipped triangle
0.0,8.0,4.0,1.0,7.0,2.0,844.0854450000188,4.0,1.0,phase_3,,,,,616.0,4.0,462.0,616.0,924.0,308.0,770.0,154.0,blue,cross
0.0,3.0,2.0,0.0,7.0,1.0,1097.5790020002023,4.0,1.0,phase_3,,,,,810.0,6.0,810.0,675.0,270.0,135.0,540.0,405.0,gray,I
0.0,1.0,0.5,0.0,7.0,6.0,788.524986000084,4.0,1.0,phase_3,,,,,924.0,6.0,154.0,770.0,308.0,616.0,462.0,924.0,green,square
0.0,6.0,1.0,1.0,7.0,5.0,656.4578360002997,4.0,1.0,phase_3,,,,,462.0,3.0,770.0,154.0,616.0,924.0,462.0,308.0,cyan,triangle
0.0,7.0,2.0,1.0,7.0,3.0,833.1867090000742,4.0,1.0,phase_3,,,,,1038.0,6.0,865.0,346.0,1038.0,519.0,692.0,173.0,magenta,hexagon
0.0,5.0,0.5,1.0,7.0,4.0,1398.0033340003502,4.0,1.0,phase_3,,,,,348.0,3.0,464.0,232.0,116.0,348.0,696.0,580.0,orange,circle
0.0,2.0,1.0,0.0,7.0,5.0,906.723408000289,4.0,1.0,phase_3,,,,,580.0,5.0,348.0,696.0,464.0,232.0,580.0,116.0,white,flipped triangle
0.0,8.0,4.0,1.0,7.0,2.0,775.4517509993093,4.0,1.0,phase_3,,,,,232.0,2.0,348.0,232.0,696.0,580.0,116.0,464.0,blue,cross
