raw_reward_magnitude,stim_reward,stepwise_reward_magnitude,paired_with_stopping,stim_location,response,reaction_time,block,num_trial_presentations,which_phase,stop_signal_trial_type,left_SSD,right_SSD,accuracy,chosen_bidding_amount,chosen_bidding_level,possible_bid_1,possible_bid_2,possible_bid_3,possible_bid_4,possible_bid_5,possible_bid_6,color_text,shape_text
0.0,8.0,0.0,1.0,1.0,1.0,474.4565519999923,1.0,1.0,phase_1,,,,,,,,,,,,,yellow,flipped triangle
169.0,1.0,0.5,0.0,1.0,1.0,399.6252869997079,1.0,1.0,phase_1,,,,,,,,,,,,,orange,cross
305.0,6.0,1.0,1.0,3.0,3.0,401.6283539999676,1.0,1.0,phase_1,,,,,,,,,,,,,gray,circle
663.0,7.0,2.0,1.0,1.0,1.0,845.02878100011,1.0,2.0,phase_1,,,,,,,,,,,,,magenta,square
643.0,3.0,2.0,0.0,2.0,2.0,530.3102429998034,1.0,2.0,phase_1,,,,,,,,,,,,,green,triangle
305.0,6.0,1.0,1.0,1.0,1.0,455.5489280000984,1.0,1.0,phase_1,,,,,,,,,,,,,gray,circle
630.0,3.0,2.0,0.0,2.0,2.0,717.0354300001236,1.0,1.0,phase_1,,,,,,,,,,,,,green,triangle
639.0,7.0,2.0,1.0,1.0,1.0,600.1978959998269,1.0,1.0,phase_1,,,,,,,,,,,,,magenta,square
643.0,3.0,2.0,0.0,3.0,3.0,444.2363060002208,1.0,1.0,phase_1,,,,,,,,,,,,,green,triangle
1280.0,4.0,4.0,0.0,2.0,2.0,558.6216709998553,1.0,1.0,phase_1,,,,,,,,,,,,,cyan,I
1312.0,4.0,4.0,0.0,3.0,3.0,371.6944130001138,1.0,1.0,phase_1,,,,,,,,,,,,,cyan,I
0.0,6.0,0.0,1.0,2.0,2.0,448.3903830000599,1.0,1.0,phase_1,,,,,,,,,,,,,gray,circle
674.0,7.0,2.0,1.0,3.0,3.0,461.451100999966,1.0,1.0,phase_1,,,,,,,,,,,,,magenta,square
322.0,6.0,1.0,1.0,4.0,4.0,468.3108920003178,1.0,1.0,phase_1,,,,,,,,,,,,,gray,circle
632.0,7.0,2.0,1.0,4.0,4.0,611.9075790002171,1.0,1.0,phase_1,,,,,,,,,,,,,magenta,square
337.0,6.0,1.0,1.0,3.0,3.0,398.5013500000605,1.0,1.0,phase_1,,,,,,,,,,,,,gray,circle
169.0,5.0,0.5,1.0,2.0,2.0,595.2309610001976,1.0,1.0,phase_1,,,,,,,,,,,,,blue,diamond
311.0,2.0,1.0,0.0,2.0,2.0,471.3367640001706,1.0,1.0,phase_1,,,,,,,,,,,,,white,hexagon
1297.0,8.0,4.0,1.0,2.0,2.0,370.8009130000391,1.0,1.0,phase_1,,,,,,,,,,,,,yellow,flipped triangle
349.0,6.0,1.0,1.0,2.0,2.0,371.2425349999648,1.0,1.0,phase_1,,,,,,,,,,,,,gray,circle
0.0,4.0,0.0,0.0,2.0,2.0,362.6059959997292,1.0,1.0,phase_1,,,,,,,,,,,,,cyan,I
631.0,7.0,2.0,1.0,2.0,2.0,353.208700000323,1.0,1.0,phase_1,,,,,,,,,,,,,magenta,square
165.0,5.0,0.5,1.0,2.0,2.0,325.5322509999132,1.0,1.0,phase_1,,,,,,,,,,,,,blue,diamond
0.0,5.0,0.0,1.0,1.0,1.0,501.51082499996846,1.0,1.0,phase_1,,,,,,,,,,,,,blue,diamond
0.0,2.0,0.0,0.0,2.0,2.0,500.0149219999912,1.0,1.0,phase_1,,,,,,,,,,,,,white,hexagon
632.0,7.0,2.0,1.0,2.0,2.0,398.8415410003654,1.0,1.0,phase_1,,,,,,,,,,,,,magenta,square
0.0,7.0,0.0,1.0,2.0,2.0,333.25303699984937,1.0,1.0,phase_1,,,,,,,,,,,,,magenta,square
630.0,7.0,2.0,1.0,3.0,3.0,417.3413000003165,1.0,1.0,phase_1,,,,,,,,,,,,,magenta,square
180.0,1.0,0.5,0.0,2.0,2.0,398.5312230001909,1.0,1.0,phase_1,,,,,,,,,,,,,orange,cross
179.0,5.0,0.5,1.0,4.0,4.0,741.7580520000229,1.0,1.0,phase_1,,,,,,,,,,,,,blue,diamond
160.0,1.0,0.5,0.0,4.0,4.0,464.6238430000267,1.0,1.0,phase_1,,,,,,,,,,,,,orange,cross
344.0,6.0,1.0,1.0,2.0,2.0,509.5431360000475,1.0,1.0,phase_1,,,,,,,,,,,,,gray,circle
1290.0,8.0,4.0,1.0,1.0,1.0,555.5426800001442,1.0,1.0,phase_1,,,,,,,,,,,,,yellow,flipped triangle
334.0,2.0,1.0,0.0,3.0,3.0,373.0491060000531,1.0,1.0,phase_1,,,,,,,,,,,,,white,hexagon
316.0,2.0,1.0,0.0,2.0,2.0,429.9064839997299,1.0,1.0,phase_1,,,,,,,,,,,,,white,hexagon
141.0,1.0,0.5,0.0,2.0,2.0,370.0472999998965,1.0,1.0,phase_1,,,,,,,,,,,,,orange,cross
670.0,7.0,2.0,1.0,4.0,4.0,427.1352450000449,1.0,1.0,phase_1,,,,,,,,,,,,,magenta,square
664.0,7.0,2.0,1.0,2.0,2.0,315.2818079997814,1.0,1.0,phase_1,,,,,,,,,,,,,magenta,square
147.0,1.0,0.5,0.0,3.0,3.0,370.0129990002097,1.0,1.0,phase_1,,,,,,,,,,,,,orange,cross
310.0,6.0,1.0,1.0,2.0,2.0,491.5958680003314,1.0,1.0,phase_1,,,,,,,,,,,,,gray,circle
0.0,2.0,0.0,0.0,4.0,4.0,455.468295999708,1.0,1.0,phase_1,,,,,,,,,,,,,white,hexagon
643.0,7.0,2.0,1.0,3.0,3.0,380.079207000108,1.0,1.0,phase_1,,,,,,,,,,,,,magenta,square
643.0,7.0,2.0,1.0,3.0,3.0,407.6591289999669,1.0,1.0,phase_1,,,,,,,,,,,,,magenta,square
1305.0,8.0,4.0,1.0,2.0,2.0,371.2407769999117,1.0,1.0,phase_1,,,,,,,,,,,,,yellow,flipped triangle
186.0,5.0,0.5,1.0,1.0,1.0,528.411485000106,1.0,1.0,phase_1,,,,,,,,,,,,,blue,diamond
675.0,7.0,2.0,1.0,2.0,2.0,491.0995459999867,1.0,1.0,phase_1,,,,,,,,,,,,,magenta,square
651.0,3.0,2.0,0.0,1.0,1.0,511.65209999999206,1.0,1.0,phase_1,,,,,,,,,,,,,green,triangle
0.0,3.0,0.0,0.0,4.0,4.0,613.5907869997936,1.0,1.0,phase_1,,,,,,,,,,,,,green,triangle
0.0,8.0,0.0,1.0,2.0,2.0,344.363992000126,1.0,1.0,phase_1,,,,,,,,,,,,,yellow,flipped triangle
0.0,4.0,0.0,0.0,3.0,3.0,408.7800739998783,1.0,1.0,phase_1,,,,,,,,,,,,,cyan,I
643.0,7.0,2.0,1.0,4.0,4.0,473.1014240001059,1.0,1.0,phase_1,,,,,,,,,,,,,magenta,square
1292.0,4.0,4.0,0.0,2.0,2.0,381.1556690002362,1.0,1.0,phase_1,,,,,,,,,,,,,cyan,I
340.0,6.0,1.0,1.0,3.0,3.0,398.3245819999865,1.0,1.0,phase_1,,,,,,,,,,,,,gray,circle
142.0,1.0,0.5,0.0,4.0,4.0,363.0993329998091,1.0,1.0,phase_1,,,,,,,,,,,,,orange,cross
1280.0,4.0,4.0,0.0,3.0,3.0,361.5020299998832,1.0,1.0,phase_1,,,,,,,,,,,,,cyan,I
1305.0,8.0,4.0,1.0,2.0,2.0,548.6590069999693,1.0,1.0,phase_1,,,,,,,,,,,,,yellow,flipped triangle
320.0,2.0,1.0,0.0,4.0,4.0,443.4025610003118,1.0,1.0,phase_1,,,,,,,,,,,,,white,hexagon
323.0,6.0,1.0,1.0,2.0,2.0,520.5585260000589,1.0,1.0,phase_1,,,,,,,,,,,,,gray,circle
145.0,5.0,0.5,1.0,3.0,3.0,390.8620309998696,1.0,1.0,phase_1,,,,,,,,,,,,,blue,diamond
1277.0,4.0,4.0,0.0,4.0,4.0,380.0388989998282,1.0,1.0,phase_1,,,,,,,,,,,,,cyan,I
333.0,6.0,1.0,1.0,1.0,1.0,557.3839910002789,1.0,1.0,phase_1,,,,,,,,,,,,,gray,circle
0.0,5.0,0.0,1.0,4.0,4.0,483.1457830000545,1.0,1.0,phase_1,,,,,,,,,,,,,blue,diamond
1323.0,4.0,4.0,0.0,2.0,2.0,585.446298000079,1.0,1.0,phase_1,,,,,,,,,,,,,cyan,I
664.0,3.0,2.0,0.0,2.0,2.0,408.6038240002381,1.0,1.0,phase_1,,,,,,,,,,,,,green,triangle
1321.0,8.0,4.0,1.0,2.0,2.0,315.9571149999465,1.0,1.0,phase_1,,,,,,,,,,,,,yellow,flipped triangle
0.0,2.0,0.0,0.0,4.0,4.0,344.10827800002147,1.0,1.0,phase_1,,,,,,,,,,,,,white,hexagon
0.0,5.0,0.0,1.0,2.0,2.0,390.5284369998298,1.0,1.0,phase_1,,,,,,,,,,,,,blue,diamond
1307.0,4.0,4.0,0.0,4.0,4.0,557.4335279998195,1.0,1.0,phase_1,,,,,,,,,,,,,cyan,I
0.0,4.0,0.0,0.0,1.0,1.0,744.2825989996891,1.0,1.0,phase_1,,,,,,,,,,,,,cyan,I
0.0,8.0,0.0,1.0,1.0,1.0,565.6841499999246,1.0,1.0,phase_1,,,,,,,,,,,,,yellow,flipped triangle
661.0,7.0,2.0,1.0,2.0,2.0,454.1469069999948,1.0,1.0,phase_1,,,,,,,,,,,,,magenta,square
672.0,3.0,2.0,0.0,1.0,1.0,589.5554950002406,1.0,1.0,phase_1,,,,,,,,,,,,,green,triangle
169.0,1.0,0.5,0.0,2.0,2.0,843.1484439997803,1.0,1.0,phase_1,,,,,,,,,,,,,orange,cross
646.0,3.0,2.0,0.0,3.0,3.0,423.8302469998416,1.0,1.0,phase_1,,,,,,,,,,,,,green,triangle
1303.0,8.0,4.0,1.0,1.0,1.0,564.8444020002898,1.0,1.0,phase_1,,,,,,,,,,,,,yellow,flipped triangle
631.0,3.0,2.0,0.0,2.0,2.0,416.8956839998827,1.0,2.0,phase_1,,,,,,,,,,,,,green,triangle
654.0,7.0,2.0,1.0,3.0,3.0,470.2036730000145,1.0,1.0,phase_1,,,,,,,,,,,,,magenta,square
143.0,1.0,0.5,0.0,4.0,4.0,509.6366359998683,1.0,1.0,phase_1,,,,,,,,,,,,,orange,cross
1324.0,8.0,4.0,1.0,1.0,1.0,510.4258460000892,1.0,1.0,phase_1,,,,,,,,,,,,,yellow,flipped triangle
304.0,2.0,1.0,0.0,1.0,1.0,530.2437410000493,1.0,1.0,phase_1,,,,,,,,,,,,,white,hexagon
672.0,7.0,2.0,1.0,1.0,1.0,416.8433560002995,1.0,1.0,phase_1,,,,,,,,,,,,,magenta,square
646.0,7.0,2.0,1.0,2.0,2.0,435.5442729997776,1.0,2.0,phase_1,,,,,,,,,,,,,magenta,square
636.0,7.0,2.0,1.0,4.0,4.0,575.5032980000578,1.0,1.0,phase_1,,,,,,,,,,,,,magenta,square
1293.0,4.0,4.0,0.0,3.0,3.0,418.0478079997556,1.0,1.0,phase_1,,,,,,,,,,,,,cyan,I
187.0,5.0,0.5,1.0,1.0,1.0,751.4670119999209,1.0,1.0,phase_1,,,,,,,,,,,,,blue,diamond
0.0,7.0,0.0,1.0,2.0,2.0,769.2384009997113,1.0,1.0,phase_1,,,,,,,,,,,,,magenta,square
1296.0,4.0,4.0,0.0,1.0,1.0,658.9390750000348,1.0,1.0,phase_1,,,,,,,,,,,,,cyan,I
325.0,6.0,1.0,1.0,4.0,4.0,635.5364539999755,1.0,1.0,phase_1,,,,,,,,,,,,,gray,circle
0.0,1.0,0.0,0.0,4.0,4.0,436.9610610001473,1.0,1.0,phase_1,,,,,,,,,,,,,orange,cross
142.0,1.0,0.5,0.0,2.0,2.0,575.5315849996805,1.0,1.0,phase_1,,,,,,,,,,,,,orange,cross
174.0,5.0,0.5,1.0,3.0,3.0,427.7042700000493,1.0,1.0,phase_1,,,,,,,,,,,,,blue,diamond
1297.0,8.0,4.0,1.0,4.0,4.0,363.1900380000843,1.0,1.0,phase_1,,,,,,,,,,,,,yellow,flipped triangle
0.0,3.0,0.0,0.0,3.0,3.0,390.5800610000369,1.0,1.0,phase_1,,,,,,,,,,,,,green,triangle
185.0,1.0,0.5,0.0,3.0,3.0,459.174947000065,1.0,1.0,phase_1,,,,,,,,,,,,,orange,cross
639.0,3.0,2.0,0.0,2.0,2.0,470.7390909998139,1.0,1.0,phase_1,,,,,,,,,,,,,green,triangle
307.0,6.0,1.0,1.0,4.0,4.0,371.409775000302,1.0,1.0,phase_1,,,,,,,,,,,,,gray,circle
632.0,3.0,2.0,0.0,4.0,4.0,464.5344720001958,1.0,1.0,phase_1,,,,,,,,,,,,,green,triangle
0.0,8.0,0.0,1.0,4.0,4.0,400.7228219998069,1.0,1.0,phase_1,,,,,,,,,,,,,yellow,flipped triangle
1299.0,8.0,4.0,1.0,3.0,3.0,445.7440869996389,1.0,1.0,phase_1,,,,,,,,,,,,,yellow,flipped triangle
0.0,5.0,0.0,1.0,3.0,3.0,417.526227000053,1.0,1.0,phase_1,,,,,,,,,,,,,blue,diamond
0.0,5.0,0.0,1.0,2.0,2.0,508.88239599998997,2.0,1.0,phase_1,,,,,,,,,,,,,blue,diamond
147.0,1.0,0.5,0.0,1.0,1.0,583.6610520000249,2.0,1.0,phase_1,,,,,,,,,,,,,orange,cross
652.0,7.0,2.0,1.0,2.0,2.0,583.590933999858,2.0,1.0,phase_1,,,,,,,,,,,,,magenta,square
1304.0,4.0,4.0,0.0,4.0,4.0,631.021155000326,2.0,1.0,phase_1,,,,,,,,,,,,,cyan,I
0.0,8.0,0.0,1.0,4.0,4.0,547.1311579999565,2.0,1.0,phase_1,,,,,,,,,,,,,yellow,flipped triangle
0.0,8.0,0.0,1.0,2.0,2.0,435.9374090004166,2.0,1.0,phase_1,,,,,,,,,,,,,yellow,flipped triangle
672.0,7.0,2.0,1.0,2.0,2.0,612.9587710001942,2.0,1.0,phase_1,,,,,,,,,,,,,magenta,square
187.0,1.0,0.5,0.0,1.0,1.0,575.8648460000586,2.0,1.0,phase_1,,,,,,,,,,,,,orange,cross
0.0,6.0,0.0,1.0,4.0,4.0,695.0514599998314,2.0,1.0,phase_1,,,,,,,,,,,,,gray,circle
1290.0,4.0,4.0,0.0,1.0,1.0,491.246062999835,2.0,1.0,phase_1,,,,,,,,,,,,,cyan,I
303.0,6.0,1.0,1.0,4.0,4.0,491.7993469998691,2.0,1.0,phase_1,,,,,,,,,,,,,gray,circle
164.0,5.0,0.5,1.0,1.0,1.0,416.1186370001815,2.0,1.0,phase_1,,,,,,,,,,,,,blue,diamond
0.0,6.0,0.0,1.0,1.0,1.0,602.6908310000181,2.0,1.0,phase_1,,,,,,,,,,,,,gray,circle
325.0,6.0,1.0,1.0,1.0,1.0,491.9850920000499,2.0,1.0,phase_1,,,,,,,,,,,,,gray,circle
170.0,1.0,0.5,0.0,4.0,4.0,527.6736130003883,2.0,1.0,phase_1,,,,,,,,,,,,,orange,cross
140.0,1.0,0.5,0.0,4.0,4.0,436.3544479997472,2.0,1.0,phase_1,,,,,,,,,,,,,orange,cross
160.0,5.0,0.5,1.0,3.0,3.0,545.4961310001636,2.0,1.0,phase_1,,,,,,,,,,,,,blue,diamond
1286.0,8.0,4.0,1.0,4.0,4.0,603.6147289996734,2.0,1.0,phase_1,,,,,,,,,,,,,yellow,flipped triangle
0.0,1.0,0.0,0.0,3.0,3.0,435.5897850000474,2.0,1.0,phase_1,,,,,,,,,,,,,orange,cross
1310.0,8.0,4.0,1.0,4.0,4.0,389.4936369997595,2.0,1.0,phase_1,,,,,,,,,,,,,yellow,flipped triangle
674.0,3.0,2.0,0.0,1.0,1.0,455.8346150001853,2.0,1.0,phase_1,,,,,,,,,,,,,green,triangle
1318.0,8.0,4.0,1.0,3.0,3.0,372.462182000163,2.0,1.0,phase_1,,,,,,,,,,,,,yellow,flipped triangle
141.0,5.0,0.5,1.0,3.0,3.0,408.6949300003653,2.0,1.0,phase_1,,,,,,,,,,,,,blue,diamond
142.0,1.0,0.5,0.0,1.0,1.0,436.3583620001918,2.0,1.0,phase_1,,,,,,,,,,,,,orange,cross
0.0,2.0,0.0,0.0,3.0,3.0,343.8709540000673,2.0,1.0,phase_1,,,,,,,,,,,,,white,hexagon
157.0,5.0,0.5,1.0,3.0,3.0,418.565882999701,2.0,1.0,phase_1,,,,,,,,,,,,,blue,diamond
673.0,7.0,2.0,1.0,1.0,1.0,510.38709700014806,2.0,1.0,phase_1,,,,,,,,,,,,,magenta,square
0.0,7.0,0.0,1.0,4.0,4.0,436.1542569999983,2.0,1.0,phase_1,,,,,,,,,,,,,magenta,square
174.0,1.0,0.5,0.0,4.0,4.0,446.7965979997643,2.0,1.0,phase_1,,,,,,,,,,,,,orange,cross
157.0,1.0,0.5,0.0,3.0,3.0,327.0543150001685,2.0,1.0,phase_1,,,,,,,,,,,,,orange,cross
0.0,1.0,0.0,0.0,3.0,3.0,380.5265030000555,2.0,1.0,phase_1,,,,,,,,,,,,,orange,cross
635.0,3.0,2.0,0.0,2.0,2.0,611.9875100002901,2.0,1.0,phase_1,,,,,,,,,,,,,green,triangle
349.0,2.0,1.0,0.0,2.0,2.0,398.6814660001982,2.0,1.0,phase_1,,,,,,,,,,,,,white,hexagon
1304.0,8.0,4.0,1.0,3.0,3.0,408.4491939997861,2.0,1.0,phase_1,,,,,,,,,,,,,yellow,flipped triangle
1280.0,8.0,4.0,1.0,3.0,3.0,520.034855999711,2.0,1.0,phase_1,,,,,,,,,,,,,yellow,flipped triangle
326.0,6.0,1.0,1.0,3.0,3.0,426.5100060001714,2.0,1.0,phase_1,,,,,,,,,,,,,gray,circle
331.0,2.0,1.0,0.0,1.0,1.0,416.2405279998893,2.0,1.0,phase_1,,,,,,,,,,,,,white,hexagon
1299.0,4.0,4.0,0.0,2.0,2.0,770.5314279996855,2.0,1.0,phase_1,,,,,,,,,,,,,cyan,I
182.0,1.0,0.5,0.0,3.0,3.0,464.3458710002051,2.0,1.0,phase_1,,,,,,,,,,,,,orange,cross
650.0,3.0,2.0,0.0,3.0,3.0,379.8704410000937,2.0,1.0,phase_1,,,,,,,,,,,,,green,triangle
309.0,6.0,1.0,1.0,2.0,2.0,407.2003129999757,2.0,1.0,phase_1,,,,,,,,,,,,,gray,circle
1292.0,8.0,4.0,1.0,3.0,3.0,333.617274000062,2.0,1.0,phase_1,,,,,,,,,,,,,yellow,flipped triangle
0.0,7.0,0.0,1.0,4.0,4.0,536.9621530003315,2.0,1.0,phase_1,,,,,,,,,,,,,magenta,square
173.0,1.0,0.5,0.0,1.0,1.0,547.267649999867,2.0,1.0,phase_1,,,,,,,,,,,,,orange,cross
0.0,7.0,0.0,1.0,3.0,3.0,417.0848909998312,2.0,1.0,phase_1,,,,,,,,,,,,,magenta,square
344.0,6.0,1.0,1.0,2.0,2.0,379.589931999817,2.0,1.0,phase_1,,,,,,,,,,,,,gray,circle
342.0,2.0,1.0,0.0,1.0,1.0,463.4548089998134,2.0,1.0,phase_1,,,,,,,,,,,,,white,hexagon
170.0,1.0,0.5,0.0,1.0,1.0,501.02987799982657,2.0,1.0,phase_1,,,,,,,,,,,,,orange,cross
155.0,1.0,0.5,0.0,3.0,3.0,464.7489859999041,2.0,1.0,phase_1,,,,,,,,,,,,,orange,cross
663.0,3.0,2.0,0.0,4.0,4.0,630.9360909999668,2.0,1.0,phase_1,,,,,,,,,,,,,green,triangle
627.0,3.0,2.0,0.0,4.0,4.0,491.1253549998946,2.0,1.0,phase_1,,,,,,,,,,,,,green,triangle
0.0,8.0,0.0,1.0,1.0,1.0,675.4236480001055,2.0,1.0,phase_1,,,,,,,,,,,,,yellow,flipped triangle
185.0,5.0,0.5,1.0,4.0,4.0,538.4240920002412,2.0,1.0,phase_1,,,,,,,,,,,,,blue,diamond
1321.0,4.0,4.0,0.0,3.0,3.0,471.6410700002598,2.0,1.0,phase_1,,,,,,,,,,,,,cyan,I
650.0,3.0,2.0,0.0,3.0,3.0,409.2963959997178,2.0,1.0,phase_1,,,,,,,,,,,,,green,triangle
650.0,7.0,2.0,1.0,3.0,3.0,362.2255940003924,2.0,1.0,phase_1,,,,,,,,,,,,,magenta,square
1286.0,4.0,4.0,0.0,3.0,3.0,352.1756519999144,2.0,1.0,phase_1,,,,,,,,,,,,,cyan,I
317.0,2.0,1.0,0.0,1.0,1.0,556.3357280002492,2.0,1.0,phase_1,,,,,,,,,,,,,white,hexagon
147.0,5.0,0.5,1.0,4.0,4.0,592.3314619999474,2.0,1.0,phase_1,,,,,,,,,,,,,blue,diamond
1277.0,8.0,4.0,1.0,2.0,2.0,668.1579200003398,2.0,1.0,phase_1,,,,,,,,,,,,,yellow,flipped triangle
1276.0,4.0,4.0,0.0,1.0,1.0,509.8504289999255,2.0,1.0,phase_1,,,,,,,,,,,,,cyan,I
1297.0,4.0,4.0,0.0,1.0,1.0,418.2349930001692,2.0,1.0,phase_1,,,,,,,,,,,,,cyan,I
0.0,3.0,0.0,0.0,4.0,4.0,509.6104690001084,2.0,1.0,phase_1,,,,,,,,,,,,,green,triangle
180.0,5.0,0.5,1.0,2.0,2.0,462.9520840003351,2.0,1.0,phase_1,,,,,,,,,,,,,blue,diamond
657.0,3.0,2.0,0.0,4.0,4.0,453.4448099998371,2.0,1.0,phase_1,,,,,,,,,,,,,green,triangle
185.0,1.0,0.5,0.0,2.0,2.0,444.8585569998613,2.0,1.0,phase_1,,,,,,,,,,,,,orange,cross
663.0,7.0,2.0,1.0,1.0,1.0,436.2667450000117,2.0,1.0,phase_1,,,,,,,,,,,,,magenta,square
340.0,2.0,1.0,0.0,3.0,3.0,396.8178629997965,2.0,1.0,phase_1,,,,,,,,,,,,,white,hexagon
0.0,5.0,0.0,1.0,1.0,1.0,370.7980469998801,2.0,1.0,phase_1,,,,,,,,,,,,,blue,diamond
172.0,1.0,0.5,0.0,2.0,2.0,548.840017999737,2.0,1.0,phase_1,,,,,,,,,,,,,orange,cross
0.0,4.0,0.0,0.0,2.0,2.0,351.6752109999288,2.0,1.0,phase_1,,,,,,,,,,,,,cyan,I
1304.0,8.0,4.0,1.0,4.0,4.0,453.471902000274,2.0,1.0,phase_1,,,,,,,,,,,,,yellow,flipped triangle
654.0,3.0,2.0,0.0,1.0,1.0,527.9922049999186,2.0,1.0,phase_1,,,,,,,,,,,,,green,triangle
142.0,5.0,0.5,1.0,4.0,4.0,501.58757000008336,2.0,1.0,phase_1,,,,,,,,,,,,,blue,diamond
344.0,2.0,1.0,0.0,3.0,3.0,397.8030829998715,2.0,1.0,phase_1,,,,,,,,,,,,,white,hexagon
1277.0,4.0,4.0,0.0,2.0,2.0,325.6747430000359,2.0,1.0,phase_1,,,,,,,,,,,,,cyan,I
170.0,1.0,0.5,0.0,3.0,3.0,416.9267170000239,2.0,1.0,phase_1,,,,,,,,,,,,,orange,cross
0.0,5.0,0.0,1.0,3.0,3.0,397.8331669995896,2.0,1.0,phase_1,,,,,,,,,,,,,blue,diamond
172.0,5.0,0.5,1.0,2.0,2.0,526.6502979998222,2.0,1.0,phase_1,,,,,,,,,,,,,blue,diamond
337.0,2.0,1.0,0.0,2.0,2.0,389.9260180000965,2.0,1.0,phase_1,,,,,,,,,,,,,white,hexagon
651.0,7.0,2.0,1.0,4.0,4.0,648.6559190002481,2.0,1.0,phase_1,,,,,,,,,,,,,magenta,square
311.0,2.0,1.0,0.0,3.0,3.0,574.3712000003143,2.0,1.0,phase_1,,,,,,,,,,,,,white,hexagon
149.0,1.0,0.5,0.0,3.0,3.0,529.8788360000799,2.0,1.0,phase_1,,,,,,,,,,,,,orange,cross
637.0,7.0,2.0,1.0,4.0,4.0,575.3933169999073,2.0,1.0,phase_1,,,,,,,,,,,,,magenta,square
328.0,6.0,1.0,1.0,1.0,1.0,665.9941589996379,2.0,1.0,phase_1,,,,,,,,,,,,,gray,circle
673.0,3.0,2.0,0.0,3.0,3.0,398.671042999922,2.0,1.0,phase_1,,,,,,,,,,,,,green,triangle
317.0,6.0,1.0,1.0,1.0,1.0,649.7772680004346,2.0,1.0,phase_1,,,,,,,,,,,,,gray,circle
185.0,5.0,0.5,1.0,2.0,2.0,509.00194999985615,2.0,1.0,phase_1,,,,,,,,,,,,,blue,diamond
1318.0,4.0,4.0,0.0,3.0,3.0,399.4905730000937,2.0,1.0,phase_1,,,,,,,,,,,,,cyan,I
1305.0,4.0,4.0,0.0,2.0,2.0,530.0410519998877,2.0,1.0,phase_1,,,,,,,,,,,,,cyan,I
1305.0,4.0,4.0,0.0,4.0,4.0,591.9810169998527,2.0,1.0,phase_1,,,,,,,,,,,,,cyan,I
159.0,5.0,0.5,1.0,2.0,2.0,416.7889249997643,2.0,1.0,phase_1,,,,,,,,,,,,,blue,diamond
345.0,6.0,1.0,1.0,3.0,3.0,447.5329239999155,2.0,1.0,phase_1,,,,,,,,,,,,,gray,circle
183.0,5.0,0.5,1.0,1.0,1.0,509.2030289997638,2.0,1.0,phase_1,,,,,,,,,,,,,blue,diamond
1314.0,4.0,4.0,0.0,4.0,4.0,566.072990000066,2.0,1.0,phase_1,,,,,,,,,,,,,cyan,I
305.0,2.0,1.0,0.0,2.0,2.0,380.0257840002814,2.0,1.0,phase_1,,,,,,,,,,,,,white,hexagon
0.0,6.0,0.0,1.0,4.0,4.0,575.4803119998542,2.0,1.0,phase_1,,,,,,,,,,,,,gray,circle
1305.0,8.0,4.0,1.0,1.0,1.0,500.31735600032334,2.0,1.0,phase_1,,,,,,,,,,,,,yellow,flipped triangle
635.0,3.0,2.0,0.0,2.0,2.0,555.4732239997975,2.0,1.0,phase_1,,,,,,,,,,,,,green,triangle
668.0,7.0,2.0,1.0,1.0,1.0,461.9945819999884,2.0,1.0,phase_1,,,,,,,,,,,,,magenta,square
0.0,1.0,0.0,0.0,1.0,1.0,491.6766100000131,3.0,1.0,phase_1,,,,,,,,,,,,,orange,cross
1293.0,8.0,4.0,1.0,2.0,2.0,403.7929950000034,3.0,2.0,phase_1,,,,,,,,,,,,,yellow,flipped triangle
1306.0,4.0,4.0,0.0,3.0,3.0,528.7474349997865,3.0,1.0,phase_1,,,,,,,,,,,,,cyan,I
1292.0,8.0,4.0,1.0,3.0,3.0,482.5927110000521,3.0,1.0,phase_1,,,,,,,,,,,,,yellow,flipped triangle
159.0,1.0,0.5,0.0,2.0,2.0,370.8881640000072,3.0,1.0,phase_1,,,,,,,,,,,,,orange,cross
142.0,5.0,0.5,1.0,4.0,4.0,446.8332320002446,3.0,1.0,phase_1,,,,,,,,,,,,,blue,diamond
1292.0,4.0,4.0,0.0,1.0,1.0,592.8821370002879,3.0,1.0,phase_1,,,,,,,,,,,,,cyan,I
1296.0,8.0,4.0,1.0,2.0,2.0,390.2796410002338,3.0,1.0,phase_1,,,,,,,,,,,,,yellow,flipped triangle
0.0,7.0,0.0,1.0,2.0,2.0,473.7951330002943,3.0,1.0,phase_1,,,,,,,,,,,,,magenta,square
1287.0,4.0,4.0,0.0,4.0,4.0,604.6287499998471,3.0,1.0,phase_1,,,,,,,,,,,,,cyan,I
157.0,1.0,0.5,0.0,1.0,1.0,547.9760200000783,3.0,1.0,phase_1,,,,,,,,,,,,,orange,cross
1280.0,8.0,4.0,1.0,4.0,4.0,502.3620619999747,3.0,1.0,phase_1,,,,,,,,,,,,,yellow,flipped triangle
0.0,4.0,0.0,0.0,2.0,2.0,444.5964789997561,3.0,1.0,phase_1,,,,,,,,,,,,,cyan,I
0.0,4.0,0.0,0.0,1.0,1.0,491.6248710001127,3.0,1.0,phase_1,,,,,,,,,,,,,cyan,I
1323.0,4.0,4.0,0.0,3.0,3.0,453.8448640000752,3.0,1.0,phase_1,,,,,,,,,,,,,cyan,I
322.0,2.0,1.0,0.0,3.0,3.0,426.6202819999307,3.0,1.0,phase_1,,,,,,,,,,,,,white,hexagon
0.0,1.0,0.0,0.0,3.0,3.0,407.0538549999583,3.0,1.0,phase_1,,,,,,,,,,,,,orange,cross
165.0,1.0,0.5,0.0,1.0,1.0,464.3070820002322,3.0,1.0,phase_1,,,,,,,,,,,,,orange,cross
183.0,1.0,0.5,0.0,3.0,3.0,380.38675100006,3.0,1.0,phase_1,,,,,,,,,,,,,orange,cross
307.0,6.0,1.0,1.0,3.0,3.0,398.7239339999178,3.0,1.0,phase_1,,,,,,,,,,,,,gray,circle
173.0,5.0,0.5,1.0,3.0,3.0,343.2089100001576,3.0,1.0,phase_1,,,,,,,,,,,,,blue,diamond
635.0,7.0,2.0,1.0,1.0,1.0,457.9100890000518,3.0,1.0,phase_1,,,,,,,,,,,,,magenta,square
337.0,6.0,1.0,1.0,3.0,3.0,380.2924489996258,3.0,1.0,phase_1,,,,,,,,,,,,,gray,circle
1286.0,4.0,4.0,0.0,1.0,1.0,565.9423560000505,3.0,1.0,phase_1,,,,,,,,,,,,,cyan,I
307.0,2.0,1.0,0.0,1.0,1.0,594.2686600001252,3.0,1.0,phase_1,,,,,,,,,,,,,white,hexagon
1310.0,4.0,4.0,0.0,4.0,4.0,555.6039150001197,3.0,1.0,phase_1,,,,,,,,,,,,,cyan,I
159.0,1.0,0.5,0.0,4.0,4.0,416.6599879999921,3.0,1.0,phase_1,,,,,,,,,,,,,orange,cross
180.0,5.0,0.5,1.0,3.0,3.0,362.0379579997461,3.0,1.0,phase_1,,,,,,,,,,,,,blue,diamond
149.0,5.0,0.5,1.0,4.0,4.0,501.0138669999833,3.0,1.0,phase_1,,,,,,,,,,,,,blue,diamond
0.0,6.0,0.0,1.0,3.0,3.0,361.8533369999568,3.0,1.0,phase_1,,,,,,,,,,,,,gray,circle
1319.0,8.0,4.0,1.0,3.0,3.0,463.6541119998583,3.0,1.0,phase_1,,,,,,,,,,,,,yellow,flipped triangle
1277.0,8.0,4.0,1.0,3.0,3.0,371.2369340000805,3.0,1.0,phase_1,,,,,,,,,,,,,yellow,flipped triangle
636.0,3.0,2.0,0.0,1.0,1.0,491.9609889998355,3.0,1.0,phase_1,,,,,,,,,,,,,green,triangle
672.0,3.0,2.0,0.0,3.0,3.0,399.4198909999795,3.0,1.0,phase_1,,,,,,,,,,,,,green,triangle
0.0,5.0,0.0,1.0,4.0,4.0,575.1838070000304,3.0,1.0,phase_1,,,,,,,,,,,,,blue,diamond
179.0,1.0,0.5,0.0,4.0,4.0,455.5146709999462,3.0,1.0,phase_1,,,,,,,,,,,,,orange,cross
645.0,7.0,2.0,1.0,2.0,2.0,455.8919710002556,3.0,2.0,phase_1,,,,,,,,,,,,,magenta,square
0.0,1.0,0.0,0.0,1.0,1.0,484.1176340000857,3.0,1.0,phase_1,,,,,,,,,,,,,orange,cross
328.0,2.0,1.0,0.0,4.0,4.0,555.9103939999659,3.0,1.0,phase_1,,,,,,,,,,,,,white,hexagon
675.0,3.0,2.0,0.0,1.0,1.0,668.0332920000183,3.0,1.0,phase_1,,,,,,,,,,,,,green,triangle
1314.0,8.0,4.0,1.0,3.0,3.0,502.80028099996343,3.0,1.0,phase_1,,,,,,,,,,,,,yellow,flipped triangle
668.0,3.0,2.0,0.0,2.0,2.0,344.7615430000041,3.0,1.0,phase_1,,,,,,,,,,,,,green,triangle
142.0,1.0,0.5,0.0,2.0,2.0,464.469924000241,3.0,1.0,phase_1,,,,,,,,,,,,,orange,cross
1294.0,4.0,4.0,0.0,2.0,2.0,421.4261440001792,3.0,1.0,phase_1,,,,,,,,,,,,,cyan,I
0.0,3.0,0.0,0.0,3.0,3.0,427.0355000003292,3.0,1.0,phase_1,,,,,,,,,,,,,green,triangle
312.0,6.0,1.0,1.0,2.0,2.0,454.267931999766,3.0,1.0,phase_1,,,,,,,,,,,,,gray,circle
666.0,3.0,2.0,0.0,2.0,2.0,427.205739999863,3.0,1.0,phase_1,,,,,,,,,,,,,green,triangle
139.0,5.0,0.5,1.0,1.0,1.0,502.3534169999948,3.0,1.0,phase_1,,,,,,,,,,,,,blue,diamond
643.0,3.0,2.0,0.0,1.0,1.0,453.6476109997238,3.0,1.0,phase_1,,,,,,,,,,,,,green,triangle
345.0,2.0,1.0,0.0,1.0,1.0,399.7378569997636,3.0,1.0,phase_1,,,,,,,,,,,,,white,hexagon
170.0,5.0,0.5,1.0,4.0,4.0,575.0721790000171,3.0,1.0,phase_1,,,,,,,,,,,,,blue,diamond
186.0,1.0,0.5,0.0,1.0,1.0,480.6311990000722,3.0,1.0,phase_1,,,,,,,,,,,,,orange,cross
162.0,1.0,0.5,0.0,3.0,3.0,436.3422999999784,3.0,1.0,phase_1,,,,,,,,,,,,,orange,cross
344.0,6.0,1.0,1.0,1.0,1.0,416.0648690003654,3.0,1.0,phase_1,,,,,,,,,,,,,gray,circle
1323.0,8.0,4.0,1.0,1.0,1.0,482.1177489998263,3.0,1.0,phase_1,,,,,,,,,,,,,yellow,flipped triangle
162.0,5.0,0.5,1.0,2.0,2.0,547.6366610000696,3.0,1.0,phase_1,,,,,,,,,,,,,blue,diamond
670.0,3.0,2.0,0.0,4.0,4.0,454.3168820000574,3.0,1.0,phase_1,,,,,,,,,,,,,green,triangle
169.0,5.0,0.5,1.0,1.0,1.0,390.2077359998657,3.0,1.0,phase_1,,,,,,,,,,,,,blue,diamond
145.0,1.0,0.5,0.0,2.0,2.0,370.8548690001407,3.0,1.0,phase_1,,,,,,,,,,,,,orange,cross
170.0,5.0,0.5,1.0,1.0,1.0,444.9088189999202,3.0,1.0,phase_1,,,,,,,,,,,,,blue,diamond
645.0,3.0,2.0,0.0,3.0,3.0,416.4664390000325,3.0,1.0,phase_1,,,,,,,,,,,,,green,triangle
334.0,6.0,1.0,1.0,4.0,4.0,509.21114399989165,3.0,1.0,phase_1,,,,,,,,,,,,,gray,circle
143.0,5.0,0.5,1.0,1.0,1.0,463.709636999738,3.0,1.0,phase_1,,,,,,,,,,,,,blue,diamond
647.0,7.0,2.0,1.0,1.0,1.0,407.9272059998402,3.0,1.0,phase_1,,,,,,,,,,,,,magenta,square
0.0,4.0,0.0,0.0,4.0,4.0,389.2706309998175,3.0,1.0,phase_1,,,,,,,,,,,,,cyan,I
0.0,2.0,0.0,0.0,4.0,4.0,399.381503999848,3.0,1.0,phase_1,,,,,,,,,,,,,white,hexagon
303.0,2.0,1.0,0.0,2.0,2.0,621.3275680001971,3.0,1.0,phase_1,,,,,,,,,,,,,white,hexagon
0.0,7.0,0.0,1.0,2.0,2.0,435.6557719997909,3.0,1.0,phase_1,,,,,,,,,,,,,magenta,square
657.0,7.0,2.0,1.0,3.0,3.0,455.6919110000308,3.0,1.0,phase_1,,,,,,,,,,,,,magenta,square
304.0,6.0,1.0,1.0,3.0,3.0,400.7909990000371,3.0,1.0,phase_1,,,,,,,,,,,,,gray,circle
147.0,5.0,0.5,1.0,2.0,2.0,455.1456359999974,3.0,1.0,phase_1,,,,,,,,,,,,,blue,diamond
325.0,2.0,1.0,0.0,1.0,1.0,427.8758909999851,3.0,1.0,phase_1,,,,,,,,,,,,,white,hexagon
170.0,5.0,0.5,1.0,4.0,4.0,447.4553029999697,3.0,1.0,phase_1,,,,,,,,,,,,,blue,diamond
0.0,3.0,0.0,0.0,2.0,2.0,463.3241669998824,3.0,1.0,phase_1,,,,,,,,,,,,,green,triangle
0.0,6.0,0.0,1.0,3.0,3.0,398.044764000133,3.0,1.0,phase_1,,,,,,,,,,,,,gray,circle
0.0,6.0,0.0,1.0,2.0,2.0,464.0408689997457,3.0,1.0,phase_1,,,,,,,,,,,,,gray,circle
322.0,6.0,1.0,1.0,4.0,4.0,438.3026440000321,3.0,1.0,phase_1,,,,,,,,,,,,,gray,circle
1319.0,8.0,4.0,1.0,3.0,3.0,399.1382429999248,3.0,1.0,phase_1,,,,,,,,,,,,,yellow,flipped triangle
337.0,2.0,1.0,0.0,4.0,4.0,343.9660720000574,3.0,1.0,phase_1,,,,,,,,,,,,,white,hexagon
1282.0,4.0,4.0,0.0,4.0,4.0,400.4044070002237,3.0,1.0,phase_1,,,,,,,,,,,,,cyan,I
645.0,7.0,2.0,1.0,4.0,4.0,373.0776819998027,3.0,1.0,phase_1,,,,,,,,,,,,,magenta,square
345.0,6.0,1.0,1.0,1.0,1.0,584.6217160001288,3.0,1.0,phase_1,,,,,,,,,,,,,gray,circle
0.0,1.0,0.0,0.0,1.0,1.0,391.2787790000038,3.0,1.0,phase_1,,,,,,,,,,,,,orange,cross
164.0,1.0,0.5,0.0,4.0,4.0,621.0431869999411,3.0,1.0,phase_1,,,,,,,,,,,,,orange,cross
0.0,1.0,0.0,0.0,3.0,3.0,436.0278909998669,3.0,2.0,phase_1,,,,,,,,,,,,,orange,cross
0.0,8.0,0.0,1.0,2.0,2.0,427.2553460000381,3.0,1.0,phase_1,,,,,,,,,,,,,yellow,flipped triangle
316.0,6.0,1.0,1.0,4.0,4.0,500.125460000163,3.0,1.0,phase_1,,,,,,,,,,,,,gray,circle
661.0,3.0,2.0,0.0,3.0,3.0,456.0458880000624,3.0,1.0,phase_1,,,,,,,,,,,,,green,triangle
322.0,2.0,1.0,0.0,2.0,2.0,481.6469259999394,3.0,1.0,phase_1,,,,,,,,,,,,,white,hexagon
0.0,4.0,0.0,0.0,4.0,4.0,399.5592579999538,3.0,1.0,phase_1,,,,,,,,,,,,,cyan,I
0.0,7.0,0.0,1.0,2.0,2.0,592.6832580003065,3.0,1.0,phase_1,,,,,,,,,,,,,magenta,square
0.0,2.0,0.0,0.0,3.0,3.0,474.1942190003101,3.0,1.0,phase_1,,,,,,,,,,,,,white,hexagon
653.0,3.0,2.0,0.0,1.0,1.0,538.4318769997662,3.0,1.0,phase_1,,,,,,,,,,,,,green,triangle
645.0,3.0,2.0,0.0,1.0,1.0,417.5343690003501,3.0,1.0,phase_1,,,,,,,,,,,,,green,triangle
1319.0,4.0,4.0,0.0,2.0,2.0,694.4607450000149,3.0,1.0,phase_1,,,,,,,,,,,,,cyan,I
0.0,3.0,0.0,0.0,2.0,2.0,464.9724979999519,3.0,1.0,phase_1,,,,,,,,,,,,,green,triangle
333.0,6.0,1.0,1.0,2.0,2.0,436.2218610003765,3.0,1.0,phase_1,,,,,,,,,,,,,gray,circle
627.0,7.0,2.0,1.0,1.0,1.0,463.1446339999456,3.0,1.0,phase_1,,,,,,,,,,,,,magenta,square
311.0,6.0,1.0,1.0,3.0,3.0,445.3295080002135,3.0,1.0,phase_1,,,,,,,,,,,,,gray,circle
666.0,7.0,2.0,1.0,3.0,3.0,474.8894839999593,3.0,1.0,phase_1,,,,,,,,,,,,,magenta,square
155.0,5.0,0.5,1.0,2.0,2.0,388.9922810003554,4.0,1.0,phase_1,,,,,,,,,,,,,blue,diamond
1304.0,8.0,4.0,1.0,4.0,4.0,602.3882670001512,4.0,1.0,phase_1,,,,,,,,,,,,,yellow,flipped triangle
0.0,1.0,0.0,0.0,2.0,2.0,418.3580280000569,4.0,1.0,phase_1,,,,,,,,,,,,,orange,cross
650.0,7.0,2.0,1.0,3.0,3.0,510.7599749999281,4.0,1.0,phase_1,,,,,,,,,,,,,magenta,square
180.0,1.0,0.5,0.0,3.0,3.0,528.5498509997524,4.0,1.0,phase_1,,,,,,,,,,,,,orange,cross
326.0,2.0,1.0,0.0,4.0,4.0,444.5688089999748,4.0,1.0,phase_1,,,,,,,,,,,,,white,hexagon
1323.0,8.0,4.0,1.0,1.0,1.0,526.9852970000102,4.0,1.0,phase_1,,,,,,,,,,,,,yellow,flipped triangle
315.0,6.0,1.0,1.0,2.0,2.0,464.3423130000883,4.0,1.0,phase_1,,,,,,,,,,,,,gray,circle
0.0,4.0,0.0,0.0,2.0,2.0,426.5071919999172,4.0,1.0,phase_1,,,,,,,,,,,,,cyan,I
1309.0,8.0,4.0,1.0,4.0,4.0,444.2685979997804,4.0,1.0,phase_1,,,,,,,,,,,,,yellow,flipped triangle
0.0,4.0,0.0,0.0,3.0,3.0,509.5701230002305,4.0,1.0,phase_1,,,,,,,,,,,,,cyan,I
635.0,7.0,2.0,1.0,4.0,4.0,473.1687939997755,4.0,1.0,phase_1,,,,,,,,,,,,,magenta,square
633.0,3.0,2.0,0.0,1.0,1.0,436.2656829998741,4.0,1.0,phase_1,,,,,,,,,,,,,green,triangle
309.0,2.0,1.0,0.0,4.0,4.0,379.8170270001719,4.0,1.0,phase_1,,,,,,,,,,,,,white,hexagon
663.0,3.0,2.0,0.0,4.0,4.0,471.7065970003204,4.0,1.0,phase_1,,,,,,,,,,,,,green,triangle
301.0,6.0,1.0,1.0,4.0,4.0,355.3297399998882,4.0,1.0,phase_1,,,,,,,,,,,,,gray,circle
652.0,3.0,2.0,0.0,3.0,3.0,539.4864579998284,4.0,1.0,phase_1,,,,,,,,,,,,,green,triangle
0.0,2.0,0.0,0.0,2.0,2.0,380.3619649997927,4.0,1.0,phase_1,,,,,,,,,,,,,white,hexagon
147.0,5.0,0.5,1.0,3.0,3.0,417.6042579997556,4.0,1.0,phase_1,,,,,,,,,,,,,blue,diamond
1306.0,8.0,4.0,1.0,4.0,4.0,371.7327829999703,4.0,1.0,phase_1,,,,,,,,,,,,,yellow,flipped triangle
325.0,2.0,1.0,0.0,3.0,3.0,417.0819249998203,4.0,1.0,phase_1,,,,,,,,,,,,,white,hexagon
0.0,6.0,0.0,1.0,4.0,4.0,427.627155999744,4.0,1.0,phase_1,,,,,,,,,,,,,gray,circle
310.0,6.0,1.0,1.0,3.0,3.0,361.7018340000868,4.0,1.0,phase_1,,,,,,,,,,,,,gray,circle
312.0,2.0,1.0,0.0,3.0,3.0,371.1457509998581,4.0,1.0,phase_1,,,,,,,,,,,,,white,hexagon
333.0,2.0,1.0,0.0,3.0,3.0,389.8303780001697,4.0,1.0,phase_1,,,,,,,,,,,,,white,hexagon
0.0,1.0,0.0,0.0,3.0,3.0,343.2945519998611,4.0,1.0,phase_1,,,,,,,,,,,,,orange,cross
1305.0,4.0,4.0,0.0,2.0,2.0,528.6989810001614,4.0,1.0,phase_1,,,,,,,,,,,,,cyan,I
0.0,8.0,0.0,1.0,3.0,3.0,407.5785690001794,4.0,1.0,phase_1,,,,,,,,,,,,,yellow,flipped triangle
1276.0,8.0,4.0,1.0,2.0,2.0,519.2927939997389,4.0,1.0,phase_1,,,,,,,,,,,,,yellow,flipped triangle
323.0,2.0,1.0,0.0,4.0,4.0,482.9604940000536,4.0,1.0,phase_1,,,,,,,,,,,,,white,hexagon
0.0,8.0,0.0,1.0,2.0,2.0,731.4343010002631,4.0,1.0,phase_1,,,,,,,,,,,,,yellow,flipped triangle
0.0,5.0,0.0,1.0,2.0,2.0,407.2221450001052,4.0,1.0,phase_1,,,,,,,,,,,,,blue,diamond
1312.0,8.0,4.0,1.0,4.0,4.0,361.4622360000794,4.0,1.0,phase_1,,,,,,,,,,,,,yellow,flipped triangle
182.0,5.0,0.5,1.0,1.0,1.0,389.471235000201,4.0,1.0,phase_1,,,,,,,,,,,,,blue,diamond
178.0,5.0,0.5,1.0,3.0,3.0,419.039795000117,4.0,1.0,phase_1,,,,,,,,,,,,,blue,diamond
344.0,2.0,1.0,0.0,2.0,2.0,574.3183089998638,4.0,1.0,phase_1,,,,,,,,,,,,,white,hexagon
159.0,5.0,0.5,1.0,3.0,3.0,444.8948510002992,4.0,1.0,phase_1,,,,,,,,,,,,,blue,diamond
647.0,3.0,2.0,0.0,4.0,4.0,388.9769400002478,4.0,1.0,phase_1,,,,,,,,,,,,,green,triangle
1319.0,4.0,4.0,0.0,4.0,4.0,397.503689000132,4.0,1.0,phase_1,,,,,,,,,,,,,cyan,I
1282.0,8.0,4.0,1.0,2.0,2.0,369.3458249999821,4.0,1.0,phase_1,,,,,,,,,,,,,yellow,flipped triangle
0.0,7.0,0.0,1.0,1.0,1.0,686.4503280003191,4.0,1.0,phase_1,,,,,,,,,,,,,magenta,square
344.0,2.0,1.0,0.0,1.0,1.0,446.2514810002176,4.0,1.0,phase_1,,,,,,,,,,,,,white,hexagon
0.0,2.0,0.0,0.0,3.0,3.0,388.9769669999623,4.0,1.0,phase_1,,,,,,,,,,,,,white,hexagon
1287.0,8.0,4.0,1.0,2.0,2.0,509.8731250000128,4.0,1.0,phase_1,,,,,,,,,,,,,yellow,flipped triangle
315.0,2.0,1.0,0.0,4.0,4.0,417.0639680000931,4.0,1.0,phase_1,,,,,,,,,,,,,white,hexagon
648.0,7.0,2.0,1.0,4.0,4.0,509.7663369997463,4.0,1.0,phase_1,,,,,,,,,,,,,magenta,square
637.0,3.0,2.0,0.0,2.0,2.0,473.5272129996701,4.0,1.0,phase_1,,,,,,,,,,,,,green,triangle
348.0,2.0,1.0,0.0,1.0,1.0,649.6234470000672,4.0,1.0,phase_1,,,,,,,,,,,,,white,hexagon
139.0,1.0,0.5,0.0,1.0,1.0,473.6164019996067,4.0,1.0,phase_1,,,,,,,,,,,,,orange,cross
333.0,2.0,1.0,0.0,3.0,3.0,351.6942019996349,4.0,1.0,phase_1,,,,,,,,,,,,,white,hexagon
629.0,7.0,2.0,1.0,1.0,1.0,658.3474889998797,4.0,1.0,phase_1,,,,,,,,,,,,,magenta,square
0.0,3.0,0.0,0.0,3.0,3.0,436.4091279999229,4.0,1.0,phase_1,,,,,,,,,,,,,green,triangle
157.0,5.0,0.5,1.0,4.0,4.0,371.0736250000082,4.0,1.0,phase_1,,,,,,,,,,,,,blue,diamond
310.0,2.0,1.0,0.0,3.0,3.0,398.224754000239,4.0,1.0,phase_1,,,,,,,,,,,,,white,hexagon
301.0,2.0,1.0,0.0,4.0,4.0,509.23916799956714,4.0,1.0,phase_1,,,,,,,,,,,,,white,hexagon
331.0,6.0,1.0,1.0,2.0,2.0,566.0385440000937,4.0,1.0,phase_1,,,,,,,,,,,,,gray,circle
0.0,6.0,0.0,1.0,1.0,1.0,484.2492930001754,4.0,1.0,phase_1,,,,,,,,,,,,,gray,circle
1287.0,8.0,4.0,1.0,1.0,1.0,436.8714590000309,4.0,1.0,phase_1,,,,,,,,,,,,,yellow,flipped triangle
342.0,6.0,1.0,1.0,1.0,1.0,539.6076269998957,4.0,1.0,phase_1,,,,,,,,,,,,,gray,circle
629.0,3.0,2.0,0.0,4.0,4.0,425.5611260000478,4.0,1.0,phase_1,,,,,,,,,,,,,green,triangle
347.0,6.0,1.0,1.0,4.0,4.0,371.6311199996198,4.0,1.0,phase_1,,,,,,,,,,,,,gray,circle
0.0,3.0,0.0,0.0,2.0,2.0,427.7420939997682,4.0,1.0,phase_1,,,,,,,,,,,,,green,triangle
653.0,7.0,2.0,1.0,3.0,3.0,502.3874819999037,4.0,1.0,phase_1,,,,,,,,,,,,,magenta,square
1290.0,4.0,4.0,0.0,1.0,1.0,417.5173649996395,4.0,1.0,phase_1,,,,,,,,,,,,,cyan,I
0.0,5.0,0.0,1.0,1.0,1.0,389.5627860001696,4.0,1.0,phase_1,,,,,,,,,,,,,blue,diamond
142.0,5.0,0.5,1.0,1.0,1.0,398.8529089997428,4.0,1.0,phase_1,,,,,,,,,,,,,blue,diamond
178.0,1.0,0.5,0.0,4.0,4.0,649.4842100000824,4.0,1.0,phase_1,,,,,,,,,,,,,orange,cross
1287.0,4.0,4.0,0.0,1.0,1.0,723.3253730000797,4.0,1.0,phase_1,,,,,,,,,,,,,cyan,I
1286.0,8.0,4.0,1.0,1.0,1.0,436.2231570003132,4.0,1.0,phase_1,,,,,,,,,,,,,yellow,flipped triangle
657.0,3.0,2.0,0.0,4.0,4.0,416.2991220000549,4.0,1.0,phase_1,,,,,,,,,,,,,green,triangle
345.0,2.0,1.0,0.0,4.0,4.0,417.1501339997121,4.0,1.0,phase_1,,,,,,,,,,,,,white,hexagon
657.0,7.0,2.0,1.0,4.0,4.0,362.2335180002665,4.0,1.0,phase_1,,,,,,,,,,,,,magenta,square
1324.0,4.0,4.0,0.0,1.0,1.0,472.4129890000768,4.0,1.0,phase_1,,,,,,,,,,,,,cyan,I
142.0,5.0,0.5,1.0,2.0,2.0,548.7648700000136,4.0,1.0,phase_1,,,,,,,,,,,,,blue,diamond
348.0,6.0,1.0,1.0,1.0,1.0,473.3558929997343,4.0,1.0,phase_1,,,,,,,,,,,,,gray,circle
0.0,2.0,0.0,0.0,2.0,2.0,519.3923070000892,4.0,1.0,phase_1,,,,,,,,,,,,,white,hexagon
1309.0,4.0,4.0,0.0,3.0,3.0,443.065406000187,4.0,1.0,phase_1,,,,,,,,,,,,,cyan,I
0.0,7.0,0.0,1.0,3.0,3.0,408.0495589996644,4.0,1.0,phase_1,,,,,,,,,,,,,magenta,square
0.0,6.0,0.0,1.0,4.0,4.0,474.9704280002333,4.0,1.0,phase_1,,,,,,,,,,,,,gray,circle
147.0,1.0,0.5,0.0,2.0,2.0,564.8962159998518,4.0,1.0,phase_1,,,,,,,,,,,,,orange,cross
648.0,3.0,2.0,0.0,3.0,3.0,388.6068899996644,4.0,1.0,phase_1,,,,,,,,,,,,,green,triangle
1294.0,8.0,4.0,1.0,1.0,1.0,399.4897450002099,4.0,1.0,phase_1,,,,,,,,,,,,,yellow,flipped triangle
1290.0,8.0,4.0,1.0,1.0,1.0,557.077068000126,4.0,1.0,phase_1,,,,,,,,,,,,,yellow,flipped triangle
633.0,7.0,2.0,1.0,2.0,2.0,518.791329999658,4.0,1.0,phase_1,,,,,,,,,,,,,magenta,square
1307.0,8.0,4.0,1.0,4.0,4.0,668.7468060003994,4.0,1.0,phase_1,,,,,,,,,,,,,yellow,flipped triangle
1304.0,4.0,4.0,0.0,1.0,1.0,444.2619030000969,4.0,2.0,phase_1,,,,,,,,,,,,,cyan,I
0.0,2.0,0.0,0.0,1.0,1.0,464.1262469999674,4.0,1.0,phase_1,,,,,,,,,,,,,white,hexagon
632.0,3.0,2.0,0.0,4.0,4.0,511.38045800007603,4.0,1.0,phase_1,,,,,,,,,,,,,green,triangle
1303.0,4.0,4.0,0.0,3.0,3.0,408.9760470001238,4.0,1.0,phase_1,,,,,,,,,,,,,cyan,I
1297.0,4.0,4.0,0.0,4.0,4.0,398.5573859999931,4.0,1.0,phase_1,,,,,,,,,,,,,cyan,I
1304.0,4.0,4.0,0.0,2.0,2.0,511.3351820000389,4.0,1.0,phase_1,,,,,,,,,,,,,cyan,I
310.0,2.0,1.0,0.0,1.0,1.0,787.2638549997646,4.0,1.0,phase_1,,,,,,,,,,,,,white,hexagon
0.0,3.0,0.0,0.0,2.0,2.0,503.66518999999244,4.0,1.0,phase_1,,,,,,,,,,,,,green,triangle
0.0,3.0,0.0,0.0,1.0,1.0,500.8135300004142,4.0,1.0,phase_1,,,,,,,,,,,,,green,triangle
320.0,6.0,1.0,1.0,1.0,1.0,566.9664170000033,4.0,1.0,phase_1,,,,,,,,,,,,,gray,circle
311.0,6.0,1.0,1.0,4.0,4.0,400.1088029999664,4.0,1.0,phase_1,,,,,,,,,,,,,gray,circle
307.0,2.0,1.0,0.0,2.0,2.0,462.6936419999765,4.0,1.0,phase_1,,,,,,,,,,,,,white,hexagon
140.0,5.0,0.5,1.0,4.0,4.0,427.385879999747,4.0,1.0,phase_1,,,,,,,,,,,,,blue,diamond
347.0,2.0,1.0,0.0,4.0,4.0,390.4619590002767,4.0,1.0,phase_1,,,,,,,,,,,,,white,hexagon
305.0,2.0,1.0,0.0,2.0,2.0,408.2215870002983,4.0,1.0,phase_1,,,,,,,,,,,,,white,hexagon
0.0,5.0,0.5,1.0,5.0,5.0,621.0560469999109,1.0,1.0,phase_2,stop,250.0,250.0,3.0,,,,,,,,,blue,diamond
0.0,4.0,4.0,0.0,6.0,6.0,709.7976059994835,1.0,1.0,phase_2,go,200.0,250.0,1.0,,,,,,,,,cyan,I
0.0,7.0,2.0,1.0,6.0,0.0,0.0,1.0,1.0,phase_2,stop,200.0,250.0,4.0,,,,,,,,,magenta,square
0.0,3.0,2.0,0.0,5.0,5.0,707.3549560000174,1.0,1.0,phase_2,go,200.0,300.0,1.0,,,,,,,,,green,triangle
0.0,2.0,1.0,0.0,6.0,6.0,859.3693080001685,1.0,1.0,phase_2,go,200.0,300.0,1.0,,,,,,,,,white,hexagon
0.0,1.0,0.5,0.0,6.0,6.0,438.8749059999099,1.0,1.0,phase_2,go,200.0,300.0,1.0,,,,,,,,,orange,cross
0.0,2.0,1.0,0.0,6.0,6.0,383.5385920001499,1.0,1.0,phase_2,go,200.0,300.0,1.0,,,,,,,,,white,hexagon
0.0,5.0,0.5,1.0,6.0,6.0,426.1900239998795,1.0,1.0,phase_2,stop,200.0,300.0,3.0,,,,,,,,,blue,diamond
0.0,4.0,4.0,0.0,5.0,5.0,605.005655000241,1.0,1.0,phase_2,go,200.0,250.0,1.0,,,,,,,,,cyan,I
0.0,7.0,2.0,1.0,6.0,0.0,0.0,1.0,1.0,phase_2,stop,200.0,250.0,4.0,,,,,,,,,magenta,square
0.0,8.0,4.0,1.0,5.0,0.0,0.0,1.0,1.0,phase_2,stop,200.0,300.0,4.0,,,,,,,,,yellow,flipped triangle
0.0,5.0,0.5,1.0,6.0,6.0,517.3665610000171,1.0,1.0,phase_2,go,250.0,300.0,1.0,,,,,,,,,blue,diamond
0.0,7.0,2.0,1.0,6.0,0.0,0.0,1.0,1.0,phase_2,stop,250.0,300.0,4.0,,,,,,,,,magenta,square
0.0,6.0,1.0,1.0,6.0,6.0,757.0513199998459,1.0,1.0,phase_2,go,250.0,350.0,1.0,,,,,,,,,gray,circle
0.0,3.0,2.0,0.0,5.0,5.0,710.4372320000039,1.0,1.0,phase_2,go,250.0,350.0,1.0,,,,,,,,,green,triangle
0.0,5.0,0.5,1.0,5.0,0.0,0.0,1.0,1.0,phase_2,stop,250.0,350.0,4.0,,,,,,,,,blue,diamond
0.0,7.0,2.0,1.0,6.0,6.0,729.3515270002899,1.0,1.0,phase_2,go,300.0,350.0,1.0,,,,,,,,,magenta,square
0.0,7.0,2.0,1.0,6.0,6.0,424.0960719998838,1.0,1.0,phase_2,stop,300.0,350.0,3.0,,,,,,,,,magenta,square
0.0,6.0,1.0,1.0,5.0,0.0,0.0,1.0,1.0,phase_2,stop,300.0,300.0,4.0,,,,,,,,,gray,circle
0.0,1.0,0.5,0.0,6.0,6.0,560.5868100001317,1.0,1.0,phase_2,go,350.0,300.0,1.0,,,,,,,,,orange,cross
0.0,6.0,1.0,1.0,6.0,6.0,746.8168329996843,1.0,1.0,phase_2,go,350.0,300.0,1.0,,,,,,,,,gray,circle
0.0,7.0,2.0,1.0,5.0,0.0,0.0,1.0,1.0,phase_2,stop,350.0,300.0,4.0,,,,,,,,,magenta,square
0.0,1.0,0.5,0.0,5.0,5.0,808.2911809997313,1.0,1.0,phase_2,go,400.0,300.0,1.0,,,,,,,,,orange,cross
0.0,3.0,2.0,0.0,5.0,5.0,495.7463129994721,1.0,1.0,phase_2,go,400.0,300.0,1.0,,,,,,,,,green,triangle
0.0,5.0,0.5,1.0,6.0,6.0,454.6018720002394,1.0,1.0,phase_2,stop,400.0,300.0,3.0,,,,,,,,,blue,diamond
0.0,7.0,2.0,1.0,6.0,0.0,0.0,1.0,1.0,phase_2,stop,400.0,250.0,4.0,,,,,,,,,magenta,square
0.0,8.0,4.0,1.0,6.0,0.0,0.0,1.0,1.0,phase_2,stop,400.0,300.0,4.0,,,,,,,,,yellow,flipped triangle
0.0,4.0,4.0,0.0,5.0,5.0,565.2356479995433,1.0,1.0,phase_2,go,400.0,350.0,1.0,,,,,,,,,cyan,I
0.0,4.0,4.0,0.0,6.0,6.0,666.1833259995547,1.0,1.0,phase_2,go,400.0,350.0,1.0,,,,,,,,,cyan,I
0.0,4.0,4.0,0.0,6.0,6.0,531.5912280002522,1.0,1.0,phase_2,go,400.0,350.0,1.0,,,,,,,,,cyan,I
0.0,7.0,2.0,1.0,6.0,6.0,559.4853960001274,1.0,1.0,phase_2,go,400.0,350.0,1.0,,,,,,,,,magenta,square
0.0,8.0,4.0,1.0,6.0,0.0,0.0,1.0,1.0,phase_2,stop,400.0,350.0,4.0,,,,,,,,,yellow,flipped triangle
0.0,7.0,2.0,1.0,5.0,5.0,727.8584920004505,1.0,1.0,phase_2,go,400.0,400.0,1.0,,,,,,,,,magenta,square
0.0,8.0,4.0,1.0,5.0,0.0,0.0,1.0,1.0,phase_2,stop,400.0,400.0,4.0,,,,,,,,,yellow,flipped triangle
0.0,6.0,1.0,1.0,6.0,0.0,0.0,1.0,1.0,phase_2,stop,450.0,400.0,4.0,,,,,,,,,gray,circle
0.0,2.0,1.0,0.0,6.0,6.0,829.7397169999385,1.0,1.0,phase_2,go,450.0,450.0,1.0,,,,,,,,,white,hexagon
0.0,8.0,4.0,1.0,5.0,5.0,590.270505999797,2.0,1.0,phase_2,stop,450.0,450.0,3.0,,,,,,,,,yellow,flipped triangle
0.0,4.0,4.0,0.0,5.0,5.0,531.9112010001845,2.0,1.0,phase_2,go,400.0,450.0,1.0,,,,,,,,,cyan,I
0.0,4.0,4.0,0.0,5.0,5.0,430.2111449997028,2.0,1.0,phase_2,go,400.0,450.0,1.0,,,,,,,,,cyan,I
0.0,5.0,0.5,1.0,6.0,6.0,499.1841459996067,2.0,1.0,phase_2,stop,400.0,450.0,3.0,,,,,,,,,blue,diamond
0.0,3.0,2.0,0.0,5.0,5.0,615.2971649999017,2.0,1.0,phase_2,go,400.0,400.0,1.0,,,,,,,,,green,triangle
0.0,5.0,0.5,1.0,6.0,0.0,0.0,2.0,1.0,phase_2,stop,400.0,400.0,4.0,,,,,,,,,blue,diamond
0.0,1.0,0.5,0.0,5.0,5.0,613.298799000404,2.0,1.0,phase_2,go,400.0,450.0,1.0,,,,,,,,,orange,cross
0.0,4.0,4.0,0.0,5.0,5.0,447.5218210000093,2.0,1.0,phase_2,go,400.0,450.0,1.0,,,,,,,,,cyan,I
0.0,2.0,1.0,0.0,6.0,6.0,550.1496429997133,2.0,1.0,phase_2,go,400.0,450.0,1.0,,,,,,,,,white,hexagon
0.0,4.0,4.0,0.0,6.0,6.0,504.9573179994695,2.0,1.0,phase_2,go,400.0,450.0,1.0,,,,,,,,,cyan,I
0.0,4.0,4.0,0.0,5.0,5.0,485.5732240002908,2.0,1.0,phase_2,go,400.0,450.0,1.0,,,,,,,,,cyan,I
0.0,6.0,1.0,1.0,6.0,0.0,0.0,2.0,1.0,phase_2,stop,400.0,450.0,4.0,,,,,,,,,gray,circle
0.0,5.0,0.5,1.0,5.0,5.0,781.4747960001114,2.0,1.0,phase_2,go,400.0,500.0,1.0,,,,,,,,,blue,diamond
0.0,3.0,2.0,0.0,6.0,6.0,772.5950580006611,2.0,1.0,phase_2,go,400.0,500.0,1.0,,,,,,,,,green,triangle
0.0,6.0,1.0,1.0,6.0,6.0,589.183520000006,2.0,1.0,phase_2,stop,400.0,500.0,3.0,,,,,,,,,gray,circle
0.0,8.0,4.0,1.0,5.0,5.0,562.4100450004335,2.0,1.0,phase_2,stop,400.0,450.0,3.0,,,,,,,,,yellow,flipped triangle
0.0,8.0,4.0,1.0,5.0,5.0,736.6190479997385,2.0,1.0,phase_2,go,350.0,450.0,1.0,,,,,,,,,yellow,flipped triangle
0.0,7.0,2.0,1.0,5.0,0.0,0.0,2.0,1.0,phase_2,stop,350.0,450.0,4.0,,,,,,,,,magenta,square
0.0,4.0,4.0,0.0,5.0,5.0,625.1293940003961,2.0,1.0,phase_2,go,400.0,450.0,1.0,,,,,,,,,cyan,I
0.0,1.0,0.5,0.0,5.0,5.0,725.4721700001028,2.0,1.0,phase_2,go,400.0,450.0,1.0,,,,,,,,,orange,cross
0.0,6.0,1.0,1.0,5.0,0.0,0.0,2.0,1.0,phase_2,stop,400.0,450.0,4.0,,,,,,,,,gray,circle
0.0,2.0,1.0,0.0,5.0,5.0,773.9001359996109,2.0,1.0,phase_2,go,450.0,450.0,1.0,,,,,,,,,white,hexagon
0.0,4.0,4.0,0.0,6.0,6.0,748.0891459999839,2.0,1.0,phase_2,go,450.0,450.0,1.0,,,,,,,,,cyan,I
0.0,6.0,1.0,1.0,6.0,6.0,618.3778369995707,2.0,1.0,phase_2,stop,450.0,450.0,3.0,,,,,,,,,gray,circle
0.0,7.0,2.0,1.0,5.0,5.0,643.5661839996101,2.0,1.0,phase_2,stop,450.0,400.0,3.0,,,,,,,,,magenta,square
0.0,1.0,0.5,0.0,6.0,6.0,782.6712449996194,2.0,1.0,phase_2,go,400.0,400.0,1.0,,,,,,,,,orange,cross
0.0,5.0,0.5,1.0,6.0,0.0,0.0,2.0,1.0,phase_2,stop,400.0,400.0,4.0,,,,,,,,,blue,diamond
0.0,2.0,1.0,0.0,6.0,6.0,615.3154300000097,2.0,1.0,phase_2,go,400.0,450.0,1.0,,,,,,,,,white,hexagon
0.0,8.0,4.0,1.0,5.0,0.0,0.0,2.0,1.0,phase_2,stop,400.0,450.0,4.0,,,,,,,,,yellow,flipped triangle
0.0,6.0,1.0,1.0,6.0,0.0,0.0,2.0,1.0,phase_2,stop,450.0,450.0,4.0,,,,,,,,,gray,circle
0.0,4.0,4.0,0.0,6.0,6.0,737.0895530002599,2.0,1.0,phase_2,go,450.0,500.0,1.0,,,,,,,,,cyan,I
0.0,1.0,0.5,0.0,5.0,5.0,438.8558299997385,2.0,1.0,phase_2,go,450.0,500.0,1.0,,,,,,,,,orange,cross
0.0,7.0,2.0,1.0,6.0,6.0,344.4859780001934,2.0,1.0,phase_2,stop,450.0,500.0,3.0,,,,,,,,,magenta,square
0.0,5.0,0.5,1.0,5.0,5.0,496.0107460001381,2.0,1.0,phase_2,stop,450.0,450.0,3.0,,,,,,,,,blue,diamond
0.0,1.0,0.5,0.0,6.0,6.0,326.0769879998406,2.0,1.0,phase_2,go,400.0,450.0,1.0,,,,,,,,,orange,cross
0.0,8.0,4.0,1.0,5.0,5.0,450.5657789995894,2.0,1.0,phase_2,stop,400.0,450.0,3.0,,,,,,,,,yellow,flipped triangle
0.0,3.0,2.0,0.0,5.0,5.0,548.5134730006394,3.0,1.0,phase_2,go,350.0,450.0,1.0,,,,,,,,,green,triangle
0.0,3.0,2.0,0.0,6.0,6.0,337.0377170003849,3.0,1.0,phase_2,go,350.0,450.0,1.0,,,,,,,,,green,triangle
0.0,2.0,1.0,0.0,6.0,6.0,382.9055940004764,3.0,1.0,phase_2,go,350.0,450.0,1.0,,,,,,,,,white,hexagon
0.0,5.0,0.5,1.0,6.0,6.0,354.9190020003152,3.0,1.0,phase_2,go,350.0,450.0,1.0,,,,,,,,,blue,diamond
0.0,1.0,0.5,0.0,6.0,6.0,439.1676450004524,3.0,1.0,phase_2,go,350.0,450.0,1.0,,,,,,,,,orange,cross
0.0,2.0,1.0,0.0,5.0,5.0,353.8856119994307,3.0,1.0,phase_2,go,350.0,450.0,1.0,,,,,,,,,white,hexagon
0.0,6.0,1.0,1.0,5.0,5.0,458.5125530002187,3.0,1.0,phase_2,go,350.0,450.0,1.0,,,,,,,,,gray,circle
0.0,3.0,2.0,0.0,6.0,6.0,297.922916999596,3.0,1.0,phase_2,go,350.0,450.0,1.0,,,,,,,,,green,triangle
0.0,5.0,0.5,1.0,5.0,5.0,344.3672610001158,3.0,1.0,phase_2,stop,350.0,450.0,3.0,,,,,,,,,blue,diamond
0.0,6.0,1.0,1.0,5.0,0.0,0.0,3.0,1.0,phase_2,stop,300.0,450.0,4.0,,,,,,,,,gray,circle
0.0,4.0,4.0,0.0,6.0,6.0,419.8977500000183,3.0,1.0,phase_2,go,350.0,450.0,1.0,,,,,,,,,cyan,I
0.0,8.0,4.0,1.0,5.0,5.0,383.5190899999361,3.0,1.0,phase_2,go,350.0,450.0,1.0,,,,,,,,,yellow,flipped triangle
0.0,1.0,0.5,0.0,6.0,6.0,373.1197770002836,3.0,1.0,phase_2,go,350.0,450.0,1.0,,,,,,,,,orange,cross
0.0,4.0,4.0,0.0,6.0,6.0,420.0469549996342,3.0,1.0,phase_2,go,350.0,450.0,1.0,,,,,,,,,cyan,I
0.0,1.0,0.5,0.0,6.0,6.0,418.5285880002993,3.0,1.0,phase_2,go,350.0,450.0,1.0,,,,,,,,,orange,cross
0.0,5.0,0.5,1.0,5.0,5.0,280.4879609993804,3.0,1.0,phase_2,stop,350.0,450.0,3.0,,,,,,,,,blue,diamond
0.0,2.0,1.0,0.0,5.0,5.0,896.7131749996042,3.0,1.0,phase_2,go,300.0,450.0,1.0,,,,,,,,,white,hexagon
0.0,1.0,0.5,0.0,5.0,5.0,382.4713340000016,3.0,1.0,phase_2,go,300.0,450.0,1.0,,,,,,,,,orange,cross
0.0,3.0,2.0,0.0,6.0,6.0,540.4073950003294,3.0,1.0,phase_2,go,300.0,450.0,1.0,,,,,,,,,green,triangle
0.0,6.0,1.0,1.0,6.0,6.0,543.3836100000917,3.0,1.0,phase_2,stop,300.0,450.0,3.0,,,,,,,,,gray,circle
0.0,2.0,1.0,0.0,5.0,5.0,411.2291480005297,3.0,1.0,phase_2,go,300.0,400.0,1.0,,,,,,,,,white,hexagon
0.0,7.0,2.0,1.0,5.0,5.0,400.7871680005337,3.0,1.0,phase_2,stop,300.0,400.0,3.0,,,,,,,,,magenta,square
0.0,8.0,4.0,1.0,5.0,0.0,0.0,3.0,1.0,phase_2,stop,250.0,400.0,4.0,,,,,,,,,yellow,flipped triangle
0.0,4.0,4.0,0.0,5.0,5.0,454.7935749997123,3.0,1.0,phase_2,go,300.0,400.0,1.0,,,,,,,,,cyan,I
0.0,8.0,4.0,1.0,6.0,6.0,354.7637800002121,3.0,1.0,phase_2,go,300.0,400.0,1.0,,,,,,,,,yellow,flipped triangle
0.0,5.0,0.5,1.0,6.0,6.0,383.935441000176,3.0,1.0,phase_2,stop,300.0,400.0,3.0,,,,,,,,,blue,diamond
0.0,3.0,2.0,0.0,5.0,5.0,662.503124000068,3.0,1.0,phase_2,go,300.0,350.0,1.0,,,,,,,,,green,triangle
0.0,1.0,0.5,0.0,5.0,5.0,641.8955620001725,3.0,1.0,phase_2,go,300.0,350.0,1.0,,,,,,,,,orange,cross
0.0,4.0,4.0,0.0,6.0,6.0,549.6331590002228,3.0,1.0,phase_2,go,300.0,350.0,1.0,,,,,,,,,cyan,I
0.0,2.0,1.0,0.0,6.0,6.0,427.9687890002606,3.0,1.0,phase_2,go,300.0,350.0,1.0,,,,,,,,,white,hexagon
0.0,8.0,4.0,1.0,5.0,5.0,344.8932349992901,3.0,1.0,phase_2,go,300.0,350.0,1.0,,,,,,,,,yellow,flipped triangle
0.0,1.0,0.5,0.0,5.0,5.0,354.4430629999624,3.0,1.0,phase_2,go,300.0,350.0,1.0,,,,,,,,,orange,cross
0.0,8.0,4.0,1.0,6.0,6.0,381.9793100001334,3.0,1.0,phase_2,stop,300.0,350.0,3.0,,,,,,,,,yellow,flipped triangle
0.0,6.0,1.0,1.0,6.0,6.0,457.0880470000702,3.0,1.0,phase_2,stop,300.0,300.0,3.0,,,,,,,,,gray,circle
0.0,8.0,4.0,1.0,6.0,0.0,0.0,3.0,1.0,phase_2,stop,300.0,250.0,4.0,,,,,,,,,yellow,flipped triangle
0.0,7.0,2.0,1.0,6.0,6.0,660.1769919998333,3.0,1.0,phase_2,go,300.0,300.0,1.0,,,,,,,,,magenta,square
0.0,1.0,0.5,0.0,5.0,5.0,447.7890790003584,4.0,1.0,phase_2,go,300.0,300.0,1.0,,,,,,,,,orange,cross
0.0,1.0,0.5,0.0,5.0,5.0,393.5271730006207,4.0,1.0,phase_2,go,300.0,300.0,1.0,,,,,,,,,orange,cross
0.0,4.0,4.0,0.0,6.0,6.0,356.1673260001043,4.0,1.0,phase_2,go,300.0,300.0,1.0,,,,,,,,,cyan,I
0.0,8.0,4.0,1.0,5.0,5.0,364.2258859999856,4.0,1.0,phase_2,go,300.0,300.0,1.0,,,,,,,,,yellow,flipped triangle
0.0,2.0,1.0,0.0,5.0,5.0,373.2908850006424,4.0,1.0,phase_2,go,300.0,300.0,1.0,,,,,,,,,white,hexagon
0.0,7.0,2.0,1.0,6.0,6.0,362.4016880003182,4.0,1.0,phase_2,stop,300.0,300.0,3.0,,,,,,,,,magenta,square
0.0,8.0,4.0,1.0,5.0,5.0,385.4449300006308,4.0,1.0,phase_2,stop,300.0,250.0,3.0,,,,,,,,,yellow,flipped triangle
0.0,3.0,2.0,0.0,6.0,6.0,420.6267319996186,4.0,1.0,phase_2,go,250.0,250.0,1.0,,,,,,,,,green,triangle
0.0,3.0,2.0,0.0,5.0,5.0,495.2606350007045,4.0,1.0,phase_2,go,250.0,250.0,1.0,,,,,,,,,green,triangle
0.0,6.0,1.0,1.0,5.0,5.0,439.0068560005602,4.0,1.0,phase_2,go,250.0,250.0,1.0,,,,,,,,,gray,circle
0.0,5.0,0.5,1.0,6.0,6.0,747.8333460003341,4.0,1.0,phase_2,go,250.0,250.0,1.0,,,,,,,,,blue,diamond
0.0,2.0,1.0,0.0,5.0,5.0,410.3068600006736,4.0,1.0,phase_2,go,250.0,250.0,1.0,,,,,,,,,white,hexagon
0.0,5.0,0.5,1.0,5.0,0.0,0.0,4.0,1.0,phase_2,stop,250.0,250.0,4.0,,,,,,,,,blue,diamond
0.0,2.0,1.0,0.0,6.0,6.0,765.3663169994616,4.0,1.0,phase_2,go,300.0,250.0,1.0,,,,,,,,,white,hexagon
0.0,7.0,2.0,1.0,5.0,0.0,0.0,4.0,1.0,phase_2,stop,300.0,250.0,4.0,,,,,,,,,magenta,square
0.0,2.0,1.0,0.0,6.0,6.0,586.811158999808,4.0,1.0,phase_2,go,350.0,250.0,1.0,,,,,,,,,white,hexagon
0.0,3.0,2.0,0.0,5.0,5.0,448.5070620003171,4.0,1.0,phase_2,go,350.0,250.0,1.0,,,,,,,,,green,triangle
0.0,5.0,0.5,1.0,5.0,5.0,421.6068859996085,4.0,1.0,phase_2,stop,350.0,250.0,3.0,,,,,,,,,blue,diamond
0.0,1.0,0.5,0.0,6.0,6.0,729.2134589997659,4.0,1.0,phase_2,go,300.0,250.0,1.0,,,,,,,,,orange,cross
0.0,8.0,4.0,1.0,6.0,6.0,489.3438420003804,4.0,1.0,phase_2,stop,300.0,250.0,3.0,,,,,,,,,yellow,flipped triangle
0.0,3.0,2.0,0.0,6.0,6.0,1448.168244000044,4.0,1.0,phase_2,go,300.0,200.0,1.0,,,,,,,,,green,triangle
0.0,1.0,0.5,0.0,5.0,5.0,615.0150960002065,4.0,1.0,phase_2,go,300.0,200.0,1.0,,,,,,,,,orange,cross
0.0,1.0,0.5,0.0,6.0,6.0,446.7450629999803,4.0,1.0,phase_2,go,300.0,200.0,1.0,,,,,,,,,orange,cross
0.0,4.0,4.0,0.0,6.0,6.0,701.9824300004984,4.0,1.0,phase_2,go,300.0,200.0,1.0,,,,,,,,,cyan,I
0.0,3.0,2.0,0.0,5.0,5.0,719.7465620001822,4.0,1.0,phase_2,go,300.0,200.0,1.0,,,,,,,,,green,triangle
0.0,1.0,0.5,0.0,5.0,5.0,403.0688210004882,4.0,1.0,phase_2,go,300.0,200.0,1.0,,,,,,,,,orange,cross
0.0,4.0,4.0,0.0,5.0,5.0,411.1069410000709,4.0,1.0,phase_2,go,300.0,200.0,1.0,,,,,,,,,cyan,I
0.0,4.0,4.0,0.0,6.0,6.0,860.5893300000389,4.0,1.0,phase_2,go,300.0,200.0,1.0,,,,,,,,,cyan,I
0.0,7.0,2.0,1.0,6.0,0.0,0.0,4.0,1.0,phase_2,stop,300.0,200.0,4.0,,,,,,,,,magenta,square
0.0,8.0,4.0,1.0,5.0,0.0,0.0,4.0,1.0,phase_2,stop,300.0,250.0,4.0,,,,,,,,,yellow,flipped triangle
0.0,4.0,4.0,0.0,6.0,6.0,449.878235000142,4.0,1.0,phase_2,go,350.0,250.0,1.0,,,,,,,,,cyan,I
0.0,6.0,1.0,1.0,5.0,0.0,0.0,4.0,1.0,phase_2,stop,350.0,250.0,4.0,,,,,,,,,gray,circle
0.0,7.0,2.0,1.0,5.0,0.0,0.0,4.0,1.0,phase_2,stop,400.0,250.0,4.0,,,,,,,,,magenta,square
0.0,5.0,0.5,1.0,6.0,6.0,914.0939299995808,4.0,1.0,phase_2,go,450.0,250.0,1.0,,,,,,,,,blue,diamond
0.0,6.0,1.0,1.0,5.0,0.0,0.0,4.0,1.0,phase_2,stop,450.0,250.0,4.0,,,,,,,,,gray,circle
0.0,8.0,4.0,1.0,6.0,0.0,0.0,4.0,1.0,phase_2,stop,500.0,250.0,4.0,,,,,,,,,yellow,flipped triangle
0.0,3.0,2.0,0.0,6.0,6.0,739.3011100002695,5.0,1.0,phase_2,go,500.0,300.0,1.0,,,,,,,,,green,triangle
0.0,6.0,1.0,1.0,6.0,6.0,390.3887340002256,5.0,1.0,phase_2,stop,500.0,300.0,3.0,,,,,,,,,gray,circle
0.0,2.0,1.0,0.0,5.0,5.0,615.9316889998081,5.0,1.0,phase_2,go,500.0,250.0,1.0,,,,,,,,,white,hexagon
0.0,7.0,2.0,1.0,6.0,6.0,391.0363459999644,5.0,1.0,phase_2,go,500.0,250.0,1.0,,,,,,,,,magenta,square
0.0,4.0,4.0,0.0,5.0,1.0,467.6209050003308,5.0,1.0,phase_2,go,500.0,250.0,2.0,,,,,,,,,cyan,I
0.0,2.0,1.0,0.0,6.0,6.0,456.2628999992739,5.0,1.0,phase_2,go,500.0,250.0,1.0,,,,,,,,,white,hexagon
0.0,8.0,4.0,1.0,6.0,0.0,0.0,5.0,1.0,phase_2,stop,500.0,250.0,4.0,,,,,,,,,yellow,flipped triangle
0.0,3.0,2.0,0.0,6.0,6.0,635.4377679999743,5.0,1.0,phase_2,go,500.0,300.0,1.0,,,,,,,,,green,triangle
0.0,4.0,4.0,0.0,6.0,6.0,580.2657869999166,5.0,1.0,phase_2,go,500.0,300.0,1.0,,,,,,,,,cyan,I
0.0,5.0,0.5,1.0,6.0,6.0,503.179473000273,5.0,1.0,phase_2,stop,500.0,300.0,3.0,,,,,,,,,blue,diamond
0.0,6.0,1.0,1.0,5.0,5.0,764.7859359994982,5.0,1.0,phase_2,go,500.0,250.0,1.0,,,,,,,,,gray,circle
0.0,4.0,4.0,0.0,6.0,6.0,616.4362429999528,5.0,1.0,phase_2,go,500.0,250.0,1.0,,,,,,,,,cyan,I
0.0,8.0,4.0,1.0,5.0,5.0,354.2178019997664,5.0,1.0,phase_2,stop,500.0,250.0,3.0,,,,,,,,,yellow,flipped triangle
0.0,4.0,4.0,0.0,5.0,5.0,569.4039810005052,5.0,1.0,phase_2,go,450.0,250.0,1.0,,,,,,,,,cyan,I
0.0,1.0,0.5,0.0,6.0,6.0,344.8866950002411,5.0,1.0,phase_2,go,450.0,250.0,1.0,,,,,,,,,orange,cross
0.0,7.0,2.0,1.0,5.0,5.0,392.241816999558,5.0,1.0,phase_2,go,450.0,250.0,1.0,,,,,,,,,magenta,square
0.0,4.0,4.0,0.0,5.0,5.0,399.7781660000328,5.0,1.0,phase_2,go,450.0,250.0,1.0,,,,,,,,,cyan,I
0.0,6.0,1.0,1.0,5.0,5.0,401.1286309996649,5.0,1.0,phase_2,stop,450.0,250.0,3.0,,,,,,,,,gray,circle
0.0,8.0,4.0,1.0,6.0,0.0,0.0,5.0,1.0,phase_2,stop,400.0,250.0,4.0,,,,,,,,,yellow,flipped triangle
0.0,7.0,2.0,1.0,6.0,0.0,0.0,5.0,1.0,phase_2,stop,400.0,300.0,4.0,,,,,,,,,magenta,square
0.0,8.0,4.0,1.0,6.0,6.0,997.3936699998376,5.0,1.0,phase_2,go,400.0,350.0,1.0,,,,,,,,,yellow,flipped triangle
0.0,7.0,2.0,1.0,5.0,0.0,0.0,5.0,1.0,phase_2,stop,400.0,350.0,4.0,,,,,,,,,magenta,square
0.0,3.0,2.0,0.0,5.0,5.0,604.6933790003095,5.0,1.0,phase_2,go,450.0,350.0,1.0,,,,,,,,,green,triangle
0.0,3.0,2.0,0.0,6.0,6.0,653.3215159997781,5.0,1.0,phase_2,go,450.0,350.0,1.0,,,,,,,,,green,triangle
0.0,7.0,2.0,1.0,6.0,0.0,0.0,5.0,1.0,phase_2,stop,450.0,350.0,4.0,,,,,,,,,magenta,square
0.0,4.0,4.0,0.0,5.0,5.0,475.0338790008754,5.0,1.0,phase_2,go,450.0,400.0,1.0,,,,,,,,,cyan,I
0.0,2.0,1.0,0.0,5.0,5.0,538.8318329996764,5.0,1.0,phase_2,go,450.0,400.0,1.0,,,,,,,,,white,hexagon
0.0,3.0,2.0,0.0,6.0,6.0,430.7308780007588,5.0,1.0,phase_2,go,450.0,400.0,1.0,,,,,,,,,green,triangle
0.0,3.0,2.0,0.0,6.0,6.0,382.4790920007217,5.0,1.0,phase_2,go,450.0,400.0,1.0,,,,,,,,,green,triangle
0.0,3.0,2.0,0.0,6.0,6.0,438.5617490006552,5.0,1.0,phase_2,go,450.0,400.0,1.0,,,,,,,,,green,triangle
0.0,8.0,4.0,1.0,5.0,5.0,363.5248000000501,5.0,1.0,phase_2,stop,450.0,400.0,3.0,,,,,,,,,yellow,flipped triangle
0.0,6.0,1.0,1.0,5.0,0.0,0.0,5.0,1.0,phase_2,stop,400.0,400.0,4.0,,,,,,,,,gray,circle
0.0,6.0,1.0,1.0,5.0,5.0,1034.3161659993712,5.0,1.0,phase_2,go,450.0,400.0,1.0,,,,,,,,,gray,circle
0.0,1.0,0.5,0.0,5.0,5.0,680.5409979997421,5.0,1.0,phase_2,go,450.0,400.0,1.0,,,,,,,,,orange,cross
0.0,4.0,4.0,0.0,6.0,6.0,578.5787129998425,5.0,1.0,phase_2,go,450.0,400.0,1.0,,,,,,,,,cyan,I
0.0,3.0,2.0,0.0,6.0,6.0,392.2275989998525,5.0,1.0,phase_2,go,450.0,400.0,1.0,,,,,,,,,green,triangle
0.0,6.0,1.0,1.0,5.0,5.0,428.7687089999963,6.0,1.0,phase_2,stop,450.0,400.0,3.0,,,,,,,,,gray,circle
0.0,2.0,1.0,0.0,6.0,6.0,449.0274290001252,6.0,1.0,phase_2,go,400.0,400.0,1.0,,,,,,,,,white,hexagon
0.0,1.0,0.5,0.0,6.0,6.0,430.2995870002633,6.0,1.0,phase_2,go,400.0,400.0,1.0,,,,,,,,,orange,cross
0.0,7.0,2.0,1.0,5.0,5.0,430.0668670002778,6.0,1.0,phase_2,stop,400.0,400.0,3.0,,,,,,,,,magenta,square
0.0,8.0,4.0,1.0,6.0,6.0,585.3462380000565,6.0,1.0,phase_2,stop,350.0,400.0,3.0,,,,,,,,,yellow,flipped triangle
0.0,6.0,1.0,1.0,6.0,6.0,448.1041760000153,6.0,1.0,phase_2,stop,350.0,350.0,3.0,,,,,,,,,gray,circle
0.0,3.0,2.0,0.0,5.0,5.0,616.4091400005418,6.0,1.0,phase_2,go,350.0,300.0,1.0,,,,,,,,,green,triangle
0.0,6.0,1.0,1.0,5.0,5.0,420.2140600000348,6.0,1.0,phase_2,go,350.0,300.0,1.0,,,,,,,,,gray,circle
0.0,8.0,4.0,1.0,5.0,5.0,455.6574710004497,6.0,1.0,phase_2,stop,350.0,300.0,3.0,,,,,,,,,yellow,flipped triangle
0.0,2.0,1.0,0.0,6.0,6.0,775.7625260001078,6.0,1.0,phase_2,go,300.0,300.0,1.0,,,,,,,,,white,hexagon
0.0,7.0,2.0,1.0,6.0,0.0,0.0,6.0,1.0,phase_2,stop,300.0,300.0,4.0,,,,,,,,,magenta,square
0.0,7.0,2.0,1.0,5.0,0.0,0.0,6.0,1.0,phase_2,stop,300.0,350.0,4.0,,,,,,,,,magenta,square
0.0,6.0,1.0,1.0,6.0,0.0,0.0,6.0,1.0,phase_2,stop,350.0,350.0,4.0,,,,,,,,,gray,circle
0.0,3.0,2.0,0.0,5.0,5.0,801.0439489999044,6.0,1.0,phase_2,go,350.0,400.0,1.0,,,,,,,,,green,triangle
0.0,4.0,4.0,0.0,6.0,6.0,588.4019320001244,6.0,1.0,phase_2,go,350.0,400.0,1.0,,,,,,,,,cyan,I
0.0,6.0,1.0,1.0,5.0,0.0,0.0,6.0,1.0,phase_2,stop,350.0,400.0,4.0,,,,,,,,,gray,circle
0.0,5.0,0.5,1.0,6.0,0.0,0.0,6.0,1.0,phase_2,stop,400.0,400.0,4.0,,,,,,,,,blue,diamond
0.0,8.0,4.0,1.0,6.0,6.0,649.3965169993317,6.0,1.0,phase_2,stop,400.0,450.0,3.0,,,,,,,,,yellow,flipped triangle
0.0,2.0,1.0,0.0,5.0,5.0,691.0743140006161,6.0,1.0,phase_2,go,400.0,400.0,1.0,,,,,,,,,white,hexagon
0.0,1.0,0.5,0.0,6.0,6.0,607.8502109994588,6.0,1.0,phase_2,go,400.0,400.0,1.0,,,,,,,,,orange,cross
0.0,6.0,1.0,1.0,6.0,6.0,559.8146820002512,6.0,1.0,phase_2,stop,400.0,400.0,3.0,,,,,,,,,gray,circle
0.0,1.0,0.5,0.0,6.0,6.0,1028.0880919999618,6.0,1.0,phase_2,go,400.0,350.0,1.0,,,,,,,,,orange,cross
0.0,5.0,0.5,1.0,5.0,0.0,0.0,6.0,1.0,phase_2,stop,400.0,350.0,4.0,,,,,,,,,blue,diamond
0.0,4.0,4.0,0.0,5.0,5.0,571.0344509998322,6.0,1.0,phase_2,go,450.0,350.0,1.0,,,,,,,,,cyan,I
0.0,7.0,2.0,1.0,5.0,0.0,0.0,6.0,1.0,phase_2,stop,450.0,350.0,4.0,,,,,,,,,magenta,square
0.0,4.0,4.0,0.0,5.0,5.0,718.7406459997874,6.0,1.0,phase_2,go,500.0,350.0,1.0,,,,,,,,,cyan,I
0.0,5.0,0.5,1.0,5.0,0.0,0.0,6.0,1.0,phase_2,stop,500.0,350.0,4.0,,,,,,,,,blue,diamond
0.0,5.0,0.5,1.0,5.0,5.0,593.0841480003437,6.0,1.0,phase_2,stop,550.0,350.0,3.0,,,,,,,,,blue,diamond
0.0,4.0,4.0,0.0,6.0,6.0,707.2835330000089,6.0,1.0,phase_2,go,500.0,350.0,1.0,,,,,,,,,cyan,I
0.0,3.0,2.0,0.0,5.0,5.0,691.7998910003007,6.0,1.0,phase_2,go,500.0,350.0,1.0,,,,,,,,,green,triangle
0.0,8.0,4.0,1.0,6.0,6.0,419.3996430003608,6.0,1.0,phase_2,stop,500.0,350.0,3.0,,,,,,,,,yellow,flipped triangle
0.0,3.0,2.0,0.0,6.0,6.0,633.1937780005319,6.0,1.0,phase_2,go,500.0,300.0,1.0,,,,,,,,,green,triangle
0.0,7.0,2.0,1.0,6.0,0.0,0.0,6.0,1.0,phase_2,stop,500.0,300.0,4.0,,,,,,,,,magenta,square
0.0,5.0,0.5,1.0,5.0,0.0,0.0,6.0,1.0,phase_2,stop,500.0,350.0,4.0,,,,,,,,,blue,diamond
0.0,2.0,1.0,0.0,5.0,5.0,597.3713249995853,6.0,1.0,phase_2,go,550.0,350.0,1.0,,,,,,,,,white,hexagon
0.0,5.0,0.5,1.0,6.0,0.0,0.0,6.0,1.0,phase_2,stop,550.0,350.0,4.0,,,,,,,,,blue,diamond
0.0,2.0,1.0,0.0,5.0,5.0,1097.5336600004084,7.0,1.0,phase_2,go,550.0,400.0,1.0,,,,,,,,,white,hexagon
0.0,5.0,0.5,1.0,5.0,5.0,401.5911639999103,7.0,1.0,phase_2,stop,550.0,400.0,3.0,,,,,,,,,blue,diamond
0.0,6.0,1.0,1.0,6.0,6.0,503.68518399955065,7.0,1.0,phase_2,go,500.0,400.0,1.0,,,,,,,,,gray,circle
0.0,8.0,4.0,1.0,6.0,6.0,308.4738480001761,7.0,1.0,phase_2,go,500.0,400.0,1.0,,,,,,,,,yellow,flipped triangle
0.0,7.0,2.0,1.0,6.0,6.0,326.9240290001107,7.0,1.0,phase_2,stop,500.0,400.0,3.0,,,,,,,,,magenta,square
0.0,8.0,4.0,1.0,6.0,6.0,578.1918100001349,7.0,1.0,phase_2,go,500.0,350.0,1.0,,,,,,,,,yellow,flipped triangle
0.0,5.0,0.5,1.0,5.0,5.0,326.513449000231,7.0,1.0,phase_2,stop,500.0,350.0,3.0,,,,,,,,,blue,diamond
0.0,2.0,1.0,0.0,5.0,5.0,532.524117000321,7.0,1.0,phase_2,go,450.0,350.0,1.0,,,,,,,,,white,hexagon
0.0,2.0,1.0,0.0,6.0,6.0,299.4795289996546,7.0,1.0,phase_2,go,450.0,350.0,1.0,,,,,,,,,white,hexagon
0.0,7.0,2.0,1.0,5.0,5.0,372.2990719998051,7.0,1.0,phase_2,go,450.0,350.0,1.0,,,,,,,,,magenta,square
0.0,2.0,1.0,0.0,5.0,5.0,439.1078830003607,7.0,1.0,phase_2,go,450.0,350.0,1.0,,,,,,,,,white,hexagon
0.0,3.0,2.0,0.0,5.0,5.0,383.2929239997611,7.0,1.0,phase_2,go,450.0,350.0,1.0,,,,,,,,,green,triangle
0.0,1.0,0.5,0.0,6.0,6.0,374.1633190002176,7.0,1.0,phase_2,go,450.0,350.0,1.0,,,,,,,,,orange,cross
0.0,2.0,1.0,0.0,5.0,5.0,382.0885859995542,7.0,1.0,phase_2,go,450.0,350.0,1.0,,,,,,,,,white,hexagon
0.0,6.0,1.0,1.0,6.0,6.0,485.9433780002291,7.0,1.0,phase_2,stop,450.0,350.0,3.0,,,,,,,,,gray,circle
0.0,5.0,0.5,1.0,5.0,5.0,401.407938000375,7.0,1.0,phase_2,stop,450.0,300.0,3.0,,,,,,,,,blue,diamond
0.0,2.0,1.0,0.0,6.0,6.0,541.6428720000113,7.0,1.0,phase_2,go,400.0,300.0,1.0,,,,,,,,,white,hexagon
0.0,1.0,0.5,0.0,5.0,5.0,595.7725669995853,7.0,1.0,phase_2,go,400.0,300.0,1.0,,,,,,,,,orange,cross
0.0,2.0,1.0,0.0,5.0,5.0,475.7192450006187,7.0,1.0,phase_2,go,400.0,300.0,1.0,,,,,,,,,white,hexagon
0.0,6.0,1.0,1.0,6.0,6.0,381.70884200008,7.0,1.0,phase_2,stop,400.0,300.0,3.0,,,,,,,,,gray,circle
0.0,2.0,1.0,0.0,6.0,6.0,374.3175649997283,7.0,1.0,phase_2,go,400.0,250.0,1.0,,,,,,,,,white,hexagon
0.0,6.0,1.0,1.0,5.0,5.0,345.5101990002731,7.0,1.0,phase_2,stop,400.0,250.0,3.0,,,,,,,,,gray,circle
0.0,1.0,0.5,0.0,6.0,6.0,541.2916440000117,7.0,1.0,phase_2,go,350.0,250.0,1.0,,,,,,,,,orange,cross
0.0,8.0,4.0,1.0,6.0,6.0,361.7336980005348,7.0,1.0,phase_2,stop,350.0,250.0,3.0,,,,,,,,,yellow,flipped triangle
0.0,3.0,2.0,0.0,6.0,6.0,429.6257890000561,7.0,1.0,phase_2,go,350.0,200.0,1.0,,,,,,,,,green,triangle
0.0,3.0,2.0,0.0,5.0,5.0,345.4367610002009,7.0,1.0,phase_2,go,350.0,200.0,1.0,,,,,,,,,green,triangle
0.0,3.0,2.0,0.0,5.0,5.0,367.0972140007507,7.0,1.0,phase_2,go,350.0,200.0,1.0,,,,,,,,,green,triangle
0.0,6.0,1.0,1.0,6.0,6.0,367.08446800003,7.0,1.0,phase_2,stop,350.0,200.0,3.0,,,,,,,,,gray,circle
0.0,7.0,2.0,1.0,5.0,5.0,477.740191000521,7.0,1.0,phase_2,stop,350.0,150.0,3.0,,,,,,,,,magenta,square
0.0,1.0,0.5,0.0,6.0,6.0,326.5357719992607,7.0,1.0,phase_2,go,300.0,150.0,1.0,,,,,,,,,orange,cross
0.0,2.0,1.0,0.0,6.0,6.0,373.2879850003883,7.0,1.0,phase_2,go,300.0,150.0,1.0,,,,,,,,,white,hexagon
0.0,5.0,0.5,1.0,6.0,6.0,326.4681710006698,7.0,1.0,phase_2,go,300.0,150.0,1.0,,,,,,,,,blue,diamond
0.0,4.0,4.0,0.0,5.0,5.0,279.6785740001724,7.0,1.0,phase_2,go,300.0,150.0,1.0,,,,,,,,,cyan,I
0.0,1.0,0.5,0.0,6.0,6.0,316.3176460002432,7.0,1.0,phase_2,go,300.0,150.0,1.0,,,,,,,,,orange,cross
0.0,1.0,0.5,0.0,5.0,5.0,327.6817460000529,7.0,1.0,phase_2,go,300.0,150.0,1.0,,,,,,,,,orange,cross
0.0,2.0,1.0,0.0,5.0,5.0,345.4228860000512,7.0,1.0,phase_2,go,300.0,150.0,1.0,,,,,,,,,white,hexagon
0.0,3.0,2.0,0.0,6.0,6.0,411.186357000588,8.0,1.0,phase_2,go,300.0,150.0,1.0,,,,,,,,,green,triangle
0.0,1.0,0.5,0.0,5.0,5.0,382.839247999982,8.0,1.0,phase_2,go,300.0,150.0,1.0,,,,,,,,,orange,cross
0.0,7.0,2.0,1.0,6.0,6.0,338.2366819996605,8.0,1.0,phase_2,stop,300.0,150.0,3.0,,,,,,,,,magenta,square
0.0,7.0,2.0,1.0,5.0,5.0,502.786873000332,8.0,1.0,phase_2,stop,300.0,100.0,3.0,,,,,,,,,magenta,square
0.0,3.0,2.0,0.0,5.0,5.0,541.2266789999194,8.0,1.0,phase_2,go,250.0,100.0,1.0,,,,,,,,,green,triangle
0.0,1.0,0.5,0.0,5.0,5.0,365.1069400002598,8.0,1.0,phase_2,go,250.0,100.0,1.0,,,,,,,,,orange,cross
0.0,2.0,1.0,0.0,5.0,5.0,345.8832899996196,8.0,1.0,phase_2,go,250.0,100.0,1.0,,,,,,,,,white,hexagon
0.0,1.0,0.5,0.0,5.0,5.0,335.3309659996739,8.0,1.0,phase_2,go,250.0,100.0,1.0,,,,,,,,,orange,cross
0.0,5.0,0.5,1.0,6.0,6.0,335.8759579996331,8.0,1.0,phase_2,go,250.0,100.0,1.0,,,,,,,,,blue,diamond
0.0,8.0,4.0,1.0,5.0,5.0,306.7584689997602,8.0,1.0,phase_2,stop,250.0,100.0,3.0,,,,,,,,,yellow,flipped triangle
0.0,6.0,1.0,1.0,5.0,0.0,0.0,8.0,1.0,phase_2,stop,200.0,100.0,4.0,,,,,,,,,gray,circle
0.0,6.0,1.0,1.0,5.0,5.0,422.5996149998536,8.0,1.0,phase_2,stop,250.0,100.0,3.0,,,,,,,,,gray,circle
0.0,4.0,4.0,0.0,5.0,5.0,701.55238299958,8.0,1.0,phase_2,go,200.0,100.0,1.0,,,,,,,,,cyan,I
0.0,5.0,0.5,1.0,6.0,6.0,342.0996049999303,8.0,1.0,phase_2,stop,200.0,100.0,3.0,,,,,,,,,blue,diamond
0.0,3.0,2.0,0.0,5.0,5.0,428.9866170001915,8.0,1.0,phase_2,go,200.0,50.0,1.0,,,,,,,,,green,triangle
0.0,5.0,0.5,1.0,5.0,5.0,376.9212509996578,8.0,1.0,phase_2,stop,200.0,50.0,3.0,,,,,,,,,blue,diamond
0.0,5.0,0.5,1.0,6.0,0.0,0.0,8.0,1.0,phase_2,stop,150.0,50.0,4.0,,,,,,,,,blue,diamond
0.0,6.0,1.0,1.0,6.0,0.0,0.0,8.0,1.0,phase_2,stop,150.0,100.0,4.0,,,,,,,,,gray,circle
0.0,5.0,0.5,1.0,5.0,5.0,522.563333999642,8.0,1.0,phase_2,go,150.0,150.0,1.0,,,,,,,,,blue,diamond
0.0,2.0,1.0,0.0,5.0,5.0,467.7279859997725,8.0,1.0,phase_2,go,150.0,150.0,1.0,,,,,,,,,white,hexagon
0.0,5.0,0.5,1.0,5.0,5.0,372.7678459999879,8.0,1.0,phase_2,go,150.0,150.0,1.0,,,,,,,,,blue,diamond
0.0,5.0,0.5,1.0,6.0,0.0,0.0,8.0,1.0,phase_2,stop,150.0,150.0,4.0,,,,,,,,,blue,diamond
0.0,2.0,1.0,0.0,6.0,6.0,747.6501060000373,8.0,1.0,phase_2,go,150.0,200.0,1.0,,,,,,,,,white,hexagon
0.0,3.0,2.0,0.0,6.0,6.0,381.6775859995687,8.0,1.0,phase_2,go,150.0,200.0,1.0,,,,,,,,,green,triangle
0.0,8.0,4.0,1.0,5.0,5.0,385.3107240001918,8.0,1.0,phase_2,stop,150.0,200.0,3.0,,,,,,,,,yellow,flipped triangle
0.0,8.0,4.0,1.0,6.0,6.0,365.6076320003194,8.0,1.0,phase_2,stop,100.0,200.0,3.0,,,,,,,,,yellow,flipped triangle
0.0,1.0,0.5,0.0,5.0,5.0,401.671241999793,8.0,1.0,phase_2,go,100.0,150.0,1.0,,,,,,,,,orange,cross
0.0,6.0,1.0,1.0,5.0,5.0,606.3288799996371,8.0,1.0,phase_2,go,100.0,150.0,1.0,,,,,,,,,gray,circle
0.0,7.0,2.0,1.0,5.0,5.0,418.9918460006083,8.0,1.0,phase_2,go,100.0,150.0,1.0,,,,,,,,,magenta,square
0.0,3.0,2.0,0.0,6.0,6.0,317.8953789993102,8.0,1.0,phase_2,go,100.0,150.0,1.0,,,,,,,,,green,triangle
0.0,2.0,1.0,0.0,6.0,6.0,335.7326839995949,8.0,1.0,phase_2,go,100.0,150.0,1.0,,,,,,,,,white,hexagon
0.0,8.0,4.0,1.0,6.0,6.0,392.8091910001967,8.0,1.0,phase_2,go,100.0,150.0,1.0,,,,,,,,,yellow,flipped triangle
0.0,4.0,4.0,0.0,5.0,5.0,317.967989999488,8.0,1.0,phase_2,go,100.0,150.0,1.0,,,,,,,,,cyan,I
0.0,1.0,0.5,0.0,6.0,6.0,299.3073360003109,8.0,1.0,phase_2,go,100.0,150.0,1.0,,,,,,,,,orange,cross
0.0,7.0,2.0,1.0,5.0,5.0,233.9344729998629,8.0,1.0,phase_2,go,100.0,150.0,1.0,,,,,,,,,magenta,square
0.0,7.0,2.0,1.0,5.0,5.0,353.3056349997423,8.0,1.0,phase_2,stop,100.0,150.0,3.0,,,,,,,,,magenta,square
0.0,3.0,2.0,0.0,7.0,5.0,2574.916683000083,1.0,2.0,phase_3,,,,,810.0,6.0,270.0,675.0,405.0,135.0,810.0,540.0,green,triangle
0.0,1.0,0.5,0.0,7.0,2.0,1739.8497740005039,1.0,1.0,phase_3,,,,,519.0,3.0,865.0,519.0,1038.0,173.0,692.0,346.0,orange,cross
0.0,3.0,2.0,0.0,7.0,1.0,2531.0127319999083,1.0,1.0,phase_3,,,,,173.0,1.0,173.0,346.0,692.0,519.0,1038.0,865.0,green,triangle
0.0,3.0,2.0,0.0,7.0,3.0,2213.890789999823,1.0,1.0,phase_3,,,,,308.0,2.0,924.0,154.0,308.0,770.0,616.0,462.0,green,triangle
0.0,6.0,1.0,1.0,7.0,6.0,2428.0276909994427,1.0,1.0,phase_3,,,,,464.0,4.0,696.0,116.0,232.0,580.0,348.0,464.0,gray,circle
0.0,4.0,4.0,0.0,7.0,5.0,2286.320848000287,1.0,1.0,phase_3,,,,,770.0,5.0,308.0,462.0,924.0,616.0,770.0,154.0,cyan,I
0.0,8.0,4.0,1.0,7.0,4.0,2119.3563389997507,1.0,1.0,phase_3,,,,,270.0,2.0,675.0,405.0,810.0,270.0,135.0,540.0,yellow,flipped triangle
0.0,3.0,2.0,0.0,7.0,3.0,2045.2739049997035,1.0,1.0,phase_3,,,,,384.0,2.0,192.0,576.0,384.0,768.0,960.0,1152.0,green,triangle
0.0,4.0,4.0,0.0,7.0,3.0,3118.77356199966,1.0,1.0,phase_3,,,,,675.0,5.0,270.0,135.0,675.0,810.0,540.0,405.0,cyan,I
0.0,2.0,1.0,0.0,7.0,1.0,4637.206303000312,1.0,1.0,phase_3,,,,,924.0,6.0,924.0,308.0,462.0,154.0,770.0,616.0,white,hexagon
0.0,8.0,4.0,1.0,7.0,5.0,2585.868973000288,1.0,1.0,phase_3,,,,,1038.0,6.0,692.0,865.0,519.0,173.0,1038.0,346.0,yellow,flipped triangle
0.0,1.0,0.5,0.0,7.0,4.0,2418.9229270004944,1.0,1.0,phase_3,,,,,135.0,1.0,810.0,540.0,405.0,135.0,675.0,270.0,orange,cross
0.0,7.0,2.0,1.0,7.0,2.0,1720.0498390002394,1.0,1.0,phase_3,,,,,348.0,3.0,696.0,348.0,464.0,116.0,580.0,232.0,magenta,square
0.0,8.0,4.0,1.0,7.0,6.0,2177.471263999905,1.0,1.0,phase_3,,,,,464.0,4.0,580.0,348.0,232.0,116.0,696.0,464.0,yellow,flipped triangle
0.0,2.0,1.0,0.0,7.0,2.0,2685.257856999669,1.0,1.0,phase_3,,,,,540.0,4.0,675.0,540.0,135.0,810.0,270.0,405.0,white,hexagon
0.0,3.0,2.0,0.0,7.0,6.0,2175.6635110004936,1.0,1.0,phase_3,,,,,348.0,3.0,696.0,232.0,116.0,580.0,464.0,348.0,green,triangle
0.0,8.0,4.0,1.0,7.0,6.0,2185.811325999566,1.0,1.0,phase_3,,,,,1152.0,6.0,960.0,576.0,768.0,192.0,384.0,1152.0,yellow,flipped triangle
0.0,5.0,0.5,1.0,7.0,3.0,2406.3594809995266,1.0,1.0,phase_3,,,,,675.0,5.0,270.0,405.0,675.0,135.0,810.0,540.0,blue,diamond
0.0,4.0,4.0,0.0,7.0,6.0,2507.7744419995724,1.0,1.0,phase_3,,,,,540.0,4.0,405.0,810.0,675.0,135.0,270.0,540.0,cyan,I
0.0,2.0,1.0,0.0,7.0,2.0,2108.096271999784,1.0,1.0,phase_3,,,,,154.0,1.0,462.0,154.0,924.0,308.0,770.0,616.0,white,hexagon
0.0,5.0,0.5,1.0,7.0,4.0,2684.507055999348,2.0,1.0,phase_3,,,,,346.0,2.0,173.0,519.0,865.0,346.0,1038.0,692.0,blue,diamond
0.0,2.0,1.0,0.0,7.0,5.0,2380.332202000318,2.0,1.0,phase_3,,,,,519.0,3.0,865.0,1038.0,692.0,173.0,519.0,346.0,white,hexagon
0.0,3.0,2.0,0.0,7.0,6.0,1452.6512040001762,2.0,1.0,phase_3,,,,,462.0,3.0,154.0,770.0,616.0,924.0,308.0,462.0,green,triangle
0.0,6.0,1.0,1.0,7.0,3.0,1332.368944999871,2.0,1.0,phase_3,,,,,1152.0,6.0,960.0,384.0,1152.0,576.0,192.0,768.0,gray,circle
0.0,2.0,1.0,0.0,7.0,2.0,1999.199564999799,2.0,1.0,phase_3,,,,,768.0,4.0,1152.0,768.0,192.0,960.0,384.0,576.0,white,hexagon
0.0,7.0,2.0,1.0,7.0,5.0,1370.7223080000404,2.0,1.0,phase_3,,,,,270.0,2.0,675.0,540.0,810.0,135.0,270.0,405.0,magenta,square
0.0,1.0,0.5,0.0,7.0,6.0,2627.263512999889,2.0,1.0,phase_3,,,,,865.0,5.0,519.0,692.0,173.0,346.0,1038.0,865.0,orange,cross
0.0,4.0,4.0,0.0,7.0,4.0,1913.839351000206,2.0,1.0,phase_3,,,,,692.0,4.0,519.0,1038.0,865.0,692.0,173.0,346.0,cyan,I
0.0,5.0,0.5,1.0,7.0,1.0,1936.72747599976,2.0,1.0,phase_3,,,,,346.0,2.0,346.0,173.0,1038.0,519.0,865.0,692.0,blue,diamond
0.0,1.0,0.5,0.0,7.0,5.0,1701.1708230002114,2.0,1.0,phase_3,,,,,810.0,6.0,135.0,540.0,675.0,405.0,810.0,270.0,orange,cross
0.0,7.0,2.0,1.0,7.0,2.0,1823.2618130004996,2.0,1.0,phase_3,,,,,135.0,1.0,810.0,135.0,270.0,405.0,675.0,540.0,magenta,square
0.0,6.0,1.0,1.0,7.0,5.0,3346.660938999776,2.0,1.0,phase_3,,,,,1038.0,6.0,173.0,692.0,865.0,346.0,1038.0,519.0,gray,circle
0.0,6.0,1.0,1.0,7.0,4.0,1712.205179000193,2.0,1.0,phase_3,,,,,675.0,5.0,405.0,270.0,810.0,675.0,135.0,540.0,gray,circle
0.0,3.0,2.0,0.0,7.0,3.0,1149.2702720006491,2.0,1.0,phase_3,,,,,405.0,3.0,540.0,270.0,405.0,810.0,675.0,135.0,green,triangle
0.0,6.0,1.0,1.0,7.0,2.0,1194.4356439998955,2.0,1.0,phase_3,,,,,192.0,1.0,1152.0,192.0,960.0,768.0,384.0,576.0,gray,circle
0.0,7.0,2.0,1.0,7.0,6.0,1389.6658200001184,2.0,1.0,phase_3,,,,,865.0,5.0,173.0,346.0,519.0,692.0,1038.0,865.0,magenta,square
0.0,8.0,4.0,1.0,7.0,1.0,2026.8540840006608,2.0,1.0,phase_3,,,,,768.0,4.0,768.0,1152.0,384.0,576.0,192.0,960.0,yellow,flipped triangle
0.0,2.0,1.0,0.0,7.0,4.0,1795.5974950000382,2.0,1.0,phase_3,,,,,519.0,3.0,865.0,1038.0,692.0,519.0,346.0,173.0,white,hexagon
0.0,4.0,4.0,0.0,7.0,2.0,1384.7840899998118,2.0,1.0,phase_3,,,,,865.0,5.0,346.0,865.0,1038.0,692.0,519.0,173.0,cyan,I
0.0,2.0,1.0,0.0,7.0,6.0,1509.6796019997782,2.0,1.0,phase_3,,,,,540.0,4.0,270.0,135.0,405.0,810.0,675.0,540.0,white,hexagon
0.0,2.0,1.0,0.0,7.0,6.0,2100.872025000172,3.0,1.0,phase_3,,,,,384.0,2.0,192.0,960.0,1152.0,576.0,768.0,384.0,white,hexagon
0.0,5.0,0.5,1.0,7.0,2.0,1666.5574450007623,3.0,1.0,phase_3,,,,,580.0,5.0,232.0,580.0,464.0,696.0,348.0,116.0,blue,diamond
0.0,8.0,4.0,1.0,7.0,4.0,1275.9459330000027,3.0,1.0,phase_3,,,,,696.0,6.0,464.0,348.0,116.0,696.0,580.0,232.0,yellow,flipped triangle
0.0,8.0,4.0,1.0,7.0,2.0,1139.6983569993608,3.0,1.0,phase_3,,,,,540.0,4.0,135.0,540.0,270.0,405.0,810.0,675.0,yellow,flipped triangle
0.0,7.0,2.0,1.0,7.0,5.0,2666.410969000026,3.0,1.0,phase_3,,,,,464.0,4.0,116.0,232.0,348.0,696.0,464.0,580.0,magenta,square
0.0,6.0,1.0,1.0,7.0,4.0,3127.860269999473,3.0,1.0,phase_3,,,,,116.0,1.0,464.0,348.0,696.0,116.0,232.0,580.0,gray,circle
0.0,7.0,2.0,1.0,7.0,6.0,2008.0518200002189,3.0,1.0,phase_3,,,,,519.0,3.0,865.0,346.0,692.0,173.0,1038.0,519.0,magenta,square
0.0,5.0,0.5,1.0,7.0,2.0,1510.5265390002387,3.0,1.0,phase_3,,,,,232.0,2.0,580.0,232.0,348.0,696.0,464.0,116.0,blue,diamond
0.0,7.0,2.0,1.0,7.0,5.0,1524.8095140004807,3.0,1.0,phase_3,,,,,308.0,2.0,154.0,770.0,462.0,924.0,308.0,616.0,magenta,square
0.0,3.0,2.0,0.0,7.0,3.0,2046.2057689992434,3.0,1.0,phase_3,,,,,696.0,6.0,464.0,348.0,696.0,232.0,116.0,580.0,green,triangle
0.0,4.0,4.0,0.0,7.0,6.0,1334.112960999846,3.0,1.0,phase_3,,,,,580.0,5.0,116.0,232.0,464.0,696.0,348.0,580.0,cyan,I
0.0,2.0,1.0,0.0,7.0,2.0,2481.616199999735,3.0,1.0,phase_3,,,,,464.0,4.0,232.0,464.0,348.0,580.0,696.0,116.0,white,hexagon
0.0,8.0,4.0,1.0,7.0,1.0,1406.933803999891,3.0,1.0,phase_3,,,,,173.0,1.0,173.0,865.0,519.0,1038.0,346.0,692.0,yellow,flipped triangle
0.0,6.0,1.0,1.0,7.0,6.0,2243.868252000538,3.0,1.0,phase_3,,,,,308.0,2.0,462.0,154.0,616.0,770.0,924.0,308.0,gray,circle
0.0,6.0,1.0,1.0,7.0,4.0,2259.164709000288,3.0,1.0,phase_3,,,,,135.0,1.0,405.0,270.0,810.0,135.0,675.0,540.0,gray,circle
0.0,1.0,0.5,0.0,7.0,3.0,2333.215509999718,3.0,1.0,phase_3,,,,,960.0,5.0,576.0,768.0,960.0,192.0,384.0,1152.0,orange,cross
0.0,1.0,0.5,0.0,7.0,5.0,3764.678216999528,3.0,1.0,phase_3,,,,,580.0,5.0,116.0,696.0,348.0,232.0,580.0,464.0,orange,cross
0.0,1.0,0.5,0.0,7.0,1.0,4441.724989999784,3.0,1.0,phase_3,,,,,576.0,3.0,576.0,960.0,1152.0,768.0,192.0,384.0,orange,cross
0.0,5.0,0.5,1.0,7.0,4.0,4339.588822999758,3.0,1.0,phase_3,,,,,462.0,3.0,616.0,308.0,924.0,462.0,770.0,154.0,blue,diamond
0.0,3.0,2.0,0.0,7.0,1.0,3604.140022000138,3.0,1.0,phase_3,,,,,576.0,3.0,576.0,1152.0,960.0,768.0,192.0,384.0,green,triangle
0.0,4.0,4.0,0.0,7.0,6.0,1690.8378189991708,4.0,1.0,phase_3,,,,,384.0,2.0,768.0,192.0,960.0,1152.0,576.0,384.0,cyan,I
0.0,8.0,4.0,1.0,7.0,4.0,2020.565601999806,4.0,1.0,phase_3,,,,,770.0,5.0,616.0,154.0,924.0,770.0,462.0,308.0,yellow,flipped triangle
0.0,1.0,0.5,0.0,7.0,2.0,1315.1884779999818,4.0,1.0,phase_3,,,,,462.0,3.0,924.0,462.0,308.0,616.0,154.0,770.0,orange,cross
0.0,7.0,2.0,1.0,7.0,6.0,2194.604620000064,4.0,1.0,phase_3,,,,,576.0,3.0,192.0,384.0,960.0,768.0,1152.0,576.0,magenta,square
0.0,6.0,1.0,1.0,7.0,5.0,1294.8050380000495,4.0,1.0,phase_3,,,,,924.0,6.0,462.0,154.0,308.0,616.0,924.0,770.0,gray,circle
0.0,1.0,0.5,0.0,7.0,2.0,1314.9413909995928,4.0,1.0,phase_3,,,,,116.0,1.0,580.0,116.0,348.0,696.0,464.0,232.0,orange,cross
0.0,5.0,0.5,1.0,7.0,1.0,3340.3553429998283,4.0,1.0,phase_3,,,,,810.0,6.0,810.0,270.0,675.0,135.0,405.0,540.0,blue,diamond
0.0,5.0,0.5,1.0,7.0,3.0,1527.844449999975,4.0,1.0,phase_3,,,,,768.0,4.0,960.0,1152.0,768.0,384.0,192.0,576.0,blue,diamond
0.0,5.0,0.5,1.0,7.0,6.0,2213.725607000015,4.0,1.0,phase_3,,,,,576.0,3.0,960.0,384.0,768.0,192.0,1152.0,576.0,blue,diamond
0.0,4.0,4.0,0.0,7.0,2.0,3861.9101809999847,4.0,1.0,phase_3,,,,,464.0,4.0,232.0,464.0,348.0,580.0,116.0,696.0,cyan,I
0.0,3.0,2.0,0.0,7.0,3.0,2351.440280000133,4.0,1.0,phase_3,,,,,346.0,2.0,1038.0,519.0,346.0,173.0,865.0,692.0,green,triangle
0.0,5.0,0.5,1.0,7.0,5.0,2469.7791569997207,4.0,1.0,phase_3,,,,,770.0,5.0,462.0,308.0,924.0,154.0,770.0,616.0,blue,diamond
0.0,8.0,4.0,1.0,7.0,2.0,1434.8898400003236,4.0,1.0,phase_3,,,,,308.0,2.0,462.0,308.0,924.0,770.0,616.0,154.0,yellow,flipped triangle
0.0,7.0,2.0,1.0,7.0,3.0,4623.446859000069,4.0,1.0,phase_3,,,,,924.0,6.0,770.0,616.0,924.0,462.0,308.0,154.0,magenta,square
0.0,2.0,1.0,0.0,7.0,5.0,1536.952299999939,4.0,1.0,phase_3,,,,,580.0,5.0,116.0,348.0,232.0,464.0,580.0,696.0,white,hexagon
0.0,4.0,4.0,0.0,7.0,2.0,1498.8300479999452,4.0,1.0,phase_3,,,,,576.0,3.0,384.0,576.0,768.0,960.0,1152.0,192.0,cyan,I
0.0,7.0,2.0,1.0,7.0,2.0,2407.566597999903,4.0,1.0,phase_3,,,,,384.0,2.0,768.0,384.0,576.0,1152.0,192.0,960.0,magenta,square
0.0,1.0,0.5,0.0,7.0,3.0,3122.555322999688,4.0,1.0,phase_3,,,,,462.0,3.0,924.0,770.0,462.0,308.0,154.0,616.0,orange,cross
0.0,4.0,4.0,0.0,7.0,5.0,2526.406654999846,4.0,1.0,phase_3,,,,,924.0,6.0,462.0,616.0,308.0,154.0,924.0,770.0,cyan,I
0.0,6.0,1.0,1.0,7.0,5.0,3534.7665709996363,4.0,1.0,phase_3,,,,,692.0,4.0,346.0,1038.0,865.0,519.0,692.0,173.0,gray,circle
