raw_reward_magnitude,stim_reward,stepwise_reward_magnitude,paired_with_stopping,stim_location,response,reaction_time,block,num_trial_presentations,which_phase,stop_signal_trial_type,left_SSD,right_SSD,accuracy,chosen_bidding_amount,chosen_bidding_level,possible_bid_1,possible_bid_2,possible_bid_3,possible_bid_4,possible_bid_5,possible_bid_6,color_text,shape_text
165.0,5.0,1.0,1.0,2.0,2.0,481.6818179997426,1.0,1.0,phase_1,,,,,,,,,,,,,orange,hexagon
331.0,6.0,2.0,1.0,1.0,1.0,482.4266260002332,1.0,1.0,phase_1,,,,,,,,,,,,,green,cross
185.0,1.0,1.0,0.0,1.0,1.0,480.5220329999429,1.0,1.0,phase_1,,,,,,,,,,,,,blue,diamond
322.0,2.0,2.0,0.0,1.0,1.0,425.8960429997387,1.0,1.0,phase_1,,,,,,,,,,,,,yellow,I
337.0,2.0,2.0,0.0,1.0,1.0,314.5200680000926,1.0,1.0,phase_1,,,,,,,,,,,,,yellow,I
1278.0,4.0,4.0,0.0,4.0,4.0,508.8273040000786,1.0,1.0,phase_1,,,,,,,,,,,,,magenta,circle
304.0,2.0,2.0,0.0,3.0,3.0,371.4568160003182,1.0,1.0,phase_1,,,,,,,,,,,,,yellow,I
663.0,3.0,3.0,0.0,1.0,1.0,370.4984179998973,1.0,1.0,phase_1,,,,,,,,,,,,,gray,flipped triangle
673.0,7.0,3.0,1.0,2.0,2.0,415.8631360000981,1.0,1.0,phase_1,,,,,,,,,,,,,white,square
169.0,1.0,1.0,0.0,2.0,2.0,443.4471049999047,1.0,1.0,phase_1,,,,,,,,,,,,,blue,diamond
0.0,5.0,0.0,1.0,4.0,4.0,416.693129000123,1.0,1.0,phase_1,,,,,,,,,,,,,orange,hexagon
1302.0,4.0,4.0,0.0,2.0,2.0,618.5174779998306,1.0,1.0,phase_1,,,,,,,,,,,,,magenta,circle
1311.0,4.0,4.0,0.0,1.0,1.0,351.5008449999186,1.0,1.0,phase_1,,,,,,,,,,,,,magenta,circle
647.0,7.0,3.0,1.0,2.0,2.0,452.2006379997947,1.0,1.0,phase_1,,,,,,,,,,,,,white,square
638.0,7.0,3.0,1.0,1.0,1.0,398.1561299997338,1.0,1.0,phase_1,,,,,,,,,,,,,white,square
149.0,1.0,1.0,0.0,4.0,4.0,443.4339019999243,1.0,1.0,phase_1,,,,,,,,,,,,,blue,diamond
666.0,3.0,3.0,0.0,1.0,1.0,360.745801000121,1.0,1.0,phase_1,,,,,,,,,,,,,gray,flipped triangle
146.0,5.0,1.0,1.0,3.0,3.0,378.9412870000888,1.0,1.0,phase_1,,,,,,,,,,,,,orange,hexagon
629.0,7.0,3.0,1.0,1.0,1.0,425.7501380002395,1.0,1.0,phase_1,,,,,,,,,,,,,white,square
1301.0,8.0,4.0,1.0,1.0,1.0,508.21975100006966,1.0,1.0,phase_1,,,,,,,,,,,,,cyan,triangle
320.0,2.0,2.0,0.0,2.0,2.0,576.8538510001235,1.0,1.0,phase_1,,,,,,,,,,,,,yellow,I
626.0,7.0,3.0,1.0,3.0,3.0,408.4155189998455,1.0,1.0,phase_1,,,,,,,,,,,,,white,square
1279.0,4.0,4.0,0.0,2.0,2.0,369.3864239999129,1.0,1.0,phase_1,,,,,,,,,,,,,magenta,circle
330.0,2.0,2.0,0.0,2.0,2.0,417.3846120002054,1.0,1.0,phase_1,,,,,,,,,,,,,yellow,I
663.0,7.0,3.0,1.0,1.0,1.0,442.9574069999944,1.0,2.0,phase_1,,,,,,,,,,,,,white,square
638.0,3.0,3.0,0.0,3.0,3.0,425.4709699998784,1.0,1.0,phase_1,,,,,,,,,,,,,gray,flipped triangle
1298.0,4.0,4.0,0.0,1.0,1.0,437.5788649999776,1.0,1.0,phase_1,,,,,,,,,,,,,magenta,circle
1293.0,8.0,4.0,1.0,2.0,2.0,526.6632709999612,1.0,1.0,phase_1,,,,,,,,,,,,,cyan,triangle
666.0,7.0,3.0,1.0,2.0,2.0,426.4908380000634,1.0,1.0,phase_1,,,,,,,,,,,,,white,square
147.0,5.0,1.0,1.0,1.0,1.0,444.3465670001387,1.0,1.0,phase_1,,,,,,,,,,,,,orange,hexagon
1286.0,4.0,4.0,0.0,1.0,1.0,397.2565439999016,1.0,1.0,phase_1,,,,,,,,,,,,,magenta,circle
176.0,5.0,1.0,1.0,4.0,4.0,409.3976629997087,1.0,1.0,phase_1,,,,,,,,,,,,,orange,hexagon
314.0,6.0,2.0,1.0,1.0,1.0,378.9794960002837,1.0,1.0,phase_1,,,,,,,,,,,,,green,cross
1291.0,4.0,4.0,0.0,3.0,3.0,453.7648360001185,1.0,1.0,phase_1,,,,,,,,,,,,,magenta,circle
0.0,1.0,0.0,0.0,3.0,3.0,461.6321359999347,1.0,1.0,phase_1,,,,,,,,,,,,,blue,diamond
139.0,5.0,1.0,1.0,2.0,2.0,443.2052560000556,1.0,1.0,phase_1,,,,,,,,,,,,,orange,hexagon
181.0,1.0,1.0,0.0,2.0,2.0,428.1647049997445,1.0,1.0,phase_1,,,,,,,,,,,,,blue,diamond
0.0,1.0,0.0,0.0,3.0,3.0,416.2863209999159,1.0,1.0,phase_1,,,,,,,,,,,,,blue,diamond
346.0,6.0,2.0,1.0,1.0,1.0,380.4718080000384,1.0,1.0,phase_1,,,,,,,,,,,,,green,cross
0.0,8.0,0.0,1.0,3.0,3.0,369.6779400002015,1.0,1.0,phase_1,,,,,,,,,,,,,cyan,triangle
165.0,1.0,1.0,0.0,4.0,4.0,452.1062889998575,1.0,1.0,phase_1,,,,,,,,,,,,,blue,diamond
1312.0,8.0,4.0,1.0,3.0,3.0,416.3302020001538,1.0,1.0,phase_1,,,,,,,,,,,,,cyan,triangle
0.0,4.0,0.0,0.0,2.0,2.0,349.8550489998706,1.0,1.0,phase_1,,,,,,,,,,,,,magenta,circle
666.0,7.0,3.0,1.0,3.0,3.0,370.1410020003095,1.0,1.0,phase_1,,,,,,,,,,,,,white,square
0.0,7.0,0.0,1.0,2.0,2.0,388.4793060001357,1.0,1.0,phase_1,,,,,,,,,,,,,white,square
308.0,6.0,2.0,1.0,1.0,1.0,480.6171790000917,1.0,1.0,phase_1,,,,,,,,,,,,,green,cross
1308.0,4.0,4.0,0.0,1.0,1.0,375.0751550001041,1.0,1.0,phase_1,,,,,,,,,,,,,magenta,circle
348.0,6.0,2.0,1.0,2.0,2.0,489.9959119998129,1.0,1.0,phase_1,,,,,,,,,,,,,green,cross
171.0,5.0,1.0,1.0,2.0,2.0,445.3175700000429,1.0,1.0,phase_1,,,,,,,,,,,,,orange,hexagon
643.0,7.0,3.0,1.0,1.0,1.0,333.46951800012897,1.0,1.0,phase_1,,,,,,,,,,,,,white,square
0.0,8.0,0.0,1.0,2.0,2.0,424.4136120000803,1.0,1.0,phase_1,,,,,,,,,,,,,cyan,triangle
1297.0,4.0,4.0,0.0,3.0,3.0,434.3044659999577,1.0,1.0,phase_1,,,,,,,,,,,,,magenta,circle
339.0,6.0,2.0,1.0,2.0,2.0,405.5341200000839,1.0,1.0,phase_1,,,,,,,,,,,,,green,cross
1301.0,4.0,4.0,0.0,1.0,1.0,416.4991500001633,1.0,1.0,phase_1,,,,,,,,,,,,,magenta,circle
310.0,2.0,2.0,0.0,4.0,4.0,480.9439780001412,1.0,1.0,phase_1,,,,,,,,,,,,,yellow,I
1318.0,4.0,4.0,0.0,1.0,1.0,406.460706999951,1.0,1.0,phase_1,,,,,,,,,,,,,magenta,circle
646.0,7.0,3.0,1.0,2.0,2.0,390.530081000179,1.0,1.0,phase_1,,,,,,,,,,,,,white,square
655.0,3.0,3.0,0.0,3.0,3.0,416.2421010000798,1.0,1.0,phase_1,,,,,,,,,,,,,gray,flipped triangle
1312.0,4.0,4.0,0.0,1.0,1.0,368.8275280001107,1.0,1.0,phase_1,,,,,,,,,,,,,magenta,circle
0.0,5.0,0.0,1.0,4.0,4.0,499.4353570000385,1.0,1.0,phase_1,,,,,,,,,,,,,orange,hexagon
185.0,5.0,1.0,1.0,1.0,1.0,396.8235130000721,1.0,1.0,phase_1,,,,,,,,,,,,,orange,hexagon
182.0,1.0,1.0,0.0,4.0,4.0,369.776412000192,1.0,1.0,phase_1,,,,,,,,,,,,,blue,diamond
176.0,1.0,1.0,0.0,2.0,2.0,442.4399700001231,1.0,1.0,phase_1,,,,,,,,,,,,,blue,diamond
326.0,6.0,2.0,1.0,2.0,2.0,425.0645030001578,1.0,1.0,phase_1,,,,,,,,,,,,,green,cross
0.0,5.0,0.0,1.0,1.0,1.0,324.2868620000081,1.0,1.0,phase_1,,,,,,,,,,,,,orange,hexagon
1302.0,8.0,4.0,1.0,1.0,1.0,397.1682240003247,1.0,1.0,phase_1,,,,,,,,,,,,,cyan,triangle
174.0,5.0,1.0,1.0,4.0,4.0,370.0877210003455,1.0,1.0,phase_1,,,,,,,,,,,,,orange,hexagon
317.0,6.0,2.0,1.0,1.0,1.0,415.542213000208,1.0,1.0,phase_1,,,,,,,,,,,,,green,cross
670.0,3.0,3.0,0.0,4.0,4.0,415.3324519998023,1.0,1.0,phase_1,,,,,,,,,,,,,gray,flipped triangle
0.0,7.0,0.0,1.0,2.0,2.0,451.8595529998492,1.0,1.0,phase_1,,,,,,,,,,,,,white,square
151.0,5.0,1.0,1.0,3.0,3.0,388.4937070001797,1.0,1.0,phase_1,,,,,,,,,,,,,orange,hexagon
170.0,5.0,1.0,1.0,1.0,1.0,305.7480759998725,1.0,1.0,phase_1,,,,,,,,,,,,,orange,hexagon
314.0,2.0,2.0,0.0,3.0,3.0,369.2617940000673,1.0,1.0,phase_1,,,,,,,,,,,,,yellow,I
138.0,5.0,1.0,1.0,2.0,2.0,452.6207129997601,1.0,1.0,phase_1,,,,,,,,,,,,,orange,hexagon
147.0,1.0,1.0,0.0,3.0,3.0,452.8744009999172,1.0,1.0,phase_1,,,,,,,,,,,,,blue,diamond
160.0,5.0,1.0,1.0,1.0,1.0,545.5889130003015,1.0,1.0,phase_1,,,,,,,,,,,,,orange,hexagon
0.0,7.0,0.0,1.0,3.0,3.0,407.4598950001018,1.0,1.0,phase_1,,,,,,,,,,,,,white,square
1290.0,4.0,4.0,0.0,2.0,2.0,389.8445790000551,1.0,1.0,phase_1,,,,,,,,,,,,,magenta,circle
339.0,6.0,2.0,1.0,4.0,4.0,370.3524530001232,1.0,1.0,phase_1,,,,,,,,,,,,,green,cross
164.0,5.0,1.0,1.0,4.0,4.0,462.3385080003572,1.0,1.0,phase_1,,,,,,,,,,,,,orange,hexagon
1279.0,8.0,4.0,1.0,3.0,3.0,433.8791049999599,1.0,1.0,phase_1,,,,,,,,,,,,,cyan,triangle
170.0,1.0,1.0,0.0,3.0,3.0,379.0128340001502,1.0,1.0,phase_1,,,,,,,,,,,,,blue,diamond
324.0,2.0,2.0,0.0,2.0,2.0,489.1058070002145,1.0,1.0,phase_1,,,,,,,,,,,,,yellow,I
1303.0,4.0,4.0,0.0,4.0,4.0,443.7321209998117,1.0,1.0,phase_1,,,,,,,,,,,,,magenta,circle
1322.0,4.0,4.0,0.0,3.0,3.0,407.1460380000644,1.0,1.0,phase_1,,,,,,,,,,,,,magenta,circle
150.0,5.0,1.0,1.0,4.0,4.0,351.0219529998721,1.0,1.0,phase_1,,,,,,,,,,,,,orange,hexagon
646.0,3.0,3.0,0.0,2.0,2.0,480.8763519999957,1.0,1.0,phase_1,,,,,,,,,,,,,gray,flipped triangle
300.0,2.0,2.0,0.0,1.0,1.0,388.6239590001423,1.0,1.0,phase_1,,,,,,,,,,,,,yellow,I
1280.0,4.0,4.0,0.0,4.0,4.0,386.6308729998309,1.0,1.0,phase_1,,,,,,,,,,,,,magenta,circle
148.0,5.0,1.0,1.0,1.0,1.0,429.4786929999645,1.0,1.0,phase_1,,,,,,,,,,,,,orange,hexagon
340.0,6.0,2.0,1.0,4.0,4.0,434.2089100000521,1.0,1.0,phase_1,,,,,,,,,,,,,green,cross
156.0,5.0,1.0,1.0,3.0,3.0,359.9964310001269,1.0,1.0,phase_1,,,,,,,,,,,,,orange,hexagon
347.0,6.0,2.0,1.0,1.0,1.0,396.0057040003448,1.0,1.0,phase_1,,,,,,,,,,,,,green,cross
644.0,7.0,3.0,1.0,4.0,4.0,379.89233899998,1.0,1.0,phase_1,,,,,,,,,,,,,white,square
319.0,6.0,2.0,1.0,4.0,4.0,369.6590020003896,1.0,1.0,phase_1,,,,,,,,,,,,,green,cross
300.0,6.0,2.0,1.0,4.0,4.0,397.2781830002532,1.0,1.0,phase_1,,,,,,,,,,,,,green,cross
0.0,4.0,0.0,0.0,4.0,4.0,360.4712579999614,1.0,1.0,phase_1,,,,,,,,,,,,,magenta,circle
343.0,6.0,2.0,1.0,1.0,1.0,389.3961759999911,1.0,1.0,phase_1,,,,,,,,,,,,,green,cross
319.0,2.0,2.0,0.0,3.0,3.0,406.8391979999433,1.0,1.0,phase_1,,,,,,,,,,,,,yellow,I
187.0,1.0,1.0,0.0,4.0,4.0,382.8784330003145,1.0,1.0,phase_1,,,,,,,,,,,,,blue,diamond
140.0,1.0,1.0,0.0,1.0,1.0,397.6882080000905,2.0,1.0,phase_1,,,,,,,,,,,,,blue,diamond
146.0,1.0,1.0,0.0,3.0,3.0,369.9550689998432,2.0,1.0,phase_1,,,,,,,,,,,,,blue,diamond
348.0,2.0,2.0,0.0,1.0,1.0,378.3215299999938,2.0,1.0,phase_1,,,,,,,,,,,,,yellow,I
1322.0,8.0,4.0,1.0,3.0,3.0,378.3988249997492,2.0,1.0,phase_1,,,,,,,,,,,,,cyan,triangle
156.0,1.0,1.0,0.0,1.0,1.0,331.7562520001047,2.0,1.0,phase_1,,,,,,,,,,,,,blue,diamond
311.0,2.0,2.0,0.0,2.0,2.0,553.2315870000275,2.0,1.0,phase_1,,,,,,,,,,,,,yellow,I
661.0,7.0,3.0,1.0,1.0,1.0,406.8801579996943,2.0,1.0,phase_1,,,,,,,,,,,,,white,square
0.0,8.0,0.0,1.0,3.0,3.0,397.2450380001646,2.0,1.0,phase_1,,,,,,,,,,,,,cyan,triangle
0.0,5.0,0.0,1.0,1.0,1.0,351.3668850000613,2.0,1.0,phase_1,,,,,,,,,,,,,orange,hexagon
0.0,2.0,0.0,0.0,3.0,3.0,378.7401869999485,2.0,1.0,phase_1,,,,,,,,,,,,,yellow,I
167.0,1.0,1.0,0.0,2.0,2.0,369.9669329998869,2.0,1.0,phase_1,,,,,,,,,,,,,blue,diamond
0.0,4.0,0.0,0.0,1.0,1.0,324.0763079998032,2.0,1.0,phase_1,,,,,,,,,,,,,magenta,circle
673.0,3.0,3.0,0.0,1.0,1.0,350.9375039998303,2.0,1.0,phase_1,,,,,,,,,,,,,gray,flipped triangle
306.0,6.0,2.0,1.0,4.0,4.0,351.2613560001227,2.0,1.0,phase_1,,,,,,,,,,,,,green,cross
0.0,4.0,0.0,0.0,3.0,3.0,370.9577069998886,2.0,1.0,phase_1,,,,,,,,,,,,,magenta,circle
181.0,5.0,1.0,1.0,2.0,2.0,351.8529050002144,2.0,1.0,phase_1,,,,,,,,,,,,,orange,hexagon
668.0,3.0,3.0,0.0,4.0,4.0,370.4589859999032,2.0,1.0,phase_1,,,,,,,,,,,,,gray,flipped triangle
1291.0,8.0,4.0,1.0,4.0,4.0,341.8345479999516,2.0,1.0,phase_1,,,,,,,,,,,,,cyan,triangle
0.0,7.0,0.0,1.0,1.0,1.0,397.2886699998526,2.0,1.0,phase_1,,,,,,,,,,,,,white,square
317.0,2.0,2.0,0.0,3.0,3.0,378.54526800038,2.0,1.0,phase_1,,,,,,,,,,,,,yellow,I
314.0,2.0,2.0,0.0,4.0,4.0,360.2191720001428,2.0,1.0,phase_1,,,,,,,,,,,,,yellow,I
338.0,2.0,2.0,0.0,2.0,2.0,351.3762389998192,2.0,1.0,phase_1,,,,,,,,,,,,,yellow,I
1312.0,4.0,4.0,0.0,4.0,4.0,379.3924149999839,2.0,1.0,phase_1,,,,,,,,,,,,,magenta,circle
1307.0,4.0,4.0,0.0,3.0,3.0,378.6339909997878,2.0,1.0,phase_1,,,,,,,,,,,,,magenta,circle
0.0,8.0,0.0,1.0,1.0,1.0,389.2669749998276,2.0,1.0,phase_1,,,,,,,,,,,,,cyan,triangle
1325.0,8.0,4.0,1.0,3.0,3.0,388.4747870001774,2.0,1.0,phase_1,,,,,,,,,,,,,cyan,triangle
156.0,5.0,1.0,1.0,2.0,2.0,453.6260539998693,2.0,1.0,phase_1,,,,,,,,,,,,,orange,hexagon
625.0,7.0,3.0,1.0,4.0,4.0,369.5146490003935,2.0,1.0,phase_1,,,,,,,,,,,,,white,square
164.0,1.0,1.0,0.0,3.0,3.0,359.63171100002,2.0,1.0,phase_1,,,,,,,,,,,,,blue,diamond
182.0,5.0,1.0,1.0,2.0,2.0,415.2012800000193,2.0,1.0,phase_1,,,,,,,,,,,,,orange,hexagon
631.0,3.0,3.0,0.0,1.0,1.0,497.7212690000669,2.0,1.0,phase_1,,,,,,,,,,,,,gray,flipped triangle
0.0,7.0,0.0,1.0,2.0,2.0,518.7198879998505,2.0,1.0,phase_1,,,,,,,,,,,,,white,square
180.0,1.0,1.0,0.0,3.0,3.0,406.432931999916,2.0,1.0,phase_1,,,,,,,,,,,,,blue,diamond
147.0,1.0,1.0,0.0,3.0,3.0,491.0336799998731,2.0,1.0,phase_1,,,,,,,,,,,,,blue,diamond
140.0,5.0,1.0,1.0,3.0,3.0,408.0247059996509,2.0,1.0,phase_1,,,,,,,,,,,,,orange,hexagon
183.0,1.0,1.0,0.0,3.0,3.0,378.5335139996277,2.0,1.0,phase_1,,,,,,,,,,,,,blue,diamond
171.0,5.0,1.0,1.0,2.0,2.0,388.6250750001636,2.0,1.0,phase_1,,,,,,,,,,,,,orange,hexagon
675.0,3.0,3.0,0.0,1.0,1.0,433.2936779996998,2.0,1.0,phase_1,,,,,,,,,,,,,gray,flipped triangle
632.0,3.0,3.0,0.0,1.0,1.0,444.6733499999027,2.0,1.0,phase_1,,,,,,,,,,,,,gray,flipped triangle
316.0,2.0,2.0,0.0,1.0,1.0,406.4664759998777,2.0,1.0,phase_1,,,,,,,,,,,,,yellow,I
157.0,5.0,1.0,1.0,4.0,4.0,360.2817349997167,2.0,1.0,phase_1,,,,,,,,,,,,,orange,hexagon
0.0,7.0,0.0,1.0,1.0,1.0,352.5673160002043,2.0,1.0,phase_1,,,,,,,,,,,,,white,square
341.0,6.0,2.0,1.0,3.0,3.0,397.6471229998424,2.0,1.0,phase_1,,,,,,,,,,,,,green,cross
643.0,7.0,3.0,1.0,3.0,3.0,370.264682999732,2.0,1.0,phase_1,,,,,,,,,,,,,white,square
1308.0,4.0,4.0,0.0,4.0,4.0,370.7923529996151,2.0,1.0,phase_1,,,,,,,,,,,,,magenta,circle
341.0,2.0,2.0,0.0,2.0,2.0,406.619843000044,2.0,1.0,phase_1,,,,,,,,,,,,,yellow,I
638.0,7.0,3.0,1.0,3.0,3.0,434.738149000168,2.0,1.0,phase_1,,,,,,,,,,,,,white,square
1318.0,8.0,4.0,1.0,4.0,4.0,388.0252280000604,2.0,1.0,phase_1,,,,,,,,,,,,,cyan,triangle
1302.0,8.0,4.0,1.0,1.0,1.0,407.6443999997536,2.0,1.0,phase_1,,,,,,,,,,,,,cyan,triangle
150.0,1.0,1.0,0.0,1.0,1.0,370.81338400003,2.0,1.0,phase_1,,,,,,,,,,,,,blue,diamond
0.0,3.0,0.0,0.0,4.0,4.0,342.5248870003088,2.0,1.0,phase_1,,,,,,,,,,,,,gray,flipped triangle
304.0,2.0,2.0,0.0,4.0,4.0,314.5249029998922,2.0,1.0,phase_1,,,,,,,,,,,,,yellow,I
1282.0,8.0,4.0,1.0,3.0,3.0,387.9395210001348,2.0,1.0,phase_1,,,,,,,,,,,,,cyan,triangle
147.0,5.0,1.0,1.0,1.0,1.0,425.284226000258,2.0,1.0,phase_1,,,,,,,,,,,,,orange,hexagon
0.0,8.0,0.0,1.0,4.0,4.0,352.0392919999722,2.0,1.0,phase_1,,,,,,,,,,,,,cyan,triangle
0.0,6.0,0.0,1.0,3.0,3.0,415.8991490003245,2.0,1.0,phase_1,,,,,,,,,,,,,green,cross
632.0,7.0,3.0,1.0,2.0,2.0,518.3324049999101,2.0,1.0,phase_1,,,,,,,,,,,,,white,square
187.0,5.0,1.0,1.0,1.0,1.0,416.2580679999337,2.0,1.0,phase_1,,,,,,,,,,,,,orange,hexagon
1306.0,8.0,4.0,1.0,4.0,4.0,376.8498939998608,2.0,1.0,phase_1,,,,,,,,,,,,,cyan,triangle
655.0,7.0,3.0,1.0,4.0,4.0,323.239045000264,2.0,1.0,phase_1,,,,,,,,,,,,,white,square
174.0,1.0,1.0,0.0,4.0,4.0,324.2071810000198,2.0,1.0,phase_1,,,,,,,,,,,,,blue,diamond
175.0,5.0,1.0,1.0,3.0,3.0,507.63893200019083,2.0,1.0,phase_1,,,,,,,,,,,,,orange,hexagon
0.0,5.0,0.0,1.0,2.0,2.0,379.3441839998195,2.0,1.0,phase_1,,,,,,,,,,,,,orange,hexagon
1308.0,8.0,4.0,1.0,3.0,3.0,407.5681270001041,2.0,1.0,phase_1,,,,,,,,,,,,,cyan,triangle
1318.0,8.0,4.0,1.0,4.0,4.0,416.0204670001803,2.0,1.0,phase_1,,,,,,,,,,,,,cyan,triangle
0.0,8.0,0.0,1.0,1.0,1.0,370.8624860000782,2.0,1.0,phase_1,,,,,,,,,,,,,cyan,triangle
1318.0,4.0,4.0,0.0,3.0,3.0,407.536575999984,2.0,1.0,phase_1,,,,,,,,,,,,,magenta,circle
311.0,6.0,2.0,1.0,2.0,2.0,471.1720549998972,2.0,1.0,phase_1,,,,,,,,,,,,,green,cross
0.0,6.0,0.0,1.0,3.0,3.0,370.3814059999786,2.0,1.0,phase_1,,,,,,,,,,,,,green,cross
644.0,3.0,3.0,0.0,2.0,2.0,433.4954270002527,2.0,1.0,phase_1,,,,,,,,,,,,,gray,flipped triangle
0.0,1.0,0.0,0.0,1.0,1.0,409.761625000101,2.0,1.0,phase_1,,,,,,,,,,,,,blue,diamond
324.0,6.0,2.0,1.0,4.0,4.0,396.1826139998265,2.0,1.0,phase_1,,,,,,,,,,,,,green,cross
1307.0,8.0,4.0,1.0,1.0,1.0,397.4660250000852,2.0,1.0,phase_1,,,,,,,,,,,,,cyan,triangle
148.0,1.0,1.0,0.0,1.0,1.0,396.5049019998332,2.0,1.0,phase_1,,,,,,,,,,,,,blue,diamond
1312.0,8.0,4.0,1.0,1.0,1.0,369.9646630002462,2.0,1.0,phase_1,,,,,,,,,,,,,cyan,triangle
0.0,4.0,0.0,0.0,4.0,4.0,332.5527030001467,2.0,1.0,phase_1,,,,,,,,,,,,,magenta,circle
0.0,8.0,0.0,1.0,2.0,2.0,470.2110170001106,2.0,1.0,phase_1,,,,,,,,,,,,,cyan,triangle
674.0,3.0,3.0,0.0,3.0,3.0,405.5466220002017,2.0,1.0,phase_1,,,,,,,,,,,,,gray,flipped triangle
141.0,1.0,1.0,0.0,2.0,2.0,452.4790159998701,2.0,1.0,phase_1,,,,,,,,,,,,,blue,diamond
0.0,2.0,0.0,0.0,2.0,2.0,433.1264279999232,2.0,1.0,phase_1,,,,,,,,,,,,,yellow,I
0.0,8.0,0.0,1.0,2.0,2.0,452.699973000108,2.0,1.0,phase_1,,,,,,,,,,,,,cyan,triangle
661.0,3.0,3.0,0.0,2.0,2.0,433.9602019999802,2.0,1.0,phase_1,,,,,,,,,,,,,gray,flipped triangle
666.0,3.0,3.0,0.0,4.0,4.0,389.5096270002796,2.0,1.0,phase_1,,,,,,,,,,,,,gray,flipped triangle
304.0,6.0,2.0,1.0,1.0,1.0,369.1769110000678,2.0,1.0,phase_1,,,,,,,,,,,,,green,cross
675.0,7.0,3.0,1.0,4.0,4.0,416.1461449998569,2.0,1.0,phase_1,,,,,,,,,,,,,white,square
306.0,2.0,2.0,0.0,4.0,4.0,360.6937710001148,2.0,1.0,phase_1,,,,,,,,,,,,,yellow,I
0.0,5.0,0.0,1.0,2.0,2.0,406.3200780001352,2.0,1.0,phase_1,,,,,,,,,,,,,orange,hexagon
1315.0,4.0,4.0,0.0,4.0,4.0,434.5812300002762,2.0,1.0,phase_1,,,,,,,,,,,,,magenta,circle
631.0,7.0,3.0,1.0,1.0,1.0,361.0795489998963,2.0,1.0,phase_1,,,,,,,,,,,,,white,square
337.0,6.0,2.0,1.0,3.0,3.0,480.9546169999521,2.0,1.0,phase_1,,,,,,,,,,,,,green,cross
0.0,5.0,0.0,1.0,2.0,2.0,398.6197310000534,2.0,1.0,phase_1,,,,,,,,,,,,,orange,hexagon
632.0,7.0,3.0,1.0,3.0,3.0,398.9598359999036,2.0,1.0,phase_1,,,,,,,,,,,,,white,square
0.0,7.0,0.0,1.0,1.0,1.0,379.8437959999319,2.0,1.0,phase_1,,,,,,,,,,,,,white,square
165.0,5.0,1.0,1.0,1.0,1.0,359.7362350001276,2.0,1.0,phase_1,,,,,,,,,,,,,orange,hexagon
673.0,7.0,3.0,1.0,3.0,3.0,360.9115389999715,2.0,1.0,phase_1,,,,,,,,,,,,,white,square
308.0,2.0,2.0,0.0,3.0,3.0,396.8981369998801,2.0,1.0,phase_1,,,,,,,,,,,,,yellow,I
1277.0,4.0,4.0,0.0,2.0,2.0,443.9308510000046,2.0,1.0,phase_1,,,,,,,,,,,,,magenta,circle
0.0,7.0,0.0,1.0,3.0,3.0,387.9623729999366,2.0,1.0,phase_1,,,,,,,,,,,,,white,square
142.0,5.0,1.0,1.0,4.0,4.0,498.0601979996208,2.0,1.0,phase_1,,,,,,,,,,,,,orange,hexagon
325.0,6.0,2.0,1.0,2.0,2.0,427.324074000353,2.0,1.0,phase_1,,,,,,,,,,,,,green,cross
159.0,5.0,1.0,1.0,4.0,4.0,424.6847250001337,3.0,1.0,phase_1,,,,,,,,,,,,,orange,hexagon
167.0,5.0,1.0,1.0,4.0,4.0,388.4189199998218,3.0,1.0,phase_1,,,,,,,,,,,,,orange,hexagon
630.0,7.0,3.0,1.0,1.0,1.0,387.9129819997615,3.0,1.0,phase_1,,,,,,,,,,,,,white,square
630.0,3.0,3.0,0.0,3.0,3.0,397.6239689995964,3.0,1.0,phase_1,,,,,,,,,,,,,gray,flipped triangle
322.0,6.0,2.0,1.0,3.0,3.0,425.4017029998067,3.0,1.0,phase_1,,,,,,,,,,,,,green,cross
142.0,1.0,1.0,0.0,4.0,4.0,388.6441429999649,3.0,1.0,phase_1,,,,,,,,,,,,,blue,diamond
665.0,3.0,3.0,0.0,2.0,2.0,442.6073440004074,3.0,1.0,phase_1,,,,,,,,,,,,,gray,flipped triangle
635.0,7.0,3.0,1.0,4.0,4.0,368.5686000003443,3.0,1.0,phase_1,,,,,,,,,,,,,white,square
183.0,5.0,1.0,1.0,3.0,3.0,405.8775960002094,3.0,1.0,phase_1,,,,,,,,,,,,,orange,hexagon
0.0,3.0,0.0,0.0,2.0,2.0,415.3760080002939,3.0,1.0,phase_1,,,,,,,,,,,,,gray,flipped triangle
648.0,7.0,3.0,1.0,2.0,2.0,414.2011760000059,3.0,1.0,phase_1,,,,,,,,,,,,,white,square
0.0,4.0,0.0,0.0,4.0,4.0,369.1870459997517,3.0,1.0,phase_1,,,,,,,,,,,,,magenta,circle
326.0,2.0,2.0,0.0,2.0,2.0,378.6637450002672,3.0,1.0,phase_1,,,,,,,,,,,,,yellow,I
0.0,4.0,0.0,0.0,4.0,4.0,350.9762929998032,3.0,1.0,phase_1,,,,,,,,,,,,,magenta,circle
1291.0,8.0,4.0,1.0,2.0,2.0,396.6631100001905,3.0,1.0,phase_1,,,,,,,,,,,,,cyan,triangle
649.0,3.0,3.0,0.0,4.0,4.0,360.1226359996872,3.0,1.0,phase_1,,,,,,,,,,,,,gray,flipped triangle
348.0,2.0,2.0,0.0,1.0,1.0,406.3666950000879,3.0,1.0,phase_1,,,,,,,,,,,,,yellow,I
643.0,3.0,3.0,0.0,1.0,1.0,368.5667749996355,3.0,1.0,phase_1,,,,,,,,,,,,,gray,flipped triangle
649.0,7.0,3.0,1.0,1.0,1.0,387.4509570000555,3.0,1.0,phase_1,,,,,,,,,,,,,white,square
154.0,5.0,1.0,1.0,4.0,4.0,387.1032070001092,3.0,1.0,phase_1,,,,,,,,,,,,,orange,hexagon
1306.0,4.0,4.0,0.0,4.0,4.0,340.2161140002135,3.0,1.0,phase_1,,,,,,,,,,,,,magenta,circle
348.0,2.0,2.0,0.0,3.0,3.0,489.0714670000307,3.0,1.0,phase_1,,,,,,,,,,,,,yellow,I
175.0,1.0,1.0,0.0,2.0,2.0,499.027943999863,3.0,1.0,phase_1,,,,,,,,,,,,,blue,diamond
1283.0,8.0,4.0,1.0,3.0,3.0,401.2494670000706,3.0,1.0,phase_1,,,,,,,,,,,,,cyan,triangle
652.0,7.0,3.0,1.0,4.0,4.0,341.4318879999882,3.0,1.0,phase_1,,,,,,,,,,,,,white,square
646.0,3.0,3.0,0.0,1.0,1.0,479.5391040001959,3.0,1.0,phase_1,,,,,,,,,,,,,gray,flipped triangle
314.0,2.0,2.0,0.0,3.0,3.0,396.1636660001204,3.0,1.0,phase_1,,,,,,,,,,,,,yellow,I
654.0,7.0,3.0,1.0,3.0,3.0,407.0474260001901,3.0,1.0,phase_1,,,,,,,,,,,,,white,square
325.0,2.0,2.0,0.0,2.0,2.0,415.47053100021,3.0,1.0,phase_1,,,,,,,,,,,,,yellow,I
0.0,1.0,0.0,0.0,2.0,2.0,398.3039090003331,3.0,1.0,phase_1,,,,,,,,,,,,,blue,diamond
1295.0,8.0,4.0,1.0,1.0,1.0,554.4930139999451,3.0,1.0,phase_1,,,,,,,,,,,,,cyan,triangle
666.0,3.0,3.0,0.0,2.0,2.0,461.5795969998544,3.0,1.0,phase_1,,,,,,,,,,,,,gray,flipped triangle
0.0,6.0,0.0,1.0,2.0,2.0,387.6857019999988,3.0,1.0,phase_1,,,,,,,,,,,,,green,cross
0.0,6.0,0.0,1.0,2.0,2.0,361.0763240003507,3.0,1.0,phase_1,,,,,,,,,,,,,green,cross
0.0,2.0,0.0,0.0,2.0,2.0,405.9936730000117,3.0,1.0,phase_1,,,,,,,,,,,,,yellow,I
629.0,3.0,3.0,0.0,3.0,3.0,472.6775409999391,3.0,1.0,phase_1,,,,,,,,,,,,,gray,flipped triangle
638.0,3.0,3.0,0.0,2.0,2.0,416.0059230002844,3.0,1.0,phase_1,,,,,,,,,,,,,gray,flipped triangle
1288.0,4.0,4.0,0.0,4.0,4.0,400.1569419997395,3.0,1.0,phase_1,,,,,,,,,,,,,magenta,circle
316.0,6.0,2.0,1.0,3.0,3.0,471.2077059998591,3.0,1.0,phase_1,,,,,,,,,,,,,green,cross
0.0,8.0,0.0,1.0,1.0,1.0,387.7941390001069,3.0,1.0,phase_1,,,,,,,,,,,,,cyan,triangle
1290.0,8.0,4.0,1.0,4.0,4.0,341.6175500001372,3.0,1.0,phase_1,,,,,,,,,,,,,cyan,triangle
1311.0,8.0,4.0,1.0,1.0,1.0,368.4780349999528,3.0,1.0,phase_1,,,,,,,,,,,,,cyan,triangle
339.0,2.0,2.0,0.0,3.0,3.0,479.3339020002349,3.0,1.0,phase_1,,,,,,,,,,,,,yellow,I
1291.0,4.0,4.0,0.0,4.0,4.0,378.006083999935,3.0,1.0,phase_1,,,,,,,,,,,,,magenta,circle
0.0,5.0,0.0,1.0,3.0,3.0,378.2734510000409,3.0,1.0,phase_1,,,,,,,,,,,,,orange,hexagon
0.0,5.0,0.0,1.0,3.0,3.0,377.8170189998491,3.0,1.0,phase_1,,,,,,,,,,,,,orange,hexagon
625.0,3.0,3.0,0.0,3.0,3.0,481.0863729999255,3.0,1.0,phase_1,,,,,,,,,,,,,gray,flipped triangle
1317.0,8.0,4.0,1.0,1.0,1.0,425.5216349997681,3.0,1.0,phase_1,,,,,,,,,,,,,cyan,triangle
1276.0,8.0,4.0,1.0,3.0,3.0,552.794687000187,3.0,1.0,phase_1,,,,,,,,,,,,,cyan,triangle
637.0,7.0,3.0,1.0,3.0,3.0,405.6089749997227,3.0,1.0,phase_1,,,,,,,,,,,,,white,square
159.0,1.0,1.0,0.0,4.0,4.0,380.2383120000741,3.0,1.0,phase_1,,,,,,,,,,,,,blue,diamond
160.0,5.0,1.0,1.0,2.0,2.0,433.6437160000059,3.0,1.0,phase_1,,,,,,,,,,,,,orange,hexagon
1325.0,4.0,4.0,0.0,2.0,2.0,489.6644180003022,3.0,1.0,phase_1,,,,,,,,,,,,,magenta,circle
1308.0,8.0,4.0,1.0,4.0,4.0,482.2273029999451,3.0,2.0,phase_1,,,,,,,,,,,,,cyan,triangle
1315.0,8.0,4.0,1.0,3.0,3.0,516.041065999616,3.0,1.0,phase_1,,,,,,,,,,,,,cyan,triangle
666.0,7.0,3.0,1.0,3.0,3.0,463.1502460001684,3.0,1.0,phase_1,,,,,,,,,,,,,white,square
0.0,6.0,0.0,1.0,4.0,4.0,323.5178219997578,3.0,1.0,phase_1,,,,,,,,,,,,,green,cross
0.0,1.0,0.0,0.0,3.0,3.0,489.4990060001873,3.0,1.0,phase_1,,,,,,,,,,,,,blue,diamond
160.0,1.0,1.0,0.0,1.0,1.0,411.7279409997536,3.0,1.0,phase_1,,,,,,,,,,,,,blue,diamond
0.0,6.0,0.0,1.0,2.0,2.0,534.6511989996543,3.0,1.0,phase_1,,,,,,,,,,,,,green,cross
348.0,6.0,2.0,1.0,4.0,4.0,370.0575000002573,3.0,1.0,phase_1,,,,,,,,,,,,,green,cross
626.0,3.0,3.0,0.0,2.0,2.0,526.807548999841,3.0,1.0,phase_1,,,,,,,,,,,,,gray,flipped triangle
635.0,3.0,3.0,0.0,2.0,2.0,425.1317879998169,3.0,1.0,phase_1,,,,,,,,,,,,,gray,flipped triangle
318.0,6.0,2.0,1.0,3.0,3.0,416.2768400001368,3.0,1.0,phase_1,,,,,,,,,,,,,green,cross
139.0,5.0,1.0,1.0,1.0,1.0,636.583494000206,3.0,1.0,phase_1,,,,,,,,,,,,,orange,hexagon
673.0,3.0,3.0,0.0,4.0,4.0,400.3382070000043,3.0,1.0,phase_1,,,,,,,,,,,,,gray,flipped triangle
314.0,6.0,2.0,1.0,2.0,2.0,525.6808580002144,3.0,1.0,phase_1,,,,,,,,,,,,,green,cross
335.0,6.0,2.0,1.0,1.0,1.0,453.0923130000701,3.0,1.0,phase_1,,,,,,,,,,,,,green,cross
176.0,1.0,1.0,0.0,2.0,2.0,479.3548799998461,3.0,1.0,phase_1,,,,,,,,,,,,,blue,diamond
663.0,7.0,3.0,1.0,2.0,2.0,386.6508969999813,3.0,1.0,phase_1,,,,,,,,,,,,,white,square
0.0,4.0,0.0,0.0,2.0,2.0,395.8211040003334,3.0,1.0,phase_1,,,,,,,,,,,,,magenta,circle
630.0,7.0,3.0,1.0,3.0,3.0,471.6228689999298,3.0,1.0,phase_1,,,,,,,,,,,,,white,square
0.0,3.0,0.0,0.0,4.0,4.0,405.9577880002507,3.0,1.0,phase_1,,,,,,,,,,,,,gray,flipped triangle
0.0,4.0,0.0,0.0,2.0,2.0,424.0923709999151,3.0,1.0,phase_1,,,,,,,,,,,,,magenta,circle
176.0,5.0,1.0,1.0,3.0,3.0,425.263802000245,3.0,1.0,phase_1,,,,,,,,,,,,,orange,hexagon
1322.0,8.0,4.0,1.0,2.0,2.0,463.3008810001229,3.0,1.0,phase_1,,,,,,,,,,,,,cyan,triangle
1283.0,4.0,4.0,0.0,3.0,3.0,425.6483870003649,3.0,1.0,phase_1,,,,,,,,,,,,,magenta,circle
1277.0,8.0,4.0,1.0,2.0,2.0,387.2238079998169,3.0,1.0,phase_1,,,,,,,,,,,,,cyan,triangle
141.0,5.0,1.0,1.0,3.0,3.0,396.5666520002742,3.0,1.0,phase_1,,,,,,,,,,,,,orange,hexagon
0.0,6.0,0.0,1.0,4.0,4.0,481.4250199997332,3.0,1.0,phase_1,,,,,,,,,,,,,green,cross
1298.0,8.0,4.0,1.0,2.0,2.0,378.2856259999789,3.0,1.0,phase_1,,,,,,,,,,,,,cyan,triangle
0.0,3.0,0.0,0.0,2.0,2.0,359.7591709999506,3.0,1.0,phase_1,,,,,,,,,,,,,gray,flipped triangle
175.0,1.0,1.0,0.0,4.0,4.0,341.2327519999962,3.0,1.0,phase_1,,,,,,,,,,,,,blue,diamond
654.0,3.0,3.0,0.0,4.0,4.0,425.5760529999861,3.0,1.0,phase_1,,,,,,,,,,,,,gray,flipped triangle
0.0,2.0,0.0,0.0,4.0,4.0,387.8328410000904,3.0,1.0,phase_1,,,,,,,,,,,,,yellow,I
0.0,2.0,0.0,0.0,4.0,4.0,369.3373640003301,3.0,1.0,phase_1,,,,,,,,,,,,,yellow,I
304.0,6.0,2.0,1.0,4.0,4.0,341.8133219997799,3.0,1.0,phase_1,,,,,,,,,,,,,green,cross
310.0,6.0,2.0,1.0,3.0,3.0,451.8643910000719,3.0,1.0,phase_1,,,,,,,,,,,,,green,cross
1280.0,8.0,4.0,1.0,4.0,4.0,369.8702090000552,3.0,1.0,phase_1,,,,,,,,,,,,,cyan,triangle
174.0,5.0,1.0,1.0,1.0,1.0,561.8580790001033,3.0,1.0,phase_1,,,,,,,,,,,,,orange,hexagon
0.0,2.0,0.0,0.0,1.0,1.0,555.427753999993,3.0,1.0,phase_1,,,,,,,,,,,,,yellow,I
648.0,3.0,3.0,0.0,2.0,2.0,562.9954480000379,3.0,1.0,phase_1,,,,,,,,,,,,,gray,flipped triangle
643.0,3.0,3.0,0.0,3.0,3.0,471.2617130003309,3.0,1.0,phase_1,,,,,,,,,,,,,gray,flipped triangle
169.0,5.0,1.0,1.0,3.0,3.0,489.2870849998871,3.0,1.0,phase_1,,,,,,,,,,,,,orange,hexagon
338.0,6.0,2.0,1.0,4.0,4.0,360.8061009999801,3.0,1.0,phase_1,,,,,,,,,,,,,green,cross
0.0,1.0,0.0,0.0,2.0,2.0,599.3166309999651,3.0,1.0,phase_1,,,,,,,,,,,,,blue,diamond
1282.0,4.0,4.0,0.0,2.0,2.0,489.0309519996663,3.0,1.0,phase_1,,,,,,,,,,,,,magenta,circle
1324.0,4.0,4.0,0.0,2.0,2.0,443.7034039997343,3.0,1.0,phase_1,,,,,,,,,,,,,magenta,circle
165.0,1.0,1.0,0.0,1.0,1.0,582.2641390000172,3.0,1.0,phase_1,,,,,,,,,,,,,blue,diamond
0.0,4.0,0.0,0.0,1.0,1.0,424.3368970001029,3.0,1.0,phase_1,,,,,,,,,,,,,magenta,circle
0.0,3.0,0.0,0.0,3.0,3.0,443.6123640002734,4.0,1.0,phase_1,,,,,,,,,,,,,gray,flipped triangle
0.0,6.0,0.0,1.0,1.0,1.0,426.0942120004074,4.0,1.0,phase_1,,,,,,,,,,,,,green,cross
1287.0,8.0,4.0,1.0,2.0,2.0,433.5783459996492,4.0,1.0,phase_1,,,,,,,,,,,,,cyan,triangle
0.0,3.0,0.0,0.0,1.0,1.0,379.4156210001347,4.0,1.0,phase_1,,,,,,,,,,,,,gray,flipped triangle
1307.0,4.0,4.0,0.0,1.0,1.0,369.9417979996724,4.0,1.0,phase_1,,,,,,,,,,,,,magenta,circle
649.0,3.0,3.0,0.0,4.0,4.0,378.9177939997898,4.0,1.0,phase_1,,,,,,,,,,,,,gray,flipped triangle
139.0,1.0,1.0,0.0,4.0,4.0,372.854850999829,4.0,1.0,phase_1,,,,,,,,,,,,,blue,diamond
1307.0,8.0,4.0,1.0,2.0,2.0,435.2138600002035,4.0,1.0,phase_1,,,,,,,,,,,,,cyan,triangle
339.0,2.0,2.0,0.0,1.0,1.0,352.1116140000231,4.0,1.0,phase_1,,,,,,,,,,,,,yellow,I
323.0,6.0,2.0,1.0,2.0,2.0,480.5277270002079,4.0,1.0,phase_1,,,,,,,,,,,,,green,cross
647.0,3.0,3.0,0.0,3.0,3.0,378.3796249999795,4.0,1.0,phase_1,,,,,,,,,,,,,gray,flipped triangle
0.0,6.0,0.0,1.0,4.0,4.0,379.3372249997446,4.0,1.0,phase_1,,,,,,,,,,,,,green,cross
171.0,1.0,1.0,0.0,4.0,4.0,335.0110789997416,4.0,1.0,phase_1,,,,,,,,,,,,,blue,diamond
315.0,6.0,2.0,1.0,3.0,3.0,342.461044999709,4.0,1.0,phase_1,,,,,,,,,,,,,green,cross
180.0,5.0,1.0,1.0,4.0,4.0,360.3386190002311,4.0,1.0,phase_1,,,,,,,,,,,,,orange,hexagon
673.0,7.0,3.0,1.0,4.0,4.0,324.0008010002384,4.0,1.0,phase_1,,,,,,,,,,,,,white,square
304.0,6.0,2.0,1.0,3.0,3.0,342.3222960000203,4.0,1.0,phase_1,,,,,,,,,,,,,green,cross
663.0,3.0,3.0,0.0,1.0,1.0,340.6967930000064,4.0,1.0,phase_1,,,,,,,,,,,,,gray,flipped triangle
340.0,2.0,2.0,0.0,3.0,3.0,378.6209720001352,4.0,1.0,phase_1,,,,,,,,,,,,,yellow,I
670.0,7.0,3.0,1.0,1.0,1.0,563.7531139996099,4.0,1.0,phase_1,,,,,,,,,,,,,white,square
304.0,2.0,2.0,0.0,1.0,1.0,378.200287999789,4.0,1.0,phase_1,,,,,,,,,,,,,yellow,I
138.0,1.0,1.0,0.0,1.0,1.0,387.6033699998515,4.0,1.0,phase_1,,,,,,,,,,,,,blue,diamond
1302.0,4.0,4.0,0.0,2.0,2.0,434.0331690000312,4.0,1.0,phase_1,,,,,,,,,,,,,magenta,circle
149.0,5.0,1.0,1.0,2.0,2.0,397.2776499999781,4.0,1.0,phase_1,,,,,,,,,,,,,orange,hexagon
314.0,6.0,2.0,1.0,2.0,2.0,369.6608670002206,4.0,1.0,phase_1,,,,,,,,,,,,,green,cross
1322.0,4.0,4.0,0.0,3.0,3.0,425.6389819997821,4.0,1.0,phase_1,,,,,,,,,,,,,magenta,circle
1322.0,4.0,4.0,0.0,3.0,3.0,397.059555999931,4.0,1.0,phase_1,,,,,,,,,,,,,magenta,circle
339.0,2.0,2.0,0.0,1.0,1.0,425.4242110000632,4.0,1.0,phase_1,,,,,,,,,,,,,yellow,I
156.0,1.0,1.0,0.0,3.0,3.0,396.9401859999379,4.0,1.0,phase_1,,,,,,,,,,,,,blue,diamond
347.0,2.0,2.0,0.0,1.0,1.0,342.3383479998847,4.0,1.0,phase_1,,,,,,,,,,,,,yellow,I
1286.0,8.0,4.0,1.0,3.0,3.0,435.1022020000528,4.0,1.0,phase_1,,,,,,,,,,,,,cyan,triangle
0.0,2.0,0.0,0.0,2.0,2.0,406.4157740003793,4.0,1.0,phase_1,,,,,,,,,,,,,yellow,I
0.0,1.0,0.0,0.0,2.0,2.0,498.3418580000034,4.0,1.0,phase_1,,,,,,,,,,,,,blue,diamond
315.0,2.0,2.0,0.0,4.0,4.0,360.2748660000543,4.0,1.0,phase_1,,,,,,,,,,,,,yellow,I
0.0,8.0,0.0,1.0,3.0,3.0,360.1941840001927,4.0,1.0,phase_1,,,,,,,,,,,,,cyan,triangle
175.0,5.0,1.0,1.0,3.0,3.0,415.7163569998374,4.0,1.0,phase_1,,,,,,,,,,,,,orange,hexagon
1293.0,4.0,4.0,0.0,4.0,4.0,387.6534829996672,4.0,1.0,phase_1,,,,,,,,,,,,,magenta,circle
323.0,2.0,2.0,0.0,2.0,2.0,397.3998689998552,4.0,1.0,phase_1,,,,,,,,,,,,,yellow,I
0.0,2.0,0.0,0.0,4.0,4.0,334.4426029998431,4.0,1.0,phase_1,,,,,,,,,,,,,yellow,I
1317.0,4.0,4.0,0.0,1.0,1.0,406.9539639999675,4.0,1.0,phase_1,,,,,,,,,,,,,magenta,circle
1322.0,8.0,4.0,1.0,2.0,2.0,471.0278970001127,4.0,1.0,phase_1,,,,,,,,,,,,,cyan,triangle
319.0,2.0,2.0,0.0,3.0,3.0,415.6758419999278,4.0,1.0,phase_1,,,,,,,,,,,,,yellow,I
343.0,2.0,2.0,0.0,4.0,4.0,333.8288769996325,4.0,1.0,phase_1,,,,,,,,,,,,,yellow,I
1288.0,8.0,4.0,1.0,4.0,4.0,351.3464440002281,4.0,1.0,phase_1,,,,,,,,,,,,,cyan,triangle
629.0,3.0,3.0,0.0,2.0,2.0,369.674342000053,4.0,1.0,phase_1,,,,,,,,,,,,,gray,flipped triangle
151.0,1.0,1.0,0.0,2.0,2.0,380.0069270000676,4.0,1.0,phase_1,,,,,,,,,,,,,blue,diamond
1287.0,4.0,4.0,0.0,2.0,2.0,407.3001260003366,4.0,1.0,phase_1,,,,,,,,,,,,,magenta,circle
646.0,7.0,3.0,1.0,2.0,2.0,350.8026290000998,4.0,1.0,phase_1,,,,,,,,,,,,,white,square
629.0,7.0,3.0,1.0,1.0,1.0,442.9188579997571,4.0,1.0,phase_1,,,,,,,,,,,,,white,square
139.0,1.0,1.0,0.0,1.0,1.0,387.9737289998957,4.0,1.0,phase_1,,,,,,,,,,,,,blue,diamond
1324.0,8.0,4.0,1.0,2.0,2.0,508.1778690000647,4.0,1.0,phase_1,,,,,,,,,,,,,cyan,triangle
644.0,3.0,3.0,0.0,4.0,4.0,397.5591720000011,4.0,1.0,phase_1,,,,,,,,,,,,,gray,flipped triangle
160.0,1.0,1.0,0.0,2.0,2.0,499.9947510000311,4.0,1.0,phase_1,,,,,,,,,,,,,blue,diamond
1276.0,4.0,4.0,0.0,3.0,3.0,416.3739810001061,4.0,1.0,phase_1,,,,,,,,,,,,,magenta,circle
0.0,3.0,0.0,0.0,4.0,4.0,350.7226920000903,4.0,1.0,phase_1,,,,,,,,,,,,,gray,flipped triangle
339.0,6.0,2.0,1.0,3.0,3.0,406.8072949999077,4.0,1.0,phase_1,,,,,,,,,,,,,green,cross
0.0,2.0,0.0,0.0,4.0,4.0,313.8275559999783,4.0,1.0,phase_1,,,,,,,,,,,,,yellow,I
0.0,1.0,0.0,0.0,2.0,2.0,350.3248910001275,4.0,1.0,phase_1,,,,,,,,,,,,,blue,diamond
673.0,3.0,3.0,0.0,3.0,3.0,388.7416460001986,4.0,1.0,phase_1,,,,,,,,,,,,,gray,flipped triangle
171.0,1.0,1.0,0.0,3.0,3.0,369.5654519997333,4.0,1.0,phase_1,,,,,,,,,,,,,blue,diamond
0.0,1.0,0.0,0.0,4.0,4.0,360.7949199999893,4.0,1.0,phase_1,,,,,,,,,,,,,blue,diamond
649.0,7.0,3.0,1.0,2.0,2.0,424.9211660003311,4.0,1.0,phase_1,,,,,,,,,,,,,white,square
637.0,3.0,3.0,0.0,4.0,4.0,360.1916459997483,4.0,1.0,phase_1,,,,,,,,,,,,,gray,flipped triangle
320.0,6.0,2.0,1.0,2.0,2.0,415.9993640000721,4.0,1.0,phase_1,,,,,,,,,,,,,green,cross
329.0,6.0,2.0,1.0,2.0,2.0,452.2546660000444,4.0,1.0,phase_1,,,,,,,,,,,,,green,cross
644.0,7.0,3.0,1.0,4.0,4.0,369.6679889999359,4.0,1.0,phase_1,,,,,,,,,,,,,white,square
668.0,7.0,3.0,1.0,2.0,2.0,387.8430249997109,4.0,1.0,phase_1,,,,,,,,,,,,,white,square
330.0,6.0,2.0,1.0,3.0,3.0,379.2606160000105,4.0,1.0,phase_1,,,,,,,,,,,,,green,cross
329.0,2.0,2.0,0.0,2.0,2.0,359.9604420001014,4.0,1.0,phase_1,,,,,,,,,,,,,yellow,I
674.0,7.0,3.0,1.0,4.0,4.0,342.4056349999773,4.0,1.0,phase_1,,,,,,,,,,,,,white,square
1303.0,8.0,4.0,1.0,1.0,1.0,388.82616099999717,4.0,1.0,phase_1,,,,,,,,,,,,,cyan,triangle
1278.0,8.0,4.0,1.0,1.0,1.0,416.1776600003577,4.0,1.0,phase_1,,,,,,,,,,,,,cyan,triangle
632.0,3.0,3.0,0.0,3.0,3.0,397.4977089997082,4.0,1.0,phase_1,,,,,,,,,,,,,gray,flipped triangle
348.0,6.0,2.0,1.0,1.0,1.0,305.1965599997857,4.0,1.0,phase_1,,,,,,,,,,,,,green,cross
0.0,3.0,0.0,0.0,1.0,1.0,305.7777360004365,4.0,1.0,phase_1,,,,,,,,,,,,,gray,flipped triangle
665.0,7.0,3.0,1.0,4.0,4.0,351.5041820000988,4.0,1.0,phase_1,,,,,,,,,,,,,white,square
346.0,2.0,2.0,0.0,4.0,4.0,333.5818569998992,4.0,1.0,phase_1,,,,,,,,,,,,,yellow,I
331.0,2.0,2.0,0.0,4.0,4.0,314.7688620001645,4.0,1.0,phase_1,,,,,,,,,,,,,yellow,I
0.0,3.0,0.0,0.0,1.0,1.0,342.3611309999614,4.0,1.0,phase_1,,,,,,,,,,,,,gray,flipped triangle
318.0,2.0,2.0,0.0,4.0,4.0,324.1551720002462,4.0,1.0,phase_1,,,,,,,,,,,,,yellow,I
335.0,2.0,2.0,0.0,4.0,4.0,304.5736990002297,4.0,1.0,phase_1,,,,,,,,,,,,,yellow,I
0.0,2.0,0.0,0.0,4.0,4.0,332.949539999845,4.0,1.0,phase_1,,,,,,,,,,,,,yellow,I
157.0,1.0,1.0,0.0,1.0,1.0,388.9723580000463,4.0,1.0,phase_1,,,,,,,,,,,,,blue,diamond
154.0,1.0,1.0,0.0,2.0,2.0,443.804517999979,4.0,1.0,phase_1,,,,,,,,,,,,,blue,diamond
630.0,3.0,3.0,0.0,1.0,1.0,397.8088550002212,4.0,1.0,phase_1,,,,,,,,,,,,,gray,flipped triangle
0.0,7.0,0.0,1.0,2.0,2.0,397.1531659999527,4.0,1.0,phase_1,,,,,,,,,,,,,white,square
652.0,3.0,3.0,0.0,4.0,4.0,369.7447350000402,4.0,1.0,phase_1,,,,,,,,,,,,,gray,flipped triangle
1290.0,4.0,4.0,0.0,2.0,2.0,369.4086320001588,4.0,1.0,phase_1,,,,,,,,,,,,,magenta,circle
319.0,6.0,2.0,1.0,4.0,4.0,323.3282070000314,4.0,1.0,phase_1,,,,,,,,,,,,,green,cross
0.0,5.0,0.0,1.0,4.0,4.0,314.480674999686,4.0,1.0,phase_1,,,,,,,,,,,,,orange,hexagon
0.0,3.0,0.0,0.0,2.0,2.0,434.1807099999641,4.0,1.0,phase_1,,,,,,,,,,,,,gray,flipped triangle
174.0,1.0,1.0,0.0,3.0,3.0,479.5283600001312,4.0,1.0,phase_1,,,,,,,,,,,,,blue,diamond
0.0,6.0,0.0,1.0,3.0,3.0,406.6566960000273,4.0,1.0,phase_1,,,,,,,,,,,,,green,cross
1297.0,8.0,4.0,1.0,4.0,4.0,362.2738210001444,4.0,1.0,phase_1,,,,,,,,,,,,,cyan,triangle
1276.0,4.0,4.0,0.0,1.0,1.0,517.0434100000421,4.0,1.0,phase_1,,,,,,,,,,,,,magenta,circle
1276.0,8.0,4.0,1.0,4.0,4.0,379.5122710002943,4.0,1.0,phase_1,,,,,,,,,,,,,cyan,triangle
0.0,1.0,0.0,0.0,3.0,3.0,544.5095649997711,4.0,1.0,phase_1,,,,,,,,,,,,,blue,diamond
1295.0,4.0,4.0,0.0,3.0,3.0,508.977916999811,4.0,1.0,phase_1,,,,,,,,,,,,,magenta,circle
1290.0,8.0,4.0,1.0,2.0,2.0,498.5836349997044,4.0,1.0,phase_1,,,,,,,,,,,,,cyan,triangle
0.0,7.0,0.0,1.0,4.0,4.0,377.8533240001707,4.0,1.0,phase_1,,,,,,,,,,,,,white,square
0.0,5.0,1.0,1.0,6.0,0.0,0.0,1.0,1.0,phase_2,stop,250.0,250.0,4.0,,,,,,,,,orange,hexagon
0.0,1.0,1.0,0.0,6.0,6.0,467.9248729999017,1.0,1.0,phase_2,go,250.0,300.0,1.0,,,,,,,,,blue,diamond
0.0,8.0,4.0,1.0,6.0,6.0,435.3995320002468,1.0,1.0,phase_2,stop,250.0,300.0,3.0,,,,,,,,,cyan,triangle
0.0,7.0,3.0,1.0,5.0,5.0,420.0193579999904,1.0,1.0,phase_2,go,250.0,250.0,1.0,,,,,,,,,white,square
0.0,2.0,2.0,0.0,5.0,5.0,736.4652679998471,1.0,1.0,phase_2,go,250.0,250.0,1.0,,,,,,,,,yellow,I
0.0,3.0,3.0,0.0,6.0,6.0,485.5037960001027,1.0,1.0,phase_2,go,250.0,250.0,1.0,,,,,,,,,gray,flipped triangle
0.0,1.0,1.0,0.0,5.0,5.0,438.3864490000633,1.0,1.0,phase_2,go,250.0,250.0,1.0,,,,,,,,,blue,diamond
0.0,3.0,3.0,0.0,6.0,6.0,392.2242899998309,1.0,1.0,phase_2,go,250.0,250.0,1.0,,,,,,,,,gray,flipped triangle
0.0,1.0,1.0,0.0,6.0,6.0,344.3037940000977,1.0,1.0,phase_2,go,250.0,250.0,1.0,,,,,,,,,blue,diamond
0.0,2.0,2.0,0.0,6.0,6.0,401.9622640003035,1.0,1.0,phase_2,go,250.0,250.0,1.0,,,,,,,,,yellow,I
0.0,6.0,2.0,1.0,6.0,6.0,409.5808269998997,1.0,1.0,phase_2,go,250.0,250.0,1.0,,,,,,,,,green,cross
0.0,7.0,3.0,1.0,6.0,6.0,309.3296490001194,1.0,1.0,phase_2,go,250.0,250.0,1.0,,,,,,,,,white,square
0.0,5.0,1.0,1.0,5.0,5.0,305.0205819999974,1.0,1.0,phase_2,stop,250.0,250.0,3.0,,,,,,,,,orange,hexagon
0.0,3.0,3.0,0.0,6.0,6.0,364.8828109999158,1.0,1.0,phase_2,go,200.0,250.0,1.0,,,,,,,,,gray,flipped triangle
0.0,4.0,4.0,0.0,6.0,6.0,405.8136169996942,1.0,1.0,phase_2,go,200.0,250.0,1.0,,,,,,,,,magenta,circle
0.0,4.0,4.0,0.0,6.0,6.0,412.3950070002138,1.0,1.0,phase_2,go,200.0,250.0,1.0,,,,,,,,,magenta,circle
0.0,1.0,1.0,0.0,6.0,6.0,279.170699000133,1.0,1.0,phase_2,go,200.0,250.0,1.0,,,,,,,,,blue,diamond
0.0,4.0,4.0,0.0,5.0,5.0,308.0515730002844,1.0,1.0,phase_2,go,200.0,250.0,1.0,,,,,,,,,magenta,circle
0.0,8.0,4.0,1.0,6.0,6.0,288.49898999988,1.0,1.0,phase_2,stop,200.0,250.0,3.0,,,,,,,,,cyan,triangle
0.0,8.0,4.0,1.0,5.0,5.0,337.706055000126,1.0,1.0,phase_2,stop,200.0,200.0,3.0,,,,,,,,,cyan,triangle
0.0,8.0,4.0,1.0,5.0,0.0,0.0,1.0,1.0,phase_2,stop,150.0,200.0,4.0,,,,,,,,,cyan,triangle
0.0,2.0,2.0,0.0,6.0,6.0,437.794169999961,1.0,1.0,phase_2,go,200.0,200.0,1.0,,,,,,,,,yellow,I
0.0,5.0,1.0,1.0,6.0,0.0,0.0,1.0,1.0,phase_2,stop,200.0,200.0,4.0,,,,,,,,,orange,hexagon
0.0,5.0,1.0,1.0,6.0,6.0,429.1109890000371,1.0,1.0,phase_2,go,200.0,250.0,1.0,,,,,,,,,orange,hexagon
0.0,5.0,1.0,1.0,6.0,6.0,671.9410850000713,1.0,1.0,phase_2,go,200.0,250.0,1.0,,,,,,,,,orange,hexagon
0.0,1.0,1.0,0.0,5.0,5.0,493.1379649997325,1.0,1.0,phase_2,go,200.0,250.0,1.0,,,,,,,,,blue,diamond
0.0,5.0,1.0,1.0,5.0,0.0,0.0,1.0,1.0,phase_2,stop,200.0,250.0,4.0,,,,,,,,,orange,hexagon
0.0,6.0,2.0,1.0,5.0,5.0,318.0479560001004,1.0,1.0,phase_2,go,250.0,250.0,1.0,,,,,,,,,green,cross
0.0,1.0,1.0,0.0,5.0,5.0,439.3555900001047,1.0,1.0,phase_2,go,250.0,250.0,1.0,,,,,,,,,blue,diamond
0.0,3.0,3.0,0.0,6.0,6.0,410.7036280001921,1.0,1.0,phase_2,go,250.0,250.0,1.0,,,,,,,,,gray,flipped triangle
0.0,7.0,3.0,1.0,6.0,6.0,369.4316409996645,1.0,1.0,phase_2,stop,250.0,250.0,3.0,,,,,,,,,white,square
0.0,7.0,3.0,1.0,6.0,6.0,587.0972580000853,1.0,1.0,phase_2,go,250.0,200.0,1.0,,,,,,,,,white,square
0.0,2.0,2.0,0.0,6.0,6.0,596.2846200000058,1.0,1.0,phase_2,go,250.0,200.0,1.0,,,,,,,,,yellow,I
0.0,3.0,3.0,0.0,6.0,6.0,561.6713730000811,1.0,1.0,phase_2,go,250.0,200.0,1.0,,,,,,,,,gray,flipped triangle
0.0,5.0,1.0,1.0,6.0,0.0,0.0,1.0,1.0,phase_2,stop,250.0,200.0,4.0,,,,,,,,,orange,hexagon
0.0,5.0,1.0,1.0,6.0,0.0,0.0,1.0,1.0,phase_2,stop,250.0,250.0,4.0,,,,,,,,,orange,hexagon
0.0,2.0,2.0,0.0,6.0,6.0,494.1651160002038,2.0,1.0,phase_2,go,250.0,300.0,1.0,,,,,,,,,yellow,I
0.0,8.0,4.0,1.0,6.0,0.0,0.0,2.0,1.0,phase_2,stop,250.0,300.0,4.0,,,,,,,,,cyan,triangle
0.0,1.0,1.0,0.0,5.0,5.0,605.3556809997644,2.0,1.0,phase_2,go,250.0,350.0,1.0,,,,,,,,,blue,diamond
0.0,8.0,4.0,1.0,5.0,0.0,0.0,2.0,1.0,phase_2,stop,250.0,350.0,4.0,,,,,,,,,cyan,triangle
0.0,1.0,1.0,0.0,6.0,6.0,466.1196659999405,2.0,1.0,phase_2,go,300.0,350.0,1.0,,,,,,,,,blue,diamond
0.0,4.0,4.0,0.0,5.0,5.0,568.5181150001881,2.0,1.0,phase_2,go,300.0,350.0,1.0,,,,,,,,,magenta,circle
0.0,6.0,2.0,1.0,5.0,0.0,0.0,2.0,1.0,phase_2,stop,300.0,350.0,4.0,,,,,,,,,green,cross
0.0,2.0,2.0,0.0,6.0,6.0,345.2115830000366,2.0,1.0,phase_2,go,350.0,350.0,1.0,,,,,,,,,yellow,I
0.0,8.0,4.0,1.0,5.0,0.0,0.0,2.0,1.0,phase_2,stop,350.0,350.0,4.0,,,,,,,,,cyan,triangle
0.0,6.0,2.0,1.0,6.0,6.0,384.8415739998927,2.0,1.0,phase_2,stop,400.0,350.0,3.0,,,,,,,,,green,cross
0.0,6.0,2.0,1.0,6.0,0.0,0.0,2.0,1.0,phase_2,stop,400.0,300.0,4.0,,,,,,,,,green,cross
0.0,4.0,4.0,0.0,6.0,6.0,494.8196660002395,2.0,1.0,phase_2,go,400.0,350.0,1.0,,,,,,,,,magenta,circle
0.0,8.0,4.0,1.0,6.0,0.0,0.0,2.0,1.0,phase_2,stop,400.0,350.0,4.0,,,,,,,,,cyan,triangle
0.0,2.0,2.0,0.0,5.0,5.0,819.327541000348,2.0,1.0,phase_2,go,400.0,400.0,1.0,,,,,,,,,yellow,I
0.0,4.0,4.0,0.0,5.0,5.0,503.9575089999744,2.0,1.0,phase_2,go,400.0,400.0,1.0,,,,,,,,,magenta,circle
0.0,5.0,1.0,1.0,5.0,0.0,0.0,2.0,1.0,phase_2,stop,400.0,400.0,4.0,,,,,,,,,orange,hexagon
0.0,1.0,1.0,0.0,5.0,5.0,391.420277999714,2.0,1.0,phase_2,go,450.0,400.0,1.0,,,,,,,,,blue,diamond
0.0,7.0,3.0,1.0,5.0,0.0,0.0,2.0,1.0,phase_2,stop,450.0,400.0,4.0,,,,,,,,,white,square
0.0,5.0,1.0,1.0,5.0,5.0,410.5761480000183,2.0,1.0,phase_2,go,500.0,400.0,1.0,,,,,,,,,orange,hexagon
0.0,1.0,1.0,0.0,6.0,6.0,354.6934559999499,2.0,1.0,phase_2,go,500.0,400.0,1.0,,,,,,,,,blue,diamond
0.0,7.0,3.0,1.0,6.0,0.0,0.0,2.0,1.0,phase_2,stop,500.0,400.0,4.0,,,,,,,,,white,square
0.0,5.0,1.0,1.0,6.0,0.0,0.0,2.0,1.0,phase_2,stop,500.0,450.0,4.0,,,,,,,,,orange,hexagon
0.0,5.0,1.0,1.0,6.0,6.0,654.7048709999217,2.0,1.0,phase_2,stop,500.0,500.0,3.0,,,,,,,,,orange,hexagon
0.0,1.0,1.0,0.0,5.0,5.0,829.7016659998917,2.0,1.0,phase_2,go,500.0,450.0,1.0,,,,,,,,,blue,diamond
0.0,2.0,2.0,0.0,5.0,5.0,941.830607999691,2.0,1.0,phase_2,go,500.0,450.0,1.0,,,,,,,,,yellow,I
0.0,6.0,2.0,1.0,6.0,0.0,0.0,2.0,1.0,phase_2,stop,500.0,450.0,4.0,,,,,,,,,green,cross
0.0,3.0,3.0,0.0,6.0,6.0,437.0527720002428,2.0,1.0,phase_2,go,500.0,500.0,1.0,,,,,,,,,gray,flipped triangle
0.0,2.0,2.0,0.0,6.0,6.0,430.1117780000822,2.0,1.0,phase_2,go,500.0,500.0,1.0,,,,,,,,,yellow,I
0.0,3.0,3.0,0.0,6.0,6.0,326.3997980002386,2.0,1.0,phase_2,go,500.0,500.0,1.0,,,,,,,,,gray,flipped triangle
0.0,3.0,3.0,0.0,5.0,5.0,454.6575760000451,2.0,1.0,phase_2,go,500.0,500.0,1.0,,,,,,,,,gray,flipped triangle
0.0,1.0,1.0,0.0,6.0,6.0,336.9672580001861,2.0,1.0,phase_2,go,500.0,500.0,1.0,,,,,,,,,blue,diamond
0.0,3.0,3.0,0.0,5.0,5.0,496.9785779999256,2.0,1.0,phase_2,go,500.0,500.0,1.0,,,,,,,,,gray,flipped triangle
0.0,8.0,4.0,1.0,5.0,5.0,765.0282049999078,2.0,1.0,phase_2,go,500.0,500.0,1.0,,,,,,,,,cyan,triangle
0.0,2.0,2.0,0.0,5.0,5.0,681.7792980000377,2.0,1.0,phase_2,go,500.0,500.0,1.0,,,,,,,,,yellow,I
0.0,8.0,4.0,1.0,5.0,5.0,384.6876659999907,2.0,1.0,phase_2,stop,500.0,500.0,3.0,,,,,,,,,cyan,triangle
0.0,7.0,3.0,1.0,5.0,5.0,393.5318999997435,2.0,1.0,phase_2,stop,450.0,500.0,3.0,,,,,,,,,white,square
0.0,7.0,3.0,1.0,5.0,5.0,391.0906609999074,3.0,1.0,phase_2,stop,400.0,500.0,3.0,,,,,,,,,white,square
0.0,4.0,4.0,0.0,5.0,5.0,456.6520650000711,3.0,1.0,phase_2,go,350.0,500.0,1.0,,,,,,,,,magenta,circle
0.0,5.0,1.0,1.0,6.0,6.0,576.9633859999885,3.0,1.0,phase_2,go,350.0,500.0,1.0,,,,,,,,,orange,hexagon
0.0,8.0,4.0,1.0,5.0,5.0,271.3717809997433,3.0,1.0,phase_2,stop,350.0,500.0,3.0,,,,,,,,,cyan,triangle
0.0,3.0,3.0,0.0,5.0,5.0,309.5746669996515,3.0,1.0,phase_2,go,300.0,500.0,1.0,,,,,,,,,gray,flipped triangle
0.0,2.0,2.0,0.0,6.0,6.0,484.5628309999483,3.0,1.0,phase_2,go,300.0,500.0,1.0,,,,,,,,,yellow,I
0.0,8.0,4.0,1.0,5.0,5.0,352.24431000006,3.0,1.0,phase_2,stop,300.0,500.0,3.0,,,,,,,,,cyan,triangle
0.0,6.0,2.0,1.0,6.0,6.0,328.2781360003355,3.0,1.0,phase_2,go,250.0,500.0,1.0,,,,,,,,,green,cross
0.0,2.0,2.0,0.0,6.0,6.0,607.6867890001267,3.0,1.0,phase_2,go,250.0,500.0,1.0,,,,,,,,,yellow,I
0.0,1.0,1.0,0.0,5.0,5.0,615.045334000115,3.0,1.0,phase_2,go,250.0,500.0,1.0,,,,,,,,,blue,diamond
0.0,8.0,4.0,1.0,5.0,0.0,0.0,3.0,1.0,phase_2,stop,250.0,500.0,4.0,,,,,,,,,cyan,triangle
0.0,3.0,3.0,0.0,6.0,6.0,344.2810950000421,3.0,1.0,phase_2,go,300.0,500.0,1.0,,,,,,,,,gray,flipped triangle
0.0,2.0,2.0,0.0,5.0,5.0,446.7892600000596,3.0,1.0,phase_2,go,300.0,500.0,1.0,,,,,,,,,yellow,I
0.0,2.0,2.0,0.0,5.0,5.0,419.6705150002344,3.0,1.0,phase_2,go,300.0,500.0,1.0,,,,,,,,,yellow,I
0.0,7.0,3.0,1.0,6.0,6.0,336.1308899998221,3.0,1.0,phase_2,stop,300.0,500.0,3.0,,,,,,,,,white,square
0.0,3.0,3.0,0.0,5.0,5.0,550.9634109998842,3.0,1.0,phase_2,go,300.0,450.0,1.0,,,,,,,,,gray,flipped triangle
0.0,7.0,3.0,1.0,6.0,6.0,373.535732000164,3.0,1.0,phase_2,go,300.0,450.0,1.0,,,,,,,,,white,square
0.0,6.0,2.0,1.0,5.0,5.0,382.2751849997985,3.0,1.0,phase_2,go,300.0,450.0,1.0,,,,,,,,,green,cross
0.0,4.0,4.0,0.0,6.0,6.0,298.7038579999534,3.0,1.0,phase_2,go,300.0,450.0,1.0,,,,,,,,,magenta,circle
0.0,6.0,2.0,1.0,6.0,6.0,299.5035349999853,3.0,1.0,phase_2,stop,300.0,450.0,3.0,,,,,,,,,green,cross
0.0,5.0,1.0,1.0,5.0,5.0,317.8392869999698,3.0,1.0,phase_2,go,300.0,400.0,1.0,,,,,,,,,orange,hexagon
0.0,7.0,3.0,1.0,6.0,6.0,317.0293540001694,3.0,1.0,phase_2,stop,300.0,400.0,3.0,,,,,,,,,white,square
0.0,7.0,3.0,1.0,5.0,5.0,662.4416820000079,3.0,1.0,phase_2,go,300.0,350.0,1.0,,,,,,,,,white,square
0.0,6.0,2.0,1.0,5.0,5.0,682.4181480001243,3.0,1.0,phase_2,go,300.0,350.0,1.0,,,,,,,,,green,cross
0.0,6.0,2.0,1.0,5.0,0.0,0.0,3.0,1.0,phase_2,stop,300.0,350.0,4.0,,,,,,,,,green,cross
0.0,2.0,2.0,0.0,5.0,5.0,532.7101319999201,3.0,1.0,phase_2,go,350.0,350.0,1.0,,,,,,,,,yellow,I
0.0,1.0,1.0,0.0,6.0,6.0,477.3961989999407,3.0,1.0,phase_2,go,350.0,350.0,1.0,,,,,,,,,blue,diamond
0.0,8.0,4.0,1.0,6.0,6.0,596.7250119997516,3.0,1.0,phase_2,go,350.0,350.0,1.0,,,,,,,,,cyan,triangle
0.0,4.0,4.0,0.0,5.0,5.0,496.5250929999456,3.0,1.0,phase_2,go,350.0,350.0,1.0,,,,,,,,,magenta,circle
0.0,2.0,2.0,0.0,5.0,5.0,372.5869400000192,3.0,1.0,phase_2,go,350.0,350.0,1.0,,,,,,,,,yellow,I
0.0,3.0,3.0,0.0,5.0,5.0,345.4226980002204,3.0,1.0,phase_2,go,350.0,350.0,1.0,,,,,,,,,gray,flipped triangle
0.0,7.0,3.0,1.0,6.0,6.0,335.8667869997589,3.0,1.0,phase_2,stop,350.0,350.0,3.0,,,,,,,,,white,square
0.0,6.0,2.0,1.0,6.0,0.0,0.0,3.0,1.0,phase_2,stop,350.0,300.0,4.0,,,,,,,,,green,cross
0.0,1.0,1.0,0.0,5.0,5.0,457.2029000000839,3.0,1.0,phase_2,go,350.0,350.0,1.0,,,,,,,,,blue,diamond
0.0,6.0,2.0,1.0,5.0,5.0,456.8794980000348,3.0,1.0,phase_2,stop,350.0,350.0,3.0,,,,,,,,,green,cross
0.0,7.0,3.0,1.0,6.0,6.0,490.6687119996604,3.0,1.0,phase_2,stop,300.0,350.0,3.0,,,,,,,,,white,square
0.0,3.0,3.0,0.0,5.0,5.0,597.1685260001323,4.0,1.0,phase_2,go,300.0,300.0,1.0,,,,,,,,,gray,flipped triangle
0.0,4.0,4.0,0.0,6.0,6.0,560.0357470002564,4.0,1.0,phase_2,go,300.0,300.0,1.0,,,,,,,,,magenta,circle
0.0,6.0,2.0,1.0,5.0,5.0,351.4147510004477,4.0,1.0,phase_2,stop,300.0,300.0,3.0,,,,,,,,,green,cross
0.0,7.0,3.0,1.0,6.0,6.0,385.7436759999473,4.0,1.0,phase_2,stop,250.0,300.0,3.0,,,,,,,,,white,square
0.0,6.0,2.0,1.0,5.0,0.0,0.0,4.0,1.0,phase_2,stop,250.0,250.0,4.0,,,,,,,,,green,cross
0.0,4.0,4.0,0.0,6.0,6.0,429.7607519993107,4.0,1.0,phase_2,go,300.0,250.0,1.0,,,,,,,,,magenta,circle
0.0,6.0,2.0,1.0,6.0,0.0,0.0,4.0,1.0,phase_2,stop,300.0,250.0,4.0,,,,,,,,,green,cross
0.0,8.0,4.0,1.0,6.0,0.0,0.0,4.0,1.0,phase_2,stop,300.0,300.0,4.0,,,,,,,,,cyan,triangle
0.0,1.0,1.0,0.0,6.0,6.0,664.9044249998042,4.0,1.0,phase_2,go,300.0,350.0,1.0,,,,,,,,,blue,diamond
0.0,6.0,2.0,1.0,6.0,0.0,0.0,4.0,1.0,phase_2,stop,300.0,350.0,4.0,,,,,,,,,green,cross
0.0,2.0,2.0,0.0,6.0,6.0,716.9060199994419,4.0,1.0,phase_2,go,300.0,400.0,1.0,,,,,,,,,yellow,I
0.0,8.0,4.0,1.0,6.0,0.0,0.0,4.0,1.0,phase_2,stop,300.0,400.0,4.0,,,,,,,,,cyan,triangle
0.0,3.0,3.0,0.0,5.0,5.0,569.0756829999373,4.0,1.0,phase_2,go,300.0,450.0,1.0,,,,,,,,,gray,flipped triangle
0.0,1.0,1.0,0.0,5.0,5.0,503.39462900046783,4.0,1.0,phase_2,go,300.0,450.0,1.0,,,,,,,,,blue,diamond
0.0,5.0,1.0,1.0,5.0,0.0,0.0,4.0,1.0,phase_2,stop,300.0,450.0,4.0,,,,,,,,,orange,hexagon
0.0,6.0,2.0,1.0,5.0,5.0,471.3008340004307,4.0,1.0,phase_2,stop,350.0,450.0,3.0,,,,,,,,,green,cross
0.0,3.0,3.0,0.0,5.0,5.0,549.2096379994109,4.0,1.0,phase_2,go,300.0,450.0,1.0,,,,,,,,,gray,flipped triangle
0.0,1.0,1.0,0.0,6.0,6.0,824.7673979994943,4.0,1.0,phase_2,go,300.0,450.0,1.0,,,,,,,,,blue,diamond
0.0,8.0,4.0,1.0,6.0,0.0,0.0,4.0,1.0,phase_2,stop,300.0,450.0,4.0,,,,,,,,,cyan,triangle
0.0,6.0,2.0,1.0,6.0,0.0,0.0,4.0,1.0,phase_2,stop,300.0,500.0,4.0,,,,,,,,,green,cross
0.0,7.0,3.0,1.0,5.0,0.0,0.0,4.0,1.0,phase_2,stop,300.0,550.0,4.0,,,,,,,,,white,square
0.0,2.0,2.0,0.0,6.0,6.0,374.3894879999061,4.0,1.0,phase_2,go,350.0,550.0,1.0,,,,,,,,,yellow,I
0.0,2.0,2.0,0.0,6.0,6.0,766.0784669997156,4.0,1.0,phase_2,go,350.0,550.0,1.0,,,,,,,,,yellow,I
0.0,4.0,4.0,0.0,5.0,5.0,755.5719550000504,4.0,1.0,phase_2,go,350.0,550.0,1.0,,,,,,,,,magenta,circle
0.0,7.0,3.0,1.0,6.0,6.0,913.8093230003506,4.0,1.0,phase_2,go,350.0,550.0,1.0,,,,,,,,,white,square
0.0,1.0,1.0,0.0,5.0,5.0,745.8470020001187,4.0,1.0,phase_2,go,350.0,550.0,1.0,,,,,,,,,blue,diamond
0.0,1.0,1.0,0.0,6.0,6.0,552.3366140005237,4.0,1.0,phase_2,go,350.0,550.0,1.0,,,,,,,,,blue,diamond
0.0,2.0,2.0,0.0,6.0,6.0,409.2323499999111,4.0,1.0,phase_2,go,350.0,550.0,1.0,,,,,,,,,yellow,I
0.0,8.0,4.0,1.0,6.0,6.0,327.0333850005045,4.0,1.0,phase_2,stop,350.0,550.0,3.0,,,,,,,,,cyan,triangle
0.0,8.0,4.0,1.0,6.0,6.0,477.0664990001023,4.0,1.0,phase_2,go,350.0,500.0,1.0,,,,,,,,,cyan,triangle
0.0,5.0,1.0,1.0,6.0,0.0,0.0,4.0,1.0,phase_2,stop,350.0,500.0,4.0,,,,,,,,,orange,hexagon
0.0,8.0,4.0,1.0,5.0,0.0,0.0,4.0,1.0,phase_2,stop,350.0,550.0,4.0,,,,,,,,,cyan,triangle
0.0,6.0,2.0,1.0,6.0,0.0,0.0,4.0,1.0,phase_2,stop,400.0,550.0,4.0,,,,,,,,,green,cross
0.0,1.0,1.0,0.0,6.0,6.0,995.4766789996938,4.0,1.0,phase_2,go,400.0,600.0,1.0,,,,,,,,,blue,diamond
0.0,1.0,1.0,0.0,5.0,5.0,1017.1603030003098,4.0,1.0,phase_2,go,400.0,600.0,1.0,,,,,,,,,blue,diamond
0.0,3.0,3.0,0.0,5.0,5.0,830.4856610002389,4.0,1.0,phase_2,go,400.0,600.0,1.0,,,,,,,,,gray,flipped triangle
0.0,3.0,3.0,0.0,6.0,6.0,636.4440890001788,5.0,1.0,phase_2,go,400.0,600.0,1.0,,,,,,,,,gray,flipped triangle
0.0,7.0,3.0,1.0,5.0,5.0,347.5335450002603,5.0,1.0,phase_2,stop,400.0,600.0,3.0,,,,,,,,,white,square
0.0,7.0,3.0,1.0,5.0,0.0,0.0,5.0,1.0,phase_2,stop,350.0,600.0,4.0,,,,,,,,,white,square
0.0,5.0,1.0,1.0,5.0,5.0,365.2496880004037,5.0,1.0,phase_2,stop,400.0,600.0,3.0,,,,,,,,,orange,hexagon
0.0,3.0,3.0,0.0,6.0,6.0,739.899332999812,5.0,1.0,phase_2,go,350.0,600.0,1.0,,,,,,,,,gray,flipped triangle
0.0,4.0,4.0,0.0,6.0,6.0,340.1055529993755,5.0,1.0,phase_2,go,350.0,600.0,1.0,,,,,,,,,magenta,circle
0.0,5.0,1.0,1.0,6.0,6.0,403.0398849999983,5.0,1.0,phase_2,stop,350.0,600.0,3.0,,,,,,,,,orange,hexagon
0.0,5.0,1.0,1.0,5.0,0.0,0.0,5.0,1.0,phase_2,stop,350.0,550.0,4.0,,,,,,,,,orange,hexagon
0.0,2.0,2.0,0.0,6.0,6.0,570.2842579994467,5.0,1.0,phase_2,go,400.0,550.0,1.0,,,,,,,,,yellow,I
0.0,1.0,1.0,0.0,6.0,6.0,540.8884180005771,5.0,1.0,phase_2,go,400.0,550.0,1.0,,,,,,,,,blue,diamond
0.0,5.0,1.0,1.0,5.0,5.0,346.1534239995671,5.0,1.0,phase_2,go,400.0,550.0,1.0,,,,,,,,,orange,hexagon
0.0,1.0,1.0,0.0,6.0,6.0,309.8344870004439,5.0,1.0,phase_2,go,400.0,550.0,1.0,,,,,,,,,blue,diamond
0.0,8.0,4.0,1.0,5.0,5.0,524.4938810001258,5.0,1.0,phase_2,go,400.0,550.0,1.0,,,,,,,,,cyan,triangle
0.0,8.0,4.0,1.0,6.0,6.0,412.7437569995891,5.0,1.0,phase_2,stop,400.0,550.0,3.0,,,,,,,,,cyan,triangle
0.0,2.0,2.0,0.0,5.0,5.0,702.415609000127,5.0,1.0,phase_2,go,400.0,500.0,1.0,,,,,,,,,yellow,I
0.0,2.0,2.0,0.0,5.0,5.0,421.7054400005509,5.0,1.0,phase_2,go,400.0,500.0,1.0,,,,,,,,,yellow,I
0.0,4.0,4.0,0.0,6.0,6.0,542.5057329994161,5.0,1.0,phase_2,go,400.0,500.0,1.0,,,,,,,,,magenta,circle
0.0,4.0,4.0,0.0,5.0,5.0,403.3958359996177,5.0,1.0,phase_2,go,400.0,500.0,1.0,,,,,,,,,magenta,circle
0.0,5.0,1.0,1.0,5.0,5.0,566.8261269993309,5.0,1.0,phase_2,stop,400.0,500.0,3.0,,,,,,,,,orange,hexagon
0.0,3.0,3.0,0.0,6.0,6.0,653.6954170005629,5.0,1.0,phase_2,go,350.0,500.0,1.0,,,,,,,,,gray,flipped triangle
0.0,4.0,4.0,0.0,5.0,5.0,543.5975529999268,5.0,1.0,phase_2,go,350.0,500.0,1.0,,,,,,,,,magenta,circle
0.0,4.0,4.0,0.0,5.0,5.0,609.2491290000908,5.0,1.0,phase_2,go,350.0,500.0,1.0,,,,,,,,,magenta,circle
0.0,6.0,2.0,1.0,5.0,5.0,581.4348710000559,5.0,1.0,phase_2,go,350.0,500.0,1.0,,,,,,,,,green,cross
0.0,8.0,4.0,1.0,5.0,5.0,326.1095950001618,5.0,1.0,phase_2,go,350.0,500.0,1.0,,,,,,,,,cyan,triangle
0.0,7.0,3.0,1.0,6.0,6.0,401.7543919999298,5.0,1.0,phase_2,stop,350.0,500.0,3.0,,,,,,,,,white,square
0.0,8.0,4.0,1.0,6.0,6.0,420.5061920001753,5.0,1.0,phase_2,stop,350.0,450.0,3.0,,,,,,,,,cyan,triangle
0.0,2.0,2.0,0.0,5.0,5.0,581.3376589994732,5.0,1.0,phase_2,go,350.0,400.0,1.0,,,,,,,,,yellow,I
0.0,3.0,3.0,0.0,5.0,5.0,570.6133220000993,5.0,1.0,phase_2,go,350.0,400.0,1.0,,,,,,,,,gray,flipped triangle
0.0,2.0,2.0,0.0,5.0,5.0,604.1221830000723,5.0,1.0,phase_2,go,350.0,400.0,1.0,,,,,,,,,yellow,I
0.0,6.0,2.0,1.0,5.0,0.0,0.0,5.0,1.0,phase_2,stop,350.0,400.0,4.0,,,,,,,,,green,cross
0.0,5.0,1.0,1.0,6.0,6.0,573.0922180000562,5.0,1.0,phase_2,stop,400.0,400.0,3.0,,,,,,,,,orange,hexagon
0.0,5.0,1.0,1.0,5.0,5.0,655.8269470006053,5.0,1.0,phase_2,go,400.0,350.0,1.0,,,,,,,,,orange,hexagon
0.0,2.0,2.0,0.0,5.0,5.0,674.0274499998122,5.0,1.0,phase_2,go,400.0,350.0,1.0,,,,,,,,,yellow,I
0.0,3.0,3.0,0.0,5.0,5.0,505.0614699994185,5.0,1.0,phase_2,go,400.0,350.0,1.0,,,,,,,,,gray,flipped triangle
0.0,8.0,4.0,1.0,6.0,0.0,0.0,5.0,1.0,phase_2,stop,400.0,350.0,4.0,,,,,,,,,cyan,triangle
0.0,8.0,4.0,1.0,5.0,5.0,384.8398520003684,5.0,1.0,phase_2,go,400.0,400.0,1.0,,,,,,,,,cyan,triangle
0.0,7.0,3.0,1.0,6.0,6.0,524.9329669995859,6.0,1.0,phase_2,stop,400.0,400.0,3.0,,,,,,,,,white,square
0.0,7.0,3.0,1.0,6.0,6.0,714.449078999678,6.0,1.0,phase_2,go,400.0,350.0,1.0,,,,,,,,,white,square
0.0,8.0,4.0,1.0,6.0,6.0,491.6341229991303,6.0,1.0,phase_2,stop,400.0,350.0,3.0,,,,,,,,,cyan,triangle
0.0,6.0,2.0,1.0,6.0,6.0,643.6571840004035,6.0,1.0,phase_2,go,400.0,300.0,1.0,,,,,,,,,green,cross
0.0,8.0,4.0,1.0,6.0,6.0,532.2106920002625,6.0,1.0,phase_2,go,400.0,300.0,1.0,,,,,,,,,cyan,triangle
0.0,1.0,1.0,0.0,6.0,6.0,625.4747040002258,6.0,1.0,phase_2,go,400.0,300.0,1.0,,,,,,,,,blue,diamond
0.0,7.0,3.0,1.0,6.0,6.0,364.8378529996989,6.0,1.0,phase_2,stop,400.0,300.0,3.0,,,,,,,,,white,square
0.0,1.0,1.0,0.0,5.0,5.0,614.8813939998945,6.0,1.0,phase_2,go,400.0,250.0,1.0,,,,,,,,,blue,diamond
0.0,5.0,1.0,1.0,6.0,6.0,318.8171780002449,6.0,1.0,phase_2,stop,400.0,250.0,3.0,,,,,,,,,orange,hexagon
0.0,6.0,2.0,1.0,5.0,5.0,569.6097889995144,6.0,1.0,phase_2,go,400.0,200.0,1.0,,,,,,,,,green,cross
0.0,8.0,4.0,1.0,5.0,5.0,532.2945809994053,6.0,1.0,phase_2,stop,400.0,200.0,3.0,,,,,,,,,cyan,triangle
0.0,4.0,4.0,0.0,5.0,5.0,635.1919650005584,6.0,1.0,phase_2,go,350.0,200.0,1.0,,,,,,,,,magenta,circle
0.0,7.0,3.0,1.0,5.0,0.0,0.0,6.0,1.0,phase_2,stop,350.0,200.0,4.0,,,,,,,,,white,square
0.0,5.0,1.0,1.0,5.0,5.0,543.2707260006282,6.0,1.0,phase_2,stop,400.0,200.0,3.0,,,,,,,,,orange,hexagon
0.0,3.0,3.0,0.0,6.0,6.0,886.8524469999102,6.0,1.0,phase_2,go,350.0,200.0,1.0,,,,,,,,,gray,flipped triangle
0.0,4.0,4.0,0.0,6.0,6.0,654.6784379997916,6.0,1.0,phase_2,go,350.0,200.0,1.0,,,,,,,,,magenta,circle
0.0,4.0,4.0,0.0,6.0,6.0,299.5789320002586,6.0,1.0,phase_2,go,350.0,200.0,1.0,,,,,,,,,magenta,circle
0.0,7.0,3.0,1.0,5.0,0.0,0.0,6.0,1.0,phase_2,stop,350.0,200.0,4.0,,,,,,,,,white,square
0.0,1.0,1.0,0.0,5.0,5.0,736.5491749997091,6.0,1.0,phase_2,go,400.0,200.0,1.0,,,,,,,,,blue,diamond
0.0,3.0,3.0,0.0,5.0,5.0,886.8176669993773,6.0,1.0,phase_2,go,400.0,200.0,1.0,,,,,,,,,gray,flipped triangle
0.0,2.0,2.0,0.0,5.0,5.0,765.3641569995671,6.0,1.0,phase_2,go,400.0,200.0,1.0,,,,,,,,,yellow,I
0.0,8.0,4.0,1.0,6.0,0.0,0.0,6.0,1.0,phase_2,stop,400.0,200.0,4.0,,,,,,,,,cyan,triangle
0.0,4.0,4.0,0.0,6.0,6.0,597.5471319998178,6.0,1.0,phase_2,go,400.0,250.0,1.0,,,,,,,,,magenta,circle
0.0,3.0,3.0,0.0,5.0,5.0,458.4663750001709,6.0,1.0,phase_2,go,400.0,250.0,1.0,,,,,,,,,gray,flipped triangle
0.0,7.0,3.0,1.0,5.0,0.0,0.0,6.0,1.0,phase_2,stop,400.0,250.0,4.0,,,,,,,,,white,square
0.0,5.0,1.0,1.0,5.0,0.0,0.0,6.0,1.0,phase_2,stop,450.0,250.0,4.0,,,,,,,,,orange,hexagon
0.0,1.0,1.0,0.0,6.0,6.0,663.061784999627,6.0,1.0,phase_2,go,500.0,250.0,1.0,,,,,,,,,blue,diamond
0.0,8.0,4.0,1.0,5.0,0.0,0.0,6.0,1.0,phase_2,stop,500.0,250.0,4.0,,,,,,,,,cyan,triangle
0.0,1.0,1.0,0.0,5.0,5.0,606.2910660002672,6.0,1.0,phase_2,go,550.0,250.0,1.0,,,,,,,,,blue,diamond
0.0,4.0,4.0,0.0,6.0,6.0,738.9961720000429,6.0,1.0,phase_2,go,550.0,250.0,1.0,,,,,,,,,magenta,circle
0.0,7.0,3.0,1.0,5.0,0.0,0.0,6.0,1.0,phase_2,stop,550.0,250.0,4.0,,,,,,,,,white,square
0.0,8.0,4.0,1.0,5.0,5.0,932.0446609999636,6.0,1.0,phase_2,go,600.0,250.0,1.0,,,,,,,,,cyan,triangle
0.0,1.0,1.0,0.0,5.0,5.0,596.8648060006672,6.0,1.0,phase_2,go,600.0,250.0,1.0,,,,,,,,,blue,diamond
0.0,5.0,1.0,1.0,6.0,0.0,0.0,6.0,1.0,phase_2,stop,600.0,250.0,4.0,,,,,,,,,orange,hexagon
0.0,1.0,1.0,0.0,5.0,5.0,568.5177730001669,6.0,1.0,phase_2,go,600.0,300.0,1.0,,,,,,,,,blue,diamond
0.0,5.0,1.0,1.0,5.0,5.0,695.9160940004949,6.0,1.0,phase_2,stop,600.0,300.0,3.0,,,,,,,,,orange,hexagon
0.0,1.0,1.0,0.0,5.0,5.0,474.9046070000986,7.0,1.0,phase_2,go,550.0,300.0,1.0,,,,,,,,,blue,diamond
0.0,2.0,2.0,0.0,5.0,5.0,643.9259520002452,7.0,1.0,phase_2,go,550.0,300.0,1.0,,,,,,,,,yellow,I
0.0,2.0,2.0,0.0,6.0,6.0,270.8952840002894,7.0,1.0,phase_2,go,550.0,300.0,1.0,,,,,,,,,yellow,I
0.0,6.0,2.0,1.0,5.0,5.0,308.2579120000446,7.0,1.0,phase_2,stop,550.0,300.0,3.0,,,,,,,,,green,cross
0.0,4.0,4.0,0.0,6.0,6.0,345.5823349995626,7.0,1.0,phase_2,go,500.0,300.0,1.0,,,,,,,,,magenta,circle
0.0,2.0,2.0,0.0,6.0,6.0,419.4685920001575,7.0,1.0,phase_2,go,500.0,300.0,1.0,,,,,,,,,yellow,I
0.0,6.0,2.0,1.0,5.0,5.0,419.8623590000352,7.0,1.0,phase_2,stop,500.0,300.0,3.0,,,,,,,,,green,cross
0.0,4.0,4.0,0.0,5.0,5.0,512.1099159996447,7.0,1.0,phase_2,go,450.0,300.0,1.0,,,,,,,,,magenta,circle
0.0,3.0,3.0,0.0,6.0,6.0,690.290470999571,7.0,1.0,phase_2,go,450.0,300.0,1.0,,,,,,,,,gray,flipped triangle
0.0,5.0,1.0,1.0,5.0,5.0,502.7436009995654,7.0,1.0,phase_2,stop,450.0,300.0,3.0,,,,,,,,,orange,hexagon
0.0,7.0,3.0,1.0,5.0,5.0,617.4391180002203,7.0,1.0,phase_2,stop,400.0,300.0,3.0,,,,,,,,,white,square
0.0,3.0,3.0,0.0,6.0,6.0,321.9564850005554,7.0,1.0,phase_2,go,350.0,300.0,1.0,,,,,,,,,gray,flipped triangle
0.0,2.0,2.0,0.0,5.0,5.0,737.1891249995315,7.0,1.0,phase_2,go,350.0,300.0,1.0,,,,,,,,,yellow,I
0.0,8.0,4.0,1.0,5.0,5.0,401.5403359999254,7.0,1.0,phase_2,stop,350.0,300.0,3.0,,,,,,,,,cyan,triangle
0.0,5.0,1.0,1.0,6.0,6.0,309.0342129999044,7.0,1.0,phase_2,go,300.0,300.0,1.0,,,,,,,,,orange,hexagon
0.0,8.0,4.0,1.0,6.0,6.0,461.6449410004861,7.0,1.0,phase_2,stop,300.0,300.0,3.0,,,,,,,,,cyan,triangle
0.0,6.0,2.0,1.0,5.0,5.0,635.896925000452,7.0,1.0,phase_2,go,300.0,250.0,1.0,,,,,,,,,green,cross
0.0,8.0,4.0,1.0,6.0,6.0,298.3943609997368,7.0,1.0,phase_2,go,300.0,250.0,1.0,,,,,,,,,cyan,triangle
0.0,2.0,2.0,0.0,5.0,5.0,542.4110230005681,7.0,1.0,phase_2,go,300.0,250.0,1.0,,,,,,,,,yellow,I
0.0,6.0,2.0,1.0,5.0,5.0,354.5302729999093,7.0,1.0,phase_2,stop,300.0,250.0,3.0,,,,,,,,,green,cross
0.0,6.0,2.0,1.0,6.0,0.0,0.0,7.0,1.0,phase_2,stop,250.0,250.0,4.0,,,,,,,,,green,cross
0.0,4.0,4.0,0.0,5.0,5.0,410.1223809993826,7.0,1.0,phase_2,go,250.0,300.0,1.0,,,,,,,,,magenta,circle
0.0,3.0,3.0,0.0,5.0,5.0,409.2069999996965,7.0,1.0,phase_2,go,250.0,300.0,1.0,,,,,,,,,gray,flipped triangle
0.0,6.0,2.0,1.0,5.0,5.0,286.4768480003477,7.0,1.0,phase_2,stop,250.0,300.0,3.0,,,,,,,,,green,cross
0.0,1.0,1.0,0.0,6.0,6.0,337.8141969997159,7.0,1.0,phase_2,go,200.0,300.0,1.0,,,,,,,,,blue,diamond
0.0,6.0,2.0,1.0,6.0,6.0,298.3302439997715,7.0,1.0,phase_2,stop,200.0,300.0,3.0,,,,,,,,,green,cross
0.0,5.0,1.0,1.0,6.0,6.0,783.892184999786,7.0,1.0,phase_2,go,200.0,250.0,1.0,,,,,,,,,orange,hexagon
0.0,3.0,3.0,0.0,6.0,6.0,299.4860940007129,7.0,1.0,phase_2,go,200.0,250.0,1.0,,,,,,,,,gray,flipped triangle
0.0,7.0,3.0,1.0,5.0,5.0,589.2026659994372,7.0,1.0,phase_2,go,200.0,250.0,1.0,,,,,,,,,white,square
0.0,3.0,3.0,0.0,6.0,6.0,346.7124819999299,7.0,1.0,phase_2,go,200.0,250.0,1.0,,,,,,,,,gray,flipped triangle
0.0,5.0,1.0,1.0,6.0,0.0,0.0,7.0,1.0,phase_2,stop,200.0,250.0,4.0,,,,,,,,,orange,hexagon
0.0,4.0,4.0,0.0,6.0,6.0,337.5287110002318,7.0,1.0,phase_2,go,200.0,300.0,1.0,,,,,,,,,magenta,circle
0.0,6.0,2.0,1.0,6.0,6.0,355.0129420000303,7.0,1.0,phase_2,stop,200.0,300.0,3.0,,,,,,,,,green,cross
0.0,4.0,4.0,0.0,5.0,5.0,317.8568319999613,7.0,1.0,phase_2,go,200.0,250.0,1.0,,,,,,,,,magenta,circle
0.0,4.0,4.0,0.0,5.0,5.0,568.8471729999947,7.0,1.0,phase_2,go,200.0,250.0,1.0,,,,,,,,,magenta,circle
0.0,7.0,3.0,1.0,5.0,0.0,0.0,7.0,1.0,phase_2,stop,200.0,250.0,4.0,,,,,,,,,white,square
0.0,4.0,4.0,0.0,6.0,6.0,625.4079820000698,8.0,1.0,phase_2,go,250.0,250.0,1.0,,,,,,,,,magenta,circle
0.0,4.0,4.0,0.0,6.0,6.0,512.4060190000819,8.0,1.0,phase_2,go,250.0,250.0,1.0,,,,,,,,,magenta,circle
0.0,8.0,4.0,1.0,5.0,0.0,0.0,8.0,1.0,phase_2,stop,250.0,250.0,4.0,,,,,,,,,cyan,triangle
0.0,4.0,4.0,0.0,5.0,5.0,664.0771399997902,8.0,1.0,phase_2,go,300.0,250.0,1.0,,,,,,,,,magenta,circle
0.0,3.0,3.0,0.0,6.0,6.0,576.7697680003039,8.0,1.0,phase_2,go,300.0,250.0,1.0,,,,,,,,,gray,flipped triangle
0.0,2.0,2.0,0.0,6.0,6.0,487.0722659998137,8.0,1.0,phase_2,go,300.0,250.0,1.0,,,,,,,,,yellow,I
0.0,1.0,1.0,0.0,6.0,6.0,522.6819789995716,8.0,1.0,phase_2,go,300.0,250.0,1.0,,,,,,,,,blue,diamond
0.0,7.0,3.0,1.0,5.0,0.0,0.0,8.0,1.0,phase_2,stop,300.0,250.0,4.0,,,,,,,,,white,square
0.0,4.0,4.0,0.0,5.0,5.0,455.6705679997321,8.0,1.0,phase_2,go,350.0,250.0,1.0,,,,,,,,,magenta,circle
0.0,1.0,1.0,0.0,6.0,6.0,501.7805369998314,8.0,1.0,phase_2,go,350.0,250.0,1.0,,,,,,,,,blue,diamond
0.0,7.0,3.0,1.0,6.0,6.0,310.7877339998595,8.0,1.0,phase_2,stop,350.0,250.0,3.0,,,,,,,,,white,square
0.0,7.0,3.0,1.0,6.0,0.0,0.0,8.0,1.0,phase_2,stop,350.0,200.0,4.0,,,,,,,,,white,square
0.0,7.0,3.0,1.0,6.0,6.0,494.5063840004877,8.0,1.0,phase_2,go,350.0,250.0,1.0,,,,,,,,,white,square
0.0,2.0,2.0,0.0,5.0,5.0,420.9583209994889,8.0,1.0,phase_2,go,350.0,250.0,1.0,,,,,,,,,yellow,I
0.0,7.0,3.0,1.0,5.0,0.0,0.0,8.0,1.0,phase_2,stop,350.0,250.0,4.0,,,,,,,,,white,square
0.0,6.0,2.0,1.0,6.0,0.0,0.0,8.0,1.0,phase_2,stop,400.0,250.0,4.0,,,,,,,,,green,cross
0.0,3.0,3.0,0.0,6.0,6.0,401.0221489998002,8.0,1.0,phase_2,go,400.0,300.0,1.0,,,,,,,,,gray,flipped triangle
0.0,4.0,4.0,0.0,6.0,6.0,551.548823000303,8.0,1.0,phase_2,go,400.0,300.0,1.0,,,,,,,,,magenta,circle
0.0,4.0,4.0,0.0,5.0,5.0,459.1444190000402,8.0,1.0,phase_2,go,400.0,300.0,1.0,,,,,,,,,magenta,circle
0.0,4.0,4.0,0.0,6.0,6.0,597.1281060001274,8.0,1.0,phase_2,go,400.0,300.0,1.0,,,,,,,,,magenta,circle
0.0,6.0,2.0,1.0,6.0,6.0,414.1363669996281,8.0,1.0,phase_2,stop,400.0,300.0,3.0,,,,,,,,,green,cross
0.0,5.0,1.0,1.0,6.0,0.0,0.0,8.0,1.0,phase_2,stop,400.0,250.0,4.0,,,,,,,,,orange,hexagon
0.0,2.0,2.0,0.0,6.0,6.0,401.087698000083,8.0,1.0,phase_2,go,400.0,300.0,1.0,,,,,,,,,yellow,I
0.0,4.0,4.0,0.0,5.0,5.0,551.1062180003137,8.0,1.0,phase_2,go,400.0,300.0,1.0,,,,,,,,,magenta,circle
0.0,1.0,1.0,0.0,5.0,5.0,578.746711000349,8.0,1.0,phase_2,go,400.0,300.0,1.0,,,,,,,,,blue,diamond
0.0,3.0,3.0,0.0,5.0,5.0,400.6145599996671,8.0,1.0,phase_2,go,400.0,300.0,1.0,,,,,,,,,gray,flipped triangle
0.0,7.0,3.0,1.0,5.0,5.0,556.8553189996237,8.0,1.0,phase_2,stop,400.0,300.0,3.0,,,,,,,,,white,square
0.0,5.0,1.0,1.0,5.0,0.0,0.0,8.0,1.0,phase_2,stop,350.0,300.0,4.0,,,,,,,,,orange,hexagon
0.0,6.0,2.0,1.0,6.0,0.0,0.0,8.0,1.0,phase_2,stop,400.0,300.0,4.0,,,,,,,,,green,cross
0.0,3.0,3.0,0.0,5.0,5.0,635.3593700005149,8.0,1.0,phase_2,go,400.0,350.0,1.0,,,,,,,,,gray,flipped triangle
0.0,2.0,2.0,0.0,6.0,6.0,809.9552189996757,8.0,1.0,phase_2,go,400.0,350.0,1.0,,,,,,,,,yellow,I
0.0,3.0,3.0,0.0,5.0,5.0,513.6276590001216,8.0,1.0,phase_2,go,400.0,350.0,1.0,,,,,,,,,gray,flipped triangle
0.0,3.0,3.0,0.0,5.0,5.0,495.0176140000621,8.0,1.0,phase_2,go,400.0,350.0,1.0,,,,,,,,,gray,flipped triangle
0.0,6.0,2.0,1.0,5.0,5.0,482.5119470006029,8.0,1.0,phase_2,stop,400.0,350.0,3.0,,,,,,,,,green,cross
0.0,5.0,1.0,1.0,5.0,0.0,0.0,8.0,1.0,phase_2,stop,350.0,350.0,4.0,,,,,,,,,orange,hexagon
0.0,5.0,1.0,1.0,5.0,0.0,0.0,8.0,1.0,phase_2,stop,400.0,350.0,4.0,,,,,,,,,orange,hexagon
0.0,6.0,2.0,1.0,7.0,5.0,1613.4629549997044,1.0,1.0,phase_3,,,,,462.0,3.0,616.0,154.0,308.0,924.0,462.0,770.0,green,cross
0.0,8.0,4.0,1.0,7.0,5.0,2008.6103749999893,1.0,1.0,phase_3,,,,,960.0,5.0,576.0,384.0,768.0,192.0,960.0,1152.0,cyan,triangle
0.0,4.0,4.0,0.0,7.0,4.0,1823.0291859999847,1.0,1.0,phase_3,,,,,192.0,1.0,768.0,1152.0,960.0,192.0,576.0,384.0,magenta,circle
0.0,7.0,3.0,1.0,7.0,3.0,2285.1886640000885,1.0,1.0,phase_3,,,,,580.0,5.0,348.0,232.0,580.0,696.0,464.0,116.0,white,square
0.0,6.0,2.0,1.0,7.0,4.0,1395.700351999949,1.0,1.0,phase_3,,,,,810.0,6.0,135.0,405.0,540.0,810.0,675.0,270.0,green,cross
0.0,4.0,4.0,0.0,7.0,4.0,2193.285452000054,1.0,1.0,phase_3,,,,,346.0,2.0,519.0,692.0,173.0,346.0,865.0,1038.0,magenta,circle
0.0,8.0,4.0,1.0,7.0,6.0,1266.0418249997747,1.0,1.0,phase_3,,,,,696.0,6.0,464.0,232.0,116.0,348.0,580.0,696.0,cyan,triangle
0.0,2.0,2.0,0.0,7.0,2.0,1397.5013720000788,1.0,1.0,phase_3,,,,,116.0,1.0,464.0,116.0,232.0,696.0,580.0,348.0,yellow,I
0.0,2.0,2.0,0.0,7.0,1.0,2983.611869999549,1.0,1.0,phase_3,,,,,924.0,6.0,924.0,462.0,308.0,616.0,154.0,770.0,yellow,I
0.0,8.0,4.0,1.0,7.0,5.0,3087.5602010000875,1.0,1.0,phase_3,,,,,519.0,3.0,346.0,1038.0,692.0,865.0,519.0,173.0,cyan,triangle
0.0,3.0,3.0,0.0,7.0,2.0,2097.834143,1.0,1.0,phase_3,,,,,173.0,1.0,519.0,173.0,346.0,692.0,865.0,1038.0,gray,flipped triangle
0.0,6.0,2.0,1.0,7.0,3.0,1419.4544559995848,1.0,1.0,phase_3,,,,,1038.0,6.0,692.0,519.0,1038.0,865.0,173.0,346.0,green,cross
0.0,1.0,1.0,0.0,7.0,3.0,1969.614599000124,1.0,1.0,phase_3,,,,,696.0,6.0,464.0,232.0,696.0,116.0,580.0,348.0,blue,diamond
0.0,8.0,4.0,1.0,7.0,1.0,2903.4001330001047,1.0,1.0,phase_3,,,,,384.0,2.0,384.0,960.0,576.0,192.0,768.0,1152.0,cyan,triangle
0.0,1.0,1.0,0.0,7.0,6.0,2302.383297000233,1.0,1.0,phase_3,,,,,192.0,1.0,1152.0,768.0,384.0,576.0,960.0,192.0,blue,diamond
0.0,5.0,1.0,1.0,7.0,6.0,2368.206113999804,1.0,1.0,phase_3,,,,,768.0,4.0,1152.0,576.0,192.0,960.0,384.0,768.0,orange,hexagon
0.0,4.0,4.0,0.0,7.0,3.0,2167.3071499999423,1.0,1.0,phase_3,,,,,696.0,6.0,464.0,580.0,696.0,348.0,116.0,232.0,magenta,circle
0.0,4.0,4.0,0.0,7.0,4.0,2666.9699430003675,1.0,1.0,phase_3,,,,,135.0,1.0,405.0,540.0,675.0,135.0,270.0,810.0,magenta,circle
0.0,8.0,4.0,1.0,7.0,2.0,2079.24572399952,1.0,1.0,phase_3,,,,,616.0,4.0,462.0,616.0,924.0,154.0,308.0,770.0,cyan,triangle
0.0,7.0,3.0,1.0,7.0,2.0,2628.117928000393,1.0,1.0,phase_3,,,,,232.0,2.0,580.0,232.0,696.0,464.0,116.0,348.0,white,square
0.0,6.0,2.0,1.0,7.0,6.0,2340.383550000297,2.0,1.0,phase_3,,,,,308.0,2.0,462.0,924.0,616.0,770.0,154.0,308.0,green,cross
0.0,3.0,3.0,0.0,7.0,3.0,2377.1889330000704,2.0,1.0,phase_3,,,,,770.0,5.0,154.0,924.0,770.0,616.0,462.0,308.0,gray,flipped triangle
0.0,2.0,2.0,0.0,7.0,1.0,2118.3398769999258,2.0,1.0,phase_3,,,,,960.0,5.0,960.0,576.0,1152.0,384.0,192.0,768.0,yellow,I
0.0,6.0,2.0,1.0,7.0,1.0,2635.5459649994373,2.0,1.0,phase_3,,,,,348.0,3.0,348.0,696.0,464.0,116.0,232.0,580.0,green,cross
0.0,7.0,3.0,1.0,7.0,1.0,2090.7760549998784,2.0,1.0,phase_3,,,,,616.0,4.0,616.0,308.0,924.0,462.0,154.0,770.0,white,square
0.0,3.0,3.0,0.0,7.0,2.0,2101.9029720000617,2.0,1.0,phase_3,,,,,696.0,6.0,464.0,696.0,116.0,232.0,580.0,348.0,gray,flipped triangle
0.0,4.0,4.0,0.0,7.0,5.0,2796.9115490004697,2.0,1.0,phase_3,,,,,576.0,3.0,768.0,192.0,960.0,384.0,576.0,1152.0,magenta,circle
0.0,3.0,3.0,0.0,7.0,6.0,1287.7626319996125,2.0,1.0,phase_3,,,,,696.0,6.0,116.0,348.0,232.0,464.0,580.0,696.0,gray,flipped triangle
0.0,6.0,2.0,1.0,7.0,2.0,1693.2820820002237,2.0,1.0,phase_3,,,,,346.0,2.0,519.0,346.0,1038.0,173.0,692.0,865.0,green,cross
0.0,2.0,2.0,0.0,7.0,4.0,2173.1560819998776,2.0,1.0,phase_3,,,,,580.0,5.0,348.0,116.0,232.0,580.0,696.0,464.0,yellow,I
0.0,3.0,3.0,0.0,7.0,1.0,1483.2204899994397,2.0,1.0,phase_3,,,,,135.0,1.0,135.0,540.0,675.0,810.0,405.0,270.0,gray,flipped triangle
0.0,4.0,4.0,0.0,7.0,3.0,1526.7700270005662,2.0,1.0,phase_3,,,,,924.0,6.0,462.0,308.0,924.0,770.0,616.0,154.0,magenta,circle
0.0,2.0,2.0,0.0,7.0,5.0,1731.5639019998343,2.0,1.0,phase_3,,,,,135.0,1.0,540.0,675.0,810.0,405.0,135.0,270.0,yellow,I
0.0,8.0,4.0,1.0,7.0,4.0,1664.6269659995596,2.0,1.0,phase_3,,,,,696.0,6.0,464.0,580.0,232.0,696.0,348.0,116.0,cyan,triangle
0.0,7.0,3.0,1.0,7.0,2.0,2975.9312360001786,2.0,1.0,phase_3,,,,,865.0,5.0,692.0,865.0,173.0,1038.0,519.0,346.0,white,square
0.0,2.0,2.0,0.0,7.0,2.0,3282.916385000135,2.0,1.0,phase_3,,,,,770.0,5.0,154.0,770.0,308.0,616.0,924.0,462.0,yellow,I
0.0,7.0,3.0,1.0,7.0,4.0,3847.533279000345,2.0,1.0,phase_3,,,,,865.0,5.0,173.0,519.0,692.0,865.0,346.0,1038.0,white,square
0.0,3.0,3.0,0.0,7.0,5.0,2267.6991030002678,2.0,1.0,phase_3,,,,,770.0,5.0,616.0,308.0,462.0,924.0,770.0,154.0,gray,flipped triangle
0.0,8.0,4.0,1.0,7.0,5.0,1896.333405000405,2.0,1.0,phase_3,,,,,865.0,5.0,519.0,173.0,1038.0,346.0,865.0,692.0,cyan,triangle
0.0,8.0,4.0,1.0,7.0,1.0,2881.5267079999103,2.0,1.0,phase_3,,,,,675.0,5.0,675.0,270.0,135.0,405.0,810.0,540.0,cyan,triangle
0.0,3.0,3.0,0.0,7.0,1.0,1396.9786649995513,3.0,1.0,phase_3,,,,,960.0,5.0,960.0,576.0,1152.0,768.0,192.0,384.0,gray,flipped triangle
0.0,6.0,2.0,1.0,7.0,3.0,2923.3213170000454,3.0,1.0,phase_3,,,,,960.0,5.0,768.0,1152.0,960.0,384.0,576.0,192.0,green,cross
0.0,7.0,3.0,1.0,7.0,6.0,2137.288586000068,3.0,1.0,phase_3,,,,,675.0,5.0,540.0,270.0,810.0,135.0,405.0,675.0,white,square
0.0,2.0,2.0,0.0,7.0,1.0,2258.1629229998725,3.0,1.0,phase_3,,,,,865.0,5.0,865.0,1038.0,692.0,519.0,346.0,173.0,yellow,I
0.0,1.0,1.0,0.0,7.0,2.0,2397.897797000041,3.0,1.0,phase_3,,,,,696.0,6.0,232.0,696.0,348.0,580.0,116.0,464.0,blue,diamond
0.0,4.0,4.0,0.0,7.0,6.0,4452.22124600059,3.0,1.0,phase_3,,,,,865.0,5.0,173.0,692.0,1038.0,346.0,519.0,865.0,magenta,circle
0.0,3.0,3.0,0.0,7.0,1.0,3188.060749999749,3.0,1.0,phase_3,,,,,768.0,4.0,768.0,576.0,384.0,192.0,960.0,1152.0,gray,flipped triangle
0.0,7.0,3.0,1.0,7.0,1.0,3322.3381010002413,3.0,1.0,phase_3,,,,,770.0,5.0,770.0,308.0,616.0,154.0,462.0,924.0,white,square
0.0,5.0,1.0,1.0,7.0,6.0,3607.033827000123,3.0,1.0,phase_3,,,,,768.0,4.0,1152.0,384.0,192.0,576.0,960.0,768.0,orange,hexagon
0.0,4.0,4.0,0.0,7.0,4.0,3318.127568999444,3.0,1.0,phase_3,,,,,580.0,5.0,232.0,464.0,696.0,580.0,348.0,116.0,magenta,circle
0.0,5.0,1.0,1.0,7.0,4.0,3089.955890000056,3.0,1.0,phase_3,,,,,810.0,6.0,270.0,675.0,405.0,810.0,135.0,540.0,orange,hexagon
0.0,5.0,1.0,1.0,7.0,2.0,3034.327827999732,3.0,1.0,phase_3,,,,,464.0,4.0,116.0,464.0,232.0,696.0,580.0,348.0,orange,hexagon
0.0,4.0,4.0,0.0,7.0,4.0,3163.20959299992,3.0,1.0,phase_3,,,,,675.0,5.0,405.0,540.0,135.0,675.0,810.0,270.0,magenta,circle
0.0,7.0,3.0,1.0,7.0,5.0,4204.800961999354,3.0,1.0,phase_3,,,,,960.0,5.0,768.0,1152.0,384.0,192.0,960.0,576.0,white,square
0.0,1.0,1.0,0.0,7.0,4.0,3299.1414569996778,3.0,1.0,phase_3,,,,,865.0,5.0,346.0,173.0,1038.0,865.0,692.0,519.0,blue,diamond
0.0,5.0,1.0,1.0,7.0,6.0,3268.122638999557,3.0,1.0,phase_3,,,,,675.0,5.0,135.0,270.0,810.0,405.0,540.0,675.0,orange,hexagon
0.0,1.0,1.0,0.0,7.0,6.0,3569.795160000467,3.0,1.0,phase_3,,,,,384.0,2.0,960.0,576.0,768.0,192.0,1152.0,384.0,blue,diamond
0.0,6.0,2.0,1.0,7.0,4.0,3910.716764999961,3.0,1.0,phase_3,,,,,696.0,6.0,232.0,348.0,580.0,696.0,116.0,464.0,green,cross
0.0,4.0,4.0,0.0,7.0,6.0,3122.826795000037,3.0,1.0,phase_3,,,,,616.0,4.0,308.0,462.0,770.0,154.0,924.0,616.0,magenta,circle
0.0,1.0,1.0,0.0,7.0,2.0,2088.770156999999,3.0,1.0,phase_3,,,,,616.0,4.0,924.0,616.0,154.0,770.0,462.0,308.0,blue,diamond
0.0,1.0,1.0,0.0,7.0,1.0,2207.169792999593,4.0,1.0,phase_3,,,,,346.0,2.0,346.0,865.0,519.0,692.0,173.0,1038.0,blue,diamond
0.0,3.0,3.0,0.0,7.0,3.0,2713.252970999747,4.0,1.0,phase_3,,,,,675.0,5.0,810.0,540.0,675.0,135.0,270.0,405.0,gray,flipped triangle
0.0,8.0,4.0,1.0,7.0,1.0,2048.1844659998387,4.0,1.0,phase_3,,,,,924.0,6.0,924.0,154.0,770.0,616.0,308.0,462.0,cyan,triangle
0.0,2.0,2.0,0.0,7.0,5.0,3830.838515999858,4.0,1.0,phase_3,,,,,810.0,6.0,675.0,135.0,270.0,405.0,810.0,540.0,yellow,I
0.0,5.0,1.0,1.0,7.0,3.0,2500.261107999904,4.0,1.0,phase_3,,,,,865.0,5.0,173.0,346.0,865.0,519.0,1038.0,692.0,orange,hexagon
0.0,8.0,4.0,1.0,7.0,6.0,3118.248875000063,4.0,1.0,phase_3,,,,,405.0,3.0,810.0,540.0,135.0,675.0,270.0,405.0,cyan,triangle
0.0,1.0,1.0,0.0,7.0,3.0,2548.0166370007278,4.0,1.0,phase_3,,,,,810.0,6.0,405.0,270.0,810.0,675.0,540.0,135.0,blue,diamond
0.0,5.0,1.0,1.0,7.0,2.0,2608.408037000117,4.0,1.0,phase_3,,,,,580.0,5.0,696.0,580.0,116.0,464.0,348.0,232.0,orange,hexagon
0.0,5.0,1.0,1.0,7.0,1.0,1971.128924999903,4.0,1.0,phase_3,,,,,1038.0,6.0,1038.0,865.0,692.0,519.0,173.0,346.0,orange,hexagon
0.0,1.0,1.0,0.0,7.0,4.0,2889.6139340004083,4.0,1.0,phase_3,,,,,270.0,2.0,675.0,540.0,135.0,270.0,810.0,405.0,blue,diamond
0.0,6.0,2.0,1.0,7.0,5.0,2470.2690260000963,4.0,1.0,phase_3,,,,,960.0,5.0,1152.0,768.0,576.0,384.0,960.0,192.0,green,cross
0.0,5.0,1.0,1.0,7.0,3.0,3683.823683999435,4.0,1.0,phase_3,,,,,770.0,5.0,616.0,308.0,770.0,462.0,924.0,154.0,orange,hexagon
0.0,3.0,3.0,0.0,7.0,3.0,2837.7790900003674,4.0,1.0,phase_3,,,,,865.0,5.0,519.0,692.0,865.0,173.0,1038.0,346.0,gray,flipped triangle
0.0,5.0,1.0,1.0,7.0,4.0,2922.14827800035,4.0,1.0,phase_3,,,,,770.0,5.0,308.0,154.0,616.0,770.0,462.0,924.0,orange,hexagon
0.0,1.0,1.0,0.0,7.0,4.0,2755.5986780007515,4.0,1.0,phase_3,,,,,308.0,2.0,154.0,770.0,462.0,308.0,924.0,616.0,blue,diamond
0.0,7.0,3.0,1.0,7.0,6.0,3547.5315650001,4.0,1.0,phase_3,,,,,270.0,2.0,135.0,810.0,540.0,405.0,675.0,270.0,white,square
0.0,2.0,2.0,0.0,7.0,1.0,2318.5944229999222,4.0,1.0,phase_3,,,,,960.0,5.0,960.0,576.0,384.0,768.0,1152.0,192.0,yellow,I
0.0,7.0,3.0,1.0,7.0,5.0,2812.848595000105,4.0,1.0,phase_3,,,,,960.0,5.0,192.0,768.0,384.0,576.0,960.0,1152.0,white,square
0.0,2.0,2.0,0.0,7.0,4.0,3214.534277999519,4.0,1.0,phase_3,,,,,1038.0,6.0,692.0,346.0,519.0,1038.0,173.0,865.0,yellow,I
0.0,6.0,2.0,1.0,7.0,3.0,2792.32015100024,4.0,1.0,phase_3,,,,,405.0,3.0,810.0,675.0,405.0,135.0,270.0,540.0,green,cross
