raw_reward_magnitude,stim_reward,stepwise_reward_magnitude,paired_with_stopping,stim_location,response,reaction_time,block,num_trial_presentations,which_phase,stop_signal_trial_type,left_SSD,right_SSD,accuracy,chosen_bidding_amount,chosen_bidding_level,possible_bid_1,possible_bid_2,possible_bid_3,possible_bid_4,possible_bid_5,possible_bid_6,color_text,shape_text
141.0,1.0,0.5,0.0,3.0,3.0,346.108766000043,1.0,1.0,phase_1,,,,,,,,,,,,,cyan,I
336.0,6.0,1.0,1.0,1.0,1.0,384.6230699998614,1.0,2.0,phase_1,,,,,,,,,,,,,gray,circle
184.0,1.0,0.5,0.0,4.0,4.0,319.0135350000673,1.0,1.0,phase_1,,,,,,,,,,,,,cyan,I
179.0,5.0,0.5,1.0,2.0,2.0,243.9510379999774,1.0,1.0,phase_1,,,,,,,,,,,,,white,flipped triangle
1312.0,8.0,4.0,1.0,2.0,2.0,253.3578019999822,1.0,2.0,phase_1,,,,,,,,,,,,,magenta,hexagon
146.0,5.0,0.5,1.0,2.0,2.0,262.1381439998913,1.0,1.0,phase_1,,,,,,,,,,,,,white,flipped triangle
141.0,5.0,0.5,1.0,1.0,1.0,235.7416410000041,1.0,1.0,phase_1,,,,,,,,,,,,,white,flipped triangle
169.0,1.0,0.5,0.0,3.0,3.0,272.0955530000992,1.0,1.0,phase_1,,,,,,,,,,,,,cyan,I
326.0,6.0,1.0,1.0,4.0,4.0,394.1295059998992,1.0,1.0,phase_1,,,,,,,,,,,,,gray,circle
0.0,6.0,0.0,1.0,3.0,3.0,308.0492229998981,1.0,2.0,phase_1,,,,,,,,,,,,,gray,circle
0.0,2.0,0.0,0.0,2.0,2.0,326.8259610001678,1.0,1.0,phase_1,,,,,,,,,,,,,blue,square
0.0,6.0,0.0,1.0,4.0,4.0,308.4141589999944,1.0,2.0,phase_1,,,,,,,,,,,,,gray,circle
301.0,6.0,1.0,1.0,1.0,1.0,373.7128069999471,1.0,3.0,phase_1,,,,,,,,,,,,,gray,circle
178.0,5.0,0.5,1.0,1.0,1.0,290.4994900000019,1.0,1.0,phase_1,,,,,,,,,,,,,white,flipped triangle
639.0,7.0,2.0,1.0,2.0,2.0,367.71177300011,1.0,1.0,phase_1,,,,,,,,,,,,,green,triangle
146.0,1.0,0.5,0.0,3.0,3.0,340.175500999976,1.0,1.0,phase_1,,,,,,,,,,,,,cyan,I
345.0,2.0,1.0,0.0,4.0,4.0,233.5051350000867,1.0,1.0,phase_1,,,,,,,,,,,,,blue,square
139.0,1.0,0.5,0.0,2.0,2.0,419.8169859996596,1.0,2.0,phase_1,,,,,,,,,,,,,cyan,I
0.0,3.0,0.0,0.0,2.0,2.0,318.3052869999301,1.0,1.0,phase_1,,,,,,,,,,,,,orange,cross
626.0,3.0,2.0,0.0,4.0,4.0,299.2544230000931,1.0,1.0,phase_1,,,,,,,,,,,,,orange,cross
664.0,7.0,2.0,1.0,4.0,4.0,328.6977160000788,1.0,1.0,phase_1,,,,,,,,,,,,,green,triangle
344.0,2.0,1.0,0.0,1.0,1.0,437.4679409997952,1.0,2.0,phase_1,,,,,,,,,,,,,blue,square
185.0,5.0,0.5,1.0,2.0,2.0,420.4242529999646,1.0,1.0,phase_1,,,,,,,,,,,,,white,flipped triangle
304.0,2.0,1.0,0.0,2.0,2.0,355.7193910000933,1.0,1.0,phase_1,,,,,,,,,,,,,blue,square
0.0,8.0,0.0,1.0,4.0,4.0,264.1013219999877,1.0,1.0,phase_1,,,,,,,,,,,,,magenta,hexagon
150.0,5.0,0.5,1.0,1.0,1.0,440.3549079997901,1.0,2.0,phase_1,,,,,,,,,,,,,white,flipped triangle
1316.0,4.0,4.0,0.0,4.0,4.0,318.5975110000072,1.0,1.0,phase_1,,,,,,,,,,,,,yellow,diamond
154.0,1.0,0.5,0.0,2.0,2.0,345.4988439998487,1.0,1.0,phase_1,,,,,,,,,,,,,cyan,I
1305.0,8.0,4.0,1.0,4.0,4.0,291.3105050001832,1.0,1.0,phase_1,,,,,,,,,,,,,magenta,hexagon
309.0,6.0,1.0,1.0,2.0,2.0,336.7608739999923,1.0,1.0,phase_1,,,,,,,,,,,,,gray,circle
664.0,3.0,2.0,0.0,1.0,1.0,254.0672899999663,1.0,1.0,phase_1,,,,,,,,,,,,,orange,cross
148.0,1.0,0.5,0.0,1.0,1.0,290.1574200000141,1.0,1.0,phase_1,,,,,,,,,,,,,cyan,I
309.0,2.0,1.0,0.0,2.0,2.0,337.5515799998538,1.0,1.0,phase_1,,,,,,,,,,,,,blue,square
334.0,6.0,1.0,1.0,1.0,1.0,439.812393000011,1.0,2.0,phase_1,,,,,,,,,,,,,gray,circle
1316.0,4.0,4.0,0.0,2.0,2.0,468.4356600000683,1.0,1.0,phase_1,,,,,,,,,,,,,yellow,diamond
320.0,2.0,1.0,0.0,3.0,3.0,439.5276549998925,1.0,1.0,phase_1,,,,,,,,,,,,,blue,square
635.0,3.0,2.0,0.0,2.0,2.0,355.0122689998716,1.0,1.0,phase_1,,,,,,,,,,,,,orange,cross
0.0,8.0,0.0,1.0,4.0,4.0,374.2093730002125,1.0,1.0,phase_1,,,,,,,,,,,,,magenta,hexagon
141.0,1.0,0.5,0.0,2.0,2.0,298.5367619999124,1.0,1.0,phase_1,,,,,,,,,,,,,cyan,I
0.0,6.0,0.0,1.0,2.0,2.0,327.2700289999193,1.0,1.0,phase_1,,,,,,,,,,,,,gray,circle
1312.0,4.0,4.0,0.0,3.0,3.0,261.2203020003107,1.0,1.0,phase_1,,,,,,,,,,,,,yellow,diamond
1292.0,4.0,4.0,0.0,1.0,1.0,365.1869679997617,1.0,2.0,phase_1,,,,,,,,,,,,,yellow,diamond
0.0,5.0,0.0,1.0,2.0,2.0,402.1188990000155,1.0,1.0,phase_1,,,,,,,,,,,,,white,flipped triangle
161.0,5.0,0.5,1.0,3.0,3.0,279.856416000257,1.0,1.0,phase_1,,,,,,,,,,,,,white,flipped triangle
336.0,2.0,1.0,0.0,1.0,1.0,364.0251849997185,1.0,1.0,phase_1,,,,,,,,,,,,,blue,square
662.0,3.0,2.0,0.0,3.0,3.0,449.6149209999203,1.0,1.0,phase_1,,,,,,,,,,,,,orange,cross
163.0,5.0,0.5,1.0,2.0,2.0,502.7546110000003,1.0,1.0,phase_1,,,,,,,,,,,,,white,flipped triangle
171.0,5.0,0.5,1.0,4.0,4.0,327.9365759999564,1.0,1.0,phase_1,,,,,,,,,,,,,white,flipped triangle
141.0,5.0,0.5,1.0,2.0,2.0,374.760234000405,1.0,1.0,phase_1,,,,,,,,,,,,,white,flipped triangle
638.0,7.0,2.0,1.0,4.0,4.0,300.4100420002942,1.0,1.0,phase_1,,,,,,,,,,,,,green,triangle
659.0,3.0,2.0,0.0,4.0,4.0,364.4329009998728,1.0,1.0,phase_1,,,,,,,,,,,,,orange,cross
140.0,5.0,0.5,1.0,1.0,1.0,485.5075330001455,1.0,1.0,phase_1,,,,,,,,,,,,,white,flipped triangle
0.0,2.0,0.0,0.0,1.0,1.0,280.3686779998315,1.0,2.0,phase_1,,,,,,,,,,,,,blue,square
349.0,6.0,1.0,1.0,4.0,4.0,373.3967570001368,1.0,1.0,phase_1,,,,,,,,,,,,,gray,circle
1325.0,8.0,4.0,1.0,4.0,4.0,364.0416090001963,1.0,1.0,phase_1,,,,,,,,,,,,,magenta,hexagon
332.0,2.0,1.0,0.0,3.0,3.0,355.5334170000606,1.0,1.0,phase_1,,,,,,,,,,,,,blue,square
345.0,6.0,1.0,1.0,3.0,3.0,355.3233750003528,1.0,1.0,phase_1,,,,,,,,,,,,,gray,circle
1287.0,8.0,4.0,1.0,2.0,2.0,363.804531000369,1.0,1.0,phase_1,,,,,,,,,,,,,magenta,hexagon
1309.0,8.0,4.0,1.0,2.0,2.0,448.9796450002359,1.0,1.0,phase_1,,,,,,,,,,,,,magenta,hexagon
1287.0,4.0,4.0,0.0,1.0,1.0,496.2782489997153,1.0,3.0,phase_1,,,,,,,,,,,,,yellow,diamond
154.0,5.0,0.5,1.0,1.0,1.0,420.3926109998974,1.0,1.0,phase_1,,,,,,,,,,,,,white,flipped triangle
658.0,7.0,2.0,1.0,4.0,4.0,457.3378760001105,1.0,1.0,phase_1,,,,,,,,,,,,,green,triangle
632.0,7.0,2.0,1.0,4.0,4.0,347.7208419999442,1.0,1.0,phase_1,,,,,,,,,,,,,green,triangle
1283.0,4.0,4.0,0.0,4.0,4.0,339.5423070001016,1.0,1.0,phase_1,,,,,,,,,,,,,yellow,diamond
309.0,6.0,1.0,1.0,2.0,2.0,354.4673889996375,1.0,1.0,phase_1,,,,,,,,,,,,,gray,circle
0.0,3.0,0.0,0.0,3.0,3.0,393.6410539999997,1.0,1.0,phase_1,,,,,,,,,,,,,orange,cross
648.0,7.0,2.0,1.0,3.0,3.0,376.8254390001857,1.0,2.0,phase_1,,,,,,,,,,,,,green,triangle
627.0,3.0,2.0,0.0,1.0,1.0,624.115200000233,1.0,1.0,phase_1,,,,,,,,,,,,,orange,cross
1285.0,8.0,4.0,1.0,2.0,2.0,496.642275999875,1.0,1.0,phase_1,,,,,,,,,,,,,magenta,hexagon
327.0,2.0,1.0,0.0,1.0,1.0,419.367548000082,1.0,1.0,phase_1,,,,,,,,,,,,,blue,square
647.0,3.0,2.0,0.0,3.0,3.0,346.3135770002736,1.0,1.0,phase_1,,,,,,,,,,,,,orange,cross
1314.0,4.0,4.0,0.0,4.0,4.0,261.1940420001701,1.0,1.0,phase_1,,,,,,,,,,,,,yellow,diamond
0.0,6.0,0.0,1.0,1.0,1.0,346.4186890000746,1.0,1.0,phase_1,,,,,,,,,,,,,gray,circle
0.0,2.0,0.0,0.0,3.0,3.0,346.1032160003015,1.0,1.0,phase_1,,,,,,,,,,,,,blue,square
0.0,6.0,0.0,1.0,3.0,3.0,316.6810370003077,1.0,1.0,phase_1,,,,,,,,,,,,,gray,circle
161.0,1.0,0.5,0.0,3.0,3.0,345.8704469999247,1.0,1.0,phase_1,,,,,,,,,,,,,cyan,I
344.0,6.0,1.0,1.0,1.0,1.0,373.8947159999952,1.0,1.0,phase_1,,,,,,,,,,,,,gray,circle
1283.0,8.0,4.0,1.0,4.0,4.0,356.1439169998266,1.0,1.0,phase_1,,,,,,,,,,,,,magenta,hexagon
667.0,3.0,2.0,0.0,3.0,3.0,345.8897390000857,1.0,1.0,phase_1,,,,,,,,,,,,,orange,cross
1277.0,4.0,4.0,0.0,4.0,4.0,317.2135959998741,1.0,1.0,phase_1,,,,,,,,,,,,,yellow,diamond
184.0,5.0,0.5,1.0,2.0,2.0,344.7001969998382,1.0,2.0,phase_1,,,,,,,,,,,,,white,flipped triangle
325.0,6.0,1.0,1.0,3.0,3.0,328.8291839999147,1.0,1.0,phase_1,,,,,,,,,,,,,gray,circle
1294.0,8.0,4.0,1.0,3.0,3.0,346.3111740002205,1.0,1.0,phase_1,,,,,,,,,,,,,magenta,hexagon
1314.0,8.0,4.0,1.0,4.0,4.0,298.6063710000053,1.0,1.0,phase_1,,,,,,,,,,,,,magenta,hexagon
1287.0,8.0,4.0,1.0,1.0,1.0,375.2982800001518,1.0,2.0,phase_1,,,,,,,,,,,,,magenta,hexagon
323.0,2.0,1.0,0.0,2.0,2.0,375.104588999875,1.0,1.0,phase_1,,,,,,,,,,,,,blue,square
1307.0,8.0,4.0,1.0,1.0,1.0,516.0908840002776,1.0,1.0,phase_1,,,,,,,,,,,,,magenta,hexagon
1296.0,4.0,4.0,0.0,4.0,4.0,374.0450200002669,1.0,1.0,phase_1,,,,,,,,,,,,,yellow,diamond
1300.0,8.0,4.0,1.0,4.0,4.0,421.251330999894,1.0,1.0,phase_1,,,,,,,,,,,,,magenta,hexagon
632.0,7.0,2.0,1.0,2.0,2.0,374.7705579999092,1.0,1.0,phase_1,,,,,,,,,,,,,green,triangle
163.0,1.0,0.5,0.0,1.0,1.0,430.9135339999557,1.0,1.0,phase_1,,,,,,,,,,,,,cyan,I
0.0,3.0,0.0,0.0,2.0,2.0,449.6823940003196,1.0,1.0,phase_1,,,,,,,,,,,,,orange,cross
301.0,2.0,1.0,0.0,2.0,2.0,346.4535110001634,1.0,1.0,phase_1,,,,,,,,,,,,,blue,square
312.0,6.0,1.0,1.0,4.0,4.0,404.4488760000604,1.0,1.0,phase_1,,,,,,,,,,,,,gray,circle
320.0,6.0,1.0,1.0,3.0,3.0,319.0696349997779,1.0,1.0,phase_1,,,,,,,,,,,,,gray,circle
1302.0,4.0,4.0,0.0,3.0,3.0,281.1536900003375,1.0,1.0,phase_1,,,,,,,,,,,,,yellow,diamond
141.0,5.0,0.5,1.0,2.0,2.0,317.6861259998986,1.0,1.0,phase_1,,,,,,,,,,,,,white,flipped triangle
0.0,7.0,0.0,1.0,1.0,1.0,441.0967190001429,1.0,1.0,phase_1,,,,,,,,,,,,,green,triangle
181.0,5.0,0.5,1.0,3.0,3.0,383.1841579999491,1.0,1.0,phase_1,,,,,,,,,,,,,white,flipped triangle
644.0,3.0,2.0,0.0,4.0,4.0,336.9188229999054,1.0,1.0,phase_1,,,,,,,,,,,,,orange,cross
1307.0,4.0,4.0,0.0,1.0,1.0,300.4743280002913,2.0,1.0,phase_1,,,,,,,,,,,,,yellow,diamond
658.0,3.0,2.0,0.0,1.0,1.0,253.63541900014752,2.0,1.0,phase_1,,,,,,,,,,,,,orange,cross
0.0,3.0,0.0,0.0,2.0,2.0,428.6116980001679,2.0,2.0,phase_1,,,,,,,,,,,,,orange,cross
304.0,6.0,1.0,1.0,2.0,2.0,317.127168999832,2.0,1.0,phase_1,,,,,,,,,,,,,gray,circle
1296.0,8.0,4.0,1.0,1.0,1.0,336.5288270001656,2.0,1.0,phase_1,,,,,,,,,,,,,magenta,hexagon
663.0,7.0,2.0,1.0,1.0,1.0,319.2092510003022,2.0,1.0,phase_1,,,,,,,,,,,,,green,triangle
0.0,3.0,0.0,0.0,2.0,2.0,308.3301410001695,2.0,1.0,phase_1,,,,,,,,,,,,,orange,cross
0.0,8.0,0.0,1.0,2.0,2.0,346.3822559997425,2.0,1.0,phase_1,,,,,,,,,,,,,magenta,hexagon
1304.0,8.0,4.0,1.0,3.0,3.0,298.9420239996434,2.0,2.0,phase_1,,,,,,,,,,,,,magenta,hexagon
301.0,2.0,1.0,0.0,2.0,2.0,402.1636949996718,2.0,1.0,phase_1,,,,,,,,,,,,,blue,square
143.0,1.0,0.5,0.0,2.0,2.0,329.3716250000216,2.0,1.0,phase_1,,,,,,,,,,,,,cyan,I
1276.0,4.0,4.0,0.0,3.0,3.0,364.3156250000174,2.0,1.0,phase_1,,,,,,,,,,,,,yellow,diamond
1302.0,8.0,4.0,1.0,3.0,3.0,309.4045899997582,2.0,1.0,phase_1,,,,,,,,,,,,,magenta,hexagon
663.0,3.0,2.0,0.0,2.0,2.0,271.5409469997212,2.0,1.0,phase_1,,,,,,,,,,,,,orange,cross
0.0,7.0,0.0,1.0,1.0,1.0,291.2238139997498,2.0,1.0,phase_1,,,,,,,,,,,,,green,triangle
317.0,2.0,1.0,0.0,4.0,4.0,329.203048999716,2.0,1.0,phase_1,,,,,,,,,,,,,blue,square
632.0,3.0,2.0,0.0,4.0,4.0,271.6665699999794,2.0,1.0,phase_1,,,,,,,,,,,,,orange,cross
1322.0,4.0,4.0,0.0,2.0,2.0,312.2816939999211,2.0,1.0,phase_1,,,,,,,,,,,,,yellow,diamond
626.0,3.0,2.0,0.0,4.0,4.0,298.6229110001659,2.0,1.0,phase_1,,,,,,,,,,,,,orange,cross
1288.0,8.0,4.0,1.0,4.0,4.0,327.5650770001448,2.0,1.0,phase_1,,,,,,,,,,,,,magenta,hexagon
173.0,1.0,0.5,0.0,4.0,4.0,338.4913810000398,2.0,1.0,phase_1,,,,,,,,,,,,,cyan,I
0.0,1.0,0.0,0.0,4.0,4.0,374.8855119997643,2.0,1.0,phase_1,,,,,,,,,,,,,cyan,I
643.0,7.0,2.0,1.0,3.0,3.0,355.457087999639,2.0,1.0,phase_1,,,,,,,,,,,,,green,triangle
1307.0,8.0,4.0,1.0,3.0,3.0,328.5712940000849,2.0,1.0,phase_1,,,,,,,,,,,,,magenta,hexagon
1276.0,8.0,4.0,1.0,4.0,4.0,309.2021160000513,2.0,1.0,phase_1,,,,,,,,,,,,,magenta,hexagon
1297.0,8.0,4.0,1.0,3.0,3.0,327.4046739998084,2.0,1.0,phase_1,,,,,,,,,,,,,magenta,hexagon
185.0,1.0,0.5,0.0,3.0,3.0,311.4377790002436,2.0,1.0,phase_1,,,,,,,,,,,,,cyan,I
177.0,1.0,0.5,0.0,2.0,2.0,327.1968210001432,2.0,3.0,phase_1,,,,,,,,,,,,,cyan,I
0.0,6.0,0.0,1.0,1.0,1.0,414.4342210001923,2.0,1.0,phase_1,,,,,,,,,,,,,gray,circle
1301.0,4.0,4.0,0.0,1.0,1.0,344.7345499998846,2.0,1.0,phase_1,,,,,,,,,,,,,yellow,diamond
313.0,6.0,1.0,1.0,2.0,2.0,298.2113829998525,2.0,1.0,phase_1,,,,,,,,,,,,,gray,circle
662.0,7.0,2.0,1.0,4.0,4.0,336.0350199995991,2.0,1.0,phase_1,,,,,,,,,,,,,green,triangle
0.0,5.0,0.0,1.0,2.0,2.0,410.9853340000882,2.0,1.0,phase_1,,,,,,,,,,,,,white,flipped triangle
1293.0,8.0,4.0,1.0,1.0,1.0,325.6441449998419,2.0,1.0,phase_1,,,,,,,,,,,,,magenta,hexagon
1304.0,4.0,4.0,0.0,4.0,4.0,355.7746649998989,2.0,1.0,phase_1,,,,,,,,,,,,,yellow,diamond
0.0,4.0,0.0,0.0,3.0,3.0,337.3663649999798,2.0,1.0,phase_1,,,,,,,,,,,,,yellow,diamond
336.0,6.0,1.0,1.0,3.0,3.0,318.4196369998062,2.0,1.0,phase_1,,,,,,,,,,,,,gray,circle
171.0,5.0,0.5,1.0,3.0,3.0,280.2277729997513,2.0,1.0,phase_1,,,,,,,,,,,,,white,flipped triangle
184.0,5.0,0.5,1.0,4.0,4.0,224.4204879998506,2.0,1.0,phase_1,,,,,,,,,,,,,white,flipped triangle
659.0,7.0,2.0,1.0,4.0,4.0,345.6219780000538,2.0,2.0,phase_1,,,,,,,,,,,,,green,triangle
1286.0,8.0,4.0,1.0,2.0,2.0,393.6847619997934,2.0,1.0,phase_1,,,,,,,,,,,,,magenta,hexagon
651.0,3.0,2.0,0.0,3.0,3.0,357.6312589998451,2.0,1.0,phase_1,,,,,,,,,,,,,orange,cross
646.0,7.0,2.0,1.0,1.0,1.0,300.6368540000039,2.0,1.0,phase_1,,,,,,,,,,,,,green,triangle
1325.0,4.0,4.0,0.0,2.0,2.0,251.46464999988888,2.0,1.0,phase_1,,,,,,,,,,,,,yellow,diamond
0.0,5.0,0.0,1.0,1.0,1.0,345.8972560001712,2.0,1.0,phase_1,,,,,,,,,,,,,white,flipped triangle
1314.0,4.0,4.0,0.0,1.0,1.0,299.4575860002442,2.0,1.0,phase_1,,,,,,,,,,,,,yellow,diamond
1301.0,8.0,4.0,1.0,4.0,4.0,310.032369000055,2.0,1.0,phase_1,,,,,,,,,,,,,magenta,hexagon
665.0,3.0,2.0,0.0,3.0,3.0,282.481645000189,2.0,1.0,phase_1,,,,,,,,,,,,,orange,cross
344.0,6.0,1.0,1.0,2.0,2.0,309.1430449999279,2.0,1.0,phase_1,,,,,,,,,,,,,gray,circle
627.0,7.0,2.0,1.0,4.0,4.0,289.6594839999125,2.0,1.0,phase_1,,,,,,,,,,,,,green,triangle
0.0,2.0,0.0,0.0,4.0,4.0,308.9340209999136,2.0,1.0,phase_1,,,,,,,,,,,,,blue,square
636.0,7.0,2.0,1.0,4.0,4.0,346.3999620003051,2.0,1.0,phase_1,,,,,,,,,,,,,green,triangle
632.0,3.0,2.0,0.0,2.0,2.0,252.0779120000043,2.0,1.0,phase_1,,,,,,,,,,,,,orange,cross
1277.0,8.0,4.0,1.0,3.0,3.0,280.738933000066,2.0,1.0,phase_1,,,,,,,,,,,,,magenta,hexagon
1325.0,8.0,4.0,1.0,2.0,2.0,317.9531499999939,2.0,1.0,phase_1,,,,,,,,,,,,,magenta,hexagon
0.0,7.0,0.0,1.0,3.0,3.0,356.0197910001079,2.0,1.0,phase_1,,,,,,,,,,,,,green,triangle
0.0,4.0,0.0,0.0,4.0,4.0,233.4331649999512,2.0,1.0,phase_1,,,,,,,,,,,,,yellow,diamond
340.0,2.0,1.0,0.0,4.0,4.0,299.8593160000382,2.0,1.0,phase_1,,,,,,,,,,,,,blue,square
636.0,3.0,2.0,0.0,3.0,3.0,307.8915320002124,2.0,1.0,phase_1,,,,,,,,,,,,,orange,cross
663.0,7.0,2.0,1.0,3.0,3.0,477.0103460000428,2.0,1.0,phase_1,,,,,,,,,,,,,green,triangle
0.0,5.0,0.0,1.0,2.0,2.0,317.9140729998835,2.0,1.0,phase_1,,,,,,,,,,,,,white,flipped triangle
1293.0,4.0,4.0,0.0,2.0,2.0,373.5910410000542,2.0,1.0,phase_1,,,,,,,,,,,,,yellow,diamond
310.0,2.0,1.0,0.0,3.0,3.0,345.928257000196,2.0,1.0,phase_1,,,,,,,,,,,,,blue,square
643.0,3.0,2.0,0.0,2.0,2.0,337.0634970001447,2.0,1.0,phase_1,,,,,,,,,,,,,orange,cross
646.0,3.0,2.0,0.0,3.0,3.0,327.3041739998916,2.0,1.0,phase_1,,,,,,,,,,,,,orange,cross
1324.0,8.0,4.0,1.0,3.0,3.0,252.2458700000243,2.0,1.0,phase_1,,,,,,,,,,,,,magenta,hexagon
1307.0,4.0,4.0,0.0,3.0,3.0,289.245903000392,2.0,1.0,phase_1,,,,,,,,,,,,,yellow,diamond
0.0,1.0,0.0,0.0,3.0,3.0,262.8588990000935,2.0,1.0,phase_1,,,,,,,,,,,,,cyan,I
1279.0,4.0,4.0,0.0,2.0,2.0,308.0714020002233,2.0,1.0,phase_1,,,,,,,,,,,,,yellow,diamond
319.0,2.0,1.0,0.0,4.0,4.0,290.1155790000302,2.0,1.0,phase_1,,,,,,,,,,,,,blue,square
0.0,3.0,0.0,0.0,2.0,2.0,300.4585270000461,2.0,1.0,phase_1,,,,,,,,,,,,,orange,cross
172.0,5.0,0.5,1.0,2.0,2.0,308.1099439996251,2.0,1.0,phase_1,,,,,,,,,,,,,white,flipped triangle
319.0,2.0,1.0,0.0,3.0,3.0,300.0319969996781,2.0,1.0,phase_1,,,,,,,,,,,,,blue,square
675.0,7.0,2.0,1.0,2.0,2.0,271.2952219999351,2.0,1.0,phase_1,,,,,,,,,,,,,green,triangle
181.0,1.0,0.5,0.0,1.0,1.0,382.6837339997837,2.0,1.0,phase_1,,,,,,,,,,,,,cyan,I
1315.0,8.0,4.0,1.0,1.0,1.0,382.8037580001364,2.0,1.0,phase_1,,,,,,,,,,,,,magenta,hexagon
319.0,6.0,1.0,1.0,4.0,4.0,318.0280870001297,2.0,1.0,phase_1,,,,,,,,,,,,,gray,circle
643.0,7.0,2.0,1.0,2.0,2.0,326.8903009998212,2.0,1.0,phase_1,,,,,,,,,,,,,green,triangle
343.0,2.0,1.0,0.0,2.0,2.0,326.7207189996952,2.0,2.0,phase_1,,,,,,,,,,,,,blue,square
309.0,6.0,1.0,1.0,2.0,2.0,281.4489130000766,2.0,1.0,phase_1,,,,,,,,,,,,,gray,circle
302.0,2.0,1.0,0.0,1.0,1.0,310.0930919999882,2.0,1.0,phase_1,,,,,,,,,,,,,blue,square
301.0,6.0,1.0,1.0,1.0,1.0,309.2948150001575,2.0,1.0,phase_1,,,,,,,,,,,,,gray,circle
1293.0,8.0,4.0,1.0,3.0,3.0,355.511419999857,2.0,1.0,phase_1,,,,,,,,,,,,,magenta,hexagon
0.0,5.0,0.0,1.0,2.0,2.0,365.2678510002261,2.0,1.0,phase_1,,,,,,,,,,,,,white,flipped triangle
159.0,5.0,0.5,1.0,4.0,4.0,261.5750430004482,2.0,1.0,phase_1,,,,,,,,,,,,,white,flipped triangle
159.0,1.0,0.5,0.0,4.0,4.0,366.3991109997369,2.0,1.0,phase_1,,,,,,,,,,,,,cyan,I
173.0,5.0,0.5,1.0,4.0,4.0,318.3492230000411,2.0,1.0,phase_1,,,,,,,,,,,,,white,flipped triangle
0.0,6.0,0.0,1.0,4.0,4.0,308.585887999925,2.0,1.0,phase_1,,,,,,,,,,,,,gray,circle
1316.0,8.0,4.0,1.0,1.0,1.0,403.9123940001445,2.0,2.0,phase_1,,,,,,,,,,,,,magenta,hexagon
138.0,1.0,0.5,0.0,1.0,1.0,354.9337059998834,2.0,1.0,phase_1,,,,,,,,,,,,,cyan,I
163.0,5.0,0.5,1.0,2.0,2.0,279.5786890001182,2.0,1.0,phase_1,,,,,,,,,,,,,white,flipped triangle
142.0,5.0,0.5,1.0,4.0,4.0,335.670983,2.0,1.0,phase_1,,,,,,,,,,,,,white,flipped triangle
641.0,7.0,2.0,1.0,3.0,3.0,354.3495859998984,2.0,1.0,phase_1,,,,,,,,,,,,,green,triangle
312.0,2.0,1.0,0.0,2.0,2.0,344.8080029997982,2.0,1.0,phase_1,,,,,,,,,,,,,blue,square
650.0,7.0,2.0,1.0,3.0,3.0,308.3414709999488,2.0,1.0,phase_1,,,,,,,,,,,,,green,triangle
0.0,3.0,0.0,0.0,2.0,2.0,401.6206659998715,2.0,1.0,phase_1,,,,,,,,,,,,,orange,cross
183.0,1.0,0.5,0.0,4.0,4.0,309.397440000339,2.0,1.0,phase_1,,,,,,,,,,,,,cyan,I
325.0,6.0,1.0,1.0,4.0,4.0,316.4375989999826,2.0,1.0,phase_1,,,,,,,,,,,,,gray,circle
184.0,1.0,0.5,0.0,1.0,1.0,364.3246639999233,2.0,1.0,phase_1,,,,,,,,,,,,,cyan,I
0.0,1.0,0.0,0.0,4.0,4.0,308.3378579999589,2.0,1.0,phase_1,,,,,,,,,,,,,cyan,I
332.0,6.0,1.0,1.0,1.0,1.0,327.3301839999476,3.0,1.0,phase_1,,,,,,,,,,,,,gray,circle
0.0,7.0,0.0,1.0,2.0,2.0,281.0918010000023,3.0,1.0,phase_1,,,,,,,,,,,,,green,triangle
0.0,3.0,0.0,0.0,3.0,3.0,317.5666130000536,3.0,1.0,phase_1,,,,,,,,,,,,,orange,cross
639.0,3.0,2.0,0.0,3.0,3.0,336.1735260000387,3.0,1.0,phase_1,,,,,,,,,,,,,orange,cross
0.0,3.0,0.0,0.0,3.0,3.0,326.9641570000203,3.0,1.0,phase_1,,,,,,,,,,,,,orange,cross
339.0,2.0,1.0,0.0,4.0,4.0,289.8623420001058,3.0,1.0,phase_1,,,,,,,,,,,,,blue,square
315.0,2.0,1.0,0.0,1.0,1.0,439.316553000026,3.0,2.0,phase_1,,,,,,,,,,,,,blue,square
0.0,7.0,0.0,1.0,4.0,4.0,447.2714170001381,3.0,1.0,phase_1,,,,,,,,,,,,,green,triangle
665.0,7.0,2.0,1.0,1.0,1.0,374.2415279998567,3.0,1.0,phase_1,,,,,,,,,,,,,green,triangle
644.0,7.0,2.0,1.0,1.0,1.0,391.4088709998395,3.0,1.0,phase_1,,,,,,,,,,,,,green,triangle
159.0,1.0,0.5,0.0,4.0,4.0,419.0015730000596,3.0,1.0,phase_1,,,,,,,,,,,,,cyan,I
1314.0,8.0,4.0,1.0,2.0,2.0,326.2904049997814,3.0,1.0,phase_1,,,,,,,,,,,,,magenta,hexagon
1288.0,8.0,4.0,1.0,4.0,4.0,382.2991459996956,3.0,1.0,phase_1,,,,,,,,,,,,,magenta,hexagon
0.0,2.0,0.0,0.0,1.0,1.0,391.6078530000959,3.0,1.0,phase_1,,,,,,,,,,,,,blue,square
177.0,5.0,0.5,1.0,4.0,4.0,335.84128599977697,3.0,1.0,phase_1,,,,,,,,,,,,,white,flipped triangle
336.0,2.0,1.0,0.0,4.0,4.0,290.2387809999709,3.0,1.0,phase_1,,,,,,,,,,,,,blue,square
152.0,5.0,0.5,1.0,3.0,3.0,299.542988000212,3.0,1.0,phase_1,,,,,,,,,,,,,white,flipped triangle
643.0,3.0,2.0,0.0,2.0,2.0,401.0433160001412,3.0,2.0,phase_1,,,,,,,,,,,,,orange,cross
137.0,1.0,0.5,0.0,1.0,1.0,365.3886389997751,3.0,1.0,phase_1,,,,,,,,,,,,,cyan,I
349.0,2.0,1.0,0.0,3.0,3.0,336.5838730001087,3.0,1.0,phase_1,,,,,,,,,,,,,blue,square
0.0,4.0,0.0,0.0,2.0,2.0,318.1575899998279,3.0,1.0,phase_1,,,,,,,,,,,,,yellow,diamond
648.0,3.0,2.0,0.0,2.0,2.0,375.5648749997817,3.0,1.0,phase_1,,,,,,,,,,,,,orange,cross
323.0,6.0,1.0,1.0,3.0,3.0,365.6926250000651,3.0,1.0,phase_1,,,,,,,,,,,,,gray,circle
1316.0,8.0,4.0,1.0,3.0,3.0,326.8993399997271,3.0,1.0,phase_1,,,,,,,,,,,,,magenta,hexagon
0.0,3.0,0.0,0.0,4.0,4.0,345.6243259997791,3.0,1.0,phase_1,,,,,,,,,,,,,orange,cross
0.0,6.0,0.0,1.0,3.0,3.0,290.9799629996996,3.0,1.0,phase_1,,,,,,,,,,,,,gray,circle
176.0,1.0,0.5,0.0,2.0,2.0,385.0637660002576,3.0,1.0,phase_1,,,,,,,,,,,,,cyan,I
670.0,7.0,2.0,1.0,1.0,1.0,401.4477629998509,3.0,1.0,phase_1,,,,,,,,,,,,,green,triangle
163.0,1.0,0.5,0.0,3.0,3.0,319.7219260000565,3.0,1.0,phase_1,,,,,,,,,,,,,cyan,I
0.0,5.0,0.0,1.0,4.0,4.0,302.5947790001737,3.0,2.0,phase_1,,,,,,,,,,,,,white,flipped triangle
653.0,7.0,2.0,1.0,2.0,2.0,309.8329650001687,3.0,1.0,phase_1,,,,,,,,,,,,,green,triangle
175.0,5.0,0.5,1.0,1.0,1.0,274.2165209997438,3.0,1.0,phase_1,,,,,,,,,,,,,white,flipped triangle
326.0,2.0,1.0,0.0,4.0,4.0,336.6210149997641,3.0,1.0,phase_1,,,,,,,,,,,,,blue,square
1324.0,4.0,4.0,0.0,3.0,3.0,262.9845260003094,3.0,1.0,phase_1,,,,,,,,,,,,,yellow,diamond
0.0,1.0,0.0,0.0,4.0,4.0,308.9272330003041,3.0,1.0,phase_1,,,,,,,,,,,,,cyan,I
0.0,1.0,0.0,0.0,1.0,1.0,382.6096510001662,3.0,1.0,phase_1,,,,,,,,,,,,,cyan,I
631.0,7.0,2.0,1.0,4.0,4.0,271.5045820000341,3.0,1.0,phase_1,,,,,,,,,,,,,green,triangle
302.0,6.0,1.0,1.0,4.0,4.0,328.7375630002316,3.0,1.0,phase_1,,,,,,,,,,,,,gray,circle
0.0,8.0,0.0,1.0,2.0,2.0,326.8905119998635,3.0,1.0,phase_1,,,,,,,,,,,,,magenta,hexagon
667.0,7.0,2.0,1.0,2.0,2.0,289.5822739997129,3.0,2.0,phase_1,,,,,,,,,,,,,green,triangle
0.0,1.0,0.0,0.0,2.0,2.0,317.9122350002217,3.0,1.0,phase_1,,,,,,,,,,,,,cyan,I
1285.0,4.0,4.0,0.0,3.0,3.0,306.324012999994,3.0,1.0,phase_1,,,,,,,,,,,,,yellow,diamond
1287.0,4.0,4.0,0.0,2.0,2.0,382.8947769998194,3.0,1.0,phase_1,,,,,,,,,,,,,yellow,diamond
1315.0,8.0,4.0,1.0,1.0,1.0,354.2737809998471,3.0,2.0,phase_1,,,,,,,,,,,,,magenta,hexagon
148.0,5.0,0.5,1.0,1.0,1.0,429.8542949995863,3.0,1.0,phase_1,,,,,,,,,,,,,white,flipped triangle
313.0,2.0,1.0,0.0,1.0,1.0,299.046958999952,3.0,1.0,phase_1,,,,,,,,,,,,,blue,square
626.0,7.0,2.0,1.0,2.0,2.0,355.6913310003438,3.0,1.0,phase_1,,,,,,,,,,,,,green,triangle
350.0,2.0,1.0,0.0,3.0,3.0,261.5816600000471,3.0,1.0,phase_1,,,,,,,,,,,,,blue,square
1285.0,8.0,4.0,1.0,2.0,2.0,383.5747339999216,3.0,1.0,phase_1,,,,,,,,,,,,,magenta,hexagon
156.0,1.0,0.5,0.0,2.0,2.0,336.5021879999403,3.0,1.0,phase_1,,,,,,,,,,,,,cyan,I
659.0,7.0,2.0,1.0,1.0,1.0,289.2160230003355,3.0,2.0,phase_1,,,,,,,,,,,,,green,triangle
660.0,3.0,2.0,0.0,1.0,1.0,271.9807950002177,3.0,2.0,phase_1,,,,,,,,,,,,,orange,cross
317.0,6.0,1.0,1.0,1.0,1.0,307.7597420001439,3.0,1.0,phase_1,,,,,,,,,,,,,gray,circle
0.0,5.0,0.0,1.0,2.0,2.0,327.2601030002988,3.0,1.0,phase_1,,,,,,,,,,,,,white,flipped triangle
324.0,2.0,1.0,0.0,2.0,2.0,318.2861830000547,3.0,1.0,phase_1,,,,,,,,,,,,,blue,square
327.0,6.0,1.0,1.0,3.0,3.0,281.52832700016,3.0,1.0,phase_1,,,,,,,,,,,,,gray,circle
0.0,8.0,0.0,1.0,1.0,1.0,300.0736919998417,3.0,2.0,phase_1,,,,,,,,,,,,,magenta,hexagon
139.0,5.0,0.5,1.0,4.0,4.0,421.3681870000982,3.0,1.0,phase_1,,,,,,,,,,,,,white,flipped triangle
1300.0,4.0,4.0,0.0,1.0,1.0,290.5950800000028,3.0,1.0,phase_1,,,,,,,,,,,,,yellow,diamond
0.0,2.0,0.0,0.0,2.0,2.0,345.8321779999096,3.0,1.0,phase_1,,,,,,,,,,,,,blue,square
1288.0,4.0,4.0,0.0,3.0,3.0,318.2802289998108,3.0,1.0,phase_1,,,,,,,,,,,,,yellow,diamond
1325.0,4.0,4.0,0.0,2.0,2.0,317.1160289998624,3.0,1.0,phase_1,,,,,,,,,,,,,yellow,diamond
626.0,7.0,2.0,1.0,1.0,1.0,364.4701550001628,3.0,2.0,phase_1,,,,,,,,,,,,,green,triangle
651.0,3.0,2.0,0.0,2.0,2.0,346.5998500000751,3.0,2.0,phase_1,,,,,,,,,,,,,orange,cross
171.0,1.0,0.5,0.0,1.0,1.0,364.2726490002133,3.0,1.0,phase_1,,,,,,,,,,,,,cyan,I
143.0,5.0,0.5,1.0,4.0,4.0,364.7371940000994,3.0,1.0,phase_1,,,,,,,,,,,,,white,flipped triangle
178.0,1.0,0.5,0.0,2.0,2.0,402.3426829999152,3.0,1.0,phase_1,,,,,,,,,,,,,cyan,I
344.0,2.0,1.0,0.0,1.0,1.0,289.5117899997785,3.0,1.0,phase_1,,,,,,,,,,,,,blue,square
651.0,7.0,2.0,1.0,3.0,3.0,326.5535929999714,3.0,1.0,phase_1,,,,,,,,,,,,,green,triangle
324.0,2.0,1.0,0.0,4.0,4.0,345.798774999821,3.0,1.0,phase_1,,,,,,,,,,,,,blue,square
0.0,5.0,0.0,1.0,1.0,1.0,439.1783870000836,3.0,1.0,phase_1,,,,,,,,,,,,,white,flipped triangle
0.0,7.0,0.0,1.0,1.0,1.0,346.3387440001497,3.0,1.0,phase_1,,,,,,,,,,,,,green,triangle
337.0,6.0,1.0,1.0,3.0,3.0,382.9085480001595,3.0,1.0,phase_1,,,,,,,,,,,,,gray,circle
165.0,1.0,0.5,0.0,4.0,4.0,326.3694029997168,3.0,1.0,phase_1,,,,,,,,,,,,,cyan,I
672.0,7.0,2.0,1.0,1.0,1.0,354.35013899996187,3.0,1.0,phase_1,,,,,,,,,,,,,green,triangle
338.0,2.0,1.0,0.0,3.0,3.0,318.7578600000051,3.0,1.0,phase_1,,,,,,,,,,,,,blue,square
150.0,1.0,0.5,0.0,4.0,4.0,373.393015000147,3.0,1.0,phase_1,,,,,,,,,,,,,cyan,I
0.0,8.0,0.0,1.0,3.0,3.0,391.455789000247,3.0,1.0,phase_1,,,,,,,,,,,,,magenta,hexagon
138.0,5.0,0.5,1.0,3.0,3.0,300.3561579998859,3.0,1.0,phase_1,,,,,,,,,,,,,white,flipped triangle
648.0,7.0,2.0,1.0,3.0,3.0,289.7656919999463,3.0,1.0,phase_1,,,,,,,,,,,,,green,triangle
175.0,1.0,0.5,0.0,2.0,2.0,290.5305589997624,3.0,1.0,phase_1,,,,,,,,,,,,,cyan,I
0.0,4.0,0.0,0.0,3.0,3.0,290.6751450000229,3.0,1.0,phase_1,,,,,,,,,,,,,yellow,diamond
1315.0,4.0,4.0,0.0,1.0,1.0,290.2609789998678,3.0,1.0,phase_1,,,,,,,,,,,,,yellow,diamond
0.0,4.0,0.0,0.0,4.0,4.0,252.92926000020088,3.0,1.0,phase_1,,,,,,,,,,,,,yellow,diamond
0.0,6.0,0.0,1.0,3.0,3.0,326.9189520001418,3.0,2.0,phase_1,,,,,,,,,,,,,gray,circle
1280.0,4.0,4.0,0.0,1.0,1.0,318.377615999907,3.0,1.0,phase_1,,,,,,,,,,,,,yellow,diamond
672.0,3.0,2.0,0.0,4.0,4.0,308.1839660003425,3.0,2.0,phase_1,,,,,,,,,,,,,orange,cross
0.0,4.0,0.0,0.0,4.0,4.0,392.3747700000604,3.0,1.0,phase_1,,,,,,,,,,,,,yellow,diamond
350.0,6.0,1.0,1.0,1.0,1.0,382.2902259998955,3.0,1.0,phase_1,,,,,,,,,,,,,gray,circle
1279.0,8.0,4.0,1.0,3.0,3.0,336.078413999985,3.0,1.0,phase_1,,,,,,,,,,,,,magenta,hexagon
654.0,3.0,2.0,0.0,1.0,1.0,373.9558500001294,3.0,1.0,phase_1,,,,,,,,,,,,,orange,cross
337.0,2.0,1.0,0.0,3.0,3.0,307.9568010002731,3.0,1.0,phase_1,,,,,,,,,,,,,blue,square
0.0,4.0,0.0,0.0,4.0,4.0,335.7417580000401,3.0,1.0,phase_1,,,,,,,,,,,,,yellow,diamond
325.0,2.0,1.0,0.0,2.0,2.0,289.865639999789,3.0,1.0,phase_1,,,,,,,,,,,,,blue,square
1297.0,4.0,4.0,0.0,1.0,1.0,262.3425450001377,3.0,1.0,phase_1,,,,,,,,,,,,,yellow,diamond
310.0,6.0,1.0,1.0,3.0,3.0,318.0487519998678,3.0,1.0,phase_1,,,,,,,,,,,,,gray,circle
659.0,3.0,2.0,0.0,1.0,1.0,280.4002130001208,3.0,1.0,phase_1,,,,,,,,,,,,,orange,cross
165.0,5.0,0.5,1.0,4.0,4.0,326.5564100001938,3.0,1.0,phase_1,,,,,,,,,,,,,white,flipped triangle
0.0,1.0,0.0,0.0,4.0,4.0,364.1361239997422,3.0,1.0,phase_1,,,,,,,,,,,,,cyan,I
340.0,6.0,1.0,1.0,2.0,2.0,326.6030199997658,3.0,1.0,phase_1,,,,,,,,,,,,,gray,circle
651.0,7.0,2.0,1.0,1.0,1.0,299.0974370000003,4.0,1.0,phase_1,,,,,,,,,,,,,green,triangle
0.0,2.0,0.0,0.0,3.0,3.0,327.9219569999441,4.0,1.0,phase_1,,,,,,,,,,,,,blue,square
0.0,8.0,0.0,1.0,1.0,1.0,383.5945830001037,4.0,1.0,phase_1,,,,,,,,,,,,,magenta,hexagon
324.0,6.0,1.0,1.0,4.0,4.0,363.7822829996366,4.0,3.0,phase_1,,,,,,,,,,,,,gray,circle
309.0,2.0,1.0,0.0,4.0,4.0,316.6802339997048,4.0,1.0,phase_1,,,,,,,,,,,,,blue,square
179.0,1.0,0.5,0.0,3.0,3.0,317.4857789999805,4.0,1.0,phase_1,,,,,,,,,,,,,cyan,I
1294.0,4.0,4.0,0.0,4.0,4.0,261.3185479999629,4.0,1.0,phase_1,,,,,,,,,,,,,yellow,diamond
1293.0,4.0,4.0,0.0,4.0,4.0,308.2639979998021,4.0,1.0,phase_1,,,,,,,,,,,,,yellow,diamond
647.0,7.0,2.0,1.0,1.0,1.0,325.7220720001896,4.0,1.0,phase_1,,,,,,,,,,,,,green,triangle
1295.0,4.0,4.0,0.0,3.0,3.0,317.800797000018,4.0,1.0,phase_1,,,,,,,,,,,,,yellow,diamond
1305.0,4.0,4.0,0.0,2.0,2.0,290.3755779998391,4.0,1.0,phase_1,,,,,,,,,,,,,yellow,diamond
654.0,7.0,2.0,1.0,3.0,3.0,318.4398799999144,4.0,1.0,phase_1,,,,,,,,,,,,,green,triangle
638.0,3.0,2.0,0.0,4.0,4.0,290.1263719995768,4.0,1.0,phase_1,,,,,,,,,,,,,orange,cross
0.0,6.0,0.0,1.0,4.0,4.0,299.3533099997876,4.0,1.0,phase_1,,,,,,,,,,,,,gray,circle
185.0,5.0,0.5,1.0,3.0,3.0,327.3197939997772,4.0,1.0,phase_1,,,,,,,,,,,,,white,flipped triangle
140.0,1.0,0.5,0.0,3.0,3.0,307.5678150003114,4.0,1.0,phase_1,,,,,,,,,,,,,cyan,I
308.0,2.0,1.0,0.0,1.0,1.0,448.4939799999665,4.0,1.0,phase_1,,,,,,,,,,,,,blue,square
327.0,2.0,1.0,0.0,3.0,3.0,326.9353769996996,4.0,1.0,phase_1,,,,,,,,,,,,,blue,square
0.0,8.0,0.0,1.0,3.0,3.0,336.3986740000655,4.0,1.0,phase_1,,,,,,,,,,,,,magenta,hexagon
647.0,7.0,2.0,1.0,3.0,3.0,251.99270399980378,4.0,1.0,phase_1,,,,,,,,,,,,,green,triangle
0.0,1.0,0.0,0.0,3.0,3.0,326.6206250000323,4.0,1.0,phase_1,,,,,,,,,,,,,cyan,I
0.0,2.0,0.0,0.0,2.0,2.0,373.0001789999733,4.0,1.0,phase_1,,,,,,,,,,,,,blue,square
329.0,6.0,1.0,1.0,3.0,3.0,307.6760849999118,4.0,1.0,phase_1,,,,,,,,,,,,,gray,circle
325.0,2.0,1.0,0.0,3.0,3.0,317.1698510000169,4.0,1.0,phase_1,,,,,,,,,,,,,blue,square
668.0,3.0,2.0,0.0,3.0,3.0,335.7335939999757,4.0,1.0,phase_1,,,,,,,,,,,,,orange,cross
324.0,6.0,1.0,1.0,2.0,2.0,418.3645260000048,4.0,1.0,phase_1,,,,,,,,,,,,,gray,circle
176.0,5.0,0.5,1.0,1.0,1.0,363.4398949998285,4.0,1.0,phase_1,,,,,,,,,,,,,white,flipped triangle
171.0,1.0,0.5,0.0,2.0,2.0,409.7062619998723,4.0,1.0,phase_1,,,,,,,,,,,,,cyan,I
339.0,6.0,1.0,1.0,4.0,4.0,345.0905390000116,4.0,1.0,phase_1,,,,,,,,,,,,,gray,circle
0.0,7.0,0.0,1.0,2.0,2.0,308.035954999923,4.0,1.0,phase_1,,,,,,,,,,,,,green,triangle
159.0,5.0,0.5,1.0,4.0,4.0,363.7213120000524,4.0,1.0,phase_1,,,,,,,,,,,,,white,flipped triangle
326.0,6.0,1.0,1.0,1.0,1.0,354.0579320001598,4.0,1.0,phase_1,,,,,,,,,,,,,gray,circle
675.0,3.0,2.0,0.0,2.0,2.0,362.6561880000736,4.0,2.0,phase_1,,,,,,,,,,,,,orange,cross
648.0,3.0,2.0,0.0,2.0,2.0,363.7901319998491,4.0,1.0,phase_1,,,,,,,,,,,,,orange,cross
647.0,3.0,2.0,0.0,4.0,4.0,364.3513070001063,4.0,1.0,phase_1,,,,,,,,,,,,,orange,cross
668.0,7.0,2.0,1.0,2.0,2.0,297.1633729998757,4.0,1.0,phase_1,,,,,,,,,,,,,green,triangle
157.0,5.0,0.5,1.0,2.0,2.0,288.0531129999326,4.0,1.0,phase_1,,,,,,,,,,,,,white,flipped triangle
1280.0,8.0,4.0,1.0,4.0,4.0,335.7055880001098,4.0,1.0,phase_1,,,,,,,,,,,,,magenta,hexagon
1322.0,8.0,4.0,1.0,1.0,1.0,345.3872609998143,4.0,1.0,phase_1,,,,,,,,,,,,,magenta,hexagon
308.0,6.0,1.0,1.0,3.0,3.0,363.9015379999364,4.0,1.0,phase_1,,,,,,,,,,,,,gray,circle
653.0,3.0,2.0,0.0,4.0,4.0,429.3777499997304,4.0,1.0,phase_1,,,,,,,,,,,,,orange,cross
1309.0,4.0,4.0,0.0,1.0,1.0,346.3153839998085,4.0,1.0,phase_1,,,,,,,,,,,,,yellow,diamond
326.0,2.0,1.0,0.0,1.0,1.0,344.937616000152,4.0,1.0,phase_1,,,,,,,,,,,,,blue,square
179.0,1.0,0.5,0.0,4.0,4.0,374.5412660000511,4.0,1.0,phase_1,,,,,,,,,,,,,cyan,I
154.0,5.0,0.5,1.0,3.0,3.0,374.775168999804,4.0,1.0,phase_1,,,,,,,,,,,,,white,flipped triangle
1324.0,4.0,4.0,0.0,2.0,2.0,308.568465999997,4.0,1.0,phase_1,,,,,,,,,,,,,yellow,diamond
1324.0,8.0,4.0,1.0,2.0,2.0,325.9070260000953,4.0,1.0,phase_1,,,,,,,,,,,,,magenta,hexagon
663.0,3.0,2.0,0.0,1.0,1.0,337.1726499999568,4.0,1.0,phase_1,,,,,,,,,,,,,orange,cross
185.0,1.0,0.5,0.0,1.0,1.0,300.3670749999401,4.0,1.0,phase_1,,,,,,,,,,,,,cyan,I
309.0,2.0,1.0,0.0,1.0,1.0,326.3863079996554,4.0,1.0,phase_1,,,,,,,,,,,,,blue,square
152.0,1.0,0.5,0.0,1.0,1.0,392.4005420003595,4.0,1.0,phase_1,,,,,,,,,,,,,cyan,I
1293.0,4.0,4.0,0.0,4.0,4.0,280.278812999768,4.0,1.0,phase_1,,,,,,,,,,,,,yellow,diamond
1292.0,8.0,4.0,1.0,1.0,1.0,309.6412699997017,4.0,1.0,phase_1,,,,,,,,,,,,,magenta,hexagon
172.0,1.0,0.5,0.0,4.0,4.0,391.8166190001102,4.0,1.0,phase_1,,,,,,,,,,,,,cyan,I
0.0,7.0,0.0,1.0,3.0,3.0,337.5836340001115,4.0,1.0,phase_1,,,,,,,,,,,,,green,triangle
1315.0,4.0,4.0,0.0,3.0,3.0,271.3900489998195,4.0,1.0,phase_1,,,,,,,,,,,,,yellow,diamond
156.0,5.0,0.5,1.0,3.0,3.0,335.9237699996811,4.0,1.0,phase_1,,,,,,,,,,,,,white,flipped triangle
660.0,7.0,2.0,1.0,3.0,3.0,336.4416630001869,4.0,1.0,phase_1,,,,,,,,,,,,,green,triangle
343.0,6.0,1.0,1.0,1.0,1.0,393.7049290002505,4.0,1.0,phase_1,,,,,,,,,,,,,gray,circle
670.0,3.0,2.0,0.0,4.0,4.0,346.7215629998463,4.0,1.0,phase_1,,,,,,,,,,,,,orange,cross
654.0,7.0,2.0,1.0,2.0,2.0,347.9367130003084,4.0,1.0,phase_1,,,,,,,,,,,,,green,triangle
327.0,6.0,1.0,1.0,2.0,2.0,385.89741600026167,4.0,1.0,phase_1,,,,,,,,,,,,,gray,circle
319.0,6.0,1.0,1.0,2.0,2.0,326.4824480002062,4.0,1.0,phase_1,,,,,,,,,,,,,gray,circle
648.0,7.0,2.0,1.0,2.0,2.0,335.4224250001607,4.0,1.0,phase_1,,,,,,,,,,,,,green,triangle
1295.0,8.0,4.0,1.0,1.0,1.0,327.1178750001127,4.0,1.0,phase_1,,,,,,,,,,,,,magenta,hexagon
329.0,2.0,1.0,0.0,4.0,4.0,317.0797369998581,4.0,1.0,phase_1,,,,,,,,,,,,,blue,square
1286.0,4.0,4.0,0.0,4.0,4.0,335.5174759999499,4.0,1.0,phase_1,,,,,,,,,,,,,yellow,diamond
137.0,5.0,0.5,1.0,3.0,3.0,475.2564720001828,4.0,1.0,phase_1,,,,,,,,,,,,,white,flipped triangle
1293.0,8.0,4.0,1.0,2.0,2.0,309.4682450000618,4.0,1.0,phase_1,,,,,,,,,,,,,magenta,hexagon
338.0,6.0,1.0,1.0,4.0,4.0,337.7468189996762,4.0,1.0,phase_1,,,,,,,,,,,,,gray,circle
157.0,1.0,0.5,0.0,4.0,4.0,335.3955049997239,4.0,1.0,phase_1,,,,,,,,,,,,,cyan,I
654.0,3.0,2.0,0.0,1.0,1.0,364.8259199999302,4.0,2.0,phase_1,,,,,,,,,,,,,orange,cross
0.0,5.0,0.0,1.0,3.0,3.0,458.9070010001705,4.0,1.0,phase_1,,,,,,,,,,,,,white,flipped triangle
650.0,3.0,2.0,0.0,1.0,1.0,423.2856389999142,4.0,1.0,phase_1,,,,,,,,,,,,,orange,cross
0.0,5.0,0.0,1.0,3.0,3.0,365.8772300000237,4.0,1.0,phase_1,,,,,,,,,,,,,white,flipped triangle
631.0,3.0,2.0,0.0,3.0,3.0,367.5282889998925,4.0,1.0,phase_1,,,,,,,,,,,,,orange,cross
0.0,7.0,0.0,1.0,3.0,3.0,321.0049690001142,4.0,1.0,phase_1,,,,,,,,,,,,,green,triangle
1288.0,4.0,4.0,0.0,2.0,2.0,536.0456570001588,4.0,1.0,phase_1,,,,,,,,,,,,,yellow,diamond
0.0,1.0,0.0,0.0,4.0,4.0,448.0177280001953,4.0,2.0,phase_1,,,,,,,,,,,,,cyan,I
183.0,5.0,0.5,1.0,1.0,1.0,400.5813150001813,4.0,1.0,phase_1,,,,,,,,,,,,,white,flipped triangle
0.0,1.0,0.0,0.0,2.0,2.0,403.0059269998673,4.0,1.0,phase_1,,,,,,,,,,,,,cyan,I
169.0,5.0,0.5,1.0,1.0,1.0,411.0417699998834,4.0,1.0,phase_1,,,,,,,,,,,,,white,flipped triangle
334.0,2.0,1.0,0.0,2.0,2.0,319.2394180000519,4.0,1.0,phase_1,,,,,,,,,,,,,blue,square
635.0,7.0,2.0,1.0,4.0,4.0,327.6624610002727,4.0,1.0,phase_1,,,,,,,,,,,,,green,triangle
315.0,6.0,1.0,1.0,4.0,4.0,391.35886500025657,4.0,1.0,phase_1,,,,,,,,,,,,,gray,circle
0.0,4.0,0.0,0.0,4.0,4.0,354.7011549999297,4.0,1.0,phase_1,,,,,,,,,,,,,yellow,diamond
142.0,1.0,0.5,0.0,1.0,1.0,400.8932629999435,4.0,1.0,phase_1,,,,,,,,,,,,,cyan,I
0.0,8.0,0.0,1.0,1.0,1.0,475.9886949996144,4.0,1.0,phase_1,,,,,,,,,,,,,magenta,hexagon
641.0,3.0,2.0,0.0,2.0,2.0,327.5040460002856,4.0,1.0,phase_1,,,,,,,,,,,,,orange,cross
154.0,1.0,0.5,0.0,3.0,3.0,503.288332000011,4.0,1.0,phase_1,,,,,,,,,,,,,cyan,I
0.0,4.0,0.0,0.0,4.0,4.0,336.6633539999384,4.0,1.0,phase_1,,,,,,,,,,,,,yellow,diamond
179.0,5.0,0.5,1.0,3.0,3.0,359.8233849997996,4.0,1.0,phase_1,,,,,,,,,,,,,white,flipped triangle
141.0,1.0,0.5,0.0,3.0,3.0,366.3325130000885,4.0,1.0,phase_1,,,,,,,,,,,,,cyan,I
1285.0,4.0,4.0,0.0,3.0,3.0,327.4158339995665,4.0,1.0,phase_1,,,,,,,,,,,,,yellow,diamond
648.0,3.0,2.0,0.0,1.0,1.0,373.861173000023,4.0,1.0,phase_1,,,,,,,,,,,,,orange,cross
0.0,4.0,0.0,0.0,3.0,3.0,317.3100929998327,4.0,1.0,phase_1,,,,,,,,,,,,,yellow,diamond
0.0,2.0,0.0,0.0,3.0,3.0,354.4179740001709,4.0,1.0,phase_1,,,,,,,,,,,,,blue,square
0.0,8.0,0.0,1.0,2.0,2.0,299.2937070002881,4.0,1.0,phase_1,,,,,,,,,,,,,magenta,hexagon
0.0,7.0,0.0,1.0,3.0,3.0,356.2696710000637,4.0,1.0,phase_1,,,,,,,,,,,,,green,triangle
0.0,2.0,0.0,0.0,3.0,3.0,327.535025999623,4.0,1.0,phase_1,,,,,,,,,,,,,blue,square
0.0,2.0,1.0,0.0,5.0,5.0,309.8089029999755,1.0,1.0,phase_2,go,250.0,250.0,1.0,,,,,,,,,blue,square
0.0,2.0,1.0,0.0,6.0,6.0,327.3076370001035,1.0,1.0,phase_2,go,250.0,250.0,1.0,,,,,,,,,blue,square
0.0,7.0,2.0,1.0,5.0,0.0,0.0,1.0,1.0,phase_2,stop,250.0,250.0,4.0,,,,,,,,,green,triangle
0.0,6.0,1.0,1.0,6.0,6.0,301.136434,1.0,1.0,phase_2,stop,300.0,250.0,3.0,,,,,,,,,gray,circle
0.0,5.0,0.5,1.0,5.0,5.0,365.0907659998665,1.0,1.0,phase_2,stop,300.0,200.0,3.0,,,,,,,,,white,flipped triangle
0.0,2.0,1.0,0.0,5.0,5.0,442.0941280000079,1.0,1.0,phase_2,go,250.0,200.0,1.0,,,,,,,,,blue,square
0.0,5.0,0.5,1.0,5.0,5.0,619.6430879999753,1.0,1.0,phase_2,go,250.0,200.0,1.0,,,,,,,,,white,flipped triangle
0.0,2.0,1.0,0.0,5.0,5.0,477.7932189999774,1.0,1.0,phase_2,go,250.0,200.0,1.0,,,,,,,,,blue,square
0.0,5.0,0.5,1.0,5.0,0.0,0.0,1.0,1.0,phase_2,stop,250.0,200.0,4.0,,,,,,,,,white,flipped triangle
0.0,5.0,0.5,1.0,6.0,0.0,0.0,1.0,1.0,phase_2,stop,300.0,200.0,4.0,,,,,,,,,white,flipped triangle
0.0,5.0,0.5,1.0,5.0,0.0,0.0,1.0,1.0,phase_2,stop,300.0,250.0,4.0,,,,,,,,,white,flipped triangle
0.0,8.0,4.0,1.0,6.0,6.0,553.4172719999333,1.0,1.0,phase_2,go,350.0,250.0,1.0,,,,,,,,,magenta,hexagon
0.0,7.0,2.0,1.0,5.0,5.0,552.5531389998832,1.0,1.0,phase_2,go,350.0,250.0,1.0,,,,,,,,,green,triangle
0.0,7.0,2.0,1.0,6.0,6.0,721.0648880000008,1.0,1.0,phase_2,go,350.0,250.0,1.0,,,,,,,,,green,triangle
0.0,6.0,1.0,1.0,6.0,0.0,0.0,1.0,1.0,phase_2,stop,350.0,250.0,4.0,,,,,,,,,gray,circle
0.0,6.0,1.0,1.0,5.0,5.0,583.2614480000302,1.0,1.0,phase_2,go,350.0,300.0,1.0,,,,,,,,,gray,circle
0.0,3.0,2.0,0.0,5.0,5.0,636.9247409998025,1.0,1.0,phase_2,go,350.0,300.0,1.0,,,,,,,,,orange,cross
0.0,4.0,4.0,0.0,6.0,6.0,523.3551659998739,1.0,1.0,phase_2,go,350.0,300.0,1.0,,,,,,,,,yellow,diamond
0.0,6.0,1.0,1.0,6.0,0.0,0.0,1.0,1.0,phase_2,stop,350.0,300.0,4.0,,,,,,,,,gray,circle
0.0,6.0,1.0,1.0,5.0,0.0,0.0,1.0,1.0,phase_2,stop,350.0,350.0,4.0,,,,,,,,,gray,circle
0.0,3.0,2.0,0.0,5.0,5.0,525.7769240001835,1.0,1.0,phase_2,go,400.0,350.0,1.0,,,,,,,,,orange,cross
0.0,8.0,4.0,1.0,5.0,0.0,0.0,1.0,1.0,phase_2,stop,400.0,350.0,4.0,,,,,,,,,magenta,hexagon
0.0,3.0,2.0,0.0,5.0,5.0,620.6951180001852,1.0,1.0,phase_2,go,450.0,350.0,1.0,,,,,,,,,orange,cross
0.0,8.0,4.0,1.0,6.0,0.0,0.0,1.0,1.0,phase_2,stop,450.0,350.0,4.0,,,,,,,,,magenta,hexagon
0.0,3.0,2.0,0.0,6.0,6.0,667.095184000118,1.0,1.0,phase_2,go,450.0,400.0,1.0,,,,,,,,,orange,cross
0.0,6.0,1.0,1.0,5.0,0.0,0.0,1.0,1.0,phase_2,stop,450.0,400.0,4.0,,,,,,,,,gray,circle
0.0,1.0,0.5,0.0,6.0,6.0,764.694932999646,1.0,1.0,phase_2,go,500.0,400.0,1.0,,,,,,,,,cyan,I
0.0,6.0,1.0,1.0,5.0,5.0,614.3471650002539,1.0,1.0,phase_2,stop,500.0,400.0,3.0,,,,,,,,,gray,circle
0.0,8.0,4.0,1.0,6.0,0.0,0.0,1.0,1.0,phase_2,stop,450.0,400.0,4.0,,,,,,,,,magenta,hexagon
0.0,5.0,0.5,1.0,6.0,0.0,0.0,1.0,1.0,phase_2,stop,450.0,450.0,4.0,,,,,,,,,white,flipped triangle
0.0,4.0,4.0,0.0,6.0,6.0,686.59247100004,1.0,1.0,phase_2,go,450.0,500.0,1.0,,,,,,,,,yellow,diamond
0.0,2.0,1.0,0.0,6.0,6.0,789.3122979999134,1.0,1.0,phase_2,go,450.0,500.0,1.0,,,,,,,,,blue,square
0.0,3.0,2.0,0.0,6.0,6.0,827.478494999923,1.0,1.0,phase_2,go,450.0,500.0,1.0,,,,,,,,,orange,cross
0.0,1.0,0.5,0.0,6.0,6.0,976.0033180000393,1.0,1.0,phase_2,go,450.0,500.0,1.0,,,,,,,,,cyan,I
0.0,6.0,1.0,1.0,6.0,6.0,616.1172729998725,1.0,1.0,phase_2,stop,450.0,500.0,3.0,,,,,,,,,gray,circle
0.0,4.0,4.0,0.0,6.0,6.0,756.2421479997283,1.0,1.0,phase_2,go,450.0,450.0,1.0,,,,,,,,,yellow,diamond
0.0,7.0,2.0,1.0,5.0,5.0,386.0909700001684,2.0,1.0,phase_2,stop,450.0,450.0,3.0,,,,,,,,,green,triangle
0.0,8.0,4.0,1.0,6.0,6.0,431.9720700000289,2.0,1.0,phase_2,go,400.0,450.0,1.0,,,,,,,,,magenta,hexagon
0.0,1.0,0.5,0.0,6.0,6.0,470.8024540000224,2.0,1.0,phase_2,go,400.0,450.0,1.0,,,,,,,,,cyan,I
0.0,6.0,1.0,1.0,5.0,5.0,489.8365909998574,2.0,1.0,phase_2,stop,400.0,450.0,3.0,,,,,,,,,gray,circle
0.0,1.0,0.5,0.0,5.0,5.0,534.8788779997449,2.0,1.0,phase_2,go,350.0,450.0,1.0,,,,,,,,,cyan,I
0.0,4.0,4.0,0.0,5.0,5.0,573.6739620001572,2.0,1.0,phase_2,go,350.0,450.0,1.0,,,,,,,,,yellow,diamond
0.0,2.0,1.0,0.0,6.0,6.0,647.4544339998829,2.0,1.0,phase_2,go,350.0,450.0,1.0,,,,,,,,,blue,square
0.0,8.0,4.0,1.0,5.0,5.0,591.0341819999303,2.0,1.0,phase_2,go,350.0,450.0,1.0,,,,,,,,,magenta,hexagon
0.0,8.0,4.0,1.0,5.0,0.0,0.0,2.0,1.0,phase_2,stop,350.0,450.0,4.0,,,,,,,,,magenta,hexagon
0.0,8.0,4.0,1.0,5.0,0.0,0.0,2.0,1.0,phase_2,stop,400.0,450.0,4.0,,,,,,,,,magenta,hexagon
0.0,3.0,2.0,0.0,6.0,6.0,393.3695329997135,2.0,1.0,phase_2,go,450.0,450.0,1.0,,,,,,,,,orange,cross
0.0,7.0,2.0,1.0,5.0,5.0,570.1680339998347,2.0,1.0,phase_2,stop,450.0,450.0,3.0,,,,,,,,,green,triangle
0.0,8.0,4.0,1.0,6.0,0.0,0.0,2.0,1.0,phase_2,stop,400.0,450.0,4.0,,,,,,,,,magenta,hexagon
0.0,1.0,0.5,0.0,5.0,5.0,599.6994170000107,2.0,1.0,phase_2,go,400.0,500.0,1.0,,,,,,,,,cyan,I
0.0,4.0,4.0,0.0,5.0,5.0,486.7880449996846,2.0,1.0,phase_2,go,400.0,500.0,1.0,,,,,,,,,yellow,diamond
0.0,8.0,4.0,1.0,6.0,6.0,357.9973099999733,2.0,1.0,phase_2,stop,400.0,500.0,3.0,,,,,,,,,magenta,hexagon
0.0,5.0,0.5,1.0,6.0,6.0,502.5072100002035,2.0,1.0,phase_2,stop,400.0,450.0,3.0,,,,,,,,,white,flipped triangle
0.0,5.0,0.5,1.0,5.0,0.0,0.0,2.0,1.0,phase_2,stop,400.0,400.0,4.0,,,,,,,,,white,flipped triangle
0.0,6.0,1.0,1.0,6.0,6.0,638.7027189998662,2.0,1.0,phase_2,go,450.0,400.0,1.0,,,,,,,,,gray,circle
0.0,1.0,0.5,0.0,6.0,6.0,665.2844370000821,2.0,1.0,phase_2,go,450.0,400.0,1.0,,,,,,,,,cyan,I
0.0,2.0,1.0,0.0,6.0,6.0,374.958726999921,2.0,1.0,phase_2,go,450.0,400.0,1.0,,,,,,,,,blue,square
0.0,6.0,1.0,1.0,6.0,0.0,0.0,2.0,1.0,phase_2,stop,450.0,400.0,4.0,,,,,,,,,gray,circle
0.0,7.0,2.0,1.0,5.0,0.0,0.0,2.0,1.0,phase_2,stop,450.0,450.0,4.0,,,,,,,,,green,triangle
0.0,1.0,0.5,0.0,6.0,6.0,693.2489430000714,2.0,1.0,phase_2,go,500.0,450.0,1.0,,,,,,,,,cyan,I
0.0,3.0,2.0,0.0,6.0,6.0,851.9627700002275,2.0,1.0,phase_2,go,500.0,450.0,1.0,,,,,,,,,orange,cross
0.0,8.0,4.0,1.0,6.0,6.0,508.359061000192,2.0,1.0,phase_2,stop,500.0,450.0,3.0,,,,,,,,,magenta,hexagon
0.0,7.0,2.0,1.0,5.0,5.0,675.0429339999755,2.0,1.0,phase_2,go,500.0,400.0,1.0,,,,,,,,,green,triangle
0.0,4.0,4.0,0.0,6.0,6.0,440.9723220001069,2.0,1.0,phase_2,go,500.0,400.0,1.0,,,,,,,,,yellow,diamond
0.0,3.0,2.0,0.0,6.0,6.0,507.04348299996127,2.0,1.0,phase_2,go,500.0,400.0,1.0,,,,,,,,,orange,cross
0.0,3.0,2.0,0.0,5.0,5.0,498.2754540001224,2.0,1.0,phase_2,go,500.0,400.0,1.0,,,,,,,,,orange,cross
0.0,6.0,1.0,1.0,5.0,5.0,562.0496389997243,2.0,1.0,phase_2,stop,500.0,400.0,3.0,,,,,,,,,gray,circle
0.0,8.0,4.0,1.0,5.0,5.0,761.5900109999529,2.0,1.0,phase_2,go,450.0,400.0,1.0,,,,,,,,,magenta,hexagon
0.0,2.0,1.0,0.0,6.0,6.0,731.3030810000782,2.0,1.0,phase_2,go,450.0,400.0,1.0,,,,,,,,,blue,square
0.0,3.0,2.0,0.0,6.0,6.0,562.9278599999452,2.0,1.0,phase_2,go,450.0,400.0,1.0,,,,,,,,,orange,cross
0.0,4.0,4.0,0.0,5.0,5.0,685.8724509997955,2.0,1.0,phase_2,go,450.0,400.0,1.0,,,,,,,,,yellow,diamond
0.0,3.0,2.0,0.0,6.0,6.0,412.9881990002104,2.0,1.0,phase_2,go,450.0,400.0,1.0,,,,,,,,,orange,cross
0.0,7.0,2.0,1.0,6.0,6.0,504.0586249997432,3.0,1.0,phase_2,stop,450.0,400.0,3.0,,,,,,,,,green,triangle
0.0,1.0,0.5,0.0,6.0,6.0,507.00923399972453,3.0,1.0,phase_2,go,450.0,350.0,1.0,,,,,,,,,cyan,I
0.0,8.0,4.0,1.0,5.0,0.0,0.0,3.0,1.0,phase_2,stop,450.0,350.0,4.0,,,,,,,,,magenta,hexagon
0.0,4.0,4.0,0.0,5.0,5.0,487.4540810001235,3.0,1.0,phase_2,go,500.0,350.0,1.0,,,,,,,,,yellow,diamond
0.0,2.0,1.0,0.0,6.0,6.0,385.3913539996938,3.0,1.0,phase_2,go,500.0,350.0,1.0,,,,,,,,,blue,square
0.0,5.0,0.5,1.0,6.0,6.0,521.1810589999004,3.0,1.0,phase_2,stop,500.0,350.0,3.0,,,,,,,,,white,flipped triangle
0.0,8.0,4.0,1.0,6.0,6.0,580.3025529999104,3.0,1.0,phase_2,go,500.0,300.0,1.0,,,,,,,,,magenta,hexagon
0.0,8.0,4.0,1.0,6.0,6.0,387.4865119996684,3.0,1.0,phase_2,stop,500.0,300.0,3.0,,,,,,,,,magenta,hexagon
0.0,7.0,2.0,1.0,6.0,0.0,0.0,3.0,1.0,phase_2,stop,500.0,250.0,4.0,,,,,,,,,green,triangle
0.0,7.0,2.0,1.0,5.0,0.0,0.0,3.0,1.0,phase_2,stop,500.0,300.0,4.0,,,,,,,,,green,triangle
0.0,6.0,1.0,1.0,6.0,6.0,722.4939089996951,3.0,1.0,phase_2,go,550.0,300.0,1.0,,,,,,,,,gray,circle
0.0,3.0,2.0,0.0,5.0,5.0,543.9304229998925,3.0,1.0,phase_2,go,550.0,300.0,1.0,,,,,,,,,orange,cross
0.0,3.0,2.0,0.0,5.0,5.0,552.6221750001241,3.0,1.0,phase_2,go,550.0,300.0,1.0,,,,,,,,,orange,cross
0.0,5.0,0.5,1.0,6.0,0.0,0.0,3.0,1.0,phase_2,stop,550.0,300.0,4.0,,,,,,,,,white,flipped triangle
0.0,1.0,0.5,0.0,5.0,5.0,460.3565269999308,3.0,1.0,phase_2,go,550.0,350.0,1.0,,,,,,,,,cyan,I
0.0,1.0,0.5,0.0,5.0,5.0,402.8135730000031,3.0,1.0,phase_2,go,550.0,350.0,1.0,,,,,,,,,cyan,I
0.0,8.0,4.0,1.0,6.0,0.0,0.0,3.0,1.0,phase_2,stop,550.0,350.0,4.0,,,,,,,,,magenta,hexagon
0.0,3.0,2.0,0.0,5.0,5.0,423.5401159999128,3.0,1.0,phase_2,go,550.0,400.0,1.0,,,,,,,,,orange,cross
0.0,2.0,1.0,0.0,6.0,6.0,403.3895640000082,3.0,1.0,phase_2,go,550.0,400.0,1.0,,,,,,,,,blue,square
0.0,5.0,0.5,1.0,6.0,0.0,0.0,3.0,1.0,phase_2,stop,550.0,400.0,4.0,,,,,,,,,white,flipped triangle
0.0,4.0,4.0,0.0,6.0,6.0,835.046766999767,3.0,1.0,phase_2,go,550.0,450.0,1.0,,,,,,,,,yellow,diamond
0.0,7.0,2.0,1.0,5.0,5.0,655.9990430000653,3.0,1.0,phase_2,go,550.0,450.0,1.0,,,,,,,,,green,triangle
0.0,2.0,1.0,0.0,6.0,6.0,508.08343800008515,3.0,1.0,phase_2,go,550.0,450.0,1.0,,,,,,,,,blue,square
0.0,4.0,4.0,0.0,5.0,5.0,404.2784279999978,3.0,1.0,phase_2,go,550.0,450.0,1.0,,,,,,,,,yellow,diamond
0.0,1.0,0.5,0.0,5.0,5.0,460.2203970002847,3.0,1.0,phase_2,go,550.0,450.0,1.0,,,,,,,,,cyan,I
0.0,7.0,2.0,1.0,6.0,6.0,433.2198110000718,3.0,1.0,phase_2,stop,550.0,450.0,3.0,,,,,,,,,green,triangle
0.0,4.0,4.0,0.0,6.0,6.0,497.6467020001109,3.0,1.0,phase_2,go,550.0,400.0,1.0,,,,,,,,,yellow,diamond
0.0,5.0,0.5,1.0,5.0,0.0,0.0,3.0,1.0,phase_2,stop,550.0,400.0,4.0,,,,,,,,,white,flipped triangle
0.0,8.0,4.0,1.0,5.0,5.0,552.3152020000452,3.0,1.0,phase_2,stop,600.0,400.0,3.0,,,,,,,,,magenta,hexagon
0.0,6.0,1.0,1.0,5.0,5.0,480.762290000257,3.0,1.0,phase_2,go,550.0,400.0,1.0,,,,,,,,,gray,circle
0.0,3.0,2.0,0.0,5.0,5.0,526.4838859998235,3.0,1.0,phase_2,go,550.0,400.0,1.0,,,,,,,,,orange,cross
0.0,8.0,4.0,1.0,5.0,5.0,1210.3551609998249,3.0,1.0,phase_2,go,550.0,400.0,1.0,,,,,,,,,magenta,hexagon
0.0,1.0,0.5,0.0,6.0,6.0,374.9078900000313,3.0,1.0,phase_2,go,550.0,400.0,1.0,,,,,,,,,cyan,I
0.0,6.0,1.0,1.0,5.0,5.0,506.6986199999519,3.0,1.0,phase_2,stop,550.0,400.0,3.0,,,,,,,,,gray,circle
0.0,8.0,4.0,1.0,5.0,5.0,564.4673520000651,3.0,1.0,phase_2,stop,500.0,400.0,3.0,,,,,,,,,magenta,hexagon
0.0,1.0,0.5,0.0,6.0,6.0,450.8175529999789,3.0,1.0,phase_2,go,450.0,400.0,1.0,,,,,,,,,cyan,I
0.0,8.0,4.0,1.0,6.0,0.0,0.0,4.0,1.0,phase_2,stop,450.0,400.0,4.0,,,,,,,,,magenta,hexagon
0.0,8.0,4.0,1.0,6.0,6.0,492.131425000025,4.0,1.0,phase_2,stop,450.0,450.0,3.0,,,,,,,,,magenta,hexagon
0.0,7.0,2.0,1.0,6.0,6.0,452.5265330003094,4.0,1.0,phase_2,go,450.0,400.0,1.0,,,,,,,,,green,triangle
0.0,2.0,1.0,0.0,6.0,6.0,402.8091830000448,4.0,1.0,phase_2,go,450.0,400.0,1.0,,,,,,,,,blue,square
0.0,8.0,4.0,1.0,6.0,0.0,0.0,4.0,1.0,phase_2,stop,450.0,400.0,4.0,,,,,,,,,magenta,hexagon
0.0,4.0,4.0,0.0,6.0,6.0,601.0392509997473,4.0,1.0,phase_2,go,450.0,450.0,1.0,,,,,,,,,yellow,diamond
0.0,4.0,4.0,0.0,6.0,6.0,357.1354099999553,4.0,1.0,phase_2,go,450.0,450.0,1.0,,,,,,,,,yellow,diamond
0.0,7.0,2.0,1.0,6.0,6.0,329.3253000001641,4.0,1.0,phase_2,stop,450.0,450.0,3.0,,,,,,,,,green,triangle
0.0,3.0,2.0,0.0,6.0,6.0,507.7759089999745,4.0,1.0,phase_2,go,450.0,400.0,1.0,,,,,,,,,orange,cross
0.0,4.0,4.0,0.0,5.0,5.0,421.7925620000642,4.0,1.0,phase_2,go,450.0,400.0,1.0,,,,,,,,,yellow,diamond
0.0,3.0,2.0,0.0,6.0,6.0,451.0466960000485,4.0,1.0,phase_2,go,450.0,400.0,1.0,,,,,,,,,orange,cross
0.0,5.0,0.5,1.0,5.0,0.0,0.0,4.0,1.0,phase_2,stop,450.0,400.0,4.0,,,,,,,,,white,flipped triangle
0.0,1.0,0.5,0.0,6.0,6.0,404.2359800000668,4.0,1.0,phase_2,go,500.0,400.0,1.0,,,,,,,,,cyan,I
0.0,5.0,0.5,1.0,5.0,5.0,734.014458999809,4.0,1.0,phase_2,go,500.0,400.0,1.0,,,,,,,,,white,flipped triangle
0.0,3.0,2.0,0.0,6.0,6.0,352.7837409997119,4.0,1.0,phase_2,go,500.0,400.0,1.0,,,,,,,,,orange,cross
0.0,3.0,2.0,0.0,6.0,6.0,403.9027839999107,4.0,1.0,phase_2,go,500.0,400.0,1.0,,,,,,,,,orange,cross
0.0,6.0,1.0,1.0,6.0,0.0,0.0,4.0,1.0,phase_2,stop,500.0,400.0,4.0,,,,,,,,,gray,circle
0.0,6.0,1.0,1.0,6.0,0.0,0.0,4.0,1.0,phase_2,stop,500.0,450.0,4.0,,,,,,,,,gray,circle
0.0,4.0,4.0,0.0,6.0,6.0,497.4164640002527,4.0,1.0,phase_2,go,500.0,500.0,1.0,,,,,,,,,yellow,diamond
0.0,5.0,0.5,1.0,5.0,5.0,831.4869790001467,4.0,1.0,phase_2,go,500.0,500.0,1.0,,,,,,,,,white,flipped triangle
0.0,3.0,2.0,0.0,6.0,6.0,367.9300119997606,4.0,1.0,phase_2,go,500.0,500.0,1.0,,,,,,,,,orange,cross
0.0,1.0,0.5,0.0,6.0,6.0,366.0620020000351,4.0,1.0,phase_2,go,500.0,500.0,1.0,,,,,,,,,cyan,I
0.0,7.0,2.0,1.0,5.0,5.0,469.6372680000422,4.0,1.0,phase_2,stop,500.0,500.0,3.0,,,,,,,,,green,triangle
0.0,3.0,2.0,0.0,6.0,6.0,426.3884900001358,4.0,1.0,phase_2,go,450.0,500.0,1.0,,,,,,,,,orange,cross
0.0,1.0,0.5,0.0,5.0,5.0,414.5907769998302,4.0,1.0,phase_2,go,450.0,500.0,1.0,,,,,,,,,cyan,I
0.0,6.0,1.0,1.0,6.0,0.0,0.0,4.0,1.0,phase_2,stop,450.0,500.0,4.0,,,,,,,,,gray,circle
0.0,2.0,1.0,0.0,5.0,5.0,366.6274820006947,4.0,1.0,phase_2,go,450.0,550.0,1.0,,,,,,,,,blue,square
0.0,4.0,4.0,0.0,5.0,5.0,490.2494870002556,4.0,1.0,phase_2,go,450.0,550.0,1.0,,,,,,,,,yellow,diamond
0.0,2.0,1.0,0.0,5.0,5.0,387.4373389999164,4.0,1.0,phase_2,go,450.0,550.0,1.0,,,,,,,,,blue,square
0.0,5.0,0.5,1.0,5.0,5.0,1067.767343000014,4.0,1.0,phase_2,go,450.0,550.0,1.0,,,,,,,,,white,flipped triangle
0.0,5.0,0.5,1.0,6.0,5.0,716.0295439998663,4.0,1.0,phase_2,go,450.0,550.0,2.0,,,,,,,,,white,flipped triangle
0.0,3.0,2.0,0.0,5.0,5.0,461.6490110001905,4.0,1.0,phase_2,go,450.0,550.0,1.0,,,,,,,,,orange,cross
0.0,2.0,1.0,0.0,5.0,5.0,395.3841379998266,4.0,1.0,phase_2,go,450.0,550.0,1.0,,,,,,,,,blue,square
0.0,7.0,2.0,1.0,5.0,5.0,1171.454103000542,4.0,1.0,phase_2,go,450.0,550.0,1.0,,,,,,,,,green,triangle
0.0,4.0,4.0,0.0,5.0,5.0,451.6694379999535,4.0,1.0,phase_2,go,450.0,550.0,1.0,,,,,,,,,yellow,diamond
0.0,8.0,4.0,1.0,6.0,6.0,695.9029720001126,4.0,1.0,phase_2,stop,450.0,550.0,3.0,,,,,,,,,magenta,hexagon
0.0,7.0,2.0,1.0,5.0,0.0,0.0,5.0,1.0,phase_2,stop,450.0,500.0,4.0,,,,,,,,,green,triangle
0.0,6.0,1.0,1.0,5.0,0.0,0.0,5.0,1.0,phase_2,stop,500.0,500.0,4.0,,,,,,,,,gray,circle
0.0,3.0,2.0,0.0,6.0,6.0,482.4098910003158,5.0,1.0,phase_2,go,550.0,500.0,1.0,,,,,,,,,orange,cross
0.0,4.0,4.0,0.0,6.0,6.0,556.713463000051,5.0,1.0,phase_2,go,550.0,500.0,1.0,,,,,,,,,yellow,diamond
0.0,6.0,1.0,1.0,5.0,0.0,0.0,5.0,1.0,phase_2,stop,550.0,500.0,4.0,,,,,,,,,gray,circle
0.0,8.0,4.0,1.0,6.0,0.0,0.0,5.0,1.0,phase_2,stop,600.0,500.0,4.0,,,,,,,,,magenta,hexagon
0.0,4.0,4.0,0.0,5.0,5.0,442.5192239996249,5.0,1.0,phase_2,go,600.0,550.0,1.0,,,,,,,,,yellow,diamond
0.0,6.0,1.0,1.0,6.0,6.0,897.339453999848,5.0,1.0,phase_2,go,600.0,550.0,1.0,,,,,,,,,gray,circle
0.0,8.0,4.0,1.0,5.0,0.0,0.0,5.0,1.0,phase_2,stop,600.0,550.0,4.0,,,,,,,,,magenta,hexagon
0.0,3.0,2.0,0.0,5.0,5.0,385.9976069998083,5.0,1.0,phase_2,go,650.0,550.0,1.0,,,,,,,,,orange,cross
0.0,6.0,1.0,1.0,5.0,5.0,705.7886519996828,5.0,1.0,phase_2,go,650.0,550.0,1.0,,,,,,,,,gray,circle
0.0,1.0,0.5,0.0,5.0,5.0,386.3956360000884,5.0,1.0,phase_2,go,650.0,550.0,1.0,,,,,,,,,cyan,I
0.0,4.0,4.0,0.0,6.0,6.0,565.1755079998111,5.0,1.0,phase_2,go,650.0,550.0,1.0,,,,,,,,,yellow,diamond
0.0,3.0,2.0,0.0,5.0,5.0,331.2867590002497,5.0,1.0,phase_2,go,650.0,550.0,1.0,,,,,,,,,orange,cross
0.0,3.0,2.0,0.0,5.0,5.0,359.3324579996988,5.0,1.0,phase_2,go,650.0,550.0,1.0,,,,,,,,,orange,cross
0.0,7.0,2.0,1.0,5.0,5.0,633.7646230003884,5.0,1.0,phase_2,stop,650.0,550.0,3.0,,,,,,,,,green,triangle
0.0,4.0,4.0,0.0,5.0,5.0,397.0727700007046,5.0,1.0,phase_2,go,600.0,550.0,1.0,,,,,,,,,yellow,diamond
0.0,3.0,2.0,0.0,5.0,5.0,378.4941590001835,5.0,1.0,phase_2,go,600.0,550.0,1.0,,,,,,,,,orange,cross
0.0,7.0,2.0,1.0,5.0,5.0,720.2457489993321,5.0,1.0,phase_2,stop,600.0,550.0,3.0,,,,,,,,,green,triangle
0.0,4.0,4.0,0.0,5.0,5.0,481.9923989998642,5.0,1.0,phase_2,go,550.0,550.0,1.0,,,,,,,,,yellow,diamond
0.0,6.0,1.0,1.0,6.0,6.0,818.6309289994824,5.0,1.0,phase_2,go,550.0,550.0,1.0,,,,,,,,,gray,circle
0.0,4.0,4.0,0.0,6.0,6.0,432.7207189999171,5.0,1.0,phase_2,go,550.0,550.0,1.0,,,,,,,,,yellow,diamond
0.0,5.0,0.5,1.0,6.0,0.0,0.0,5.0,1.0,phase_2,stop,550.0,550.0,4.0,,,,,,,,,white,flipped triangle
0.0,5.0,0.5,1.0,6.0,0.0,0.0,5.0,1.0,phase_2,stop,550.0,600.0,4.0,,,,,,,,,white,flipped triangle
0.0,2.0,1.0,0.0,5.0,5.0,368.756989000758,5.0,1.0,phase_2,go,550.0,650.0,1.0,,,,,,,,,blue,square
0.0,7.0,2.0,1.0,6.0,0.0,0.0,5.0,1.0,phase_2,stop,550.0,650.0,4.0,,,,,,,,,green,triangle
0.0,1.0,0.5,0.0,5.0,5.0,415.3560559998368,5.0,1.0,phase_2,go,550.0,700.0,1.0,,,,,,,,,cyan,I
0.0,7.0,2.0,1.0,5.0,5.0,664.2151900005047,5.0,1.0,phase_2,stop,550.0,700.0,3.0,,,,,,,,,green,triangle
0.0,4.0,4.0,0.0,6.0,6.0,622.137410000505,5.0,1.0,phase_2,go,500.0,700.0,1.0,,,,,,,,,yellow,diamond
0.0,5.0,0.5,1.0,5.0,0.0,0.0,5.0,1.0,phase_2,stop,500.0,700.0,4.0,,,,,,,,,white,flipped triangle
0.0,7.0,2.0,1.0,6.0,0.0,0.0,5.0,1.0,phase_2,stop,550.0,700.0,4.0,,,,,,,,,green,triangle
0.0,1.0,0.5,0.0,5.0,5.0,415.1116049997654,5.0,1.0,phase_2,go,550.0,750.0,1.0,,,,,,,,,cyan,I
0.0,1.0,0.5,0.0,5.0,5.0,361.2075860000914,5.0,1.0,phase_2,go,550.0,750.0,1.0,,,,,,,,,cyan,I
0.0,7.0,2.0,1.0,5.0,5.0,330.2441589994487,5.0,1.0,phase_2,go,550.0,750.0,1.0,,,,,,,,,green,triangle
0.0,8.0,4.0,1.0,5.0,0.0,0.0,5.0,1.0,phase_2,stop,550.0,750.0,4.0,,,,,,,,,magenta,hexagon
0.0,6.0,1.0,1.0,6.0,6.0,889.9316389997693,5.0,1.0,phase_2,stop,600.0,750.0,3.0,,,,,,,,,gray,circle
0.0,2.0,1.0,0.0,5.0,5.0,424.2187360005118,6.0,1.0,phase_2,go,600.0,700.0,1.0,,,,,,,,,blue,square
0.0,5.0,0.5,1.0,5.0,5.0,684.2470720002893,6.0,1.0,phase_2,stop,600.0,700.0,3.0,,,,,,,,,white,flipped triangle
0.0,5.0,0.5,1.0,5.0,0.0,0.0,6.0,1.0,phase_2,stop,550.0,700.0,4.0,,,,,,,,,white,flipped triangle
0.0,7.0,2.0,1.0,6.0,0.0,0.0,6.0,1.0,phase_2,stop,600.0,700.0,4.0,,,,,,,,,green,triangle
0.0,1.0,0.5,0.0,5.0,5.0,403.4026680001261,6.0,1.0,phase_2,go,600.0,750.0,1.0,,,,,,,,,cyan,I
0.0,6.0,1.0,1.0,6.0,0.0,0.0,6.0,1.0,phase_2,stop,600.0,750.0,4.0,,,,,,,,,gray,circle
0.0,1.0,0.5,0.0,5.0,5.0,403.1113839992031,6.0,1.0,phase_2,go,600.0,800.0,1.0,,,,,,,,,cyan,I
0.0,6.0,1.0,1.0,5.0,5.0,357.7013559997795,6.0,1.0,phase_2,stop,600.0,800.0,3.0,,,,,,,,,gray,circle
0.0,6.0,1.0,1.0,5.0,5.0,1149.250917000245,6.0,1.0,phase_2,go,550.0,800.0,1.0,,,,,,,,,gray,circle
0.0,2.0,1.0,0.0,5.0,5.0,367.8375399995275,6.0,1.0,phase_2,go,550.0,800.0,1.0,,,,,,,,,blue,square
0.0,6.0,1.0,1.0,5.0,0.0,0.0,6.0,1.0,phase_2,stop,550.0,800.0,4.0,,,,,,,,,gray,circle
0.0,5.0,0.5,1.0,5.0,0.0,0.0,6.0,1.0,phase_2,stop,600.0,800.0,4.0,,,,,,,,,white,flipped triangle
0.0,4.0,4.0,0.0,6.0,6.0,330.9928119997494,6.0,1.0,phase_2,go,650.0,800.0,1.0,,,,,,,,,yellow,diamond
0.0,5.0,0.5,1.0,6.0,0.0,0.0,6.0,1.0,phase_2,stop,650.0,800.0,4.0,,,,,,,,,white,flipped triangle
0.0,1.0,0.5,0.0,6.0,6.0,339.4149920004565,6.0,1.0,phase_2,go,650.0,850.0,1.0,,,,,,,,,cyan,I
0.0,2.0,1.0,0.0,5.0,5.0,292.2317500006102,6.0,1.0,phase_2,go,650.0,850.0,1.0,,,,,,,,,blue,square
0.0,6.0,1.0,1.0,6.0,6.0,1026.830635000806,6.0,1.0,phase_2,stop,650.0,850.0,3.0,,,,,,,,,gray,circle
0.0,5.0,0.5,1.0,5.0,5.0,1079.4917539997186,6.0,1.0,phase_2,go,650.0,800.0,1.0,,,,,,,,,white,flipped triangle
0.0,2.0,1.0,0.0,6.0,6.0,356.2304649994985,6.0,1.0,phase_2,go,650.0,800.0,1.0,,,,,,,,,blue,square
0.0,4.0,4.0,0.0,5.0,5.0,300.166363000244,6.0,1.0,phase_2,go,650.0,800.0,1.0,,,,,,,,,yellow,diamond
0.0,3.0,2.0,0.0,6.0,6.0,319.4038499996168,6.0,1.0,phase_2,go,650.0,800.0,1.0,,,,,,,,,orange,cross
0.0,7.0,2.0,1.0,5.0,0.0,0.0,6.0,1.0,phase_2,stop,650.0,800.0,4.0,,,,,,,,,green,triangle
0.0,2.0,1.0,0.0,5.0,5.0,395.0789640002767,6.0,1.0,phase_2,go,700.0,800.0,1.0,,,,,,,,,blue,square
0.0,1.0,0.5,0.0,5.0,5.0,367.4194800005352,6.0,1.0,phase_2,go,700.0,800.0,1.0,,,,,,,,,cyan,I
0.0,5.0,0.5,1.0,6.0,0.0,0.0,6.0,1.0,phase_2,stop,700.0,800.0,4.0,,,,,,,,,white,flipped triangle
0.0,5.0,0.5,1.0,6.0,6.0,1119.5381269999416,6.0,1.0,phase_2,go,700.0,850.0,1.0,,,,,,,,,white,flipped triangle
0.0,4.0,4.0,0.0,5.0,5.0,470.2936759995282,6.0,1.0,phase_2,go,700.0,850.0,1.0,,,,,,,,,yellow,diamond
0.0,7.0,2.0,1.0,6.0,6.0,357.2608050008057,6.0,1.0,phase_2,stop,700.0,850.0,3.0,,,,,,,,,green,triangle
0.0,3.0,2.0,0.0,5.0,5.0,300.8661670000947,6.0,1.0,phase_2,go,700.0,800.0,1.0,,,,,,,,,orange,cross
0.0,8.0,4.0,1.0,6.0,0.0,0.0,6.0,1.0,phase_2,stop,700.0,800.0,4.0,,,,,,,,,magenta,hexagon
0.0,1.0,0.5,0.0,6.0,6.0,460.6799789999058,6.0,1.0,phase_2,go,700.0,850.0,1.0,,,,,,,,,cyan,I
0.0,3.0,2.0,0.0,6.0,6.0,432.2972729996763,6.0,1.0,phase_2,go,700.0,850.0,1.0,,,,,,,,,orange,cross
0.0,7.0,2.0,1.0,6.0,0.0,0.0,6.0,1.0,phase_2,stop,700.0,850.0,4.0,,,,,,,,,green,triangle
0.0,2.0,1.0,0.0,6.0,6.0,434.4073709999065,6.0,1.0,phase_2,go,700.0,900.0,1.0,,,,,,,,,blue,square
0.0,1.0,0.5,0.0,6.0,6.0,443.3270500003345,6.0,1.0,phase_2,go,700.0,900.0,1.0,,,,,,,,,cyan,I
0.0,7.0,2.0,1.0,6.0,0.0,0.0,6.0,1.0,phase_2,stop,700.0,900.0,4.0,,,,,,,,,green,triangle
0.0,7.0,2.0,1.0,6.0,0.0,0.0,7.0,1.0,phase_2,stop,700.0,950.0,4.0,,,,,,,,,green,triangle
0.0,3.0,2.0,0.0,5.0,5.0,425.4745950001961,7.0,1.0,phase_2,go,700.0,1000.0,1.0,,,,,,,,,orange,cross
0.0,5.0,0.5,1.0,6.0,0.0,0.0,7.0,1.0,phase_2,stop,700.0,1000.0,4.0,,,,,,,,,white,flipped triangle
0.0,7.0,2.0,1.0,6.0,6.0,490.9196730004623,7.0,1.0,phase_2,stop,700.0,1050.0,3.0,,,,,,,,,green,triangle
0.0,8.0,4.0,1.0,5.0,5.0,359.137928000564,7.0,1.0,phase_2,stop,700.0,1000.0,3.0,,,,,,,,,magenta,hexagon
0.0,1.0,0.5,0.0,6.0,6.0,434.0555549997589,7.0,1.0,phase_2,go,650.0,1000.0,1.0,,,,,,,,,cyan,I
0.0,4.0,4.0,0.0,6.0,6.0,350.3341790001286,7.0,1.0,phase_2,go,650.0,1000.0,1.0,,,,,,,,,yellow,diamond
0.0,6.0,1.0,1.0,6.0,0.0,0.0,7.0,1.0,phase_2,stop,650.0,1000.0,4.0,,,,,,,,,gray,circle
0.0,2.0,1.0,0.0,6.0,6.0,556.6086360004192,7.0,1.0,phase_2,go,650.0,1050.0,1.0,,,,,,,,,blue,square
0.0,7.0,2.0,1.0,5.0,0.0,0.0,7.0,1.0,phase_2,stop,650.0,1050.0,4.0,,,,,,,,,green,triangle
0.0,6.0,1.0,1.0,6.0,0.0,0.0,7.0,1.0,phase_2,stop,700.0,1050.0,4.0,,,,,,,,,gray,circle
0.0,5.0,0.5,1.0,5.0,0.0,0.0,7.0,1.0,phase_2,stop,700.0,1100.0,4.0,,,,,,,,,white,flipped triangle
0.0,3.0,2.0,0.0,5.0,5.0,404.1313360003187,7.0,1.0,phase_2,go,750.0,1100.0,1.0,,,,,,,,,orange,cross
0.0,8.0,4.0,1.0,5.0,5.0,1265.3807590004362,7.0,1.0,phase_2,go,750.0,1100.0,1.0,,,,,,,,,magenta,hexagon
0.0,2.0,1.0,0.0,5.0,5.0,415.7659489992511,7.0,1.0,phase_2,go,750.0,1100.0,1.0,,,,,,,,,blue,square
0.0,5.0,0.5,1.0,6.0,6.0,1245.3374669994446,7.0,1.0,phase_2,go,750.0,1100.0,1.0,,,,,,,,,white,flipped triangle
0.0,1.0,0.5,0.0,6.0,6.0,519.7815849996914,7.0,1.0,phase_2,go,750.0,1100.0,1.0,,,,,,,,,cyan,I
0.0,8.0,4.0,1.0,5.0,0.0,0.0,7.0,1.0,phase_2,stop,750.0,1100.0,4.0,,,,,,,,,magenta,hexagon
0.0,5.0,0.5,1.0,6.0,6.0,1053.611192000062,7.0,1.0,phase_2,stop,800.0,1100.0,3.0,,,,,,,,,white,flipped triangle
0.0,5.0,0.5,1.0,5.0,5.0,565.3659709996646,7.0,1.0,phase_2,go,800.0,1050.0,1.0,,,,,,,,,white,flipped triangle
0.0,4.0,4.0,0.0,6.0,6.0,461.8112099997233,7.0,1.0,phase_2,go,800.0,1050.0,1.0,,,,,,,,,yellow,diamond
0.0,2.0,1.0,0.0,5.0,5.0,377.4128209997798,7.0,1.0,phase_2,go,800.0,1050.0,1.0,,,,,,,,,blue,square
0.0,8.0,4.0,1.0,6.0,6.0,1117.7031699999134,7.0,1.0,phase_2,stop,800.0,1050.0,3.0,,,,,,,,,magenta,hexagon
0.0,5.0,0.5,1.0,6.0,0.0,0.0,7.0,1.0,phase_2,stop,800.0,1000.0,4.0,,,,,,,,,white,flipped triangle
0.0,2.0,1.0,0.0,5.0,5.0,479.2452620004042,7.0,1.0,phase_2,go,800.0,1050.0,1.0,,,,,,,,,blue,square
0.0,1.0,0.5,0.0,5.0,5.0,408.1574120000368,7.0,1.0,phase_2,go,800.0,1050.0,1.0,,,,,,,,,cyan,I
0.0,8.0,4.0,1.0,6.0,0.0,0.0,7.0,1.0,phase_2,go,800.0,1050.0,5.0,,,,,,,,,magenta,hexagon
0.0,8.0,4.0,1.0,5.0,0.0,0.0,7.0,1.0,phase_2,stop,800.0,1050.0,4.0,,,,,,,,,magenta,hexagon
0.0,1.0,0.5,0.0,5.0,5.0,432.2578210003485,7.0,1.0,phase_2,go,850.0,1050.0,1.0,,,,,,,,,cyan,I
0.0,3.0,2.0,0.0,6.0,6.0,442.7269190000515,7.0,1.0,phase_2,go,850.0,1050.0,1.0,,,,,,,,,orange,cross
0.0,8.0,4.0,1.0,5.0,0.0,0.0,7.0,1.0,phase_2,stop,850.0,1050.0,4.0,,,,,,,,,magenta,hexagon
0.0,4.0,4.0,0.0,5.0,5.0,599.9776720000227,7.0,1.0,phase_2,go,900.0,1050.0,1.0,,,,,,,,,yellow,diamond
0.0,3.0,2.0,0.0,6.0,6.0,328.4777109993229,7.0,1.0,phase_2,go,900.0,1050.0,1.0,,,,,,,,,orange,cross
0.0,7.0,2.0,1.0,5.0,5.0,1127.6794420000442,7.0,1.0,phase_2,go,900.0,1050.0,1.0,,,,,,,,,green,triangle
0.0,8.0,4.0,1.0,5.0,5.0,950.9252190000552,7.0,1.0,phase_2,go,900.0,1050.0,1.0,,,,,,,,,magenta,hexagon
0.0,1.0,0.5,0.0,5.0,5.0,395.7768380005291,7.0,1.0,phase_2,go,900.0,1050.0,1.0,,,,,,,,,cyan,I
0.0,2.0,1.0,0.0,5.0,5.0,374.7978669998701,8.0,1.0,phase_2,go,900.0,1050.0,1.0,,,,,,,,,blue,square
0.0,2.0,1.0,0.0,6.0,6.0,479.799333000301,8.0,1.0,phase_2,go,900.0,1050.0,1.0,,,,,,,,,blue,square
0.0,7.0,2.0,1.0,6.0,6.0,634.6630990001358,8.0,1.0,phase_2,stop,900.0,1050.0,3.0,,,,,,,,,green,triangle
0.0,2.0,1.0,0.0,6.0,6.0,547.5554670001657,8.0,1.0,phase_2,go,900.0,1000.0,1.0,,,,,,,,,blue,square
0.0,2.0,1.0,0.0,6.0,6.0,424.3232150001859,8.0,1.0,phase_2,go,900.0,1000.0,1.0,,,,,,,,,blue,square
0.0,5.0,0.5,1.0,5.0,5.0,1057.4058100000912,8.0,1.0,phase_2,stop,900.0,1000.0,3.0,,,,,,,,,white,flipped triangle
0.0,2.0,1.0,0.0,5.0,5.0,432.164959000147,8.0,1.0,phase_2,go,850.0,1000.0,1.0,,,,,,,,,blue,square
0.0,1.0,0.5,0.0,6.0,6.0,412.563047999356,8.0,1.0,phase_2,go,850.0,1000.0,1.0,,,,,,,,,cyan,I
0.0,2.0,1.0,0.0,6.0,6.0,375.5838110000695,8.0,1.0,phase_2,go,850.0,1000.0,1.0,,,,,,,,,blue,square
0.0,6.0,1.0,1.0,5.0,5.0,340.6165070000497,8.0,1.0,phase_2,go,850.0,1000.0,1.0,,,,,,,,,gray,circle
0.0,4.0,4.0,0.0,5.0,5.0,377.6951959998769,8.0,1.0,phase_2,go,850.0,1000.0,1.0,,,,,,,,,yellow,diamond
0.0,4.0,4.0,0.0,6.0,6.0,434.6627629993236,8.0,1.0,phase_2,go,850.0,1000.0,1.0,,,,,,,,,yellow,diamond
0.0,2.0,1.0,0.0,6.0,6.0,358.3697520007263,8.0,1.0,phase_2,go,850.0,1000.0,1.0,,,,,,,,,blue,square
0.0,7.0,2.0,1.0,6.0,6.0,993.7723809998716,8.0,1.0,phase_2,stop,850.0,1000.0,3.0,,,,,,,,,green,triangle
0.0,1.0,0.5,0.0,5.0,5.0,403.4200589994725,8.0,1.0,phase_2,go,850.0,950.0,1.0,,,,,,,,,cyan,I
0.0,3.0,2.0,0.0,5.0,5.0,385.2930410002955,8.0,1.0,phase_2,go,850.0,950.0,1.0,,,,,,,,,orange,cross
0.0,5.0,0.5,1.0,6.0,6.0,1035.4095859993322,8.0,1.0,phase_2,stop,850.0,950.0,3.0,,,,,,,,,white,flipped triangle
0.0,6.0,1.0,1.0,5.0,5.0,422.5591049998911,8.0,1.0,phase_2,stop,850.0,900.0,3.0,,,,,,,,,gray,circle
0.0,2.0,1.0,0.0,5.0,5.0,375.6338450002658,8.0,1.0,phase_2,go,800.0,900.0,1.0,,,,,,,,,blue,square
0.0,1.0,0.5,0.0,6.0,6.0,413.5005220005041,8.0,1.0,phase_2,go,800.0,900.0,1.0,,,,,,,,,cyan,I
0.0,6.0,1.0,1.0,5.0,0.0,0.0,8.0,1.0,phase_2,stop,800.0,900.0,4.0,,,,,,,,,gray,circle
0.0,1.0,0.5,0.0,5.0,5.0,432.4022729997523,8.0,1.0,phase_2,go,850.0,900.0,1.0,,,,,,,,,cyan,I
0.0,8.0,4.0,1.0,5.0,0.0,0.0,8.0,1.0,phase_2,stop,850.0,900.0,4.0,,,,,,,,,magenta,hexagon
0.0,4.0,4.0,0.0,5.0,5.0,448.8622759999998,8.0,1.0,phase_2,go,900.0,900.0,1.0,,,,,,,,,yellow,diamond
0.0,6.0,1.0,1.0,6.0,0.0,0.0,8.0,1.0,phase_2,stop,900.0,900.0,4.0,,,,,,,,,gray,circle
0.0,7.0,2.0,1.0,6.0,0.0,0.0,8.0,1.0,phase_2,stop,900.0,950.0,4.0,,,,,,,,,green,triangle
0.0,4.0,4.0,0.0,5.0,5.0,497.0735529996091,8.0,1.0,phase_2,go,900.0,1000.0,1.0,,,,,,,,,yellow,diamond
0.0,4.0,4.0,0.0,6.0,6.0,505.8829150002566,8.0,1.0,phase_2,go,900.0,1000.0,1.0,,,,,,,,,yellow,diamond
0.0,1.0,0.5,0.0,6.0,6.0,411.4267389995802,8.0,1.0,phase_2,go,900.0,1000.0,1.0,,,,,,,,,cyan,I
0.0,2.0,1.0,0.0,6.0,6.0,384.6783730004972,8.0,1.0,phase_2,go,900.0,1000.0,1.0,,,,,,,,,blue,square
0.0,5.0,0.5,1.0,6.0,6.0,1051.2268730008143,8.0,1.0,phase_2,stop,900.0,1000.0,3.0,,,,,,,,,white,flipped triangle
0.0,4.0,4.0,0.0,5.0,5.0,318.6268200006452,8.0,1.0,phase_2,go,900.0,950.0,1.0,,,,,,,,,yellow,diamond
0.0,7.0,2.0,1.0,6.0,6.0,440.5219719992601,8.0,1.0,phase_2,go,900.0,950.0,1.0,,,,,,,,,green,triangle
0.0,6.0,1.0,1.0,5.0,5.0,337.4241129995425,8.0,1.0,phase_2,stop,900.0,950.0,3.0,,,,,,,,,gray,circle
0.0,3.0,2.0,0.0,5.0,5.0,479.8895220001213,8.0,1.0,phase_2,go,850.0,950.0,1.0,,,,,,,,,orange,cross
0.0,2.0,1.0,0.0,5.0,5.0,395.0790879998749,8.0,1.0,phase_2,go,850.0,950.0,1.0,,,,,,,,,blue,square
0.0,1.0,0.5,0.0,7.0,2.0,1948.544195000068,1.0,1.0,phase_3,,,,,1152.0,6.0,384.0,1152.0,768.0,192.0,960.0,576.0,cyan,I
0.0,3.0,2.0,0.0,7.0,6.0,2218.69250600048,1.0,1.0,phase_3,,,,,232.0,2.0,580.0,348.0,696.0,464.0,116.0,232.0,orange,cross
0.0,4.0,4.0,0.0,7.0,2.0,3460.347560999253,1.0,1.0,phase_3,,,,,924.0,6.0,616.0,924.0,308.0,770.0,462.0,154.0,yellow,diamond
0.0,2.0,1.0,0.0,7.0,1.0,2560.115999000118,1.0,1.0,phase_3,,,,,154.0,1.0,154.0,616.0,924.0,462.0,770.0,308.0,blue,square
0.0,5.0,0.5,1.0,7.0,2.0,1863.162552999711,1.0,1.0,phase_3,,,,,580.0,5.0,696.0,580.0,348.0,232.0,116.0,464.0,white,flipped triangle
0.0,8.0,4.0,1.0,7.0,4.0,1363.1061890000638,1.0,1.0,phase_3,,,,,580.0,5.0,464.0,696.0,116.0,580.0,348.0,232.0,magenta,hexagon
0.0,2.0,1.0,0.0,7.0,5.0,2061.40999300078,1.0,1.0,phase_3,,,,,960.0,5.0,768.0,576.0,1152.0,192.0,960.0,384.0,blue,square
0.0,1.0,0.5,0.0,7.0,2.0,3405.89321599964,1.0,1.0,phase_3,,,,,173.0,1.0,519.0,173.0,865.0,1038.0,692.0,346.0,cyan,I
0.0,5.0,0.5,1.0,7.0,3.0,3108.675571000276,1.0,1.0,phase_3,,,,,696.0,6.0,580.0,348.0,696.0,232.0,464.0,116.0,white,flipped triangle
0.0,1.0,0.5,0.0,7.0,6.0,2850.8435949997875,1.0,1.0,phase_3,,,,,135.0,1.0,810.0,270.0,540.0,405.0,675.0,135.0,cyan,I
0.0,8.0,4.0,1.0,7.0,5.0,1293.8446580001255,1.0,1.0,phase_3,,,,,770.0,5.0,616.0,924.0,154.0,308.0,770.0,462.0,magenta,hexagon
0.0,6.0,1.0,1.0,7.0,1.0,1653.0718590001925,1.0,1.0,phase_3,,,,,1152.0,6.0,1152.0,384.0,768.0,192.0,960.0,576.0,gray,circle
0.0,3.0,2.0,0.0,7.0,3.0,2972.897601999648,1.0,1.0,phase_3,,,,,270.0,2.0,540.0,810.0,270.0,405.0,675.0,135.0,orange,cross
0.0,8.0,4.0,1.0,7.0,5.0,2897.582900000089,1.0,1.0,phase_3,,,,,865.0,5.0,346.0,1038.0,173.0,692.0,865.0,519.0,magenta,hexagon
0.0,8.0,4.0,1.0,7.0,4.0,2798.183618000621,1.0,1.0,phase_3,,,,,810.0,6.0,270.0,675.0,135.0,810.0,540.0,405.0,magenta,hexagon
0.0,2.0,1.0,0.0,7.0,6.0,2302.2846399999253,1.0,1.0,phase_3,,,,,116.0,1.0,464.0,580.0,348.0,696.0,232.0,116.0,blue,square
0.0,6.0,1.0,1.0,7.0,4.0,2798.54660699948,1.0,1.0,phase_3,,,,,770.0,5.0,154.0,616.0,308.0,770.0,924.0,462.0,gray,circle
0.0,6.0,1.0,1.0,7.0,4.0,1488.8623569995616,1.0,1.0,phase_3,,,,,1038.0,6.0,519.0,865.0,346.0,1038.0,692.0,173.0,gray,circle
0.0,8.0,4.0,1.0,7.0,2.0,2466.6519239999616,1.0,1.0,phase_3,,,,,960.0,5.0,192.0,960.0,768.0,576.0,384.0,1152.0,magenta,hexagon
0.0,8.0,4.0,1.0,7.0,6.0,2156.055274999744,1.0,1.0,phase_3,,,,,692.0,4.0,173.0,865.0,519.0,1038.0,346.0,692.0,magenta,hexagon
0.0,1.0,0.5,0.0,7.0,3.0,1192.8634299993064,2.0,1.0,phase_3,,,,,232.0,2.0,464.0,696.0,232.0,580.0,348.0,116.0,cyan,I
0.0,6.0,1.0,1.0,7.0,5.0,2069.485409000663,2.0,1.0,phase_3,,,,,696.0,6.0,348.0,232.0,116.0,464.0,696.0,580.0,gray,circle
0.0,8.0,4.0,1.0,7.0,4.0,1971.2569960001929,2.0,1.0,phase_3,,,,,580.0,5.0,116.0,232.0,464.0,580.0,348.0,696.0,magenta,hexagon
0.0,1.0,0.5,0.0,7.0,1.0,1415.056705999632,2.0,1.0,phase_3,,,,,270.0,2.0,270.0,540.0,135.0,405.0,810.0,675.0,cyan,I
0.0,7.0,2.0,1.0,7.0,1.0,2060.140032000163,2.0,1.0,phase_3,,,,,405.0,3.0,405.0,540.0,810.0,270.0,675.0,135.0,green,triangle
0.0,4.0,4.0,0.0,7.0,4.0,1426.235947999885,2.0,1.0,phase_3,,,,,384.0,2.0,1152.0,960.0,576.0,384.0,768.0,192.0,yellow,diamond
0.0,5.0,0.5,1.0,7.0,4.0,2042.3522159999266,2.0,1.0,phase_3,,,,,616.0,4.0,462.0,924.0,770.0,616.0,308.0,154.0,white,flipped triangle
0.0,3.0,2.0,0.0,7.0,6.0,1381.8183749999662,2.0,1.0,phase_3,,,,,116.0,1.0,580.0,696.0,348.0,232.0,464.0,116.0,orange,cross
0.0,5.0,0.5,1.0,7.0,1.0,1564.687731000049,2.0,1.0,phase_3,,,,,810.0,6.0,810.0,675.0,135.0,270.0,405.0,540.0,white,flipped triangle
0.0,5.0,0.5,1.0,7.0,6.0,2068.212494000363,2.0,1.0,phase_3,,,,,865.0,5.0,1038.0,173.0,346.0,692.0,519.0,865.0,white,flipped triangle
0.0,4.0,4.0,0.0,7.0,3.0,1090.2658380000505,2.0,1.0,phase_3,,,,,135.0,1.0,270.0,540.0,135.0,405.0,675.0,810.0,yellow,diamond
0.0,2.0,1.0,0.0,7.0,2.0,718.3244040006684,2.0,1.0,phase_3,,,,,116.0,1.0,580.0,116.0,232.0,348.0,464.0,696.0,blue,square
0.0,3.0,2.0,0.0,7.0,3.0,896.5612279998822,2.0,1.0,phase_3,,,,,173.0,1.0,865.0,692.0,173.0,519.0,1038.0,346.0,orange,cross
0.0,5.0,0.5,1.0,7.0,4.0,1638.5477739995622,2.0,1.0,phase_3,,,,,865.0,5.0,173.0,346.0,519.0,865.0,1038.0,692.0,white,flipped triangle
0.0,7.0,2.0,1.0,7.0,6.0,1363.3620919999885,2.0,1.0,phase_3,,,,,616.0,4.0,924.0,308.0,462.0,154.0,770.0,616.0,green,triangle
0.0,6.0,1.0,1.0,7.0,3.0,717.4936119999984,2.0,1.0,phase_3,,,,,1152.0,6.0,768.0,192.0,1152.0,384.0,576.0,960.0,gray,circle
0.0,6.0,1.0,1.0,7.0,3.0,2646.244190999824,2.0,1.0,phase_3,,,,,308.0,2.0,616.0,770.0,308.0,154.0,462.0,924.0,gray,circle
0.0,1.0,0.5,0.0,7.0,1.0,1145.1322869997966,2.0,1.0,phase_3,,,,,116.0,1.0,116.0,348.0,696.0,232.0,464.0,580.0,cyan,I
0.0,6.0,1.0,1.0,7.0,5.0,1128.2373869998992,2.0,1.0,phase_3,,,,,865.0,5.0,519.0,173.0,1038.0,692.0,865.0,346.0,gray,circle
0.0,5.0,0.5,1.0,7.0,5.0,1414.2667200003416,2.0,1.0,phase_3,,,,,960.0,5.0,1152.0,768.0,384.0,576.0,960.0,192.0,white,flipped triangle
0.0,2.0,1.0,0.0,7.0,3.0,939.9107569997796,3.0,1.0,phase_3,,,,,173.0,1.0,346.0,519.0,173.0,865.0,1038.0,692.0,blue,square
0.0,7.0,2.0,1.0,7.0,4.0,782.15028699924,3.0,1.0,phase_3,,,,,576.0,3.0,192.0,768.0,960.0,576.0,1152.0,384.0,green,triangle
0.0,7.0,2.0,1.0,7.0,3.0,800.0161830004799,3.0,1.0,phase_3,,,,,1038.0,6.0,346.0,865.0,1038.0,173.0,519.0,692.0,green,triangle
0.0,3.0,2.0,0.0,7.0,5.0,1312.9099830002815,3.0,1.0,phase_3,,,,,692.0,4.0,1038.0,865.0,519.0,346.0,692.0,173.0,orange,cross
0.0,7.0,2.0,1.0,7.0,2.0,1269.8582729999544,3.0,1.0,phase_3,,,,,116.0,1.0,348.0,116.0,464.0,580.0,232.0,696.0,green,triangle
0.0,4.0,4.0,0.0,7.0,1.0,1574.3154840001807,3.0,1.0,phase_3,,,,,770.0,5.0,770.0,308.0,616.0,462.0,924.0,154.0,yellow,diamond
0.0,2.0,1.0,0.0,7.0,2.0,1081.6634390002946,3.0,1.0,phase_3,,,,,135.0,1.0,675.0,135.0,405.0,540.0,810.0,270.0,blue,square
0.0,7.0,2.0,1.0,7.0,3.0,782.7586040002643,3.0,1.0,phase_3,,,,,232.0,2.0,580.0,116.0,232.0,464.0,696.0,348.0,green,triangle
0.0,8.0,4.0,1.0,7.0,5.0,1296.570146000704,3.0,1.0,phase_3,,,,,960.0,5.0,1152.0,576.0,192.0,384.0,960.0,768.0,magenta,hexagon
0.0,7.0,2.0,1.0,7.0,4.0,2025.1568399999087,3.0,1.0,phase_3,,,,,192.0,1.0,384.0,960.0,576.0,192.0,768.0,1152.0,green,triangle
0.0,5.0,0.5,1.0,7.0,3.0,997.0745259997784,3.0,1.0,phase_3,,,,,960.0,5.0,768.0,1152.0,960.0,384.0,576.0,192.0,white,flipped triangle
0.0,1.0,0.5,0.0,7.0,1.0,679.8120909998033,3.0,1.0,phase_3,,,,,192.0,1.0,192.0,384.0,1152.0,960.0,768.0,576.0,cyan,I
0.0,7.0,2.0,1.0,7.0,5.0,1476.5954630001945,3.0,1.0,phase_3,,,,,810.0,6.0,270.0,135.0,540.0,675.0,810.0,405.0,green,triangle
0.0,4.0,4.0,0.0,7.0,2.0,2113.277348000338,3.0,1.0,phase_3,,,,,135.0,1.0,540.0,135.0,675.0,810.0,270.0,405.0,yellow,diamond
0.0,2.0,1.0,0.0,7.0,2.0,2039.2074800001865,3.0,1.0,phase_3,,,,,173.0,1.0,346.0,173.0,519.0,865.0,692.0,1038.0,blue,square
0.0,1.0,0.5,0.0,7.0,5.0,2235.201414000585,3.0,1.0,phase_3,,,,,154.0,1.0,770.0,924.0,462.0,308.0,154.0,616.0,cyan,I
0.0,6.0,1.0,1.0,7.0,2.0,2438.7513069996203,3.0,1.0,phase_3,,,,,540.0,4.0,405.0,540.0,810.0,135.0,675.0,270.0,gray,circle
0.0,2.0,1.0,0.0,7.0,3.0,986.4699299996572,3.0,1.0,phase_3,,,,,1152.0,6.0,192.0,768.0,1152.0,384.0,960.0,576.0,blue,square
0.0,4.0,4.0,0.0,7.0,5.0,1061.8636859999242,3.0,1.0,phase_3,,,,,768.0,4.0,1152.0,192.0,384.0,960.0,768.0,576.0,yellow,diamond
0.0,1.0,0.5,0.0,7.0,2.0,2049.456554000244,3.0,1.0,phase_3,,,,,173.0,1.0,346.0,173.0,519.0,1038.0,692.0,865.0,cyan,I
0.0,3.0,2.0,0.0,7.0,1.0,1517.258771000343,4.0,1.0,phase_3,,,,,405.0,3.0,405.0,810.0,540.0,135.0,675.0,270.0,orange,cross
0.0,5.0,0.5,1.0,7.0,6.0,1919.1072849998816,4.0,1.0,phase_3,,,,,924.0,6.0,308.0,616.0,770.0,154.0,462.0,924.0,white,flipped triangle
0.0,3.0,2.0,0.0,7.0,5.0,1287.348474999817,4.0,1.0,phase_3,,,,,462.0,3.0,154.0,770.0,924.0,308.0,462.0,616.0,orange,cross
0.0,8.0,4.0,1.0,7.0,1.0,1551.8361120002735,4.0,1.0,phase_3,,,,,810.0,6.0,810.0,405.0,675.0,540.0,270.0,135.0,magenta,hexagon
0.0,3.0,2.0,0.0,7.0,2.0,1314.325757000006,4.0,1.0,phase_3,,,,,384.0,2.0,576.0,384.0,768.0,960.0,192.0,1152.0,orange,cross
0.0,7.0,2.0,1.0,7.0,4.0,1213.2767849998345,4.0,1.0,phase_3,,,,,173.0,1.0,346.0,1038.0,865.0,173.0,519.0,692.0,green,triangle
0.0,4.0,4.0,0.0,7.0,4.0,1773.0847240000005,4.0,1.0,phase_3,,,,,348.0,3.0,116.0,464.0,696.0,348.0,580.0,232.0,yellow,diamond
0.0,5.0,0.5,1.0,7.0,6.0,1836.4424669998696,4.0,1.0,phase_3,,,,,810.0,6.0,540.0,135.0,675.0,405.0,270.0,810.0,white,flipped triangle
0.0,2.0,1.0,0.0,7.0,2.0,1913.7436240007448,4.0,1.0,phase_3,,,,,675.0,5.0,540.0,675.0,405.0,270.0,810.0,135.0,blue,square
0.0,4.0,4.0,0.0,7.0,4.0,1733.2042959997125,4.0,1.0,phase_3,,,,,519.0,3.0,692.0,1038.0,346.0,519.0,865.0,173.0,yellow,diamond
0.0,6.0,1.0,1.0,7.0,5.0,1200.234421999994,4.0,1.0,phase_3,,,,,116.0,1.0,696.0,232.0,580.0,464.0,116.0,348.0,gray,circle
0.0,6.0,1.0,1.0,7.0,5.0,737.2956500003056,4.0,1.0,phase_3,,,,,135.0,1.0,675.0,810.0,405.0,270.0,135.0,540.0,gray,circle
0.0,8.0,4.0,1.0,7.0,2.0,3011.2396309996257,4.0,1.0,phase_3,,,,,770.0,5.0,616.0,770.0,924.0,308.0,462.0,154.0,magenta,hexagon
0.0,4.0,4.0,0.0,7.0,4.0,951.9432529996266,4.0,1.0,phase_3,,,,,464.0,4.0,348.0,696.0,116.0,464.0,232.0,580.0,yellow,diamond
0.0,2.0,1.0,0.0,7.0,3.0,1051.6026690002036,4.0,1.0,phase_3,,,,,770.0,5.0,462.0,616.0,770.0,924.0,308.0,154.0,blue,square
0.0,1.0,0.5,0.0,7.0,2.0,1925.6163480004036,4.0,1.0,phase_3,,,,,308.0,2.0,462.0,308.0,770.0,924.0,154.0,616.0,cyan,I
0.0,4.0,4.0,0.0,7.0,4.0,1898.218939999424,4.0,1.0,phase_3,,,,,346.0,2.0,519.0,692.0,173.0,346.0,865.0,1038.0,yellow,diamond
0.0,3.0,2.0,0.0,7.0,2.0,3401.4350930001456,4.0,1.0,phase_3,,,,,308.0,2.0,462.0,308.0,154.0,770.0,616.0,924.0,orange,cross
0.0,7.0,2.0,1.0,7.0,5.0,1396.6755369992825,4.0,1.0,phase_3,,,,,462.0,3.0,616.0,770.0,924.0,308.0,462.0,154.0,green,triangle
0.0,3.0,2.0,0.0,7.0,4.0,1462.3839790001512,4.0,1.0,phase_3,,,,,576.0,3.0,1152.0,960.0,768.0,576.0,384.0,192.0,orange,cross
