raw_reward_magnitude,stim_reward,stepwise_reward_magnitude,paired_with_stopping,quadrant,response,reaction_time,block,num_trial_presentations,which_part,stop_signal_trial_type,left_SSD,right_SSD,accuracy,chosen_bidding_amount,chosen_bidding_level,possible_bid_1,possible_bid_2,possible_bid_3,possible_bid_4,possible_bid_5,possible_bid_6,color_text,shape_text
182.0,5.0,1.0,1.0,1.0,1.0,351.0881889997108,1.0,1.0,part_1,,,,,,,,,,,,,white,flipped triangle
144.0,5.0,1.0,1.0,1.0,1.0,360.8478019996255,1.0,1.0,part_1,,,,,,,,,,,,,white,flipped triangle
345.0,2.0,2.0,0.0,3.0,3.0,314.6667689998139,1.0,1.0,part_1,,,,,,,,,,,,,orange,I
140.0,1.0,1.0,0.0,3.0,3.0,332.3828069997034,1.0,1.0,part_1,,,,,,,,,,,,,yellow,cross
0.0,3.0,0.0,0.0,3.0,3.0,314.2774460002329,1.0,1.0,part_1,,,,,,,,,,,,,magenta,diamond
322.0,2.0,2.0,0.0,3.0,3.0,295.4982430001109,1.0,1.0,part_1,,,,,,,,,,,,,orange,I
650.0,7.0,3.0,1.0,1.0,1.0,280.3135559997827,1.0,1.0,part_1,,,,,,,,,,,,,gray,triangle
0.0,7.0,0.0,1.0,1.0,1.0,397.6615329993365,1.0,1.0,part_1,,,,,,,,,,,,,gray,triangle
0.0,7.0,0.0,1.0,4.0,4.0,360.6624979993285,1.0,1.0,part_1,,,,,,,,,,,,,gray,triangle
177.0,1.0,1.0,0.0,3.0,3.0,378.8273879999906,1.0,1.0,part_1,,,,,,,,,,,,,yellow,cross
329.0,6.0,2.0,1.0,4.0,4.0,359.1551169993181,1.0,1.0,part_1,,,,,,,,,,,,,cyan,square
168.0,1.0,1.0,0.0,2.0,2.0,360.4843720004282,1.0,1.0,part_1,,,,,,,,,,,,,yellow,cross
666.0,7.0,3.0,1.0,1.0,1.0,396.5900510002029,1.0,1.0,part_1,,,,,,,,,,,,,gray,triangle
1283.0,4.0,4.0,0.0,1.0,1.0,305.2559890002158,1.0,1.0,part_1,,,,,,,,,,,,,green,hexagon
300.0,6.0,2.0,1.0,3.0,3.0,286.7471979998299,1.0,1.0,part_1,,,,,,,,,,,,,cyan,square
323.0,2.0,2.0,0.0,4.0,4.0,341.2301910002497,1.0,1.0,part_1,,,,,,,,,,,,,orange,I
0.0,7.0,0.0,1.0,2.0,2.0,388.7459379993743,1.0,1.0,part_1,,,,,,,,,,,,,gray,triangle
323.0,6.0,2.0,1.0,3.0,3.0,350.5077350000647,1.0,1.0,part_1,,,,,,,,,,,,,cyan,square
0.0,1.0,0.0,0.0,3.0,3.0,304.7195070002999,1.0,1.0,part_1,,,,,,,,,,,,,yellow,cross
644.0,3.0,3.0,0.0,2.0,2.0,369.6578600001885,1.0,1.0,part_1,,,,,,,,,,,,,magenta,diamond
1314.0,4.0,4.0,0.0,2.0,2.0,379.2577759995765,1.0,1.0,part_1,,,,,,,,,,,,,green,hexagon
637.0,7.0,3.0,1.0,2.0,2.0,482.6593399993726,1.0,1.0,part_1,,,,,,,,,,,,,gray,triangle
1292.0,8.0,4.0,1.0,3.0,3.0,368.7987109997266,1.0,1.0,part_1,,,,,,,,,,,,,blue,circle
663.0,3.0,3.0,0.0,1.0,1.0,341.9539149999764,1.0,1.0,part_1,,,,,,,,,,,,,magenta,diamond
0.0,8.0,0.0,1.0,2.0,2.0,332.0213779998084,1.0,1.0,part_1,,,,,,,,,,,,,blue,circle
155.0,5.0,1.0,1.0,2.0,2.0,379.5905850001873,1.0,1.0,part_1,,,,,,,,,,,,,white,flipped triangle
1288.0,8.0,4.0,1.0,2.0,2.0,359.7677230000045,1.0,1.0,part_1,,,,,,,,,,,,,blue,circle
1315.0,4.0,4.0,0.0,4.0,4.0,414.5453020000786,1.0,1.0,part_1,,,,,,,,,,,,,green,hexagon
1312.0,4.0,4.0,0.0,2.0,2.0,332.738065999365,1.0,1.0,part_1,,,,,,,,,,,,,green,hexagon
1294.0,4.0,4.0,0.0,2.0,2.0,313.0167099998289,1.0,2.0,part_1,,,,,,,,,,,,,green,hexagon
0.0,6.0,0.0,1.0,1.0,1.0,396.7902940003114,1.0,1.0,part_1,,,,,,,,,,,,,cyan,square
1301.0,8.0,4.0,1.0,1.0,1.0,406.2325599998075,1.0,1.0,part_1,,,,,,,,,,,,,blue,circle
1299.0,8.0,4.0,1.0,2.0,2.0,389.4728059995032,1.0,1.0,part_1,,,,,,,,,,,,,blue,circle
350.0,6.0,2.0,1.0,2.0,2.0,397.1132529995884,1.0,1.0,part_1,,,,,,,,,,,,,cyan,square
301.0,2.0,2.0,0.0,4.0,4.0,342.5879180003903,1.0,1.0,part_1,,,,,,,,,,,,,orange,I
0.0,4.0,0.0,0.0,1.0,1.0,435.3230019996772,1.0,2.0,part_1,,,,,,,,,,,,,green,hexagon
149.0,1.0,1.0,0.0,2.0,2.0,378.3470609996584,1.0,1.0,part_1,,,,,,,,,,,,,yellow,cross
1294.0,8.0,4.0,1.0,3.0,3.0,342.8895669994745,1.0,1.0,part_1,,,,,,,,,,,,,blue,circle
644.0,7.0,3.0,1.0,1.0,1.0,333.3788170002663,1.0,1.0,part_1,,,,,,,,,,,,,gray,triangle
139.0,1.0,1.0,0.0,1.0,1.0,397.6369850006449,1.0,1.0,part_1,,,,,,,,,,,,,yellow,cross
1303.0,4.0,4.0,0.0,2.0,2.0,323.1070069996349,1.0,1.0,part_1,,,,,,,,,,,,,green,hexagon
1322.0,8.0,4.0,1.0,3.0,3.0,351.5079210001204,1.0,1.0,part_1,,,,,,,,,,,,,blue,circle
1301.0,4.0,4.0,0.0,1.0,1.0,277.2342460002619,1.0,1.0,part_1,,,,,,,,,,,,,green,hexagon
350.0,2.0,2.0,0.0,1.0,1.0,360.4379289999997,1.0,1.0,part_1,,,,,,,,,,,,,orange,I
186.0,5.0,1.0,1.0,3.0,3.0,352.4038870000368,1.0,1.0,part_1,,,,,,,,,,,,,white,flipped triangle
340.0,2.0,2.0,0.0,2.0,2.0,349.3804949994228,1.0,1.0,part_1,,,,,,,,,,,,,orange,I
333.0,6.0,2.0,1.0,4.0,4.0,324.1157840002415,1.0,1.0,part_1,,,,,,,,,,,,,cyan,square
344.0,2.0,2.0,0.0,3.0,3.0,342.3005320000811,1.0,1.0,part_1,,,,,,,,,,,,,orange,I
1316.0,4.0,4.0,0.0,1.0,1.0,324.6774340004776,1.0,1.0,part_1,,,,,,,,,,,,,green,hexagon
172.0,1.0,1.0,0.0,4.0,4.0,322.8722759995435,1.0,1.0,part_1,,,,,,,,,,,,,yellow,cross
631.0,7.0,3.0,1.0,2.0,2.0,361.0389140003462,1.0,1.0,part_1,,,,,,,,,,,,,gray,triangle
1281.0,4.0,4.0,0.0,4.0,4.0,351.8566019993159,1.0,1.0,part_1,,,,,,,,,,,,,green,hexagon
0.0,2.0,0.0,0.0,1.0,1.0,341.0508380002284,1.0,1.0,part_1,,,,,,,,,,,,,orange,I
167.0,5.0,1.0,1.0,1.0,1.0,389.1732279998905,1.0,1.0,part_1,,,,,,,,,,,,,white,flipped triangle
0.0,5.0,0.0,1.0,3.0,3.0,389.4986269997389,1.0,1.0,part_1,,,,,,,,,,,,,white,flipped triangle
0.0,8.0,0.0,1.0,2.0,2.0,371.0973969991755,1.0,1.0,part_1,,,,,,,,,,,,,blue,circle
1297.0,8.0,4.0,1.0,4.0,4.0,370.7926979996045,1.0,1.0,part_1,,,,,,,,,,,,,blue,circle
634.0,3.0,3.0,0.0,3.0,3.0,360.6471809998766,1.0,1.0,part_1,,,,,,,,,,,,,magenta,diamond
349.0,2.0,2.0,0.0,4.0,4.0,351.0268559994074,1.0,1.0,part_1,,,,,,,,,,,,,orange,I
303.0,6.0,2.0,1.0,2.0,2.0,415.0944459997845,1.0,1.0,part_1,,,,,,,,,,,,,cyan,square
0.0,2.0,0.0,0.0,1.0,1.0,397.9705570000078,1.0,1.0,part_1,,,,,,,,,,,,,orange,I
0.0,6.0,0.0,1.0,2.0,2.0,416.9654320003246,1.0,1.0,part_1,,,,,,,,,,,,,cyan,square
139.0,5.0,1.0,1.0,3.0,3.0,342.6852879993021,1.0,1.0,part_1,,,,,,,,,,,,,white,flipped triangle
1314.0,8.0,4.0,1.0,4.0,4.0,314.1865449997567,1.0,1.0,part_1,,,,,,,,,,,,,blue,circle
1304.0,8.0,4.0,1.0,1.0,1.0,323.3914590000495,1.0,1.0,part_1,,,,,,,,,,,,,blue,circle
1316.0,8.0,4.0,1.0,2.0,2.0,342.6420740006506,1.0,1.0,part_1,,,,,,,,,,,,,blue,circle
1296.0,8.0,4.0,1.0,3.0,3.0,333.0416469998454,1.0,1.0,part_1,,,,,,,,,,,,,blue,circle
340.0,2.0,2.0,0.0,4.0,4.0,360.4194210001878,1.0,1.0,part_1,,,,,,,,,,,,,orange,I
642.0,3.0,3.0,0.0,2.0,2.0,387.9282360003344,1.0,2.0,part_1,,,,,,,,,,,,,magenta,diamond
337.0,2.0,2.0,0.0,1.0,1.0,342.0550390001153,1.0,1.0,part_1,,,,,,,,,,,,,orange,I
1299.0,4.0,4.0,0.0,1.0,1.0,334.1990130002159,1.0,2.0,part_1,,,,,,,,,,,,,green,hexagon
0.0,5.0,0.0,1.0,4.0,4.0,360.7671359995947,1.0,1.0,part_1,,,,,,,,,,,,,white,flipped triangle
648.0,7.0,3.0,1.0,2.0,2.0,368.5477879998871,1.0,1.0,part_1,,,,,,,,,,,,,gray,triangle
648.0,3.0,3.0,0.0,4.0,4.0,388.0152230003659,1.0,1.0,part_1,,,,,,,,,,,,,magenta,diamond
668.0,3.0,3.0,0.0,1.0,1.0,268.6073009999745,1.0,1.0,part_1,,,,,,,,,,,,,magenta,diamond
0.0,2.0,0.0,0.0,2.0,2.0,443.1366399994658,1.0,1.0,part_1,,,,,,,,,,,,,orange,I
156.0,5.0,1.0,1.0,3.0,3.0,333.5544159999699,1.0,1.0,part_1,,,,,,,,,,,,,white,flipped triangle
653.0,7.0,3.0,1.0,4.0,4.0,332.9973009995228,1.0,1.0,part_1,,,,,,,,,,,,,gray,triangle
649.0,3.0,3.0,0.0,2.0,2.0,471.6634859996702,1.0,1.0,part_1,,,,,,,,,,,,,magenta,diamond
320.0,2.0,2.0,0.0,2.0,2.0,414.971618999516,1.0,1.0,part_1,,,,,,,,,,,,,orange,I
331.0,2.0,2.0,0.0,4.0,4.0,325.9577189992342,1.0,1.0,part_1,,,,,,,,,,,,,orange,I
137.0,1.0,1.0,0.0,3.0,3.0,381.5295880003759,1.0,1.0,part_1,,,,,,,,,,,,,yellow,cross
1287.0,8.0,4.0,1.0,4.0,4.0,361.3971340000717,1.0,1.0,part_1,,,,,,,,,,,,,blue,circle
1287.0,4.0,4.0,0.0,3.0,3.0,361.6772079994916,1.0,1.0,part_1,,,,,,,,,,,,,green,hexagon
1311.0,4.0,4.0,0.0,3.0,3.0,361.851335999745,1.0,1.0,part_1,,,,,,,,,,,,,green,hexagon
149.0,5.0,1.0,1.0,1.0,1.0,415.5401959997107,1.0,1.0,part_1,,,,,,,,,,,,,white,flipped triangle
1321.0,4.0,4.0,0.0,3.0,3.0,389.0483889999814,1.0,1.0,part_1,,,,,,,,,,,,,green,hexagon
0.0,6.0,0.0,1.0,4.0,4.0,370.3105450003932,1.0,1.0,part_1,,,,,,,,,,,,,cyan,square
0.0,3.0,0.0,0.0,2.0,2.0,378.3801580002546,1.0,1.0,part_1,,,,,,,,,,,,,magenta,diamond
665.0,7.0,3.0,1.0,4.0,4.0,351.1609370007136,1.0,1.0,part_1,,,,,,,,,,,,,gray,triangle
637.0,3.0,3.0,0.0,1.0,1.0,340.7104609996167,1.0,1.0,part_1,,,,,,,,,,,,,magenta,diamond
319.0,6.0,2.0,1.0,4.0,4.0,342.1971910001957,1.0,1.0,part_1,,,,,,,,,,,,,cyan,square
345.0,6.0,2.0,1.0,3.0,3.0,417.868957999417,1.0,1.0,part_1,,,,,,,,,,,,,cyan,square
628.0,3.0,3.0,0.0,4.0,4.0,397.0884230002411,1.0,1.0,part_1,,,,,,,,,,,,,magenta,diamond
179.0,1.0,1.0,0.0,1.0,1.0,418.0679999999483,1.0,1.0,part_1,,,,,,,,,,,,,yellow,cross
175.0,1.0,1.0,0.0,2.0,2.0,489.2821049998019,1.0,1.0,part_1,,,,,,,,,,,,,yellow,cross
0.0,2.0,0.0,0.0,2.0,2.0,415.6647279996832,1.0,1.0,part_1,,,,,,,,,,,,,orange,I
344.0,6.0,2.0,1.0,1.0,1.0,350.2553750004153,1.0,1.0,part_1,,,,,,,,,,,,,cyan,square
306.0,2.0,2.0,0.0,4.0,4.0,314.9454280001009,1.0,1.0,part_1,,,,,,,,,,,,,orange,I
0.0,4.0,0.0,0.0,3.0,3.0,369.1965980005989,1.0,1.0,part_1,,,,,,,,,,,,,green,hexagon
333.0,6.0,2.0,1.0,1.0,1.0,452.4413849994744,2.0,2.0,part_1,,,,,,,,,,,,,cyan,square
650.0,3.0,3.0,0.0,3.0,3.0,380.0849170002038,2.0,1.0,part_1,,,,,,,,,,,,,magenta,diamond
0.0,8.0,0.0,1.0,4.0,4.0,481.3358940000398,2.0,1.0,part_1,,,,,,,,,,,,,blue,circle
301.0,6.0,2.0,1.0,4.0,4.0,453.8395170002332,2.0,1.0,part_1,,,,,,,,,,,,,cyan,square
668.0,7.0,3.0,1.0,3.0,3.0,426.0694690001401,2.0,1.0,part_1,,,,,,,,,,,,,gray,triangle
1281.0,8.0,4.0,1.0,4.0,4.0,350.5114019999382,2.0,1.0,part_1,,,,,,,,,,,,,blue,circle
1307.0,8.0,4.0,1.0,1.0,1.0,618.496521000452,2.0,1.0,part_1,,,,,,,,,,,,,blue,circle
161.0,1.0,1.0,0.0,3.0,3.0,388.7519979998615,2.0,1.0,part_1,,,,,,,,,,,,,yellow,cross
658.0,3.0,3.0,0.0,4.0,4.0,379.3499960002009,2.0,1.0,part_1,,,,,,,,,,,,,magenta,diamond
667.0,3.0,3.0,0.0,3.0,3.0,324.5783929996833,2.0,1.0,part_1,,,,,,,,,,,,,magenta,diamond
181.0,5.0,1.0,1.0,4.0,4.0,361.1268510003356,2.0,1.0,part_1,,,,,,,,,,,,,white,flipped triangle
154.0,1.0,1.0,0.0,3.0,3.0,351.5860540001085,2.0,1.0,part_1,,,,,,,,,,,,,yellow,cross
165.0,5.0,1.0,1.0,4.0,4.0,362.3600359996999,2.0,1.0,part_1,,,,,,,,,,,,,white,flipped triangle
345.0,2.0,2.0,0.0,1.0,1.0,453.9629269993384,2.0,1.0,part_1,,,,,,,,,,,,,orange,I
1281.0,8.0,4.0,1.0,1.0,1.0,490.1801079995493,2.0,1.0,part_1,,,,,,,,,,,,,blue,circle
670.0,7.0,3.0,1.0,2.0,2.0,444.5095849996505,2.0,1.0,part_1,,,,,,,,,,,,,gray,triangle
1282.0,8.0,4.0,1.0,1.0,1.0,388.5179769995375,2.0,1.0,part_1,,,,,,,,,,,,,blue,circle
1295.0,8.0,4.0,1.0,2.0,2.0,406.35670199935697,2.0,1.0,part_1,,,,,,,,,,,,,blue,circle
674.0,3.0,3.0,0.0,3.0,3.0,426.6345849991921,2.0,1.0,part_1,,,,,,,,,,,,,magenta,diamond
663.0,7.0,3.0,1.0,2.0,2.0,397.4047080000673,2.0,1.0,part_1,,,,,,,,,,,,,gray,triangle
0.0,4.0,0.0,0.0,1.0,1.0,537.2914130002755,2.0,1.0,part_1,,,,,,,,,,,,,green,hexagon
153.0,5.0,1.0,1.0,2.0,2.0,425.1922090006701,2.0,1.0,part_1,,,,,,,,,,,,,white,flipped triangle
155.0,1.0,1.0,0.0,1.0,1.0,379.4401610002751,2.0,1.0,part_1,,,,,,,,,,,,,yellow,cross
313.0,2.0,2.0,0.0,3.0,3.0,390.3077500008294,2.0,1.0,part_1,,,,,,,,,,,,,orange,I
626.0,7.0,3.0,1.0,1.0,1.0,424.8681819999547,2.0,1.0,part_1,,,,,,,,,,,,,gray,triangle
347.0,6.0,2.0,1.0,2.0,2.0,352.0651069993619,2.0,1.0,part_1,,,,,,,,,,,,,cyan,square
0.0,2.0,0.0,0.0,1.0,1.0,417.5855399998909,2.0,1.0,part_1,,,,,,,,,,,,,orange,I
162.0,5.0,1.0,1.0,2.0,2.0,379.2886410001301,2.0,1.0,part_1,,,,,,,,,,,,,white,flipped triangle
1292.0,4.0,4.0,0.0,2.0,2.0,600.8843449999404,2.0,1.0,part_1,,,,,,,,,,,,,green,hexagon
345.0,6.0,2.0,1.0,2.0,2.0,436.5205710000737,2.0,1.0,part_1,,,,,,,,,,,,,cyan,square
308.0,2.0,2.0,0.0,1.0,1.0,387.6282249993892,2.0,1.0,part_1,,,,,,,,,,,,,orange,I
0.0,5.0,0.0,1.0,2.0,2.0,379.8068510004668,2.0,1.0,part_1,,,,,,,,,,,,,white,flipped triangle
642.0,3.0,3.0,0.0,1.0,1.0,408.304593000139,2.0,1.0,part_1,,,,,,,,,,,,,magenta,diamond
345.0,2.0,2.0,0.0,2.0,2.0,437.3417020005945,2.0,1.0,part_1,,,,,,,,,,,,,orange,I
182.0,5.0,1.0,1.0,2.0,2.0,378.2539209996685,2.0,1.0,part_1,,,,,,,,,,,,,white,flipped triangle
325.0,6.0,2.0,1.0,3.0,3.0,406.7276579999088,2.0,1.0,part_1,,,,,,,,,,,,,cyan,square
1316.0,8.0,4.0,1.0,4.0,4.0,417.4649010001303,2.0,1.0,part_1,,,,,,,,,,,,,blue,circle
340.0,6.0,2.0,1.0,2.0,2.0,424.2616229994382,2.0,1.0,part_1,,,,,,,,,,,,,cyan,square
0.0,3.0,0.0,0.0,4.0,4.0,388.4723319997647,2.0,1.0,part_1,,,,,,,,,,,,,magenta,diamond
656.0,3.0,3.0,0.0,4.0,4.0,350.9428199995454,2.0,1.0,part_1,,,,,,,,,,,,,magenta,diamond
637.0,7.0,3.0,1.0,3.0,3.0,443.1160930007536,2.0,1.0,part_1,,,,,,,,,,,,,gray,triangle
331.0,2.0,2.0,0.0,1.0,1.0,435.3904689996852,2.0,1.0,part_1,,,,,,,,,,,,,orange,I
1297.0,4.0,4.0,0.0,1.0,1.0,509.69574000009743,2.0,1.0,part_1,,,,,,,,,,,,,green,hexagon
641.0,3.0,3.0,0.0,1.0,1.0,519.1752099999576,2.0,1.0,part_1,,,,,,,,,,,,,magenta,diamond
0.0,6.0,0.0,1.0,1.0,1.0,443.3043030003318,2.0,1.0,part_1,,,,,,,,,,,,,cyan,square
1282.0,4.0,4.0,0.0,4.0,4.0,407.3997250006869,2.0,1.0,part_1,,,,,,,,,,,,,green,hexagon
0.0,3.0,0.0,0.0,1.0,1.0,537.5763879992519,2.0,1.0,part_1,,,,,,,,,,,,,magenta,diamond
179.0,5.0,1.0,1.0,4.0,4.0,398.2583130000421,2.0,1.0,part_1,,,,,,,,,,,,,white,flipped triangle
649.0,7.0,3.0,1.0,4.0,4.0,404.980796000018,2.0,1.0,part_1,,,,,,,,,,,,,gray,triangle
149.0,1.0,1.0,0.0,3.0,3.0,434.6917709999616,2.0,1.0,part_1,,,,,,,,,,,,,yellow,cross
0.0,4.0,0.0,0.0,3.0,3.0,379.0172870003516,2.0,1.0,part_1,,,,,,,,,,,,,green,hexagon
1287.0,8.0,4.0,1.0,3.0,3.0,433.2937879999008,2.0,1.0,part_1,,,,,,,,,,,,,blue,circle
301.0,6.0,2.0,1.0,4.0,4.0,517.5043600002027,2.0,1.0,part_1,,,,,,,,,,,,,cyan,square
147.0,5.0,1.0,1.0,4.0,4.0,387.667945999965,2.0,1.0,part_1,,,,,,,,,,,,,white,flipped triangle
1309.0,4.0,4.0,0.0,4.0,4.0,350.3828479997537,2.0,1.0,part_1,,,,,,,,,,,,,green,hexagon
0.0,3.0,0.0,0.0,2.0,2.0,488.8044600002104,2.0,1.0,part_1,,,,,,,,,,,,,magenta,diamond
1296.0,4.0,4.0,0.0,1.0,1.0,507.89610499941773,2.0,1.0,part_1,,,,,,,,,,,,,green,hexagon
1291.0,8.0,4.0,1.0,3.0,3.0,425.003953999294,2.0,1.0,part_1,,,,,,,,,,,,,blue,circle
0.0,1.0,0.0,0.0,4.0,4.0,332.0938739998382,2.0,1.0,part_1,,,,,,,,,,,,,yellow,cross
0.0,7.0,0.0,1.0,1.0,1.0,461.0331409994614,2.0,1.0,part_1,,,,,,,,,,,,,gray,triangle
333.0,2.0,2.0,0.0,3.0,3.0,405.5094860004828,2.0,1.0,part_1,,,,,,,,,,,,,orange,I
630.0,7.0,3.0,1.0,4.0,4.0,378.3988280001722,2.0,1.0,part_1,,,,,,,,,,,,,gray,triangle
0.0,8.0,0.0,1.0,1.0,1.0,424.9815100001797,2.0,1.0,part_1,,,,,,,,,,,,,blue,circle
180.0,1.0,1.0,0.0,2.0,2.0,434.7695709993786,2.0,1.0,part_1,,,,,,,,,,,,,yellow,cross
656.0,3.0,3.0,0.0,2.0,2.0,443.2346499997948,2.0,1.0,part_1,,,,,,,,,,,,,magenta,diamond
165.0,1.0,1.0,0.0,4.0,4.0,343.0507100001705,2.0,1.0,part_1,,,,,,,,,,,,,yellow,cross
0.0,5.0,0.0,1.0,3.0,3.0,398.4024090004823,2.0,1.0,part_1,,,,,,,,,,,,,white,flipped triangle
0.0,6.0,0.0,1.0,2.0,2.0,416.7145549999986,2.0,1.0,part_1,,,,,,,,,,,,,cyan,square
162.0,1.0,1.0,0.0,2.0,2.0,424.93228300008917,2.0,1.0,part_1,,,,,,,,,,,,,yellow,cross
0.0,3.0,0.0,0.0,3.0,3.0,361.0211169998365,2.0,1.0,part_1,,,,,,,,,,,,,magenta,diamond
0.0,5.0,0.0,1.0,3.0,3.0,443.7227349999375,2.0,1.0,part_1,,,,,,,,,,,,,white,flipped triangle
0.0,1.0,0.0,0.0,1.0,1.0,369.7128369994971,2.0,1.0,part_1,,,,,,,,,,,,,yellow,cross
674.0,7.0,3.0,1.0,3.0,3.0,359.6648639995692,2.0,1.0,part_1,,,,,,,,,,,,,gray,triangle
340.0,6.0,2.0,1.0,1.0,1.0,370.6571550001172,2.0,1.0,part_1,,,,,,,,,,,,,cyan,square
0.0,8.0,0.0,1.0,3.0,3.0,388.5296380003638,2.0,1.0,part_1,,,,,,,,,,,,,blue,circle
0.0,3.0,0.0,0.0,4.0,4.0,388.5885760000747,2.0,1.0,part_1,,,,,,,,,,,,,magenta,diamond
175.0,5.0,1.0,1.0,3.0,3.0,379.4451539997681,2.0,1.0,part_1,,,,,,,,,,,,,white,flipped triangle
147.0,1.0,1.0,0.0,3.0,3.0,407.1114950002084,2.0,1.0,part_1,,,,,,,,,,,,,yellow,cross
310.0,6.0,2.0,1.0,1.0,1.0,351.3340219997189,2.0,1.0,part_1,,,,,,,,,,,,,cyan,square
312.0,6.0,2.0,1.0,3.0,3.0,388.4792910002943,2.0,1.0,part_1,,,,,,,,,,,,,cyan,square
1297.0,4.0,4.0,0.0,3.0,3.0,343.1292650002433,2.0,1.0,part_1,,,,,,,,,,,,,green,hexagon
646.0,7.0,3.0,1.0,4.0,4.0,361.7289160001746,2.0,1.0,part_1,,,,,,,,,,,,,gray,triangle
1281.0,4.0,4.0,0.0,4.0,4.0,342.0790569998644,2.0,1.0,part_1,,,,,,,,,,,,,green,hexagon
1277.0,8.0,4.0,1.0,1.0,1.0,462.7400219997071,2.0,1.0,part_1,,,,,,,,,,,,,blue,circle
1311.0,8.0,4.0,1.0,4.0,4.0,369.5252009993055,2.0,1.0,part_1,,,,,,,,,,,,,blue,circle
1283.0,8.0,4.0,1.0,1.0,1.0,416.897641000105,2.0,1.0,part_1,,,,,,,,,,,,,blue,circle
300.0,2.0,2.0,0.0,3.0,3.0,332.7750999997079,2.0,1.0,part_1,,,,,,,,,,,,,orange,I
663.0,3.0,3.0,0.0,1.0,1.0,471.1974620004184,2.0,1.0,part_1,,,,,,,,,,,,,magenta,diamond
314.0,2.0,2.0,0.0,1.0,1.0,462.0306709994111,2.0,1.0,part_1,,,,,,,,,,,,,orange,I
0.0,5.0,0.0,1.0,1.0,1.0,398.2304860001022,2.0,1.0,part_1,,,,,,,,,,,,,white,flipped triangle
0.0,1.0,0.0,0.0,4.0,4.0,342.8228660004606,2.0,1.0,part_1,,,,,,,,,,,,,yellow,cross
161.0,5.0,1.0,1.0,4.0,4.0,398.3658699999068,2.0,1.0,part_1,,,,,,,,,,,,,white,flipped triangle
672.0,3.0,3.0,0.0,2.0,2.0,452.536109999528,2.0,1.0,part_1,,,,,,,,,,,,,magenta,diamond
663.0,7.0,3.0,1.0,2.0,2.0,407.619263000015,2.0,1.0,part_1,,,,,,,,,,,,,gray,triangle
649.0,3.0,3.0,0.0,2.0,2.0,415.6542379996608,2.0,1.0,part_1,,,,,,,,,,,,,magenta,diamond
0.0,2.0,0.0,0.0,1.0,1.0,388.5819400002219,2.0,1.0,part_1,,,,,,,,,,,,,orange,I
0.0,8.0,0.0,1.0,3.0,3.0,397.1722989999762,2.0,1.0,part_1,,,,,,,,,,,,,blue,circle
319.0,2.0,2.0,0.0,4.0,4.0,350.7183259998783,2.0,1.0,part_1,,,,,,,,,,,,,orange,I
320.0,6.0,2.0,1.0,1.0,1.0,426.0670820003724,2.0,1.0,part_1,,,,,,,,,,,,,cyan,square
310.0,2.0,2.0,0.0,1.0,1.0,470.2017620002152,2.0,1.0,part_1,,,,,,,,,,,,,orange,I
149.0,5.0,1.0,1.0,3.0,3.0,424.0498050003225,3.0,1.0,part_1,,,,,,,,,,,,,white,flipped triangle
1288.0,8.0,4.0,1.0,1.0,1.0,387.6241620000655,3.0,1.0,part_1,,,,,,,,,,,,,blue,circle
0.0,6.0,0.0,1.0,3.0,3.0,359.6349829995233,3.0,1.0,part_1,,,,,,,,,,,,,cyan,square
312.0,2.0,2.0,0.0,2.0,2.0,489.6232499995676,3.0,1.0,part_1,,,,,,,,,,,,,orange,I
0.0,1.0,0.0,0.0,2.0,2.0,415.1308239997888,3.0,1.0,part_1,,,,,,,,,,,,,yellow,cross
1313.0,8.0,4.0,1.0,3.0,3.0,323.1891160003215,3.0,1.0,part_1,,,,,,,,,,,,,blue,circle
665.0,3.0,3.0,0.0,2.0,2.0,369.6151029998873,3.0,1.0,part_1,,,,,,,,,,,,,magenta,diamond
181.0,1.0,1.0,0.0,3.0,3.0,323.0936509999083,3.0,1.0,part_1,,,,,,,,,,,,,yellow,cross
0.0,1.0,0.0,0.0,1.0,1.0,259.7078520002469,3.0,1.0,part_1,,,,,,,,,,,,,yellow,cross
326.0,2.0,2.0,0.0,2.0,2.0,305.7545009996829,3.0,1.0,part_1,,,,,,,,,,,,,orange,I
306.0,6.0,2.0,1.0,1.0,1.0,406.464431999666,3.0,1.0,part_1,,,,,,,,,,,,,cyan,square
301.0,2.0,2.0,0.0,4.0,4.0,315.1791089994731,3.0,1.0,part_1,,,,,,,,,,,,,orange,I
1300.0,8.0,4.0,1.0,4.0,4.0,342.8284850006093,3.0,1.0,part_1,,,,,,,,,,,,,blue,circle
140.0,5.0,1.0,1.0,2.0,2.0,377.6107180001418,3.0,1.0,part_1,,,,,,,,,,,,,white,flipped triangle
137.0,5.0,1.0,1.0,2.0,2.0,377.1573160001935,3.0,1.0,part_1,,,,,,,,,,,,,white,flipped triangle
0.0,7.0,0.0,1.0,2.0,2.0,396.578285999567,3.0,1.0,part_1,,,,,,,,,,,,,gray,triangle
662.0,7.0,3.0,1.0,3.0,3.0,368.4994609993737,3.0,1.0,part_1,,,,,,,,,,,,,gray,triangle
153.0,1.0,1.0,0.0,4.0,4.0,387.5334449994625,3.0,1.0,part_1,,,,,,,,,,,,,yellow,cross
151.0,5.0,1.0,1.0,3.0,3.0,369.7610750004969,3.0,1.0,part_1,,,,,,,,,,,,,white,flipped triangle
631.0,7.0,3.0,1.0,3.0,3.0,396.3113600002543,3.0,1.0,part_1,,,,,,,,,,,,,gray,triangle
1308.0,8.0,4.0,1.0,3.0,3.0,395.7681609999781,3.0,1.0,part_1,,,,,,,,,,,,,blue,circle
1288.0,4.0,4.0,0.0,3.0,3.0,358.7363789993105,3.0,1.0,part_1,,,,,,,,,,,,,green,hexagon
322.0,6.0,2.0,1.0,3.0,3.0,424.5371779998095,3.0,1.0,part_1,,,,,,,,,,,,,cyan,square
1311.0,8.0,4.0,1.0,2.0,2.0,443.3737550007208,3.0,1.0,part_1,,,,,,,,,,,,,blue,circle
170.0,1.0,1.0,0.0,2.0,2.0,451.8068320003294,3.0,1.0,part_1,,,,,,,,,,,,,yellow,cross
309.0,2.0,2.0,0.0,1.0,1.0,360.0931970004239,3.0,1.0,part_1,,,,,,,,,,,,,orange,I
631.0,3.0,3.0,0.0,3.0,3.0,369.4499849998465,3.0,1.0,part_1,,,,,,,,,,,,,magenta,diamond
325.0,2.0,2.0,0.0,1.0,1.0,388.1653599992205,3.0,1.0,part_1,,,,,,,,,,,,,orange,I
672.0,7.0,3.0,1.0,4.0,4.0,332.262283000091,3.0,1.0,part_1,,,,,,,,,,,,,gray,triangle
320.0,6.0,2.0,1.0,4.0,4.0,370.4971810002462,3.0,1.0,part_1,,,,,,,,,,,,,cyan,square
0.0,5.0,0.0,1.0,1.0,1.0,351.0307650003597,3.0,1.0,part_1,,,,,,,,,,,,,white,flipped triangle
326.0,6.0,2.0,1.0,4.0,4.0,370.1665429998684,3.0,1.0,part_1,,,,,,,,,,,,,cyan,square
183.0,1.0,1.0,0.0,4.0,4.0,324.2316080004457,3.0,1.0,part_1,,,,,,,,,,,,,yellow,cross
0.0,7.0,0.0,1.0,2.0,2.0,387.9298620004192,3.0,1.0,part_1,,,,,,,,,,,,,gray,triangle
648.0,7.0,3.0,1.0,2.0,2.0,451.6883589994904,3.0,1.0,part_1,,,,,,,,,,,,,gray,triangle
308.0,6.0,2.0,1.0,3.0,3.0,406.4107129997865,3.0,1.0,part_1,,,,,,,,,,,,,cyan,square
0.0,6.0,0.0,1.0,2.0,2.0,497.5606680000055,3.0,1.0,part_1,,,,,,,,,,,,,cyan,square
1278.0,8.0,4.0,1.0,2.0,2.0,388.33089099989587,3.0,1.0,part_1,,,,,,,,,,,,,blue,circle
1298.0,4.0,4.0,0.0,3.0,3.0,323.72623199989897,3.0,1.0,part_1,,,,,,,,,,,,,green,hexagon
1278.0,4.0,4.0,0.0,3.0,3.0,324.3208170006255,3.0,1.0,part_1,,,,,,,,,,,,,green,hexagon
1308.0,4.0,4.0,0.0,2.0,2.0,424.4500949998837,3.0,1.0,part_1,,,,,,,,,,,,,green,hexagon
0.0,1.0,0.0,0.0,3.0,3.0,396.8972669999857,3.0,1.0,part_1,,,,,,,,,,,,,yellow,cross
1307.0,4.0,4.0,0.0,3.0,3.0,360.368919999928,3.0,1.0,part_1,,,,,,,,,,,,,green,hexagon
337.0,6.0,2.0,1.0,3.0,3.0,444.3055289993936,3.0,1.0,part_1,,,,,,,,,,,,,cyan,square
161.0,1.0,1.0,0.0,3.0,3.0,359.4853549993786,3.0,1.0,part_1,,,,,,,,,,,,,yellow,cross
168.0,5.0,1.0,1.0,4.0,4.0,332.0377460004238,3.0,1.0,part_1,,,,,,,,,,,,,white,flipped triangle
153.0,1.0,1.0,0.0,1.0,1.0,396.3616600003661,3.0,1.0,part_1,,,,,,,,,,,,,yellow,cross
634.0,7.0,3.0,1.0,2.0,2.0,406.2362590002522,3.0,1.0,part_1,,,,,,,,,,,,,gray,triangle
162.0,5.0,1.0,1.0,1.0,1.0,388.7251679998371,3.0,1.0,part_1,,,,,,,,,,,,,white,flipped triangle
313.0,6.0,2.0,1.0,4.0,4.0,315.0158099997497,3.0,1.0,part_1,,,,,,,,,,,,,cyan,square
347.0,2.0,2.0,0.0,2.0,2.0,342.3902870008533,3.0,1.0,part_1,,,,,,,,,,,,,orange,I
0.0,6.0,0.0,1.0,4.0,4.0,315.0181019991578,3.0,1.0,part_1,,,,,,,,,,,,,cyan,square
314.0,6.0,2.0,1.0,3.0,3.0,351.5510749994064,3.0,1.0,part_1,,,,,,,,,,,,,cyan,square
649.0,7.0,3.0,1.0,3.0,3.0,370.6765480001195,3.0,1.0,part_1,,,,,,,,,,,,,gray,triangle
0.0,3.0,0.0,0.0,2.0,2.0,399.2717259998244,3.0,1.0,part_1,,,,,,,,,,,,,magenta,diamond
629.0,3.0,3.0,0.0,3.0,3.0,331.9529350001176,3.0,1.0,part_1,,,,,,,,,,,,,magenta,diamond
1277.0,4.0,4.0,0.0,2.0,2.0,388.8587060000645,3.0,1.0,part_1,,,,,,,,,,,,,green,hexagon
667.0,7.0,3.0,1.0,3.0,3.0,370.347283999763,3.0,1.0,part_1,,,,,,,,,,,,,gray,triangle
160.0,5.0,1.0,1.0,3.0,3.0,379.1421930000069,3.0,1.0,part_1,,,,,,,,,,,,,white,flipped triangle
150.0,5.0,1.0,1.0,4.0,4.0,369.8314079992997,3.0,1.0,part_1,,,,,,,,,,,,,white,flipped triangle
0.0,2.0,0.0,0.0,2.0,2.0,470.782512000369,3.0,1.0,part_1,,,,,,,,,,,,,orange,I
0.0,8.0,0.0,1.0,3.0,3.0,360.4224480004632,3.0,1.0,part_1,,,,,,,,,,,,,blue,circle
0.0,4.0,0.0,0.0,2.0,2.0,516.9968180007345,3.0,1.0,part_1,,,,,,,,,,,,,green,hexagon
646.0,3.0,3.0,0.0,4.0,4.0,378.5782530003416,3.0,1.0,part_1,,,,,,,,,,,,,magenta,diamond
315.0,6.0,2.0,1.0,1.0,1.0,461.4027560000977,3.0,1.0,part_1,,,,,,,,,,,,,cyan,square
309.0,6.0,2.0,1.0,1.0,1.0,387.2861849995388,3.0,1.0,part_1,,,,,,,,,,,,,cyan,square
666.0,7.0,3.0,1.0,2.0,2.0,470.5352979999588,3.0,1.0,part_1,,,,,,,,,,,,,gray,triangle
666.0,3.0,3.0,0.0,4.0,4.0,424.6856810004829,3.0,1.0,part_1,,,,,,,,,,,,,magenta,diamond
162.0,5.0,1.0,1.0,1.0,1.0,441.7920440000671,3.0,1.0,part_1,,,,,,,,,,,,,white,flipped triangle
1323.0,4.0,4.0,0.0,2.0,2.0,524.1957309999634,3.0,1.0,part_1,,,,,,,,,,,,,green,hexagon
325.0,2.0,2.0,0.0,4.0,4.0,359.3662100001893,3.0,1.0,part_1,,,,,,,,,,,,,orange,I
0.0,8.0,0.0,1.0,4.0,4.0,341.8085100001917,3.0,1.0,part_1,,,,,,,,,,,,,blue,circle
667.0,3.0,3.0,0.0,1.0,1.0,377.6820250004675,3.0,1.0,part_1,,,,,,,,,,,,,magenta,diamond
662.0,3.0,3.0,0.0,1.0,1.0,386.8269349995898,3.0,1.0,part_1,,,,,,,,,,,,,magenta,diamond
300.0,6.0,2.0,1.0,3.0,3.0,378.3548009996593,3.0,1.0,part_1,,,,,,,,,,,,,cyan,square
333.0,2.0,2.0,0.0,3.0,3.0,407.6956750004683,3.0,1.0,part_1,,,,,,,,,,,,,orange,I
0.0,3.0,0.0,0.0,2.0,2.0,414.8451060000298,3.0,1.0,part_1,,,,,,,,,,,,,magenta,diamond
332.0,2.0,2.0,0.0,3.0,3.0,332.0654419994753,3.0,1.0,part_1,,,,,,,,,,,,,orange,I
167.0,1.0,1.0,0.0,4.0,4.0,333.41591899989,3.0,1.0,part_1,,,,,,,,,,,,,yellow,cross
656.0,7.0,3.0,1.0,1.0,1.0,396.402690999821,3.0,1.0,part_1,,,,,,,,,,,,,gray,triangle
165.0,1.0,1.0,0.0,4.0,4.0,332.2304200000872,3.0,1.0,part_1,,,,,,,,,,,,,yellow,cross
325.0,6.0,2.0,1.0,2.0,2.0,433.4693589999006,3.0,1.0,part_1,,,,,,,,,,,,,cyan,square
1321.0,8.0,4.0,1.0,3.0,3.0,397.1268289997169,3.0,1.0,part_1,,,,,,,,,,,,,blue,circle
633.0,7.0,3.0,1.0,4.0,4.0,374.35216199992277,3.0,1.0,part_1,,,,,,,,,,,,,gray,triangle
658.0,7.0,3.0,1.0,1.0,1.0,377.8122749999966,3.0,1.0,part_1,,,,,,,,,,,,,gray,triangle
0.0,8.0,0.0,1.0,2.0,2.0,424.8035450000316,3.0,1.0,part_1,,,,,,,,,,,,,blue,circle
670.0,3.0,3.0,0.0,1.0,1.0,405.874471000061,3.0,1.0,part_1,,,,,,,,,,,,,magenta,diamond
162.0,1.0,1.0,0.0,1.0,1.0,350.8483259993227,3.0,1.0,part_1,,,,,,,,,,,,,yellow,cross
648.0,3.0,3.0,0.0,1.0,1.0,350.0060910000684,3.0,1.0,part_1,,,,,,,,,,,,,magenta,diamond
350.0,6.0,2.0,1.0,2.0,2.0,432.3242099999334,3.0,1.0,part_1,,,,,,,,,,,,,cyan,square
155.0,5.0,1.0,1.0,2.0,2.0,434.8081520001869,3.0,1.0,part_1,,,,,,,,,,,,,white,flipped triangle
155.0,1.0,1.0,0.0,4.0,4.0,377.8963699996893,3.0,1.0,part_1,,,,,,,,,,,,,yellow,cross
0.0,7.0,0.0,1.0,2.0,2.0,424.721361999218,3.0,1.0,part_1,,,,,,,,,,,,,gray,triangle
644.0,3.0,3.0,0.0,2.0,2.0,415.0961949999328,3.0,1.0,part_1,,,,,,,,,,,,,magenta,diamond
0.0,7.0,0.0,1.0,3.0,3.0,423.9910710002732,3.0,1.0,part_1,,,,,,,,,,,,,gray,triangle
349.0,6.0,2.0,1.0,2.0,2.0,398.0506530006096,3.0,1.0,part_1,,,,,,,,,,,,,cyan,square
177.0,5.0,1.0,1.0,1.0,1.0,388.9420550003706,3.0,2.0,part_1,,,,,,,,,,,,,white,flipped triangle
1315.0,8.0,4.0,1.0,4.0,4.0,341.0088040000119,3.0,1.0,part_1,,,,,,,,,,,,,blue,circle
1312.0,8.0,4.0,1.0,2.0,2.0,506.7645420003828,3.0,1.0,part_1,,,,,,,,,,,,,blue,circle
642.0,7.0,3.0,1.0,4.0,4.0,369.4226119996529,3.0,1.0,part_1,,,,,,,,,,,,,gray,triangle
303.0,2.0,2.0,0.0,3.0,3.0,719.8746639996898,4.0,1.0,part_1,,,,,,,,,,,,,orange,I
1322.0,4.0,4.0,0.0,1.0,1.0,361.1692839995157,4.0,1.0,part_1,,,,,,,,,,,,,green,hexagon
178.0,1.0,1.0,0.0,2.0,2.0,353.0902740003512,4.0,1.0,part_1,,,,,,,,,,,,,yellow,cross
649.0,7.0,3.0,1.0,4.0,4.0,351.1508949995914,4.0,1.0,part_1,,,,,,,,,,,,,gray,triangle
160.0,1.0,1.0,0.0,2.0,2.0,360.9571580000192,4.0,1.0,part_1,,,,,,,,,,,,,yellow,cross
350.0,2.0,2.0,0.0,2.0,2.0,379.4428510000216,4.0,1.0,part_1,,,,,,,,,,,,,orange,I
182.0,1.0,1.0,0.0,2.0,2.0,398.5845060005886,4.0,1.0,part_1,,,,,,,,,,,,,yellow,cross
656.0,7.0,3.0,1.0,3.0,3.0,407.4079179999899,4.0,1.0,part_1,,,,,,,,,,,,,gray,triangle
182.0,1.0,1.0,0.0,1.0,1.0,425.0548150002942,4.0,1.0,part_1,,,,,,,,,,,,,yellow,cross
0.0,2.0,0.0,0.0,2.0,2.0,581.27906000027,4.0,1.0,part_1,,,,,,,,,,,,,orange,I
655.0,3.0,3.0,0.0,2.0,2.0,370.6490320000739,4.0,1.0,part_1,,,,,,,,,,,,,magenta,diamond
183.0,5.0,1.0,1.0,3.0,3.0,344.4553189992803,4.0,1.0,part_1,,,,,,,,,,,,,white,flipped triangle
626.0,3.0,3.0,0.0,2.0,2.0,416.6801860001214,4.0,1.0,part_1,,,,,,,,,,,,,magenta,diamond
340.0,6.0,2.0,1.0,1.0,1.0,480.6807830000252,4.0,1.0,part_1,,,,,,,,,,,,,cyan,square
172.0,5.0,1.0,1.0,3.0,3.0,361.4678080002704,4.0,1.0,part_1,,,,,,,,,,,,,white,flipped triangle
0.0,7.0,0.0,1.0,2.0,2.0,434.8281599995971,4.0,1.0,part_1,,,,,,,,,,,,,gray,triangle
1287.0,4.0,4.0,0.0,3.0,3.0,370.0499130000025,4.0,1.0,part_1,,,,,,,,,,,,,green,hexagon
141.0,1.0,1.0,0.0,4.0,4.0,351.6744429998653,4.0,1.0,part_1,,,,,,,,,,,,,yellow,cross
1323.0,8.0,4.0,1.0,2.0,2.0,387.5662179998471,4.0,1.0,part_1,,,,,,,,,,,,,blue,circle
150.0,1.0,1.0,0.0,2.0,2.0,351.9115019998935,4.0,1.0,part_1,,,,,,,,,,,,,yellow,cross
304.0,2.0,2.0,0.0,3.0,3.0,332.7885499993499,4.0,1.0,part_1,,,,,,,,,,,,,orange,I
1300.0,4.0,4.0,0.0,4.0,4.0,415.6516160001047,4.0,1.0,part_1,,,,,,,,,,,,,green,hexagon
667.0,7.0,3.0,1.0,4.0,4.0,341.6298629999801,4.0,1.0,part_1,,,,,,,,,,,,,gray,triangle
0.0,4.0,0.0,0.0,2.0,2.0,452.7939249992414,4.0,1.0,part_1,,,,,,,,,,,,,green,hexagon
1316.0,4.0,4.0,0.0,1.0,1.0,379.2149150003752,4.0,1.0,part_1,,,,,,,,,,,,,green,hexagon
0.0,4.0,0.0,0.0,3.0,3.0,324.1391840001597,4.0,1.0,part_1,,,,,,,,,,,,,green,hexagon
1288.0,4.0,4.0,0.0,2.0,2.0,387.9195210001853,4.0,1.0,part_1,,,,,,,,,,,,,green,hexagon
0.0,2.0,0.0,0.0,4.0,4.0,334.0217980003217,4.0,1.0,part_1,,,,,,,,,,,,,orange,I
631.0,3.0,3.0,0.0,3.0,3.0,397.793174999606,4.0,1.0,part_1,,,,,,,,,,,,,magenta,diamond
151.0,1.0,1.0,0.0,3.0,3.0,397.4656509999477,4.0,1.0,part_1,,,,,,,,,,,,,yellow,cross
332.0,6.0,2.0,1.0,4.0,4.0,370.4681649996928,4.0,1.0,part_1,,,,,,,,,,,,,cyan,square
0.0,1.0,0.0,0.0,2.0,2.0,351.0245920006127,4.0,1.0,part_1,,,,,,,,,,,,,yellow,cross
315.0,2.0,2.0,0.0,2.0,2.0,406.9035209995491,4.0,1.0,part_1,,,,,,,,,,,,,orange,I
161.0,5.0,1.0,1.0,1.0,1.0,360.2173159997619,4.0,1.0,part_1,,,,,,,,,,,,,white,flipped triangle
0.0,6.0,0.0,1.0,1.0,1.0,341.9000559997585,4.0,1.0,part_1,,,,,,,,,,,,,cyan,square
161.0,5.0,1.0,1.0,2.0,2.0,370.1078869999037,4.0,1.0,part_1,,,,,,,,,,,,,white,flipped triangle
1291.0,4.0,4.0,0.0,4.0,4.0,332.8818840000167,4.0,1.0,part_1,,,,,,,,,,,,,green,hexagon
331.0,6.0,2.0,1.0,1.0,1.0,454.3308439997418,4.0,1.0,part_1,,,,,,,,,,,,,cyan,square
141.0,5.0,1.0,1.0,2.0,2.0,387.6705530001345,4.0,1.0,part_1,,,,,,,,,,,,,white,flipped triangle
0.0,3.0,0.0,0.0,4.0,4.0,378.1359029999294,4.0,1.0,part_1,,,,,,,,,,,,,magenta,diamond
1311.0,4.0,4.0,0.0,1.0,1.0,369.1229900005055,4.0,2.0,part_1,,,,,,,,,,,,,green,hexagon
1298.0,8.0,4.0,1.0,1.0,1.0,396.7295359998388,4.0,1.0,part_1,,,,,,,,,,,,,blue,circle
1321.0,4.0,4.0,0.0,4.0,4.0,386.65919400045817,4.0,1.0,part_1,,,,,,,,,,,,,green,hexagon
0.0,1.0,0.0,0.0,1.0,1.0,461.2067879997994,4.0,1.0,part_1,,,,,,,,,,,,,yellow,cross
629.0,7.0,3.0,1.0,3.0,3.0,517.6495199993951,4.0,1.0,part_1,,,,,,,,,,,,,gray,triangle
1321.0,8.0,4.0,1.0,4.0,4.0,350.71951899954,4.0,1.0,part_1,,,,,,,,,,,,,blue,circle
168.0,1.0,1.0,0.0,1.0,1.0,405.0353960001303,4.0,1.0,part_1,,,,,,,,,,,,,yellow,cross
642.0,7.0,3.0,1.0,1.0,1.0,368.3621340005629,4.0,1.0,part_1,,,,,,,,,,,,,gray,triangle
0.0,4.0,0.0,0.0,4.0,4.0,359.0493989995593,4.0,1.0,part_1,,,,,,,,,,,,,green,hexagon
178.0,5.0,1.0,1.0,2.0,2.0,423.0323189995033,4.0,1.0,part_1,,,,,,,,,,,,,white,flipped triangle
641.0,7.0,3.0,1.0,1.0,1.0,350.7555369997135,4.0,1.0,part_1,,,,,,,,,,,,,gray,triangle
0.0,7.0,0.0,1.0,1.0,1.0,397.0626410000477,4.0,1.0,part_1,,,,,,,,,,,,,gray,triangle
1278.0,4.0,4.0,0.0,2.0,2.0,433.5109470002862,4.0,1.0,part_1,,,,,,,,,,,,,green,hexagon
154.0,5.0,1.0,1.0,4.0,4.0,405.7167869996192,4.0,1.0,part_1,,,,,,,,,,,,,white,flipped triangle
165.0,5.0,1.0,1.0,3.0,3.0,387.1007380002993,4.0,1.0,part_1,,,,,,,,,,,,,white,flipped triangle
1278.0,8.0,4.0,1.0,2.0,2.0,405.8071680001376,4.0,1.0,part_1,,,,,,,,,,,,,blue,circle
320.0,2.0,2.0,0.0,1.0,1.0,405.8180269994409,4.0,1.0,part_1,,,,,,,,,,,,,orange,I
1297.0,8.0,4.0,1.0,4.0,4.0,379.217984999741,4.0,1.0,part_1,,,,,,,,,,,,,blue,circle
0.0,4.0,0.0,0.0,2.0,2.0,370.3140659999917,4.0,1.0,part_1,,,,,,,,,,,,,green,hexagon
0.0,5.0,0.0,1.0,1.0,1.0,388.7703419995887,4.0,1.0,part_1,,,,,,,,,,,,,white,flipped triangle
300.0,2.0,2.0,0.0,4.0,4.0,397.25975500005,4.0,1.0,part_1,,,,,,,,,,,,,orange,I
186.0,1.0,1.0,0.0,4.0,4.0,314.6920230001342,4.0,1.0,part_1,,,,,,,,,,,,,yellow,cross
0.0,1.0,0.0,0.0,1.0,1.0,388.1741530003637,4.0,1.0,part_1,,,,,,,,,,,,,yellow,cross
0.0,2.0,0.0,0.0,2.0,2.0,360.3764059998866,4.0,1.0,part_1,,,,,,,,,,,,,orange,I
1303.0,8.0,4.0,1.0,2.0,2.0,361.4941160003582,4.0,1.0,part_1,,,,,,,,,,,,,blue,circle
633.0,3.0,3.0,0.0,3.0,3.0,360.3442939993329,4.0,1.0,part_1,,,,,,,,,,,,,magenta,diamond
0.0,5.0,0.0,1.0,2.0,2.0,369.4347390000985,4.0,1.0,part_1,,,,,,,,,,,,,white,flipped triangle
331.0,6.0,2.0,1.0,4.0,4.0,387.5348479996319,4.0,1.0,part_1,,,,,,,,,,,,,cyan,square
1296.0,8.0,4.0,1.0,1.0,1.0,415.1364440003817,4.0,1.0,part_1,,,,,,,,,,,,,blue,circle
304.0,6.0,2.0,1.0,2.0,2.0,397.4699780001174,4.0,1.0,part_1,,,,,,,,,,,,,cyan,square
0.0,4.0,0.0,0.0,4.0,4.0,387.2633839991977,4.0,1.0,part_1,,,,,,,,,,,,,green,hexagon
170.0,5.0,1.0,1.0,1.0,1.0,434.5479759995214,4.0,1.0,part_1,,,,,,,,,,,,,white,flipped triangle
144.0,1.0,1.0,0.0,1.0,1.0,628.5468440000841,4.0,1.0,part_1,,,,,,,,,,,,,yellow,cross
180.0,5.0,1.0,1.0,1.0,1.0,397.2597189995213,4.0,1.0,part_1,,,,,,,,,,,,,white,flipped triangle
1296.0,4.0,4.0,0.0,4.0,4.0,359.1428629997608,4.0,1.0,part_1,,,,,,,,,,,,,green,hexagon
340.0,2.0,2.0,0.0,2.0,2.0,600.0732299999072,4.0,1.0,part_1,,,,,,,,,,,,,orange,I
0.0,6.0,0.0,1.0,2.0,2.0,489.0238600000884,4.0,1.0,part_1,,,,,,,,,,,,,cyan,square
663.0,7.0,3.0,1.0,2.0,2.0,397.0261869999376,4.0,1.0,part_1,,,,,,,,,,,,,gray,triangle
1304.0,4.0,4.0,0.0,1.0,1.0,424.1525600000386,4.0,1.0,part_1,,,,,,,,,,,,,green,hexagon
1313.0,4.0,4.0,0.0,3.0,3.0,581.7849119994207,4.0,1.0,part_1,,,,,,,,,,,,,green,hexagon
161.0,1.0,1.0,0.0,1.0,1.0,481.2666369998624,4.0,1.0,part_1,,,,,,,,,,,,,yellow,cross
628.0,7.0,3.0,1.0,3.0,3.0,435.2362240006187,4.0,1.0,part_1,,,,,,,,,,,,,gray,triangle
329.0,2.0,2.0,0.0,2.0,2.0,526.5207820002615,4.0,1.0,part_1,,,,,,,,,,,,,orange,I
644.0,7.0,3.0,1.0,1.0,1.0,425.0874480003404,4.0,1.0,part_1,,,,,,,,,,,,,gray,triangle
666.0,3.0,3.0,0.0,3.0,3.0,368.6931059992275,4.0,1.0,part_1,,,,,,,,,,,,,magenta,diamond
0.0,8.0,0.0,1.0,4.0,4.0,453.2775819998278,4.0,1.0,part_1,,,,,,,,,,,,,blue,circle
630.0,3.0,3.0,0.0,3.0,3.0,388.2419060000757,4.0,1.0,part_1,,,,,,,,,,,,,magenta,diamond
153.0,5.0,1.0,1.0,4.0,4.0,388.1229970002096,4.0,1.0,part_1,,,,,,,,,,,,,white,flipped triangle
655.0,7.0,3.0,1.0,1.0,1.0,461.6007269996771,4.0,1.0,part_1,,,,,,,,,,,,,gray,triangle
637.0,3.0,3.0,0.0,4.0,4.0,342.1757440000874,4.0,1.0,part_1,,,,,,,,,,,,,magenta,diamond
653.0,3.0,3.0,0.0,4.0,4.0,331.6809960006139,4.0,1.0,part_1,,,,,,,,,,,,,magenta,diamond
0.0,5.0,0.0,1.0,1.0,1.0,389.2324549997283,4.0,1.0,part_1,,,,,,,,,,,,,white,flipped triangle
168.0,5.0,1.0,1.0,4.0,4.0,396.9690349995289,4.0,1.0,part_1,,,,,,,,,,,,,white,flipped triangle
162.0,1.0,1.0,0.0,4.0,4.0,351.3393170005656,4.0,1.0,part_1,,,,,,,,,,,,,yellow,cross
1295.0,4.0,4.0,0.0,4.0,4.0,332.1756329996788,4.0,1.0,part_1,,,,,,,,,,,,,green,hexagon
663.0,3.0,3.0,0.0,4.0,4.0,332.4772710002435,4.0,1.0,part_1,,,,,,,,,,,,,magenta,diamond
345.0,6.0,2.0,1.0,2.0,2.0,499.0079579993107,4.0,1.0,part_1,,,,,,,,,,,,,cyan,square
649.0,3.0,3.0,0.0,4.0,4.0,379.3290100002195,4.0,1.0,part_1,,,,,,,,,,,,,magenta,diamond
156.0,1.0,1.0,0.0,1.0,1.0,415.7499960001587,4.0,1.0,part_1,,,,,,,,,,,,,yellow,cross
1309.0,8.0,4.0,1.0,3.0,3.0,351.0657890001312,4.0,1.0,part_1,,,,,,,,,,,,,blue,circle
0.0,6.0,2.0,1.0,5.0,5.0,609.5562830005292,1.0,0.0,part_2,go,250.0,250.0,1.0,,,,,,,,,cyan,square
0.0,2.0,2.0,0.0,5.0,5.0,406.3620420001825,1.0,0.0,part_2,go,250.0,250.0,1.0,,,,,,,,,orange,I
0.0,4.0,4.0,0.0,5.0,5.0,543.4040649997769,1.0,0.0,part_2,go,250.0,250.0,1.0,,,,,,,,,green,hexagon
0.0,7.0,3.0,1.0,5.0,0.0,0.0,1.0,0.0,part_2,stop,250.0,250.0,4.0,,,,,,,,,gray,triangle
0.0,1.0,1.0,0.0,5.0,5.0,677.8103550004744,1.0,0.0,part_2,go,300.0,250.0,1.0,,,,,,,,,yellow,cross
0.0,4.0,4.0,0.0,6.0,6.0,474.4411069996204,1.0,0.0,part_2,go,300.0,250.0,1.0,,,,,,,,,green,hexagon
0.0,6.0,2.0,1.0,6.0,0.0,0.0,1.0,0.0,part_2,stop,300.0,250.0,4.0,,,,,,,,,cyan,square
0.0,4.0,4.0,0.0,5.0,5.0,677.5642960001278,1.0,0.0,part_2,go,300.0,300.0,1.0,,,,,,,,,green,hexagon
0.0,2.0,2.0,0.0,5.0,5.0,706.6887619994304,1.0,0.0,part_2,go,300.0,300.0,1.0,,,,,,,,,orange,I
0.0,1.0,1.0,0.0,6.0,6.0,573.6546640000597,1.0,0.0,part_2,go,300.0,300.0,1.0,,,,,,,,,yellow,cross
0.0,1.0,1.0,0.0,6.0,6.0,787.9763669998283,1.0,0.0,part_2,go,300.0,300.0,1.0,,,,,,,,,yellow,cross
0.0,5.0,1.0,1.0,5.0,0.0,0.0,1.0,0.0,part_2,stop,300.0,300.0,4.0,,,,,,,,,white,flipped triangle
0.0,4.0,4.0,0.0,6.0,6.0,612.6510240001153,1.0,0.0,part_2,go,350.0,300.0,1.0,,,,,,,,,green,hexagon
0.0,4.0,4.0,0.0,5.0,5.0,705.6138130001273,1.0,0.0,part_2,go,350.0,300.0,1.0,,,,,,,,,green,hexagon
0.0,1.0,1.0,0.0,5.0,5.0,930.4406170003858,1.0,0.0,part_2,go,350.0,300.0,1.0,,,,,,,,,yellow,cross
0.0,5.0,1.0,1.0,5.0,0.0,0.0,1.0,0.0,part_2,stop,350.0,300.0,4.0,,,,,,,,,white,flipped triangle
0.0,8.0,4.0,1.0,5.0,0.0,0.0,1.0,0.0,part_2,stop,400.0,300.0,4.0,,,,,,,,,blue,circle
0.0,8.0,4.0,1.0,5.0,0.0,0.0,1.0,0.0,part_2,stop,450.0,300.0,4.0,,,,,,,,,blue,circle
0.0,3.0,3.0,0.0,5.0,5.0,639.298773999144,1.0,0.0,part_2,go,500.0,300.0,1.0,,,,,,,,,magenta,diamond
0.0,4.0,4.0,0.0,5.0,5.0,771.1647460000677,1.0,0.0,part_2,go,500.0,300.0,1.0,,,,,,,,,green,hexagon
0.0,7.0,3.0,1.0,5.0,0.0,0.0,1.0,0.0,part_2,stop,500.0,300.0,4.0,,,,,,,,,gray,triangle
0.0,2.0,2.0,0.0,6.0,6.0,896.2290290000965,1.0,0.0,part_2,go,550.0,300.0,1.0,,,,,,,,,orange,I
0.0,7.0,3.0,1.0,6.0,0.0,0.0,1.0,0.0,part_2,stop,550.0,300.0,4.0,,,,,,,,,gray,triangle
0.0,4.0,4.0,0.0,6.0,6.0,835.7238950002284,1.0,0.0,part_2,go,550.0,350.0,1.0,,,,,,,,,green,hexagon
0.0,3.0,3.0,0.0,6.0,6.0,715.3075400001399,1.0,0.0,part_2,go,550.0,350.0,1.0,,,,,,,,,magenta,diamond
0.0,5.0,1.0,1.0,5.0,0.0,0.0,1.0,0.0,part_2,stop,550.0,350.0,4.0,,,,,,,,,white,flipped triangle
0.0,3.0,3.0,0.0,6.0,6.0,837.9225810003845,1.0,0.0,part_2,go,600.0,350.0,1.0,,,,,,,,,magenta,diamond
0.0,4.0,4.0,0.0,5.0,5.0,798.6420440001893,1.0,0.0,part_2,go,600.0,350.0,1.0,,,,,,,,,green,hexagon
0.0,7.0,3.0,1.0,6.0,0.0,0.0,1.0,0.0,part_2,stop,600.0,350.0,4.0,,,,,,,,,gray,triangle
0.0,2.0,2.0,0.0,6.0,6.0,396.8433370000639,1.0,0.0,part_2,go,600.0,400.0,1.0,,,,,,,,,orange,I
0.0,4.0,4.0,0.0,6.0,6.0,612.7545740000642,1.0,0.0,part_2,go,600.0,400.0,1.0,,,,,,,,,green,hexagon
0.0,8.0,4.0,1.0,6.0,6.0,641.9729700000971,1.0,0.0,part_2,go,600.0,400.0,1.0,,,,,,,,,blue,circle
0.0,3.0,3.0,0.0,5.0,5.0,781.0613279998506,1.0,0.0,part_2,go,600.0,400.0,1.0,,,,,,,,,magenta,diamond
0.0,8.0,4.0,1.0,5.0,5.0,654.7435860002224,1.0,0.0,part_2,stop,600.0,400.0,3.0,,,,,,,,,blue,circle
0.0,5.0,1.0,1.0,5.0,0.0,0.0,1.0,0.0,part_2,stop,550.0,400.0,4.0,,,,,,,,,white,flipped triangle
0.0,2.0,2.0,0.0,5.0,5.0,1006.232048000129,1.0,0.0,part_2,go,600.0,400.0,1.0,,,,,,,,,orange,I
0.0,4.0,4.0,0.0,6.0,6.0,511.3573290000204,2.0,0.0,part_2,go,600.0,400.0,1.0,,,,,,,,,green,hexagon
0.0,4.0,4.0,0.0,5.0,5.0,436.3559989997156,2.0,0.0,part_2,go,600.0,400.0,1.0,,,,,,,,,green,hexagon
0.0,5.0,1.0,1.0,6.0,6.0,362.915226000041,2.0,0.0,part_2,go,600.0,400.0,1.0,,,,,,,,,white,flipped triangle
0.0,5.0,1.0,1.0,6.0,6.0,391.0520950003047,2.0,0.0,part_2,go,600.0,400.0,1.0,,,,,,,,,white,flipped triangle
0.0,8.0,4.0,1.0,5.0,5.0,559.5993339993584,2.0,0.0,part_2,stop,600.0,400.0,3.0,,,,,,,,,blue,circle
0.0,8.0,4.0,1.0,6.0,6.0,696.1568579999948,2.0,0.0,part_2,go,550.0,400.0,1.0,,,,,,,,,blue,circle
0.0,5.0,1.0,1.0,5.0,5.0,595.2038800005539,2.0,0.0,part_2,stop,550.0,400.0,3.0,,,,,,,,,white,flipped triangle
0.0,1.0,1.0,0.0,6.0,6.0,420.3759249994618,2.0,0.0,part_2,go,500.0,400.0,1.0,,,,,,,,,yellow,cross
0.0,3.0,3.0,0.0,5.0,5.0,787.9048549993968,2.0,0.0,part_2,go,500.0,400.0,1.0,,,,,,,,,magenta,diamond
0.0,3.0,3.0,0.0,5.0,5.0,719.4690799997261,2.0,0.0,part_2,go,500.0,400.0,1.0,,,,,,,,,magenta,diamond
0.0,4.0,4.0,0.0,6.0,6.0,363.1460399992647,2.0,0.0,part_2,go,500.0,400.0,1.0,,,,,,,,,green,hexagon
0.0,2.0,2.0,0.0,6.0,6.0,492.5130050005464,2.0,0.0,part_2,go,500.0,400.0,1.0,,,,,,,,,orange,I
0.0,5.0,1.0,1.0,6.0,0.0,0.0,2.0,0.0,part_2,stop,500.0,400.0,4.0,,,,,,,,,white,flipped triangle
0.0,4.0,4.0,0.0,6.0,6.0,474.8445730001549,2.0,0.0,part_2,go,500.0,450.0,1.0,,,,,,,,,green,hexagon
0.0,7.0,3.0,1.0,6.0,6.0,634.2408520004028,2.0,0.0,part_2,stop,500.0,450.0,3.0,,,,,,,,,gray,triangle
0.0,8.0,4.0,1.0,6.0,0.0,0.0,2.0,0.0,part_2,stop,500.0,400.0,4.0,,,,,,,,,blue,circle
0.0,1.0,1.0,0.0,5.0,5.0,632.2976580004251,2.0,0.0,part_2,go,500.0,450.0,1.0,,,,,,,,,yellow,cross
0.0,7.0,3.0,1.0,6.0,6.0,466.4881400003651,2.0,0.0,part_2,go,500.0,450.0,1.0,,,,,,,,,gray,triangle
0.0,8.0,4.0,1.0,6.0,6.0,660.900820000279,2.0,0.0,part_2,go,500.0,450.0,1.0,,,,,,,,,blue,circle
0.0,3.0,3.0,0.0,6.0,6.0,493.1901859999925,2.0,0.0,part_2,go,500.0,450.0,1.0,,,,,,,,,magenta,diamond
0.0,7.0,3.0,1.0,5.0,5.0,582.5859070000661,2.0,0.0,part_2,stop,500.0,450.0,3.0,,,,,,,,,gray,triangle
0.0,4.0,4.0,0.0,6.0,6.0,522.8971449996607,2.0,0.0,part_2,go,450.0,450.0,1.0,,,,,,,,,green,hexagon
0.0,8.0,4.0,1.0,5.0,5.0,575.6823219999205,2.0,0.0,part_2,stop,450.0,450.0,3.0,,,,,,,,,blue,circle
0.0,2.0,2.0,0.0,6.0,6.0,466.3542930002222,2.0,0.0,part_2,go,400.0,450.0,1.0,,,,,,,,,orange,I
0.0,1.0,1.0,0.0,6.0,6.0,390.9900429998743,2.0,0.0,part_2,go,400.0,450.0,1.0,,,,,,,,,yellow,cross
0.0,2.0,2.0,0.0,6.0,6.0,707.278892999966,2.0,0.0,part_2,go,400.0,450.0,1.0,,,,,,,,,orange,I
0.0,8.0,4.0,1.0,6.0,6.0,572.6904119992469,2.0,0.0,part_2,stop,400.0,450.0,3.0,,,,,,,,,blue,circle
0.0,8.0,4.0,1.0,6.0,6.0,835.0560239996412,2.0,0.0,part_2,go,400.0,400.0,1.0,,,,,,,,,blue,circle
0.0,1.0,1.0,0.0,5.0,5.0,731.8935109997255,2.0,0.0,part_2,go,400.0,400.0,1.0,,,,,,,,,yellow,cross
0.0,6.0,2.0,1.0,5.0,5.0,481.914319999305,2.0,0.0,part_2,stop,400.0,400.0,3.0,,,,,,,,,cyan,square
0.0,3.0,3.0,0.0,5.0,5.0,872.7808950006875,2.0,0.0,part_2,go,350.0,400.0,1.0,,,,,,,,,magenta,diamond
0.0,3.0,3.0,0.0,6.0,6.0,583.0271679997168,2.0,0.0,part_2,go,350.0,400.0,1.0,,,,,,,,,magenta,diamond
0.0,8.0,4.0,1.0,5.0,0.0,0.0,2.0,0.0,part_2,stop,350.0,400.0,4.0,,,,,,,,,blue,circle
0.0,3.0,3.0,0.0,5.0,5.0,819.5817119994899,2.0,0.0,part_2,go,400.0,400.0,1.0,,,,,,,,,magenta,diamond
0.0,1.0,1.0,0.0,6.0,6.0,696.602124000492,2.0,0.0,part_2,go,400.0,400.0,1.0,,,,,,,,,yellow,cross
0.0,8.0,4.0,1.0,5.0,0.0,0.0,2.0,0.0,part_2,stop,400.0,400.0,4.0,,,,,,,,,blue,circle
0.0,5.0,1.0,1.0,6.0,6.0,431.2708980005482,3.0,0.0,part_2,stop,450.0,400.0,3.0,,,,,,,,,white,flipped triangle
0.0,4.0,4.0,0.0,6.0,6.0,671.0043269995367,3.0,0.0,part_2,go,450.0,350.0,1.0,,,,,,,,,green,hexagon
0.0,5.0,1.0,1.0,6.0,0.0,0.0,3.0,0.0,part_2,stop,450.0,350.0,4.0,,,,,,,,,white,flipped triangle
0.0,1.0,1.0,0.0,6.0,6.0,484.8984250002104,3.0,0.0,part_2,go,450.0,400.0,1.0,,,,,,,,,yellow,cross
0.0,7.0,3.0,1.0,6.0,6.0,696.0200869998516,3.0,0.0,part_2,go,450.0,400.0,1.0,,,,,,,,,gray,triangle
0.0,5.0,1.0,1.0,5.0,0.0,0.0,3.0,0.0,part_2,stop,450.0,400.0,4.0,,,,,,,,,white,flipped triangle
0.0,7.0,3.0,1.0,5.0,5.0,567.065115999867,3.0,0.0,part_2,go,500.0,400.0,1.0,,,,,,,,,gray,triangle
0.0,4.0,4.0,0.0,5.0,5.0,492.0292090000657,3.0,0.0,part_2,go,500.0,400.0,1.0,,,,,,,,,green,hexagon
0.0,3.0,3.0,0.0,5.0,5.0,446.7711739998776,3.0,0.0,part_2,go,500.0,400.0,1.0,,,,,,,,,magenta,diamond
0.0,1.0,1.0,0.0,5.0,5.0,556.109877000381,3.0,0.0,part_2,go,500.0,400.0,1.0,,,,,,,,,yellow,cross
0.0,1.0,1.0,0.0,5.0,5.0,640.6447859999389,3.0,0.0,part_2,go,500.0,400.0,1.0,,,,,,,,,yellow,cross
0.0,6.0,2.0,1.0,6.0,0.0,0.0,3.0,0.0,part_2,stop,500.0,400.0,4.0,,,,,,,,,cyan,square
0.0,1.0,1.0,0.0,6.0,6.0,622.0995949997814,3.0,0.0,part_2,go,500.0,450.0,1.0,,,,,,,,,yellow,cross
0.0,2.0,2.0,0.0,6.0,6.0,518.8218960001905,3.0,0.0,part_2,go,500.0,450.0,1.0,,,,,,,,,orange,I
0.0,7.0,3.0,1.0,5.0,0.0,0.0,3.0,0.0,part_2,stop,500.0,450.0,4.0,,,,,,,,,gray,triangle
0.0,1.0,1.0,0.0,5.0,5.0,596.2968160001765,3.0,0.0,part_2,go,550.0,450.0,1.0,,,,,,,,,yellow,cross
0.0,4.0,4.0,0.0,6.0,6.0,519.941757000197,3.0,0.0,part_2,go,550.0,450.0,1.0,,,,,,,,,green,hexagon
0.0,8.0,4.0,1.0,6.0,6.0,795.9183939992727,3.0,0.0,part_2,go,550.0,450.0,1.0,,,,,,,,,blue,circle
0.0,3.0,3.0,0.0,6.0,6.0,800.6325260002995,3.0,0.0,part_2,go,550.0,450.0,1.0,,,,,,,,,magenta,diamond
0.0,4.0,4.0,0.0,5.0,5.0,677.6876670001002,3.0,0.0,part_2,go,550.0,450.0,1.0,,,,,,,,,green,hexagon
0.0,1.0,1.0,0.0,5.0,5.0,464.5902370002659,3.0,0.0,part_2,go,550.0,450.0,1.0,,,,,,,,,yellow,cross
0.0,6.0,2.0,1.0,6.0,6.0,435.884165999596,3.0,0.0,part_2,stop,550.0,450.0,3.0,,,,,,,,,cyan,square
0.0,5.0,1.0,1.0,5.0,5.0,538.0328280007234,3.0,0.0,part_2,stop,550.0,400.0,3.0,,,,,,,,,white,flipped triangle
0.0,6.0,2.0,1.0,6.0,6.0,440.3199430007589,3.0,0.0,part_2,stop,500.0,400.0,3.0,,,,,,,,,cyan,square
0.0,1.0,1.0,0.0,5.0,5.0,652.5082349999138,3.0,0.0,part_2,go,500.0,350.0,1.0,,,,,,,,,yellow,cross
0.0,7.0,3.0,1.0,6.0,0.0,0.0,3.0,0.0,part_2,stop,500.0,350.0,4.0,,,,,,,,,gray,triangle
0.0,3.0,3.0,0.0,6.0,6.0,520.8080539996445,3.0,0.0,part_2,go,500.0,400.0,1.0,,,,,,,,,magenta,diamond
0.0,5.0,1.0,1.0,6.0,6.0,808.9409689991953,3.0,0.0,part_2,go,500.0,400.0,1.0,,,,,,,,,white,flipped triangle
0.0,8.0,4.0,1.0,5.0,5.0,649.561721000282,3.0,0.0,part_2,go,500.0,400.0,1.0,,,,,,,,,blue,circle
0.0,6.0,2.0,1.0,6.0,6.0,799.1956180003399,3.0,0.0,part_2,go,500.0,400.0,1.0,,,,,,,,,cyan,square
0.0,2.0,2.0,0.0,6.0,6.0,650.6838929999503,3.0,0.0,part_2,go,500.0,400.0,1.0,,,,,,,,,orange,I
0.0,7.0,3.0,1.0,6.0,0.0,0.0,3.0,0.0,part_2,stop,500.0,400.0,4.0,,,,,,,,,gray,triangle
0.0,4.0,4.0,0.0,6.0,6.0,640.8277410000665,3.0,0.0,part_2,go,500.0,450.0,1.0,,,,,,,,,green,hexagon
0.0,4.0,4.0,0.0,5.0,5.0,520.9033419996558,3.0,0.0,part_2,go,500.0,450.0,1.0,,,,,,,,,green,hexagon
0.0,6.0,2.0,1.0,5.0,5.0,677.7147269995112,3.0,0.0,part_2,go,500.0,450.0,1.0,,,,,,,,,cyan,square
0.0,4.0,4.0,0.0,6.0,6.0,706.6174289993796,3.0,0.0,part_2,go,500.0,450.0,1.0,,,,,,,,,green,hexagon
0.0,2.0,2.0,0.0,6.0,6.0,392.5299390002692,4.0,0.0,part_2,go,500.0,450.0,1.0,,,,,,,,,orange,I
0.0,2.0,2.0,0.0,6.0,6.0,389.9316790002558,4.0,0.0,part_2,go,500.0,450.0,1.0,,,,,,,,,orange,I
0.0,1.0,1.0,0.0,6.0,6.0,622.5542769998356,4.0,0.0,part_2,go,500.0,450.0,1.0,,,,,,,,,yellow,cross
0.0,2.0,2.0,0.0,5.0,5.0,484.2565339995417,4.0,0.0,part_2,go,500.0,450.0,1.0,,,,,,,,,orange,I
0.0,8.0,4.0,1.0,6.0,6.0,380.8963889996448,4.0,0.0,part_2,stop,500.0,450.0,3.0,,,,,,,,,blue,circle
0.0,4.0,4.0,0.0,5.0,5.0,390.3562679997776,4.0,0.0,part_2,go,500.0,400.0,1.0,,,,,,,,,green,hexagon
0.0,7.0,3.0,1.0,5.0,5.0,596.6944659994624,4.0,0.0,part_2,stop,500.0,400.0,3.0,,,,,,,,,gray,triangle
0.0,5.0,1.0,1.0,5.0,0.0,0.0,4.0,0.0,part_2,stop,450.0,400.0,4.0,,,,,,,,,white,flipped triangle
0.0,8.0,4.0,1.0,6.0,6.0,504.98023699947225,4.0,0.0,part_2,stop,500.0,400.0,3.0,,,,,,,,,blue,circle
0.0,1.0,1.0,0.0,6.0,6.0,418.5049140005503,4.0,0.0,part_2,go,500.0,350.0,1.0,,,,,,,,,yellow,cross
0.0,5.0,1.0,1.0,5.0,5.0,575.0724070003344,4.0,0.0,part_2,go,500.0,350.0,1.0,,,,,,,,,white,flipped triangle
0.0,6.0,2.0,1.0,5.0,5.0,372.3257589999775,4.0,0.0,part_2,go,500.0,350.0,1.0,,,,,,,,,cyan,square
0.0,2.0,2.0,0.0,5.0,5.0,410.3630999998131,4.0,0.0,part_2,go,500.0,350.0,1.0,,,,,,,,,orange,I
0.0,5.0,1.0,1.0,6.0,6.0,386.2094719997913,4.0,0.0,part_2,stop,500.0,350.0,3.0,,,,,,,,,white,flipped triangle
0.0,8.0,4.0,1.0,5.0,5.0,655.7109169998512,4.0,0.0,part_2,stop,500.0,300.0,3.0,,,,,,,,,blue,circle
0.0,4.0,4.0,0.0,5.0,5.0,763.0287609999868,4.0,0.0,part_2,go,450.0,300.0,1.0,,,,,,,,,green,hexagon
0.0,1.0,1.0,0.0,6.0,6.0,670.0046349997137,4.0,0.0,part_2,go,450.0,300.0,1.0,,,,,,,,,yellow,cross
0.0,7.0,3.0,1.0,6.0,6.0,668.5167449995788,4.0,0.0,part_2,go,450.0,300.0,1.0,,,,,,,,,gray,triangle
0.0,3.0,3.0,0.0,6.0,6.0,564.9422309998045,4.0,0.0,part_2,go,450.0,300.0,1.0,,,,,,,,,magenta,diamond
0.0,6.0,2.0,1.0,5.0,0.0,0.0,4.0,0.0,part_2,stop,450.0,300.0,4.0,,,,,,,,,cyan,square
0.0,1.0,1.0,0.0,5.0,5.0,548.5836729994844,4.0,0.0,part_2,go,500.0,300.0,1.0,,,,,,,,,yellow,cross
0.0,3.0,3.0,0.0,5.0,5.0,761.7449540002781,4.0,0.0,part_2,go,500.0,300.0,1.0,,,,,,,,,magenta,diamond
0.0,3.0,3.0,0.0,6.0,6.0,484.2637939991618,4.0,0.0,part_2,go,500.0,300.0,1.0,,,,,,,,,magenta,diamond
0.0,7.0,3.0,1.0,5.0,5.0,687.9258139997546,4.0,0.0,part_2,go,500.0,300.0,1.0,,,,,,,,,gray,triangle
0.0,1.0,1.0,0.0,6.0,6.0,705.4048139998486,4.0,0.0,part_2,go,500.0,300.0,1.0,,,,,,,,,yellow,cross
0.0,5.0,1.0,1.0,6.0,6.0,405.4694389997166,4.0,0.0,part_2,stop,500.0,300.0,3.0,,,,,,,,,white,flipped triangle
0.0,8.0,4.0,1.0,6.0,0.0,0.0,4.0,0.0,part_2,stop,500.0,250.0,4.0,,,,,,,,,blue,circle
0.0,6.0,2.0,1.0,6.0,6.0,530.4853719999301,4.0,0.0,part_2,go,500.0,300.0,1.0,,,,,,,,,cyan,square
0.0,6.0,2.0,1.0,6.0,6.0,380.5678770004306,4.0,0.0,part_2,stop,500.0,300.0,3.0,,,,,,,,,cyan,square
0.0,1.0,1.0,0.0,5.0,5.0,540.1631899994754,4.0,0.0,part_2,go,500.0,250.0,1.0,,,,,,,,,yellow,cross
0.0,3.0,3.0,0.0,5.0,5.0,483.7102190003861,4.0,0.0,part_2,go,500.0,250.0,1.0,,,,,,,,,magenta,diamond
0.0,7.0,3.0,1.0,5.0,5.0,398.6352669999178,4.0,0.0,part_2,stop,500.0,250.0,3.0,,,,,,,,,gray,triangle
0.0,7.0,3.0,1.0,5.0,5.0,446.6782579993378,4.0,0.0,part_2,stop,450.0,250.0,3.0,,,,,,,,,gray,triangle
0.0,5.0,1.0,1.0,6.0,0.0,0.0,4.0,0.0,part_2,stop,400.0,250.0,4.0,,,,,,,,,white,flipped triangle
0.0,5.0,1.0,1.0,6.0,6.0,389.9730049997743,4.0,0.0,part_2,go,400.0,300.0,1.0,,,,,,,,,white,flipped triangle
0.0,5.0,1.0,1.0,6.0,6.0,630.8308300003773,4.0,0.0,part_2,go,400.0,300.0,1.0,,,,,,,,,white,flipped triangle
0.0,3.0,3.0,0.0,5.0,5.0,389.189272999829,5.0,0.0,part_2,go,400.0,300.0,1.0,,,,,,,,,magenta,diamond
0.0,7.0,3.0,1.0,6.0,6.0,433.1501790002221,5.0,0.0,part_2,stop,400.0,300.0,3.0,,,,,,,,,gray,triangle
0.0,2.0,2.0,0.0,6.0,6.0,419.5855230000234,5.0,0.0,part_2,go,400.0,250.0,1.0,,,,,,,,,orange,I
0.0,1.0,1.0,0.0,6.0,6.0,417.1299610006826,5.0,0.0,part_2,go,400.0,250.0,1.0,,,,,,,,,yellow,cross
0.0,2.0,2.0,0.0,5.0,5.0,511.4199620002182,5.0,0.0,part_2,go,400.0,250.0,1.0,,,,,,,,,orange,I
0.0,2.0,2.0,0.0,5.0,5.0,382.4584940002751,5.0,0.0,part_2,go,400.0,250.0,1.0,,,,,,,,,orange,I
0.0,5.0,1.0,1.0,5.0,0.0,0.0,5.0,0.0,part_2,stop,400.0,250.0,4.0,,,,,,,,,white,flipped triangle
0.0,6.0,2.0,1.0,5.0,5.0,516.5230399998109,5.0,0.0,part_2,stop,450.0,250.0,3.0,,,,,,,,,cyan,square
0.0,6.0,2.0,1.0,5.0,0.0,0.0,5.0,0.0,part_2,stop,400.0,250.0,4.0,,,,,,,,,cyan,square
0.0,3.0,3.0,0.0,6.0,6.0,641.3491040002555,5.0,0.0,part_2,go,450.0,250.0,1.0,,,,,,,,,magenta,diamond
0.0,6.0,2.0,1.0,5.0,5.0,569.7851129998526,5.0,0.0,part_2,stop,450.0,250.0,3.0,,,,,,,,,cyan,square
0.0,1.0,1.0,0.0,5.0,5.0,425.3266460000304,5.0,0.0,part_2,go,400.0,250.0,1.0,,,,,,,,,yellow,cross
0.0,5.0,1.0,1.0,5.0,0.0,0.0,5.0,0.0,part_2,stop,400.0,250.0,4.0,,,,,,,,,white,flipped triangle
0.0,4.0,4.0,0.0,6.0,6.0,363.0058749995442,5.0,0.0,part_2,go,450.0,250.0,1.0,,,,,,,,,green,hexagon
0.0,8.0,4.0,1.0,5.0,5.0,790.6822860004468,5.0,0.0,part_2,go,450.0,250.0,1.0,,,,,,,,,blue,circle
0.0,3.0,3.0,0.0,6.0,6.0,435.5782439997711,5.0,0.0,part_2,go,450.0,250.0,1.0,,,,,,,,,magenta,diamond
0.0,7.0,3.0,1.0,6.0,6.0,686.7024240000319,5.0,0.0,part_2,go,450.0,250.0,1.0,,,,,,,,,gray,triangle
0.0,2.0,2.0,0.0,5.0,5.0,410.1726929993674,5.0,0.0,part_2,go,450.0,250.0,1.0,,,,,,,,,orange,I
0.0,2.0,2.0,0.0,6.0,6.0,409.9272419998669,5.0,0.0,part_2,go,450.0,250.0,1.0,,,,,,,,,orange,I
0.0,2.0,2.0,0.0,5.0,5.0,445.8409649996611,5.0,0.0,part_2,go,450.0,250.0,1.0,,,,,,,,,orange,I
0.0,5.0,1.0,1.0,5.0,0.0,0.0,5.0,0.0,part_2,stop,450.0,250.0,4.0,,,,,,,,,white,flipped triangle
0.0,3.0,3.0,0.0,6.0,6.0,390.0876899997456,5.0,0.0,part_2,go,500.0,250.0,1.0,,,,,,,,,magenta,diamond
0.0,7.0,3.0,1.0,5.0,5.0,598.1809380000414,5.0,0.0,part_2,stop,500.0,250.0,3.0,,,,,,,,,gray,triangle
0.0,3.0,3.0,0.0,6.0,6.0,577.2067749994676,5.0,0.0,part_2,go,450.0,250.0,1.0,,,,,,,,,magenta,diamond
0.0,6.0,2.0,1.0,5.0,5.0,522.8028660003474,5.0,0.0,part_2,stop,450.0,250.0,3.0,,,,,,,,,cyan,square
0.0,7.0,3.0,1.0,6.0,6.0,716.339925000284,5.0,0.0,part_2,go,400.0,250.0,1.0,,,,,,,,,gray,triangle
0.0,8.0,4.0,1.0,6.0,0.0,0.0,5.0,0.0,part_2,stop,400.0,250.0,4.0,,,,,,,,,blue,circle
0.0,7.0,3.0,1.0,6.0,0.0,0.0,5.0,0.0,part_2,stop,400.0,300.0,4.0,,,,,,,,,gray,triangle
0.0,8.0,4.0,1.0,5.0,0.0,0.0,5.0,0.0,part_2,stop,400.0,350.0,4.0,,,,,,,,,blue,circle
0.0,4.0,4.0,0.0,5.0,5.0,652.4398370002018,5.0,0.0,part_2,go,450.0,350.0,1.0,,,,,,,,,green,hexagon
0.0,3.0,3.0,0.0,6.0,6.0,761.0540050000054,5.0,0.0,part_2,go,450.0,350.0,1.0,,,,,,,,,magenta,diamond
0.0,6.0,2.0,1.0,6.0,0.0,0.0,5.0,0.0,part_2,stop,450.0,350.0,4.0,,,,,,,,,cyan,square
0.0,4.0,4.0,0.0,5.0,5.0,659.9855229997047,5.0,0.0,part_2,go,450.0,400.0,1.0,,,,,,,,,green,hexagon
0.0,1.0,1.0,0.0,5.0,5.0,426.9440179996309,5.0,0.0,part_2,go,450.0,400.0,1.0,,,,,,,,,yellow,cross
0.0,8.0,4.0,1.0,6.0,0.0,0.0,5.0,0.0,part_2,stop,450.0,400.0,4.0,,,,,,,,,blue,circle
0.0,6.0,2.0,1.0,6.0,6.0,538.2195480005976,5.0,0.0,part_2,stop,450.0,450.0,3.0,,,,,,,,,cyan,square
0.0,8.0,4.0,1.0,5.0,5.0,499.9389599997812,6.0,0.0,part_2,stop,450.0,400.0,3.0,,,,,,,,,blue,circle
0.0,3.0,3.0,0.0,6.0,6.0,428.5415169997577,6.0,0.0,part_2,go,400.0,400.0,1.0,,,,,,,,,magenta,diamond
0.0,8.0,4.0,1.0,6.0,0.0,0.0,6.0,0.0,part_2,stop,400.0,400.0,4.0,,,,,,,,,blue,circle
0.0,8.0,4.0,1.0,5.0,0.0,0.0,6.0,0.0,part_2,stop,400.0,450.0,4.0,,,,,,,,,blue,circle
0.0,3.0,3.0,0.0,5.0,5.0,445.5248699996446,6.0,0.0,part_2,go,450.0,450.0,1.0,,,,,,,,,magenta,diamond
0.0,5.0,1.0,1.0,5.0,5.0,437.3846389999016,6.0,0.0,part_2,stop,450.0,450.0,3.0,,,,,,,,,white,flipped triangle
0.0,4.0,4.0,0.0,6.0,6.0,520.9580139999161,6.0,0.0,part_2,go,400.0,450.0,1.0,,,,,,,,,green,hexagon
0.0,7.0,3.0,1.0,6.0,0.0,0.0,6.0,0.0,part_2,stop,400.0,450.0,4.0,,,,,,,,,gray,triangle
0.0,2.0,2.0,0.0,5.0,5.0,530.5914829996254,6.0,0.0,part_2,go,400.0,500.0,1.0,,,,,,,,,orange,I
0.0,8.0,4.0,1.0,5.0,0.0,0.0,6.0,0.0,part_2,stop,400.0,500.0,4.0,,,,,,,,,blue,circle
0.0,3.0,3.0,0.0,6.0,6.0,574.6062520001942,6.0,0.0,part_2,go,450.0,500.0,1.0,,,,,,,,,magenta,diamond
0.0,2.0,2.0,0.0,6.0,6.0,446.370528999978,6.0,0.0,part_2,go,450.0,500.0,1.0,,,,,,,,,orange,I
0.0,3.0,3.0,0.0,5.0,5.0,389.1507210000782,6.0,0.0,part_2,go,450.0,500.0,1.0,,,,,,,,,magenta,diamond
0.0,3.0,3.0,0.0,5.0,5.0,407.5383879999208,6.0,0.0,part_2,go,450.0,500.0,1.0,,,,,,,,,magenta,diamond
0.0,6.0,2.0,1.0,6.0,6.0,674.5571629999176,6.0,0.0,part_2,stop,450.0,500.0,3.0,,,,,,,,,cyan,square
0.0,2.0,2.0,0.0,5.0,5.0,427.2890799993547,6.0,0.0,part_2,go,450.0,450.0,1.0,,,,,,,,,orange,I
0.0,6.0,2.0,1.0,6.0,0.0,0.0,6.0,0.0,part_2,stop,450.0,450.0,4.0,,,,,,,,,cyan,square
0.0,3.0,3.0,0.0,5.0,5.0,418.2017820003239,6.0,0.0,part_2,go,450.0,500.0,1.0,,,,,,,,,magenta,diamond
0.0,6.0,2.0,1.0,5.0,0.0,0.0,6.0,0.0,part_2,stop,450.0,500.0,4.0,,,,,,,,,cyan,square
0.0,1.0,1.0,0.0,6.0,6.0,464.0863040003751,6.0,0.0,part_2,go,500.0,500.0,1.0,,,,,,,,,yellow,cross
0.0,1.0,1.0,0.0,6.0,6.0,454.0148289997887,6.0,0.0,part_2,go,500.0,500.0,1.0,,,,,,,,,yellow,cross
0.0,4.0,4.0,0.0,5.0,5.0,409.7001400004956,6.0,0.0,part_2,go,500.0,500.0,1.0,,,,,,,,,green,hexagon
0.0,7.0,3.0,1.0,5.0,0.0,0.0,6.0,0.0,part_2,stop,500.0,500.0,4.0,,,,,,,,,gray,triangle
0.0,1.0,1.0,0.0,5.0,5.0,436.2590880000425,6.0,0.0,part_2,go,550.0,500.0,1.0,,,,,,,,,yellow,cross
0.0,2.0,2.0,0.0,6.0,6.0,380.1641810005094,6.0,0.0,part_2,go,550.0,500.0,1.0,,,,,,,,,orange,I
0.0,1.0,1.0,0.0,6.0,6.0,372.0909209996534,6.0,0.0,part_2,go,550.0,500.0,1.0,,,,,,,,,yellow,cross
0.0,3.0,3.0,0.0,5.0,5.0,371.4162330006729,6.0,0.0,part_2,go,550.0,500.0,1.0,,,,,,,,,magenta,diamond
0.0,8.0,4.0,1.0,6.0,6.0,391.3405809998949,6.0,0.0,part_2,stop,550.0,500.0,3.0,,,,,,,,,blue,circle
0.0,7.0,3.0,1.0,5.0,0.0,0.0,6.0,0.0,part_2,stop,550.0,450.0,4.0,,,,,,,,,gray,triangle
0.0,4.0,4.0,0.0,5.0,5.0,399.1178039996157,6.0,0.0,part_2,go,600.0,450.0,1.0,,,,,,,,,green,hexagon
0.0,6.0,2.0,1.0,5.0,5.0,1302.23714100066,6.0,0.0,part_2,go,600.0,450.0,1.0,,,,,,,,,cyan,square
0.0,5.0,1.0,1.0,6.0,6.0,1116.0586930000136,6.0,0.0,part_2,go,600.0,450.0,1.0,,,,,,,,,white,flipped triangle
0.0,5.0,1.0,1.0,5.0,5.0,634.7635049996825,6.0,0.0,part_2,stop,600.0,450.0,3.0,,,,,,,,,white,flipped triangle
0.0,4.0,4.0,0.0,6.0,6.0,690.0028729996848,6.0,0.0,part_2,go,550.0,450.0,1.0,,,,,,,,,green,hexagon
0.0,3.0,3.0,0.0,5.0,5.0,454.4254430002183,6.0,0.0,part_2,go,550.0,450.0,1.0,,,,,,,,,magenta,diamond
0.0,8.0,4.0,1.0,6.0,0.0,0.0,6.0,0.0,part_2,stop,550.0,450.0,4.0,,,,,,,,,blue,circle
0.0,6.0,2.0,1.0,5.0,0.0,0.0,7.0,0.0,part_2,stop,550.0,500.0,4.0,,,,,,,,,cyan,square
0.0,7.0,3.0,1.0,6.0,0.0,0.0,7.0,0.0,part_2,stop,600.0,500.0,4.0,,,,,,,,,gray,triangle
0.0,8.0,4.0,1.0,6.0,6.0,820.6412100007583,7.0,0.0,part_2,go,600.0,550.0,1.0,,,,,,,,,blue,circle
0.0,4.0,4.0,0.0,6.0,6.0,473.0369810004049,7.0,0.0,part_2,go,600.0,550.0,1.0,,,,,,,,,green,hexagon
0.0,5.0,1.0,1.0,5.0,0.0,0.0,7.0,0.0,part_2,stop,600.0,550.0,4.0,,,,,,,,,white,flipped triangle
0.0,3.0,3.0,0.0,6.0,6.0,483.2358190005834,7.0,0.0,part_2,go,650.0,550.0,1.0,,,,,,,,,magenta,diamond
0.0,3.0,3.0,0.0,5.0,5.0,446.6507890001594,7.0,0.0,part_2,go,650.0,550.0,1.0,,,,,,,,,magenta,diamond
0.0,1.0,1.0,0.0,5.0,5.0,446.5938170005756,7.0,0.0,part_2,go,650.0,550.0,1.0,,,,,,,,,yellow,cross
0.0,6.0,2.0,1.0,5.0,0.0,0.0,7.0,0.0,part_2,stop,650.0,550.0,4.0,,,,,,,,,cyan,square
0.0,3.0,3.0,0.0,6.0,6.0,437.2244440000941,7.0,0.0,part_2,go,700.0,550.0,1.0,,,,,,,,,magenta,diamond
0.0,2.0,2.0,0.0,5.0,5.0,436.7946660004236,7.0,0.0,part_2,go,700.0,550.0,1.0,,,,,,,,,orange,I
0.0,7.0,3.0,1.0,5.0,0.0,0.0,7.0,0.0,part_2,stop,700.0,550.0,4.0,,,,,,,,,gray,triangle
0.0,8.0,4.0,1.0,6.0,0.0,0.0,7.0,0.0,part_2,stop,750.0,550.0,4.0,,,,,,,,,blue,circle
0.0,7.0,3.0,1.0,5.0,5.0,841.4323470005911,7.0,0.0,part_2,stop,750.0,600.0,3.0,,,,,,,,,gray,triangle
0.0,2.0,2.0,0.0,5.0,5.0,463.7913369997477,7.0,0.0,part_2,go,700.0,600.0,1.0,,,,,,,,,orange,I
0.0,6.0,2.0,1.0,5.0,0.0,0.0,7.0,0.0,part_2,stop,700.0,600.0,4.0,,,,,,,,,cyan,square
0.0,7.0,3.0,1.0,5.0,5.0,1302.4586860001364,7.0,0.0,part_2,go,750.0,600.0,1.0,,,,,,,,,gray,triangle
0.0,8.0,4.0,1.0,5.0,0.0,0.0,7.0,0.0,part_2,stop,750.0,600.0,4.0,,,,,,,,,blue,circle
0.0,5.0,1.0,1.0,5.0,0.0,0.0,7.0,0.0,part_2,stop,800.0,600.0,4.0,,,,,,,,,white,flipped triangle
0.0,7.0,3.0,1.0,5.0,5.0,997.0850339996103,7.0,0.0,part_2,stop,850.0,600.0,3.0,,,,,,,,,gray,triangle
0.0,2.0,2.0,0.0,6.0,6.0,537.063832000058,7.0,0.0,part_2,go,800.0,600.0,1.0,,,,,,,,,orange,I
0.0,1.0,1.0,0.0,6.0,6.0,389.6720759994423,7.0,0.0,part_2,go,800.0,600.0,1.0,,,,,,,,,yellow,cross
0.0,8.0,4.0,1.0,5.0,0.0,0.0,7.0,0.0,part_2,stop,800.0,600.0,4.0,,,,,,,,,blue,circle
0.0,1.0,1.0,0.0,6.0,6.0,780.3178280000793,7.0,0.0,part_2,go,850.0,600.0,1.0,,,,,,,,,yellow,cross
0.0,8.0,4.0,1.0,5.0,5.0,921.6748879998704,7.0,0.0,part_2,stop,850.0,600.0,3.0,,,,,,,,,blue,circle
0.0,1.0,1.0,0.0,5.0,5.0,446.5454360006333,7.0,0.0,part_2,go,800.0,600.0,1.0,,,,,,,,,yellow,cross
0.0,7.0,3.0,1.0,6.0,0.0,0.0,7.0,0.0,part_2,stop,800.0,600.0,4.0,,,,,,,,,gray,triangle
0.0,2.0,2.0,0.0,6.0,6.0,482.3073489997114,7.0,0.0,part_2,go,800.0,650.0,1.0,,,,,,,,,orange,I
0.0,4.0,4.0,0.0,6.0,6.0,361.0488659996917,7.0,0.0,part_2,go,800.0,650.0,1.0,,,,,,,,,green,hexagon
0.0,8.0,4.0,1.0,5.0,0.0,0.0,7.0,0.0,part_2,stop,800.0,650.0,4.0,,,,,,,,,blue,circle
0.0,7.0,3.0,1.0,5.0,0.0,0.0,7.0,0.0,part_2,stop,850.0,650.0,4.0,,,,,,,,,gray,triangle
0.0,8.0,4.0,1.0,6.0,0.0,0.0,7.0,0.0,part_2,go,900.0,650.0,5.0,,,,,,,,,blue,circle
0.0,6.0,2.0,1.0,5.0,5.0,1392.138383999736,7.0,0.0,part_2,go,900.0,650.0,1.0,,,,,,,,,cyan,square
0.0,7.0,3.0,1.0,6.0,0.0,0.0,7.0,0.0,part_2,stop,900.0,650.0,4.0,,,,,,,,,gray,triangle
0.0,4.0,4.0,0.0,6.0,6.0,529.8758980006824,7.0,0.0,part_2,go,900.0,700.0,1.0,,,,,,,,,green,hexagon
0.0,6.0,2.0,1.0,5.0,0.0,0.0,7.0,0.0,part_2,stop,900.0,700.0,4.0,,,,,,,,,cyan,square
0.0,5.0,1.0,1.0,6.0,6.0,698.7525680006001,8.0,0.0,part_2,stop,950.0,700.0,3.0,,,,,,,,,white,flipped triangle
0.0,2.0,2.0,0.0,5.0,5.0,446.7998059999445,8.0,0.0,part_2,go,950.0,650.0,1.0,,,,,,,,,orange,I
0.0,6.0,2.0,1.0,6.0,0.0,0.0,8.0,0.0,part_2,stop,950.0,650.0,4.0,,,,,,,,,cyan,square
0.0,5.0,1.0,1.0,6.0,6.0,1106.9442289999645,8.0,0.0,part_2,go,950.0,700.0,1.0,,,,,,,,,white,flipped triangle
0.0,2.0,2.0,0.0,6.0,6.0,520.5089499995665,8.0,0.0,part_2,go,950.0,700.0,1.0,,,,,,,,,orange,I
0.0,7.0,3.0,1.0,6.0,6.0,954.8966720003592,8.0,0.0,part_2,go,950.0,700.0,1.0,,,,,,,,,gray,triangle
0.0,4.0,4.0,0.0,5.0,5.0,464.2822489995524,8.0,0.0,part_2,go,950.0,700.0,1.0,,,,,,,,,green,hexagon
0.0,6.0,2.0,1.0,5.0,5.0,1075.933628000712,8.0,0.0,part_2,stop,950.0,700.0,3.0,,,,,,,,,cyan,square
0.0,5.0,1.0,1.0,5.0,0.0,0.0,8.0,0.0,part_2,stop,900.0,700.0,4.0,,,,,,,,,white,flipped triangle
0.0,6.0,2.0,1.0,6.0,0.0,0.0,8.0,0.0,part_2,stop,950.0,700.0,4.0,,,,,,,,,cyan,square
0.0,5.0,1.0,1.0,6.0,6.0,1087.1077840001817,8.0,0.0,part_2,go,950.0,750.0,1.0,,,,,,,,,white,flipped triangle
0.0,6.0,2.0,1.0,5.0,5.0,1311.3168359996052,8.0,0.0,part_2,go,950.0,750.0,1.0,,,,,,,,,cyan,square
0.0,6.0,2.0,1.0,6.0,0.0,0.0,8.0,0.0,part_2,stop,950.0,750.0,4.0,,,,,,,,,cyan,square
0.0,2.0,2.0,0.0,5.0,5.0,538.4303860000728,8.0,0.0,part_2,go,950.0,800.0,1.0,,,,,,,,,orange,I
0.0,6.0,2.0,1.0,6.0,0.0,0.0,8.0,0.0,part_2,stop,950.0,800.0,4.0,,,,,,,,,cyan,square
0.0,3.0,3.0,0.0,6.0,6.0,652.0221800001309,8.0,0.0,part_2,go,950.0,850.0,1.0,,,,,,,,,magenta,diamond
0.0,2.0,2.0,0.0,6.0,6.0,530.6900109999333,8.0,0.0,part_2,go,950.0,850.0,1.0,,,,,,,,,orange,I
0.0,6.0,2.0,1.0,6.0,0.0,0.0,8.0,0.0,part_2,stop,950.0,850.0,4.0,,,,,,,,,cyan,square
0.0,1.0,1.0,0.0,5.0,5.0,399.7946589997809,8.0,0.0,part_2,go,950.0,900.0,1.0,,,,,,,,,yellow,cross
0.0,5.0,1.0,1.0,6.0,0.0,0.0,8.0,0.0,part_2,stop,950.0,900.0,4.0,,,,,,,,,white,flipped triangle
0.0,7.0,3.0,1.0,6.0,0.0,0.0,8.0,0.0,part_2,stop,950.0,950.0,4.0,,,,,,,,,gray,triangle
0.0,5.0,1.0,1.0,6.0,0.0,0.0,8.0,0.0,part_2,stop,950.0,1000.0,4.0,,,,,,,,,white,flipped triangle
0.0,2.0,2.0,0.0,5.0,5.0,583.7587159994655,8.0,0.0,part_2,go,950.0,1050.0,1.0,,,,,,,,,orange,I
0.0,6.0,2.0,1.0,6.0,0.0,0.0,8.0,0.0,part_2,stop,950.0,1050.0,4.0,,,,,,,,,cyan,square
0.0,1.0,1.0,0.0,5.0,5.0,445.6643590001476,8.0,0.0,part_2,go,950.0,1100.0,1.0,,,,,,,,,yellow,cross
0.0,4.0,4.0,0.0,5.0,5.0,519.8288350002258,8.0,0.0,part_2,go,950.0,1100.0,1.0,,,,,,,,,green,hexagon
0.0,2.0,2.0,0.0,6.0,6.0,428.0282879999504,8.0,0.0,part_2,go,950.0,1100.0,1.0,,,,,,,,,orange,I
0.0,2.0,2.0,0.0,5.0,5.0,437.3433679993468,8.0,0.0,part_2,go,950.0,1100.0,1.0,,,,,,,,,orange,I
0.0,2.0,2.0,0.0,5.0,5.0,371.921279000162,8.0,0.0,part_2,go,950.0,1100.0,1.0,,,,,,,,,orange,I
0.0,3.0,3.0,0.0,5.0,5.0,344.4015539998872,8.0,0.0,part_2,go,950.0,1100.0,1.0,,,,,,,,,magenta,diamond
0.0,5.0,1.0,1.0,6.0,0.0,0.0,8.0,0.0,part_2,stop,950.0,1100.0,4.0,,,,,,,,,white,flipped triangle
0.0,7.0,3.0,1.0,5.0,0.0,0.0,8.0,0.0,part_2,stop,950.0,1150.0,4.0,,,,,,,,,gray,triangle
0.0,6.0,2.0,1.0,6.0,0.0,0.0,8.0,0.0,part_2,go,1000.0,1150.0,5.0,,,,,,,,,cyan,square
0.0,4.0,4.0,0.0,5.0,5.0,530.2471620007054,8.0,0.0,part_2,go,1000.0,1150.0,1.0,,,,,,,,,green,hexagon
0.0,1.0,1.0,0.0,6.0,6.0,398.7533740000799,8.0,0.0,part_2,go,1000.0,1150.0,1.0,,,,,,,,,yellow,cross
0.0,5.0,1.0,1.0,5.0,0.0,0.0,8.0,0.0,part_2,stop,1000.0,1150.0,4.0,,,,,,,,,white,flipped triangle
0.0,7.0,3.0,1.0,7.0,5.0,3794.8174579996703,1.0,1.0,part_3,go,0.0,0.0,0.0,173.0,1.0,519.0,1038.0,692.0,865.0,173.0,346.0,gray,triangle
0.0,4.0,4.0,0.0,7.0,3.0,4125.276294999821,1.0,1.0,part_3,go,0.0,0.0,0.0,770.0,5.0,616.0,308.0,770.0,924.0,462.0,154.0,green,hexagon
0.0,5.0,1.0,1.0,7.0,5.0,2520.0035050002043,1.0,1.0,part_3,go,0.0,0.0,0.0,308.0,2.0,616.0,924.0,770.0,462.0,308.0,154.0,white,flipped triangle
0.0,4.0,4.0,0.0,7.0,2.0,2626.5970300000845,1.0,1.0,part_3,go,0.0,0.0,0.0,1152.0,6.0,384.0,1152.0,192.0,768.0,576.0,960.0,green,hexagon
0.0,5.0,1.0,1.0,7.0,5.0,3049.260451999544,1.0,1.0,part_3,go,0.0,0.0,0.0,135.0,1.0,405.0,675.0,270.0,810.0,135.0,540.0,white,flipped triangle
0.0,5.0,1.0,1.0,7.0,4.0,3585.4713039998387,1.0,1.0,part_3,go,0.0,0.0,0.0,173.0,1.0,692.0,865.0,346.0,173.0,519.0,1038.0,white,flipped triangle
0.0,6.0,2.0,1.0,7.0,3.0,4747.223166999902,1.0,1.0,part_3,go,0.0,0.0,0.0,519.0,3.0,692.0,1038.0,519.0,346.0,173.0,865.0,cyan,square
0.0,1.0,1.0,0.0,7.0,4.0,2046.373076999771,1.0,1.0,part_3,go,0.0,0.0,0.0,346.0,2.0,1038.0,173.0,865.0,346.0,692.0,519.0,yellow,cross
0.0,8.0,4.0,1.0,7.0,3.0,2793.5796960000516,1.0,1.0,part_3,go,0.0,0.0,0.0,924.0,6.0,616.0,770.0,924.0,154.0,462.0,308.0,blue,circle
0.0,3.0,3.0,0.0,7.0,6.0,3309.408332000203,1.0,1.0,part_3,go,0.0,0.0,0.0,580.0,5.0,696.0,348.0,116.0,232.0,464.0,580.0,magenta,diamond
0.0,3.0,3.0,0.0,7.0,5.0,2507.3370400004933,1.0,1.0,part_3,go,0.0,0.0,0.0,576.0,3.0,1152.0,192.0,384.0,960.0,576.0,768.0,magenta,diamond
0.0,4.0,4.0,0.0,7.0,3.0,3928.481781000301,1.0,1.0,part_3,go,0.0,0.0,0.0,696.0,6.0,464.0,232.0,696.0,580.0,116.0,348.0,green,hexagon
0.0,8.0,4.0,1.0,7.0,3.0,2910.0806950000333,1.0,1.0,part_3,go,0.0,0.0,0.0,696.0,6.0,580.0,116.0,696.0,464.0,232.0,348.0,blue,circle
0.0,6.0,2.0,1.0,7.0,3.0,3197.392308000417,1.0,1.0,part_3,go,0.0,0.0,0.0,696.0,6.0,116.0,232.0,696.0,348.0,464.0,580.0,cyan,square
0.0,8.0,4.0,1.0,7.0,5.0,2897.504339999614,1.0,1.0,part_3,go,0.0,0.0,0.0,1152.0,6.0,960.0,192.0,576.0,768.0,1152.0,384.0,blue,circle
0.0,2.0,2.0,0.0,7.0,5.0,3078.787043000375,1.0,1.0,part_3,go,0.0,0.0,0.0,308.0,2.0,462.0,770.0,154.0,616.0,308.0,924.0,orange,I
0.0,4.0,4.0,0.0,7.0,2.0,1993.2370110000193,1.0,1.0,part_3,go,0.0,0.0,0.0,1038.0,6.0,519.0,1038.0,346.0,865.0,173.0,692.0,green,hexagon
0.0,6.0,2.0,1.0,7.0,1.0,3464.199877000283,1.0,1.0,part_3,go,0.0,0.0,0.0,576.0,3.0,576.0,384.0,192.0,960.0,1152.0,768.0,cyan,square
0.0,1.0,1.0,0.0,7.0,2.0,2600.604324000414,1.0,1.0,part_3,go,0.0,0.0,0.0,346.0,2.0,1038.0,346.0,865.0,519.0,692.0,173.0,yellow,cross
0.0,7.0,3.0,1.0,7.0,6.0,1879.8956649998215,1.0,1.0,part_3,go,0.0,0.0,0.0,192.0,1.0,768.0,384.0,576.0,960.0,1152.0,192.0,gray,triangle
0.0,2.0,2.0,0.0,7.0,2.0,1964.0918609993605,2.0,1.0,part_3,go,0.0,0.0,0.0,405.0,3.0,810.0,405.0,270.0,540.0,135.0,675.0,orange,I
0.0,4.0,4.0,0.0,7.0,3.0,1772.3144350002258,2.0,1.0,part_3,go,0.0,0.0,0.0,810.0,6.0,270.0,135.0,810.0,675.0,405.0,540.0,green,hexagon
0.0,1.0,1.0,0.0,7.0,6.0,2025.601092000215,2.0,1.0,part_3,go,0.0,0.0,0.0,576.0,3.0,384.0,960.0,1152.0,768.0,192.0,576.0,yellow,cross
0.0,4.0,4.0,0.0,7.0,5.0,1971.5295060004792,2.0,1.0,part_3,go,0.0,0.0,0.0,696.0,6.0,116.0,232.0,580.0,348.0,696.0,464.0,green,hexagon
0.0,1.0,1.0,0.0,7.0,4.0,1958.1317789998136,2.0,1.0,part_3,go,0.0,0.0,0.0,384.0,2.0,768.0,960.0,576.0,384.0,192.0,1152.0,yellow,cross
0.0,1.0,1.0,0.0,7.0,2.0,1684.0258299998825,2.0,1.0,part_3,go,0.0,0.0,0.0,405.0,3.0,540.0,405.0,135.0,675.0,270.0,810.0,yellow,cross
0.0,8.0,4.0,1.0,7.0,5.0,3626.865422999799,2.0,1.0,part_3,go,0.0,0.0,0.0,770.0,5.0,616.0,462.0,154.0,924.0,770.0,308.0,blue,circle
0.0,5.0,1.0,1.0,7.0,6.0,1816.167344999485,2.0,1.0,part_3,go,0.0,0.0,0.0,192.0,1.0,768.0,576.0,1152.0,960.0,384.0,192.0,white,flipped triangle
0.0,6.0,2.0,1.0,7.0,2.0,1530.782020000515,2.0,1.0,part_3,go,0.0,0.0,0.0,519.0,3.0,346.0,519.0,1038.0,173.0,692.0,865.0,cyan,square
0.0,3.0,3.0,0.0,7.0,1.0,2300.3763679998883,2.0,1.0,part_3,go,0.0,0.0,0.0,675.0,5.0,675.0,135.0,810.0,270.0,540.0,405.0,magenta,diamond
0.0,5.0,1.0,1.0,7.0,5.0,2668.6285699997825,2.0,1.0,part_3,go,0.0,0.0,0.0,135.0,1.0,675.0,405.0,540.0,810.0,135.0,270.0,white,flipped triangle
0.0,3.0,3.0,0.0,7.0,3.0,2365.165375000288,2.0,1.0,part_3,go,0.0,0.0,0.0,692.0,4.0,346.0,1038.0,692.0,865.0,173.0,519.0,magenta,diamond
0.0,8.0,4.0,1.0,7.0,2.0,2444.969389999642,2.0,1.0,part_3,go,0.0,0.0,0.0,675.0,5.0,270.0,675.0,540.0,135.0,405.0,810.0,blue,circle
0.0,5.0,1.0,1.0,7.0,1.0,2175.431704999937,2.0,1.0,part_3,go,0.0,0.0,0.0,192.0,1.0,192.0,576.0,384.0,768.0,960.0,1152.0,white,flipped triangle
0.0,7.0,3.0,1.0,7.0,4.0,2282.733476999965,2.0,1.0,part_3,go,0.0,0.0,0.0,192.0,1.0,768.0,576.0,1152.0,192.0,960.0,384.0,gray,triangle
0.0,3.0,3.0,0.0,7.0,3.0,1477.60852600004,2.0,1.0,part_3,go,0.0,0.0,0.0,768.0,4.0,384.0,1152.0,768.0,960.0,192.0,576.0,magenta,diamond
0.0,7.0,3.0,1.0,7.0,1.0,2036.1970200001451,2.0,1.0,part_3,go,0.0,0.0,0.0,346.0,2.0,346.0,1038.0,173.0,519.0,692.0,865.0,gray,triangle
0.0,2.0,2.0,0.0,7.0,4.0,2843.2213400001274,2.0,1.0,part_3,go,0.0,0.0,0.0,346.0,2.0,173.0,865.0,1038.0,346.0,692.0,519.0,orange,I
0.0,3.0,3.0,0.0,7.0,5.0,1838.6622779999016,2.0,1.0,part_3,go,0.0,0.0,0.0,519.0,3.0,173.0,1038.0,865.0,692.0,519.0,346.0,magenta,diamond
0.0,2.0,2.0,0.0,7.0,5.0,2677.4063130005743,2.0,1.0,part_3,go,0.0,0.0,0.0,346.0,2.0,692.0,173.0,1038.0,865.0,346.0,519.0,orange,I
0.0,1.0,1.0,0.0,7.0,5.0,968.4002550002332,3.0,1.0,part_3,go,0.0,0.0,0.0,580.0,5.0,116.0,348.0,696.0,232.0,580.0,464.0,yellow,cross
0.0,5.0,1.0,1.0,7.0,2.0,1631.3173470007314,3.0,1.0,part_3,go,0.0,0.0,0.0,348.0,3.0,464.0,348.0,116.0,232.0,696.0,580.0,white,flipped triangle
0.0,2.0,2.0,0.0,7.0,4.0,1549.7314799995363,3.0,1.0,part_3,go,0.0,0.0,0.0,348.0,3.0,116.0,580.0,696.0,348.0,232.0,464.0,orange,I
0.0,7.0,3.0,1.0,7.0,5.0,1438.1779439991078,3.0,1.0,part_3,go,0.0,0.0,0.0,308.0,2.0,616.0,924.0,462.0,770.0,308.0,154.0,gray,triangle
0.0,7.0,3.0,1.0,7.0,5.0,1036.2212199997884,3.0,1.0,part_3,go,0.0,0.0,0.0,308.0,2.0,616.0,770.0,462.0,924.0,308.0,154.0,gray,triangle
0.0,1.0,1.0,0.0,7.0,6.0,3000.0300089996017,3.0,1.0,part_3,go,0.0,0.0,0.0,462.0,3.0,616.0,924.0,308.0,154.0,770.0,462.0,yellow,cross
0.0,3.0,3.0,0.0,7.0,5.0,2429.553560000386,3.0,1.0,part_3,go,0.0,0.0,0.0,616.0,4.0,154.0,308.0,770.0,462.0,616.0,924.0,magenta,diamond
0.0,2.0,2.0,0.0,7.0,5.0,2180.0071060006303,3.0,1.0,part_3,go,0.0,0.0,0.0,308.0,2.0,462.0,770.0,924.0,154.0,308.0,616.0,orange,I
0.0,8.0,4.0,1.0,7.0,2.0,1492.6732240001002,3.0,1.0,part_3,go,0.0,0.0,0.0,1038.0,6.0,519.0,1038.0,692.0,865.0,346.0,173.0,blue,circle
0.0,3.0,3.0,0.0,7.0,3.0,2656.573531000504,3.0,1.0,part_3,go,0.0,0.0,0.0,580.0,5.0,116.0,348.0,580.0,464.0,696.0,232.0,magenta,diamond
0.0,2.0,2.0,0.0,7.0,1.0,3212.99616899978,3.0,1.0,part_3,go,0.0,0.0,0.0,348.0,3.0,348.0,464.0,116.0,580.0,232.0,696.0,orange,I
0.0,7.0,3.0,1.0,7.0,2.0,1978.4355950005192,3.0,1.0,part_3,go,0.0,0.0,0.0,232.0,2.0,116.0,232.0,348.0,464.0,696.0,580.0,gray,triangle
0.0,8.0,4.0,1.0,7.0,4.0,1532.3529240004063,3.0,1.0,part_3,go,0.0,0.0,0.0,1152.0,6.0,768.0,384.0,192.0,1152.0,576.0,960.0,blue,circle
0.0,1.0,1.0,0.0,7.0,3.0,1816.6259200006607,3.0,1.0,part_3,go,0.0,0.0,0.0,405.0,3.0,540.0,270.0,405.0,135.0,810.0,675.0,yellow,cross
0.0,3.0,3.0,0.0,7.0,4.0,1994.7052090001307,3.0,1.0,part_3,go,0.0,0.0,0.0,616.0,4.0,154.0,924.0,308.0,616.0,462.0,770.0,magenta,diamond
0.0,5.0,1.0,1.0,7.0,6.0,2275.9918850006216,3.0,1.0,part_3,go,0.0,0.0,0.0,154.0,1.0,616.0,770.0,308.0,924.0,462.0,154.0,white,flipped triangle
0.0,8.0,4.0,1.0,7.0,3.0,2613.511918999393,3.0,1.0,part_3,go,0.0,0.0,0.0,696.0,6.0,580.0,348.0,696.0,464.0,116.0,232.0,blue,circle
0.0,3.0,3.0,0.0,7.0,3.0,4462.85811999951,3.0,1.0,part_3,go,0.0,0.0,0.0,405.0,3.0,810.0,675.0,405.0,270.0,540.0,135.0,magenta,diamond
0.0,7.0,3.0,1.0,7.0,3.0,1278.4063069993865,3.0,1.0,part_3,go,0.0,0.0,0.0,116.0,1.0,348.0,580.0,116.0,464.0,232.0,696.0,gray,triangle
0.0,6.0,2.0,1.0,7.0,4.0,2657.4674789999335,3.0,1.0,part_3,go,0.0,0.0,0.0,405.0,3.0,270.0,675.0,810.0,405.0,135.0,540.0,cyan,square
0.0,2.0,2.0,0.0,7.0,4.0,879.5801720007148,4.0,1.0,part_3,go,0.0,0.0,0.0,270.0,2.0,810.0,405.0,675.0,270.0,135.0,540.0,orange,I
0.0,5.0,1.0,1.0,7.0,5.0,1233.1016099997214,4.0,1.0,part_3,go,0.0,0.0,0.0,116.0,1.0,464.0,348.0,580.0,232.0,116.0,696.0,white,flipped triangle
0.0,7.0,3.0,1.0,7.0,5.0,914.3761929999528,4.0,1.0,part_3,go,0.0,0.0,0.0,135.0,1.0,405.0,675.0,270.0,810.0,135.0,540.0,gray,triangle
0.0,4.0,4.0,0.0,7.0,3.0,1451.013580000108,4.0,1.0,part_3,go,0.0,0.0,0.0,1152.0,6.0,192.0,576.0,1152.0,768.0,960.0,384.0,green,hexagon
0.0,4.0,4.0,0.0,7.0,6.0,1844.7128500001784,4.0,1.0,part_3,go,0.0,0.0,0.0,1038.0,6.0,519.0,346.0,692.0,173.0,865.0,1038.0,green,hexagon
0.0,6.0,2.0,1.0,7.0,5.0,2247.801342999992,4.0,1.0,part_3,go,0.0,0.0,0.0,462.0,3.0,616.0,154.0,308.0,924.0,462.0,770.0,cyan,square
0.0,6.0,2.0,1.0,7.0,2.0,2404.3681969997124,4.0,1.0,part_3,go,0.0,0.0,0.0,462.0,3.0,924.0,462.0,770.0,154.0,616.0,308.0,cyan,square
0.0,6.0,2.0,1.0,7.0,6.0,1917.3108559998584,4.0,1.0,part_3,go,0.0,0.0,0.0,540.0,4.0,675.0,135.0,810.0,270.0,405.0,540.0,cyan,square
0.0,2.0,2.0,0.0,7.0,1.0,2527.228562000346,4.0,1.0,part_3,go,0.0,0.0,0.0,384.0,2.0,384.0,768.0,960.0,1152.0,576.0,192.0,orange,I
0.0,1.0,1.0,0.0,7.0,4.0,1129.1942309999283,4.0,1.0,part_3,go,0.0,0.0,0.0,616.0,4.0,308.0,462.0,154.0,616.0,924.0,770.0,yellow,cross
0.0,4.0,4.0,0.0,7.0,2.0,1829.0928229998824,4.0,1.0,part_3,go,0.0,0.0,0.0,810.0,6.0,675.0,810.0,135.0,540.0,405.0,270.0,green,hexagon
0.0,7.0,3.0,1.0,7.0,6.0,1007.2600299999976,4.0,1.0,part_3,go,0.0,0.0,0.0,135.0,1.0,405.0,675.0,270.0,540.0,810.0,135.0,gray,triangle
0.0,6.0,2.0,1.0,7.0,3.0,1272.3582819999135,4.0,1.0,part_3,go,0.0,0.0,0.0,576.0,3.0,960.0,768.0,576.0,1152.0,384.0,192.0,cyan,square
0.0,6.0,2.0,1.0,7.0,3.0,1155.6933530000606,4.0,1.0,part_3,go,0.0,0.0,0.0,580.0,5.0,116.0,464.0,580.0,232.0,696.0,348.0,cyan,square
0.0,2.0,2.0,0.0,7.0,3.0,1454.1282439995484,4.0,1.0,part_3,go,0.0,0.0,0.0,384.0,2.0,576.0,768.0,384.0,1152.0,192.0,960.0,orange,I
0.0,8.0,4.0,1.0,7.0,4.0,1146.4781220001896,4.0,1.0,part_3,go,0.0,0.0,0.0,1038.0,6.0,346.0,865.0,519.0,1038.0,173.0,692.0,blue,circle
0.0,8.0,4.0,1.0,7.0,2.0,1653.138669999862,4.0,1.0,part_3,go,0.0,0.0,0.0,810.0,6.0,135.0,810.0,675.0,270.0,405.0,540.0,blue,circle
0.0,5.0,1.0,1.0,7.0,6.0,2047.9982449996896,4.0,1.0,part_3,go,0.0,0.0,0.0,173.0,1.0,692.0,346.0,519.0,1038.0,865.0,173.0,white,flipped triangle
0.0,1.0,1.0,0.0,7.0,1.0,4113.182860000052,4.0,1.0,part_3,go,0.0,0.0,0.0,580.0,5.0,580.0,464.0,348.0,116.0,696.0,232.0,yellow,cross
0.0,4.0,4.0,0.0,7.0,6.0,2650.6981729999097,4.0,1.0,part_3,go,0.0,0.0,0.0,616.0,4.0,770.0,924.0,154.0,462.0,308.0,616.0,green,hexagon
