raw_reward_magnitude,stim_reward,stepwise_reward_magnitude,paired_with_stopping,stim_location,response,reaction_time,block,num_trial_presentations,which_phase,stop_signal_trial_type,left_SSD,right_SSD,accuracy,chosen_bidding_amount,chosen_bidding_level,possible_bid_1,possible_bid_2,possible_bid_3,possible_bid_4,possible_bid_5,possible_bid_6,color_text,shape_text
176.0,5.0,1.0,1.0,1.0,1.0,444.31470300014547,1.0,1.0,phase_1,,,,,,,,,,,,,orange,triangle
0.0,6.0,0.0,1.0,2.0,2.0,351.6019749999941,1.0,1.0,phase_1,,,,,,,,,,,,,white,diamond
670.0,3.0,3.0,0.0,4.0,4.0,444.1727640000863,1.0,1.0,phase_1,,,,,,,,,,,,,gray,I
642.0,3.0,3.0,0.0,3.0,3.0,417.4867859999267,1.0,1.0,phase_1,,,,,,,,,,,,,gray,I
1311.0,8.0,4.0,1.0,4.0,4.0,535.6767139999192,1.0,1.0,phase_1,,,,,,,,,,,,,magenta,cross
0.0,2.0,0.0,0.0,3.0,3.0,390.64075400006,1.0,1.0,phase_1,,,,,,,,,,,,,cyan,circle
0.0,5.0,0.0,1.0,4.0,4.0,408.5835920000136,1.0,1.0,phase_1,,,,,,,,,,,,,orange,triangle
0.0,8.0,0.0,1.0,4.0,4.0,371.7345889999706,1.0,1.0,phase_1,,,,,,,,,,,,,magenta,cross
324.0,2.0,2.0,0.0,1.0,1.0,361.0820589999548,1.0,1.0,phase_1,,,,,,,,,,,,,cyan,circle
1309.0,4.0,4.0,0.0,3.0,3.0,369.9301750000359,1.0,1.0,phase_1,,,,,,,,,,,,,blue,flipped triangle
1294.0,8.0,4.0,1.0,4.0,4.0,342.3233349999464,1.0,1.0,phase_1,,,,,,,,,,,,,magenta,cross
160.0,5.0,1.0,1.0,3.0,3.0,362.412569000071,1.0,1.0,phase_1,,,,,,,,,,,,,orange,triangle
632.0,7.0,3.0,1.0,1.0,1.0,334.0218640000785,1.0,1.0,phase_1,,,,,,,,,,,,,green,hexagon
147.0,1.0,1.0,0.0,1.0,1.0,436.0567149999497,1.0,1.0,phase_1,,,,,,,,,,,,,yellow,square
326.0,6.0,2.0,1.0,3.0,3.0,342.8416829999605,1.0,1.0,phase_1,,,,,,,,,,,,,white,diamond
175.0,5.0,1.0,1.0,4.0,4.0,398.5191970000414,1.0,1.0,phase_1,,,,,,,,,,,,,orange,triangle
0.0,3.0,0.0,0.0,4.0,4.0,398.0300509999779,1.0,1.0,phase_1,,,,,,,,,,,,,gray,I
311.0,2.0,2.0,0.0,3.0,3.0,323.5219379998852,1.0,1.0,phase_1,,,,,,,,,,,,,cyan,circle
643.0,7.0,3.0,1.0,1.0,1.0,500.67938400002276,1.0,1.0,phase_1,,,,,,,,,,,,,green,hexagon
1311.0,4.0,4.0,0.0,2.0,2.0,361.3587709999137,1.0,1.0,phase_1,,,,,,,,,,,,,blue,flipped triangle
334.0,6.0,2.0,1.0,2.0,2.0,324.5657720001418,1.0,1.0,phase_1,,,,,,,,,,,,,white,diamond
1308.0,4.0,4.0,0.0,2.0,2.0,407.9060940000545,1.0,1.0,phase_1,,,,,,,,,,,,,blue,flipped triangle
1285.0,8.0,4.0,1.0,1.0,1.0,398.3859069999198,1.0,1.0,phase_1,,,,,,,,,,,,,magenta,cross
0.0,7.0,0.0,1.0,3.0,3.0,299.5596760001717,1.0,1.0,phase_1,,,,,,,,,,,,,green,hexagon
150.0,5.0,1.0,1.0,2.0,2.0,390.2231179999944,1.0,1.0,phase_1,,,,,,,,,,,,,orange,triangle
183.0,5.0,1.0,1.0,1.0,1.0,352.8571970000485,1.0,1.0,phase_1,,,,,,,,,,,,,orange,triangle
1306.0,8.0,4.0,1.0,4.0,4.0,389.1898199999559,1.0,1.0,phase_1,,,,,,,,,,,,,magenta,cross
1319.0,8.0,4.0,1.0,1.0,1.0,351.3700430000881,1.0,1.0,phase_1,,,,,,,,,,,,,magenta,cross
628.0,7.0,3.0,1.0,2.0,2.0,324.9527220000345,1.0,1.0,phase_1,,,,,,,,,,,,,green,hexagon
178.0,1.0,1.0,0.0,4.0,4.0,324.0654100000029,1.0,1.0,phase_1,,,,,,,,,,,,,yellow,square
332.0,6.0,2.0,1.0,3.0,3.0,343.6250820000168,1.0,1.0,phase_1,,,,,,,,,,,,,white,diamond
653.0,7.0,3.0,1.0,2.0,2.0,333.5510409999642,1.0,1.0,phase_1,,,,,,,,,,,,,green,hexagon
0.0,1.0,0.0,0.0,4.0,4.0,342.9500770000686,1.0,1.0,phase_1,,,,,,,,,,,,,yellow,square
168.0,5.0,1.0,1.0,1.0,1.0,471.2414360001276,1.0,1.0,phase_1,,,,,,,,,,,,,orange,triangle
1285.0,4.0,4.0,0.0,2.0,2.0,463.9051730000574,1.0,1.0,phase_1,,,,,,,,,,,,,blue,flipped triangle
182.0,5.0,1.0,1.0,1.0,1.0,361.7685469998832,1.0,1.0,phase_1,,,,,,,,,,,,,orange,triangle
0.0,1.0,0.0,0.0,1.0,1.0,314.1579999999067,1.0,1.0,phase_1,,,,,,,,,,,,,yellow,square
0.0,1.0,0.0,0.0,1.0,1.0,323.0574079998405,1.0,1.0,phase_1,,,,,,,,,,,,,yellow,square
325.0,6.0,2.0,1.0,3.0,3.0,334.1761939998378,1.0,1.0,phase_1,,,,,,,,,,,,,white,diamond
154.0,1.0,1.0,0.0,2.0,2.0,359.835915000076,1.0,1.0,phase_1,,,,,,,,,,,,,yellow,square
0.0,7.0,0.0,1.0,1.0,1.0,343.6583789998622,1.0,1.0,phase_1,,,,,,,,,,,,,green,hexagon
155.0,5.0,1.0,1.0,4.0,4.0,379.6474370001306,1.0,1.0,phase_1,,,,,,,,,,,,,orange,triangle
651.0,3.0,3.0,0.0,1.0,1.0,407.6026430000183,1.0,1.0,phase_1,,,,,,,,,,,,,gray,I
638.0,3.0,3.0,0.0,1.0,1.0,453.3027249999577,1.0,1.0,phase_1,,,,,,,,,,,,,gray,I
638.0,7.0,3.0,1.0,4.0,4.0,397.3041300000659,1.0,1.0,phase_1,,,,,,,,,,,,,green,hexagon
670.0,7.0,3.0,1.0,4.0,4.0,480.1969139998618,1.0,1.0,phase_1,,,,,,,,,,,,,green,hexagon
655.0,3.0,3.0,0.0,2.0,2.0,517.4193349998859,1.0,1.0,phase_1,,,,,,,,,,,,,gray,I
655.0,7.0,3.0,1.0,4.0,4.0,324.3534780001482,1.0,1.0,phase_1,,,,,,,,,,,,,green,hexagon
0.0,2.0,0.0,0.0,1.0,1.0,360.6041950001781,1.0,1.0,phase_1,,,,,,,,,,,,,cyan,circle
180.0,1.0,1.0,0.0,2.0,2.0,368.1776060000175,1.0,1.0,phase_1,,,,,,,,,,,,,yellow,square
1304.0,4.0,4.0,0.0,1.0,1.0,369.4825009999931,1.0,1.0,phase_1,,,,,,,,,,,,,blue,flipped triangle
656.0,3.0,3.0,0.0,4.0,4.0,435.0144849997832,1.0,1.0,phase_1,,,,,,,,,,,,,gray,I
628.0,3.0,3.0,0.0,4.0,4.0,387.2210970000651,1.0,1.0,phase_1,,,,,,,,,,,,,gray,I
0.0,3.0,0.0,0.0,2.0,2.0,323.3642249999775,1.0,1.0,phase_1,,,,,,,,,,,,,gray,I
646.0,7.0,3.0,1.0,2.0,2.0,333.8984910001272,1.0,1.0,phase_1,,,,,,,,,,,,,green,hexagon
634.0,3.0,3.0,0.0,1.0,1.0,378.6477190001278,1.0,1.0,phase_1,,,,,,,,,,,,,gray,I
667.0,3.0,3.0,0.0,3.0,3.0,360.0429870000425,1.0,1.0,phase_1,,,,,,,,,,,,,gray,I
306.0,6.0,2.0,1.0,3.0,3.0,323.5938139998779,1.0,1.0,phase_1,,,,,,,,,,,,,white,diamond
309.0,2.0,2.0,0.0,3.0,3.0,343.3836849999352,1.0,1.0,phase_1,,,,,,,,,,,,,cyan,circle
0.0,4.0,0.0,0.0,3.0,3.0,341.5129850000085,1.0,1.0,phase_1,,,,,,,,,,,,,blue,flipped triangle
0.0,8.0,0.0,1.0,1.0,1.0,369.4095060000109,1.0,1.0,phase_1,,,,,,,,,,,,,magenta,cross
312.0,6.0,2.0,1.0,2.0,2.0,489.736005000168,1.0,2.0,phase_1,,,,,,,,,,,,,white,diamond
651.0,7.0,3.0,1.0,3.0,3.0,378.2980809999117,1.0,1.0,phase_1,,,,,,,,,,,,,green,hexagon
667.0,7.0,3.0,1.0,2.0,2.0,416.2216940001144,1.0,1.0,phase_1,,,,,,,,,,,,,green,hexagon
1318.0,8.0,4.0,1.0,3.0,3.0,379.9799619998794,1.0,1.0,phase_1,,,,,,,,,,,,,magenta,cross
0.0,3.0,0.0,0.0,4.0,4.0,462.657573000115,1.0,1.0,phase_1,,,,,,,,,,,,,gray,I
341.0,2.0,2.0,0.0,4.0,4.0,397.3496610001348,1.0,1.0,phase_1,,,,,,,,,,,,,cyan,circle
1287.0,8.0,4.0,1.0,4.0,4.0,389.6392159999777,1.0,1.0,phase_1,,,,,,,,,,,,,magenta,cross
0.0,5.0,0.0,1.0,1.0,1.0,360.8104139998431,1.0,1.0,phase_1,,,,,,,,,,,,,orange,triangle
667.0,7.0,3.0,1.0,1.0,1.0,360.4789720000099,1.0,1.0,phase_1,,,,,,,,,,,,,green,hexagon
175.0,1.0,1.0,0.0,2.0,2.0,527.3785940000835,1.0,1.0,phase_1,,,,,,,,,,,,,yellow,square
0.0,8.0,0.0,1.0,2.0,2.0,416.9088339999689,1.0,1.0,phase_1,,,,,,,,,,,,,magenta,cross
343.0,2.0,2.0,0.0,2.0,2.0,424.4695569998384,1.0,1.0,phase_1,,,,,,,,,,,,,cyan,circle
314.0,6.0,2.0,1.0,4.0,4.0,553.5871499998848,1.0,1.0,phase_1,,,,,,,,,,,,,white,diamond
638.0,7.0,3.0,1.0,1.0,1.0,433.7740599999051,1.0,1.0,phase_1,,,,,,,,,,,,,green,hexagon
662.0,3.0,3.0,0.0,2.0,2.0,544.9460780000663,1.0,1.0,phase_1,,,,,,,,,,,,,gray,I
169.0,5.0,1.0,1.0,4.0,4.0,460.6972189999396,1.0,1.0,phase_1,,,,,,,,,,,,,orange,triangle
306.0,2.0,2.0,0.0,1.0,1.0,444.2808670000886,1.0,1.0,phase_1,,,,,,,,,,,,,cyan,circle
1296.0,4.0,4.0,0.0,3.0,3.0,719.8343480001768,1.0,1.0,phase_1,,,,,,,,,,,,,blue,flipped triangle
331.0,6.0,2.0,1.0,2.0,2.0,442.8647219999675,1.0,1.0,phase_1,,,,,,,,,,,,,white,diamond
631.0,3.0,3.0,0.0,3.0,3.0,453.6840310001935,1.0,1.0,phase_1,,,,,,,,,,,,,gray,I
659.0,3.0,3.0,0.0,2.0,2.0,360.49149099994787,1.0,1.0,phase_1,,,,,,,,,,,,,gray,I
312.0,2.0,2.0,0.0,2.0,2.0,452.8245209999113,1.0,1.0,phase_1,,,,,,,,,,,,,cyan,circle
638.0,3.0,3.0,0.0,2.0,2.0,573.8632110001163,1.0,1.0,phase_1,,,,,,,,,,,,,gray,I
322.0,2.0,2.0,0.0,4.0,4.0,453.6609920000956,1.0,1.0,phase_1,,,,,,,,,,,,,cyan,circle
0.0,7.0,0.0,1.0,2.0,2.0,471.2940060001074,1.0,1.0,phase_1,,,,,,,,,,,,,green,hexagon
348.0,6.0,2.0,1.0,1.0,1.0,451.4141950000976,1.0,1.0,phase_1,,,,,,,,,,,,,white,diamond
631.0,3.0,3.0,0.0,4.0,4.0,360.3760650000822,1.0,1.0,phase_1,,,,,,,,,,,,,gray,I
1294.0,4.0,4.0,0.0,2.0,2.0,601.3325390001683,1.0,1.0,phase_1,,,,,,,,,,,,,blue,flipped triangle
182.0,1.0,1.0,0.0,1.0,1.0,550.414033999914,1.0,1.0,phase_1,,,,,,,,,,,,,yellow,square
142.0,1.0,1.0,0.0,4.0,4.0,524.4290050000018,1.0,1.0,phase_1,,,,,,,,,,,,,yellow,square
625.0,3.0,3.0,0.0,4.0,4.0,415.7158520001758,1.0,1.0,phase_1,,,,,,,,,,,,,gray,I
1293.0,4.0,4.0,0.0,1.0,1.0,434.9921980001454,1.0,1.0,phase_1,,,,,,,,,,,,,blue,flipped triangle
1314.0,8.0,4.0,1.0,2.0,2.0,377.266187000032,1.0,1.0,phase_1,,,,,,,,,,,,,magenta,cross
653.0,7.0,3.0,1.0,3.0,3.0,389.8996160000934,1.0,1.0,phase_1,,,,,,,,,,,,,green,hexagon
653.0,3.0,3.0,0.0,3.0,3.0,396.9478320000235,1.0,1.0,phase_1,,,,,,,,,,,,,gray,I
1303.0,8.0,4.0,1.0,2.0,2.0,572.7287130000605,1.0,1.0,phase_1,,,,,,,,,,,,,magenta,cross
318.0,2.0,2.0,0.0,1.0,1.0,474.1926780000085,1.0,1.0,phase_1,,,,,,,,,,,,,cyan,circle
341.0,6.0,2.0,1.0,1.0,1.0,416.2758960001156,1.0,1.0,phase_1,,,,,,,,,,,,,white,diamond
1321.0,4.0,4.0,0.0,4.0,4.0,425.2185049999752,1.0,1.0,phase_1,,,,,,,,,,,,,blue,flipped triangle
1318.0,4.0,4.0,0.0,2.0,2.0,428.7961760001053,2.0,1.0,phase_1,,,,,,,,,,,,,blue,flipped triangle
1277.0,4.0,4.0,0.0,4.0,4.0,443.465954000203,2.0,1.0,phase_1,,,,,,,,,,,,,blue,flipped triangle
160.0,1.0,1.0,0.0,1.0,1.0,518.6804680001842,2.0,1.0,phase_1,,,,,,,,,,,,,yellow,square
321.0,2.0,2.0,0.0,4.0,4.0,536.0651750002035,2.0,1.0,phase_1,,,,,,,,,,,,,cyan,circle
138.0,5.0,1.0,1.0,1.0,1.0,526.2175830002889,2.0,1.0,phase_1,,,,,,,,,,,,,orange,triangle
668.0,3.0,3.0,0.0,1.0,1.0,443.7694650000594,2.0,1.0,phase_1,,,,,,,,,,,,,gray,I
161.0,1.0,1.0,0.0,2.0,2.0,544.8079210000287,2.0,1.0,phase_1,,,,,,,,,,,,,yellow,square
631.0,7.0,3.0,1.0,2.0,2.0,351.3607739996587,2.0,1.0,phase_1,,,,,,,,,,,,,green,hexagon
632.0,3.0,3.0,0.0,3.0,3.0,342.018618000111,2.0,1.0,phase_1,,,,,,,,,,,,,gray,I
303.0,6.0,2.0,1.0,2.0,2.0,378.5825060003844,2.0,1.0,phase_1,,,,,,,,,,,,,white,diamond
1276.0,4.0,4.0,0.0,1.0,1.0,537.0202319995769,2.0,2.0,phase_1,,,,,,,,,,,,,blue,flipped triangle
0.0,6.0,0.0,1.0,3.0,3.0,471.4619129999846,2.0,1.0,phase_1,,,,,,,,,,,,,white,diamond
1280.0,4.0,4.0,0.0,4.0,4.0,442.8931219999867,2.0,1.0,phase_1,,,,,,,,,,,,,blue,flipped triangle
1316.0,4.0,4.0,0.0,4.0,4.0,454.0780430002087,2.0,1.0,phase_1,,,,,,,,,,,,,blue,flipped triangle
673.0,7.0,3.0,1.0,2.0,2.0,510.14379999969606,2.0,1.0,phase_1,,,,,,,,,,,,,green,hexagon
301.0,6.0,2.0,1.0,1.0,1.0,535.1219299996046,2.0,1.0,phase_1,,,,,,,,,,,,,white,diamond
0.0,2.0,0.0,0.0,1.0,1.0,405.314178000026,2.0,1.0,phase_1,,,,,,,,,,,,,cyan,circle
347.0,2.0,2.0,0.0,1.0,1.0,415.8114779997959,2.0,1.0,phase_1,,,,,,,,,,,,,cyan,circle
325.0,2.0,2.0,0.0,4.0,4.0,601.9157169998834,2.0,1.0,phase_1,,,,,,,,,,,,,cyan,circle
0.0,4.0,0.0,0.0,2.0,2.0,554.3649759997606,2.0,1.0,phase_1,,,,,,,,,,,,,blue,flipped triangle
0.0,5.0,0.0,1.0,3.0,3.0,415.9234560002005,2.0,1.0,phase_1,,,,,,,,,,,,,orange,triangle
178.0,5.0,1.0,1.0,2.0,2.0,563.6614210002335,2.0,1.0,phase_1,,,,,,,,,,,,,orange,triangle
1321.0,8.0,4.0,1.0,4.0,4.0,360.4222029998709,2.0,1.0,phase_1,,,,,,,,,,,,,magenta,cross
149.0,5.0,1.0,1.0,3.0,3.0,407.9019329997209,2.0,1.0,phase_1,,,,,,,,,,,,,orange,triangle
1309.0,8.0,4.0,1.0,2.0,2.0,379.5785030001752,2.0,1.0,phase_1,,,,,,,,,,,,,magenta,cross
0.0,1.0,0.0,0.0,3.0,3.0,527.0564689999446,2.0,1.0,phase_1,,,,,,,,,,,,,yellow,square
181.0,5.0,1.0,1.0,4.0,4.0,516.6228329999285,2.0,1.0,phase_1,,,,,,,,,,,,,orange,triangle
1301.0,8.0,4.0,1.0,2.0,2.0,471.2495439998747,2.0,1.0,phase_1,,,,,,,,,,,,,magenta,cross
322.0,6.0,2.0,1.0,3.0,3.0,387.9604439998729,2.0,1.0,phase_1,,,,,,,,,,,,,white,diamond
0.0,1.0,0.0,0.0,2.0,2.0,535.576735000177,2.0,1.0,phase_1,,,,,,,,,,,,,yellow,square
324.0,6.0,2.0,1.0,2.0,2.0,387.3582679998435,2.0,1.0,phase_1,,,,,,,,,,,,,white,diamond
0.0,6.0,0.0,1.0,3.0,3.0,379.0688959998078,2.0,1.0,phase_1,,,,,,,,,,,,,white,diamond
656.0,7.0,3.0,1.0,3.0,3.0,444.0403329999753,2.0,1.0,phase_1,,,,,,,,,,,,,green,hexagon
0.0,6.0,0.0,1.0,2.0,2.0,471.0004280000248,2.0,1.0,phase_1,,,,,,,,,,,,,white,diamond
327.0,6.0,2.0,1.0,4.0,4.0,406.6573320001225,2.0,1.0,phase_1,,,,,,,,,,,,,white,diamond
668.0,7.0,3.0,1.0,3.0,3.0,378.7163090000831,2.0,1.0,phase_1,,,,,,,,,,,,,green,hexagon
169.0,1.0,1.0,0.0,2.0,2.0,508.9499860000615,2.0,1.0,phase_1,,,,,,,,,,,,,yellow,square
0.0,8.0,0.0,1.0,2.0,2.0,406.4283879997674,2.0,1.0,phase_1,,,,,,,,,,,,,magenta,cross
1314.0,4.0,4.0,0.0,4.0,4.0,416.2013790000856,2.0,1.0,phase_1,,,,,,,,,,,,,blue,flipped triangle
145.0,5.0,1.0,1.0,3.0,3.0,416.4497110000411,2.0,1.0,phase_1,,,,,,,,,,,,,orange,triangle
179.0,5.0,1.0,1.0,2.0,2.0,417.1418820001236,2.0,1.0,phase_1,,,,,,,,,,,,,orange,triangle
646.0,3.0,3.0,0.0,4.0,4.0,444.1221400002177,2.0,1.0,phase_1,,,,,,,,,,,,,gray,I
307.0,6.0,2.0,1.0,4.0,4.0,472.0022490000701,2.0,1.0,phase_1,,,,,,,,,,,,,white,diamond
648.0,3.0,3.0,0.0,4.0,4.0,554.0815529998326,2.0,1.0,phase_1,,,,,,,,,,,,,gray,I
659.0,7.0,3.0,1.0,1.0,1.0,766.2435759998516,2.0,1.0,phase_1,,,,,,,,,,,,,green,hexagon
146.0,1.0,1.0,0.0,3.0,3.0,434.8400519997994,2.0,1.0,phase_1,,,,,,,,,,,,,yellow,square
154.0,5.0,1.0,1.0,4.0,4.0,453.5310870001012,2.0,1.0,phase_1,,,,,,,,,,,,,orange,triangle
651.0,7.0,3.0,1.0,3.0,3.0,596.315864999724,2.0,1.0,phase_1,,,,,,,,,,,,,green,hexagon
0.0,3.0,0.0,0.0,3.0,3.0,656.6002590002427,2.0,1.0,phase_1,,,,,,,,,,,,,gray,I
163.0,1.0,1.0,0.0,1.0,1.0,923.6944139997833,2.0,1.0,phase_1,,,,,,,,,,,,,yellow,square
642.0,7.0,3.0,1.0,3.0,3.0,388.0500219997884,2.0,1.0,phase_1,,,,,,,,,,,,,green,hexagon
1311.0,8.0,4.0,1.0,3.0,3.0,360.4420950000531,2.0,1.0,phase_1,,,,,,,,,,,,,magenta,cross
325.0,6.0,2.0,1.0,4.0,4.0,398.497025999859,2.0,1.0,phase_1,,,,,,,,,,,,,white,diamond
140.0,5.0,1.0,1.0,2.0,2.0,794.3297490000987,2.0,1.0,phase_1,,,,,,,,,,,,,orange,triangle
1277.0,4.0,4.0,0.0,3.0,3.0,387.3881320000691,2.0,1.0,phase_1,,,,,,,,,,,,,blue,flipped triangle
175.0,5.0,1.0,1.0,2.0,2.0,470.2226269996572,2.0,1.0,phase_1,,,,,,,,,,,,,orange,triangle
0.0,5.0,0.0,1.0,3.0,3.0,472.3495560001538,2.0,1.0,phase_1,,,,,,,,,,,,,orange,triangle
662.0,7.0,3.0,1.0,1.0,1.0,683.7672550000207,2.0,1.0,phase_1,,,,,,,,,,,,,green,hexagon
334.0,2.0,2.0,0.0,3.0,3.0,433.5036429997672,2.0,1.0,phase_1,,,,,,,,,,,,,cyan,circle
0.0,1.0,0.0,0.0,3.0,3.0,488.3958410000559,2.0,1.0,phase_1,,,,,,,,,,,,,yellow,square
319.0,6.0,2.0,1.0,3.0,3.0,406.0331650002808,2.0,1.0,phase_1,,,,,,,,,,,,,white,diamond
0.0,8.0,0.0,1.0,1.0,1.0,564.0524219998042,2.0,1.0,phase_1,,,,,,,,,,,,,magenta,cross
319.0,6.0,2.0,1.0,1.0,1.0,434.4997829998647,2.0,1.0,phase_1,,,,,,,,,,,,,white,diamond
0.0,5.0,0.0,1.0,1.0,1.0,498.2526829999187,2.0,1.0,phase_1,,,,,,,,,,,,,orange,triangle
1306.0,4.0,4.0,0.0,3.0,3.0,544.9323120001281,2.0,1.0,phase_1,,,,,,,,,,,,,blue,flipped triangle
1281.0,4.0,4.0,0.0,4.0,4.0,553.8484300000164,2.0,1.0,phase_1,,,,,,,,,,,,,blue,flipped triangle
176.0,1.0,1.0,0.0,3.0,3.0,425.402725999902,2.0,1.0,phase_1,,,,,,,,,,,,,yellow,square
0.0,6.0,0.0,1.0,1.0,1.0,591.3142310000694,2.0,1.0,phase_1,,,,,,,,,,,,,white,diamond
1311.0,4.0,4.0,0.0,2.0,2.0,705.9724000000642,2.0,1.0,phase_1,,,,,,,,,,,,,blue,flipped triangle
1311.0,4.0,4.0,0.0,4.0,4.0,590.5810609997388,2.0,1.0,phase_1,,,,,,,,,,,,,blue,flipped triangle
309.0,6.0,2.0,1.0,1.0,1.0,617.6052499999969,2.0,1.0,phase_1,,,,,,,,,,,,,white,diamond
178.0,1.0,1.0,0.0,3.0,3.0,443.7463750000461,2.0,1.0,phase_1,,,,,,,,,,,,,yellow,square
338.0,6.0,2.0,1.0,1.0,1.0,627.6594330001899,2.0,1.0,phase_1,,,,,,,,,,,,,white,diamond
141.0,1.0,1.0,0.0,2.0,2.0,591.2791350001498,2.0,1.0,phase_1,,,,,,,,,,,,,yellow,square
138.0,1.0,1.0,0.0,1.0,1.0,546.9604740001159,2.0,1.0,phase_1,,,,,,,,,,,,,yellow,square
0.0,4.0,0.0,0.0,2.0,2.0,534.9746779997986,2.0,1.0,phase_1,,,,,,,,,,,,,blue,flipped triangle
0.0,7.0,0.0,1.0,2.0,2.0,444.0379800003029,2.0,1.0,phase_1,,,,,,,,,,,,,green,hexagon
0.0,8.0,0.0,1.0,4.0,4.0,777.7335040000253,2.0,1.0,phase_1,,,,,,,,,,,,,magenta,cross
0.0,4.0,0.0,0.0,2.0,2.0,507.29622200015,2.0,1.0,phase_1,,,,,,,,,,,,,blue,flipped triangle
632.0,7.0,3.0,1.0,1.0,1.0,664.1031069998462,2.0,1.0,phase_1,,,,,,,,,,,,,green,hexagon
1295.0,8.0,4.0,1.0,2.0,2.0,601.3124189998962,2.0,1.0,phase_1,,,,,,,,,,,,,magenta,cross
309.0,2.0,2.0,0.0,1.0,1.0,464.0149669999118,2.0,1.0,phase_1,,,,,,,,,,,,,cyan,circle
145.0,1.0,1.0,0.0,4.0,4.0,425.5663509998157,2.0,1.0,phase_1,,,,,,,,,,,,,yellow,square
309.0,6.0,2.0,1.0,3.0,3.0,378.6528330001601,2.0,1.0,phase_1,,,,,,,,,,,,,white,diamond
0.0,8.0,0.0,1.0,1.0,1.0,574.1364479999902,2.0,1.0,phase_1,,,,,,,,,,,,,magenta,cross
638.0,3.0,3.0,0.0,1.0,1.0,584.3445440000323,2.0,1.0,phase_1,,,,,,,,,,,,,gray,I
661.0,3.0,3.0,0.0,3.0,3.0,398.3693320001293,2.0,1.0,phase_1,,,,,,,,,,,,,gray,I
648.0,7.0,3.0,1.0,2.0,2.0,647.4236150002071,2.0,1.0,phase_1,,,,,,,,,,,,,green,hexagon
632.0,7.0,3.0,1.0,4.0,4.0,573.029914000017,2.0,1.0,phase_1,,,,,,,,,,,,,green,hexagon
0.0,7.0,0.0,1.0,4.0,4.0,544.9152820001473,2.0,1.0,phase_1,,,,,,,,,,,,,green,hexagon
169.0,1.0,1.0,0.0,3.0,3.0,535.9579880000638,2.0,1.0,phase_1,,,,,,,,,,,,,yellow,square
179.0,1.0,1.0,0.0,4.0,4.0,619.1852530000688,2.0,1.0,phase_1,,,,,,,,,,,,,yellow,square
1296.0,8.0,4.0,1.0,3.0,3.0,747.5661869998476,2.0,1.0,phase_1,,,,,,,,,,,,,magenta,cross
338.0,2.0,2.0,0.0,4.0,4.0,500.3288180000709,2.0,1.0,phase_1,,,,,,,,,,,,,cyan,circle
0.0,2.0,0.0,0.0,2.0,2.0,907.0450029998938,2.0,1.0,phase_1,,,,,,,,,,,,,cyan,circle
1318.0,4.0,4.0,0.0,3.0,3.0,409.5076210001025,2.0,1.0,phase_1,,,,,,,,,,,,,blue,flipped triangle
667.0,3.0,3.0,0.0,1.0,1.0,500.2381140002399,2.0,2.0,phase_1,,,,,,,,,,,,,gray,I
1301.0,4.0,4.0,0.0,2.0,2.0,564.209480000045,2.0,1.0,phase_1,,,,,,,,,,,,,blue,flipped triangle
0.0,7.0,0.0,1.0,2.0,2.0,480.7959350000601,2.0,1.0,phase_1,,,,,,,,,,,,,green,hexagon
301.0,2.0,2.0,0.0,2.0,2.0,500.1474849996157,2.0,1.0,phase_1,,,,,,,,,,,,,cyan,circle
1296.0,8.0,4.0,1.0,3.0,3.0,407.6694479999787,3.0,1.0,phase_1,,,,,,,,,,,,,magenta,cross
186.0,5.0,1.0,1.0,3.0,3.0,406.7418459999317,3.0,1.0,phase_1,,,,,,,,,,,,,orange,triangle
303.0,2.0,2.0,0.0,2.0,2.0,452.5936850000107,3.0,1.0,phase_1,,,,,,,,,,,,,cyan,circle
634.0,7.0,3.0,1.0,3.0,3.0,378.3906140001818,3.0,1.0,phase_1,,,,,,,,,,,,,green,hexagon
1294.0,4.0,4.0,0.0,4.0,4.0,406.039383999996,3.0,1.0,phase_1,,,,,,,,,,,,,blue,flipped triangle
309.0,6.0,2.0,1.0,2.0,2.0,472.7071899997099,3.0,1.0,phase_1,,,,,,,,,,,,,white,diamond
653.0,3.0,3.0,0.0,3.0,3.0,351.6347959998711,3.0,1.0,phase_1,,,,,,,,,,,,,gray,I
338.0,2.0,2.0,0.0,2.0,2.0,481.1745619999783,3.0,1.0,phase_1,,,,,,,,,,,,,cyan,circle
1277.0,8.0,4.0,1.0,1.0,1.0,600.8087449999948,3.0,1.0,phase_1,,,,,,,,,,,,,magenta,cross
155.0,1.0,1.0,0.0,3.0,3.0,380.2130990002297,3.0,1.0,phase_1,,,,,,,,,,,,,yellow,square
1277.0,8.0,4.0,1.0,2.0,2.0,517.9716650000046,3.0,1.0,phase_1,,,,,,,,,,,,,magenta,cross
0.0,2.0,0.0,0.0,4.0,4.0,452.9121940004188,3.0,1.0,phase_1,,,,,,,,,,,,,cyan,circle
332.0,2.0,2.0,0.0,3.0,3.0,396.9395230001282,3.0,1.0,phase_1,,,,,,,,,,,,,cyan,circle
174.0,1.0,1.0,0.0,1.0,1.0,407.3734050002713,3.0,1.0,phase_1,,,,,,,,,,,,,yellow,square
153.0,5.0,1.0,1.0,1.0,1.0,425.3530400001182,3.0,1.0,phase_1,,,,,,,,,,,,,orange,triangle
1302.0,8.0,4.0,1.0,2.0,2.0,388.0317879998074,3.0,1.0,phase_1,,,,,,,,,,,,,magenta,cross
0.0,7.0,0.0,1.0,3.0,3.0,490.36454099996257,3.0,1.0,phase_1,,,,,,,,,,,,,green,hexagon
141.0,5.0,1.0,1.0,1.0,1.0,729.0900389998569,3.0,1.0,phase_1,,,,,,,,,,,,,orange,triangle
180.0,5.0,1.0,1.0,4.0,4.0,571.2452260004284,3.0,1.0,phase_1,,,,,,,,,,,,,orange,triangle
346.0,6.0,2.0,1.0,4.0,4.0,443.976530999862,3.0,1.0,phase_1,,,,,,,,,,,,,white,diamond
301.0,6.0,2.0,1.0,2.0,2.0,544.2482509997717,3.0,1.0,phase_1,,,,,,,,,,,,,white,diamond
0.0,4.0,0.0,0.0,1.0,1.0,612.7362309998716,3.0,1.0,phase_1,,,,,,,,,,,,,blue,flipped triangle
0.0,5.0,0.0,1.0,2.0,2.0,446.1371499996858,3.0,1.0,phase_1,,,,,,,,,,,,,orange,triangle
625.0,7.0,3.0,1.0,3.0,3.0,547.2474110001713,3.0,1.0,phase_1,,,,,,,,,,,,,green,hexagon
631.0,7.0,3.0,1.0,1.0,1.0,647.9854750000413,3.0,1.0,phase_1,,,,,,,,,,,,,green,hexagon
0.0,5.0,0.0,1.0,3.0,3.0,455.6209729998954,3.0,1.0,phase_1,,,,,,,,,,,,,orange,triangle
1316.0,8.0,4.0,1.0,3.0,3.0,454.0823259999342,3.0,1.0,phase_1,,,,,,,,,,,,,magenta,cross
0.0,6.0,0.0,1.0,3.0,3.0,398.3114150000801,3.0,1.0,phase_1,,,,,,,,,,,,,white,diamond
643.0,3.0,3.0,0.0,1.0,1.0,509.54179100017427,3.0,2.0,phase_1,,,,,,,,,,,,,gray,I
0.0,4.0,0.0,0.0,4.0,4.0,562.5814710001578,3.0,1.0,phase_1,,,,,,,,,,,,,blue,flipped triangle
183.0,1.0,1.0,0.0,3.0,3.0,406.9464369999878,3.0,1.0,phase_1,,,,,,,,,,,,,yellow,square
307.0,2.0,2.0,0.0,2.0,2.0,510.1541730000463,3.0,1.0,phase_1,,,,,,,,,,,,,cyan,circle
174.0,5.0,1.0,1.0,1.0,1.0,610.4516519999379,3.0,1.0,phase_1,,,,,,,,,,,,,orange,triangle
182.0,5.0,1.0,1.0,2.0,2.0,544.4946410002558,3.0,1.0,phase_1,,,,,,,,,,,,,orange,triangle
664.0,3.0,3.0,0.0,2.0,2.0,711.0139769997659,3.0,1.0,phase_1,,,,,,,,,,,,,gray,I
175.0,1.0,1.0,0.0,2.0,2.0,712.3632440002439,3.0,1.0,phase_1,,,,,,,,,,,,,yellow,square
0.0,6.0,0.0,1.0,4.0,4.0,490.1155860002291,3.0,1.0,phase_1,,,,,,,,,,,,,white,diamond
1303.0,4.0,4.0,0.0,1.0,1.0,610.6835770001453,3.0,1.0,phase_1,,,,,,,,,,,,,blue,flipped triangle
347.0,2.0,2.0,0.0,4.0,4.0,463.2088859998475,3.0,1.0,phase_1,,,,,,,,,,,,,cyan,circle
638.0,7.0,3.0,1.0,4.0,4.0,481.8760729999667,3.0,1.0,phase_1,,,,,,,,,,,,,green,hexagon
673.0,7.0,3.0,1.0,3.0,3.0,397.4724790000437,3.0,1.0,phase_1,,,,,,,,,,,,,green,hexagon
141.0,1.0,1.0,0.0,2.0,2.0,721.1924409998574,3.0,1.0,phase_1,,,,,,,,,,,,,yellow,square
661.0,7.0,3.0,1.0,4.0,4.0,517.9371399999582,3.0,1.0,phase_1,,,,,,,,,,,,,green,hexagon
348.0,6.0,2.0,1.0,4.0,4.0,488.3922710000661,3.0,1.0,phase_1,,,,,,,,,,,,,white,diamond
651.0,3.0,3.0,0.0,3.0,3.0,416.1866569997983,3.0,1.0,phase_1,,,,,,,,,,,,,gray,I
341.0,6.0,2.0,1.0,1.0,1.0,581.530407000173,3.0,1.0,phase_1,,,,,,,,,,,,,white,diamond
1285.0,8.0,4.0,1.0,3.0,3.0,480.976585999997,3.0,1.0,phase_1,,,,,,,,,,,,,magenta,cross
165.0,5.0,1.0,1.0,3.0,3.0,407.0666570000867,3.0,1.0,phase_1,,,,,,,,,,,,,orange,triangle
165.0,5.0,1.0,1.0,2.0,2.0,463.4818210001867,3.0,1.0,phase_1,,,,,,,,,,,,,orange,triangle
1296.0,4.0,4.0,0.0,1.0,1.0,536.3374759999715,3.0,1.0,phase_1,,,,,,,,,,,,,blue,flipped triangle
343.0,6.0,2.0,1.0,1.0,1.0,396.7533069999263,3.0,1.0,phase_1,,,,,,,,,,,,,white,diamond
1276.0,4.0,4.0,0.0,4.0,4.0,453.5923660000662,3.0,1.0,phase_1,,,,,,,,,,,,,blue,flipped triangle
0.0,2.0,0.0,0.0,3.0,3.0,379.7163799999907,3.0,1.0,phase_1,,,,,,,,,,,,,cyan,circle
323.0,6.0,2.0,1.0,4.0,4.0,443.643141999928,3.0,1.0,phase_1,,,,,,,,,,,,,white,diamond
635.0,7.0,3.0,1.0,2.0,2.0,590.7437599998957,3.0,1.0,phase_1,,,,,,,,,,,,,green,hexagon
662.0,7.0,3.0,1.0,4.0,4.0,471.8641090003075,3.0,1.0,phase_1,,,,,,,,,,,,,green,hexagon
673.0,3.0,3.0,0.0,2.0,2.0,491.9491200002994,3.0,1.0,phase_1,,,,,,,,,,,,,gray,I
182.0,1.0,1.0,0.0,4.0,4.0,489.3320649998713,3.0,1.0,phase_1,,,,,,,,,,,,,yellow,square
140.0,1.0,1.0,0.0,4.0,4.0,701.7355369998768,3.0,1.0,phase_1,,,,,,,,,,,,,yellow,square
0.0,6.0,0.0,1.0,3.0,3.0,388.9197660000718,3.0,1.0,phase_1,,,,,,,,,,,,,white,diamond
145.0,5.0,1.0,1.0,4.0,4.0,433.7986189998446,3.0,1.0,phase_1,,,,,,,,,,,,,orange,triangle
1294.0,4.0,4.0,0.0,1.0,1.0,571.3886779999484,3.0,1.0,phase_1,,,,,,,,,,,,,blue,flipped triangle
327.0,2.0,2.0,0.0,2.0,2.0,591.2806840001394,3.0,1.0,phase_1,,,,,,,,,,,,,cyan,circle
1307.0,8.0,4.0,1.0,1.0,1.0,700.7350819999374,3.0,1.0,phase_1,,,,,,,,,,,,,magenta,cross
1318.0,8.0,4.0,1.0,1.0,1.0,444.5804139995744,3.0,1.0,phase_1,,,,,,,,,,,,,magenta,cross
0.0,1.0,0.0,0.0,2.0,2.0,572.2884709998652,3.0,1.0,phase_1,,,,,,,,,,,,,yellow,square
635.0,3.0,3.0,0.0,2.0,2.0,443.5474540000541,3.0,1.0,phase_1,,,,,,,,,,,,,gray,I
348.0,2.0,2.0,0.0,4.0,4.0,471.1282779999237,3.0,1.0,phase_1,,,,,,,,,,,,,cyan,circle
673.0,3.0,3.0,0.0,3.0,3.0,360.9632880002209,3.0,1.0,phase_1,,,,,,,,,,,,,gray,I
309.0,2.0,2.0,0.0,1.0,1.0,525.851400999727,3.0,1.0,phase_1,,,,,,,,,,,,,cyan,circle
141.0,5.0,1.0,1.0,3.0,3.0,389.5343509998383,3.0,1.0,phase_1,,,,,,,,,,,,,orange,triangle
346.0,2.0,2.0,0.0,4.0,4.0,637.1497009999985,3.0,1.0,phase_1,,,,,,,,,,,,,cyan,circle
638.0,3.0,3.0,0.0,2.0,2.0,379.8893050002334,3.0,1.0,phase_1,,,,,,,,,,,,,gray,I
145.0,1.0,1.0,0.0,4.0,4.0,435.9536350002599,3.0,1.0,phase_1,,,,,,,,,,,,,yellow,square
178.0,5.0,1.0,1.0,3.0,3.0,360.1685149997138,3.0,1.0,phase_1,,,,,,,,,,,,,orange,triangle
346.0,2.0,2.0,0.0,1.0,1.0,636.6792389999318,3.0,1.0,phase_1,,,,,,,,,,,,,cyan,circle
0.0,7.0,0.0,1.0,1.0,1.0,398.8747079997665,3.0,1.0,phase_1,,,,,,,,,,,,,green,hexagon
311.0,6.0,2.0,1.0,3.0,3.0,586.0520940000242,3.0,1.0,phase_1,,,,,,,,,,,,,white,diamond
0.0,8.0,0.0,1.0,3.0,3.0,509.64700699978494,3.0,1.0,phase_1,,,,,,,,,,,,,magenta,cross
0.0,3.0,0.0,0.0,1.0,1.0,620.8023660001345,3.0,1.0,phase_1,,,,,,,,,,,,,gray,I
157.0,1.0,1.0,0.0,3.0,3.0,407.9733509997822,3.0,1.0,phase_1,,,,,,,,,,,,,yellow,square
1323.0,4.0,4.0,0.0,3.0,3.0,350.5938710000009,3.0,1.0,phase_1,,,,,,,,,,,,,blue,flipped triangle
654.0,3.0,3.0,0.0,4.0,4.0,555.6071579999298,3.0,1.0,phase_1,,,,,,,,,,,,,gray,I
664.0,7.0,3.0,1.0,4.0,4.0,425.8366660001229,3.0,1.0,phase_1,,,,,,,,,,,,,green,hexagon
1285.0,4.0,4.0,0.0,2.0,2.0,454.8640219995832,3.0,1.0,phase_1,,,,,,,,,,,,,blue,flipped triangle
0.0,2.0,0.0,0.0,1.0,1.0,528.6095129999921,3.0,1.0,phase_1,,,,,,,,,,,,,cyan,circle
149.0,1.0,1.0,0.0,3.0,3.0,398.5446309998224,3.0,1.0,phase_1,,,,,,,,,,,,,yellow,square
1295.0,4.0,4.0,0.0,1.0,1.0,779.9264430000221,3.0,1.0,phase_1,,,,,,,,,,,,,blue,flipped triangle
1276.0,8.0,4.0,1.0,4.0,4.0,527.5284790000114,3.0,1.0,phase_1,,,,,,,,,,,,,magenta,cross
0.0,3.0,0.0,0.0,4.0,4.0,461.2020929998834,3.0,1.0,phase_1,,,,,,,,,,,,,gray,I
1307.0,4.0,4.0,0.0,1.0,1.0,545.2210330004164,3.0,1.0,phase_1,,,,,,,,,,,,,blue,flipped triangle
0.0,2.0,0.0,0.0,3.0,3.0,417.0891879998635,3.0,1.0,phase_1,,,,,,,,,,,,,cyan,circle
164.0,5.0,1.0,1.0,3.0,3.0,415.7847700003003,3.0,1.0,phase_1,,,,,,,,,,,,,orange,triangle
169.0,5.0,1.0,1.0,2.0,2.0,598.9996070002235,3.0,1.0,phase_1,,,,,,,,,,,,,orange,triangle
632.0,3.0,3.0,0.0,3.0,3.0,554.2819009997402,3.0,1.0,phase_1,,,,,,,,,,,,,gray,I
178.0,1.0,1.0,0.0,1.0,1.0,655.4235079997852,3.0,1.0,phase_1,,,,,,,,,,,,,yellow,square
0.0,7.0,0.0,1.0,2.0,2.0,655.0838160001149,3.0,1.0,phase_1,,,,,,,,,,,,,green,hexagon
181.0,1.0,1.0,0.0,3.0,3.0,359.3412630002603,3.0,1.0,phase_1,,,,,,,,,,,,,yellow,square
0.0,4.0,0.0,0.0,3.0,3.0,378.5401360000833,3.0,1.0,phase_1,,,,,,,,,,,,,blue,flipped triangle
632.0,3.0,3.0,0.0,2.0,2.0,590.4107760002262,3.0,1.0,phase_1,,,,,,,,,,,,,gray,I
0.0,2.0,0.0,0.0,3.0,3.0,535.0386530003561,4.0,1.0,phase_1,,,,,,,,,,,,,cyan,circle
146.0,5.0,1.0,1.0,1.0,1.0,415.6564859999889,4.0,1.0,phase_1,,,,,,,,,,,,,orange,triangle
309.0,6.0,2.0,1.0,2.0,2.0,489.7047859999475,4.0,1.0,phase_1,,,,,,,,,,,,,white,diamond
165.0,1.0,1.0,0.0,4.0,4.0,406.5262760000223,4.0,1.0,phase_1,,,,,,,,,,,,,yellow,square
331.0,2.0,2.0,0.0,1.0,1.0,443.7788939999336,4.0,1.0,phase_1,,,,,,,,,,,,,cyan,circle
159.0,5.0,1.0,1.0,4.0,4.0,453.5235950002061,4.0,1.0,phase_1,,,,,,,,,,,,,orange,triangle
1294.0,8.0,4.0,1.0,3.0,3.0,370.18333099968,4.0,1.0,phase_1,,,,,,,,,,,,,magenta,cross
0.0,6.0,0.0,1.0,4.0,4.0,406.9109439997191,4.0,1.0,phase_1,,,,,,,,,,,,,white,diamond
1306.0,8.0,4.0,1.0,2.0,2.0,378.4083939999618,4.0,1.0,phase_1,,,,,,,,,,,,,magenta,cross
662.0,3.0,3.0,0.0,4.0,4.0,462.4718989998655,4.0,1.0,phase_1,,,,,,,,,,,,,gray,I
1323.0,8.0,4.0,1.0,3.0,3.0,368.7255620002361,4.0,1.0,phase_1,,,,,,,,,,,,,magenta,cross
652.0,7.0,3.0,1.0,1.0,1.0,730.036895000012,4.0,1.0,phase_1,,,,,,,,,,,,,green,hexagon
139.0,5.0,1.0,1.0,2.0,2.0,415.6601370000317,4.0,1.0,phase_1,,,,,,,,,,,,,orange,triangle
667.0,7.0,3.0,1.0,1.0,1.0,424.9890450000748,4.0,1.0,phase_1,,,,,,,,,,,,,green,hexagon
1318.0,4.0,4.0,0.0,4.0,4.0,480.8526390002043,4.0,1.0,phase_1,,,,,,,,,,,,,blue,flipped triangle
168.0,1.0,1.0,0.0,4.0,4.0,406.7741989997557,4.0,1.0,phase_1,,,,,,,,,,,,,yellow,square
0.0,5.0,0.0,1.0,4.0,4.0,433.3392270000331,4.0,1.0,phase_1,,,,,,,,,,,,,orange,triangle
1312.0,4.0,4.0,0.0,1.0,1.0,518.1858989999455,4.0,1.0,phase_1,,,,,,,,,,,,,blue,flipped triangle
0.0,2.0,0.0,0.0,3.0,3.0,378.0709699999534,4.0,1.0,phase_1,,,,,,,,,,,,,cyan,circle
626.0,7.0,3.0,1.0,4.0,4.0,452.478334999796,4.0,1.0,phase_1,,,,,,,,,,,,,green,hexagon
1306.0,4.0,4.0,0.0,3.0,3.0,369.9094370003877,4.0,1.0,phase_1,,,,,,,,,,,,,blue,flipped triangle
159.0,1.0,1.0,0.0,4.0,4.0,406.2725540002248,4.0,1.0,phase_1,,,,,,,,,,,,,yellow,square
1276.0,8.0,4.0,1.0,4.0,4.0,469.6371059999364,4.0,1.0,phase_1,,,,,,,,,,,,,magenta,cross
0.0,7.0,0.0,1.0,1.0,1.0,507.30321199989703,4.0,1.0,phase_1,,,,,,,,,,,,,green,hexagon
1319.0,4.0,4.0,0.0,1.0,1.0,433.4200429998418,4.0,1.0,phase_1,,,,,,,,,,,,,blue,flipped triangle
652.0,3.0,3.0,0.0,1.0,1.0,461.4992900001198,4.0,1.0,phase_1,,,,,,,,,,,,,gray,I
0.0,3.0,0.0,0.0,1.0,1.0,387.735555999825,4.0,1.0,phase_1,,,,,,,,,,,,,gray,I
331.0,2.0,2.0,0.0,2.0,2.0,433.2317280000097,4.0,1.0,phase_1,,,,,,,,,,,,,cyan,circle
319.0,2.0,2.0,0.0,1.0,1.0,404.8618090000673,4.0,1.0,phase_1,,,,,,,,,,,,,cyan,circle
1304.0,8.0,4.0,1.0,1.0,1.0,369.2727010002272,4.0,1.0,phase_1,,,,,,,,,,,,,magenta,cross
0.0,4.0,0.0,0.0,4.0,4.0,452.9764180001621,4.0,1.0,phase_1,,,,,,,,,,,,,blue,flipped triangle
147.0,5.0,1.0,1.0,1.0,1.0,378.5870709998562,4.0,1.0,phase_1,,,,,,,,,,,,,orange,triangle
309.0,2.0,2.0,0.0,3.0,3.0,388.6513600000398,4.0,1.0,phase_1,,,,,,,,,,,,,cyan,circle
0.0,1.0,0.0,0.0,1.0,1.0,415.7384750001256,4.0,1.0,phase_1,,,,,,,,,,,,,yellow,square
0.0,4.0,0.0,0.0,4.0,4.0,406.7518689998906,4.0,1.0,phase_1,,,,,,,,,,,,,blue,flipped triangle
325.0,2.0,2.0,0.0,3.0,3.0,331.831516999955,4.0,1.0,phase_1,,,,,,,,,,,,,cyan,circle
0.0,8.0,0.0,1.0,3.0,3.0,350.879273999908,4.0,1.0,phase_1,,,,,,,,,,,,,magenta,cross
0.0,5.0,0.0,1.0,1.0,1.0,434.4529579998379,4.0,1.0,phase_1,,,,,,,,,,,,,orange,triangle
1312.0,8.0,4.0,1.0,3.0,3.0,350.918578999881,4.0,1.0,phase_1,,,,,,,,,,,,,magenta,cross
142.0,5.0,1.0,1.0,2.0,2.0,407.4867670001367,4.0,1.0,phase_1,,,,,,,,,,,,,orange,triangle
0.0,4.0,0.0,0.0,4.0,4.0,487.9232869998304,4.0,1.0,phase_1,,,,,,,,,,,,,blue,flipped triangle
1294.0,8.0,4.0,1.0,1.0,1.0,379.2062130000886,4.0,1.0,phase_1,,,,,,,,,,,,,magenta,cross
323.0,2.0,2.0,0.0,3.0,3.0,470.7119630002125,4.0,1.0,phase_1,,,,,,,,,,,,,cyan,circle
347.0,6.0,2.0,1.0,4.0,4.0,416.4053239996974,4.0,1.0,phase_1,,,,,,,,,,,,,white,diamond
321.0,6.0,2.0,1.0,2.0,2.0,407.233580999673,4.0,1.0,phase_1,,,,,,,,,,,,,white,diamond
1280.0,4.0,4.0,0.0,3.0,3.0,425.5652410001858,4.0,1.0,phase_1,,,,,,,,,,,,,blue,flipped triangle
153.0,1.0,1.0,0.0,1.0,1.0,639.1972229998828,4.0,1.0,phase_1,,,,,,,,,,,,,yellow,square
139.0,1.0,1.0,0.0,1.0,1.0,379.6359900002244,4.0,1.0,phase_1,,,,,,,,,,,,,yellow,square
0.0,3.0,0.0,0.0,3.0,3.0,379.3128680003974,4.0,1.0,phase_1,,,,,,,,,,,,,gray,I
0.0,3.0,0.0,0.0,1.0,1.0,601.77099800012,4.0,1.0,phase_1,,,,,,,,,,,,,gray,I
0.0,8.0,0.0,1.0,1.0,1.0,407.9291490002106,4.0,1.0,phase_1,,,,,,,,,,,,,magenta,cross
0.0,1.0,0.0,0.0,3.0,3.0,406.9343020000815,4.0,1.0,phase_1,,,,,,,,,,,,,yellow,square
1293.0,8.0,4.0,1.0,4.0,4.0,582.1825109997008,4.0,1.0,phase_1,,,,,,,,,,,,,magenta,cross
0.0,6.0,0.0,1.0,3.0,3.0,423.8047190001452,4.0,1.0,phase_1,,,,,,,,,,,,,white,diamond
347.0,6.0,2.0,1.0,2.0,2.0,507.5213619998067,4.0,1.0,phase_1,,,,,,,,,,,,,white,diamond
336.0,6.0,2.0,1.0,3.0,3.0,416.3588070000514,4.0,1.0,phase_1,,,,,,,,,,,,,white,diamond
675.0,7.0,3.0,1.0,2.0,2.0,599.9810370003615,4.0,1.0,phase_1,,,,,,,,,,,,,green,hexagon
331.0,6.0,2.0,1.0,1.0,1.0,462.5160929999765,4.0,1.0,phase_1,,,,,,,,,,,,,white,diamond
338.0,6.0,2.0,1.0,3.0,3.0,397.9569309999533,4.0,1.0,phase_1,,,,,,,,,,,,,white,diamond
1308.0,8.0,4.0,1.0,3.0,3.0,380.4112930001793,4.0,1.0,phase_1,,,,,,,,,,,,,magenta,cross
318.0,6.0,2.0,1.0,4.0,4.0,516.2696750003306,4.0,1.0,phase_1,,,,,,,,,,,,,white,diamond
1279.0,8.0,4.0,1.0,2.0,2.0,576.6642590001538,4.0,1.0,phase_1,,,,,,,,,,,,,magenta,cross
161.0,5.0,1.0,1.0,3.0,3.0,471.3965410001037,4.0,1.0,phase_1,,,,,,,,,,,,,orange,triangle
659.0,7.0,3.0,1.0,4.0,4.0,396.2848309997753,4.0,1.0,phase_1,,,,,,,,,,,,,green,hexagon
626.0,3.0,3.0,0.0,4.0,4.0,398.4023419998266,4.0,1.0,phase_1,,,,,,,,,,,,,gray,I
1279.0,4.0,4.0,0.0,3.0,3.0,388.3148160002747,4.0,1.0,phase_1,,,,,,,,,,,,,blue,flipped triangle
319.0,2.0,2.0,0.0,1.0,1.0,462.9239789996973,4.0,1.0,phase_1,,,,,,,,,,,,,cyan,circle
675.0,3.0,3.0,0.0,1.0,1.0,424.3617369997992,4.0,1.0,phase_1,,,,,,,,,,,,,gray,I
301.0,2.0,2.0,0.0,3.0,3.0,406.8418359997849,4.0,1.0,phase_1,,,,,,,,,,,,,cyan,circle
165.0,1.0,1.0,0.0,2.0,2.0,398.6409839999396,4.0,1.0,phase_1,,,,,,,,,,,,,yellow,square
336.0,2.0,2.0,0.0,2.0,2.0,480.2640230000179,4.0,1.0,phase_1,,,,,,,,,,,,,cyan,circle
150.0,1.0,1.0,0.0,1.0,1.0,469.080902999849,4.0,1.0,phase_1,,,,,,,,,,,,,yellow,square
1311.0,8.0,4.0,1.0,1.0,1.0,389.0053400000397,4.0,1.0,phase_1,,,,,,,,,,,,,magenta,cross
326.0,2.0,2.0,0.0,4.0,4.0,557.2152239997195,4.0,1.0,phase_1,,,,,,,,,,,,,cyan,circle
667.0,3.0,3.0,0.0,1.0,1.0,653.7339699998483,4.0,1.0,phase_1,,,,,,,,,,,,,gray,I
164.0,1.0,1.0,0.0,3.0,3.0,424.7393109999393,4.0,1.0,phase_1,,,,,,,,,,,,,yellow,square
346.0,6.0,2.0,1.0,1.0,1.0,387.5389029999496,4.0,1.0,phase_1,,,,,,,,,,,,,white,diamond
1280.0,8.0,4.0,1.0,4.0,4.0,713.2977999999639,4.0,1.0,phase_1,,,,,,,,,,,,,magenta,cross
1281.0,8.0,4.0,1.0,1.0,1.0,509.45445899969855,4.0,1.0,phase_1,,,,,,,,,,,,,magenta,cross
1280.0,8.0,4.0,1.0,1.0,1.0,433.4807740001452,4.0,1.0,phase_1,,,,,,,,,,,,,magenta,cross
163.0,5.0,1.0,1.0,4.0,4.0,497.2799150000355,4.0,1.0,phase_1,,,,,,,,,,,,,orange,triangle
1318.0,8.0,4.0,1.0,4.0,4.0,470.2092540001104,4.0,1.0,phase_1,,,,,,,,,,,,,magenta,cross
1314.0,8.0,4.0,1.0,2.0,2.0,424.6357209999587,4.0,1.0,phase_1,,,,,,,,,,,,,magenta,cross
654.0,7.0,3.0,1.0,2.0,2.0,516.1702020000121,4.0,1.0,phase_1,,,,,,,,,,,,,green,hexagon
157.0,5.0,1.0,1.0,3.0,3.0,390.6114559999878,4.0,1.0,phase_1,,,,,,,,,,,,,orange,triangle
0.0,5.0,0.0,1.0,2.0,2.0,425.2894219998779,4.0,1.0,phase_1,,,,,,,,,,,,,orange,triangle
186.0,1.0,1.0,0.0,2.0,2.0,389.1559949997827,4.0,1.0,phase_1,,,,,,,,,,,,,yellow,square
348.0,2.0,2.0,0.0,2.0,2.0,425.1071120002052,4.0,1.0,phase_1,,,,,,,,,,,,,cyan,circle
326.0,6.0,2.0,1.0,4.0,4.0,451.7356199999085,4.0,1.0,phase_1,,,,,,,,,,,,,white,diamond
314.0,2.0,2.0,0.0,3.0,3.0,396.8323670001155,4.0,1.0,phase_1,,,,,,,,,,,,,cyan,circle
326.0,2.0,2.0,0.0,4.0,4.0,442.5529379996078,4.0,1.0,phase_1,,,,,,,,,,,,,cyan,circle
178.0,5.0,1.0,1.0,4.0,4.0,443.104890000086,4.0,1.0,phase_1,,,,,,,,,,,,,orange,triangle
341.0,2.0,2.0,0.0,3.0,3.0,387.6509510000687,4.0,1.0,phase_1,,,,,,,,,,,,,cyan,circle
1287.0,4.0,4.0,0.0,2.0,2.0,423.2292249998863,4.0,1.0,phase_1,,,,,,,,,,,,,blue,flipped triangle
638.0,7.0,3.0,1.0,3.0,3.0,404.7823139999309,4.0,1.0,phase_1,,,,,,,,,,,,,green,hexagon
659.0,3.0,3.0,0.0,2.0,2.0,469.9419280000256,4.0,1.0,phase_1,,,,,,,,,,,,,gray,I
0.0,3.0,0.0,0.0,1.0,1.0,874.9321889999919,4.0,1.0,phase_1,,,,,,,,,,,,,gray,I
1302.0,4.0,4.0,0.0,2.0,2.0,424.4738709999183,4.0,1.0,phase_1,,,,,,,,,,,,,blue,flipped triangle
0.0,1.0,0.0,0.0,2.0,2.0,396.6585190000842,4.0,1.0,phase_1,,,,,,,,,,,,,yellow,square
1314.0,4.0,4.0,0.0,3.0,3.0,369.5205710000664,4.0,1.0,phase_1,,,,,,,,,,,,,blue,flipped triangle
0.0,5.0,1.0,1.0,6.0,0.0,0.0,1.0,1.0,phase_2,stop,250.0,250.0,4.0,,,,,,,,,orange,triangle
0.0,4.0,4.0,0.0,6.0,6.0,677.2849649996715,1.0,1.0,phase_2,go,250.0,300.0,1.0,,,,,,,,,blue,flipped triangle
0.0,1.0,1.0,0.0,5.0,5.0,779.260014999636,1.0,1.0,phase_2,go,250.0,300.0,1.0,,,,,,,,,yellow,square
0.0,8.0,4.0,1.0,6.0,6.0,659.7810170001139,1.0,1.0,phase_2,go,250.0,300.0,1.0,,,,,,,,,magenta,cross
0.0,3.0,3.0,0.0,6.0,6.0,640.8551409999745,1.0,1.0,phase_2,go,250.0,300.0,1.0,,,,,,,,,gray,I
0.0,6.0,2.0,1.0,6.0,0.0,0.0,1.0,1.0,phase_2,stop,250.0,300.0,4.0,,,,,,,,,white,diamond
0.0,4.0,4.0,0.0,6.0,6.0,743.8956420000977,1.0,1.0,phase_2,go,250.0,350.0,1.0,,,,,,,,,blue,flipped triangle
0.0,1.0,1.0,0.0,6.0,6.0,671.6386790003526,1.0,1.0,phase_2,go,250.0,350.0,1.0,,,,,,,,,yellow,square
0.0,6.0,2.0,1.0,5.0,0.0,0.0,1.0,1.0,phase_2,stop,250.0,350.0,4.0,,,,,,,,,white,diamond
0.0,3.0,3.0,0.0,6.0,6.0,567.7173260000927,1.0,1.0,phase_2,go,300.0,350.0,1.0,,,,,,,,,gray,I
0.0,6.0,2.0,1.0,6.0,0.0,0.0,1.0,1.0,phase_2,stop,300.0,350.0,4.0,,,,,,,,,white,diamond
0.0,8.0,4.0,1.0,6.0,0.0,0.0,1.0,1.0,phase_2,stop,300.0,400.0,4.0,,,,,,,,,magenta,cross
0.0,2.0,2.0,0.0,6.0,6.0,697.8738870002417,1.0,1.0,phase_2,go,300.0,450.0,1.0,,,,,,,,,cyan,circle
0.0,7.0,3.0,1.0,6.0,0.0,0.0,1.0,1.0,phase_2,stop,300.0,450.0,4.0,,,,,,,,,green,hexagon
0.0,7.0,3.0,1.0,5.0,0.0,0.0,1.0,1.0,phase_2,stop,300.0,500.0,4.0,,,,,,,,,green,hexagon
0.0,2.0,2.0,0.0,5.0,5.0,725.2122069999132,1.0,1.0,phase_2,go,350.0,500.0,1.0,,,,,,,,,cyan,circle
0.0,5.0,1.0,1.0,6.0,0.0,0.0,1.0,1.0,phase_2,stop,350.0,500.0,4.0,,,,,,,,,orange,triangle
0.0,4.0,4.0,0.0,6.0,6.0,734.7131259998605,1.0,1.0,phase_2,go,350.0,550.0,1.0,,,,,,,,,blue,flipped triangle
0.0,3.0,3.0,0.0,5.0,5.0,780.6456729999809,1.0,1.0,phase_2,go,350.0,550.0,1.0,,,,,,,,,gray,I
0.0,5.0,1.0,1.0,6.0,0.0,0.0,1.0,1.0,phase_2,stop,350.0,550.0,4.0,,,,,,,,,orange,triangle
0.0,7.0,3.0,1.0,5.0,0.0,0.0,1.0,1.0,phase_2,stop,350.0,600.0,4.0,,,,,,,,,green,hexagon
0.0,3.0,3.0,0.0,6.0,6.0,623.8372249999884,1.0,1.0,phase_2,go,400.0,600.0,1.0,,,,,,,,,gray,I
0.0,8.0,4.0,1.0,5.0,0.0,0.0,1.0,1.0,phase_2,stop,400.0,600.0,4.0,,,,,,,,,magenta,cross
0.0,6.0,2.0,1.0,5.0,0.0,0.0,1.0,1.0,phase_2,stop,450.0,600.0,4.0,,,,,,,,,white,diamond
0.0,5.0,1.0,1.0,5.0,5.0,881.5511329999026,1.0,1.0,phase_2,go,500.0,600.0,1.0,,,,,,,,,orange,triangle
0.0,1.0,1.0,0.0,6.0,6.0,799.5291950001047,1.0,1.0,phase_2,go,500.0,600.0,1.0,,,,,,,,,yellow,square
0.0,8.0,4.0,1.0,5.0,0.0,0.0,1.0,1.0,phase_2,stop,500.0,600.0,4.0,,,,,,,,,magenta,cross
0.0,1.0,1.0,0.0,5.0,5.0,798.574077000012,1.0,1.0,phase_2,go,550.0,600.0,1.0,,,,,,,,,yellow,square
0.0,3.0,3.0,0.0,5.0,5.0,603.146838000157,1.0,1.0,phase_2,go,550.0,600.0,1.0,,,,,,,,,gray,I
0.0,3.0,3.0,0.0,6.0,6.0,689.3254219999108,1.0,1.0,phase_2,go,550.0,600.0,1.0,,,,,,,,,gray,I
0.0,5.0,1.0,1.0,5.0,5.0,702.46651799971,1.0,1.0,phase_2,stop,550.0,600.0,3.0,,,,,,,,,orange,triangle
0.0,5.0,1.0,1.0,5.0,5.0,847.6440419999562,1.0,1.0,phase_2,go,500.0,600.0,1.0,,,,,,,,,orange,triangle
0.0,4.0,4.0,0.0,6.0,6.0,949.6330560000388,1.0,1.0,phase_2,go,500.0,600.0,1.0,,,,,,,,,blue,flipped triangle
0.0,4.0,4.0,0.0,5.0,5.0,827.8218050004398,1.0,1.0,phase_2,go,500.0,600.0,1.0,,,,,,,,,blue,flipped triangle
0.0,6.0,2.0,1.0,5.0,0.0,0.0,1.0,1.0,phase_2,stop,500.0,600.0,4.0,,,,,,,,,white,diamond
0.0,8.0,4.0,1.0,6.0,6.0,874.4427459996587,1.0,1.0,phase_2,go,550.0,600.0,1.0,,,,,,,,,magenta,cross
0.0,7.0,3.0,1.0,5.0,5.0,436.4156050000929,2.0,1.0,phase_2,stop,550.0,600.0,3.0,,,,,,,,,green,hexagon
0.0,1.0,1.0,0.0,6.0,6.0,408.6466419998942,2.0,1.0,phase_2,go,500.0,600.0,1.0,,,,,,,,,yellow,square
0.0,4.0,4.0,0.0,6.0,6.0,382.0409830000244,2.0,1.0,phase_2,go,500.0,600.0,1.0,,,,,,,,,blue,flipped triangle
0.0,8.0,4.0,1.0,5.0,5.0,446.7508709999492,2.0,1.0,phase_2,go,500.0,600.0,1.0,,,,,,,,,magenta,cross
0.0,5.0,1.0,1.0,6.0,6.0,399.3096760000298,2.0,1.0,phase_2,go,500.0,600.0,1.0,,,,,,,,,orange,triangle
0.0,7.0,3.0,1.0,5.0,5.0,474.2456290000518,2.0,1.0,phase_2,stop,500.0,600.0,3.0,,,,,,,,,green,hexagon
0.0,6.0,2.0,1.0,5.0,5.0,549.29163099996,2.0,1.0,phase_2,go,450.0,600.0,1.0,,,,,,,,,white,diamond
0.0,4.0,4.0,0.0,5.0,5.0,456.4434740000251,2.0,1.0,phase_2,go,450.0,600.0,1.0,,,,,,,,,blue,flipped triangle
0.0,3.0,3.0,0.0,6.0,6.0,419.9668749997727,2.0,1.0,phase_2,go,450.0,600.0,1.0,,,,,,,,,gray,I
0.0,8.0,4.0,1.0,6.0,6.0,428.8121670001601,2.0,1.0,phase_2,stop,450.0,600.0,3.0,,,,,,,,,magenta,cross
0.0,2.0,2.0,0.0,6.0,6.0,455.3013069998997,2.0,1.0,phase_2,go,450.0,550.0,1.0,,,,,,,,,cyan,circle
0.0,1.0,1.0,0.0,6.0,6.0,685.7363290000649,2.0,1.0,phase_2,go,450.0,550.0,1.0,,,,,,,,,yellow,square
0.0,6.0,2.0,1.0,5.0,0.0,0.0,2.0,1.0,phase_2,stop,450.0,550.0,4.0,,,,,,,,,white,diamond
0.0,6.0,2.0,1.0,6.0,6.0,669.2302399997061,2.0,1.0,phase_2,stop,500.0,550.0,3.0,,,,,,,,,white,diamond
0.0,1.0,1.0,0.0,5.0,5.0,733.7910840001314,2.0,1.0,phase_2,go,500.0,500.0,1.0,,,,,,,,,yellow,square
0.0,5.0,1.0,1.0,5.0,0.0,0.0,2.0,1.0,phase_2,stop,500.0,500.0,4.0,,,,,,,,,orange,triangle
0.0,8.0,4.0,1.0,6.0,6.0,449.6802759999809,2.0,1.0,phase_2,stop,550.0,500.0,3.0,,,,,,,,,magenta,cross
0.0,1.0,1.0,0.0,5.0,5.0,854.1963500001657,2.0,1.0,phase_2,go,550.0,450.0,1.0,,,,,,,,,yellow,square
0.0,6.0,2.0,1.0,6.0,6.0,779.9599740001213,2.0,1.0,phase_2,go,550.0,450.0,1.0,,,,,,,,,white,diamond
0.0,5.0,1.0,1.0,5.0,0.0,0.0,2.0,1.0,phase_2,stop,550.0,450.0,4.0,,,,,,,,,orange,triangle
0.0,6.0,2.0,1.0,5.0,0.0,0.0,2.0,1.0,phase_2,stop,600.0,450.0,4.0,,,,,,,,,white,diamond
0.0,5.0,1.0,1.0,6.0,0.0,0.0,2.0,1.0,phase_2,stop,650.0,450.0,4.0,,,,,,,,,orange,triangle
0.0,1.0,1.0,0.0,6.0,6.0,697.4796200001947,2.0,1.0,phase_2,go,650.0,500.0,1.0,,,,,,,,,yellow,square
0.0,8.0,4.0,1.0,5.0,5.0,784.6802619997106,2.0,1.0,phase_2,stop,650.0,500.0,3.0,,,,,,,,,magenta,cross
0.0,5.0,1.0,1.0,6.0,0.0,0.0,2.0,1.0,phase_2,stop,600.0,500.0,4.0,,,,,,,,,orange,triangle
0.0,2.0,2.0,0.0,6.0,6.0,881.407260999822,2.0,1.0,phase_2,go,600.0,550.0,1.0,,,,,,,,,cyan,circle
0.0,8.0,4.0,1.0,5.0,0.0,0.0,2.0,1.0,phase_2,stop,600.0,550.0,4.0,,,,,,,,,magenta,cross
0.0,2.0,2.0,0.0,5.0,5.0,910.0407710002399,2.0,1.0,phase_2,go,650.0,550.0,1.0,,,,,,,,,cyan,circle
0.0,2.0,2.0,0.0,6.0,6.0,892.131457999767,2.0,1.0,phase_2,go,650.0,550.0,1.0,,,,,,,,,cyan,circle
0.0,4.0,4.0,0.0,6.0,6.0,848.204517999875,2.0,1.0,phase_2,go,650.0,550.0,1.0,,,,,,,,,blue,flipped triangle
0.0,2.0,2.0,0.0,5.0,5.0,1011.3604629996189,2.0,1.0,phase_2,go,650.0,550.0,1.0,,,,,,,,,cyan,circle
0.0,3.0,3.0,0.0,6.0,6.0,938.0728749997616,2.0,1.0,phase_2,go,650.0,550.0,1.0,,,,,,,,,gray,I
0.0,2.0,2.0,0.0,5.0,5.0,948.4538030001204,2.0,1.0,phase_2,go,650.0,550.0,1.0,,,,,,,,,cyan,circle
0.0,4.0,4.0,0.0,5.0,5.0,946.953513999688,2.0,1.0,phase_2,go,650.0,550.0,1.0,,,,,,,,,blue,flipped triangle
0.0,3.0,3.0,0.0,5.0,5.0,909.9647870002628,2.0,1.0,phase_2,go,650.0,550.0,1.0,,,,,,,,,gray,I
0.0,8.0,4.0,1.0,6.0,0.0,0.0,2.0,1.0,phase_2,stop,650.0,550.0,4.0,,,,,,,,,magenta,cross
0.0,5.0,1.0,1.0,5.0,5.0,464.523559999634,3.0,1.0,phase_2,stop,650.0,600.0,3.0,,,,,,,,,orange,triangle
0.0,6.0,2.0,1.0,6.0,6.0,391.0391610002079,3.0,1.0,phase_2,stop,600.0,600.0,3.0,,,,,,,,,white,diamond
0.0,3.0,3.0,0.0,6.0,6.0,642.2612930000469,3.0,1.0,phase_2,go,600.0,550.0,1.0,,,,,,,,,gray,I
0.0,3.0,3.0,0.0,5.0,5.0,474.3312020000303,3.0,1.0,phase_2,go,600.0,550.0,1.0,,,,,,,,,gray,I
0.0,7.0,3.0,1.0,6.0,6.0,452.3915019999549,3.0,1.0,phase_2,go,600.0,550.0,1.0,,,,,,,,,green,hexagon
0.0,6.0,2.0,1.0,6.0,6.0,706.3482309999927,3.0,1.0,phase_2,stop,600.0,550.0,3.0,,,,,,,,,white,diamond
0.0,8.0,4.0,1.0,6.0,0.0,0.0,3.0,1.0,phase_2,stop,600.0,500.0,4.0,,,,,,,,,magenta,cross
0.0,4.0,4.0,0.0,6.0,6.0,857.7258709997295,3.0,1.0,phase_2,go,600.0,550.0,1.0,,,,,,,,,blue,flipped triangle
0.0,1.0,1.0,0.0,6.0,6.0,519.2877559998124,3.0,1.0,phase_2,go,600.0,550.0,1.0,,,,,,,,,yellow,square
0.0,5.0,1.0,1.0,5.0,5.0,844.7140690000197,3.0,1.0,phase_2,stop,600.0,550.0,3.0,,,,,,,,,orange,triangle
0.0,2.0,2.0,0.0,6.0,6.0,716.6336459999911,3.0,1.0,phase_2,go,550.0,550.0,1.0,,,,,,,,,cyan,circle
0.0,8.0,4.0,1.0,5.0,5.0,722.0538409997062,3.0,1.0,phase_2,stop,550.0,550.0,3.0,,,,,,,,,magenta,cross
0.0,2.0,2.0,0.0,5.0,5.0,881.8834860003335,3.0,1.0,phase_2,go,500.0,550.0,1.0,,,,,,,,,cyan,circle
0.0,5.0,1.0,1.0,5.0,0.0,0.0,3.0,1.0,phase_2,stop,500.0,550.0,4.0,,,,,,,,,orange,triangle
0.0,4.0,4.0,0.0,5.0,5.0,790.9700039999734,3.0,1.0,phase_2,go,550.0,550.0,1.0,,,,,,,,,blue,flipped triangle
0.0,7.0,3.0,1.0,5.0,0.0,0.0,3.0,1.0,phase_2,stop,550.0,550.0,4.0,,,,,,,,,green,hexagon
0.0,1.0,1.0,0.0,5.0,5.0,795.6979919999867,3.0,1.0,phase_2,go,600.0,550.0,1.0,,,,,,,,,yellow,square
0.0,2.0,2.0,0.0,6.0,6.0,958.37826900015,3.0,1.0,phase_2,go,600.0,550.0,1.0,,,,,,,,,cyan,circle
0.0,6.0,2.0,1.0,6.0,6.0,548.0942170001981,3.0,1.0,phase_2,go,600.0,550.0,1.0,,,,,,,,,white,diamond
0.0,4.0,4.0,0.0,5.0,5.0,874.7823039998366,3.0,1.0,phase_2,go,600.0,550.0,1.0,,,,,,,,,blue,flipped triangle
0.0,2.0,2.0,0.0,5.0,5.0,538.5913129998698,3.0,1.0,phase_2,go,600.0,550.0,1.0,,,,,,,,,cyan,circle
0.0,7.0,3.0,1.0,6.0,0.0,0.0,3.0,1.0,phase_2,stop,600.0,550.0,4.0,,,,,,,,,green,hexagon
0.0,6.0,2.0,1.0,5.0,5.0,539.8361490001662,3.0,1.0,phase_2,stop,600.0,600.0,3.0,,,,,,,,,white,diamond
0.0,3.0,3.0,0.0,6.0,6.0,763.4679950001555,3.0,1.0,phase_2,go,550.0,600.0,1.0,,,,,,,,,gray,I
0.0,1.0,1.0,0.0,6.0,6.0,492.7508619998662,3.0,1.0,phase_2,go,550.0,600.0,1.0,,,,,,,,,yellow,square
0.0,3.0,3.0,0.0,5.0,5.0,660.4682010001852,3.0,1.0,phase_2,go,550.0,600.0,1.0,,,,,,,,,gray,I
0.0,3.0,3.0,0.0,5.0,5.0,611.5142009998635,3.0,1.0,phase_2,go,550.0,600.0,1.0,,,,,,,,,gray,I
0.0,4.0,4.0,0.0,6.0,6.0,352.5253430002522,3.0,1.0,phase_2,go,550.0,600.0,1.0,,,,,,,,,blue,flipped triangle
0.0,2.0,2.0,0.0,5.0,5.0,846.1772119999296,3.0,1.0,phase_2,go,550.0,600.0,1.0,,,,,,,,,cyan,circle
0.0,1.0,1.0,0.0,6.0,6.0,354.4992819997787,3.0,1.0,phase_2,go,550.0,600.0,1.0,,,,,,,,,yellow,square
0.0,8.0,4.0,1.0,6.0,6.0,719.1104970002016,3.0,1.0,phase_2,stop,550.0,600.0,3.0,,,,,,,,,magenta,cross
0.0,3.0,3.0,0.0,6.0,6.0,836.1191920002966,3.0,1.0,phase_2,go,550.0,550.0,1.0,,,,,,,,,gray,I
0.0,4.0,4.0,0.0,5.0,5.0,546.7568750000282,3.0,1.0,phase_2,go,550.0,550.0,1.0,,,,,,,,,blue,flipped triangle
0.0,3.0,3.0,0.0,6.0,6.0,514.088824999817,3.0,1.0,phase_2,go,550.0,550.0,1.0,,,,,,,,,gray,I
0.0,1.0,1.0,0.0,6.0,6.0,826.8258069997501,3.0,1.0,phase_2,go,550.0,550.0,1.0,,,,,,,,,yellow,square
0.0,2.0,2.0,0.0,6.0,6.0,436.9267269999,3.0,1.0,phase_2,go,550.0,550.0,1.0,,,,,,,,,cyan,circle
0.0,7.0,3.0,1.0,6.0,6.0,384.7283059999427,4.0,1.0,phase_2,stop,550.0,550.0,3.0,,,,,,,,,green,hexagon
0.0,7.0,3.0,1.0,6.0,6.0,289.1706909999811,4.0,1.0,phase_2,go,550.0,500.0,1.0,,,,,,,,,green,hexagon
0.0,8.0,4.0,1.0,6.0,6.0,327.447346000099,4.0,1.0,phase_2,stop,550.0,500.0,3.0,,,,,,,,,magenta,cross
0.0,7.0,3.0,1.0,6.0,6.0,327.3248729997249,4.0,1.0,phase_2,stop,550.0,450.0,3.0,,,,,,,,,green,hexagon
0.0,8.0,4.0,1.0,5.0,5.0,650.6668090000858,4.0,1.0,phase_2,go,550.0,400.0,1.0,,,,,,,,,magenta,cross
0.0,2.0,2.0,0.0,5.0,5.0,483.9591039999504,4.0,1.0,phase_2,go,550.0,400.0,1.0,,,,,,,,,cyan,circle
0.0,7.0,3.0,1.0,5.0,5.0,411.0225899999022,4.0,1.0,phase_2,stop,550.0,400.0,3.0,,,,,,,,,green,hexagon
0.0,7.0,3.0,1.0,6.0,6.0,355.2300520000244,4.0,1.0,phase_2,stop,500.0,400.0,3.0,,,,,,,,,green,hexagon
0.0,3.0,3.0,0.0,5.0,5.0,465.9469869998247,4.0,1.0,phase_2,go,500.0,350.0,1.0,,,,,,,,,gray,I
0.0,7.0,3.0,1.0,6.0,6.0,418.9355190001151,4.0,1.0,phase_2,go,500.0,350.0,1.0,,,,,,,,,green,hexagon
0.0,3.0,3.0,0.0,6.0,6.0,393.0550510003741,4.0,1.0,phase_2,go,500.0,350.0,1.0,,,,,,,,,gray,I
0.0,1.0,1.0,0.0,5.0,5.0,615.6158159997176,4.0,1.0,phase_2,go,500.0,350.0,1.0,,,,,,,,,yellow,square
0.0,4.0,4.0,0.0,6.0,6.0,503.0673480000587,4.0,1.0,phase_2,go,500.0,350.0,1.0,,,,,,,,,blue,flipped triangle
0.0,5.0,1.0,1.0,5.0,5.0,418.6616930001037,4.0,1.0,phase_2,stop,500.0,350.0,3.0,,,,,,,,,orange,triangle
0.0,5.0,1.0,1.0,6.0,6.0,427.0843459999014,4.0,1.0,phase_2,stop,450.0,350.0,3.0,,,,,,,,,orange,triangle
0.0,2.0,2.0,0.0,6.0,6.0,490.6853649999902,4.0,1.0,phase_2,go,450.0,300.0,1.0,,,,,,,,,cyan,circle
0.0,7.0,3.0,1.0,5.0,0.0,0.0,4.0,1.0,phase_2,stop,450.0,300.0,4.0,,,,,,,,,green,hexagon
0.0,1.0,1.0,0.0,6.0,6.0,485.3254549998382,4.0,1.0,phase_2,go,500.0,300.0,1.0,,,,,,,,,yellow,square
0.0,8.0,4.0,1.0,5.0,5.0,476.1214960003599,4.0,1.0,phase_2,stop,500.0,300.0,3.0,,,,,,,,,magenta,cross
0.0,6.0,2.0,1.0,6.0,6.0,353.1622870000319,4.0,1.0,phase_2,stop,450.0,300.0,3.0,,,,,,,,,white,diamond
0.0,6.0,2.0,1.0,6.0,6.0,845.5457790000764,4.0,1.0,phase_2,go,450.0,250.0,1.0,,,,,,,,,white,diamond
0.0,6.0,2.0,1.0,6.0,0.0,0.0,4.0,1.0,phase_2,stop,450.0,250.0,4.0,,,,,,,,,white,diamond
0.0,4.0,4.0,0.0,6.0,6.0,761.2632440000198,4.0,1.0,phase_2,go,450.0,300.0,1.0,,,,,,,,,blue,flipped triangle
0.0,2.0,2.0,0.0,5.0,5.0,585.4916250000315,4.0,1.0,phase_2,go,450.0,300.0,1.0,,,,,,,,,cyan,circle
0.0,5.0,1.0,1.0,6.0,0.0,0.0,4.0,1.0,phase_2,stop,450.0,300.0,4.0,,,,,,,,,orange,triangle
0.0,7.0,3.0,1.0,5.0,0.0,0.0,4.0,1.0,phase_2,stop,450.0,350.0,4.0,,,,,,,,,green,hexagon
0.0,1.0,1.0,0.0,5.0,5.0,727.3587910003698,4.0,1.0,phase_2,go,500.0,350.0,1.0,,,,,,,,,yellow,square
0.0,6.0,2.0,1.0,5.0,5.0,692.1358889999283,4.0,1.0,phase_2,stop,500.0,350.0,3.0,,,,,,,,,white,diamond
0.0,5.0,1.0,1.0,6.0,6.0,708.1951760001175,4.0,1.0,phase_2,go,450.0,350.0,1.0,,,,,,,,,orange,triangle
0.0,7.0,3.0,1.0,6.0,0.0,0.0,4.0,1.0,phase_2,stop,450.0,350.0,4.0,,,,,,,,,green,hexagon
0.0,8.0,4.0,1.0,6.0,0.0,0.0,4.0,1.0,phase_2,stop,450.0,400.0,4.0,,,,,,,,,magenta,cross
0.0,4.0,4.0,0.0,6.0,6.0,661.5817890001381,4.0,1.0,phase_2,go,450.0,450.0,1.0,,,,,,,,,blue,flipped triangle
0.0,4.0,4.0,0.0,5.0,5.0,641.9701330000862,4.0,1.0,phase_2,go,450.0,450.0,1.0,,,,,,,,,blue,flipped triangle
0.0,3.0,3.0,0.0,5.0,5.0,697.7493959998355,4.0,1.0,phase_2,go,450.0,450.0,1.0,,,,,,,,,gray,I
0.0,5.0,1.0,1.0,5.0,5.0,846.4154260000214,4.0,1.0,phase_2,go,450.0,450.0,1.0,,,,,,,,,orange,triangle
0.0,5.0,1.0,1.0,6.0,6.0,576.0585099997115,4.0,1.0,phase_2,go,450.0,450.0,1.0,,,,,,,,,orange,triangle
0.0,1.0,1.0,0.0,5.0,5.0,297.3295359997792,5.0,1.0,phase_2,go,450.0,450.0,1.0,,,,,,,,,yellow,square
0.0,7.0,3.0,1.0,6.0,6.0,435.7396460000018,5.0,1.0,phase_2,go,450.0,450.0,1.0,,,,,,,,,green,hexagon
0.0,6.0,2.0,1.0,5.0,0.0,0.0,5.0,1.0,phase_2,stop,450.0,450.0,4.0,,,,,,,,,white,diamond
0.0,5.0,1.0,1.0,5.0,5.0,584.9653360000957,5.0,1.0,phase_2,stop,500.0,450.0,3.0,,,,,,,,,orange,triangle
0.0,7.0,3.0,1.0,6.0,6.0,587.571833000311,5.0,1.0,phase_2,stop,450.0,450.0,3.0,,,,,,,,,green,hexagon
0.0,2.0,2.0,0.0,5.0,5.0,671.2058800003433,5.0,1.0,phase_2,go,450.0,400.0,1.0,,,,,,,,,cyan,circle
0.0,4.0,4.0,0.0,5.0,5.0,660.5293659999916,5.0,1.0,phase_2,go,450.0,400.0,1.0,,,,,,,,,blue,flipped triangle
0.0,2.0,2.0,0.0,5.0,5.0,324.6267610002178,5.0,1.0,phase_2,go,450.0,400.0,1.0,,,,,,,,,cyan,circle
0.0,3.0,3.0,0.0,5.0,5.0,326.4096600000812,5.0,1.0,phase_2,go,450.0,400.0,1.0,,,,,,,,,gray,I
0.0,6.0,2.0,1.0,5.0,5.0,307.6387010000871,5.0,1.0,phase_2,go,450.0,400.0,1.0,,,,,,,,,white,diamond
0.0,4.0,4.0,0.0,5.0,5.0,353.4076229998391,5.0,1.0,phase_2,go,450.0,400.0,1.0,,,,,,,,,blue,flipped triangle
0.0,6.0,2.0,1.0,6.0,6.0,504.55843300005654,5.0,1.0,phase_2,stop,450.0,400.0,3.0,,,,,,,,,white,diamond
0.0,1.0,1.0,0.0,5.0,5.0,679.1833249999399,5.0,1.0,phase_2,go,450.0,350.0,1.0,,,,,,,,,yellow,square
0.0,7.0,3.0,1.0,5.0,5.0,445.4891639998095,5.0,1.0,phase_2,go,450.0,350.0,1.0,,,,,,,,,green,hexagon
0.0,7.0,3.0,1.0,5.0,5.0,495.1822980001452,5.0,1.0,phase_2,stop,450.0,350.0,3.0,,,,,,,,,green,hexagon
0.0,8.0,4.0,1.0,5.0,5.0,441.0892129999411,5.0,1.0,phase_2,stop,400.0,350.0,3.0,,,,,,,,,magenta,cross
0.0,8.0,4.0,1.0,6.0,6.0,577.7405919998273,5.0,1.0,phase_2,go,350.0,350.0,1.0,,,,,,,,,magenta,cross
0.0,4.0,4.0,0.0,5.0,5.0,650.8302099996399,5.0,1.0,phase_2,go,350.0,350.0,1.0,,,,,,,,,blue,flipped triangle
0.0,1.0,1.0,0.0,5.0,5.0,680.4602940001132,5.0,1.0,phase_2,go,350.0,350.0,1.0,,,,,,,,,yellow,square
0.0,8.0,4.0,1.0,6.0,0.0,0.0,5.0,1.0,phase_2,stop,350.0,350.0,4.0,,,,,,,,,magenta,cross
0.0,4.0,4.0,0.0,5.0,5.0,669.2516829998567,5.0,1.0,phase_2,go,350.0,400.0,1.0,,,,,,,,,blue,flipped triangle
0.0,7.0,3.0,1.0,5.0,5.0,742.9137379999702,5.0,1.0,phase_2,go,350.0,400.0,1.0,,,,,,,,,green,hexagon
0.0,4.0,4.0,0.0,6.0,6.0,893.697462000091,5.0,1.0,phase_2,go,350.0,400.0,1.0,,,,,,,,,blue,flipped triangle
0.0,2.0,2.0,0.0,6.0,6.0,762.3867940001219,5.0,1.0,phase_2,go,350.0,400.0,1.0,,,,,,,,,cyan,circle
0.0,2.0,2.0,0.0,6.0,6.0,476.7603099999178,5.0,1.0,phase_2,go,350.0,400.0,1.0,,,,,,,,,cyan,circle
0.0,8.0,4.0,1.0,5.0,0.0,0.0,5.0,1.0,phase_2,stop,350.0,400.0,4.0,,,,,,,,,magenta,cross
0.0,1.0,1.0,0.0,5.0,5.0,734.1123539999899,5.0,1.0,phase_2,go,400.0,400.0,1.0,,,,,,,,,yellow,square
0.0,2.0,2.0,0.0,6.0,6.0,549.974438999925,5.0,1.0,phase_2,go,400.0,400.0,1.0,,,,,,,,,cyan,circle
0.0,4.0,4.0,0.0,5.0,5.0,465.3618409997762,5.0,1.0,phase_2,go,400.0,400.0,1.0,,,,,,,,,blue,flipped triangle
0.0,8.0,4.0,1.0,6.0,0.0,0.0,5.0,1.0,phase_2,stop,400.0,400.0,4.0,,,,,,,,,magenta,cross
0.0,7.0,3.0,1.0,6.0,0.0,0.0,5.0,1.0,phase_2,stop,400.0,450.0,4.0,,,,,,,,,green,hexagon
0.0,1.0,1.0,0.0,5.0,5.0,502.8733099998135,5.0,1.0,phase_2,go,400.0,500.0,1.0,,,,,,,,,yellow,square
0.0,5.0,1.0,1.0,5.0,0.0,0.0,5.0,1.0,phase_2,stop,400.0,500.0,4.0,,,,,,,,,orange,triangle
0.0,6.0,2.0,1.0,6.0,6.0,540.026561999639,5.0,1.0,phase_2,stop,450.0,500.0,3.0,,,,,,,,,white,diamond
0.0,5.0,1.0,1.0,5.0,5.0,588.7889050000013,5.0,1.0,phase_2,stop,450.0,450.0,3.0,,,,,,,,,orange,triangle
0.0,2.0,2.0,0.0,6.0,6.0,779.7550860000229,5.0,1.0,phase_2,go,400.0,450.0,1.0,,,,,,,,,cyan,circle
0.0,6.0,2.0,1.0,5.0,5.0,402.296367999952,6.0,1.0,phase_2,go,400.0,450.0,1.0,,,,,,,,,white,diamond
0.0,5.0,1.0,1.0,5.0,5.0,336.747067000033,6.0,1.0,phase_2,stop,400.0,450.0,3.0,,,,,,,,,orange,triangle
0.0,5.0,1.0,1.0,5.0,5.0,617.1605370000179,6.0,1.0,phase_2,go,350.0,450.0,1.0,,,,,,,,,orange,triangle
0.0,7.0,3.0,1.0,5.0,5.0,388.6211330000151,6.0,1.0,phase_2,stop,350.0,450.0,3.0,,,,,,,,,green,hexagon
0.0,1.0,1.0,0.0,6.0,6.0,383.5923750002621,6.0,1.0,phase_2,go,300.0,450.0,1.0,,,,,,,,,yellow,square
0.0,1.0,1.0,0.0,5.0,5.0,485.3580019998844,6.0,1.0,phase_2,go,300.0,450.0,1.0,,,,,,,,,yellow,square
0.0,3.0,3.0,0.0,5.0,5.0,411.4112460001706,6.0,1.0,phase_2,go,300.0,450.0,1.0,,,,,,,,,gray,I
0.0,7.0,3.0,1.0,5.0,5.0,382.3028120000344,6.0,1.0,phase_2,go,300.0,450.0,1.0,,,,,,,,,green,hexagon
0.0,7.0,3.0,1.0,6.0,6.0,581.1598430000231,6.0,1.0,phase_2,stop,300.0,450.0,3.0,,,,,,,,,green,hexagon
0.0,7.0,3.0,1.0,6.0,6.0,493.2745659998545,6.0,1.0,phase_2,stop,300.0,400.0,3.0,,,,,,,,,green,hexagon
0.0,8.0,4.0,1.0,6.0,6.0,453.3066799999687,6.0,1.0,phase_2,stop,300.0,350.0,3.0,,,,,,,,,magenta,cross
0.0,3.0,3.0,0.0,6.0,6.0,782.1382930001164,6.0,1.0,phase_2,go,300.0,300.0,1.0,,,,,,,,,gray,I
0.0,8.0,4.0,1.0,5.0,5.0,708.0283919999601,6.0,1.0,phase_2,go,300.0,300.0,1.0,,,,,,,,,magenta,cross
0.0,4.0,4.0,0.0,5.0,5.0,650.2184169999055,6.0,1.0,phase_2,go,300.0,300.0,1.0,,,,,,,,,blue,flipped triangle
0.0,5.0,1.0,1.0,6.0,0.0,0.0,6.0,1.0,phase_2,stop,300.0,300.0,4.0,,,,,,,,,orange,triangle
0.0,2.0,2.0,0.0,6.0,6.0,693.4548640001594,6.0,1.0,phase_2,go,300.0,350.0,1.0,,,,,,,,,cyan,circle
0.0,6.0,2.0,1.0,6.0,0.0,0.0,6.0,1.0,phase_2,stop,300.0,350.0,4.0,,,,,,,,,white,diamond
0.0,5.0,1.0,1.0,6.0,6.0,550.1433180002095,6.0,1.0,phase_2,stop,300.0,400.0,3.0,,,,,,,,,orange,triangle
0.0,8.0,4.0,1.0,6.0,0.0,0.0,6.0,1.0,phase_2,stop,300.0,350.0,4.0,,,,,,,,,magenta,cross
0.0,4.0,4.0,0.0,5.0,5.0,718.0104059998484,6.0,1.0,phase_2,go,300.0,400.0,1.0,,,,,,,,,blue,flipped triangle
0.0,2.0,2.0,0.0,5.0,5.0,637.7610579997963,6.0,1.0,phase_2,go,300.0,400.0,1.0,,,,,,,,,cyan,circle
0.0,2.0,2.0,0.0,6.0,6.0,521.2100880003163,6.0,1.0,phase_2,go,300.0,400.0,1.0,,,,,,,,,cyan,circle
0.0,1.0,1.0,0.0,5.0,5.0,512.5396039998122,6.0,1.0,phase_2,go,300.0,400.0,1.0,,,,,,,,,yellow,square
0.0,5.0,1.0,1.0,6.0,6.0,672.8201599999011,6.0,1.0,phase_2,go,300.0,400.0,1.0,,,,,,,,,orange,triangle
0.0,5.0,1.0,1.0,5.0,0.0,0.0,6.0,1.0,phase_2,stop,300.0,400.0,4.0,,,,,,,,,orange,triangle
0.0,7.0,3.0,1.0,5.0,0.0,0.0,6.0,1.0,phase_2,stop,350.0,400.0,4.0,,,,,,,,,green,hexagon
0.0,5.0,1.0,1.0,6.0,0.0,0.0,6.0,1.0,phase_2,stop,400.0,400.0,4.0,,,,,,,,,orange,triangle
0.0,3.0,3.0,0.0,6.0,6.0,410.164363000149,6.0,1.0,phase_2,go,400.0,450.0,1.0,,,,,,,,,gray,I
0.0,1.0,1.0,0.0,6.0,6.0,688.3324229997925,6.0,1.0,phase_2,go,400.0,450.0,1.0,,,,,,,,,yellow,square
0.0,2.0,2.0,0.0,5.0,5.0,691.4694039996903,6.0,1.0,phase_2,go,400.0,450.0,1.0,,,,,,,,,cyan,circle
0.0,2.0,2.0,0.0,6.0,6.0,558.1861499999832,6.0,1.0,phase_2,go,400.0,450.0,1.0,,,,,,,,,cyan,circle
0.0,6.0,2.0,1.0,5.0,5.0,428.7748229999124,6.0,1.0,phase_2,stop,400.0,450.0,3.0,,,,,,,,,white,diamond
0.0,6.0,2.0,1.0,6.0,0.0,0.0,6.0,1.0,phase_2,stop,350.0,450.0,4.0,,,,,,,,,white,diamond
0.0,3.0,3.0,0.0,5.0,5.0,725.0412329999563,6.0,1.0,phase_2,go,350.0,500.0,1.0,,,,,,,,,gray,I
0.0,6.0,2.0,1.0,6.0,6.0,408.7644009996438,6.0,1.0,phase_2,go,350.0,500.0,1.0,,,,,,,,,white,diamond
0.0,3.0,3.0,0.0,5.0,5.0,615.6477300000915,6.0,1.0,phase_2,go,350.0,500.0,1.0,,,,,,,,,gray,I
0.0,8.0,4.0,1.0,5.0,5.0,453.7596129998746,7.0,1.0,phase_2,stop,350.0,500.0,3.0,,,,,,,,,magenta,cross
0.0,4.0,4.0,0.0,5.0,5.0,565.8512909999445,7.0,1.0,phase_2,go,300.0,500.0,1.0,,,,,,,,,blue,flipped triangle
0.0,1.0,1.0,0.0,5.0,5.0,324.0639000000556,7.0,1.0,phase_2,go,300.0,500.0,1.0,,,,,,,,,yellow,square
0.0,1.0,1.0,0.0,5.0,5.0,290.0216430002729,7.0,1.0,phase_2,go,300.0,500.0,1.0,,,,,,,,,yellow,square
0.0,2.0,2.0,0.0,5.0,5.0,334.0176110000357,7.0,1.0,phase_2,go,300.0,500.0,1.0,,,,,,,,,cyan,circle
0.0,1.0,1.0,0.0,6.0,6.0,519.294422999792,7.0,1.0,phase_2,go,300.0,500.0,1.0,,,,,,,,,yellow,square
0.0,3.0,3.0,0.0,6.0,6.0,353.7733260000095,7.0,1.0,phase_2,go,300.0,500.0,1.0,,,,,,,,,gray,I
0.0,4.0,4.0,0.0,5.0,5.0,388.7473810000301,7.0,1.0,phase_2,go,300.0,500.0,1.0,,,,,,,,,blue,flipped triangle
0.0,6.0,2.0,1.0,5.0,5.0,378.7940139995953,7.0,1.0,phase_2,stop,300.0,500.0,3.0,,,,,,,,,white,diamond
0.0,3.0,3.0,0.0,5.0,5.0,621.5362349998941,7.0,1.0,phase_2,go,250.0,500.0,1.0,,,,,,,,,gray,I
0.0,8.0,4.0,1.0,5.0,5.0,584.2835309999828,7.0,1.0,phase_2,go,250.0,500.0,1.0,,,,,,,,,magenta,cross
0.0,5.0,1.0,1.0,6.0,6.0,696.0684069999843,7.0,1.0,phase_2,stop,250.0,500.0,3.0,,,,,,,,,orange,triangle
0.0,3.0,3.0,0.0,6.0,6.0,678.486127999804,7.0,1.0,phase_2,go,250.0,450.0,1.0,,,,,,,,,gray,I
0.0,3.0,3.0,0.0,5.0,5.0,583.3740279999802,7.0,1.0,phase_2,go,250.0,450.0,1.0,,,,,,,,,gray,I
0.0,8.0,4.0,1.0,5.0,5.0,476.358332000018,7.0,1.0,phase_2,stop,250.0,450.0,3.0,,,,,,,,,magenta,cross
0.0,8.0,4.0,1.0,6.0,0.0,0.0,7.0,1.0,phase_2,stop,200.0,450.0,4.0,,,,,,,,,magenta,cross
0.0,3.0,3.0,0.0,5.0,5.0,685.7685859999947,7.0,1.0,phase_2,go,200.0,500.0,1.0,,,,,,,,,gray,I
0.0,4.0,4.0,0.0,6.0,6.0,658.3083049999914,7.0,1.0,phase_2,go,200.0,500.0,1.0,,,,,,,,,blue,flipped triangle
0.0,2.0,2.0,0.0,5.0,5.0,473.7593419999939,7.0,1.0,phase_2,go,200.0,500.0,1.0,,,,,,,,,cyan,circle
0.0,6.0,2.0,1.0,6.0,6.0,445.1108599996587,7.0,1.0,phase_2,stop,200.0,500.0,3.0,,,,,,,,,white,diamond
0.0,8.0,4.0,1.0,6.0,0.0,0.0,7.0,1.0,phase_2,stop,200.0,450.0,4.0,,,,,,,,,magenta,cross
0.0,2.0,2.0,0.0,6.0,6.0,716.5573140000561,7.0,1.0,phase_2,go,200.0,500.0,1.0,,,,,,,,,cyan,circle
0.0,1.0,1.0,0.0,6.0,6.0,704.8445340001308,7.0,1.0,phase_2,go,200.0,500.0,1.0,,,,,,,,,yellow,square
0.0,7.0,3.0,1.0,5.0,0.0,0.0,7.0,1.0,phase_2,stop,200.0,500.0,4.0,,,,,,,,,green,hexagon
0.0,8.0,4.0,1.0,5.0,0.0,0.0,7.0,1.0,phase_2,stop,250.0,500.0,4.0,,,,,,,,,magenta,cross
0.0,3.0,3.0,0.0,6.0,6.0,649.420050000117,7.0,1.0,phase_2,go,300.0,500.0,1.0,,,,,,,,,gray,I
0.0,4.0,4.0,0.0,6.0,6.0,565.0610499997128,7.0,1.0,phase_2,go,300.0,500.0,1.0,,,,,,,,,blue,flipped triangle
0.0,4.0,4.0,0.0,6.0,6.0,557.1632740002315,7.0,1.0,phase_2,go,300.0,500.0,1.0,,,,,,,,,blue,flipped triangle
0.0,7.0,3.0,1.0,5.0,0.0,0.0,7.0,1.0,phase_2,stop,300.0,500.0,4.0,,,,,,,,,green,hexagon
0.0,1.0,1.0,0.0,6.0,6.0,474.9944099994536,7.0,1.0,phase_2,go,350.0,500.0,1.0,,,,,,,,,yellow,square
0.0,5.0,1.0,1.0,5.0,5.0,659.2531200003577,7.0,1.0,phase_2,go,350.0,500.0,1.0,,,,,,,,,orange,triangle
0.0,3.0,3.0,0.0,6.0,6.0,483.540449999964,7.0,1.0,phase_2,go,350.0,500.0,1.0,,,,,,,,,gray,I
0.0,7.0,3.0,1.0,5.0,5.0,465.3300529998887,7.0,1.0,phase_2,go,350.0,500.0,1.0,,,,,,,,,green,hexagon
0.0,8.0,4.0,1.0,5.0,0.0,0.0,7.0,1.0,phase_2,stop,350.0,500.0,4.0,,,,,,,,,magenta,cross
0.0,5.0,1.0,1.0,5.0,0.0,0.0,7.0,1.0,phase_2,stop,400.0,500.0,4.0,,,,,,,,,orange,triangle
0.0,8.0,4.0,1.0,5.0,0.0,0.0,7.0,1.0,phase_2,stop,450.0,500.0,4.0,,,,,,,,,magenta,cross
0.0,3.0,3.0,0.0,5.0,5.0,388.7382950006213,8.0,1.0,phase_2,go,500.0,500.0,1.0,,,,,,,,,gray,I
0.0,6.0,2.0,1.0,5.0,5.0,314.8758540000926,8.0,1.0,phase_2,stop,500.0,500.0,3.0,,,,,,,,,white,diamond
0.0,7.0,3.0,1.0,6.0,6.0,342.9483789996084,8.0,1.0,phase_2,stop,450.0,500.0,3.0,,,,,,,,,green,hexagon
0.0,3.0,3.0,0.0,5.0,5.0,501.3322410004548,8.0,1.0,phase_2,go,450.0,450.0,1.0,,,,,,,,,gray,I
0.0,4.0,4.0,0.0,6.0,6.0,603.3055690004403,8.0,1.0,phase_2,go,450.0,450.0,1.0,,,,,,,,,blue,flipped triangle
0.0,7.0,3.0,1.0,6.0,6.0,305.5978029997277,8.0,1.0,phase_2,stop,450.0,450.0,3.0,,,,,,,,,green,hexagon
0.0,7.0,3.0,1.0,5.0,5.0,483.1455089997689,8.0,1.0,phase_2,stop,450.0,400.0,3.0,,,,,,,,,green,hexagon
0.0,2.0,2.0,0.0,5.0,5.0,575.3424189997531,8.0,1.0,phase_2,go,400.0,400.0,1.0,,,,,,,,,cyan,circle
0.0,1.0,1.0,0.0,6.0,6.0,642.8651360001822,8.0,1.0,phase_2,go,400.0,400.0,1.0,,,,,,,,,yellow,square
0.0,1.0,1.0,0.0,6.0,6.0,464.5975590001399,8.0,1.0,phase_2,go,400.0,400.0,1.0,,,,,,,,,yellow,square
0.0,2.0,2.0,0.0,5.0,5.0,520.0988340002368,8.0,1.0,phase_2,go,400.0,400.0,1.0,,,,,,,,,cyan,circle
0.0,3.0,3.0,0.0,6.0,6.0,585.7590089999576,8.0,1.0,phase_2,go,400.0,400.0,1.0,,,,,,,,,gray,I
0.0,6.0,2.0,1.0,5.0,5.0,436.3556279995464,8.0,1.0,phase_2,stop,400.0,400.0,3.0,,,,,,,,,white,diamond
0.0,5.0,1.0,1.0,6.0,6.0,581.5614519997325,8.0,1.0,phase_2,stop,350.0,400.0,3.0,,,,,,,,,orange,triangle
0.0,6.0,2.0,1.0,5.0,5.0,725.5844410001373,8.0,1.0,phase_2,go,350.0,350.0,1.0,,,,,,,,,white,diamond
0.0,6.0,2.0,1.0,6.0,6.0,719.0849380003783,8.0,1.0,phase_2,go,350.0,350.0,1.0,,,,,,,,,white,diamond
0.0,6.0,2.0,1.0,5.0,0.0,0.0,8.0,1.0,phase_2,stop,350.0,350.0,4.0,,,,,,,,,white,diamond
0.0,1.0,1.0,0.0,5.0,5.0,772.2055009999167,8.0,1.0,phase_2,go,400.0,350.0,1.0,,,,,,,,,yellow,square
0.0,5.0,1.0,1.0,6.0,0.0,0.0,8.0,1.0,phase_2,stop,400.0,350.0,4.0,,,,,,,,,orange,triangle
0.0,4.0,4.0,0.0,6.0,6.0,640.1472600000488,8.0,1.0,phase_2,go,400.0,400.0,1.0,,,,,,,,,blue,flipped triangle
0.0,3.0,3.0,0.0,5.0,5.0,529.9121880007078,8.0,1.0,phase_2,go,400.0,400.0,1.0,,,,,,,,,gray,I
0.0,7.0,3.0,1.0,6.0,6.0,596.260508999876,8.0,1.0,phase_2,go,400.0,400.0,1.0,,,,,,,,,green,hexagon
0.0,6.0,2.0,1.0,6.0,6.0,451.2723299994832,8.0,1.0,phase_2,stop,400.0,400.0,3.0,,,,,,,,,white,diamond
0.0,1.0,1.0,0.0,6.0,6.0,650.149889000204,8.0,1.0,phase_2,go,400.0,350.0,1.0,,,,,,,,,yellow,square
0.0,4.0,4.0,0.0,6.0,6.0,596.6042410000227,8.0,1.0,phase_2,go,400.0,350.0,1.0,,,,,,,,,blue,flipped triangle
0.0,7.0,3.0,1.0,6.0,0.0,0.0,8.0,1.0,phase_2,stop,400.0,350.0,4.0,,,,,,,,,green,hexagon
0.0,1.0,1.0,0.0,5.0,5.0,882.4613050001062,8.0,1.0,phase_2,go,400.0,400.0,1.0,,,,,,,,,yellow,square
0.0,8.0,4.0,1.0,6.0,6.0,540.1616409999406,8.0,1.0,phase_2,go,400.0,400.0,1.0,,,,,,,,,magenta,cross
0.0,6.0,2.0,1.0,5.0,0.0,0.0,8.0,1.0,phase_2,stop,400.0,400.0,4.0,,,,,,,,,white,diamond
0.0,2.0,2.0,0.0,5.0,5.0,576.3122540001859,8.0,1.0,phase_2,go,450.0,400.0,1.0,,,,,,,,,cyan,circle
0.0,2.0,2.0,0.0,6.0,6.0,911.4813890000732,8.0,1.0,phase_2,go,450.0,400.0,1.0,,,,,,,,,cyan,circle
0.0,4.0,4.0,0.0,5.0,5.0,435.7588309994753,8.0,1.0,phase_2,go,450.0,400.0,1.0,,,,,,,,,blue,flipped triangle
0.0,5.0,1.0,1.0,6.0,0.0,0.0,8.0,1.0,phase_2,stop,450.0,400.0,4.0,,,,,,,,,orange,triangle
0.0,2.0,2.0,0.0,6.0,6.0,491.7290459998185,8.0,1.0,phase_2,go,450.0,450.0,1.0,,,,,,,,,cyan,circle
0.0,4.0,4.0,0.0,5.0,5.0,463.7354929991488,8.0,1.0,phase_2,go,450.0,450.0,1.0,,,,,,,,,blue,flipped triangle
0.0,8.0,4.0,1.0,5.0,5.0,577.6974800000971,8.0,1.0,phase_2,go,450.0,450.0,1.0,,,,,,,,,magenta,cross
0.0,5.0,1.0,1.0,7.0,3.0,4297.328012999969,1.0,1.0,phase_3,,,,,865.0,5.0,692.0,173.0,865.0,519.0,346.0,1038.0,orange,triangle
0.0,5.0,1.0,1.0,7.0,1.0,3087.293304000013,1.0,1.0,phase_3,,,,,696.0,6.0,696.0,348.0,232.0,580.0,464.0,116.0,orange,triangle
0.0,7.0,3.0,1.0,7.0,4.0,2822.5937550005256,1.0,1.0,phase_3,,,,,232.0,2.0,348.0,116.0,696.0,232.0,464.0,580.0,green,hexagon
0.0,4.0,4.0,0.0,7.0,3.0,4453.207595000094,1.0,1.0,phase_3,,,,,462.0,3.0,770.0,616.0,462.0,924.0,154.0,308.0,blue,flipped triangle
0.0,6.0,2.0,1.0,7.0,2.0,3352.7765640001235,1.0,2.0,phase_3,,,,,405.0,3.0,270.0,405.0,675.0,810.0,540.0,135.0,white,diamond
0.0,2.0,2.0,0.0,7.0,3.0,2536.20069399949,1.0,1.0,phase_3,,,,,135.0,1.0,405.0,270.0,135.0,675.0,540.0,810.0,cyan,circle
0.0,7.0,3.0,1.0,7.0,4.0,1244.535468000322,1.0,1.0,phase_3,,,,,810.0,6.0,270.0,405.0,675.0,810.0,135.0,540.0,green,hexagon
0.0,7.0,3.0,1.0,7.0,2.0,3714.911572999881,1.0,1.0,phase_3,,,,,519.0,3.0,1038.0,519.0,173.0,692.0,346.0,865.0,green,hexagon
0.0,7.0,3.0,1.0,7.0,3.0,3218.190434000462,1.0,1.0,phase_3,,,,,616.0,4.0,770.0,154.0,616.0,924.0,308.0,462.0,green,hexagon
0.0,2.0,2.0,0.0,7.0,4.0,3790.818374000082,1.0,1.0,phase_3,,,,,519.0,3.0,1038.0,865.0,692.0,519.0,173.0,346.0,cyan,circle
0.0,3.0,3.0,0.0,7.0,5.0,2255.1025200000367,1.0,1.0,phase_3,,,,,810.0,6.0,270.0,675.0,135.0,540.0,810.0,405.0,gray,I
0.0,4.0,4.0,0.0,7.0,5.0,2428.1121840003834,1.0,1.0,phase_3,,,,,540.0,4.0,270.0,810.0,405.0,135.0,540.0,675.0,blue,flipped triangle
0.0,8.0,4.0,1.0,7.0,4.0,2076.249017999544,1.0,1.0,phase_3,,,,,675.0,5.0,810.0,135.0,270.0,675.0,405.0,540.0,magenta,cross
0.0,6.0,2.0,1.0,7.0,5.0,2595.715320999261,1.0,1.0,phase_3,,,,,1038.0,6.0,173.0,519.0,865.0,692.0,1038.0,346.0,white,diamond
0.0,2.0,2.0,0.0,7.0,3.0,2692.264762999912,1.0,1.0,phase_3,,,,,692.0,4.0,1038.0,173.0,692.0,346.0,865.0,519.0,cyan,circle
0.0,3.0,3.0,0.0,7.0,6.0,1851.0508300005315,1.0,1.0,phase_3,,,,,580.0,5.0,696.0,348.0,464.0,116.0,232.0,580.0,gray,I
0.0,4.0,4.0,0.0,7.0,3.0,3757.36353999946,1.0,1.0,phase_3,,,,,616.0,4.0,924.0,462.0,616.0,154.0,308.0,770.0,blue,flipped triangle
0.0,8.0,4.0,1.0,7.0,5.0,2067.158823999307,1.0,1.0,phase_3,,,,,696.0,6.0,232.0,348.0,116.0,580.0,696.0,464.0,magenta,cross
0.0,8.0,4.0,1.0,7.0,6.0,2404.621894000229,1.0,1.0,phase_3,,,,,692.0,4.0,173.0,1038.0,519.0,865.0,346.0,692.0,magenta,cross
0.0,1.0,1.0,0.0,7.0,4.0,2113.214838000204,1.0,1.0,phase_3,,,,,576.0,3.0,960.0,1152.0,768.0,576.0,192.0,384.0,yellow,square
0.0,4.0,4.0,0.0,7.0,4.0,1299.5868549996883,2.0,1.0,phase_3,,,,,865.0,5.0,1038.0,692.0,346.0,865.0,173.0,519.0,blue,flipped triangle
0.0,2.0,2.0,0.0,7.0,1.0,738.7573619998875,2.0,1.0,phase_3,,,,,616.0,4.0,616.0,308.0,462.0,924.0,770.0,154.0,cyan,circle
0.0,7.0,3.0,1.0,7.0,1.0,2630.85471300019,2.0,1.0,phase_3,,,,,1038.0,6.0,1038.0,173.0,692.0,865.0,519.0,346.0,green,hexagon
0.0,8.0,4.0,1.0,7.0,6.0,1550.5732769997849,2.0,1.0,phase_3,,,,,519.0,3.0,173.0,1038.0,865.0,692.0,346.0,519.0,magenta,cross
0.0,5.0,1.0,1.0,7.0,3.0,2184.1022690005047,2.0,1.0,phase_3,,,,,675.0,5.0,540.0,405.0,675.0,135.0,810.0,270.0,orange,triangle
0.0,6.0,2.0,1.0,7.0,2.0,2775.373983999998,2.0,1.0,phase_3,,,,,464.0,4.0,348.0,464.0,696.0,232.0,580.0,116.0,white,diamond
0.0,8.0,4.0,1.0,7.0,5.0,1151.1089919995356,2.0,1.0,phase_3,,,,,576.0,3.0,384.0,1152.0,192.0,960.0,576.0,768.0,magenta,cross
0.0,6.0,2.0,1.0,7.0,1.0,2038.0307240002367,2.0,1.0,phase_3,,,,,692.0,4.0,692.0,519.0,865.0,173.0,1038.0,346.0,white,diamond
0.0,1.0,1.0,0.0,7.0,3.0,2870.3653369993845,2.0,1.0,phase_3,,,,,348.0,3.0,464.0,232.0,348.0,696.0,580.0,116.0,yellow,square
0.0,3.0,3.0,0.0,7.0,5.0,2278.5455949997413,2.0,1.0,phase_3,,,,,865.0,5.0,519.0,692.0,1038.0,173.0,865.0,346.0,gray,I
0.0,8.0,4.0,1.0,7.0,6.0,1329.5943129996886,2.0,1.0,phase_3,,,,,770.0,5.0,308.0,462.0,154.0,924.0,616.0,770.0,magenta,cross
0.0,7.0,3.0,1.0,7.0,3.0,1144.477676999486,2.0,1.0,phase_3,,,,,540.0,4.0,135.0,675.0,540.0,270.0,810.0,405.0,green,hexagon
0.0,1.0,1.0,0.0,7.0,4.0,2380.945175999841,2.0,1.0,phase_3,,,,,865.0,5.0,692.0,173.0,1038.0,865.0,519.0,346.0,yellow,square
0.0,3.0,3.0,0.0,7.0,6.0,1524.511125000572,2.0,1.0,phase_3,,,,,865.0,5.0,692.0,346.0,519.0,173.0,1038.0,865.0,gray,I
0.0,1.0,1.0,0.0,7.0,3.0,775.5852990003405,2.0,1.0,phase_3,,,,,770.0,5.0,462.0,154.0,770.0,924.0,308.0,616.0,yellow,square
0.0,1.0,1.0,0.0,7.0,3.0,893.9975450002748,2.0,1.0,phase_3,,,,,696.0,6.0,348.0,232.0,696.0,116.0,464.0,580.0,yellow,square
0.0,5.0,1.0,1.0,7.0,2.0,1035.98265599976,2.0,1.0,phase_3,,,,,770.0,5.0,308.0,770.0,154.0,616.0,924.0,462.0,orange,triangle
0.0,2.0,2.0,0.0,7.0,6.0,1715.4462979997334,2.0,1.0,phase_3,,,,,576.0,3.0,1152.0,960.0,768.0,192.0,384.0,576.0,cyan,circle
0.0,2.0,2.0,0.0,7.0,5.0,1523.5649870000998,2.0,1.0,phase_3,,,,,405.0,3.0,810.0,270.0,540.0,135.0,405.0,675.0,cyan,circle
0.0,3.0,3.0,0.0,7.0,4.0,1308.999543999562,2.0,1.0,phase_3,,,,,576.0,3.0,1152.0,192.0,768.0,576.0,384.0,960.0,gray,I
0.0,8.0,4.0,1.0,7.0,2.0,1302.0121300005485,3.0,1.0,phase_3,,,,,576.0,3.0,960.0,576.0,1152.0,192.0,768.0,384.0,magenta,cross
0.0,1.0,1.0,0.0,7.0,2.0,1442.1407899999394,3.0,1.0,phase_3,,,,,405.0,3.0,810.0,405.0,270.0,540.0,675.0,135.0,yellow,square
0.0,7.0,3.0,1.0,7.0,2.0,989.794568000434,3.0,1.0,phase_3,,,,,770.0,5.0,154.0,770.0,308.0,462.0,616.0,924.0,green,hexagon
0.0,6.0,2.0,1.0,7.0,5.0,577.4861959998816,3.0,1.0,phase_3,,,,,616.0,4.0,770.0,924.0,462.0,308.0,616.0,154.0,white,diamond
0.0,6.0,2.0,1.0,7.0,6.0,2150.9925700001986,3.0,1.0,phase_3,,,,,768.0,4.0,192.0,576.0,1152.0,384.0,960.0,768.0,white,diamond
0.0,7.0,3.0,1.0,7.0,2.0,943.7762019997537,3.0,1.0,phase_3,,,,,1152.0,6.0,768.0,1152.0,576.0,960.0,384.0,192.0,green,hexagon
0.0,4.0,4.0,0.0,7.0,4.0,1567.985034999765,3.0,1.0,phase_3,,,,,960.0,5.0,384.0,768.0,1152.0,960.0,192.0,576.0,blue,flipped triangle
0.0,7.0,3.0,1.0,7.0,6.0,997.8028269997594,3.0,1.0,phase_3,,,,,116.0,1.0,232.0,580.0,696.0,464.0,348.0,116.0,green,hexagon
0.0,5.0,1.0,1.0,7.0,5.0,1082.0342619999792,3.0,1.0,phase_3,,,,,692.0,4.0,865.0,173.0,519.0,346.0,692.0,1038.0,orange,triangle
0.0,7.0,3.0,1.0,7.0,2.0,968.6065060004694,3.0,1.0,phase_3,,,,,768.0,4.0,960.0,768.0,384.0,576.0,192.0,1152.0,green,hexagon
0.0,5.0,1.0,1.0,7.0,6.0,1520.8160399997723,3.0,1.0,phase_3,,,,,576.0,3.0,384.0,960.0,768.0,192.0,1152.0,576.0,orange,triangle
0.0,4.0,4.0,0.0,7.0,5.0,1440.0512970005366,3.0,1.0,phase_3,,,,,348.0,3.0,696.0,232.0,116.0,580.0,348.0,464.0,blue,flipped triangle
0.0,4.0,4.0,0.0,7.0,5.0,2179.50323399964,3.0,1.0,phase_3,,,,,576.0,3.0,960.0,768.0,1152.0,384.0,576.0,192.0,blue,flipped triangle
0.0,2.0,2.0,0.0,7.0,1.0,1754.3721760002882,3.0,1.0,phase_3,,,,,924.0,6.0,924.0,154.0,308.0,770.0,616.0,462.0,cyan,circle
0.0,3.0,3.0,0.0,7.0,5.0,1676.5961359997164,3.0,1.0,phase_3,,,,,540.0,4.0,135.0,675.0,810.0,405.0,540.0,270.0,gray,I
0.0,5.0,1.0,1.0,7.0,6.0,2222.217969000667,3.0,1.0,phase_3,,,,,462.0,3.0,308.0,924.0,154.0,616.0,770.0,462.0,orange,triangle
0.0,4.0,4.0,0.0,7.0,4.0,2238.1206700001712,3.0,1.0,phase_3,,,,,580.0,5.0,696.0,232.0,348.0,580.0,116.0,464.0,blue,flipped triangle
0.0,5.0,1.0,1.0,7.0,5.0,1546.6621140003554,3.0,1.0,phase_3,,,,,540.0,4.0,675.0,270.0,135.0,810.0,540.0,405.0,orange,triangle
0.0,6.0,2.0,1.0,7.0,1.0,953.4496789992772,3.0,1.0,phase_3,,,,,1152.0,6.0,1152.0,384.0,576.0,192.0,768.0,960.0,white,diamond
0.0,8.0,4.0,1.0,7.0,2.0,526.9808339999145,3.0,1.0,phase_3,,,,,770.0,5.0,616.0,770.0,154.0,308.0,462.0,924.0,magenta,cross
0.0,2.0,2.0,0.0,7.0,4.0,664.9546690005081,4.0,1.0,phase_3,,,,,232.0,2.0,696.0,464.0,580.0,232.0,116.0,348.0,cyan,circle
0.0,3.0,3.0,0.0,7.0,3.0,618.5377769998013,4.0,1.0,phase_3,,,,,696.0,6.0,232.0,464.0,696.0,348.0,116.0,580.0,gray,I
0.0,3.0,3.0,0.0,7.0,4.0,1356.3371179998285,4.0,1.0,phase_3,,,,,770.0,5.0,308.0,924.0,616.0,770.0,462.0,154.0,gray,I
0.0,1.0,1.0,0.0,7.0,3.0,1910.2401690006443,4.0,1.0,phase_3,,,,,405.0,3.0,540.0,810.0,405.0,135.0,675.0,270.0,yellow,square
0.0,4.0,4.0,0.0,7.0,1.0,1846.413495999513,4.0,1.0,phase_3,,,,,519.0,3.0,519.0,1038.0,346.0,173.0,692.0,865.0,blue,flipped triangle
0.0,5.0,1.0,1.0,7.0,5.0,1321.6381339998406,4.0,1.0,phase_3,,,,,696.0,6.0,116.0,232.0,464.0,580.0,696.0,348.0,orange,triangle
0.0,3.0,3.0,0.0,7.0,1.0,793.851619000634,4.0,1.0,phase_3,,,,,770.0,5.0,770.0,924.0,308.0,154.0,462.0,616.0,gray,I
0.0,1.0,1.0,0.0,7.0,2.0,933.2695969997076,4.0,1.0,phase_3,,,,,1038.0,6.0,173.0,1038.0,865.0,519.0,346.0,692.0,yellow,square
0.0,4.0,4.0,0.0,7.0,6.0,1669.74190000019,4.0,1.0,phase_3,,,,,405.0,3.0,135.0,810.0,675.0,270.0,540.0,405.0,blue,flipped triangle
0.0,2.0,2.0,0.0,7.0,6.0,1191.8430849991637,4.0,1.0,phase_3,,,,,348.0,3.0,580.0,696.0,464.0,232.0,116.0,348.0,cyan,circle
0.0,8.0,4.0,1.0,7.0,1.0,1347.2698379991923,4.0,1.0,phase_3,,,,,696.0,6.0,696.0,232.0,348.0,464.0,580.0,116.0,magenta,cross
0.0,3.0,3.0,0.0,7.0,2.0,996.6339009997682,4.0,1.0,phase_3,,,,,1152.0,6.0,192.0,1152.0,960.0,384.0,768.0,576.0,gray,I
0.0,6.0,2.0,1.0,7.0,4.0,1387.0307070001218,4.0,1.0,phase_3,,,,,616.0,4.0,770.0,462.0,924.0,616.0,154.0,308.0,white,diamond
0.0,2.0,2.0,0.0,7.0,5.0,978.0202519996236,4.0,1.0,phase_3,,,,,768.0,4.0,384.0,576.0,960.0,1152.0,768.0,192.0,cyan,circle
0.0,6.0,2.0,1.0,7.0,2.0,894.7958220005603,4.0,1.0,phase_3,,,,,580.0,5.0,348.0,580.0,464.0,232.0,696.0,116.0,white,diamond
0.0,5.0,1.0,1.0,7.0,6.0,1072.0407569997406,4.0,1.0,phase_3,,,,,576.0,3.0,384.0,960.0,768.0,192.0,1152.0,576.0,orange,triangle
0.0,8.0,4.0,1.0,7.0,4.0,876.9397799997023,4.0,1.0,phase_3,,,,,675.0,5.0,135.0,540.0,270.0,675.0,405.0,810.0,magenta,cross
0.0,1.0,1.0,0.0,7.0,1.0,1034.4737699997495,4.0,1.0,phase_3,,,,,308.0,2.0,308.0,154.0,616.0,924.0,770.0,462.0,yellow,square
0.0,6.0,2.0,1.0,7.0,6.0,987.7798060006172,4.0,1.0,phase_3,,,,,675.0,5.0,810.0,540.0,405.0,135.0,270.0,675.0,white,diamond
0.0,1.0,1.0,0.0,7.0,6.0,1006.3708789994052,4.0,1.0,phase_3,,,,,1152.0,6.0,192.0,384.0,768.0,576.0,960.0,1152.0,yellow,square
