raw_reward_magnitude,stim_reward,stepwise_reward_magnitude,paired_with_stopping,stim_location,response,reaction_time,block,num_trial_presentations,which_phase,stop_signal_trial_type,left_SSD,right_SSD,accuracy,chosen_bidding_amount,chosen_bidding_level,possible_bid_1,possible_bid_2,possible_bid_3,possible_bid_4,possible_bid_5,possible_bid_6,color_text,shape_text
168.0,5.0,1.0,1.0,4.0,4.0,410.5556940003225,1.0,1.0,phase_1,,,,,,,,,,,,,orange,square
643.0,7.0,3.0,1.0,4.0,4.0,414.0293339996788,1.0,1.0,phase_1,,,,,,,,,,,,,magenta,hexagon
653.0,7.0,3.0,1.0,2.0,2.0,453.9487089996328,1.0,1.0,phase_1,,,,,,,,,,,,,magenta,hexagon
307.0,6.0,2.0,1.0,3.0,3.0,354.2716639999526,1.0,1.0,phase_1,,,,,,,,,,,,,blue,diamond
140.0,1.0,1.0,0.0,2.0,2.0,316.4914099997986,1.0,1.0,phase_1,,,,,,,,,,,,,green,cross
647.0,7.0,3.0,1.0,1.0,1.0,680.5427230001442,1.0,3.0,phase_1,,,,,,,,,,,,,magenta,hexagon
1277.0,8.0,4.0,1.0,4.0,4.0,689.9420220001957,1.0,1.0,phase_1,,,,,,,,,,,,,cyan,I
1314.0,8.0,4.0,1.0,1.0,1.0,440.9862640000028,1.0,1.0,phase_1,,,,,,,,,,,,,cyan,I
148.0,5.0,1.0,1.0,3.0,3.0,346.3820680003664,1.0,1.0,phase_1,,,,,,,,,,,,,orange,square
1295.0,8.0,4.0,1.0,4.0,4.0,439.0400600000248,1.0,1.0,phase_1,,,,,,,,,,,,,cyan,I
304.0,6.0,2.0,1.0,1.0,1.0,374.0903590000926,1.0,1.0,phase_1,,,,,,,,,,,,,blue,diamond
0.0,7.0,0.0,1.0,2.0,2.0,418.9393770002425,1.0,1.0,phase_1,,,,,,,,,,,,,magenta,hexagon
316.0,6.0,2.0,1.0,4.0,4.0,307.0440530000269,1.0,1.0,phase_1,,,,,,,,,,,,,blue,diamond
339.0,6.0,2.0,1.0,1.0,1.0,308.97890699998237,1.0,1.0,phase_1,,,,,,,,,,,,,blue,diamond
1309.0,4.0,4.0,0.0,1.0,1.0,310.5029960001957,1.0,1.0,phase_1,,,,,,,,,,,,,yellow,circle
0.0,4.0,0.0,0.0,3.0,3.0,364.1057539998655,1.0,1.0,phase_1,,,,,,,,,,,,,yellow,circle
0.0,8.0,0.0,1.0,3.0,3.0,354.658868000115,1.0,1.0,phase_1,,,,,,,,,,,,,cyan,I
0.0,3.0,0.0,0.0,1.0,1.0,298.4318809994875,1.0,1.0,phase_1,,,,,,,,,,,,,white,flipped triangle
1292.0,4.0,4.0,0.0,3.0,3.0,353.316908999659,1.0,1.0,phase_1,,,,,,,,,,,,,yellow,circle
665.0,3.0,3.0,0.0,1.0,1.0,394.5644619998347,1.0,1.0,phase_1,,,,,,,,,,,,,white,flipped triangle
626.0,3.0,3.0,0.0,4.0,4.0,345.946195999204,1.0,1.0,phase_1,,,,,,,,,,,,,white,flipped triangle
649.0,3.0,3.0,0.0,2.0,2.0,459.2708210002456,1.0,1.0,phase_1,,,,,,,,,,,,,white,flipped triangle
300.0,6.0,2.0,1.0,1.0,1.0,326.7258869991565,1.0,1.0,phase_1,,,,,,,,,,,,,blue,diamond
182.0,5.0,1.0,1.0,2.0,2.0,473.4805660000347,1.0,1.0,phase_1,,,,,,,,,,,,,orange,square
148.0,1.0,1.0,0.0,4.0,4.0,391.202689000238,1.0,1.0,phase_1,,,,,,,,,,,,,green,cross
1314.0,4.0,4.0,0.0,4.0,4.0,430.7713640000656,1.0,2.0,phase_1,,,,,,,,,,,,,yellow,circle
0.0,4.0,0.0,0.0,4.0,4.0,334.3386770002325,1.0,1.0,phase_1,,,,,,,,,,,,,yellow,circle
1281.0,8.0,4.0,1.0,3.0,3.0,279.8498230004043,1.0,1.0,phase_1,,,,,,,,,,,,,cyan,I
626.0,7.0,3.0,1.0,4.0,4.0,466.6470359998129,1.0,1.0,phase_1,,,,,,,,,,,,,magenta,hexagon
644.0,3.0,3.0,0.0,1.0,1.0,319.9388339999132,1.0,1.0,phase_1,,,,,,,,,,,,,white,flipped triangle
0.0,3.0,0.0,0.0,1.0,1.0,373.9487940001709,1.0,1.0,phase_1,,,,,,,,,,,,,white,flipped triangle
643.0,3.0,3.0,0.0,2.0,2.0,336.8421540008057,1.0,1.0,phase_1,,,,,,,,,,,,,white,flipped triangle
181.0,5.0,1.0,1.0,1.0,1.0,367.5692890001301,1.0,2.0,phase_1,,,,,,,,,,,,,orange,square
173.0,1.0,1.0,0.0,3.0,3.0,374.0977900006328,1.0,1.0,phase_1,,,,,,,,,,,,,green,cross
158.0,5.0,1.0,1.0,1.0,1.0,299.7597700004917,1.0,1.0,phase_1,,,,,,,,,,,,,orange,square
0.0,8.0,0.0,1.0,4.0,4.0,307.7381000002788,1.0,1.0,phase_1,,,,,,,,,,,,,cyan,I
329.0,2.0,2.0,0.0,2.0,2.0,335.4249029998755,1.0,1.0,phase_1,,,,,,,,,,,,,gray,triangle
346.0,6.0,2.0,1.0,2.0,2.0,334.7562089993516,1.0,1.0,phase_1,,,,,,,,,,,,,blue,diamond
650.0,7.0,3.0,1.0,1.0,1.0,448.3919009999226,1.0,1.0,phase_1,,,,,,,,,,,,,magenta,hexagon
1306.0,8.0,4.0,1.0,2.0,2.0,261.0020629999781,1.0,1.0,phase_1,,,,,,,,,,,,,cyan,I
638.0,7.0,3.0,1.0,2.0,2.0,344.6448369995778,1.0,1.0,phase_1,,,,,,,,,,,,,magenta,hexagon
320.0,6.0,2.0,1.0,2.0,2.0,316.4499810000052,1.0,1.0,phase_1,,,,,,,,,,,,,blue,diamond
168.0,1.0,1.0,0.0,2.0,2.0,354.4285179996223,1.0,1.0,phase_1,,,,,,,,,,,,,green,cross
300.0,2.0,2.0,0.0,2.0,2.0,326.6640520005239,1.0,1.0,phase_1,,,,,,,,,,,,,gray,triangle
0.0,3.0,0.0,0.0,4.0,4.0,315.965105000032,1.0,1.0,phase_1,,,,,,,,,,,,,white,flipped triangle
1276.0,4.0,4.0,0.0,1.0,1.0,354.8741579998022,1.0,1.0,phase_1,,,,,,,,,,,,,yellow,circle
1288.0,4.0,4.0,0.0,3.0,3.0,316.6632869997556,1.0,1.0,phase_1,,,,,,,,,,,,,yellow,circle
0.0,7.0,0.0,1.0,3.0,3.0,337.2907680004573,1.0,1.0,phase_1,,,,,,,,,,,,,magenta,hexagon
627.0,3.0,3.0,0.0,3.0,3.0,356.3096050002059,1.0,1.0,phase_1,,,,,,,,,,,,,white,flipped triangle
637.0,7.0,3.0,1.0,4.0,4.0,318.4826770002473,1.0,1.0,phase_1,,,,,,,,,,,,,magenta,hexagon
183.0,5.0,1.0,1.0,2.0,2.0,476.5663440002754,1.0,1.0,phase_1,,,,,,,,,,,,,orange,square
152.0,5.0,1.0,1.0,1.0,1.0,336.8216690005283,1.0,1.0,phase_1,,,,,,,,,,,,,orange,square
311.0,2.0,2.0,0.0,1.0,1.0,325.9805800007598,1.0,1.0,phase_1,,,,,,,,,,,,,gray,triangle
1323.0,4.0,4.0,0.0,2.0,2.0,354.4433440001739,1.0,1.0,phase_1,,,,,,,,,,,,,yellow,circle
1299.0,4.0,4.0,0.0,2.0,2.0,346.421792000001,1.0,1.0,phase_1,,,,,,,,,,,,,yellow,circle
334.0,2.0,2.0,0.0,1.0,1.0,567.2288450004999,1.0,1.0,phase_1,,,,,,,,,,,,,gray,triangle
654.0,7.0,3.0,1.0,2.0,2.0,280.3468820002308,1.0,1.0,phase_1,,,,,,,,,,,,,magenta,hexagon
0.0,7.0,0.0,1.0,2.0,2.0,273.1891610001185,1.0,1.0,phase_1,,,,,,,,,,,,,magenta,hexagon
637.0,7.0,3.0,1.0,3.0,3.0,391.1474689994065,1.0,1.0,phase_1,,,,,,,,,,,,,magenta,hexagon
1313.0,4.0,4.0,0.0,4.0,4.0,467.3706860003221,1.0,2.0,phase_1,,,,,,,,,,,,,yellow,circle
151.0,5.0,1.0,1.0,4.0,4.0,336.3829810004972,1.0,1.0,phase_1,,,,,,,,,,,,,orange,square
1290.0,8.0,4.0,1.0,1.0,1.0,382.2384959994451,1.0,1.0,phase_1,,,,,,,,,,,,,cyan,I
0.0,3.0,0.0,0.0,4.0,4.0,307.2132399993279,1.0,1.0,phase_1,,,,,,,,,,,,,white,flipped triangle
1295.0,4.0,4.0,0.0,3.0,3.0,366.4394389998051,1.0,1.0,phase_1,,,,,,,,,,,,,yellow,circle
638.0,3.0,3.0,0.0,3.0,3.0,401.0879180004849,1.0,1.0,phase_1,,,,,,,,,,,,,white,flipped triangle
1290.0,8.0,4.0,1.0,2.0,2.0,325.8809560002191,1.0,1.0,phase_1,,,,,,,,,,,,,cyan,I
0.0,3.0,0.0,0.0,4.0,4.0,353.6981289998948,1.0,1.0,phase_1,,,,,,,,,,,,,white,flipped triangle
1299.0,8.0,4.0,1.0,3.0,3.0,364.7884360007083,1.0,2.0,phase_1,,,,,,,,,,,,,cyan,I
145.0,5.0,1.0,1.0,4.0,4.0,334.717990000172,1.0,1.0,phase_1,,,,,,,,,,,,,orange,square
335.0,6.0,2.0,1.0,1.0,1.0,320.1030259997424,1.0,1.0,phase_1,,,,,,,,,,,,,blue,diamond
0.0,3.0,0.0,0.0,4.0,4.0,297.1488959992712,1.0,1.0,phase_1,,,,,,,,,,,,,white,flipped triangle
323.0,2.0,2.0,0.0,3.0,3.0,381.1691720002272,1.0,1.0,phase_1,,,,,,,,,,,,,gray,triangle
349.0,6.0,2.0,1.0,4.0,4.0,391.5569490000052,1.0,1.0,phase_1,,,,,,,,,,,,,blue,diamond
1313.0,8.0,4.0,1.0,4.0,4.0,436.8678239998189,1.0,1.0,phase_1,,,,,,,,,,,,,cyan,I
343.0,2.0,2.0,0.0,1.0,1.0,343.9421880002555,1.0,1.0,phase_1,,,,,,,,,,,,,gray,triangle
1324.0,8.0,4.0,1.0,4.0,4.0,372.1667350000643,1.0,1.0,phase_1,,,,,,,,,,,,,cyan,I
1299.0,4.0,4.0,0.0,1.0,1.0,344.6555430000444,1.0,1.0,phase_1,,,,,,,,,,,,,yellow,circle
324.0,6.0,2.0,1.0,3.0,3.0,315.9030879996862,1.0,1.0,phase_1,,,,,,,,,,,,,blue,diamond
628.0,7.0,3.0,1.0,2.0,2.0,334.8069530002249,1.0,1.0,phase_1,,,,,,,,,,,,,magenta,hexagon
0.0,2.0,0.0,0.0,2.0,2.0,354.3297539999912,1.0,1.0,phase_1,,,,,,,,,,,,,gray,triangle
1277.0,8.0,4.0,1.0,1.0,1.0,679.8185319994445,1.0,1.0,phase_1,,,,,,,,,,,,,cyan,I
0.0,4.0,0.0,0.0,4.0,4.0,380.6462310003553,1.0,1.0,phase_1,,,,,,,,,,,,,yellow,circle
339.0,6.0,2.0,1.0,1.0,1.0,318.3432019995962,1.0,1.0,phase_1,,,,,,,,,,,,,blue,diamond
151.0,5.0,1.0,1.0,1.0,1.0,316.2729870000476,1.0,1.0,phase_1,,,,,,,,,,,,,orange,square
155.0,1.0,1.0,0.0,3.0,3.0,325.278801999957,1.0,1.0,phase_1,,,,,,,,,,,,,green,cross
1276.0,8.0,4.0,1.0,3.0,3.0,325.5056400003013,1.0,1.0,phase_1,,,,,,,,,,,,,cyan,I
1281.0,8.0,4.0,1.0,2.0,2.0,380.44700299997197,1.0,1.0,phase_1,,,,,,,,,,,,,cyan,I
1316.0,8.0,4.0,1.0,2.0,2.0,363.2890799999586,1.0,1.0,phase_1,,,,,,,,,,,,,cyan,I
0.0,4.0,0.0,0.0,3.0,3.0,391.3312039994707,1.0,1.0,phase_1,,,,,,,,,,,,,yellow,circle
1319.0,8.0,4.0,1.0,1.0,1.0,399.3005210004412,1.0,1.0,phase_1,,,,,,,,,,,,,cyan,I
1289.0,4.0,4.0,0.0,4.0,4.0,483.347952999793,1.0,1.0,phase_1,,,,,,,,,,,,,yellow,circle
630.0,3.0,3.0,0.0,3.0,3.0,326.1925150000024,1.0,1.0,phase_1,,,,,,,,,,,,,white,flipped triangle
0.0,8.0,0.0,1.0,3.0,3.0,316.5429299997413,1.0,1.0,phase_1,,,,,,,,,,,,,cyan,I
0.0,3.0,0.0,0.0,2.0,2.0,334.8427559994889,1.0,1.0,phase_1,,,,,,,,,,,,,white,flipped triangle
1289.0,8.0,4.0,1.0,3.0,3.0,325.7409919997371,1.0,1.0,phase_1,,,,,,,,,,,,,cyan,I
1318.0,8.0,4.0,1.0,1.0,1.0,327.3335479998422,1.0,1.0,phase_1,,,,,,,,,,,,,cyan,I
672.0,3.0,3.0,0.0,3.0,3.0,410.9354610000082,1.0,1.0,phase_1,,,,,,,,,,,,,white,flipped triangle
165.0,1.0,1.0,0.0,1.0,1.0,382.6729049997084,1.0,1.0,phase_1,,,,,,,,,,,,,green,cross
142.0,5.0,1.0,1.0,2.0,2.0,316.4042109992806,1.0,1.0,phase_1,,,,,,,,,,,,,orange,square
149.0,5.0,1.0,1.0,3.0,3.0,390.2807360000224,1.0,1.0,phase_1,,,,,,,,,,,,,orange,square
183.0,1.0,1.0,0.0,1.0,1.0,409.8974939997788,2.0,1.0,phase_1,,,,,,,,,,,,,green,cross
159.0,1.0,1.0,0.0,2.0,2.0,343.6698619998424,2.0,2.0,phase_1,,,,,,,,,,,,,green,cross
1324.0,4.0,4.0,0.0,1.0,1.0,288.5996450004313,2.0,1.0,phase_1,,,,,,,,,,,,,yellow,circle
340.0,6.0,2.0,1.0,1.0,1.0,362.6909519998662,2.0,1.0,phase_1,,,,,,,,,,,,,blue,diamond
1281.0,4.0,4.0,0.0,4.0,4.0,418.5415829997509,2.0,1.0,phase_1,,,,,,,,,,,,,yellow,circle
165.0,5.0,1.0,1.0,4.0,4.0,483.0416659997354,2.0,1.0,phase_1,,,,,,,,,,,,,orange,square
304.0,6.0,2.0,1.0,4.0,4.0,381.8257030006862,2.0,1.0,phase_1,,,,,,,,,,,,,blue,diamond
180.0,1.0,1.0,0.0,2.0,2.0,455.4816500003653,2.0,1.0,phase_1,,,,,,,,,,,,,green,cross
348.0,6.0,2.0,1.0,2.0,2.0,381.8654380002044,2.0,1.0,phase_1,,,,,,,,,,,,,blue,diamond
310.0,6.0,2.0,1.0,2.0,2.0,334.3163090003145,2.0,1.0,phase_1,,,,,,,,,,,,,blue,diamond
666.0,3.0,3.0,0.0,1.0,1.0,409.8144290001073,2.0,1.0,phase_1,,,,,,,,,,,,,white,flipped triangle
1311.0,4.0,4.0,0.0,1.0,1.0,344.2498129998057,2.0,1.0,phase_1,,,,,,,,,,,,,yellow,circle
332.0,6.0,2.0,1.0,4.0,4.0,288.9955339996959,2.0,1.0,phase_1,,,,,,,,,,,,,blue,diamond
347.0,6.0,2.0,1.0,3.0,3.0,270.194224000079,2.0,1.0,phase_1,,,,,,,,,,,,,blue,diamond
300.0,6.0,2.0,1.0,3.0,3.0,354.2681279996031,2.0,1.0,phase_1,,,,,,,,,,,,,blue,diamond
1311.0,8.0,4.0,1.0,1.0,1.0,269.5309109994923,2.0,1.0,phase_1,,,,,,,,,,,,,cyan,I
0.0,3.0,0.0,0.0,1.0,1.0,401.8447509997713,2.0,1.0,phase_1,,,,,,,,,,,,,white,flipped triangle
1277.0,4.0,4.0,0.0,2.0,2.0,307.5868430005357,2.0,1.0,phase_1,,,,,,,,,,,,,yellow,circle
657.0,7.0,3.0,1.0,2.0,2.0,315.8834879995993,2.0,1.0,phase_1,,,,,,,,,,,,,magenta,hexagon
326.0,6.0,2.0,1.0,4.0,4.0,362.1496010000555,2.0,2.0,phase_1,,,,,,,,,,,,,blue,diamond
1303.0,4.0,4.0,0.0,4.0,4.0,298.053028999675,2.0,1.0,phase_1,,,,,,,,,,,,,yellow,circle
329.0,6.0,2.0,1.0,1.0,1.0,493.0746039999576,2.0,1.0,phase_1,,,,,,,,,,,,,blue,diamond
637.0,3.0,3.0,0.0,1.0,1.0,418.8248440004827,2.0,1.0,phase_1,,,,,,,,,,,,,white,flipped triangle
1300.0,8.0,4.0,1.0,2.0,2.0,352.5657719992523,2.0,1.0,phase_1,,,,,,,,,,,,,cyan,I
0.0,3.0,0.0,0.0,4.0,4.0,352.9535150000811,2.0,1.0,phase_1,,,,,,,,,,,,,white,flipped triangle
641.0,7.0,3.0,1.0,3.0,3.0,418.614768000225,2.0,1.0,phase_1,,,,,,,,,,,,,magenta,hexagon
0.0,5.0,0.0,1.0,3.0,3.0,472.8909259993088,2.0,1.0,phase_1,,,,,,,,,,,,,orange,square
317.0,6.0,2.0,1.0,3.0,3.0,325.9496099999523,2.0,1.0,phase_1,,,,,,,,,,,,,blue,diamond
638.0,3.0,3.0,0.0,1.0,1.0,250.68827599989157,2.0,1.0,phase_1,,,,,,,,,,,,,white,flipped triangle
142.0,5.0,1.0,1.0,1.0,1.0,325.7107260005796,2.0,1.0,phase_1,,,,,,,,,,,,,orange,square
1306.0,4.0,4.0,0.0,2.0,2.0,353.3261970005696,2.0,1.0,phase_1,,,,,,,,,,,,,yellow,circle
1292.0,8.0,4.0,1.0,2.0,2.0,342.7792740003497,2.0,1.0,phase_1,,,,,,,,,,,,,cyan,I
0.0,2.0,0.0,0.0,4.0,4.0,315.1842859997487,2.0,1.0,phase_1,,,,,,,,,,,,,gray,triangle
0.0,8.0,0.0,1.0,4.0,4.0,342.8747550005937,2.0,1.0,phase_1,,,,,,,,,,,,,cyan,I
165.0,1.0,1.0,0.0,1.0,1.0,503.11879699984274,2.0,1.0,phase_1,,,,,,,,,,,,,green,cross
320.0,2.0,2.0,0.0,3.0,3.0,334.0143899995382,2.0,1.0,phase_1,,,,,,,,,,,,,gray,triangle
320.0,6.0,2.0,1.0,2.0,2.0,464.5054120001077,2.0,1.0,phase_1,,,,,,,,,,,,,blue,diamond
673.0,7.0,3.0,1.0,4.0,4.0,307.333421000294,2.0,1.0,phase_1,,,,,,,,,,,,,magenta,hexagon
345.0,2.0,2.0,0.0,2.0,2.0,594.9858659996607,2.0,1.0,phase_1,,,,,,,,,,,,,gray,triangle
307.0,2.0,2.0,0.0,4.0,4.0,558.7589899996601,2.0,1.0,phase_1,,,,,,,,,,,,,gray,triangle
324.0,2.0,2.0,0.0,2.0,2.0,409.4411309997667,2.0,1.0,phase_1,,,,,,,,,,,,,gray,triangle
1307.0,8.0,4.0,1.0,3.0,3.0,549.1098000002239,2.0,1.0,phase_1,,,,,,,,,,,,,cyan,I
317.0,2.0,2.0,0.0,1.0,1.0,474.4655080003213,2.0,1.0,phase_1,,,,,,,,,,,,,gray,triangle
148.0,1.0,1.0,0.0,1.0,1.0,390.1070199999594,2.0,1.0,phase_1,,,,,,,,,,,,,green,cross
0.0,2.0,0.0,0.0,3.0,3.0,474.5892850005475,2.0,1.0,phase_1,,,,,,,,,,,,,gray,triangle
330.0,2.0,2.0,0.0,4.0,4.0,437.7400359999228,2.0,1.0,phase_1,,,,,,,,,,,,,gray,triangle
1316.0,8.0,4.0,1.0,3.0,3.0,363.276555000084,2.0,1.0,phase_1,,,,,,,,,,,,,cyan,I
174.0,1.0,1.0,0.0,4.0,4.0,428.1389890002174,2.0,1.0,phase_1,,,,,,,,,,,,,green,cross
340.0,2.0,2.0,0.0,3.0,3.0,371.7642560004606,2.0,1.0,phase_1,,,,,,,,,,,,,gray,triangle
0.0,1.0,0.0,0.0,4.0,4.0,455.6725630000073,2.0,1.0,phase_1,,,,,,,,,,,,,green,cross
165.0,5.0,1.0,1.0,4.0,4.0,362.3491289999947,2.0,1.0,phase_1,,,,,,,,,,,,,orange,square
672.0,7.0,3.0,1.0,4.0,4.0,325.9851799994067,2.0,1.0,phase_1,,,,,,,,,,,,,magenta,hexagon
1289.0,4.0,4.0,0.0,2.0,2.0,511.578487999941,2.0,1.0,phase_1,,,,,,,,,,,,,yellow,circle
1307.0,4.0,4.0,0.0,4.0,4.0,296.9534349995228,2.0,1.0,phase_1,,,,,,,,,,,,,yellow,circle
0.0,7.0,0.0,1.0,2.0,2.0,504.10652400023537,2.0,1.0,phase_1,,,,,,,,,,,,,magenta,hexagon
145.0,1.0,1.0,0.0,1.0,1.0,547.5499620006303,2.0,2.0,phase_1,,,,,,,,,,,,,green,cross
675.0,7.0,3.0,1.0,3.0,3.0,337.6484519994847,2.0,1.0,phase_1,,,,,,,,,,,,,magenta,hexagon
348.0,2.0,2.0,0.0,4.0,4.0,363.6391549998734,2.0,1.0,phase_1,,,,,,,,,,,,,gray,triangle
0.0,6.0,0.0,1.0,4.0,4.0,408.9929210003902,2.0,1.0,phase_1,,,,,,,,,,,,,blue,diamond
146.0,5.0,1.0,1.0,2.0,2.0,370.9464570001728,2.0,1.0,phase_1,,,,,,,,,,,,,orange,square
0.0,6.0,0.0,1.0,3.0,3.0,457.194229000379,2.0,1.0,phase_1,,,,,,,,,,,,,blue,diamond
662.0,7.0,3.0,1.0,1.0,1.0,555.1607179995699,2.0,1.0,phase_1,,,,,,,,,,,,,magenta,hexagon
334.0,6.0,2.0,1.0,3.0,3.0,466.6530689992214,2.0,1.0,phase_1,,,,,,,,,,,,,blue,diamond
0.0,6.0,0.0,1.0,4.0,4.0,400.9312039997894,2.0,1.0,phase_1,,,,,,,,,,,,,blue,diamond
1293.0,4.0,4.0,0.0,2.0,2.0,410.7214929999827,2.0,1.0,phase_1,,,,,,,,,,,,,yellow,circle
0.0,1.0,0.0,0.0,1.0,1.0,327.9209410002295,2.0,1.0,phase_1,,,,,,,,,,,,,green,cross
311.0,6.0,2.0,1.0,2.0,2.0,317.9061600003479,2.0,1.0,phase_1,,,,,,,,,,,,,blue,diamond
1276.0,8.0,4.0,1.0,2.0,2.0,402.2711020006682,2.0,1.0,phase_1,,,,,,,,,,,,,cyan,I
142.0,1.0,1.0,0.0,3.0,3.0,689.4328460002725,2.0,1.0,phase_1,,,,,,,,,,,,,green,cross
649.0,3.0,3.0,0.0,4.0,4.0,309.7740550001617,2.0,1.0,phase_1,,,,,,,,,,,,,white,flipped triangle
306.0,6.0,2.0,1.0,4.0,4.0,337.4403570005597,2.0,1.0,phase_1,,,,,,,,,,,,,blue,diamond
1298.0,4.0,4.0,0.0,4.0,4.0,318.3126909998464,2.0,1.0,phase_1,,,,,,,,,,,,,yellow,circle
640.0,7.0,3.0,1.0,2.0,2.0,419.8025350005991,2.0,1.0,phase_1,,,,,,,,,,,,,magenta,hexagon
1311.0,4.0,4.0,0.0,2.0,2.0,324.8645309995481,2.0,1.0,phase_1,,,,,,,,,,,,,yellow,circle
159.0,1.0,1.0,0.0,4.0,4.0,457.3640159997012,2.0,1.0,phase_1,,,,,,,,,,,,,green,cross
156.0,5.0,1.0,1.0,3.0,3.0,364.2564649999258,2.0,1.0,phase_1,,,,,,,,,,,,,orange,square
675.0,3.0,3.0,0.0,3.0,3.0,585.2741980006613,2.0,1.0,phase_1,,,,,,,,,,,,,white,flipped triangle
313.0,6.0,2.0,1.0,2.0,2.0,522.6112880000073,2.0,1.0,phase_1,,,,,,,,,,,,,blue,diamond
339.0,2.0,2.0,0.0,3.0,3.0,326.9509259998813,2.0,1.0,phase_1,,,,,,,,,,,,,gray,triangle
627.0,3.0,3.0,0.0,3.0,3.0,335.0607940001282,2.0,1.0,phase_1,,,,,,,,,,,,,white,flipped triangle
1306.0,4.0,4.0,0.0,3.0,3.0,316.147667000223,2.0,1.0,phase_1,,,,,,,,,,,,,yellow,circle
0.0,2.0,0.0,0.0,3.0,3.0,326.584086999901,2.0,1.0,phase_1,,,,,,,,,,,,,gray,triangle
318.0,2.0,2.0,0.0,2.0,2.0,336.4499330000399,2.0,1.0,phase_1,,,,,,,,,,,,,gray,triangle
1320.0,8.0,4.0,1.0,3.0,3.0,298.8377029996627,2.0,1.0,phase_1,,,,,,,,,,,,,cyan,I
1319.0,4.0,4.0,0.0,1.0,1.0,585.9380880001481,2.0,1.0,phase_1,,,,,,,,,,,,,yellow,circle
627.0,7.0,3.0,1.0,3.0,3.0,604.767515000276,2.0,1.0,phase_1,,,,,,,,,,,,,magenta,hexagon
633.0,3.0,3.0,0.0,4.0,4.0,419.0005790005671,2.0,1.0,phase_1,,,,,,,,,,,,,white,flipped triangle
332.0,6.0,2.0,1.0,3.0,3.0,334.5505600000251,2.0,1.0,phase_1,,,,,,,,,,,,,blue,diamond
326.0,2.0,2.0,0.0,2.0,2.0,390.8178780002345,2.0,1.0,phase_1,,,,,,,,,,,,,gray,triangle
662.0,3.0,3.0,0.0,2.0,2.0,297.3113059997558,2.0,1.0,phase_1,,,,,,,,,,,,,white,flipped triangle
0.0,1.0,0.0,0.0,1.0,1.0,354.5323980006287,2.0,1.0,phase_1,,,,,,,,,,,,,green,cross
670.0,3.0,3.0,0.0,4.0,4.0,345.7501449993287,2.0,1.0,phase_1,,,,,,,,,,,,,white,flipped triangle
655.0,7.0,3.0,1.0,3.0,3.0,373.2628360003218,2.0,1.0,phase_1,,,,,,,,,,,,,magenta,hexagon
306.0,2.0,2.0,0.0,1.0,1.0,521.2104780002846,2.0,1.0,phase_1,,,,,,,,,,,,,gray,triangle
183.0,5.0,1.0,1.0,3.0,3.0,344.5852320000995,2.0,1.0,phase_1,,,,,,,,,,,,,orange,square
181.0,1.0,1.0,0.0,2.0,2.0,326.5073059992573,2.0,1.0,phase_1,,,,,,,,,,,,,green,cross
155.0,5.0,1.0,1.0,4.0,4.0,335.6517400006851,2.0,1.0,phase_1,,,,,,,,,,,,,orange,square
0.0,8.0,0.0,1.0,3.0,3.0,288.6764599998059,2.0,1.0,phase_1,,,,,,,,,,,,,cyan,I
0.0,5.0,0.0,1.0,1.0,1.0,299.5387490000212,2.0,1.0,phase_1,,,,,,,,,,,,,orange,square
167.0,5.0,1.0,1.0,2.0,2.0,316.0749600001509,2.0,1.0,phase_1,,,,,,,,,,,,,orange,square
638.0,3.0,3.0,0.0,4.0,4.0,382.3817100001179,3.0,1.0,phase_1,,,,,,,,,,,,,white,flipped triangle
164.0,5.0,1.0,1.0,1.0,1.0,289.2375679994075,3.0,1.0,phase_1,,,,,,,,,,,,,orange,square
661.0,3.0,3.0,0.0,1.0,1.0,373.2257249994291,3.0,1.0,phase_1,,,,,,,,,,,,,white,flipped triangle
662.0,3.0,3.0,0.0,2.0,2.0,316.7962299994542,3.0,2.0,phase_1,,,,,,,,,,,,,white,flipped triangle
316.0,6.0,2.0,1.0,4.0,4.0,568.3693410001069,3.0,1.0,phase_1,,,,,,,,,,,,,blue,diamond
650.0,7.0,3.0,1.0,1.0,1.0,502.6599430002534,3.0,1.0,phase_1,,,,,,,,,,,,,magenta,hexagon
0.0,4.0,0.0,0.0,3.0,3.0,326.7010730005495,3.0,1.0,phase_1,,,,,,,,,,,,,yellow,circle
641.0,3.0,3.0,0.0,3.0,3.0,437.7619349997985,3.0,1.0,phase_1,,,,,,,,,,,,,white,flipped triangle
178.0,5.0,1.0,1.0,4.0,4.0,437.7892860002248,3.0,1.0,phase_1,,,,,,,,,,,,,orange,square
0.0,4.0,0.0,0.0,3.0,3.0,296.837420999509,3.0,1.0,phase_1,,,,,,,,,,,,,yellow,circle
304.0,2.0,2.0,0.0,4.0,4.0,362.6773480000338,3.0,1.0,phase_1,,,,,,,,,,,,,gray,triangle
0.0,8.0,0.0,1.0,1.0,1.0,417.7769359994272,3.0,2.0,phase_1,,,,,,,,,,,,,cyan,I
164.0,1.0,1.0,0.0,1.0,1.0,316.8795999999929,3.0,1.0,phase_1,,,,,,,,,,,,,green,cross
173.0,5.0,1.0,1.0,1.0,1.0,420.057201000418,3.0,1.0,phase_1,,,,,,,,,,,,,orange,square
1316.0,4.0,4.0,0.0,2.0,2.0,317.4734899994291,3.0,1.0,phase_1,,,,,,,,,,,,,yellow,circle
1318.0,4.0,4.0,0.0,1.0,1.0,319.5745709999755,3.0,1.0,phase_1,,,,,,,,,,,,,yellow,circle
0.0,4.0,0.0,0.0,3.0,3.0,334.6923419994709,3.0,1.0,phase_1,,,,,,,,,,,,,yellow,circle
146.0,1.0,1.0,0.0,3.0,3.0,288.6463630002254,3.0,1.0,phase_1,,,,,,,,,,,,,green,cross
653.0,3.0,3.0,0.0,1.0,1.0,449.1474489996108,3.0,1.0,phase_1,,,,,,,,,,,,,white,flipped triangle
1309.0,8.0,4.0,1.0,3.0,3.0,335.5027799998424,3.0,1.0,phase_1,,,,,,,,,,,,,cyan,I
627.0,7.0,3.0,1.0,3.0,3.0,307.217887000661,3.0,1.0,phase_1,,,,,,,,,,,,,magenta,hexagon
179.0,5.0,1.0,1.0,2.0,2.0,400.3646459996162,3.0,1.0,phase_1,,,,,,,,,,,,,orange,square
149.0,1.0,1.0,0.0,4.0,4.0,395.6982720001178,3.0,1.0,phase_1,,,,,,,,,,,,,green,cross
328.0,6.0,2.0,1.0,2.0,2.0,399.8047869999936,3.0,2.0,phase_1,,,,,,,,,,,,,blue,diamond
0.0,7.0,0.0,1.0,3.0,3.0,363.322545000301,3.0,1.0,phase_1,,,,,,,,,,,,,magenta,hexagon
187.0,5.0,1.0,1.0,2.0,2.0,430.5196949999299,3.0,1.0,phase_1,,,,,,,,,,,,,orange,square
667.0,7.0,3.0,1.0,2.0,2.0,385.0101729995003,3.0,1.0,phase_1,,,,,,,,,,,,,magenta,hexagon
163.0,1.0,1.0,0.0,3.0,3.0,494.497057999979,3.0,1.0,phase_1,,,,,,,,,,,,,green,cross
1316.0,4.0,4.0,0.0,4.0,4.0,335.4594100001122,3.0,1.0,phase_1,,,,,,,,,,,,,yellow,circle
0.0,5.0,0.0,1.0,4.0,4.0,399.9834200003533,3.0,1.0,phase_1,,,,,,,,,,,,,orange,square
319.0,6.0,2.0,1.0,1.0,1.0,428.1982499996957,3.0,1.0,phase_1,,,,,,,,,,,,,blue,diamond
630.0,7.0,3.0,1.0,2.0,2.0,344.3800630002442,3.0,1.0,phase_1,,,,,,,,,,,,,magenta,hexagon
346.0,2.0,2.0,0.0,3.0,3.0,401.5876089997618,3.0,1.0,phase_1,,,,,,,,,,,,,gray,triangle
1299.0,8.0,4.0,1.0,4.0,4.0,409.8654409999653,3.0,1.0,phase_1,,,,,,,,,,,,,cyan,I
1290.0,4.0,4.0,0.0,4.0,4.0,389.9584029995822,3.0,1.0,phase_1,,,,,,,,,,,,,yellow,circle
650.0,3.0,3.0,0.0,4.0,4.0,370.702514000186,3.0,1.0,phase_1,,,,,,,,,,,,,white,flipped triangle
0.0,2.0,0.0,0.0,3.0,3.0,363.2629519997863,3.0,1.0,phase_1,,,,,,,,,,,,,gray,triangle
332.0,6.0,2.0,1.0,1.0,1.0,391.7227060001096,3.0,1.0,phase_1,,,,,,,,,,,,,blue,diamond
345.0,6.0,2.0,1.0,2.0,2.0,454.7526129999824,3.0,1.0,phase_1,,,,,,,,,,,,,blue,diamond
667.0,3.0,3.0,0.0,4.0,4.0,417.9334919999746,3.0,1.0,phase_1,,,,,,,,,,,,,white,flipped triangle
1298.0,8.0,4.0,1.0,3.0,3.0,364.057803999458,3.0,1.0,phase_1,,,,,,,,,,,,,cyan,I
322.0,2.0,2.0,0.0,2.0,2.0,765.2795200001492,3.0,1.0,phase_1,,,,,,,,,,,,,gray,triangle
148.0,5.0,1.0,1.0,2.0,2.0,427.6443270000527,3.0,1.0,phase_1,,,,,,,,,,,,,orange,square
300.0,2.0,2.0,0.0,4.0,4.0,391.3221140001042,3.0,1.0,phase_1,,,,,,,,,,,,,gray,triangle
156.0,1.0,1.0,0.0,4.0,4.0,438.2470700002159,3.0,1.0,phase_1,,,,,,,,,,,,,green,cross
0.0,6.0,0.0,1.0,3.0,3.0,328.1857040001341,3.0,1.0,phase_1,,,,,,,,,,,,,blue,diamond
0.0,5.0,0.0,1.0,3.0,3.0,430.2437839996855,3.0,1.0,phase_1,,,,,,,,,,,,,orange,square
1317.0,4.0,4.0,0.0,3.0,3.0,503.52478900003916,3.0,1.0,phase_1,,,,,,,,,,,,,yellow,circle
1293.0,8.0,4.0,1.0,2.0,2.0,447.24047699946817,3.0,1.0,phase_1,,,,,,,,,,,,,cyan,I
1303.0,8.0,4.0,1.0,4.0,4.0,400.9747780000907,3.0,1.0,phase_1,,,,,,,,,,,,,cyan,I
307.0,2.0,2.0,0.0,3.0,3.0,409.7428980003315,3.0,1.0,phase_1,,,,,,,,,,,,,gray,triangle
673.0,3.0,3.0,0.0,2.0,2.0,456.0159320008097,3.0,1.0,phase_1,,,,,,,,,,,,,white,flipped triangle
1295.0,8.0,4.0,1.0,2.0,2.0,668.7700160000531,3.0,1.0,phase_1,,,,,,,,,,,,,cyan,I
1323.0,8.0,4.0,1.0,1.0,1.0,381.2046370003372,3.0,1.0,phase_1,,,,,,,,,,,,,cyan,I
647.0,3.0,3.0,0.0,3.0,3.0,411.041443000613,3.0,1.0,phase_1,,,,,,,,,,,,,white,flipped triangle
155.0,1.0,1.0,0.0,4.0,4.0,539.0671909999583,3.0,1.0,phase_1,,,,,,,,,,,,,green,cross
0.0,3.0,0.0,0.0,3.0,3.0,631.1717290000161,3.0,1.0,phase_1,,,,,,,,,,,,,white,flipped triangle
313.0,2.0,2.0,0.0,2.0,2.0,446.8199749999257,3.0,1.0,phase_1,,,,,,,,,,,,,gray,triangle
670.0,7.0,3.0,1.0,3.0,3.0,381.9077210000614,3.0,1.0,phase_1,,,,,,,,,,,,,magenta,hexagon
158.0,1.0,1.0,0.0,2.0,2.0,420.0961480000842,3.0,1.0,phase_1,,,,,,,,,,,,,green,cross
174.0,5.0,1.0,1.0,1.0,1.0,333.9115070002663,3.0,1.0,phase_1,,,,,,,,,,,,,orange,square
142.0,1.0,1.0,0.0,2.0,2.0,400.5078729996967,3.0,1.0,phase_1,,,,,,,,,,,,,green,cross
0.0,6.0,0.0,1.0,3.0,3.0,484.3645560004006,3.0,1.0,phase_1,,,,,,,,,,,,,blue,diamond
655.0,7.0,3.0,1.0,1.0,1.0,706.227945000137,3.0,1.0,phase_1,,,,,,,,,,,,,magenta,hexagon
637.0,3.0,3.0,0.0,3.0,3.0,550.2490120006769,3.0,1.0,phase_1,,,,,,,,,,,,,white,flipped triangle
628.0,7.0,3.0,1.0,3.0,3.0,437.68108400036,3.0,1.0,phase_1,,,,,,,,,,,,,magenta,hexagon
339.0,2.0,2.0,0.0,3.0,3.0,429.3701050000891,3.0,1.0,phase_1,,,,,,,,,,,,,gray,triangle
673.0,3.0,3.0,0.0,4.0,4.0,529.0379950001807,3.0,1.0,phase_1,,,,,,,,,,,,,white,flipped triangle
657.0,3.0,3.0,0.0,1.0,1.0,456.847155000105,3.0,1.0,phase_1,,,,,,,,,,,,,white,flipped triangle
178.0,1.0,1.0,0.0,4.0,4.0,410.461385000417,3.0,1.0,phase_1,,,,,,,,,,,,,green,cross
148.0,1.0,1.0,0.0,4.0,4.0,400.5206239999097,3.0,1.0,phase_1,,,,,,,,,,,,,green,cross
638.0,7.0,3.0,1.0,4.0,4.0,391.4508269999714,3.0,1.0,phase_1,,,,,,,,,,,,,magenta,hexagon
316.0,2.0,2.0,0.0,2.0,2.0,345.2912339998875,3.0,1.0,phase_1,,,,,,,,,,,,,gray,triangle
316.0,2.0,2.0,0.0,3.0,3.0,631.1263809993761,3.0,1.0,phase_1,,,,,,,,,,,,,gray,triangle
323.0,6.0,2.0,1.0,1.0,1.0,529.9405880004997,3.0,1.0,phase_1,,,,,,,,,,,,,blue,diamond
654.0,3.0,3.0,0.0,2.0,2.0,372.4692650002907,3.0,1.0,phase_1,,,,,,,,,,,,,white,flipped triangle
640.0,3.0,3.0,0.0,2.0,2.0,410.4224380007508,3.0,1.0,phase_1,,,,,,,,,,,,,white,flipped triangle
1279.0,4.0,4.0,0.0,4.0,4.0,565.4464770004779,3.0,1.0,phase_1,,,,,,,,,,,,,yellow,circle
179.0,5.0,1.0,1.0,3.0,3.0,391.3802710003438,3.0,1.0,phase_1,,,,,,,,,,,,,orange,square
349.0,2.0,2.0,0.0,4.0,4.0,372.3588700004256,3.0,1.0,phase_1,,,,,,,,,,,,,gray,triangle
0.0,5.0,0.0,1.0,1.0,1.0,400.8028199996261,3.0,1.0,phase_1,,,,,,,,,,,,,orange,square
152.0,1.0,1.0,0.0,3.0,3.0,343.1470629993782,3.0,1.0,phase_1,,,,,,,,,,,,,green,cross
163.0,5.0,1.0,1.0,4.0,4.0,391.614295999716,3.0,1.0,phase_1,,,,,,,,,,,,,orange,square
155.0,5.0,1.0,1.0,2.0,2.0,466.3721219994841,3.0,1.0,phase_1,,,,,,,,,,,,,orange,square
0.0,6.0,0.0,1.0,2.0,2.0,381.0789700000896,3.0,1.0,phase_1,,,,,,,,,,,,,blue,diamond
0.0,4.0,0.0,0.0,3.0,3.0,381.7844189998141,3.0,1.0,phase_1,,,,,,,,,,,,,yellow,circle
633.0,7.0,3.0,1.0,4.0,4.0,363.79429399949,3.0,1.0,phase_1,,,,,,,,,,,,,magenta,hexagon
0.0,7.0,0.0,1.0,2.0,2.0,353.6171510004351,3.0,1.0,phase_1,,,,,,,,,,,,,magenta,hexagon
0.0,1.0,0.0,0.0,1.0,1.0,380.3940739999234,3.0,1.0,phase_1,,,,,,,,,,,,,green,cross
0.0,6.0,0.0,1.0,2.0,2.0,464.9686849998033,3.0,1.0,phase_1,,,,,,,,,,,,,blue,diamond
0.0,2.0,0.0,0.0,4.0,4.0,418.1706079998548,3.0,1.0,phase_1,,,,,,,,,,,,,gray,triangle
667.0,3.0,3.0,0.0,2.0,2.0,437.2528379999494,3.0,1.0,phase_1,,,,,,,,,,,,,white,flipped triangle
330.0,6.0,2.0,1.0,3.0,3.0,390.3537249998408,3.0,1.0,phase_1,,,,,,,,,,,,,blue,diamond
151.0,1.0,1.0,0.0,3.0,3.0,575.8914200005165,3.0,1.0,phase_1,,,,,,,,,,,,,green,cross
329.0,6.0,2.0,1.0,4.0,4.0,483.8761000000886,3.0,1.0,phase_1,,,,,,,,,,,,,blue,diamond
662.0,7.0,3.0,1.0,4.0,4.0,401.774108000609,3.0,1.0,phase_1,,,,,,,,,,,,,magenta,hexagon
659.0,7.0,3.0,1.0,2.0,2.0,483.0604139997376,3.0,1.0,phase_1,,,,,,,,,,,,,magenta,hexagon
1277.0,4.0,4.0,0.0,1.0,1.0,390.8799000000726,3.0,1.0,phase_1,,,,,,,,,,,,,yellow,circle
139.0,5.0,1.0,1.0,4.0,4.0,483.6864779999814,3.0,1.0,phase_1,,,,,,,,,,,,,orange,square
187.0,1.0,1.0,0.0,1.0,1.0,353.1585319997248,3.0,1.0,phase_1,,,,,,,,,,,,,green,cross
304.0,2.0,2.0,0.0,1.0,1.0,356.3046520002899,4.0,1.0,phase_1,,,,,,,,,,,,,gray,triangle
167.0,1.0,1.0,0.0,1.0,1.0,390.6756269998368,4.0,1.0,phase_1,,,,,,,,,,,,,green,cross
1316.0,8.0,4.0,1.0,1.0,1.0,337.1866460001911,4.0,1.0,phase_1,,,,,,,,,,,,,cyan,I
180.0,5.0,1.0,1.0,3.0,3.0,428.9094860005207,4.0,1.0,phase_1,,,,,,,,,,,,,orange,square
343.0,6.0,2.0,1.0,3.0,3.0,391.4088940000511,4.0,1.0,phase_1,,,,,,,,,,,,,blue,diamond
0.0,4.0,0.0,0.0,1.0,1.0,446.7555139999604,4.0,1.0,phase_1,,,,,,,,,,,,,yellow,circle
0.0,2.0,0.0,0.0,4.0,4.0,327.447396000025,4.0,1.0,phase_1,,,,,,,,,,,,,gray,triangle
0.0,8.0,0.0,1.0,2.0,2.0,362.7573519997895,4.0,1.0,phase_1,,,,,,,,,,,,,cyan,I
0.0,6.0,0.0,1.0,4.0,4.0,466.4509720005299,4.0,1.0,phase_1,,,,,,,,,,,,,blue,diamond
151.0,1.0,1.0,0.0,4.0,4.0,436.7845469996609,4.0,2.0,phase_1,,,,,,,,,,,,,green,cross
332.0,2.0,2.0,0.0,3.0,3.0,437.2229430000516,4.0,1.0,phase_1,,,,,,,,,,,,,gray,triangle
310.0,2.0,2.0,0.0,1.0,1.0,649.7788910000963,4.0,1.0,phase_1,,,,,,,,,,,,,gray,triangle
174.0,1.0,1.0,0.0,1.0,1.0,363.2602160005262,4.0,1.0,phase_1,,,,,,,,,,,,,green,cross
0.0,1.0,0.0,0.0,2.0,2.0,334.429471000476,4.0,1.0,phase_1,,,,,,,,,,,,,green,cross
1281.0,4.0,4.0,0.0,3.0,3.0,399.9907090001215,4.0,1.0,phase_1,,,,,,,,,,,,,yellow,circle
179.0,1.0,1.0,0.0,3.0,3.0,456.8943690001106,4.0,1.0,phase_1,,,,,,,,,,,,,green,cross
628.0,3.0,3.0,0.0,2.0,2.0,418.2837349999317,4.0,1.0,phase_1,,,,,,,,,,,,,white,flipped triangle
318.0,6.0,2.0,1.0,4.0,4.0,335.9036869996998,4.0,1.0,phase_1,,,,,,,,,,,,,blue,diamond
649.0,7.0,3.0,1.0,1.0,1.0,697.2278000002916,4.0,1.0,phase_1,,,,,,,,,,,,,magenta,hexagon
330.0,2.0,2.0,0.0,4.0,4.0,480.2788349998081,4.0,1.0,phase_1,,,,,,,,,,,,,gray,triangle
347.0,2.0,2.0,0.0,3.0,3.0,660.9766789997593,4.0,1.0,phase_1,,,,,,,,,,,,,gray,triangle
181.0,1.0,1.0,0.0,2.0,2.0,427.3679489997448,4.0,1.0,phase_1,,,,,,,,,,,,,green,cross
319.0,2.0,2.0,0.0,2.0,2.0,458.0633880004825,4.0,1.0,phase_1,,,,,,,,,,,,,gray,triangle
0.0,1.0,0.0,0.0,2.0,2.0,325.4940450005961,4.0,1.0,phase_1,,,,,,,,,,,,,green,cross
0.0,5.0,0.0,1.0,2.0,2.0,297.5283149999086,4.0,1.0,phase_1,,,,,,,,,,,,,orange,square
1279.0,8.0,4.0,1.0,4.0,4.0,357.4547449998135,4.0,1.0,phase_1,,,,,,,,,,,,,cyan,I
330.0,6.0,2.0,1.0,4.0,4.0,346.6259449996869,4.0,1.0,phase_1,,,,,,,,,,,,,blue,diamond
332.0,2.0,2.0,0.0,1.0,1.0,409.4374819997028,4.0,1.0,phase_1,,,,,,,,,,,,,gray,triangle
638.0,7.0,3.0,1.0,2.0,2.0,456.5355089998775,4.0,1.0,phase_1,,,,,,,,,,,,,magenta,hexagon
0.0,2.0,0.0,0.0,3.0,3.0,595.3639250001288,4.0,1.0,phase_1,,,,,,,,,,,,,gray,triangle
332.0,2.0,2.0,0.0,1.0,1.0,493.818132999877,4.0,1.0,phase_1,,,,,,,,,,,,,gray,triangle
1307.0,4.0,4.0,0.0,1.0,1.0,363.2989600000655,4.0,1.0,phase_1,,,,,,,,,,,,,yellow,circle
647.0,3.0,3.0,0.0,4.0,4.0,362.8620440003942,4.0,1.0,phase_1,,,,,,,,,,,,,white,flipped triangle
1306.0,8.0,4.0,1.0,2.0,2.0,364.0848979994189,4.0,1.0,phase_1,,,,,,,,,,,,,cyan,I
329.0,2.0,2.0,0.0,4.0,4.0,447.3606200008362,4.0,1.0,phase_1,,,,,,,,,,,,,gray,triangle
650.0,3.0,3.0,0.0,2.0,2.0,373.6646990000736,4.0,1.0,phase_1,,,,,,,,,,,,,white,flipped triangle
666.0,7.0,3.0,1.0,1.0,1.0,438.0808570003864,4.0,1.0,phase_1,,,,,,,,,,,,,magenta,hexagon
0.0,4.0,0.0,0.0,3.0,3.0,353.411529999903,4.0,1.0,phase_1,,,,,,,,,,,,,yellow,circle
1295.0,4.0,4.0,0.0,3.0,3.0,492.8412890003528,4.0,1.0,phase_1,,,,,,,,,,,,,yellow,circle
655.0,3.0,3.0,0.0,4.0,4.0,381.8000740002389,4.0,1.0,phase_1,,,,,,,,,,,,,white,flipped triangle
181.0,5.0,1.0,1.0,3.0,3.0,400.7575609994092,4.0,1.0,phase_1,,,,,,,,,,,,,orange,square
673.0,7.0,3.0,1.0,3.0,3.0,408.6403140008769,4.0,1.0,phase_1,,,,,,,,,,,,,magenta,hexagon
328.0,2.0,2.0,0.0,4.0,4.0,418.5928469996725,4.0,1.0,phase_1,,,,,,,,,,,,,gray,triangle
1300.0,4.0,4.0,0.0,3.0,3.0,316.327256000477,4.0,1.0,phase_1,,,,,,,,,,,,,yellow,circle
0.0,6.0,0.0,1.0,1.0,1.0,409.5687159997396,4.0,1.0,phase_1,,,,,,,,,,,,,blue,diamond
0.0,2.0,0.0,0.0,1.0,1.0,344.7543339998447,4.0,1.0,phase_1,,,,,,,,,,,,,gray,triangle
667.0,7.0,3.0,1.0,1.0,1.0,325.6030219999957,4.0,1.0,phase_1,,,,,,,,,,,,,magenta,hexagon
141.0,5.0,1.0,1.0,4.0,4.0,345.1086280001618,4.0,1.0,phase_1,,,,,,,,,,,,,orange,square
0.0,6.0,0.0,1.0,1.0,1.0,372.2339880005165,4.0,1.0,phase_1,,,,,,,,,,,,,blue,diamond
1288.0,8.0,4.0,1.0,4.0,4.0,483.4831400003168,4.0,1.0,phase_1,,,,,,,,,,,,,cyan,I
182.0,1.0,1.0,0.0,4.0,4.0,381.3217760007319,4.0,1.0,phase_1,,,,,,,,,,,,,green,cross
0.0,8.0,0.0,1.0,2.0,2.0,343.9332979996834,4.0,1.0,phase_1,,,,,,,,,,,,,cyan,I
0.0,1.0,0.0,0.0,4.0,4.0,326.0593240001981,4.0,1.0,phase_1,,,,,,,,,,,,,green,cross
0.0,1.0,0.0,0.0,4.0,4.0,344.8209610005506,4.0,1.0,phase_1,,,,,,,,,,,,,green,cross
139.0,1.0,1.0,0.0,3.0,3.0,317.1203030005927,4.0,1.0,phase_1,,,,,,,,,,,,,green,cross
1317.0,8.0,4.0,1.0,4.0,4.0,437.7930279997599,4.0,1.0,phase_1,,,,,,,,,,,,,cyan,I
644.0,7.0,3.0,1.0,1.0,1.0,436.5507390002676,4.0,1.0,phase_1,,,,,,,,,,,,,magenta,hexagon
1320.0,4.0,4.0,0.0,2.0,2.0,503.02543800080457,4.0,1.0,phase_1,,,,,,,,,,,,,yellow,circle
148.0,5.0,1.0,1.0,2.0,2.0,344.0726569997423,4.0,1.0,phase_1,,,,,,,,,,,,,orange,square
0.0,8.0,0.0,1.0,3.0,3.0,410.3381730001274,4.0,1.0,phase_1,,,,,,,,,,,,,cyan,I
140.0,5.0,1.0,1.0,1.0,1.0,269.8893999995562,4.0,1.0,phase_1,,,,,,,,,,,,,orange,square
1290.0,4.0,4.0,0.0,1.0,1.0,336.5439440003683,4.0,1.0,phase_1,,,,,,,,,,,,,yellow,circle
659.0,3.0,3.0,0.0,1.0,1.0,381.8001660001755,4.0,1.0,phase_1,,,,,,,,,,,,,white,flipped triangle
655.0,3.0,3.0,0.0,3.0,3.0,336.1775049997959,4.0,1.0,phase_1,,,,,,,,,,,,,white,flipped triangle
1276.0,4.0,4.0,0.0,3.0,3.0,335.4090249995352,4.0,1.0,phase_1,,,,,,,,,,,,,yellow,circle
177.0,5.0,1.0,1.0,3.0,3.0,316.7014300006485,4.0,1.0,phase_1,,,,,,,,,,,,,orange,square
141.0,1.0,1.0,0.0,2.0,2.0,335.3465110003526,4.0,1.0,phase_1,,,,,,,,,,,,,green,cross
322.0,6.0,2.0,1.0,2.0,2.0,299.2288360001112,4.0,1.0,phase_1,,,,,,,,,,,,,blue,diamond
159.0,5.0,1.0,1.0,3.0,3.0,307.1186099996339,4.0,1.0,phase_1,,,,,,,,,,,,,orange,square
0.0,7.0,0.0,1.0,4.0,4.0,419.210670999746,4.0,1.0,phase_1,,,,,,,,,,,,,magenta,hexagon
647.0,7.0,3.0,1.0,1.0,1.0,326.369694999812,4.0,1.0,phase_1,,,,,,,,,,,,,magenta,hexagon
1289.0,8.0,4.0,1.0,4.0,4.0,428.5830159997204,4.0,1.0,phase_1,,,,,,,,,,,,,cyan,I
183.0,1.0,1.0,0.0,2.0,2.0,325.9494780004388,4.0,1.0,phase_1,,,,,,,,,,,,,green,cross
0.0,5.0,0.0,1.0,3.0,3.0,316.6592719999244,4.0,1.0,phase_1,,,,,,,,,,,,,orange,square
649.0,7.0,3.0,1.0,3.0,3.0,363.5658690000127,4.0,1.0,phase_1,,,,,,,,,,,,,magenta,hexagon
1311.0,8.0,4.0,1.0,3.0,3.0,354.15510599978,4.0,1.0,phase_1,,,,,,,,,,,,,cyan,I
1299.0,8.0,4.0,1.0,1.0,1.0,511.53640699976677,4.0,1.0,phase_1,,,,,,,,,,,,,cyan,I
0.0,7.0,0.0,1.0,3.0,3.0,389.5767419999174,4.0,1.0,phase_1,,,,,,,,,,,,,magenta,hexagon
1299.0,4.0,4.0,0.0,3.0,3.0,334.9212729999635,4.0,1.0,phase_1,,,,,,,,,,,,,yellow,circle
0.0,1.0,0.0,0.0,1.0,1.0,380.8765539997694,4.0,1.0,phase_1,,,,,,,,,,,,,green,cross
0.0,5.0,0.0,1.0,1.0,1.0,315.66490899967897,4.0,1.0,phase_1,,,,,,,,,,,,,orange,square
1307.0,8.0,4.0,1.0,1.0,1.0,307.6367060002667,4.0,1.0,phase_1,,,,,,,,,,,,,cyan,I
0.0,2.0,0.0,0.0,4.0,4.0,307.0327469995391,4.0,1.0,phase_1,,,,,,,,,,,,,gray,triangle
177.0,1.0,1.0,0.0,1.0,1.0,316.3968990002104,4.0,1.0,phase_1,,,,,,,,,,,,,green,cross
335.0,2.0,2.0,0.0,4.0,4.0,474.272411000129,4.0,1.0,phase_1,,,,,,,,,,,,,gray,triangle
1316.0,4.0,4.0,0.0,2.0,2.0,485.4666430001089,4.0,1.0,phase_1,,,,,,,,,,,,,yellow,circle
0.0,5.0,0.0,1.0,4.0,4.0,354.7324820001449,4.0,1.0,phase_1,,,,,,,,,,,,,orange,square
0.0,7.0,0.0,1.0,1.0,1.0,316.6486210002404,4.0,1.0,phase_1,,,,,,,,,,,,,magenta,hexagon
159.0,5.0,1.0,1.0,3.0,3.0,354.5789609997882,4.0,1.0,phase_1,,,,,,,,,,,,,orange,square
179.0,1.0,1.0,0.0,3.0,3.0,335.4103599995142,4.0,1.0,phase_1,,,,,,,,,,,,,green,cross
174.0,5.0,1.0,1.0,1.0,1.0,410.2918919998046,4.0,1.0,phase_1,,,,,,,,,,,,,orange,square
320.0,2.0,2.0,0.0,1.0,1.0,497.0062009997491,4.0,1.0,phase_1,,,,,,,,,,,,,gray,triangle
628.0,3.0,3.0,0.0,1.0,1.0,359.9712369996268,4.0,1.0,phase_1,,,,,,,,,,,,,white,flipped triangle
665.0,7.0,3.0,1.0,4.0,4.0,512.250323000444,4.0,1.0,phase_1,,,,,,,,,,,,,magenta,hexagon
0.0,7.0,0.0,1.0,4.0,4.0,335.9407710004234,4.0,1.0,phase_1,,,,,,,,,,,,,magenta,hexagon
0.0,5.0,0.0,1.0,4.0,4.0,271.6679949999161,4.0,1.0,phase_1,,,,,,,,,,,,,orange,square
661.0,7.0,3.0,1.0,4.0,4.0,355.2579380002498,4.0,1.0,phase_1,,,,,,,,,,,,,magenta,hexagon
0.0,1.0,0.0,0.0,3.0,3.0,335.5720370000199,4.0,1.0,phase_1,,,,,,,,,,,,,green,cross
0.0,8.0,0.0,1.0,1.0,1.0,502.82100399999763,4.0,1.0,phase_1,,,,,,,,,,,,,cyan,I
307.0,6.0,2.0,1.0,3.0,3.0,550.0770079997892,4.0,1.0,phase_1,,,,,,,,,,,,,blue,diamond
0.0,4.0,4.0,0.0,6.0,6.0,399.2590339994422,1.0,1.0,phase_2,go,250.0,250.0,1.0,,,,,,,,,yellow,circle
0.0,5.0,1.0,1.0,5.0,0.0,0.0,1.0,1.0,phase_2,stop,250.0,250.0,4.0,,,,,,,,,orange,square
0.0,1.0,1.0,0.0,5.0,5.0,515.99016199998,1.0,1.0,phase_2,go,300.0,250.0,1.0,,,,,,,,,green,cross
0.0,5.0,1.0,1.0,5.0,5.0,335.7669960005296,1.0,1.0,phase_2,stop,300.0,250.0,3.0,,,,,,,,,orange,square
0.0,6.0,2.0,1.0,5.0,5.0,390.2582159998928,1.0,1.0,phase_2,stop,250.0,250.0,3.0,,,,,,,,,blue,diamond
0.0,8.0,4.0,1.0,6.0,6.0,466.2004449992309,1.0,1.0,phase_2,stop,200.0,250.0,3.0,,,,,,,,,cyan,I
0.0,4.0,4.0,0.0,6.0,6.0,432.5261180001689,1.0,1.0,phase_2,go,200.0,200.0,1.0,,,,,,,,,yellow,circle
0.0,4.0,4.0,0.0,6.0,6.0,590.5439869993643,1.0,1.0,phase_2,go,200.0,200.0,1.0,,,,,,,,,yellow,circle
0.0,2.0,2.0,0.0,5.0,5.0,562.9506479999691,1.0,1.0,phase_2,go,200.0,200.0,1.0,,,,,,,,,gray,triangle
0.0,3.0,3.0,0.0,5.0,5.0,338.1550910007718,1.0,1.0,phase_2,go,200.0,200.0,1.0,,,,,,,,,white,flipped triangle
0.0,7.0,3.0,1.0,6.0,0.0,0.0,1.0,1.0,phase_2,stop,200.0,200.0,4.0,,,,,,,,,magenta,hexagon
0.0,8.0,4.0,1.0,5.0,0.0,0.0,1.0,1.0,phase_2,stop,200.0,250.0,4.0,,,,,,,,,cyan,I
0.0,4.0,4.0,0.0,5.0,5.0,413.7526650001746,1.0,1.0,phase_2,go,250.0,250.0,1.0,,,,,,,,,yellow,circle
0.0,5.0,1.0,1.0,6.0,6.0,437.8093029999945,1.0,1.0,phase_2,stop,250.0,250.0,3.0,,,,,,,,,orange,square
0.0,1.0,1.0,0.0,5.0,5.0,497.2023680002166,1.0,1.0,phase_2,go,250.0,200.0,1.0,,,,,,,,,green,cross
0.0,4.0,4.0,0.0,5.0,5.0,524.7157719995812,1.0,1.0,phase_2,go,250.0,200.0,1.0,,,,,,,,,yellow,circle
0.0,1.0,1.0,0.0,5.0,5.0,355.7370260004973,1.0,1.0,phase_2,go,250.0,200.0,1.0,,,,,,,,,green,cross
0.0,1.0,1.0,0.0,5.0,5.0,497.6773609996598,1.0,1.0,phase_2,go,250.0,200.0,1.0,,,,,,,,,green,cross
0.0,8.0,4.0,1.0,6.0,0.0,0.0,1.0,1.0,phase_2,stop,250.0,200.0,4.0,,,,,,,,,cyan,I
0.0,2.0,2.0,0.0,5.0,5.0,478.7801620004757,1.0,1.0,phase_2,go,250.0,250.0,1.0,,,,,,,,,gray,triangle
0.0,7.0,3.0,1.0,5.0,5.0,391.4575119997607,1.0,1.0,phase_2,stop,250.0,250.0,3.0,,,,,,,,,magenta,hexagon
0.0,5.0,1.0,1.0,6.0,6.0,552.2907510003279,1.0,1.0,phase_2,go,200.0,250.0,1.0,,,,,,,,,orange,square
0.0,5.0,1.0,1.0,6.0,6.0,373.4801720001997,1.0,1.0,phase_2,stop,200.0,250.0,3.0,,,,,,,,,orange,square
0.0,1.0,1.0,0.0,6.0,6.0,627.7279709993309,1.0,1.0,phase_2,go,200.0,200.0,1.0,,,,,,,,,green,cross
0.0,7.0,3.0,1.0,6.0,6.0,392.715914999826,1.0,1.0,phase_2,stop,200.0,200.0,3.0,,,,,,,,,magenta,hexagon
0.0,5.0,1.0,1.0,6.0,0.0,0.0,1.0,1.0,phase_2,stop,200.0,150.0,4.0,,,,,,,,,orange,square
0.0,6.0,2.0,1.0,6.0,0.0,0.0,1.0,1.0,phase_2,stop,200.0,200.0,4.0,,,,,,,,,blue,diamond
0.0,1.0,1.0,0.0,6.0,6.0,552.621296000325,1.0,1.0,phase_2,go,200.0,250.0,1.0,,,,,,,,,green,cross
0.0,7.0,3.0,1.0,6.0,6.0,505.6788889996824,1.0,1.0,phase_2,go,200.0,250.0,1.0,,,,,,,,,magenta,hexagon
0.0,6.0,2.0,1.0,6.0,0.0,0.0,1.0,1.0,phase_2,stop,200.0,250.0,4.0,,,,,,,,,blue,diamond
0.0,4.0,4.0,0.0,5.0,5.0,468.3768049999344,1.0,1.0,phase_2,go,200.0,300.0,1.0,,,,,,,,,yellow,circle
0.0,4.0,4.0,0.0,5.0,5.0,448.2064640005774,1.0,1.0,phase_2,go,200.0,300.0,1.0,,,,,,,,,yellow,circle
0.0,5.0,1.0,1.0,6.0,6.0,391.0113590000037,1.0,1.0,phase_2,stop,200.0,300.0,3.0,,,,,,,,,orange,square
0.0,8.0,4.0,1.0,5.0,5.0,383.7302090005323,1.0,1.0,phase_2,stop,200.0,250.0,3.0,,,,,,,,,cyan,I
0.0,3.0,3.0,0.0,6.0,6.0,469.2030699998213,1.0,1.0,phase_2,go,150.0,250.0,1.0,,,,,,,,,white,flipped triangle
0.0,5.0,1.0,1.0,6.0,0.0,0.0,1.0,1.0,phase_2,stop,150.0,250.0,4.0,,,,,,,,,orange,square
0.0,7.0,3.0,1.0,6.0,6.0,447.059191000335,2.0,1.0,phase_2,stop,150.0,300.0,3.0,,,,,,,,,magenta,hexagon
0.0,4.0,4.0,0.0,6.0,6.0,450.7713639995927,2.0,1.0,phase_2,go,150.0,250.0,1.0,,,,,,,,,yellow,circle
0.0,5.0,1.0,1.0,6.0,6.0,371.2086340001406,2.0,1.0,phase_2,stop,150.0,250.0,3.0,,,,,,,,,orange,square
0.0,2.0,2.0,0.0,5.0,5.0,416.1272439996537,2.0,1.0,phase_2,go,150.0,200.0,1.0,,,,,,,,,gray,triangle
0.0,6.0,2.0,1.0,5.0,0.0,0.0,2.0,1.0,phase_2,stop,150.0,200.0,4.0,,,,,,,,,blue,diamond
0.0,7.0,3.0,1.0,6.0,6.0,419.1070139995645,2.0,1.0,phase_2,stop,200.0,200.0,3.0,,,,,,,,,magenta,hexagon
0.0,1.0,1.0,0.0,5.0,5.0,514.7709599996233,2.0,1.0,phase_2,go,200.0,150.0,1.0,,,,,,,,,green,cross
0.0,6.0,2.0,1.0,5.0,5.0,443.4756609998658,2.0,1.0,phase_2,go,200.0,150.0,1.0,,,,,,,,,blue,diamond
0.0,4.0,4.0,0.0,5.0,5.0,412.9643099995519,2.0,1.0,phase_2,go,200.0,150.0,1.0,,,,,,,,,yellow,circle
0.0,2.0,2.0,0.0,6.0,6.0,413.6900169996806,2.0,1.0,phase_2,go,200.0,150.0,1.0,,,,,,,,,gray,triangle
0.0,6.0,2.0,1.0,6.0,0.0,0.0,2.0,1.0,phase_2,stop,200.0,150.0,4.0,,,,,,,,,blue,diamond
0.0,7.0,3.0,1.0,6.0,0.0,0.0,2.0,1.0,phase_2,stop,200.0,200.0,4.0,,,,,,,,,magenta,hexagon
0.0,7.0,3.0,1.0,6.0,6.0,647.4470310004108,2.0,1.0,phase_2,go,200.0,250.0,1.0,,,,,,,,,magenta,hexagon
0.0,5.0,1.0,1.0,5.0,5.0,478.2466739998199,2.0,1.0,phase_2,go,200.0,250.0,1.0,,,,,,,,,orange,square
0.0,3.0,3.0,0.0,6.0,6.0,414.1008559990951,2.0,1.0,phase_2,go,200.0,250.0,1.0,,,,,,,,,white,flipped triangle
0.0,8.0,4.0,1.0,5.0,5.0,353.3422279997467,2.0,1.0,phase_2,go,200.0,250.0,1.0,,,,,,,,,cyan,I
0.0,5.0,1.0,1.0,5.0,5.0,318.8855790003799,2.0,1.0,phase_2,go,200.0,250.0,1.0,,,,,,,,,orange,square
0.0,8.0,4.0,1.0,5.0,5.0,357.0215529998677,2.0,1.0,phase_2,stop,200.0,250.0,3.0,,,,,,,,,cyan,I
0.0,8.0,4.0,1.0,6.0,0.0,0.0,2.0,1.0,phase_2,stop,150.0,250.0,4.0,,,,,,,,,cyan,I
0.0,7.0,3.0,1.0,5.0,5.0,402.9488840005797,2.0,1.0,phase_2,go,150.0,300.0,1.0,,,,,,,,,magenta,hexagon
0.0,7.0,3.0,1.0,5.0,5.0,331.9672770003308,2.0,1.0,phase_2,stop,150.0,300.0,3.0,,,,,,,,,magenta,hexagon
0.0,8.0,4.0,1.0,5.0,0.0,0.0,2.0,1.0,phase_2,stop,100.0,300.0,4.0,,,,,,,,,cyan,I
0.0,3.0,3.0,0.0,5.0,5.0,485.9762539999792,2.0,1.0,phase_2,go,150.0,300.0,1.0,,,,,,,,,white,flipped triangle
0.0,2.0,2.0,0.0,6.0,6.0,627.1587370001726,2.0,1.0,phase_2,go,150.0,300.0,1.0,,,,,,,,,gray,triangle
0.0,8.0,4.0,1.0,6.0,6.0,376.6524180000488,2.0,1.0,phase_2,stop,150.0,300.0,3.0,,,,,,,,,cyan,I
0.0,1.0,1.0,0.0,6.0,6.0,383.7084939996202,2.0,1.0,phase_2,go,150.0,250.0,1.0,,,,,,,,,green,cross
0.0,4.0,4.0,0.0,6.0,6.0,449.8982670002078,2.0,1.0,phase_2,go,150.0,250.0,1.0,,,,,,,,,yellow,circle
0.0,5.0,1.0,1.0,5.0,5.0,308.5879329992167,2.0,1.0,phase_2,stop,150.0,250.0,3.0,,,,,,,,,orange,square
0.0,2.0,2.0,0.0,6.0,6.0,318.4179389991186,2.0,1.0,phase_2,go,100.0,250.0,1.0,,,,,,,,,gray,triangle
0.0,6.0,2.0,1.0,5.0,0.0,0.0,2.0,1.0,phase_2,stop,100.0,250.0,4.0,,,,,,,,,blue,diamond
0.0,3.0,3.0,0.0,5.0,5.0,486.7169360004482,2.0,1.0,phase_2,go,150.0,250.0,1.0,,,,,,,,,white,flipped triangle
0.0,7.0,3.0,1.0,5.0,5.0,338.2688159999816,2.0,1.0,phase_2,stop,150.0,250.0,3.0,,,,,,,,,magenta,hexagon
0.0,1.0,1.0,0.0,5.0,5.0,496.9838710003387,2.0,1.0,phase_2,go,100.0,250.0,1.0,,,,,,,,,green,cross
0.0,7.0,3.0,1.0,5.0,0.0,0.0,2.0,1.0,phase_2,stop,100.0,250.0,4.0,,,,,,,,,magenta,hexagon
0.0,5.0,1.0,1.0,6.0,6.0,393.2761670002946,2.0,1.0,phase_2,stop,150.0,250.0,3.0,,,,,,,,,orange,square
0.0,3.0,3.0,0.0,6.0,6.0,524.1091520001646,2.0,1.0,phase_2,go,150.0,200.0,1.0,,,,,,,,,white,flipped triangle
0.0,4.0,4.0,0.0,6.0,6.0,403.8487569996505,3.0,1.0,phase_2,go,150.0,200.0,1.0,,,,,,,,,yellow,circle
0.0,4.0,4.0,0.0,5.0,5.0,338.1418019998818,3.0,1.0,phase_2,go,150.0,200.0,1.0,,,,,,,,,yellow,circle
0.0,8.0,4.0,1.0,5.0,5.0,418.4076889996504,3.0,1.0,phase_2,stop,150.0,200.0,3.0,,,,,,,,,cyan,I
0.0,2.0,2.0,0.0,5.0,5.0,505.95191800039174,3.0,1.0,phase_2,go,100.0,200.0,1.0,,,,,,,,,gray,triangle
0.0,2.0,2.0,0.0,6.0,6.0,439.8350719993686,3.0,1.0,phase_2,go,100.0,200.0,1.0,,,,,,,,,gray,triangle
0.0,7.0,3.0,1.0,6.0,0.0,0.0,3.0,1.0,phase_2,stop,100.0,200.0,4.0,,,,,,,,,magenta,hexagon
0.0,2.0,2.0,0.0,6.0,6.0,591.3811609998447,3.0,1.0,phase_2,go,100.0,250.0,1.0,,,,,,,,,gray,triangle
0.0,3.0,3.0,0.0,5.0,5.0,337.3287799995523,3.0,1.0,phase_2,go,100.0,250.0,1.0,,,,,,,,,white,flipped triangle
0.0,3.0,3.0,0.0,6.0,6.0,329.0105420001055,3.0,1.0,phase_2,go,100.0,250.0,1.0,,,,,,,,,white,flipped triangle
0.0,6.0,2.0,1.0,6.0,6.0,421.0544260004099,3.0,1.0,phase_2,go,100.0,250.0,1.0,,,,,,,,,blue,diamond
0.0,7.0,3.0,1.0,5.0,5.0,412.1495399995183,3.0,1.0,phase_2,go,100.0,250.0,1.0,,,,,,,,,magenta,hexagon
0.0,8.0,4.0,1.0,5.0,5.0,368.5022690006008,3.0,1.0,phase_2,stop,100.0,250.0,3.0,,,,,,,,,cyan,I
0.0,6.0,2.0,1.0,5.0,0.0,0.0,3.0,1.0,phase_2,stop,50.0,250.0,4.0,,,,,,,,,blue,diamond
0.0,4.0,4.0,0.0,5.0,5.0,505.4520949997823,3.0,1.0,phase_2,go,100.0,250.0,1.0,,,,,,,,,yellow,circle
0.0,3.0,3.0,0.0,5.0,5.0,432.8411189999315,3.0,1.0,phase_2,go,100.0,250.0,1.0,,,,,,,,,white,flipped triangle
0.0,5.0,1.0,1.0,6.0,6.0,412.327288000597,3.0,1.0,phase_2,stop,100.0,250.0,3.0,,,,,,,,,orange,square
0.0,6.0,2.0,1.0,5.0,5.0,414.4845190003252,3.0,1.0,phase_2,stop,100.0,200.0,3.0,,,,,,,,,blue,diamond
0.0,1.0,1.0,0.0,5.0,5.0,564.1819920001581,3.0,1.0,phase_2,go,50.0,200.0,1.0,,,,,,,,,green,cross
0.0,2.0,2.0,0.0,6.0,6.0,403.0269060003775,3.0,1.0,phase_2,go,50.0,200.0,1.0,,,,,,,,,gray,triangle
0.0,4.0,4.0,0.0,6.0,6.0,345.4316839997773,3.0,1.0,phase_2,go,50.0,200.0,1.0,,,,,,,,,yellow,circle
0.0,5.0,1.0,1.0,6.0,6.0,326.3793610003631,3.0,1.0,phase_2,stop,50.0,200.0,3.0,,,,,,,,,orange,square
0.0,2.0,2.0,0.0,6.0,6.0,440.9710720001385,3.0,1.0,phase_2,go,50.0,150.0,1.0,,,,,,,,,gray,triangle
0.0,8.0,4.0,1.0,6.0,0.0,0.0,3.0,1.0,phase_2,stop,50.0,150.0,4.0,,,,,,,,,cyan,I
0.0,5.0,1.0,1.0,5.0,5.0,432.6466109996545,3.0,1.0,phase_2,stop,50.0,200.0,3.0,,,,,,,,,orange,square
0.0,1.0,1.0,0.0,6.0,6.0,496.3451060002626,3.0,1.0,phase_2,go,0.0,200.0,1.0,,,,,,,,,green,cross
0.0,2.0,2.0,0.0,6.0,6.0,561.2375099999554,3.0,1.0,phase_2,go,0.0,200.0,1.0,,,,,,,,,gray,triangle
0.0,7.0,3.0,1.0,5.0,0.0,0.0,3.0,1.0,phase_2,stop,0.0,200.0,4.0,,,,,,,,,magenta,hexagon
0.0,8.0,4.0,1.0,5.0,5.0,394.2158720001316,3.0,1.0,phase_2,go,50.0,200.0,1.0,,,,,,,,,cyan,I
0.0,6.0,2.0,1.0,5.0,0.0,0.0,3.0,1.0,phase_2,stop,50.0,200.0,4.0,,,,,,,,,blue,diamond
0.0,1.0,1.0,0.0,6.0,6.0,318.7795169997116,3.0,1.0,phase_2,go,100.0,200.0,1.0,,,,,,,,,green,cross
0.0,1.0,1.0,0.0,6.0,6.0,486.2279460003265,3.0,1.0,phase_2,go,100.0,200.0,1.0,,,,,,,,,green,cross
0.0,2.0,2.0,0.0,6.0,6.0,411.1398769991865,3.0,1.0,phase_2,go,100.0,200.0,1.0,,,,,,,,,gray,triangle
0.0,7.0,3.0,1.0,5.0,0.0,0.0,3.0,1.0,phase_2,stop,100.0,200.0,4.0,,,,,,,,,magenta,hexagon
0.0,1.0,1.0,0.0,6.0,6.0,347.1730439996463,3.0,1.0,phase_2,go,150.0,200.0,1.0,,,,,,,,,green,cross
0.0,3.0,3.0,0.0,5.0,5.0,486.1857719997715,3.0,1.0,phase_2,go,150.0,200.0,1.0,,,,,,,,,white,flipped triangle
0.0,3.0,3.0,0.0,5.0,5.0,450.3399239993086,3.0,1.0,phase_2,go,150.0,200.0,1.0,,,,,,,,,white,flipped triangle
0.0,7.0,3.0,1.0,5.0,5.0,431.9727910005895,4.0,1.0,phase_2,go,150.0,200.0,1.0,,,,,,,,,magenta,hexagon
0.0,3.0,3.0,0.0,6.0,6.0,328.2987789998515,4.0,1.0,phase_2,go,150.0,200.0,1.0,,,,,,,,,white,flipped triangle
0.0,8.0,4.0,1.0,5.0,5.0,317.1980549996078,4.0,1.0,phase_2,stop,150.0,200.0,3.0,,,,,,,,,cyan,I
0.0,6.0,2.0,1.0,5.0,5.0,526.0125730001164,4.0,1.0,phase_2,go,100.0,200.0,1.0,,,,,,,,,blue,diamond
0.0,8.0,4.0,1.0,6.0,6.0,319.6572870001546,4.0,1.0,phase_2,go,100.0,200.0,1.0,,,,,,,,,cyan,I
0.0,4.0,4.0,0.0,5.0,5.0,441.7660260005505,4.0,1.0,phase_2,go,100.0,200.0,1.0,,,,,,,,,yellow,circle
0.0,1.0,1.0,0.0,5.0,5.0,366.44442699980567,4.0,1.0,phase_2,go,100.0,200.0,1.0,,,,,,,,,green,cross
0.0,2.0,2.0,0.0,6.0,6.0,336.7566209999495,4.0,1.0,phase_2,go,100.0,200.0,1.0,,,,,,,,,gray,triangle
0.0,4.0,4.0,0.0,5.0,5.0,339.3251400002555,4.0,1.0,phase_2,go,100.0,200.0,1.0,,,,,,,,,yellow,circle
0.0,7.0,3.0,1.0,6.0,6.0,316.1767940000572,4.0,1.0,phase_2,stop,100.0,200.0,3.0,,,,,,,,,magenta,hexagon
0.0,8.0,4.0,1.0,5.0,0.0,0.0,4.0,1.0,phase_2,stop,100.0,150.0,4.0,,,,,,,,,cyan,I
0.0,4.0,4.0,0.0,5.0,5.0,514.2943089995242,4.0,1.0,phase_2,go,150.0,150.0,1.0,,,,,,,,,yellow,circle
0.0,1.0,1.0,0.0,5.0,5.0,337.6218800003698,4.0,1.0,phase_2,go,150.0,150.0,1.0,,,,,,,,,green,cross
0.0,1.0,1.0,0.0,6.0,6.0,411.5803729991967,4.0,1.0,phase_2,go,150.0,150.0,1.0,,,,,,,,,green,cross
0.0,6.0,2.0,1.0,6.0,6.0,345.4646039999716,4.0,1.0,phase_2,go,150.0,150.0,1.0,,,,,,,,,blue,diamond
0.0,2.0,2.0,0.0,6.0,6.0,437.9515200007517,4.0,1.0,phase_2,go,150.0,150.0,1.0,,,,,,,,,gray,triangle
0.0,1.0,1.0,0.0,6.0,6.0,532.729802999711,4.0,1.0,phase_2,go,150.0,150.0,1.0,,,,,,,,,green,cross
0.0,6.0,2.0,1.0,6.0,0.0,0.0,4.0,1.0,phase_2,stop,150.0,150.0,4.0,,,,,,,,,blue,diamond
0.0,2.0,2.0,0.0,6.0,6.0,665.6792470002983,4.0,1.0,phase_2,go,150.0,200.0,1.0,,,,,,,,,gray,triangle
0.0,7.0,3.0,1.0,6.0,0.0,0.0,4.0,1.0,phase_2,stop,150.0,200.0,4.0,,,,,,,,,magenta,hexagon
0.0,6.0,2.0,1.0,6.0,6.0,450.9037799998623,4.0,1.0,phase_2,stop,150.0,250.0,3.0,,,,,,,,,blue,diamond
0.0,8.0,4.0,1.0,6.0,6.0,626.7704130004859,4.0,1.0,phase_2,go,150.0,200.0,1.0,,,,,,,,,cyan,I
0.0,7.0,3.0,1.0,6.0,0.0,0.0,4.0,1.0,phase_2,stop,150.0,200.0,4.0,,,,,,,,,magenta,hexagon
0.0,1.0,1.0,0.0,5.0,5.0,534.5916530004615,4.0,1.0,phase_2,go,150.0,250.0,1.0,,,,,,,,,green,cross
0.0,8.0,4.0,1.0,6.0,0.0,0.0,4.0,1.0,phase_2,stop,150.0,250.0,4.0,,,,,,,,,cyan,I
0.0,5.0,1.0,1.0,6.0,6.0,494.2932570002085,4.0,1.0,phase_2,stop,150.0,300.0,3.0,,,,,,,,,orange,square
0.0,8.0,4.0,1.0,6.0,0.0,0.0,4.0,1.0,phase_2,stop,150.0,250.0,4.0,,,,,,,,,cyan,I
0.0,8.0,4.0,1.0,5.0,5.0,590.8449250000558,4.0,1.0,phase_2,go,150.0,300.0,1.0,,,,,,,,,cyan,I
0.0,4.0,4.0,0.0,6.0,6.0,401.5903890003756,4.0,1.0,phase_2,go,150.0,300.0,1.0,,,,,,,,,yellow,circle
0.0,1.0,1.0,0.0,6.0,6.0,534.2031159998442,4.0,1.0,phase_2,go,150.0,300.0,1.0,,,,,,,,,green,cross
0.0,6.0,2.0,1.0,6.0,6.0,496.1418390003018,4.0,1.0,phase_2,stop,150.0,300.0,3.0,,,,,,,,,blue,diamond
0.0,3.0,3.0,0.0,5.0,5.0,571.1551770000369,4.0,1.0,phase_2,go,150.0,250.0,1.0,,,,,,,,,white,flipped triangle
0.0,1.0,1.0,0.0,6.0,6.0,469.7547269997812,4.0,1.0,phase_2,go,150.0,250.0,1.0,,,,,,,,,green,cross
0.0,6.0,2.0,1.0,5.0,0.0,0.0,4.0,1.0,phase_2,stop,150.0,250.0,4.0,,,,,,,,,blue,diamond
0.0,1.0,1.0,0.0,5.0,5.0,487.1366120005405,4.0,1.0,phase_2,go,200.0,250.0,1.0,,,,,,,,,green,cross
0.0,6.0,2.0,1.0,5.0,0.0,0.0,4.0,1.0,phase_2,stop,200.0,250.0,4.0,,,,,,,,,blue,diamond
0.0,5.0,1.0,1.0,6.0,6.0,364.682403000188,5.0,1.0,phase_2,go,250.0,250.0,1.0,,,,,,,,,orange,square
0.0,2.0,2.0,0.0,6.0,6.0,561.4308440008244,5.0,1.0,phase_2,go,250.0,250.0,1.0,,,,,,,,,gray,triangle
0.0,5.0,1.0,1.0,5.0,5.0,563.3719209999981,5.0,1.0,phase_2,go,250.0,250.0,1.0,,,,,,,,,orange,square
0.0,3.0,3.0,0.0,5.0,5.0,364.9635800002215,5.0,1.0,phase_2,go,250.0,250.0,1.0,,,,,,,,,white,flipped triangle
0.0,8.0,4.0,1.0,5.0,5.0,477.9605909998281,5.0,1.0,phase_2,stop,250.0,250.0,3.0,,,,,,,,,cyan,I
0.0,3.0,3.0,0.0,5.0,5.0,420.6102779999128,5.0,1.0,phase_2,go,200.0,250.0,1.0,,,,,,,,,white,flipped triangle
0.0,4.0,4.0,0.0,6.0,6.0,420.841295000173,5.0,1.0,phase_2,go,200.0,250.0,1.0,,,,,,,,,yellow,circle
0.0,5.0,1.0,1.0,5.0,5.0,514.9006370002098,5.0,1.0,phase_2,go,200.0,250.0,1.0,,,,,,,,,orange,square
0.0,6.0,2.0,1.0,5.0,5.0,450.0260329996308,5.0,1.0,phase_2,stop,200.0,250.0,3.0,,,,,,,,,blue,diamond
0.0,3.0,3.0,0.0,5.0,5.0,497.6090489999478,5.0,1.0,phase_2,go,150.0,250.0,1.0,,,,,,,,,white,flipped triangle
0.0,4.0,4.0,0.0,5.0,5.0,410.1374150004631,5.0,1.0,phase_2,go,150.0,250.0,1.0,,,,,,,,,yellow,circle
0.0,3.0,3.0,0.0,6.0,6.0,366.1032479994901,5.0,1.0,phase_2,go,150.0,250.0,1.0,,,,,,,,,white,flipped triangle
0.0,3.0,3.0,0.0,6.0,6.0,543.275777999952,5.0,1.0,phase_2,go,150.0,250.0,1.0,,,,,,,,,white,flipped triangle
0.0,3.0,3.0,0.0,6.0,6.0,869.6382039997843,5.0,1.0,phase_2,go,150.0,250.0,1.0,,,,,,,,,white,flipped triangle
0.0,7.0,3.0,1.0,6.0,6.0,358.3394589995805,5.0,1.0,phase_2,stop,150.0,250.0,3.0,,,,,,,,,magenta,hexagon
0.0,5.0,1.0,1.0,6.0,6.0,474.9896299999818,5.0,1.0,phase_2,stop,150.0,200.0,3.0,,,,,,,,,orange,square
0.0,3.0,3.0,0.0,5.0,5.0,431.4223289993606,5.0,1.0,phase_2,go,150.0,150.0,1.0,,,,,,,,,white,flipped triangle
0.0,2.0,2.0,0.0,6.0,6.0,432.1971940007643,5.0,1.0,phase_2,go,150.0,150.0,1.0,,,,,,,,,gray,triangle
0.0,2.0,2.0,0.0,5.0,5.0,393.2972140000856,5.0,1.0,phase_2,go,150.0,150.0,1.0,,,,,,,,,gray,triangle
0.0,6.0,2.0,1.0,6.0,6.0,409.1542559999652,5.0,1.0,phase_2,stop,150.0,150.0,3.0,,,,,,,,,blue,diamond
0.0,1.0,1.0,0.0,5.0,5.0,413.4884639997835,5.0,1.0,phase_2,go,150.0,100.0,1.0,,,,,,,,,green,cross
0.0,3.0,3.0,0.0,6.0,6.0,356.0402930006603,5.0,1.0,phase_2,go,150.0,100.0,1.0,,,,,,,,,white,flipped triangle
0.0,2.0,2.0,0.0,6.0,6.0,459.2183920003663,5.0,1.0,phase_2,go,150.0,100.0,1.0,,,,,,,,,gray,triangle
0.0,3.0,3.0,0.0,6.0,6.0,607.6311629994962,5.0,1.0,phase_2,go,150.0,100.0,1.0,,,,,,,,,white,flipped triangle
0.0,2.0,2.0,0.0,5.0,5.0,553.7343320002037,5.0,1.0,phase_2,go,150.0,100.0,1.0,,,,,,,,,gray,triangle
0.0,1.0,1.0,0.0,6.0,6.0,402.3444240001481,5.0,1.0,phase_2,go,150.0,100.0,1.0,,,,,,,,,green,cross
0.0,4.0,4.0,0.0,5.0,5.0,431.4475950004635,5.0,1.0,phase_2,go,150.0,100.0,1.0,,,,,,,,,yellow,circle
0.0,5.0,1.0,1.0,6.0,6.0,478.6186710007314,5.0,1.0,phase_2,go,150.0,100.0,1.0,,,,,,,,,orange,square
0.0,5.0,1.0,1.0,5.0,5.0,386.2214399996446,5.0,1.0,phase_2,stop,150.0,100.0,3.0,,,,,,,,,orange,square
0.0,4.0,4.0,0.0,5.0,5.0,365.2717539998775,5.0,1.0,phase_2,go,100.0,100.0,1.0,,,,,,,,,yellow,circle
0.0,3.0,3.0,0.0,5.0,5.0,449.3586300004608,5.0,1.0,phase_2,go,100.0,100.0,1.0,,,,,,,,,white,flipped triangle
0.0,4.0,4.0,0.0,6.0,6.0,393.5870489995068,5.0,1.0,phase_2,go,100.0,100.0,1.0,,,,,,,,,yellow,circle
0.0,6.0,2.0,1.0,6.0,6.0,477.6927950006211,5.0,1.0,phase_2,go,100.0,100.0,1.0,,,,,,,,,blue,diamond
0.0,8.0,4.0,1.0,5.0,5.0,410.1566640001692,5.0,1.0,phase_2,stop,100.0,100.0,3.0,,,,,,,,,cyan,I
0.0,5.0,1.0,1.0,6.0,6.0,496.5706359998876,5.0,1.0,phase_2,go,50.0,100.0,1.0,,,,,,,,,orange,square
0.0,4.0,4.0,0.0,6.0,6.0,389.2474659996878,5.0,1.0,phase_2,go,50.0,100.0,1.0,,,,,,,,,yellow,circle
0.0,7.0,3.0,1.0,6.0,6.0,345.3839940002581,6.0,1.0,phase_2,stop,50.0,100.0,3.0,,,,,,,,,magenta,hexagon
0.0,7.0,3.0,1.0,5.0,5.0,348.0505170000469,6.0,1.0,phase_2,stop,50.0,50.0,3.0,,,,,,,,,magenta,hexagon
0.0,7.0,3.0,1.0,5.0,0.0,0.0,6.0,1.0,phase_2,stop,0.0,50.0,4.0,,,,,,,,,magenta,hexagon
0.0,1.0,1.0,0.0,6.0,6.0,355.528103999859,6.0,1.0,phase_2,go,50.0,50.0,1.0,,,,,,,,,green,cross
0.0,2.0,2.0,0.0,6.0,6.0,383.8821099998313,6.0,1.0,phase_2,go,50.0,50.0,1.0,,,,,,,,,gray,triangle
0.0,4.0,4.0,0.0,5.0,5.0,328.5360129993933,6.0,1.0,phase_2,go,50.0,50.0,1.0,,,,,,,,,yellow,circle
0.0,4.0,4.0,0.0,5.0,5.0,338.0140369999935,6.0,1.0,phase_2,go,50.0,50.0,1.0,,,,,,,,,yellow,circle
0.0,6.0,2.0,1.0,5.0,0.0,0.0,6.0,1.0,phase_2,stop,50.0,50.0,4.0,,,,,,,,,blue,diamond
0.0,7.0,3.0,1.0,5.0,5.0,449.0158469998278,6.0,1.0,phase_2,go,100.0,50.0,1.0,,,,,,,,,magenta,hexagon
0.0,6.0,2.0,1.0,5.0,5.0,478.26428999997,6.0,1.0,phase_2,go,100.0,50.0,1.0,,,,,,,,,blue,diamond
0.0,1.0,1.0,0.0,5.0,5.0,421.9159069998568,6.0,1.0,phase_2,go,100.0,50.0,1.0,,,,,,,,,green,cross
0.0,7.0,3.0,1.0,6.0,6.0,451.901127000383,6.0,1.0,phase_2,stop,100.0,50.0,3.0,,,,,,,,,magenta,hexagon
0.0,5.0,1.0,1.0,5.0,0.0,0.0,6.0,1.0,phase_2,stop,100.0,0.0,4.0,,,,,,,,,orange,square
0.0,3.0,3.0,0.0,6.0,6.0,533.4778309998001,6.0,1.0,phase_2,go,150.0,0.0,1.0,,,,,,,,,white,flipped triangle
0.0,4.0,4.0,0.0,5.0,5.0,419.4971910001186,6.0,1.0,phase_2,go,150.0,0.0,1.0,,,,,,,,,yellow,circle
0.0,6.0,2.0,1.0,5.0,0.0,0.0,6.0,1.0,phase_2,stop,150.0,0.0,4.0,,,,,,,,,blue,diamond
0.0,1.0,1.0,0.0,6.0,6.0,482.5437830004375,6.0,1.0,phase_2,go,200.0,0.0,1.0,,,,,,,,,green,cross
0.0,5.0,1.0,1.0,5.0,5.0,363.5737390004578,6.0,1.0,phase_2,stop,200.0,0.0,3.0,,,,,,,,,orange,square
0.0,3.0,3.0,0.0,5.0,5.0,581.8812699999398,6.0,1.0,phase_2,go,150.0,0.0,1.0,,,,,,,,,white,flipped triangle
0.0,2.0,2.0,0.0,5.0,5.0,357.2303760001887,6.0,1.0,phase_2,go,150.0,0.0,1.0,,,,,,,,,gray,triangle
0.0,8.0,4.0,1.0,6.0,6.0,700.5882089997613,6.0,1.0,phase_2,go,150.0,0.0,1.0,,,,,,,,,cyan,I
0.0,7.0,3.0,1.0,5.0,0.0,0.0,6.0,1.0,phase_2,stop,150.0,0.0,4.0,,,,,,,,,magenta,hexagon
0.0,8.0,4.0,1.0,6.0,0.0,0.0,6.0,1.0,phase_2,stop,200.0,0.0,4.0,,,,,,,,,cyan,I
0.0,6.0,2.0,1.0,6.0,6.0,751.9567609997466,6.0,1.0,phase_2,go,200.0,50.0,1.0,,,,,,,,,blue,diamond
0.0,1.0,1.0,0.0,6.0,6.0,486.1890940001103,6.0,1.0,phase_2,go,200.0,50.0,1.0,,,,,,,,,green,cross
0.0,6.0,2.0,1.0,5.0,5.0,424.3165690004389,6.0,1.0,phase_2,stop,200.0,50.0,3.0,,,,,,,,,blue,diamond
0.0,1.0,1.0,0.0,6.0,6.0,523.7085809994824,6.0,1.0,phase_2,go,150.0,50.0,1.0,,,,,,,,,green,cross
0.0,1.0,1.0,0.0,5.0,5.0,346.1545039999691,6.0,1.0,phase_2,go,150.0,50.0,1.0,,,,,,,,,green,cross
0.0,7.0,3.0,1.0,5.0,0.0,0.0,6.0,1.0,phase_2,stop,150.0,50.0,4.0,,,,,,,,,magenta,hexagon
0.0,7.0,3.0,1.0,5.0,0.0,0.0,6.0,1.0,phase_2,stop,200.0,50.0,4.0,,,,,,,,,magenta,hexagon
0.0,4.0,4.0,0.0,6.0,6.0,421.6260190005414,6.0,1.0,phase_2,go,250.0,50.0,1.0,,,,,,,,,yellow,circle
0.0,4.0,4.0,0.0,6.0,6.0,400.9278190005716,6.0,1.0,phase_2,go,250.0,50.0,1.0,,,,,,,,,yellow,circle
0.0,8.0,4.0,1.0,6.0,0.0,0.0,6.0,1.0,phase_2,stop,250.0,50.0,4.0,,,,,,,,,cyan,I
0.0,8.0,4.0,1.0,5.0,5.0,480.0361429997792,6.0,1.0,phase_2,stop,250.0,100.0,3.0,,,,,,,,,cyan,I
0.0,5.0,1.0,1.0,5.0,0.0,0.0,6.0,1.0,phase_2,stop,200.0,100.0,4.0,,,,,,,,,orange,square
0.0,8.0,4.0,1.0,6.0,6.0,412.0741860006092,6.0,1.0,phase_2,go,250.0,100.0,1.0,,,,,,,,,cyan,I
0.0,3.0,3.0,0.0,6.0,6.0,516.3661070000671,7.0,1.0,phase_2,go,250.0,100.0,1.0,,,,,,,,,white,flipped triangle
0.0,2.0,2.0,0.0,5.0,5.0,385.4163360001621,7.0,1.0,phase_2,go,250.0,100.0,1.0,,,,,,,,,gray,triangle
0.0,2.0,2.0,0.0,5.0,5.0,337.183568999535,7.0,1.0,phase_2,go,250.0,100.0,1.0,,,,,,,,,gray,triangle
0.0,6.0,2.0,1.0,6.0,6.0,290.0207719994796,7.0,1.0,phase_2,go,250.0,100.0,1.0,,,,,,,,,blue,diamond
0.0,6.0,2.0,1.0,6.0,6.0,298.4396020001441,7.0,1.0,phase_2,stop,250.0,100.0,3.0,,,,,,,,,blue,diamond
0.0,1.0,1.0,0.0,5.0,5.0,318.9153799994528,7.0,1.0,phase_2,go,250.0,50.0,1.0,,,,,,,,,green,cross
0.0,8.0,4.0,1.0,6.0,6.0,278.4357239997916,7.0,1.0,phase_2,stop,250.0,50.0,3.0,,,,,,,,,cyan,I
0.0,6.0,2.0,1.0,6.0,0.0,0.0,7.0,1.0,phase_2,stop,250.0,0.0,4.0,,,,,,,,,blue,diamond
0.0,2.0,2.0,0.0,5.0,5.0,458.576697999888,7.0,1.0,phase_2,go,250.0,50.0,1.0,,,,,,,,,gray,triangle
0.0,5.0,1.0,1.0,6.0,0.0,0.0,7.0,1.0,phase_2,stop,250.0,50.0,4.0,,,,,,,,,orange,square
0.0,6.0,2.0,1.0,6.0,6.0,505.9936010002275,7.0,1.0,phase_2,go,250.0,100.0,1.0,,,,,,,,,blue,diamond
0.0,3.0,3.0,0.0,6.0,6.0,449.0344679998088,7.0,1.0,phase_2,go,250.0,100.0,1.0,,,,,,,,,white,flipped triangle
0.0,2.0,2.0,0.0,5.0,5.0,663.7460910005757,7.0,1.0,phase_2,go,250.0,100.0,1.0,,,,,,,,,gray,triangle
0.0,3.0,3.0,0.0,6.0,6.0,450.5905460000576,7.0,1.0,phase_2,go,250.0,100.0,1.0,,,,,,,,,white,flipped triangle
0.0,8.0,4.0,1.0,6.0,6.0,372.7346810001108,7.0,1.0,phase_2,stop,250.0,100.0,3.0,,,,,,,,,cyan,I
0.0,1.0,1.0,0.0,5.0,5.0,476.8262099996718,7.0,1.0,phase_2,go,250.0,50.0,1.0,,,,,,,,,green,cross
0.0,3.0,3.0,0.0,6.0,6.0,411.2381770000866,7.0,1.0,phase_2,go,250.0,50.0,1.0,,,,,,,,,white,flipped triangle
0.0,5.0,1.0,1.0,5.0,5.0,351.9183250000424,7.0,1.0,phase_2,stop,250.0,50.0,3.0,,,,,,,,,orange,square
0.0,2.0,2.0,0.0,5.0,5.0,487.7921509996668,7.0,1.0,phase_2,go,200.0,50.0,1.0,,,,,,,,,gray,triangle
0.0,7.0,3.0,1.0,5.0,5.0,693.7817200005156,7.0,1.0,phase_2,go,200.0,50.0,1.0,,,,,,,,,magenta,hexagon
0.0,5.0,1.0,1.0,5.0,0.0,0.0,7.0,1.0,phase_2,stop,200.0,50.0,4.0,,,,,,,,,orange,square
0.0,2.0,2.0,0.0,5.0,5.0,469.1203180000229,7.0,1.0,phase_2,go,250.0,50.0,1.0,,,,,,,,,gray,triangle
0.0,3.0,3.0,0.0,6.0,6.0,376.2821130003431,7.0,1.0,phase_2,go,250.0,50.0,1.0,,,,,,,,,white,flipped triangle
0.0,5.0,1.0,1.0,5.0,5.0,376.7547729994476,7.0,1.0,phase_2,stop,250.0,50.0,3.0,,,,,,,,,orange,square
0.0,8.0,4.0,1.0,5.0,0.0,0.0,7.0,1.0,phase_2,stop,200.0,50.0,4.0,,,,,,,,,cyan,I
0.0,3.0,3.0,0.0,5.0,5.0,444.2462370006979,7.0,1.0,phase_2,go,250.0,50.0,1.0,,,,,,,,,white,flipped triangle
0.0,2.0,2.0,0.0,5.0,5.0,376.1734390000129,7.0,1.0,phase_2,go,250.0,50.0,1.0,,,,,,,,,gray,triangle
0.0,6.0,2.0,1.0,5.0,5.0,403.1883140005448,7.0,1.0,phase_2,stop,250.0,50.0,3.0,,,,,,,,,blue,diamond
0.0,4.0,4.0,0.0,6.0,6.0,347.8865289998794,7.0,1.0,phase_2,go,200.0,50.0,1.0,,,,,,,,,yellow,circle
0.0,4.0,4.0,0.0,6.0,6.0,507.6919419998376,7.0,1.0,phase_2,go,200.0,50.0,1.0,,,,,,,,,yellow,circle
0.0,2.0,2.0,0.0,5.0,5.0,374.5417999998608,7.0,1.0,phase_2,go,200.0,50.0,1.0,,,,,,,,,gray,triangle
0.0,8.0,4.0,1.0,6.0,6.0,308.4317370003191,7.0,1.0,phase_2,stop,200.0,50.0,3.0,,,,,,,,,cyan,I
0.0,2.0,2.0,0.0,5.0,5.0,469.1464710003856,7.0,1.0,phase_2,go,200.0,0.0,1.0,,,,,,,,,gray,triangle
0.0,8.0,4.0,1.0,6.0,6.0,356.6995319997659,7.0,1.0,phase_2,go,200.0,0.0,1.0,,,,,,,,,cyan,I
0.0,6.0,2.0,1.0,6.0,0.0,0.0,7.0,1.0,phase_2,stop,200.0,0.0,4.0,,,,,,,,,blue,diamond
0.0,7.0,3.0,1.0,6.0,6.0,450.0665920004394,7.0,1.0,phase_2,go,200.0,50.0,1.0,,,,,,,,,magenta,hexagon
0.0,4.0,4.0,0.0,5.0,5.0,394.205845000215,8.0,1.0,phase_2,go,200.0,50.0,1.0,,,,,,,,,yellow,circle
0.0,8.0,4.0,1.0,6.0,0.0,0.0,8.0,1.0,phase_2,stop,200.0,50.0,4.0,,,,,,,,,cyan,I
0.0,4.0,4.0,0.0,6.0,6.0,367.3382329998276,8.0,1.0,phase_2,go,200.0,100.0,1.0,,,,,,,,,yellow,circle
0.0,8.0,4.0,1.0,5.0,5.0,380.6237000007968,8.0,1.0,phase_2,stop,200.0,100.0,3.0,,,,,,,,,cyan,I
0.0,4.0,4.0,0.0,5.0,5.0,414.3802810003762,8.0,1.0,phase_2,go,150.0,100.0,1.0,,,,,,,,,yellow,circle
0.0,6.0,2.0,1.0,6.0,0.0,0.0,8.0,1.0,phase_2,stop,150.0,100.0,4.0,,,,,,,,,blue,diamond
0.0,1.0,1.0,0.0,5.0,5.0,421.6993970003386,8.0,1.0,phase_2,go,150.0,150.0,1.0,,,,,,,,,green,cross
0.0,7.0,3.0,1.0,6.0,6.0,452.2066689996791,8.0,1.0,phase_2,go,150.0,150.0,1.0,,,,,,,,,magenta,hexagon
0.0,6.0,2.0,1.0,6.0,6.0,433.0939399997078,8.0,1.0,phase_2,stop,150.0,150.0,3.0,,,,,,,,,blue,diamond
0.0,5.0,1.0,1.0,6.0,6.0,439.7916940006325,8.0,1.0,phase_2,stop,150.0,100.0,3.0,,,,,,,,,orange,square
0.0,4.0,4.0,0.0,6.0,6.0,526.2717049999992,8.0,1.0,phase_2,go,150.0,50.0,1.0,,,,,,,,,yellow,circle
0.0,2.0,2.0,0.0,5.0,5.0,449.3661469996368,8.0,1.0,phase_2,go,150.0,50.0,1.0,,,,,,,,,gray,triangle
0.0,5.0,1.0,1.0,5.0,0.0,0.0,8.0,1.0,phase_2,stop,150.0,50.0,4.0,,,,,,,,,orange,square
0.0,2.0,2.0,0.0,6.0,6.0,477.9630850007379,8.0,1.0,phase_2,go,200.0,50.0,1.0,,,,,,,,,gray,triangle
0.0,7.0,3.0,1.0,5.0,0.0,0.0,8.0,1.0,phase_2,stop,200.0,50.0,4.0,,,,,,,,,magenta,hexagon
0.0,1.0,1.0,0.0,6.0,6.0,544.4461200004298,8.0,1.0,phase_2,go,250.0,50.0,1.0,,,,,,,,,green,cross
0.0,7.0,3.0,1.0,6.0,0.0,0.0,8.0,1.0,phase_2,stop,250.0,50.0,4.0,,,,,,,,,magenta,hexagon
0.0,3.0,3.0,0.0,5.0,5.0,384.7710740001275,8.0,1.0,phase_2,go,250.0,100.0,1.0,,,,,,,,,white,flipped triangle
0.0,3.0,3.0,0.0,6.0,6.0,486.4259309997578,8.0,1.0,phase_2,go,250.0,100.0,1.0,,,,,,,,,white,flipped triangle
0.0,2.0,2.0,0.0,6.0,6.0,506.4280990000043,8.0,1.0,phase_2,go,250.0,100.0,1.0,,,,,,,,,gray,triangle
0.0,3.0,3.0,0.0,5.0,5.0,506.8808629994237,8.0,1.0,phase_2,go,250.0,100.0,1.0,,,,,,,,,white,flipped triangle
0.0,7.0,3.0,1.0,6.0,0.0,0.0,8.0,1.0,phase_2,stop,250.0,100.0,4.0,,,,,,,,,magenta,hexagon
0.0,1.0,1.0,0.0,5.0,5.0,356.7980019997776,8.0,1.0,phase_2,go,250.0,150.0,1.0,,,,,,,,,green,cross
0.0,1.0,1.0,0.0,6.0,6.0,488.3604090000517,8.0,1.0,phase_2,go,250.0,150.0,1.0,,,,,,,,,green,cross
0.0,6.0,2.0,1.0,5.0,5.0,371.7948690000412,8.0,1.0,phase_2,stop,250.0,150.0,3.0,,,,,,,,,blue,diamond
0.0,2.0,2.0,0.0,5.0,5.0,473.790452000685,8.0,1.0,phase_2,go,200.0,150.0,1.0,,,,,,,,,gray,triangle
0.0,4.0,4.0,0.0,6.0,6.0,478.2538490007937,8.0,1.0,phase_2,go,200.0,150.0,1.0,,,,,,,,,yellow,circle
0.0,8.0,4.0,1.0,5.0,0.0,0.0,8.0,1.0,phase_2,stop,200.0,150.0,4.0,,,,,,,,,cyan,I
0.0,6.0,2.0,1.0,5.0,5.0,459.7168290001718,8.0,1.0,phase_2,stop,250.0,150.0,3.0,,,,,,,,,blue,diamond
0.0,7.0,3.0,1.0,5.0,0.0,0.0,8.0,1.0,phase_2,stop,200.0,150.0,4.0,,,,,,,,,magenta,hexagon
0.0,8.0,4.0,1.0,5.0,5.0,543.2511649996741,8.0,1.0,phase_2,go,250.0,150.0,1.0,,,,,,,,,cyan,I
0.0,3.0,3.0,0.0,5.0,5.0,721.1560790001386,8.0,1.0,phase_2,go,250.0,150.0,1.0,,,,,,,,,white,flipped triangle
0.0,5.0,1.0,1.0,6.0,6.0,422.5075489994196,8.0,1.0,phase_2,go,250.0,150.0,1.0,,,,,,,,,orange,square
0.0,5.0,1.0,1.0,5.0,5.0,423.1612169996879,8.0,1.0,phase_2,stop,250.0,150.0,3.0,,,,,,,,,orange,square
0.0,5.0,1.0,1.0,5.0,5.0,366.7115670004932,8.0,1.0,phase_2,stop,200.0,150.0,3.0,,,,,,,,,orange,square
0.0,3.0,3.0,0.0,6.0,6.0,485.9469990005891,8.0,1.0,phase_2,go,150.0,150.0,1.0,,,,,,,,,white,flipped triangle
0.0,5.0,1.0,1.0,7.0,1.0,3937.226248000115,1.0,1.0,phase_3,,,,,576.0,3.0,576.0,1152.0,384.0,192.0,960.0,768.0,orange,square
0.0,6.0,2.0,1.0,7.0,5.0,2808.1387399997766,1.0,1.0,phase_3,,,,,810.0,6.0,540.0,270.0,405.0,675.0,810.0,135.0,blue,diamond
0.0,8.0,4.0,1.0,7.0,1.0,3498.2544619997498,1.0,1.0,phase_3,,,,,692.0,4.0,692.0,173.0,1038.0,519.0,346.0,865.0,cyan,I
0.0,8.0,4.0,1.0,7.0,2.0,923.447082000166,1.0,1.0,phase_3,,,,,405.0,3.0,810.0,405.0,135.0,540.0,270.0,675.0,cyan,I
0.0,8.0,4.0,1.0,7.0,4.0,1800.2426490002108,1.0,1.0,phase_3,,,,,580.0,5.0,464.0,116.0,232.0,580.0,348.0,696.0,cyan,I
0.0,4.0,4.0,0.0,7.0,3.0,2603.533663999769,1.0,1.0,phase_3,,,,,348.0,3.0,232.0,464.0,348.0,116.0,696.0,580.0,yellow,circle
0.0,2.0,2.0,0.0,7.0,5.0,1968.335057999866,1.0,1.0,phase_3,,,,,865.0,5.0,692.0,346.0,1038.0,173.0,865.0,519.0,gray,triangle
0.0,7.0,3.0,1.0,7.0,4.0,2744.5262999999613,1.0,1.0,phase_3,,,,,696.0,6.0,348.0,464.0,116.0,696.0,580.0,232.0,magenta,hexagon
0.0,6.0,2.0,1.0,7.0,2.0,2591.890374000286,1.0,1.0,phase_3,,,,,348.0,3.0,116.0,348.0,464.0,580.0,232.0,696.0,blue,diamond
0.0,1.0,1.0,0.0,7.0,3.0,2220.652455999698,1.0,1.0,phase_3,,,,,616.0,4.0,770.0,462.0,616.0,924.0,154.0,308.0,green,cross
0.0,3.0,3.0,0.0,7.0,4.0,631.7057579999528,1.0,1.0,phase_3,,,,,692.0,4.0,519.0,865.0,173.0,692.0,1038.0,346.0,white,flipped triangle
0.0,7.0,3.0,1.0,7.0,1.0,1969.4076209998457,1.0,1.0,phase_3,,,,,810.0,6.0,810.0,135.0,270.0,540.0,675.0,405.0,magenta,hexagon
0.0,4.0,4.0,0.0,7.0,5.0,1659.7835009997652,1.0,1.0,phase_3,,,,,540.0,4.0,810.0,135.0,405.0,675.0,540.0,270.0,yellow,circle
0.0,6.0,2.0,1.0,7.0,1.0,3908.8023620006425,1.0,1.0,phase_3,,,,,346.0,2.0,346.0,173.0,692.0,519.0,1038.0,865.0,blue,diamond
0.0,5.0,1.0,1.0,7.0,4.0,1396.709636000196,1.0,1.0,phase_3,,,,,308.0,2.0,154.0,616.0,770.0,308.0,924.0,462.0,orange,square
0.0,6.0,2.0,1.0,7.0,3.0,4351.030504999471,1.0,1.0,phase_3,,,,,960.0,5.0,384.0,192.0,960.0,576.0,1152.0,768.0,blue,diamond
0.0,4.0,4.0,0.0,7.0,6.0,2365.3726729999107,1.0,1.0,phase_3,,,,,576.0,3.0,1152.0,192.0,960.0,384.0,768.0,576.0,yellow,circle
0.0,3.0,3.0,0.0,7.0,4.0,2446.5897820000464,1.0,1.0,phase_3,,,,,270.0,2.0,810.0,405.0,540.0,270.0,675.0,135.0,white,flipped triangle
0.0,5.0,1.0,1.0,7.0,2.0,3351.945462999538,1.0,1.0,phase_3,,,,,576.0,3.0,768.0,576.0,960.0,384.0,1152.0,192.0,orange,square
0.0,8.0,4.0,1.0,7.0,3.0,1962.976372000412,1.0,1.0,phase_3,,,,,865.0,5.0,346.0,1038.0,865.0,692.0,519.0,173.0,cyan,I
0.0,7.0,3.0,1.0,7.0,3.0,2377.473853999618,2.0,1.0,phase_3,,,,,692.0,4.0,173.0,865.0,692.0,346.0,1038.0,519.0,magenta,hexagon
0.0,5.0,1.0,1.0,7.0,4.0,1828.3767379998608,2.0,1.0,phase_3,,,,,675.0,5.0,540.0,810.0,270.0,675.0,405.0,135.0,orange,square
0.0,3.0,3.0,0.0,7.0,5.0,1711.132133999854,2.0,1.0,phase_3,,,,,192.0,1.0,960.0,384.0,768.0,576.0,192.0,1152.0,white,flipped triangle
0.0,5.0,1.0,1.0,7.0,1.0,3534.6630739995817,2.0,1.0,phase_3,,,,,770.0,5.0,770.0,154.0,924.0,308.0,462.0,616.0,orange,square
0.0,8.0,4.0,1.0,7.0,1.0,2255.288659999678,2.0,1.0,phase_3,,,,,1152.0,6.0,1152.0,576.0,192.0,384.0,768.0,960.0,cyan,I
0.0,4.0,4.0,0.0,7.0,5.0,1604.3681279998054,2.0,1.0,phase_3,,,,,462.0,3.0,154.0,770.0,924.0,308.0,462.0,616.0,yellow,circle
0.0,4.0,4.0,0.0,7.0,1.0,2499.4048100006694,2.0,1.0,phase_3,,,,,308.0,2.0,308.0,924.0,616.0,154.0,462.0,770.0,yellow,circle
0.0,3.0,3.0,0.0,7.0,1.0,2304.7463630000493,2.0,1.0,phase_3,,,,,135.0,1.0,135.0,405.0,540.0,675.0,270.0,810.0,white,flipped triangle
0.0,3.0,3.0,0.0,7.0,3.0,1836.5014809996865,2.0,1.0,phase_3,,,,,154.0,1.0,770.0,308.0,154.0,616.0,924.0,462.0,white,flipped triangle
0.0,1.0,1.0,0.0,7.0,3.0,1711.5051799992216,2.0,1.0,phase_3,,,,,692.0,4.0,173.0,1038.0,692.0,865.0,519.0,346.0,green,cross
0.0,5.0,1.0,1.0,7.0,1.0,2955.658413000492,2.0,1.0,phase_3,,,,,865.0,5.0,865.0,692.0,1038.0,346.0,519.0,173.0,orange,square
0.0,5.0,1.0,1.0,7.0,2.0,3498.201046999384,2.0,1.0,phase_3,,,,,692.0,4.0,519.0,692.0,865.0,1038.0,173.0,346.0,orange,square
0.0,2.0,2.0,0.0,7.0,2.0,1746.8012489998728,2.0,1.0,phase_3,,,,,270.0,2.0,675.0,270.0,540.0,810.0,405.0,135.0,gray,triangle
0.0,6.0,2.0,1.0,7.0,6.0,2041.3945919999605,2.0,1.0,phase_3,,,,,692.0,4.0,519.0,173.0,346.0,1038.0,865.0,692.0,blue,diamond
0.0,2.0,2.0,0.0,7.0,5.0,3231.9542780005577,2.0,1.0,phase_3,,,,,384.0,2.0,768.0,960.0,192.0,576.0,384.0,1152.0,gray,triangle
0.0,2.0,2.0,0.0,7.0,2.0,2181.698087999393,2.0,1.0,phase_3,,,,,308.0,2.0,770.0,308.0,154.0,616.0,462.0,924.0,gray,triangle
0.0,4.0,4.0,0.0,7.0,1.0,2877.9008199999225,2.0,1.0,phase_3,,,,,865.0,5.0,865.0,692.0,519.0,1038.0,346.0,173.0,yellow,circle
0.0,2.0,2.0,0.0,7.0,2.0,2889.6716919998653,2.0,1.0,phase_3,,,,,348.0,3.0,580.0,348.0,116.0,232.0,696.0,464.0,gray,triangle
0.0,4.0,4.0,0.0,7.0,5.0,2044.9758390004722,2.0,1.0,phase_3,,,,,768.0,4.0,960.0,1152.0,192.0,384.0,768.0,576.0,yellow,circle
0.0,1.0,1.0,0.0,7.0,4.0,3945.1257959999566,2.0,1.0,phase_3,,,,,580.0,5.0,232.0,464.0,348.0,580.0,116.0,696.0,green,cross
0.0,6.0,2.0,1.0,7.0,1.0,2222.7676040001825,3.0,1.0,phase_3,,,,,616.0,4.0,616.0,924.0,308.0,154.0,770.0,462.0,blue,diamond
0.0,7.0,3.0,1.0,7.0,6.0,2679.773340999418,3.0,1.0,phase_3,,,,,810.0,6.0,540.0,675.0,405.0,270.0,135.0,810.0,magenta,hexagon
0.0,8.0,4.0,1.0,7.0,1.0,1947.0439059996352,3.0,1.0,phase_3,,,,,770.0,5.0,770.0,308.0,154.0,616.0,924.0,462.0,cyan,I
0.0,8.0,4.0,1.0,7.0,5.0,2552.7296809996187,3.0,1.0,phase_3,,,,,770.0,5.0,924.0,308.0,462.0,616.0,770.0,154.0,cyan,I
0.0,1.0,1.0,0.0,7.0,6.0,1263.0809880001834,3.0,1.0,phase_3,,,,,580.0,5.0,696.0,464.0,232.0,348.0,116.0,580.0,green,cross
0.0,4.0,4.0,0.0,7.0,4.0,4161.600680000447,3.0,1.0,phase_3,,,,,580.0,5.0,116.0,696.0,348.0,580.0,232.0,464.0,yellow,circle
0.0,5.0,1.0,1.0,7.0,5.0,3456.4454729998038,3.0,1.0,phase_3,,,,,405.0,3.0,540.0,675.0,135.0,810.0,405.0,270.0,orange,square
0.0,8.0,4.0,1.0,7.0,1.0,3056.1074580000422,3.0,1.0,phase_3,,,,,580.0,5.0,580.0,232.0,696.0,464.0,116.0,348.0,cyan,I
0.0,3.0,3.0,0.0,7.0,4.0,2053.753891999804,3.0,1.0,phase_3,,,,,116.0,1.0,232.0,696.0,464.0,116.0,348.0,580.0,white,flipped triangle
0.0,5.0,1.0,1.0,7.0,5.0,2616.8141979997017,3.0,1.0,phase_3,,,,,464.0,4.0,348.0,116.0,580.0,232.0,464.0,696.0,orange,square
0.0,3.0,3.0,0.0,7.0,1.0,1306.6194330003782,3.0,1.0,phase_3,,,,,173.0,1.0,173.0,692.0,1038.0,519.0,865.0,346.0,white,flipped triangle
0.0,3.0,3.0,0.0,7.0,5.0,1675.3805549997196,3.0,1.0,phase_3,,,,,116.0,1.0,696.0,348.0,580.0,464.0,116.0,232.0,white,flipped triangle
0.0,8.0,4.0,1.0,7.0,2.0,1329.085422999924,3.0,1.0,phase_3,,,,,192.0,1.0,960.0,192.0,1152.0,576.0,768.0,384.0,cyan,I
0.0,1.0,1.0,0.0,7.0,3.0,3003.898214999936,3.0,1.0,phase_3,,,,,810.0,6.0,540.0,675.0,810.0,405.0,270.0,135.0,green,cross
0.0,2.0,2.0,0.0,7.0,6.0,4703.971368000566,3.0,1.0,phase_3,,,,,154.0,1.0,462.0,308.0,770.0,924.0,616.0,154.0,gray,triangle
0.0,1.0,1.0,0.0,7.0,4.0,2156.5511810003954,3.0,1.0,phase_3,,,,,1152.0,6.0,192.0,576.0,960.0,1152.0,384.0,768.0,green,cross
0.0,3.0,3.0,0.0,7.0,3.0,2597.0550660003937,3.0,1.0,phase_3,,,,,192.0,1.0,384.0,576.0,192.0,960.0,768.0,1152.0,white,flipped triangle
0.0,1.0,1.0,0.0,7.0,1.0,2249.1442239997923,3.0,1.0,phase_3,,,,,810.0,6.0,810.0,135.0,675.0,270.0,540.0,405.0,green,cross
0.0,7.0,3.0,1.0,7.0,5.0,2737.330309999379,3.0,1.0,phase_3,,,,,616.0,4.0,770.0,462.0,154.0,308.0,616.0,924.0,magenta,hexagon
0.0,7.0,3.0,1.0,7.0,3.0,1720.7544799994141,3.0,1.0,phase_3,,,,,768.0,4.0,576.0,1152.0,768.0,192.0,384.0,960.0,magenta,hexagon
0.0,4.0,4.0,0.0,7.0,2.0,1599.4252249993224,4.0,1.0,phase_3,,,,,1038.0,6.0,865.0,1038.0,173.0,692.0,346.0,519.0,yellow,circle
0.0,6.0,2.0,1.0,7.0,2.0,2751.2043999995512,4.0,1.0,phase_3,,,,,696.0,6.0,580.0,696.0,232.0,348.0,116.0,464.0,blue,diamond
0.0,7.0,3.0,1.0,7.0,5.0,1802.1557100000791,4.0,1.0,phase_3,,,,,865.0,5.0,346.0,173.0,519.0,1038.0,865.0,692.0,magenta,hexagon
0.0,2.0,2.0,0.0,7.0,2.0,1218.5141599993583,4.0,1.0,phase_3,,,,,192.0,1.0,768.0,192.0,384.0,960.0,1152.0,576.0,gray,triangle
0.0,3.0,3.0,0.0,7.0,3.0,1801.3304129999597,4.0,1.0,phase_3,,,,,154.0,1.0,616.0,770.0,154.0,308.0,924.0,462.0,white,flipped triangle
0.0,7.0,3.0,1.0,7.0,2.0,3013.959576000161,4.0,1.0,phase_3,,,,,616.0,4.0,770.0,616.0,924.0,308.0,462.0,154.0,magenta,hexagon
0.0,6.0,2.0,1.0,7.0,5.0,2911.734289999913,4.0,1.0,phase_3,,,,,462.0,3.0,308.0,616.0,924.0,154.0,462.0,770.0,blue,diamond
0.0,2.0,2.0,0.0,7.0,6.0,2274.8511520003376,4.0,1.0,phase_3,,,,,135.0,1.0,405.0,540.0,270.0,675.0,810.0,135.0,gray,triangle
0.0,8.0,4.0,1.0,7.0,1.0,1448.7718590007717,4.0,1.0,phase_3,,,,,675.0,5.0,675.0,540.0,810.0,405.0,135.0,270.0,cyan,I
0.0,1.0,1.0,0.0,7.0,3.0,2348.345983999934,4.0,1.0,phase_3,,,,,924.0,6.0,462.0,154.0,924.0,770.0,308.0,616.0,green,cross
0.0,7.0,3.0,1.0,7.0,2.0,1610.1112440001089,4.0,1.0,phase_3,,,,,580.0,5.0,116.0,580.0,232.0,464.0,348.0,696.0,magenta,hexagon
0.0,6.0,2.0,1.0,7.0,1.0,2881.678784000542,4.0,1.0,phase_3,,,,,576.0,3.0,576.0,1152.0,960.0,192.0,384.0,768.0,blue,diamond
0.0,7.0,3.0,1.0,7.0,4.0,2043.9711930002886,4.0,1.0,phase_3,,,,,768.0,4.0,1152.0,192.0,960.0,768.0,576.0,384.0,magenta,hexagon
0.0,5.0,1.0,1.0,7.0,5.0,1537.9916820002109,4.0,1.0,phase_3,,,,,580.0,5.0,348.0,116.0,232.0,464.0,580.0,696.0,orange,square
0.0,2.0,2.0,0.0,7.0,2.0,1170.174502000009,4.0,1.0,phase_3,,,,,116.0,1.0,580.0,116.0,464.0,232.0,348.0,696.0,gray,triangle
0.0,4.0,4.0,0.0,7.0,3.0,988.3539530001144,4.0,1.0,phase_3,,,,,810.0,6.0,135.0,405.0,810.0,540.0,675.0,270.0,yellow,circle
0.0,1.0,1.0,0.0,7.0,1.0,1779.566397999588,4.0,1.0,phase_3,,,,,865.0,5.0,865.0,173.0,1038.0,519.0,346.0,692.0,green,cross
0.0,6.0,2.0,1.0,7.0,3.0,3976.365840999279,4.0,1.0,phase_3,,,,,675.0,5.0,270.0,810.0,675.0,405.0,135.0,540.0,blue,diamond
0.0,1.0,1.0,0.0,7.0,6.0,1708.4932379993916,4.0,1.0,phase_3,,,,,576.0,3.0,960.0,768.0,1152.0,192.0,384.0,576.0,green,cross
0.0,2.0,2.0,0.0,7.0,3.0,2940.7074360005936,4.0,1.0,phase_3,,,,,519.0,3.0,865.0,173.0,519.0,1038.0,346.0,692.0,gray,triangle
