raw_reward_magnitude,stim_reward,stepwise_reward_magnitude,paired_with_stopping,stim_location,response,reaction_time,block,num_trial_presentations,which_phase,stop_signal_trial_type,left_SSD,right_SSD,accuracy,chosen_bidding_amount,chosen_bidding_level,possible_bid_1,possible_bid_2,possible_bid_3,possible_bid_4,possible_bid_5,possible_bid_6,color_text,shape_text
0.0,4.0,0.0,0.0,1.0,1.0,372.005237999474,1.0,1.0,phase_1,,,,,,,,,,,,,blue,circle
0.0,2.0,0.0,0.0,1.0,1.0,416.9181529996422,1.0,1.0,phase_1,,,,,,,,,,,,,green,diamond
303.0,6.0,1.0,1.0,2.0,2.0,430.9026880000601,1.0,1.0,phase_1,,,,,,,,,,,,,orange,triangle
159.0,1.0,0.5,0.0,4.0,4.0,335.3890019989194,1.0,1.0,phase_1,,,,,,,,,,,,,magenta,flipped triangle
1293.0,4.0,4.0,0.0,2.0,2.0,337.0925389990589,1.0,1.0,phase_1,,,,,,,,,,,,,blue,circle
1304.0,8.0,4.0,1.0,1.0,1.0,473.2933430004777,1.0,2.0,phase_1,,,,,,,,,,,,,yellow,square
671.0,7.0,2.0,1.0,2.0,2.0,381.200058000104,1.0,1.0,phase_1,,,,,,,,,,,,,white,hexagon
0.0,1.0,0.0,0.0,2.0,2.0,353.8314039997203,1.0,1.0,phase_1,,,,,,,,,,,,,magenta,flipped triangle
345.0,6.0,1.0,1.0,3.0,3.0,351.2164120002126,1.0,1.0,phase_1,,,,,,,,,,,,,orange,triangle
153.0,5.0,0.5,1.0,4.0,4.0,333.5727899993799,1.0,1.0,phase_1,,,,,,,,,,,,,gray,cross
138.0,5.0,0.5,1.0,1.0,1.0,390.659136000977,1.0,1.0,phase_1,,,,,,,,,,,,,gray,cross
172.0,1.0,0.5,0.0,1.0,1.0,418.3561120007653,1.0,2.0,phase_1,,,,,,,,,,,,,magenta,flipped triangle
1286.0,4.0,4.0,0.0,2.0,2.0,334.888793000573,1.0,1.0,phase_1,,,,,,,,,,,,,blue,circle
636.0,3.0,2.0,0.0,1.0,1.0,436.6164210005081,1.0,1.0,phase_1,,,,,,,,,,,,,cyan,I
1280.0,4.0,4.0,0.0,1.0,1.0,389.9561690013797,1.0,1.0,phase_1,,,,,,,,,,,,,blue,circle
143.0,1.0,0.5,0.0,4.0,4.0,305.4407800009358,1.0,1.0,phase_1,,,,,,,,,,,,,magenta,flipped triangle
322.0,6.0,1.0,1.0,1.0,1.0,335.5685240003367,1.0,1.0,phase_1,,,,,,,,,,,,,orange,triangle
154.0,5.0,0.5,1.0,1.0,1.0,315.7698110007914,1.0,1.0,phase_1,,,,,,,,,,,,,gray,cross
309.0,6.0,1.0,1.0,4.0,4.0,297.9340639994916,1.0,1.0,phase_1,,,,,,,,,,,,,orange,triangle
673.0,3.0,2.0,0.0,2.0,2.0,380.3332610004872,1.0,2.0,phase_1,,,,,,,,,,,,,cyan,I
1323.0,8.0,4.0,1.0,4.0,4.0,390.4873190003854,1.0,1.0,phase_1,,,,,,,,,,,,,yellow,square
1293.0,8.0,4.0,1.0,3.0,3.0,298.4227719989576,1.0,1.0,phase_1,,,,,,,,,,,,,yellow,square
345.0,2.0,1.0,0.0,4.0,4.0,296.9837999989977,1.0,1.0,phase_1,,,,,,,,,,,,,green,diamond
640.0,7.0,2.0,1.0,3.0,3.0,371.4629619989864,1.0,1.0,phase_1,,,,,,,,,,,,,white,hexagon
158.0,1.0,0.5,0.0,2.0,2.0,296.1740179998742,1.0,1.0,phase_1,,,,,,,,,,,,,magenta,flipped triangle
673.0,7.0,2.0,1.0,3.0,3.0,269.6816670013504,1.0,1.0,phase_1,,,,,,,,,,,,,white,hexagon
1287.0,4.0,4.0,0.0,3.0,3.0,296.9694280000112,1.0,1.0,phase_1,,,,,,,,,,,,,blue,circle
631.0,3.0,2.0,0.0,4.0,4.0,288.40123900045,1.0,1.0,phase_1,,,,,,,,,,,,,cyan,I
1277.0,4.0,4.0,0.0,4.0,4.0,690.0349240004289,1.0,1.0,phase_1,,,,,,,,,,,,,blue,circle
334.0,2.0,1.0,0.0,1.0,1.0,427.4489609997545,1.0,2.0,phase_1,,,,,,,,,,,,,green,diamond
1322.0,8.0,4.0,1.0,2.0,2.0,360.4999799990764,1.0,1.0,phase_1,,,,,,,,,,,,,yellow,square
646.0,3.0,2.0,0.0,3.0,3.0,307.9480880005576,1.0,1.0,phase_1,,,,,,,,,,,,,cyan,I
646.0,3.0,2.0,0.0,1.0,1.0,490.995517000556,1.0,1.0,phase_1,,,,,,,,,,,,,cyan,I
652.0,3.0,2.0,0.0,4.0,4.0,371.6875219997746,1.0,1.0,phase_1,,,,,,,,,,,,,cyan,I
667.0,7.0,2.0,1.0,1.0,1.0,437.5044130010792,1.0,1.0,phase_1,,,,,,,,,,,,,white,hexagon
1311.0,4.0,4.0,0.0,3.0,3.0,343.4563569990132,1.0,1.0,phase_1,,,,,,,,,,,,,blue,circle
313.0,2.0,1.0,0.0,1.0,1.0,398.785590999978,1.0,1.0,phase_1,,,,,,,,,,,,,green,diamond
186.0,5.0,0.5,1.0,1.0,1.0,389.1140960004122,1.0,1.0,phase_1,,,,,,,,,,,,,gray,cross
0.0,1.0,0.0,0.0,3.0,3.0,344.4356990003143,1.0,1.0,phase_1,,,,,,,,,,,,,magenta,flipped triangle
138.0,1.0,0.5,0.0,3.0,3.0,380.8493069991527,1.0,1.0,phase_1,,,,,,,,,,,,,magenta,flipped triangle
0.0,8.0,0.0,1.0,1.0,1.0,483.6824720005097,1.0,2.0,phase_1,,,,,,,,,,,,,yellow,square
658.0,3.0,2.0,0.0,4.0,4.0,380.6950859998323,1.0,1.0,phase_1,,,,,,,,,,,,,cyan,I
321.0,2.0,1.0,0.0,2.0,2.0,361.6060040003503,1.0,1.0,phase_1,,,,,,,,,,,,,green,diamond
673.0,7.0,2.0,1.0,1.0,1.0,428.61568599983,1.0,1.0,phase_1,,,,,,,,,,,,,white,hexagon
631.0,3.0,2.0,0.0,3.0,3.0,353.0252410000685,1.0,1.0,phase_1,,,,,,,,,,,,,cyan,I
671.0,3.0,2.0,0.0,3.0,3.0,352.9102390002663,1.0,1.0,phase_1,,,,,,,,,,,,,cyan,I
1280.0,8.0,4.0,1.0,1.0,1.0,465.8869349987071,1.0,1.0,phase_1,,,,,,,,,,,,,yellow,square
632.0,3.0,2.0,0.0,3.0,3.0,335.8440279989736,1.0,1.0,phase_1,,,,,,,,,,,,,cyan,I
1325.0,8.0,4.0,1.0,4.0,4.0,307.9904400001396,1.0,1.0,phase_1,,,,,,,,,,,,,yellow,square
170.0,5.0,0.5,1.0,3.0,3.0,344.3624650008132,1.0,1.0,phase_1,,,,,,,,,,,,,gray,cross
170.0,5.0,0.5,1.0,1.0,1.0,408.7732669995603,1.0,1.0,phase_1,,,,,,,,,,,,,gray,cross
627.0,7.0,2.0,1.0,4.0,4.0,398.8282280006388,1.0,1.0,phase_1,,,,,,,,,,,,,white,hexagon
0.0,8.0,0.0,1.0,1.0,1.0,482.1542030003911,1.0,1.0,phase_1,,,,,,,,,,,,,yellow,square
0.0,2.0,0.0,0.0,4.0,4.0,380.2602350006054,1.0,1.0,phase_1,,,,,,,,,,,,,green,diamond
0.0,5.0,0.0,1.0,1.0,1.0,353.7136889990506,1.0,1.0,phase_1,,,,,,,,,,,,,gray,cross
648.0,7.0,2.0,1.0,2.0,2.0,565.9788780012605,1.0,1.0,phase_1,,,,,,,,,,,,,white,hexagon
666.0,7.0,2.0,1.0,2.0,2.0,640.639805000319,1.0,1.0,phase_1,,,,,,,,,,,,,white,hexagon
1282.0,8.0,4.0,1.0,2.0,2.0,501.0190209995926,1.0,1.0,phase_1,,,,,,,,,,,,,yellow,square
1306.0,8.0,4.0,1.0,4.0,4.0,409.883231999629,1.0,1.0,phase_1,,,,,,,,,,,,,yellow,square
639.0,3.0,2.0,0.0,4.0,4.0,439.9015889994189,1.0,1.0,phase_1,,,,,,,,,,,,,cyan,I
140.0,1.0,0.5,0.0,4.0,4.0,419.1382039989548,1.0,1.0,phase_1,,,,,,,,,,,,,magenta,flipped triangle
1277.0,4.0,4.0,0.0,2.0,2.0,519.1812769990065,1.0,1.0,phase_1,,,,,,,,,,,,,blue,circle
172.0,5.0,0.5,1.0,3.0,3.0,586.476415001016,1.0,1.0,phase_1,,,,,,,,,,,,,gray,cross
1323.0,8.0,4.0,1.0,2.0,2.0,503.0041709997022,1.0,1.0,phase_1,,,,,,,,,,,,,yellow,square
1282.0,4.0,4.0,0.0,4.0,4.0,410.0427299999865,1.0,1.0,phase_1,,,,,,,,,,,,,blue,circle
165.0,5.0,0.5,1.0,3.0,3.0,539.3419299998641,1.0,1.0,phase_1,,,,,,,,,,,,,gray,cross
662.0,3.0,2.0,0.0,1.0,1.0,676.9047930010856,1.0,1.0,phase_1,,,,,,,,,,,,,cyan,I
668.0,3.0,2.0,0.0,1.0,1.0,510.8517370008485,1.0,1.0,phase_1,,,,,,,,,,,,,cyan,I
334.0,6.0,1.0,1.0,4.0,4.0,410.3079550004622,1.0,1.0,phase_1,,,,,,,,,,,,,orange,triangle
313.0,2.0,1.0,0.0,2.0,2.0,438.4556889999658,1.0,1.0,phase_1,,,,,,,,,,,,,green,diamond
0.0,7.0,0.0,1.0,3.0,3.0,391.9910160002473,1.0,1.0,phase_1,,,,,,,,,,,,,white,hexagon
312.0,2.0,1.0,0.0,2.0,2.0,426.0108329999639,1.0,1.0,phase_1,,,,,,,,,,,,,green,diamond
182.0,1.0,0.5,0.0,4.0,4.0,381.03500500074,1.0,1.0,phase_1,,,,,,,,,,,,,magenta,flipped triangle
1288.0,4.0,4.0,0.0,4.0,4.0,465.693297001053,1.0,1.0,phase_1,,,,,,,,,,,,,blue,circle
1315.0,4.0,4.0,0.0,4.0,4.0,576.3385579994065,1.0,1.0,phase_1,,,,,,,,,,,,,blue,circle
0.0,4.0,0.0,0.0,4.0,4.0,613.1662360003247,1.0,1.0,phase_1,,,,,,,,,,,,,blue,circle
343.0,2.0,1.0,0.0,3.0,3.0,407.8994189985678,1.0,1.0,phase_1,,,,,,,,,,,,,green,diamond
0.0,1.0,0.0,0.0,1.0,1.0,500.49864100037667,1.0,1.0,phase_1,,,,,,,,,,,,,magenta,flipped triangle
0.0,6.0,0.0,1.0,3.0,3.0,361.4315369995893,1.0,1.0,phase_1,,,,,,,,,,,,,orange,triangle
0.0,6.0,0.0,1.0,1.0,1.0,531.5220659995248,1.0,1.0,phase_1,,,,,,,,,,,,,orange,triangle
322.0,2.0,1.0,0.0,2.0,2.0,380.9676159999071,1.0,1.0,phase_1,,,,,,,,,,,,,green,diamond
1295.0,4.0,4.0,0.0,2.0,2.0,585.6464130010863,1.0,1.0,phase_1,,,,,,,,,,,,,blue,circle
1311.0,4.0,4.0,0.0,2.0,2.0,519.7628120004083,1.0,1.0,phase_1,,,,,,,,,,,,,blue,circle
667.0,3.0,2.0,0.0,3.0,3.0,427.7037379997637,1.0,1.0,phase_1,,,,,,,,,,,,,cyan,I
164.0,1.0,0.5,0.0,2.0,2.0,548.683651999454,1.0,1.0,phase_1,,,,,,,,,,,,,magenta,flipped triangle
1282.0,4.0,4.0,0.0,1.0,1.0,511.2961959985114,1.0,1.0,phase_1,,,,,,,,,,,,,blue,circle
626.0,3.0,2.0,0.0,2.0,2.0,463.8202259993704,1.0,1.0,phase_1,,,,,,,,,,,,,cyan,I
0.0,2.0,0.0,0.0,4.0,4.0,427.9085989983286,1.0,1.0,phase_1,,,,,,,,,,,,,green,diamond
1324.0,8.0,4.0,1.0,1.0,1.0,486.7415259996051,1.0,1.0,phase_1,,,,,,,,,,,,,yellow,square
170.0,1.0,0.5,0.0,3.0,3.0,390.7492819998879,1.0,1.0,phase_1,,,,,,,,,,,,,magenta,flipped triangle
0.0,6.0,0.0,1.0,2.0,2.0,362.4854429999686,1.0,1.0,phase_1,,,,,,,,,,,,,orange,triangle
1277.0,8.0,4.0,1.0,2.0,2.0,399.6119010007533,1.0,1.0,phase_1,,,,,,,,,,,,,yellow,square
0.0,1.0,0.0,0.0,2.0,2.0,353.9094090010621,1.0,1.0,phase_1,,,,,,,,,,,,,magenta,flipped triangle
153.0,5.0,0.5,1.0,1.0,1.0,484.638180998445,1.0,1.0,phase_1,,,,,,,,,,,,,gray,cross
173.0,1.0,0.5,0.0,4.0,4.0,390.799020000486,1.0,1.0,phase_1,,,,,,,,,,,,,magenta,flipped triangle
0.0,7.0,0.0,1.0,3.0,3.0,457.9950520001148,1.0,1.0,phase_1,,,,,,,,,,,,,white,hexagon
348.0,6.0,1.0,1.0,2.0,2.0,555.8065920013178,1.0,1.0,phase_1,,,,,,,,,,,,,orange,triangle
0.0,5.0,0.0,1.0,2.0,2.0,427.555153000867,1.0,1.0,phase_1,,,,,,,,,,,,,gray,cross
187.0,1.0,0.5,0.0,2.0,2.0,358.3558400005131,1.0,1.0,phase_1,,,,,,,,,,,,,magenta,flipped triangle
646.0,7.0,2.0,1.0,3.0,3.0,334.7978300007526,1.0,1.0,phase_1,,,,,,,,,,,,,white,hexagon
0.0,8.0,0.0,1.0,1.0,1.0,485.6728329996258,2.0,1.0,phase_1,,,,,,,,,,,,,yellow,square
1307.0,8.0,4.0,1.0,3.0,3.0,458.6580089999188,2.0,1.0,phase_1,,,,,,,,,,,,,yellow,square
1320.0,4.0,4.0,0.0,3.0,3.0,430.5271289995289,2.0,1.0,phase_1,,,,,,,,,,,,,blue,circle
0.0,6.0,0.0,1.0,3.0,3.0,364.1333029991074,2.0,1.0,phase_1,,,,,,,,,,,,,orange,triangle
659.0,7.0,2.0,1.0,2.0,2.0,356.7467369994119,2.0,1.0,phase_1,,,,,,,,,,,,,white,hexagon
344.0,6.0,1.0,1.0,4.0,4.0,290.4171589998441,2.0,1.0,phase_1,,,,,,,,,,,,,orange,triangle
336.0,6.0,1.0,1.0,1.0,1.0,355.6121189994883,2.0,1.0,phase_1,,,,,,,,,,,,,orange,triangle
183.0,1.0,0.5,0.0,4.0,4.0,435.1826570000412,2.0,2.0,phase_1,,,,,,,,,,,,,magenta,flipped triangle
0.0,8.0,0.0,1.0,1.0,1.0,465.1286210009857,2.0,1.0,phase_1,,,,,,,,,,,,,yellow,square
165.0,5.0,0.5,1.0,4.0,4.0,361.6152969989343,2.0,1.0,phase_1,,,,,,,,,,,,,gray,cross
306.0,2.0,1.0,0.0,1.0,1.0,324.888508001095,2.0,1.0,phase_1,,,,,,,,,,,,,green,diamond
0.0,7.0,0.0,1.0,4.0,4.0,306.4167920001637,2.0,1.0,phase_1,,,,,,,,,,,,,white,hexagon
1325.0,4.0,4.0,0.0,1.0,1.0,316.3238599991018,2.0,1.0,phase_1,,,,,,,,,,,,,blue,circle
0.0,4.0,0.0,0.0,3.0,3.0,336.263682000208,2.0,1.0,phase_1,,,,,,,,,,,,,blue,circle
642.0,3.0,2.0,0.0,1.0,1.0,455.3703359997598,2.0,1.0,phase_1,,,,,,,,,,,,,cyan,I
0.0,2.0,0.0,0.0,4.0,4.0,408.4271470001113,2.0,1.0,phase_1,,,,,,,,,,,,,green,diamond
143.0,5.0,0.5,1.0,3.0,3.0,381.2155430005077,2.0,1.0,phase_1,,,,,,,,,,,,,gray,cross
182.0,1.0,0.5,0.0,2.0,2.0,390.4984609998791,2.0,1.0,phase_1,,,,,,,,,,,,,magenta,flipped triangle
650.0,3.0,2.0,0.0,3.0,3.0,381.9909040012135,2.0,1.0,phase_1,,,,,,,,,,,,,cyan,I
166.0,5.0,0.5,1.0,3.0,3.0,410.2841989988519,2.0,1.0,phase_1,,,,,,,,,,,,,gray,cross
140.0,1.0,0.5,0.0,1.0,1.0,492.6696839993383,2.0,1.0,phase_1,,,,,,,,,,,,,magenta,flipped triangle
647.0,3.0,2.0,0.0,4.0,4.0,379.5638720002898,2.0,1.0,phase_1,,,,,,,,,,,,,cyan,I
1278.0,4.0,4.0,0.0,1.0,1.0,408.63439700115117,2.0,1.0,phase_1,,,,,,,,,,,,,blue,circle
303.0,6.0,1.0,1.0,3.0,3.0,403.1852719999733,2.0,1.0,phase_1,,,,,,,,,,,,,orange,triangle
331.0,2.0,1.0,0.0,1.0,1.0,438.669117000245,2.0,1.0,phase_1,,,,,,,,,,,,,green,diamond
309.0,6.0,1.0,1.0,1.0,1.0,436.4538689987967,2.0,1.0,phase_1,,,,,,,,,,,,,orange,triangle
0.0,3.0,0.0,0.0,4.0,4.0,372.8306399989378,2.0,1.0,phase_1,,,,,,,,,,,,,cyan,I
140.0,5.0,0.5,1.0,3.0,3.0,372.2899519998464,2.0,1.0,phase_1,,,,,,,,,,,,,gray,cross
0.0,4.0,0.0,0.0,4.0,4.0,455.3004019999207,2.0,1.0,phase_1,,,,,,,,,,,,,blue,circle
186.0,1.0,0.5,0.0,2.0,2.0,520.8830430001399,2.0,1.0,phase_1,,,,,,,,,,,,,magenta,flipped triangle
321.0,6.0,1.0,1.0,2.0,2.0,476.2926289986353,2.0,1.0,phase_1,,,,,,,,,,,,,orange,triangle
654.0,7.0,2.0,1.0,3.0,3.0,457.544720999067,2.0,1.0,phase_1,,,,,,,,,,,,,white,hexagon
0.0,1.0,0.0,0.0,3.0,3.0,457.5360230010119,2.0,1.0,phase_1,,,,,,,,,,,,,magenta,flipped triangle
659.0,3.0,2.0,0.0,1.0,1.0,530.3004529996542,2.0,1.0,phase_1,,,,,,,,,,,,,cyan,I
178.0,5.0,0.5,1.0,2.0,2.0,547.5832340016495,2.0,1.0,phase_1,,,,,,,,,,,,,gray,cross
178.0,5.0,0.5,1.0,2.0,2.0,436.6320799999812,2.0,1.0,phase_1,,,,,,,,,,,,,gray,cross
0.0,4.0,0.0,0.0,2.0,2.0,456.4895520015852,2.0,1.0,phase_1,,,,,,,,,,,,,blue,circle
0.0,6.0,0.0,1.0,4.0,4.0,438.1082119998609,2.0,1.0,phase_1,,,,,,,,,,,,,orange,triangle
313.0,6.0,1.0,1.0,1.0,1.0,511.6203220004536,2.0,1.0,phase_1,,,,,,,,,,,,,orange,triangle
1288.0,8.0,4.0,1.0,4.0,4.0,371.9512699990446,2.0,1.0,phase_1,,,,,,,,,,,,,yellow,square
315.0,6.0,1.0,1.0,1.0,1.0,454.6557479989133,2.0,1.0,phase_1,,,,,,,,,,,,,orange,triangle
638.0,3.0,2.0,0.0,2.0,2.0,426.1602240003412,2.0,1.0,phase_1,,,,,,,,,,,,,cyan,I
662.0,7.0,2.0,1.0,3.0,3.0,353.6955029994715,2.0,1.0,phase_1,,,,,,,,,,,,,white,hexagon
1315.0,8.0,4.0,1.0,2.0,2.0,449.2914479997125,2.0,1.0,phase_1,,,,,,,,,,,,,yellow,square
158.0,5.0,0.5,1.0,4.0,4.0,389.7372960000211,2.0,1.0,phase_1,,,,,,,,,,,,,gray,cross
334.0,6.0,1.0,1.0,1.0,1.0,446.9003889989835,2.0,1.0,phase_1,,,,,,,,,,,,,orange,triangle
0.0,8.0,0.0,1.0,1.0,1.0,463.7447799996153,2.0,1.0,phase_1,,,,,,,,,,,,,yellow,square
328.0,2.0,1.0,0.0,4.0,4.0,371.063734000927,2.0,1.0,phase_1,,,,,,,,,,,,,green,diamond
148.0,1.0,0.5,0.0,2.0,2.0,417.9086910007754,2.0,1.0,phase_1,,,,,,,,,,,,,magenta,flipped triangle
1298.0,8.0,4.0,1.0,4.0,4.0,381.8088669995632,2.0,1.0,phase_1,,,,,,,,,,,,,yellow,square
1311.0,8.0,4.0,1.0,4.0,4.0,399.1288069992151,2.0,1.0,phase_1,,,,,,,,,,,,,yellow,square
671.0,3.0,2.0,0.0,3.0,3.0,362.0689290000882,2.0,1.0,phase_1,,,,,,,,,,,,,cyan,I
1286.0,8.0,4.0,1.0,2.0,2.0,400.4927360001602,2.0,1.0,phase_1,,,,,,,,,,,,,yellow,square
638.0,3.0,2.0,0.0,4.0,4.0,409.8630339994997,2.0,1.0,phase_1,,,,,,,,,,,,,cyan,I
183.0,5.0,0.5,1.0,1.0,1.0,520.3810729999532,2.0,1.0,phase_1,,,,,,,,,,,,,gray,cross
178.0,1.0,0.5,0.0,3.0,3.0,418.577775999438,2.0,1.0,phase_1,,,,,,,,,,,,,magenta,flipped triangle
1324.0,4.0,4.0,0.0,2.0,2.0,390.8024659995135,2.0,1.0,phase_1,,,,,,,,,,,,,blue,circle
1299.0,4.0,4.0,0.0,4.0,4.0,361.9470759986143,2.0,1.0,phase_1,,,,,,,,,,,,,blue,circle
164.0,5.0,0.5,1.0,2.0,2.0,462.8879880001477,2.0,1.0,phase_1,,,,,,,,,,,,,gray,cross
160.0,1.0,0.5,0.0,3.0,3.0,390.0181119988701,2.0,1.0,phase_1,,,,,,,,,,,,,magenta,flipped triangle
673.0,3.0,2.0,0.0,1.0,1.0,622.6190340003086,2.0,1.0,phase_1,,,,,,,,,,,,,cyan,I
184.0,5.0,0.5,1.0,1.0,1.0,603.7407860003441,2.0,1.0,phase_1,,,,,,,,,,,,,gray,cross
1283.0,8.0,4.0,1.0,1.0,1.0,493.7990729995363,2.0,1.0,phase_1,,,,,,,,,,,,,yellow,square
673.0,7.0,2.0,1.0,2.0,2.0,428.9382490005664,2.0,1.0,phase_1,,,,,,,,,,,,,white,hexagon
667.0,7.0,2.0,1.0,4.0,4.0,343.4040070005721,2.0,1.0,phase_1,,,,,,,,,,,,,white,hexagon
626.0,7.0,2.0,1.0,4.0,4.0,389.4208029996662,2.0,1.0,phase_1,,,,,,,,,,,,,white,hexagon
0.0,1.0,0.0,0.0,1.0,1.0,493.0471219995525,2.0,1.0,phase_1,,,,,,,,,,,,,magenta,flipped triangle
160.0,1.0,0.5,0.0,2.0,2.0,418.0176890004077,2.0,1.0,phase_1,,,,,,,,,,,,,magenta,flipped triangle
1313.0,4.0,4.0,0.0,3.0,3.0,407.9666850011563,2.0,1.0,phase_1,,,,,,,,,,,,,blue,circle
307.0,2.0,1.0,0.0,3.0,3.0,380.6966829997691,2.0,1.0,phase_1,,,,,,,,,,,,,green,diamond
306.0,6.0,1.0,1.0,2.0,2.0,381.315877999441,2.0,1.0,phase_1,,,,,,,,,,,,,orange,triangle
0.0,5.0,0.0,1.0,4.0,4.0,324.4296510001732,2.0,1.0,phase_1,,,,,,,,,,,,,gray,cross
147.0,1.0,0.5,0.0,4.0,4.0,418.4764179990452,2.0,1.0,phase_1,,,,,,,,,,,,,magenta,flipped triangle
648.0,3.0,2.0,0.0,4.0,4.0,409.6591069992428,2.0,1.0,phase_1,,,,,,,,,,,,,cyan,I
1312.0,8.0,4.0,1.0,3.0,3.0,353.4728270005871,2.0,1.0,phase_1,,,,,,,,,,,,,yellow,square
323.0,6.0,1.0,1.0,3.0,3.0,398.8343250002799,2.0,1.0,phase_1,,,,,,,,,,,,,orange,triangle
0.0,1.0,0.0,0.0,2.0,2.0,380.3917180011922,2.0,1.0,phase_1,,,,,,,,,,,,,magenta,flipped triangle
0.0,7.0,0.0,1.0,2.0,2.0,418.2062439995206,2.0,1.0,phase_1,,,,,,,,,,,,,white,hexagon
1313.0,8.0,4.0,1.0,1.0,1.0,529.1093409996392,2.0,1.0,phase_1,,,,,,,,,,,,,yellow,square
182.0,5.0,0.5,1.0,2.0,2.0,446.495356000014,2.0,1.0,phase_1,,,,,,,,,,,,,gray,cross
345.0,2.0,1.0,0.0,2.0,2.0,381.2368259987124,2.0,1.0,phase_1,,,,,,,,,,,,,green,diamond
659.0,7.0,2.0,1.0,1.0,1.0,519.7954489995027,2.0,1.0,phase_1,,,,,,,,,,,,,white,hexagon
309.0,2.0,1.0,0.0,1.0,1.0,549.9219730008917,2.0,1.0,phase_1,,,,,,,,,,,,,green,diamond
313.0,2.0,1.0,0.0,1.0,1.0,409.5938509999541,2.0,1.0,phase_1,,,,,,,,,,,,,green,diamond
1300.0,8.0,4.0,1.0,2.0,2.0,382.139087001633,2.0,1.0,phase_1,,,,,,,,,,,,,yellow,square
309.0,2.0,1.0,0.0,4.0,4.0,335.1964030007366,2.0,1.0,phase_1,,,,,,,,,,,,,green,diamond
1293.0,8.0,4.0,1.0,2.0,2.0,381.8493599992507,2.0,1.0,phase_1,,,,,,,,,,,,,yellow,square
324.0,6.0,1.0,1.0,3.0,3.0,315.1453910013515,2.0,1.0,phase_1,,,,,,,,,,,,,orange,triangle
1307.0,4.0,4.0,0.0,2.0,2.0,381.3039799988473,2.0,1.0,phase_1,,,,,,,,,,,,,blue,circle
0.0,3.0,0.0,0.0,4.0,4.0,426.5970559990819,2.0,1.0,phase_1,,,,,,,,,,,,,cyan,I
0.0,6.0,0.0,1.0,4.0,4.0,427.2317859995382,2.0,1.0,phase_1,,,,,,,,,,,,,orange,triangle
146.0,5.0,0.5,1.0,4.0,4.0,409.6735319999425,2.0,1.0,phase_1,,,,,,,,,,,,,gray,cross
145.0,1.0,0.5,0.0,2.0,2.0,416.4872170003946,2.0,1.0,phase_1,,,,,,,,,,,,,magenta,flipped triangle
0.0,3.0,0.0,0.0,3.0,3.0,325.8533130010619,2.0,1.0,phase_1,,,,,,,,,,,,,cyan,I
165.0,1.0,0.5,0.0,1.0,1.0,454.6394089993555,2.0,1.0,phase_1,,,,,,,,,,,,,magenta,flipped triangle
344.0,6.0,1.0,1.0,3.0,3.0,520.5742729995109,2.0,1.0,phase_1,,,,,,,,,,,,,orange,triangle
337.0,6.0,1.0,1.0,4.0,4.0,463.7120860006689,2.0,1.0,phase_1,,,,,,,,,,,,,orange,triangle
315.0,6.0,1.0,1.0,1.0,1.0,576.2515389997134,2.0,1.0,phase_1,,,,,,,,,,,,,orange,triangle
160.0,5.0,0.5,1.0,4.0,4.0,427.8481839992309,2.0,1.0,phase_1,,,,,,,,,,,,,gray,cross
315.0,2.0,1.0,0.0,2.0,2.0,417.6424599991151,2.0,1.0,phase_1,,,,,,,,,,,,,green,diamond
165.0,1.0,0.5,0.0,1.0,1.0,502.02059500043106,3.0,1.0,phase_1,,,,,,,,,,,,,magenta,flipped triangle
0.0,5.0,0.0,1.0,4.0,4.0,399.5232439992833,3.0,1.0,phase_1,,,,,,,,,,,,,gray,cross
641.0,3.0,2.0,0.0,2.0,2.0,492.1358499996131,3.0,1.0,phase_1,,,,,,,,,,,,,cyan,I
1311.0,8.0,4.0,1.0,3.0,3.0,362.5876369987963,3.0,1.0,phase_1,,,,,,,,,,,,,yellow,square
342.0,6.0,1.0,1.0,2.0,2.0,352.5711160000355,3.0,1.0,phase_1,,,,,,,,,,,,,orange,triangle
309.0,6.0,1.0,1.0,3.0,3.0,388.8880300000892,3.0,1.0,phase_1,,,,,,,,,,,,,orange,triangle
313.0,6.0,1.0,1.0,4.0,4.0,381.105739999839,3.0,1.0,phase_1,,,,,,,,,,,,,orange,triangle
312.0,6.0,1.0,1.0,3.0,3.0,344.5932880003965,3.0,1.0,phase_1,,,,,,,,,,,,,orange,triangle
0.0,3.0,0.0,0.0,4.0,4.0,371.6424620015459,3.0,1.0,phase_1,,,,,,,,,,,,,cyan,I
334.0,2.0,1.0,0.0,1.0,1.0,399.181533999581,3.0,1.0,phase_1,,,,,,,,,,,,,green,diamond
333.0,6.0,1.0,1.0,1.0,1.0,454.7993039996072,3.0,1.0,phase_1,,,,,,,,,,,,,orange,triangle
667.0,3.0,2.0,0.0,3.0,3.0,370.2995349995035,3.0,1.0,phase_1,,,,,,,,,,,,,cyan,I
312.0,6.0,1.0,1.0,2.0,2.0,361.6648139995959,3.0,1.0,phase_1,,,,,,,,,,,,,orange,triangle
629.0,7.0,2.0,1.0,1.0,1.0,619.9569829987013,3.0,1.0,phase_1,,,,,,,,,,,,,white,hexagon
178.0,1.0,0.5,0.0,2.0,2.0,455.9986460008076,3.0,1.0,phase_1,,,,,,,,,,,,,magenta,flipped triangle
1325.0,8.0,4.0,1.0,1.0,1.0,457.6830189998873,3.0,1.0,phase_1,,,,,,,,,,,,,yellow,square
336.0,2.0,1.0,0.0,3.0,3.0,427.7508949999173,3.0,1.0,phase_1,,,,,,,,,,,,,green,diamond
162.0,5.0,0.5,1.0,3.0,3.0,436.7841359999147,3.0,1.0,phase_1,,,,,,,,,,,,,gray,cross
671.0,7.0,2.0,1.0,3.0,3.0,407.8191129992774,3.0,1.0,phase_1,,,,,,,,,,,,,white,hexagon
344.0,2.0,1.0,0.0,4.0,4.0,407.2963429989613,3.0,1.0,phase_1,,,,,,,,,,,,,green,diamond
333.0,2.0,1.0,0.0,2.0,2.0,454.7455669999181,3.0,1.0,phase_1,,,,,,,,,,,,,green,diamond
312.0,2.0,1.0,0.0,3.0,3.0,343.8990369995736,3.0,1.0,phase_1,,,,,,,,,,,,,green,diamond
154.0,1.0,0.5,0.0,3.0,3.0,360.6378519998543,3.0,1.0,phase_1,,,,,,,,,,,,,magenta,flipped triangle
0.0,3.0,0.0,0.0,4.0,4.0,379.1893620000337,3.0,1.0,phase_1,,,,,,,,,,,,,cyan,I
0.0,1.0,0.0,0.0,4.0,4.0,416.7512879994319,3.0,1.0,phase_1,,,,,,,,,,,,,magenta,flipped triangle
148.0,5.0,0.5,1.0,1.0,1.0,483.2119470011093,3.0,1.0,phase_1,,,,,,,,,,,,,gray,cross
0.0,1.0,0.0,0.0,3.0,3.0,390.7219860011537,3.0,1.0,phase_1,,,,,,,,,,,,,magenta,flipped triangle
627.0,3.0,2.0,0.0,2.0,2.0,427.2699899993313,3.0,1.0,phase_1,,,,,,,,,,,,,cyan,I
332.0,2.0,1.0,0.0,3.0,3.0,333.6939259988867,3.0,1.0,phase_1,,,,,,,,,,,,,green,diamond
1312.0,4.0,4.0,0.0,4.0,4.0,287.6376040003379,3.0,1.0,phase_1,,,,,,,,,,,,,blue,circle
319.0,2.0,1.0,0.0,2.0,2.0,334.2874520003533,3.0,1.0,phase_1,,,,,,,,,,,,,green,diamond
309.0,6.0,1.0,1.0,4.0,4.0,344.3749100006243,3.0,1.0,phase_1,,,,,,,,,,,,,orange,triangle
1323.0,4.0,4.0,0.0,4.0,4.0,455.2100059991062,3.0,1.0,phase_1,,,,,,,,,,,,,blue,circle
652.0,7.0,2.0,1.0,4.0,4.0,381.6637670006457,3.0,1.0,phase_1,,,,,,,,,,,,,white,hexagon
639.0,7.0,2.0,1.0,2.0,2.0,436.4988859997538,3.0,1.0,phase_1,,,,,,,,,,,,,white,hexagon
337.0,2.0,1.0,0.0,3.0,3.0,324.0447729986044,3.0,1.0,phase_1,,,,,,,,,,,,,green,diamond
0.0,7.0,0.0,1.0,2.0,2.0,361.5923560009833,3.0,1.0,phase_1,,,,,,,,,,,,,white,hexagon
1278.0,8.0,4.0,1.0,4.0,4.0,344.5335859996703,3.0,1.0,phase_1,,,,,,,,,,,,,yellow,square
0.0,3.0,0.0,0.0,4.0,4.0,389.9360729992622,3.0,1.0,phase_1,,,,,,,,,,,,,cyan,I
147.0,5.0,0.5,1.0,3.0,3.0,332.7360340008454,3.0,1.0,phase_1,,,,,,,,,,,,,gray,cross
636.0,7.0,2.0,1.0,4.0,4.0,371.9367439989582,3.0,1.0,phase_1,,,,,,,,,,,,,white,hexagon
666.0,3.0,2.0,0.0,3.0,3.0,334.139356000378,3.0,1.0,phase_1,,,,,,,,,,,,,cyan,I
0.0,4.0,0.0,0.0,4.0,4.0,361.275065000882,3.0,1.0,phase_1,,,,,,,,,,,,,blue,circle
172.0,5.0,0.5,1.0,2.0,2.0,362.7070509992336,3.0,1.0,phase_1,,,,,,,,,,,,,gray,cross
0.0,1.0,0.0,0.0,2.0,2.0,391.6091749997576,3.0,1.0,phase_1,,,,,,,,,,,,,magenta,flipped triangle
344.0,2.0,1.0,0.0,1.0,1.0,446.9022329994914,3.0,1.0,phase_1,,,,,,,,,,,,,green,diamond
156.0,1.0,0.5,0.0,1.0,1.0,408.9639160010847,3.0,1.0,phase_1,,,,,,,,,,,,,magenta,flipped triangle
0.0,7.0,0.0,1.0,2.0,2.0,371.5884299999743,3.0,1.0,phase_1,,,,,,,,,,,,,white,hexagon
178.0,5.0,0.5,1.0,2.0,2.0,418.9162870006839,3.0,1.0,phase_1,,,,,,,,,,,,,gray,cross
156.0,5.0,0.5,1.0,4.0,4.0,373.5235200001625,3.0,1.0,phase_1,,,,,,,,,,,,,gray,cross
638.0,7.0,2.0,1.0,2.0,2.0,427.5800499999604,3.0,1.0,phase_1,,,,,,,,,,,,,white,hexagon
0.0,8.0,0.0,1.0,3.0,3.0,408.7694030004059,3.0,1.0,phase_1,,,,,,,,,,,,,yellow,square
0.0,8.0,0.0,1.0,3.0,3.0,390.9966360006365,3.0,1.0,phase_1,,,,,,,,,,,,,yellow,square
1293.0,4.0,4.0,0.0,2.0,2.0,370.700344999932,3.0,1.0,phase_1,,,,,,,,,,,,,blue,circle
0.0,5.0,0.0,1.0,3.0,3.0,317.1336719988176,3.0,1.0,phase_1,,,,,,,,,,,,,gray,cross
339.0,2.0,1.0,0.0,2.0,2.0,326.4338480003061,3.0,1.0,phase_1,,,,,,,,,,,,,green,diamond
1278.0,8.0,4.0,1.0,3.0,3.0,344.7479809983633,3.0,1.0,phase_1,,,,,,,,,,,,,yellow,square
153.0,1.0,0.5,0.0,1.0,1.0,419.481786999313,3.0,1.0,phase_1,,,,,,,,,,,,,magenta,flipped triangle
324.0,2.0,1.0,0.0,4.0,4.0,363.5178940003243,3.0,1.0,phase_1,,,,,,,,,,,,,green,diamond
1294.0,4.0,4.0,0.0,3.0,3.0,355.8209309994709,3.0,1.0,phase_1,,,,,,,,,,,,,blue,circle
1291.0,4.0,4.0,0.0,1.0,1.0,428.228720998959,3.0,1.0,phase_1,,,,,,,,,,,,,blue,circle
0.0,8.0,0.0,1.0,2.0,2.0,381.3491750006506,3.0,1.0,phase_1,,,,,,,,,,,,,yellow,square
303.0,2.0,1.0,0.0,1.0,1.0,501.145168000221,3.0,1.0,phase_1,,,,,,,,,,,,,green,diamond
0.0,7.0,0.0,1.0,2.0,2.0,399.5943680001801,3.0,1.0,phase_1,,,,,,,,,,,,,white,hexagon
0.0,5.0,0.0,1.0,4.0,4.0,354.3916010003158,3.0,1.0,phase_1,,,,,,,,,,,,,gray,cross
0.0,5.0,0.0,1.0,2.0,2.0,373.4225520001928,3.0,1.0,phase_1,,,,,,,,,,,,,gray,cross
178.0,1.0,0.5,0.0,4.0,4.0,428.2191179991059,3.0,1.0,phase_1,,,,,,,,,,,,,magenta,flipped triangle
1278.0,4.0,4.0,0.0,1.0,1.0,437.8387010001461,3.0,2.0,phase_1,,,,,,,,,,,,,blue,circle
187.0,5.0,0.5,1.0,4.0,4.0,447.1654169992689,3.0,1.0,phase_1,,,,,,,,,,,,,gray,cross
673.0,7.0,2.0,1.0,3.0,3.0,345.0562729994999,3.0,1.0,phase_1,,,,,,,,,,,,,white,hexagon
160.0,5.0,0.5,1.0,3.0,3.0,437.4211570011539,3.0,1.0,phase_1,,,,,,,,,,,,,gray,cross
139.0,5.0,0.5,1.0,4.0,4.0,474.2214970010536,3.0,1.0,phase_1,,,,,,,,,,,,,gray,cross
0.0,7.0,0.0,1.0,1.0,1.0,522.1332960009022,3.0,1.0,phase_1,,,,,,,,,,,,,white,hexagon
1294.0,8.0,4.0,1.0,3.0,3.0,335.7533210000838,3.0,1.0,phase_1,,,,,,,,,,,,,yellow,square
673.0,3.0,2.0,0.0,4.0,4.0,318.8597270000173,3.0,1.0,phase_1,,,,,,,,,,,,,cyan,I
178.0,1.0,0.5,0.0,3.0,3.0,261.2965120006265,3.0,1.0,phase_1,,,,,,,,,,,,,magenta,flipped triangle
331.0,6.0,1.0,1.0,2.0,2.0,326.5229459993861,3.0,1.0,phase_1,,,,,,,,,,,,,orange,triangle
636.0,7.0,2.0,1.0,4.0,4.0,316.9999770016147,3.0,1.0,phase_1,,,,,,,,,,,,,white,hexagon
1320.0,8.0,4.0,1.0,3.0,3.0,287.9377250010293,3.0,1.0,phase_1,,,,,,,,,,,,,yellow,square
668.0,7.0,2.0,1.0,2.0,2.0,327.8491909986769,3.0,1.0,phase_1,,,,,,,,,,,,,white,hexagon
307.0,6.0,1.0,1.0,1.0,1.0,522.3432570001023,3.0,1.0,phase_1,,,,,,,,,,,,,orange,triangle
345.0,6.0,1.0,1.0,4.0,4.0,299.550244000784,3.0,1.0,phase_1,,,,,,,,,,,,,orange,triangle
1304.0,4.0,4.0,0.0,3.0,3.0,317.6311720017111,3.0,1.0,phase_1,,,,,,,,,,,,,blue,circle
1283.0,4.0,4.0,0.0,3.0,3.0,329.1325030004373,3.0,1.0,phase_1,,,,,,,,,,,,,blue,circle
145.0,5.0,0.5,1.0,3.0,3.0,298.4595759990043,3.0,1.0,phase_1,,,,,,,,,,,,,gray,cross
1302.0,8.0,4.0,1.0,1.0,1.0,410.6151260002662,3.0,1.0,phase_1,,,,,,,,,,,,,yellow,square
662.0,7.0,2.0,1.0,1.0,1.0,345.0247469991154,3.0,1.0,phase_1,,,,,,,,,,,,,white,hexagon
0.0,5.0,0.0,1.0,3.0,3.0,261.1187849997805,3.0,1.0,phase_1,,,,,,,,,,,,,gray,cross
332.0,6.0,1.0,1.0,2.0,2.0,382.7231420000316,3.0,1.0,phase_1,,,,,,,,,,,,,orange,triangle
641.0,7.0,2.0,1.0,1.0,1.0,419.8360899990803,3.0,1.0,phase_1,,,,,,,,,,,,,white,hexagon
0.0,2.0,0.0,0.0,3.0,3.0,279.7965839999961,3.0,1.0,phase_1,,,,,,,,,,,,,green,diamond
159.0,5.0,0.5,1.0,2.0,2.0,362.8832310005236,3.0,1.0,phase_1,,,,,,,,,,,,,gray,cross
1278.0,4.0,4.0,0.0,2.0,2.0,354.4293739996647,3.0,1.0,phase_1,,,,,,,,,,,,,blue,circle
659.0,3.0,2.0,0.0,1.0,1.0,446.5988760002801,3.0,1.0,phase_1,,,,,,,,,,,,,cyan,I
153.0,1.0,0.5,0.0,3.0,3.0,288.772093001171,3.0,1.0,phase_1,,,,,,,,,,,,,magenta,flipped triangle
1295.0,8.0,4.0,1.0,1.0,1.0,456.3764729991817,3.0,1.0,phase_1,,,,,,,,,,,,,yellow,square
145.0,5.0,0.5,1.0,2.0,2.0,419.8755369998252,3.0,1.0,phase_1,,,,,,,,,,,,,gray,cross
640.0,3.0,2.0,0.0,4.0,4.0,334.9239920007676,3.0,1.0,phase_1,,,,,,,,,,,,,cyan,I
165.0,1.0,0.5,0.0,1.0,1.0,391.6305349994218,3.0,1.0,phase_1,,,,,,,,,,,,,magenta,flipped triangle
1278.0,8.0,4.0,1.0,2.0,2.0,335.5076139996527,3.0,1.0,phase_1,,,,,,,,,,,,,yellow,square
1286.0,4.0,4.0,0.0,3.0,3.0,464.2773920004401,4.0,1.0,phase_1,,,,,,,,,,,,,blue,circle
0.0,2.0,0.0,0.0,2.0,2.0,344.2819669999153,4.0,1.0,phase_1,,,,,,,,,,,,,green,diamond
647.0,7.0,2.0,1.0,2.0,2.0,362.4380870005552,4.0,1.0,phase_1,,,,,,,,,,,,,white,hexagon
1282.0,8.0,4.0,1.0,3.0,3.0,332.934820000446,4.0,1.0,phase_1,,,,,,,,,,,,,yellow,square
139.0,1.0,0.5,0.0,1.0,1.0,492.369077001058,4.0,1.0,phase_1,,,,,,,,,,,,,magenta,flipped triangle
184.0,1.0,0.5,0.0,4.0,4.0,511.76478399975167,4.0,1.0,phase_1,,,,,,,,,,,,,magenta,flipped triangle
1291.0,8.0,4.0,1.0,3.0,3.0,298.4221200003958,4.0,1.0,phase_1,,,,,,,,,,,,,yellow,square
1319.0,4.0,4.0,0.0,2.0,2.0,334.9900990015158,4.0,1.0,phase_1,,,,,,,,,,,,,blue,circle
0.0,4.0,0.0,0.0,2.0,2.0,343.5159180007758,4.0,1.0,phase_1,,,,,,,,,,,,,blue,circle
0.0,2.0,0.0,0.0,4.0,4.0,370.8944229983899,4.0,1.0,phase_1,,,,,,,,,,,,,green,diamond
0.0,6.0,0.0,1.0,1.0,1.0,511.74176200038346,4.0,1.0,phase_1,,,,,,,,,,,,,orange,triangle
644.0,3.0,2.0,0.0,1.0,1.0,464.9850669993611,4.0,1.0,phase_1,,,,,,,,,,,,,cyan,I
342.0,2.0,1.0,0.0,2.0,2.0,324.6240349999425,4.0,1.0,phase_1,,,,,,,,,,,,,green,diamond
0.0,3.0,0.0,0.0,1.0,1.0,465.3934589987329,4.0,1.0,phase_1,,,,,,,,,,,,,cyan,I
658.0,7.0,2.0,1.0,3.0,3.0,325.8202439992601,4.0,1.0,phase_1,,,,,,,,,,,,,white,hexagon
644.0,7.0,2.0,1.0,1.0,1.0,427.4356789992453,4.0,1.0,phase_1,,,,,,,,,,,,,white,hexagon
162.0,1.0,0.5,0.0,3.0,3.0,316.328290000456,4.0,1.0,phase_1,,,,,,,,,,,,,magenta,flipped triangle
0.0,7.0,0.0,1.0,2.0,2.0,335.4191979997267,4.0,1.0,phase_1,,,,,,,,,,,,,white,hexagon
635.0,7.0,2.0,1.0,1.0,1.0,419.6624159994826,4.0,1.0,phase_1,,,,,,,,,,,,,white,hexagon
1319.0,8.0,4.0,1.0,4.0,4.0,363.3891820009012,4.0,1.0,phase_1,,,,,,,,,,,,,yellow,square
0.0,3.0,0.0,0.0,4.0,4.0,437.2281930009194,4.0,1.0,phase_1,,,,,,,,,,,,,cyan,I
319.0,6.0,1.0,1.0,1.0,1.0,521.4059129993984,4.0,1.0,phase_1,,,,,,,,,,,,,orange,triangle
323.0,2.0,1.0,0.0,3.0,3.0,307.6365010001609,4.0,1.0,phase_1,,,,,,,,,,,,,green,diamond
1323.0,4.0,4.0,0.0,4.0,4.0,353.1657290004659,4.0,1.0,phase_1,,,,,,,,,,,,,blue,circle
646.0,7.0,2.0,1.0,3.0,3.0,307.3922130006394,4.0,1.0,phase_1,,,,,,,,,,,,,white,hexagon
662.0,3.0,2.0,0.0,2.0,2.0,370.3915539990703,4.0,1.0,phase_1,,,,,,,,,,,,,cyan,I
146.0,1.0,0.5,0.0,2.0,2.0,399.828036001054,4.0,1.0,phase_1,,,,,,,,,,,,,magenta,flipped triangle
173.0,5.0,0.5,1.0,2.0,2.0,353.6481969986198,4.0,1.0,phase_1,,,,,,,,,,,,,gray,cross
328.0,2.0,1.0,0.0,3.0,3.0,299.5431979998102,4.0,1.0,phase_1,,,,,,,,,,,,,green,diamond
1306.0,8.0,4.0,1.0,4.0,4.0,371.8174400000862,4.0,1.0,phase_1,,,,,,,,,,,,,yellow,square
654.0,3.0,2.0,0.0,2.0,2.0,390.3294169995206,4.0,1.0,phase_1,,,,,,,,,,,,,cyan,I
631.0,7.0,2.0,1.0,4.0,4.0,345.2530640006443,4.0,1.0,phase_1,,,,,,,,,,,,,white,hexagon
303.0,2.0,1.0,0.0,4.0,4.0,362.8653989999293,4.0,1.0,phase_1,,,,,,,,,,,,,green,diamond
1299.0,8.0,4.0,1.0,1.0,1.0,382.136858001104,4.0,1.0,phase_1,,,,,,,,,,,,,yellow,square
172.0,1.0,0.5,0.0,4.0,4.0,474.120060000132,4.0,1.0,phase_1,,,,,,,,,,,,,magenta,flipped triangle
1287.0,8.0,4.0,1.0,1.0,1.0,399.5576239994989,4.0,1.0,phase_1,,,,,,,,,,,,,yellow,square
178.0,5.0,0.5,1.0,4.0,4.0,389.1722120006307,4.0,1.0,phase_1,,,,,,,,,,,,,gray,cross
636.0,3.0,2.0,0.0,3.0,3.0,361.7628829997557,4.0,1.0,phase_1,,,,,,,,,,,,,cyan,I
650.0,7.0,2.0,1.0,4.0,4.0,391.04948199928907,4.0,1.0,phase_1,,,,,,,,,,,,,white,hexagon
0.0,3.0,0.0,0.0,2.0,2.0,399.599460999525,4.0,1.0,phase_1,,,,,,,,,,,,,cyan,I
339.0,2.0,1.0,0.0,4.0,4.0,342.8654760009522,4.0,1.0,phase_1,,,,,,,,,,,,,green,diamond
642.0,7.0,2.0,1.0,4.0,4.0,380.1249899988761,4.0,1.0,phase_1,,,,,,,,,,,,,white,hexagon
148.0,5.0,0.5,1.0,2.0,2.0,380.7979850007541,4.0,1.0,phase_1,,,,,,,,,,,,,gray,cross
0.0,4.0,0.0,0.0,2.0,2.0,398.5304660000111,4.0,1.0,phase_1,,,,,,,,,,,,,blue,circle
315.0,2.0,1.0,0.0,3.0,3.0,335.0193119986215,4.0,1.0,phase_1,,,,,,,,,,,,,green,diamond
0.0,8.0,0.0,1.0,2.0,2.0,334.7878900003707,4.0,1.0,phase_1,,,,,,,,,,,,,yellow,square
0.0,3.0,0.0,0.0,1.0,1.0,606.3444659994275,4.0,1.0,phase_1,,,,,,,,,,,,,cyan,I
673.0,3.0,2.0,0.0,2.0,2.0,335.311474998889,4.0,1.0,phase_1,,,,,,,,,,,,,cyan,I
0.0,6.0,0.0,1.0,3.0,3.0,336.3663599993742,4.0,1.0,phase_1,,,,,,,,,,,,,orange,triangle
0.0,4.0,0.0,0.0,1.0,1.0,520.4829249996692,4.0,1.0,phase_1,,,,,,,,,,,,,blue,circle
635.0,3.0,2.0,0.0,4.0,4.0,316.8968249992758,4.0,1.0,phase_1,,,,,,,,,,,,,cyan,I
1300.0,4.0,4.0,0.0,1.0,1.0,437.3026180001034,4.0,1.0,phase_1,,,,,,,,,,,,,blue,circle
1298.0,4.0,4.0,0.0,4.0,4.0,371.6285919999791,4.0,1.0,phase_1,,,,,,,,,,,,,blue,circle
640.0,7.0,2.0,1.0,1.0,1.0,352.7292969993141,4.0,1.0,phase_1,,,,,,,,,,,,,white,hexagon
313.0,6.0,1.0,1.0,3.0,3.0,315.5797319996054,4.0,1.0,phase_1,,,,,,,,,,,,,orange,triangle
182.0,5.0,0.5,1.0,4.0,4.0,408.9082129994494,4.0,1.0,phase_1,,,,,,,,,,,,,gray,cross
0.0,4.0,0.0,0.0,4.0,4.0,325.1090719986678,4.0,1.0,phase_1,,,,,,,,,,,,,blue,circle
0.0,5.0,0.0,1.0,2.0,2.0,408.3798169995134,4.0,1.0,phase_1,,,,,,,,,,,,,gray,cross
309.0,2.0,1.0,0.0,4.0,4.0,335.4892000006657,4.0,1.0,phase_1,,,,,,,,,,,,,green,diamond
170.0,1.0,0.5,0.0,3.0,3.0,288.4743599988724,4.0,1.0,phase_1,,,,,,,,,,,,,magenta,flipped triangle
659.0,3.0,2.0,0.0,1.0,1.0,380.4838760006532,4.0,1.0,phase_1,,,,,,,,,,,,,cyan,I
312.0,6.0,1.0,1.0,2.0,2.0,362.4835000009625,4.0,1.0,phase_1,,,,,,,,,,,,,orange,triangle
309.0,2.0,1.0,0.0,3.0,3.0,333.9658220011188,4.0,1.0,phase_1,,,,,,,,,,,,,green,diamond
1295.0,4.0,4.0,0.0,1.0,1.0,428.4703579996858,4.0,1.0,phase_1,,,,,,,,,,,,,blue,circle
0.0,6.0,0.0,1.0,4.0,4.0,344.8286820002977,4.0,1.0,phase_1,,,,,,,,,,,,,orange,triangle
0.0,8.0,0.0,1.0,3.0,3.0,279.3831010003487,4.0,1.0,phase_1,,,,,,,,,,,,,yellow,square
165.0,5.0,0.5,1.0,1.0,1.0,371.7598229995928,4.0,1.0,phase_1,,,,,,,,,,,,,gray,cross
328.0,6.0,1.0,1.0,4.0,4.0,326.3249139999971,4.0,1.0,phase_1,,,,,,,,,,,,,orange,triangle
631.0,7.0,2.0,1.0,2.0,2.0,342.9107709998789,4.0,1.0,phase_1,,,,,,,,,,,,,white,hexagon
328.0,6.0,1.0,1.0,4.0,4.0,344.3304520005767,4.0,1.0,phase_1,,,,,,,,,,,,,orange,triangle
1286.0,8.0,4.0,1.0,2.0,2.0,343.0228289998922,4.0,1.0,phase_1,,,,,,,,,,,,,yellow,square
1295.0,8.0,4.0,1.0,3.0,3.0,371.6667669996241,4.0,1.0,phase_1,,,,,,,,,,,,,yellow,square
638.0,7.0,2.0,1.0,1.0,1.0,427.0063929998287,4.0,1.0,phase_1,,,,,,,,,,,,,white,hexagon
629.0,3.0,2.0,0.0,2.0,2.0,361.3861459998588,4.0,1.0,phase_1,,,,,,,,,,,,,cyan,I
339.0,6.0,1.0,1.0,4.0,4.0,320.2380370003084,4.0,1.0,phase_1,,,,,,,,,,,,,orange,triangle
140.0,5.0,0.5,1.0,1.0,1.0,444.6214729996427,4.0,1.0,phase_1,,,,,,,,,,,,,gray,cross
632.0,7.0,2.0,1.0,4.0,4.0,398.1273589997727,4.0,1.0,phase_1,,,,,,,,,,,,,white,hexagon
339.0,6.0,1.0,1.0,2.0,2.0,399.3972050011507,4.0,1.0,phase_1,,,,,,,,,,,,,orange,triangle
1306.0,4.0,4.0,0.0,3.0,3.0,333.9980790005938,4.0,1.0,phase_1,,,,,,,,,,,,,blue,circle
1277.0,8.0,4.0,1.0,4.0,4.0,325.6012559995724,4.0,1.0,phase_1,,,,,,,,,,,,,yellow,square
659.0,7.0,2.0,1.0,3.0,3.0,315.6368210002256,4.0,1.0,phase_1,,,,,,,,,,,,,white,hexagon
1306.0,4.0,4.0,0.0,1.0,1.0,426.8312859985599,4.0,1.0,phase_1,,,,,,,,,,,,,blue,circle
0.0,2.0,0.0,0.0,2.0,2.0,390.80514399938687,4.0,1.0,phase_1,,,,,,,,,,,,,green,diamond
0.0,6.0,0.0,1.0,3.0,3.0,335.2239099986036,4.0,1.0,phase_1,,,,,,,,,,,,,orange,triangle
0.0,2.0,0.0,0.0,4.0,4.0,372.2135439984413,4.0,1.0,phase_1,,,,,,,,,,,,,green,diamond
348.0,2.0,1.0,0.0,4.0,4.0,372.3903459995199,4.0,1.0,phase_1,,,,,,,,,,,,,green,diamond
0.0,5.0,0.0,1.0,1.0,1.0,427.2686219992465,4.0,1.0,phase_1,,,,,,,,,,,,,gray,cross
343.0,6.0,1.0,1.0,3.0,3.0,408.5714070006361,4.0,1.0,phase_1,,,,,,,,,,,,,orange,triangle
1302.0,4.0,4.0,0.0,1.0,1.0,491.5111790014634,4.0,1.0,phase_1,,,,,,,,,,,,,blue,circle
145.0,1.0,0.5,0.0,1.0,1.0,447.2705030002544,4.0,1.0,phase_1,,,,,,,,,,,,,magenta,flipped triangle
166.0,1.0,0.5,0.0,3.0,3.0,363.2518930007791,4.0,1.0,phase_1,,,,,,,,,,,,,magenta,flipped triangle
336.0,6.0,1.0,1.0,3.0,3.0,400.20295000067557,4.0,1.0,phase_1,,,,,,,,,,,,,orange,triangle
1325.0,4.0,4.0,0.0,4.0,4.0,324.8580919989763,4.0,1.0,phase_1,,,,,,,,,,,,,blue,circle
312.0,2.0,1.0,0.0,1.0,1.0,427.7985379994788,4.0,1.0,phase_1,,,,,,,,,,,,,green,diamond
0.0,2.0,0.0,0.0,4.0,4.0,334.4720509994658,4.0,1.0,phase_1,,,,,,,,,,,,,green,diamond
0.0,7.0,0.0,1.0,3.0,3.0,252.0635609998862,4.0,1.0,phase_1,,,,,,,,,,,,,white,hexagon
1322.0,4.0,4.0,0.0,3.0,3.0,344.1006150005705,4.0,2.0,phase_1,,,,,,,,,,,,,blue,circle
640.0,3.0,2.0,0.0,2.0,2.0,511.08961699901556,4.0,1.0,phase_1,,,,,,,,,,,,,cyan,I
148.0,1.0,0.5,0.0,1.0,1.0,449.0511469994089,4.0,1.0,phase_1,,,,,,,,,,,,,magenta,flipped triangle
336.0,2.0,1.0,0.0,4.0,4.0,353.2197900003666,4.0,1.0,phase_1,,,,,,,,,,,,,green,diamond
0.0,8.0,4.0,1.0,5.0,5.0,616.626945000462,1.0,1.0,phase_2,go,250.0,250.0,1.0,,,,,,,,,yellow,square
0.0,8.0,4.0,1.0,6.0,6.0,297.9081150006095,1.0,1.0,phase_2,go,250.0,250.0,1.0,,,,,,,,,yellow,square
0.0,7.0,2.0,1.0,5.0,5.0,548.1376539992198,1.0,1.0,phase_2,go,250.0,250.0,1.0,,,,,,,,,white,hexagon
0.0,8.0,4.0,1.0,6.0,6.0,750.7300690012926,1.0,1.0,phase_2,stop,250.0,250.0,3.0,,,,,,,,,yellow,square
0.0,5.0,0.5,1.0,5.0,5.0,421.775009999692,1.0,1.0,phase_2,go,250.0,200.0,1.0,,,,,,,,,gray,cross
0.0,4.0,4.0,0.0,5.0,5.0,682.7126859989221,1.0,1.0,phase_2,go,250.0,200.0,1.0,,,,,,,,,blue,circle
0.0,3.0,2.0,0.0,5.0,5.0,777.2316170012346,1.0,1.0,phase_2,go,250.0,200.0,1.0,,,,,,,,,cyan,I
0.0,8.0,4.0,1.0,6.0,0.0,0.0,1.0,1.0,phase_2,stop,250.0,200.0,4.0,,,,,,,,,yellow,square
0.0,8.0,4.0,1.0,6.0,6.0,411.7959729992435,1.0,1.0,phase_2,go,250.0,250.0,1.0,,,,,,,,,yellow,square
0.0,2.0,1.0,0.0,5.0,5.0,1037.843480000447,1.0,1.0,phase_2,go,250.0,250.0,1.0,,,,,,,,,green,diamond
0.0,3.0,2.0,0.0,5.0,5.0,422.4221989989019,1.0,1.0,phase_2,go,250.0,250.0,1.0,,,,,,,,,cyan,I
0.0,6.0,1.0,1.0,5.0,5.0,348.4832849990198,1.0,1.0,phase_2,stop,250.0,250.0,3.0,,,,,,,,,orange,triangle
0.0,3.0,2.0,0.0,6.0,6.0,261.8156789994827,1.0,1.0,phase_2,go,200.0,250.0,1.0,,,,,,,,,cyan,I
0.0,2.0,1.0,0.0,6.0,6.0,337.7691929999855,1.0,1.0,phase_2,go,200.0,250.0,1.0,,,,,,,,,green,diamond
0.0,1.0,0.5,0.0,5.0,5.0,712.6499639998656,1.0,1.0,phase_2,go,200.0,250.0,1.0,,,,,,,,,magenta,flipped triangle
0.0,3.0,2.0,0.0,5.0,5.0,860.4909090008732,1.0,1.0,phase_2,go,200.0,250.0,1.0,,,,,,,,,cyan,I
0.0,6.0,1.0,1.0,5.0,0.0,0.0,1.0,1.0,phase_2,stop,200.0,250.0,4.0,,,,,,,,,orange,triangle
0.0,3.0,2.0,0.0,6.0,6.0,320.2539539997815,1.0,1.0,phase_2,go,250.0,250.0,1.0,,,,,,,,,cyan,I
0.0,4.0,4.0,0.0,5.0,5.0,383.4271480009192,1.0,1.0,phase_2,go,250.0,250.0,1.0,,,,,,,,,blue,circle
0.0,5.0,0.5,1.0,6.0,6.0,366.0911790011596,1.0,1.0,phase_2,go,250.0,250.0,1.0,,,,,,,,,gray,cross
0.0,2.0,1.0,0.0,5.0,5.0,617.1242079999502,1.0,1.0,phase_2,go,250.0,250.0,1.0,,,,,,,,,green,diamond
0.0,2.0,1.0,0.0,6.0,6.0,933.754310999575,1.0,1.0,phase_2,go,250.0,250.0,1.0,,,,,,,,,green,diamond
0.0,6.0,1.0,1.0,5.0,0.0,0.0,1.0,1.0,phase_2,stop,250.0,250.0,4.0,,,,,,,,,orange,triangle
0.0,8.0,4.0,1.0,6.0,0.0,0.0,1.0,1.0,phase_2,stop,300.0,250.0,4.0,,,,,,,,,yellow,square
0.0,7.0,2.0,1.0,5.0,5.0,389.7136800005683,1.0,1.0,phase_2,stop,300.0,300.0,3.0,,,,,,,,,white,hexagon
0.0,3.0,2.0,0.0,6.0,6.0,571.1370449989772,1.0,1.0,phase_2,go,250.0,300.0,1.0,,,,,,,,,cyan,I
0.0,2.0,1.0,0.0,6.0,6.0,420.7903040005476,1.0,1.0,phase_2,go,250.0,300.0,1.0,,,,,,,,,green,diamond
0.0,2.0,1.0,0.0,5.0,5.0,543.7333289992239,1.0,1.0,phase_2,go,250.0,300.0,1.0,,,,,,,,,green,diamond
0.0,3.0,2.0,0.0,5.0,5.0,421.991438999612,1.0,1.0,phase_2,go,250.0,300.0,1.0,,,,,,,,,cyan,I
0.0,2.0,1.0,0.0,5.0,5.0,447.0514929998899,1.0,1.0,phase_2,go,250.0,300.0,1.0,,,,,,,,,green,diamond
0.0,8.0,4.0,1.0,6.0,0.0,0.0,1.0,1.0,phase_2,stop,250.0,300.0,4.0,,,,,,,,,yellow,square
0.0,4.0,4.0,0.0,6.0,6.0,468.7902500008931,1.0,1.0,phase_2,go,250.0,350.0,1.0,,,,,,,,,blue,circle
0.0,4.0,4.0,0.0,6.0,6.0,595.2428070013411,1.0,1.0,phase_2,go,250.0,350.0,1.0,,,,,,,,,blue,circle
0.0,3.0,2.0,0.0,5.0,5.0,769.2438139984006,1.0,1.0,phase_2,go,250.0,350.0,1.0,,,,,,,,,cyan,I
0.0,1.0,0.5,0.0,5.0,5.0,452.559260000271,1.0,1.0,phase_2,go,250.0,350.0,1.0,,,,,,,,,magenta,flipped triangle
0.0,5.0,0.5,1.0,6.0,6.0,261.6688289999729,1.0,1.0,phase_2,stop,250.0,350.0,3.0,,,,,,,,,gray,cross
0.0,3.0,2.0,0.0,5.0,5.0,438.8988409991725,2.0,1.0,phase_2,go,250.0,300.0,1.0,,,,,,,,,cyan,I
0.0,4.0,4.0,0.0,6.0,6.0,373.9073279994045,2.0,1.0,phase_2,go,250.0,300.0,1.0,,,,,,,,,blue,circle
0.0,7.0,2.0,1.0,5.0,5.0,298.7725319999299,2.0,1.0,phase_2,go,250.0,300.0,1.0,,,,,,,,,white,hexagon
0.0,4.0,4.0,0.0,6.0,6.0,254.0156159993785,2.0,1.0,phase_2,go,250.0,300.0,1.0,,,,,,,,,blue,circle
0.0,7.0,2.0,1.0,5.0,0.0,0.0,2.0,1.0,phase_2,stop,250.0,300.0,4.0,,,,,,,,,white,hexagon
0.0,3.0,2.0,0.0,5.0,5.0,326.9082000006165,2.0,1.0,phase_2,go,300.0,300.0,1.0,,,,,,,,,cyan,I
0.0,7.0,2.0,1.0,5.0,5.0,413.7774399987393,2.0,1.0,phase_2,stop,300.0,300.0,3.0,,,,,,,,,white,hexagon
0.0,2.0,1.0,0.0,6.0,6.0,329.3609270003799,2.0,1.0,phase_2,go,250.0,300.0,1.0,,,,,,,,,green,diamond
0.0,4.0,4.0,0.0,5.0,5.0,299.6783620001224,2.0,1.0,phase_2,go,250.0,300.0,1.0,,,,,,,,,blue,circle
0.0,5.0,0.5,1.0,5.0,5.0,312.1793719983543,2.0,1.0,phase_2,stop,250.0,300.0,3.0,,,,,,,,,gray,cross
0.0,8.0,4.0,1.0,6.0,6.0,401.6119730003993,2.0,1.0,phase_2,stop,200.0,300.0,3.0,,,,,,,,,yellow,square
0.0,6.0,1.0,1.0,5.0,5.0,384.1411400007928,2.0,1.0,phase_2,go,200.0,250.0,1.0,,,,,,,,,orange,triangle
0.0,7.0,2.0,1.0,6.0,6.0,432.8521290008211,2.0,1.0,phase_2,stop,200.0,250.0,3.0,,,,,,,,,white,hexagon
0.0,7.0,2.0,1.0,5.0,5.0,398.0422719996568,2.0,1.0,phase_2,stop,200.0,200.0,3.0,,,,,,,,,white,hexagon
0.0,6.0,1.0,1.0,5.0,5.0,420.8295589996851,2.0,1.0,phase_2,go,150.0,200.0,1.0,,,,,,,,,orange,triangle
0.0,5.0,0.5,1.0,5.0,0.0,0.0,2.0,1.0,phase_2,stop,150.0,200.0,4.0,,,,,,,,,gray,cross
0.0,8.0,4.0,1.0,6.0,0.0,0.0,2.0,1.0,phase_2,stop,200.0,200.0,4.0,,,,,,,,,yellow,square
0.0,2.0,1.0,0.0,5.0,5.0,579.616265000368,2.0,1.0,phase_2,go,200.0,250.0,1.0,,,,,,,,,green,diamond
0.0,4.0,4.0,0.0,5.0,5.0,448.3251410001685,2.0,1.0,phase_2,go,200.0,250.0,1.0,,,,,,,,,blue,circle
0.0,1.0,0.5,0.0,5.0,5.0,737.3641499998485,2.0,1.0,phase_2,go,200.0,250.0,1.0,,,,,,,,,magenta,flipped triangle
0.0,8.0,4.0,1.0,6.0,0.0,0.0,2.0,1.0,phase_2,stop,200.0,250.0,4.0,,,,,,,,,yellow,square
0.0,4.0,4.0,0.0,5.0,5.0,373.365768999065,2.0,1.0,phase_2,go,200.0,300.0,1.0,,,,,,,,,blue,circle
0.0,1.0,0.5,0.0,6.0,6.0,550.8130529997288,2.0,1.0,phase_2,go,200.0,300.0,1.0,,,,,,,,,magenta,flipped triangle
0.0,8.0,4.0,1.0,5.0,5.0,365.0146139989374,2.0,1.0,phase_2,go,200.0,300.0,1.0,,,,,,,,,yellow,square
0.0,2.0,1.0,0.0,6.0,6.0,423.5258320004504,2.0,1.0,phase_2,go,200.0,300.0,1.0,,,,,,,,,green,diamond
0.0,6.0,1.0,1.0,5.0,5.0,607.3670829991897,2.0,1.0,phase_2,go,200.0,300.0,1.0,,,,,,,,,orange,triangle
0.0,4.0,4.0,0.0,6.0,6.0,485.8233440008916,2.0,1.0,phase_2,go,200.0,300.0,1.0,,,,,,,,,blue,circle
0.0,8.0,4.0,1.0,5.0,0.0,0.0,2.0,1.0,phase_2,stop,200.0,300.0,4.0,,,,,,,,,yellow,square
0.0,7.0,2.0,1.0,5.0,0.0,0.0,2.0,1.0,phase_2,stop,250.0,300.0,4.0,,,,,,,,,white,hexagon
0.0,4.0,4.0,0.0,6.0,6.0,364.0090539993252,2.0,1.0,phase_2,go,300.0,300.0,1.0,,,,,,,,,blue,circle
0.0,1.0,0.5,0.0,5.0,5.0,636.557782001546,2.0,1.0,phase_2,go,300.0,300.0,1.0,,,,,,,,,magenta,flipped triangle
0.0,7.0,2.0,1.0,6.0,0.0,0.0,2.0,1.0,phase_2,stop,300.0,300.0,4.0,,,,,,,,,white,hexagon
0.0,6.0,1.0,1.0,5.0,0.0,0.0,2.0,1.0,phase_2,stop,300.0,350.0,4.0,,,,,,,,,orange,triangle
0.0,2.0,1.0,0.0,5.0,5.0,580.855807998887,2.0,1.0,phase_2,go,350.0,350.0,1.0,,,,,,,,,green,diamond
0.0,4.0,4.0,0.0,6.0,6.0,411.1706200001208,2.0,1.0,phase_2,go,350.0,350.0,1.0,,,,,,,,,blue,circle
0.0,7.0,2.0,1.0,5.0,5.0,626.696503999483,2.0,1.0,phase_2,go,350.0,350.0,1.0,,,,,,,,,white,hexagon
0.0,7.0,2.0,1.0,6.0,0.0,0.0,3.0,1.0,phase_2,stop,350.0,350.0,4.0,,,,,,,,,white,hexagon
0.0,3.0,2.0,0.0,5.0,5.0,645.860595999693,3.0,1.0,phase_2,go,350.0,400.0,1.0,,,,,,,,,cyan,I
0.0,3.0,2.0,0.0,6.0,6.0,747.3884989994986,3.0,1.0,phase_2,go,350.0,400.0,1.0,,,,,,,,,cyan,I
0.0,1.0,0.5,0.0,5.0,5.0,666.162383999108,3.0,1.0,phase_2,go,350.0,400.0,1.0,,,,,,,,,magenta,flipped triangle
0.0,7.0,2.0,1.0,6.0,0.0,0.0,3.0,1.0,phase_2,stop,350.0,400.0,4.0,,,,,,,,,white,hexagon
0.0,8.0,4.0,1.0,5.0,0.0,0.0,3.0,1.0,phase_2,stop,350.0,450.0,4.0,,,,,,,,,yellow,square
0.0,6.0,1.0,1.0,6.0,0.0,0.0,3.0,1.0,phase_2,stop,400.0,450.0,4.0,,,,,,,,,orange,triangle
0.0,4.0,4.0,0.0,5.0,5.0,475.5452949993923,3.0,1.0,phase_2,go,400.0,500.0,1.0,,,,,,,,,blue,circle
0.0,7.0,2.0,1.0,6.0,0.0,0.0,3.0,1.0,phase_2,stop,400.0,500.0,4.0,,,,,,,,,white,hexagon
0.0,6.0,1.0,1.0,6.0,6.0,592.3013379997428,3.0,1.0,phase_2,stop,400.0,550.0,3.0,,,,,,,,,orange,triangle
0.0,6.0,1.0,1.0,6.0,0.0,0.0,3.0,1.0,phase_2,stop,400.0,500.0,4.0,,,,,,,,,orange,triangle
0.0,3.0,2.0,0.0,5.0,5.0,523.2316210003773,3.0,1.0,phase_2,go,400.0,550.0,1.0,,,,,,,,,cyan,I
0.0,8.0,4.0,1.0,5.0,5.0,432.9474139995,3.0,1.0,phase_2,stop,400.0,550.0,3.0,,,,,,,,,yellow,square
0.0,2.0,1.0,0.0,5.0,5.0,700.6741899986082,3.0,1.0,phase_2,go,350.0,550.0,1.0,,,,,,,,,green,diamond
0.0,8.0,4.0,1.0,5.0,0.0,0.0,3.0,1.0,phase_2,stop,350.0,550.0,4.0,,,,,,,,,yellow,square
0.0,4.0,4.0,0.0,5.0,5.0,587.9583290006849,3.0,1.0,phase_2,go,400.0,550.0,1.0,,,,,,,,,blue,circle
0.0,1.0,0.5,0.0,6.0,6.0,802.2152710000228,3.0,1.0,phase_2,go,400.0,550.0,1.0,,,,,,,,,magenta,flipped triangle
0.0,1.0,0.5,0.0,5.0,5.0,495.6991859999107,3.0,1.0,phase_2,go,400.0,550.0,1.0,,,,,,,,,magenta,flipped triangle
0.0,7.0,2.0,1.0,5.0,0.0,0.0,3.0,1.0,phase_2,stop,400.0,550.0,4.0,,,,,,,,,white,hexagon
0.0,6.0,1.0,1.0,6.0,6.0,706.0526139994181,3.0,1.0,phase_2,go,450.0,550.0,1.0,,,,,,,,,orange,triangle
0.0,5.0,0.5,1.0,6.0,6.0,717.9013369986933,3.0,1.0,phase_2,stop,450.0,550.0,3.0,,,,,,,,,gray,cross
0.0,2.0,1.0,0.0,6.0,6.0,419.6160800001962,3.0,1.0,phase_2,go,450.0,500.0,1.0,,,,,,,,,green,diamond
0.0,2.0,1.0,0.0,6.0,6.0,393.9038469998195,3.0,1.0,phase_2,go,450.0,500.0,1.0,,,,,,,,,green,diamond
0.0,7.0,2.0,1.0,6.0,6.0,828.3364340004482,3.0,1.0,phase_2,go,450.0,500.0,1.0,,,,,,,,,white,hexagon
0.0,5.0,0.5,1.0,5.0,5.0,411.2897319992044,3.0,1.0,phase_2,stop,450.0,500.0,3.0,,,,,,,,,gray,cross
0.0,3.0,2.0,0.0,5.0,5.0,682.3281220003992,3.0,1.0,phase_2,go,400.0,500.0,1.0,,,,,,,,,cyan,I
0.0,4.0,4.0,0.0,6.0,6.0,512.9330859999754,3.0,1.0,phase_2,go,400.0,500.0,1.0,,,,,,,,,blue,circle
0.0,3.0,2.0,0.0,5.0,5.0,382.2087669996108,3.0,1.0,phase_2,go,400.0,500.0,1.0,,,,,,,,,cyan,I
0.0,7.0,2.0,1.0,6.0,6.0,635.2420260009239,3.0,1.0,phase_2,stop,400.0,500.0,3.0,,,,,,,,,white,hexagon
0.0,1.0,0.5,0.0,6.0,6.0,811.4101499995741,3.0,1.0,phase_2,go,400.0,450.0,1.0,,,,,,,,,magenta,flipped triangle
0.0,4.0,4.0,0.0,5.0,5.0,420.9219619988289,3.0,1.0,phase_2,go,400.0,450.0,1.0,,,,,,,,,blue,circle
0.0,3.0,2.0,0.0,6.0,6.0,595.0182329997915,3.0,1.0,phase_2,go,400.0,450.0,1.0,,,,,,,,,cyan,I
0.0,5.0,0.5,1.0,5.0,5.0,790.6154860011156,3.0,1.0,phase_2,go,400.0,450.0,1.0,,,,,,,,,gray,cross
0.0,1.0,0.5,0.0,6.0,6.0,429.6996400007629,3.0,1.0,phase_2,go,400.0,450.0,1.0,,,,,,,,,magenta,flipped triangle
0.0,1.0,0.5,0.0,5.0,5.0,438.797266999245,3.0,1.0,phase_2,go,400.0,450.0,1.0,,,,,,,,,magenta,flipped triangle
0.0,4.0,4.0,0.0,5.0,5.0,467.7123519995803,3.0,1.0,phase_2,go,400.0,450.0,1.0,,,,,,,,,blue,circle
0.0,6.0,1.0,1.0,5.0,5.0,531.8611990005593,4.0,1.0,phase_2,stop,400.0,450.0,3.0,,,,,,,,,orange,triangle
0.0,2.0,1.0,0.0,6.0,6.0,691.7539019996184,4.0,1.0,phase_2,go,350.0,450.0,1.0,,,,,,,,,green,diamond
0.0,5.0,0.5,1.0,6.0,6.0,419.6830519995274,4.0,1.0,phase_2,stop,350.0,450.0,3.0,,,,,,,,,gray,cross
0.0,4.0,4.0,0.0,5.0,5.0,885.6342350009072,4.0,1.0,phase_2,go,350.0,400.0,1.0,,,,,,,,,blue,circle
0.0,4.0,4.0,0.0,6.0,6.0,459.7163870002987,4.0,1.0,phase_2,go,350.0,400.0,1.0,,,,,,,,,blue,circle
0.0,6.0,1.0,1.0,5.0,0.0,0.0,4.0,1.0,phase_2,stop,350.0,400.0,4.0,,,,,,,,,orange,triangle
0.0,4.0,4.0,0.0,6.0,6.0,522.8005810004106,4.0,1.0,phase_2,go,400.0,400.0,1.0,,,,,,,,,blue,circle
0.0,5.0,0.5,1.0,6.0,6.0,446.530809998876,4.0,1.0,phase_2,stop,400.0,400.0,3.0,,,,,,,,,gray,cross
0.0,2.0,1.0,0.0,5.0,5.0,738.6330629997246,4.0,1.0,phase_2,go,400.0,350.0,1.0,,,,,,,,,green,diamond
0.0,2.0,1.0,0.0,5.0,5.0,468.1405709998216,4.0,1.0,phase_2,go,400.0,350.0,1.0,,,,,,,,,green,diamond
0.0,6.0,1.0,1.0,6.0,0.0,0.0,4.0,1.0,phase_2,stop,400.0,350.0,4.0,,,,,,,,,orange,triangle
0.0,8.0,4.0,1.0,5.0,5.0,448.5087530010787,4.0,1.0,phase_2,stop,400.0,400.0,3.0,,,,,,,,,yellow,square
0.0,8.0,4.0,1.0,6.0,6.0,521.9921039988549,4.0,1.0,phase_2,go,350.0,400.0,1.0,,,,,,,,,yellow,square
0.0,6.0,1.0,1.0,5.0,0.0,0.0,4.0,1.0,phase_2,stop,350.0,400.0,4.0,,,,,,,,,orange,triangle
0.0,5.0,0.5,1.0,5.0,5.0,393.1774440006848,4.0,1.0,phase_2,go,400.0,400.0,1.0,,,,,,,,,gray,cross
0.0,2.0,1.0,0.0,6.0,6.0,514.950401000533,4.0,1.0,phase_2,go,400.0,400.0,1.0,,,,,,,,,green,diamond
0.0,8.0,4.0,1.0,6.0,0.0,0.0,4.0,1.0,phase_2,stop,400.0,400.0,4.0,,,,,,,,,yellow,square
0.0,1.0,0.5,0.0,5.0,5.0,950.8253000003606,4.0,1.0,phase_2,go,400.0,450.0,1.0,,,,,,,,,magenta,flipped triangle
0.0,3.0,2.0,0.0,6.0,6.0,832.0126990001881,4.0,1.0,phase_2,go,400.0,450.0,1.0,,,,,,,,,cyan,I
0.0,8.0,4.0,1.0,5.0,0.0,0.0,4.0,1.0,phase_2,stop,400.0,450.0,4.0,,,,,,,,,yellow,square
0.0,1.0,0.5,0.0,6.0,6.0,336.6478019997885,4.0,1.0,phase_2,go,450.0,450.0,1.0,,,,,,,,,magenta,flipped triangle
0.0,1.0,0.5,0.0,5.0,5.0,383.7341600010404,4.0,1.0,phase_2,go,450.0,450.0,1.0,,,,,,,,,magenta,flipped triangle
0.0,4.0,4.0,0.0,5.0,5.0,383.6966719991324,4.0,1.0,phase_2,go,450.0,450.0,1.0,,,,,,,,,blue,circle
0.0,6.0,1.0,1.0,6.0,6.0,412.0194409988471,4.0,1.0,phase_2,stop,450.0,450.0,3.0,,,,,,,,,orange,triangle
0.0,3.0,2.0,0.0,6.0,6.0,644.7394049991999,4.0,1.0,phase_2,go,450.0,400.0,1.0,,,,,,,,,cyan,I
0.0,2.0,1.0,0.0,6.0,6.0,335.9466029996838,4.0,1.0,phase_2,go,450.0,400.0,1.0,,,,,,,,,green,diamond
0.0,1.0,0.5,0.0,6.0,6.0,308.867032001217,4.0,1.0,phase_2,go,450.0,400.0,1.0,,,,,,,,,magenta,flipped triangle
0.0,5.0,0.5,1.0,6.0,6.0,384.4208530008473,4.0,1.0,phase_2,stop,450.0,400.0,3.0,,,,,,,,,gray,cross
0.0,2.0,1.0,0.0,5.0,5.0,411.0756479985866,4.0,1.0,phase_2,go,450.0,350.0,1.0,,,,,,,,,green,diamond
0.0,3.0,2.0,0.0,6.0,6.0,458.770180999636,4.0,1.0,phase_2,go,450.0,350.0,1.0,,,,,,,,,cyan,I
0.0,6.0,1.0,1.0,6.0,0.0,0.0,4.0,1.0,phase_2,stop,450.0,350.0,4.0,,,,,,,,,orange,triangle
0.0,1.0,0.5,0.0,6.0,6.0,849.1855529991881,4.0,1.0,phase_2,go,450.0,400.0,1.0,,,,,,,,,magenta,flipped triangle
0.0,3.0,2.0,0.0,6.0,6.0,719.043352000881,4.0,1.0,phase_2,go,450.0,400.0,1.0,,,,,,,,,cyan,I
0.0,4.0,4.0,0.0,6.0,6.0,703.6745690002135,4.0,1.0,phase_2,go,450.0,400.0,1.0,,,,,,,,,blue,circle
0.0,6.0,1.0,1.0,5.0,0.0,0.0,4.0,1.0,phase_2,stop,450.0,400.0,4.0,,,,,,,,,orange,triangle
0.0,7.0,2.0,1.0,5.0,5.0,439.198355001281,4.0,1.0,phase_2,stop,500.0,400.0,3.0,,,,,,,,,white,hexagon
0.0,2.0,1.0,0.0,5.0,5.0,561.9334710008843,5.0,1.0,phase_2,go,450.0,400.0,1.0,,,,,,,,,green,diamond
0.0,8.0,4.0,1.0,6.0,6.0,747.9206589996465,5.0,1.0,phase_2,go,450.0,400.0,1.0,,,,,,,,,yellow,square
0.0,7.0,2.0,1.0,6.0,6.0,346.2331170012476,5.0,1.0,phase_2,stop,450.0,400.0,3.0,,,,,,,,,white,hexagon
0.0,8.0,4.0,1.0,6.0,6.0,524.8122419998253,5.0,1.0,phase_2,stop,450.0,350.0,3.0,,,,,,,,,yellow,square
0.0,8.0,4.0,1.0,5.0,5.0,638.0551319998631,5.0,1.0,phase_2,go,450.0,300.0,1.0,,,,,,,,,yellow,square
0.0,4.0,4.0,0.0,5.0,5.0,384.5911360003811,5.0,1.0,phase_2,go,450.0,300.0,1.0,,,,,,,,,blue,circle
0.0,6.0,1.0,1.0,5.0,0.0,0.0,5.0,1.0,phase_2,stop,450.0,300.0,4.0,,,,,,,,,orange,triangle
0.0,1.0,0.5,0.0,6.0,6.0,543.5295779989247,5.0,1.0,phase_2,go,500.0,300.0,1.0,,,,,,,,,magenta,flipped triangle
0.0,6.0,1.0,1.0,5.0,0.0,0.0,5.0,1.0,phase_2,stop,500.0,300.0,4.0,,,,,,,,,orange,triangle
0.0,1.0,0.5,0.0,5.0,5.0,505.004235999877,5.0,1.0,phase_2,go,550.0,300.0,1.0,,,,,,,,,magenta,flipped triangle
0.0,3.0,2.0,0.0,5.0,5.0,505.1053839997621,5.0,1.0,phase_2,go,550.0,300.0,1.0,,,,,,,,,cyan,I
0.0,1.0,0.5,0.0,6.0,6.0,512.5554580008611,5.0,1.0,phase_2,go,550.0,300.0,1.0,,,,,,,,,magenta,flipped triangle
0.0,6.0,1.0,1.0,5.0,0.0,0.0,5.0,1.0,phase_2,stop,550.0,300.0,4.0,,,,,,,,,orange,triangle
0.0,8.0,4.0,1.0,5.0,0.0,0.0,5.0,1.0,phase_2,stop,600.0,300.0,4.0,,,,,,,,,yellow,square
0.0,3.0,2.0,0.0,6.0,6.0,440.7908119992498,5.0,1.0,phase_2,go,650.0,300.0,1.0,,,,,,,,,cyan,I
0.0,7.0,2.0,1.0,6.0,0.0,0.0,5.0,1.0,phase_2,stop,650.0,300.0,4.0,,,,,,,,,white,hexagon
0.0,4.0,4.0,0.0,5.0,5.0,513.1827400000475,5.0,1.0,phase_2,go,650.0,350.0,1.0,,,,,,,,,blue,circle
0.0,5.0,0.5,1.0,5.0,0.0,0.0,5.0,1.0,phase_2,stop,650.0,350.0,4.0,,,,,,,,,gray,cross
0.0,5.0,0.5,1.0,6.0,0.0,0.0,5.0,1.0,phase_2,stop,700.0,350.0,4.0,,,,,,,,,gray,cross
0.0,6.0,1.0,1.0,6.0,0.0,0.0,5.0,1.0,phase_2,stop,700.0,400.0,4.0,,,,,,,,,orange,triangle
0.0,3.0,2.0,0.0,6.0,6.0,466.89283699925,5.0,1.0,phase_2,go,700.0,450.0,1.0,,,,,,,,,cyan,I
0.0,5.0,0.5,1.0,5.0,5.0,1010.2152219988056,5.0,1.0,phase_2,go,700.0,450.0,1.0,,,,,,,,,gray,cross
0.0,7.0,2.0,1.0,5.0,0.0,0.0,5.0,1.0,phase_2,stop,700.0,450.0,4.0,,,,,,,,,white,hexagon
0.0,7.0,2.0,1.0,5.0,5.0,894.5090160013933,5.0,1.0,phase_2,go,750.0,450.0,1.0,,,,,,,,,white,hexagon
0.0,1.0,0.5,0.0,5.0,5.0,568.8514360008412,5.0,1.0,phase_2,go,750.0,450.0,1.0,,,,,,,,,magenta,flipped triangle
0.0,8.0,4.0,1.0,5.0,5.0,841.3136950002809,5.0,1.0,phase_2,stop,750.0,450.0,3.0,,,,,,,,,yellow,square
0.0,4.0,4.0,0.0,6.0,6.0,523.009180000372,5.0,1.0,phase_2,go,700.0,450.0,1.0,,,,,,,,,blue,circle
0.0,2.0,1.0,0.0,6.0,6.0,794.9986800012994,5.0,1.0,phase_2,go,700.0,450.0,1.0,,,,,,,,,green,diamond
0.0,6.0,1.0,1.0,6.0,0.0,0.0,5.0,1.0,phase_2,stop,700.0,450.0,4.0,,,,,,,,,orange,triangle
0.0,5.0,0.5,1.0,5.0,5.0,877.6616760005709,5.0,1.0,phase_2,stop,700.0,500.0,3.0,,,,,,,,,gray,cross
0.0,7.0,2.0,1.0,5.0,5.0,1018.5929889994441,5.0,1.0,phase_2,go,650.0,500.0,1.0,,,,,,,,,white,hexagon
0.0,5.0,0.5,1.0,5.0,0.0,0.0,5.0,1.0,phase_2,stop,650.0,500.0,4.0,,,,,,,,,gray,cross
0.0,4.0,4.0,0.0,5.0,5.0,522.5789769992844,5.0,1.0,phase_2,go,700.0,500.0,1.0,,,,,,,,,blue,circle
0.0,1.0,0.5,0.0,5.0,5.0,447.7502999998251,5.0,1.0,phase_2,go,700.0,500.0,1.0,,,,,,,,,magenta,flipped triangle
0.0,7.0,2.0,1.0,5.0,5.0,887.5521740010299,5.0,1.0,phase_2,go,700.0,500.0,1.0,,,,,,,,,white,hexagon
0.0,2.0,1.0,0.0,6.0,6.0,467.9948899993178,5.0,1.0,phase_2,go,700.0,500.0,1.0,,,,,,,,,green,diamond
0.0,4.0,4.0,0.0,5.0,5.0,542.3904380004387,6.0,1.0,phase_2,go,700.0,500.0,1.0,,,,,,,,,blue,circle
0.0,6.0,1.0,1.0,6.0,0.0,0.0,6.0,1.0,phase_2,stop,700.0,500.0,4.0,,,,,,,,,orange,triangle
0.0,5.0,0.5,1.0,5.0,0.0,0.0,6.0,1.0,phase_2,stop,700.0,550.0,4.0,,,,,,,,,gray,cross
0.0,5.0,0.5,1.0,5.0,5.0,843.7698249999812,6.0,1.0,phase_2,stop,750.0,550.0,3.0,,,,,,,,,gray,cross
0.0,3.0,2.0,0.0,5.0,5.0,496.2904250005522,6.0,1.0,phase_2,go,700.0,550.0,1.0,,,,,,,,,cyan,I
0.0,5.0,0.5,1.0,5.0,5.0,971.1249140000292,6.0,1.0,phase_2,go,700.0,550.0,1.0,,,,,,,,,gray,cross
0.0,2.0,1.0,0.0,5.0,5.0,504.3056049998995,6.0,1.0,phase_2,go,700.0,550.0,1.0,,,,,,,,,green,diamond
0.0,5.0,0.5,1.0,6.0,6.0,849.1006629992626,6.0,1.0,phase_2,go,700.0,550.0,1.0,,,,,,,,,gray,cross
0.0,8.0,4.0,1.0,6.0,6.0,514.3319090002478,6.0,1.0,phase_2,stop,700.0,550.0,3.0,,,,,,,,,yellow,square
0.0,2.0,1.0,0.0,6.0,6.0,521.5106939995167,6.0,1.0,phase_2,go,700.0,500.0,1.0,,,,,,,,,green,diamond
0.0,8.0,4.0,1.0,6.0,6.0,412.1461089998774,6.0,1.0,phase_2,go,700.0,500.0,1.0,,,,,,,,,yellow,square
0.0,2.0,1.0,0.0,5.0,5.0,449.7172779992979,6.0,1.0,phase_2,go,700.0,500.0,1.0,,,,,,,,,green,diamond
0.0,1.0,0.5,0.0,6.0,6.0,373.8688539997383,6.0,1.0,phase_2,go,700.0,500.0,1.0,,,,,,,,,magenta,flipped triangle
0.0,6.0,1.0,1.0,5.0,0.0,0.0,6.0,1.0,phase_2,stop,700.0,500.0,4.0,,,,,,,,,orange,triangle
0.0,2.0,1.0,0.0,5.0,5.0,561.3236600001983,6.0,1.0,phase_2,go,750.0,500.0,1.0,,,,,,,,,green,diamond
0.0,8.0,4.0,1.0,5.0,5.0,956.052854000518,6.0,1.0,phase_2,stop,750.0,500.0,3.0,,,,,,,,,yellow,square
0.0,1.0,0.5,0.0,6.0,6.0,476.80590300115,6.0,1.0,phase_2,go,700.0,500.0,1.0,,,,,,,,,magenta,flipped triangle
0.0,3.0,2.0,0.0,6.0,6.0,419.9854149992461,6.0,1.0,phase_2,go,700.0,500.0,1.0,,,,,,,,,cyan,I
0.0,5.0,0.5,1.0,6.0,0.0,0.0,6.0,1.0,phase_2,stop,700.0,500.0,4.0,,,,,,,,,gray,cross
0.0,8.0,4.0,1.0,5.0,0.0,0.0,6.0,1.0,phase_2,stop,700.0,550.0,4.0,,,,,,,,,yellow,square
0.0,7.0,2.0,1.0,5.0,0.0,0.0,6.0,1.0,phase_2,stop,750.0,550.0,4.0,,,,,,,,,white,hexagon
0.0,4.0,4.0,0.0,6.0,6.0,504.8122570005944,6.0,1.0,phase_2,go,800.0,550.0,1.0,,,,,,,,,blue,circle
0.0,3.0,2.0,0.0,5.0,5.0,541.69780400116,6.0,1.0,phase_2,go,800.0,550.0,1.0,,,,,,,,,cyan,I
0.0,5.0,0.5,1.0,5.0,0.0,0.0,6.0,1.0,phase_2,stop,800.0,550.0,4.0,,,,,,,,,gray,cross
0.0,4.0,4.0,0.0,5.0,5.0,570.8400800012896,6.0,1.0,phase_2,go,850.0,550.0,1.0,,,,,,,,,blue,circle
0.0,5.0,0.5,1.0,5.0,0.0,0.0,6.0,1.0,phase_2,stop,850.0,550.0,4.0,,,,,,,,,gray,cross
0.0,3.0,2.0,0.0,5.0,5.0,589.1584979999607,6.0,1.0,phase_2,go,900.0,550.0,1.0,,,,,,,,,cyan,I
0.0,5.0,0.5,1.0,6.0,0.0,0.0,6.0,1.0,phase_2,stop,900.0,550.0,4.0,,,,,,,,,gray,cross
0.0,6.0,1.0,1.0,6.0,0.0,0.0,6.0,1.0,phase_2,stop,900.0,600.0,4.0,,,,,,,,,orange,triangle
0.0,2.0,1.0,0.0,6.0,6.0,700.7766230017296,6.0,1.0,phase_2,go,900.0,650.0,1.0,,,,,,,,,green,diamond
0.0,4.0,4.0,0.0,5.0,5.0,327.8766120001819,6.0,1.0,phase_2,go,900.0,650.0,1.0,,,,,,,,,blue,circle
0.0,8.0,4.0,1.0,5.0,5.0,784.2007520011975,6.0,1.0,phase_2,stop,900.0,650.0,3.0,,,,,,,,,yellow,square
0.0,1.0,0.5,0.0,6.0,6.0,497.3703260002367,6.0,1.0,phase_2,go,850.0,650.0,1.0,,,,,,,,,magenta,flipped triangle
0.0,7.0,2.0,1.0,6.0,6.0,1085.1327009986562,6.0,1.0,phase_2,go,850.0,650.0,1.0,,,,,,,,,white,hexagon
0.0,7.0,2.0,1.0,6.0,0.0,0.0,6.0,1.0,phase_2,stop,850.0,650.0,4.0,,,,,,,,,white,hexagon
0.0,5.0,0.5,1.0,6.0,0.0,0.0,6.0,1.0,phase_2,stop,850.0,700.0,4.0,,,,,,,,,gray,cross
0.0,2.0,1.0,0.0,6.0,6.0,373.3790890000819,7.0,1.0,phase_2,go,850.0,750.0,1.0,,,,,,,,,green,diamond
0.0,6.0,1.0,1.0,6.0,0.0,0.0,7.0,1.0,phase_2,stop,850.0,750.0,4.0,,,,,,,,,orange,triangle
0.0,4.0,4.0,0.0,5.0,5.0,423.2195969998429,7.0,1.0,phase_2,go,850.0,800.0,1.0,,,,,,,,,blue,circle
0.0,1.0,0.5,0.0,5.0,5.0,665.0443979997362,7.0,1.0,phase_2,go,850.0,800.0,1.0,,,,,,,,,magenta,flipped triangle
0.0,1.0,0.5,0.0,5.0,5.0,356.8474160001642,7.0,1.0,phase_2,go,850.0,800.0,1.0,,,,,,,,,magenta,flipped triangle
0.0,7.0,2.0,1.0,6.0,6.0,873.2628810012102,7.0,1.0,phase_2,stop,850.0,800.0,3.0,,,,,,,,,white,hexagon
0.0,8.0,4.0,1.0,5.0,0.0,0.0,7.0,1.0,phase_2,stop,850.0,750.0,4.0,,,,,,,,,yellow,square
0.0,6.0,1.0,1.0,5.0,5.0,1308.8356150001346,7.0,1.0,phase_2,go,900.0,750.0,1.0,,,,,,,,,orange,triangle
0.0,1.0,0.5,0.0,6.0,6.0,644.1617700002098,7.0,1.0,phase_2,go,900.0,750.0,1.0,,,,,,,,,magenta,flipped triangle
0.0,5.0,0.5,1.0,5.0,5.0,981.723201000932,7.0,1.0,phase_2,stop,900.0,750.0,3.0,,,,,,,,,gray,cross
0.0,6.0,1.0,1.0,6.0,6.0,562.2209820012358,7.0,1.0,phase_2,go,850.0,750.0,1.0,,,,,,,,,orange,triangle
0.0,3.0,2.0,0.0,5.0,5.0,478.5060070007603,7.0,1.0,phase_2,go,850.0,750.0,1.0,,,,,,,,,cyan,I
0.0,3.0,2.0,0.0,6.0,6.0,413.3136750006088,7.0,1.0,phase_2,go,850.0,750.0,1.0,,,,,,,,,cyan,I
0.0,3.0,2.0,0.0,5.0,5.0,366.2653359988326,7.0,1.0,phase_2,go,850.0,750.0,1.0,,,,,,,,,cyan,I
0.0,2.0,1.0,0.0,5.0,5.0,516.6961240011005,7.0,1.0,phase_2,go,850.0,750.0,1.0,,,,,,,,,green,diamond
0.0,7.0,2.0,1.0,6.0,6.0,915.079809999952,7.0,1.0,phase_2,stop,850.0,750.0,3.0,,,,,,,,,white,hexagon
0.0,1.0,0.5,0.0,6.0,6.0,505.67346699972404,7.0,1.0,phase_2,go,850.0,700.0,1.0,,,,,,,,,magenta,flipped triangle
0.0,1.0,0.5,0.0,5.0,5.0,402.2948679994442,7.0,1.0,phase_2,go,850.0,700.0,1.0,,,,,,,,,magenta,flipped triangle
0.0,2.0,1.0,0.0,6.0,6.0,449.1695039996557,7.0,1.0,phase_2,go,850.0,700.0,1.0,,,,,,,,,green,diamond
0.0,2.0,1.0,0.0,5.0,5.0,366.9374750006682,7.0,1.0,phase_2,go,850.0,700.0,1.0,,,,,,,,,green,diamond
0.0,2.0,1.0,0.0,5.0,5.0,404.8089009993418,7.0,1.0,phase_2,go,850.0,700.0,1.0,,,,,,,,,green,diamond
0.0,1.0,0.5,0.0,6.0,6.0,393.4734759986895,7.0,1.0,phase_2,go,850.0,700.0,1.0,,,,,,,,,magenta,flipped triangle
0.0,3.0,2.0,0.0,5.0,5.0,478.7751469993964,7.0,1.0,phase_2,go,850.0,700.0,1.0,,,,,,,,,cyan,I
0.0,6.0,1.0,1.0,6.0,0.0,0.0,7.0,1.0,phase_2,stop,850.0,700.0,4.0,,,,,,,,,orange,triangle
0.0,1.0,0.5,0.0,5.0,5.0,480.0148890008131,7.0,1.0,phase_2,go,850.0,750.0,1.0,,,,,,,,,magenta,flipped triangle
0.0,5.0,0.5,1.0,6.0,0.0,0.0,7.0,1.0,phase_2,stop,850.0,750.0,4.0,,,,,,,,,gray,cross
0.0,6.0,1.0,1.0,6.0,0.0,0.0,7.0,1.0,phase_2,stop,850.0,800.0,4.0,,,,,,,,,orange,triangle
0.0,3.0,2.0,0.0,6.0,6.0,673.910891999185,7.0,1.0,phase_2,go,850.0,850.0,1.0,,,,,,,,,cyan,I
0.0,8.0,4.0,1.0,5.0,0.0,0.0,7.0,1.0,phase_2,stop,850.0,850.0,4.0,,,,,,,,,yellow,square
0.0,2.0,1.0,0.0,6.0,6.0,496.2560889998713,7.0,1.0,phase_2,go,900.0,850.0,1.0,,,,,,,,,green,diamond
0.0,3.0,2.0,0.0,6.0,6.0,477.8420219990948,7.0,1.0,phase_2,go,900.0,850.0,1.0,,,,,,,,,cyan,I
0.0,5.0,0.5,1.0,5.0,5.0,1067.428727999868,7.0,1.0,phase_2,stop,900.0,850.0,3.0,,,,,,,,,gray,cross
0.0,7.0,2.0,1.0,6.0,0.0,0.0,7.0,1.0,phase_2,stop,850.0,850.0,4.0,,,,,,,,,white,hexagon
0.0,5.0,0.5,1.0,6.0,0.0,0.0,7.0,1.0,phase_2,stop,850.0,900.0,4.0,,,,,,,,,gray,cross
0.0,1.0,0.5,0.0,6.0,6.0,525.0024760007364,7.0,1.0,phase_2,go,850.0,950.0,1.0,,,,,,,,,magenta,flipped triangle
0.0,6.0,1.0,1.0,5.0,5.0,1245.3800969997246,7.0,1.0,phase_2,go,850.0,950.0,1.0,,,,,,,,,orange,triangle
0.0,3.0,2.0,0.0,6.0,6.0,496.7387859996961,8.0,1.0,phase_2,go,850.0,950.0,1.0,,,,,,,,,cyan,I
0.0,7.0,2.0,1.0,6.0,6.0,1170.471911000277,8.0,1.0,phase_2,stop,850.0,950.0,3.0,,,,,,,,,white,hexagon
0.0,5.0,0.5,1.0,6.0,6.0,1475.8082629996352,8.0,1.0,phase_2,go,850.0,900.0,1.0,,,,,,,,,gray,cross
0.0,7.0,2.0,1.0,5.0,0.0,0.0,8.0,1.0,phase_2,stop,850.0,900.0,4.0,,,,,,,,,white,hexagon
0.0,8.0,4.0,1.0,5.0,0.0,0.0,8.0,1.0,phase_2,stop,900.0,900.0,4.0,,,,,,,,,yellow,square
0.0,6.0,1.0,1.0,6.0,0.0,0.0,8.0,1.0,phase_2,stop,950.0,900.0,4.0,,,,,,,,,orange,triangle
0.0,6.0,1.0,1.0,6.0,6.0,1152.4821750008414,8.0,1.0,phase_2,go,950.0,950.0,1.0,,,,,,,,,orange,triangle
0.0,6.0,1.0,1.0,6.0,6.0,988.4473590009292,8.0,1.0,phase_2,stop,950.0,950.0,3.0,,,,,,,,,orange,triangle
0.0,5.0,0.5,1.0,6.0,0.0,0.0,8.0,1.0,phase_2,stop,950.0,900.0,4.0,,,,,,,,,gray,cross
0.0,5.0,0.5,1.0,6.0,6.0,1126.970858000277,8.0,1.0,phase_2,stop,950.0,950.0,3.0,,,,,,,,,gray,cross
0.0,7.0,2.0,1.0,5.0,5.0,944.969004000086,8.0,1.0,phase_2,go,950.0,900.0,1.0,,,,,,,,,white,hexagon
0.0,1.0,0.5,0.0,5.0,5.0,469.054873999994,8.0,1.0,phase_2,go,950.0,900.0,1.0,,,,,,,,,magenta,flipped triangle
0.0,4.0,4.0,0.0,6.0,6.0,401.8693710004299,8.0,1.0,phase_2,go,950.0,900.0,1.0,,,,,,,,,blue,circle
0.0,7.0,2.0,1.0,6.0,0.0,0.0,8.0,1.0,phase_2,stop,950.0,900.0,4.0,,,,,,,,,white,hexagon
0.0,4.0,4.0,0.0,6.0,6.0,476.5941730001941,8.0,1.0,phase_2,go,950.0,950.0,1.0,,,,,,,,,blue,circle
0.0,3.0,2.0,0.0,6.0,6.0,383.1803220000438,8.0,1.0,phase_2,go,950.0,950.0,1.0,,,,,,,,,cyan,I
0.0,1.0,0.5,0.0,6.0,6.0,400.950211998861,8.0,1.0,phase_2,go,950.0,950.0,1.0,,,,,,,,,magenta,flipped triangle
0.0,4.0,4.0,0.0,6.0,6.0,412.5527950000105,8.0,1.0,phase_2,go,950.0,950.0,1.0,,,,,,,,,blue,circle
0.0,8.0,4.0,1.0,6.0,0.0,0.0,8.0,1.0,phase_2,stop,950.0,950.0,4.0,,,,,,,,,yellow,square
0.0,5.0,0.5,1.0,6.0,6.0,1419.83521200018,8.0,1.0,phase_2,go,950.0,1000.0,1.0,,,,,,,,,gray,cross
0.0,1.0,0.5,0.0,5.0,5.0,439.8546860011265,8.0,1.0,phase_2,go,950.0,1000.0,1.0,,,,,,,,,magenta,flipped triangle
0.0,5.0,0.5,1.0,5.0,5.0,440.2649860003294,8.0,1.0,phase_2,stop,950.0,1000.0,3.0,,,,,,,,,gray,cross
0.0,7.0,2.0,1.0,5.0,0.0,0.0,8.0,1.0,phase_2,stop,900.0,1000.0,4.0,,,,,,,,,white,hexagon
0.0,4.0,4.0,0.0,6.0,6.0,495.9650209984829,8.0,1.0,phase_2,go,950.0,1000.0,1.0,,,,,,,,,blue,circle
0.0,2.0,1.0,0.0,6.0,6.0,485.8783649997349,8.0,1.0,phase_2,go,950.0,1000.0,1.0,,,,,,,,,green,diamond
0.0,6.0,1.0,1.0,5.0,5.0,354.4674700005998,8.0,1.0,phase_2,go,950.0,1000.0,1.0,,,,,,,,,orange,triangle
0.0,8.0,4.0,1.0,6.0,6.0,1168.7400810005784,8.0,1.0,phase_2,go,950.0,1000.0,1.0,,,,,,,,,yellow,square
0.0,7.0,2.0,1.0,6.0,0.0,0.0,8.0,1.0,phase_2,stop,950.0,1000.0,4.0,,,,,,,,,white,hexagon
0.0,4.0,4.0,0.0,6.0,6.0,383.0691590010247,8.0,1.0,phase_2,go,950.0,1050.0,1.0,,,,,,,,,blue,circle
0.0,3.0,2.0,0.0,6.0,6.0,411.1130569999659,8.0,1.0,phase_2,go,950.0,1050.0,1.0,,,,,,,,,cyan,I
0.0,2.0,1.0,0.0,5.0,5.0,363.8963789999252,8.0,1.0,phase_2,go,950.0,1050.0,1.0,,,,,,,,,green,diamond
0.0,5.0,0.5,1.0,6.0,6.0,419.7758440004691,8.0,1.0,phase_2,stop,950.0,1050.0,3.0,,,,,,,,,gray,cross
0.0,1.0,0.5,0.0,6.0,6.0,449.1503910012397,8.0,1.0,phase_2,go,950.0,1000.0,1.0,,,,,,,,,magenta,flipped triangle
0.0,7.0,2.0,1.0,6.0,6.0,1162.373374998424,8.0,1.0,phase_2,stop,950.0,1000.0,3.0,,,,,,,,,white,hexagon
0.0,8.0,4.0,1.0,6.0,0.0,0.0,8.0,1.0,phase_2,stop,950.0,950.0,4.0,,,,,,,,,yellow,square
0.0,8.0,4.0,1.0,5.0,5.0,858.6791809993883,8.0,1.0,phase_2,stop,950.0,1000.0,3.0,,,,,,,,,yellow,square
0.0,8.0,4.0,1.0,7.0,5.0,1288.1740350003383,1.0,2.0,phase_3,,,,,865.0,5.0,519.0,1038.0,173.0,346.0,865.0,692.0,yellow,square
0.0,2.0,1.0,0.0,7.0,6.0,2582.0201040005486,1.0,1.0,phase_3,,,,,696.0,6.0,464.0,232.0,348.0,580.0,116.0,696.0,green,diamond
0.0,6.0,1.0,1.0,7.0,4.0,1253.881664999426,1.0,1.0,phase_3,,,,,173.0,1.0,865.0,692.0,1038.0,173.0,519.0,346.0,orange,triangle
0.0,8.0,4.0,1.0,7.0,3.0,1389.361243998792,1.0,1.0,phase_3,,,,,580.0,5.0,348.0,464.0,580.0,232.0,116.0,696.0,yellow,square
0.0,6.0,1.0,1.0,7.0,5.0,1570.012318999943,1.0,1.0,phase_3,,,,,308.0,2.0,924.0,616.0,154.0,770.0,308.0,462.0,orange,triangle
0.0,4.0,4.0,0.0,7.0,5.0,1234.50702899936,1.0,1.0,phase_3,,,,,924.0,6.0,308.0,154.0,616.0,770.0,924.0,462.0,blue,circle
0.0,4.0,4.0,0.0,7.0,4.0,1479.9149990012666,1.0,1.0,phase_3,,,,,924.0,6.0,308.0,616.0,462.0,924.0,770.0,154.0,blue,circle
0.0,4.0,4.0,0.0,7.0,6.0,1224.5817439998063,1.0,1.0,phase_3,,,,,1038.0,6.0,173.0,865.0,346.0,692.0,519.0,1038.0,blue,circle
0.0,3.0,2.0,0.0,7.0,3.0,1505.4548540010728,1.0,1.0,phase_3,,,,,960.0,5.0,192.0,768.0,960.0,576.0,384.0,1152.0,cyan,I
0.0,1.0,0.5,0.0,7.0,4.0,1170.233824999741,1.0,1.0,phase_3,,,,,464.0,4.0,116.0,232.0,580.0,464.0,696.0,348.0,magenta,flipped triangle
0.0,3.0,2.0,0.0,7.0,2.0,1436.7847650009935,1.0,1.0,phase_3,,,,,768.0,4.0,384.0,768.0,192.0,576.0,1152.0,960.0,cyan,I
0.0,3.0,2.0,0.0,7.0,3.0,1802.689707001264,1.0,1.0,phase_3,,,,,675.0,5.0,540.0,270.0,675.0,405.0,135.0,810.0,cyan,I
0.0,4.0,4.0,0.0,7.0,1.0,2552.817648998825,1.0,1.0,phase_3,,,,,696.0,6.0,696.0,580.0,464.0,116.0,348.0,232.0,blue,circle
0.0,5.0,0.5,1.0,7.0,2.0,1413.7070199994923,1.0,1.0,phase_3,,,,,464.0,4.0,348.0,464.0,696.0,232.0,116.0,580.0,gray,cross
0.0,7.0,2.0,1.0,7.0,4.0,1827.021324999805,1.0,1.0,phase_3,,,,,519.0,3.0,173.0,692.0,346.0,519.0,1038.0,865.0,white,hexagon
0.0,5.0,0.5,1.0,7.0,2.0,2554.025768000429,1.0,1.0,phase_3,,,,,154.0,1.0,616.0,154.0,770.0,308.0,924.0,462.0,gray,cross
0.0,3.0,2.0,0.0,7.0,5.0,1799.6787709998898,1.0,1.0,phase_3,,,,,675.0,5.0,810.0,405.0,270.0,135.0,675.0,540.0,cyan,I
0.0,7.0,2.0,1.0,7.0,3.0,1931.236007001644,1.0,1.0,phase_3,,,,,540.0,4.0,810.0,270.0,540.0,675.0,135.0,405.0,white,hexagon
0.0,5.0,0.5,1.0,7.0,3.0,1358.3803479996277,1.0,1.0,phase_3,,,,,270.0,2.0,540.0,405.0,270.0,135.0,675.0,810.0,gray,cross
0.0,8.0,4.0,1.0,7.0,3.0,1121.1602879993734,1.0,1.0,phase_3,,,,,1152.0,6.0,192.0,960.0,1152.0,576.0,384.0,768.0,yellow,square
0.0,6.0,1.0,1.0,7.0,5.0,1385.4015919987432,2.0,1.0,phase_3,,,,,348.0,3.0,232.0,116.0,696.0,464.0,348.0,580.0,orange,triangle
0.0,6.0,1.0,1.0,7.0,4.0,1339.4205149998015,2.0,1.0,phase_3,,,,,346.0,2.0,173.0,519.0,865.0,346.0,692.0,1038.0,orange,triangle
0.0,1.0,0.5,0.0,7.0,1.0,2316.869557000245,2.0,1.0,phase_3,,,,,464.0,4.0,464.0,348.0,696.0,232.0,580.0,116.0,magenta,flipped triangle
0.0,2.0,1.0,0.0,7.0,2.0,1982.9962570001956,2.0,1.0,phase_3,,,,,616.0,4.0,462.0,616.0,770.0,924.0,154.0,308.0,green,diamond
0.0,1.0,0.5,0.0,7.0,5.0,1631.7738400011876,2.0,1.0,phase_3,,,,,576.0,3.0,384.0,192.0,960.0,768.0,576.0,1152.0,magenta,flipped triangle
0.0,7.0,2.0,1.0,7.0,3.0,1149.8246299997843,2.0,1.0,phase_3,,,,,616.0,4.0,770.0,924.0,616.0,154.0,462.0,308.0,white,hexagon
0.0,4.0,4.0,0.0,7.0,2.0,2609.781822999139,2.0,1.0,phase_3,,,,,696.0,6.0,116.0,696.0,232.0,580.0,464.0,348.0,blue,circle
0.0,6.0,1.0,1.0,7.0,3.0,1948.8888460000453,2.0,1.0,phase_3,,,,,192.0,1.0,768.0,1152.0,192.0,960.0,384.0,576.0,orange,triangle
0.0,7.0,2.0,1.0,7.0,5.0,2294.1048240008968,2.0,1.0,phase_3,,,,,576.0,3.0,384.0,1152.0,768.0,960.0,576.0,192.0,white,hexagon
0.0,6.0,1.0,1.0,7.0,2.0,2017.6257459988847,2.0,1.0,phase_3,,,,,384.0,2.0,960.0,384.0,576.0,768.0,192.0,1152.0,orange,triangle
0.0,1.0,0.5,0.0,7.0,2.0,2351.4372849986103,2.0,1.0,phase_3,,,,,462.0,3.0,154.0,462.0,308.0,616.0,924.0,770.0,magenta,flipped triangle
0.0,3.0,2.0,0.0,7.0,5.0,1877.857823999875,2.0,1.0,phase_3,,,,,770.0,5.0,616.0,924.0,462.0,154.0,770.0,308.0,cyan,I
0.0,1.0,0.5,0.0,7.0,3.0,1142.107292998844,2.0,1.0,phase_3,,,,,540.0,4.0,405.0,675.0,540.0,135.0,810.0,270.0,magenta,flipped triangle
0.0,1.0,0.5,0.0,7.0,5.0,1962.879309001437,2.0,1.0,phase_3,,,,,462.0,3.0,924.0,154.0,308.0,616.0,462.0,770.0,magenta,flipped triangle
0.0,1.0,0.5,0.0,7.0,6.0,1934.425415998703,2.0,1.0,phase_3,,,,,384.0,2.0,960.0,768.0,576.0,1152.0,192.0,384.0,magenta,flipped triangle
0.0,7.0,2.0,1.0,7.0,5.0,1134.486727998592,2.0,1.0,phase_3,,,,,696.0,6.0,348.0,116.0,232.0,464.0,696.0,580.0,white,hexagon
0.0,6.0,1.0,1.0,7.0,3.0,1573.613259000922,2.0,1.0,phase_3,,,,,348.0,3.0,232.0,696.0,348.0,580.0,464.0,116.0,orange,triangle
0.0,6.0,1.0,1.0,7.0,4.0,1737.310336999144,2.0,1.0,phase_3,,,,,462.0,3.0,154.0,770.0,616.0,462.0,924.0,308.0,orange,triangle
0.0,8.0,4.0,1.0,7.0,1.0,1355.021185001533,2.0,1.0,phase_3,,,,,1038.0,6.0,1038.0,346.0,173.0,692.0,865.0,519.0,yellow,square
0.0,4.0,4.0,0.0,7.0,2.0,1578.8145049991726,2.0,1.0,phase_3,,,,,810.0,6.0,540.0,810.0,675.0,135.0,405.0,270.0,blue,circle
0.0,5.0,0.5,1.0,7.0,4.0,1918.367847998525,3.0,1.0,phase_3,,,,,173.0,1.0,1038.0,865.0,519.0,173.0,692.0,346.0,gray,cross
0.0,6.0,1.0,1.0,7.0,2.0,2012.7839329998096,3.0,1.0,phase_3,,,,,405.0,3.0,540.0,405.0,135.0,810.0,675.0,270.0,orange,triangle
0.0,4.0,4.0,0.0,7.0,6.0,1078.6294230001658,3.0,1.0,phase_3,,,,,1152.0,6.0,576.0,192.0,384.0,960.0,768.0,1152.0,blue,circle
0.0,5.0,0.5,1.0,7.0,3.0,1704.7966049995011,3.0,1.0,phase_3,,,,,308.0,2.0,154.0,462.0,308.0,924.0,616.0,770.0,gray,cross
0.0,7.0,2.0,1.0,7.0,3.0,1097.1110359987506,3.0,1.0,phase_3,,,,,675.0,5.0,405.0,135.0,675.0,270.0,540.0,810.0,white,hexagon
0.0,8.0,4.0,1.0,7.0,4.0,1940.4560729999505,3.0,1.0,phase_3,,,,,116.0,1.0,348.0,232.0,580.0,116.0,464.0,696.0,yellow,square
0.0,2.0,1.0,0.0,7.0,5.0,1969.6461510011432,3.0,1.0,phase_3,,,,,576.0,3.0,768.0,1152.0,192.0,960.0,576.0,384.0,green,diamond
0.0,7.0,2.0,1.0,7.0,2.0,1812.7676060012163,3.0,1.0,phase_3,,,,,696.0,6.0,348.0,696.0,464.0,116.0,580.0,232.0,white,hexagon
0.0,2.0,1.0,0.0,7.0,4.0,1391.1824990009336,3.0,1.0,phase_3,,,,,308.0,2.0,462.0,770.0,924.0,308.0,154.0,616.0,green,diamond
0.0,8.0,4.0,1.0,7.0,5.0,1048.88625500098,3.0,1.0,phase_3,,,,,1152.0,6.0,768.0,960.0,576.0,192.0,1152.0,384.0,yellow,square
0.0,1.0,0.5,0.0,7.0,2.0,2395.6412150000688,3.0,1.0,phase_3,,,,,405.0,3.0,540.0,405.0,675.0,135.0,810.0,270.0,magenta,flipped triangle
0.0,2.0,1.0,0.0,7.0,3.0,1453.5682530004124,3.0,1.0,phase_3,,,,,464.0,4.0,348.0,580.0,464.0,232.0,116.0,696.0,green,diamond
0.0,2.0,1.0,0.0,7.0,4.0,1299.8216899995896,3.0,1.0,phase_3,,,,,519.0,3.0,346.0,1038.0,865.0,519.0,173.0,692.0,green,diamond
0.0,8.0,4.0,1.0,7.0,3.0,1940.7778610002424,3.0,1.0,phase_3,,,,,810.0,6.0,270.0,405.0,810.0,540.0,135.0,675.0,yellow,square
0.0,3.0,2.0,0.0,7.0,6.0,1680.213346000528,3.0,1.0,phase_3,,,,,616.0,4.0,770.0,924.0,154.0,308.0,462.0,616.0,cyan,I
0.0,7.0,2.0,1.0,7.0,4.0,1206.2681459992746,3.0,1.0,phase_3,,,,,462.0,3.0,770.0,616.0,154.0,462.0,308.0,924.0,white,hexagon
0.0,5.0,0.5,1.0,7.0,5.0,1560.62135799948,3.0,1.0,phase_3,,,,,135.0,1.0,405.0,675.0,270.0,540.0,135.0,810.0,gray,cross
0.0,2.0,1.0,0.0,7.0,5.0,1130.7990909990622,3.0,1.0,phase_3,,,,,540.0,4.0,810.0,675.0,135.0,270.0,540.0,405.0,green,diamond
0.0,4.0,4.0,0.0,7.0,3.0,1020.4785280002395,3.0,1.0,phase_3,,,,,1152.0,6.0,384.0,576.0,1152.0,960.0,192.0,768.0,blue,circle
0.0,1.0,0.5,0.0,7.0,2.0,1272.1001640002214,3.0,1.0,phase_3,,,,,346.0,2.0,865.0,346.0,519.0,173.0,1038.0,692.0,magenta,flipped triangle
0.0,3.0,2.0,0.0,7.0,4.0,1409.8550969993084,4.0,1.0,phase_3,,,,,865.0,5.0,692.0,346.0,1038.0,865.0,173.0,519.0,cyan,I
0.0,4.0,4.0,0.0,7.0,6.0,1531.8174029998772,4.0,1.0,phase_3,,,,,810.0,6.0,270.0,135.0,675.0,405.0,540.0,810.0,blue,circle
0.0,2.0,1.0,0.0,7.0,5.0,845.5872229988017,4.0,1.0,phase_3,,,,,384.0,2.0,1152.0,192.0,768.0,576.0,384.0,960.0,green,diamond
0.0,5.0,0.5,1.0,7.0,3.0,1273.1543379995856,4.0,1.0,phase_3,,,,,346.0,2.0,173.0,519.0,346.0,1038.0,692.0,865.0,gray,cross
0.0,8.0,4.0,1.0,7.0,1.0,1349.6299510006793,4.0,1.0,phase_3,,,,,770.0,5.0,770.0,616.0,308.0,924.0,154.0,462.0,yellow,square
0.0,8.0,4.0,1.0,7.0,2.0,1923.907125999904,4.0,1.0,phase_3,,,,,675.0,5.0,270.0,675.0,540.0,135.0,405.0,810.0,yellow,square
0.0,8.0,4.0,1.0,7.0,2.0,1894.4316640008765,4.0,1.0,phase_3,,,,,924.0,6.0,462.0,924.0,770.0,308.0,616.0,154.0,yellow,square
0.0,3.0,2.0,0.0,7.0,2.0,1998.945946999811,4.0,1.0,phase_3,,,,,696.0,6.0,116.0,696.0,348.0,580.0,464.0,232.0,cyan,I
0.0,5.0,0.5,1.0,7.0,4.0,2033.2448970002588,4.0,1.0,phase_3,,,,,384.0,2.0,192.0,960.0,576.0,384.0,1152.0,768.0,gray,cross
0.0,5.0,0.5,1.0,7.0,3.0,949.7412630007602,4.0,1.0,phase_3,,,,,348.0,3.0,232.0,464.0,348.0,580.0,696.0,116.0,gray,cross
0.0,3.0,2.0,0.0,7.0,4.0,780.7157809984346,4.0,1.0,phase_3,,,,,519.0,3.0,865.0,1038.0,692.0,519.0,346.0,173.0,cyan,I
0.0,1.0,0.5,0.0,7.0,5.0,1883.5796270013816,4.0,1.0,phase_3,,,,,346.0,2.0,1038.0,519.0,173.0,865.0,346.0,692.0,magenta,flipped triangle
0.0,2.0,1.0,0.0,7.0,2.0,1205.9705589999794,4.0,1.0,phase_3,,,,,519.0,3.0,346.0,519.0,173.0,1038.0,865.0,692.0,green,diamond
0.0,2.0,1.0,0.0,7.0,2.0,1179.2601619999914,4.0,1.0,phase_3,,,,,405.0,3.0,270.0,405.0,810.0,135.0,540.0,675.0,green,diamond
0.0,4.0,4.0,0.0,7.0,3.0,1098.8723849986854,4.0,1.0,phase_3,,,,,1038.0,6.0,346.0,173.0,1038.0,865.0,519.0,692.0,blue,circle
0.0,5.0,0.5,1.0,7.0,4.0,799.8866079997242,4.0,1.0,phase_3,,,,,384.0,2.0,576.0,192.0,768.0,384.0,1152.0,960.0,gray,cross
0.0,6.0,1.0,1.0,7.0,4.0,995.0475850000656,4.0,1.0,phase_3,,,,,270.0,2.0,675.0,540.0,810.0,270.0,405.0,135.0,orange,triangle
0.0,3.0,2.0,0.0,7.0,2.0,1051.3935119997768,4.0,1.0,phase_3,,,,,696.0,6.0,232.0,696.0,116.0,464.0,348.0,580.0,cyan,I
0.0,7.0,2.0,1.0,7.0,4.0,1654.3652260006638,4.0,1.0,phase_3,,,,,173.0,1.0,346.0,865.0,1038.0,173.0,692.0,519.0,white,hexagon
0.0,7.0,2.0,1.0,7.0,4.0,2641.2012340006186,4.0,1.0,phase_3,,,,,768.0,4.0,960.0,384.0,192.0,768.0,1152.0,576.0,white,hexagon
