raw_reward_magnitude,stim_reward,stepwise_reward_magnitude,paired_with_stopping,stim_location,response,reaction_time,block,num_trial_presentations,which_phase,stop_signal_trial_type,left_SSD,right_SSD,accuracy,chosen_bidding_amount,chosen_bidding_level,possible_bid_1,possible_bid_2,possible_bid_3,possible_bid_4,possible_bid_5,possible_bid_6,color_text,shape_text
0.0,7.0,0.0,1.0,3.0,3.0,537.0665529999314,1.0,2.0,phase_1,,,,,,,,,,,,,gray,I
344.0,2.0,2.0,0.0,4.0,4.0,959.3333320003694,1.0,4.0,phase_1,,,,,,,,,,,,,cyan,cross
174.0,5.0,1.0,1.0,2.0,2.0,333.7194089999684,1.0,2.0,phase_1,,,,,,,,,,,,,yellow,flipped triangle
667.0,7.0,3.0,1.0,1.0,1.0,270.0626890000421,1.0,2.0,phase_1,,,,,,,,,,,,,gray,I
0.0,4.0,0.0,0.0,3.0,3.0,231.4968760001647,1.0,2.0,phase_1,,,,,,,,,,,,,white,square
315.0,2.0,2.0,0.0,4.0,4.0,445.8384290001049,1.0,2.0,phase_1,,,,,,,,,,,,,cyan,cross
1322.0,8.0,4.0,1.0,3.0,3.0,333.4484439997141,1.0,2.0,phase_1,,,,,,,,,,,,,blue,hexagon
151.0,1.0,1.0,0.0,4.0,4.0,333.0498690002059,1.0,2.0,phase_1,,,,,,,,,,,,,magenta,diamond
652.0,3.0,3.0,0.0,4.0,4.0,689.582818999952,1.0,1.0,phase_1,,,,,,,,,,,,,orange,triangle
667.0,3.0,3.0,0.0,4.0,4.0,455.4800910000267,1.0,1.0,phase_1,,,,,,,,,,,,,orange,triangle
0.0,7.0,0.0,1.0,3.0,3.0,638.1671980002466,1.0,1.0,phase_1,,,,,,,,,,,,,gray,I
337.0,2.0,2.0,0.0,3.0,3.0,575.7632869999725,1.0,1.0,phase_1,,,,,,,,,,,,,cyan,cross
662.0,3.0,3.0,0.0,2.0,2.0,289.786033999917,1.0,2.0,phase_1,,,,,,,,,,,,,orange,triangle
659.0,7.0,3.0,1.0,4.0,4.0,557.8773219999675,1.0,1.0,phase_1,,,,,,,,,,,,,gray,I
0.0,5.0,0.0,1.0,2.0,2.0,390.8537679999426,1.0,2.0,phase_1,,,,,,,,,,,,,yellow,flipped triangle
167.0,5.0,1.0,1.0,1.0,1.0,214.2051519999768,1.0,2.0,phase_1,,,,,,,,,,,,,yellow,flipped triangle
1325.0,8.0,4.0,1.0,4.0,4.0,677.2238060002564,1.0,1.0,phase_1,,,,,,,,,,,,,blue,hexagon
644.0,3.0,3.0,0.0,2.0,2.0,745.0192749997768,1.0,1.0,phase_1,,,,,,,,,,,,,orange,triangle
151.0,5.0,1.0,1.0,1.0,1.0,994.8549160003496,1.0,1.0,phase_1,,,,,,,,,,,,,yellow,flipped triangle
1290.0,4.0,4.0,0.0,2.0,2.0,483.17121199988827,1.0,2.0,phase_1,,,,,,,,,,,,,white,square
1294.0,4.0,4.0,0.0,2.0,2.0,474.6002050001152,1.0,1.0,phase_1,,,,,,,,,,,,,white,square
309.0,2.0,2.0,0.0,1.0,1.0,566.5981289998854,1.0,1.0,phase_1,,,,,,,,,,,,,cyan,cross
145.0,5.0,1.0,1.0,4.0,4.0,352.1210159997281,1.0,2.0,phase_1,,,,,,,,,,,,,yellow,flipped triangle
1317.0,8.0,4.0,1.0,3.0,3.0,659.8462430001746,1.0,2.0,phase_1,,,,,,,,,,,,,blue,hexagon
1284.0,4.0,4.0,0.0,1.0,1.0,260.0766539999313,1.0,2.0,phase_1,,,,,,,,,,,,,white,square
650.0,7.0,3.0,1.0,3.0,3.0,250.8583230001022,1.0,2.0,phase_1,,,,,,,,,,,,,gray,I
164.0,5.0,1.0,1.0,4.0,4.0,260.0577430002886,1.0,2.0,phase_1,,,,,,,,,,,,,yellow,flipped triangle
171.0,5.0,1.0,1.0,4.0,4.0,269.5877289997952,1.0,2.0,phase_1,,,,,,,,,,,,,yellow,flipped triangle
669.0,7.0,3.0,1.0,4.0,4.0,938.5320420001336,1.0,1.0,phase_1,,,,,,,,,,,,,gray,I
640.0,3.0,3.0,0.0,2.0,2.0,418.4505789999093,1.0,3.0,phase_1,,,,,,,,,,,,,orange,triangle
167.0,1.0,1.0,0.0,4.0,4.0,531.741079999847,1.0,2.0,phase_1,,,,,,,,,,,,,magenta,diamond
337.0,2.0,2.0,0.0,1.0,1.0,510.87013500000467,1.0,1.0,phase_1,,,,,,,,,,,,,cyan,cross
634.0,7.0,3.0,1.0,4.0,4.0,998.319145000096,1.0,1.0,phase_1,,,,,,,,,,,,,gray,I
1299.0,8.0,4.0,1.0,2.0,2.0,868.1450060003044,1.0,2.0,phase_1,,,,,,,,,,,,,blue,hexagon
0.0,1.0,0.0,0.0,1.0,1.0,406.8249010001636,1.0,3.0,phase_1,,,,,,,,,,,,,magenta,diamond
162.0,5.0,1.0,1.0,4.0,4.0,388.3226099997046,1.0,2.0,phase_1,,,,,,,,,,,,,yellow,flipped triangle
341.0,2.0,2.0,0.0,2.0,2.0,622.1145429999524,1.0,1.0,phase_1,,,,,,,,,,,,,cyan,cross
650.0,3.0,3.0,0.0,3.0,3.0,279.5735800000329,1.0,4.0,phase_1,,,,,,,,,,,,,orange,triangle
162.0,1.0,1.0,0.0,1.0,1.0,494.7139559999414,1.0,4.0,phase_1,,,,,,,,,,,,,magenta,diamond
0.0,5.0,0.0,1.0,2.0,2.0,510.0217720000728,1.0,1.0,phase_1,,,,,,,,,,,,,yellow,flipped triangle
183.0,5.0,1.0,1.0,3.0,3.0,992.178445999798,1.0,1.0,phase_1,,,,,,,,,,,,,yellow,flipped triangle
0.0,1.0,0.0,0.0,3.0,3.0,492.1158140000443,1.0,1.0,phase_1,,,,,,,,,,,,,magenta,diamond
639.0,3.0,3.0,0.0,3.0,3.0,463.8850790001925,1.0,1.0,phase_1,,,,,,,,,,,,,orange,triangle
1285.0,4.0,4.0,0.0,1.0,1.0,787.8332079999382,1.0,1.0,phase_1,,,,,,,,,,,,,white,square
312.0,6.0,2.0,1.0,4.0,4.0,603.0664250001792,1.0,2.0,phase_1,,,,,,,,,,,,,green,circle
639.0,7.0,3.0,1.0,2.0,2.0,610.0834289995873,1.0,3.0,phase_1,,,,,,,,,,,,,gray,I
344.0,2.0,2.0,0.0,1.0,1.0,472.1980559997973,1.0,2.0,phase_1,,,,,,,,,,,,,cyan,cross
0.0,4.0,0.0,0.0,1.0,1.0,932.6235900002756,1.0,1.0,phase_1,,,,,,,,,,,,,white,square
0.0,8.0,0.0,1.0,4.0,4.0,997.059640000316,1.0,1.0,phase_1,,,,,,,,,,,,,blue,hexagon
672.0,3.0,3.0,0.0,4.0,4.0,548.9103400000204,1.0,1.0,phase_1,,,,,,,,,,,,,orange,triangle
627.0,7.0,3.0,1.0,4.0,4.0,446.267994000209,1.0,1.0,phase_1,,,,,,,,,,,,,gray,I
670.0,3.0,3.0,0.0,3.0,3.0,410.0668930000211,1.0,2.0,phase_1,,,,,,,,,,,,,orange,triangle
0.0,7.0,0.0,1.0,3.0,3.0,427.8649480002059,1.0,1.0,phase_1,,,,,,,,,,,,,gray,I
152.0,1.0,1.0,0.0,2.0,2.0,307.4590260002878,1.0,2.0,phase_1,,,,,,,,,,,,,magenta,diamond
1320.0,8.0,4.0,1.0,1.0,1.0,712.2833929997796,1.0,1.0,phase_1,,,,,,,,,,,,,blue,hexagon
667.0,7.0,3.0,1.0,2.0,2.0,610.945184999764,1.0,1.0,phase_1,,,,,,,,,,,,,gray,I
0.0,6.0,0.0,1.0,1.0,1.0,400.586282000404,1.0,1.0,phase_1,,,,,,,,,,,,,green,circle
662.0,7.0,3.0,1.0,1.0,1.0,484.0150700001686,1.0,1.0,phase_1,,,,,,,,,,,,,gray,I
1277.0,4.0,4.0,0.0,4.0,4.0,446.6527230001702,1.0,2.0,phase_1,,,,,,,,,,,,,white,square
630.0,3.0,3.0,0.0,3.0,3.0,298.2605800002602,1.0,2.0,phase_1,,,,,,,,,,,,,orange,triangle
0.0,5.0,0.0,1.0,1.0,1.0,483.3737379999547,1.0,1.0,phase_1,,,,,,,,,,,,,yellow,flipped triangle
1318.0,8.0,4.0,1.0,4.0,4.0,937.6004040000224,1.0,1.0,phase_1,,,,,,,,,,,,,blue,hexagon
638.0,3.0,3.0,0.0,2.0,2.0,371.4286879999235,1.0,2.0,phase_1,,,,,,,,,,,,,orange,triangle
0.0,3.0,0.0,0.0,1.0,1.0,980.7488739998008,1.0,1.0,phase_1,,,,,,,,,,,,,orange,triangle
0.0,2.0,0.0,0.0,1.0,1.0,436.6164570001274,1.0,1.0,phase_1,,,,,,,,,,,,,cyan,cross
180.0,1.0,1.0,0.0,1.0,1.0,397.6356769999256,1.0,1.0,phase_1,,,,,,,,,,,,,magenta,diamond
310.0,2.0,2.0,0.0,3.0,3.0,306.5934049996031,1.0,2.0,phase_1,,,,,,,,,,,,,cyan,cross
0.0,7.0,0.0,1.0,4.0,4.0,296.6973359998519,1.0,2.0,phase_1,,,,,,,,,,,,,gray,I
669.0,3.0,3.0,0.0,3.0,3.0,558.927987000061,1.0,1.0,phase_1,,,,,,,,,,,,,orange,triangle
312.0,6.0,2.0,1.0,3.0,3.0,455.9722709996094,1.0,1.0,phase_1,,,,,,,,,,,,,green,circle
1301.0,8.0,4.0,1.0,2.0,2.0,352.8615949999221,1.0,2.0,phase_1,,,,,,,,,,,,,blue,hexagon
647.0,7.0,3.0,1.0,3.0,3.0,948.2511699998212,1.0,1.0,phase_1,,,,,,,,,,,,,gray,I
0.0,6.0,0.0,1.0,2.0,2.0,259.3394279997483,1.0,2.0,phase_1,,,,,,,,,,,,,green,circle
184.0,1.0,1.0,0.0,2.0,2.0,613.5375039998507,1.0,1.0,phase_1,,,,,,,,,,,,,magenta,diamond
178.0,1.0,1.0,0.0,3.0,3.0,936.547776000225,1.0,1.0,phase_1,,,,,,,,,,,,,magenta,diamond
1312.0,8.0,4.0,1.0,2.0,2.0,295.9370799999306,1.0,2.0,phase_1,,,,,,,,,,,,,blue,hexagon
0.0,5.0,0.0,1.0,2.0,2.0,464.6576560003268,1.0,1.0,phase_1,,,,,,,,,,,,,yellow,flipped triangle
149.0,5.0,1.0,1.0,4.0,4.0,316.0841090002577,1.0,2.0,phase_1,,,,,,,,,,,,,yellow,flipped triangle
309.0,6.0,2.0,1.0,1.0,1.0,454.1291989999081,1.0,1.0,phase_1,,,,,,,,,,,,,green,circle
0.0,4.0,0.0,0.0,4.0,4.0,482.6466720001008,1.0,1.0,phase_1,,,,,,,,,,,,,white,square
182.0,1.0,1.0,0.0,3.0,3.0,398.2698899999377,1.0,2.0,phase_1,,,,,,,,,,,,,magenta,diamond
1325.0,4.0,4.0,0.0,2.0,2.0,278.6219589997927,1.0,2.0,phase_1,,,,,,,,,,,,,white,square
646.0,3.0,3.0,0.0,1.0,1.0,268.4348379998482,1.0,2.0,phase_1,,,,,,,,,,,,,orange,triangle
164.0,1.0,1.0,0.0,2.0,2.0,873.635947999901,1.0,1.0,phase_1,,,,,,,,,,,,,magenta,diamond
1277.0,8.0,4.0,1.0,4.0,4.0,898.0903729998317,1.0,1.0,phase_1,,,,,,,,,,,,,blue,hexagon
327.0,2.0,2.0,0.0,2.0,2.0,501.3717970000471,1.0,1.0,phase_1,,,,,,,,,,,,,cyan,cross
0.0,1.0,0.0,0.0,1.0,1.0,919.8819199996252,1.0,1.0,phase_1,,,,,,,,,,,,,magenta,diamond
672.0,7.0,3.0,1.0,1.0,1.0,583.9939570000752,1.0,1.0,phase_1,,,,,,,,,,,,,gray,I
0.0,3.0,0.0,0.0,1.0,1.0,444.3078799999966,1.0,1.0,phase_1,,,,,,,,,,,,,orange,triangle
0.0,7.0,0.0,1.0,4.0,4.0,889.1089050002847,1.0,1.0,phase_1,,,,,,,,,,,,,gray,I
1306.0,4.0,4.0,0.0,3.0,3.0,444.5918119999987,1.0,2.0,phase_1,,,,,,,,,,,,,white,square
0.0,2.0,0.0,0.0,4.0,4.0,298.3020659999056,1.0,2.0,phase_1,,,,,,,,,,,,,cyan,cross
0.0,6.0,0.0,1.0,4.0,4.0,797.6736659998096,1.0,1.0,phase_1,,,,,,,,,,,,,green,circle
1277.0,8.0,4.0,1.0,3.0,3.0,547.1978660002605,1.0,1.0,phase_1,,,,,,,,,,,,,blue,hexagon
0.0,3.0,0.0,0.0,3.0,3.0,430.7158460001119,1.0,1.0,phase_1,,,,,,,,,,,,,orange,triangle
0.0,1.0,0.0,0.0,2.0,2.0,351.9706289998794,1.0,2.0,phase_1,,,,,,,,,,,,,magenta,diamond
653.0,7.0,3.0,1.0,2.0,2.0,556.2204559996644,1.0,1.0,phase_1,,,,,,,,,,,,,gray,I
0.0,2.0,0.0,0.0,1.0,1.0,945.0751180002044,1.0,1.0,phase_1,,,,,,,,,,,,,cyan,cross
1297.0,4.0,4.0,0.0,1.0,1.0,371.6413180000018,1.0,1.0,phase_1,,,,,,,,,,,,,white,square
650.0,3.0,3.0,0.0,3.0,3.0,955.195881000236,1.0,1.0,phase_1,,,,,,,,,,,,,orange,triangle
167.0,1.0,1.0,0.0,4.0,4.0,454.8394210000879,2.0,2.0,phase_1,,,,,,,,,,,,,magenta,diamond
626.0,7.0,3.0,1.0,1.0,1.0,938.4849660000328,2.0,1.0,phase_1,,,,,,,,,,,,,gray,I
301.0,6.0,2.0,1.0,2.0,2.0,583.9502290000382,2.0,1.0,phase_1,,,,,,,,,,,,,green,circle
0.0,5.0,0.0,1.0,3.0,3.0,807.5258339999891,2.0,2.0,phase_1,,,,,,,,,,,,,yellow,flipped triangle
322.0,2.0,2.0,0.0,3.0,3.0,528.5570969999753,2.0,1.0,phase_1,,,,,,,,,,,,,cyan,cross
337.0,6.0,2.0,1.0,1.0,1.0,583.7479930000882,2.0,1.0,phase_1,,,,,,,,,,,,,green,circle
650.0,7.0,3.0,1.0,4.0,4.0,741.9721749997734,2.0,1.0,phase_1,,,,,,,,,,,,,gray,I
301.0,2.0,2.0,0.0,4.0,4.0,539.7203090001312,2.0,1.0,phase_1,,,,,,,,,,,,,cyan,cross
303.0,6.0,2.0,1.0,2.0,2.0,455.0099000002774,2.0,2.0,phase_1,,,,,,,,,,,,,green,circle
345.0,2.0,2.0,0.0,2.0,2.0,509.68242299995836,2.0,1.0,phase_1,,,,,,,,,,,,,cyan,cross
1312.0,4.0,4.0,0.0,4.0,4.0,509.9650269999074,2.0,2.0,phase_1,,,,,,,,,,,,,white,square
1277.0,4.0,4.0,0.0,4.0,4.0,445.2898059998915,2.0,1.0,phase_1,,,,,,,,,,,,,white,square
337.0,6.0,2.0,1.0,4.0,4.0,465.0662760000159,2.0,1.0,phase_1,,,,,,,,,,,,,green,circle
1325.0,4.0,4.0,0.0,2.0,2.0,778.8244980001764,2.0,3.0,phase_1,,,,,,,,,,,,,white,square
145.0,1.0,1.0,0.0,3.0,3.0,585.3293770001073,2.0,2.0,phase_1,,,,,,,,,,,,,magenta,diamond
654.0,7.0,3.0,1.0,2.0,2.0,306.6722130001835,2.0,2.0,phase_1,,,,,,,,,,,,,gray,I
319.0,2.0,2.0,0.0,1.0,1.0,980.0267649998204,2.0,1.0,phase_1,,,,,,,,,,,,,cyan,cross
144.0,5.0,1.0,1.0,2.0,2.0,667.7172869999595,2.0,2.0,phase_1,,,,,,,,,,,,,yellow,flipped triangle
315.0,6.0,2.0,1.0,2.0,2.0,464.8309030003474,2.0,1.0,phase_1,,,,,,,,,,,,,green,circle
155.0,5.0,1.0,1.0,3.0,3.0,371.3018370003738,2.0,1.0,phase_1,,,,,,,,,,,,,yellow,flipped triangle
0.0,6.0,0.0,1.0,2.0,2.0,991.8132249999873,2.0,1.0,phase_1,,,,,,,,,,,,,green,circle
640.0,3.0,3.0,0.0,2.0,2.0,565.6779320001988,2.0,1.0,phase_1,,,,,,,,,,,,,orange,triangle
628.0,7.0,3.0,1.0,1.0,1.0,624.8065210002096,2.0,1.0,phase_1,,,,,,,,,,,,,gray,I
350.0,2.0,2.0,0.0,1.0,1.0,400.762747999579,2.0,1.0,phase_1,,,,,,,,,,,,,cyan,cross
1286.0,8.0,4.0,1.0,3.0,3.0,900.6897639997078,2.0,1.0,phase_1,,,,,,,,,,,,,blue,hexagon
1322.0,4.0,4.0,0.0,2.0,2.0,976.207956000053,2.0,1.0,phase_1,,,,,,,,,,,,,white,square
0.0,7.0,0.0,1.0,4.0,4.0,437.5360990002264,2.0,2.0,phase_1,,,,,,,,,,,,,gray,I
0.0,7.0,0.0,1.0,4.0,4.0,698.8865329999498,2.0,1.0,phase_1,,,,,,,,,,,,,gray,I
343.0,6.0,2.0,1.0,1.0,1.0,556.5252979999968,2.0,1.0,phase_1,,,,,,,,,,,,,green,circle
664.0,7.0,3.0,1.0,3.0,3.0,697.8318749997925,2.0,1.0,phase_1,,,,,,,,,,,,,gray,I
628.0,7.0,3.0,1.0,4.0,4.0,641.679779000242,2.0,1.0,phase_1,,,,,,,,,,,,,gray,I
167.0,5.0,1.0,1.0,3.0,3.0,714.1796159999103,2.0,1.0,phase_1,,,,,,,,,,,,,yellow,flipped triangle
1324.0,4.0,4.0,0.0,1.0,1.0,796.7138379999597,2.0,1.0,phase_1,,,,,,,,,,,,,white,square
640.0,7.0,3.0,1.0,2.0,2.0,603.3752729999833,2.0,1.0,phase_1,,,,,,,,,,,,,gray,I
1286.0,4.0,4.0,0.0,2.0,2.0,574.3563239998366,2.0,1.0,phase_1,,,,,,,,,,,,,white,square
152.0,5.0,1.0,1.0,2.0,2.0,343.574043999979,2.0,1.0,phase_1,,,,,,,,,,,,,yellow,flipped triangle
0.0,4.0,0.0,0.0,4.0,4.0,362.8623619997597,2.0,2.0,phase_1,,,,,,,,,,,,,white,square
325.0,6.0,2.0,1.0,3.0,3.0,806.4322949999223,2.0,1.0,phase_1,,,,,,,,,,,,,green,circle
184.0,5.0,1.0,1.0,1.0,1.0,545.9378319997086,2.0,1.0,phase_1,,,,,,,,,,,,,yellow,flipped triangle
0.0,8.0,0.0,1.0,4.0,4.0,731.9518869999229,2.0,2.0,phase_1,,,,,,,,,,,,,blue,hexagon
1282.0,4.0,4.0,0.0,2.0,2.0,362.157482999919,2.0,2.0,phase_1,,,,,,,,,,,,,white,square
1282.0,8.0,4.0,1.0,1.0,1.0,364.2023840002366,2.0,1.0,phase_1,,,,,,,,,,,,,blue,hexagon
1304.0,4.0,4.0,0.0,4.0,4.0,889.4714339999155,2.0,1.0,phase_1,,,,,,,,,,,,,white,square
1319.0,8.0,4.0,1.0,3.0,3.0,963.3848420003231,2.0,1.0,phase_1,,,,,,,,,,,,,blue,hexagon
652.0,3.0,3.0,0.0,1.0,1.0,992.187262999778,2.0,1.0,phase_1,,,,,,,,,,,,,orange,triangle
1307.0,4.0,4.0,0.0,3.0,3.0,724.8118119996434,2.0,1.0,phase_1,,,,,,,,,,,,,white,square
337.0,6.0,2.0,1.0,2.0,2.0,509.5887640000001,2.0,1.0,phase_1,,,,,,,,,,,,,green,circle
1301.0,4.0,4.0,0.0,3.0,3.0,676.5174460001617,2.0,1.0,phase_1,,,,,,,,,,,,,white,square
148.0,5.0,1.0,1.0,2.0,2.0,548.3284979995915,2.0,2.0,phase_1,,,,,,,,,,,,,yellow,flipped triangle
0.0,4.0,0.0,0.0,4.0,4.0,898.5662509999202,2.0,1.0,phase_1,,,,,,,,,,,,,white,square
638.0,7.0,3.0,1.0,2.0,2.0,464.5568790001562,2.0,2.0,phase_1,,,,,,,,,,,,,gray,I
1297.0,8.0,4.0,1.0,3.0,3.0,684.7656710001502,2.0,1.0,phase_1,,,,,,,,,,,,,blue,hexagon
327.0,6.0,2.0,1.0,4.0,4.0,964.958642000056,2.0,1.0,phase_1,,,,,,,,,,,,,green,circle
0.0,3.0,0.0,0.0,1.0,1.0,464.3987280001056,2.0,2.0,phase_1,,,,,,,,,,,,,orange,triangle
0.0,1.0,0.0,0.0,2.0,2.0,703.5061569999925,2.0,1.0,phase_1,,,,,,,,,,,,,magenta,diamond
664.0,7.0,3.0,1.0,2.0,2.0,743.365152000024,2.0,1.0,phase_1,,,,,,,,,,,,,gray,I
1285.0,8.0,4.0,1.0,3.0,3.0,749.5100450000791,2.0,1.0,phase_1,,,,,,,,,,,,,blue,hexagon
301.0,6.0,2.0,1.0,4.0,4.0,695.1156190002621,2.0,2.0,phase_1,,,,,,,,,,,,,green,circle
350.0,6.0,2.0,1.0,4.0,4.0,529.8718879998887,2.0,1.0,phase_1,,,,,,,,,,,,,green,circle
1312.0,8.0,4.0,1.0,1.0,1.0,587.151318999986,2.0,1.0,phase_1,,,,,,,,,,,,,blue,hexagon
659.0,3.0,3.0,0.0,1.0,1.0,419.9477100000877,2.0,1.0,phase_1,,,,,,,,,,,,,orange,triangle
172.0,5.0,1.0,1.0,4.0,4.0,946.044651000193,2.0,1.0,phase_1,,,,,,,,,,,,,yellow,flipped triangle
673.0,7.0,3.0,1.0,1.0,1.0,484.0601040000365,2.0,1.0,phase_1,,,,,,,,,,,,,gray,I
1300.0,8.0,4.0,1.0,3.0,3.0,669.555038999988,2.0,1.0,phase_1,,,,,,,,,,,,,blue,hexagon
659.0,3.0,3.0,0.0,4.0,4.0,427.2499190001326,2.0,2.0,phase_1,,,,,,,,,,,,,orange,triangle
145.0,5.0,1.0,1.0,1.0,1.0,824.4757099996605,2.0,1.0,phase_1,,,,,,,,,,,,,yellow,flipped triangle
1292.0,4.0,4.0,0.0,1.0,1.0,529.702508000355,2.0,2.0,phase_1,,,,,,,,,,,,,white,square
345.0,6.0,2.0,1.0,2.0,2.0,629.8880540002756,2.0,1.0,phase_1,,,,,,,,,,,,,green,circle
184.0,1.0,1.0,0.0,3.0,3.0,611.7906419999599,2.0,1.0,phase_1,,,,,,,,,,,,,magenta,diamond
320.0,2.0,2.0,0.0,3.0,3.0,593.4215289998974,2.0,1.0,phase_1,,,,,,,,,,,,,cyan,cross
152.0,5.0,1.0,1.0,3.0,3.0,539.3484520000129,2.0,1.0,phase_1,,,,,,,,,,,,,yellow,flipped triangle
1284.0,4.0,4.0,0.0,2.0,2.0,648.1378849998691,2.0,1.0,phase_1,,,,,,,,,,,,,white,square
182.0,5.0,1.0,1.0,2.0,2.0,527.6680189999752,2.0,1.0,phase_1,,,,,,,,,,,,,yellow,flipped triangle
0.0,4.0,0.0,0.0,3.0,3.0,686.432337000042,2.0,1.0,phase_1,,,,,,,,,,,,,white,square
1309.0,8.0,4.0,1.0,2.0,2.0,584.739656000238,2.0,1.0,phase_1,,,,,,,,,,,,,blue,hexagon
1319.0,4.0,4.0,0.0,1.0,1.0,651.9779089999247,2.0,1.0,phase_1,,,,,,,,,,,,,white,square
0.0,8.0,0.0,1.0,2.0,2.0,620.1286470000014,2.0,1.0,phase_1,,,,,,,,,,,,,blue,hexagon
635.0,3.0,3.0,0.0,2.0,2.0,655.9624419996908,2.0,1.0,phase_1,,,,,,,,,,,,,orange,triangle
637.0,3.0,3.0,0.0,4.0,4.0,907.6200330000574,2.0,1.0,phase_1,,,,,,,,,,,,,orange,triangle
315.0,6.0,2.0,1.0,3.0,3.0,832.7804340001421,2.0,1.0,phase_1,,,,,,,,,,,,,green,circle
183.0,1.0,1.0,0.0,2.0,2.0,685.8867740002097,2.0,1.0,phase_1,,,,,,,,,,,,,magenta,diamond
159.0,1.0,1.0,0.0,4.0,4.0,882.3573800000304,2.0,1.0,phase_1,,,,,,,,,,,,,magenta,diamond
1316.0,8.0,4.0,1.0,4.0,4.0,465.0665409999419,2.0,1.0,phase_1,,,,,,,,,,,,,blue,hexagon
307.0,6.0,2.0,1.0,3.0,3.0,686.8770459996085,2.0,1.0,phase_1,,,,,,,,,,,,,green,circle
0.0,6.0,0.0,1.0,1.0,1.0,465.4978830003529,2.0,2.0,phase_1,,,,,,,,,,,,,green,circle
325.0,2.0,2.0,0.0,1.0,1.0,501.75056900025083,2.0,1.0,phase_1,,,,,,,,,,,,,cyan,cross
334.0,2.0,2.0,0.0,4.0,4.0,956.3099150000198,2.0,1.0,phase_1,,,,,,,,,,,,,cyan,cross
1291.0,8.0,4.0,1.0,1.0,1.0,714.864249999664,2.0,1.0,phase_1,,,,,,,,,,,,,blue,hexagon
1294.0,8.0,4.0,1.0,2.0,2.0,657.9024039997421,2.0,1.0,phase_1,,,,,,,,,,,,,blue,hexagon
337.0,2.0,2.0,0.0,4.0,4.0,901.6546499997276,2.0,1.0,phase_1,,,,,,,,,,,,,cyan,cross
0.0,2.0,0.0,0.0,1.0,1.0,602.7585399997406,2.0,1.0,phase_1,,,,,,,,,,,,,cyan,cross
0.0,7.0,0.0,1.0,2.0,2.0,556.6781019997507,2.0,1.0,phase_1,,,,,,,,,,,,,gray,I
674.0,7.0,3.0,1.0,4.0,4.0,546.1931280001409,2.0,1.0,phase_1,,,,,,,,,,,,,gray,I
1288.0,8.0,4.0,1.0,1.0,1.0,677.6430360000631,2.0,1.0,phase_1,,,,,,,,,,,,,blue,hexagon
334.0,6.0,2.0,1.0,3.0,3.0,676.7185860003337,2.0,1.0,phase_1,,,,,,,,,,,,,green,circle
178.0,1.0,1.0,0.0,2.0,2.0,512.6144920000115,2.0,1.0,phase_1,,,,,,,,,,,,,magenta,diamond
0.0,1.0,0.0,0.0,1.0,1.0,960.2004489997852,2.0,1.0,phase_1,,,,,,,,,,,,,magenta,diamond
1282.0,8.0,4.0,1.0,4.0,4.0,438.0793119998998,2.0,1.0,phase_1,,,,,,,,,,,,,blue,hexagon
341.0,6.0,2.0,1.0,2.0,2.0,529.0992519999236,2.0,1.0,phase_1,,,,,,,,,,,,,green,circle
138.0,5.0,1.0,1.0,4.0,4.0,585.0983669997731,2.0,1.0,phase_1,,,,,,,,,,,,,yellow,flipped triangle
181.0,1.0,1.0,0.0,2.0,2.0,798.1024260002414,3.0,1.0,phase_1,,,,,,,,,,,,,magenta,diamond
0.0,7.0,0.0,1.0,1.0,1.0,944.4548910000776,3.0,1.0,phase_1,,,,,,,,,,,,,gray,I
301.0,2.0,2.0,0.0,3.0,3.0,667.5452530002985,3.0,1.0,phase_1,,,,,,,,,,,,,cyan,cross
164.0,5.0,1.0,1.0,4.0,4.0,418.3173599999463,3.0,1.0,phase_1,,,,,,,,,,,,,yellow,flipped triangle
322.0,2.0,2.0,0.0,2.0,2.0,749.9926830000732,3.0,1.0,phase_1,,,,,,,,,,,,,cyan,cross
349.0,6.0,2.0,1.0,3.0,3.0,686.929181999858,3.0,1.0,phase_1,,,,,,,,,,,,,green,circle
184.0,5.0,1.0,1.0,1.0,1.0,631.004700000176,3.0,1.0,phase_1,,,,,,,,,,,,,yellow,flipped triangle
0.0,3.0,0.0,0.0,4.0,4.0,501.5440439997292,3.0,1.0,phase_1,,,,,,,,,,,,,orange,triangle
327.0,2.0,2.0,0.0,4.0,4.0,593.9716419998149,3.0,1.0,phase_1,,,,,,,,,,,,,cyan,cross
320.0,6.0,2.0,1.0,4.0,4.0,788.9525820000927,3.0,1.0,phase_1,,,,,,,,,,,,,green,circle
667.0,3.0,3.0,0.0,4.0,4.0,531.187028000204,3.0,1.0,phase_1,,,,,,,,,,,,,orange,triangle
344.0,6.0,2.0,1.0,4.0,4.0,455.4103599998598,3.0,1.0,phase_1,,,,,,,,,,,,,green,circle
329.0,2.0,2.0,0.0,3.0,3.0,676.5189359998658,3.0,1.0,phase_1,,,,,,,,,,,,,cyan,cross
1317.0,4.0,4.0,0.0,2.0,2.0,704.0762990000076,3.0,1.0,phase_1,,,,,,,,,,,,,white,square
634.0,7.0,3.0,1.0,3.0,3.0,707.3612419999336,3.0,1.0,phase_1,,,,,,,,,,,,,gray,I
1306.0,8.0,4.0,1.0,4.0,4.0,509.90996200016525,3.0,1.0,phase_1,,,,,,,,,,,,,blue,hexagon
1294.0,4.0,4.0,0.0,3.0,3.0,568.9141839998229,3.0,1.0,phase_1,,,,,,,,,,,,,white,square
0.0,6.0,0.0,1.0,4.0,4.0,454.5010360002379,3.0,1.0,phase_1,,,,,,,,,,,,,green,circle
664.0,3.0,3.0,0.0,1.0,1.0,770.2679059998445,3.0,1.0,phase_1,,,,,,,,,,,,,orange,triangle
181.0,5.0,1.0,1.0,3.0,3.0,529.0214609999566,3.0,1.0,phase_1,,,,,,,,,,,,,yellow,flipped triangle
0.0,8.0,0.0,1.0,3.0,3.0,500.41949400019803,3.0,1.0,phase_1,,,,,,,,,,,,,blue,hexagon
0.0,8.0,0.0,1.0,1.0,1.0,653.0692329997692,3.0,1.0,phase_1,,,,,,,,,,,,,blue,hexagon
307.0,6.0,2.0,1.0,4.0,4.0,694.1000339998027,3.0,1.0,phase_1,,,,,,,,,,,,,green,circle
0.0,3.0,0.0,0.0,3.0,3.0,621.7254510002022,3.0,1.0,phase_1,,,,,,,,,,,,,orange,triangle
313.0,2.0,2.0,0.0,4.0,4.0,539.2255510000723,3.0,1.0,phase_1,,,,,,,,,,,,,cyan,cross
0.0,2.0,0.0,0.0,3.0,3.0,427.375751999989,3.0,1.0,phase_1,,,,,,,,,,,,,cyan,cross
637.0,7.0,3.0,1.0,3.0,3.0,661.3821910000297,3.0,1.0,phase_1,,,,,,,,,,,,,gray,I
0.0,8.0,0.0,1.0,1.0,1.0,745.9160409998731,3.0,1.0,phase_1,,,,,,,,,,,,,blue,hexagon
343.0,6.0,2.0,1.0,4.0,4.0,667.0000799999798,3.0,2.0,phase_1,,,,,,,,,,,,,green,circle
1316.0,4.0,4.0,0.0,4.0,4.0,400.0959810000495,3.0,1.0,phase_1,,,,,,,,,,,,,white,square
180.0,5.0,1.0,1.0,1.0,1.0,604.8742369998763,3.0,1.0,phase_1,,,,,,,,,,,,,yellow,flipped triangle
0.0,5.0,0.0,1.0,3.0,3.0,509.91982599998664,3.0,1.0,phase_1,,,,,,,,,,,,,yellow,flipped triangle
0.0,3.0,0.0,0.0,3.0,3.0,463.5443799998029,3.0,1.0,phase_1,,,,,,,,,,,,,orange,triangle
332.0,2.0,2.0,0.0,2.0,2.0,706.3913719998709,3.0,1.0,phase_1,,,,,,,,,,,,,cyan,cross
625.0,7.0,3.0,1.0,4.0,4.0,547.7453140001671,3.0,1.0,phase_1,,,,,,,,,,,,,gray,I
319.0,6.0,2.0,1.0,4.0,4.0,548.6753820000558,3.0,1.0,phase_1,,,,,,,,,,,,,green,circle
0.0,8.0,0.0,1.0,3.0,3.0,519.937470000059,3.0,1.0,phase_1,,,,,,,,,,,,,blue,hexagon
1294.0,8.0,4.0,1.0,1.0,1.0,539.5064170002115,3.0,1.0,phase_1,,,,,,,,,,,,,blue,hexagon
1320.0,4.0,4.0,0.0,3.0,3.0,409.4578329995784,3.0,1.0,phase_1,,,,,,,,,,,,,white,square
1318.0,4.0,4.0,0.0,3.0,3.0,436.5523930000563,3.0,1.0,phase_1,,,,,,,,,,,,,white,square
1279.0,8.0,4.0,1.0,4.0,4.0,679.9429809998401,3.0,1.0,phase_1,,,,,,,,,,,,,blue,hexagon
310.0,6.0,2.0,1.0,1.0,1.0,548.2568679999531,3.0,1.0,phase_1,,,,,,,,,,,,,green,circle
0.0,5.0,0.0,1.0,2.0,2.0,995.6069150002804,3.0,1.0,phase_1,,,,,,,,,,,,,yellow,flipped triangle
0.0,8.0,0.0,1.0,3.0,3.0,929.5871069998612,3.0,1.0,phase_1,,,,,,,,,,,,,blue,hexagon
0.0,1.0,0.0,0.0,2.0,2.0,623.5637260001567,3.0,1.0,phase_1,,,,,,,,,,,,,magenta,diamond
673.0,3.0,3.0,0.0,4.0,4.0,724.751938999816,3.0,1.0,phase_1,,,,,,,,,,,,,orange,triangle
1324.0,8.0,4.0,1.0,3.0,3.0,696.9223590003821,3.0,1.0,phase_1,,,,,,,,,,,,,blue,hexagon
0.0,3.0,0.0,0.0,3.0,3.0,556.9535680001536,3.0,1.0,phase_1,,,,,,,,,,,,,orange,triangle
1323.0,8.0,4.0,1.0,1.0,1.0,741.1464540000452,3.0,1.0,phase_1,,,,,,,,,,,,,blue,hexagon
140.0,1.0,1.0,0.0,4.0,4.0,704.5701140000347,3.0,1.0,phase_1,,,,,,,,,,,,,magenta,diamond
640.0,7.0,3.0,1.0,2.0,2.0,759.9583830001393,3.0,1.0,phase_1,,,,,,,,,,,,,gray,I
145.0,1.0,1.0,0.0,4.0,4.0,770.2812799998355,3.0,1.0,phase_1,,,,,,,,,,,,,magenta,diamond
653.0,3.0,3.0,0.0,2.0,2.0,577.8692349999801,3.0,1.0,phase_1,,,,,,,,,,,,,orange,triangle
667.0,3.0,3.0,0.0,3.0,3.0,799.6570380000776,3.0,1.0,phase_1,,,,,,,,,,,,,orange,triangle
1305.0,4.0,4.0,0.0,3.0,3.0,641.347510000287,3.0,1.0,phase_1,,,,,,,,,,,,,white,square
1315.0,8.0,4.0,1.0,2.0,2.0,623.1553400002667,3.0,1.0,phase_1,,,,,,,,,,,,,blue,hexagon
652.0,7.0,3.0,1.0,3.0,3.0,816.5132850003829,3.0,1.0,phase_1,,,,,,,,,,,,,gray,I
149.0,1.0,1.0,0.0,1.0,1.0,741.6261909997957,3.0,1.0,phase_1,,,,,,,,,,,,,magenta,diamond
1323.0,4.0,4.0,0.0,4.0,4.0,742.9108530000121,3.0,1.0,phase_1,,,,,,,,,,,,,white,square
145.0,5.0,1.0,1.0,4.0,4.0,642.5087749998966,3.0,1.0,phase_1,,,,,,,,,,,,,yellow,flipped triangle
674.0,3.0,3.0,0.0,3.0,3.0,650.5766870000116,3.0,1.0,phase_1,,,,,,,,,,,,,orange,triangle
322.0,6.0,2.0,1.0,3.0,3.0,623.9649959998133,3.0,1.0,phase_1,,,,,,,,,,,,,green,circle
175.0,5.0,1.0,1.0,3.0,3.0,458.374215999811,3.0,1.0,phase_1,,,,,,,,,,,,,yellow,flipped triangle
0.0,4.0,0.0,0.0,1.0,1.0,528.6651629999142,3.0,1.0,phase_1,,,,,,,,,,,,,white,square
0.0,6.0,0.0,1.0,1.0,1.0,473.512995999954,3.0,1.0,phase_1,,,,,,,,,,,,,green,circle
160.0,1.0,1.0,0.0,1.0,1.0,475.0320459997965,3.0,1.0,phase_1,,,,,,,,,,,,,magenta,diamond
174.0,1.0,1.0,0.0,4.0,4.0,768.7545100002353,3.0,1.0,phase_1,,,,,,,,,,,,,magenta,diamond
313.0,6.0,2.0,1.0,1.0,1.0,463.1905319997713,3.0,1.0,phase_1,,,,,,,,,,,,,green,circle
627.0,3.0,3.0,0.0,2.0,2.0,801.5109439998014,3.0,1.0,phase_1,,,,,,,,,,,,,orange,triangle
648.0,3.0,3.0,0.0,1.0,1.0,522.6667140000245,3.0,1.0,phase_1,,,,,,,,,,,,,orange,triangle
0.0,1.0,0.0,0.0,1.0,1.0,455.8755080001901,3.0,1.0,phase_1,,,,,,,,,,,,,magenta,diamond
628.0,3.0,3.0,0.0,1.0,1.0,439.9673689999872,3.0,1.0,phase_1,,,,,,,,,,,,,orange,triangle
301.0,2.0,2.0,0.0,3.0,3.0,693.0057489998944,3.0,1.0,phase_1,,,,,,,,,,,,,cyan,cross
1290.0,8.0,4.0,1.0,4.0,4.0,745.6478500002959,3.0,1.0,phase_1,,,,,,,,,,,,,blue,hexagon
340.0,2.0,2.0,0.0,1.0,1.0,418.7619690001156,3.0,1.0,phase_1,,,,,,,,,,,,,cyan,cross
173.0,5.0,1.0,1.0,3.0,3.0,577.5798409999879,3.0,1.0,phase_1,,,,,,,,,,,,,yellow,flipped triangle
1279.0,4.0,4.0,0.0,1.0,1.0,466.25749299983,3.0,1.0,phase_1,,,,,,,,,,,,,white,square
0.0,8.0,0.0,1.0,3.0,3.0,576.3908439998886,3.0,1.0,phase_1,,,,,,,,,,,,,blue,hexagon
659.0,7.0,3.0,1.0,1.0,1.0,437.1051029997943,3.0,1.0,phase_1,,,,,,,,,,,,,gray,I
1307.0,8.0,4.0,1.0,1.0,1.0,455.2208750001227,3.0,1.0,phase_1,,,,,,,,,,,,,blue,hexagon
340.0,6.0,2.0,1.0,1.0,1.0,390.1183970001511,3.0,1.0,phase_1,,,,,,,,,,,,,green,circle
0.0,2.0,0.0,0.0,3.0,3.0,448.9344399999027,3.0,1.0,phase_1,,,,,,,,,,,,,cyan,cross
307.0,2.0,2.0,0.0,3.0,3.0,428.1620990000192,3.0,1.0,phase_1,,,,,,,,,,,,,cyan,cross
153.0,5.0,1.0,1.0,3.0,3.0,558.1474629998411,3.0,1.0,phase_1,,,,,,,,,,,,,yellow,flipped triangle
648.0,7.0,3.0,1.0,1.0,1.0,482.7404190000379,3.0,1.0,phase_1,,,,,,,,,,,,,gray,I
307.0,2.0,2.0,0.0,2.0,2.0,565.5718510001861,3.0,2.0,phase_1,,,,,,,,,,,,,cyan,cross
1293.0,4.0,4.0,0.0,4.0,4.0,744.170782999845,3.0,1.0,phase_1,,,,,,,,,,,,,white,square
312.0,2.0,2.0,0.0,2.0,2.0,648.933568999837,3.0,1.0,phase_1,,,,,,,,,,,,,cyan,cross
343.0,2.0,2.0,0.0,1.0,1.0,631.9620379999833,3.0,1.0,phase_1,,,,,,,,,,,,,cyan,cross
1312.0,4.0,4.0,0.0,2.0,2.0,705.7758199998716,3.0,1.0,phase_1,,,,,,,,,,,,,white,square
666.0,3.0,3.0,0.0,2.0,2.0,565.81865499993,3.0,1.0,phase_1,,,,,,,,,,,,,orange,triangle
0.0,5.0,0.0,1.0,3.0,3.0,529.3424269998468,3.0,2.0,phase_1,,,,,,,,,,,,,yellow,flipped triangle
155.0,1.0,1.0,0.0,3.0,3.0,789.3998569998075,3.0,1.0,phase_1,,,,,,,,,,,,,magenta,diamond
670.0,7.0,3.0,1.0,1.0,1.0,445.6023890002143,3.0,2.0,phase_1,,,,,,,,,,,,,gray,I
654.0,3.0,3.0,0.0,3.0,3.0,555.347170999994,3.0,1.0,phase_1,,,,,,,,,,,,,orange,triangle
303.0,2.0,2.0,0.0,4.0,4.0,869.8730820001401,3.0,1.0,phase_1,,,,,,,,,,,,,cyan,cross
0.0,3.0,0.0,0.0,2.0,2.0,399.6280659998774,3.0,1.0,phase_1,,,,,,,,,,,,,orange,triangle
347.0,6.0,2.0,1.0,3.0,3.0,611.6316859997823,3.0,1.0,phase_1,,,,,,,,,,,,,green,circle
145.0,1.0,1.0,0.0,2.0,2.0,666.7367089999061,3.0,1.0,phase_1,,,,,,,,,,,,,magenta,diamond
1278.0,4.0,4.0,0.0,1.0,1.0,565.9577769997668,3.0,1.0,phase_1,,,,,,,,,,,,,white,square
175.0,1.0,1.0,0.0,4.0,4.0,586.7873449997205,4.0,1.0,phase_1,,,,,,,,,,,,,magenta,diamond
1284.0,4.0,4.0,0.0,3.0,3.0,634.087984999951,4.0,1.0,phase_1,,,,,,,,,,,,,white,square
349.0,2.0,2.0,0.0,2.0,2.0,584.2322630001036,4.0,1.0,phase_1,,,,,,,,,,,,,cyan,cross
138.0,1.0,1.0,0.0,3.0,3.0,787.370209999608,4.0,1.0,phase_1,,,,,,,,,,,,,magenta,diamond
628.0,3.0,3.0,0.0,3.0,3.0,525.4480560001866,4.0,1.0,phase_1,,,,,,,,,,,,,orange,triangle
635.0,7.0,3.0,1.0,1.0,1.0,558.0945409997184,4.0,1.0,phase_1,,,,,,,,,,,,,gray,I
1305.0,8.0,4.0,1.0,1.0,1.0,575.7828549999431,4.0,1.0,phase_1,,,,,,,,,,,,,blue,hexagon
0.0,4.0,0.0,0.0,1.0,1.0,556.4386949999971,4.0,1.0,phase_1,,,,,,,,,,,,,white,square
635.0,7.0,3.0,1.0,3.0,3.0,749.6204409999336,4.0,1.0,phase_1,,,,,,,,,,,,,gray,I
173.0,1.0,1.0,0.0,3.0,3.0,466.3997000002382,4.0,1.0,phase_1,,,,,,,,,,,,,magenta,diamond
667.0,7.0,3.0,1.0,2.0,2.0,634.0320710000924,4.0,1.0,phase_1,,,,,,,,,,,,,gray,I
652.0,7.0,3.0,1.0,4.0,4.0,613.1299849998868,4.0,1.0,phase_1,,,,,,,,,,,,,gray,I
1325.0,8.0,4.0,1.0,4.0,4.0,483.3078870001372,4.0,1.0,phase_1,,,,,,,,,,,,,blue,hexagon
148.0,1.0,1.0,0.0,1.0,1.0,686.4644379998026,4.0,1.0,phase_1,,,,,,,,,,,,,magenta,diamond
1288.0,4.0,4.0,0.0,3.0,3.0,961.0681240001212,4.0,1.0,phase_1,,,,,,,,,,,,,white,square
1291.0,4.0,4.0,0.0,1.0,1.0,548.4697889996824,4.0,1.0,phase_1,,,,,,,,,,,,,white,square
155.0,5.0,1.0,1.0,3.0,3.0,521.9753930000479,4.0,1.0,phase_1,,,,,,,,,,,,,yellow,flipped triangle
140.0,1.0,1.0,0.0,2.0,2.0,603.2336500002202,4.0,1.0,phase_1,,,,,,,,,,,,,magenta,diamond
1309.0,4.0,4.0,0.0,4.0,4.0,574.0105780000704,4.0,1.0,phase_1,,,,,,,,,,,,,white,square
343.0,2.0,2.0,0.0,3.0,3.0,640.0898859997142,4.0,1.0,phase_1,,,,,,,,,,,,,cyan,cross
0.0,3.0,0.0,0.0,2.0,2.0,650.81359099986,4.0,1.0,phase_1,,,,,,,,,,,,,orange,triangle
178.0,5.0,1.0,1.0,2.0,2.0,573.6949519996415,4.0,1.0,phase_1,,,,,,,,,,,,,yellow,flipped triangle
0.0,1.0,0.0,0.0,4.0,4.0,612.4034989998108,4.0,1.0,phase_1,,,,,,,,,,,,,magenta,diamond
0.0,8.0,0.0,1.0,2.0,2.0,547.6991240002462,4.0,1.0,phase_1,,,,,,,,,,,,,blue,hexagon
0.0,4.0,0.0,0.0,3.0,3.0,668.4329079998861,4.0,1.0,phase_1,,,,,,,,,,,,,white,square
140.0,5.0,1.0,1.0,2.0,2.0,565.7777489996079,4.0,1.0,phase_1,,,,,,,,,,,,,yellow,flipped triangle
327.0,6.0,2.0,1.0,2.0,2.0,631.5491889999976,4.0,1.0,phase_1,,,,,,,,,,,,,green,circle
666.0,7.0,3.0,1.0,4.0,4.0,557.4336569998195,4.0,1.0,phase_1,,,,,,,,,,,,,gray,I
646.0,7.0,3.0,1.0,2.0,2.0,500.51122500008205,4.0,1.0,phase_1,,,,,,,,,,,,,gray,I
1284.0,8.0,4.0,1.0,2.0,2.0,482.7368830001433,4.0,1.0,phase_1,,,,,,,,,,,,,blue,hexagon
159.0,5.0,1.0,1.0,1.0,1.0,706.033830999786,4.0,1.0,phase_1,,,,,,,,,,,,,yellow,flipped triangle
0.0,2.0,0.0,0.0,3.0,3.0,788.2784670000547,4.0,1.0,phase_1,,,,,,,,,,,,,cyan,cross
1278.0,8.0,4.0,1.0,3.0,3.0,573.6228310001934,4.0,1.0,phase_1,,,,,,,,,,,,,blue,hexagon
184.0,5.0,1.0,1.0,2.0,2.0,593.5338490003232,4.0,1.0,phase_1,,,,,,,,,,,,,yellow,flipped triangle
347.0,2.0,2.0,0.0,3.0,3.0,668.2396850001169,4.0,1.0,phase_1,,,,,,,,,,,,,cyan,cross
1284.0,8.0,4.0,1.0,2.0,2.0,593.3300719998442,4.0,1.0,phase_1,,,,,,,,,,,,,blue,hexagon
320.0,6.0,2.0,1.0,1.0,1.0,584.3511550001494,4.0,1.0,phase_1,,,,,,,,,,,,,green,circle
178.0,5.0,1.0,1.0,1.0,1.0,917.7941309999368,4.0,1.0,phase_1,,,,,,,,,,,,,yellow,flipped triangle
163.0,1.0,1.0,0.0,1.0,1.0,528.8188170002286,4.0,1.0,phase_1,,,,,,,,,,,,,magenta,diamond
312.0,2.0,2.0,0.0,2.0,2.0,768.1304189995899,4.0,1.0,phase_1,,,,,,,,,,,,,cyan,cross
656.0,7.0,3.0,1.0,3.0,3.0,995.1222059999054,4.0,1.0,phase_1,,,,,,,,,,,,,gray,I
144.0,1.0,1.0,0.0,3.0,3.0,587.0136190001176,4.0,1.0,phase_1,,,,,,,,,,,,,magenta,diamond
164.0,5.0,1.0,1.0,4.0,4.0,657.567753999956,4.0,1.0,phase_1,,,,,,,,,,,,,yellow,flipped triangle
0.0,1.0,0.0,0.0,1.0,1.0,464.0790710000146,4.0,1.0,phase_1,,,,,,,,,,,,,magenta,diamond
1282.0,4.0,4.0,0.0,4.0,4.0,779.4324929996037,4.0,1.0,phase_1,,,,,,,,,,,,,white,square
160.0,5.0,1.0,1.0,2.0,2.0,860.9076239999922,4.0,1.0,phase_1,,,,,,,,,,,,,yellow,flipped triangle
1284.0,8.0,4.0,1.0,4.0,4.0,538.7996029999158,4.0,1.0,phase_1,,,,,,,,,,,,,blue,hexagon
343.0,2.0,2.0,0.0,4.0,4.0,519.8233780001829,4.0,1.0,phase_1,,,,,,,,,,,,,cyan,cross
140.0,5.0,1.0,1.0,1.0,1.0,750.6348080000862,4.0,1.0,phase_1,,,,,,,,,,,,,yellow,flipped triangle
625.0,3.0,3.0,0.0,1.0,1.0,444.260683000266,4.0,1.0,phase_1,,,,,,,,,,,,,orange,triangle
1293.0,8.0,4.0,1.0,2.0,2.0,829.7346469998956,4.0,1.0,phase_1,,,,,,,,,,,,,blue,hexagon
635.0,3.0,3.0,0.0,4.0,4.0,585.0189840002713,4.0,1.0,phase_1,,,,,,,,,,,,,orange,triangle
172.0,1.0,1.0,0.0,4.0,4.0,548.2637179998164,4.0,1.0,phase_1,,,,,,,,,,,,,magenta,diamond
313.0,6.0,2.0,1.0,1.0,1.0,723.3663189999788,4.0,1.0,phase_1,,,,,,,,,,,,,green,circle
0.0,2.0,0.0,0.0,3.0,3.0,716.3624600002549,4.0,1.0,phase_1,,,,,,,,,,,,,cyan,cross
626.0,3.0,3.0,0.0,2.0,2.0,601.7138530000921,4.0,1.0,phase_1,,,,,,,,,,,,,orange,triangle
164.0,1.0,1.0,0.0,3.0,3.0,686.0644039998078,4.0,1.0,phase_1,,,,,,,,,,,,,magenta,diamond
171.0,1.0,1.0,0.0,1.0,1.0,594.3671140003062,4.0,1.0,phase_1,,,,,,,,,,,,,magenta,diamond
1292.0,8.0,4.0,1.0,1.0,1.0,594.8290930000439,4.0,1.0,phase_1,,,,,,,,,,,,,blue,hexagon
0.0,2.0,0.0,0.0,3.0,3.0,592.4390879999919,4.0,1.0,phase_1,,,,,,,,,,,,,cyan,cross
305.0,6.0,2.0,1.0,2.0,2.0,558.0186250003862,4.0,1.0,phase_1,,,,,,,,,,,,,green,circle
145.0,1.0,1.0,0.0,2.0,2.0,603.1207400001222,4.0,1.0,phase_1,,,,,,,,,,,,,magenta,diamond
664.0,3.0,3.0,0.0,1.0,1.0,501.27071999986583,4.0,1.0,phase_1,,,,,,,,,,,,,orange,triangle
343.0,6.0,2.0,1.0,1.0,1.0,417.4149299997225,4.0,1.0,phase_1,,,,,,,,,,,,,green,circle
0.0,6.0,0.0,1.0,2.0,2.0,501.1707559997376,4.0,1.0,phase_1,,,,,,,,,,,,,green,circle
344.0,6.0,2.0,1.0,2.0,2.0,435.0899770001888,4.0,1.0,phase_1,,,,,,,,,,,,,green,circle
0.0,5.0,0.0,1.0,4.0,4.0,510.5548159999671,4.0,1.0,phase_1,,,,,,,,,,,,,yellow,flipped triangle
0.0,2.0,0.0,0.0,4.0,4.0,436.2952279998353,4.0,1.0,phase_1,,,,,,,,,,,,,cyan,cross
329.0,6.0,2.0,1.0,3.0,3.0,751.0837360000551,4.0,1.0,phase_1,,,,,,,,,,,,,green,circle
1315.0,4.0,4.0,0.0,1.0,1.0,475.1155430003564,4.0,1.0,phase_1,,,,,,,,,,,,,white,square
145.0,5.0,1.0,1.0,3.0,3.0,789.0994069998669,4.0,1.0,phase_1,,,,,,,,,,,,,yellow,flipped triangle
634.0,3.0,3.0,0.0,1.0,1.0,419.1244170001482,4.0,1.0,phase_1,,,,,,,,,,,,,orange,triangle
630.0,7.0,3.0,1.0,3.0,3.0,399.3467089999285,4.0,1.0,phase_1,,,,,,,,,,,,,gray,I
313.0,2.0,2.0,0.0,1.0,1.0,400.1830170000175,4.0,1.0,phase_1,,,,,,,,,,,,,cyan,cross
0.0,6.0,0.0,1.0,4.0,4.0,566.5139019997696,4.0,1.0,phase_1,,,,,,,,,,,,,green,circle
155.0,1.0,1.0,0.0,1.0,1.0,435.736906999864,4.0,1.0,phase_1,,,,,,,,,,,,,magenta,diamond
184.0,1.0,1.0,0.0,4.0,4.0,435.4417509998711,4.0,1.0,phase_1,,,,,,,,,,,,,magenta,diamond
315.0,2.0,2.0,0.0,2.0,2.0,779.5203430000583,4.0,1.0,phase_1,,,,,,,,,,,,,cyan,cross
634.0,3.0,3.0,0.0,4.0,4.0,455.9982959999615,4.0,1.0,phase_1,,,,,,,,,,,,,orange,triangle
163.0,5.0,1.0,1.0,2.0,2.0,371.0991130001275,4.0,1.0,phase_1,,,,,,,,,,,,,yellow,flipped triangle
656.0,3.0,3.0,0.0,1.0,1.0,409.6891569997751,4.0,1.0,phase_1,,,,,,,,,,,,,orange,triangle
152.0,1.0,1.0,0.0,2.0,2.0,362.4892240000008,4.0,1.0,phase_1,,,,,,,,,,,,,magenta,diamond
150.0,5.0,1.0,1.0,1.0,1.0,353.3478089998425,4.0,1.0,phase_1,,,,,,,,,,,,,yellow,flipped triangle
1304.0,8.0,4.0,1.0,2.0,2.0,364.8005639997791,4.0,1.0,phase_1,,,,,,,,,,,,,blue,hexagon
1299.0,4.0,4.0,0.0,3.0,3.0,697.830065999824,4.0,1.0,phase_1,,,,,,,,,,,,,white,square
164.0,1.0,1.0,0.0,3.0,3.0,585.9693609995702,4.0,1.0,phase_1,,,,,,,,,,,,,magenta,diamond
322.0,6.0,2.0,1.0,2.0,2.0,596.600163000403,4.0,1.0,phase_1,,,,,,,,,,,,,green,circle
1300.0,4.0,4.0,0.0,4.0,4.0,446.5048380002372,4.0,1.0,phase_1,,,,,,,,,,,,,white,square
332.0,6.0,2.0,1.0,3.0,3.0,585.4848159997346,4.0,1.0,phase_1,,,,,,,,,,,,,green,circle
0.0,4.0,0.0,0.0,1.0,1.0,445.6889810003304,4.0,1.0,phase_1,,,,,,,,,,,,,white,square
0.0,5.0,0.0,1.0,3.0,3.0,373.6947439997493,4.0,1.0,phase_1,,,,,,,,,,,,,yellow,flipped triangle
320.0,2.0,2.0,0.0,4.0,4.0,446.3170199996966,4.0,1.0,phase_1,,,,,,,,,,,,,cyan,cross
301.0,6.0,2.0,1.0,1.0,1.0,520.2463279997573,4.0,1.0,phase_1,,,,,,,,,,,,,green,circle
0.0,7.0,0.0,1.0,4.0,4.0,463.1518750002215,4.0,1.0,phase_1,,,,,,,,,,,,,gray,I
0.0,6.0,0.0,1.0,2.0,2.0,577.0852330001617,4.0,1.0,phase_1,,,,,,,,,,,,,green,circle
644.0,7.0,3.0,1.0,3.0,3.0,676.4855070000522,4.0,1.0,phase_1,,,,,,,,,,,,,gray,I
305.0,2.0,2.0,0.0,1.0,1.0,324.6719500002655,4.0,1.0,phase_1,,,,,,,,,,,,,cyan,cross
153.0,1.0,1.0,0.0,1.0,1.0,416.4564709999467,4.0,1.0,phase_1,,,,,,,,,,,,,magenta,diamond
150.0,1.0,1.0,0.0,1.0,1.0,380.1512119998733,4.0,1.0,phase_1,,,,,,,,,,,,,magenta,diamond
647.0,3.0,3.0,0.0,4.0,4.0,503.7491820003197,4.0,2.0,phase_1,,,,,,,,,,,,,orange,triangle
0.0,4.0,4.0,0.0,5.0,5.0,854.5802290000211,1.0,1.0,phase_2,go,250.0,250.0,1.0,,,,,,,,,white,square
0.0,4.0,4.0,0.0,6.0,6.0,528.0475729996397,1.0,1.0,phase_2,go,250.0,250.0,1.0,,,,,,,,,white,square
0.0,8.0,4.0,1.0,5.0,5.0,619.9452249998103,1.0,1.0,phase_2,stop,250.0,250.0,3.0,,,,,,,,,blue,hexagon
0.0,1.0,1.0,0.0,5.0,5.0,627.3887509996712,1.0,1.0,phase_2,go,200.0,250.0,1.0,,,,,,,,,magenta,diamond
0.0,2.0,2.0,0.0,5.0,5.0,448.8314459999856,1.0,1.0,phase_2,go,200.0,250.0,1.0,,,,,,,,,cyan,cross
0.0,2.0,2.0,0.0,5.0,5.0,364.7458519999418,1.0,1.0,phase_2,go,200.0,250.0,1.0,,,,,,,,,cyan,cross
0.0,5.0,1.0,1.0,6.0,6.0,352.3542719999568,1.0,1.0,phase_2,stop,200.0,250.0,3.0,,,,,,,,,yellow,flipped triangle
0.0,1.0,1.0,0.0,5.0,5.0,382.952264999858,1.0,1.0,phase_2,go,200.0,200.0,1.0,,,,,,,,,magenta,diamond
0.0,4.0,4.0,0.0,5.0,5.0,390.9061459999066,1.0,1.0,phase_2,go,200.0,200.0,1.0,,,,,,,,,white,square
0.0,7.0,3.0,1.0,6.0,6.0,570.0317149999137,1.0,1.0,phase_2,go,200.0,200.0,1.0,,,,,,,,,gray,I
0.0,3.0,3.0,0.0,5.0,5.0,514.0814510000382,1.0,1.0,phase_2,go,200.0,200.0,1.0,,,,,,,,,orange,triangle
0.0,2.0,2.0,0.0,5.0,5.0,419.8692270001629,1.0,1.0,phase_2,go,200.0,200.0,1.0,,,,,,,,,cyan,cross
0.0,8.0,4.0,1.0,6.0,6.0,345.1753710000957,1.0,1.0,phase_2,go,200.0,200.0,1.0,,,,,,,,,blue,hexagon
0.0,6.0,2.0,1.0,5.0,0.0,0.0,1.0,1.0,phase_2,stop,200.0,200.0,4.0,,,,,,,,,green,circle
0.0,1.0,1.0,0.0,5.0,5.0,582.9526669999723,1.0,1.0,phase_2,go,250.0,200.0,1.0,,,,,,,,,magenta,diamond
0.0,8.0,4.0,1.0,6.0,6.0,401.4940060001208,1.0,1.0,phase_2,stop,250.0,200.0,3.0,,,,,,,,,blue,hexagon
0.0,3.0,3.0,0.0,5.0,5.0,440.2022019999094,1.0,1.0,phase_2,go,250.0,150.0,1.0,,,,,,,,,orange,triangle
0.0,6.0,2.0,1.0,6.0,6.0,747.2399640000731,1.0,1.0,phase_2,go,250.0,150.0,1.0,,,,,,,,,green,circle
0.0,6.0,2.0,1.0,5.0,5.0,355.1947810001366,1.0,1.0,phase_2,stop,250.0,150.0,3.0,,,,,,,,,green,circle
0.0,2.0,2.0,0.0,5.0,5.0,596.3733010003125,1.0,1.0,phase_2,go,200.0,150.0,1.0,,,,,,,,,cyan,cross
0.0,2.0,2.0,0.0,6.0,6.0,796.488233999753,1.0,1.0,phase_2,go,200.0,150.0,1.0,,,,,,,,,cyan,cross
0.0,7.0,3.0,1.0,5.0,5.0,428.7040160002107,1.0,1.0,phase_2,stop,200.0,150.0,3.0,,,,,,,,,gray,I
0.0,4.0,4.0,0.0,5.0,5.0,615.9104879998267,1.0,1.0,phase_2,go,150.0,150.0,1.0,,,,,,,,,white,square
0.0,8.0,4.0,1.0,5.0,0.0,0.0,1.0,1.0,phase_2,stop,150.0,150.0,4.0,,,,,,,,,blue,hexagon
0.0,6.0,2.0,1.0,6.0,0.0,0.0,1.0,1.0,phase_2,stop,200.0,150.0,4.0,,,,,,,,,green,circle
0.0,5.0,1.0,1.0,6.0,0.0,0.0,1.0,1.0,phase_2,stop,200.0,200.0,4.0,,,,,,,,,yellow,flipped triangle
0.0,4.0,4.0,0.0,5.0,5.0,758.561693000047,1.0,1.0,phase_2,go,200.0,250.0,1.0,,,,,,,,,white,square
0.0,7.0,3.0,1.0,5.0,0.0,0.0,1.0,1.0,phase_2,stop,200.0,250.0,4.0,,,,,,,,,gray,I
0.0,5.0,1.0,1.0,5.0,0.0,0.0,1.0,1.0,phase_2,stop,250.0,250.0,4.0,,,,,,,,,yellow,flipped triangle
0.0,5.0,1.0,1.0,5.0,0.0,0.0,1.0,1.0,phase_2,stop,300.0,250.0,4.0,,,,,,,,,yellow,flipped triangle
0.0,2.0,2.0,0.0,5.0,5.0,738.6202679999769,1.0,1.0,phase_2,go,350.0,250.0,1.0,,,,,,,,,cyan,cross
0.0,6.0,2.0,1.0,5.0,5.0,1091.3966759999312,1.0,1.0,phase_2,go,350.0,250.0,1.0,,,,,,,,,green,circle
0.0,1.0,1.0,0.0,5.0,5.0,681.2712609998925,1.0,1.0,phase_2,go,350.0,250.0,1.0,,,,,,,,,magenta,diamond
0.0,7.0,3.0,1.0,5.0,5.0,755.5213929999809,1.0,1.0,phase_2,go,350.0,250.0,1.0,,,,,,,,,gray,I
0.0,8.0,4.0,1.0,6.0,0.0,0.0,1.0,1.0,phase_2,stop,350.0,250.0,4.0,,,,,,,,,blue,hexagon
0.0,3.0,3.0,0.0,6.0,6.0,1015.5909599998267,1.0,1.0,phase_2,go,350.0,300.0,1.0,,,,,,,,,orange,triangle
0.0,4.0,4.0,0.0,6.0,6.0,745.0662480000574,2.0,1.0,phase_2,go,350.0,300.0,1.0,,,,,,,,,white,square
0.0,6.0,2.0,1.0,6.0,6.0,664.7792539997681,2.0,1.0,phase_2,go,350.0,300.0,1.0,,,,,,,,,green,circle
0.0,8.0,4.0,1.0,6.0,0.0,0.0,2.0,1.0,phase_2,stop,350.0,300.0,4.0,,,,,,,,,blue,hexagon
0.0,8.0,4.0,1.0,6.0,0.0,0.0,2.0,1.0,phase_2,stop,350.0,350.0,4.0,,,,,,,,,blue,hexagon
0.0,8.0,4.0,1.0,5.0,5.0,530.5213680003362,2.0,1.0,phase_2,stop,350.0,400.0,3.0,,,,,,,,,blue,hexagon
0.0,4.0,4.0,0.0,6.0,6.0,848.7751150000804,2.0,1.0,phase_2,go,300.0,400.0,1.0,,,,,,,,,white,square
0.0,5.0,1.0,1.0,6.0,0.0,0.0,2.0,1.0,phase_2,stop,300.0,400.0,4.0,,,,,,,,,yellow,flipped triangle
0.0,1.0,1.0,0.0,6.0,6.0,997.7326449998144,2.0,1.0,phase_2,go,300.0,450.0,1.0,,,,,,,,,magenta,diamond
0.0,4.0,4.0,0.0,5.0,5.0,1416.8139439998413,2.0,1.0,phase_2,go,300.0,450.0,1.0,,,,,,,,,white,square
0.0,8.0,4.0,1.0,5.0,5.0,420.3815750001922,2.0,1.0,phase_2,go,300.0,450.0,1.0,,,,,,,,,blue,hexagon
0.0,3.0,3.0,0.0,6.0,6.0,998.9126190002936,2.0,1.0,phase_2,go,300.0,450.0,1.0,,,,,,,,,orange,triangle
0.0,7.0,3.0,1.0,6.0,0.0,0.0,2.0,1.0,phase_2,stop,300.0,450.0,4.0,,,,,,,,,gray,I
0.0,5.0,1.0,1.0,6.0,0.0,0.0,2.0,1.0,phase_2,stop,300.0,500.0,4.0,,,,,,,,,yellow,flipped triangle
0.0,3.0,3.0,0.0,5.0,5.0,783.085237999785,2.0,1.0,phase_2,go,300.0,550.0,1.0,,,,,,,,,orange,triangle
0.0,4.0,4.0,0.0,6.0,6.0,986.102812000354,2.0,1.0,phase_2,go,300.0,550.0,1.0,,,,,,,,,white,square
0.0,5.0,1.0,1.0,5.0,0.0,0.0,2.0,1.0,phase_2,stop,300.0,550.0,4.0,,,,,,,,,yellow,flipped triangle
0.0,7.0,3.0,1.0,6.0,0.0,0.0,2.0,1.0,phase_2,stop,350.0,550.0,4.0,,,,,,,,,gray,I
0.0,8.0,4.0,1.0,5.0,5.0,530.6924729993625,2.0,1.0,phase_2,stop,350.0,600.0,3.0,,,,,,,,,blue,hexagon
0.0,8.0,4.0,1.0,6.0,6.0,810.1721960001669,2.0,1.0,phase_2,go,300.0,600.0,1.0,,,,,,,,,blue,hexagon
0.0,6.0,2.0,1.0,5.0,0.0,0.0,2.0,1.0,phase_2,stop,300.0,600.0,4.0,,,,,,,,,green,circle
0.0,6.0,2.0,1.0,5.0,0.0,0.0,2.0,1.0,phase_2,stop,350.0,600.0,4.0,,,,,,,,,green,circle
0.0,2.0,2.0,0.0,6.0,6.0,838.9008180001838,2.0,1.0,phase_2,go,400.0,600.0,1.0,,,,,,,,,cyan,cross
0.0,8.0,4.0,1.0,5.0,0.0,0.0,2.0,1.0,phase_2,stop,400.0,600.0,4.0,,,,,,,,,blue,hexagon
0.0,5.0,1.0,1.0,6.0,6.0,976.9441519993052,2.0,1.0,phase_2,go,450.0,600.0,1.0,,,,,,,,,yellow,flipped triangle
0.0,5.0,1.0,1.0,5.0,0.0,0.0,2.0,1.0,phase_2,stop,450.0,600.0,4.0,,,,,,,,,yellow,flipped triangle
0.0,6.0,2.0,1.0,6.0,0.0,0.0,2.0,1.0,phase_2,stop,500.0,600.0,4.0,,,,,,,,,green,circle
0.0,6.0,2.0,1.0,6.0,0.0,0.0,2.0,1.0,phase_2,stop,500.0,650.0,4.0,,,,,,,,,green,circle
0.0,3.0,3.0,0.0,6.0,6.0,1124.6231989998705,2.0,1.0,phase_2,go,500.0,700.0,1.0,,,,,,,,,orange,triangle
0.0,3.0,3.0,0.0,5.0,5.0,1158.52807400006,2.0,1.0,phase_2,go,500.0,700.0,1.0,,,,,,,,,orange,triangle
0.0,4.0,4.0,0.0,6.0,6.0,1341.4611870002773,2.0,1.0,phase_2,go,500.0,700.0,1.0,,,,,,,,,white,square
0.0,4.0,4.0,0.0,5.0,5.0,1232.455167999433,2.0,1.0,phase_2,go,500.0,700.0,1.0,,,,,,,,,white,square
0.0,7.0,3.0,1.0,6.0,0.0,0.0,2.0,1.0,phase_2,stop,500.0,700.0,4.0,,,,,,,,,gray,I
0.0,3.0,3.0,0.0,6.0,0.0,0.0,2.0,1.0,phase_2,go,500.0,750.0,5.0,,,,,,,,,orange,triangle
0.0,5.0,1.0,1.0,5.0,5.0,670.6796059997941,2.0,1.0,phase_2,stop,500.0,750.0,3.0,,,,,,,,,yellow,flipped triangle
0.0,7.0,3.0,1.0,5.0,5.0,1141.8052130002252,2.0,1.0,phase_2,go,450.0,750.0,1.0,,,,,,,,,gray,I
0.0,8.0,4.0,1.0,6.0,6.0,392.1754630000578,2.0,1.0,phase_2,stop,450.0,750.0,3.0,,,,,,,,,blue,hexagon
0.0,1.0,1.0,0.0,5.0,5.0,595.7353829999192,3.0,1.0,phase_2,go,450.0,700.0,1.0,,,,,,,,,magenta,diamond
0.0,6.0,2.0,1.0,5.0,5.0,430.110319999585,3.0,1.0,phase_2,stop,450.0,700.0,3.0,,,,,,,,,green,circle
0.0,8.0,4.0,1.0,5.0,5.0,644.1019819994835,3.0,1.0,phase_2,go,400.0,700.0,1.0,,,,,,,,,blue,hexagon
0.0,7.0,3.0,1.0,5.0,5.0,458.8588329997947,3.0,1.0,phase_2,stop,400.0,700.0,3.0,,,,,,,,,gray,I
0.0,8.0,4.0,1.0,6.0,6.0,365.1803080001627,3.0,1.0,phase_2,stop,350.0,700.0,3.0,,,,,,,,,blue,hexagon
0.0,8.0,4.0,1.0,6.0,6.0,449.2185970002538,3.0,1.0,phase_2,go,350.0,650.0,1.0,,,,,,,,,blue,hexagon
0.0,5.0,1.0,1.0,6.0,6.0,447.609754000041,3.0,1.0,phase_2,stop,350.0,650.0,3.0,,,,,,,,,yellow,flipped triangle
0.0,7.0,3.0,1.0,5.0,5.0,507.5690210005632,3.0,1.0,phase_2,stop,350.0,600.0,3.0,,,,,,,,,gray,I
0.0,8.0,4.0,1.0,6.0,6.0,758.427218000179,3.0,1.0,phase_2,stop,300.0,600.0,3.0,,,,,,,,,blue,hexagon
0.0,3.0,3.0,0.0,6.0,6.0,969.6331830000418,3.0,1.0,phase_2,go,300.0,550.0,1.0,,,,,,,,,orange,triangle
0.0,3.0,3.0,0.0,6.0,6.0,699.6283879998373,3.0,1.0,phase_2,go,300.0,550.0,1.0,,,,,,,,,orange,triangle
0.0,1.0,1.0,0.0,5.0,5.0,606.907221000256,3.0,1.0,phase_2,go,300.0,550.0,1.0,,,,,,,,,magenta,diamond
0.0,6.0,2.0,1.0,5.0,0.0,0.0,3.0,1.0,phase_2,stop,300.0,550.0,4.0,,,,,,,,,green,circle
0.0,2.0,2.0,0.0,5.0,5.0,1101.4594980006225,3.0,1.0,phase_2,go,350.0,550.0,1.0,,,,,,,,,cyan,cross
0.0,3.0,3.0,0.0,6.0,6.0,635.7710970005428,3.0,1.0,phase_2,go,350.0,550.0,1.0,,,,,,,,,orange,triangle
0.0,2.0,2.0,0.0,6.0,6.0,494.46362100025,3.0,1.0,phase_2,go,350.0,550.0,1.0,,,,,,,,,cyan,cross
0.0,8.0,4.0,1.0,5.0,5.0,563.7107749998904,3.0,1.0,phase_2,stop,350.0,550.0,3.0,,,,,,,,,blue,hexagon
0.0,5.0,1.0,1.0,5.0,0.0,0.0,3.0,1.0,phase_2,stop,300.0,550.0,4.0,,,,,,,,,yellow,flipped triangle
0.0,5.0,1.0,1.0,6.0,6.0,1145.1174049998372,3.0,1.0,phase_2,go,350.0,550.0,1.0,,,,,,,,,yellow,flipped triangle
0.0,4.0,4.0,0.0,6.0,6.0,758.2057979998353,3.0,1.0,phase_2,go,350.0,550.0,1.0,,,,,,,,,white,square
0.0,1.0,1.0,0.0,6.0,6.0,473.7536169996019,3.0,1.0,phase_2,go,350.0,550.0,1.0,,,,,,,,,magenta,diamond
0.0,4.0,4.0,0.0,5.0,5.0,958.4847240003,3.0,1.0,phase_2,go,350.0,550.0,1.0,,,,,,,,,white,square
0.0,8.0,4.0,1.0,6.0,6.0,476.4539080006216,3.0,1.0,phase_2,go,350.0,550.0,1.0,,,,,,,,,blue,hexagon
0.0,4.0,4.0,0.0,5.0,5.0,1016.8213039996772,3.0,1.0,phase_2,go,350.0,550.0,1.0,,,,,,,,,white,square
0.0,8.0,4.0,1.0,5.0,0.0,0.0,3.0,1.0,phase_2,stop,350.0,550.0,4.0,,,,,,,,,blue,hexagon
0.0,6.0,2.0,1.0,5.0,0.0,0.0,3.0,1.0,phase_2,stop,400.0,550.0,4.0,,,,,,,,,green,circle
0.0,4.0,4.0,0.0,5.0,5.0,783.8866609999968,3.0,1.0,phase_2,go,450.0,550.0,1.0,,,,,,,,,white,square
0.0,7.0,3.0,1.0,5.0,5.0,644.2495009996492,3.0,1.0,phase_2,stop,450.0,550.0,3.0,,,,,,,,,gray,I
0.0,7.0,3.0,1.0,6.0,6.0,830.6956260003062,3.0,1.0,phase_2,go,400.0,550.0,1.0,,,,,,,,,gray,I
0.0,4.0,4.0,0.0,5.0,5.0,1148.560229000395,3.0,1.0,phase_2,go,400.0,550.0,1.0,,,,,,,,,white,square
0.0,7.0,3.0,1.0,6.0,6.0,393.2631440002296,3.0,1.0,phase_2,stop,400.0,550.0,3.0,,,,,,,,,gray,I
0.0,1.0,1.0,0.0,6.0,6.0,449.4451990003654,3.0,1.0,phase_2,go,400.0,500.0,1.0,,,,,,,,,magenta,diamond
0.0,6.0,2.0,1.0,5.0,5.0,363.9461330003541,3.0,1.0,phase_2,stop,400.0,500.0,3.0,,,,,,,,,green,circle
0.0,1.0,1.0,0.0,5.0,5.0,1110.507900999437,3.0,1.0,phase_2,go,350.0,500.0,1.0,,,,,,,,,magenta,diamond
0.0,6.0,2.0,1.0,5.0,0.0,0.0,3.0,1.0,phase_2,stop,350.0,500.0,4.0,,,,,,,,,green,circle
0.0,2.0,2.0,0.0,5.0,5.0,923.8028259997008,3.0,1.0,phase_2,go,400.0,500.0,1.0,,,,,,,,,cyan,cross
0.0,2.0,2.0,0.0,5.0,5.0,559.98622000061,4.0,1.0,phase_2,go,400.0,500.0,1.0,,,,,,,,,cyan,cross
0.0,4.0,4.0,0.0,6.0,6.0,439.1781939993961,4.0,1.0,phase_2,go,400.0,500.0,1.0,,,,,,,,,white,square
0.0,5.0,1.0,1.0,5.0,5.0,279.2829460004213,4.0,1.0,phase_2,stop,400.0,500.0,3.0,,,,,,,,,yellow,flipped triangle
0.0,1.0,1.0,0.0,6.0,6.0,493.222321999383,4.0,1.0,phase_2,go,350.0,500.0,1.0,,,,,,,,,magenta,diamond
0.0,7.0,3.0,1.0,6.0,6.0,537.5934880003115,4.0,1.0,phase_2,stop,350.0,500.0,3.0,,,,,,,,,gray,I
0.0,2.0,2.0,0.0,5.0,5.0,326.7235000002984,4.0,1.0,phase_2,go,350.0,450.0,1.0,,,,,,,,,cyan,cross
0.0,8.0,4.0,1.0,6.0,0.0,0.0,4.0,1.0,phase_2,stop,350.0,450.0,4.0,,,,,,,,,blue,hexagon
0.0,7.0,3.0,1.0,6.0,0.0,0.0,4.0,1.0,phase_2,stop,350.0,500.0,4.0,,,,,,,,,gray,I
0.0,1.0,1.0,0.0,5.0,5.0,681.1304439997912,4.0,1.0,phase_2,go,350.0,550.0,1.0,,,,,,,,,magenta,diamond
0.0,2.0,2.0,0.0,6.0,6.0,402.5399619995369,4.0,1.0,phase_2,go,350.0,550.0,1.0,,,,,,,,,cyan,cross
0.0,3.0,3.0,0.0,6.0,6.0,1064.2641439999352,4.0,1.0,phase_2,go,350.0,550.0,1.0,,,,,,,,,orange,triangle
0.0,6.0,2.0,1.0,6.0,6.0,540.1565600004687,4.0,1.0,phase_2,stop,350.0,550.0,3.0,,,,,,,,,green,circle
0.0,8.0,4.0,1.0,6.0,0.0,0.0,4.0,1.0,phase_2,stop,350.0,500.0,4.0,,,,,,,,,blue,hexagon
0.0,8.0,4.0,1.0,6.0,0.0,0.0,4.0,1.0,phase_2,stop,350.0,550.0,4.0,,,,,,,,,blue,hexagon
0.0,1.0,1.0,0.0,6.0,6.0,847.6974610002799,4.0,1.0,phase_2,go,350.0,600.0,1.0,,,,,,,,,magenta,diamond
0.0,3.0,3.0,0.0,5.0,5.0,670.7862920002299,4.0,1.0,phase_2,go,350.0,600.0,1.0,,,,,,,,,orange,triangle
0.0,3.0,3.0,0.0,5.0,5.0,529.9316119999276,4.0,1.0,phase_2,go,350.0,600.0,1.0,,,,,,,,,orange,triangle
0.0,6.0,2.0,1.0,6.0,6.0,446.8393800007106,4.0,1.0,phase_2,stop,350.0,600.0,3.0,,,,,,,,,green,circle
0.0,6.0,2.0,1.0,6.0,0.0,0.0,4.0,1.0,phase_2,stop,350.0,550.0,4.0,,,,,,,,,green,circle
0.0,4.0,4.0,0.0,5.0,5.0,485.3750050006056,4.0,1.0,phase_2,go,350.0,600.0,1.0,,,,,,,,,white,square
0.0,8.0,4.0,1.0,5.0,0.0,0.0,4.0,1.0,phase_2,stop,350.0,600.0,4.0,,,,,,,,,blue,hexagon
0.0,5.0,1.0,1.0,6.0,6.0,665.7944019998467,4.0,1.0,phase_2,stop,400.0,600.0,3.0,,,,,,,,,yellow,flipped triangle
0.0,1.0,1.0,0.0,6.0,0.0,0.0,4.0,1.0,phase_2,go,400.0,550.0,5.0,,,,,,,,,magenta,diamond
0.0,2.0,2.0,0.0,5.0,5.0,355.7355840002856,4.0,1.0,phase_2,go,400.0,550.0,1.0,,,,,,,,,cyan,cross
0.0,8.0,4.0,1.0,5.0,5.0,432.2393429993099,4.0,1.0,phase_2,go,400.0,550.0,1.0,,,,,,,,,blue,hexagon
0.0,2.0,2.0,0.0,6.0,6.0,365.460377999625,4.0,1.0,phase_2,go,400.0,550.0,1.0,,,,,,,,,cyan,cross
0.0,1.0,1.0,0.0,5.0,5.0,344.6343549994708,4.0,1.0,phase_2,go,400.0,550.0,1.0,,,,,,,,,magenta,diamond
0.0,7.0,3.0,1.0,5.0,5.0,457.1949009996388,4.0,1.0,phase_2,stop,400.0,550.0,3.0,,,,,,,,,gray,I
0.0,3.0,3.0,0.0,6.0,6.0,512.9716689998531,4.0,1.0,phase_2,go,350.0,550.0,1.0,,,,,,,,,orange,triangle
0.0,6.0,2.0,1.0,5.0,5.0,458.487812000385,4.0,1.0,phase_2,go,350.0,550.0,1.0,,,,,,,,,green,circle
0.0,4.0,4.0,0.0,6.0,6.0,542.0258559997819,4.0,1.0,phase_2,go,350.0,550.0,1.0,,,,,,,,,white,square
0.0,5.0,1.0,1.0,5.0,5.0,381.9134069999563,4.0,1.0,phase_2,go,350.0,550.0,1.0,,,,,,,,,yellow,flipped triangle
0.0,1.0,1.0,0.0,5.0,5.0,606.4736079997601,4.0,1.0,phase_2,go,350.0,550.0,1.0,,,,,,,,,magenta,diamond
0.0,3.0,3.0,0.0,6.0,6.0,337.3482930001046,4.0,1.0,phase_2,go,350.0,550.0,1.0,,,,,,,,,orange,triangle
0.0,3.0,3.0,0.0,5.0,5.0,299.1373129998464,4.0,1.0,phase_2,go,350.0,550.0,1.0,,,,,,,,,orange,triangle
0.0,3.0,3.0,0.0,5.0,5.0,260.80125199951,4.0,1.0,phase_2,go,350.0,550.0,1.0,,,,,,,,,orange,triangle
0.0,6.0,2.0,1.0,6.0,6.0,530.4174849998162,5.0,1.0,phase_2,stop,350.0,550.0,3.0,,,,,,,,,green,circle
0.0,8.0,4.0,1.0,5.0,5.0,421.5760639999644,5.0,1.0,phase_2,stop,350.0,500.0,3.0,,,,,,,,,blue,hexagon
0.0,7.0,3.0,1.0,6.0,6.0,715.2989109999908,5.0,1.0,phase_2,stop,300.0,500.0,3.0,,,,,,,,,gray,I
0.0,1.0,1.0,0.0,6.0,6.0,473.5000479995506,5.0,1.0,phase_2,go,300.0,450.0,1.0,,,,,,,,,magenta,diamond
0.0,8.0,4.0,1.0,6.0,0.0,0.0,5.0,1.0,phase_2,stop,300.0,450.0,4.0,,,,,,,,,blue,hexagon
0.0,4.0,4.0,0.0,6.0,6.0,761.4055760004703,5.0,1.0,phase_2,go,300.0,500.0,1.0,,,,,,,,,white,square
0.0,2.0,2.0,0.0,6.0,6.0,1053.6928620003891,5.0,1.0,phase_2,go,300.0,500.0,1.0,,,,,,,,,cyan,cross
0.0,7.0,3.0,1.0,5.0,0.0,0.0,5.0,1.0,phase_2,stop,300.0,500.0,4.0,,,,,,,,,gray,I
0.0,6.0,2.0,1.0,6.0,0.0,0.0,5.0,1.0,phase_2,stop,350.0,500.0,4.0,,,,,,,,,green,circle
0.0,7.0,3.0,1.0,5.0,5.0,986.0254720006196,5.0,1.0,phase_2,go,350.0,550.0,1.0,,,,,,,,,gray,I
0.0,2.0,2.0,0.0,6.0,6.0,996.5836979999948,5.0,1.0,phase_2,go,350.0,550.0,1.0,,,,,,,,,cyan,cross
0.0,3.0,3.0,0.0,5.0,5.0,420.5351390000942,5.0,1.0,phase_2,go,350.0,550.0,1.0,,,,,,,,,orange,triangle
0.0,4.0,4.0,0.0,6.0,6.0,409.8665090004942,5.0,1.0,phase_2,go,350.0,550.0,1.0,,,,,,,,,white,square
0.0,8.0,4.0,1.0,5.0,5.0,709.0486410006633,5.0,1.0,phase_2,go,350.0,550.0,1.0,,,,,,,,,blue,hexagon
0.0,6.0,2.0,1.0,5.0,0.0,0.0,5.0,1.0,phase_2,stop,350.0,550.0,4.0,,,,,,,,,green,circle
0.0,1.0,1.0,0.0,5.0,5.0,1286.71365900027,5.0,1.0,phase_2,go,400.0,550.0,1.0,,,,,,,,,magenta,diamond
0.0,3.0,3.0,0.0,6.0,6.0,1182.328828000209,5.0,1.0,phase_2,go,400.0,550.0,1.0,,,,,,,,,orange,triangle
0.0,1.0,1.0,0.0,6.0,6.0,1043.4374349997595,5.0,1.0,phase_2,go,400.0,550.0,1.0,,,,,,,,,magenta,diamond
0.0,2.0,2.0,0.0,6.0,6.0,736.8170890003967,5.0,1.0,phase_2,go,400.0,550.0,1.0,,,,,,,,,cyan,cross
0.0,8.0,4.0,1.0,6.0,6.0,430.0190139992992,5.0,1.0,phase_2,stop,400.0,550.0,3.0,,,,,,,,,blue,hexagon
0.0,5.0,1.0,1.0,6.0,6.0,653.4389989992633,5.0,1.0,phase_2,go,400.0,500.0,1.0,,,,,,,,,yellow,flipped triangle
0.0,4.0,4.0,0.0,6.0,6.0,559.3034869998519,5.0,1.0,phase_2,go,400.0,500.0,1.0,,,,,,,,,white,square
0.0,4.0,4.0,0.0,6.0,6.0,1129.8789949996717,5.0,1.0,phase_2,go,400.0,500.0,1.0,,,,,,,,,white,square
0.0,2.0,2.0,0.0,6.0,6.0,698.9316540002619,5.0,1.0,phase_2,go,400.0,500.0,1.0,,,,,,,,,cyan,cross
0.0,5.0,1.0,1.0,6.0,6.0,374.1002440001466,5.0,1.0,phase_2,stop,400.0,500.0,3.0,,,,,,,,,yellow,flipped triangle
0.0,6.0,2.0,1.0,5.0,5.0,465.9654239994779,5.0,1.0,phase_2,stop,400.0,450.0,3.0,,,,,,,,,green,circle
0.0,5.0,1.0,1.0,6.0,0.0,0.0,5.0,1.0,phase_2,stop,350.0,450.0,4.0,,,,,,,,,yellow,flipped triangle
0.0,4.0,4.0,0.0,6.0,6.0,940.643492000163,5.0,1.0,phase_2,go,350.0,500.0,1.0,,,,,,,,,white,square
0.0,4.0,4.0,0.0,5.0,5.0,428.999142000066,5.0,1.0,phase_2,go,350.0,500.0,1.0,,,,,,,,,white,square
0.0,6.0,2.0,1.0,6.0,6.0,410.2195020004728,5.0,1.0,phase_2,go,350.0,500.0,1.0,,,,,,,,,green,circle
0.0,5.0,1.0,1.0,6.0,6.0,418.3977480006433,5.0,1.0,phase_2,go,350.0,500.0,1.0,,,,,,,,,yellow,flipped triangle
0.0,1.0,1.0,0.0,6.0,6.0,466.2424870002724,5.0,1.0,phase_2,go,350.0,500.0,1.0,,,,,,,,,magenta,diamond
0.0,3.0,3.0,0.0,5.0,5.0,409.2344020000382,5.0,1.0,phase_2,go,350.0,500.0,1.0,,,,,,,,,orange,triangle
0.0,4.0,4.0,0.0,6.0,6.0,382.2460139999748,5.0,1.0,phase_2,go,350.0,500.0,1.0,,,,,,,,,white,square
0.0,1.0,1.0,0.0,6.0,6.0,427.4362930000279,5.0,1.0,phase_2,go,350.0,500.0,1.0,,,,,,,,,magenta,diamond
0.0,5.0,1.0,1.0,6.0,6.0,354.3925750000198,5.0,1.0,phase_2,stop,350.0,500.0,3.0,,,,,,,,,yellow,flipped triangle
0.0,8.0,4.0,1.0,5.0,5.0,568.7779700001556,6.0,1.0,phase_2,stop,350.0,450.0,3.0,,,,,,,,,blue,hexagon
0.0,2.0,2.0,0.0,6.0,6.0,429.3389639997258,6.0,1.0,phase_2,go,300.0,450.0,1.0,,,,,,,,,cyan,cross
0.0,5.0,1.0,1.0,5.0,5.0,363.0171400000108,6.0,1.0,phase_2,stop,300.0,450.0,3.0,,,,,,,,,yellow,flipped triangle
0.0,6.0,2.0,1.0,6.0,6.0,493.9605299996401,6.0,1.0,phase_2,go,250.0,450.0,1.0,,,,,,,,,green,circle
0.0,3.0,3.0,0.0,6.0,6.0,270.7507310005894,6.0,1.0,phase_2,go,250.0,450.0,1.0,,,,,,,,,orange,triangle
0.0,1.0,1.0,0.0,6.0,6.0,493.4814939997523,6.0,1.0,phase_2,go,250.0,450.0,1.0,,,,,,,,,magenta,diamond
0.0,7.0,3.0,1.0,6.0,6.0,413.0721880001147,6.0,1.0,phase_2,stop,250.0,450.0,3.0,,,,,,,,,gray,I
0.0,7.0,3.0,1.0,5.0,5.0,359.7878000000492,6.0,1.0,phase_2,stop,250.0,400.0,3.0,,,,,,,,,gray,I
0.0,2.0,2.0,0.0,6.0,6.0,589.5117970003412,6.0,1.0,phase_2,go,200.0,400.0,1.0,,,,,,,,,cyan,cross
0.0,4.0,4.0,0.0,5.0,5.0,374.266370999976,6.0,1.0,phase_2,go,200.0,400.0,1.0,,,,,,,,,white,square
0.0,8.0,4.0,1.0,5.0,5.0,416.1269559999709,6.0,1.0,phase_2,stop,200.0,400.0,3.0,,,,,,,,,blue,hexagon
0.0,6.0,2.0,1.0,6.0,6.0,653.258626999559,6.0,1.0,phase_2,stop,150.0,400.0,3.0,,,,,,,,,green,circle
0.0,1.0,1.0,0.0,6.0,6.0,1271.5919700003724,6.0,1.0,phase_2,go,150.0,350.0,1.0,,,,,,,,,magenta,diamond
0.0,3.0,3.0,0.0,6.0,6.0,419.3090919998212,6.0,1.0,phase_2,go,150.0,350.0,1.0,,,,,,,,,orange,triangle
0.0,3.0,3.0,0.0,5.0,5.0,409.4520290000218,6.0,1.0,phase_2,go,150.0,350.0,1.0,,,,,,,,,orange,triangle
0.0,1.0,1.0,0.0,6.0,6.0,288.241287999881,6.0,1.0,phase_2,go,150.0,350.0,1.0,,,,,,,,,magenta,diamond
0.0,1.0,1.0,0.0,5.0,5.0,355.0239109999893,6.0,1.0,phase_2,go,150.0,350.0,1.0,,,,,,,,,magenta,diamond
0.0,5.0,1.0,1.0,5.0,5.0,409.9954260000231,6.0,1.0,phase_2,stop,150.0,350.0,3.0,,,,,,,,,yellow,flipped triangle
0.0,1.0,1.0,0.0,6.0,6.0,420.0076070001159,6.0,1.0,phase_2,go,100.0,350.0,1.0,,,,,,,,,magenta,diamond
0.0,4.0,4.0,0.0,6.0,6.0,548.2211349999488,6.0,1.0,phase_2,go,100.0,350.0,1.0,,,,,,,,,white,square
0.0,5.0,1.0,1.0,6.0,6.0,414.4164970002748,6.0,1.0,phase_2,stop,100.0,350.0,3.0,,,,,,,,,yellow,flipped triangle
0.0,7.0,3.0,1.0,5.0,0.0,0.0,6.0,1.0,phase_2,stop,100.0,300.0,4.0,,,,,,,,,gray,I
0.0,3.0,3.0,0.0,5.0,5.0,710.7623960000637,6.0,1.0,phase_2,go,150.0,300.0,1.0,,,,,,,,,orange,triangle
0.0,2.0,2.0,0.0,6.0,6.0,357.3755200004598,6.0,1.0,phase_2,go,150.0,300.0,1.0,,,,,,,,,cyan,cross
0.0,2.0,2.0,0.0,6.0,6.0,450.3909099994416,6.0,1.0,phase_2,go,150.0,300.0,1.0,,,,,,,,,cyan,cross
0.0,1.0,1.0,0.0,5.0,5.0,317.5052749993483,6.0,1.0,phase_2,go,150.0,300.0,1.0,,,,,,,,,magenta,diamond
0.0,6.0,2.0,1.0,5.0,5.0,394.6276040005614,6.0,1.0,phase_2,stop,150.0,300.0,3.0,,,,,,,,,green,circle
0.0,2.0,2.0,0.0,6.0,6.0,457.9352719993039,6.0,1.0,phase_2,go,100.0,300.0,1.0,,,,,,,,,cyan,cross
0.0,3.0,3.0,0.0,5.0,5.0,448.6221460001616,6.0,1.0,phase_2,go,100.0,300.0,1.0,,,,,,,,,orange,triangle
0.0,7.0,3.0,1.0,6.0,6.0,379.4626049993894,6.0,1.0,phase_2,stop,100.0,300.0,3.0,,,,,,,,,gray,I
0.0,7.0,3.0,1.0,6.0,0.0,0.0,6.0,1.0,phase_2,stop,100.0,250.0,4.0,,,,,,,,,gray,I
0.0,3.0,3.0,0.0,5.0,5.0,683.8125630001741,6.0,1.0,phase_2,go,100.0,300.0,1.0,,,,,,,,,orange,triangle
0.0,5.0,1.0,1.0,6.0,6.0,452.4701830005142,6.0,1.0,phase_2,stop,100.0,300.0,3.0,,,,,,,,,yellow,flipped triangle
0.0,3.0,3.0,0.0,5.0,5.0,664.2146640006104,6.0,1.0,phase_2,go,100.0,250.0,1.0,,,,,,,,,orange,triangle
0.0,5.0,1.0,1.0,5.0,0.0,0.0,6.0,1.0,phase_2,stop,100.0,250.0,4.0,,,,,,,,,yellow,flipped triangle
0.0,3.0,3.0,0.0,6.0,6.0,645.5691959999967,6.0,1.0,phase_2,go,150.0,250.0,1.0,,,,,,,,,orange,triangle
0.0,3.0,3.0,0.0,6.0,6.0,541.6892060002283,7.0,1.0,phase_2,go,150.0,250.0,1.0,,,,,,,,,orange,triangle
0.0,7.0,3.0,1.0,5.0,5.0,492.4354899994796,7.0,1.0,phase_2,stop,150.0,250.0,3.0,,,,,,,,,gray,I
0.0,3.0,3.0,0.0,6.0,6.0,540.999388000273,7.0,1.0,phase_2,go,100.0,250.0,1.0,,,,,,,,,orange,triangle
0.0,3.0,3.0,0.0,5.0,5.0,514.8147690006226,7.0,1.0,phase_2,go,100.0,250.0,1.0,,,,,,,,,orange,triangle
0.0,4.0,4.0,0.0,5.0,5.0,548.5579200003485,7.0,1.0,phase_2,go,100.0,250.0,1.0,,,,,,,,,white,square
0.0,6.0,2.0,1.0,5.0,5.0,334.308219000377,7.0,1.0,phase_2,stop,100.0,250.0,3.0,,,,,,,,,green,circle
0.0,2.0,2.0,0.0,5.0,5.0,662.0166259999678,7.0,1.0,phase_2,go,50.0,250.0,1.0,,,,,,,,,cyan,cross
0.0,7.0,3.0,1.0,6.0,6.0,557.4279069996919,7.0,1.0,phase_2,go,50.0,250.0,1.0,,,,,,,,,gray,I
0.0,2.0,2.0,0.0,6.0,6.0,436.1713369999052,7.0,1.0,phase_2,go,50.0,250.0,1.0,,,,,,,,,cyan,cross
0.0,7.0,3.0,1.0,6.0,6.0,494.5121490000019,7.0,1.0,phase_2,go,50.0,250.0,1.0,,,,,,,,,gray,I
0.0,6.0,2.0,1.0,5.0,0.0,0.0,7.0,1.0,phase_2,stop,50.0,250.0,4.0,,,,,,,,,green,circle
0.0,1.0,1.0,0.0,5.0,5.0,1190.86328100002,7.0,1.0,phase_2,go,100.0,250.0,1.0,,,,,,,,,magenta,diamond
0.0,2.0,2.0,0.0,5.0,5.0,688.130414000625,7.0,1.0,phase_2,go,100.0,250.0,1.0,,,,,,,,,cyan,cross
0.0,1.0,1.0,0.0,5.0,5.0,446.9059240000206,7.0,1.0,phase_2,go,100.0,250.0,1.0,,,,,,,,,magenta,diamond
0.0,4.0,4.0,0.0,5.0,5.0,502.9014179999649,7.0,1.0,phase_2,go,100.0,250.0,1.0,,,,,,,,,white,square
0.0,4.0,4.0,0.0,5.0,5.0,475.348839999242,7.0,1.0,phase_2,go,100.0,250.0,1.0,,,,,,,,,white,square
0.0,5.0,1.0,1.0,5.0,0.0,0.0,7.0,1.0,phase_2,stop,100.0,250.0,4.0,,,,,,,,,yellow,flipped triangle
0.0,7.0,3.0,1.0,5.0,0.0,0.0,7.0,1.0,phase_2,stop,150.0,250.0,4.0,,,,,,,,,gray,I
0.0,7.0,3.0,1.0,5.0,5.0,1053.7374440000349,7.0,1.0,phase_2,go,200.0,250.0,1.0,,,,,,,,,gray,I
0.0,6.0,2.0,1.0,5.0,5.0,700.574016000246,7.0,1.0,phase_2,go,200.0,250.0,1.0,,,,,,,,,green,circle
0.0,4.0,4.0,0.0,6.0,6.0,300.4221999999572,7.0,1.0,phase_2,go,200.0,250.0,1.0,,,,,,,,,white,square
0.0,4.0,4.0,0.0,5.0,5.0,261.2016490002133,7.0,1.0,phase_2,go,200.0,250.0,1.0,,,,,,,,,white,square
0.0,5.0,1.0,1.0,5.0,5.0,427.9641129996889,7.0,1.0,phase_2,stop,200.0,250.0,3.0,,,,,,,,,yellow,flipped triangle
0.0,7.0,3.0,1.0,5.0,0.0,0.0,7.0,1.0,phase_2,stop,150.0,250.0,4.0,,,,,,,,,gray,I
0.0,6.0,2.0,1.0,6.0,6.0,651.4241479999328,7.0,1.0,phase_2,go,200.0,250.0,1.0,,,,,,,,,green,circle
0.0,4.0,4.0,0.0,6.0,6.0,372.2882029996981,7.0,1.0,phase_2,go,200.0,250.0,1.0,,,,,,,,,white,square
0.0,3.0,3.0,0.0,5.0,5.0,539.4411830002355,7.0,1.0,phase_2,go,200.0,250.0,1.0,,,,,,,,,orange,triangle
0.0,8.0,4.0,1.0,5.0,0.0,0.0,7.0,1.0,phase_2,stop,200.0,250.0,4.0,,,,,,,,,blue,hexagon
0.0,1.0,1.0,0.0,5.0,5.0,801.9823269996778,7.0,1.0,phase_2,go,250.0,250.0,1.0,,,,,,,,,magenta,diamond
0.0,5.0,1.0,1.0,5.0,5.0,761.0311980006372,7.0,1.0,phase_2,go,250.0,250.0,1.0,,,,,,,,,yellow,flipped triangle
0.0,2.0,2.0,0.0,5.0,5.0,699.3424629999936,7.0,1.0,phase_2,go,250.0,250.0,1.0,,,,,,,,,cyan,cross
0.0,5.0,1.0,1.0,6.0,0.0,0.0,7.0,1.0,phase_2,stop,250.0,250.0,4.0,,,,,,,,,yellow,flipped triangle
0.0,1.0,1.0,0.0,6.0,6.0,955.585605000124,7.0,1.0,phase_2,go,250.0,300.0,1.0,,,,,,,,,magenta,diamond
0.0,7.0,3.0,1.0,5.0,5.0,460.237639999832,7.0,1.0,phase_2,stop,250.0,300.0,3.0,,,,,,,,,gray,I
0.0,2.0,2.0,0.0,6.0,6.0,1102.0215309999912,7.0,1.0,phase_2,go,200.0,300.0,1.0,,,,,,,,,cyan,cross
0.0,2.0,2.0,0.0,6.0,6.0,492.5924740000482,7.0,1.0,phase_2,go,200.0,300.0,1.0,,,,,,,,,cyan,cross
0.0,8.0,4.0,1.0,6.0,0.0,0.0,8.0,1.0,phase_2,stop,200.0,300.0,4.0,,,,,,,,,blue,hexagon
0.0,8.0,4.0,1.0,6.0,0.0,0.0,8.0,1.0,phase_2,stop,200.0,350.0,4.0,,,,,,,,,blue,hexagon
0.0,1.0,1.0,0.0,5.0,5.0,382.5227940005788,8.0,1.0,phase_2,go,200.0,400.0,1.0,,,,,,,,,magenta,diamond
0.0,1.0,1.0,0.0,5.0,5.0,410.150091000105,8.0,1.0,phase_2,go,200.0,400.0,1.0,,,,,,,,,magenta,diamond
0.0,2.0,2.0,0.0,5.0,5.0,417.7524520000588,8.0,1.0,phase_2,go,200.0,400.0,1.0,,,,,,,,,cyan,cross
0.0,2.0,2.0,0.0,5.0,5.0,511.08322799973394,8.0,1.0,phase_2,go,200.0,400.0,1.0,,,,,,,,,cyan,cross
0.0,5.0,1.0,1.0,6.0,6.0,622.8654540000207,8.0,1.0,phase_2,go,200.0,400.0,1.0,,,,,,,,,yellow,flipped triangle
0.0,3.0,3.0,0.0,5.0,5.0,550.7840800000849,8.0,1.0,phase_2,go,200.0,400.0,1.0,,,,,,,,,orange,triangle
0.0,5.0,1.0,1.0,5.0,5.0,406.726329999401,8.0,1.0,phase_2,stop,200.0,400.0,3.0,,,,,,,,,yellow,flipped triangle
0.0,2.0,2.0,0.0,5.0,5.0,1034.5285220000733,8.0,1.0,phase_2,go,150.0,400.0,1.0,,,,,,,,,cyan,cross
0.0,7.0,3.0,1.0,5.0,0.0,0.0,8.0,1.0,phase_2,stop,150.0,400.0,4.0,,,,,,,,,gray,I
0.0,1.0,1.0,0.0,6.0,6.0,651.5411629998198,8.0,1.0,phase_2,go,200.0,400.0,1.0,,,,,,,,,magenta,diamond
0.0,8.0,4.0,1.0,5.0,5.0,503.03115299993806,8.0,1.0,phase_2,go,200.0,400.0,1.0,,,,,,,,,blue,hexagon
0.0,8.0,4.0,1.0,5.0,5.0,476.7683259997284,8.0,1.0,phase_2,stop,200.0,400.0,3.0,,,,,,,,,blue,hexagon
0.0,3.0,3.0,0.0,6.0,6.0,400.8538200005205,8.0,1.0,phase_2,go,150.0,400.0,1.0,,,,,,,,,orange,triangle
0.0,7.0,3.0,1.0,6.0,6.0,519.9707860001581,8.0,1.0,phase_2,stop,150.0,400.0,3.0,,,,,,,,,gray,I
0.0,1.0,1.0,0.0,6.0,6.0,1032.1429089999583,8.0,1.0,phase_2,go,150.0,350.0,1.0,,,,,,,,,magenta,diamond
0.0,6.0,2.0,1.0,6.0,6.0,392.7835009999398,8.0,1.0,phase_2,stop,150.0,350.0,3.0,,,,,,,,,green,circle
0.0,7.0,3.0,1.0,6.0,0.0,0.0,8.0,1.0,phase_2,stop,150.0,300.0,4.0,,,,,,,,,gray,I
0.0,3.0,3.0,0.0,6.0,6.0,727.717685999778,8.0,1.0,phase_2,go,150.0,350.0,1.0,,,,,,,,,orange,triangle
0.0,2.0,2.0,0.0,5.0,5.0,707.442376000472,8.0,1.0,phase_2,go,150.0,350.0,1.0,,,,,,,,,cyan,cross
0.0,6.0,2.0,1.0,6.0,6.0,552.8407299998435,8.0,1.0,phase_2,stop,150.0,350.0,3.0,,,,,,,,,green,circle
0.0,2.0,2.0,0.0,6.0,6.0,495.488608999949,8.0,1.0,phase_2,go,150.0,300.0,1.0,,,,,,,,,cyan,cross
0.0,6.0,2.0,1.0,5.0,5.0,745.0548879996859,8.0,1.0,phase_2,go,150.0,300.0,1.0,,,,,,,,,green,circle
0.0,7.0,3.0,1.0,6.0,6.0,428.9020400001391,8.0,1.0,phase_2,go,150.0,300.0,1.0,,,,,,,,,gray,I
0.0,5.0,1.0,1.0,5.0,0.0,0.0,8.0,1.0,phase_2,stop,150.0,300.0,4.0,,,,,,,,,yellow,flipped triangle
0.0,4.0,4.0,0.0,5.0,5.0,1211.6786279993903,8.0,1.0,phase_2,go,200.0,300.0,1.0,,,,,,,,,white,square
0.0,5.0,1.0,1.0,5.0,0.0,0.0,8.0,1.0,phase_2,stop,200.0,300.0,4.0,,,,,,,,,yellow,flipped triangle
0.0,7.0,3.0,1.0,6.0,0.0,0.0,8.0,1.0,phase_2,stop,250.0,300.0,4.0,,,,,,,,,gray,I
0.0,2.0,2.0,0.0,5.0,5.0,644.1059369999493,8.0,1.0,phase_2,go,250.0,350.0,1.0,,,,,,,,,cyan,cross
0.0,6.0,2.0,1.0,6.0,0.0,0.0,8.0,1.0,phase_2,stop,250.0,350.0,4.0,,,,,,,,,green,circle
0.0,5.0,1.0,1.0,6.0,6.0,1005.3064180001456,8.0,1.0,phase_2,go,250.0,400.0,1.0,,,,,,,,,yellow,flipped triangle
0.0,4.0,4.0,0.0,6.0,6.0,539.9702009999601,8.0,1.0,phase_2,go,250.0,400.0,1.0,,,,,,,,,white,square
0.0,6.0,2.0,1.0,6.0,6.0,372.9744930005836,8.0,1.0,phase_2,stop,250.0,400.0,3.0,,,,,,,,,green,circle
0.0,1.0,1.0,0.0,6.0,6.0,429.9151240002175,8.0,1.0,phase_2,go,250.0,350.0,1.0,,,,,,,,,magenta,diamond
0.0,5.0,1.0,1.0,5.0,5.0,514.0466769998966,8.0,1.0,phase_2,go,250.0,350.0,1.0,,,,,,,,,yellow,flipped triangle
0.0,7.0,3.0,1.0,7.0,6.0,1344.3500499997754,1.0,1.0,phase_3,,,,,580.0,5.0,348.0,232.0,464.0,696.0,116.0,580.0,gray,I
0.0,7.0,3.0,1.0,7.0,5.0,584.8119680003947,1.0,1.0,phase_3,,,,,576.0,3.0,960.0,192.0,768.0,1152.0,576.0,384.0,gray,I
0.0,3.0,3.0,0.0,7.0,2.0,518.2303080000565,1.0,1.0,phase_3,,,,,173.0,1.0,692.0,173.0,519.0,865.0,1038.0,346.0,orange,triangle
0.0,7.0,3.0,1.0,7.0,5.0,499.57414399978,1.0,1.0,phase_3,,,,,580.0,5.0,116.0,232.0,696.0,464.0,580.0,348.0,gray,I
0.0,1.0,1.0,0.0,7.0,3.0,491.6506070003379,1.0,1.0,phase_3,,,,,924.0,6.0,154.0,616.0,924.0,308.0,462.0,770.0,magenta,diamond
0.0,2.0,2.0,0.0,7.0,1.0,0.2066039996861,1.0,1.0,phase_3,,,,,865.0,5.0,865.0,346.0,692.0,519.0,1038.0,173.0,cyan,cross
0.0,3.0,3.0,0.0,7.0,3.0,416.0360679998121,1.0,1.0,phase_3,,,,,865.0,5.0,519.0,1038.0,865.0,173.0,346.0,692.0,orange,triangle
0.0,5.0,1.0,1.0,7.0,5.0,304.9936709994654,1.0,1.0,phase_3,,,,,540.0,4.0,270.0,135.0,810.0,405.0,540.0,675.0,yellow,flipped triangle
0.0,4.0,4.0,0.0,7.0,3.0,56.4013309995061,1.0,1.0,phase_3,,,,,540.0,4.0,810.0,270.0,540.0,405.0,675.0,135.0,white,square
0.0,4.0,4.0,0.0,7.0,5.0,306.7562010000983,1.0,1.0,phase_3,,,,,960.0,5.0,768.0,576.0,192.0,384.0,960.0,1152.0,white,square
0.0,4.0,4.0,0.0,7.0,6.0,445.8112559996152,1.0,1.0,phase_3,,,,,462.0,3.0,308.0,770.0,616.0,154.0,924.0,462.0,white,square
0.0,1.0,1.0,0.0,7.0,1.0,436.234210999828,1.0,1.0,phase_3,,,,,348.0,3.0,348.0,116.0,464.0,696.0,232.0,580.0,magenta,diamond
0.0,6.0,2.0,1.0,7.0,4.0,4321.098872999755,1.0,1.0,phase_3,,,,,675.0,5.0,540.0,405.0,135.0,675.0,270.0,810.0,green,circle
0.0,2.0,2.0,0.0,7.0,3.0,481.9018820007841,1.0,1.0,phase_3,,,,,924.0,6.0,308.0,154.0,924.0,616.0,462.0,770.0,cyan,cross
0.0,3.0,3.0,0.0,7.0,3.0,545.9621780000816,1.0,1.0,phase_3,,,,,464.0,4.0,580.0,116.0,464.0,232.0,348.0,696.0,orange,triangle
0.0,8.0,4.0,1.0,7.0,1.0,482.0374800001445,1.0,1.0,phase_3,,,,,232.0,2.0,232.0,580.0,464.0,696.0,116.0,348.0,blue,hexagon
0.0,5.0,1.0,1.0,7.0,5.0,482.3759130003964,1.0,1.0,phase_3,,,,,865.0,5.0,346.0,519.0,173.0,692.0,865.0,1038.0,yellow,flipped triangle
0.0,5.0,1.0,1.0,7.0,1.0,957.501412000056,1.0,1.0,phase_3,,,,,1152.0,6.0,1152.0,192.0,576.0,960.0,384.0,768.0,yellow,flipped triangle
0.0,3.0,3.0,0.0,7.0,4.0,1148.917815000459,1.0,1.0,phase_3,,,,,464.0,4.0,232.0,580.0,116.0,464.0,696.0,348.0,orange,triangle
0.0,7.0,3.0,1.0,7.0,6.0,388.8044980003542,1.0,1.0,phase_3,,,,,540.0,4.0,810.0,270.0,675.0,135.0,405.0,540.0,gray,I
0.0,8.0,4.0,1.0,7.0,1.0,548.1758400001127,2.0,1.0,phase_3,,,,,1038.0,6.0,1038.0,865.0,519.0,346.0,692.0,173.0,blue,hexagon
0.0,8.0,4.0,1.0,7.0,6.0,437.3767950000911,2.0,1.0,phase_3,,,,,154.0,1.0,308.0,924.0,770.0,462.0,616.0,154.0,blue,hexagon
0.0,1.0,1.0,0.0,7.0,5.0,426.5197980002995,2.0,1.0,phase_3,,,,,154.0,1.0,462.0,924.0,308.0,770.0,154.0,616.0,magenta,diamond
0.0,1.0,1.0,0.0,7.0,2.0,299.1517139998905,2.0,1.0,phase_3,,,,,810.0,6.0,135.0,810.0,405.0,675.0,270.0,540.0,magenta,diamond
0.0,8.0,4.0,1.0,7.0,3.0,481.4742019998448,2.0,1.0,phase_3,,,,,675.0,5.0,270.0,405.0,675.0,540.0,135.0,810.0,blue,hexagon
0.0,2.0,2.0,0.0,7.0,4.0,435.9800579995863,2.0,1.0,phase_3,,,,,462.0,3.0,770.0,308.0,154.0,462.0,616.0,924.0,cyan,cross
0.0,5.0,1.0,1.0,7.0,1.0,28.4869830002207,2.0,1.0,phase_3,,,,,865.0,5.0,865.0,346.0,692.0,1038.0,173.0,519.0,yellow,flipped triangle
0.0,2.0,2.0,0.0,7.0,6.0,296.517555999344,2.0,1.0,phase_3,,,,,1152.0,6.0,384.0,960.0,768.0,576.0,192.0,1152.0,cyan,cross
0.0,4.0,4.0,0.0,7.0,2.0,390.7550780004385,2.0,1.0,phase_3,,,,,924.0,6.0,770.0,924.0,308.0,154.0,462.0,616.0,white,square
0.0,6.0,2.0,1.0,7.0,1.0,352.8823740007283,2.0,1.0,phase_3,,,,,960.0,5.0,960.0,576.0,192.0,384.0,1152.0,768.0,green,circle
0.0,4.0,4.0,0.0,7.0,3.0,324.6105999996871,2.0,1.0,phase_3,,,,,232.0,2.0,116.0,464.0,232.0,348.0,580.0,696.0,white,square
0.0,2.0,2.0,0.0,7.0,6.0,306.7181879996496,2.0,1.0,phase_3,,,,,405.0,3.0,540.0,675.0,810.0,270.0,135.0,405.0,cyan,cross
0.0,2.0,2.0,0.0,7.0,4.0,379.9941190000027,2.0,1.0,phase_3,,,,,348.0,3.0,116.0,232.0,464.0,348.0,580.0,696.0,cyan,cross
0.0,6.0,2.0,1.0,7.0,5.0,437.433850999696,2.0,1.0,phase_3,,,,,770.0,5.0,308.0,462.0,924.0,154.0,770.0,616.0,green,circle
0.0,8.0,4.0,1.0,7.0,5.0,454.7260830004234,2.0,1.0,phase_3,,,,,960.0,5.0,576.0,768.0,192.0,1152.0,960.0,384.0,blue,hexagon
0.0,1.0,1.0,0.0,7.0,1.0,500.7052400005705,2.0,1.0,phase_3,,,,,519.0,3.0,519.0,865.0,692.0,173.0,1038.0,346.0,magenta,diamond
0.0,7.0,3.0,1.0,7.0,2.0,463.4000920004837,2.0,1.0,phase_3,,,,,308.0,2.0,154.0,308.0,616.0,924.0,462.0,770.0,gray,I
0.0,7.0,3.0,1.0,7.0,3.0,509.5772800004852,2.0,1.0,phase_3,,,,,1152.0,6.0,960.0,192.0,1152.0,768.0,576.0,384.0,gray,I
0.0,5.0,1.0,1.0,7.0,5.0,416.5355969998927,2.0,1.0,phase_3,,,,,154.0,1.0,770.0,462.0,924.0,308.0,154.0,616.0,yellow,flipped triangle
0.0,7.0,3.0,1.0,7.0,4.0,454.2808580008568,2.0,1.0,phase_3,,,,,616.0,4.0,154.0,770.0,462.0,616.0,308.0,924.0,gray,I
0.0,4.0,4.0,0.0,7.0,6.0,750.381541999559,3.0,1.0,phase_3,,,,,1038.0,6.0,173.0,692.0,346.0,865.0,519.0,1038.0,white,square
0.0,6.0,2.0,1.0,7.0,1.0,324.7940109995397,3.0,1.0,phase_3,,,,,692.0,4.0,692.0,865.0,1038.0,173.0,519.0,346.0,green,circle
0.0,1.0,1.0,0.0,7.0,5.0,390.3600419998838,3.0,1.0,phase_3,,,,,384.0,2.0,1152.0,192.0,576.0,960.0,384.0,768.0,magenta,diamond
0.0,5.0,1.0,1.0,7.0,4.0,926.0182419993724,3.0,1.0,phase_3,,,,,580.0,5.0,464.0,232.0,696.0,580.0,348.0,116.0,yellow,flipped triangle
0.0,3.0,3.0,0.0,7.0,3.0,361.8187510001007,3.0,1.0,phase_3,,,,,540.0,4.0,405.0,675.0,540.0,270.0,135.0,810.0,orange,triangle
0.0,3.0,3.0,0.0,7.0,6.0,407.4749309993422,3.0,1.0,phase_3,,,,,154.0,1.0,924.0,308.0,462.0,770.0,616.0,154.0,orange,triangle
0.0,6.0,2.0,1.0,7.0,1.0,380.3463780004676,3.0,1.0,phase_3,,,,,576.0,3.0,576.0,384.0,192.0,768.0,1152.0,960.0,green,circle
0.0,5.0,1.0,1.0,7.0,2.0,416.6607420002037,3.0,1.0,phase_3,,,,,464.0,4.0,580.0,464.0,116.0,696.0,232.0,348.0,yellow,flipped triangle
0.0,4.0,4.0,0.0,7.0,3.0,2036.7791830003625,3.0,1.0,phase_3,,,,,519.0,3.0,346.0,173.0,519.0,692.0,1038.0,865.0,white,square
0.0,2.0,2.0,0.0,7.0,4.0,334.8173370004588,3.0,1.0,phase_3,,,,,865.0,5.0,173.0,346.0,692.0,865.0,519.0,1038.0,cyan,cross
0.0,1.0,1.0,0.0,7.0,1.0,408.08474099958397,3.0,1.0,phase_3,,,,,192.0,1.0,192.0,576.0,384.0,960.0,768.0,1152.0,magenta,diamond
0.0,5.0,1.0,1.0,7.0,6.0,380.1323650004633,3.0,1.0,phase_3,,,,,405.0,3.0,540.0,675.0,810.0,270.0,135.0,405.0,yellow,flipped triangle
0.0,6.0,2.0,1.0,7.0,5.0,278.1080569993719,3.0,1.0,phase_3,,,,,270.0,2.0,405.0,540.0,810.0,135.0,270.0,675.0,green,circle
0.0,3.0,3.0,0.0,7.0,4.0,333.2810869997047,3.0,1.0,phase_3,,,,,576.0,3.0,192.0,768.0,1152.0,576.0,960.0,384.0,orange,triangle
0.0,2.0,2.0,0.0,7.0,3.0,286.966532000406,3.0,1.0,phase_3,,,,,270.0,2.0,405.0,135.0,270.0,540.0,675.0,810.0,cyan,cross
0.0,7.0,3.0,1.0,7.0,2.0,434.3298300000242,3.0,1.0,phase_3,,,,,692.0,4.0,346.0,692.0,519.0,1038.0,865.0,173.0,gray,I
0.0,8.0,4.0,1.0,7.0,6.0,93.0311829997663,3.0,1.0,phase_3,,,,,135.0,1.0,540.0,675.0,405.0,270.0,810.0,135.0,blue,hexagon
0.0,8.0,4.0,1.0,7.0,1.0,296.7175260000658,3.0,1.0,phase_3,,,,,1152.0,6.0,1152.0,192.0,768.0,384.0,576.0,960.0,blue,hexagon
0.0,1.0,1.0,0.0,7.0,1.0,2018.0710710001222,3.0,1.0,phase_3,,,,,405.0,3.0,405.0,810.0,675.0,135.0,540.0,270.0,magenta,diamond
0.0,1.0,1.0,0.0,7.0,6.0,1962.1824679998097,3.0,1.0,phase_3,,,,,696.0,6.0,232.0,580.0,464.0,348.0,116.0,696.0,magenta,diamond
0.0,4.0,4.0,0.0,7.0,1.0,527.5772629993298,4.0,1.0,phase_3,,,,,696.0,6.0,696.0,348.0,116.0,580.0,464.0,232.0,white,square
0.0,8.0,4.0,1.0,7.0,6.0,168.1346129998928,4.0,1.0,phase_3,,,,,692.0,4.0,346.0,519.0,1038.0,173.0,865.0,692.0,blue,hexagon
0.0,6.0,2.0,1.0,7.0,5.0,241.4159629997812,4.0,1.0,phase_3,,,,,116.0,1.0,464.0,348.0,232.0,580.0,116.0,696.0,green,circle
0.0,7.0,3.0,1.0,7.0,2.0,195.278521999171,4.0,1.0,phase_3,,,,,675.0,5.0,540.0,675.0,810.0,270.0,405.0,135.0,gray,I
0.0,3.0,3.0,0.0,7.0,4.0,1235.2891010004896,4.0,1.0,phase_3,,,,,384.0,2.0,576.0,192.0,768.0,384.0,960.0,1152.0,orange,triangle
0.0,5.0,1.0,1.0,7.0,3.0,380.5740810003044,4.0,1.0,phase_3,,,,,154.0,1.0,770.0,924.0,154.0,616.0,462.0,308.0,yellow,flipped triangle
0.0,3.0,3.0,0.0,7.0,4.0,259.9748279999403,4.0,1.0,phase_3,,,,,540.0,4.0,675.0,810.0,270.0,540.0,135.0,405.0,orange,triangle
0.0,6.0,2.0,1.0,7.0,3.0,352.9942649993245,4.0,1.0,phase_3,,,,,464.0,4.0,696.0,580.0,464.0,348.0,232.0,116.0,green,circle
0.0,2.0,2.0,0.0,7.0,6.0,353.4954169999764,4.0,1.0,phase_3,,,,,464.0,4.0,116.0,696.0,232.0,348.0,580.0,464.0,cyan,cross
0.0,4.0,4.0,0.0,7.0,5.0,2634.238271999493,4.0,1.0,phase_3,,,,,1152.0,6.0,384.0,576.0,768.0,192.0,1152.0,960.0,white,square
0.0,8.0,4.0,1.0,7.0,5.0,389.5604469998943,4.0,1.0,phase_3,,,,,154.0,1.0,770.0,462.0,924.0,308.0,154.0,616.0,blue,hexagon
0.0,5.0,1.0,1.0,7.0,6.0,409.6247080005923,4.0,1.0,phase_3,,,,,960.0,5.0,192.0,384.0,1152.0,576.0,768.0,960.0,yellow,flipped triangle
0.0,3.0,3.0,0.0,7.0,6.0,408.6971289998473,4.0,1.0,phase_3,,,,,770.0,5.0,154.0,308.0,616.0,462.0,924.0,770.0,orange,triangle
0.0,8.0,4.0,1.0,7.0,1.0,465.8091080000304,4.0,1.0,phase_3,,,,,348.0,3.0,348.0,696.0,580.0,116.0,232.0,464.0,blue,hexagon
0.0,2.0,2.0,0.0,7.0,6.0,353.8980570001513,4.0,1.0,phase_3,,,,,768.0,4.0,192.0,1152.0,384.0,576.0,960.0,768.0,cyan,cross
0.0,1.0,1.0,0.0,7.0,2.0,363.1129699997473,4.0,1.0,phase_3,,,,,173.0,1.0,865.0,173.0,346.0,1038.0,519.0,692.0,magenta,diamond
0.0,7.0,3.0,1.0,7.0,3.0,343.9754940000057,4.0,1.0,phase_3,,,,,1038.0,6.0,346.0,865.0,1038.0,519.0,692.0,173.0,gray,I
0.0,4.0,4.0,0.0,7.0,5.0,345.2562910006236,4.0,1.0,phase_3,,,,,810.0,6.0,405.0,135.0,540.0,270.0,810.0,675.0,white,square
0.0,6.0,2.0,1.0,7.0,4.0,364.1004860000976,4.0,1.0,phase_3,,,,,1038.0,6.0,519.0,346.0,865.0,1038.0,692.0,173.0,green,circle
0.0,6.0,2.0,1.0,7.0,6.0,391.5757719996691,4.0,1.0,phase_3,,,,,462.0,3.0,616.0,308.0,154.0,770.0,924.0,462.0,green,circle
