raw_reward_magnitude,stim_reward,stepwise_reward_magnitude,paired_with_stopping,stim_location,response,reaction_time,block,num_trial_presentations,which_phase,stop_signal_trial_type,left_SSD,right_SSD,accuracy,chosen_bidding_amount,chosen_bidding_level,possible_bid_1,possible_bid_2,possible_bid_3,possible_bid_4,possible_bid_5,possible_bid_6,color_text,shape_text
1284.0,8.0,4.0,1.0,1.0,1.0,341.3637809999272,1.0,1.0,phase_1,,,,,,,,,,,,,blue,flipped triangle
0.0,1.0,0.0,0.0,1.0,1.0,362.62613100007,1.0,1.0,phase_1,,,,,,,,,,,,,yellow,triangle
639.0,7.0,3.0,1.0,4.0,4.0,390.9114649995899,1.0,1.0,phase_1,,,,,,,,,,,,,gray,cross
0.0,8.0,0.0,1.0,1.0,1.0,333.4342120006113,1.0,1.0,phase_1,,,,,,,,,,,,,blue,flipped triangle
1320.0,4.0,4.0,0.0,1.0,1.0,370.3986359996634,1.0,2.0,phase_1,,,,,,,,,,,,,white,square
147.0,1.0,1.0,0.0,1.0,1.0,372.8728810001485,1.0,1.0,phase_1,,,,,,,,,,,,,yellow,triangle
1297.0,4.0,4.0,0.0,3.0,3.0,323.9124109995828,1.0,2.0,phase_1,,,,,,,,,,,,,white,square
635.0,3.0,3.0,0.0,3.0,3.0,378.9646610002819,1.0,1.0,phase_1,,,,,,,,,,,,,orange,circle
0.0,8.0,0.0,1.0,3.0,3.0,369.9529890000121,1.0,1.0,phase_1,,,,,,,,,,,,,blue,flipped triangle
147.0,1.0,1.0,0.0,2.0,2.0,424.8663270000179,1.0,1.0,phase_1,,,,,,,,,,,,,yellow,triangle
671.0,3.0,3.0,0.0,4.0,4.0,324.1660330004379,1.0,1.0,phase_1,,,,,,,,,,,,,orange,circle
332.0,6.0,2.0,1.0,4.0,4.0,463.0421010006103,1.0,1.0,phase_1,,,,,,,,,,,,,magenta,I
0.0,2.0,0.0,0.0,2.0,2.0,314.4228060000387,1.0,2.0,phase_1,,,,,,,,,,,,,green,hexagon
0.0,6.0,0.0,1.0,1.0,1.0,508.5266539999793,1.0,1.0,phase_1,,,,,,,,,,,,,magenta,I
1316.0,4.0,4.0,0.0,2.0,2.0,388.3179909998944,1.0,1.0,phase_1,,,,,,,,,,,,,white,square
0.0,2.0,0.0,0.0,2.0,2.0,351.1770479999541,1.0,1.0,phase_1,,,,,,,,,,,,,green,hexagon
1292.0,4.0,4.0,0.0,3.0,3.0,398.3522850003282,1.0,1.0,phase_1,,,,,,,,,,,,,white,square
157.0,1.0,1.0,0.0,2.0,2.0,350.7962649991896,1.0,1.0,phase_1,,,,,,,,,,,,,yellow,triangle
674.0,3.0,3.0,0.0,4.0,4.0,314.4858839996232,1.0,1.0,phase_1,,,,,,,,,,,,,orange,circle
1315.0,4.0,4.0,0.0,4.0,4.0,399.1378059999988,1.0,1.0,phase_1,,,,,,,,,,,,,white,square
306.0,6.0,2.0,1.0,4.0,4.0,435.2986210005838,1.0,1.0,phase_1,,,,,,,,,,,,,magenta,I
180.0,1.0,1.0,0.0,4.0,4.0,407.7128740000262,1.0,1.0,phase_1,,,,,,,,,,,,,yellow,triangle
0.0,6.0,0.0,1.0,4.0,4.0,377.9254320006657,1.0,1.0,phase_1,,,,,,,,,,,,,magenta,I
640.0,3.0,3.0,0.0,1.0,1.0,544.2880959999457,1.0,1.0,phase_1,,,,,,,,,,,,,orange,circle
0.0,2.0,0.0,0.0,4.0,4.0,443.5354260003805,1.0,1.0,phase_1,,,,,,,,,,,,,green,hexagon
638.0,3.0,3.0,0.0,2.0,2.0,323.3523720000448,1.0,1.0,phase_1,,,,,,,,,,,,,orange,circle
322.0,6.0,2.0,1.0,3.0,3.0,341.8546819993935,1.0,1.0,phase_1,,,,,,,,,,,,,magenta,I
340.0,2.0,2.0,0.0,2.0,2.0,294.976630999372,1.0,1.0,phase_1,,,,,,,,,,,,,green,hexagon
1322.0,8.0,4.0,1.0,2.0,2.0,305.8338410000942,1.0,1.0,phase_1,,,,,,,,,,,,,blue,flipped triangle
167.0,1.0,1.0,0.0,1.0,1.0,525.9898660006002,1.0,1.0,phase_1,,,,,,,,,,,,,yellow,triangle
163.0,1.0,1.0,0.0,3.0,3.0,452.568876999976,1.0,1.0,phase_1,,,,,,,,,,,,,yellow,triangle
0.0,7.0,0.0,1.0,2.0,2.0,295.3975569998874,1.0,1.0,phase_1,,,,,,,,,,,,,gray,cross
1321.0,4.0,4.0,0.0,3.0,3.0,359.7207579996393,1.0,1.0,phase_1,,,,,,,,,,,,,white,square
178.0,5.0,1.0,1.0,3.0,3.0,415.616332999889,1.0,1.0,phase_1,,,,,,,,,,,,,cyan,diamond
0.0,5.0,0.0,1.0,4.0,4.0,398.8222560001304,1.0,1.0,phase_1,,,,,,,,,,,,,cyan,diamond
0.0,8.0,0.0,1.0,2.0,2.0,359.5450060001894,1.0,1.0,phase_1,,,,,,,,,,,,,blue,flipped triangle
670.0,7.0,3.0,1.0,3.0,3.0,323.0431659994792,1.0,1.0,phase_1,,,,,,,,,,,,,gray,cross
0.0,1.0,0.0,0.0,2.0,2.0,342.1897519992853,1.0,1.0,phase_1,,,,,,,,,,,,,yellow,triangle
645.0,3.0,3.0,0.0,3.0,3.0,414.4375960004254,1.0,2.0,phase_1,,,,,,,,,,,,,orange,circle
322.0,6.0,2.0,1.0,4.0,4.0,443.0090679998102,1.0,1.0,phase_1,,,,,,,,,,,,,magenta,I
668.0,3.0,3.0,0.0,4.0,4.0,377.894809999816,1.0,1.0,phase_1,,,,,,,,,,,,,orange,circle
340.0,6.0,2.0,1.0,1.0,1.0,489.557297999454,1.0,1.0,phase_1,,,,,,,,,,,,,magenta,I
0.0,1.0,0.0,0.0,4.0,4.0,480.5163520004498,1.0,1.0,phase_1,,,,,,,,,,,,,yellow,triangle
155.0,5.0,1.0,1.0,4.0,4.0,396.9786770003338,1.0,1.0,phase_1,,,,,,,,,,,,,cyan,diamond
174.0,1.0,1.0,0.0,2.0,2.0,285.7185150005534,1.0,1.0,phase_1,,,,,,,,,,,,,yellow,triangle
0.0,6.0,0.0,1.0,3.0,3.0,424.5241089993214,1.0,2.0,phase_1,,,,,,,,,,,,,magenta,I
178.0,5.0,1.0,1.0,2.0,2.0,366.3412060004702,1.0,2.0,phase_1,,,,,,,,,,,,,cyan,diamond
1306.0,4.0,4.0,0.0,1.0,1.0,554.5658529999855,1.0,1.0,phase_1,,,,,,,,,,,,,white,square
1295.0,8.0,4.0,1.0,3.0,3.0,508.9204259993494,1.0,1.0,phase_1,,,,,,,,,,,,,blue,flipped triangle
1304.0,4.0,4.0,0.0,3.0,3.0,452.7559670004848,1.0,1.0,phase_1,,,,,,,,,,,,,white,square
343.0,6.0,2.0,1.0,2.0,2.0,470.8032259995889,1.0,1.0,phase_1,,,,,,,,,,,,,magenta,I
326.0,2.0,2.0,0.0,3.0,3.0,417.1187839992853,1.0,1.0,phase_1,,,,,,,,,,,,,green,hexagon
138.0,5.0,1.0,1.0,4.0,4.0,406.1272110002392,1.0,1.0,phase_1,,,,,,,,,,,,,cyan,diamond
0.0,1.0,0.0,0.0,4.0,4.0,435.3502220001246,1.0,1.0,phase_1,,,,,,,,,,,,,yellow,triangle
633.0,7.0,3.0,1.0,2.0,2.0,360.1049849994524,1.0,1.0,phase_1,,,,,,,,,,,,,gray,cross
1303.0,4.0,4.0,0.0,3.0,3.0,314.3875429996114,1.0,1.0,phase_1,,,,,,,,,,,,,white,square
1284.0,4.0,4.0,0.0,3.0,3.0,379.36161000016,1.0,1.0,phase_1,,,,,,,,,,,,,white,square
1307.0,4.0,4.0,0.0,1.0,1.0,379.2072539999935,1.0,2.0,phase_1,,,,,,,,,,,,,white,square
1297.0,8.0,4.0,1.0,2.0,2.0,666.3528620001671,1.0,1.0,phase_1,,,,,,,,,,,,,blue,flipped triangle
338.0,6.0,2.0,1.0,1.0,1.0,544.2744190004305,1.0,1.0,phase_1,,,,,,,,,,,,,magenta,I
151.0,1.0,1.0,0.0,4.0,4.0,378.6493709994829,1.0,1.0,phase_1,,,,,,,,,,,,,yellow,triangle
0.0,5.0,0.0,1.0,2.0,2.0,351.5461150000192,1.0,1.0,phase_1,,,,,,,,,,,,,cyan,diamond
659.0,7.0,3.0,1.0,1.0,1.0,498.6842550006258,1.0,1.0,phase_1,,,,,,,,,,,,,gray,cross
313.0,2.0,2.0,0.0,3.0,3.0,545.4270270001871,1.0,1.0,phase_1,,,,,,,,,,,,,green,hexagon
1291.0,4.0,4.0,0.0,1.0,1.0,548.0871279996791,1.0,1.0,phase_1,,,,,,,,,,,,,white,square
1279.0,4.0,4.0,0.0,4.0,4.0,453.7773760002892,1.0,1.0,phase_1,,,,,,,,,,,,,white,square
0.0,8.0,0.0,1.0,3.0,3.0,564.253569000357,1.0,1.0,phase_1,,,,,,,,,,,,,blue,flipped triangle
159.0,5.0,1.0,1.0,3.0,3.0,479.772213000615,1.0,1.0,phase_1,,,,,,,,,,,,,cyan,diamond
141.0,5.0,1.0,1.0,2.0,2.0,414.8009470000033,1.0,1.0,phase_1,,,,,,,,,,,,,cyan,diamond
307.0,2.0,2.0,0.0,1.0,1.0,489.2918449995704,1.0,1.0,phase_1,,,,,,,,,,,,,green,hexagon
0.0,3.0,0.0,0.0,1.0,1.0,533.5620679998101,1.0,1.0,phase_1,,,,,,,,,,,,,orange,circle
159.0,1.0,1.0,0.0,4.0,4.0,461.9049530001575,1.0,1.0,phase_1,,,,,,,,,,,,,yellow,triangle
330.0,2.0,2.0,0.0,4.0,4.0,424.4451219992697,1.0,1.0,phase_1,,,,,,,,,,,,,green,hexagon
0.0,7.0,0.0,1.0,4.0,4.0,407.4367570001413,1.0,1.0,phase_1,,,,,,,,,,,,,gray,cross
338.0,2.0,2.0,0.0,2.0,2.0,387.7818969995132,1.0,1.0,phase_1,,,,,,,,,,,,,green,hexagon
671.0,7.0,3.0,1.0,1.0,1.0,582.1431569993365,1.0,1.0,phase_1,,,,,,,,,,,,,gray,cross
1320.0,8.0,4.0,1.0,3.0,3.0,535.4175439997562,1.0,1.0,phase_1,,,,,,,,,,,,,blue,flipped triangle
0.0,4.0,0.0,0.0,3.0,3.0,470.377806000215,1.0,1.0,phase_1,,,,,,,,,,,,,white,square
316.0,6.0,2.0,1.0,4.0,4.0,462.7531870000894,1.0,1.0,phase_1,,,,,,,,,,,,,magenta,I
0.0,1.0,0.0,0.0,2.0,2.0,627.4153229996955,1.0,1.0,phase_1,,,,,,,,,,,,,yellow,triangle
170.0,5.0,1.0,1.0,1.0,1.0,415.1054880003357,1.0,1.0,phase_1,,,,,,,,,,,,,cyan,diamond
626.0,7.0,3.0,1.0,2.0,2.0,360.9576590006327,1.0,1.0,phase_1,,,,,,,,,,,,,gray,cross
633.0,7.0,3.0,1.0,2.0,2.0,453.6071780003112,1.0,1.0,phase_1,,,,,,,,,,,,,gray,cross
640.0,3.0,3.0,0.0,3.0,3.0,564.1650540001137,1.0,1.0,phase_1,,,,,,,,,,,,,orange,circle
179.0,1.0,1.0,0.0,2.0,2.0,434.7968219999529,1.0,1.0,phase_1,,,,,,,,,,,,,yellow,triangle
316.0,2.0,2.0,0.0,2.0,2.0,398.7056089999896,1.0,1.0,phase_1,,,,,,,,,,,,,green,hexagon
647.0,3.0,3.0,0.0,2.0,2.0,351.7605389997698,1.0,1.0,phase_1,,,,,,,,,,,,,orange,circle
0.0,1.0,0.0,0.0,4.0,4.0,369.4377809997604,1.0,1.0,phase_1,,,,,,,,,,,,,yellow,triangle
0.0,4.0,0.0,0.0,4.0,4.0,528.1055890000061,1.0,1.0,phase_1,,,,,,,,,,,,,white,square
340.0,2.0,2.0,0.0,3.0,3.0,554.3059359997642,1.0,1.0,phase_1,,,,,,,,,,,,,green,hexagon
1276.0,8.0,4.0,1.0,4.0,4.0,471.7919799995798,1.0,1.0,phase_1,,,,,,,,,,,,,blue,flipped triangle
1312.0,4.0,4.0,0.0,4.0,4.0,443.8636680006311,1.0,1.0,phase_1,,,,,,,,,,,,,white,square
316.0,6.0,2.0,1.0,1.0,1.0,609.2014519999793,1.0,1.0,phase_1,,,,,,,,,,,,,magenta,I
0.0,7.0,0.0,1.0,2.0,2.0,565.7216549998338,1.0,1.0,phase_1,,,,,,,,,,,,,gray,cross
186.0,5.0,1.0,1.0,3.0,3.0,535.2028690003863,1.0,1.0,phase_1,,,,,,,,,,,,,cyan,diamond
156.0,5.0,1.0,1.0,2.0,2.0,443.1053990001601,1.0,1.0,phase_1,,,,,,,,,,,,,cyan,diamond
1292.0,4.0,4.0,0.0,4.0,4.0,464.1305790000842,1.0,1.0,phase_1,,,,,,,,,,,,,white,square
0.0,5.0,0.0,1.0,3.0,3.0,460.3104839998195,1.0,1.0,phase_1,,,,,,,,,,,,,cyan,diamond
1287.0,4.0,4.0,0.0,4.0,4.0,378.9664510004513,1.0,1.0,phase_1,,,,,,,,,,,,,white,square
173.0,1.0,1.0,0.0,2.0,2.0,305.2037200004633,1.0,1.0,phase_1,,,,,,,,,,,,,yellow,triangle
0.0,7.0,0.0,1.0,3.0,3.0,480.2176960001816,2.0,1.0,phase_1,,,,,,,,,,,,,gray,cross
151.0,5.0,1.0,1.0,3.0,3.0,444.2244900001242,2.0,1.0,phase_1,,,,,,,,,,,,,cyan,diamond
643.0,3.0,3.0,0.0,4.0,4.0,425.4621529998985,2.0,1.0,phase_1,,,,,,,,,,,,,orange,circle
345.0,2.0,2.0,0.0,1.0,1.0,481.1088520000339,2.0,1.0,phase_1,,,,,,,,,,,,,green,hexagon
326.0,6.0,2.0,1.0,3.0,3.0,416.0790480000287,2.0,1.0,phase_1,,,,,,,,,,,,,magenta,I
640.0,7.0,3.0,1.0,1.0,1.0,426.1028009996153,2.0,1.0,phase_1,,,,,,,,,,,,,gray,cross
309.0,2.0,2.0,0.0,1.0,1.0,407.6623670007393,2.0,1.0,phase_1,,,,,,,,,,,,,green,hexagon
178.0,5.0,1.0,1.0,4.0,4.0,324.7221880001234,2.0,1.0,phase_1,,,,,,,,,,,,,cyan,diamond
628.0,7.0,3.0,1.0,2.0,2.0,649.4421909992525,2.0,2.0,phase_1,,,,,,,,,,,,,gray,cross
1323.0,4.0,4.0,0.0,2.0,2.0,361.2675230006061,2.0,1.0,phase_1,,,,,,,,,,,,,white,square
645.0,7.0,3.0,1.0,2.0,2.0,508.4625960007543,2.0,1.0,phase_1,,,,,,,,,,,,,gray,cross
1276.0,4.0,4.0,0.0,2.0,2.0,416.2927079996734,2.0,1.0,phase_1,,,,,,,,,,,,,white,square
0.0,7.0,0.0,1.0,2.0,2.0,452.0674880004662,2.0,1.0,phase_1,,,,,,,,,,,,,gray,cross
347.0,2.0,2.0,0.0,1.0,1.0,471.1186889999226,2.0,1.0,phase_1,,,,,,,,,,,,,green,hexagon
313.0,6.0,2.0,1.0,1.0,1.0,324.8346620002849,2.0,2.0,phase_1,,,,,,,,,,,,,magenta,I
0.0,8.0,0.0,1.0,3.0,3.0,497.7994319997378,2.0,1.0,phase_1,,,,,,,,,,,,,blue,flipped triangle
664.0,3.0,3.0,0.0,1.0,1.0,551.9780929998888,2.0,1.0,phase_1,,,,,,,,,,,,,orange,circle
0.0,8.0,0.0,1.0,3.0,3.0,545.0538049999523,2.0,1.0,phase_1,,,,,,,,,,,,,blue,flipped triangle
1293.0,4.0,4.0,0.0,2.0,2.0,499.3670759995439,2.0,1.0,phase_1,,,,,,,,,,,,,white,square
148.0,1.0,1.0,0.0,1.0,1.0,580.8655929995439,2.0,1.0,phase_1,,,,,,,,,,,,,yellow,triangle
345.0,2.0,2.0,0.0,2.0,2.0,499.1063489997032,2.0,1.0,phase_1,,,,,,,,,,,,,green,hexagon
651.0,3.0,3.0,0.0,4.0,4.0,582.0383119998951,2.0,1.0,phase_1,,,,,,,,,,,,,orange,circle
321.0,2.0,2.0,0.0,2.0,2.0,442.2923809997883,2.0,1.0,phase_1,,,,,,,,,,,,,green,hexagon
185.0,5.0,1.0,1.0,2.0,2.0,552.0841440002187,2.0,1.0,phase_1,,,,,,,,,,,,,cyan,diamond
348.0,2.0,2.0,0.0,3.0,3.0,563.5690350000004,2.0,1.0,phase_1,,,,,,,,,,,,,green,hexagon
656.0,3.0,3.0,0.0,2.0,2.0,490.2036990006309,2.0,1.0,phase_1,,,,,,,,,,,,,orange,circle
1295.0,4.0,4.0,0.0,1.0,1.0,701.3861730001736,2.0,1.0,phase_1,,,,,,,,,,,,,white,square
0.0,2.0,0.0,0.0,2.0,2.0,509.3016600003466,2.0,1.0,phase_1,,,,,,,,,,,,,green,hexagon
0.0,2.0,0.0,0.0,1.0,1.0,639.406171999326,2.0,1.0,phase_1,,,,,,,,,,,,,green,hexagon
1290.0,4.0,4.0,0.0,1.0,1.0,482.4961579997762,2.0,1.0,phase_1,,,,,,,,,,,,,white,square
0.0,4.0,0.0,0.0,4.0,4.0,444.805515000553,2.0,1.0,phase_1,,,,,,,,,,,,,white,square
667.0,7.0,3.0,1.0,3.0,3.0,537.6643379995585,2.0,1.0,phase_1,,,,,,,,,,,,,gray,cross
144.0,1.0,1.0,0.0,4.0,4.0,453.5769000003711,2.0,1.0,phase_1,,,,,,,,,,,,,yellow,triangle
141.0,1.0,1.0,0.0,1.0,1.0,471.9831819993487,2.0,1.0,phase_1,,,,,,,,,,,,,yellow,triangle
185.0,1.0,1.0,0.0,3.0,3.0,536.3555479998467,2.0,1.0,phase_1,,,,,,,,,,,,,yellow,triangle
1279.0,8.0,4.0,1.0,2.0,2.0,351.0537500005739,2.0,1.0,phase_1,,,,,,,,,,,,,blue,flipped triangle
159.0,5.0,1.0,1.0,4.0,4.0,518.4277270000166,2.0,1.0,phase_1,,,,,,,,,,,,,cyan,diamond
0.0,7.0,0.0,1.0,3.0,3.0,396.3999190000322,2.0,1.0,phase_1,,,,,,,,,,,,,gray,cross
650.0,3.0,3.0,0.0,3.0,3.0,473.5274790000403,2.0,1.0,phase_1,,,,,,,,,,,,,orange,circle
1285.0,4.0,4.0,0.0,4.0,4.0,333.0908050002108,2.0,1.0,phase_1,,,,,,,,,,,,,white,square
1284.0,4.0,4.0,0.0,3.0,3.0,453.0387160002647,2.0,1.0,phase_1,,,,,,,,,,,,,white,square
643.0,7.0,3.0,1.0,4.0,4.0,572.2747859999799,2.0,1.0,phase_1,,,,,,,,,,,,,gray,cross
153.0,1.0,1.0,0.0,1.0,1.0,426.0127869993084,2.0,1.0,phase_1,,,,,,,,,,,,,yellow,triangle
665.0,7.0,3.0,1.0,4.0,4.0,295.293854999727,2.0,1.0,phase_1,,,,,,,,,,,,,gray,cross
1315.0,4.0,4.0,0.0,2.0,2.0,351.6433029999462,2.0,1.0,phase_1,,,,,,,,,,,,,white,square
664.0,7.0,3.0,1.0,4.0,4.0,592.4591689999943,2.0,1.0,phase_1,,,,,,,,,,,,,gray,cross
167.0,5.0,1.0,1.0,1.0,1.0,674.5404690000214,2.0,1.0,phase_1,,,,,,,,,,,,,cyan,diamond
139.0,5.0,1.0,1.0,2.0,2.0,350.9959760003767,2.0,1.0,phase_1,,,,,,,,,,,,,cyan,diamond
0.0,2.0,0.0,0.0,1.0,1.0,481.2621139999464,2.0,1.0,phase_1,,,,,,,,,,,,,green,hexagon
0.0,4.0,0.0,0.0,3.0,3.0,482.6463389999844,2.0,1.0,phase_1,,,,,,,,,,,,,white,square
155.0,1.0,1.0,0.0,3.0,3.0,434.9885440005892,2.0,1.0,phase_1,,,,,,,,,,,,,yellow,triangle
321.0,6.0,2.0,1.0,2.0,2.0,379.762982000102,2.0,1.0,phase_1,,,,,,,,,,,,,magenta,I
1286.0,8.0,4.0,1.0,4.0,4.0,417.7028919993972,2.0,1.0,phase_1,,,,,,,,,,,,,blue,flipped triangle
0.0,1.0,0.0,0.0,4.0,4.0,629.8119110006155,2.0,1.0,phase_1,,,,,,,,,,,,,yellow,triangle
0.0,2.0,0.0,0.0,4.0,4.0,341.9718929999362,2.0,1.0,phase_1,,,,,,,,,,,,,green,hexagon
309.0,2.0,2.0,0.0,2.0,2.0,296.7359650001526,2.0,1.0,phase_1,,,,,,,,,,,,,green,hexagon
645.0,7.0,3.0,1.0,2.0,2.0,351.5341519996582,2.0,1.0,phase_1,,,,,,,,,,,,,gray,cross
165.0,1.0,1.0,0.0,3.0,3.0,406.3145229993097,2.0,1.0,phase_1,,,,,,,,,,,,,yellow,triangle
340.0,6.0,2.0,1.0,1.0,1.0,350.3135599994493,2.0,1.0,phase_1,,,,,,,,,,,,,magenta,I
157.0,5.0,1.0,1.0,1.0,1.0,405.8501110002908,2.0,1.0,phase_1,,,,,,,,,,,,,cyan,diamond
637.0,7.0,3.0,1.0,2.0,2.0,454.1608810004618,2.0,1.0,phase_1,,,,,,,,,,,,,gray,cross
315.0,2.0,2.0,0.0,2.0,2.0,303.851482999562,2.0,1.0,phase_1,,,,,,,,,,,,,green,hexagon
140.0,5.0,1.0,1.0,4.0,4.0,398.3521099999052,2.0,1.0,phase_1,,,,,,,,,,,,,cyan,diamond
1312.0,8.0,4.0,1.0,4.0,4.0,415.4365710001002,2.0,1.0,phase_1,,,,,,,,,,,,,blue,flipped triangle
175.0,5.0,1.0,1.0,3.0,3.0,241.0850839996783,2.0,2.0,phase_1,,,,,,,,,,,,,cyan,diamond
338.0,2.0,2.0,0.0,4.0,4.0,424.7273959999802,2.0,1.0,phase_1,,,,,,,,,,,,,green,hexagon
153.0,5.0,1.0,1.0,1.0,1.0,322.3479649996079,2.0,1.0,phase_1,,,,,,,,,,,,,cyan,diamond
640.0,7.0,3.0,1.0,3.0,3.0,241.1961580000934,2.0,2.0,phase_1,,,,,,,,,,,,,gray,cross
156.0,5.0,1.0,1.0,1.0,1.0,730.463936999513,2.0,1.0,phase_1,,,,,,,,,,,,,cyan,diamond
179.0,5.0,1.0,1.0,3.0,3.0,510.3434279999419,2.0,1.0,phase_1,,,,,,,,,,,,,cyan,diamond
1285.0,8.0,4.0,1.0,3.0,3.0,499.351974000092,2.0,1.0,phase_1,,,,,,,,,,,,,blue,flipped triangle
1306.0,8.0,4.0,1.0,1.0,1.0,591.4298879997659,2.0,1.0,phase_1,,,,,,,,,,,,,blue,flipped triangle
0.0,8.0,0.0,1.0,4.0,4.0,538.2461039998816,2.0,1.0,phase_1,,,,,,,,,,,,,blue,flipped triangle
1308.0,4.0,4.0,0.0,2.0,2.0,452.2428800000853,2.0,1.0,phase_1,,,,,,,,,,,,,white,square
648.0,3.0,3.0,0.0,3.0,3.0,434.1166869999142,2.0,1.0,phase_1,,,,,,,,,,,,,orange,circle
175.0,5.0,1.0,1.0,2.0,2.0,379.4759689999409,2.0,1.0,phase_1,,,,,,,,,,,,,cyan,diamond
0.0,3.0,0.0,0.0,4.0,4.0,535.7769269994606,2.0,1.0,phase_1,,,,,,,,,,,,,orange,circle
1293.0,8.0,4.0,1.0,3.0,3.0,507.87084399962623,2.0,1.0,phase_1,,,,,,,,,,,,,blue,flipped triangle
628.0,3.0,3.0,0.0,1.0,1.0,490.2358310000636,2.0,1.0,phase_1,,,,,,,,,,,,,orange,circle
640.0,3.0,3.0,0.0,4.0,4.0,452.5059600000531,2.0,1.0,phase_1,,,,,,,,,,,,,orange,circle
328.0,2.0,2.0,0.0,4.0,4.0,471.703819999675,2.0,1.0,phase_1,,,,,,,,,,,,,green,hexagon
655.0,3.0,3.0,0.0,2.0,2.0,481.6424669998014,2.0,1.0,phase_1,,,,,,,,,,,,,orange,circle
1315.0,8.0,4.0,1.0,2.0,2.0,751.2678009998126,2.0,1.0,phase_1,,,,,,,,,,,,,blue,flipped triangle
340.0,6.0,2.0,1.0,4.0,4.0,812.8208030002497,2.0,1.0,phase_1,,,,,,,,,,,,,magenta,I
168.0,1.0,1.0,0.0,4.0,4.0,483.4504520003975,2.0,1.0,phase_1,,,,,,,,,,,,,yellow,triangle
187.0,5.0,1.0,1.0,4.0,4.0,389.7148819996801,2.0,1.0,phase_1,,,,,,,,,,,,,cyan,diamond
1290.0,8.0,4.0,1.0,4.0,4.0,380.7671109998409,2.0,1.0,phase_1,,,,,,,,,,,,,blue,flipped triangle
322.0,2.0,2.0,0.0,4.0,4.0,535.1023290004377,2.0,1.0,phase_1,,,,,,,,,,,,,green,hexagon
160.0,5.0,1.0,1.0,3.0,3.0,509.2053659991507,2.0,1.0,phase_1,,,,,,,,,,,,,cyan,diamond
1309.0,8.0,4.0,1.0,1.0,1.0,602.0755819999977,2.0,1.0,phase_1,,,,,,,,,,,,,blue,flipped triangle
0.0,4.0,0.0,0.0,4.0,4.0,535.7531839999865,2.0,1.0,phase_1,,,,,,,,,,,,,white,square
1286.0,4.0,4.0,0.0,3.0,3.0,463.2638209996003,2.0,1.0,phase_1,,,,,,,,,,,,,white,square
657.0,7.0,3.0,1.0,1.0,1.0,480.8559080001942,2.0,1.0,phase_1,,,,,,,,,,,,,gray,cross
166.0,1.0,1.0,0.0,2.0,2.0,544.5929939996859,2.0,1.0,phase_1,,,,,,,,,,,,,yellow,triangle
638.0,7.0,3.0,1.0,4.0,4.0,499.8922329996276,2.0,1.0,phase_1,,,,,,,,,,,,,gray,cross
341.0,2.0,2.0,0.0,1.0,1.0,675.0265179998678,2.0,1.0,phase_1,,,,,,,,,,,,,green,hexagon
0.0,1.0,0.0,0.0,4.0,4.0,462.3999209998146,2.0,1.0,phase_1,,,,,,,,,,,,,yellow,triangle
635.0,7.0,3.0,1.0,3.0,3.0,543.9523410004767,2.0,1.0,phase_1,,,,,,,,,,,,,gray,cross
0.0,6.0,0.0,1.0,4.0,4.0,554.9732720000975,2.0,1.0,phase_1,,,,,,,,,,,,,magenta,I
0.0,3.0,0.0,0.0,1.0,1.0,600.8612579998953,2.0,1.0,phase_1,,,,,,,,,,,,,orange,circle
647.0,7.0,3.0,1.0,3.0,3.0,667.2940999997081,3.0,1.0,phase_1,,,,,,,,,,,,,gray,cross
640.0,3.0,3.0,0.0,2.0,2.0,342.5618700002815,3.0,1.0,phase_1,,,,,,,,,,,,,orange,circle
637.0,3.0,3.0,0.0,3.0,3.0,416.4655160002439,3.0,1.0,phase_1,,,,,,,,,,,,,orange,circle
316.0,2.0,2.0,0.0,2.0,2.0,481.0597589994358,3.0,1.0,phase_1,,,,,,,,,,,,,green,hexagon
321.0,6.0,2.0,1.0,4.0,4.0,461.3826710001376,3.0,1.0,phase_1,,,,,,,,,,,,,magenta,I
0.0,3.0,0.0,0.0,1.0,1.0,361.7278390001957,3.0,1.0,phase_1,,,,,,,,,,,,,orange,circle
0.0,3.0,0.0,0.0,3.0,3.0,361.6047119994618,3.0,1.0,phase_1,,,,,,,,,,,,,orange,circle
160.0,1.0,1.0,0.0,4.0,4.0,417.3249890000079,3.0,1.0,phase_1,,,,,,,,,,,,,yellow,triangle
332.0,2.0,2.0,0.0,4.0,4.0,492.5926149999213,3.0,1.0,phase_1,,,,,,,,,,,,,green,hexagon
302.0,2.0,2.0,0.0,1.0,1.0,389.2690100001346,3.0,1.0,phase_1,,,,,,,,,,,,,green,hexagon
0.0,4.0,0.0,0.0,2.0,2.0,389.2772620001778,3.0,1.0,phase_1,,,,,,,,,,,,,white,square
1322.0,4.0,4.0,0.0,4.0,4.0,352.8382020003846,3.0,1.0,phase_1,,,,,,,,,,,,,white,square
338.0,6.0,2.0,1.0,3.0,3.0,591.7350069994427,3.0,1.0,phase_1,,,,,,,,,,,,,magenta,I
170.0,1.0,1.0,0.0,3.0,3.0,434.3993719994614,3.0,1.0,phase_1,,,,,,,,,,,,,yellow,triangle
138.0,5.0,1.0,1.0,2.0,2.0,443.5600510005315,3.0,1.0,phase_1,,,,,,,,,,,,,cyan,diamond
1298.0,4.0,4.0,0.0,4.0,4.0,381.5044650000345,3.0,1.0,phase_1,,,,,,,,,,,,,white,square
1311.0,4.0,4.0,0.0,1.0,1.0,526.8141020005714,3.0,1.0,phase_1,,,,,,,,,,,,,white,square
152.0,5.0,1.0,1.0,1.0,1.0,463.2310380002309,3.0,1.0,phase_1,,,,,,,,,,,,,cyan,diamond
1292.0,8.0,4.0,1.0,2.0,2.0,434.5592449999458,3.0,1.0,phase_1,,,,,,,,,,,,,blue,flipped triangle
0.0,7.0,0.0,1.0,2.0,2.0,379.01001299997,3.0,1.0,phase_1,,,,,,,,,,,,,gray,cross
640.0,7.0,3.0,1.0,4.0,4.0,295.0699080001868,3.0,1.0,phase_1,,,,,,,,,,,,,gray,cross
343.0,2.0,2.0,0.0,3.0,3.0,434.7231020001345,3.0,2.0,phase_1,,,,,,,,,,,,,green,hexagon
180.0,5.0,1.0,1.0,2.0,2.0,407.4792369992792,3.0,1.0,phase_1,,,,,,,,,,,,,cyan,diamond
309.0,6.0,2.0,1.0,1.0,1.0,361.3288510005077,3.0,1.0,phase_1,,,,,,,,,,,,,magenta,I
0.0,2.0,0.0,0.0,3.0,3.0,416.2701779996496,3.0,1.0,phase_1,,,,,,,,,,,,,green,hexagon
332.0,2.0,2.0,0.0,3.0,3.0,399.8310480001237,3.0,1.0,phase_1,,,,,,,,,,,,,green,hexagon
1308.0,8.0,4.0,1.0,1.0,1.0,480.1891130000513,3.0,1.0,phase_1,,,,,,,,,,,,,blue,flipped triangle
1314.0,4.0,4.0,0.0,4.0,4.0,500.23624999994354,3.0,1.0,phase_1,,,,,,,,,,,,,white,square
650.0,7.0,3.0,1.0,4.0,4.0,472.1730820001539,3.0,1.0,phase_1,,,,,,,,,,,,,gray,cross
0.0,2.0,0.0,0.0,2.0,2.0,397.7639419999832,3.0,1.0,phase_1,,,,,,,,,,,,,green,hexagon
650.0,3.0,3.0,0.0,2.0,2.0,407.230853999863,3.0,1.0,phase_1,,,,,,,,,,,,,orange,circle
186.0,1.0,1.0,0.0,4.0,4.0,435.3601069997239,3.0,1.0,phase_1,,,,,,,,,,,,,yellow,triangle
348.0,6.0,2.0,1.0,2.0,2.0,507.78505700054666,3.0,1.0,phase_1,,,,,,,,,,,,,magenta,I
174.0,5.0,1.0,1.0,1.0,1.0,555.7832119993691,3.0,1.0,phase_1,,,,,,,,,,,,,cyan,diamond
309.0,6.0,2.0,1.0,3.0,3.0,536.3747470000817,3.0,1.0,phase_1,,,,,,,,,,,,,magenta,I
652.0,3.0,3.0,0.0,1.0,1.0,595.238757999141,3.0,1.0,phase_1,,,,,,,,,,,,,orange,circle
629.0,3.0,3.0,0.0,1.0,1.0,462.9560469993521,3.0,1.0,phase_1,,,,,,,,,,,,,orange,circle
0.0,6.0,0.0,1.0,1.0,1.0,499.0068630004316,3.0,1.0,phase_1,,,,,,,,,,,,,magenta,I
178.0,1.0,1.0,0.0,1.0,1.0,462.70252999966027,3.0,1.0,phase_1,,,,,,,,,,,,,yellow,triangle
0.0,6.0,0.0,1.0,4.0,4.0,461.5427319995433,3.0,1.0,phase_1,,,,,,,,,,,,,magenta,I
308.0,6.0,2.0,1.0,3.0,3.0,693.1611879999764,3.0,1.0,phase_1,,,,,,,,,,,,,magenta,I
1296.0,8.0,4.0,1.0,3.0,3.0,490.2340930002538,3.0,1.0,phase_1,,,,,,,,,,,,,blue,flipped triangle
672.0,3.0,3.0,0.0,3.0,3.0,723.0274149997058,3.0,1.0,phase_1,,,,,,,,,,,,,orange,circle
0.0,3.0,0.0,0.0,1.0,1.0,554.7913320006046,3.0,1.0,phase_1,,,,,,,,,,,,,orange,circle
0.0,7.0,0.0,1.0,2.0,2.0,572.9583309994268,3.0,1.0,phase_1,,,,,,,,,,,,,gray,cross
640.0,3.0,3.0,0.0,1.0,1.0,877.758988000096,3.0,1.0,phase_1,,,,,,,,,,,,,orange,circle
322.0,2.0,2.0,0.0,4.0,4.0,536.5424619994883,3.0,1.0,phase_1,,,,,,,,,,,,,green,hexagon
659.0,3.0,3.0,0.0,2.0,2.0,471.7889330004254,3.0,1.0,phase_1,,,,,,,,,,,,,orange,circle
0.0,3.0,0.0,0.0,1.0,1.0,619.0540980005608,3.0,1.0,phase_1,,,,,,,,,,,,,orange,circle
0.0,3.0,0.0,0.0,3.0,3.0,398.3848390007551,3.0,1.0,phase_1,,,,,,,,,,,,,orange,circle
651.0,7.0,3.0,1.0,1.0,1.0,610.4029549996994,3.0,1.0,phase_1,,,,,,,,,,,,,gray,cross
650.0,7.0,3.0,1.0,1.0,1.0,472.6148340005238,3.0,1.0,phase_1,,,,,,,,,,,,,gray,cross
1295.0,8.0,4.0,1.0,2.0,2.0,454.0267149995998,3.0,1.0,phase_1,,,,,,,,,,,,,blue,flipped triangle
321.0,2.0,2.0,0.0,2.0,2.0,508.6734559999968,3.0,1.0,phase_1,,,,,,,,,,,,,green,hexagon
166.0,5.0,1.0,1.0,3.0,3.0,544.6137400003863,3.0,1.0,phase_1,,,,,,,,,,,,,cyan,diamond
0.0,3.0,0.0,0.0,4.0,4.0,424.3673479995777,3.0,1.0,phase_1,,,,,,,,,,,,,orange,circle
633.0,3.0,3.0,0.0,3.0,3.0,499.6596969995153,3.0,1.0,phase_1,,,,,,,,,,,,,orange,circle
173.0,5.0,1.0,1.0,1.0,1.0,573.1006089999937,3.0,1.0,phase_1,,,,,,,,,,,,,cyan,diamond
1323.0,8.0,4.0,1.0,4.0,4.0,490.1121600005353,3.0,1.0,phase_1,,,,,,,,,,,,,blue,flipped triangle
1304.0,8.0,4.0,1.0,1.0,1.0,499.3499940001129,3.0,1.0,phase_1,,,,,,,,,,,,,blue,flipped triangle
175.0,1.0,1.0,0.0,1.0,1.0,491.1583499997505,3.0,2.0,phase_1,,,,,,,,,,,,,yellow,triangle
1276.0,8.0,4.0,1.0,2.0,2.0,499.0058299999873,3.0,1.0,phase_1,,,,,,,,,,,,,blue,flipped triangle
157.0,1.0,1.0,0.0,2.0,2.0,573.5702729998593,3.0,1.0,phase_1,,,,,,,,,,,,,yellow,triangle
1305.0,8.0,4.0,1.0,1.0,1.0,786.6028779999397,3.0,1.0,phase_1,,,,,,,,,,,,,blue,flipped triangle
1291.0,8.0,4.0,1.0,1.0,1.0,500.36799400004384,3.0,1.0,phase_1,,,,,,,,,,,,,blue,flipped triangle
301.0,2.0,2.0,0.0,3.0,3.0,407.6046420004786,3.0,1.0,phase_1,,,,,,,,,,,,,green,hexagon
0.0,6.0,0.0,1.0,4.0,4.0,491.3945389998844,3.0,1.0,phase_1,,,,,,,,,,,,,magenta,I
308.0,2.0,2.0,0.0,4.0,4.0,464.3457900001522,3.0,1.0,phase_1,,,,,,,,,,,,,green,hexagon
147.0,5.0,1.0,1.0,4.0,4.0,342.6650279998284,3.0,1.0,phase_1,,,,,,,,,,,,,cyan,diamond
1291.0,4.0,4.0,0.0,3.0,3.0,462.9015630007416,3.0,1.0,phase_1,,,,,,,,,,,,,white,square
345.0,6.0,2.0,1.0,2.0,2.0,499.4051020003098,3.0,1.0,phase_1,,,,,,,,,,,,,magenta,I
1276.0,4.0,4.0,0.0,4.0,4.0,471.5053750005609,3.0,1.0,phase_1,,,,,,,,,,,,,white,square
310.0,6.0,2.0,1.0,2.0,2.0,406.7643349999343,3.0,1.0,phase_1,,,,,,,,,,,,,magenta,I
148.0,5.0,1.0,1.0,1.0,1.0,406.9527470001048,3.0,1.0,phase_1,,,,,,,,,,,,,cyan,diamond
639.0,3.0,3.0,0.0,3.0,3.0,388.2026780001979,3.0,1.0,phase_1,,,,,,,,,,,,,orange,circle
672.0,7.0,3.0,1.0,2.0,2.0,573.1453709995549,3.0,1.0,phase_1,,,,,,,,,,,,,gray,cross
0.0,5.0,0.0,1.0,3.0,3.0,403.3543089999511,3.0,1.0,phase_1,,,,,,,,,,,,,cyan,diamond
310.0,2.0,2.0,0.0,3.0,3.0,415.5168200004482,3.0,1.0,phase_1,,,,,,,,,,,,,green,hexagon
178.0,1.0,1.0,0.0,4.0,4.0,537.7909300004831,3.0,1.0,phase_1,,,,,,,,,,,,,yellow,triangle
345.0,6.0,2.0,1.0,1.0,1.0,601.3134960003299,3.0,1.0,phase_1,,,,,,,,,,,,,magenta,I
1295.0,4.0,4.0,0.0,2.0,2.0,528.3162780006023,3.0,1.0,phase_1,,,,,,,,,,,,,white,square
159.0,1.0,1.0,0.0,2.0,2.0,530.21697999975,3.0,1.0,phase_1,,,,,,,,,,,,,yellow,triangle
1325.0,4.0,4.0,0.0,1.0,1.0,709.5685100002811,3.0,1.0,phase_1,,,,,,,,,,,,,white,square
1305.0,4.0,4.0,0.0,3.0,3.0,528.3177960000103,3.0,1.0,phase_1,,,,,,,,,,,,,white,square
0.0,6.0,0.0,1.0,3.0,3.0,462.6949699995748,3.0,1.0,phase_1,,,,,,,,,,,,,magenta,I
0.0,5.0,0.0,1.0,2.0,2.0,480.4983650001304,3.0,1.0,phase_1,,,,,,,,,,,,,cyan,diamond
653.0,7.0,3.0,1.0,1.0,1.0,713.5485609996977,3.0,1.0,phase_1,,,,,,,,,,,,,gray,cross
1321.0,8.0,4.0,1.0,4.0,4.0,518.5719860000972,3.0,1.0,phase_1,,,,,,,,,,,,,blue,flipped triangle
667.0,3.0,3.0,0.0,1.0,1.0,507.9086300002018,3.0,1.0,phase_1,,,,,,,,,,,,,orange,circle
1287.0,8.0,4.0,1.0,2.0,2.0,426.460575999954,3.0,1.0,phase_1,,,,,,,,,,,,,blue,flipped triangle
318.0,6.0,2.0,1.0,2.0,2.0,417.8549039997961,3.0,1.0,phase_1,,,,,,,,,,,,,magenta,I
0.0,4.0,0.0,0.0,4.0,4.0,416.4606700005606,3.0,1.0,phase_1,,,,,,,,,,,,,white,square
338.0,6.0,2.0,1.0,3.0,3.0,388.3024819997445,3.0,1.0,phase_1,,,,,,,,,,,,,magenta,I
1296.0,4.0,4.0,0.0,2.0,2.0,415.2968270000201,3.0,1.0,phase_1,,,,,,,,,,,,,white,square
1314.0,8.0,4.0,1.0,1.0,1.0,499.4075290005639,3.0,1.0,phase_1,,,,,,,,,,,,,blue,flipped triangle
0.0,6.0,0.0,1.0,4.0,4.0,479.9966259997745,3.0,1.0,phase_1,,,,,,,,,,,,,magenta,I
1304.0,4.0,4.0,0.0,1.0,1.0,398.1710450007085,3.0,1.0,phase_1,,,,,,,,,,,,,white,square
648.0,7.0,3.0,1.0,2.0,2.0,435.4053629995178,3.0,1.0,phase_1,,,,,,,,,,,,,gray,cross
0.0,4.0,0.0,0.0,4.0,4.0,491.1038340005689,3.0,1.0,phase_1,,,,,,,,,,,,,white,square
0.0,5.0,0.0,1.0,3.0,3.0,472.0237129995439,3.0,1.0,phase_1,,,,,,,,,,,,,cyan,diamond
652.0,7.0,3.0,1.0,1.0,1.0,581.2784170002487,4.0,3.0,phase_1,,,,,,,,,,,,,gray,cross
301.0,2.0,2.0,0.0,1.0,1.0,444.0405300001657,4.0,1.0,phase_1,,,,,,,,,,,,,green,hexagon
318.0,2.0,2.0,0.0,3.0,3.0,379.0859509999791,4.0,1.0,phase_1,,,,,,,,,,,,,green,hexagon
667.0,3.0,3.0,0.0,2.0,2.0,425.9258499996576,4.0,1.0,phase_1,,,,,,,,,,,,,orange,circle
1277.0,4.0,4.0,0.0,1.0,1.0,407.9318280000734,4.0,1.0,phase_1,,,,,,,,,,,,,white,square
302.0,6.0,2.0,1.0,2.0,2.0,397.2641800000929,4.0,1.0,phase_1,,,,,,,,,,,,,magenta,I
331.0,6.0,2.0,1.0,1.0,1.0,665.3763909998816,4.0,1.0,phase_1,,,,,,,,,,,,,magenta,I
656.0,7.0,3.0,1.0,3.0,3.0,619.9956509999538,4.0,1.0,phase_1,,,,,,,,,,,,,gray,cross
1311.0,8.0,4.0,1.0,4.0,4.0,619.4408330002261,4.0,1.0,phase_1,,,,,,,,,,,,,blue,flipped triangle
152.0,1.0,1.0,0.0,4.0,4.0,832.204264000211,4.0,1.0,phase_1,,,,,,,,,,,,,yellow,triangle
670.0,3.0,3.0,0.0,4.0,4.0,498.7121249996562,4.0,1.0,phase_1,,,,,,,,,,,,,orange,circle
328.0,6.0,2.0,1.0,3.0,3.0,444.1026550002789,4.0,1.0,phase_1,,,,,,,,,,,,,magenta,I
318.0,6.0,2.0,1.0,2.0,2.0,489.5635910006604,4.0,1.0,phase_1,,,,,,,,,,,,,magenta,I
0.0,2.0,0.0,0.0,4.0,4.0,398.3341480006857,4.0,1.0,phase_1,,,,,,,,,,,,,green,hexagon
173.0,5.0,1.0,1.0,3.0,3.0,426.895777000027,4.0,1.0,phase_1,,,,,,,,,,,,,cyan,diamond
1292.0,8.0,4.0,1.0,1.0,1.0,619.628298999487,4.0,1.0,phase_1,,,,,,,,,,,,,blue,flipped triangle
338.0,2.0,2.0,0.0,1.0,1.0,572.7968779992807,4.0,1.0,phase_1,,,,,,,,,,,,,green,hexagon
0.0,1.0,0.0,0.0,2.0,2.0,434.3104939998738,4.0,1.0,phase_1,,,,,,,,,,,,,yellow,triangle
167.0,1.0,1.0,0.0,4.0,4.0,324.0356079995763,4.0,1.0,phase_1,,,,,,,,,,,,,yellow,triangle
1291.0,8.0,4.0,1.0,4.0,4.0,535.3261519994703,4.0,1.0,phase_1,,,,,,,,,,,,,blue,flipped triangle
138.0,1.0,1.0,0.0,1.0,1.0,544.9109789997237,4.0,1.0,phase_1,,,,,,,,,,,,,yellow,triangle
157.0,5.0,1.0,1.0,4.0,4.0,388.3508559993061,4.0,1.0,phase_1,,,,,,,,,,,,,cyan,diamond
335.0,2.0,2.0,0.0,2.0,2.0,443.0259669998122,4.0,1.0,phase_1,,,,,,,,,,,,,green,hexagon
335.0,6.0,2.0,1.0,3.0,3.0,627.4022389998208,4.0,1.0,phase_1,,,,,,,,,,,,,magenta,I
671.0,7.0,3.0,1.0,1.0,1.0,556.2199149999287,4.0,1.0,phase_1,,,,,,,,,,,,,gray,cross
640.0,7.0,3.0,1.0,3.0,3.0,415.119283000422,4.0,1.0,phase_1,,,,,,,,,,,,,gray,cross
629.0,7.0,3.0,1.0,3.0,3.0,350.5333640005119,4.0,1.0,phase_1,,,,,,,,,,,,,gray,cross
0.0,5.0,0.0,1.0,1.0,1.0,211.6138860001228,4.0,2.0,phase_1,,,,,,,,,,,,,cyan,diamond
664.0,3.0,3.0,0.0,4.0,4.0,507.77396400008,4.0,1.0,phase_1,,,,,,,,,,,,,orange,circle
167.0,5.0,1.0,1.0,4.0,4.0,516.8527410005481,4.0,1.0,phase_1,,,,,,,,,,,,,cyan,diamond
633.0,3.0,3.0,0.0,1.0,1.0,481.0485339994557,4.0,1.0,phase_1,,,,,,,,,,,,,orange,circle
667.0,7.0,3.0,1.0,4.0,4.0,571.7391609996412,4.0,1.0,phase_1,,,,,,,,,,,,,gray,cross
156.0,1.0,1.0,0.0,2.0,2.0,488.8790400000289,4.0,1.0,phase_1,,,,,,,,,,,,,yellow,triangle
674.0,7.0,3.0,1.0,1.0,1.0,452.927002999786,4.0,1.0,phase_1,,,,,,,,,,,,,gray,cross
138.0,1.0,1.0,0.0,2.0,2.0,590.5424279999352,4.0,1.0,phase_1,,,,,,,,,,,,,yellow,triangle
0.0,4.0,0.0,0.0,4.0,4.0,507.6512730001923,4.0,1.0,phase_1,,,,,,,,,,,,,white,square
1315.0,8.0,4.0,1.0,3.0,3.0,488.4790309997697,4.0,1.0,phase_1,,,,,,,,,,,,,blue,flipped triangle
156.0,1.0,1.0,0.0,1.0,1.0,543.7984670006699,4.0,1.0,phase_1,,,,,,,,,,,,,yellow,triangle
144.0,5.0,1.0,1.0,1.0,1.0,452.4819729995215,4.0,1.0,phase_1,,,,,,,,,,,,,cyan,diamond
163.0,5.0,1.0,1.0,2.0,2.0,709.1359559999546,4.0,1.0,phase_1,,,,,,,,,,,,,cyan,diamond
140.0,1.0,1.0,0.0,1.0,1.0,691.4368590005324,4.0,1.0,phase_1,,,,,,,,,,,,,yellow,triangle
0.0,5.0,0.0,1.0,2.0,2.0,406.9032839997817,4.0,1.0,phase_1,,,,,,,,,,,,,cyan,diamond
1287.0,4.0,4.0,0.0,2.0,2.0,451.8115349992513,4.0,1.0,phase_1,,,,,,,,,,,,,white,square
320.0,6.0,2.0,1.0,2.0,2.0,453.2865099999981,4.0,1.0,phase_1,,,,,,,,,,,,,magenta,I
657.0,3.0,3.0,0.0,3.0,3.0,729.448558000513,4.0,1.0,phase_1,,,,,,,,,,,,,orange,circle
173.0,1.0,1.0,0.0,3.0,3.0,350.1616189996639,4.0,1.0,phase_1,,,,,,,,,,,,,yellow,triangle
306.0,2.0,2.0,0.0,1.0,1.0,673.9743540001655,4.0,1.0,phase_1,,,,,,,,,,,,,green,hexagon
1284.0,8.0,4.0,1.0,3.0,3.0,406.018523000057,4.0,1.0,phase_1,,,,,,,,,,,,,blue,flipped triangle
626.0,3.0,3.0,0.0,1.0,1.0,471.5331280003738,4.0,1.0,phase_1,,,,,,,,,,,,,orange,circle
340.0,2.0,2.0,0.0,3.0,3.0,350.3946070004531,4.0,1.0,phase_1,,,,,,,,,,,,,green,hexagon
301.0,6.0,2.0,1.0,4.0,4.0,406.0352129999955,4.0,1.0,phase_1,,,,,,,,,,,,,magenta,I
0.0,4.0,0.0,0.0,3.0,3.0,431.8976899994595,4.0,1.0,phase_1,,,,,,,,,,,,,white,square
671.0,3.0,3.0,0.0,4.0,4.0,387.8093590001299,4.0,1.0,phase_1,,,,,,,,,,,,,orange,circle
320.0,2.0,2.0,0.0,4.0,4.0,451.4767930004382,4.0,1.0,phase_1,,,,,,,,,,,,,green,hexagon
1277.0,8.0,4.0,1.0,2.0,2.0,360.509052999987,4.0,1.0,phase_1,,,,,,,,,,,,,blue,flipped triangle
655.0,7.0,3.0,1.0,4.0,4.0,470.7912359999682,4.0,1.0,phase_1,,,,,,,,,,,,,gray,cross
301.0,6.0,2.0,1.0,4.0,4.0,405.2130230002149,4.0,1.0,phase_1,,,,,,,,,,,,,magenta,I
341.0,6.0,2.0,1.0,1.0,1.0,637.0731260003595,4.0,1.0,phase_1,,,,,,,,,,,,,magenta,I
645.0,3.0,3.0,0.0,2.0,2.0,461.509789000047,4.0,1.0,phase_1,,,,,,,,,,,,,orange,circle
1304.0,8.0,4.0,1.0,3.0,3.0,526.412326999889,4.0,1.0,phase_1,,,,,,,,,,,,,blue,flipped triangle
664.0,7.0,3.0,1.0,3.0,3.0,414.8437869998815,4.0,1.0,phase_1,,,,,,,,,,,,,gray,cross
332.0,6.0,2.0,1.0,3.0,3.0,387.395667000419,4.0,1.0,phase_1,,,,,,,,,,,,,magenta,I
0.0,7.0,0.0,1.0,1.0,1.0,608.1590649991995,4.0,1.0,phase_1,,,,,,,,,,,,,gray,cross
640.0,3.0,3.0,0.0,2.0,2.0,543.7422869999864,4.0,1.0,phase_1,,,,,,,,,,,,,orange,circle
0.0,3.0,0.0,0.0,1.0,1.0,469.6002330001647,4.0,1.0,phase_1,,,,,,,,,,,,,orange,circle
175.0,1.0,1.0,0.0,3.0,3.0,463.7586270000611,4.0,1.0,phase_1,,,,,,,,,,,,,yellow,triangle
178.0,1.0,1.0,0.0,3.0,3.0,472.0602719999078,4.0,1.0,phase_1,,,,,,,,,,,,,yellow,triangle
139.0,1.0,1.0,0.0,3.0,3.0,423.7725120001414,4.0,1.0,phase_1,,,,,,,,,,,,,yellow,triangle
147.0,5.0,1.0,1.0,4.0,4.0,369.3525089993272,4.0,1.0,phase_1,,,,,,,,,,,,,cyan,diamond
1287.0,8.0,4.0,1.0,3.0,3.0,360.5370759996731,4.0,1.0,phase_1,,,,,,,,,,,,,blue,flipped triangle
0.0,8.0,0.0,1.0,1.0,1.0,507.79163500010327,4.0,1.0,phase_1,,,,,,,,,,,,,blue,flipped triangle
1303.0,8.0,4.0,1.0,1.0,1.0,451.2851349991251,4.0,1.0,phase_1,,,,,,,,,,,,,blue,flipped triangle
330.0,6.0,2.0,1.0,2.0,2.0,463.0829400002767,4.0,1.0,phase_1,,,,,,,,,,,,,magenta,I
665.0,3.0,3.0,0.0,1.0,1.0,536.3328419998652,4.0,1.0,phase_1,,,,,,,,,,,,,orange,circle
165.0,5.0,1.0,1.0,2.0,2.0,424.4609429997581,4.0,1.0,phase_1,,,,,,,,,,,,,cyan,diamond
1316.0,8.0,4.0,1.0,4.0,4.0,369.0931579994867,4.0,1.0,phase_1,,,,,,,,,,,,,blue,flipped triangle
0.0,5.0,0.0,1.0,3.0,3.0,342.5417019998349,4.0,1.0,phase_1,,,,,,,,,,,,,cyan,diamond
640.0,7.0,3.0,1.0,4.0,4.0,386.7731210002603,4.0,1.0,phase_1,,,,,,,,,,,,,gray,cross
1307.0,8.0,4.0,1.0,3.0,3.0,441.9034709999323,4.0,1.0,phase_1,,,,,,,,,,,,,blue,flipped triangle
0.0,1.0,0.0,0.0,4.0,4.0,489.2400589997123,4.0,1.0,phase_1,,,,,,,,,,,,,yellow,triangle
326.0,6.0,2.0,1.0,1.0,1.0,545.0090119993547,4.0,1.0,phase_1,,,,,,,,,,,,,magenta,I
1298.0,8.0,4.0,1.0,2.0,2.0,627.69205099994,4.0,1.0,phase_1,,,,,,,,,,,,,blue,flipped triangle
187.0,1.0,1.0,0.0,3.0,3.0,341.4684399995167,4.0,1.0,phase_1,,,,,,,,,,,,,yellow,triangle
315.0,6.0,2.0,1.0,4.0,4.0,462.031974000638,4.0,1.0,phase_1,,,,,,,,,,,,,magenta,I
1325.0,8.0,4.0,1.0,4.0,4.0,561.3135970006624,4.0,1.0,phase_1,,,,,,,,,,,,,blue,flipped triangle
0.0,6.0,0.0,1.0,2.0,2.0,414.8536149996289,4.0,1.0,phase_1,,,,,,,,,,,,,magenta,I
0.0,7.0,0.0,1.0,2.0,2.0,397.1709300003567,4.0,1.0,phase_1,,,,,,,,,,,,,gray,cross
307.0,6.0,2.0,1.0,4.0,4.0,674.7471230000883,4.0,1.0,phase_1,,,,,,,,,,,,,magenta,I
1309.0,4.0,4.0,0.0,2.0,2.0,691.6689899999255,4.0,1.0,phase_1,,,,,,,,,,,,,white,square
0.0,8.0,0.0,1.0,2.0,2.0,537.4130370000785,4.0,1.0,phase_1,,,,,,,,,,,,,blue,flipped triangle
0.0,8.0,0.0,1.0,2.0,2.0,371.0419649996765,4.0,1.0,phase_1,,,,,,,,,,,,,blue,flipped triangle
653.0,3.0,3.0,0.0,4.0,4.0,737.5423530002081,4.0,1.0,phase_1,,,,,,,,,,,,,orange,circle
331.0,2.0,2.0,0.0,1.0,1.0,672.5223040002675,4.0,1.0,phase_1,,,,,,,,,,,,,green,hexagon
318.0,2.0,2.0,0.0,4.0,4.0,591.7606579996573,4.0,1.0,phase_1,,,,,,,,,,,,,green,hexagon
326.0,2.0,2.0,0.0,4.0,4.0,637.5898770002095,4.0,1.0,phase_1,,,,,,,,,,,,,green,hexagon
640.0,7.0,3.0,1.0,2.0,2.0,406.1472349994801,4.0,1.0,phase_1,,,,,,,,,,,,,gray,cross
668.0,7.0,3.0,1.0,3.0,3.0,423.9834939999127,4.0,1.0,phase_1,,,,,,,,,,,,,gray,cross
0.0,5.0,0.0,1.0,2.0,2.0,480.3041250006572,4.0,1.0,phase_1,,,,,,,,,,,,,cyan,diamond
168.0,5.0,1.0,1.0,3.0,3.0,719.0381170003093,4.0,1.0,phase_1,,,,,,,,,,,,,cyan,diamond
347.0,6.0,2.0,1.0,3.0,3.0,811.4788169996245,4.0,1.0,phase_1,,,,,,,,,,,,,magenta,I
0.0,2.0,2.0,0.0,5.0,5.0,511.51407199995447,1.0,1.0,phase_2,go,250.0,250.0,1.0,,,,,,,,,green,hexagon
0.0,6.0,2.0,1.0,6.0,6.0,621.5647190001619,1.0,1.0,phase_2,stop,250.0,250.0,3.0,,,,,,,,,magenta,I
0.0,6.0,2.0,1.0,5.0,0.0,0.0,1.0,1.0,phase_2,stop,250.0,200.0,4.0,,,,,,,,,magenta,I
0.0,8.0,4.0,1.0,6.0,0.0,0.0,1.0,1.0,phase_2,stop,300.0,200.0,4.0,,,,,,,,,blue,flipped triangle
0.0,3.0,3.0,0.0,6.0,6.0,533.1233389997578,1.0,1.0,phase_2,go,300.0,250.0,1.0,,,,,,,,,orange,circle
0.0,1.0,1.0,0.0,6.0,6.0,851.2567480001962,1.0,1.0,phase_2,go,300.0,250.0,1.0,,,,,,,,,yellow,triangle
0.0,4.0,4.0,0.0,6.0,6.0,1009.9839349995818,1.0,1.0,phase_2,go,300.0,250.0,1.0,,,,,,,,,white,square
0.0,6.0,2.0,1.0,5.0,5.0,1045.0949999994918,1.0,1.0,phase_2,go,300.0,250.0,1.0,,,,,,,,,magenta,I
0.0,7.0,3.0,1.0,5.0,5.0,412.3636539998188,1.0,1.0,phase_2,go,300.0,250.0,1.0,,,,,,,,,gray,cross
0.0,6.0,2.0,1.0,6.0,0.0,0.0,1.0,1.0,phase_2,stop,300.0,250.0,4.0,,,,,,,,,magenta,I
0.0,8.0,4.0,1.0,5.0,5.0,904.107207999914,1.0,1.0,phase_2,go,300.0,300.0,1.0,,,,,,,,,blue,flipped triangle
0.0,7.0,3.0,1.0,5.0,0.0,0.0,1.0,1.0,phase_2,stop,300.0,300.0,4.0,,,,,,,,,gray,cross
0.0,8.0,4.0,1.0,6.0,6.0,821.6011189997516,1.0,1.0,phase_2,go,350.0,300.0,1.0,,,,,,,,,blue,flipped triangle
0.0,3.0,3.0,0.0,5.0,5.0,709.209099999498,1.0,1.0,phase_2,go,350.0,300.0,1.0,,,,,,,,,orange,circle
0.0,4.0,4.0,0.0,5.0,5.0,784.5127720001983,1.0,1.0,phase_2,go,350.0,300.0,1.0,,,,,,,,,white,square
0.0,7.0,3.0,1.0,6.0,6.0,652.6432199998453,1.0,1.0,phase_2,go,350.0,300.0,1.0,,,,,,,,,gray,cross
0.0,7.0,3.0,1.0,5.0,5.0,671.9214869999632,1.0,1.0,phase_2,go,350.0,300.0,1.0,,,,,,,,,gray,cross
0.0,1.0,1.0,0.0,6.0,6.0,531.3081389995205,1.0,1.0,phase_2,go,350.0,300.0,1.0,,,,,,,,,yellow,triangle
0.0,3.0,3.0,0.0,6.0,6.0,551.5023309999378,1.0,1.0,phase_2,go,350.0,300.0,1.0,,,,,,,,,orange,circle
0.0,4.0,4.0,0.0,5.0,5.0,494.3900589996701,1.0,1.0,phase_2,go,350.0,300.0,1.0,,,,,,,,,white,square
0.0,8.0,4.0,1.0,5.0,0.0,0.0,1.0,1.0,phase_2,stop,350.0,300.0,4.0,,,,,,,,,blue,flipped triangle
0.0,6.0,2.0,1.0,6.0,0.0,0.0,1.0,1.0,phase_2,stop,400.0,300.0,4.0,,,,,,,,,magenta,I
0.0,5.0,1.0,1.0,6.0,0.0,0.0,1.0,1.0,phase_2,stop,400.0,350.0,4.0,,,,,,,,,cyan,diamond
0.0,5.0,1.0,1.0,6.0,6.0,672.7676040000006,1.0,1.0,phase_2,go,400.0,400.0,1.0,,,,,,,,,cyan,diamond
0.0,6.0,2.0,1.0,5.0,0.0,0.0,1.0,1.0,phase_2,stop,400.0,400.0,4.0,,,,,,,,,magenta,I
0.0,4.0,4.0,0.0,6.0,6.0,953.013680999902,1.0,1.0,phase_2,go,450.0,400.0,1.0,,,,,,,,,white,square
0.0,1.0,1.0,0.0,6.0,6.0,1061.4903080004296,1.0,1.0,phase_2,go,450.0,400.0,1.0,,,,,,,,,yellow,triangle
0.0,6.0,2.0,1.0,5.0,0.0,0.0,1.0,1.0,phase_2,stop,450.0,400.0,4.0,,,,,,,,,magenta,I
0.0,5.0,1.0,1.0,5.0,0.0,0.0,1.0,1.0,phase_2,stop,500.0,400.0,4.0,,,,,,,,,cyan,diamond
0.0,2.0,2.0,0.0,6.0,6.0,1073.2989190000808,1.0,1.0,phase_2,go,550.0,400.0,1.0,,,,,,,,,green,hexagon
0.0,4.0,4.0,0.0,5.0,5.0,1036.1798320000162,1.0,1.0,phase_2,go,550.0,400.0,1.0,,,,,,,,,white,square
0.0,2.0,2.0,0.0,5.0,5.0,1019.2603179993966,1.0,1.0,phase_2,go,550.0,400.0,1.0,,,,,,,,,green,hexagon
0.0,8.0,4.0,1.0,6.0,0.0,0.0,1.0,1.0,phase_2,stop,550.0,400.0,4.0,,,,,,,,,blue,flipped triangle
0.0,6.0,2.0,1.0,6.0,0.0,0.0,1.0,1.0,phase_2,stop,550.0,450.0,4.0,,,,,,,,,magenta,I
0.0,1.0,1.0,0.0,6.0,6.0,1184.9616469999091,1.0,1.0,phase_2,go,550.0,500.0,1.0,,,,,,,,,yellow,triangle
0.0,1.0,1.0,0.0,6.0,6.0,1163.7918860005811,1.0,1.0,phase_2,go,550.0,500.0,1.0,,,,,,,,,yellow,triangle
0.0,3.0,3.0,0.0,6.0,6.0,860.1741219999894,2.0,1.0,phase_2,go,550.0,500.0,1.0,,,,,,,,,orange,circle
0.0,7.0,3.0,1.0,5.0,5.0,715.2415259997724,2.0,1.0,phase_2,stop,550.0,500.0,3.0,,,,,,,,,gray,cross
0.0,7.0,3.0,1.0,5.0,0.0,0.0,2.0,1.0,phase_2,stop,500.0,500.0,4.0,,,,,,,,,gray,cross
0.0,2.0,2.0,0.0,6.0,6.0,382.8255309999804,2.0,1.0,phase_2,go,550.0,500.0,1.0,,,,,,,,,green,hexagon
0.0,6.0,2.0,1.0,6.0,0.0,0.0,2.0,1.0,phase_2,stop,550.0,500.0,4.0,,,,,,,,,magenta,I
0.0,8.0,4.0,1.0,5.0,5.0,642.1347350005817,2.0,1.0,phase_2,stop,550.0,550.0,3.0,,,,,,,,,blue,flipped triangle
0.0,5.0,1.0,1.0,6.0,0.0,0.0,2.0,1.0,phase_2,stop,500.0,550.0,4.0,,,,,,,,,cyan,diamond
0.0,1.0,1.0,0.0,6.0,6.0,849.4495830000233,2.0,1.0,phase_2,go,500.0,600.0,1.0,,,,,,,,,yellow,triangle
0.0,7.0,3.0,1.0,6.0,6.0,466.7913570001474,2.0,1.0,phase_2,stop,500.0,600.0,3.0,,,,,,,,,gray,cross
0.0,4.0,4.0,0.0,5.0,5.0,905.544971999916,2.0,1.0,phase_2,go,500.0,550.0,1.0,,,,,,,,,white,square
0.0,8.0,4.0,1.0,6.0,6.0,848.103712000011,2.0,1.0,phase_2,go,500.0,550.0,1.0,,,,,,,,,blue,flipped triangle
0.0,2.0,2.0,0.0,5.0,5.0,784.9565470005473,2.0,1.0,phase_2,go,500.0,550.0,1.0,,,,,,,,,green,hexagon
0.0,3.0,3.0,0.0,6.0,6.0,735.7867630007604,2.0,1.0,phase_2,go,500.0,550.0,1.0,,,,,,,,,orange,circle
0.0,1.0,1.0,0.0,5.0,5.0,773.2858130002569,2.0,1.0,phase_2,go,500.0,550.0,1.0,,,,,,,,,yellow,triangle
0.0,5.0,1.0,1.0,6.0,0.0,0.0,2.0,1.0,phase_2,stop,500.0,550.0,4.0,,,,,,,,,cyan,diamond
0.0,1.0,1.0,0.0,5.0,5.0,838.0903590004891,2.0,1.0,phase_2,go,500.0,600.0,1.0,,,,,,,,,yellow,triangle
0.0,7.0,3.0,1.0,5.0,0.0,0.0,2.0,1.0,phase_2,stop,500.0,600.0,4.0,,,,,,,,,gray,cross
0.0,2.0,2.0,0.0,6.0,6.0,721.265604999644,2.0,1.0,phase_2,go,550.0,600.0,1.0,,,,,,,,,green,hexagon
0.0,3.0,3.0,0.0,5.0,5.0,877.7335849999872,2.0,1.0,phase_2,go,550.0,600.0,1.0,,,,,,,,,orange,circle
0.0,7.0,3.0,1.0,6.0,6.0,704.9892690001798,2.0,1.0,phase_2,stop,550.0,600.0,3.0,,,,,,,,,gray,cross
0.0,2.0,2.0,0.0,5.0,5.0,722.0237700003054,2.0,1.0,phase_2,go,550.0,550.0,1.0,,,,,,,,,green,hexagon
0.0,8.0,4.0,1.0,5.0,0.0,0.0,2.0,1.0,phase_2,stop,550.0,550.0,4.0,,,,,,,,,blue,flipped triangle
0.0,1.0,1.0,0.0,5.0,5.0,767.5254290006706,2.0,1.0,phase_2,go,600.0,550.0,1.0,,,,,,,,,yellow,triangle
0.0,7.0,3.0,1.0,5.0,5.0,896.4791539992802,2.0,1.0,phase_2,go,600.0,550.0,1.0,,,,,,,,,gray,cross
0.0,6.0,2.0,1.0,5.0,0.0,0.0,2.0,1.0,phase_2,stop,600.0,550.0,4.0,,,,,,,,,magenta,I
0.0,7.0,3.0,1.0,5.0,0.0,0.0,2.0,1.0,phase_2,go,650.0,550.0,5.0,,,,,,,,,gray,cross
0.0,4.0,4.0,0.0,6.0,0.0,0.0,2.0,1.0,phase_2,go,650.0,550.0,5.0,,,,,,,,,white,square
0.0,2.0,2.0,0.0,6.0,6.0,707.8774169995086,2.0,1.0,phase_2,go,650.0,550.0,1.0,,,,,,,,,green,hexagon
0.0,4.0,4.0,0.0,6.0,6.0,335.8526409992919,2.0,1.0,phase_2,go,650.0,550.0,1.0,,,,,,,,,white,square
0.0,4.0,4.0,0.0,5.0,5.0,1127.8454480006983,2.0,1.0,phase_2,go,650.0,550.0,1.0,,,,,,,,,white,square
0.0,8.0,4.0,1.0,5.0,5.0,456.9634089993997,2.0,1.0,phase_2,stop,650.0,550.0,3.0,,,,,,,,,blue,flipped triangle
0.0,5.0,1.0,1.0,6.0,6.0,761.0057100000631,2.0,1.0,phase_2,stop,600.0,550.0,3.0,,,,,,,,,cyan,diamond
0.0,4.0,4.0,0.0,6.0,6.0,1027.495745000124,2.0,1.0,phase_2,go,600.0,500.0,1.0,,,,,,,,,white,square
0.0,2.0,2.0,0.0,5.0,5.0,551.163656999961,2.0,1.0,phase_2,go,600.0,500.0,1.0,,,,,,,,,green,hexagon
0.0,4.0,4.0,0.0,5.0,5.0,859.6979619997,2.0,1.0,phase_2,go,600.0,500.0,1.0,,,,,,,,,white,square
0.0,6.0,2.0,1.0,5.0,5.0,643.6883229998784,2.0,1.0,phase_2,go,600.0,500.0,1.0,,,,,,,,,magenta,I
0.0,5.0,1.0,1.0,6.0,0.0,0.0,3.0,1.0,phase_2,stop,600.0,500.0,4.0,,,,,,,,,cyan,diamond
0.0,1.0,1.0,0.0,6.0,6.0,557.5570549999611,3.0,1.0,phase_2,go,600.0,550.0,1.0,,,,,,,,,yellow,triangle
0.0,3.0,3.0,0.0,5.0,5.0,614.2865050005639,3.0,1.0,phase_2,go,600.0,550.0,1.0,,,,,,,,,orange,circle
0.0,4.0,4.0,0.0,6.0,6.0,260.5721110003287,3.0,1.0,phase_2,go,600.0,550.0,1.0,,,,,,,,,white,square
0.0,7.0,3.0,1.0,6.0,6.0,549.1521320000174,3.0,1.0,phase_2,stop,600.0,550.0,3.0,,,,,,,,,gray,cross
0.0,1.0,1.0,0.0,5.0,5.0,511.99480699960986,3.0,1.0,phase_2,go,600.0,500.0,1.0,,,,,,,,,yellow,triangle
0.0,6.0,2.0,1.0,6.0,6.0,801.7606970006455,3.0,1.0,phase_2,go,600.0,500.0,1.0,,,,,,,,,magenta,I
0.0,7.0,3.0,1.0,5.0,5.0,699.4606320004095,3.0,1.0,phase_2,go,600.0,500.0,1.0,,,,,,,,,gray,cross
0.0,4.0,4.0,0.0,5.0,5.0,541.9040939996194,3.0,1.0,phase_2,go,600.0,500.0,1.0,,,,,,,,,white,square
0.0,6.0,2.0,1.0,5.0,5.0,400.5900459997065,3.0,1.0,phase_2,go,600.0,500.0,1.0,,,,,,,,,magenta,I
0.0,6.0,2.0,1.0,6.0,6.0,643.7818940003126,3.0,1.0,phase_2,stop,600.0,500.0,3.0,,,,,,,,,magenta,I
0.0,5.0,1.0,1.0,5.0,5.0,455.040204999932,3.0,1.0,phase_2,go,600.0,450.0,1.0,,,,,,,,,cyan,diamond
0.0,2.0,2.0,0.0,6.0,6.0,438.2258360001287,3.0,1.0,phase_2,go,600.0,450.0,1.0,,,,,,,,,green,hexagon
0.0,7.0,3.0,1.0,6.0,6.0,514.7557850004887,3.0,1.0,phase_2,stop,600.0,450.0,3.0,,,,,,,,,gray,cross
0.0,1.0,1.0,0.0,5.0,5.0,493.089560000044,3.0,1.0,phase_2,go,600.0,400.0,1.0,,,,,,,,,yellow,triangle
0.0,1.0,1.0,0.0,6.0,6.0,456.9759329997396,3.0,1.0,phase_2,go,600.0,400.0,1.0,,,,,,,,,yellow,triangle
0.0,3.0,3.0,0.0,6.0,6.0,383.2793729998229,3.0,1.0,phase_2,go,600.0,400.0,1.0,,,,,,,,,orange,circle
0.0,4.0,4.0,0.0,6.0,6.0,391.691847000402,3.0,1.0,phase_2,go,600.0,400.0,1.0,,,,,,,,,white,square
0.0,1.0,1.0,0.0,5.0,5.0,457.5577419991532,3.0,1.0,phase_2,go,600.0,400.0,1.0,,,,,,,,,yellow,triangle
0.0,7.0,3.0,1.0,5.0,5.0,570.6428069997855,3.0,1.0,phase_2,stop,600.0,400.0,3.0,,,,,,,,,gray,cross
0.0,8.0,4.0,1.0,5.0,5.0,513.493030999598,3.0,1.0,phase_2,stop,550.0,400.0,3.0,,,,,,,,,blue,flipped triangle
0.0,1.0,1.0,0.0,6.0,6.0,756.8793749996985,3.0,1.0,phase_2,go,500.0,400.0,1.0,,,,,,,,,yellow,triangle
0.0,2.0,2.0,0.0,6.0,6.0,569.3647409998448,3.0,1.0,phase_2,go,500.0,400.0,1.0,,,,,,,,,green,hexagon
0.0,6.0,2.0,1.0,5.0,5.0,419.6422839995648,3.0,1.0,phase_2,go,500.0,400.0,1.0,,,,,,,,,magenta,I
0.0,2.0,2.0,0.0,6.0,6.0,383.0255689999831,3.0,1.0,phase_2,go,500.0,400.0,1.0,,,,,,,,,green,hexagon
0.0,5.0,1.0,1.0,6.0,6.0,354.0294040003573,3.0,1.0,phase_2,go,500.0,400.0,1.0,,,,,,,,,cyan,diamond
0.0,3.0,3.0,0.0,5.0,5.0,730.7084479998593,3.0,1.0,phase_2,go,500.0,400.0,1.0,,,,,,,,,orange,circle
0.0,5.0,1.0,1.0,5.0,5.0,632.8798740005368,3.0,1.0,phase_2,stop,500.0,400.0,3.0,,,,,,,,,cyan,diamond
0.0,8.0,4.0,1.0,6.0,6.0,986.503468000592,3.0,1.0,phase_2,go,450.0,400.0,1.0,,,,,,,,,blue,flipped triangle
0.0,5.0,1.0,1.0,6.0,6.0,707.110143999671,3.0,1.0,phase_2,go,450.0,400.0,1.0,,,,,,,,,cyan,diamond
0.0,5.0,1.0,1.0,5.0,5.0,641.4913139997225,3.0,1.0,phase_2,stop,450.0,400.0,3.0,,,,,,,,,cyan,diamond
0.0,3.0,3.0,0.0,6.0,6.0,847.8232389998084,3.0,1.0,phase_2,go,400.0,400.0,1.0,,,,,,,,,orange,circle
0.0,5.0,1.0,1.0,5.0,5.0,566.954056999748,3.0,1.0,phase_2,go,400.0,400.0,1.0,,,,,,,,,cyan,diamond
0.0,6.0,2.0,1.0,6.0,6.0,468.3321929996964,3.0,1.0,phase_2,stop,400.0,400.0,3.0,,,,,,,,,magenta,I
0.0,1.0,1.0,0.0,5.0,5.0,495.5174419992545,3.0,1.0,phase_2,go,400.0,350.0,1.0,,,,,,,,,yellow,triangle
0.0,8.0,4.0,1.0,5.0,0.0,0.0,3.0,1.0,phase_2,stop,400.0,350.0,4.0,,,,,,,,,blue,flipped triangle
0.0,5.0,1.0,1.0,5.0,0.0,0.0,4.0,1.0,phase_2,stop,450.0,350.0,4.0,,,,,,,,,cyan,diamond
0.0,7.0,3.0,1.0,5.0,5.0,409.8966669998845,4.0,1.0,phase_2,stop,500.0,350.0,3.0,,,,,,,,,gray,cross
0.0,2.0,2.0,0.0,5.0,5.0,466.3312319999022,4.0,1.0,phase_2,go,450.0,350.0,1.0,,,,,,,,,green,hexagon
0.0,1.0,1.0,0.0,5.0,5.0,540.1175480001257,4.0,1.0,phase_2,go,450.0,350.0,1.0,,,,,,,,,yellow,triangle
0.0,3.0,3.0,0.0,6.0,6.0,589.0126049998798,4.0,1.0,phase_2,go,450.0,350.0,1.0,,,,,,,,,orange,circle
0.0,6.0,2.0,1.0,6.0,6.0,522.9972070001168,4.0,1.0,phase_2,stop,450.0,350.0,3.0,,,,,,,,,magenta,I
0.0,6.0,2.0,1.0,6.0,6.0,497.0136679994539,4.0,1.0,phase_2,stop,450.0,300.0,3.0,,,,,,,,,magenta,I
0.0,4.0,4.0,0.0,5.0,5.0,627.3927129996082,4.0,1.0,phase_2,go,450.0,250.0,1.0,,,,,,,,,white,square
0.0,6.0,2.0,1.0,6.0,0.0,0.0,4.0,1.0,phase_2,stop,450.0,250.0,4.0,,,,,,,,,magenta,I
0.0,8.0,4.0,1.0,6.0,0.0,0.0,4.0,1.0,phase_2,stop,450.0,300.0,4.0,,,,,,,,,blue,flipped triangle
0.0,2.0,2.0,0.0,5.0,5.0,646.4495179998266,4.0,1.0,phase_2,go,450.0,350.0,1.0,,,,,,,,,green,hexagon
0.0,6.0,2.0,1.0,6.0,0.0,0.0,4.0,1.0,phase_2,stop,450.0,350.0,4.0,,,,,,,,,magenta,I
0.0,3.0,3.0,0.0,5.0,5.0,479.06026500004367,4.0,1.0,phase_2,go,450.0,400.0,1.0,,,,,,,,,orange,circle
0.0,8.0,4.0,1.0,6.0,6.0,392.0479339994926,4.0,1.0,phase_2,stop,450.0,400.0,3.0,,,,,,,,,blue,flipped triangle
0.0,2.0,2.0,0.0,5.0,5.0,644.210858000406,4.0,1.0,phase_2,go,450.0,350.0,1.0,,,,,,,,,green,hexagon
0.0,5.0,1.0,1.0,6.0,0.0,0.0,4.0,1.0,phase_2,stop,450.0,350.0,4.0,,,,,,,,,cyan,diamond
0.0,5.0,1.0,1.0,5.0,5.0,647.4715980002657,4.0,1.0,phase_2,stop,450.0,400.0,3.0,,,,,,,,,cyan,diamond
0.0,8.0,4.0,1.0,6.0,0.0,0.0,4.0,1.0,phase_2,stop,400.0,400.0,4.0,,,,,,,,,blue,flipped triangle
0.0,2.0,2.0,0.0,5.0,5.0,670.788380999511,4.0,1.0,phase_2,go,400.0,450.0,1.0,,,,,,,,,green,hexagon
0.0,6.0,2.0,1.0,5.0,0.0,0.0,4.0,1.0,phase_2,stop,400.0,450.0,4.0,,,,,,,,,magenta,I
0.0,1.0,1.0,0.0,6.0,6.0,549.5381030004864,4.0,1.0,phase_2,go,450.0,450.0,1.0,,,,,,,,,yellow,triangle
0.0,2.0,2.0,0.0,6.0,6.0,355.063868999423,4.0,1.0,phase_2,go,450.0,450.0,1.0,,,,,,,,,green,hexagon
0.0,2.0,2.0,0.0,6.0,6.0,346.0687369997686,4.0,1.0,phase_2,go,450.0,450.0,1.0,,,,,,,,,green,hexagon
0.0,7.0,3.0,1.0,5.0,5.0,376.3275219998832,4.0,1.0,phase_2,stop,450.0,450.0,3.0,,,,,,,,,gray,cross
0.0,3.0,3.0,0.0,6.0,6.0,393.0925799995748,4.0,1.0,phase_2,go,400.0,450.0,1.0,,,,,,,,,orange,circle
0.0,7.0,3.0,1.0,6.0,6.0,575.1672090000284,4.0,1.0,phase_2,stop,400.0,450.0,3.0,,,,,,,,,gray,cross
0.0,5.0,1.0,1.0,5.0,5.0,510.7562169996527,4.0,1.0,phase_2,stop,400.0,400.0,3.0,,,,,,,,,cyan,diamond
0.0,1.0,1.0,0.0,5.0,5.0,1037.128539999685,4.0,1.0,phase_2,go,350.0,400.0,1.0,,,,,,,,,yellow,triangle
0.0,4.0,4.0,0.0,6.0,6.0,1058.3636210003533,4.0,1.0,phase_2,go,350.0,400.0,1.0,,,,,,,,,white,square
0.0,2.0,2.0,0.0,5.0,5.0,596.3707889995931,4.0,1.0,phase_2,go,350.0,400.0,1.0,,,,,,,,,green,hexagon
0.0,1.0,1.0,0.0,6.0,6.0,553.3830119993581,4.0,1.0,phase_2,go,350.0,400.0,1.0,,,,,,,,,yellow,triangle
0.0,4.0,4.0,0.0,5.0,5.0,439.5241850006641,4.0,1.0,phase_2,go,350.0,400.0,1.0,,,,,,,,,white,square
0.0,7.0,3.0,1.0,6.0,6.0,537.2477130003972,4.0,1.0,phase_2,stop,350.0,400.0,3.0,,,,,,,,,gray,cross
0.0,1.0,1.0,0.0,6.0,6.0,430.020305000653,4.0,1.0,phase_2,go,350.0,350.0,1.0,,,,,,,,,yellow,triangle
0.0,4.0,4.0,0.0,5.0,5.0,514.1626869999527,4.0,1.0,phase_2,go,350.0,350.0,1.0,,,,,,,,,white,square
0.0,5.0,1.0,1.0,5.0,0.0,0.0,4.0,1.0,phase_2,stop,350.0,350.0,4.0,,,,,,,,,cyan,diamond
0.0,3.0,3.0,0.0,5.0,5.0,663.1999399996857,5.0,1.0,phase_2,go,400.0,350.0,1.0,,,,,,,,,orange,circle
0.0,4.0,4.0,0.0,5.0,5.0,347.1255209997252,5.0,1.0,phase_2,go,400.0,350.0,1.0,,,,,,,,,white,square
0.0,7.0,3.0,1.0,6.0,6.0,345.6779620000816,5.0,1.0,phase_2,stop,400.0,350.0,3.0,,,,,,,,,gray,cross
0.0,8.0,4.0,1.0,5.0,5.0,495.7040500003131,5.0,1.0,phase_2,go,400.0,300.0,1.0,,,,,,,,,blue,flipped triangle
0.0,6.0,2.0,1.0,6.0,6.0,485.8859720006876,5.0,1.0,phase_2,go,400.0,300.0,1.0,,,,,,,,,magenta,I
0.0,5.0,1.0,1.0,6.0,6.0,368.42480799987237,5.0,1.0,phase_2,stop,400.0,300.0,3.0,,,,,,,,,cyan,diamond
0.0,6.0,2.0,1.0,6.0,6.0,333.0221980004353,5.0,1.0,phase_2,stop,400.0,250.0,3.0,,,,,,,,,magenta,I
0.0,6.0,2.0,1.0,5.0,5.0,495.1336349995472,5.0,1.0,phase_2,go,400.0,200.0,1.0,,,,,,,,,magenta,I
0.0,5.0,1.0,1.0,5.0,5.0,307.93483299930807,5.0,1.0,phase_2,go,400.0,200.0,1.0,,,,,,,,,cyan,diamond
0.0,8.0,4.0,1.0,5.0,5.0,382.8766360002191,5.0,1.0,phase_2,go,400.0,200.0,1.0,,,,,,,,,blue,flipped triangle
0.0,3.0,3.0,0.0,5.0,5.0,476.0232850003376,5.0,1.0,phase_2,go,400.0,200.0,1.0,,,,,,,,,orange,circle
0.0,6.0,2.0,1.0,5.0,5.0,392.150550000224,5.0,1.0,phase_2,stop,400.0,200.0,3.0,,,,,,,,,magenta,I
0.0,6.0,2.0,1.0,6.0,0.0,0.0,5.0,1.0,phase_2,stop,350.0,200.0,4.0,,,,,,,,,magenta,I
0.0,2.0,2.0,0.0,6.0,6.0,578.7786220007547,5.0,1.0,phase_2,go,350.0,250.0,1.0,,,,,,,,,green,hexagon
0.0,4.0,4.0,0.0,5.0,5.0,484.3426990009902,5.0,1.0,phase_2,go,350.0,250.0,1.0,,,,,,,,,white,square
0.0,5.0,1.0,1.0,5.0,0.0,0.0,5.0,1.0,phase_2,stop,350.0,250.0,4.0,,,,,,,,,cyan,diamond
0.0,3.0,3.0,0.0,6.0,6.0,605.5997640014539,5.0,1.0,phase_2,go,400.0,250.0,1.0,,,,,,,,,orange,circle
0.0,1.0,1.0,0.0,6.0,6.0,381.7372840003372,5.0,1.0,phase_2,go,400.0,250.0,1.0,,,,,,,,,yellow,triangle
0.0,4.0,4.0,0.0,5.0,5.0,430.9869970002182,5.0,1.0,phase_2,go,400.0,250.0,1.0,,,,,,,,,white,square
0.0,7.0,3.0,1.0,5.0,5.0,744.4097450006666,5.0,1.0,phase_2,go,400.0,250.0,1.0,,,,,,,,,gray,cross
0.0,3.0,3.0,0.0,5.0,5.0,607.6391539991164,5.0,1.0,phase_2,go,400.0,250.0,1.0,,,,,,,,,orange,circle
0.0,1.0,1.0,0.0,5.0,5.0,404.3011080011638,5.0,1.0,phase_2,go,400.0,250.0,1.0,,,,,,,,,yellow,triangle
0.0,2.0,2.0,0.0,6.0,6.0,483.9708380004595,5.0,1.0,phase_2,go,400.0,250.0,1.0,,,,,,,,,green,hexagon
0.0,8.0,4.0,1.0,5.0,5.0,354.5354140005656,5.0,1.0,phase_2,stop,400.0,250.0,3.0,,,,,,,,,blue,flipped triangle
0.0,3.0,3.0,0.0,5.0,0.0,0.0,5.0,1.0,phase_2,go,350.0,250.0,5.0,,,,,,,,,orange,circle
0.0,2.0,2.0,0.0,6.0,6.0,383.1866469990928,5.0,1.0,phase_2,go,350.0,250.0,1.0,,,,,,,,,green,hexagon
0.0,8.0,4.0,1.0,5.0,5.0,327.2267409993219,5.0,1.0,phase_2,stop,350.0,250.0,3.0,,,,,,,,,blue,flipped triangle
0.0,8.0,4.0,1.0,6.0,6.0,310.3173939998669,5.0,1.0,phase_2,stop,300.0,250.0,3.0,,,,,,,,,blue,flipped triangle
0.0,7.0,3.0,1.0,6.0,6.0,598.0998349987203,5.0,1.0,phase_2,go,300.0,200.0,1.0,,,,,,,,,gray,cross
0.0,6.0,2.0,1.0,6.0,6.0,355.5161300009786,5.0,1.0,phase_2,stop,300.0,200.0,3.0,,,,,,,,,magenta,I
0.0,1.0,1.0,0.0,6.0,6.0,421.0209339998982,5.0,1.0,phase_2,go,300.0,150.0,1.0,,,,,,,,,yellow,triangle
0.0,2.0,2.0,0.0,6.0,6.0,310.1764610000828,5.0,1.0,phase_2,go,300.0,150.0,1.0,,,,,,,,,green,hexagon
0.0,5.0,1.0,1.0,6.0,0.0,0.0,5.0,1.0,phase_2,stop,300.0,150.0,4.0,,,,,,,,,cyan,diamond
0.0,6.0,2.0,1.0,5.0,0.0,0.0,5.0,1.0,phase_2,stop,300.0,200.0,4.0,,,,,,,,,magenta,I
0.0,3.0,3.0,0.0,6.0,6.0,607.1321429990348,5.0,1.0,phase_2,go,350.0,200.0,1.0,,,,,,,,,orange,circle
0.0,2.0,2.0,0.0,5.0,5.0,476.3897480006562,5.0,1.0,phase_2,go,350.0,200.0,1.0,,,,,,,,,green,hexagon
0.0,4.0,4.0,0.0,6.0,6.0,578.7324470002204,6.0,1.0,phase_2,go,350.0,200.0,1.0,,,,,,,,,white,square
0.0,6.0,2.0,1.0,6.0,6.0,290.6146749992331,6.0,1.0,phase_2,stop,350.0,200.0,3.0,,,,,,,,,magenta,I
0.0,5.0,1.0,1.0,5.0,5.0,280.5439830008254,6.0,1.0,phase_2,stop,350.0,150.0,3.0,,,,,,,,,cyan,diamond
0.0,8.0,4.0,1.0,5.0,5.0,373.5362109982816,6.0,1.0,phase_2,stop,300.0,150.0,3.0,,,,,,,,,blue,flipped triangle
0.0,6.0,2.0,1.0,5.0,5.0,289.1730470000766,6.0,1.0,phase_2,go,250.0,150.0,1.0,,,,,,,,,magenta,I
0.0,8.0,4.0,1.0,6.0,6.0,307.1444400011387,6.0,1.0,phase_2,stop,250.0,150.0,3.0,,,,,,,,,blue,flipped triangle
0.0,6.0,2.0,1.0,5.0,5.0,306.9916710010147,6.0,1.0,phase_2,stop,250.0,100.0,3.0,,,,,,,,,magenta,I
0.0,5.0,1.0,1.0,6.0,6.0,273.1247430001531,6.0,1.0,phase_2,stop,200.0,100.0,3.0,,,,,,,,,cyan,diamond
0.0,5.0,1.0,1.0,5.0,5.0,482.7853030001279,6.0,1.0,phase_2,go,200.0,50.0,1.0,,,,,,,,,cyan,diamond
0.0,4.0,4.0,0.0,6.0,6.0,344.8149140003806,6.0,1.0,phase_2,go,200.0,50.0,1.0,,,,,,,,,white,square
0.0,8.0,4.0,1.0,6.0,0.0,0.0,6.0,1.0,phase_2,stop,200.0,50.0,4.0,,,,,,,,,blue,flipped triangle
0.0,1.0,1.0,0.0,5.0,5.0,318.093066000074,6.0,1.0,phase_2,go,200.0,100.0,1.0,,,,,,,,,yellow,triangle
0.0,5.0,1.0,1.0,5.0,5.0,430.4700480006431,6.0,1.0,phase_2,stop,200.0,100.0,3.0,,,,,,,,,cyan,diamond
0.0,5.0,1.0,1.0,5.0,0.0,0.0,6.0,1.0,phase_2,stop,150.0,100.0,4.0,,,,,,,,,cyan,diamond
0.0,2.0,2.0,0.0,6.0,6.0,467.7381740002602,6.0,1.0,phase_2,go,200.0,100.0,1.0,,,,,,,,,green,hexagon
0.0,4.0,4.0,0.0,5.0,5.0,522.2121810002136,6.0,1.0,phase_2,go,200.0,100.0,1.0,,,,,,,,,white,square
0.0,8.0,4.0,1.0,6.0,6.0,346.6994190002879,6.0,1.0,phase_2,go,200.0,100.0,1.0,,,,,,,,,blue,flipped triangle
0.0,1.0,1.0,0.0,6.0,6.0,318.9610919998813,6.0,1.0,phase_2,go,200.0,100.0,1.0,,,,,,,,,yellow,triangle
0.0,7.0,3.0,1.0,6.0,6.0,322.3682509997161,6.0,1.0,phase_2,stop,200.0,100.0,3.0,,,,,,,,,gray,cross
0.0,8.0,4.0,1.0,5.0,0.0,0.0,6.0,1.0,phase_2,stop,200.0,50.0,4.0,,,,,,,,,blue,flipped triangle
0.0,8.0,4.0,1.0,6.0,6.0,708.0316319988924,6.0,1.0,phase_2,go,250.0,50.0,1.0,,,,,,,,,blue,flipped triangle
0.0,3.0,3.0,0.0,5.0,5.0,643.282728999111,6.0,1.0,phase_2,go,250.0,50.0,1.0,,,,,,,,,orange,circle
0.0,2.0,2.0,0.0,5.0,5.0,467.0942499997181,6.0,1.0,phase_2,go,250.0,50.0,1.0,,,,,,,,,green,hexagon
0.0,8.0,4.0,1.0,6.0,6.0,369.3472300001303,6.0,1.0,phase_2,stop,250.0,50.0,3.0,,,,,,,,,blue,flipped triangle
0.0,4.0,4.0,0.0,6.0,6.0,503.15958200008026,6.0,1.0,phase_2,go,250.0,0.0,1.0,,,,,,,,,white,square
0.0,7.0,3.0,1.0,6.0,0.0,0.0,6.0,1.0,phase_2,stop,250.0,0.0,4.0,,,,,,,,,gray,cross
0.0,2.0,2.0,0.0,5.0,5.0,364.1994350000459,6.0,1.0,phase_2,go,250.0,50.0,1.0,,,,,,,,,green,hexagon
0.0,8.0,4.0,1.0,6.0,0.0,0.0,6.0,1.0,phase_2,stop,250.0,50.0,4.0,,,,,,,,,blue,flipped triangle
0.0,2.0,2.0,0.0,6.0,6.0,653.5277590010082,6.0,1.0,phase_2,go,250.0,100.0,1.0,,,,,,,,,green,hexagon
0.0,2.0,2.0,0.0,5.0,5.0,660.918773000958,6.0,1.0,phase_2,go,250.0,100.0,1.0,,,,,,,,,green,hexagon
0.0,5.0,1.0,1.0,6.0,6.0,336.6773669986287,6.0,1.0,phase_2,stop,250.0,100.0,3.0,,,,,,,,,cyan,diamond
0.0,3.0,3.0,0.0,6.0,6.0,456.3278340010583,6.0,1.0,phase_2,go,250.0,50.0,1.0,,,,,,,,,orange,circle
0.0,3.0,3.0,0.0,6.0,6.0,513.1011860012222,6.0,1.0,phase_2,go,250.0,50.0,1.0,,,,,,,,,orange,circle
0.0,2.0,2.0,0.0,5.0,5.0,541.7405919997691,6.0,1.0,phase_2,go,250.0,50.0,1.0,,,,,,,,,green,hexagon
0.0,1.0,1.0,0.0,6.0,6.0,326.6227279982558,6.0,1.0,phase_2,go,250.0,50.0,1.0,,,,,,,,,yellow,triangle
0.0,3.0,3.0,0.0,6.0,6.0,457.6328980001563,6.0,1.0,phase_2,go,250.0,50.0,1.0,,,,,,,,,orange,circle
0.0,5.0,1.0,1.0,5.0,5.0,391.021813999032,7.0,1.0,phase_2,go,250.0,50.0,1.0,,,,,,,,,cyan,diamond
0.0,3.0,3.0,0.0,5.0,5.0,531.036796999615,7.0,1.0,phase_2,go,250.0,50.0,1.0,,,,,,,,,orange,circle
0.0,4.0,4.0,0.0,6.0,6.0,316.0633129991765,7.0,1.0,phase_2,go,250.0,50.0,1.0,,,,,,,,,white,square
0.0,7.0,3.0,1.0,5.0,5.0,359.9156639993452,7.0,1.0,phase_2,stop,250.0,50.0,3.0,,,,,,,,,gray,cross
0.0,1.0,1.0,0.0,5.0,5.0,456.8039769983443,7.0,1.0,phase_2,go,200.0,50.0,1.0,,,,,,,,,yellow,triangle
0.0,2.0,2.0,0.0,6.0,6.0,344.8670190009579,7.0,1.0,phase_2,go,200.0,50.0,1.0,,,,,,,,,green,hexagon
0.0,3.0,3.0,0.0,6.0,6.0,390.7133659995452,7.0,1.0,phase_2,go,200.0,50.0,1.0,,,,,,,,,orange,circle
0.0,4.0,4.0,0.0,6.0,6.0,392.4666689999867,7.0,1.0,phase_2,go,200.0,50.0,1.0,,,,,,,,,white,square
0.0,6.0,2.0,1.0,5.0,5.0,363.6842159994558,7.0,1.0,phase_2,stop,200.0,50.0,3.0,,,,,,,,,magenta,I
0.0,2.0,2.0,0.0,6.0,6.0,436.8758100008563,7.0,1.0,phase_2,go,150.0,50.0,1.0,,,,,,,,,green,hexagon
0.0,1.0,1.0,0.0,5.0,5.0,572.8119920004247,7.0,1.0,phase_2,go,150.0,50.0,1.0,,,,,,,,,yellow,triangle
0.0,1.0,1.0,0.0,5.0,0.0,0.0,7.0,1.0,phase_2,go,150.0,50.0,5.0,,,,,,,,,yellow,triangle
0.0,5.0,1.0,1.0,6.0,6.0,383.8890120005089,7.0,1.0,phase_2,stop,150.0,50.0,3.0,,,,,,,,,cyan,diamond
0.0,4.0,4.0,0.0,5.0,5.0,335.0336929997866,7.0,1.0,phase_2,go,150.0,0.0,1.0,,,,,,,,,white,square
0.0,5.0,1.0,1.0,6.0,6.0,349.5602179991692,7.0,1.0,phase_2,stop,150.0,0.0,3.0,,,,,,,,,cyan,diamond
0.0,7.0,3.0,1.0,6.0,0.0,0.0,7.0,1.0,phase_2,stop,150.0,0.0,4.0,,,,,,,,,gray,cross
0.0,1.0,1.0,0.0,5.0,5.0,325.8787109989498,7.0,1.0,phase_2,go,150.0,50.0,1.0,,,,,,,,,yellow,triangle
0.0,4.0,4.0,0.0,6.0,6.0,633.9872400003514,7.0,1.0,phase_2,go,150.0,50.0,1.0,,,,,,,,,white,square
0.0,1.0,1.0,0.0,6.0,6.0,593.478517001131,7.0,1.0,phase_2,go,150.0,50.0,1.0,,,,,,,,,yellow,triangle
0.0,7.0,3.0,1.0,6.0,6.0,355.2256370003306,7.0,1.0,phase_2,go,150.0,50.0,1.0,,,,,,,,,gray,cross
0.0,8.0,4.0,1.0,6.0,0.0,0.0,7.0,1.0,phase_2,stop,150.0,50.0,4.0,,,,,,,,,blue,flipped triangle
0.0,6.0,2.0,1.0,6.0,0.0,0.0,7.0,1.0,phase_2,stop,150.0,100.0,4.0,,,,,,,,,magenta,I
0.0,3.0,3.0,0.0,5.0,5.0,1015.7162770010473,7.0,1.0,phase_2,go,150.0,150.0,1.0,,,,,,,,,orange,circle
0.0,5.0,1.0,1.0,5.0,5.0,428.2047910000983,7.0,1.0,phase_2,stop,150.0,150.0,3.0,,,,,,,,,cyan,diamond
0.0,1.0,1.0,0.0,5.0,5.0,426.9020559986529,7.0,1.0,phase_2,go,100.0,150.0,1.0,,,,,,,,,yellow,triangle
0.0,5.0,1.0,1.0,6.0,6.0,314.7485150002467,7.0,1.0,phase_2,stop,100.0,150.0,3.0,,,,,,,,,cyan,diamond
0.0,5.0,1.0,1.0,6.0,6.0,390.8545429985679,7.0,1.0,phase_2,stop,100.0,100.0,3.0,,,,,,,,,cyan,diamond
0.0,3.0,3.0,0.0,5.0,5.0,278.9067000012437,7.0,1.0,phase_2,go,100.0,50.0,1.0,,,,,,,,,orange,circle
0.0,5.0,1.0,1.0,6.0,6.0,264.5151209999312,7.0,1.0,phase_2,stop,100.0,50.0,3.0,,,,,,,,,cyan,diamond
0.0,7.0,3.0,1.0,6.0,0.0,0.0,7.0,1.0,phase_2,stop,100.0,0.0,4.0,,,,,,,,,gray,cross
0.0,4.0,4.0,0.0,5.0,5.0,306.201276000138,7.0,1.0,phase_2,go,100.0,50.0,1.0,,,,,,,,,white,square
0.0,5.0,1.0,1.0,5.0,5.0,354.3744350008637,7.0,1.0,phase_2,go,100.0,50.0,1.0,,,,,,,,,cyan,diamond
0.0,3.0,3.0,0.0,6.0,6.0,354.267388000153,7.0,1.0,phase_2,go,100.0,50.0,1.0,,,,,,,,,orange,circle
0.0,8.0,4.0,1.0,5.0,5.0,299.5084640006098,7.0,1.0,phase_2,stop,100.0,50.0,3.0,,,,,,,,,blue,flipped triangle
0.0,2.0,2.0,0.0,5.0,5.0,446.9883290003054,7.0,1.0,phase_2,go,50.0,50.0,1.0,,,,,,,,,green,hexagon
0.0,6.0,2.0,1.0,5.0,5.0,653.2938279997325,7.0,1.0,phase_2,go,50.0,50.0,1.0,,,,,,,,,magenta,I
0.0,7.0,3.0,1.0,5.0,0.0,0.0,8.0,1.0,phase_2,stop,50.0,50.0,4.0,,,,,,,,,gray,cross
0.0,2.0,2.0,0.0,5.0,5.0,411.9575149998127,8.0,1.0,phase_2,go,100.0,50.0,1.0,,,,,,,,,green,hexagon
0.0,7.0,3.0,1.0,6.0,6.0,282.164324000405,8.0,1.0,phase_2,stop,100.0,50.0,3.0,,,,,,,,,gray,cross
0.0,3.0,3.0,0.0,6.0,6.0,410.4680790005659,8.0,1.0,phase_2,go,100.0,0.0,1.0,,,,,,,,,orange,circle
0.0,3.0,3.0,0.0,5.0,5.0,269.0452569986519,8.0,1.0,phase_2,go,100.0,0.0,1.0,,,,,,,,,orange,circle
0.0,7.0,3.0,1.0,6.0,0.0,0.0,8.0,1.0,phase_2,stop,100.0,0.0,4.0,,,,,,,,,gray,cross
0.0,1.0,1.0,0.0,5.0,5.0,336.2213190011971,8.0,1.0,phase_2,go,100.0,50.0,1.0,,,,,,,,,yellow,triangle
0.0,3.0,3.0,0.0,6.0,6.0,353.8752499989641,8.0,1.0,phase_2,go,100.0,50.0,1.0,,,,,,,,,orange,circle
0.0,7.0,3.0,1.0,6.0,0.0,0.0,8.0,1.0,phase_2,stop,100.0,50.0,4.0,,,,,,,,,gray,cross
0.0,4.0,4.0,0.0,6.0,6.0,380.9026099988841,8.0,1.0,phase_2,go,100.0,100.0,1.0,,,,,,,,,white,square
0.0,3.0,3.0,0.0,6.0,6.0,279.0458149993355,8.0,1.0,phase_2,go,100.0,100.0,1.0,,,,,,,,,orange,circle
0.0,8.0,4.0,1.0,5.0,5.0,484.9048220003169,8.0,1.0,phase_2,go,100.0,100.0,1.0,,,,,,,,,blue,flipped triangle
0.0,3.0,3.0,0.0,5.0,5.0,447.5105679994158,8.0,1.0,phase_2,go,100.0,100.0,1.0,,,,,,,,,orange,circle
0.0,7.0,3.0,1.0,6.0,6.0,274.7379219999857,8.0,1.0,phase_2,stop,100.0,100.0,3.0,,,,,,,,,gray,cross
0.0,4.0,4.0,0.0,5.0,5.0,427.0041060008225,8.0,1.0,phase_2,go,100.0,50.0,1.0,,,,,,,,,white,square
0.0,8.0,4.0,1.0,6.0,6.0,343.0197959987708,8.0,1.0,phase_2,stop,100.0,50.0,3.0,,,,,,,,,blue,flipped triangle
0.0,8.0,4.0,1.0,5.0,0.0,0.0,8.0,1.0,phase_2,stop,100.0,0.0,4.0,,,,,,,,,blue,flipped triangle
0.0,2.0,2.0,0.0,6.0,6.0,493.9702430001489,8.0,1.0,phase_2,go,150.0,0.0,1.0,,,,,,,,,green,hexagon
0.0,7.0,3.0,1.0,5.0,0.0,0.0,8.0,1.0,phase_2,stop,150.0,0.0,4.0,,,,,,,,,gray,cross
0.0,1.0,1.0,0.0,6.0,6.0,596.0954389993276,8.0,1.0,phase_2,go,200.0,0.0,1.0,,,,,,,,,yellow,triangle
0.0,8.0,4.0,1.0,5.0,0.0,0.0,8.0,1.0,phase_2,stop,200.0,0.0,4.0,,,,,,,,,blue,flipped triangle
0.0,2.0,2.0,0.0,5.0,5.0,612.3866989983071,8.0,1.0,phase_2,go,250.0,0.0,1.0,,,,,,,,,green,hexagon
0.0,8.0,4.0,1.0,6.0,0.0,0.0,8.0,1.0,phase_2,stop,250.0,0.0,4.0,,,,,,,,,blue,flipped triangle
0.0,6.0,2.0,1.0,5.0,5.0,428.5465970006044,8.0,1.0,phase_2,stop,250.0,50.0,3.0,,,,,,,,,magenta,I
0.0,3.0,3.0,0.0,5.0,5.0,446.8454439993365,8.0,1.0,phase_2,go,200.0,50.0,1.0,,,,,,,,,orange,circle
0.0,7.0,3.0,1.0,5.0,5.0,361.1498949994711,8.0,1.0,phase_2,stop,200.0,50.0,3.0,,,,,,,,,gray,cross
0.0,4.0,4.0,0.0,6.0,6.0,390.7805110011395,8.0,1.0,phase_2,go,150.0,50.0,1.0,,,,,,,,,white,square
0.0,4.0,4.0,0.0,6.0,6.0,344.7052930005156,8.0,1.0,phase_2,go,150.0,50.0,1.0,,,,,,,,,white,square
0.0,6.0,2.0,1.0,5.0,0.0,0.0,8.0,1.0,phase_2,stop,150.0,50.0,4.0,,,,,,,,,magenta,I
0.0,4.0,4.0,0.0,5.0,5.0,445.1853059999848,8.0,1.0,phase_2,go,200.0,50.0,1.0,,,,,,,,,white,square
0.0,4.0,4.0,0.0,6.0,6.0,316.3768859994889,8.0,1.0,phase_2,go,200.0,50.0,1.0,,,,,,,,,white,square
0.0,8.0,4.0,1.0,5.0,5.0,434.0638590001617,8.0,1.0,phase_2,stop,200.0,50.0,3.0,,,,,,,,,blue,flipped triangle
0.0,1.0,1.0,0.0,5.0,5.0,578.0364220008778,8.0,1.0,phase_2,go,150.0,50.0,1.0,,,,,,,,,yellow,triangle
0.0,7.0,3.0,1.0,5.0,5.0,351.819923000221,8.0,1.0,phase_2,stop,150.0,50.0,3.0,,,,,,,,,gray,cross
0.0,3.0,3.0,0.0,5.0,5.0,466.5167650000512,8.0,1.0,phase_2,go,100.0,50.0,1.0,,,,,,,,,orange,circle
0.0,3.0,3.0,0.0,5.0,5.0,417.848461000176,8.0,1.0,phase_2,go,100.0,50.0,1.0,,,,,,,,,orange,circle
0.0,3.0,3.0,0.0,7.0,2.0,1841.9742759997464,1.0,2.0,phase_3,,,,,960.0,5.0,768.0,960.0,384.0,192.0,576.0,1152.0,orange,circle
0.0,1.0,1.0,0.0,7.0,4.0,1874.0012460002615,1.0,1.0,phase_3,,,,,692.0,4.0,346.0,865.0,519.0,692.0,1038.0,173.0,yellow,triangle
0.0,5.0,1.0,1.0,7.0,5.0,1771.7554650007514,1.0,1.0,phase_3,,,,,696.0,6.0,232.0,464.0,348.0,580.0,696.0,116.0,cyan,diamond
0.0,2.0,2.0,0.0,7.0,5.0,1436.0674409999774,1.0,1.0,phase_3,,,,,768.0,4.0,1152.0,576.0,960.0,192.0,768.0,384.0,green,hexagon
0.0,7.0,3.0,1.0,7.0,3.0,2037.1528289997518,1.0,1.0,phase_3,,,,,696.0,6.0,348.0,232.0,696.0,464.0,116.0,580.0,gray,cross
0.0,3.0,3.0,0.0,7.0,2.0,1397.9791719993957,1.0,1.0,phase_3,,,,,865.0,5.0,1038.0,865.0,346.0,519.0,692.0,173.0,orange,circle
0.0,8.0,4.0,1.0,7.0,3.0,1753.259564999098,1.0,1.0,phase_3,,,,,346.0,2.0,692.0,173.0,346.0,1038.0,865.0,519.0,blue,flipped triangle
0.0,8.0,4.0,1.0,7.0,2.0,389.0324679996411,1.0,1.0,phase_3,,,,,232.0,2.0,696.0,232.0,580.0,348.0,116.0,464.0,blue,flipped triangle
0.0,3.0,3.0,0.0,7.0,5.0,333.3501310007705,1.0,1.0,phase_3,,,,,154.0,1.0,924.0,616.0,308.0,462.0,154.0,770.0,orange,circle
0.0,6.0,2.0,1.0,7.0,5.0,769.1028709996317,1.0,1.0,phase_3,,,,,865.0,5.0,692.0,519.0,173.0,1038.0,865.0,346.0,magenta,I
0.0,6.0,2.0,1.0,7.0,6.0,388.1406979999156,1.0,1.0,phase_3,,,,,692.0,4.0,346.0,1038.0,519.0,865.0,173.0,692.0,magenta,I
0.0,6.0,2.0,1.0,7.0,2.0,1296.6473449996556,1.0,1.0,phase_3,,,,,464.0,4.0,696.0,464.0,580.0,348.0,232.0,116.0,magenta,I
0.0,7.0,3.0,1.0,7.0,1.0,407.032301000072,1.0,1.0,phase_3,,,,,384.0,2.0,384.0,768.0,960.0,576.0,192.0,1152.0,gray,cross
0.0,3.0,3.0,0.0,7.0,3.0,610.1550389994372,1.0,1.0,phase_3,,,,,576.0,3.0,384.0,1152.0,576.0,960.0,768.0,192.0,orange,circle
0.0,2.0,2.0,0.0,7.0,2.0,546.4811910005665,1.0,1.0,phase_3,,,,,405.0,3.0,810.0,405.0,540.0,135.0,675.0,270.0,green,hexagon
0.0,8.0,4.0,1.0,7.0,3.0,528.0226909999328,1.0,1.0,phase_3,,,,,135.0,1.0,405.0,675.0,135.0,810.0,270.0,540.0,blue,flipped triangle
0.0,7.0,3.0,1.0,7.0,2.0,622.779539999101,1.0,1.0,phase_3,,,,,116.0,1.0,348.0,116.0,464.0,232.0,696.0,580.0,gray,cross
0.0,8.0,4.0,1.0,7.0,5.0,785.3246329996182,1.0,1.0,phase_3,,,,,462.0,3.0,616.0,924.0,770.0,154.0,462.0,308.0,blue,flipped triangle
0.0,5.0,1.0,1.0,7.0,5.0,369.8192680003558,1.0,1.0,phase_3,,,,,308.0,2.0,924.0,616.0,154.0,462.0,308.0,770.0,cyan,diamond
0.0,6.0,2.0,1.0,7.0,1.0,1118.8027200005308,1.0,1.0,phase_3,,,,,768.0,4.0,768.0,576.0,960.0,384.0,192.0,1152.0,magenta,I
0.0,5.0,1.0,1.0,7.0,5.0,554.875321999134,2.0,1.0,phase_3,,,,,348.0,3.0,464.0,696.0,116.0,232.0,348.0,580.0,cyan,diamond
0.0,7.0,3.0,1.0,7.0,5.0,814.0972459987097,2.0,1.0,phase_3,,,,,924.0,6.0,462.0,770.0,154.0,308.0,924.0,616.0,gray,cross
0.0,2.0,2.0,0.0,7.0,6.0,426.0745490009867,2.0,1.0,phase_3,,,,,924.0,6.0,154.0,770.0,462.0,616.0,308.0,924.0,green,hexagon
0.0,8.0,4.0,1.0,7.0,2.0,370.9653720015922,2.0,1.0,phase_3,,,,,232.0,2.0,464.0,232.0,348.0,696.0,580.0,116.0,blue,flipped triangle
0.0,6.0,2.0,1.0,7.0,2.0,629.4846229993709,2.0,1.0,phase_3,,,,,576.0,3.0,384.0,576.0,1152.0,768.0,960.0,192.0,magenta,I
0.0,2.0,2.0,0.0,7.0,2.0,980.7337719994392,2.0,1.0,phase_3,,,,,348.0,3.0,580.0,348.0,232.0,696.0,116.0,464.0,green,hexagon
0.0,3.0,3.0,0.0,7.0,3.0,445.9843460008414,2.0,1.0,phase_3,,,,,348.0,3.0,464.0,696.0,348.0,116.0,232.0,580.0,orange,circle
0.0,4.0,4.0,0.0,7.0,4.0,434.7718699991674,2.0,1.0,phase_3,,,,,462.0,3.0,308.0,924.0,616.0,462.0,154.0,770.0,white,square
0.0,6.0,2.0,1.0,7.0,5.0,695.9483200007526,2.0,1.0,phase_3,,,,,616.0,4.0,924.0,154.0,770.0,462.0,616.0,308.0,magenta,I
0.0,1.0,1.0,0.0,7.0,6.0,1025.8344629983185,2.0,1.0,phase_3,,,,,384.0,2.0,768.0,576.0,960.0,192.0,1152.0,384.0,yellow,triangle
0.0,3.0,3.0,0.0,7.0,6.0,917.1245680008724,2.0,1.0,phase_3,,,,,810.0,6.0,135.0,405.0,675.0,270.0,540.0,810.0,orange,circle
0.0,4.0,4.0,0.0,7.0,1.0,564.4610950002971,2.0,1.0,phase_3,,,,,348.0,3.0,348.0,116.0,696.0,464.0,232.0,580.0,white,square
0.0,4.0,4.0,0.0,7.0,2.0,630.3959889992257,2.0,1.0,phase_3,,,,,464.0,4.0,348.0,464.0,116.0,696.0,232.0,580.0,white,square
0.0,1.0,1.0,0.0,7.0,5.0,878.246260999731,2.0,1.0,phase_3,,,,,675.0,5.0,270.0,405.0,540.0,810.0,675.0,135.0,yellow,triangle
0.0,7.0,3.0,1.0,7.0,6.0,906.0583139998926,2.0,1.0,phase_3,,,,,1152.0,6.0,384.0,960.0,576.0,192.0,768.0,1152.0,gray,cross
0.0,3.0,3.0,0.0,7.0,1.0,1546.631981000246,2.0,1.0,phase_3,,,,,405.0,3.0,405.0,270.0,675.0,810.0,540.0,135.0,orange,circle
0.0,1.0,1.0,0.0,7.0,5.0,592.6776960004645,2.0,1.0,phase_3,,,,,270.0,2.0,405.0,810.0,675.0,135.0,270.0,540.0,yellow,triangle
0.0,5.0,1.0,1.0,7.0,2.0,455.6080319998727,2.0,1.0,phase_3,,,,,540.0,4.0,135.0,540.0,405.0,810.0,270.0,675.0,cyan,diamond
0.0,2.0,2.0,0.0,7.0,4.0,306.3739219996932,2.0,1.0,phase_3,,,,,1038.0,6.0,692.0,173.0,865.0,1038.0,519.0,346.0,green,hexagon
0.0,8.0,4.0,1.0,7.0,3.0,528.0195650011592,2.0,1.0,phase_3,,,,,1038.0,6.0,173.0,519.0,1038.0,865.0,692.0,346.0,blue,flipped triangle
0.0,4.0,4.0,0.0,7.0,6.0,520.5560680005874,3.0,1.0,phase_3,,,,,519.0,3.0,865.0,173.0,1038.0,692.0,346.0,519.0,white,square
0.0,2.0,2.0,0.0,7.0,2.0,389.4126840004901,3.0,1.0,phase_3,,,,,462.0,3.0,924.0,462.0,616.0,770.0,308.0,154.0,green,hexagon
0.0,7.0,3.0,1.0,7.0,2.0,750.9591319994797,3.0,1.0,phase_3,,,,,462.0,3.0,770.0,462.0,308.0,616.0,924.0,154.0,gray,cross
0.0,7.0,3.0,1.0,7.0,5.0,558.6295920002158,3.0,1.0,phase_3,,,,,173.0,1.0,865.0,519.0,1038.0,692.0,173.0,346.0,gray,cross
0.0,6.0,2.0,1.0,7.0,5.0,463.9699290000862,3.0,1.0,phase_3,,,,,308.0,2.0,154.0,770.0,924.0,462.0,308.0,616.0,magenta,I
0.0,1.0,1.0,0.0,7.0,5.0,538.4177240011923,3.0,1.0,phase_3,,,,,348.0,3.0,580.0,232.0,464.0,116.0,348.0,696.0,yellow,triangle
0.0,3.0,3.0,0.0,7.0,5.0,556.3893600010488,3.0,1.0,phase_3,,,,,696.0,6.0,116.0,348.0,580.0,464.0,696.0,232.0,orange,circle
0.0,2.0,2.0,0.0,7.0,5.0,611.8210450003971,3.0,1.0,phase_3,,,,,270.0,2.0,405.0,675.0,810.0,135.0,270.0,540.0,green,hexagon
0.0,6.0,2.0,1.0,7.0,3.0,628.8194909993763,3.0,1.0,phase_3,,,,,116.0,1.0,580.0,348.0,116.0,464.0,232.0,696.0,magenta,I
0.0,5.0,1.0,1.0,7.0,2.0,823.023977000048,3.0,1.0,phase_3,,,,,692.0,4.0,346.0,692.0,173.0,865.0,519.0,1038.0,cyan,diamond
0.0,2.0,2.0,0.0,7.0,2.0,471.8991179997829,3.0,1.0,phase_3,,,,,768.0,4.0,192.0,768.0,384.0,960.0,576.0,1152.0,green,hexagon
0.0,4.0,4.0,0.0,7.0,2.0,601.286885999798,3.0,1.0,phase_3,,,,,768.0,4.0,960.0,768.0,576.0,1152.0,192.0,384.0,white,square
0.0,4.0,4.0,0.0,7.0,2.0,647.8209619999689,3.0,1.0,phase_3,,,,,960.0,5.0,1152.0,960.0,192.0,768.0,576.0,384.0,white,square
0.0,4.0,4.0,0.0,7.0,2.0,564.0548779992969,3.0,1.0,phase_3,,,,,519.0,3.0,173.0,519.0,692.0,346.0,1038.0,865.0,white,square
0.0,2.0,2.0,0.0,7.0,5.0,658.5101660002692,3.0,1.0,phase_3,,,,,348.0,3.0,696.0,232.0,116.0,464.0,348.0,580.0,green,hexagon
0.0,3.0,3.0,0.0,7.0,2.0,788.7959989984665,3.0,1.0,phase_3,,,,,1038.0,6.0,519.0,1038.0,865.0,692.0,173.0,346.0,orange,circle
0.0,5.0,1.0,1.0,7.0,2.0,777.7473780006403,3.0,1.0,phase_3,,,,,768.0,4.0,384.0,768.0,192.0,576.0,960.0,1152.0,cyan,diamond
0.0,7.0,3.0,1.0,7.0,5.0,730.2884780001477,3.0,1.0,phase_3,,,,,865.0,5.0,173.0,519.0,692.0,1038.0,865.0,346.0,gray,cross
0.0,6.0,2.0,1.0,7.0,3.0,595.2675899989117,3.0,1.0,phase_3,,,,,810.0,6.0,270.0,675.0,810.0,540.0,135.0,405.0,magenta,I
0.0,5.0,1.0,1.0,7.0,2.0,845.3966300003231,3.0,1.0,phase_3,,,,,675.0,5.0,810.0,675.0,135.0,270.0,540.0,405.0,cyan,diamond
0.0,8.0,4.0,1.0,7.0,5.0,335.4150149989436,4.0,1.0,phase_3,,,,,308.0,2.0,770.0,924.0,462.0,154.0,308.0,616.0,blue,flipped triangle
0.0,5.0,1.0,1.0,7.0,3.0,287.9189799987216,4.0,1.0,phase_3,,,,,308.0,2.0,462.0,616.0,308.0,924.0,770.0,154.0,cyan,diamond
0.0,1.0,1.0,0.0,7.0,5.0,574.5195530016645,4.0,1.0,phase_3,,,,,519.0,3.0,692.0,865.0,1038.0,173.0,519.0,346.0,yellow,triangle
0.0,6.0,2.0,1.0,7.0,5.0,0.2726189995883,4.0,1.0,phase_3,,,,,405.0,3.0,810.0,135.0,540.0,675.0,405.0,270.0,magenta,I
0.0,1.0,1.0,0.0,7.0,2.0,500.85730099999637,4.0,1.0,phase_3,,,,,580.0,5.0,464.0,580.0,348.0,232.0,696.0,116.0,yellow,triangle
0.0,3.0,3.0,0.0,7.0,2.0,575.3735899997992,4.0,1.0,phase_3,,,,,462.0,3.0,154.0,462.0,616.0,924.0,308.0,770.0,orange,circle
0.0,8.0,4.0,1.0,7.0,5.0,648.0994209996425,4.0,1.0,phase_3,,,,,405.0,3.0,135.0,810.0,675.0,270.0,405.0,540.0,blue,flipped triangle
0.0,1.0,1.0,0.0,7.0,5.0,3087.372347001292,4.0,1.0,phase_3,,,,,192.0,1.0,384.0,768.0,960.0,576.0,192.0,1152.0,yellow,triangle
0.0,2.0,2.0,0.0,7.0,5.0,613.1384159998561,4.0,1.0,phase_3,,,,,346.0,2.0,692.0,865.0,519.0,1038.0,346.0,173.0,green,hexagon
0.0,4.0,4.0,0.0,7.0,2.0,2670.5248930011294,4.0,1.0,phase_3,,,,,270.0,2.0,675.0,270.0,810.0,405.0,540.0,135.0,white,square
0.0,1.0,1.0,0.0,7.0,5.0,528.7842889993044,4.0,1.0,phase_3,,,,,154.0,1.0,924.0,308.0,616.0,770.0,154.0,462.0,yellow,triangle
0.0,4.0,4.0,0.0,7.0,3.0,760.7265999995434,4.0,1.0,phase_3,,,,,616.0,4.0,462.0,154.0,616.0,308.0,924.0,770.0,white,square
0.0,7.0,3.0,1.0,7.0,2.0,444.2947839997941,4.0,1.0,phase_3,,,,,540.0,4.0,675.0,540.0,270.0,405.0,810.0,135.0,gray,cross
0.0,8.0,4.0,1.0,7.0,5.0,464.2037390003679,4.0,1.0,phase_3,,,,,192.0,1.0,384.0,576.0,768.0,1152.0,192.0,960.0,blue,flipped triangle
0.0,7.0,3.0,1.0,7.0,2.0,389.6510239992494,4.0,1.0,phase_3,,,,,270.0,2.0,810.0,270.0,540.0,135.0,405.0,675.0,gray,cross
0.0,1.0,1.0,0.0,7.0,2.0,465.2447769985883,4.0,1.0,phase_3,,,,,308.0,2.0,154.0,308.0,616.0,770.0,924.0,462.0,yellow,triangle
0.0,5.0,1.0,1.0,7.0,5.0,428.0151080001815,4.0,1.0,phase_3,,,,,384.0,2.0,576.0,768.0,960.0,192.0,384.0,1152.0,cyan,diamond
0.0,5.0,1.0,1.0,7.0,6.0,685.6267019993538,4.0,1.0,phase_3,,,,,519.0,3.0,1038.0,865.0,173.0,346.0,692.0,519.0,cyan,diamond
0.0,8.0,4.0,1.0,7.0,6.0,806.7568280002888,4.0,1.0,phase_3,,,,,960.0,5.0,1152.0,576.0,768.0,384.0,192.0,960.0,blue,flipped triangle
0.0,4.0,4.0,0.0,7.0,6.0,585.662935000073,4.0,1.0,phase_3,,,,,135.0,1.0,405.0,810.0,270.0,675.0,540.0,135.0,white,square
