raw_reward_magnitude,stim_reward,stepwise_reward_magnitude,paired_with_stopping,stim_location,response,reaction_time,block,num_trial_presentations,which_phase,stop_signal_trial_type,left_SSD,right_SSD,accuracy,chosen_bidding_amount,chosen_bidding_level,possible_bid_1,possible_bid_2,possible_bid_3,possible_bid_4,possible_bid_5,possible_bid_6,color_text,shape_text
1284.0,8.0,4.0,1.0,4.0,4.0,462.337607000336,1.0,1.0,phase_1,,,,,,,,,,,,,gray,I
152.0,5.0,1.0,1.0,2.0,2.0,415.8459450000009,1.0,1.0,phase_1,,,,,,,,,,,,,orange,diamond
673.0,7.0,3.0,1.0,1.0,1.0,333.5212149995641,1.0,1.0,phase_1,,,,,,,,,,,,,yellow,flipped triangle
311.0,2.0,2.0,0.0,3.0,3.0,296.8485350002083,1.0,1.0,phase_1,,,,,,,,,,,,,white,triangle
637.0,3.0,3.0,0.0,4.0,4.0,278.5499720002917,1.0,1.0,phase_1,,,,,,,,,,,,,green,hexagon
342.0,6.0,2.0,1.0,3.0,3.0,343.8090259996897,1.0,1.0,phase_1,,,,,,,,,,,,,magenta,circle
0.0,8.0,0.0,1.0,1.0,1.0,261.7411600003834,1.0,1.0,phase_1,,,,,,,,,,,,,gray,I
1306.0,4.0,4.0,0.0,3.0,3.0,324.0625619991988,1.0,1.0,phase_1,,,,,,,,,,,,,cyan,square
169.0,1.0,1.0,0.0,2.0,2.0,351.3136349993147,1.0,1.0,phase_1,,,,,,,,,,,,,blue,cross
311.0,6.0,2.0,1.0,4.0,4.0,314.3740199993772,1.0,1.0,phase_1,,,,,,,,,,,,,magenta,circle
319.0,2.0,2.0,0.0,4.0,4.0,351.3404139994236,1.0,1.0,phase_1,,,,,,,,,,,,,white,triangle
309.0,2.0,2.0,0.0,4.0,4.0,379.7339359998659,1.0,1.0,phase_1,,,,,,,,,,,,,white,triangle
0.0,3.0,0.0,0.0,3.0,3.0,295.4310309996799,1.0,1.0,phase_1,,,,,,,,,,,,,green,hexagon
150.0,5.0,1.0,1.0,1.0,1.0,369.65670900008257,1.0,1.0,phase_1,,,,,,,,,,,,,orange,diamond
1304.0,8.0,4.0,1.0,4.0,4.0,295.4915259997506,1.0,1.0,phase_1,,,,,,,,,,,,,gray,I
1316.0,4.0,4.0,0.0,1.0,1.0,526.2500749995525,1.0,2.0,phase_1,,,,,,,,,,,,,cyan,square
172.0,5.0,1.0,1.0,2.0,2.0,425.7123830002456,1.0,1.0,phase_1,,,,,,,,,,,,,orange,diamond
164.0,1.0,1.0,0.0,1.0,1.0,415.6861080000453,1.0,1.0,phase_1,,,,,,,,,,,,,blue,cross
674.0,7.0,3.0,1.0,3.0,3.0,332.0484699997905,1.0,1.0,phase_1,,,,,,,,,,,,,yellow,flipped triangle
320.0,6.0,2.0,1.0,4.0,4.0,415.9345989992289,1.0,1.0,phase_1,,,,,,,,,,,,,magenta,circle
331.0,2.0,2.0,0.0,2.0,2.0,524.8801660000026,1.0,1.0,phase_1,,,,,,,,,,,,,white,triangle
0.0,3.0,0.0,0.0,1.0,1.0,341.4891190004709,1.0,1.0,phase_1,,,,,,,,,,,,,green,hexagon
310.0,2.0,2.0,0.0,3.0,3.0,285.0338530006411,1.0,1.0,phase_1,,,,,,,,,,,,,white,triangle
638.0,7.0,3.0,1.0,1.0,1.0,289.76059300021,1.0,1.0,phase_1,,,,,,,,,,,,,yellow,flipped triangle
318.0,6.0,2.0,1.0,2.0,2.0,452.3103559995434,1.0,1.0,phase_1,,,,,,,,,,,,,magenta,circle
1300.0,4.0,4.0,0.0,2.0,2.0,322.7273570000761,1.0,1.0,phase_1,,,,,,,,,,,,,cyan,square
1276.0,4.0,4.0,0.0,1.0,1.0,406.842874999711,1.0,1.0,phase_1,,,,,,,,,,,,,cyan,square
179.0,1.0,1.0,0.0,4.0,4.0,352.2694399998727,1.0,1.0,phase_1,,,,,,,,,,,,,blue,cross
675.0,7.0,3.0,1.0,1.0,1.0,341.3244929997745,1.0,1.0,phase_1,,,,,,,,,,,,,yellow,flipped triangle
0.0,8.0,0.0,1.0,1.0,1.0,561.5205610001794,1.0,1.0,phase_1,,,,,,,,,,,,,gray,I
1307.0,8.0,4.0,1.0,1.0,1.0,304.3549439998969,1.0,1.0,phase_1,,,,,,,,,,,,,gray,I
0.0,7.0,0.0,1.0,1.0,1.0,286.2398659999599,1.0,2.0,phase_1,,,,,,,,,,,,,yellow,flipped triangle
675.0,3.0,3.0,0.0,3.0,3.0,333.9173499998651,1.0,1.0,phase_1,,,,,,,,,,,,,green,hexagon
641.0,3.0,3.0,0.0,1.0,1.0,305.1728689997617,1.0,1.0,phase_1,,,,,,,,,,,,,green,hexagon
342.0,6.0,2.0,1.0,3.0,3.0,323.7336020001748,1.0,1.0,phase_1,,,,,,,,,,,,,magenta,circle
169.0,5.0,1.0,1.0,4.0,4.0,333.4422110001469,1.0,1.0,phase_1,,,,,,,,,,,,,orange,diamond
634.0,3.0,3.0,0.0,3.0,3.0,333.0894090004221,1.0,1.0,phase_1,,,,,,,,,,,,,green,hexagon
645.0,3.0,3.0,0.0,4.0,4.0,304.9208539996471,1.0,1.0,phase_1,,,,,,,,,,,,,green,hexagon
160.0,5.0,1.0,1.0,3.0,3.0,304.8977039998135,1.0,1.0,phase_1,,,,,,,,,,,,,orange,diamond
180.0,1.0,1.0,0.0,3.0,3.0,332.5320840003769,1.0,1.0,phase_1,,,,,,,,,,,,,blue,cross
317.0,6.0,2.0,1.0,2.0,2.0,414.7174350000568,1.0,1.0,phase_1,,,,,,,,,,,,,magenta,circle
1300.0,8.0,4.0,1.0,2.0,2.0,322.2259710000799,1.0,1.0,phase_1,,,,,,,,,,,,,gray,I
1324.0,4.0,4.0,0.0,4.0,4.0,295.1808150000943,1.0,1.0,phase_1,,,,,,,,,,,,,cyan,square
0.0,7.0,0.0,1.0,3.0,3.0,285.428428999694,1.0,1.0,phase_1,,,,,,,,,,,,,yellow,flipped triangle
674.0,7.0,3.0,1.0,3.0,3.0,332.0033310001236,1.0,1.0,phase_1,,,,,,,,,,,,,yellow,flipped triangle
666.0,3.0,3.0,0.0,2.0,2.0,332.5468729999556,1.0,2.0,phase_1,,,,,,,,,,,,,green,hexagon
145.0,1.0,1.0,0.0,2.0,2.0,341.2605189996611,1.0,1.0,phase_1,,,,,,,,,,,,,blue,cross
347.0,6.0,2.0,1.0,3.0,3.0,340.3198790001625,1.0,1.0,phase_1,,,,,,,,,,,,,magenta,circle
1312.0,8.0,4.0,1.0,4.0,4.0,358.6135309997189,1.0,1.0,phase_1,,,,,,,,,,,,,gray,I
0.0,5.0,0.0,1.0,1.0,1.0,654.1630310002802,1.0,1.0,phase_1,,,,,,,,,,,,,orange,diamond
315.0,6.0,2.0,1.0,3.0,3.0,340.2724520001357,1.0,1.0,phase_1,,,,,,,,,,,,,magenta,circle
150.0,1.0,1.0,0.0,3.0,3.0,322.4351850003586,1.0,1.0,phase_1,,,,,,,,,,,,,blue,cross
140.0,1.0,1.0,0.0,4.0,4.0,358.3471590000044,1.0,1.0,phase_1,,,,,,,,,,,,,blue,cross
1307.0,4.0,4.0,0.0,1.0,1.0,340.3720000005705,1.0,1.0,phase_1,,,,,,,,,,,,,cyan,square
343.0,2.0,2.0,0.0,1.0,1.0,359.607307999795,1.0,1.0,phase_1,,,,,,,,,,,,,white,triangle
345.0,2.0,2.0,0.0,4.0,4.0,331.155433999811,1.0,1.0,phase_1,,,,,,,,,,,,,white,triangle
174.0,1.0,1.0,0.0,2.0,2.0,331.2221050000516,1.0,2.0,phase_1,,,,,,,,,,,,,blue,cross
139.0,1.0,1.0,0.0,4.0,4.0,425.7811139996192,1.0,1.0,phase_1,,,,,,,,,,,,,blue,cross
659.0,7.0,3.0,1.0,2.0,2.0,460.746320999533,1.0,1.0,phase_1,,,,,,,,,,,,,yellow,flipped triangle
327.0,2.0,2.0,0.0,2.0,2.0,294.5083579998027,1.0,1.0,phase_1,,,,,,,,,,,,,white,triangle
1300.0,4.0,4.0,0.0,3.0,3.0,369.183738999709,1.0,1.0,phase_1,,,,,,,,,,,,,cyan,square
672.0,7.0,3.0,1.0,3.0,3.0,341.1497610004517,1.0,1.0,phase_1,,,,,,,,,,,,,yellow,flipped triangle
645.0,7.0,3.0,1.0,4.0,4.0,442.8517300002568,1.0,1.0,phase_1,,,,,,,,,,,,,yellow,flipped triangle
319.0,6.0,2.0,1.0,3.0,3.0,341.6758929997741,1.0,1.0,phase_1,,,,,,,,,,,,,magenta,circle
0.0,7.0,0.0,1.0,1.0,1.0,404.9647869996988,1.0,1.0,phase_1,,,,,,,,,,,,,yellow,flipped triangle
170.0,5.0,1.0,1.0,4.0,4.0,294.9169399998936,1.0,1.0,phase_1,,,,,,,,,,,,,orange,diamond
1301.0,4.0,4.0,0.0,3.0,3.0,378.4460309998394,1.0,1.0,phase_1,,,,,,,,,,,,,cyan,square
1284.0,4.0,4.0,0.0,4.0,4.0,351.6015269997297,1.0,1.0,phase_1,,,,,,,,,,,,,cyan,square
638.0,3.0,3.0,0.0,1.0,1.0,414.7108369998022,1.0,1.0,phase_1,,,,,,,,,,,,,green,hexagon
0.0,2.0,0.0,0.0,1.0,1.0,349.7811910001474,1.0,1.0,phase_1,,,,,,,,,,,,,white,triangle
661.0,7.0,3.0,1.0,4.0,4.0,442.006020000008,1.0,1.0,phase_1,,,,,,,,,,,,,yellow,flipped triangle
1275.0,8.0,4.0,1.0,2.0,2.0,487.1711810001216,1.0,1.0,phase_1,,,,,,,,,,,,,gray,I
146.0,5.0,1.0,1.0,1.0,1.0,546.4561799999501,1.0,1.0,phase_1,,,,,,,,,,,,,orange,diamond
643.0,7.0,3.0,1.0,1.0,1.0,414.2963390004297,1.0,1.0,phase_1,,,,,,,,,,,,,yellow,flipped triangle
310.0,6.0,2.0,1.0,2.0,2.0,499.334660000386,1.0,1.0,phase_1,,,,,,,,,,,,,magenta,circle
666.0,3.0,3.0,0.0,2.0,2.0,432.4628160002248,1.0,1.0,phase_1,,,,,,,,,,,,,green,hexagon
663.0,3.0,3.0,0.0,1.0,1.0,387.452602999474,1.0,1.0,phase_1,,,,,,,,,,,,,green,hexagon
337.0,6.0,2.0,1.0,1.0,1.0,378.8730870001018,1.0,1.0,phase_1,,,,,,,,,,,,,magenta,circle
1291.0,4.0,4.0,0.0,3.0,3.0,517.4784460004958,1.0,1.0,phase_1,,,,,,,,,,,,,cyan,square
634.0,7.0,3.0,1.0,1.0,1.0,361.7726820002644,1.0,1.0,phase_1,,,,,,,,,,,,,yellow,flipped triangle
0.0,8.0,0.0,1.0,3.0,3.0,378.3592290001252,1.0,1.0,phase_1,,,,,,,,,,,,,gray,I
331.0,2.0,2.0,0.0,3.0,3.0,368.8224280003851,1.0,1.0,phase_1,,,,,,,,,,,,,white,triangle
331.0,6.0,2.0,1.0,1.0,1.0,425.9323400001449,1.0,1.0,phase_1,,,,,,,,,,,,,magenta,circle
657.0,3.0,3.0,0.0,2.0,2.0,407.1462339998106,1.0,1.0,phase_1,,,,,,,,,,,,,green,hexagon
176.0,1.0,1.0,0.0,2.0,2.0,398.2539940006973,1.0,1.0,phase_1,,,,,,,,,,,,,blue,cross
1325.0,4.0,4.0,0.0,3.0,3.0,369.8810220002997,1.0,1.0,phase_1,,,,,,,,,,,,,cyan,square
1297.0,8.0,4.0,1.0,2.0,2.0,436.1851900002875,1.0,1.0,phase_1,,,,,,,,,,,,,gray,I
157.0,1.0,1.0,0.0,3.0,3.0,434.7054569998363,1.0,1.0,phase_1,,,,,,,,,,,,,blue,cross
315.0,2.0,2.0,0.0,4.0,4.0,352.3069089997079,1.0,1.0,phase_1,,,,,,,,,,,,,white,triangle
668.0,3.0,3.0,0.0,4.0,4.0,361.0856909999711,1.0,1.0,phase_1,,,,,,,,,,,,,green,hexagon
186.0,1.0,1.0,0.0,2.0,2.0,501.5541669999948,1.0,1.0,phase_1,,,,,,,,,,,,,blue,cross
1277.0,8.0,4.0,1.0,1.0,1.0,443.0625429995416,1.0,1.0,phase_1,,,,,,,,,,,,,gray,I
631.0,7.0,3.0,1.0,3.0,3.0,287.1636990003026,1.0,1.0,phase_1,,,,,,,,,,,,,yellow,flipped triangle
175.0,5.0,1.0,1.0,3.0,3.0,387.6398100001097,1.0,1.0,phase_1,,,,,,,,,,,,,orange,diamond
627.0,3.0,3.0,0.0,4.0,4.0,360.8656970000083,1.0,1.0,phase_1,,,,,,,,,,,,,green,hexagon
341.0,2.0,2.0,0.0,3.0,3.0,388.0757800006904,1.0,1.0,phase_1,,,,,,,,,,,,,white,triangle
345.0,6.0,2.0,1.0,4.0,4.0,388.8162470002498,1.0,2.0,phase_1,,,,,,,,,,,,,magenta,circle
342.0,2.0,2.0,0.0,1.0,1.0,456.1864190000051,1.0,1.0,phase_1,,,,,,,,,,,,,white,triangle
1281.0,8.0,4.0,1.0,3.0,3.0,362.1253899991643,1.0,1.0,phase_1,,,,,,,,,,,,,gray,I
0.0,5.0,0.0,1.0,2.0,2.0,334.0828219998002,1.0,1.0,phase_1,,,,,,,,,,,,,orange,diamond
0.0,7.0,0.0,1.0,2.0,2.0,462.3246740002287,2.0,1.0,phase_1,,,,,,,,,,,,,yellow,flipped triangle
661.0,3.0,3.0,0.0,3.0,3.0,322.3339819996909,2.0,1.0,phase_1,,,,,,,,,,,,,green,hexagon
0.0,1.0,0.0,0.0,1.0,1.0,562.9524810001385,2.0,1.0,phase_1,,,,,,,,,,,,,blue,cross
156.0,5.0,1.0,1.0,1.0,1.0,369.0530820003914,2.0,1.0,phase_1,,,,,,,,,,,,,orange,diamond
319.0,6.0,2.0,1.0,4.0,4.0,414.8350909999863,2.0,1.0,phase_1,,,,,,,,,,,,,magenta,circle
164.0,5.0,1.0,1.0,2.0,2.0,350.3212260002328,2.0,1.0,phase_1,,,,,,,,,,,,,orange,diamond
160.0,5.0,1.0,1.0,3.0,3.0,304.2594979997375,2.0,1.0,phase_1,,,,,,,,,,,,,orange,diamond
0.0,5.0,0.0,1.0,3.0,3.0,333.2457970000178,2.0,1.0,phase_1,,,,,,,,,,,,,orange,diamond
156.0,5.0,1.0,1.0,4.0,4.0,341.4894730003652,2.0,1.0,phase_1,,,,,,,,,,,,,orange,diamond
138.0,5.0,1.0,1.0,1.0,1.0,470.3616330007207,2.0,1.0,phase_1,,,,,,,,,,,,,orange,diamond
179.0,5.0,1.0,1.0,1.0,1.0,415.0916720000168,2.0,1.0,phase_1,,,,,,,,,,,,,orange,diamond
331.0,6.0,2.0,1.0,4.0,4.0,379.1193560000465,2.0,1.0,phase_1,,,,,,,,,,,,,magenta,circle
156.0,1.0,1.0,0.0,4.0,4.0,351.591845999792,2.0,1.0,phase_1,,,,,,,,,,,,,blue,cross
0.0,1.0,0.0,0.0,4.0,4.0,443.3540190002532,2.0,1.0,phase_1,,,,,,,,,,,,,blue,cross
1303.0,8.0,4.0,1.0,2.0,2.0,450.9380559993587,2.0,1.0,phase_1,,,,,,,,,,,,,gray,I
177.0,5.0,1.0,1.0,3.0,3.0,396.0914189992763,2.0,1.0,phase_1,,,,,,,,,,,,,orange,diamond
157.0,5.0,1.0,1.0,4.0,4.0,424.6020560003671,2.0,1.0,phase_1,,,,,,,,,,,,,orange,diamond
336.0,6.0,2.0,1.0,2.0,2.0,351.4180949996444,2.0,1.0,phase_1,,,,,,,,,,,,,magenta,circle
1307.0,8.0,4.0,1.0,4.0,4.0,479.8286800005371,2.0,1.0,phase_1,,,,,,,,,,,,,gray,I
1304.0,4.0,4.0,0.0,1.0,1.0,379.6547040001314,2.0,1.0,phase_1,,,,,,,,,,,,,cyan,square
638.0,7.0,3.0,1.0,2.0,2.0,351.0083040000609,2.0,1.0,phase_1,,,,,,,,,,,,,yellow,flipped triangle
0.0,4.0,0.0,0.0,3.0,3.0,332.0079099994473,2.0,1.0,phase_1,,,,,,,,,,,,,cyan,square
160.0,1.0,1.0,0.0,2.0,2.0,406.7202030000771,2.0,1.0,phase_1,,,,,,,,,,,,,blue,cross
304.0,6.0,2.0,1.0,4.0,4.0,368.7915700002122,2.0,1.0,phase_1,,,,,,,,,,,,,magenta,circle
0.0,8.0,0.0,1.0,2.0,2.0,359.5464689997243,2.0,1.0,phase_1,,,,,,,,,,,,,gray,I
307.0,2.0,2.0,0.0,4.0,4.0,349.5930499993847,2.0,1.0,phase_1,,,,,,,,,,,,,white,triangle
666.0,3.0,3.0,0.0,4.0,4.0,424.0096280000216,2.0,1.0,phase_1,,,,,,,,,,,,,green,hexagon
326.0,6.0,2.0,1.0,1.0,1.0,414.6453309995195,2.0,1.0,phase_1,,,,,,,,,,,,,magenta,circle
1295.0,8.0,4.0,1.0,4.0,4.0,322.4326680001468,2.0,1.0,phase_1,,,,,,,,,,,,,gray,I
0.0,2.0,0.0,0.0,2.0,2.0,553.9071189996321,2.0,1.0,phase_1,,,,,,,,,,,,,white,triangle
0.0,7.0,0.0,1.0,3.0,3.0,367.3397779994047,2.0,1.0,phase_1,,,,,,,,,,,,,yellow,flipped triangle
342.0,2.0,2.0,0.0,1.0,1.0,378.4033830006592,2.0,1.0,phase_1,,,,,,,,,,,,,white,triangle
0.0,7.0,0.0,1.0,4.0,4.0,377.056604000245,2.0,1.0,phase_1,,,,,,,,,,,,,yellow,flipped triangle
627.0,7.0,3.0,1.0,3.0,3.0,377.8727440003422,2.0,1.0,phase_1,,,,,,,,,,,,,yellow,flipped triangle
336.0,2.0,2.0,0.0,3.0,3.0,360.0637649997225,2.0,1.0,phase_1,,,,,,,,,,,,,white,triangle
0.0,3.0,0.0,0.0,2.0,2.0,349.4318900002326,2.0,1.0,phase_1,,,,,,,,,,,,,green,hexagon
1318.0,4.0,4.0,0.0,4.0,4.0,359.7326780000003,2.0,1.0,phase_1,,,,,,,,,,,,,cyan,square
177.0,1.0,1.0,0.0,1.0,1.0,387.5015319999875,2.0,1.0,phase_1,,,,,,,,,,,,,blue,cross
0.0,2.0,0.0,0.0,3.0,3.0,313.4971250001399,2.0,1.0,phase_1,,,,,,,,,,,,,white,triangle
659.0,7.0,3.0,1.0,2.0,2.0,368.8353210000059,2.0,1.0,phase_1,,,,,,,,,,,,,yellow,flipped triangle
0.0,7.0,0.0,1.0,4.0,4.0,332.3403129998041,2.0,1.0,phase_1,,,,,,,,,,,,,yellow,flipped triangle
0.0,5.0,0.0,1.0,3.0,3.0,331.7165899998144,2.0,1.0,phase_1,,,,,,,,,,,,,orange,diamond
327.0,2.0,2.0,0.0,1.0,1.0,323.3104229993842,2.0,1.0,phase_1,,,,,,,,,,,,,white,triangle
626.0,7.0,3.0,1.0,4.0,4.0,370.9814379999443,2.0,1.0,phase_1,,,,,,,,,,,,,yellow,flipped triangle
634.0,7.0,3.0,1.0,4.0,4.0,368.0123759995695,2.0,1.0,phase_1,,,,,,,,,,,,,yellow,flipped triangle
0.0,5.0,0.0,1.0,2.0,2.0,368.7321049992533,2.0,1.0,phase_1,,,,,,,,,,,,,orange,diamond
0.0,4.0,0.0,0.0,1.0,1.0,361.1786490000668,2.0,1.0,phase_1,,,,,,,,,,,,,cyan,square
633.0,3.0,3.0,0.0,1.0,1.0,358.9265949995024,2.0,1.0,phase_1,,,,,,,,,,,,,green,hexagon
666.0,7.0,3.0,1.0,2.0,2.0,386.9940759996098,2.0,1.0,phase_1,,,,,,,,,,,,,yellow,flipped triangle
165.0,5.0,1.0,1.0,1.0,1.0,460.780851999516,2.0,1.0,phase_1,,,,,,,,,,,,,orange,diamond
327.0,6.0,2.0,1.0,4.0,4.0,395.9364629999982,2.0,1.0,phase_1,,,,,,,,,,,,,magenta,circle
153.0,5.0,1.0,1.0,4.0,4.0,359.7653320002791,2.0,1.0,phase_1,,,,,,,,,,,,,orange,diamond
1312.0,4.0,4.0,0.0,3.0,3.0,358.5878269996101,2.0,1.0,phase_1,,,,,,,,,,,,,cyan,square
338.0,2.0,2.0,0.0,4.0,4.0,387.4657280002793,2.0,1.0,phase_1,,,,,,,,,,,,,white,triangle
317.0,2.0,2.0,0.0,1.0,1.0,469.9249209998015,2.0,1.0,phase_1,,,,,,,,,,,,,white,triangle
153.0,5.0,1.0,1.0,3.0,3.0,340.0659850003649,2.0,1.0,phase_1,,,,,,,,,,,,,orange,diamond
1292.0,4.0,4.0,0.0,1.0,1.0,526.8366119998973,2.0,1.0,phase_1,,,,,,,,,,,,,cyan,square
327.0,6.0,2.0,1.0,4.0,4.0,340.7062300002508,2.0,1.0,phase_1,,,,,,,,,,,,,magenta,circle
0.0,7.0,0.0,1.0,1.0,1.0,386.5926319995196,2.0,1.0,phase_1,,,,,,,,,,,,,yellow,flipped triangle
139.0,5.0,1.0,1.0,4.0,4.0,442.4442999998064,2.0,1.0,phase_1,,,,,,,,,,,,,orange,diamond
1325.0,4.0,4.0,0.0,2.0,2.0,341.9538170001033,2.0,1.0,phase_1,,,,,,,,,,,,,cyan,square
337.0,2.0,2.0,0.0,2.0,2.0,332.4689419996502,2.0,1.0,phase_1,,,,,,,,,,,,,white,triangle
668.0,7.0,3.0,1.0,1.0,1.0,322.3382920004951,2.0,1.0,phase_1,,,,,,,,,,,,,yellow,flipped triangle
654.0,3.0,3.0,0.0,3.0,3.0,350.0384869994377,2.0,1.0,phase_1,,,,,,,,,,,,,green,hexagon
649.0,7.0,3.0,1.0,4.0,4.0,452.2896559992659,2.0,1.0,phase_1,,,,,,,,,,,,,yellow,flipped triangle
300.0,6.0,2.0,1.0,2.0,2.0,284.524292000242,2.0,1.0,phase_1,,,,,,,,,,,,,magenta,circle
1281.0,4.0,4.0,0.0,4.0,4.0,359.7256419998302,2.0,1.0,phase_1,,,,,,,,,,,,,cyan,square
1276.0,8.0,4.0,1.0,1.0,1.0,358.40380900026497,2.0,1.0,phase_1,,,,,,,,,,,,,gray,I
175.0,1.0,1.0,0.0,2.0,2.0,386.4969799997197,2.0,1.0,phase_1,,,,,,,,,,,,,blue,cross
305.0,2.0,2.0,0.0,2.0,2.0,369.0109030003441,2.0,1.0,phase_1,,,,,,,,,,,,,white,triangle
0.0,6.0,0.0,1.0,4.0,4.0,592.501932000232,2.0,1.0,phase_1,,,,,,,,,,,,,magenta,circle
347.0,2.0,2.0,0.0,1.0,1.0,314.8231630002556,2.0,1.0,phase_1,,,,,,,,,,,,,white,triangle
659.0,3.0,3.0,0.0,1.0,1.0,321.4607230002002,2.0,1.0,phase_1,,,,,,,,,,,,,green,hexagon
1324.0,8.0,4.0,1.0,4.0,4.0,340.531042999828,2.0,1.0,phase_1,,,,,,,,,,,,,gray,I
0.0,2.0,0.0,0.0,4.0,4.0,331.8006509998668,2.0,1.0,phase_1,,,,,,,,,,,,,white,triangle
317.0,6.0,2.0,1.0,2.0,2.0,377.121659000295,2.0,1.0,phase_1,,,,,,,,,,,,,magenta,circle
656.0,3.0,3.0,0.0,2.0,2.0,304.9458850000519,2.0,1.0,phase_1,,,,,,,,,,,,,green,hexagon
0.0,1.0,0.0,0.0,3.0,3.0,469.493951000004,2.0,1.0,phase_1,,,,,,,,,,,,,blue,cross
626.0,7.0,3.0,1.0,3.0,3.0,378.6793639992538,2.0,1.0,phase_1,,,,,,,,,,,,,yellow,flipped triangle
0.0,1.0,0.0,0.0,1.0,1.0,441.4048040007401,2.0,1.0,phase_1,,,,,,,,,,,,,blue,cross
666.0,3.0,3.0,0.0,2.0,2.0,359.6386040007928,2.0,1.0,phase_1,,,,,,,,,,,,,green,hexagon
1281.0,8.0,4.0,1.0,3.0,3.0,332.2540360004495,2.0,1.0,phase_1,,,,,,,,,,,,,gray,I
153.0,1.0,1.0,0.0,1.0,1.0,378.2962039995254,2.0,1.0,phase_1,,,,,,,,,,,,,blue,cross
626.0,3.0,3.0,0.0,4.0,4.0,414.3872410004405,2.0,1.0,phase_1,,,,,,,,,,,,,green,hexagon
157.0,5.0,1.0,1.0,1.0,1.0,323.0294789991603,2.0,1.0,phase_1,,,,,,,,,,,,,orange,diamond
1317.0,4.0,4.0,0.0,2.0,2.0,414.6537899996474,2.0,1.0,phase_1,,,,,,,,,,,,,cyan,square
0.0,6.0,0.0,1.0,2.0,2.0,341.1749160004547,2.0,1.0,phase_1,,,,,,,,,,,,,magenta,circle
1321.0,8.0,4.0,1.0,3.0,3.0,598.8821729997653,2.0,1.0,phase_1,,,,,,,,,,,,,gray,I
635.0,7.0,3.0,1.0,1.0,1.0,322.4769910002578,2.0,1.0,phase_1,,,,,,,,,,,,,yellow,flipped triangle
150.0,5.0,1.0,1.0,1.0,1.0,446.7202470004849,2.0,1.0,phase_1,,,,,,,,,,,,,orange,diamond
321.0,2.0,2.0,0.0,3.0,3.0,296.0023529994942,2.0,1.0,phase_1,,,,,,,,,,,,,white,triangle
0.0,3.0,0.0,0.0,1.0,1.0,359.9509210007454,2.0,1.0,phase_1,,,,,,,,,,,,,green,hexagon
1301.0,8.0,4.0,1.0,2.0,2.0,452.8997489996982,2.0,1.0,phase_1,,,,,,,,,,,,,gray,I
656.0,7.0,3.0,1.0,4.0,4.0,533.9239760005512,2.0,1.0,phase_1,,,,,,,,,,,,,yellow,flipped triangle
1316.0,8.0,4.0,1.0,4.0,4.0,386.6451699996105,2.0,1.0,phase_1,,,,,,,,,,,,,gray,I
0.0,6.0,0.0,1.0,1.0,1.0,350.3472180000244,2.0,1.0,phase_1,,,,,,,,,,,,,magenta,circle
157.0,1.0,1.0,0.0,3.0,3.0,304.6162759992512,2.0,1.0,phase_1,,,,,,,,,,,,,blue,cross
171.0,5.0,1.0,1.0,2.0,2.0,304.7558609996486,2.0,1.0,phase_1,,,,,,,,,,,,,orange,diamond
150.0,1.0,1.0,0.0,3.0,3.0,323.7308550005764,2.0,1.0,phase_1,,,,,,,,,,,,,blue,cross
158.0,5.0,1.0,1.0,2.0,2.0,312.6796470005502,2.0,1.0,phase_1,,,,,,,,,,,,,orange,diamond
338.0,6.0,2.0,1.0,3.0,3.0,370.1454889996967,3.0,1.0,phase_1,,,,,,,,,,,,,magenta,circle
1314.0,8.0,4.0,1.0,3.0,3.0,378.5069120003754,3.0,1.0,phase_1,,,,,,,,,,,,,gray,I
637.0,3.0,3.0,0.0,3.0,3.0,322.6829800005362,3.0,1.0,phase_1,,,,,,,,,,,,,green,hexagon
328.0,2.0,2.0,0.0,2.0,2.0,322.8930730001593,3.0,1.0,phase_1,,,,,,,,,,,,,white,triangle
329.0,2.0,2.0,0.0,2.0,2.0,323.6191309997593,3.0,1.0,phase_1,,,,,,,,,,,,,white,triangle
1303.0,8.0,4.0,1.0,3.0,3.0,322.5539200002458,3.0,1.0,phase_1,,,,,,,,,,,,,gray,I
0.0,6.0,0.0,1.0,2.0,2.0,379.5745369998258,3.0,1.0,phase_1,,,,,,,,,,,,,magenta,circle
0.0,7.0,0.0,1.0,4.0,4.0,378.9145689997895,3.0,1.0,phase_1,,,,,,,,,,,,,yellow,flipped triangle
641.0,7.0,3.0,1.0,3.0,3.0,341.7709929999546,3.0,1.0,phase_1,,,,,,,,,,,,,yellow,flipped triangle
186.0,5.0,1.0,1.0,2.0,2.0,368.5813860001872,3.0,1.0,phase_1,,,,,,,,,,,,,orange,diamond
153.0,1.0,1.0,0.0,4.0,4.0,340.5754530003833,3.0,1.0,phase_1,,,,,,,,,,,,,blue,cross
626.0,3.0,3.0,0.0,4.0,4.0,360.0859779999155,3.0,1.0,phase_1,,,,,,,,,,,,,green,hexagon
1318.0,8.0,4.0,1.0,2.0,2.0,396.2091700004748,3.0,1.0,phase_1,,,,,,,,,,,,,gray,I
1303.0,4.0,4.0,0.0,3.0,3.0,296.2667430001602,3.0,1.0,phase_1,,,,,,,,,,,,,cyan,square
321.0,6.0,2.0,1.0,1.0,1.0,360.46923899994,3.0,2.0,phase_1,,,,,,,,,,,,,magenta,circle
1325.0,8.0,4.0,1.0,4.0,4.0,416.2043699998321,3.0,1.0,phase_1,,,,,,,,,,,,,gray,I
328.0,6.0,2.0,1.0,3.0,3.0,332.080211000175,3.0,1.0,phase_1,,,,,,,,,,,,,magenta,circle
176.0,5.0,1.0,1.0,4.0,4.0,406.1579130002428,3.0,1.0,phase_1,,,,,,,,,,,,,orange,diamond
160.0,1.0,1.0,0.0,1.0,1.0,369.7983110005225,3.0,1.0,phase_1,,,,,,,,,,,,,blue,cross
0.0,5.0,0.0,1.0,4.0,4.0,360.2585099997668,3.0,1.0,phase_1,,,,,,,,,,,,,orange,diamond
1286.0,8.0,4.0,1.0,2.0,2.0,396.7014290001316,3.0,1.0,phase_1,,,,,,,,,,,,,gray,I
0.0,8.0,0.0,1.0,1.0,1.0,349.8476260001553,3.0,1.0,phase_1,,,,,,,,,,,,,gray,I
0.0,2.0,0.0,0.0,2.0,2.0,378.5600749997684,3.0,1.0,phase_1,,,,,,,,,,,,,white,triangle
1314.0,4.0,4.0,0.0,2.0,2.0,369.7448700004315,3.0,1.0,phase_1,,,,,,,,,,,,,cyan,square
0.0,2.0,0.0,0.0,2.0,2.0,315.8051620002879,3.0,1.0,phase_1,,,,,,,,,,,,,white,triangle
0.0,1.0,0.0,0.0,3.0,3.0,323.1016560002899,3.0,1.0,phase_1,,,,,,,,,,,,,blue,cross
0.0,5.0,0.0,1.0,4.0,4.0,387.5896380004633,3.0,1.0,phase_1,,,,,,,,,,,,,orange,diamond
1295.0,4.0,4.0,0.0,1.0,1.0,406.3689180002257,3.0,1.0,phase_1,,,,,,,,,,,,,cyan,square
633.0,7.0,3.0,1.0,4.0,4.0,352.0831559999351,3.0,1.0,phase_1,,,,,,,,,,,,,yellow,flipped triangle
0.0,4.0,0.0,0.0,4.0,4.0,360.4392409997672,3.0,1.0,phase_1,,,,,,,,,,,,,cyan,square
146.0,1.0,1.0,0.0,3.0,3.0,331.6532439994262,3.0,1.0,phase_1,,,,,,,,,,,,,blue,cross
0.0,2.0,0.0,0.0,4.0,4.0,446.290511999905,3.0,1.0,phase_1,,,,,,,,,,,,,white,triangle
0.0,3.0,0.0,0.0,1.0,1.0,479.2855850000705,3.0,1.0,phase_1,,,,,,,,,,,,,green,hexagon
1298.0,8.0,4.0,1.0,1.0,1.0,406.407536000188,3.0,1.0,phase_1,,,,,,,,,,,,,gray,I
1307.0,4.0,4.0,0.0,1.0,1.0,370.507149000332,3.0,1.0,phase_1,,,,,,,,,,,,,cyan,square
336.0,6.0,2.0,1.0,3.0,3.0,519.2416629997751,3.0,1.0,phase_1,,,,,,,,,,,,,magenta,circle
638.0,3.0,3.0,0.0,4.0,4.0,433.3574279999084,3.0,2.0,phase_1,,,,,,,,,,,,,green,hexagon
0.0,4.0,0.0,0.0,3.0,3.0,369.6230960003959,3.0,1.0,phase_1,,,,,,,,,,,,,cyan,square
0.0,3.0,0.0,0.0,2.0,2.0,405.3726599995571,3.0,1.0,phase_1,,,,,,,,,,,,,green,hexagon
643.0,3.0,3.0,0.0,2.0,2.0,425.2331440002308,3.0,1.0,phase_1,,,,,,,,,,,,,green,hexagon
336.0,2.0,2.0,0.0,3.0,3.0,341.9326680004815,3.0,1.0,phase_1,,,,,,,,,,,,,white,triangle
164.0,5.0,1.0,1.0,4.0,4.0,359.46678000073,3.0,1.0,phase_1,,,,,,,,,,,,,orange,diamond
138.0,1.0,1.0,0.0,1.0,1.0,462.9630109993741,3.0,2.0,phase_1,,,,,,,,,,,,,blue,cross
1292.0,4.0,4.0,0.0,4.0,4.0,407.4991520001276,3.0,1.0,phase_1,,,,,,,,,,,,,cyan,square
152.0,1.0,1.0,0.0,2.0,2.0,407.9367009999259,3.0,1.0,phase_1,,,,,,,,,,,,,blue,cross
666.0,3.0,3.0,0.0,4.0,4.0,488.2234899996547,3.0,1.0,phase_1,,,,,,,,,,,,,green,hexagon
170.0,1.0,1.0,0.0,1.0,1.0,398.9025619994208,3.0,1.0,phase_1,,,,,,,,,,,,,blue,cross
151.0,1.0,1.0,0.0,4.0,4.0,453.1499189997703,3.0,1.0,phase_1,,,,,,,,,,,,,blue,cross
0.0,5.0,0.0,1.0,3.0,3.0,378.3157689995278,3.0,1.0,phase_1,,,,,,,,,,,,,orange,diamond
0.0,5.0,0.0,1.0,4.0,4.0,359.4075279997923,3.0,1.0,phase_1,,,,,,,,,,,,,orange,diamond
1288.0,8.0,4.0,1.0,3.0,3.0,435.248318000049,3.0,1.0,phase_1,,,,,,,,,,,,,gray,I
307.0,6.0,2.0,1.0,1.0,1.0,461.381383999651,3.0,1.0,phase_1,,,,,,,,,,,,,magenta,circle
1297.0,4.0,4.0,0.0,4.0,4.0,370.4085549998126,3.0,1.0,phase_1,,,,,,,,,,,,,cyan,square
0.0,1.0,0.0,0.0,4.0,4.0,399.9235029996271,3.0,1.0,phase_1,,,,,,,,,,,,,blue,cross
0.0,4.0,0.0,0.0,2.0,2.0,396.8817329996454,3.0,1.0,phase_1,,,,,,,,,,,,,cyan,square
647.0,3.0,3.0,0.0,3.0,3.0,334.4031410006209,3.0,1.0,phase_1,,,,,,,,,,,,,green,hexagon
0.0,1.0,0.0,0.0,1.0,1.0,481.3647450000644,3.0,1.0,phase_1,,,,,,,,,,,,,blue,cross
177.0,1.0,1.0,0.0,4.0,4.0,462.0423380001739,3.0,1.0,phase_1,,,,,,,,,,,,,blue,cross
318.0,2.0,2.0,0.0,1.0,1.0,397.5737540004047,3.0,1.0,phase_1,,,,,,,,,,,,,white,triangle
1275.0,4.0,4.0,0.0,4.0,4.0,488.0017120003685,3.0,1.0,phase_1,,,,,,,,,,,,,cyan,square
1295.0,8.0,4.0,1.0,1.0,1.0,563.8277380003274,3.0,1.0,phase_1,,,,,,,,,,,,,gray,I
0.0,4.0,0.0,0.0,2.0,2.0,499.5550869998624,3.0,1.0,phase_1,,,,,,,,,,,,,cyan,square
1312.0,8.0,4.0,1.0,3.0,3.0,314.5052199997735,3.0,1.0,phase_1,,,,,,,,,,,,,gray,I
0.0,4.0,0.0,0.0,4.0,4.0,332.8782509997836,3.0,1.0,phase_1,,,,,,,,,,,,,cyan,square
346.0,2.0,2.0,0.0,4.0,4.0,526.6940589999649,3.0,1.0,phase_1,,,,,,,,,,,,,white,triangle
140.0,5.0,1.0,1.0,3.0,3.0,395.1119020002807,3.0,1.0,phase_1,,,,,,,,,,,,,orange,diamond
0.0,6.0,0.0,1.0,3.0,3.0,388.0218419999437,3.0,1.0,phase_1,,,,,,,,,,,,,magenta,circle
172.0,1.0,1.0,0.0,3.0,3.0,424.2504849999022,3.0,1.0,phase_1,,,,,,,,,,,,,blue,cross
1308.0,8.0,4.0,1.0,1.0,1.0,515.9373010001218,3.0,1.0,phase_1,,,,,,,,,,,,,gray,I
663.0,7.0,3.0,1.0,3.0,3.0,350.8391049999773,3.0,1.0,phase_1,,,,,,,,,,,,,yellow,flipped triangle
146.0,1.0,1.0,0.0,2.0,2.0,626.0074100000566,3.0,1.0,phase_1,,,,,,,,,,,,,blue,cross
180.0,1.0,1.0,0.0,2.0,2.0,360.5435989993566,3.0,1.0,phase_1,,,,,,,,,,,,,blue,cross
0.0,6.0,0.0,1.0,2.0,2.0,333.5115679992668,3.0,1.0,phase_1,,,,,,,,,,,,,magenta,circle
320.0,2.0,2.0,0.0,3.0,3.0,322.7968949995556,3.0,1.0,phase_1,,,,,,,,,,,,,white,triangle
151.0,5.0,1.0,1.0,3.0,3.0,360.1987399997597,3.0,1.0,phase_1,,,,,,,,,,,,,orange,diamond
309.0,6.0,2.0,1.0,1.0,1.0,415.8395789991118,3.0,1.0,phase_1,,,,,,,,,,,,,magenta,circle
1297.0,8.0,4.0,1.0,3.0,3.0,358.4970729998531,3.0,1.0,phase_1,,,,,,,,,,,,,gray,I
176.0,1.0,1.0,0.0,4.0,4.0,488.107318999937,3.0,1.0,phase_1,,,,,,,,,,,,,blue,cross
341.0,6.0,2.0,1.0,2.0,2.0,350.3700259998368,3.0,1.0,phase_1,,,,,,,,,,,,,magenta,circle
1292.0,8.0,4.0,1.0,4.0,4.0,497.9234960001122,3.0,1.0,phase_1,,,,,,,,,,,,,gray,I
0.0,3.0,0.0,0.0,1.0,1.0,387.4444620005306,3.0,1.0,phase_1,,,,,,,,,,,,,green,hexagon
650.0,3.0,3.0,0.0,3.0,3.0,350.9826299996348,3.0,1.0,phase_1,,,,,,,,,,,,,green,hexagon
329.0,6.0,2.0,1.0,1.0,1.0,341.7958199997883,3.0,1.0,phase_1,,,,,,,,,,,,,magenta,circle
314.0,2.0,2.0,0.0,4.0,4.0,377.04084199958737,3.0,1.0,phase_1,,,,,,,,,,,,,white,triangle
0.0,2.0,0.0,0.0,1.0,1.0,398.3207169994784,3.0,1.0,phase_1,,,,,,,,,,,,,white,triangle
0.0,8.0,0.0,1.0,4.0,4.0,451.6113459994813,3.0,1.0,phase_1,,,,,,,,,,,,,gray,I
158.0,1.0,1.0,0.0,4.0,4.0,386.4898789997824,3.0,1.0,phase_1,,,,,,,,,,,,,blue,cross
171.0,1.0,1.0,0.0,1.0,1.0,293.6970069995368,3.0,1.0,phase_1,,,,,,,,,,,,,blue,cross
340.0,6.0,2.0,1.0,3.0,3.0,304.1122049999103,3.0,1.0,phase_1,,,,,,,,,,,,,magenta,circle
666.0,7.0,3.0,1.0,4.0,4.0,350.013172999752,3.0,1.0,phase_1,,,,,,,,,,,,,yellow,flipped triangle
317.0,2.0,2.0,0.0,4.0,4.0,386.4993949991913,3.0,1.0,phase_1,,,,,,,,,,,,,white,triangle
0.0,6.0,0.0,1.0,4.0,4.0,359.7154099998079,3.0,1.0,phase_1,,,,,,,,,,,,,magenta,circle
0.0,8.0,0.0,1.0,2.0,2.0,358.6152369998672,3.0,1.0,phase_1,,,,,,,,,,,,,gray,I
0.0,7.0,0.0,1.0,1.0,1.0,303.9296590004596,3.0,1.0,phase_1,,,,,,,,,,,,,yellow,flipped triangle
315.0,2.0,2.0,0.0,1.0,1.0,331.772223000371,3.0,1.0,phase_1,,,,,,,,,,,,,white,triangle
1306.0,8.0,4.0,1.0,1.0,1.0,359.2339649994756,3.0,1.0,phase_1,,,,,,,,,,,,,gray,I
146.0,5.0,1.0,1.0,4.0,4.0,360.4495540002972,3.0,1.0,phase_1,,,,,,,,,,,,,orange,diamond
1300.0,8.0,4.0,1.0,1.0,1.0,340.5190979992767,3.0,1.0,phase_1,,,,,,,,,,,,,gray,I
0.0,4.0,0.0,0.0,3.0,3.0,415.3226919997905,3.0,1.0,phase_1,,,,,,,,,,,,,cyan,square
1321.0,4.0,4.0,0.0,3.0,3.0,350.4181039998002,3.0,1.0,phase_1,,,,,,,,,,,,,cyan,square
0.0,8.0,0.0,1.0,3.0,3.0,398.0212329997812,4.0,1.0,phase_1,,,,,,,,,,,,,gray,I
640.0,3.0,3.0,0.0,1.0,1.0,368.9513760000409,4.0,1.0,phase_1,,,,,,,,,,,,,green,hexagon
674.0,3.0,3.0,0.0,3.0,3.0,351.84078400016,4.0,1.0,phase_1,,,,,,,,,,,,,green,hexagon
673.0,3.0,3.0,0.0,2.0,2.0,389.1143890004969,4.0,1.0,phase_1,,,,,,,,,,,,,green,hexagon
631.0,3.0,3.0,0.0,3.0,3.0,352.3156219998782,4.0,1.0,phase_1,,,,,,,,,,,,,green,hexagon
315.0,6.0,2.0,1.0,3.0,3.0,362.1968850002304,4.0,1.0,phase_1,,,,,,,,,,,,,magenta,circle
637.0,7.0,3.0,1.0,2.0,2.0,371.4187409996157,4.0,1.0,phase_1,,,,,,,,,,,,,yellow,flipped triangle
156.0,1.0,1.0,0.0,1.0,1.0,352.1379000003435,4.0,1.0,phase_1,,,,,,,,,,,,,blue,cross
635.0,3.0,3.0,0.0,2.0,2.0,488.8883550001992,4.0,1.0,phase_1,,,,,,,,,,,,,green,hexagon
1283.0,4.0,4.0,0.0,3.0,3.0,286.1837720001858,4.0,1.0,phase_1,,,,,,,,,,,,,cyan,square
640.0,7.0,3.0,1.0,3.0,3.0,460.609894999834,4.0,1.0,phase_1,,,,,,,,,,,,,yellow,flipped triangle
674.0,3.0,3.0,0.0,1.0,1.0,442.6205750005465,4.0,1.0,phase_1,,,,,,,,,,,,,green,hexagon
0.0,1.0,0.0,0.0,1.0,1.0,368.7151170006473,4.0,1.0,phase_1,,,,,,,,,,,,,blue,cross
0.0,6.0,0.0,1.0,4.0,4.0,376.8124859998352,4.0,1.0,phase_1,,,,,,,,,,,,,magenta,circle
1310.0,8.0,4.0,1.0,3.0,3.0,331.8810370001301,4.0,1.0,phase_1,,,,,,,,,,,,,gray,I
305.0,6.0,2.0,1.0,2.0,2.0,368.9580820000628,4.0,1.0,phase_1,,,,,,,,,,,,,magenta,circle
1292.0,8.0,4.0,1.0,2.0,2.0,350.5602329996691,4.0,1.0,phase_1,,,,,,,,,,,,,gray,I
304.0,2.0,2.0,0.0,3.0,3.0,322.635318999346,4.0,1.0,phase_1,,,,,,,,,,,,,white,triangle
659.0,3.0,3.0,0.0,1.0,1.0,350.883010999496,4.0,1.0,phase_1,,,,,,,,,,,,,green,hexagon
183.0,5.0,1.0,1.0,2.0,2.0,322.8625640003884,4.0,1.0,phase_1,,,,,,,,,,,,,orange,diamond
0.0,3.0,0.0,0.0,1.0,1.0,294.7875849995398,4.0,1.0,phase_1,,,,,,,,,,,,,green,hexagon
314.0,6.0,2.0,1.0,1.0,1.0,332.3398370002905,4.0,1.0,phase_1,,,,,,,,,,,,,magenta,circle
0.0,2.0,0.0,0.0,4.0,4.0,341.6328249995786,4.0,1.0,phase_1,,,,,,,,,,,,,white,triangle
300.0,2.0,2.0,0.0,4.0,4.0,351.7983239999012,4.0,1.0,phase_1,,,,,,,,,,,,,white,triangle
1286.0,8.0,4.0,1.0,1.0,1.0,378.7111639994691,4.0,1.0,phase_1,,,,,,,,,,,,,gray,I
666.0,7.0,3.0,1.0,2.0,2.0,406.294240000534,4.0,1.0,phase_1,,,,,,,,,,,,,yellow,flipped triangle
0.0,3.0,0.0,0.0,3.0,3.0,350.8909669999411,4.0,1.0,phase_1,,,,,,,,,,,,,green,hexagon
1312.0,4.0,4.0,0.0,2.0,2.0,396.6607699994711,4.0,1.0,phase_1,,,,,,,,,,,,,cyan,square
638.0,7.0,3.0,1.0,4.0,4.0,452.4911039998187,4.0,1.0,phase_1,,,,,,,,,,,,,yellow,flipped triangle
1281.0,4.0,4.0,0.0,2.0,2.0,313.6322330001349,4.0,1.0,phase_1,,,,,,,,,,,,,cyan,square
0.0,2.0,0.0,0.0,4.0,4.0,452.0333949994892,4.0,1.0,phase_1,,,,,,,,,,,,,white,triangle
634.0,3.0,3.0,0.0,1.0,1.0,426.029182000093,4.0,1.0,phase_1,,,,,,,,,,,,,green,hexagon
174.0,5.0,1.0,1.0,2.0,2.0,414.1981599996143,4.0,1.0,phase_1,,,,,,,,,,,,,orange,diamond
164.0,1.0,1.0,0.0,3.0,3.0,479.206919999342,4.0,1.0,phase_1,,,,,,,,,,,,,blue,cross
319.0,2.0,2.0,0.0,3.0,3.0,378.3194330007973,4.0,1.0,phase_1,,,,,,,,,,,,,white,triangle
0.0,1.0,0.0,0.0,1.0,1.0,377.2802640005466,4.0,1.0,phase_1,,,,,,,,,,,,,blue,cross
1308.0,4.0,4.0,0.0,2.0,2.0,331.4624320000803,4.0,1.0,phase_1,,,,,,,,,,,,,cyan,square
657.0,7.0,3.0,1.0,3.0,3.0,341.4289390002523,4.0,1.0,phase_1,,,,,,,,,,,,,yellow,flipped triangle
331.0,6.0,2.0,1.0,1.0,1.0,434.1986070003258,4.0,1.0,phase_1,,,,,,,,,,,,,magenta,circle
343.0,6.0,2.0,1.0,4.0,4.0,434.2493029998877,4.0,1.0,phase_1,,,,,,,,,,,,,magenta,circle
638.0,3.0,3.0,0.0,2.0,2.0,323.1636679993244,4.0,1.0,phase_1,,,,,,,,,,,,,green,hexagon
331.0,2.0,2.0,0.0,1.0,1.0,535.6280530004369,4.0,1.0,phase_1,,,,,,,,,,,,,white,triangle
323.0,6.0,2.0,1.0,2.0,2.0,349.9472800003786,4.0,1.0,phase_1,,,,,,,,,,,,,magenta,circle
341.0,6.0,2.0,1.0,2.0,2.0,331.0531799997989,4.0,1.0,phase_1,,,,,,,,,,,,,magenta,circle
180.0,5.0,1.0,1.0,2.0,2.0,321.7669740006386,4.0,1.0,phase_1,,,,,,,,,,,,,orange,diamond
1298.0,4.0,4.0,0.0,1.0,1.0,452.890469000522,4.0,1.0,phase_1,,,,,,,,,,,,,cyan,square
346.0,6.0,2.0,1.0,1.0,1.0,351.8496709993997,4.0,1.0,phase_1,,,,,,,,,,,,,magenta,circle
340.0,2.0,2.0,0.0,2.0,2.0,340.56821299964207,4.0,1.0,phase_1,,,,,,,,,,,,,white,triangle
0.0,4.0,0.0,0.0,1.0,1.0,313.2217739994303,4.0,1.0,phase_1,,,,,,,,,,,,,cyan,square
165.0,1.0,1.0,0.0,4.0,4.0,425.0273049992756,4.0,1.0,phase_1,,,,,,,,,,,,,blue,cross
1288.0,4.0,4.0,0.0,4.0,4.0,314.8323590003201,4.0,1.0,phase_1,,,,,,,,,,,,,cyan,square
1325.0,8.0,4.0,1.0,2.0,2.0,333.1665610003256,4.0,1.0,phase_1,,,,,,,,,,,,,gray,I
666.0,7.0,3.0,1.0,2.0,2.0,314.4372450005903,4.0,1.0,phase_1,,,,,,,,,,,,,yellow,flipped triangle
627.0,7.0,3.0,1.0,1.0,1.0,340.77702400009,4.0,1.0,phase_1,,,,,,,,,,,,,yellow,flipped triangle
630.0,3.0,3.0,0.0,4.0,4.0,341.7130240004553,4.0,1.0,phase_1,,,,,,,,,,,,,green,hexagon
180.0,5.0,1.0,1.0,3.0,3.0,378.1143939995672,4.0,1.0,phase_1,,,,,,,,,,,,,orange,diamond
0.0,3.0,0.0,0.0,4.0,4.0,398.4672979995594,4.0,1.0,phase_1,,,,,,,,,,,,,green,hexagon
146.0,5.0,1.0,1.0,2.0,2.0,341.2823560001925,4.0,1.0,phase_1,,,,,,,,,,,,,orange,diamond
650.0,7.0,3.0,1.0,2.0,2.0,504.82614199972886,4.0,1.0,phase_1,,,,,,,,,,,,,yellow,flipped triangle
0.0,5.0,0.0,1.0,2.0,2.0,332.7888339999845,4.0,1.0,phase_1,,,,,,,,,,,,,orange,diamond
1286.0,4.0,4.0,0.0,2.0,2.0,341.0964920003607,4.0,1.0,phase_1,,,,,,,,,,,,,cyan,square
341.0,2.0,2.0,0.0,1.0,1.0,332.6988779999738,4.0,1.0,phase_1,,,,,,,,,,,,,white,triangle
637.0,7.0,3.0,1.0,2.0,2.0,331.7209020005975,4.0,1.0,phase_1,,,,,,,,,,,,,yellow,flipped triangle
0.0,4.0,0.0,0.0,2.0,2.0,395.1728820002245,4.0,1.0,phase_1,,,,,,,,,,,,,cyan,square
304.0,2.0,2.0,0.0,2.0,2.0,350.022935999732,4.0,1.0,phase_1,,,,,,,,,,,,,white,triangle
0.0,6.0,0.0,1.0,4.0,4.0,341.7679499998485,4.0,1.0,phase_1,,,,,,,,,,,,,magenta,circle
1286.0,4.0,4.0,0.0,4.0,4.0,386.914433000129,4.0,1.0,phase_1,,,,,,,,,,,,,cyan,square
137.0,5.0,1.0,1.0,1.0,1.0,460.5249790001835,4.0,1.0,phase_1,,,,,,,,,,,,,orange,diamond
649.0,3.0,3.0,0.0,3.0,3.0,452.7019360002668,4.0,2.0,phase_1,,,,,,,,,,,,,green,hexagon
1303.0,4.0,4.0,0.0,4.0,4.0,406.2603709999166,4.0,1.0,phase_1,,,,,,,,,,,,,cyan,square
654.0,7.0,3.0,1.0,1.0,1.0,340.4660950000107,4.0,1.0,phase_1,,,,,,,,,,,,,yellow,flipped triangle
647.0,7.0,3.0,1.0,4.0,4.0,525.256444999286,4.0,1.0,phase_1,,,,,,,,,,,,,yellow,flipped triangle
177.0,5.0,1.0,1.0,4.0,4.0,331.5857480001796,4.0,1.0,phase_1,,,,,,,,,,,,,orange,diamond
1310.0,4.0,4.0,0.0,1.0,1.0,405.0987949995033,4.0,1.0,phase_1,,,,,,,,,,,,,cyan,square
1317.0,8.0,4.0,1.0,3.0,3.0,340.1520229999732,4.0,1.0,phase_1,,,,,,,,,,,,,gray,I
186.0,5.0,1.0,1.0,3.0,3.0,386.3685540000006,4.0,1.0,phase_1,,,,,,,,,,,,,orange,diamond
0.0,8.0,0.0,1.0,2.0,2.0,377.7322999994794,4.0,1.0,phase_1,,,,,,,,,,,,,gray,I
326.0,2.0,2.0,0.0,2.0,2.0,367.6210809999247,4.0,1.0,phase_1,,,,,,,,,,,,,white,triangle
176.0,5.0,1.0,1.0,1.0,1.0,358.4432740008196,4.0,1.0,phase_1,,,,,,,,,,,,,orange,diamond
1283.0,8.0,4.0,1.0,2.0,2.0,368.6604130007254,4.0,1.0,phase_1,,,,,,,,,,,,,gray,I
666.0,7.0,3.0,1.0,1.0,1.0,380.2462120002019,4.0,1.0,phase_1,,,,,,,,,,,,,yellow,flipped triangle
1277.0,4.0,4.0,0.0,3.0,3.0,359.6792700000151,4.0,1.0,phase_1,,,,,,,,,,,,,cyan,square
146.0,1.0,1.0,0.0,3.0,3.0,349.2214859998057,4.0,1.0,phase_1,,,,,,,,,,,,,blue,cross
1278.0,4.0,4.0,0.0,2.0,2.0,350.8510740002748,4.0,1.0,phase_1,,,,,,,,,,,,,cyan,square
1278.0,8.0,4.0,1.0,1.0,1.0,378.1050829993546,4.0,1.0,phase_1,,,,,,,,,,,,,gray,I
627.0,3.0,3.0,0.0,2.0,2.0,405.212845999813,4.0,1.0,phase_1,,,,,,,,,,,,,green,hexagon
0.0,8.0,0.0,1.0,1.0,1.0,359.2441060000055,4.0,1.0,phase_1,,,,,,,,,,,,,gray,I
145.0,5.0,1.0,1.0,3.0,3.0,673.6169080004402,4.0,1.0,phase_1,,,,,,,,,,,,,orange,diamond
183.0,1.0,1.0,0.0,3.0,3.0,773.0050019999908,4.0,1.0,phase_1,,,,,,,,,,,,,blue,cross
1291.0,8.0,4.0,1.0,4.0,4.0,708.8984660003916,4.0,1.0,phase_1,,,,,,,,,,,,,gray,I
630.0,7.0,3.0,1.0,2.0,2.0,435.1837679996606,4.0,1.0,phase_1,,,,,,,,,,,,,yellow,flipped triangle
1295.0,4.0,4.0,0.0,2.0,2.0,349.3787309998879,4.0,1.0,phase_1,,,,,,,,,,,,,cyan,square
1297.0,4.0,4.0,0.0,1.0,1.0,377.1140170001672,4.0,1.0,phase_1,,,,,,,,,,,,,cyan,square
0.0,1.0,0.0,0.0,3.0,3.0,386.2478760001977,4.0,1.0,phase_1,,,,,,,,,,,,,blue,cross
672.0,3.0,3.0,0.0,1.0,1.0,459.9685459997999,4.0,1.0,phase_1,,,,,,,,,,,,,green,hexagon
137.0,1.0,1.0,0.0,1.0,1.0,523.9665669996612,4.0,1.0,phase_1,,,,,,,,,,,,,blue,cross
186.0,1.0,1.0,0.0,1.0,1.0,386.4655489996949,4.0,1.0,phase_1,,,,,,,,,,,,,blue,cross
0.0,6.0,0.0,1.0,3.0,3.0,332.1901090002939,4.0,1.0,phase_1,,,,,,,,,,,,,magenta,circle
323.0,2.0,2.0,0.0,2.0,2.0,358.895272999689,4.0,1.0,phase_1,,,,,,,,,,,,,white,triangle
304.0,6.0,2.0,1.0,4.0,4.0,385.7345119995443,4.0,1.0,phase_1,,,,,,,,,,,,,magenta,circle
0.0,6.0,2.0,1.0,5.0,0.0,0.0,1.0,1.0,phase_2,stop,250.0,250.0,4.0,,,,,,,,,magenta,circle
0.0,3.0,3.0,0.0,6.0,6.0,343.6351359996479,1.0,1.0,phase_2,go,300.0,250.0,1.0,,,,,,,,,green,hexagon
0.0,5.0,1.0,1.0,6.0,6.0,295.2533379993838,1.0,1.0,phase_2,stop,300.0,250.0,3.0,,,,,,,,,orange,diamond
0.0,7.0,3.0,1.0,6.0,6.0,251.8672429996513,1.0,1.0,phase_2,go,300.0,200.0,1.0,,,,,,,,,yellow,flipped triangle
0.0,7.0,3.0,1.0,6.0,6.0,284.0825659995971,1.0,1.0,phase_2,stop,300.0,200.0,3.0,,,,,,,,,yellow,flipped triangle
0.0,8.0,4.0,1.0,5.0,5.0,281.1125899997932,1.0,1.0,phase_2,stop,300.0,150.0,3.0,,,,,,,,,gray,I
0.0,1.0,1.0,0.0,6.0,6.0,289.6715379993111,1.0,1.0,phase_2,go,250.0,150.0,1.0,,,,,,,,,blue,cross
0.0,5.0,1.0,1.0,5.0,5.0,280.3352109995103,1.0,1.0,phase_2,go,250.0,150.0,1.0,,,,,,,,,orange,diamond
0.0,5.0,1.0,1.0,6.0,6.0,288.393002999328,1.0,1.0,phase_2,go,250.0,150.0,1.0,,,,,,,,,orange,diamond
0.0,8.0,4.0,1.0,6.0,6.0,297.8255850002824,1.0,1.0,phase_2,stop,250.0,150.0,3.0,,,,,,,,,gray,I
0.0,4.0,4.0,0.0,5.0,5.0,309.097180000208,1.0,1.0,phase_2,go,250.0,100.0,1.0,,,,,,,,,cyan,square
0.0,1.0,1.0,0.0,6.0,6.0,367.9305499999827,1.0,1.0,phase_2,go,250.0,100.0,1.0,,,,,,,,,blue,cross
0.0,6.0,2.0,1.0,6.0,0.0,0.0,1.0,1.0,phase_2,stop,250.0,100.0,4.0,,,,,,,,,magenta,circle
0.0,7.0,3.0,1.0,5.0,5.0,315.0314410004284,1.0,1.0,phase_2,stop,250.0,150.0,3.0,,,,,,,,,yellow,flipped triangle
0.0,7.0,3.0,1.0,5.0,5.0,304.7985989996959,1.0,1.0,phase_2,stop,200.0,150.0,3.0,,,,,,,,,yellow,flipped triangle
0.0,4.0,4.0,0.0,6.0,6.0,251.70211299973738,1.0,1.0,phase_2,go,150.0,150.0,1.0,,,,,,,,,cyan,square
0.0,8.0,4.0,1.0,6.0,6.0,326.8029619994195,1.0,1.0,phase_2,stop,150.0,150.0,3.0,,,,,,,,,gray,I
0.0,5.0,1.0,1.0,5.0,0.0,0.0,1.0,1.0,phase_2,stop,150.0,100.0,4.0,,,,,,,,,orange,diamond
0.0,6.0,2.0,1.0,5.0,5.0,381.6618210003071,1.0,1.0,phase_2,go,200.0,100.0,1.0,,,,,,,,,magenta,circle
0.0,3.0,3.0,0.0,6.0,6.0,352.6842769997529,1.0,1.0,phase_2,go,200.0,100.0,1.0,,,,,,,,,green,hexagon
0.0,7.0,3.0,1.0,5.0,0.0,0.0,1.0,1.0,phase_2,stop,200.0,100.0,4.0,,,,,,,,,yellow,flipped triangle
0.0,1.0,1.0,0.0,6.0,6.0,446.3635769998291,1.0,1.0,phase_2,go,250.0,100.0,1.0,,,,,,,,,blue,cross
0.0,6.0,2.0,1.0,5.0,0.0,0.0,1.0,1.0,phase_2,stop,250.0,100.0,4.0,,,,,,,,,magenta,circle
0.0,6.0,2.0,1.0,6.0,6.0,291.1377029995492,1.0,1.0,phase_2,stop,300.0,100.0,3.0,,,,,,,,,magenta,circle
0.0,3.0,3.0,0.0,5.0,5.0,326.7503289998785,1.0,1.0,phase_2,go,300.0,50.0,1.0,,,,,,,,,green,hexagon
0.0,4.0,4.0,0.0,6.0,6.0,577.771999000106,1.0,1.0,phase_2,go,300.0,50.0,1.0,,,,,,,,,cyan,square
0.0,8.0,4.0,1.0,5.0,5.0,372.1342750004623,1.0,1.0,phase_2,go,300.0,50.0,1.0,,,,,,,,,gray,I
0.0,5.0,1.0,1.0,5.0,5.0,436.4247039993643,1.0,1.0,phase_2,go,300.0,50.0,1.0,,,,,,,,,orange,diamond
0.0,1.0,1.0,0.0,6.0,6.0,334.9648690000322,1.0,1.0,phase_2,go,300.0,50.0,1.0,,,,,,,,,blue,cross
0.0,4.0,4.0,0.0,6.0,6.0,382.4113580003541,1.0,1.0,phase_2,go,300.0,50.0,1.0,,,,,,,,,cyan,square
0.0,4.0,4.0,0.0,5.0,5.0,399.11847500025027,1.0,1.0,phase_2,go,300.0,50.0,1.0,,,,,,,,,cyan,square
0.0,5.0,1.0,1.0,6.0,0.0,0.0,1.0,1.0,phase_2,stop,300.0,50.0,4.0,,,,,,,,,orange,diamond
0.0,6.0,2.0,1.0,5.0,5.0,334.9819710001611,1.0,1.0,phase_2,go,300.0,100.0,1.0,,,,,,,,,magenta,circle
0.0,7.0,3.0,1.0,5.0,5.0,400.7802520000041,1.0,1.0,phase_2,stop,300.0,100.0,3.0,,,,,,,,,yellow,flipped triangle
0.0,7.0,3.0,1.0,5.0,5.0,475.0613720007095,1.0,1.0,phase_2,go,250.0,100.0,1.0,,,,,,,,,yellow,flipped triangle
0.0,2.0,2.0,0.0,5.0,5.0,511.5906439996252,1.0,1.0,phase_2,go,250.0,100.0,1.0,,,,,,,,,white,triangle
0.0,1.0,1.0,0.0,6.0,6.0,498.155826000584,2.0,1.0,phase_2,go,250.0,100.0,1.0,,,,,,,,,blue,cross
0.0,6.0,2.0,1.0,5.0,5.0,432.3473539998304,2.0,1.0,phase_2,stop,250.0,100.0,3.0,,,,,,,,,magenta,circle
0.0,1.0,1.0,0.0,5.0,5.0,344.6954280007048,2.0,1.0,phase_2,go,200.0,100.0,1.0,,,,,,,,,blue,cross
0.0,8.0,4.0,1.0,5.0,5.0,446.8011979997754,2.0,1.0,phase_2,go,200.0,100.0,1.0,,,,,,,,,gray,I
0.0,6.0,2.0,1.0,5.0,0.0,0.0,2.0,1.0,phase_2,stop,200.0,100.0,4.0,,,,,,,,,magenta,circle
0.0,1.0,1.0,0.0,5.0,5.0,361.9583250001597,2.0,1.0,phase_2,go,250.0,100.0,1.0,,,,,,,,,blue,cross
0.0,7.0,3.0,1.0,6.0,0.0,0.0,2.0,1.0,phase_2,stop,250.0,100.0,4.0,,,,,,,,,yellow,flipped triangle
0.0,4.0,4.0,0.0,5.0,5.0,381.5199850005228,2.0,1.0,phase_2,go,250.0,150.0,1.0,,,,,,,,,cyan,square
0.0,1.0,1.0,0.0,6.0,6.0,439.930509000078,2.0,1.0,phase_2,go,250.0,150.0,1.0,,,,,,,,,blue,cross
0.0,5.0,1.0,1.0,6.0,6.0,585.1975420000599,2.0,1.0,phase_2,stop,250.0,150.0,3.0,,,,,,,,,orange,diamond
0.0,3.0,3.0,0.0,6.0,6.0,743.4409150000647,2.0,1.0,phase_2,go,250.0,100.0,1.0,,,,,,,,,green,hexagon
0.0,7.0,3.0,1.0,5.0,5.0,535.2931670004182,2.0,1.0,phase_2,go,250.0,100.0,1.0,,,,,,,,,yellow,flipped triangle
0.0,7.0,3.0,1.0,5.0,5.0,432.5982129994372,2.0,1.0,phase_2,go,250.0,100.0,1.0,,,,,,,,,yellow,flipped triangle
0.0,3.0,3.0,0.0,5.0,5.0,453.8779479998993,2.0,1.0,phase_2,go,250.0,100.0,1.0,,,,,,,,,green,hexagon
0.0,5.0,1.0,1.0,5.0,5.0,367.5759100005962,2.0,1.0,phase_2,stop,250.0,100.0,3.0,,,,,,,,,orange,diamond
0.0,2.0,2.0,0.0,6.0,6.0,460.3872340003363,2.0,1.0,phase_2,go,200.0,100.0,1.0,,,,,,,,,white,triangle
0.0,1.0,1.0,0.0,5.0,5.0,455.3973729998688,2.0,1.0,phase_2,go,200.0,100.0,1.0,,,,,,,,,blue,cross
0.0,2.0,2.0,0.0,5.0,5.0,501.0555029994066,2.0,1.0,phase_2,go,200.0,100.0,1.0,,,,,,,,,white,triangle
0.0,6.0,2.0,1.0,5.0,0.0,0.0,2.0,1.0,phase_2,stop,200.0,100.0,4.0,,,,,,,,,magenta,circle
0.0,7.0,3.0,1.0,5.0,0.0,0.0,2.0,1.0,phase_2,stop,250.0,100.0,4.0,,,,,,,,,yellow,flipped triangle
0.0,1.0,1.0,0.0,5.0,5.0,564.3956969997816,2.0,1.0,phase_2,go,300.0,100.0,1.0,,,,,,,,,blue,cross
0.0,7.0,3.0,1.0,5.0,5.0,378.5354040001039,2.0,1.0,phase_2,stop,300.0,100.0,3.0,,,,,,,,,yellow,flipped triangle
0.0,3.0,3.0,0.0,5.0,5.0,371.7543009997825,2.0,1.0,phase_2,go,250.0,100.0,1.0,,,,,,,,,green,hexagon
0.0,7.0,3.0,1.0,5.0,0.0,0.0,2.0,1.0,phase_2,stop,250.0,100.0,4.0,,,,,,,,,yellow,flipped triangle
0.0,8.0,4.0,1.0,6.0,0.0,0.0,2.0,1.0,phase_2,stop,300.0,100.0,4.0,,,,,,,,,gray,I
0.0,8.0,4.0,1.0,6.0,6.0,528.487565999967,2.0,1.0,phase_2,go,300.0,150.0,1.0,,,,,,,,,gray,I
0.0,2.0,2.0,0.0,5.0,5.0,595.828335999613,2.0,1.0,phase_2,go,300.0,150.0,1.0,,,,,,,,,white,triangle
0.0,3.0,3.0,0.0,6.0,6.0,550.0534110005901,2.0,1.0,phase_2,go,300.0,150.0,1.0,,,,,,,,,green,hexagon
0.0,8.0,4.0,1.0,6.0,0.0,0.0,2.0,1.0,phase_2,stop,300.0,150.0,4.0,,,,,,,,,gray,I
0.0,8.0,4.0,1.0,6.0,0.0,0.0,2.0,1.0,phase_2,stop,300.0,200.0,4.0,,,,,,,,,gray,I
0.0,8.0,4.0,1.0,6.0,0.0,0.0,2.0,1.0,phase_2,stop,300.0,250.0,4.0,,,,,,,,,gray,I
0.0,5.0,1.0,1.0,6.0,6.0,507.25267300003907,2.0,1.0,phase_2,go,300.0,300.0,1.0,,,,,,,,,orange,diamond
0.0,6.0,2.0,1.0,6.0,6.0,353.6176650004563,2.0,1.0,phase_2,stop,300.0,300.0,3.0,,,,,,,,,magenta,circle
0.0,4.0,4.0,0.0,5.0,5.0,520.2600970005733,2.0,1.0,phase_2,go,300.0,250.0,1.0,,,,,,,,,cyan,square
0.0,2.0,2.0,0.0,5.0,5.0,475.2968579996377,2.0,1.0,phase_2,go,300.0,250.0,1.0,,,,,,,,,white,triangle
0.0,1.0,1.0,0.0,6.0,6.0,454.9555300000065,2.0,1.0,phase_2,go,300.0,250.0,1.0,,,,,,,,,blue,cross
0.0,1.0,1.0,0.0,6.0,6.0,411.2559380000675,3.0,1.0,phase_2,go,300.0,250.0,1.0,,,,,,,,,blue,cross
0.0,4.0,4.0,0.0,5.0,5.0,381.0722469997927,3.0,1.0,phase_2,go,300.0,250.0,1.0,,,,,,,,,cyan,square
0.0,2.0,2.0,0.0,5.0,5.0,364.4646590000775,3.0,1.0,phase_2,go,300.0,250.0,1.0,,,,,,,,,white,triangle
0.0,6.0,2.0,1.0,5.0,5.0,425.9047369996551,3.0,1.0,phase_2,stop,300.0,250.0,3.0,,,,,,,,,magenta,circle
0.0,8.0,4.0,1.0,6.0,0.0,0.0,3.0,1.0,phase_2,stop,250.0,250.0,4.0,,,,,,,,,gray,I
0.0,8.0,4.0,1.0,5.0,0.0,0.0,3.0,1.0,phase_2,stop,250.0,300.0,4.0,,,,,,,,,gray,I
0.0,4.0,4.0,0.0,5.0,5.0,430.4448850007247,3.0,1.0,phase_2,go,300.0,300.0,1.0,,,,,,,,,cyan,square
0.0,8.0,4.0,1.0,6.0,6.0,500.97510399973544,3.0,1.0,phase_2,go,300.0,300.0,1.0,,,,,,,,,gray,I
0.0,8.0,4.0,1.0,5.0,5.0,421.7511770002602,3.0,1.0,phase_2,stop,300.0,300.0,3.0,,,,,,,,,gray,I
0.0,1.0,1.0,0.0,5.0,5.0,597.6921690007657,3.0,1.0,phase_2,go,250.0,300.0,1.0,,,,,,,,,blue,cross
0.0,7.0,3.0,1.0,6.0,6.0,380.2992760001871,3.0,1.0,phase_2,go,250.0,300.0,1.0,,,,,,,,,yellow,flipped triangle
0.0,2.0,2.0,0.0,6.0,6.0,335.8731749995058,3.0,1.0,phase_2,go,250.0,300.0,1.0,,,,,,,,,white,triangle
0.0,8.0,4.0,1.0,5.0,5.0,381.0799240000051,3.0,1.0,phase_2,stop,250.0,300.0,3.0,,,,,,,,,gray,I
0.0,4.0,4.0,0.0,6.0,6.0,416.1115619999691,3.0,1.0,phase_2,go,200.0,300.0,1.0,,,,,,,,,cyan,square
0.0,8.0,4.0,1.0,5.0,5.0,567.2111430003497,3.0,1.0,phase_2,go,200.0,300.0,1.0,,,,,,,,,gray,I
0.0,7.0,3.0,1.0,6.0,0.0,0.0,3.0,1.0,phase_2,stop,200.0,300.0,4.0,,,,,,,,,yellow,flipped triangle
0.0,2.0,2.0,0.0,5.0,5.0,427.5092620000578,3.0,1.0,phase_2,go,200.0,350.0,1.0,,,,,,,,,white,triangle
0.0,1.0,1.0,0.0,6.0,6.0,520.3895619997638,3.0,1.0,phase_2,go,200.0,350.0,1.0,,,,,,,,,blue,cross
0.0,6.0,2.0,1.0,6.0,6.0,524.4326210004147,3.0,1.0,phase_2,stop,200.0,350.0,3.0,,,,,,,,,magenta,circle
0.0,3.0,3.0,0.0,5.0,5.0,437.3063679995539,3.0,1.0,phase_2,go,200.0,300.0,1.0,,,,,,,,,green,hexagon
0.0,4.0,4.0,0.0,6.0,6.0,447.1248720001313,3.0,1.0,phase_2,go,200.0,300.0,1.0,,,,,,,,,cyan,square
0.0,5.0,1.0,1.0,5.0,0.0,0.0,3.0,1.0,phase_2,stop,200.0,300.0,4.0,,,,,,,,,orange,diamond
0.0,1.0,1.0,0.0,6.0,6.0,493.9725599997473,3.0,1.0,phase_2,go,250.0,300.0,1.0,,,,,,,,,blue,cross
0.0,4.0,4.0,0.0,5.0,5.0,548.1458569993265,3.0,1.0,phase_2,go,250.0,300.0,1.0,,,,,,,,,cyan,square
0.0,2.0,2.0,0.0,5.0,5.0,603.26727499978,3.0,1.0,phase_2,go,250.0,300.0,1.0,,,,,,,,,white,triangle
0.0,1.0,1.0,0.0,5.0,5.0,492.414940999879,3.0,1.0,phase_2,go,250.0,300.0,1.0,,,,,,,,,blue,cross
0.0,4.0,4.0,0.0,5.0,5.0,559.0342440000313,3.0,1.0,phase_2,go,250.0,300.0,1.0,,,,,,,,,cyan,square
0.0,6.0,2.0,1.0,5.0,0.0,0.0,3.0,1.0,phase_2,stop,250.0,300.0,4.0,,,,,,,,,magenta,circle
0.0,5.0,1.0,1.0,5.0,5.0,566.1121049997746,3.0,1.0,phase_2,go,300.0,300.0,1.0,,,,,,,,,orange,diamond
0.0,8.0,4.0,1.0,6.0,0.0,0.0,3.0,1.0,phase_2,stop,300.0,300.0,4.0,,,,,,,,,gray,I
0.0,8.0,4.0,1.0,5.0,0.0,0.0,3.0,1.0,phase_2,stop,300.0,350.0,4.0,,,,,,,,,gray,I
0.0,2.0,2.0,0.0,6.0,6.0,585.1248660001147,3.0,1.0,phase_2,go,350.0,350.0,1.0,,,,,,,,,white,triangle
0.0,2.0,2.0,0.0,5.0,5.0,520.5764299998918,3.0,1.0,phase_2,go,350.0,350.0,1.0,,,,,,,,,white,triangle
0.0,2.0,2.0,0.0,5.0,5.0,539.4654060000903,3.0,1.0,phase_2,go,350.0,350.0,1.0,,,,,,,,,white,triangle
0.0,3.0,3.0,0.0,6.0,6.0,510.0053480000497,3.0,1.0,phase_2,go,350.0,350.0,1.0,,,,,,,,,green,hexagon
0.0,5.0,1.0,1.0,6.0,6.0,444.6158610007842,3.0,1.0,phase_2,stop,350.0,350.0,3.0,,,,,,,,,orange,diamond
0.0,3.0,3.0,0.0,6.0,6.0,400.6666619998213,4.0,1.0,phase_2,go,350.0,300.0,1.0,,,,,,,,,green,hexagon
0.0,3.0,3.0,0.0,6.0,6.0,364.3572270002551,4.0,1.0,phase_2,go,350.0,300.0,1.0,,,,,,,,,green,hexagon
0.0,1.0,1.0,0.0,6.0,6.0,345.5485459999181,4.0,1.0,phase_2,go,350.0,300.0,1.0,,,,,,,,,blue,cross
0.0,2.0,2.0,0.0,6.0,6.0,412.3119230007432,4.0,1.0,phase_2,go,350.0,300.0,1.0,,,,,,,,,white,triangle
0.0,7.0,3.0,1.0,6.0,6.0,390.224508000756,4.0,1.0,phase_2,stop,350.0,300.0,3.0,,,,,,,,,yellow,flipped triangle
0.0,5.0,1.0,1.0,6.0,0.0,0.0,4.0,1.0,phase_2,stop,350.0,250.0,4.0,,,,,,,,,orange,diamond
0.0,8.0,4.0,1.0,6.0,0.0,0.0,4.0,1.0,phase_2,stop,350.0,300.0,4.0,,,,,,,,,gray,I
0.0,7.0,3.0,1.0,6.0,6.0,614.7913439999684,4.0,1.0,phase_2,go,350.0,350.0,1.0,,,,,,,,,yellow,flipped triangle
0.0,8.0,4.0,1.0,5.0,0.0,0.0,4.0,1.0,phase_2,stop,350.0,350.0,4.0,,,,,,,,,gray,I
0.0,4.0,4.0,0.0,5.0,5.0,455.2769739993891,4.0,1.0,phase_2,go,400.0,350.0,1.0,,,,,,,,,cyan,square
0.0,6.0,2.0,1.0,6.0,6.0,502.3476880005546,4.0,1.0,phase_2,stop,400.0,350.0,3.0,,,,,,,,,magenta,circle
0.0,2.0,2.0,0.0,6.0,6.0,586.4163839996763,4.0,1.0,phase_2,go,400.0,300.0,1.0,,,,,,,,,white,triangle
0.0,1.0,1.0,0.0,6.0,6.0,520.6315679997715,4.0,1.0,phase_2,go,400.0,300.0,1.0,,,,,,,,,blue,cross
0.0,3.0,3.0,0.0,6.0,6.0,521.2343170005624,4.0,1.0,phase_2,go,400.0,300.0,1.0,,,,,,,,,green,hexagon
0.0,7.0,3.0,1.0,6.0,6.0,484.3023020002874,4.0,1.0,phase_2,go,400.0,300.0,1.0,,,,,,,,,yellow,flipped triangle
0.0,6.0,2.0,1.0,6.0,6.0,549.3218000001434,4.0,1.0,phase_2,go,400.0,300.0,1.0,,,,,,,,,magenta,circle
0.0,4.0,4.0,0.0,5.0,5.0,381.6614190000109,4.0,1.0,phase_2,go,400.0,300.0,1.0,,,,,,,,,cyan,square
0.0,1.0,1.0,0.0,5.0,5.0,419.526530999974,4.0,1.0,phase_2,go,400.0,300.0,1.0,,,,,,,,,blue,cross
0.0,3.0,3.0,0.0,6.0,6.0,457.6935160002904,4.0,1.0,phase_2,go,400.0,300.0,1.0,,,,,,,,,green,hexagon
0.0,7.0,3.0,1.0,5.0,5.0,355.4264679996777,4.0,1.0,phase_2,go,400.0,300.0,1.0,,,,,,,,,yellow,flipped triangle
0.0,6.0,2.0,1.0,6.0,6.0,349.1867829998227,4.0,1.0,phase_2,stop,400.0,300.0,3.0,,,,,,,,,magenta,circle
0.0,5.0,1.0,1.0,5.0,5.0,511.9427210001959,4.0,1.0,phase_2,stop,400.0,250.0,3.0,,,,,,,,,orange,diamond
0.0,6.0,2.0,1.0,5.0,0.0,0.0,4.0,1.0,phase_2,stop,350.0,250.0,4.0,,,,,,,,,magenta,circle
0.0,3.0,3.0,0.0,6.0,6.0,556.9064370001797,4.0,1.0,phase_2,go,400.0,250.0,1.0,,,,,,,,,green,hexagon
0.0,3.0,3.0,0.0,5.0,5.0,528.1249749996277,4.0,1.0,phase_2,go,400.0,250.0,1.0,,,,,,,,,green,hexagon
0.0,2.0,2.0,0.0,6.0,6.0,530.3536969995548,4.0,1.0,phase_2,go,400.0,250.0,1.0,,,,,,,,,white,triangle
0.0,7.0,3.0,1.0,5.0,5.0,478.8885879997906,4.0,1.0,phase_2,stop,400.0,250.0,3.0,,,,,,,,,yellow,flipped triangle
0.0,4.0,4.0,0.0,6.0,6.0,661.117521000051,4.0,1.0,phase_2,go,350.0,250.0,1.0,,,,,,,,,cyan,square
0.0,3.0,3.0,0.0,6.0,6.0,549.9241779998556,4.0,1.0,phase_2,go,350.0,250.0,1.0,,,,,,,,,green,hexagon
0.0,6.0,2.0,1.0,5.0,0.0,0.0,4.0,1.0,phase_2,stop,350.0,250.0,4.0,,,,,,,,,magenta,circle
0.0,3.0,3.0,0.0,5.0,5.0,512.274334999347,4.0,1.0,phase_2,go,400.0,250.0,1.0,,,,,,,,,green,hexagon
0.0,7.0,3.0,1.0,5.0,5.0,537.4652840000635,4.0,1.0,phase_2,stop,400.0,250.0,3.0,,,,,,,,,yellow,flipped triangle
0.0,5.0,1.0,1.0,5.0,0.0,0.0,4.0,1.0,phase_2,stop,350.0,250.0,4.0,,,,,,,,,orange,diamond
0.0,5.0,1.0,1.0,6.0,0.0,0.0,4.0,1.0,phase_2,stop,400.0,250.0,4.0,,,,,,,,,orange,diamond
0.0,4.0,4.0,0.0,6.0,6.0,575.3149040001517,4.0,1.0,phase_2,go,400.0,300.0,1.0,,,,,,,,,cyan,square
0.0,5.0,1.0,1.0,5.0,5.0,501.00891400052205,4.0,1.0,phase_2,stop,400.0,300.0,3.0,,,,,,,,,orange,diamond
0.0,6.0,2.0,1.0,6.0,6.0,457.8968480000185,5.0,1.0,phase_2,go,350.0,300.0,1.0,,,,,,,,,magenta,circle
0.0,2.0,2.0,0.0,5.0,5.0,455.1385869999649,5.0,1.0,phase_2,go,350.0,300.0,1.0,,,,,,,,,white,triangle
0.0,5.0,1.0,1.0,6.0,6.0,390.8387310002581,5.0,1.0,phase_2,go,350.0,300.0,1.0,,,,,,,,,orange,diamond
0.0,5.0,1.0,1.0,5.0,5.0,373.5692370000834,5.0,1.0,phase_2,go,350.0,300.0,1.0,,,,,,,,,orange,diamond
0.0,5.0,1.0,1.0,5.0,5.0,391.642722999677,5.0,1.0,phase_2,stop,350.0,300.0,3.0,,,,,,,,,orange,diamond
0.0,8.0,4.0,1.0,5.0,5.0,477.1946359996946,5.0,1.0,phase_2,stop,300.0,300.0,3.0,,,,,,,,,gray,I
0.0,2.0,2.0,0.0,6.0,6.0,435.7769970001754,5.0,1.0,phase_2,go,250.0,300.0,1.0,,,,,,,,,white,triangle
0.0,3.0,3.0,0.0,5.0,5.0,520.6099499991979,5.0,1.0,phase_2,go,250.0,300.0,1.0,,,,,,,,,green,hexagon
0.0,6.0,2.0,1.0,6.0,0.0,0.0,5.0,1.0,phase_2,stop,250.0,300.0,4.0,,,,,,,,,magenta,circle
0.0,2.0,2.0,0.0,5.0,5.0,661.9811520004077,5.0,1.0,phase_2,go,250.0,350.0,1.0,,,,,,,,,white,triangle
0.0,4.0,4.0,0.0,5.0,5.0,593.7053340003331,5.0,1.0,phase_2,go,250.0,350.0,1.0,,,,,,,,,cyan,square
0.0,8.0,4.0,1.0,6.0,0.0,0.0,5.0,1.0,phase_2,stop,250.0,350.0,4.0,,,,,,,,,gray,I
0.0,6.0,2.0,1.0,5.0,5.0,523.0722710002738,5.0,1.0,phase_2,go,250.0,400.0,1.0,,,,,,,,,magenta,circle
0.0,2.0,2.0,0.0,5.0,5.0,579.0201720001278,5.0,1.0,phase_2,go,250.0,400.0,1.0,,,,,,,,,white,triangle
0.0,4.0,4.0,0.0,5.0,5.0,614.2569180001374,5.0,1.0,phase_2,go,250.0,400.0,1.0,,,,,,,,,cyan,square
0.0,6.0,2.0,1.0,6.0,6.0,492.8296749994842,5.0,1.0,phase_2,go,250.0,400.0,1.0,,,,,,,,,magenta,circle
0.0,3.0,3.0,0.0,6.0,6.0,381.0558300001503,5.0,1.0,phase_2,go,250.0,400.0,1.0,,,,,,,,,green,hexagon
0.0,5.0,1.0,1.0,5.0,0.0,0.0,5.0,1.0,phase_2,stop,250.0,400.0,4.0,,,,,,,,,orange,diamond
0.0,5.0,1.0,1.0,6.0,6.0,383.0636989996492,5.0,1.0,phase_2,stop,300.0,400.0,3.0,,,,,,,,,orange,diamond
0.0,5.0,1.0,1.0,5.0,0.0,0.0,5.0,1.0,phase_2,stop,300.0,350.0,4.0,,,,,,,,,orange,diamond
0.0,1.0,1.0,0.0,5.0,5.0,502.50182199943083,5.0,1.0,phase_2,go,350.0,350.0,1.0,,,,,,,,,blue,cross
0.0,7.0,3.0,1.0,6.0,0.0,0.0,5.0,1.0,phase_2,stop,350.0,350.0,4.0,,,,,,,,,yellow,flipped triangle
0.0,1.0,1.0,0.0,6.0,6.0,677.5240850001865,5.0,1.0,phase_2,go,350.0,400.0,1.0,,,,,,,,,blue,cross
0.0,4.0,4.0,0.0,6.0,6.0,631.5603820003162,5.0,1.0,phase_2,go,350.0,400.0,1.0,,,,,,,,,cyan,square
0.0,2.0,2.0,0.0,6.0,6.0,568.7725019997742,5.0,1.0,phase_2,go,350.0,400.0,1.0,,,,,,,,,white,triangle
0.0,7.0,3.0,1.0,6.0,0.0,0.0,5.0,1.0,phase_2,stop,350.0,400.0,4.0,,,,,,,,,yellow,flipped triangle
0.0,3.0,3.0,0.0,5.0,5.0,677.5984129999415,5.0,1.0,phase_2,go,350.0,450.0,1.0,,,,,,,,,green,hexagon
0.0,5.0,1.0,1.0,6.0,6.0,547.1305359997132,5.0,1.0,phase_2,stop,350.0,450.0,3.0,,,,,,,,,orange,diamond
0.0,3.0,3.0,0.0,5.0,5.0,651.1897550008143,5.0,1.0,phase_2,go,350.0,400.0,1.0,,,,,,,,,green,hexagon
0.0,8.0,4.0,1.0,5.0,0.0,0.0,5.0,1.0,phase_2,stop,350.0,400.0,4.0,,,,,,,,,gray,I
0.0,4.0,4.0,0.0,5.0,5.0,455.2132970002276,5.0,1.0,phase_2,go,400.0,400.0,1.0,,,,,,,,,cyan,square
0.0,2.0,2.0,0.0,6.0,6.0,577.2552440002983,5.0,1.0,phase_2,go,400.0,400.0,1.0,,,,,,,,,white,triangle
0.0,7.0,3.0,1.0,5.0,5.0,372.674549000294,5.0,1.0,phase_2,stop,400.0,400.0,3.0,,,,,,,,,yellow,flipped triangle
0.0,1.0,1.0,0.0,5.0,5.0,696.4474020005582,5.0,1.0,phase_2,go,350.0,400.0,1.0,,,,,,,,,blue,cross
0.0,4.0,4.0,0.0,5.0,5.0,558.4912100002839,5.0,1.0,phase_2,go,350.0,400.0,1.0,,,,,,,,,cyan,square
0.0,5.0,1.0,1.0,5.0,5.0,736.4374680000765,5.0,1.0,phase_2,go,350.0,400.0,1.0,,,,,,,,,orange,diamond
0.0,4.0,4.0,0.0,6.0,6.0,419.7939480000059,6.0,1.0,phase_2,go,350.0,400.0,1.0,,,,,,,,,cyan,square
0.0,8.0,4.0,1.0,6.0,6.0,530.837075000818,6.0,1.0,phase_2,stop,350.0,400.0,3.0,,,,,,,,,gray,I
0.0,6.0,2.0,1.0,6.0,0.0,0.0,6.0,1.0,phase_2,stop,350.0,350.0,4.0,,,,,,,,,magenta,circle
0.0,8.0,4.0,1.0,5.0,5.0,651.9319760000144,6.0,1.0,phase_2,go,350.0,400.0,1.0,,,,,,,,,gray,I
0.0,2.0,2.0,0.0,5.0,5.0,652.0249870000043,6.0,1.0,phase_2,go,350.0,400.0,1.0,,,,,,,,,white,triangle
0.0,1.0,1.0,0.0,6.0,6.0,705.4793440001959,6.0,1.0,phase_2,go,350.0,400.0,1.0,,,,,,,,,blue,cross
0.0,3.0,3.0,0.0,5.0,5.0,511.3671389999581,6.0,1.0,phase_2,go,350.0,400.0,1.0,,,,,,,,,green,hexagon
0.0,4.0,4.0,0.0,6.0,6.0,530.7357570000022,6.0,1.0,phase_2,go,350.0,400.0,1.0,,,,,,,,,cyan,square
0.0,1.0,1.0,0.0,5.0,5.0,428.8078259996837,6.0,1.0,phase_2,go,350.0,400.0,1.0,,,,,,,,,blue,cross
0.0,6.0,2.0,1.0,6.0,6.0,364.478593000058,6.0,1.0,phase_2,stop,350.0,400.0,3.0,,,,,,,,,magenta,circle
0.0,3.0,3.0,0.0,6.0,6.0,512.6589010005773,6.0,1.0,phase_2,go,350.0,350.0,1.0,,,,,,,,,green,hexagon
0.0,6.0,2.0,1.0,6.0,6.0,717.8022620000775,6.0,1.0,phase_2,go,350.0,350.0,1.0,,,,,,,,,magenta,circle
0.0,7.0,3.0,1.0,6.0,0.0,0.0,6.0,1.0,phase_2,stop,350.0,350.0,4.0,,,,,,,,,yellow,flipped triangle
0.0,4.0,4.0,0.0,6.0,6.0,558.0764689993885,6.0,1.0,phase_2,go,350.0,400.0,1.0,,,,,,,,,cyan,square
0.0,1.0,1.0,0.0,5.0,5.0,557.6166660002855,6.0,1.0,phase_2,go,350.0,400.0,1.0,,,,,,,,,blue,cross
0.0,1.0,1.0,0.0,5.0,5.0,604.762154999662,6.0,1.0,phase_2,go,350.0,400.0,1.0,,,,,,,,,blue,cross
0.0,1.0,1.0,0.0,5.0,5.0,420.29258700040367,6.0,1.0,phase_2,go,350.0,400.0,1.0,,,,,,,,,blue,cross
0.0,7.0,3.0,1.0,5.0,5.0,501.18043000020407,6.0,1.0,phase_2,stop,350.0,400.0,3.0,,,,,,,,,yellow,flipped triangle
0.0,4.0,4.0,0.0,6.0,6.0,345.0034130000858,6.0,1.0,phase_2,go,300.0,400.0,1.0,,,,,,,,,cyan,square
0.0,5.0,1.0,1.0,5.0,5.0,605.0193179999042,6.0,1.0,phase_2,go,300.0,400.0,1.0,,,,,,,,,orange,diamond
0.0,1.0,1.0,0.0,5.0,5.0,670.513303000007,6.0,1.0,phase_2,go,300.0,400.0,1.0,,,,,,,,,blue,cross
0.0,5.0,1.0,1.0,6.0,0.0,0.0,6.0,1.0,phase_2,stop,300.0,400.0,4.0,,,,,,,,,orange,diamond
0.0,3.0,3.0,0.0,6.0,6.0,586.551209999925,6.0,1.0,phase_2,go,300.0,450.0,1.0,,,,,,,,,green,hexagon
0.0,2.0,2.0,0.0,6.0,6.0,957.0689900001526,6.0,1.0,phase_2,go,300.0,450.0,1.0,,,,,,,,,white,triangle
0.0,5.0,1.0,1.0,5.0,0.0,0.0,6.0,1.0,phase_2,stop,300.0,450.0,4.0,,,,,,,,,orange,diamond
0.0,5.0,1.0,1.0,5.0,0.0,0.0,6.0,1.0,phase_2,stop,350.0,450.0,4.0,,,,,,,,,orange,diamond
0.0,8.0,4.0,1.0,5.0,0.0,0.0,6.0,1.0,phase_2,stop,400.0,450.0,4.0,,,,,,,,,gray,I
0.0,2.0,2.0,0.0,6.0,6.0,540.1342160002969,6.0,1.0,phase_2,go,450.0,450.0,1.0,,,,,,,,,white,triangle
0.0,6.0,2.0,1.0,6.0,0.0,0.0,6.0,1.0,phase_2,stop,450.0,450.0,4.0,,,,,,,,,magenta,circle
0.0,6.0,2.0,1.0,5.0,5.0,649.829301999489,6.0,1.0,phase_2,stop,450.0,500.0,3.0,,,,,,,,,magenta,circle
0.0,6.0,2.0,1.0,5.0,5.0,559.1482119998545,6.0,1.0,phase_2,stop,400.0,500.0,3.0,,,,,,,,,magenta,circle
0.0,3.0,3.0,0.0,5.0,5.0,743.5767379993194,6.0,1.0,phase_2,go,350.0,500.0,1.0,,,,,,,,,green,hexagon
0.0,4.0,4.0,0.0,6.0,6.0,587.0799929998611,6.0,1.0,phase_2,go,350.0,500.0,1.0,,,,,,,,,cyan,square
0.0,3.0,3.0,0.0,5.0,5.0,615.9458080001059,6.0,1.0,phase_2,go,350.0,500.0,1.0,,,,,,,,,green,hexagon
0.0,8.0,4.0,1.0,5.0,0.0,0.0,6.0,1.0,phase_2,stop,350.0,500.0,4.0,,,,,,,,,gray,I
0.0,2.0,2.0,0.0,5.0,5.0,605.877990999943,6.0,1.0,phase_2,go,400.0,500.0,1.0,,,,,,,,,white,triangle
0.0,7.0,3.0,1.0,6.0,6.0,926.8616339995788,7.0,1.0,phase_2,stop,400.0,500.0,3.0,,,,,,,,,yellow,flipped triangle
0.0,7.0,3.0,1.0,6.0,0.0,0.0,7.0,1.0,phase_2,stop,400.0,450.0,4.0,,,,,,,,,yellow,flipped triangle
0.0,1.0,1.0,0.0,6.0,6.0,548.2662620006522,7.0,1.0,phase_2,go,400.0,500.0,1.0,,,,,,,,,blue,cross
0.0,2.0,2.0,0.0,6.0,6.0,605.2910449998308,7.0,1.0,phase_2,go,400.0,500.0,1.0,,,,,,,,,white,triangle
0.0,2.0,2.0,0.0,5.0,5.0,631.1681340002906,7.0,1.0,phase_2,go,400.0,500.0,1.0,,,,,,,,,white,triangle
0.0,7.0,3.0,1.0,6.0,6.0,574.2260839997471,7.0,1.0,phase_2,stop,400.0,500.0,3.0,,,,,,,,,yellow,flipped triangle
0.0,7.0,3.0,1.0,5.0,5.0,585.0316149999344,7.0,1.0,phase_2,stop,400.0,450.0,3.0,,,,,,,,,yellow,flipped triangle
0.0,1.0,1.0,0.0,6.0,6.0,707.1525629999087,7.0,1.0,phase_2,go,350.0,450.0,1.0,,,,,,,,,blue,cross
0.0,4.0,4.0,0.0,5.0,5.0,565.5876299997544,7.0,1.0,phase_2,go,350.0,450.0,1.0,,,,,,,,,cyan,square
0.0,2.0,2.0,0.0,5.0,5.0,548.5738760007735,7.0,1.0,phase_2,go,350.0,450.0,1.0,,,,,,,,,white,triangle
0.0,3.0,3.0,0.0,6.0,6.0,512.0561829999133,7.0,1.0,phase_2,go,350.0,450.0,1.0,,,,,,,,,green,hexagon
0.0,8.0,4.0,1.0,5.0,0.0,0.0,7.0,1.0,phase_2,stop,350.0,450.0,4.0,,,,,,,,,gray,I
0.0,8.0,4.0,1.0,5.0,0.0,0.0,7.0,1.0,phase_2,stop,400.0,450.0,4.0,,,,,,,,,gray,I
0.0,8.0,4.0,1.0,6.0,0.0,0.0,7.0,1.0,phase_2,stop,450.0,450.0,4.0,,,,,,,,,gray,I
0.0,2.0,2.0,0.0,6.0,6.0,604.9500010003612,7.0,1.0,phase_2,go,450.0,500.0,1.0,,,,,,,,,white,triangle
0.0,6.0,2.0,1.0,6.0,0.0,0.0,7.0,1.0,phase_2,stop,450.0,500.0,4.0,,,,,,,,,magenta,circle
0.0,3.0,3.0,0.0,5.0,5.0,772.5065399999949,7.0,1.0,phase_2,go,450.0,550.0,1.0,,,,,,,,,green,hexagon
0.0,1.0,1.0,0.0,5.0,5.0,559.4349430002694,7.0,1.0,phase_2,go,450.0,550.0,1.0,,,,,,,,,blue,cross
0.0,8.0,4.0,1.0,6.0,6.0,827.0242850003342,7.0,1.0,phase_2,go,450.0,550.0,1.0,,,,,,,,,gray,I
0.0,3.0,3.0,0.0,5.0,5.0,568.7437769993267,7.0,1.0,phase_2,go,450.0,550.0,1.0,,,,,,,,,green,hexagon
0.0,8.0,4.0,1.0,5.0,5.0,605.6176170004619,7.0,1.0,phase_2,stop,450.0,550.0,3.0,,,,,,,,,gray,I
0.0,5.0,1.0,1.0,6.0,6.0,687.2257400000308,7.0,1.0,phase_2,stop,400.0,550.0,3.0,,,,,,,,,orange,diamond
0.0,2.0,2.0,0.0,6.0,6.0,714.6766309997474,7.0,1.0,phase_2,go,400.0,500.0,1.0,,,,,,,,,white,triangle
0.0,2.0,2.0,0.0,5.0,5.0,826.4221310000721,7.0,1.0,phase_2,go,400.0,500.0,1.0,,,,,,,,,white,triangle
0.0,6.0,2.0,1.0,6.0,6.0,734.4719310003711,7.0,1.0,phase_2,go,400.0,500.0,1.0,,,,,,,,,magenta,circle
0.0,5.0,1.0,1.0,5.0,0.0,0.0,7.0,1.0,phase_2,stop,400.0,500.0,4.0,,,,,,,,,orange,diamond
0.0,4.0,4.0,0.0,6.0,6.0,762.0079029993576,7.0,1.0,phase_2,go,450.0,500.0,1.0,,,,,,,,,cyan,square
0.0,5.0,1.0,1.0,6.0,0.0,0.0,7.0,1.0,phase_2,stop,450.0,500.0,4.0,,,,,,,,,orange,diamond
0.0,8.0,4.0,1.0,6.0,0.0,0.0,7.0,1.0,phase_2,stop,450.0,550.0,4.0,,,,,,,,,gray,I
0.0,2.0,2.0,0.0,6.0,6.0,723.3109290000357,7.0,1.0,phase_2,go,450.0,600.0,1.0,,,,,,,,,white,triangle
0.0,6.0,2.0,1.0,5.0,0.0,0.0,7.0,1.0,phase_2,stop,450.0,600.0,4.0,,,,,,,,,magenta,circle
0.0,8.0,4.0,1.0,6.0,6.0,745.1628620001429,7.0,1.0,phase_2,stop,500.0,600.0,3.0,,,,,,,,,gray,I
0.0,7.0,3.0,1.0,6.0,0.0,0.0,7.0,1.0,phase_2,stop,500.0,550.0,4.0,,,,,,,,,yellow,flipped triangle
0.0,4.0,4.0,0.0,5.0,5.0,815.9548069997982,7.0,1.0,phase_2,go,500.0,600.0,1.0,,,,,,,,,cyan,square
0.0,2.0,2.0,0.0,5.0,5.0,596.2160810004207,7.0,1.0,phase_2,go,500.0,600.0,1.0,,,,,,,,,white,triangle
0.0,8.0,4.0,1.0,6.0,6.0,741.7117459999645,7.0,1.0,phase_2,go,500.0,600.0,1.0,,,,,,,,,gray,I
0.0,4.0,4.0,0.0,5.0,5.0,418.6783200002537,8.0,1.0,phase_2,go,500.0,600.0,1.0,,,,,,,,,cyan,square
0.0,8.0,4.0,1.0,5.0,5.0,472.5180259993067,8.0,1.0,phase_2,go,500.0,600.0,1.0,,,,,,,,,gray,I
0.0,1.0,1.0,0.0,5.0,5.0,297.9327169996395,8.0,1.0,phase_2,go,500.0,600.0,1.0,,,,,,,,,blue,cross
0.0,2.0,2.0,0.0,6.0,6.0,317.3243119999824,8.0,1.0,phase_2,go,500.0,600.0,1.0,,,,,,,,,white,triangle
0.0,5.0,1.0,1.0,6.0,6.0,408.192121999491,8.0,1.0,phase_2,stop,500.0,600.0,3.0,,,,,,,,,orange,diamond
0.0,7.0,3.0,1.0,5.0,5.0,296.7310029998771,8.0,1.0,phase_2,go,500.0,550.0,1.0,,,,,,,,,yellow,flipped triangle
0.0,6.0,2.0,1.0,6.0,6.0,363.5502279994398,8.0,1.0,phase_2,stop,500.0,550.0,3.0,,,,,,,,,magenta,circle
0.0,5.0,1.0,1.0,6.0,6.0,491.7889569996987,8.0,1.0,phase_2,stop,500.0,500.0,3.0,,,,,,,,,orange,diamond
0.0,4.0,4.0,0.0,6.0,6.0,595.9005539998543,8.0,1.0,phase_2,go,500.0,450.0,1.0,,,,,,,,,cyan,square
0.0,6.0,2.0,1.0,5.0,5.0,577.5539650003338,8.0,1.0,phase_2,stop,500.0,450.0,3.0,,,,,,,,,magenta,circle
0.0,3.0,3.0,0.0,5.0,5.0,530.9521270000914,8.0,1.0,phase_2,go,450.0,450.0,1.0,,,,,,,,,green,hexagon
0.0,1.0,1.0,0.0,5.0,5.0,400.5615489995762,8.0,1.0,phase_2,go,450.0,450.0,1.0,,,,,,,,,blue,cross
0.0,3.0,3.0,0.0,5.0,5.0,326.6671680003128,8.0,1.0,phase_2,go,450.0,450.0,1.0,,,,,,,,,green,hexagon
0.0,6.0,2.0,1.0,6.0,6.0,343.9936449995002,8.0,1.0,phase_2,stop,450.0,450.0,3.0,,,,,,,,,magenta,circle
0.0,6.0,2.0,1.0,5.0,5.0,325.8081840003797,8.0,1.0,phase_2,stop,450.0,400.0,3.0,,,,,,,,,magenta,circle
0.0,4.0,4.0,0.0,6.0,6.0,314.6669449997716,8.0,1.0,phase_2,go,400.0,400.0,1.0,,,,,,,,,cyan,square
0.0,7.0,3.0,1.0,5.0,5.0,390.6029059999127,8.0,1.0,phase_2,stop,400.0,400.0,3.0,,,,,,,,,yellow,flipped triangle
0.0,3.0,3.0,0.0,5.0,5.0,530.4334669999662,8.0,1.0,phase_2,go,350.0,400.0,1.0,,,,,,,,,green,hexagon
0.0,3.0,3.0,0.0,6.0,6.0,612.9138369997236,8.0,1.0,phase_2,go,350.0,400.0,1.0,,,,,,,,,green,hexagon
0.0,1.0,1.0,0.0,6.0,6.0,325.4246940005032,8.0,1.0,phase_2,go,350.0,400.0,1.0,,,,,,,,,blue,cross
0.0,3.0,3.0,0.0,5.0,5.0,483.9323989999684,8.0,1.0,phase_2,go,350.0,400.0,1.0,,,,,,,,,green,hexagon
0.0,2.0,2.0,0.0,6.0,6.0,325.5955089998679,8.0,1.0,phase_2,go,350.0,400.0,1.0,,,,,,,,,white,triangle
0.0,5.0,1.0,1.0,6.0,6.0,526.9244410001193,8.0,1.0,phase_2,stop,350.0,400.0,3.0,,,,,,,,,orange,diamond
0.0,1.0,1.0,0.0,5.0,5.0,633.0661490001148,8.0,1.0,phase_2,go,350.0,350.0,1.0,,,,,,,,,blue,cross
0.0,7.0,3.0,1.0,6.0,6.0,345.206988999962,8.0,1.0,phase_2,stop,350.0,350.0,3.0,,,,,,,,,yellow,flipped triangle
0.0,1.0,1.0,0.0,6.0,6.0,343.8055229999008,8.0,1.0,phase_2,go,350.0,300.0,1.0,,,,,,,,,blue,cross
0.0,3.0,3.0,0.0,6.0,6.0,493.6135369998737,8.0,1.0,phase_2,go,350.0,300.0,1.0,,,,,,,,,green,hexagon
0.0,3.0,3.0,0.0,6.0,6.0,607.0819670003402,8.0,1.0,phase_2,go,350.0,300.0,1.0,,,,,,,,,green,hexagon
0.0,7.0,3.0,1.0,6.0,0.0,0.0,8.0,1.0,phase_2,stop,350.0,300.0,4.0,,,,,,,,,yellow,flipped triangle
0.0,4.0,4.0,0.0,5.0,5.0,530.9844350003914,8.0,1.0,phase_2,go,350.0,350.0,1.0,,,,,,,,,cyan,square
0.0,6.0,2.0,1.0,5.0,5.0,595.7482609992439,8.0,1.0,phase_2,go,350.0,350.0,1.0,,,,,,,,,magenta,circle
0.0,7.0,3.0,1.0,6.0,0.0,0.0,8.0,1.0,phase_2,stop,350.0,350.0,4.0,,,,,,,,,yellow,flipped triangle
0.0,4.0,4.0,0.0,6.0,6.0,568.3891529997709,8.0,1.0,phase_2,go,350.0,400.0,1.0,,,,,,,,,cyan,square
0.0,5.0,1.0,1.0,6.0,0.0,0.0,8.0,1.0,phase_2,stop,350.0,400.0,4.0,,,,,,,,,orange,diamond
0.0,4.0,4.0,0.0,6.0,6.0,407.9776290000154,8.0,1.0,phase_2,go,350.0,450.0,1.0,,,,,,,,,cyan,square
0.0,2.0,2.0,0.0,6.0,6.0,511.4047639999626,8.0,1.0,phase_2,go,350.0,450.0,1.0,,,,,,,,,white,triangle
0.0,3.0,3.0,0.0,7.0,6.0,1767.132478998974,1.0,1.0,phase_3,,,,,580.0,5.0,696.0,464.0,116.0,348.0,232.0,580.0,green,hexagon
0.0,3.0,3.0,0.0,7.0,2.0,2449.533971999699,1.0,1.0,phase_3,,,,,519.0,3.0,692.0,519.0,346.0,1038.0,865.0,173.0,green,hexagon
0.0,5.0,1.0,1.0,7.0,5.0,1397.858543999973,1.0,1.0,phase_3,,,,,519.0,3.0,346.0,1038.0,865.0,173.0,519.0,692.0,orange,diamond
0.0,8.0,4.0,1.0,7.0,4.0,1850.108545000694,1.0,1.0,phase_3,,,,,770.0,5.0,154.0,616.0,308.0,770.0,924.0,462.0,gray,I
0.0,7.0,3.0,1.0,7.0,3.0,2025.5941750001512,1.0,1.0,phase_3,,,,,346.0,2.0,173.0,865.0,346.0,692.0,1038.0,519.0,yellow,flipped triangle
0.0,4.0,4.0,0.0,7.0,5.0,2625.1936700009537,1.0,1.0,phase_3,,,,,696.0,6.0,580.0,348.0,232.0,116.0,696.0,464.0,cyan,square
0.0,3.0,3.0,0.0,7.0,4.0,2484.617770000113,1.0,1.0,phase_3,,,,,696.0,6.0,464.0,232.0,348.0,696.0,116.0,580.0,green,hexagon
0.0,2.0,2.0,0.0,7.0,2.0,3910.102498000924,1.0,1.0,phase_3,,,,,154.0,1.0,462.0,154.0,616.0,308.0,770.0,924.0,white,triangle
0.0,1.0,1.0,0.0,7.0,2.0,2328.4421560001647,1.0,1.0,phase_3,,,,,616.0,4.0,924.0,616.0,308.0,770.0,154.0,462.0,blue,cross
0.0,5.0,1.0,1.0,7.0,6.0,2562.721447000513,1.0,1.0,phase_3,,,,,384.0,2.0,192.0,768.0,576.0,960.0,1152.0,384.0,orange,diamond
0.0,2.0,2.0,0.0,7.0,1.0,2188.9525610004057,1.0,1.0,phase_3,,,,,232.0,2.0,232.0,580.0,348.0,116.0,464.0,696.0,white,triangle
0.0,7.0,3.0,1.0,7.0,1.0,3757.187234999946,1.0,1.0,phase_3,,,,,576.0,3.0,576.0,192.0,1152.0,768.0,384.0,960.0,yellow,flipped triangle
0.0,2.0,2.0,0.0,7.0,5.0,1811.4638490005743,1.0,1.0,phase_3,,,,,270.0,2.0,810.0,540.0,675.0,135.0,270.0,405.0,white,triangle
0.0,4.0,4.0,0.0,7.0,2.0,4222.108383999512,1.0,1.0,phase_3,,,,,865.0,5.0,1038.0,865.0,692.0,519.0,346.0,173.0,cyan,square
0.0,5.0,1.0,1.0,7.0,4.0,2637.174515000879,1.0,1.0,phase_3,,,,,576.0,3.0,768.0,960.0,384.0,576.0,192.0,1152.0,orange,diamond
0.0,2.0,2.0,0.0,7.0,5.0,3966.857995999817,1.0,1.0,phase_3,,,,,173.0,1.0,865.0,692.0,519.0,346.0,173.0,1038.0,white,triangle
0.0,4.0,4.0,0.0,7.0,2.0,2856.085114999587,1.0,1.0,phase_3,,,,,865.0,5.0,173.0,865.0,692.0,1038.0,519.0,346.0,cyan,square
0.0,3.0,3.0,0.0,7.0,2.0,3387.9858769996645,1.0,1.0,phase_3,,,,,768.0,4.0,192.0,768.0,960.0,576.0,384.0,1152.0,green,hexagon
0.0,8.0,4.0,1.0,7.0,5.0,1622.9864249999082,1.0,1.0,phase_3,,,,,580.0,5.0,464.0,348.0,232.0,116.0,580.0,696.0,gray,I
0.0,5.0,1.0,1.0,7.0,3.0,1568.7091459985822,1.0,1.0,phase_3,,,,,308.0,2.0,462.0,770.0,308.0,154.0,924.0,616.0,orange,diamond
0.0,5.0,1.0,1.0,7.0,4.0,1842.6925460007624,2.0,1.0,phase_3,,,,,462.0,3.0,616.0,924.0,308.0,462.0,154.0,770.0,orange,diamond
0.0,2.0,2.0,0.0,7.0,6.0,2689.0936859999783,2.0,1.0,phase_3,,,,,308.0,2.0,616.0,462.0,924.0,770.0,154.0,308.0,white,triangle
0.0,7.0,3.0,1.0,7.0,5.0,2205.5767890014977,2.0,1.0,phase_3,,,,,232.0,2.0,116.0,464.0,580.0,696.0,232.0,348.0,yellow,flipped triangle
0.0,8.0,4.0,1.0,7.0,5.0,2155.513881998558,2.0,1.0,phase_3,,,,,675.0,5.0,405.0,540.0,810.0,135.0,675.0,270.0,gray,I
0.0,6.0,2.0,1.0,7.0,6.0,1551.8677349991776,2.0,1.0,phase_3,,,,,116.0,1.0,348.0,464.0,232.0,580.0,696.0,116.0,magenta,circle
0.0,5.0,1.0,1.0,7.0,4.0,1374.4685320016288,2.0,1.0,phase_3,,,,,405.0,3.0,270.0,135.0,810.0,405.0,540.0,675.0,orange,diamond
0.0,1.0,1.0,0.0,7.0,1.0,3787.062997000248,2.0,1.0,phase_3,,,,,576.0,3.0,576.0,960.0,384.0,192.0,1152.0,768.0,blue,cross
0.0,4.0,4.0,0.0,7.0,1.0,2988.810631000888,2.0,1.0,phase_3,,,,,924.0,6.0,924.0,616.0,308.0,154.0,770.0,462.0,cyan,square
0.0,7.0,3.0,1.0,7.0,6.0,2803.07291400095,2.0,1.0,phase_3,,,,,308.0,2.0,616.0,462.0,924.0,154.0,770.0,308.0,yellow,flipped triangle
0.0,2.0,2.0,0.0,7.0,4.0,2637.16269500037,2.0,1.0,phase_3,,,,,270.0,2.0,810.0,675.0,540.0,270.0,405.0,135.0,white,triangle
0.0,8.0,4.0,1.0,7.0,4.0,2439.543942000455,2.0,1.0,phase_3,,,,,576.0,3.0,192.0,384.0,768.0,576.0,1152.0,960.0,gray,I
0.0,6.0,2.0,1.0,7.0,5.0,2543.6956720004678,2.0,1.0,phase_3,,,,,154.0,1.0,616.0,462.0,770.0,924.0,154.0,308.0,magenta,circle
0.0,8.0,4.0,1.0,7.0,6.0,3179.2142999984208,2.0,1.0,phase_3,,,,,768.0,4.0,576.0,384.0,192.0,960.0,1152.0,768.0,gray,I
0.0,3.0,3.0,0.0,7.0,6.0,3242.458106999038,2.0,1.0,phase_3,,,,,924.0,6.0,462.0,308.0,770.0,154.0,616.0,924.0,green,hexagon
0.0,5.0,1.0,1.0,7.0,3.0,1462.3980739997933,2.0,1.0,phase_3,,,,,580.0,5.0,116.0,232.0,580.0,464.0,696.0,348.0,orange,diamond
0.0,8.0,4.0,1.0,7.0,3.0,3254.599809000865,2.0,1.0,phase_3,,,,,519.0,3.0,173.0,865.0,519.0,692.0,1038.0,346.0,gray,I
0.0,5.0,1.0,1.0,7.0,5.0,1933.951810000508,2.0,1.0,phase_3,,,,,405.0,3.0,540.0,810.0,675.0,270.0,405.0,135.0,orange,diamond
0.0,1.0,1.0,0.0,7.0,3.0,1709.936059998654,2.0,1.0,phase_3,,,,,675.0,5.0,405.0,540.0,675.0,135.0,810.0,270.0,blue,cross
0.0,8.0,4.0,1.0,7.0,5.0,2089.335437000045,2.0,1.0,phase_3,,,,,580.0,5.0,696.0,116.0,464.0,232.0,580.0,348.0,gray,I
0.0,1.0,1.0,0.0,7.0,3.0,1661.6854690000764,2.0,1.0,phase_3,,,,,540.0,4.0,135.0,675.0,540.0,270.0,810.0,405.0,blue,cross
0.0,4.0,4.0,0.0,7.0,4.0,2475.433185998554,3.0,1.0,phase_3,,,,,810.0,6.0,405.0,270.0,675.0,810.0,540.0,135.0,cyan,square
0.0,3.0,3.0,0.0,7.0,2.0,3761.8468959990414,3.0,1.0,phase_3,,,,,960.0,5.0,576.0,960.0,192.0,1152.0,384.0,768.0,green,hexagon
0.0,6.0,2.0,1.0,7.0,4.0,2183.650360000684,3.0,1.0,phase_3,,,,,192.0,1.0,1152.0,768.0,384.0,192.0,576.0,960.0,magenta,circle
0.0,3.0,3.0,0.0,7.0,5.0,2900.87199500158,3.0,1.0,phase_3,,,,,540.0,4.0,810.0,405.0,135.0,270.0,540.0,675.0,green,hexagon
0.0,7.0,3.0,1.0,7.0,2.0,2730.1788160002616,3.0,1.0,phase_3,,,,,308.0,2.0,770.0,308.0,616.0,462.0,154.0,924.0,yellow,flipped triangle
0.0,6.0,2.0,1.0,7.0,5.0,2333.213832000183,3.0,1.0,phase_3,,,,,192.0,1.0,1152.0,960.0,384.0,576.0,192.0,768.0,magenta,circle
0.0,6.0,2.0,1.0,7.0,3.0,1811.659235998377,3.0,1.0,phase_3,,,,,154.0,1.0,924.0,770.0,154.0,616.0,462.0,308.0,magenta,circle
0.0,6.0,2.0,1.0,7.0,3.0,1249.546412998825,3.0,1.0,phase_3,,,,,173.0,1.0,865.0,346.0,173.0,1038.0,519.0,692.0,magenta,circle
0.0,5.0,1.0,1.0,7.0,4.0,2335.2805499998794,3.0,1.0,phase_3,,,,,464.0,4.0,232.0,348.0,116.0,464.0,580.0,696.0,orange,diamond
0.0,1.0,1.0,0.0,7.0,6.0,3043.3242240014806,3.0,1.0,phase_3,,,,,519.0,3.0,173.0,865.0,692.0,346.0,1038.0,519.0,blue,cross
0.0,2.0,2.0,0.0,7.0,5.0,3162.418299001729,3.0,1.0,phase_3,,,,,232.0,2.0,116.0,696.0,348.0,464.0,232.0,580.0,white,triangle
0.0,8.0,4.0,1.0,7.0,6.0,3964.182825000535,3.0,1.0,phase_3,,,,,616.0,4.0,924.0,308.0,770.0,462.0,154.0,616.0,gray,I
0.0,1.0,1.0,0.0,7.0,1.0,2781.034342999192,3.0,1.0,phase_3,,,,,519.0,3.0,519.0,346.0,173.0,865.0,692.0,1038.0,blue,cross
0.0,1.0,1.0,0.0,7.0,2.0,1893.5604500002228,3.0,1.0,phase_3,,,,,580.0,5.0,348.0,580.0,696.0,464.0,232.0,116.0,blue,cross
0.0,8.0,4.0,1.0,7.0,3.0,1747.9168889985883,3.0,1.0,phase_3,,,,,519.0,3.0,173.0,346.0,519.0,1038.0,865.0,692.0,gray,I
0.0,4.0,4.0,0.0,7.0,1.0,2624.1350910004257,3.0,1.0,phase_3,,,,,810.0,6.0,810.0,270.0,675.0,405.0,540.0,135.0,cyan,square
0.0,3.0,3.0,0.0,7.0,5.0,2039.2367500007822,3.0,1.0,phase_3,,,,,692.0,4.0,519.0,865.0,173.0,346.0,692.0,1038.0,green,hexagon
0.0,4.0,4.0,0.0,7.0,6.0,2609.809457000665,3.0,1.0,phase_3,,,,,696.0,6.0,232.0,580.0,348.0,116.0,464.0,696.0,cyan,square
0.0,1.0,1.0,0.0,7.0,3.0,2012.280457000088,3.0,1.0,phase_3,,,,,576.0,3.0,384.0,768.0,576.0,1152.0,960.0,192.0,blue,cross
0.0,3.0,3.0,0.0,7.0,3.0,1996.519296999395,3.0,1.0,phase_3,,,,,616.0,4.0,462.0,154.0,616.0,770.0,308.0,924.0,green,hexagon
0.0,2.0,2.0,0.0,7.0,3.0,2885.75721900088,4.0,1.0,phase_3,,,,,192.0,1.0,1152.0,960.0,192.0,576.0,768.0,384.0,white,triangle
0.0,7.0,3.0,1.0,7.0,5.0,2526.4196490006725,4.0,1.0,phase_3,,,,,270.0,2.0,810.0,135.0,405.0,675.0,270.0,540.0,yellow,flipped triangle
0.0,7.0,3.0,1.0,7.0,3.0,3584.613131000878,4.0,1.0,phase_3,,,,,232.0,2.0,464.0,580.0,232.0,696.0,116.0,348.0,yellow,flipped triangle
0.0,1.0,1.0,0.0,7.0,1.0,3328.922466000222,4.0,1.0,phase_3,,,,,462.0,3.0,462.0,154.0,770.0,924.0,616.0,308.0,blue,cross
0.0,7.0,3.0,1.0,7.0,3.0,2444.386879000376,4.0,1.0,phase_3,,,,,270.0,2.0,675.0,540.0,270.0,810.0,405.0,135.0,yellow,flipped triangle
0.0,2.0,2.0,0.0,7.0,4.0,2600.010569000005,4.0,1.0,phase_3,,,,,173.0,1.0,1038.0,692.0,346.0,173.0,519.0,865.0,white,triangle
0.0,4.0,4.0,0.0,7.0,1.0,1560.9463910004706,4.0,1.0,phase_3,,,,,924.0,6.0,924.0,462.0,616.0,308.0,770.0,154.0,cyan,square
0.0,2.0,2.0,0.0,7.0,1.0,3957.768379999834,4.0,1.0,phase_3,,,,,192.0,1.0,192.0,768.0,384.0,960.0,576.0,1152.0,white,triangle
0.0,1.0,1.0,0.0,7.0,2.0,1266.2685019986384,4.0,1.0,phase_3,,,,,580.0,5.0,116.0,580.0,232.0,348.0,464.0,696.0,blue,cross
0.0,6.0,2.0,1.0,7.0,4.0,1803.1145240001931,4.0,1.0,phase_3,,,,,116.0,1.0,696.0,580.0,464.0,116.0,348.0,232.0,magenta,circle
0.0,6.0,2.0,1.0,7.0,1.0,2275.375420000273,4.0,1.0,phase_3,,,,,135.0,1.0,135.0,270.0,810.0,405.0,540.0,675.0,magenta,circle
0.0,7.0,3.0,1.0,7.0,2.0,3345.847231001244,4.0,1.0,phase_3,,,,,346.0,2.0,173.0,346.0,1038.0,865.0,692.0,519.0,yellow,flipped triangle
0.0,6.0,2.0,1.0,7.0,5.0,1738.637304000804,4.0,1.0,phase_3,,,,,173.0,1.0,346.0,519.0,1038.0,692.0,173.0,865.0,magenta,circle
0.0,8.0,4.0,1.0,7.0,5.0,1728.1598560002749,4.0,1.0,phase_3,,,,,405.0,3.0,675.0,135.0,270.0,810.0,405.0,540.0,gray,I
0.0,4.0,4.0,0.0,7.0,6.0,2419.421918999433,4.0,1.0,phase_3,,,,,1152.0,6.0,192.0,384.0,960.0,768.0,576.0,1152.0,cyan,square
0.0,6.0,2.0,1.0,7.0,6.0,3640.1461850000487,4.0,1.0,phase_3,,,,,135.0,1.0,675.0,540.0,405.0,810.0,270.0,135.0,magenta,circle
0.0,7.0,3.0,1.0,7.0,4.0,1508.8520999997854,4.0,1.0,phase_3,,,,,384.0,2.0,192.0,768.0,1152.0,384.0,960.0,576.0,yellow,flipped triangle
0.0,4.0,4.0,0.0,7.0,4.0,1797.21185499875,4.0,1.0,phase_3,,,,,1152.0,6.0,768.0,192.0,576.0,1152.0,960.0,384.0,cyan,square
0.0,3.0,3.0,0.0,7.0,3.0,2736.392859000261,4.0,1.0,phase_3,,,,,675.0,5.0,135.0,810.0,675.0,540.0,405.0,270.0,green,hexagon
0.0,5.0,1.0,1.0,7.0,4.0,1415.2027569998609,4.0,1.0,phase_3,,,,,692.0,4.0,173.0,1038.0,346.0,692.0,865.0,519.0,orange,diamond
