raw_reward_magnitude,stim_reward,stepwise_reward_magnitude,paired_with_stopping,stim_location,response,reaction_time,block,num_trial_presentations,which_phase,stop_signal_trial_type,left_SSD,right_SSD,accuracy,chosen_bidding_amount,chosen_bidding_level,possible_bid_1,possible_bid_2,possible_bid_3,possible_bid_4,possible_bid_5,possible_bid_6,color_text,shape_text
140.0,1.0,0.5,0.0,4.0,4.0,464.9780509998891,1.0,1.0,phase_1,,,,,,,,,,,,,blue,diamond
342.0,6.0,1.0,1.0,1.0,1.0,371.5318570002637,1.0,1.0,phase_1,,,,,,,,,,,,,yellow,triangle
635.0,3.0,2.0,0.0,2.0,2.0,428.9197510001941,1.0,1.0,phase_1,,,,,,,,,,,,,magenta,cross
0.0,7.0,0.0,1.0,1.0,1.0,447.1168899999611,1.0,1.0,phase_1,,,,,,,,,,,,,white,hexagon
0.0,6.0,0.0,1.0,3.0,3.0,375.8867589999681,1.0,1.0,phase_1,,,,,,,,,,,,,yellow,triangle
1288.0,4.0,4.0,0.0,3.0,3.0,316.3498730000356,1.0,1.0,phase_1,,,,,,,,,,,,,gray,square
1298.0,4.0,4.0,0.0,1.0,1.0,353.2889500002056,1.0,1.0,phase_1,,,,,,,,,,,,,gray,square
186.0,5.0,0.5,1.0,1.0,1.0,371.8212600001607,1.0,1.0,phase_1,,,,,,,,,,,,,green,flipped triangle
0.0,3.0,0.0,0.0,1.0,1.0,364.1447559998596,1.0,1.0,phase_1,,,,,,,,,,,,,magenta,cross
306.0,6.0,1.0,1.0,3.0,3.0,344.3769740001698,1.0,1.0,phase_1,,,,,,,,,,,,,yellow,triangle
0.0,3.0,0.0,0.0,2.0,2.0,438.1518229997709,1.0,1.0,phase_1,,,,,,,,,,,,,magenta,cross
0.0,4.0,0.0,0.0,2.0,2.0,427.2520539998368,1.0,2.0,phase_1,,,,,,,,,,,,,gray,square
1298.0,8.0,4.0,1.0,1.0,1.0,371.5787129999626,1.0,1.0,phase_1,,,,,,,,,,,,,cyan,I
0.0,8.0,0.0,1.0,1.0,1.0,381.6704380001283,1.0,1.0,phase_1,,,,,,,,,,,,,cyan,I
650.0,3.0,2.0,0.0,1.0,1.0,306.449910000083,1.0,1.0,phase_1,,,,,,,,,,,,,magenta,cross
0.0,5.0,0.0,1.0,4.0,4.0,381.7788339997605,1.0,1.0,phase_1,,,,,,,,,,,,,green,flipped triangle
1310.0,8.0,4.0,1.0,3.0,3.0,362.4748770002952,1.0,1.0,phase_1,,,,,,,,,,,,,cyan,I
168.0,5.0,0.5,1.0,2.0,2.0,316.629481000291,1.0,1.0,phase_1,,,,,,,,,,,,,green,flipped triangle
652.0,3.0,2.0,0.0,1.0,1.0,325.4605850002008,1.0,1.0,phase_1,,,,,,,,,,,,,magenta,cross
349.0,2.0,1.0,0.0,2.0,2.0,408.1843829999343,1.0,1.0,phase_1,,,,,,,,,,,,,orange,circle
1318.0,8.0,4.0,1.0,2.0,2.0,418.6598869996487,1.0,1.0,phase_1,,,,,,,,,,,,,cyan,I
1284.0,8.0,4.0,1.0,2.0,2.0,363.3404120000705,1.0,1.0,phase_1,,,,,,,,,,,,,cyan,I
330.0,2.0,1.0,0.0,2.0,2.0,363.4493980002844,1.0,1.0,phase_1,,,,,,,,,,,,,orange,circle
661.0,3.0,2.0,0.0,1.0,1.0,343.599968000035,1.0,1.0,phase_1,,,,,,,,,,,,,magenta,cross
0.0,4.0,0.0,0.0,2.0,2.0,333.9594789999864,1.0,1.0,phase_1,,,,,,,,,,,,,gray,square
165.0,5.0,0.5,1.0,4.0,4.0,371.6824709999855,1.0,1.0,phase_1,,,,,,,,,,,,,green,flipped triangle
161.0,1.0,0.5,0.0,1.0,1.0,539.2915200000061,1.0,1.0,phase_1,,,,,,,,,,,,,blue,diamond
635.0,3.0,2.0,0.0,2.0,2.0,390.5957829997533,1.0,1.0,phase_1,,,,,,,,,,,,,magenta,cross
0.0,6.0,0.0,1.0,4.0,4.0,363.0572269998993,1.0,1.0,phase_1,,,,,,,,,,,,,yellow,triangle
1324.0,4.0,4.0,0.0,3.0,3.0,344.2132370000763,1.0,1.0,phase_1,,,,,,,,,,,,,gray,square
659.0,7.0,2.0,1.0,3.0,3.0,362.7165349998904,1.0,1.0,phase_1,,,,,,,,,,,,,white,hexagon
168.0,1.0,0.5,0.0,3.0,3.0,343.858898000235,1.0,1.0,phase_1,,,,,,,,,,,,,blue,diamond
144.0,1.0,0.5,0.0,1.0,1.0,372.9287559999648,1.0,1.0,phase_1,,,,,,,,,,,,,blue,diamond
625.0,3.0,2.0,0.0,1.0,1.0,371.866123000018,1.0,1.0,phase_1,,,,,,,,,,,,,magenta,cross
663.0,3.0,2.0,0.0,4.0,4.0,334.410797000146,1.0,1.0,phase_1,,,,,,,,,,,,,magenta,cross
179.0,1.0,0.5,0.0,2.0,2.0,400.4031240001495,1.0,1.0,phase_1,,,,,,,,,,,,,blue,diamond
153.0,1.0,0.5,0.0,1.0,1.0,437.4634400001014,1.0,1.0,phase_1,,,,,,,,,,,,,blue,diamond
173.0,1.0,0.5,0.0,4.0,4.0,306.8882299999131,1.0,1.0,phase_1,,,,,,,,,,,,,blue,diamond
1305.0,8.0,4.0,1.0,1.0,1.0,409.9781520003489,1.0,1.0,phase_1,,,,,,,,,,,,,cyan,I
1324.0,8.0,4.0,1.0,3.0,3.0,372.2597289997793,1.0,1.0,phase_1,,,,,,,,,,,,,cyan,I
1288.0,4.0,4.0,0.0,3.0,3.0,381.8605989999923,1.0,1.0,phase_1,,,,,,,,,,,,,gray,square
629.0,7.0,2.0,1.0,4.0,4.0,344.9227460000656,1.0,1.0,phase_1,,,,,,,,,,,,,white,hexagon
143.0,5.0,0.5,1.0,2.0,2.0,307.051004999721,1.0,1.0,phase_1,,,,,,,,,,,,,green,flipped triangle
1313.0,8.0,4.0,1.0,1.0,1.0,354.6443600002931,1.0,1.0,phase_1,,,,,,,,,,,,,cyan,I
161.0,5.0,0.5,1.0,1.0,1.0,326.3301609999871,1.0,1.0,phase_1,,,,,,,,,,,,,green,flipped triangle
0.0,2.0,0.0,0.0,4.0,4.0,317.396529999769,1.0,1.0,phase_1,,,,,,,,,,,,,orange,circle
1310.0,4.0,4.0,0.0,3.0,3.0,353.2663279997905,1.0,1.0,phase_1,,,,,,,,,,,,,gray,square
643.0,3.0,2.0,0.0,2.0,2.0,409.7646769996572,1.0,1.0,phase_1,,,,,,,,,,,,,magenta,cross
0.0,1.0,0.0,0.0,4.0,4.0,362.3867520000203,1.0,1.0,phase_1,,,,,,,,,,,,,blue,diamond
652.0,7.0,2.0,1.0,3.0,3.0,372.2933459998785,1.0,1.0,phase_1,,,,,,,,,,,,,white,hexagon
1278.0,8.0,4.0,1.0,3.0,3.0,391.7799460000424,1.0,1.0,phase_1,,,,,,,,,,,,,cyan,I
340.0,6.0,1.0,1.0,2.0,2.0,362.5839080000332,1.0,1.0,phase_1,,,,,,,,,,,,,yellow,triangle
651.0,7.0,2.0,1.0,3.0,3.0,356.6389450002134,1.0,1.0,phase_1,,,,,,,,,,,,,white,hexagon
0.0,4.0,0.0,0.0,3.0,3.0,336.3791420001689,1.0,1.0,phase_1,,,,,,,,,,,,,gray,square
0.0,3.0,0.0,0.0,2.0,2.0,391.0672400002113,1.0,1.0,phase_1,,,,,,,,,,,,,magenta,cross
148.0,5.0,0.5,1.0,4.0,4.0,334.5405509999182,1.0,1.0,phase_1,,,,,,,,,,,,,green,flipped triangle
165.0,1.0,0.5,0.0,1.0,1.0,307.2322129996792,1.0,1.0,phase_1,,,,,,,,,,,,,blue,diamond
177.0,1.0,0.5,0.0,2.0,2.0,418.1595279997054,1.0,1.0,phase_1,,,,,,,,,,,,,blue,diamond
323.0,2.0,1.0,0.0,3.0,3.0,325.8171669999683,1.0,1.0,phase_1,,,,,,,,,,,,,orange,circle
148.0,1.0,0.5,0.0,2.0,2.0,464.7128040001007,1.0,2.0,phase_1,,,,,,,,,,,,,blue,diamond
675.0,3.0,2.0,0.0,1.0,1.0,362.7587360001598,1.0,1.0,phase_1,,,,,,,,,,,,,magenta,cross
675.0,3.0,2.0,0.0,2.0,2.0,464.5200370000566,1.0,1.0,phase_1,,,,,,,,,,,,,magenta,cross
1275.0,8.0,4.0,1.0,1.0,1.0,409.5525789998646,1.0,1.0,phase_1,,,,,,,,,,,,,cyan,I
668.0,7.0,2.0,1.0,4.0,4.0,353.4471130001293,1.0,1.0,phase_1,,,,,,,,,,,,,white,hexagon
1318.0,4.0,4.0,0.0,1.0,1.0,409.537526999884,1.0,1.0,phase_1,,,,,,,,,,,,,gray,square
649.0,7.0,2.0,1.0,4.0,4.0,361.2906349999321,1.0,1.0,phase_1,,,,,,,,,,,,,white,hexagon
0.0,7.0,0.0,1.0,3.0,3.0,391.6205709997484,1.0,1.0,phase_1,,,,,,,,,,,,,white,hexagon
1282.0,8.0,4.0,1.0,2.0,2.0,353.2795689998238,1.0,1.0,phase_1,,,,,,,,,,,,,cyan,I
642.0,3.0,2.0,0.0,3.0,3.0,437.4497090002478,1.0,1.0,phase_1,,,,,,,,,,,,,magenta,cross
159.0,5.0,0.5,1.0,4.0,4.0,355.063510999571,1.0,1.0,phase_1,,,,,,,,,,,,,green,flipped triangle
158.0,5.0,0.5,1.0,3.0,3.0,428.7992810000105,1.0,1.0,phase_1,,,,,,,,,,,,,green,flipped triangle
0.0,6.0,0.0,1.0,2.0,2.0,353.8243630000579,1.0,1.0,phase_1,,,,,,,,,,,,,yellow,triangle
0.0,2.0,0.0,0.0,3.0,3.0,401.3032400002885,1.0,1.0,phase_1,,,,,,,,,,,,,orange,circle
1313.0,4.0,4.0,0.0,4.0,4.0,382.7010740001242,1.0,1.0,phase_1,,,,,,,,,,,,,gray,square
339.0,6.0,1.0,1.0,3.0,3.0,399.1917070002273,1.0,1.0,phase_1,,,,,,,,,,,,,yellow,triangle
671.0,7.0,2.0,1.0,4.0,4.0,362.5057120002566,1.0,1.0,phase_1,,,,,,,,,,,,,white,hexagon
0.0,1.0,0.0,0.0,3.0,3.0,408.4519509997335,1.0,1.0,phase_1,,,,,,,,,,,,,blue,diamond
0.0,8.0,0.0,1.0,1.0,1.0,520.4032629999347,1.0,1.0,phase_1,,,,,,,,,,,,,cyan,I
0.0,7.0,0.0,1.0,3.0,3.0,363.7631460001103,1.0,1.0,phase_1,,,,,,,,,,,,,white,hexagon
1304.0,4.0,4.0,0.0,3.0,3.0,362.2738300000492,1.0,1.0,phase_1,,,,,,,,,,,,,gray,square
0.0,2.0,0.0,0.0,3.0,3.0,428.188966000107,1.0,1.0,phase_1,,,,,,,,,,,,,orange,circle
350.0,6.0,1.0,1.0,2.0,2.0,529.7268799999983,1.0,1.0,phase_1,,,,,,,,,,,,,yellow,triangle
164.0,1.0,0.5,0.0,2.0,2.0,502.1286329997565,1.0,1.0,phase_1,,,,,,,,,,,,,blue,diamond
647.0,3.0,2.0,0.0,4.0,4.0,401.3309829997524,1.0,1.0,phase_1,,,,,,,,,,,,,magenta,cross
0.0,8.0,0.0,1.0,4.0,4.0,355.5333880003672,1.0,1.0,phase_1,,,,,,,,,,,,,cyan,I
1309.0,8.0,4.0,1.0,1.0,1.0,455.0231480002367,1.0,1.0,phase_1,,,,,,,,,,,,,cyan,I
307.0,6.0,1.0,1.0,3.0,3.0,409.3452219999562,1.0,1.0,phase_1,,,,,,,,,,,,,yellow,triangle
0.0,3.0,0.0,0.0,4.0,4.0,401.2010999999802,1.0,1.0,phase_1,,,,,,,,,,,,,magenta,cross
0.0,2.0,0.0,0.0,3.0,3.0,363.1490309999208,1.0,1.0,phase_1,,,,,,,,,,,,,orange,circle
324.0,2.0,1.0,0.0,4.0,4.0,353.2585869998002,1.0,1.0,phase_1,,,,,,,,,,,,,orange,circle
658.0,7.0,2.0,1.0,1.0,1.0,363.2967479998115,1.0,1.0,phase_1,,,,,,,,,,,,,white,hexagon
1297.0,4.0,4.0,0.0,4.0,4.0,391.7357619998256,1.0,1.0,phase_1,,,,,,,,,,,,,gray,square
0.0,8.0,0.0,1.0,2.0,2.0,632.8054570003587,1.0,1.0,phase_1,,,,,,,,,,,,,cyan,I
663.0,7.0,2.0,1.0,1.0,1.0,485.5615089995808,1.0,1.0,phase_1,,,,,,,,,,,,,white,hexagon
0.0,1.0,0.0,0.0,1.0,1.0,455.833431999963,1.0,1.0,phase_1,,,,,,,,,,,,,blue,diamond
640.0,7.0,2.0,1.0,4.0,4.0,445.5886289997579,1.0,1.0,phase_1,,,,,,,,,,,,,white,hexagon
1323.0,4.0,4.0,0.0,1.0,1.0,399.3361759999061,1.0,1.0,phase_1,,,,,,,,,,,,,gray,square
168.0,1.0,0.5,0.0,2.0,2.0,513.351301000057,1.0,1.0,phase_1,,,,,,,,,,,,,blue,diamond
301.0,2.0,1.0,0.0,1.0,1.0,409.7120329997779,1.0,1.0,phase_1,,,,,,,,,,,,,orange,circle
326.0,6.0,1.0,1.0,4.0,4.0,371.9595969996589,1.0,1.0,phase_1,,,,,,,,,,,,,yellow,triangle
302.0,2.0,1.0,0.0,4.0,4.0,362.7744230002463,2.0,1.0,phase_1,,,,,,,,,,,,,orange,circle
1292.0,8.0,4.0,1.0,2.0,2.0,714.9184410000089,2.0,1.0,phase_1,,,,,,,,,,,,,cyan,I
140.0,5.0,0.5,1.0,4.0,4.0,447.965411000041,2.0,1.0,phase_1,,,,,,,,,,,,,green,flipped triangle
142.0,1.0,0.5,0.0,3.0,3.0,399.9957159999212,2.0,1.0,phase_1,,,,,,,,,,,,,blue,diamond
0.0,1.0,0.0,0.0,1.0,1.0,613.4526860000733,2.0,2.0,phase_1,,,,,,,,,,,,,blue,diamond
174.0,1.0,0.5,0.0,4.0,4.0,446.7031379999753,2.0,1.0,phase_1,,,,,,,,,,,,,blue,diamond
635.0,7.0,2.0,1.0,3.0,3.0,429.9512940001477,2.0,1.0,phase_1,,,,,,,,,,,,,white,hexagon
663.0,7.0,2.0,1.0,3.0,3.0,392.2804929998165,2.0,1.0,phase_1,,,,,,,,,,,,,white,hexagon
329.0,2.0,1.0,0.0,1.0,1.0,513.9098740000918,2.0,1.0,phase_1,,,,,,,,,,,,,orange,circle
0.0,6.0,0.0,1.0,4.0,4.0,511.94295699997383,2.0,1.0,phase_1,,,,,,,,,,,,,yellow,triangle
321.0,2.0,1.0,0.0,1.0,1.0,502.96890499976143,2.0,1.0,phase_1,,,,,,,,,,,,,orange,circle
0.0,8.0,0.0,1.0,4.0,4.0,449.8770499999409,2.0,1.0,phase_1,,,,,,,,,,,,,cyan,I
661.0,7.0,2.0,1.0,2.0,2.0,754.8083470001075,2.0,1.0,phase_1,,,,,,,,,,,,,white,hexagon
632.0,7.0,2.0,1.0,1.0,1.0,578.2972449997033,2.0,1.0,phase_1,,,,,,,,,,,,,white,hexagon
180.0,5.0,0.5,1.0,3.0,3.0,417.91708799974,2.0,1.0,phase_1,,,,,,,,,,,,,green,flipped triangle
0.0,1.0,0.0,0.0,4.0,4.0,399.9851120001949,2.0,1.0,phase_1,,,,,,,,,,,,,blue,diamond
1292.0,8.0,4.0,1.0,2.0,2.0,542.0760439997139,2.0,1.0,phase_1,,,,,,,,,,,,,cyan,I
317.0,2.0,1.0,0.0,2.0,2.0,530.0896389999252,2.0,1.0,phase_1,,,,,,,,,,,,,orange,circle
0.0,2.0,0.0,0.0,1.0,1.0,484.344663000229,2.0,1.0,phase_1,,,,,,,,,,,,,orange,circle
1292.0,8.0,4.0,1.0,1.0,1.0,410.6145259997902,2.0,1.0,phase_1,,,,,,,,,,,,,cyan,I
159.0,1.0,0.5,0.0,3.0,3.0,399.9662759997591,2.0,1.0,phase_1,,,,,,,,,,,,,blue,diamond
177.0,5.0,0.5,1.0,1.0,1.0,448.156938000011,2.0,1.0,phase_1,,,,,,,,,,,,,green,flipped triangle
185.0,1.0,0.5,0.0,4.0,4.0,362.2881829996913,2.0,1.0,phase_1,,,,,,,,,,,,,blue,diamond
663.0,3.0,2.0,0.0,3.0,3.0,419.6075619997828,2.0,1.0,phase_1,,,,,,,,,,,,,magenta,cross
0.0,7.0,0.0,1.0,3.0,3.0,428.1996889999391,2.0,1.0,phase_1,,,,,,,,,,,,,white,hexagon
0.0,3.0,0.0,0.0,2.0,2.0,456.217710999681,2.0,1.0,phase_1,,,,,,,,,,,,,magenta,cross
1303.0,8.0,4.0,1.0,2.0,2.0,529.364491999786,2.0,1.0,phase_1,,,,,,,,,,,,,cyan,I
1288.0,8.0,4.0,1.0,3.0,3.0,400.6140589999631,2.0,1.0,phase_1,,,,,,,,,,,,,cyan,I
1288.0,8.0,4.0,1.0,4.0,4.0,354.6950790000664,2.0,1.0,phase_1,,,,,,,,,,,,,cyan,I
325.0,6.0,1.0,1.0,1.0,1.0,390.8714230001351,2.0,1.0,phase_1,,,,,,,,,,,,,yellow,triangle
174.0,1.0,0.5,0.0,3.0,3.0,390.5874659999426,2.0,1.0,phase_1,,,,,,,,,,,,,blue,diamond
144.0,5.0,0.5,1.0,1.0,1.0,528.6114219998126,2.0,1.0,phase_1,,,,,,,,,,,,,green,flipped triangle
0.0,5.0,0.0,1.0,4.0,4.0,410.5044600000838,2.0,1.0,phase_1,,,,,,,,,,,,,green,flipped triangle
329.0,6.0,1.0,1.0,2.0,2.0,408.3199469996543,2.0,1.0,phase_1,,,,,,,,,,,,,yellow,triangle
0.0,2.0,0.0,0.0,4.0,4.0,427.1495269999832,2.0,1.0,phase_1,,,,,,,,,,,,,orange,circle
1292.0,4.0,4.0,0.0,2.0,2.0,464.2004000002089,2.0,1.0,phase_1,,,,,,,,,,,,,gray,square
341.0,2.0,1.0,0.0,2.0,2.0,465.763732999676,2.0,1.0,phase_1,,,,,,,,,,,,,orange,circle
316.0,6.0,1.0,1.0,2.0,2.0,408.0252150001797,2.0,1.0,phase_1,,,,,,,,,,,,,yellow,triangle
178.0,1.0,0.5,0.0,4.0,4.0,389.7004750001542,2.0,1.0,phase_1,,,,,,,,,,,,,blue,diamond
1293.0,4.0,4.0,0.0,2.0,2.0,472.1358739998322,2.0,1.0,phase_1,,,,,,,,,,,,,gray,square
306.0,2.0,1.0,0.0,4.0,4.0,362.8723990000253,2.0,1.0,phase_1,,,,,,,,,,,,,orange,circle
331.0,6.0,1.0,1.0,3.0,3.0,371.895405000032,2.0,1.0,phase_1,,,,,,,,,,,,,yellow,triangle
340.0,2.0,1.0,0.0,2.0,2.0,444.1113339998992,2.0,1.0,phase_1,,,,,,,,,,,,,orange,circle
1296.0,8.0,4.0,1.0,3.0,3.0,398.8493669999116,2.0,1.0,phase_1,,,,,,,,,,,,,cyan,I
301.0,6.0,1.0,1.0,1.0,1.0,511.8906330003483,2.0,1.0,phase_1,,,,,,,,,,,,,yellow,triangle
675.0,7.0,2.0,1.0,2.0,2.0,529.2787289999978,2.0,1.0,phase_1,,,,,,,,,,,,,white,hexagon
173.0,5.0,0.5,1.0,1.0,1.0,445.8129180002288,2.0,1.0,phase_1,,,,,,,,,,,,,green,flipped triangle
1275.0,4.0,4.0,0.0,4.0,4.0,344.0309940001498,2.0,1.0,phase_1,,,,,,,,,,,,,gray,square
0.0,7.0,0.0,1.0,1.0,1.0,429.0460829997755,2.0,1.0,phase_1,,,,,,,,,,,,,white,hexagon
1307.0,4.0,4.0,0.0,3.0,3.0,410.3191129997867,2.0,1.0,phase_1,,,,,,,,,,,,,gray,square
648.0,7.0,2.0,1.0,3.0,3.0,400.9343020002234,2.0,1.0,phase_1,,,,,,,,,,,,,white,hexagon
1278.0,4.0,4.0,0.0,1.0,1.0,437.5153949999912,2.0,1.0,phase_1,,,,,,,,,,,,,gray,square
658.0,3.0,2.0,0.0,1.0,1.0,447.3176820001754,2.0,1.0,phase_1,,,,,,,,,,,,,magenta,cross
317.0,6.0,1.0,1.0,4.0,4.0,390.465469999981,2.0,1.0,phase_1,,,,,,,,,,,,,yellow,triangle
1291.0,8.0,4.0,1.0,1.0,1.0,467.3183610002525,2.0,1.0,phase_1,,,,,,,,,,,,,cyan,I
329.0,2.0,1.0,0.0,2.0,2.0,568.5150940003041,2.0,1.0,phase_1,,,,,,,,,,,,,orange,circle
644.0,3.0,2.0,0.0,1.0,1.0,596.9786109999404,2.0,1.0,phase_1,,,,,,,,,,,,,magenta,cross
330.0,6.0,1.0,1.0,3.0,3.0,464.8261459997229,2.0,1.0,phase_1,,,,,,,,,,,,,yellow,triangle
139.0,1.0,0.5,0.0,4.0,4.0,464.7369229996911,2.0,1.0,phase_1,,,,,,,,,,,,,blue,diamond
306.0,6.0,1.0,1.0,2.0,2.0,511.951604999922,2.0,1.0,phase_1,,,,,,,,,,,,,yellow,triangle
667.0,7.0,2.0,1.0,1.0,1.0,463.6510479999742,2.0,1.0,phase_1,,,,,,,,,,,,,white,hexagon
0.0,8.0,0.0,1.0,2.0,2.0,640.7472870000674,2.0,1.0,phase_1,,,,,,,,,,,,,cyan,I
348.0,2.0,1.0,0.0,1.0,1.0,484.7273800000948,2.0,1.0,phase_1,,,,,,,,,,,,,orange,circle
1307.0,8.0,4.0,1.0,4.0,4.0,455.1559550000092,2.0,1.0,phase_1,,,,,,,,,,,,,cyan,I
0.0,4.0,0.0,0.0,4.0,4.0,484.1486020000047,2.0,1.0,phase_1,,,,,,,,,,,,,gray,square
0.0,6.0,0.0,1.0,3.0,3.0,511.7294469996523,2.0,1.0,phase_1,,,,,,,,,,,,,yellow,triangle
0.0,5.0,0.0,1.0,2.0,2.0,658.9209819999269,2.0,1.0,phase_1,,,,,,,,,,,,,green,flipped triangle
0.0,6.0,0.0,1.0,3.0,3.0,436.3119069998902,2.0,1.0,phase_1,,,,,,,,,,,,,yellow,triangle
631.0,7.0,2.0,1.0,2.0,2.0,531.0336970001117,2.0,1.0,phase_1,,,,,,,,,,,,,white,hexagon
629.0,3.0,2.0,0.0,1.0,1.0,400.102503999733,2.0,1.0,phase_1,,,,,,,,,,,,,magenta,cross
167.0,5.0,0.5,1.0,2.0,2.0,595.4973130001235,2.0,1.0,phase_1,,,,,,,,,,,,,green,flipped triangle
327.0,6.0,1.0,1.0,1.0,1.0,446.1598959996991,2.0,1.0,phase_1,,,,,,,,,,,,,yellow,triangle
1292.0,4.0,4.0,0.0,2.0,2.0,548.1405140003517,2.0,1.0,phase_1,,,,,,,,,,,,,gray,square
153.0,5.0,0.5,1.0,3.0,3.0,381.4386159997411,2.0,1.0,phase_1,,,,,,,,,,,,,green,flipped triangle
1313.0,4.0,4.0,0.0,4.0,4.0,361.8599220003489,2.0,1.0,phase_1,,,,,,,,,,,,,gray,square
313.0,2.0,1.0,0.0,3.0,3.0,370.8272240000951,2.0,1.0,phase_1,,,,,,,,,,,,,orange,circle
666.0,7.0,2.0,1.0,2.0,2.0,427.7567340000132,2.0,1.0,phase_1,,,,,,,,,,,,,white,hexagon
313.0,6.0,1.0,1.0,4.0,4.0,446.3127760000134,2.0,1.0,phase_1,,,,,,,,,,,,,yellow,triangle
341.0,6.0,1.0,1.0,4.0,4.0,417.920630000026,2.0,1.0,phase_1,,,,,,,,,,,,,yellow,triangle
321.0,2.0,1.0,0.0,3.0,3.0,400.4079810001713,2.0,1.0,phase_1,,,,,,,,,,,,,orange,circle
643.0,7.0,2.0,1.0,4.0,4.0,400.4495799999858,2.0,1.0,phase_1,,,,,,,,,,,,,white,hexagon
155.0,1.0,0.5,0.0,3.0,3.0,486.9754940000348,2.0,1.0,phase_1,,,,,,,,,,,,,blue,diamond
148.0,1.0,0.5,0.0,2.0,2.0,437.3469199999817,2.0,1.0,phase_1,,,,,,,,,,,,,blue,diamond
1323.0,8.0,4.0,1.0,3.0,3.0,465.0467350002145,2.0,1.0,phase_1,,,,,,,,,,,,,cyan,I
158.0,5.0,0.5,1.0,2.0,2.0,539.4889969998076,2.0,1.0,phase_1,,,,,,,,,,,,,green,flipped triangle
327.0,2.0,1.0,0.0,1.0,1.0,436.899338999865,2.0,1.0,phase_1,,,,,,,,,,,,,orange,circle
1307.0,4.0,4.0,0.0,2.0,2.0,475.5483660001118,2.0,1.0,phase_1,,,,,,,,,,,,,gray,square
642.0,7.0,2.0,1.0,2.0,2.0,409.2778469998848,2.0,1.0,phase_1,,,,,,,,,,,,,white,hexagon
152.0,5.0,0.5,1.0,1.0,1.0,491.85644399995,2.0,1.0,phase_1,,,,,,,,,,,,,green,flipped triangle
1298.0,4.0,4.0,0.0,4.0,4.0,381.530365999879,2.0,1.0,phase_1,,,,,,,,,,,,,gray,square
141.0,1.0,0.5,0.0,2.0,2.0,547.9643079997913,2.0,1.0,phase_1,,,,,,,,,,,,,blue,diamond
0.0,7.0,0.0,1.0,2.0,2.0,455.4242620001787,2.0,1.0,phase_1,,,,,,,,,,,,,white,hexagon
640.0,7.0,2.0,1.0,2.0,2.0,464.3488540000362,2.0,1.0,phase_1,,,,,,,,,,,,,white,hexagon
625.0,3.0,2.0,0.0,4.0,4.0,446.483385999727,2.0,1.0,phase_1,,,,,,,,,,,,,magenta,cross
347.0,2.0,1.0,0.0,3.0,3.0,354.0776440004265,2.0,1.0,phase_1,,,,,,,,,,,,,orange,circle
325.0,2.0,1.0,0.0,4.0,4.0,399.7199240002373,2.0,1.0,phase_1,,,,,,,,,,,,,orange,circle
154.0,5.0,0.5,1.0,3.0,3.0,372.1387430000504,2.0,1.0,phase_1,,,,,,,,,,,,,green,flipped triangle
0.0,4.0,0.0,0.0,1.0,1.0,455.0048769997374,2.0,1.0,phase_1,,,,,,,,,,,,,gray,square
314.0,6.0,1.0,1.0,4.0,4.0,389.8030509999444,2.0,1.0,phase_1,,,,,,,,,,,,,yellow,triangle
0.0,8.0,0.0,1.0,1.0,1.0,658.4370230002605,2.0,1.0,phase_1,,,,,,,,,,,,,cyan,I
0.0,2.0,0.0,0.0,2.0,2.0,718.3706950004307,3.0,1.0,phase_1,,,,,,,,,,,,,orange,circle
1324.0,8.0,4.0,1.0,2.0,2.0,401.7661480002061,3.0,1.0,phase_1,,,,,,,,,,,,,cyan,I
659.0,3.0,2.0,0.0,2.0,2.0,399.8215379997418,3.0,1.0,phase_1,,,,,,,,,,,,,magenta,cross
0.0,1.0,0.0,0.0,1.0,1.0,399.8704050000015,3.0,2.0,phase_1,,,,,,,,,,,,,blue,diamond
625.0,7.0,2.0,1.0,1.0,1.0,372.5570980000157,3.0,1.0,phase_1,,,,,,,,,,,,,white,hexagon
155.0,5.0,0.5,1.0,3.0,3.0,399.6542240001872,3.0,1.0,phase_1,,,,,,,,,,,,,green,flipped triangle
0.0,6.0,0.0,1.0,4.0,4.0,363.1760610001038,3.0,1.0,phase_1,,,,,,,,,,,,,yellow,triangle
141.0,5.0,0.5,1.0,2.0,2.0,428.9429650002603,3.0,1.0,phase_1,,,,,,,,,,,,,green,flipped triangle
0.0,4.0,0.0,0.0,2.0,2.0,417.8378110000267,3.0,1.0,phase_1,,,,,,,,,,,,,gray,square
316.0,6.0,1.0,1.0,1.0,1.0,418.769274999704,3.0,1.0,phase_1,,,,,,,,,,,,,yellow,triangle
316.0,2.0,1.0,0.0,3.0,3.0,418.8964929999201,3.0,1.0,phase_1,,,,,,,,,,,,,orange,circle
0.0,8.0,0.0,1.0,4.0,4.0,420.049736999772,3.0,1.0,phase_1,,,,,,,,,,,,,cyan,I
1305.0,4.0,4.0,0.0,2.0,2.0,428.5382289999688,3.0,1.0,phase_1,,,,,,,,,,,,,gray,square
0.0,6.0,0.0,1.0,1.0,1.0,381.9727200002489,3.0,1.0,phase_1,,,,,,,,,,,,,yellow,triangle
0.0,5.0,0.0,1.0,1.0,1.0,364.3760760000987,3.0,1.0,phase_1,,,,,,,,,,,,,green,flipped triangle
317.0,6.0,1.0,1.0,2.0,2.0,446.485493000182,3.0,1.0,phase_1,,,,,,,,,,,,,yellow,triangle
1301.0,4.0,4.0,0.0,3.0,3.0,374.8122679999142,3.0,1.0,phase_1,,,,,,,,,,,,,gray,square
1295.0,4.0,4.0,0.0,2.0,2.0,374.0879169999971,3.0,1.0,phase_1,,,,,,,,,,,,,gray,square
1309.0,4.0,4.0,0.0,1.0,1.0,401.9733729996915,3.0,1.0,phase_1,,,,,,,,,,,,,gray,square
1313.0,8.0,4.0,1.0,4.0,4.0,383.1664620001902,3.0,1.0,phase_1,,,,,,,,,,,,,cyan,I
640.0,3.0,2.0,0.0,3.0,3.0,354.3652769999426,3.0,1.0,phase_1,,,,,,,,,,,,,magenta,cross
0.0,6.0,0.0,1.0,4.0,4.0,410.2059729998473,3.0,1.0,phase_1,,,,,,,,,,,,,yellow,triangle
152.0,1.0,0.5,0.0,1.0,1.0,409.9352749999525,3.0,1.0,phase_1,,,,,,,,,,,,,blue,diamond
168.0,5.0,0.5,1.0,2.0,2.0,437.9098389999853,3.0,1.0,phase_1,,,,,,,,,,,,,green,flipped triangle
659.0,7.0,2.0,1.0,3.0,3.0,327.8948779998245,3.0,1.0,phase_1,,,,,,,,,,,,,white,hexagon
654.0,3.0,2.0,0.0,2.0,2.0,428.412419000324,3.0,1.0,phase_1,,,,,,,,,,,,,magenta,cross
644.0,7.0,2.0,1.0,4.0,4.0,651.0307749999811,3.0,1.0,phase_1,,,,,,,,,,,,,white,hexagon
1301.0,8.0,4.0,1.0,3.0,3.0,456.0769780000555,3.0,1.0,phase_1,,,,,,,,,,,,,cyan,I
1311.0,8.0,4.0,1.0,2.0,2.0,390.9529240004303,3.0,1.0,phase_1,,,,,,,,,,,,,cyan,I
1284.0,4.0,4.0,0.0,4.0,4.0,334.5462550000775,3.0,1.0,phase_1,,,,,,,,,,,,,gray,square
0.0,3.0,0.0,0.0,2.0,2.0,409.4967089999954,3.0,1.0,phase_1,,,,,,,,,,,,,magenta,cross
0.0,5.0,0.0,1.0,3.0,3.0,334.6224980000443,3.0,1.0,phase_1,,,,,,,,,,,,,green,flipped triangle
341.0,2.0,1.0,0.0,2.0,2.0,474.1011460000663,3.0,1.0,phase_1,,,,,,,,,,,,,orange,circle
331.0,2.0,1.0,0.0,4.0,4.0,363.3461839999654,3.0,1.0,phase_1,,,,,,,,,,,,,orange,circle
306.0,2.0,1.0,0.0,4.0,4.0,381.1586060000991,3.0,1.0,phase_1,,,,,,,,,,,,,orange,circle
171.0,1.0,0.5,0.0,3.0,3.0,391.2610980000863,3.0,1.0,phase_1,,,,,,,,,,,,,blue,diamond
647.0,7.0,2.0,1.0,1.0,1.0,408.2668139999441,3.0,1.0,phase_1,,,,,,,,,,,,,white,hexagon
154.0,1.0,0.5,0.0,1.0,1.0,445.9872000002178,3.0,1.0,phase_1,,,,,,,,,,,,,blue,diamond
302.0,6.0,1.0,1.0,2.0,2.0,528.1037289996675,3.0,1.0,phase_1,,,,,,,,,,,,,yellow,triangle
147.0,5.0,0.5,1.0,4.0,4.0,390.7926260003478,3.0,1.0,phase_1,,,,,,,,,,,,,green,flipped triangle
1293.0,8.0,4.0,1.0,3.0,3.0,408.9085949999571,3.0,1.0,phase_1,,,,,,,,,,,,,cyan,I
1296.0,4.0,4.0,0.0,2.0,2.0,566.1588809998648,3.0,1.0,phase_1,,,,,,,,,,,,,gray,square
336.0,2.0,1.0,0.0,1.0,1.0,401.2985579997803,3.0,1.0,phase_1,,,,,,,,,,,,,orange,circle
321.0,6.0,1.0,1.0,1.0,1.0,454.8535199996877,3.0,1.0,phase_1,,,,,,,,,,,,,yellow,triangle
347.0,6.0,1.0,1.0,3.0,3.0,381.2220800000432,3.0,1.0,phase_1,,,,,,,,,,,,,yellow,triangle
1323.0,8.0,4.0,1.0,2.0,2.0,446.6342619998613,3.0,1.0,phase_1,,,,,,,,,,,,,cyan,I
0.0,4.0,0.0,0.0,3.0,3.0,552.2926490002646,3.0,1.0,phase_1,,,,,,,,,,,,,gray,square
340.0,2.0,1.0,0.0,1.0,1.0,398.8869969998632,3.0,1.0,phase_1,,,,,,,,,,,,,orange,circle
0.0,6.0,0.0,1.0,1.0,1.0,408.9806729998599,3.0,1.0,phase_1,,,,,,,,,,,,,yellow,triangle
632.0,3.0,2.0,0.0,4.0,4.0,399.4396130001405,3.0,1.0,phase_1,,,,,,,,,,,,,magenta,cross
0.0,5.0,0.0,1.0,2.0,2.0,376.1526460002642,3.0,1.0,phase_1,,,,,,,,,,,,,green,flipped triangle
0.0,1.0,0.0,0.0,3.0,3.0,354.3704329999855,3.0,1.0,phase_1,,,,,,,,,,,,,blue,diamond
658.0,3.0,2.0,0.0,3.0,3.0,374.227358999633,3.0,1.0,phase_1,,,,,,,,,,,,,magenta,cross
348.0,6.0,1.0,1.0,2.0,2.0,389.7703070001626,3.0,1.0,phase_1,,,,,,,,,,,,,yellow,triangle
345.0,2.0,1.0,0.0,1.0,1.0,315.9720240000752,3.0,1.0,phase_1,,,,,,,,,,,,,orange,circle
161.0,1.0,0.5,0.0,1.0,1.0,399.5536550000906,3.0,1.0,phase_1,,,,,,,,,,,,,blue,diamond
148.0,5.0,0.5,1.0,3.0,3.0,402.9326649997529,3.0,1.0,phase_1,,,,,,,,,,,,,green,flipped triangle
675.0,7.0,2.0,1.0,2.0,2.0,398.4443760000431,3.0,1.0,phase_1,,,,,,,,,,,,,white,hexagon
647.0,7.0,2.0,1.0,2.0,2.0,399.8705449998851,3.0,1.0,phase_1,,,,,,,,,,,,,white,hexagon
0.0,3.0,0.0,0.0,1.0,1.0,483.2646519998889,3.0,1.0,phase_1,,,,,,,,,,,,,magenta,cross
323.0,2.0,1.0,0.0,1.0,1.0,428.1457540000701,3.0,1.0,phase_1,,,,,,,,,,,,,orange,circle
1304.0,8.0,4.0,1.0,4.0,4.0,278.6512449997644,3.0,1.0,phase_1,,,,,,,,,,,,,cyan,I
161.0,5.0,0.5,1.0,1.0,1.0,315.9231780000482,3.0,1.0,phase_1,,,,,,,,,,,,,green,flipped triangle
663.0,3.0,2.0,0.0,3.0,3.0,352.6271460000316,3.0,1.0,phase_1,,,,,,,,,,,,,magenta,cross
1307.0,8.0,4.0,1.0,4.0,4.0,333.9406149998467,3.0,1.0,phase_1,,,,,,,,,,,,,cyan,I
0.0,1.0,0.0,0.0,2.0,2.0,482.5338600003306,3.0,1.0,phase_1,,,,,,,,,,,,,blue,diamond
158.0,1.0,0.5,0.0,2.0,2.0,355.1854470001672,3.0,1.0,phase_1,,,,,,,,,,,,,blue,diamond
349.0,6.0,1.0,1.0,1.0,1.0,249.7969549999652,3.0,1.0,phase_1,,,,,,,,,,,,,yellow,triangle
158.0,5.0,0.5,1.0,1.0,1.0,315.3846909999629,3.0,1.0,phase_1,,,,,,,,,,,,,green,flipped triangle
182.0,1.0,0.5,0.0,4.0,4.0,354.3387670001721,3.0,1.0,phase_1,,,,,,,,,,,,,blue,diamond
175.0,5.0,0.5,1.0,3.0,3.0,315.8941149999918,3.0,1.0,phase_1,,,,,,,,,,,,,green,flipped triangle
1276.0,4.0,4.0,0.0,1.0,1.0,380.1620469998852,3.0,1.0,phase_1,,,,,,,,,,,,,gray,square
650.0,7.0,2.0,1.0,1.0,1.0,372.8384450000703,3.0,1.0,phase_1,,,,,,,,,,,,,white,hexagon
1289.0,4.0,4.0,0.0,4.0,4.0,381.2551179998991,3.0,1.0,phase_1,,,,,,,,,,,,,gray,square
0.0,5.0,0.0,1.0,1.0,1.0,380.5583749999641,3.0,1.0,phase_1,,,,,,,,,,,,,green,flipped triangle
167.0,1.0,0.5,0.0,3.0,3.0,361.8347930000709,3.0,1.0,phase_1,,,,,,,,,,,,,blue,diamond
626.0,7.0,2.0,1.0,4.0,4.0,374.3926250003824,3.0,1.0,phase_1,,,,,,,,,,,,,white,hexagon
154.0,5.0,0.5,1.0,4.0,4.0,389.685470999666,3.0,1.0,phase_1,,,,,,,,,,,,,green,flipped triangle
164.0,5.0,0.5,1.0,3.0,3.0,381.7835869999726,3.0,1.0,phase_1,,,,,,,,,,,,,green,flipped triangle
626.0,3.0,2.0,0.0,4.0,4.0,427.6443449998623,3.0,1.0,phase_1,,,,,,,,,,,,,magenta,cross
1295.0,8.0,4.0,1.0,4.0,4.0,373.5995069996534,3.0,1.0,phase_1,,,,,,,,,,,,,cyan,I
345.0,6.0,1.0,1.0,4.0,4.0,373.2271290000426,3.0,1.0,phase_1,,,,,,,,,,,,,yellow,triangle
1318.0,8.0,4.0,1.0,1.0,1.0,455.7513270001436,3.0,1.0,phase_1,,,,,,,,,,,,,cyan,I
625.0,7.0,2.0,1.0,2.0,2.0,373.1692989999828,3.0,2.0,phase_1,,,,,,,,,,,,,white,hexagon
671.0,3.0,2.0,0.0,4.0,4.0,363.1702659999973,3.0,1.0,phase_1,,,,,,,,,,,,,magenta,cross
1281.0,4.0,4.0,0.0,3.0,3.0,390.8610890002819,3.0,1.0,phase_1,,,,,,,,,,,,,gray,square
1303.0,4.0,4.0,0.0,4.0,4.0,437.0302829997854,3.0,1.0,phase_1,,,,,,,,,,,,,gray,square
321.0,6.0,1.0,1.0,3.0,3.0,391.7285520001314,3.0,1.0,phase_1,,,,,,,,,,,,,yellow,triangle
341.0,6.0,1.0,1.0,4.0,4.0,383.3063249999213,3.0,1.0,phase_1,,,,,,,,,,,,,yellow,triangle
340.0,6.0,1.0,1.0,2.0,2.0,345.4931039996154,3.0,1.0,phase_1,,,,,,,,,,,,,yellow,triangle
1287.0,8.0,4.0,1.0,4.0,4.0,531.2536030000956,3.0,1.0,phase_1,,,,,,,,,,,,,cyan,I
635.0,7.0,2.0,1.0,2.0,2.0,493.1190060001427,3.0,1.0,phase_1,,,,,,,,,,,,,white,hexagon
323.0,6.0,1.0,1.0,4.0,4.0,438.4346709998681,3.0,1.0,phase_1,,,,,,,,,,,,,yellow,triangle
654.0,7.0,2.0,1.0,3.0,3.0,382.0160479999686,3.0,1.0,phase_1,,,,,,,,,,,,,white,hexagon
630.0,3.0,2.0,0.0,2.0,2.0,521.1344720000852,3.0,1.0,phase_1,,,,,,,,,,,,,magenta,cross
175.0,1.0,0.5,0.0,3.0,3.0,399.9169140001868,3.0,1.0,phase_1,,,,,,,,,,,,,blue,diamond
1289.0,8.0,4.0,1.0,2.0,2.0,337.2483680000187,3.0,1.0,phase_1,,,,,,,,,,,,,cyan,I
1324.0,4.0,4.0,0.0,1.0,1.0,437.3270200003389,3.0,1.0,phase_1,,,,,,,,,,,,,gray,square
185.0,5.0,0.5,1.0,2.0,2.0,391.9265449999329,3.0,1.0,phase_1,,,,,,,,,,,,,green,flipped triangle
1318.0,4.0,4.0,0.0,2.0,2.0,382.6912710001124,3.0,1.0,phase_1,,,,,,,,,,,,,gray,square
314.0,2.0,1.0,0.0,4.0,4.0,540.5719679997674,4.0,1.0,phase_1,,,,,,,,,,,,,orange,circle
0.0,4.0,0.0,0.0,3.0,3.0,408.9028479997978,4.0,1.0,phase_1,,,,,,,,,,,,,gray,square
651.0,3.0,2.0,0.0,2.0,2.0,362.8934020002816,4.0,1.0,phase_1,,,,,,,,,,,,,magenta,cross
143.0,1.0,0.5,0.0,2.0,2.0,540.3156050001598,4.0,1.0,phase_1,,,,,,,,,,,,,blue,diamond
0.0,7.0,0.0,1.0,2.0,2.0,353.7145430000237,4.0,1.0,phase_1,,,,,,,,,,,,,white,hexagon
179.0,5.0,0.5,1.0,1.0,1.0,511.48460500007786,4.0,1.0,phase_1,,,,,,,,,,,,,green,flipped triangle
1290.0,4.0,4.0,0.0,1.0,1.0,372.0555439999771,4.0,1.0,phase_1,,,,,,,,,,,,,gray,square
173.0,1.0,0.5,0.0,1.0,1.0,352.8042709999681,4.0,1.0,phase_1,,,,,,,,,,,,,blue,diamond
180.0,1.0,0.5,0.0,3.0,3.0,389.7007770001437,4.0,1.0,phase_1,,,,,,,,,,,,,blue,diamond
0.0,2.0,0.0,0.0,1.0,1.0,409.0359560000252,4.0,1.0,phase_1,,,,,,,,,,,,,orange,circle
155.0,1.0,0.5,0.0,3.0,3.0,344.1642679999859,4.0,1.0,phase_1,,,,,,,,,,,,,blue,diamond
147.0,1.0,0.5,0.0,2.0,2.0,380.3647689996978,4.0,1.0,phase_1,,,,,,,,,,,,,blue,diamond
0.0,7.0,0.0,1.0,2.0,2.0,352.4387170000409,4.0,1.0,phase_1,,,,,,,,,,,,,white,hexagon
0.0,3.0,0.0,0.0,3.0,3.0,436.1984500001199,4.0,1.0,phase_1,,,,,,,,,,,,,magenta,cross
307.0,2.0,1.0,0.0,2.0,2.0,381.649878999724,4.0,1.0,phase_1,,,,,,,,,,,,,orange,circle
648.0,3.0,2.0,0.0,4.0,4.0,446.7580909999924,4.0,1.0,phase_1,,,,,,,,,,,,,magenta,cross
0.0,1.0,0.0,0.0,4.0,4.0,371.9880809999267,4.0,1.0,phase_1,,,,,,,,,,,,,blue,diamond
142.0,5.0,0.5,1.0,2.0,2.0,464.3072439998832,4.0,1.0,phase_1,,,,,,,,,,,,,green,flipped triangle
174.0,5.0,0.5,1.0,4.0,4.0,363.1370859998242,4.0,1.0,phase_1,,,,,,,,,,,,,green,flipped triangle
659.0,3.0,2.0,0.0,4.0,4.0,380.5019400001583,4.0,1.0,phase_1,,,,,,,,,,,,,magenta,cross
1323.0,4.0,4.0,0.0,1.0,1.0,529.175744999975,4.0,1.0,phase_1,,,,,,,,,,,,,gray,square
301.0,2.0,1.0,0.0,3.0,3.0,381.1726250000902,4.0,1.0,phase_1,,,,,,,,,,,,,orange,circle
662.0,7.0,2.0,1.0,3.0,3.0,391.7266349999408,4.0,1.0,phase_1,,,,,,,,,,,,,white,hexagon
647.0,3.0,2.0,0.0,1.0,1.0,427.9617639999742,4.0,1.0,phase_1,,,,,,,,,,,,,magenta,cross
0.0,5.0,0.0,1.0,4.0,4.0,391.2414720002743,4.0,1.0,phase_1,,,,,,,,,,,,,green,flipped triangle
644.0,3.0,2.0,0.0,4.0,4.0,363.6649159998342,4.0,1.0,phase_1,,,,,,,,,,,,,magenta,cross
631.0,3.0,2.0,0.0,3.0,3.0,391.3854160000483,4.0,1.0,phase_1,,,,,,,,,,,,,magenta,cross
1276.0,8.0,4.0,1.0,4.0,4.0,390.4745400000138,4.0,1.0,phase_1,,,,,,,,,,,,,cyan,I
1298.0,8.0,4.0,1.0,4.0,4.0,392.3853650003366,4.0,1.0,phase_1,,,,,,,,,,,,,cyan,I
667.0,3.0,2.0,0.0,3.0,3.0,335.83198199994507,4.0,1.0,phase_1,,,,,,,,,,,,,magenta,cross
630.0,7.0,2.0,1.0,1.0,1.0,456.3106329997026,4.0,1.0,phase_1,,,,,,,,,,,,,white,hexagon
178.0,5.0,0.5,1.0,4.0,4.0,345.3332989997761,4.0,1.0,phase_1,,,,,,,,,,,,,green,flipped triangle
0.0,5.0,0.0,1.0,3.0,3.0,336.3675759997022,4.0,1.0,phase_1,,,,,,,,,,,,,green,flipped triangle
0.0,2.0,0.0,0.0,4.0,4.0,419.0380079999158,4.0,1.0,phase_1,,,,,,,,,,,,,orange,circle
158.0,1.0,0.5,0.0,1.0,1.0,352.5515030000861,4.0,1.0,phase_1,,,,,,,,,,,,,blue,diamond
1290.0,8.0,4.0,1.0,3.0,3.0,400.278105000325,4.0,1.0,phase_1,,,,,,,,,,,,,cyan,I
139.0,5.0,0.5,1.0,4.0,4.0,371.0990059998948,4.0,1.0,phase_1,,,,,,,,,,,,,green,flipped triangle
0.0,8.0,0.0,1.0,3.0,3.0,362.3075660002541,4.0,1.0,phase_1,,,,,,,,,,,,,cyan,I
342.0,2.0,1.0,0.0,4.0,4.0,335.766496999895,4.0,1.0,phase_1,,,,,,,,,,,,,orange,circle
173.0,5.0,0.5,1.0,1.0,1.0,371.9782230000419,4.0,1.0,phase_1,,,,,,,,,,,,,green,flipped triangle
155.0,5.0,0.5,1.0,2.0,2.0,485.5261749999044,4.0,1.0,phase_1,,,,,,,,,,,,,green,flipped triangle
308.0,2.0,1.0,0.0,2.0,2.0,419.0827720003653,4.0,1.0,phase_1,,,,,,,,,,,,,orange,circle
301.0,6.0,1.0,1.0,3.0,3.0,362.7443569998831,4.0,1.0,phase_1,,,,,,,,,,,,,yellow,triangle
158.0,1.0,0.5,0.0,1.0,1.0,364.8600110000188,4.0,1.0,phase_1,,,,,,,,,,,,,blue,diamond
182.0,5.0,0.5,1.0,3.0,3.0,363.3311630001117,4.0,1.0,phase_1,,,,,,,,,,,,,green,flipped triangle
0.0,7.0,0.0,1.0,2.0,2.0,325.879588999669,4.0,1.0,phase_1,,,,,,,,,,,,,white,hexagon
658.0,7.0,2.0,1.0,4.0,4.0,290.98659400006,4.0,1.0,phase_1,,,,,,,,,,,,,white,hexagon
1291.0,4.0,4.0,0.0,4.0,4.0,326.7308780004896,4.0,1.0,phase_1,,,,,,,,,,,,,gray,square
1287.0,4.0,4.0,0.0,1.0,1.0,427.5899069998559,4.0,1.0,phase_1,,,,,,,,,,,,,gray,square
317.0,2.0,1.0,0.0,3.0,3.0,410.4924170005688,4.0,1.0,phase_1,,,,,,,,,,,,,orange,circle
1297.0,8.0,4.0,1.0,1.0,1.0,382.0581139998467,4.0,2.0,phase_1,,,,,,,,,,,,,cyan,I
666.0,3.0,2.0,0.0,3.0,3.0,418.0365099991832,4.0,1.0,phase_1,,,,,,,,,,,,,magenta,cross
301.0,6.0,1.0,1.0,4.0,4.0,373.7521220000417,4.0,1.0,phase_1,,,,,,,,,,,,,yellow,triangle
350.0,2.0,1.0,0.0,3.0,3.0,418.2246110003689,4.0,1.0,phase_1,,,,,,,,,,,,,orange,circle
325.0,2.0,1.0,0.0,4.0,4.0,438.4135749996858,4.0,1.0,phase_1,,,,,,,,,,,,,orange,circle
329.0,6.0,1.0,1.0,4.0,4.0,399.8500060006336,4.0,1.0,phase_1,,,,,,,,,,,,,yellow,triangle
648.0,3.0,2.0,0.0,2.0,2.0,474.0174190001198,4.0,1.0,phase_1,,,,,,,,,,,,,magenta,cross
1318.0,4.0,4.0,0.0,4.0,4.0,551.5388169997095,4.0,1.0,phase_1,,,,,,,,,,,,,gray,square
1282.0,4.0,4.0,0.0,3.0,3.0,381.6415370001778,4.0,1.0,phase_1,,,,,,,,,,,,,gray,square
185.0,1.0,0.5,0.0,4.0,4.0,362.3852269993222,4.0,1.0,phase_1,,,,,,,,,,,,,blue,diamond
648.0,7.0,2.0,1.0,1.0,1.0,428.146165999351,4.0,1.0,phase_1,,,,,,,,,,,,,white,hexagon
640.0,3.0,2.0,0.0,4.0,4.0,381.7718029995376,4.0,1.0,phase_1,,,,,,,,,,,,,magenta,cross
313.0,2.0,1.0,0.0,4.0,4.0,372.1855829999185,4.0,1.0,phase_1,,,,,,,,,,,,,orange,circle
171.0,5.0,0.5,1.0,3.0,3.0,390.0611070002924,4.0,1.0,phase_1,,,,,,,,,,,,,green,flipped triangle
154.0,1.0,0.5,0.0,4.0,4.0,326.730442000553,4.0,1.0,phase_1,,,,,,,,,,,,,blue,diamond
674.0,7.0,2.0,1.0,4.0,4.0,325.1072769999155,4.0,1.0,phase_1,,,,,,,,,,,,,white,hexagon
1318.0,8.0,4.0,1.0,1.0,1.0,439.0386200002467,4.0,1.0,phase_1,,,,,,,,,,,,,cyan,I
1303.0,4.0,4.0,0.0,2.0,2.0,584.5680420006829,4.0,1.0,phase_1,,,,,,,,,,,,,gray,square
662.0,3.0,2.0,0.0,1.0,1.0,511.3824440004464,4.0,1.0,phase_1,,,,,,,,,,,,,magenta,cross
308.0,6.0,1.0,1.0,2.0,2.0,530.6267269997988,4.0,1.0,phase_1,,,,,,,,,,,,,yellow,triangle
186.0,1.0,0.5,0.0,4.0,4.0,436.0419620006723,4.0,1.0,phase_1,,,,,,,,,,,,,blue,diamond
0.0,3.0,0.0,0.0,3.0,3.0,427.1885600001042,4.0,1.0,phase_1,,,,,,,,,,,,,magenta,cross
0.0,4.0,0.0,0.0,2.0,2.0,354.4919690002643,4.0,1.0,phase_1,,,,,,,,,,,,,gray,square
323.0,6.0,1.0,1.0,1.0,1.0,492.2488040001553,4.0,1.0,phase_1,,,,,,,,,,,,,yellow,triangle
663.0,7.0,2.0,1.0,1.0,1.0,464.6625490004226,4.0,1.0,phase_1,,,,,,,,,,,,,white,hexagon
185.0,5.0,0.5,1.0,2.0,2.0,463.2287869999345,4.0,1.0,phase_1,,,,,,,,,,,,,green,flipped triangle
336.0,6.0,1.0,1.0,1.0,1.0,512.2137549997205,4.0,1.0,phase_1,,,,,,,,,,,,,yellow,triangle
0.0,1.0,0.0,0.0,1.0,1.0,408.8080219999028,4.0,1.0,phase_1,,,,,,,,,,,,,blue,diamond
301.0,2.0,1.0,0.0,1.0,1.0,361.9300049995217,4.0,1.0,phase_1,,,,,,,,,,,,,orange,circle
668.0,3.0,2.0,0.0,2.0,2.0,455.6752620001134,4.0,1.0,phase_1,,,,,,,,,,,,,magenta,cross
1281.0,8.0,4.0,1.0,3.0,3.0,492.969085000368,4.0,1.0,phase_1,,,,,,,,,,,,,cyan,I
326.0,2.0,1.0,0.0,3.0,3.0,419.2483380002159,4.0,1.0,phase_1,,,,,,,,,,,,,orange,circle
0.0,2.0,0.0,0.0,2.0,2.0,484.4339549999858,4.0,1.0,phase_1,,,,,,,,,,,,,orange,circle
325.0,6.0,1.0,1.0,1.0,1.0,436.6018769997026,4.0,1.0,phase_1,,,,,,,,,,,,,yellow,triangle
339.0,2.0,1.0,0.0,2.0,2.0,421.3352229999145,4.0,1.0,phase_1,,,,,,,,,,,,,orange,circle
0.0,3.0,0.0,0.0,2.0,2.0,426.8114469996362,4.0,1.0,phase_1,,,,,,,,,,,,,magenta,cross
0.0,5.0,0.0,1.0,4.0,4.0,391.774556999735,4.0,1.0,phase_1,,,,,,,,,,,,,green,flipped triangle
1292.0,4.0,4.0,0.0,2.0,2.0,444.2104390000168,4.0,1.0,phase_1,,,,,,,,,,,,,gray,square
1311.0,4.0,4.0,0.0,3.0,3.0,353.0228110003008,4.0,1.0,phase_1,,,,,,,,,,,,,gray,square
1303.0,8.0,4.0,1.0,4.0,4.0,390.2589440003794,4.0,1.0,phase_1,,,,,,,,,,,,,cyan,I
324.0,6.0,1.0,1.0,3.0,3.0,381.3847880001049,4.0,1.0,phase_1,,,,,,,,,,,,,yellow,triangle
313.0,6.0,1.0,1.0,3.0,3.0,446.155003000058,4.0,1.0,phase_1,,,,,,,,,,,,,yellow,triangle
649.0,3.0,2.0,0.0,3.0,3.0,362.8197669995643,4.0,1.0,phase_1,,,,,,,,,,,,,magenta,cross
0.0,8.0,0.0,1.0,3.0,3.0,362.7736839998761,4.0,1.0,phase_1,,,,,,,,,,,,,cyan,I
0.0,7.0,0.0,1.0,2.0,2.0,428.469122000024,4.0,1.0,phase_1,,,,,,,,,,,,,white,hexagon
174.0,5.0,0.5,1.0,4.0,4.0,390.5581789995267,4.0,1.0,phase_1,,,,,,,,,,,,,green,flipped triangle
0.0,4.0,0.0,0.0,3.0,3.0,400.267093000366,4.0,1.0,phase_1,,,,,,,,,,,,,gray,square
644.0,7.0,2.0,1.0,3.0,3.0,372.0181990001947,4.0,1.0,phase_1,,,,,,,,,,,,,white,hexagon
316.0,2.0,1.0,0.0,3.0,3.0,361.3882600002398,4.0,1.0,phase_1,,,,,,,,,,,,,orange,circle
674.0,3.0,2.0,0.0,3.0,3.0,381.4469210001334,4.0,1.0,phase_1,,,,,,,,,,,,,magenta,cross
0.0,5.0,0.5,1.0,5.0,0.0,0.0,1.0,1.0,phase_2,stop,250.0,250.0,4.0,,,,,,,,,green,flipped triangle
0.0,3.0,2.0,0.0,6.0,6.0,328.3340149992,1.0,1.0,phase_2,go,300.0,250.0,1.0,,,,,,,,,magenta,cross
0.0,7.0,2.0,1.0,5.0,5.0,336.4412900000388,1.0,1.0,phase_2,stop,300.0,250.0,3.0,,,,,,,,,white,hexagon
0.0,7.0,2.0,1.0,5.0,5.0,355.6366530001469,1.0,1.0,phase_2,stop,250.0,250.0,3.0,,,,,,,,,white,hexagon
0.0,1.0,0.5,0.0,5.0,5.0,404.0371800001594,1.0,1.0,phase_2,go,200.0,250.0,1.0,,,,,,,,,blue,diamond
0.0,5.0,0.5,1.0,6.0,6.0,353.7601480002195,1.0,1.0,phase_2,stop,200.0,250.0,3.0,,,,,,,,,green,flipped triangle
0.0,6.0,1.0,1.0,5.0,0.0,0.0,1.0,1.0,phase_2,stop,200.0,200.0,4.0,,,,,,,,,yellow,triangle
0.0,2.0,1.0,0.0,6.0,6.0,356.5513220000866,1.0,1.0,phase_2,go,250.0,200.0,1.0,,,,,,,,,orange,circle
0.0,4.0,4.0,0.0,5.0,5.0,412.3522220006634,1.0,1.0,phase_2,go,250.0,200.0,1.0,,,,,,,,,gray,square
0.0,1.0,0.5,0.0,6.0,6.0,365.5579280002712,1.0,1.0,phase_2,go,250.0,200.0,1.0,,,,,,,,,blue,diamond
0.0,3.0,2.0,0.0,6.0,6.0,404.0283910007929,1.0,1.0,phase_2,go,250.0,200.0,1.0,,,,,,,,,magenta,cross
0.0,1.0,0.5,0.0,5.0,5.0,300.7887740004662,1.0,1.0,phase_2,go,250.0,200.0,1.0,,,,,,,,,blue,diamond
0.0,5.0,0.5,1.0,5.0,5.0,377.1014730000388,1.0,1.0,phase_2,stop,250.0,200.0,3.0,,,,,,,,,green,flipped triangle
0.0,8.0,4.0,1.0,5.0,5.0,337.0469060000687,1.0,1.0,phase_2,go,200.0,200.0,1.0,,,,,,,,,cyan,I
0.0,6.0,1.0,1.0,6.0,6.0,372.1564549996401,1.0,1.0,phase_2,stop,200.0,200.0,3.0,,,,,,,,,yellow,triangle
0.0,8.0,4.0,1.0,5.0,0.0,0.0,1.0,1.0,phase_2,stop,200.0,150.0,4.0,,,,,,,,,cyan,I
0.0,6.0,1.0,1.0,5.0,5.0,439.7039730001779,1.0,1.0,phase_2,go,250.0,150.0,1.0,,,,,,,,,yellow,triangle
0.0,3.0,2.0,0.0,6.0,6.0,514.172394000525,1.0,1.0,phase_2,go,250.0,150.0,1.0,,,,,,,,,magenta,cross
0.0,4.0,4.0,0.0,5.0,5.0,402.2331910000503,1.0,1.0,phase_2,go,250.0,150.0,1.0,,,,,,,,,gray,square
0.0,2.0,1.0,0.0,6.0,6.0,384.1536139998425,1.0,1.0,phase_2,go,250.0,150.0,1.0,,,,,,,,,orange,circle
0.0,6.0,1.0,1.0,5.0,5.0,349.233656999786,1.0,1.0,phase_2,stop,250.0,150.0,3.0,,,,,,,,,yellow,triangle
0.0,5.0,0.5,1.0,5.0,5.0,320.4774880005061,1.0,1.0,phase_2,stop,200.0,150.0,3.0,,,,,,,,,green,flipped triangle
0.0,2.0,1.0,0.0,6.0,6.0,393.7663010001415,1.0,1.0,phase_2,go,150.0,150.0,1.0,,,,,,,,,orange,circle
0.0,7.0,2.0,1.0,5.0,0.0,0.0,1.0,1.0,phase_2,stop,150.0,150.0,4.0,,,,,,,,,white,hexagon
0.0,2.0,1.0,0.0,6.0,6.0,346.398390000104,1.0,1.0,phase_2,go,200.0,150.0,1.0,,,,,,,,,orange,circle
0.0,6.0,1.0,1.0,5.0,0.0,0.0,1.0,1.0,phase_2,stop,200.0,150.0,4.0,,,,,,,,,yellow,triangle
0.0,7.0,2.0,1.0,6.0,6.0,300.2185039995311,1.0,1.0,phase_2,go,250.0,150.0,1.0,,,,,,,,,white,hexagon
0.0,2.0,1.0,0.0,6.0,6.0,395.1682410006469,1.0,1.0,phase_2,go,250.0,150.0,1.0,,,,,,,,,orange,circle
0.0,8.0,4.0,1.0,6.0,6.0,375.8665459999974,1.0,1.0,phase_2,go,250.0,150.0,1.0,,,,,,,,,cyan,I
0.0,8.0,4.0,1.0,6.0,0.0,0.0,1.0,1.0,phase_2,stop,250.0,150.0,4.0,,,,,,,,,cyan,I
0.0,5.0,0.5,1.0,6.0,0.0,0.0,1.0,1.0,phase_2,stop,250.0,200.0,4.0,,,,,,,,,green,flipped triangle
0.0,7.0,2.0,1.0,5.0,5.0,495.7921710001756,1.0,1.0,phase_2,go,250.0,250.0,1.0,,,,,,,,,white,hexagon
0.0,3.0,2.0,0.0,5.0,5.0,308.8635570002225,1.0,1.0,phase_2,go,250.0,250.0,1.0,,,,,,,,,magenta,cross
0.0,5.0,0.5,1.0,6.0,6.0,507.4923940001099,1.0,1.0,phase_2,go,250.0,250.0,1.0,,,,,,,,,green,flipped triangle
0.0,2.0,1.0,0.0,5.0,5.0,420.1144560001921,1.0,1.0,phase_2,go,250.0,250.0,1.0,,,,,,,,,orange,circle
0.0,1.0,0.5,0.0,6.0,6.0,317.278757999702,1.0,1.0,phase_2,go,250.0,250.0,1.0,,,,,,,,,blue,diamond
0.0,7.0,2.0,1.0,6.0,6.0,486.3118170005691,2.0,1.0,phase_2,stop,250.0,250.0,3.0,,,,,,,,,white,hexagon
0.0,3.0,2.0,0.0,6.0,6.0,413.4544879998429,2.0,1.0,phase_2,go,250.0,200.0,1.0,,,,,,,,,magenta,cross
0.0,8.0,4.0,1.0,5.0,5.0,348.0781199996272,2.0,1.0,phase_2,stop,250.0,200.0,3.0,,,,,,,,,cyan,I
0.0,6.0,1.0,1.0,5.0,0.0,0.0,2.0,1.0,phase_2,stop,200.0,200.0,4.0,,,,,,,,,yellow,triangle
0.0,4.0,4.0,0.0,6.0,6.0,394.4256160002624,2.0,1.0,phase_2,go,250.0,200.0,1.0,,,,,,,,,gray,square
0.0,8.0,4.0,1.0,5.0,0.0,0.0,2.0,1.0,phase_2,stop,250.0,200.0,4.0,,,,,,,,,cyan,I
0.0,3.0,2.0,0.0,5.0,5.0,366.4909609997266,2.0,1.0,phase_2,go,300.0,200.0,1.0,,,,,,,,,magenta,cross
0.0,6.0,1.0,1.0,6.0,6.0,311.3453450005181,2.0,1.0,phase_2,stop,300.0,200.0,3.0,,,,,,,,,yellow,triangle
0.0,1.0,0.5,0.0,6.0,6.0,477.7707960001862,2.0,1.0,phase_2,go,300.0,150.0,1.0,,,,,,,,,blue,diamond
0.0,6.0,1.0,1.0,6.0,0.0,0.0,2.0,1.0,phase_2,stop,300.0,150.0,4.0,,,,,,,,,yellow,triangle
0.0,8.0,4.0,1.0,6.0,6.0,554.1327520004415,2.0,1.0,phase_2,go,300.0,200.0,1.0,,,,,,,,,cyan,I
0.0,5.0,0.5,1.0,6.0,6.0,553.6791399999856,2.0,1.0,phase_2,go,300.0,200.0,1.0,,,,,,,,,green,flipped triangle
0.0,6.0,1.0,1.0,6.0,6.0,368.7633940007799,2.0,1.0,phase_2,stop,300.0,200.0,3.0,,,,,,,,,yellow,triangle
0.0,2.0,1.0,0.0,5.0,5.0,452.7814260000014,2.0,1.0,phase_2,go,300.0,150.0,1.0,,,,,,,,,orange,circle
0.0,7.0,2.0,1.0,6.0,0.0,0.0,2.0,1.0,phase_2,stop,300.0,150.0,4.0,,,,,,,,,white,hexagon
0.0,4.0,4.0,0.0,6.0,6.0,403.9212710003994,2.0,1.0,phase_2,go,300.0,200.0,1.0,,,,,,,,,gray,square
0.0,3.0,2.0,0.0,6.0,6.0,365.2511939999385,2.0,1.0,phase_2,go,300.0,200.0,1.0,,,,,,,,,magenta,cross
0.0,2.0,1.0,0.0,5.0,5.0,357.7203899994856,2.0,1.0,phase_2,go,300.0,200.0,1.0,,,,,,,,,orange,circle
0.0,6.0,1.0,1.0,6.0,6.0,331.0109760004707,2.0,1.0,phase_2,stop,300.0,200.0,3.0,,,,,,,,,yellow,triangle
0.0,1.0,0.5,0.0,5.0,5.0,319.265376999283,2.0,1.0,phase_2,go,300.0,150.0,1.0,,,,,,,,,blue,diamond
0.0,6.0,1.0,1.0,5.0,5.0,413.1189439995069,2.0,1.0,phase_2,stop,300.0,150.0,3.0,,,,,,,,,yellow,triangle
0.0,3.0,2.0,0.0,5.0,5.0,646.9735119999314,2.0,1.0,phase_2,go,250.0,150.0,1.0,,,,,,,,,magenta,cross
0.0,5.0,0.5,1.0,6.0,0.0,0.0,2.0,1.0,phase_2,stop,250.0,150.0,4.0,,,,,,,,,green,flipped triangle
0.0,1.0,0.5,0.0,5.0,5.0,450.398961999781,2.0,1.0,phase_2,go,250.0,200.0,1.0,,,,,,,,,blue,diamond
0.0,1.0,0.5,0.0,5.0,5.0,348.021726999832,2.0,1.0,phase_2,go,250.0,200.0,1.0,,,,,,,,,blue,diamond
0.0,5.0,0.5,1.0,5.0,5.0,382.3160170004485,2.0,1.0,phase_2,stop,250.0,200.0,3.0,,,,,,,,,green,flipped triangle
0.0,8.0,4.0,1.0,5.0,5.0,572.6931250001144,2.0,1.0,phase_2,go,200.0,200.0,1.0,,,,,,,,,cyan,I
0.0,7.0,2.0,1.0,6.0,6.0,393.6787760003426,2.0,1.0,phase_2,stop,200.0,200.0,3.0,,,,,,,,,white,hexagon
0.0,7.0,2.0,1.0,6.0,0.0,0.0,2.0,1.0,phase_2,stop,200.0,150.0,4.0,,,,,,,,,white,hexagon
0.0,1.0,0.5,0.0,6.0,6.0,516.1089680004807,2.0,1.0,phase_2,go,200.0,200.0,1.0,,,,,,,,,blue,diamond
0.0,4.0,4.0,0.0,5.0,5.0,458.8416000005964,2.0,1.0,phase_2,go,200.0,200.0,1.0,,,,,,,,,gray,square
0.0,3.0,2.0,0.0,6.0,6.0,385.7551570008581,2.0,1.0,phase_2,go,200.0,200.0,1.0,,,,,,,,,magenta,cross
0.0,1.0,0.5,0.0,5.0,5.0,337.8610769996157,2.0,1.0,phase_2,go,200.0,200.0,1.0,,,,,,,,,blue,diamond
0.0,1.0,0.5,0.0,5.0,5.0,394.0151209999385,2.0,1.0,phase_2,go,200.0,200.0,1.0,,,,,,,,,blue,diamond
0.0,7.0,2.0,1.0,5.0,5.0,383.5159390000626,2.0,1.0,phase_2,go,200.0,200.0,1.0,,,,,,,,,white,hexagon
0.0,5.0,0.5,1.0,5.0,5.0,563.3715009998923,2.0,1.0,phase_2,go,200.0,200.0,1.0,,,,,,,,,green,flipped triangle
0.0,2.0,1.0,0.0,6.0,6.0,479.1297970004962,3.0,1.0,phase_2,go,200.0,200.0,1.0,,,,,,,,,orange,circle
0.0,3.0,2.0,0.0,5.0,5.0,374.7615000002042,3.0,1.0,phase_2,go,200.0,200.0,1.0,,,,,,,,,magenta,cross
0.0,5.0,0.5,1.0,5.0,5.0,358.7548440000319,3.0,1.0,phase_2,stop,200.0,200.0,3.0,,,,,,,,,green,flipped triangle
0.0,8.0,4.0,1.0,5.0,0.0,0.0,3.0,1.0,phase_2,stop,150.0,200.0,4.0,,,,,,,,,cyan,I
0.0,4.0,4.0,0.0,6.0,6.0,365.0469009999142,3.0,1.0,phase_2,go,200.0,200.0,1.0,,,,,,,,,gray,square
0.0,8.0,4.0,1.0,5.0,5.0,413.1648540005699,3.0,1.0,phase_2,go,200.0,200.0,1.0,,,,,,,,,cyan,I
0.0,5.0,0.5,1.0,6.0,6.0,395.8434139995006,3.0,1.0,phase_2,stop,200.0,200.0,3.0,,,,,,,,,green,flipped triangle
0.0,3.0,2.0,0.0,6.0,6.0,449.8546650002026,3.0,1.0,phase_2,go,200.0,150.0,1.0,,,,,,,,,magenta,cross
0.0,6.0,1.0,1.0,5.0,0.0,0.0,3.0,1.0,phase_2,stop,200.0,150.0,4.0,,,,,,,,,yellow,triangle
0.0,1.0,0.5,0.0,5.0,5.0,470.5040930002724,3.0,1.0,phase_2,go,250.0,150.0,1.0,,,,,,,,,blue,diamond
0.0,6.0,1.0,1.0,6.0,0.0,0.0,3.0,1.0,phase_2,stop,250.0,150.0,4.0,,,,,,,,,yellow,triangle
0.0,3.0,2.0,0.0,6.0,6.0,338.3209140001781,3.0,1.0,phase_2,go,250.0,200.0,1.0,,,,,,,,,magenta,cross
0.0,7.0,2.0,1.0,6.0,6.0,331.428799000605,3.0,1.0,phase_2,stop,250.0,200.0,3.0,,,,,,,,,white,hexagon
0.0,8.0,4.0,1.0,5.0,5.0,346.2962869998591,3.0,1.0,phase_2,stop,250.0,150.0,3.0,,,,,,,,,cyan,I
0.0,2.0,1.0,0.0,6.0,6.0,450.3390700001546,3.0,1.0,phase_2,go,200.0,150.0,1.0,,,,,,,,,orange,circle
0.0,8.0,4.0,1.0,5.0,0.0,0.0,3.0,1.0,phase_2,stop,200.0,150.0,4.0,,,,,,,,,cyan,I
0.0,3.0,2.0,0.0,5.0,5.0,544.7460549994503,3.0,1.0,phase_2,go,250.0,150.0,1.0,,,,,,,,,magenta,cross
0.0,4.0,4.0,0.0,5.0,5.0,421.5043020003577,3.0,1.0,phase_2,go,250.0,150.0,1.0,,,,,,,,,gray,square
0.0,1.0,0.5,0.0,6.0,6.0,431.1232030004248,3.0,1.0,phase_2,go,250.0,150.0,1.0,,,,,,,,,blue,diamond
0.0,5.0,0.5,1.0,5.0,5.0,488.7821199999962,3.0,1.0,phase_2,go,250.0,150.0,1.0,,,,,,,,,green,flipped triangle
0.0,8.0,4.0,1.0,5.0,5.0,372.7465160000065,3.0,1.0,phase_2,stop,250.0,150.0,3.0,,,,,,,,,cyan,I
0.0,5.0,0.5,1.0,6.0,6.0,366.0819750002702,3.0,1.0,phase_2,stop,200.0,150.0,3.0,,,,,,,,,green,flipped triangle
0.0,2.0,1.0,0.0,6.0,6.0,489.3865770000047,3.0,1.0,phase_2,go,200.0,100.0,1.0,,,,,,,,,orange,circle
0.0,7.0,2.0,1.0,6.0,6.0,349.2564669995772,3.0,1.0,phase_2,go,200.0,100.0,1.0,,,,,,,,,white,hexagon
0.0,4.0,4.0,0.0,5.0,5.0,319.1266969997741,3.0,1.0,phase_2,go,200.0,100.0,1.0,,,,,,,,,gray,square
0.0,2.0,1.0,0.0,5.0,5.0,412.9522289995293,3.0,1.0,phase_2,go,200.0,100.0,1.0,,,,,,,,,orange,circle
0.0,4.0,4.0,0.0,5.0,5.0,301.5671310004109,3.0,1.0,phase_2,go,200.0,100.0,1.0,,,,,,,,,gray,square
0.0,8.0,4.0,1.0,6.0,0.0,0.0,3.0,1.0,phase_2,stop,200.0,100.0,4.0,,,,,,,,,cyan,I
0.0,8.0,4.0,1.0,6.0,6.0,385.0828419999743,3.0,1.0,phase_2,go,200.0,150.0,1.0,,,,,,,,,cyan,I
0.0,8.0,4.0,1.0,6.0,0.0,0.0,3.0,1.0,phase_2,stop,200.0,150.0,4.0,,,,,,,,,cyan,I
0.0,5.0,0.5,1.0,5.0,5.0,346.7075250000562,3.0,1.0,phase_2,stop,200.0,200.0,3.0,,,,,,,,,green,flipped triangle
0.0,1.0,0.5,0.0,5.0,5.0,516.2206350005363,3.0,1.0,phase_2,go,150.0,200.0,1.0,,,,,,,,,blue,diamond
0.0,7.0,2.0,1.0,6.0,6.0,384.2516119993888,3.0,1.0,phase_2,stop,150.0,200.0,3.0,,,,,,,,,white,hexagon
0.0,5.0,0.5,1.0,5.0,5.0,368.1885639998654,3.0,1.0,phase_2,stop,150.0,150.0,3.0,,,,,,,,,green,flipped triangle
0.0,6.0,1.0,1.0,6.0,0.0,0.0,3.0,1.0,phase_2,stop,100.0,150.0,4.0,,,,,,,,,yellow,triangle
0.0,4.0,4.0,0.0,6.0,6.0,536.0687480006163,3.0,1.0,phase_2,go,100.0,200.0,1.0,,,,,,,,,gray,square
0.0,3.0,2.0,0.0,5.0,5.0,543.6762950002958,4.0,1.0,phase_2,go,100.0,200.0,1.0,,,,,,,,,magenta,cross
0.0,1.0,0.5,0.0,5.0,5.0,357.8539059999457,4.0,1.0,phase_2,go,100.0,200.0,1.0,,,,,,,,,blue,diamond
0.0,8.0,4.0,1.0,6.0,6.0,431.7009930000495,4.0,1.0,phase_2,stop,100.0,200.0,3.0,,,,,,,,,cyan,I
0.0,5.0,0.5,1.0,6.0,6.0,459.9059199999828,4.0,1.0,phase_2,go,100.0,150.0,1.0,,,,,,,,,green,flipped triangle
0.0,4.0,4.0,0.0,5.0,5.0,487.797056999625,4.0,1.0,phase_2,go,100.0,150.0,1.0,,,,,,,,,gray,square
0.0,7.0,2.0,1.0,5.0,0.0,0.0,4.0,1.0,phase_2,stop,100.0,150.0,4.0,,,,,,,,,white,hexagon
0.0,2.0,1.0,0.0,5.0,5.0,403.7470800003575,4.0,1.0,phase_2,go,150.0,150.0,1.0,,,,,,,,,orange,circle
0.0,6.0,1.0,1.0,5.0,0.0,0.0,4.0,1.0,phase_2,stop,150.0,150.0,4.0,,,,,,,,,yellow,triangle
0.0,7.0,2.0,1.0,6.0,6.0,361.9537680006033,4.0,1.0,phase_2,stop,200.0,150.0,3.0,,,,,,,,,white,hexagon
0.0,6.0,1.0,1.0,5.0,0.0,0.0,4.0,1.0,phase_2,stop,200.0,100.0,4.0,,,,,,,,,yellow,triangle
0.0,3.0,2.0,0.0,5.0,5.0,488.0586850003965,4.0,1.0,phase_2,go,250.0,100.0,1.0,,,,,,,,,magenta,cross
0.0,3.0,2.0,0.0,5.0,5.0,431.5674629997375,4.0,1.0,phase_2,go,250.0,100.0,1.0,,,,,,,,,magenta,cross
0.0,2.0,1.0,0.0,5.0,5.0,421.2267319999228,4.0,1.0,phase_2,go,250.0,100.0,1.0,,,,,,,,,orange,circle
0.0,4.0,4.0,0.0,5.0,5.0,366.7682909999712,4.0,1.0,phase_2,go,250.0,100.0,1.0,,,,,,,,,gray,square
0.0,3.0,2.0,0.0,5.0,5.0,366.8851809998159,4.0,1.0,phase_2,go,250.0,100.0,1.0,,,,,,,,,magenta,cross
0.0,3.0,2.0,0.0,6.0,6.0,502.03135300034774,4.0,1.0,phase_2,go,250.0,100.0,1.0,,,,,,,,,magenta,cross
0.0,5.0,0.5,1.0,6.0,6.0,324.9242639994918,4.0,1.0,phase_2,stop,250.0,100.0,3.0,,,,,,,,,green,flipped triangle
0.0,1.0,0.5,0.0,6.0,6.0,403.6793559998841,4.0,1.0,phase_2,go,250.0,50.0,1.0,,,,,,,,,blue,diamond
0.0,2.0,1.0,0.0,5.0,5.0,421.9855040000766,4.0,1.0,phase_2,go,250.0,50.0,1.0,,,,,,,,,orange,circle
0.0,2.0,1.0,0.0,5.0,5.0,366.9078980001359,4.0,1.0,phase_2,go,250.0,50.0,1.0,,,,,,,,,orange,circle
0.0,1.0,0.5,0.0,6.0,6.0,459.1191660001641,4.0,1.0,phase_2,go,250.0,50.0,1.0,,,,,,,,,blue,diamond
0.0,8.0,4.0,1.0,5.0,5.0,346.2397799994505,4.0,1.0,phase_2,stop,250.0,50.0,3.0,,,,,,,,,cyan,I
0.0,8.0,4.0,1.0,6.0,0.0,0.0,4.0,1.0,phase_2,stop,200.0,50.0,4.0,,,,,,,,,cyan,I
0.0,4.0,4.0,0.0,5.0,5.0,432.0870259998628,4.0,1.0,phase_2,go,200.0,100.0,1.0,,,,,,,,,gray,square
0.0,8.0,4.0,1.0,5.0,5.0,328.2604109999738,4.0,1.0,phase_2,stop,200.0,100.0,3.0,,,,,,,,,cyan,I
0.0,3.0,2.0,0.0,5.0,5.0,468.5277059998043,4.0,1.0,phase_2,go,150.0,100.0,1.0,,,,,,,,,magenta,cross
0.0,5.0,0.5,1.0,5.0,0.0,0.0,4.0,1.0,phase_2,stop,150.0,100.0,4.0,,,,,,,,,green,flipped triangle
0.0,1.0,0.5,0.0,6.0,6.0,394.6807039992563,4.0,1.0,phase_2,go,200.0,100.0,1.0,,,,,,,,,blue,diamond
0.0,4.0,4.0,0.0,6.0,6.0,374.4367560002501,4.0,1.0,phase_2,go,200.0,100.0,1.0,,,,,,,,,gray,square
0.0,6.0,1.0,1.0,5.0,5.0,376.0647079998307,4.0,1.0,phase_2,go,200.0,100.0,1.0,,,,,,,,,yellow,triangle
0.0,8.0,4.0,1.0,5.0,5.0,414.9850439998772,4.0,1.0,phase_2,go,200.0,100.0,1.0,,,,,,,,,cyan,I
0.0,1.0,0.5,0.0,5.0,5.0,337.6572440001837,4.0,1.0,phase_2,go,200.0,100.0,1.0,,,,,,,,,blue,diamond
0.0,6.0,1.0,1.0,6.0,0.0,0.0,4.0,1.0,phase_2,stop,200.0,100.0,4.0,,,,,,,,,yellow,triangle
0.0,4.0,4.0,0.0,6.0,0.0,0.0,4.0,1.0,phase_2,go,200.0,150.0,5.0,,,,,,,,,gray,square
0.0,7.0,2.0,1.0,6.0,0.0,0.0,4.0,1.0,phase_2,stop,200.0,150.0,4.0,,,,,,,,,white,hexagon
0.0,8.0,4.0,1.0,5.0,5.0,431.3549929993314,4.0,1.0,phase_2,go,200.0,200.0,1.0,,,,,,,,,cyan,I
0.0,1.0,0.5,0.0,6.0,6.0,423.9011079998818,5.0,1.0,phase_2,go,200.0,200.0,1.0,,,,,,,,,blue,diamond
0.0,5.0,0.5,1.0,6.0,6.0,407.2910240001874,5.0,1.0,phase_2,stop,200.0,200.0,3.0,,,,,,,,,green,flipped triangle
0.0,6.0,1.0,1.0,5.0,0.0,0.0,5.0,1.0,phase_2,stop,200.0,150.0,4.0,,,,,,,,,yellow,triangle
0.0,1.0,0.5,0.0,5.0,5.0,450.6536639992191,5.0,1.0,phase_2,go,250.0,150.0,1.0,,,,,,,,,blue,diamond
0.0,3.0,2.0,0.0,6.0,6.0,449.1358559998843,5.0,1.0,phase_2,go,250.0,150.0,1.0,,,,,,,,,magenta,cross
0.0,5.0,0.5,1.0,5.0,5.0,376.5473439998459,5.0,1.0,phase_2,stop,250.0,150.0,3.0,,,,,,,,,green,flipped triangle
0.0,8.0,4.0,1.0,6.0,0.0,0.0,5.0,1.0,phase_2,stop,200.0,150.0,4.0,,,,,,,,,cyan,I
0.0,1.0,0.5,0.0,6.0,6.0,430.8868150001217,5.0,1.0,phase_2,go,200.0,200.0,1.0,,,,,,,,,blue,diamond
0.0,2.0,1.0,0.0,5.0,5.0,356.7979969993757,5.0,1.0,phase_2,go,200.0,200.0,1.0,,,,,,,,,orange,circle
0.0,5.0,0.5,1.0,5.0,5.0,357.9080669996983,5.0,1.0,phase_2,stop,200.0,200.0,3.0,,,,,,,,,green,flipped triangle
0.0,2.0,1.0,0.0,5.0,5.0,450.9492369998042,5.0,1.0,phase_2,go,150.0,200.0,1.0,,,,,,,,,orange,circle
0.0,8.0,4.0,1.0,6.0,6.0,442.6572320007835,5.0,1.0,phase_2,stop,150.0,200.0,3.0,,,,,,,,,cyan,I
0.0,7.0,2.0,1.0,5.0,5.0,941.1204210000506,5.0,1.0,phase_2,go,150.0,150.0,1.0,,,,,,,,,white,hexagon
0.0,1.0,0.5,0.0,6.0,6.0,461.4034120004362,5.0,1.0,phase_2,go,150.0,150.0,1.0,,,,,,,,,blue,diamond
0.0,1.0,0.5,0.0,6.0,6.0,469.8169479997887,5.0,1.0,phase_2,go,150.0,150.0,1.0,,,,,,,,,blue,diamond
0.0,8.0,4.0,1.0,6.0,0.0,0.0,5.0,1.0,phase_2,stop,150.0,150.0,4.0,,,,,,,,,cyan,I
0.0,5.0,0.5,1.0,6.0,0.0,0.0,5.0,1.0,phase_2,stop,150.0,200.0,4.0,,,,,,,,,green,flipped triangle
0.0,3.0,2.0,0.0,6.0,6.0,536.8648960002247,5.0,1.0,phase_2,go,150.0,250.0,1.0,,,,,,,,,magenta,cross
0.0,2.0,1.0,0.0,5.0,5.0,357.7952840005309,5.0,1.0,phase_2,go,150.0,250.0,1.0,,,,,,,,,orange,circle
0.0,7.0,2.0,1.0,6.0,6.0,366.8829910002387,5.0,1.0,phase_2,stop,150.0,250.0,3.0,,,,,,,,,white,hexagon
0.0,4.0,4.0,0.0,6.0,6.0,508.5497879999821,5.0,1.0,phase_2,go,150.0,200.0,1.0,,,,,,,,,gray,square
0.0,7.0,2.0,1.0,6.0,0.0,0.0,5.0,1.0,phase_2,stop,150.0,200.0,4.0,,,,,,,,,white,hexagon
0.0,7.0,2.0,1.0,5.0,0.0,0.0,5.0,1.0,phase_2,stop,150.0,250.0,4.0,,,,,,,,,white,hexagon
0.0,6.0,1.0,1.0,6.0,6.0,378.233667999666,5.0,1.0,phase_2,stop,200.0,250.0,3.0,,,,,,,,,yellow,triangle
0.0,5.0,0.5,1.0,5.0,5.0,404.9502690004374,5.0,1.0,phase_2,go,200.0,200.0,1.0,,,,,,,,,green,flipped triangle
0.0,4.0,4.0,0.0,6.0,6.0,431.172632000198,5.0,1.0,phase_2,go,200.0,200.0,1.0,,,,,,,,,gray,square
0.0,2.0,1.0,0.0,6.0,6.0,469.8539680002795,5.0,1.0,phase_2,go,200.0,200.0,1.0,,,,,,,,,orange,circle
0.0,8.0,4.0,1.0,6.0,6.0,348.988561000624,5.0,1.0,phase_2,stop,200.0,200.0,3.0,,,,,,,,,cyan,I
0.0,3.0,2.0,0.0,6.0,6.0,515.4997930003447,5.0,1.0,phase_2,go,200.0,150.0,1.0,,,,,,,,,magenta,cross
0.0,4.0,4.0,0.0,5.0,5.0,431.3671019999674,5.0,1.0,phase_2,go,200.0,150.0,1.0,,,,,,,,,gray,square
0.0,7.0,2.0,1.0,5.0,5.0,424.6425060000547,5.0,1.0,phase_2,stop,200.0,150.0,3.0,,,,,,,,,white,hexagon
0.0,6.0,1.0,1.0,6.0,0.0,0.0,5.0,1.0,phase_2,stop,150.0,150.0,4.0,,,,,,,,,yellow,triangle
0.0,2.0,1.0,0.0,5.0,5.0,469.7085469997546,5.0,1.0,phase_2,go,150.0,200.0,1.0,,,,,,,,,orange,circle
0.0,7.0,2.0,1.0,5.0,0.0,0.0,5.0,1.0,phase_2,stop,150.0,200.0,4.0,,,,,,,,,white,hexagon
0.0,3.0,2.0,0.0,5.0,5.0,526.573317999464,5.0,1.0,phase_2,go,200.0,200.0,1.0,,,,,,,,,magenta,cross
0.0,2.0,1.0,0.0,6.0,6.0,610.501185999965,5.0,1.0,phase_2,go,200.0,200.0,1.0,,,,,,,,,orange,circle
0.0,4.0,4.0,0.0,6.0,6.0,563.1884260001243,6.0,1.0,phase_2,go,200.0,200.0,1.0,,,,,,,,,gray,square
0.0,3.0,2.0,0.0,5.0,5.0,440.762729999733,6.0,1.0,phase_2,go,200.0,200.0,1.0,,,,,,,,,magenta,cross
0.0,6.0,1.0,1.0,6.0,6.0,347.3688800004311,6.0,1.0,phase_2,go,200.0,200.0,1.0,,,,,,,,,yellow,triangle
0.0,7.0,2.0,1.0,5.0,5.0,347.2584589999314,6.0,1.0,phase_2,go,200.0,200.0,1.0,,,,,,,,,white,hexagon
0.0,2.0,1.0,0.0,5.0,5.0,450.6814660007876,6.0,1.0,phase_2,go,200.0,200.0,1.0,,,,,,,,,orange,circle
0.0,8.0,4.0,1.0,6.0,0.0,0.0,6.0,1.0,phase_2,stop,200.0,200.0,4.0,,,,,,,,,cyan,I
0.0,6.0,1.0,1.0,6.0,6.0,387.6208070005305,6.0,1.0,phase_2,stop,200.0,250.0,3.0,,,,,,,,,yellow,triangle
0.0,3.0,2.0,0.0,5.0,5.0,488.3399609998378,6.0,1.0,phase_2,go,200.0,200.0,1.0,,,,,,,,,magenta,cross
0.0,1.0,0.5,0.0,5.0,5.0,404.2036970004119,6.0,1.0,phase_2,go,200.0,200.0,1.0,,,,,,,,,blue,diamond
0.0,7.0,2.0,1.0,5.0,5.0,503.3327390001432,6.0,1.0,phase_2,stop,200.0,200.0,3.0,,,,,,,,,white,hexagon
0.0,4.0,4.0,0.0,5.0,5.0,543.6744399994495,6.0,1.0,phase_2,go,150.0,200.0,1.0,,,,,,,,,gray,square
0.0,6.0,1.0,1.0,6.0,6.0,410.8947900003841,6.0,1.0,phase_2,stop,150.0,200.0,3.0,,,,,,,,,yellow,triangle
0.0,8.0,4.0,1.0,6.0,0.0,0.0,6.0,1.0,phase_2,stop,150.0,150.0,4.0,,,,,,,,,cyan,I
0.0,2.0,1.0,0.0,5.0,5.0,376.0271359997205,6.0,1.0,phase_2,go,150.0,200.0,1.0,,,,,,,,,orange,circle
0.0,5.0,0.5,1.0,6.0,0.0,0.0,6.0,1.0,phase_2,stop,150.0,200.0,4.0,,,,,,,,,green,flipped triangle
0.0,3.0,2.0,0.0,6.0,6.0,561.9009419997383,6.0,1.0,phase_2,go,150.0,250.0,1.0,,,,,,,,,magenta,cross
0.0,4.0,4.0,0.0,6.0,6.0,607.7118729999711,6.0,1.0,phase_2,go,150.0,250.0,1.0,,,,,,,,,gray,square
0.0,3.0,2.0,0.0,6.0,6.0,450.7141619997128,6.0,1.0,phase_2,go,150.0,250.0,1.0,,,,,,,,,magenta,cross
0.0,2.0,1.0,0.0,6.0,6.0,420.6777669996882,6.0,1.0,phase_2,go,150.0,250.0,1.0,,,,,,,,,orange,circle
0.0,6.0,1.0,1.0,6.0,6.0,375.1991589997487,6.0,1.0,phase_2,go,150.0,250.0,1.0,,,,,,,,,yellow,triangle
0.0,4.0,4.0,0.0,6.0,6.0,516.2934050003969,6.0,1.0,phase_2,go,150.0,250.0,1.0,,,,,,,,,gray,square
0.0,7.0,2.0,1.0,6.0,6.0,431.8446320003204,6.0,1.0,phase_2,stop,150.0,250.0,3.0,,,,,,,,,white,hexagon
0.0,3.0,2.0,0.0,5.0,5.0,431.2305530002049,6.0,1.0,phase_2,go,150.0,200.0,1.0,,,,,,,,,magenta,cross
0.0,2.0,1.0,0.0,6.0,6.0,505.9048660004919,6.0,1.0,phase_2,go,150.0,200.0,1.0,,,,,,,,,orange,circle
0.0,7.0,2.0,1.0,6.0,6.0,375.3054420003536,6.0,1.0,phase_2,stop,150.0,200.0,3.0,,,,,,,,,white,hexagon
0.0,2.0,1.0,0.0,6.0,6.0,479.2154100005064,6.0,1.0,phase_2,go,150.0,150.0,1.0,,,,,,,,,orange,circle
0.0,4.0,4.0,0.0,6.0,6.0,468.6893210000562,6.0,1.0,phase_2,go,150.0,150.0,1.0,,,,,,,,,gray,square
0.0,4.0,4.0,0.0,6.0,6.0,432.0918009998422,6.0,1.0,phase_2,go,150.0,150.0,1.0,,,,,,,,,gray,square
0.0,2.0,1.0,0.0,5.0,5.0,412.5869429999511,6.0,1.0,phase_2,go,150.0,150.0,1.0,,,,,,,,,orange,circle
0.0,5.0,0.5,1.0,6.0,6.0,324.2860059999657,6.0,1.0,phase_2,stop,150.0,150.0,3.0,,,,,,,,,green,flipped triangle
0.0,3.0,2.0,0.0,5.0,5.0,337.5479189999169,6.0,1.0,phase_2,go,150.0,100.0,1.0,,,,,,,,,magenta,cross
0.0,2.0,1.0,0.0,5.0,5.0,404.005729000346,6.0,1.0,phase_2,go,150.0,100.0,1.0,,,,,,,,,orange,circle
0.0,7.0,2.0,1.0,5.0,0.0,0.0,6.0,1.0,phase_2,stop,150.0,100.0,4.0,,,,,,,,,white,hexagon
0.0,5.0,0.5,1.0,6.0,6.0,365.5174549994626,6.0,1.0,phase_2,stop,200.0,100.0,3.0,,,,,,,,,green,flipped triangle
0.0,5.0,0.5,1.0,5.0,0.0,0.0,6.0,1.0,phase_2,stop,200.0,50.0,4.0,,,,,,,,,green,flipped triangle
0.0,6.0,1.0,1.0,6.0,6.0,356.7565369994554,6.0,1.0,phase_2,go,250.0,50.0,1.0,,,,,,,,,yellow,triangle
0.0,1.0,0.5,0.0,5.0,5.0,460.1595990006899,7.0,1.0,phase_2,go,250.0,50.0,1.0,,,,,,,,,blue,diamond
0.0,3.0,2.0,0.0,6.0,6.0,394.5101660001455,7.0,1.0,phase_2,go,250.0,50.0,1.0,,,,,,,,,magenta,cross
0.0,8.0,4.0,1.0,5.0,5.0,386.6046909997749,7.0,1.0,phase_2,stop,250.0,50.0,3.0,,,,,,,,,cyan,I
0.0,5.0,0.5,1.0,5.0,5.0,399.2543490003299,7.0,1.0,phase_2,stop,200.0,50.0,3.0,,,,,,,,,green,flipped triangle
0.0,7.0,2.0,1.0,6.0,6.0,479.5092590002241,7.0,1.0,phase_2,go,150.0,50.0,1.0,,,,,,,,,white,hexagon
0.0,5.0,0.5,1.0,5.0,5.0,525.6214959999852,7.0,1.0,phase_2,go,150.0,50.0,1.0,,,,,,,,,green,flipped triangle
0.0,4.0,4.0,0.0,6.0,6.0,460.0217229999543,7.0,1.0,phase_2,go,150.0,50.0,1.0,,,,,,,,,gray,square
0.0,7.0,2.0,1.0,5.0,0.0,0.0,7.0,1.0,phase_2,stop,150.0,50.0,4.0,,,,,,,,,white,hexagon
0.0,1.0,0.5,0.0,5.0,5.0,347.3965960001806,7.0,1.0,phase_2,go,200.0,50.0,1.0,,,,,,,,,blue,diamond
0.0,2.0,1.0,0.0,5.0,5.0,434.0834599997833,7.0,1.0,phase_2,go,200.0,50.0,1.0,,,,,,,,,orange,circle
0.0,4.0,4.0,0.0,5.0,5.0,403.3176580005602,7.0,1.0,phase_2,go,200.0,50.0,1.0,,,,,,,,,gray,square
0.0,6.0,1.0,1.0,5.0,0.0,0.0,7.0,1.0,phase_2,stop,200.0,50.0,4.0,,,,,,,,,yellow,triangle
0.0,2.0,1.0,0.0,6.0,6.0,424.8951760000636,7.0,1.0,phase_2,go,250.0,50.0,1.0,,,,,,,,,orange,circle
0.0,6.0,1.0,1.0,5.0,5.0,393.450713000675,7.0,1.0,phase_2,go,250.0,50.0,1.0,,,,,,,,,yellow,triangle
0.0,4.0,4.0,0.0,6.0,6.0,395.1623430002655,7.0,1.0,phase_2,go,250.0,50.0,1.0,,,,,,,,,gray,square
0.0,5.0,0.5,1.0,6.0,6.0,368.3955479991709,7.0,1.0,phase_2,go,250.0,50.0,1.0,,,,,,,,,green,flipped triangle
0.0,8.0,4.0,1.0,6.0,0.0,0.0,7.0,1.0,phase_2,stop,250.0,50.0,4.0,,,,,,,,,cyan,I
0.0,5.0,0.5,1.0,6.0,6.0,481.1426900005244,7.0,1.0,phase_2,go,250.0,100.0,1.0,,,,,,,,,green,flipped triangle
0.0,1.0,0.5,0.0,6.0,6.0,423.5764479999488,7.0,1.0,phase_2,go,250.0,100.0,1.0,,,,,,,,,blue,diamond
0.0,5.0,0.5,1.0,6.0,0.0,0.0,7.0,1.0,phase_2,stop,250.0,100.0,4.0,,,,,,,,,green,flipped triangle
0.0,4.0,4.0,0.0,5.0,5.0,374.8723690005136,7.0,1.0,phase_2,go,250.0,150.0,1.0,,,,,,,,,gray,square
0.0,2.0,1.0,0.0,5.0,5.0,375.13124799988867,7.0,1.0,phase_2,go,250.0,150.0,1.0,,,,,,,,,orange,circle
0.0,6.0,1.0,1.0,5.0,5.0,356.3637510005719,7.0,1.0,phase_2,stop,250.0,150.0,3.0,,,,,,,,,yellow,triangle
0.0,1.0,0.5,0.0,5.0,5.0,347.3982619998423,7.0,1.0,phase_2,go,200.0,150.0,1.0,,,,,,,,,blue,diamond
0.0,4.0,4.0,0.0,6.0,6.0,375.6455430002461,7.0,1.0,phase_2,go,200.0,150.0,1.0,,,,,,,,,gray,square
0.0,7.0,2.0,1.0,5.0,5.0,384.0607410002121,7.0,1.0,phase_2,go,200.0,150.0,1.0,,,,,,,,,white,hexagon
0.0,6.0,1.0,1.0,5.0,5.0,377.0366059998196,7.0,1.0,phase_2,go,200.0,150.0,1.0,,,,,,,,,yellow,triangle
0.0,6.0,1.0,1.0,5.0,5.0,351.0092789992995,7.0,1.0,phase_2,stop,200.0,150.0,3.0,,,,,,,,,yellow,triangle
0.0,4.0,4.0,0.0,5.0,5.0,393.5913029999938,7.0,1.0,phase_2,go,150.0,150.0,1.0,,,,,,,,,gray,square
0.0,6.0,1.0,1.0,6.0,6.0,451.1377060007362,7.0,1.0,phase_2,go,150.0,150.0,1.0,,,,,,,,,yellow,triangle
0.0,4.0,4.0,0.0,5.0,5.0,364.7742399998606,7.0,1.0,phase_2,go,150.0,150.0,1.0,,,,,,,,,gray,square
0.0,4.0,4.0,0.0,5.0,5.0,365.1591979996738,7.0,1.0,phase_2,go,150.0,150.0,1.0,,,,,,,,,gray,square
0.0,5.0,0.5,1.0,6.0,0.0,0.0,7.0,1.0,phase_2,stop,150.0,150.0,4.0,,,,,,,,,green,flipped triangle
0.0,8.0,4.0,1.0,5.0,5.0,356.8885469994711,7.0,1.0,phase_2,stop,150.0,200.0,3.0,,,,,,,,,cyan,I
0.0,3.0,2.0,0.0,5.0,5.0,450.1774350001142,7.0,1.0,phase_2,go,100.0,200.0,1.0,,,,,,,,,magenta,cross
0.0,2.0,1.0,0.0,6.0,6.0,423.0703260000155,7.0,1.0,phase_2,go,100.0,200.0,1.0,,,,,,,,,orange,circle
0.0,3.0,2.0,0.0,6.0,6.0,637.8248569999414,8.0,1.0,phase_2,go,100.0,200.0,1.0,,,,,,,,,magenta,cross
0.0,4.0,4.0,0.0,6.0,6.0,357.384816999911,8.0,1.0,phase_2,go,100.0,200.0,1.0,,,,,,,,,gray,square
0.0,5.0,0.5,1.0,5.0,0.0,0.0,8.0,1.0,phase_2,stop,100.0,200.0,4.0,,,,,,,,,green,flipped triangle
0.0,3.0,2.0,0.0,6.0,6.0,385.2669130001231,8.0,1.0,phase_2,go,150.0,200.0,1.0,,,,,,,,,magenta,cross
0.0,1.0,0.5,0.0,6.0,6.0,377.1699189992432,8.0,1.0,phase_2,go,150.0,200.0,1.0,,,,,,,,,blue,diamond
0.0,5.0,0.5,1.0,5.0,0.0,0.0,8.0,1.0,phase_2,stop,150.0,200.0,4.0,,,,,,,,,green,flipped triangle
0.0,1.0,0.5,0.0,6.0,6.0,346.7660779997459,8.0,1.0,phase_2,go,200.0,200.0,1.0,,,,,,,,,blue,diamond
0.0,6.0,1.0,1.0,6.0,0.0,0.0,8.0,1.0,phase_2,stop,200.0,200.0,4.0,,,,,,,,,yellow,triangle
0.0,1.0,0.5,0.0,5.0,5.0,468.3839220006121,8.0,1.0,phase_2,go,200.0,250.0,1.0,,,,,,,,,blue,diamond
0.0,2.0,1.0,0.0,6.0,6.0,463.2703850002144,8.0,1.0,phase_2,go,200.0,250.0,1.0,,,,,,,,,orange,circle
0.0,7.0,2.0,1.0,5.0,5.0,430.3108639996935,8.0,1.0,phase_2,go,200.0,250.0,1.0,,,,,,,,,white,hexagon
0.0,2.0,1.0,0.0,6.0,6.0,393.5548809995453,8.0,1.0,phase_2,go,200.0,250.0,1.0,,,,,,,,,orange,circle
0.0,8.0,4.0,1.0,6.0,6.0,403.2938889995421,8.0,1.0,phase_2,go,200.0,250.0,1.0,,,,,,,,,cyan,I
0.0,7.0,2.0,1.0,6.0,6.0,417.2269629998482,8.0,1.0,phase_2,stop,200.0,250.0,3.0,,,,,,,,,white,hexagon
0.0,7.0,2.0,1.0,6.0,0.0,0.0,8.0,1.0,phase_2,stop,200.0,200.0,4.0,,,,,,,,,white,hexagon
0.0,4.0,4.0,0.0,5.0,5.0,403.1255520003469,8.0,1.0,phase_2,go,200.0,250.0,1.0,,,,,,,,,gray,square
0.0,4.0,4.0,0.0,5.0,5.0,430.9323939996829,8.0,1.0,phase_2,go,200.0,250.0,1.0,,,,,,,,,gray,square
0.0,8.0,4.0,1.0,5.0,0.0,0.0,8.0,1.0,phase_2,stop,200.0,250.0,4.0,,,,,,,,,cyan,I
0.0,4.0,4.0,0.0,6.0,6.0,488.0896730001041,8.0,1.0,phase_2,go,250.0,250.0,1.0,,,,,,,,,gray,square
0.0,8.0,4.0,1.0,5.0,0.0,0.0,8.0,1.0,phase_2,stop,250.0,250.0,4.0,,,,,,,,,cyan,I
0.0,1.0,0.5,0.0,5.0,5.0,459.4045049998385,8.0,1.0,phase_2,go,300.0,250.0,1.0,,,,,,,,,blue,diamond
0.0,1.0,0.5,0.0,6.0,6.0,394.6045470001991,8.0,1.0,phase_2,go,300.0,250.0,1.0,,,,,,,,,blue,diamond
0.0,7.0,2.0,1.0,6.0,6.0,378.8652690000162,8.0,1.0,phase_2,stop,300.0,250.0,3.0,,,,,,,,,white,hexagon
0.0,8.0,4.0,1.0,6.0,0.0,0.0,8.0,1.0,phase_2,stop,300.0,200.0,4.0,,,,,,,,,cyan,I
0.0,7.0,2.0,1.0,5.0,5.0,425.662224000007,8.0,1.0,phase_2,stop,300.0,250.0,3.0,,,,,,,,,white,hexagon
0.0,3.0,2.0,0.0,6.0,6.0,514.8406150001392,8.0,1.0,phase_2,go,250.0,250.0,1.0,,,,,,,,,magenta,cross
0.0,3.0,2.0,0.0,5.0,5.0,367.0972469999469,8.0,1.0,phase_2,go,250.0,250.0,1.0,,,,,,,,,magenta,cross
0.0,8.0,4.0,1.0,6.0,6.0,392.029029000696,8.0,1.0,phase_2,stop,250.0,250.0,3.0,,,,,,,,,cyan,I
0.0,6.0,1.0,1.0,5.0,5.0,346.9183669994891,8.0,1.0,phase_2,stop,250.0,200.0,3.0,,,,,,,,,yellow,triangle
0.0,3.0,2.0,0.0,5.0,5.0,384.7346339998694,8.0,1.0,phase_2,go,200.0,200.0,1.0,,,,,,,,,magenta,cross
0.0,1.0,0.5,0.0,6.0,6.0,403.8618370004769,8.0,1.0,phase_2,go,200.0,200.0,1.0,,,,,,,,,blue,diamond
0.0,6.0,1.0,1.0,5.0,5.0,506.4362530001745,8.0,1.0,phase_2,go,200.0,200.0,1.0,,,,,,,,,yellow,triangle
0.0,7.0,2.0,1.0,5.0,5.0,362.1263550003277,8.0,1.0,phase_2,stop,200.0,200.0,3.0,,,,,,,,,white,hexagon
0.0,2.0,1.0,0.0,6.0,6.0,450.6047630002285,8.0,1.0,phase_2,go,150.0,200.0,1.0,,,,,,,,,orange,circle
0.0,1.0,0.5,0.0,6.0,6.0,337.9515210008321,8.0,1.0,phase_2,go,150.0,200.0,1.0,,,,,,,,,blue,diamond
0.0,6.0,1.0,1.0,6.0,0.0,0.0,8.0,1.0,phase_2,stop,150.0,200.0,4.0,,,,,,,,,yellow,triangle
0.0,1.0,0.5,0.0,7.0,3.0,1592.8050189995702,1.0,2.0,phase_3,,,,,576.0,3.0,960.0,384.0,576.0,768.0,1152.0,192.0,blue,diamond
0.0,3.0,2.0,0.0,7.0,5.0,0.4135099998165,1.0,1.0,phase_3,,,,,1038.0,6.0,519.0,173.0,692.0,865.0,1038.0,346.0,magenta,cross
0.0,1.0,0.5,0.0,7.0,4.0,2873.8534900003287,1.0,1.0,phase_3,,,,,462.0,3.0,154.0,616.0,924.0,462.0,770.0,308.0,blue,diamond
0.0,7.0,2.0,1.0,7.0,4.0,1069.4503169997915,1.0,1.0,phase_3,,,,,576.0,3.0,768.0,192.0,384.0,576.0,960.0,1152.0,white,hexagon
0.0,4.0,4.0,0.0,7.0,4.0,1886.7026879997863,1.0,1.0,phase_3,,,,,346.0,2.0,692.0,1038.0,519.0,346.0,173.0,865.0,gray,square
0.0,2.0,1.0,0.0,7.0,3.0,1726.2617269998373,1.0,1.0,phase_3,,,,,696.0,6.0,348.0,580.0,696.0,232.0,116.0,464.0,orange,circle
0.0,6.0,1.0,1.0,7.0,4.0,1328.0295429995022,1.0,1.0,phase_3,,,,,692.0,4.0,1038.0,519.0,865.0,692.0,346.0,173.0,yellow,triangle
0.0,3.0,2.0,0.0,7.0,6.0,1673.4694300002957,1.0,1.0,phase_3,,,,,696.0,6.0,348.0,116.0,232.0,580.0,464.0,696.0,magenta,cross
0.0,8.0,4.0,1.0,7.0,5.0,1976.9487350004056,1.0,1.0,phase_3,,,,,865.0,5.0,692.0,346.0,173.0,519.0,865.0,1038.0,cyan,I
0.0,8.0,4.0,1.0,7.0,3.0,1506.3600210005459,1.0,1.0,phase_3,,,,,810.0,6.0,675.0,405.0,810.0,540.0,135.0,270.0,cyan,I
0.0,4.0,4.0,0.0,7.0,1.0,1119.203603000642,1.0,1.0,phase_3,,,,,462.0,3.0,462.0,154.0,770.0,308.0,924.0,616.0,gray,square
0.0,3.0,2.0,0.0,7.0,5.0,1794.4487900003878,1.0,1.0,phase_3,,,,,576.0,3.0,1152.0,960.0,768.0,192.0,576.0,384.0,magenta,cross
0.0,1.0,0.5,0.0,7.0,6.0,1629.2541220000205,1.0,1.0,phase_3,,,,,616.0,4.0,154.0,770.0,308.0,462.0,924.0,616.0,blue,diamond
0.0,1.0,0.5,0.0,7.0,6.0,1647.4732200003928,1.0,1.0,phase_3,,,,,464.0,4.0,580.0,232.0,696.0,348.0,116.0,464.0,blue,diamond
0.0,1.0,0.5,0.0,7.0,3.0,1721.0556350000843,1.0,1.0,phase_3,,,,,540.0,4.0,675.0,810.0,540.0,135.0,270.0,405.0,blue,diamond
0.0,1.0,0.5,0.0,7.0,2.0,1368.2128440004817,1.0,1.0,phase_3,,,,,405.0,3.0,270.0,405.0,675.0,810.0,135.0,540.0,blue,diamond
0.0,4.0,4.0,0.0,7.0,1.0,1340.639332000137,1.0,1.0,phase_3,,,,,464.0,4.0,464.0,580.0,348.0,232.0,116.0,696.0,gray,square
0.0,1.0,0.5,0.0,7.0,5.0,2017.3568040008831,1.0,1.0,phase_3,,,,,384.0,2.0,768.0,960.0,576.0,1152.0,384.0,192.0,blue,diamond
0.0,6.0,1.0,1.0,7.0,2.0,800.5745710006522,1.0,1.0,phase_3,,,,,696.0,6.0,232.0,696.0,464.0,348.0,580.0,116.0,yellow,triangle
0.0,1.0,0.5,0.0,7.0,1.0,2092.184506999729,1.0,1.0,phase_3,,,,,519.0,3.0,519.0,865.0,173.0,1038.0,346.0,692.0,blue,diamond
0.0,6.0,1.0,1.0,7.0,4.0,1208.9833879999787,2.0,1.0,phase_3,,,,,696.0,6.0,116.0,348.0,232.0,696.0,580.0,464.0,yellow,triangle
0.0,8.0,4.0,1.0,7.0,6.0,1580.807707000531,2.0,1.0,phase_3,,,,,696.0,6.0,232.0,116.0,348.0,464.0,580.0,696.0,cyan,I
0.0,4.0,4.0,0.0,7.0,2.0,2152.8726149999784,2.0,1.0,phase_3,,,,,192.0,1.0,1152.0,192.0,768.0,960.0,576.0,384.0,gray,square
0.0,2.0,1.0,0.0,7.0,3.0,1904.8135789998923,2.0,1.0,phase_3,,,,,675.0,5.0,810.0,405.0,675.0,135.0,270.0,540.0,orange,circle
0.0,3.0,2.0,0.0,7.0,5.0,1286.6833019998012,2.0,1.0,phase_3,,,,,462.0,3.0,770.0,924.0,308.0,616.0,462.0,154.0,magenta,cross
0.0,6.0,1.0,1.0,7.0,1.0,2139.0570849998767,2.0,1.0,phase_3,,,,,576.0,3.0,576.0,192.0,1152.0,960.0,384.0,768.0,yellow,triangle
0.0,6.0,1.0,1.0,7.0,2.0,698.1212609998693,2.0,1.0,phase_3,,,,,540.0,4.0,675.0,540.0,810.0,405.0,270.0,135.0,yellow,triangle
0.0,2.0,1.0,0.0,7.0,5.0,1466.8944330005615,2.0,1.0,phase_3,,,,,405.0,3.0,675.0,270.0,135.0,540.0,405.0,810.0,orange,circle
0.0,3.0,2.0,0.0,7.0,6.0,1554.8606450001898,2.0,1.0,phase_3,,,,,576.0,3.0,192.0,1152.0,768.0,384.0,960.0,576.0,magenta,cross
0.0,2.0,1.0,0.0,7.0,2.0,1276.2760840005285,2.0,1.0,phase_3,,,,,616.0,4.0,462.0,616.0,154.0,924.0,770.0,308.0,orange,circle
0.0,3.0,2.0,0.0,7.0,6.0,2222.247509999761,2.0,1.0,phase_3,,,,,770.0,5.0,308.0,154.0,462.0,616.0,924.0,770.0,magenta,cross
0.0,8.0,4.0,1.0,7.0,5.0,1405.2114050000457,2.0,1.0,phase_3,,,,,960.0,5.0,1152.0,576.0,192.0,768.0,960.0,384.0,cyan,I
0.0,7.0,2.0,1.0,7.0,2.0,947.8383290006605,2.0,1.0,phase_3,,,,,464.0,4.0,348.0,464.0,696.0,116.0,232.0,580.0,white,hexagon
0.0,3.0,2.0,0.0,7.0,5.0,1063.256036999519,2.0,1.0,phase_3,,,,,464.0,4.0,580.0,232.0,696.0,116.0,464.0,348.0,magenta,cross
0.0,8.0,4.0,1.0,7.0,2.0,772.3693010002535,2.0,1.0,phase_3,,,,,770.0,5.0,154.0,770.0,462.0,616.0,308.0,924.0,cyan,I
0.0,5.0,0.5,1.0,7.0,1.0,909.5918700004404,2.0,1.0,phase_3,,,,,770.0,5.0,770.0,154.0,308.0,616.0,924.0,462.0,green,flipped triangle
0.0,2.0,1.0,0.0,7.0,2.0,1988.498415000322,2.0,1.0,phase_3,,,,,346.0,2.0,865.0,346.0,173.0,692.0,1038.0,519.0,orange,circle
0.0,6.0,1.0,1.0,7.0,4.0,1366.5719350001382,2.0,1.0,phase_3,,,,,462.0,3.0,924.0,308.0,616.0,462.0,154.0,770.0,yellow,triangle
0.0,8.0,4.0,1.0,7.0,2.0,1134.0571190003177,2.0,1.0,phase_3,,,,,768.0,4.0,576.0,768.0,1152.0,960.0,192.0,384.0,cyan,I
0.0,5.0,0.5,1.0,7.0,2.0,1004.0944439997477,2.0,1.0,phase_3,,,,,576.0,3.0,960.0,576.0,384.0,1152.0,192.0,768.0,green,flipped triangle
0.0,7.0,2.0,1.0,7.0,3.0,1232.857433999925,3.0,1.0,phase_3,,,,,519.0,3.0,1038.0,692.0,519.0,346.0,865.0,173.0,white,hexagon
0.0,2.0,1.0,0.0,7.0,3.0,1777.2535039994182,3.0,1.0,phase_3,,,,,384.0,2.0,576.0,1152.0,384.0,192.0,768.0,960.0,orange,circle
0.0,3.0,2.0,0.0,7.0,1.0,475.0793100001829,3.0,1.0,phase_3,,,,,540.0,4.0,540.0,405.0,810.0,135.0,270.0,675.0,magenta,cross
0.0,5.0,0.5,1.0,7.0,3.0,1827.044331999787,3.0,1.0,phase_3,,,,,519.0,3.0,692.0,865.0,519.0,1038.0,346.0,173.0,green,flipped triangle
0.0,7.0,2.0,1.0,7.0,4.0,1697.31836200026,3.0,1.0,phase_3,,,,,405.0,3.0,810.0,675.0,135.0,405.0,270.0,540.0,white,hexagon
0.0,8.0,4.0,1.0,7.0,1.0,1078.9872219993413,3.0,1.0,phase_3,,,,,616.0,4.0,616.0,308.0,462.0,770.0,154.0,924.0,cyan,I
0.0,4.0,4.0,0.0,7.0,4.0,1522.067461999541,3.0,1.0,phase_3,,,,,576.0,3.0,960.0,768.0,384.0,576.0,192.0,1152.0,gray,square
0.0,5.0,0.5,1.0,7.0,2.0,1131.2298530001501,3.0,1.0,phase_3,,,,,540.0,4.0,810.0,540.0,405.0,135.0,270.0,675.0,green,flipped triangle
0.0,2.0,1.0,0.0,7.0,5.0,1289.6940540003925,3.0,1.0,phase_3,,,,,464.0,4.0,232.0,348.0,696.0,116.0,464.0,580.0,orange,circle
0.0,4.0,4.0,0.0,7.0,1.0,938.9824200006842,3.0,1.0,phase_3,,,,,270.0,2.0,270.0,810.0,675.0,540.0,135.0,405.0,gray,square
0.0,2.0,1.0,0.0,7.0,1.0,1517.0192129999125,3.0,1.0,phase_3,,,,,346.0,2.0,346.0,692.0,865.0,173.0,1038.0,519.0,orange,circle
0.0,3.0,2.0,0.0,7.0,5.0,948.7623459999668,3.0,1.0,phase_3,,,,,675.0,5.0,405.0,540.0,135.0,270.0,675.0,810.0,magenta,cross
0.0,1.0,0.5,0.0,7.0,4.0,1721.7875540000025,3.0,1.0,phase_3,,,,,464.0,4.0,232.0,116.0,348.0,464.0,696.0,580.0,blue,diamond
0.0,5.0,0.5,1.0,7.0,3.0,1024.6225979999508,3.0,1.0,phase_3,,,,,464.0,4.0,348.0,580.0,464.0,116.0,232.0,696.0,green,flipped triangle
0.0,2.0,1.0,0.0,7.0,4.0,1220.0224099997286,3.0,1.0,phase_3,,,,,384.0,2.0,576.0,768.0,192.0,384.0,960.0,1152.0,orange,circle
0.0,4.0,4.0,0.0,7.0,2.0,1741.5582369994809,3.0,1.0,phase_3,,,,,308.0,2.0,154.0,308.0,616.0,770.0,462.0,924.0,gray,square
0.0,5.0,0.5,1.0,7.0,2.0,920.8073330000844,3.0,1.0,phase_3,,,,,405.0,3.0,810.0,405.0,270.0,675.0,540.0,135.0,green,flipped triangle
0.0,8.0,4.0,1.0,7.0,1.0,901.4239599991924,3.0,1.0,phase_3,,,,,810.0,6.0,810.0,405.0,270.0,540.0,135.0,675.0,cyan,I
0.0,5.0,0.5,1.0,7.0,5.0,2582.8896199991505,3.0,1.0,phase_3,,,,,768.0,4.0,1152.0,576.0,384.0,192.0,768.0,960.0,green,flipped triangle
0.0,5.0,0.5,1.0,7.0,2.0,1332.141433000288,3.0,1.0,phase_3,,,,,770.0,5.0,616.0,770.0,154.0,462.0,924.0,308.0,green,flipped triangle
0.0,7.0,2.0,1.0,7.0,2.0,1718.4416749996672,4.0,1.0,phase_3,,,,,616.0,4.0,924.0,616.0,308.0,462.0,154.0,770.0,white,hexagon
0.0,4.0,4.0,0.0,7.0,1.0,1266.017826999814,4.0,1.0,phase_3,,,,,232.0,2.0,232.0,464.0,116.0,696.0,580.0,348.0,gray,square
0.0,7.0,2.0,1.0,7.0,2.0,1060.206217999621,4.0,1.0,phase_3,,,,,576.0,3.0,768.0,576.0,1152.0,960.0,384.0,192.0,white,hexagon
0.0,6.0,1.0,1.0,7.0,1.0,2223.959398999796,4.0,1.0,phase_3,,,,,576.0,3.0,576.0,1152.0,768.0,384.0,192.0,960.0,yellow,triangle
0.0,1.0,0.5,0.0,7.0,3.0,1275.15751700048,4.0,1.0,phase_3,,,,,346.0,2.0,519.0,692.0,346.0,173.0,865.0,1038.0,blue,diamond
0.0,6.0,1.0,1.0,7.0,3.0,1362.6134490004915,4.0,1.0,phase_3,,,,,675.0,5.0,135.0,540.0,675.0,810.0,270.0,405.0,yellow,triangle
0.0,3.0,2.0,0.0,7.0,6.0,1312.010451999413,4.0,1.0,phase_3,,,,,519.0,3.0,1038.0,692.0,173.0,865.0,346.0,519.0,magenta,cross
0.0,7.0,2.0,1.0,7.0,3.0,1082.169629999953,4.0,1.0,phase_3,,,,,616.0,4.0,924.0,770.0,616.0,462.0,154.0,308.0,white,hexagon
0.0,6.0,1.0,1.0,7.0,3.0,1286.0902630000055,4.0,1.0,phase_3,,,,,519.0,3.0,692.0,346.0,519.0,1038.0,865.0,173.0,yellow,triangle
0.0,5.0,0.5,1.0,7.0,4.0,1209.3875139999,4.0,1.0,phase_3,,,,,692.0,4.0,346.0,173.0,1038.0,692.0,519.0,865.0,green,flipped triangle
0.0,7.0,2.0,1.0,7.0,1.0,715.927639000256,4.0,1.0,phase_3,,,,,464.0,4.0,464.0,348.0,580.0,696.0,116.0,232.0,white,hexagon
0.0,4.0,4.0,0.0,7.0,1.0,1146.0381059996507,4.0,1.0,phase_3,,,,,270.0,2.0,270.0,540.0,405.0,675.0,135.0,810.0,gray,square
0.0,7.0,2.0,1.0,7.0,1.0,605.3678619991842,4.0,1.0,phase_3,,,,,540.0,4.0,540.0,405.0,135.0,270.0,675.0,810.0,white,hexagon
0.0,6.0,1.0,1.0,7.0,1.0,864.8142349993577,4.0,1.0,phase_3,,,,,462.0,3.0,462.0,308.0,154.0,770.0,924.0,616.0,yellow,triangle
0.0,8.0,4.0,1.0,7.0,6.0,1915.2378809994843,4.0,1.0,phase_3,,,,,696.0,6.0,464.0,116.0,580.0,232.0,348.0,696.0,cyan,I
0.0,8.0,4.0,1.0,7.0,5.0,1732.244224999704,4.0,1.0,phase_3,,,,,692.0,4.0,865.0,173.0,1038.0,519.0,692.0,346.0,cyan,I
0.0,7.0,2.0,1.0,7.0,2.0,1313.3855070000209,4.0,1.0,phase_3,,,,,346.0,2.0,519.0,346.0,173.0,1038.0,692.0,865.0,white,hexagon
0.0,2.0,1.0,0.0,7.0,2.0,736.071778999758,4.0,1.0,phase_3,,,,,462.0,3.0,154.0,462.0,770.0,924.0,308.0,616.0,orange,circle
0.0,4.0,4.0,0.0,7.0,4.0,2141.373552000005,4.0,1.0,phase_3,,,,,346.0,2.0,865.0,692.0,173.0,346.0,1038.0,519.0,gray,square
0.0,5.0,0.5,1.0,7.0,6.0,1804.9056330000892,4.0,1.0,phase_3,,,,,348.0,3.0,464.0,580.0,696.0,116.0,232.0,348.0,green,flipped triangle
