raw_reward_magnitude,stim_reward,stepwise_reward_magnitude,paired_with_stopping,stim_location,response,reaction_time,block,num_trial_presentations,which_phase,stop_signal_trial_type,left_SSD,right_SSD,accuracy,chosen_bidding_amount,chosen_bidding_level,possible_bid_1,possible_bid_2,possible_bid_3,possible_bid_4,possible_bid_5,possible_bid_6,color_text,shape_text
664.0,3.0,2.0,0.0,1.0,1.0,393.6721629997919,1.0,1.0,phase_1,,,,,,,,,,,,,orange,cross
0.0,1.0,0.0,0.0,3.0,3.0,401.428463999764,1.0,1.0,phase_1,,,,,,,,,,,,,green,triangle
1302.0,4.0,4.0,0.0,2.0,2.0,459.0361479999956,1.0,1.0,phase_1,,,,,,,,,,,,,cyan,flipped triangle
302.0,2.0,1.0,0.0,2.0,2.0,439.6973889997753,1.0,1.0,phase_1,,,,,,,,,,,,,blue,hexagon
647.0,7.0,2.0,1.0,4.0,4.0,341.4628689997698,1.0,1.0,phase_1,,,,,,,,,,,,,magenta,square
659.0,7.0,2.0,1.0,4.0,4.0,410.9703650001393,1.0,1.0,phase_1,,,,,,,,,,,,,magenta,square
1301.0,8.0,4.0,1.0,3.0,3.0,316.4427189999514,1.0,1.0,phase_1,,,,,,,,,,,,,gray,circle
153.0,1.0,0.5,0.0,4.0,4.0,327.2730079997927,1.0,1.0,phase_1,,,,,,,,,,,,,green,triangle
663.0,7.0,2.0,1.0,2.0,2.0,531.1786950001078,1.0,1.0,phase_1,,,,,,,,,,,,,magenta,square
0.0,4.0,0.0,0.0,2.0,2.0,457.6073500002167,1.0,1.0,phase_1,,,,,,,,,,,,,cyan,flipped triangle
154.0,5.0,0.5,1.0,2.0,2.0,447.9804879997573,1.0,1.0,phase_1,,,,,,,,,,,,,white,diamond
0.0,2.0,0.0,0.0,3.0,3.0,429.6165649998329,1.0,2.0,phase_1,,,,,,,,,,,,,blue,hexagon
645.0,3.0,2.0,0.0,4.0,4.0,354.3777519998912,1.0,1.0,phase_1,,,,,,,,,,,,,orange,cross
153.0,5.0,0.5,1.0,2.0,2.0,372.9083019998143,1.0,1.0,phase_1,,,,,,,,,,,,,white,diamond
162.0,1.0,0.5,0.0,3.0,3.0,345.4499159997795,1.0,1.0,phase_1,,,,,,,,,,,,,green,triangle
650.0,7.0,2.0,1.0,2.0,2.0,419.2330599998968,1.0,1.0,phase_1,,,,,,,,,,,,,magenta,square
0.0,6.0,0.0,1.0,3.0,3.0,447.9706160000205,1.0,1.0,phase_1,,,,,,,,,,,,,yellow,I
0.0,1.0,0.0,0.0,3.0,3.0,439.0197779998743,1.0,1.0,phase_1,,,,,,,,,,,,,green,triangle
313.0,2.0,1.0,0.0,4.0,4.0,326.7889140001898,1.0,2.0,phase_1,,,,,,,,,,,,,blue,hexagon
630.0,3.0,2.0,0.0,3.0,3.0,401.6851659998792,1.0,1.0,phase_1,,,,,,,,,,,,,orange,cross
0.0,8.0,0.0,1.0,2.0,2.0,486.1493449998306,1.0,1.0,phase_1,,,,,,,,,,,,,gray,circle
342.0,6.0,1.0,1.0,4.0,4.0,382.5159699999858,1.0,1.0,phase_1,,,,,,,,,,,,,yellow,I
329.0,2.0,1.0,0.0,4.0,4.0,438.9211440002327,1.0,1.0,phase_1,,,,,,,,,,,,,blue,hexagon
673.0,3.0,2.0,0.0,4.0,4.0,513.2096810002622,1.0,1.0,phase_1,,,,,,,,,,,,,orange,cross
331.0,6.0,1.0,1.0,1.0,1.0,382.5624370001605,1.0,1.0,phase_1,,,,,,,,,,,,,yellow,I
160.0,1.0,0.5,0.0,3.0,3.0,428.387758000099,1.0,1.0,phase_1,,,,,,,,,,,,,green,triangle
0.0,1.0,0.0,0.0,3.0,3.0,429.7069550002561,1.0,1.0,phase_1,,,,,,,,,,,,,green,triangle
649.0,7.0,2.0,1.0,3.0,3.0,307.2846370000661,1.0,1.0,phase_1,,,,,,,,,,,,,magenta,square
648.0,7.0,2.0,1.0,3.0,3.0,344.145846000174,1.0,1.0,phase_1,,,,,,,,,,,,,magenta,square
156.0,5.0,0.5,1.0,1.0,1.0,327.0697859998108,1.0,2.0,phase_1,,,,,,,,,,,,,white,diamond
340.0,2.0,1.0,0.0,3.0,3.0,316.8567749999056,1.0,1.0,phase_1,,,,,,,,,,,,,blue,hexagon
0.0,8.0,0.0,1.0,2.0,2.0,485.6643080001959,1.0,1.0,phase_1,,,,,,,,,,,,,gray,circle
635.0,7.0,2.0,1.0,1.0,1.0,447.2991560000992,1.0,1.0,phase_1,,,,,,,,,,,,,magenta,square
343.0,2.0,1.0,0.0,3.0,3.0,391.4772250000169,1.0,1.0,phase_1,,,,,,,,,,,,,blue,hexagon
305.0,2.0,1.0,0.0,4.0,4.0,336.4211230000364,1.0,2.0,phase_1,,,,,,,,,,,,,blue,hexagon
641.0,3.0,2.0,0.0,4.0,4.0,290.1411410002765,1.0,1.0,phase_1,,,,,,,,,,,,,orange,cross
1282.0,4.0,4.0,0.0,1.0,1.0,447.7914989997771,1.0,1.0,phase_1,,,,,,,,,,,,,cyan,flipped triangle
0.0,6.0,0.0,1.0,3.0,3.0,457.1136419999675,1.0,1.0,phase_1,,,,,,,,,,,,,yellow,I
0.0,7.0,0.0,1.0,3.0,3.0,552.2856509996927,1.0,1.0,phase_1,,,,,,,,,,,,,magenta,square
0.0,4.0,0.0,0.0,2.0,2.0,476.3994260001709,1.0,1.0,phase_1,,,,,,,,,,,,,cyan,flipped triangle
0.0,3.0,0.0,0.0,4.0,4.0,242.2967330003302,1.0,1.0,phase_1,,,,,,,,,,,,,orange,cross
182.0,5.0,0.5,1.0,4.0,4.0,390.3592179999577,1.0,1.0,phase_1,,,,,,,,,,,,,white,diamond
0.0,1.0,0.0,0.0,3.0,3.0,495.3288340002473,1.0,1.0,phase_1,,,,,,,,,,,,,green,triangle
668.0,7.0,2.0,1.0,2.0,2.0,578.2843100000719,1.0,2.0,phase_1,,,,,,,,,,,,,magenta,square
1324.0,4.0,4.0,0.0,3.0,3.0,493.897645999823,1.0,1.0,phase_1,,,,,,,,,,,,,cyan,flipped triangle
160.0,1.0,0.5,0.0,4.0,4.0,383.9815309997902,1.0,1.0,phase_1,,,,,,,,,,,,,green,triangle
1304.0,4.0,4.0,0.0,2.0,2.0,437.170272000003,1.0,1.0,phase_1,,,,,,,,,,,,,cyan,flipped triangle
0.0,4.0,0.0,0.0,2.0,2.0,400.0614970000242,1.0,2.0,phase_1,,,,,,,,,,,,,cyan,flipped triangle
0.0,3.0,0.0,0.0,4.0,4.0,410.4886520003674,1.0,1.0,phase_1,,,,,,,,,,,,,orange,cross
0.0,1.0,0.0,0.0,4.0,4.0,382.1753600000193,1.0,1.0,phase_1,,,,,,,,,,,,,green,triangle
322.0,2.0,1.0,0.0,1.0,1.0,447.0600350000495,1.0,1.0,phase_1,,,,,,,,,,,,,blue,hexagon
340.0,6.0,1.0,1.0,4.0,4.0,400.7377549996818,1.0,1.0,phase_1,,,,,,,,,,,,,yellow,I
670.0,7.0,2.0,1.0,3.0,3.0,363.4600660002434,1.0,1.0,phase_1,,,,,,,,,,,,,magenta,square
148.0,1.0,0.5,0.0,3.0,3.0,300.2366989999245,1.0,1.0,phase_1,,,,,,,,,,,,,green,triangle
160.0,5.0,0.5,1.0,1.0,1.0,430.6234470000163,1.0,1.0,phase_1,,,,,,,,,,,,,white,diamond
329.0,6.0,1.0,1.0,4.0,4.0,354.9984599999334,1.0,1.0,phase_1,,,,,,,,,,,,,yellow,I
312.0,2.0,1.0,0.0,1.0,1.0,475.7488039999771,1.0,1.0,phase_1,,,,,,,,,,,,,blue,hexagon
0.0,5.0,0.0,1.0,4.0,4.0,326.4561800001502,1.0,1.0,phase_1,,,,,,,,,,,,,white,diamond
1324.0,8.0,4.0,1.0,2.0,2.0,381.5977190001831,1.0,1.0,phase_1,,,,,,,,,,,,,gray,circle
1317.0,4.0,4.0,0.0,2.0,2.0,400.190687000304,1.0,1.0,phase_1,,,,,,,,,,,,,cyan,flipped triangle
1302.0,4.0,4.0,0.0,2.0,2.0,363.7706270001217,1.0,1.0,phase_1,,,,,,,,,,,,,cyan,flipped triangle
668.0,7.0,2.0,1.0,2.0,2.0,325.6426839998312,1.0,1.0,phase_1,,,,,,,,,,,,,magenta,square
675.0,7.0,2.0,1.0,1.0,1.0,521.4877950002119,1.0,1.0,phase_1,,,,,,,,,,,,,magenta,square
142.0,1.0,0.5,0.0,4.0,4.0,391.2266409997755,1.0,1.0,phase_1,,,,,,,,,,,,,green,triangle
0.0,7.0,0.0,1.0,2.0,2.0,401.5588130000651,1.0,1.0,phase_1,,,,,,,,,,,,,magenta,square
1295.0,8.0,4.0,1.0,1.0,1.0,373.4538789999533,1.0,1.0,phase_1,,,,,,,,,,,,,gray,circle
304.0,2.0,1.0,0.0,4.0,4.0,475.4691000002822,1.0,1.0,phase_1,,,,,,,,,,,,,blue,hexagon
329.0,2.0,1.0,0.0,3.0,3.0,456.5212450002036,1.0,1.0,phase_1,,,,,,,,,,,,,blue,hexagon
1312.0,4.0,4.0,0.0,1.0,1.0,410.3567779998229,1.0,1.0,phase_1,,,,,,,,,,,,,cyan,flipped triangle
630.0,3.0,2.0,0.0,3.0,3.0,521.8777469999623,1.0,1.0,phase_1,,,,,,,,,,,,,orange,cross
0.0,6.0,0.0,1.0,3.0,3.0,478.6430839999411,1.0,1.0,phase_1,,,,,,,,,,,,,yellow,I
1289.0,4.0,4.0,0.0,4.0,4.0,354.4549130001542,1.0,1.0,phase_1,,,,,,,,,,,,,cyan,flipped triangle
625.0,7.0,2.0,1.0,3.0,3.0,420.3451980001773,1.0,1.0,phase_1,,,,,,,,,,,,,magenta,square
142.0,5.0,0.5,1.0,4.0,4.0,327.309016000072,1.0,1.0,phase_1,,,,,,,,,,,,,white,diamond
160.0,5.0,0.5,1.0,1.0,1.0,327.20556799995387,1.0,1.0,phase_1,,,,,,,,,,,,,white,diamond
175.0,5.0,0.5,1.0,2.0,2.0,438.7318879998929,1.0,2.0,phase_1,,,,,,,,,,,,,white,diamond
0.0,5.0,0.0,1.0,4.0,4.0,366.6774650000661,1.0,1.0,phase_1,,,,,,,,,,,,,white,diamond
185.0,5.0,0.5,1.0,3.0,3.0,402.3459119998733,1.0,1.0,phase_1,,,,,,,,,,,,,white,diamond
168.0,1.0,0.5,0.0,3.0,3.0,355.795930000113,1.0,1.0,phase_1,,,,,,,,,,,,,green,triangle
327.0,6.0,1.0,1.0,1.0,1.0,394.2428450000079,1.0,1.0,phase_1,,,,,,,,,,,,,yellow,I
147.0,1.0,0.5,0.0,2.0,2.0,401.0654809999323,1.0,1.0,phase_1,,,,,,,,,,,,,green,triangle
670.0,3.0,2.0,0.0,2.0,2.0,419.7816149999198,1.0,1.0,phase_1,,,,,,,,,,,,,orange,cross
629.0,3.0,2.0,0.0,3.0,3.0,570.6542550001359,1.0,1.0,phase_1,,,,,,,,,,,,,orange,cross
0.0,4.0,0.0,0.0,2.0,2.0,457.2335560001193,1.0,1.0,phase_1,,,,,,,,,,,,,cyan,flipped triangle
0.0,8.0,0.0,1.0,2.0,2.0,457.67614100032,1.0,1.0,phase_1,,,,,,,,,,,,,gray,circle
658.0,3.0,2.0,0.0,2.0,2.0,429.0236049996565,1.0,1.0,phase_1,,,,,,,,,,,,,orange,cross
640.0,3.0,2.0,0.0,3.0,3.0,485.3788909999821,1.0,1.0,phase_1,,,,,,,,,,,,,orange,cross
304.0,6.0,1.0,1.0,1.0,1.0,420.0009489995864,1.0,1.0,phase_1,,,,,,,,,,,,,yellow,I
672.0,7.0,2.0,1.0,1.0,1.0,327.281012000185,1.0,1.0,phase_1,,,,,,,,,,,,,magenta,square
0.0,5.0,0.0,1.0,1.0,1.0,373.3995630000208,1.0,1.0,phase_1,,,,,,,,,,,,,white,diamond
0.0,7.0,0.0,1.0,3.0,3.0,503.7920390000181,1.0,2.0,phase_1,,,,,,,,,,,,,magenta,square
1316.0,4.0,4.0,0.0,3.0,3.0,355.3800810000211,1.0,1.0,phase_1,,,,,,,,,,,,,cyan,flipped triangle
0.0,7.0,0.0,1.0,3.0,3.0,345.2171399999315,1.0,1.0,phase_1,,,,,,,,,,,,,magenta,square
144.0,1.0,0.5,0.0,4.0,4.0,373.4598030000597,1.0,1.0,phase_1,,,,,,,,,,,,,green,triangle
648.0,3.0,2.0,0.0,3.0,3.0,318.6515970000982,1.0,1.0,phase_1,,,,,,,,,,,,,orange,cross
0.0,3.0,0.0,0.0,4.0,4.0,309.1888620001555,1.0,1.0,phase_1,,,,,,,,,,,,,orange,cross
1293.0,8.0,4.0,1.0,1.0,1.0,428.81075699961,1.0,1.0,phase_1,,,,,,,,,,,,,gray,circle
175.0,1.0,0.5,0.0,3.0,3.0,355.0933659998918,1.0,1.0,phase_1,,,,,,,,,,,,,green,triangle
0.0,8.0,0.0,1.0,4.0,4.0,334.9017660002573,1.0,1.0,phase_1,,,,,,,,,,,,,gray,circle
310.0,6.0,1.0,1.0,3.0,3.0,467.9222089998802,1.0,1.0,phase_1,,,,,,,,,,,,,yellow,I
0.0,1.0,0.0,0.0,3.0,3.0,531.6063059999578,2.0,1.0,phase_1,,,,,,,,,,,,,green,triangle
666.0,3.0,2.0,0.0,4.0,4.0,345.2392239996698,2.0,1.0,phase_1,,,,,,,,,,,,,orange,cross
641.0,3.0,2.0,0.0,4.0,4.0,299.501821999911,2.0,1.0,phase_1,,,,,,,,,,,,,orange,cross
636.0,7.0,2.0,1.0,1.0,1.0,513.4515800000372,2.0,1.0,phase_1,,,,,,,,,,,,,magenta,square
161.0,1.0,0.5,0.0,3.0,3.0,457.6837820000037,2.0,1.0,phase_1,,,,,,,,,,,,,green,triangle
1312.0,4.0,4.0,0.0,2.0,2.0,363.4905519998028,2.0,1.0,phase_1,,,,,,,,,,,,,cyan,flipped triangle
1304.0,8.0,4.0,1.0,1.0,1.0,382.9271800000242,2.0,2.0,phase_1,,,,,,,,,,,,,gray,circle
181.0,1.0,0.5,0.0,1.0,1.0,402.4032669999542,2.0,1.0,phase_1,,,,,,,,,,,,,green,triangle
343.0,2.0,1.0,0.0,1.0,1.0,317.4321619999318,2.0,1.0,phase_1,,,,,,,,,,,,,blue,hexagon
0.0,1.0,0.0,0.0,3.0,3.0,326.4484059995993,2.0,1.0,phase_1,,,,,,,,,,,,,green,triangle
303.0,6.0,1.0,1.0,1.0,1.0,363.2714289997238,2.0,1.0,phase_1,,,,,,,,,,,,,yellow,I
1289.0,8.0,4.0,1.0,3.0,3.0,428.1095240003196,2.0,1.0,phase_1,,,,,,,,,,,,,gray,circle
138.0,5.0,0.5,1.0,2.0,2.0,438.1824649999544,2.0,1.0,phase_1,,,,,,,,,,,,,white,diamond
331.0,2.0,1.0,0.0,1.0,1.0,308.0477570001676,2.0,1.0,phase_1,,,,,,,,,,,,,blue,hexagon
0.0,5.0,0.0,1.0,4.0,4.0,372.6266179996855,2.0,1.0,phase_1,,,,,,,,,,,,,white,diamond
1289.0,8.0,4.0,1.0,3.0,3.0,496.4662120000866,2.0,1.0,phase_1,,,,,,,,,,,,,gray,circle
303.0,6.0,1.0,1.0,2.0,2.0,382.4248830001124,2.0,1.0,phase_1,,,,,,,,,,,,,yellow,I
1322.0,8.0,4.0,1.0,2.0,2.0,373.2467459999498,2.0,1.0,phase_1,,,,,,,,,,,,,gray,circle
1291.0,8.0,4.0,1.0,3.0,3.0,474.5776120003029,2.0,1.0,phase_1,,,,,,,,,,,,,gray,circle
654.0,7.0,2.0,1.0,2.0,2.0,484.2466009999953,2.0,1.0,phase_1,,,,,,,,,,,,,magenta,square
1295.0,4.0,4.0,0.0,3.0,3.0,503.21494699983305,2.0,1.0,phase_1,,,,,,,,,,,,,cyan,flipped triangle
0.0,7.0,0.0,1.0,4.0,4.0,335.869983000066,2.0,1.0,phase_1,,,,,,,,,,,,,magenta,square
304.0,6.0,1.0,1.0,4.0,4.0,373.2852730004197,2.0,1.0,phase_1,,,,,,,,,,,,,yellow,I
322.0,6.0,1.0,1.0,3.0,3.0,363.7384459998429,2.0,1.0,phase_1,,,,,,,,,,,,,yellow,I
0.0,1.0,0.0,0.0,3.0,3.0,344.5153269999537,2.0,1.0,phase_1,,,,,,,,,,,,,green,triangle
342.0,2.0,1.0,0.0,2.0,2.0,418.5723970003892,2.0,1.0,phase_1,,,,,,,,,,,,,blue,hexagon
153.0,1.0,0.5,0.0,2.0,2.0,363.0242780000117,2.0,1.0,phase_1,,,,,,,,,,,,,green,triangle
337.0,2.0,1.0,0.0,2.0,2.0,335.4880850001791,2.0,1.0,phase_1,,,,,,,,,,,,,blue,hexagon
667.0,3.0,2.0,0.0,3.0,3.0,317.5568790002216,2.0,1.0,phase_1,,,,,,,,,,,,,orange,cross
667.0,7.0,2.0,1.0,3.0,3.0,475.322423000307,2.0,1.0,phase_1,,,,,,,,,,,,,magenta,square
641.0,7.0,2.0,1.0,1.0,1.0,344.0469530000882,2.0,1.0,phase_1,,,,,,,,,,,,,magenta,square
659.0,3.0,2.0,0.0,1.0,1.0,354.726187000324,2.0,1.0,phase_1,,,,,,,,,,,,,orange,cross
154.0,1.0,0.5,0.0,1.0,1.0,316.7416340002091,2.0,1.0,phase_1,,,,,,,,,,,,,green,triangle
1278.0,4.0,4.0,0.0,3.0,3.0,345.4573660001188,2.0,1.0,phase_1,,,,,,,,,,,,,cyan,flipped triangle
668.0,3.0,2.0,0.0,1.0,1.0,345.560050000131,2.0,2.0,phase_1,,,,,,,,,,,,,orange,cross
153.0,5.0,0.5,1.0,4.0,4.0,504.2208230001961,2.0,1.0,phase_1,,,,,,,,,,,,,white,diamond
641.0,7.0,2.0,1.0,1.0,1.0,467.5929879999785,2.0,1.0,phase_1,,,,,,,,,,,,,magenta,square
172.0,5.0,0.5,1.0,1.0,1.0,495.4267410003012,2.0,1.0,phase_1,,,,,,,,,,,,,white,diamond
161.0,1.0,0.5,0.0,4.0,4.0,372.0628679998299,2.0,1.0,phase_1,,,,,,,,,,,,,green,triangle
318.0,6.0,1.0,1.0,2.0,2.0,467.1645650000755,2.0,1.0,phase_1,,,,,,,,,,,,,yellow,I
0.0,3.0,0.0,0.0,1.0,1.0,486.9357640000089,2.0,1.0,phase_1,,,,,,,,,,,,,orange,cross
1285.0,8.0,4.0,1.0,1.0,1.0,382.822742999906,2.0,1.0,phase_1,,,,,,,,,,,,,gray,circle
649.0,3.0,2.0,0.0,3.0,3.0,466.8180580001717,2.0,1.0,phase_1,,,,,,,,,,,,,orange,cross
153.0,5.0,0.5,1.0,4.0,4.0,335.5795339998622,2.0,1.0,phase_1,,,,,,,,,,,,,white,diamond
312.0,6.0,1.0,1.0,2.0,2.0,355.8330609998847,2.0,1.0,phase_1,,,,,,,,,,,,,yellow,I
333.0,6.0,1.0,1.0,3.0,3.0,467.2058750002179,2.0,1.0,phase_1,,,,,,,,,,,,,yellow,I
183.0,1.0,0.5,0.0,2.0,2.0,467.7289199998995,2.0,1.0,phase_1,,,,,,,,,,,,,green,triangle
148.0,5.0,0.5,1.0,2.0,2.0,447.2347780001655,2.0,1.0,phase_1,,,,,,,,,,,,,white,diamond
1283.0,8.0,4.0,1.0,2.0,2.0,354.996501000187,2.0,1.0,phase_1,,,,,,,,,,,,,gray,circle
647.0,3.0,2.0,0.0,4.0,4.0,400.8406400002968,2.0,1.0,phase_1,,,,,,,,,,,,,orange,cross
630.0,7.0,2.0,1.0,4.0,4.0,317.5111260002268,2.0,1.0,phase_1,,,,,,,,,,,,,magenta,square
657.0,7.0,2.0,1.0,2.0,2.0,466.1833079999269,2.0,1.0,phase_1,,,,,,,,,,,,,magenta,square
186.0,1.0,0.5,0.0,3.0,3.0,400.5510160000085,2.0,2.0,phase_1,,,,,,,,,,,,,green,triangle
143.0,1.0,0.5,0.0,2.0,2.0,467.6161349998438,2.0,1.0,phase_1,,,,,,,,,,,,,green,triangle
161.0,5.0,0.5,1.0,3.0,3.0,429.2414409997036,2.0,1.0,phase_1,,,,,,,,,,,,,white,diamond
149.0,5.0,0.5,1.0,4.0,4.0,355.9481140000571,2.0,1.0,phase_1,,,,,,,,,,,,,white,diamond
347.0,2.0,1.0,0.0,3.0,3.0,392.1297259998937,2.0,1.0,phase_1,,,,,,,,,,,,,blue,hexagon
329.0,6.0,1.0,1.0,4.0,4.0,382.8694509998058,2.0,1.0,phase_1,,,,,,,,,,,,,yellow,I
636.0,3.0,2.0,0.0,4.0,4.0,308.2223850001355,2.0,1.0,phase_1,,,,,,,,,,,,,orange,cross
0.0,6.0,0.0,1.0,2.0,2.0,448.6307549996127,2.0,1.0,phase_1,,,,,,,,,,,,,yellow,I
651.0,3.0,2.0,0.0,2.0,2.0,457.0503969998754,2.0,1.0,phase_1,,,,,,,,,,,,,orange,cross
1286.0,4.0,4.0,0.0,4.0,4.0,334.7823660001268,2.0,1.0,phase_1,,,,,,,,,,,,,cyan,flipped triangle
0.0,8.0,0.0,1.0,4.0,4.0,401.6048409998802,2.0,1.0,phase_1,,,,,,,,,,,,,gray,circle
648.0,7.0,2.0,1.0,2.0,2.0,448.6038619997998,2.0,1.0,phase_1,,,,,,,,,,,,,magenta,square
657.0,3.0,2.0,0.0,2.0,2.0,372.6694299998598,2.0,1.0,phase_1,,,,,,,,,,,,,orange,cross
171.0,1.0,0.5,0.0,1.0,1.0,335.5301060000784,2.0,1.0,phase_1,,,,,,,,,,,,,green,triangle
670.0,7.0,2.0,1.0,3.0,3.0,336.0702360000687,2.0,1.0,phase_1,,,,,,,,,,,,,magenta,square
625.0,7.0,2.0,1.0,1.0,1.0,390.2418140000918,2.0,1.0,phase_1,,,,,,,,,,,,,magenta,square
1324.0,4.0,4.0,0.0,4.0,4.0,496.1867990000428,2.0,1.0,phase_1,,,,,,,,,,,,,cyan,flipped triangle
648.0,3.0,2.0,0.0,2.0,2.0,392.9488250000759,2.0,1.0,phase_1,,,,,,,,,,,,,orange,cross
183.0,5.0,0.5,1.0,1.0,1.0,346.188543000153,2.0,2.0,phase_1,,,,,,,,,,,,,white,diamond
1320.0,4.0,4.0,0.0,1.0,1.0,288.9939930000764,2.0,1.0,phase_1,,,,,,,,,,,,,cyan,flipped triangle
636.0,3.0,2.0,0.0,1.0,1.0,326.8304610000996,2.0,1.0,phase_1,,,,,,,,,,,,,orange,cross
1322.0,4.0,4.0,0.0,1.0,1.0,326.8465549999746,2.0,1.0,phase_1,,,,,,,,,,,,,cyan,flipped triangle
1282.0,8.0,4.0,1.0,4.0,4.0,458.0057049997776,2.0,1.0,phase_1,,,,,,,,,,,,,gray,circle
625.0,3.0,2.0,0.0,3.0,3.0,476.6408309997132,2.0,1.0,phase_1,,,,,,,,,,,,,orange,cross
1289.0,4.0,4.0,0.0,4.0,4.0,429.4497289997707,2.0,1.0,phase_1,,,,,,,,,,,,,cyan,flipped triangle
630.0,7.0,2.0,1.0,4.0,4.0,337.2782550000011,2.0,1.0,phase_1,,,,,,,,,,,,,magenta,square
0.0,3.0,0.0,0.0,2.0,2.0,373.2387850000123,2.0,1.0,phase_1,,,,,,,,,,,,,orange,cross
633.0,7.0,2.0,1.0,2.0,2.0,446.8491739999081,2.0,1.0,phase_1,,,,,,,,,,,,,magenta,square
0.0,4.0,0.0,0.0,3.0,3.0,439.1709629999241,2.0,2.0,phase_1,,,,,,,,,,,,,cyan,flipped triangle
0.0,7.0,0.0,1.0,4.0,4.0,355.322550999972,2.0,1.0,phase_1,,,,,,,,,,,,,magenta,square
313.0,6.0,1.0,1.0,2.0,2.0,494.0829090000989,2.0,1.0,phase_1,,,,,,,,,,,,,yellow,I
1304.0,4.0,4.0,0.0,1.0,1.0,374.5126709995929,2.0,1.0,phase_1,,,,,,,,,,,,,cyan,flipped triangle
339.0,2.0,1.0,0.0,2.0,2.0,411.5294409998569,2.0,1.0,phase_1,,,,,,,,,,,,,blue,hexagon
324.0,6.0,1.0,1.0,4.0,4.0,411.9146759999239,2.0,1.0,phase_1,,,,,,,,,,,,,yellow,I
162.0,5.0,0.5,1.0,3.0,3.0,431.0242900000958,2.0,1.0,phase_1,,,,,,,,,,,,,white,diamond
308.0,6.0,1.0,1.0,1.0,1.0,346.2403210000957,2.0,1.0,phase_1,,,,,,,,,,,,,yellow,I
635.0,3.0,2.0,0.0,1.0,1.0,431.9062489998941,2.0,1.0,phase_1,,,,,,,,,,,,,orange,cross
345.0,6.0,1.0,1.0,3.0,3.0,485.2312640000491,2.0,1.0,phase_1,,,,,,,,,,,,,yellow,I
666.0,7.0,2.0,1.0,3.0,3.0,466.662757999984,2.0,1.0,phase_1,,,,,,,,,,,,,magenta,square
304.0,2.0,1.0,0.0,4.0,4.0,484.9880189999567,2.0,1.0,phase_1,,,,,,,,,,,,,blue,hexagon
153.0,1.0,0.5,0.0,2.0,2.0,589.4996199999696,2.0,1.0,phase_1,,,,,,,,,,,,,green,triangle
1285.0,4.0,4.0,0.0,2.0,2.0,671.566100000291,2.0,1.0,phase_1,,,,,,,,,,,,,cyan,flipped triangle
0.0,5.0,0.0,1.0,4.0,4.0,448.1795890001194,2.0,1.0,phase_1,,,,,,,,,,,,,white,diamond
312.0,6.0,1.0,1.0,2.0,2.0,402.5103959997977,2.0,1.0,phase_1,,,,,,,,,,,,,yellow,I
0.0,4.0,0.0,0.0,4.0,4.0,384.701694999876,2.0,1.0,phase_1,,,,,,,,,,,,,cyan,flipped triangle
670.0,3.0,2.0,0.0,2.0,2.0,355.5329839996375,2.0,1.0,phase_1,,,,,,,,,,,,,orange,cross
343.0,6.0,1.0,1.0,2.0,2.0,439.4062060000578,2.0,1.0,phase_1,,,,,,,,,,,,,yellow,I
171.0,5.0,0.5,1.0,4.0,4.0,375.852759999816,2.0,2.0,phase_1,,,,,,,,,,,,,white,diamond
149.0,1.0,0.5,0.0,3.0,3.0,438.9081129997976,3.0,1.0,phase_1,,,,,,,,,,,,,green,triangle
0.0,4.0,0.0,0.0,4.0,4.0,308.5012589999678,3.0,1.0,phase_1,,,,,,,,,,,,,cyan,flipped triangle
143.0,5.0,0.5,1.0,4.0,4.0,374.8938359999556,3.0,1.0,phase_1,,,,,,,,,,,,,white,diamond
305.0,6.0,1.0,1.0,3.0,3.0,309.9949550000929,3.0,1.0,phase_1,,,,,,,,,,,,,yellow,I
663.0,3.0,2.0,0.0,1.0,1.0,456.8457430000308,3.0,1.0,phase_1,,,,,,,,,,,,,orange,cross
329.0,6.0,1.0,1.0,3.0,3.0,300.3054079999856,3.0,1.0,phase_1,,,,,,,,,,,,,yellow,I
337.0,6.0,1.0,1.0,3.0,3.0,319.4474870001613,3.0,1.0,phase_1,,,,,,,,,,,,,yellow,I
0.0,5.0,0.0,1.0,2.0,2.0,476.254709999921,3.0,1.0,phase_1,,,,,,,,,,,,,white,diamond
340.0,6.0,1.0,1.0,2.0,2.0,382.9718500001036,3.0,1.0,phase_1,,,,,,,,,,,,,yellow,I
305.0,6.0,1.0,1.0,3.0,3.0,551.7665739998847,3.0,1.0,phase_1,,,,,,,,,,,,,yellow,I
317.0,2.0,1.0,0.0,1.0,1.0,486.7639819999567,3.0,1.0,phase_1,,,,,,,,,,,,,blue,hexagon
161.0,5.0,0.5,1.0,3.0,3.0,458.3113570001842,3.0,1.0,phase_1,,,,,,,,,,,,,white,diamond
154.0,5.0,0.5,1.0,2.0,2.0,410.8199880001848,3.0,1.0,phase_1,,,,,,,,,,,,,white,diamond
157.0,5.0,0.5,1.0,1.0,1.0,391.7110999996112,3.0,1.0,phase_1,,,,,,,,,,,,,white,diamond
1307.0,8.0,4.0,1.0,1.0,1.0,401.8759140003567,3.0,1.0,phase_1,,,,,,,,,,,,,gray,circle
625.0,3.0,2.0,0.0,4.0,4.0,466.679398999986,3.0,1.0,phase_1,,,,,,,,,,,,,orange,cross
641.0,7.0,2.0,1.0,1.0,1.0,383.2378500001141,3.0,1.0,phase_1,,,,,,,,,,,,,magenta,square
321.0,2.0,1.0,0.0,4.0,4.0,421.6546589996142,3.0,1.0,phase_1,,,,,,,,,,,,,blue,hexagon
146.0,1.0,0.5,0.0,1.0,1.0,336.5760100000443,3.0,1.0,phase_1,,,,,,,,,,,,,green,triangle
308.0,2.0,1.0,0.0,2.0,2.0,430.0930039999002,3.0,1.0,phase_1,,,,,,,,,,,,,blue,hexagon
673.0,7.0,2.0,1.0,4.0,4.0,392.7780760000132,3.0,1.0,phase_1,,,,,,,,,,,,,magenta,square
673.0,3.0,2.0,0.0,3.0,3.0,373.2484680003836,3.0,1.0,phase_1,,,,,,,,,,,,,orange,cross
641.0,7.0,2.0,1.0,1.0,1.0,476.6790610001408,3.0,1.0,phase_1,,,,,,,,,,,,,magenta,square
1286.0,8.0,4.0,1.0,2.0,2.0,383.599224000136,3.0,1.0,phase_1,,,,,,,,,,,,,gray,circle
318.0,2.0,1.0,0.0,1.0,1.0,298.845170000277,3.0,1.0,phase_1,,,,,,,,,,,,,blue,hexagon
0.0,3.0,0.0,0.0,4.0,4.0,466.0142560001077,3.0,1.0,phase_1,,,,,,,,,,,,,orange,cross
338.0,6.0,1.0,1.0,2.0,2.0,420.0335269997595,3.0,1.0,phase_1,,,,,,,,,,,,,yellow,I
157.0,1.0,0.5,0.0,2.0,2.0,347.3369620000994,3.0,1.0,phase_1,,,,,,,,,,,,,green,triangle
162.0,1.0,0.5,0.0,4.0,4.0,383.9824609999596,3.0,1.0,phase_1,,,,,,,,,,,,,green,triangle
162.0,5.0,0.5,1.0,1.0,1.0,346.0044099997503,3.0,1.0,phase_1,,,,,,,,,,,,,white,diamond
168.0,1.0,0.5,0.0,4.0,4.0,336.6854460000468,3.0,1.0,phase_1,,,,,,,,,,,,,green,triangle
0.0,4.0,0.0,0.0,3.0,3.0,467.6327510001101,3.0,1.0,phase_1,,,,,,,,,,,,,cyan,flipped triangle
664.0,7.0,2.0,1.0,1.0,1.0,467.3124599999028,3.0,1.0,phase_1,,,,,,,,,,,,,magenta,square
1281.0,8.0,4.0,1.0,2.0,2.0,486.4698169999428,3.0,1.0,phase_1,,,,,,,,,,,,,gray,circle
183.0,5.0,0.5,1.0,3.0,3.0,290.457411999796,3.0,1.0,phase_1,,,,,,,,,,,,,white,diamond
665.0,7.0,2.0,1.0,3.0,3.0,392.4568889997317,3.0,1.0,phase_1,,,,,,,,,,,,,magenta,square
650.0,3.0,2.0,0.0,2.0,2.0,419.4953179999174,3.0,1.0,phase_1,,,,,,,,,,,,,orange,cross
181.0,5.0,0.5,1.0,3.0,3.0,318.1115819998013,3.0,1.0,phase_1,,,,,,,,,,,,,white,diamond
0.0,3.0,0.0,0.0,1.0,1.0,362.3205959997904,3.0,1.0,phase_1,,,,,,,,,,,,,orange,cross
1282.0,8.0,4.0,1.0,4.0,4.0,383.0145980000452,3.0,1.0,phase_1,,,,,,,,,,,,,gray,circle
1304.0,4.0,4.0,0.0,1.0,1.0,384.6104390004257,3.0,1.0,phase_1,,,,,,,,,,,,,cyan,flipped triangle
177.0,1.0,0.5,0.0,4.0,4.0,364.4303669998407,3.0,1.0,phase_1,,,,,,,,,,,,,green,triangle
1301.0,4.0,4.0,0.0,3.0,3.0,364.4291270002213,3.0,1.0,phase_1,,,,,,,,,,,,,cyan,flipped triangle
138.0,1.0,0.5,0.0,1.0,1.0,279.4291169998359,3.0,1.0,phase_1,,,,,,,,,,,,,green,triangle
0.0,4.0,0.0,0.0,1.0,1.0,381.8616329999713,3.0,1.0,phase_1,,,,,,,,,,,,,cyan,flipped triangle
146.0,5.0,0.5,1.0,3.0,3.0,364.1449509996164,3.0,1.0,phase_1,,,,,,,,,,,,,white,diamond
1288.0,4.0,4.0,0.0,4.0,4.0,317.3102439996,3.0,1.0,phase_1,,,,,,,,,,,,,cyan,flipped triangle
0.0,3.0,0.0,0.0,4.0,4.0,345.5376140000226,3.0,2.0,phase_1,,,,,,,,,,,,,orange,cross
0.0,7.0,0.0,1.0,3.0,3.0,280.4526920003809,3.0,1.0,phase_1,,,,,,,,,,,,,magenta,square
345.0,2.0,1.0,0.0,3.0,3.0,307.0519699999749,3.0,1.0,phase_1,,,,,,,,,,,,,blue,hexagon
0.0,2.0,0.0,0.0,1.0,1.0,354.2734500001643,3.0,1.0,phase_1,,,,,,,,,,,,,blue,hexagon
162.0,1.0,0.5,0.0,1.0,1.0,382.1689870001137,3.0,1.0,phase_1,,,,,,,,,,,,,green,triangle
1290.0,8.0,4.0,1.0,3.0,3.0,354.0918730000157,3.0,1.0,phase_1,,,,,,,,,,,,,gray,circle
668.0,3.0,2.0,0.0,2.0,2.0,429.874987000403,3.0,2.0,phase_1,,,,,,,,,,,,,orange,cross
310.0,2.0,1.0,0.0,3.0,3.0,467.3104049998073,3.0,1.0,phase_1,,,,,,,,,,,,,blue,hexagon
1297.0,8.0,4.0,1.0,1.0,1.0,327.2640740001407,3.0,1.0,phase_1,,,,,,,,,,,,,gray,circle
1311.0,4.0,4.0,0.0,1.0,1.0,392.05532699998,3.0,1.0,phase_1,,,,,,,,,,,,,cyan,flipped triangle
1324.0,8.0,4.0,1.0,2.0,2.0,438.2991150000634,3.0,1.0,phase_1,,,,,,,,,,,,,gray,circle
0.0,5.0,0.0,1.0,1.0,1.0,402.5834220001343,3.0,1.0,phase_1,,,,,,,,,,,,,white,diamond
154.0,1.0,0.5,0.0,1.0,1.0,419.7938939996675,3.0,1.0,phase_1,,,,,,,,,,,,,green,triangle
0.0,3.0,0.0,0.0,1.0,1.0,326.5823500000806,3.0,1.0,phase_1,,,,,,,,,,,,,orange,cross
187.0,5.0,0.5,1.0,1.0,1.0,300.0011270000868,3.0,1.0,phase_1,,,,,,,,,,,,,white,diamond
333.0,2.0,1.0,0.0,4.0,4.0,317.2639519998483,3.0,1.0,phase_1,,,,,,,,,,,,,blue,hexagon
1290.0,4.0,4.0,0.0,3.0,3.0,401.9394009997086,3.0,1.0,phase_1,,,,,,,,,,,,,cyan,flipped triangle
332.0,6.0,1.0,1.0,3.0,3.0,373.5258910000993,3.0,1.0,phase_1,,,,,,,,,,,,,yellow,I
138.0,1.0,0.5,0.0,1.0,1.0,402.3592389999066,3.0,1.0,phase_1,,,,,,,,,,,,,green,triangle
1306.0,4.0,4.0,0.0,4.0,4.0,346.2058109998907,3.0,2.0,phase_1,,,,,,,,,,,,,cyan,flipped triangle
1281.0,4.0,4.0,0.0,2.0,2.0,383.8328199999523,3.0,1.0,phase_1,,,,,,,,,,,,,cyan,flipped triangle
1305.0,4.0,4.0,0.0,3.0,3.0,644.3837140000142,3.0,2.0,phase_1,,,,,,,,,,,,,cyan,flipped triangle
184.0,5.0,0.5,1.0,4.0,4.0,410.8983750002153,3.0,1.0,phase_1,,,,,,,,,,,,,white,diamond
168.0,5.0,0.5,1.0,3.0,3.0,373.1080829998063,3.0,1.0,phase_1,,,,,,,,,,,,,white,diamond
137.0,1.0,0.5,0.0,1.0,1.0,384.0424649997658,3.0,1.0,phase_1,,,,,,,,,,,,,green,triangle
0.0,7.0,0.0,1.0,4.0,4.0,486.3176150001891,3.0,1.0,phase_1,,,,,,,,,,,,,magenta,square
1312.0,8.0,4.0,1.0,1.0,1.0,346.6127870001401,3.0,1.0,phase_1,,,,,,,,,,,,,gray,circle
303.0,2.0,1.0,0.0,1.0,1.0,364.4876399998793,3.0,1.0,phase_1,,,,,,,,,,,,,blue,hexagon
0.0,1.0,0.0,0.0,4.0,4.0,345.6192260000534,3.0,1.0,phase_1,,,,,,,,,,,,,green,triangle
1304.0,8.0,4.0,1.0,4.0,4.0,428.8066209996941,3.0,1.0,phase_1,,,,,,,,,,,,,gray,circle
1281.0,8.0,4.0,1.0,4.0,4.0,346.71340299973957,3.0,1.0,phase_1,,,,,,,,,,,,,gray,circle
0.0,8.0,0.0,1.0,3.0,3.0,524.7574029999669,3.0,1.0,phase_1,,,,,,,,,,,,,gray,circle
1321.0,8.0,4.0,1.0,3.0,3.0,495.5266220003977,3.0,1.0,phase_1,,,,,,,,,,,,,gray,circle
302.0,6.0,1.0,1.0,2.0,2.0,460.0105720001011,3.0,1.0,phase_1,,,,,,,,,,,,,yellow,I
1305.0,8.0,4.0,1.0,3.0,3.0,494.7387079996588,3.0,1.0,phase_1,,,,,,,,,,,,,gray,circle
633.0,3.0,2.0,0.0,4.0,4.0,402.61985799998,3.0,1.0,phase_1,,,,,,,,,,,,,orange,cross
1311.0,8.0,4.0,1.0,3.0,3.0,382.6908669998374,3.0,1.0,phase_1,,,,,,,,,,,,,gray,circle
1296.0,8.0,4.0,1.0,2.0,2.0,382.5191519999862,3.0,1.0,phase_1,,,,,,,,,,,,,gray,circle
312.0,2.0,1.0,0.0,3.0,3.0,327.1741409998867,3.0,1.0,phase_1,,,,,,,,,,,,,blue,hexagon
186.0,5.0,0.5,1.0,4.0,4.0,513.9425359998313,3.0,1.0,phase_1,,,,,,,,,,,,,white,diamond
0.0,2.0,0.0,0.0,1.0,1.0,476.0913200002505,3.0,1.0,phase_1,,,,,,,,,,,,,blue,hexagon
343.0,6.0,1.0,1.0,1.0,1.0,484.9992189997465,3.0,1.0,phase_1,,,,,,,,,,,,,yellow,I
0.0,6.0,0.0,1.0,4.0,4.0,420.2608159998817,3.0,1.0,phase_1,,,,,,,,,,,,,yellow,I
1281.0,4.0,4.0,0.0,4.0,4.0,430.0065980000909,3.0,1.0,phase_1,,,,,,,,,,,,,cyan,flipped triangle
651.0,7.0,2.0,1.0,4.0,4.0,409.9898789995677,3.0,1.0,phase_1,,,,,,,,,,,,,magenta,square
665.0,3.0,2.0,0.0,1.0,1.0,396.4732869999352,3.0,1.0,phase_1,,,,,,,,,,,,,orange,cross
1312.0,8.0,4.0,1.0,3.0,3.0,450.1081560001694,3.0,1.0,phase_1,,,,,,,,,,,,,gray,circle
0.0,2.0,0.0,0.0,4.0,4.0,355.4519289996278,3.0,1.0,phase_1,,,,,,,,,,,,,blue,hexagon
1277.0,4.0,4.0,0.0,2.0,2.0,438.6755440000343,3.0,1.0,phase_1,,,,,,,,,,,,,cyan,flipped triangle
177.0,5.0,0.5,1.0,1.0,1.0,410.3787079998255,3.0,1.0,phase_1,,,,,,,,,,,,,white,diamond
1315.0,4.0,4.0,0.0,3.0,3.0,308.6815579999893,3.0,1.0,phase_1,,,,,,,,,,,,,cyan,flipped triangle
0.0,4.0,0.0,0.0,4.0,4.0,317.4403309999434,3.0,1.0,phase_1,,,,,,,,,,,,,cyan,flipped triangle
0.0,8.0,0.0,1.0,3.0,3.0,309.6386849997543,3.0,1.0,phase_1,,,,,,,,,,,,,gray,circle
1283.0,4.0,4.0,0.0,4.0,4.0,403.6610469997868,4.0,1.0,phase_1,,,,,,,,,,,,,cyan,flipped triangle
1315.0,8.0,4.0,1.0,4.0,4.0,383.9907430001403,4.0,1.0,phase_1,,,,,,,,,,,,,gray,circle
168.0,5.0,0.5,1.0,4.0,4.0,318.0492070000582,4.0,1.0,phase_1,,,,,,,,,,,,,white,diamond
636.0,7.0,2.0,1.0,2.0,2.0,392.6691259998733,4.0,1.0,phase_1,,,,,,,,,,,,,magenta,square
147.0,5.0,0.5,1.0,3.0,3.0,514.5237759998054,4.0,1.0,phase_1,,,,,,,,,,,,,white,diamond
0.0,8.0,0.0,1.0,4.0,4.0,533.5746910000125,4.0,1.0,phase_1,,,,,,,,,,,,,gray,circle
658.0,7.0,2.0,1.0,3.0,3.0,409.42955599985,4.0,1.0,phase_1,,,,,,,,,,,,,magenta,square
0.0,6.0,0.0,1.0,2.0,2.0,354.9526599999808,4.0,2.0,phase_1,,,,,,,,,,,,,yellow,I
339.0,6.0,1.0,1.0,4.0,4.0,373.3475519998137,4.0,1.0,phase_1,,,,,,,,,,,,,yellow,I
1302.0,8.0,4.0,1.0,1.0,1.0,510.35455600003843,4.0,1.0,phase_1,,,,,,,,,,,,,gray,circle
347.0,6.0,1.0,1.0,2.0,2.0,564.3918759997177,4.0,1.0,phase_1,,,,,,,,,,,,,yellow,I
137.0,5.0,0.5,1.0,2.0,2.0,513.0343769997125,4.0,2.0,phase_1,,,,,,,,,,,,,white,diamond
654.0,3.0,2.0,0.0,4.0,4.0,353.2251540000288,4.0,1.0,phase_1,,,,,,,,,,,,,orange,cross
326.0,2.0,1.0,0.0,3.0,3.0,549.4132910002918,4.0,1.0,phase_1,,,,,,,,,,,,,blue,hexagon
0.0,7.0,0.0,1.0,2.0,2.0,410.8238230001007,4.0,1.0,phase_1,,,,,,,,,,,,,magenta,square
168.0,5.0,0.5,1.0,2.0,2.0,420.4328030000397,4.0,1.0,phase_1,,,,,,,,,,,,,white,diamond
625.0,7.0,2.0,1.0,4.0,4.0,346.1932519999209,4.0,1.0,phase_1,,,,,,,,,,,,,magenta,square
1296.0,4.0,4.0,0.0,2.0,2.0,326.685905999966,4.0,1.0,phase_1,,,,,,,,,,,,,cyan,flipped triangle
1316.0,8.0,4.0,1.0,4.0,4.0,430.3733860001557,4.0,1.0,phase_1,,,,,,,,,,,,,gray,circle
1307.0,4.0,4.0,0.0,1.0,1.0,410.906807000174,4.0,1.0,phase_1,,,,,,,,,,,,,cyan,flipped triangle
326.0,6.0,1.0,1.0,1.0,1.0,354.6510050000506,4.0,1.0,phase_1,,,,,,,,,,,,,yellow,I
348.0,2.0,1.0,0.0,1.0,1.0,345.8238980001624,4.0,1.0,phase_1,,,,,,,,,,,,,blue,hexagon
329.0,2.0,1.0,0.0,3.0,3.0,392.3196079999798,4.0,1.0,phase_1,,,,,,,,,,,,,blue,hexagon
0.0,1.0,0.0,0.0,1.0,1.0,420.7989980000093,4.0,1.0,phase_1,,,,,,,,,,,,,green,triangle
182.0,1.0,0.5,0.0,2.0,2.0,504.27536200004397,4.0,1.0,phase_1,,,,,,,,,,,,,green,triangle
305.0,2.0,1.0,0.0,2.0,2.0,364.4636610001726,4.0,1.0,phase_1,,,,,,,,,,,,,blue,hexagon
0.0,5.0,0.0,1.0,3.0,3.0,402.5060059998395,4.0,2.0,phase_1,,,,,,,,,,,,,white,diamond
138.0,5.0,0.5,1.0,2.0,2.0,505.34400200012897,4.0,1.0,phase_1,,,,,,,,,,,,,white,diamond
156.0,1.0,0.5,0.0,2.0,2.0,316.9695700003103,4.0,1.0,phase_1,,,,,,,,,,,,,green,triangle
331.0,6.0,1.0,1.0,3.0,3.0,307.5883169999542,4.0,1.0,phase_1,,,,,,,,,,,,,yellow,I
1306.0,8.0,4.0,1.0,4.0,4.0,355.2943639997465,4.0,2.0,phase_1,,,,,,,,,,,,,gray,circle
1291.0,4.0,4.0,0.0,3.0,3.0,382.148524999593,4.0,1.0,phase_1,,,,,,,,,,,,,cyan,flipped triangle
303.0,2.0,1.0,0.0,2.0,2.0,451.7611279998164,4.0,1.0,phase_1,,,,,,,,,,,,,blue,hexagon
0.0,6.0,0.0,1.0,1.0,1.0,492.9423489998044,4.0,1.0,phase_1,,,,,,,,,,,,,yellow,I
336.0,6.0,1.0,1.0,4.0,4.0,307.5381310000011,4.0,1.0,phase_1,,,,,,,,,,,,,yellow,I
0.0,5.0,0.0,1.0,1.0,1.0,400.9340659999907,4.0,1.0,phase_1,,,,,,,,,,,,,white,diamond
1278.0,8.0,4.0,1.0,2.0,2.0,457.1991359998719,4.0,1.0,phase_1,,,,,,,,,,,,,gray,circle
673.0,7.0,2.0,1.0,4.0,4.0,364.0980089999175,4.0,1.0,phase_1,,,,,,,,,,,,,magenta,square
178.0,1.0,0.5,0.0,3.0,3.0,419.7330550000515,4.0,1.0,phase_1,,,,,,,,,,,,,green,triangle
327.0,2.0,1.0,0.0,2.0,2.0,484.6156749999863,4.0,1.0,phase_1,,,,,,,,,,,,,blue,hexagon
348.0,6.0,1.0,1.0,1.0,1.0,364.102462000119,4.0,1.0,phase_1,,,,,,,,,,,,,yellow,I
672.0,3.0,2.0,0.0,2.0,2.0,532.6875689997905,4.0,1.0,phase_1,,,,,,,,,,,,,orange,cross
329.0,2.0,1.0,0.0,3.0,3.0,475.162678000288,4.0,1.0,phase_1,,,,,,,,,,,,,blue,hexagon
0.0,8.0,0.0,1.0,1.0,1.0,326.291054000194,4.0,1.0,phase_1,,,,,,,,,,,,,gray,circle
675.0,3.0,2.0,0.0,2.0,2.0,447.6323990002129,4.0,1.0,phase_1,,,,,,,,,,,,,orange,cross
1297.0,4.0,4.0,0.0,4.0,4.0,493.8377890002812,4.0,1.0,phase_1,,,,,,,,,,,,,cyan,flipped triangle
1295.0,4.0,4.0,0.0,1.0,1.0,382.4750759999915,4.0,1.0,phase_1,,,,,,,,,,,,,cyan,flipped triangle
0.0,2.0,0.0,0.0,4.0,4.0,328.1781179998688,4.0,2.0,phase_1,,,,,,,,,,,,,blue,hexagon
187.0,1.0,0.5,0.0,2.0,2.0,446.9559480003227,4.0,1.0,phase_1,,,,,,,,,,,,,green,triangle
1277.0,8.0,4.0,1.0,1.0,1.0,345.6448679999084,4.0,1.0,phase_1,,,,,,,,,,,,,gray,circle
1321.0,4.0,4.0,0.0,3.0,3.0,402.1165130002373,4.0,1.0,phase_1,,,,,,,,,,,,,cyan,flipped triangle
162.0,5.0,0.5,1.0,3.0,3.0,363.6612349996539,4.0,1.0,phase_1,,,,,,,,,,,,,white,diamond
1320.0,8.0,4.0,1.0,4.0,4.0,439.1082040001492,4.0,1.0,phase_1,,,,,,,,,,,,,gray,circle
0.0,6.0,0.0,1.0,3.0,3.0,476.0013700001764,4.0,1.0,phase_1,,,,,,,,,,,,,yellow,I
185.0,1.0,0.5,0.0,4.0,4.0,354.7436740000194,4.0,1.0,phase_1,,,,,,,,,,,,,green,triangle
626.0,3.0,2.0,0.0,1.0,1.0,337.1857570000429,4.0,1.0,phase_1,,,,,,,,,,,,,orange,cross
324.0,2.0,1.0,0.0,1.0,1.0,392.6004730001295,4.0,1.0,phase_1,,,,,,,,,,,,,blue,hexagon
0.0,5.0,0.0,1.0,4.0,4.0,374.1265119997479,4.0,1.0,phase_1,,,,,,,,,,,,,white,diamond
1302.0,8.0,4.0,1.0,4.0,4.0,444.6424990001105,4.0,1.0,phase_1,,,,,,,,,,,,,gray,circle
0.0,2.0,0.0,0.0,1.0,1.0,458.2007109997903,4.0,1.0,phase_1,,,,,,,,,,,,,blue,hexagon
1282.0,4.0,4.0,0.0,4.0,4.0,364.1925580000134,4.0,1.0,phase_1,,,,,,,,,,,,,cyan,flipped triangle
312.0,6.0,1.0,1.0,4.0,4.0,399.5552639999005,4.0,1.0,phase_1,,,,,,,,,,,,,yellow,I
1295.0,8.0,4.0,1.0,4.0,4.0,353.8236159997723,4.0,1.0,phase_1,,,,,,,,,,,,,gray,circle
338.0,2.0,1.0,0.0,2.0,2.0,477.0038380002006,4.0,1.0,phase_1,,,,,,,,,,,,,blue,hexagon
0.0,2.0,0.0,0.0,4.0,4.0,363.8355380003304,4.0,1.0,phase_1,,,,,,,,,,,,,blue,hexagon
626.0,7.0,2.0,1.0,2.0,2.0,456.5001559999473,4.0,1.0,phase_1,,,,,,,,,,,,,magenta,square
641.0,3.0,2.0,0.0,1.0,1.0,412.8854939999655,4.0,1.0,phase_1,,,,,,,,,,,,,orange,cross
329.0,6.0,1.0,1.0,1.0,1.0,401.7491160002464,4.0,1.0,phase_1,,,,,,,,,,,,,yellow,I
1317.0,8.0,4.0,1.0,1.0,1.0,401.001954000094,4.0,1.0,phase_1,,,,,,,,,,,,,gray,circle
1304.0,8.0,4.0,1.0,2.0,2.0,542.8682350002418,4.0,1.0,phase_1,,,,,,,,,,,,,gray,circle
168.0,1.0,0.5,0.0,2.0,2.0,421.6591939998579,4.0,1.0,phase_1,,,,,,,,,,,,,green,triangle
317.0,6.0,1.0,1.0,1.0,1.0,336.9130749997566,4.0,1.0,phase_1,,,,,,,,,,,,,yellow,I
312.0,2.0,1.0,0.0,4.0,4.0,384.1475479998735,4.0,1.0,phase_1,,,,,,,,,,,,,blue,hexagon
1297.0,8.0,4.0,1.0,2.0,2.0,515.1990419999493,4.0,1.0,phase_1,,,,,,,,,,,,,gray,circle
183.0,1.0,0.5,0.0,1.0,1.0,375.0577920000069,4.0,1.0,phase_1,,,,,,,,,,,,,green,triangle
640.0,7.0,2.0,1.0,4.0,4.0,354.2758779999531,4.0,1.0,phase_1,,,,,,,,,,,,,magenta,square
340.0,2.0,1.0,0.0,4.0,4.0,392.4517020000166,4.0,1.0,phase_1,,,,,,,,,,,,,blue,hexagon
178.0,5.0,0.5,1.0,2.0,2.0,449.2683349999424,4.0,1.0,phase_1,,,,,,,,,,,,,white,diamond
0.0,2.0,0.0,0.0,2.0,2.0,366.1063459999241,4.0,1.0,phase_1,,,,,,,,,,,,,blue,hexagon
1288.0,8.0,4.0,1.0,3.0,3.0,411.1244430000624,4.0,1.0,phase_1,,,,,,,,,,,,,gray,circle
144.0,5.0,0.5,1.0,1.0,1.0,429.8560160000306,4.0,1.0,phase_1,,,,,,,,,,,,,white,diamond
641.0,3.0,2.0,0.0,1.0,1.0,505.0855340000453,4.0,1.0,phase_1,,,,,,,,,,,,,orange,cross
0.0,2.0,0.0,0.0,4.0,4.0,428.5504439999386,4.0,2.0,phase_1,,,,,,,,,,,,,blue,hexagon
645.0,7.0,2.0,1.0,3.0,3.0,383.8321449998148,4.0,1.0,phase_1,,,,,,,,,,,,,magenta,square
1293.0,4.0,4.0,0.0,2.0,2.0,401.452658999915,4.0,1.0,phase_1,,,,,,,,,,,,,cyan,flipped triangle
336.0,2.0,1.0,0.0,4.0,4.0,401.6390709998632,4.0,1.0,phase_1,,,,,,,,,,,,,blue,hexagon
321.0,6.0,1.0,1.0,4.0,4.0,363.7917609999022,4.0,1.0,phase_1,,,,,,,,,,,,,yellow,I
332.0,2.0,1.0,0.0,2.0,2.0,494.3899879999662,4.0,1.0,phase_1,,,,,,,,,,,,,blue,hexagon
0.0,7.0,0.0,1.0,1.0,1.0,458.0449169998246,4.0,1.0,phase_1,,,,,,,,,,,,,magenta,square
0.0,6.0,0.0,1.0,4.0,4.0,299.3520400000307,4.0,1.0,phase_1,,,,,,,,,,,,,yellow,I
0.0,8.0,0.0,1.0,2.0,2.0,458.2122399997388,4.0,1.0,phase_1,,,,,,,,,,,,,gray,circle
0.0,3.0,0.0,0.0,3.0,3.0,457.9163849998622,4.0,1.0,phase_1,,,,,,,,,,,,,orange,cross
184.0,1.0,0.5,0.0,4.0,4.0,345.5733159998999,4.0,1.0,phase_1,,,,,,,,,,,,,green,triangle
1297.0,4.0,4.0,0.0,1.0,1.0,382.9739540001355,4.0,1.0,phase_1,,,,,,,,,,,,,cyan,flipped triangle
0.0,2.0,0.0,0.0,4.0,4.0,439.4983080001111,4.0,1.0,phase_1,,,,,,,,,,,,,blue,hexagon
629.0,7.0,2.0,1.0,4.0,4.0,417.9438759997538,4.0,1.0,phase_1,,,,,,,,,,,,,magenta,square
625.0,3.0,2.0,0.0,3.0,3.0,364.7795760002736,4.0,1.0,phase_1,,,,,,,,,,,,,orange,cross
331.0,2.0,1.0,0.0,1.0,1.0,412.1983659997568,4.0,1.0,phase_1,,,,,,,,,,,,,blue,hexagon
172.0,1.0,0.5,0.0,3.0,3.0,364.631319000182,4.0,1.0,phase_1,,,,,,,,,,,,,green,triangle
0.0,6.0,0.0,1.0,4.0,4.0,316.9800739997299,4.0,1.0,phase_1,,,,,,,,,,,,,yellow,I
0.0,3.0,2.0,0.0,5.0,5.0,346.6309139994337,1.0,1.0,phase_2,go,250.0,250.0,1.0,,,,,,,,,orange,cross
0.0,1.0,0.5,0.0,5.0,5.0,364.7137790003398,1.0,1.0,phase_2,go,250.0,250.0,1.0,,,,,,,,,green,triangle
0.0,5.0,0.5,1.0,5.0,0.0,0.0,1.0,1.0,phase_2,stop,250.0,250.0,4.0,,,,,,,,,white,diamond
0.0,1.0,0.5,0.0,6.0,6.0,432.9443879996688,1.0,1.0,phase_2,go,300.0,250.0,1.0,,,,,,,,,green,triangle
0.0,5.0,0.5,1.0,5.0,0.0,0.0,1.0,1.0,phase_2,stop,300.0,250.0,4.0,,,,,,,,,white,diamond
0.0,7.0,2.0,1.0,5.0,0.0,0.0,1.0,1.0,phase_2,stop,350.0,250.0,4.0,,,,,,,,,magenta,square
0.0,4.0,4.0,0.0,5.0,5.0,865.1592999995046,1.0,1.0,phase_2,go,400.0,250.0,1.0,,,,,,,,,cyan,flipped triangle
0.0,8.0,4.0,1.0,6.0,0.0,0.0,1.0,1.0,phase_2,stop,400.0,250.0,4.0,,,,,,,,,gray,circle
0.0,1.0,0.5,0.0,5.0,5.0,534.6144090008238,1.0,1.0,phase_2,go,400.0,300.0,1.0,,,,,,,,,green,triangle
0.0,7.0,2.0,1.0,5.0,5.0,394.3409809999139,1.0,1.0,phase_2,stop,400.0,300.0,3.0,,,,,,,,,magenta,square
0.0,4.0,4.0,0.0,5.0,5.0,827.2418419992391,1.0,1.0,phase_2,go,350.0,300.0,1.0,,,,,,,,,cyan,flipped triangle
0.0,6.0,1.0,1.0,5.0,0.0,0.0,1.0,1.0,phase_2,stop,350.0,300.0,4.0,,,,,,,,,yellow,I
0.0,5.0,0.5,1.0,5.0,0.0,0.0,1.0,1.0,phase_2,stop,400.0,300.0,4.0,,,,,,,,,white,diamond
0.0,4.0,4.0,0.0,5.0,5.0,431.5022400005546,1.0,1.0,phase_2,go,450.0,300.0,1.0,,,,,,,,,cyan,flipped triangle
0.0,6.0,1.0,1.0,5.0,5.0,432.0344240004488,1.0,1.0,phase_2,stop,450.0,300.0,3.0,,,,,,,,,yellow,I
0.0,1.0,0.5,0.0,5.0,5.0,628.991792999841,1.0,1.0,phase_2,go,400.0,300.0,1.0,,,,,,,,,green,triangle
0.0,8.0,4.0,1.0,5.0,5.0,366.9929739999134,1.0,1.0,phase_2,go,400.0,300.0,1.0,,,,,,,,,gray,circle
0.0,1.0,0.5,0.0,5.0,5.0,669.8076339998806,1.0,1.0,phase_2,go,400.0,300.0,1.0,,,,,,,,,green,triangle
0.0,1.0,0.5,0.0,5.0,5.0,403.3379689999492,1.0,1.0,phase_2,go,400.0,300.0,1.0,,,,,,,,,green,triangle
0.0,2.0,1.0,0.0,5.0,5.0,402.06631499950157,1.0,1.0,phase_2,go,400.0,300.0,1.0,,,,,,,,,blue,hexagon
0.0,6.0,1.0,1.0,5.0,5.0,589.4363489996977,1.0,1.0,phase_2,stop,400.0,300.0,3.0,,,,,,,,,yellow,I
0.0,7.0,2.0,1.0,5.0,0.0,0.0,1.0,1.0,phase_2,stop,350.0,300.0,4.0,,,,,,,,,magenta,square
0.0,8.0,4.0,1.0,6.0,0.0,0.0,1.0,1.0,phase_2,stop,400.0,300.0,4.0,,,,,,,,,gray,circle
0.0,2.0,1.0,0.0,5.0,5.0,835.627693000788,1.0,1.0,phase_2,go,400.0,350.0,1.0,,,,,,,,,blue,hexagon
0.0,2.0,1.0,0.0,6.0,6.0,898.7493009999525,1.0,1.0,phase_2,go,400.0,350.0,1.0,,,,,,,,,blue,hexagon
0.0,8.0,4.0,1.0,5.0,0.0,0.0,1.0,1.0,phase_2,stop,400.0,350.0,4.0,,,,,,,,,gray,circle
0.0,1.0,0.5,0.0,6.0,6.0,561.6102769999998,1.0,1.0,phase_2,go,450.0,350.0,1.0,,,,,,,,,green,triangle
0.0,3.0,2.0,0.0,5.0,5.0,656.4090319998286,1.0,1.0,phase_2,go,450.0,350.0,1.0,,,,,,,,,orange,cross
0.0,4.0,4.0,0.0,6.0,6.0,318.9480439996259,1.0,1.0,phase_2,go,450.0,350.0,1.0,,,,,,,,,cyan,flipped triangle
0.0,2.0,1.0,0.0,5.0,5.0,327.649014000599,1.0,1.0,phase_2,go,450.0,350.0,1.0,,,,,,,,,blue,hexagon
0.0,2.0,1.0,0.0,6.0,6.0,318.128854999486,1.0,1.0,phase_2,go,450.0,350.0,1.0,,,,,,,,,blue,hexagon
0.0,6.0,1.0,1.0,6.0,0.0,0.0,1.0,1.0,phase_2,stop,450.0,350.0,4.0,,,,,,,,,yellow,I
0.0,2.0,1.0,0.0,5.0,5.0,580.9466459995747,1.0,1.0,phase_2,go,450.0,400.0,1.0,,,,,,,,,blue,hexagon
0.0,6.0,1.0,1.0,6.0,6.0,485.9491269999125,1.0,1.0,phase_2,stop,450.0,400.0,3.0,,,,,,,,,yellow,I
0.0,5.0,0.5,1.0,5.0,5.0,394.3430170002102,1.0,1.0,phase_2,stop,450.0,350.0,3.0,,,,,,,,,white,diamond
0.0,4.0,4.0,0.0,6.0,6.0,598.5236870001245,1.0,1.0,phase_2,go,400.0,350.0,1.0,,,,,,,,,cyan,flipped triangle
0.0,2.0,1.0,0.0,5.0,5.0,716.9261970002481,2.0,1.0,phase_2,go,400.0,350.0,1.0,,,,,,,,,blue,hexagon
0.0,7.0,2.0,1.0,6.0,6.0,377.5459549997322,2.0,1.0,phase_2,go,400.0,350.0,1.0,,,,,,,,,magenta,square
0.0,4.0,4.0,0.0,5.0,5.0,303.7603359998684,2.0,1.0,phase_2,go,400.0,350.0,1.0,,,,,,,,,cyan,flipped triangle
0.0,6.0,1.0,1.0,6.0,6.0,450.840794999749,2.0,1.0,phase_2,stop,400.0,350.0,3.0,,,,,,,,,yellow,I
0.0,6.0,1.0,1.0,5.0,5.0,481.9979200001398,2.0,1.0,phase_2,stop,400.0,300.0,3.0,,,,,,,,,yellow,I
0.0,4.0,4.0,0.0,5.0,5.0,725.8099109994873,2.0,1.0,phase_2,go,350.0,300.0,1.0,,,,,,,,,cyan,flipped triangle
0.0,8.0,4.0,1.0,5.0,5.0,527.4562109998442,2.0,1.0,phase_2,go,350.0,300.0,1.0,,,,,,,,,gray,circle
0.0,3.0,2.0,0.0,5.0,5.0,727.0443409997824,2.0,1.0,phase_2,go,350.0,300.0,1.0,,,,,,,,,orange,cross
0.0,1.0,0.5,0.0,5.0,5.0,517.3136240000531,2.0,1.0,phase_2,go,350.0,300.0,1.0,,,,,,,,,green,triangle
0.0,6.0,1.0,1.0,5.0,0.0,0.0,2.0,1.0,phase_2,stop,350.0,300.0,4.0,,,,,,,,,yellow,I
0.0,8.0,4.0,1.0,5.0,5.0,442.6791770001728,2.0,1.0,phase_2,stop,400.0,300.0,3.0,,,,,,,,,gray,circle
0.0,4.0,4.0,0.0,6.0,6.0,622.0937159996538,2.0,1.0,phase_2,go,350.0,300.0,1.0,,,,,,,,,cyan,flipped triangle
0.0,4.0,4.0,0.0,5.0,5.0,780.8971570002541,2.0,1.0,phase_2,go,350.0,300.0,1.0,,,,,,,,,cyan,flipped triangle
0.0,4.0,4.0,0.0,5.0,5.0,385.449148000589,2.0,1.0,phase_2,go,350.0,300.0,1.0,,,,,,,,,cyan,flipped triangle
0.0,3.0,2.0,0.0,6.0,6.0,871.5774210004383,2.0,1.0,phase_2,go,350.0,300.0,1.0,,,,,,,,,orange,cross
0.0,3.0,2.0,0.0,5.0,5.0,338.0137280000781,2.0,1.0,phase_2,go,350.0,300.0,1.0,,,,,,,,,orange,cross
0.0,3.0,2.0,0.0,5.0,5.0,948.1450900002528,2.0,1.0,phase_2,go,350.0,300.0,1.0,,,,,,,,,orange,cross
0.0,6.0,1.0,1.0,6.0,6.0,537.4242019997837,2.0,1.0,phase_2,go,350.0,300.0,1.0,,,,,,,,,yellow,I
0.0,3.0,2.0,0.0,5.0,5.0,855.8389800000441,2.0,1.0,phase_2,go,350.0,300.0,1.0,,,,,,,,,orange,cross
0.0,5.0,0.5,1.0,6.0,0.0,0.0,2.0,1.0,phase_2,stop,350.0,300.0,4.0,,,,,,,,,white,diamond
0.0,3.0,2.0,0.0,6.0,6.0,854.1385979997358,2.0,1.0,phase_2,go,350.0,350.0,1.0,,,,,,,,,orange,cross
0.0,3.0,2.0,0.0,6.0,6.0,812.1289580003577,2.0,1.0,phase_2,go,350.0,350.0,1.0,,,,,,,,,orange,cross
0.0,3.0,2.0,0.0,5.0,5.0,406.3580429992726,2.0,1.0,phase_2,go,350.0,350.0,1.0,,,,,,,,,orange,cross
0.0,6.0,1.0,1.0,5.0,5.0,367.7319209991765,2.0,1.0,phase_2,go,350.0,350.0,1.0,,,,,,,,,yellow,I
0.0,2.0,1.0,0.0,5.0,5.0,838.3104459999231,2.0,1.0,phase_2,go,350.0,350.0,1.0,,,,,,,,,blue,hexagon
0.0,4.0,4.0,0.0,6.0,6.0,556.0993170001893,2.0,1.0,phase_2,go,350.0,350.0,1.0,,,,,,,,,cyan,flipped triangle
0.0,6.0,1.0,1.0,5.0,5.0,772.4028459997498,2.0,1.0,phase_2,go,350.0,350.0,1.0,,,,,,,,,yellow,I
0.0,8.0,4.0,1.0,6.0,0.0,0.0,2.0,1.0,phase_2,stop,350.0,350.0,4.0,,,,,,,,,gray,circle
0.0,5.0,0.5,1.0,5.0,0.0,0.0,2.0,1.0,phase_2,stop,350.0,400.0,4.0,,,,,,,,,white,diamond
0.0,3.0,2.0,0.0,6.0,6.0,677.1961579997878,2.0,1.0,phase_2,go,400.0,400.0,1.0,,,,,,,,,orange,cross
0.0,2.0,1.0,0.0,5.0,5.0,913.8820579992172,2.0,1.0,phase_2,go,400.0,400.0,1.0,,,,,,,,,blue,hexagon
0.0,5.0,0.5,1.0,6.0,6.0,1111.7109030001302,2.0,1.0,phase_2,go,400.0,400.0,1.0,,,,,,,,,white,diamond
0.0,4.0,4.0,0.0,6.0,6.0,1052.7302039999995,2.0,1.0,phase_2,go,400.0,400.0,1.0,,,,,,,,,cyan,flipped triangle
0.0,6.0,1.0,1.0,6.0,0.0,0.0,2.0,1.0,phase_2,stop,400.0,400.0,4.0,,,,,,,,,yellow,I
0.0,5.0,0.5,1.0,6.0,0.0,0.0,2.0,1.0,phase_2,stop,400.0,450.0,4.0,,,,,,,,,white,diamond
0.0,2.0,1.0,0.0,6.0,6.0,884.8117139996248,2.0,1.0,phase_2,go,400.0,500.0,1.0,,,,,,,,,blue,hexagon
0.0,8.0,4.0,1.0,6.0,6.0,496.3574530002006,3.0,1.0,phase_2,stop,400.0,500.0,3.0,,,,,,,,,gray,circle
0.0,3.0,2.0,0.0,6.0,6.0,329.0323689998331,3.0,1.0,phase_2,go,400.0,450.0,1.0,,,,,,,,,orange,cross
0.0,6.0,1.0,1.0,6.0,6.0,374.2682140000397,3.0,1.0,phase_2,stop,400.0,450.0,3.0,,,,,,,,,yellow,I
0.0,7.0,2.0,1.0,5.0,5.0,347.6026299995283,3.0,1.0,phase_2,stop,400.0,400.0,3.0,,,,,,,,,magenta,square
0.0,7.0,2.0,1.0,5.0,0.0,0.0,3.0,1.0,phase_2,stop,350.0,400.0,4.0,,,,,,,,,magenta,square
0.0,3.0,2.0,0.0,5.0,5.0,627.1471049994943,3.0,1.0,phase_2,go,400.0,400.0,1.0,,,,,,,,,orange,cross
0.0,5.0,0.5,1.0,5.0,0.0,0.0,3.0,1.0,phase_2,stop,400.0,400.0,4.0,,,,,,,,,white,diamond
0.0,3.0,2.0,0.0,6.0,6.0,402.9230169999209,3.0,1.0,phase_2,go,450.0,400.0,1.0,,,,,,,,,orange,cross
0.0,5.0,0.5,1.0,5.0,0.0,0.0,3.0,1.0,phase_2,stop,450.0,400.0,4.0,,,,,,,,,white,diamond
0.0,1.0,0.5,0.0,5.0,5.0,862.0852599997306,3.0,1.0,phase_2,go,500.0,400.0,1.0,,,,,,,,,green,triangle
0.0,2.0,1.0,0.0,6.0,6.0,712.9899219999061,3.0,1.0,phase_2,go,500.0,400.0,1.0,,,,,,,,,blue,hexagon
0.0,8.0,4.0,1.0,6.0,6.0,742.2278809999625,3.0,1.0,phase_2,go,500.0,400.0,1.0,,,,,,,,,gray,circle
0.0,5.0,0.5,1.0,5.0,0.0,0.0,3.0,1.0,phase_2,stop,500.0,400.0,4.0,,,,,,,,,white,diamond
0.0,8.0,4.0,1.0,5.0,5.0,769.7781030001352,3.0,1.0,phase_2,go,550.0,400.0,1.0,,,,,,,,,gray,circle
0.0,4.0,4.0,0.0,6.0,6.0,807.0462779996888,3.0,1.0,phase_2,go,550.0,400.0,1.0,,,,,,,,,cyan,flipped triangle
0.0,7.0,2.0,1.0,6.0,0.0,0.0,3.0,1.0,phase_2,stop,550.0,400.0,4.0,,,,,,,,,magenta,square
0.0,2.0,1.0,0.0,6.0,6.0,637.173076000181,3.0,1.0,phase_2,go,550.0,450.0,1.0,,,,,,,,,blue,hexagon
0.0,5.0,0.5,1.0,6.0,0.0,0.0,3.0,1.0,phase_2,stop,550.0,450.0,4.0,,,,,,,,,white,diamond
0.0,2.0,1.0,0.0,5.0,5.0,460.0004209996768,3.0,1.0,phase_2,go,550.0,500.0,1.0,,,,,,,,,blue,hexagon
0.0,5.0,0.5,1.0,6.0,0.0,0.0,3.0,1.0,phase_2,stop,550.0,500.0,4.0,,,,,,,,,white,diamond
0.0,2.0,1.0,0.0,6.0,6.0,759.7116229999301,3.0,1.0,phase_2,go,550.0,550.0,1.0,,,,,,,,,blue,hexagon
0.0,1.0,0.5,0.0,6.0,6.0,815.2537010000742,3.0,1.0,phase_2,go,550.0,550.0,1.0,,,,,,,,,green,triangle
0.0,1.0,0.5,0.0,6.0,6.0,879.4921970002179,3.0,1.0,phase_2,go,550.0,550.0,1.0,,,,,,,,,green,triangle
0.0,3.0,2.0,0.0,5.0,5.0,1019.7275919999811,3.0,1.0,phase_2,go,550.0,550.0,1.0,,,,,,,,,orange,cross
0.0,8.0,4.0,1.0,6.0,6.0,636.5298460004851,3.0,1.0,phase_2,stop,550.0,550.0,3.0,,,,,,,,,gray,circle
0.0,6.0,1.0,1.0,6.0,6.0,648.6460870000883,3.0,1.0,phase_2,stop,550.0,500.0,3.0,,,,,,,,,yellow,I
0.0,5.0,0.5,1.0,6.0,0.0,0.0,3.0,1.0,phase_2,stop,550.0,450.0,4.0,,,,,,,,,white,diamond
0.0,1.0,0.5,0.0,5.0,5.0,665.1590000001306,3.0,1.0,phase_2,go,550.0,500.0,1.0,,,,,,,,,green,triangle
0.0,2.0,1.0,0.0,5.0,5.0,1339.6781860001283,3.0,1.0,phase_2,go,550.0,500.0,1.0,,,,,,,,,blue,hexagon
0.0,3.0,2.0,0.0,6.0,6.0,1216.1053230001926,3.0,1.0,phase_2,go,550.0,500.0,1.0,,,,,,,,,orange,cross
0.0,7.0,2.0,1.0,5.0,0.0,0.0,3.0,1.0,phase_2,stop,550.0,500.0,4.0,,,,,,,,,magenta,square
0.0,6.0,1.0,1.0,5.0,5.0,570.0556779993349,3.0,1.0,phase_2,go,600.0,500.0,1.0,,,,,,,,,yellow,I
0.0,2.0,1.0,0.0,6.0,6.0,851.3846550004018,3.0,1.0,phase_2,go,600.0,500.0,1.0,,,,,,,,,blue,hexagon
0.0,6.0,1.0,1.0,5.0,0.0,0.0,3.0,1.0,phase_2,stop,600.0,500.0,4.0,,,,,,,,,yellow,I
0.0,1.0,0.5,0.0,5.0,5.0,1021.5519120001773,3.0,1.0,phase_2,go,650.0,500.0,1.0,,,,,,,,,green,triangle
0.0,1.0,0.5,0.0,5.0,5.0,1178.3599149994188,3.0,1.0,phase_2,go,650.0,500.0,1.0,,,,,,,,,green,triangle
0.0,5.0,0.5,1.0,6.0,0.0,0.0,4.0,1.0,phase_2,stop,650.0,500.0,4.0,,,,,,,,,white,diamond
0.0,4.0,4.0,0.0,6.0,6.0,327.9949520001537,4.0,1.0,phase_2,go,650.0,550.0,1.0,,,,,,,,,cyan,flipped triangle
0.0,2.0,1.0,0.0,6.0,6.0,395.466113999646,4.0,1.0,phase_2,go,650.0,550.0,1.0,,,,,,,,,blue,hexagon
0.0,7.0,2.0,1.0,5.0,5.0,281.6945969998414,4.0,1.0,phase_2,stop,650.0,550.0,3.0,,,,,,,,,magenta,square
0.0,8.0,4.0,1.0,6.0,6.0,487.4031429999377,4.0,1.0,phase_2,stop,600.0,550.0,3.0,,,,,,,,,gray,circle
0.0,6.0,1.0,1.0,6.0,6.0,639.6239259993308,4.0,1.0,phase_2,go,600.0,500.0,1.0,,,,,,,,,yellow,I
0.0,3.0,2.0,0.0,5.0,5.0,845.9308030005559,4.0,1.0,phase_2,go,600.0,500.0,1.0,,,,,,,,,orange,cross
0.0,1.0,0.5,0.0,6.0,6.0,589.2620750000788,4.0,1.0,phase_2,go,600.0,500.0,1.0,,,,,,,,,green,triangle
0.0,1.0,0.5,0.0,5.0,5.0,422.395561000485,4.0,1.0,phase_2,go,600.0,500.0,1.0,,,,,,,,,green,triangle
0.0,4.0,4.0,0.0,5.0,5.0,310.3056529998866,4.0,1.0,phase_2,go,600.0,500.0,1.0,,,,,,,,,cyan,flipped triangle
0.0,5.0,0.5,1.0,6.0,6.0,345.8402189999106,4.0,1.0,phase_2,go,600.0,500.0,1.0,,,,,,,,,white,diamond
0.0,7.0,2.0,1.0,5.0,5.0,431.6852910005764,4.0,1.0,phase_2,go,600.0,500.0,1.0,,,,,,,,,magenta,square
0.0,2.0,1.0,0.0,6.0,6.0,468.5193810000783,4.0,1.0,phase_2,go,600.0,500.0,1.0,,,,,,,,,blue,hexagon
0.0,6.0,1.0,1.0,5.0,5.0,281.6034209999998,4.0,1.0,phase_2,stop,600.0,500.0,3.0,,,,,,,,,yellow,I
0.0,2.0,1.0,0.0,6.0,6.0,553.4813360000044,4.0,1.0,phase_2,go,550.0,500.0,1.0,,,,,,,,,blue,hexagon
0.0,2.0,1.0,0.0,6.0,6.0,563.5116189996552,4.0,1.0,phase_2,go,550.0,500.0,1.0,,,,,,,,,blue,hexagon
0.0,4.0,4.0,0.0,6.0,6.0,469.8800930000288,4.0,1.0,phase_2,go,550.0,500.0,1.0,,,,,,,,,cyan,flipped triangle
0.0,5.0,0.5,1.0,5.0,5.0,487.9967420001776,4.0,1.0,phase_2,stop,550.0,500.0,3.0,,,,,,,,,white,diamond
0.0,4.0,4.0,0.0,6.0,6.0,534.915639999781,4.0,1.0,phase_2,go,500.0,500.0,1.0,,,,,,,,,cyan,flipped triangle
0.0,6.0,1.0,1.0,6.0,6.0,319.4311489996835,4.0,1.0,phase_2,stop,500.0,500.0,3.0,,,,,,,,,yellow,I
0.0,7.0,2.0,1.0,5.0,5.0,422.6414479999221,4.0,1.0,phase_2,stop,500.0,450.0,3.0,,,,,,,,,magenta,square
0.0,3.0,2.0,0.0,5.0,5.0,835.8083089997308,4.0,1.0,phase_2,go,450.0,450.0,1.0,,,,,,,,,orange,cross
0.0,3.0,2.0,0.0,6.0,6.0,478.6324189999504,4.0,1.0,phase_2,go,450.0,450.0,1.0,,,,,,,,,orange,cross
0.0,6.0,1.0,1.0,5.0,5.0,244.9651560000347,4.0,1.0,phase_2,stop,450.0,450.0,3.0,,,,,,,,,yellow,I
0.0,8.0,4.0,1.0,6.0,0.0,0.0,4.0,1.0,phase_2,stop,400.0,450.0,4.0,,,,,,,,,gray,circle
0.0,8.0,4.0,1.0,5.0,5.0,571.7533580000236,4.0,1.0,phase_2,go,400.0,500.0,1.0,,,,,,,,,gray,circle
0.0,3.0,2.0,0.0,5.0,5.0,440.5228750001697,4.0,1.0,phase_2,go,400.0,500.0,1.0,,,,,,,,,orange,cross
0.0,3.0,2.0,0.0,6.0,6.0,356.0476909997305,4.0,1.0,phase_2,go,400.0,500.0,1.0,,,,,,,,,orange,cross
0.0,1.0,0.5,0.0,6.0,6.0,450.2046739999059,4.0,1.0,phase_2,go,400.0,500.0,1.0,,,,,,,,,green,triangle
0.0,8.0,4.0,1.0,5.0,0.0,0.0,4.0,1.0,phase_2,stop,400.0,500.0,4.0,,,,,,,,,gray,circle
0.0,4.0,4.0,0.0,6.0,6.0,732.453063000321,4.0,1.0,phase_2,go,450.0,500.0,1.0,,,,,,,,,cyan,flipped triangle
0.0,4.0,4.0,0.0,5.0,5.0,1003.9033050006765,4.0,1.0,phase_2,go,450.0,500.0,1.0,,,,,,,,,cyan,flipped triangle
0.0,4.0,4.0,0.0,5.0,5.0,535.4383029998644,4.0,1.0,phase_2,go,450.0,500.0,1.0,,,,,,,,,cyan,flipped triangle
0.0,3.0,2.0,0.0,5.0,5.0,460.2026160000605,4.0,1.0,phase_2,go,450.0,500.0,1.0,,,,,,,,,orange,cross
0.0,5.0,0.5,1.0,6.0,6.0,568.9468310001757,4.0,1.0,phase_2,go,450.0,500.0,1.0,,,,,,,,,white,diamond
0.0,3.0,2.0,0.0,6.0,6.0,395.0101830005224,4.0,1.0,phase_2,go,450.0,500.0,1.0,,,,,,,,,orange,cross
0.0,7.0,2.0,1.0,5.0,5.0,413.6295379994408,5.0,1.0,phase_2,go,450.0,500.0,1.0,,,,,,,,,magenta,square
0.0,4.0,4.0,0.0,6.0,6.0,422.8830490001201,5.0,1.0,phase_2,go,450.0,500.0,1.0,,,,,,,,,cyan,flipped triangle
0.0,8.0,4.0,1.0,6.0,6.0,450.1729359999444,5.0,1.0,phase_2,stop,450.0,500.0,3.0,,,,,,,,,gray,circle
0.0,2.0,1.0,0.0,5.0,5.0,336.8013499994049,5.0,1.0,phase_2,go,450.0,450.0,1.0,,,,,,,,,blue,hexagon
0.0,2.0,1.0,0.0,6.0,6.0,292.3124199996891,5.0,1.0,phase_2,go,450.0,450.0,1.0,,,,,,,,,blue,hexagon
0.0,6.0,1.0,1.0,6.0,6.0,328.4150220006268,5.0,1.0,phase_2,stop,450.0,450.0,3.0,,,,,,,,,yellow,I
0.0,2.0,1.0,0.0,6.0,6.0,497.5309299998116,5.0,1.0,phase_2,go,450.0,400.0,1.0,,,,,,,,,blue,hexagon
0.0,7.0,2.0,1.0,6.0,0.0,0.0,5.0,1.0,phase_2,stop,450.0,400.0,4.0,,,,,,,,,magenta,square
0.0,3.0,2.0,0.0,6.0,6.0,611.7929639995054,5.0,1.0,phase_2,go,450.0,450.0,1.0,,,,,,,,,orange,cross
0.0,1.0,0.5,0.0,5.0,5.0,377.3164869999164,5.0,1.0,phase_2,go,450.0,450.0,1.0,,,,,,,,,green,triangle
0.0,6.0,1.0,1.0,5.0,5.0,421.8415089999325,5.0,1.0,phase_2,stop,450.0,450.0,3.0,,,,,,,,,yellow,I
0.0,5.0,0.5,1.0,6.0,6.0,406.4638740001101,5.0,1.0,phase_2,stop,400.0,450.0,3.0,,,,,,,,,white,diamond
0.0,1.0,0.5,0.0,5.0,5.0,283.0226900005073,5.0,1.0,phase_2,go,400.0,400.0,1.0,,,,,,,,,green,triangle
0.0,6.0,1.0,1.0,5.0,5.0,376.5751499995531,5.0,1.0,phase_2,stop,400.0,400.0,3.0,,,,,,,,,yellow,I
0.0,1.0,0.5,0.0,5.0,5.0,357.6285200006168,5.0,1.0,phase_2,go,350.0,400.0,1.0,,,,,,,,,green,triangle
0.0,7.0,2.0,1.0,6.0,6.0,577.3959079997439,5.0,1.0,phase_2,stop,350.0,400.0,3.0,,,,,,,,,magenta,square
0.0,7.0,2.0,1.0,6.0,6.0,742.8940039999361,5.0,1.0,phase_2,go,350.0,350.0,1.0,,,,,,,,,magenta,square
0.0,5.0,0.5,1.0,6.0,6.0,686.1193410004489,5.0,1.0,phase_2,go,350.0,350.0,1.0,,,,,,,,,white,diamond
0.0,7.0,2.0,1.0,6.0,6.0,539.503080999566,5.0,1.0,phase_2,stop,350.0,350.0,3.0,,,,,,,,,magenta,square
0.0,3.0,2.0,0.0,6.0,6.0,581.7262290001963,5.0,1.0,phase_2,go,350.0,300.0,1.0,,,,,,,,,orange,cross
0.0,7.0,2.0,1.0,5.0,5.0,538.5329549999369,5.0,1.0,phase_2,stop,350.0,300.0,3.0,,,,,,,,,magenta,square
0.0,2.0,1.0,0.0,5.0,5.0,584.3668329998764,5.0,1.0,phase_2,go,300.0,300.0,1.0,,,,,,,,,blue,hexagon
0.0,8.0,4.0,1.0,5.0,5.0,404.6035549999942,5.0,1.0,phase_2,go,300.0,300.0,1.0,,,,,,,,,gray,circle
0.0,8.0,4.0,1.0,5.0,5.0,364.2157059994133,5.0,1.0,phase_2,stop,300.0,300.0,3.0,,,,,,,,,gray,circle
0.0,6.0,1.0,1.0,6.0,0.0,0.0,5.0,1.0,phase_2,stop,250.0,300.0,4.0,,,,,,,,,yellow,I
0.0,8.0,4.0,1.0,5.0,5.0,761.0367759998553,5.0,1.0,phase_2,go,250.0,350.0,1.0,,,,,,,,,gray,circle
0.0,1.0,0.5,0.0,5.0,5.0,449.4471869993504,5.0,1.0,phase_2,go,250.0,350.0,1.0,,,,,,,,,green,triangle
0.0,5.0,0.5,1.0,5.0,5.0,425.9360569994896,5.0,1.0,phase_2,stop,250.0,350.0,3.0,,,,,,,,,white,diamond
0.0,7.0,2.0,1.0,5.0,0.0,0.0,5.0,1.0,phase_2,stop,200.0,350.0,4.0,,,,,,,,,magenta,square
0.0,1.0,0.5,0.0,6.0,6.0,517.9082380000182,5.0,1.0,phase_2,go,250.0,350.0,1.0,,,,,,,,,green,triangle
0.0,8.0,4.0,1.0,5.0,5.0,510.7696780005426,5.0,1.0,phase_2,stop,250.0,350.0,3.0,,,,,,,,,gray,circle
0.0,5.0,0.5,1.0,6.0,0.0,0.0,5.0,1.0,phase_2,stop,200.0,350.0,4.0,,,,,,,,,white,diamond
0.0,1.0,0.5,0.0,6.0,6.0,611.012872000174,5.0,1.0,phase_2,go,200.0,400.0,1.0,,,,,,,,,green,triangle
0.0,7.0,2.0,1.0,5.0,0.0,0.0,5.0,1.0,phase_2,stop,200.0,400.0,4.0,,,,,,,,,magenta,square
0.0,1.0,0.5,0.0,6.0,6.0,516.8033919999289,5.0,1.0,phase_2,go,250.0,400.0,1.0,,,,,,,,,green,triangle
0.0,7.0,2.0,1.0,5.0,0.0,0.0,5.0,1.0,phase_2,stop,250.0,400.0,4.0,,,,,,,,,magenta,square
0.0,5.0,0.5,1.0,6.0,0.0,0.0,6.0,1.0,phase_2,stop,300.0,400.0,4.0,,,,,,,,,white,diamond
0.0,2.0,1.0,0.0,6.0,6.0,693.3458299999984,6.0,1.0,phase_2,go,300.0,450.0,1.0,,,,,,,,,blue,hexagon
0.0,7.0,2.0,1.0,6.0,0.0,0.0,6.0,1.0,phase_2,stop,300.0,450.0,4.0,,,,,,,,,magenta,square
0.0,1.0,0.5,0.0,6.0,6.0,563.3714609994058,6.0,1.0,phase_2,go,300.0,500.0,1.0,,,,,,,,,green,triangle
0.0,3.0,2.0,0.0,5.0,5.0,964.7176939997736,6.0,1.0,phase_2,go,300.0,500.0,1.0,,,,,,,,,orange,cross
0.0,8.0,4.0,1.0,5.0,5.0,458.3032230002573,6.0,1.0,phase_2,go,300.0,500.0,1.0,,,,,,,,,gray,circle
0.0,6.0,1.0,1.0,5.0,5.0,452.517349000118,6.0,1.0,phase_2,stop,300.0,500.0,3.0,,,,,,,,,yellow,I
0.0,6.0,1.0,1.0,6.0,6.0,581.2766610006292,6.0,1.0,phase_2,go,250.0,500.0,1.0,,,,,,,,,yellow,I
0.0,7.0,2.0,1.0,5.0,5.0,384.3790959999751,6.0,1.0,phase_2,go,250.0,500.0,1.0,,,,,,,,,magenta,square
0.0,8.0,4.0,1.0,5.0,0.0,0.0,6.0,1.0,phase_2,stop,250.0,500.0,4.0,,,,,,,,,gray,circle
0.0,6.0,1.0,1.0,6.0,6.0,534.0091570005825,6.0,1.0,phase_2,go,300.0,500.0,1.0,,,,,,,,,yellow,I
0.0,8.0,4.0,1.0,6.0,6.0,555.7432340001469,6.0,1.0,phase_2,stop,300.0,500.0,3.0,,,,,,,,,gray,circle
0.0,7.0,2.0,1.0,6.0,6.0,713.2621680002558,6.0,1.0,phase_2,stop,300.0,450.0,3.0,,,,,,,,,magenta,square
0.0,5.0,0.5,1.0,6.0,6.0,676.6930829999183,6.0,1.0,phase_2,go,300.0,400.0,1.0,,,,,,,,,white,diamond
0.0,4.0,4.0,0.0,5.0,5.0,535.3796839999632,6.0,1.0,phase_2,go,300.0,400.0,1.0,,,,,,,,,cyan,flipped triangle
0.0,2.0,1.0,0.0,5.0,5.0,544.5926390002569,6.0,1.0,phase_2,go,300.0,400.0,1.0,,,,,,,,,blue,hexagon
0.0,8.0,4.0,1.0,6.0,0.0,0.0,6.0,1.0,phase_2,stop,300.0,400.0,4.0,,,,,,,,,gray,circle
0.0,7.0,2.0,1.0,6.0,0.0,0.0,6.0,1.0,phase_2,stop,300.0,450.0,4.0,,,,,,,,,magenta,square
0.0,8.0,4.0,1.0,5.0,5.0,482.4996689994805,6.0,1.0,phase_2,stop,300.0,500.0,3.0,,,,,,,,,gray,circle
0.0,4.0,4.0,0.0,5.0,5.0,592.7590470000723,6.0,1.0,phase_2,go,250.0,500.0,1.0,,,,,,,,,cyan,flipped triangle
0.0,4.0,4.0,0.0,5.0,5.0,525.9415860000445,6.0,1.0,phase_2,go,250.0,500.0,1.0,,,,,,,,,cyan,flipped triangle
0.0,5.0,0.5,1.0,6.0,6.0,710.79580300011,6.0,1.0,phase_2,stop,250.0,500.0,3.0,,,,,,,,,white,diamond
0.0,1.0,0.5,0.0,6.0,6.0,749.8825150005359,6.0,1.0,phase_2,go,250.0,450.0,1.0,,,,,,,,,green,triangle
0.0,1.0,0.5,0.0,5.0,5.0,590.3079769996111,6.0,1.0,phase_2,go,250.0,450.0,1.0,,,,,,,,,green,triangle
0.0,4.0,4.0,0.0,5.0,5.0,957.0369399998526,6.0,1.0,phase_2,go,250.0,450.0,1.0,,,,,,,,,cyan,flipped triangle
0.0,7.0,2.0,1.0,6.0,0.0,0.0,6.0,1.0,phase_2,stop,250.0,450.0,4.0,,,,,,,,,magenta,square
0.0,7.0,2.0,1.0,6.0,6.0,949.7842270002366,6.0,1.0,phase_2,go,250.0,500.0,1.0,,,,,,,,,magenta,square
0.0,5.0,0.5,1.0,6.0,6.0,450.8714819994566,6.0,1.0,phase_2,stop,250.0,500.0,3.0,,,,,,,,,white,diamond
0.0,6.0,1.0,1.0,6.0,6.0,535.7295499998145,6.0,1.0,phase_2,stop,250.0,450.0,3.0,,,,,,,,,yellow,I
0.0,8.0,4.0,1.0,6.0,6.0,525.7994109997526,6.0,1.0,phase_2,go,250.0,400.0,1.0,,,,,,,,,gray,circle
0.0,2.0,1.0,0.0,6.0,6.0,871.8561320001754,6.0,1.0,phase_2,go,250.0,400.0,1.0,,,,,,,,,blue,hexagon
0.0,6.0,1.0,1.0,5.0,0.0,0.0,6.0,1.0,phase_2,stop,250.0,400.0,4.0,,,,,,,,,yellow,I
0.0,2.0,1.0,0.0,5.0,5.0,649.4033079998189,6.0,1.0,phase_2,go,300.0,400.0,1.0,,,,,,,,,blue,hexagon
0.0,4.0,4.0,0.0,6.0,6.0,657.3596609996457,6.0,1.0,phase_2,go,300.0,400.0,1.0,,,,,,,,,cyan,flipped triangle
0.0,8.0,4.0,1.0,5.0,0.0,0.0,6.0,1.0,phase_2,stop,300.0,400.0,4.0,,,,,,,,,gray,circle
0.0,7.0,2.0,1.0,6.0,6.0,1023.804153999663,6.0,1.0,phase_2,stop,350.0,400.0,3.0,,,,,,,,,magenta,square
0.0,3.0,2.0,0.0,6.0,6.0,963.2088739999743,7.0,1.0,phase_2,go,350.0,350.0,1.0,,,,,,,,,orange,cross
0.0,5.0,0.5,1.0,5.0,5.0,375.9921910004777,7.0,1.0,phase_2,go,350.0,350.0,1.0,,,,,,,,,white,diamond
0.0,2.0,1.0,0.0,6.0,6.0,411.9306410002537,7.0,1.0,phase_2,go,350.0,350.0,1.0,,,,,,,,,blue,hexagon
0.0,4.0,4.0,0.0,5.0,5.0,357.0550849999563,7.0,1.0,phase_2,go,350.0,350.0,1.0,,,,,,,,,cyan,flipped triangle
0.0,8.0,4.0,1.0,5.0,5.0,510.69674500013207,7.0,1.0,phase_2,stop,350.0,350.0,3.0,,,,,,,,,gray,circle
0.0,1.0,0.5,0.0,6.0,6.0,628.6224179993951,7.0,1.0,phase_2,go,300.0,350.0,1.0,,,,,,,,,green,triangle
0.0,7.0,2.0,1.0,6.0,6.0,476.6918859995712,7.0,1.0,phase_2,go,300.0,350.0,1.0,,,,,,,,,magenta,square
0.0,6.0,1.0,1.0,5.0,5.0,492.5834040004702,7.0,1.0,phase_2,stop,300.0,350.0,3.0,,,,,,,,,yellow,I
0.0,7.0,2.0,1.0,6.0,0.0,0.0,7.0,1.0,phase_2,stop,250.0,350.0,4.0,,,,,,,,,magenta,square
0.0,3.0,2.0,0.0,6.0,6.0,581.0805970004367,7.0,1.0,phase_2,go,250.0,400.0,1.0,,,,,,,,,orange,cross
0.0,1.0,0.5,0.0,6.0,6.0,553.5629940004583,7.0,1.0,phase_2,go,250.0,400.0,1.0,,,,,,,,,green,triangle
0.0,3.0,2.0,0.0,5.0,5.0,545.2071489999071,7.0,1.0,phase_2,go,250.0,400.0,1.0,,,,,,,,,orange,cross
0.0,5.0,0.5,1.0,5.0,5.0,405.2835370002867,7.0,1.0,phase_2,stop,250.0,400.0,3.0,,,,,,,,,white,diamond
0.0,1.0,0.5,0.0,5.0,5.0,582.3604890001661,7.0,1.0,phase_2,go,200.0,400.0,1.0,,,,,,,,,green,triangle
0.0,8.0,4.0,1.0,6.0,0.0,0.0,7.0,1.0,phase_2,stop,200.0,400.0,4.0,,,,,,,,,gray,circle
0.0,4.0,4.0,0.0,5.0,5.0,693.2331649995831,7.0,1.0,phase_2,go,200.0,450.0,1.0,,,,,,,,,cyan,flipped triangle
0.0,5.0,0.5,1.0,6.0,0.0,0.0,7.0,1.0,phase_2,stop,200.0,450.0,4.0,,,,,,,,,white,diamond
0.0,7.0,2.0,1.0,5.0,0.0,0.0,7.0,1.0,phase_2,stop,200.0,500.0,4.0,,,,,,,,,magenta,square
0.0,4.0,4.0,0.0,6.0,6.0,705.2406499997232,7.0,1.0,phase_2,go,250.0,500.0,1.0,,,,,,,,,cyan,flipped triangle
0.0,1.0,0.5,0.0,6.0,6.0,590.4676090003704,7.0,1.0,phase_2,go,250.0,500.0,1.0,,,,,,,,,green,triangle
0.0,8.0,4.0,1.0,6.0,0.0,0.0,7.0,1.0,phase_2,stop,250.0,500.0,4.0,,,,,,,,,gray,circle
0.0,7.0,2.0,1.0,6.0,6.0,622.2867819997191,7.0,1.0,phase_2,stop,250.0,550.0,3.0,,,,,,,,,magenta,square
0.0,5.0,0.5,1.0,6.0,6.0,958.3679570005188,7.0,1.0,phase_2,go,250.0,500.0,1.0,,,,,,,,,white,diamond
0.0,6.0,1.0,1.0,5.0,0.0,0.0,7.0,1.0,phase_2,stop,250.0,500.0,4.0,,,,,,,,,yellow,I
0.0,1.0,0.5,0.0,5.0,5.0,721.5060809994611,7.0,1.0,phase_2,go,300.0,500.0,1.0,,,,,,,,,green,triangle
0.0,8.0,4.0,1.0,5.0,0.0,0.0,7.0,1.0,phase_2,stop,300.0,500.0,4.0,,,,,,,,,gray,circle
0.0,7.0,2.0,1.0,5.0,5.0,711.1158109992175,7.0,1.0,phase_2,go,350.0,500.0,1.0,,,,,,,,,magenta,square
0.0,6.0,1.0,1.0,6.0,0.0,0.0,7.0,1.0,phase_2,stop,350.0,500.0,4.0,,,,,,,,,yellow,I
0.0,2.0,1.0,0.0,5.0,5.0,647.0846789998177,7.0,1.0,phase_2,go,350.0,550.0,1.0,,,,,,,,,blue,hexagon
0.0,8.0,4.0,1.0,6.0,6.0,789.524449000055,7.0,1.0,phase_2,stop,350.0,550.0,3.0,,,,,,,,,gray,circle
0.0,2.0,1.0,0.0,5.0,5.0,768.7687210000149,7.0,1.0,phase_2,go,350.0,500.0,1.0,,,,,,,,,blue,hexagon
0.0,8.0,4.0,1.0,6.0,6.0,794.2624849993081,7.0,1.0,phase_2,stop,350.0,500.0,3.0,,,,,,,,,gray,circle
0.0,3.0,2.0,0.0,5.0,5.0,543.6869770001067,7.0,1.0,phase_2,go,350.0,450.0,1.0,,,,,,,,,orange,cross
0.0,3.0,2.0,0.0,6.0,6.0,863.4985869994125,7.0,1.0,phase_2,go,350.0,450.0,1.0,,,,,,,,,orange,cross
0.0,2.0,1.0,0.0,6.0,6.0,638.7148760004493,7.0,1.0,phase_2,go,350.0,450.0,1.0,,,,,,,,,blue,hexagon
0.0,8.0,4.0,1.0,5.0,5.0,551.8225579999125,7.0,1.0,phase_2,stop,350.0,450.0,3.0,,,,,,,,,gray,circle
0.0,1.0,0.5,0.0,6.0,6.0,628.9076180000848,8.0,1.0,phase_2,go,300.0,450.0,1.0,,,,,,,,,green,triangle
0.0,3.0,2.0,0.0,5.0,5.0,468.9014839996162,8.0,1.0,phase_2,go,300.0,450.0,1.0,,,,,,,,,orange,cross
0.0,5.0,0.5,1.0,5.0,5.0,441.5858749998733,8.0,1.0,phase_2,go,300.0,450.0,1.0,,,,,,,,,white,diamond
0.0,8.0,4.0,1.0,6.0,6.0,479.6634730000733,8.0,1.0,phase_2,stop,300.0,450.0,3.0,,,,,,,,,gray,circle
0.0,8.0,4.0,1.0,6.0,0.0,0.0,8.0,1.0,phase_2,stop,300.0,400.0,4.0,,,,,,,,,gray,circle
0.0,6.0,1.0,1.0,6.0,0.0,0.0,8.0,1.0,phase_2,stop,300.0,450.0,4.0,,,,,,,,,yellow,I
0.0,2.0,1.0,0.0,5.0,5.0,749.7362009999051,8.0,1.0,phase_2,go,300.0,500.0,1.0,,,,,,,,,blue,hexagon
0.0,5.0,0.5,1.0,5.0,0.0,0.0,8.0,1.0,phase_2,stop,300.0,500.0,4.0,,,,,,,,,white,diamond
0.0,5.0,0.5,1.0,5.0,0.0,0.0,8.0,1.0,phase_2,stop,350.0,500.0,4.0,,,,,,,,,white,diamond
0.0,6.0,1.0,1.0,5.0,0.0,0.0,8.0,1.0,phase_2,stop,400.0,500.0,4.0,,,,,,,,,yellow,I
0.0,6.0,1.0,1.0,6.0,6.0,561.7805110005065,8.0,1.0,phase_2,go,450.0,500.0,1.0,,,,,,,,,yellow,I
0.0,4.0,4.0,0.0,5.0,5.0,609.1217040002448,8.0,1.0,phase_2,go,450.0,500.0,1.0,,,,,,,,,cyan,flipped triangle
0.0,3.0,2.0,0.0,6.0,6.0,833.4207569996579,8.0,1.0,phase_2,go,450.0,500.0,1.0,,,,,,,,,orange,cross
0.0,7.0,2.0,1.0,6.0,6.0,703.4946580006363,8.0,1.0,phase_2,stop,450.0,500.0,3.0,,,,,,,,,magenta,square
0.0,2.0,1.0,0.0,5.0,5.0,758.3340769997449,8.0,1.0,phase_2,go,450.0,450.0,1.0,,,,,,,,,blue,hexagon
0.0,5.0,0.5,1.0,5.0,0.0,0.0,8.0,1.0,phase_2,stop,450.0,450.0,4.0,,,,,,,,,white,diamond
0.0,4.0,4.0,0.0,6.0,6.0,674.8081390005609,8.0,1.0,phase_2,go,500.0,450.0,1.0,,,,,,,,,cyan,flipped triangle
0.0,1.0,0.5,0.0,6.0,6.0,900.6147529998998,8.0,1.0,phase_2,go,500.0,450.0,1.0,,,,,,,,,green,triangle
0.0,7.0,2.0,1.0,6.0,0.0,0.0,8.0,1.0,phase_2,stop,500.0,450.0,4.0,,,,,,,,,magenta,square
0.0,4.0,4.0,0.0,6.0,6.0,675.2421099999992,8.0,1.0,phase_2,go,500.0,500.0,1.0,,,,,,,,,cyan,flipped triangle
0.0,4.0,4.0,0.0,6.0,6.0,1030.8742659999552,8.0,1.0,phase_2,go,500.0,500.0,1.0,,,,,,,,,cyan,flipped triangle
0.0,3.0,2.0,0.0,6.0,6.0,1099.0741820005496,8.0,1.0,phase_2,go,500.0,500.0,1.0,,,,,,,,,orange,cross
0.0,5.0,0.5,1.0,5.0,5.0,976.23596899939,8.0,1.0,phase_2,go,500.0,500.0,1.0,,,,,,,,,white,diamond
0.0,5.0,0.5,1.0,5.0,5.0,656.1936540001625,8.0,1.0,phase_2,stop,500.0,500.0,3.0,,,,,,,,,white,diamond
0.0,2.0,1.0,0.0,6.0,6.0,628.9415419996658,8.0,1.0,phase_2,go,450.0,500.0,1.0,,,,,,,,,blue,hexagon
0.0,3.0,2.0,0.0,5.0,5.0,600.6308689993602,8.0,1.0,phase_2,go,450.0,500.0,1.0,,,,,,,,,orange,cross
0.0,3.0,2.0,0.0,6.0,0.0,0.0,8.0,1.0,phase_2,go,450.0,500.0,5.0,,,,,,,,,orange,cross
0.0,1.0,0.5,0.0,6.0,6.0,893.2210409993786,8.0,1.0,phase_2,go,450.0,500.0,1.0,,,,,,,,,green,triangle
0.0,4.0,4.0,0.0,6.0,6.0,478.9314029994784,8.0,1.0,phase_2,go,450.0,500.0,1.0,,,,,,,,,cyan,flipped triangle
0.0,4.0,4.0,0.0,5.0,5.0,442.9020150000724,8.0,1.0,phase_2,go,450.0,500.0,1.0,,,,,,,,,cyan,flipped triangle
0.0,6.0,1.0,1.0,6.0,6.0,450.5697200002032,8.0,1.0,phase_2,go,450.0,500.0,1.0,,,,,,,,,yellow,I
0.0,1.0,0.5,0.0,6.0,6.0,423.1065519998083,8.0,1.0,phase_2,go,450.0,500.0,1.0,,,,,,,,,green,triangle
0.0,4.0,4.0,0.0,6.0,6.0,357.7961819992197,8.0,1.0,phase_2,go,450.0,500.0,1.0,,,,,,,,,cyan,flipped triangle
0.0,7.0,2.0,1.0,5.0,5.0,328.7700360006056,8.0,1.0,phase_2,stop,450.0,500.0,3.0,,,,,,,,,magenta,square
0.0,2.0,1.0,0.0,5.0,5.0,508.7297789996228,8.0,1.0,phase_2,go,400.0,500.0,1.0,,,,,,,,,blue,hexagon
0.0,7.0,2.0,1.0,6.0,6.0,498.1041480004933,8.0,1.0,phase_2,go,400.0,500.0,1.0,,,,,,,,,magenta,square
0.0,5.0,0.5,1.0,7.0,1.0,2951.9707819999894,1.0,1.0,phase_3,,,,,192.0,1.0,192.0,960.0,384.0,768.0,576.0,1152.0,white,diamond
0.0,8.0,4.0,1.0,7.0,5.0,3445.206271000643,1.0,1.0,phase_3,,,,,810.0,6.0,270.0,540.0,135.0,675.0,810.0,405.0,gray,circle
0.0,4.0,4.0,0.0,7.0,6.0,615.5184380004357,1.0,2.0,phase_3,,,,,1038.0,6.0,346.0,173.0,865.0,692.0,519.0,1038.0,cyan,flipped triangle
0.0,5.0,0.5,1.0,7.0,2.0,2658.758200000193,1.0,1.0,phase_3,,,,,519.0,3.0,692.0,519.0,173.0,1038.0,865.0,346.0,white,diamond
0.0,4.0,4.0,0.0,7.0,5.0,1819.1655430000535,1.0,1.0,phase_3,,,,,770.0,5.0,154.0,924.0,308.0,616.0,770.0,462.0,cyan,flipped triangle
0.0,6.0,1.0,1.0,7.0,2.0,1184.961162999571,1.0,1.0,phase_3,,,,,348.0,3.0,116.0,348.0,464.0,696.0,580.0,232.0,yellow,I
0.0,3.0,2.0,0.0,7.0,3.0,2013.293366000653,1.0,1.0,phase_3,,,,,462.0,3.0,308.0,616.0,462.0,924.0,154.0,770.0,orange,cross
0.0,1.0,0.5,0.0,7.0,5.0,2370.291610999629,1.0,1.0,phase_3,,,,,865.0,5.0,519.0,346.0,692.0,173.0,865.0,1038.0,green,triangle
0.0,4.0,4.0,0.0,7.0,3.0,2051.417878000393,1.0,1.0,phase_3,,,,,770.0,5.0,616.0,462.0,770.0,308.0,924.0,154.0,cyan,flipped triangle
0.0,1.0,0.5,0.0,7.0,6.0,3234.764087000258,1.0,1.0,phase_3,,,,,576.0,3.0,384.0,192.0,960.0,768.0,1152.0,576.0,green,triangle
0.0,5.0,0.5,1.0,7.0,3.0,2942.389006999292,1.0,1.0,phase_3,,,,,675.0,5.0,810.0,135.0,675.0,270.0,405.0,540.0,white,diamond
0.0,3.0,2.0,0.0,7.0,2.0,3825.05663199936,1.0,1.0,phase_3,,,,,675.0,5.0,405.0,675.0,810.0,540.0,270.0,135.0,orange,cross
0.0,3.0,2.0,0.0,7.0,3.0,2733.1602530002783,1.0,1.0,phase_3,,,,,865.0,5.0,519.0,173.0,865.0,346.0,1038.0,692.0,orange,cross
0.0,8.0,4.0,1.0,7.0,6.0,2748.2296190000848,1.0,1.0,phase_3,,,,,464.0,4.0,580.0,348.0,696.0,116.0,232.0,464.0,gray,circle
0.0,6.0,1.0,1.0,7.0,3.0,2849.903398000606,1.0,1.0,phase_3,,,,,384.0,2.0,192.0,1152.0,384.0,576.0,768.0,960.0,yellow,I
0.0,6.0,1.0,1.0,7.0,5.0,2142.3042360002,1.0,1.0,phase_3,,,,,616.0,4.0,770.0,308.0,924.0,154.0,616.0,462.0,yellow,I
0.0,8.0,4.0,1.0,7.0,6.0,335.5223040007331,1.0,2.0,phase_3,,,,,924.0,6.0,154.0,770.0,462.0,308.0,616.0,924.0,gray,circle
0.0,3.0,2.0,0.0,7.0,5.0,3859.6964149992345,1.0,1.0,phase_3,,,,,348.0,3.0,580.0,232.0,696.0,464.0,348.0,116.0,orange,cross
0.0,5.0,0.5,1.0,7.0,3.0,2692.3364419999416,1.0,1.0,phase_3,,,,,675.0,5.0,270.0,135.0,675.0,405.0,540.0,810.0,white,diamond
0.0,7.0,2.0,1.0,7.0,3.0,3385.105475000273,1.0,1.0,phase_3,,,,,1038.0,6.0,173.0,692.0,1038.0,519.0,865.0,346.0,magenta,square
0.0,2.0,1.0,0.0,7.0,3.0,2710.374453000441,2.0,1.0,phase_3,,,,,960.0,5.0,768.0,384.0,960.0,1152.0,192.0,576.0,blue,hexagon
0.0,2.0,1.0,0.0,7.0,5.0,1707.5941789998978,2.0,1.0,phase_3,,,,,675.0,5.0,135.0,270.0,810.0,540.0,675.0,405.0,blue,hexagon
0.0,7.0,2.0,1.0,7.0,5.0,3215.578712000024,2.0,1.0,phase_3,,,,,580.0,5.0,696.0,116.0,464.0,348.0,580.0,232.0,magenta,square
0.0,7.0,2.0,1.0,7.0,4.0,2741.820264000125,2.0,1.0,phase_3,,,,,1152.0,6.0,768.0,192.0,384.0,1152.0,576.0,960.0,magenta,square
0.0,2.0,1.0,0.0,7.0,4.0,3515.9073380000336,2.0,1.0,phase_3,,,,,696.0,6.0,580.0,116.0,232.0,696.0,464.0,348.0,blue,hexagon
0.0,4.0,4.0,0.0,7.0,5.0,3522.453374000179,2.0,1.0,phase_3,,,,,768.0,4.0,1152.0,576.0,192.0,960.0,768.0,384.0,cyan,flipped triangle
0.0,1.0,0.5,0.0,7.0,3.0,3102.426433999426,2.0,1.0,phase_3,,,,,384.0,2.0,768.0,960.0,384.0,576.0,1152.0,192.0,green,triangle
0.0,6.0,1.0,1.0,7.0,6.0,2031.0654059994704,2.0,1.0,phase_3,,,,,580.0,5.0,232.0,696.0,464.0,348.0,116.0,580.0,yellow,I
0.0,7.0,2.0,1.0,7.0,1.0,2102.691393999521,2.0,1.0,phase_3,,,,,768.0,4.0,768.0,192.0,1152.0,384.0,576.0,960.0,magenta,square
0.0,6.0,1.0,1.0,7.0,2.0,3232.3814579995087,2.0,1.0,phase_3,,,,,519.0,3.0,865.0,519.0,173.0,1038.0,346.0,692.0,yellow,I
0.0,2.0,1.0,0.0,7.0,4.0,2336.5430069998183,2.0,1.0,phase_3,,,,,384.0,2.0,576.0,192.0,960.0,384.0,1152.0,768.0,blue,hexagon
0.0,4.0,4.0,0.0,7.0,6.0,3164.912635000292,2.0,1.0,phase_3,,,,,348.0,3.0,116.0,580.0,232.0,464.0,696.0,348.0,cyan,flipped triangle
0.0,3.0,2.0,0.0,7.0,5.0,2308.169120000457,2.0,1.0,phase_3,,,,,540.0,4.0,675.0,270.0,135.0,810.0,540.0,405.0,orange,cross
0.0,5.0,0.5,1.0,7.0,3.0,2380.547923999984,2.0,1.0,phase_3,,,,,232.0,2.0,464.0,580.0,232.0,116.0,696.0,348.0,white,diamond
0.0,4.0,4.0,0.0,7.0,6.0,2758.1655140002117,2.0,1.0,phase_3,,,,,675.0,5.0,810.0,405.0,135.0,540.0,270.0,675.0,cyan,flipped triangle
0.0,8.0,4.0,1.0,7.0,5.0,2112.170088000312,2.0,1.0,phase_3,,,,,865.0,5.0,173.0,1038.0,692.0,346.0,865.0,519.0,gray,circle
0.0,8.0,4.0,1.0,7.0,1.0,2268.7476940000124,2.0,1.0,phase_3,,,,,865.0,5.0,865.0,1038.0,346.0,173.0,519.0,692.0,gray,circle
0.0,1.0,0.5,0.0,7.0,4.0,4077.4522259998776,2.0,1.0,phase_3,,,,,464.0,4.0,348.0,116.0,232.0,464.0,580.0,696.0,green,triangle
0.0,1.0,0.5,0.0,7.0,4.0,1117.842083999676,2.0,1.0,phase_3,,,,,462.0,3.0,616.0,154.0,924.0,462.0,308.0,770.0,green,triangle
0.0,7.0,2.0,1.0,7.0,4.0,3275.444365999647,2.0,1.0,phase_3,,,,,924.0,6.0,308.0,770.0,616.0,924.0,462.0,154.0,magenta,square
0.0,4.0,4.0,0.0,7.0,2.0,4145.3748069998255,3.0,1.0,phase_3,,,,,346.0,2.0,865.0,346.0,692.0,519.0,1038.0,173.0,cyan,flipped triangle
0.0,2.0,1.0,0.0,7.0,5.0,1967.28562700082,3.0,1.0,phase_3,,,,,405.0,3.0,540.0,675.0,270.0,810.0,405.0,135.0,blue,hexagon
0.0,4.0,4.0,0.0,7.0,4.0,2186.673088000134,3.0,1.0,phase_3,,,,,576.0,3.0,960.0,768.0,1152.0,576.0,192.0,384.0,cyan,flipped triangle
0.0,6.0,1.0,1.0,7.0,3.0,2674.320837000778,3.0,1.0,phase_3,,,,,960.0,5.0,384.0,192.0,960.0,576.0,1152.0,768.0,yellow,I
0.0,8.0,4.0,1.0,7.0,4.0,3228.7946510004986,3.0,1.0,phase_3,,,,,696.0,6.0,580.0,116.0,464.0,696.0,232.0,348.0,gray,circle
0.0,8.0,4.0,1.0,7.0,2.0,3297.3494810003103,3.0,1.0,phase_3,,,,,770.0,5.0,462.0,770.0,308.0,154.0,924.0,616.0,gray,circle
0.0,1.0,0.5,0.0,7.0,3.0,3163.4273150002628,3.0,1.0,phase_3,,,,,770.0,5.0,462.0,924.0,770.0,616.0,308.0,154.0,green,triangle
0.0,8.0,4.0,1.0,7.0,3.0,1851.486976999695,3.0,1.0,phase_3,,,,,768.0,4.0,1152.0,576.0,768.0,384.0,192.0,960.0,gray,circle
0.0,2.0,1.0,0.0,7.0,4.0,2595.0888180004767,3.0,1.0,phase_3,,,,,865.0,5.0,519.0,346.0,1038.0,865.0,692.0,173.0,blue,hexagon
0.0,7.0,2.0,1.0,7.0,1.0,4136.7597810003645,3.0,1.0,phase_3,,,,,696.0,6.0,696.0,348.0,116.0,580.0,464.0,232.0,magenta,square
0.0,2.0,1.0,0.0,7.0,6.0,4349.180864000118,3.0,1.0,phase_3,,,,,770.0,5.0,924.0,154.0,462.0,308.0,616.0,770.0,blue,hexagon
0.0,3.0,2.0,0.0,7.0,5.0,1736.1710880004466,3.0,1.0,phase_3,,,,,348.0,3.0,696.0,232.0,116.0,580.0,348.0,464.0,orange,cross
0.0,3.0,2.0,0.0,7.0,5.0,3204.4972149997197,3.0,1.0,phase_3,,,,,346.0,2.0,692.0,173.0,1038.0,865.0,346.0,519.0,orange,cross
0.0,2.0,1.0,0.0,7.0,4.0,1260.336035000364,3.0,1.0,phase_3,,,,,616.0,4.0,154.0,924.0,308.0,616.0,462.0,770.0,blue,hexagon
0.0,8.0,4.0,1.0,7.0,3.0,2093.974933000027,3.0,1.0,phase_3,,,,,768.0,4.0,960.0,192.0,768.0,576.0,1152.0,384.0,gray,circle
0.0,3.0,2.0,0.0,7.0,4.0,2628.70363500042,3.0,1.0,phase_3,,,,,384.0,2.0,576.0,192.0,1152.0,384.0,960.0,768.0,orange,cross
0.0,6.0,1.0,1.0,7.0,2.0,3729.822444999627,3.0,1.0,phase_3,,,,,865.0,5.0,692.0,865.0,519.0,1038.0,173.0,346.0,yellow,I
0.0,5.0,0.5,1.0,7.0,5.0,3392.4781309997343,3.0,1.0,phase_3,,,,,616.0,4.0,462.0,770.0,924.0,154.0,616.0,308.0,white,diamond
0.0,5.0,0.5,1.0,7.0,1.0,3749.804264999512,3.0,1.0,phase_3,,,,,768.0,4.0,768.0,384.0,192.0,960.0,1152.0,576.0,white,diamond
0.0,2.0,1.0,0.0,7.0,4.0,2904.628788000082,3.0,1.0,phase_3,,,,,865.0,5.0,519.0,173.0,1038.0,865.0,692.0,346.0,blue,hexagon
0.0,1.0,0.5,0.0,7.0,3.0,2400.230809000277,4.0,1.0,phase_3,,,,,692.0,4.0,173.0,1038.0,692.0,865.0,519.0,346.0,green,triangle
0.0,4.0,4.0,0.0,7.0,6.0,2884.46017699971,4.0,1.0,phase_3,,,,,580.0,5.0,696.0,116.0,232.0,464.0,348.0,580.0,cyan,flipped triangle
0.0,1.0,0.5,0.0,7.0,4.0,3452.635655999984,4.0,1.0,phase_3,,,,,580.0,5.0,696.0,232.0,348.0,580.0,116.0,464.0,green,triangle
0.0,2.0,1.0,0.0,7.0,1.0,3062.1836660002373,4.0,1.0,phase_3,,,,,580.0,5.0,580.0,464.0,116.0,232.0,348.0,696.0,blue,hexagon
0.0,1.0,0.5,0.0,7.0,3.0,2393.679198999962,4.0,1.0,phase_3,,,,,540.0,4.0,675.0,405.0,540.0,810.0,270.0,135.0,green,triangle
0.0,7.0,2.0,1.0,7.0,3.0,3274.3387909995363,4.0,1.0,phase_3,,,,,675.0,5.0,810.0,405.0,675.0,540.0,135.0,270.0,magenta,square
0.0,7.0,2.0,1.0,7.0,5.0,2114.965941000264,4.0,1.0,phase_3,,,,,924.0,6.0,462.0,308.0,616.0,154.0,924.0,770.0,magenta,square
0.0,7.0,2.0,1.0,7.0,5.0,2737.2062839995124,4.0,1.0,phase_3,,,,,810.0,6.0,675.0,270.0,135.0,405.0,810.0,540.0,magenta,square
0.0,5.0,0.5,1.0,7.0,4.0,4016.7549669995424,4.0,1.0,phase_3,,,,,580.0,5.0,116.0,348.0,696.0,580.0,232.0,464.0,white,diamond
0.0,6.0,1.0,1.0,7.0,2.0,4938.137135000034,4.0,1.0,phase_3,,,,,540.0,4.0,135.0,540.0,810.0,405.0,270.0,675.0,yellow,I
0.0,3.0,2.0,0.0,7.0,5.0,3999.9300200006473,4.0,1.0,phase_3,,,,,576.0,3.0,1152.0,960.0,768.0,384.0,576.0,192.0,orange,cross
0.0,8.0,4.0,1.0,7.0,3.0,3126.614502000848,4.0,1.0,phase_3,,,,,810.0,6.0,405.0,675.0,810.0,270.0,135.0,540.0,gray,circle
0.0,6.0,1.0,1.0,7.0,5.0,2626.7736610006978,4.0,1.0,phase_3,,,,,270.0,2.0,675.0,810.0,135.0,540.0,270.0,405.0,yellow,I
0.0,4.0,4.0,0.0,7.0,4.0,1294.549618000019,4.0,1.0,phase_3,,,,,810.0,6.0,135.0,405.0,270.0,810.0,675.0,540.0,cyan,flipped triangle
0.0,7.0,2.0,1.0,7.0,1.0,3866.353796000112,4.0,1.0,phase_3,,,,,865.0,5.0,865.0,346.0,1038.0,173.0,692.0,519.0,magenta,square
0.0,5.0,0.5,1.0,7.0,2.0,2617.5991279997106,4.0,1.0,phase_3,,,,,924.0,6.0,308.0,924.0,154.0,462.0,616.0,770.0,white,diamond
0.0,3.0,2.0,0.0,7.0,4.0,2617.193815000064,4.0,1.0,phase_3,,,,,616.0,4.0,308.0,462.0,770.0,616.0,924.0,154.0,orange,cross
0.0,1.0,0.5,0.0,7.0,3.0,2712.782428000537,4.0,1.0,phase_3,,,,,405.0,3.0,810.0,270.0,405.0,540.0,675.0,135.0,green,triangle
0.0,6.0,1.0,1.0,7.0,6.0,2013.5479119999218,4.0,1.0,phase_3,,,,,616.0,4.0,462.0,308.0,924.0,154.0,770.0,616.0,yellow,I
0.0,5.0,0.5,1.0,7.0,1.0,3595.5902980003884,4.0,1.0,phase_3,,,,,346.0,2.0,346.0,1038.0,173.0,692.0,865.0,519.0,white,diamond
