raw_reward_magnitude,stim_reward,stepwise_reward_magnitude,paired_with_stopping,stim_location,response,reaction_time,block,num_trial_presentations,which_phase,stop_signal_trial_type,left_SSD,right_SSD,accuracy,chosen_bidding_amount,chosen_bidding_level,possible_bid_1,possible_bid_2,possible_bid_3,possible_bid_4,possible_bid_5,possible_bid_6,color_text,shape_text
0.0,8.0,0.0,1.0,3.0,3.0,501.904632999981,1.0,1.0,phase_1,,,,,,,,,,,,,yellow,circle
347.0,6.0,2.0,1.0,4.0,4.0,623.2917170000292,1.0,1.0,phase_1,,,,,,,,,,,,,magenta,cross
348.0,6.0,2.0,1.0,2.0,2.0,650.199874000009,1.0,1.0,phase_1,,,,,,,,,,,,,magenta,cross
1324.0,4.0,4.0,0.0,4.0,4.0,474.2906989999937,1.0,1.0,phase_1,,,,,,,,,,,,,cyan,diamond
659.0,7.0,3.0,1.0,4.0,4.0,538.2709709999745,1.0,1.0,phase_1,,,,,,,,,,,,,green,triangle
666.0,3.0,3.0,0.0,2.0,2.0,436.8335779998915,1.0,1.0,phase_1,,,,,,,,,,,,,orange,flipped triangle
146.0,5.0,1.0,1.0,4.0,4.0,409.4321129999798,1.0,1.0,phase_1,,,,,,,,,,,,,white,square
327.0,6.0,2.0,1.0,1.0,1.0,473.7125069999592,1.0,1.0,phase_1,,,,,,,,,,,,,magenta,cross
627.0,7.0,3.0,1.0,2.0,2.0,409.465683999997,1.0,1.0,phase_1,,,,,,,,,,,,,green,triangle
1317.0,8.0,4.0,1.0,2.0,2.0,565.9413450000557,1.0,1.0,phase_1,,,,,,,,,,,,,yellow,circle
626.0,7.0,3.0,1.0,2.0,2.0,380.7575009999482,1.0,1.0,phase_1,,,,,,,,,,,,,green,triangle
306.0,2.0,2.0,0.0,4.0,4.0,408.4854769999992,1.0,1.0,phase_1,,,,,,,,,,,,,gray,hexagon
326.0,2.0,2.0,0.0,1.0,1.0,640.5601110000134,1.0,1.0,phase_1,,,,,,,,,,,,,gray,hexagon
0.0,7.0,0.0,1.0,1.0,1.0,381.6710090000015,1.0,1.0,phase_1,,,,,,,,,,,,,green,triangle
0.0,3.0,0.0,0.0,1.0,1.0,473.2826829999794,1.0,1.0,phase_1,,,,,,,,,,,,,orange,flipped triangle
143.0,5.0,1.0,1.0,1.0,1.0,427.8266649998841,1.0,1.0,phase_1,,,,,,,,,,,,,white,square
180.0,5.0,1.0,1.0,2.0,2.0,406.7183550000663,1.0,1.0,phase_1,,,,,,,,,,,,,white,square
326.0,6.0,2.0,1.0,3.0,3.0,418.8557569998465,1.0,1.0,phase_1,,,,,,,,,,,,,magenta,cross
156.0,1.0,1.0,0.0,3.0,3.0,427.2281290000137,1.0,1.0,phase_1,,,,,,,,,,,,,blue,I
0.0,5.0,0.0,1.0,3.0,3.0,410.0881140000183,1.0,1.0,phase_1,,,,,,,,,,,,,white,square
0.0,4.0,0.0,0.0,2.0,2.0,357.5474059998669,1.0,1.0,phase_1,,,,,,,,,,,,,cyan,diamond
161.0,1.0,1.0,0.0,3.0,3.0,501.6514270000698,1.0,1.0,phase_1,,,,,,,,,,,,,blue,I
634.0,7.0,3.0,1.0,3.0,3.0,362.4860089998947,1.0,1.0,phase_1,,,,,,,,,,,,,green,triangle
1314.0,8.0,4.0,1.0,4.0,4.0,315.6465829999888,1.0,1.0,phase_1,,,,,,,,,,,,,yellow,circle
183.0,5.0,1.0,1.0,1.0,1.0,420.7790850000492,1.0,1.0,phase_1,,,,,,,,,,,,,white,square
329.0,6.0,2.0,1.0,2.0,2.0,316.1852279999948,1.0,1.0,phase_1,,,,,,,,,,,,,magenta,cross
669.0,3.0,3.0,0.0,3.0,3.0,315.8718049999152,1.0,1.0,phase_1,,,,,,,,,,,,,orange,flipped triangle
1310.0,8.0,4.0,1.0,2.0,2.0,325.2088990000175,1.0,1.0,phase_1,,,,,,,,,,,,,yellow,circle
1310.0,4.0,4.0,0.0,3.0,3.0,371.6867969999384,1.0,1.0,phase_1,,,,,,,,,,,,,cyan,diamond
0.0,5.0,0.0,1.0,2.0,2.0,410.4105510000408,1.0,1.0,phase_1,,,,,,,,,,,,,white,square
307.0,6.0,2.0,1.0,3.0,3.0,316.0760079999818,1.0,1.0,phase_1,,,,,,,,,,,,,magenta,cross
658.0,3.0,3.0,0.0,4.0,4.0,409.3096340000102,1.0,1.0,phase_1,,,,,,,,,,,,,orange,flipped triangle
301.0,2.0,2.0,0.0,2.0,2.0,316.3869019999765,1.0,1.0,phase_1,,,,,,,,,,,,,gray,hexagon
147.0,5.0,1.0,1.0,4.0,4.0,454.8435219999192,1.0,1.0,phase_1,,,,,,,,,,,,,white,square
0.0,6.0,0.0,1.0,3.0,3.0,436.5252039999632,1.0,1.0,phase_1,,,,,,,,,,,,,magenta,cross
346.0,6.0,2.0,1.0,3.0,3.0,354.1904400001385,1.0,1.0,phase_1,,,,,,,,,,,,,magenta,cross
675.0,3.0,3.0,0.0,1.0,1.0,585.9670449999612,1.0,2.0,phase_1,,,,,,,,,,,,,orange,flipped triangle
0.0,6.0,0.0,1.0,3.0,3.0,548.8030760000129,1.0,1.0,phase_1,,,,,,,,,,,,,magenta,cross
659.0,7.0,3.0,1.0,3.0,3.0,520.7882869999594,1.0,1.0,phase_1,,,,,,,,,,,,,green,triangle
154.0,1.0,1.0,0.0,4.0,4.0,520.3376459999163,1.0,1.0,phase_1,,,,,,,,,,,,,blue,I
160.0,1.0,1.0,0.0,4.0,4.0,0.2296069999374,1.0,2.0,phase_1,,,,,,,,,,,,,blue,I
0.0,2.0,0.0,0.0,2.0,2.0,567.0026249999864,1.0,1.0,phase_1,,,,,,,,,,,,,gray,hexagon
675.0,7.0,3.0,1.0,4.0,4.0,539.5693539999229,1.0,1.0,phase_1,,,,,,,,,,,,,green,triangle
161.0,5.0,1.0,1.0,3.0,3.0,315.7687020000139,1.0,1.0,phase_1,,,,,,,,,,,,,white,square
0.0,1.0,0.0,0.0,4.0,4.0,325.2668420000191,1.0,1.0,phase_1,,,,,,,,,,,,,blue,I
0.0,5.0,0.0,1.0,3.0,3.0,418.9064380000218,1.0,1.0,phase_1,,,,,,,,,,,,,white,square
350.0,6.0,2.0,1.0,2.0,2.0,353.2807550000143,1.0,1.0,phase_1,,,,,,,,,,,,,magenta,cross
0.0,4.0,0.0,0.0,1.0,1.0,521.7046819998359,1.0,1.0,phase_1,,,,,,,,,,,,,cyan,diamond
0.0,1.0,0.0,0.0,4.0,4.0,335.833945000104,1.0,1.0,phase_1,,,,,,,,,,,,,blue,I
1298.0,4.0,4.0,0.0,3.0,3.0,398.9767199998368,1.0,1.0,phase_1,,,,,,,,,,,,,cyan,diamond
182.0,5.0,1.0,1.0,3.0,3.0,484.1933069999413,1.0,2.0,phase_1,,,,,,,,,,,,,white,square
326.0,6.0,2.0,1.0,3.0,3.0,335.7668749999902,1.0,1.0,phase_1,,,,,,,,,,,,,magenta,cross
0.0,5.0,0.0,1.0,1.0,1.0,585.8384739999565,1.0,1.0,phase_1,,,,,,,,,,,,,white,square
672.0,3.0,3.0,0.0,1.0,1.0,446.952655999894,1.0,1.0,phase_1,,,,,,,,,,,,,orange,flipped triangle
145.0,1.0,1.0,0.0,3.0,3.0,454.6976149999864,1.0,1.0,phase_1,,,,,,,,,,,,,blue,I
1309.0,8.0,4.0,1.0,3.0,3.0,344.0674989999479,1.0,1.0,phase_1,,,,,,,,,,,,,yellow,circle
643.0,3.0,3.0,0.0,4.0,4.0,409.6754489999057,1.0,1.0,phase_1,,,,,,,,,,,,,orange,flipped triangle
1324.0,8.0,4.0,1.0,1.0,1.0,555.7139339998685,1.0,2.0,phase_1,,,,,,,,,,,,,yellow,circle
669.0,7.0,3.0,1.0,1.0,1.0,417.8384100000585,1.0,1.0,phase_1,,,,,,,,,,,,,green,triangle
632.0,7.0,3.0,1.0,4.0,4.0,427.5635940000484,1.0,1.0,phase_1,,,,,,,,,,,,,green,triangle
322.0,2.0,2.0,0.0,4.0,4.0,622.6487440001165,1.0,2.0,phase_1,,,,,,,,,,,,,gray,hexagon
1286.0,8.0,4.0,1.0,3.0,3.0,548.5813190000499,1.0,1.0,phase_1,,,,,,,,,,,,,yellow,circle
1292.0,8.0,4.0,1.0,4.0,4.0,603.657124999927,1.0,1.0,phase_1,,,,,,,,,,,,,yellow,circle
0.0,6.0,0.0,1.0,3.0,3.0,438.730059999898,1.0,1.0,phase_1,,,,,,,,,,,,,magenta,cross
0.0,5.0,0.0,1.0,2.0,2.0,344.9235000000499,1.0,1.0,phase_1,,,,,,,,,,,,,white,square
1305.0,8.0,4.0,1.0,1.0,1.0,678.5361620000003,1.0,1.0,phase_1,,,,,,,,,,,,,yellow,circle
646.0,3.0,3.0,0.0,2.0,2.0,512.1825329999865,1.0,2.0,phase_1,,,,,,,,,,,,,orange,flipped triangle
0.0,4.0,0.0,0.0,4.0,4.0,631.6489600001205,1.0,1.0,phase_1,,,,,,,,,,,,,cyan,diamond
0.0,4.0,0.0,0.0,2.0,2.0,334.8376189999271,1.0,1.0,phase_1,,,,,,,,,,,,,cyan,diamond
335.0,6.0,2.0,1.0,1.0,1.0,353.2951390000107,1.0,1.0,phase_1,,,,,,,,,,,,,magenta,cross
631.0,3.0,3.0,0.0,4.0,4.0,298.0238420000205,1.0,1.0,phase_1,,,,,,,,,,,,,orange,flipped triangle
1277.0,8.0,4.0,1.0,1.0,1.0,596.1227739999231,1.0,1.0,phase_1,,,,,,,,,,,,,yellow,circle
0.0,4.0,0.0,0.0,1.0,1.0,538.5524319999604,1.0,1.0,phase_1,,,,,,,,,,,,,cyan,diamond
176.0,5.0,1.0,1.0,4.0,4.0,492.8968890001215,1.0,1.0,phase_1,,,,,,,,,,,,,white,square
342.0,2.0,2.0,0.0,4.0,4.0,465.3009779999593,1.0,1.0,phase_1,,,,,,,,,,,,,gray,hexagon
1291.0,4.0,4.0,0.0,3.0,3.0,399.3409739998697,1.0,1.0,phase_1,,,,,,,,,,,,,cyan,diamond
141.0,1.0,1.0,0.0,1.0,1.0,551.8272100000559,1.0,1.0,phase_1,,,,,,,,,,,,,blue,I
0.0,8.0,0.0,1.0,1.0,1.0,597.1780200000012,1.0,1.0,phase_1,,,,,,,,,,,,,yellow,circle
661.0,3.0,3.0,0.0,2.0,2.0,604.2076359999555,1.0,1.0,phase_1,,,,,,,,,,,,,orange,flipped triangle
179.0,5.0,1.0,1.0,4.0,4.0,389.8094839998975,1.0,1.0,phase_1,,,,,,,,,,,,,white,square
1288.0,4.0,4.0,0.0,1.0,1.0,556.904349999968,1.0,1.0,phase_1,,,,,,,,,,,,,cyan,diamond
647.0,7.0,3.0,1.0,1.0,1.0,512.386116000016,1.0,2.0,phase_1,,,,,,,,,,,,,green,triangle
179.0,1.0,1.0,0.0,2.0,2.0,510.9022320000349,1.0,1.0,phase_1,,,,,,,,,,,,,blue,I
347.0,2.0,2.0,0.0,1.0,1.0,418.582477999962,1.0,2.0,phase_1,,,,,,,,,,,,,gray,hexagon
0.0,6.0,0.0,1.0,2.0,2.0,511.1170130001028,1.0,1.0,phase_1,,,,,,,,,,,,,magenta,cross
144.0,1.0,1.0,0.0,2.0,2.0,622.814524999967,1.0,1.0,phase_1,,,,,,,,,,,,,blue,I
0.0,2.0,0.0,0.0,4.0,4.0,482.5767699999232,1.0,1.0,phase_1,,,,,,,,,,,,,gray,hexagon
137.0,5.0,1.0,1.0,1.0,1.0,493.08382799995337,1.0,1.0,phase_1,,,,,,,,,,,,,white,square
1299.0,8.0,4.0,1.0,3.0,3.0,483.3361259998128,1.0,1.0,phase_1,,,,,,,,,,,,,yellow,circle
176.0,5.0,1.0,1.0,3.0,3.0,391.0802359998797,1.0,1.0,phase_1,,,,,,,,,,,,,white,square
0.0,3.0,0.0,0.0,2.0,2.0,380.3345579999586,1.0,1.0,phase_1,,,,,,,,,,,,,orange,flipped triangle
1305.0,8.0,4.0,1.0,4.0,4.0,391.7584890000398,1.0,1.0,phase_1,,,,,,,,,,,,,yellow,circle
1295.0,4.0,4.0,0.0,1.0,1.0,278.3565899999303,1.0,1.0,phase_1,,,,,,,,,,,,,cyan,diamond
0.0,1.0,0.0,0.0,3.0,3.0,474.8697879999781,1.0,1.0,phase_1,,,,,,,,,,,,,blue,I
332.0,6.0,2.0,1.0,4.0,4.0,427.3878609999428,1.0,1.0,phase_1,,,,,,,,,,,,,magenta,cross
648.0,3.0,3.0,0.0,2.0,2.0,374.0518259999135,1.0,1.0,phase_1,,,,,,,,,,,,,orange,flipped triangle
0.0,5.0,0.0,1.0,2.0,2.0,426.6436299999441,1.0,1.0,phase_1,,,,,,,,,,,,,white,square
339.0,6.0,2.0,1.0,4.0,4.0,315.2450049999515,1.0,1.0,phase_1,,,,,,,,,,,,,magenta,cross
1297.0,4.0,4.0,0.0,1.0,1.0,315.0305730000582,1.0,1.0,phase_1,,,,,,,,,,,,,cyan,diamond
634.0,3.0,3.0,0.0,1.0,1.0,400.710515000128,1.0,1.0,phase_1,,,,,,,,,,,,,orange,flipped triangle
332.0,2.0,2.0,0.0,1.0,1.0,519.7514779999892,2.0,1.0,phase_1,,,,,,,,,,,,,gray,hexagon
0.0,8.0,0.0,1.0,4.0,4.0,455.4222140000092,2.0,1.0,phase_1,,,,,,,,,,,,,yellow,circle
1310.0,4.0,4.0,0.0,2.0,2.0,298.7448290000429,2.0,1.0,phase_1,,,,,,,,,,,,,cyan,diamond
1287.0,8.0,4.0,1.0,1.0,1.0,409.8948179998842,2.0,1.0,phase_1,,,,,,,,,,,,,yellow,circle
314.0,2.0,2.0,0.0,1.0,1.0,372.1124469998358,2.0,1.0,phase_1,,,,,,,,,,,,,gray,hexagon
1303.0,8.0,4.0,1.0,4.0,4.0,390.9125789998597,2.0,1.0,phase_1,,,,,,,,,,,,,yellow,circle
662.0,7.0,3.0,1.0,1.0,1.0,455.8056519999809,2.0,1.0,phase_1,,,,,,,,,,,,,green,triangle
1325.0,4.0,4.0,0.0,2.0,2.0,326.8271619999723,2.0,1.0,phase_1,,,,,,,,,,,,,cyan,diamond
350.0,6.0,2.0,1.0,1.0,1.0,390.7212130000062,2.0,1.0,phase_1,,,,,,,,,,,,,magenta,cross
1299.0,4.0,4.0,0.0,4.0,4.0,465.550020999899,2.0,2.0,phase_1,,,,,,,,,,,,,cyan,diamond
664.0,7.0,3.0,1.0,1.0,1.0,446.459336000089,2.0,1.0,phase_1,,,,,,,,,,,,,green,triangle
1323.0,8.0,4.0,1.0,4.0,4.0,379.940902999806,2.0,1.0,phase_1,,,,,,,,,,,,,yellow,circle
668.0,3.0,3.0,0.0,1.0,1.0,593.4761390001313,2.0,1.0,phase_1,,,,,,,,,,,,,orange,flipped triangle
143.0,5.0,1.0,1.0,2.0,2.0,437.6773320000211,2.0,1.0,phase_1,,,,,,,,,,,,,white,square
0.0,4.0,0.0,0.0,4.0,4.0,362.5555529999928,2.0,1.0,phase_1,,,,,,,,,,,,,cyan,diamond
150.0,5.0,1.0,1.0,3.0,3.0,437.4288030001025,2.0,1.0,phase_1,,,,,,,,,,,,,white,square
313.0,2.0,2.0,0.0,2.0,2.0,373.8649919998806,2.0,1.0,phase_1,,,,,,,,,,,,,gray,hexagon
635.0,3.0,3.0,0.0,1.0,1.0,381.1020959999496,2.0,1.0,phase_1,,,,,,,,,,,,,orange,flipped triangle
347.0,6.0,2.0,1.0,2.0,2.0,390.4673389999971,2.0,1.0,phase_1,,,,,,,,,,,,,magenta,cross
672.0,7.0,3.0,1.0,3.0,3.0,398.6760150000918,2.0,1.0,phase_1,,,,,,,,,,,,,green,triangle
335.0,2.0,2.0,0.0,3.0,3.0,417.44865099985867,2.0,1.0,phase_1,,,,,,,,,,,,,gray,hexagon
0.0,5.0,0.0,1.0,4.0,4.0,316.755392999994,2.0,1.0,phase_1,,,,,,,,,,,,,white,square
322.0,6.0,2.0,1.0,1.0,1.0,399.484048999966,2.0,1.0,phase_1,,,,,,,,,,,,,magenta,cross
301.0,2.0,2.0,0.0,4.0,4.0,585.0613799998428,2.0,1.0,phase_1,,,,,,,,,,,,,gray,hexagon
154.0,1.0,1.0,0.0,2.0,2.0,352.3096339999938,2.0,1.0,phase_1,,,,,,,,,,,,,blue,I
163.0,1.0,1.0,0.0,4.0,4.0,362.5707510000211,2.0,1.0,phase_1,,,,,,,,,,,,,blue,I
0.0,6.0,0.0,1.0,4.0,4.0,409.91715299992387,2.0,1.0,phase_1,,,,,,,,,,,,,magenta,cross
139.0,1.0,1.0,0.0,4.0,4.0,446.4832630001183,2.0,1.0,phase_1,,,,,,,,,,,,,blue,I
662.0,3.0,3.0,0.0,3.0,3.0,400.4244989998824,2.0,1.0,phase_1,,,,,,,,,,,,,orange,flipped triangle
0.0,3.0,0.0,0.0,4.0,4.0,436.1070019999715,2.0,1.0,phase_1,,,,,,,,,,,,,orange,flipped triangle
0.0,6.0,0.0,1.0,1.0,1.0,343.2882720001089,2.0,1.0,phase_1,,,,,,,,,,,,,magenta,cross
0.0,2.0,0.0,0.0,3.0,3.0,455.0647359999402,2.0,1.0,phase_1,,,,,,,,,,,,,gray,hexagon
326.0,2.0,2.0,0.0,4.0,4.0,334.3953680000595,2.0,1.0,phase_1,,,,,,,,,,,,,gray,hexagon
645.0,3.0,3.0,0.0,2.0,2.0,316.9975009998325,2.0,1.0,phase_1,,,,,,,,,,,,,orange,flipped triangle
1278.0,4.0,4.0,0.0,4.0,4.0,381.3034280001375,2.0,2.0,phase_1,,,,,,,,,,,,,cyan,diamond
0.0,1.0,0.0,0.0,3.0,3.0,379.5170260000304,2.0,1.0,phase_1,,,,,,,,,,,,,blue,I
1311.0,8.0,4.0,1.0,2.0,2.0,333.9502329999959,2.0,1.0,phase_1,,,,,,,,,,,,,yellow,circle
348.0,2.0,2.0,0.0,1.0,1.0,583.3716730001015,2.0,2.0,phase_1,,,,,,,,,,,,,gray,hexagon
182.0,1.0,1.0,0.0,3.0,3.0,362.0664239999769,2.0,1.0,phase_1,,,,,,,,,,,,,blue,I
0.0,4.0,0.0,0.0,1.0,1.0,704.845406000004,2.0,1.0,phase_1,,,,,,,,,,,,,cyan,diamond
0.0,3.0,0.0,0.0,1.0,1.0,500.15683199990235,2.0,1.0,phase_1,,,,,,,,,,,,,orange,flipped triangle
322.0,2.0,2.0,0.0,2.0,2.0,584.1808890002085,2.0,1.0,phase_1,,,,,,,,,,,,,gray,hexagon
168.0,5.0,1.0,1.0,1.0,1.0,491.6249190000599,2.0,1.0,phase_1,,,,,,,,,,,,,white,square
1283.0,4.0,4.0,0.0,3.0,3.0,390.7967120001103,2.0,1.0,phase_1,,,,,,,,,,,,,cyan,diamond
175.0,1.0,1.0,0.0,2.0,2.0,548.7384529999417,2.0,1.0,phase_1,,,,,,,,,,,,,blue,I
144.0,5.0,1.0,1.0,3.0,3.0,408.1954240000414,2.0,1.0,phase_1,,,,,,,,,,,,,white,square
151.0,1.0,1.0,0.0,1.0,1.0,352.2883240000283,2.0,1.0,phase_1,,,,,,,,,,,,,blue,I
302.0,6.0,2.0,1.0,2.0,2.0,426.2645270000575,2.0,1.0,phase_1,,,,,,,,,,,,,magenta,cross
0.0,3.0,0.0,0.0,2.0,2.0,371.1072609999064,2.0,1.0,phase_1,,,,,,,,,,,,,orange,flipped triangle
1283.0,8.0,4.0,1.0,1.0,1.0,481.5313579999838,2.0,1.0,phase_1,,,,,,,,,,,,,yellow,circle
0.0,5.0,0.0,1.0,4.0,4.0,455.4979489998914,2.0,2.0,phase_1,,,,,,,,,,,,,white,square
646.0,3.0,3.0,0.0,2.0,2.0,435.7339480000064,2.0,1.0,phase_1,,,,,,,,,,,,,orange,flipped triangle
153.0,5.0,1.0,1.0,2.0,2.0,398.1675720001476,2.0,1.0,phase_1,,,,,,,,,,,,,white,square
0.0,7.0,0.0,1.0,2.0,2.0,463.0386579999594,2.0,1.0,phase_1,,,,,,,,,,,,,green,triangle
318.0,2.0,2.0,0.0,4.0,4.0,278.8557829999263,2.0,1.0,phase_1,,,,,,,,,,,,,gray,hexagon
632.0,3.0,3.0,0.0,4.0,4.0,454.2762720000155,2.0,1.0,phase_1,,,,,,,,,,,,,orange,flipped triangle
652.0,7.0,3.0,1.0,1.0,1.0,528.6200949999511,2.0,1.0,phase_1,,,,,,,,,,,,,green,triangle
1314.0,4.0,4.0,0.0,2.0,2.0,351.8188689999988,2.0,1.0,phase_1,,,,,,,,,,,,,cyan,diamond
1278.0,8.0,4.0,1.0,2.0,2.0,399.5695880000767,2.0,1.0,phase_1,,,,,,,,,,,,,yellow,circle
179.0,1.0,1.0,0.0,1.0,1.0,520.1604619999216,2.0,2.0,phase_1,,,,,,,,,,,,,blue,I
654.0,7.0,3.0,1.0,1.0,1.0,549.5973870001762,2.0,1.0,phase_1,,,,,,,,,,,,,green,triangle
1281.0,4.0,4.0,0.0,1.0,1.0,381.8193879999398,2.0,1.0,phase_1,,,,,,,,,,,,,cyan,diamond
1298.0,4.0,4.0,0.0,3.0,3.0,380.5878919999941,2.0,2.0,phase_1,,,,,,,,,,,,,cyan,diamond
664.0,3.0,3.0,0.0,4.0,4.0,454.3668169999364,2.0,1.0,phase_1,,,,,,,,,,,,,orange,flipped triangle
1281.0,8.0,4.0,1.0,2.0,2.0,391.9938789999833,2.0,1.0,phase_1,,,,,,,,,,,,,yellow,circle
1325.0,8.0,4.0,1.0,2.0,2.0,436.4732540000204,2.0,1.0,phase_1,,,,,,,,,,,,,yellow,circle
661.0,7.0,3.0,1.0,2.0,2.0,435.6476130001283,2.0,1.0,phase_1,,,,,,,,,,,,,green,triangle
1311.0,4.0,4.0,0.0,4.0,4.0,455.2011840000887,2.0,1.0,phase_1,,,,,,,,,,,,,cyan,diamond
0.0,8.0,0.0,1.0,4.0,4.0,417.9642940000576,2.0,1.0,phase_1,,,,,,,,,,,,,yellow,circle
168.0,1.0,1.0,0.0,1.0,1.0,586.6951350001273,2.0,1.0,phase_1,,,,,,,,,,,,,blue,I
1284.0,8.0,4.0,1.0,1.0,1.0,670.3119340002104,2.0,2.0,phase_1,,,,,,,,,,,,,yellow,circle
1287.0,8.0,4.0,1.0,4.0,4.0,494.3046519999825,2.0,1.0,phase_1,,,,,,,,,,,,,yellow,circle
324.0,6.0,2.0,1.0,3.0,3.0,501.80284300017775,2.0,1.0,phase_1,,,,,,,,,,,,,magenta,cross
0.0,3.0,0.0,0.0,4.0,4.0,466.2112999999408,2.0,1.0,phase_1,,,,,,,,,,,,,orange,flipped triangle
646.0,7.0,3.0,1.0,4.0,4.0,493.8219220000519,2.0,1.0,phase_1,,,,,,,,,,,,,green,triangle
1287.0,4.0,4.0,0.0,1.0,1.0,569.3366799998785,2.0,1.0,phase_1,,,,,,,,,,,,,cyan,diamond
1285.0,8.0,4.0,1.0,3.0,3.0,364.5795159998215,2.0,1.0,phase_1,,,,,,,,,,,,,yellow,circle
651.0,3.0,3.0,0.0,4.0,4.0,354.011643000149,2.0,1.0,phase_1,,,,,,,,,,,,,orange,flipped triangle
668.0,3.0,3.0,0.0,2.0,2.0,492.4701190000178,2.0,2.0,phase_1,,,,,,,,,,,,,orange,flipped triangle
153.0,1.0,1.0,0.0,4.0,4.0,399.519987000076,2.0,1.0,phase_1,,,,,,,,,,,,,blue,I
1297.0,8.0,4.0,1.0,3.0,3.0,447.2736630000327,2.0,1.0,phase_1,,,,,,,,,,,,,yellow,circle
1314.0,4.0,4.0,0.0,4.0,4.0,456.2592439999662,2.0,1.0,phase_1,,,,,,,,,,,,,cyan,diamond
1277.0,4.0,4.0,0.0,1.0,1.0,327.2262909999881,2.0,1.0,phase_1,,,,,,,,,,,,,cyan,diamond
1309.0,4.0,4.0,0.0,3.0,3.0,372.9759249999915,2.0,1.0,phase_1,,,,,,,,,,,,,cyan,diamond
333.0,6.0,2.0,1.0,1.0,1.0,411.2779570000384,2.0,1.0,phase_1,,,,,,,,,,,,,magenta,cross
300.0,6.0,2.0,1.0,1.0,1.0,503.9491859999998,2.0,1.0,phase_1,,,,,,,,,,,,,magenta,cross
314.0,2.0,2.0,0.0,1.0,1.0,437.0153530001062,2.0,1.0,phase_1,,,,,,,,,,,,,gray,hexagon
179.0,1.0,1.0,0.0,2.0,2.0,463.148806999925,2.0,1.0,phase_1,,,,,,,,,,,,,blue,I
1298.0,8.0,4.0,1.0,1.0,1.0,593.7744399998337,2.0,1.0,phase_1,,,,,,,,,,,,,yellow,circle
1324.0,4.0,4.0,0.0,1.0,1.0,512.2866879999037,2.0,1.0,phase_1,,,,,,,,,,,,,cyan,diamond
1279.0,4.0,4.0,0.0,2.0,2.0,371.8576730000222,2.0,1.0,phase_1,,,,,,,,,,,,,cyan,diamond
154.0,5.0,1.0,1.0,3.0,3.0,473.8326120000238,2.0,1.0,phase_1,,,,,,,,,,,,,white,square
659.0,3.0,3.0,0.0,4.0,4.0,492.8587069998684,2.0,2.0,phase_1,,,,,,,,,,,,,orange,flipped triangle
1324.0,4.0,4.0,0.0,3.0,3.0,511.8943439999839,2.0,1.0,phase_1,,,,,,,,,,,,,cyan,diamond
1292.0,4.0,4.0,0.0,4.0,4.0,521.9754960000955,2.0,1.0,phase_1,,,,,,,,,,,,,cyan,diamond
147.0,1.0,1.0,0.0,4.0,4.0,399.4399100001828,2.0,1.0,phase_1,,,,,,,,,,,,,blue,I
304.0,2.0,2.0,0.0,3.0,3.0,584.5506309999564,2.0,1.0,phase_1,,,,,,,,,,,,,gray,hexagon
342.0,6.0,2.0,1.0,4.0,4.0,316.8883169998935,2.0,1.0,phase_1,,,,,,,,,,,,,magenta,cross
1324.0,4.0,4.0,0.0,2.0,2.0,400.1088029999664,2.0,1.0,phase_1,,,,,,,,,,,,,cyan,diamond
178.0,5.0,1.0,1.0,4.0,4.0,446.1938500000997,2.0,1.0,phase_1,,,,,,,,,,,,,white,square
143.0,1.0,1.0,0.0,2.0,2.0,363.801235999972,3.0,1.0,phase_1,,,,,,,,,,,,,blue,I
648.0,7.0,3.0,1.0,4.0,4.0,401.0538300001371,3.0,1.0,phase_1,,,,,,,,,,,,,green,triangle
662.0,3.0,3.0,0.0,3.0,3.0,474.9573740000414,3.0,1.0,phase_1,,,,,,,,,,,,,orange,flipped triangle
186.0,5.0,1.0,1.0,1.0,1.0,391.9032520000201,3.0,1.0,phase_1,,,,,,,,,,,,,white,square
1293.0,4.0,4.0,0.0,3.0,3.0,364.1022249998968,3.0,1.0,phase_1,,,,,,,,,,,,,cyan,diamond
1284.0,4.0,4.0,0.0,4.0,4.0,465.7203310000568,3.0,1.0,phase_1,,,,,,,,,,,,,cyan,diamond
179.0,5.0,1.0,1.0,3.0,3.0,372.0446639999863,3.0,1.0,phase_1,,,,,,,,,,,,,white,square
0.0,8.0,0.0,1.0,2.0,2.0,299.1658060000191,3.0,1.0,phase_1,,,,,,,,,,,,,yellow,circle
301.0,6.0,2.0,1.0,3.0,3.0,399.2745909999939,3.0,1.0,phase_1,,,,,,,,,,,,,magenta,cross
635.0,7.0,3.0,1.0,2.0,2.0,370.6210309999278,3.0,1.0,phase_1,,,,,,,,,,,,,green,triangle
175.0,5.0,1.0,1.0,1.0,1.0,428.0865619998621,3.0,1.0,phase_1,,,,,,,,,,,,,white,square
0.0,2.0,0.0,0.0,3.0,3.0,372.0447319999493,3.0,1.0,phase_1,,,,,,,,,,,,,gray,hexagon
302.0,2.0,2.0,0.0,2.0,2.0,364.6019239999987,3.0,1.0,phase_1,,,,,,,,,,,,,gray,hexagon
0.0,1.0,0.0,0.0,2.0,2.0,426.7803110001296,3.0,1.0,phase_1,,,,,,,,,,,,,blue,I
639.0,3.0,3.0,0.0,3.0,3.0,474.8829650000061,3.0,1.0,phase_1,,,,,,,,,,,,,orange,flipped triangle
0.0,8.0,0.0,1.0,4.0,4.0,371.6192519998458,3.0,1.0,phase_1,,,,,,,,,,,,,yellow,circle
168.0,5.0,1.0,1.0,3.0,3.0,483.7831790000564,3.0,1.0,phase_1,,,,,,,,,,,,,white,square
143.0,1.0,1.0,0.0,3.0,3.0,539.8329679999279,3.0,1.0,phase_1,,,,,,,,,,,,,blue,I
643.0,3.0,3.0,0.0,1.0,1.0,409.1898520000541,3.0,2.0,phase_1,,,,,,,,,,,,,orange,flipped triangle
651.0,3.0,3.0,0.0,4.0,4.0,399.6186760000455,3.0,1.0,phase_1,,,,,,,,,,,,,orange,flipped triangle
183.0,1.0,1.0,0.0,4.0,4.0,484.4714230000591,3.0,1.0,phase_1,,,,,,,,,,,,,blue,I
161.0,5.0,1.0,1.0,2.0,2.0,352.7301379999699,3.0,1.0,phase_1,,,,,,,,,,,,,white,square
347.0,2.0,2.0,0.0,1.0,1.0,372.5436669999453,3.0,3.0,phase_1,,,,,,,,,,,,,gray,hexagon
1286.0,4.0,4.0,0.0,3.0,3.0,853.4140270000989,3.0,1.0,phase_1,,,,,,,,,,,,,cyan,diamond
1293.0,8.0,4.0,1.0,2.0,2.0,519.2257159999372,3.0,1.0,phase_1,,,,,,,,,,,,,yellow,circle
350.0,2.0,2.0,0.0,2.0,2.0,389.9951589999091,3.0,1.0,phase_1,,,,,,,,,,,,,gray,hexagon
645.0,7.0,3.0,1.0,2.0,2.0,362.7375680000568,3.0,1.0,phase_1,,,,,,,,,,,,,green,triangle
1297.0,8.0,4.0,1.0,4.0,4.0,419.8609210000086,3.0,1.0,phase_1,,,,,,,,,,,,,yellow,circle
172.0,5.0,1.0,1.0,1.0,1.0,372.8759979999267,3.0,1.0,phase_1,,,,,,,,,,,,,white,square
163.0,5.0,1.0,1.0,4.0,4.0,502.9041360000974,3.0,1.0,phase_1,,,,,,,,,,,,,white,square
179.0,5.0,1.0,1.0,2.0,2.0,362.3094140000376,3.0,1.0,phase_1,,,,,,,,,,,,,white,square
306.0,6.0,2.0,1.0,2.0,2.0,381.36736499996,3.0,1.0,phase_1,,,,,,,,,,,,,magenta,cross
0.0,2.0,0.0,0.0,4.0,4.0,660.2832779999517,3.0,1.0,phase_1,,,,,,,,,,,,,gray,hexagon
649.0,3.0,3.0,0.0,1.0,1.0,354.1197320000719,3.0,1.0,phase_1,,,,,,,,,,,,,orange,flipped triangle
662.0,7.0,3.0,1.0,2.0,2.0,418.0080759999782,3.0,1.0,phase_1,,,,,,,,,,,,,green,triangle
137.0,1.0,1.0,0.0,1.0,1.0,510.0274769999942,3.0,1.0,phase_1,,,,,,,,,,,,,blue,I
153.0,5.0,1.0,1.0,4.0,4.0,325.2872420000585,3.0,1.0,phase_1,,,,,,,,,,,,,white,square
309.0,2.0,2.0,0.0,2.0,2.0,389.269860000013,3.0,1.0,phase_1,,,,,,,,,,,,,gray,hexagon
0.0,5.0,0.0,1.0,2.0,2.0,427.8695779998998,3.0,1.0,phase_1,,,,,,,,,,,,,white,square
627.0,3.0,3.0,0.0,1.0,1.0,417.7264439999817,3.0,1.0,phase_1,,,,,,,,,,,,,orange,flipped triangle
163.0,1.0,1.0,0.0,4.0,4.0,696.6406019998885,3.0,1.0,phase_1,,,,,,,,,,,,,blue,I
170.0,1.0,1.0,0.0,1.0,1.0,575.351038000008,3.0,1.0,phase_1,,,,,,,,,,,,,blue,I
161.0,1.0,1.0,0.0,1.0,1.0,334.3432120000216,3.0,1.0,phase_1,,,,,,,,,,,,,blue,I
643.0,7.0,3.0,1.0,2.0,2.0,343.590992999907,3.0,1.0,phase_1,,,,,,,,,,,,,green,triangle
639.0,3.0,3.0,0.0,3.0,3.0,426.9418470000801,3.0,1.0,phase_1,,,,,,,,,,,,,orange,flipped triangle
0.0,8.0,0.0,1.0,4.0,4.0,324.9607740001465,3.0,1.0,phase_1,,,,,,,,,,,,,yellow,circle
168.0,1.0,1.0,0.0,4.0,4.0,491.8568519999553,3.0,1.0,phase_1,,,,,,,,,,,,,blue,I
649.0,7.0,3.0,1.0,3.0,3.0,445.5770229999416,3.0,1.0,phase_1,,,,,,,,,,,,,green,triangle
0.0,7.0,0.0,1.0,1.0,1.0,417.850418999933,3.0,1.0,phase_1,,,,,,,,,,,,,green,triangle
0.0,7.0,0.0,1.0,4.0,4.0,456.3934000000245,3.0,1.0,phase_1,,,,,,,,,,,,,green,triangle
179.0,5.0,1.0,1.0,4.0,4.0,410.2558309998585,3.0,1.0,phase_1,,,,,,,,,,,,,white,square
0.0,2.0,0.0,0.0,2.0,2.0,490.7756799998424,3.0,1.0,phase_1,,,,,,,,,,,,,gray,hexagon
672.0,3.0,3.0,0.0,4.0,4.0,500.2370879999489,3.0,1.0,phase_1,,,,,,,,,,,,,orange,flipped triangle
0.0,7.0,0.0,1.0,4.0,4.0,362.8584260000025,3.0,1.0,phase_1,,,,,,,,,,,,,green,triangle
661.0,7.0,3.0,1.0,2.0,2.0,643.1572839999262,3.0,1.0,phase_1,,,,,,,,,,,,,green,triangle
0.0,1.0,0.0,0.0,4.0,4.0,334.6675350001078,3.0,1.0,phase_1,,,,,,,,,,,,,blue,I
176.0,1.0,1.0,0.0,3.0,3.0,390.0129770004241,3.0,1.0,phase_1,,,,,,,,,,,,,blue,I
141.0,5.0,1.0,1.0,1.0,1.0,605.7176529998287,3.0,2.0,phase_1,,,,,,,,,,,,,white,square
314.0,6.0,2.0,1.0,2.0,2.0,408.3272440002474,3.0,1.0,phase_1,,,,,,,,,,,,,magenta,cross
1319.0,8.0,4.0,1.0,4.0,4.0,334.7475700002178,3.0,1.0,phase_1,,,,,,,,,,,,,yellow,circle
651.0,7.0,3.0,1.0,1.0,1.0,650.2957610000522,3.0,1.0,phase_1,,,,,,,,,,,,,green,triangle
153.0,1.0,1.0,0.0,3.0,3.0,453.2874089995857,3.0,1.0,phase_1,,,,,,,,,,,,,blue,I
137.0,1.0,1.0,0.0,2.0,2.0,344.8529689999304,3.0,1.0,phase_1,,,,,,,,,,,,,blue,I
0.0,2.0,0.0,0.0,4.0,4.0,419.6371200000612,3.0,1.0,phase_1,,,,,,,,,,,,,gray,hexagon
346.0,2.0,2.0,0.0,3.0,3.0,398.6667889998898,3.0,1.0,phase_1,,,,,,,,,,,,,gray,hexagon
643.0,7.0,3.0,1.0,1.0,1.0,526.8042349998723,3.0,1.0,phase_1,,,,,,,,,,,,,green,triangle
1305.0,4.0,4.0,0.0,2.0,2.0,434.874617999867,3.0,1.0,phase_1,,,,,,,,,,,,,cyan,diamond
309.0,6.0,2.0,1.0,4.0,4.0,471.8986729999415,3.0,1.0,phase_1,,,,,,,,,,,,,magenta,cross
0.0,7.0,0.0,1.0,1.0,1.0,490.4059400000733,3.0,1.0,phase_1,,,,,,,,,,,,,green,triangle
313.0,6.0,2.0,1.0,1.0,1.0,480.9350430000449,3.0,1.0,phase_1,,,,,,,,,,,,,magenta,cross
643.0,7.0,3.0,1.0,3.0,3.0,305.6417719999444,3.0,1.0,phase_1,,,,,,,,,,,,,green,triangle
1319.0,4.0,4.0,0.0,1.0,1.0,510.31267899998056,3.0,1.0,phase_1,,,,,,,,,,,,,cyan,diamond
0.0,6.0,0.0,1.0,1.0,1.0,547.6888149996739,3.0,1.0,phase_1,,,,,,,,,,,,,magenta,cross
1287.0,4.0,4.0,0.0,2.0,2.0,362.9223549996823,3.0,1.0,phase_1,,,,,,,,,,,,,cyan,diamond
1279.0,8.0,4.0,1.0,3.0,3.0,278.188493000016,3.0,1.0,phase_1,,,,,,,,,,,,,yellow,circle
1323.0,4.0,4.0,0.0,2.0,2.0,315.9823060000235,3.0,1.0,phase_1,,,,,,,,,,,,,cyan,diamond
184.0,1.0,1.0,0.0,4.0,4.0,335.5875469997045,3.0,1.0,phase_1,,,,,,,,,,,,,blue,I
156.0,5.0,1.0,1.0,2.0,2.0,388.750457000242,3.0,1.0,phase_1,,,,,,,,,,,,,white,square
313.0,2.0,2.0,0.0,4.0,4.0,371.5687090002575,3.0,1.0,phase_1,,,,,,,,,,,,,gray,hexagon
342.0,6.0,2.0,1.0,1.0,1.0,446.3493860002927,3.0,1.0,phase_1,,,,,,,,,,,,,magenta,cross
339.0,2.0,2.0,0.0,1.0,1.0,538.5443229997691,3.0,1.0,phase_1,,,,,,,,,,,,,gray,hexagon
0.0,7.0,0.0,1.0,2.0,2.0,362.1408809999593,3.0,1.0,phase_1,,,,,,,,,,,,,green,triangle
1280.0,4.0,4.0,0.0,3.0,3.0,362.458037000124,3.0,1.0,phase_1,,,,,,,,,,,,,cyan,diamond
0.0,6.0,0.0,1.0,2.0,2.0,381.3713340000504,3.0,1.0,phase_1,,,,,,,,,,,,,magenta,cross
0.0,8.0,0.0,1.0,3.0,3.0,363.2228650003526,3.0,1.0,phase_1,,,,,,,,,,,,,yellow,circle
331.0,2.0,2.0,0.0,3.0,3.0,482.9230699997424,3.0,1.0,phase_1,,,,,,,,,,,,,gray,hexagon
342.0,2.0,2.0,0.0,4.0,4.0,335.3808050001134,3.0,1.0,phase_1,,,,,,,,,,,,,gray,hexagon
1287.0,4.0,4.0,0.0,4.0,4.0,362.1562459998131,3.0,1.0,phase_1,,,,,,,,,,,,,cyan,diamond
170.0,5.0,1.0,1.0,2.0,2.0,371.9648580004104,3.0,1.0,phase_1,,,,,,,,,,,,,white,square
180.0,1.0,1.0,0.0,1.0,1.0,336.4104470001621,3.0,1.0,phase_1,,,,,,,,,,,,,blue,I
333.0,2.0,2.0,0.0,1.0,1.0,540.7750849999502,3.0,1.0,phase_1,,,,,,,,,,,,,gray,hexagon
1298.0,8.0,4.0,1.0,1.0,1.0,305.9883830001126,3.0,1.0,phase_1,,,,,,,,,,,,,yellow,circle
336.0,6.0,2.0,1.0,4.0,4.0,436.0983880001186,3.0,1.0,phase_1,,,,,,,,,,,,,magenta,cross
341.0,6.0,2.0,1.0,2.0,2.0,402.5793430000703,3.0,1.0,phase_1,,,,,,,,,,,,,magenta,cross
302.0,2.0,2.0,0.0,3.0,3.0,407.9403320001802,3.0,1.0,phase_1,,,,,,,,,,,,,gray,hexagon
0.0,7.0,0.0,1.0,2.0,2.0,416.834497000309,3.0,1.0,phase_1,,,,,,,,,,,,,green,triangle
1295.0,8.0,4.0,1.0,4.0,4.0,435.534474999713,3.0,1.0,phase_1,,,,,,,,,,,,,yellow,circle
1297.0,4.0,4.0,0.0,2.0,2.0,370.579061999706,3.0,1.0,phase_1,,,,,,,,,,,,,cyan,diamond
0.0,2.0,0.0,0.0,2.0,2.0,427.403255000172,3.0,1.0,phase_1,,,,,,,,,,,,,gray,hexagon
172.0,1.0,1.0,0.0,1.0,1.0,548.2424230003744,3.0,1.0,phase_1,,,,,,,,,,,,,blue,I
322.0,6.0,2.0,1.0,1.0,1.0,484.6142810001765,4.0,1.0,phase_1,,,,,,,,,,,,,magenta,cross
0.0,6.0,0.0,1.0,2.0,2.0,307.131912999921,4.0,1.0,phase_1,,,,,,,,,,,,,magenta,cross
1303.0,4.0,4.0,0.0,4.0,4.0,419.1618869999729,4.0,1.0,phase_1,,,,,,,,,,,,,cyan,diamond
184.0,5.0,1.0,1.0,1.0,1.0,355.2620240002397,4.0,1.0,phase_1,,,,,,,,,,,,,white,square
642.0,7.0,3.0,1.0,3.0,3.0,288.7674480002715,4.0,1.0,phase_1,,,,,,,,,,,,,green,triangle
307.0,2.0,2.0,0.0,4.0,4.0,491.9479760001195,4.0,1.0,phase_1,,,,,,,,,,,,,gray,hexagon
646.0,7.0,3.0,1.0,1.0,1.0,251.860360000137,4.0,1.0,phase_1,,,,,,,,,,,,,green,triangle
350.0,2.0,2.0,0.0,3.0,3.0,484.2195599999286,4.0,1.0,phase_1,,,,,,,,,,,,,gray,hexagon
668.0,7.0,3.0,1.0,3.0,3.0,447.4309370002629,4.0,1.0,phase_1,,,,,,,,,,,,,green,triangle
627.0,7.0,3.0,1.0,4.0,4.0,372.0081599999503,4.0,1.0,phase_1,,,,,,,,,,,,,green,triangle
647.0,3.0,3.0,0.0,1.0,1.0,344.4966229999409,4.0,1.0,phase_1,,,,,,,,,,,,,orange,flipped triangle
0.0,4.0,0.0,0.0,4.0,4.0,539.7170020000885,4.0,1.0,phase_1,,,,,,,,,,,,,cyan,diamond
626.0,3.0,3.0,0.0,3.0,3.0,428.7785299998177,4.0,1.0,phase_1,,,,,,,,,,,,,orange,flipped triangle
314.0,6.0,2.0,1.0,4.0,4.0,389.6022950002589,4.0,1.0,phase_1,,,,,,,,,,,,,magenta,cross
179.0,1.0,1.0,0.0,3.0,3.0,540.0012720001541,4.0,1.0,phase_1,,,,,,,,,,,,,blue,I
139.0,5.0,1.0,1.0,3.0,3.0,345.0950510000439,4.0,1.0,phase_1,,,,,,,,,,,,,white,square
1285.0,4.0,4.0,0.0,1.0,1.0,446.6609930000231,4.0,1.0,phase_1,,,,,,,,,,,,,cyan,diamond
0.0,3.0,0.0,0.0,2.0,2.0,494.7803009999916,4.0,1.0,phase_1,,,,,,,,,,,,,orange,flipped triangle
146.0,1.0,1.0,0.0,2.0,2.0,382.3316840002917,4.0,1.0,phase_1,,,,,,,,,,,,,blue,I
639.0,7.0,3.0,1.0,4.0,4.0,354.8153159999856,4.0,1.0,phase_1,,,,,,,,,,,,,green,triangle
1305.0,4.0,4.0,0.0,4.0,4.0,568.2918309998968,4.0,1.0,phase_1,,,,,,,,,,,,,cyan,diamond
1303.0,4.0,4.0,0.0,1.0,1.0,399.5380789997398,4.0,1.0,phase_1,,,,,,,,,,,,,cyan,diamond
339.0,2.0,2.0,0.0,2.0,2.0,398.6858779999238,4.0,1.0,phase_1,,,,,,,,,,,,,gray,hexagon
1303.0,8.0,4.0,1.0,2.0,2.0,363.3112620000247,4.0,1.0,phase_1,,,,,,,,,,,,,yellow,circle
0.0,3.0,0.0,0.0,3.0,3.0,352.9536749997533,4.0,2.0,phase_1,,,,,,,,,,,,,orange,flipped triangle
329.0,6.0,2.0,1.0,3.0,3.0,361.7806270003711,4.0,1.0,phase_1,,,,,,,,,,,,,magenta,cross
160.0,5.0,1.0,1.0,2.0,2.0,361.7765540002438,4.0,1.0,phase_1,,,,,,,,,,,,,white,square
652.0,3.0,3.0,0.0,1.0,1.0,344.42994800019727,4.0,1.0,phase_1,,,,,,,,,,,,,orange,flipped triangle
629.0,7.0,3.0,1.0,2.0,2.0,482.7341599998362,4.0,1.0,phase_1,,,,,,,,,,,,,green,triangle
0.0,1.0,0.0,0.0,4.0,4.0,611.9884690001527,4.0,1.0,phase_1,,,,,,,,,,,,,blue,I
0.0,8.0,0.0,1.0,2.0,2.0,427.477170000202,4.0,1.0,phase_1,,,,,,,,,,,,,yellow,circle
331.0,6.0,2.0,1.0,4.0,4.0,391.6500070004076,4.0,1.0,phase_1,,,,,,,,,,,,,magenta,cross
341.0,2.0,2.0,0.0,4.0,4.0,474.8040149997905,4.0,1.0,phase_1,,,,,,,,,,,,,gray,hexagon
646.0,7.0,3.0,1.0,3.0,3.0,373.9065630002187,4.0,1.0,phase_1,,,,,,,,,,,,,green,triangle
0.0,1.0,0.0,0.0,1.0,1.0,307.7907659999255,4.0,1.0,phase_1,,,,,,,,,,,,,blue,I
0.0,2.0,0.0,0.0,1.0,1.0,436.9216659997619,4.0,1.0,phase_1,,,,,,,,,,,,,gray,hexagon
151.0,5.0,1.0,1.0,4.0,4.0,419.0811280000162,4.0,1.0,phase_1,,,,,,,,,,,,,white,square
0.0,3.0,0.0,0.0,1.0,1.0,401.3512070000615,4.0,1.0,phase_1,,,,,,,,,,,,,orange,flipped triangle
639.0,7.0,3.0,1.0,4.0,4.0,428.6036550001881,4.0,1.0,phase_1,,,,,,,,,,,,,green,triangle
668.0,7.0,3.0,1.0,4.0,4.0,428.0503720001434,4.0,1.0,phase_1,,,,,,,,,,,,,green,triangle
1287.0,8.0,4.0,1.0,3.0,3.0,530.5591819997062,4.0,1.0,phase_1,,,,,,,,,,,,,yellow,circle
1324.0,8.0,4.0,1.0,1.0,1.0,671.0544449997542,4.0,1.0,phase_1,,,,,,,,,,,,,yellow,circle
0.0,7.0,0.0,1.0,1.0,1.0,464.1381360002015,4.0,1.0,phase_1,,,,,,,,,,,,,green,triangle
0.0,8.0,0.0,1.0,2.0,2.0,390.7591519996458,4.0,1.0,phase_1,,,,,,,,,,,,,yellow,circle
150.0,1.0,1.0,0.0,2.0,2.0,363.1373980001626,4.0,1.0,phase_1,,,,,,,,,,,,,blue,I
0.0,6.0,0.0,1.0,1.0,1.0,410.3943670002081,4.0,1.0,phase_1,,,,,,,,,,,,,magenta,cross
301.0,2.0,2.0,0.0,2.0,2.0,363.3141810000779,4.0,1.0,phase_1,,,,,,,,,,,,,gray,hexagon
300.0,2.0,2.0,0.0,2.0,2.0,371.7102169998725,4.0,1.0,phase_1,,,,,,,,,,,,,gray,hexagon
646.0,3.0,3.0,0.0,4.0,4.0,465.982269000051,4.0,1.0,phase_1,,,,,,,,,,,,,orange,flipped triangle
0.0,3.0,0.0,0.0,2.0,2.0,364.0482669998164,4.0,1.0,phase_1,,,,,,,,,,,,,orange,flipped triangle
642.0,3.0,3.0,0.0,3.0,3.0,380.409082999904,4.0,1.0,phase_1,,,,,,,,,,,,,orange,flipped triangle
301.0,6.0,2.0,1.0,4.0,4.0,279.6841439999298,4.0,1.0,phase_1,,,,,,,,,,,,,magenta,cross
1324.0,8.0,4.0,1.0,3.0,3.0,447.8903360000004,4.0,1.0,phase_1,,,,,,,,,,,,,yellow,circle
301.0,6.0,2.0,1.0,3.0,3.0,365.5274890002147,4.0,1.0,phase_1,,,,,,,,,,,,,magenta,cross
176.0,1.0,1.0,0.0,1.0,1.0,354.7160849998363,4.0,1.0,phase_1,,,,,,,,,,,,,blue,I
1324.0,8.0,4.0,1.0,2.0,2.0,334.37196899967597,4.0,1.0,phase_1,,,,,,,,,,,,,yellow,circle
327.0,2.0,2.0,0.0,3.0,3.0,316.8335509999451,4.0,1.0,phase_1,,,,,,,,,,,,,gray,hexagon
672.0,7.0,3.0,1.0,3.0,3.0,392.2527009999612,4.0,1.0,phase_1,,,,,,,,,,,,,green,triangle
1291.0,8.0,4.0,1.0,3.0,3.0,521.3966059995983,4.0,1.0,phase_1,,,,,,,,,,,,,yellow,circle
0.0,5.0,0.0,1.0,3.0,3.0,353.0724249999366,4.0,1.0,phase_1,,,,,,,,,,,,,white,square
317.0,6.0,2.0,1.0,2.0,2.0,306.5532750001694,4.0,1.0,phase_1,,,,,,,,,,,,,magenta,cross
631.0,7.0,3.0,1.0,4.0,4.0,371.92804599999357,4.0,1.0,phase_1,,,,,,,,,,,,,green,triangle
160.0,5.0,1.0,1.0,4.0,4.0,400.6206279996149,4.0,1.0,phase_1,,,,,,,,,,,,,white,square
137.0,5.0,1.0,1.0,3.0,3.0,448.1350209998709,4.0,1.0,phase_1,,,,,,,,,,,,,white,square
0.0,2.0,0.0,0.0,3.0,3.0,426.9866300001013,4.0,1.0,phase_1,,,,,,,,,,,,,gray,hexagon
145.0,5.0,1.0,1.0,2.0,2.0,260.3510220001226,4.0,2.0,phase_1,,,,,,,,,,,,,white,square
302.0,6.0,2.0,1.0,1.0,1.0,379.8850899997887,4.0,1.0,phase_1,,,,,,,,,,,,,magenta,cross
178.0,1.0,1.0,0.0,3.0,3.0,371.3361589998385,4.0,1.0,phase_1,,,,,,,,,,,,,blue,I
0.0,4.0,0.0,0.0,2.0,2.0,325.3599709996706,4.0,1.0,phase_1,,,,,,,,,,,,,cyan,diamond
318.0,6.0,2.0,1.0,4.0,4.0,408.3984170001713,4.0,1.0,phase_1,,,,,,,,,,,,,magenta,cross
160.0,1.0,1.0,0.0,2.0,2.0,537.8718100000697,4.0,1.0,phase_1,,,,,,,,,,,,,blue,I
666.0,7.0,3.0,1.0,1.0,1.0,315.5701800001225,4.0,1.0,phase_1,,,,,,,,,,,,,green,triangle
304.0,6.0,2.0,1.0,3.0,3.0,370.4879080000864,4.0,1.0,phase_1,,,,,,,,,,,,,magenta,cross
1280.0,8.0,4.0,1.0,1.0,1.0,371.9732810000096,4.0,1.0,phase_1,,,,,,,,,,,,,yellow,circle
627.0,3.0,3.0,0.0,2.0,2.0,445.856964000086,4.0,1.0,phase_1,,,,,,,,,,,,,orange,flipped triangle
1314.0,8.0,4.0,1.0,4.0,4.0,334.8269139996773,4.0,1.0,phase_1,,,,,,,,,,,,,yellow,circle
0.0,1.0,0.0,0.0,3.0,3.0,512.6001820003694,4.0,1.0,phase_1,,,,,,,,,,,,,blue,I
659.0,3.0,3.0,0.0,2.0,2.0,343.572709,4.0,1.0,phase_1,,,,,,,,,,,,,orange,flipped triangle
329.0,2.0,2.0,0.0,3.0,3.0,463.0956759997389,4.0,1.0,phase_1,,,,,,,,,,,,,gray,hexagon
1317.0,4.0,4.0,0.0,2.0,2.0,296.9077929997183,4.0,2.0,phase_1,,,,,,,,,,,,,cyan,diamond
339.0,6.0,2.0,1.0,3.0,3.0,464.5358890002171,4.0,1.0,phase_1,,,,,,,,,,,,,magenta,cross
629.0,3.0,3.0,0.0,2.0,2.0,445.0491020002118,4.0,1.0,phase_1,,,,,,,,,,,,,orange,flipped triangle
0.0,1.0,0.0,0.0,4.0,4.0,334.6223179996741,4.0,1.0,phase_1,,,,,,,,,,,,,blue,I
651.0,7.0,3.0,1.0,3.0,3.0,379.4060540003556,4.0,1.0,phase_1,,,,,,,,,,,,,green,triangle
313.0,6.0,2.0,1.0,2.0,2.0,337.0492429999103,4.0,1.0,phase_1,,,,,,,,,,,,,magenta,cross
1288.0,8.0,4.0,1.0,2.0,2.0,576.2330480001765,4.0,1.0,phase_1,,,,,,,,,,,,,yellow,circle
154.0,5.0,1.0,1.0,1.0,1.0,519.6798599999966,4.0,1.0,phase_1,,,,,,,,,,,,,white,square
643.0,3.0,3.0,0.0,3.0,3.0,333.5690130002149,4.0,1.0,phase_1,,,,,,,,,,,,,orange,flipped triangle
163.0,5.0,1.0,1.0,2.0,2.0,324.3697369998699,4.0,1.0,phase_1,,,,,,,,,,,,,white,square
324.0,2.0,2.0,0.0,2.0,2.0,398.2806619997063,4.0,1.0,phase_1,,,,,,,,,,,,,gray,hexagon
658.0,7.0,3.0,1.0,2.0,2.0,390.5409979997785,4.0,1.0,phase_1,,,,,,,,,,,,,green,triangle
1310.0,8.0,4.0,1.0,3.0,3.0,475.6706510002004,4.0,1.0,phase_1,,,,,,,,,,,,,yellow,circle
329.0,2.0,2.0,0.0,1.0,1.0,527.8777880002963,4.0,1.0,phase_1,,,,,,,,,,,,,gray,hexagon
186.0,1.0,1.0,0.0,3.0,3.0,454.0460749999511,4.0,1.0,phase_1,,,,,,,,,,,,,blue,I
661.0,3.0,3.0,0.0,3.0,3.0,434.5089430003099,4.0,1.0,phase_1,,,,,,,,,,,,,orange,flipped triangle
0.0,7.0,0.0,1.0,4.0,4.0,342.5951799999893,4.0,1.0,phase_1,,,,,,,,,,,,,green,triangle
654.0,3.0,3.0,0.0,3.0,3.0,361.3461520003511,4.0,1.0,phase_1,,,,,,,,,,,,,orange,flipped triangle
336.0,2.0,2.0,0.0,3.0,3.0,436.4836349996039,4.0,1.0,phase_1,,,,,,,,,,,,,gray,hexagon
317.0,2.0,2.0,0.0,3.0,3.0,362.1969710002304,4.0,1.0,phase_1,,,,,,,,,,,,,gray,hexagon
0.0,4.0,0.0,0.0,2.0,2.0,288.1710329997986,4.0,1.0,phase_1,,,,,,,,,,,,,cyan,diamond
0.0,4.0,4.0,0.0,5.0,5.0,399.6147100001508,1.0,1.0,phase_2,go,250.0,250.0,1.0,,,,,,,,,cyan,diamond
0.0,1.0,1.0,0.0,5.0,5.0,828.5485530000187,1.0,1.0,phase_2,go,250.0,250.0,1.0,,,,,,,,,blue,I
0.0,3.0,3.0,0.0,5.0,5.0,384.6240990001206,1.0,1.0,phase_2,go,250.0,250.0,1.0,,,,,,,,,orange,flipped triangle
0.0,6.0,2.0,1.0,5.0,0.0,0.0,1.0,1.0,phase_2,stop,250.0,250.0,4.0,,,,,,,,,magenta,cross
0.0,4.0,4.0,0.0,6.0,6.0,944.5623519995934,1.0,1.0,phase_2,go,300.0,250.0,1.0,,,,,,,,,cyan,diamond
0.0,6.0,2.0,1.0,6.0,6.0,366.1814470001445,1.0,1.0,phase_2,stop,300.0,250.0,3.0,,,,,,,,,magenta,cross
0.0,1.0,1.0,0.0,5.0,5.0,327.1544940002968,1.0,1.0,phase_2,go,300.0,200.0,1.0,,,,,,,,,blue,I
0.0,4.0,4.0,0.0,6.0,6.0,685.9979199998634,1.0,1.0,phase_2,go,300.0,200.0,1.0,,,,,,,,,cyan,diamond
0.0,5.0,1.0,1.0,6.0,6.0,663.6659720002172,1.0,1.0,phase_2,stop,300.0,200.0,3.0,,,,,,,,,white,square
0.0,5.0,1.0,1.0,6.0,0.0,0.0,1.0,1.0,phase_2,stop,300.0,150.0,4.0,,,,,,,,,white,square
0.0,3.0,3.0,0.0,6.0,6.0,581.7073919997711,1.0,1.0,phase_2,go,300.0,200.0,1.0,,,,,,,,,orange,flipped triangle
0.0,6.0,2.0,1.0,6.0,0.0,0.0,1.0,1.0,phase_2,stop,300.0,200.0,4.0,,,,,,,,,magenta,cross
0.0,5.0,1.0,1.0,6.0,0.0,0.0,1.0,1.0,phase_2,stop,300.0,250.0,4.0,,,,,,,,,white,square
0.0,7.0,3.0,1.0,6.0,0.0,0.0,1.0,1.0,phase_2,stop,300.0,300.0,4.0,,,,,,,,,green,triangle
0.0,2.0,2.0,0.0,5.0,5.0,812.3631430003115,1.0,1.0,phase_2,go,300.0,350.0,1.0,,,,,,,,,gray,hexagon
0.0,6.0,2.0,1.0,6.0,0.0,0.0,1.0,1.0,phase_2,stop,300.0,350.0,4.0,,,,,,,,,magenta,cross
0.0,4.0,4.0,0.0,6.0,6.0,955.325102000188,1.0,1.0,phase_2,go,300.0,400.0,1.0,,,,,,,,,cyan,diamond
0.0,8.0,4.0,1.0,5.0,0.0,0.0,1.0,1.0,phase_2,stop,300.0,400.0,4.0,,,,,,,,,yellow,circle
0.0,8.0,4.0,1.0,5.0,0.0,0.0,1.0,1.0,phase_2,stop,350.0,400.0,4.0,,,,,,,,,yellow,circle
0.0,5.0,1.0,1.0,5.0,0.0,0.0,1.0,1.0,phase_2,stop,400.0,400.0,4.0,,,,,,,,,white,square
0.0,1.0,1.0,0.0,5.0,5.0,952.4181429997044,1.0,1.0,phase_2,go,450.0,400.0,1.0,,,,,,,,,blue,I
0.0,7.0,3.0,1.0,6.0,0.0,0.0,1.0,1.0,phase_2,stop,450.0,400.0,4.0,,,,,,,,,green,triangle
0.0,4.0,4.0,0.0,6.0,6.0,952.415831000053,1.0,1.0,phase_2,go,450.0,450.0,1.0,,,,,,,,,cyan,diamond
0.0,4.0,4.0,0.0,5.0,5.0,740.2181759998712,1.0,1.0,phase_2,go,450.0,450.0,1.0,,,,,,,,,cyan,diamond
0.0,8.0,4.0,1.0,5.0,0.0,0.0,1.0,1.0,phase_2,stop,450.0,450.0,4.0,,,,,,,,,yellow,circle
0.0,1.0,1.0,0.0,5.0,5.0,691.2533980002991,1.0,1.0,phase_2,go,500.0,450.0,1.0,,,,,,,,,blue,I
0.0,3.0,3.0,0.0,6.0,6.0,1055.1796839999952,1.0,1.0,phase_2,go,500.0,450.0,1.0,,,,,,,,,orange,flipped triangle
0.0,6.0,2.0,1.0,5.0,5.0,382.4486070002422,1.0,1.0,phase_2,stop,500.0,450.0,3.0,,,,,,,,,magenta,cross
0.0,3.0,3.0,0.0,6.0,6.0,758.6699870003031,1.0,1.0,phase_2,go,450.0,450.0,1.0,,,,,,,,,orange,flipped triangle
0.0,8.0,4.0,1.0,5.0,5.0,346.4549690002059,1.0,1.0,phase_2,stop,450.0,450.0,3.0,,,,,,,,,yellow,circle
0.0,2.0,2.0,0.0,5.0,5.0,813.1820509997851,1.0,1.0,phase_2,go,400.0,450.0,1.0,,,,,,,,,gray,hexagon
0.0,8.0,4.0,1.0,6.0,0.0,0.0,1.0,1.0,phase_2,stop,400.0,450.0,4.0,,,,,,,,,yellow,circle
0.0,2.0,2.0,0.0,5.0,5.0,654.0249340000628,1.0,1.0,phase_2,go,400.0,500.0,1.0,,,,,,,,,gray,hexagon
0.0,6.0,2.0,1.0,6.0,6.0,625.2090639995913,1.0,1.0,phase_2,stop,400.0,500.0,3.0,,,,,,,,,magenta,cross
0.0,1.0,1.0,0.0,6.0,6.0,821.8695450000268,1.0,1.0,phase_2,go,400.0,450.0,1.0,,,,,,,,,blue,I
0.0,4.0,4.0,0.0,6.0,6.0,392.9424540001491,1.0,1.0,phase_2,go,400.0,450.0,1.0,,,,,,,,,cyan,diamond
0.0,6.0,2.0,1.0,6.0,6.0,552.7239020002526,2.0,1.0,phase_2,go,400.0,450.0,1.0,,,,,,,,,magenta,cross
0.0,7.0,3.0,1.0,5.0,5.0,546.1706500000219,2.0,1.0,phase_2,stop,400.0,450.0,3.0,,,,,,,,,green,triangle
0.0,2.0,2.0,0.0,5.0,5.0,934.53747500007,2.0,1.0,phase_2,go,350.0,450.0,1.0,,,,,,,,,gray,hexagon
0.0,6.0,2.0,1.0,6.0,0.0,0.0,2.0,1.0,phase_2,stop,350.0,450.0,4.0,,,,,,,,,magenta,cross
0.0,5.0,1.0,1.0,6.0,6.0,645.724001000417,2.0,1.0,phase_2,go,350.0,500.0,1.0,,,,,,,,,white,square
0.0,7.0,3.0,1.0,6.0,6.0,589.1034569999647,2.0,1.0,phase_2,stop,350.0,500.0,3.0,,,,,,,,,green,triangle
0.0,8.0,4.0,1.0,5.0,0.0,0.0,2.0,1.0,phase_2,stop,350.0,450.0,4.0,,,,,,,,,yellow,circle
0.0,6.0,2.0,1.0,5.0,0.0,0.0,2.0,1.0,phase_2,stop,400.0,450.0,4.0,,,,,,,,,magenta,cross
0.0,1.0,1.0,0.0,6.0,6.0,337.43607099995637,2.0,1.0,phase_2,go,450.0,450.0,1.0,,,,,,,,,blue,I
0.0,6.0,2.0,1.0,6.0,0.0,0.0,2.0,1.0,phase_2,stop,450.0,450.0,4.0,,,,,,,,,magenta,cross
0.0,6.0,2.0,1.0,5.0,5.0,712.9577919999974,2.0,1.0,phase_2,go,450.0,500.0,1.0,,,,,,,,,magenta,cross
0.0,4.0,4.0,0.0,5.0,5.0,412.2257409999292,2.0,1.0,phase_2,go,450.0,500.0,1.0,,,,,,,,,cyan,diamond
0.0,7.0,3.0,1.0,6.0,0.0,0.0,2.0,1.0,phase_2,stop,450.0,500.0,4.0,,,,,,,,,green,triangle
0.0,7.0,3.0,1.0,6.0,6.0,647.738401999959,2.0,1.0,phase_2,stop,450.0,550.0,3.0,,,,,,,,,green,triangle
0.0,2.0,2.0,0.0,6.0,6.0,955.54640499995,2.0,1.0,phase_2,go,450.0,500.0,1.0,,,,,,,,,gray,hexagon
0.0,3.0,3.0,0.0,5.0,5.0,592.1864259998983,2.0,1.0,phase_2,go,450.0,500.0,1.0,,,,,,,,,orange,flipped triangle
0.0,2.0,2.0,0.0,5.0,5.0,440.516228999968,2.0,1.0,phase_2,go,450.0,500.0,1.0,,,,,,,,,gray,hexagon
0.0,3.0,3.0,0.0,5.0,5.0,551.3521530001526,2.0,1.0,phase_2,go,450.0,500.0,1.0,,,,,,,,,orange,flipped triangle
0.0,4.0,4.0,0.0,5.0,5.0,356.2868789999811,2.0,1.0,phase_2,go,450.0,500.0,1.0,,,,,,,,,cyan,diamond
0.0,2.0,2.0,0.0,5.0,5.0,796.9719829998212,2.0,1.0,phase_2,go,450.0,500.0,1.0,,,,,,,,,gray,hexagon
0.0,1.0,1.0,0.0,5.0,5.0,767.1276590003799,2.0,1.0,phase_2,go,450.0,500.0,1.0,,,,,,,,,blue,I
0.0,4.0,4.0,0.0,5.0,5.0,432.2100409999621,2.0,1.0,phase_2,go,450.0,500.0,1.0,,,,,,,,,cyan,diamond
0.0,6.0,2.0,1.0,5.0,5.0,584.7596079997857,2.0,1.0,phase_2,stop,450.0,500.0,3.0,,,,,,,,,magenta,cross
0.0,5.0,1.0,1.0,5.0,5.0,794.6932429999833,2.0,1.0,phase_2,go,400.0,500.0,1.0,,,,,,,,,white,square
0.0,5.0,1.0,1.0,5.0,5.0,571.7506129999492,2.0,1.0,phase_2,stop,400.0,500.0,3.0,,,,,,,,,white,square
0.0,3.0,3.0,0.0,6.0,6.0,806.9102240001484,2.0,1.0,phase_2,go,350.0,500.0,1.0,,,,,,,,,orange,flipped triangle
0.0,3.0,3.0,0.0,6.0,6.0,420.3846810000868,2.0,1.0,phase_2,go,350.0,500.0,1.0,,,,,,,,,orange,flipped triangle
0.0,3.0,3.0,0.0,5.0,5.0,677.068841000164,2.0,1.0,phase_2,go,350.0,500.0,1.0,,,,,,,,,orange,flipped triangle
0.0,7.0,3.0,1.0,5.0,0.0,0.0,2.0,1.0,phase_2,stop,350.0,500.0,4.0,,,,,,,,,green,triangle
0.0,8.0,4.0,1.0,5.0,5.0,636.8453119998776,2.0,1.0,phase_2,stop,400.0,500.0,3.0,,,,,,,,,yellow,circle
0.0,8.0,4.0,1.0,5.0,0.0,0.0,2.0,1.0,phase_2,stop,350.0,500.0,4.0,,,,,,,,,yellow,circle
0.0,1.0,1.0,0.0,6.0,6.0,738.237542999741,2.0,1.0,phase_2,go,400.0,500.0,1.0,,,,,,,,,blue,I
0.0,2.0,2.0,0.0,6.0,6.0,487.5223529998038,2.0,1.0,phase_2,go,400.0,500.0,1.0,,,,,,,,,gray,hexagon
0.0,5.0,1.0,1.0,6.0,6.0,803.7501200001316,2.0,1.0,phase_2,go,400.0,500.0,1.0,,,,,,,,,white,square
0.0,4.0,4.0,0.0,6.0,6.0,335.4506529999526,2.0,1.0,phase_2,go,400.0,500.0,1.0,,,,,,,,,cyan,diamond
0.0,7.0,3.0,1.0,5.0,0.0,0.0,2.0,1.0,phase_2,stop,400.0,500.0,4.0,,,,,,,,,green,triangle
0.0,3.0,3.0,0.0,6.0,6.0,663.7752599999658,3.0,1.0,phase_2,go,450.0,500.0,1.0,,,,,,,,,orange,flipped triangle
0.0,3.0,3.0,0.0,5.0,5.0,391.9646550002653,3.0,1.0,phase_2,go,450.0,500.0,1.0,,,,,,,,,orange,flipped triangle
0.0,2.0,2.0,0.0,5.0,5.0,550.020743999994,3.0,1.0,phase_2,go,450.0,500.0,1.0,,,,,,,,,gray,hexagon
0.0,8.0,4.0,1.0,5.0,5.0,393.9180899997154,3.0,1.0,phase_2,go,450.0,500.0,1.0,,,,,,,,,yellow,circle
0.0,8.0,4.0,1.0,6.0,6.0,421.9239349999952,3.0,1.0,phase_2,stop,450.0,500.0,3.0,,,,,,,,,yellow,circle
0.0,5.0,1.0,1.0,5.0,5.0,365.7676279999577,3.0,1.0,phase_2,go,450.0,450.0,1.0,,,,,,,,,white,square
0.0,4.0,4.0,0.0,5.0,5.0,469.5449320001899,3.0,1.0,phase_2,go,450.0,450.0,1.0,,,,,,,,,cyan,diamond
0.0,5.0,1.0,1.0,5.0,5.0,530.3486340003474,3.0,1.0,phase_2,stop,450.0,450.0,3.0,,,,,,,,,white,square
0.0,4.0,4.0,0.0,5.0,5.0,712.2289549997731,3.0,1.0,phase_2,go,400.0,450.0,1.0,,,,,,,,,cyan,diamond
0.0,2.0,2.0,0.0,6.0,6.0,449.279295999986,3.0,1.0,phase_2,go,400.0,450.0,1.0,,,,,,,,,gray,hexagon
0.0,6.0,2.0,1.0,5.0,5.0,599.4078620001346,3.0,1.0,phase_2,go,400.0,450.0,1.0,,,,,,,,,magenta,cross
0.0,8.0,4.0,1.0,5.0,5.0,393.710037999881,3.0,1.0,phase_2,stop,400.0,450.0,3.0,,,,,,,,,yellow,circle
0.0,7.0,3.0,1.0,5.0,0.0,0.0,3.0,1.0,phase_2,stop,350.0,450.0,4.0,,,,,,,,,green,triangle
0.0,7.0,3.0,1.0,6.0,6.0,392.5250170000254,3.0,1.0,phase_2,go,400.0,450.0,1.0,,,,,,,,,green,triangle
0.0,1.0,1.0,0.0,6.0,6.0,468.6119299999518,3.0,1.0,phase_2,go,400.0,450.0,1.0,,,,,,,,,blue,I
0.0,4.0,4.0,0.0,6.0,6.0,394.8363669996979,3.0,1.0,phase_2,go,400.0,450.0,1.0,,,,,,,,,cyan,diamond
0.0,7.0,3.0,1.0,6.0,6.0,430.0766279998242,3.0,1.0,phase_2,stop,400.0,450.0,3.0,,,,,,,,,green,triangle
0.0,8.0,4.0,1.0,6.0,0.0,0.0,3.0,1.0,phase_2,stop,400.0,400.0,4.0,,,,,,,,,yellow,circle
0.0,8.0,4.0,1.0,5.0,5.0,815.4451989998961,3.0,1.0,phase_2,go,400.0,450.0,1.0,,,,,,,,,yellow,circle
0.0,2.0,2.0,0.0,5.0,5.0,542.1938320000663,3.0,1.0,phase_2,go,400.0,450.0,1.0,,,,,,,,,gray,hexagon
0.0,4.0,4.0,0.0,5.0,5.0,561.4732589997402,3.0,1.0,phase_2,go,400.0,450.0,1.0,,,,,,,,,cyan,diamond
0.0,8.0,4.0,1.0,5.0,5.0,442.1927879998293,3.0,1.0,phase_2,stop,400.0,450.0,3.0,,,,,,,,,yellow,circle
0.0,3.0,3.0,0.0,6.0,6.0,1055.08672499991,3.0,1.0,phase_2,go,350.0,450.0,1.0,,,,,,,,,orange,flipped triangle
0.0,8.0,4.0,1.0,5.0,0.0,0.0,3.0,1.0,phase_2,stop,350.0,450.0,4.0,,,,,,,,,yellow,circle
0.0,2.0,2.0,0.0,6.0,6.0,607.9540979999365,3.0,1.0,phase_2,go,400.0,450.0,1.0,,,,,,,,,gray,hexagon
0.0,5.0,1.0,1.0,6.0,6.0,393.6147540002821,3.0,1.0,phase_2,stop,400.0,450.0,3.0,,,,,,,,,white,square
0.0,6.0,2.0,1.0,6.0,0.0,0.0,3.0,1.0,phase_2,stop,400.0,400.0,4.0,,,,,,,,,magenta,cross
0.0,1.0,1.0,0.0,6.0,6.0,627.6652800002012,3.0,1.0,phase_2,go,400.0,450.0,1.0,,,,,,,,,blue,I
0.0,7.0,3.0,1.0,6.0,6.0,392.0750770002996,3.0,1.0,phase_2,stop,400.0,450.0,3.0,,,,,,,,,green,triangle
0.0,4.0,4.0,0.0,6.0,6.0,616.9329680001283,3.0,1.0,phase_2,go,400.0,400.0,1.0,,,,,,,,,cyan,diamond
0.0,6.0,2.0,1.0,5.0,5.0,461.0401830000228,3.0,1.0,phase_2,stop,400.0,400.0,3.0,,,,,,,,,magenta,cross
0.0,6.0,2.0,1.0,5.0,0.0,0.0,3.0,1.0,phase_2,stop,350.0,400.0,4.0,,,,,,,,,magenta,cross
0.0,1.0,1.0,0.0,5.0,5.0,691.5493340002286,3.0,1.0,phase_2,go,400.0,400.0,1.0,,,,,,,,,blue,I
0.0,5.0,1.0,1.0,6.0,6.0,393.57909499995,3.0,1.0,phase_2,go,400.0,400.0,1.0,,,,,,,,,white,square
0.0,2.0,2.0,0.0,6.0,6.0,664.0681069998209,3.0,1.0,phase_2,go,400.0,400.0,1.0,,,,,,,,,gray,hexagon
0.0,4.0,4.0,0.0,6.0,6.0,401.7641400000684,3.0,1.0,phase_2,go,400.0,400.0,1.0,,,,,,,,,cyan,diamond
0.0,7.0,3.0,1.0,6.0,6.0,520.9032660000048,4.0,1.0,phase_2,stop,400.0,400.0,3.0,,,,,,,,,green,triangle
0.0,8.0,4.0,1.0,6.0,6.0,468.3688250001978,4.0,1.0,phase_2,go,400.0,350.0,1.0,,,,,,,,,yellow,circle
0.0,7.0,3.0,1.0,5.0,5.0,479.393785999946,4.0,1.0,phase_2,go,400.0,350.0,1.0,,,,,,,,,green,triangle
0.0,7.0,3.0,1.0,6.0,6.0,319.1656540002441,4.0,1.0,phase_2,go,400.0,350.0,1.0,,,,,,,,,green,triangle
0.0,8.0,4.0,1.0,6.0,6.0,397.7237399999467,4.0,1.0,phase_2,stop,400.0,350.0,3.0,,,,,,,,,yellow,circle
0.0,5.0,1.0,1.0,5.0,5.0,448.3252329996503,4.0,1.0,phase_2,stop,400.0,300.0,3.0,,,,,,,,,white,square
0.0,7.0,3.0,1.0,6.0,6.0,352.2499929999867,4.0,1.0,phase_2,stop,350.0,300.0,3.0,,,,,,,,,green,triangle
0.0,1.0,1.0,0.0,6.0,6.0,710.380559999976,4.0,1.0,phase_2,go,350.0,250.0,1.0,,,,,,,,,blue,I
0.0,5.0,1.0,1.0,5.0,0.0,0.0,4.0,1.0,phase_2,stop,350.0,250.0,4.0,,,,,,,,,white,square
0.0,8.0,4.0,1.0,6.0,6.0,373.8134259997423,4.0,1.0,phase_2,stop,400.0,250.0,3.0,,,,,,,,,yellow,circle
0.0,5.0,1.0,1.0,5.0,0.0,0.0,4.0,1.0,phase_2,stop,400.0,200.0,4.0,,,,,,,,,white,square
0.0,5.0,1.0,1.0,5.0,5.0,785.1478239999778,4.0,1.0,phase_2,go,450.0,200.0,1.0,,,,,,,,,white,square
0.0,7.0,3.0,1.0,6.0,0.0,0.0,4.0,1.0,phase_2,stop,450.0,200.0,4.0,,,,,,,,,green,triangle
0.0,6.0,2.0,1.0,5.0,0.0,0.0,4.0,1.0,phase_2,stop,450.0,250.0,4.0,,,,,,,,,magenta,cross
0.0,1.0,1.0,0.0,6.0,6.0,589.0376530001049,4.0,1.0,phase_2,go,500.0,250.0,1.0,,,,,,,,,blue,I
0.0,1.0,1.0,0.0,6.0,6.0,627.9771760000585,4.0,1.0,phase_2,go,500.0,250.0,1.0,,,,,,,,,blue,I
0.0,6.0,2.0,1.0,5.0,5.0,654.7351350000099,4.0,1.0,phase_2,go,500.0,250.0,1.0,,,,,,,,,magenta,cross
0.0,8.0,4.0,1.0,6.0,6.0,417.8557410000394,4.0,1.0,phase_2,stop,500.0,250.0,3.0,,,,,,,,,yellow,circle
0.0,7.0,3.0,1.0,6.0,0.0,0.0,4.0,1.0,phase_2,stop,500.0,200.0,4.0,,,,,,,,,green,triangle
0.0,6.0,2.0,1.0,6.0,6.0,1190.5520150003213,4.0,1.0,phase_2,go,500.0,250.0,1.0,,,,,,,,,magenta,cross
0.0,6.0,2.0,1.0,5.0,5.0,393.208604999927,4.0,1.0,phase_2,go,500.0,250.0,1.0,,,,,,,,,magenta,cross
0.0,6.0,2.0,1.0,6.0,0.0,0.0,4.0,1.0,phase_2,stop,500.0,250.0,4.0,,,,,,,,,magenta,cross
0.0,1.0,1.0,0.0,6.0,6.0,719.7684510001636,4.0,1.0,phase_2,go,500.0,300.0,1.0,,,,,,,,,blue,I
0.0,8.0,4.0,1.0,6.0,0.0,0.0,4.0,1.0,phase_2,stop,500.0,300.0,4.0,,,,,,,,,yellow,circle
0.0,5.0,1.0,1.0,6.0,0.0,0.0,4.0,1.0,phase_2,stop,500.0,350.0,4.0,,,,,,,,,white,square
0.0,7.0,3.0,1.0,5.0,0.0,0.0,4.0,1.0,phase_2,stop,500.0,400.0,4.0,,,,,,,,,green,triangle
0.0,1.0,1.0,0.0,5.0,5.0,729.1381710001588,4.0,1.0,phase_2,go,550.0,400.0,1.0,,,,,,,,,blue,I
0.0,4.0,4.0,0.0,5.0,5.0,682.4876270002278,4.0,1.0,phase_2,go,550.0,400.0,1.0,,,,,,,,,cyan,diamond
0.0,1.0,1.0,0.0,6.0,6.0,449.2456520001724,4.0,1.0,phase_2,go,550.0,400.0,1.0,,,,,,,,,blue,I
0.0,6.0,2.0,1.0,5.0,5.0,637.2962149998784,4.0,1.0,phase_2,stop,550.0,400.0,3.0,,,,,,,,,magenta,cross
0.0,8.0,4.0,1.0,6.0,0.0,0.0,4.0,1.0,phase_2,stop,500.0,400.0,4.0,,,,,,,,,yellow,circle
0.0,1.0,1.0,0.0,5.0,5.0,1008.9566269998611,4.0,1.0,phase_2,go,500.0,450.0,1.0,,,,,,,,,blue,I
0.0,3.0,3.0,0.0,5.0,5.0,562.0279510003456,4.0,1.0,phase_2,go,500.0,450.0,1.0,,,,,,,,,orange,flipped triangle
0.0,3.0,3.0,0.0,6.0,6.0,486.3115949997336,4.0,1.0,phase_2,go,500.0,450.0,1.0,,,,,,,,,orange,flipped triangle
0.0,7.0,3.0,1.0,5.0,5.0,327.515510000012,4.0,1.0,phase_2,stop,500.0,450.0,3.0,,,,,,,,,green,triangle
0.0,5.0,1.0,1.0,5.0,0.0,0.0,4.0,1.0,phase_2,stop,450.0,450.0,4.0,,,,,,,,,white,square
0.0,6.0,2.0,1.0,6.0,6.0,718.624464000186,5.0,1.0,phase_2,stop,500.0,450.0,3.0,,,,,,,,,magenta,cross
0.0,2.0,2.0,0.0,6.0,6.0,795.9175899995898,5.0,1.0,phase_2,go,500.0,400.0,1.0,,,,,,,,,gray,hexagon
0.0,3.0,3.0,0.0,5.0,5.0,514.6137310002814,5.0,1.0,phase_2,go,500.0,400.0,1.0,,,,,,,,,orange,flipped triangle
0.0,2.0,2.0,0.0,5.0,5.0,364.7595930001444,5.0,1.0,phase_2,go,500.0,400.0,1.0,,,,,,,,,gray,hexagon
0.0,4.0,4.0,0.0,6.0,6.0,402.9219130002275,5.0,1.0,phase_2,go,500.0,400.0,1.0,,,,,,,,,cyan,diamond
0.0,1.0,1.0,0.0,6.0,6.0,355.1182690002861,5.0,1.0,phase_2,go,500.0,400.0,1.0,,,,,,,,,blue,I
0.0,1.0,1.0,0.0,5.0,5.0,495.9556399999201,5.0,1.0,phase_2,go,500.0,400.0,1.0,,,,,,,,,blue,I
0.0,7.0,3.0,1.0,5.0,5.0,580.5795429996579,5.0,1.0,phase_2,stop,500.0,400.0,3.0,,,,,,,,,green,triangle
0.0,4.0,4.0,0.0,5.0,5.0,711.926093999864,5.0,1.0,phase_2,go,450.0,400.0,1.0,,,,,,,,,cyan,diamond
0.0,6.0,2.0,1.0,6.0,6.0,366.1488620000455,5.0,1.0,phase_2,stop,450.0,400.0,3.0,,,,,,,,,magenta,cross
0.0,8.0,4.0,1.0,5.0,5.0,552.9535260002376,5.0,1.0,phase_2,stop,450.0,350.0,3.0,,,,,,,,,yellow,circle
0.0,8.0,4.0,1.0,5.0,0.0,0.0,5.0,1.0,phase_2,stop,400.0,350.0,4.0,,,,,,,,,yellow,circle
0.0,7.0,3.0,1.0,5.0,5.0,702.0683910000116,5.0,1.0,phase_2,go,450.0,350.0,1.0,,,,,,,,,green,triangle
0.0,2.0,2.0,0.0,6.0,6.0,729.9872739999955,5.0,1.0,phase_2,go,450.0,350.0,1.0,,,,,,,,,gray,hexagon
0.0,5.0,1.0,1.0,6.0,6.0,532.521240999813,5.0,1.0,phase_2,go,450.0,350.0,1.0,,,,,,,,,white,square
0.0,3.0,3.0,0.0,6.0,6.0,561.071555000126,5.0,1.0,phase_2,go,450.0,350.0,1.0,,,,,,,,,orange,flipped triangle
0.0,4.0,4.0,0.0,6.0,6.0,393.6377530003483,5.0,1.0,phase_2,go,450.0,350.0,1.0,,,,,,,,,cyan,diamond
0.0,4.0,4.0,0.0,5.0,5.0,542.5955660002728,5.0,1.0,phase_2,go,450.0,350.0,1.0,,,,,,,,,cyan,diamond
0.0,8.0,4.0,1.0,6.0,6.0,421.0926019995895,5.0,1.0,phase_2,go,450.0,350.0,1.0,,,,,,,,,yellow,circle
0.0,5.0,1.0,1.0,6.0,6.0,399.1242860001875,5.0,1.0,phase_2,stop,450.0,350.0,3.0,,,,,,,,,white,square
0.0,1.0,1.0,0.0,5.0,5.0,570.1922399998693,5.0,1.0,phase_2,go,450.0,300.0,1.0,,,,,,,,,blue,I
0.0,4.0,4.0,0.0,5.0,5.0,467.5692420000814,5.0,1.0,phase_2,go,450.0,300.0,1.0,,,,,,,,,cyan,diamond
0.0,5.0,1.0,1.0,5.0,5.0,538.9313370001219,5.0,1.0,phase_2,stop,450.0,300.0,3.0,,,,,,,,,white,square
0.0,8.0,4.0,1.0,6.0,0.0,0.0,5.0,1.0,phase_2,stop,400.0,300.0,4.0,,,,,,,,,yellow,circle
0.0,5.0,1.0,1.0,6.0,0.0,0.0,5.0,1.0,phase_2,stop,400.0,350.0,4.0,,,,,,,,,white,square
0.0,4.0,4.0,0.0,5.0,5.0,701.7300970001088,5.0,1.0,phase_2,go,400.0,400.0,1.0,,,,,,,,,cyan,diamond
0.0,5.0,1.0,1.0,5.0,5.0,645.3778919999422,5.0,1.0,phase_2,go,400.0,400.0,1.0,,,,,,,,,white,square
0.0,6.0,2.0,1.0,6.0,6.0,392.9852569999639,5.0,1.0,phase_2,stop,400.0,400.0,3.0,,,,,,,,,magenta,cross
0.0,1.0,1.0,0.0,5.0,5.0,627.6072369996655,5.0,1.0,phase_2,go,400.0,350.0,1.0,,,,,,,,,blue,I
0.0,6.0,2.0,1.0,6.0,0.0,0.0,5.0,1.0,phase_2,stop,400.0,350.0,4.0,,,,,,,,,magenta,cross
0.0,3.0,3.0,0.0,6.0,6.0,627.1567080002569,5.0,1.0,phase_2,go,400.0,400.0,1.0,,,,,,,,,orange,flipped triangle
0.0,2.0,2.0,0.0,6.0,6.0,410.7829869999477,5.0,1.0,phase_2,go,400.0,400.0,1.0,,,,,,,,,gray,hexagon
0.0,6.0,2.0,1.0,5.0,0.0,0.0,5.0,1.0,phase_2,stop,400.0,400.0,4.0,,,,,,,,,magenta,cross
0.0,1.0,1.0,0.0,5.0,5.0,626.2333030003902,5.0,1.0,phase_2,go,450.0,400.0,1.0,,,,,,,,,blue,I
0.0,3.0,3.0,0.0,6.0,6.0,592.9862989996764,5.0,1.0,phase_2,go,450.0,400.0,1.0,,,,,,,,,orange,flipped triangle
0.0,2.0,2.0,0.0,5.0,5.0,609.1710659998171,5.0,1.0,phase_2,go,450.0,400.0,1.0,,,,,,,,,gray,hexagon
0.0,7.0,3.0,1.0,5.0,5.0,923.4042670000237,6.0,1.0,phase_2,stop,450.0,400.0,3.0,,,,,,,,,green,triangle
0.0,2.0,2.0,0.0,6.0,6.0,728.6199049999595,6.0,1.0,phase_2,go,400.0,400.0,1.0,,,,,,,,,gray,hexagon
0.0,5.0,1.0,1.0,6.0,6.0,438.9000449996274,6.0,1.0,phase_2,stop,400.0,400.0,3.0,,,,,,,,,white,square
0.0,2.0,2.0,0.0,5.0,5.0,598.6235720001787,6.0,1.0,phase_2,go,400.0,350.0,1.0,,,,,,,,,gray,hexagon
0.0,7.0,3.0,1.0,5.0,5.0,595.5405539998537,6.0,1.0,phase_2,stop,400.0,350.0,3.0,,,,,,,,,green,triangle
0.0,7.0,3.0,1.0,6.0,0.0,0.0,6.0,1.0,phase_2,stop,350.0,350.0,4.0,,,,,,,,,green,triangle
0.0,2.0,2.0,0.0,6.0,6.0,663.5161419999349,6.0,1.0,phase_2,go,350.0,400.0,1.0,,,,,,,,,gray,hexagon
0.0,3.0,3.0,0.0,6.0,6.0,588.0336320001334,6.0,1.0,phase_2,go,350.0,400.0,1.0,,,,,,,,,orange,flipped triangle
0.0,1.0,1.0,0.0,6.0,6.0,607.1837550002783,6.0,1.0,phase_2,go,350.0,400.0,1.0,,,,,,,,,blue,I
0.0,5.0,1.0,1.0,6.0,6.0,534.0659610001239,6.0,1.0,phase_2,stop,350.0,400.0,3.0,,,,,,,,,white,square
0.0,3.0,3.0,0.0,5.0,5.0,768.3589359999132,6.0,1.0,phase_2,go,350.0,350.0,1.0,,,,,,,,,orange,flipped triangle
0.0,1.0,1.0,0.0,6.0,6.0,765.3699549996418,6.0,1.0,phase_2,go,350.0,350.0,1.0,,,,,,,,,blue,I
0.0,2.0,2.0,0.0,5.0,5.0,450.1096030003282,6.0,1.0,phase_2,go,350.0,350.0,1.0,,,,,,,,,gray,hexagon
0.0,6.0,2.0,1.0,5.0,5.0,598.0173110001488,6.0,1.0,phase_2,go,350.0,350.0,1.0,,,,,,,,,magenta,cross
0.0,5.0,1.0,1.0,6.0,0.0,0.0,6.0,1.0,phase_2,stop,350.0,350.0,4.0,,,,,,,,,white,square
0.0,8.0,4.0,1.0,6.0,0.0,0.0,6.0,1.0,phase_2,stop,350.0,400.0,4.0,,,,,,,,,yellow,circle
0.0,3.0,3.0,0.0,6.0,6.0,811.7680219997965,6.0,1.0,phase_2,go,350.0,450.0,1.0,,,,,,,,,orange,flipped triangle
0.0,3.0,3.0,0.0,5.0,5.0,625.2148059998035,6.0,1.0,phase_2,go,350.0,450.0,1.0,,,,,,,,,orange,flipped triangle
0.0,3.0,3.0,0.0,6.0,6.0,374.4798170000649,6.0,1.0,phase_2,go,350.0,450.0,1.0,,,,,,,,,orange,flipped triangle
0.0,5.0,1.0,1.0,5.0,0.0,0.0,6.0,1.0,phase_2,stop,350.0,450.0,4.0,,,,,,,,,white,square
0.0,2.0,2.0,0.0,6.0,6.0,722.1075959996597,6.0,1.0,phase_2,go,400.0,450.0,1.0,,,,,,,,,gray,hexagon
0.0,7.0,3.0,1.0,5.0,5.0,644.8276619998978,6.0,1.0,phase_2,go,400.0,450.0,1.0,,,,,,,,,green,triangle
0.0,3.0,3.0,0.0,5.0,5.0,663.6742440000489,6.0,1.0,phase_2,go,400.0,450.0,1.0,,,,,,,,,orange,flipped triangle
0.0,4.0,4.0,0.0,5.0,5.0,516.9923080002263,6.0,1.0,phase_2,go,400.0,450.0,1.0,,,,,,,,,cyan,diamond
0.0,4.0,4.0,0.0,5.0,5.0,617.802711999957,6.0,1.0,phase_2,go,400.0,450.0,1.0,,,,,,,,,cyan,diamond
0.0,1.0,1.0,0.0,5.0,5.0,468.0619169998863,6.0,1.0,phase_2,go,400.0,450.0,1.0,,,,,,,,,blue,I
0.0,7.0,3.0,1.0,5.0,5.0,567.0274899998731,6.0,1.0,phase_2,go,400.0,450.0,1.0,,,,,,,,,green,triangle
0.0,8.0,4.0,1.0,5.0,5.0,445.0545439999587,6.0,1.0,phase_2,stop,400.0,450.0,3.0,,,,,,,,,yellow,circle
0.0,5.0,1.0,1.0,5.0,0.0,0.0,6.0,1.0,phase_2,stop,350.0,450.0,4.0,,,,,,,,,white,square
0.0,2.0,2.0,0.0,5.0,5.0,761.0566690000269,6.0,1.0,phase_2,go,400.0,450.0,1.0,,,,,,,,,gray,hexagon
0.0,4.0,4.0,0.0,6.0,6.0,653.2470079996529,6.0,1.0,phase_2,go,400.0,450.0,1.0,,,,,,,,,cyan,diamond
0.0,6.0,2.0,1.0,6.0,0.0,0.0,6.0,1.0,phase_2,stop,400.0,450.0,4.0,,,,,,,,,magenta,cross
0.0,1.0,1.0,0.0,6.0,6.0,803.0145680004352,6.0,1.0,phase_2,go,400.0,500.0,1.0,,,,,,,,,blue,I
0.0,4.0,4.0,0.0,5.0,5.0,662.6848780001637,6.0,1.0,phase_2,go,400.0,500.0,1.0,,,,,,,,,cyan,diamond
0.0,1.0,1.0,0.0,5.0,5.0,682.6273739998214,6.0,1.0,phase_2,go,400.0,500.0,1.0,,,,,,,,,blue,I
0.0,1.0,1.0,0.0,5.0,5.0,813.3071090001067,6.0,1.0,phase_2,go,400.0,500.0,1.0,,,,,,,,,blue,I
0.0,5.0,1.0,1.0,6.0,0.0,0.0,7.0,1.0,phase_2,stop,400.0,500.0,4.0,,,,,,,,,white,square
0.0,2.0,2.0,0.0,6.0,6.0,600.7594640000207,7.0,1.0,phase_2,go,400.0,550.0,1.0,,,,,,,,,gray,hexagon
0.0,8.0,4.0,1.0,6.0,6.0,543.1744620000245,7.0,1.0,phase_2,stop,400.0,550.0,3.0,,,,,,,,,yellow,circle
0.0,5.0,1.0,1.0,5.0,0.0,0.0,7.0,1.0,phase_2,stop,400.0,500.0,4.0,,,,,,,,,white,square
0.0,3.0,3.0,0.0,6.0,6.0,580.8146140002464,7.0,1.0,phase_2,go,450.0,500.0,1.0,,,,,,,,,orange,flipped triangle
0.0,3.0,3.0,0.0,6.0,6.0,582.2472380000363,7.0,1.0,phase_2,go,450.0,500.0,1.0,,,,,,,,,orange,flipped triangle
0.0,1.0,1.0,0.0,6.0,6.0,526.1049229998207,7.0,1.0,phase_2,go,450.0,500.0,1.0,,,,,,,,,blue,I
0.0,3.0,3.0,0.0,5.0,5.0,393.3107830002882,7.0,1.0,phase_2,go,450.0,500.0,1.0,,,,,,,,,orange,flipped triangle
0.0,8.0,4.0,1.0,6.0,6.0,384.0761380001822,7.0,1.0,phase_2,go,450.0,500.0,1.0,,,,,,,,,yellow,circle
0.0,6.0,2.0,1.0,5.0,5.0,495.2607099999113,7.0,1.0,phase_2,stop,450.0,500.0,3.0,,,,,,,,,magenta,cross
0.0,8.0,4.0,1.0,6.0,6.0,450.3009279997059,7.0,1.0,phase_2,go,400.0,500.0,1.0,,,,,,,,,yellow,circle
0.0,4.0,4.0,0.0,6.0,6.0,533.9827030002198,7.0,1.0,phase_2,go,400.0,500.0,1.0,,,,,,,,,cyan,diamond
0.0,2.0,2.0,0.0,6.0,6.0,626.6850490001161,7.0,1.0,phase_2,go,400.0,500.0,1.0,,,,,,,,,gray,hexagon
0.0,7.0,3.0,1.0,5.0,5.0,374.473855999895,7.0,1.0,phase_2,stop,400.0,500.0,3.0,,,,,,,,,green,triangle
0.0,4.0,4.0,0.0,6.0,6.0,795.6972400002087,7.0,1.0,phase_2,go,350.0,500.0,1.0,,,,,,,,,cyan,diamond
0.0,5.0,1.0,1.0,5.0,5.0,570.4010190002009,7.0,1.0,phase_2,go,350.0,500.0,1.0,,,,,,,,,white,square
0.0,7.0,3.0,1.0,6.0,6.0,559.3079780001062,7.0,1.0,phase_2,stop,350.0,500.0,3.0,,,,,,,,,green,triangle
0.0,7.0,3.0,1.0,5.0,0.0,0.0,7.0,1.0,phase_2,stop,350.0,450.0,4.0,,,,,,,,,green,triangle
0.0,3.0,3.0,0.0,5.0,5.0,665.2714760002709,7.0,1.0,phase_2,go,400.0,450.0,1.0,,,,,,,,,orange,flipped triangle
0.0,3.0,3.0,0.0,5.0,5.0,702.0432690001144,7.0,1.0,phase_2,go,400.0,450.0,1.0,,,,,,,,,orange,flipped triangle
0.0,1.0,1.0,0.0,5.0,5.0,523.6883010002202,7.0,1.0,phase_2,go,400.0,450.0,1.0,,,,,,,,,blue,I
0.0,2.0,2.0,0.0,6.0,6.0,739.662447000228,7.0,1.0,phase_2,go,400.0,450.0,1.0,,,,,,,,,gray,hexagon
0.0,7.0,3.0,1.0,5.0,0.0,0.0,7.0,1.0,phase_2,stop,400.0,450.0,4.0,,,,,,,,,green,triangle
0.0,4.0,4.0,0.0,5.0,5.0,664.9629309999909,7.0,1.0,phase_2,go,450.0,450.0,1.0,,,,,,,,,cyan,diamond
0.0,8.0,4.0,1.0,6.0,6.0,748.7517750000734,7.0,1.0,phase_2,go,450.0,450.0,1.0,,,,,,,,,yellow,circle
0.0,4.0,4.0,0.0,6.0,6.0,683.4445949998553,7.0,1.0,phase_2,go,450.0,450.0,1.0,,,,,,,,,cyan,diamond
0.0,3.0,3.0,0.0,6.0,6.0,739.8466190002182,7.0,1.0,phase_2,go,450.0,450.0,1.0,,,,,,,,,orange,flipped triangle
0.0,2.0,2.0,0.0,5.0,5.0,552.5959050000893,7.0,1.0,phase_2,go,450.0,450.0,1.0,,,,,,,,,gray,hexagon
0.0,2.0,2.0,0.0,5.0,5.0,403.5524769997209,7.0,1.0,phase_2,go,450.0,450.0,1.0,,,,,,,,,gray,hexagon
0.0,1.0,1.0,0.0,6.0,6.0,561.3171690001764,7.0,1.0,phase_2,go,450.0,450.0,1.0,,,,,,,,,blue,I
0.0,6.0,2.0,1.0,5.0,5.0,392.1139540002514,7.0,1.0,phase_2,go,450.0,450.0,1.0,,,,,,,,,magenta,cross
0.0,7.0,3.0,1.0,5.0,5.0,392.4076510002123,7.0,1.0,phase_2,stop,450.0,450.0,3.0,,,,,,,,,green,triangle
0.0,1.0,1.0,0.0,6.0,6.0,486.8801849997908,7.0,1.0,phase_2,go,400.0,450.0,1.0,,,,,,,,,blue,I
0.0,5.0,1.0,1.0,6.0,6.0,515.4216000000815,7.0,1.0,phase_2,stop,400.0,450.0,3.0,,,,,,,,,white,square
0.0,6.0,2.0,1.0,6.0,6.0,717.354984999929,7.0,1.0,phase_2,go,400.0,400.0,1.0,,,,,,,,,magenta,cross
0.0,8.0,4.0,1.0,6.0,0.0,0.0,7.0,1.0,phase_2,stop,400.0,400.0,4.0,,,,,,,,,yellow,circle
0.0,3.0,3.0,0.0,5.0,5.0,979.2231530000208,8.0,1.0,phase_2,go,400.0,450.0,1.0,,,,,,,,,orange,flipped triangle
0.0,2.0,2.0,0.0,5.0,5.0,568.0611319999116,8.0,1.0,phase_2,go,400.0,450.0,1.0,,,,,,,,,gray,hexagon
0.0,8.0,4.0,1.0,5.0,5.0,420.761568999751,8.0,1.0,phase_2,go,400.0,450.0,1.0,,,,,,,,,yellow,circle
0.0,4.0,4.0,0.0,6.0,6.0,439.331865999975,8.0,1.0,phase_2,go,400.0,450.0,1.0,,,,,,,,,cyan,diamond
0.0,3.0,3.0,0.0,5.0,5.0,465.8238089996303,8.0,1.0,phase_2,go,400.0,450.0,1.0,,,,,,,,,orange,flipped triangle
0.0,2.0,2.0,0.0,6.0,6.0,364.318390000335,8.0,1.0,phase_2,go,400.0,450.0,1.0,,,,,,,,,gray,hexagon
0.0,3.0,3.0,0.0,5.0,5.0,346.8994100003328,8.0,1.0,phase_2,go,400.0,450.0,1.0,,,,,,,,,orange,flipped triangle
0.0,2.0,2.0,0.0,5.0,5.0,524.6725530000731,8.0,1.0,phase_2,go,400.0,450.0,1.0,,,,,,,,,gray,hexagon
0.0,3.0,3.0,0.0,5.0,5.0,578.9662379997935,8.0,1.0,phase_2,go,400.0,450.0,1.0,,,,,,,,,orange,flipped triangle
0.0,6.0,2.0,1.0,6.0,6.0,566.6119180000351,8.0,1.0,phase_2,stop,400.0,450.0,3.0,,,,,,,,,magenta,cross
0.0,7.0,3.0,1.0,6.0,6.0,559.8870970002281,8.0,1.0,phase_2,go,400.0,400.0,1.0,,,,,,,,,green,triangle
0.0,7.0,3.0,1.0,5.0,5.0,514.6772190000775,8.0,1.0,phase_2,go,400.0,400.0,1.0,,,,,,,,,green,triangle
0.0,4.0,4.0,0.0,6.0,6.0,671.9974059997185,8.0,1.0,phase_2,go,400.0,400.0,1.0,,,,,,,,,cyan,diamond
0.0,2.0,2.0,0.0,6.0,6.0,430.5355420001433,8.0,1.0,phase_2,go,400.0,400.0,1.0,,,,,,,,,gray,hexagon
0.0,5.0,1.0,1.0,6.0,6.0,482.87049999999,8.0,1.0,phase_2,stop,400.0,400.0,3.0,,,,,,,,,white,square
0.0,8.0,4.0,1.0,5.0,0.0,0.0,8.0,1.0,phase_2,stop,400.0,350.0,4.0,,,,,,,,,yellow,circle
0.0,4.0,4.0,0.0,6.0,6.0,600.3483259996756,8.0,1.0,phase_2,go,450.0,350.0,1.0,,,,,,,,,cyan,diamond
0.0,6.0,2.0,1.0,6.0,6.0,483.0929069999001,8.0,1.0,phase_2,stop,450.0,350.0,3.0,,,,,,,,,magenta,cross
0.0,4.0,4.0,0.0,5.0,5.0,552.1171539999159,8.0,1.0,phase_2,go,450.0,300.0,1.0,,,,,,,,,cyan,diamond
0.0,6.0,2.0,1.0,5.0,5.0,574.0097190000597,8.0,1.0,phase_2,stop,450.0,300.0,3.0,,,,,,,,,magenta,cross
0.0,5.0,1.0,1.0,6.0,6.0,403.6659059997873,8.0,1.0,phase_2,stop,400.0,300.0,3.0,,,,,,,,,white,square
0.0,8.0,4.0,1.0,6.0,6.0,663.1541270003254,8.0,1.0,phase_2,go,400.0,250.0,1.0,,,,,,,,,yellow,circle
0.0,2.0,2.0,0.0,6.0,6.0,625.370722000298,8.0,1.0,phase_2,go,400.0,250.0,1.0,,,,,,,,,gray,hexagon
0.0,3.0,3.0,0.0,6.0,6.0,383.1007420003516,8.0,1.0,phase_2,go,400.0,250.0,1.0,,,,,,,,,orange,flipped triangle
0.0,7.0,3.0,1.0,6.0,6.0,466.3669890001074,8.0,1.0,phase_2,stop,400.0,250.0,3.0,,,,,,,,,green,triangle
0.0,8.0,4.0,1.0,5.0,0.0,0.0,8.0,1.0,phase_2,stop,400.0,200.0,4.0,,,,,,,,,yellow,circle
0.0,2.0,2.0,0.0,5.0,5.0,643.6229139999341,8.0,1.0,phase_2,go,450.0,200.0,1.0,,,,,,,,,gray,hexagon
0.0,5.0,1.0,1.0,5.0,5.0,580.1925740001934,8.0,1.0,phase_2,stop,450.0,200.0,3.0,,,,,,,,,white,square
0.0,3.0,3.0,0.0,5.0,5.0,785.3422039997895,8.0,1.0,phase_2,go,400.0,200.0,1.0,,,,,,,,,orange,flipped triangle
0.0,1.0,1.0,0.0,6.0,6.0,616.1069409999982,8.0,1.0,phase_2,go,400.0,200.0,1.0,,,,,,,,,blue,I
0.0,6.0,2.0,1.0,5.0,5.0,557.2120990000258,8.0,1.0,phase_2,stop,400.0,200.0,3.0,,,,,,,,,magenta,cross
0.0,1.0,1.0,0.0,5.0,5.0,926.0316160002732,8.0,1.0,phase_2,go,350.0,200.0,1.0,,,,,,,,,blue,I
0.0,5.0,1.0,1.0,5.0,0.0,0.0,8.0,1.0,phase_2,stop,350.0,200.0,4.0,,,,,,,,,white,square
0.0,7.0,3.0,1.0,6.0,6.0,384.9185399999442,8.0,1.0,phase_2,go,400.0,200.0,1.0,,,,,,,,,green,triangle
0.0,1.0,1.0,0.0,5.0,5.0,646.2059269997553,8.0,1.0,phase_2,go,400.0,200.0,1.0,,,,,,,,,blue,I
0.0,2.0,2.0,0.0,6.0,6.0,504.92455899984634,8.0,1.0,phase_2,go,400.0,200.0,1.0,,,,,,,,,gray,hexagon
0.0,6.0,2.0,1.0,7.0,5.0,2976.4073020005526,1.0,1.0,phase_3,,,,,924.0,6.0,616.0,308.0,462.0,154.0,924.0,770.0,magenta,cross
0.0,2.0,2.0,0.0,7.0,4.0,1868.2527589999156,1.0,1.0,phase_3,,,,,405.0,3.0,810.0,540.0,675.0,405.0,270.0,135.0,gray,hexagon
0.0,8.0,4.0,1.0,7.0,1.0,55.8948289999534,1.0,1.0,phase_3,,,,,540.0,4.0,540.0,135.0,810.0,675.0,405.0,270.0,yellow,circle
0.0,5.0,1.0,1.0,7.0,2.0,2750.56695100011,1.0,1.0,phase_3,,,,,232.0,2.0,580.0,232.0,348.0,696.0,116.0,464.0,white,square
0.0,7.0,3.0,1.0,7.0,6.0,1439.7440949996962,1.0,1.0,phase_3,,,,,116.0,1.0,580.0,696.0,464.0,348.0,232.0,116.0,green,triangle
0.0,3.0,3.0,0.0,7.0,3.0,1335.6351590000486,1.0,1.0,phase_3,,,,,308.0,2.0,616.0,462.0,308.0,154.0,924.0,770.0,orange,flipped triangle
0.0,1.0,1.0,0.0,7.0,3.0,1151.1482309997518,1.0,1.0,phase_3,,,,,154.0,1.0,308.0,616.0,154.0,924.0,770.0,462.0,blue,I
0.0,1.0,1.0,0.0,7.0,5.0,1475.673187000211,1.0,1.0,phase_3,,,,,270.0,2.0,405.0,135.0,540.0,810.0,270.0,675.0,blue,I
0.0,3.0,3.0,0.0,7.0,3.0,1148.1112219998977,1.0,1.0,phase_3,,,,,692.0,4.0,1038.0,519.0,692.0,865.0,173.0,346.0,orange,flipped triangle
0.0,2.0,2.0,0.0,7.0,5.0,844.2472699998689,1.0,1.0,phase_3,,,,,116.0,1.0,696.0,348.0,464.0,232.0,116.0,580.0,gray,hexagon
0.0,4.0,4.0,0.0,7.0,5.0,2127.1541710002566,1.0,1.0,phase_3,,,,,1152.0,6.0,960.0,192.0,576.0,768.0,1152.0,384.0,cyan,diamond
0.0,3.0,3.0,0.0,7.0,2.0,1382.025396999779,1.0,1.0,phase_3,,,,,308.0,2.0,924.0,308.0,770.0,462.0,616.0,154.0,orange,flipped triangle
0.0,6.0,2.0,1.0,7.0,3.0,2504.5683959997405,1.0,1.0,phase_3,,,,,810.0,6.0,135.0,270.0,810.0,405.0,540.0,675.0,magenta,cross
0.0,7.0,3.0,1.0,7.0,3.0,2428.5797410002488,1.0,1.0,phase_3,,,,,692.0,4.0,173.0,519.0,692.0,346.0,865.0,1038.0,green,triangle
0.0,8.0,4.0,1.0,7.0,3.0,1861.4844459998492,1.0,1.0,phase_3,,,,,405.0,3.0,540.0,135.0,405.0,675.0,810.0,270.0,yellow,circle
0.0,7.0,3.0,1.0,7.0,5.0,1335.391929999787,1.0,1.0,phase_3,,,,,770.0,5.0,924.0,154.0,462.0,616.0,770.0,308.0,green,triangle
0.0,7.0,3.0,1.0,7.0,2.0,1805.449112999668,1.0,1.0,phase_3,,,,,616.0,4.0,462.0,616.0,924.0,154.0,308.0,770.0,green,triangle
0.0,6.0,2.0,1.0,7.0,3.0,1169.5135259997187,1.0,1.0,phase_3,,,,,865.0,5.0,173.0,692.0,865.0,519.0,346.0,1038.0,magenta,cross
0.0,1.0,1.0,0.0,7.0,3.0,1329.7543539993055,1.0,1.0,phase_3,,,,,696.0,6.0,580.0,464.0,696.0,348.0,232.0,116.0,blue,I
0.0,6.0,2.0,1.0,7.0,3.0,1189.48048799939,1.0,1.0,phase_3,,,,,696.0,6.0,580.0,464.0,696.0,348.0,232.0,116.0,magenta,cross
0.0,6.0,2.0,1.0,7.0,5.0,1837.883154999872,2.0,1.0,phase_3,,,,,770.0,5.0,616.0,154.0,462.0,308.0,770.0,924.0,magenta,cross
0.0,6.0,2.0,1.0,7.0,5.0,1402.7863869996509,2.0,1.0,phase_3,,,,,865.0,5.0,692.0,1038.0,346.0,173.0,865.0,519.0,magenta,cross
0.0,8.0,4.0,1.0,7.0,4.0,743.0370259999108,2.0,1.0,phase_3,,,,,616.0,4.0,924.0,154.0,462.0,616.0,308.0,770.0,yellow,circle
0.0,4.0,4.0,0.0,7.0,2.0,1028.6442239994358,2.0,1.0,phase_3,,,,,696.0,6.0,232.0,696.0,116.0,580.0,464.0,348.0,cyan,diamond
0.0,8.0,4.0,1.0,7.0,3.0,1194.874357000117,2.0,1.0,phase_3,,,,,192.0,1.0,768.0,960.0,192.0,384.0,576.0,1152.0,yellow,circle
0.0,2.0,2.0,0.0,7.0,3.0,1732.685371999651,2.0,1.0,phase_3,,,,,346.0,2.0,1038.0,692.0,346.0,865.0,173.0,519.0,gray,hexagon
0.0,3.0,3.0,0.0,7.0,3.0,1354.681435999737,2.0,1.0,phase_3,,,,,865.0,5.0,1038.0,173.0,865.0,346.0,692.0,519.0,orange,flipped triangle
0.0,4.0,4.0,0.0,7.0,4.0,975.1387890000842,2.0,1.0,phase_3,,,,,270.0,2.0,540.0,675.0,405.0,270.0,135.0,810.0,cyan,diamond
0.0,2.0,2.0,0.0,7.0,5.0,974.6128460001272,2.0,1.0,phase_3,,,,,692.0,4.0,346.0,519.0,1038.0,865.0,692.0,173.0,gray,hexagon
0.0,6.0,2.0,1.0,7.0,3.0,2132.9952420001064,2.0,1.0,phase_3,,,,,810.0,6.0,405.0,675.0,810.0,270.0,540.0,135.0,magenta,cross
0.0,7.0,3.0,1.0,7.0,3.0,1202.6894110003925,2.0,1.0,phase_3,,,,,270.0,2.0,540.0,675.0,270.0,135.0,405.0,810.0,green,triangle
0.0,5.0,1.0,1.0,7.0,3.0,1182.1867239996209,2.0,1.0,phase_3,,,,,1152.0,6.0,576.0,192.0,1152.0,960.0,384.0,768.0,white,square
0.0,2.0,2.0,0.0,7.0,4.0,899.5215250006368,2.0,1.0,phase_3,,,,,462.0,3.0,616.0,924.0,770.0,462.0,154.0,308.0,gray,hexagon
0.0,4.0,4.0,0.0,7.0,3.0,798.1497880000461,2.0,1.0,phase_3,,,,,540.0,4.0,405.0,270.0,540.0,135.0,810.0,675.0,cyan,diamond
0.0,1.0,1.0,0.0,7.0,6.0,899.5508729994981,2.0,1.0,phase_3,,,,,173.0,1.0,519.0,1038.0,692.0,865.0,346.0,173.0,blue,I
0.0,1.0,1.0,0.0,7.0,1.0,817.1205890002966,2.0,1.0,phase_3,,,,,116.0,1.0,116.0,348.0,232.0,580.0,696.0,464.0,blue,I
0.0,2.0,2.0,0.0,7.0,3.0,1031.3135550004515,2.0,1.0,phase_3,,,,,1152.0,6.0,768.0,384.0,1152.0,576.0,192.0,960.0,gray,hexagon
0.0,6.0,2.0,1.0,7.0,3.0,715.2593529999649,2.0,1.0,phase_3,,,,,192.0,1.0,576.0,960.0,192.0,1152.0,384.0,768.0,magenta,cross
0.0,1.0,1.0,0.0,7.0,3.0,1486.439154999971,2.0,1.0,phase_3,,,,,540.0,4.0,270.0,405.0,540.0,135.0,675.0,810.0,blue,I
0.0,7.0,3.0,1.0,7.0,3.0,1167.847110999901,2.0,1.0,phase_3,,,,,675.0,5.0,810.0,270.0,675.0,135.0,540.0,405.0,green,triangle
0.0,5.0,1.0,1.0,7.0,3.0,1152.0138400001088,3.0,1.0,phase_3,,,,,540.0,4.0,810.0,675.0,540.0,135.0,270.0,405.0,white,square
0.0,1.0,1.0,0.0,7.0,6.0,584.9796779993994,3.0,1.0,phase_3,,,,,770.0,5.0,924.0,616.0,462.0,308.0,154.0,770.0,blue,I
0.0,7.0,3.0,1.0,7.0,3.0,715.2469080001538,3.0,1.0,phase_3,,,,,192.0,1.0,960.0,1152.0,192.0,576.0,768.0,384.0,green,triangle
0.0,2.0,2.0,0.0,7.0,4.0,921.6885249998086,3.0,1.0,phase_3,,,,,768.0,4.0,960.0,576.0,192.0,768.0,1152.0,384.0,gray,hexagon
0.0,5.0,1.0,1.0,7.0,3.0,1168.4847700007597,3.0,1.0,phase_3,,,,,616.0,4.0,770.0,462.0,616.0,154.0,308.0,924.0,white,square
0.0,3.0,3.0,0.0,7.0,3.0,1421.5023079996172,3.0,1.0,phase_3,,,,,384.0,2.0,960.0,192.0,384.0,1152.0,768.0,576.0,orange,flipped triangle
0.0,6.0,2.0,1.0,7.0,5.0,1297.943843000212,3.0,1.0,phase_3,,,,,960.0,5.0,576.0,192.0,384.0,1152.0,960.0,768.0,magenta,cross
0.0,4.0,4.0,0.0,7.0,4.0,1038.195583999368,3.0,1.0,phase_3,,,,,116.0,1.0,348.0,464.0,232.0,116.0,696.0,580.0,cyan,diamond
0.0,4.0,4.0,0.0,7.0,4.0,1354.99463799988,3.0,1.0,phase_3,,,,,519.0,3.0,346.0,865.0,1038.0,519.0,692.0,173.0,cyan,diamond
0.0,8.0,4.0,1.0,7.0,1.0,1260.660774999451,3.0,1.0,phase_3,,,,,173.0,1.0,173.0,865.0,692.0,346.0,1038.0,519.0,yellow,circle
0.0,8.0,4.0,1.0,7.0,1.0,612.2098150008242,3.0,1.0,phase_3,,,,,232.0,2.0,232.0,116.0,580.0,348.0,464.0,696.0,yellow,circle
0.0,5.0,1.0,1.0,7.0,4.0,1797.1523870000965,3.0,1.0,phase_3,,,,,346.0,2.0,865.0,519.0,692.0,346.0,173.0,1038.0,white,square
0.0,7.0,3.0,1.0,7.0,5.0,924.1605099996376,3.0,1.0,phase_3,,,,,576.0,3.0,192.0,960.0,1152.0,384.0,576.0,768.0,green,triangle
0.0,6.0,2.0,1.0,7.0,5.0,1151.3531130003685,3.0,1.0,phase_3,,,,,696.0,6.0,464.0,116.0,232.0,580.0,696.0,348.0,magenta,cross
0.0,8.0,4.0,1.0,7.0,2.0,1882.7127069998824,3.0,1.0,phase_3,,,,,192.0,1.0,960.0,192.0,768.0,576.0,1152.0,384.0,yellow,circle
0.0,5.0,1.0,1.0,7.0,4.0,1309.32213899996,3.0,1.0,phase_3,,,,,346.0,2.0,865.0,692.0,173.0,346.0,1038.0,519.0,white,square
0.0,8.0,4.0,1.0,7.0,2.0,816.2066470003992,3.0,1.0,phase_3,,,,,116.0,1.0,696.0,116.0,464.0,348.0,232.0,580.0,yellow,circle
0.0,7.0,3.0,1.0,7.0,3.0,1542.0667660000618,3.0,1.0,phase_3,,,,,464.0,4.0,348.0,580.0,464.0,116.0,232.0,696.0,green,triangle
0.0,4.0,4.0,0.0,7.0,3.0,918.5121299997264,3.0,1.0,phase_3,,,,,1038.0,6.0,519.0,692.0,1038.0,346.0,173.0,865.0,cyan,diamond
0.0,8.0,4.0,1.0,7.0,3.0,798.2678309999756,3.0,1.0,phase_3,,,,,1038.0,6.0,692.0,346.0,1038.0,865.0,519.0,173.0,yellow,circle
0.0,1.0,1.0,0.0,7.0,6.0,556.8417699996644,4.0,1.0,phase_3,,,,,1038.0,6.0,692.0,865.0,346.0,519.0,173.0,1038.0,blue,I
0.0,1.0,1.0,0.0,7.0,4.0,1437.5051319993872,4.0,1.0,phase_3,,,,,384.0,2.0,960.0,576.0,768.0,384.0,1152.0,192.0,blue,I
0.0,3.0,3.0,0.0,7.0,5.0,1595.0980039997376,4.0,1.0,phase_3,,,,,960.0,5.0,384.0,1152.0,576.0,768.0,960.0,192.0,orange,flipped triangle
0.0,2.0,2.0,0.0,7.0,3.0,1021.534215000429,4.0,1.0,phase_3,,,,,810.0,6.0,135.0,270.0,810.0,540.0,405.0,675.0,gray,hexagon
0.0,5.0,1.0,1.0,7.0,2.0,1391.7359609995399,4.0,1.0,phase_3,,,,,232.0,2.0,696.0,232.0,348.0,116.0,580.0,464.0,white,square
0.0,8.0,4.0,1.0,7.0,3.0,706.3814339999226,4.0,1.0,phase_3,,,,,770.0,5.0,616.0,924.0,770.0,154.0,462.0,308.0,yellow,circle
0.0,3.0,3.0,0.0,7.0,4.0,1092.1179349998056,4.0,1.0,phase_3,,,,,540.0,4.0,405.0,810.0,135.0,540.0,675.0,270.0,orange,flipped triangle
0.0,4.0,4.0,0.0,7.0,1.0,1168.058702000053,4.0,1.0,phase_3,,,,,616.0,4.0,616.0,154.0,308.0,770.0,462.0,924.0,cyan,diamond
0.0,5.0,1.0,1.0,7.0,4.0,1243.9528180002526,4.0,1.0,phase_3,,,,,154.0,1.0,770.0,924.0,462.0,154.0,308.0,616.0,white,square
0.0,1.0,1.0,0.0,7.0,6.0,817.5699539997368,4.0,1.0,phase_3,,,,,960.0,5.0,768.0,384.0,1152.0,192.0,576.0,960.0,blue,I
0.0,3.0,3.0,0.0,7.0,3.0,861.8086790002053,4.0,1.0,phase_3,,,,,348.0,3.0,232.0,580.0,348.0,696.0,464.0,116.0,orange,flipped triangle
0.0,2.0,2.0,0.0,7.0,3.0,1455.9294029995726,4.0,1.0,phase_3,,,,,308.0,2.0,924.0,154.0,308.0,462.0,770.0,616.0,gray,hexagon
0.0,5.0,1.0,1.0,7.0,4.0,2212.3824319996857,4.0,1.0,phase_3,,,,,135.0,1.0,405.0,675.0,270.0,135.0,540.0,810.0,white,square
0.0,4.0,4.0,0.0,7.0,3.0,1645.5886369994914,4.0,1.0,phase_3,,,,,924.0,6.0,154.0,462.0,924.0,616.0,308.0,770.0,cyan,diamond
0.0,5.0,1.0,1.0,7.0,3.0,1096.8656169998212,4.0,1.0,phase_3,,,,,768.0,4.0,960.0,1152.0,768.0,384.0,192.0,576.0,white,square
0.0,3.0,3.0,0.0,7.0,3.0,1208.1518400000275,4.0,1.0,phase_3,,,,,540.0,4.0,810.0,405.0,540.0,270.0,135.0,675.0,orange,flipped triangle
0.0,3.0,3.0,0.0,7.0,4.0,1122.9269710001972,4.0,1.0,phase_3,,,,,464.0,4.0,348.0,232.0,116.0,464.0,580.0,696.0,orange,flipped triangle
0.0,7.0,3.0,1.0,7.0,4.0,2033.241203000216,4.0,1.0,phase_3,,,,,1038.0,6.0,865.0,519.0,692.0,1038.0,346.0,173.0,green,triangle
0.0,4.0,4.0,0.0,7.0,3.0,1912.424484999974,4.0,1.0,phase_3,,,,,768.0,4.0,384.0,576.0,768.0,192.0,960.0,1152.0,cyan,diamond
0.0,2.0,2.0,0.0,7.0,3.0,1372.4616850004168,4.0,1.0,phase_3,,,,,232.0,2.0,116.0,580.0,232.0,464.0,348.0,696.0,gray,hexagon
