raw_reward_magnitude,stim_reward,stepwise_reward_magnitude,paired_with_stopping,stim_location,response,reaction_time,block,num_trial_presentations,which_phase,stop_signal_trial_type,left_SSD,right_SSD,accuracy,chosen_bidding_amount,chosen_bidding_level,possible_bid_1,possible_bid_2,possible_bid_3,possible_bid_4,possible_bid_5,possible_bid_6,color_text,shape_text
0.0,6.0,0.0,1.0,3.0,3.0,493.6333460000242,1.0,1.0,phase_1,,,,,,,,,,,,,blue,hexagon
0.0,8.0,0.0,1.0,4.0,4.0,593.6995269998988,1.0,1.0,phase_1,,,,,,,,,,,,,white,triangle
0.0,3.0,0.0,0.0,4.0,4.0,493.1646469999577,1.0,1.0,phase_1,,,,,,,,,,,,,cyan,I
1282.0,8.0,4.0,1.0,4.0,4.0,416.9174890002978,1.0,1.0,phase_1,,,,,,,,,,,,,white,triangle
0.0,5.0,0.0,1.0,2.0,2.0,370.4845979996207,1.0,1.0,phase_1,,,,,,,,,,,,,yellow,diamond
0.0,3.0,0.0,0.0,3.0,3.0,400.6673909998426,1.0,1.0,phase_1,,,,,,,,,,,,,cyan,I
171.0,1.0,0.5,0.0,4.0,4.0,232.4058919998606,1.0,1.0,phase_1,,,,,,,,,,,,,magenta,square
0.0,5.0,0.0,1.0,1.0,1.0,447.1486239999649,1.0,3.0,phase_1,,,,,,,,,,,,,yellow,diamond
628.0,3.0,2.0,0.0,4.0,4.0,391.5506439998353,1.0,1.0,phase_1,,,,,,,,,,,,,cyan,I
306.0,2.0,1.0,0.0,4.0,4.0,484.4335640000281,1.0,1.0,phase_1,,,,,,,,,,,,,green,flipped triangle
645.0,3.0,2.0,0.0,3.0,3.0,334.528968000086,1.0,1.0,phase_1,,,,,,,,,,,,,cyan,I
335.0,6.0,1.0,1.0,3.0,3.0,324.2491290002363,1.0,2.0,phase_1,,,,,,,,,,,,,blue,hexagon
140.0,5.0,0.5,1.0,4.0,4.0,269.251703000009,1.0,1.0,phase_1,,,,,,,,,,,,,yellow,diamond
306.0,6.0,1.0,1.0,2.0,2.0,408.3081349999702,1.0,1.0,phase_1,,,,,,,,,,,,,blue,hexagon
1300.0,8.0,4.0,1.0,4.0,4.0,269.5783680001113,1.0,1.0,phase_1,,,,,,,,,,,,,white,triangle
1311.0,8.0,4.0,1.0,3.0,3.0,306.4133349998883,1.0,1.0,phase_1,,,,,,,,,,,,,white,triangle
1317.0,8.0,4.0,1.0,2.0,2.0,327.583198999946,1.0,1.0,phase_1,,,,,,,,,,,,,white,triangle
165.0,5.0,0.5,1.0,2.0,2.0,337.6409289999174,1.0,1.0,phase_1,,,,,,,,,,,,,yellow,diamond
0.0,1.0,0.0,0.0,2.0,2.0,343.2957810000516,1.0,1.0,phase_1,,,,,,,,,,,,,magenta,square
0.0,5.0,0.0,1.0,2.0,2.0,315.692386000137,1.0,1.0,phase_1,,,,,,,,,,,,,yellow,diamond
330.0,2.0,1.0,0.0,2.0,2.0,352.2060929999497,1.0,1.0,phase_1,,,,,,,,,,,,,green,flipped triangle
0.0,7.0,0.0,1.0,4.0,4.0,343.7867989996448,1.0,1.0,phase_1,,,,,,,,,,,,,orange,cross
0.0,1.0,0.0,0.0,1.0,1.0,492.6794449997942,1.0,1.0,phase_1,,,,,,,,,,,,,magenta,square
644.0,7.0,2.0,1.0,2.0,2.0,250.1148779997493,1.0,1.0,phase_1,,,,,,,,,,,,,orange,cross
653.0,3.0,2.0,0.0,1.0,1.0,510.1424149997911,1.0,1.0,phase_1,,,,,,,,,,,,,cyan,I
165.0,1.0,0.5,0.0,4.0,4.0,380.2193270003045,1.0,1.0,phase_1,,,,,,,,,,,,,magenta,square
176.0,1.0,0.5,0.0,1.0,1.0,501.29689899995356,1.0,1.0,phase_1,,,,,,,,,,,,,magenta,square
630.0,3.0,2.0,0.0,4.0,4.0,418.0415050000192,1.0,1.0,phase_1,,,,,,,,,,,,,cyan,I
0.0,2.0,0.0,0.0,2.0,2.0,287.2034080000958,1.0,1.0,phase_1,,,,,,,,,,,,,green,flipped triangle
163.0,5.0,0.5,1.0,4.0,4.0,342.7178649999405,1.0,1.0,phase_1,,,,,,,,,,,,,yellow,diamond
1301.0,8.0,4.0,1.0,4.0,4.0,334.5214720002332,1.0,1.0,phase_1,,,,,,,,,,,,,white,triangle
661.0,7.0,2.0,1.0,4.0,4.0,342.6593410003988,1.0,1.0,phase_1,,,,,,,,,,,,,orange,cross
186.0,5.0,0.5,1.0,4.0,4.0,371.602888000325,1.0,1.0,phase_1,,,,,,,,,,,,,yellow,diamond
626.0,7.0,2.0,1.0,1.0,1.0,408.4014289996958,1.0,1.0,phase_1,,,,,,,,,,,,,orange,cross
0.0,6.0,0.0,1.0,2.0,2.0,360.4263849997551,1.0,1.0,phase_1,,,,,,,,,,,,,blue,hexagon
0.0,8.0,0.0,1.0,1.0,1.0,305.3626529999746,1.0,2.0,phase_1,,,,,,,,,,,,,white,triangle
324.0,2.0,1.0,0.0,4.0,4.0,278.0454240000836,1.0,1.0,phase_1,,,,,,,,,,,,,green,flipped triangle
634.0,3.0,2.0,0.0,2.0,2.0,305.4955819998213,1.0,1.0,phase_1,,,,,,,,,,,,,cyan,I
147.0,1.0,0.5,0.0,2.0,2.0,314.6698109999306,1.0,1.0,phase_1,,,,,,,,,,,,,magenta,square
142.0,5.0,0.5,1.0,2.0,2.0,287.796993000029,1.0,1.0,phase_1,,,,,,,,,,,,,yellow,diamond
1291.0,8.0,4.0,1.0,2.0,2.0,314.7759380003663,1.0,1.0,phase_1,,,,,,,,,,,,,white,triangle
628.0,7.0,2.0,1.0,2.0,2.0,231.1595140004101,1.0,1.0,phase_1,,,,,,,,,,,,,orange,cross
656.0,7.0,2.0,1.0,2.0,2.0,296.7839130001266,1.0,1.0,phase_1,,,,,,,,,,,,,orange,cross
0.0,3.0,0.0,0.0,4.0,4.0,400.0549010002032,1.0,1.0,phase_1,,,,,,,,,,,,,cyan,I
0.0,7.0,0.0,1.0,4.0,4.0,371.0327569997389,1.0,1.0,phase_1,,,,,,,,,,,,,orange,cross
1325.0,4.0,4.0,0.0,3.0,3.0,417.5267040000108,1.0,1.0,phase_1,,,,,,,,,,,,,gray,circle
1301.0,4.0,4.0,0.0,1.0,1.0,268.6896699997305,1.0,1.0,phase_1,,,,,,,,,,,,,gray,circle
640.0,7.0,2.0,1.0,1.0,1.0,324.1659689997505,1.0,1.0,phase_1,,,,,,,,,,,,,orange,cross
329.0,2.0,1.0,0.0,2.0,2.0,362.0166990003781,1.0,1.0,phase_1,,,,,,,,,,,,,green,flipped triangle
141.0,5.0,0.5,1.0,3.0,3.0,232.1414739999454,1.0,1.0,phase_1,,,,,,,,,,,,,yellow,diamond
0.0,4.0,0.0,0.0,2.0,2.0,250.4467610001484,1.0,1.0,phase_1,,,,,,,,,,,,,gray,circle
1279.0,8.0,4.0,1.0,1.0,1.0,333.176411000295,1.0,1.0,phase_1,,,,,,,,,,,,,white,triangle
327.0,2.0,1.0,0.0,3.0,3.0,298.3027079999374,1.0,2.0,phase_1,,,,,,,,,,,,,green,flipped triangle
648.0,7.0,2.0,1.0,4.0,4.0,556.4567080000415,1.0,1.0,phase_1,,,,,,,,,,,,,orange,cross
1295.0,4.0,4.0,0.0,2.0,2.0,649.7367999995731,1.0,1.0,phase_1,,,,,,,,,,,,,gray,circle
642.0,7.0,2.0,1.0,3.0,3.0,390.2308270003232,1.0,1.0,phase_1,,,,,,,,,,,,,orange,cross
145.0,5.0,0.5,1.0,2.0,2.0,491.9214899996404,1.0,2.0,phase_1,,,,,,,,,,,,,yellow,diamond
0.0,4.0,0.0,0.0,2.0,2.0,288.3462129998406,1.0,1.0,phase_1,,,,,,,,,,,,,gray,circle
144.0,5.0,0.5,1.0,1.0,1.0,333.8794450000932,1.0,1.0,phase_1,,,,,,,,,,,,,yellow,diamond
1277.0,4.0,4.0,0.0,2.0,2.0,307.3410869997133,1.0,1.0,phase_1,,,,,,,,,,,,,gray,circle
183.0,5.0,0.5,1.0,2.0,2.0,296.490642000208,1.0,1.0,phase_1,,,,,,,,,,,,,yellow,diamond
1319.0,8.0,4.0,1.0,3.0,3.0,332.6148149999426,1.0,1.0,phase_1,,,,,,,,,,,,,white,triangle
673.0,7.0,2.0,1.0,2.0,2.0,370.9100439996291,1.0,1.0,phase_1,,,,,,,,,,,,,orange,cross
346.0,6.0,1.0,1.0,3.0,3.0,332.0678630002476,1.0,1.0,phase_1,,,,,,,,,,,,,blue,hexagon
143.0,5.0,0.5,1.0,2.0,2.0,277.9536670000198,1.0,1.0,phase_1,,,,,,,,,,,,,yellow,diamond
0.0,8.0,0.0,1.0,4.0,4.0,444.1286039996157,1.0,1.0,phase_1,,,,,,,,,,,,,white,triangle
1294.0,4.0,4.0,0.0,1.0,1.0,297.8103509999528,1.0,2.0,phase_1,,,,,,,,,,,,,gray,circle
1313.0,8.0,4.0,1.0,3.0,3.0,407.2701430000052,1.0,1.0,phase_1,,,,,,,,,,,,,white,triangle
326.0,2.0,1.0,0.0,1.0,1.0,324.8588290002772,1.0,1.0,phase_1,,,,,,,,,,,,,green,flipped triangle
637.0,3.0,2.0,0.0,2.0,2.0,407.5872880002862,1.0,1.0,phase_1,,,,,,,,,,,,,cyan,I
0.0,8.0,0.0,1.0,1.0,1.0,297.6374660001966,1.0,1.0,phase_1,,,,,,,,,,,,,white,triangle
340.0,2.0,1.0,0.0,3.0,3.0,345.1056119997702,1.0,1.0,phase_1,,,,,,,,,,,,,green,flipped triangle
0.0,4.0,0.0,0.0,2.0,2.0,260.5092889998559,1.0,1.0,phase_1,,,,,,,,,,,,,gray,circle
175.0,5.0,0.5,1.0,1.0,1.0,344.7561859998131,1.0,2.0,phase_1,,,,,,,,,,,,,yellow,diamond
638.0,7.0,2.0,1.0,2.0,2.0,334.1553100003693,1.0,1.0,phase_1,,,,,,,,,,,,,orange,cross
0.0,7.0,0.0,1.0,2.0,2.0,334.3546709998009,1.0,1.0,phase_1,,,,,,,,,,,,,orange,cross
1297.0,4.0,4.0,0.0,4.0,4.0,270.212927999637,1.0,2.0,phase_1,,,,,,,,,,,,,gray,circle
665.0,3.0,2.0,0.0,4.0,4.0,288.2067219998134,1.0,1.0,phase_1,,,,,,,,,,,,,cyan,I
329.0,6.0,1.0,1.0,4.0,4.0,391.8875179997485,1.0,1.0,phase_1,,,,,,,,,,,,,blue,hexagon
171.0,1.0,0.5,0.0,2.0,2.0,426.1185230002411,1.0,1.0,phase_1,,,,,,,,,,,,,magenta,square
1308.0,8.0,4.0,1.0,2.0,2.0,260.4954480002561,1.0,1.0,phase_1,,,,,,,,,,,,,white,triangle
1295.0,8.0,4.0,1.0,1.0,1.0,354.8758739998447,1.0,1.0,phase_1,,,,,,,,,,,,,white,triangle
327.0,2.0,1.0,0.0,4.0,4.0,362.3527059999105,1.0,1.0,phase_1,,,,,,,,,,,,,green,flipped triangle
311.0,2.0,1.0,0.0,4.0,4.0,345.2531879997877,1.0,1.0,phase_1,,,,,,,,,,,,,green,flipped triangle
661.0,3.0,2.0,0.0,1.0,1.0,416.7437179999069,1.0,1.0,phase_1,,,,,,,,,,,,,cyan,I
180.0,5.0,0.5,1.0,1.0,1.0,299.0422040002158,1.0,1.0,phase_1,,,,,,,,,,,,,yellow,diamond
145.0,1.0,0.5,0.0,3.0,3.0,289.1352470001038,1.0,2.0,phase_1,,,,,,,,,,,,,magenta,square
142.0,1.0,0.5,0.0,1.0,1.0,459.1655559997889,1.0,1.0,phase_1,,,,,,,,,,,,,magenta,square
326.0,6.0,1.0,1.0,1.0,1.0,390.6425109998963,1.0,1.0,phase_1,,,,,,,,,,,,,blue,hexagon
0.0,6.0,0.0,1.0,4.0,4.0,566.7968180000571,1.0,1.0,phase_1,,,,,,,,,,,,,blue,hexagon
334.0,6.0,1.0,1.0,2.0,2.0,398.4603849999075,1.0,1.0,phase_1,,,,,,,,,,,,,blue,hexagon
345.0,2.0,1.0,0.0,4.0,4.0,427.6964739997311,1.0,1.0,phase_1,,,,,,,,,,,,,green,flipped triangle
653.0,7.0,2.0,1.0,4.0,4.0,381.6712990001178,1.0,1.0,phase_1,,,,,,,,,,,,,orange,cross
659.0,7.0,2.0,1.0,4.0,4.0,390.1494439996895,1.0,1.0,phase_1,,,,,,,,,,,,,orange,cross
168.0,5.0,0.5,1.0,4.0,4.0,417.2647500004132,1.0,1.0,phase_1,,,,,,,,,,,,,yellow,diamond
673.0,7.0,2.0,1.0,3.0,3.0,371.2086919999819,1.0,1.0,phase_1,,,,,,,,,,,,,orange,cross
0.0,4.0,0.0,0.0,1.0,1.0,314.6945100002085,1.0,2.0,phase_1,,,,,,,,,,,,,gray,circle
0.0,5.0,0.0,1.0,2.0,2.0,407.8673680000975,1.0,1.0,phase_1,,,,,,,,,,,,,yellow,diamond
0.0,2.0,0.0,0.0,4.0,4.0,445.5620590001672,1.0,1.0,phase_1,,,,,,,,,,,,,green,flipped triangle
0.0,6.0,0.0,1.0,2.0,2.0,444.9389880001035,1.0,1.0,phase_1,,,,,,,,,,,,,blue,hexagon
0.0,8.0,0.0,1.0,4.0,4.0,381.456676000198,2.0,1.0,phase_1,,,,,,,,,,,,,white,triangle
655.0,3.0,2.0,0.0,2.0,2.0,289.9904690002586,2.0,1.0,phase_1,,,,,,,,,,,,,cyan,I
0.0,2.0,0.0,0.0,2.0,2.0,446.2748390001252,2.0,2.0,phase_1,,,,,,,,,,,,,green,flipped triangle
304.0,2.0,1.0,0.0,4.0,4.0,501.23254199979783,2.0,1.0,phase_1,,,,,,,,,,,,,green,flipped triangle
1306.0,4.0,4.0,0.0,2.0,2.0,463.3446130001175,2.0,1.0,phase_1,,,,,,,,,,,,,gray,circle
340.0,6.0,1.0,1.0,1.0,1.0,566.8475050001689,2.0,1.0,phase_1,,,,,,,,,,,,,blue,hexagon
346.0,2.0,1.0,0.0,3.0,3.0,399.2502940000122,2.0,1.0,phase_1,,,,,,,,,,,,,green,flipped triangle
311.0,6.0,1.0,1.0,1.0,1.0,492.3069500000565,2.0,1.0,phase_1,,,,,,,,,,,,,blue,hexagon
169.0,1.0,0.5,0.0,4.0,4.0,583.9313989999937,2.0,1.0,phase_1,,,,,,,,,,,,,magenta,square
304.0,6.0,1.0,1.0,3.0,3.0,473.6765590000686,2.0,1.0,phase_1,,,,,,,,,,,,,blue,hexagon
651.0,7.0,2.0,1.0,1.0,1.0,473.1731459996808,2.0,1.0,phase_1,,,,,,,,,,,,,orange,cross
0.0,8.0,0.0,1.0,1.0,1.0,388.6975109999184,2.0,1.0,phase_1,,,,,,,,,,,,,white,triangle
304.0,2.0,1.0,0.0,3.0,3.0,390.7275940000545,2.0,1.0,phase_1,,,,,,,,,,,,,green,flipped triangle
1312.0,4.0,4.0,0.0,1.0,1.0,594.9519619998682,2.0,1.0,phase_1,,,,,,,,,,,,,gray,circle
145.0,5.0,0.5,1.0,1.0,1.0,444.2092350000166,2.0,1.0,phase_1,,,,,,,,,,,,,yellow,diamond
153.0,5.0,0.5,1.0,1.0,1.0,351.2798810002095,2.0,1.0,phase_1,,,,,,,,,,,,,yellow,diamond
650.0,7.0,2.0,1.0,3.0,3.0,371.221869999772,2.0,1.0,phase_1,,,,,,,,,,,,,orange,cross
145.0,1.0,0.5,0.0,2.0,2.0,418.2822660000056,2.0,1.0,phase_1,,,,,,,,,,,,,magenta,square
659.0,3.0,2.0,0.0,3.0,3.0,305.8291529996495,2.0,1.0,phase_1,,,,,,,,,,,,,cyan,I
185.0,1.0,0.5,0.0,1.0,1.0,333.3264699999745,2.0,1.0,phase_1,,,,,,,,,,,,,magenta,square
304.0,6.0,1.0,1.0,4.0,4.0,352.2044229998755,2.0,1.0,phase_1,,,,,,,,,,,,,blue,hexagon
1297.0,4.0,4.0,0.0,4.0,4.0,410.3314919998411,2.0,1.0,phase_1,,,,,,,,,,,,,gray,circle
309.0,2.0,1.0,0.0,3.0,3.0,305.6754040003397,2.0,1.0,phase_1,,,,,,,,,,,,,green,flipped triangle
0.0,7.0,0.0,1.0,4.0,4.0,296.7878690001271,2.0,2.0,phase_1,,,,,,,,,,,,,orange,cross
340.0,6.0,1.0,1.0,1.0,1.0,333.3982890003426,2.0,2.0,phase_1,,,,,,,,,,,,,blue,hexagon
312.0,2.0,1.0,0.0,3.0,3.0,346.1906520001321,2.0,1.0,phase_1,,,,,,,,,,,,,green,flipped triangle
1289.0,4.0,4.0,0.0,3.0,3.0,362.2081399998933,2.0,1.0,phase_1,,,,,,,,,,,,,gray,circle
345.0,6.0,1.0,1.0,4.0,4.0,492.9356409998036,2.0,1.0,phase_1,,,,,,,,,,,,,blue,hexagon
148.0,5.0,0.5,1.0,3.0,3.0,351.8807750001542,2.0,1.0,phase_1,,,,,,,,,,,,,yellow,diamond
650.0,3.0,2.0,0.0,4.0,4.0,455.3927580000163,2.0,1.0,phase_1,,,,,,,,,,,,,cyan,I
312.0,2.0,1.0,0.0,1.0,1.0,381.1505849998866,2.0,1.0,phase_1,,,,,,,,,,,,,green,flipped triangle
1285.0,8.0,4.0,1.0,4.0,4.0,298.0293509999683,2.0,1.0,phase_1,,,,,,,,,,,,,white,triangle
1308.0,4.0,4.0,0.0,4.0,4.0,278.7621679999574,2.0,1.0,phase_1,,,,,,,,,,,,,gray,circle
176.0,5.0,0.5,1.0,3.0,3.0,399.7141859999829,2.0,1.0,phase_1,,,,,,,,,,,,,yellow,diamond
656.0,7.0,2.0,1.0,3.0,3.0,277.9917930001829,2.0,1.0,phase_1,,,,,,,,,,,,,orange,cross
168.0,1.0,0.5,0.0,4.0,4.0,410.0286080001751,2.0,1.0,phase_1,,,,,,,,,,,,,magenta,square
634.0,7.0,2.0,1.0,1.0,1.0,436.8136279999817,2.0,1.0,phase_1,,,,,,,,,,,,,orange,cross
630.0,7.0,2.0,1.0,1.0,1.0,334.6815680001782,2.0,1.0,phase_1,,,,,,,,,,,,,orange,cross
648.0,3.0,2.0,0.0,1.0,1.0,298.0510990000766,2.0,1.0,phase_1,,,,,,,,,,,,,cyan,I
163.0,1.0,0.5,0.0,2.0,2.0,298.4782789999372,2.0,2.0,phase_1,,,,,,,,,,,,,magenta,square
176.0,5.0,0.5,1.0,3.0,3.0,436.9177389999095,2.0,1.0,phase_1,,,,,,,,,,,,,yellow,diamond
305.0,2.0,1.0,0.0,4.0,4.0,464.159871999982,2.0,1.0,phase_1,,,,,,,,,,,,,green,flipped triangle
649.0,7.0,2.0,1.0,4.0,4.0,288.0611800001134,2.0,1.0,phase_1,,,,,,,,,,,,,orange,cross
1286.0,4.0,4.0,0.0,2.0,2.0,389.7478369999589,2.0,1.0,phase_1,,,,,,,,,,,,,gray,circle
159.0,1.0,0.5,0.0,3.0,3.0,241.731123000136,2.0,1.0,phase_1,,,,,,,,,,,,,magenta,square
327.0,6.0,1.0,1.0,3.0,3.0,372.4102820001462,2.0,1.0,phase_1,,,,,,,,,,,,,blue,hexagon
0.0,2.0,0.0,0.0,2.0,2.0,399.4343609997486,2.0,1.0,phase_1,,,,,,,,,,,,,green,flipped triangle
0.0,6.0,0.0,1.0,2.0,2.0,407.6639470004011,2.0,1.0,phase_1,,,,,,,,,,,,,blue,hexagon
640.0,3.0,2.0,0.0,3.0,3.0,314.9376289998145,2.0,1.0,phase_1,,,,,,,,,,,,,cyan,I
1312.0,8.0,4.0,1.0,2.0,2.0,420.0436250002894,2.0,1.0,phase_1,,,,,,,,,,,,,white,triangle
674.0,7.0,2.0,1.0,2.0,2.0,297.6523930001349,2.0,1.0,phase_1,,,,,,,,,,,,,orange,cross
1311.0,4.0,4.0,0.0,3.0,3.0,437.2467859998323,2.0,1.0,phase_1,,,,,,,,,,,,,gray,circle
1277.0,4.0,4.0,0.0,3.0,3.0,260.7789069998034,2.0,1.0,phase_1,,,,,,,,,,,,,gray,circle
1281.0,8.0,4.0,1.0,4.0,4.0,407.5680470000407,2.0,1.0,phase_1,,,,,,,,,,,,,white,triangle
0.0,3.0,0.0,0.0,2.0,2.0,426.5017210000223,2.0,1.0,phase_1,,,,,,,,,,,,,cyan,I
0.0,1.0,0.0,0.0,2.0,2.0,343.0395530003807,2.0,1.0,phase_1,,,,,,,,,,,,,magenta,square
309.0,6.0,1.0,1.0,4.0,4.0,269.5530169999074,2.0,1.0,phase_1,,,,,,,,,,,,,blue,hexagon
301.0,2.0,1.0,0.0,1.0,1.0,315.5373159997907,2.0,2.0,phase_1,,,,,,,,,,,,,green,flipped triangle
0.0,1.0,0.0,0.0,3.0,3.0,353.9204620001328,2.0,1.0,phase_1,,,,,,,,,,,,,magenta,square
1313.0,8.0,4.0,1.0,2.0,2.0,435.526321999987,2.0,1.0,phase_1,,,,,,,,,,,,,white,triangle
183.0,1.0,0.5,0.0,3.0,3.0,305.888947999847,2.0,1.0,phase_1,,,,,,,,,,,,,magenta,square
1301.0,8.0,4.0,1.0,3.0,3.0,251.94919699970342,2.0,1.0,phase_1,,,,,,,,,,,,,white,triangle
1297.0,8.0,4.0,1.0,2.0,2.0,306.946465999772,2.0,1.0,phase_1,,,,,,,,,,,,,white,triangle
1305.0,4.0,4.0,0.0,2.0,2.0,380.1056809998044,2.0,1.0,phase_1,,,,,,,,,,,,,gray,circle
187.0,1.0,0.5,0.0,3.0,3.0,343.8045829998373,2.0,1.0,phase_1,,,,,,,,,,,,,magenta,square
318.0,2.0,1.0,0.0,4.0,4.0,362.6906790000248,2.0,1.0,phase_1,,,,,,,,,,,,,green,flipped triangle
644.0,3.0,2.0,0.0,4.0,4.0,437.0228349998797,2.0,1.0,phase_1,,,,,,,,,,,,,cyan,I
186.0,1.0,0.5,0.0,1.0,1.0,445.3162150002754,2.0,1.0,phase_1,,,,,,,,,,,,,magenta,square
0.0,7.0,0.0,1.0,4.0,4.0,473.0131710002752,2.0,1.0,phase_1,,,,,,,,,,,,,orange,cross
0.0,3.0,0.0,0.0,4.0,4.0,297.4795850000191,2.0,1.0,phase_1,,,,,,,,,,,,,cyan,I
342.0,6.0,1.0,1.0,4.0,4.0,296.4766029999737,2.0,1.0,phase_1,,,,,,,,,,,,,blue,hexagon
1281.0,4.0,4.0,0.0,3.0,3.0,492.1612519997325,2.0,1.0,phase_1,,,,,,,,,,,,,gray,circle
626.0,3.0,2.0,0.0,4.0,4.0,314.911667999695,2.0,1.0,phase_1,,,,,,,,,,,,,cyan,I
651.0,3.0,2.0,0.0,3.0,3.0,380.0154639998254,2.0,1.0,phase_1,,,,,,,,,,,,,cyan,I
0.0,6.0,0.0,1.0,2.0,2.0,334.2611960001704,2.0,2.0,phase_1,,,,,,,,,,,,,blue,hexagon
346.0,6.0,1.0,1.0,1.0,1.0,501.86992699991606,2.0,1.0,phase_1,,,,,,,,,,,,,blue,hexagon
142.0,1.0,0.5,0.0,1.0,1.0,361.0828560003938,2.0,1.0,phase_1,,,,,,,,,,,,,magenta,square
636.0,3.0,2.0,0.0,1.0,1.0,288.0741799999669,2.0,1.0,phase_1,,,,,,,,,,,,,cyan,I
148.0,1.0,0.5,0.0,2.0,2.0,388.1157870000606,2.0,2.0,phase_1,,,,,,,,,,,,,magenta,square
0.0,2.0,0.0,0.0,2.0,2.0,429.4794580000598,2.0,1.0,phase_1,,,,,,,,,,,,,green,flipped triangle
147.0,5.0,0.5,1.0,2.0,2.0,343.7997900000482,2.0,1.0,phase_1,,,,,,,,,,,,,yellow,diamond
305.0,6.0,1.0,1.0,4.0,4.0,399.7436539998489,2.0,1.0,phase_1,,,,,,,,,,,,,blue,hexagon
303.0,6.0,1.0,1.0,4.0,4.0,361.6974500000651,2.0,1.0,phase_1,,,,,,,,,,,,,blue,hexagon
645.0,7.0,2.0,1.0,4.0,4.0,418.7466569997013,2.0,1.0,phase_1,,,,,,,,,,,,,orange,cross
159.0,1.0,0.5,0.0,3.0,3.0,555.8908779999001,2.0,1.0,phase_1,,,,,,,,,,,,,magenta,square
654.0,3.0,2.0,0.0,1.0,1.0,371.4109050001752,2.0,2.0,phase_1,,,,,,,,,,,,,cyan,I
1324.0,8.0,4.0,1.0,3.0,3.0,334.1993989997718,2.0,1.0,phase_1,,,,,,,,,,,,,white,triangle
1280.0,8.0,4.0,1.0,2.0,2.0,380.7175619999725,2.0,1.0,phase_1,,,,,,,,,,,,,white,triangle
675.0,7.0,2.0,1.0,4.0,4.0,519.1400019998582,2.0,1.0,phase_1,,,,,,,,,,,,,orange,cross
312.0,6.0,1.0,1.0,2.0,2.0,416.9549769999321,2.0,1.0,phase_1,,,,,,,,,,,,,blue,hexagon
0.0,6.0,0.0,1.0,3.0,3.0,362.8520460001709,2.0,1.0,phase_1,,,,,,,,,,,,,blue,hexagon
633.0,7.0,2.0,1.0,3.0,3.0,362.4749569999039,2.0,1.0,phase_1,,,,,,,,,,,,,orange,cross
0.0,5.0,0.0,1.0,3.0,3.0,334.5162519999576,2.0,1.0,phase_1,,,,,,,,,,,,,yellow,diamond
334.0,2.0,1.0,0.0,2.0,2.0,315.0361259999954,2.0,1.0,phase_1,,,,,,,,,,,,,green,flipped triangle
162.0,1.0,0.5,0.0,2.0,2.0,316.2270779998835,2.0,1.0,phase_1,,,,,,,,,,,,,magenta,square
342.0,6.0,1.0,1.0,3.0,3.0,389.8164639999777,2.0,1.0,phase_1,,,,,,,,,,,,,blue,hexagon
653.0,3.0,2.0,0.0,2.0,2.0,371.0460130000683,2.0,1.0,phase_1,,,,,,,,,,,,,cyan,I
323.0,6.0,1.0,1.0,2.0,2.0,286.7558090001694,2.0,1.0,phase_1,,,,,,,,,,,,,blue,hexagon
186.0,5.0,0.5,1.0,4.0,4.0,399.0310140002293,2.0,1.0,phase_1,,,,,,,,,,,,,yellow,diamond
1277.0,8.0,4.0,1.0,3.0,3.0,380.9096310001223,2.0,1.0,phase_1,,,,,,,,,,,,,white,triangle
159.0,5.0,0.5,1.0,4.0,4.0,426.6425630003141,3.0,1.0,phase_1,,,,,,,,,,,,,yellow,diamond
317.0,6.0,1.0,1.0,2.0,2.0,380.5502909999632,3.0,2.0,phase_1,,,,,,,,,,,,,blue,hexagon
0.0,5.0,0.0,1.0,1.0,1.0,456.587770000624,3.0,1.0,phase_1,,,,,,,,,,,,,yellow,diamond
0.0,7.0,0.0,1.0,1.0,1.0,353.1910389992845,3.0,1.0,phase_1,,,,,,,,,,,,,orange,cross
673.0,3.0,2.0,0.0,3.0,3.0,482.8568450002422,3.0,1.0,phase_1,,,,,,,,,,,,,cyan,I
1301.0,4.0,4.0,0.0,1.0,1.0,648.956146999808,3.0,1.0,phase_1,,,,,,,,,,,,,gray,circle
0.0,1.0,0.0,0.0,4.0,4.0,457.5152100005653,3.0,1.0,phase_1,,,,,,,,,,,,,magenta,square
0.0,8.0,0.0,1.0,3.0,3.0,381.0190670001248,3.0,1.0,phase_1,,,,,,,,,,,,,white,triangle
343.0,6.0,1.0,1.0,3.0,3.0,362.7292290002515,3.0,1.0,phase_1,,,,,,,,,,,,,blue,hexagon
180.0,5.0,0.5,1.0,1.0,1.0,407.3892559999876,3.0,1.0,phase_1,,,,,,,,,,,,,yellow,diamond
1312.0,8.0,4.0,1.0,1.0,1.0,361.5285869991567,3.0,1.0,phase_1,,,,,,,,,,,,,white,triangle
0.0,5.0,0.0,1.0,2.0,2.0,306.1665189998166,3.0,2.0,phase_1,,,,,,,,,,,,,yellow,diamond
0.0,1.0,0.0,0.0,3.0,3.0,326.5449340005943,3.0,1.0,phase_1,,,,,,,,,,,,,magenta,square
346.0,2.0,1.0,0.0,4.0,4.0,491.7245560000083,3.0,1.0,phase_1,,,,,,,,,,,,,green,flipped triangle
1315.0,4.0,4.0,0.0,3.0,3.0,425.5547820002903,3.0,1.0,phase_1,,,,,,,,,,,,,gray,circle
151.0,5.0,0.5,1.0,1.0,1.0,379.3270180003674,3.0,1.0,phase_1,,,,,,,,,,,,,yellow,diamond
327.0,6.0,1.0,1.0,4.0,4.0,315.2307820000715,3.0,1.0,phase_1,,,,,,,,,,,,,blue,hexagon
180.0,1.0,0.5,0.0,4.0,4.0,314.9930899999162,3.0,1.0,phase_1,,,,,,,,,,,,,magenta,square
152.0,5.0,0.5,1.0,4.0,4.0,278.6967620004361,3.0,1.0,phase_1,,,,,,,,,,,,,yellow,diamond
301.0,2.0,1.0,0.0,3.0,3.0,343.4504840006411,3.0,1.0,phase_1,,,,,,,,,,,,,green,flipped triangle
1323.0,4.0,4.0,0.0,1.0,1.0,342.743788000007,3.0,1.0,phase_1,,,,,,,,,,,,,gray,circle
0.0,4.0,0.0,0.0,3.0,3.0,344.1067559997464,3.0,1.0,phase_1,,,,,,,,,,,,,gray,circle
633.0,3.0,2.0,0.0,4.0,4.0,369.9019749992658,3.0,1.0,phase_1,,,,,,,,,,,,,cyan,I
152.0,1.0,0.5,0.0,1.0,1.0,316.2634460004483,3.0,2.0,phase_1,,,,,,,,,,,,,magenta,square
0.0,7.0,0.0,1.0,1.0,1.0,316.0718410008485,3.0,1.0,phase_1,,,,,,,,,,,,,orange,cross
171.0,5.0,0.5,1.0,2.0,2.0,361.9680600004358,3.0,1.0,phase_1,,,,,,,,,,,,,yellow,diamond
338.0,6.0,1.0,1.0,2.0,2.0,546.6517649992966,3.0,1.0,phase_1,,,,,,,,,,,,,blue,hexagon
1309.0,8.0,4.0,1.0,4.0,4.0,315.8816210006989,3.0,1.0,phase_1,,,,,,,,,,,,,white,triangle
334.0,2.0,1.0,0.0,2.0,2.0,324.1978930000186,3.0,1.0,phase_1,,,,,,,,,,,,,green,flipped triangle
330.0,6.0,1.0,1.0,1.0,1.0,278.5945860005085,3.0,1.0,phase_1,,,,,,,,,,,,,blue,hexagon
0.0,1.0,0.0,0.0,1.0,1.0,361.4018689995646,3.0,1.0,phase_1,,,,,,,,,,,,,magenta,square
186.0,1.0,0.5,0.0,1.0,1.0,333.5770720004802,3.0,1.0,phase_1,,,,,,,,,,,,,magenta,square
187.0,5.0,0.5,1.0,2.0,2.0,398.0701259997659,3.0,1.0,phase_1,,,,,,,,,,,,,yellow,diamond
142.0,5.0,0.5,1.0,4.0,4.0,343.2725789998585,3.0,1.0,phase_1,,,,,,,,,,,,,yellow,diamond
1306.0,8.0,4.0,1.0,1.0,1.0,371.2551739999981,3.0,1.0,phase_1,,,,,,,,,,,,,white,triangle
1286.0,8.0,4.0,1.0,4.0,4.0,342.8175120006926,3.0,1.0,phase_1,,,,,,,,,,,,,white,triangle
320.0,2.0,1.0,0.0,1.0,1.0,425.83796800045087,3.0,1.0,phase_1,,,,,,,,,,,,,green,flipped triangle
630.0,3.0,2.0,0.0,3.0,3.0,381.0935170004086,3.0,1.0,phase_1,,,,,,,,,,,,,cyan,I
154.0,5.0,0.5,1.0,1.0,1.0,305.5964109998967,3.0,1.0,phase_1,,,,,,,,,,,,,yellow,diamond
649.0,3.0,2.0,0.0,4.0,4.0,351.6236870000284,3.0,1.0,phase_1,,,,,,,,,,,,,cyan,I
0.0,6.0,0.0,1.0,3.0,3.0,363.2669669996176,3.0,1.0,phase_1,,,,,,,,,,,,,blue,hexagon
174.0,5.0,0.5,1.0,3.0,3.0,427.6515530000324,3.0,1.0,phase_1,,,,,,,,,,,,,yellow,diamond
1289.0,8.0,4.0,1.0,1.0,1.0,555.8496769999692,3.0,1.0,phase_1,,,,,,,,,,,,,white,triangle
335.0,2.0,1.0,0.0,3.0,3.0,371.1837179998838,3.0,1.0,phase_1,,,,,,,,,,,,,green,flipped triangle
141.0,1.0,0.5,0.0,1.0,1.0,279.0648700001839,3.0,1.0,phase_1,,,,,,,,,,,,,magenta,square
663.0,7.0,2.0,1.0,2.0,2.0,426.456006999615,3.0,1.0,phase_1,,,,,,,,,,,,,orange,cross
665.0,7.0,2.0,1.0,2.0,2.0,398.5279759999685,3.0,1.0,phase_1,,,,,,,,,,,,,orange,cross
171.0,5.0,0.5,1.0,4.0,4.0,305.4645899992465,3.0,1.0,phase_1,,,,,,,,,,,,,yellow,diamond
663.0,7.0,2.0,1.0,2.0,2.0,409.1084389992829,3.0,1.0,phase_1,,,,,,,,,,,,,orange,cross
1315.0,8.0,4.0,1.0,3.0,3.0,417.752281000503,3.0,1.0,phase_1,,,,,,,,,,,,,white,triangle
663.0,3.0,2.0,0.0,3.0,3.0,345.7861259994388,3.0,1.0,phase_1,,,,,,,,,,,,,cyan,I
1317.0,4.0,4.0,0.0,4.0,4.0,361.6922089995569,3.0,1.0,phase_1,,,,,,,,,,,,,gray,circle
1313.0,4.0,4.0,0.0,2.0,2.0,306.5364270005375,3.0,1.0,phase_1,,,,,,,,,,,,,gray,circle
1324.0,4.0,4.0,0.0,1.0,1.0,377.7613640004347,3.0,1.0,phase_1,,,,,,,,,,,,,gray,circle
338.0,6.0,1.0,1.0,4.0,4.0,250.12213599984528,3.0,2.0,phase_1,,,,,,,,,,,,,blue,hexagon
343.0,2.0,1.0,0.0,2.0,2.0,426.9466929999908,3.0,1.0,phase_1,,,,,,,,,,,,,green,flipped triangle
339.0,2.0,1.0,0.0,1.0,1.0,315.0153859996862,3.0,1.0,phase_1,,,,,,,,,,,,,green,flipped triangle
667.0,3.0,2.0,0.0,2.0,2.0,389.6768389995486,3.0,1.0,phase_1,,,,,,,,,,,,,cyan,I
1302.0,8.0,4.0,1.0,2.0,2.0,482.7989060004256,3.0,1.0,phase_1,,,,,,,,,,,,,white,triangle
642.0,3.0,2.0,0.0,4.0,4.0,408.5143849997621,3.0,1.0,phase_1,,,,,,,,,,,,,cyan,I
320.0,6.0,1.0,1.0,1.0,1.0,333.8260569998965,3.0,1.0,phase_1,,,,,,,,,,,,,blue,hexagon
1312.0,4.0,4.0,0.0,4.0,4.0,389.5966689997294,3.0,1.0,phase_1,,,,,,,,,,,,,gray,circle
0.0,6.0,0.0,1.0,2.0,2.0,416.79389500041,3.0,1.0,phase_1,,,,,,,,,,,,,blue,hexagon
338.0,2.0,1.0,0.0,1.0,1.0,334.6333890003734,3.0,1.0,phase_1,,,,,,,,,,,,,green,flipped triangle
0.0,3.0,0.0,0.0,1.0,1.0,307.5974980001774,3.0,1.0,phase_1,,,,,,,,,,,,,cyan,I
0.0,5.0,0.0,1.0,4.0,4.0,372.6618969994888,3.0,1.0,phase_1,,,,,,,,,,,,,yellow,diamond
1297.0,8.0,4.0,1.0,4.0,4.0,315.2541809995455,3.0,1.0,phase_1,,,,,,,,,,,,,white,triangle
655.0,7.0,2.0,1.0,3.0,3.0,408.3483639997212,3.0,1.0,phase_1,,,,,,,,,,,,,orange,cross
0.0,1.0,0.0,0.0,4.0,4.0,493.1611880001583,3.0,1.0,phase_1,,,,,,,,,,,,,magenta,square
154.0,1.0,0.5,0.0,4.0,4.0,369.9856789999103,3.0,1.0,phase_1,,,,,,,,,,,,,magenta,square
1319.0,4.0,4.0,0.0,3.0,3.0,426.5215300001728,3.0,1.0,phase_1,,,,,,,,,,,,,gray,circle
0.0,2.0,0.0,0.0,2.0,2.0,881.4977120000549,3.0,1.0,phase_1,,,,,,,,,,,,,green,flipped triangle
1306.0,8.0,4.0,1.0,4.0,4.0,453.8493410000228,3.0,1.0,phase_1,,,,,,,,,,,,,white,triangle
663.0,3.0,2.0,0.0,3.0,3.0,344.1077859997676,3.0,2.0,phase_1,,,,,,,,,,,,,cyan,I
175.0,1.0,0.5,0.0,1.0,1.0,464.3401410003207,3.0,1.0,phase_1,,,,,,,,,,,,,magenta,square
673.0,3.0,2.0,0.0,3.0,3.0,390.2353080002285,3.0,1.0,phase_1,,,,,,,,,,,,,cyan,I
321.0,2.0,1.0,0.0,2.0,2.0,344.6053529996788,3.0,1.0,phase_1,,,,,,,,,,,,,green,flipped triangle
1284.0,8.0,4.0,1.0,1.0,1.0,455.098177999389,3.0,1.0,phase_1,,,,,,,,,,,,,white,triangle
169.0,5.0,0.5,1.0,3.0,3.0,352.687187999436,3.0,1.0,phase_1,,,,,,,,,,,,,yellow,diamond
176.0,1.0,0.5,0.0,4.0,4.0,491.3927600000534,3.0,1.0,phase_1,,,,,,,,,,,,,magenta,square
675.0,3.0,2.0,0.0,1.0,1.0,565.4188170001362,3.0,1.0,phase_1,,,,,,,,,,,,,cyan,I
0.0,3.0,0.0,0.0,2.0,2.0,407.2441880007318,3.0,2.0,phase_1,,,,,,,,,,,,,cyan,I
634.0,3.0,2.0,0.0,4.0,4.0,362.2561499996664,3.0,1.0,phase_1,,,,,,,,,,,,,cyan,I
628.0,3.0,2.0,0.0,2.0,2.0,308.1491949997144,3.0,1.0,phase_1,,,,,,,,,,,,,cyan,I
140.0,1.0,0.5,0.0,4.0,4.0,288.3190679995095,3.0,1.0,phase_1,,,,,,,,,,,,,magenta,square
665.0,3.0,2.0,0.0,1.0,1.0,419.4332019997091,3.0,1.0,phase_1,,,,,,,,,,,,,cyan,I
0.0,4.0,0.0,0.0,2.0,2.0,408.4857349998856,3.0,1.0,phase_1,,,,,,,,,,,,,gray,circle
0.0,3.0,0.0,0.0,3.0,3.0,334.7503339991817,3.0,1.0,phase_1,,,,,,,,,,,,,cyan,I
667.0,7.0,2.0,1.0,1.0,1.0,558.1709320003938,3.0,1.0,phase_1,,,,,,,,,,,,,orange,cross
653.0,7.0,2.0,1.0,1.0,1.0,491.5424689997962,3.0,1.0,phase_1,,,,,,,,,,,,,orange,cross
644.0,7.0,2.0,1.0,4.0,4.0,540.0903310001013,3.0,1.0,phase_1,,,,,,,,,,,,,orange,cross
179.0,5.0,0.5,1.0,1.0,1.0,483.610595000755,3.0,1.0,phase_1,,,,,,,,,,,,,yellow,diamond
1282.0,4.0,4.0,0.0,4.0,4.0,305.6883099998231,3.0,1.0,phase_1,,,,,,,,,,,,,gray,circle
1323.0,8.0,4.0,1.0,2.0,2.0,370.9425299994109,3.0,1.0,phase_1,,,,,,,,,,,,,white,triangle
323.0,2.0,1.0,0.0,1.0,1.0,379.0081469996949,3.0,1.0,phase_1,,,,,,,,,,,,,green,flipped triangle
0.0,2.0,0.0,0.0,3.0,3.0,379.8917829999482,3.0,1.0,phase_1,,,,,,,,,,,,,green,flipped triangle
144.0,1.0,0.5,0.0,2.0,2.0,361.198460000196,3.0,1.0,phase_1,,,,,,,,,,,,,magenta,square
1319.0,4.0,4.0,0.0,1.0,1.0,351.7180720000397,3.0,1.0,phase_1,,,,,,,,,,,,,gray,circle
162.0,5.0,0.5,1.0,3.0,3.0,399.2385569999896,3.0,1.0,phase_1,,,,,,,,,,,,,yellow,diamond
306.0,6.0,1.0,1.0,2.0,2.0,332.8995279998707,3.0,1.0,phase_1,,,,,,,,,,,,,blue,hexagon
0.0,7.0,0.0,1.0,2.0,2.0,338.605187000212,4.0,1.0,phase_1,,,,,,,,,,,,,orange,cross
1286.0,8.0,4.0,1.0,1.0,1.0,378.9360479995594,4.0,1.0,phase_1,,,,,,,,,,,,,white,triangle
628.0,7.0,2.0,1.0,3.0,3.0,324.9036340002931,4.0,1.0,phase_1,,,,,,,,,,,,,orange,cross
186.0,1.0,0.5,0.0,4.0,4.0,418.6291109999729,4.0,1.0,phase_1,,,,,,,,,,,,,magenta,square
1313.0,4.0,4.0,0.0,1.0,1.0,344.5340549997127,4.0,2.0,phase_1,,,,,,,,,,,,,gray,circle
1298.0,4.0,4.0,0.0,2.0,2.0,325.2020339996306,4.0,1.0,phase_1,,,,,,,,,,,,,gray,circle
630.0,7.0,2.0,1.0,3.0,3.0,362.6366079997751,4.0,1.0,phase_1,,,,,,,,,,,,,orange,cross
334.0,6.0,1.0,1.0,2.0,2.0,417.5612409999303,4.0,1.0,phase_1,,,,,,,,,,,,,blue,hexagon
344.0,6.0,1.0,1.0,3.0,3.0,482.4278610003603,4.0,1.0,phase_1,,,,,,,,,,,,,blue,hexagon
185.0,5.0,0.5,1.0,2.0,2.0,354.2069659997651,4.0,1.0,phase_1,,,,,,,,,,,,,yellow,diamond
644.0,3.0,2.0,0.0,2.0,2.0,343.2841460007694,4.0,2.0,phase_1,,,,,,,,,,,,,cyan,I
0.0,1.0,0.0,0.0,2.0,2.0,297.7624909999576,4.0,1.0,phase_1,,,,,,,,,,,,,magenta,square
147.0,5.0,0.5,1.0,2.0,2.0,343.6500960006015,4.0,1.0,phase_1,,,,,,,,,,,,,yellow,diamond
340.0,2.0,1.0,0.0,1.0,1.0,353.16842399970477,4.0,1.0,phase_1,,,,,,,,,,,,,green,flipped triangle
665.0,7.0,2.0,1.0,2.0,2.0,333.1512000004295,4.0,1.0,phase_1,,,,,,,,,,,,,orange,cross
140.0,5.0,0.5,1.0,4.0,4.0,380.2887369993186,4.0,3.0,phase_1,,,,,,,,,,,,,yellow,diamond
666.0,3.0,2.0,0.0,1.0,1.0,583.0365749998236,4.0,1.0,phase_1,,,,,,,,,,,,,cyan,I
1299.0,4.0,4.0,0.0,2.0,2.0,305.3378149998025,4.0,1.0,phase_1,,,,,,,,,,,,,gray,circle
159.0,5.0,0.5,1.0,3.0,3.0,433.3439340007317,4.0,1.0,phase_1,,,,,,,,,,,,,yellow,diamond
179.0,1.0,0.5,0.0,3.0,3.0,379.6485850007229,4.0,1.0,phase_1,,,,,,,,,,,,,magenta,square
634.0,7.0,2.0,1.0,4.0,4.0,426.1084919999121,4.0,1.0,phase_1,,,,,,,,,,,,,orange,cross
657.0,3.0,2.0,0.0,2.0,2.0,278.1307810000726,4.0,1.0,phase_1,,,,,,,,,,,,,cyan,I
306.0,2.0,1.0,0.0,2.0,2.0,407.7148200003648,4.0,1.0,phase_1,,,,,,,,,,,,,green,flipped triangle
1284.0,4.0,4.0,0.0,1.0,1.0,384.6284759993068,4.0,1.0,phase_1,,,,,,,,,,,,,gray,circle
342.0,2.0,1.0,0.0,2.0,2.0,306.4955720001308,4.0,2.0,phase_1,,,,,,,,,,,,,green,flipped triangle
666.0,7.0,2.0,1.0,4.0,4.0,399.1173459999118,4.0,1.0,phase_1,,,,,,,,,,,,,orange,cross
344.0,2.0,1.0,0.0,3.0,3.0,464.6209780003119,4.0,1.0,phase_1,,,,,,,,,,,,,green,flipped triangle
656.0,3.0,2.0,0.0,2.0,2.0,277.9776639999909,4.0,1.0,phase_1,,,,,,,,,,,,,cyan,I
318.0,6.0,1.0,1.0,1.0,1.0,389.7615769992626,4.0,1.0,phase_1,,,,,,,,,,,,,blue,hexagon
1291.0,4.0,4.0,0.0,2.0,2.0,353.0531249998603,4.0,1.0,phase_1,,,,,,,,,,,,,gray,circle
628.0,7.0,2.0,1.0,3.0,3.0,324.6176659995399,4.0,1.0,phase_1,,,,,,,,,,,,,orange,cross
159.0,5.0,0.5,1.0,3.0,3.0,343.5103020001406,4.0,1.0,phase_1,,,,,,,,,,,,,yellow,diamond
1300.0,4.0,4.0,0.0,3.0,3.0,352.5657680002041,4.0,1.0,phase_1,,,,,,,,,,,,,gray,circle
0.0,2.0,0.0,0.0,2.0,2.0,406.299422000302,4.0,1.0,phase_1,,,,,,,,,,,,,green,flipped triangle
1277.0,8.0,4.0,1.0,3.0,3.0,373.7865500006592,4.0,1.0,phase_1,,,,,,,,,,,,,white,triangle
301.0,6.0,1.0,1.0,3.0,3.0,351.3631739997436,4.0,1.0,phase_1,,,,,,,,,,,,,blue,hexagon
1302.0,4.0,4.0,0.0,4.0,4.0,324.6509890004745,4.0,1.0,phase_1,,,,,,,,,,,,,gray,circle
312.0,6.0,1.0,1.0,1.0,1.0,397.0478969995383,4.0,1.0,phase_1,,,,,,,,,,,,,blue,hexagon
1305.0,8.0,4.0,1.0,1.0,1.0,315.6936139994286,4.0,1.0,phase_1,,,,,,,,,,,,,white,triangle
1325.0,8.0,4.0,1.0,1.0,1.0,361.384679999901,4.0,1.0,phase_1,,,,,,,,,,,,,white,triangle
338.0,2.0,1.0,0.0,1.0,1.0,286.89981000025,4.0,1.0,phase_1,,,,,,,,,,,,,green,flipped triangle
186.0,5.0,0.5,1.0,1.0,1.0,278.7157210004807,4.0,1.0,phase_1,,,,,,,,,,,,,yellow,diamond
0.0,6.0,0.0,1.0,2.0,2.0,490.993353999329,4.0,1.0,phase_1,,,,,,,,,,,,,blue,hexagon
151.0,1.0,0.5,0.0,3.0,3.0,372.3853090004922,4.0,2.0,phase_1,,,,,,,,,,,,,magenta,square
0.0,4.0,0.0,0.0,2.0,2.0,399.6403060000375,4.0,1.0,phase_1,,,,,,,,,,,,,gray,circle
1319.0,8.0,4.0,1.0,2.0,2.0,352.7142840002852,4.0,1.0,phase_1,,,,,,,,,,,,,white,triangle
0.0,4.0,0.0,0.0,4.0,4.0,632.9541029999746,4.0,1.0,phase_1,,,,,,,,,,,,,gray,circle
0.0,4.0,0.0,0.0,2.0,2.0,324.9545070002568,4.0,1.0,phase_1,,,,,,,,,,,,,gray,circle
147.0,1.0,0.5,0.0,2.0,2.0,259.4545410001956,4.0,1.0,phase_1,,,,,,,,,,,,,magenta,square
1280.0,4.0,4.0,0.0,4.0,4.0,287.3681110004327,4.0,1.0,phase_1,,,,,,,,,,,,,gray,circle
321.0,6.0,1.0,1.0,4.0,4.0,287.8928979998818,4.0,1.0,phase_1,,,,,,,,,,,,,blue,hexagon
0.0,8.0,0.0,1.0,4.0,4.0,269.865788000061,4.0,2.0,phase_1,,,,,,,,,,,,,white,triangle
0.0,4.0,0.0,0.0,1.0,1.0,473.9666449995638,4.0,1.0,phase_1,,,,,,,,,,,,,gray,circle
1298.0,8.0,4.0,1.0,3.0,3.0,379.6738330001972,4.0,1.0,phase_1,,,,,,,,,,,,,white,triangle
320.0,2.0,1.0,0.0,2.0,2.0,343.7620949998745,4.0,1.0,phase_1,,,,,,,,,,,,,green,flipped triangle
654.0,7.0,2.0,1.0,3.0,3.0,291.037648999918,4.0,1.0,phase_1,,,,,,,,,,,,,orange,cross
143.0,1.0,0.5,0.0,3.0,3.0,446.8613949993596,4.0,1.0,phase_1,,,,,,,,,,,,,magenta,square
1306.0,4.0,4.0,0.0,4.0,4.0,316.4887259999887,4.0,2.0,phase_1,,,,,,,,,,,,,gray,circle
1294.0,8.0,4.0,1.0,4.0,4.0,389.9552800003221,4.0,1.0,phase_1,,,,,,,,,,,,,white,triangle
153.0,1.0,0.5,0.0,3.0,3.0,381.2753889997111,4.0,1.0,phase_1,,,,,,,,,,,,,magenta,square
1279.0,4.0,4.0,0.0,3.0,3.0,298.6114180002914,4.0,1.0,phase_1,,,,,,,,,,,,,gray,circle
1299.0,8.0,4.0,1.0,3.0,3.0,279.9546420001206,4.0,1.0,phase_1,,,,,,,,,,,,,white,triangle
0.0,5.0,0.0,1.0,3.0,3.0,307.3306980004417,4.0,1.0,phase_1,,,,,,,,,,,,,yellow,diamond
144.0,1.0,0.5,0.0,2.0,2.0,445.8858070001952,4.0,1.0,phase_1,,,,,,,,,,,,,magenta,square
144.0,5.0,0.5,1.0,3.0,3.0,354.7028989996761,4.0,1.0,phase_1,,,,,,,,,,,,,yellow,diamond
1301.0,8.0,4.0,1.0,1.0,1.0,342.9027900001529,4.0,1.0,phase_1,,,,,,,,,,,,,white,triangle
674.0,3.0,2.0,0.0,2.0,2.0,370.7951879996471,4.0,1.0,phase_1,,,,,,,,,,,,,cyan,I
0.0,5.0,0.0,1.0,2.0,2.0,288.5980379996908,4.0,1.0,phase_1,,,,,,,,,,,,,yellow,diamond
174.0,1.0,0.5,0.0,1.0,1.0,297.3275970007307,4.0,1.0,phase_1,,,,,,,,,,,,,magenta,square
317.0,2.0,1.0,0.0,3.0,3.0,399.1317099998923,4.0,1.0,phase_1,,,,,,,,,,,,,green,flipped triangle
0.0,2.0,0.0,0.0,4.0,4.0,333.7772820004829,4.0,2.0,phase_1,,,,,,,,,,,,,green,flipped triangle
303.0,2.0,1.0,0.0,4.0,4.0,389.6894819999943,4.0,1.0,phase_1,,,,,,,,,,,,,green,flipped triangle
319.0,2.0,1.0,0.0,2.0,2.0,343.9496470000449,4.0,1.0,phase_1,,,,,,,,,,,,,green,flipped triangle
657.0,7.0,2.0,1.0,1.0,1.0,390.1665310004318,4.0,1.0,phase_1,,,,,,,,,,,,,orange,cross
339.0,6.0,1.0,1.0,2.0,2.0,324.403209000593,4.0,1.0,phase_1,,,,,,,,,,,,,blue,hexagon
0.0,7.0,0.0,1.0,4.0,4.0,351.8805789999533,4.0,1.0,phase_1,,,,,,,,,,,,,orange,cross
1286.0,4.0,4.0,0.0,3.0,3.0,388.7293359994146,4.0,1.0,phase_1,,,,,,,,,,,,,gray,circle
140.0,1.0,0.5,0.0,4.0,4.0,399.5076780001909,4.0,1.0,phase_1,,,,,,,,,,,,,magenta,square
324.0,6.0,1.0,1.0,2.0,2.0,409.2492409999977,4.0,1.0,phase_1,,,,,,,,,,,,,blue,hexagon
628.0,3.0,2.0,0.0,1.0,1.0,389.4102550002571,4.0,1.0,phase_1,,,,,,,,,,,,,cyan,I
638.0,3.0,2.0,0.0,3.0,3.0,333.2180770003106,4.0,1.0,phase_1,,,,,,,,,,,,,cyan,I
1285.0,4.0,4.0,0.0,2.0,2.0,356.9512929998382,4.0,1.0,phase_1,,,,,,,,,,,,,gray,circle
656.0,3.0,2.0,0.0,1.0,1.0,499.1225230005511,4.0,1.0,phase_1,,,,,,,,,,,,,cyan,I
159.0,1.0,0.5,0.0,2.0,2.0,435.2306939999835,4.0,1.0,phase_1,,,,,,,,,,,,,magenta,square
1309.0,4.0,4.0,0.0,4.0,4.0,347.7091220001966,4.0,1.0,phase_1,,,,,,,,,,,,,gray,circle
180.0,1.0,0.5,0.0,3.0,3.0,371.5800130003117,4.0,1.0,phase_1,,,,,,,,,,,,,magenta,square
320.0,6.0,1.0,1.0,1.0,1.0,342.7741429995876,4.0,1.0,phase_1,,,,,,,,,,,,,blue,hexagon
0.0,8.0,0.0,1.0,2.0,2.0,371.9647799998711,4.0,1.0,phase_1,,,,,,,,,,,,,white,triangle
0.0,3.0,0.0,0.0,2.0,2.0,370.6436489992484,4.0,1.0,phase_1,,,,,,,,,,,,,cyan,I
1301.0,4.0,4.0,0.0,1.0,1.0,343.5338669996781,4.0,1.0,phase_1,,,,,,,,,,,,,gray,circle
0.0,2.0,0.0,0.0,3.0,3.0,436.61951599915477,4.0,1.0,phase_1,,,,,,,,,,,,,green,flipped triangle
0.0,7.0,0.0,1.0,4.0,4.0,344.0786159999334,4.0,1.0,phase_1,,,,,,,,,,,,,orange,cross
319.0,6.0,1.0,1.0,3.0,3.0,407.3710230004508,4.0,1.0,phase_1,,,,,,,,,,,,,blue,hexagon
0.0,8.0,0.0,1.0,2.0,2.0,370.2887460003694,4.0,1.0,phase_1,,,,,,,,,,,,,white,triangle
637.0,7.0,2.0,1.0,1.0,1.0,380.7755899997573,4.0,1.0,phase_1,,,,,,,,,,,,,orange,cross
0.0,3.0,0.0,0.0,3.0,3.0,343.7543410000216,4.0,1.0,phase_1,,,,,,,,,,,,,cyan,I
636.0,7.0,2.0,1.0,1.0,1.0,306.5297010007271,4.0,1.0,phase_1,,,,,,,,,,,,,orange,cross
301.0,6.0,1.0,1.0,3.0,3.0,259.3633099995713,4.0,1.0,phase_1,,,,,,,,,,,,,blue,hexagon
0.0,1.0,0.0,0.0,3.0,3.0,421.2064450002799,4.0,1.0,phase_1,,,,,,,,,,,,,magenta,square
342.0,2.0,1.0,0.0,1.0,1.0,326.1629129992798,4.0,1.0,phase_1,,,,,,,,,,,,,green,flipped triangle
0.0,8.0,4.0,1.0,5.0,5.0,619.894531000682,1.0,1.0,phase_2,stop,250.0,250.0,3.0,,,,,,,,,white,triangle
0.0,1.0,0.5,0.0,5.0,5.0,438.0054709999967,1.0,1.0,phase_2,go,200.0,250.0,1.0,,,,,,,,,magenta,square
0.0,8.0,4.0,1.0,5.0,0.0,0.0,1.0,1.0,phase_2,stop,200.0,250.0,4.0,,,,,,,,,white,triangle
0.0,1.0,0.5,0.0,6.0,6.0,539.8983040004168,1.0,1.0,phase_2,go,250.0,250.0,1.0,,,,,,,,,magenta,square
0.0,2.0,1.0,0.0,6.0,6.0,754.159121000157,1.0,1.0,phase_2,go,250.0,250.0,1.0,,,,,,,,,green,flipped triangle
0.0,5.0,0.5,1.0,5.0,0.0,0.0,1.0,1.0,phase_2,stop,250.0,250.0,4.0,,,,,,,,,yellow,diamond
0.0,7.0,2.0,1.0,6.0,0.0,0.0,1.0,1.0,phase_2,stop,300.0,250.0,4.0,,,,,,,,,orange,cross
0.0,6.0,1.0,1.0,6.0,6.0,451.44691600035,1.0,1.0,phase_2,stop,300.0,300.0,3.0,,,,,,,,,blue,hexagon
0.0,2.0,1.0,0.0,5.0,5.0,764.9061120000624,1.0,1.0,phase_2,go,300.0,250.0,1.0,,,,,,,,,green,flipped triangle
0.0,6.0,1.0,1.0,5.0,0.0,0.0,1.0,1.0,phase_2,stop,300.0,250.0,4.0,,,,,,,,,blue,hexagon
0.0,5.0,0.5,1.0,5.0,5.0,431.9167959993137,1.0,1.0,phase_2,stop,350.0,250.0,3.0,,,,,,,,,yellow,diamond
0.0,6.0,1.0,1.0,6.0,6.0,342.8384769995318,1.0,1.0,phase_2,stop,300.0,250.0,3.0,,,,,,,,,blue,hexagon
0.0,3.0,2.0,0.0,5.0,5.0,853.1728649995785,1.0,1.0,phase_2,go,300.0,200.0,1.0,,,,,,,,,cyan,I
0.0,8.0,4.0,1.0,6.0,0.0,0.0,1.0,1.0,phase_2,stop,300.0,200.0,4.0,,,,,,,,,white,triangle
0.0,1.0,0.5,0.0,5.0,5.0,737.1408290000545,1.0,1.0,phase_2,go,300.0,250.0,1.0,,,,,,,,,magenta,square
0.0,7.0,2.0,1.0,5.0,0.0,0.0,1.0,1.0,phase_2,stop,300.0,250.0,4.0,,,,,,,,,orange,cross
0.0,7.0,2.0,1.0,5.0,5.0,680.6192770000052,1.0,1.0,phase_2,go,350.0,250.0,1.0,,,,,,,,,orange,cross
0.0,2.0,1.0,0.0,6.0,6.0,838.5745280002084,1.0,1.0,phase_2,go,350.0,250.0,1.0,,,,,,,,,green,flipped triangle
0.0,7.0,2.0,1.0,5.0,5.0,773.406414999954,1.0,1.0,phase_2,go,350.0,250.0,1.0,,,,,,,,,orange,cross
0.0,4.0,4.0,0.0,6.0,6.0,581.7831190006473,1.0,1.0,phase_2,go,350.0,250.0,1.0,,,,,,,,,gray,circle
0.0,7.0,2.0,1.0,5.0,0.0,0.0,1.0,1.0,phase_2,stop,350.0,250.0,4.0,,,,,,,,,orange,cross
0.0,3.0,2.0,0.0,5.0,5.0,737.7261770006953,1.0,1.0,phase_2,go,400.0,250.0,1.0,,,,,,,,,cyan,I
0.0,4.0,4.0,0.0,5.0,5.0,718.8516950000121,1.0,1.0,phase_2,go,400.0,250.0,1.0,,,,,,,,,gray,circle
0.0,3.0,2.0,0.0,6.0,6.0,765.9002780001174,1.0,1.0,phase_2,go,400.0,250.0,1.0,,,,,,,,,cyan,I
0.0,8.0,4.0,1.0,5.0,5.0,437.5646379994578,1.0,1.0,phase_2,stop,400.0,250.0,3.0,,,,,,,,,white,triangle
0.0,8.0,4.0,1.0,5.0,5.0,970.4435459998422,1.0,1.0,phase_2,go,350.0,250.0,1.0,,,,,,,,,white,triangle
0.0,2.0,1.0,0.0,6.0,6.0,632.8896489994804,1.0,1.0,phase_2,go,350.0,250.0,1.0,,,,,,,,,green,flipped triangle
0.0,6.0,1.0,1.0,5.0,0.0,0.0,1.0,1.0,phase_2,stop,350.0,250.0,4.0,,,,,,,,,blue,hexagon
0.0,3.0,2.0,0.0,5.0,5.0,493.1546249999883,1.0,1.0,phase_2,go,400.0,250.0,1.0,,,,,,,,,cyan,I
0.0,6.0,1.0,1.0,5.0,5.0,448.321245000443,1.0,1.0,phase_2,stop,400.0,250.0,3.0,,,,,,,,,blue,hexagon
0.0,6.0,1.0,1.0,6.0,0.0,0.0,1.0,1.0,phase_2,stop,350.0,250.0,4.0,,,,,,,,,blue,hexagon
0.0,8.0,4.0,1.0,5.0,5.0,627.2715750001225,1.0,1.0,phase_2,go,350.0,300.0,1.0,,,,,,,,,white,triangle
0.0,6.0,1.0,1.0,5.0,5.0,533.2793210000091,1.0,1.0,phase_2,go,350.0,300.0,1.0,,,,,,,,,blue,hexagon
0.0,4.0,4.0,0.0,6.0,6.0,633.6281559997587,1.0,1.0,phase_2,go,350.0,300.0,1.0,,,,,,,,,gray,circle
0.0,8.0,4.0,1.0,5.0,0.0,0.0,1.0,1.0,phase_2,stop,350.0,300.0,4.0,,,,,,,,,white,triangle
0.0,7.0,2.0,1.0,6.0,6.0,438.216526999895,1.0,1.0,phase_2,go,400.0,300.0,1.0,,,,,,,,,orange,cross
0.0,4.0,4.0,0.0,6.0,6.0,746.7726909999328,2.0,1.0,phase_2,go,400.0,300.0,1.0,,,,,,,,,gray,circle
0.0,4.0,4.0,0.0,5.0,5.0,364.5780460001333,2.0,1.0,phase_2,go,400.0,300.0,1.0,,,,,,,,,gray,circle
0.0,7.0,2.0,1.0,5.0,5.0,373.3867869996174,2.0,1.0,phase_2,stop,400.0,300.0,3.0,,,,,,,,,orange,cross
0.0,1.0,0.5,0.0,6.0,6.0,347.0335709998835,2.0,1.0,phase_2,go,350.0,300.0,1.0,,,,,,,,,magenta,square
0.0,3.0,2.0,0.0,5.0,5.0,345.2779640001608,2.0,1.0,phase_2,go,350.0,300.0,1.0,,,,,,,,,cyan,I
0.0,7.0,2.0,1.0,5.0,5.0,316.6942130001189,2.0,1.0,phase_2,stop,350.0,300.0,3.0,,,,,,,,,orange,cross
0.0,5.0,0.5,1.0,5.0,5.0,550.9532059995763,2.0,1.0,phase_2,go,300.0,300.0,1.0,,,,,,,,,yellow,diamond
0.0,1.0,0.5,0.0,6.0,6.0,383.2635190001383,2.0,1.0,phase_2,go,300.0,300.0,1.0,,,,,,,,,magenta,square
0.0,4.0,4.0,0.0,5.0,5.0,437.753841999438,2.0,1.0,phase_2,go,300.0,300.0,1.0,,,,,,,,,gray,circle
0.0,7.0,2.0,1.0,6.0,6.0,473.5628640000868,2.0,1.0,phase_2,stop,300.0,300.0,3.0,,,,,,,,,orange,cross
0.0,1.0,0.5,0.0,5.0,5.0,540.6714319997263,2.0,1.0,phase_2,go,300.0,250.0,1.0,,,,,,,,,magenta,square
0.0,6.0,1.0,1.0,6.0,0.0,0.0,2.0,1.0,phase_2,stop,300.0,250.0,4.0,,,,,,,,,blue,hexagon
0.0,3.0,2.0,0.0,6.0,6.0,753.808950000348,2.0,1.0,phase_2,go,300.0,300.0,1.0,,,,,,,,,cyan,I
0.0,3.0,2.0,0.0,6.0,6.0,298.3289599997079,2.0,1.0,phase_2,go,300.0,300.0,1.0,,,,,,,,,cyan,I
0.0,3.0,2.0,0.0,6.0,6.0,679.8290819997419,2.0,1.0,phase_2,go,300.0,300.0,1.0,,,,,,,,,cyan,I
0.0,1.0,0.5,0.0,6.0,6.0,752.9166800004532,2.0,1.0,phase_2,go,300.0,300.0,1.0,,,,,,,,,magenta,square
0.0,7.0,2.0,1.0,6.0,6.0,343.0519399998957,2.0,1.0,phase_2,stop,300.0,300.0,3.0,,,,,,,,,orange,cross
0.0,3.0,2.0,0.0,5.0,5.0,549.8398310000994,2.0,1.0,phase_2,go,300.0,250.0,1.0,,,,,,,,,cyan,I
0.0,3.0,2.0,0.0,5.0,5.0,588.4329680002338,2.0,1.0,phase_2,go,300.0,250.0,1.0,,,,,,,,,cyan,I
0.0,1.0,0.5,0.0,6.0,6.0,298.3532859998377,2.0,1.0,phase_2,go,300.0,250.0,1.0,,,,,,,,,magenta,square
0.0,6.0,1.0,1.0,6.0,6.0,307.8912330001913,2.0,1.0,phase_2,stop,300.0,250.0,3.0,,,,,,,,,blue,hexagon
0.0,1.0,0.5,0.0,5.0,5.0,586.9236009993983,2.0,1.0,phase_2,go,300.0,200.0,1.0,,,,,,,,,magenta,square
0.0,3.0,2.0,0.0,5.0,5.0,344.8178220005502,2.0,1.0,phase_2,go,300.0,200.0,1.0,,,,,,,,,cyan,I
0.0,2.0,1.0,0.0,6.0,6.0,709.1502330004005,2.0,1.0,phase_2,go,300.0,200.0,1.0,,,,,,,,,green,flipped triangle
0.0,8.0,4.0,1.0,5.0,5.0,280.2247529998567,2.0,1.0,phase_2,stop,300.0,200.0,3.0,,,,,,,,,white,triangle
0.0,2.0,1.0,0.0,6.0,6.0,270.1228940004512,2.0,1.0,phase_2,go,250.0,200.0,1.0,,,,,,,,,green,flipped triangle
0.0,6.0,1.0,1.0,6.0,0.0,0.0,2.0,1.0,phase_2,stop,250.0,200.0,4.0,,,,,,,,,blue,hexagon
0.0,7.0,2.0,1.0,6.0,0.0,0.0,2.0,1.0,phase_2,stop,250.0,250.0,4.0,,,,,,,,,orange,cross
0.0,1.0,0.5,0.0,5.0,5.0,595.7166600001074,2.0,1.0,phase_2,go,250.0,300.0,1.0,,,,,,,,,magenta,square
0.0,5.0,0.5,1.0,6.0,0.0,0.0,2.0,1.0,phase_2,stop,250.0,300.0,4.0,,,,,,,,,yellow,diamond
0.0,4.0,4.0,0.0,6.0,6.0,577.2137650001241,2.0,1.0,phase_2,go,250.0,350.0,1.0,,,,,,,,,gray,circle
0.0,3.0,2.0,0.0,6.0,6.0,391.7918939996525,2.0,1.0,phase_2,go,250.0,350.0,1.0,,,,,,,,,cyan,I
0.0,5.0,0.5,1.0,6.0,0.0,0.0,2.0,1.0,phase_2,stop,250.0,350.0,4.0,,,,,,,,,yellow,diamond
0.0,2.0,1.0,0.0,6.0,6.0,670.8712560002823,2.0,1.0,phase_2,go,250.0,400.0,1.0,,,,,,,,,green,flipped triangle
0.0,4.0,4.0,0.0,6.0,6.0,902.286286999697,2.0,1.0,phase_2,go,250.0,400.0,1.0,,,,,,,,,gray,circle
0.0,2.0,1.0,0.0,5.0,5.0,746.3161879995823,2.0,1.0,phase_2,go,250.0,400.0,1.0,,,,,,,,,green,flipped triangle
0.0,8.0,4.0,1.0,6.0,0.0,0.0,3.0,1.0,phase_2,stop,250.0,400.0,4.0,,,,,,,,,white,triangle
0.0,5.0,0.5,1.0,6.0,6.0,520.9155740003553,3.0,1.0,phase_2,stop,250.0,450.0,3.0,,,,,,,,,yellow,diamond
0.0,7.0,2.0,1.0,5.0,5.0,346.2203760000193,3.0,1.0,phase_2,stop,250.0,400.0,3.0,,,,,,,,,orange,cross
0.0,7.0,2.0,1.0,5.0,5.0,716.9916290004039,3.0,1.0,phase_2,go,200.0,400.0,1.0,,,,,,,,,orange,cross
0.0,8.0,4.0,1.0,6.0,0.0,0.0,3.0,1.0,phase_2,stop,200.0,400.0,4.0,,,,,,,,,white,triangle
0.0,5.0,0.5,1.0,6.0,6.0,594.8534649996873,3.0,1.0,phase_2,stop,200.0,450.0,3.0,,,,,,,,,yellow,diamond
0.0,1.0,0.5,0.0,5.0,5.0,745.1198320004551,3.0,1.0,phase_2,go,200.0,400.0,1.0,,,,,,,,,magenta,square
0.0,1.0,0.5,0.0,5.0,5.0,483.7007870000889,3.0,1.0,phase_2,go,200.0,400.0,1.0,,,,,,,,,magenta,square
0.0,3.0,2.0,0.0,6.0,6.0,828.9710590006507,3.0,1.0,phase_2,go,200.0,400.0,1.0,,,,,,,,,cyan,I
0.0,6.0,1.0,1.0,5.0,5.0,307.8880379998736,3.0,1.0,phase_2,stop,200.0,400.0,3.0,,,,,,,,,blue,hexagon
0.0,8.0,4.0,1.0,5.0,5.0,373.0698720000873,3.0,1.0,phase_2,go,150.0,400.0,1.0,,,,,,,,,white,triangle
0.0,3.0,2.0,0.0,6.0,6.0,603.385913999773,3.0,1.0,phase_2,go,150.0,400.0,1.0,,,,,,,,,cyan,I
0.0,1.0,0.5,0.0,6.0,6.0,689.2013719998431,3.0,1.0,phase_2,go,150.0,400.0,1.0,,,,,,,,,magenta,square
0.0,1.0,0.5,0.0,6.0,6.0,297.8126640000482,3.0,1.0,phase_2,go,150.0,400.0,1.0,,,,,,,,,magenta,square
0.0,5.0,0.5,1.0,5.0,0.0,0.0,3.0,1.0,phase_2,stop,150.0,400.0,4.0,,,,,,,,,yellow,diamond
0.0,6.0,1.0,1.0,5.0,5.0,752.9392090000329,3.0,1.0,phase_2,go,200.0,400.0,1.0,,,,,,,,,blue,hexagon
0.0,7.0,2.0,1.0,5.0,0.0,0.0,3.0,1.0,phase_2,stop,200.0,400.0,4.0,,,,,,,,,orange,cross
0.0,4.0,4.0,0.0,6.0,6.0,699.8626559998229,3.0,1.0,phase_2,go,250.0,400.0,1.0,,,,,,,,,gray,circle
0.0,2.0,1.0,0.0,6.0,6.0,680.7156539998687,3.0,1.0,phase_2,go,250.0,400.0,1.0,,,,,,,,,green,flipped triangle
0.0,5.0,0.5,1.0,6.0,6.0,391.9129240002803,3.0,1.0,phase_2,go,250.0,400.0,1.0,,,,,,,,,yellow,diamond
0.0,4.0,4.0,0.0,5.0,5.0,708.2815459998528,3.0,1.0,phase_2,go,250.0,400.0,1.0,,,,,,,,,gray,circle
0.0,8.0,4.0,1.0,5.0,0.0,0.0,3.0,1.0,phase_2,stop,250.0,400.0,4.0,,,,,,,,,white,triangle
0.0,4.0,4.0,0.0,5.0,5.0,512.0496129993626,3.0,1.0,phase_2,go,300.0,400.0,1.0,,,,,,,,,gray,circle
0.0,1.0,0.5,0.0,6.0,6.0,428.8202120005735,3.0,1.0,phase_2,go,300.0,400.0,1.0,,,,,,,,,magenta,square
0.0,5.0,0.5,1.0,5.0,5.0,308.0718629998955,3.0,1.0,phase_2,go,300.0,400.0,1.0,,,,,,,,,yellow,diamond
0.0,7.0,2.0,1.0,5.0,5.0,342.0164919998569,3.0,1.0,phase_2,stop,300.0,400.0,3.0,,,,,,,,,orange,cross
0.0,2.0,1.0,0.0,5.0,5.0,539.2028010001013,3.0,1.0,phase_2,go,250.0,400.0,1.0,,,,,,,,,green,flipped triangle
0.0,7.0,2.0,1.0,6.0,6.0,435.7855830003245,3.0,1.0,phase_2,stop,250.0,400.0,3.0,,,,,,,,,orange,cross
0.0,6.0,1.0,1.0,6.0,6.0,642.8685829996539,3.0,1.0,phase_2,go,250.0,350.0,1.0,,,,,,,,,blue,hexagon
0.0,8.0,4.0,1.0,6.0,0.0,0.0,3.0,1.0,phase_2,stop,250.0,350.0,4.0,,,,,,,,,white,triangle
0.0,4.0,4.0,0.0,6.0,6.0,614.4920749993616,3.0,1.0,phase_2,go,250.0,400.0,1.0,,,,,,,,,gray,circle
0.0,2.0,1.0,0.0,5.0,5.0,697.7564979997624,3.0,1.0,phase_2,go,250.0,400.0,1.0,,,,,,,,,green,flipped triangle
0.0,4.0,4.0,0.0,5.0,5.0,392.2766720006621,3.0,1.0,phase_2,go,250.0,400.0,1.0,,,,,,,,,gray,circle
0.0,2.0,1.0,0.0,5.0,5.0,326.2445379996279,3.0,1.0,phase_2,go,250.0,400.0,1.0,,,,,,,,,green,flipped triangle
0.0,8.0,4.0,1.0,6.0,0.0,0.0,3.0,1.0,phase_2,stop,250.0,400.0,4.0,,,,,,,,,white,triangle
0.0,7.0,2.0,1.0,6.0,6.0,606.2951329995485,3.0,1.0,phase_2,go,250.0,450.0,1.0,,,,,,,,,orange,cross
0.0,5.0,0.5,1.0,5.0,5.0,640.1029969993033,4.0,1.0,phase_2,stop,250.0,450.0,3.0,,,,,,,,,yellow,diamond
0.0,2.0,1.0,0.0,6.0,6.0,347.0116649996271,4.0,1.0,phase_2,go,200.0,450.0,1.0,,,,,,,,,green,flipped triangle
0.0,4.0,4.0,0.0,6.0,6.0,428.1667590003053,4.0,1.0,phase_2,go,200.0,450.0,1.0,,,,,,,,,gray,circle
0.0,2.0,1.0,0.0,6.0,6.0,318.457207999927,4.0,1.0,phase_2,go,200.0,450.0,1.0,,,,,,,,,green,flipped triangle
0.0,5.0,0.5,1.0,6.0,6.0,631.0507360003612,4.0,1.0,phase_2,stop,200.0,450.0,3.0,,,,,,,,,yellow,diamond
0.0,5.0,0.5,1.0,5.0,0.0,0.0,4.0,1.0,phase_2,stop,200.0,400.0,4.0,,,,,,,,,yellow,diamond
0.0,5.0,0.5,1.0,5.0,0.0,0.0,4.0,1.0,phase_2,stop,250.0,400.0,4.0,,,,,,,,,yellow,diamond
0.0,2.0,1.0,0.0,6.0,6.0,793.2741340000575,4.0,1.0,phase_2,go,300.0,400.0,1.0,,,,,,,,,green,flipped triangle
0.0,5.0,0.5,1.0,5.0,5.0,364.9109560001307,4.0,1.0,phase_2,stop,300.0,400.0,3.0,,,,,,,,,yellow,diamond
0.0,7.0,2.0,1.0,5.0,0.0,0.0,4.0,1.0,phase_2,stop,250.0,400.0,4.0,,,,,,,,,orange,cross
0.0,6.0,1.0,1.0,5.0,0.0,0.0,4.0,1.0,phase_2,stop,300.0,400.0,4.0,,,,,,,,,blue,hexagon
0.0,4.0,4.0,0.0,5.0,5.0,700.0199630001589,4.0,1.0,phase_2,go,350.0,400.0,1.0,,,,,,,,,gray,circle
0.0,2.0,1.0,0.0,5.0,5.0,501.7949969997062,4.0,1.0,phase_2,go,350.0,400.0,1.0,,,,,,,,,green,flipped triangle
0.0,3.0,2.0,0.0,5.0,5.0,688.5140980002689,4.0,1.0,phase_2,go,350.0,400.0,1.0,,,,,,,,,cyan,I
0.0,2.0,1.0,0.0,6.0,6.0,718.2422539999607,4.0,1.0,phase_2,go,350.0,400.0,1.0,,,,,,,,,green,flipped triangle
0.0,1.0,0.5,0.0,6.0,6.0,363.7765000003128,4.0,1.0,phase_2,go,350.0,400.0,1.0,,,,,,,,,magenta,square
0.0,1.0,0.5,0.0,5.0,5.0,550.6893850006236,4.0,1.0,phase_2,go,350.0,400.0,1.0,,,,,,,,,magenta,square
0.0,8.0,4.0,1.0,5.0,5.0,297.2125010001036,4.0,1.0,phase_2,stop,350.0,400.0,3.0,,,,,,,,,white,triangle
0.0,2.0,1.0,0.0,6.0,6.0,663.8985429999593,4.0,1.0,phase_2,go,300.0,400.0,1.0,,,,,,,,,green,flipped triangle
0.0,5.0,0.5,1.0,5.0,0.0,0.0,4.0,1.0,phase_2,stop,300.0,400.0,4.0,,,,,,,,,yellow,diamond
0.0,7.0,2.0,1.0,6.0,6.0,534.3326439997327,4.0,1.0,phase_2,stop,350.0,400.0,3.0,,,,,,,,,orange,cross
0.0,2.0,1.0,0.0,5.0,5.0,701.4353159993334,4.0,1.0,phase_2,go,350.0,350.0,1.0,,,,,,,,,green,flipped triangle
0.0,3.0,2.0,0.0,5.0,5.0,624.0231840001798,4.0,1.0,phase_2,go,350.0,350.0,1.0,,,,,,,,,cyan,I
0.0,5.0,0.5,1.0,6.0,6.0,315.8877730002132,4.0,1.0,phase_2,stop,350.0,350.0,3.0,,,,,,,,,yellow,diamond
0.0,2.0,1.0,0.0,5.0,5.0,754.0238729998237,4.0,1.0,phase_2,go,350.0,300.0,1.0,,,,,,,,,green,flipped triangle
0.0,7.0,2.0,1.0,5.0,0.0,0.0,4.0,1.0,phase_2,stop,350.0,300.0,4.0,,,,,,,,,orange,cross
0.0,4.0,4.0,0.0,6.0,6.0,769.718630999705,4.0,1.0,phase_2,go,400.0,300.0,1.0,,,,,,,,,gray,circle
0.0,4.0,4.0,0.0,6.0,6.0,540.5790489994615,4.0,1.0,phase_2,go,400.0,300.0,1.0,,,,,,,,,gray,circle
0.0,3.0,2.0,0.0,5.0,5.0,530.9217770000032,4.0,1.0,phase_2,go,400.0,300.0,1.0,,,,,,,,,cyan,I
0.0,8.0,4.0,1.0,6.0,0.0,0.0,4.0,1.0,phase_2,stop,400.0,300.0,4.0,,,,,,,,,white,triangle
0.0,1.0,0.5,0.0,5.0,5.0,530.7365019998542,4.0,1.0,phase_2,go,400.0,350.0,1.0,,,,,,,,,magenta,square
0.0,8.0,4.0,1.0,6.0,0.0,0.0,4.0,1.0,phase_2,stop,400.0,350.0,4.0,,,,,,,,,white,triangle
0.0,3.0,2.0,0.0,6.0,6.0,627.1527170001718,4.0,1.0,phase_2,go,400.0,400.0,1.0,,,,,,,,,cyan,I
0.0,8.0,4.0,1.0,6.0,6.0,427.7579429999605,4.0,1.0,phase_2,go,400.0,400.0,1.0,,,,,,,,,white,triangle
0.0,2.0,1.0,0.0,6.0,6.0,376.0793359997478,4.0,1.0,phase_2,go,400.0,400.0,1.0,,,,,,,,,green,flipped triangle
0.0,4.0,4.0,0.0,6.0,6.0,576.6544199996133,4.0,1.0,phase_2,go,400.0,400.0,1.0,,,,,,,,,gray,circle
0.0,8.0,4.0,1.0,6.0,0.0,0.0,5.0,1.0,phase_2,stop,400.0,400.0,4.0,,,,,,,,,white,triangle
0.0,6.0,1.0,1.0,5.0,5.0,498.2541839999612,5.0,1.0,phase_2,stop,400.0,450.0,3.0,,,,,,,,,blue,hexagon
0.0,5.0,0.5,1.0,5.0,0.0,0.0,5.0,1.0,phase_2,stop,350.0,450.0,4.0,,,,,,,,,yellow,diamond
0.0,2.0,1.0,0.0,6.0,6.0,729.9079750000601,5.0,1.0,phase_2,go,400.0,450.0,1.0,,,,,,,,,green,flipped triangle
0.0,6.0,1.0,1.0,6.0,6.0,580.0323500006925,5.0,1.0,phase_2,stop,400.0,450.0,3.0,,,,,,,,,blue,hexagon
0.0,1.0,0.5,0.0,5.0,5.0,616.7237429999659,5.0,1.0,phase_2,go,400.0,400.0,1.0,,,,,,,,,magenta,square
0.0,2.0,1.0,0.0,5.0,5.0,606.3598220007407,5.0,1.0,phase_2,go,400.0,400.0,1.0,,,,,,,,,green,flipped triangle
0.0,2.0,1.0,0.0,5.0,5.0,607.8644439994605,5.0,1.0,phase_2,go,400.0,400.0,1.0,,,,,,,,,green,flipped triangle
0.0,8.0,4.0,1.0,6.0,6.0,544.403242000044,5.0,1.0,phase_2,go,400.0,400.0,1.0,,,,,,,,,white,triangle
0.0,7.0,2.0,1.0,6.0,6.0,410.4416019999917,5.0,1.0,phase_2,go,400.0,400.0,1.0,,,,,,,,,orange,cross
0.0,6.0,1.0,1.0,6.0,6.0,556.042819999675,5.0,1.0,phase_2,stop,400.0,400.0,3.0,,,,,,,,,blue,hexagon
0.0,1.0,0.5,0.0,6.0,6.0,652.3336079999353,5.0,1.0,phase_2,go,400.0,350.0,1.0,,,,,,,,,magenta,square
0.0,4.0,4.0,0.0,6.0,6.0,712.2270230001959,5.0,1.0,phase_2,go,400.0,350.0,1.0,,,,,,,,,gray,circle
0.0,6.0,1.0,1.0,5.0,0.0,0.0,5.0,1.0,phase_2,stop,400.0,350.0,4.0,,,,,,,,,blue,hexagon
0.0,2.0,1.0,0.0,5.0,5.0,598.7287110001489,5.0,1.0,phase_2,go,450.0,350.0,1.0,,,,,,,,,green,flipped triangle
0.0,2.0,1.0,0.0,5.0,5.0,655.8229219999703,5.0,1.0,phase_2,go,450.0,350.0,1.0,,,,,,,,,green,flipped triangle
0.0,4.0,4.0,0.0,5.0,5.0,394.2872640000132,5.0,1.0,phase_2,go,450.0,350.0,1.0,,,,,,,,,gray,circle
0.0,7.0,2.0,1.0,5.0,5.0,327.1559900003922,5.0,1.0,phase_2,stop,450.0,350.0,3.0,,,,,,,,,orange,cross
0.0,8.0,4.0,1.0,5.0,0.0,0.0,5.0,1.0,phase_2,stop,400.0,350.0,4.0,,,,,,,,,white,triangle
0.0,5.0,0.5,1.0,5.0,5.0,720.153350000146,5.0,1.0,phase_2,go,450.0,350.0,1.0,,,,,,,,,yellow,diamond
0.0,8.0,4.0,1.0,5.0,5.0,519.2851679994419,5.0,1.0,phase_2,stop,450.0,350.0,3.0,,,,,,,,,white,triangle
0.0,5.0,0.5,1.0,6.0,6.0,644.2168719995607,5.0,1.0,phase_2,go,400.0,350.0,1.0,,,,,,,,,yellow,diamond
0.0,2.0,1.0,0.0,6.0,6.0,291.0723530003452,5.0,1.0,phase_2,go,400.0,350.0,1.0,,,,,,,,,green,flipped triangle
0.0,8.0,4.0,1.0,5.0,5.0,508.1784459998744,5.0,1.0,phase_2,stop,400.0,350.0,3.0,,,,,,,,,white,triangle
0.0,7.0,2.0,1.0,6.0,0.0,0.0,5.0,1.0,phase_2,stop,350.0,350.0,4.0,,,,,,,,,orange,cross
0.0,1.0,0.5,0.0,5.0,5.0,737.8987000001871,5.0,1.0,phase_2,go,350.0,400.0,1.0,,,,,,,,,magenta,square
0.0,8.0,4.0,1.0,6.0,0.0,0.0,5.0,1.0,phase_2,stop,350.0,400.0,4.0,,,,,,,,,white,triangle
0.0,7.0,2.0,1.0,5.0,0.0,0.0,5.0,1.0,phase_2,stop,350.0,450.0,4.0,,,,,,,,,orange,cross
0.0,2.0,1.0,0.0,6.0,6.0,674.045906000174,5.0,1.0,phase_2,go,400.0,450.0,1.0,,,,,,,,,green,flipped triangle
0.0,3.0,2.0,0.0,5.0,5.0,700.2089300003718,5.0,1.0,phase_2,go,400.0,450.0,1.0,,,,,,,,,cyan,I
0.0,6.0,1.0,1.0,5.0,5.0,446.7956919997959,5.0,1.0,phase_2,stop,400.0,450.0,3.0,,,,,,,,,blue,hexagon
0.0,4.0,4.0,0.0,5.0,5.0,732.1645539996098,5.0,1.0,phase_2,go,350.0,450.0,1.0,,,,,,,,,gray,circle
0.0,4.0,4.0,0.0,5.0,5.0,420.4002119995493,5.0,1.0,phase_2,go,350.0,450.0,1.0,,,,,,,,,gray,circle
0.0,3.0,2.0,0.0,5.0,5.0,653.2947289997537,5.0,1.0,phase_2,go,350.0,450.0,1.0,,,,,,,,,cyan,I
0.0,1.0,0.5,0.0,6.0,6.0,319.258976999663,5.0,1.0,phase_2,go,350.0,450.0,1.0,,,,,,,,,magenta,square
0.0,8.0,4.0,1.0,5.0,5.0,338.5529890001635,5.0,1.0,phase_2,stop,350.0,450.0,3.0,,,,,,,,,white,triangle
0.0,6.0,1.0,1.0,6.0,0.0,0.0,6.0,1.0,phase_2,stop,300.0,450.0,4.0,,,,,,,,,blue,hexagon
0.0,6.0,1.0,1.0,5.0,5.0,661.1621910005852,6.0,1.0,phase_2,go,300.0,500.0,1.0,,,,,,,,,blue,hexagon
0.0,6.0,1.0,1.0,5.0,5.0,380.1518219997888,6.0,1.0,phase_2,stop,300.0,500.0,3.0,,,,,,,,,blue,hexagon
0.0,2.0,1.0,0.0,5.0,5.0,681.1782499999026,6.0,1.0,phase_2,go,250.0,500.0,1.0,,,,,,,,,green,flipped triangle
0.0,8.0,4.0,1.0,5.0,0.0,0.0,6.0,1.0,phase_2,stop,250.0,500.0,4.0,,,,,,,,,white,triangle
0.0,1.0,0.5,0.0,6.0,6.0,594.5095830002174,6.0,1.0,phase_2,go,300.0,500.0,1.0,,,,,,,,,magenta,square
0.0,4.0,4.0,0.0,6.0,6.0,614.0915460000542,6.0,1.0,phase_2,go,300.0,500.0,1.0,,,,,,,,,gray,circle
0.0,3.0,2.0,0.0,6.0,6.0,457.9281589994934,6.0,1.0,phase_2,go,300.0,500.0,1.0,,,,,,,,,cyan,I
0.0,5.0,0.5,1.0,6.0,6.0,354.2026810000607,6.0,1.0,phase_2,stop,300.0,500.0,3.0,,,,,,,,,yellow,diamond
0.0,3.0,2.0,0.0,6.0,6.0,626.2702559997706,6.0,1.0,phase_2,go,300.0,450.0,1.0,,,,,,,,,cyan,I
0.0,6.0,1.0,1.0,6.0,6.0,381.9948279997334,6.0,1.0,phase_2,go,300.0,450.0,1.0,,,,,,,,,blue,hexagon
0.0,4.0,4.0,0.0,5.0,5.0,606.8037009999898,6.0,1.0,phase_2,go,300.0,450.0,1.0,,,,,,,,,gray,circle
0.0,2.0,1.0,0.0,5.0,5.0,392.0594940000228,6.0,1.0,phase_2,go,300.0,450.0,1.0,,,,,,,,,green,flipped triangle
0.0,3.0,2.0,0.0,6.0,6.0,494.7949080005855,6.0,1.0,phase_2,go,300.0,450.0,1.0,,,,,,,,,cyan,I
0.0,6.0,1.0,1.0,6.0,6.0,553.2091129998662,6.0,1.0,phase_2,stop,300.0,450.0,3.0,,,,,,,,,blue,hexagon
0.0,6.0,1.0,1.0,6.0,6.0,670.7891830001245,6.0,1.0,phase_2,go,300.0,400.0,1.0,,,,,,,,,blue,hexagon
0.0,4.0,4.0,0.0,5.0,5.0,597.1172480003588,6.0,1.0,phase_2,go,300.0,400.0,1.0,,,,,,,,,gray,circle
0.0,5.0,0.5,1.0,6.0,6.0,556.542964000073,6.0,1.0,phase_2,go,300.0,400.0,1.0,,,,,,,,,yellow,diamond
0.0,4.0,4.0,0.0,5.0,5.0,419.7377809996396,6.0,1.0,phase_2,go,300.0,400.0,1.0,,,,,,,,,gray,circle
0.0,1.0,0.5,0.0,5.0,5.0,587.8324740006065,6.0,1.0,phase_2,go,300.0,400.0,1.0,,,,,,,,,magenta,square
0.0,3.0,2.0,0.0,6.0,6.0,457.4220169997716,6.0,1.0,phase_2,go,300.0,400.0,1.0,,,,,,,,,cyan,I
0.0,2.0,1.0,0.0,5.0,5.0,541.7216460000418,6.0,1.0,phase_2,go,300.0,400.0,1.0,,,,,,,,,green,flipped triangle
0.0,6.0,1.0,1.0,6.0,0.0,0.0,6.0,1.0,phase_2,stop,300.0,400.0,4.0,,,,,,,,,blue,hexagon
0.0,7.0,2.0,1.0,6.0,6.0,509.2272909996609,6.0,1.0,phase_2,stop,300.0,450.0,3.0,,,,,,,,,orange,cross
0.0,1.0,0.5,0.0,5.0,5.0,735.6824569997116,6.0,1.0,phase_2,go,300.0,400.0,1.0,,,,,,,,,magenta,square
0.0,1.0,0.5,0.0,6.0,6.0,811.4286810005069,6.0,1.0,phase_2,go,300.0,400.0,1.0,,,,,,,,,magenta,square
0.0,4.0,4.0,0.0,6.0,6.0,353.7037090000012,6.0,1.0,phase_2,go,300.0,400.0,1.0,,,,,,,,,gray,circle
0.0,6.0,1.0,1.0,5.0,5.0,352.9485969993402,6.0,1.0,phase_2,stop,300.0,400.0,3.0,,,,,,,,,blue,hexagon
0.0,3.0,2.0,0.0,6.0,6.0,716.6876279998178,6.0,1.0,phase_2,go,250.0,400.0,1.0,,,,,,,,,cyan,I
0.0,3.0,2.0,0.0,6.0,6.0,457.461537999734,6.0,1.0,phase_2,go,250.0,400.0,1.0,,,,,,,,,cyan,I
0.0,3.0,2.0,0.0,6.0,6.0,307.5916090001556,6.0,1.0,phase_2,go,250.0,400.0,1.0,,,,,,,,,cyan,I
0.0,2.0,1.0,0.0,5.0,5.0,456.642439999996,6.0,1.0,phase_2,go,250.0,400.0,1.0,,,,,,,,,green,flipped triangle
0.0,1.0,0.5,0.0,5.0,5.0,392.0859689997087,6.0,1.0,phase_2,go,250.0,400.0,1.0,,,,,,,,,magenta,square
0.0,4.0,4.0,0.0,6.0,6.0,392.3908090000623,6.0,1.0,phase_2,go,250.0,400.0,1.0,,,,,,,,,gray,circle
0.0,7.0,2.0,1.0,6.0,6.0,391.5961460006656,6.0,1.0,phase_2,stop,250.0,400.0,3.0,,,,,,,,,orange,cross
0.0,5.0,0.5,1.0,6.0,6.0,486.45212300016277,6.0,1.0,phase_2,stop,250.0,350.0,3.0,,,,,,,,,yellow,diamond
0.0,1.0,0.5,0.0,6.0,6.0,774.5214229998965,7.0,1.0,phase_2,go,250.0,300.0,1.0,,,,,,,,,magenta,square
0.0,5.0,0.5,1.0,6.0,6.0,278.6979940001401,7.0,1.0,phase_2,stop,250.0,300.0,3.0,,,,,,,,,yellow,diamond
0.0,5.0,0.5,1.0,5.0,5.0,317.8748850004922,7.0,1.0,phase_2,stop,250.0,250.0,3.0,,,,,,,,,yellow,diamond
0.0,6.0,1.0,1.0,5.0,0.0,0.0,7.0,1.0,phase_2,stop,200.0,250.0,4.0,,,,,,,,,blue,hexagon
0.0,4.0,4.0,0.0,6.0,6.0,336.0391179994622,7.0,1.0,phase_2,go,250.0,250.0,1.0,,,,,,,,,gray,circle
0.0,1.0,0.5,0.0,5.0,5.0,501.7071760003091,7.0,1.0,phase_2,go,250.0,250.0,1.0,,,,,,,,,magenta,square
0.0,1.0,0.5,0.0,5.0,5.0,354.3228700000327,7.0,1.0,phase_2,go,250.0,250.0,1.0,,,,,,,,,magenta,square
0.0,3.0,2.0,0.0,5.0,5.0,576.5617340002791,7.0,1.0,phase_2,go,250.0,250.0,1.0,,,,,,,,,cyan,I
0.0,5.0,0.5,1.0,6.0,6.0,391.5023750005275,7.0,1.0,phase_2,stop,250.0,250.0,3.0,,,,,,,,,yellow,diamond
0.0,7.0,2.0,1.0,6.0,0.0,0.0,7.0,1.0,phase_2,stop,250.0,200.0,4.0,,,,,,,,,orange,cross
0.0,5.0,0.5,1.0,5.0,5.0,290.2713080002286,7.0,1.0,phase_2,stop,250.0,250.0,3.0,,,,,,,,,yellow,diamond
0.0,3.0,2.0,0.0,5.0,5.0,642.9904480000914,7.0,1.0,phase_2,go,200.0,250.0,1.0,,,,,,,,,cyan,I
0.0,3.0,2.0,0.0,6.0,6.0,578.4079039995049,7.0,1.0,phase_2,go,200.0,250.0,1.0,,,,,,,,,cyan,I
0.0,7.0,2.0,1.0,5.0,5.0,585.5788429998938,7.0,1.0,phase_2,go,200.0,250.0,1.0,,,,,,,,,orange,cross
0.0,1.0,0.5,0.0,5.0,5.0,475.4457019998881,7.0,1.0,phase_2,go,200.0,250.0,1.0,,,,,,,,,magenta,square
0.0,3.0,2.0,0.0,5.0,5.0,288.1083250003939,7.0,1.0,phase_2,go,200.0,250.0,1.0,,,,,,,,,cyan,I
0.0,8.0,4.0,1.0,6.0,6.0,567.0461019999493,7.0,1.0,phase_2,go,200.0,250.0,1.0,,,,,,,,,white,triangle
0.0,5.0,0.5,1.0,6.0,0.0,0.0,7.0,1.0,phase_2,stop,200.0,250.0,4.0,,,,,,,,,yellow,diamond
0.0,5.0,0.5,1.0,6.0,0.0,0.0,7.0,1.0,phase_2,stop,200.0,300.0,4.0,,,,,,,,,yellow,diamond
0.0,7.0,2.0,1.0,5.0,0.0,0.0,7.0,1.0,phase_2,stop,200.0,350.0,4.0,,,,,,,,,orange,cross
0.0,6.0,1.0,1.0,6.0,6.0,511.2035440006366,7.0,1.0,phase_2,go,250.0,350.0,1.0,,,,,,,,,blue,hexagon
0.0,1.0,0.5,0.0,6.0,6.0,640.4444899999362,7.0,1.0,phase_2,go,250.0,350.0,1.0,,,,,,,,,magenta,square
0.0,6.0,1.0,1.0,5.0,0.0,0.0,7.0,1.0,phase_2,stop,250.0,350.0,4.0,,,,,,,,,blue,hexagon
0.0,2.0,1.0,0.0,6.0,6.0,529.2275599995264,7.0,1.0,phase_2,go,300.0,350.0,1.0,,,,,,,,,green,flipped triangle
0.0,6.0,1.0,1.0,6.0,0.0,0.0,7.0,1.0,phase_2,stop,300.0,350.0,4.0,,,,,,,,,blue,hexagon
0.0,1.0,0.5,0.0,6.0,6.0,475.7845740004995,7.0,1.0,phase_2,go,300.0,400.0,1.0,,,,,,,,,magenta,square
0.0,8.0,4.0,1.0,6.0,0.0,0.0,7.0,1.0,phase_2,stop,300.0,400.0,4.0,,,,,,,,,white,triangle
0.0,7.0,2.0,1.0,5.0,5.0,595.7586939994144,7.0,1.0,phase_2,go,300.0,450.0,1.0,,,,,,,,,orange,cross
0.0,8.0,4.0,1.0,6.0,6.0,633.0977110001186,7.0,1.0,phase_2,stop,300.0,450.0,3.0,,,,,,,,,white,triangle
0.0,5.0,0.5,1.0,6.0,6.0,772.5979570004711,7.0,1.0,phase_2,go,300.0,400.0,1.0,,,,,,,,,yellow,diamond
0.0,3.0,2.0,0.0,5.0,5.0,623.274691000006,7.0,1.0,phase_2,go,300.0,400.0,1.0,,,,,,,,,cyan,I
0.0,7.0,2.0,1.0,6.0,0.0,0.0,7.0,1.0,phase_2,stop,300.0,400.0,4.0,,,,,,,,,orange,cross
0.0,5.0,0.5,1.0,6.0,6.0,791.5808139996443,7.0,1.0,phase_2,go,300.0,450.0,1.0,,,,,,,,,yellow,diamond
0.0,5.0,0.5,1.0,5.0,5.0,680.748173000211,7.0,1.0,phase_2,go,300.0,450.0,1.0,,,,,,,,,yellow,diamond
0.0,8.0,4.0,1.0,6.0,6.0,500.7457579995389,7.0,1.0,phase_2,stop,300.0,450.0,3.0,,,,,,,,,white,triangle
0.0,4.0,4.0,0.0,5.0,5.0,585.5279569996128,7.0,1.0,phase_2,go,300.0,400.0,1.0,,,,,,,,,gray,circle
0.0,4.0,4.0,0.0,6.0,6.0,531.8011770004887,8.0,1.0,phase_2,go,300.0,400.0,1.0,,,,,,,,,gray,circle
0.0,1.0,0.5,0.0,6.0,6.0,300.177389000055,8.0,1.0,phase_2,go,300.0,400.0,1.0,,,,,,,,,magenta,square
0.0,3.0,2.0,0.0,6.0,6.0,540.2555170003325,8.0,1.0,phase_2,go,300.0,400.0,1.0,,,,,,,,,cyan,I
0.0,7.0,2.0,1.0,5.0,0.0,0.0,8.0,1.0,phase_2,stop,300.0,400.0,4.0,,,,,,,,,orange,cross
0.0,2.0,1.0,0.0,5.0,5.0,644.4876440000371,8.0,1.0,phase_2,go,350.0,400.0,1.0,,,,,,,,,green,flipped triangle
0.0,5.0,0.5,1.0,5.0,5.0,431.839217999368,8.0,1.0,phase_2,stop,350.0,400.0,3.0,,,,,,,,,yellow,diamond
0.0,7.0,2.0,1.0,6.0,0.0,0.0,8.0,1.0,phase_2,stop,300.0,400.0,4.0,,,,,,,,,orange,cross
0.0,4.0,4.0,0.0,5.0,5.0,643.8402670000869,8.0,1.0,phase_2,go,300.0,450.0,1.0,,,,,,,,,gray,circle
0.0,3.0,2.0,0.0,6.0,6.0,505.0176430004285,8.0,1.0,phase_2,go,300.0,450.0,1.0,,,,,,,,,cyan,I
0.0,7.0,2.0,1.0,6.0,6.0,669.422659000702,8.0,1.0,phase_2,go,300.0,450.0,1.0,,,,,,,,,orange,cross
0.0,7.0,2.0,1.0,6.0,6.0,542.3071619998154,8.0,1.0,phase_2,stop,300.0,450.0,3.0,,,,,,,,,orange,cross
0.0,7.0,2.0,1.0,6.0,0.0,0.0,8.0,1.0,phase_2,stop,300.0,400.0,4.0,,,,,,,,,orange,cross
0.0,8.0,4.0,1.0,6.0,6.0,738.3912650002458,8.0,1.0,phase_2,go,300.0,450.0,1.0,,,,,,,,,white,triangle
0.0,3.0,2.0,0.0,5.0,5.0,644.3231120001656,8.0,1.0,phase_2,go,300.0,450.0,1.0,,,,,,,,,cyan,I
0.0,8.0,4.0,1.0,6.0,6.0,624.6927960000903,8.0,1.0,phase_2,go,300.0,450.0,1.0,,,,,,,,,white,triangle
0.0,6.0,1.0,1.0,5.0,0.0,0.0,8.0,1.0,phase_2,stop,300.0,450.0,4.0,,,,,,,,,blue,hexagon
0.0,8.0,4.0,1.0,5.0,5.0,335.1477980004347,8.0,1.0,phase_2,stop,350.0,450.0,3.0,,,,,,,,,white,triangle
0.0,6.0,1.0,1.0,5.0,5.0,772.6778349997403,8.0,1.0,phase_2,go,300.0,450.0,1.0,,,,,,,,,blue,hexagon
0.0,3.0,2.0,0.0,5.0,5.0,531.7841899995983,8.0,1.0,phase_2,go,300.0,450.0,1.0,,,,,,,,,cyan,I
0.0,8.0,4.0,1.0,6.0,6.0,662.8065960003369,8.0,1.0,phase_2,go,300.0,450.0,1.0,,,,,,,,,white,triangle
0.0,6.0,1.0,1.0,6.0,6.0,610.3978940000161,8.0,1.0,phase_2,stop,300.0,450.0,3.0,,,,,,,,,blue,hexagon
0.0,5.0,0.5,1.0,5.0,0.0,0.0,8.0,1.0,phase_2,stop,300.0,400.0,4.0,,,,,,,,,yellow,diamond
0.0,6.0,1.0,1.0,5.0,0.0,0.0,8.0,1.0,phase_2,stop,350.0,400.0,4.0,,,,,,,,,blue,hexagon
0.0,1.0,0.5,0.0,5.0,5.0,605.6841749996238,8.0,1.0,phase_2,go,400.0,400.0,1.0,,,,,,,,,magenta,square
0.0,8.0,4.0,1.0,5.0,0.0,0.0,8.0,1.0,phase_2,stop,400.0,400.0,4.0,,,,,,,,,white,triangle
0.0,5.0,0.5,1.0,6.0,0.0,0.0,8.0,1.0,phase_2,stop,450.0,400.0,4.0,,,,,,,,,yellow,diamond
0.0,4.0,4.0,0.0,5.0,5.0,737.3041300006662,8.0,1.0,phase_2,go,450.0,450.0,1.0,,,,,,,,,gray,circle
0.0,2.0,1.0,0.0,5.0,5.0,789.8945850001837,8.0,1.0,phase_2,go,450.0,450.0,1.0,,,,,,,,,green,flipped triangle
0.0,8.0,4.0,1.0,5.0,0.0,0.0,8.0,1.0,phase_2,stop,450.0,450.0,4.0,,,,,,,,,white,triangle
0.0,4.0,4.0,0.0,5.0,5.0,791.2666009997338,8.0,1.0,phase_2,go,500.0,450.0,1.0,,,,,,,,,gray,circle
0.0,4.0,4.0,0.0,6.0,6.0,701.4214329992683,8.0,1.0,phase_2,go,500.0,450.0,1.0,,,,,,,,,gray,circle
0.0,1.0,0.5,0.0,6.0,6.0,625.0346240003637,8.0,1.0,phase_2,go,500.0,450.0,1.0,,,,,,,,,magenta,square
0.0,2.0,1.0,0.0,6.0,6.0,643.8294679992396,8.0,1.0,phase_2,go,500.0,450.0,1.0,,,,,,,,,green,flipped triangle
0.0,4.0,4.0,0.0,5.0,5.0,710.0198489997638,8.0,1.0,phase_2,go,500.0,450.0,1.0,,,,,,,,,gray,circle
0.0,6.0,1.0,1.0,6.0,6.0,746.3957580002898,8.0,1.0,phase_2,go,500.0,450.0,1.0,,,,,,,,,blue,hexagon
0.0,5.0,0.5,1.0,5.0,5.0,402.0464770001126,8.0,1.0,phase_2,stop,500.0,450.0,3.0,,,,,,,,,yellow,diamond
0.0,7.0,2.0,1.0,7.0,2.0,3407.1030719997,1.0,1.0,phase_3,,,,,519.0,3.0,692.0,519.0,865.0,173.0,1038.0,346.0,orange,cross
0.0,1.0,0.5,0.0,7.0,6.0,3287.069956000778,1.0,1.0,phase_3,,,,,675.0,5.0,135.0,405.0,270.0,810.0,540.0,675.0,magenta,square
0.0,5.0,0.5,1.0,7.0,5.0,1954.9204929999175,1.0,1.0,phase_3,,,,,1038.0,6.0,692.0,519.0,173.0,346.0,1038.0,865.0,yellow,diamond
0.0,8.0,4.0,1.0,7.0,2.0,1619.190401999731,1.0,1.0,phase_3,,,,,308.0,2.0,924.0,308.0,770.0,616.0,154.0,462.0,white,triangle
0.0,7.0,2.0,1.0,7.0,2.0,2257.6035029997,1.0,1.0,phase_3,,,,,768.0,4.0,576.0,768.0,1152.0,384.0,960.0,192.0,orange,cross
0.0,5.0,0.5,1.0,7.0,2.0,2792.178005999631,1.0,1.0,phase_3,,,,,924.0,6.0,462.0,924.0,770.0,308.0,616.0,154.0,yellow,diamond
0.0,6.0,1.0,1.0,7.0,4.0,1399.4696730005671,1.0,1.0,phase_3,,,,,924.0,6.0,770.0,616.0,462.0,924.0,154.0,308.0,blue,hexagon
0.0,6.0,1.0,1.0,7.0,5.0,4363.716875999671,1.0,1.0,phase_3,,,,,696.0,6.0,580.0,348.0,464.0,232.0,696.0,116.0,blue,hexagon
0.0,3.0,2.0,0.0,7.0,5.0,2433.043140999871,1.0,1.0,phase_3,,,,,580.0,5.0,464.0,116.0,348.0,232.0,580.0,696.0,cyan,I
0.0,8.0,4.0,1.0,7.0,3.0,1306.9609199992556,1.0,1.0,phase_3,,,,,346.0,2.0,173.0,519.0,346.0,1038.0,865.0,692.0,white,triangle
0.0,1.0,0.5,0.0,7.0,2.0,2004.6582469994974,1.0,1.0,phase_3,,,,,924.0,6.0,770.0,924.0,308.0,462.0,616.0,154.0,magenta,square
0.0,7.0,2.0,1.0,7.0,2.0,2251.7806050000218,1.0,1.0,phase_3,,,,,768.0,4.0,960.0,768.0,384.0,1152.0,576.0,192.0,orange,cross
0.0,8.0,4.0,1.0,7.0,1.0,1030.4611089995888,1.0,1.0,phase_3,,,,,348.0,3.0,348.0,580.0,696.0,464.0,116.0,232.0,white,triangle
0.0,1.0,0.5,0.0,7.0,2.0,1559.5114380002997,1.0,1.0,phase_3,,,,,810.0,6.0,405.0,810.0,540.0,270.0,135.0,675.0,magenta,square
0.0,6.0,1.0,1.0,7.0,1.0,1750.7145099998525,1.0,1.0,phase_3,,,,,770.0,5.0,770.0,308.0,616.0,924.0,154.0,462.0,blue,hexagon
0.0,2.0,1.0,0.0,7.0,1.0,2026.2503209996794,1.0,1.0,phase_3,,,,,1152.0,6.0,1152.0,384.0,768.0,192.0,576.0,960.0,green,flipped triangle
0.0,5.0,0.5,1.0,7.0,1.0,1907.43513399957,1.0,1.0,phase_3,,,,,580.0,5.0,580.0,348.0,232.0,696.0,464.0,116.0,yellow,diamond
0.0,4.0,4.0,0.0,7.0,5.0,2085.3806929999337,1.0,1.0,phase_3,,,,,192.0,1.0,960.0,576.0,384.0,1152.0,192.0,768.0,gray,circle
0.0,5.0,0.5,1.0,7.0,2.0,1021.3721149993944,1.0,1.0,phase_3,,,,,770.0,5.0,924.0,770.0,308.0,462.0,616.0,154.0,yellow,diamond
0.0,8.0,4.0,1.0,7.0,6.0,2944.332219999524,1.0,1.0,phase_3,,,,,270.0,2.0,135.0,405.0,810.0,675.0,540.0,270.0,white,triangle
0.0,2.0,1.0,0.0,7.0,2.0,2325.5483240000103,2.0,1.0,phase_3,,,,,540.0,4.0,270.0,540.0,810.0,135.0,405.0,675.0,green,flipped triangle
0.0,7.0,2.0,1.0,7.0,3.0,1363.5507429999052,2.0,1.0,phase_3,,,,,462.0,3.0,308.0,924.0,462.0,616.0,770.0,154.0,orange,cross
0.0,8.0,4.0,1.0,7.0,3.0,3021.3032689998727,2.0,1.0,phase_3,,,,,270.0,2.0,540.0,810.0,270.0,405.0,675.0,135.0,white,triangle
0.0,6.0,1.0,1.0,7.0,4.0,3112.770177000129,2.0,1.0,phase_3,,,,,675.0,5.0,405.0,810.0,270.0,675.0,540.0,135.0,blue,hexagon
0.0,1.0,0.5,0.0,7.0,1.0,1204.4583159995454,2.0,1.0,phase_3,,,,,770.0,5.0,770.0,616.0,308.0,924.0,462.0,154.0,magenta,square
0.0,6.0,1.0,1.0,7.0,6.0,2982.9857320000883,2.0,1.0,phase_3,,,,,692.0,4.0,519.0,1038.0,865.0,173.0,346.0,692.0,blue,hexagon
0.0,8.0,4.0,1.0,7.0,3.0,1417.5518749998446,2.0,1.0,phase_3,,,,,348.0,3.0,696.0,580.0,348.0,116.0,464.0,232.0,white,triangle
0.0,4.0,4.0,0.0,7.0,1.0,1240.7284759992765,2.0,1.0,phase_3,,,,,135.0,1.0,135.0,675.0,270.0,810.0,540.0,405.0,gray,circle
0.0,2.0,1.0,0.0,7.0,3.0,2116.093673999785,2.0,1.0,phase_3,,,,,924.0,6.0,154.0,770.0,924.0,308.0,462.0,616.0,green,flipped triangle
0.0,8.0,4.0,1.0,7.0,3.0,1538.1860589995997,2.0,1.0,phase_3,,,,,154.0,1.0,308.0,770.0,154.0,616.0,924.0,462.0,white,triangle
0.0,1.0,0.5,0.0,7.0,1.0,1157.5210359997072,2.0,1.0,phase_3,,,,,865.0,5.0,865.0,346.0,519.0,1038.0,173.0,692.0,magenta,square
0.0,6.0,1.0,1.0,7.0,3.0,1047.9778019998776,2.0,1.0,phase_3,,,,,810.0,6.0,135.0,405.0,810.0,540.0,270.0,675.0,blue,hexagon
0.0,6.0,1.0,1.0,7.0,3.0,668.6446740004612,2.0,1.0,phase_3,,,,,576.0,3.0,384.0,192.0,576.0,960.0,768.0,1152.0,blue,hexagon
0.0,7.0,2.0,1.0,7.0,4.0,1545.0762929995108,2.0,1.0,phase_3,,,,,770.0,5.0,616.0,462.0,924.0,770.0,154.0,308.0,orange,cross
0.0,3.0,2.0,0.0,7.0,2.0,2194.7748069997037,2.0,1.0,phase_3,,,,,308.0,2.0,462.0,308.0,924.0,616.0,154.0,770.0,cyan,I
0.0,6.0,1.0,1.0,7.0,2.0,1596.5164749995893,2.0,1.0,phase_3,,,,,692.0,4.0,865.0,692.0,1038.0,346.0,519.0,173.0,blue,hexagon
0.0,4.0,4.0,0.0,7.0,5.0,1639.857887000289,2.0,1.0,phase_3,,,,,116.0,1.0,232.0,580.0,348.0,464.0,116.0,696.0,gray,circle
0.0,1.0,0.5,0.0,7.0,5.0,1720.9760599998845,2.0,1.0,phase_3,,,,,768.0,4.0,576.0,960.0,384.0,1152.0,768.0,192.0,magenta,square
0.0,6.0,1.0,1.0,7.0,4.0,1137.7852860005078,2.0,1.0,phase_3,,,,,696.0,6.0,116.0,348.0,232.0,696.0,464.0,580.0,blue,hexagon
0.0,5.0,0.5,1.0,7.0,3.0,1373.629345999689,2.0,1.0,phase_3,,,,,1152.0,6.0,384.0,576.0,1152.0,960.0,192.0,768.0,yellow,diamond
0.0,3.0,2.0,0.0,7.0,3.0,1039.4600360004915,3.0,1.0,phase_3,,,,,348.0,3.0,464.0,116.0,348.0,696.0,580.0,232.0,cyan,I
0.0,2.0,1.0,0.0,7.0,4.0,2818.9124589998755,3.0,1.0,phase_3,,,,,960.0,5.0,1152.0,192.0,576.0,960.0,384.0,768.0,green,flipped triangle
0.0,1.0,0.5,0.0,7.0,2.0,3294.838009000159,3.0,1.0,phase_3,,,,,696.0,6.0,348.0,696.0,116.0,232.0,580.0,464.0,magenta,square
0.0,8.0,4.0,1.0,7.0,1.0,1619.472577000124,3.0,1.0,phase_3,,,,,192.0,1.0,192.0,576.0,960.0,1152.0,768.0,384.0,white,triangle
0.0,7.0,2.0,1.0,7.0,4.0,2399.7123000008287,3.0,1.0,phase_3,,,,,865.0,5.0,173.0,1038.0,519.0,865.0,346.0,692.0,orange,cross
0.0,2.0,1.0,0.0,7.0,3.0,492.0865660005802,3.0,1.0,phase_3,,,,,232.0,2.0,696.0,464.0,232.0,580.0,116.0,348.0,green,flipped triangle
0.0,5.0,0.5,1.0,7.0,4.0,260.4891289993247,3.0,1.0,phase_3,,,,,692.0,4.0,865.0,1038.0,519.0,692.0,346.0,173.0,yellow,diamond
0.0,3.0,2.0,0.0,7.0,1.0,398.1536060000508,3.0,1.0,phase_3,,,,,346.0,2.0,346.0,519.0,865.0,1038.0,692.0,173.0,cyan,I
0.0,2.0,1.0,0.0,7.0,2.0,1063.071515000047,3.0,1.0,phase_3,,,,,1038.0,6.0,173.0,1038.0,346.0,865.0,519.0,692.0,green,flipped triangle
0.0,7.0,2.0,1.0,7.0,5.0,1185.9096650005083,3.0,1.0,phase_3,,,,,810.0,6.0,675.0,135.0,405.0,540.0,810.0,270.0,orange,cross
0.0,2.0,1.0,0.0,7.0,2.0,380.1369919992794,3.0,1.0,phase_3,,,,,865.0,5.0,692.0,865.0,173.0,346.0,1038.0,519.0,green,flipped triangle
0.0,4.0,4.0,0.0,7.0,6.0,1490.135413000644,3.0,1.0,phase_3,,,,,154.0,1.0,308.0,616.0,770.0,462.0,924.0,154.0,gray,circle
0.0,4.0,4.0,0.0,7.0,4.0,1788.555615000405,3.0,1.0,phase_3,,,,,173.0,1.0,865.0,692.0,519.0,173.0,346.0,1038.0,gray,circle
0.0,7.0,2.0,1.0,7.0,5.0,2045.1099140000224,3.0,1.0,phase_3,,,,,348.0,3.0,696.0,232.0,580.0,116.0,348.0,464.0,orange,cross
0.0,5.0,0.5,1.0,7.0,2.0,788.4303769997132,3.0,1.0,phase_3,,,,,1152.0,6.0,576.0,1152.0,384.0,768.0,960.0,192.0,yellow,diamond
0.0,1.0,0.5,0.0,7.0,1.0,1145.931422999638,3.0,1.0,phase_3,,,,,580.0,5.0,580.0,232.0,348.0,116.0,464.0,696.0,magenta,square
0.0,8.0,4.0,1.0,7.0,2.0,1436.283910000384,3.0,1.0,phase_3,,,,,192.0,1.0,384.0,192.0,576.0,960.0,768.0,1152.0,white,triangle
0.0,1.0,0.5,0.0,7.0,6.0,1196.0712989994136,3.0,1.0,phase_3,,,,,1152.0,6.0,576.0,384.0,768.0,192.0,960.0,1152.0,magenta,square
0.0,7.0,2.0,1.0,7.0,5.0,1425.9352150002087,3.0,1.0,phase_3,,,,,348.0,3.0,116.0,580.0,232.0,696.0,348.0,464.0,orange,cross
0.0,3.0,2.0,0.0,7.0,6.0,1579.0181470001698,3.0,1.0,phase_3,,,,,270.0,2.0,675.0,540.0,135.0,810.0,405.0,270.0,cyan,I
0.0,3.0,2.0,0.0,7.0,2.0,703.5148060003849,4.0,1.0,phase_3,,,,,810.0,6.0,135.0,810.0,675.0,405.0,270.0,540.0,cyan,I
0.0,7.0,2.0,1.0,7.0,3.0,334.2800199998237,4.0,1.0,phase_3,,,,,675.0,5.0,540.0,405.0,675.0,810.0,270.0,135.0,orange,cross
0.0,4.0,4.0,0.0,7.0,5.0,889.3764369995552,4.0,1.0,phase_3,,,,,173.0,1.0,346.0,865.0,692.0,519.0,173.0,1038.0,gray,circle
0.0,2.0,1.0,0.0,7.0,6.0,1239.1267960001642,4.0,1.0,phase_3,,,,,924.0,6.0,308.0,770.0,616.0,462.0,154.0,924.0,green,flipped triangle
0.0,3.0,2.0,0.0,7.0,2.0,1593.0072190003557,4.0,1.0,phase_3,,,,,384.0,2.0,1152.0,384.0,768.0,960.0,576.0,192.0,cyan,I
0.0,4.0,4.0,0.0,7.0,3.0,1692.6839609996025,4.0,1.0,phase_3,,,,,154.0,1.0,616.0,770.0,154.0,462.0,308.0,924.0,gray,circle
0.0,1.0,0.5,0.0,7.0,2.0,973.5996199997315,4.0,1.0,phase_3,,,,,1038.0,6.0,173.0,1038.0,692.0,865.0,519.0,346.0,magenta,square
0.0,6.0,1.0,1.0,7.0,6.0,942.8378200000224,4.0,1.0,phase_3,,,,,768.0,4.0,960.0,384.0,192.0,576.0,1152.0,768.0,blue,hexagon
0.0,8.0,4.0,1.0,7.0,2.0,731.3197860003129,4.0,1.0,phase_3,,,,,519.0,3.0,692.0,519.0,173.0,346.0,1038.0,865.0,white,triangle
0.0,2.0,1.0,0.0,7.0,1.0,1157.7165460003016,4.0,1.0,phase_3,,,,,810.0,6.0,810.0,135.0,540.0,675.0,270.0,405.0,green,flipped triangle
0.0,4.0,4.0,0.0,7.0,2.0,760.0634600003104,4.0,1.0,phase_3,,,,,675.0,5.0,405.0,675.0,135.0,270.0,810.0,540.0,gray,circle
0.0,4.0,4.0,0.0,7.0,6.0,1407.2932240005684,4.0,1.0,phase_3,,,,,116.0,1.0,232.0,464.0,696.0,348.0,580.0,116.0,gray,circle
0.0,3.0,2.0,0.0,7.0,6.0,1101.5140300005442,4.0,1.0,phase_3,,,,,173.0,1.0,865.0,692.0,519.0,1038.0,346.0,173.0,cyan,I
0.0,5.0,0.5,1.0,7.0,5.0,1436.184158999822,4.0,1.0,phase_3,,,,,580.0,5.0,116.0,696.0,348.0,464.0,580.0,232.0,yellow,diamond
0.0,3.0,2.0,0.0,7.0,4.0,1527.2987489997831,4.0,1.0,phase_3,,,,,616.0,4.0,154.0,924.0,770.0,616.0,308.0,462.0,cyan,I
0.0,2.0,1.0,0.0,7.0,1.0,814.8531750002803,4.0,1.0,phase_3,,,,,580.0,5.0,580.0,116.0,464.0,232.0,696.0,348.0,green,flipped triangle
0.0,5.0,0.5,1.0,7.0,6.0,1841.8871379999475,4.0,1.0,phase_3,,,,,540.0,4.0,675.0,135.0,270.0,405.0,810.0,540.0,yellow,diamond
0.0,3.0,2.0,0.0,7.0,3.0,1148.0902900002548,4.0,1.0,phase_3,,,,,576.0,3.0,960.0,192.0,576.0,1152.0,768.0,384.0,cyan,I
0.0,5.0,0.5,1.0,7.0,1.0,870.9105059997455,4.0,1.0,phase_3,,,,,810.0,6.0,810.0,270.0,405.0,135.0,540.0,675.0,yellow,diamond
0.0,4.0,4.0,0.0,7.0,5.0,1611.8843300000665,4.0,1.0,phase_3,,,,,960.0,5.0,576.0,384.0,768.0,1152.0,960.0,192.0,gray,circle
