raw_reward_magnitude,stim_reward,stepwise_reward_magnitude,paired_with_stopping,stim_location,response,reaction_time,block,num_trial_presentations,which_phase,stop_signal_trial_type,left_SSD,right_SSD,accuracy,chosen_bidding_amount,chosen_bidding_level,possible_bid_1,possible_bid_2,possible_bid_3,possible_bid_4,possible_bid_5,possible_bid_6,color_text,shape_text
657.0,7.0,2.0,1.0,4.0,4.0,723.4145779998471,1.0,1.0,phase_1,,,,,,,,,,,,,white,flipped triangle
651.0,3.0,2.0,0.0,4.0,4.0,455.3471289996196,1.0,1.0,phase_1,,,,,,,,,,,,,yellow,diamond
305.0,6.0,1.0,1.0,3.0,3.0,448.3148489998712,1.0,1.0,phase_1,,,,,,,,,,,,,magenta,hexagon
162.0,1.0,0.5,0.0,3.0,3.0,353.5035169998082,1.0,1.0,phase_1,,,,,,,,,,,,,orange,square
640.0,7.0,2.0,1.0,2.0,2.0,520.3024749998804,1.0,1.0,phase_1,,,,,,,,,,,,,white,flipped triangle
1276.0,4.0,4.0,0.0,1.0,1.0,429.7188049999931,1.0,1.0,phase_1,,,,,,,,,,,,,green,I
653.0,3.0,2.0,0.0,4.0,4.0,364.3887690000156,1.0,1.0,phase_1,,,,,,,,,,,,,yellow,diamond
650.0,7.0,2.0,1.0,1.0,1.0,495.286402000147,1.0,1.0,phase_1,,,,,,,,,,,,,white,flipped triangle
304.0,6.0,1.0,1.0,1.0,1.0,466.6199389998837,1.0,1.0,phase_1,,,,,,,,,,,,,magenta,hexagon
139.0,5.0,0.5,1.0,2.0,2.0,679.4252059999053,1.0,1.0,phase_1,,,,,,,,,,,,,cyan,triangle
639.0,3.0,2.0,0.0,4.0,4.0,372.6136089999272,1.0,1.0,phase_1,,,,,,,,,,,,,yellow,diamond
349.0,6.0,1.0,1.0,3.0,3.0,372.4729000000479,1.0,1.0,phase_1,,,,,,,,,,,,,magenta,hexagon
1316.0,4.0,4.0,0.0,1.0,1.0,418.2672160000038,1.0,1.0,phase_1,,,,,,,,,,,,,green,I
147.0,1.0,0.5,0.0,1.0,1.0,353.8995450003313,1.0,1.0,phase_1,,,,,,,,,,,,,orange,square
652.0,3.0,2.0,0.0,4.0,4.0,375.9523929998067,1.0,1.0,phase_1,,,,,,,,,,,,,yellow,diamond
635.0,7.0,2.0,1.0,3.0,3.0,373.8368240001364,1.0,1.0,phase_1,,,,,,,,,,,,,white,flipped triangle
643.0,7.0,2.0,1.0,4.0,4.0,373.033698999734,1.0,1.0,phase_1,,,,,,,,,,,,,white,flipped triangle
339.0,2.0,1.0,0.0,1.0,1.0,392.1535939998648,1.0,1.0,phase_1,,,,,,,,,,,,,gray,cross
0.0,3.0,0.0,0.0,2.0,2.0,530.6473059999917,1.0,1.0,phase_1,,,,,,,,,,,,,yellow,diamond
665.0,3.0,2.0,0.0,2.0,2.0,614.1633749998618,1.0,1.0,phase_1,,,,,,,,,,,,,yellow,diamond
0.0,2.0,0.0,0.0,4.0,4.0,446.8353309998747,1.0,1.0,phase_1,,,,,,,,,,,,,gray,cross
1324.0,4.0,4.0,0.0,4.0,4.0,448.4417349999603,1.0,1.0,phase_1,,,,,,,,,,,,,green,I
1290.0,4.0,4.0,0.0,3.0,3.0,372.4268109999684,1.0,1.0,phase_1,,,,,,,,,,,,,green,I
0.0,5.0,0.0,1.0,3.0,3.0,400.3786950001995,1.0,1.0,phase_1,,,,,,,,,,,,,cyan,triangle
0.0,3.0,0.0,0.0,3.0,3.0,363.8955150004221,1.0,1.0,phase_1,,,,,,,,,,,,,yellow,diamond
186.0,5.0,0.5,1.0,1.0,1.0,678.3827680001195,1.0,1.0,phase_1,,,,,,,,,,,,,cyan,triangle
309.0,2.0,1.0,0.0,2.0,2.0,484.218762999717,1.0,1.0,phase_1,,,,,,,,,,,,,gray,cross
671.0,7.0,2.0,1.0,4.0,4.0,344.7274879999895,1.0,1.0,phase_1,,,,,,,,,,,,,white,flipped triangle
300.0,2.0,1.0,0.0,3.0,3.0,409.1160590000982,1.0,1.0,phase_1,,,,,,,,,,,,,gray,cross
0.0,6.0,0.0,1.0,3.0,3.0,399.8353590000079,1.0,1.0,phase_1,,,,,,,,,,,,,magenta,hexagon
156.0,5.0,0.5,1.0,2.0,2.0,692.5050149998242,1.0,1.0,phase_1,,,,,,,,,,,,,cyan,triangle
1283.0,8.0,4.0,1.0,1.0,1.0,546.1303870001757,1.0,1.0,phase_1,,,,,,,,,,,,,blue,circle
663.0,7.0,2.0,1.0,1.0,1.0,586.4191480000045,1.0,1.0,phase_1,,,,,,,,,,,,,white,flipped triangle
670.0,7.0,2.0,1.0,2.0,2.0,735.6657690002066,1.0,1.0,phase_1,,,,,,,,,,,,,white,flipped triangle
322.0,2.0,1.0,0.0,4.0,4.0,347.0714730001418,1.0,1.0,phase_1,,,,,,,,,,,,,gray,cross
627.0,7.0,2.0,1.0,3.0,3.0,325.45399800028457,1.0,1.0,phase_1,,,,,,,,,,,,,white,flipped triangle
0.0,4.0,0.0,0.0,2.0,2.0,558.0357629996797,1.0,1.0,phase_1,,,,,,,,,,,,,green,I
171.0,1.0,0.5,0.0,4.0,4.0,474.7307390002788,1.0,1.0,phase_1,,,,,,,,,,,,,orange,square
0.0,3.0,0.0,0.0,4.0,4.0,372.8720479998628,1.0,1.0,phase_1,,,,,,,,,,,,,yellow,diamond
1307.0,4.0,4.0,0.0,2.0,2.0,465.4565139999249,1.0,1.0,phase_1,,,,,,,,,,,,,green,I
0.0,4.0,0.0,0.0,2.0,2.0,445.277052000165,1.0,1.0,phase_1,,,,,,,,,,,,,green,I
669.0,7.0,2.0,1.0,1.0,1.0,551.0347700001148,1.0,1.0,phase_1,,,,,,,,,,,,,white,flipped triangle
1321.0,4.0,4.0,0.0,3.0,3.0,565.6187459999273,1.0,1.0,phase_1,,,,,,,,,,,,,green,I
157.0,1.0,0.5,0.0,1.0,1.0,621.8682449998596,1.0,1.0,phase_1,,,,,,,,,,,,,orange,square
1311.0,4.0,4.0,0.0,2.0,2.0,546.9682549996833,1.0,1.0,phase_1,,,,,,,,,,,,,green,I
674.0,7.0,2.0,1.0,2.0,2.0,613.2448640000803,1.0,1.0,phase_1,,,,,,,,,,,,,white,flipped triangle
164.0,5.0,0.5,1.0,1.0,1.0,584.367086000384,1.0,1.0,phase_1,,,,,,,,,,,,,cyan,triangle
1323.0,4.0,4.0,0.0,2.0,2.0,455.6246180000016,1.0,1.0,phase_1,,,,,,,,,,,,,green,I
0.0,4.0,0.0,0.0,1.0,1.0,435.6108500001028,1.0,1.0,phase_1,,,,,,,,,,,,,green,I
0.0,5.0,0.0,1.0,3.0,3.0,445.4367940002157,1.0,1.0,phase_1,,,,,,,,,,,,,cyan,triangle
1282.0,4.0,4.0,0.0,3.0,3.0,362.5511310001457,1.0,1.0,phase_1,,,,,,,,,,,,,green,I
647.0,7.0,2.0,1.0,3.0,3.0,447.0436880001216,1.0,1.0,phase_1,,,,,,,,,,,,,white,flipped triangle
170.0,1.0,0.5,0.0,3.0,3.0,408.8146419999248,1.0,1.0,phase_1,,,,,,,,,,,,,orange,square
137.0,5.0,0.5,1.0,2.0,2.0,687.5491959999636,1.0,1.0,phase_1,,,,,,,,,,,,,cyan,triangle
1315.0,8.0,4.0,1.0,2.0,2.0,632.0968820000417,1.0,1.0,phase_1,,,,,,,,,,,,,blue,circle
0.0,1.0,0.0,0.0,1.0,1.0,519.3387250001251,1.0,1.0,phase_1,,,,,,,,,,,,,orange,square
0.0,1.0,0.0,0.0,4.0,4.0,343.6543840002741,1.0,1.0,phase_1,,,,,,,,,,,,,orange,square
657.0,3.0,2.0,0.0,3.0,3.0,363.6496109998006,1.0,1.0,phase_1,,,,,,,,,,,,,yellow,diamond
319.0,6.0,1.0,1.0,4.0,4.0,436.5857040002083,1.0,1.0,phase_1,,,,,,,,,,,,,magenta,hexagon
186.0,1.0,0.5,0.0,3.0,3.0,361.5072720003809,1.0,1.0,phase_1,,,,,,,,,,,,,orange,square
634.0,3.0,2.0,0.0,3.0,3.0,333.4505699999681,1.0,1.0,phase_1,,,,,,,,,,,,,yellow,diamond
163.0,5.0,0.5,1.0,4.0,4.0,390.9974759999386,1.0,1.0,phase_1,,,,,,,,,,,,,cyan,triangle
338.0,2.0,1.0,0.0,3.0,3.0,363.4793800001716,1.0,1.0,phase_1,,,,,,,,,,,,,gray,cross
1320.0,8.0,4.0,1.0,4.0,4.0,352.0499539999946,1.0,1.0,phase_1,,,,,,,,,,,,,blue,circle
349.0,2.0,1.0,0.0,1.0,1.0,401.1899720003384,1.0,1.0,phase_1,,,,,,,,,,,,,gray,cross
628.0,7.0,2.0,1.0,3.0,3.0,464.3893639999987,1.0,1.0,phase_1,,,,,,,,,,,,,white,flipped triangle
327.0,2.0,1.0,0.0,4.0,4.0,380.8580140002959,1.0,1.0,phase_1,,,,,,,,,,,,,gray,cross
338.0,6.0,1.0,1.0,4.0,4.0,409.5403599999372,1.0,1.0,phase_1,,,,,,,,,,,,,magenta,hexagon
632.0,7.0,2.0,1.0,4.0,4.0,639.7846039999422,1.0,1.0,phase_1,,,,,,,,,,,,,white,flipped triangle
173.0,1.0,0.5,0.0,4.0,4.0,575.3658809999251,1.0,1.0,phase_1,,,,,,,,,,,,,orange,square
635.0,3.0,2.0,0.0,1.0,1.0,474.03316000009,1.0,2.0,phase_1,,,,,,,,,,,,,yellow,diamond
315.0,2.0,1.0,0.0,2.0,2.0,686.3095220001014,1.0,1.0,phase_1,,,,,,,,,,,,,gray,cross
0.0,7.0,0.0,1.0,3.0,3.0,429.0373580001869,1.0,1.0,phase_1,,,,,,,,,,,,,white,flipped triangle
628.0,3.0,2.0,0.0,1.0,1.0,501.46643200014296,1.0,1.0,phase_1,,,,,,,,,,,,,yellow,diamond
653.0,7.0,2.0,1.0,1.0,1.0,409.4696789998124,1.0,1.0,phase_1,,,,,,,,,,,,,white,flipped triangle
149.0,1.0,0.5,0.0,2.0,2.0,512.5705959999323,1.0,1.0,phase_1,,,,,,,,,,,,,orange,square
0.0,4.0,0.0,0.0,4.0,4.0,592.9918609999731,1.0,1.0,phase_1,,,,,,,,,,,,,green,I
315.0,2.0,1.0,0.0,1.0,1.0,408.732504999989,1.0,1.0,phase_1,,,,,,,,,,,,,gray,cross
0.0,1.0,0.0,0.0,2.0,2.0,770.351453999865,1.0,1.0,phase_1,,,,,,,,,,,,,orange,square
639.0,7.0,2.0,1.0,2.0,2.0,474.6719169997959,1.0,1.0,phase_1,,,,,,,,,,,,,white,flipped triangle
186.0,1.0,0.5,0.0,1.0,1.0,456.2363649997678,1.0,1.0,phase_1,,,,,,,,,,,,,orange,square
1285.0,4.0,4.0,0.0,4.0,4.0,418.5378639999726,1.0,1.0,phase_1,,,,,,,,,,,,,green,I
655.0,7.0,2.0,1.0,4.0,4.0,418.9224110000396,1.0,1.0,phase_1,,,,,,,,,,,,,white,flipped triangle
144.0,5.0,0.5,1.0,3.0,3.0,370.5329720000918,1.0,1.0,phase_1,,,,,,,,,,,,,cyan,triangle
163.0,1.0,0.5,0.0,2.0,2.0,418.0429289999665,1.0,1.0,phase_1,,,,,,,,,,,,,orange,square
334.0,2.0,1.0,0.0,3.0,3.0,389.1918909998821,1.0,1.0,phase_1,,,,,,,,,,,,,gray,cross
1307.0,8.0,4.0,1.0,2.0,2.0,594.5841390002897,1.0,1.0,phase_1,,,,,,,,,,,,,blue,circle
138.0,1.0,0.5,0.0,2.0,2.0,520.0690000001487,1.0,1.0,phase_1,,,,,,,,,,,,,orange,square
141.0,1.0,0.5,0.0,2.0,2.0,361.9158090000383,1.0,1.0,phase_1,,,,,,,,,,,,,orange,square
1311.0,8.0,4.0,1.0,3.0,3.0,372.7986330000021,1.0,1.0,phase_1,,,,,,,,,,,,,blue,circle
632.0,3.0,2.0,0.0,4.0,4.0,407.097509000323,1.0,1.0,phase_1,,,,,,,,,,,,,yellow,diamond
662.0,3.0,2.0,0.0,4.0,4.0,437.7419160000499,1.0,1.0,phase_1,,,,,,,,,,,,,yellow,diamond
308.0,2.0,1.0,0.0,2.0,2.0,538.9520799999445,1.0,1.0,phase_1,,,,,,,,,,,,,gray,cross
311.0,6.0,1.0,1.0,3.0,3.0,446.5533899997354,1.0,1.0,phase_1,,,,,,,,,,,,,magenta,hexagon
0.0,3.0,0.0,0.0,4.0,4.0,418.2303689999571,1.0,1.0,phase_1,,,,,,,,,,,,,yellow,diamond
1284.0,4.0,4.0,0.0,4.0,4.0,383.4809179998046,1.0,1.0,phase_1,,,,,,,,,,,,,green,I
630.0,3.0,2.0,0.0,1.0,1.0,428.3798779997596,1.0,1.0,phase_1,,,,,,,,,,,,,yellow,diamond
1287.0,8.0,4.0,1.0,3.0,3.0,437.0026430001417,1.0,1.0,phase_1,,,,,,,,,,,,,blue,circle
1296.0,8.0,4.0,1.0,1.0,1.0,753.0434190002779,1.0,1.0,phase_1,,,,,,,,,,,,,blue,circle
0.0,4.0,0.0,0.0,1.0,1.0,605.3620359998604,1.0,1.0,phase_1,,,,,,,,,,,,,green,I
1286.0,4.0,4.0,0.0,3.0,3.0,538.9656799998193,2.0,1.0,phase_1,,,,,,,,,,,,,green,I
147.0,5.0,0.5,1.0,4.0,4.0,445.2732260001539,2.0,1.0,phase_1,,,,,,,,,,,,,cyan,triangle
0.0,7.0,0.0,1.0,2.0,2.0,473.8257119997797,2.0,1.0,phase_1,,,,,,,,,,,,,white,flipped triangle
173.0,5.0,0.5,1.0,4.0,4.0,585.2986859999874,2.0,1.0,phase_1,,,,,,,,,,,,,cyan,triangle
328.0,6.0,1.0,1.0,3.0,3.0,400.6706909999593,2.0,1.0,phase_1,,,,,,,,,,,,,magenta,hexagon
343.0,2.0,1.0,0.0,4.0,4.0,381.1105669997232,2.0,1.0,phase_1,,,,,,,,,,,,,gray,cross
343.0,6.0,1.0,1.0,1.0,1.0,436.8640020002203,2.0,2.0,phase_1,,,,,,,,,,,,,magenta,hexagon
349.0,6.0,1.0,1.0,2.0,2.0,455.5410680000022,2.0,1.0,phase_1,,,,,,,,,,,,,magenta,hexagon
183.0,5.0,0.5,1.0,4.0,4.0,389.0192449998721,2.0,1.0,phase_1,,,,,,,,,,,,,cyan,triangle
161.0,1.0,0.5,0.0,4.0,4.0,434.9939509997966,2.0,1.0,phase_1,,,,,,,,,,,,,orange,square
0.0,3.0,0.0,0.0,2.0,2.0,390.1075190001393,2.0,1.0,phase_1,,,,,,,,,,,,,yellow,diamond
314.0,2.0,1.0,0.0,1.0,1.0,416.3602039998295,2.0,1.0,phase_1,,,,,,,,,,,,,gray,cross
656.0,7.0,2.0,1.0,2.0,2.0,445.3057749997242,2.0,1.0,phase_1,,,,,,,,,,,,,white,flipped triangle
0.0,7.0,0.0,1.0,3.0,3.0,362.8527729997586,2.0,1.0,phase_1,,,,,,,,,,,,,white,flipped triangle
1315.0,4.0,4.0,0.0,3.0,3.0,335.4113440000219,2.0,2.0,phase_1,,,,,,,,,,,,,green,I
0.0,4.0,0.0,0.0,3.0,3.0,427.8549300001941,2.0,1.0,phase_1,,,,,,,,,,,,,green,I
174.0,1.0,0.5,0.0,3.0,3.0,520.908801999667,2.0,1.0,phase_1,,,,,,,,,,,,,orange,square
1302.0,4.0,4.0,0.0,4.0,4.0,453.3888860000843,2.0,1.0,phase_1,,,,,,,,,,,,,green,I
341.0,6.0,1.0,1.0,3.0,3.0,370.9653880000587,2.0,1.0,phase_1,,,,,,,,,,,,,magenta,hexagon
0.0,6.0,0.0,1.0,4.0,4.0,343.6964190000253,2.0,1.0,phase_1,,,,,,,,,,,,,magenta,hexagon
180.0,1.0,0.5,0.0,3.0,3.0,362.7486259997567,2.0,1.0,phase_1,,,,,,,,,,,,,orange,square
309.0,6.0,1.0,1.0,4.0,4.0,363.3007169996745,2.0,1.0,phase_1,,,,,,,,,,,,,magenta,hexagon
665.0,7.0,2.0,1.0,2.0,2.0,512.1109870001419,2.0,1.0,phase_1,,,,,,,,,,,,,white,flipped triangle
168.0,1.0,0.5,0.0,4.0,4.0,606.231704000038,2.0,1.0,phase_1,,,,,,,,,,,,,orange,square
1316.0,8.0,4.0,1.0,2.0,2.0,584.4807559997207,2.0,1.0,phase_1,,,,,,,,,,,,,blue,circle
1288.0,8.0,4.0,1.0,3.0,3.0,342.9582909998316,2.0,1.0,phase_1,,,,,,,,,,,,,blue,circle
0.0,6.0,0.0,1.0,1.0,1.0,491.0437270000329,2.0,1.0,phase_1,,,,,,,,,,,,,magenta,hexagon
155.0,1.0,0.5,0.0,1.0,1.0,493.1844950001505,2.0,1.0,phase_1,,,,,,,,,,,,,orange,square
327.0,2.0,1.0,0.0,2.0,2.0,472.9797160002817,2.0,1.0,phase_1,,,,,,,,,,,,,gray,cross
322.0,2.0,1.0,0.0,2.0,2.0,380.4710680001335,2.0,1.0,phase_1,,,,,,,,,,,,,gray,cross
1321.0,8.0,4.0,1.0,3.0,3.0,372.6710390001244,2.0,1.0,phase_1,,,,,,,,,,,,,blue,circle
645.0,7.0,2.0,1.0,1.0,1.0,556.8939170002523,2.0,1.0,phase_1,,,,,,,,,,,,,white,flipped triangle
1278.0,4.0,4.0,0.0,1.0,1.0,602.4067829998785,2.0,1.0,phase_1,,,,,,,,,,,,,green,I
664.0,3.0,2.0,0.0,1.0,1.0,527.7972100002444,2.0,1.0,phase_1,,,,,,,,,,,,,yellow,diamond
0.0,5.0,0.0,1.0,2.0,2.0,585.1171519998388,2.0,1.0,phase_1,,,,,,,,,,,,,cyan,triangle
311.0,2.0,1.0,0.0,2.0,2.0,436.7617729999438,2.0,1.0,phase_1,,,,,,,,,,,,,gray,cross
340.0,2.0,1.0,0.0,1.0,1.0,482.1556780002538,2.0,1.0,phase_1,,,,,,,,,,,,,gray,cross
656.0,3.0,2.0,0.0,1.0,1.0,463.95260100007357,2.0,1.0,phase_1,,,,,,,,,,,,,yellow,diamond
665.0,7.0,2.0,1.0,3.0,3.0,445.9469929997794,2.0,1.0,phase_1,,,,,,,,,,,,,white,flipped triangle
0.0,6.0,0.0,1.0,3.0,3.0,390.5656179999823,2.0,1.0,phase_1,,,,,,,,,,,,,magenta,hexagon
0.0,8.0,0.0,1.0,4.0,4.0,437.7036900000348,2.0,1.0,phase_1,,,,,,,,,,,,,blue,circle
0.0,1.0,0.0,0.0,1.0,1.0,446.1521610001,2.0,1.0,phase_1,,,,,,,,,,,,,orange,square
1303.0,8.0,4.0,1.0,3.0,3.0,371.2367960001757,2.0,1.0,phase_1,,,,,,,,,,,,,blue,circle
1306.0,8.0,4.0,1.0,3.0,3.0,380.1962470001854,2.0,1.0,phase_1,,,,,,,,,,,,,blue,circle
0.0,5.0,0.0,1.0,2.0,2.0,464.0225970001665,2.0,1.0,phase_1,,,,,,,,,,,,,cyan,triangle
187.0,1.0,0.5,0.0,4.0,4.0,437.7089740000883,2.0,1.0,phase_1,,,,,,,,,,,,,orange,square
1278.0,4.0,4.0,0.0,4.0,4.0,419.2804829999659,2.0,1.0,phase_1,,,,,,,,,,,,,green,I
637.0,3.0,2.0,0.0,3.0,3.0,335.913007000272,2.0,1.0,phase_1,,,,,,,,,,,,,yellow,diamond
178.0,5.0,0.5,1.0,3.0,3.0,371.2153749997924,2.0,1.0,phase_1,,,,,,,,,,,,,cyan,triangle
1295.0,4.0,4.0,0.0,3.0,3.0,334.4354539999585,2.0,1.0,phase_1,,,,,,,,,,,,,green,I
155.0,1.0,0.5,0.0,1.0,1.0,417.9755239997575,2.0,1.0,phase_1,,,,,,,,,,,,,orange,square
663.0,3.0,2.0,0.0,2.0,2.0,594.353914000294,2.0,1.0,phase_1,,,,,,,,,,,,,yellow,diamond
631.0,3.0,2.0,0.0,2.0,2.0,639.9102139998831,2.0,1.0,phase_1,,,,,,,,,,,,,yellow,diamond
164.0,1.0,0.5,0.0,3.0,3.0,361.4017129998501,2.0,1.0,phase_1,,,,,,,,,,,,,orange,square
0.0,5.0,0.0,1.0,1.0,1.0,398.7272310000662,2.0,1.0,phase_1,,,,,,,,,,,,,cyan,triangle
304.0,2.0,1.0,0.0,3.0,3.0,343.5131649998766,2.0,1.0,phase_1,,,,,,,,,,,,,gray,cross
1300.0,8.0,4.0,1.0,4.0,4.0,455.0531499999124,2.0,1.0,phase_1,,,,,,,,,,,,,blue,circle
669.0,3.0,2.0,0.0,2.0,2.0,362.1375810002973,2.0,1.0,phase_1,,,,,,,,,,,,,yellow,diamond
1276.0,8.0,4.0,1.0,1.0,1.0,770.7706760002111,2.0,1.0,phase_1,,,,,,,,,,,,,blue,circle
1305.0,8.0,4.0,1.0,2.0,2.0,550.0123390002045,2.0,1.0,phase_1,,,,,,,,,,,,,blue,circle
664.0,7.0,2.0,1.0,3.0,3.0,354.2272639997463,2.0,1.0,phase_1,,,,,,,,,,,,,white,flipped triangle
644.0,7.0,2.0,1.0,1.0,1.0,435.12889800013,2.0,1.0,phase_1,,,,,,,,,,,,,white,flipped triangle
146.0,5.0,0.5,1.0,1.0,1.0,435.1015619999998,2.0,1.0,phase_1,,,,,,,,,,,,,cyan,triangle
0.0,3.0,0.0,0.0,2.0,2.0,530.2047059999495,2.0,1.0,phase_1,,,,,,,,,,,,,yellow,diamond
671.0,3.0,2.0,0.0,3.0,3.0,344.051889000184,2.0,1.0,phase_1,,,,,,,,,,,,,yellow,diamond
338.0,2.0,1.0,0.0,4.0,4.0,372.2528379998948,2.0,1.0,phase_1,,,,,,,,,,,,,gray,cross
0.0,7.0,0.0,1.0,3.0,3.0,381.5566420003051,2.0,1.0,phase_1,,,,,,,,,,,,,white,flipped triangle
0.0,2.0,0.0,0.0,3.0,3.0,317.3926800000117,2.0,1.0,phase_1,,,,,,,,,,,,,gray,cross
1313.0,8.0,4.0,1.0,4.0,4.0,381.8906999999854,2.0,1.0,phase_1,,,,,,,,,,,,,blue,circle
674.0,3.0,2.0,0.0,1.0,1.0,325.9551210003337,2.0,1.0,phase_1,,,,,,,,,,,,,yellow,diamond
308.0,6.0,1.0,1.0,1.0,1.0,389.7555120001925,2.0,1.0,phase_1,,,,,,,,,,,,,magenta,hexagon
1306.0,4.0,4.0,0.0,2.0,2.0,500.85050999996383,2.0,1.0,phase_1,,,,,,,,,,,,,green,I
334.0,6.0,1.0,1.0,4.0,4.0,398.7230559996533,2.0,1.0,phase_1,,,,,,,,,,,,,magenta,hexagon
0.0,2.0,0.0,0.0,2.0,2.0,372.0949799999289,2.0,1.0,phase_1,,,,,,,,,,,,,gray,cross
646.0,7.0,2.0,1.0,4.0,4.0,408.3012670002972,2.0,1.0,phase_1,,,,,,,,,,,,,white,flipped triangle
322.0,2.0,1.0,0.0,2.0,2.0,427.2641540001132,2.0,1.0,phase_1,,,,,,,,,,,,,gray,cross
0.0,2.0,0.0,0.0,4.0,4.0,491.3896339999155,2.0,1.0,phase_1,,,,,,,,,,,,,gray,cross
184.0,5.0,0.5,1.0,1.0,1.0,666.7140889999246,2.0,1.0,phase_1,,,,,,,,,,,,,cyan,triangle
168.0,5.0,0.5,1.0,3.0,3.0,391.1080590000892,2.0,1.0,phase_1,,,,,,,,,,,,,cyan,triangle
187.0,5.0,0.5,1.0,3.0,3.0,333.4097880001536,2.0,1.0,phase_1,,,,,,,,,,,,,cyan,triangle
1295.0,8.0,4.0,1.0,4.0,4.0,381.0853929999211,2.0,1.0,phase_1,,,,,,,,,,,,,blue,circle
0.0,8.0,0.0,1.0,3.0,3.0,389.6836310000253,2.0,1.0,phase_1,,,,,,,,,,,,,blue,circle
322.0,6.0,1.0,1.0,2.0,2.0,566.4223469998433,2.0,1.0,phase_1,,,,,,,,,,,,,magenta,hexagon
339.0,6.0,1.0,1.0,2.0,2.0,372.2499589998733,2.0,1.0,phase_1,,,,,,,,,,,,,magenta,hexagon
146.0,5.0,0.5,1.0,2.0,2.0,399.6911499998532,2.0,1.0,phase_1,,,,,,,,,,,,,cyan,triangle
1276.0,8.0,4.0,1.0,4.0,4.0,334.5382459997381,2.0,1.0,phase_1,,,,,,,,,,,,,blue,circle
1322.0,4.0,4.0,0.0,1.0,1.0,380.9660150000127,2.0,1.0,phase_1,,,,,,,,,,,,,green,I
665.0,3.0,2.0,0.0,2.0,2.0,380.6310569998459,2.0,1.0,phase_1,,,,,,,,,,,,,yellow,diamond
662.0,7.0,2.0,1.0,2.0,2.0,362.3477750002166,2.0,1.0,phase_1,,,,,,,,,,,,,white,flipped triangle
141.0,1.0,0.5,0.0,1.0,1.0,483.7323149999974,2.0,1.0,phase_1,,,,,,,,,,,,,orange,square
315.0,6.0,1.0,1.0,4.0,4.0,399.1544669997893,2.0,1.0,phase_1,,,,,,,,,,,,,magenta,hexagon
0.0,7.0,0.0,1.0,3.0,3.0,389.4661260001157,2.0,1.0,phase_1,,,,,,,,,,,,,white,flipped triangle
155.0,5.0,0.5,1.0,3.0,3.0,455.3590030000123,2.0,1.0,phase_1,,,,,,,,,,,,,cyan,triangle
664.0,3.0,2.0,0.0,1.0,1.0,390.213648000099,2.0,1.0,phase_1,,,,,,,,,,,,,yellow,diamond
171.0,5.0,0.5,1.0,4.0,4.0,353.019396000036,2.0,1.0,phase_1,,,,,,,,,,,,,cyan,triangle
0.0,7.0,0.0,1.0,3.0,3.0,344.8279609997371,2.0,1.0,phase_1,,,,,,,,,,,,,white,flipped triangle
315.0,6.0,1.0,1.0,2.0,2.0,631.2693380000383,2.0,1.0,phase_1,,,,,,,,,,,,,magenta,hexagon
0.0,3.0,0.0,0.0,1.0,1.0,467.2426789998098,2.0,1.0,phase_1,,,,,,,,,,,,,yellow,diamond
1313.0,4.0,4.0,0.0,3.0,3.0,344.0460530000564,2.0,1.0,phase_1,,,,,,,,,,,,,green,I
328.0,6.0,1.0,1.0,4.0,4.0,419.1004670001348,2.0,1.0,phase_1,,,,,,,,,,,,,magenta,hexagon
1306.0,4.0,4.0,0.0,1.0,1.0,381.8980770001872,3.0,1.0,phase_1,,,,,,,,,,,,,green,I
0.0,1.0,0.0,0.0,1.0,1.0,390.4014019999522,3.0,1.0,phase_1,,,,,,,,,,,,,orange,square
162.0,1.0,0.5,0.0,2.0,2.0,520.9053709995715,3.0,1.0,phase_1,,,,,,,,,,,,,orange,square
0.0,4.0,0.0,0.0,1.0,1.0,445.9015379998163,3.0,1.0,phase_1,,,,,,,,,,,,,green,I
1285.0,8.0,4.0,1.0,2.0,2.0,529.5706849997259,3.0,1.0,phase_1,,,,,,,,,,,,,blue,circle
651.0,7.0,2.0,1.0,4.0,4.0,408.8143210001362,3.0,1.0,phase_1,,,,,,,,,,,,,white,flipped triangle
166.0,5.0,0.5,1.0,1.0,1.0,399.3507780000982,3.0,1.0,phase_1,,,,,,,,,,,,,cyan,triangle
1322.0,8.0,4.0,1.0,1.0,1.0,539.964080000118,3.0,1.0,phase_1,,,,,,,,,,,,,blue,circle
305.0,2.0,1.0,0.0,4.0,4.0,492.3491509998712,3.0,1.0,phase_1,,,,,,,,,,,,,gray,cross
327.0,6.0,1.0,1.0,1.0,1.0,306.1148869996941,3.0,2.0,phase_1,,,,,,,,,,,,,magenta,hexagon
314.0,6.0,1.0,1.0,4.0,4.0,454.6796920003544,3.0,1.0,phase_1,,,,,,,,,,,,,magenta,hexagon
186.0,5.0,0.5,1.0,2.0,2.0,426.3866049996068,3.0,1.0,phase_1,,,,,,,,,,,,,cyan,triangle
181.0,1.0,0.5,0.0,1.0,1.0,500.9075739999389,3.0,1.0,phase_1,,,,,,,,,,,,,orange,square
319.0,2.0,1.0,0.0,4.0,4.0,362.8952099998059,3.0,1.0,phase_1,,,,,,,,,,,,,gray,cross
183.0,1.0,0.5,0.0,4.0,4.0,381.4497869998376,3.0,1.0,phase_1,,,,,,,,,,,,,orange,square
670.0,7.0,2.0,1.0,3.0,3.0,418.0787300001611,3.0,1.0,phase_1,,,,,,,,,,,,,white,flipped triangle
316.0,6.0,1.0,1.0,3.0,3.0,353.3528729999489,3.0,1.0,phase_1,,,,,,,,,,,,,magenta,hexagon
0.0,5.0,0.0,1.0,1.0,1.0,407.8907170001002,3.0,1.0,phase_1,,,,,,,,,,,,,cyan,triangle
1300.0,4.0,4.0,0.0,2.0,2.0,584.1176589997303,3.0,1.0,phase_1,,,,,,,,,,,,,green,I
146.0,1.0,0.5,0.0,3.0,3.0,362.0566939998753,3.0,1.0,phase_1,,,,,,,,,,,,,orange,square
1311.0,4.0,4.0,0.0,4.0,4.0,343.5580349996598,3.0,1.0,phase_1,,,,,,,,,,,,,green,I
174.0,5.0,0.5,1.0,1.0,1.0,409.2035080002461,3.0,1.0,phase_1,,,,,,,,,,,,,cyan,triangle
0.0,3.0,0.0,0.0,2.0,2.0,603.1838180001614,3.0,1.0,phase_1,,,,,,,,,,,,,yellow,diamond
644.0,3.0,2.0,0.0,3.0,3.0,343.8823100000263,3.0,1.0,phase_1,,,,,,,,,,,,,yellow,diamond
1282.0,8.0,4.0,1.0,2.0,2.0,399.064701000043,3.0,1.0,phase_1,,,,,,,,,,,,,blue,circle
0.0,8.0,0.0,1.0,3.0,3.0,369.5272749996547,3.0,1.0,phase_1,,,,,,,,,,,,,blue,circle
322.0,6.0,1.0,1.0,2.0,2.0,602.8723089998493,3.0,1.0,phase_1,,,,,,,,,,,,,magenta,hexagon
647.0,3.0,2.0,0.0,3.0,3.0,490.6097779999072,3.0,1.0,phase_1,,,,,,,,,,,,,yellow,diamond
1296.0,4.0,4.0,0.0,2.0,2.0,536.3782340000398,3.0,1.0,phase_1,,,,,,,,,,,,,green,I
643.0,3.0,2.0,0.0,4.0,4.0,483.7026559998776,3.0,1.0,phase_1,,,,,,,,,,,,,yellow,diamond
308.0,6.0,1.0,1.0,2.0,2.0,463.5498650000045,3.0,1.0,phase_1,,,,,,,,,,,,,magenta,hexagon
670.0,3.0,2.0,0.0,4.0,4.0,362.5368059997527,3.0,1.0,phase_1,,,,,,,,,,,,,yellow,diamond
178.0,1.0,0.5,0.0,2.0,2.0,455.4859630002283,3.0,1.0,phase_1,,,,,,,,,,,,,orange,square
655.0,3.0,2.0,0.0,4.0,4.0,381.1194519998935,3.0,1.0,phase_1,,,,,,,,,,,,,yellow,diamond
669.0,3.0,2.0,0.0,4.0,4.0,520.347362999928,3.0,1.0,phase_1,,,,,,,,,,,,,yellow,diamond
343.0,2.0,1.0,0.0,1.0,1.0,445.1537380000445,3.0,1.0,phase_1,,,,,,,,,,,,,gray,cross
325.0,6.0,1.0,1.0,1.0,1.0,427.0141199999671,3.0,1.0,phase_1,,,,,,,,,,,,,magenta,hexagon
0.0,3.0,0.0,0.0,2.0,2.0,454.9378270003217,3.0,1.0,phase_1,,,,,,,,,,,,,yellow,diamond
1321.0,8.0,4.0,1.0,1.0,1.0,390.3613969996513,3.0,1.0,phase_1,,,,,,,,,,,,,blue,circle
323.0,6.0,1.0,1.0,3.0,3.0,428.07067800004,3.0,1.0,phase_1,,,,,,,,,,,,,magenta,hexagon
346.0,6.0,1.0,1.0,2.0,2.0,472.8094489996692,3.0,1.0,phase_1,,,,,,,,,,,,,magenta,hexagon
327.0,6.0,1.0,1.0,4.0,4.0,427.2026450003068,3.0,1.0,phase_1,,,,,,,,,,,,,magenta,hexagon
340.0,6.0,1.0,1.0,4.0,4.0,455.3833770000892,3.0,1.0,phase_1,,,,,,,,,,,,,magenta,hexagon
1320.0,4.0,4.0,0.0,1.0,1.0,371.8783660001463,3.0,1.0,phase_1,,,,,,,,,,,,,green,I
0.0,8.0,0.0,1.0,3.0,3.0,500.38476800000353,3.0,1.0,phase_1,,,,,,,,,,,,,blue,circle
0.0,1.0,0.0,0.0,1.0,1.0,486.7987369998445,3.0,1.0,phase_1,,,,,,,,,,,,,orange,square
320.0,2.0,1.0,0.0,3.0,3.0,472.3322419999931,3.0,1.0,phase_1,,,,,,,,,,,,,gray,cross
0.0,6.0,0.0,1.0,1.0,1.0,529.5484519997444,3.0,1.0,phase_1,,,,,,,,,,,,,magenta,hexagon
0.0,8.0,0.0,1.0,3.0,3.0,390.3525840000839,3.0,1.0,phase_1,,,,,,,,,,,,,blue,circle
630.0,7.0,2.0,1.0,2.0,2.0,473.352918999808,3.0,1.0,phase_1,,,,,,,,,,,,,white,flipped triangle
0.0,6.0,0.0,1.0,3.0,3.0,332.2187579997262,3.0,1.0,phase_1,,,,,,,,,,,,,magenta,hexagon
157.0,5.0,0.5,1.0,4.0,4.0,372.0692550000422,3.0,1.0,phase_1,,,,,,,,,,,,,cyan,triangle
1297.0,8.0,4.0,1.0,4.0,4.0,454.8960980000629,3.0,1.0,phase_1,,,,,,,,,,,,,blue,circle
304.0,6.0,1.0,1.0,1.0,1.0,499.8146960001577,3.0,1.0,phase_1,,,,,,,,,,,,,magenta,hexagon
1287.0,4.0,4.0,0.0,4.0,4.0,399.306506999892,3.0,1.0,phase_1,,,,,,,,,,,,,green,I
628.0,3.0,2.0,0.0,1.0,1.0,399.813684000037,3.0,1.0,phase_1,,,,,,,,,,,,,yellow,diamond
1278.0,8.0,4.0,1.0,3.0,3.0,361.77674999999,3.0,1.0,phase_1,,,,,,,,,,,,,blue,circle
346.0,6.0,1.0,1.0,1.0,1.0,481.9603079999979,3.0,1.0,phase_1,,,,,,,,,,,,,magenta,hexagon
323.0,2.0,1.0,0.0,4.0,4.0,407.6837530001285,3.0,1.0,phase_1,,,,,,,,,,,,,gray,cross
1303.0,4.0,4.0,0.0,1.0,1.0,408.6668420000023,3.0,1.0,phase_1,,,,,,,,,,,,,green,I
1288.0,4.0,4.0,0.0,2.0,2.0,363.2971079996423,3.0,2.0,phase_1,,,,,,,,,,,,,green,I
0.0,1.0,0.0,0.0,4.0,4.0,493.9929269999084,3.0,1.0,phase_1,,,,,,,,,,,,,orange,square
0.0,4.0,0.0,0.0,4.0,4.0,445.3138949997992,3.0,1.0,phase_1,,,,,,,,,,,,,green,I
1282.0,8.0,4.0,1.0,3.0,3.0,343.4006039997257,3.0,1.0,phase_1,,,,,,,,,,,,,blue,circle
141.0,5.0,0.5,1.0,4.0,4.0,446.3154139998551,3.0,1.0,phase_1,,,,,,,,,,,,,cyan,triangle
312.0,2.0,1.0,0.0,4.0,4.0,447.1554110000397,3.0,1.0,phase_1,,,,,,,,,,,,,gray,cross
650.0,3.0,2.0,0.0,2.0,2.0,409.5576330000767,3.0,1.0,phase_1,,,,,,,,,,,,,yellow,diamond
670.0,3.0,2.0,0.0,2.0,2.0,454.8695639996367,3.0,1.0,phase_1,,,,,,,,,,,,,yellow,diamond
163.0,1.0,0.5,0.0,4.0,4.0,482.4651660001109,3.0,1.0,phase_1,,,,,,,,,,,,,orange,square
323.0,2.0,1.0,0.0,4.0,4.0,407.712538999931,3.0,1.0,phase_1,,,,,,,,,,,,,gray,cross
144.0,1.0,0.5,0.0,3.0,3.0,491.316660999928,3.0,1.0,phase_1,,,,,,,,,,,,,orange,square
180.0,5.0,0.5,1.0,4.0,4.0,361.42966899979,3.0,1.0,phase_1,,,,,,,,,,,,,cyan,triangle
0.0,5.0,0.0,1.0,1.0,1.0,547.8252009997959,3.0,1.0,phase_1,,,,,,,,,,,,,cyan,triangle
0.0,3.0,0.0,0.0,1.0,1.0,425.5665319997206,3.0,1.0,phase_1,,,,,,,,,,,,,yellow,diamond
156.0,1.0,0.5,0.0,2.0,2.0,463.2872340002905,3.0,1.0,phase_1,,,,,,,,,,,,,orange,square
631.0,7.0,2.0,1.0,1.0,1.0,426.5488149999328,3.0,1.0,phase_1,,,,,,,,,,,,,white,flipped triangle
1284.0,8.0,4.0,1.0,3.0,3.0,417.8380829998787,3.0,1.0,phase_1,,,,,,,,,,,,,blue,circle
144.0,1.0,0.5,0.0,4.0,4.0,500.20151500029897,3.0,1.0,phase_1,,,,,,,,,,,,,orange,square
338.0,6.0,1.0,1.0,3.0,3.0,342.542124999909,3.0,1.0,phase_1,,,,,,,,,,,,,magenta,hexagon
1282.0,4.0,4.0,0.0,2.0,2.0,454.4645849996414,3.0,1.0,phase_1,,,,,,,,,,,,,green,I
170.0,5.0,0.5,1.0,4.0,4.0,388.5803570001371,3.0,1.0,phase_1,,,,,,,,,,,,,cyan,triangle
0.0,2.0,0.0,0.0,4.0,4.0,437.4132079997253,3.0,1.0,phase_1,,,,,,,,,,,,,gray,cross
137.0,1.0,0.5,0.0,2.0,2.0,546.5460619998339,3.0,1.0,phase_1,,,,,,,,,,,,,orange,square
305.0,2.0,1.0,0.0,3.0,3.0,455.3249719997438,3.0,1.0,phase_1,,,,,,,,,,,,,gray,cross
646.0,7.0,2.0,1.0,4.0,4.0,344.7366919999695,3.0,1.0,phase_1,,,,,,,,,,,,,white,flipped triangle
323.0,6.0,1.0,1.0,3.0,3.0,380.5078920004234,3.0,1.0,phase_1,,,,,,,,,,,,,magenta,hexagon
0.0,8.0,0.0,1.0,3.0,3.0,353.9113540000471,3.0,1.0,phase_1,,,,,,,,,,,,,blue,circle
320.0,6.0,1.0,1.0,2.0,2.0,759.2797349998364,3.0,1.0,phase_1,,,,,,,,,,,,,magenta,hexagon
181.0,5.0,0.5,1.0,2.0,2.0,380.2278560001468,3.0,1.0,phase_1,,,,,,,,,,,,,cyan,triangle
144.0,5.0,0.5,1.0,3.0,3.0,344.0222710000853,3.0,1.0,phase_1,,,,,,,,,,,,,cyan,triangle
1294.0,8.0,4.0,1.0,3.0,3.0,371.5609249998124,3.0,1.0,phase_1,,,,,,,,,,,,,blue,circle
1276.0,4.0,4.0,0.0,3.0,3.0,352.7982730001895,3.0,1.0,phase_1,,,,,,,,,,,,,green,I
152.0,1.0,0.5,0.0,3.0,3.0,389.1235649998634,3.0,1.0,phase_1,,,,,,,,,,,,,orange,square
639.0,3.0,2.0,0.0,3.0,3.0,509.98912400018526,3.0,1.0,phase_1,,,,,,,,,,,,,yellow,diamond
322.0,6.0,1.0,1.0,1.0,1.0,397.6901000000907,3.0,1.0,phase_1,,,,,,,,,,,,,magenta,hexagon
343.0,6.0,1.0,1.0,4.0,4.0,502.1052960000816,3.0,1.0,phase_1,,,,,,,,,,,,,magenta,hexagon
0.0,6.0,0.0,1.0,2.0,2.0,640.9315079999942,3.0,1.0,phase_1,,,,,,,,,,,,,magenta,hexagon
1319.0,4.0,4.0,0.0,4.0,4.0,480.1829190000717,3.0,1.0,phase_1,,,,,,,,,,,,,green,I
347.0,6.0,1.0,1.0,3.0,3.0,436.2284059998274,3.0,1.0,phase_1,,,,,,,,,,,,,magenta,hexagon
346.0,2.0,1.0,0.0,2.0,2.0,573.4804450003139,3.0,1.0,phase_1,,,,,,,,,,,,,gray,cross
0.0,2.0,0.0,0.0,2.0,2.0,502.04256400002123,4.0,1.0,phase_1,,,,,,,,,,,,,gray,cross
0.0,7.0,0.0,1.0,3.0,3.0,362.9367949997686,4.0,1.0,phase_1,,,,,,,,,,,,,white,flipped triangle
162.0,5.0,0.5,1.0,2.0,2.0,398.7237020000975,4.0,1.0,phase_1,,,,,,,,,,,,,cyan,triangle
1286.0,8.0,4.0,1.0,1.0,1.0,372.2168369999963,4.0,1.0,phase_1,,,,,,,,,,,,,blue,circle
646.0,3.0,2.0,0.0,3.0,3.0,456.9821280001633,4.0,1.0,phase_1,,,,,,,,,,,,,yellow,diamond
1306.0,8.0,4.0,1.0,2.0,2.0,492.7343379999911,4.0,1.0,phase_1,,,,,,,,,,,,,blue,circle
0.0,4.0,0.0,0.0,4.0,4.0,540.0184959999024,4.0,1.0,phase_1,,,,,,,,,,,,,green,I
657.0,7.0,2.0,1.0,1.0,1.0,428.1163169998763,4.0,1.0,phase_1,,,,,,,,,,,,,white,flipped triangle
161.0,5.0,0.5,1.0,3.0,3.0,464.3340210000133,4.0,1.0,phase_1,,,,,,,,,,,,,cyan,triangle
139.0,1.0,0.5,0.0,2.0,2.0,566.0998960001962,4.0,1.0,phase_1,,,,,,,,,,,,,orange,square
308.0,2.0,1.0,0.0,4.0,4.0,603.1921140001941,4.0,1.0,phase_1,,,,,,,,,,,,,gray,cross
138.0,5.0,0.5,1.0,1.0,1.0,427.0989070000723,4.0,1.0,phase_1,,,,,,,,,,,,,cyan,triangle
146.0,1.0,0.5,0.0,1.0,1.0,481.8176779999703,4.0,1.0,phase_1,,,,,,,,,,,,,orange,square
343.0,2.0,1.0,0.0,3.0,3.0,380.5943229999684,4.0,1.0,phase_1,,,,,,,,,,,,,gray,cross
312.0,6.0,1.0,1.0,1.0,1.0,353.0039349998333,4.0,1.0,phase_1,,,,,,,,,,,,,magenta,hexagon
0.0,2.0,0.0,0.0,3.0,3.0,363.1002239999361,4.0,1.0,phase_1,,,,,,,,,,,,,gray,cross
328.0,2.0,1.0,0.0,2.0,2.0,620.7247180000195,4.0,1.0,phase_1,,,,,,,,,,,,,gray,cross
628.0,7.0,2.0,1.0,4.0,4.0,473.465720999684,4.0,1.0,phase_1,,,,,,,,,,,,,white,flipped triangle
155.0,5.0,0.5,1.0,2.0,2.0,445.3506660001949,4.0,2.0,phase_1,,,,,,,,,,,,,cyan,triangle
0.0,6.0,0.0,1.0,4.0,4.0,437.6077639999494,4.0,1.0,phase_1,,,,,,,,,,,,,magenta,hexagon
184.0,1.0,0.5,0.0,2.0,2.0,547.9903939999531,4.0,1.0,phase_1,,,,,,,,,,,,,orange,square
325.0,2.0,1.0,0.0,2.0,2.0,629.8500040002182,4.0,1.0,phase_1,,,,,,,,,,,,,gray,cross
669.0,7.0,2.0,1.0,2.0,2.0,493.2827190000353,4.0,1.0,phase_1,,,,,,,,,,,,,white,flipped triangle
1319.0,8.0,4.0,1.0,2.0,2.0,511.8858830001045,4.0,1.0,phase_1,,,,,,,,,,,,,blue,circle
661.0,7.0,2.0,1.0,2.0,2.0,381.2126559996613,4.0,1.0,phase_1,,,,,,,,,,,,,white,flipped triangle
328.0,2.0,1.0,0.0,3.0,3.0,353.6087649999899,4.0,1.0,phase_1,,,,,,,,,,,,,gray,cross
300.0,6.0,1.0,1.0,2.0,2.0,455.6304040002032,4.0,1.0,phase_1,,,,,,,,,,,,,magenta,hexagon
343.0,6.0,1.0,1.0,2.0,2.0,417.3919520003437,4.0,1.0,phase_1,,,,,,,,,,,,,magenta,hexagon
0.0,8.0,0.0,1.0,4.0,4.0,418.0236649999642,4.0,1.0,phase_1,,,,,,,,,,,,,blue,circle
1323.0,8.0,4.0,1.0,2.0,2.0,426.599496000108,4.0,1.0,phase_1,,,,,,,,,,,,,blue,circle
0.0,5.0,0.0,1.0,4.0,4.0,353.2699440002034,4.0,1.0,phase_1,,,,,,,,,,,,,cyan,triangle
0.0,1.0,0.0,0.0,2.0,2.0,361.7546450000191,4.0,1.0,phase_1,,,,,,,,,,,,,orange,square
1321.0,4.0,4.0,0.0,1.0,1.0,512.2020879998672,4.0,1.0,phase_1,,,,,,,,,,,,,green,I
305.0,6.0,1.0,1.0,1.0,1.0,371.3005129998237,4.0,1.0,phase_1,,,,,,,,,,,,,magenta,hexagon
0.0,1.0,0.0,0.0,3.0,3.0,520.6815689998621,4.0,1.0,phase_1,,,,,,,,,,,,,orange,square
347.0,2.0,1.0,0.0,1.0,1.0,454.3698399997993,4.0,1.0,phase_1,,,,,,,,,,,,,gray,cross
1290.0,8.0,4.0,1.0,4.0,4.0,503.38768200026607,4.0,1.0,phase_1,,,,,,,,,,,,,blue,circle
0.0,8.0,0.0,1.0,4.0,4.0,493.1522679999034,4.0,1.0,phase_1,,,,,,,,,,,,,blue,circle
1324.0,8.0,4.0,1.0,1.0,1.0,390.0155060000543,4.0,1.0,phase_1,,,,,,,,,,,,,blue,circle
304.0,2.0,1.0,0.0,3.0,3.0,334.4557390000773,4.0,1.0,phase_1,,,,,,,,,,,,,gray,cross
1305.0,4.0,4.0,0.0,3.0,3.0,408.7595700002566,4.0,1.0,phase_1,,,,,,,,,,,,,green,I
146.0,5.0,0.5,1.0,2.0,2.0,639.2520170002172,4.0,1.0,phase_1,,,,,,,,,,,,,cyan,triangle
664.0,7.0,2.0,1.0,3.0,3.0,399.8784350001187,4.0,1.0,phase_1,,,,,,,,,,,,,white,flipped triangle
164.0,5.0,0.5,1.0,4.0,4.0,398.3641340000758,4.0,1.0,phase_1,,,,,,,,,,,,,cyan,triangle
628.0,3.0,2.0,0.0,2.0,2.0,520.4489769998872,4.0,1.0,phase_1,,,,,,,,,,,,,yellow,diamond
346.0,2.0,1.0,0.0,1.0,1.0,539.804997000374,4.0,1.0,phase_1,,,,,,,,,,,,,gray,cross
1286.0,8.0,4.0,1.0,1.0,1.0,613.0025520001254,4.0,1.0,phase_1,,,,,,,,,,,,,blue,circle
1286.0,4.0,4.0,0.0,1.0,1.0,566.1799039999096,4.0,1.0,phase_1,,,,,,,,,,,,,green,I
639.0,7.0,2.0,1.0,1.0,1.0,389.9151400000846,4.0,1.0,phase_1,,,,,,,,,,,,,white,flipped triangle
1280.0,8.0,4.0,1.0,1.0,1.0,519.1167770003631,4.0,1.0,phase_1,,,,,,,,,,,,,blue,circle
645.0,3.0,2.0,0.0,3.0,3.0,474.4505509997907,4.0,1.0,phase_1,,,,,,,,,,,,,yellow,diamond
0.0,7.0,0.0,1.0,2.0,2.0,421.5334229998007,4.0,1.0,phase_1,,,,,,,,,,,,,white,flipped triangle
1294.0,4.0,4.0,0.0,1.0,1.0,474.7199499997805,4.0,1.0,phase_1,,,,,,,,,,,,,green,I
166.0,1.0,0.5,0.0,4.0,4.0,463.6872000000949,4.0,1.0,phase_1,,,,,,,,,,,,,orange,square
657.0,3.0,2.0,0.0,1.0,1.0,390.2582460000303,4.0,1.0,phase_1,,,,,,,,,,,,,yellow,diamond
0.0,4.0,0.0,0.0,1.0,1.0,353.3897960001013,4.0,1.0,phase_1,,,,,,,,,,,,,green,I
180.0,1.0,0.5,0.0,4.0,4.0,416.7864060000283,4.0,1.0,phase_1,,,,,,,,,,,,,orange,square
634.0,7.0,2.0,1.0,1.0,1.0,444.7297910000998,4.0,1.0,phase_1,,,,,,,,,,,,,white,flipped triangle
162.0,5.0,0.5,1.0,3.0,3.0,435.8475610001733,4.0,1.0,phase_1,,,,,,,,,,,,,cyan,triangle
646.0,3.0,2.0,0.0,3.0,3.0,352.7741830002924,4.0,1.0,phase_1,,,,,,,,,,,,,yellow,diamond
0.0,8.0,0.0,1.0,3.0,3.0,361.968388999685,4.0,1.0,phase_1,,,,,,,,,,,,,blue,circle
637.0,7.0,2.0,1.0,3.0,3.0,325.6318879998616,4.0,1.0,phase_1,,,,,,,,,,,,,white,flipped triangle
152.0,5.0,0.5,1.0,1.0,1.0,353.8108210000246,4.0,1.0,phase_1,,,,,,,,,,,,,cyan,triangle
316.0,2.0,1.0,0.0,3.0,3.0,397.8515320000042,4.0,1.0,phase_1,,,,,,,,,,,,,gray,cross
0.0,2.0,0.0,0.0,1.0,1.0,538.1001099999594,4.0,1.0,phase_1,,,,,,,,,,,,,gray,cross
627.0,3.0,2.0,0.0,1.0,1.0,504.6075390000624,4.0,1.0,phase_1,,,,,,,,,,,,,yellow,diamond
652.0,7.0,2.0,1.0,3.0,3.0,427.916240000286,4.0,1.0,phase_1,,,,,,,,,,,,,white,flipped triangle
1320.0,8.0,4.0,1.0,1.0,1.0,408.3992270002454,4.0,1.0,phase_1,,,,,,,,,,,,,blue,circle
0.0,7.0,0.0,1.0,3.0,3.0,390.9787689999575,4.0,1.0,phase_1,,,,,,,,,,,,,white,flipped triangle
0.0,8.0,0.0,1.0,2.0,2.0,575.4438310000296,4.0,1.0,phase_1,,,,,,,,,,,,,blue,circle
0.0,6.0,0.0,1.0,4.0,4.0,507.0577249998678,4.0,1.0,phase_1,,,,,,,,,,,,,magenta,hexagon
661.0,3.0,2.0,0.0,2.0,2.0,428.8516020001225,4.0,1.0,phase_1,,,,,,,,,,,,,yellow,diamond
1320.0,4.0,4.0,0.0,2.0,2.0,418.8697810000121,4.0,1.0,phase_1,,,,,,,,,,,,,green,I
628.0,7.0,2.0,1.0,4.0,4.0,428.8852760000736,4.0,1.0,phase_1,,,,,,,,,,,,,white,flipped triangle
149.0,5.0,0.5,1.0,1.0,1.0,391.0285450001538,4.0,1.0,phase_1,,,,,,,,,,,,,cyan,triangle
0.0,2.0,0.0,0.0,1.0,1.0,437.7911279998443,4.0,1.0,phase_1,,,,,,,,,,,,,gray,cross
1283.0,4.0,4.0,0.0,3.0,3.0,345.70602399981,4.0,1.0,phase_1,,,,,,,,,,,,,green,I
0.0,2.0,0.0,0.0,2.0,2.0,381.5648009999677,4.0,1.0,phase_1,,,,,,,,,,,,,gray,cross
0.0,7.0,0.0,1.0,2.0,2.0,436.2539079997987,4.0,1.0,phase_1,,,,,,,,,,,,,white,flipped triangle
640.0,3.0,2.0,0.0,2.0,2.0,343.6753949999911,4.0,1.0,phase_1,,,,,,,,,,,,,yellow,diamond
0.0,5.0,0.0,1.0,2.0,2.0,634.5816449997983,4.0,1.0,phase_1,,,,,,,,,,,,,cyan,triangle
1280.0,4.0,4.0,0.0,2.0,2.0,455.2974150001319,4.0,1.0,phase_1,,,,,,,,,,,,,green,I
341.0,2.0,1.0,0.0,1.0,1.0,466.093188999821,4.0,1.0,phase_1,,,,,,,,,,,,,gray,cross
0.0,1.0,0.0,0.0,3.0,3.0,445.3017470000304,4.0,1.0,phase_1,,,,,,,,,,,,,orange,square
1297.0,4.0,4.0,0.0,4.0,4.0,464.8816070002795,4.0,1.0,phase_1,,,,,,,,,,,,,green,I
349.0,2.0,1.0,0.0,1.0,1.0,446.1002649995862,4.0,1.0,phase_1,,,,,,,,,,,,,gray,cross
0.0,6.0,0.0,1.0,3.0,3.0,417.8570690000924,4.0,1.0,phase_1,,,,,,,,,,,,,magenta,hexagon
1311.0,8.0,4.0,1.0,4.0,4.0,493.1079350003529,4.0,1.0,phase_1,,,,,,,,,,,,,blue,circle
1278.0,8.0,4.0,1.0,2.0,2.0,490.9807899998668,4.0,1.0,phase_1,,,,,,,,,,,,,blue,circle
146.0,1.0,0.5,0.0,1.0,1.0,436.881989000085,4.0,1.0,phase_1,,,,,,,,,,,,,orange,square
0.0,5.0,0.0,1.0,4.0,4.0,391.0457649999443,4.0,1.0,phase_1,,,,,,,,,,,,,cyan,triangle
1311.0,8.0,4.0,1.0,4.0,4.0,503.00940299985086,4.0,1.0,phase_1,,,,,,,,,,,,,blue,circle
1302.0,8.0,4.0,1.0,4.0,4.0,559.0566569999282,4.0,1.0,phase_1,,,,,,,,,,,,,blue,circle
1311.0,4.0,4.0,0.0,4.0,4.0,382.3337829999218,4.0,1.0,phase_1,,,,,,,,,,,,,green,I
172.0,1.0,0.5,0.0,1.0,1.0,659.220059999825,4.0,1.0,phase_1,,,,,,,,,,,,,orange,square
164.0,1.0,0.5,0.0,3.0,3.0,325.4479180000089,4.0,1.0,phase_1,,,,,,,,,,,,,orange,square
172.0,5.0,0.5,1.0,2.0,2.0,391.5242580001177,4.0,1.0,phase_1,,,,,,,,,,,,,cyan,triangle
180.0,5.0,0.5,1.0,1.0,1.0,455.6663870002921,4.0,1.0,phase_1,,,,,,,,,,,,,cyan,triangle
163.0,5.0,0.5,1.0,3.0,3.0,363.8151410000318,4.0,1.0,phase_1,,,,,,,,,,,,,cyan,triangle
141.0,5.0,0.5,1.0,3.0,3.0,400.2459589996761,4.0,1.0,phase_1,,,,,,,,,,,,,cyan,triangle
0.0,7.0,2.0,1.0,5.0,0.0,0.0,1.0,1.0,phase_2,stop,250.0,250.0,4.0,,,,,,,,,white,flipped triangle
0.0,4.0,4.0,0.0,5.0,5.0,364.6220249997896,1.0,1.0,phase_2,go,300.0,250.0,1.0,,,,,,,,,green,I
0.0,3.0,2.0,0.0,6.0,6.0,308.2607940000343,1.0,1.0,phase_2,go,300.0,250.0,1.0,,,,,,,,,yellow,diamond
0.0,1.0,0.5,0.0,5.0,5.0,317.5640250001379,1.0,1.0,phase_2,go,300.0,250.0,1.0,,,,,,,,,orange,square
0.0,8.0,4.0,1.0,5.0,5.0,343.7900019998778,1.0,1.0,phase_2,stop,300.0,250.0,3.0,,,,,,,,,blue,circle
0.0,8.0,4.0,1.0,6.0,6.0,337.9505390003032,1.0,1.0,phase_2,stop,250.0,250.0,3.0,,,,,,,,,blue,circle
0.0,6.0,1.0,1.0,6.0,0.0,0.0,1.0,1.0,phase_2,stop,250.0,200.0,4.0,,,,,,,,,magenta,hexagon
0.0,6.0,1.0,1.0,5.0,5.0,354.1698879998876,1.0,1.0,phase_2,go,250.0,250.0,1.0,,,,,,,,,magenta,hexagon
0.0,4.0,4.0,0.0,5.0,5.0,364.7388879999198,1.0,1.0,phase_2,go,250.0,250.0,1.0,,,,,,,,,green,I
0.0,1.0,0.5,0.0,6.0,6.0,347.2064560000945,1.0,1.0,phase_2,go,250.0,250.0,1.0,,,,,,,,,orange,square
0.0,3.0,2.0,0.0,6.0,6.0,363.8853600000402,1.0,1.0,phase_2,go,250.0,250.0,1.0,,,,,,,,,yellow,diamond
0.0,1.0,0.5,0.0,5.0,5.0,336.7558909999388,1.0,1.0,phase_2,go,250.0,250.0,1.0,,,,,,,,,orange,square
0.0,2.0,1.0,0.0,5.0,5.0,381.6433909996704,1.0,1.0,phase_2,go,250.0,250.0,1.0,,,,,,,,,gray,cross
0.0,3.0,2.0,0.0,6.0,6.0,356.4215249998597,1.0,1.0,phase_2,go,250.0,250.0,1.0,,,,,,,,,yellow,diamond
0.0,6.0,1.0,1.0,6.0,6.0,368.3666329998232,1.0,1.0,phase_2,stop,250.0,250.0,3.0,,,,,,,,,magenta,hexagon
0.0,3.0,2.0,0.0,6.0,6.0,434.0488940001705,1.0,1.0,phase_2,go,250.0,200.0,1.0,,,,,,,,,yellow,diamond
0.0,4.0,4.0,0.0,6.0,6.0,353.9426809998076,1.0,1.0,phase_2,go,250.0,200.0,1.0,,,,,,,,,green,I
0.0,3.0,2.0,0.0,6.0,6.0,365.3710609996778,1.0,1.0,phase_2,go,250.0,200.0,1.0,,,,,,,,,yellow,diamond
0.0,1.0,0.5,0.0,6.0,6.0,375.2352989999963,1.0,1.0,phase_2,go,250.0,200.0,1.0,,,,,,,,,orange,square
0.0,3.0,2.0,0.0,5.0,5.0,301.3173209997148,1.0,1.0,phase_2,go,250.0,200.0,1.0,,,,,,,,,yellow,diamond
0.0,6.0,1.0,1.0,5.0,5.0,357.5949539999783,1.0,1.0,phase_2,stop,250.0,200.0,3.0,,,,,,,,,magenta,hexagon
0.0,2.0,1.0,0.0,6.0,6.0,346.6994539999177,1.0,1.0,phase_2,go,200.0,200.0,1.0,,,,,,,,,gray,cross
0.0,3.0,2.0,0.0,5.0,5.0,326.9980879999821,1.0,1.0,phase_2,go,200.0,200.0,1.0,,,,,,,,,yellow,diamond
0.0,1.0,0.5,0.0,6.0,6.0,373.9499150001393,1.0,1.0,phase_2,go,200.0,200.0,1.0,,,,,,,,,orange,square
0.0,2.0,1.0,0.0,6.0,6.0,365.0260199997319,1.0,1.0,phase_2,go,200.0,200.0,1.0,,,,,,,,,gray,cross
0.0,7.0,2.0,1.0,5.0,5.0,318.077852999977,1.0,1.0,phase_2,stop,200.0,200.0,3.0,,,,,,,,,white,flipped triangle
0.0,2.0,1.0,0.0,5.0,5.0,596.3932829999976,1.0,1.0,phase_2,go,150.0,200.0,1.0,,,,,,,,,gray,cross
0.0,6.0,1.0,1.0,6.0,6.0,354.1088450001552,1.0,1.0,phase_2,stop,150.0,200.0,3.0,,,,,,,,,magenta,hexagon
0.0,3.0,2.0,0.0,6.0,6.0,476.5135070001633,1.0,1.0,phase_2,go,150.0,150.0,1.0,,,,,,,,,yellow,diamond
0.0,7.0,2.0,1.0,5.0,5.0,310.9232179999708,1.0,1.0,phase_2,stop,150.0,150.0,3.0,,,,,,,,,white,flipped triangle
0.0,6.0,1.0,1.0,6.0,6.0,363.3008800002244,1.0,1.0,phase_2,stop,100.0,150.0,3.0,,,,,,,,,magenta,hexagon
0.0,2.0,1.0,0.0,6.0,6.0,399.534956000025,1.0,1.0,phase_2,go,100.0,100.0,1.0,,,,,,,,,gray,cross
0.0,1.0,0.5,0.0,6.0,6.0,401.340368000092,1.0,1.0,phase_2,go,100.0,100.0,1.0,,,,,,,,,orange,square
0.0,1.0,0.5,0.0,6.0,6.0,336.8336600001385,1.0,1.0,phase_2,go,100.0,100.0,1.0,,,,,,,,,orange,square
0.0,5.0,0.5,1.0,5.0,5.0,290.8446379997258,1.0,1.0,phase_2,stop,100.0,100.0,3.0,,,,,,,,,cyan,triangle
0.0,1.0,0.5,0.0,5.0,5.0,615.3577370000676,1.0,1.0,phase_2,go,50.0,100.0,1.0,,,,,,,,,orange,square
0.0,8.0,4.0,1.0,5.0,0.0,0.0,2.0,1.0,phase_2,stop,50.0,100.0,4.0,,,,,,,,,blue,circle
0.0,6.0,1.0,1.0,5.0,5.0,496.2918270002774,2.0,1.0,phase_2,go,100.0,100.0,1.0,,,,,,,,,magenta,hexagon
0.0,3.0,2.0,0.0,5.0,5.0,510.79062999997404,2.0,1.0,phase_2,go,100.0,100.0,1.0,,,,,,,,,yellow,diamond
0.0,3.0,2.0,0.0,5.0,5.0,409.7017839999353,2.0,1.0,phase_2,go,100.0,100.0,1.0,,,,,,,,,yellow,diamond
0.0,5.0,0.5,1.0,5.0,0.0,0.0,2.0,1.0,phase_2,stop,100.0,100.0,4.0,,,,,,,,,cyan,triangle
0.0,4.0,4.0,0.0,5.0,5.0,438.0654480000885,2.0,1.0,phase_2,go,150.0,100.0,1.0,,,,,,,,,green,I
0.0,7.0,2.0,1.0,5.0,0.0,0.0,2.0,1.0,phase_2,stop,150.0,100.0,4.0,,,,,,,,,white,flipped triangle
0.0,5.0,0.5,1.0,6.0,6.0,486.9970209997518,2.0,1.0,phase_2,go,200.0,100.0,1.0,,,,,,,,,cyan,triangle
0.0,4.0,4.0,0.0,6.0,6.0,488.9421049997509,2.0,1.0,phase_2,go,200.0,100.0,1.0,,,,,,,,,green,I
0.0,3.0,2.0,0.0,5.0,5.0,526.908383999853,2.0,1.0,phase_2,go,200.0,100.0,1.0,,,,,,,,,yellow,diamond
0.0,3.0,2.0,0.0,6.0,6.0,627.815475999796,2.0,1.0,phase_2,go,200.0,100.0,1.0,,,,,,,,,yellow,diamond
0.0,2.0,1.0,0.0,5.0,5.0,646.4937880000434,2.0,1.0,phase_2,go,200.0,100.0,1.0,,,,,,,,,gray,cross
0.0,8.0,4.0,1.0,5.0,0.0,0.0,2.0,1.0,phase_2,stop,200.0,100.0,4.0,,,,,,,,,blue,circle
0.0,8.0,4.0,1.0,5.0,0.0,0.0,2.0,1.0,phase_2,stop,250.0,100.0,4.0,,,,,,,,,blue,circle
0.0,2.0,1.0,0.0,6.0,6.0,987.7823050001098,2.0,1.0,phase_2,go,300.0,100.0,1.0,,,,,,,,,gray,cross
0.0,3.0,2.0,0.0,5.0,5.0,804.6726170000511,2.0,1.0,phase_2,go,300.0,100.0,1.0,,,,,,,,,yellow,diamond
0.0,5.0,0.5,1.0,5.0,5.0,690.9195409998574,2.0,1.0,phase_2,go,300.0,100.0,1.0,,,,,,,,,cyan,triangle
0.0,4.0,4.0,0.0,6.0,6.0,689.416288999837,2.0,1.0,phase_2,go,300.0,100.0,1.0,,,,,,,,,green,I
0.0,5.0,0.5,1.0,5.0,0.0,0.0,2.0,1.0,phase_2,stop,300.0,100.0,4.0,,,,,,,,,cyan,triangle
0.0,5.0,0.5,1.0,6.0,0.0,0.0,2.0,1.0,phase_2,stop,350.0,100.0,4.0,,,,,,,,,cyan,triangle
0.0,4.0,4.0,0.0,6.0,6.0,680.862497000362,2.0,1.0,phase_2,go,350.0,150.0,1.0,,,,,,,,,green,I
0.0,8.0,4.0,1.0,6.0,0.0,0.0,2.0,1.0,phase_2,stop,350.0,150.0,4.0,,,,,,,,,blue,circle
0.0,2.0,1.0,0.0,5.0,5.0,709.3129949998911,2.0,1.0,phase_2,go,350.0,200.0,1.0,,,,,,,,,gray,cross
0.0,6.0,1.0,1.0,5.0,0.0,0.0,2.0,1.0,phase_2,stop,350.0,200.0,4.0,,,,,,,,,magenta,hexagon
0.0,5.0,0.5,1.0,5.0,0.0,0.0,2.0,1.0,phase_2,stop,400.0,200.0,4.0,,,,,,,,,cyan,triangle
0.0,4.0,4.0,0.0,5.0,5.0,625.2537069999562,2.0,1.0,phase_2,go,450.0,200.0,1.0,,,,,,,,,green,I
0.0,1.0,0.5,0.0,5.0,5.0,1000.848292000228,2.0,1.0,phase_2,go,450.0,200.0,1.0,,,,,,,,,orange,square
0.0,4.0,4.0,0.0,6.0,6.0,721.0085509996134,2.0,1.0,phase_2,go,450.0,200.0,1.0,,,,,,,,,green,I
0.0,3.0,2.0,0.0,6.0,6.0,992.7100889999564,2.0,1.0,phase_2,go,450.0,200.0,1.0,,,,,,,,,yellow,diamond
0.0,7.0,2.0,1.0,6.0,0.0,0.0,2.0,1.0,phase_2,stop,450.0,200.0,4.0,,,,,,,,,white,flipped triangle
0.0,3.0,2.0,0.0,5.0,5.0,708.5908590001964,2.0,1.0,phase_2,go,450.0,250.0,1.0,,,,,,,,,yellow,diamond
0.0,7.0,2.0,1.0,5.0,0.0,0.0,2.0,1.0,phase_2,stop,450.0,250.0,4.0,,,,,,,,,white,flipped triangle
0.0,6.0,1.0,1.0,5.0,5.0,542.82862700029,2.0,1.0,phase_2,go,500.0,250.0,1.0,,,,,,,,,magenta,hexagon
0.0,4.0,4.0,0.0,5.0,5.0,748.32434200016,2.0,1.0,phase_2,go,500.0,250.0,1.0,,,,,,,,,green,I
0.0,4.0,4.0,0.0,5.0,5.0,401.1855210001158,2.0,1.0,phase_2,go,500.0,250.0,1.0,,,,,,,,,green,I
0.0,8.0,4.0,1.0,6.0,0.0,0.0,2.0,1.0,phase_2,stop,500.0,250.0,4.0,,,,,,,,,blue,circle
0.0,7.0,2.0,1.0,6.0,6.0,391.875612000149,3.0,1.0,phase_2,go,500.0,300.0,1.0,,,,,,,,,white,flipped triangle
0.0,4.0,4.0,0.0,6.0,6.0,692.3328069997297,3.0,1.0,phase_2,go,500.0,300.0,1.0,,,,,,,,,green,I
0.0,1.0,0.5,0.0,6.0,6.0,663.515881999956,3.0,1.0,phase_2,go,500.0,300.0,1.0,,,,,,,,,orange,square
0.0,1.0,0.5,0.0,5.0,5.0,571.2623219997113,3.0,1.0,phase_2,go,500.0,300.0,1.0,,,,,,,,,orange,square
0.0,2.0,1.0,0.0,6.0,6.0,636.246196000684,3.0,1.0,phase_2,go,500.0,300.0,1.0,,,,,,,,,gray,cross
0.0,1.0,0.5,0.0,6.0,6.0,580.3915419992336,3.0,1.0,phase_2,go,500.0,300.0,1.0,,,,,,,,,orange,square
0.0,7.0,2.0,1.0,6.0,6.0,627.9779269998471,3.0,1.0,phase_2,go,500.0,300.0,1.0,,,,,,,,,white,flipped triangle
0.0,3.0,2.0,0.0,6.0,6.0,514.7630329993262,3.0,1.0,phase_2,go,500.0,300.0,1.0,,,,,,,,,yellow,diamond
0.0,7.0,2.0,1.0,5.0,5.0,561.3506250001592,3.0,1.0,phase_2,go,500.0,300.0,1.0,,,,,,,,,white,flipped triangle
0.0,8.0,4.0,1.0,6.0,0.0,0.0,3.0,1.0,phase_2,stop,500.0,300.0,4.0,,,,,,,,,blue,circle
0.0,5.0,0.5,1.0,6.0,6.0,627.4086150006042,3.0,1.0,phase_2,go,500.0,350.0,1.0,,,,,,,,,cyan,triangle
0.0,8.0,4.0,1.0,6.0,0.0,0.0,3.0,1.0,phase_2,stop,500.0,350.0,4.0,,,,,,,,,blue,circle
0.0,7.0,2.0,1.0,6.0,0.0,0.0,3.0,1.0,phase_2,stop,500.0,400.0,4.0,,,,,,,,,white,flipped triangle
0.0,6.0,1.0,1.0,5.0,5.0,488.5202180003034,3.0,1.0,phase_2,go,500.0,450.0,1.0,,,,,,,,,magenta,hexagon
0.0,5.0,0.5,1.0,5.0,0.0,0.0,3.0,1.0,phase_2,stop,500.0,450.0,4.0,,,,,,,,,cyan,triangle
0.0,4.0,4.0,0.0,5.0,5.0,795.7446820000769,3.0,1.0,phase_2,go,550.0,450.0,1.0,,,,,,,,,green,I
0.0,7.0,2.0,1.0,6.0,0.0,0.0,3.0,1.0,phase_2,stop,550.0,450.0,4.0,,,,,,,,,white,flipped triangle
0.0,1.0,0.5,0.0,6.0,6.0,665.2763080001023,3.0,1.0,phase_2,go,550.0,500.0,1.0,,,,,,,,,orange,square
0.0,8.0,4.0,1.0,6.0,6.0,804.9283349992038,3.0,1.0,phase_2,go,550.0,500.0,1.0,,,,,,,,,blue,circle
0.0,5.0,0.5,1.0,6.0,6.0,683.7561459997232,3.0,1.0,phase_2,go,550.0,500.0,1.0,,,,,,,,,cyan,triangle
0.0,8.0,4.0,1.0,6.0,6.0,759.3723579993821,3.0,1.0,phase_2,go,550.0,500.0,1.0,,,,,,,,,blue,circle
0.0,5.0,0.5,1.0,6.0,6.0,704.6539270004359,3.0,1.0,phase_2,stop,550.0,500.0,3.0,,,,,,,,,cyan,triangle
0.0,6.0,1.0,1.0,5.0,0.0,0.0,3.0,1.0,phase_2,stop,550.0,450.0,4.0,,,,,,,,,magenta,hexagon
0.0,4.0,4.0,0.0,5.0,5.0,841.6618269993705,3.0,1.0,phase_2,go,600.0,450.0,1.0,,,,,,,,,green,I
0.0,6.0,1.0,1.0,6.0,0.0,0.0,3.0,1.0,phase_2,stop,600.0,450.0,4.0,,,,,,,,,magenta,hexagon
0.0,5.0,0.5,1.0,5.0,5.0,954.6669909996126,3.0,1.0,phase_2,go,600.0,500.0,1.0,,,,,,,,,cyan,triangle
0.0,6.0,1.0,1.0,5.0,0.0,0.0,3.0,1.0,phase_2,stop,600.0,500.0,4.0,,,,,,,,,magenta,hexagon
0.0,6.0,1.0,1.0,6.0,6.0,887.6732629996695,3.0,1.0,phase_2,go,650.0,500.0,1.0,,,,,,,,,magenta,hexagon
0.0,4.0,4.0,0.0,5.0,5.0,879.9611020003795,3.0,1.0,phase_2,go,650.0,500.0,1.0,,,,,,,,,green,I
0.0,2.0,1.0,0.0,5.0,5.0,543.32005499964,3.0,1.0,phase_2,go,650.0,500.0,1.0,,,,,,,,,gray,cross
0.0,8.0,4.0,1.0,6.0,0.0,0.0,3.0,1.0,phase_2,stop,650.0,500.0,4.0,,,,,,,,,blue,circle
0.0,2.0,1.0,0.0,5.0,5.0,578.7893050001003,3.0,1.0,phase_2,go,650.0,550.0,1.0,,,,,,,,,gray,cross
0.0,5.0,0.5,1.0,6.0,0.0,0.0,3.0,1.0,phase_2,stop,650.0,550.0,4.0,,,,,,,,,cyan,triangle
0.0,1.0,0.5,0.0,5.0,5.0,405.4862849998244,3.0,1.0,phase_2,go,650.0,600.0,1.0,,,,,,,,,orange,square
0.0,2.0,1.0,0.0,6.0,6.0,999.6096579998266,3.0,1.0,phase_2,go,650.0,600.0,1.0,,,,,,,,,gray,cross
0.0,2.0,1.0,0.0,5.0,5.0,551.534649000132,3.0,1.0,phase_2,go,650.0,600.0,1.0,,,,,,,,,gray,cross
0.0,4.0,4.0,0.0,6.0,6.0,486.9171820000701,4.0,1.0,phase_2,go,650.0,600.0,1.0,,,,,,,,,green,I
0.0,5.0,0.5,1.0,6.0,6.0,476.4302769999631,4.0,1.0,phase_2,stop,650.0,600.0,3.0,,,,,,,,,cyan,triangle
0.0,3.0,2.0,0.0,6.0,6.0,531.1480230002417,4.0,1.0,phase_2,go,650.0,550.0,1.0,,,,,,,,,yellow,diamond
0.0,2.0,1.0,0.0,6.0,6.0,635.8995480004523,4.0,1.0,phase_2,go,650.0,550.0,1.0,,,,,,,,,gray,cross
0.0,5.0,0.5,1.0,6.0,0.0,0.0,4.0,1.0,phase_2,stop,650.0,550.0,4.0,,,,,,,,,cyan,triangle
0.0,7.0,2.0,1.0,5.0,5.0,431.5628570002445,4.0,1.0,phase_2,go,650.0,600.0,1.0,,,,,,,,,white,flipped triangle
0.0,1.0,0.5,0.0,5.0,5.0,719.8919890006437,4.0,1.0,phase_2,go,650.0,600.0,1.0,,,,,,,,,orange,square
0.0,4.0,4.0,0.0,5.0,5.0,430.5489490006948,4.0,1.0,phase_2,go,650.0,600.0,1.0,,,,,,,,,green,I
0.0,7.0,2.0,1.0,6.0,6.0,550.3423130003284,4.0,1.0,phase_2,stop,650.0,600.0,3.0,,,,,,,,,white,flipped triangle
0.0,7.0,2.0,1.0,6.0,6.0,597.8417200003605,4.0,1.0,phase_2,go,650.0,550.0,1.0,,,,,,,,,white,flipped triangle
0.0,4.0,4.0,0.0,6.0,6.0,729.346875000374,4.0,1.0,phase_2,go,650.0,550.0,1.0,,,,,,,,,green,I
0.0,1.0,0.5,0.0,6.0,6.0,412.1321109996643,4.0,1.0,phase_2,go,650.0,550.0,1.0,,,,,,,,,orange,square
0.0,4.0,4.0,0.0,6.0,6.0,367.4713549999069,4.0,1.0,phase_2,go,650.0,550.0,1.0,,,,,,,,,green,I
0.0,2.0,1.0,0.0,5.0,5.0,720.5732869997519,4.0,1.0,phase_2,go,650.0,550.0,1.0,,,,,,,,,gray,cross
0.0,5.0,0.5,1.0,5.0,5.0,570.612008000353,4.0,1.0,phase_2,stop,650.0,550.0,3.0,,,,,,,,,cyan,triangle
0.0,4.0,4.0,0.0,6.0,6.0,477.9560349998064,4.0,1.0,phase_2,go,600.0,550.0,1.0,,,,,,,,,green,I
0.0,6.0,1.0,1.0,5.0,0.0,0.0,4.0,1.0,phase_2,stop,600.0,550.0,4.0,,,,,,,,,magenta,hexagon
0.0,5.0,0.5,1.0,6.0,6.0,411.3579969998682,4.0,1.0,phase_2,stop,650.0,550.0,3.0,,,,,,,,,cyan,triangle
0.0,6.0,1.0,1.0,6.0,0.0,0.0,4.0,1.0,phase_2,stop,650.0,500.0,4.0,,,,,,,,,magenta,hexagon
0.0,2.0,1.0,0.0,6.0,6.0,457.0880189994568,4.0,1.0,phase_2,go,650.0,550.0,1.0,,,,,,,,,gray,cross
0.0,1.0,0.5,0.0,6.0,6.0,822.4118159996578,4.0,1.0,phase_2,go,650.0,550.0,1.0,,,,,,,,,orange,square
0.0,5.0,0.5,1.0,5.0,5.0,794.5955300001515,4.0,1.0,phase_2,stop,650.0,550.0,3.0,,,,,,,,,cyan,triangle
0.0,5.0,0.5,1.0,6.0,0.0,0.0,4.0,1.0,phase_2,stop,600.0,550.0,4.0,,,,,,,,,cyan,triangle
0.0,3.0,2.0,0.0,5.0,5.0,598.0182909997893,4.0,1.0,phase_2,go,600.0,600.0,1.0,,,,,,,,,yellow,diamond
0.0,7.0,2.0,1.0,6.0,0.0,0.0,4.0,1.0,phase_2,stop,600.0,600.0,4.0,,,,,,,,,white,flipped triangle
0.0,2.0,1.0,0.0,5.0,5.0,746.6422249999596,4.0,1.0,phase_2,go,600.0,650.0,1.0,,,,,,,,,gray,cross
0.0,8.0,4.0,1.0,6.0,0.0,0.0,4.0,1.0,phase_2,stop,600.0,650.0,4.0,,,,,,,,,blue,circle
0.0,8.0,4.0,1.0,6.0,6.0,757.1433389994127,4.0,1.0,phase_2,stop,600.0,700.0,3.0,,,,,,,,,blue,circle
0.0,1.0,0.5,0.0,5.0,5.0,589.897105000091,4.0,1.0,phase_2,go,600.0,650.0,1.0,,,,,,,,,orange,square
0.0,6.0,1.0,1.0,6.0,6.0,770.7989959999395,4.0,1.0,phase_2,stop,600.0,650.0,3.0,,,,,,,,,magenta,hexagon
0.0,3.0,2.0,0.0,5.0,5.0,541.9544019996465,4.0,1.0,phase_2,go,600.0,600.0,1.0,,,,,,,,,yellow,diamond
0.0,8.0,4.0,1.0,6.0,6.0,683.1798209996123,4.0,1.0,phase_2,go,600.0,600.0,1.0,,,,,,,,,blue,circle
0.0,1.0,0.5,0.0,6.0,6.0,513.2557709994217,4.0,1.0,phase_2,go,600.0,600.0,1.0,,,,,,,,,orange,square
0.0,8.0,4.0,1.0,6.0,6.0,800.2291960001457,4.0,1.0,phase_2,stop,600.0,600.0,3.0,,,,,,,,,blue,circle
0.0,7.0,2.0,1.0,6.0,6.0,1007.6601709997703,4.0,1.0,phase_2,stop,600.0,550.0,3.0,,,,,,,,,white,flipped triangle
0.0,1.0,0.5,0.0,6.0,0.0,0.0,4.0,1.0,phase_2,go,600.0,500.0,5.0,,,,,,,,,orange,square
0.0,5.0,0.5,1.0,5.0,5.0,495.7047850002709,5.0,1.0,phase_2,stop,600.0,500.0,3.0,,,,,,,,,cyan,triangle
0.0,5.0,0.5,1.0,5.0,5.0,533.7508400007209,5.0,1.0,phase_2,stop,550.0,500.0,3.0,,,,,,,,,cyan,triangle
0.0,7.0,2.0,1.0,6.0,0.0,0.0,5.0,1.0,phase_2,stop,500.0,500.0,4.0,,,,,,,,,white,flipped triangle
0.0,6.0,1.0,1.0,5.0,5.0,672.2495620006157,5.0,1.0,phase_2,go,500.0,550.0,1.0,,,,,,,,,magenta,hexagon
0.0,7.0,2.0,1.0,6.0,0.0,0.0,5.0,1.0,phase_2,stop,500.0,550.0,4.0,,,,,,,,,white,flipped triangle
0.0,6.0,1.0,1.0,5.0,0.0,0.0,5.0,1.0,phase_2,stop,500.0,600.0,4.0,,,,,,,,,magenta,hexagon
0.0,8.0,4.0,1.0,5.0,5.0,458.1817540001793,5.0,1.0,phase_2,go,550.0,600.0,1.0,,,,,,,,,blue,circle
0.0,6.0,1.0,1.0,5.0,5.0,711.4293109998471,5.0,1.0,phase_2,stop,550.0,600.0,3.0,,,,,,,,,magenta,hexagon
0.0,5.0,0.5,1.0,5.0,5.0,623.702109000078,5.0,1.0,phase_2,stop,500.0,600.0,3.0,,,,,,,,,cyan,triangle
0.0,2.0,1.0,0.0,6.0,6.0,885.9195629993337,5.0,1.0,phase_2,go,450.0,600.0,1.0,,,,,,,,,gray,cross
0.0,6.0,1.0,1.0,6.0,6.0,961.9059180004116,5.0,1.0,phase_2,go,450.0,600.0,1.0,,,,,,,,,magenta,hexagon
0.0,1.0,0.5,0.0,6.0,6.0,513.9747160001207,5.0,1.0,phase_2,go,450.0,600.0,1.0,,,,,,,,,orange,square
0.0,5.0,0.5,1.0,6.0,6.0,392.9430400003184,5.0,1.0,phase_2,stop,450.0,600.0,3.0,,,,,,,,,cyan,triangle
0.0,7.0,2.0,1.0,5.0,0.0,0.0,5.0,1.0,phase_2,stop,450.0,550.0,4.0,,,,,,,,,white,flipped triangle
0.0,1.0,0.5,0.0,5.0,5.0,495.8468830000129,5.0,1.0,phase_2,go,500.0,550.0,1.0,,,,,,,,,orange,square
0.0,3.0,2.0,0.0,6.0,6.0,336.1557270000048,5.0,1.0,phase_2,go,500.0,550.0,1.0,,,,,,,,,yellow,diamond
0.0,4.0,4.0,0.0,5.0,5.0,382.244838000588,5.0,1.0,phase_2,go,500.0,550.0,1.0,,,,,,,,,green,I
0.0,7.0,2.0,1.0,5.0,5.0,317.7518659995257,5.0,1.0,phase_2,go,500.0,550.0,1.0,,,,,,,,,white,flipped triangle
0.0,7.0,2.0,1.0,6.0,6.0,261.7117159998088,5.0,1.0,phase_2,stop,500.0,550.0,3.0,,,,,,,,,white,flipped triangle
0.0,8.0,4.0,1.0,5.0,5.0,449.4225119997281,5.0,1.0,phase_2,stop,500.0,500.0,3.0,,,,,,,,,blue,circle
0.0,6.0,1.0,1.0,6.0,6.0,497.6765400006115,5.0,1.0,phase_2,stop,450.0,500.0,3.0,,,,,,,,,magenta,hexagon
0.0,3.0,2.0,0.0,5.0,5.0,746.59096600044,5.0,1.0,phase_2,go,450.0,450.0,1.0,,,,,,,,,yellow,diamond
0.0,6.0,1.0,1.0,5.0,0.0,0.0,5.0,1.0,phase_2,stop,450.0,450.0,4.0,,,,,,,,,magenta,hexagon
0.0,5.0,0.5,1.0,6.0,6.0,748.2358329998533,5.0,1.0,phase_2,go,500.0,450.0,1.0,,,,,,,,,cyan,triangle
0.0,2.0,1.0,0.0,5.0,5.0,506.62069600002724,5.0,1.0,phase_2,go,500.0,450.0,1.0,,,,,,,,,gray,cross
0.0,3.0,2.0,0.0,5.0,5.0,403.3577669997612,5.0,1.0,phase_2,go,500.0,450.0,1.0,,,,,,,,,yellow,diamond
0.0,2.0,1.0,0.0,5.0,5.0,393.6484830001063,5.0,1.0,phase_2,go,500.0,450.0,1.0,,,,,,,,,gray,cross
0.0,4.0,4.0,0.0,5.0,5.0,318.7135729995134,5.0,1.0,phase_2,go,500.0,450.0,1.0,,,,,,,,,green,I
0.0,2.0,1.0,0.0,6.0,6.0,375.313470999572,5.0,1.0,phase_2,go,500.0,450.0,1.0,,,,,,,,,gray,cross
0.0,8.0,4.0,1.0,5.0,5.0,328.3528070005559,5.0,1.0,phase_2,stop,500.0,450.0,3.0,,,,,,,,,blue,circle
0.0,3.0,2.0,0.0,5.0,5.0,440.8884659997056,5.0,1.0,phase_2,go,450.0,450.0,1.0,,,,,,,,,yellow,diamond
0.0,7.0,2.0,1.0,5.0,5.0,449.0339350004433,5.0,1.0,phase_2,go,450.0,450.0,1.0,,,,,,,,,white,flipped triangle
0.0,4.0,4.0,0.0,5.0,5.0,375.0421839995397,5.0,1.0,phase_2,go,450.0,450.0,1.0,,,,,,,,,green,I
0.0,1.0,0.5,0.0,5.0,5.0,366.0173560001567,5.0,1.0,phase_2,go,450.0,450.0,1.0,,,,,,,,,orange,square
0.0,7.0,2.0,1.0,5.0,5.0,502.9451029995471,5.0,1.0,phase_2,stop,450.0,450.0,3.0,,,,,,,,,white,flipped triangle
0.0,6.0,1.0,1.0,6.0,0.0,0.0,5.0,1.0,phase_2,stop,400.0,450.0,4.0,,,,,,,,,magenta,hexagon
0.0,2.0,1.0,0.0,6.0,6.0,541.8526000003112,6.0,1.0,phase_2,go,400.0,500.0,1.0,,,,,,,,,gray,cross
0.0,6.0,1.0,1.0,6.0,6.0,348.664903000099,6.0,1.0,phase_2,stop,400.0,500.0,3.0,,,,,,,,,magenta,hexagon
0.0,5.0,0.5,1.0,5.0,5.0,438.9885340006003,6.0,1.0,phase_2,stop,400.0,450.0,3.0,,,,,,,,,cyan,triangle
0.0,8.0,4.0,1.0,5.0,0.0,0.0,6.0,1.0,phase_2,stop,350.0,450.0,4.0,,,,,,,,,blue,circle
0.0,2.0,1.0,0.0,5.0,5.0,525.2659150000909,6.0,1.0,phase_2,go,400.0,450.0,1.0,,,,,,,,,gray,cross
0.0,5.0,0.5,1.0,5.0,5.0,365.4102129994498,6.0,1.0,phase_2,stop,400.0,450.0,3.0,,,,,,,,,cyan,triangle
0.0,1.0,0.5,0.0,6.0,6.0,476.774523000131,6.0,1.0,phase_2,go,350.0,450.0,1.0,,,,,,,,,orange,square
0.0,2.0,1.0,0.0,5.0,5.0,488.8179529998524,6.0,1.0,phase_2,go,350.0,450.0,1.0,,,,,,,,,gray,cross
0.0,5.0,0.5,1.0,6.0,6.0,787.5696559995049,6.0,1.0,phase_2,go,350.0,450.0,1.0,,,,,,,,,cyan,triangle
0.0,2.0,1.0,0.0,5.0,5.0,393.0687390002276,6.0,1.0,phase_2,go,350.0,450.0,1.0,,,,,,,,,gray,cross
0.0,2.0,1.0,0.0,5.0,5.0,354.8268210006426,6.0,1.0,phase_2,go,350.0,450.0,1.0,,,,,,,,,gray,cross
0.0,6.0,1.0,1.0,6.0,6.0,524.764676999439,6.0,1.0,phase_2,go,350.0,450.0,1.0,,,,,,,,,magenta,hexagon
0.0,4.0,4.0,0.0,6.0,6.0,477.0206500006679,6.0,1.0,phase_2,go,350.0,450.0,1.0,,,,,,,,,green,I
0.0,8.0,4.0,1.0,5.0,0.0,0.0,6.0,1.0,phase_2,stop,350.0,450.0,4.0,,,,,,,,,blue,circle
0.0,7.0,2.0,1.0,6.0,6.0,365.865376000329,6.0,1.0,phase_2,stop,400.0,450.0,3.0,,,,,,,,,white,flipped triangle
0.0,5.0,0.5,1.0,6.0,6.0,980.673447999834,6.0,1.0,phase_2,go,400.0,400.0,1.0,,,,,,,,,cyan,triangle
0.0,1.0,0.5,0.0,5.0,5.0,373.4007200000633,6.0,1.0,phase_2,go,400.0,400.0,1.0,,,,,,,,,orange,square
0.0,3.0,2.0,0.0,5.0,5.0,364.5493319991146,6.0,1.0,phase_2,go,400.0,400.0,1.0,,,,,,,,,yellow,diamond
0.0,4.0,4.0,0.0,6.0,6.0,466.526268999587,6.0,1.0,phase_2,go,400.0,400.0,1.0,,,,,,,,,green,I
0.0,8.0,4.0,1.0,6.0,0.0,0.0,6.0,1.0,phase_2,stop,400.0,400.0,4.0,,,,,,,,,blue,circle
0.0,2.0,1.0,0.0,5.0,5.0,457.7560340003401,6.0,1.0,phase_2,go,400.0,450.0,1.0,,,,,,,,,gray,cross
0.0,1.0,0.5,0.0,6.0,6.0,326.5285829993445,6.0,1.0,phase_2,go,400.0,450.0,1.0,,,,,,,,,orange,square
0.0,3.0,2.0,0.0,6.0,6.0,439.7212220001165,6.0,1.0,phase_2,go,400.0,450.0,1.0,,,,,,,,,yellow,diamond
0.0,2.0,1.0,0.0,6.0,6.0,354.9802640000052,6.0,1.0,phase_2,go,400.0,450.0,1.0,,,,,,,,,gray,cross
0.0,1.0,0.5,0.0,5.0,5.0,354.4665760000498,6.0,1.0,phase_2,go,400.0,450.0,1.0,,,,,,,,,orange,square
0.0,5.0,0.5,1.0,6.0,6.0,346.1685100000977,6.0,1.0,phase_2,stop,400.0,450.0,3.0,,,,,,,,,cyan,triangle
0.0,4.0,4.0,0.0,6.0,6.0,561.8986940007744,6.0,1.0,phase_2,go,400.0,400.0,1.0,,,,,,,,,green,I
0.0,5.0,0.5,1.0,5.0,5.0,345.0153659996431,6.0,1.0,phase_2,stop,400.0,400.0,3.0,,,,,,,,,cyan,triangle
0.0,7.0,2.0,1.0,6.0,0.0,0.0,6.0,1.0,phase_2,stop,350.0,400.0,4.0,,,,,,,,,white,flipped triangle
0.0,1.0,0.5,0.0,5.0,5.0,495.368691999829,6.0,1.0,phase_2,go,350.0,450.0,1.0,,,,,,,,,orange,square
0.0,1.0,0.5,0.0,6.0,6.0,580.1459880003677,6.0,1.0,phase_2,go,350.0,450.0,1.0,,,,,,,,,orange,square
0.0,6.0,1.0,1.0,6.0,0.0,0.0,6.0,1.0,phase_2,stop,350.0,450.0,4.0,,,,,,,,,magenta,hexagon
0.0,7.0,2.0,1.0,5.0,5.0,588.2023640006082,6.0,1.0,phase_2,go,350.0,500.0,1.0,,,,,,,,,white,flipped triangle
0.0,6.0,1.0,1.0,5.0,0.0,0.0,6.0,1.0,phase_2,stop,350.0,500.0,4.0,,,,,,,,,magenta,hexagon
0.0,4.0,4.0,0.0,6.0,6.0,467.8694009999162,6.0,1.0,phase_2,go,400.0,500.0,1.0,,,,,,,,,green,I
0.0,6.0,1.0,1.0,5.0,5.0,431.0133419994599,6.0,1.0,phase_2,stop,400.0,500.0,3.0,,,,,,,,,magenta,hexagon
0.0,2.0,1.0,0.0,5.0,5.0,467.3753269998997,7.0,1.0,phase_2,go,350.0,500.0,1.0,,,,,,,,,gray,cross
0.0,5.0,0.5,1.0,6.0,6.0,337.31091900062887,7.0,1.0,phase_2,stop,350.0,500.0,3.0,,,,,,,,,cyan,triangle
0.0,2.0,1.0,0.0,5.0,5.0,561.5140769996287,7.0,1.0,phase_2,go,350.0,450.0,1.0,,,,,,,,,gray,cross
0.0,4.0,4.0,0.0,5.0,5.0,570.1197039998078,7.0,1.0,phase_2,go,350.0,450.0,1.0,,,,,,,,,green,I
0.0,7.0,2.0,1.0,5.0,0.0,0.0,7.0,1.0,phase_2,stop,350.0,450.0,4.0,,,,,,,,,white,flipped triangle
0.0,6.0,1.0,1.0,6.0,6.0,526.3260060000903,7.0,1.0,phase_2,stop,400.0,450.0,3.0,,,,,,,,,magenta,hexagon
0.0,4.0,4.0,0.0,5.0,5.0,457.7505319994088,7.0,1.0,phase_2,go,400.0,400.0,1.0,,,,,,,,,green,I
0.0,6.0,1.0,1.0,5.0,5.0,468.793922000259,7.0,1.0,phase_2,stop,400.0,400.0,3.0,,,,,,,,,magenta,hexagon
0.0,2.0,1.0,0.0,6.0,6.0,524.4626570001856,7.0,1.0,phase_2,go,350.0,400.0,1.0,,,,,,,,,gray,cross
0.0,3.0,2.0,0.0,6.0,6.0,457.4901639998643,7.0,1.0,phase_2,go,350.0,400.0,1.0,,,,,,,,,yellow,diamond
0.0,7.0,2.0,1.0,5.0,5.0,318.6993079998501,7.0,1.0,phase_2,stop,350.0,400.0,3.0,,,,,,,,,white,flipped triangle
0.0,7.0,2.0,1.0,5.0,0.0,0.0,7.0,1.0,phase_2,stop,300.0,400.0,4.0,,,,,,,,,white,flipped triangle
0.0,6.0,1.0,1.0,6.0,6.0,565.5430939996222,7.0,1.0,phase_2,stop,350.0,400.0,3.0,,,,,,,,,magenta,hexagon
0.0,2.0,1.0,0.0,6.0,6.0,533.2024140006979,7.0,1.0,phase_2,go,350.0,350.0,1.0,,,,,,,,,gray,cross
0.0,8.0,4.0,1.0,6.0,6.0,652.519914999175,7.0,1.0,phase_2,go,350.0,350.0,1.0,,,,,,,,,blue,circle
0.0,8.0,4.0,1.0,6.0,6.0,336.9063239997558,7.0,1.0,phase_2,go,350.0,350.0,1.0,,,,,,,,,blue,circle
0.0,8.0,4.0,1.0,5.0,5.0,337.7572340004917,7.0,1.0,phase_2,stop,350.0,350.0,3.0,,,,,,,,,blue,circle
0.0,1.0,0.5,0.0,6.0,6.0,318.5101839999333,7.0,1.0,phase_2,go,300.0,350.0,1.0,,,,,,,,,orange,square
0.0,4.0,4.0,0.0,5.0,5.0,508.298418000777,7.0,1.0,phase_2,go,300.0,350.0,1.0,,,,,,,,,green,I
0.0,3.0,2.0,0.0,5.0,5.0,431.0289300001386,7.0,1.0,phase_2,go,300.0,350.0,1.0,,,,,,,,,yellow,diamond
0.0,4.0,4.0,0.0,5.0,5.0,430.2636839993283,7.0,1.0,phase_2,go,300.0,350.0,1.0,,,,,,,,,green,I
0.0,2.0,1.0,0.0,6.0,6.0,495.1505899998665,7.0,1.0,phase_2,go,300.0,350.0,1.0,,,,,,,,,gray,cross
0.0,1.0,0.5,0.0,5.0,5.0,355.6877359997088,7.0,1.0,phase_2,go,300.0,350.0,1.0,,,,,,,,,orange,square
0.0,8.0,4.0,1.0,5.0,5.0,523.9201599997614,7.0,1.0,phase_2,go,300.0,350.0,1.0,,,,,,,,,blue,circle
0.0,6.0,1.0,1.0,6.0,0.0,0.0,7.0,1.0,phase_2,stop,300.0,350.0,4.0,,,,,,,,,magenta,hexagon
0.0,1.0,0.5,0.0,5.0,5.0,478.869176000444,7.0,1.0,phase_2,go,300.0,400.0,1.0,,,,,,,,,orange,square
0.0,4.0,4.0,0.0,6.0,6.0,459.2006299999411,7.0,1.0,phase_2,go,300.0,400.0,1.0,,,,,,,,,green,I
0.0,7.0,2.0,1.0,6.0,0.0,0.0,7.0,1.0,phase_2,stop,300.0,400.0,4.0,,,,,,,,,white,flipped triangle
0.0,5.0,0.5,1.0,5.0,0.0,0.0,7.0,1.0,phase_2,stop,300.0,450.0,4.0,,,,,,,,,cyan,triangle
0.0,3.0,2.0,0.0,6.0,6.0,468.093718000091,7.0,1.0,phase_2,go,350.0,450.0,1.0,,,,,,,,,yellow,diamond
0.0,4.0,4.0,0.0,6.0,6.0,476.9889670005796,7.0,1.0,phase_2,go,350.0,450.0,1.0,,,,,,,,,green,I
0.0,4.0,4.0,0.0,6.0,6.0,569.9808740000663,7.0,1.0,phase_2,go,350.0,450.0,1.0,,,,,,,,,green,I
0.0,8.0,4.0,1.0,5.0,5.0,518.7366099999053,7.0,1.0,phase_2,stop,350.0,450.0,3.0,,,,,,,,,blue,circle
0.0,8.0,4.0,1.0,6.0,0.0,0.0,7.0,1.0,phase_2,stop,300.0,450.0,4.0,,,,,,,,,blue,circle
0.0,7.0,2.0,1.0,5.0,0.0,0.0,7.0,1.0,phase_2,stop,300.0,500.0,4.0,,,,,,,,,white,flipped triangle
0.0,2.0,1.0,0.0,6.0,6.0,441.9707380002364,7.0,1.0,phase_2,go,350.0,500.0,1.0,,,,,,,,,gray,cross
0.0,3.0,2.0,0.0,5.0,5.0,476.9085990001258,8.0,1.0,phase_2,go,350.0,500.0,1.0,,,,,,,,,yellow,diamond
0.0,8.0,4.0,1.0,5.0,0.0,0.0,8.0,1.0,phase_2,stop,350.0,500.0,4.0,,,,,,,,,blue,circle
0.0,7.0,2.0,1.0,5.0,0.0,0.0,8.0,1.0,phase_2,stop,400.0,500.0,4.0,,,,,,,,,white,flipped triangle
0.0,3.0,2.0,0.0,6.0,6.0,346.13251200062217,8.0,1.0,phase_2,go,450.0,500.0,1.0,,,,,,,,,yellow,diamond
0.0,5.0,0.5,1.0,5.0,5.0,581.6500549999546,8.0,1.0,phase_2,stop,450.0,500.0,3.0,,,,,,,,,cyan,triangle
0.0,6.0,1.0,1.0,5.0,5.0,739.3647330000022,8.0,1.0,phase_2,go,400.0,500.0,1.0,,,,,,,,,magenta,hexagon
0.0,3.0,2.0,0.0,6.0,6.0,420.9434889999102,8.0,1.0,phase_2,go,400.0,500.0,1.0,,,,,,,,,yellow,diamond
0.0,1.0,0.5,0.0,5.0,5.0,439.3039960004898,8.0,1.0,phase_2,go,400.0,500.0,1.0,,,,,,,,,orange,square
0.0,6.0,1.0,1.0,6.0,6.0,345.929373999752,8.0,1.0,phase_2,stop,400.0,500.0,3.0,,,,,,,,,magenta,hexagon
0.0,8.0,4.0,1.0,5.0,5.0,520.4779609994148,8.0,1.0,phase_2,stop,400.0,450.0,3.0,,,,,,,,,blue,circle
0.0,8.0,4.0,1.0,5.0,0.0,0.0,8.0,1.0,phase_2,stop,350.0,450.0,4.0,,,,,,,,,blue,circle
0.0,3.0,2.0,0.0,6.0,6.0,514.2689499998596,8.0,1.0,phase_2,go,400.0,450.0,1.0,,,,,,,,,yellow,diamond
0.0,7.0,2.0,1.0,6.0,6.0,654.2372050007543,8.0,1.0,phase_2,go,400.0,450.0,1.0,,,,,,,,,white,flipped triangle
0.0,7.0,2.0,1.0,6.0,0.0,0.0,8.0,1.0,phase_2,stop,400.0,450.0,4.0,,,,,,,,,white,flipped triangle
0.0,8.0,4.0,1.0,6.0,6.0,674.432890999924,8.0,1.0,phase_2,stop,400.0,500.0,3.0,,,,,,,,,blue,circle
0.0,3.0,2.0,0.0,6.0,6.0,494.774812000287,8.0,1.0,phase_2,go,400.0,450.0,1.0,,,,,,,,,yellow,diamond
0.0,8.0,4.0,1.0,5.0,5.0,625.8464989996355,8.0,1.0,phase_2,go,400.0,450.0,1.0,,,,,,,,,blue,circle
0.0,7.0,2.0,1.0,5.0,0.0,0.0,8.0,1.0,phase_2,stop,400.0,450.0,4.0,,,,,,,,,white,flipped triangle
0.0,3.0,2.0,0.0,5.0,5.0,692.6395339996816,8.0,1.0,phase_2,go,450.0,450.0,1.0,,,,,,,,,yellow,diamond
0.0,1.0,0.5,0.0,5.0,5.0,777.005647999431,8.0,1.0,phase_2,go,450.0,450.0,1.0,,,,,,,,,orange,square
0.0,3.0,2.0,0.0,5.0,5.0,619.320843999958,8.0,1.0,phase_2,go,450.0,450.0,1.0,,,,,,,,,yellow,diamond
0.0,6.0,1.0,1.0,5.0,5.0,498.0707690001509,8.0,1.0,phase_2,stop,450.0,450.0,3.0,,,,,,,,,magenta,hexagon
0.0,2.0,1.0,0.0,6.0,6.0,346.5721429993209,8.0,1.0,phase_2,go,400.0,450.0,1.0,,,,,,,,,gray,cross
0.0,7.0,2.0,1.0,6.0,6.0,355.6705399996644,8.0,1.0,phase_2,stop,400.0,450.0,3.0,,,,,,,,,white,flipped triangle
0.0,1.0,0.5,0.0,6.0,6.0,579.9308900004689,8.0,1.0,phase_2,go,400.0,400.0,1.0,,,,,,,,,orange,square
0.0,5.0,0.5,1.0,6.0,6.0,378.1381379994855,8.0,1.0,phase_2,stop,400.0,400.0,3.0,,,,,,,,,cyan,triangle
0.0,4.0,4.0,0.0,6.0,6.0,514.7905590001756,8.0,1.0,phase_2,go,400.0,350.0,1.0,,,,,,,,,green,I
0.0,1.0,0.5,0.0,5.0,5.0,440.5254539997258,8.0,1.0,phase_2,go,400.0,350.0,1.0,,,,,,,,,orange,square
0.0,8.0,4.0,1.0,6.0,6.0,642.4939290000111,8.0,1.0,phase_2,go,400.0,350.0,1.0,,,,,,,,,blue,circle
0.0,5.0,0.5,1.0,5.0,5.0,322.3757620007745,8.0,1.0,phase_2,stop,400.0,350.0,3.0,,,,,,,,,cyan,triangle
0.0,8.0,4.0,1.0,5.0,0.0,0.0,8.0,1.0,phase_2,stop,350.0,350.0,4.0,,,,,,,,,blue,circle
0.0,5.0,0.5,1.0,6.0,6.0,773.8155819997701,8.0,1.0,phase_2,go,400.0,350.0,1.0,,,,,,,,,cyan,triangle
0.0,3.0,2.0,0.0,5.0,5.0,420.9104530000331,8.0,1.0,phase_2,go,400.0,350.0,1.0,,,,,,,,,yellow,diamond
0.0,2.0,1.0,0.0,6.0,6.0,448.8087129993801,8.0,1.0,phase_2,go,400.0,350.0,1.0,,,,,,,,,gray,cross
0.0,8.0,4.0,1.0,5.0,0.0,0.0,8.0,1.0,phase_2,stop,400.0,350.0,4.0,,,,,,,,,blue,circle
0.0,4.0,4.0,0.0,5.0,5.0,458.5929200002283,8.0,1.0,phase_2,go,450.0,350.0,1.0,,,,,,,,,green,I
0.0,5.0,0.5,1.0,7.0,3.0,1932.298964999973,1.0,2.0,phase_3,,,,,865.0,5.0,173.0,692.0,865.0,1038.0,346.0,519.0,cyan,triangle
0.0,2.0,1.0,0.0,7.0,5.0,2068.656675000057,1.0,1.0,phase_3,,,,,308.0,2.0,616.0,154.0,770.0,924.0,308.0,462.0,gray,cross
0.0,8.0,4.0,1.0,7.0,2.0,1381.3927460005289,1.0,1.0,phase_3,,,,,154.0,1.0,770.0,154.0,924.0,616.0,308.0,462.0,blue,circle
0.0,7.0,2.0,1.0,7.0,4.0,1371.668550999857,1.0,1.0,phase_3,,,,,464.0,4.0,116.0,580.0,696.0,464.0,232.0,348.0,white,flipped triangle
0.0,7.0,2.0,1.0,7.0,1.0,1260.7800690002475,1.0,1.0,phase_3,,,,,1152.0,6.0,1152.0,768.0,576.0,384.0,960.0,192.0,white,flipped triangle
0.0,7.0,2.0,1.0,7.0,4.0,1760.14932399994,1.0,1.0,phase_3,,,,,462.0,3.0,616.0,308.0,770.0,462.0,924.0,154.0,white,flipped triangle
0.0,7.0,2.0,1.0,7.0,3.0,1842.6784100001896,1.0,1.0,phase_3,,,,,960.0,5.0,192.0,768.0,960.0,1152.0,576.0,384.0,white,flipped triangle
0.0,4.0,4.0,0.0,7.0,6.0,1299.5840580006188,1.0,1.0,phase_3,,,,,576.0,3.0,768.0,960.0,1152.0,384.0,192.0,576.0,green,I
0.0,2.0,1.0,0.0,7.0,3.0,1467.5005879998937,1.0,1.0,phase_3,,,,,232.0,2.0,580.0,116.0,232.0,464.0,348.0,696.0,gray,cross
0.0,5.0,0.5,1.0,7.0,5.0,1663.5703199999623,1.0,1.0,phase_3,,,,,464.0,4.0,580.0,696.0,232.0,348.0,464.0,116.0,cyan,triangle
0.0,6.0,1.0,1.0,7.0,1.0,1371.968804000062,1.0,1.0,phase_3,,,,,696.0,6.0,696.0,464.0,116.0,232.0,348.0,580.0,magenta,hexagon
0.0,7.0,2.0,1.0,7.0,4.0,1258.2561049994183,1.0,1.0,phase_3,,,,,1038.0,6.0,173.0,519.0,865.0,1038.0,692.0,346.0,white,flipped triangle
0.0,4.0,4.0,0.0,7.0,6.0,1278.937464999217,1.0,1.0,phase_3,,,,,924.0,6.0,462.0,308.0,154.0,616.0,770.0,924.0,green,I
0.0,7.0,2.0,1.0,7.0,3.0,1316.6972320004788,1.0,1.0,phase_3,,,,,135.0,1.0,675.0,270.0,135.0,405.0,810.0,540.0,white,flipped triangle
0.0,5.0,0.5,1.0,7.0,4.0,1334.9691369994616,1.0,1.0,phase_3,,,,,308.0,2.0,616.0,924.0,154.0,308.0,462.0,770.0,cyan,triangle
0.0,4.0,4.0,0.0,7.0,2.0,1103.3638140006587,1.0,1.0,phase_3,,,,,540.0,4.0,810.0,540.0,675.0,270.0,135.0,405.0,green,I
0.0,6.0,1.0,1.0,7.0,4.0,1279.140914999516,1.0,1.0,phase_3,,,,,1038.0,6.0,865.0,346.0,173.0,1038.0,519.0,692.0,magenta,hexagon
0.0,2.0,1.0,0.0,7.0,2.0,1277.300536000439,1.0,1.0,phase_3,,,,,348.0,3.0,580.0,348.0,232.0,116.0,464.0,696.0,gray,cross
0.0,2.0,1.0,0.0,7.0,1.0,1387.8600500001994,1.0,1.0,phase_3,,,,,865.0,5.0,865.0,346.0,692.0,1038.0,519.0,173.0,gray,cross
0.0,7.0,2.0,1.0,7.0,6.0,1398.5605839998243,1.0,1.0,phase_3,,,,,232.0,2.0,116.0,580.0,464.0,696.0,348.0,232.0,white,flipped triangle
0.0,6.0,1.0,1.0,7.0,3.0,1342.563522000091,2.0,1.0,phase_3,,,,,576.0,3.0,192.0,960.0,576.0,1152.0,384.0,768.0,magenta,hexagon
0.0,3.0,2.0,0.0,7.0,3.0,2032.3198779997256,2.0,1.0,phase_3,,,,,810.0,6.0,405.0,540.0,810.0,135.0,270.0,675.0,yellow,diamond
0.0,1.0,0.5,0.0,7.0,3.0,1555.062027000531,2.0,1.0,phase_3,,,,,154.0,1.0,308.0,770.0,154.0,616.0,924.0,462.0,orange,square
0.0,2.0,1.0,0.0,7.0,6.0,1798.4130220002044,2.0,1.0,phase_3,,,,,675.0,5.0,540.0,405.0,270.0,135.0,810.0,675.0,gray,cross
0.0,7.0,2.0,1.0,7.0,2.0,1898.8023709998745,2.0,1.0,phase_3,,,,,519.0,3.0,865.0,519.0,1038.0,346.0,173.0,692.0,white,flipped triangle
0.0,8.0,4.0,1.0,7.0,1.0,1730.857972999729,2.0,1.0,phase_3,,,,,696.0,6.0,696.0,580.0,348.0,232.0,464.0,116.0,blue,circle
0.0,1.0,0.5,0.0,7.0,3.0,1891.0158870003213,2.0,1.0,phase_3,,,,,116.0,1.0,232.0,580.0,116.0,348.0,696.0,464.0,orange,square
0.0,6.0,1.0,1.0,7.0,6.0,1187.1880950002378,2.0,1.0,phase_3,,,,,770.0,5.0,154.0,924.0,308.0,462.0,616.0,770.0,magenta,hexagon
0.0,2.0,1.0,0.0,7.0,5.0,1657.912419999775,2.0,1.0,phase_3,,,,,924.0,6.0,770.0,154.0,308.0,616.0,924.0,462.0,gray,cross
0.0,3.0,2.0,0.0,7.0,2.0,1559.4131089992516,2.0,1.0,phase_3,,,,,154.0,1.0,770.0,154.0,308.0,462.0,924.0,616.0,yellow,diamond
0.0,3.0,2.0,0.0,7.0,4.0,1740.9848560000682,2.0,1.0,phase_3,,,,,384.0,2.0,1152.0,576.0,192.0,384.0,960.0,768.0,yellow,diamond
0.0,1.0,0.5,0.0,7.0,5.0,1732.001643000331,2.0,1.0,phase_3,,,,,696.0,6.0,348.0,116.0,232.0,464.0,696.0,580.0,orange,square
0.0,6.0,1.0,1.0,7.0,2.0,1233.0882480000582,2.0,1.0,phase_3,,,,,580.0,5.0,348.0,580.0,696.0,464.0,116.0,232.0,magenta,hexagon
0.0,1.0,0.5,0.0,7.0,3.0,2553.7069499996505,2.0,1.0,phase_3,,,,,960.0,5.0,576.0,768.0,960.0,192.0,1152.0,384.0,orange,square
0.0,4.0,4.0,0.0,7.0,1.0,1158.8734550005029,2.0,1.0,phase_3,,,,,1038.0,6.0,1038.0,346.0,519.0,865.0,692.0,173.0,green,I
0.0,3.0,2.0,0.0,7.0,4.0,1334.514506999767,2.0,1.0,phase_3,,,,,692.0,4.0,173.0,865.0,519.0,692.0,1038.0,346.0,yellow,diamond
0.0,5.0,0.5,1.0,7.0,5.0,1687.2536359996957,2.0,1.0,phase_3,,,,,348.0,3.0,232.0,580.0,116.0,696.0,348.0,464.0,cyan,triangle
0.0,2.0,1.0,0.0,7.0,2.0,1308.0512349997662,2.0,1.0,phase_3,,,,,540.0,4.0,810.0,540.0,135.0,675.0,270.0,405.0,gray,cross
0.0,4.0,4.0,0.0,7.0,1.0,1038.1924840003194,2.0,1.0,phase_3,,,,,692.0,4.0,692.0,173.0,519.0,1038.0,346.0,865.0,green,I
0.0,4.0,4.0,0.0,7.0,4.0,1803.3879450003951,2.0,1.0,phase_3,,,,,462.0,3.0,308.0,770.0,616.0,462.0,154.0,924.0,green,I
0.0,8.0,4.0,1.0,7.0,4.0,1564.4293430004836,3.0,1.0,phase_3,,,,,865.0,5.0,346.0,519.0,1038.0,865.0,692.0,173.0,blue,circle
0.0,5.0,0.5,1.0,7.0,2.0,1909.1339030001109,3.0,1.0,phase_3,,,,,768.0,4.0,384.0,768.0,1152.0,192.0,576.0,960.0,cyan,triangle
0.0,4.0,4.0,0.0,7.0,6.0,1472.5550639996072,3.0,1.0,phase_3,,,,,810.0,6.0,675.0,405.0,540.0,270.0,135.0,810.0,green,I
0.0,7.0,2.0,1.0,7.0,2.0,1698.1342430008226,3.0,1.0,phase_3,,,,,810.0,6.0,405.0,810.0,675.0,270.0,135.0,540.0,white,flipped triangle
0.0,5.0,0.5,1.0,7.0,1.0,1242.6754070002062,3.0,1.0,phase_3,,,,,616.0,4.0,616.0,770.0,308.0,462.0,924.0,154.0,cyan,triangle
0.0,1.0,0.5,0.0,7.0,3.0,1770.9061180003118,3.0,1.0,phase_3,,,,,616.0,4.0,308.0,770.0,616.0,154.0,462.0,924.0,orange,square
0.0,4.0,4.0,0.0,7.0,5.0,1789.911568000207,3.0,1.0,phase_3,,,,,696.0,6.0,232.0,580.0,348.0,464.0,696.0,116.0,green,I
0.0,1.0,0.5,0.0,7.0,1.0,2152.996519000226,3.0,1.0,phase_3,,,,,865.0,5.0,865.0,173.0,1038.0,692.0,519.0,346.0,orange,square
0.0,6.0,1.0,1.0,7.0,5.0,1614.0965340000548,3.0,1.0,phase_3,,,,,810.0,6.0,540.0,675.0,135.0,270.0,810.0,405.0,magenta,hexagon
0.0,8.0,4.0,1.0,7.0,1.0,1315.8350280000377,3.0,1.0,phase_3,,,,,692.0,4.0,692.0,1038.0,346.0,865.0,519.0,173.0,blue,circle
0.0,8.0,4.0,1.0,7.0,6.0,1666.9931730002645,3.0,1.0,phase_3,,,,,192.0,1.0,960.0,576.0,1152.0,384.0,768.0,192.0,blue,circle
0.0,5.0,0.5,1.0,7.0,5.0,1400.7102799996574,3.0,1.0,phase_3,,,,,405.0,3.0,810.0,135.0,540.0,675.0,405.0,270.0,cyan,triangle
0.0,6.0,1.0,1.0,7.0,2.0,1382.4780270006158,3.0,1.0,phase_3,,,,,519.0,3.0,173.0,519.0,1038.0,692.0,346.0,865.0,magenta,hexagon
0.0,7.0,2.0,1.0,7.0,4.0,1697.883066999566,3.0,1.0,phase_3,,,,,616.0,4.0,308.0,770.0,462.0,616.0,154.0,924.0,white,flipped triangle
0.0,4.0,4.0,0.0,7.0,3.0,1462.9900400004772,3.0,1.0,phase_3,,,,,576.0,3.0,192.0,1152.0,576.0,768.0,384.0,960.0,green,I
0.0,3.0,2.0,0.0,7.0,5.0,1257.7996790005272,3.0,1.0,phase_3,,,,,675.0,5.0,270.0,810.0,135.0,405.0,675.0,540.0,yellow,diamond
0.0,2.0,1.0,0.0,7.0,2.0,1120.6412150004326,3.0,1.0,phase_3,,,,,519.0,3.0,1038.0,519.0,173.0,346.0,865.0,692.0,gray,cross
0.0,2.0,1.0,0.0,7.0,4.0,1639.6690920000765,3.0,1.0,phase_3,,,,,384.0,2.0,576.0,1152.0,768.0,384.0,192.0,960.0,gray,cross
0.0,5.0,0.5,1.0,7.0,2.0,1465.3773509999155,3.0,1.0,phase_3,,,,,692.0,4.0,519.0,692.0,1038.0,346.0,865.0,173.0,cyan,triangle
0.0,8.0,4.0,1.0,7.0,3.0,1574.865621999379,3.0,1.0,phase_3,,,,,270.0,2.0,135.0,540.0,270.0,675.0,810.0,405.0,blue,circle
0.0,8.0,4.0,1.0,7.0,5.0,1187.3253389994716,4.0,1.0,phase_3,,,,,232.0,2.0,348.0,464.0,696.0,580.0,232.0,116.0,blue,circle
0.0,8.0,4.0,1.0,7.0,3.0,1872.7366420007456,4.0,1.0,phase_3,,,,,154.0,1.0,462.0,616.0,154.0,924.0,770.0,308.0,blue,circle
0.0,8.0,4.0,1.0,7.0,6.0,2107.535230000394,4.0,1.0,phase_3,,,,,405.0,3.0,540.0,810.0,270.0,675.0,135.0,405.0,blue,circle
0.0,3.0,2.0,0.0,7.0,1.0,1835.6935259998863,4.0,1.0,phase_3,,,,,696.0,6.0,696.0,348.0,464.0,116.0,232.0,580.0,yellow,diamond
0.0,1.0,0.5,0.0,7.0,4.0,1951.9070630003623,4.0,1.0,phase_3,,,,,576.0,3.0,960.0,192.0,1152.0,576.0,384.0,768.0,orange,square
0.0,1.0,0.5,0.0,7.0,2.0,2406.834020999668,4.0,1.0,phase_3,,,,,540.0,4.0,810.0,540.0,405.0,135.0,675.0,270.0,orange,square
0.0,5.0,0.5,1.0,7.0,3.0,1913.0913790004345,4.0,1.0,phase_3,,,,,960.0,5.0,1152.0,192.0,960.0,576.0,384.0,768.0,cyan,triangle
0.0,1.0,0.5,0.0,7.0,5.0,1562.5388899998145,4.0,1.0,phase_3,,,,,540.0,4.0,675.0,135.0,270.0,405.0,540.0,810.0,orange,square
0.0,3.0,2.0,0.0,7.0,4.0,2096.645805000662,4.0,1.0,phase_3,,,,,696.0,6.0,116.0,232.0,580.0,696.0,348.0,464.0,yellow,diamond
0.0,1.0,0.5,0.0,7.0,1.0,1892.6276960000905,4.0,1.0,phase_3,,,,,346.0,2.0,346.0,519.0,1038.0,692.0,173.0,865.0,orange,square
0.0,6.0,1.0,1.0,7.0,3.0,1749.0138160001152,4.0,1.0,phase_3,,,,,675.0,5.0,540.0,405.0,675.0,270.0,135.0,810.0,magenta,hexagon
0.0,2.0,1.0,0.0,7.0,6.0,1586.1059809994913,4.0,1.0,phase_3,,,,,1152.0,6.0,576.0,768.0,384.0,192.0,960.0,1152.0,gray,cross
0.0,3.0,2.0,0.0,7.0,5.0,1887.947523000548,4.0,1.0,phase_3,,,,,770.0,5.0,308.0,462.0,924.0,154.0,770.0,616.0,yellow,diamond
0.0,3.0,2.0,0.0,7.0,2.0,2513.078885000141,4.0,1.0,phase_3,,,,,384.0,2.0,192.0,384.0,576.0,1152.0,768.0,960.0,yellow,diamond
0.0,6.0,1.0,1.0,7.0,4.0,2710.7925489999616,4.0,1.0,phase_3,,,,,462.0,3.0,154.0,770.0,308.0,462.0,616.0,924.0,magenta,hexagon
0.0,3.0,2.0,0.0,7.0,2.0,1371.9354710001426,4.0,1.0,phase_3,,,,,865.0,5.0,519.0,865.0,173.0,1038.0,346.0,692.0,yellow,diamond
0.0,6.0,1.0,1.0,7.0,3.0,2461.203693000243,4.0,1.0,phase_3,,,,,384.0,2.0,192.0,576.0,384.0,1152.0,960.0,768.0,magenta,hexagon
0.0,8.0,4.0,1.0,7.0,1.0,1399.9421029993755,4.0,1.0,phase_3,,,,,576.0,3.0,576.0,960.0,384.0,192.0,768.0,1152.0,blue,circle
0.0,4.0,4.0,0.0,7.0,3.0,1912.0222290002855,4.0,1.0,phase_3,,,,,116.0,1.0,232.0,464.0,116.0,348.0,580.0,696.0,green,I
0.0,5.0,0.5,1.0,7.0,6.0,1753.075335999711,4.0,1.0,phase_3,,,,,405.0,3.0,540.0,675.0,270.0,810.0,135.0,405.0,cyan,triangle
