raw_reward_magnitude,stim_reward,stepwise_reward_magnitude,paired_with_stopping,stim_location,response,reaction_time,block,num_trial_presentations,which_phase,stop_signal_trial_type,left_SSD,right_SSD,accuracy,chosen_bidding_amount,chosen_bidding_level,possible_bid_1,possible_bid_2,possible_bid_3,possible_bid_4,possible_bid_5,possible_bid_6,color_text,shape_text
0.0,2.0,0.0,0.0,2.0,2.0,664.051642000004,1.0,1.0,phase_1,,,,,,,,,,,,,yellow,cross
166.0,5.0,0.5,1.0,4.0,4.0,381.8350910000845,1.0,1.0,phase_1,,,,,,,,,,,,,cyan,hexagon
0.0,7.0,0.0,1.0,1.0,1.0,319.3691470000885,1.0,1.0,phase_1,,,,,,,,,,,,,gray,diamond
642.0,3.0,2.0,0.0,3.0,3.0,300.3299169999991,1.0,1.0,phase_1,,,,,,,,,,,,,blue,triangle
168.0,5.0,0.5,1.0,4.0,4.0,319.0680430000157,1.0,1.0,phase_1,,,,,,,,,,,,,cyan,hexagon
321.0,6.0,1.0,1.0,2.0,2.0,365.2762959998199,1.0,1.0,phase_1,,,,,,,,,,,,,green,I
303.0,6.0,1.0,1.0,2.0,2.0,369.7626359999049,1.0,1.0,phase_1,,,,,,,,,,,,,green,I
142.0,1.0,0.5,0.0,2.0,2.0,318.5695920001308,1.0,1.0,phase_1,,,,,,,,,,,,,magenta,flipped triangle
660.0,3.0,2.0,0.0,2.0,2.0,328.0348989999311,1.0,1.0,phase_1,,,,,,,,,,,,,blue,triangle
0.0,4.0,0.0,0.0,3.0,3.0,343.0281959999774,1.0,1.0,phase_1,,,,,,,,,,,,,orange,circle
181.0,5.0,0.5,1.0,3.0,3.0,394.7587509999266,1.0,1.0,phase_1,,,,,,,,,,,,,cyan,hexagon
644.0,7.0,2.0,1.0,3.0,3.0,350.46535700007547,1.0,1.0,phase_1,,,,,,,,,,,,,gray,diamond
140.0,1.0,0.5,0.0,2.0,2.0,360.0314239999989,1.0,1.0,phase_1,,,,,,,,,,,,,magenta,flipped triangle
668.0,7.0,2.0,1.0,1.0,1.0,366.9916269998339,1.0,1.0,phase_1,,,,,,,,,,,,,gray,diamond
347.0,6.0,1.0,1.0,1.0,1.0,397.9621579999275,1.0,1.0,phase_1,,,,,,,,,,,,,green,I
1282.0,8.0,4.0,1.0,4.0,4.0,356.2587359999725,1.0,1.0,phase_1,,,,,,,,,,,,,white,square
628.0,7.0,2.0,1.0,2.0,2.0,373.9542629998595,1.0,1.0,phase_1,,,,,,,,,,,,,gray,diamond
1310.0,4.0,4.0,0.0,1.0,1.0,375.9293159998833,1.0,1.0,phase_1,,,,,,,,,,,,,orange,circle
0.0,8.0,0.0,1.0,4.0,4.0,338.6057469999741,1.0,1.0,phase_1,,,,,,,,,,,,,white,square
0.0,4.0,0.0,0.0,3.0,3.0,321.1707600000864,1.0,1.0,phase_1,,,,,,,,,,,,,orange,circle
182.0,5.0,0.5,1.0,2.0,2.0,289.3423460000122,1.0,1.0,phase_1,,,,,,,,,,,,,cyan,hexagon
140.0,5.0,0.5,1.0,4.0,4.0,329.0499529998669,1.0,1.0,phase_1,,,,,,,,,,,,,cyan,hexagon
670.0,7.0,2.0,1.0,4.0,4.0,386.6534019998653,1.0,1.0,phase_1,,,,,,,,,,,,,gray,diamond
329.0,2.0,1.0,0.0,2.0,2.0,404.6507079999628,1.0,1.0,phase_1,,,,,,,,,,,,,yellow,cross
0.0,7.0,0.0,1.0,4.0,4.0,376.7726480000419,1.0,1.0,phase_1,,,,,,,,,,,,,gray,diamond
0.0,1.0,0.0,0.0,3.0,3.0,338.8286889999108,1.0,1.0,phase_1,,,,,,,,,,,,,magenta,flipped triangle
0.0,6.0,0.0,1.0,2.0,2.0,443.0204169998433,1.0,1.0,phase_1,,,,,,,,,,,,,green,I
662.0,7.0,2.0,1.0,1.0,1.0,321.6601159999754,1.0,1.0,phase_1,,,,,,,,,,,,,gray,diamond
170.0,5.0,0.5,1.0,1.0,1.0,330.3431649999311,1.0,1.0,phase_1,,,,,,,,,,,,,cyan,hexagon
302.0,6.0,1.0,1.0,4.0,4.0,283.6505919999581,1.0,1.0,phase_1,,,,,,,,,,,,,green,I
675.0,3.0,2.0,0.0,1.0,1.0,318.3481989999563,1.0,1.0,phase_1,,,,,,,,,,,,,blue,triangle
1318.0,8.0,4.0,1.0,1.0,1.0,292.938187000118,1.0,1.0,phase_1,,,,,,,,,,,,,white,square
322.0,2.0,1.0,0.0,1.0,1.0,321.6935890000059,1.0,1.0,phase_1,,,,,,,,,,,,,yellow,cross
628.0,7.0,2.0,1.0,3.0,3.0,322.6459590000559,1.0,1.0,phase_1,,,,,,,,,,,,,gray,diamond
629.0,7.0,2.0,1.0,2.0,2.0,338.17605899980657,1.0,1.0,phase_1,,,,,,,,,,,,,gray,diamond
1308.0,8.0,4.0,1.0,2.0,2.0,321.1243390001073,1.0,1.0,phase_1,,,,,,,,,,,,,white,square
327.0,6.0,1.0,1.0,3.0,3.0,310.6742309998935,1.0,1.0,phase_1,,,,,,,,,,,,,green,I
344.0,2.0,1.0,0.0,2.0,2.0,319.5669090000592,1.0,1.0,phase_1,,,,,,,,,,,,,yellow,cross
651.0,3.0,2.0,0.0,1.0,1.0,340.6182940000235,1.0,1.0,phase_1,,,,,,,,,,,,,blue,triangle
336.0,2.0,1.0,0.0,1.0,1.0,321.416734999957,1.0,1.0,phase_1,,,,,,,,,,,,,yellow,cross
663.0,3.0,2.0,0.0,2.0,2.0,329.98320799993047,1.0,1.0,phase_1,,,,,,,,,,,,,blue,triangle
1292.0,4.0,4.0,0.0,1.0,1.0,311.4941439998802,1.0,1.0,phase_1,,,,,,,,,,,,,orange,circle
0.0,3.0,0.0,0.0,1.0,1.0,318.165560999887,1.0,1.0,phase_1,,,,,,,,,,,,,blue,triangle
0.0,3.0,0.0,0.0,3.0,3.0,386.3423340001191,1.0,1.0,phase_1,,,,,,,,,,,,,blue,triangle
637.0,3.0,2.0,0.0,3.0,3.0,366.4618119998977,1.0,1.0,phase_1,,,,,,,,,,,,,blue,triangle
349.0,2.0,1.0,0.0,3.0,3.0,367.864223999959,1.0,1.0,phase_1,,,,,,,,,,,,,yellow,cross
186.0,1.0,0.5,0.0,3.0,3.0,338.5982199999944,1.0,1.0,phase_1,,,,,,,,,,,,,magenta,flipped triangle
635.0,7.0,2.0,1.0,4.0,4.0,413.6963770001785,1.0,1.0,phase_1,,,,,,,,,,,,,gray,diamond
651.0,7.0,2.0,1.0,2.0,2.0,385.5963519999932,1.0,1.0,phase_1,,,,,,,,,,,,,gray,diamond
1294.0,4.0,4.0,0.0,3.0,3.0,311.2924070001099,1.0,1.0,phase_1,,,,,,,,,,,,,orange,circle
334.0,6.0,1.0,1.0,3.0,3.0,319.6064920000481,1.0,1.0,phase_1,,,,,,,,,,,,,green,I
325.0,2.0,1.0,0.0,4.0,4.0,320.23694200006497,1.0,1.0,phase_1,,,,,,,,,,,,,yellow,cross
1311.0,8.0,4.0,1.0,1.0,1.0,329.922839999881,1.0,1.0,phase_1,,,,,,,,,,,,,white,square
342.0,2.0,1.0,0.0,1.0,1.0,302.9773089999708,1.0,1.0,phase_1,,,,,,,,,,,,,yellow,cross
156.0,1.0,0.5,0.0,4.0,4.0,387.8471289999652,1.0,1.0,phase_1,,,,,,,,,,,,,magenta,flipped triangle
153.0,5.0,0.5,1.0,2.0,2.0,347.0289229999252,1.0,1.0,phase_1,,,,,,,,,,,,,cyan,hexagon
142.0,5.0,0.5,1.0,1.0,1.0,291.310846999977,1.0,1.0,phase_1,,,,,,,,,,,,,cyan,hexagon
628.0,3.0,2.0,0.0,1.0,1.0,284.0965890000007,1.0,1.0,phase_1,,,,,,,,,,,,,blue,triangle
315.0,6.0,1.0,1.0,3.0,3.0,340.9763059999022,1.0,1.0,phase_1,,,,,,,,,,,,,green,I
669.0,3.0,2.0,0.0,2.0,2.0,348.4525540000049,1.0,1.0,phase_1,,,,,,,,,,,,,blue,triangle
1277.0,8.0,4.0,1.0,2.0,2.0,329.4126110001798,1.0,1.0,phase_1,,,,,,,,,,,,,white,square
1294.0,8.0,4.0,1.0,4.0,4.0,406.0335359999953,1.0,1.0,phase_1,,,,,,,,,,,,,white,square
0.0,3.0,0.0,0.0,3.0,3.0,452.369729999873,1.0,1.0,phase_1,,,,,,,,,,,,,blue,triangle
309.0,2.0,1.0,0.0,4.0,4.0,436.6098890000103,1.0,1.0,phase_1,,,,,,,,,,,,,yellow,cross
1290.0,8.0,4.0,1.0,3.0,3.0,301.1407219999,1.0,1.0,phase_1,,,,,,,,,,,,,white,square
1324.0,4.0,4.0,0.0,4.0,4.0,292.327202000024,1.0,1.0,phase_1,,,,,,,,,,,,,orange,circle
182.0,1.0,0.5,0.0,3.0,3.0,357.8511129999242,1.0,1.0,phase_1,,,,,,,,,,,,,magenta,flipped triangle
638.0,3.0,2.0,0.0,3.0,3.0,321.0206850001214,1.0,1.0,phase_1,,,,,,,,,,,,,blue,triangle
1321.0,4.0,4.0,0.0,3.0,3.0,320.5301560001317,1.0,1.0,phase_1,,,,,,,,,,,,,orange,circle
144.0,5.0,0.5,1.0,2.0,2.0,386.8166730001121,1.0,2.0,phase_1,,,,,,,,,,,,,cyan,hexagon
344.0,6.0,1.0,1.0,3.0,3.0,348.9417279999998,1.0,1.0,phase_1,,,,,,,,,,,,,green,I
0.0,3.0,0.0,0.0,1.0,1.0,367.3518489999878,1.0,1.0,phase_1,,,,,,,,,,,,,blue,triangle
309.0,6.0,1.0,1.0,2.0,2.0,320.1657519998662,1.0,1.0,phase_1,,,,,,,,,,,,,green,I
0.0,2.0,0.0,0.0,2.0,2.0,319.9000879999403,1.0,1.0,phase_1,,,,,,,,,,,,,yellow,cross
644.0,3.0,2.0,0.0,1.0,1.0,344.3197249998775,1.0,1.0,phase_1,,,,,,,,,,,,,blue,triangle
673.0,3.0,2.0,0.0,2.0,2.0,366.6914010000255,1.0,1.0,phase_1,,,,,,,,,,,,,blue,triangle
159.0,1.0,0.5,0.0,4.0,4.0,373.2577690000198,1.0,1.0,phase_1,,,,,,,,,,,,,magenta,flipped triangle
148.0,1.0,0.5,0.0,1.0,1.0,393.8708149999002,1.0,1.0,phase_1,,,,,,,,,,,,,magenta,flipped triangle
325.0,2.0,1.0,0.0,3.0,3.0,338.6732139999822,1.0,1.0,phase_1,,,,,,,,,,,,,yellow,cross
1314.0,4.0,4.0,0.0,2.0,2.0,309.7286489999078,1.0,1.0,phase_1,,,,,,,,,,,,,orange,circle
1286.0,4.0,4.0,0.0,2.0,2.0,375.5361940000057,1.0,1.0,phase_1,,,,,,,,,,,,,orange,circle
179.0,1.0,0.5,0.0,4.0,4.0,346.0360669998863,1.0,1.0,phase_1,,,,,,,,,,,,,magenta,flipped triangle
668.0,7.0,2.0,1.0,4.0,4.0,348.067699000012,1.0,1.0,phase_1,,,,,,,,,,,,,gray,diamond
669.0,7.0,2.0,1.0,4.0,4.0,376.9175289999111,1.0,1.0,phase_1,,,,,,,,,,,,,gray,diamond
336.0,2.0,1.0,0.0,2.0,2.0,327.1790920000512,1.0,1.0,phase_1,,,,,,,,,,,,,yellow,cross
170.0,1.0,0.5,0.0,1.0,1.0,442.5064079998719,1.0,1.0,phase_1,,,,,,,,,,,,,magenta,flipped triangle
347.0,2.0,1.0,0.0,4.0,4.0,348.2910840000386,1.0,1.0,phase_1,,,,,,,,,,,,,yellow,cross
628.0,7.0,2.0,1.0,4.0,4.0,378.0408610000449,1.0,1.0,phase_1,,,,,,,,,,,,,gray,diamond
0.0,8.0,0.0,1.0,2.0,2.0,405.9877380000216,1.0,1.0,phase_1,,,,,,,,,,,,,white,square
639.0,7.0,2.0,1.0,3.0,3.0,387.0479900001555,1.0,1.0,phase_1,,,,,,,,,,,,,gray,diamond
329.0,6.0,1.0,1.0,4.0,4.0,338.3762569999362,1.0,1.0,phase_1,,,,,,,,,,,,,green,I
166.0,1.0,0.5,0.0,4.0,4.0,348.008388000153,1.0,1.0,phase_1,,,,,,,,,,,,,magenta,flipped triangle
335.0,2.0,1.0,0.0,1.0,1.0,320.7053640001049,1.0,1.0,phase_1,,,,,,,,,,,,,yellow,cross
0.0,6.0,0.0,1.0,4.0,4.0,357.3250970000572,1.0,1.0,phase_1,,,,,,,,,,,,,green,I
342.0,2.0,1.0,0.0,2.0,2.0,337.5427569999374,1.0,1.0,phase_1,,,,,,,,,,,,,yellow,cross
166.0,1.0,0.5,0.0,2.0,2.0,374.8207769999681,1.0,1.0,phase_1,,,,,,,,,,,,,magenta,flipped triangle
670.0,3.0,2.0,0.0,1.0,1.0,329.6348699998361,1.0,1.0,phase_1,,,,,,,,,,,,,blue,triangle
170.0,1.0,0.5,0.0,3.0,3.0,281.3559930000338,1.0,1.0,phase_1,,,,,,,,,,,,,magenta,flipped triangle
0.0,8.0,0.0,1.0,2.0,2.0,421.3010759999633,1.0,1.0,phase_1,,,,,,,,,,,,,white,square
316.0,6.0,1.0,1.0,2.0,2.0,330.6381190000138,1.0,1.0,phase_1,,,,,,,,,,,,,green,I
157.0,1.0,0.5,0.0,3.0,3.0,379.9699869998676,2.0,1.0,phase_1,,,,,,,,,,,,,magenta,flipped triangle
1281.0,8.0,4.0,1.0,2.0,2.0,310.8446340002047,2.0,1.0,phase_1,,,,,,,,,,,,,white,square
177.0,5.0,0.5,1.0,2.0,2.0,320.6480520000241,2.0,1.0,phase_1,,,,,,,,,,,,,cyan,hexagon
0.0,3.0,0.0,0.0,2.0,2.0,272.6568999999017,2.0,1.0,phase_1,,,,,,,,,,,,,blue,triangle
0.0,5.0,0.0,1.0,4.0,4.0,365.7019799998124,2.0,1.0,phase_1,,,,,,,,,,,,,cyan,hexagon
334.0,2.0,1.0,0.0,4.0,4.0,340.8901709999554,2.0,1.0,phase_1,,,,,,,,,,,,,yellow,cross
0.0,8.0,0.0,1.0,4.0,4.0,301.03591399984,2.0,1.0,phase_1,,,,,,,,,,,,,white,square
1277.0,4.0,4.0,0.0,3.0,3.0,319.6847319998142,2.0,1.0,phase_1,,,,,,,,,,,,,orange,circle
323.0,6.0,1.0,1.0,4.0,4.0,375.9624809999877,2.0,1.0,phase_1,,,,,,,,,,,,,green,I
1290.0,4.0,4.0,0.0,1.0,1.0,337.652645999924,2.0,3.0,phase_1,,,,,,,,,,,,,orange,circle
320.0,2.0,1.0,0.0,1.0,1.0,366.5498059999663,2.0,1.0,phase_1,,,,,,,,,,,,,yellow,cross
313.0,2.0,1.0,0.0,1.0,1.0,309.6622059999845,2.0,1.0,phase_1,,,,,,,,,,,,,yellow,cross
1298.0,8.0,4.0,1.0,3.0,3.0,339.9190950001411,2.0,1.0,phase_1,,,,,,,,,,,,,white,square
652.0,3.0,2.0,0.0,3.0,3.0,432.0514260000436,2.0,1.0,phase_1,,,,,,,,,,,,,blue,triangle
308.0,2.0,1.0,0.0,3.0,3.0,359.9303179998969,2.0,1.0,phase_1,,,,,,,,,,,,,yellow,cross
636.0,3.0,2.0,0.0,1.0,1.0,360.8288060001996,2.0,1.0,phase_1,,,,,,,,,,,,,blue,triangle
0.0,3.0,0.0,0.0,1.0,1.0,329.0169919998789,2.0,1.0,phase_1,,,,,,,,,,,,,blue,triangle
654.0,7.0,2.0,1.0,2.0,2.0,358.3739790001345,2.0,1.0,phase_1,,,,,,,,,,,,,gray,diamond
1324.0,8.0,4.0,1.0,1.0,1.0,403.0245419999119,2.0,1.0,phase_1,,,,,,,,,,,,,white,square
629.0,3.0,2.0,0.0,1.0,1.0,320.7835319999503,2.0,1.0,phase_1,,,,,,,,,,,,,blue,triangle
1308.0,8.0,4.0,1.0,4.0,4.0,299.5943420000913,2.0,1.0,phase_1,,,,,,,,,,,,,white,square
1284.0,4.0,4.0,0.0,2.0,2.0,541.9973329999266,2.0,1.0,phase_1,,,,,,,,,,,,,orange,circle
1310.0,8.0,4.0,1.0,3.0,3.0,346.3524160001725,2.0,1.0,phase_1,,,,,,,,,,,,,white,square
0.0,8.0,0.0,1.0,4.0,4.0,365.79632299981307,2.0,1.0,phase_1,,,,,,,,,,,,,white,square
1287.0,8.0,4.0,1.0,1.0,1.0,329.945127999963,2.0,1.0,phase_1,,,,,,,,,,,,,white,square
0.0,1.0,0.0,0.0,2.0,2.0,394.9831909999375,2.0,1.0,phase_1,,,,,,,,,,,,,magenta,flipped triangle
637.0,7.0,2.0,1.0,1.0,1.0,413.0100299998958,2.0,1.0,phase_1,,,,,,,,,,,,,gray,diamond
0.0,6.0,0.0,1.0,4.0,4.0,384.3497249999927,2.0,1.0,phase_1,,,,,,,,,,,,,green,I
319.0,6.0,1.0,1.0,1.0,1.0,356.727146999674,2.0,1.0,phase_1,,,,,,,,,,,,,green,I
1298.0,4.0,4.0,0.0,2.0,2.0,358.1715090003854,2.0,1.0,phase_1,,,,,,,,,,,,,orange,circle
1293.0,8.0,4.0,1.0,4.0,4.0,358.58103999999,2.0,1.0,phase_1,,,,,,,,,,,,,white,square
172.0,1.0,0.5,0.0,3.0,3.0,308.001341000363,2.0,1.0,phase_1,,,,,,,,,,,,,magenta,flipped triangle
164.0,5.0,0.5,1.0,2.0,2.0,358.5496149999017,2.0,1.0,phase_1,,,,,,,,,,,,,cyan,hexagon
638.0,7.0,2.0,1.0,2.0,2.0,302.0940629999131,2.0,1.0,phase_1,,,,,,,,,,,,,gray,diamond
177.0,1.0,0.5,0.0,1.0,1.0,481.3447010001255,2.0,1.0,phase_1,,,,,,,,,,,,,magenta,flipped triangle
176.0,5.0,0.5,1.0,1.0,1.0,357.3367009998947,2.0,1.0,phase_1,,,,,,,,,,,,,cyan,hexagon
1292.0,8.0,4.0,1.0,3.0,3.0,358.3759319999444,2.0,1.0,phase_1,,,,,,,,,,,,,white,square
138.0,1.0,0.5,0.0,4.0,4.0,339.5862799998212,2.0,1.0,phase_1,,,,,,,,,,,,,magenta,flipped triangle
140.0,1.0,0.5,0.0,2.0,2.0,394.0569840001444,2.0,2.0,phase_1,,,,,,,,,,,,,magenta,flipped triangle
1293.0,8.0,4.0,1.0,2.0,2.0,319.0869939999174,2.0,1.0,phase_1,,,,,,,,,,,,,white,square
342.0,6.0,1.0,1.0,3.0,3.0,345.1624049998827,2.0,1.0,phase_1,,,,,,,,,,,,,green,I
0.0,7.0,0.0,1.0,1.0,1.0,309.3157669995889,2.0,1.0,phase_1,,,,,,,,,,,,,gray,diamond
0.0,8.0,0.0,1.0,4.0,4.0,302.3653740001464,2.0,1.0,phase_1,,,,,,,,,,,,,white,square
0.0,1.0,0.0,0.0,4.0,4.0,328.0448780001279,2.0,1.0,phase_1,,,,,,,,,,,,,magenta,flipped triangle
656.0,3.0,2.0,0.0,2.0,2.0,321.8375829997058,2.0,1.0,phase_1,,,,,,,,,,,,,blue,triangle
0.0,2.0,0.0,0.0,2.0,2.0,336.8799149998267,2.0,1.0,phase_1,,,,,,,,,,,,,yellow,cross
644.0,3.0,2.0,0.0,4.0,4.0,349.041280000165,2.0,1.0,phase_1,,,,,,,,,,,,,blue,triangle
1289.0,8.0,4.0,1.0,3.0,3.0,264.6683660000235,2.0,1.0,phase_1,,,,,,,,,,,,,white,square
638.0,7.0,2.0,1.0,3.0,3.0,318.2404569997743,2.0,1.0,phase_1,,,,,,,,,,,,,gray,diamond
325.0,2.0,1.0,0.0,3.0,3.0,310.272807000274,2.0,1.0,phase_1,,,,,,,,,,,,,yellow,cross
1308.0,4.0,4.0,0.0,2.0,2.0,308.9075379998576,2.0,1.0,phase_1,,,,,,,,,,,,,orange,circle
168.0,5.0,0.5,1.0,1.0,1.0,272.8674990003128,2.0,1.0,phase_1,,,,,,,,,,,,,cyan,hexagon
320.0,6.0,1.0,1.0,4.0,4.0,357.6728689999982,2.0,1.0,phase_1,,,,,,,,,,,,,green,I
303.0,2.0,1.0,0.0,2.0,2.0,320.6465779999234,2.0,1.0,phase_1,,,,,,,,,,,,,yellow,cross
161.0,1.0,0.5,0.0,2.0,2.0,442.0452740000655,2.0,1.0,phase_1,,,,,,,,,,,,,magenta,flipped triangle
1300.0,8.0,4.0,1.0,2.0,2.0,385.7471830001486,2.0,1.0,phase_1,,,,,,,,,,,,,white,square
319.0,2.0,1.0,0.0,2.0,2.0,359.5325139999659,2.0,1.0,phase_1,,,,,,,,,,,,,yellow,cross
143.0,1.0,0.5,0.0,3.0,3.0,312.1678859997701,2.0,1.0,phase_1,,,,,,,,,,,,,magenta,flipped triangle
0.0,8.0,0.0,1.0,3.0,3.0,309.2318930002875,2.0,1.0,phase_1,,,,,,,,,,,,,white,square
1314.0,8.0,4.0,1.0,4.0,4.0,356.2010340001507,2.0,2.0,phase_1,,,,,,,,,,,,,white,square
312.0,6.0,1.0,1.0,3.0,3.0,353.3972949999224,2.0,1.0,phase_1,,,,,,,,,,,,,green,I
658.0,7.0,2.0,1.0,1.0,1.0,328.8335339998411,2.0,1.0,phase_1,,,,,,,,,,,,,gray,diamond
349.0,6.0,1.0,1.0,2.0,2.0,337.4843860001419,2.0,1.0,phase_1,,,,,,,,,,,,,green,I
1298.0,8.0,4.0,1.0,4.0,4.0,384.0986140003224,2.0,1.0,phase_1,,,,,,,,,,,,,white,square
1282.0,4.0,4.0,0.0,3.0,3.0,320.3027649997239,2.0,1.0,phase_1,,,,,,,,,,,,,orange,circle
668.0,3.0,2.0,0.0,3.0,3.0,348.9242780001405,2.0,1.0,phase_1,,,,,,,,,,,,,blue,triangle
303.0,2.0,1.0,0.0,4.0,4.0,330.1229809999313,2.0,1.0,phase_1,,,,,,,,,,,,,yellow,cross
635.0,3.0,2.0,0.0,4.0,4.0,376.4901700001246,2.0,1.0,phase_1,,,,,,,,,,,,,blue,triangle
655.0,3.0,2.0,0.0,3.0,3.0,292.6453769996442,2.0,1.0,phase_1,,,,,,,,,,,,,blue,triangle
1288.0,4.0,4.0,0.0,3.0,3.0,327.9906169996138,2.0,1.0,phase_1,,,,,,,,,,,,,orange,circle
0.0,3.0,0.0,0.0,4.0,4.0,375.714243999937,2.0,1.0,phase_1,,,,,,,,,,,,,blue,triangle
629.0,3.0,2.0,0.0,4.0,4.0,350.1169579999441,2.0,1.0,phase_1,,,,,,,,,,,,,blue,triangle
309.0,2.0,1.0,0.0,1.0,1.0,460.0709759997698,2.0,1.0,phase_1,,,,,,,,,,,,,yellow,cross
661.0,3.0,2.0,0.0,4.0,4.0,310.6274330002634,2.0,1.0,phase_1,,,,,,,,,,,,,blue,triangle
171.0,5.0,0.5,1.0,3.0,3.0,403.3844160003355,2.0,1.0,phase_1,,,,,,,,,,,,,cyan,hexagon
312.0,2.0,1.0,0.0,4.0,4.0,356.4444519997778,2.0,1.0,phase_1,,,,,,,,,,,,,yellow,cross
0.0,8.0,0.0,1.0,1.0,1.0,496.0278319999815,2.0,1.0,phase_1,,,,,,,,,,,,,white,square
0.0,7.0,0.0,1.0,1.0,1.0,348.7184850000631,2.0,1.0,phase_1,,,,,,,,,,,,,gray,diamond
1308.0,4.0,4.0,0.0,1.0,1.0,338.8325470000382,2.0,1.0,phase_1,,,,,,,,,,,,,orange,circle
1302.0,4.0,4.0,0.0,4.0,4.0,450.2324199997929,2.0,1.0,phase_1,,,,,,,,,,,,,orange,circle
0.0,2.0,0.0,0.0,3.0,3.0,357.9026930001419,2.0,1.0,phase_1,,,,,,,,,,,,,yellow,cross
143.0,5.0,0.5,1.0,3.0,3.0,274.8232079998161,2.0,1.0,phase_1,,,,,,,,,,,,,cyan,hexagon
0.0,4.0,0.0,0.0,1.0,1.0,452.7249899997514,2.0,1.0,phase_1,,,,,,,,,,,,,orange,circle
145.0,5.0,0.5,1.0,2.0,2.0,573.9747820002776,2.0,1.0,phase_1,,,,,,,,,,,,,cyan,hexagon
628.0,3.0,2.0,0.0,4.0,4.0,368.528865999906,2.0,1.0,phase_1,,,,,,,,,,,,,blue,triangle
334.0,6.0,1.0,1.0,1.0,1.0,339.5360519998576,2.0,1.0,phase_1,,,,,,,,,,,,,green,I
186.0,5.0,0.5,1.0,2.0,2.0,290.8189330000823,2.0,1.0,phase_1,,,,,,,,,,,,,cyan,hexagon
310.0,2.0,1.0,0.0,3.0,3.0,337.4090809998051,2.0,1.0,phase_1,,,,,,,,,,,,,yellow,cross
0.0,6.0,0.0,1.0,1.0,1.0,343.5844250002446,2.0,1.0,phase_1,,,,,,,,,,,,,green,I
633.0,3.0,2.0,0.0,4.0,4.0,320.8345729999564,2.0,1.0,phase_1,,,,,,,,,,,,,blue,triangle
668.0,3.0,2.0,0.0,2.0,2.0,335.8459220003169,2.0,1.0,phase_1,,,,,,,,,,,,,blue,triangle
164.0,1.0,0.5,0.0,4.0,4.0,376.2249159999555,2.0,1.0,phase_1,,,,,,,,,,,,,magenta,flipped triangle
1315.0,4.0,4.0,0.0,3.0,3.0,291.056097999899,2.0,1.0,phase_1,,,,,,,,,,,,,orange,circle
1293.0,4.0,4.0,0.0,1.0,1.0,338.7578800002302,2.0,1.0,phase_1,,,,,,,,,,,,,orange,circle
0.0,5.0,0.0,1.0,2.0,2.0,431.338961000165,2.0,1.0,phase_1,,,,,,,,,,,,,cyan,hexagon
1287.0,4.0,4.0,0.0,2.0,2.0,346.3995340002839,2.0,1.0,phase_1,,,,,,,,,,,,,orange,circle
157.0,1.0,0.5,0.0,4.0,4.0,396.7356170001039,2.0,1.0,phase_1,,,,,,,,,,,,,magenta,flipped triangle
150.0,1.0,0.5,0.0,1.0,1.0,358.9447310000651,2.0,1.0,phase_1,,,,,,,,,,,,,magenta,flipped triangle
1279.0,8.0,4.0,1.0,1.0,1.0,329.0051779999885,2.0,1.0,phase_1,,,,,,,,,,,,,white,square
639.0,3.0,2.0,0.0,2.0,2.0,310.7345729999906,2.0,2.0,phase_1,,,,,,,,,,,,,blue,triangle
172.0,5.0,0.5,1.0,1.0,1.0,346.4439869999296,3.0,2.0,phase_1,,,,,,,,,,,,,cyan,hexagon
349.0,6.0,1.0,1.0,4.0,4.0,338.2077250003021,3.0,1.0,phase_1,,,,,,,,,,,,,green,I
672.0,3.0,2.0,0.0,2.0,2.0,347.871916999793,3.0,1.0,phase_1,,,,,,,,,,,,,blue,triangle
336.0,6.0,1.0,1.0,2.0,2.0,406.5750370000387,3.0,1.0,phase_1,,,,,,,,,,,,,green,I
326.0,2.0,1.0,0.0,4.0,4.0,463.7502479999966,3.0,1.0,phase_1,,,,,,,,,,,,,yellow,cross
0.0,2.0,0.0,0.0,2.0,2.0,346.1605259999487,3.0,1.0,phase_1,,,,,,,,,,,,,yellow,cross
0.0,4.0,0.0,0.0,2.0,2.0,320.0906609999947,3.0,1.0,phase_1,,,,,,,,,,,,,orange,circle
1302.0,8.0,4.0,1.0,1.0,1.0,356.8646859998807,3.0,1.0,phase_1,,,,,,,,,,,,,white,square
181.0,5.0,0.5,1.0,1.0,1.0,313.3893170002011,3.0,1.0,phase_1,,,,,,,,,,,,,cyan,hexagon
185.0,1.0,0.5,0.0,2.0,2.0,367.2173420000035,3.0,1.0,phase_1,,,,,,,,,,,,,magenta,flipped triangle
0.0,5.0,0.0,1.0,1.0,1.0,338.4742469997945,3.0,1.0,phase_1,,,,,,,,,,,,,cyan,hexagon
1318.0,8.0,4.0,1.0,1.0,1.0,321.1140919997888,3.0,1.0,phase_1,,,,,,,,,,,,,white,square
142.0,5.0,0.5,1.0,4.0,4.0,405.4391730001043,3.0,1.0,phase_1,,,,,,,,,,,,,cyan,hexagon
0.0,6.0,0.0,1.0,4.0,4.0,328.8749180001105,3.0,1.0,phase_1,,,,,,,,,,,,,green,I
310.0,6.0,1.0,1.0,4.0,4.0,337.871363999966,3.0,1.0,phase_1,,,,,,,,,,,,,green,I
1315.0,4.0,4.0,0.0,3.0,3.0,336.8499610000981,3.0,1.0,phase_1,,,,,,,,,,,,,orange,circle
1292.0,4.0,4.0,0.0,1.0,1.0,330.2156239997202,3.0,1.0,phase_1,,,,,,,,,,,,,orange,circle
629.0,7.0,2.0,1.0,2.0,2.0,339.0010240000265,3.0,1.0,phase_1,,,,,,,,,,,,,gray,diamond
325.0,6.0,1.0,1.0,3.0,3.0,369.8112070001116,3.0,1.0,phase_1,,,,,,,,,,,,,green,I
657.0,3.0,2.0,0.0,1.0,1.0,418.8674499996523,3.0,1.0,phase_1,,,,,,,,,,,,,blue,triangle
1284.0,8.0,4.0,1.0,2.0,2.0,356.8243140002778,3.0,1.0,phase_1,,,,,,,,,,,,,white,square
185.0,5.0,0.5,1.0,3.0,3.0,513.9426139999159,3.0,1.0,phase_1,,,,,,,,,,,,,cyan,hexagon
1279.0,4.0,4.0,0.0,4.0,4.0,358.131709999725,3.0,1.0,phase_1,,,,,,,,,,,,,orange,circle
316.0,2.0,1.0,0.0,1.0,1.0,341.1342330000479,3.0,2.0,phase_1,,,,,,,,,,,,,yellow,cross
161.0,5.0,0.5,1.0,4.0,4.0,451.8102130000443,3.0,1.0,phase_1,,,,,,,,,,,,,cyan,hexagon
143.0,5.0,0.5,1.0,2.0,2.0,574.2197820000001,3.0,1.0,phase_1,,,,,,,,,,,,,cyan,hexagon
647.0,3.0,2.0,0.0,4.0,4.0,470.0989860002664,3.0,1.0,phase_1,,,,,,,,,,,,,blue,triangle
349.0,2.0,1.0,0.0,1.0,1.0,312.1029250000902,3.0,1.0,phase_1,,,,,,,,,,,,,yellow,cross
174.0,5.0,0.5,1.0,3.0,3.0,312.2492739998961,3.0,1.0,phase_1,,,,,,,,,,,,,cyan,hexagon
1323.0,4.0,4.0,0.0,1.0,1.0,356.2107049997394,3.0,1.0,phase_1,,,,,,,,,,,,,orange,circle
335.0,6.0,1.0,1.0,3.0,3.0,291.513937000218,3.0,1.0,phase_1,,,,,,,,,,,,,green,I
168.0,1.0,0.5,0.0,1.0,1.0,292.8253879999829,3.0,1.0,phase_1,,,,,,,,,,,,,magenta,flipped triangle
652.0,7.0,2.0,1.0,1.0,1.0,415.3529789996355,3.0,1.0,phase_1,,,,,,,,,,,,,gray,diamond
1275.0,4.0,4.0,0.0,2.0,2.0,433.0853709998337,3.0,1.0,phase_1,,,,,,,,,,,,,orange,circle
0.0,6.0,0.0,1.0,4.0,4.0,291.9389349999619,3.0,1.0,phase_1,,,,,,,,,,,,,green,I
0.0,7.0,0.0,1.0,2.0,2.0,368.2399969998187,3.0,1.0,phase_1,,,,,,,,,,,,,gray,diamond
323.0,2.0,1.0,0.0,3.0,3.0,338.3531719996426,3.0,1.0,phase_1,,,,,,,,,,,,,yellow,cross
321.0,2.0,1.0,0.0,2.0,2.0,359.6242690000508,3.0,1.0,phase_1,,,,,,,,,,,,,yellow,cross
1302.0,4.0,4.0,0.0,2.0,2.0,348.9643579996482,3.0,1.0,phase_1,,,,,,,,,,,,,orange,circle
0.0,2.0,0.0,0.0,1.0,1.0,283.0308279999372,3.0,1.0,phase_1,,,,,,,,,,,,,yellow,cross
347.0,2.0,1.0,0.0,2.0,2.0,413.5730900002272,3.0,1.0,phase_1,,,,,,,,,,,,,yellow,cross
1324.0,4.0,4.0,0.0,4.0,4.0,516.4670650001426,3.0,1.0,phase_1,,,,,,,,,,,,,orange,circle
0.0,7.0,0.0,1.0,1.0,1.0,367.7547369998137,3.0,2.0,phase_1,,,,,,,,,,,,,gray,diamond
662.0,3.0,2.0,0.0,4.0,4.0,400.9776770003554,3.0,1.0,phase_1,,,,,,,,,,,,,blue,triangle
662.0,7.0,2.0,1.0,1.0,1.0,399.887753999792,3.0,1.0,phase_1,,,,,,,,,,,,,gray,diamond
647.0,7.0,2.0,1.0,3.0,3.0,368.0840940000962,3.0,1.0,phase_1,,,,,,,,,,,,,gray,diamond
174.0,1.0,0.5,0.0,2.0,2.0,534.2177820002689,3.0,1.0,phase_1,,,,,,,,,,,,,magenta,flipped triangle
163.0,1.0,0.5,0.0,4.0,4.0,413.980170999821,3.0,1.0,phase_1,,,,,,,,,,,,,magenta,flipped triangle
179.0,5.0,0.5,1.0,1.0,1.0,280.972582999766,3.0,1.0,phase_1,,,,,,,,,,,,,cyan,hexagon
1284.0,8.0,4.0,1.0,4.0,4.0,359.1068819996508,3.0,1.0,phase_1,,,,,,,,,,,,,white,square
326.0,6.0,1.0,1.0,1.0,1.0,331.307107000157,3.0,1.0,phase_1,,,,,,,,,,,,,green,I
1289.0,4.0,4.0,0.0,2.0,2.0,358.2217419998414,3.0,1.0,phase_1,,,,,,,,,,,,,orange,circle
648.0,3.0,2.0,0.0,3.0,3.0,367.9790699998193,3.0,1.0,phase_1,,,,,,,,,,,,,blue,triangle
172.0,1.0,0.5,0.0,2.0,2.0,396.4674709995961,3.0,1.0,phase_1,,,,,,,,,,,,,magenta,flipped triangle
0.0,5.0,0.0,1.0,2.0,2.0,321.5948189999835,3.0,1.0,phase_1,,,,,,,,,,,,,cyan,hexagon
1318.0,4.0,4.0,0.0,4.0,4.0,407.1773000000576,3.0,1.0,phase_1,,,,,,,,,,,,,orange,circle
309.0,6.0,1.0,1.0,4.0,4.0,395.8229460004077,3.0,1.0,phase_1,,,,,,,,,,,,,green,I
1293.0,4.0,4.0,0.0,4.0,4.0,354.4167320001179,3.0,1.0,phase_1,,,,,,,,,,,,,orange,circle
656.0,7.0,2.0,1.0,3.0,3.0,385.0518379999812,3.0,1.0,phase_1,,,,,,,,,,,,,gray,diamond
0.0,4.0,0.0,0.0,1.0,1.0,338.0464689998916,3.0,1.0,phase_1,,,,,,,,,,,,,orange,circle
159.0,5.0,0.5,1.0,3.0,3.0,321.6119620001336,3.0,1.0,phase_1,,,,,,,,,,,,,cyan,hexagon
1281.0,4.0,4.0,0.0,1.0,1.0,310.171832999913,3.0,1.0,phase_1,,,,,,,,,,,,,orange,circle
0.0,1.0,0.0,0.0,2.0,2.0,405.2188179998666,3.0,1.0,phase_1,,,,,,,,,,,,,magenta,flipped triangle
325.0,6.0,1.0,1.0,1.0,1.0,330.2285559998381,3.0,1.0,phase_1,,,,,,,,,,,,,green,I
0.0,5.0,0.0,1.0,2.0,2.0,329.6354350000001,3.0,1.0,phase_1,,,,,,,,,,,,,cyan,hexagon
662.0,3.0,2.0,0.0,4.0,4.0,432.0061609996628,3.0,1.0,phase_1,,,,,,,,,,,,,blue,triangle
648.0,7.0,2.0,1.0,1.0,1.0,311.9290859999637,3.0,1.0,phase_1,,,,,,,,,,,,,gray,diamond
302.0,2.0,1.0,0.0,4.0,4.0,392.7664590000859,3.0,1.0,phase_1,,,,,,,,,,,,,yellow,cross
1285.0,4.0,4.0,0.0,4.0,4.0,376.8434209996485,3.0,1.0,phase_1,,,,,,,,,,,,,orange,circle
0.0,3.0,0.0,0.0,3.0,3.0,311.7345550003847,3.0,1.0,phase_1,,,,,,,,,,,,,blue,triangle
0.0,1.0,0.0,0.0,3.0,3.0,358.1700640002054,3.0,1.0,phase_1,,,,,,,,,,,,,magenta,flipped triangle
325.0,6.0,1.0,1.0,4.0,4.0,361.0333810001975,3.0,1.0,phase_1,,,,,,,,,,,,,green,I
1288.0,8.0,4.0,1.0,1.0,1.0,338.8335360000383,3.0,1.0,phase_1,,,,,,,,,,,,,white,square
638.0,3.0,2.0,0.0,1.0,1.0,319.5783690002827,3.0,1.0,phase_1,,,,,,,,,,,,,blue,triangle
153.0,1.0,0.5,0.0,3.0,3.0,361.1550230002649,3.0,1.0,phase_1,,,,,,,,,,,,,magenta,flipped triangle
655.0,7.0,2.0,1.0,4.0,4.0,426.0226989999864,3.0,1.0,phase_1,,,,,,,,,,,,,gray,diamond
168.0,1.0,0.5,0.0,3.0,3.0,340.0932509998711,3.0,1.0,phase_1,,,,,,,,,,,,,magenta,flipped triangle
0.0,5.0,0.0,1.0,4.0,4.0,448.4346839999489,3.0,1.0,phase_1,,,,,,,,,,,,,cyan,hexagon
0.0,6.0,0.0,1.0,3.0,3.0,272.4595129998306,3.0,1.0,phase_1,,,,,,,,,,,,,green,I
170.0,5.0,0.5,1.0,4.0,4.0,312.7936720002253,3.0,1.0,phase_1,,,,,,,,,,,,,cyan,hexagon
181.0,1.0,0.5,0.0,2.0,2.0,377.5088499996855,3.0,1.0,phase_1,,,,,,,,,,,,,magenta,flipped triangle
0.0,7.0,0.0,1.0,1.0,1.0,274.2312519999359,3.0,1.0,phase_1,,,,,,,,,,,,,gray,diamond
148.0,5.0,0.5,1.0,1.0,1.0,342.0035210001515,3.0,1.0,phase_1,,,,,,,,,,,,,cyan,hexagon
0.0,4.0,0.0,0.0,1.0,1.0,378.8208109999686,3.0,1.0,phase_1,,,,,,,,,,,,,orange,circle
0.0,1.0,0.0,0.0,4.0,4.0,264.4077790000665,3.0,1.0,phase_1,,,,,,,,,,,,,magenta,flipped triangle
672.0,7.0,2.0,1.0,2.0,2.0,339.7582139996302,3.0,1.0,phase_1,,,,,,,,,,,,,gray,diamond
0.0,4.0,0.0,0.0,1.0,1.0,312.1558299999378,3.0,1.0,phase_1,,,,,,,,,,,,,orange,circle
1318.0,8.0,4.0,1.0,1.0,1.0,358.3271070001501,3.0,1.0,phase_1,,,,,,,,,,,,,white,square
303.0,6.0,1.0,1.0,4.0,4.0,319.2783049998979,3.0,1.0,phase_1,,,,,,,,,,,,,green,I
673.0,7.0,2.0,1.0,2.0,2.0,294.0524239998012,3.0,1.0,phase_1,,,,,,,,,,,,,gray,diamond
171.0,1.0,0.5,0.0,3.0,3.0,274.7846680003931,3.0,1.0,phase_1,,,,,,,,,,,,,magenta,flipped triangle
0.0,8.0,0.0,1.0,2.0,2.0,383.4620600000562,3.0,1.0,phase_1,,,,,,,,,,,,,white,square
657.0,7.0,2.0,1.0,2.0,2.0,330.6570059999103,3.0,1.0,phase_1,,,,,,,,,,,,,gray,diamond
0.0,3.0,0.0,0.0,1.0,1.0,299.5292509999672,3.0,1.0,phase_1,,,,,,,,,,,,,blue,triangle
138.0,5.0,0.5,1.0,3.0,3.0,740.1055179998366,3.0,1.0,phase_1,,,,,,,,,,,,,cyan,hexagon
166.0,5.0,0.5,1.0,4.0,4.0,556.1130339997362,3.0,1.0,phase_1,,,,,,,,,,,,,cyan,hexagon
347.0,6.0,1.0,1.0,1.0,1.0,509.6675250001681,3.0,1.0,phase_1,,,,,,,,,,,,,green,I
674.0,7.0,2.0,1.0,4.0,4.0,379.6574520001741,3.0,1.0,phase_1,,,,,,,,,,,,,gray,diamond
315.0,6.0,1.0,1.0,2.0,2.0,349.0862130001915,3.0,1.0,phase_1,,,,,,,,,,,,,green,I
348.0,2.0,1.0,0.0,2.0,2.0,360.3533550003703,3.0,1.0,phase_1,,,,,,,,,,,,,yellow,cross
646.0,3.0,2.0,0.0,3.0,3.0,410.8085930001834,4.0,1.0,phase_1,,,,,,,,,,,,,blue,triangle
156.0,5.0,0.5,1.0,1.0,1.0,394.3381219996809,4.0,1.0,phase_1,,,,,,,,,,,,,cyan,hexagon
1292.0,8.0,4.0,1.0,2.0,2.0,341.1587470000086,4.0,1.0,phase_1,,,,,,,,,,,,,white,square
0.0,1.0,0.0,0.0,4.0,4.0,292.1073810002781,4.0,1.0,phase_1,,,,,,,,,,,,,magenta,flipped triangle
0.0,2.0,0.0,0.0,2.0,2.0,309.0541300002769,4.0,1.0,phase_1,,,,,,,,,,,,,yellow,cross
315.0,2.0,1.0,0.0,3.0,3.0,346.36822199991,4.0,1.0,phase_1,,,,,,,,,,,,,yellow,cross
0.0,6.0,0.0,1.0,2.0,2.0,329.1609699999753,4.0,1.0,phase_1,,,,,,,,,,,,,green,I
157.0,5.0,0.5,1.0,1.0,1.0,273.229574999732,4.0,1.0,phase_1,,,,,,,,,,,,,cyan,hexagon
0.0,3.0,0.0,0.0,1.0,1.0,357.3157989999345,4.0,1.0,phase_1,,,,,,,,,,,,,blue,triangle
308.0,6.0,1.0,1.0,1.0,1.0,329.7961899997972,4.0,1.0,phase_1,,,,,,,,,,,,,green,I
322.0,6.0,1.0,1.0,1.0,1.0,411.1882990000595,4.0,1.0,phase_1,,,,,,,,,,,,,green,I
631.0,7.0,2.0,1.0,4.0,4.0,300.4703219999101,4.0,1.0,phase_1,,,,,,,,,,,,,gray,diamond
154.0,5.0,0.5,1.0,2.0,2.0,309.9756739998156,4.0,1.0,phase_1,,,,,,,,,,,,,cyan,hexagon
1286.0,8.0,4.0,1.0,4.0,4.0,394.651943000099,4.0,1.0,phase_1,,,,,,,,,,,,,white,square
0.0,5.0,0.0,1.0,1.0,1.0,290.0348090001898,4.0,1.0,phase_1,,,,,,,,,,,,,cyan,hexagon
0.0,5.0,0.0,1.0,2.0,2.0,318.6773349998475,4.0,1.0,phase_1,,,,,,,,,,,,,cyan,hexagon
140.0,5.0,0.5,1.0,4.0,4.0,385.6008290003956,4.0,1.0,phase_1,,,,,,,,,,,,,cyan,hexagon
644.0,7.0,2.0,1.0,4.0,4.0,375.4351000002316,4.0,1.0,phase_1,,,,,,,,,,,,,gray,diamond
0.0,2.0,0.0,0.0,3.0,3.0,489.72151199996,4.0,1.0,phase_1,,,,,,,,,,,,,yellow,cross
307.0,2.0,1.0,0.0,1.0,1.0,469.5900389997405,4.0,1.0,phase_1,,,,,,,,,,,,,yellow,cross
1321.0,8.0,4.0,1.0,3.0,3.0,318.40144599982517,4.0,1.0,phase_1,,,,,,,,,,,,,white,square
1318.0,4.0,4.0,0.0,2.0,2.0,299.3521789999249,4.0,1.0,phase_1,,,,,,,,,,,,,orange,circle
315.0,2.0,1.0,0.0,2.0,2.0,337.3380849998284,4.0,1.0,phase_1,,,,,,,,,,,,,yellow,cross
176.0,1.0,0.5,0.0,4.0,4.0,383.8677799999459,4.0,1.0,phase_1,,,,,,,,,,,,,magenta,flipped triangle
636.0,7.0,2.0,1.0,1.0,1.0,290.0573369997801,4.0,1.0,phase_1,,,,,,,,,,,,,gray,diamond
144.0,1.0,0.5,0.0,2.0,2.0,327.9863579996345,4.0,1.0,phase_1,,,,,,,,,,,,,magenta,flipped triangle
1288.0,4.0,4.0,0.0,4.0,4.0,406.125924999742,4.0,1.0,phase_1,,,,,,,,,,,,,orange,circle
1323.0,8.0,4.0,1.0,2.0,2.0,309.931405000043,4.0,1.0,phase_1,,,,,,,,,,,,,white,square
628.0,3.0,2.0,0.0,1.0,1.0,270.7921969999916,4.0,1.0,phase_1,,,,,,,,,,,,,blue,triangle
1288.0,8.0,4.0,1.0,3.0,3.0,329.5959329998368,4.0,1.0,phase_1,,,,,,,,,,,,,white,square
348.0,6.0,1.0,1.0,2.0,2.0,335.5378520000158,4.0,1.0,phase_1,,,,,,,,,,,,,green,I
661.0,7.0,2.0,1.0,4.0,4.0,430.3900810000414,4.0,1.0,phase_1,,,,,,,,,,,,,gray,diamond
156.0,1.0,0.5,0.0,1.0,1.0,348.9551229999961,4.0,1.0,phase_1,,,,,,,,,,,,,magenta,flipped triangle
1311.0,4.0,4.0,0.0,4.0,4.0,345.5313889999161,4.0,1.0,phase_1,,,,,,,,,,,,,orange,circle
316.0,2.0,1.0,0.0,3.0,3.0,356.0084249997999,4.0,1.0,phase_1,,,,,,,,,,,,,yellow,cross
1308.0,8.0,4.0,1.0,3.0,3.0,375.7973050001055,4.0,1.0,phase_1,,,,,,,,,,,,,white,square
628.0,3.0,2.0,0.0,3.0,3.0,367.6417639999272,4.0,1.0,phase_1,,,,,,,,,,,,,blue,triangle
150.0,5.0,0.5,1.0,3.0,3.0,310.782085000028,4.0,1.0,phase_1,,,,,,,,,,,,,cyan,hexagon
325.0,2.0,1.0,0.0,3.0,3.0,481.0887300000104,4.0,1.0,phase_1,,,,,,,,,,,,,yellow,cross
157.0,5.0,0.5,1.0,3.0,3.0,397.5812570001835,4.0,1.0,phase_1,,,,,,,,,,,,,cyan,hexagon
628.0,7.0,2.0,1.0,3.0,3.0,337.4330359997657,4.0,1.0,phase_1,,,,,,,,,,,,,gray,diamond
660.0,7.0,2.0,1.0,3.0,3.0,387.2462300000734,4.0,1.0,phase_1,,,,,,,,,,,,,gray,diamond
1284.0,4.0,4.0,0.0,3.0,3.0,357.2150630002397,4.0,1.0,phase_1,,,,,,,,,,,,,orange,circle
0.0,6.0,0.0,1.0,1.0,1.0,535.4618159999518,4.0,1.0,phase_1,,,,,,,,,,,,,green,I
0.0,7.0,0.0,1.0,4.0,4.0,395.1138590000482,4.0,1.0,phase_1,,,,,,,,,,,,,gray,diamond
322.0,2.0,1.0,0.0,4.0,4.0,338.0940399997598,4.0,1.0,phase_1,,,,,,,,,,,,,yellow,cross
658.0,3.0,2.0,0.0,2.0,2.0,423.0339050000111,4.0,1.0,phase_1,,,,,,,,,,,,,blue,triangle
322.0,6.0,1.0,1.0,2.0,2.0,366.8399010002758,4.0,1.0,phase_1,,,,,,,,,,,,,green,I
1314.0,4.0,4.0,0.0,3.0,3.0,328.3231509999496,4.0,1.0,phase_1,,,,,,,,,,,,,orange,circle
145.0,1.0,0.5,0.0,1.0,1.0,385.0056139999651,4.0,1.0,phase_1,,,,,,,,,,,,,magenta,flipped triangle
336.0,6.0,1.0,1.0,1.0,1.0,346.9186239999544,4.0,1.0,phase_1,,,,,,,,,,,,,green,I
0.0,2.0,0.0,0.0,1.0,1.0,367.3081279998769,4.0,1.0,phase_1,,,,,,,,,,,,,yellow,cross
172.0,5.0,0.5,1.0,3.0,3.0,395.9748349998335,4.0,1.0,phase_1,,,,,,,,,,,,,cyan,hexagon
675.0,7.0,2.0,1.0,3.0,3.0,365.7962160000352,4.0,1.0,phase_1,,,,,,,,,,,,,gray,diamond
181.0,1.0,0.5,0.0,1.0,1.0,339.3199699999059,4.0,1.0,phase_1,,,,,,,,,,,,,magenta,flipped triangle
307.0,6.0,1.0,1.0,3.0,3.0,347.5152159999197,4.0,1.0,phase_1,,,,,,,,,,,,,green,I
0.0,1.0,0.0,0.0,4.0,4.0,317.9987399998936,4.0,1.0,phase_1,,,,,,,,,,,,,magenta,flipped triangle
1302.0,8.0,4.0,1.0,2.0,2.0,421.4861979999114,4.0,1.0,phase_1,,,,,,,,,,,,,white,square
631.0,3.0,2.0,0.0,2.0,2.0,442.0209449999674,4.0,1.0,phase_1,,,,,,,,,,,,,blue,triangle
0.0,7.0,0.0,1.0,1.0,1.0,320.0637770000867,4.0,1.0,phase_1,,,,,,,,,,,,,gray,diamond
0.0,4.0,0.0,0.0,2.0,2.0,337.9767910000737,4.0,1.0,phase_1,,,,,,,,,,,,,orange,circle
143.0,1.0,0.5,0.0,4.0,4.0,442.5258510000276,4.0,1.0,phase_1,,,,,,,,,,,,,magenta,flipped triangle
156.0,5.0,0.5,1.0,4.0,4.0,392.2333200002867,4.0,1.0,phase_1,,,,,,,,,,,,,cyan,hexagon
179.0,1.0,0.5,0.0,1.0,1.0,347.3036619998311,4.0,1.0,phase_1,,,,,,,,,,,,,magenta,flipped triangle
0.0,6.0,0.0,1.0,3.0,3.0,337.4791179999192,4.0,1.0,phase_1,,,,,,,,,,,,,green,I
154.0,1.0,0.5,0.0,1.0,1.0,311.0127420000026,4.0,1.0,phase_1,,,,,,,,,,,,,magenta,flipped triangle
0.0,5.0,0.0,1.0,2.0,2.0,358.4280320001198,4.0,1.0,phase_1,,,,,,,,,,,,,cyan,hexagon
342.0,6.0,1.0,1.0,4.0,4.0,378.1177099999695,4.0,1.0,phase_1,,,,,,,,,,,,,green,I
663.0,7.0,2.0,1.0,2.0,2.0,433.4390459998758,4.0,1.0,phase_1,,,,,,,,,,,,,gray,diamond
142.0,1.0,0.5,0.0,3.0,3.0,367.8037879999465,4.0,1.0,phase_1,,,,,,,,,,,,,magenta,flipped triangle
179.0,5.0,0.5,1.0,4.0,4.0,346.0463030000937,4.0,1.0,phase_1,,,,,,,,,,,,,cyan,hexagon
316.0,6.0,1.0,1.0,2.0,2.0,430.2773970002818,4.0,1.0,phase_1,,,,,,,,,,,,,green,I
642.0,7.0,2.0,1.0,3.0,3.0,367.8415210001731,4.0,1.0,phase_1,,,,,,,,,,,,,gray,diamond
1308.0,4.0,4.0,0.0,3.0,3.0,403.2790950000162,4.0,1.0,phase_1,,,,,,,,,,,,,orange,circle
163.0,5.0,0.5,1.0,2.0,2.0,414.2745500003002,4.0,1.0,phase_1,,,,,,,,,,,,,cyan,hexagon
1318.0,4.0,4.0,0.0,4.0,4.0,563.9654900001005,4.0,1.0,phase_1,,,,,,,,,,,,,orange,circle
0.0,1.0,0.0,0.0,4.0,4.0,367.0146889999159,4.0,1.0,phase_1,,,,,,,,,,,,,magenta,flipped triangle
0.0,7.0,0.0,1.0,4.0,4.0,345.6975429999147,4.0,1.0,phase_1,,,,,,,,,,,,,gray,diamond
1315.0,8.0,4.0,1.0,3.0,3.0,401.7495260000032,4.0,1.0,phase_1,,,,,,,,,,,,,white,square
325.0,6.0,1.0,1.0,3.0,3.0,402.9460100000506,4.0,1.0,phase_1,,,,,,,,,,,,,green,I
334.0,2.0,1.0,0.0,3.0,3.0,412.2522099996786,4.0,1.0,phase_1,,,,,,,,,,,,,yellow,cross
1314.0,8.0,4.0,1.0,2.0,2.0,400.1089499997761,4.0,1.0,phase_1,,,,,,,,,,,,,white,square
0.0,2.0,0.0,0.0,1.0,1.0,291.1075920001167,4.0,1.0,phase_1,,,,,,,,,,,,,yellow,cross
1315.0,8.0,4.0,1.0,4.0,4.0,347.6770379998015,4.0,1.0,phase_1,,,,,,,,,,,,,white,square
0.0,5.0,0.0,1.0,3.0,3.0,506.2240689999271,4.0,1.0,phase_1,,,,,,,,,,,,,cyan,hexagon
0.0,8.0,0.0,1.0,1.0,1.0,291.4572310000949,4.0,1.0,phase_1,,,,,,,,,,,,,white,square
633.0,7.0,2.0,1.0,1.0,1.0,319.5112029998199,4.0,1.0,phase_1,,,,,,,,,,,,,gray,diamond
0.0,1.0,0.0,0.0,4.0,4.0,441.9835250000687,4.0,1.0,phase_1,,,,,,,,,,,,,magenta,flipped triangle
327.0,2.0,1.0,0.0,4.0,4.0,387.0317980004074,4.0,1.0,phase_1,,,,,,,,,,,,,yellow,cross
646.0,7.0,2.0,1.0,1.0,1.0,300.2086010001221,4.0,1.0,phase_1,,,,,,,,,,,,,gray,diamond
1298.0,4.0,4.0,0.0,1.0,1.0,329.2927210000016,4.0,1.0,phase_1,,,,,,,,,,,,,orange,circle
674.0,3.0,2.0,0.0,3.0,3.0,346.307379999871,4.0,1.0,phase_1,,,,,,,,,,,,,blue,triangle
1300.0,4.0,4.0,0.0,1.0,1.0,326.3194440000916,4.0,1.0,phase_1,,,,,,,,,,,,,orange,circle
0.0,4.0,0.0,0.0,1.0,1.0,320.5766339997353,4.0,1.0,phase_1,,,,,,,,,,,,,orange,circle
313.0,6.0,1.0,1.0,1.0,1.0,413.2676990002437,4.0,1.0,phase_1,,,,,,,,,,,,,green,I
1324.0,8.0,4.0,1.0,4.0,4.0,376.3534109998545,4.0,1.0,phase_1,,,,,,,,,,,,,white,square
654.0,3.0,2.0,0.0,4.0,4.0,478.8115149999612,4.0,2.0,phase_1,,,,,,,,,,,,,blue,triangle
0.0,4.0,0.0,0.0,2.0,2.0,419.5111939998242,4.0,1.0,phase_1,,,,,,,,,,,,,orange,circle
1275.0,8.0,4.0,1.0,1.0,1.0,366.5061239998977,4.0,1.0,phase_1,,,,,,,,,,,,,white,square
1285.0,8.0,4.0,1.0,3.0,3.0,347.6558540000951,4.0,1.0,phase_1,,,,,,,,,,,,,white,square
0.0,2.0,1.0,0.0,5.0,5.0,608.0586319999384,1.0,1.0,phase_2,go,250.0,250.0,1.0,,,,,,,,,yellow,cross
0.0,2.0,1.0,0.0,5.0,5.0,468.9344439998422,1.0,1.0,phase_2,go,250.0,250.0,1.0,,,,,,,,,yellow,cross
0.0,1.0,0.5,0.0,6.0,6.0,554.8473169997123,1.0,1.0,phase_2,go,250.0,250.0,1.0,,,,,,,,,magenta,flipped triangle
0.0,6.0,1.0,1.0,6.0,6.0,629.4801740000366,1.0,1.0,phase_2,stop,250.0,250.0,3.0,,,,,,,,,green,I
0.0,5.0,0.5,1.0,6.0,0.0,0.0,1.0,1.0,phase_2,stop,250.0,200.0,4.0,,,,,,,,,cyan,hexagon
0.0,1.0,0.5,0.0,6.0,6.0,669.3826709997666,1.0,1.0,phase_2,go,250.0,250.0,1.0,,,,,,,,,magenta,flipped triangle
0.0,5.0,0.5,1.0,6.0,0.0,0.0,1.0,1.0,phase_2,stop,250.0,250.0,4.0,,,,,,,,,cyan,hexagon
0.0,6.0,1.0,1.0,6.0,0.0,0.0,1.0,1.0,phase_2,stop,250.0,300.0,4.0,,,,,,,,,green,I
0.0,6.0,1.0,1.0,6.0,6.0,461.5997890000471,1.0,1.0,phase_2,stop,250.0,350.0,3.0,,,,,,,,,green,I
0.0,7.0,2.0,1.0,5.0,5.0,452.184178999687,1.0,1.0,phase_2,go,250.0,300.0,1.0,,,,,,,,,gray,diamond
0.0,2.0,1.0,0.0,5.0,5.0,897.989951999989,1.0,1.0,phase_2,go,250.0,300.0,1.0,,,,,,,,,yellow,cross
0.0,4.0,4.0,0.0,5.0,5.0,717.5445859998035,1.0,1.0,phase_2,go,250.0,300.0,1.0,,,,,,,,,orange,circle
0.0,1.0,0.5,0.0,5.0,5.0,888.385449999987,1.0,1.0,phase_2,go,250.0,300.0,1.0,,,,,,,,,magenta,flipped triangle
0.0,4.0,4.0,0.0,5.0,5.0,655.0249150000127,1.0,1.0,phase_2,go,250.0,300.0,1.0,,,,,,,,,orange,circle
0.0,6.0,1.0,1.0,6.0,0.0,0.0,1.0,1.0,phase_2,stop,250.0,300.0,4.0,,,,,,,,,green,I
0.0,5.0,0.5,1.0,5.0,5.0,370.9940300000198,1.0,1.0,phase_2,stop,250.0,350.0,3.0,,,,,,,,,cyan,hexagon
0.0,3.0,2.0,0.0,6.0,6.0,704.1442370000368,1.0,1.0,phase_2,go,200.0,350.0,1.0,,,,,,,,,blue,triangle
0.0,1.0,0.5,0.0,5.0,5.0,754.6926770000937,1.0,1.0,phase_2,go,200.0,350.0,1.0,,,,,,,,,magenta,flipped triangle
0.0,7.0,2.0,1.0,5.0,0.0,0.0,1.0,1.0,phase_2,stop,200.0,350.0,4.0,,,,,,,,,gray,diamond
0.0,4.0,4.0,0.0,5.0,5.0,642.8203929999654,1.0,1.0,phase_2,go,250.0,350.0,1.0,,,,,,,,,orange,circle
0.0,7.0,2.0,1.0,5.0,0.0,0.0,1.0,1.0,phase_2,stop,250.0,350.0,4.0,,,,,,,,,gray,diamond
0.0,5.0,0.5,1.0,5.0,5.0,471.6118979999919,1.0,1.0,phase_2,go,300.0,350.0,1.0,,,,,,,,,cyan,hexagon
0.0,4.0,4.0,0.0,6.0,6.0,683.7607229999776,1.0,1.0,phase_2,go,300.0,350.0,1.0,,,,,,,,,orange,circle
0.0,1.0,0.5,0.0,5.0,5.0,662.76785700029,1.0,1.0,phase_2,go,300.0,350.0,1.0,,,,,,,,,magenta,flipped triangle
0.0,4.0,4.0,0.0,6.0,6.0,830.8830930000113,1.0,1.0,phase_2,go,300.0,350.0,1.0,,,,,,,,,orange,circle
0.0,1.0,0.5,0.0,6.0,6.0,616.3900920000742,1.0,1.0,phase_2,go,300.0,350.0,1.0,,,,,,,,,magenta,flipped triangle
0.0,3.0,2.0,0.0,5.0,5.0,716.1471070003245,1.0,1.0,phase_2,go,300.0,350.0,1.0,,,,,,,,,blue,triangle
0.0,2.0,1.0,0.0,5.0,5.0,772.3993780000455,1.0,1.0,phase_2,go,300.0,350.0,1.0,,,,,,,,,yellow,cross
0.0,7.0,2.0,1.0,6.0,0.0,0.0,1.0,1.0,phase_2,stop,300.0,350.0,4.0,,,,,,,,,gray,diamond
0.0,3.0,2.0,0.0,6.0,6.0,669.9323660000118,1.0,1.0,phase_2,go,300.0,400.0,1.0,,,,,,,,,blue,triangle
0.0,8.0,4.0,1.0,5.0,0.0,0.0,1.0,1.0,phase_2,stop,300.0,400.0,4.0,,,,,,,,,white,square
0.0,3.0,2.0,0.0,6.0,6.0,612.225646999832,1.0,1.0,phase_2,go,350.0,400.0,1.0,,,,,,,,,blue,triangle
0.0,1.0,0.5,0.0,5.0,5.0,671.1714779999056,1.0,1.0,phase_2,go,350.0,400.0,1.0,,,,,,,,,magenta,flipped triangle
0.0,7.0,2.0,1.0,5.0,0.0,0.0,1.0,1.0,phase_2,stop,350.0,400.0,4.0,,,,,,,,,gray,diamond
0.0,7.0,2.0,1.0,5.0,0.0,0.0,1.0,1.0,phase_2,stop,400.0,400.0,4.0,,,,,,,,,gray,diamond
0.0,8.0,4.0,1.0,5.0,0.0,0.0,1.0,1.0,phase_2,stop,450.0,400.0,4.0,,,,,,,,,white,square
0.0,2.0,1.0,0.0,6.0,6.0,451.5400619998218,2.0,1.0,phase_2,go,500.0,400.0,1.0,,,,,,,,,yellow,cross
0.0,6.0,1.0,1.0,5.0,5.0,375.834622000184,2.0,1.0,phase_2,stop,500.0,400.0,3.0,,,,,,,,,green,I
0.0,4.0,4.0,0.0,5.0,5.0,472.8184089999558,2.0,1.0,phase_2,go,450.0,400.0,1.0,,,,,,,,,orange,circle
0.0,4.0,4.0,0.0,6.0,6.0,482.8330039999855,2.0,1.0,phase_2,go,450.0,400.0,1.0,,,,,,,,,orange,circle
0.0,1.0,0.5,0.0,6.0,6.0,501.4776279999751,2.0,1.0,phase_2,go,450.0,400.0,1.0,,,,,,,,,magenta,flipped triangle
0.0,8.0,4.0,1.0,6.0,6.0,440.7106319999911,2.0,1.0,phase_2,stop,450.0,400.0,3.0,,,,,,,,,white,square
0.0,3.0,2.0,0.0,5.0,5.0,539.2869969996354,2.0,1.0,phase_2,go,450.0,350.0,1.0,,,,,,,,,blue,triangle
0.0,6.0,1.0,1.0,5.0,5.0,790.2058559998295,2.0,1.0,phase_2,go,450.0,350.0,1.0,,,,,,,,,green,I
0.0,4.0,4.0,0.0,5.0,5.0,532.4135999999271,2.0,1.0,phase_2,go,450.0,350.0,1.0,,,,,,,,,orange,circle
0.0,4.0,4.0,0.0,5.0,5.0,425.2387589999671,2.0,1.0,phase_2,go,450.0,350.0,1.0,,,,,,,,,orange,circle
0.0,8.0,4.0,1.0,6.0,0.0,0.0,2.0,1.0,phase_2,stop,450.0,350.0,4.0,,,,,,,,,white,square
0.0,6.0,1.0,1.0,6.0,0.0,0.0,2.0,1.0,phase_2,stop,450.0,400.0,4.0,,,,,,,,,green,I
0.0,2.0,1.0,0.0,5.0,5.0,358.7177859999428,2.0,1.0,phase_2,go,450.0,450.0,1.0,,,,,,,,,yellow,cross
0.0,7.0,2.0,1.0,5.0,0.0,0.0,2.0,1.0,phase_2,stop,450.0,450.0,4.0,,,,,,,,,gray,diamond
0.0,6.0,1.0,1.0,5.0,5.0,359.5066279999628,2.0,1.0,phase_2,stop,500.0,450.0,3.0,,,,,,,,,green,I
0.0,1.0,0.5,0.0,5.0,5.0,701.0655770000085,2.0,1.0,phase_2,go,450.0,450.0,1.0,,,,,,,,,magenta,flipped triangle
0.0,5.0,0.5,1.0,5.0,5.0,735.7764249995853,2.0,1.0,phase_2,go,450.0,450.0,1.0,,,,,,,,,cyan,hexagon
0.0,8.0,4.0,1.0,5.0,5.0,638.7297810001655,2.0,1.0,phase_2,go,450.0,450.0,1.0,,,,,,,,,white,square
0.0,8.0,4.0,1.0,5.0,0.0,0.0,2.0,1.0,phase_2,stop,450.0,450.0,4.0,,,,,,,,,white,square
0.0,3.0,2.0,0.0,6.0,6.0,470.8402549999846,2.0,1.0,phase_2,go,500.0,450.0,1.0,,,,,,,,,blue,triangle
0.0,1.0,0.5,0.0,6.0,6.0,650.5963820000034,2.0,1.0,phase_2,go,500.0,450.0,1.0,,,,,,,,,magenta,flipped triangle
0.0,5.0,0.5,1.0,6.0,6.0,456.3930240001355,2.0,1.0,phase_2,go,500.0,450.0,1.0,,,,,,,,,cyan,hexagon
0.0,7.0,2.0,1.0,6.0,0.0,0.0,2.0,1.0,phase_2,stop,500.0,450.0,4.0,,,,,,,,,gray,diamond
0.0,6.0,1.0,1.0,5.0,5.0,549.785662999966,2.0,1.0,phase_2,stop,500.0,500.0,3.0,,,,,,,,,green,I
0.0,8.0,4.0,1.0,6.0,6.0,603.2873330000257,2.0,1.0,phase_2,go,450.0,500.0,1.0,,,,,,,,,white,square
0.0,4.0,4.0,0.0,6.0,6.0,777.1910459996434,2.0,1.0,phase_2,go,450.0,500.0,1.0,,,,,,,,,orange,circle
0.0,8.0,4.0,1.0,5.0,5.0,622.9685829998743,2.0,1.0,phase_2,stop,450.0,500.0,3.0,,,,,,,,,white,square
0.0,3.0,2.0,0.0,6.0,6.0,360.8851499998309,2.0,1.0,phase_2,go,400.0,500.0,1.0,,,,,,,,,blue,triangle
0.0,4.0,4.0,0.0,5.0,5.0,706.2780370001747,2.0,1.0,phase_2,go,400.0,500.0,1.0,,,,,,,,,orange,circle
0.0,7.0,2.0,1.0,5.0,5.0,436.8699379997451,2.0,1.0,phase_2,stop,400.0,500.0,3.0,,,,,,,,,gray,diamond
0.0,6.0,1.0,1.0,5.0,5.0,490.3644920000261,2.0,1.0,phase_2,stop,350.0,500.0,3.0,,,,,,,,,green,I
0.0,6.0,1.0,1.0,6.0,6.0,511.89533500019024,2.0,1.0,phase_2,go,300.0,500.0,1.0,,,,,,,,,green,I
0.0,6.0,1.0,1.0,5.0,0.0,0.0,2.0,1.0,phase_2,stop,300.0,500.0,4.0,,,,,,,,,green,I
0.0,3.0,2.0,0.0,6.0,6.0,461.5165590003016,2.0,1.0,phase_2,go,350.0,500.0,1.0,,,,,,,,,blue,triangle
0.0,2.0,1.0,0.0,6.0,6.0,667.0050230000015,2.0,1.0,phase_2,go,350.0,500.0,1.0,,,,,,,,,yellow,cross
0.0,8.0,4.0,1.0,5.0,0.0,0.0,2.0,1.0,phase_2,stop,350.0,500.0,4.0,,,,,,,,,white,square
0.0,4.0,4.0,0.0,5.0,5.0,348.2968769999388,3.0,1.0,phase_2,go,400.0,500.0,1.0,,,,,,,,,orange,circle
0.0,7.0,2.0,1.0,6.0,6.0,545.8166080002229,3.0,1.0,phase_2,stop,400.0,500.0,3.0,,,,,,,,,gray,diamond
0.0,5.0,0.5,1.0,5.0,5.0,388.4577369999533,3.0,1.0,phase_2,stop,400.0,450.0,3.0,,,,,,,,,cyan,hexagon
0.0,3.0,2.0,0.0,5.0,5.0,367.626183000084,3.0,1.0,phase_2,go,350.0,450.0,1.0,,,,,,,,,blue,triangle
0.0,2.0,1.0,0.0,6.0,6.0,441.9050900000911,3.0,1.0,phase_2,go,350.0,450.0,1.0,,,,,,,,,yellow,cross
0.0,3.0,2.0,0.0,5.0,5.0,620.7943869999326,3.0,1.0,phase_2,go,350.0,450.0,1.0,,,,,,,,,blue,triangle
0.0,6.0,1.0,1.0,6.0,0.0,0.0,3.0,1.0,phase_2,stop,350.0,450.0,4.0,,,,,,,,,green,I
0.0,5.0,0.5,1.0,5.0,5.0,387.0151340001939,3.0,1.0,phase_2,stop,350.0,500.0,3.0,,,,,,,,,cyan,hexagon
0.0,6.0,1.0,1.0,5.0,5.0,358.9971229998809,3.0,1.0,phase_2,go,300.0,500.0,1.0,,,,,,,,,green,I
0.0,7.0,2.0,1.0,6.0,6.0,432.1543790001669,3.0,1.0,phase_2,go,300.0,500.0,1.0,,,,,,,,,gray,diamond
0.0,2.0,1.0,0.0,5.0,5.0,590.7201879999775,3.0,1.0,phase_2,go,300.0,500.0,1.0,,,,,,,,,yellow,cross
0.0,2.0,1.0,0.0,5.0,5.0,724.3174390000604,3.0,1.0,phase_2,go,300.0,500.0,1.0,,,,,,,,,yellow,cross
0.0,4.0,4.0,0.0,5.0,5.0,368.4825499999533,3.0,1.0,phase_2,go,300.0,500.0,1.0,,,,,,,,,orange,circle
0.0,2.0,1.0,0.0,5.0,5.0,388.0284829997436,3.0,1.0,phase_2,go,300.0,500.0,1.0,,,,,,,,,yellow,cross
0.0,7.0,2.0,1.0,5.0,0.0,0.0,3.0,1.0,phase_2,stop,300.0,500.0,4.0,,,,,,,,,gray,diamond
0.0,6.0,1.0,1.0,5.0,0.0,0.0,3.0,1.0,phase_2,stop,350.0,500.0,4.0,,,,,,,,,green,I
0.0,6.0,1.0,1.0,6.0,6.0,262.8871140000228,3.0,1.0,phase_2,go,400.0,500.0,1.0,,,,,,,,,green,I
0.0,5.0,0.5,1.0,6.0,6.0,598.5289219997867,3.0,1.0,phase_2,stop,400.0,500.0,3.0,,,,,,,,,cyan,hexagon
0.0,3.0,2.0,0.0,5.0,5.0,303.1306559996665,3.0,1.0,phase_2,go,400.0,450.0,1.0,,,,,,,,,blue,triangle
0.0,7.0,2.0,1.0,6.0,6.0,322.8494689997205,3.0,1.0,phase_2,stop,400.0,450.0,3.0,,,,,,,,,gray,diamond
0.0,3.0,2.0,0.0,5.0,5.0,681.964115000028,3.0,1.0,phase_2,go,400.0,400.0,1.0,,,,,,,,,blue,triangle
0.0,8.0,4.0,1.0,6.0,6.0,765.1013360000434,3.0,1.0,phase_2,go,400.0,400.0,1.0,,,,,,,,,white,square
0.0,6.0,1.0,1.0,6.0,0.0,0.0,3.0,1.0,phase_2,stop,400.0,400.0,4.0,,,,,,,,,green,I
0.0,4.0,4.0,0.0,6.0,6.0,739.4211420000829,3.0,1.0,phase_2,go,400.0,450.0,1.0,,,,,,,,,orange,circle
0.0,6.0,1.0,1.0,5.0,5.0,501.4855730000818,3.0,1.0,phase_2,stop,400.0,450.0,3.0,,,,,,,,,green,I
0.0,1.0,0.5,0.0,6.0,6.0,537.1466130000044,3.0,1.0,phase_2,go,350.0,450.0,1.0,,,,,,,,,magenta,flipped triangle
0.0,7.0,2.0,1.0,6.0,6.0,579.7172380002849,3.0,1.0,phase_2,stop,350.0,450.0,3.0,,,,,,,,,gray,diamond
0.0,3.0,2.0,0.0,6.0,6.0,625.4259689999344,3.0,1.0,phase_2,go,350.0,400.0,1.0,,,,,,,,,blue,triangle
0.0,6.0,1.0,1.0,6.0,0.0,0.0,3.0,1.0,phase_2,stop,350.0,400.0,4.0,,,,,,,,,green,I
0.0,4.0,4.0,0.0,5.0,5.0,446.4177199997721,3.0,1.0,phase_2,go,350.0,450.0,1.0,,,,,,,,,orange,circle
0.0,8.0,4.0,1.0,5.0,0.0,0.0,3.0,1.0,phase_2,stop,350.0,450.0,4.0,,,,,,,,,white,square
0.0,5.0,0.5,1.0,5.0,5.0,458.4441530000731,3.0,1.0,phase_2,stop,400.0,450.0,3.0,,,,,,,,,cyan,hexagon
0.0,8.0,4.0,1.0,5.0,5.0,379.9669879999783,3.0,1.0,phase_2,go,350.0,450.0,1.0,,,,,,,,,white,square
0.0,1.0,0.5,0.0,6.0,6.0,425.5047480000939,3.0,1.0,phase_2,go,350.0,450.0,1.0,,,,,,,,,magenta,flipped triangle
0.0,7.0,2.0,1.0,5.0,0.0,0.0,3.0,1.0,phase_2,stop,350.0,450.0,4.0,,,,,,,,,gray,diamond
0.0,8.0,4.0,1.0,6.0,6.0,425.2958359998047,3.0,1.0,phase_2,stop,400.0,450.0,3.0,,,,,,,,,white,square
0.0,1.0,0.5,0.0,5.0,5.0,559.463562000019,4.0,1.0,phase_2,go,400.0,400.0,1.0,,,,,,,,,magenta,flipped triangle
0.0,7.0,2.0,1.0,5.0,5.0,580.5062069998712,4.0,1.0,phase_2,stop,400.0,400.0,3.0,,,,,,,,,gray,diamond
0.0,5.0,0.5,1.0,6.0,0.0,0.0,4.0,1.0,phase_2,stop,350.0,400.0,4.0,,,,,,,,,cyan,hexagon
0.0,4.0,4.0,0.0,6.0,6.0,587.7788779998809,4.0,1.0,phase_2,go,350.0,450.0,1.0,,,,,,,,,orange,circle
0.0,4.0,4.0,0.0,6.0,6.0,589.0349409996816,4.0,1.0,phase_2,go,350.0,450.0,1.0,,,,,,,,,orange,circle
0.0,4.0,4.0,0.0,6.0,6.0,686.4732109997931,4.0,1.0,phase_2,go,350.0,450.0,1.0,,,,,,,,,orange,circle
0.0,1.0,0.5,0.0,6.0,6.0,730.8668150003541,4.0,1.0,phase_2,go,350.0,450.0,1.0,,,,,,,,,magenta,flipped triangle
0.0,7.0,2.0,1.0,6.0,6.0,625.1447740000913,4.0,1.0,phase_2,go,350.0,450.0,1.0,,,,,,,,,gray,diamond
0.0,1.0,0.5,0.0,5.0,5.0,758.8677109997661,4.0,1.0,phase_2,go,350.0,450.0,1.0,,,,,,,,,magenta,flipped triangle
0.0,8.0,4.0,1.0,6.0,0.0,0.0,4.0,1.0,phase_2,stop,350.0,450.0,4.0,,,,,,,,,white,square
0.0,2.0,1.0,0.0,6.0,6.0,464.9256899997454,4.0,1.0,phase_2,go,350.0,500.0,1.0,,,,,,,,,yellow,cross
0.0,6.0,1.0,1.0,6.0,0.0,0.0,4.0,1.0,phase_2,stop,350.0,500.0,4.0,,,,,,,,,green,I
0.0,2.0,1.0,0.0,6.0,6.0,393.4546959999352,4.0,1.0,phase_2,go,350.0,550.0,1.0,,,,,,,,,yellow,cross
0.0,5.0,0.5,1.0,6.0,6.0,410.9571280000637,4.0,1.0,phase_2,stop,350.0,550.0,3.0,,,,,,,,,cyan,hexagon
0.0,8.0,4.0,1.0,6.0,0.0,0.0,4.0,1.0,phase_2,stop,350.0,500.0,4.0,,,,,,,,,white,square
0.0,3.0,2.0,0.0,5.0,5.0,397.8908519998185,4.0,1.0,phase_2,go,350.0,550.0,1.0,,,,,,,,,blue,triangle
0.0,4.0,4.0,0.0,5.0,5.0,705.3220190000502,4.0,1.0,phase_2,go,350.0,550.0,1.0,,,,,,,,,orange,circle
0.0,5.0,0.5,1.0,5.0,0.0,0.0,4.0,1.0,phase_2,stop,350.0,550.0,4.0,,,,,,,,,cyan,hexagon
0.0,8.0,4.0,1.0,5.0,0.0,0.0,4.0,1.0,phase_2,stop,400.0,550.0,4.0,,,,,,,,,white,square
0.0,5.0,0.5,1.0,5.0,5.0,380.3630259999409,4.0,1.0,phase_2,stop,450.0,550.0,3.0,,,,,,,,,cyan,hexagon
0.0,2.0,1.0,0.0,6.0,6.0,617.2818919999372,4.0,1.0,phase_2,go,400.0,550.0,1.0,,,,,,,,,yellow,cross
0.0,1.0,0.5,0.0,6.0,6.0,427.1992009998939,4.0,1.0,phase_2,go,400.0,550.0,1.0,,,,,,,,,magenta,flipped triangle
0.0,2.0,1.0,0.0,6.0,6.0,665.4871240002649,4.0,1.0,phase_2,go,400.0,550.0,1.0,,,,,,,,,yellow,cross
0.0,8.0,4.0,1.0,5.0,5.0,594.8770649997641,4.0,1.0,phase_2,stop,400.0,550.0,3.0,,,,,,,,,white,square
0.0,3.0,2.0,0.0,6.0,6.0,374.3863830000009,4.0,1.0,phase_2,go,350.0,550.0,1.0,,,,,,,,,blue,triangle
0.0,2.0,1.0,0.0,6.0,6.0,531.3957990001654,4.0,1.0,phase_2,go,350.0,550.0,1.0,,,,,,,,,yellow,cross
0.0,1.0,0.5,0.0,6.0,6.0,484.246462000101,4.0,1.0,phase_2,go,350.0,550.0,1.0,,,,,,,,,magenta,flipped triangle
0.0,3.0,2.0,0.0,5.0,5.0,813.8206140001785,4.0,1.0,phase_2,go,350.0,550.0,1.0,,,,,,,,,blue,triangle
0.0,1.0,0.5,0.0,6.0,6.0,387.6193400001284,4.0,1.0,phase_2,go,350.0,550.0,1.0,,,,,,,,,magenta,flipped triangle
0.0,3.0,2.0,0.0,5.0,5.0,582.4694779998936,4.0,1.0,phase_2,go,350.0,550.0,1.0,,,,,,,,,blue,triangle
0.0,1.0,0.5,0.0,5.0,5.0,636.7096129997663,4.0,1.0,phase_2,go,350.0,550.0,1.0,,,,,,,,,magenta,flipped triangle
0.0,7.0,2.0,1.0,6.0,6.0,589.6070009998766,4.0,1.0,phase_2,stop,350.0,550.0,3.0,,,,,,,,,gray,diamond
0.0,8.0,4.0,1.0,5.0,0.0,0.0,4.0,1.0,phase_2,stop,350.0,500.0,4.0,,,,,,,,,white,square
0.0,6.0,1.0,1.0,5.0,5.0,370.7590179997169,4.0,1.0,phase_2,go,400.0,500.0,1.0,,,,,,,,,green,I
0.0,4.0,4.0,0.0,5.0,5.0,351.94163999995,4.0,1.0,phase_2,go,400.0,500.0,1.0,,,,,,,,,orange,circle
0.0,2.0,1.0,0.0,6.0,6.0,390.0522590001856,4.0,1.0,phase_2,go,400.0,500.0,1.0,,,,,,,,,yellow,cross
0.0,5.0,0.5,1.0,5.0,0.0,0.0,5.0,1.0,phase_2,stop,400.0,500.0,4.0,,,,,,,,,cyan,hexagon
0.0,5.0,0.5,1.0,6.0,6.0,379.7245870000552,5.0,1.0,phase_2,stop,450.0,500.0,3.0,,,,,,,,,cyan,hexagon
0.0,7.0,2.0,1.0,5.0,0.0,0.0,5.0,1.0,phase_2,stop,450.0,450.0,4.0,,,,,,,,,gray,diamond
0.0,1.0,0.5,0.0,6.0,6.0,258.4734290003325,5.0,1.0,phase_2,go,500.0,450.0,1.0,,,,,,,,,magenta,flipped triangle
0.0,7.0,2.0,1.0,5.0,5.0,416.7594700002155,5.0,1.0,phase_2,stop,500.0,450.0,3.0,,,,,,,,,gray,diamond
0.0,2.0,1.0,0.0,6.0,6.0,520.134434999818,5.0,1.0,phase_2,go,450.0,450.0,1.0,,,,,,,,,yellow,cross
0.0,6.0,1.0,1.0,6.0,6.0,436.086701000022,5.0,1.0,phase_2,stop,450.0,450.0,3.0,,,,,,,,,green,I
0.0,1.0,0.5,0.0,6.0,6.0,620.1818429999548,5.0,1.0,phase_2,go,450.0,400.0,1.0,,,,,,,,,magenta,flipped triangle
0.0,8.0,4.0,1.0,6.0,6.0,665.3408249999302,5.0,1.0,phase_2,go,450.0,400.0,1.0,,,,,,,,,white,square
0.0,6.0,1.0,1.0,6.0,0.0,0.0,5.0,1.0,phase_2,stop,450.0,400.0,4.0,,,,,,,,,green,I
0.0,7.0,2.0,1.0,6.0,6.0,529.2105450002964,5.0,1.0,phase_2,go,450.0,450.0,1.0,,,,,,,,,gray,diamond
0.0,8.0,4.0,1.0,6.0,0.0,0.0,5.0,1.0,phase_2,stop,450.0,450.0,4.0,,,,,,,,,white,square
0.0,7.0,2.0,1.0,5.0,5.0,574.6755479999592,5.0,1.0,phase_2,go,450.0,500.0,1.0,,,,,,,,,gray,diamond
0.0,8.0,4.0,1.0,6.0,6.0,606.3079759996981,5.0,1.0,phase_2,stop,450.0,500.0,3.0,,,,,,,,,white,square
0.0,7.0,2.0,1.0,6.0,6.0,517.9702939999515,5.0,1.0,phase_2,stop,450.0,450.0,3.0,,,,,,,,,gray,diamond
0.0,6.0,1.0,1.0,6.0,0.0,0.0,5.0,1.0,phase_2,stop,450.0,400.0,4.0,,,,,,,,,green,I
0.0,4.0,4.0,0.0,6.0,6.0,473.3389600000919,5.0,1.0,phase_2,go,450.0,450.0,1.0,,,,,,,,,orange,circle
0.0,3.0,2.0,0.0,5.0,5.0,540.4994049999914,5.0,1.0,phase_2,go,450.0,450.0,1.0,,,,,,,,,blue,triangle
0.0,7.0,2.0,1.0,5.0,5.0,523.0088580001393,5.0,1.0,phase_2,go,450.0,450.0,1.0,,,,,,,,,gray,diamond
0.0,1.0,0.5,0.0,6.0,6.0,553.6375409997163,5.0,1.0,phase_2,go,450.0,450.0,1.0,,,,,,,,,magenta,flipped triangle
0.0,7.0,2.0,1.0,6.0,6.0,849.0252579999833,5.0,1.0,phase_2,go,450.0,450.0,1.0,,,,,,,,,gray,diamond
0.0,3.0,2.0,0.0,5.0,5.0,565.5262250002124,5.0,1.0,phase_2,go,450.0,450.0,1.0,,,,,,,,,blue,triangle
0.0,2.0,1.0,0.0,6.0,6.0,605.637323999872,5.0,1.0,phase_2,go,450.0,450.0,1.0,,,,,,,,,yellow,cross
0.0,8.0,4.0,1.0,6.0,0.0,0.0,5.0,1.0,phase_2,stop,450.0,450.0,4.0,,,,,,,,,white,square
0.0,1.0,0.5,0.0,5.0,5.0,504.40034700022807,5.0,1.0,phase_2,go,450.0,500.0,1.0,,,,,,,,,magenta,flipped triangle
0.0,2.0,1.0,0.0,5.0,5.0,633.767822000209,5.0,1.0,phase_2,go,450.0,500.0,1.0,,,,,,,,,yellow,cross
0.0,1.0,0.5,0.0,6.0,6.0,620.100296000146,5.0,1.0,phase_2,go,450.0,500.0,1.0,,,,,,,,,magenta,flipped triangle
0.0,8.0,4.0,1.0,6.0,6.0,802.6925380004286,5.0,1.0,phase_2,go,450.0,500.0,1.0,,,,,,,,,white,square
0.0,8.0,4.0,1.0,5.0,5.0,630.2386620000107,5.0,1.0,phase_2,go,450.0,500.0,1.0,,,,,,,,,white,square
0.0,4.0,4.0,0.0,5.0,5.0,718.0466429999797,5.0,1.0,phase_2,go,450.0,500.0,1.0,,,,,,,,,orange,circle
0.0,2.0,1.0,0.0,6.0,6.0,500.80110699991565,5.0,1.0,phase_2,go,450.0,500.0,1.0,,,,,,,,,yellow,cross
0.0,2.0,1.0,0.0,5.0,5.0,701.3122739999744,5.0,1.0,phase_2,go,450.0,500.0,1.0,,,,,,,,,yellow,cross
0.0,7.0,2.0,1.0,5.0,5.0,322.4964900000486,5.0,1.0,phase_2,stop,450.0,500.0,3.0,,,,,,,,,gray,diamond
0.0,8.0,4.0,1.0,5.0,5.0,526.8891179998718,5.0,1.0,phase_2,stop,400.0,500.0,3.0,,,,,,,,,white,square
0.0,5.0,0.5,1.0,6.0,6.0,505.1490669998202,5.0,1.0,phase_2,go,350.0,500.0,1.0,,,,,,,,,cyan,hexagon
0.0,2.0,1.0,0.0,6.0,6.0,645.5506060001426,5.0,1.0,phase_2,go,350.0,500.0,1.0,,,,,,,,,yellow,cross
0.0,4.0,4.0,0.0,6.0,6.0,516.2467700001798,6.0,1.0,phase_2,go,350.0,500.0,1.0,,,,,,,,,orange,circle
0.0,3.0,2.0,0.0,6.0,6.0,500.5390080000325,6.0,1.0,phase_2,go,350.0,500.0,1.0,,,,,,,,,blue,triangle
0.0,4.0,4.0,0.0,6.0,6.0,546.310351000102,6.0,1.0,phase_2,go,350.0,500.0,1.0,,,,,,,,,orange,circle
0.0,2.0,1.0,0.0,6.0,6.0,504.195166000045,6.0,1.0,phase_2,go,350.0,500.0,1.0,,,,,,,,,yellow,cross
0.0,5.0,0.5,1.0,5.0,5.0,655.7320300003084,6.0,1.0,phase_2,go,350.0,500.0,1.0,,,,,,,,,cyan,hexagon
0.0,5.0,0.5,1.0,5.0,0.0,0.0,6.0,1.0,phase_2,stop,350.0,500.0,4.0,,,,,,,,,cyan,hexagon
0.0,8.0,4.0,1.0,6.0,6.0,423.2013079999888,6.0,1.0,phase_2,stop,400.0,500.0,3.0,,,,,,,,,white,square
0.0,2.0,1.0,0.0,6.0,6.0,447.4345650000941,6.0,1.0,phase_2,go,400.0,450.0,1.0,,,,,,,,,yellow,cross
0.0,4.0,4.0,0.0,6.0,6.0,623.4658700000182,6.0,1.0,phase_2,go,400.0,450.0,1.0,,,,,,,,,orange,circle
0.0,5.0,0.5,1.0,5.0,0.0,0.0,6.0,1.0,phase_2,stop,400.0,450.0,4.0,,,,,,,,,cyan,hexagon
0.0,2.0,1.0,0.0,5.0,5.0,575.2578970000286,6.0,1.0,phase_2,go,450.0,450.0,1.0,,,,,,,,,yellow,cross
0.0,2.0,1.0,0.0,6.0,6.0,594.1932159998942,6.0,1.0,phase_2,go,450.0,450.0,1.0,,,,,,,,,yellow,cross
0.0,5.0,0.5,1.0,6.0,6.0,415.3287499998441,6.0,1.0,phase_2,stop,450.0,450.0,3.0,,,,,,,,,cyan,hexagon
0.0,1.0,0.5,0.0,5.0,5.0,427.9665770000065,6.0,1.0,phase_2,go,450.0,400.0,1.0,,,,,,,,,magenta,flipped triangle
0.0,1.0,0.5,0.0,6.0,6.0,509.2962419998912,6.0,1.0,phase_2,go,450.0,400.0,1.0,,,,,,,,,magenta,flipped triangle
0.0,4.0,4.0,0.0,5.0,5.0,635.5638820000422,6.0,1.0,phase_2,go,450.0,400.0,1.0,,,,,,,,,orange,circle
0.0,6.0,1.0,1.0,6.0,6.0,448.6897419997149,6.0,1.0,phase_2,stop,450.0,400.0,3.0,,,,,,,,,green,I
0.0,7.0,2.0,1.0,6.0,6.0,384.6776860000318,6.0,1.0,phase_2,stop,450.0,350.0,3.0,,,,,,,,,gray,diamond
0.0,6.0,1.0,1.0,5.0,5.0,359.7533800002566,6.0,1.0,phase_2,go,450.0,300.0,1.0,,,,,,,,,green,I
0.0,3.0,2.0,0.0,6.0,6.0,556.1798110002201,6.0,1.0,phase_2,go,450.0,300.0,1.0,,,,,,,,,blue,triangle
0.0,6.0,1.0,1.0,6.0,6.0,455.3690590000769,6.0,1.0,phase_2,stop,450.0,300.0,3.0,,,,,,,,,green,I
0.0,4.0,4.0,0.0,5.0,5.0,578.1709269999737,6.0,1.0,phase_2,go,450.0,250.0,1.0,,,,,,,,,orange,circle
0.0,6.0,1.0,1.0,5.0,5.0,785.6089319998318,6.0,1.0,phase_2,go,450.0,250.0,1.0,,,,,,,,,green,I
0.0,7.0,2.0,1.0,6.0,6.0,633.4233110001151,6.0,1.0,phase_2,go,450.0,250.0,1.0,,,,,,,,,gray,diamond
0.0,1.0,0.5,0.0,5.0,5.0,453.9436599998225,6.0,1.0,phase_2,go,450.0,250.0,1.0,,,,,,,,,magenta,flipped triangle
0.0,8.0,4.0,1.0,5.0,0.0,0.0,6.0,1.0,phase_2,stop,450.0,250.0,4.0,,,,,,,,,white,square
0.0,3.0,2.0,0.0,6.0,6.0,291.8621380003969,6.0,1.0,phase_2,go,500.0,250.0,1.0,,,,,,,,,blue,triangle
0.0,7.0,2.0,1.0,6.0,0.0,0.0,6.0,1.0,phase_2,stop,500.0,250.0,4.0,,,,,,,,,gray,diamond
0.0,3.0,2.0,0.0,5.0,5.0,365.9170819996689,6.0,1.0,phase_2,go,500.0,300.0,1.0,,,,,,,,,blue,triangle
0.0,5.0,0.5,1.0,6.0,6.0,347.7851699999519,6.0,1.0,phase_2,stop,500.0,300.0,3.0,,,,,,,,,cyan,hexagon
0.0,1.0,0.5,0.0,5.0,5.0,403.7269989999004,6.0,1.0,phase_2,go,500.0,250.0,1.0,,,,,,,,,magenta,flipped triangle
0.0,7.0,2.0,1.0,6.0,0.0,0.0,6.0,1.0,phase_2,stop,500.0,250.0,4.0,,,,,,,,,gray,diamond
0.0,8.0,4.0,1.0,6.0,0.0,0.0,6.0,1.0,phase_2,stop,500.0,300.0,4.0,,,,,,,,,white,square
0.0,4.0,4.0,0.0,6.0,6.0,582.9158359997564,6.0,1.0,phase_2,go,500.0,350.0,1.0,,,,,,,,,orange,circle
0.0,6.0,1.0,1.0,5.0,5.0,653.585856999598,6.0,1.0,phase_2,go,500.0,350.0,1.0,,,,,,,,,green,I
0.0,1.0,0.5,0.0,5.0,5.0,584.3949700001758,6.0,1.0,phase_2,go,500.0,350.0,1.0,,,,,,,,,magenta,flipped triangle
0.0,8.0,4.0,1.0,5.0,5.0,462.7294040001288,7.0,1.0,phase_2,stop,500.0,350.0,3.0,,,,,,,,,white,square
0.0,2.0,1.0,0.0,5.0,5.0,502.68046900055197,7.0,1.0,phase_2,go,450.0,350.0,1.0,,,,,,,,,yellow,cross
0.0,4.0,4.0,0.0,6.0,6.0,434.6005699999296,7.0,1.0,phase_2,go,450.0,350.0,1.0,,,,,,,,,orange,circle
0.0,5.0,0.5,1.0,6.0,6.0,435.7091339998078,7.0,1.0,phase_2,go,450.0,350.0,1.0,,,,,,,,,cyan,hexagon
0.0,7.0,2.0,1.0,6.0,0.0,0.0,7.0,1.0,phase_2,stop,450.0,350.0,4.0,,,,,,,,,gray,diamond
0.0,8.0,4.0,1.0,6.0,0.0,0.0,7.0,1.0,phase_2,stop,450.0,400.0,4.0,,,,,,,,,white,square
0.0,2.0,1.0,0.0,5.0,5.0,498.6457630002405,7.0,1.0,phase_2,go,450.0,450.0,1.0,,,,,,,,,yellow,cross
0.0,3.0,2.0,0.0,5.0,5.0,500.2269859996886,7.0,1.0,phase_2,go,450.0,450.0,1.0,,,,,,,,,blue,triangle
0.0,1.0,0.5,0.0,5.0,5.0,463.2602420006151,7.0,1.0,phase_2,go,450.0,450.0,1.0,,,,,,,,,magenta,flipped triangle
0.0,4.0,4.0,0.0,5.0,5.0,632.6462979995995,7.0,1.0,phase_2,go,450.0,450.0,1.0,,,,,,,,,orange,circle
0.0,4.0,4.0,0.0,6.0,6.0,488.1895609996718,7.0,1.0,phase_2,go,450.0,450.0,1.0,,,,,,,,,orange,circle
0.0,2.0,1.0,0.0,5.0,5.0,584.9864699994214,7.0,1.0,phase_2,go,450.0,450.0,1.0,,,,,,,,,yellow,cross
0.0,8.0,4.0,1.0,6.0,6.0,473.7692299995615,7.0,1.0,phase_2,go,450.0,450.0,1.0,,,,,,,,,white,square
0.0,2.0,1.0,0.0,6.0,6.0,784.8774290005167,7.0,1.0,phase_2,go,450.0,450.0,1.0,,,,,,,,,yellow,cross
0.0,5.0,0.5,1.0,6.0,0.0,0.0,7.0,1.0,phase_2,stop,450.0,450.0,4.0,,,,,,,,,cyan,hexagon
0.0,8.0,4.0,1.0,5.0,5.0,509.20461599980626,7.0,1.0,phase_2,stop,450.0,500.0,3.0,,,,,,,,,white,square
0.0,6.0,1.0,1.0,5.0,5.0,493.464412999856,7.0,1.0,phase_2,stop,400.0,500.0,3.0,,,,,,,,,green,I
0.0,4.0,4.0,0.0,6.0,6.0,293.7465979994158,7.0,1.0,phase_2,go,350.0,500.0,1.0,,,,,,,,,orange,circle
0.0,2.0,1.0,0.0,6.0,6.0,811.3861259998885,7.0,1.0,phase_2,go,350.0,500.0,1.0,,,,,,,,,yellow,cross
0.0,5.0,0.5,1.0,5.0,5.0,521.6677520002122,7.0,1.0,phase_2,stop,350.0,500.0,3.0,,,,,,,,,cyan,hexagon
0.0,7.0,2.0,1.0,6.0,6.0,609.5631289999801,7.0,1.0,phase_2,stop,300.0,500.0,3.0,,,,,,,,,gray,diamond
0.0,5.0,0.5,1.0,6.0,0.0,0.0,7.0,1.0,phase_2,stop,300.0,450.0,4.0,,,,,,,,,cyan,hexagon
0.0,2.0,1.0,0.0,5.0,5.0,605.7257920001575,7.0,1.0,phase_2,go,300.0,500.0,1.0,,,,,,,,,yellow,cross
0.0,6.0,1.0,1.0,5.0,0.0,0.0,7.0,1.0,phase_2,stop,300.0,500.0,4.0,,,,,,,,,green,I
0.0,3.0,2.0,0.0,6.0,6.0,436.3029789992652,7.0,1.0,phase_2,go,350.0,500.0,1.0,,,,,,,,,blue,triangle
0.0,8.0,4.0,1.0,5.0,0.0,0.0,7.0,1.0,phase_2,stop,350.0,500.0,4.0,,,,,,,,,white,square
0.0,5.0,0.5,1.0,5.0,5.0,651.8182319996413,7.0,1.0,phase_2,go,400.0,500.0,1.0,,,,,,,,,cyan,hexagon
0.0,7.0,2.0,1.0,5.0,0.0,0.0,7.0,1.0,phase_2,stop,400.0,500.0,4.0,,,,,,,,,gray,diamond
0.0,4.0,4.0,0.0,5.0,5.0,665.3231720001713,7.0,1.0,phase_2,go,450.0,500.0,1.0,,,,,,,,,orange,circle
0.0,6.0,1.0,1.0,5.0,5.0,528.972031000194,7.0,1.0,phase_2,stop,450.0,500.0,3.0,,,,,,,,,green,I
0.0,5.0,0.5,1.0,5.0,0.0,0.0,7.0,1.0,phase_2,stop,400.0,500.0,4.0,,,,,,,,,cyan,hexagon
0.0,3.0,2.0,0.0,6.0,6.0,502.3156690003816,7.0,1.0,phase_2,go,450.0,500.0,1.0,,,,,,,,,blue,triangle
0.0,3.0,2.0,0.0,6.0,6.0,453.898451999521,7.0,1.0,phase_2,go,450.0,500.0,1.0,,,,,,,,,blue,triangle
0.0,8.0,4.0,1.0,6.0,6.0,637.224445999891,7.0,1.0,phase_2,go,450.0,500.0,1.0,,,,,,,,,white,square
0.0,3.0,2.0,0.0,6.0,6.0,672.9856869997093,7.0,1.0,phase_2,go,450.0,500.0,1.0,,,,,,,,,blue,triangle
0.0,4.0,4.0,0.0,5.0,5.0,679.1470110001683,7.0,1.0,phase_2,go,450.0,500.0,1.0,,,,,,,,,orange,circle
0.0,5.0,0.5,1.0,6.0,6.0,387.7513600000384,8.0,1.0,phase_2,go,450.0,500.0,1.0,,,,,,,,,cyan,hexagon
0.0,1.0,0.5,0.0,6.0,6.0,596.9350859995757,8.0,1.0,phase_2,go,450.0,500.0,1.0,,,,,,,,,magenta,flipped triangle
0.0,1.0,0.5,0.0,5.0,5.0,650.253032999899,8.0,1.0,phase_2,go,450.0,500.0,1.0,,,,,,,,,magenta,flipped triangle
0.0,6.0,1.0,1.0,6.0,0.0,0.0,8.0,1.0,phase_2,stop,450.0,500.0,4.0,,,,,,,,,green,I
0.0,6.0,1.0,1.0,5.0,0.0,0.0,8.0,1.0,phase_2,stop,450.0,550.0,4.0,,,,,,,,,green,I
0.0,6.0,1.0,1.0,5.0,5.0,695.432291000543,8.0,1.0,phase_2,go,500.0,550.0,1.0,,,,,,,,,green,I
0.0,3.0,2.0,0.0,5.0,5.0,570.1956459997746,8.0,1.0,phase_2,go,500.0,550.0,1.0,,,,,,,,,blue,triangle
0.0,5.0,0.5,1.0,6.0,6.0,484.6477920000325,8.0,1.0,phase_2,stop,500.0,550.0,3.0,,,,,,,,,cyan,hexagon
0.0,8.0,4.0,1.0,5.0,5.0,578.656183000021,8.0,1.0,phase_2,stop,500.0,500.0,3.0,,,,,,,,,white,square
0.0,1.0,0.5,0.0,5.0,5.0,707.2241779997057,8.0,1.0,phase_2,go,450.0,500.0,1.0,,,,,,,,,magenta,flipped triangle
0.0,3.0,2.0,0.0,5.0,5.0,617.1704210000826,8.0,1.0,phase_2,go,450.0,500.0,1.0,,,,,,,,,blue,triangle
0.0,3.0,2.0,0.0,6.0,6.0,614.0614659998391,8.0,1.0,phase_2,go,450.0,500.0,1.0,,,,,,,,,blue,triangle
0.0,5.0,0.5,1.0,6.0,0.0,0.0,8.0,1.0,phase_2,stop,450.0,500.0,4.0,,,,,,,,,cyan,hexagon
0.0,3.0,2.0,0.0,5.0,5.0,720.8333019998463,8.0,1.0,phase_2,go,450.0,550.0,1.0,,,,,,,,,blue,triangle
0.0,7.0,2.0,1.0,5.0,5.0,519.0484900003867,8.0,1.0,phase_2,stop,450.0,550.0,3.0,,,,,,,,,gray,diamond
0.0,4.0,4.0,0.0,6.0,6.0,663.0077820000224,8.0,1.0,phase_2,go,400.0,550.0,1.0,,,,,,,,,orange,circle
0.0,5.0,0.5,1.0,5.0,5.0,641.8024479999076,8.0,1.0,phase_2,stop,400.0,550.0,3.0,,,,,,,,,cyan,hexagon
0.0,3.0,2.0,0.0,5.0,5.0,660.8799589994305,8.0,1.0,phase_2,go,350.0,550.0,1.0,,,,,,,,,blue,triangle
0.0,3.0,2.0,0.0,6.0,6.0,655.6098950004525,8.0,1.0,phase_2,go,350.0,550.0,1.0,,,,,,,,,blue,triangle
0.0,3.0,2.0,0.0,5.0,5.0,681.5402689999246,8.0,1.0,phase_2,go,350.0,550.0,1.0,,,,,,,,,blue,triangle
0.0,5.0,0.5,1.0,6.0,6.0,691.0393540001678,8.0,1.0,phase_2,stop,350.0,550.0,3.0,,,,,,,,,cyan,hexagon
0.0,1.0,0.5,0.0,5.0,5.0,653.5986790004245,8.0,1.0,phase_2,go,350.0,500.0,1.0,,,,,,,,,magenta,flipped triangle
0.0,2.0,1.0,0.0,5.0,5.0,615.4457499997079,8.0,1.0,phase_2,go,350.0,500.0,1.0,,,,,,,,,yellow,cross
0.0,4.0,4.0,0.0,6.0,6.0,813.2769660005579,8.0,1.0,phase_2,go,350.0,500.0,1.0,,,,,,,,,orange,circle
0.0,3.0,2.0,0.0,6.0,6.0,764.8527780002041,8.0,1.0,phase_2,go,350.0,500.0,1.0,,,,,,,,,blue,triangle
0.0,1.0,0.5,0.0,6.0,6.0,757.6772259999416,8.0,1.0,phase_2,go,350.0,500.0,1.0,,,,,,,,,magenta,flipped triangle
0.0,7.0,2.0,1.0,6.0,0.0,0.0,8.0,1.0,phase_2,stop,350.0,500.0,4.0,,,,,,,,,gray,diamond
0.0,2.0,1.0,0.0,5.0,5.0,836.4583669999774,8.0,1.0,phase_2,go,350.0,550.0,1.0,,,,,,,,,yellow,cross
0.0,2.0,1.0,0.0,5.0,5.0,776.0894390003159,8.0,1.0,phase_2,go,350.0,550.0,1.0,,,,,,,,,yellow,cross
0.0,5.0,0.5,1.0,5.0,0.0,0.0,8.0,1.0,phase_2,stop,350.0,550.0,4.0,,,,,,,,,cyan,hexagon
0.0,1.0,0.5,0.0,5.0,5.0,606.4149079993513,8.0,1.0,phase_2,go,400.0,550.0,1.0,,,,,,,,,magenta,flipped triangle
0.0,7.0,2.0,1.0,5.0,5.0,711.4166979999936,8.0,1.0,phase_2,go,400.0,550.0,1.0,,,,,,,,,gray,diamond
0.0,6.0,1.0,1.0,6.0,6.0,589.4921850003811,8.0,1.0,phase_2,stop,400.0,550.0,3.0,,,,,,,,,green,I
0.0,8.0,4.0,1.0,6.0,0.0,0.0,8.0,1.0,phase_2,stop,400.0,500.0,4.0,,,,,,,,,white,square
0.0,5.0,0.5,1.0,5.0,0.0,0.0,8.0,1.0,phase_2,stop,400.0,550.0,4.0,,,,,,,,,cyan,hexagon
0.0,5.0,0.5,1.0,6.0,6.0,624.4550620003793,8.0,1.0,phase_2,go,450.0,550.0,1.0,,,,,,,,,cyan,hexagon
0.0,3.0,2.0,0.0,7.0,2.0,2949.781303999771,1.0,1.0,phase_3,,,,,692.0,4.0,1038.0,692.0,346.0,173.0,865.0,519.0,blue,triangle
0.0,4.0,4.0,0.0,7.0,6.0,2151.8091610005285,1.0,1.0,phase_3,,,,,924.0,6.0,462.0,308.0,770.0,616.0,154.0,924.0,orange,circle
0.0,8.0,4.0,1.0,7.0,5.0,2170.7481719995485,1.0,1.0,phase_3,,,,,462.0,3.0,770.0,154.0,924.0,308.0,462.0,616.0,white,square
0.0,6.0,1.0,1.0,7.0,1.0,1316.220147000422,1.0,1.0,phase_3,,,,,173.0,1.0,173.0,346.0,519.0,692.0,865.0,1038.0,green,I
0.0,7.0,2.0,1.0,7.0,1.0,1718.2442369994533,1.0,1.0,phase_3,,,,,576.0,3.0,576.0,384.0,960.0,768.0,192.0,1152.0,gray,diamond
0.0,3.0,2.0,0.0,7.0,5.0,2201.322814000377,1.0,1.0,phase_3,,,,,308.0,2.0,154.0,770.0,616.0,462.0,308.0,924.0,blue,triangle
0.0,1.0,0.5,0.0,7.0,2.0,1286.310613999376,1.0,1.0,phase_3,,,,,232.0,2.0,580.0,232.0,696.0,348.0,464.0,116.0,magenta,flipped triangle
0.0,7.0,2.0,1.0,7.0,3.0,1100.8577200000218,1.0,1.0,phase_3,,,,,770.0,5.0,616.0,462.0,770.0,308.0,154.0,924.0,gray,diamond
0.0,4.0,4.0,0.0,7.0,4.0,1903.3348579996527,1.0,1.0,phase_3,,,,,696.0,6.0,580.0,116.0,348.0,696.0,232.0,464.0,orange,circle
0.0,7.0,2.0,1.0,7.0,6.0,2180.58189400017,1.0,1.0,phase_3,,,,,865.0,5.0,346.0,519.0,1038.0,692.0,173.0,865.0,gray,diamond
0.0,2.0,1.0,0.0,7.0,6.0,1989.2106130000684,1.0,1.0,phase_3,,,,,346.0,2.0,173.0,1038.0,692.0,519.0,865.0,346.0,yellow,cross
0.0,3.0,2.0,0.0,7.0,6.0,1527.0634960006646,1.0,1.0,phase_3,,,,,464.0,4.0,232.0,580.0,348.0,696.0,116.0,464.0,blue,triangle
0.0,2.0,1.0,0.0,7.0,4.0,713.6086040000009,1.0,1.0,phase_3,,,,,116.0,1.0,348.0,580.0,696.0,116.0,232.0,464.0,yellow,cross
0.0,4.0,4.0,0.0,7.0,1.0,863.7878429999546,1.0,1.0,phase_3,,,,,810.0,6.0,810.0,540.0,405.0,270.0,135.0,675.0,orange,circle
0.0,4.0,4.0,0.0,7.0,5.0,1721.7518110001038,1.0,1.0,phase_3,,,,,865.0,5.0,692.0,519.0,346.0,173.0,865.0,1038.0,orange,circle
0.0,5.0,0.5,1.0,7.0,4.0,1859.66911200012,1.0,1.0,phase_3,,,,,348.0,3.0,696.0,464.0,580.0,348.0,116.0,232.0,cyan,hexagon
0.0,8.0,4.0,1.0,7.0,2.0,791.650696999568,1.0,1.0,phase_3,,,,,580.0,5.0,464.0,580.0,116.0,696.0,348.0,232.0,white,square
0.0,1.0,0.5,0.0,7.0,5.0,956.5144019998116,1.0,1.0,phase_3,,,,,770.0,5.0,616.0,308.0,154.0,462.0,770.0,924.0,magenta,flipped triangle
0.0,1.0,0.5,0.0,7.0,6.0,1191.2681780004275,1.0,1.0,phase_3,,,,,865.0,5.0,1038.0,692.0,173.0,346.0,519.0,865.0,magenta,flipped triangle
0.0,3.0,2.0,0.0,7.0,5.0,938.9995299998192,1.0,1.0,phase_3,,,,,576.0,3.0,192.0,960.0,768.0,384.0,576.0,1152.0,blue,triangle
0.0,1.0,0.5,0.0,7.0,2.0,927.896402999977,2.0,1.0,phase_3,,,,,675.0,5.0,810.0,675.0,540.0,405.0,135.0,270.0,magenta,flipped triangle
0.0,7.0,2.0,1.0,7.0,5.0,1209.220421000282,2.0,1.0,phase_3,,,,,464.0,4.0,696.0,580.0,116.0,232.0,464.0,348.0,gray,diamond
0.0,5.0,0.5,1.0,7.0,1.0,527.6929219999147,2.0,1.0,phase_3,,,,,924.0,6.0,924.0,462.0,770.0,308.0,154.0,616.0,cyan,hexagon
0.0,8.0,4.0,1.0,7.0,6.0,762.7866749999157,2.0,1.0,phase_3,,,,,405.0,3.0,675.0,540.0,135.0,810.0,270.0,405.0,white,square
0.0,1.0,0.5,0.0,7.0,6.0,1916.164968000885,2.0,1.0,phase_3,,,,,192.0,1.0,384.0,768.0,960.0,576.0,1152.0,192.0,magenta,flipped triangle
0.0,1.0,0.5,0.0,7.0,2.0,627.5666060000731,2.0,1.0,phase_3,,,,,192.0,1.0,384.0,192.0,960.0,576.0,768.0,1152.0,magenta,flipped triangle
0.0,3.0,2.0,0.0,7.0,2.0,1393.0382849994205,2.0,1.0,phase_3,,,,,308.0,2.0,616.0,308.0,462.0,154.0,770.0,924.0,blue,triangle
0.0,3.0,2.0,0.0,7.0,5.0,1434.020122999755,2.0,1.0,phase_3,,,,,540.0,4.0,810.0,270.0,135.0,405.0,540.0,675.0,blue,triangle
0.0,4.0,4.0,0.0,7.0,3.0,1565.9190489996035,2.0,1.0,phase_3,,,,,1038.0,6.0,519.0,692.0,1038.0,865.0,346.0,173.0,orange,circle
0.0,2.0,1.0,0.0,7.0,5.0,862.7024730003541,2.0,1.0,phase_3,,,,,540.0,4.0,810.0,675.0,405.0,270.0,540.0,135.0,yellow,cross
0.0,6.0,1.0,1.0,7.0,4.0,1022.411775999899,2.0,1.0,phase_3,,,,,232.0,2.0,580.0,116.0,348.0,232.0,464.0,696.0,green,I
0.0,8.0,4.0,1.0,7.0,1.0,880.9831810003743,2.0,1.0,phase_3,,,,,384.0,2.0,384.0,768.0,960.0,192.0,1152.0,576.0,white,square
0.0,5.0,0.5,1.0,7.0,6.0,986.5346309998132,2.0,1.0,phase_3,,,,,154.0,1.0,462.0,770.0,924.0,616.0,308.0,154.0,cyan,hexagon
0.0,8.0,4.0,1.0,7.0,1.0,721.2511979996634,2.0,1.0,phase_3,,,,,692.0,4.0,692.0,1038.0,519.0,173.0,346.0,865.0,white,square
0.0,1.0,0.5,0.0,7.0,5.0,1051.3811670007271,2.0,1.0,phase_3,,,,,405.0,3.0,135.0,675.0,270.0,810.0,405.0,540.0,magenta,flipped triangle
0.0,3.0,2.0,0.0,7.0,2.0,839.2360950001603,2.0,1.0,phase_3,,,,,580.0,5.0,348.0,580.0,116.0,696.0,232.0,464.0,blue,triangle
0.0,7.0,2.0,1.0,7.0,5.0,628.5606290002761,2.0,1.0,phase_3,,,,,770.0,5.0,308.0,616.0,154.0,462.0,770.0,924.0,gray,diamond
0.0,2.0,1.0,0.0,7.0,1.0,958.763268000439,2.0,1.0,phase_3,,,,,346.0,2.0,346.0,519.0,865.0,173.0,692.0,1038.0,yellow,cross
0.0,8.0,4.0,1.0,7.0,6.0,1099.5238810000956,2.0,1.0,phase_3,,,,,192.0,1.0,384.0,1152.0,960.0,768.0,576.0,192.0,white,square
0.0,7.0,2.0,1.0,7.0,4.0,865.0674999998955,2.0,1.0,phase_3,,,,,348.0,3.0,580.0,464.0,696.0,348.0,116.0,232.0,gray,diamond
0.0,5.0,0.5,1.0,7.0,6.0,920.5528980000964,3.0,1.0,phase_3,,,,,346.0,2.0,519.0,173.0,865.0,692.0,1038.0,346.0,cyan,hexagon
0.0,2.0,1.0,0.0,7.0,4.0,909.684191999986,3.0,1.0,phase_3,,,,,348.0,3.0,696.0,116.0,232.0,348.0,580.0,464.0,yellow,cross
0.0,6.0,1.0,1.0,7.0,2.0,986.0762270000124,3.0,1.0,phase_3,,,,,865.0,5.0,173.0,865.0,1038.0,346.0,519.0,692.0,green,I
0.0,7.0,2.0,1.0,7.0,6.0,625.5042590000812,3.0,1.0,phase_3,,,,,768.0,4.0,1152.0,384.0,960.0,192.0,576.0,768.0,gray,diamond
0.0,5.0,0.5,1.0,7.0,1.0,533.6724230000982,3.0,1.0,phase_3,,,,,384.0,2.0,384.0,192.0,1152.0,768.0,576.0,960.0,cyan,hexagon
0.0,8.0,4.0,1.0,7.0,5.0,1097.994865000146,3.0,1.0,phase_3,,,,,692.0,4.0,1038.0,346.0,865.0,173.0,692.0,519.0,white,square
0.0,7.0,2.0,1.0,7.0,3.0,1507.7136089994383,3.0,1.0,phase_3,,,,,135.0,1.0,540.0,810.0,135.0,270.0,675.0,405.0,gray,diamond
0.0,3.0,2.0,0.0,7.0,6.0,1031.9175750000795,3.0,1.0,phase_3,,,,,270.0,2.0,675.0,405.0,135.0,810.0,540.0,270.0,blue,triangle
0.0,4.0,4.0,0.0,7.0,3.0,1873.7183980001648,3.0,1.0,phase_3,,,,,696.0,6.0,580.0,116.0,696.0,348.0,232.0,464.0,orange,circle
0.0,7.0,2.0,1.0,7.0,5.0,1475.5982060005408,3.0,1.0,phase_3,,,,,865.0,5.0,692.0,519.0,346.0,173.0,865.0,1038.0,gray,diamond
0.0,2.0,1.0,0.0,7.0,2.0,571.2498470002174,3.0,1.0,phase_3,,,,,384.0,2.0,576.0,384.0,1152.0,768.0,192.0,960.0,yellow,cross
0.0,6.0,1.0,1.0,7.0,5.0,758.5871370001769,3.0,1.0,phase_3,,,,,768.0,4.0,576.0,960.0,192.0,384.0,768.0,1152.0,green,I
0.0,2.0,1.0,0.0,7.0,2.0,675.7458259999112,3.0,1.0,phase_3,,,,,308.0,2.0,154.0,308.0,770.0,924.0,462.0,616.0,yellow,cross
0.0,6.0,1.0,1.0,7.0,3.0,496.9567050002297,3.0,1.0,phase_3,,,,,270.0,2.0,810.0,540.0,270.0,405.0,135.0,675.0,green,I
0.0,1.0,0.5,0.0,7.0,5.0,594.274691999999,3.0,1.0,phase_3,,,,,770.0,5.0,616.0,924.0,154.0,308.0,770.0,462.0,magenta,flipped triangle
0.0,4.0,4.0,0.0,7.0,6.0,994.6342059993184,3.0,1.0,phase_3,,,,,960.0,5.0,576.0,192.0,384.0,1152.0,768.0,960.0,orange,circle
0.0,8.0,4.0,1.0,7.0,2.0,589.8758170005749,3.0,1.0,phase_3,,,,,616.0,4.0,462.0,616.0,924.0,308.0,770.0,154.0,white,square
0.0,1.0,0.5,0.0,7.0,1.0,629.6672469998157,3.0,1.0,phase_3,,,,,696.0,6.0,696.0,580.0,116.0,464.0,348.0,232.0,magenta,flipped triangle
0.0,5.0,0.5,1.0,7.0,4.0,718.9696979994551,3.0,1.0,phase_3,,,,,232.0,2.0,116.0,696.0,348.0,232.0,464.0,580.0,cyan,hexagon
0.0,6.0,1.0,1.0,7.0,1.0,572.6153640007396,3.0,1.0,phase_3,,,,,462.0,3.0,462.0,308.0,616.0,924.0,154.0,770.0,green,I
0.0,2.0,1.0,0.0,7.0,4.0,625.9433109999009,4.0,1.0,phase_3,,,,,192.0,1.0,1152.0,384.0,768.0,192.0,960.0,576.0,yellow,cross
0.0,3.0,2.0,0.0,7.0,2.0,523.9667229998304,4.0,1.0,phase_3,,,,,384.0,2.0,192.0,384.0,576.0,960.0,1152.0,768.0,blue,triangle
0.0,5.0,0.5,1.0,7.0,4.0,696.5534099999786,4.0,1.0,phase_3,,,,,1152.0,6.0,960.0,576.0,192.0,1152.0,768.0,384.0,cyan,hexagon
0.0,4.0,4.0,0.0,7.0,4.0,1006.5124899992952,4.0,1.0,phase_3,,,,,960.0,5.0,768.0,576.0,1152.0,960.0,384.0,192.0,orange,circle
0.0,6.0,1.0,1.0,7.0,3.0,1200.0477920000776,4.0,1.0,phase_3,,,,,768.0,4.0,576.0,960.0,768.0,192.0,384.0,1152.0,green,I
0.0,8.0,4.0,1.0,7.0,4.0,909.163126999374,4.0,1.0,phase_3,,,,,405.0,3.0,810.0,540.0,135.0,405.0,675.0,270.0,white,square
0.0,5.0,0.5,1.0,7.0,1.0,1661.615277999772,4.0,1.0,phase_3,,,,,540.0,4.0,540.0,135.0,270.0,405.0,675.0,810.0,cyan,hexagon
0.0,5.0,0.5,1.0,7.0,3.0,1108.0922699993607,4.0,1.0,phase_3,,,,,173.0,1.0,1038.0,692.0,173.0,519.0,346.0,865.0,cyan,hexagon
0.0,5.0,0.5,1.0,7.0,5.0,668.9297809998607,4.0,1.0,phase_3,,,,,135.0,1.0,675.0,540.0,810.0,405.0,135.0,270.0,cyan,hexagon
0.0,1.0,0.5,0.0,7.0,2.0,656.3256899999033,4.0,1.0,phase_3,,,,,865.0,5.0,1038.0,865.0,346.0,692.0,519.0,173.0,magenta,flipped triangle
0.0,7.0,2.0,1.0,7.0,6.0,545.6706349996239,4.0,1.0,phase_3,,,,,540.0,4.0,810.0,405.0,270.0,675.0,135.0,540.0,gray,diamond
0.0,3.0,2.0,0.0,7.0,3.0,1836.561877999884,4.0,1.0,phase_3,,,,,519.0,3.0,1038.0,173.0,519.0,346.0,865.0,692.0,blue,triangle
0.0,2.0,1.0,0.0,7.0,6.0,1252.300064999872,4.0,1.0,phase_3,,,,,675.0,5.0,405.0,135.0,810.0,540.0,270.0,675.0,yellow,cross
0.0,4.0,4.0,0.0,7.0,2.0,1152.7618649997748,4.0,1.0,phase_3,,,,,810.0,6.0,540.0,810.0,675.0,270.0,405.0,135.0,orange,circle
0.0,4.0,4.0,0.0,7.0,5.0,693.7922180004534,4.0,1.0,phase_3,,,,,616.0,4.0,462.0,308.0,770.0,924.0,616.0,154.0,orange,circle
0.0,6.0,1.0,1.0,7.0,1.0,806.7393439996522,4.0,1.0,phase_3,,,,,540.0,4.0,540.0,270.0,135.0,810.0,675.0,405.0,green,I
0.0,6.0,1.0,1.0,7.0,1.0,817.5335859996267,4.0,1.0,phase_3,,,,,232.0,2.0,232.0,696.0,116.0,464.0,348.0,580.0,green,I
0.0,2.0,1.0,0.0,7.0,6.0,904.0790779999952,4.0,1.0,phase_3,,,,,462.0,3.0,308.0,770.0,616.0,924.0,154.0,462.0,yellow,cross
0.0,6.0,1.0,1.0,7.0,2.0,565.0286400004916,4.0,1.0,phase_3,,,,,616.0,4.0,308.0,616.0,924.0,770.0,462.0,154.0,green,I
0.0,8.0,4.0,1.0,7.0,6.0,1345.635964000394,4.0,1.0,phase_3,,,,,580.0,5.0,348.0,696.0,464.0,232.0,116.0,580.0,white,square
