raw_reward_magnitude,stim_reward,stepwise_reward_magnitude,paired_with_stopping,stim_location,response,reaction_time,block,num_trial_presentations,which_phase,stop_signal_trial_type,left_SSD,right_SSD,accuracy,chosen_bidding_amount,chosen_bidding_level,possible_bid_1,possible_bid_2,possible_bid_3,possible_bid_4,possible_bid_5,possible_bid_6,color_text,shape_text
645.0,7.0,2.0,1.0,4.0,4.0,443.5090800000125,1.0,1.0,phase_1,,,,,,,,,,,,,magenta,diamond
344.0,6.0,1.0,1.0,3.0,3.0,333.7133710000444,1.0,1.0,phase_1,,,,,,,,,,,,,blue,square
1306.0,4.0,4.0,0.0,1.0,1.0,335.0893949999545,1.0,1.0,phase_1,,,,,,,,,,,,,cyan,circle
0.0,6.0,0.0,1.0,1.0,1.0,410.6665650000423,1.0,2.0,phase_1,,,,,,,,,,,,,blue,square
652.0,3.0,2.0,0.0,1.0,1.0,426.66140699998317,1.0,1.0,phase_1,,,,,,,,,,,,,green,cross
633.0,3.0,2.0,0.0,3.0,3.0,372.7850379999609,1.0,1.0,phase_1,,,,,,,,,,,,,green,cross
0.0,2.0,0.0,0.0,2.0,2.0,402.4021069999435,1.0,1.0,phase_1,,,,,,,,,,,,,yellow,flipped triangle
0.0,4.0,0.0,0.0,2.0,2.0,428.5267909999675,1.0,1.0,phase_1,,,,,,,,,,,,,cyan,circle
331.0,6.0,1.0,1.0,1.0,1.0,540.824394000083,1.0,2.0,phase_1,,,,,,,,,,,,,blue,square
333.0,6.0,1.0,1.0,1.0,1.0,353.531213999986,1.0,1.0,phase_1,,,,,,,,,,,,,blue,square
635.0,3.0,2.0,0.0,1.0,1.0,325.8433270000296,1.0,1.0,phase_1,,,,,,,,,,,,,green,cross
184.0,5.0,0.5,1.0,2.0,2.0,524.5503119999739,1.0,1.0,phase_1,,,,,,,,,,,,,gray,triangle
186.0,5.0,0.5,1.0,4.0,4.0,423.0316010000479,1.0,2.0,phase_1,,,,,,,,,,,,,gray,triangle
186.0,1.0,0.5,0.0,4.0,4.0,376.1910719999832,1.0,1.0,phase_1,,,,,,,,,,,,,orange,I
1293.0,8.0,4.0,1.0,3.0,3.0,383.9155079999727,1.0,1.0,phase_1,,,,,,,,,,,,,white,hexagon
1322.0,8.0,4.0,1.0,4.0,4.0,358.1969479999998,1.0,1.0,phase_1,,,,,,,,,,,,,white,hexagon
180.0,5.0,0.5,1.0,1.0,1.0,457.2547310000345,1.0,1.0,phase_1,,,,,,,,,,,,,gray,triangle
0.0,4.0,0.0,0.0,3.0,3.0,386.6594200000008,1.0,1.0,phase_1,,,,,,,,,,,,,cyan,circle
156.0,5.0,0.5,1.0,3.0,3.0,357.0065710000563,1.0,1.0,phase_1,,,,,,,,,,,,,gray,triangle
324.0,2.0,1.0,0.0,1.0,1.0,623.513269,1.0,1.0,phase_1,,,,,,,,,,,,,yellow,flipped triangle
328.0,6.0,1.0,1.0,2.0,2.0,387.0073090000687,1.0,1.0,phase_1,,,,,,,,,,,,,blue,square
641.0,7.0,2.0,1.0,4.0,4.0,290.4720389999511,1.0,1.0,phase_1,,,,,,,,,,,,,magenta,diamond
656.0,3.0,2.0,0.0,2.0,2.0,369.0938970000843,1.0,1.0,phase_1,,,,,,,,,,,,,green,cross
633.0,7.0,2.0,1.0,1.0,1.0,391.1559699999998,1.0,1.0,phase_1,,,,,,,,,,,,,magenta,diamond
651.0,7.0,2.0,1.0,4.0,4.0,326.3589769999271,1.0,1.0,phase_1,,,,,,,,,,,,,magenta,diamond
138.0,1.0,0.5,0.0,2.0,2.0,430.7425770000463,1.0,1.0,phase_1,,,,,,,,,,,,,orange,I
675.0,7.0,2.0,1.0,3.0,3.0,446.5425539999614,1.0,1.0,phase_1,,,,,,,,,,,,,magenta,diamond
173.0,1.0,0.5,0.0,4.0,4.0,475.9168790000103,1.0,1.0,phase_1,,,,,,,,,,,,,orange,I
0.0,5.0,0.0,1.0,1.0,1.0,569.4470690000344,1.0,1.0,phase_1,,,,,,,,,,,,,gray,triangle
1311.0,4.0,4.0,0.0,4.0,4.0,401.0482510000202,1.0,1.0,phase_1,,,,,,,,,,,,,cyan,circle
175.0,5.0,0.5,1.0,3.0,3.0,327.7669120000155,1.0,1.0,phase_1,,,,,,,,,,,,,gray,triangle
0.0,3.0,0.0,0.0,4.0,4.0,291.7700269999841,1.0,1.0,phase_1,,,,,,,,,,,,,green,cross
671.0,7.0,2.0,1.0,3.0,3.0,335.36552999999,1.0,1.0,phase_1,,,,,,,,,,,,,magenta,diamond
1296.0,8.0,4.0,1.0,1.0,1.0,428.8498350000509,1.0,1.0,phase_1,,,,,,,,,,,,,white,hexagon
343.0,6.0,1.0,1.0,2.0,2.0,458.0928309999308,1.0,1.0,phase_1,,,,,,,,,,,,,blue,square
0.0,6.0,0.0,1.0,2.0,2.0,412.3533680000264,1.0,1.0,phase_1,,,,,,,,,,,,,blue,square
1284.0,8.0,4.0,1.0,1.0,1.0,372.9102390000207,1.0,1.0,phase_1,,,,,,,,,,,,,white,hexagon
177.0,1.0,0.5,0.0,2.0,2.0,419.7158560000389,1.0,1.0,phase_1,,,,,,,,,,,,,orange,I
0.0,7.0,0.0,1.0,2.0,2.0,400.5639520000841,1.0,1.0,phase_1,,,,,,,,,,,,,magenta,diamond
1293.0,8.0,4.0,1.0,1.0,1.0,469.1385029999537,1.0,1.0,phase_1,,,,,,,,,,,,,white,hexagon
1313.0,8.0,4.0,1.0,1.0,1.0,456.7051889999902,1.0,1.0,phase_1,,,,,,,,,,,,,white,hexagon
321.0,2.0,1.0,0.0,2.0,2.0,400.1337739999826,1.0,1.0,phase_1,,,,,,,,,,,,,yellow,flipped triangle
146.0,1.0,0.5,0.0,1.0,1.0,410.9856699999454,1.0,1.0,phase_1,,,,,,,,,,,,,orange,I
627.0,7.0,2.0,1.0,4.0,4.0,430.653523999922,1.0,1.0,phase_1,,,,,,,,,,,,,magenta,diamond
348.0,6.0,1.0,1.0,3.0,3.0,553.5096700000395,1.0,1.0,phase_1,,,,,,,,,,,,,blue,square
171.0,1.0,0.5,0.0,2.0,2.0,389.9903860000222,1.0,1.0,phase_1,,,,,,,,,,,,,orange,I
337.0,2.0,1.0,0.0,1.0,1.0,326.2857479999184,1.0,1.0,phase_1,,,,,,,,,,,,,yellow,flipped triangle
179.0,5.0,0.5,1.0,3.0,3.0,365.4074910000418,1.0,1.0,phase_1,,,,,,,,,,,,,gray,triangle
646.0,3.0,2.0,0.0,4.0,4.0,330.0846170000113,1.0,1.0,phase_1,,,,,,,,,,,,,green,cross
346.0,6.0,1.0,1.0,4.0,4.0,429.6434139999974,1.0,1.0,phase_1,,,,,,,,,,,,,blue,square
0.0,2.0,0.0,0.0,2.0,2.0,480.9547080000129,1.0,1.0,phase_1,,,,,,,,,,,,,yellow,flipped triangle
324.0,6.0,1.0,1.0,2.0,2.0,401.7920349999713,1.0,1.0,phase_1,,,,,,,,,,,,,blue,square
1302.0,4.0,4.0,0.0,3.0,3.0,403.6694780000971,1.0,1.0,phase_1,,,,,,,,,,,,,cyan,circle
323.0,6.0,1.0,1.0,4.0,4.0,457.6382149999745,1.0,1.0,phase_1,,,,,,,,,,,,,blue,square
154.0,5.0,0.5,1.0,3.0,3.0,364.8579590000054,1.0,1.0,phase_1,,,,,,,,,,,,,gray,triangle
0.0,3.0,0.0,0.0,1.0,1.0,465.938962999985,1.0,1.0,phase_1,,,,,,,,,,,,,green,cross
650.0,7.0,2.0,1.0,2.0,2.0,401.0379909999528,1.0,1.0,phase_1,,,,,,,,,,,,,magenta,diamond
315.0,2.0,1.0,0.0,1.0,1.0,291.2479770000118,1.0,1.0,phase_1,,,,,,,,,,,,,yellow,flipped triangle
179.0,5.0,0.5,1.0,1.0,1.0,362.5375300000542,1.0,1.0,phase_1,,,,,,,,,,,,,gray,triangle
324.0,6.0,1.0,1.0,4.0,4.0,408.8270829998919,1.0,2.0,phase_1,,,,,,,,,,,,,blue,square
140.0,5.0,0.5,1.0,1.0,1.0,727.262253000049,1.0,1.0,phase_1,,,,,,,,,,,,,gray,triangle
343.0,2.0,1.0,0.0,4.0,4.0,394.6091579999802,1.0,1.0,phase_1,,,,,,,,,,,,,yellow,flipped triangle
634.0,7.0,2.0,1.0,2.0,2.0,427.7198350000617,1.0,1.0,phase_1,,,,,,,,,,,,,magenta,diamond
0.0,2.0,0.0,0.0,2.0,2.0,346.8232469999748,1.0,1.0,phase_1,,,,,,,,,,,,,yellow,flipped triangle
631.0,3.0,2.0,0.0,2.0,2.0,364.1786279999905,1.0,1.0,phase_1,,,,,,,,,,,,,green,cross
0.0,7.0,0.0,1.0,2.0,2.0,324.2930600000591,1.0,1.0,phase_1,,,,,,,,,,,,,magenta,diamond
335.0,2.0,1.0,0.0,1.0,1.0,429.9483510000073,1.0,1.0,phase_1,,,,,,,,,,,,,yellow,flipped triangle
0.0,7.0,0.0,1.0,4.0,4.0,412.0429800000238,1.0,1.0,phase_1,,,,,,,,,,,,,magenta,diamond
643.0,7.0,2.0,1.0,3.0,3.0,448.4418039999127,1.0,1.0,phase_1,,,,,,,,,,,,,magenta,diamond
0.0,1.0,0.0,0.0,3.0,3.0,477.362411999934,1.0,1.0,phase_1,,,,,,,,,,,,,orange,I
662.0,3.0,2.0,0.0,4.0,4.0,429.3231710000782,1.0,1.0,phase_1,,,,,,,,,,,,,green,cross
181.0,5.0,0.5,1.0,4.0,4.0,328.2798589999629,1.0,1.0,phase_1,,,,,,,,,,,,,gray,triangle
1296.0,8.0,4.0,1.0,2.0,2.0,401.330337000104,1.0,1.0,phase_1,,,,,,,,,,,,,white,hexagon
1286.0,8.0,4.0,1.0,2.0,2.0,412.5400540000328,1.0,1.0,phase_1,,,,,,,,,,,,,white,hexagon
1283.0,4.0,4.0,0.0,2.0,2.0,326.3510319999341,1.0,1.0,phase_1,,,,,,,,,,,,,cyan,circle
321.0,6.0,1.0,1.0,4.0,4.0,400.4698039999539,1.0,1.0,phase_1,,,,,,,,,,,,,blue,square
156.0,5.0,0.5,1.0,1.0,1.0,384.6211160000621,1.0,1.0,phase_1,,,,,,,,,,,,,gray,triangle
154.0,1.0,0.5,0.0,1.0,1.0,382.2466450000092,1.0,1.0,phase_1,,,,,,,,,,,,,orange,I
155.0,5.0,0.5,1.0,4.0,4.0,502.4198250000609,1.0,2.0,phase_1,,,,,,,,,,,,,gray,triangle
1306.0,8.0,4.0,1.0,4.0,4.0,392.2045950000665,1.0,1.0,phase_1,,,,,,,,,,,,,white,hexagon
312.0,2.0,1.0,0.0,3.0,3.0,374.7409459999744,1.0,1.0,phase_1,,,,,,,,,,,,,yellow,flipped triangle
141.0,5.0,0.5,1.0,3.0,3.0,430.6926220000378,1.0,1.0,phase_1,,,,,,,,,,,,,gray,triangle
158.0,5.0,0.5,1.0,1.0,1.0,413.7357480000219,1.0,2.0,phase_1,,,,,,,,,,,,,gray,triangle
155.0,1.0,0.5,0.0,3.0,3.0,410.9474599999885,1.0,1.0,phase_1,,,,,,,,,,,,,orange,I
0.0,8.0,0.0,1.0,3.0,3.0,349.1955860000644,1.0,1.0,phase_1,,,,,,,,,,,,,white,hexagon
328.0,2.0,1.0,0.0,4.0,4.0,391.30075900004607,1.0,2.0,phase_1,,,,,,,,,,,,,yellow,flipped triangle
1322.0,8.0,4.0,1.0,2.0,2.0,407.5855139999476,1.0,1.0,phase_1,,,,,,,,,,,,,white,hexagon
1287.0,4.0,4.0,0.0,3.0,3.0,327.0062020000068,1.0,1.0,phase_1,,,,,,,,,,,,,cyan,circle
324.0,2.0,1.0,0.0,1.0,1.0,477.8300180000769,1.0,1.0,phase_1,,,,,,,,,,,,,yellow,flipped triangle
0.0,4.0,0.0,0.0,1.0,1.0,391.8128039999828,1.0,1.0,phase_1,,,,,,,,,,,,,cyan,circle
1282.0,8.0,4.0,1.0,4.0,4.0,487.0745109999461,1.0,1.0,phase_1,,,,,,,,,,,,,white,hexagon
655.0,7.0,2.0,1.0,3.0,3.0,355.0249659999736,1.0,1.0,phase_1,,,,,,,,,,,,,magenta,diamond
0.0,7.0,0.0,1.0,3.0,3.0,372.4702380000053,1.0,1.0,phase_1,,,,,,,,,,,,,magenta,diamond
1282.0,4.0,4.0,0.0,1.0,1.0,431.5176840000276,1.0,1.0,phase_1,,,,,,,,,,,,,cyan,circle
349.0,6.0,1.0,1.0,1.0,1.0,422.1070790000567,1.0,1.0,phase_1,,,,,,,,,,,,,blue,square
310.0,6.0,1.0,1.0,3.0,3.0,531.7887879999716,1.0,1.0,phase_1,,,,,,,,,,,,,blue,square
163.0,1.0,0.5,0.0,3.0,3.0,483.1762090000211,1.0,1.0,phase_1,,,,,,,,,,,,,orange,I
662.0,7.0,2.0,1.0,3.0,3.0,363.0845459999818,1.0,1.0,phase_1,,,,,,,,,,,,,magenta,diamond
186.0,5.0,0.5,1.0,1.0,1.0,349.8264780000681,1.0,1.0,phase_1,,,,,,,,,,,,,gray,triangle
167.0,5.0,0.5,1.0,1.0,1.0,391.6564300000118,1.0,1.0,phase_1,,,,,,,,,,,,,gray,triangle
0.0,1.0,0.0,0.0,2.0,2.0,457.3209730000371,2.0,1.0,phase_1,,,,,,,,,,,,,orange,I
150.0,5.0,0.5,1.0,4.0,4.0,373.2829599999832,2.0,1.0,phase_1,,,,,,,,,,,,,gray,triangle
0.0,3.0,0.0,0.0,3.0,3.0,433.997450999982,2.0,2.0,phase_1,,,,,,,,,,,,,green,cross
164.0,5.0,0.5,1.0,2.0,2.0,382.7161799999885,2.0,1.0,phase_1,,,,,,,,,,,,,gray,triangle
318.0,6.0,1.0,1.0,3.0,3.0,272.9504640000186,2.0,1.0,phase_1,,,,,,,,,,,,,blue,square
303.0,6.0,1.0,1.0,3.0,3.0,362.9415230000177,2.0,1.0,phase_1,,,,,,,,,,,,,blue,square
0.0,8.0,0.0,1.0,3.0,3.0,578.2248369999934,2.0,1.0,phase_1,,,,,,,,,,,,,white,hexagon
0.0,4.0,0.0,0.0,3.0,3.0,319.3925620000755,2.0,1.0,phase_1,,,,,,,,,,,,,cyan,circle
0.0,5.0,0.0,1.0,3.0,3.0,421.13021199998,2.0,1.0,phase_1,,,,,,,,,,,,,gray,triangle
639.0,7.0,2.0,1.0,1.0,1.0,363.6958060000097,2.0,1.0,phase_1,,,,,,,,,,,,,magenta,diamond
670.0,7.0,2.0,1.0,3.0,3.0,335.8368399999563,2.0,1.0,phase_1,,,,,,,,,,,,,magenta,diamond
1322.0,4.0,4.0,0.0,2.0,2.0,318.1173259999923,2.0,1.0,phase_1,,,,,,,,,,,,,cyan,circle
318.0,2.0,1.0,0.0,4.0,4.0,291.862933999937,2.0,1.0,phase_1,,,,,,,,,,,,,yellow,flipped triangle
141.0,1.0,0.5,0.0,4.0,4.0,410.6513649999215,2.0,1.0,phase_1,,,,,,,,,,,,,orange,I
1316.0,4.0,4.0,0.0,1.0,1.0,412.2099690000596,2.0,1.0,phase_1,,,,,,,,,,,,,cyan,circle
1314.0,8.0,4.0,1.0,1.0,1.0,366.4614770000298,2.0,1.0,phase_1,,,,,,,,,,,,,white,hexagon
333.0,2.0,1.0,0.0,3.0,3.0,318.3879669998077,2.0,1.0,phase_1,,,,,,,,,,,,,yellow,flipped triangle
303.0,2.0,1.0,0.0,1.0,1.0,347.5422690000869,2.0,1.0,phase_1,,,,,,,,,,,,,yellow,flipped triangle
1307.0,8.0,4.0,1.0,3.0,3.0,289.98543400007287,2.0,1.0,phase_1,,,,,,,,,,,,,white,hexagon
325.0,2.0,1.0,0.0,1.0,1.0,303.4678389999499,2.0,1.0,phase_1,,,,,,,,,,,,,yellow,flipped triangle
641.0,3.0,2.0,0.0,2.0,2.0,410.8737520000431,2.0,1.0,phase_1,,,,,,,,,,,,,green,cross
1279.0,8.0,4.0,1.0,3.0,3.0,393.213120999917,2.0,1.0,phase_1,,,,,,,,,,,,,white,hexagon
327.0,2.0,1.0,0.0,2.0,2.0,371.2442989999545,2.0,1.0,phase_1,,,,,,,,,,,,,yellow,flipped triangle
0.0,1.0,0.0,0.0,2.0,2.0,417.0828169999367,2.0,1.0,phase_1,,,,,,,,,,,,,orange,I
164.0,1.0,0.5,0.0,4.0,4.0,456.8041649999941,2.0,2.0,phase_1,,,,,,,,,,,,,orange,I
182.0,1.0,0.5,0.0,3.0,3.0,420.8209650000754,2.0,1.0,phase_1,,,,,,,,,,,,,orange,I
158.0,5.0,0.5,1.0,4.0,4.0,376.1304799998015,2.0,1.0,phase_1,,,,,,,,,,,,,gray,triangle
669.0,7.0,2.0,1.0,4.0,4.0,461.2887549999414,2.0,1.0,phase_1,,,,,,,,,,,,,magenta,diamond
179.0,1.0,0.5,0.0,1.0,1.0,557.3995289998948,2.0,1.0,phase_1,,,,,,,,,,,,,orange,I
339.0,6.0,1.0,1.0,4.0,4.0,409.5676560000356,2.0,1.0,phase_1,,,,,,,,,,,,,blue,square
635.0,7.0,2.0,1.0,1.0,1.0,529.4253500001105,2.0,1.0,phase_1,,,,,,,,,,,,,magenta,diamond
171.0,5.0,0.5,1.0,4.0,4.0,356.4282370000455,2.0,1.0,phase_1,,,,,,,,,,,,,gray,triangle
655.0,3.0,2.0,0.0,3.0,3.0,382.8119610000158,2.0,1.0,phase_1,,,,,,,,,,,,,green,cross
0.0,2.0,0.0,0.0,2.0,2.0,383.1381960001181,2.0,1.0,phase_1,,,,,,,,,,,,,yellow,flipped triangle
147.0,5.0,0.5,1.0,3.0,3.0,438.8248239999939,2.0,1.0,phase_1,,,,,,,,,,,,,gray,triangle
0.0,2.0,0.0,0.0,3.0,3.0,355.0699520001217,2.0,1.0,phase_1,,,,,,,,,,,,,yellow,flipped triangle
1316.0,4.0,4.0,0.0,4.0,4.0,520.8117290001155,2.0,1.0,phase_1,,,,,,,,,,,,,cyan,circle
629.0,3.0,2.0,0.0,1.0,1.0,521.1911310000232,2.0,1.0,phase_1,,,,,,,,,,,,,green,cross
0.0,6.0,0.0,1.0,1.0,1.0,464.1231660000358,2.0,1.0,phase_1,,,,,,,,,,,,,blue,square
324.0,2.0,1.0,0.0,4.0,4.0,447.9359629999635,2.0,1.0,phase_1,,,,,,,,,,,,,yellow,flipped triangle
629.0,7.0,2.0,1.0,3.0,3.0,355.5870750001304,2.0,1.0,phase_1,,,,,,,,,,,,,magenta,diamond
0.0,2.0,0.0,0.0,1.0,1.0,571.9404870001199,2.0,1.0,phase_1,,,,,,,,,,,,,yellow,flipped triangle
1302.0,8.0,4.0,1.0,4.0,4.0,363.033415000018,2.0,1.0,phase_1,,,,,,,,,,,,,white,hexagon
0.0,5.0,0.0,1.0,1.0,1.0,465.5978019998201,2.0,1.0,phase_1,,,,,,,,,,,,,gray,triangle
645.0,7.0,2.0,1.0,1.0,1.0,475.7595769999625,2.0,1.0,phase_1,,,,,,,,,,,,,magenta,diamond
650.0,3.0,2.0,0.0,2.0,2.0,633.4844380000959,2.0,1.0,phase_1,,,,,,,,,,,,,green,cross
645.0,3.0,2.0,0.0,2.0,2.0,571.3568469998336,2.0,1.0,phase_1,,,,,,,,,,,,,green,cross
146.0,1.0,0.5,0.0,2.0,2.0,383.3536089998688,2.0,1.0,phase_1,,,,,,,,,,,,,orange,I
666.0,3.0,2.0,0.0,1.0,1.0,437.4060339998777,2.0,1.0,phase_1,,,,,,,,,,,,,green,cross
1283.0,4.0,4.0,0.0,2.0,2.0,372.1525799999199,2.0,1.0,phase_1,,,,,,,,,,,,,cyan,circle
1282.0,8.0,4.0,1.0,4.0,4.0,531.9099999999253,2.0,1.0,phase_1,,,,,,,,,,,,,white,hexagon
308.0,6.0,1.0,1.0,4.0,4.0,401.9000549999418,2.0,1.0,phase_1,,,,,,,,,,,,,blue,square
163.0,5.0,0.5,1.0,2.0,2.0,470.8696819998295,2.0,1.0,phase_1,,,,,,,,,,,,,gray,triangle
1320.0,4.0,4.0,0.0,3.0,3.0,478.5560400000577,2.0,1.0,phase_1,,,,,,,,,,,,,cyan,circle
325.0,6.0,1.0,1.0,4.0,4.0,451.2256689999958,2.0,1.0,phase_1,,,,,,,,,,,,,blue,square
0.0,5.0,0.0,1.0,3.0,3.0,372.1212549999109,2.0,1.0,phase_1,,,,,,,,,,,,,gray,triangle
1293.0,4.0,4.0,0.0,1.0,1.0,566.3785070000813,2.0,1.0,phase_1,,,,,,,,,,,,,cyan,circle
166.0,5.0,0.5,1.0,2.0,2.0,415.4001929998685,2.0,1.0,phase_1,,,,,,,,,,,,,gray,triangle
0.0,8.0,0.0,1.0,2.0,2.0,457.5112029999673,2.0,2.0,phase_1,,,,,,,,,,,,,white,hexagon
335.0,6.0,1.0,1.0,2.0,2.0,358.6857289999443,2.0,1.0,phase_1,,,,,,,,,,,,,blue,square
153.0,1.0,0.5,0.0,1.0,1.0,605.8021209998969,2.0,1.0,phase_1,,,,,,,,,,,,,orange,I
1293.0,4.0,4.0,0.0,2.0,2.0,383.1649090000155,2.0,1.0,phase_1,,,,,,,,,,,,,cyan,circle
182.0,5.0,0.5,1.0,4.0,4.0,457.1811040000284,2.0,1.0,phase_1,,,,,,,,,,,,,gray,triangle
175.0,1.0,0.5,0.0,1.0,1.0,419.2859540000881,2.0,1.0,phase_1,,,,,,,,,,,,,orange,I
0.0,3.0,0.0,0.0,4.0,4.0,399.9044249999315,2.0,1.0,phase_1,,,,,,,,,,,,,green,cross
0.0,8.0,0.0,1.0,3.0,3.0,451.4866009999423,2.0,1.0,phase_1,,,,,,,,,,,,,white,hexagon
0.0,3.0,0.0,0.0,1.0,1.0,449.6702310000273,2.0,1.0,phase_1,,,,,,,,,,,,,green,cross
628.0,3.0,2.0,0.0,3.0,3.0,388.9005910000378,2.0,1.0,phase_1,,,,,,,,,,,,,green,cross
1282.0,4.0,4.0,0.0,4.0,4.0,514.5950849998826,2.0,1.0,phase_1,,,,,,,,,,,,,cyan,circle
350.0,6.0,1.0,1.0,2.0,2.0,521.7685220000021,2.0,1.0,phase_1,,,,,,,,,,,,,blue,square
322.0,6.0,1.0,1.0,4.0,4.0,354.0784799999983,2.0,1.0,phase_1,,,,,,,,,,,,,blue,square
1307.0,4.0,4.0,0.0,3.0,3.0,390.397688000121,2.0,1.0,phase_1,,,,,,,,,,,,,cyan,circle
656.0,7.0,2.0,1.0,2.0,2.0,441.0343689999081,2.0,1.0,phase_1,,,,,,,,,,,,,magenta,diamond
162.0,5.0,0.5,1.0,2.0,2.0,382.108326999969,2.0,1.0,phase_1,,,,,,,,,,,,,gray,triangle
1307.0,8.0,4.0,1.0,2.0,2.0,364.8330539999733,2.0,1.0,phase_1,,,,,,,,,,,,,white,hexagon
0.0,6.0,0.0,1.0,1.0,1.0,471.3295440001275,2.0,1.0,phase_1,,,,,,,,,,,,,blue,square
0.0,8.0,0.0,1.0,3.0,3.0,495.9078819999831,2.0,1.0,phase_1,,,,,,,,,,,,,white,hexagon
0.0,4.0,0.0,0.0,4.0,4.0,438.0979699999443,2.0,1.0,phase_1,,,,,,,,,,,,,cyan,circle
150.0,1.0,0.5,0.0,3.0,3.0,289.799222000056,2.0,1.0,phase_1,,,,,,,,,,,,,orange,I
338.0,2.0,1.0,0.0,3.0,3.0,309.5079979998445,2.0,1.0,phase_1,,,,,,,,,,,,,yellow,flipped triangle
0.0,6.0,0.0,1.0,3.0,3.0,327.2047250000014,2.0,1.0,phase_1,,,,,,,,,,,,,blue,square
329.0,6.0,1.0,1.0,1.0,1.0,439.3682070001432,2.0,1.0,phase_1,,,,,,,,,,,,,blue,square
156.0,1.0,0.5,0.0,1.0,1.0,356.1267860000043,2.0,1.0,phase_1,,,,,,,,,,,,,orange,I
0.0,4.0,0.0,0.0,2.0,2.0,456.9253689999186,2.0,1.0,phase_1,,,,,,,,,,,,,cyan,circle
652.0,7.0,2.0,1.0,3.0,3.0,317.0386460001282,2.0,1.0,phase_1,,,,,,,,,,,,,magenta,diamond
0.0,7.0,0.0,1.0,4.0,4.0,310.8343859998967,2.0,1.0,phase_1,,,,,,,,,,,,,magenta,diamond
138.0,5.0,0.5,1.0,3.0,3.0,372.0551090000299,2.0,1.0,phase_1,,,,,,,,,,,,,gray,triangle
647.0,3.0,2.0,0.0,4.0,4.0,369.8643560001073,2.0,1.0,phase_1,,,,,,,,,,,,,green,cross
665.0,3.0,2.0,0.0,4.0,4.0,446.3456710000173,2.0,1.0,phase_1,,,,,,,,,,,,,green,cross
167.0,1.0,0.5,0.0,3.0,3.0,485.5840889999854,2.0,1.0,phase_1,,,,,,,,,,,,,orange,I
146.0,5.0,0.5,1.0,2.0,2.0,690.2610629999799,2.0,1.0,phase_1,,,,,,,,,,,,,gray,triangle
150.0,5.0,0.5,1.0,3.0,3.0,446.8010430000504,2.0,1.0,phase_1,,,,,,,,,,,,,gray,triangle
661.0,7.0,2.0,1.0,4.0,4.0,456.8364149999979,2.0,1.0,phase_1,,,,,,,,,,,,,magenta,diamond
315.0,6.0,1.0,1.0,2.0,2.0,365.2083929998753,2.0,1.0,phase_1,,,,,,,,,,,,,blue,square
629.0,3.0,2.0,0.0,1.0,1.0,355.0560499998028,2.0,1.0,phase_1,,,,,,,,,,,,,green,cross
346.0,2.0,1.0,0.0,1.0,1.0,392.8557430001547,2.0,1.0,phase_1,,,,,,,,,,,,,yellow,flipped triangle
331.0,2.0,1.0,0.0,4.0,4.0,449.4748109998454,2.0,1.0,phase_1,,,,,,,,,,,,,yellow,flipped triangle
0.0,5.0,0.0,1.0,1.0,1.0,427.0163090000096,2.0,1.0,phase_1,,,,,,,,,,,,,gray,triangle
310.0,2.0,1.0,0.0,3.0,3.0,494.2078029998811,2.0,1.0,phase_1,,,,,,,,,,,,,yellow,flipped triangle
0.0,3.0,0.0,0.0,4.0,4.0,381.2978379999094,2.0,1.0,phase_1,,,,,,,,,,,,,green,cross
147.0,1.0,0.5,0.0,4.0,4.0,498.49706100008,3.0,1.0,phase_1,,,,,,,,,,,,,orange,I
647.0,7.0,2.0,1.0,2.0,2.0,541.8775549999282,3.0,1.0,phase_1,,,,,,,,,,,,,magenta,diamond
0.0,1.0,0.0,0.0,2.0,2.0,430.2848350000658,3.0,1.0,phase_1,,,,,,,,,,,,,orange,I
155.0,5.0,0.5,1.0,1.0,1.0,522.5349429999824,3.0,1.0,phase_1,,,,,,,,,,,,,gray,triangle
668.0,3.0,2.0,0.0,4.0,4.0,335.1989450000019,3.0,1.0,phase_1,,,,,,,,,,,,,green,cross
181.0,1.0,0.5,0.0,1.0,1.0,319.8778000000857,3.0,1.0,phase_1,,,,,,,,,,,,,orange,I
651.0,3.0,2.0,0.0,1.0,1.0,444.4654179999361,3.0,1.0,phase_1,,,,,,,,,,,,,green,cross
634.0,3.0,2.0,0.0,3.0,3.0,366.4652810000461,3.0,1.0,phase_1,,,,,,,,,,,,,green,cross
0.0,5.0,0.0,1.0,2.0,2.0,411.7110500001217,3.0,1.0,phase_1,,,,,,,,,,,,,gray,triangle
1304.0,8.0,4.0,1.0,3.0,3.0,374.8379759999807,3.0,1.0,phase_1,,,,,,,,,,,,,white,hexagon
643.0,3.0,2.0,0.0,2.0,2.0,385.0643490000038,3.0,1.0,phase_1,,,,,,,,,,,,,green,cross
1278.0,8.0,4.0,1.0,4.0,4.0,355.9024660000887,3.0,1.0,phase_1,,,,,,,,,,,,,white,hexagon
657.0,7.0,2.0,1.0,4.0,4.0,319.0200679998725,3.0,1.0,phase_1,,,,,,,,,,,,,magenta,diamond
653.0,7.0,2.0,1.0,1.0,1.0,372.4716350000108,3.0,2.0,phase_1,,,,,,,,,,,,,magenta,diamond
186.0,5.0,0.5,1.0,4.0,4.0,460.0776520001091,3.0,1.0,phase_1,,,,,,,,,,,,,gray,triangle
639.0,3.0,2.0,0.0,3.0,3.0,332.3313119999511,3.0,1.0,phase_1,,,,,,,,,,,,,green,cross
0.0,1.0,0.0,0.0,4.0,4.0,439.4728090001081,3.0,1.0,phase_1,,,,,,,,,,,,,orange,I
300.0,2.0,1.0,0.0,2.0,2.0,441.2322580001273,3.0,1.0,phase_1,,,,,,,,,,,,,yellow,flipped triangle
316.0,2.0,1.0,0.0,1.0,1.0,373.1010690000857,3.0,1.0,phase_1,,,,,,,,,,,,,yellow,flipped triangle
1301.0,4.0,4.0,0.0,1.0,1.0,485.6640959999367,3.0,1.0,phase_1,,,,,,,,,,,,,cyan,circle
300.0,6.0,1.0,1.0,2.0,2.0,561.6264380000757,3.0,1.0,phase_1,,,,,,,,,,,,,blue,square
163.0,5.0,0.5,1.0,2.0,2.0,353.6460830000578,3.0,1.0,phase_1,,,,,,,,,,,,,gray,triangle
0.0,6.0,0.0,1.0,4.0,4.0,419.5704680000744,3.0,1.0,phase_1,,,,,,,,,,,,,blue,square
0.0,3.0,0.0,0.0,1.0,1.0,336.3294040000255,3.0,1.0,phase_1,,,,,,,,,,,,,green,cross
184.0,1.0,0.5,0.0,4.0,4.0,458.8719529999707,3.0,2.0,phase_1,,,,,,,,,,,,,orange,I
664.0,3.0,2.0,0.0,4.0,4.0,401.4603680000164,3.0,1.0,phase_1,,,,,,,,,,,,,green,cross
339.0,2.0,1.0,0.0,2.0,2.0,513.524082999993,3.0,1.0,phase_1,,,,,,,,,,,,,yellow,flipped triangle
150.0,1.0,0.5,0.0,3.0,3.0,292.1720399999685,3.0,1.0,phase_1,,,,,,,,,,,,,orange,I
1299.0,4.0,4.0,0.0,1.0,1.0,628.9417670000148,3.0,2.0,phase_1,,,,,,,,,,,,,cyan,circle
1283.0,8.0,4.0,1.0,2.0,2.0,581.2475760001234,3.0,1.0,phase_1,,,,,,,,,,,,,white,hexagon
0.0,4.0,0.0,0.0,3.0,3.0,391.642628999989,3.0,1.0,phase_1,,,,,,,,,,,,,cyan,circle
1278.0,4.0,4.0,0.0,1.0,1.0,395.5252420000761,3.0,1.0,phase_1,,,,,,,,,,,,,cyan,circle
0.0,8.0,0.0,1.0,2.0,2.0,457.6876270000412,3.0,1.0,phase_1,,,,,,,,,,,,,white,hexagon
646.0,7.0,2.0,1.0,4.0,4.0,531.7441980000694,3.0,1.0,phase_1,,,,,,,,,,,,,magenta,diamond
160.0,1.0,0.5,0.0,3.0,3.0,484.554062999905,3.0,1.0,phase_1,,,,,,,,,,,,,orange,I
1301.0,8.0,4.0,1.0,3.0,3.0,515.1617320000241,3.0,1.0,phase_1,,,,,,,,,,,,,white,hexagon
671.0,7.0,2.0,1.0,1.0,1.0,405.4598819998318,3.0,1.0,phase_1,,,,,,,,,,,,,magenta,diamond
1319.0,4.0,4.0,0.0,3.0,3.0,401.2695839999196,3.0,1.0,phase_1,,,,,,,,,,,,,cyan,circle
179.0,1.0,0.5,0.0,1.0,1.0,393.8363070001287,3.0,1.0,phase_1,,,,,,,,,,,,,orange,I
329.0,2.0,1.0,0.0,2.0,2.0,517.386973000157,3.0,1.0,phase_1,,,,,,,,,,,,,yellow,flipped triangle
1318.0,8.0,4.0,1.0,3.0,3.0,383.875099000079,3.0,1.0,phase_1,,,,,,,,,,,,,white,hexagon
180.0,1.0,0.5,0.0,2.0,2.0,364.3560539999271,3.0,1.0,phase_1,,,,,,,,,,,,,orange,I
1318.0,8.0,4.0,1.0,4.0,4.0,337.3653979999744,3.0,1.0,phase_1,,,,,,,,,,,,,white,hexagon
1295.0,8.0,4.0,1.0,3.0,3.0,374.2169419999754,3.0,1.0,phase_1,,,,,,,,,,,,,white,hexagon
160.0,5.0,0.5,1.0,2.0,2.0,438.9858980000554,3.0,1.0,phase_1,,,,,,,,,,,,,gray,triangle
162.0,1.0,0.5,0.0,2.0,2.0,410.9831609998764,3.0,1.0,phase_1,,,,,,,,,,,,,orange,I
1279.0,4.0,4.0,0.0,4.0,4.0,469.7819499999696,3.0,1.0,phase_1,,,,,,,,,,,,,cyan,circle
177.0,5.0,0.5,1.0,4.0,4.0,530.5530950001867,3.0,1.0,phase_1,,,,,,,,,,,,,gray,triangle
138.0,1.0,0.5,0.0,3.0,3.0,431.5715750001345,3.0,1.0,phase_1,,,,,,,,,,,,,orange,I
146.0,5.0,0.5,1.0,1.0,1.0,383.172107000064,3.0,1.0,phase_1,,,,,,,,,,,,,gray,triangle
306.0,6.0,1.0,1.0,2.0,2.0,402.3369190001631,3.0,1.0,phase_1,,,,,,,,,,,,,blue,square
349.0,2.0,1.0,0.0,3.0,3.0,498.5649390000617,3.0,1.0,phase_1,,,,,,,,,,,,,yellow,flipped triangle
0.0,1.0,0.0,0.0,4.0,4.0,481.5045750001445,3.0,1.0,phase_1,,,,,,,,,,,,,orange,I
0.0,7.0,0.0,1.0,1.0,1.0,396.6035199998714,3.0,1.0,phase_1,,,,,,,,,,,,,magenta,diamond
0.0,7.0,0.0,1.0,1.0,1.0,411.7749789998015,3.0,1.0,phase_1,,,,,,,,,,,,,magenta,diamond
338.0,6.0,1.0,1.0,1.0,1.0,402.0560610001666,3.0,1.0,phase_1,,,,,,,,,,,,,blue,square
316.0,6.0,1.0,1.0,3.0,3.0,430.53010299991,3.0,1.0,phase_1,,,,,,,,,,,,,blue,square
306.0,2.0,1.0,0.0,4.0,4.0,355.2190200000495,3.0,1.0,phase_1,,,,,,,,,,,,,yellow,flipped triangle
0.0,8.0,0.0,1.0,4.0,4.0,404.1498120000142,3.0,1.0,phase_1,,,,,,,,,,,,,white,hexagon
158.0,1.0,0.5,0.0,4.0,4.0,413.5206230000676,3.0,1.0,phase_1,,,,,,,,,,,,,orange,I
0.0,6.0,0.0,1.0,2.0,2.0,448.8011130001723,3.0,1.0,phase_1,,,,,,,,,,,,,blue,square
1316.0,8.0,4.0,1.0,1.0,1.0,494.3420639999658,3.0,1.0,phase_1,,,,,,,,,,,,,white,hexagon
143.0,1.0,0.5,0.0,2.0,2.0,414.9475269998675,3.0,1.0,phase_1,,,,,,,,,,,,,orange,I
1313.0,4.0,4.0,0.0,4.0,4.0,413.0778520000149,3.0,1.0,phase_1,,,,,,,,,,,,,cyan,circle
310.0,6.0,1.0,1.0,1.0,1.0,460.627397999815,3.0,1.0,phase_1,,,,,,,,,,,,,blue,square
1289.0,8.0,4.0,1.0,3.0,3.0,374.719991999882,3.0,1.0,phase_1,,,,,,,,,,,,,white,hexagon
306.0,6.0,1.0,1.0,3.0,3.0,379.8489289999907,3.0,1.0,phase_1,,,,,,,,,,,,,blue,square
675.0,3.0,2.0,0.0,2.0,2.0,504.6295019999434,3.0,1.0,phase_1,,,,,,,,,,,,,green,cross
350.0,2.0,1.0,0.0,2.0,2.0,355.1868309998554,3.0,1.0,phase_1,,,,,,,,,,,,,yellow,flipped triangle
322.0,2.0,1.0,0.0,3.0,3.0,322.3828190000404,3.0,1.0,phase_1,,,,,,,,,,,,,yellow,flipped triangle
1279.0,4.0,4.0,0.0,4.0,4.0,414.3377640000381,3.0,1.0,phase_1,,,,,,,,,,,,,cyan,circle
1319.0,8.0,4.0,1.0,2.0,2.0,540.8072969999012,3.0,2.0,phase_1,,,,,,,,,,,,,white,hexagon
306.0,6.0,1.0,1.0,1.0,1.0,467.6165769999443,3.0,1.0,phase_1,,,,,,,,,,,,,blue,square
0.0,4.0,0.0,0.0,4.0,4.0,522.699872999965,3.0,1.0,phase_1,,,,,,,,,,,,,cyan,circle
0.0,2.0,0.0,0.0,4.0,4.0,412.3877330000596,3.0,1.0,phase_1,,,,,,,,,,,,,yellow,flipped triangle
1280.0,8.0,4.0,1.0,2.0,2.0,474.6849479997763,3.0,1.0,phase_1,,,,,,,,,,,,,white,hexagon
1320.0,8.0,4.0,1.0,1.0,1.0,561.1375670000598,3.0,1.0,phase_1,,,,,,,,,,,,,white,hexagon
1320.0,8.0,4.0,1.0,4.0,4.0,488.9746629999081,3.0,1.0,phase_1,,,,,,,,,,,,,white,hexagon
0.0,3.0,0.0,0.0,3.0,3.0,419.8827249999795,3.0,1.0,phase_1,,,,,,,,,,,,,green,cross
301.0,2.0,1.0,0.0,3.0,3.0,367.149487000006,3.0,1.0,phase_1,,,,,,,,,,,,,yellow,flipped triangle
1310.0,8.0,4.0,1.0,3.0,3.0,366.9832059999862,3.0,1.0,phase_1,,,,,,,,,,,,,white,hexagon
306.0,2.0,1.0,0.0,1.0,1.0,643.6274090001461,3.0,1.0,phase_1,,,,,,,,,,,,,yellow,flipped triangle
669.0,3.0,2.0,0.0,3.0,3.0,366.9966000002205,3.0,1.0,phase_1,,,,,,,,,,,,,green,cross
671.0,3.0,2.0,0.0,2.0,2.0,494.445985999846,3.0,1.0,phase_1,,,,,,,,,,,,,green,cross
657.0,3.0,2.0,0.0,4.0,4.0,411.7545619999418,3.0,1.0,phase_1,,,,,,,,,,,,,green,cross
1304.0,4.0,4.0,0.0,3.0,3.0,366.9820620000337,3.0,1.0,phase_1,,,,,,,,,,,,,cyan,circle
0.0,8.0,0.0,1.0,1.0,1.0,366.1646000000473,3.0,1.0,phase_1,,,,,,,,,,,,,white,hexagon
163.0,1.0,0.5,0.0,1.0,1.0,485.5171259998769,3.0,1.0,phase_1,,,,,,,,,,,,,orange,I
143.0,5.0,0.5,1.0,2.0,2.0,448.362244000009,3.0,1.0,phase_1,,,,,,,,,,,,,gray,triangle
0.0,6.0,0.0,1.0,2.0,2.0,570.955658999992,3.0,1.0,phase_1,,,,,,,,,,,,,blue,square
0.0,2.0,0.0,0.0,2.0,2.0,422.1304840000357,3.0,1.0,phase_1,,,,,,,,,,,,,yellow,flipped triangle
1296.0,4.0,4.0,0.0,2.0,2.0,356.9320429999152,3.0,1.0,phase_1,,,,,,,,,,,,,cyan,circle
327.0,6.0,1.0,1.0,2.0,2.0,345.224786000017,3.0,1.0,phase_1,,,,,,,,,,,,,blue,square
0.0,7.0,0.0,1.0,4.0,4.0,502.9359929999373,3.0,1.0,phase_1,,,,,,,,,,,,,magenta,diamond
338.0,6.0,1.0,1.0,4.0,4.0,411.7914769999515,3.0,1.0,phase_1,,,,,,,,,,,,,blue,square
1311.0,8.0,4.0,1.0,1.0,1.0,512.793739000017,3.0,1.0,phase_1,,,,,,,,,,,,,white,hexagon
344.0,2.0,1.0,0.0,4.0,4.0,385.4374959998949,3.0,1.0,phase_1,,,,,,,,,,,,,yellow,flipped triangle
338.0,6.0,1.0,1.0,1.0,1.0,394.5286329999362,3.0,1.0,phase_1,,,,,,,,,,,,,blue,square
0.0,7.0,0.0,1.0,3.0,3.0,540.8012370000961,3.0,1.0,phase_1,,,,,,,,,,,,,magenta,diamond
670.0,3.0,2.0,0.0,3.0,3.0,384.1446490000635,3.0,1.0,phase_1,,,,,,,,,,,,,green,cross
1318.0,4.0,4.0,0.0,2.0,2.0,542.5446340000235,4.0,1.0,phase_1,,,,,,,,,,,,,cyan,circle
0.0,8.0,0.0,1.0,3.0,3.0,358.2877119999921,4.0,1.0,phase_1,,,,,,,,,,,,,white,hexagon
1311.0,8.0,4.0,1.0,2.0,2.0,358.5826529999849,4.0,1.0,phase_1,,,,,,,,,,,,,white,hexagon
1287.0,8.0,4.0,1.0,1.0,1.0,776.3477170001352,4.0,1.0,phase_1,,,,,,,,,,,,,white,hexagon
173.0,5.0,0.5,1.0,2.0,2.0,409.0879909999785,4.0,1.0,phase_1,,,,,,,,,,,,,gray,triangle
1283.0,4.0,4.0,0.0,3.0,3.0,355.6761669999559,4.0,1.0,phase_1,,,,,,,,,,,,,cyan,circle
0.0,3.0,0.0,0.0,2.0,2.0,504.538722999996,4.0,1.0,phase_1,,,,,,,,,,,,,green,cross
1284.0,4.0,4.0,0.0,4.0,4.0,428.5897120000754,4.0,1.0,phase_1,,,,,,,,,,,,,cyan,circle
667.0,3.0,2.0,0.0,1.0,1.0,411.2259680000534,4.0,1.0,phase_1,,,,,,,,,,,,,green,cross
1310.0,4.0,4.0,0.0,2.0,2.0,449.7142160000749,4.0,1.0,phase_1,,,,,,,,,,,,,cyan,circle
337.0,6.0,1.0,1.0,4.0,4.0,413.2023910001408,4.0,1.0,phase_1,,,,,,,,,,,,,blue,square
138.0,5.0,0.5,1.0,3.0,3.0,413.3697130000655,4.0,1.0,phase_1,,,,,,,,,,,,,gray,triangle
1295.0,4.0,4.0,0.0,1.0,1.0,507.3463010000978,4.0,1.0,phase_1,,,,,,,,,,,,,cyan,circle
155.0,1.0,0.5,0.0,4.0,4.0,402.5988839998717,4.0,1.0,phase_1,,,,,,,,,,,,,orange,I
153.0,1.0,0.5,0.0,3.0,3.0,328.4436750000168,4.0,1.0,phase_1,,,,,,,,,,,,,orange,I
649.0,3.0,2.0,0.0,4.0,4.0,336.190514000009,4.0,1.0,phase_1,,,,,,,,,,,,,green,cross
671.0,3.0,2.0,0.0,4.0,4.0,327.3985549999452,4.0,1.0,phase_1,,,,,,,,,,,,,green,cross
166.0,1.0,0.5,0.0,2.0,2.0,373.931624999841,4.0,1.0,phase_1,,,,,,,,,,,,,orange,I
1318.0,4.0,4.0,0.0,3.0,3.0,272.1187600000121,4.0,1.0,phase_1,,,,,,,,,,,,,cyan,circle
655.0,3.0,2.0,0.0,1.0,1.0,345.0595629999498,4.0,1.0,phase_1,,,,,,,,,,,,,green,cross
343.0,6.0,1.0,1.0,3.0,3.0,281.1578000000736,4.0,1.0,phase_1,,,,,,,,,,,,,blue,square
0.0,6.0,0.0,1.0,4.0,4.0,335.2118479999717,4.0,1.0,phase_1,,,,,,,,,,,,,blue,square
310.0,2.0,1.0,0.0,2.0,2.0,431.3694770000893,4.0,1.0,phase_1,,,,,,,,,,,,,yellow,flipped triangle
629.0,7.0,2.0,1.0,3.0,3.0,404.0964030000396,4.0,1.0,phase_1,,,,,,,,,,,,,magenta,diamond
186.0,1.0,0.5,0.0,4.0,4.0,393.6419509998359,4.0,1.0,phase_1,,,,,,,,,,,,,orange,I
631.0,7.0,2.0,1.0,1.0,1.0,477.8838189999987,4.0,1.0,phase_1,,,,,,,,,,,,,magenta,diamond
1311.0,4.0,4.0,0.0,1.0,1.0,459.2674630000601,4.0,1.0,phase_1,,,,,,,,,,,,,cyan,circle
633.0,7.0,2.0,1.0,1.0,1.0,423.9722849999907,4.0,1.0,phase_1,,,,,,,,,,,,,magenta,diamond
153.0,5.0,0.5,1.0,4.0,4.0,354.8317170000246,4.0,1.0,phase_1,,,,,,,,,,,,,gray,triangle
666.0,7.0,2.0,1.0,1.0,1.0,440.0544889999764,4.0,1.0,phase_1,,,,,,,,,,,,,magenta,diamond
0.0,4.0,0.0,0.0,2.0,2.0,667.5229350000791,4.0,1.0,phase_1,,,,,,,,,,,,,cyan,circle
0.0,5.0,0.0,1.0,4.0,4.0,397.2970359998271,4.0,1.0,phase_1,,,,,,,,,,,,,gray,triangle
1286.0,4.0,4.0,0.0,2.0,2.0,307.8350889998091,4.0,1.0,phase_1,,,,,,,,,,,,,cyan,circle
0.0,1.0,0.0,0.0,2.0,2.0,354.7398509999766,4.0,1.0,phase_1,,,,,,,,,,,,,orange,I
1283.0,8.0,4.0,1.0,4.0,4.0,374.5072560000153,4.0,1.0,phase_1,,,,,,,,,,,,,white,hexagon
0.0,6.0,0.0,1.0,3.0,3.0,451.0875850000957,4.0,1.0,phase_1,,,,,,,,,,,,,blue,square
0.0,3.0,0.0,0.0,2.0,2.0,395.7805469999584,4.0,1.0,phase_1,,,,,,,,,,,,,green,cross
627.0,3.0,2.0,0.0,2.0,2.0,420.2279720000206,4.0,2.0,phase_1,,,,,,,,,,,,,green,cross
301.0,6.0,1.0,1.0,2.0,2.0,385.3069910001068,4.0,1.0,phase_1,,,,,,,,,,,,,blue,square
653.0,3.0,2.0,0.0,2.0,2.0,346.5565799999694,4.0,1.0,phase_1,,,,,,,,,,,,,green,cross
668.0,7.0,2.0,1.0,2.0,2.0,434.9547199999506,4.0,1.0,phase_1,,,,,,,,,,,,,magenta,diamond
158.0,1.0,0.5,0.0,3.0,3.0,411.2901290000081,4.0,1.0,phase_1,,,,,,,,,,,,,orange,I
667.0,7.0,2.0,1.0,2.0,2.0,364.3211799999335,4.0,1.0,phase_1,,,,,,,,,,,,,magenta,diamond
0.0,5.0,0.0,1.0,2.0,2.0,421.5589369998724,4.0,1.0,phase_1,,,,,,,,,,,,,gray,triangle
655.0,7.0,2.0,1.0,2.0,2.0,385.5196509998677,4.0,1.0,phase_1,,,,,,,,,,,,,magenta,diamond
0.0,5.0,0.0,1.0,2.0,2.0,335.6877139999596,4.0,1.0,phase_1,,,,,,,,,,,,,gray,triangle
1279.0,8.0,4.0,1.0,1.0,1.0,476.2368310000511,4.0,1.0,phase_1,,,,,,,,,,,,,white,hexagon
140.0,1.0,0.5,0.0,4.0,4.0,471.3719239998681,4.0,1.0,phase_1,,,,,,,,,,,,,orange,I
0.0,4.0,0.0,0.0,4.0,4.0,515.1296139999886,4.0,1.0,phase_1,,,,,,,,,,,,,cyan,circle
306.0,2.0,1.0,0.0,3.0,3.0,352.3391369999444,4.0,1.0,phase_1,,,,,,,,,,,,,yellow,flipped triangle
1279.0,8.0,4.0,1.0,3.0,3.0,364.9170280000362,4.0,1.0,phase_1,,,,,,,,,,,,,white,hexagon
324.0,6.0,1.0,1.0,1.0,1.0,458.1430419998469,4.0,1.0,phase_1,,,,,,,,,,,,,blue,square
1322.0,4.0,4.0,0.0,1.0,1.0,404.3773589999091,4.0,1.0,phase_1,,,,,,,,,,,,,cyan,circle
647.0,3.0,2.0,0.0,1.0,1.0,384.8836949998713,4.0,1.0,phase_1,,,,,,,,,,,,,green,cross
633.0,3.0,2.0,0.0,3.0,3.0,373.6008099999708,4.0,1.0,phase_1,,,,,,,,,,,,,green,cross
1296.0,4.0,4.0,0.0,3.0,3.0,375.3410319998238,4.0,1.0,phase_1,,,,,,,,,,,,,cyan,circle
0.0,5.0,0.0,1.0,1.0,1.0,375.7548959999894,4.0,1.0,phase_1,,,,,,,,,,,,,gray,triangle
318.0,6.0,1.0,1.0,3.0,3.0,261.5919259999373,4.0,1.0,phase_1,,,,,,,,,,,,,blue,square
0.0,1.0,0.0,0.0,3.0,3.0,309.5484010000291,4.0,1.0,phase_1,,,,,,,,,,,,,orange,I
170.0,5.0,0.5,1.0,1.0,1.0,365.5991939999694,4.0,1.0,phase_1,,,,,,,,,,,,,gray,triangle
1299.0,8.0,4.0,1.0,2.0,2.0,718.7436560000151,4.0,2.0,phase_1,,,,,,,,,,,,,white,hexagon
1320.0,4.0,4.0,0.0,4.0,4.0,791.9176089999382,4.0,1.0,phase_1,,,,,,,,,,,,,cyan,circle
303.0,6.0,1.0,1.0,1.0,1.0,530.1217860001088,4.0,1.0,phase_1,,,,,,,,,,,,,blue,square
655.0,7.0,2.0,1.0,4.0,4.0,513.2791940000061,4.0,1.0,phase_1,,,,,,,,,,,,,magenta,diamond
348.0,2.0,1.0,0.0,2.0,2.0,531.4157089999298,4.0,1.0,phase_1,,,,,,,,,,,,,yellow,flipped triangle
170.0,1.0,0.5,0.0,2.0,2.0,692.7556450000338,4.0,1.0,phase_1,,,,,,,,,,,,,orange,I
338.0,2.0,1.0,0.0,3.0,3.0,504.0813699999944,4.0,1.0,phase_1,,,,,,,,,,,,,yellow,flipped triangle
1307.0,4.0,4.0,0.0,4.0,4.0,495.3217699999186,4.0,1.0,phase_1,,,,,,,,,,,,,cyan,circle
338.0,2.0,1.0,0.0,2.0,2.0,383.4375459998682,4.0,1.0,phase_1,,,,,,,,,,,,,yellow,flipped triangle
645.0,3.0,2.0,0.0,3.0,3.0,392.4680290001561,4.0,1.0,phase_1,,,,,,,,,,,,,green,cross
1279.0,4.0,4.0,0.0,3.0,3.0,343.3702859999812,4.0,1.0,phase_1,,,,,,,,,,,,,cyan,circle
303.0,2.0,1.0,0.0,4.0,4.0,487.2149050002008,4.0,1.0,phase_1,,,,,,,,,,,,,yellow,flipped triangle
1283.0,8.0,4.0,1.0,4.0,4.0,366.2302100001398,4.0,1.0,phase_1,,,,,,,,,,,,,white,hexagon
0.0,2.0,0.0,0.0,3.0,3.0,344.3515730000399,4.0,1.0,phase_1,,,,,,,,,,,,,yellow,flipped triangle
308.0,2.0,1.0,0.0,2.0,2.0,448.2795789999727,4.0,1.0,phase_1,,,,,,,,,,,,,yellow,flipped triangle
323.0,2.0,1.0,0.0,4.0,4.0,440.8066779999444,4.0,1.0,phase_1,,,,,,,,,,,,,yellow,flipped triangle
156.0,1.0,0.5,0.0,1.0,1.0,421.0890049998852,4.0,1.0,phase_1,,,,,,,,,,,,,orange,I
0.0,2.0,0.0,0.0,2.0,2.0,458.9640029998918,4.0,1.0,phase_1,,,,,,,,,,,,,yellow,flipped triangle
655.0,3.0,2.0,0.0,1.0,1.0,389.6579520001069,4.0,1.0,phase_1,,,,,,,,,,,,,green,cross
153.0,5.0,0.5,1.0,3.0,3.0,408.0468020001717,4.0,1.0,phase_1,,,,,,,,,,,,,gray,triangle
0.0,7.0,0.0,1.0,2.0,2.0,364.8115040000448,4.0,1.0,phase_1,,,,,,,,,,,,,magenta,diamond
664.0,7.0,2.0,1.0,2.0,2.0,362.5641839998934,4.0,1.0,phase_1,,,,,,,,,,,,,magenta,diamond
343.0,2.0,1.0,0.0,3.0,3.0,484.1263440000602,4.0,1.0,phase_1,,,,,,,,,,,,,yellow,flipped triangle
0.0,8.0,0.0,1.0,2.0,2.0,316.4552799999001,4.0,1.0,phase_1,,,,,,,,,,,,,white,hexagon
632.0,3.0,2.0,0.0,4.0,4.0,477.9109629998856,4.0,1.0,phase_1,,,,,,,,,,,,,green,cross
647.0,7.0,2.0,1.0,3.0,3.0,372.602777000111,4.0,1.0,phase_1,,,,,,,,,,,,,magenta,diamond
1280.0,4.0,4.0,0.0,2.0,2.0,269.4891330002065,4.0,1.0,phase_1,,,,,,,,,,,,,cyan,circle
312.0,6.0,1.0,1.0,3.0,3.0,307.9699790000632,4.0,1.0,phase_1,,,,,,,,,,,,,blue,square
1316.0,8.0,4.0,1.0,2.0,2.0,300.3682089999984,4.0,1.0,phase_1,,,,,,,,,,,,,white,hexagon
632.0,7.0,2.0,1.0,4.0,4.0,429.0135080000254,4.0,1.0,phase_1,,,,,,,,,,,,,magenta,diamond
186.0,1.0,0.5,0.0,2.0,2.0,541.4555229999678,4.0,1.0,phase_1,,,,,,,,,,,,,orange,I
628.0,7.0,2.0,1.0,1.0,1.0,541.4515190000202,4.0,1.0,phase_1,,,,,,,,,,,,,magenta,diamond
0.0,1.0,0.0,0.0,1.0,1.0,391.5370740000981,4.0,1.0,phase_1,,,,,,,,,,,,,orange,I
1289.0,4.0,4.0,0.0,4.0,4.0,475.697953000008,4.0,1.0,phase_1,,,,,,,,,,,,,cyan,circle
0.0,1.0,0.0,0.0,1.0,1.0,374.5645510000486,4.0,1.0,phase_1,,,,,,,,,,,,,orange,I
649.0,7.0,2.0,1.0,2.0,2.0,354.2132309999033,4.0,1.0,phase_1,,,,,,,,,,,,,magenta,diamond
665.0,7.0,2.0,1.0,2.0,2.0,336.7252749999352,4.0,1.0,phase_1,,,,,,,,,,,,,magenta,diamond
1314.0,4.0,4.0,0.0,2.0,2.0,327.5761800000509,4.0,1.0,phase_1,,,,,,,,,,,,,cyan,circle
318.0,2.0,1.0,0.0,4.0,4.0,381.8396399999528,4.0,1.0,phase_1,,,,,,,,,,,,,yellow,flipped triangle
661.0,3.0,2.0,0.0,3.0,3.0,326.0564400000021,4.0,1.0,phase_1,,,,,,,,,,,,,green,cross
0.0,1.0,0.5,0.0,5.0,5.0,495.7256839998081,1.0,1.0,phase_2,go,250.0,250.0,1.0,,,,,,,,,orange,I
0.0,8.0,4.0,1.0,6.0,6.0,456.6290239999944,1.0,1.0,phase_2,go,250.0,250.0,1.0,,,,,,,,,white,hexagon
0.0,8.0,4.0,1.0,5.0,0.0,0.0,1.0,1.0,phase_2,stop,250.0,250.0,4.0,,,,,,,,,white,hexagon
0.0,1.0,0.5,0.0,6.0,6.0,881.2066020000202,1.0,1.0,phase_2,go,300.0,250.0,1.0,,,,,,,,,orange,I
0.0,1.0,0.5,0.0,5.0,5.0,779.6930659999362,1.0,1.0,phase_2,go,300.0,250.0,1.0,,,,,,,,,orange,I
0.0,8.0,4.0,1.0,6.0,0.0,0.0,1.0,1.0,phase_2,stop,300.0,250.0,4.0,,,,,,,,,white,hexagon
0.0,2.0,1.0,0.0,6.0,6.0,889.4627309998668,1.0,1.0,phase_2,go,300.0,300.0,1.0,,,,,,,,,yellow,flipped triangle
0.0,3.0,2.0,0.0,6.0,6.0,817.0800259999851,1.0,1.0,phase_2,go,300.0,300.0,1.0,,,,,,,,,green,cross
0.0,3.0,2.0,0.0,6.0,6.0,784.2247229996246,1.0,1.0,phase_2,go,300.0,300.0,1.0,,,,,,,,,green,cross
0.0,3.0,2.0,0.0,5.0,5.0,1090.1596769999742,1.0,1.0,phase_2,go,300.0,300.0,1.0,,,,,,,,,green,cross
0.0,8.0,4.0,1.0,6.0,0.0,0.0,1.0,1.0,phase_2,stop,300.0,300.0,4.0,,,,,,,,,white,hexagon
0.0,4.0,4.0,0.0,5.0,5.0,780.0783729999239,1.0,1.0,phase_2,go,300.0,350.0,1.0,,,,,,,,,cyan,circle
0.0,6.0,1.0,1.0,5.0,0.0,0.0,1.0,1.0,phase_2,stop,300.0,350.0,4.0,,,,,,,,,blue,square
0.0,7.0,2.0,1.0,5.0,5.0,795.847712000068,1.0,1.0,phase_2,go,350.0,350.0,1.0,,,,,,,,,magenta,diamond
0.0,4.0,4.0,0.0,6.0,6.0,881.5550469998925,1.0,1.0,phase_2,go,350.0,350.0,1.0,,,,,,,,,cyan,circle
0.0,8.0,4.0,1.0,5.0,0.0,0.0,1.0,1.0,phase_2,stop,350.0,350.0,4.0,,,,,,,,,white,hexagon
0.0,3.0,2.0,0.0,6.0,6.0,967.2918070000378,1.0,1.0,phase_2,go,400.0,350.0,1.0,,,,,,,,,green,cross
0.0,5.0,0.5,1.0,5.0,0.0,0.0,1.0,1.0,phase_2,stop,400.0,350.0,4.0,,,,,,,,,gray,triangle
0.0,6.0,1.0,1.0,5.0,5.0,742.2332979999737,1.0,1.0,phase_2,go,450.0,350.0,1.0,,,,,,,,,blue,square
0.0,3.0,2.0,0.0,5.0,5.0,831.1353650001365,1.0,1.0,phase_2,go,450.0,350.0,1.0,,,,,,,,,green,cross
0.0,6.0,1.0,1.0,5.0,0.0,0.0,1.0,1.0,phase_2,stop,450.0,350.0,4.0,,,,,,,,,blue,square
0.0,5.0,0.5,1.0,5.0,5.0,639.8189229998934,1.0,1.0,phase_2,stop,500.0,350.0,3.0,,,,,,,,,gray,triangle
0.0,1.0,0.5,0.0,6.0,6.0,697.9625160001888,1.0,1.0,phase_2,go,450.0,350.0,1.0,,,,,,,,,orange,I
0.0,4.0,4.0,0.0,5.0,5.0,881.9331609997789,1.0,1.0,phase_2,go,450.0,350.0,1.0,,,,,,,,,cyan,circle
0.0,3.0,2.0,0.0,5.0,5.0,827.364784999645,1.0,1.0,phase_2,go,450.0,350.0,1.0,,,,,,,,,green,cross
0.0,7.0,2.0,1.0,6.0,0.0,0.0,1.0,1.0,phase_2,stop,450.0,350.0,4.0,,,,,,,,,magenta,diamond
0.0,8.0,4.0,1.0,6.0,0.0,0.0,1.0,1.0,phase_2,stop,450.0,400.0,4.0,,,,,,,,,white,hexagon
0.0,8.0,4.0,1.0,6.0,0.0,0.0,1.0,1.0,phase_2,stop,450.0,450.0,4.0,,,,,,,,,white,hexagon
0.0,3.0,2.0,0.0,5.0,5.0,858.4587139998803,1.0,1.0,phase_2,go,450.0,500.0,1.0,,,,,,,,,green,cross
0.0,8.0,4.0,1.0,6.0,6.0,971.9575810004244,1.0,1.0,phase_2,go,450.0,500.0,1.0,,,,,,,,,white,hexagon
0.0,5.0,0.5,1.0,6.0,6.0,385.1435130000027,1.0,1.0,phase_2,go,450.0,500.0,1.0,,,,,,,,,gray,triangle
0.0,7.0,2.0,1.0,5.0,0.0,0.0,1.0,1.0,phase_2,stop,450.0,500.0,4.0,,,,,,,,,magenta,diamond
0.0,3.0,2.0,0.0,6.0,6.0,843.5463079999863,1.0,1.0,phase_2,go,500.0,500.0,1.0,,,,,,,,,green,cross
0.0,4.0,4.0,0.0,6.0,6.0,940.0230000001102,1.0,1.0,phase_2,go,500.0,500.0,1.0,,,,,,,,,cyan,circle
0.0,3.0,2.0,0.0,5.0,5.0,965.8920560000296,1.0,1.0,phase_2,go,500.0,500.0,1.0,,,,,,,,,green,cross
0.0,5.0,0.5,1.0,5.0,5.0,695.8997760002603,1.0,1.0,phase_2,stop,500.0,500.0,3.0,,,,,,,,,gray,triangle
0.0,7.0,2.0,1.0,5.0,0.0,0.0,2.0,1.0,phase_2,stop,450.0,500.0,4.0,,,,,,,,,magenta,diamond
0.0,5.0,0.5,1.0,6.0,6.0,488.2849430000533,2.0,1.0,phase_2,go,500.0,500.0,1.0,,,,,,,,,gray,triangle
0.0,1.0,0.5,0.0,5.0,5.0,988.5974429998896,2.0,1.0,phase_2,go,500.0,500.0,1.0,,,,,,,,,orange,I
0.0,7.0,2.0,1.0,5.0,5.0,703.9206210001794,2.0,1.0,phase_2,go,500.0,500.0,1.0,,,,,,,,,magenta,diamond
0.0,8.0,4.0,1.0,5.0,5.0,576.5353140000116,2.0,1.0,phase_2,stop,500.0,500.0,3.0,,,,,,,,,white,hexagon
0.0,8.0,4.0,1.0,5.0,0.0,0.0,2.0,1.0,phase_2,stop,450.0,500.0,4.0,,,,,,,,,white,hexagon
0.0,3.0,2.0,0.0,5.0,5.0,946.119436999652,2.0,1.0,phase_2,go,500.0,500.0,1.0,,,,,,,,,green,cross
0.0,2.0,1.0,0.0,5.0,5.0,854.9127490000501,2.0,1.0,phase_2,go,500.0,500.0,1.0,,,,,,,,,yellow,flipped triangle
0.0,4.0,4.0,0.0,6.0,6.0,777.7411389997724,2.0,1.0,phase_2,go,500.0,500.0,1.0,,,,,,,,,cyan,circle
0.0,5.0,0.5,1.0,6.0,0.0,0.0,2.0,1.0,phase_2,stop,500.0,500.0,4.0,,,,,,,,,gray,triangle
0.0,4.0,4.0,0.0,5.0,5.0,978.580987999976,2.0,1.0,phase_2,go,500.0,550.0,1.0,,,,,,,,,cyan,circle
0.0,8.0,4.0,1.0,6.0,0.0,0.0,2.0,1.0,phase_2,stop,500.0,550.0,4.0,,,,,,,,,white,hexagon
0.0,5.0,0.5,1.0,5.0,0.0,0.0,2.0,1.0,phase_2,stop,500.0,600.0,4.0,,,,,,,,,gray,triangle
0.0,1.0,0.5,0.0,5.0,5.0,712.7293940002346,2.0,1.0,phase_2,go,550.0,600.0,1.0,,,,,,,,,orange,I
0.0,7.0,2.0,1.0,6.0,6.0,674.0001139996821,2.0,1.0,phase_2,stop,550.0,600.0,3.0,,,,,,,,,magenta,diamond
0.0,2.0,1.0,0.0,5.0,5.0,1320.2514330000668,2.0,1.0,phase_2,go,550.0,550.0,1.0,,,,,,,,,yellow,flipped triangle
0.0,4.0,4.0,0.0,6.0,6.0,811.091604000012,2.0,1.0,phase_2,go,550.0,550.0,1.0,,,,,,,,,cyan,circle
0.0,5.0,0.5,1.0,6.0,6.0,468.4458830001858,2.0,1.0,phase_2,stop,550.0,550.0,3.0,,,,,,,,,gray,triangle
0.0,6.0,1.0,1.0,6.0,6.0,828.6760040000445,2.0,1.0,phase_2,go,550.0,500.0,1.0,,,,,,,,,blue,square
0.0,6.0,1.0,1.0,5.0,5.0,687.52689799976,2.0,1.0,phase_2,stop,550.0,500.0,3.0,,,,,,,,,blue,square
0.0,5.0,0.5,1.0,6.0,0.0,0.0,2.0,1.0,phase_2,stop,500.0,500.0,4.0,,,,,,,,,gray,triangle
0.0,8.0,4.0,1.0,6.0,6.0,782.0490750000317,2.0,1.0,phase_2,go,500.0,550.0,1.0,,,,,,,,,white,hexagon
0.0,3.0,2.0,0.0,6.0,6.0,918.0635220000112,2.0,1.0,phase_2,go,500.0,550.0,1.0,,,,,,,,,green,cross
0.0,4.0,4.0,0.0,6.0,6.0,695.5527549998806,2.0,1.0,phase_2,go,500.0,550.0,1.0,,,,,,,,,cyan,circle
0.0,7.0,2.0,1.0,6.0,6.0,666.6545440002665,2.0,1.0,phase_2,go,500.0,550.0,1.0,,,,,,,,,magenta,diamond
0.0,7.0,2.0,1.0,6.0,6.0,683.1923159998041,2.0,1.0,phase_2,go,500.0,550.0,1.0,,,,,,,,,magenta,diamond
0.0,8.0,4.0,1.0,6.0,6.0,604.9498190000122,2.0,1.0,phase_2,stop,500.0,550.0,3.0,,,,,,,,,white,hexagon
0.0,3.0,2.0,0.0,6.0,6.0,795.7179629997881,2.0,1.0,phase_2,go,500.0,500.0,1.0,,,,,,,,,green,cross
0.0,2.0,1.0,0.0,6.0,6.0,805.7440819998192,2.0,1.0,phase_2,go,500.0,500.0,1.0,,,,,,,,,yellow,flipped triangle
0.0,4.0,4.0,0.0,6.0,6.0,940.3592270000444,2.0,1.0,phase_2,go,500.0,500.0,1.0,,,,,,,,,cyan,circle
0.0,4.0,4.0,0.0,6.0,6.0,607.0352930000809,2.0,1.0,phase_2,go,500.0,500.0,1.0,,,,,,,,,cyan,circle
0.0,5.0,0.5,1.0,6.0,6.0,570.8279160003258,2.0,1.0,phase_2,go,500.0,500.0,1.0,,,,,,,,,gray,triangle
0.0,6.0,1.0,1.0,6.0,0.0,0.0,2.0,1.0,phase_2,stop,500.0,500.0,4.0,,,,,,,,,blue,square
0.0,7.0,2.0,1.0,6.0,0.0,0.0,2.0,1.0,phase_2,stop,500.0,550.0,4.0,,,,,,,,,magenta,diamond
0.0,4.0,4.0,0.0,5.0,5.0,554.9827059999188,2.0,1.0,phase_2,go,500.0,600.0,1.0,,,,,,,,,cyan,circle
0.0,2.0,1.0,0.0,6.0,6.0,879.794899999979,2.0,1.0,phase_2,go,500.0,600.0,1.0,,,,,,,,,yellow,flipped triangle
0.0,8.0,4.0,1.0,5.0,5.0,443.8419329999306,3.0,1.0,phase_2,stop,500.0,600.0,3.0,,,,,,,,,white,hexagon
0.0,3.0,2.0,0.0,6.0,6.0,727.6822499998161,3.0,1.0,phase_2,go,450.0,600.0,1.0,,,,,,,,,green,cross
0.0,4.0,4.0,0.0,5.0,5.0,834.4779539997944,3.0,1.0,phase_2,go,450.0,600.0,1.0,,,,,,,,,cyan,circle
0.0,4.0,4.0,0.0,5.0,5.0,652.9873690001295,3.0,1.0,phase_2,go,450.0,600.0,1.0,,,,,,,,,cyan,circle
0.0,6.0,1.0,1.0,6.0,6.0,348.6592949998339,3.0,1.0,phase_2,go,450.0,600.0,1.0,,,,,,,,,blue,square
0.0,6.0,1.0,1.0,6.0,6.0,506.9090160000087,3.0,1.0,phase_2,stop,450.0,600.0,3.0,,,,,,,,,blue,square
0.0,7.0,2.0,1.0,6.0,6.0,722.3278650003522,3.0,1.0,phase_2,stop,450.0,550.0,3.0,,,,,,,,,magenta,diamond
0.0,5.0,0.5,1.0,6.0,6.0,667.7180930000759,3.0,1.0,phase_2,go,450.0,500.0,1.0,,,,,,,,,gray,triangle
0.0,4.0,4.0,0.0,5.0,5.0,706.0195109997949,3.0,1.0,phase_2,go,450.0,500.0,1.0,,,,,,,,,cyan,circle
0.0,6.0,1.0,1.0,5.0,5.0,572.3378610000509,3.0,1.0,phase_2,stop,450.0,500.0,3.0,,,,,,,,,blue,square
0.0,2.0,1.0,0.0,5.0,5.0,1023.9852589998009,3.0,1.0,phase_2,go,400.0,500.0,1.0,,,,,,,,,yellow,flipped triangle
0.0,2.0,1.0,0.0,5.0,5.0,647.3558239999875,3.0,1.0,phase_2,go,400.0,500.0,1.0,,,,,,,,,yellow,flipped triangle
0.0,1.0,0.5,0.0,6.0,6.0,643.2609150001554,3.0,1.0,phase_2,go,400.0,500.0,1.0,,,,,,,,,orange,I
0.0,8.0,4.0,1.0,5.0,0.0,0.0,3.0,1.0,phase_2,stop,400.0,500.0,4.0,,,,,,,,,white,hexagon
0.0,1.0,0.5,0.0,6.0,6.0,707.5258330000906,3.0,1.0,phase_2,go,450.0,500.0,1.0,,,,,,,,,orange,I
0.0,3.0,2.0,0.0,6.0,6.0,979.6815650001918,3.0,1.0,phase_2,go,450.0,500.0,1.0,,,,,,,,,green,cross
0.0,7.0,2.0,1.0,5.0,0.0,0.0,3.0,1.0,phase_2,stop,450.0,500.0,4.0,,,,,,,,,magenta,diamond
0.0,8.0,4.0,1.0,6.0,6.0,602.7261399999588,3.0,1.0,phase_2,stop,500.0,500.0,3.0,,,,,,,,,white,hexagon
0.0,7.0,2.0,1.0,5.0,0.0,0.0,3.0,1.0,phase_2,stop,500.0,450.0,4.0,,,,,,,,,magenta,diamond
0.0,1.0,0.5,0.0,5.0,5.0,802.991586999724,3.0,1.0,phase_2,go,550.0,450.0,1.0,,,,,,,,,orange,I
0.0,1.0,0.5,0.0,6.0,6.0,846.8030459998772,3.0,1.0,phase_2,go,550.0,450.0,1.0,,,,,,,,,orange,I
0.0,5.0,0.5,1.0,6.0,6.0,424.1320770001948,3.0,1.0,phase_2,go,550.0,450.0,1.0,,,,,,,,,gray,triangle
0.0,5.0,0.5,1.0,6.0,6.0,620.4350499997418,3.0,1.0,phase_2,go,550.0,450.0,1.0,,,,,,,,,gray,triangle
0.0,6.0,1.0,1.0,5.0,5.0,535.6557559998691,3.0,1.0,phase_2,go,550.0,450.0,1.0,,,,,,,,,blue,square
0.0,4.0,4.0,0.0,6.0,6.0,433.1856870003321,3.0,1.0,phase_2,go,550.0,450.0,1.0,,,,,,,,,cyan,circle
0.0,5.0,0.5,1.0,5.0,5.0,600.4123699999582,3.0,1.0,phase_2,stop,550.0,450.0,3.0,,,,,,,,,gray,triangle
0.0,6.0,1.0,1.0,5.0,0.0,0.0,3.0,1.0,phase_2,stop,500.0,450.0,4.0,,,,,,,,,blue,square
0.0,3.0,2.0,0.0,5.0,5.0,916.9627609999224,3.0,1.0,phase_2,go,550.0,450.0,1.0,,,,,,,,,green,cross
0.0,7.0,2.0,1.0,5.0,0.0,0.0,3.0,1.0,phase_2,stop,550.0,450.0,4.0,,,,,,,,,magenta,diamond
0.0,8.0,4.0,1.0,5.0,0.0,0.0,3.0,1.0,phase_2,stop,600.0,450.0,4.0,,,,,,,,,white,hexagon
0.0,2.0,1.0,0.0,6.0,6.0,703.5459179996906,3.0,1.0,phase_2,go,650.0,450.0,1.0,,,,,,,,,yellow,flipped triangle
0.0,2.0,1.0,0.0,5.0,5.0,674.8193569997056,3.0,1.0,phase_2,go,650.0,450.0,1.0,,,,,,,,,yellow,flipped triangle
0.0,7.0,2.0,1.0,5.0,5.0,795.7449929999711,3.0,1.0,phase_2,stop,650.0,450.0,3.0,,,,,,,,,magenta,diamond
0.0,4.0,4.0,0.0,6.0,6.0,862.9256009999153,3.0,1.0,phase_2,go,600.0,450.0,1.0,,,,,,,,,cyan,circle
0.0,3.0,2.0,0.0,5.0,5.0,677.970526000081,3.0,1.0,phase_2,go,600.0,450.0,1.0,,,,,,,,,green,cross
0.0,5.0,0.5,1.0,5.0,5.0,638.4138429998529,3.0,1.0,phase_2,stop,600.0,450.0,3.0,,,,,,,,,gray,triangle
0.0,2.0,1.0,0.0,6.0,6.0,433.0385200000819,4.0,1.0,phase_2,go,550.0,450.0,1.0,,,,,,,,,yellow,flipped triangle
0.0,4.0,4.0,0.0,6.0,6.0,366.9857759996375,4.0,1.0,phase_2,go,550.0,450.0,1.0,,,,,,,,,cyan,circle
0.0,5.0,0.5,1.0,5.0,5.0,338.9774510001189,4.0,1.0,phase_2,stop,550.0,450.0,3.0,,,,,,,,,gray,triangle
0.0,6.0,1.0,1.0,5.0,5.0,665.7006739997087,4.0,1.0,phase_2,stop,500.0,450.0,3.0,,,,,,,,,blue,square
0.0,6.0,1.0,1.0,5.0,0.0,0.0,4.0,1.0,phase_2,stop,450.0,450.0,4.0,,,,,,,,,blue,square
0.0,3.0,2.0,0.0,5.0,5.0,807.214631000079,4.0,1.0,phase_2,go,500.0,450.0,1.0,,,,,,,,,green,cross
0.0,2.0,1.0,0.0,5.0,5.0,620.6943639999736,4.0,1.0,phase_2,go,500.0,450.0,1.0,,,,,,,,,yellow,flipped triangle
0.0,6.0,1.0,1.0,5.0,5.0,581.7997750000359,4.0,1.0,phase_2,stop,500.0,450.0,3.0,,,,,,,,,blue,square
0.0,6.0,1.0,1.0,5.0,0.0,0.0,4.0,1.0,phase_2,stop,450.0,450.0,4.0,,,,,,,,,blue,square
0.0,2.0,1.0,0.0,6.0,6.0,477.6280689998202,4.0,1.0,phase_2,go,500.0,450.0,1.0,,,,,,,,,yellow,flipped triangle
0.0,1.0,0.5,0.0,6.0,6.0,711.2000000001899,4.0,1.0,phase_2,go,500.0,450.0,1.0,,,,,,,,,orange,I
0.0,7.0,2.0,1.0,5.0,5.0,375.9058599998752,4.0,1.0,phase_2,stop,500.0,450.0,3.0,,,,,,,,,magenta,diamond
0.0,1.0,0.5,0.0,6.0,6.0,745.0630970001839,4.0,1.0,phase_2,go,450.0,450.0,1.0,,,,,,,,,orange,I
0.0,6.0,1.0,1.0,5.0,5.0,604.1515749998325,4.0,1.0,phase_2,go,450.0,450.0,1.0,,,,,,,,,blue,square
0.0,5.0,0.5,1.0,5.0,5.0,632.9088389998105,4.0,1.0,phase_2,stop,450.0,450.0,3.0,,,,,,,,,gray,triangle
0.0,4.0,4.0,0.0,5.0,5.0,510.54689100010364,4.0,1.0,phase_2,go,400.0,450.0,1.0,,,,,,,,,cyan,circle
0.0,7.0,2.0,1.0,5.0,0.0,0.0,4.0,1.0,phase_2,stop,400.0,450.0,4.0,,,,,,,,,magenta,diamond
0.0,4.0,4.0,0.0,6.0,6.0,610.3992319999634,4.0,1.0,phase_2,go,450.0,450.0,1.0,,,,,,,,,cyan,circle
0.0,7.0,2.0,1.0,6.0,6.0,519.2160460001105,4.0,1.0,phase_2,go,450.0,450.0,1.0,,,,,,,,,magenta,diamond
0.0,5.0,0.5,1.0,6.0,6.0,538.0139389999385,4.0,1.0,phase_2,stop,450.0,450.0,3.0,,,,,,,,,gray,triangle
0.0,2.0,1.0,0.0,5.0,5.0,637.9922940000142,4.0,1.0,phase_2,go,450.0,400.0,1.0,,,,,,,,,yellow,flipped triangle
0.0,7.0,2.0,1.0,5.0,0.0,0.0,4.0,1.0,phase_2,stop,450.0,400.0,4.0,,,,,,,,,magenta,diamond
0.0,1.0,0.5,0.0,5.0,5.0,644.7759339998811,4.0,1.0,phase_2,go,500.0,400.0,1.0,,,,,,,,,orange,I
0.0,6.0,1.0,1.0,6.0,6.0,439.4737220000024,4.0,1.0,phase_2,stop,500.0,400.0,3.0,,,,,,,,,blue,square
0.0,5.0,0.5,1.0,6.0,0.0,0.0,4.0,1.0,phase_2,stop,500.0,350.0,4.0,,,,,,,,,gray,triangle
0.0,3.0,2.0,0.0,6.0,6.0,657.8327789998184,4.0,1.0,phase_2,go,500.0,400.0,1.0,,,,,,,,,green,cross
0.0,7.0,2.0,1.0,5.0,5.0,624.1198949996942,4.0,1.0,phase_2,stop,500.0,400.0,3.0,,,,,,,,,magenta,diamond
0.0,1.0,0.5,0.0,6.0,6.0,560.2848109997467,4.0,1.0,phase_2,go,450.0,400.0,1.0,,,,,,,,,orange,I
0.0,4.0,4.0,0.0,5.0,5.0,542.3234539998703,4.0,1.0,phase_2,go,450.0,400.0,1.0,,,,,,,,,cyan,circle
0.0,7.0,2.0,1.0,5.0,5.0,374.67874999993,4.0,1.0,phase_2,stop,450.0,400.0,3.0,,,,,,,,,magenta,diamond
0.0,5.0,0.5,1.0,6.0,0.0,0.0,4.0,1.0,phase_2,stop,400.0,400.0,4.0,,,,,,,,,gray,triangle
0.0,3.0,2.0,0.0,6.0,6.0,554.2694979999396,4.0,1.0,phase_2,go,400.0,450.0,1.0,,,,,,,,,green,cross
0.0,4.0,4.0,0.0,5.0,5.0,424.8538380002173,4.0,1.0,phase_2,go,400.0,450.0,1.0,,,,,,,,,cyan,circle
0.0,7.0,2.0,1.0,6.0,6.0,497.1026349999192,4.0,1.0,phase_2,stop,400.0,450.0,3.0,,,,,,,,,magenta,diamond
0.0,3.0,2.0,0.0,5.0,5.0,692.8341889997682,4.0,1.0,phase_2,go,400.0,400.0,1.0,,,,,,,,,green,cross
0.0,2.0,1.0,0.0,6.0,6.0,431.701682000039,4.0,1.0,phase_2,go,400.0,400.0,1.0,,,,,,,,,yellow,flipped triangle
0.0,5.0,0.5,1.0,6.0,6.0,366.4106979999815,5.0,1.0,phase_2,go,400.0,400.0,1.0,,,,,,,,,gray,triangle
0.0,5.0,0.5,1.0,5.0,5.0,489.4159169998602,5.0,1.0,phase_2,stop,400.0,400.0,3.0,,,,,,,,,gray,triangle
0.0,5.0,0.5,1.0,5.0,0.0,0.0,5.0,1.0,phase_2,stop,350.0,400.0,4.0,,,,,,,,,gray,triangle
0.0,4.0,4.0,0.0,6.0,6.0,271.7158559999006,5.0,1.0,phase_2,go,400.0,400.0,1.0,,,,,,,,,cyan,circle
0.0,6.0,1.0,1.0,6.0,0.0,0.0,5.0,1.0,phase_2,stop,400.0,400.0,4.0,,,,,,,,,blue,square
0.0,5.0,0.5,1.0,5.0,0.0,0.0,5.0,1.0,phase_2,stop,400.0,450.0,4.0,,,,,,,,,gray,triangle
0.0,8.0,4.0,1.0,6.0,6.0,593.3288859996537,5.0,1.0,phase_2,go,450.0,450.0,1.0,,,,,,,,,white,hexagon
0.0,6.0,1.0,1.0,6.0,6.0,377.2524999999405,5.0,1.0,phase_2,stop,450.0,450.0,3.0,,,,,,,,,blue,square
0.0,4.0,4.0,0.0,5.0,5.0,507.7119610000409,5.0,1.0,phase_2,go,450.0,400.0,1.0,,,,,,,,,cyan,circle
0.0,1.0,0.5,0.0,6.0,6.0,656.3344000001052,5.0,1.0,phase_2,go,450.0,400.0,1.0,,,,,,,,,orange,I
0.0,5.0,0.5,1.0,6.0,6.0,678.6077509996176,5.0,1.0,phase_2,go,450.0,400.0,1.0,,,,,,,,,gray,triangle
0.0,7.0,2.0,1.0,5.0,5.0,493.315891000293,5.0,1.0,phase_2,stop,450.0,400.0,3.0,,,,,,,,,magenta,diamond
0.0,2.0,1.0,0.0,5.0,5.0,423.127635000128,5.0,1.0,phase_2,go,400.0,400.0,1.0,,,,,,,,,yellow,flipped triangle
0.0,8.0,4.0,1.0,5.0,0.0,0.0,5.0,1.0,phase_2,stop,400.0,400.0,4.0,,,,,,,,,white,hexagon
0.0,1.0,0.5,0.0,6.0,6.0,378.7295480001376,5.0,1.0,phase_2,go,450.0,400.0,1.0,,,,,,,,,orange,I
0.0,3.0,2.0,0.0,5.0,5.0,528.0811909997283,5.0,1.0,phase_2,go,450.0,400.0,1.0,,,,,,,,,green,cross
0.0,6.0,1.0,1.0,6.0,6.0,328.925466000328,5.0,1.0,phase_2,stop,450.0,400.0,3.0,,,,,,,,,blue,square
0.0,2.0,1.0,0.0,5.0,5.0,863.4326719998171,5.0,1.0,phase_2,go,450.0,350.0,1.0,,,,,,,,,yellow,flipped triangle
0.0,2.0,1.0,0.0,6.0,6.0,507.04778199997236,5.0,1.0,phase_2,go,450.0,350.0,1.0,,,,,,,,,yellow,flipped triangle
0.0,7.0,2.0,1.0,5.0,5.0,470.6036490001679,5.0,1.0,phase_2,go,450.0,350.0,1.0,,,,,,,,,magenta,diamond
0.0,6.0,1.0,1.0,6.0,6.0,501.0839970000234,5.0,1.0,phase_2,go,450.0,350.0,1.0,,,,,,,,,blue,square
0.0,3.0,2.0,0.0,5.0,5.0,620.5141420000473,5.0,1.0,phase_2,go,450.0,350.0,1.0,,,,,,,,,green,cross
0.0,6.0,1.0,1.0,6.0,6.0,282.3607899999842,5.0,1.0,phase_2,stop,450.0,350.0,3.0,,,,,,,,,blue,square
0.0,1.0,0.5,0.0,6.0,6.0,686.8295080003008,5.0,1.0,phase_2,go,450.0,300.0,1.0,,,,,,,,,orange,I
0.0,5.0,0.5,1.0,6.0,0.0,0.0,5.0,1.0,phase_2,stop,450.0,300.0,4.0,,,,,,,,,gray,triangle
0.0,4.0,4.0,0.0,6.0,6.0,790.128033000201,5.0,1.0,phase_2,go,450.0,350.0,1.0,,,,,,,,,cyan,circle
0.0,1.0,0.5,0.0,5.0,5.0,629.4773710001209,5.0,1.0,phase_2,go,450.0,350.0,1.0,,,,,,,,,orange,I
0.0,2.0,1.0,0.0,5.0,5.0,571.63293099984,5.0,1.0,phase_2,go,450.0,350.0,1.0,,,,,,,,,yellow,flipped triangle
0.0,8.0,4.0,1.0,5.0,5.0,530.6810879997101,5.0,1.0,phase_2,go,450.0,350.0,1.0,,,,,,,,,white,hexagon
0.0,1.0,0.5,0.0,6.0,6.0,528.2476970000971,5.0,1.0,phase_2,go,450.0,350.0,1.0,,,,,,,,,orange,I
0.0,6.0,1.0,1.0,6.0,6.0,329.9305420000564,5.0,1.0,phase_2,stop,450.0,350.0,3.0,,,,,,,,,blue,square
0.0,3.0,2.0,0.0,6.0,6.0,742.8495419999308,5.0,1.0,phase_2,go,450.0,300.0,1.0,,,,,,,,,green,cross
0.0,7.0,2.0,1.0,6.0,0.0,0.0,5.0,1.0,phase_2,stop,450.0,300.0,4.0,,,,,,,,,magenta,diamond
0.0,2.0,1.0,0.0,6.0,6.0,594.3109559998447,5.0,1.0,phase_2,go,450.0,350.0,1.0,,,,,,,,,yellow,flipped triangle
0.0,5.0,0.5,1.0,5.0,5.0,405.5056639999748,5.0,1.0,phase_2,go,450.0,350.0,1.0,,,,,,,,,gray,triangle
0.0,1.0,0.5,0.0,5.0,5.0,439.492416000121,5.0,1.0,phase_2,go,450.0,350.0,1.0,,,,,,,,,orange,I
0.0,8.0,4.0,1.0,6.0,6.0,386.2287360002483,6.0,1.0,phase_2,go,450.0,350.0,1.0,,,,,,,,,white,hexagon
0.0,4.0,4.0,0.0,5.0,5.0,328.1475740000132,6.0,1.0,phase_2,go,450.0,350.0,1.0,,,,,,,,,cyan,circle
0.0,4.0,4.0,0.0,5.0,5.0,356.9904519999909,6.0,1.0,phase_2,go,450.0,350.0,1.0,,,,,,,,,cyan,circle
0.0,4.0,4.0,0.0,5.0,5.0,290.9973989999344,6.0,1.0,phase_2,go,450.0,350.0,1.0,,,,,,,,,cyan,circle
0.0,3.0,2.0,0.0,5.0,5.0,319.8069119998763,6.0,1.0,phase_2,go,450.0,350.0,1.0,,,,,,,,,green,cross
0.0,6.0,1.0,1.0,6.0,6.0,402.20264400022637,6.0,1.0,phase_2,stop,450.0,350.0,3.0,,,,,,,,,blue,square
0.0,7.0,2.0,1.0,5.0,5.0,412.5319230001878,6.0,1.0,phase_2,stop,450.0,300.0,3.0,,,,,,,,,magenta,diamond
0.0,8.0,4.0,1.0,6.0,0.0,0.0,6.0,1.0,phase_2,stop,400.0,300.0,4.0,,,,,,,,,white,hexagon
0.0,3.0,2.0,0.0,6.0,6.0,612.488638999821,6.0,1.0,phase_2,go,400.0,350.0,1.0,,,,,,,,,green,cross
0.0,3.0,2.0,0.0,6.0,6.0,474.3558499999381,6.0,1.0,phase_2,go,400.0,350.0,1.0,,,,,,,,,green,cross
0.0,5.0,0.5,1.0,5.0,5.0,359.65188699992717,6.0,1.0,phase_2,stop,400.0,350.0,3.0,,,,,,,,,gray,triangle
0.0,5.0,0.5,1.0,6.0,6.0,479.209885000273,6.0,1.0,phase_2,stop,350.0,350.0,3.0,,,,,,,,,gray,triangle
0.0,2.0,1.0,0.0,5.0,5.0,696.6366500000731,6.0,1.0,phase_2,go,350.0,300.0,1.0,,,,,,,,,yellow,flipped triangle
0.0,7.0,2.0,1.0,6.0,0.0,0.0,6.0,1.0,phase_2,stop,350.0,300.0,4.0,,,,,,,,,magenta,diamond
0.0,8.0,4.0,1.0,5.0,0.0,0.0,6.0,1.0,phase_2,stop,350.0,350.0,4.0,,,,,,,,,white,hexagon
0.0,2.0,1.0,0.0,5.0,5.0,639.9462349995702,6.0,1.0,phase_2,go,400.0,350.0,1.0,,,,,,,,,yellow,flipped triangle
0.0,3.0,2.0,0.0,5.0,5.0,594.1297240001404,6.0,1.0,phase_2,go,400.0,350.0,1.0,,,,,,,,,green,cross
0.0,7.0,2.0,1.0,6.0,6.0,951.889428999948,6.0,1.0,phase_2,go,400.0,350.0,1.0,,,,,,,,,magenta,diamond
0.0,7.0,2.0,1.0,6.0,6.0,519.1431140001441,6.0,1.0,phase_2,go,400.0,350.0,1.0,,,,,,,,,magenta,diamond
0.0,5.0,0.5,1.0,5.0,5.0,463.1934330000149,6.0,1.0,phase_2,stop,400.0,350.0,3.0,,,,,,,,,gray,triangle
0.0,3.0,2.0,0.0,6.0,6.0,563.4630179997657,6.0,1.0,phase_2,go,350.0,350.0,1.0,,,,,,,,,green,cross
0.0,1.0,0.5,0.0,6.0,6.0,367.7478710001196,6.0,1.0,phase_2,go,350.0,350.0,1.0,,,,,,,,,orange,I
0.0,6.0,1.0,1.0,5.0,5.0,451.7596310001863,6.0,1.0,phase_2,stop,350.0,350.0,3.0,,,,,,,,,blue,square
0.0,8.0,4.0,1.0,5.0,0.0,0.0,6.0,1.0,phase_2,stop,300.0,350.0,4.0,,,,,,,,,white,hexagon
0.0,7.0,2.0,1.0,6.0,6.0,565.4087090001667,6.0,1.0,phase_2,stop,350.0,350.0,3.0,,,,,,,,,magenta,diamond
0.0,2.0,1.0,0.0,6.0,6.0,790.6845249999606,6.0,1.0,phase_2,go,350.0,300.0,1.0,,,,,,,,,yellow,flipped triangle
0.0,8.0,4.0,1.0,5.0,0.0,0.0,6.0,1.0,phase_2,stop,350.0,300.0,4.0,,,,,,,,,white,hexagon
0.0,4.0,4.0,0.0,6.0,6.0,872.3318439997456,6.0,1.0,phase_2,go,400.0,300.0,1.0,,,,,,,,,cyan,circle
0.0,6.0,1.0,1.0,5.0,5.0,620.7968349999646,6.0,1.0,phase_2,stop,400.0,300.0,3.0,,,,,,,,,blue,square
0.0,1.0,0.5,0.0,5.0,5.0,684.6633469999688,6.0,1.0,phase_2,go,350.0,300.0,1.0,,,,,,,,,orange,I
0.0,2.0,1.0,0.0,6.0,6.0,523.6450530001093,6.0,1.0,phase_2,go,350.0,300.0,1.0,,,,,,,,,yellow,flipped triangle
0.0,3.0,2.0,0.0,5.0,5.0,489.23073800006017,6.0,1.0,phase_2,go,350.0,300.0,1.0,,,,,,,,,green,cross
0.0,1.0,0.5,0.0,5.0,5.0,393.8425500000448,6.0,1.0,phase_2,go,350.0,300.0,1.0,,,,,,,,,orange,I
0.0,2.0,1.0,0.0,5.0,5.0,449.2193079995559,6.0,1.0,phase_2,go,350.0,300.0,1.0,,,,,,,,,yellow,flipped triangle
0.0,8.0,4.0,1.0,5.0,5.0,385.7111679999434,6.0,1.0,phase_2,go,350.0,300.0,1.0,,,,,,,,,white,hexagon
0.0,2.0,1.0,0.0,5.0,5.0,346.2200550002308,6.0,1.0,phase_2,go,350.0,300.0,1.0,,,,,,,,,yellow,flipped triangle
0.0,1.0,0.5,0.0,5.0,5.0,452.949727000032,7.0,1.0,phase_2,go,350.0,300.0,1.0,,,,,,,,,orange,I
0.0,4.0,4.0,0.0,5.0,5.0,385.1207119996616,7.0,1.0,phase_2,go,350.0,300.0,1.0,,,,,,,,,cyan,circle
0.0,5.0,0.5,1.0,5.0,5.0,389.3271130000357,7.0,1.0,phase_2,stop,350.0,300.0,3.0,,,,,,,,,gray,triangle
0.0,6.0,1.0,1.0,5.0,5.0,738.9993880001384,7.0,1.0,phase_2,go,300.0,300.0,1.0,,,,,,,,,blue,square
0.0,8.0,4.0,1.0,6.0,6.0,381.7117600001438,7.0,1.0,phase_2,stop,300.0,300.0,3.0,,,,,,,,,white,hexagon
0.0,4.0,4.0,0.0,6.0,6.0,555.0047570000061,7.0,1.0,phase_2,go,300.0,250.0,1.0,,,,,,,,,cyan,circle
0.0,4.0,4.0,0.0,6.0,6.0,619.9173049999445,7.0,1.0,phase_2,go,300.0,250.0,1.0,,,,,,,,,cyan,circle
0.0,7.0,2.0,1.0,6.0,0.0,0.0,7.0,1.0,phase_2,stop,300.0,250.0,4.0,,,,,,,,,magenta,diamond
0.0,2.0,1.0,0.0,6.0,6.0,518.1054930003484,7.0,1.0,phase_2,go,300.0,300.0,1.0,,,,,,,,,yellow,flipped triangle
0.0,4.0,4.0,0.0,5.0,5.0,461.9068890001472,7.0,1.0,phase_2,go,300.0,300.0,1.0,,,,,,,,,cyan,circle
0.0,7.0,2.0,1.0,6.0,6.0,365.456505000111,7.0,1.0,phase_2,stop,300.0,300.0,3.0,,,,,,,,,magenta,diamond
0.0,6.0,1.0,1.0,5.0,5.0,610.697835999872,7.0,1.0,phase_2,go,300.0,250.0,1.0,,,,,,,,,blue,square
0.0,8.0,4.0,1.0,6.0,0.0,0.0,7.0,1.0,phase_2,stop,300.0,250.0,4.0,,,,,,,,,white,hexagon
0.0,2.0,1.0,0.0,6.0,6.0,712.2295169997415,7.0,1.0,phase_2,go,300.0,300.0,1.0,,,,,,,,,yellow,flipped triangle
0.0,8.0,4.0,1.0,5.0,5.0,354.5385379998151,7.0,1.0,phase_2,stop,300.0,300.0,3.0,,,,,,,,,white,hexagon
0.0,2.0,1.0,0.0,6.0,6.0,618.4714410001106,7.0,1.0,phase_2,go,250.0,300.0,1.0,,,,,,,,,yellow,flipped triangle
0.0,1.0,0.5,0.0,6.0,6.0,526.9927320000534,7.0,1.0,phase_2,go,250.0,300.0,1.0,,,,,,,,,orange,I
0.0,2.0,1.0,0.0,6.0,6.0,490.448176999962,7.0,1.0,phase_2,go,250.0,300.0,1.0,,,,,,,,,yellow,flipped triangle
0.0,8.0,4.0,1.0,5.0,5.0,374.2750070000511,7.0,1.0,phase_2,go,250.0,300.0,1.0,,,,,,,,,white,hexagon
0.0,2.0,1.0,0.0,6.0,6.0,422.2133090001989,7.0,1.0,phase_2,go,250.0,300.0,1.0,,,,,,,,,yellow,flipped triangle
0.0,2.0,1.0,0.0,5.0,5.0,498.1206500001462,7.0,1.0,phase_2,go,250.0,300.0,1.0,,,,,,,,,yellow,flipped triangle
0.0,7.0,2.0,1.0,5.0,0.0,0.0,7.0,1.0,phase_2,stop,250.0,300.0,4.0,,,,,,,,,magenta,diamond
0.0,2.0,1.0,0.0,6.0,6.0,611.9281019996379,7.0,1.0,phase_2,go,300.0,300.0,1.0,,,,,,,,,yellow,flipped triangle
0.0,4.0,4.0,0.0,5.0,5.0,526.5030630002911,7.0,1.0,phase_2,go,300.0,300.0,1.0,,,,,,,,,cyan,circle
0.0,1.0,0.5,0.0,6.0,6.0,329.7716219999529,7.0,1.0,phase_2,go,300.0,300.0,1.0,,,,,,,,,orange,I
0.0,6.0,1.0,1.0,6.0,6.0,375.5482270003085,7.0,1.0,phase_2,stop,300.0,300.0,3.0,,,,,,,,,blue,square
0.0,6.0,1.0,1.0,6.0,6.0,841.0720659999242,7.0,1.0,phase_2,go,300.0,250.0,1.0,,,,,,,,,blue,square
0.0,1.0,0.5,0.0,5.0,5.0,601.2074320001375,7.0,1.0,phase_2,go,300.0,250.0,1.0,,,,,,,,,orange,I
0.0,6.0,1.0,1.0,5.0,5.0,424.0003179997984,7.0,1.0,phase_2,stop,300.0,250.0,3.0,,,,,,,,,blue,square
0.0,8.0,4.0,1.0,5.0,0.0,0.0,7.0,1.0,phase_2,stop,250.0,250.0,4.0,,,,,,,,,white,hexagon
0.0,2.0,1.0,0.0,5.0,5.0,519.5343250002225,7.0,1.0,phase_2,go,300.0,250.0,1.0,,,,,,,,,yellow,flipped triangle
0.0,6.0,1.0,1.0,6.0,0.0,0.0,7.0,1.0,phase_2,stop,300.0,250.0,4.0,,,,,,,,,blue,square
0.0,7.0,2.0,1.0,6.0,0.0,0.0,7.0,1.0,phase_2,stop,300.0,300.0,4.0,,,,,,,,,magenta,diamond
0.0,5.0,0.5,1.0,5.0,0.0,0.0,7.0,1.0,phase_2,stop,300.0,350.0,4.0,,,,,,,,,gray,triangle
0.0,4.0,4.0,0.0,5.0,5.0,706.4378629997918,7.0,1.0,phase_2,go,350.0,350.0,1.0,,,,,,,,,cyan,circle
0.0,1.0,0.5,0.0,6.0,6.0,536.2032520001776,7.0,1.0,phase_2,go,350.0,350.0,1.0,,,,,,,,,orange,I
0.0,3.0,2.0,0.0,6.0,6.0,430.2468360001512,8.0,1.0,phase_2,go,350.0,350.0,1.0,,,,,,,,,green,cross
0.0,8.0,4.0,1.0,5.0,5.0,394.6255519999795,8.0,1.0,phase_2,stop,350.0,350.0,3.0,,,,,,,,,white,hexagon
0.0,7.0,2.0,1.0,6.0,0.0,0.0,8.0,1.0,phase_2,stop,300.0,350.0,4.0,,,,,,,,,magenta,diamond
0.0,3.0,2.0,0.0,6.0,6.0,610.4012949999742,8.0,1.0,phase_2,go,300.0,400.0,1.0,,,,,,,,,green,cross
0.0,8.0,4.0,1.0,6.0,6.0,588.8980039999296,8.0,1.0,phase_2,stop,300.0,400.0,3.0,,,,,,,,,white,hexagon
0.0,6.0,1.0,1.0,6.0,0.0,0.0,8.0,1.0,phase_2,stop,300.0,350.0,4.0,,,,,,,,,blue,square
0.0,2.0,1.0,0.0,6.0,6.0,694.0439029999652,8.0,1.0,phase_2,go,300.0,400.0,1.0,,,,,,,,,yellow,flipped triangle
0.0,7.0,2.0,1.0,6.0,0.0,0.0,8.0,1.0,phase_2,stop,300.0,400.0,4.0,,,,,,,,,magenta,diamond
0.0,8.0,4.0,1.0,5.0,0.0,0.0,8.0,1.0,phase_2,stop,300.0,450.0,4.0,,,,,,,,,white,hexagon
0.0,4.0,4.0,0.0,6.0,6.0,795.0514260001,8.0,1.0,phase_2,go,350.0,450.0,1.0,,,,,,,,,cyan,circle
0.0,1.0,0.5,0.0,5.0,5.0,598.772327000006,8.0,1.0,phase_2,go,350.0,450.0,1.0,,,,,,,,,orange,I
0.0,1.0,0.5,0.0,5.0,5.0,394.6993639997345,8.0,1.0,phase_2,go,350.0,450.0,1.0,,,,,,,,,orange,I
0.0,3.0,2.0,0.0,6.0,6.0,600.2295090002008,8.0,1.0,phase_2,go,350.0,450.0,1.0,,,,,,,,,green,cross
0.0,2.0,1.0,0.0,5.0,5.0,609.0397519997168,8.0,1.0,phase_2,go,350.0,450.0,1.0,,,,,,,,,yellow,flipped triangle
0.0,1.0,0.5,0.0,5.0,5.0,419.9016579996169,8.0,1.0,phase_2,go,350.0,450.0,1.0,,,,,,,,,orange,I
0.0,6.0,1.0,1.0,6.0,6.0,441.7615449997356,8.0,1.0,phase_2,stop,350.0,450.0,3.0,,,,,,,,,blue,square
0.0,5.0,0.5,1.0,5.0,0.0,0.0,8.0,1.0,phase_2,stop,350.0,400.0,4.0,,,,,,,,,gray,triangle
0.0,1.0,0.5,0.0,5.0,5.0,682.3278110000501,8.0,1.0,phase_2,go,400.0,400.0,1.0,,,,,,,,,orange,I
0.0,3.0,2.0,0.0,6.0,6.0,554.4651949999206,8.0,1.0,phase_2,go,400.0,400.0,1.0,,,,,,,,,green,cross
0.0,1.0,0.5,0.0,6.0,6.0,552.6480670000637,8.0,1.0,phase_2,go,400.0,400.0,1.0,,,,,,,,,orange,I
0.0,8.0,4.0,1.0,6.0,6.0,348.5265579997758,8.0,1.0,phase_2,go,400.0,400.0,1.0,,,,,,,,,white,hexagon
0.0,2.0,1.0,0.0,5.0,5.0,585.0574340001913,8.0,1.0,phase_2,go,400.0,400.0,1.0,,,,,,,,,yellow,flipped triangle
0.0,1.0,0.5,0.0,5.0,5.0,357.3611010001514,8.0,1.0,phase_2,go,400.0,400.0,1.0,,,,,,,,,orange,I
0.0,7.0,2.0,1.0,5.0,5.0,533.3608949999871,8.0,1.0,phase_2,go,400.0,400.0,1.0,,,,,,,,,magenta,diamond
0.0,5.0,0.5,1.0,5.0,5.0,376.6769619996921,8.0,1.0,phase_2,stop,400.0,400.0,3.0,,,,,,,,,gray,triangle
0.0,3.0,2.0,0.0,5.0,5.0,814.6264669999255,8.0,1.0,phase_2,go,350.0,400.0,1.0,,,,,,,,,green,cross
0.0,1.0,0.5,0.0,5.0,5.0,395.5756880000081,8.0,1.0,phase_2,go,350.0,400.0,1.0,,,,,,,,,orange,I
0.0,3.0,2.0,0.0,5.0,5.0,583.3275659997526,8.0,1.0,phase_2,go,350.0,400.0,1.0,,,,,,,,,green,cross
0.0,3.0,2.0,0.0,5.0,5.0,561.5545199998451,8.0,1.0,phase_2,go,350.0,400.0,1.0,,,,,,,,,green,cross
0.0,6.0,1.0,1.0,5.0,5.0,459.9338240000179,8.0,1.0,phase_2,stop,350.0,400.0,3.0,,,,,,,,,blue,square
0.0,4.0,4.0,0.0,6.0,6.0,682.6683459999003,8.0,1.0,phase_2,go,300.0,400.0,1.0,,,,,,,,,cyan,circle
0.0,5.0,0.5,1.0,6.0,6.0,611.6288929997609,8.0,1.0,phase_2,stop,300.0,400.0,3.0,,,,,,,,,gray,triangle
0.0,8.0,4.0,1.0,6.0,0.0,0.0,8.0,1.0,phase_2,stop,300.0,350.0,4.0,,,,,,,,,white,hexagon
0.0,1.0,0.5,0.0,6.0,6.0,657.1541670000443,8.0,1.0,phase_2,go,300.0,400.0,1.0,,,,,,,,,orange,I
0.0,6.0,1.0,1.0,6.0,6.0,566.367431999879,8.0,1.0,phase_2,stop,300.0,400.0,3.0,,,,,,,,,blue,square
0.0,5.0,0.5,1.0,6.0,0.0,0.0,8.0,1.0,phase_2,stop,300.0,350.0,4.0,,,,,,,,,gray,triangle
0.0,8.0,4.0,1.0,7.0,6.0,1039.8816669999178,1.0,2.0,phase_3,,,,,464.0,4.0,116.0,348.0,580.0,232.0,696.0,464.0,white,hexagon
0.0,6.0,1.0,1.0,7.0,5.0,1240.9075720001963,1.0,1.0,phase_3,,,,,519.0,3.0,1038.0,692.0,346.0,865.0,519.0,173.0,blue,square
0.0,4.0,4.0,0.0,7.0,1.0,2061.244505999639,1.0,1.0,phase_3,,,,,768.0,4.0,768.0,576.0,1152.0,192.0,960.0,384.0,cyan,circle
0.0,6.0,1.0,1.0,7.0,5.0,1283.8900179999655,1.0,1.0,phase_3,,,,,810.0,6.0,540.0,675.0,270.0,405.0,810.0,135.0,blue,square
0.0,8.0,4.0,1.0,7.0,6.0,1748.8456669998411,1.0,1.0,phase_3,,,,,675.0,5.0,270.0,405.0,135.0,810.0,540.0,675.0,white,hexagon
0.0,1.0,0.5,0.0,7.0,1.0,1392.797685000005,1.0,1.0,phase_3,,,,,384.0,2.0,384.0,768.0,960.0,192.0,576.0,1152.0,orange,I
0.0,2.0,1.0,0.0,7.0,6.0,1481.4128190000702,1.0,1.0,phase_3,,,,,232.0,2.0,464.0,116.0,348.0,696.0,580.0,232.0,yellow,flipped triangle
0.0,3.0,2.0,0.0,7.0,2.0,1716.4764689996446,1.0,1.0,phase_3,,,,,308.0,2.0,462.0,308.0,154.0,616.0,770.0,924.0,green,cross
0.0,5.0,0.5,1.0,7.0,5.0,1589.8145170003772,1.0,1.0,phase_3,,,,,135.0,1.0,810.0,675.0,270.0,540.0,135.0,405.0,gray,triangle
0.0,1.0,0.5,0.0,7.0,4.0,1400.0823080000373,1.0,1.0,phase_3,,,,,348.0,3.0,232.0,116.0,464.0,348.0,696.0,580.0,orange,I
0.0,1.0,0.5,0.0,7.0,2.0,2683.9037329996245,1.0,1.0,phase_3,,,,,405.0,3.0,675.0,405.0,270.0,810.0,135.0,540.0,orange,I
0.0,7.0,2.0,1.0,7.0,4.0,2959.818806000385,1.0,1.0,phase_3,,,,,696.0,6.0,464.0,348.0,232.0,696.0,116.0,580.0,magenta,diamond
0.0,5.0,0.5,1.0,7.0,2.0,2694.2851200001314,1.0,1.0,phase_3,,,,,384.0,2.0,192.0,384.0,960.0,768.0,576.0,1152.0,gray,triangle
0.0,5.0,0.5,1.0,7.0,6.0,1682.1853269998428,1.0,1.0,phase_3,,,,,384.0,2.0,960.0,192.0,768.0,1152.0,576.0,384.0,gray,triangle
0.0,1.0,0.5,0.0,7.0,3.0,2547.514941999907,1.0,1.0,phase_3,,,,,519.0,3.0,1038.0,173.0,519.0,865.0,346.0,692.0,orange,I
0.0,7.0,2.0,1.0,7.0,1.0,2956.5760109999246,1.0,1.0,phase_3,,,,,810.0,6.0,810.0,540.0,675.0,135.0,405.0,270.0,magenta,diamond
0.0,3.0,2.0,0.0,7.0,1.0,2319.6764799999983,1.0,1.0,phase_3,,,,,580.0,5.0,580.0,696.0,116.0,232.0,464.0,348.0,green,cross
0.0,8.0,4.0,1.0,7.0,6.0,1248.9936249999118,1.0,1.0,phase_3,,,,,405.0,3.0,270.0,540.0,810.0,135.0,675.0,405.0,white,hexagon
0.0,1.0,0.5,0.0,7.0,3.0,1755.6441410001753,1.0,1.0,phase_3,,,,,116.0,1.0,348.0,232.0,116.0,464.0,696.0,580.0,orange,I
0.0,6.0,1.0,1.0,7.0,6.0,2892.84103,1.0,1.0,phase_3,,,,,810.0,6.0,270.0,405.0,540.0,675.0,135.0,810.0,blue,square
0.0,2.0,1.0,0.0,7.0,6.0,785.0414699996691,2.0,1.0,phase_3,,,,,924.0,6.0,770.0,154.0,462.0,616.0,308.0,924.0,yellow,flipped triangle
0.0,2.0,1.0,0.0,7.0,6.0,1351.104526999734,2.0,1.0,phase_3,,,,,810.0,6.0,405.0,135.0,540.0,270.0,675.0,810.0,yellow,flipped triangle
0.0,7.0,2.0,1.0,7.0,2.0,753.0615870000474,2.0,1.0,phase_3,,,,,770.0,5.0,462.0,770.0,616.0,308.0,154.0,924.0,magenta,diamond
0.0,8.0,4.0,1.0,7.0,5.0,296.1396299997432,2.0,1.0,phase_3,,,,,865.0,5.0,1038.0,173.0,692.0,346.0,865.0,519.0,white,hexagon
0.0,7.0,2.0,1.0,7.0,3.0,1341.0827930001687,2.0,1.0,phase_3,,,,,405.0,3.0,810.0,135.0,405.0,675.0,540.0,270.0,magenta,diamond
0.0,8.0,4.0,1.0,7.0,4.0,2021.65753700001,2.0,1.0,phase_3,,,,,692.0,4.0,346.0,173.0,1038.0,692.0,865.0,519.0,white,hexagon
0.0,4.0,4.0,0.0,7.0,1.0,2421.672467999997,2.0,1.0,phase_3,,,,,770.0,5.0,770.0,616.0,462.0,308.0,154.0,924.0,cyan,circle
0.0,2.0,1.0,0.0,7.0,3.0,2030.7981629998721,2.0,1.0,phase_3,,,,,692.0,4.0,1038.0,346.0,692.0,865.0,519.0,173.0,yellow,flipped triangle
0.0,4.0,4.0,0.0,7.0,3.0,1620.6668079998965,2.0,1.0,phase_3,,,,,924.0,6.0,154.0,308.0,924.0,462.0,770.0,616.0,cyan,circle
0.0,7.0,2.0,1.0,7.0,1.0,1825.4140600001847,2.0,1.0,phase_3,,,,,770.0,5.0,770.0,308.0,924.0,616.0,462.0,154.0,magenta,diamond
0.0,1.0,0.5,0.0,7.0,3.0,1339.6185070000683,2.0,1.0,phase_3,,,,,384.0,2.0,960.0,1152.0,384.0,576.0,768.0,192.0,orange,I
0.0,8.0,4.0,1.0,7.0,2.0,1854.9495779998324,2.0,1.0,phase_3,,,,,462.0,3.0,154.0,462.0,616.0,924.0,308.0,770.0,white,hexagon
0.0,4.0,4.0,0.0,7.0,5.0,1504.6890389999137,2.0,1.0,phase_3,,,,,865.0,5.0,1038.0,173.0,692.0,346.0,865.0,519.0,cyan,circle
0.0,1.0,0.5,0.0,7.0,1.0,1571.8539590002365,2.0,1.0,phase_3,,,,,154.0,1.0,154.0,616.0,924.0,308.0,462.0,770.0,orange,I
0.0,3.0,2.0,0.0,7.0,4.0,1089.6111430001838,2.0,1.0,phase_3,,,,,580.0,5.0,348.0,116.0,232.0,580.0,696.0,464.0,green,cross
0.0,5.0,0.5,1.0,7.0,6.0,1615.2015750003557,2.0,1.0,phase_3,,,,,154.0,1.0,462.0,770.0,616.0,924.0,308.0,154.0,gray,triangle
0.0,1.0,0.5,0.0,7.0,4.0,1766.840701000092,2.0,1.0,phase_3,,,,,692.0,4.0,1038.0,173.0,519.0,692.0,346.0,865.0,orange,I
0.0,7.0,2.0,1.0,7.0,2.0,1402.1856280000975,2.0,1.0,phase_3,,,,,384.0,2.0,1152.0,384.0,576.0,192.0,768.0,960.0,magenta,diamond
0.0,6.0,1.0,1.0,7.0,3.0,1042.18395099997,2.0,1.0,phase_3,,,,,308.0,2.0,924.0,462.0,308.0,154.0,616.0,770.0,blue,square
0.0,2.0,1.0,0.0,7.0,2.0,1198.704538000129,2.0,1.0,phase_3,,,,,576.0,3.0,768.0,576.0,960.0,192.0,1152.0,384.0,yellow,flipped triangle
0.0,3.0,2.0,0.0,7.0,6.0,523.8663159998396,3.0,1.0,phase_3,,,,,576.0,3.0,1152.0,192.0,960.0,768.0,384.0,576.0,green,cross
0.0,3.0,2.0,0.0,7.0,5.0,422.8733079999074,3.0,1.0,phase_3,,,,,675.0,5.0,405.0,135.0,270.0,540.0,675.0,810.0,green,cross
0.0,4.0,4.0,0.0,7.0,4.0,710.710810999899,3.0,1.0,phase_3,,,,,135.0,1.0,540.0,405.0,810.0,135.0,675.0,270.0,cyan,circle
0.0,6.0,1.0,1.0,7.0,3.0,475.6468880000284,3.0,1.0,phase_3,,,,,580.0,5.0,696.0,232.0,580.0,116.0,464.0,348.0,blue,square
0.0,6.0,1.0,1.0,7.0,2.0,873.8424949997352,3.0,1.0,phase_3,,,,,768.0,4.0,576.0,768.0,384.0,1152.0,960.0,192.0,blue,square
0.0,1.0,0.5,0.0,7.0,1.0,681.3490039999124,3.0,1.0,phase_3,,,,,810.0,6.0,810.0,540.0,405.0,675.0,135.0,270.0,orange,I
0.0,8.0,4.0,1.0,7.0,6.0,488.3916049998333,3.0,1.0,phase_3,,,,,960.0,5.0,192.0,576.0,1152.0,768.0,384.0,960.0,white,hexagon
0.0,7.0,2.0,1.0,7.0,5.0,421.6745280000396,3.0,1.0,phase_3,,,,,192.0,1.0,576.0,384.0,768.0,1152.0,192.0,960.0,magenta,diamond
0.0,5.0,0.5,1.0,7.0,4.0,533.6192060003668,3.0,1.0,phase_3,,,,,116.0,1.0,464.0,580.0,232.0,116.0,696.0,348.0,gray,triangle
0.0,4.0,4.0,0.0,7.0,5.0,503.300599999875,3.0,1.0,phase_3,,,,,464.0,4.0,232.0,348.0,696.0,116.0,464.0,580.0,cyan,circle
0.0,3.0,2.0,0.0,7.0,6.0,223.4786190001614,3.0,1.0,phase_3,,,,,616.0,4.0,770.0,462.0,154.0,308.0,924.0,616.0,green,cross
0.0,5.0,0.5,1.0,7.0,6.0,670.9817480000311,3.0,1.0,phase_3,,,,,173.0,1.0,519.0,865.0,1038.0,692.0,346.0,173.0,gray,triangle
0.0,7.0,2.0,1.0,7.0,5.0,459.10253300007747,3.0,1.0,phase_3,,,,,116.0,1.0,580.0,232.0,696.0,348.0,116.0,464.0,magenta,diamond
0.0,3.0,2.0,0.0,7.0,5.0,306.5902600001209,3.0,1.0,phase_3,,,,,135.0,1.0,810.0,405.0,540.0,675.0,135.0,270.0,green,cross
0.0,6.0,1.0,1.0,7.0,6.0,550.0598180001361,3.0,1.0,phase_3,,,,,1038.0,6.0,865.0,173.0,346.0,692.0,519.0,1038.0,blue,square
0.0,6.0,1.0,1.0,7.0,2.0,783.613435999996,3.0,1.0,phase_3,,,,,696.0,6.0,348.0,696.0,464.0,232.0,580.0,116.0,blue,square
0.0,4.0,4.0,0.0,7.0,3.0,672.7915719998236,3.0,1.0,phase_3,,,,,519.0,3.0,692.0,346.0,519.0,1038.0,173.0,865.0,cyan,circle
0.0,6.0,1.0,1.0,7.0,2.0,1604.7087219999412,3.0,1.0,phase_3,,,,,616.0,4.0,154.0,616.0,462.0,308.0,924.0,770.0,blue,square
0.0,4.0,4.0,0.0,7.0,1.0,624.1009150003265,3.0,1.0,phase_3,,,,,675.0,5.0,675.0,270.0,810.0,540.0,135.0,405.0,cyan,circle
0.0,8.0,4.0,1.0,7.0,2.0,442.6390850003372,3.0,1.0,phase_3,,,,,232.0,2.0,580.0,232.0,116.0,348.0,464.0,696.0,white,hexagon
0.0,4.0,4.0,0.0,7.0,3.0,448.3267289997457,4.0,1.0,phase_3,,,,,580.0,5.0,232.0,348.0,580.0,116.0,696.0,464.0,cyan,circle
0.0,2.0,1.0,0.0,7.0,2.0,261.494040999878,4.0,1.0,phase_3,,,,,116.0,1.0,232.0,116.0,696.0,580.0,348.0,464.0,yellow,flipped triangle
0.0,1.0,0.5,0.0,7.0,1.0,268.607363999763,4.0,1.0,phase_3,,,,,154.0,1.0,154.0,770.0,924.0,616.0,308.0,462.0,orange,I
0.0,5.0,0.5,1.0,7.0,3.0,301.3945759998933,4.0,1.0,phase_3,,,,,810.0,6.0,540.0,405.0,810.0,270.0,675.0,135.0,gray,triangle
0.0,4.0,4.0,0.0,7.0,5.0,290.5940700002247,4.0,1.0,phase_3,,,,,960.0,5.0,576.0,384.0,768.0,192.0,960.0,1152.0,cyan,circle
0.0,6.0,1.0,1.0,7.0,4.0,260.8710880003855,4.0,1.0,phase_3,,,,,384.0,2.0,576.0,768.0,960.0,384.0,192.0,1152.0,blue,square
0.0,5.0,0.5,1.0,7.0,2.0,317.6730720001615,4.0,1.0,phase_3,,,,,519.0,3.0,1038.0,519.0,692.0,173.0,865.0,346.0,gray,triangle
0.0,8.0,4.0,1.0,7.0,6.0,233.6100900001838,4.0,1.0,phase_3,,,,,770.0,5.0,462.0,308.0,924.0,154.0,616.0,770.0,white,hexagon
0.0,3.0,2.0,0.0,7.0,2.0,260.2626139996573,4.0,1.0,phase_3,,,,,346.0,2.0,173.0,346.0,519.0,865.0,692.0,1038.0,green,cross
0.0,2.0,1.0,0.0,7.0,3.0,259.6950030001608,4.0,1.0,phase_3,,,,,810.0,6.0,405.0,135.0,810.0,675.0,540.0,270.0,yellow,flipped triangle
0.0,5.0,0.5,1.0,7.0,5.0,280.9530639997319,4.0,1.0,phase_3,,,,,770.0,5.0,924.0,462.0,308.0,616.0,770.0,154.0,gray,triangle
0.0,8.0,4.0,1.0,7.0,4.0,233.8771579998138,4.0,1.0,phase_3,,,,,768.0,4.0,576.0,192.0,960.0,768.0,1152.0,384.0,white,hexagon
0.0,7.0,2.0,1.0,7.0,2.0,298.469243999989,4.0,1.0,phase_3,,,,,519.0,3.0,692.0,519.0,173.0,1038.0,346.0,865.0,magenta,diamond
0.0,7.0,2.0,1.0,7.0,6.0,824.3515290000687,4.0,1.0,phase_3,,,,,1038.0,6.0,173.0,692.0,519.0,346.0,865.0,1038.0,magenta,diamond
0.0,2.0,1.0,0.0,7.0,2.0,866.9124240000201,4.0,1.0,phase_3,,,,,154.0,1.0,462.0,154.0,924.0,770.0,616.0,308.0,yellow,flipped triangle
0.0,2.0,1.0,0.0,7.0,4.0,362.086040000122,4.0,1.0,phase_3,,,,,692.0,4.0,346.0,1038.0,519.0,692.0,173.0,865.0,yellow,flipped triangle
0.0,3.0,2.0,0.0,7.0,1.0,364.5204979998198,4.0,1.0,phase_3,,,,,173.0,1.0,173.0,1038.0,865.0,346.0,692.0,519.0,green,cross
0.0,5.0,0.5,1.0,7.0,3.0,364.9054050001723,4.0,1.0,phase_3,,,,,348.0,3.0,232.0,116.0,348.0,580.0,464.0,696.0,gray,triangle
0.0,2.0,1.0,0.0,7.0,5.0,353.0733590000636,4.0,1.0,phase_3,,,,,192.0,1.0,768.0,576.0,384.0,1152.0,192.0,960.0,yellow,flipped triangle
0.0,3.0,2.0,0.0,7.0,4.0,344.8969860000943,4.0,1.0,phase_3,,,,,1152.0,6.0,384.0,768.0,192.0,1152.0,960.0,576.0,green,cross
