raw_reward_magnitude,stim_reward,stepwise_reward_magnitude,paired_with_stopping,stim_location,response,reaction_time,block,num_trial_presentations,which_phase,stop_signal_trial_type,left_SSD,right_SSD,accuracy,chosen_bidding_amount,chosen_bidding_level,possible_bid_1,possible_bid_2,possible_bid_3,possible_bid_4,possible_bid_5,possible_bid_6,color_text,shape_text
641.0,3.0,3.0,0.0,1.0,1.0,372.0256819999576,1.0,1.0,phase_1,,,,,,,,,,,,,blue,cross
1316.0,4.0,4.0,0.0,4.0,4.0,393.1093809999311,1.0,1.0,phase_1,,,,,,,,,,,,,gray,flipped triangle
645.0,7.0,3.0,1.0,3.0,3.0,403.4711449999122,1.0,1.0,phase_1,,,,,,,,,,,,,white,I
1317.0,8.0,4.0,1.0,2.0,2.0,391.8323390000751,1.0,1.0,phase_1,,,,,,,,,,,,,cyan,circle
187.0,1.0,1.0,0.0,1.0,1.0,482.299495999996,1.0,1.0,phase_1,,,,,,,,,,,,,magenta,triangle
0.0,7.0,0.0,1.0,2.0,2.0,391.7232060000515,1.0,1.0,phase_1,,,,,,,,,,,,,white,I
137.0,5.0,1.0,1.0,1.0,1.0,383.535404000213,1.0,2.0,phase_1,,,,,,,,,,,,,green,square
1281.0,8.0,4.0,1.0,3.0,3.0,536.3566749999791,1.0,1.0,phase_1,,,,,,,,,,,,,cyan,circle
318.0,6.0,2.0,1.0,1.0,1.0,375.3568290001112,1.0,1.0,phase_1,,,,,,,,,,,,,yellow,diamond
0.0,5.0,0.0,1.0,3.0,3.0,376.2307560000408,1.0,1.0,phase_1,,,,,,,,,,,,,green,square
665.0,3.0,3.0,0.0,4.0,4.0,376.0885799999869,1.0,1.0,phase_1,,,,,,,,,,,,,blue,cross
147.0,5.0,1.0,1.0,2.0,2.0,364.4693119999829,1.0,1.0,phase_1,,,,,,,,,,,,,green,square
0.0,7.0,0.0,1.0,3.0,3.0,412.8498279999348,1.0,1.0,phase_1,,,,,,,,,,,,,white,I
166.0,5.0,1.0,1.0,4.0,4.0,498.1599360000928,1.0,1.0,phase_1,,,,,,,,,,,,,green,square
628.0,7.0,3.0,1.0,1.0,1.0,383.7056230001963,1.0,1.0,phase_1,,,,,,,,,,,,,white,I
660.0,7.0,3.0,1.0,4.0,4.0,384.2524389999653,1.0,2.0,phase_1,,,,,,,,,,,,,white,I
0.0,4.0,0.0,0.0,4.0,4.0,348.4857920000195,1.0,1.0,phase_1,,,,,,,,,,,,,gray,flipped triangle
642.0,3.0,3.0,0.0,2.0,2.0,375.7330820001243,1.0,1.0,phase_1,,,,,,,,,,,,,blue,cross
1300.0,4.0,4.0,0.0,1.0,1.0,363.7117769999349,1.0,1.0,phase_1,,,,,,,,,,,,,gray,flipped triangle
333.0,6.0,2.0,1.0,3.0,3.0,419.747296000196,1.0,1.0,phase_1,,,,,,,,,,,,,yellow,diamond
1297.0,8.0,4.0,1.0,3.0,3.0,470.7297770000878,1.0,1.0,phase_1,,,,,,,,,,,,,cyan,circle
148.0,5.0,1.0,1.0,4.0,4.0,346.5489230000003,1.0,1.0,phase_1,,,,,,,,,,,,,green,square
318.0,2.0,2.0,0.0,4.0,4.0,474.7166650001873,1.0,1.0,phase_1,,,,,,,,,,,,,orange,hexagon
1307.0,8.0,4.0,1.0,1.0,1.0,384.78633199997597,1.0,1.0,phase_1,,,,,,,,,,,,,cyan,circle
666.0,3.0,3.0,0.0,3.0,3.0,395.0011140000242,1.0,1.0,phase_1,,,,,,,,,,,,,blue,cross
0.0,7.0,0.0,1.0,3.0,3.0,420.3315219999695,1.0,1.0,phase_1,,,,,,,,,,,,,white,I
662.0,7.0,3.0,1.0,1.0,1.0,372.5658420000854,1.0,1.0,phase_1,,,,,,,,,,,,,white,I
1324.0,8.0,4.0,1.0,3.0,3.0,384.1454460000477,1.0,1.0,phase_1,,,,,,,,,,,,,cyan,circle
672.0,3.0,3.0,0.0,4.0,4.0,460.288311000113,1.0,1.0,phase_1,,,,,,,,,,,,,blue,cross
632.0,3.0,3.0,0.0,2.0,2.0,327.3724650000531,1.0,1.0,phase_1,,,,,,,,,,,,,blue,cross
159.0,1.0,1.0,0.0,1.0,1.0,365.4190550000749,1.0,1.0,phase_1,,,,,,,,,,,,,magenta,triangle
345.0,2.0,2.0,0.0,1.0,1.0,365.3946239999186,1.0,1.0,phase_1,,,,,,,,,,,,,orange,hexagon
1286.0,8.0,4.0,1.0,3.0,3.0,375.8534670000699,1.0,1.0,phase_1,,,,,,,,,,,,,cyan,circle
1291.0,8.0,4.0,1.0,2.0,2.0,390.6369119999908,1.0,1.0,phase_1,,,,,,,,,,,,,cyan,circle
1302.0,4.0,4.0,0.0,2.0,2.0,373.7819880000188,1.0,1.0,phase_1,,,,,,,,,,,,,gray,flipped triangle
1294.0,8.0,4.0,1.0,2.0,2.0,374.18212700004,1.0,1.0,phase_1,,,,,,,,,,,,,cyan,circle
0.0,5.0,0.0,1.0,1.0,1.0,353.3350519999203,1.0,1.0,phase_1,,,,,,,,,,,,,green,square
145.0,1.0,1.0,0.0,1.0,1.0,400.8771159999469,1.0,1.0,phase_1,,,,,,,,,,,,,magenta,triangle
164.0,1.0,1.0,0.0,3.0,3.0,403.9809590001368,1.0,1.0,phase_1,,,,,,,,,,,,,magenta,triangle
326.0,6.0,2.0,1.0,1.0,1.0,346.1268179999024,1.0,1.0,phase_1,,,,,,,,,,,,,yellow,diamond
324.0,6.0,2.0,1.0,1.0,1.0,317.1027559999402,1.0,1.0,phase_1,,,,,,,,,,,,,yellow,diamond
307.0,2.0,2.0,0.0,1.0,1.0,375.9628840000459,1.0,1.0,phase_1,,,,,,,,,,,,,orange,hexagon
634.0,7.0,3.0,1.0,1.0,1.0,324.9358329999268,1.0,1.0,phase_1,,,,,,,,,,,,,white,I
303.0,6.0,2.0,1.0,3.0,3.0,367.0878440000251,1.0,2.0,phase_1,,,,,,,,,,,,,yellow,diamond
326.0,2.0,2.0,0.0,2.0,2.0,428.0396619999465,1.0,1.0,phase_1,,,,,,,,,,,,,orange,hexagon
642.0,7.0,3.0,1.0,1.0,1.0,309.7154309998586,1.0,1.0,phase_1,,,,,,,,,,,,,white,I
161.0,5.0,1.0,1.0,3.0,3.0,401.8905210000412,1.0,1.0,phase_1,,,,,,,,,,,,,green,square
184.0,1.0,1.0,0.0,2.0,2.0,408.5463229998822,1.0,1.0,phase_1,,,,,,,,,,,,,magenta,triangle
673.0,7.0,3.0,1.0,1.0,1.0,354.5581559999391,1.0,1.0,phase_1,,,,,,,,,,,,,white,I
1301.0,8.0,4.0,1.0,2.0,2.0,326.0592189999443,1.0,1.0,phase_1,,,,,,,,,,,,,cyan,circle
323.0,6.0,2.0,1.0,2.0,2.0,361.9902299999467,1.0,1.0,phase_1,,,,,,,,,,,,,yellow,diamond
148.0,1.0,1.0,0.0,2.0,2.0,350.6459729999278,1.0,1.0,phase_1,,,,,,,,,,,,,magenta,triangle
0.0,3.0,0.0,0.0,1.0,1.0,306.556220999937,1.0,1.0,phase_1,,,,,,,,,,,,,blue,cross
325.0,2.0,2.0,0.0,1.0,1.0,336.4979570001196,1.0,2.0,phase_1,,,,,,,,,,,,,orange,hexagon
0.0,1.0,0.0,0.0,4.0,4.0,448.6541280000438,1.0,1.0,phase_1,,,,,,,,,,,,,magenta,triangle
1301.0,4.0,4.0,0.0,1.0,1.0,342.9795849999664,1.0,1.0,phase_1,,,,,,,,,,,,,gray,flipped triangle
184.0,5.0,1.0,1.0,2.0,2.0,402.5734330000432,1.0,1.0,phase_1,,,,,,,,,,,,,green,square
1310.0,8.0,4.0,1.0,2.0,2.0,347.3684000000503,1.0,1.0,phase_1,,,,,,,,,,,,,cyan,circle
324.0,6.0,2.0,1.0,4.0,4.0,466.7150679999849,1.0,1.0,phase_1,,,,,,,,,,,,,yellow,diamond
0.0,2.0,0.0,0.0,1.0,1.0,317.0062080000662,1.0,1.0,phase_1,,,,,,,,,,,,,orange,hexagon
318.0,6.0,2.0,1.0,3.0,3.0,418.7779249998584,1.0,1.0,phase_1,,,,,,,,,,,,,yellow,diamond
337.0,6.0,2.0,1.0,1.0,1.0,300.8975070001725,1.0,1.0,phase_1,,,,,,,,,,,,,yellow,diamond
628.0,3.0,3.0,0.0,3.0,3.0,473.6317919998782,1.0,1.0,phase_1,,,,,,,,,,,,,blue,cross
630.0,3.0,3.0,0.0,4.0,4.0,504.4306439999673,1.0,1.0,phase_1,,,,,,,,,,,,,blue,cross
637.0,7.0,3.0,1.0,3.0,3.0,450.0155729999733,1.0,1.0,phase_1,,,,,,,,,,,,,white,I
1321.0,8.0,4.0,1.0,3.0,3.0,438.9302600000064,1.0,1.0,phase_1,,,,,,,,,,,,,cyan,circle
158.0,1.0,1.0,0.0,3.0,3.0,410.5826359998445,1.0,1.0,phase_1,,,,,,,,,,,,,magenta,triangle
338.0,6.0,2.0,1.0,3.0,3.0,409.239811000134,1.0,1.0,phase_1,,,,,,,,,,,,,yellow,diamond
347.0,6.0,2.0,1.0,4.0,4.0,366.9138559998828,1.0,1.0,phase_1,,,,,,,,,,,,,yellow,diamond
1289.0,8.0,4.0,1.0,3.0,3.0,375.4360870000255,1.0,1.0,phase_1,,,,,,,,,,,,,cyan,circle
0.0,1.0,0.0,0.0,4.0,4.0,466.279036999822,1.0,1.0,phase_1,,,,,,,,,,,,,magenta,triangle
631.0,7.0,3.0,1.0,2.0,2.0,392.0802199997979,1.0,1.0,phase_1,,,,,,,,,,,,,white,I
162.0,1.0,1.0,0.0,3.0,3.0,430.0737009998556,1.0,1.0,phase_1,,,,,,,,,,,,,magenta,triangle
1319.0,8.0,4.0,1.0,4.0,4.0,353.9766860001236,1.0,1.0,phase_1,,,,,,,,,,,,,cyan,circle
344.0,2.0,2.0,0.0,1.0,1.0,356.7406759998448,1.0,1.0,phase_1,,,,,,,,,,,,,orange,hexagon
0.0,1.0,0.0,0.0,3.0,3.0,355.9075919999941,1.0,1.0,phase_1,,,,,,,,,,,,,magenta,triangle
310.0,6.0,2.0,1.0,1.0,1.0,318.3448719998978,1.0,1.0,phase_1,,,,,,,,,,,,,yellow,diamond
0.0,2.0,0.0,0.0,4.0,4.0,354.0910699998676,1.0,1.0,phase_1,,,,,,,,,,,,,orange,hexagon
641.0,7.0,3.0,1.0,1.0,1.0,401.9189360001292,1.0,1.0,phase_1,,,,,,,,,,,,,white,I
171.0,1.0,1.0,0.0,2.0,2.0,418.1568830001652,1.0,1.0,phase_1,,,,,,,,,,,,,magenta,triangle
323.0,2.0,2.0,0.0,3.0,3.0,407.9335489998357,1.0,1.0,phase_1,,,,,,,,,,,,,orange,hexagon
0.0,4.0,0.0,0.0,2.0,2.0,352.677635000191,1.0,1.0,phase_1,,,,,,,,,,,,,gray,flipped triangle
665.0,7.0,3.0,1.0,3.0,3.0,391.3493909999488,1.0,1.0,phase_1,,,,,,,,,,,,,white,I
177.0,1.0,1.0,0.0,4.0,4.0,373.7446160000672,1.0,1.0,phase_1,,,,,,,,,,,,,magenta,triangle
157.0,1.0,1.0,0.0,3.0,3.0,428.7960719998409,1.0,1.0,phase_1,,,,,,,,,,,,,magenta,triangle
0.0,4.0,0.0,0.0,1.0,1.0,390.0389080001787,1.0,1.0,phase_1,,,,,,,,,,,,,gray,flipped triangle
176.0,5.0,1.0,1.0,3.0,3.0,413.3426809999037,1.0,1.0,phase_1,,,,,,,,,,,,,green,square
626.0,7.0,3.0,1.0,2.0,2.0,401.9657710000501,1.0,1.0,phase_1,,,,,,,,,,,,,white,I
1302.0,8.0,4.0,1.0,4.0,4.0,390.7950459999938,1.0,1.0,phase_1,,,,,,,,,,,,,cyan,circle
1286.0,8.0,4.0,1.0,3.0,3.0,513.7438419999398,1.0,1.0,phase_1,,,,,,,,,,,,,cyan,circle
0.0,8.0,0.0,1.0,4.0,4.0,391.6227590000289,1.0,1.0,phase_1,,,,,,,,,,,,,cyan,circle
139.0,1.0,1.0,0.0,4.0,4.0,325.97793400009317,1.0,1.0,phase_1,,,,,,,,,,,,,magenta,triangle
656.0,3.0,3.0,0.0,3.0,3.0,376.0276420000537,1.0,1.0,phase_1,,,,,,,,,,,,,blue,cross
0.0,6.0,0.0,1.0,3.0,3.0,381.1700730000211,1.0,1.0,phase_1,,,,,,,,,,,,,yellow,diamond
666.0,3.0,3.0,0.0,3.0,3.0,393.2405799998832,1.0,1.0,phase_1,,,,,,,,,,,,,blue,cross
651.0,7.0,3.0,1.0,3.0,3.0,410.74305799998,1.0,1.0,phase_1,,,,,,,,,,,,,white,I
158.0,5.0,1.0,1.0,3.0,3.0,363.7404359999436,1.0,1.0,phase_1,,,,,,,,,,,,,green,square
654.0,7.0,3.0,1.0,3.0,3.0,373.8296029998764,1.0,1.0,phase_1,,,,,,,,,,,,,white,I
0.0,8.0,0.0,1.0,3.0,3.0,357.2060630001488,1.0,1.0,phase_1,,,,,,,,,,,,,cyan,circle
0.0,3.0,0.0,0.0,3.0,3.0,356.7603629999212,1.0,1.0,phase_1,,,,,,,,,,,,,blue,cross
141.0,5.0,1.0,1.0,2.0,2.0,300.6628320001709,2.0,1.0,phase_1,,,,,,,,,,,,,green,square
302.0,2.0,2.0,0.0,2.0,2.0,392.2409260001132,2.0,1.0,phase_1,,,,,,,,,,,,,orange,hexagon
179.0,1.0,1.0,0.0,3.0,3.0,355.9701429999222,2.0,1.0,phase_1,,,,,,,,,,,,,magenta,triangle
0.0,8.0,0.0,1.0,4.0,4.0,413.4171890000289,2.0,1.0,phase_1,,,,,,,,,,,,,cyan,circle
0.0,6.0,0.0,1.0,2.0,2.0,349.7565059999488,2.0,1.0,phase_1,,,,,,,,,,,,,yellow,diamond
1321.0,8.0,4.0,1.0,1.0,1.0,362.2776510001131,2.0,1.0,phase_1,,,,,,,,,,,,,cyan,circle
1294.0,4.0,4.0,0.0,4.0,4.0,393.6484630000905,2.0,1.0,phase_1,,,,,,,,,,,,,gray,flipped triangle
645.0,7.0,3.0,1.0,2.0,2.0,316.4706190000288,2.0,1.0,phase_1,,,,,,,,,,,,,white,I
305.0,6.0,2.0,1.0,4.0,4.0,373.9741079998566,2.0,1.0,phase_1,,,,,,,,,,,,,yellow,diamond
311.0,6.0,2.0,1.0,2.0,2.0,506.1241470000368,2.0,1.0,phase_1,,,,,,,,,,,,,yellow,diamond
175.0,5.0,1.0,1.0,4.0,4.0,352.7989689998776,2.0,1.0,phase_1,,,,,,,,,,,,,green,square
1278.0,8.0,4.0,1.0,2.0,2.0,354.148398999996,2.0,1.0,phase_1,,,,,,,,,,,,,cyan,circle
0.0,3.0,0.0,0.0,2.0,2.0,384.1461089998574,2.0,1.0,phase_1,,,,,,,,,,,,,blue,cross
157.0,5.0,1.0,1.0,4.0,4.0,373.1352659999629,2.0,1.0,phase_1,,,,,,,,,,,,,green,square
344.0,2.0,2.0,0.0,3.0,3.0,389.6121180000591,2.0,2.0,phase_1,,,,,,,,,,,,,orange,hexagon
1278.0,4.0,4.0,0.0,4.0,4.0,343.9769880001222,2.0,1.0,phase_1,,,,,,,,,,,,,gray,flipped triangle
168.0,5.0,1.0,1.0,4.0,4.0,367.7504279999084,2.0,1.0,phase_1,,,,,,,,,,,,,green,square
328.0,2.0,2.0,0.0,4.0,4.0,392.8758039999138,2.0,1.0,phase_1,,,,,,,,,,,,,orange,hexagon
307.0,6.0,2.0,1.0,3.0,3.0,365.4659039998478,2.0,1.0,phase_1,,,,,,,,,,,,,yellow,diamond
327.0,2.0,2.0,0.0,2.0,2.0,363.6118179999812,2.0,1.0,phase_1,,,,,,,,,,,,,orange,hexagon
1324.0,4.0,4.0,0.0,3.0,3.0,373.2489600001827,2.0,1.0,phase_1,,,,,,,,,,,,,gray,flipped triangle
0.0,2.0,0.0,0.0,2.0,2.0,408.660775999806,2.0,1.0,phase_1,,,,,,,,,,,,,orange,hexagon
0.0,2.0,0.0,0.0,2.0,2.0,399.5759639999505,2.0,2.0,phase_1,,,,,,,,,,,,,orange,hexagon
1290.0,4.0,4.0,0.0,2.0,2.0,336.5394239999659,2.0,1.0,phase_1,,,,,,,,,,,,,gray,flipped triangle
303.0,6.0,2.0,1.0,4.0,4.0,632.4982149999414,2.0,1.0,phase_1,,,,,,,,,,,,,yellow,diamond
166.0,1.0,1.0,0.0,1.0,1.0,345.3867299999729,2.0,1.0,phase_1,,,,,,,,,,,,,magenta,triangle
638.0,7.0,3.0,1.0,4.0,4.0,422.6222230001895,2.0,1.0,phase_1,,,,,,,,,,,,,white,I
174.0,1.0,1.0,0.0,4.0,4.0,374.9649589999535,2.0,1.0,phase_1,,,,,,,,,,,,,magenta,triangle
347.0,2.0,2.0,0.0,1.0,1.0,361.5456150000682,2.0,1.0,phase_1,,,,,,,,,,,,,orange,hexagon
324.0,2.0,2.0,0.0,2.0,2.0,346.4537899999413,2.0,1.0,phase_1,,,,,,,,,,,,,orange,hexagon
0.0,6.0,0.0,1.0,3.0,3.0,411.4620520001608,2.0,1.0,phase_1,,,,,,,,,,,,,yellow,diamond
336.0,6.0,2.0,1.0,1.0,1.0,336.8958460000613,2.0,1.0,phase_1,,,,,,,,,,,,,yellow,diamond
159.0,5.0,1.0,1.0,1.0,1.0,410.4677530001481,2.0,1.0,phase_1,,,,,,,,,,,,,green,square
1310.0,4.0,4.0,0.0,2.0,2.0,355.6925350001165,2.0,1.0,phase_1,,,,,,,,,,,,,gray,flipped triangle
0.0,3.0,0.0,0.0,1.0,1.0,316.0769480000454,2.0,1.0,phase_1,,,,,,,,,,,,,blue,cross
641.0,7.0,3.0,1.0,3.0,3.0,401.8665749999854,2.0,2.0,phase_1,,,,,,,,,,,,,white,I
184.0,1.0,1.0,0.0,2.0,2.0,964.3280870000126,2.0,1.0,phase_1,,,,,,,,,,,,,magenta,triangle
670.0,3.0,3.0,0.0,3.0,3.0,522.6420479998524,2.0,1.0,phase_1,,,,,,,,,,,,,blue,cross
187.0,5.0,1.0,1.0,1.0,1.0,318.5290650001207,2.0,1.0,phase_1,,,,,,,,,,,,,green,square
305.0,2.0,2.0,0.0,1.0,1.0,336.0989940001673,2.0,1.0,phase_1,,,,,,,,,,,,,orange,hexagon
1306.0,4.0,4.0,0.0,1.0,1.0,318.7382159999288,2.0,1.0,phase_1,,,,,,,,,,,,,gray,flipped triangle
174.0,1.0,1.0,0.0,2.0,2.0,315.2345680000508,2.0,1.0,phase_1,,,,,,,,,,,,,magenta,triangle
1308.0,8.0,4.0,1.0,1.0,1.0,411.3473969998722,2.0,1.0,phase_1,,,,,,,,,,,,,cyan,circle
340.0,2.0,2.0,0.0,4.0,4.0,522.040946000061,2.0,1.0,phase_1,,,,,,,,,,,,,orange,hexagon
670.0,7.0,3.0,1.0,4.0,4.0,503.1312329999764,2.0,1.0,phase_1,,,,,,,,,,,,,white,I
661.0,7.0,3.0,1.0,4.0,4.0,364.3843459999516,2.0,1.0,phase_1,,,,,,,,,,,,,white,I
143.0,5.0,1.0,1.0,4.0,4.0,374.2184499999439,2.0,1.0,phase_1,,,,,,,,,,,,,green,square
0.0,8.0,0.0,1.0,1.0,1.0,390.2660119999837,2.0,1.0,phase_1,,,,,,,,,,,,,cyan,circle
145.0,5.0,1.0,1.0,3.0,3.0,430.5350619999899,2.0,1.0,phase_1,,,,,,,,,,,,,green,square
1321.0,4.0,4.0,0.0,3.0,3.0,456.383857000219,2.0,1.0,phase_1,,,,,,,,,,,,,gray,flipped triangle
337.0,2.0,2.0,0.0,4.0,4.0,419.9929320000137,2.0,1.0,phase_1,,,,,,,,,,,,,orange,hexagon
177.0,5.0,1.0,1.0,2.0,2.0,397.1889160000046,2.0,1.0,phase_1,,,,,,,,,,,,,green,square
653.0,7.0,3.0,1.0,4.0,4.0,338.3396879999054,2.0,1.0,phase_1,,,,,,,,,,,,,white,I
0.0,6.0,0.0,1.0,3.0,3.0,388.4672839999439,2.0,1.0,phase_1,,,,,,,,,,,,,yellow,diamond
324.0,2.0,2.0,0.0,1.0,1.0,532.3200320001433,2.0,1.0,phase_1,,,,,,,,,,,,,orange,hexagon
305.0,2.0,2.0,0.0,3.0,3.0,421.0071439999865,2.0,1.0,phase_1,,,,,,,,,,,,,orange,hexagon
0.0,3.0,0.0,0.0,1.0,1.0,371.1262459999034,2.0,1.0,phase_1,,,,,,,,,,,,,blue,cross
1296.0,8.0,4.0,1.0,4.0,4.0,412.5338850001299,2.0,1.0,phase_1,,,,,,,,,,,,,cyan,circle
0.0,5.0,0.0,1.0,1.0,1.0,744.6120019999398,2.0,1.0,phase_1,,,,,,,,,,,,,green,square
1297.0,4.0,4.0,0.0,1.0,1.0,409.6300789999532,2.0,1.0,phase_1,,,,,,,,,,,,,gray,flipped triangle
0.0,3.0,0.0,0.0,1.0,1.0,318.4882559999096,2.0,1.0,phase_1,,,,,,,,,,,,,blue,cross
318.0,6.0,2.0,1.0,2.0,2.0,399.1308879999451,2.0,1.0,phase_1,,,,,,,,,,,,,yellow,diamond
174.0,5.0,1.0,1.0,3.0,3.0,385.180155000171,2.0,1.0,phase_1,,,,,,,,,,,,,green,square
310.0,2.0,2.0,0.0,1.0,1.0,291.3569349998397,2.0,1.0,phase_1,,,,,,,,,,,,,orange,hexagon
147.0,5.0,1.0,1.0,1.0,1.0,328.6237190000065,2.0,1.0,phase_1,,,,,,,,,,,,,green,square
0.0,8.0,0.0,1.0,4.0,4.0,427.7508310001394,2.0,1.0,phase_1,,,,,,,,,,,,,cyan,circle
1313.0,8.0,4.0,1.0,4.0,4.0,401.2232730001415,2.0,1.0,phase_1,,,,,,,,,,,,,cyan,circle
184.0,5.0,1.0,1.0,2.0,2.0,383.8854220000485,2.0,1.0,phase_1,,,,,,,,,,,,,green,square
171.0,5.0,1.0,1.0,3.0,3.0,449.7223390001181,2.0,1.0,phase_1,,,,,,,,,,,,,green,square
176.0,1.0,1.0,0.0,4.0,4.0,399.9186519999966,2.0,1.0,phase_1,,,,,,,,,,,,,magenta,triangle
651.0,3.0,3.0,0.0,4.0,4.0,450.949995999963,2.0,1.0,phase_1,,,,,,,,,,,,,blue,cross
174.0,5.0,1.0,1.0,2.0,2.0,354.3803590000607,2.0,1.0,phase_1,,,,,,,,,,,,,green,square
1277.0,8.0,4.0,1.0,4.0,4.0,355.3756270000576,2.0,1.0,phase_1,,,,,,,,,,,,,cyan,circle
155.0,1.0,1.0,0.0,2.0,2.0,356.1072770000919,2.0,1.0,phase_1,,,,,,,,,,,,,magenta,triangle
143.0,1.0,1.0,0.0,4.0,4.0,428.7772289999338,2.0,1.0,phase_1,,,,,,,,,,,,,magenta,triangle
0.0,8.0,0.0,1.0,4.0,4.0,342.5992460001907,2.0,1.0,phase_1,,,,,,,,,,,,,cyan,circle
1302.0,4.0,4.0,0.0,4.0,4.0,327.6312240000152,2.0,1.0,phase_1,,,,,,,,,,,,,gray,flipped triangle
0.0,2.0,0.0,0.0,2.0,2.0,384.5744380000724,2.0,1.0,phase_1,,,,,,,,,,,,,orange,hexagon
0.0,5.0,0.0,1.0,3.0,3.0,335.747357000173,2.0,1.0,phase_1,,,,,,,,,,,,,green,square
670.0,7.0,3.0,1.0,4.0,4.0,399.5692260000396,2.0,1.0,phase_1,,,,,,,,,,,,,white,I
347.0,2.0,2.0,0.0,4.0,4.0,419.8008109999591,2.0,2.0,phase_1,,,,,,,,,,,,,orange,hexagon
0.0,7.0,0.0,1.0,3.0,3.0,465.7513330000711,2.0,1.0,phase_1,,,,,,,,,,,,,white,I
344.0,6.0,2.0,1.0,3.0,3.0,372.2408739999991,2.0,1.0,phase_1,,,,,,,,,,,,,yellow,diamond
0.0,4.0,0.0,0.0,4.0,4.0,380.7882099999915,2.0,1.0,phase_1,,,,,,,,,,,,,gray,flipped triangle
314.0,6.0,2.0,1.0,1.0,1.0,362.826534000078,2.0,1.0,phase_1,,,,,,,,,,,,,yellow,diamond
311.0,6.0,2.0,1.0,2.0,2.0,393.883360000018,2.0,1.0,phase_1,,,,,,,,,,,,,yellow,diamond
318.0,2.0,2.0,0.0,1.0,1.0,326.4691649999349,2.0,1.0,phase_1,,,,,,,,,,,,,orange,hexagon
0.0,8.0,0.0,1.0,2.0,2.0,355.3665590000037,2.0,1.0,phase_1,,,,,,,,,,,,,cyan,circle
1291.0,4.0,4.0,0.0,3.0,3.0,401.914847999933,2.0,1.0,phase_1,,,,,,,,,,,,,gray,flipped triangle
0.0,5.0,0.0,1.0,2.0,2.0,411.9200669999827,2.0,1.0,phase_1,,,,,,,,,,,,,green,square
1281.0,8.0,4.0,1.0,2.0,2.0,382.9150960000334,2.0,1.0,phase_1,,,,,,,,,,,,,cyan,circle
666.0,7.0,3.0,1.0,2.0,2.0,353.2848639999884,2.0,1.0,phase_1,,,,,,,,,,,,,white,I
0.0,6.0,0.0,1.0,4.0,4.0,466.5979270000662,2.0,1.0,phase_1,,,,,,,,,,,,,yellow,diamond
164.0,5.0,1.0,1.0,3.0,3.0,475.8054450001054,2.0,1.0,phase_1,,,,,,,,,,,,,green,square
0.0,5.0,0.0,1.0,1.0,1.0,383.0353159999049,2.0,1.0,phase_1,,,,,,,,,,,,,green,square
0.0,6.0,0.0,1.0,4.0,4.0,373.9964559999862,2.0,1.0,phase_1,,,,,,,,,,,,,yellow,diamond
318.0,2.0,2.0,0.0,4.0,4.0,420.6542949998493,2.0,1.0,phase_1,,,,,,,,,,,,,orange,hexagon
0.0,1.0,0.0,0.0,3.0,3.0,476.6939490000368,2.0,1.0,phase_1,,,,,,,,,,,,,magenta,triangle
1286.0,4.0,4.0,0.0,2.0,2.0,396.5926910000235,2.0,1.0,phase_1,,,,,,,,,,,,,gray,flipped triangle
0.0,3.0,0.0,0.0,4.0,4.0,374.6383630000309,2.0,1.0,phase_1,,,,,,,,,,,,,blue,cross
147.0,1.0,1.0,0.0,1.0,1.0,317.091924999886,3.0,1.0,phase_1,,,,,,,,,,,,,magenta,triangle
0.0,8.0,0.0,1.0,2.0,2.0,401.7114870000569,3.0,1.0,phase_1,,,,,,,,,,,,,cyan,circle
315.0,6.0,2.0,1.0,3.0,3.0,395.2960020001228,3.0,1.0,phase_1,,,,,,,,,,,,,yellow,diamond
300.0,2.0,2.0,0.0,2.0,2.0,350.2941980000287,3.0,1.0,phase_1,,,,,,,,,,,,,orange,hexagon
631.0,7.0,3.0,1.0,1.0,1.0,357.1076709999943,3.0,1.0,phase_1,,,,,,,,,,,,,white,I
162.0,5.0,1.0,1.0,2.0,2.0,364.4694429999617,3.0,1.0,phase_1,,,,,,,,,,,,,green,square
314.0,2.0,2.0,0.0,3.0,3.0,403.8049870000577,3.0,1.0,phase_1,,,,,,,,,,,,,orange,hexagon
137.0,1.0,1.0,0.0,2.0,2.0,372.8943109999818,3.0,1.0,phase_1,,,,,,,,,,,,,magenta,triangle
642.0,7.0,3.0,1.0,2.0,2.0,439.0469950001261,3.0,1.0,phase_1,,,,,,,,,,,,,white,I
648.0,7.0,3.0,1.0,2.0,2.0,393.5253319998537,3.0,1.0,phase_1,,,,,,,,,,,,,white,I
186.0,1.0,1.0,0.0,4.0,4.0,359.9886869999409,3.0,1.0,phase_1,,,,,,,,,,,,,magenta,triangle
1294.0,8.0,4.0,1.0,4.0,4.0,395.0792440000441,3.0,1.0,phase_1,,,,,,,,,,,,,cyan,circle
347.0,6.0,2.0,1.0,3.0,3.0,391.00825599985,3.0,1.0,phase_1,,,,,,,,,,,,,yellow,diamond
0.0,1.0,0.0,0.0,3.0,3.0,385.3550240000913,3.0,1.0,phase_1,,,,,,,,,,,,,magenta,triangle
1316.0,4.0,4.0,0.0,4.0,4.0,344.5444550000047,3.0,1.0,phase_1,,,,,,,,,,,,,gray,flipped triangle
0.0,6.0,0.0,1.0,4.0,4.0,356.8287740001779,3.0,1.0,phase_1,,,,,,,,,,,,,yellow,diamond
666.0,3.0,3.0,0.0,3.0,3.0,464.6292259999427,3.0,1.0,phase_1,,,,,,,,,,,,,blue,cross
341.0,2.0,2.0,0.0,2.0,2.0,354.2566449998503,3.0,1.0,phase_1,,,,,,,,,,,,,orange,hexagon
140.0,1.0,1.0,0.0,2.0,2.0,391.0921860001508,3.0,1.0,phase_1,,,,,,,,,,,,,magenta,triangle
653.0,3.0,3.0,0.0,4.0,4.0,335.3529309999885,3.0,1.0,phase_1,,,,,,,,,,,,,blue,cross
0.0,1.0,0.0,0.0,1.0,1.0,344.5151769999484,3.0,1.0,phase_1,,,,,,,,,,,,,magenta,triangle
1276.0,4.0,4.0,0.0,4.0,4.0,343.7259429999812,3.0,1.0,phase_1,,,,,,,,,,,,,gray,flipped triangle
1307.0,4.0,4.0,0.0,3.0,3.0,404.7744049998982,3.0,1.0,phase_1,,,,,,,,,,,,,gray,flipped triangle
1297.0,4.0,4.0,0.0,3.0,3.0,364.0784340000209,3.0,1.0,phase_1,,,,,,,,,,,,,gray,flipped triangle
662.0,3.0,3.0,0.0,1.0,1.0,355.127333000155,3.0,1.0,phase_1,,,,,,,,,,,,,blue,cross
1316.0,8.0,4.0,1.0,1.0,1.0,344.1616699999485,3.0,1.0,phase_1,,,,,,,,,,,,,cyan,circle
0.0,2.0,0.0,0.0,1.0,1.0,325.0911519999135,3.0,1.0,phase_1,,,,,,,,,,,,,orange,hexagon
1314.0,8.0,4.0,1.0,1.0,1.0,353.8784170000326,3.0,1.0,phase_1,,,,,,,,,,,,,cyan,circle
0.0,7.0,0.0,1.0,1.0,1.0,345.4627300000084,3.0,1.0,phase_1,,,,,,,,,,,,,white,I
642.0,3.0,3.0,0.0,1.0,1.0,377.1812069999214,3.0,1.0,phase_1,,,,,,,,,,,,,blue,cross
0.0,3.0,0.0,0.0,1.0,1.0,344.036264000124,3.0,1.0,phase_1,,,,,,,,,,,,,blue,cross
0.0,5.0,0.0,1.0,4.0,4.0,316.5983029998642,3.0,1.0,phase_1,,,,,,,,,,,,,green,square
1313.0,4.0,4.0,0.0,4.0,4.0,344.6615640000345,3.0,1.0,phase_1,,,,,,,,,,,,,gray,flipped triangle
310.0,2.0,2.0,0.0,3.0,3.0,410.2841030000945,3.0,1.0,phase_1,,,,,,,,,,,,,orange,hexagon
641.0,3.0,3.0,0.0,4.0,4.0,335.6315349999477,3.0,1.0,phase_1,,,,,,,,,,,,,blue,cross
1314.0,4.0,4.0,0.0,4.0,4.0,343.7082410000585,3.0,1.0,phase_1,,,,,,,,,,,,,gray,flipped triangle
141.0,1.0,1.0,0.0,1.0,1.0,382.2668309999244,3.0,1.0,phase_1,,,,,,,,,,,,,magenta,triangle
1281.0,4.0,4.0,0.0,3.0,3.0,371.9264309997925,3.0,1.0,phase_1,,,,,,,,,,,,,gray,flipped triangle
0.0,6.0,0.0,1.0,4.0,4.0,343.8985569998749,3.0,1.0,phase_1,,,,,,,,,,,,,yellow,diamond
666.0,3.0,3.0,0.0,4.0,4.0,347.8007940000225,3.0,1.0,phase_1,,,,,,,,,,,,,blue,cross
1306.0,8.0,4.0,1.0,2.0,2.0,468.9217279999411,3.0,1.0,phase_1,,,,,,,,,,,,,cyan,circle
661.0,3.0,3.0,0.0,3.0,3.0,440.1480950000405,3.0,1.0,phase_1,,,,,,,,,,,,,blue,cross
327.0,6.0,2.0,1.0,1.0,1.0,373.7452880000091,3.0,1.0,phase_1,,,,,,,,,,,,,yellow,diamond
656.0,3.0,3.0,0.0,2.0,2.0,411.599815000045,3.0,1.0,phase_1,,,,,,,,,,,,,blue,cross
344.0,6.0,2.0,1.0,4.0,4.0,319.0517939999608,3.0,1.0,phase_1,,,,,,,,,,,,,yellow,diamond
143.0,1.0,1.0,0.0,4.0,4.0,317.0390410000436,3.0,1.0,phase_1,,,,,,,,,,,,,magenta,triangle
1300.0,8.0,4.0,1.0,2.0,2.0,382.0484739999301,3.0,1.0,phase_1,,,,,,,,,,,,,cyan,circle
630.0,7.0,3.0,1.0,1.0,1.0,326.4603590000661,3.0,1.0,phase_1,,,,,,,,,,,,,white,I
311.0,2.0,2.0,0.0,4.0,4.0,325.1696279999123,3.0,1.0,phase_1,,,,,,,,,,,,,orange,hexagon
0.0,5.0,0.0,1.0,2.0,2.0,392.0898040000793,3.0,1.0,phase_1,,,,,,,,,,,,,green,square
302.0,6.0,2.0,1.0,2.0,2.0,373.7535000000207,3.0,1.0,phase_1,,,,,,,,,,,,,yellow,diamond
0.0,7.0,0.0,1.0,4.0,4.0,457.7238340000349,3.0,2.0,phase_1,,,,,,,,,,,,,white,I
656.0,7.0,3.0,1.0,3.0,3.0,365.6112689998281,3.0,1.0,phase_1,,,,,,,,,,,,,white,I
1302.0,8.0,4.0,1.0,4.0,4.0,587.3796599998968,3.0,1.0,phase_1,,,,,,,,,,,,,cyan,circle
1289.0,4.0,4.0,0.0,1.0,1.0,360.1663990000361,3.0,1.0,phase_1,,,,,,,,,,,,,gray,flipped triangle
175.0,1.0,1.0,0.0,3.0,3.0,352.0658780000758,3.0,1.0,phase_1,,,,,,,,,,,,,magenta,triangle
143.0,1.0,1.0,0.0,1.0,1.0,327.2839480000584,3.0,1.0,phase_1,,,,,,,,,,,,,magenta,triangle
156.0,5.0,1.0,1.0,1.0,1.0,373.6973930001568,3.0,1.0,phase_1,,,,,,,,,,,,,green,square
1314.0,4.0,4.0,0.0,1.0,1.0,319.0311240000483,3.0,1.0,phase_1,,,,,,,,,,,,,gray,flipped triangle
0.0,8.0,0.0,1.0,1.0,1.0,382.2135180000714,3.0,1.0,phase_1,,,,,,,,,,,,,cyan,circle
167.0,5.0,1.0,1.0,4.0,4.0,439.0934609998567,3.0,1.0,phase_1,,,,,,,,,,,,,green,square
0.0,3.0,0.0,0.0,2.0,2.0,345.7677240000976,3.0,1.0,phase_1,,,,,,,,,,,,,blue,cross
662.0,7.0,3.0,1.0,3.0,3.0,346.128022999892,3.0,1.0,phase_1,,,,,,,,,,,,,white,I
662.0,3.0,3.0,0.0,1.0,1.0,382.2450299999218,3.0,1.0,phase_1,,,,,,,,,,,,,blue,cross
0.0,2.0,0.0,0.0,1.0,1.0,356.0467739998785,3.0,1.0,phase_1,,,,,,,,,,,,,orange,hexagon
154.0,1.0,1.0,0.0,3.0,3.0,409.933318999947,3.0,1.0,phase_1,,,,,,,,,,,,,magenta,triangle
179.0,5.0,1.0,1.0,3.0,3.0,371.3091340000574,3.0,1.0,phase_1,,,,,,,,,,,,,green,square
176.0,5.0,1.0,1.0,3.0,3.0,329.2203109999718,3.0,2.0,phase_1,,,,,,,,,,,,,green,square
0.0,6.0,0.0,1.0,4.0,4.0,384.2444479998903,3.0,1.0,phase_1,,,,,,,,,,,,,yellow,diamond
153.0,1.0,1.0,0.0,1.0,1.0,362.5268050000159,3.0,1.0,phase_1,,,,,,,,,,,,,magenta,triangle
626.0,3.0,3.0,0.0,3.0,3.0,346.3450190001822,3.0,1.0,phase_1,,,,,,,,,,,,,blue,cross
0.0,4.0,0.0,0.0,1.0,1.0,361.8484629998875,3.0,1.0,phase_1,,,,,,,,,,,,,gray,flipped triangle
1279.0,4.0,4.0,0.0,1.0,1.0,419.6036289999938,3.0,1.0,phase_1,,,,,,,,,,,,,gray,flipped triangle
1319.0,4.0,4.0,0.0,2.0,2.0,382.0561280001584,3.0,1.0,phase_1,,,,,,,,,,,,,gray,flipped triangle
0.0,4.0,0.0,0.0,2.0,2.0,355.3508429999965,3.0,1.0,phase_1,,,,,,,,,,,,,gray,flipped triangle
645.0,3.0,3.0,0.0,2.0,2.0,391.966691999869,3.0,1.0,phase_1,,,,,,,,,,,,,blue,cross
340.0,6.0,2.0,1.0,4.0,4.0,399.1094339999108,3.0,1.0,phase_1,,,,,,,,,,,,,yellow,diamond
303.0,2.0,2.0,0.0,1.0,1.0,365.6430159999217,3.0,1.0,phase_1,,,,,,,,,,,,,orange,hexagon
348.0,2.0,2.0,0.0,2.0,2.0,381.0579150001558,3.0,1.0,phase_1,,,,,,,,,,,,,orange,hexagon
147.0,1.0,1.0,0.0,3.0,3.0,437.4321899999813,3.0,1.0,phase_1,,,,,,,,,,,,,magenta,triangle
1297.0,8.0,4.0,1.0,1.0,1.0,364.1835900000387,3.0,1.0,phase_1,,,,,,,,,,,,,cyan,circle
317.0,2.0,2.0,0.0,4.0,4.0,465.9983760000159,3.0,1.0,phase_1,,,,,,,,,,,,,orange,hexagon
167.0,1.0,1.0,0.0,1.0,1.0,373.1861539999954,3.0,1.0,phase_1,,,,,,,,,,,,,magenta,triangle
0.0,2.0,0.0,0.0,2.0,2.0,455.1327070000752,3.0,1.0,phase_1,,,,,,,,,,,,,orange,hexagon
673.0,3.0,3.0,0.0,2.0,2.0,336.3792730001478,3.0,1.0,phase_1,,,,,,,,,,,,,blue,cross
1314.0,8.0,4.0,1.0,1.0,1.0,354.3803799998386,3.0,1.0,phase_1,,,,,,,,,,,,,cyan,circle
167.0,1.0,1.0,0.0,3.0,3.0,622.2785699999349,3.0,1.0,phase_1,,,,,,,,,,,,,magenta,triangle
155.0,5.0,1.0,1.0,3.0,3.0,365.4428770000777,3.0,1.0,phase_1,,,,,,,,,,,,,green,square
656.0,7.0,3.0,1.0,2.0,2.0,366.4671129999988,3.0,1.0,phase_1,,,,,,,,,,,,,white,I
156.0,1.0,1.0,0.0,3.0,3.0,345.9489370000028,3.0,1.0,phase_1,,,,,,,,,,,,,magenta,triangle
1293.0,8.0,4.0,1.0,4.0,4.0,426.4087060000747,3.0,1.0,phase_1,,,,,,,,,,,,,cyan,circle
632.0,7.0,3.0,1.0,4.0,4.0,365.2871199999481,3.0,1.0,phase_1,,,,,,,,,,,,,white,I
333.0,2.0,2.0,0.0,2.0,2.0,384.958609000023,3.0,1.0,phase_1,,,,,,,,,,,,,orange,hexagon
651.0,7.0,3.0,1.0,3.0,3.0,346.0929210000358,3.0,1.0,phase_1,,,,,,,,,,,,,white,I
0.0,1.0,0.0,0.0,3.0,3.0,410.9557290000794,3.0,1.0,phase_1,,,,,,,,,,,,,magenta,triangle
0.0,1.0,0.0,0.0,4.0,4.0,459.0246870000101,3.0,1.0,phase_1,,,,,,,,,,,,,magenta,triangle
665.0,3.0,3.0,0.0,3.0,3.0,391.66766900007127,3.0,1.0,phase_1,,,,,,,,,,,,,blue,cross
300.0,6.0,2.0,1.0,4.0,4.0,307.6245710001331,3.0,1.0,phase_1,,,,,,,,,,,,,yellow,diamond
0.0,1.0,0.0,0.0,2.0,2.0,338.3513830001448,3.0,1.0,phase_1,,,,,,,,,,,,,magenta,triangle
638.0,3.0,3.0,0.0,4.0,4.0,468.3568250000007,3.0,1.0,phase_1,,,,,,,,,,,,,blue,cross
1307.0,4.0,4.0,0.0,1.0,1.0,287.0765430000119,4.0,1.0,phase_1,,,,,,,,,,,,,gray,flipped triangle
328.0,6.0,2.0,1.0,4.0,4.0,353.2070860001113,4.0,1.0,phase_1,,,,,,,,,,,,,yellow,diamond
336.0,2.0,2.0,0.0,2.0,2.0,345.4958679999436,4.0,1.0,phase_1,,,,,,,,,,,,,orange,hexagon
317.0,6.0,2.0,1.0,1.0,1.0,519.313038999826,4.0,1.0,phase_1,,,,,,,,,,,,,yellow,diamond
143.0,5.0,1.0,1.0,1.0,1.0,344.2345170001317,4.0,1.0,phase_1,,,,,,,,,,,,,green,square
315.0,2.0,2.0,0.0,3.0,3.0,456.7741290002232,4.0,1.0,phase_1,,,,,,,,,,,,,orange,hexagon
1317.0,4.0,4.0,0.0,1.0,1.0,366.1392040003193,4.0,1.0,phase_1,,,,,,,,,,,,,gray,flipped triangle
0.0,4.0,0.0,0.0,4.0,4.0,364.1245539997726,4.0,1.0,phase_1,,,,,,,,,,,,,gray,flipped triangle
341.0,6.0,2.0,1.0,2.0,2.0,355.2418770000258,4.0,1.0,phase_1,,,,,,,,,,,,,yellow,diamond
337.0,2.0,2.0,0.0,3.0,3.0,374.1317210001398,4.0,1.0,phase_1,,,,,,,,,,,,,orange,hexagon
1282.0,8.0,4.0,1.0,1.0,1.0,354.4249550000131,4.0,2.0,phase_1,,,,,,,,,,,,,cyan,circle
0.0,7.0,0.0,1.0,3.0,3.0,382.5522460001593,4.0,2.0,phase_1,,,,,,,,,,,,,white,I
1294.0,4.0,4.0,0.0,2.0,2.0,521.3570350001646,4.0,1.0,phase_1,,,,,,,,,,,,,gray,flipped triangle
651.0,3.0,3.0,0.0,1.0,1.0,403.8346010001987,4.0,1.0,phase_1,,,,,,,,,,,,,blue,cross
0.0,4.0,0.0,0.0,3.0,3.0,421.4660370003003,4.0,1.0,phase_1,,,,,,,,,,,,,gray,flipped triangle
666.0,7.0,3.0,1.0,1.0,1.0,374.2525380002917,4.0,1.0,phase_1,,,,,,,,,,,,,white,I
1316.0,8.0,4.0,1.0,4.0,4.0,459.6655390000705,4.0,1.0,phase_1,,,,,,,,,,,,,cyan,circle
632.0,3.0,3.0,0.0,4.0,4.0,374.1400210001302,4.0,1.0,phase_1,,,,,,,,,,,,,blue,cross
1276.0,8.0,4.0,1.0,3.0,3.0,492.3636009998517,4.0,1.0,phase_1,,,,,,,,,,,,,cyan,circle
153.0,5.0,1.0,1.0,4.0,4.0,411.8312939999669,4.0,1.0,phase_1,,,,,,,,,,,,,green,square
1325.0,4.0,4.0,0.0,2.0,2.0,372.2163629995521,4.0,1.0,phase_1,,,,,,,,,,,,,gray,flipped triangle
631.0,3.0,3.0,0.0,1.0,1.0,308.2744170001206,4.0,1.0,phase_1,,,,,,,,,,,,,blue,cross
667.0,7.0,3.0,1.0,4.0,4.0,393.4731220001595,4.0,1.0,phase_1,,,,,,,,,,,,,white,I
168.0,1.0,1.0,0.0,4.0,4.0,427.2252099999605,4.0,1.0,phase_1,,,,,,,,,,,,,magenta,triangle
1321.0,4.0,4.0,0.0,4.0,4.0,420.8848110001781,4.0,1.0,phase_1,,,,,,,,,,,,,gray,flipped triangle
0.0,1.0,0.0,0.0,2.0,2.0,448.7399919999006,4.0,2.0,phase_1,,,,,,,,,,,,,magenta,triangle
338.0,2.0,2.0,0.0,3.0,3.0,422.0323700001245,4.0,1.0,phase_1,,,,,,,,,,,,,orange,hexagon
0.0,7.0,0.0,1.0,4.0,4.0,429.7055500001079,4.0,1.0,phase_1,,,,,,,,,,,,,white,I
167.0,5.0,1.0,1.0,4.0,4.0,400.395177000064,4.0,1.0,phase_1,,,,,,,,,,,,,green,square
348.0,6.0,2.0,1.0,2.0,2.0,382.7315220000855,4.0,1.0,phase_1,,,,,,,,,,,,,yellow,diamond
347.0,6.0,2.0,1.0,1.0,1.0,380.8911229998557,4.0,1.0,phase_1,,,,,,,,,,,,,yellow,diamond
666.0,7.0,3.0,1.0,2.0,2.0,457.5372899998911,4.0,1.0,phase_1,,,,,,,,,,,,,white,I
645.0,3.0,3.0,0.0,1.0,1.0,336.5531680001368,4.0,1.0,phase_1,,,,,,,,,,,,,blue,cross
1286.0,4.0,4.0,0.0,2.0,2.0,391.5295519996107,4.0,1.0,phase_1,,,,,,,,,,,,,gray,flipped triangle
0.0,3.0,0.0,0.0,2.0,2.0,383.618836000096,4.0,1.0,phase_1,,,,,,,,,,,,,blue,cross
328.0,2.0,2.0,0.0,3.0,3.0,421.1315490001652,4.0,1.0,phase_1,,,,,,,,,,,,,orange,hexagon
162.0,5.0,1.0,1.0,2.0,2.0,336.7380290001165,4.0,1.0,phase_1,,,,,,,,,,,,,green,square
0.0,4.0,0.0,0.0,2.0,2.0,390.1759469999888,4.0,1.0,phase_1,,,,,,,,,,,,,gray,flipped triangle
1290.0,8.0,4.0,1.0,2.0,2.0,364.63275899996,4.0,1.0,phase_1,,,,,,,,,,,,,cyan,circle
666.0,7.0,3.0,1.0,1.0,1.0,373.5765569999785,4.0,1.0,phase_1,,,,,,,,,,,,,white,I
1305.0,8.0,4.0,1.0,3.0,3.0,399.6547260003353,4.0,1.0,phase_1,,,,,,,,,,,,,cyan,circle
1282.0,4.0,4.0,0.0,2.0,2.0,319.2877239998779,4.0,1.0,phase_1,,,,,,,,,,,,,gray,flipped triangle
1308.0,4.0,4.0,0.0,3.0,3.0,374.3054999999913,4.0,1.0,phase_1,,,,,,,,,,,,,gray,flipped triangle
180.0,1.0,1.0,0.0,1.0,1.0,356.3817919998655,4.0,1.0,phase_1,,,,,,,,,,,,,magenta,triangle
155.0,5.0,1.0,1.0,1.0,1.0,580.2662330002022,4.0,1.0,phase_1,,,,,,,,,,,,,green,square
1285.0,4.0,4.0,0.0,1.0,1.0,357.8647149997778,4.0,1.0,phase_1,,,,,,,,,,,,,gray,flipped triangle
0.0,8.0,0.0,1.0,1.0,1.0,326.1382330001652,4.0,1.0,phase_1,,,,,,,,,,,,,cyan,circle
0.0,4.0,0.0,0.0,1.0,1.0,309.5361360001334,4.0,1.0,phase_1,,,,,,,,,,,,,gray,flipped triangle
139.0,5.0,1.0,1.0,4.0,4.0,429.514066000138,4.0,1.0,phase_1,,,,,,,,,,,,,green,square
343.0,2.0,2.0,0.0,3.0,3.0,431.6181900003357,4.0,1.0,phase_1,,,,,,,,,,,,,orange,hexagon
325.0,6.0,2.0,1.0,4.0,4.0,414.0453200002412,4.0,1.0,phase_1,,,,,,,,,,,,,yellow,diamond
162.0,1.0,1.0,0.0,4.0,4.0,392.2797720001654,4.0,1.0,phase_1,,,,,,,,,,,,,magenta,triangle
0.0,5.0,0.0,1.0,4.0,4.0,383.9164649998565,4.0,1.0,phase_1,,,,,,,,,,,,,green,square
665.0,7.0,3.0,1.0,4.0,4.0,344.3709039997884,4.0,1.0,phase_1,,,,,,,,,,,,,white,I
310.0,6.0,2.0,1.0,2.0,2.0,364.1200209999624,4.0,1.0,phase_1,,,,,,,,,,,,,yellow,diamond
337.0,6.0,2.0,1.0,3.0,3.0,420.7406010000341,4.0,1.0,phase_1,,,,,,,,,,,,,yellow,diamond
660.0,3.0,3.0,0.0,2.0,2.0,724.7536439999749,4.0,1.0,phase_1,,,,,,,,,,,,,blue,cross
180.0,5.0,1.0,1.0,2.0,2.0,385.444009999901,4.0,1.0,phase_1,,,,,,,,,,,,,green,square
0.0,7.0,0.0,1.0,4.0,4.0,383.4587450000981,4.0,1.0,phase_1,,,,,,,,,,,,,white,I
328.0,6.0,2.0,1.0,4.0,4.0,411.7818139998235,4.0,1.0,phase_1,,,,,,,,,,,,,yellow,diamond
305.0,6.0,2.0,1.0,3.0,3.0,382.6818790003017,4.0,1.0,phase_1,,,,,,,,,,,,,yellow,diamond
648.0,3.0,3.0,0.0,2.0,2.0,385.3112110000438,4.0,1.0,phase_1,,,,,,,,,,,,,blue,cross
0.0,7.0,0.0,1.0,4.0,4.0,329.6750099998462,4.0,1.0,phase_1,,,,,,,,,,,,,white,I
140.0,5.0,1.0,1.0,2.0,2.0,448.7367060000906,4.0,1.0,phase_1,,,,,,,,,,,,,green,square
143.0,5.0,1.0,1.0,1.0,1.0,382.3979150001833,4.0,1.0,phase_1,,,,,,,,,,,,,green,square
637.0,3.0,3.0,0.0,1.0,1.0,382.7070520001143,4.0,1.0,phase_1,,,,,,,,,,,,,blue,cross
627.0,3.0,3.0,0.0,1.0,1.0,306.7121099998076,4.0,1.0,phase_1,,,,,,,,,,,,,blue,cross
672.0,7.0,3.0,1.0,2.0,2.0,340.5906120001418,4.0,1.0,phase_1,,,,,,,,,,,,,white,I
670.0,3.0,3.0,0.0,4.0,4.0,391.9605139999476,4.0,1.0,phase_1,,,,,,,,,,,,,blue,cross
654.0,3.0,3.0,0.0,3.0,3.0,430.0458239999898,4.0,1.0,phase_1,,,,,,,,,,,,,blue,cross
0.0,2.0,0.0,0.0,3.0,3.0,441.6400760001124,4.0,1.0,phase_1,,,,,,,,,,,,,orange,hexagon
176.0,1.0,1.0,0.0,2.0,2.0,345.7395659997928,4.0,1.0,phase_1,,,,,,,,,,,,,magenta,triangle
303.0,2.0,2.0,0.0,4.0,4.0,449.510554000426,4.0,1.0,phase_1,,,,,,,,,,,,,orange,hexagon
1281.0,4.0,4.0,0.0,2.0,2.0,587.9458079998585,4.0,1.0,phase_1,,,,,,,,,,,,,gray,flipped triangle
632.0,7.0,3.0,1.0,4.0,4.0,402.9391179997219,4.0,2.0,phase_1,,,,,,,,,,,,,white,I
627.0,7.0,3.0,1.0,2.0,2.0,400.6214439996256,4.0,1.0,phase_1,,,,,,,,,,,,,white,I
1285.0,8.0,4.0,1.0,1.0,1.0,428.1861730000855,4.0,1.0,phase_1,,,,,,,,,,,,,cyan,circle
667.0,3.0,3.0,0.0,2.0,2.0,503.55517499974667,4.0,1.0,phase_1,,,,,,,,,,,,,blue,cross
634.0,3.0,3.0,0.0,1.0,1.0,439.714105999883,4.0,1.0,phase_1,,,,,,,,,,,,,blue,cross
1325.0,8.0,4.0,1.0,3.0,3.0,484.4733170002655,4.0,1.0,phase_1,,,,,,,,,,,,,cyan,circle
345.0,6.0,2.0,1.0,2.0,2.0,374.041385000055,4.0,1.0,phase_1,,,,,,,,,,,,,yellow,diamond
154.0,5.0,1.0,1.0,1.0,1.0,437.7500470000086,4.0,1.0,phase_1,,,,,,,,,,,,,green,square
637.0,7.0,3.0,1.0,3.0,3.0,412.0752710000488,4.0,1.0,phase_1,,,,,,,,,,,,,white,I
1305.0,4.0,4.0,0.0,3.0,3.0,403.131580000263,4.0,1.0,phase_1,,,,,,,,,,,,,gray,flipped triangle
637.0,3.0,3.0,0.0,2.0,2.0,327.3402679997161,4.0,1.0,phase_1,,,,,,,,,,,,,blue,cross
0.0,2.0,0.0,0.0,3.0,3.0,390.9082069999385,4.0,1.0,phase_1,,,,,,,,,,,,,orange,hexagon
1279.0,8.0,4.0,1.0,4.0,4.0,408.9959490002002,4.0,1.0,phase_1,,,,,,,,,,,,,cyan,circle
0.0,6.0,0.0,1.0,4.0,4.0,410.56736300015467,4.0,1.0,phase_1,,,,,,,,,,,,,yellow,diamond
155.0,1.0,1.0,0.0,2.0,2.0,429.9579470002754,4.0,1.0,phase_1,,,,,,,,,,,,,magenta,triangle
347.0,2.0,2.0,0.0,2.0,2.0,355.4526509997231,4.0,1.0,phase_1,,,,,,,,,,,,,orange,hexagon
1307.0,8.0,4.0,1.0,1.0,1.0,398.4988810002505,4.0,1.0,phase_1,,,,,,,,,,,,,cyan,circle
1293.0,4.0,4.0,0.0,3.0,3.0,384.4335389999287,4.0,1.0,phase_1,,,,,,,,,,,,,gray,flipped triangle
186.0,5.0,1.0,1.0,1.0,1.0,381.0268809997978,4.0,1.0,phase_1,,,,,,,,,,,,,green,square
161.0,1.0,1.0,0.0,4.0,4.0,429.3091770000501,4.0,1.0,phase_1,,,,,,,,,,,,,magenta,triangle
311.0,2.0,2.0,0.0,4.0,4.0,557.9499099999339,4.0,1.0,phase_1,,,,,,,,,,,,,orange,hexagon
1296.0,4.0,4.0,0.0,4.0,4.0,406.602002999989,4.0,1.0,phase_1,,,,,,,,,,,,,gray,flipped triangle
1277.0,4.0,4.0,0.0,3.0,3.0,374.2392590002055,4.0,1.0,phase_1,,,,,,,,,,,,,gray,flipped triangle
0.0,5.0,0.0,1.0,2.0,2.0,419.3472690003545,4.0,1.0,phase_1,,,,,,,,,,,,,green,square
343.0,6.0,2.0,1.0,2.0,2.0,391.9617199999265,4.0,1.0,phase_1,,,,,,,,,,,,,yellow,diamond
631.0,3.0,3.0,0.0,2.0,2.0,341.9882049997795,4.0,1.0,phase_1,,,,,,,,,,,,,blue,cross
0.0,6.0,2.0,1.0,6.0,6.0,678.5982839996905,1.0,1.0,phase_2,go,250.0,250.0,1.0,,,,,,,,,yellow,diamond
0.0,4.0,4.0,0.0,5.0,5.0,547.6952389999497,1.0,1.0,phase_2,go,250.0,250.0,1.0,,,,,,,,,gray,flipped triangle
0.0,4.0,4.0,0.0,5.0,5.0,393.2006179998097,1.0,1.0,phase_2,go,250.0,250.0,1.0,,,,,,,,,gray,flipped triangle
0.0,5.0,1.0,1.0,5.0,5.0,438.6942080000153,1.0,1.0,phase_2,go,250.0,250.0,1.0,,,,,,,,,green,square
0.0,6.0,2.0,1.0,5.0,0.0,0.0,1.0,1.0,phase_2,stop,250.0,250.0,4.0,,,,,,,,,yellow,diamond
0.0,6.0,2.0,1.0,5.0,5.0,1044.5580880000307,1.0,1.0,phase_2,go,300.0,250.0,1.0,,,,,,,,,yellow,diamond
0.0,8.0,4.0,1.0,5.0,5.0,409.6813719997954,1.0,1.0,phase_2,stop,300.0,250.0,3.0,,,,,,,,,cyan,circle
0.0,2.0,2.0,0.0,5.0,5.0,753.2205830002567,1.0,1.0,phase_2,go,250.0,250.0,1.0,,,,,,,,,orange,hexagon
0.0,2.0,2.0,0.0,6.0,6.0,875.4978619999747,1.0,1.0,phase_2,go,250.0,250.0,1.0,,,,,,,,,orange,hexagon
0.0,2.0,2.0,0.0,5.0,5.0,881.4458589999958,1.0,1.0,phase_2,go,250.0,250.0,1.0,,,,,,,,,orange,hexagon
0.0,8.0,4.0,1.0,5.0,5.0,730.4268289999527,1.0,1.0,phase_2,go,250.0,250.0,1.0,,,,,,,,,cyan,circle
0.0,1.0,1.0,0.0,6.0,6.0,800.2408140000625,1.0,1.0,phase_2,go,250.0,250.0,1.0,,,,,,,,,magenta,triangle
0.0,2.0,2.0,0.0,6.0,6.0,778.7740629996733,1.0,1.0,phase_2,go,250.0,250.0,1.0,,,,,,,,,orange,hexagon
0.0,7.0,3.0,1.0,6.0,6.0,786.0094399998161,1.0,1.0,phase_2,stop,250.0,250.0,3.0,,,,,,,,,white,I
0.0,2.0,2.0,0.0,6.0,0.0,0.0,1.0,1.0,phase_2,go,250.0,200.0,5.0,,,,,,,,,orange,hexagon
0.0,5.0,1.0,1.0,5.0,0.0,0.0,1.0,1.0,phase_2,stop,250.0,200.0,4.0,,,,,,,,,green,square
0.0,5.0,1.0,1.0,6.0,0.0,0.0,1.0,1.0,phase_2,stop,300.0,200.0,4.0,,,,,,,,,green,square
0.0,8.0,4.0,1.0,6.0,0.0,0.0,1.0,1.0,phase_2,stop,300.0,250.0,4.0,,,,,,,,,cyan,circle
0.0,8.0,4.0,1.0,5.0,5.0,613.8961700003165,1.0,1.0,phase_2,go,300.0,300.0,1.0,,,,,,,,,cyan,circle
0.0,6.0,2.0,1.0,6.0,6.0,779.7413190000952,1.0,1.0,phase_2,go,300.0,300.0,1.0,,,,,,,,,yellow,diamond
0.0,7.0,3.0,1.0,5.0,0.0,0.0,1.0,1.0,phase_2,stop,300.0,300.0,4.0,,,,,,,,,white,I
0.0,6.0,2.0,1.0,5.0,5.0,871.8036059999577,1.0,1.0,phase_2,go,350.0,300.0,1.0,,,,,,,,,yellow,diamond
0.0,5.0,1.0,1.0,6.0,6.0,949.6071339999615,1.0,1.0,phase_2,go,350.0,300.0,1.0,,,,,,,,,green,square
0.0,2.0,2.0,0.0,5.0,5.0,552.2343370003,1.0,1.0,phase_2,go,350.0,300.0,1.0,,,,,,,,,orange,hexagon
0.0,7.0,3.0,1.0,5.0,0.0,0.0,1.0,1.0,phase_2,stop,350.0,300.0,4.0,,,,,,,,,white,I
0.0,5.0,1.0,1.0,6.0,0.0,0.0,1.0,1.0,phase_2,stop,400.0,300.0,4.0,,,,,,,,,green,square
0.0,1.0,1.0,0.0,5.0,5.0,818.5401040000215,1.0,1.0,phase_2,go,400.0,350.0,1.0,,,,,,,,,magenta,triangle
0.0,1.0,1.0,0.0,5.0,5.0,521.9288729999789,1.0,1.0,phase_2,go,400.0,350.0,1.0,,,,,,,,,magenta,triangle
0.0,4.0,4.0,0.0,5.0,5.0,688.3529520000593,1.0,1.0,phase_2,go,400.0,350.0,1.0,,,,,,,,,gray,flipped triangle
0.0,7.0,3.0,1.0,5.0,0.0,0.0,1.0,1.0,phase_2,stop,400.0,350.0,4.0,,,,,,,,,white,I
0.0,4.0,4.0,0.0,6.0,6.0,844.6202969998922,1.0,1.0,phase_2,go,450.0,350.0,1.0,,,,,,,,,gray,flipped triangle
0.0,8.0,4.0,1.0,6.0,6.0,903.2978639997964,1.0,1.0,phase_2,go,450.0,350.0,1.0,,,,,,,,,cyan,circle
0.0,7.0,3.0,1.0,6.0,0.0,0.0,1.0,1.0,phase_2,stop,450.0,350.0,4.0,,,,,,,,,white,I
0.0,6.0,2.0,1.0,6.0,0.0,0.0,1.0,1.0,phase_2,stop,450.0,400.0,4.0,,,,,,,,,yellow,diamond
0.0,6.0,2.0,1.0,5.0,0.0,0.0,1.0,1.0,phase_2,stop,450.0,450.0,4.0,,,,,,,,,yellow,diamond
0.0,2.0,2.0,0.0,5.0,5.0,722.1389100000124,1.0,1.0,phase_2,go,500.0,450.0,1.0,,,,,,,,,orange,hexagon
0.0,3.0,3.0,0.0,5.0,5.0,1219.8011489999772,2.0,1.0,phase_2,go,500.0,450.0,1.0,,,,,,,,,blue,cross
0.0,4.0,4.0,0.0,5.0,5.0,441.0912940002163,2.0,1.0,phase_2,go,500.0,450.0,1.0,,,,,,,,,gray,flipped triangle
0.0,6.0,2.0,1.0,6.0,6.0,320.1234079997448,2.0,1.0,phase_2,stop,500.0,450.0,3.0,,,,,,,,,yellow,diamond
0.0,2.0,2.0,0.0,5.0,5.0,375.9968740000659,2.0,1.0,phase_2,go,500.0,400.0,1.0,,,,,,,,,orange,hexagon
0.0,5.0,1.0,1.0,6.0,6.0,501.4909890001036,2.0,1.0,phase_2,stop,500.0,400.0,3.0,,,,,,,,,green,square
0.0,3.0,3.0,0.0,5.0,5.0,489.2184370000905,2.0,1.0,phase_2,go,500.0,350.0,1.0,,,,,,,,,blue,cross
0.0,2.0,2.0,0.0,5.0,5.0,942.0282559999578,2.0,1.0,phase_2,go,500.0,350.0,1.0,,,,,,,,,orange,hexagon
0.0,6.0,2.0,1.0,5.0,5.0,434.5864530000654,2.0,1.0,phase_2,stop,500.0,350.0,3.0,,,,,,,,,yellow,diamond
0.0,2.0,2.0,0.0,6.0,6.0,801.1709120000887,2.0,1.0,phase_2,go,450.0,350.0,1.0,,,,,,,,,orange,hexagon
0.0,3.0,3.0,0.0,5.0,5.0,484.8211839998839,2.0,1.0,phase_2,go,450.0,350.0,1.0,,,,,,,,,blue,cross
0.0,8.0,4.0,1.0,5.0,5.0,528.9479940001911,2.0,1.0,phase_2,stop,450.0,350.0,3.0,,,,,,,,,cyan,circle
0.0,8.0,4.0,1.0,6.0,0.0,0.0,2.0,1.0,phase_2,stop,400.0,350.0,4.0,,,,,,,,,cyan,circle
0.0,6.0,2.0,1.0,5.0,5.0,649.0624739999475,2.0,1.0,phase_2,go,400.0,400.0,1.0,,,,,,,,,yellow,diamond
0.0,7.0,3.0,1.0,6.0,6.0,483.8418449999153,2.0,1.0,phase_2,stop,400.0,400.0,3.0,,,,,,,,,white,I
0.0,7.0,3.0,1.0,6.0,0.0,0.0,2.0,1.0,phase_2,stop,400.0,350.0,4.0,,,,,,,,,white,I
0.0,7.0,3.0,1.0,5.0,0.0,0.0,2.0,1.0,phase_2,stop,400.0,400.0,4.0,,,,,,,,,white,I
0.0,3.0,3.0,0.0,6.0,6.0,728.7636370001565,2.0,1.0,phase_2,go,450.0,400.0,1.0,,,,,,,,,blue,cross
0.0,5.0,1.0,1.0,6.0,0.0,0.0,2.0,1.0,phase_2,stop,450.0,400.0,4.0,,,,,,,,,green,square
0.0,5.0,1.0,1.0,6.0,6.0,781.0697680001795,2.0,1.0,phase_2,go,450.0,450.0,1.0,,,,,,,,,green,square
0.0,8.0,4.0,1.0,5.0,5.0,565.9167750000051,2.0,1.0,phase_2,stop,450.0,450.0,3.0,,,,,,,,,cyan,circle
0.0,3.0,3.0,0.0,6.0,6.0,900.3503200001433,2.0,1.0,phase_2,go,400.0,450.0,1.0,,,,,,,,,blue,cross
0.0,7.0,3.0,1.0,6.0,6.0,883.4607210001195,2.0,1.0,phase_2,go,400.0,450.0,1.0,,,,,,,,,white,I
0.0,2.0,2.0,0.0,5.0,5.0,422.2008179999648,2.0,1.0,phase_2,go,400.0,450.0,1.0,,,,,,,,,orange,hexagon
0.0,4.0,4.0,0.0,5.0,5.0,525.3526370001964,2.0,1.0,phase_2,go,400.0,450.0,1.0,,,,,,,,,gray,flipped triangle
0.0,4.0,4.0,0.0,5.0,5.0,490.0840410000455,2.0,1.0,phase_2,go,400.0,450.0,1.0,,,,,,,,,gray,flipped triangle
0.0,3.0,3.0,0.0,5.0,5.0,717.6952390000224,2.0,1.0,phase_2,go,400.0,450.0,1.0,,,,,,,,,blue,cross
0.0,5.0,1.0,1.0,6.0,6.0,579.8286509998434,2.0,1.0,phase_2,go,400.0,450.0,1.0,,,,,,,,,green,square
0.0,8.0,4.0,1.0,5.0,5.0,536.7073229999733,2.0,1.0,phase_2,go,400.0,450.0,1.0,,,,,,,,,cyan,circle
0.0,6.0,2.0,1.0,6.0,6.0,527.21995300044,2.0,1.0,phase_2,stop,400.0,450.0,3.0,,,,,,,,,yellow,diamond
0.0,5.0,1.0,1.0,6.0,0.0,0.0,2.0,1.0,phase_2,stop,400.0,400.0,4.0,,,,,,,,,green,square
0.0,2.0,2.0,0.0,5.0,5.0,912.3571840000296,2.0,1.0,phase_2,go,400.0,450.0,1.0,,,,,,,,,orange,hexagon
0.0,3.0,3.0,0.0,6.0,6.0,855.4178379999939,2.0,1.0,phase_2,go,400.0,450.0,1.0,,,,,,,,,blue,cross
0.0,8.0,4.0,1.0,6.0,6.0,541.9272849999288,2.0,1.0,phase_2,stop,400.0,450.0,3.0,,,,,,,,,cyan,circle
0.0,3.0,3.0,0.0,6.0,6.0,1013.1649019999711,2.0,1.0,phase_2,go,400.0,400.0,1.0,,,,,,,,,blue,cross
0.0,7.0,3.0,1.0,5.0,0.0,0.0,2.0,1.0,phase_2,stop,400.0,400.0,4.0,,,,,,,,,white,I
0.0,6.0,2.0,1.0,6.0,0.0,0.0,2.0,1.0,phase_2,stop,450.0,400.0,4.0,,,,,,,,,yellow,diamond
0.0,2.0,2.0,0.0,6.0,6.0,472.4947999998221,3.0,1.0,phase_2,go,450.0,450.0,1.0,,,,,,,,,orange,hexagon
0.0,1.0,1.0,0.0,5.0,5.0,301.7793730000448,3.0,1.0,phase_2,go,450.0,450.0,1.0,,,,,,,,,magenta,triangle
0.0,4.0,4.0,0.0,6.0,6.0,318.1171910000557,3.0,1.0,phase_2,go,450.0,450.0,1.0,,,,,,,,,gray,flipped triangle
0.0,5.0,1.0,1.0,6.0,6.0,358.2015199999659,3.0,1.0,phase_2,stop,450.0,450.0,3.0,,,,,,,,,green,square
0.0,7.0,3.0,1.0,5.0,5.0,383.8667830000304,3.0,1.0,phase_2,stop,450.0,400.0,3.0,,,,,,,,,white,I
0.0,1.0,1.0,0.0,6.0,6.0,340.2864590002536,3.0,1.0,phase_2,go,400.0,400.0,1.0,,,,,,,,,magenta,triangle
0.0,4.0,4.0,0.0,6.0,6.0,340.0453220001509,3.0,1.0,phase_2,go,400.0,400.0,1.0,,,,,,,,,gray,flipped triangle
0.0,4.0,4.0,0.0,6.0,6.0,376.4067840002099,3.0,1.0,phase_2,go,400.0,400.0,1.0,,,,,,,,,gray,flipped triangle
0.0,2.0,2.0,0.0,5.0,5.0,301.3349620000554,3.0,1.0,phase_2,go,400.0,400.0,1.0,,,,,,,,,orange,hexagon
0.0,3.0,3.0,0.0,5.0,5.0,378.4317520003242,3.0,1.0,phase_2,go,400.0,400.0,1.0,,,,,,,,,blue,cross
0.0,5.0,1.0,1.0,6.0,6.0,328.5954770003627,3.0,1.0,phase_2,stop,400.0,400.0,3.0,,,,,,,,,green,square
0.0,1.0,1.0,0.0,5.0,5.0,489.3265459995746,3.0,1.0,phase_2,go,400.0,350.0,1.0,,,,,,,,,magenta,triangle
0.0,8.0,4.0,1.0,6.0,6.0,467.6964359996418,3.0,1.0,phase_2,stop,400.0,350.0,3.0,,,,,,,,,cyan,circle
0.0,7.0,3.0,1.0,6.0,6.0,811.4131040001666,3.0,1.0,phase_2,go,400.0,300.0,1.0,,,,,,,,,white,I
0.0,2.0,2.0,0.0,5.0,5.0,347.6284190001024,3.0,1.0,phase_2,go,400.0,300.0,1.0,,,,,,,,,orange,hexagon
0.0,4.0,4.0,0.0,5.0,5.0,387.8363280000485,3.0,1.0,phase_2,go,400.0,300.0,1.0,,,,,,,,,gray,flipped triangle
0.0,8.0,4.0,1.0,6.0,6.0,347.1139859998402,3.0,1.0,phase_2,stop,400.0,300.0,3.0,,,,,,,,,cyan,circle
0.0,2.0,2.0,0.0,6.0,6.0,406.3250510002945,3.0,1.0,phase_2,go,400.0,250.0,1.0,,,,,,,,,orange,hexagon
0.0,5.0,1.0,1.0,5.0,5.0,485.088879000159,3.0,1.0,phase_2,stop,400.0,250.0,3.0,,,,,,,,,green,square
0.0,8.0,4.0,1.0,5.0,0.0,0.0,3.0,1.0,phase_2,stop,350.0,250.0,4.0,,,,,,,,,cyan,circle
0.0,1.0,1.0,0.0,6.0,6.0,834.5206710000639,3.0,1.0,phase_2,go,400.0,250.0,1.0,,,,,,,,,magenta,triangle
0.0,8.0,4.0,1.0,6.0,0.0,0.0,3.0,1.0,phase_2,stop,400.0,250.0,4.0,,,,,,,,,cyan,circle
0.0,7.0,3.0,1.0,5.0,5.0,505.87097699963124,3.0,1.0,phase_2,go,400.0,300.0,1.0,,,,,,,,,white,I
0.0,7.0,3.0,1.0,5.0,5.0,470.0364370000898,3.0,1.0,phase_2,stop,400.0,300.0,3.0,,,,,,,,,white,I
0.0,4.0,4.0,0.0,6.0,6.0,761.4277699999548,3.0,1.0,phase_2,go,350.0,300.0,1.0,,,,,,,,,gray,flipped triangle
0.0,3.0,3.0,0.0,6.0,6.0,790.765970999928,3.0,1.0,phase_2,go,350.0,300.0,1.0,,,,,,,,,blue,cross
0.0,4.0,4.0,0.0,6.0,6.0,762.1439909999026,3.0,1.0,phase_2,go,350.0,300.0,1.0,,,,,,,,,gray,flipped triangle
0.0,3.0,3.0,0.0,6.0,6.0,525.4155789998549,3.0,1.0,phase_2,go,350.0,300.0,1.0,,,,,,,,,blue,cross
0.0,2.0,2.0,0.0,6.0,6.0,544.5234949997939,3.0,1.0,phase_2,go,350.0,300.0,1.0,,,,,,,,,orange,hexagon
0.0,2.0,2.0,0.0,5.0,5.0,668.0029499998454,3.0,1.0,phase_2,go,350.0,300.0,1.0,,,,,,,,,orange,hexagon
0.0,3.0,3.0,0.0,5.0,5.0,338.0764560001807,3.0,1.0,phase_2,go,350.0,300.0,1.0,,,,,,,,,blue,cross
0.0,3.0,3.0,0.0,5.0,5.0,378.115013000297,3.0,1.0,phase_2,go,350.0,300.0,1.0,,,,,,,,,blue,cross
0.0,2.0,2.0,0.0,5.0,5.0,350.1048349999109,3.0,1.0,phase_2,go,350.0,300.0,1.0,,,,,,,,,orange,hexagon
0.0,8.0,4.0,1.0,6.0,6.0,368.1573620001472,3.0,1.0,phase_2,stop,350.0,300.0,3.0,,,,,,,,,cyan,circle
0.0,8.0,4.0,1.0,5.0,5.0,395.3712490001635,3.0,1.0,phase_2,stop,350.0,250.0,3.0,,,,,,,,,cyan,circle
0.0,4.0,4.0,0.0,6.0,6.0,583.0994489997465,3.0,1.0,phase_2,go,300.0,250.0,1.0,,,,,,,,,gray,flipped triangle
0.0,8.0,4.0,1.0,5.0,1.0,535.1641430002019,4.0,1.0,phase_2,stop,300.0,250.0,3.0,,,,,,,,,cyan,circle
0.0,1.0,1.0,0.0,5.0,1.0,386.2329140001748,4.0,1.0,phase_2,go,250.0,250.0,2.0,,,,,,,,,magenta,triangle
0.0,2.0,2.0,0.0,5.0,1.0,317.2289999997701,4.0,1.0,phase_2,go,250.0,250.0,2.0,,,,,,,,,orange,hexagon
0.0,7.0,3.0,1.0,6.0,6.0,322.2995800001627,4.0,1.0,phase_2,stop,250.0,250.0,3.0,,,,,,,,,white,I
0.0,5.0,1.0,1.0,5.0,1.0,314.7007309999026,4.0,1.0,phase_2,stop,250.0,200.0,3.0,,,,,,,,,green,square
0.0,3.0,3.0,0.0,6.0,6.0,339.3321680000554,4.0,1.0,phase_2,go,200.0,200.0,1.0,,,,,,,,,blue,cross
0.0,8.0,4.0,1.0,6.0,0.0,0.0,4.0,1.0,phase_2,stop,200.0,200.0,4.0,,,,,,,,,cyan,circle
0.0,6.0,2.0,1.0,6.0,0.0,0.0,4.0,1.0,phase_2,stop,200.0,250.0,4.0,,,,,,,,,yellow,diamond
0.0,6.0,2.0,1.0,6.0,6.0,742.6958099999865,4.0,1.0,phase_2,go,200.0,300.0,1.0,,,,,,,,,yellow,diamond
0.0,5.0,1.0,1.0,5.0,0.0,0.0,4.0,1.0,phase_2,stop,200.0,300.0,4.0,,,,,,,,,green,square
0.0,5.0,1.0,1.0,6.0,0.0,0.0,4.0,1.0,phase_2,stop,250.0,300.0,4.0,,,,,,,,,green,square
0.0,3.0,3.0,0.0,5.0,1.0,635.7834179998463,4.0,1.0,phase_2,go,250.0,350.0,2.0,,,,,,,,,blue,cross
0.0,1.0,1.0,0.0,6.0,6.0,565.677451999818,4.0,1.0,phase_2,go,250.0,350.0,1.0,,,,,,,,,magenta,triangle
0.0,4.0,4.0,0.0,5.0,1.0,557.5913600000604,4.0,1.0,phase_2,go,250.0,350.0,2.0,,,,,,,,,gray,flipped triangle
0.0,3.0,3.0,0.0,6.0,6.0,584.8136590002468,4.0,1.0,phase_2,go,250.0,350.0,1.0,,,,,,,,,blue,cross
0.0,3.0,3.0,0.0,6.0,6.0,406.8848900001285,4.0,1.0,phase_2,go,250.0,350.0,1.0,,,,,,,,,blue,cross
0.0,1.0,1.0,0.0,5.0,1.0,688.2703239998591,4.0,1.0,phase_2,go,250.0,350.0,2.0,,,,,,,,,magenta,triangle
0.0,4.0,4.0,0.0,6.0,6.0,555.711902999974,4.0,1.0,phase_2,go,250.0,350.0,1.0,,,,,,,,,gray,flipped triangle
0.0,1.0,1.0,0.0,5.0,1.0,376.1489600001368,4.0,1.0,phase_2,go,250.0,350.0,2.0,,,,,,,,,magenta,triangle
0.0,8.0,4.0,1.0,6.0,6.0,482.3568940000768,4.0,1.0,phase_2,stop,250.0,350.0,3.0,,,,,,,,,cyan,circle
0.0,6.0,2.0,1.0,5.0,0.0,0.0,4.0,1.0,phase_2,stop,250.0,300.0,4.0,,,,,,,,,yellow,diamond
0.0,8.0,4.0,1.0,5.0,0.0,0.0,4.0,1.0,phase_2,stop,300.0,300.0,4.0,,,,,,,,,cyan,circle
0.0,2.0,2.0,0.0,6.0,6.0,734.821280000233,4.0,1.0,phase_2,go,350.0,300.0,1.0,,,,,,,,,orange,hexagon
0.0,5.0,1.0,1.0,6.0,0.0,0.0,4.0,1.0,phase_2,stop,350.0,300.0,4.0,,,,,,,,,green,square
0.0,5.0,1.0,1.0,5.0,1.0,742.7051969998502,4.0,1.0,phase_2,go,350.0,350.0,2.0,,,,,,,,,green,square
0.0,2.0,2.0,0.0,5.0,1.0,431.9958989999577,4.0,1.0,phase_2,go,350.0,350.0,2.0,,,,,,,,,orange,hexagon
0.0,8.0,4.0,1.0,6.0,0.0,0.0,4.0,1.0,phase_2,stop,350.0,350.0,4.0,,,,,,,,,cyan,circle
0.0,7.0,3.0,1.0,5.0,1.0,515.6431740001608,4.0,1.0,phase_2,stop,350.0,400.0,3.0,,,,,,,,,white,I
0.0,2.0,2.0,0.0,6.0,6.0,645.3496039998754,4.0,1.0,phase_2,go,300.0,400.0,1.0,,,,,,,,,orange,hexagon
0.0,2.0,2.0,0.0,6.0,6.0,674.7070319997874,4.0,1.0,phase_2,go,300.0,400.0,1.0,,,,,,,,,orange,hexagon
0.0,6.0,2.0,1.0,5.0,0.0,0.0,4.0,1.0,phase_2,stop,300.0,400.0,4.0,,,,,,,,,yellow,diamond
0.0,4.0,4.0,0.0,6.0,6.0,685.7910869998705,4.0,1.0,phase_2,go,350.0,400.0,1.0,,,,,,,,,gray,flipped triangle
0.0,5.0,1.0,1.0,5.0,1.0,706.0209020000912,4.0,1.0,phase_2,go,350.0,400.0,2.0,,,,,,,,,green,square
0.0,8.0,4.0,1.0,6.0,6.0,480.6759930002044,4.0,1.0,phase_2,go,350.0,400.0,1.0,,,,,,,,,cyan,circle
0.0,7.0,3.0,1.0,5.0,1.0,510.59406699960164,4.0,1.0,phase_2,stop,350.0,400.0,3.0,,,,,,,,,white,I
0.0,2.0,2.0,0.0,5.0,1.0,828.5424759997113,4.0,1.0,phase_2,go,300.0,400.0,2.0,,,,,,,,,orange,hexagon
0.0,6.0,2.0,1.0,5.0,1.0,423.7862889999633,5.0,1.0,phase_2,stop,300.0,400.0,3.0,,,,,,,,,yellow,diamond
0.0,1.0,1.0,0.0,6.0,6.0,499.3160859999079,5.0,1.0,phase_2,go,250.0,400.0,1.0,,,,,,,,,magenta,triangle
0.0,7.0,3.0,1.0,5.0,1.0,359.7847399996681,5.0,1.0,phase_2,go,250.0,400.0,2.0,,,,,,,,,white,I
0.0,4.0,4.0,0.0,6.0,6.0,387.4809100002494,5.0,1.0,phase_2,go,250.0,400.0,1.0,,,,,,,,,gray,flipped triangle
0.0,5.0,1.0,1.0,5.0,1.0,320.2725380001539,5.0,1.0,phase_2,go,250.0,400.0,2.0,,,,,,,,,green,square
0.0,7.0,3.0,1.0,6.0,6.0,326.0851340000954,5.0,1.0,phase_2,go,250.0,400.0,1.0,,,,,,,,,white,I
0.0,6.0,2.0,1.0,6.0,6.0,434.3980690000535,5.0,1.0,phase_2,stop,250.0,400.0,3.0,,,,,,,,,yellow,diamond
0.0,7.0,3.0,1.0,6.0,6.0,462.2127030002048,5.0,1.0,phase_2,go,250.0,350.0,1.0,,,,,,,,,white,I
0.0,8.0,4.0,1.0,5.0,1.0,395.82461100008,5.0,1.0,phase_2,go,250.0,350.0,2.0,,,,,,,,,cyan,circle
0.0,6.0,2.0,1.0,5.0,1.0,381.9985660002203,5.0,1.0,phase_2,stop,250.0,350.0,3.0,,,,,,,,,yellow,diamond
0.0,7.0,3.0,1.0,5.0,0.0,0.0,5.0,1.0,phase_2,stop,200.0,350.0,4.0,,,,,,,,,white,I
0.0,4.0,4.0,0.0,6.0,6.0,714.2928160001247,5.0,1.0,phase_2,go,250.0,350.0,1.0,,,,,,,,,gray,flipped triangle
0.0,5.0,1.0,1.0,6.0,0.0,0.0,5.0,1.0,phase_2,stop,250.0,350.0,4.0,,,,,,,,,green,square
0.0,7.0,3.0,1.0,5.0,0.0,0.0,5.0,1.0,phase_2,stop,250.0,400.0,4.0,,,,,,,,,white,I
0.0,1.0,1.0,0.0,5.0,1.0,807.0125660001395,5.0,1.0,phase_2,go,300.0,400.0,2.0,,,,,,,,,magenta,triangle
0.0,3.0,3.0,0.0,5.0,1.0,435.4541820002851,5.0,1.0,phase_2,go,300.0,400.0,2.0,,,,,,,,,blue,cross
0.0,3.0,3.0,0.0,5.0,1.0,394.2653179997251,5.0,1.0,phase_2,go,300.0,400.0,2.0,,,,,,,,,blue,cross
0.0,5.0,1.0,1.0,6.0,6.0,520.1744899995902,5.0,1.0,phase_2,stop,300.0,400.0,3.0,,,,,,,,,green,square
0.0,2.0,2.0,0.0,6.0,6.0,733.5667859997557,5.0,1.0,phase_2,go,300.0,350.0,1.0,,,,,,,,,orange,hexagon
0.0,8.0,4.0,1.0,5.0,1.0,647.1070109996617,5.0,1.0,phase_2,go,300.0,350.0,2.0,,,,,,,,,cyan,circle
0.0,1.0,1.0,0.0,6.0,6.0,318.7794939999548,5.0,1.0,phase_2,go,300.0,350.0,1.0,,,,,,,,,magenta,triangle
0.0,1.0,1.0,0.0,6.0,6.0,368.7506599999324,5.0,1.0,phase_2,go,300.0,350.0,1.0,,,,,,,,,magenta,triangle
0.0,1.0,1.0,0.0,6.0,6.0,386.0371240002678,5.0,1.0,phase_2,go,300.0,350.0,1.0,,,,,,,,,magenta,triangle
0.0,4.0,4.0,0.0,5.0,1.0,1138.2378719999906,5.0,1.0,phase_2,go,300.0,350.0,2.0,,,,,,,,,gray,flipped triangle
0.0,7.0,3.0,1.0,6.0,6.0,504.2228269999214,5.0,1.0,phase_2,stop,300.0,350.0,3.0,,,,,,,,,white,I
0.0,3.0,3.0,0.0,5.0,5.0,591.6703010002493,5.0,1.0,phase_2,go,300.0,300.0,1.0,,,,,,,,,blue,cross
0.0,1.0,1.0,0.0,5.0,5.0,454.1465089996563,5.0,1.0,phase_2,go,300.0,300.0,1.0,,,,,,,,,magenta,triangle
0.0,8.0,4.0,1.0,5.0,5.0,554.7039439998116,5.0,1.0,phase_2,go,300.0,300.0,1.0,,,,,,,,,cyan,circle
0.0,3.0,3.0,0.0,5.0,5.0,348.9246869999078,5.0,1.0,phase_2,go,300.0,300.0,1.0,,,,,,,,,blue,cross
0.0,5.0,1.0,1.0,5.0,5.0,404.0338139998312,5.0,1.0,phase_2,stop,300.0,300.0,3.0,,,,,,,,,green,square
0.0,4.0,4.0,0.0,6.0,6.0,394.047799999953,5.0,1.0,phase_2,go,250.0,300.0,1.0,,,,,,,,,gray,flipped triangle
0.0,3.0,3.0,0.0,6.0,6.0,449.6198110000478,5.0,1.0,phase_2,go,250.0,300.0,1.0,,,,,,,,,blue,cross
0.0,6.0,2.0,1.0,5.0,5.0,360.067964999871,5.0,1.0,phase_2,stop,250.0,300.0,3.0,,,,,,,,,yellow,diamond
0.0,4.0,4.0,0.0,6.0,6.0,777.5038839999979,5.0,1.0,phase_2,go,200.0,300.0,1.0,,,,,,,,,gray,flipped triangle
0.0,5.0,1.0,1.0,6.0,0.0,0.0,5.0,1.0,phase_2,stop,200.0,300.0,4.0,,,,,,,,,green,square
0.0,7.0,3.0,1.0,6.0,6.0,527.033758000016,5.0,1.0,phase_2,stop,200.0,350.0,3.0,,,,,,,,,white,I
0.0,5.0,1.0,1.0,5.0,5.0,579.4249989999116,6.0,1.0,phase_2,stop,200.0,300.0,3.0,,,,,,,,,green,square
0.0,7.0,3.0,1.0,5.0,5.0,410.0483689999237,6.0,1.0,phase_2,go,150.0,300.0,1.0,,,,,,,,,white,I
0.0,1.0,1.0,0.0,6.0,6.0,411.321136999959,6.0,1.0,phase_2,go,150.0,300.0,1.0,,,,,,,,,magenta,triangle
0.0,4.0,4.0,0.0,6.0,6.0,406.666026000039,6.0,1.0,phase_2,go,150.0,300.0,1.0,,,,,,,,,gray,flipped triangle
0.0,1.0,1.0,0.0,5.0,5.0,340.5024059998141,6.0,1.0,phase_2,go,150.0,300.0,1.0,,,,,,,,,magenta,triangle
0.0,7.0,3.0,1.0,6.0,6.0,363.1930750002539,6.0,1.0,phase_2,stop,150.0,300.0,3.0,,,,,,,,,white,I
0.0,1.0,1.0,0.0,5.0,5.0,391.1939969998457,6.0,1.0,phase_2,go,150.0,250.0,1.0,,,,,,,,,magenta,triangle
0.0,7.0,3.0,1.0,6.0,0.0,0.0,6.0,1.0,phase_2,stop,150.0,250.0,4.0,,,,,,,,,white,I
0.0,6.0,2.0,1.0,5.0,5.0,363.050001999909,6.0,1.0,phase_2,stop,150.0,300.0,3.0,,,,,,,,,yellow,diamond
0.0,8.0,4.0,1.0,6.0,6.0,505.4826709997542,6.0,1.0,phase_2,stop,100.0,300.0,3.0,,,,,,,,,cyan,circle
0.0,4.0,4.0,0.0,5.0,5.0,667.0742149999569,6.0,1.0,phase_2,go,100.0,250.0,1.0,,,,,,,,,gray,flipped triangle
0.0,6.0,2.0,1.0,6.0,6.0,947.9892560002554,6.0,1.0,phase_2,go,100.0,250.0,1.0,,,,,,,,,yellow,diamond
0.0,3.0,3.0,0.0,6.0,6.0,507.8037900002528,6.0,1.0,phase_2,go,100.0,250.0,1.0,,,,,,,,,blue,cross
0.0,4.0,4.0,0.0,6.0,6.0,434.3025950001902,6.0,1.0,phase_2,go,100.0,250.0,1.0,,,,,,,,,gray,flipped triangle
0.0,3.0,3.0,0.0,5.0,5.0,379.4141039998067,6.0,1.0,phase_2,go,100.0,250.0,1.0,,,,,,,,,blue,cross
0.0,5.0,1.0,1.0,5.0,0.0,0.0,6.0,1.0,phase_2,stop,100.0,250.0,4.0,,,,,,,,,green,square
0.0,2.0,2.0,0.0,6.0,6.0,486.5121210000325,6.0,1.0,phase_2,go,150.0,250.0,1.0,,,,,,,,,orange,hexagon
0.0,4.0,4.0,0.0,5.0,5.0,357.7699080001366,6.0,1.0,phase_2,go,150.0,250.0,1.0,,,,,,,,,gray,flipped triangle
0.0,3.0,3.0,0.0,6.0,6.0,451.1599120000937,6.0,1.0,phase_2,go,150.0,250.0,1.0,,,,,,,,,blue,cross
0.0,4.0,4.0,0.0,5.0,5.0,280.7107389999146,6.0,1.0,phase_2,go,150.0,250.0,1.0,,,,,,,,,gray,flipped triangle
0.0,1.0,1.0,0.0,5.0,5.0,328.4457380000276,6.0,1.0,phase_2,go,150.0,250.0,1.0,,,,,,,,,magenta,triangle
0.0,7.0,3.0,1.0,5.0,5.0,348.8048090002849,6.0,1.0,phase_2,stop,150.0,250.0,3.0,,,,,,,,,white,I
0.0,6.0,2.0,1.0,5.0,0.0,0.0,6.0,1.0,phase_2,stop,100.0,250.0,4.0,,,,,,,,,yellow,diamond
0.0,3.0,3.0,0.0,6.0,6.0,385.5900720000136,6.0,1.0,phase_2,go,150.0,250.0,1.0,,,,,,,,,blue,cross
0.0,4.0,4.0,0.0,5.0,5.0,378.8083940003162,6.0,1.0,phase_2,go,150.0,250.0,1.0,,,,,,,,,gray,flipped triangle
0.0,7.0,3.0,1.0,5.0,0.0,0.0,6.0,1.0,phase_2,stop,150.0,250.0,4.0,,,,,,,,,white,I
0.0,1.0,1.0,0.0,5.0,5.0,636.0730009996587,6.0,1.0,phase_2,go,200.0,250.0,1.0,,,,,,,,,magenta,triangle
0.0,4.0,4.0,0.0,6.0,6.0,676.2993880001886,6.0,1.0,phase_2,go,200.0,250.0,1.0,,,,,,,,,gray,flipped triangle
0.0,3.0,3.0,0.0,5.0,5.0,686.0081760000867,6.0,1.0,phase_2,go,200.0,250.0,1.0,,,,,,,,,blue,cross
0.0,1.0,1.0,0.0,5.0,5.0,605.0283859999581,6.0,1.0,phase_2,go,200.0,250.0,1.0,,,,,,,,,magenta,triangle
0.0,4.0,4.0,0.0,5.0,5.0,508.6655529999007,6.0,1.0,phase_2,go,200.0,250.0,1.0,,,,,,,,,gray,flipped triangle
0.0,5.0,1.0,1.0,6.0,0.0,0.0,6.0,1.0,phase_2,stop,200.0,250.0,4.0,,,,,,,,,green,square
0.0,1.0,1.0,0.0,6.0,6.0,732.948227000179,6.0,1.0,phase_2,go,200.0,300.0,1.0,,,,,,,,,magenta,triangle
0.0,5.0,1.0,1.0,5.0,5.0,757.7565789997607,6.0,1.0,phase_2,go,200.0,300.0,1.0,,,,,,,,,green,square
0.0,8.0,4.0,1.0,6.0,0.0,0.0,6.0,1.0,phase_2,stop,200.0,300.0,4.0,,,,,,,,,cyan,circle
0.0,3.0,3.0,0.0,6.0,6.0,717.1827059996758,6.0,1.0,phase_2,go,200.0,350.0,1.0,,,,,,,,,blue,cross
0.0,1.0,1.0,0.0,6.0,6.0,395.0131479996344,7.0,1.0,phase_2,go,200.0,350.0,1.0,,,,,,,,,magenta,triangle
0.0,2.0,2.0,0.0,6.0,6.0,311.2486050004008,7.0,1.0,phase_2,go,200.0,350.0,1.0,,,,,,,,,orange,hexagon
0.0,5.0,1.0,1.0,6.0,6.0,285.3117560002829,7.0,1.0,phase_2,stop,200.0,350.0,3.0,,,,,,,,,green,square
0.0,7.0,3.0,1.0,5.0,0.0,0.0,7.0,1.0,phase_2,stop,200.0,300.0,4.0,,,,,,,,,white,I
0.0,3.0,3.0,0.0,6.0,6.0,557.015176999812,7.0,1.0,phase_2,go,250.0,300.0,1.0,,,,,,,,,blue,cross
0.0,5.0,1.0,1.0,5.0,0.0,0.0,7.0,1.0,phase_2,stop,250.0,300.0,4.0,,,,,,,,,green,square
0.0,1.0,1.0,0.0,5.0,5.0,671.9046360003631,7.0,1.0,phase_2,go,300.0,300.0,1.0,,,,,,,,,magenta,triangle
0.0,6.0,2.0,1.0,5.0,0.0,0.0,7.0,1.0,phase_2,stop,300.0,300.0,4.0,,,,,,,,,yellow,diamond
0.0,7.0,3.0,1.0,6.0,0.0,0.0,7.0,1.0,phase_2,stop,350.0,300.0,4.0,,,,,,,,,white,I
0.0,4.0,4.0,0.0,5.0,5.0,505.5418669999199,7.0,1.0,phase_2,go,350.0,350.0,1.0,,,,,,,,,gray,flipped triangle
0.0,1.0,1.0,0.0,6.0,6.0,643.3500789999016,7.0,1.0,phase_2,go,350.0,350.0,1.0,,,,,,,,,magenta,triangle
0.0,1.0,1.0,0.0,6.0,6.0,453.8649010000881,7.0,1.0,phase_2,go,350.0,350.0,1.0,,,,,,,,,magenta,triangle
0.0,8.0,4.0,1.0,5.0,0.0,0.0,7.0,1.0,phase_2,stop,350.0,350.0,4.0,,,,,,,,,cyan,circle
0.0,3.0,3.0,0.0,5.0,5.0,611.2627759998759,7.0,1.0,phase_2,go,400.0,350.0,1.0,,,,,,,,,blue,cross
0.0,2.0,2.0,0.0,5.0,5.0,413.3114429996567,7.0,1.0,phase_2,go,400.0,350.0,1.0,,,,,,,,,orange,hexagon
0.0,7.0,3.0,1.0,6.0,6.0,770.2732120001201,7.0,1.0,phase_2,go,400.0,350.0,1.0,,,,,,,,,white,I
0.0,8.0,4.0,1.0,5.0,0.0,0.0,7.0,1.0,phase_2,stop,400.0,350.0,4.0,,,,,,,,,cyan,circle
0.0,6.0,2.0,1.0,6.0,6.0,493.9291900000171,7.0,1.0,phase_2,stop,450.0,350.0,3.0,,,,,,,,,yellow,diamond
0.0,3.0,3.0,0.0,5.0,5.0,377.440794999984,7.0,1.0,phase_2,go,450.0,300.0,1.0,,,,,,,,,blue,cross
0.0,5.0,1.0,1.0,5.0,0.0,0.0,7.0,1.0,phase_2,stop,450.0,300.0,4.0,,,,,,,,,green,square
0.0,5.0,1.0,1.0,5.0,5.0,604.9385290002647,7.0,1.0,phase_2,stop,500.0,300.0,3.0,,,,,,,,,green,square
0.0,1.0,1.0,0.0,6.0,6.0,525.4427429999851,7.0,1.0,phase_2,go,450.0,300.0,1.0,,,,,,,,,magenta,triangle
0.0,1.0,1.0,0.0,5.0,5.0,534.448197999609,7.0,1.0,phase_2,go,450.0,300.0,1.0,,,,,,,,,magenta,triangle
0.0,1.0,1.0,0.0,5.0,5.0,623.9068379995842,7.0,1.0,phase_2,go,450.0,300.0,1.0,,,,,,,,,magenta,triangle
0.0,8.0,4.0,1.0,6.0,0.0,0.0,7.0,1.0,phase_2,stop,450.0,300.0,4.0,,,,,,,,,cyan,circle
0.0,4.0,4.0,0.0,5.0,5.0,715.8358269998644,7.0,1.0,phase_2,go,450.0,350.0,1.0,,,,,,,,,gray,flipped triangle
0.0,3.0,3.0,0.0,6.0,6.0,701.781740000115,7.0,1.0,phase_2,go,450.0,350.0,1.0,,,,,,,,,blue,cross
0.0,8.0,4.0,1.0,5.0,0.0,0.0,7.0,1.0,phase_2,stop,450.0,350.0,4.0,,,,,,,,,cyan,circle
0.0,5.0,1.0,1.0,6.0,0.0,0.0,7.0,1.0,phase_2,stop,500.0,350.0,4.0,,,,,,,,,green,square
0.0,5.0,1.0,1.0,5.0,5.0,630.0508470003479,7.0,1.0,phase_2,stop,500.0,400.0,3.0,,,,,,,,,green,square
0.0,4.0,4.0,0.0,6.0,6.0,729.1217789997972,7.0,1.0,phase_2,go,450.0,400.0,1.0,,,,,,,,,gray,flipped triangle
0.0,2.0,2.0,0.0,5.0,5.0,877.5708480002322,7.0,1.0,phase_2,go,450.0,400.0,1.0,,,,,,,,,orange,hexagon
0.0,6.0,2.0,1.0,6.0,0.0,0.0,7.0,1.0,phase_2,stop,450.0,400.0,4.0,,,,,,,,,yellow,diamond
0.0,4.0,4.0,0.0,5.0,5.0,792.4591189998864,7.0,1.0,phase_2,go,450.0,450.0,1.0,,,,,,,,,gray,flipped triangle
0.0,7.0,3.0,1.0,6.0,6.0,652.3306910003157,7.0,1.0,phase_2,go,450.0,450.0,1.0,,,,,,,,,white,I
0.0,7.0,3.0,1.0,6.0,6.0,387.4500379997698,7.0,1.0,phase_2,stop,450.0,450.0,3.0,,,,,,,,,white,I
0.0,2.0,2.0,0.0,6.0,6.0,367.8877460001786,8.0,1.0,phase_2,go,450.0,400.0,1.0,,,,,,,,,orange,hexagon
0.0,1.0,1.0,0.0,6.0,6.0,404.5311979998587,8.0,1.0,phase_2,go,450.0,400.0,1.0,,,,,,,,,magenta,triangle
0.0,8.0,4.0,1.0,6.0,6.0,348.264348000157,8.0,1.0,phase_2,stop,450.0,400.0,3.0,,,,,,,,,cyan,circle
0.0,8.0,4.0,1.0,5.0,5.0,365.1692720000028,8.0,1.0,phase_2,stop,450.0,350.0,3.0,,,,,,,,,cyan,circle
0.0,6.0,2.0,1.0,6.0,6.0,775.8554669999285,8.0,1.0,phase_2,go,400.0,350.0,1.0,,,,,,,,,yellow,diamond
0.0,6.0,2.0,1.0,6.0,6.0,449.5545580002726,8.0,1.0,phase_2,stop,400.0,350.0,3.0,,,,,,,,,yellow,diamond
0.0,2.0,2.0,0.0,6.0,6.0,544.7803199999726,8.0,1.0,phase_2,go,400.0,300.0,1.0,,,,,,,,,orange,hexagon
0.0,3.0,3.0,0.0,6.0,6.0,714.8541179999484,8.0,1.0,phase_2,go,400.0,300.0,1.0,,,,,,,,,blue,cross
0.0,4.0,4.0,0.0,5.0,5.0,473.2541549997222,8.0,1.0,phase_2,go,400.0,300.0,1.0,,,,,,,,,gray,flipped triangle
0.0,7.0,3.0,1.0,5.0,5.0,440.9328920000916,8.0,1.0,phase_2,stop,400.0,300.0,3.0,,,,,,,,,white,I
0.0,8.0,4.0,1.0,6.0,6.0,575.2149640002244,8.0,1.0,phase_2,go,350.0,300.0,1.0,,,,,,,,,cyan,circle
0.0,2.0,2.0,0.0,6.0,6.0,581.4716169998064,8.0,1.0,phase_2,go,350.0,300.0,1.0,,,,,,,,,orange,hexagon
0.0,6.0,2.0,1.0,6.0,6.0,516.7490470003031,8.0,1.0,phase_2,go,350.0,300.0,1.0,,,,,,,,,yellow,diamond
0.0,7.0,3.0,1.0,6.0,0.0,0.0,8.0,1.0,phase_2,stop,350.0,300.0,4.0,,,,,,,,,white,I
0.0,2.0,2.0,0.0,6.0,6.0,706.952008999906,8.0,1.0,phase_2,go,350.0,350.0,1.0,,,,,,,,,orange,hexagon
0.0,1.0,1.0,0.0,6.0,6.0,576.0685299997022,8.0,1.0,phase_2,go,350.0,350.0,1.0,,,,,,,,,magenta,triangle
0.0,6.0,2.0,1.0,5.0,0.0,0.0,8.0,1.0,phase_2,stop,350.0,350.0,4.0,,,,,,,,,yellow,diamond
0.0,1.0,1.0,0.0,6.0,6.0,694.0279339996778,8.0,1.0,phase_2,go,400.0,350.0,1.0,,,,,,,,,magenta,triangle
0.0,6.0,2.0,1.0,6.0,0.0,0.0,8.0,1.0,phase_2,stop,400.0,350.0,4.0,,,,,,,,,yellow,diamond
0.0,2.0,2.0,0.0,6.0,6.0,614.0985530000762,8.0,1.0,phase_2,go,400.0,400.0,1.0,,,,,,,,,orange,hexagon
0.0,2.0,2.0,0.0,5.0,5.0,514.6910220000791,8.0,1.0,phase_2,go,400.0,400.0,1.0,,,,,,,,,orange,hexagon
0.0,3.0,3.0,0.0,5.0,5.0,551.6694369998731,8.0,1.0,phase_2,go,400.0,400.0,1.0,,,,,,,,,blue,cross
0.0,1.0,1.0,0.0,5.0,5.0,441.8478709999363,8.0,1.0,phase_2,go,400.0,400.0,1.0,,,,,,,,,magenta,triangle
0.0,6.0,2.0,1.0,5.0,5.0,537.6760260000992,8.0,1.0,phase_2,stop,400.0,400.0,3.0,,,,,,,,,yellow,diamond
0.0,3.0,3.0,0.0,5.0,5.0,678.7340060000133,8.0,1.0,phase_2,go,350.0,400.0,1.0,,,,,,,,,blue,cross
0.0,5.0,1.0,1.0,5.0,0.0,0.0,8.0,1.0,phase_2,stop,350.0,400.0,4.0,,,,,,,,,green,square
0.0,6.0,2.0,1.0,5.0,0.0,0.0,8.0,1.0,phase_2,stop,400.0,400.0,4.0,,,,,,,,,yellow,diamond
0.0,3.0,3.0,0.0,6.0,6.0,606.1132760000874,8.0,1.0,phase_2,go,450.0,400.0,1.0,,,,,,,,,blue,cross
0.0,5.0,1.0,1.0,5.0,5.0,1067.3242049997498,8.0,1.0,phase_2,go,450.0,400.0,1.0,,,,,,,,,green,square
0.0,1.0,1.0,0.0,6.0,6.0,777.800323000065,8.0,1.0,phase_2,go,450.0,400.0,1.0,,,,,,,,,magenta,triangle
0.0,6.0,2.0,1.0,5.0,0.0,0.0,8.0,1.0,phase_2,stop,450.0,400.0,4.0,,,,,,,,,yellow,diamond
0.0,8.0,4.0,1.0,6.0,0.0,0.0,8.0,1.0,phase_2,stop,500.0,400.0,4.0,,,,,,,,,cyan,circle
0.0,4.0,4.0,0.0,6.0,6.0,716.551858999992,8.0,1.0,phase_2,go,500.0,450.0,1.0,,,,,,,,,gray,flipped triangle
0.0,6.0,2.0,1.0,6.0,0.0,0.0,8.0,1.0,phase_2,stop,500.0,450.0,4.0,,,,,,,,,yellow,diamond
0.0,8.0,4.0,1.0,5.0,0.0,0.0,8.0,1.0,phase_2,stop,500.0,500.0,4.0,,,,,,,,,cyan,circle
0.0,6.0,2.0,1.0,6.0,0.0,0.0,8.0,1.0,phase_2,stop,550.0,500.0,4.0,,,,,,,,,yellow,diamond
0.0,1.0,1.0,0.0,7.0,1.0,1818.229712000175,1.0,2.0,phase_3,,,,,770.0,5.0,770.0,462.0,154.0,924.0,616.0,308.0,magenta,triangle
0.0,1.0,1.0,0.0,7.0,4.0,4137.341479000042,1.0,1.0,phase_3,,,,,464.0,4.0,580.0,348.0,696.0,464.0,232.0,116.0,magenta,triangle
0.0,2.0,2.0,0.0,7.0,2.0,1619.6602700001677,1.0,1.0,phase_3,,,,,692.0,4.0,173.0,692.0,519.0,346.0,865.0,1038.0,orange,hexagon
0.0,5.0,1.0,1.0,7.0,2.0,2232.386574999964,1.0,1.0,phase_3,,,,,1152.0,6.0,960.0,1152.0,192.0,576.0,384.0,768.0,green,square
0.0,7.0,3.0,1.0,7.0,6.0,1849.8029589995892,1.0,1.0,phase_3,,,,,770.0,5.0,462.0,616.0,154.0,308.0,924.0,770.0,white,I
0.0,2.0,2.0,0.0,7.0,4.0,2361.2793760003115,1.0,1.0,phase_3,,,,,865.0,5.0,346.0,173.0,1038.0,865.0,692.0,519.0,orange,hexagon
0.0,7.0,3.0,1.0,7.0,2.0,2047.3176180003065,1.0,1.0,phase_3,,,,,960.0,5.0,192.0,960.0,768.0,576.0,384.0,1152.0,white,I
0.0,4.0,4.0,0.0,7.0,4.0,1873.426955000013,1.0,1.0,phase_3,,,,,1038.0,6.0,865.0,346.0,173.0,1038.0,692.0,519.0,gray,flipped triangle
0.0,8.0,4.0,1.0,7.0,5.0,1296.1465359999238,1.0,1.0,phase_3,,,,,1038.0,6.0,519.0,692.0,865.0,346.0,1038.0,173.0,cyan,circle
0.0,7.0,3.0,1.0,7.0,2.0,2346.8343199997435,1.0,1.0,phase_3,,,,,540.0,4.0,405.0,540.0,135.0,810.0,675.0,270.0,white,I
0.0,1.0,1.0,0.0,7.0,4.0,2167.503398000008,1.0,1.0,phase_3,,,,,675.0,5.0,135.0,270.0,405.0,675.0,540.0,810.0,magenta,triangle
0.0,3.0,3.0,0.0,7.0,3.0,1880.99309800009,1.0,1.0,phase_3,,,,,960.0,5.0,192.0,768.0,960.0,384.0,1152.0,576.0,blue,cross
0.0,3.0,3.0,0.0,7.0,2.0,2798.495168000045,1.0,1.0,phase_3,,,,,696.0,6.0,464.0,696.0,116.0,580.0,348.0,232.0,blue,cross
0.0,7.0,3.0,1.0,7.0,3.0,2370.392610000181,1.0,1.0,phase_3,,,,,348.0,3.0,464.0,232.0,348.0,580.0,696.0,116.0,white,I
0.0,8.0,4.0,1.0,7.0,1.0,2539.642624999942,1.0,1.0,phase_3,,,,,810.0,6.0,810.0,405.0,270.0,540.0,675.0,135.0,cyan,circle
0.0,3.0,3.0,0.0,7.0,1.0,2179.355000999749,1.0,1.0,phase_3,,,,,580.0,5.0,580.0,464.0,232.0,348.0,696.0,116.0,blue,cross
0.0,3.0,3.0,0.0,7.0,4.0,3209.2019109995817,1.0,1.0,phase_3,,,,,924.0,6.0,154.0,770.0,462.0,924.0,308.0,616.0,blue,cross
0.0,1.0,1.0,0.0,7.0,4.0,2856.098483999631,1.0,1.0,phase_3,,,,,1038.0,6.0,519.0,692.0,173.0,1038.0,346.0,865.0,magenta,triangle
0.0,5.0,1.0,1.0,7.0,5.0,2114.3426200005706,1.0,1.0,phase_3,,,,,519.0,3.0,346.0,1038.0,692.0,173.0,519.0,865.0,green,square
0.0,7.0,3.0,1.0,7.0,6.0,1601.6589060000117,1.0,1.0,phase_3,,,,,865.0,5.0,346.0,519.0,692.0,1038.0,173.0,865.0,white,I
0.0,3.0,3.0,0.0,7.0,4.0,1319.9259240000174,2.0,1.0,phase_3,,,,,675.0,5.0,270.0,810.0,405.0,675.0,135.0,540.0,blue,cross
0.0,2.0,2.0,0.0,7.0,3.0,1361.9237000002613,2.0,1.0,phase_3,,,,,810.0,6.0,270.0,135.0,810.0,405.0,540.0,675.0,orange,hexagon
0.0,2.0,2.0,0.0,7.0,5.0,1193.2604180001365,2.0,1.0,phase_3,,,,,924.0,6.0,308.0,770.0,462.0,154.0,924.0,616.0,orange,hexagon
0.0,4.0,4.0,0.0,7.0,3.0,1621.648761999495,2.0,1.0,phase_3,,,,,696.0,6.0,116.0,232.0,696.0,580.0,348.0,464.0,gray,flipped triangle
0.0,1.0,1.0,0.0,7.0,4.0,993.5192450002432,2.0,1.0,phase_3,,,,,1038.0,6.0,519.0,346.0,692.0,1038.0,865.0,173.0,magenta,triangle
0.0,4.0,4.0,0.0,7.0,5.0,1278.003389999867,2.0,1.0,phase_3,,,,,770.0,5.0,462.0,616.0,154.0,308.0,770.0,924.0,gray,flipped triangle
0.0,1.0,1.0,0.0,7.0,1.0,1177.0229799994922,2.0,1.0,phase_3,,,,,696.0,6.0,696.0,232.0,580.0,348.0,464.0,116.0,magenta,triangle
0.0,3.0,3.0,0.0,7.0,3.0,1645.0312469996788,2.0,1.0,phase_3,,,,,810.0,6.0,405.0,135.0,810.0,675.0,270.0,540.0,blue,cross
0.0,7.0,3.0,1.0,7.0,4.0,1151.222659999803,2.0,1.0,phase_3,,,,,1152.0,6.0,192.0,768.0,384.0,1152.0,960.0,576.0,white,I
0.0,2.0,2.0,0.0,7.0,3.0,1775.820543000009,2.0,1.0,phase_3,,,,,616.0,4.0,154.0,770.0,616.0,308.0,924.0,462.0,orange,hexagon
0.0,3.0,3.0,0.0,7.0,3.0,1401.6209489991525,2.0,1.0,phase_3,,,,,1038.0,6.0,346.0,519.0,1038.0,173.0,865.0,692.0,blue,cross
0.0,1.0,1.0,0.0,7.0,2.0,2713.4301260002762,2.0,1.0,phase_3,,,,,576.0,3.0,384.0,576.0,960.0,1152.0,768.0,192.0,magenta,triangle
0.0,5.0,1.0,1.0,7.0,2.0,1393.9385949997811,2.0,1.0,phase_3,,,,,924.0,6.0,616.0,924.0,462.0,154.0,770.0,308.0,green,square
0.0,8.0,4.0,1.0,7.0,5.0,1602.9342219999307,2.0,1.0,phase_3,,,,,405.0,3.0,540.0,135.0,270.0,810.0,405.0,675.0,cyan,circle
0.0,8.0,4.0,1.0,7.0,5.0,2256.626280999626,2.0,1.0,phase_3,,,,,924.0,6.0,770.0,616.0,154.0,308.0,924.0,462.0,cyan,circle
0.0,6.0,2.0,1.0,7.0,2.0,1541.0614069996882,2.0,1.0,phase_3,,,,,810.0,6.0,270.0,810.0,405.0,675.0,540.0,135.0,yellow,diamond
0.0,6.0,2.0,1.0,7.0,3.0,2306.225183000606,2.0,1.0,phase_3,,,,,865.0,5.0,519.0,173.0,865.0,346.0,692.0,1038.0,yellow,diamond
0.0,7.0,3.0,1.0,7.0,2.0,1576.636150000013,2.0,1.0,phase_3,,,,,1038.0,6.0,865.0,1038.0,519.0,692.0,346.0,173.0,white,I
0.0,2.0,2.0,0.0,7.0,3.0,1395.2246389999343,2.0,1.0,phase_3,,,,,696.0,6.0,232.0,116.0,696.0,348.0,464.0,580.0,orange,hexagon
0.0,6.0,2.0,1.0,7.0,5.0,1626.7939640001714,2.0,1.0,phase_3,,,,,1152.0,6.0,960.0,576.0,384.0,192.0,1152.0,768.0,yellow,diamond
0.0,5.0,1.0,1.0,7.0,5.0,1108.0022969999843,3.0,1.0,phase_3,,,,,1152.0,6.0,576.0,384.0,192.0,960.0,1152.0,768.0,green,square
0.0,7.0,3.0,1.0,7.0,2.0,1458.910909000224,3.0,1.0,phase_3,,,,,770.0,5.0,308.0,770.0,154.0,462.0,924.0,616.0,white,I
0.0,5.0,1.0,1.0,7.0,3.0,1570.9696060002898,3.0,1.0,phase_3,,,,,692.0,4.0,865.0,346.0,692.0,519.0,1038.0,173.0,green,square
0.0,7.0,3.0,1.0,7.0,2.0,1280.0958779998837,3.0,1.0,phase_3,,,,,810.0,6.0,540.0,810.0,270.0,135.0,405.0,675.0,white,I
0.0,5.0,1.0,1.0,7.0,4.0,2211.059942999782,3.0,1.0,phase_3,,,,,232.0,2.0,348.0,464.0,116.0,232.0,580.0,696.0,green,square
0.0,8.0,4.0,1.0,7.0,3.0,1900.932745999853,3.0,1.0,phase_3,,,,,960.0,5.0,384.0,768.0,960.0,192.0,576.0,1152.0,cyan,circle
0.0,4.0,4.0,0.0,7.0,5.0,1236.1151759996574,3.0,1.0,phase_3,,,,,810.0,6.0,405.0,270.0,675.0,135.0,810.0,540.0,gray,flipped triangle
0.0,8.0,4.0,1.0,7.0,1.0,2229.9852780006404,3.0,1.0,phase_3,,,,,960.0,5.0,960.0,768.0,384.0,1152.0,576.0,192.0,cyan,circle
0.0,7.0,3.0,1.0,7.0,2.0,2462.1441169992977,3.0,1.0,phase_3,,,,,580.0,5.0,464.0,580.0,232.0,696.0,116.0,348.0,white,I
0.0,3.0,3.0,0.0,7.0,2.0,1967.6396279992327,3.0,1.0,phase_3,,,,,960.0,5.0,384.0,960.0,576.0,1152.0,192.0,768.0,blue,cross
0.0,5.0,1.0,1.0,7.0,5.0,2250.2724700007093,3.0,1.0,phase_3,,,,,675.0,5.0,270.0,540.0,405.0,810.0,675.0,135.0,green,square
0.0,8.0,4.0,1.0,7.0,5.0,2004.0174879995902,3.0,1.0,phase_3,,,,,462.0,3.0,154.0,924.0,770.0,308.0,462.0,616.0,cyan,circle
0.0,1.0,1.0,0.0,7.0,3.0,1297.521577000225,3.0,1.0,phase_3,,,,,576.0,3.0,960.0,384.0,576.0,768.0,1152.0,192.0,magenta,triangle
0.0,6.0,2.0,1.0,7.0,3.0,1359.3950350004889,3.0,1.0,phase_3,,,,,865.0,5.0,519.0,692.0,865.0,173.0,346.0,1038.0,yellow,diamond
0.0,2.0,2.0,0.0,7.0,1.0,1439.5080570002392,3.0,1.0,phase_3,,,,,580.0,5.0,580.0,232.0,348.0,464.0,116.0,696.0,orange,hexagon
0.0,6.0,2.0,1.0,7.0,3.0,1984.6989630004828,3.0,1.0,phase_3,,,,,810.0,6.0,405.0,135.0,810.0,270.0,540.0,675.0,yellow,diamond
0.0,4.0,4.0,0.0,7.0,1.0,1187.9814499998247,3.0,1.0,phase_3,,,,,1038.0,6.0,1038.0,173.0,692.0,346.0,865.0,519.0,gray,flipped triangle
0.0,5.0,1.0,1.0,7.0,5.0,1409.4683579996854,3.0,1.0,phase_3,,,,,154.0,1.0,924.0,616.0,308.0,770.0,154.0,462.0,green,square
0.0,4.0,4.0,0.0,7.0,2.0,1078.788021000037,3.0,1.0,phase_3,,,,,696.0,6.0,116.0,696.0,580.0,464.0,348.0,232.0,gray,flipped triangle
0.0,4.0,4.0,0.0,7.0,2.0,1418.4563329999946,3.0,1.0,phase_3,,,,,540.0,4.0,135.0,540.0,675.0,810.0,270.0,405.0,gray,flipped triangle
0.0,2.0,2.0,0.0,7.0,2.0,961.3763490006022,4.0,1.0,phase_3,,,,,960.0,5.0,576.0,960.0,384.0,192.0,1152.0,768.0,orange,hexagon
0.0,2.0,2.0,0.0,7.0,1.0,1715.5581870001697,4.0,1.0,phase_3,,,,,384.0,2.0,384.0,960.0,576.0,768.0,1152.0,192.0,orange,hexagon
0.0,6.0,2.0,1.0,7.0,6.0,652.3575279998113,4.0,1.0,phase_3,,,,,462.0,3.0,308.0,616.0,924.0,770.0,154.0,462.0,yellow,diamond
0.0,3.0,3.0,0.0,7.0,2.0,1189.045631999761,4.0,1.0,phase_3,,,,,616.0,4.0,462.0,616.0,308.0,154.0,924.0,770.0,blue,cross
0.0,2.0,2.0,0.0,7.0,5.0,1245.6119409998792,4.0,1.0,phase_3,,,,,540.0,4.0,270.0,675.0,135.0,405.0,540.0,810.0,orange,hexagon
0.0,1.0,1.0,0.0,7.0,1.0,1271.713507000641,4.0,1.0,phase_3,,,,,810.0,6.0,810.0,540.0,675.0,135.0,270.0,405.0,magenta,triangle
0.0,8.0,4.0,1.0,7.0,3.0,1594.0998199994283,4.0,1.0,phase_3,,,,,580.0,5.0,464.0,116.0,580.0,348.0,232.0,696.0,cyan,circle
0.0,6.0,2.0,1.0,7.0,5.0,1351.6290900006425,4.0,1.0,phase_3,,,,,384.0,2.0,576.0,768.0,192.0,960.0,384.0,1152.0,yellow,diamond
0.0,5.0,1.0,1.0,7.0,1.0,887.5157510001372,4.0,1.0,phase_3,,,,,464.0,4.0,464.0,348.0,116.0,696.0,232.0,580.0,green,square
0.0,4.0,4.0,0.0,7.0,2.0,1221.3816170005884,4.0,1.0,phase_3,,,,,1152.0,6.0,768.0,1152.0,960.0,192.0,576.0,384.0,gray,flipped triangle
0.0,8.0,4.0,1.0,7.0,3.0,1053.724857000816,4.0,1.0,phase_3,,,,,1038.0,6.0,865.0,173.0,1038.0,519.0,346.0,692.0,cyan,circle
0.0,3.0,3.0,0.0,7.0,6.0,1596.9284829998287,4.0,1.0,phase_3,,,,,692.0,4.0,865.0,346.0,1038.0,173.0,519.0,692.0,blue,cross
0.0,4.0,4.0,0.0,7.0,5.0,1537.3821039993345,4.0,1.0,phase_3,,,,,924.0,6.0,308.0,462.0,616.0,770.0,924.0,154.0,gray,flipped triangle
0.0,5.0,1.0,1.0,7.0,5.0,1193.9141709999603,4.0,1.0,phase_3,,,,,540.0,4.0,135.0,810.0,270.0,675.0,540.0,405.0,green,square
0.0,4.0,4.0,0.0,7.0,5.0,1054.2135260002397,4.0,1.0,phase_3,,,,,1152.0,6.0,576.0,960.0,384.0,768.0,1152.0,192.0,gray,flipped triangle
0.0,6.0,2.0,1.0,7.0,3.0,1800.0609359996815,4.0,1.0,phase_3,,,,,580.0,5.0,348.0,232.0,580.0,464.0,116.0,696.0,yellow,diamond
0.0,6.0,2.0,1.0,7.0,3.0,1362.784046999877,4.0,1.0,phase_3,,,,,154.0,1.0,924.0,616.0,154.0,462.0,308.0,770.0,yellow,diamond
0.0,6.0,2.0,1.0,7.0,1.0,1676.1673069995595,4.0,1.0,phase_3,,,,,464.0,4.0,464.0,580.0,696.0,348.0,232.0,116.0,yellow,diamond
0.0,1.0,1.0,0.0,7.0,5.0,1419.3510400000378,4.0,1.0,phase_3,,,,,924.0,6.0,462.0,308.0,770.0,616.0,924.0,154.0,magenta,triangle
0.0,8.0,4.0,1.0,7.0,3.0,1907.2386669995467,4.0,1.0,phase_3,,,,,580.0,5.0,116.0,232.0,580.0,464.0,348.0,696.0,cyan,circle
