raw_reward_magnitude,stim_reward,stepwise_reward_magnitude,paired_with_stopping,stim_location,response,reaction_time,block,num_trial_presentations,which_phase,stop_signal_trial_type,left_SSD,right_SSD,accuracy,chosen_bidding_amount,chosen_bidding_level,possible_bid_1,possible_bid_2,possible_bid_3,possible_bid_4,possible_bid_5,possible_bid_6,color_text,shape_text
657.0,7.0,3.0,1.0,2.0,2.0,467.565852000007,1.0,1.0,phase_1,,,,,,,,,,,,,white,square
323.0,6.0,2.0,1.0,1.0,1.0,415.5167659998824,1.0,1.0,phase_1,,,,,,,,,,,,,yellow,hexagon
670.0,7.0,3.0,1.0,1.0,1.0,391.905258999941,1.0,1.0,phase_1,,,,,,,,,,,,,white,square
1280.0,4.0,4.0,0.0,1.0,1.0,394.1466989999753,1.0,1.0,phase_1,,,,,,,,,,,,,cyan,diamond
343.0,2.0,2.0,0.0,3.0,3.0,442.6213969998116,1.0,1.0,phase_1,,,,,,,,,,,,,gray,circle
1306.0,8.0,4.0,1.0,3.0,3.0,378.5940819998359,1.0,1.0,phase_1,,,,,,,,,,,,,orange,triangle
661.0,7.0,3.0,1.0,4.0,4.0,333.8827899999614,1.0,1.0,phase_1,,,,,,,,,,,,,white,square
181.0,1.0,1.0,0.0,3.0,3.0,355.0812390001283,1.0,1.0,phase_1,,,,,,,,,,,,,blue,cross
649.0,3.0,3.0,0.0,2.0,2.0,330.5624380000154,1.0,1.0,phase_1,,,,,,,,,,,,,green,flipped triangle
626.0,7.0,3.0,1.0,1.0,1.0,339.3693339999117,1.0,1.0,phase_1,,,,,,,,,,,,,white,square
165.0,5.0,1.0,1.0,3.0,3.0,345.780065000099,1.0,1.0,phase_1,,,,,,,,,,,,,magenta,I
654.0,7.0,3.0,1.0,2.0,2.0,368.5717359999216,1.0,1.0,phase_1,,,,,,,,,,,,,white,square
146.0,1.0,1.0,0.0,4.0,4.0,338.9446060000409,1.0,1.0,phase_1,,,,,,,,,,,,,blue,cross
0.0,6.0,0.0,1.0,4.0,4.0,395.7778919998418,1.0,1.0,phase_1,,,,,,,,,,,,,yellow,hexagon
1290.0,4.0,4.0,0.0,1.0,1.0,440.4895560001023,1.0,1.0,phase_1,,,,,,,,,,,,,cyan,diamond
316.0,2.0,2.0,0.0,3.0,3.0,382.0642359999056,1.0,1.0,phase_1,,,,,,,,,,,,,gray,circle
0.0,6.0,0.0,1.0,1.0,1.0,368.4349860000111,1.0,1.0,phase_1,,,,,,,,,,,,,yellow,hexagon
303.0,6.0,2.0,1.0,4.0,4.0,376.8809369998962,1.0,1.0,phase_1,,,,,,,,,,,,,yellow,hexagon
328.0,2.0,2.0,0.0,1.0,1.0,383.332178000046,1.0,1.0,phase_1,,,,,,,,,,,,,gray,circle
174.0,1.0,1.0,0.0,3.0,3.0,321.4785349998692,1.0,1.0,phase_1,,,,,,,,,,,,,blue,cross
155.0,5.0,1.0,1.0,1.0,1.0,328.2248219998109,1.0,1.0,phase_1,,,,,,,,,,,,,magenta,I
323.0,2.0,2.0,0.0,4.0,4.0,302.7026889999433,1.0,1.0,phase_1,,,,,,,,,,,,,gray,circle
644.0,3.0,3.0,0.0,3.0,3.0,290.5901730000551,1.0,1.0,phase_1,,,,,,,,,,,,,green,flipped triangle
1304.0,4.0,4.0,0.0,3.0,3.0,342.3824399999375,1.0,1.0,phase_1,,,,,,,,,,,,,cyan,diamond
1324.0,4.0,4.0,0.0,3.0,3.0,378.9378740000302,1.0,1.0,phase_1,,,,,,,,,,,,,cyan,diamond
322.0,6.0,2.0,1.0,3.0,3.0,358.5020210000493,1.0,1.0,phase_1,,,,,,,,,,,,,yellow,hexagon
184.0,1.0,1.0,0.0,4.0,4.0,282.7830100000028,1.0,1.0,phase_1,,,,,,,,,,,,,blue,cross
0.0,4.0,0.0,0.0,3.0,3.0,284.130229999846,1.0,1.0,phase_1,,,,,,,,,,,,,cyan,diamond
172.0,5.0,1.0,1.0,3.0,3.0,291.2252300000091,1.0,1.0,phase_1,,,,,,,,,,,,,magenta,I
303.0,2.0,2.0,0.0,3.0,3.0,347.410894999939,1.0,1.0,phase_1,,,,,,,,,,,,,gray,circle
330.0,2.0,2.0,0.0,1.0,1.0,432.9840600000807,1.0,2.0,phase_1,,,,,,,,,,,,,gray,circle
342.0,2.0,2.0,0.0,3.0,3.0,411.1881369999537,1.0,1.0,phase_1,,,,,,,,,,,,,gray,circle
322.0,6.0,2.0,1.0,2.0,2.0,385.3635650000342,1.0,1.0,phase_1,,,,,,,,,,,,,yellow,hexagon
649.0,7.0,3.0,1.0,4.0,4.0,579.0098190000208,1.0,1.0,phase_1,,,,,,,,,,,,,white,square
661.0,7.0,3.0,1.0,3.0,3.0,349.315777999891,1.0,1.0,phase_1,,,,,,,,,,,,,white,square
331.0,6.0,2.0,1.0,3.0,3.0,353.3604799999921,1.0,1.0,phase_1,,,,,,,,,,,,,yellow,hexagon
626.0,7.0,3.0,1.0,4.0,4.0,281.3259099998504,1.0,1.0,phase_1,,,,,,,,,,,,,white,square
140.0,5.0,1.0,1.0,4.0,4.0,403.5628059998544,1.0,1.0,phase_1,,,,,,,,,,,,,magenta,I
0.0,5.0,0.0,1.0,3.0,3.0,308.6055109999961,1.0,1.0,phase_1,,,,,,,,,,,,,magenta,I
0.0,2.0,0.0,0.0,2.0,2.0,347.3226370001612,1.0,1.0,phase_1,,,,,,,,,,,,,gray,circle
631.0,7.0,3.0,1.0,2.0,2.0,447.4702919999345,1.0,1.0,phase_1,,,,,,,,,,,,,white,square
145.0,1.0,1.0,0.0,2.0,2.0,387.2895530000733,1.0,1.0,phase_1,,,,,,,,,,,,,blue,cross
0.0,3.0,0.0,0.0,1.0,1.0,392.9795260000901,1.0,1.0,phase_1,,,,,,,,,,,,,green,flipped triangle
626.0,3.0,3.0,0.0,3.0,3.0,329.3284490000587,1.0,1.0,phase_1,,,,,,,,,,,,,green,flipped triangle
1292.0,8.0,4.0,1.0,2.0,2.0,519.5144100000562,1.0,1.0,phase_1,,,,,,,,,,,,,orange,triangle
639.0,3.0,3.0,0.0,3.0,3.0,385.6542590001481,1.0,1.0,phase_1,,,,,,,,,,,,,green,flipped triangle
350.0,6.0,2.0,1.0,4.0,4.0,339.9049719998857,1.0,1.0,phase_1,,,,,,,,,,,,,yellow,hexagon
337.0,2.0,2.0,0.0,1.0,1.0,402.366800999971,1.0,1.0,phase_1,,,,,,,,,,,,,gray,circle
168.0,5.0,1.0,1.0,1.0,1.0,448.0465239998921,1.0,1.0,phase_1,,,,,,,,,,,,,magenta,I
0.0,8.0,0.0,1.0,4.0,4.0,383.8871959999324,1.0,1.0,phase_1,,,,,,,,,,,,,orange,triangle
1282.0,4.0,4.0,0.0,2.0,2.0,366.2438250000832,1.0,1.0,phase_1,,,,,,,,,,,,,cyan,diamond
139.0,5.0,1.0,1.0,4.0,4.0,281.7506399999274,1.0,1.0,phase_1,,,,,,,,,,,,,magenta,I
1278.0,8.0,4.0,1.0,2.0,2.0,394.0212400000291,1.0,1.0,phase_1,,,,,,,,,,,,,orange,triangle
0.0,3.0,0.0,0.0,3.0,3.0,269.093612000006,1.0,1.0,phase_1,,,,,,,,,,,,,green,flipped triangle
0.0,7.0,0.0,1.0,2.0,2.0,338.2258710000769,1.0,1.0,phase_1,,,,,,,,,,,,,white,square
1284.0,8.0,4.0,1.0,4.0,4.0,375.010525999869,1.0,1.0,phase_1,,,,,,,,,,,,,orange,triangle
1290.0,8.0,4.0,1.0,3.0,3.0,339.069856000151,1.0,1.0,phase_1,,,,,,,,,,,,,orange,triangle
328.0,6.0,2.0,1.0,3.0,3.0,370.9010600000511,1.0,1.0,phase_1,,,,,,,,,,,,,yellow,hexagon
0.0,1.0,0.0,0.0,4.0,4.0,311.0666239999773,1.0,1.0,phase_1,,,,,,,,,,,,,blue,cross
141.0,5.0,1.0,1.0,2.0,2.0,514.512601999968,1.0,2.0,phase_1,,,,,,,,,,,,,magenta,I
330.0,2.0,2.0,0.0,2.0,2.0,405.0841160001255,1.0,1.0,phase_1,,,,,,,,,,,,,gray,circle
344.0,6.0,2.0,1.0,4.0,4.0,431.4100649999091,1.0,1.0,phase_1,,,,,,,,,,,,,yellow,hexagon
161.0,1.0,1.0,0.0,1.0,1.0,701.6276130000278,1.0,1.0,phase_1,,,,,,,,,,,,,blue,cross
0.0,3.0,0.0,0.0,4.0,4.0,469.4176390000848,1.0,1.0,phase_1,,,,,,,,,,,,,green,flipped triangle
0.0,2.0,0.0,0.0,2.0,2.0,383.3103889999165,1.0,1.0,phase_1,,,,,,,,,,,,,gray,circle
627.0,7.0,3.0,1.0,2.0,2.0,393.6493440000959,1.0,1.0,phase_1,,,,,,,,,,,,,white,square
652.0,3.0,3.0,0.0,3.0,3.0,382.9528829999162,1.0,1.0,phase_1,,,,,,,,,,,,,green,flipped triangle
1295.0,4.0,4.0,0.0,4.0,4.0,341.172583999878,1.0,1.0,phase_1,,,,,,,,,,,,,cyan,diamond
337.0,6.0,2.0,1.0,1.0,1.0,407.5981080000019,1.0,1.0,phase_1,,,,,,,,,,,,,yellow,hexagon
0.0,6.0,0.0,1.0,1.0,1.0,428.6775380001018,1.0,1.0,phase_1,,,,,,,,,,,,,yellow,hexagon
1324.0,4.0,4.0,0.0,2.0,2.0,361.3499620000766,1.0,1.0,phase_1,,,,,,,,,,,,,cyan,diamond
1317.0,4.0,4.0,0.0,4.0,4.0,327.0724819999486,1.0,1.0,phase_1,,,,,,,,,,,,,cyan,diamond
0.0,6.0,0.0,1.0,4.0,4.0,338.8338280001335,1.0,1.0,phase_1,,,,,,,,,,,,,yellow,hexagon
0.0,4.0,0.0,0.0,2.0,2.0,383.5073929999453,1.0,1.0,phase_1,,,,,,,,,,,,,cyan,diamond
658.0,7.0,3.0,1.0,2.0,2.0,411.3516840000102,1.0,1.0,phase_1,,,,,,,,,,,,,white,square
158.0,5.0,1.0,1.0,1.0,1.0,339.1281799999888,1.0,1.0,phase_1,,,,,,,,,,,,,magenta,I
1307.0,4.0,4.0,0.0,1.0,1.0,329.6014330001071,1.0,1.0,phase_1,,,,,,,,,,,,,cyan,diamond
665.0,3.0,3.0,0.0,4.0,4.0,395.4661810000743,1.0,2.0,phase_1,,,,,,,,,,,,,green,flipped triangle
634.0,7.0,3.0,1.0,3.0,3.0,376.3571419999607,1.0,1.0,phase_1,,,,,,,,,,,,,white,square
670.0,3.0,3.0,0.0,2.0,2.0,394.1874970000754,1.0,1.0,phase_1,,,,,,,,,,,,,green,flipped triangle
183.0,5.0,1.0,1.0,1.0,1.0,366.5498640000351,1.0,1.0,phase_1,,,,,,,,,,,,,magenta,I
1322.0,8.0,4.0,1.0,1.0,1.0,460.0033900001108,1.0,1.0,phase_1,,,,,,,,,,,,,orange,triangle
171.0,5.0,1.0,1.0,3.0,3.0,345.6757320000179,1.0,1.0,phase_1,,,,,,,,,,,,,magenta,I
1316.0,8.0,4.0,1.0,4.0,4.0,315.2471050000258,1.0,1.0,phase_1,,,,,,,,,,,,,orange,triangle
0.0,3.0,0.0,0.0,2.0,2.0,301.7361709999022,1.0,1.0,phase_1,,,,,,,,,,,,,green,flipped triangle
147.0,5.0,1.0,1.0,3.0,3.0,310.3366390000701,1.0,1.0,phase_1,,,,,,,,,,,,,magenta,I
655.0,3.0,3.0,0.0,2.0,2.0,320.9974350002085,1.0,1.0,phase_1,,,,,,,,,,,,,green,flipped triangle
0.0,7.0,0.0,1.0,2.0,2.0,391.9033090000994,1.0,1.0,phase_1,,,,,,,,,,,,,white,square
662.0,3.0,3.0,0.0,4.0,4.0,291.7984040000192,1.0,1.0,phase_1,,,,,,,,,,,,,green,flipped triangle
670.0,3.0,3.0,0.0,1.0,1.0,376.3639579999562,1.0,1.0,phase_1,,,,,,,,,,,,,green,flipped triangle
1287.0,4.0,4.0,0.0,3.0,3.0,581.6234320000149,1.0,1.0,phase_1,,,,,,,,,,,,,cyan,diamond
158.0,5.0,1.0,1.0,1.0,1.0,526.250871000002,1.0,1.0,phase_1,,,,,,,,,,,,,magenta,I
1317.0,8.0,4.0,1.0,2.0,2.0,423.2757479999236,1.0,1.0,phase_1,,,,,,,,,,,,,orange,triangle
343.0,6.0,2.0,1.0,1.0,1.0,505.4515669999091,1.0,1.0,phase_1,,,,,,,,,,,,,yellow,hexagon
1300.0,4.0,4.0,0.0,3.0,3.0,471.7604160000519,1.0,1.0,phase_1,,,,,,,,,,,,,cyan,diamond
158.0,5.0,1.0,1.0,1.0,1.0,456.4015779999408,1.0,1.0,phase_1,,,,,,,,,,,,,magenta,I
1316.0,8.0,4.0,1.0,4.0,4.0,479.5531709999068,1.0,1.0,phase_1,,,,,,,,,,,,,orange,triangle
155.0,1.0,1.0,0.0,4.0,4.0,442.2522209999897,1.0,1.0,phase_1,,,,,,,,,,,,,blue,cross
1310.0,8.0,4.0,1.0,2.0,2.0,453.0418899998949,1.0,1.0,phase_1,,,,,,,,,,,,,orange,triangle
307.0,2.0,2.0,0.0,4.0,4.0,366.1239509999632,1.0,1.0,phase_1,,,,,,,,,,,,,gray,circle
149.0,5.0,1.0,1.0,2.0,2.0,387.5815810001768,2.0,1.0,phase_1,,,,,,,,,,,,,magenta,I
658.0,3.0,3.0,0.0,1.0,1.0,385.9267359998739,2.0,1.0,phase_1,,,,,,,,,,,,,green,flipped triangle
0.0,6.0,0.0,1.0,1.0,1.0,417.4265080000623,2.0,1.0,phase_1,,,,,,,,,,,,,yellow,hexagon
174.0,5.0,1.0,1.0,2.0,2.0,394.5332900000267,2.0,1.0,phase_1,,,,,,,,,,,,,magenta,I
1305.0,8.0,4.0,1.0,1.0,1.0,363.6546349998752,2.0,1.0,phase_1,,,,,,,,,,,,,orange,triangle
652.0,7.0,3.0,1.0,1.0,1.0,421.947025999998,2.0,1.0,phase_1,,,,,,,,,,,,,white,square
662.0,7.0,3.0,1.0,1.0,1.0,342.1806520000245,2.0,1.0,phase_1,,,,,,,,,,,,,white,square
671.0,7.0,3.0,1.0,4.0,4.0,392.467219999844,2.0,1.0,phase_1,,,,,,,,,,,,,white,square
342.0,6.0,2.0,1.0,4.0,4.0,366.5694119999898,2.0,1.0,phase_1,,,,,,,,,,,,,yellow,hexagon
172.0,1.0,1.0,0.0,3.0,3.0,347.7007429999048,2.0,1.0,phase_1,,,,,,,,,,,,,blue,cross
151.0,5.0,1.0,1.0,3.0,3.0,647.338407999996,2.0,1.0,phase_1,,,,,,,,,,,,,magenta,I
665.0,7.0,3.0,1.0,2.0,2.0,394.7555889999421,2.0,1.0,phase_1,,,,,,,,,,,,,white,square
1290.0,4.0,4.0,0.0,3.0,3.0,439.5642519998546,2.0,1.0,phase_1,,,,,,,,,,,,,cyan,diamond
639.0,7.0,3.0,1.0,2.0,2.0,441.9658580000032,2.0,1.0,phase_1,,,,,,,,,,,,,white,square
324.0,2.0,2.0,0.0,2.0,2.0,356.8107050000435,2.0,1.0,phase_1,,,,,,,,,,,,,gray,circle
316.0,6.0,2.0,1.0,4.0,4.0,492.373925000038,2.0,1.0,phase_1,,,,,,,,,,,,,yellow,hexagon
171.0,5.0,1.0,1.0,2.0,2.0,395.6381319999309,2.0,1.0,phase_1,,,,,,,,,,,,,magenta,I
141.0,5.0,1.0,1.0,4.0,4.0,440.9003660000508,2.0,1.0,phase_1,,,,,,,,,,,,,magenta,I
0.0,6.0,0.0,1.0,4.0,4.0,470.8265519998349,2.0,1.0,phase_1,,,,,,,,,,,,,yellow,hexagon
629.0,3.0,3.0,0.0,1.0,1.0,386.2584429998605,2.0,1.0,phase_1,,,,,,,,,,,,,green,flipped triangle
0.0,4.0,0.0,0.0,1.0,1.0,329.1909019999366,2.0,1.0,phase_1,,,,,,,,,,,,,cyan,diamond
1295.0,8.0,4.0,1.0,4.0,4.0,316.787573000056,2.0,1.0,phase_1,,,,,,,,,,,,,orange,triangle
0.0,7.0,0.0,1.0,2.0,2.0,509.3216149998625,2.0,1.0,phase_1,,,,,,,,,,,,,white,square
315.0,2.0,2.0,0.0,1.0,1.0,441.4966169999843,2.0,1.0,phase_1,,,,,,,,,,,,,gray,circle
662.0,7.0,3.0,1.0,3.0,3.0,358.4079960000963,2.0,1.0,phase_1,,,,,,,,,,,,,white,square
141.0,1.0,1.0,0.0,1.0,1.0,386.3187389999893,2.0,1.0,phase_1,,,,,,,,,,,,,blue,cross
1278.0,4.0,4.0,0.0,1.0,1.0,366.1362379998536,2.0,1.0,phase_1,,,,,,,,,,,,,cyan,diamond
627.0,3.0,3.0,0.0,1.0,1.0,320.9162939999714,2.0,1.0,phase_1,,,,,,,,,,,,,green,flipped triangle
311.0,6.0,2.0,1.0,1.0,1.0,348.6570689999553,2.0,1.0,phase_1,,,,,,,,,,,,,yellow,hexagon
1301.0,8.0,4.0,1.0,1.0,1.0,375.5216629999722,2.0,1.0,phase_1,,,,,,,,,,,,,orange,triangle
671.0,3.0,3.0,0.0,2.0,2.0,318.8616140000704,2.0,1.0,phase_1,,,,,,,,,,,,,green,flipped triangle
626.0,3.0,3.0,0.0,2.0,2.0,344.7138219999033,2.0,1.0,phase_1,,,,,,,,,,,,,green,flipped triangle
1309.0,4.0,4.0,0.0,4.0,4.0,421.4950499999759,2.0,2.0,phase_1,,,,,,,,,,,,,cyan,diamond
183.0,5.0,1.0,1.0,4.0,4.0,376.1201030001757,2.0,1.0,phase_1,,,,,,,,,,,,,magenta,I
0.0,3.0,0.0,0.0,3.0,3.0,366.1247029999686,2.0,1.0,phase_1,,,,,,,,,,,,,green,flipped triangle
330.0,2.0,2.0,0.0,1.0,1.0,471.4786739998544,2.0,1.0,phase_1,,,,,,,,,,,,,gray,circle
172.0,5.0,1.0,1.0,3.0,3.0,375.5377579998367,2.0,1.0,phase_1,,,,,,,,,,,,,magenta,I
1302.0,8.0,4.0,1.0,1.0,1.0,319.4438340001397,2.0,1.0,phase_1,,,,,,,,,,,,,orange,triangle
151.0,1.0,1.0,0.0,2.0,2.0,422.1711589998449,2.0,1.0,phase_1,,,,,,,,,,,,,blue,cross
631.0,3.0,3.0,0.0,3.0,3.0,394.2838529999335,2.0,1.0,phase_1,,,,,,,,,,,,,green,flipped triangle
328.0,2.0,2.0,0.0,3.0,3.0,440.0807900001382,2.0,1.0,phase_1,,,,,,,,,,,,,gray,circle
303.0,6.0,2.0,1.0,4.0,4.0,592.3215929999515,2.0,1.0,phase_1,,,,,,,,,,,,,yellow,hexagon
318.0,6.0,2.0,1.0,1.0,1.0,335.1540860001023,2.0,1.0,phase_1,,,,,,,,,,,,,yellow,hexagon
1316.0,4.0,4.0,0.0,3.0,3.0,297.9825859999891,2.0,1.0,phase_1,,,,,,,,,,,,,cyan,diamond
311.0,2.0,2.0,0.0,4.0,4.0,384.5672100001138,2.0,1.0,phase_1,,,,,,,,,,,,,gray,circle
172.0,1.0,1.0,0.0,3.0,3.0,375.3010420000464,2.0,1.0,phase_1,,,,,,,,,,,,,blue,cross
0.0,8.0,0.0,1.0,3.0,3.0,383.060185999966,2.0,1.0,phase_1,,,,,,,,,,,,,orange,triangle
0.0,8.0,0.0,1.0,2.0,2.0,512.9091399999197,2.0,1.0,phase_1,,,,,,,,,,,,,orange,triangle
0.0,7.0,0.0,1.0,3.0,3.0,391.1762529999123,2.0,1.0,phase_1,,,,,,,,,,,,,white,square
307.0,6.0,2.0,1.0,2.0,2.0,458.3779510001022,2.0,2.0,phase_1,,,,,,,,,,,,,yellow,hexagon
173.0,1.0,1.0,0.0,2.0,2.0,365.7909339999605,2.0,2.0,phase_1,,,,,,,,,,,,,blue,cross
160.0,1.0,1.0,0.0,2.0,2.0,394.4340400000783,2.0,1.0,phase_1,,,,,,,,,,,,,blue,cross
165.0,1.0,1.0,0.0,2.0,2.0,374.1215869999905,2.0,1.0,phase_1,,,,,,,,,,,,,blue,cross
0.0,4.0,0.0,0.0,1.0,1.0,367.1210449999762,2.0,1.0,phase_1,,,,,,,,,,,,,cyan,diamond
1321.0,8.0,4.0,1.0,1.0,1.0,405.6751719999738,2.0,1.0,phase_1,,,,,,,,,,,,,orange,triangle
1310.0,4.0,4.0,0.0,3.0,3.0,311.5687570000318,2.0,1.0,phase_1,,,,,,,,,,,,,cyan,diamond
334.0,6.0,2.0,1.0,2.0,2.0,443.8862559998142,2.0,2.0,phase_1,,,,,,,,,,,,,yellow,hexagon
325.0,6.0,2.0,1.0,4.0,4.0,458.5701159999189,2.0,2.0,phase_1,,,,,,,,,,,,,yellow,hexagon
1321.0,4.0,4.0,0.0,1.0,1.0,608.5217810000358,2.0,1.0,phase_1,,,,,,,,,,,,,cyan,diamond
0.0,6.0,0.0,1.0,2.0,2.0,439.3909600000825,2.0,1.0,phase_1,,,,,,,,,,,,,yellow,hexagon
647.0,3.0,3.0,0.0,1.0,1.0,562.1733599998606,2.0,1.0,phase_1,,,,,,,,,,,,,green,flipped triangle
1292.0,4.0,4.0,0.0,4.0,4.0,535.1303289999123,2.0,1.0,phase_1,,,,,,,,,,,,,cyan,diamond
670.0,7.0,3.0,1.0,3.0,3.0,459.5421060000717,2.0,1.0,phase_1,,,,,,,,,,,,,white,square
1295.0,4.0,4.0,0.0,4.0,4.0,430.6389680000393,2.0,1.0,phase_1,,,,,,,,,,,,,cyan,diamond
0.0,2.0,0.0,0.0,3.0,3.0,440.9344890000284,2.0,1.0,phase_1,,,,,,,,,,,,,gray,circle
328.0,6.0,2.0,1.0,1.0,1.0,457.4706909997985,2.0,1.0,phase_1,,,,,,,,,,,,,yellow,hexagon
0.0,2.0,0.0,0.0,1.0,1.0,419.4265189998987,2.0,1.0,phase_1,,,,,,,,,,,,,gray,circle
0.0,3.0,0.0,0.0,3.0,3.0,401.7542080000567,2.0,1.0,phase_1,,,,,,,,,,,,,green,flipped triangle
145.0,5.0,1.0,1.0,2.0,2.0,617.210464999971,2.0,1.0,phase_1,,,,,,,,,,,,,magenta,I
0.0,6.0,0.0,1.0,1.0,1.0,988.0683159999536,2.0,1.0,phase_1,,,,,,,,,,,,,yellow,hexagon
0.0,2.0,0.0,0.0,2.0,2.0,458.9513949999855,2.0,1.0,phase_1,,,,,,,,,,,,,gray,circle
0.0,1.0,0.0,0.0,2.0,2.0,441.0558169997784,2.0,1.0,phase_1,,,,,,,,,,,,,blue,cross
629.0,3.0,3.0,0.0,1.0,1.0,348.5700380001617,2.0,1.0,phase_1,,,,,,,,,,,,,green,flipped triangle
0.0,8.0,0.0,1.0,3.0,3.0,384.8635459999059,2.0,1.0,phase_1,,,,,,,,,,,,,orange,triangle
0.0,7.0,0.0,1.0,2.0,2.0,392.2938580003574,2.0,1.0,phase_1,,,,,,,,,,,,,white,square
1290.0,8.0,4.0,1.0,3.0,3.0,338.2128270000066,2.0,1.0,phase_1,,,,,,,,,,,,,orange,triangle
1295.0,4.0,4.0,0.0,4.0,4.0,414.4103359999462,2.0,2.0,phase_1,,,,,,,,,,,,,cyan,diamond
307.0,6.0,2.0,1.0,1.0,1.0,479.7814160001508,2.0,1.0,phase_1,,,,,,,,,,,,,yellow,hexagon
1276.0,8.0,4.0,1.0,4.0,4.0,441.1503780002022,2.0,1.0,phase_1,,,,,,,,,,,,,orange,triangle
1301.0,4.0,4.0,0.0,2.0,2.0,375.4415789999257,2.0,1.0,phase_1,,,,,,,,,,,,,cyan,diamond
627.0,7.0,3.0,1.0,1.0,1.0,395.4267859999163,2.0,1.0,phase_1,,,,,,,,,,,,,white,square
183.0,1.0,1.0,0.0,2.0,2.0,535.2778450001097,2.0,1.0,phase_1,,,,,,,,,,,,,blue,cross
1284.0,4.0,4.0,0.0,4.0,4.0,823.6233040001935,2.0,1.0,phase_1,,,,,,,,,,,,,cyan,diamond
320.0,2.0,2.0,0.0,4.0,4.0,467.6577129998804,2.0,1.0,phase_1,,,,,,,,,,,,,gray,circle
171.0,1.0,1.0,0.0,4.0,4.0,481.8347689997608,2.0,1.0,phase_1,,,,,,,,,,,,,blue,cross
0.0,4.0,0.0,0.0,1.0,1.0,521.0099910000281,2.0,1.0,phase_1,,,,,,,,,,,,,cyan,diamond
0.0,8.0,0.0,1.0,4.0,4.0,517.8444600001058,2.0,1.0,phase_1,,,,,,,,,,,,,orange,triangle
173.0,1.0,1.0,0.0,1.0,1.0,447.9689289996713,2.0,1.0,phase_1,,,,,,,,,,,,,blue,cross
0.0,7.0,0.0,1.0,4.0,4.0,441.5112510000654,2.0,1.0,phase_1,,,,,,,,,,,,,white,square
331.0,2.0,2.0,0.0,4.0,4.0,713.9203239999006,2.0,1.0,phase_1,,,,,,,,,,,,,gray,circle
0.0,4.0,0.0,0.0,3.0,3.0,543.9753410000776,2.0,2.0,phase_1,,,,,,,,,,,,,cyan,diamond
317.0,6.0,2.0,1.0,1.0,1.0,835.2169999998296,2.0,1.0,phase_1,,,,,,,,,,,,,yellow,hexagon
157.0,5.0,1.0,1.0,1.0,1.0,675.4845530003877,2.0,1.0,phase_1,,,,,,,,,,,,,magenta,I
158.0,1.0,1.0,0.0,3.0,3.0,494.0467989999888,2.0,2.0,phase_1,,,,,,,,,,,,,blue,cross
149.0,1.0,1.0,0.0,1.0,1.0,354.7990920001211,2.0,1.0,phase_1,,,,,,,,,,,,,blue,cross
0.0,3.0,0.0,0.0,1.0,1.0,497.2741419996964,2.0,1.0,phase_1,,,,,,,,,,,,,green,flipped triangle
1302.0,4.0,4.0,0.0,2.0,2.0,627.1857399997316,2.0,1.0,phase_1,,,,,,,,,,,,,cyan,diamond
179.0,5.0,1.0,1.0,3.0,3.0,487.8856740001538,2.0,1.0,phase_1,,,,,,,,,,,,,magenta,I
0.0,3.0,0.0,0.0,4.0,4.0,402.2434270000303,2.0,1.0,phase_1,,,,,,,,,,,,,green,flipped triangle
661.0,3.0,3.0,0.0,4.0,4.0,505.79544499987605,2.0,1.0,phase_1,,,,,,,,,,,,,green,flipped triangle
1295.0,8.0,4.0,1.0,3.0,3.0,391.062871000031,3.0,1.0,phase_1,,,,,,,,,,,,,orange,triangle
186.0,5.0,1.0,1.0,2.0,2.0,385.951071999898,3.0,1.0,phase_1,,,,,,,,,,,,,magenta,I
0.0,2.0,0.0,0.0,2.0,2.0,420.4325360001348,3.0,1.0,phase_1,,,,,,,,,,,,,gray,circle
0.0,5.0,0.0,1.0,2.0,2.0,376.2596259998645,3.0,1.0,phase_1,,,,,,,,,,,,,magenta,I
142.0,5.0,1.0,1.0,2.0,2.0,337.0556770000803,3.0,1.0,phase_1,,,,,,,,,,,,,magenta,I
0.0,2.0,0.0,0.0,1.0,1.0,486.3711610000791,3.0,1.0,phase_1,,,,,,,,,,,,,gray,circle
313.0,2.0,2.0,0.0,2.0,2.0,459.6235399999386,3.0,1.0,phase_1,,,,,,,,,,,,,gray,circle
655.0,7.0,3.0,1.0,1.0,1.0,373.2986140003049,3.0,1.0,phase_1,,,,,,,,,,,,,white,square
349.0,2.0,2.0,0.0,1.0,1.0,366.5464089999659,3.0,1.0,phase_1,,,,,,,,,,,,,gray,circle
178.0,5.0,1.0,1.0,3.0,3.0,348.4512469999572,3.0,1.0,phase_1,,,,,,,,,,,,,magenta,I
0.0,6.0,0.0,1.0,1.0,1.0,483.4124600001814,3.0,1.0,phase_1,,,,,,,,,,,,,yellow,hexagon
1276.0,4.0,4.0,0.0,4.0,4.0,468.4607789999973,3.0,1.0,phase_1,,,,,,,,,,,,,cyan,diamond
1300.0,8.0,4.0,1.0,1.0,1.0,402.8770579998308,3.0,2.0,phase_1,,,,,,,,,,,,,orange,triangle
643.0,3.0,3.0,0.0,4.0,4.0,480.4940830003943,3.0,1.0,phase_1,,,,,,,,,,,,,green,flipped triangle
149.0,1.0,1.0,0.0,3.0,3.0,512.9722219999167,3.0,1.0,phase_1,,,,,,,,,,,,,blue,cross
1287.0,8.0,4.0,1.0,2.0,2.0,431.1439350003638,3.0,1.0,phase_1,,,,,,,,,,,,,orange,triangle
350.0,2.0,2.0,0.0,2.0,2.0,402.606692000063,3.0,1.0,phase_1,,,,,,,,,,,,,gray,circle
647.0,7.0,3.0,1.0,3.0,3.0,476.6828159999932,3.0,1.0,phase_1,,,,,,,,,,,,,white,square
163.0,5.0,1.0,1.0,3.0,3.0,402.0711369998935,3.0,1.0,phase_1,,,,,,,,,,,,,magenta,I
0.0,1.0,0.0,0.0,1.0,1.0,592.9584499999692,3.0,2.0,phase_1,,,,,,,,,,,,,blue,cross
1322.0,4.0,4.0,0.0,2.0,2.0,439.5594689999598,3.0,1.0,phase_1,,,,,,,,,,,,,cyan,diamond
1292.0,8.0,4.0,1.0,3.0,3.0,475.5386780002482,3.0,1.0,phase_1,,,,,,,,,,,,,orange,triangle
326.0,2.0,2.0,0.0,3.0,3.0,430.9309420000318,3.0,1.0,phase_1,,,,,,,,,,,,,gray,circle
1302.0,4.0,4.0,0.0,3.0,3.0,429.2460829997253,3.0,1.0,phase_1,,,,,,,,,,,,,cyan,diamond
1307.0,8.0,4.0,1.0,2.0,2.0,477.0968900002117,3.0,1.0,phase_1,,,,,,,,,,,,,orange,triangle
344.0,2.0,2.0,0.0,4.0,4.0,413.8075149999167,3.0,1.0,phase_1,,,,,,,,,,,,,gray,circle
1316.0,4.0,4.0,0.0,3.0,3.0,381.0604539999076,3.0,1.0,phase_1,,,,,,,,,,,,,cyan,diamond
0.0,5.0,0.0,1.0,3.0,3.0,431.8293460000859,3.0,1.0,phase_1,,,,,,,,,,,,,magenta,I
169.0,1.0,1.0,0.0,4.0,4.0,409.1746610001792,3.0,1.0,phase_1,,,,,,,,,,,,,blue,cross
163.0,1.0,1.0,0.0,2.0,2.0,392.2253619998628,3.0,1.0,phase_1,,,,,,,,,,,,,blue,cross
0.0,4.0,0.0,0.0,1.0,1.0,466.871810000157,3.0,1.0,phase_1,,,,,,,,,,,,,cyan,diamond
667.0,7.0,3.0,1.0,3.0,3.0,348.1897199999366,3.0,1.0,phase_1,,,,,,,,,,,,,white,square
667.0,7.0,3.0,1.0,4.0,4.0,372.6976099997046,3.0,1.0,phase_1,,,,,,,,,,,,,white,square
181.0,5.0,1.0,1.0,1.0,1.0,488.6062499999752,3.0,1.0,phase_1,,,,,,,,,,,,,magenta,I
0.0,7.0,0.0,1.0,2.0,2.0,449.401939999916,3.0,1.0,phase_1,,,,,,,,,,,,,white,square
1280.0,8.0,4.0,1.0,3.0,3.0,365.1136309999856,3.0,1.0,phase_1,,,,,,,,,,,,,orange,triangle
652.0,3.0,3.0,0.0,1.0,1.0,489.2043410000042,3.0,1.0,phase_1,,,,,,,,,,,,,green,flipped triangle
154.0,1.0,1.0,0.0,4.0,4.0,432.2401109998282,3.0,1.0,phase_1,,,,,,,,,,,,,blue,cross
169.0,5.0,1.0,1.0,2.0,2.0,363.18368100000947,3.0,1.0,phase_1,,,,,,,,,,,,,magenta,I
661.0,3.0,3.0,0.0,2.0,2.0,401.8350729998019,3.0,1.0,phase_1,,,,,,,,,,,,,green,flipped triangle
325.0,2.0,2.0,0.0,2.0,2.0,465.313358000003,3.0,1.0,phase_1,,,,,,,,,,,,,gray,circle
328.0,2.0,2.0,0.0,1.0,1.0,432.4612360001083,3.0,1.0,phase_1,,,,,,,,,,,,,gray,circle
1286.0,8.0,4.0,1.0,4.0,4.0,382.4817659997279,3.0,1.0,phase_1,,,,,,,,,,,,,orange,triangle
0.0,1.0,0.0,0.0,4.0,4.0,394.6270759997787,3.0,1.0,phase_1,,,,,,,,,,,,,blue,cross
0.0,3.0,0.0,0.0,3.0,3.0,378.4621670001797,3.0,1.0,phase_1,,,,,,,,,,,,,green,flipped triangle
142.0,1.0,1.0,0.0,4.0,4.0,354.0874710001844,3.0,1.0,phase_1,,,,,,,,,,,,,blue,cross
307.0,6.0,2.0,1.0,2.0,2.0,436.5080480001779,3.0,1.0,phase_1,,,,,,,,,,,,,yellow,hexagon
320.0,6.0,2.0,1.0,2.0,2.0,403.3709820000695,3.0,1.0,phase_1,,,,,,,,,,,,,yellow,hexagon
644.0,7.0,3.0,1.0,1.0,1.0,606.971528000031,3.0,1.0,phase_1,,,,,,,,,,,,,white,square
0.0,7.0,0.0,1.0,4.0,4.0,421.7775909996817,3.0,1.0,phase_1,,,,,,,,,,,,,white,square
0.0,8.0,0.0,1.0,2.0,2.0,346.4943449998827,3.0,1.0,phase_1,,,,,,,,,,,,,orange,triangle
339.0,6.0,2.0,1.0,2.0,2.0,374.6899630000371,3.0,1.0,phase_1,,,,,,,,,,,,,yellow,hexagon
160.0,5.0,1.0,1.0,4.0,4.0,452.742384999965,3.0,1.0,phase_1,,,,,,,,,,,,,magenta,I
654.0,3.0,3.0,0.0,4.0,4.0,346.4774189997115,3.0,1.0,phase_1,,,,,,,,,,,,,green,flipped triangle
652.0,7.0,3.0,1.0,4.0,4.0,356.9631760001357,3.0,1.0,phase_1,,,,,,,,,,,,,white,square
0.0,1.0,0.0,0.0,2.0,2.0,355.7612130002781,3.0,1.0,phase_1,,,,,,,,,,,,,blue,cross
634.0,3.0,3.0,0.0,3.0,3.0,405.7852949999869,3.0,1.0,phase_1,,,,,,,,,,,,,green,flipped triangle
143.0,5.0,1.0,1.0,4.0,4.0,365.6142119998549,3.0,1.0,phase_1,,,,,,,,,,,,,magenta,I
1318.0,4.0,4.0,0.0,2.0,2.0,364.0833020003811,3.0,1.0,phase_1,,,,,,,,,,,,,cyan,diamond
0.0,5.0,0.0,1.0,2.0,2.0,460.6883659998857,3.0,1.0,phase_1,,,,,,,,,,,,,magenta,I
660.0,3.0,3.0,0.0,3.0,3.0,507.0584720001534,3.0,1.0,phase_1,,,,,,,,,,,,,green,flipped triangle
310.0,2.0,2.0,0.0,1.0,1.0,591.9875939998747,3.0,1.0,phase_1,,,,,,,,,,,,,gray,circle
660.0,7.0,3.0,1.0,2.0,2.0,469.644455999969,3.0,1.0,phase_1,,,,,,,,,,,,,white,square
0.0,1.0,0.0,0.0,3.0,3.0,356.3169469998684,3.0,1.0,phase_1,,,,,,,,,,,,,blue,cross
1280.0,8.0,4.0,1.0,2.0,2.0,507.936478999909,3.0,1.0,phase_1,,,,,,,,,,,,,orange,triangle
1295.0,8.0,4.0,1.0,1.0,1.0,610.4097399997954,3.0,1.0,phase_1,,,,,,,,,,,,,orange,triangle
322.0,2.0,2.0,0.0,1.0,1.0,674.3910039999719,3.0,1.0,phase_1,,,,,,,,,,,,,gray,circle
303.0,2.0,2.0,0.0,2.0,2.0,479.6362399997633,3.0,1.0,phase_1,,,,,,,,,,,,,gray,circle
0.0,1.0,0.0,0.0,3.0,3.0,440.0888539998959,3.0,1.0,phase_1,,,,,,,,,,,,,blue,cross
1302.0,8.0,4.0,1.0,3.0,3.0,396.9119240000509,3.0,1.0,phase_1,,,,,,,,,,,,,orange,triangle
343.0,2.0,2.0,0.0,4.0,4.0,442.2373219999826,3.0,1.0,phase_1,,,,,,,,,,,,,gray,circle
669.0,7.0,3.0,1.0,3.0,3.0,367.062132999763,3.0,1.0,phase_1,,,,,,,,,,,,,white,square
334.0,2.0,2.0,0.0,2.0,2.0,404.4666039999356,3.0,1.0,phase_1,,,,,,,,,,,,,gray,circle
1290.0,4.0,4.0,0.0,3.0,3.0,356.4898260001428,3.0,1.0,phase_1,,,,,,,,,,,,,cyan,diamond
637.0,3.0,3.0,0.0,1.0,1.0,724.8278009997193,3.0,1.0,phase_1,,,,,,,,,,,,,green,flipped triangle
179.0,1.0,1.0,0.0,2.0,2.0,533.7833749999845,3.0,1.0,phase_1,,,,,,,,,,,,,blue,cross
0.0,5.0,0.0,1.0,1.0,1.0,421.6021120000732,3.0,1.0,phase_1,,,,,,,,,,,,,magenta,I
303.0,6.0,2.0,1.0,3.0,3.0,471.3743390002491,3.0,1.0,phase_1,,,,,,,,,,,,,yellow,hexagon
161.0,5.0,1.0,1.0,2.0,2.0,466.7875400000412,3.0,1.0,phase_1,,,,,,,,,,,,,magenta,I
167.0,5.0,1.0,1.0,1.0,1.0,424.1037309998319,3.0,1.0,phase_1,,,,,,,,,,,,,magenta,I
141.0,1.0,1.0,0.0,2.0,2.0,413.3161309996467,3.0,1.0,phase_1,,,,,,,,,,,,,blue,cross
1286.0,4.0,4.0,0.0,1.0,1.0,451.2349270003142,3.0,1.0,phase_1,,,,,,,,,,,,,cyan,diamond
330.0,6.0,2.0,1.0,2.0,2.0,480.8895940000184,3.0,1.0,phase_1,,,,,,,,,,,,,yellow,hexagon
674.0,7.0,3.0,1.0,3.0,3.0,327.8038739999829,3.0,1.0,phase_1,,,,,,,,,,,,,white,square
1292.0,4.0,4.0,0.0,4.0,4.0,444.1186389999529,3.0,1.0,phase_1,,,,,,,,,,,,,cyan,diamond
1282.0,8.0,4.0,1.0,4.0,4.0,404.679496999961,3.0,1.0,phase_1,,,,,,,,,,,,,orange,triangle
0.0,5.0,0.0,1.0,4.0,4.0,452.0969820000573,3.0,1.0,phase_1,,,,,,,,,,,,,magenta,I
658.0,3.0,3.0,0.0,2.0,2.0,387.3691170001621,3.0,1.0,phase_1,,,,,,,,,,,,,green,flipped triangle
1290.0,8.0,4.0,1.0,4.0,4.0,432.1188320000146,3.0,1.0,phase_1,,,,,,,,,,,,,orange,triangle
0.0,6.0,0.0,1.0,3.0,3.0,366.4888280000014,3.0,1.0,phase_1,,,,,,,,,,,,,yellow,hexagon
1317.0,4.0,4.0,0.0,1.0,1.0,406.5320949998749,3.0,1.0,phase_1,,,,,,,,,,,,,cyan,diamond
669.0,3.0,3.0,0.0,3.0,3.0,377.6951879999615,3.0,1.0,phase_1,,,,,,,,,,,,,green,flipped triangle
324.0,6.0,2.0,1.0,2.0,2.0,461.055019000014,3.0,2.0,phase_1,,,,,,,,,,,,,yellow,hexagon
0.0,1.0,0.0,0.0,4.0,4.0,402.8738590000102,3.0,1.0,phase_1,,,,,,,,,,,,,blue,cross
631.0,3.0,3.0,0.0,4.0,4.0,447.5164299997232,3.0,1.0,phase_1,,,,,,,,,,,,,green,flipped triangle
667.0,3.0,3.0,0.0,2.0,2.0,367.8288090000023,3.0,1.0,phase_1,,,,,,,,,,,,,green,flipped triangle
0.0,7.0,0.0,1.0,4.0,4.0,389.0613590001521,3.0,1.0,phase_1,,,,,,,,,,,,,white,square
1280.0,4.0,4.0,0.0,2.0,2.0,363.0713450002076,3.0,1.0,phase_1,,,,,,,,,,,,,cyan,diamond
307.0,2.0,2.0,0.0,4.0,4.0,360.0840969997989,3.0,1.0,phase_1,,,,,,,,,,,,,gray,circle
186.0,1.0,1.0,0.0,3.0,3.0,467.9271220002192,3.0,1.0,phase_1,,,,,,,,,,,,,blue,cross
1310.0,8.0,4.0,1.0,3.0,3.0,384.9755729997923,4.0,1.0,phase_1,,,,,,,,,,,,,orange,triangle
0.0,5.0,0.0,1.0,2.0,2.0,346.5447619996666,4.0,1.0,phase_1,,,,,,,,,,,,,magenta,I
349.0,6.0,2.0,1.0,3.0,3.0,329.8577510004179,4.0,1.0,phase_1,,,,,,,,,,,,,yellow,hexagon
661.0,7.0,3.0,1.0,1.0,1.0,442.8246349998517,4.0,1.0,phase_1,,,,,,,,,,,,,white,square
643.0,7.0,3.0,1.0,4.0,4.0,359.1997260000426,4.0,1.0,phase_1,,,,,,,,,,,,,white,square
635.0,3.0,3.0,0.0,2.0,2.0,374.6283630002835,4.0,1.0,phase_1,,,,,,,,,,,,,green,flipped triangle
0.0,8.0,0.0,1.0,3.0,3.0,335.71097299955,4.0,1.0,phase_1,,,,,,,,,,,,,orange,triangle
1279.0,8.0,4.0,1.0,2.0,2.0,350.1791689996025,4.0,1.0,phase_1,,,,,,,,,,,,,orange,triangle
1303.0,4.0,4.0,0.0,2.0,2.0,404.5392369998808,4.0,1.0,phase_1,,,,,,,,,,,,,cyan,diamond
0.0,5.0,0.0,1.0,1.0,1.0,348.6151880001671,4.0,1.0,phase_1,,,,,,,,,,,,,magenta,I
0.0,4.0,0.0,0.0,1.0,1.0,452.1958079999422,4.0,1.0,phase_1,,,,,,,,,,,,,cyan,diamond
637.0,3.0,3.0,0.0,4.0,4.0,684.8185109997758,4.0,1.0,phase_1,,,,,,,,,,,,,green,flipped triangle
0.0,8.0,0.0,1.0,2.0,2.0,442.3235220001515,4.0,1.0,phase_1,,,,,,,,,,,,,orange,triangle
1304.0,8.0,4.0,1.0,3.0,3.0,376.608011999906,4.0,1.0,phase_1,,,,,,,,,,,,,orange,triangle
339.0,2.0,2.0,0.0,4.0,4.0,408.2188530001076,4.0,1.0,phase_1,,,,,,,,,,,,,gray,circle
330.0,6.0,2.0,1.0,1.0,1.0,481.9074779998118,4.0,1.0,phase_1,,,,,,,,,,,,,yellow,hexagon
147.0,1.0,1.0,0.0,1.0,1.0,514.7994150001978,4.0,1.0,phase_1,,,,,,,,,,,,,blue,cross
181.0,5.0,1.0,1.0,4.0,4.0,544.144463000066,4.0,1.0,phase_1,,,,,,,,,,,,,magenta,I
317.0,2.0,2.0,0.0,3.0,3.0,347.8834069996992,4.0,1.0,phase_1,,,,,,,,,,,,,gray,circle
173.0,5.0,1.0,1.0,1.0,1.0,497.5537790000999,4.0,1.0,phase_1,,,,,,,,,,,,,magenta,I
639.0,7.0,3.0,1.0,1.0,1.0,583.7359910001396,4.0,1.0,phase_1,,,,,,,,,,,,,white,square
662.0,3.0,3.0,0.0,4.0,4.0,562.5057789998209,4.0,1.0,phase_1,,,,,,,,,,,,,green,flipped triangle
140.0,1.0,1.0,0.0,3.0,3.0,430.8760809999512,4.0,1.0,phase_1,,,,,,,,,,,,,blue,cross
310.0,6.0,2.0,1.0,2.0,2.0,368.7870620001376,4.0,1.0,phase_1,,,,,,,,,,,,,yellow,hexagon
1303.0,8.0,4.0,1.0,2.0,2.0,536.4712559999134,4.0,1.0,phase_1,,,,,,,,,,,,,orange,triangle
0.0,8.0,0.0,1.0,4.0,4.0,432.8314059998774,4.0,1.0,phase_1,,,,,,,,,,,,,orange,triangle
167.0,1.0,1.0,0.0,4.0,4.0,367.0692160003455,4.0,1.0,phase_1,,,,,,,,,,,,,blue,cross
1290.0,4.0,4.0,0.0,4.0,4.0,347.7412299998832,4.0,1.0,phase_1,,,,,,,,,,,,,cyan,diamond
1279.0,4.0,4.0,0.0,2.0,2.0,412.8788150001128,4.0,1.0,phase_1,,,,,,,,,,,,,cyan,diamond
184.0,5.0,1.0,1.0,3.0,3.0,411.4782219999142,4.0,1.0,phase_1,,,,,,,,,,,,,magenta,I
317.0,2.0,2.0,0.0,3.0,3.0,422.8349730001355,4.0,1.0,phase_1,,,,,,,,,,,,,gray,circle
330.0,6.0,2.0,1.0,4.0,4.0,401.9241270002567,4.0,1.0,phase_1,,,,,,,,,,,,,yellow,hexagon
631.0,7.0,3.0,1.0,4.0,4.0,382.3236339999312,4.0,1.0,phase_1,,,,,,,,,,,,,white,square
1324.0,8.0,4.0,1.0,4.0,4.0,416.8128940000315,4.0,1.0,phase_1,,,,,,,,,,,,,orange,triangle
629.0,7.0,3.0,1.0,2.0,2.0,423.3142480002243,4.0,1.0,phase_1,,,,,,,,,,,,,white,square
154.0,5.0,1.0,1.0,4.0,4.0,340.0077410001358,4.0,1.0,phase_1,,,,,,,,,,,,,magenta,I
0.0,2.0,0.0,0.0,4.0,4.0,378.4526179997556,4.0,1.0,phase_1,,,,,,,,,,,,,gray,circle
307.0,2.0,2.0,0.0,3.0,3.0,573.406599000009,4.0,1.0,phase_1,,,,,,,,,,,,,gray,circle
1288.0,4.0,4.0,0.0,1.0,1.0,583.5653559997809,4.0,1.0,phase_1,,,,,,,,,,,,,cyan,diamond
635.0,7.0,3.0,1.0,2.0,2.0,404.1888370002198,4.0,1.0,phase_1,,,,,,,,,,,,,white,square
0.0,3.0,0.0,0.0,3.0,3.0,402.4658000003001,4.0,1.0,phase_1,,,,,,,,,,,,,green,flipped triangle
313.0,6.0,2.0,1.0,3.0,3.0,384.009199999582,4.0,1.0,phase_1,,,,,,,,,,,,,yellow,hexagon
178.0,1.0,1.0,0.0,1.0,1.0,576.2278929996683,4.0,1.0,phase_1,,,,,,,,,,,,,blue,cross
183.0,1.0,1.0,0.0,1.0,1.0,768.0003739997119,4.0,1.0,phase_1,,,,,,,,,,,,,blue,cross
0.0,5.0,0.0,1.0,3.0,3.0,507.74569700024585,4.0,1.0,phase_1,,,,,,,,,,,,,magenta,I
158.0,1.0,1.0,0.0,3.0,3.0,423.5904480001409,4.0,1.0,phase_1,,,,,,,,,,,,,blue,cross
651.0,7.0,3.0,1.0,1.0,1.0,525.8447209998849,4.0,1.0,phase_1,,,,,,,,,,,,,white,square
343.0,6.0,2.0,1.0,1.0,1.0,431.5979869998045,4.0,1.0,phase_1,,,,,,,,,,,,,yellow,hexagon
0.0,2.0,0.0,0.0,1.0,1.0,489.0971199997693,4.0,1.0,phase_1,,,,,,,,,,,,,gray,circle
0.0,8.0,0.0,1.0,2.0,2.0,535.1819160000559,4.0,1.0,phase_1,,,,,,,,,,,,,orange,triangle
639.0,3.0,3.0,0.0,2.0,2.0,391.9776259999707,4.0,1.0,phase_1,,,,,,,,,,,,,green,flipped triangle
1290.0,8.0,4.0,1.0,1.0,1.0,420.7088289999774,4.0,1.0,phase_1,,,,,,,,,,,,,orange,triangle
1317.0,8.0,4.0,1.0,1.0,1.0,356.7542000000685,4.0,1.0,phase_1,,,,,,,,,,,,,orange,triangle
0.0,4.0,0.0,0.0,2.0,2.0,376.4234769996619,4.0,1.0,phase_1,,,,,,,,,,,,,cyan,diamond
1310.0,4.0,4.0,0.0,2.0,2.0,451.7578780000804,4.0,1.0,phase_1,,,,,,,,,,,,,cyan,diamond
303.0,2.0,2.0,0.0,4.0,4.0,505.28957000005903,4.0,1.0,phase_1,,,,,,,,,,,,,gray,circle
1309.0,8.0,4.0,1.0,2.0,2.0,393.2762220001677,4.0,1.0,phase_1,,,,,,,,,,,,,orange,triangle
326.0,6.0,2.0,1.0,4.0,4.0,740.9913770002277,4.0,2.0,phase_1,,,,,,,,,,,,,yellow,hexagon
339.0,2.0,2.0,0.0,2.0,2.0,500.8653149998281,4.0,1.0,phase_1,,,,,,,,,,,,,gray,circle
1306.0,4.0,4.0,0.0,1.0,1.0,530.5761839999832,4.0,1.0,phase_1,,,,,,,,,,,,,cyan,diamond
0.0,7.0,0.0,1.0,3.0,3.0,495.9642080002595,4.0,2.0,phase_1,,,,,,,,,,,,,white,square
637.0,7.0,3.0,1.0,3.0,3.0,430.1535989998228,4.0,1.0,phase_1,,,,,,,,,,,,,white,square
1288.0,8.0,4.0,1.0,4.0,4.0,570.7928669999092,4.0,1.0,phase_1,,,,,,,,,,,,,orange,triangle
315.0,6.0,2.0,1.0,3.0,3.0,432.2379479999654,4.0,1.0,phase_1,,,,,,,,,,,,,yellow,hexagon
1305.0,4.0,4.0,0.0,1.0,1.0,498.7140110001746,4.0,1.0,phase_1,,,,,,,,,,,,,cyan,diamond
158.0,1.0,1.0,0.0,4.0,4.0,525.4583769997225,4.0,1.0,phase_1,,,,,,,,,,,,,blue,cross
146.0,5.0,1.0,1.0,4.0,4.0,488.0166319999262,4.0,1.0,phase_1,,,,,,,,,,,,,magenta,I
674.0,3.0,3.0,0.0,3.0,3.0,356.9618980000086,4.0,1.0,phase_1,,,,,,,,,,,,,green,flipped triangle
143.0,1.0,1.0,0.0,4.0,4.0,444.62353300014,4.0,1.0,phase_1,,,,,,,,,,,,,blue,cross
149.0,5.0,1.0,1.0,4.0,4.0,627.5301969999418,4.0,1.0,phase_1,,,,,,,,,,,,,magenta,I
0.0,4.0,0.0,0.0,2.0,2.0,637.8602849999879,4.0,1.0,phase_1,,,,,,,,,,,,,cyan,diamond
658.0,7.0,3.0,1.0,3.0,3.0,346.5784420000091,4.0,1.0,phase_1,,,,,,,,,,,,,white,square
168.0,1.0,1.0,0.0,1.0,1.0,439.6519729998545,4.0,1.0,phase_1,,,,,,,,,,,,,blue,cross
0.0,5.0,0.0,1.0,1.0,1.0,450.7156589997976,4.0,1.0,phase_1,,,,,,,,,,,,,magenta,I
328.0,6.0,2.0,1.0,3.0,3.0,348.2888620001176,4.0,1.0,phase_1,,,,,,,,,,,,,yellow,hexagon
139.0,1.0,1.0,0.0,1.0,1.0,516.2917420002486,4.0,1.0,phase_1,,,,,,,,,,,,,blue,cross
317.0,6.0,2.0,1.0,4.0,4.0,654.7071150002921,4.0,1.0,phase_1,,,,,,,,,,,,,yellow,hexagon
651.0,3.0,3.0,0.0,3.0,3.0,457.7710849998766,4.0,1.0,phase_1,,,,,,,,,,,,,green,flipped triangle
667.0,3.0,3.0,0.0,4.0,4.0,396.6918790001728,4.0,1.0,phase_1,,,,,,,,,,,,,green,flipped triangle
171.0,1.0,1.0,0.0,1.0,1.0,570.1794889996563,4.0,1.0,phase_1,,,,,,,,,,,,,blue,cross
1318.0,8.0,4.0,1.0,1.0,1.0,760.7738320002682,4.0,1.0,phase_1,,,,,,,,,,,,,orange,triangle
342.0,6.0,2.0,1.0,2.0,2.0,554.3296450000526,4.0,1.0,phase_1,,,,,,,,,,,,,yellow,hexagon
1324.0,8.0,4.0,1.0,3.0,3.0,358.3703490003245,4.0,1.0,phase_1,,,,,,,,,,,,,orange,triangle
342.0,2.0,2.0,0.0,3.0,3.0,468.5294329997305,4.0,1.0,phase_1,,,,,,,,,,,,,gray,circle
627.0,3.0,3.0,0.0,4.0,4.0,348.0153470000005,4.0,1.0,phase_1,,,,,,,,,,,,,green,flipped triangle
181.0,1.0,1.0,0.0,3.0,3.0,656.2912370000049,4.0,1.0,phase_1,,,,,,,,,,,,,blue,cross
318.0,6.0,2.0,1.0,3.0,3.0,392.9717609998988,4.0,1.0,phase_1,,,,,,,,,,,,,yellow,hexagon
173.0,5.0,1.0,1.0,2.0,2.0,506.7159610002818,4.0,1.0,phase_1,,,,,,,,,,,,,magenta,I
0.0,1.0,0.0,0.0,3.0,3.0,395.1459260001684,4.0,1.0,phase_1,,,,,,,,,,,,,blue,cross
322.0,2.0,2.0,0.0,2.0,2.0,461.4236140000685,4.0,1.0,phase_1,,,,,,,,,,,,,gray,circle
318.0,2.0,2.0,0.0,2.0,2.0,441.4305539999077,4.0,1.0,phase_1,,,,,,,,,,,,,gray,circle
339.0,6.0,2.0,1.0,3.0,3.0,404.597104000004,4.0,1.0,phase_1,,,,,,,,,,,,,yellow,hexagon
629.0,7.0,3.0,1.0,4.0,4.0,448.9772669999183,4.0,1.0,phase_1,,,,,,,,,,,,,white,square
0.0,2.0,0.0,0.0,4.0,4.0,433.0186249999315,4.0,1.0,phase_1,,,,,,,,,,,,,gray,circle
637.0,7.0,3.0,1.0,4.0,4.0,391.8950890001724,4.0,1.0,phase_1,,,,,,,,,,,,,white,square
661.0,3.0,3.0,0.0,1.0,1.0,564.9534069998481,4.0,1.0,phase_1,,,,,,,,,,,,,green,flipped triangle
0.0,1.0,0.0,0.0,4.0,4.0,523.2583160000104,4.0,1.0,phase_1,,,,,,,,,,,,,blue,cross
318.0,2.0,2.0,0.0,1.0,1.0,862.7144090000911,4.0,1.0,phase_1,,,,,,,,,,,,,gray,circle
657.0,3.0,3.0,0.0,1.0,1.0,515.1030580000224,4.0,1.0,phase_1,,,,,,,,,,,,,green,flipped triangle
157.0,1.0,1.0,0.0,2.0,2.0,554.1111399998044,4.0,1.0,phase_1,,,,,,,,,,,,,blue,cross
0.0,5.0,1.0,1.0,6.0,6.0,686.8620679997548,1.0,1.0,phase_2,stop,250.0,250.0,3.0,,,,,,,,,magenta,I
0.0,1.0,1.0,0.0,6.0,6.0,585.7665300000008,1.0,1.0,phase_2,go,250.0,200.0,1.0,,,,,,,,,blue,cross
0.0,4.0,4.0,0.0,5.0,5.0,510.3039320001699,1.0,1.0,phase_2,go,250.0,200.0,1.0,,,,,,,,,cyan,diamond
0.0,7.0,3.0,1.0,6.0,6.0,449.7917389999202,1.0,1.0,phase_2,go,250.0,200.0,1.0,,,,,,,,,white,square
0.0,6.0,2.0,1.0,5.0,5.0,457.3804349997772,1.0,1.0,phase_2,stop,250.0,200.0,3.0,,,,,,,,,yellow,hexagon
0.0,8.0,4.0,1.0,6.0,6.0,454.965906000325,1.0,1.0,phase_2,go,200.0,200.0,1.0,,,,,,,,,orange,triangle
0.0,7.0,3.0,1.0,5.0,5.0,807.4532959999488,1.0,1.0,phase_2,stop,200.0,200.0,3.0,,,,,,,,,white,square
0.0,1.0,1.0,0.0,5.0,5.0,529.7815349999837,1.0,1.0,phase_2,go,150.0,200.0,1.0,,,,,,,,,blue,cross
0.0,8.0,4.0,1.0,5.0,0.0,0.0,1.0,1.0,phase_2,stop,150.0,200.0,4.0,,,,,,,,,orange,triangle
0.0,3.0,3.0,0.0,6.0,6.0,548.5794149999492,1.0,1.0,phase_2,go,200.0,200.0,1.0,,,,,,,,,green,flipped triangle
0.0,7.0,3.0,1.0,6.0,6.0,700.903339999968,1.0,1.0,phase_2,go,200.0,200.0,1.0,,,,,,,,,white,square
0.0,7.0,3.0,1.0,6.0,6.0,695.4178549999597,1.0,1.0,phase_2,go,200.0,200.0,1.0,,,,,,,,,white,square
0.0,6.0,2.0,1.0,6.0,0.0,0.0,1.0,1.0,phase_2,stop,200.0,200.0,4.0,,,,,,,,,yellow,hexagon
0.0,5.0,1.0,1.0,6.0,0.0,0.0,1.0,1.0,phase_2,stop,200.0,250.0,4.0,,,,,,,,,magenta,I
0.0,3.0,3.0,0.0,5.0,5.0,595.2471159998822,1.0,1.0,phase_2,go,200.0,300.0,1.0,,,,,,,,,green,flipped triangle
0.0,2.0,2.0,0.0,5.0,5.0,755.0070130000677,1.0,1.0,phase_2,go,200.0,300.0,1.0,,,,,,,,,gray,circle
0.0,8.0,4.0,1.0,6.0,0.0,0.0,1.0,1.0,phase_2,stop,200.0,300.0,4.0,,,,,,,,,orange,triangle
0.0,2.0,2.0,0.0,5.0,5.0,567.475770999863,1.0,1.0,phase_2,go,200.0,350.0,1.0,,,,,,,,,gray,circle
0.0,7.0,3.0,1.0,5.0,0.0,0.0,1.0,1.0,phase_2,stop,200.0,350.0,4.0,,,,,,,,,white,square
0.0,1.0,1.0,0.0,5.0,5.0,558.469151999816,1.0,1.0,phase_2,go,250.0,350.0,1.0,,,,,,,,,blue,cross
0.0,8.0,4.0,1.0,5.0,0.0,0.0,1.0,1.0,phase_2,stop,250.0,350.0,4.0,,,,,,,,,orange,triangle
0.0,6.0,2.0,1.0,5.0,0.0,0.0,1.0,1.0,phase_2,stop,300.0,350.0,4.0,,,,,,,,,yellow,hexagon
0.0,5.0,1.0,1.0,5.0,0.0,0.0,1.0,1.0,phase_2,stop,350.0,350.0,4.0,,,,,,,,,magenta,I
0.0,4.0,4.0,0.0,5.0,5.0,661.1778960000265,1.0,1.0,phase_2,go,400.0,350.0,1.0,,,,,,,,,cyan,diamond
0.0,8.0,4.0,1.0,5.0,0.0,0.0,1.0,1.0,phase_2,stop,400.0,350.0,4.0,,,,,,,,,orange,triangle
0.0,1.0,1.0,0.0,6.0,6.0,725.2678410000044,1.0,1.0,phase_2,go,450.0,350.0,1.0,,,,,,,,,blue,cross
0.0,5.0,1.0,1.0,5.0,5.0,655.6784159997733,1.0,1.0,phase_2,stop,450.0,350.0,3.0,,,,,,,,,magenta,I
0.0,6.0,2.0,1.0,5.0,0.0,0.0,1.0,1.0,phase_2,stop,400.0,350.0,4.0,,,,,,,,,yellow,hexagon
0.0,4.0,4.0,0.0,6.0,6.0,740.7255160001114,1.0,1.0,phase_2,go,450.0,350.0,1.0,,,,,,,,,cyan,diamond
0.0,1.0,1.0,0.0,6.0,6.0,785.7504969997535,1.0,1.0,phase_2,go,450.0,350.0,1.0,,,,,,,,,blue,cross
0.0,2.0,2.0,0.0,6.0,6.0,690.7945240000117,1.0,1.0,phase_2,go,450.0,350.0,1.0,,,,,,,,,gray,circle
0.0,5.0,1.0,1.0,6.0,0.0,0.0,1.0,1.0,phase_2,stop,450.0,350.0,4.0,,,,,,,,,magenta,I
0.0,7.0,3.0,1.0,5.0,5.0,661.0630139998648,1.0,1.0,phase_2,go,450.0,400.0,1.0,,,,,,,,,white,square
0.0,2.0,2.0,0.0,6.0,6.0,725.0287609999759,1.0,1.0,phase_2,go,450.0,400.0,1.0,,,,,,,,,gray,circle
0.0,2.0,2.0,0.0,5.0,5.0,842.8642450003281,1.0,1.0,phase_2,go,450.0,400.0,1.0,,,,,,,,,gray,circle
0.0,4.0,4.0,0.0,5.0,5.0,933.4404739997808,1.0,1.0,phase_2,go,450.0,400.0,1.0,,,,,,,,,cyan,diamond
0.0,1.0,1.0,0.0,6.0,6.0,632.1448479998253,2.0,1.0,phase_2,go,450.0,400.0,1.0,,,,,,,,,blue,cross
0.0,3.0,3.0,0.0,6.0,6.0,622.130886999912,2.0,1.0,phase_2,go,450.0,400.0,1.0,,,,,,,,,green,flipped triangle
0.0,1.0,1.0,0.0,5.0,5.0,623.2176999997137,2.0,1.0,phase_2,go,450.0,400.0,1.0,,,,,,,,,blue,cross
0.0,6.0,2.0,1.0,5.0,5.0,860.517863000041,2.0,1.0,phase_2,go,450.0,400.0,1.0,,,,,,,,,yellow,hexagon
0.0,7.0,3.0,1.0,5.0,0.0,0.0,2.0,1.0,phase_2,stop,450.0,400.0,4.0,,,,,,,,,white,square
0.0,3.0,3.0,0.0,6.0,6.0,616.3783710003372,2.0,1.0,phase_2,go,500.0,400.0,1.0,,,,,,,,,green,flipped triangle
0.0,7.0,3.0,1.0,5.0,0.0,0.0,2.0,1.0,phase_2,stop,500.0,400.0,4.0,,,,,,,,,white,square
0.0,7.0,3.0,1.0,6.0,6.0,585.8961730000374,2.0,1.0,phase_2,stop,550.0,400.0,3.0,,,,,,,,,white,square
0.0,7.0,3.0,1.0,6.0,0.0,0.0,2.0,1.0,phase_2,stop,550.0,350.0,4.0,,,,,,,,,white,square
0.0,4.0,4.0,0.0,5.0,5.0,753.3233110002584,2.0,1.0,phase_2,go,550.0,400.0,1.0,,,,,,,,,cyan,diamond
0.0,1.0,1.0,0.0,6.0,6.0,650.4092290001608,2.0,1.0,phase_2,go,550.0,400.0,1.0,,,,,,,,,blue,cross
0.0,5.0,1.0,1.0,5.0,0.0,0.0,2.0,1.0,phase_2,stop,550.0,400.0,4.0,,,,,,,,,magenta,I
0.0,1.0,1.0,0.0,6.0,6.0,650.2396240002781,2.0,1.0,phase_2,go,600.0,400.0,1.0,,,,,,,,,blue,cross
0.0,2.0,2.0,0.0,6.0,6.0,751.3309840001057,2.0,1.0,phase_2,go,600.0,400.0,1.0,,,,,,,,,gray,circle
0.0,3.0,3.0,0.0,5.0,5.0,669.812654999987,2.0,1.0,phase_2,go,600.0,400.0,1.0,,,,,,,,,green,flipped triangle
0.0,1.0,1.0,0.0,5.0,5.0,733.0506820003393,2.0,1.0,phase_2,go,600.0,400.0,1.0,,,,,,,,,blue,cross
0.0,4.0,4.0,0.0,5.0,5.0,941.2134109998078,2.0,1.0,phase_2,go,600.0,400.0,1.0,,,,,,,,,cyan,diamond
0.0,2.0,2.0,0.0,5.0,5.0,641.2324989996705,2.0,1.0,phase_2,go,600.0,400.0,1.0,,,,,,,,,gray,circle
0.0,6.0,2.0,1.0,6.0,6.0,559.0977789997851,2.0,1.0,phase_2,stop,600.0,400.0,3.0,,,,,,,,,yellow,hexagon
0.0,2.0,2.0,0.0,5.0,5.0,594.607945000007,2.0,1.0,phase_2,go,600.0,350.0,1.0,,,,,,,,,gray,circle
0.0,5.0,1.0,1.0,6.0,6.0,809.0306740000415,2.0,1.0,phase_2,go,600.0,350.0,1.0,,,,,,,,,magenta,I
0.0,4.0,4.0,0.0,5.0,5.0,703.3110739998847,2.0,1.0,phase_2,go,600.0,350.0,1.0,,,,,,,,,cyan,diamond
0.0,4.0,4.0,0.0,6.0,6.0,443.7927650001256,2.0,1.0,phase_2,go,600.0,350.0,1.0,,,,,,,,,cyan,diamond
0.0,2.0,2.0,0.0,5.0,5.0,548.7440649999371,2.0,1.0,phase_2,go,600.0,350.0,1.0,,,,,,,,,gray,circle
0.0,4.0,4.0,0.0,6.0,6.0,557.6120649998302,2.0,1.0,phase_2,go,600.0,350.0,1.0,,,,,,,,,cyan,diamond
0.0,6.0,2.0,1.0,5.0,0.0,0.0,2.0,1.0,phase_2,stop,600.0,350.0,4.0,,,,,,,,,yellow,hexagon
0.0,7.0,3.0,1.0,6.0,6.0,556.1897359998511,2.0,1.0,phase_2,go,650.0,350.0,1.0,,,,,,,,,white,square
0.0,4.0,4.0,0.0,6.0,6.0,435.6383809999897,2.0,1.0,phase_2,go,650.0,350.0,1.0,,,,,,,,,cyan,diamond
0.0,3.0,3.0,0.0,5.0,5.0,614.3499720001273,2.0,1.0,phase_2,go,650.0,350.0,1.0,,,,,,,,,green,flipped triangle
0.0,5.0,1.0,1.0,6.0,0.0,0.0,2.0,1.0,phase_2,stop,650.0,350.0,4.0,,,,,,,,,magenta,I
0.0,3.0,3.0,0.0,6.0,6.0,461.3130700004149,2.0,1.0,phase_2,go,650.0,400.0,1.0,,,,,,,,,green,flipped triangle
0.0,4.0,4.0,0.0,5.0,5.0,595.0923230002445,2.0,1.0,phase_2,go,650.0,400.0,1.0,,,,,,,,,cyan,diamond
0.0,3.0,3.0,0.0,5.0,5.0,464.8140479998801,2.0,1.0,phase_2,go,650.0,400.0,1.0,,,,,,,,,green,flipped triangle
0.0,6.0,2.0,1.0,6.0,6.0,536.5063900003406,2.0,1.0,phase_2,stop,650.0,400.0,3.0,,,,,,,,,yellow,hexagon
0.0,2.0,2.0,0.0,6.0,6.0,510.71975600007136,2.0,1.0,phase_2,go,650.0,350.0,1.0,,,,,,,,,gray,circle
0.0,4.0,4.0,0.0,6.0,6.0,651.8376049998551,2.0,1.0,phase_2,go,650.0,350.0,1.0,,,,,,,,,cyan,diamond
0.0,7.0,3.0,1.0,5.0,5.0,398.6846009997862,3.0,1.0,phase_2,stop,650.0,350.0,3.0,,,,,,,,,white,square
0.0,1.0,1.0,0.0,5.0,5.0,603.5160379997251,3.0,1.0,phase_2,go,600.0,350.0,1.0,,,,,,,,,blue,cross
0.0,8.0,4.0,1.0,6.0,6.0,463.9089939996665,3.0,1.0,phase_2,stop,600.0,350.0,3.0,,,,,,,,,orange,triangle
0.0,3.0,3.0,0.0,6.0,6.0,576.4201330002834,3.0,1.0,phase_2,go,600.0,300.0,1.0,,,,,,,,,green,flipped triangle
0.0,5.0,1.0,1.0,6.0,6.0,494.9915390002388,3.0,1.0,phase_2,stop,600.0,300.0,3.0,,,,,,,,,magenta,I
0.0,4.0,4.0,0.0,5.0,5.0,566.7271480001546,3.0,1.0,phase_2,go,600.0,250.0,1.0,,,,,,,,,cyan,diamond
0.0,8.0,4.0,1.0,5.0,5.0,661.8351680003798,3.0,1.0,phase_2,go,600.0,250.0,1.0,,,,,,,,,orange,triangle
0.0,8.0,4.0,1.0,5.0,5.0,529.0629950000039,3.0,1.0,phase_2,stop,600.0,250.0,3.0,,,,,,,,,orange,triangle
0.0,6.0,2.0,1.0,5.0,5.0,641.7047680001815,3.0,1.0,phase_2,stop,550.0,250.0,3.0,,,,,,,,,yellow,hexagon
0.0,2.0,2.0,0.0,6.0,6.0,572.5865800000065,3.0,1.0,phase_2,go,500.0,250.0,1.0,,,,,,,,,gray,circle
0.0,8.0,4.0,1.0,5.0,5.0,659.062265999637,3.0,1.0,phase_2,stop,500.0,250.0,3.0,,,,,,,,,orange,triangle
0.0,7.0,3.0,1.0,5.0,5.0,594.8527919999833,3.0,1.0,phase_2,stop,450.0,250.0,3.0,,,,,,,,,white,square
0.0,8.0,4.0,1.0,6.0,0.0,0.0,3.0,1.0,phase_2,stop,400.0,250.0,4.0,,,,,,,,,orange,triangle
0.0,1.0,1.0,0.0,6.0,6.0,755.4518749998351,3.0,1.0,phase_2,go,400.0,300.0,1.0,,,,,,,,,blue,cross
0.0,8.0,4.0,1.0,5.0,5.0,649.1834549997293,3.0,1.0,phase_2,go,400.0,300.0,1.0,,,,,,,,,orange,triangle
0.0,1.0,1.0,0.0,6.0,6.0,630.662332999691,3.0,1.0,phase_2,go,400.0,300.0,1.0,,,,,,,,,blue,cross
0.0,5.0,1.0,1.0,6.0,0.0,0.0,3.0,1.0,phase_2,stop,400.0,300.0,4.0,,,,,,,,,magenta,I
0.0,1.0,1.0,0.0,6.0,6.0,516.6127160000542,3.0,1.0,phase_2,go,400.0,350.0,1.0,,,,,,,,,blue,cross
0.0,4.0,4.0,0.0,5.0,5.0,632.9389110001102,3.0,1.0,phase_2,go,400.0,350.0,1.0,,,,,,,,,cyan,diamond
0.0,8.0,4.0,1.0,6.0,0.0,0.0,3.0,1.0,phase_2,stop,400.0,350.0,4.0,,,,,,,,,orange,triangle
0.0,6.0,2.0,1.0,5.0,5.0,535.6975610002337,3.0,1.0,phase_2,stop,400.0,400.0,3.0,,,,,,,,,yellow,hexagon
0.0,4.0,4.0,0.0,5.0,5.0,725.8041389995924,3.0,1.0,phase_2,go,350.0,400.0,1.0,,,,,,,,,cyan,diamond
0.0,3.0,3.0,0.0,5.0,5.0,873.6008480000237,3.0,1.0,phase_2,go,350.0,400.0,1.0,,,,,,,,,green,flipped triangle
0.0,6.0,2.0,1.0,6.0,6.0,772.579548000067,3.0,1.0,phase_2,go,350.0,400.0,1.0,,,,,,,,,yellow,hexagon
0.0,2.0,2.0,0.0,6.0,6.0,615.2490690001287,3.0,1.0,phase_2,go,350.0,400.0,1.0,,,,,,,,,gray,circle
0.0,2.0,2.0,0.0,5.0,5.0,753.1805090002308,3.0,1.0,phase_2,go,350.0,400.0,1.0,,,,,,,,,gray,circle
0.0,4.0,4.0,0.0,5.0,5.0,557.1776710003178,3.0,1.0,phase_2,go,350.0,400.0,1.0,,,,,,,,,cyan,diamond
0.0,5.0,1.0,1.0,5.0,0.0,0.0,3.0,1.0,phase_2,stop,350.0,400.0,4.0,,,,,,,,,magenta,I
0.0,5.0,1.0,1.0,5.0,0.0,0.0,3.0,1.0,phase_2,stop,400.0,400.0,4.0,,,,,,,,,magenta,I
0.0,4.0,4.0,0.0,6.0,6.0,675.7772460000524,3.0,1.0,phase_2,go,450.0,400.0,1.0,,,,,,,,,cyan,diamond
0.0,6.0,2.0,1.0,6.0,6.0,578.3382489998985,3.0,1.0,phase_2,stop,450.0,400.0,3.0,,,,,,,,,yellow,hexagon
0.0,4.0,4.0,0.0,6.0,6.0,742.5932579999426,3.0,1.0,phase_2,go,450.0,350.0,1.0,,,,,,,,,cyan,diamond
0.0,8.0,4.0,1.0,6.0,0.0,0.0,3.0,1.0,phase_2,stop,450.0,350.0,4.0,,,,,,,,,orange,triangle
0.0,6.0,2.0,1.0,6.0,0.0,0.0,3.0,1.0,phase_2,stop,450.0,400.0,4.0,,,,,,,,,yellow,hexagon
0.0,4.0,4.0,0.0,5.0,5.0,668.5884859998623,3.0,1.0,phase_2,go,450.0,450.0,1.0,,,,,,,,,cyan,diamond
0.0,7.0,3.0,1.0,6.0,6.0,691.0054149998359,3.0,1.0,phase_2,stop,450.0,450.0,3.0,,,,,,,,,white,square
0.0,1.0,1.0,0.0,6.0,6.0,493.2956160000685,4.0,1.0,phase_2,go,450.0,400.0,1.0,,,,,,,,,blue,cross
0.0,8.0,4.0,1.0,5.0,5.0,660.1284029998169,4.0,1.0,phase_2,stop,450.0,400.0,3.0,,,,,,,,,orange,triangle
0.0,3.0,3.0,0.0,6.0,6.0,648.4229050001886,4.0,1.0,phase_2,go,400.0,400.0,1.0,,,,,,,,,green,flipped triangle
0.0,7.0,3.0,1.0,6.0,6.0,687.344542000119,4.0,1.0,phase_2,go,400.0,400.0,1.0,,,,,,,,,white,square
0.0,4.0,4.0,0.0,6.0,6.0,600.9595870000339,4.0,1.0,phase_2,go,400.0,400.0,1.0,,,,,,,,,cyan,diamond
0.0,1.0,1.0,0.0,5.0,5.0,679.7649430000092,4.0,1.0,phase_2,go,400.0,400.0,1.0,,,,,,,,,blue,cross
0.0,2.0,2.0,0.0,5.0,5.0,557.5198579999778,4.0,1.0,phase_2,go,400.0,400.0,1.0,,,,,,,,,gray,circle
0.0,2.0,2.0,0.0,5.0,5.0,538.3003179999832,4.0,1.0,phase_2,go,400.0,400.0,1.0,,,,,,,,,gray,circle
0.0,1.0,1.0,0.0,5.0,5.0,585.756937000042,4.0,1.0,phase_2,go,400.0,400.0,1.0,,,,,,,,,blue,cross
0.0,3.0,3.0,0.0,6.0,6.0,662.045186999876,4.0,1.0,phase_2,go,400.0,400.0,1.0,,,,,,,,,green,flipped triangle
0.0,1.0,1.0,0.0,5.0,5.0,715.8012159998179,4.0,1.0,phase_2,go,400.0,400.0,1.0,,,,,,,,,blue,cross
0.0,7.0,3.0,1.0,6.0,0.0,0.0,4.0,1.0,phase_2,stop,400.0,400.0,4.0,,,,,,,,,white,square
0.0,1.0,1.0,0.0,5.0,5.0,500.9751259999575,4.0,1.0,phase_2,go,400.0,450.0,1.0,,,,,,,,,blue,cross
0.0,5.0,1.0,1.0,5.0,0.0,0.0,4.0,1.0,phase_2,stop,400.0,450.0,4.0,,,,,,,,,magenta,I
0.0,7.0,3.0,1.0,6.0,6.0,404.973315999996,4.0,1.0,phase_2,stop,450.0,450.0,3.0,,,,,,,,,white,square
0.0,3.0,3.0,0.0,6.0,6.0,527.8161160003947,4.0,1.0,phase_2,go,450.0,400.0,1.0,,,,,,,,,green,flipped triangle
0.0,3.0,3.0,0.0,5.0,5.0,637.0248150001316,4.0,1.0,phase_2,go,450.0,400.0,1.0,,,,,,,,,green,flipped triangle
0.0,3.0,3.0,0.0,5.0,5.0,744.1961049999009,4.0,1.0,phase_2,go,450.0,400.0,1.0,,,,,,,,,green,flipped triangle
0.0,7.0,3.0,1.0,5.0,5.0,615.1882690001003,4.0,1.0,phase_2,stop,450.0,400.0,3.0,,,,,,,,,white,square
0.0,8.0,4.0,1.0,6.0,0.0,0.0,4.0,1.0,phase_2,stop,400.0,400.0,4.0,,,,,,,,,orange,triangle
0.0,2.0,2.0,0.0,5.0,5.0,679.7358459998577,4.0,1.0,phase_2,go,400.0,450.0,1.0,,,,,,,,,gray,circle
0.0,1.0,1.0,0.0,5.0,5.0,668.6992429999918,4.0,1.0,phase_2,go,400.0,450.0,1.0,,,,,,,,,blue,cross
0.0,7.0,3.0,1.0,5.0,0.0,0.0,4.0,1.0,phase_2,stop,400.0,450.0,4.0,,,,,,,,,white,square
0.0,7.0,3.0,1.0,5.0,0.0,0.0,4.0,1.0,phase_2,stop,450.0,450.0,4.0,,,,,,,,,white,square
0.0,3.0,3.0,0.0,6.0,6.0,686.842863000038,4.0,1.0,phase_2,go,500.0,450.0,1.0,,,,,,,,,green,flipped triangle
0.0,8.0,4.0,1.0,5.0,5.0,608.793083999899,4.0,1.0,phase_2,stop,500.0,450.0,3.0,,,,,,,,,orange,triangle
0.0,2.0,2.0,0.0,6.0,6.0,722.0264259999567,4.0,1.0,phase_2,go,450.0,450.0,1.0,,,,,,,,,gray,circle
0.0,1.0,1.0,0.0,5.0,5.0,596.7208570000366,4.0,1.0,phase_2,go,450.0,450.0,1.0,,,,,,,,,blue,cross
0.0,6.0,2.0,1.0,5.0,5.0,610.5684930003008,4.0,1.0,phase_2,stop,450.0,450.0,3.0,,,,,,,,,yellow,hexagon
0.0,2.0,2.0,0.0,5.0,5.0,500.94534199979535,4.0,1.0,phase_2,go,400.0,450.0,1.0,,,,,,,,,gray,circle
0.0,4.0,4.0,0.0,6.0,6.0,584.6757369999978,4.0,1.0,phase_2,go,400.0,450.0,1.0,,,,,,,,,cyan,diamond
0.0,7.0,3.0,1.0,6.0,6.0,489.7509690003971,4.0,1.0,phase_2,stop,400.0,450.0,3.0,,,,,,,,,white,square
0.0,7.0,3.0,1.0,6.0,6.0,615.5140920000122,4.0,1.0,phase_2,stop,400.0,400.0,3.0,,,,,,,,,white,square
0.0,8.0,4.0,1.0,5.0,0.0,0.0,4.0,1.0,phase_2,stop,400.0,350.0,4.0,,,,,,,,,orange,triangle
0.0,3.0,3.0,0.0,5.0,5.0,558.8166890001958,4.0,1.0,phase_2,go,450.0,350.0,1.0,,,,,,,,,green,flipped triangle
0.0,7.0,3.0,1.0,5.0,5.0,638.8464950000525,4.0,1.0,phase_2,stop,450.0,350.0,3.0,,,,,,,,,white,square
0.0,2.0,2.0,0.0,5.0,5.0,479.4694389997858,5.0,1.0,phase_2,go,400.0,350.0,1.0,,,,,,,,,gray,circle
0.0,3.0,3.0,0.0,5.0,5.0,604.8936500001219,5.0,1.0,phase_2,go,400.0,350.0,1.0,,,,,,,,,green,flipped triangle
0.0,4.0,4.0,0.0,5.0,5.0,642.2713750002913,5.0,1.0,phase_2,go,400.0,350.0,1.0,,,,,,,,,cyan,diamond
0.0,6.0,2.0,1.0,6.0,0.0,0.0,5.0,1.0,phase_2,stop,400.0,350.0,4.0,,,,,,,,,yellow,hexagon
0.0,2.0,2.0,0.0,6.0,6.0,537.4773889998323,5.0,1.0,phase_2,go,400.0,400.0,1.0,,,,,,,,,gray,circle
0.0,4.0,4.0,0.0,6.0,6.0,559.1555169999083,5.0,1.0,phase_2,go,400.0,400.0,1.0,,,,,,,,,cyan,diamond
0.0,4.0,4.0,0.0,5.0,5.0,509.7353969999858,5.0,1.0,phase_2,go,400.0,400.0,1.0,,,,,,,,,cyan,diamond
0.0,2.0,2.0,0.0,5.0,5.0,526.4656079998531,5.0,1.0,phase_2,go,400.0,400.0,1.0,,,,,,,,,gray,circle
0.0,1.0,1.0,0.0,5.0,5.0,320.6666529999893,5.0,1.0,phase_2,go,400.0,400.0,1.0,,,,,,,,,blue,cross
0.0,5.0,1.0,1.0,5.0,0.0,0.0,5.0,1.0,phase_2,stop,400.0,400.0,4.0,,,,,,,,,magenta,I
0.0,6.0,2.0,1.0,5.0,5.0,689.2213719997926,5.0,1.0,phase_2,go,450.0,400.0,1.0,,,,,,,,,yellow,hexagon
0.0,2.0,2.0,0.0,5.0,5.0,531.3344149999466,5.0,1.0,phase_2,go,450.0,400.0,1.0,,,,,,,,,gray,circle
0.0,1.0,1.0,0.0,6.0,6.0,610.1522720000503,5.0,1.0,phase_2,go,450.0,400.0,1.0,,,,,,,,,blue,cross
0.0,2.0,2.0,0.0,5.0,5.0,500.0006000000212,5.0,1.0,phase_2,go,450.0,400.0,1.0,,,,,,,,,gray,circle
0.0,1.0,1.0,0.0,5.0,5.0,708.1342149999728,5.0,1.0,phase_2,go,450.0,400.0,1.0,,,,,,,,,blue,cross
0.0,1.0,1.0,0.0,5.0,5.0,707.994993000284,5.0,1.0,phase_2,go,450.0,400.0,1.0,,,,,,,,,blue,cross
0.0,3.0,3.0,0.0,6.0,6.0,650.1329620000433,5.0,1.0,phase_2,go,450.0,400.0,1.0,,,,,,,,,green,flipped triangle
0.0,7.0,3.0,1.0,5.0,5.0,556.9561679999424,5.0,1.0,phase_2,stop,450.0,400.0,3.0,,,,,,,,,white,square
0.0,7.0,3.0,1.0,6.0,6.0,595.5238199999258,5.0,1.0,phase_2,stop,400.0,400.0,3.0,,,,,,,,,white,square
0.0,5.0,1.0,1.0,5.0,5.0,632.919998000034,5.0,1.0,phase_2,go,400.0,350.0,1.0,,,,,,,,,magenta,I
0.0,1.0,1.0,0.0,6.0,6.0,729.4024529996932,5.0,1.0,phase_2,go,400.0,350.0,1.0,,,,,,,,,blue,cross
0.0,6.0,2.0,1.0,5.0,0.0,0.0,5.0,1.0,phase_2,stop,400.0,350.0,4.0,,,,,,,,,yellow,hexagon
0.0,7.0,3.0,1.0,5.0,5.0,606.4513040000747,5.0,1.0,phase_2,go,450.0,350.0,1.0,,,,,,,,,white,square
0.0,8.0,4.0,1.0,6.0,0.0,0.0,5.0,1.0,phase_2,stop,450.0,350.0,4.0,,,,,,,,,orange,triangle
0.0,5.0,1.0,1.0,6.0,0.0,0.0,5.0,1.0,phase_2,stop,450.0,400.0,4.0,,,,,,,,,magenta,I
0.0,5.0,1.0,1.0,6.0,6.0,646.2120479995974,5.0,1.0,phase_2,go,450.0,450.0,1.0,,,,,,,,,magenta,I
0.0,5.0,1.0,1.0,5.0,5.0,677.0827609998378,5.0,1.0,phase_2,stop,450.0,450.0,3.0,,,,,,,,,magenta,I
0.0,3.0,3.0,0.0,6.0,6.0,719.6003509998263,5.0,1.0,phase_2,go,400.0,450.0,1.0,,,,,,,,,green,flipped triangle
0.0,3.0,3.0,0.0,6.0,6.0,645.6030229996941,5.0,1.0,phase_2,go,400.0,450.0,1.0,,,,,,,,,green,flipped triangle
0.0,1.0,1.0,0.0,6.0,6.0,693.1709420000516,5.0,1.0,phase_2,go,400.0,450.0,1.0,,,,,,,,,blue,cross
0.0,6.0,2.0,1.0,6.0,6.0,690.6069689998731,5.0,1.0,phase_2,go,400.0,450.0,1.0,,,,,,,,,yellow,hexagon
0.0,5.0,1.0,1.0,6.0,0.0,0.0,5.0,1.0,phase_2,stop,400.0,450.0,4.0,,,,,,,,,magenta,I
0.0,2.0,2.0,0.0,6.0,6.0,628.9101170000322,5.0,1.0,phase_2,go,400.0,500.0,1.0,,,,,,,,,gray,circle
0.0,2.0,2.0,0.0,6.0,6.0,577.3878139998487,5.0,1.0,phase_2,go,400.0,500.0,1.0,,,,,,,,,gray,circle
0.0,8.0,4.0,1.0,6.0,6.0,643.9631530001861,5.0,1.0,phase_2,stop,400.0,500.0,3.0,,,,,,,,,orange,triangle
0.0,3.0,3.0,0.0,6.0,6.0,606.8288259998553,5.0,1.0,phase_2,go,400.0,450.0,1.0,,,,,,,,,green,flipped triangle
0.0,5.0,1.0,1.0,5.0,5.0,585.8073469998999,6.0,1.0,phase_2,stop,400.0,450.0,3.0,,,,,,,,,magenta,I
0.0,4.0,4.0,0.0,6.0,6.0,456.943967999905,6.0,1.0,phase_2,go,350.0,450.0,1.0,,,,,,,,,cyan,diamond
0.0,5.0,1.0,1.0,5.0,0.0,0.0,6.0,1.0,phase_2,stop,350.0,450.0,4.0,,,,,,,,,magenta,I
0.0,5.0,1.0,1.0,5.0,5.0,598.047865999888,6.0,1.0,phase_2,stop,400.0,450.0,3.0,,,,,,,,,magenta,I
0.0,1.0,1.0,0.0,5.0,5.0,582.1497609999824,6.0,1.0,phase_2,go,350.0,450.0,1.0,,,,,,,,,blue,cross
0.0,1.0,1.0,0.0,5.0,5.0,811.9322460001968,6.0,1.0,phase_2,go,350.0,450.0,1.0,,,,,,,,,blue,cross
0.0,8.0,4.0,1.0,5.0,5.0,788.8884570002119,6.0,1.0,phase_2,go,350.0,450.0,1.0,,,,,,,,,orange,triangle
0.0,8.0,4.0,1.0,5.0,5.0,653.6915140000019,6.0,1.0,phase_2,go,350.0,450.0,1.0,,,,,,,,,orange,triangle
0.0,8.0,4.0,1.0,6.0,0.0,0.0,6.0,1.0,phase_2,stop,350.0,450.0,4.0,,,,,,,,,orange,triangle
0.0,6.0,2.0,1.0,6.0,6.0,595.2997439999308,6.0,1.0,phase_2,stop,350.0,500.0,3.0,,,,,,,,,yellow,hexagon
0.0,3.0,3.0,0.0,6.0,6.0,716.5838900000381,6.0,1.0,phase_2,go,350.0,450.0,1.0,,,,,,,,,green,flipped triangle
0.0,8.0,4.0,1.0,6.0,0.0,0.0,6.0,1.0,phase_2,stop,350.0,450.0,4.0,,,,,,,,,orange,triangle
0.0,2.0,2.0,0.0,6.0,6.0,643.3462770000915,6.0,1.0,phase_2,go,350.0,500.0,1.0,,,,,,,,,gray,circle
0.0,6.0,2.0,1.0,6.0,0.0,0.0,6.0,1.0,phase_2,stop,350.0,500.0,4.0,,,,,,,,,yellow,hexagon
0.0,8.0,4.0,1.0,5.0,5.0,566.2163060001149,6.0,1.0,phase_2,go,350.0,550.0,1.0,,,,,,,,,orange,triangle
0.0,3.0,3.0,0.0,6.0,6.0,605.0899980000395,6.0,1.0,phase_2,go,350.0,550.0,1.0,,,,,,,,,green,flipped triangle
0.0,6.0,2.0,1.0,6.0,6.0,602.5155120000818,6.0,1.0,phase_2,stop,350.0,550.0,3.0,,,,,,,,,yellow,hexagon
0.0,6.0,2.0,1.0,6.0,6.0,722.2412840001198,6.0,1.0,phase_2,go,350.0,500.0,1.0,,,,,,,,,yellow,hexagon
0.0,8.0,4.0,1.0,6.0,6.0,700.8831170001031,6.0,1.0,phase_2,go,350.0,500.0,1.0,,,,,,,,,orange,triangle
0.0,6.0,2.0,1.0,6.0,6.0,647.5253769999654,6.0,1.0,phase_2,stop,350.0,500.0,3.0,,,,,,,,,yellow,hexagon
0.0,7.0,3.0,1.0,6.0,0.0,0.0,6.0,1.0,phase_2,stop,350.0,450.0,4.0,,,,,,,,,white,square
0.0,7.0,3.0,1.0,6.0,6.0,757.6096979996692,6.0,1.0,phase_2,go,350.0,500.0,1.0,,,,,,,,,white,square
0.0,5.0,1.0,1.0,6.0,0.0,0.0,6.0,1.0,phase_2,stop,350.0,500.0,4.0,,,,,,,,,magenta,I
0.0,3.0,3.0,0.0,5.0,5.0,718.8389120001375,6.0,1.0,phase_2,go,350.0,550.0,1.0,,,,,,,,,green,flipped triangle
0.0,6.0,2.0,1.0,5.0,0.0,0.0,6.0,1.0,phase_2,stop,350.0,550.0,4.0,,,,,,,,,yellow,hexagon
0.0,1.0,1.0,0.0,6.0,6.0,608.7849169998663,6.0,1.0,phase_2,go,400.0,550.0,1.0,,,,,,,,,blue,cross
0.0,5.0,1.0,1.0,5.0,0.0,0.0,6.0,1.0,phase_2,stop,400.0,550.0,4.0,,,,,,,,,magenta,I
0.0,7.0,3.0,1.0,5.0,0.0,0.0,6.0,1.0,phase_2,stop,450.0,550.0,4.0,,,,,,,,,white,square
0.0,8.0,4.0,1.0,6.0,6.0,743.1163500000366,6.0,1.0,phase_2,stop,500.0,550.0,3.0,,,,,,,,,orange,triangle
0.0,4.0,4.0,0.0,6.0,6.0,644.3832390000352,6.0,1.0,phase_2,go,500.0,500.0,1.0,,,,,,,,,cyan,diamond
0.0,6.0,2.0,1.0,5.0,0.0,0.0,6.0,1.0,phase_2,stop,500.0,500.0,4.0,,,,,,,,,yellow,hexagon
0.0,8.0,4.0,1.0,5.0,5.0,809.644883999681,6.0,1.0,phase_2,go,550.0,500.0,1.0,,,,,,,,,orange,triangle
0.0,4.0,4.0,0.0,5.0,5.0,653.5891459998311,6.0,1.0,phase_2,go,550.0,500.0,1.0,,,,,,,,,cyan,diamond
0.0,5.0,1.0,1.0,5.0,5.0,768.7460239999382,6.0,1.0,phase_2,go,550.0,500.0,1.0,,,,,,,,,magenta,I
0.0,6.0,2.0,1.0,5.0,5.0,634.6057750001819,6.0,1.0,phase_2,go,550.0,500.0,1.0,,,,,,,,,yellow,hexagon
0.0,5.0,1.0,1.0,6.0,6.0,683.7947359999816,6.0,1.0,phase_2,go,550.0,500.0,1.0,,,,,,,,,magenta,I
0.0,3.0,3.0,0.0,5.0,5.0,409.50573300006,7.0,1.0,phase_2,go,550.0,500.0,1.0,,,,,,,,,green,flipped triangle
0.0,4.0,4.0,0.0,6.0,6.0,601.8130819998078,7.0,1.0,phase_2,go,550.0,500.0,1.0,,,,,,,,,cyan,diamond
0.0,4.0,4.0,0.0,5.0,5.0,442.982561000008,7.0,1.0,phase_2,go,550.0,500.0,1.0,,,,,,,,,cyan,diamond
0.0,7.0,3.0,1.0,6.0,6.0,491.5969059998133,7.0,1.0,phase_2,stop,550.0,500.0,3.0,,,,,,,,,white,square
0.0,2.0,2.0,0.0,5.0,5.0,501.6616520001662,7.0,1.0,phase_2,go,550.0,450.0,1.0,,,,,,,,,gray,circle
0.0,3.0,3.0,0.0,6.0,6.0,565.0033100000655,7.0,1.0,phase_2,go,550.0,450.0,1.0,,,,,,,,,green,flipped triangle
0.0,2.0,2.0,0.0,6.0,6.0,497.3209219997443,7.0,1.0,phase_2,go,550.0,450.0,1.0,,,,,,,,,gray,circle
0.0,4.0,4.0,0.0,6.0,6.0,585.7981170001949,7.0,1.0,phase_2,go,550.0,450.0,1.0,,,,,,,,,cyan,diamond
0.0,6.0,2.0,1.0,5.0,5.0,604.0809129999616,7.0,1.0,phase_2,stop,550.0,450.0,3.0,,,,,,,,,yellow,hexagon
0.0,3.0,3.0,0.0,5.0,5.0,511.40955500022756,7.0,1.0,phase_2,go,500.0,450.0,1.0,,,,,,,,,green,flipped triangle
0.0,3.0,3.0,0.0,5.0,5.0,524.9884760005443,7.0,1.0,phase_2,go,500.0,450.0,1.0,,,,,,,,,green,flipped triangle
0.0,8.0,4.0,1.0,6.0,6.0,491.1961249999876,7.0,1.0,phase_2,stop,500.0,450.0,3.0,,,,,,,,,orange,triangle
0.0,8.0,4.0,1.0,6.0,0.0,0.0,7.0,1.0,phase_2,stop,500.0,400.0,4.0,,,,,,,,,orange,triangle
0.0,3.0,3.0,0.0,6.0,6.0,443.6343289999058,7.0,1.0,phase_2,go,500.0,450.0,1.0,,,,,,,,,green,flipped triangle
0.0,8.0,4.0,1.0,6.0,6.0,623.4807880000517,7.0,1.0,phase_2,stop,500.0,450.0,3.0,,,,,,,,,orange,triangle
0.0,2.0,2.0,0.0,6.0,6.0,556.4481069995963,7.0,1.0,phase_2,go,500.0,400.0,1.0,,,,,,,,,gray,circle
0.0,6.0,2.0,1.0,6.0,0.0,0.0,7.0,1.0,phase_2,stop,500.0,400.0,4.0,,,,,,,,,yellow,hexagon
0.0,5.0,1.0,1.0,6.0,0.0,0.0,7.0,1.0,phase_2,stop,500.0,450.0,4.0,,,,,,,,,magenta,I
0.0,2.0,2.0,0.0,5.0,5.0,717.5489600003857,7.0,1.0,phase_2,go,500.0,500.0,1.0,,,,,,,,,gray,circle
0.0,8.0,4.0,1.0,5.0,5.0,850.2268840002216,7.0,1.0,phase_2,go,500.0,500.0,1.0,,,,,,,,,orange,triangle
0.0,1.0,1.0,0.0,6.0,6.0,863.8324949997696,7.0,1.0,phase_2,go,500.0,500.0,1.0,,,,,,,,,blue,cross
0.0,3.0,3.0,0.0,6.0,6.0,778.1266259999029,7.0,1.0,phase_2,go,500.0,500.0,1.0,,,,,,,,,green,flipped triangle
0.0,5.0,1.0,1.0,5.0,0.0,0.0,7.0,1.0,phase_2,stop,500.0,500.0,4.0,,,,,,,,,magenta,I
0.0,7.0,3.0,1.0,5.0,5.0,631.16412600084,7.0,1.0,phase_2,stop,550.0,500.0,3.0,,,,,,,,,white,square
0.0,7.0,3.0,1.0,5.0,0.0,0.0,7.0,1.0,phase_2,stop,500.0,500.0,4.0,,,,,,,,,white,square
0.0,7.0,3.0,1.0,6.0,6.0,773.7914010003806,7.0,1.0,phase_2,go,550.0,500.0,1.0,,,,,,,,,white,square
0.0,5.0,1.0,1.0,6.0,6.0,817.0255320001161,7.0,1.0,phase_2,go,550.0,500.0,1.0,,,,,,,,,magenta,I
0.0,8.0,4.0,1.0,6.0,0.0,0.0,7.0,1.0,phase_2,stop,550.0,500.0,4.0,,,,,,,,,orange,triangle
0.0,7.0,3.0,1.0,5.0,5.0,754.4945839999855,7.0,1.0,phase_2,stop,550.0,550.0,3.0,,,,,,,,,white,square
0.0,6.0,2.0,1.0,6.0,6.0,849.5477030000984,7.0,1.0,phase_2,go,500.0,550.0,1.0,,,,,,,,,yellow,hexagon
0.0,1.0,1.0,0.0,5.0,5.0,595.5905230002827,7.0,1.0,phase_2,go,500.0,550.0,1.0,,,,,,,,,blue,cross
0.0,8.0,4.0,1.0,6.0,0.0,0.0,7.0,1.0,phase_2,stop,500.0,550.0,4.0,,,,,,,,,orange,triangle
0.0,2.0,2.0,0.0,6.0,6.0,564.1989160003504,7.0,1.0,phase_2,go,500.0,600.0,1.0,,,,,,,,,gray,circle
0.0,6.0,2.0,1.0,6.0,6.0,820.1136530005897,7.0,1.0,phase_2,stop,500.0,600.0,3.0,,,,,,,,,yellow,hexagon
0.0,1.0,1.0,0.0,6.0,6.0,730.584844999612,7.0,1.0,phase_2,go,500.0,550.0,1.0,,,,,,,,,blue,cross
0.0,5.0,1.0,1.0,5.0,0.0,0.0,7.0,1.0,phase_2,stop,500.0,550.0,4.0,,,,,,,,,magenta,I
0.0,4.0,4.0,0.0,6.0,6.0,588.1927260006705,8.0,1.0,phase_2,go,550.0,550.0,1.0,,,,,,,,,cyan,diamond
0.0,2.0,2.0,0.0,6.0,6.0,536.0227020000821,8.0,1.0,phase_2,go,550.0,550.0,1.0,,,,,,,,,gray,circle
0.0,5.0,1.0,1.0,6.0,6.0,919.881682999403,8.0,1.0,phase_2,go,550.0,550.0,1.0,,,,,,,,,magenta,I
0.0,5.0,1.0,1.0,6.0,6.0,672.6062240004467,8.0,1.0,phase_2,stop,550.0,550.0,3.0,,,,,,,,,magenta,I
0.0,4.0,4.0,0.0,6.0,6.0,663.7927629999467,8.0,1.0,phase_2,go,550.0,500.0,1.0,,,,,,,,,cyan,diamond
0.0,1.0,1.0,0.0,6.0,6.0,672.066072999769,8.0,1.0,phase_2,go,550.0,500.0,1.0,,,,,,,,,blue,cross
0.0,6.0,2.0,1.0,6.0,0.0,0.0,8.0,1.0,phase_2,stop,550.0,500.0,4.0,,,,,,,,,yellow,hexagon
0.0,3.0,3.0,0.0,5.0,5.0,739.162624000528,8.0,1.0,phase_2,go,550.0,550.0,1.0,,,,,,,,,green,flipped triangle
0.0,3.0,3.0,0.0,5.0,5.0,654.4834320002337,8.0,1.0,phase_2,go,550.0,550.0,1.0,,,,,,,,,green,flipped triangle
0.0,1.0,1.0,0.0,6.0,6.0,664.4483150002998,8.0,1.0,phase_2,go,550.0,550.0,1.0,,,,,,,,,blue,cross
0.0,7.0,3.0,1.0,6.0,6.0,619.639745999848,8.0,1.0,phase_2,stop,550.0,550.0,3.0,,,,,,,,,white,square
0.0,2.0,2.0,0.0,5.0,5.0,589.2974939997657,8.0,1.0,phase_2,go,550.0,500.0,1.0,,,,,,,,,gray,circle
0.0,1.0,1.0,0.0,5.0,5.0,642.3179470002651,8.0,1.0,phase_2,go,550.0,500.0,1.0,,,,,,,,,blue,cross
0.0,5.0,1.0,1.0,5.0,5.0,778.3179190000737,8.0,1.0,phase_2,go,550.0,500.0,1.0,,,,,,,,,magenta,I
0.0,4.0,4.0,0.0,6.0,6.0,636.8285290000131,8.0,1.0,phase_2,go,550.0,500.0,1.0,,,,,,,,,cyan,diamond
0.0,5.0,1.0,1.0,5.0,5.0,796.8328349998046,8.0,1.0,phase_2,go,550.0,500.0,1.0,,,,,,,,,magenta,I
0.0,4.0,4.0,0.0,6.0,6.0,634.0353710002091,8.0,1.0,phase_2,go,550.0,500.0,1.0,,,,,,,,,cyan,diamond
0.0,3.0,3.0,0.0,5.0,5.0,661.3458780002475,8.0,1.0,phase_2,go,550.0,500.0,1.0,,,,,,,,,green,flipped triangle
0.0,8.0,4.0,1.0,5.0,0.0,0.0,8.0,1.0,phase_2,stop,550.0,500.0,4.0,,,,,,,,,orange,triangle
0.0,6.0,2.0,1.0,5.0,5.0,645.4407279998122,8.0,1.0,phase_2,go,600.0,500.0,1.0,,,,,,,,,yellow,hexagon
0.0,5.0,1.0,1.0,6.0,6.0,655.7059460001256,8.0,1.0,phase_2,stop,600.0,500.0,3.0,,,,,,,,,magenta,I
0.0,2.0,2.0,0.0,6.0,6.0,538.4722809994855,8.0,1.0,phase_2,go,600.0,450.0,1.0,,,,,,,,,gray,circle
0.0,4.0,4.0,0.0,5.0,5.0,529.7385739995661,8.0,1.0,phase_2,go,600.0,450.0,1.0,,,,,,,,,cyan,diamond
0.0,6.0,2.0,1.0,5.0,5.0,489.9381970008107,8.0,1.0,phase_2,stop,600.0,450.0,3.0,,,,,,,,,yellow,hexagon
0.0,7.0,3.0,1.0,5.0,0.0,0.0,8.0,1.0,phase_2,stop,550.0,450.0,4.0,,,,,,,,,white,square
0.0,3.0,3.0,0.0,5.0,5.0,878.4335600003033,8.0,1.0,phase_2,go,600.0,450.0,1.0,,,,,,,,,green,flipped triangle
0.0,6.0,2.0,1.0,5.0,5.0,771.439840000312,8.0,1.0,phase_2,stop,600.0,450.0,3.0,,,,,,,,,yellow,hexagon
0.0,4.0,4.0,0.0,5.0,5.0,775.2026139996815,8.0,1.0,phase_2,go,550.0,450.0,1.0,,,,,,,,,cyan,diamond
0.0,2.0,2.0,0.0,6.0,6.0,650.7125469997845,8.0,1.0,phase_2,go,550.0,450.0,1.0,,,,,,,,,gray,circle
0.0,8.0,4.0,1.0,5.0,0.0,0.0,8.0,1.0,phase_2,stop,550.0,450.0,4.0,,,,,,,,,orange,triangle
0.0,8.0,4.0,1.0,5.0,5.0,593.8055690003239,8.0,1.0,phase_2,stop,600.0,450.0,3.0,,,,,,,,,orange,triangle
0.0,6.0,2.0,1.0,6.0,0.0,0.0,8.0,1.0,phase_2,stop,550.0,450.0,4.0,,,,,,,,,yellow,hexagon
0.0,6.0,2.0,1.0,5.0,5.0,702.8822640004364,8.0,1.0,phase_2,go,550.0,500.0,1.0,,,,,,,,,yellow,hexagon
0.0,3.0,3.0,0.0,5.0,5.0,779.1439640004683,8.0,1.0,phase_2,go,550.0,500.0,1.0,,,,,,,,,green,flipped triangle
0.0,2.0,2.0,0.0,6.0,6.0,621.6575179996653,8.0,1.0,phase_2,go,550.0,500.0,1.0,,,,,,,,,gray,circle
0.0,5.0,1.0,1.0,6.0,6.0,641.5948220001155,8.0,1.0,phase_2,stop,550.0,500.0,3.0,,,,,,,,,magenta,I
0.0,1.0,1.0,0.0,7.0,4.0,2387.964417999683,1.0,2.0,phase_3,,,,,810.0,6.0,405.0,270.0,675.0,810.0,135.0,540.0,blue,cross
0.0,1.0,1.0,0.0,7.0,1.0,3114.79100500037,1.0,1.0,phase_3,,,,,696.0,6.0,696.0,580.0,348.0,232.0,464.0,116.0,blue,cross
0.0,4.0,4.0,0.0,7.0,3.0,2455.5236140004126,1.0,1.0,phase_3,,,,,616.0,4.0,154.0,770.0,616.0,924.0,308.0,462.0,cyan,diamond
0.0,6.0,2.0,1.0,7.0,4.0,3060.208521999812,1.0,1.0,phase_3,,,,,348.0,3.0,696.0,580.0,232.0,348.0,116.0,464.0,yellow,hexagon
0.0,7.0,3.0,1.0,7.0,1.0,2340.008022999428,1.0,1.0,phase_3,,,,,192.0,1.0,192.0,576.0,768.0,960.0,1152.0,384.0,white,square
0.0,6.0,2.0,1.0,7.0,6.0,2573.190001000512,1.0,1.0,phase_3,,,,,865.0,5.0,519.0,173.0,346.0,692.0,1038.0,865.0,yellow,hexagon
0.0,8.0,4.0,1.0,7.0,5.0,1554.4007549997332,1.0,1.0,phase_3,,,,,540.0,4.0,135.0,675.0,405.0,810.0,540.0,270.0,orange,triangle
0.0,5.0,1.0,1.0,7.0,1.0,2252.2836950001874,1.0,1.0,phase_3,,,,,675.0,5.0,675.0,270.0,135.0,810.0,405.0,540.0,magenta,I
0.0,3.0,3.0,0.0,7.0,3.0,1874.834440000086,1.0,1.0,phase_3,,,,,192.0,1.0,576.0,1152.0,192.0,960.0,768.0,384.0,green,flipped triangle
0.0,1.0,1.0,0.0,7.0,2.0,2341.0370900001,1.0,1.0,phase_3,,,,,865.0,5.0,692.0,865.0,173.0,1038.0,346.0,519.0,blue,cross
0.0,5.0,1.0,1.0,7.0,4.0,2200.30861000032,1.0,1.0,phase_3,,,,,348.0,3.0,232.0,696.0,116.0,348.0,464.0,580.0,magenta,I
0.0,1.0,1.0,0.0,7.0,6.0,2798.671499000193,1.0,1.0,phase_3,,,,,768.0,4.0,192.0,960.0,384.0,1152.0,576.0,768.0,blue,cross
0.0,1.0,1.0,0.0,7.0,4.0,2122.8286269997625,1.0,1.0,phase_3,,,,,692.0,4.0,865.0,173.0,519.0,692.0,346.0,1038.0,blue,cross
0.0,3.0,3.0,0.0,7.0,5.0,2659.348382999269,1.0,1.0,phase_3,,,,,462.0,3.0,154.0,308.0,770.0,924.0,462.0,616.0,green,flipped triangle
0.0,1.0,1.0,0.0,7.0,2.0,3840.4547250002,1.0,1.0,phase_3,,,,,675.0,5.0,405.0,675.0,270.0,135.0,810.0,540.0,blue,cross
0.0,1.0,1.0,0.0,7.0,4.0,1456.756461000623,1.0,1.0,phase_3,,,,,696.0,6.0,464.0,116.0,348.0,696.0,232.0,580.0,blue,cross
0.0,3.0,3.0,0.0,7.0,6.0,1740.4180390003603,1.0,1.0,phase_3,,,,,116.0,1.0,464.0,232.0,348.0,696.0,580.0,116.0,green,flipped triangle
0.0,2.0,2.0,0.0,7.0,5.0,2254.2476190001253,1.0,1.0,phase_3,,,,,696.0,6.0,116.0,232.0,348.0,464.0,696.0,580.0,gray,circle
0.0,5.0,1.0,1.0,7.0,5.0,2336.431411999911,1.0,1.0,phase_3,,,,,192.0,1.0,1152.0,960.0,576.0,384.0,192.0,768.0,magenta,I
0.0,7.0,3.0,1.0,7.0,6.0,1919.5203010003752,1.0,1.0,phase_3,,,,,116.0,1.0,348.0,464.0,232.0,580.0,696.0,116.0,white,square
0.0,8.0,4.0,1.0,7.0,5.0,1025.152223999612,2.0,1.0,phase_3,,,,,154.0,1.0,770.0,462.0,924.0,616.0,154.0,308.0,orange,triangle
0.0,5.0,1.0,1.0,7.0,4.0,1793.5683740006425,2.0,1.0,phase_3,,,,,540.0,4.0,810.0,135.0,270.0,540.0,405.0,675.0,magenta,I
0.0,5.0,1.0,1.0,7.0,2.0,2257.1499759997096,2.0,1.0,phase_3,,,,,519.0,3.0,346.0,519.0,173.0,865.0,1038.0,692.0,magenta,I
0.0,8.0,4.0,1.0,7.0,6.0,2059.9632089997613,2.0,1.0,phase_3,,,,,192.0,1.0,960.0,384.0,576.0,1152.0,768.0,192.0,orange,triangle
0.0,7.0,3.0,1.0,7.0,5.0,2670.945273000143,2.0,1.0,phase_3,,,,,540.0,4.0,675.0,405.0,810.0,135.0,540.0,270.0,white,square
0.0,6.0,2.0,1.0,7.0,1.0,2220.48442599953,2.0,1.0,phase_3,,,,,192.0,1.0,192.0,576.0,1152.0,768.0,960.0,384.0,yellow,hexagon
0.0,5.0,1.0,1.0,7.0,1.0,2789.453598000364,2.0,1.0,phase_3,,,,,384.0,2.0,384.0,192.0,768.0,1152.0,576.0,960.0,magenta,I
0.0,2.0,2.0,0.0,7.0,4.0,1807.3253310003563,2.0,1.0,phase_3,,,,,770.0,5.0,462.0,154.0,308.0,770.0,924.0,616.0,gray,circle
0.0,7.0,3.0,1.0,7.0,5.0,1581.8382870002097,2.0,1.0,phase_3,,,,,135.0,1.0,675.0,540.0,810.0,405.0,135.0,270.0,white,square
0.0,6.0,2.0,1.0,7.0,6.0,1965.748571000404,2.0,1.0,phase_3,,,,,173.0,1.0,865.0,346.0,1038.0,519.0,692.0,173.0,yellow,hexagon
0.0,6.0,2.0,1.0,7.0,5.0,1386.3100589996975,2.0,1.0,phase_3,,,,,135.0,1.0,810.0,540.0,675.0,405.0,135.0,270.0,yellow,hexagon
0.0,3.0,3.0,0.0,7.0,6.0,2710.0035160001426,2.0,1.0,phase_3,,,,,154.0,1.0,924.0,616.0,308.0,770.0,462.0,154.0,green,flipped triangle
0.0,1.0,1.0,0.0,7.0,2.0,2844.0336730000126,2.0,1.0,phase_3,,,,,768.0,4.0,384.0,768.0,576.0,192.0,1152.0,960.0,blue,cross
0.0,2.0,2.0,0.0,7.0,2.0,3655.7487009995375,2.0,1.0,phase_3,,,,,696.0,6.0,580.0,696.0,348.0,232.0,116.0,464.0,gray,circle
0.0,7.0,3.0,1.0,7.0,5.0,1183.397523000167,2.0,1.0,phase_3,,,,,346.0,2.0,173.0,865.0,692.0,519.0,346.0,1038.0,white,square
0.0,8.0,4.0,1.0,7.0,5.0,1484.9708520005152,2.0,1.0,phase_3,,,,,192.0,1.0,384.0,1152.0,768.0,960.0,192.0,576.0,orange,triangle
0.0,6.0,2.0,1.0,7.0,3.0,2635.4326219998256,2.0,1.0,phase_3,,,,,192.0,1.0,576.0,768.0,192.0,1152.0,960.0,384.0,yellow,hexagon
0.0,4.0,4.0,0.0,7.0,5.0,2182.4980229994253,2.0,1.0,phase_3,,,,,768.0,4.0,576.0,1152.0,192.0,384.0,768.0,960.0,cyan,diamond
0.0,7.0,3.0,1.0,7.0,5.0,2620.342814000651,2.0,1.0,phase_3,,,,,348.0,3.0,464.0,696.0,116.0,232.0,348.0,580.0,white,square
0.0,2.0,2.0,0.0,7.0,1.0,3304.025071999604,2.0,1.0,phase_3,,,,,270.0,2.0,270.0,810.0,135.0,405.0,540.0,675.0,gray,circle
0.0,5.0,1.0,1.0,7.0,4.0,1030.0919049996082,3.0,1.0,phase_3,,,,,616.0,4.0,154.0,462.0,924.0,616.0,770.0,308.0,magenta,I
0.0,7.0,3.0,1.0,7.0,5.0,2497.219818999838,3.0,1.0,phase_3,,,,,462.0,3.0,308.0,616.0,770.0,154.0,462.0,924.0,white,square
0.0,1.0,1.0,0.0,7.0,2.0,1983.9226940002843,3.0,1.0,phase_3,,,,,616.0,4.0,462.0,616.0,308.0,154.0,924.0,770.0,blue,cross
0.0,3.0,3.0,0.0,7.0,3.0,3912.679797000237,3.0,1.0,phase_3,,,,,519.0,3.0,692.0,173.0,519.0,346.0,865.0,1038.0,green,flipped triangle
0.0,8.0,4.0,1.0,7.0,4.0,1256.2172759999155,3.0,1.0,phase_3,,,,,116.0,1.0,696.0,464.0,348.0,116.0,232.0,580.0,orange,triangle
0.0,4.0,4.0,0.0,7.0,1.0,2789.49181400003,3.0,1.0,phase_3,,,,,960.0,5.0,960.0,1152.0,768.0,384.0,576.0,192.0,cyan,diamond
0.0,8.0,4.0,1.0,7.0,1.0,2526.0484850005014,3.0,1.0,phase_3,,,,,154.0,1.0,154.0,616.0,308.0,924.0,462.0,770.0,orange,triangle
0.0,3.0,3.0,0.0,7.0,5.0,2665.0799080007346,3.0,1.0,phase_3,,,,,232.0,2.0,116.0,348.0,464.0,580.0,232.0,696.0,green,flipped triangle
0.0,6.0,2.0,1.0,7.0,1.0,1891.748287000155,3.0,1.0,phase_3,,,,,116.0,1.0,116.0,464.0,696.0,580.0,348.0,232.0,yellow,hexagon
0.0,6.0,2.0,1.0,7.0,2.0,2057.384591999835,3.0,1.0,phase_3,,,,,154.0,1.0,770.0,154.0,462.0,616.0,308.0,924.0,yellow,hexagon
0.0,8.0,4.0,1.0,7.0,5.0,1722.9305729997575,3.0,1.0,phase_3,,,,,173.0,1.0,692.0,346.0,865.0,1038.0,173.0,519.0,orange,triangle
0.0,2.0,2.0,0.0,7.0,4.0,3484.652360999462,3.0,1.0,phase_3,,,,,768.0,4.0,960.0,192.0,576.0,768.0,384.0,1152.0,gray,circle
0.0,5.0,1.0,1.0,7.0,5.0,2524.342094000531,3.0,1.0,phase_3,,,,,232.0,2.0,580.0,348.0,696.0,116.0,232.0,464.0,magenta,I
0.0,7.0,3.0,1.0,7.0,2.0,1566.0833540005117,3.0,1.0,phase_3,,,,,1038.0,6.0,519.0,1038.0,692.0,173.0,346.0,865.0,white,square
0.0,8.0,4.0,1.0,7.0,6.0,1847.502702000384,3.0,1.0,phase_3,,,,,348.0,3.0,232.0,464.0,696.0,580.0,116.0,348.0,orange,triangle
0.0,2.0,2.0,0.0,7.0,5.0,1809.0637709992732,3.0,1.0,phase_3,,,,,924.0,6.0,462.0,770.0,154.0,616.0,924.0,308.0,gray,circle
0.0,8.0,4.0,1.0,7.0,6.0,1741.9892999996591,3.0,1.0,phase_3,,,,,270.0,2.0,540.0,675.0,810.0,405.0,135.0,270.0,orange,triangle
0.0,8.0,4.0,1.0,7.0,2.0,2502.7518450006028,3.0,1.0,phase_3,,,,,346.0,2.0,692.0,346.0,865.0,519.0,1038.0,173.0,orange,triangle
0.0,3.0,3.0,0.0,7.0,1.0,2670.7603860004383,3.0,1.0,phase_3,,,,,270.0,2.0,270.0,810.0,675.0,405.0,135.0,540.0,green,flipped triangle
0.0,4.0,4.0,0.0,7.0,3.0,4715.714398000273,3.0,1.0,phase_3,,,,,540.0,4.0,135.0,810.0,540.0,675.0,270.0,405.0,cyan,diamond
0.0,1.0,1.0,0.0,7.0,4.0,2497.719849000532,4.0,1.0,phase_3,,,,,924.0,6.0,154.0,616.0,462.0,924.0,770.0,308.0,blue,cross
0.0,3.0,3.0,0.0,7.0,5.0,1694.7088030001396,4.0,1.0,phase_3,,,,,346.0,2.0,692.0,1038.0,519.0,173.0,346.0,865.0,green,flipped triangle
0.0,4.0,4.0,0.0,7.0,4.0,1874.0107049998187,4.0,1.0,phase_3,,,,,348.0,3.0,232.0,464.0,580.0,348.0,116.0,696.0,cyan,diamond
0.0,4.0,4.0,0.0,7.0,3.0,2386.669131000417,4.0,1.0,phase_3,,,,,346.0,2.0,692.0,173.0,346.0,1038.0,865.0,519.0,cyan,diamond
0.0,4.0,4.0,0.0,7.0,4.0,1912.238537999656,4.0,1.0,phase_3,,,,,348.0,3.0,116.0,580.0,232.0,348.0,696.0,464.0,cyan,diamond
0.0,6.0,2.0,1.0,7.0,6.0,2404.947763000564,4.0,1.0,phase_3,,,,,308.0,2.0,154.0,924.0,616.0,462.0,770.0,308.0,yellow,hexagon
0.0,4.0,4.0,0.0,7.0,5.0,3194.0608360000624,4.0,1.0,phase_3,,,,,346.0,2.0,519.0,692.0,173.0,1038.0,346.0,865.0,cyan,diamond
0.0,6.0,2.0,1.0,7.0,5.0,2056.5422990002844,4.0,1.0,phase_3,,,,,270.0,2.0,135.0,405.0,675.0,810.0,270.0,540.0,yellow,hexagon
0.0,3.0,3.0,0.0,7.0,4.0,3265.495880999879,4.0,1.0,phase_3,,,,,192.0,1.0,1152.0,384.0,576.0,192.0,960.0,768.0,green,flipped triangle
0.0,3.0,3.0,0.0,7.0,1.0,2907.744733999607,4.0,1.0,phase_3,,,,,135.0,1.0,135.0,405.0,270.0,675.0,540.0,810.0,green,flipped triangle
0.0,4.0,4.0,0.0,7.0,4.0,4005.368105999878,4.0,1.0,phase_3,,,,,308.0,2.0,462.0,616.0,924.0,308.0,154.0,770.0,cyan,diamond
0.0,5.0,1.0,1.0,7.0,5.0,2402.71821100032,4.0,1.0,phase_3,,,,,519.0,3.0,692.0,865.0,173.0,346.0,519.0,1038.0,magenta,I
0.0,2.0,2.0,0.0,7.0,6.0,3762.818789999983,4.0,1.0,phase_3,,,,,865.0,5.0,173.0,346.0,1038.0,519.0,692.0,865.0,gray,circle
0.0,7.0,3.0,1.0,7.0,4.0,1362.2248810006568,4.0,1.0,phase_3,,,,,1152.0,6.0,192.0,384.0,768.0,1152.0,576.0,960.0,white,square
0.0,2.0,2.0,0.0,7.0,3.0,2108.6667159997887,4.0,1.0,phase_3,,,,,1038.0,6.0,519.0,692.0,1038.0,173.0,346.0,865.0,gray,circle
0.0,7.0,3.0,1.0,7.0,2.0,2965.864998000143,4.0,1.0,phase_3,,,,,924.0,6.0,308.0,924.0,616.0,462.0,154.0,770.0,white,square
0.0,5.0,1.0,1.0,7.0,1.0,4225.912730000346,4.0,1.0,phase_3,,,,,616.0,4.0,616.0,770.0,154.0,924.0,308.0,462.0,magenta,I
0.0,2.0,2.0,0.0,7.0,3.0,3077.5303780001195,4.0,1.0,phase_3,,,,,810.0,6.0,540.0,270.0,810.0,675.0,135.0,405.0,gray,circle
0.0,2.0,2.0,0.0,7.0,1.0,1750.6668809992334,4.0,1.0,phase_3,,,,,1152.0,6.0,1152.0,960.0,576.0,768.0,192.0,384.0,gray,circle
0.0,4.0,4.0,0.0,7.0,1.0,3208.7238910007727,4.0,1.0,phase_3,,,,,810.0,6.0,810.0,405.0,675.0,540.0,270.0,135.0,cyan,diamond
