raw_reward_magnitude,stim_reward,stepwise_reward_magnitude,paired_with_stopping,quadrant,response,reaction_time,block,num_trial_presentations,which_part,stop_signal_trial_type,left_SSD,right_SSD,accuracy,chosen_bidding_amount,chosen_bidding_level,possible_bid_1,possible_bid_2,possible_bid_3,possible_bid_4,possible_bid_5,possible_bid_6,color_text,shape_text
168.0,1.0,1.0,0.0,4.0,4.0,478.9693830000487,1.0,1.0,part_1,,,,,,,,,,,,,green,hexagon
630.0,3.0,3.0,0.0,1.0,1.0,375.6834949999756,1.0,1.0,part_1,,,,,,,,,,,,,white,flipped triangle
173.0,1.0,1.0,0.0,3.0,3.0,326.9995959999505,1.0,1.0,part_1,,,,,,,,,,,,,green,hexagon
166.0,5.0,1.0,1.0,2.0,2.0,394.5056599998224,1.0,1.0,part_1,,,,,,,,,,,,,orange,triangle
162.0,1.0,1.0,0.0,1.0,1.0,345.7565030000751,1.0,1.0,part_1,,,,,,,,,,,,,green,hexagon
333.0,2.0,2.0,0.0,2.0,2.0,406.1713759999747,1.0,2.0,part_1,,,,,,,,,,,,,gray,cross
171.0,5.0,1.0,1.0,2.0,2.0,400.7419429999572,1.0,1.0,part_1,,,,,,,,,,,,,orange,triangle
180.0,1.0,1.0,0.0,1.0,1.0,310.1980349999849,1.0,1.0,part_1,,,,,,,,,,,,,green,hexagon
344.0,6.0,2.0,1.0,1.0,1.0,452.1337989999665,1.0,1.0,part_1,,,,,,,,,,,,,magenta,square
1293.0,4.0,4.0,0.0,2.0,2.0,318.8406509998458,1.0,2.0,part_1,,,,,,,,,,,,,cyan,diamond
168.0,5.0,1.0,1.0,2.0,2.0,310.3512039999714,1.0,1.0,part_1,,,,,,,,,,,,,orange,triangle
1276.0,4.0,4.0,0.0,2.0,2.0,321.5342330001931,1.0,1.0,part_1,,,,,,,,,,,,,cyan,diamond
186.0,1.0,1.0,0.0,3.0,3.0,352.0203410000704,1.0,1.0,part_1,,,,,,,,,,,,,green,hexagon
349.0,2.0,2.0,0.0,2.0,2.0,331.8815340001038,1.0,2.0,part_1,,,,,,,,,,,,,gray,cross
0.0,6.0,0.0,1.0,1.0,1.0,331.5332439999565,1.0,1.0,part_1,,,,,,,,,,,,,magenta,square
167.0,5.0,1.0,1.0,1.0,1.0,426.682251000102,1.0,1.0,part_1,,,,,,,,,,,,,orange,triangle
339.0,2.0,2.0,0.0,2.0,2.0,348.2648869999138,1.0,1.0,part_1,,,,,,,,,,,,,gray,cross
322.0,2.0,2.0,0.0,4.0,4.0,309.8152349998599,1.0,1.0,part_1,,,,,,,,,,,,,gray,cross
1282.0,4.0,4.0,0.0,1.0,1.0,354.6161259998825,1.0,1.0,part_1,,,,,,,,,,,,,cyan,diamond
165.0,1.0,1.0,0.0,2.0,2.0,293.9187810000021,1.0,1.0,part_1,,,,,,,,,,,,,green,hexagon
1304.0,8.0,4.0,1.0,3.0,3.0,338.8815620000969,1.0,1.0,part_1,,,,,,,,,,,,,yellow,I
336.0,2.0,2.0,0.0,2.0,2.0,401.0948180000468,1.0,1.0,part_1,,,,,,,,,,,,,gray,cross
0.0,2.0,0.0,0.0,3.0,3.0,404.4273660001636,1.0,1.0,part_1,,,,,,,,,,,,,gray,cross
630.0,7.0,3.0,1.0,1.0,1.0,327.1334579999347,1.0,1.0,part_1,,,,,,,,,,,,,blue,circle
1318.0,8.0,4.0,1.0,4.0,4.0,325.7896499999333,1.0,1.0,part_1,,,,,,,,,,,,,yellow,I
1287.0,4.0,4.0,0.0,1.0,1.0,355.2983290001066,1.0,2.0,part_1,,,,,,,,,,,,,cyan,diamond
670.0,7.0,3.0,1.0,4.0,4.0,383.590753999897,1.0,1.0,part_1,,,,,,,,,,,,,blue,circle
630.0,3.0,3.0,0.0,4.0,4.0,356.1048329997902,1.0,1.0,part_1,,,,,,,,,,,,,white,flipped triangle
302.0,6.0,2.0,1.0,3.0,3.0,328.0232420001994,1.0,1.0,part_1,,,,,,,,,,,,,magenta,square
644.0,7.0,3.0,1.0,1.0,1.0,369.1958889999114,1.0,1.0,part_1,,,,,,,,,,,,,blue,circle
1295.0,8.0,4.0,1.0,4.0,4.0,366.2588230001802,1.0,1.0,part_1,,,,,,,,,,,,,yellow,I
1317.0,4.0,4.0,0.0,1.0,1.0,504.23966899984407,1.0,2.0,part_1,,,,,,,,,,,,,cyan,diamond
630.0,3.0,3.0,0.0,4.0,4.0,337.4349229998188,1.0,1.0,part_1,,,,,,,,,,,,,white,flipped triangle
0.0,3.0,0.0,0.0,4.0,4.0,288.8313149999248,1.0,1.0,part_1,,,,,,,,,,,,,white,flipped triangle
330.0,2.0,2.0,0.0,4.0,4.0,330.9940900001038,1.0,1.0,part_1,,,,,,,,,,,,,gray,cross
1293.0,4.0,4.0,0.0,3.0,3.0,310.051526000052,1.0,1.0,part_1,,,,,,,,,,,,,cyan,diamond
0.0,7.0,0.0,1.0,4.0,4.0,327.0793350000076,1.0,1.0,part_1,,,,,,,,,,,,,blue,circle
1304.0,4.0,4.0,0.0,4.0,4.0,337.9844920000323,1.0,1.0,part_1,,,,,,,,,,,,,cyan,diamond
341.0,2.0,2.0,0.0,4.0,4.0,295.9545300000172,1.0,1.0,part_1,,,,,,,,,,,,,gray,cross
1318.0,4.0,4.0,0.0,4.0,4.0,337.8334359999826,1.0,1.0,part_1,,,,,,,,,,,,,cyan,diamond
0.0,7.0,0.0,1.0,1.0,1.0,310.2168819998496,1.0,2.0,part_1,,,,,,,,,,,,,blue,circle
168.0,1.0,1.0,0.0,1.0,1.0,337.0803950001573,1.0,1.0,part_1,,,,,,,,,,,,,green,hexagon
1323.0,8.0,4.0,1.0,2.0,2.0,394.9160419999771,1.0,2.0,part_1,,,,,,,,,,,,,yellow,I
1303.0,8.0,4.0,1.0,2.0,2.0,391.5430280001146,1.0,1.0,part_1,,,,,,,,,,,,,yellow,I
633.0,7.0,3.0,1.0,4.0,4.0,385.630755999955,1.0,1.0,part_1,,,,,,,,,,,,,blue,circle
0.0,3.0,0.0,0.0,3.0,3.0,337.8470109998943,1.0,1.0,part_1,,,,,,,,,,,,,white,flipped triangle
643.0,7.0,3.0,1.0,3.0,3.0,349.7303720000673,1.0,2.0,part_1,,,,,,,,,,,,,blue,circle
162.0,5.0,1.0,1.0,2.0,2.0,392.8190530000393,1.0,2.0,part_1,,,,,,,,,,,,,orange,triangle
142.0,1.0,1.0,0.0,3.0,3.0,345.6115559999944,1.0,1.0,part_1,,,,,,,,,,,,,green,hexagon
0.0,3.0,0.0,0.0,3.0,3.0,347.5905420000345,1.0,1.0,part_1,,,,,,,,,,,,,white,flipped triangle
340.0,2.0,2.0,0.0,3.0,3.0,313.0811169999106,1.0,1.0,part_1,,,,,,,,,,,,,gray,cross
332.0,6.0,2.0,1.0,1.0,1.0,468.1159750000461,1.0,1.0,part_1,,,,,,,,,,,,,magenta,square
328.0,6.0,2.0,1.0,2.0,2.0,608.9760489999207,1.0,1.0,part_1,,,,,,,,,,,,,magenta,square
1302.0,4.0,4.0,0.0,2.0,2.0,363.9700210001138,1.0,1.0,part_1,,,,,,,,,,,,,cyan,diamond
663.0,7.0,3.0,1.0,2.0,2.0,391.4718060000268,1.0,1.0,part_1,,,,,,,,,,,,,blue,circle
0.0,5.0,0.0,1.0,1.0,1.0,384.0483559999939,1.0,1.0,part_1,,,,,,,,,,,,,orange,triangle
310.0,2.0,2.0,0.0,3.0,3.0,349.0894240001125,1.0,1.0,part_1,,,,,,,,,,,,,gray,cross
305.0,2.0,2.0,0.0,3.0,3.0,344.6661880000192,1.0,1.0,part_1,,,,,,,,,,,,,gray,cross
347.0,2.0,2.0,0.0,1.0,1.0,392.7927830000044,1.0,1.0,part_1,,,,,,,,,,,,,gray,cross
654.0,7.0,3.0,1.0,2.0,2.0,412.0144999999411,1.0,1.0,part_1,,,,,,,,,,,,,blue,circle
661.0,3.0,3.0,0.0,3.0,3.0,352.1075809999274,1.0,1.0,part_1,,,,,,,,,,,,,white,flipped triangle
150.0,5.0,1.0,1.0,3.0,3.0,310.1014870001108,1.0,1.0,part_1,,,,,,,,,,,,,orange,triangle
1302.0,8.0,4.0,1.0,4.0,4.0,292.0372829998996,1.0,2.0,part_1,,,,,,,,,,,,,yellow,I
334.0,2.0,2.0,0.0,3.0,3.0,367.557503999933,1.0,1.0,part_1,,,,,,,,,,,,,gray,cross
181.0,1.0,1.0,0.0,4.0,4.0,364.6445560000302,1.0,1.0,part_1,,,,,,,,,,,,,green,hexagon
160.0,5.0,1.0,1.0,1.0,1.0,365.4863159999877,1.0,1.0,part_1,,,,,,,,,,,,,orange,triangle
0.0,8.0,0.0,1.0,2.0,2.0,336.5919180000674,1.0,1.0,part_1,,,,,,,,,,,,,yellow,I
173.0,5.0,1.0,1.0,2.0,2.0,385.7379070000206,1.0,1.0,part_1,,,,,,,,,,,,,orange,triangle
649.0,7.0,3.0,1.0,3.0,3.0,302.9830489999767,1.0,1.0,part_1,,,,,,,,,,,,,blue,circle
667.0,3.0,3.0,0.0,1.0,1.0,356.8299389999083,1.0,1.0,part_1,,,,,,,,,,,,,white,flipped triangle
1315.0,8.0,4.0,1.0,3.0,3.0,309.6610960001271,1.0,1.0,part_1,,,,,,,,,,,,,yellow,I
0.0,2.0,0.0,0.0,2.0,2.0,493.361645999812,1.0,1.0,part_1,,,,,,,,,,,,,gray,cross
1305.0,4.0,4.0,0.0,4.0,4.0,357.4392250000073,1.0,1.0,part_1,,,,,,,,,,,,,cyan,diamond
160.0,5.0,1.0,1.0,3.0,3.0,375.7211299998744,1.0,1.0,part_1,,,,,,,,,,,,,orange,triangle
0.0,6.0,0.0,1.0,1.0,1.0,429.307941000161,1.0,1.0,part_1,,,,,,,,,,,,,magenta,square
308.0,6.0,2.0,1.0,4.0,4.0,319.6727389999978,1.0,1.0,part_1,,,,,,,,,,,,,magenta,square
646.0,7.0,3.0,1.0,4.0,4.0,320.9336849999999,1.0,1.0,part_1,,,,,,,,,,,,,blue,circle
1313.0,8.0,4.0,1.0,1.0,1.0,549.759492000021,1.0,1.0,part_1,,,,,,,,,,,,,yellow,I
626.0,7.0,3.0,1.0,4.0,4.0,348.1184159998065,1.0,1.0,part_1,,,,,,,,,,,,,blue,circle
660.0,3.0,3.0,0.0,3.0,3.0,300.4779430000326,1.0,1.0,part_1,,,,,,,,,,,,,white,flipped triangle
675.0,3.0,3.0,0.0,1.0,1.0,307.7675889999227,1.0,1.0,part_1,,,,,,,,,,,,,white,flipped triangle
302.0,6.0,2.0,1.0,2.0,2.0,365.4012900001362,1.0,2.0,part_1,,,,,,,,,,,,,magenta,square
302.0,2.0,2.0,0.0,1.0,1.0,401.0791900000185,1.0,2.0,part_1,,,,,,,,,,,,,gray,cross
343.0,6.0,2.0,1.0,4.0,4.0,450.983214000189,1.0,1.0,part_1,,,,,,,,,,,,,magenta,square
183.0,5.0,1.0,1.0,3.0,3.0,312.227324000105,1.0,1.0,part_1,,,,,,,,,,,,,orange,triangle
1297.0,8.0,4.0,1.0,4.0,4.0,348.2290679999096,1.0,1.0,part_1,,,,,,,,,,,,,yellow,I
1284.0,4.0,4.0,0.0,1.0,1.0,318.6506150000241,1.0,2.0,part_1,,,,,,,,,,,,,cyan,diamond
1287.0,8.0,4.0,1.0,3.0,3.0,346.3920749998124,1.0,1.0,part_1,,,,,,,,,,,,,yellow,I
0.0,3.0,0.0,0.0,3.0,3.0,367.1661939999922,1.0,1.0,part_1,,,,,,,,,,,,,white,flipped triangle
1288.0,8.0,4.0,1.0,2.0,2.0,335.0584740001068,1.0,2.0,part_1,,,,,,,,,,,,,yellow,I
633.0,3.0,3.0,0.0,1.0,1.0,355.1648110001224,1.0,1.0,part_1,,,,,,,,,,,,,white,flipped triangle
648.0,7.0,3.0,1.0,4.0,4.0,373.8072480000483,1.0,1.0,part_1,,,,,,,,,,,,,blue,circle
650.0,3.0,3.0,0.0,2.0,2.0,631.0560120000446,1.0,1.0,part_1,,,,,,,,,,,,,white,flipped triangle
649.0,7.0,3.0,1.0,1.0,1.0,356.3552939999681,1.0,1.0,part_1,,,,,,,,,,,,,blue,circle
1303.0,4.0,4.0,0.0,3.0,3.0,291.24795000007,1.0,1.0,part_1,,,,,,,,,,,,,cyan,diamond
0.0,7.0,0.0,1.0,4.0,4.0,327.5079400000322,1.0,2.0,part_1,,,,,,,,,,,,,blue,circle
1317.0,4.0,4.0,0.0,2.0,2.0,440.1705629998105,1.0,2.0,part_1,,,,,,,,,,,,,cyan,diamond
0.0,4.0,0.0,0.0,4.0,4.0,481.2625419999676,1.0,1.0,part_1,,,,,,,,,,,,,cyan,diamond
636.0,7.0,3.0,1.0,4.0,4.0,404.7944829999323,1.0,1.0,part_1,,,,,,,,,,,,,blue,circle
173.0,5.0,1.0,1.0,1.0,1.0,413.0952589998742,1.0,1.0,part_1,,,,,,,,,,,,,orange,triangle
1295.0,4.0,4.0,0.0,1.0,1.0,496.9361910000316,2.0,1.0,part_1,,,,,,,,,,,,,cyan,diamond
138.0,1.0,1.0,0.0,2.0,2.0,348.7986919999457,2.0,1.0,part_1,,,,,,,,,,,,,green,hexagon
0.0,6.0,0.0,1.0,2.0,2.0,376.2969760000487,2.0,1.0,part_1,,,,,,,,,,,,,magenta,square
309.0,2.0,2.0,0.0,1.0,1.0,367.2881620000225,2.0,1.0,part_1,,,,,,,,,,,,,gray,cross
173.0,1.0,1.0,0.0,4.0,4.0,329.5026770001641,2.0,1.0,part_1,,,,,,,,,,,,,green,hexagon
0.0,5.0,0.0,1.0,1.0,1.0,398.3354199999667,2.0,1.0,part_1,,,,,,,,,,,,,orange,triangle
0.0,2.0,0.0,0.0,3.0,3.0,364.356225000165,2.0,1.0,part_1,,,,,,,,,,,,,gray,cross
146.0,1.0,1.0,0.0,3.0,3.0,348.7600959999781,2.0,1.0,part_1,,,,,,,,,,,,,green,hexagon
1306.0,8.0,4.0,1.0,1.0,1.0,419.150492999961,2.0,2.0,part_1,,,,,,,,,,,,,yellow,I
632.0,7.0,3.0,1.0,4.0,4.0,459.614725000165,2.0,1.0,part_1,,,,,,,,,,,,,blue,circle
650.0,7.0,3.0,1.0,2.0,2.0,449.2296430000806,2.0,2.0,part_1,,,,,,,,,,,,,blue,circle
652.0,7.0,3.0,1.0,2.0,2.0,395.8273160001226,2.0,1.0,part_1,,,,,,,,,,,,,blue,circle
0.0,6.0,0.0,1.0,4.0,4.0,487.0996219999597,2.0,1.0,part_1,,,,,,,,,,,,,magenta,square
1284.0,8.0,4.0,1.0,1.0,1.0,656.4353500000379,2.0,1.0,part_1,,,,,,,,,,,,,yellow,I
1280.0,4.0,4.0,0.0,4.0,4.0,392.8388869999253,2.0,1.0,part_1,,,,,,,,,,,,,cyan,diamond
173.0,5.0,1.0,1.0,1.0,1.0,335.5665839999346,2.0,1.0,part_1,,,,,,,,,,,,,orange,triangle
1318.0,8.0,4.0,1.0,4.0,4.0,289.3474620000233,2.0,1.0,part_1,,,,,,,,,,,,,yellow,I
1289.0,4.0,4.0,0.0,4.0,4.0,343.7554239999372,2.0,1.0,part_1,,,,,,,,,,,,,cyan,diamond
669.0,7.0,3.0,1.0,1.0,1.0,357.111021000037,2.0,1.0,part_1,,,,,,,,,,,,,blue,circle
182.0,5.0,1.0,1.0,2.0,2.0,374.7611349999715,2.0,1.0,part_1,,,,,,,,,,,,,orange,triangle
0.0,7.0,0.0,1.0,4.0,4.0,486.7407470001126,2.0,1.0,part_1,,,,,,,,,,,,,blue,circle
307.0,2.0,2.0,0.0,3.0,3.0,430.3212859999803,2.0,1.0,part_1,,,,,,,,,,,,,gray,cross
139.0,1.0,1.0,0.0,3.0,3.0,382.0741009999437,2.0,1.0,part_1,,,,,,,,,,,,,green,hexagon
337.0,2.0,2.0,0.0,4.0,4.0,355.9824010001193,2.0,1.0,part_1,,,,,,,,,,,,,gray,cross
1291.0,8.0,4.0,1.0,4.0,4.0,337.6011529999232,2.0,1.0,part_1,,,,,,,,,,,,,yellow,I
0.0,1.0,0.0,0.0,1.0,1.0,308.6435970001275,2.0,1.0,part_1,,,,,,,,,,,,,green,hexagon
0.0,7.0,0.0,1.0,2.0,2.0,391.8726140000217,2.0,1.0,part_1,,,,,,,,,,,,,blue,circle
636.0,3.0,3.0,0.0,1.0,1.0,356.4323370001148,2.0,1.0,part_1,,,,,,,,,,,,,white,flipped triangle
326.0,2.0,2.0,0.0,1.0,1.0,346.5074939999795,2.0,2.0,part_1,,,,,,,,,,,,,gray,cross
1293.0,8.0,4.0,1.0,1.0,1.0,366.798264999943,2.0,1.0,part_1,,,,,,,,,,,,,yellow,I
172.0,1.0,1.0,0.0,1.0,1.0,384.7107669998877,2.0,1.0,part_1,,,,,,,,,,,,,green,hexagon
1297.0,4.0,4.0,0.0,4.0,4.0,399.925420000045,2.0,1.0,part_1,,,,,,,,,,,,,cyan,diamond
0.0,5.0,0.0,1.0,1.0,1.0,356.0930210001061,2.0,1.0,part_1,,,,,,,,,,,,,orange,triangle
154.0,1.0,1.0,0.0,4.0,4.0,375.0332340000568,2.0,1.0,part_1,,,,,,,,,,,,,green,hexagon
0.0,8.0,0.0,1.0,2.0,2.0,373.3365319999393,2.0,1.0,part_1,,,,,,,,,,,,,yellow,I
302.0,2.0,2.0,0.0,4.0,4.0,443.8066640000215,2.0,1.0,part_1,,,,,,,,,,,,,gray,cross
0.0,6.0,0.0,1.0,2.0,2.0,404.3970050001917,2.0,1.0,part_1,,,,,,,,,,,,,magenta,square
165.0,5.0,1.0,1.0,3.0,3.0,376.3920769999913,2.0,1.0,part_1,,,,,,,,,,,,,orange,triangle
349.0,6.0,2.0,1.0,3.0,3.0,414.0665360000639,2.0,1.0,part_1,,,,,,,,,,,,,magenta,square
644.0,3.0,3.0,0.0,1.0,1.0,364.5433520000551,2.0,1.0,part_1,,,,,,,,,,,,,white,flipped triangle
0.0,3.0,0.0,0.0,2.0,2.0,384.8231080000914,2.0,1.0,part_1,,,,,,,,,,,,,white,flipped triangle
0.0,4.0,0.0,0.0,2.0,2.0,402.1417460000975,2.0,1.0,part_1,,,,,,,,,,,,,cyan,diamond
0.0,5.0,0.0,1.0,2.0,2.0,364.1772989999481,2.0,1.0,part_1,,,,,,,,,,,,,orange,triangle
0.0,5.0,0.0,1.0,1.0,1.0,346.6953699999067,2.0,1.0,part_1,,,,,,,,,,,,,orange,triangle
1294.0,4.0,4.0,0.0,3.0,3.0,421.3997219999328,2.0,1.0,part_1,,,,,,,,,,,,,cyan,diamond
0.0,6.0,0.0,1.0,2.0,2.0,416.5341350001199,2.0,1.0,part_1,,,,,,,,,,,,,magenta,square
310.0,6.0,2.0,1.0,2.0,2.0,311.8363029998363,2.0,1.0,part_1,,,,,,,,,,,,,magenta,square
0.0,8.0,0.0,1.0,4.0,4.0,300.8542319998923,2.0,2.0,part_1,,,,,,,,,,,,,yellow,I
649.0,3.0,3.0,0.0,3.0,3.0,415.8980409999913,2.0,1.0,part_1,,,,,,,,,,,,,white,flipped triangle
341.0,6.0,2.0,1.0,4.0,4.0,319.0705929998785,2.0,1.0,part_1,,,,,,,,,,,,,magenta,square
660.0,7.0,3.0,1.0,3.0,3.0,376.9379079999453,2.0,1.0,part_1,,,,,,,,,,,,,blue,circle
655.0,7.0,3.0,1.0,3.0,3.0,403.5486320001382,2.0,1.0,part_1,,,,,,,,,,,,,blue,circle
672.0,7.0,3.0,1.0,2.0,2.0,348.0124390000583,2.0,2.0,part_1,,,,,,,,,,,,,blue,circle
1287.0,8.0,4.0,1.0,3.0,3.0,412.9582909999953,2.0,1.0,part_1,,,,,,,,,,,,,yellow,I
653.0,3.0,3.0,0.0,3.0,3.0,378.3640149999883,2.0,1.0,part_1,,,,,,,,,,,,,white,flipped triangle
630.0,3.0,3.0,0.0,1.0,1.0,385.9624320000421,2.0,2.0,part_1,,,,,,,,,,,,,white,flipped triangle
140.0,1.0,1.0,0.0,2.0,2.0,317.881916000033,2.0,2.0,part_1,,,,,,,,,,,,,green,hexagon
635.0,3.0,3.0,0.0,4.0,4.0,515.1993659999334,2.0,1.0,part_1,,,,,,,,,,,,,white,flipped triangle
0.0,8.0,0.0,1.0,1.0,1.0,394.3477509999411,2.0,1.0,part_1,,,,,,,,,,,,,yellow,I
334.0,2.0,2.0,0.0,3.0,3.0,535.5468279999513,2.0,2.0,part_1,,,,,,,,,,,,,gray,cross
1306.0,4.0,4.0,0.0,1.0,1.0,368.4233740000309,2.0,2.0,part_1,,,,,,,,,,,,,cyan,diamond
0.0,3.0,0.0,0.0,4.0,4.0,373.3829669999977,2.0,1.0,part_1,,,,,,,,,,,,,white,flipped triangle
1323.0,4.0,4.0,0.0,4.0,4.0,336.5366760001507,2.0,1.0,part_1,,,,,,,,,,,,,cyan,diamond
349.0,6.0,2.0,1.0,4.0,4.0,327.3758930001804,2.0,1.0,part_1,,,,,,,,,,,,,magenta,square
167.0,1.0,1.0,0.0,3.0,3.0,347.3770100001729,2.0,1.0,part_1,,,,,,,,,,,,,green,hexagon
184.0,5.0,1.0,1.0,3.0,3.0,368.4811139999056,2.0,1.0,part_1,,,,,,,,,,,,,orange,triangle
626.0,7.0,3.0,1.0,3.0,3.0,336.6787390000354,2.0,1.0,part_1,,,,,,,,,,,,,blue,circle
643.0,3.0,3.0,0.0,4.0,4.0,346.1418469998989,2.0,1.0,part_1,,,,,,,,,,,,,white,flipped triangle
156.0,5.0,1.0,1.0,2.0,2.0,301.2922630000503,2.0,2.0,part_1,,,,,,,,,,,,,orange,triangle
1291.0,4.0,4.0,0.0,4.0,4.0,290.4918200001702,2.0,1.0,part_1,,,,,,,,,,,,,cyan,diamond
1311.0,4.0,4.0,0.0,3.0,3.0,338.8821339999595,2.0,1.0,part_1,,,,,,,,,,,,,cyan,diamond
314.0,2.0,2.0,0.0,1.0,1.0,393.6623199999758,2.0,2.0,part_1,,,,,,,,,,,,,gray,cross
0.0,1.0,0.0,0.0,3.0,3.0,357.2894149999683,2.0,1.0,part_1,,,,,,,,,,,,,green,hexagon
642.0,3.0,3.0,0.0,3.0,3.0,308.3227449999413,2.0,1.0,part_1,,,,,,,,,,,,,white,flipped triangle
0.0,7.0,0.0,1.0,4.0,4.0,361.8760649999331,2.0,1.0,part_1,,,,,,,,,,,,,blue,circle
183.0,1.0,1.0,0.0,1.0,1.0,356.204241000114,2.0,1.0,part_1,,,,,,,,,,,,,green,hexagon
329.0,6.0,2.0,1.0,2.0,2.0,300.0426559999596,2.0,1.0,part_1,,,,,,,,,,,,,magenta,square
140.0,1.0,1.0,0.0,2.0,2.0,344.0486000001783,2.0,1.0,part_1,,,,,,,,,,,,,green,hexagon
655.0,3.0,3.0,0.0,4.0,4.0,309.9609129999408,2.0,1.0,part_1,,,,,,,,,,,,,white,flipped triangle
317.0,6.0,2.0,1.0,1.0,1.0,289.0890030000719,2.0,2.0,part_1,,,,,,,,,,,,,magenta,square
1297.0,4.0,4.0,0.0,3.0,3.0,318.8517129999582,2.0,2.0,part_1,,,,,,,,,,,,,cyan,diamond
305.0,6.0,2.0,1.0,1.0,1.0,252.6398250001875,2.0,2.0,part_1,,,,,,,,,,,,,magenta,square
1303.0,4.0,4.0,0.0,2.0,2.0,424.3825389999074,2.0,1.0,part_1,,,,,,,,,,,,,cyan,diamond
146.0,5.0,1.0,1.0,4.0,4.0,496.8321500000456,2.0,1.0,part_1,,,,,,,,,,,,,orange,triangle
669.0,3.0,3.0,0.0,3.0,3.0,374.0748259999691,2.0,1.0,part_1,,,,,,,,,,,,,white,flipped triangle
149.0,1.0,1.0,0.0,4.0,4.0,420.6816380001328,2.0,1.0,part_1,,,,,,,,,,,,,green,hexagon
650.0,3.0,3.0,0.0,3.0,3.0,392.3001329999351,2.0,1.0,part_1,,,,,,,,,,,,,white,flipped triangle
339.0,6.0,2.0,1.0,3.0,3.0,338.3635850000246,2.0,1.0,part_1,,,,,,,,,,,,,magenta,square
166.0,1.0,1.0,0.0,4.0,4.0,489.9800379998851,2.0,1.0,part_1,,,,,,,,,,,,,green,hexagon
1291.0,8.0,4.0,1.0,3.0,3.0,353.9793590000499,2.0,1.0,part_1,,,,,,,,,,,,,yellow,I
318.0,6.0,2.0,1.0,1.0,1.0,465.194479000047,2.0,1.0,part_1,,,,,,,,,,,,,magenta,square
0.0,6.0,0.0,1.0,3.0,3.0,290.4658420000032,2.0,2.0,part_1,,,,,,,,,,,,,magenta,square
663.0,3.0,3.0,0.0,3.0,3.0,318.5022949999165,2.0,1.0,part_1,,,,,,,,,,,,,white,flipped triangle
652.0,3.0,3.0,0.0,2.0,2.0,567.6915720000579,2.0,1.0,part_1,,,,,,,,,,,,,white,flipped triangle
155.0,1.0,1.0,0.0,2.0,2.0,375.2778870000384,2.0,1.0,part_1,,,,,,,,,,,,,green,hexagon
140.0,5.0,1.0,1.0,1.0,1.0,422.1990669998376,2.0,1.0,part_1,,,,,,,,,,,,,orange,triangle
0.0,7.0,0.0,1.0,1.0,1.0,460.6381419998797,2.0,1.0,part_1,,,,,,,,,,,,,blue,circle
654.0,3.0,3.0,0.0,2.0,2.0,337.3470989999987,2.0,1.0,part_1,,,,,,,,,,,,,white,flipped triangle
672.0,7.0,3.0,1.0,2.0,2.0,340.9935489999043,2.0,1.0,part_1,,,,,,,,,,,,,blue,circle
138.0,5.0,1.0,1.0,2.0,2.0,337.01645799988,2.0,1.0,part_1,,,,,,,,,,,,,orange,triangle
344.0,2.0,2.0,0.0,2.0,2.0,357.2406260000207,3.0,1.0,part_1,,,,,,,,,,,,,gray,cross
0.0,4.0,0.0,0.0,3.0,3.0,281.1171660000582,3.0,1.0,part_1,,,,,,,,,,,,,cyan,diamond
181.0,5.0,1.0,1.0,4.0,4.0,299.8954419999791,3.0,2.0,part_1,,,,,,,,,,,,,orange,triangle
329.0,6.0,2.0,1.0,4.0,4.0,306.647306999821,3.0,1.0,part_1,,,,,,,,,,,,,magenta,square
1313.0,4.0,4.0,0.0,3.0,3.0,297.9568440000548,3.0,1.0,part_1,,,,,,,,,,,,,cyan,diamond
349.0,2.0,2.0,0.0,4.0,4.0,309.8968479998802,3.0,1.0,part_1,,,,,,,,,,,,,gray,cross
340.0,6.0,2.0,1.0,1.0,1.0,347.6810879997174,3.0,1.0,part_1,,,,,,,,,,,,,magenta,square
173.0,5.0,1.0,1.0,3.0,3.0,358.6325320002288,3.0,1.0,part_1,,,,,,,,,,,,,orange,triangle
160.0,1.0,1.0,0.0,2.0,2.0,329.4267300002502,3.0,2.0,part_1,,,,,,,,,,,,,green,hexagon
161.0,1.0,1.0,0.0,1.0,1.0,355.0135380000938,3.0,1.0,part_1,,,,,,,,,,,,,green,hexagon
0.0,4.0,0.0,0.0,2.0,2.0,299.6175970001786,3.0,1.0,part_1,,,,,,,,,,,,,cyan,diamond
155.0,5.0,1.0,1.0,1.0,1.0,338.1208850000803,3.0,1.0,part_1,,,,,,,,,,,,,orange,triangle
329.0,2.0,2.0,0.0,4.0,4.0,307.6193529996089,3.0,1.0,part_1,,,,,,,,,,,,,gray,cross
0.0,2.0,0.0,0.0,2.0,2.0,347.15766800036357,3.0,1.0,part_1,,,,,,,,,,,,,gray,cross
1291.0,4.0,4.0,0.0,1.0,1.0,356.5395020000323,3.0,1.0,part_1,,,,,,,,,,,,,cyan,diamond
176.0,1.0,1.0,0.0,2.0,2.0,306.5381530000195,3.0,1.0,part_1,,,,,,,,,,,,,green,hexagon
0.0,2.0,0.0,0.0,3.0,3.0,366.4661790003265,3.0,1.0,part_1,,,,,,,,,,,,,gray,cross
176.0,5.0,1.0,1.0,4.0,4.0,375.8899559998099,3.0,2.0,part_1,,,,,,,,,,,,,orange,triangle
672.0,3.0,3.0,0.0,4.0,4.0,420.4694210002344,3.0,1.0,part_1,,,,,,,,,,,,,white,flipped triangle
0.0,4.0,0.0,0.0,3.0,3.0,413.5571799997706,3.0,1.0,part_1,,,,,,,,,,,,,cyan,diamond
669.0,3.0,3.0,0.0,3.0,3.0,348.6132210000505,3.0,1.0,part_1,,,,,,,,,,,,,white,flipped triangle
182.0,1.0,1.0,0.0,2.0,2.0,354.0367610003159,3.0,1.0,part_1,,,,,,,,,,,,,green,hexagon
629.0,3.0,3.0,0.0,3.0,3.0,347.732403000009,3.0,1.0,part_1,,,,,,,,,,,,,white,flipped triangle
0.0,7.0,0.0,1.0,3.0,3.0,334.5734290001019,3.0,1.0,part_1,,,,,,,,,,,,,blue,circle
336.0,6.0,2.0,1.0,1.0,1.0,348.1930920002014,3.0,1.0,part_1,,,,,,,,,,,,,magenta,square
149.0,5.0,1.0,1.0,4.0,4.0,308.1110989996887,3.0,1.0,part_1,,,,,,,,,,,,,orange,triangle
1280.0,8.0,4.0,1.0,2.0,2.0,329.5384339999145,3.0,1.0,part_1,,,,,,,,,,,,,yellow,I
1304.0,8.0,4.0,1.0,1.0,1.0,373.5102910000023,3.0,1.0,part_1,,,,,,,,,,,,,yellow,I
319.0,6.0,2.0,1.0,4.0,4.0,357.6514329997735,3.0,1.0,part_1,,,,,,,,,,,,,magenta,square
0.0,2.0,0.0,0.0,1.0,1.0,496.9464320001862,3.0,1.0,part_1,,,,,,,,,,,,,gray,cross
308.0,2.0,2.0,0.0,1.0,1.0,355.5673870000646,3.0,1.0,part_1,,,,,,,,,,,,,gray,cross
1313.0,8.0,4.0,1.0,1.0,1.0,336.3805859999047,3.0,1.0,part_1,,,,,,,,,,,,,yellow,I
630.0,7.0,3.0,1.0,1.0,1.0,338.5259259998747,3.0,1.0,part_1,,,,,,,,,,,,,blue,circle
1295.0,8.0,4.0,1.0,1.0,1.0,347.9734520001329,3.0,1.0,part_1,,,,,,,,,,,,,yellow,I
642.0,7.0,3.0,1.0,1.0,1.0,318.490257999656,3.0,1.0,part_1,,,,,,,,,,,,,blue,circle
336.0,2.0,2.0,0.0,1.0,1.0,347.7714969999397,3.0,1.0,part_1,,,,,,,,,,,,,gray,cross
306.0,6.0,2.0,1.0,3.0,3.0,359.0019169996594,3.0,1.0,part_1,,,,,,,,,,,,,magenta,square
635.0,7.0,3.0,1.0,1.0,1.0,355.8224429998518,3.0,1.0,part_1,,,,,,,,,,,,,blue,circle
318.0,2.0,2.0,0.0,4.0,4.0,338.6338850000356,3.0,1.0,part_1,,,,,,,,,,,,,gray,cross
659.0,7.0,3.0,1.0,2.0,2.0,317.7173399999446,3.0,1.0,part_1,,,,,,,,,,,,,blue,circle
172.0,1.0,1.0,0.0,1.0,1.0,328.2624939997731,3.0,1.0,part_1,,,,,,,,,,,,,green,hexagon
156.0,5.0,1.0,1.0,3.0,3.0,374.8404419998223,3.0,2.0,part_1,,,,,,,,,,,,,orange,triangle
1289.0,8.0,4.0,1.0,1.0,1.0,423.8328900000851,3.0,1.0,part_1,,,,,,,,,,,,,yellow,I
0.0,4.0,0.0,0.0,3.0,3.0,346.4992229996824,3.0,1.0,part_1,,,,,,,,,,,,,cyan,diamond
1317.0,8.0,4.0,1.0,1.0,1.0,348.3710949999477,3.0,1.0,part_1,,,,,,,,,,,,,yellow,I
1297.0,8.0,4.0,1.0,3.0,3.0,308.0449300000509,3.0,1.0,part_1,,,,,,,,,,,,,yellow,I
0.0,6.0,0.0,1.0,1.0,1.0,347.450783000113,3.0,1.0,part_1,,,,,,,,,,,,,magenta,square
146.0,5.0,1.0,1.0,4.0,4.0,432.6872900001035,3.0,1.0,part_1,,,,,,,,,,,,,orange,triangle
1304.0,4.0,4.0,0.0,1.0,1.0,431.8464539996967,3.0,1.0,part_1,,,,,,,,,,,,,cyan,diamond
317.0,2.0,2.0,0.0,3.0,3.0,341.2868260002142,3.0,1.0,part_1,,,,,,,,,,,,,gray,cross
151.0,5.0,1.0,1.0,1.0,1.0,469.1992289999689,3.0,1.0,part_1,,,,,,,,,,,,,orange,triangle
0.0,1.0,0.0,0.0,3.0,3.0,347.5321890000487,3.0,1.0,part_1,,,,,,,,,,,,,green,hexagon
146.0,1.0,1.0,0.0,2.0,2.0,383.0399879998367,3.0,2.0,part_1,,,,,,,,,,,,,green,hexagon
1321.0,4.0,4.0,0.0,3.0,3.0,339.4983919997685,3.0,1.0,part_1,,,,,,,,,,,,,cyan,diamond
0.0,5.0,0.0,1.0,4.0,4.0,300.752513000134,3.0,2.0,part_1,,,,,,,,,,,,,orange,triangle
314.0,6.0,2.0,1.0,3.0,3.0,365.0541209999574,3.0,1.0,part_1,,,,,,,,,,,,,magenta,square
0.0,2.0,0.0,0.0,3.0,3.0,327.7678659997036,3.0,1.0,part_1,,,,,,,,,,,,,gray,cross
649.0,3.0,3.0,0.0,2.0,2.0,431.9601229999534,3.0,1.0,part_1,,,,,,,,,,,,,white,flipped triangle
334.0,6.0,2.0,1.0,3.0,3.0,299.4516160001694,3.0,1.0,part_1,,,,,,,,,,,,,magenta,square
1313.0,4.0,4.0,0.0,4.0,4.0,197.7350130000559,3.0,2.0,part_1,,,,,,,,,,,,,cyan,diamond
347.0,6.0,2.0,1.0,3.0,3.0,291.4443149998078,3.0,1.0,part_1,,,,,,,,,,,,,magenta,square
1280.0,4.0,4.0,0.0,4.0,4.0,235.9536929998285,3.0,1.0,part_1,,,,,,,,,,,,,cyan,diamond
626.0,3.0,3.0,0.0,1.0,1.0,328.4650509999665,3.0,1.0,part_1,,,,,,,,,,,,,white,flipped triangle
0.0,2.0,0.0,0.0,2.0,2.0,342.2446330000639,3.0,2.0,part_1,,,,,,,,,,,,,gray,cross
172.0,5.0,1.0,1.0,1.0,1.0,327.1867620001103,3.0,2.0,part_1,,,,,,,,,,,,,orange,triangle
142.0,5.0,1.0,1.0,4.0,4.0,430.1231899999038,3.0,1.0,part_1,,,,,,,,,,,,,orange,triangle
661.0,7.0,3.0,1.0,3.0,3.0,319.5606160002171,3.0,2.0,part_1,,,,,,,,,,,,,blue,circle
319.0,2.0,2.0,0.0,3.0,3.0,329.9613849999332,3.0,1.0,part_1,,,,,,,,,,,,,gray,cross
648.0,3.0,3.0,0.0,4.0,4.0,310.8612529999845,3.0,1.0,part_1,,,,,,,,,,,,,white,flipped triangle
656.0,3.0,3.0,0.0,2.0,2.0,384.89822200017437,3.0,1.0,part_1,,,,,,,,,,,,,white,flipped triangle
173.0,1.0,1.0,0.0,3.0,3.0,292.9315630003657,3.0,1.0,part_1,,,,,,,,,,,,,green,hexagon
156.0,1.0,1.0,0.0,4.0,4.0,291.2514409999858,3.0,1.0,part_1,,,,,,,,,,,,,green,hexagon
0.0,8.0,0.0,1.0,1.0,1.0,364.4904160000806,3.0,1.0,part_1,,,,,,,,,,,,,yellow,I
1295.0,4.0,4.0,0.0,2.0,2.0,281.6482019998148,3.0,1.0,part_1,,,,,,,,,,,,,cyan,diamond
332.0,2.0,2.0,0.0,1.0,1.0,382.7715460001855,3.0,1.0,part_1,,,,,,,,,,,,,gray,cross
310.0,2.0,2.0,0.0,2.0,2.0,321.2907130000531,3.0,1.0,part_1,,,,,,,,,,,,,gray,cross
672.0,3.0,3.0,0.0,4.0,4.0,329.2028639998534,3.0,2.0,part_1,,,,,,,,,,,,,white,flipped triangle
172.0,5.0,1.0,1.0,1.0,1.0,422.800812999867,3.0,1.0,part_1,,,,,,,,,,,,,orange,triangle
0.0,5.0,0.0,1.0,4.0,4.0,357.2329570001784,3.0,1.0,part_1,,,,,,,,,,,,,orange,triangle
1288.0,4.0,4.0,0.0,2.0,2.0,290.6603479996192,3.0,1.0,part_1,,,,,,,,,,,,,cyan,diamond
0.0,1.0,0.0,0.0,3.0,3.0,309.1324979995988,3.0,1.0,part_1,,,,,,,,,,,,,green,hexagon
664.0,7.0,3.0,1.0,3.0,3.0,375.100108999959,3.0,1.0,part_1,,,,,,,,,,,,,blue,circle
168.0,1.0,1.0,0.0,4.0,4.0,331.99192999973087,3.0,1.0,part_1,,,,,,,,,,,,,green,hexagon
1288.0,8.0,4.0,1.0,1.0,1.0,336.3827559996935,3.0,1.0,part_1,,,,,,,,,,,,,yellow,I
334.0,6.0,2.0,1.0,3.0,3.0,372.8654139999889,3.0,1.0,part_1,,,,,,,,,,,,,magenta,square
0.0,8.0,0.0,1.0,1.0,1.0,300.5720979999751,3.0,2.0,part_1,,,,,,,,,,,,,yellow,I
632.0,3.0,3.0,0.0,2.0,2.0,403.7108170000465,3.0,1.0,part_1,,,,,,,,,,,,,white,flipped triangle
629.0,7.0,3.0,1.0,2.0,2.0,355.1607320000585,3.0,1.0,part_1,,,,,,,,,,,,,blue,circle
180.0,5.0,1.0,1.0,1.0,1.0,375.41447299963687,3.0,1.0,part_1,,,,,,,,,,,,,orange,triangle
1282.0,8.0,4.0,1.0,4.0,4.0,336.7191049997018,3.0,1.0,part_1,,,,,,,,,,,,,yellow,I
0.0,2.0,0.0,0.0,4.0,4.0,344.6694679996653,3.0,1.0,part_1,,,,,,,,,,,,,gray,cross
0.0,5.0,0.0,1.0,2.0,2.0,391.7845380001381,3.0,2.0,part_1,,,,,,,,,,,,,orange,triangle
0.0,3.0,0.0,0.0,4.0,4.0,527.6646289999007,3.0,1.0,part_1,,,,,,,,,,,,,white,flipped triangle
1298.0,8.0,4.0,1.0,3.0,3.0,439.7880689998601,3.0,1.0,part_1,,,,,,,,,,,,,yellow,I
301.0,2.0,2.0,0.0,2.0,2.0,311.8938809998326,3.0,1.0,part_1,,,,,,,,,,,,,gray,cross
173.0,1.0,1.0,0.0,3.0,3.0,364.6225269999377,3.0,1.0,part_1,,,,,,,,,,,,,green,hexagon
0.0,4.0,0.0,0.0,2.0,2.0,0.2515129999665,3.0,2.0,part_1,,,,,,,,,,,,,cyan,diamond
146.0,1.0,1.0,0.0,2.0,2.0,290.4196699996646,3.0,1.0,part_1,,,,,,,,,,,,,green,hexagon
657.0,7.0,3.0,1.0,1.0,1.0,336.6581840000435,3.0,1.0,part_1,,,,,,,,,,,,,blue,circle
656.0,7.0,3.0,1.0,2.0,2.0,346.5043800001695,3.0,1.0,part_1,,,,,,,,,,,,,blue,circle
635.0,3.0,3.0,0.0,2.0,2.0,309.0521129997796,4.0,1.0,part_1,,,,,,,,,,,,,white,flipped triangle
337.0,6.0,2.0,1.0,4.0,4.0,301.1390259998734,4.0,2.0,part_1,,,,,,,,,,,,,magenta,square
630.0,7.0,3.0,1.0,4.0,4.0,297.3263730000326,4.0,1.0,part_1,,,,,,,,,,,,,blue,circle
150.0,1.0,1.0,0.0,4.0,4.0,299.350362000041,4.0,1.0,part_1,,,,,,,,,,,,,green,hexagon
156.0,1.0,1.0,0.0,1.0,1.0,458.0025010000099,4.0,1.0,part_1,,,,,,,,,,,,,green,hexagon
322.0,6.0,2.0,1.0,4.0,4.0,288.0090870003187,4.0,1.0,part_1,,,,,,,,,,,,,magenta,square
0.0,1.0,0.0,0.0,3.0,3.0,308.9110040000378,4.0,1.0,part_1,,,,,,,,,,,,,green,hexagon
0.0,6.0,0.0,1.0,4.0,4.0,326.6505589999724,4.0,1.0,part_1,,,,,,,,,,,,,magenta,square
0.0,1.0,0.0,0.0,3.0,3.0,324.2627770000581,4.0,1.0,part_1,,,,,,,,,,,,,green,hexagon
0.0,3.0,0.0,0.0,3.0,3.0,290.480104999915,4.0,1.0,part_1,,,,,,,,,,,,,white,flipped triangle
161.0,5.0,1.0,1.0,2.0,2.0,374.3410289998792,4.0,1.0,part_1,,,,,,,,,,,,,orange,triangle
184.0,1.0,1.0,0.0,4.0,4.0,242.4161809999532,4.0,1.0,part_1,,,,,,,,,,,,,green,hexagon
139.0,5.0,1.0,1.0,3.0,3.0,299.0831110000727,4.0,1.0,part_1,,,,,,,,,,,,,orange,triangle
0.0,4.0,0.0,0.0,3.0,3.0,288.9128400001937,4.0,1.0,part_1,,,,,,,,,,,,,cyan,diamond
336.0,6.0,2.0,1.0,4.0,4.0,234.1478329999518,4.0,1.0,part_1,,,,,,,,,,,,,magenta,square
0.0,8.0,0.0,1.0,4.0,4.0,300.5461429997922,4.0,1.0,part_1,,,,,,,,,,,,,yellow,I
1318.0,4.0,4.0,0.0,2.0,2.0,310.1454429997829,4.0,1.0,part_1,,,,,,,,,,,,,cyan,diamond
0.0,1.0,0.0,0.0,4.0,4.0,299.6321600003284,4.0,1.0,part_1,,,,,,,,,,,,,green,hexagon
162.0,5.0,1.0,1.0,3.0,3.0,254.07240799995628,4.0,1.0,part_1,,,,,,,,,,,,,orange,triangle
626.0,3.0,3.0,0.0,2.0,2.0,289.2649279997386,4.0,1.0,part_1,,,,,,,,,,,,,white,flipped triangle
0.0,3.0,0.0,0.0,4.0,4.0,271.1179719999563,4.0,1.0,part_1,,,,,,,,,,,,,white,flipped triangle
330.0,6.0,2.0,1.0,2.0,2.0,120.42592600028,4.0,2.0,part_1,,,,,,,,,,,,,magenta,square
160.0,1.0,1.0,0.0,3.0,3.0,0.2319370000805,4.0,2.0,part_1,,,,,,,,,,,,,green,hexagon
1288.0,4.0,4.0,0.0,1.0,1.0,178.5400720000325,4.0,2.0,part_1,,,,,,,,,,,,,cyan,diamond
318.0,6.0,2.0,1.0,2.0,2.0,506.7288230002305,4.0,1.0,part_1,,,,,,,,,,,,,magenta,square
151.0,1.0,1.0,0.0,1.0,1.0,300.6272989996432,4.0,1.0,part_1,,,,,,,,,,,,,green,hexagon
672.0,3.0,3.0,0.0,4.0,4.0,290.9993600001144,4.0,1.0,part_1,,,,,,,,,,,,,white,flipped triangle
1320.0,8.0,4.0,1.0,3.0,3.0,392.1759719996771,4.0,1.0,part_1,,,,,,,,,,,,,yellow,I
171.0,1.0,1.0,0.0,3.0,3.0,348.1108609998955,4.0,1.0,part_1,,,,,,,,,,,,,green,hexagon
314.0,2.0,2.0,0.0,2.0,2.0,338.224228999934,4.0,1.0,part_1,,,,,,,,,,,,,gray,cross
301.0,6.0,2.0,1.0,1.0,1.0,299.4421209996289,4.0,1.0,part_1,,,,,,,,,,,,,magenta,square
657.0,3.0,3.0,0.0,2.0,2.0,395.7204620000993,4.0,1.0,part_1,,,,,,,,,,,,,white,flipped triangle
646.0,3.0,3.0,0.0,2.0,2.0,328.8202710000405,4.0,1.0,part_1,,,,,,,,,,,,,white,flipped triangle
669.0,7.0,3.0,1.0,3.0,3.0,354.3063839997558,4.0,1.0,part_1,,,,,,,,,,,,,blue,circle
346.0,2.0,2.0,0.0,3.0,3.0,331.0026740000467,4.0,1.0,part_1,,,,,,,,,,,,,gray,cross
0.0,3.0,0.0,0.0,2.0,2.0,347.0750860001317,4.0,1.0,part_1,,,,,,,,,,,,,white,flipped triangle
635.0,7.0,3.0,1.0,3.0,3.0,316.6088500001933,4.0,1.0,part_1,,,,,,,,,,,,,blue,circle
328.0,2.0,2.0,0.0,1.0,1.0,319.1093529999307,4.0,2.0,part_1,,,,,,,,,,,,,gray,cross
1293.0,8.0,4.0,1.0,4.0,4.0,433.1222079999861,4.0,1.0,part_1,,,,,,,,,,,,,yellow,I
146.0,5.0,1.0,1.0,4.0,4.0,318.6940119999235,4.0,1.0,part_1,,,,,,,,,,,,,orange,triangle
1320.0,4.0,4.0,0.0,3.0,3.0,346.7699940001694,4.0,1.0,part_1,,,,,,,,,,,,,cyan,diamond
0.0,8.0,0.0,1.0,4.0,4.0,317.5151509999523,4.0,1.0,part_1,,,,,,,,,,,,,yellow,I
0.0,6.0,0.0,1.0,1.0,1.0,309.9196179996397,4.0,2.0,part_1,,,,,,,,,,,,,magenta,square
186.0,5.0,1.0,1.0,3.0,3.0,403.8848300001518,4.0,1.0,part_1,,,,,,,,,,,,,orange,triangle
670.0,3.0,3.0,0.0,1.0,1.0,342.5627530000383,4.0,2.0,part_1,,,,,,,,,,,,,white,flipped triangle
1321.0,8.0,4.0,1.0,3.0,3.0,505.0465519998397,4.0,1.0,part_1,,,,,,,,,,,,,yellow,I
653.0,7.0,3.0,1.0,4.0,4.0,364.9834590000864,4.0,1.0,part_1,,,,,,,,,,,,,blue,circle
675.0,7.0,3.0,1.0,3.0,3.0,421.0931779998645,4.0,1.0,part_1,,,,,,,,,,,,,blue,circle
346.0,6.0,2.0,1.0,4.0,4.0,338.3943240000917,4.0,1.0,part_1,,,,,,,,,,,,,magenta,square
0.0,4.0,0.0,0.0,4.0,4.0,478.9195419998577,4.0,1.0,part_1,,,,,,,,,,,,,cyan,diamond
1294.0,8.0,4.0,1.0,2.0,2.0,375.6911680002304,4.0,2.0,part_1,,,,,,,,,,,,,yellow,I
1317.0,8.0,4.0,1.0,3.0,3.0,468.663781000032,4.0,1.0,part_1,,,,,,,,,,,,,yellow,I
1312.0,4.0,4.0,0.0,2.0,2.0,482.2602920003191,4.0,1.0,part_1,,,,,,,,,,,,,cyan,diamond
154.0,5.0,1.0,1.0,4.0,4.0,291.5937059997304,4.0,1.0,part_1,,,,,,,,,,,,,orange,triangle
1303.0,8.0,4.0,1.0,2.0,2.0,290.7666020000761,4.0,1.0,part_1,,,,,,,,,,,,,yellow,I
630.0,7.0,3.0,1.0,2.0,2.0,363.5984990000906,4.0,1.0,part_1,,,,,,,,,,,,,blue,circle
0.0,2.0,0.0,0.0,1.0,1.0,505.4993349999677,4.0,1.0,part_1,,,,,,,,,,,,,gray,cross
1276.0,8.0,4.0,1.0,4.0,4.0,510.2551019999737,4.0,1.0,part_1,,,,,,,,,,,,,yellow,I
0.0,1.0,0.0,0.0,4.0,4.0,356.9319250000262,4.0,1.0,part_1,,,,,,,,,,,,,green,hexagon
309.0,6.0,2.0,1.0,3.0,3.0,281.7194059998655,4.0,2.0,part_1,,,,,,,,,,,,,magenta,square
0.0,5.0,0.0,1.0,4.0,4.0,337.6403689999279,4.0,1.0,part_1,,,,,,,,,,,,,orange,triangle
310.0,6.0,2.0,1.0,2.0,2.0,372.1606529998098,4.0,1.0,part_1,,,,,,,,,,,,,magenta,square
140.0,5.0,1.0,1.0,4.0,4.0,365.9102999999959,4.0,1.0,part_1,,,,,,,,,,,,,orange,triangle
162.0,1.0,1.0,0.0,1.0,1.0,411.9315560001269,4.0,1.0,part_1,,,,,,,,,,,,,green,hexagon
0.0,1.0,0.0,0.0,1.0,1.0,334.6383980001519,4.0,1.0,part_1,,,,,,,,,,,,,green,hexagon
1287.0,4.0,4.0,0.0,3.0,3.0,315.7875930000955,4.0,1.0,part_1,,,,,,,,,,,,,cyan,diamond
1280.0,8.0,4.0,1.0,2.0,2.0,285.9083089997511,4.0,2.0,part_1,,,,,,,,,,,,,yellow,I
664.0,3.0,3.0,0.0,4.0,4.0,327.2767290000047,4.0,1.0,part_1,,,,,,,,,,,,,white,flipped triangle
0.0,8.0,0.0,1.0,2.0,2.0,299.6011820000603,4.0,1.0,part_1,,,,,,,,,,,,,yellow,I
326.0,6.0,2.0,1.0,1.0,1.0,326.8017619998318,4.0,1.0,part_1,,,,,,,,,,,,,magenta,square
168.0,5.0,1.0,1.0,2.0,2.0,401.255828000103,4.0,1.0,part_1,,,,,,,,,,,,,orange,triangle
0.0,1.0,0.0,0.0,3.0,3.0,310.2690880000409,4.0,1.0,part_1,,,,,,,,,,,,,green,hexagon
0.0,8.0,0.0,1.0,4.0,4.0,298.8018639998699,4.0,1.0,part_1,,,,,,,,,,,,,yellow,I
333.0,6.0,2.0,1.0,2.0,2.0,301.2915059998704,4.0,1.0,part_1,,,,,,,,,,,,,magenta,square
1311.0,8.0,4.0,1.0,2.0,2.0,356.9052660000125,4.0,1.0,part_1,,,,,,,,,,,,,yellow,I
314.0,6.0,2.0,1.0,3.0,3.0,398.160469999766,4.0,1.0,part_1,,,,,,,,,,,,,magenta,square
1283.0,8.0,4.0,1.0,2.0,2.0,323.0971210000462,4.0,1.0,part_1,,,,,,,,,,,,,yellow,I
318.0,2.0,2.0,0.0,2.0,2.0,365.3494519999185,4.0,1.0,part_1,,,,,,,,,,,,,gray,cross
343.0,2.0,2.0,0.0,1.0,1.0,330.2363650000188,4.0,1.0,part_1,,,,,,,,,,,,,gray,cross
329.0,2.0,2.0,0.0,3.0,3.0,404.9500940000143,4.0,1.0,part_1,,,,,,,,,,,,,gray,cross
332.0,6.0,2.0,1.0,2.0,2.0,325.4466289999982,4.0,2.0,part_1,,,,,,,,,,,,,magenta,square
307.0,6.0,2.0,1.0,2.0,2.0,281.2560719999055,4.0,1.0,part_1,,,,,,,,,,,,,magenta,square
306.0,2.0,2.0,0.0,4.0,4.0,0.2709420000428,4.0,2.0,part_1,,,,,,,,,,,,,gray,cross
1283.0,4.0,4.0,0.0,2.0,2.0,356.5617809999821,4.0,1.0,part_1,,,,,,,,,,,,,cyan,diamond
659.0,3.0,3.0,0.0,1.0,1.0,373.2195120001051,4.0,1.0,part_1,,,,,,,,,,,,,white,flipped triangle
1312.0,8.0,4.0,1.0,2.0,2.0,347.8666689998135,4.0,1.0,part_1,,,,,,,,,,,,,yellow,I
0.0,4.0,0.0,0.0,4.0,4.0,286.8571419999171,4.0,2.0,part_1,,,,,,,,,,,,,cyan,diamond
0.0,7.0,0.0,1.0,1.0,1.0,430.851936000181,4.0,1.0,part_1,,,,,,,,,,,,,blue,circle
1305.0,8.0,4.0,1.0,4.0,4.0,103.6763860001883,4.0,2.0,part_1,,,,,,,,,,,,,yellow,I
168.0,5.0,1.0,1.0,4.0,4.0,365.4632130001118,4.0,1.0,part_1,,,,,,,,,,,,,orange,triangle
302.0,6.0,2.0,1.0,1.0,1.0,340.3414660001544,4.0,1.0,part_1,,,,,,,,,,,,,magenta,square
0.0,5.0,0.0,1.0,2.0,2.0,336.848424999971,4.0,1.0,part_1,,,,,,,,,,,,,orange,triangle
672.0,7.0,3.0,1.0,1.0,1.0,299.9730240003373,4.0,1.0,part_1,,,,,,,,,,,,,blue,circle
650.0,7.0,3.0,1.0,4.0,4.0,338.3487549999699,4.0,1.0,part_1,,,,,,,,,,,,,blue,circle
0.0,7.0,0.0,1.0,3.0,3.0,29.753008999705298,4.0,2.0,part_1,,,,,,,,,,,,,blue,circle
302.0,2.0,2.0,0.0,4.0,4.0,357.8666140001587,4.0,1.0,part_1,,,,,,,,,,,,,gray,cross
332.0,2.0,2.0,0.0,2.0,2.0,457.5087249995704,4.0,1.0,part_1,,,,,,,,,,,,,gray,cross
1315.0,4.0,4.0,0.0,1.0,1.0,348.4366840002622,4.0,1.0,part_1,,,,,,,,,,,,,cyan,diamond
667.0,7.0,3.0,1.0,1.0,1.0,367.0267949996741,4.0,1.0,part_1,,,,,,,,,,,,,blue,circle
1298.0,4.0,4.0,0.0,3.0,3.0,318.4392070002104,4.0,1.0,part_1,,,,,,,,,,,,,cyan,diamond
0.0,7.0,3.0,1.0,5.0,5.0,623.56204300022,1.0,0.0,part_2,stop,250.0,250.0,3.0,,,,,,,,,blue,circle
0.0,6.0,2.0,1.0,6.0,6.0,591.7093240000213,1.0,0.0,part_2,go,200.0,250.0,1.0,,,,,,,,,magenta,square
0.0,5.0,1.0,1.0,6.0,6.0,479.4871550002426,1.0,0.0,part_2,go,200.0,250.0,1.0,,,,,,,,,orange,triangle
0.0,1.0,1.0,0.0,5.0,5.0,385.8836149997842,1.0,0.0,part_2,go,200.0,250.0,1.0,,,,,,,,,green,hexagon
0.0,8.0,4.0,1.0,6.0,6.0,337.0523820003654,1.0,0.0,part_2,stop,200.0,250.0,3.0,,,,,,,,,yellow,I
0.0,3.0,3.0,0.0,5.0,5.0,396.323940000002,1.0,0.0,part_2,go,200.0,200.0,1.0,,,,,,,,,white,flipped triangle
0.0,5.0,1.0,1.0,5.0,5.0,330.1941400000032,1.0,0.0,part_2,go,200.0,200.0,1.0,,,,,,,,,orange,triangle
0.0,1.0,1.0,0.0,5.0,5.0,339.4946670000536,1.0,0.0,part_2,go,200.0,200.0,1.0,,,,,,,,,green,hexagon
0.0,6.0,2.0,1.0,6.0,6.0,300.3729249999196,1.0,0.0,part_2,stop,200.0,200.0,3.0,,,,,,,,,magenta,square
0.0,5.0,1.0,1.0,6.0,0.0,0.0,1.0,0.0,part_2,stop,200.0,150.0,4.0,,,,,,,,,orange,triangle
0.0,4.0,4.0,0.0,6.0,6.0,534.4810629999301,1.0,0.0,part_2,go,200.0,200.0,1.0,,,,,,,,,cyan,diamond
0.0,2.0,2.0,0.0,5.0,5.0,490.2820719998999,1.0,0.0,part_2,go,200.0,200.0,1.0,,,,,,,,,gray,cross
0.0,3.0,3.0,0.0,5.0,5.0,311.0711280000942,1.0,0.0,part_2,go,200.0,200.0,1.0,,,,,,,,,white,flipped triangle
0.0,5.0,1.0,1.0,6.0,0.0,0.0,1.0,0.0,part_2,stop,200.0,200.0,4.0,,,,,,,,,orange,triangle
0.0,2.0,2.0,0.0,5.0,5.0,421.9733479999377,1.0,0.0,part_2,go,200.0,250.0,1.0,,,,,,,,,gray,cross
0.0,6.0,2.0,1.0,6.0,6.0,763.7196480000057,1.0,0.0,part_2,go,200.0,250.0,1.0,,,,,,,,,magenta,square
0.0,5.0,1.0,1.0,5.0,5.0,321.0994450000726,1.0,0.0,part_2,stop,200.0,250.0,3.0,,,,,,,,,orange,triangle
0.0,6.0,2.0,1.0,6.0,0.0,0.0,1.0,0.0,part_2,stop,150.0,250.0,4.0,,,,,,,,,magenta,square
0.0,6.0,2.0,1.0,5.0,5.0,391.3788990003013,1.0,0.0,part_2,stop,150.0,300.0,3.0,,,,,,,,,magenta,square
0.0,8.0,4.0,1.0,6.0,6.0,494.1331369996078,1.0,0.0,part_2,go,100.0,300.0,1.0,,,,,,,,,yellow,I
0.0,8.0,4.0,1.0,6.0,6.0,397.0650979999846,1.0,0.0,part_2,stop,100.0,300.0,3.0,,,,,,,,,yellow,I
0.0,8.0,4.0,1.0,6.0,6.0,598.0331589998968,1.0,0.0,part_2,go,100.0,250.0,1.0,,,,,,,,,yellow,I
0.0,5.0,1.0,1.0,5.0,0.0,0.0,1.0,0.0,part_2,stop,100.0,250.0,4.0,,,,,,,,,orange,triangle
0.0,5.0,1.0,1.0,5.0,0.0,0.0,1.0,0.0,part_2,stop,150.0,250.0,4.0,,,,,,,,,orange,triangle
0.0,3.0,3.0,0.0,6.0,6.0,330.063126999903,1.0,0.0,part_2,go,200.0,250.0,1.0,,,,,,,,,white,flipped triangle
0.0,8.0,4.0,1.0,5.0,0.0,0.0,1.0,0.0,part_2,stop,200.0,250.0,4.0,,,,,,,,,yellow,I
0.0,7.0,3.0,1.0,6.0,6.0,304.7257250000257,1.0,0.0,part_2,stop,250.0,250.0,3.0,,,,,,,,,blue,circle
0.0,4.0,4.0,0.0,5.0,5.0,319.6080689999689,1.0,0.0,part_2,go,250.0,200.0,1.0,,,,,,,,,cyan,diamond
0.0,8.0,4.0,1.0,6.0,0.0,0.0,1.0,0.0,part_2,stop,250.0,200.0,4.0,,,,,,,,,yellow,I
0.0,5.0,1.0,1.0,6.0,6.0,501.73137999991013,1.0,0.0,part_2,go,250.0,250.0,1.0,,,,,,,,,orange,triangle
0.0,7.0,3.0,1.0,6.0,6.0,321.1557239997091,1.0,0.0,part_2,go,250.0,250.0,1.0,,,,,,,,,blue,circle
0.0,5.0,1.0,1.0,6.0,6.0,338.8982389997181,1.0,0.0,part_2,go,250.0,250.0,1.0,,,,,,,,,orange,triangle
0.0,1.0,1.0,0.0,6.0,6.0,282.8879809999307,1.0,0.0,part_2,go,250.0,250.0,1.0,,,,,,,,,green,hexagon
0.0,7.0,3.0,1.0,6.0,6.0,297.7993500003322,1.0,0.0,part_2,stop,250.0,250.0,3.0,,,,,,,,,blue,circle
0.0,8.0,4.0,1.0,5.0,0.0,0.0,1.0,0.0,part_2,stop,250.0,200.0,4.0,,,,,,,,,yellow,I
0.0,7.0,3.0,1.0,6.0,0.0,0.0,1.0,0.0,part_2,stop,300.0,200.0,4.0,,,,,,,,,blue,circle
0.0,4.0,4.0,0.0,5.0,5.0,366.5915980000136,2.0,0.0,part_2,go,300.0,250.0,1.0,,,,,,,,,cyan,diamond
0.0,3.0,3.0,0.0,6.0,6.0,300.1006330000564,2.0,0.0,part_2,go,300.0,250.0,1.0,,,,,,,,,white,flipped triangle
0.0,3.0,3.0,0.0,5.0,5.0,309.8959949998061,2.0,0.0,part_2,go,300.0,250.0,1.0,,,,,,,,,white,flipped triangle
0.0,1.0,1.0,0.0,5.0,5.0,742.3272880000695,2.0,0.0,part_2,go,300.0,250.0,1.0,,,,,,,,,green,hexagon
0.0,1.0,1.0,0.0,6.0,6.0,301.3683219996892,2.0,0.0,part_2,go,300.0,250.0,1.0,,,,,,,,,green,hexagon
0.0,7.0,3.0,1.0,6.0,6.0,298.6340259999451,2.0,0.0,part_2,stop,300.0,250.0,3.0,,,,,,,,,blue,circle
0.0,6.0,2.0,1.0,6.0,6.0,324.582534000001,2.0,0.0,part_2,stop,300.0,200.0,3.0,,,,,,,,,magenta,square
0.0,3.0,3.0,0.0,5.0,5.0,384.9543339997581,2.0,0.0,part_2,go,300.0,150.0,1.0,,,,,,,,,white,flipped triangle
0.0,2.0,2.0,0.0,6.0,6.0,310.6593400002566,2.0,0.0,part_2,go,300.0,150.0,1.0,,,,,,,,,gray,cross
0.0,3.0,3.0,0.0,6.0,6.0,279.4336920001115,2.0,0.0,part_2,go,300.0,150.0,1.0,,,,,,,,,white,flipped triangle
0.0,4.0,4.0,0.0,6.0,6.0,294.0848729999743,2.0,0.0,part_2,go,300.0,150.0,1.0,,,,,,,,,cyan,diamond
0.0,1.0,1.0,0.0,5.0,5.0,292.6844399999027,2.0,0.0,part_2,go,300.0,150.0,1.0,,,,,,,,,green,hexagon
0.0,7.0,3.0,1.0,6.0,6.0,310.6520589999491,2.0,0.0,part_2,stop,300.0,150.0,3.0,,,,,,,,,blue,circle
0.0,7.0,3.0,1.0,5.0,5.0,332.9346619998432,2.0,0.0,part_2,stop,300.0,100.0,3.0,,,,,,,,,blue,circle
0.0,5.0,1.0,1.0,6.0,6.0,311.7576570002711,2.0,0.0,part_2,go,250.0,100.0,1.0,,,,,,,,,orange,triangle
0.0,1.0,1.0,0.0,5.0,5.0,367.3181439999098,2.0,0.0,part_2,go,250.0,100.0,1.0,,,,,,,,,green,hexagon
0.0,1.0,1.0,0.0,6.0,6.0,329.2940789997374,2.0,0.0,part_2,go,250.0,100.0,1.0,,,,,,,,,green,hexagon
0.0,7.0,3.0,1.0,5.0,5.0,314.7799500002293,2.0,0.0,part_2,go,250.0,100.0,1.0,,,,,,,,,blue,circle
0.0,2.0,2.0,0.0,6.0,6.0,311.6361800002778,2.0,0.0,part_2,go,250.0,100.0,1.0,,,,,,,,,gray,cross
0.0,3.0,3.0,0.0,5.0,5.0,369.228619000296,2.0,0.0,part_2,go,250.0,100.0,1.0,,,,,,,,,white,flipped triangle
0.0,3.0,3.0,0.0,6.0,6.0,283.9578449998043,2.0,0.0,part_2,go,250.0,100.0,1.0,,,,,,,,,white,flipped triangle
0.0,5.0,1.0,1.0,5.0,5.0,286.7746279998755,2.0,0.0,part_2,stop,250.0,100.0,3.0,,,,,,,,,orange,triangle
0.0,1.0,1.0,0.0,6.0,6.0,322.4064419996466,2.0,0.0,part_2,go,200.0,100.0,1.0,,,,,,,,,green,hexagon
0.0,7.0,3.0,1.0,6.0,6.0,316.8503169999894,2.0,0.0,part_2,stop,200.0,100.0,3.0,,,,,,,,,blue,circle
0.0,6.0,2.0,1.0,5.0,5.0,327.6306809998459,2.0,0.0,part_2,stop,200.0,50.0,3.0,,,,,,,,,magenta,square
0.0,7.0,3.0,1.0,5.0,0.0,0.0,2.0,0.0,part_2,stop,150.0,50.0,4.0,,,,,,,,,blue,circle
0.0,8.0,4.0,1.0,6.0,6.0,386.729003000255,2.0,0.0,part_2,go,200.0,50.0,1.0,,,,,,,,,yellow,I
0.0,4.0,4.0,0.0,5.0,5.0,338.6685160003253,2.0,0.0,part_2,go,200.0,50.0,1.0,,,,,,,,,cyan,diamond
0.0,8.0,4.0,1.0,5.0,5.0,320.2632400002585,2.0,0.0,part_2,stop,200.0,50.0,3.0,,,,,,,,,yellow,I
0.0,5.0,1.0,1.0,5.0,0.0,0.0,2.0,0.0,part_2,stop,150.0,50.0,4.0,,,,,,,,,orange,triangle
0.0,8.0,4.0,1.0,5.0,0.0,0.0,2.0,0.0,part_2,stop,200.0,50.0,4.0,,,,,,,,,yellow,I
0.0,2.0,2.0,0.0,6.0,6.0,375.7844669999031,2.0,0.0,part_2,go,250.0,50.0,1.0,,,,,,,,,gray,cross
0.0,1.0,1.0,0.0,6.0,6.0,327.5545179999426,2.0,0.0,part_2,go,250.0,50.0,1.0,,,,,,,,,green,hexagon
0.0,6.0,2.0,1.0,5.0,5.0,338.900835000004,2.0,0.0,part_2,stop,250.0,50.0,3.0,,,,,,,,,magenta,square
0.0,2.0,2.0,0.0,6.0,6.0,359.2480349998368,2.0,0.0,part_2,go,200.0,50.0,1.0,,,,,,,,,gray,cross
0.0,6.0,2.0,1.0,6.0,0.0,0.0,2.0,0.0,part_2,stop,200.0,50.0,4.0,,,,,,,,,magenta,square
0.0,1.0,1.0,0.0,5.0,1.0,405.3449689999979,3.0,0.0,part_2,go,200.0,100.0,2.0,,,,,,,,,green,hexagon
0.0,2.0,2.0,0.0,6.0,2.0,386.0571809996145,3.0,0.0,part_2,go,200.0,100.0,2.0,,,,,,,,,gray,cross
0.0,2.0,2.0,0.0,5.0,1.0,423.6189789999116,3.0,0.0,part_2,go,200.0,100.0,2.0,,,,,,,,,gray,cross
0.0,8.0,4.0,1.0,5.0,1.0,319.1744959999596,3.0,0.0,part_2,go,200.0,100.0,2.0,,,,,,,,,yellow,I
0.0,6.0,2.0,1.0,6.0,2.0,320.8723009997811,3.0,0.0,part_2,stop,200.0,100.0,3.0,,,,,,,,,magenta,square
0.0,8.0,4.0,1.0,6.0,0.0,0.0,3.0,0.0,part_2,stop,200.0,50.0,4.0,,,,,,,,,yellow,I
0.0,2.0,2.0,0.0,5.0,1.0,423.0767320000268,3.0,0.0,part_2,go,200.0,100.0,2.0,,,,,,,,,gray,cross
0.0,6.0,2.0,1.0,6.0,0.0,0.0,3.0,0.0,part_2,stop,200.0,100.0,4.0,,,,,,,,,magenta,square
0.0,1.0,1.0,0.0,6.0,2.0,579.0180680000958,3.0,0.0,part_2,go,200.0,150.0,2.0,,,,,,,,,green,hexagon
0.0,4.0,4.0,0.0,6.0,2.0,358.1777089998468,3.0,0.0,part_2,go,200.0,150.0,2.0,,,,,,,,,cyan,diamond
0.0,8.0,4.0,1.0,5.0,1.0,602.4818519999826,3.0,0.0,part_2,go,200.0,150.0,2.0,,,,,,,,,yellow,I
0.0,4.0,4.0,0.0,6.0,2.0,377.2428580000451,3.0,0.0,part_2,go,200.0,150.0,2.0,,,,,,,,,cyan,diamond
0.0,2.0,2.0,0.0,5.0,1.0,366.8065490001027,3.0,0.0,part_2,go,200.0,150.0,2.0,,,,,,,,,gray,cross
0.0,8.0,4.0,1.0,5.0,1.0,295.6721329996981,3.0,0.0,part_2,stop,200.0,150.0,3.0,,,,,,,,,yellow,I
0.0,2.0,2.0,0.0,6.0,2.0,426.6162640001312,3.0,0.0,part_2,go,150.0,150.0,2.0,,,,,,,,,gray,cross
0.0,1.0,1.0,0.0,6.0,2.0,278.933749999851,3.0,0.0,part_2,go,150.0,150.0,2.0,,,,,,,,,green,hexagon
0.0,6.0,2.0,1.0,5.0,0.0,0.0,3.0,0.0,part_2,stop,150.0,150.0,4.0,,,,,,,,,magenta,square
0.0,7.0,3.0,1.0,6.0,2.0,354.512418000013,3.0,0.0,part_2,go,200.0,150.0,2.0,,,,,,,,,blue,circle
0.0,4.0,4.0,0.0,6.0,2.0,315.326136999829,3.0,0.0,part_2,go,200.0,150.0,2.0,,,,,,,,,cyan,diamond
0.0,3.0,3.0,0.0,6.0,2.0,283.718544000294,3.0,0.0,part_2,go,200.0,150.0,2.0,,,,,,,,,white,flipped triangle
0.0,6.0,2.0,1.0,6.0,2.0,240.8826819996647,3.0,0.0,part_2,stop,200.0,150.0,3.0,,,,,,,,,magenta,square
0.0,1.0,1.0,0.0,5.0,1.0,441.8600179997156,3.0,0.0,part_2,go,200.0,100.0,2.0,,,,,,,,,green,hexagon
0.0,4.0,4.0,0.0,5.0,1.0,285.7299809998039,3.0,0.0,part_2,go,200.0,100.0,2.0,,,,,,,,,cyan,diamond
0.0,8.0,4.0,1.0,6.0,0.0,0.0,3.0,0.0,part_2,stop,200.0,100.0,4.0,,,,,,,,,yellow,I
0.0,8.0,4.0,1.0,6.0,0.0,0.0,3.0,0.0,part_2,stop,200.0,150.0,4.0,,,,,,,,,yellow,I
0.0,4.0,4.0,0.0,5.0,1.0,386.9286369999827,3.0,0.0,part_2,go,200.0,200.0,2.0,,,,,,,,,cyan,diamond
0.0,2.0,2.0,0.0,6.0,2.0,327.9310220000297,3.0,0.0,part_2,go,200.0,200.0,2.0,,,,,,,,,gray,cross
0.0,2.0,2.0,0.0,6.0,2.0,373.2964219998393,3.0,0.0,part_2,go,200.0,200.0,2.0,,,,,,,,,gray,cross
0.0,8.0,4.0,1.0,6.0,2.0,267.9509919998963,3.0,0.0,part_2,stop,200.0,200.0,3.0,,,,,,,,,yellow,I
0.0,3.0,3.0,0.0,5.0,1.0,321.3263699999515,3.0,0.0,part_2,go,200.0,150.0,2.0,,,,,,,,,white,flipped triangle
0.0,5.0,1.0,1.0,5.0,1.0,332.922993000011,3.0,0.0,part_2,stop,200.0,150.0,3.0,,,,,,,,,orange,triangle
0.0,7.0,3.0,1.0,6.0,2.0,320.8900479999101,3.0,0.0,part_2,go,150.0,150.0,2.0,,,,,,,,,blue,circle
0.0,2.0,2.0,0.0,5.0,1.0,300.9062880000783,3.0,0.0,part_2,go,150.0,150.0,2.0,,,,,,,,,gray,cross
0.0,5.0,1.0,1.0,5.0,1.0,338.8270020000163,3.0,0.0,part_2,stop,150.0,150.0,3.0,,,,,,,,,orange,triangle
0.0,3.0,3.0,0.0,6.0,2.0,513.4880659998089,3.0,0.0,part_2,go,100.0,150.0,2.0,,,,,,,,,white,flipped triangle
0.0,5.0,1.0,1.0,5.0,0.0,0.0,3.0,0.0,part_2,stop,100.0,150.0,4.0,,,,,,,,,orange,triangle
0.0,3.0,3.0,0.0,5.0,1.0,358.9628489999086,4.0,0.0,part_2,go,150.0,150.0,2.0,,,,,,,,,white,flipped triangle
0.0,4.0,4.0,0.0,5.0,1.0,255.6810840001162,4.0,0.0,part_2,go,150.0,150.0,2.0,,,,,,,,,cyan,diamond
0.0,5.0,1.0,1.0,5.0,1.0,308.6876040001698,4.0,0.0,part_2,stop,150.0,150.0,3.0,,,,,,,,,orange,triangle
0.0,3.0,3.0,0.0,6.0,2.0,311.6681830001653,4.0,0.0,part_2,go,100.0,150.0,2.0,,,,,,,,,white,flipped triangle
0.0,5.0,1.0,1.0,5.0,0.0,0.0,4.0,0.0,part_2,stop,100.0,150.0,4.0,,,,,,,,,orange,triangle
0.0,8.0,4.0,1.0,6.0,0.0,0.0,4.0,0.0,part_2,stop,150.0,150.0,4.0,,,,,,,,,yellow,I
0.0,1.0,1.0,0.0,5.0,1.0,413.4709249997286,4.0,0.0,part_2,go,150.0,200.0,2.0,,,,,,,,,green,hexagon
0.0,6.0,2.0,1.0,5.0,1.0,350.9819529999731,4.0,0.0,part_2,stop,150.0,200.0,3.0,,,,,,,,,magenta,square
0.0,8.0,4.0,1.0,5.0,0.0,0.0,4.0,0.0,part_2,stop,100.0,200.0,4.0,,,,,,,,,yellow,I
0.0,3.0,3.0,0.0,5.0,1.0,501.55684799983646,4.0,0.0,part_2,go,150.0,200.0,2.0,,,,,,,,,white,flipped triangle
0.0,8.0,4.0,1.0,6.0,2.0,349.0893980001601,4.0,0.0,part_2,stop,150.0,200.0,3.0,,,,,,,,,yellow,I
0.0,3.0,3.0,0.0,6.0,2.0,424.05640700008,4.0,0.0,part_2,go,150.0,150.0,2.0,,,,,,,,,white,flipped triangle
0.0,6.0,2.0,1.0,5.0,1.0,284.3402930002412,4.0,0.0,part_2,go,150.0,150.0,2.0,,,,,,,,,magenta,square
0.0,7.0,3.0,1.0,5.0,1.0,353.7223419998554,4.0,0.0,part_2,stop,150.0,150.0,3.0,,,,,,,,,blue,circle
0.0,6.0,2.0,1.0,6.0,2.0,574.0352890002214,4.0,0.0,part_2,go,100.0,150.0,2.0,,,,,,,,,magenta,square
0.0,4.0,4.0,0.0,6.0,2.0,348.83423299970667,4.0,0.0,part_2,go,100.0,150.0,2.0,,,,,,,,,cyan,diamond
0.0,7.0,3.0,1.0,6.0,0.0,0.0,4.0,0.0,part_2,stop,100.0,150.0,4.0,,,,,,,,,blue,circle
0.0,6.0,2.0,1.0,6.0,2.0,384.3210459999682,4.0,0.0,part_2,stop,100.0,200.0,3.0,,,,,,,,,magenta,square
0.0,8.0,4.0,1.0,6.0,0.0,0.0,4.0,0.0,part_2,stop,100.0,150.0,4.0,,,,,,,,,yellow,I
0.0,2.0,2.0,0.0,6.0,2.0,403.3843590000288,4.0,0.0,part_2,go,100.0,200.0,2.0,,,,,,,,,gray,cross
0.0,6.0,2.0,1.0,5.0,1.0,329.5758549998027,4.0,0.0,part_2,stop,100.0,200.0,3.0,,,,,,,,,magenta,square
0.0,8.0,4.0,1.0,5.0,1.0,629.6765020001658,4.0,0.0,part_2,go,50.0,200.0,2.0,,,,,,,,,yellow,I
0.0,5.0,1.0,1.0,6.0,0.0,0.0,4.0,0.0,part_2,stop,50.0,200.0,4.0,,,,,,,,,orange,triangle
0.0,2.0,2.0,0.0,6.0,2.0,498.3585299996775,4.0,0.0,part_2,go,50.0,250.0,2.0,,,,,,,,,gray,cross
0.0,6.0,2.0,1.0,5.0,1.0,357.436981000319,4.0,0.0,part_2,stop,50.0,250.0,3.0,,,,,,,,,magenta,square
0.0,6.0,2.0,1.0,5.0,1.0,528.2544730002883,4.0,0.0,part_2,go,0.0,250.0,2.0,,,,,,,,,magenta,square
0.0,3.0,3.0,0.0,5.0,1.0,405.8263390002139,4.0,0.0,part_2,go,0.0,250.0,2.0,,,,,,,,,white,flipped triangle
0.0,6.0,2.0,1.0,5.0,0.0,0.0,4.0,0.0,part_2,stop,0.0,250.0,4.0,,,,,,,,,magenta,square
0.0,4.0,4.0,0.0,5.0,1.0,536.8270039998606,4.0,0.0,part_2,go,50.0,250.0,2.0,,,,,,,,,cyan,diamond
0.0,2.0,2.0,0.0,5.0,1.0,450.9783530002096,4.0,0.0,part_2,go,50.0,250.0,2.0,,,,,,,,,gray,cross
0.0,1.0,1.0,0.0,6.0,2.0,422.5008329999582,4.0,0.0,part_2,go,50.0,250.0,2.0,,,,,,,,,green,hexagon
0.0,7.0,3.0,1.0,5.0,1.0,368.2787550001194,4.0,0.0,part_2,go,50.0,250.0,2.0,,,,,,,,,blue,circle
0.0,6.0,2.0,1.0,6.0,2.0,379.5705219999945,4.0,0.0,part_2,go,50.0,250.0,2.0,,,,,,,,,magenta,square
0.0,5.0,1.0,1.0,6.0,2.0,417.7360429998771,4.0,0.0,part_2,stop,50.0,250.0,3.0,,,,,,,,,orange,triangle
0.0,5.0,1.0,1.0,5.0,1.0,367.9928350002228,4.0,0.0,part_2,stop,50.0,200.0,3.0,,,,,,,,,orange,triangle
0.0,3.0,3.0,0.0,6.0,2.0,370.0548770002569,4.0,0.0,part_2,go,0.0,200.0,2.0,,,,,,,,,white,flipped triangle
0.0,2.0,2.0,0.0,6.0,2.0,396.9703430002482,5.0,0.0,part_2,go,0.0,200.0,2.0,,,,,,,,,gray,cross
0.0,2.0,2.0,0.0,5.0,1.0,283.3004509998318,5.0,0.0,part_2,go,0.0,200.0,2.0,,,,,,,,,gray,cross
0.0,7.0,3.0,1.0,5.0,1.0,278.7778269998853,5.0,0.0,part_2,stop,0.0,200.0,3.0,,,,,,,,,blue,circle
0.0,7.0,3.0,1.0,5.0,0.0,0.0,5.0,0.0,part_2,stop,0.0,200.0,4.0,,,,,,,,,blue,circle
0.0,5.0,1.0,1.0,6.0,2.0,453.3144890001495,5.0,0.0,part_2,go,50.0,200.0,2.0,,,,,,,,,orange,triangle
0.0,1.0,1.0,0.0,6.0,2.0,339.8213219998069,5.0,0.0,part_2,go,50.0,200.0,2.0,,,,,,,,,green,hexagon
0.0,3.0,3.0,0.0,6.0,2.0,339.0999630000806,5.0,0.0,part_2,go,50.0,200.0,2.0,,,,,,,,,white,flipped triangle
0.0,7.0,3.0,1.0,5.0,1.0,351.4033820001714,5.0,0.0,part_2,go,50.0,200.0,2.0,,,,,,,,,blue,circle
0.0,5.0,1.0,1.0,6.0,2.0,301.7615250000744,5.0,0.0,part_2,stop,50.0,200.0,3.0,,,,,,,,,orange,triangle
0.0,3.0,3.0,0.0,6.0,2.0,337.5669170000037,5.0,0.0,part_2,go,50.0,150.0,2.0,,,,,,,,,white,flipped triangle
0.0,5.0,1.0,1.0,6.0,0.0,0.0,5.0,0.0,part_2,stop,50.0,150.0,4.0,,,,,,,,,orange,triangle
0.0,4.0,4.0,0.0,5.0,1.0,339.8330949999035,5.0,0.0,part_2,go,50.0,200.0,2.0,,,,,,,,,cyan,diamond
0.0,7.0,3.0,1.0,5.0,0.0,0.0,5.0,0.0,part_2,stop,50.0,200.0,4.0,,,,,,,,,blue,circle
0.0,4.0,4.0,0.0,6.0,2.0,311.6489040003216,5.0,0.0,part_2,go,100.0,200.0,2.0,,,,,,,,,cyan,diamond
0.0,8.0,4.0,1.0,5.0,0.0,0.0,5.0,0.0,part_2,stop,100.0,200.0,4.0,,,,,,,,,yellow,I
0.0,1.0,1.0,0.0,5.0,1.0,423.3660189997863,5.0,0.0,part_2,go,150.0,200.0,2.0,,,,,,,,,green,hexagon
0.0,6.0,2.0,1.0,6.0,2.0,310.2380310001535,5.0,0.0,part_2,go,150.0,200.0,2.0,,,,,,,,,magenta,square
0.0,8.0,4.0,1.0,6.0,2.0,339.0352550004536,5.0,0.0,part_2,stop,150.0,200.0,3.0,,,,,,,,,yellow,I
0.0,8.0,4.0,1.0,5.0,0.0,0.0,5.0,0.0,part_2,stop,150.0,150.0,4.0,,,,,,,,,yellow,I
0.0,1.0,1.0,0.0,5.0,1.0,423.4672769998724,5.0,0.0,part_2,go,200.0,150.0,2.0,,,,,,,,,green,hexagon
0.0,8.0,4.0,1.0,5.0,1.0,374.6283549999134,5.0,0.0,part_2,go,200.0,150.0,2.0,,,,,,,,,yellow,I
0.0,6.0,2.0,1.0,5.0,1.0,330.3090790000169,5.0,0.0,part_2,stop,200.0,150.0,3.0,,,,,,,,,magenta,square
0.0,2.0,2.0,0.0,5.0,1.0,415.1144289999138,5.0,0.0,part_2,go,150.0,150.0,2.0,,,,,,,,,gray,cross
0.0,6.0,2.0,1.0,5.0,1.0,351.0476169999492,5.0,0.0,part_2,stop,150.0,150.0,3.0,,,,,,,,,magenta,square
0.0,1.0,1.0,0.0,6.0,2.0,363.7333210003817,5.0,0.0,part_2,go,100.0,150.0,2.0,,,,,,,,,green,hexagon
0.0,2.0,2.0,0.0,6.0,2.0,313.0452160003187,5.0,0.0,part_2,go,100.0,150.0,2.0,,,,,,,,,gray,cross
0.0,3.0,3.0,0.0,6.0,2.0,329.3889649999073,5.0,0.0,part_2,go,100.0,150.0,2.0,,,,,,,,,white,flipped triangle
0.0,1.0,1.0,0.0,6.0,2.0,330.2264869998907,5.0,0.0,part_2,go,100.0,150.0,2.0,,,,,,,,,green,hexagon
0.0,6.0,2.0,1.0,5.0,0.0,0.0,5.0,0.0,part_2,stop,100.0,150.0,4.0,,,,,,,,,magenta,square
0.0,7.0,3.0,1.0,5.0,0.0,0.0,5.0,0.0,part_2,stop,150.0,150.0,4.0,,,,,,,,,blue,circle
0.0,8.0,4.0,1.0,5.0,1.0,414.7103680002146,5.0,0.0,part_2,stop,200.0,150.0,3.0,,,,,,,,,yellow,I
0.0,2.0,2.0,0.0,6.0,2.0,378.9435020003111,5.0,0.0,part_2,go,150.0,150.0,2.0,,,,,,,,,gray,cross
0.0,3.0,3.0,0.0,6.0,2.0,330.8991530002458,5.0,0.0,part_2,go,150.0,150.0,2.0,,,,,,,,,white,flipped triangle
0.0,7.0,3.0,1.0,5.0,0.0,0.0,5.0,0.0,part_2,stop,150.0,150.0,4.0,,,,,,,,,blue,circle
0.0,8.0,4.0,1.0,6.0,0.0,0.0,5.0,0.0,part_2,stop,200.0,150.0,4.0,,,,,,,,,yellow,I
0.0,1.0,1.0,0.0,6.0,2.0,434.8490080001284,5.0,0.0,part_2,go,200.0,200.0,2.0,,,,,,,,,green,hexagon
0.0,3.0,3.0,0.0,6.0,6.0,375.580827000249,6.0,0.0,part_2,go,200.0,200.0,1.0,,,,,,,,,white,flipped triangle
0.0,5.0,1.0,1.0,5.0,5.0,299.9175340000874,6.0,0.0,part_2,stop,200.0,200.0,3.0,,,,,,,,,orange,triangle
0.0,7.0,3.0,1.0,6.0,6.0,305.7166240000697,6.0,0.0,part_2,stop,150.0,200.0,3.0,,,,,,,,,blue,circle
0.0,1.0,1.0,0.0,5.0,5.0,404.9066540001149,6.0,0.0,part_2,go,150.0,150.0,1.0,,,,,,,,,green,hexagon
0.0,5.0,1.0,1.0,5.0,5.0,333.2793239997045,6.0,0.0,part_2,stop,150.0,150.0,3.0,,,,,,,,,orange,triangle
0.0,4.0,4.0,0.0,5.0,5.0,426.3435000002573,6.0,0.0,part_2,go,100.0,150.0,1.0,,,,,,,,,cyan,diamond
0.0,2.0,2.0,0.0,5.0,5.0,377.9829460004293,6.0,0.0,part_2,go,100.0,150.0,1.0,,,,,,,,,gray,cross
0.0,6.0,2.0,1.0,6.0,6.0,334.6444310000152,6.0,0.0,part_2,stop,100.0,150.0,3.0,,,,,,,,,magenta,square
0.0,2.0,2.0,0.0,5.0,5.0,793.3480530000452,6.0,0.0,part_2,go,100.0,100.0,1.0,,,,,,,,,gray,cross
0.0,6.0,2.0,1.0,6.0,0.0,0.0,6.0,0.0,part_2,stop,100.0,100.0,4.0,,,,,,,,,magenta,square
0.0,4.0,4.0,0.0,6.0,6.0,413.1827239998529,6.0,0.0,part_2,go,100.0,150.0,1.0,,,,,,,,,cyan,diamond
0.0,4.0,4.0,0.0,6.0,6.0,339.2510319999928,6.0,0.0,part_2,go,100.0,150.0,1.0,,,,,,,,,cyan,diamond
0.0,5.0,1.0,1.0,6.0,6.0,314.4286840001769,6.0,0.0,part_2,stop,100.0,150.0,3.0,,,,,,,,,orange,triangle
0.0,7.0,3.0,1.0,5.0,5.0,302.6192460001766,6.0,0.0,part_2,go,100.0,100.0,1.0,,,,,,,,,blue,circle
0.0,5.0,1.0,1.0,6.0,6.0,407.8532020002967,6.0,0.0,part_2,go,100.0,100.0,1.0,,,,,,,,,orange,triangle
0.0,3.0,3.0,0.0,5.0,5.0,347.3429139999098,6.0,0.0,part_2,go,100.0,100.0,1.0,,,,,,,,,white,flipped triangle
0.0,7.0,3.0,1.0,5.0,0.0,0.0,6.0,0.0,part_2,stop,100.0,100.0,4.0,,,,,,,,,blue,circle
0.0,2.0,2.0,0.0,6.0,6.0,321.3671009998506,6.0,0.0,part_2,go,150.0,100.0,1.0,,,,,,,,,gray,cross
0.0,4.0,4.0,0.0,6.0,6.0,494.1857130002063,6.0,0.0,part_2,go,150.0,100.0,1.0,,,,,,,,,cyan,diamond
0.0,4.0,4.0,0.0,6.0,6.0,307.0799899996927,6.0,0.0,part_2,go,150.0,100.0,1.0,,,,,,,,,cyan,diamond
0.0,4.0,4.0,0.0,6.0,6.0,272.89187399992437,6.0,0.0,part_2,go,150.0,100.0,1.0,,,,,,,,,cyan,diamond
0.0,5.0,1.0,1.0,6.0,6.0,300.367006000215,6.0,0.0,part_2,stop,150.0,100.0,3.0,,,,,,,,,orange,triangle
0.0,2.0,2.0,0.0,6.0,6.0,320.9510960000443,6.0,0.0,part_2,go,150.0,50.0,1.0,,,,,,,,,gray,cross
0.0,1.0,1.0,0.0,6.0,6.0,366.5281489998051,6.0,0.0,part_2,go,150.0,50.0,1.0,,,,,,,,,green,hexagon
0.0,1.0,1.0,0.0,5.0,5.0,309.0890590001436,6.0,0.0,part_2,go,150.0,50.0,1.0,,,,,,,,,green,hexagon
0.0,1.0,1.0,0.0,5.0,5.0,330.6099740002537,6.0,0.0,part_2,go,150.0,50.0,1.0,,,,,,,,,green,hexagon
0.0,3.0,3.0,0.0,6.0,6.0,377.1233080001366,6.0,0.0,part_2,go,150.0,50.0,1.0,,,,,,,,,white,flipped triangle
0.0,8.0,4.0,1.0,6.0,0.0,0.0,6.0,0.0,part_2,stop,150.0,50.0,4.0,,,,,,,,,yellow,I
0.0,7.0,3.0,1.0,6.0,6.0,478.0027470001187,6.0,0.0,part_2,go,150.0,100.0,1.0,,,,,,,,,blue,circle
0.0,2.0,2.0,0.0,6.0,6.0,348.3776130001388,6.0,0.0,part_2,go,150.0,100.0,1.0,,,,,,,,,gray,cross
0.0,1.0,1.0,0.0,5.0,5.0,442.6142219999747,6.0,0.0,part_2,go,150.0,100.0,1.0,,,,,,,,,green,hexagon
0.0,6.0,2.0,1.0,6.0,0.0,0.0,6.0,0.0,part_2,stop,150.0,100.0,4.0,,,,,,,,,magenta,square
0.0,3.0,3.0,0.0,5.0,5.0,320.005403000323,6.0,0.0,part_2,go,150.0,150.0,1.0,,,,,,,,,white,flipped triangle
0.0,5.0,1.0,1.0,5.0,5.0,309.7835410003426,6.0,0.0,part_2,stop,150.0,150.0,3.0,,,,,,,,,orange,triangle
0.0,2.0,2.0,0.0,5.0,5.0,406.5967000001365,6.0,0.0,part_2,go,100.0,150.0,1.0,,,,,,,,,gray,cross
0.0,7.0,3.0,1.0,5.0,5.0,332.0402609997472,6.0,0.0,part_2,stop,100.0,150.0,3.0,,,,,,,,,blue,circle
0.0,3.0,3.0,0.0,5.0,5.0,302.0049649999237,7.0,0.0,part_2,go,50.0,150.0,1.0,,,,,,,,,white,flipped triangle
0.0,4.0,4.0,0.0,6.0,6.0,306.2349140000151,7.0,0.0,part_2,go,50.0,150.0,1.0,,,,,,,,,cyan,diamond
0.0,3.0,3.0,0.0,5.0,5.0,255.0300380003136,7.0,0.0,part_2,go,50.0,150.0,1.0,,,,,,,,,white,flipped triangle
0.0,6.0,2.0,1.0,5.0,5.0,298.9619299996775,7.0,0.0,part_2,stop,50.0,150.0,3.0,,,,,,,,,magenta,square
0.0,6.0,2.0,1.0,5.0,5.0,349.6370329999081,7.0,0.0,part_2,stop,0.0,150.0,3.0,,,,,,,,,magenta,square
0.0,5.0,1.0,1.0,6.0,6.0,319.3773160001001,7.0,0.0,part_2,go,0.0,150.0,1.0,,,,,,,,,orange,triangle
0.0,4.0,4.0,0.0,5.0,5.0,367.4044310000681,7.0,0.0,part_2,go,0.0,150.0,1.0,,,,,,,,,cyan,diamond
0.0,6.0,2.0,1.0,5.0,0.0,0.0,7.0,0.0,part_2,stop,0.0,150.0,4.0,,,,,,,,,magenta,square
0.0,5.0,1.0,1.0,6.0,6.0,338.8959859998977,7.0,0.0,part_2,stop,50.0,150.0,3.0,,,,,,,,,orange,triangle
0.0,8.0,4.0,1.0,6.0,0.0,0.0,7.0,0.0,part_2,stop,50.0,100.0,4.0,,,,,,,,,yellow,I
0.0,3.0,3.0,0.0,5.0,5.0,526.5326139997342,7.0,0.0,part_2,go,50.0,150.0,1.0,,,,,,,,,white,flipped triangle
0.0,8.0,4.0,1.0,5.0,0.0,0.0,7.0,0.0,part_2,stop,50.0,150.0,4.0,,,,,,,,,yellow,I
0.0,5.0,1.0,1.0,6.0,0.0,0.0,7.0,0.0,part_2,stop,100.0,150.0,4.0,,,,,,,,,orange,triangle
0.0,2.0,2.0,0.0,5.0,5.0,459.9872369999502,7.0,0.0,part_2,go,100.0,200.0,1.0,,,,,,,,,gray,cross
0.0,1.0,1.0,0.0,5.0,5.0,349.8392449996572,7.0,0.0,part_2,go,100.0,200.0,1.0,,,,,,,,,green,hexagon
0.0,7.0,3.0,1.0,6.0,6.0,312.2095979997539,7.0,0.0,part_2,stop,100.0,200.0,3.0,,,,,,,,,blue,circle
0.0,4.0,4.0,0.0,5.0,5.0,398.2239659999322,7.0,0.0,part_2,go,100.0,150.0,1.0,,,,,,,,,cyan,diamond
0.0,7.0,3.0,1.0,5.0,5.0,320.6702219999897,7.0,0.0,part_2,stop,100.0,150.0,3.0,,,,,,,,,blue,circle
0.0,3.0,3.0,0.0,5.0,5.0,453.9027539999551,7.0,0.0,part_2,go,50.0,150.0,1.0,,,,,,,,,white,flipped triangle
0.0,6.0,2.0,1.0,5.0,5.0,368.2975029996669,7.0,0.0,part_2,go,50.0,150.0,1.0,,,,,,,,,magenta,square
0.0,2.0,2.0,0.0,5.0,5.0,406.132295000134,7.0,0.0,part_2,go,50.0,150.0,1.0,,,,,,,,,gray,cross
0.0,4.0,4.0,0.0,5.0,5.0,300.9660140005508,7.0,0.0,part_2,go,50.0,150.0,1.0,,,,,,,,,cyan,diamond
0.0,1.0,1.0,0.0,6.0,6.0,319.9657690001913,7.0,0.0,part_2,go,50.0,150.0,1.0,,,,,,,,,green,hexagon
0.0,3.0,3.0,0.0,5.0,5.0,336.5947769998456,7.0,0.0,part_2,go,50.0,150.0,1.0,,,,,,,,,white,flipped triangle
0.0,7.0,3.0,1.0,6.0,6.0,318.0306450003627,7.0,0.0,part_2,stop,50.0,150.0,3.0,,,,,,,,,blue,circle
0.0,1.0,1.0,0.0,5.0,5.0,375.5195370004003,7.0,0.0,part_2,go,50.0,100.0,1.0,,,,,,,,,green,hexagon
0.0,1.0,1.0,0.0,6.0,6.0,338.0101080001623,7.0,0.0,part_2,go,50.0,100.0,1.0,,,,,,,,,green,hexagon
0.0,4.0,4.0,0.0,6.0,6.0,318.4622659991873,7.0,0.0,part_2,go,50.0,100.0,1.0,,,,,,,,,cyan,diamond
0.0,3.0,3.0,0.0,6.0,6.0,340.2390219998779,7.0,0.0,part_2,go,50.0,100.0,1.0,,,,,,,,,white,flipped triangle
0.0,5.0,1.0,1.0,6.0,6.0,310.7686379998995,7.0,0.0,part_2,stop,50.0,100.0,3.0,,,,,,,,,orange,triangle
0.0,1.0,1.0,0.0,6.0,6.0,321.8193610000526,7.0,0.0,part_2,go,50.0,50.0,1.0,,,,,,,,,green,hexagon
0.0,1.0,1.0,0.0,6.0,6.0,309.8665170000458,7.0,0.0,part_2,go,50.0,50.0,1.0,,,,,,,,,green,hexagon
0.0,4.0,4.0,0.0,6.0,6.0,282.3482989997501,7.0,0.0,part_2,go,50.0,50.0,1.0,,,,,,,,,cyan,diamond
0.0,2.0,2.0,0.0,5.0,5.0,373.9641559996016,7.0,0.0,part_2,go,50.0,50.0,1.0,,,,,,,,,gray,cross
0.0,1.0,1.0,0.0,5.0,5.0,321.0754789997736,7.0,0.0,part_2,go,50.0,50.0,1.0,,,,,,,,,green,hexagon
0.0,4.0,4.0,0.0,5.0,5.0,375.3149929998471,7.0,0.0,part_2,go,50.0,50.0,1.0,,,,,,,,,cyan,diamond
0.0,3.0,3.0,0.0,6.0,6.0,441.6957059993365,8.0,0.0,part_2,go,50.0,50.0,1.0,,,,,,,,,white,flipped triangle
0.0,6.0,2.0,1.0,6.0,6.0,305.2962030005801,8.0,0.0,part_2,go,50.0,50.0,1.0,,,,,,,,,magenta,square
0.0,6.0,2.0,1.0,6.0,6.0,305.7730900000024,8.0,0.0,part_2,stop,50.0,50.0,3.0,,,,,,,,,magenta,square
0.0,3.0,3.0,0.0,5.0,1.0,717.2716319992105,8.0,0.0,part_2,go,50.0,0.0,2.0,,,,,,,,,white,flipped triangle
0.0,8.0,4.0,1.0,5.0,5.0,333.4923830007028,8.0,0.0,part_2,go,50.0,0.0,1.0,,,,,,,,,yellow,I
0.0,5.0,1.0,1.0,5.0,0.0,0.0,8.0,0.0,part_2,stop,50.0,0.0,4.0,,,,,,,,,orange,triangle
0.0,4.0,4.0,0.0,6.0,6.0,384.3786370007365,8.0,0.0,part_2,go,100.0,0.0,1.0,,,,,,,,,cyan,diamond
0.0,7.0,3.0,1.0,6.0,0.0,0.0,8.0,0.0,part_2,stop,100.0,0.0,4.0,,,,,,,,,blue,circle
0.0,4.0,4.0,0.0,5.0,5.0,332.2912309995445,8.0,0.0,part_2,go,100.0,50.0,1.0,,,,,,,,,cyan,diamond
0.0,3.0,3.0,0.0,5.0,5.0,340.439358000367,8.0,0.0,part_2,go,100.0,50.0,1.0,,,,,,,,,white,flipped triangle
0.0,4.0,4.0,0.0,5.0,5.0,264.055986999665,8.0,0.0,part_2,go,100.0,50.0,1.0,,,,,,,,,cyan,diamond
0.0,2.0,2.0,0.0,5.0,5.0,301.0600399993564,8.0,0.0,part_2,go,100.0,50.0,1.0,,,,,,,,,gray,cross
0.0,2.0,2.0,0.0,5.0,5.0,310.1781989998926,8.0,0.0,part_2,go,100.0,50.0,1.0,,,,,,,,,gray,cross
0.0,6.0,2.0,1.0,5.0,5.0,321.1648040005457,8.0,0.0,part_2,stop,100.0,50.0,3.0,,,,,,,,,magenta,square
0.0,2.0,2.0,0.0,6.0,6.0,536.5065669993783,8.0,0.0,part_2,go,50.0,50.0,1.0,,,,,,,,,gray,cross
0.0,4.0,4.0,0.0,5.0,5.0,330.162823000137,8.0,0.0,part_2,go,50.0,50.0,1.0,,,,,,,,,cyan,diamond
0.0,7.0,3.0,1.0,6.0,6.0,332.240675000321,8.0,0.0,part_2,stop,50.0,50.0,3.0,,,,,,,,,blue,circle
0.0,8.0,4.0,1.0,5.0,5.0,342.847922999681,8.0,0.0,part_2,stop,50.0,0.0,3.0,,,,,,,,,yellow,I
0.0,7.0,3.0,1.0,6.0,0.0,0.0,8.0,0.0,part_2,stop,0.0,0.0,4.0,,,,,,,,,blue,circle
0.0,1.0,1.0,0.0,5.0,5.0,423.1683709995195,8.0,0.0,part_2,go,0.0,50.0,1.0,,,,,,,,,green,hexagon
0.0,2.0,2.0,0.0,6.0,6.0,328.8423229996624,8.0,0.0,part_2,go,0.0,50.0,1.0,,,,,,,,,gray,cross
0.0,7.0,3.0,1.0,5.0,5.0,309.6734739992826,8.0,0.0,part_2,go,0.0,50.0,1.0,,,,,,,,,blue,circle
0.0,7.0,3.0,1.0,6.0,6.0,275.4457350001758,8.0,0.0,part_2,stop,0.0,50.0,3.0,,,,,,,,,blue,circle
0.0,5.0,1.0,1.0,5.0,0.0,0.0,8.0,0.0,part_2,stop,0.0,0.0,4.0,,,,,,,,,orange,triangle
0.0,4.0,4.0,0.0,5.0,5.0,470.2803529999073,8.0,0.0,part_2,go,50.0,0.0,1.0,,,,,,,,,cyan,diamond
0.0,2.0,2.0,0.0,5.0,5.0,359.8854080000819,8.0,0.0,part_2,go,50.0,0.0,1.0,,,,,,,,,gray,cross
0.0,7.0,3.0,1.0,5.0,0.0,0.0,8.0,0.0,part_2,stop,50.0,0.0,4.0,,,,,,,,,blue,circle
0.0,8.0,4.0,1.0,5.0,0.0,0.0,8.0,0.0,part_2,stop,100.0,0.0,4.0,,,,,,,,,yellow,I
0.0,8.0,4.0,1.0,6.0,0.0,0.0,8.0,0.0,part_2,stop,150.0,0.0,4.0,,,,,,,,,yellow,I
0.0,8.0,4.0,1.0,5.0,5.0,488.7041030006003,8.0,0.0,part_2,go,150.0,50.0,1.0,,,,,,,,,yellow,I
0.0,4.0,4.0,0.0,6.0,6.0,338.4888390000924,8.0,0.0,part_2,go,150.0,50.0,1.0,,,,,,,,,cyan,diamond
0.0,5.0,1.0,1.0,5.0,5.0,273.6487150004905,8.0,0.0,part_2,go,150.0,50.0,1.0,,,,,,,,,orange,triangle
0.0,4.0,4.0,0.0,5.0,5.0,309.5251860004282,8.0,0.0,part_2,go,150.0,50.0,1.0,,,,,,,,,cyan,diamond
0.0,1.0,1.0,0.0,6.0,6.0,284.4814049994966,8.0,0.0,part_2,go,150.0,50.0,1.0,,,,,,,,,green,hexagon
0.0,3.0,3.0,0.0,6.0,6.0,340.6990980001865,8.0,0.0,part_2,go,150.0,50.0,1.0,,,,,,,,,white,flipped triangle
0.0,4.0,4.0,0.0,6.0,6.0,310.0439029994959,8.0,0.0,part_2,go,150.0,50.0,1.0,,,,,,,,,cyan,diamond
0.0,6.0,2.0,1.0,7.0,3.0,1317.780712000058,1.0,2.0,part_3,go,0.0,0.0,0.0,580.0,5.0,464.0,232.0,580.0,348.0,116.0,696.0,magenta,square
0.0,3.0,3.0,0.0,7.0,3.0,2955.086748999747,1.0,1.0,part_3,go,0.0,0.0,0.0,576.0,3.0,960.0,1152.0,576.0,384.0,768.0,192.0,white,flipped triangle
0.0,8.0,4.0,1.0,7.0,3.0,2372.323409999808,1.0,1.0,part_3,go,0.0,0.0,0.0,580.0,5.0,464.0,116.0,580.0,696.0,348.0,232.0,yellow,I
0.0,7.0,3.0,1.0,7.0,5.0,1359.876460999658,1.0,1.0,part_3,go,0.0,0.0,0.0,232.0,2.0,348.0,464.0,696.0,580.0,232.0,116.0,blue,circle
0.0,7.0,3.0,1.0,7.0,3.0,2868.62690199996,1.0,1.0,part_3,go,0.0,0.0,0.0,173.0,1.0,346.0,865.0,173.0,692.0,1038.0,519.0,blue,circle
0.0,7.0,3.0,1.0,7.0,3.0,1290.294274000189,1.0,1.0,part_3,go,0.0,0.0,0.0,192.0,1.0,384.0,1152.0,192.0,576.0,960.0,768.0,blue,circle
0.0,2.0,2.0,0.0,7.0,4.0,2086.978373999955,1.0,1.0,part_3,go,0.0,0.0,0.0,462.0,3.0,770.0,308.0,924.0,462.0,154.0,616.0,gray,cross
0.0,5.0,1.0,1.0,7.0,6.0,2202.2385529999156,1.0,1.0,part_3,go,0.0,0.0,0.0,384.0,2.0,1152.0,192.0,576.0,960.0,768.0,384.0,orange,triangle
0.0,7.0,3.0,1.0,7.0,6.0,1216.2456320002093,1.0,1.0,part_3,go,0.0,0.0,0.0,192.0,1.0,384.0,768.0,1152.0,960.0,576.0,192.0,blue,circle
0.0,6.0,2.0,1.0,7.0,5.0,1153.2131189997017,1.0,1.0,part_3,go,0.0,0.0,0.0,384.0,2.0,192.0,1152.0,576.0,960.0,384.0,768.0,magenta,square
0.0,8.0,4.0,1.0,7.0,5.0,1372.433853000075,1.0,1.0,part_3,go,0.0,0.0,0.0,464.0,4.0,348.0,696.0,580.0,116.0,464.0,232.0,yellow,I
0.0,8.0,4.0,1.0,7.0,2.0,2047.892363999381,1.0,1.0,part_3,go,0.0,0.0,0.0,308.0,2.0,770.0,308.0,616.0,924.0,154.0,462.0,yellow,I
0.0,3.0,3.0,0.0,7.0,1.0,1480.1860439993106,1.0,1.0,part_3,go,0.0,0.0,0.0,692.0,4.0,692.0,519.0,173.0,865.0,1038.0,346.0,white,flipped triangle
0.0,5.0,1.0,1.0,7.0,5.0,1072.26847200036,1.0,1.0,part_3,go,0.0,0.0,0.0,308.0,2.0,462.0,770.0,924.0,616.0,308.0,154.0,orange,triangle
0.0,2.0,2.0,0.0,7.0,4.0,1416.1789909994695,1.0,1.0,part_3,go,0.0,0.0,0.0,348.0,3.0,232.0,464.0,580.0,348.0,116.0,696.0,gray,cross
0.0,4.0,4.0,0.0,7.0,3.0,1911.4226940000665,1.0,1.0,part_3,go,0.0,0.0,0.0,116.0,1.0,348.0,696.0,116.0,232.0,464.0,580.0,cyan,diamond
0.0,1.0,1.0,0.0,7.0,2.0,1828.4030770000752,1.0,1.0,part_3,go,0.0,0.0,0.0,192.0,1.0,1152.0,192.0,384.0,576.0,768.0,960.0,green,hexagon
0.0,4.0,4.0,0.0,7.0,5.0,1836.863315999835,1.0,1.0,part_3,go,0.0,0.0,0.0,232.0,2.0,348.0,696.0,580.0,464.0,232.0,116.0,cyan,diamond
0.0,2.0,2.0,0.0,7.0,6.0,1819.563410000228,1.0,1.0,part_3,go,0.0,0.0,0.0,519.0,3.0,346.0,692.0,1038.0,173.0,865.0,519.0,gray,cross
0.0,1.0,1.0,0.0,7.0,1.0,2511.435385000368,1.0,1.0,part_3,go,0.0,0.0,0.0,154.0,1.0,154.0,924.0,462.0,770.0,616.0,308.0,green,hexagon
0.0,6.0,2.0,1.0,7.0,5.0,1574.7825320004267,2.0,1.0,part_3,go,0.0,0.0,0.0,462.0,3.0,308.0,924.0,154.0,616.0,462.0,770.0,magenta,square
0.0,5.0,1.0,1.0,7.0,6.0,2013.5393059999842,2.0,1.0,part_3,go,0.0,0.0,0.0,576.0,3.0,768.0,960.0,192.0,384.0,1152.0,576.0,orange,triangle
0.0,7.0,3.0,1.0,7.0,4.0,1461.6308300001035,2.0,1.0,part_3,go,0.0,0.0,0.0,173.0,1.0,519.0,1038.0,692.0,173.0,346.0,865.0,blue,circle
0.0,4.0,4.0,0.0,7.0,1.0,1677.5285039993832,2.0,1.0,part_3,go,0.0,0.0,0.0,173.0,1.0,173.0,1038.0,346.0,865.0,692.0,519.0,cyan,diamond
0.0,2.0,2.0,0.0,7.0,5.0,1937.0247840006416,2.0,1.0,part_3,go,0.0,0.0,0.0,675.0,5.0,270.0,540.0,135.0,810.0,675.0,405.0,gray,cross
0.0,4.0,4.0,0.0,7.0,6.0,1574.7991010002806,2.0,1.0,part_3,go,0.0,0.0,0.0,192.0,1.0,960.0,1152.0,576.0,384.0,768.0,192.0,cyan,diamond
0.0,6.0,2.0,1.0,7.0,3.0,1673.2093479995456,2.0,1.0,part_3,go,0.0,0.0,0.0,348.0,3.0,116.0,464.0,348.0,580.0,232.0,696.0,magenta,square
0.0,1.0,1.0,0.0,7.0,1.0,1200.4908969993269,2.0,1.0,part_3,go,0.0,0.0,0.0,173.0,1.0,173.0,519.0,865.0,346.0,692.0,1038.0,green,hexagon
0.0,1.0,1.0,0.0,7.0,6.0,2087.8419969994866,2.0,1.0,part_3,go,0.0,0.0,0.0,192.0,1.0,960.0,384.0,768.0,576.0,1152.0,192.0,green,hexagon
0.0,1.0,1.0,0.0,7.0,5.0,891.1818349997702,2.0,1.0,part_3,go,0.0,0.0,0.0,135.0,1.0,810.0,675.0,540.0,405.0,135.0,270.0,green,hexagon
0.0,4.0,4.0,0.0,7.0,3.0,1393.3846279996942,2.0,1.0,part_3,go,0.0,0.0,0.0,270.0,2.0,405.0,675.0,270.0,810.0,135.0,540.0,cyan,diamond
0.0,5.0,1.0,1.0,7.0,5.0,1615.199154000038,2.0,1.0,part_3,go,0.0,0.0,0.0,270.0,2.0,405.0,540.0,135.0,810.0,270.0,675.0,orange,triangle
0.0,7.0,3.0,1.0,7.0,1.0,1532.070503999421,2.0,1.0,part_3,go,0.0,0.0,0.0,154.0,1.0,154.0,770.0,308.0,616.0,924.0,462.0,blue,circle
0.0,3.0,3.0,0.0,7.0,2.0,1524.0533860005598,2.0,1.0,part_3,go,0.0,0.0,0.0,770.0,5.0,924.0,770.0,462.0,308.0,616.0,154.0,white,flipped triangle
0.0,8.0,4.0,1.0,7.0,1.0,999.3840719998844,2.0,1.0,part_3,go,0.0,0.0,0.0,865.0,5.0,865.0,519.0,173.0,1038.0,346.0,692.0,yellow,I
0.0,1.0,1.0,0.0,7.0,6.0,1112.8312660002848,2.0,1.0,part_3,go,0.0,0.0,0.0,462.0,3.0,308.0,616.0,924.0,770.0,154.0,462.0,green,hexagon
0.0,1.0,1.0,0.0,7.0,6.0,728.0226470002162,2.0,1.0,part_3,go,0.0,0.0,0.0,232.0,2.0,464.0,116.0,580.0,696.0,348.0,232.0,green,hexagon
0.0,6.0,2.0,1.0,7.0,4.0,1004.5210429998406,2.0,1.0,part_3,go,0.0,0.0,0.0,308.0,2.0,924.0,462.0,616.0,308.0,154.0,770.0,magenta,square
0.0,8.0,4.0,1.0,7.0,3.0,1078.4401889995934,2.0,1.0,part_3,go,0.0,0.0,0.0,675.0,5.0,405.0,540.0,675.0,135.0,270.0,810.0,yellow,I
0.0,5.0,1.0,1.0,7.0,4.0,1342.2246589998394,2.0,1.0,part_3,go,0.0,0.0,0.0,348.0,3.0,696.0,116.0,464.0,348.0,580.0,232.0,orange,triangle
0.0,2.0,2.0,0.0,7.0,5.0,1496.7508900008395,3.0,1.0,part_3,go,0.0,0.0,0.0,1152.0,6.0,384.0,192.0,960.0,768.0,1152.0,576.0,gray,cross
0.0,3.0,3.0,0.0,7.0,4.0,923.833894999916,3.0,1.0,part_3,go,0.0,0.0,0.0,675.0,5.0,270.0,540.0,405.0,675.0,810.0,135.0,white,flipped triangle
0.0,5.0,1.0,1.0,7.0,4.0,1337.467507000838,3.0,1.0,part_3,go,0.0,0.0,0.0,540.0,4.0,405.0,270.0,810.0,540.0,135.0,675.0,orange,triangle
0.0,8.0,4.0,1.0,7.0,3.0,1132.171236999966,3.0,1.0,part_3,go,0.0,0.0,0.0,865.0,5.0,173.0,519.0,865.0,346.0,692.0,1038.0,yellow,I
0.0,6.0,2.0,1.0,7.0,5.0,846.2108479998278,3.0,1.0,part_3,go,0.0,0.0,0.0,540.0,4.0,135.0,810.0,405.0,675.0,540.0,270.0,magenta,square
0.0,5.0,1.0,1.0,7.0,4.0,928.9388060005876,3.0,1.0,part_3,go,0.0,0.0,0.0,462.0,3.0,924.0,308.0,154.0,462.0,616.0,770.0,orange,triangle
0.0,5.0,1.0,1.0,7.0,5.0,1200.1632900000914,3.0,1.0,part_3,go,0.0,0.0,0.0,519.0,3.0,1038.0,865.0,346.0,173.0,519.0,692.0,orange,triangle
0.0,1.0,1.0,0.0,7.0,2.0,879.6973669996078,3.0,1.0,part_3,go,0.0,0.0,0.0,173.0,1.0,865.0,173.0,346.0,519.0,1038.0,692.0,green,hexagon
0.0,4.0,4.0,0.0,7.0,4.0,901.6988769999444,3.0,1.0,part_3,go,0.0,0.0,0.0,346.0,2.0,519.0,692.0,865.0,346.0,1038.0,173.0,cyan,diamond
0.0,1.0,1.0,0.0,7.0,6.0,743.4421810003187,3.0,1.0,part_3,go,0.0,0.0,0.0,116.0,1.0,580.0,232.0,696.0,348.0,464.0,116.0,green,hexagon
0.0,2.0,2.0,0.0,7.0,2.0,1847.7125839999644,3.0,1.0,part_3,go,0.0,0.0,0.0,580.0,5.0,696.0,580.0,464.0,232.0,116.0,348.0,gray,cross
0.0,6.0,2.0,1.0,7.0,6.0,1114.8381360007988,3.0,1.0,part_3,go,0.0,0.0,0.0,384.0,2.0,576.0,768.0,192.0,1152.0,960.0,384.0,magenta,square
0.0,5.0,1.0,1.0,7.0,6.0,1888.864771000044,3.0,1.0,part_3,go,0.0,0.0,0.0,519.0,3.0,173.0,1038.0,346.0,865.0,692.0,519.0,orange,triangle
0.0,6.0,2.0,1.0,7.0,2.0,1925.207913000122,3.0,1.0,part_3,go,0.0,0.0,0.0,346.0,2.0,173.0,346.0,865.0,519.0,1038.0,692.0,magenta,square
0.0,3.0,3.0,0.0,7.0,5.0,1123.7233839992768,3.0,1.0,part_3,go,0.0,0.0,0.0,865.0,5.0,1038.0,173.0,519.0,346.0,865.0,692.0,white,flipped triangle
0.0,3.0,3.0,0.0,7.0,3.0,1728.29910100063,3.0,1.0,part_3,go,0.0,0.0,0.0,696.0,6.0,464.0,232.0,696.0,580.0,116.0,348.0,white,flipped triangle
0.0,3.0,3.0,0.0,7.0,4.0,1062.1239940001033,3.0,1.0,part_3,go,0.0,0.0,0.0,960.0,5.0,192.0,384.0,576.0,960.0,768.0,1152.0,white,flipped triangle
0.0,8.0,4.0,1.0,7.0,1.0,796.8422859994462,3.0,1.0,part_3,go,0.0,0.0,0.0,960.0,5.0,960.0,1152.0,192.0,576.0,768.0,384.0,yellow,I
0.0,2.0,2.0,0.0,7.0,4.0,691.5237450002678,3.0,1.0,part_3,go,0.0,0.0,0.0,768.0,4.0,576.0,960.0,192.0,768.0,1152.0,384.0,gray,cross
0.0,8.0,4.0,1.0,7.0,3.0,1874.3506900000284,3.0,1.0,part_3,go,0.0,0.0,0.0,616.0,4.0,924.0,308.0,616.0,154.0,770.0,462.0,yellow,I
0.0,8.0,4.0,1.0,7.0,6.0,1667.79366999981,4.0,1.0,part_3,go,0.0,0.0,0.0,810.0,6.0,540.0,270.0,405.0,675.0,135.0,810.0,yellow,I
0.0,2.0,2.0,0.0,7.0,4.0,1075.2660289999767,4.0,1.0,part_3,go,0.0,0.0,0.0,770.0,5.0,462.0,616.0,924.0,770.0,308.0,154.0,gray,cross
0.0,3.0,3.0,0.0,7.0,3.0,1093.3761859996594,4.0,1.0,part_3,go,0.0,0.0,0.0,675.0,5.0,540.0,405.0,675.0,135.0,270.0,810.0,white,flipped triangle
0.0,4.0,4.0,0.0,7.0,4.0,910.4262770006244,4.0,1.0,part_3,go,0.0,0.0,0.0,154.0,1.0,616.0,924.0,308.0,154.0,770.0,462.0,cyan,diamond
0.0,2.0,2.0,0.0,7.0,4.0,890.5675290006911,4.0,1.0,part_3,go,0.0,0.0,0.0,675.0,5.0,405.0,810.0,540.0,675.0,270.0,135.0,gray,cross
0.0,2.0,2.0,0.0,7.0,6.0,1234.5554160001484,4.0,1.0,part_3,go,0.0,0.0,0.0,692.0,4.0,865.0,346.0,1038.0,173.0,519.0,692.0,gray,cross
0.0,7.0,3.0,1.0,7.0,2.0,1299.0621500002817,4.0,1.0,part_3,go,0.0,0.0,0.0,135.0,1.0,675.0,135.0,270.0,810.0,540.0,405.0,blue,circle
0.0,4.0,4.0,0.0,7.0,5.0,1371.461312000065,4.0,1.0,part_3,go,0.0,0.0,0.0,308.0,2.0,462.0,924.0,154.0,616.0,308.0,770.0,cyan,diamond
0.0,7.0,3.0,1.0,7.0,2.0,742.2811690003073,4.0,1.0,part_3,go,0.0,0.0,0.0,116.0,1.0,232.0,116.0,580.0,348.0,464.0,696.0,blue,circle
0.0,5.0,1.0,1.0,7.0,5.0,854.6002309994947,4.0,1.0,part_3,go,0.0,0.0,0.0,580.0,5.0,696.0,464.0,348.0,116.0,580.0,232.0,orange,triangle
0.0,3.0,3.0,0.0,7.0,6.0,910.455226000522,4.0,1.0,part_3,go,0.0,0.0,0.0,580.0,5.0,464.0,696.0,348.0,232.0,116.0,580.0,white,flipped triangle
0.0,8.0,4.0,1.0,7.0,3.0,1114.3475720000424,4.0,1.0,part_3,go,0.0,0.0,0.0,1152.0,6.0,768.0,192.0,1152.0,384.0,960.0,576.0,yellow,I
0.0,7.0,3.0,1.0,7.0,2.0,955.7281389998024,4.0,1.0,part_3,go,0.0,0.0,0.0,135.0,1.0,405.0,135.0,270.0,540.0,675.0,810.0,blue,circle
0.0,7.0,3.0,1.0,7.0,2.0,714.0491069994823,4.0,1.0,part_3,go,0.0,0.0,0.0,154.0,1.0,308.0,154.0,616.0,924.0,770.0,462.0,blue,circle
0.0,4.0,4.0,0.0,7.0,2.0,2003.1595760001437,4.0,1.0,part_3,go,0.0,0.0,0.0,384.0,2.0,768.0,384.0,1152.0,192.0,960.0,576.0,cyan,diamond
0.0,4.0,4.0,0.0,7.0,2.0,844.7396640003717,4.0,1.0,part_3,go,0.0,0.0,0.0,270.0,2.0,540.0,270.0,405.0,810.0,135.0,675.0,cyan,diamond
0.0,3.0,3.0,0.0,7.0,1.0,2079.901035000148,4.0,1.0,part_3,go,0.0,0.0,0.0,616.0,4.0,616.0,924.0,308.0,154.0,462.0,770.0,white,flipped triangle
0.0,6.0,2.0,1.0,7.0,4.0,1274.1000489995713,4.0,1.0,part_3,go,0.0,0.0,0.0,405.0,3.0,540.0,810.0,675.0,405.0,135.0,270.0,magenta,square
0.0,6.0,2.0,1.0,7.0,4.0,1583.6406370008262,4.0,1.0,part_3,go,0.0,0.0,0.0,346.0,2.0,519.0,173.0,1038.0,346.0,692.0,865.0,magenta,square
0.0,1.0,1.0,0.0,7.0,2.0,1152.9935479993585,4.0,1.0,part_3,go,0.0,0.0,0.0,405.0,3.0,810.0,405.0,540.0,135.0,675.0,270.0,green,hexagon
