raw_reward_magnitude,stim_reward,stepwise_reward_magnitude,paired_with_stopping,stim_location,response,reaction_time,block,num_trial_presentations,which_phase,stop_signal_trial_type,left_SSD,right_SSD,accuracy,chosen_bidding_amount,chosen_bidding_level,possible_bid_1,possible_bid_2,possible_bid_3,possible_bid_4,possible_bid_5,possible_bid_6,color_text,shape_text
0.0,3.0,0.0,0.0,2.0,2.0,588.4520820000034,1.0,1.0,phase_1,,,,,,,,,,,,,white,flipped triangle
332.0,6.0,1.0,1.0,3.0,3.0,410.7018779999976,1.0,1.0,phase_1,,,,,,,,,,,,,blue,cross
0.0,5.0,0.0,1.0,4.0,4.0,374.078781999998,1.0,1.0,phase_1,,,,,,,,,,,,,magenta,diamond
160.0,5.0,0.5,1.0,1.0,1.0,345.3715420000094,1.0,1.0,phase_1,,,,,,,,,,,,,magenta,diamond
648.0,3.0,2.0,0.0,3.0,3.0,358.6929319999967,1.0,1.0,phase_1,,,,,,,,,,,,,white,flipped triangle
166.0,1.0,0.5,0.0,4.0,4.0,338.8769659999866,1.0,1.0,phase_1,,,,,,,,,,,,,orange,hexagon
331.0,2.0,1.0,0.0,1.0,1.0,438.7810499999887,1.0,1.0,phase_1,,,,,,,,,,,,,yellow,circle
672.0,7.0,2.0,1.0,4.0,4.0,446.5075340000055,1.0,1.0,phase_1,,,,,,,,,,,,,gray,square
171.0,5.0,0.5,1.0,4.0,4.0,335.5228709999949,1.0,1.0,phase_1,,,,,,,,,,,,,magenta,diamond
174.0,1.0,0.5,0.0,3.0,3.0,334.0531929999883,1.0,1.0,phase_1,,,,,,,,,,,,,orange,hexagon
319.0,2.0,1.0,0.0,2.0,2.0,363.1921220000151,1.0,1.0,phase_1,,,,,,,,,,,,,yellow,circle
637.0,7.0,2.0,1.0,3.0,3.0,427.6413530000127,1.0,1.0,phase_1,,,,,,,,,,,,,gray,square
665.0,3.0,2.0,0.0,3.0,3.0,382.1893789999535,1.0,1.0,phase_1,,,,,,,,,,,,,white,flipped triangle
302.0,6.0,1.0,1.0,2.0,2.0,362.1343689999889,1.0,1.0,phase_1,,,,,,,,,,,,,blue,cross
348.0,2.0,1.0,0.0,2.0,2.0,398.9678860000367,1.0,1.0,phase_1,,,,,,,,,,,,,yellow,circle
165.0,1.0,0.5,0.0,4.0,4.0,363.1551830000035,1.0,1.0,phase_1,,,,,,,,,,,,,orange,hexagon
660.0,3.0,2.0,0.0,4.0,4.0,354.7646900000245,1.0,1.0,phase_1,,,,,,,,,,,,,white,flipped triangle
668.0,7.0,2.0,1.0,1.0,1.0,325.6559489999517,1.0,1.0,phase_1,,,,,,,,,,,,,gray,square
307.0,2.0,1.0,0.0,3.0,3.0,352.8840139999829,1.0,1.0,phase_1,,,,,,,,,,,,,yellow,circle
302.0,2.0,1.0,0.0,2.0,2.0,366.1594239999886,1.0,1.0,phase_1,,,,,,,,,,,,,yellow,circle
0.0,3.0,0.0,0.0,3.0,3.0,450.9876879999979,1.0,1.0,phase_1,,,,,,,,,,,,,white,flipped triangle
304.0,6.0,1.0,1.0,2.0,2.0,446.1300920000326,1.0,1.0,phase_1,,,,,,,,,,,,,blue,cross
0.0,7.0,0.0,1.0,1.0,1.0,474.7409020000077,1.0,1.0,phase_1,,,,,,,,,,,,,gray,square
0.0,1.0,0.0,0.0,3.0,3.0,389.2061600000147,1.0,1.0,phase_1,,,,,,,,,,,,,orange,hexagon
1281.0,4.0,4.0,0.0,4.0,4.0,363.5094210000034,1.0,1.0,phase_1,,,,,,,,,,,,,green,triangle
0.0,6.0,0.0,1.0,2.0,2.0,399.82040000001,1.0,1.0,phase_1,,,,,,,,,,,,,blue,cross
1306.0,8.0,4.0,1.0,3.0,3.0,437.1671119999973,1.0,1.0,phase_1,,,,,,,,,,,,,cyan,I
1307.0,8.0,4.0,1.0,1.0,1.0,399.4925289999855,1.0,1.0,phase_1,,,,,,,,,,,,,cyan,I
323.0,6.0,1.0,1.0,2.0,2.0,493.7294099999576,1.0,1.0,phase_1,,,,,,,,,,,,,blue,cross
675.0,7.0,2.0,1.0,2.0,2.0,527.6177860000075,1.0,1.0,phase_1,,,,,,,,,,,,,gray,square
654.0,7.0,2.0,1.0,3.0,3.0,439.9182180000025,1.0,1.0,phase_1,,,,,,,,,,,,,gray,square
309.0,2.0,1.0,0.0,2.0,2.0,520.5850620000092,1.0,1.0,phase_1,,,,,,,,,,,,,yellow,circle
165.0,5.0,0.5,1.0,2.0,2.0,431.096943,1.0,1.0,phase_1,,,,,,,,,,,,,magenta,diamond
1296.0,4.0,4.0,0.0,1.0,1.0,444.4829319999712,1.0,1.0,phase_1,,,,,,,,,,,,,green,triangle
0.0,7.0,0.0,1.0,2.0,2.0,437.9737400000181,1.0,1.0,phase_1,,,,,,,,,,,,,gray,square
1319.0,4.0,4.0,0.0,4.0,4.0,458.720441999958,1.0,1.0,phase_1,,,,,,,,,,,,,green,triangle
674.0,7.0,2.0,1.0,2.0,2.0,425.967920000005,1.0,1.0,phase_1,,,,,,,,,,,,,gray,square
312.0,2.0,1.0,0.0,4.0,4.0,410.125029000028,1.0,1.0,phase_1,,,,,,,,,,,,,yellow,circle
1290.0,4.0,4.0,0.0,4.0,4.0,512.1274070000368,1.0,1.0,phase_1,,,,,,,,,,,,,green,triangle
0.0,7.0,0.0,1.0,4.0,4.0,356.5107350000289,1.0,1.0,phase_1,,,,,,,,,,,,,gray,square
1323.0,4.0,4.0,0.0,1.0,1.0,477.9698849999931,1.0,1.0,phase_1,,,,,,,,,,,,,green,triangle
0.0,2.0,0.0,0.0,2.0,2.0,401.0732990000178,1.0,1.0,phase_1,,,,,,,,,,,,,yellow,circle
314.0,6.0,1.0,1.0,3.0,3.0,418.9520930000299,1.0,1.0,phase_1,,,,,,,,,,,,,blue,cross
0.0,2.0,0.0,0.0,2.0,2.0,419.7646320000103,1.0,1.0,phase_1,,,,,,,,,,,,,yellow,circle
0.0,5.0,0.0,1.0,1.0,1.0,476.0128889999464,1.0,1.0,phase_1,,,,,,,,,,,,,magenta,diamond
302.0,6.0,1.0,1.0,3.0,3.0,506.3512770000216,1.0,1.0,phase_1,,,,,,,,,,,,,blue,cross
663.0,7.0,2.0,1.0,1.0,1.0,703.2588499999974,1.0,1.0,phase_1,,,,,,,,,,,,,gray,square
0.0,2.0,0.0,0.0,4.0,4.0,374.279582999975,1.0,1.0,phase_1,,,,,,,,,,,,,yellow,circle
145.0,5.0,0.5,1.0,1.0,1.0,454.0694050000411,1.0,1.0,phase_1,,,,,,,,,,,,,magenta,diamond
335.0,6.0,1.0,1.0,2.0,2.0,397.2441999999887,1.0,1.0,phase_1,,,,,,,,,,,,,blue,cross
303.0,6.0,1.0,1.0,4.0,4.0,368.8512979999814,1.0,1.0,phase_1,,,,,,,,,,,,,blue,cross
149.0,1.0,0.5,0.0,4.0,4.0,315.9262479999825,1.0,1.0,phase_1,,,,,,,,,,,,,orange,hexagon
673.0,7.0,2.0,1.0,4.0,4.0,317.1520060000148,1.0,1.0,phase_1,,,,,,,,,,,,,gray,square
1307.0,4.0,4.0,0.0,3.0,3.0,438.8661799999909,1.0,1.0,phase_1,,,,,,,,,,,,,green,triangle
657.0,3.0,2.0,0.0,3.0,3.0,380.1473070000156,1.0,1.0,phase_1,,,,,,,,,,,,,white,flipped triangle
1281.0,8.0,4.0,1.0,3.0,3.0,381.519164999986,1.0,1.0,phase_1,,,,,,,,,,,,,cyan,I
186.0,1.0,0.5,0.0,4.0,4.0,303.2417779999719,1.0,1.0,phase_1,,,,,,,,,,,,,orange,hexagon
0.0,1.0,0.0,0.0,4.0,4.0,353.1606739999802,1.0,1.0,phase_1,,,,,,,,,,,,,orange,hexagon
183.0,5.0,0.5,1.0,2.0,2.0,563.60304399999,1.0,1.0,phase_1,,,,,,,,,,,,,magenta,diamond
141.0,1.0,0.5,0.0,3.0,3.0,382.50739700004027,1.0,1.0,phase_1,,,,,,,,,,,,,orange,hexagon
630.0,3.0,2.0,0.0,3.0,3.0,311.3884750000011,1.0,1.0,phase_1,,,,,,,,,,,,,white,flipped triangle
1317.0,8.0,4.0,1.0,1.0,1.0,450.67168899998927,1.0,1.0,phase_1,,,,,,,,,,,,,cyan,I
656.0,7.0,2.0,1.0,4.0,4.0,325.6124100000193,1.0,1.0,phase_1,,,,,,,,,,,,,gray,square
153.0,1.0,0.5,0.0,2.0,2.0,352.7981590000308,1.0,1.0,phase_1,,,,,,,,,,,,,orange,hexagon
0.0,7.0,0.0,1.0,1.0,1.0,511.11997200001724,1.0,1.0,phase_1,,,,,,,,,,,,,gray,square
183.0,1.0,0.5,0.0,3.0,3.0,390.623134000009,1.0,1.0,phase_1,,,,,,,,,,,,,orange,hexagon
0.0,7.0,0.0,1.0,4.0,4.0,428.8004320000027,1.0,1.0,phase_1,,,,,,,,,,,,,gray,square
654.0,3.0,2.0,0.0,2.0,2.0,428.5136120000175,1.0,1.0,phase_1,,,,,,,,,,,,,white,flipped triangle
0.0,5.0,0.0,1.0,3.0,3.0,371.2028670000222,1.0,1.0,phase_1,,,,,,,,,,,,,magenta,diamond
146.0,5.0,0.5,1.0,1.0,1.0,476.7853610000543,1.0,1.0,phase_1,,,,,,,,,,,,,magenta,diamond
321.0,6.0,1.0,1.0,2.0,2.0,418.0711459999884,1.0,1.0,phase_1,,,,,,,,,,,,,blue,cross
0.0,6.0,0.0,1.0,2.0,2.0,361.2318080000136,1.0,1.0,phase_1,,,,,,,,,,,,,blue,cross
0.0,2.0,0.0,0.0,3.0,3.0,380.3635280000321,1.0,1.0,phase_1,,,,,,,,,,,,,yellow,circle
630.0,7.0,2.0,1.0,3.0,3.0,410.2936580000005,1.0,1.0,phase_1,,,,,,,,,,,,,gray,square
0.0,6.0,0.0,1.0,2.0,2.0,383.2323729999984,1.0,1.0,phase_1,,,,,,,,,,,,,blue,cross
0.0,7.0,0.0,1.0,4.0,4.0,389.7711700000172,1.0,1.0,phase_1,,,,,,,,,,,,,gray,square
648.0,7.0,2.0,1.0,3.0,3.0,366.2482080000018,1.0,1.0,phase_1,,,,,,,,,,,,,gray,square
672.0,3.0,2.0,0.0,2.0,2.0,417.4501489999898,1.0,1.0,phase_1,,,,,,,,,,,,,white,flipped triangle
631.0,3.0,2.0,0.0,2.0,2.0,390.3736479999793,1.0,1.0,phase_1,,,,,,,,,,,,,white,flipped triangle
1299.0,4.0,4.0,0.0,3.0,3.0,506.9323059999533,1.0,1.0,phase_1,,,,,,,,,,,,,green,triangle
673.0,3.0,2.0,0.0,1.0,1.0,501.1465219999991,1.0,1.0,phase_1,,,,,,,,,,,,,white,flipped triangle
345.0,2.0,1.0,0.0,1.0,1.0,394.8625159999892,1.0,1.0,phase_1,,,,,,,,,,,,,yellow,circle
334.0,2.0,1.0,0.0,2.0,2.0,335.9331329999691,1.0,1.0,phase_1,,,,,,,,,,,,,yellow,circle
632.0,3.0,2.0,0.0,4.0,4.0,374.3235059999961,1.0,1.0,phase_1,,,,,,,,,,,,,white,flipped triangle
657.0,7.0,2.0,1.0,1.0,1.0,365.8698049999884,1.0,1.0,phase_1,,,,,,,,,,,,,gray,square
0.0,5.0,0.0,1.0,2.0,2.0,324.9307309999949,1.0,1.0,phase_1,,,,,,,,,,,,,magenta,diamond
169.0,1.0,0.5,0.0,2.0,2.0,337.6471300000503,1.0,1.0,phase_1,,,,,,,,,,,,,orange,hexagon
1323.0,8.0,4.0,1.0,1.0,1.0,394.6824829999968,1.0,1.0,phase_1,,,,,,,,,,,,,cyan,I
339.0,6.0,1.0,1.0,3.0,3.0,348.7028559999885,1.0,1.0,phase_1,,,,,,,,,,,,,blue,cross
634.0,7.0,2.0,1.0,4.0,4.0,354.336658999955,1.0,1.0,phase_1,,,,,,,,,,,,,gray,square
668.0,3.0,2.0,0.0,2.0,2.0,338.8853620000418,1.0,1.0,phase_1,,,,,,,,,,,,,white,flipped triangle
666.0,7.0,2.0,1.0,2.0,2.0,372.0494239999539,1.0,1.0,phase_1,,,,,,,,,,,,,gray,square
656.0,7.0,2.0,1.0,3.0,3.0,355.0048960000254,1.0,1.0,phase_1,,,,,,,,,,,,,gray,square
319.0,2.0,1.0,0.0,3.0,3.0,408.6874420000299,1.0,1.0,phase_1,,,,,,,,,,,,,yellow,circle
0.0,8.0,0.0,1.0,2.0,2.0,437.2833269999887,1.0,1.0,phase_1,,,,,,,,,,,,,cyan,I
639.0,7.0,2.0,1.0,4.0,4.0,492.5267109999822,1.0,1.0,phase_1,,,,,,,,,,,,,gray,square
0.0,4.0,0.0,0.0,4.0,4.0,375.8356449999382,1.0,1.0,phase_1,,,,,,,,,,,,,green,triangle
303.0,2.0,1.0,0.0,2.0,2.0,420.0989239999444,1.0,1.0,phase_1,,,,,,,,,,,,,yellow,circle
633.0,3.0,2.0,0.0,4.0,4.0,594.1796790000353,1.0,1.0,phase_1,,,,,,,,,,,,,white,flipped triangle
146.0,5.0,0.5,1.0,2.0,2.0,354.715734000024,1.0,1.0,phase_1,,,,,,,,,,,,,magenta,diamond
145.0,1.0,0.5,0.0,2.0,2.0,359.2546489999222,2.0,1.0,phase_1,,,,,,,,,,,,,orange,hexagon
329.0,6.0,1.0,1.0,1.0,1.0,352.7039210000566,2.0,1.0,phase_1,,,,,,,,,,,,,blue,cross
0.0,3.0,0.0,0.0,3.0,3.0,372.4462589999575,2.0,1.0,phase_1,,,,,,,,,,,,,white,flipped triangle
628.0,7.0,2.0,1.0,4.0,4.0,318.1428579999874,2.0,1.0,phase_1,,,,,,,,,,,,,gray,square
142.0,5.0,0.5,1.0,1.0,1.0,328.552650000006,2.0,1.0,phase_1,,,,,,,,,,,,,magenta,diamond
1307.0,4.0,4.0,0.0,4.0,4.0,428.4946320000244,2.0,1.0,phase_1,,,,,,,,,,,,,green,triangle
339.0,2.0,1.0,0.0,3.0,3.0,794.4366460000083,2.0,1.0,phase_1,,,,,,,,,,,,,yellow,circle
1284.0,4.0,4.0,0.0,3.0,3.0,744.5355959999915,2.0,1.0,phase_1,,,,,,,,,,,,,green,triangle
154.0,5.0,0.5,1.0,4.0,4.0,505.6907160000037,2.0,1.0,phase_1,,,,,,,,,,,,,magenta,diamond
302.0,6.0,1.0,1.0,2.0,2.0,662.813462000031,2.0,1.0,phase_1,,,,,,,,,,,,,blue,cross
1307.0,8.0,4.0,1.0,3.0,3.0,596.5218720000394,2.0,1.0,phase_1,,,,,,,,,,,,,cyan,I
666.0,3.0,2.0,0.0,3.0,3.0,633.0327350000289,2.0,1.0,phase_1,,,,,,,,,,,,,white,flipped triangle
306.0,6.0,1.0,1.0,1.0,1.0,568.1161660000953,2.0,1.0,phase_1,,,,,,,,,,,,,blue,cross
306.0,2.0,1.0,0.0,4.0,4.0,717.92553399996,2.0,1.0,phase_1,,,,,,,,,,,,,yellow,circle
636.0,7.0,2.0,1.0,3.0,3.0,593.1851770000094,2.0,1.0,phase_1,,,,,,,,,,,,,gray,square
647.0,7.0,2.0,1.0,1.0,1.0,485.8015410000007,2.0,2.0,phase_1,,,,,,,,,,,,,gray,square
0.0,3.0,0.0,0.0,2.0,2.0,365.8944990000918,2.0,1.0,phase_1,,,,,,,,,,,,,white,flipped triangle
162.0,1.0,0.5,0.0,1.0,1.0,429.447380000056,2.0,1.0,phase_1,,,,,,,,,,,,,orange,hexagon
656.0,3.0,2.0,0.0,4.0,4.0,356.0851060000232,2.0,1.0,phase_1,,,,,,,,,,,,,white,flipped triangle
1315.0,4.0,4.0,0.0,2.0,2.0,355.3129120000449,2.0,1.0,phase_1,,,,,,,,,,,,,green,triangle
0.0,1.0,0.0,0.0,3.0,3.0,363.5092020000456,2.0,1.0,phase_1,,,,,,,,,,,,,orange,hexagon
0.0,6.0,0.0,1.0,2.0,2.0,288.9623800000436,2.0,1.0,phase_1,,,,,,,,,,,,,blue,cross
1322.0,8.0,4.0,1.0,4.0,4.0,411.6944529999955,2.0,1.0,phase_1,,,,,,,,,,,,,cyan,I
315.0,2.0,1.0,0.0,2.0,2.0,336.1859199999344,2.0,1.0,phase_1,,,,,,,,,,,,,yellow,circle
328.0,6.0,1.0,1.0,3.0,3.0,315.4709940000657,2.0,1.0,phase_1,,,,,,,,,,,,,blue,cross
1313.0,4.0,4.0,0.0,3.0,3.0,303.5669839999855,2.0,1.0,phase_1,,,,,,,,,,,,,green,triangle
0.0,8.0,0.0,1.0,4.0,4.0,320.5770779999284,2.0,1.0,phase_1,,,,,,,,,,,,,cyan,I
0.0,8.0,0.0,1.0,4.0,4.0,296.7675780000718,2.0,1.0,phase_1,,,,,,,,,,,,,cyan,I
0.0,6.0,0.0,1.0,1.0,1.0,572.0219559999578,2.0,1.0,phase_1,,,,,,,,,,,,,blue,cross
323.0,2.0,1.0,0.0,3.0,3.0,592.3791709999477,2.0,1.0,phase_1,,,,,,,,,,,,,yellow,circle
1283.0,8.0,4.0,1.0,2.0,2.0,400.8689189998904,2.0,1.0,phase_1,,,,,,,,,,,,,cyan,I
166.0,5.0,0.5,1.0,4.0,4.0,399.6379709999473,2.0,1.0,phase_1,,,,,,,,,,,,,magenta,diamond
318.0,2.0,1.0,0.0,3.0,3.0,335.6120350000537,2.0,1.0,phase_1,,,,,,,,,,,,,yellow,circle
162.0,5.0,0.5,1.0,2.0,2.0,373.5303629999862,2.0,1.0,phase_1,,,,,,,,,,,,,magenta,diamond
0.0,8.0,0.0,1.0,1.0,1.0,363.0964969999013,2.0,1.0,phase_1,,,,,,,,,,,,,cyan,I
0.0,2.0,0.0,0.0,1.0,1.0,427.8764910000063,2.0,1.0,phase_1,,,,,,,,,,,,,yellow,circle
653.0,3.0,2.0,0.0,3.0,3.0,373.1100620000234,2.0,1.0,phase_1,,,,,,,,,,,,,white,flipped triangle
183.0,1.0,0.5,0.0,2.0,2.0,362.2222209999108,2.0,1.0,phase_1,,,,,,,,,,,,,orange,hexagon
328.0,6.0,1.0,1.0,2.0,2.0,520.0484569999162,2.0,1.0,phase_1,,,,,,,,,,,,,blue,cross
1295.0,4.0,4.0,0.0,2.0,2.0,342.5669519999701,2.0,1.0,phase_1,,,,,,,,,,,,,green,triangle
627.0,7.0,2.0,1.0,1.0,1.0,401.8127379999896,2.0,1.0,phase_1,,,,,,,,,,,,,gray,square
155.0,1.0,0.5,0.0,3.0,3.0,510.3589560000046,2.0,1.0,phase_1,,,,,,,,,,,,,orange,hexagon
171.0,1.0,0.5,0.0,4.0,4.0,445.3777669999681,2.0,1.0,phase_1,,,,,,,,,,,,,orange,hexagon
0.0,4.0,0.0,0.0,2.0,2.0,420.4518559999997,2.0,1.0,phase_1,,,,,,,,,,,,,green,triangle
1294.0,8.0,4.0,1.0,1.0,1.0,381.5326330000061,2.0,1.0,phase_1,,,,,,,,,,,,,cyan,I
0.0,8.0,0.0,1.0,2.0,2.0,319.7810350000054,2.0,1.0,phase_1,,,,,,,,,,,,,cyan,I
0.0,8.0,0.0,1.0,3.0,3.0,428.8046970000323,2.0,1.0,phase_1,,,,,,,,,,,,,cyan,I
0.0,3.0,0.0,0.0,4.0,4.0,412.5735269999495,2.0,1.0,phase_1,,,,,,,,,,,,,white,flipped triangle
342.0,6.0,1.0,1.0,2.0,2.0,412.1839029999137,2.0,1.0,phase_1,,,,,,,,,,,,,blue,cross
1301.0,4.0,4.0,0.0,1.0,1.0,432.5777440000138,2.0,1.0,phase_1,,,,,,,,,,,,,green,triangle
653.0,7.0,2.0,1.0,1.0,1.0,462.0796820000805,2.0,1.0,phase_1,,,,,,,,,,,,,gray,square
324.0,6.0,1.0,1.0,3.0,3.0,390.5392980000215,2.0,1.0,phase_1,,,,,,,,,,,,,blue,cross
1306.0,4.0,4.0,0.0,2.0,2.0,576.3800580000407,2.0,1.0,phase_1,,,,,,,,,,,,,green,triangle
162.0,5.0,0.5,1.0,4.0,4.0,468.2062030000224,2.0,1.0,phase_1,,,,,,,,,,,,,magenta,diamond
1279.0,8.0,4.0,1.0,2.0,2.0,346.5052789999845,2.0,1.0,phase_1,,,,,,,,,,,,,cyan,I
0.0,1.0,0.0,0.0,2.0,2.0,428.7417480001068,2.0,1.0,phase_1,,,,,,,,,,,,,orange,hexagon
341.0,6.0,1.0,1.0,2.0,2.0,335.930572000052,2.0,1.0,phase_1,,,,,,,,,,,,,blue,cross
636.0,3.0,2.0,0.0,4.0,4.0,340.3467769999224,2.0,1.0,phase_1,,,,,,,,,,,,,white,flipped triangle
1319.0,8.0,4.0,1.0,3.0,3.0,482.3295249999546,2.0,1.0,phase_1,,,,,,,,,,,,,cyan,I
339.0,6.0,1.0,1.0,4.0,4.0,317.7783810000392,2.0,1.0,phase_1,,,,,,,,,,,,,blue,cross
1290.0,8.0,4.0,1.0,1.0,1.0,348.378356000012,2.0,1.0,phase_1,,,,,,,,,,,,,cyan,I
148.0,5.0,0.5,1.0,1.0,1.0,356.7309920000525,2.0,1.0,phase_1,,,,,,,,,,,,,magenta,diamond
652.0,7.0,2.0,1.0,2.0,2.0,380.6114430000207,2.0,1.0,phase_1,,,,,,,,,,,,,gray,square
166.0,5.0,0.5,1.0,3.0,3.0,353.8373180000462,2.0,1.0,phase_1,,,,,,,,,,,,,magenta,diamond
0.0,7.0,0.0,1.0,3.0,3.0,387.9475730000195,2.0,1.0,phase_1,,,,,,,,,,,,,gray,square
166.0,1.0,0.5,0.0,3.0,3.0,428.5303090000525,2.0,1.0,phase_1,,,,,,,,,,,,,orange,hexagon
161.0,1.0,0.5,0.0,1.0,1.0,446.599980999963,2.0,1.0,phase_1,,,,,,,,,,,,,orange,hexagon
638.0,7.0,2.0,1.0,1.0,1.0,382.3705400000108,2.0,1.0,phase_1,,,,,,,,,,,,,gray,square
174.0,5.0,0.5,1.0,3.0,3.0,541.5510660000109,2.0,1.0,phase_1,,,,,,,,,,,,,magenta,diamond
0.0,6.0,0.0,1.0,1.0,1.0,483.9008320000175,2.0,1.0,phase_1,,,,,,,,,,,,,blue,cross
160.0,5.0,0.5,1.0,3.0,3.0,408.5523500000363,2.0,1.0,phase_1,,,,,,,,,,,,,magenta,diamond
0.0,3.0,0.0,0.0,1.0,1.0,400.9373110000069,2.0,1.0,phase_1,,,,,,,,,,,,,white,flipped triangle
0.0,5.0,0.0,1.0,3.0,3.0,382.8455279999616,2.0,1.0,phase_1,,,,,,,,,,,,,magenta,diamond
672.0,3.0,2.0,0.0,4.0,4.0,370.3816639999786,2.0,1.0,phase_1,,,,,,,,,,,,,white,flipped triangle
0.0,4.0,0.0,0.0,1.0,1.0,334.8788429999558,2.0,1.0,phase_1,,,,,,,,,,,,,green,triangle
172.0,1.0,0.5,0.0,3.0,3.0,419.5912110000108,2.0,1.0,phase_1,,,,,,,,,,,,,orange,hexagon
318.0,6.0,1.0,1.0,4.0,4.0,390.6381939999619,2.0,1.0,phase_1,,,,,,,,,,,,,blue,cross
306.0,6.0,1.0,1.0,3.0,3.0,501.2349300000096,2.0,1.0,phase_1,,,,,,,,,,,,,blue,cross
328.0,2.0,1.0,0.0,2.0,2.0,420.2462660000492,2.0,1.0,phase_1,,,,,,,,,,,,,yellow,circle
0.0,8.0,0.0,1.0,4.0,4.0,393.5414629999059,2.0,1.0,phase_1,,,,,,,,,,,,,cyan,I
343.0,2.0,1.0,0.0,4.0,4.0,357.4612230000866,2.0,2.0,phase_1,,,,,,,,,,,,,yellow,circle
1289.0,8.0,4.0,1.0,2.0,2.0,480.8288589999847,2.0,1.0,phase_1,,,,,,,,,,,,,cyan,I
1317.0,4.0,4.0,0.0,2.0,2.0,371.5625870000849,2.0,1.0,phase_1,,,,,,,,,,,,,green,triangle
0.0,1.0,0.0,0.0,2.0,2.0,393.3585940000057,2.0,1.0,phase_1,,,,,,,,,,,,,orange,hexagon
1286.0,8.0,4.0,1.0,3.0,3.0,364.5589190000464,2.0,1.0,phase_1,,,,,,,,,,,,,cyan,I
184.0,5.0,0.5,1.0,4.0,4.0,346.9243160000133,2.0,1.0,phase_1,,,,,,,,,,,,,magenta,diamond
152.0,5.0,0.5,1.0,2.0,2.0,393.1917080000175,2.0,1.0,phase_1,,,,,,,,,,,,,magenta,diamond
672.0,7.0,2.0,1.0,1.0,1.0,411.0710499999186,2.0,1.0,phase_1,,,,,,,,,,,,,gray,square
334.0,6.0,1.0,1.0,1.0,1.0,372.4975699999504,2.0,1.0,phase_1,,,,,,,,,,,,,blue,cross
1290.0,8.0,4.0,1.0,1.0,1.0,376.0075029999825,2.0,1.0,phase_1,,,,,,,,,,,,,cyan,I
1294.0,4.0,4.0,0.0,2.0,2.0,410.7405790000484,2.0,1.0,phase_1,,,,,,,,,,,,,green,triangle
1280.0,8.0,4.0,1.0,2.0,2.0,299.3591619999733,2.0,1.0,phase_1,,,,,,,,,,,,,cyan,I
139.0,1.0,0.5,0.0,2.0,2.0,325.9556250000059,2.0,1.0,phase_1,,,,,,,,,,,,,orange,hexagon
0.0,4.0,0.0,0.0,3.0,3.0,355.0928019999446,2.0,1.0,phase_1,,,,,,,,,,,,,green,triangle
0.0,1.0,0.0,0.0,2.0,2.0,393.851169999948,2.0,1.0,phase_1,,,,,,,,,,,,,orange,hexagon
338.0,2.0,1.0,0.0,2.0,2.0,300.8475340000132,2.0,1.0,phase_1,,,,,,,,,,,,,yellow,circle
141.0,1.0,0.5,0.0,2.0,2.0,335.2721969999948,2.0,1.0,phase_1,,,,,,,,,,,,,orange,hexagon
0.0,8.0,0.0,1.0,3.0,3.0,409.1269639999382,2.0,1.0,phase_1,,,,,,,,,,,,,cyan,I
0.0,2.0,0.0,0.0,3.0,3.0,376.0778500000015,2.0,1.0,phase_1,,,,,,,,,,,,,yellow,circle
312.0,6.0,1.0,1.0,1.0,1.0,597.3375979999673,2.0,1.0,phase_1,,,,,,,,,,,,,blue,cross
1322.0,4.0,4.0,0.0,1.0,1.0,432.6578679999784,3.0,1.0,phase_1,,,,,,,,,,,,,green,triangle
315.0,6.0,1.0,1.0,1.0,1.0,346.0433010000088,3.0,1.0,phase_1,,,,,,,,,,,,,blue,cross
654.0,7.0,2.0,1.0,4.0,4.0,385.8803910000006,3.0,1.0,phase_1,,,,,,,,,,,,,gray,square
348.0,6.0,1.0,1.0,1.0,1.0,419.6313969999892,3.0,1.0,phase_1,,,,,,,,,,,,,blue,cross
675.0,3.0,2.0,0.0,4.0,4.0,385.0133509999978,3.0,1.0,phase_1,,,,,,,,,,,,,white,flipped triangle
625.0,3.0,2.0,0.0,4.0,4.0,363.7709889999314,3.0,1.0,phase_1,,,,,,,,,,,,,white,flipped triangle
148.0,1.0,0.5,0.0,1.0,1.0,319.2307360000086,3.0,1.0,phase_1,,,,,,,,,,,,,orange,hexagon
334.0,2.0,1.0,0.0,1.0,1.0,339.9711719999914,3.0,1.0,phase_1,,,,,,,,,,,,,yellow,circle
176.0,5.0,0.5,1.0,2.0,2.0,402.923966000003,3.0,1.0,phase_1,,,,,,,,,,,,,magenta,diamond
1278.0,8.0,4.0,1.0,2.0,2.0,344.1888099999914,3.0,1.0,phase_1,,,,,,,,,,,,,cyan,I
1322.0,8.0,4.0,1.0,1.0,1.0,384.2284649999783,3.0,1.0,phase_1,,,,,,,,,,,,,cyan,I
0.0,5.0,0.0,1.0,2.0,2.0,314.4123619999845,3.0,1.0,phase_1,,,,,,,,,,,,,magenta,diamond
304.0,2.0,1.0,0.0,1.0,1.0,327.3330220000616,3.0,1.0,phase_1,,,,,,,,,,,,,yellow,circle
340.0,6.0,1.0,1.0,4.0,4.0,338.5179640000615,3.0,1.0,phase_1,,,,,,,,,,,,,blue,cross
0.0,2.0,0.0,0.0,1.0,1.0,347.4208430000089,3.0,1.0,phase_1,,,,,,,,,,,,,yellow,circle
1280.0,4.0,4.0,0.0,4.0,4.0,377.0955999999614,3.0,1.0,phase_1,,,,,,,,,,,,,green,triangle
0.0,4.0,0.0,0.0,2.0,2.0,384.4363289999819,3.0,1.0,phase_1,,,,,,,,,,,,,green,triangle
633.0,7.0,2.0,1.0,2.0,2.0,356.7200710000406,3.0,1.0,phase_1,,,,,,,,,,,,,gray,square
344.0,6.0,1.0,1.0,1.0,1.0,336.5602369999578,3.0,1.0,phase_1,,,,,,,,,,,,,blue,cross
334.0,6.0,1.0,1.0,3.0,3.0,368.3544289999645,3.0,1.0,phase_1,,,,,,,,,,,,,blue,cross
149.0,5.0,0.5,1.0,3.0,3.0,368.0347970000639,3.0,1.0,phase_1,,,,,,,,,,,,,magenta,diamond
1287.0,8.0,4.0,1.0,2.0,2.0,385.6747820000237,3.0,1.0,phase_1,,,,,,,,,,,,,cyan,I
302.0,2.0,1.0,0.0,1.0,1.0,367.7063990000988,3.0,1.0,phase_1,,,,,,,,,,,,,yellow,circle
302.0,2.0,1.0,0.0,4.0,4.0,338.0303080000431,3.0,1.0,phase_1,,,,,,,,,,,,,yellow,circle
141.0,5.0,0.5,1.0,4.0,4.0,405.9983659999489,3.0,1.0,phase_1,,,,,,,,,,,,,magenta,diamond
1311.0,4.0,4.0,0.0,3.0,3.0,385.4295779999575,3.0,1.0,phase_1,,,,,,,,,,,,,green,triangle
1278.0,4.0,4.0,0.0,4.0,4.0,328.8768699999309,3.0,1.0,phase_1,,,,,,,,,,,,,green,triangle
184.0,1.0,0.5,0.0,2.0,2.0,411.7331859999922,3.0,1.0,phase_1,,,,,,,,,,,,,orange,hexagon
141.0,5.0,0.5,1.0,1.0,1.0,298.8354859999163,3.0,1.0,phase_1,,,,,,,,,,,,,magenta,diamond
0.0,2.0,0.0,0.0,4.0,4.0,375.746331000073,3.0,1.0,phase_1,,,,,,,,,,,,,yellow,circle
0.0,6.0,0.0,1.0,3.0,3.0,417.6071389999833,3.0,1.0,phase_1,,,,,,,,,,,,,blue,cross
649.0,3.0,2.0,0.0,4.0,4.0,373.5322279999309,3.0,1.0,phase_1,,,,,,,,,,,,,white,flipped triangle
169.0,5.0,0.5,1.0,4.0,4.0,309.1937469999948,3.0,1.0,phase_1,,,,,,,,,,,,,magenta,diamond
152.0,1.0,0.5,0.0,1.0,1.0,494.8153289999482,3.0,1.0,phase_1,,,,,,,,,,,,,orange,hexagon
1311.0,8.0,4.0,1.0,4.0,4.0,392.0339779999722,3.0,1.0,phase_1,,,,,,,,,,,,,cyan,I
0.0,4.0,0.0,0.0,1.0,1.0,477.0517750000635,3.0,1.0,phase_1,,,,,,,,,,,,,green,triangle
146.0,1.0,0.5,0.0,1.0,1.0,420.9385290000682,3.0,1.0,phase_1,,,,,,,,,,,,,orange,hexagon
156.0,5.0,0.5,1.0,1.0,1.0,496.9109419999995,3.0,1.0,phase_1,,,,,,,,,,,,,magenta,diamond
139.0,5.0,0.5,1.0,2.0,2.0,664.6563049999941,3.0,1.0,phase_1,,,,,,,,,,,,,magenta,diamond
1279.0,4.0,4.0,0.0,2.0,2.0,423.5419469999897,3.0,1.0,phase_1,,,,,,,,,,,,,green,triangle
341.0,6.0,1.0,1.0,4.0,4.0,383.6350710000715,3.0,1.0,phase_1,,,,,,,,,,,,,blue,cross
157.0,5.0,0.5,1.0,4.0,4.0,366.1380610000151,3.0,1.0,phase_1,,,,,,,,,,,,,magenta,diamond
0.0,5.0,0.0,1.0,1.0,1.0,357.5771370000211,3.0,1.0,phase_1,,,,,,,,,,,,,magenta,diamond
156.0,1.0,0.5,0.0,4.0,4.0,487.4025970000275,3.0,1.0,phase_1,,,,,,,,,,,,,orange,hexagon
1299.0,8.0,4.0,1.0,4.0,4.0,319.3295399998987,3.0,1.0,phase_1,,,,,,,,,,,,,cyan,I
332.0,2.0,1.0,0.0,4.0,4.0,376.5500419999625,3.0,1.0,phase_1,,,,,,,,,,,,,yellow,circle
1284.0,8.0,4.0,1.0,3.0,3.0,395.0392259999944,3.0,1.0,phase_1,,,,,,,,,,,,,cyan,I
160.0,1.0,0.5,0.0,2.0,2.0,410.8448849999604,3.0,1.0,phase_1,,,,,,,,,,,,,orange,hexagon
172.0,5.0,0.5,1.0,2.0,2.0,488.7985850000405,3.0,1.0,phase_1,,,,,,,,,,,,,magenta,diamond
626.0,3.0,2.0,0.0,3.0,3.0,389.8664040000312,3.0,1.0,phase_1,,,,,,,,,,,,,white,flipped triangle
0.0,5.0,0.0,1.0,3.0,3.0,356.7271809999965,3.0,1.0,phase_1,,,,,,,,,,,,,magenta,diamond
631.0,7.0,2.0,1.0,4.0,4.0,381.3566409999112,3.0,1.0,phase_1,,,,,,,,,,,,,gray,square
341.0,2.0,1.0,0.0,4.0,4.0,479.5307150000099,3.0,1.0,phase_1,,,,,,,,,,,,,yellow,circle
176.0,1.0,0.5,0.0,1.0,1.0,476.4553149999528,3.0,1.0,phase_1,,,,,,,,,,,,,orange,hexagon
340.0,2.0,1.0,0.0,3.0,3.0,558.1511630000477,3.0,1.0,phase_1,,,,,,,,,,,,,yellow,circle
634.0,3.0,2.0,0.0,3.0,3.0,412.8114889999779,3.0,1.0,phase_1,,,,,,,,,,,,,white,flipped triangle
319.0,2.0,1.0,0.0,3.0,3.0,452.1710760000133,3.0,1.0,phase_1,,,,,,,,,,,,,yellow,circle
0.0,7.0,0.0,1.0,2.0,2.0,429.8166319999836,3.0,1.0,phase_1,,,,,,,,,,,,,gray,square
643.0,7.0,2.0,1.0,3.0,3.0,383.5731540000324,3.0,1.0,phase_1,,,,,,,,,,,,,gray,square
0.0,6.0,0.0,1.0,4.0,4.0,375.265564999836,3.0,1.0,phase_1,,,,,,,,,,,,,blue,cross
321.0,2.0,1.0,0.0,4.0,4.0,384.3992679999246,3.0,1.0,phase_1,,,,,,,,,,,,,yellow,circle
345.0,6.0,1.0,1.0,4.0,4.0,375.5616780001674,3.0,1.0,phase_1,,,,,,,,,,,,,blue,cross
183.0,5.0,0.5,1.0,3.0,3.0,375.34919299992,3.0,1.0,phase_1,,,,,,,,,,,,,magenta,diamond
626.0,7.0,2.0,1.0,4.0,4.0,531.2989960000323,3.0,1.0,phase_1,,,,,,,,,,,,,gray,square
177.0,5.0,0.5,1.0,1.0,1.0,392.4347909999142,3.0,1.0,phase_1,,,,,,,,,,,,,magenta,diamond
146.0,1.0,0.5,0.0,1.0,1.0,409.5208989999719,3.0,1.0,phase_1,,,,,,,,,,,,,orange,hexagon
339.0,2.0,1.0,0.0,4.0,4.0,394.0050429998791,3.0,1.0,phase_1,,,,,,,,,,,,,yellow,circle
0.0,1.0,0.0,0.0,1.0,1.0,383.8140650000241,3.0,1.0,phase_1,,,,,,,,,,,,,orange,hexagon
625.0,7.0,2.0,1.0,1.0,1.0,493.4467489999861,3.0,1.0,phase_1,,,,,,,,,,,,,gray,square
628.0,3.0,2.0,0.0,2.0,2.0,466.5957289998914,3.0,1.0,phase_1,,,,,,,,,,,,,white,flipped triangle
329.0,2.0,1.0,0.0,1.0,1.0,561.7536710001332,3.0,1.0,phase_1,,,,,,,,,,,,,yellow,circle
153.0,5.0,0.5,1.0,2.0,2.0,363.7643409999782,3.0,1.0,phase_1,,,,,,,,,,,,,magenta,diamond
342.0,2.0,1.0,0.0,3.0,3.0,421.3296450000143,3.0,1.0,phase_1,,,,,,,,,,,,,yellow,circle
0.0,7.0,0.0,1.0,1.0,1.0,353.7996169998223,3.0,1.0,phase_1,,,,,,,,,,,,,gray,square
0.0,4.0,0.0,0.0,1.0,1.0,343.4608170000501,3.0,1.0,phase_1,,,,,,,,,,,,,green,triangle
1296.0,8.0,4.0,1.0,4.0,4.0,494.1141500000867,3.0,1.0,phase_1,,,,,,,,,,,,,cyan,I
644.0,7.0,2.0,1.0,2.0,2.0,483.3941960000629,3.0,1.0,phase_1,,,,,,,,,,,,,gray,square
177.0,1.0,0.5,0.0,3.0,3.0,448.6923560000377,3.0,1.0,phase_1,,,,,,,,,,,,,orange,hexagon
307.0,6.0,1.0,1.0,4.0,4.0,438.4256660000574,3.0,1.0,phase_1,,,,,,,,,,,,,blue,cross
1322.0,4.0,4.0,0.0,1.0,1.0,345.0226840000141,3.0,1.0,phase_1,,,,,,,,,,,,,green,triangle
344.0,2.0,1.0,0.0,3.0,3.0,383.5584390001259,3.0,1.0,phase_1,,,,,,,,,,,,,yellow,circle
1297.0,4.0,4.0,0.0,3.0,3.0,346.815018000143,3.0,1.0,phase_1,,,,,,,,,,,,,green,triangle
139.0,1.0,0.5,0.0,3.0,3.0,328.7475140000424,3.0,1.0,phase_1,,,,,,,,,,,,,orange,hexagon
1295.0,8.0,4.0,1.0,3.0,3.0,446.5838749999875,3.0,1.0,phase_1,,,,,,,,,,,,,cyan,I
346.0,6.0,1.0,1.0,3.0,3.0,287.9044260000682,3.0,1.0,phase_1,,,,,,,,,,,,,blue,cross
162.0,1.0,0.5,0.0,4.0,4.0,310.1000060000842,3.0,1.0,phase_1,,,,,,,,,,,,,orange,hexagon
0.0,5.0,0.0,1.0,2.0,2.0,701.1974189999819,3.0,1.0,phase_1,,,,,,,,,,,,,magenta,diamond
627.0,3.0,2.0,0.0,2.0,2.0,419.5843159998276,3.0,1.0,phase_1,,,,,,,,,,,,,white,flipped triangle
1280.0,4.0,4.0,0.0,2.0,2.0,366.0714430000098,3.0,1.0,phase_1,,,,,,,,,,,,,green,triangle
657.0,7.0,2.0,1.0,1.0,1.0,362.6082809998934,3.0,1.0,phase_1,,,,,,,,,,,,,gray,square
1321.0,8.0,4.0,1.0,1.0,1.0,451.8621099998654,3.0,1.0,phase_1,,,,,,,,,,,,,cyan,I
647.0,7.0,2.0,1.0,3.0,3.0,430.0979730001018,3.0,1.0,phase_1,,,,,,,,,,,,,gray,square
338.0,6.0,1.0,1.0,2.0,2.0,321.27585000012,3.0,1.0,phase_1,,,,,,,,,,,,,blue,cross
346.0,2.0,1.0,0.0,2.0,2.0,280.5967839999539,3.0,1.0,phase_1,,,,,,,,,,,,,yellow,circle
331.0,6.0,1.0,1.0,4.0,4.0,433.0903810000563,3.0,1.0,phase_1,,,,,,,,,,,,,blue,cross
644.0,3.0,2.0,0.0,2.0,2.0,533.5526789999676,3.0,1.0,phase_1,,,,,,,,,,,,,white,flipped triangle
161.0,5.0,0.5,1.0,3.0,3.0,495.161607,3.0,1.0,phase_1,,,,,,,,,,,,,magenta,diamond
1286.0,4.0,4.0,0.0,1.0,1.0,382.633659000021,3.0,1.0,phase_1,,,,,,,,,,,,,green,triangle
1322.0,4.0,4.0,0.0,4.0,4.0,571.1494859999675,3.0,1.0,phase_1,,,,,,,,,,,,,green,triangle
343.0,6.0,1.0,1.0,1.0,1.0,334.7637629999553,3.0,1.0,phase_1,,,,,,,,,,,,,blue,cross
328.0,2.0,1.0,0.0,1.0,1.0,279.0683979999357,4.0,1.0,phase_1,,,,,,,,,,,,,yellow,circle
0.0,3.0,0.0,0.0,4.0,4.0,357.782170000064,4.0,1.0,phase_1,,,,,,,,,,,,,white,flipped triangle
157.0,1.0,0.5,0.0,1.0,1.0,365.9262040000612,4.0,1.0,phase_1,,,,,,,,,,,,,orange,hexagon
647.0,3.0,2.0,0.0,4.0,4.0,363.8399479998497,4.0,1.0,phase_1,,,,,,,,,,,,,white,flipped triangle
0.0,8.0,0.0,1.0,1.0,1.0,366.2509099999624,4.0,1.0,phase_1,,,,,,,,,,,,,cyan,I
319.0,6.0,1.0,1.0,4.0,4.0,308.8818700000502,4.0,1.0,phase_1,,,,,,,,,,,,,blue,cross
672.0,7.0,2.0,1.0,2.0,2.0,298.4837999999854,4.0,1.0,phase_1,,,,,,,,,,,,,gray,square
1297.0,8.0,4.0,1.0,1.0,1.0,356.3909409999723,4.0,1.0,phase_1,,,,,,,,,,,,,cyan,I
0.0,3.0,0.0,0.0,3.0,3.0,318.7826670000504,4.0,1.0,phase_1,,,,,,,,,,,,,white,flipped triangle
639.0,3.0,2.0,0.0,1.0,1.0,394.5935059998646,4.0,1.0,phase_1,,,,,,,,,,,,,white,flipped triangle
0.0,3.0,0.0,0.0,1.0,1.0,382.2656529998767,4.0,1.0,phase_1,,,,,,,,,,,,,white,flipped triangle
0.0,2.0,0.0,0.0,2.0,2.0,367.2226400001364,4.0,1.0,phase_1,,,,,,,,,,,,,yellow,circle
661.0,3.0,2.0,0.0,2.0,2.0,298.8197110000783,4.0,1.0,phase_1,,,,,,,,,,,,,white,flipped triangle
0.0,6.0,0.0,1.0,4.0,4.0,403.7237960001221,4.0,1.0,phase_1,,,,,,,,,,,,,blue,cross
1322.0,8.0,4.0,1.0,3.0,3.0,589.0627679998488,4.0,1.0,phase_1,,,,,,,,,,,,,cyan,I
319.0,6.0,1.0,1.0,4.0,4.0,533.5146919999261,4.0,1.0,phase_1,,,,,,,,,,,,,blue,cross
647.0,3.0,2.0,0.0,1.0,1.0,381.2617260000479,4.0,1.0,phase_1,,,,,,,,,,,,,white,flipped triangle
1311.0,4.0,4.0,0.0,2.0,2.0,280.8480680000684,4.0,1.0,phase_1,,,,,,,,,,,,,green,triangle
0.0,4.0,0.0,0.0,4.0,4.0,314.8331129998496,4.0,1.0,phase_1,,,,,,,,,,,,,green,triangle
155.0,5.0,0.5,1.0,1.0,1.0,478.772872999798,4.0,1.0,phase_1,,,,,,,,,,,,,magenta,diamond
306.0,2.0,1.0,0.0,4.0,4.0,429.7675669999989,4.0,1.0,phase_1,,,,,,,,,,,,,yellow,circle
150.0,1.0,0.5,0.0,1.0,1.0,291.4661709999109,4.0,1.0,phase_1,,,,,,,,,,,,,orange,hexagon
647.0,7.0,2.0,1.0,2.0,2.0,365.6870030001755,4.0,1.0,phase_1,,,,,,,,,,,,,gray,square
1307.0,4.0,4.0,0.0,3.0,3.0,363.2211699998606,4.0,1.0,phase_1,,,,,,,,,,,,,green,triangle
665.0,7.0,2.0,1.0,3.0,3.0,439.661469999919,4.0,1.0,phase_1,,,,,,,,,,,,,gray,square
638.0,3.0,2.0,0.0,1.0,1.0,347.2497980001208,4.0,1.0,phase_1,,,,,,,,,,,,,white,flipped triangle
319.0,6.0,1.0,1.0,1.0,1.0,359.0177600001425,4.0,1.0,phase_1,,,,,,,,,,,,,blue,cross
0.0,4.0,0.0,0.0,2.0,2.0,355.6010830000105,4.0,1.0,phase_1,,,,,,,,,,,,,green,triangle
0.0,8.0,0.0,1.0,3.0,3.0,348.1235740000556,4.0,1.0,phase_1,,,,,,,,,,,,,cyan,I
152.0,5.0,0.5,1.0,2.0,2.0,355.1369930000874,4.0,1.0,phase_1,,,,,,,,,,,,,magenta,diamond
160.0,1.0,0.5,0.0,4.0,4.0,329.9851199999466,4.0,1.0,phase_1,,,,,,,,,,,,,orange,hexagon
0.0,7.0,0.0,1.0,3.0,3.0,406.4532270001564,4.0,1.0,phase_1,,,,,,,,,,,,,gray,square
652.0,3.0,2.0,0.0,1.0,1.0,427.8026580000187,4.0,1.0,phase_1,,,,,,,,,,,,,white,flipped triangle
303.0,2.0,1.0,0.0,1.0,1.0,571.5651250000064,4.0,1.0,phase_1,,,,,,,,,,,,,yellow,circle
1275.0,4.0,4.0,0.0,2.0,2.0,338.4172690000468,4.0,1.0,phase_1,,,,,,,,,,,,,green,triangle
186.0,5.0,0.5,1.0,3.0,3.0,280.8206659999541,4.0,1.0,phase_1,,,,,,,,,,,,,magenta,diamond
335.0,2.0,1.0,0.0,1.0,1.0,337.2726659999898,4.0,1.0,phase_1,,,,,,,,,,,,,yellow,circle
1315.0,8.0,4.0,1.0,2.0,2.0,353.7026190001597,4.0,1.0,phase_1,,,,,,,,,,,,,cyan,I
1311.0,8.0,4.0,1.0,3.0,3.0,395.1897509998616,4.0,1.0,phase_1,,,,,,,,,,,,,cyan,I
1289.0,8.0,4.0,1.0,4.0,4.0,450.2803310001582,4.0,1.0,phase_1,,,,,,,,,,,,,cyan,I
173.0,1.0,0.5,0.0,1.0,1.0,344.6120900000551,4.0,1.0,phase_1,,,,,,,,,,,,,orange,hexagon
1321.0,4.0,4.0,0.0,1.0,1.0,441.2214310000308,4.0,1.0,phase_1,,,,,,,,,,,,,green,triangle
309.0,6.0,1.0,1.0,3.0,3.0,402.6083820001531,4.0,1.0,phase_1,,,,,,,,,,,,,blue,cross
1282.0,4.0,4.0,0.0,3.0,3.0,358.1707460000416,4.0,1.0,phase_1,,,,,,,,,,,,,green,triangle
1307.0,8.0,4.0,1.0,4.0,4.0,423.2906269999148,4.0,1.0,phase_1,,,,,,,,,,,,,cyan,I
1289.0,4.0,4.0,0.0,3.0,3.0,359.9105309999686,4.0,1.0,phase_1,,,,,,,,,,,,,green,triangle
1290.0,4.0,4.0,0.0,3.0,3.0,321.7108069998176,4.0,1.0,phase_1,,,,,,,,,,,,,green,triangle
324.0,2.0,1.0,0.0,4.0,4.0,851.8983530000241,4.0,1.0,phase_1,,,,,,,,,,,,,yellow,circle
303.0,6.0,1.0,1.0,1.0,1.0,449.9114420000296,4.0,1.0,phase_1,,,,,,,,,,,,,blue,cross
656.0,3.0,2.0,0.0,1.0,1.0,402.0677620001152,4.0,1.0,phase_1,,,,,,,,,,,,,white,flipped triangle
173.0,5.0,0.5,1.0,3.0,3.0,282.3728949999804,4.0,1.0,phase_1,,,,,,,,,,,,,magenta,diamond
0.0,5.0,0.0,1.0,1.0,1.0,350.3509339998345,4.0,2.0,phase_1,,,,,,,,,,,,,magenta,diamond
177.0,5.0,0.5,1.0,3.0,3.0,396.3214230000176,4.0,1.0,phase_1,,,,,,,,,,,,,magenta,diamond
637.0,3.0,2.0,0.0,3.0,3.0,469.3393390000437,4.0,1.0,phase_1,,,,,,,,,,,,,white,flipped triangle
1282.0,8.0,4.0,1.0,4.0,4.0,364.4775570001002,4.0,1.0,phase_1,,,,,,,,,,,,,cyan,I
672.0,3.0,2.0,0.0,2.0,2.0,441.3921589998608,4.0,1.0,phase_1,,,,,,,,,,,,,white,flipped triangle
0.0,1.0,0.0,0.0,1.0,1.0,440.3376840000419,4.0,1.0,phase_1,,,,,,,,,,,,,orange,hexagon
177.0,1.0,0.5,0.0,4.0,4.0,454.3016709999392,4.0,1.0,phase_1,,,,,,,,,,,,,orange,hexagon
1287.0,4.0,4.0,0.0,4.0,4.0,347.9922040000929,4.0,1.0,phase_1,,,,,,,,,,,,,green,triangle
341.0,2.0,1.0,0.0,3.0,3.0,375.8223299998917,4.0,1.0,phase_1,,,,,,,,,,,,,yellow,circle
1319.0,4.0,4.0,0.0,2.0,2.0,766.7261359999884,4.0,1.0,phase_1,,,,,,,,,,,,,green,triangle
152.0,1.0,0.5,0.0,3.0,3.0,474.1374430000178,4.0,1.0,phase_1,,,,,,,,,,,,,orange,hexagon
142.0,1.0,0.5,0.0,3.0,3.0,365.9507180000219,4.0,1.0,phase_1,,,,,,,,,,,,,orange,hexagon
0.0,3.0,0.0,0.0,3.0,3.0,474.3335990001469,4.0,1.0,phase_1,,,,,,,,,,,,,white,flipped triangle
1313.0,8.0,4.0,1.0,4.0,4.0,927.9466109999248,4.0,1.0,phase_1,,,,,,,,,,,,,cyan,I
661.0,7.0,2.0,1.0,2.0,2.0,488.7811759999749,4.0,1.0,phase_1,,,,,,,,,,,,,gray,square
1289.0,4.0,4.0,0.0,4.0,4.0,483.5868819998268,4.0,1.0,phase_1,,,,,,,,,,,,,green,triangle
1319.0,8.0,4.0,1.0,4.0,4.0,740.3795340001125,4.0,1.0,phase_1,,,,,,,,,,,,,cyan,I
643.0,3.0,2.0,0.0,2.0,2.0,401.8504460000258,4.0,1.0,phase_1,,,,,,,,,,,,,white,flipped triangle
139.0,5.0,0.5,1.0,4.0,4.0,394.3580070001644,4.0,1.0,phase_1,,,,,,,,,,,,,magenta,diamond
0.0,4.0,0.0,0.0,3.0,3.0,465.0596669998776,4.0,1.0,phase_1,,,,,,,,,,,,,green,triangle
649.0,7.0,2.0,1.0,3.0,3.0,409.0318010000828,4.0,1.0,phase_1,,,,,,,,,,,,,gray,square
1283.0,4.0,4.0,0.0,4.0,4.0,889.7170769998866,4.0,1.0,phase_1,,,,,,,,,,,,,green,triangle
182.0,5.0,0.5,1.0,1.0,1.0,373.9073350000126,4.0,1.0,phase_1,,,,,,,,,,,,,magenta,diamond
154.0,1.0,0.5,0.0,2.0,2.0,377.1297370001321,4.0,1.0,phase_1,,,,,,,,,,,,,orange,hexagon
1280.0,8.0,4.0,1.0,1.0,1.0,469.3316679999952,4.0,1.0,phase_1,,,,,,,,,,,,,cyan,I
1311.0,4.0,4.0,0.0,1.0,1.0,376.5989440000794,4.0,1.0,phase_1,,,,,,,,,,,,,green,triangle
314.0,2.0,1.0,0.0,1.0,1.0,515.0669290001133,4.0,1.0,phase_1,,,,,,,,,,,,,yellow,circle
1275.0,8.0,4.0,1.0,2.0,2.0,488.5903700001108,4.0,1.0,phase_1,,,,,,,,,,,,,cyan,I
632.0,7.0,2.0,1.0,2.0,2.0,385.2978620000158,4.0,2.0,phase_1,,,,,,,,,,,,,gray,square
187.0,5.0,0.5,1.0,3.0,3.0,905.6656190000468,4.0,1.0,phase_1,,,,,,,,,,,,,magenta,diamond
0.0,1.0,0.0,0.0,1.0,1.0,780.6581910001569,4.0,1.0,phase_1,,,,,,,,,,,,,orange,hexagon
1301.0,8.0,4.0,1.0,2.0,2.0,429.1225670001495,4.0,1.0,phase_1,,,,,,,,,,,,,cyan,I
187.0,1.0,0.5,0.0,4.0,4.0,369.4137229999796,4.0,2.0,phase_1,,,,,,,,,,,,,orange,hexagon
647.0,3.0,2.0,0.0,1.0,1.0,356.8515880001541,4.0,1.0,phase_1,,,,,,,,,,,,,white,flipped triangle
663.0,3.0,2.0,0.0,1.0,1.0,411.2171429999307,4.0,1.0,phase_1,,,,,,,,,,,,,white,flipped triangle
657.0,3.0,2.0,0.0,1.0,1.0,356.1104170000817,4.0,1.0,phase_1,,,,,,,,,,,,,white,flipped triangle
1286.0,4.0,4.0,0.0,1.0,1.0,436.4635849999558,4.0,1.0,phase_1,,,,,,,,,,,,,green,triangle
182.0,1.0,0.5,0.0,2.0,2.0,509.7205120000581,4.0,1.0,phase_1,,,,,,,,,,,,,orange,hexagon
1317.0,4.0,4.0,0.0,1.0,1.0,350.0485980000576,4.0,1.0,phase_1,,,,,,,,,,,,,green,triangle
674.0,3.0,2.0,0.0,1.0,1.0,366.1574519999249,4.0,1.0,phase_1,,,,,,,,,,,,,white,flipped triangle
150.0,5.0,0.5,1.0,4.0,4.0,280.0671600000441,4.0,2.0,phase_1,,,,,,,,,,,,,magenta,diamond
1311.0,8.0,4.0,1.0,2.0,2.0,376.2748599999668,4.0,1.0,phase_1,,,,,,,,,,,,,cyan,I
0.0,1.0,0.0,0.0,4.0,4.0,505.1946200001112,4.0,1.0,phase_1,,,,,,,,,,,,,orange,hexagon
1286.0,8.0,4.0,1.0,4.0,4.0,413.0233210000824,4.0,1.0,phase_1,,,,,,,,,,,,,cyan,I
0.0,2.0,0.0,0.0,1.0,1.0,449.8113990000547,4.0,1.0,phase_1,,,,,,,,,,,,,yellow,circle
660.0,7.0,2.0,1.0,4.0,4.0,252.87568199996707,4.0,2.0,phase_1,,,,,,,,,,,,,gray,square
654.0,3.0,2.0,0.0,3.0,3.0,520.8910999999716,4.0,1.0,phase_1,,,,,,,,,,,,,white,flipped triangle
1317.0,8.0,4.0,1.0,3.0,3.0,859.3613620000724,4.0,1.0,phase_1,,,,,,,,,,,,,cyan,I
0.0,6.0,0.0,1.0,4.0,4.0,423.1877909999184,4.0,1.0,phase_1,,,,,,,,,,,,,blue,cross
0.0,7.0,2.0,1.0,6.0,0.0,0.0,1.0,1.0,phase_2,stop,250.0,250.0,4.0,,,,,,,,,gray,square
0.0,6.0,1.0,1.0,6.0,0.0,0.0,1.0,1.0,phase_2,stop,250.0,300.0,4.0,,,,,,,,,blue,cross
0.0,4.0,4.0,0.0,5.0,5.0,884.4484670000838,1.0,1.0,phase_2,go,250.0,350.0,1.0,,,,,,,,,green,triangle
0.0,3.0,2.0,0.0,5.0,5.0,766.1199310000484,1.0,1.0,phase_2,go,250.0,350.0,1.0,,,,,,,,,white,flipped triangle
0.0,5.0,0.5,1.0,6.0,0.0,0.0,1.0,1.0,phase_2,stop,250.0,350.0,4.0,,,,,,,,,magenta,diamond
0.0,5.0,0.5,1.0,6.0,6.0,840.1234690002184,1.0,1.0,phase_2,go,250.0,400.0,1.0,,,,,,,,,magenta,diamond
0.0,6.0,1.0,1.0,5.0,5.0,935.5830879999304,1.0,1.0,phase_2,go,250.0,400.0,1.0,,,,,,,,,blue,cross
0.0,3.0,2.0,0.0,6.0,6.0,926.2512860000244,1.0,1.0,phase_2,go,250.0,400.0,1.0,,,,,,,,,white,flipped triangle
0.0,1.0,0.5,0.0,5.0,5.0,974.2846139999984,1.0,1.0,phase_2,go,250.0,400.0,1.0,,,,,,,,,orange,hexagon
0.0,8.0,4.0,1.0,5.0,0.0,0.0,1.0,1.0,phase_2,stop,250.0,400.0,4.0,,,,,,,,,cyan,I
0.0,6.0,1.0,1.0,6.0,0.0,0.0,1.0,1.0,phase_2,stop,300.0,400.0,4.0,,,,,,,,,blue,cross
0.0,3.0,2.0,0.0,5.0,5.0,888.6290549999103,1.0,1.0,phase_2,go,300.0,450.0,1.0,,,,,,,,,white,flipped triangle
0.0,4.0,4.0,0.0,6.0,6.0,845.918619000031,1.0,1.0,phase_2,go,300.0,450.0,1.0,,,,,,,,,green,triangle
0.0,5.0,0.5,1.0,5.0,0.0,0.0,1.0,1.0,phase_2,stop,300.0,450.0,4.0,,,,,,,,,magenta,diamond
0.0,3.0,2.0,0.0,6.0,6.0,841.5250830000787,1.0,1.0,phase_2,go,350.0,450.0,1.0,,,,,,,,,white,flipped triangle
0.0,1.0,0.5,0.0,6.0,6.0,1343.408540999917,1.0,1.0,phase_2,go,350.0,450.0,1.0,,,,,,,,,orange,hexagon
0.0,2.0,1.0,0.0,6.0,6.0,1334.043888999986,1.0,1.0,phase_2,go,350.0,450.0,1.0,,,,,,,,,yellow,circle
0.0,8.0,4.0,1.0,5.0,5.0,1129.0447719998156,1.0,1.0,phase_2,go,350.0,450.0,1.0,,,,,,,,,cyan,I
0.0,3.0,2.0,0.0,5.0,5.0,1217.3147549999612,1.0,1.0,phase_2,go,350.0,450.0,1.0,,,,,,,,,white,flipped triangle
0.0,8.0,4.0,1.0,5.0,5.0,1265.0717039998651,1.0,1.0,phase_2,go,350.0,450.0,1.0,,,,,,,,,cyan,I
0.0,5.0,0.5,1.0,5.0,0.0,0.0,1.0,1.0,phase_2,stop,350.0,450.0,4.0,,,,,,,,,magenta,diamond
0.0,3.0,2.0,0.0,6.0,6.0,1030.101147999858,1.0,1.0,phase_2,go,400.0,450.0,1.0,,,,,,,,,white,flipped triangle
0.0,7.0,2.0,1.0,5.0,0.0,0.0,1.0,1.0,phase_2,stop,400.0,450.0,4.0,,,,,,,,,gray,square
0.0,4.0,4.0,0.0,6.0,6.0,920.4502439999942,1.0,1.0,phase_2,go,450.0,450.0,1.0,,,,,,,,,green,triangle
0.0,1.0,0.5,0.0,6.0,6.0,1109.264863000135,1.0,1.0,phase_2,go,450.0,450.0,1.0,,,,,,,,,orange,hexagon
0.0,3.0,2.0,0.0,6.0,6.0,1005.2845469999738,1.0,1.0,phase_2,go,450.0,450.0,1.0,,,,,,,,,white,flipped triangle
0.0,6.0,1.0,1.0,6.0,0.0,0.0,1.0,1.0,phase_2,stop,450.0,450.0,4.0,,,,,,,,,blue,cross
0.0,1.0,0.5,0.0,6.0,6.0,948.4891720001089,1.0,1.0,phase_2,go,450.0,500.0,1.0,,,,,,,,,orange,hexagon
0.0,5.0,0.5,1.0,5.0,5.0,795.5405479999627,1.0,1.0,phase_2,go,450.0,500.0,1.0,,,,,,,,,magenta,diamond
0.0,5.0,0.5,1.0,6.0,0.0,0.0,1.0,1.0,phase_2,stop,450.0,500.0,4.0,,,,,,,,,magenta,diamond
0.0,4.0,4.0,0.0,5.0,5.0,1099.2074909997882,1.0,1.0,phase_2,go,450.0,550.0,1.0,,,,,,,,,green,triangle
0.0,2.0,1.0,0.0,6.0,6.0,864.3693139999868,1.0,1.0,phase_2,go,450.0,550.0,1.0,,,,,,,,,yellow,circle
0.0,1.0,0.5,0.0,5.0,5.0,866.2764959999549,1.0,1.0,phase_2,go,450.0,550.0,1.0,,,,,,,,,orange,hexagon
0.0,1.0,0.5,0.0,6.0,6.0,1219.8275539999486,1.0,1.0,phase_2,go,450.0,550.0,1.0,,,,,,,,,orange,hexagon
0.0,2.0,1.0,0.0,6.0,6.0,1158.4197249999306,1.0,1.0,phase_2,go,450.0,550.0,1.0,,,,,,,,,yellow,circle
0.0,4.0,4.0,0.0,6.0,6.0,1197.9274989998885,1.0,1.0,phase_2,go,450.0,550.0,1.0,,,,,,,,,green,triangle
0.0,7.0,2.0,1.0,6.0,0.0,0.0,2.0,1.0,phase_2,stop,450.0,550.0,4.0,,,,,,,,,gray,square
0.0,8.0,4.0,1.0,6.0,0.0,0.0,2.0,1.0,phase_2,stop,450.0,600.0,4.0,,,,,,,,,cyan,I
0.0,3.0,2.0,0.0,5.0,5.0,296.295353000005,2.0,1.0,phase_2,go,450.0,650.0,1.0,,,,,,,,,white,flipped triangle
0.0,2.0,1.0,0.0,5.0,5.0,638.6851209999804,2.0,1.0,phase_2,go,450.0,650.0,1.0,,,,,,,,,yellow,circle
0.0,2.0,1.0,0.0,5.0,5.0,664.3513989999974,2.0,1.0,phase_2,go,450.0,650.0,1.0,,,,,,,,,yellow,circle
0.0,6.0,1.0,1.0,5.0,0.0,0.0,2.0,1.0,phase_2,stop,450.0,650.0,4.0,,,,,,,,,blue,cross
0.0,3.0,2.0,0.0,6.0,6.0,998.3283010001288,2.0,1.0,phase_2,go,500.0,650.0,1.0,,,,,,,,,white,flipped triangle
0.0,8.0,4.0,1.0,5.0,5.0,580.798796000181,2.0,1.0,phase_2,go,500.0,650.0,1.0,,,,,,,,,cyan,I
0.0,3.0,2.0,0.0,6.0,6.0,609.8878719999448,2.0,1.0,phase_2,go,500.0,650.0,1.0,,,,,,,,,white,flipped triangle
0.0,6.0,1.0,1.0,6.0,0.0,0.0,2.0,1.0,phase_2,stop,500.0,650.0,4.0,,,,,,,,,blue,cross
0.0,6.0,1.0,1.0,5.0,5.0,1250.8341220000148,2.0,1.0,phase_2,go,500.0,700.0,1.0,,,,,,,,,blue,cross
0.0,8.0,4.0,1.0,5.0,0.0,0.0,2.0,1.0,phase_2,stop,500.0,700.0,4.0,,,,,,,,,cyan,I
0.0,1.0,0.5,0.0,6.0,6.0,677.1318969999811,2.0,1.0,phase_2,go,550.0,700.0,1.0,,,,,,,,,orange,hexagon
0.0,3.0,2.0,0.0,5.0,5.0,541.2318869998671,2.0,1.0,phase_2,go,550.0,700.0,1.0,,,,,,,,,white,flipped triangle
0.0,8.0,4.0,1.0,5.0,0.0,0.0,2.0,1.0,phase_2,stop,550.0,700.0,4.0,,,,,,,,,cyan,I
0.0,7.0,2.0,1.0,5.0,5.0,1292.7289100000507,2.0,1.0,phase_2,go,600.0,700.0,1.0,,,,,,,,,gray,square
0.0,7.0,2.0,1.0,5.0,0.0,0.0,2.0,1.0,phase_2,stop,600.0,700.0,4.0,,,,,,,,,gray,square
0.0,5.0,0.5,1.0,6.0,0.0,0.0,2.0,1.0,phase_2,stop,650.0,700.0,4.0,,,,,,,,,magenta,diamond
0.0,4.0,4.0,0.0,5.0,5.0,1070.7720109999173,2.0,1.0,phase_2,go,650.0,750.0,1.0,,,,,,,,,green,triangle
0.0,5.0,0.5,1.0,6.0,0.0,0.0,2.0,1.0,phase_2,stop,650.0,750.0,4.0,,,,,,,,,magenta,diamond
0.0,4.0,4.0,0.0,5.0,5.0,956.626660999973,2.0,1.0,phase_2,go,650.0,800.0,1.0,,,,,,,,,green,triangle
0.0,5.0,0.5,1.0,6.0,6.0,1084.4383769999697,2.0,1.0,phase_2,go,650.0,800.0,1.0,,,,,,,,,magenta,diamond
0.0,7.0,2.0,1.0,6.0,6.0,853.9066600001206,2.0,1.0,phase_2,stop,650.0,800.0,3.0,,,,,,,,,gray,square
0.0,2.0,1.0,0.0,5.0,5.0,701.0878559999583,2.0,1.0,phase_2,go,650.0,750.0,1.0,,,,,,,,,yellow,circle
0.0,6.0,1.0,1.0,6.0,0.0,0.0,2.0,1.0,phase_2,stop,650.0,750.0,4.0,,,,,,,,,blue,cross
0.0,4.0,4.0,0.0,6.0,6.0,1144.7497419999308,2.0,1.0,phase_2,go,650.0,800.0,1.0,,,,,,,,,green,triangle
0.0,1.0,0.5,0.0,5.0,5.0,1093.3287969999128,2.0,1.0,phase_2,go,650.0,800.0,1.0,,,,,,,,,orange,hexagon
0.0,4.0,4.0,0.0,5.0,5.0,822.7787019998232,2.0,1.0,phase_2,go,650.0,800.0,1.0,,,,,,,,,green,triangle
0.0,4.0,4.0,0.0,6.0,6.0,580.8060459999069,2.0,1.0,phase_2,go,650.0,800.0,1.0,,,,,,,,,green,triangle
0.0,6.0,1.0,1.0,5.0,0.0,0.0,2.0,1.0,phase_2,stop,650.0,800.0,4.0,,,,,,,,,blue,cross
0.0,4.0,4.0,0.0,6.0,6.0,593.3133339999586,2.0,1.0,phase_2,go,700.0,800.0,1.0,,,,,,,,,green,triangle
0.0,5.0,0.5,1.0,5.0,0.0,0.0,2.0,1.0,phase_2,stop,700.0,800.0,4.0,,,,,,,,,magenta,diamond
0.0,3.0,2.0,0.0,5.0,5.0,813.5021619998497,2.0,1.0,phase_2,go,750.0,800.0,1.0,,,,,,,,,white,flipped triangle
0.0,4.0,4.0,0.0,5.0,5.0,593.5821399998531,2.0,1.0,phase_2,go,750.0,800.0,1.0,,,,,,,,,green,triangle
0.0,5.0,0.5,1.0,5.0,0.0,0.0,2.0,1.0,phase_2,stop,750.0,800.0,4.0,,,,,,,,,magenta,diamond
0.0,7.0,2.0,1.0,6.0,6.0,434.0626980001616,2.0,1.0,phase_2,stop,800.0,800.0,3.0,,,,,,,,,gray,square
0.0,1.0,0.5,0.0,6.0,6.0,773.1253610002113,3.0,1.0,phase_2,go,800.0,750.0,1.0,,,,,,,,,orange,hexagon
0.0,2.0,1.0,0.0,6.0,6.0,714.4072380001489,3.0,1.0,phase_2,go,800.0,750.0,1.0,,,,,,,,,yellow,circle
0.0,7.0,2.0,1.0,6.0,6.0,1017.4881969999203,3.0,1.0,phase_2,go,800.0,750.0,1.0,,,,,,,,,gray,square
0.0,5.0,0.5,1.0,5.0,0.0,0.0,3.0,1.0,phase_2,stop,800.0,750.0,4.0,,,,,,,,,magenta,diamond
0.0,7.0,2.0,1.0,5.0,0.0,0.0,3.0,1.0,phase_2,stop,850.0,750.0,4.0,,,,,,,,,gray,square
0.0,1.0,0.5,0.0,6.0,6.0,968.2191759998204,3.0,1.0,phase_2,go,900.0,750.0,1.0,,,,,,,,,orange,hexagon
0.0,1.0,0.5,0.0,6.0,6.0,472.2750829998858,3.0,1.0,phase_2,go,900.0,750.0,1.0,,,,,,,,,orange,hexagon
0.0,7.0,2.0,1.0,5.0,5.0,1197.7597709999372,3.0,1.0,phase_2,go,900.0,750.0,1.0,,,,,,,,,gray,square
0.0,6.0,1.0,1.0,5.0,0.0,0.0,3.0,1.0,phase_2,go,900.0,750.0,5.0,,,,,,,,,blue,cross
0.0,1.0,0.5,0.0,5.0,5.0,739.7725229998287,3.0,1.0,phase_2,go,900.0,750.0,1.0,,,,,,,,,orange,hexagon
0.0,5.0,0.5,1.0,6.0,0.0,0.0,3.0,1.0,phase_2,stop,900.0,750.0,4.0,,,,,,,,,magenta,diamond
0.0,6.0,1.0,1.0,6.0,0.0,0.0,3.0,1.0,phase_2,stop,900.0,800.0,4.0,,,,,,,,,blue,cross
0.0,8.0,4.0,1.0,5.0,0.0,0.0,3.0,1.0,phase_2,stop,900.0,850.0,4.0,,,,,,,,,cyan,I
0.0,4.0,4.0,0.0,6.0,6.0,552.7436489999218,3.0,1.0,phase_2,go,950.0,850.0,1.0,,,,,,,,,green,triangle
0.0,5.0,0.5,1.0,6.0,6.0,993.2380309999188,3.0,1.0,phase_2,stop,950.0,850.0,3.0,,,,,,,,,magenta,diamond
0.0,5.0,0.5,1.0,6.0,0.0,0.0,3.0,1.0,phase_2,go,950.0,800.0,5.0,,,,,,,,,magenta,diamond
0.0,1.0,0.5,0.0,5.0,5.0,647.2686189999877,3.0,1.0,phase_2,go,950.0,800.0,1.0,,,,,,,,,orange,hexagon
0.0,6.0,1.0,1.0,5.0,5.0,1221.5826359999935,3.0,1.0,phase_2,go,950.0,800.0,1.0,,,,,,,,,blue,cross
0.0,6.0,1.0,1.0,5.0,5.0,1036.0501450002175,3.0,1.0,phase_2,go,950.0,800.0,1.0,,,,,,,,,blue,cross
0.0,2.0,1.0,0.0,6.0,6.0,527.2502010000153,3.0,1.0,phase_2,go,950.0,800.0,1.0,,,,,,,,,yellow,circle
0.0,4.0,4.0,0.0,6.0,6.0,656.9167620000371,3.0,1.0,phase_2,go,950.0,800.0,1.0,,,,,,,,,green,triangle
0.0,2.0,1.0,0.0,6.0,6.0,481.7520910000894,3.0,1.0,phase_2,go,950.0,800.0,1.0,,,,,,,,,yellow,circle
0.0,1.0,0.5,0.0,5.0,5.0,758.9229949999208,3.0,1.0,phase_2,go,950.0,800.0,1.0,,,,,,,,,orange,hexagon
0.0,3.0,2.0,0.0,6.0,6.0,971.9091619999743,3.0,1.0,phase_2,go,950.0,800.0,1.0,,,,,,,,,white,flipped triangle
0.0,6.0,1.0,1.0,6.0,0.0,0.0,3.0,1.0,phase_2,stop,950.0,800.0,4.0,,,,,,,,,blue,cross
0.0,4.0,4.0,0.0,5.0,5.0,553.1092040000658,3.0,1.0,phase_2,go,950.0,850.0,1.0,,,,,,,,,green,triangle
0.0,1.0,0.5,0.0,5.0,5.0,720.7005909997406,3.0,1.0,phase_2,go,950.0,850.0,1.0,,,,,,,,,orange,hexagon
0.0,4.0,4.0,0.0,6.0,6.0,604.7474419997343,3.0,1.0,phase_2,go,950.0,850.0,1.0,,,,,,,,,green,triangle
0.0,5.0,0.5,1.0,5.0,0.0,0.0,3.0,1.0,phase_2,stop,950.0,850.0,4.0,,,,,,,,,magenta,diamond
0.0,7.0,2.0,1.0,5.0,0.0,0.0,3.0,1.0,phase_2,stop,1000.0,850.0,4.0,,,,,,,,,gray,square
0.0,5.0,0.5,1.0,6.0,0.0,0.0,3.0,1.0,phase_2,stop,1050.0,850.0,4.0,,,,,,,,,magenta,diamond
0.0,6.0,1.0,1.0,5.0,5.0,1276.429089999965,3.0,1.0,phase_2,go,1050.0,900.0,1.0,,,,,,,,,blue,cross
0.0,5.0,0.5,1.0,5.0,0.0,0.0,3.0,1.0,phase_2,stop,1050.0,900.0,4.0,,,,,,,,,magenta,diamond
0.0,8.0,4.0,1.0,6.0,0.0,0.0,3.0,1.0,phase_2,stop,1100.0,900.0,4.0,,,,,,,,,cyan,I
0.0,2.0,1.0,0.0,5.0,5.0,537.240317999931,3.0,1.0,phase_2,go,1100.0,950.0,1.0,,,,,,,,,yellow,circle
0.0,7.0,2.0,1.0,5.0,5.0,1211.4765320002334,3.0,1.0,phase_2,go,1100.0,950.0,1.0,,,,,,,,,gray,square
0.0,6.0,1.0,1.0,6.0,6.0,341.8577140000707,4.0,1.0,phase_2,stop,1100.0,950.0,3.0,,,,,,,,,blue,cross
0.0,8.0,4.0,1.0,5.0,5.0,962.1274470000571,4.0,1.0,phase_2,go,1100.0,900.0,1.0,,,,,,,,,cyan,I
0.0,2.0,1.0,0.0,5.0,5.0,377.68872200012987,4.0,1.0,phase_2,go,1100.0,900.0,1.0,,,,,,,,,yellow,circle
0.0,6.0,1.0,1.0,6.0,6.0,517.4427130000367,4.0,1.0,phase_2,stop,1100.0,900.0,3.0,,,,,,,,,blue,cross
0.0,8.0,4.0,1.0,5.0,5.0,1369.8019909998038,4.0,1.0,phase_2,go,1100.0,850.0,1.0,,,,,,,,,cyan,I
0.0,1.0,0.5,0.0,5.0,5.0,324.9395769998955,4.0,1.0,phase_2,go,1100.0,850.0,1.0,,,,,,,,,orange,hexagon
0.0,4.0,4.0,0.0,6.0,6.0,314.8863430001256,4.0,1.0,phase_2,go,1100.0,850.0,1.0,,,,,,,,,green,triangle
0.0,7.0,2.0,1.0,5.0,5.0,320.4845759996715,4.0,1.0,phase_2,stop,1100.0,850.0,3.0,,,,,,,,,gray,square
0.0,6.0,1.0,1.0,6.0,0.0,0.0,4.0,1.0,phase_2,stop,1050.0,850.0,4.0,,,,,,,,,blue,cross
0.0,1.0,0.5,0.0,6.0,6.0,387.4662909997823,4.0,1.0,phase_2,go,1050.0,900.0,1.0,,,,,,,,,orange,hexagon
0.0,4.0,4.0,0.0,6.0,6.0,406.043831000261,4.0,1.0,phase_2,go,1050.0,900.0,1.0,,,,,,,,,green,triangle
0.0,6.0,1.0,1.0,6.0,6.0,377.332559000024,4.0,1.0,phase_2,go,1050.0,900.0,1.0,,,,,,,,,blue,cross
0.0,2.0,1.0,0.0,6.0,6.0,518.5486229997878,4.0,1.0,phase_2,go,1050.0,900.0,1.0,,,,,,,,,yellow,circle
0.0,5.0,0.5,1.0,5.0,5.0,1148.9329689998158,4.0,1.0,phase_2,go,1050.0,900.0,1.0,,,,,,,,,magenta,diamond
0.0,8.0,4.0,1.0,5.0,5.0,1034.5350560000952,4.0,1.0,phase_2,stop,1050.0,900.0,3.0,,,,,,,,,cyan,I
0.0,3.0,2.0,0.0,6.0,6.0,387.2139099999003,4.0,1.0,phase_2,go,1000.0,900.0,1.0,,,,,,,,,white,flipped triangle
0.0,4.0,4.0,0.0,5.0,5.0,431.8710359998476,4.0,1.0,phase_2,go,1000.0,900.0,1.0,,,,,,,,,green,triangle
0.0,5.0,0.5,1.0,5.0,5.0,1129.638963000161,4.0,1.0,phase_2,stop,1000.0,900.0,3.0,,,,,,,,,magenta,diamond
0.0,5.0,0.5,1.0,5.0,0.0,0.0,4.0,1.0,phase_2,stop,950.0,900.0,4.0,,,,,,,,,magenta,diamond
0.0,4.0,4.0,0.0,5.0,5.0,555.7041619999836,4.0,1.0,phase_2,go,1000.0,900.0,1.0,,,,,,,,,green,triangle
0.0,1.0,0.5,0.0,6.0,6.0,463.1970840000576,4.0,1.0,phase_2,go,1000.0,900.0,1.0,,,,,,,,,orange,hexagon
0.0,2.0,1.0,0.0,5.0,5.0,423.0125199997019,4.0,1.0,phase_2,go,1000.0,900.0,1.0,,,,,,,,,yellow,circle
0.0,4.0,4.0,0.0,5.0,5.0,638.9231439998184,4.0,1.0,phase_2,go,1000.0,900.0,1.0,,,,,,,,,green,triangle
0.0,5.0,0.5,1.0,5.0,0.0,0.0,4.0,1.0,phase_2,stop,1000.0,900.0,4.0,,,,,,,,,magenta,diamond
0.0,3.0,2.0,0.0,6.0,6.0,497.9372279999552,4.0,1.0,phase_2,go,1050.0,900.0,1.0,,,,,,,,,white,flipped triangle
0.0,2.0,1.0,0.0,5.0,5.0,435.3669430001901,4.0,1.0,phase_2,go,1050.0,900.0,1.0,,,,,,,,,yellow,circle
0.0,6.0,1.0,1.0,5.0,0.0,0.0,4.0,1.0,phase_2,stop,1050.0,900.0,4.0,,,,,,,,,blue,cross
0.0,2.0,1.0,0.0,6.0,6.0,480.2969510001276,4.0,1.0,phase_2,go,1100.0,900.0,1.0,,,,,,,,,yellow,circle
0.0,3.0,2.0,0.0,6.0,6.0,427.1823720000611,4.0,1.0,phase_2,go,1100.0,900.0,1.0,,,,,,,,,white,flipped triangle
0.0,3.0,2.0,0.0,5.0,5.0,436.5747769998052,4.0,1.0,phase_2,go,1100.0,900.0,1.0,,,,,,,,,white,flipped triangle
0.0,6.0,1.0,1.0,6.0,0.0,0.0,4.0,1.0,phase_2,stop,1100.0,900.0,4.0,,,,,,,,,blue,cross
0.0,5.0,0.5,1.0,5.0,5.0,1209.2480850001266,4.0,1.0,phase_2,stop,1100.0,950.0,3.0,,,,,,,,,magenta,diamond
0.0,4.0,4.0,0.0,6.0,6.0,481.6668329999629,4.0,1.0,phase_2,go,1050.0,950.0,1.0,,,,,,,,,green,triangle
0.0,8.0,4.0,1.0,6.0,0.0,0.0,4.0,1.0,phase_2,stop,1050.0,950.0,4.0,,,,,,,,,cyan,I
0.0,6.0,1.0,1.0,5.0,0.0,0.0,4.0,1.0,phase_2,stop,1050.0,1000.0,4.0,,,,,,,,,blue,cross
0.0,2.0,1.0,0.0,5.0,5.0,553.1017220000649,4.0,1.0,phase_2,go,1100.0,1000.0,1.0,,,,,,,,,yellow,circle
0.0,8.0,4.0,1.0,6.0,6.0,965.4955020000672,5.0,1.0,phase_2,stop,1100.0,1000.0,3.0,,,,,,,,,cyan,I
0.0,3.0,2.0,0.0,5.0,5.0,526.128195000183,5.0,1.0,phase_2,go,1100.0,950.0,1.0,,,,,,,,,white,flipped triangle
0.0,8.0,4.0,1.0,6.0,6.0,406.2851749999936,5.0,1.0,phase_2,stop,1100.0,950.0,3.0,,,,,,,,,cyan,I
0.0,3.0,2.0,0.0,6.0,6.0,484.5627539998531,5.0,1.0,phase_2,go,1100.0,900.0,1.0,,,,,,,,,white,flipped triangle
0.0,6.0,1.0,1.0,6.0,0.0,0.0,5.0,1.0,phase_2,stop,1100.0,900.0,4.0,,,,,,,,,blue,cross
0.0,1.0,0.5,0.0,6.0,6.0,497.30693799983777,5.0,1.0,phase_2,go,1100.0,950.0,1.0,,,,,,,,,orange,hexagon
0.0,4.0,4.0,0.0,5.0,5.0,489.7781619997658,5.0,1.0,phase_2,go,1100.0,950.0,1.0,,,,,,,,,green,triangle
0.0,1.0,0.5,0.0,5.0,5.0,368.2431980000729,5.0,1.0,phase_2,go,1100.0,950.0,1.0,,,,,,,,,orange,hexagon
0.0,2.0,1.0,0.0,5.0,5.0,387.8775250000217,5.0,1.0,phase_2,go,1100.0,950.0,1.0,,,,,,,,,yellow,circle
0.0,6.0,1.0,1.0,5.0,5.0,1073.4525810003106,5.0,1.0,phase_2,stop,1100.0,950.0,3.0,,,,,,,,,blue,cross
0.0,7.0,2.0,1.0,6.0,0.0,0.0,5.0,1.0,phase_2,stop,1050.0,950.0,4.0,,,,,,,,,gray,square
0.0,4.0,4.0,0.0,6.0,6.0,509.78215199984334,5.0,1.0,phase_2,go,1050.0,1000.0,1.0,,,,,,,,,green,triangle
0.0,6.0,1.0,1.0,6.0,0.0,0.0,5.0,1.0,phase_2,go,1050.0,1000.0,5.0,,,,,,,,,blue,cross
0.0,7.0,2.0,1.0,6.0,0.0,0.0,5.0,1.0,phase_2,stop,1050.0,1000.0,4.0,,,,,,,,,gray,square
0.0,2.0,1.0,0.0,6.0,6.0,443.0170199998429,5.0,1.0,phase_2,go,1050.0,1050.0,1.0,,,,,,,,,yellow,circle
0.0,6.0,1.0,1.0,5.0,0.0,0.0,5.0,1.0,phase_2,stop,1050.0,1050.0,4.0,,,,,,,,,blue,cross
0.0,7.0,2.0,1.0,5.0,0.0,0.0,5.0,1.0,phase_2,stop,1100.0,1050.0,4.0,,,,,,,,,gray,square
0.0,1.0,0.5,0.0,6.0,6.0,460.5783120000524,5.0,1.0,phase_2,go,1150.0,1050.0,1.0,,,,,,,,,orange,hexagon
0.0,6.0,1.0,1.0,5.0,0.0,0.0,5.0,1.0,phase_2,stop,1150.0,1050.0,4.0,,,,,,,,,blue,cross
0.0,3.0,2.0,0.0,5.0,5.0,544.1307969999798,5.0,1.0,phase_2,go,1200.0,1050.0,1.0,,,,,,,,,white,flipped triangle
0.0,2.0,1.0,0.0,5.0,5.0,368.5410610000872,5.0,1.0,phase_2,go,1200.0,1050.0,1.0,,,,,,,,,yellow,circle
0.0,4.0,4.0,0.0,5.0,5.0,378.4633160003068,5.0,1.0,phase_2,go,1200.0,1050.0,1.0,,,,,,,,,green,triangle
0.0,3.0,2.0,0.0,5.0,5.0,490.1484110000638,5.0,1.0,phase_2,go,1200.0,1050.0,1.0,,,,,,,,,white,flipped triangle
0.0,5.0,0.5,1.0,5.0,5.0,930.9608179996758,5.0,1.0,phase_2,stop,1200.0,1050.0,3.0,,,,,,,,,magenta,diamond
0.0,7.0,2.0,1.0,6.0,0.0,0.0,5.0,1.0,phase_2,stop,1150.0,1050.0,4.0,,,,,,,,,gray,square
0.0,7.0,2.0,1.0,6.0,0.0,0.0,5.0,1.0,phase_2,stop,1150.0,1100.0,4.0,,,,,,,,,gray,square
0.0,1.0,0.5,0.0,6.0,6.0,480.3581669998493,5.0,1.0,phase_2,go,1150.0,1150.0,1.0,,,,,,,,,orange,hexagon
0.0,7.0,2.0,1.0,5.0,0.0,0.0,5.0,1.0,phase_2,stop,1150.0,1150.0,4.0,,,,,,,,,gray,square
0.0,2.0,1.0,0.0,5.0,5.0,377.6019759998235,5.0,1.0,phase_2,go,1200.0,1150.0,1.0,,,,,,,,,yellow,circle
0.0,7.0,2.0,1.0,6.0,0.0,0.0,5.0,1.0,phase_2,go,1200.0,1150.0,5.0,,,,,,,,,gray,square
0.0,8.0,4.0,1.0,6.0,0.0,0.0,5.0,1.0,phase_2,stop,1200.0,1150.0,4.0,,,,,,,,,cyan,I
0.0,3.0,2.0,0.0,5.0,5.0,496.4547489998949,5.0,1.0,phase_2,go,1200.0,1200.0,1.0,,,,,,,,,white,flipped triangle
0.0,7.0,2.0,1.0,6.0,0.0,0.0,5.0,1.0,phase_2,go,1200.0,1200.0,5.0,,,,,,,,,gray,square
0.0,2.0,1.0,0.0,6.0,6.0,469.5706920001612,5.0,1.0,phase_2,go,1200.0,1200.0,1.0,,,,,,,,,yellow,circle
0.0,3.0,2.0,0.0,5.0,5.0,498.869508000098,5.0,1.0,phase_2,go,1200.0,1200.0,1.0,,,,,,,,,white,flipped triangle
0.0,2.0,1.0,0.0,6.0,6.0,322.2081120002258,5.0,1.0,phase_2,go,1200.0,1200.0,1.0,,,,,,,,,yellow,circle
0.0,1.0,0.5,0.0,6.0,6.0,424.6937779998916,6.0,1.0,phase_2,go,1200.0,1200.0,1.0,,,,,,,,,orange,hexagon
0.0,7.0,2.0,1.0,6.0,0.0,0.0,6.0,1.0,phase_2,stop,1200.0,1200.0,4.0,,,,,,,,,gray,square
0.0,5.0,0.5,1.0,5.0,0.0,0.0,6.0,1.0,phase_2,go,1200.0,1250.0,5.0,,,,,,,,,magenta,diamond
0.0,1.0,0.5,0.0,5.0,5.0,500.69171599989204,6.0,1.0,phase_2,go,1200.0,1250.0,1.0,,,,,,,,,orange,hexagon
0.0,8.0,4.0,1.0,6.0,6.0,1373.270711000259,6.0,1.0,phase_2,stop,1200.0,1250.0,3.0,,,,,,,,,cyan,I
0.0,2.0,1.0,0.0,6.0,6.0,499.7128220002196,6.0,1.0,phase_2,go,1200.0,1200.0,1.0,,,,,,,,,yellow,circle
0.0,8.0,4.0,1.0,5.0,0.0,0.0,6.0,1.0,phase_2,stop,1200.0,1200.0,4.0,,,,,,,,,cyan,I
0.0,7.0,2.0,1.0,5.0,0.0,0.0,6.0,1.0,phase_2,stop,1250.0,1200.0,4.0,,,,,,,,,gray,square
0.0,7.0,2.0,1.0,6.0,0.0,0.0,6.0,1.0,phase_2,stop,1300.0,1200.0,4.0,,,,,,,,,gray,square
0.0,2.0,1.0,0.0,5.0,5.0,489.6755069999017,6.0,1.0,phase_2,go,1300.0,1250.0,1.0,,,,,,,,,yellow,circle
0.0,3.0,2.0,0.0,6.0,6.0,480.1065780002318,6.0,1.0,phase_2,go,1300.0,1250.0,1.0,,,,,,,,,white,flipped triangle
0.0,8.0,4.0,1.0,6.0,0.0,0.0,6.0,1.0,phase_2,stop,1300.0,1250.0,4.0,,,,,,,,,cyan,I
0.0,1.0,0.5,0.0,6.0,6.0,462.0527860001857,6.0,1.0,phase_2,go,1300.0,1300.0,1.0,,,,,,,,,orange,hexagon
0.0,7.0,2.0,1.0,5.0,0.0,0.0,6.0,1.0,phase_2,stop,1300.0,1300.0,4.0,,,,,,,,,gray,square
0.0,8.0,4.0,1.0,6.0,0.0,0.0,6.0,1.0,phase_2,stop,1350.0,1300.0,4.0,,,,,,,,,cyan,I
0.0,3.0,2.0,0.0,6.0,6.0,517.3148570002013,6.0,1.0,phase_2,go,1350.0,1350.0,1.0,,,,,,,,,white,flipped triangle
0.0,5.0,0.5,1.0,6.0,0.0,0.0,6.0,1.0,phase_2,stop,1350.0,1350.0,4.0,,,,,,,,,magenta,diamond
0.0,2.0,1.0,0.0,6.0,6.0,462.3468509998929,6.0,1.0,phase_2,go,1350.0,1400.0,1.0,,,,,,,,,yellow,circle
0.0,3.0,2.0,0.0,5.0,5.0,501.2720869999612,6.0,1.0,phase_2,go,1350.0,1400.0,1.0,,,,,,,,,white,flipped triangle
0.0,8.0,4.0,1.0,6.0,0.0,0.0,6.0,1.0,phase_2,go,1350.0,1400.0,5.0,,,,,,,,,cyan,I
0.0,8.0,4.0,1.0,5.0,0.0,0.0,6.0,1.0,phase_2,stop,1350.0,1400.0,4.0,,,,,,,,,cyan,I
0.0,1.0,0.5,0.0,5.0,5.0,462.7356579999286,6.0,1.0,phase_2,go,1400.0,1400.0,1.0,,,,,,,,,orange,hexagon
0.0,7.0,2.0,1.0,6.0,0.0,0.0,6.0,1.0,phase_2,stop,1400.0,1400.0,4.0,,,,,,,,,gray,square
0.0,4.0,4.0,0.0,5.0,5.0,501.26310999985435,6.0,1.0,phase_2,go,1400.0,1450.0,1.0,,,,,,,,,green,triangle
0.0,1.0,0.5,0.0,6.0,6.0,360.7044479999786,6.0,1.0,phase_2,go,1400.0,1450.0,1.0,,,,,,,,,orange,hexagon
0.0,6.0,1.0,1.0,5.0,0.0,0.0,6.0,1.0,phase_2,stop,1400.0,1450.0,4.0,,,,,,,,,blue,cross
0.0,7.0,2.0,1.0,6.0,0.0,0.0,6.0,1.0,phase_2,stop,1450.0,1450.0,4.0,,,,,,,,,gray,square
0.0,1.0,0.5,0.0,6.0,6.0,454.9219630002881,6.0,1.0,phase_2,go,1450.0,1500.0,1.0,,,,,,,,,orange,hexagon
0.0,7.0,2.0,1.0,5.0,0.0,0.0,6.0,1.0,phase_2,stop,1450.0,1500.0,4.0,,,,,,,,,gray,square
0.0,1.0,0.5,0.0,5.0,5.0,482.0339840002816,6.0,1.0,phase_2,go,1500.0,1500.0,1.0,,,,,,,,,orange,hexagon
0.0,8.0,4.0,1.0,5.0,0.0,0.0,6.0,1.0,phase_2,stop,1500.0,1500.0,4.0,,,,,,,,,cyan,I
0.0,4.0,4.0,0.0,5.0,5.0,437.5860410000314,6.0,1.0,phase_2,go,1550.0,1500.0,1.0,,,,,,,,,green,triangle
0.0,8.0,4.0,1.0,5.0,0.0,0.0,6.0,1.0,phase_2,stop,1550.0,1500.0,4.0,,,,,,,,,cyan,I
0.0,2.0,1.0,0.0,5.0,5.0,505.7082889998128,6.0,1.0,phase_2,go,1600.0,1500.0,1.0,,,,,,,,,yellow,circle
0.0,8.0,4.0,1.0,6.0,0.0,0.0,6.0,1.0,phase_2,stop,1600.0,1500.0,4.0,,,,,,,,,cyan,I
0.0,4.0,4.0,0.0,5.0,5.0,491.0069269999439,6.0,1.0,phase_2,go,1600.0,1550.0,1.0,,,,,,,,,green,triangle
0.0,5.0,0.5,1.0,6.0,0.0,0.0,7.0,1.0,phase_2,stop,1600.0,1550.0,4.0,,,,,,,,,magenta,diamond
0.0,3.0,2.0,0.0,6.0,6.0,519.505733999722,7.0,1.0,phase_2,go,1600.0,1600.0,1.0,,,,,,,,,white,flipped triangle
0.0,4.0,4.0,0.0,6.0,6.0,510.4509150000922,7.0,1.0,phase_2,go,1600.0,1600.0,1.0,,,,,,,,,green,triangle
0.0,2.0,1.0,0.0,5.0,5.0,483.9650059998348,7.0,1.0,phase_2,go,1600.0,1600.0,1.0,,,,,,,,,yellow,circle
0.0,1.0,0.5,0.0,5.0,5.0,417.0103329997801,7.0,1.0,phase_2,go,1600.0,1600.0,1.0,,,,,,,,,orange,hexagon
0.0,6.0,1.0,1.0,5.0,0.0,0.0,7.0,1.0,phase_2,stop,1600.0,1600.0,4.0,,,,,,,,,blue,cross
0.0,2.0,1.0,0.0,6.0,6.0,353.2613440002023,7.0,1.0,phase_2,go,1650.0,1600.0,1.0,,,,,,,,,yellow,circle
0.0,3.0,2.0,0.0,5.0,5.0,566.0613530003502,7.0,1.0,phase_2,go,1650.0,1600.0,1.0,,,,,,,,,white,flipped triangle
0.0,7.0,2.0,1.0,6.0,0.0,0.0,7.0,1.0,phase_2,go,1650.0,1600.0,5.0,,,,,,,,,gray,square
0.0,3.0,2.0,0.0,6.0,6.0,536.9498899999599,7.0,1.0,phase_2,go,1650.0,1600.0,1.0,,,,,,,,,white,flipped triangle
0.0,1.0,0.5,0.0,5.0,5.0,427.272948999871,7.0,1.0,phase_2,go,1650.0,1600.0,1.0,,,,,,,,,orange,hexagon
0.0,6.0,1.0,1.0,6.0,0.0,0.0,7.0,1.0,phase_2,stop,1650.0,1600.0,4.0,,,,,,,,,blue,cross
0.0,8.0,4.0,1.0,6.0,0.0,0.0,7.0,1.0,phase_2,stop,1650.0,1650.0,4.0,,,,,,,,,cyan,I
0.0,5.0,0.5,1.0,6.0,0.0,0.0,7.0,1.0,phase_2,stop,1650.0,1700.0,4.0,,,,,,,,,magenta,diamond
0.0,3.0,2.0,0.0,5.0,5.0,416.0921580000831,7.0,1.0,phase_2,go,1650.0,1750.0,1.0,,,,,,,,,white,flipped triangle
0.0,8.0,4.0,1.0,6.0,0.0,0.0,7.0,1.0,phase_2,go,1650.0,1750.0,5.0,,,,,,,,,cyan,I
0.0,4.0,4.0,0.0,6.0,6.0,509.7908349998761,7.0,1.0,phase_2,go,1650.0,1750.0,1.0,,,,,,,,,green,triangle
0.0,4.0,4.0,0.0,5.0,5.0,431.5378980004425,7.0,1.0,phase_2,go,1650.0,1750.0,1.0,,,,,,,,,green,triangle
0.0,5.0,0.5,1.0,5.0,0.0,0.0,7.0,1.0,phase_2,go,1650.0,1750.0,5.0,,,,,,,,,magenta,diamond
0.0,3.0,2.0,0.0,6.0,6.0,481.9024540001919,7.0,1.0,phase_2,go,1650.0,1750.0,1.0,,,,,,,,,white,flipped triangle
0.0,1.0,0.5,0.0,5.0,5.0,416.88909100003,7.0,1.0,phase_2,go,1650.0,1750.0,1.0,,,,,,,,,orange,hexagon
0.0,6.0,1.0,1.0,5.0,0.0,0.0,7.0,1.0,phase_2,stop,1650.0,1750.0,4.0,,,,,,,,,blue,cross
0.0,6.0,1.0,1.0,5.0,0.0,0.0,7.0,1.0,phase_2,stop,1700.0,1750.0,4.0,,,,,,,,,blue,cross
0.0,6.0,1.0,1.0,5.0,0.0,0.0,7.0,1.0,phase_2,go,1750.0,1750.0,5.0,,,,,,,,,blue,cross
0.0,4.0,4.0,0.0,5.0,5.0,464.860470000076,7.0,1.0,phase_2,go,1750.0,1750.0,1.0,,,,,,,,,green,triangle
0.0,3.0,2.0,0.0,6.0,6.0,479.4110249999903,7.0,1.0,phase_2,go,1750.0,1750.0,1.0,,,,,,,,,white,flipped triangle
0.0,1.0,0.5,0.0,5.0,5.0,390.2962989996013,7.0,1.0,phase_2,go,1750.0,1750.0,1.0,,,,,,,,,orange,hexagon
0.0,2.0,1.0,0.0,5.0,5.0,399.4046230000094,7.0,1.0,phase_2,go,1750.0,1750.0,1.0,,,,,,,,,yellow,circle
0.0,8.0,4.0,1.0,6.0,0.0,0.0,7.0,1.0,phase_2,go,1750.0,1750.0,5.0,,,,,,,,,cyan,I
0.0,8.0,4.0,1.0,6.0,0.0,0.0,7.0,1.0,phase_2,stop,1750.0,1750.0,4.0,,,,,,,,,cyan,I
0.0,6.0,1.0,1.0,6.0,0.0,0.0,7.0,1.0,phase_2,stop,1750.0,1800.0,4.0,,,,,,,,,blue,cross
0.0,7.0,2.0,1.0,5.0,0.0,0.0,7.0,1.0,phase_2,go,1750.0,1850.0,5.0,,,,,,,,,gray,square
0.0,4.0,4.0,0.0,6.0,6.0,510.5861729998651,7.0,1.0,phase_2,go,1750.0,1850.0,1.0,,,,,,,,,green,triangle
0.0,2.0,1.0,0.0,6.0,6.0,426.3866139999663,7.0,1.0,phase_2,go,1750.0,1850.0,1.0,,,,,,,,,yellow,circle
0.0,6.0,1.0,1.0,6.0,0.0,0.0,7.0,1.0,phase_2,stop,1750.0,1850.0,4.0,,,,,,,,,blue,cross
0.0,2.0,1.0,0.0,6.0,6.0,362.1894499997324,7.0,1.0,phase_2,go,1750.0,1900.0,1.0,,,,,,,,,yellow,circle
0.0,6.0,1.0,1.0,6.0,0.0,0.0,8.0,1.0,phase_2,stop,1750.0,1900.0,4.0,,,,,,,,,blue,cross
0.0,7.0,2.0,1.0,5.0,0.0,0.0,8.0,1.0,phase_2,go,1750.0,1950.0,5.0,,,,,,,,,gray,square
0.0,5.0,0.5,1.0,6.0,0.0,0.0,8.0,1.0,phase_2,go,1750.0,1950.0,5.0,,,,,,,,,magenta,diamond
0.0,2.0,1.0,0.0,5.0,5.0,507.2509980000177,8.0,1.0,phase_2,go,1750.0,1950.0,1.0,,,,,,,,,yellow,circle
0.0,3.0,2.0,0.0,5.0,5.0,379.431919000126,8.0,1.0,phase_2,go,1750.0,1950.0,1.0,,,,,,,,,white,flipped triangle
0.0,7.0,2.0,1.0,6.0,6.0,377.6601409999784,8.0,1.0,phase_2,stop,1750.0,1950.0,3.0,,,,,,,,,gray,square
0.0,7.0,2.0,1.0,6.0,6.0,840.2022840000427,8.0,1.0,phase_2,stop,1750.0,1900.0,3.0,,,,,,,,,gray,square
0.0,5.0,0.5,1.0,6.0,0.0,0.0,8.0,1.0,phase_2,stop,1750.0,1850.0,4.0,,,,,,,,,magenta,diamond
0.0,2.0,1.0,0.0,5.0,5.0,407.4087939998208,8.0,1.0,phase_2,go,1750.0,1900.0,1.0,,,,,,,,,yellow,circle
0.0,7.0,2.0,1.0,5.0,5.0,1738.9100350001172,8.0,1.0,phase_2,stop,1750.0,1900.0,3.0,,,,,,,,,gray,square
0.0,1.0,0.5,0.0,5.0,5.0,517.3964980003802,8.0,1.0,phase_2,go,1700.0,1900.0,1.0,,,,,,,,,orange,hexagon
0.0,5.0,0.5,1.0,6.0,0.0,0.0,8.0,1.0,phase_2,stop,1700.0,1900.0,4.0,,,,,,,,,magenta,diamond
0.0,2.0,1.0,0.0,6.0,6.0,444.8258319998786,8.0,1.0,phase_2,go,1700.0,1950.0,1.0,,,,,,,,,yellow,circle
0.0,8.0,4.0,1.0,5.0,0.0,0.0,8.0,1.0,phase_2,go,1700.0,1950.0,5.0,,,,,,,,,cyan,I
0.0,3.0,2.0,0.0,5.0,5.0,515.4280739998285,8.0,1.0,phase_2,go,1700.0,1950.0,1.0,,,,,,,,,white,flipped triangle
0.0,5.0,0.5,1.0,6.0,0.0,0.0,8.0,1.0,phase_2,go,1700.0,1950.0,5.0,,,,,,,,,magenta,diamond
0.0,1.0,0.5,0.0,5.0,5.0,516.4231350004229,8.0,1.0,phase_2,go,1700.0,1950.0,1.0,,,,,,,,,orange,hexagon
0.0,8.0,4.0,1.0,5.0,0.0,0.0,8.0,1.0,phase_2,stop,1700.0,1950.0,4.0,,,,,,,,,cyan,I
0.0,5.0,0.5,1.0,5.0,0.0,0.0,8.0,1.0,phase_2,stop,1750.0,1950.0,4.0,,,,,,,,,magenta,diamond
0.0,8.0,4.0,1.0,5.0,0.0,0.0,8.0,1.0,phase_2,stop,1800.0,1950.0,4.0,,,,,,,,,cyan,I
0.0,2.0,1.0,0.0,5.0,5.0,510.4300289999628,8.0,1.0,phase_2,go,1850.0,1950.0,1.0,,,,,,,,,yellow,circle
0.0,2.0,1.0,0.0,6.0,6.0,516.4234229996509,8.0,1.0,phase_2,go,1850.0,1950.0,1.0,,,,,,,,,yellow,circle
0.0,8.0,4.0,1.0,6.0,0.0,0.0,8.0,1.0,phase_2,stop,1850.0,1950.0,4.0,,,,,,,,,cyan,I
0.0,4.0,4.0,0.0,5.0,5.0,413.9147880000564,8.0,1.0,phase_2,go,1850.0,2000.0,1.0,,,,,,,,,green,triangle
0.0,7.0,2.0,1.0,5.0,0.0,0.0,8.0,1.0,phase_2,stop,1850.0,2000.0,4.0,,,,,,,,,gray,square
0.0,3.0,2.0,0.0,5.0,5.0,497.2789570001623,8.0,1.0,phase_2,go,1900.0,2000.0,1.0,,,,,,,,,white,flipped triangle
0.0,3.0,2.0,0.0,6.0,6.0,443.4683019999283,8.0,1.0,phase_2,go,1900.0,2000.0,1.0,,,,,,,,,white,flipped triangle
0.0,8.0,4.0,1.0,6.0,0.0,0.0,8.0,1.0,phase_2,stop,1900.0,2000.0,4.0,,,,,,,,,cyan,I
0.0,4.0,4.0,0.0,6.0,6.0,525.4909880000014,8.0,1.0,phase_2,go,1900.0,2050.0,1.0,,,,,,,,,green,triangle
0.0,7.0,2.0,1.0,5.0,0.0,0.0,8.0,1.0,phase_2,stop,1900.0,2050.0,4.0,,,,,,,,,gray,square
0.0,4.0,4.0,0.0,6.0,6.0,461.6324710000299,8.0,1.0,phase_2,go,1950.0,2050.0,1.0,,,,,,,,,green,triangle
0.0,5.0,0.5,1.0,5.0,0.0,0.0,8.0,1.0,phase_2,stop,1950.0,2050.0,4.0,,,,,,,,,magenta,diamond
0.0,1.0,0.5,0.0,6.0,6.0,1186.968649999926,8.0,1.0,phase_2,go,2000.0,2050.0,1.0,,,,,,,,,orange,hexagon
0.0,8.0,4.0,1.0,6.0,0.0,0.0,8.0,1.0,phase_2,stop,2000.0,2050.0,4.0,,,,,,,,,cyan,I
0.0,5.0,0.5,1.0,6.0,0.0,0.0,8.0,1.0,phase_2,stop,2000.0,2100.0,4.0,,,,,,,,,magenta,diamond
0.0,8.0,4.0,1.0,5.0,0.0,0.0,8.0,1.0,phase_2,stop,2000.0,2150.0,4.0,,,,,,,,,cyan,I
0.0,8.0,4.0,1.0,7.0,4.0,3217.195790999994,1.0,1.0,phase_3,,,,,768.0,4.0,960.0,384.0,1152.0,768.0,576.0,192.0,cyan,I
0.0,3.0,2.0,0.0,7.0,3.0,1323.7441129999752,1.0,2.0,phase_3,,,,,464.0,4.0,696.0,348.0,464.0,116.0,580.0,232.0,white,flipped triangle
0.0,5.0,0.5,1.0,7.0,2.0,2944.1114010001,1.0,1.0,phase_3,,,,,616.0,4.0,308.0,616.0,924.0,462.0,154.0,770.0,magenta,diamond
0.0,2.0,1.0,0.0,7.0,1.0,1798.188461999871,1.0,1.0,phase_3,,,,,173.0,1.0,173.0,346.0,692.0,519.0,1038.0,865.0,yellow,circle
0.0,3.0,2.0,0.0,7.0,2.0,1253.5009190000892,1.0,1.0,phase_3,,,,,576.0,3.0,1152.0,576.0,768.0,960.0,192.0,384.0,white,flipped triangle
0.0,3.0,2.0,0.0,7.0,5.0,1148.0525319998378,1.0,1.0,phase_3,,,,,270.0,2.0,810.0,675.0,135.0,540.0,270.0,405.0,white,flipped triangle
0.0,8.0,4.0,1.0,7.0,6.0,1781.46421800011,1.0,1.0,phase_3,,,,,865.0,5.0,1038.0,692.0,346.0,519.0,173.0,865.0,cyan,I
0.0,5.0,0.5,1.0,7.0,2.0,909.0101329998106,1.0,1.0,phase_3,,,,,405.0,3.0,675.0,405.0,270.0,135.0,540.0,810.0,magenta,diamond
0.0,6.0,1.0,1.0,7.0,4.0,442.3852850000003,1.0,1.0,phase_3,,,,,675.0,5.0,135.0,405.0,540.0,675.0,270.0,810.0,blue,cross
0.0,4.0,4.0,0.0,7.0,6.0,687.0773570003621,1.0,1.0,phase_3,,,,,192.0,1.0,576.0,768.0,960.0,384.0,1152.0,192.0,green,triangle
0.0,3.0,2.0,0.0,7.0,5.0,808.8538939996397,1.0,1.0,phase_3,,,,,580.0,5.0,464.0,696.0,232.0,348.0,580.0,116.0,white,flipped triangle
0.0,4.0,4.0,0.0,7.0,1.0,1094.4017189999613,1.0,1.0,phase_3,,,,,405.0,3.0,405.0,810.0,135.0,540.0,675.0,270.0,green,triangle
0.0,4.0,4.0,0.0,7.0,2.0,1028.5474160000376,1.0,1.0,phase_3,,,,,462.0,3.0,770.0,462.0,154.0,308.0,924.0,616.0,green,triangle
0.0,6.0,1.0,1.0,7.0,4.0,1178.1088770003407,1.0,1.0,phase_3,,,,,519.0,3.0,173.0,1038.0,346.0,519.0,692.0,865.0,blue,cross
0.0,7.0,2.0,1.0,7.0,2.0,1101.105128000199,1.0,1.0,phase_3,,,,,924.0,6.0,770.0,924.0,462.0,154.0,308.0,616.0,gray,square
0.0,3.0,2.0,0.0,7.0,2.0,1342.4036689998502,1.0,1.0,phase_3,,,,,576.0,3.0,384.0,576.0,1152.0,768.0,192.0,960.0,white,flipped triangle
0.0,1.0,0.5,0.0,7.0,2.0,1486.685392000254,1.0,1.0,phase_3,,,,,768.0,4.0,1152.0,768.0,192.0,576.0,384.0,960.0,orange,hexagon
0.0,2.0,1.0,0.0,7.0,2.0,1019.5804209997732,1.0,1.0,phase_3,,,,,173.0,1.0,1038.0,173.0,865.0,519.0,346.0,692.0,yellow,circle
0.0,7.0,2.0,1.0,7.0,3.0,1580.5635560000155,1.0,1.0,phase_3,,,,,464.0,4.0,116.0,232.0,464.0,696.0,580.0,348.0,gray,square
0.0,2.0,1.0,0.0,7.0,5.0,1336.5903280000566,1.0,1.0,phase_3,,,,,675.0,5.0,270.0,135.0,810.0,405.0,675.0,540.0,yellow,circle
0.0,6.0,1.0,1.0,7.0,2.0,862.9046190003464,2.0,1.0,phase_3,,,,,692.0,4.0,519.0,692.0,173.0,346.0,865.0,1038.0,blue,cross
0.0,2.0,1.0,0.0,7.0,6.0,1157.9083520000495,2.0,1.0,phase_3,,,,,616.0,4.0,308.0,462.0,770.0,924.0,154.0,616.0,yellow,circle
0.0,1.0,0.5,0.0,7.0,3.0,1070.711785000185,2.0,1.0,phase_3,,,,,405.0,3.0,675.0,810.0,405.0,135.0,270.0,540.0,orange,hexagon
0.0,3.0,2.0,0.0,7.0,4.0,1054.7455280002396,2.0,1.0,phase_3,,,,,270.0,2.0,540.0,810.0,135.0,270.0,675.0,405.0,white,flipped triangle
0.0,7.0,2.0,1.0,7.0,1.0,768.6438200003067,2.0,1.0,phase_3,,,,,464.0,4.0,464.0,580.0,348.0,232.0,116.0,696.0,gray,square
0.0,1.0,0.5,0.0,7.0,6.0,1345.8801209999365,2.0,1.0,phase_3,,,,,519.0,3.0,692.0,346.0,1038.0,865.0,173.0,519.0,orange,hexagon
0.0,7.0,2.0,1.0,7.0,1.0,879.6991549997983,2.0,1.0,phase_3,,,,,692.0,4.0,692.0,173.0,865.0,346.0,1038.0,519.0,gray,square
0.0,8.0,4.0,1.0,7.0,1.0,1134.6929739997904,2.0,1.0,phase_3,,,,,616.0,4.0,616.0,924.0,770.0,154.0,308.0,462.0,cyan,I
0.0,7.0,2.0,1.0,7.0,4.0,1535.575615000198,2.0,1.0,phase_3,,,,,768.0,4.0,384.0,960.0,576.0,768.0,192.0,1152.0,gray,square
0.0,6.0,1.0,1.0,7.0,5.0,1025.9970709998925,2.0,1.0,phase_3,,,,,464.0,4.0,232.0,696.0,580.0,116.0,464.0,348.0,blue,cross
0.0,7.0,2.0,1.0,7.0,1.0,1156.893134999791,2.0,1.0,phase_3,,,,,770.0,5.0,770.0,924.0,308.0,154.0,462.0,616.0,gray,square
0.0,2.0,1.0,0.0,7.0,2.0,1255.4885240001568,2.0,1.0,phase_3,,,,,192.0,1.0,960.0,192.0,384.0,1152.0,576.0,768.0,yellow,circle
0.0,8.0,4.0,1.0,7.0,2.0,995.19351500021,2.0,1.0,phase_3,,,,,405.0,3.0,810.0,405.0,270.0,675.0,135.0,540.0,cyan,I
0.0,8.0,4.0,1.0,7.0,3.0,1155.3574710001158,2.0,1.0,phase_3,,,,,519.0,3.0,346.0,1038.0,519.0,865.0,692.0,173.0,cyan,I
0.0,1.0,0.5,0.0,7.0,2.0,1351.2040290002003,2.0,1.0,phase_3,,,,,232.0,2.0,348.0,232.0,696.0,116.0,580.0,464.0,orange,hexagon
0.0,6.0,1.0,1.0,7.0,3.0,1084.1075010002896,2.0,1.0,phase_3,,,,,675.0,5.0,810.0,405.0,675.0,135.0,540.0,270.0,blue,cross
0.0,2.0,1.0,0.0,7.0,3.0,905.1620000000185,2.0,1.0,phase_3,,,,,464.0,4.0,696.0,116.0,464.0,232.0,348.0,580.0,yellow,circle
0.0,7.0,2.0,1.0,7.0,5.0,670.1263599998128,2.0,1.0,phase_3,,,,,540.0,4.0,810.0,270.0,135.0,675.0,540.0,405.0,gray,square
0.0,5.0,0.5,1.0,7.0,3.0,890.666581000005,2.0,1.0,phase_3,,,,,384.0,2.0,960.0,768.0,384.0,1152.0,576.0,192.0,magenta,diamond
0.0,3.0,2.0,0.0,7.0,3.0,844.2176400003518,2.0,1.0,phase_3,,,,,519.0,3.0,865.0,692.0,519.0,173.0,1038.0,346.0,white,flipped triangle
0.0,5.0,0.5,1.0,7.0,2.0,869.4801169999664,3.0,1.0,phase_3,,,,,405.0,3.0,270.0,405.0,810.0,675.0,135.0,540.0,magenta,diamond
0.0,4.0,4.0,0.0,7.0,5.0,991.6310999997222,3.0,1.0,phase_3,,,,,462.0,3.0,616.0,308.0,924.0,770.0,462.0,154.0,green,triangle
0.0,4.0,4.0,0.0,7.0,6.0,1166.205634999642,3.0,1.0,phase_3,,,,,519.0,3.0,692.0,865.0,346.0,1038.0,173.0,519.0,green,triangle
0.0,8.0,4.0,1.0,7.0,1.0,1239.7304999999506,3.0,1.0,phase_3,,,,,576.0,3.0,576.0,960.0,384.0,768.0,192.0,1152.0,cyan,I
0.0,1.0,0.5,0.0,7.0,1.0,1384.5803079998404,3.0,1.0,phase_3,,,,,405.0,3.0,405.0,810.0,135.0,675.0,540.0,270.0,orange,hexagon
0.0,5.0,0.5,1.0,7.0,5.0,1193.6822390002817,3.0,1.0,phase_3,,,,,346.0,2.0,692.0,173.0,519.0,865.0,346.0,1038.0,magenta,diamond
0.0,7.0,2.0,1.0,7.0,2.0,953.228068000044,3.0,1.0,phase_3,,,,,519.0,3.0,1038.0,519.0,173.0,346.0,692.0,865.0,gray,square
0.0,1.0,0.5,0.0,7.0,5.0,1121.758695999688,3.0,1.0,phase_3,,,,,616.0,4.0,462.0,770.0,308.0,924.0,616.0,154.0,orange,hexagon
0.0,5.0,0.5,1.0,7.0,2.0,1532.6727479996407,3.0,1.0,phase_3,,,,,462.0,3.0,924.0,462.0,154.0,770.0,616.0,308.0,magenta,diamond
0.0,6.0,1.0,1.0,7.0,2.0,1343.6653789999582,3.0,1.0,phase_3,,,,,462.0,3.0,616.0,462.0,924.0,154.0,308.0,770.0,blue,cross
0.0,1.0,0.5,0.0,7.0,4.0,1772.999461999916,3.0,1.0,phase_3,,,,,384.0,2.0,192.0,960.0,768.0,384.0,576.0,1152.0,orange,hexagon
0.0,6.0,1.0,1.0,7.0,5.0,1300.6815879998612,3.0,1.0,phase_3,,,,,580.0,5.0,116.0,348.0,232.0,696.0,580.0,464.0,blue,cross
0.0,1.0,0.5,0.0,7.0,6.0,1365.4883640001572,3.0,1.0,phase_3,,,,,462.0,3.0,308.0,924.0,616.0,154.0,770.0,462.0,orange,hexagon
0.0,5.0,0.5,1.0,7.0,5.0,1371.141216000069,3.0,1.0,phase_3,,,,,519.0,3.0,173.0,865.0,1038.0,346.0,519.0,692.0,magenta,diamond
0.0,8.0,4.0,1.0,7.0,2.0,1889.827002000402,3.0,1.0,phase_3,,,,,348.0,3.0,580.0,348.0,232.0,116.0,696.0,464.0,cyan,I
0.0,6.0,1.0,1.0,7.0,5.0,1143.8684780000583,3.0,1.0,phase_3,,,,,384.0,2.0,576.0,960.0,768.0,192.0,384.0,1152.0,blue,cross
0.0,3.0,2.0,0.0,7.0,5.0,1138.4952880002857,3.0,1.0,phase_3,,,,,616.0,4.0,462.0,308.0,770.0,924.0,616.0,154.0,white,flipped triangle
0.0,8.0,4.0,1.0,7.0,1.0,1112.4680450002415,3.0,1.0,phase_3,,,,,675.0,5.0,675.0,270.0,135.0,540.0,405.0,810.0,cyan,I
0.0,4.0,4.0,0.0,7.0,3.0,1054.2284909997759,3.0,1.0,phase_3,,,,,696.0,6.0,232.0,348.0,696.0,464.0,580.0,116.0,green,triangle
0.0,4.0,4.0,0.0,7.0,5.0,1081.839998000305,3.0,1.0,phase_3,,,,,519.0,3.0,346.0,1038.0,173.0,865.0,519.0,692.0,green,triangle
0.0,8.0,4.0,1.0,7.0,4.0,892.2169190000204,4.0,1.0,phase_3,,,,,462.0,3.0,616.0,308.0,924.0,462.0,770.0,154.0,cyan,I
0.0,2.0,1.0,0.0,7.0,4.0,747.2270889998072,4.0,1.0,phase_3,,,,,540.0,4.0,810.0,135.0,675.0,540.0,270.0,405.0,yellow,circle
0.0,1.0,0.5,0.0,7.0,1.0,892.404587999863,4.0,1.0,phase_3,,,,,464.0,4.0,464.0,696.0,348.0,580.0,116.0,232.0,orange,hexagon
0.0,2.0,1.0,0.0,7.0,6.0,1112.5776219996624,4.0,1.0,phase_3,,,,,308.0,2.0,154.0,462.0,616.0,770.0,924.0,308.0,yellow,circle
0.0,3.0,2.0,0.0,7.0,5.0,1434.145792000436,4.0,1.0,phase_3,,,,,346.0,2.0,1038.0,173.0,865.0,692.0,346.0,519.0,white,flipped triangle
0.0,7.0,2.0,1.0,7.0,5.0,1268.6036009999953,4.0,1.0,phase_3,,,,,540.0,4.0,405.0,270.0,135.0,675.0,540.0,810.0,gray,square
0.0,8.0,4.0,1.0,7.0,5.0,1063.4412589997737,4.0,1.0,phase_3,,,,,348.0,3.0,580.0,464.0,116.0,696.0,348.0,232.0,cyan,I
0.0,5.0,0.5,1.0,7.0,4.0,831.204322999838,4.0,1.0,phase_3,,,,,464.0,4.0,696.0,580.0,232.0,464.0,348.0,116.0,magenta,diamond
0.0,4.0,4.0,0.0,7.0,2.0,929.6373570000468,4.0,1.0,phase_3,,,,,576.0,3.0,1152.0,576.0,960.0,768.0,384.0,192.0,green,triangle
0.0,6.0,1.0,1.0,7.0,2.0,1405.8465039997827,4.0,1.0,phase_3,,,,,576.0,3.0,768.0,576.0,192.0,960.0,384.0,1152.0,blue,cross
0.0,6.0,1.0,1.0,7.0,5.0,640.3064149999409,4.0,1.0,phase_3,,,,,770.0,5.0,462.0,154.0,924.0,616.0,770.0,308.0,blue,cross
0.0,5.0,0.5,1.0,7.0,1.0,1908.1973560000731,4.0,1.0,phase_3,,,,,576.0,3.0,576.0,384.0,1152.0,960.0,192.0,768.0,magenta,diamond
0.0,2.0,1.0,0.0,7.0,4.0,1064.9064320000434,4.0,1.0,phase_3,,,,,576.0,3.0,1152.0,192.0,960.0,576.0,768.0,384.0,yellow,circle
0.0,5.0,0.5,1.0,7.0,4.0,1837.022165000235,4.0,1.0,phase_3,,,,,232.0,2.0,580.0,464.0,116.0,232.0,696.0,348.0,magenta,diamond
0.0,1.0,0.5,0.0,7.0,2.0,954.0151649998734,4.0,1.0,phase_3,,,,,346.0,2.0,1038.0,346.0,865.0,692.0,519.0,173.0,orange,hexagon
0.0,2.0,1.0,0.0,7.0,6.0,1060.3797589997157,4.0,1.0,phase_3,,,,,696.0,6.0,116.0,348.0,580.0,464.0,232.0,696.0,yellow,circle
0.0,7.0,2.0,1.0,7.0,5.0,683.2236600002943,4.0,1.0,phase_3,,,,,576.0,3.0,768.0,192.0,1152.0,384.0,576.0,960.0,gray,square
0.0,4.0,4.0,0.0,7.0,4.0,1152.932372000123,4.0,1.0,phase_3,,,,,405.0,3.0,540.0,270.0,675.0,405.0,135.0,810.0,green,triangle
0.0,4.0,4.0,0.0,7.0,4.0,1035.406127999977,4.0,1.0,phase_3,,,,,348.0,3.0,580.0,116.0,232.0,348.0,696.0,464.0,green,triangle
0.0,3.0,2.0,0.0,7.0,5.0,1582.2998730000108,4.0,1.0,phase_3,,,,,616.0,4.0,308.0,924.0,154.0,462.0,616.0,770.0,white,flipped triangle
