raw_reward_magnitude,stim_reward,stepwise_reward_magnitude,paired_with_stopping,quadrant,response,reaction_time,block,num_trial_presentations,which_part,stop_signal_trial_type,left_SSD,right_SSD,accuracy,chosen_bidding_amount,chosen_bidding_level,possible_bid_1,possible_bid_2,possible_bid_3,possible_bid_4,possible_bid_5,possible_bid_6,color_text,shape_text
645.0,7.0,3.0,1.0,4.0,4.0,407.2977570012881,1.0,1.0,part_1,,,,,,,,,,,,,blue,diamond
649.0,3.0,3.0,0.0,3.0,3.0,378.4773279985529,1.0,1.0,part_1,,,,,,,,,,,,,green,hexagon
653.0,7.0,3.0,1.0,1.0,1.0,350.8918299994548,1.0,1.0,part_1,,,,,,,,,,,,,blue,diamond
0.0,5.0,0.0,1.0,3.0,3.0,304.5360050000454,1.0,1.0,part_1,,,,,,,,,,,,,magenta,flipped triangle
1282.0,8.0,4.0,1.0,2.0,2.0,340.4526699996495,1.0,1.0,part_1,,,,,,,,,,,,,orange,circle
176.0,5.0,1.0,1.0,2.0,2.0,588.5597479991702,1.0,2.0,part_1,,,,,,,,,,,,,magenta,flipped triangle
0.0,4.0,0.0,0.0,1.0,1.0,374.1201249995356,1.0,1.0,part_1,,,,,,,,,,,,,white,square
139.0,5.0,1.0,1.0,3.0,3.0,374.6073599995725,1.0,1.0,part_1,,,,,,,,,,,,,magenta,flipped triangle
184.0,1.0,1.0,0.0,3.0,3.0,313.6296949996904,1.0,1.0,part_1,,,,,,,,,,,,,gray,triangle
665.0,7.0,3.0,1.0,3.0,3.0,360.1219579995813,1.0,1.0,part_1,,,,,,,,,,,,,blue,diamond
0.0,4.0,0.0,0.0,4.0,4.0,285.4789409993827,1.0,1.0,part_1,,,,,,,,,,,,,white,square
305.0,2.0,2.0,0.0,3.0,3.0,334.353727999769,1.0,1.0,part_1,,,,,,,,,,,,,yellow,I
1324.0,4.0,4.0,0.0,1.0,1.0,546.0918450007739,1.0,1.0,part_1,,,,,,,,,,,,,white,square
0.0,5.0,0.0,1.0,1.0,1.0,543.5552960007044,1.0,1.0,part_1,,,,,,,,,,,,,magenta,flipped triangle
0.0,2.0,0.0,0.0,1.0,1.0,528.3454439995694,1.0,1.0,part_1,,,,,,,,,,,,,yellow,I
314.0,2.0,2.0,0.0,1.0,1.0,560.187245000634,1.0,1.0,part_1,,,,,,,,,,,,,yellow,I
649.0,7.0,3.0,1.0,2.0,2.0,445.9671929998876,1.0,1.0,part_1,,,,,,,,,,,,,blue,diamond
1308.0,4.0,4.0,0.0,3.0,3.0,324.576775999958,1.0,1.0,part_1,,,,,,,,,,,,,white,square
1287.0,8.0,4.0,1.0,4.0,4.0,353.6643509996793,1.0,1.0,part_1,,,,,,,,,,,,,orange,circle
0.0,8.0,0.0,1.0,3.0,3.0,303.9033559998643,1.0,1.0,part_1,,,,,,,,,,,,,orange,circle
161.0,1.0,1.0,0.0,1.0,1.0,483.4493570015183,1.0,1.0,part_1,,,,,,,,,,,,,gray,triangle
142.0,5.0,1.0,1.0,3.0,3.0,303.9069419992302,1.0,1.0,part_1,,,,,,,,,,,,,magenta,flipped triangle
319.0,6.0,2.0,1.0,1.0,1.0,480.6549629993242,1.0,1.0,part_1,,,,,,,,,,,,,cyan,cross
1307.0,4.0,4.0,0.0,2.0,2.0,425.3962040002079,1.0,2.0,part_1,,,,,,,,,,,,,white,square
666.0,7.0,3.0,1.0,3.0,3.0,383.4486499999912,1.0,1.0,part_1,,,,,,,,,,,,,blue,diamond
0.0,7.0,0.0,1.0,3.0,3.0,350.8386150006117,1.0,1.0,part_1,,,,,,,,,,,,,blue,diamond
662.0,3.0,3.0,0.0,2.0,2.0,512.3930910012859,1.0,1.0,part_1,,,,,,,,,,,,,green,hexagon
661.0,3.0,3.0,0.0,2.0,2.0,381.5848530011863,1.0,1.0,part_1,,,,,,,,,,,,,green,hexagon
318.0,6.0,2.0,1.0,4.0,4.0,463.3599479984696,1.0,1.0,part_1,,,,,,,,,,,,,cyan,cross
663.0,7.0,3.0,1.0,2.0,2.0,550.3762389998883,1.0,1.0,part_1,,,,,,,,,,,,,blue,diamond
634.0,3.0,3.0,0.0,1.0,1.0,368.5269059988059,1.0,1.0,part_1,,,,,,,,,,,,,green,hexagon
314.0,6.0,2.0,1.0,2.0,2.0,493.9639120002539,1.0,1.0,part_1,,,,,,,,,,,,,cyan,cross
671.0,3.0,3.0,0.0,4.0,4.0,429.0302450008312,1.0,1.0,part_1,,,,,,,,,,,,,green,hexagon
1282.0,8.0,4.0,1.0,2.0,2.0,430.9242580002319,1.0,1.0,part_1,,,,,,,,,,,,,orange,circle
0.0,8.0,0.0,1.0,4.0,4.0,355.1733250005782,1.0,1.0,part_1,,,,,,,,,,,,,orange,circle
317.0,6.0,2.0,1.0,1.0,1.0,507.6020270007575,1.0,1.0,part_1,,,,,,,,,,,,,cyan,cross
653.0,3.0,3.0,0.0,3.0,3.0,398.5200990009616,1.0,1.0,part_1,,,,,,,,,,,,,green,hexagon
652.0,3.0,3.0,0.0,3.0,3.0,349.4871219991182,1.0,1.0,part_1,,,,,,,,,,,,,green,hexagon
1296.0,4.0,4.0,0.0,3.0,3.0,345.7483799993497,1.0,1.0,part_1,,,,,,,,,,,,,white,square
1296.0,8.0,4.0,1.0,3.0,3.0,320.0416060008137,1.0,1.0,part_1,,,,,,,,,,,,,orange,circle
151.0,5.0,1.0,1.0,4.0,4.0,341.4215459997649,1.0,1.0,part_1,,,,,,,,,,,,,magenta,flipped triangle
1305.0,8.0,4.0,1.0,1.0,1.0,358.9933369985374,1.0,1.0,part_1,,,,,,,,,,,,,orange,circle
0.0,3.0,0.0,0.0,2.0,2.0,361.8396279998705,1.0,2.0,part_1,,,,,,,,,,,,,green,hexagon
181.0,5.0,1.0,1.0,2.0,2.0,546.6560679997201,1.0,1.0,part_1,,,,,,,,,,,,,magenta,flipped triangle
0.0,7.0,0.0,1.0,3.0,3.0,361.334479001016,1.0,1.0,part_1,,,,,,,,,,,,,blue,diamond
0.0,8.0,0.0,1.0,2.0,2.0,454.1988449982455,1.0,1.0,part_1,,,,,,,,,,,,,orange,circle
305.0,6.0,2.0,1.0,3.0,3.0,331.8475800006126,1.0,1.0,part_1,,,,,,,,,,,,,cyan,cross
1303.0,4.0,4.0,0.0,3.0,3.0,303.9280819994019,1.0,1.0,part_1,,,,,,,,,,,,,white,square
662.0,7.0,3.0,1.0,1.0,1.0,393.862283000999,1.0,1.0,part_1,,,,,,,,,,,,,blue,diamond
634.0,7.0,3.0,1.0,4.0,4.0,474.0966909994313,1.0,1.0,part_1,,,,,,,,,,,,,blue,diamond
651.0,3.0,3.0,0.0,2.0,2.0,350.2378110006248,1.0,2.0,part_1,,,,,,,,,,,,,green,hexagon
0.0,5.0,0.0,1.0,1.0,1.0,405.9948840003926,1.0,1.0,part_1,,,,,,,,,,,,,magenta,flipped triangle
649.0,7.0,3.0,1.0,2.0,2.0,514.5580320004228,1.0,1.0,part_1,,,,,,,,,,,,,blue,diamond
667.0,7.0,3.0,1.0,2.0,2.0,387.1464380008547,1.0,1.0,part_1,,,,,,,,,,,,,blue,diamond
1285.0,8.0,4.0,1.0,1.0,1.0,366.5822609982569,1.0,1.0,part_1,,,,,,,,,,,,,orange,circle
311.0,6.0,2.0,1.0,3.0,3.0,387.2538819996407,1.0,1.0,part_1,,,,,,,,,,,,,cyan,cross
635.0,7.0,3.0,1.0,1.0,1.0,495.825963000243,1.0,1.0,part_1,,,,,,,,,,,,,blue,diamond
306.0,2.0,2.0,0.0,2.0,2.0,452.1782050014735,1.0,2.0,part_1,,,,,,,,,,,,,yellow,I
149.0,5.0,1.0,1.0,4.0,4.0,585.6094639984804,1.0,1.0,part_1,,,,,,,,,,,,,magenta,flipped triangle
155.0,5.0,1.0,1.0,2.0,2.0,410.1957089987991,1.0,1.0,part_1,,,,,,,,,,,,,magenta,flipped triangle
170.0,5.0,1.0,1.0,3.0,3.0,415.7191929989494,1.0,1.0,part_1,,,,,,,,,,,,,magenta,flipped triangle
646.0,7.0,3.0,1.0,1.0,1.0,615.5182410002453,1.0,2.0,part_1,,,,,,,,,,,,,blue,diamond
0.0,4.0,0.0,0.0,3.0,3.0,466.5224330001365,1.0,1.0,part_1,,,,,,,,,,,,,white,square
646.0,7.0,3.0,1.0,2.0,2.0,330.6847500007279,1.0,1.0,part_1,,,,,,,,,,,,,blue,diamond
0.0,1.0,0.0,0.0,2.0,2.0,398.0619899994053,1.0,1.0,part_1,,,,,,,,,,,,,gray,triangle
0.0,6.0,0.0,1.0,2.0,2.0,388.3473730002151,1.0,1.0,part_1,,,,,,,,,,,,,cyan,cross
649.0,3.0,3.0,0.0,1.0,1.0,500.6180310010677,1.0,1.0,part_1,,,,,,,,,,,,,green,hexagon
1307.0,8.0,4.0,1.0,3.0,3.0,427.3027850013022,1.0,1.0,part_1,,,,,,,,,,,,,orange,circle
184.0,5.0,1.0,1.0,4.0,4.0,351.6614379987004,1.0,1.0,part_1,,,,,,,,,,,,,magenta,flipped triangle
1314.0,4.0,4.0,0.0,2.0,2.0,352.9573019986856,1.0,1.0,part_1,,,,,,,,,,,,,white,square
1285.0,8.0,4.0,1.0,2.0,2.0,349.1392960004305,1.0,1.0,part_1,,,,,,,,,,,,,orange,circle
0.0,3.0,0.0,0.0,1.0,1.0,350.9762859994225,1.0,1.0,part_1,,,,,,,,,,,,,green,hexagon
1291.0,8.0,4.0,1.0,3.0,3.0,365.5060130004131,1.0,1.0,part_1,,,,,,,,,,,,,orange,circle
625.0,7.0,3.0,1.0,3.0,3.0,339.5328509996034,1.0,1.0,part_1,,,,,,,,,,,,,blue,diamond
0.0,3.0,0.0,0.0,3.0,3.0,318.8793619992793,1.0,1.0,part_1,,,,,,,,,,,,,green,hexagon
182.0,1.0,1.0,0.0,3.0,3.0,393.7462559988489,1.0,1.0,part_1,,,,,,,,,,,,,gray,triangle
147.0,1.0,1.0,0.0,1.0,1.0,602.5978130001022,1.0,2.0,part_1,,,,,,,,,,,,,gray,triangle
0.0,7.0,0.0,1.0,2.0,2.0,557.2945500007336,1.0,2.0,part_1,,,,,,,,,,,,,blue,diamond
0.0,5.0,0.0,1.0,1.0,1.0,581.2989589994686,1.0,1.0,part_1,,,,,,,,,,,,,magenta,flipped triangle
1310.0,8.0,4.0,1.0,3.0,3.0,375.5138579999766,1.0,1.0,part_1,,,,,,,,,,,,,orange,circle
1295.0,4.0,4.0,0.0,3.0,3.0,354.3118130000948,1.0,1.0,part_1,,,,,,,,,,,,,white,square
174.0,1.0,1.0,0.0,2.0,2.0,505.787150001197,1.0,1.0,part_1,,,,,,,,,,,,,gray,triangle
0.0,6.0,0.0,1.0,3.0,3.0,451.3395689991739,1.0,1.0,part_1,,,,,,,,,,,,,cyan,cross
181.0,1.0,1.0,0.0,4.0,4.0,512.0544549990882,1.0,1.0,part_1,,,,,,,,,,,,,gray,triangle
165.0,1.0,1.0,0.0,4.0,4.0,413.5387770002126,1.0,1.0,part_1,,,,,,,,,,,,,gray,triangle
330.0,2.0,2.0,0.0,4.0,4.0,404.1324679983518,1.0,1.0,part_1,,,,,,,,,,,,,yellow,I
1297.0,4.0,4.0,0.0,4.0,4.0,369.4725269997434,1.0,1.0,part_1,,,,,,,,,,,,,white,square
1299.0,8.0,4.0,1.0,3.0,3.0,420.0218159985525,1.0,1.0,part_1,,,,,,,,,,,,,orange,circle
164.0,5.0,1.0,1.0,1.0,1.0,634.1265320006642,1.0,1.0,part_1,,,,,,,,,,,,,magenta,flipped triangle
657.0,3.0,3.0,0.0,3.0,3.0,365.2829709990328,1.0,1.0,part_1,,,,,,,,,,,,,green,hexagon
137.0,1.0,1.0,0.0,3.0,3.0,343.1624910008395,1.0,1.0,part_1,,,,,,,,,,,,,gray,triangle
350.0,2.0,2.0,0.0,1.0,1.0,612.1099579995644,1.0,1.0,part_1,,,,,,,,,,,,,yellow,I
0.0,5.0,0.0,1.0,3.0,3.0,599.7435609988315,1.0,1.0,part_1,,,,,,,,,,,,,magenta,flipped triangle
1324.0,8.0,4.0,1.0,3.0,3.0,367.2047430009115,1.0,1.0,part_1,,,,,,,,,,,,,orange,circle
631.0,7.0,3.0,1.0,4.0,4.0,505.7304380006826,1.0,1.0,part_1,,,,,,,,,,,,,blue,diamond
141.0,1.0,1.0,0.0,3.0,3.0,365.4799349988025,1.0,1.0,part_1,,,,,,,,,,,,,gray,triangle
663.0,3.0,3.0,0.0,3.0,3.0,328.2001549996494,1.0,1.0,part_1,,,,,,,,,,,,,green,hexagon
323.0,6.0,2.0,1.0,2.0,2.0,551.918523000495,1.0,1.0,part_1,,,,,,,,,,,,,cyan,cross
178.0,1.0,1.0,0.0,4.0,4.0,404.1197209990059,1.0,1.0,part_1,,,,,,,,,,,,,gray,triangle
139.0,5.0,1.0,1.0,4.0,4.0,388.7329820008744,1.0,1.0,part_1,,,,,,,,,,,,,magenta,flipped triangle
674.0,3.0,3.0,0.0,1.0,1.0,507.3307439997734,2.0,1.0,part_1,,,,,,,,,,,,,green,hexagon
1297.0,8.0,4.0,1.0,1.0,1.0,402.4186330007069,2.0,1.0,part_1,,,,,,,,,,,,,orange,circle
632.0,3.0,3.0,0.0,1.0,1.0,367.4187480010005,2.0,1.0,part_1,,,,,,,,,,,,,green,hexagon
316.0,6.0,2.0,1.0,3.0,3.0,330.4241069999989,2.0,1.0,part_1,,,,,,,,,,,,,cyan,cross
0.0,4.0,0.0,0.0,2.0,2.0,446.9320159987546,2.0,1.0,part_1,,,,,,,,,,,,,white,square
0.0,2.0,0.0,0.0,1.0,1.0,391.9822890002251,2.0,1.0,part_1,,,,,,,,,,,,,yellow,I
165.0,5.0,1.0,1.0,2.0,2.0,651.7563270008395,2.0,1.0,part_1,,,,,,,,,,,,,magenta,flipped triangle
0.0,3.0,0.0,0.0,3.0,3.0,336.0574779999297,2.0,1.0,part_1,,,,,,,,,,,,,green,hexagon
307.0,2.0,2.0,0.0,3.0,3.0,308.8160999996034,2.0,1.0,part_1,,,,,,,,,,,,,yellow,I
646.0,3.0,3.0,0.0,4.0,4.0,439.2455290017096,2.0,1.0,part_1,,,,,,,,,,,,,green,hexagon
1299.0,8.0,4.0,1.0,3.0,3.0,346.4110429995344,2.0,1.0,part_1,,,,,,,,,,,,,orange,circle
639.0,7.0,3.0,1.0,4.0,4.0,354.2976630014891,2.0,2.0,part_1,,,,,,,,,,,,,blue,diamond
0.0,3.0,0.0,0.0,1.0,1.0,437.7802590006467,2.0,1.0,part_1,,,,,,,,,,,,,green,hexagon
657.0,7.0,3.0,1.0,2.0,2.0,634.74546299949,2.0,1.0,part_1,,,,,,,,,,,,,blue,diamond
0.0,8.0,0.0,1.0,2.0,2.0,400.42861099937,2.0,1.0,part_1,,,,,,,,,,,,,orange,circle
1287.0,4.0,4.0,0.0,2.0,2.0,392.895180000778,2.0,1.0,part_1,,,,,,,,,,,,,white,square
164.0,1.0,1.0,0.0,1.0,1.0,512.208713000291,2.0,2.0,part_1,,,,,,,,,,,,,gray,triangle
347.0,2.0,2.0,0.0,4.0,4.0,363.6756380001316,2.0,1.0,part_1,,,,,,,,,,,,,yellow,I
625.0,3.0,3.0,0.0,1.0,1.0,438.8750859998254,2.0,1.0,part_1,,,,,,,,,,,,,green,hexagon
346.0,2.0,2.0,0.0,3.0,3.0,410.626881999633,2.0,1.0,part_1,,,,,,,,,,,,,yellow,I
0.0,8.0,0.0,1.0,1.0,1.0,476.9258950000221,2.0,1.0,part_1,,,,,,,,,,,,,orange,circle
144.0,5.0,1.0,1.0,1.0,1.0,485.2924909991998,2.0,1.0,part_1,,,,,,,,,,,,,magenta,flipped triangle
0.0,8.0,0.0,1.0,3.0,3.0,344.8815070005366,2.0,1.0,part_1,,,,,,,,,,,,,orange,circle
1321.0,4.0,4.0,0.0,1.0,1.0,410.0075869991997,2.0,1.0,part_1,,,,,,,,,,,,,white,square
186.0,1.0,1.0,0.0,3.0,3.0,345.7277779998549,2.0,1.0,part_1,,,,,,,,,,,,,gray,triangle
1277.0,8.0,4.0,1.0,2.0,2.0,373.4893460004969,2.0,2.0,part_1,,,,,,,,,,,,,orange,circle
672.0,7.0,3.0,1.0,1.0,1.0,411.2103290008235,2.0,1.0,part_1,,,,,,,,,,,,,blue,diamond
1314.0,8.0,4.0,1.0,1.0,1.0,420.0435029997607,2.0,1.0,part_1,,,,,,,,,,,,,orange,circle
316.0,2.0,2.0,0.0,4.0,4.0,478.3133689998067,2.0,1.0,part_1,,,,,,,,,,,,,yellow,I
142.0,1.0,1.0,0.0,2.0,2.0,744.8959649991593,2.0,1.0,part_1,,,,,,,,,,,,,gray,triangle
159.0,1.0,1.0,0.0,2.0,2.0,391.8147490003321,2.0,1.0,part_1,,,,,,,,,,,,,gray,triangle
342.0,6.0,2.0,1.0,3.0,3.0,390.3756810013874,2.0,1.0,part_1,,,,,,,,,,,,,cyan,cross
629.0,7.0,3.0,1.0,1.0,1.0,382.7436199990188,2.0,1.0,part_1,,,,,,,,,,,,,blue,diamond
334.0,6.0,2.0,1.0,2.0,2.0,529.7588459998224,2.0,2.0,part_1,,,,,,,,,,,,,cyan,cross
176.0,1.0,1.0,0.0,2.0,2.0,373.4379990000889,2.0,1.0,part_1,,,,,,,,,,,,,gray,triangle
186.0,1.0,1.0,0.0,1.0,1.0,401.3351119992876,2.0,1.0,part_1,,,,,,,,,,,,,gray,triangle
1284.0,4.0,4.0,0.0,1.0,1.0,400.0985980001132,2.0,1.0,part_1,,,,,,,,,,,,,white,square
1303.0,8.0,4.0,1.0,2.0,2.0,446.8433570000343,2.0,1.0,part_1,,,,,,,,,,,,,orange,circle
155.0,1.0,1.0,0.0,1.0,1.0,354.2422839982464,2.0,1.0,part_1,,,,,,,,,,,,,gray,triangle
631.0,7.0,3.0,1.0,4.0,4.0,465.8616040014749,2.0,1.0,part_1,,,,,,,,,,,,,blue,diamond
631.0,3.0,3.0,0.0,3.0,3.0,446.9228999987535,2.0,1.0,part_1,,,,,,,,,,,,,green,hexagon
1290.0,4.0,4.0,0.0,4.0,4.0,521.4389570010098,2.0,1.0,part_1,,,,,,,,,,,,,white,square
305.0,2.0,2.0,0.0,3.0,3.0,336.0015349990135,2.0,1.0,part_1,,,,,,,,,,,,,yellow,I
1295.0,8.0,4.0,1.0,4.0,4.0,335.458445999393,2.0,1.0,part_1,,,,,,,,,,,,,orange,circle
176.0,1.0,1.0,0.0,4.0,4.0,391.3680009991367,2.0,1.0,part_1,,,,,,,,,,,,,gray,triangle
0.0,6.0,0.0,1.0,3.0,3.0,345.8801880005921,2.0,1.0,part_1,,,,,,,,,,,,,cyan,cross
1311.0,4.0,4.0,0.0,1.0,1.0,605.8868820000498,2.0,1.0,part_1,,,,,,,,,,,,,white,square
141.0,5.0,1.0,1.0,2.0,2.0,597.7499729997362,2.0,1.0,part_1,,,,,,,,,,,,,magenta,flipped triangle
1308.0,8.0,4.0,1.0,1.0,1.0,550.0042520015995,2.0,1.0,part_1,,,,,,,,,,,,,orange,circle
334.0,2.0,2.0,0.0,2.0,2.0,512.7342870000575,2.0,1.0,part_1,,,,,,,,,,,,,yellow,I
150.0,1.0,1.0,0.0,2.0,2.0,457.0906429999013,2.0,1.0,part_1,,,,,,,,,,,,,gray,triangle
186.0,5.0,1.0,1.0,3.0,3.0,345.8606099993631,2.0,1.0,part_1,,,,,,,,,,,,,magenta,flipped triangle
325.0,6.0,2.0,1.0,2.0,2.0,465.6646120001824,2.0,1.0,part_1,,,,,,,,,,,,,cyan,cross
349.0,2.0,2.0,0.0,4.0,4.0,354.1695350013469,2.0,1.0,part_1,,,,,,,,,,,,,yellow,I
303.0,2.0,2.0,0.0,2.0,2.0,417.9812450001918,2.0,1.0,part_1,,,,,,,,,,,,,yellow,I
349.0,6.0,2.0,1.0,3.0,3.0,317.7335820000735,2.0,1.0,part_1,,,,,,,,,,,,,cyan,cross
0.0,2.0,0.0,0.0,2.0,2.0,475.1063900002918,2.0,1.0,part_1,,,,,,,,,,,,,yellow,I
665.0,3.0,3.0,0.0,2.0,2.0,372.8385739996156,2.0,1.0,part_1,,,,,,,,,,,,,green,hexagon
335.0,6.0,2.0,1.0,1.0,1.0,363.0074459997559,2.0,1.0,part_1,,,,,,,,,,,,,cyan,cross
644.0,3.0,3.0,0.0,1.0,1.0,317.5009520000458,2.0,1.0,part_1,,,,,,,,,,,,,green,hexagon
1311.0,8.0,4.0,1.0,3.0,3.0,306.9669469987275,2.0,1.0,part_1,,,,,,,,,,,,,orange,circle
0.0,2.0,0.0,0.0,3.0,3.0,343.1110040000931,2.0,1.0,part_1,,,,,,,,,,,,,yellow,I
142.0,5.0,1.0,1.0,4.0,4.0,409.483151999666,2.0,1.0,part_1,,,,,,,,,,,,,magenta,flipped triangle
0.0,6.0,0.0,1.0,3.0,3.0,316.7834920004679,2.0,1.0,part_1,,,,,,,,,,,,,cyan,cross
0.0,2.0,0.0,0.0,4.0,4.0,306.4520360003371,2.0,1.0,part_1,,,,,,,,,,,,,yellow,I
1277.0,8.0,4.0,1.0,4.0,4.0,373.3119249991432,2.0,1.0,part_1,,,,,,,,,,,,,orange,circle
184.0,1.0,1.0,0.0,4.0,4.0,401.983724999809,2.0,1.0,part_1,,,,,,,,,,,,,gray,triangle
653.0,3.0,3.0,0.0,1.0,1.0,572.0801129991742,2.0,1.0,part_1,,,,,,,,,,,,,green,hexagon
1288.0,4.0,4.0,0.0,2.0,2.0,494.7049700003845,2.0,1.0,part_1,,,,,,,,,,,,,white,square
0.0,1.0,0.0,0.0,3.0,3.0,392.7260919990658,2.0,1.0,part_1,,,,,,,,,,,,,gray,triangle
305.0,6.0,2.0,1.0,4.0,4.0,317.5531449996924,2.0,1.0,part_1,,,,,,,,,,,,,cyan,cross
308.0,6.0,2.0,1.0,1.0,1.0,402.7543070005777,2.0,1.0,part_1,,,,,,,,,,,,,cyan,cross
1291.0,4.0,4.0,0.0,2.0,2.0,447.7423770003952,2.0,1.0,part_1,,,,,,,,,,,,,white,square
302.0,6.0,2.0,1.0,3.0,3.0,316.3559670010727,2.0,1.0,part_1,,,,,,,,,,,,,cyan,cross
646.0,3.0,3.0,0.0,4.0,4.0,297.3373659988283,2.0,1.0,part_1,,,,,,,,,,,,,green,hexagon
342.0,6.0,2.0,1.0,4.0,4.0,344.918251999843,2.0,1.0,part_1,,,,,,,,,,,,,cyan,cross
0.0,2.0,0.0,0.0,2.0,2.0,521.5940950001823,2.0,1.0,part_1,,,,,,,,,,,,,yellow,I
1277.0,4.0,4.0,0.0,3.0,3.0,316.9740799985447,2.0,1.0,part_1,,,,,,,,,,,,,white,square
1300.0,4.0,4.0,0.0,4.0,4.0,269.6536610001203,2.0,1.0,part_1,,,,,,,,,,,,,white,square
182.0,5.0,1.0,1.0,3.0,3.0,317.3495090013603,2.0,1.0,part_1,,,,,,,,,,,,,magenta,flipped triangle
350.0,6.0,2.0,1.0,3.0,3.0,336.2643030013714,2.0,1.0,part_1,,,,,,,,,,,,,cyan,cross
1291.0,8.0,4.0,1.0,4.0,4.0,289.0596750003169,2.0,1.0,part_1,,,,,,,,,,,,,orange,circle
303.0,6.0,2.0,1.0,1.0,1.0,427.577389000362,2.0,1.0,part_1,,,,,,,,,,,,,cyan,cross
1320.0,8.0,4.0,1.0,1.0,1.0,401.5522909994615,2.0,1.0,part_1,,,,,,,,,,,,,orange,circle
0.0,3.0,0.0,0.0,4.0,4.0,336.4731670008041,2.0,1.0,part_1,,,,,,,,,,,,,green,hexagon
625.0,7.0,3.0,1.0,3.0,3.0,363.7688750004599,2.0,1.0,part_1,,,,,,,,,,,,,blue,diamond
305.0,2.0,2.0,0.0,4.0,4.0,316.5023929996096,2.0,1.0,part_1,,,,,,,,,,,,,yellow,I
159.0,5.0,1.0,1.0,2.0,2.0,317.808079000315,2.0,1.0,part_1,,,,,,,,,,,,,magenta,flipped triangle
335.0,6.0,2.0,1.0,1.0,1.0,363.3725700001378,2.0,2.0,part_1,,,,,,,,,,,,,cyan,cross
1324.0,4.0,4.0,0.0,4.0,4.0,354.008000000249,2.0,1.0,part_1,,,,,,,,,,,,,white,square
0.0,7.0,0.0,1.0,4.0,4.0,318.2994190010504,2.0,1.0,part_1,,,,,,,,,,,,,blue,diamond
0.0,4.0,0.0,0.0,1.0,1.0,344.5372209989727,2.0,1.0,part_1,,,,,,,,,,,,,white,square
349.0,2.0,2.0,0.0,4.0,4.0,381.8288919992483,2.0,1.0,part_1,,,,,,,,,,,,,yellow,I
305.0,6.0,2.0,1.0,4.0,4.0,337.0070130004023,2.0,1.0,part_1,,,,,,,,,,,,,cyan,cross
328.0,2.0,2.0,0.0,3.0,3.0,503.090856000199,2.0,1.0,part_1,,,,,,,,,,,,,yellow,I
641.0,7.0,3.0,1.0,1.0,1.0,690.8214119994227,2.0,1.0,part_1,,,,,,,,,,,,,blue,diamond
1284.0,8.0,4.0,1.0,4.0,4.0,382.4733180008479,2.0,1.0,part_1,,,,,,,,,,,,,orange,circle
667.0,3.0,3.0,0.0,1.0,1.0,409.4358319998719,2.0,1.0,part_1,,,,,,,,,,,,,green,hexagon
658.0,7.0,3.0,1.0,3.0,3.0,334.4353419997787,2.0,1.0,part_1,,,,,,,,,,,,,blue,diamond
186.0,5.0,1.0,1.0,3.0,3.0,327.0628910013329,2.0,1.0,part_1,,,,,,,,,,,,,magenta,flipped triangle
1324.0,8.0,4.0,1.0,4.0,4.0,336.9983269985823,3.0,1.0,part_1,,,,,,,,,,,,,orange,circle
308.0,2.0,2.0,0.0,4.0,4.0,383.4675260004587,3.0,1.0,part_1,,,,,,,,,,,,,yellow,I
1291.0,4.0,4.0,0.0,4.0,4.0,328.1093470013729,3.0,1.0,part_1,,,,,,,,,,,,,white,square
0.0,1.0,0.0,0.0,4.0,4.0,354.0075519995298,3.0,1.0,part_1,,,,,,,,,,,,,gray,triangle
0.0,3.0,0.0,0.0,1.0,1.0,355.4899830014619,3.0,1.0,part_1,,,,,,,,,,,,,green,hexagon
0.0,5.0,0.0,1.0,4.0,4.0,328.4274759989785,3.0,1.0,part_1,,,,,,,,,,,,,magenta,flipped triangle
328.0,6.0,2.0,1.0,1.0,1.0,401.3975460002257,3.0,1.0,part_1,,,,,,,,,,,,,cyan,cross
183.0,1.0,1.0,0.0,4.0,4.0,377.1841420002602,3.0,1.0,part_1,,,,,,,,,,,,,gray,triangle
344.0,6.0,2.0,1.0,3.0,3.0,354.96628399960167,3.0,1.0,part_1,,,,,,,,,,,,,cyan,cross
671.0,3.0,3.0,0.0,4.0,4.0,318.4757439994428,3.0,1.0,part_1,,,,,,,,,,,,,green,hexagon
178.0,5.0,1.0,1.0,1.0,1.0,410.7835109989537,3.0,1.0,part_1,,,,,,,,,,,,,magenta,flipped triangle
171.0,5.0,1.0,1.0,2.0,2.0,458.9509069992346,3.0,1.0,part_1,,,,,,,,,,,,,magenta,flipped triangle
645.0,3.0,3.0,0.0,2.0,2.0,400.2284609996422,3.0,1.0,part_1,,,,,,,,,,,,,green,hexagon
657.0,3.0,3.0,0.0,2.0,2.0,318.5913000015716,3.0,1.0,part_1,,,,,,,,,,,,,green,hexagon
1275.0,8.0,4.0,1.0,4.0,4.0,382.9762839995965,3.0,1.0,part_1,,,,,,,,,,,,,orange,circle
317.0,2.0,2.0,0.0,2.0,2.0,495.6218259994784,3.0,1.0,part_1,,,,,,,,,,,,,yellow,I
176.0,5.0,1.0,1.0,1.0,1.0,623.6980159992527,3.0,1.0,part_1,,,,,,,,,,,,,magenta,flipped triangle
0.0,2.0,0.0,0.0,1.0,1.0,399.4192110003496,3.0,1.0,part_1,,,,,,,,,,,,,yellow,I
170.0,1.0,1.0,0.0,4.0,4.0,345.7854579992272,3.0,1.0,part_1,,,,,,,,,,,,,gray,triangle
651.0,7.0,3.0,1.0,2.0,2.0,484.9488910003856,3.0,1.0,part_1,,,,,,,,,,,,,blue,diamond
153.0,5.0,1.0,1.0,1.0,1.0,429.1716360003192,3.0,1.0,part_1,,,,,,,,,,,,,magenta,flipped triangle
346.0,6.0,2.0,1.0,4.0,4.0,308.193950999339,3.0,1.0,part_1,,,,,,,,,,,,,cyan,cross
650.0,3.0,3.0,0.0,4.0,4.0,345.0566479987174,3.0,1.0,part_1,,,,,,,,,,,,,green,hexagon
0.0,8.0,0.0,1.0,3.0,3.0,458.3561159997771,3.0,1.0,part_1,,,,,,,,,,,,,orange,circle
0.0,3.0,0.0,0.0,1.0,1.0,401.4896320004482,3.0,1.0,part_1,,,,,,,,,,,,,green,hexagon
628.0,7.0,3.0,1.0,4.0,4.0,364.5227760007401,3.0,1.0,part_1,,,,,,,,,,,,,blue,diamond
153.0,1.0,1.0,0.0,1.0,1.0,375.0665839997964,3.0,1.0,part_1,,,,,,,,,,,,,gray,triangle
338.0,2.0,2.0,0.0,2.0,2.0,402.4199010000302,3.0,1.0,part_1,,,,,,,,,,,,,yellow,I
635.0,3.0,3.0,0.0,1.0,1.0,478.2031319991802,3.0,1.0,part_1,,,,,,,,,,,,,green,hexagon
333.0,2.0,2.0,0.0,1.0,1.0,447.8354040002159,3.0,1.0,part_1,,,,,,,,,,,,,yellow,I
1277.0,4.0,4.0,0.0,2.0,2.0,429.7898759996315,3.0,1.0,part_1,,,,,,,,,,,,,white,square
1305.0,4.0,4.0,0.0,4.0,4.0,420.9366949999094,3.0,1.0,part_1,,,,,,,,,,,,,white,square
0.0,7.0,0.0,1.0,3.0,3.0,336.7229149989725,3.0,1.0,part_1,,,,,,,,,,,,,blue,diamond
0.0,8.0,0.0,1.0,2.0,2.0,420.2795370001695,3.0,1.0,part_1,,,,,,,,,,,,,orange,circle
1311.0,4.0,4.0,0.0,2.0,2.0,382.7041099993948,3.0,1.0,part_1,,,,,,,,,,,,,white,square
1288.0,4.0,4.0,0.0,3.0,3.0,326.4314030002424,3.0,1.0,part_1,,,,,,,,,,,,,white,square
1288.0,8.0,4.0,1.0,1.0,1.0,430.0976150007045,3.0,1.0,part_1,,,,,,,,,,,,,orange,circle
629.0,3.0,3.0,0.0,2.0,2.0,383.8757240009727,3.0,2.0,part_1,,,,,,,,,,,,,green,hexagon
338.0,6.0,2.0,1.0,4.0,4.0,400.5336930003977,3.0,1.0,part_1,,,,,,,,,,,,,cyan,cross
175.0,1.0,1.0,0.0,2.0,2.0,391.6842230009933,3.0,1.0,part_1,,,,,,,,,,,,,gray,triangle
1312.0,8.0,4.0,1.0,3.0,3.0,364.3250120003358,3.0,1.0,part_1,,,,,,,,,,,,,orange,circle
661.0,7.0,3.0,1.0,1.0,1.0,356.051729999308,3.0,1.0,part_1,,,,,,,,,,,,,blue,diamond
328.0,2.0,2.0,0.0,3.0,3.0,354.1243640011089,3.0,1.0,part_1,,,,,,,,,,,,,yellow,I
663.0,7.0,3.0,1.0,3.0,3.0,345.6527939997613,3.0,1.0,part_1,,,,,,,,,,,,,blue,diamond
1322.0,4.0,4.0,0.0,2.0,2.0,354.7529169991321,3.0,1.0,part_1,,,,,,,,,,,,,white,square
333.0,6.0,2.0,1.0,4.0,4.0,409.960366998348,3.0,1.0,part_1,,,,,,,,,,,,,cyan,cross
332.0,2.0,2.0,0.0,4.0,4.0,328.007145999436,3.0,1.0,part_1,,,,,,,,,,,,,yellow,I
657.0,7.0,3.0,1.0,4.0,4.0,317.1796239985269,3.0,1.0,part_1,,,,,,,,,,,,,blue,diamond
632.0,7.0,3.0,1.0,4.0,4.0,364.689599000485,3.0,1.0,part_1,,,,,,,,,,,,,blue,diamond
302.0,6.0,2.0,1.0,3.0,3.0,382.8217309983301,3.0,1.0,part_1,,,,,,,,,,,,,cyan,cross
0.0,8.0,0.0,1.0,3.0,3.0,326.2228089988639,3.0,1.0,part_1,,,,,,,,,,,,,orange,circle
328.0,6.0,2.0,1.0,4.0,4.0,326.8017289992713,3.0,1.0,part_1,,,,,,,,,,,,,cyan,cross
328.0,6.0,2.0,1.0,1.0,1.0,420.7556339988514,3.0,1.0,part_1,,,,,,,,,,,,,cyan,cross
671.0,7.0,3.0,1.0,2.0,2.0,419.8021749998588,3.0,2.0,part_1,,,,,,,,,,,,,blue,diamond
0.0,5.0,0.0,1.0,4.0,4.0,383.58029399933,3.0,1.0,part_1,,,,,,,,,,,,,magenta,flipped triangle
184.0,5.0,1.0,1.0,3.0,3.0,317.6442660005705,3.0,1.0,part_1,,,,,,,,,,,,,magenta,flipped triangle
161.0,5.0,1.0,1.0,3.0,3.0,336.1370929997065,3.0,1.0,part_1,,,,,,,,,,,,,magenta,flipped triangle
1288.0,8.0,4.0,1.0,1.0,1.0,540.8622529994318,3.0,1.0,part_1,,,,,,,,,,,,,orange,circle
0.0,6.0,0.0,1.0,1.0,1.0,495.8498119995056,3.0,1.0,part_1,,,,,,,,,,,,,cyan,cross
342.0,2.0,2.0,0.0,4.0,4.0,401.8757569992885,3.0,1.0,part_1,,,,,,,,,,,,,yellow,I
641.0,7.0,3.0,1.0,2.0,2.0,410.7695189995866,3.0,2.0,part_1,,,,,,,,,,,,,blue,diamond
1297.0,4.0,4.0,0.0,3.0,3.0,447.4439109999366,3.0,1.0,part_1,,,,,,,,,,,,,white,square
1319.0,4.0,4.0,0.0,4.0,4.0,446.3563270001032,3.0,1.0,part_1,,,,,,,,,,,,,white,square
138.0,5.0,1.0,1.0,4.0,4.0,429.3444199993246,3.0,1.0,part_1,,,,,,,,,,,,,magenta,flipped triangle
148.0,1.0,1.0,0.0,4.0,4.0,335.7724649995361,3.0,1.0,part_1,,,,,,,,,,,,,gray,triangle
653.0,3.0,3.0,0.0,3.0,3.0,381.9367930009321,3.0,1.0,part_1,,,,,,,,,,,,,green,hexagon
323.0,2.0,2.0,0.0,1.0,1.0,483.6639969998941,3.0,1.0,part_1,,,,,,,,,,,,,yellow,I
0.0,7.0,0.0,1.0,3.0,3.0,335.042300999703,3.0,1.0,part_1,,,,,,,,,,,,,blue,diamond
671.0,3.0,3.0,0.0,4.0,4.0,325.7134479990782,3.0,1.0,part_1,,,,,,,,,,,,,green,hexagon
658.0,3.0,3.0,0.0,3.0,3.0,362.0630290006374,3.0,1.0,part_1,,,,,,,,,,,,,green,hexagon
147.0,5.0,1.0,1.0,1.0,1.0,503.134072998364,3.0,1.0,part_1,,,,,,,,,,,,,magenta,flipped triangle
171.0,1.0,1.0,0.0,3.0,3.0,326.6701140000805,3.0,1.0,part_1,,,,,,,,,,,,,gray,triangle
644.0,7.0,3.0,1.0,3.0,3.0,381.6947890009032,3.0,1.0,part_1,,,,,,,,,,,,,blue,diamond
1299.0,4.0,4.0,0.0,2.0,2.0,438.0103160001454,3.0,1.0,part_1,,,,,,,,,,,,,white,square
1290.0,8.0,4.0,1.0,2.0,2.0,475.0915909989999,3.0,1.0,part_1,,,,,,,,,,,,,orange,circle
1299.0,4.0,4.0,0.0,4.0,4.0,465.4051500001515,3.0,1.0,part_1,,,,,,,,,,,,,white,square
0.0,7.0,0.0,1.0,4.0,4.0,362.7096410000376,3.0,1.0,part_1,,,,,,,,,,,,,blue,diamond
1315.0,8.0,4.0,1.0,4.0,4.0,456.6737520017341,3.0,1.0,part_1,,,,,,,,,,,,,orange,circle
625.0,3.0,3.0,0.0,1.0,1.0,503.35925900071743,3.0,1.0,part_1,,,,,,,,,,,,,green,hexagon
148.0,5.0,1.0,1.0,4.0,4.0,391.7690030011727,3.0,1.0,part_1,,,,,,,,,,,,,magenta,flipped triangle
671.0,7.0,3.0,1.0,1.0,1.0,390.1781900003698,3.0,1.0,part_1,,,,,,,,,,,,,blue,diamond
319.0,6.0,2.0,1.0,1.0,1.0,409.8544629996468,3.0,1.0,part_1,,,,,,,,,,,,,cyan,cross
0.0,6.0,0.0,1.0,1.0,1.0,381.3925249996828,3.0,1.0,part_1,,,,,,,,,,,,,cyan,cross
149.0,1.0,1.0,0.0,3.0,3.0,456.0570030007511,3.0,1.0,part_1,,,,,,,,,,,,,gray,triangle
144.0,1.0,1.0,0.0,1.0,1.0,622.5166519998311,3.0,1.0,part_1,,,,,,,,,,,,,gray,triangle
663.0,3.0,3.0,0.0,4.0,4.0,372.236036000686,3.0,1.0,part_1,,,,,,,,,,,,,green,hexagon
168.0,5.0,1.0,1.0,1.0,1.0,401.022712001577,3.0,1.0,part_1,,,,,,,,,,,,,magenta,flipped triangle
0.0,2.0,0.0,0.0,4.0,4.0,335.0238860002719,3.0,1.0,part_1,,,,,,,,,,,,,yellow,I
1311.0,8.0,4.0,1.0,2.0,2.0,614.4982959995104,3.0,1.0,part_1,,,,,,,,,,,,,orange,circle
0.0,6.0,0.0,1.0,4.0,4.0,428.6601070016331,3.0,1.0,part_1,,,,,,,,,,,,,cyan,cross
325.0,2.0,2.0,0.0,2.0,2.0,828.8609969986283,3.0,1.0,part_1,,,,,,,,,,,,,yellow,I
178.0,5.0,1.0,1.0,3.0,3.0,363.3245599994552,3.0,1.0,part_1,,,,,,,,,,,,,magenta,flipped triangle
150.0,5.0,1.0,1.0,2.0,2.0,418.7371890002396,3.0,1.0,part_1,,,,,,,,,,,,,magenta,flipped triangle
1319.0,8.0,4.0,1.0,1.0,1.0,542.344094001237,3.0,1.0,part_1,,,,,,,,,,,,,orange,circle
342.0,2.0,2.0,0.0,1.0,1.0,392.0034620005026,3.0,1.0,part_1,,,,,,,,,,,,,yellow,I
161.0,5.0,1.0,1.0,1.0,1.0,400.0584069999604,3.0,1.0,part_1,,,,,,,,,,,,,magenta,flipped triangle
178.0,5.0,1.0,1.0,4.0,4.0,364.0412389995617,3.0,1.0,part_1,,,,,,,,,,,,,magenta,flipped triangle
1315.0,4.0,4.0,0.0,1.0,1.0,399.5234569993044,3.0,1.0,part_1,,,,,,,,,,,,,white,square
168.0,1.0,1.0,0.0,4.0,4.0,382.0378170003096,3.0,1.0,part_1,,,,,,,,,,,,,gray,triangle
0.0,4.0,0.0,0.0,2.0,2.0,539.5514249994449,3.0,1.0,part_1,,,,,,,,,,,,,white,square
317.0,6.0,2.0,1.0,2.0,2.0,464.6682650000002,4.0,1.0,part_1,,,,,,,,,,,,,cyan,cross
319.0,2.0,2.0,0.0,4.0,4.0,375.332851001076,4.0,1.0,part_1,,,,,,,,,,,,,yellow,I
0.0,3.0,0.0,0.0,4.0,4.0,384.7408159999759,4.0,1.0,part_1,,,,,,,,,,,,,green,hexagon
0.0,1.0,0.0,0.0,1.0,1.0,401.9938069995987,4.0,1.0,part_1,,,,,,,,,,,,,gray,triangle
347.0,6.0,2.0,1.0,4.0,4.0,326.6203830007725,4.0,1.0,part_1,,,,,,,,,,,,,cyan,cross
323.0,6.0,2.0,1.0,2.0,2.0,458.0677529993409,4.0,1.0,part_1,,,,,,,,,,,,,cyan,cross
639.0,3.0,3.0,0.0,4.0,4.0,317.3279719994752,4.0,1.0,part_1,,,,,,,,,,,,,green,hexagon
641.0,3.0,3.0,0.0,2.0,2.0,354.5025659987004,4.0,1.0,part_1,,,,,,,,,,,,,green,hexagon
349.0,6.0,2.0,1.0,1.0,1.0,437.5952250011323,4.0,1.0,part_1,,,,,,,,,,,,,cyan,cross
311.0,2.0,2.0,0.0,2.0,2.0,401.8680850003875,4.0,1.0,part_1,,,,,,,,,,,,,yellow,I
157.0,5.0,1.0,1.0,2.0,2.0,391.6492870012007,4.0,1.0,part_1,,,,,,,,,,,,,magenta,flipped triangle
0.0,4.0,0.0,0.0,1.0,1.0,373.8031809989479,4.0,1.0,part_1,,,,,,,,,,,,,white,square
0.0,6.0,0.0,1.0,1.0,1.0,383.640596000987,4.0,1.0,part_1,,,,,,,,,,,,,cyan,cross
344.0,2.0,2.0,0.0,3.0,3.0,381.2118130008457,4.0,1.0,part_1,,,,,,,,,,,,,yellow,I
0.0,4.0,0.0,0.0,4.0,4.0,327.2744629994122,4.0,1.0,part_1,,,,,,,,,,,,,white,square
0.0,7.0,0.0,1.0,4.0,4.0,353.7187809997704,4.0,1.0,part_1,,,,,,,,,,,,,blue,diamond
147.0,5.0,1.0,1.0,1.0,1.0,344.9032940006873,4.0,1.0,part_1,,,,,,,,,,,,,magenta,flipped triangle
1282.0,4.0,4.0,0.0,2.0,2.0,391.5432950016111,4.0,1.0,part_1,,,,,,,,,,,,,white,square
1321.0,8.0,4.0,1.0,2.0,2.0,381.9848759994784,4.0,1.0,part_1,,,,,,,,,,,,,orange,circle
1322.0,8.0,4.0,1.0,4.0,4.0,344.5646439995471,4.0,1.0,part_1,,,,,,,,,,,,,orange,circle
151.0,1.0,1.0,0.0,1.0,1.0,390.7377220002672,4.0,1.0,part_1,,,,,,,,,,,,,gray,triangle
174.0,5.0,1.0,1.0,2.0,2.0,383.0473369998799,4.0,1.0,part_1,,,,,,,,,,,,,magenta,flipped triangle
341.0,2.0,2.0,0.0,2.0,2.0,326.3919849996455,4.0,1.0,part_1,,,,,,,,,,,,,yellow,I
161.0,1.0,1.0,0.0,3.0,3.0,355.1396889997704,4.0,1.0,part_1,,,,,,,,,,,,,gray,triangle
0.0,5.0,0.0,1.0,1.0,1.0,447.5292689985508,4.0,1.0,part_1,,,,,,,,,,,,,magenta,flipped triangle
302.0,2.0,2.0,0.0,1.0,1.0,392.1763160014961,4.0,1.0,part_1,,,,,,,,,,,,,yellow,I
139.0,1.0,1.0,0.0,1.0,1.0,344.9891029995342,4.0,1.0,part_1,,,,,,,,,,,,,gray,triangle
306.0,6.0,2.0,1.0,2.0,2.0,382.4347280005895,4.0,1.0,part_1,,,,,,,,,,,,,cyan,cross
0.0,1.0,0.0,0.0,1.0,1.0,374.3067699997482,4.0,1.0,part_1,,,,,,,,,,,,,gray,triangle
0.0,6.0,0.0,1.0,1.0,1.0,346.8899349991261,4.0,1.0,part_1,,,,,,,,,,,,,cyan,cross
142.0,1.0,1.0,0.0,2.0,2.0,429.5415729993692,4.0,1.0,part_1,,,,,,,,,,,,,gray,triangle
1275.0,4.0,4.0,0.0,3.0,3.0,325.737711000329,4.0,1.0,part_1,,,,,,,,,,,,,white,square
1319.0,4.0,4.0,0.0,1.0,1.0,355.2179810012603,4.0,1.0,part_1,,,,,,,,,,,,,white,square
157.0,5.0,1.0,1.0,3.0,3.0,326.4634600000136,4.0,1.0,part_1,,,,,,,,,,,,,magenta,flipped triangle
1285.0,4.0,4.0,0.0,4.0,4.0,482.8751229997579,4.0,1.0,part_1,,,,,,,,,,,,,white,square
1320.0,4.0,4.0,0.0,1.0,1.0,354.0784479991998,4.0,1.0,part_1,,,,,,,,,,,,,white,square
652.0,7.0,3.0,1.0,1.0,1.0,334.4081899995217,4.0,1.0,part_1,,,,,,,,,,,,,blue,diamond
1289.0,4.0,4.0,0.0,1.0,1.0,353.3839210012957,4.0,1.0,part_1,,,,,,,,,,,,,white,square
0.0,7.0,0.0,1.0,2.0,2.0,520.3799209994031,4.0,1.0,part_1,,,,,,,,,,,,,blue,diamond
0.0,7.0,0.0,1.0,1.0,1.0,362.8465929996309,4.0,1.0,part_1,,,,,,,,,,,,,blue,diamond
0.0,2.0,0.0,0.0,3.0,3.0,418.7068279989034,4.0,1.0,part_1,,,,,,,,,,,,,yellow,I
0.0,1.0,0.0,0.0,3.0,3.0,326.2153640007454,4.0,1.0,part_1,,,,,,,,,,,,,gray,triangle
318.0,2.0,2.0,0.0,1.0,1.0,325.5064990007668,4.0,1.0,part_1,,,,,,,,,,,,,yellow,I
674.0,7.0,3.0,1.0,4.0,4.0,307.5702570004068,4.0,1.0,part_1,,,,,,,,,,,,,blue,diamond
0.0,6.0,0.0,1.0,4.0,4.0,296.7400229990744,4.0,1.0,part_1,,,,,,,,,,,,,cyan,cross
338.0,6.0,2.0,1.0,3.0,3.0,316.5079739992507,4.0,1.0,part_1,,,,,,,,,,,,,cyan,cross
650.0,7.0,3.0,1.0,2.0,2.0,306.5997640005662,4.0,1.0,part_1,,,,,,,,,,,,,blue,diamond
341.0,6.0,2.0,1.0,2.0,2.0,307.3548439988371,4.0,1.0,part_1,,,,,,,,,,,,,cyan,cross
302.0,2.0,2.0,0.0,3.0,3.0,315.8887950012286,4.0,1.0,part_1,,,,,,,,,,,,,yellow,I
0.0,1.0,0.0,0.0,3.0,3.0,363.8510130003851,4.0,1.0,part_1,,,,,,,,,,,,,gray,triangle
330.0,6.0,2.0,1.0,4.0,4.0,335.2246839986037,4.0,1.0,part_1,,,,,,,,,,,,,cyan,cross
175.0,5.0,1.0,1.0,4.0,4.0,307.4028709997947,4.0,1.0,part_1,,,,,,,,,,,,,magenta,flipped triangle
0.0,1.0,0.0,0.0,3.0,3.0,363.675754999349,4.0,1.0,part_1,,,,,,,,,,,,,gray,triangle
338.0,2.0,2.0,0.0,1.0,1.0,512.5618219990429,4.0,1.0,part_1,,,,,,,,,,,,,yellow,I
0.0,4.0,0.0,0.0,1.0,1.0,345.3218579998065,4.0,1.0,part_1,,,,,,,,,,,,,white,square
1289.0,8.0,4.0,1.0,3.0,3.0,355.0878419991932,4.0,1.0,part_1,,,,,,,,,,,,,orange,circle
1297.0,8.0,4.0,1.0,2.0,2.0,465.7081009991088,4.0,1.0,part_1,,,,,,,,,,,,,orange,circle
1319.0,8.0,4.0,1.0,4.0,4.0,335.7659550001699,4.0,1.0,part_1,,,,,,,,,,,,,orange,circle
332.0,6.0,2.0,1.0,2.0,2.0,401.1678000006213,4.0,1.0,part_1,,,,,,,,,,,,,cyan,cross
658.0,3.0,3.0,0.0,3.0,3.0,317.9064819996711,4.0,1.0,part_1,,,,,,,,,,,,,green,hexagon
0.0,5.0,0.0,1.0,2.0,2.0,391.5285259990924,4.0,1.0,part_1,,,,,,,,,,,,,magenta,flipped triangle
653.0,7.0,3.0,1.0,3.0,3.0,326.6722149983252,4.0,1.0,part_1,,,,,,,,,,,,,blue,diamond
138.0,1.0,1.0,0.0,4.0,4.0,344.200171999546,4.0,1.0,part_1,,,,,,,,,,,,,gray,triangle
1282.0,8.0,4.0,1.0,2.0,2.0,353.7270140004693,4.0,1.0,part_1,,,,,,,,,,,,,orange,circle
178.0,1.0,1.0,0.0,2.0,2.0,354.3933410001045,4.0,1.0,part_1,,,,,,,,,,,,,gray,triangle
0.0,1.0,0.0,0.0,3.0,3.0,288.5327459989639,4.0,1.0,part_1,,,,,,,,,,,,,gray,triangle
0.0,5.0,0.0,1.0,3.0,3.0,289.2171779985801,4.0,1.0,part_1,,,,,,,,,,,,,magenta,flipped triangle
672.0,3.0,3.0,0.0,4.0,4.0,326.4134170003672,4.0,1.0,part_1,,,,,,,,,,,,,green,hexagon
1300.0,8.0,4.0,1.0,1.0,1.0,381.3866780001262,4.0,1.0,part_1,,,,,,,,,,,,,orange,circle
1285.0,4.0,4.0,0.0,1.0,1.0,316.5547309999965,4.0,1.0,part_1,,,,,,,,,,,,,white,square
653.0,7.0,3.0,1.0,4.0,4.0,371.8045040004654,4.0,1.0,part_1,,,,,,,,,,,,,blue,diamond
1310.0,4.0,4.0,0.0,4.0,4.0,335.6263850000687,4.0,1.0,part_1,,,,,,,,,,,,,white,square
183.0,5.0,1.0,1.0,1.0,1.0,335.1894970001012,4.0,1.0,part_1,,,,,,,,,,,,,magenta,flipped triangle
0.0,8.0,0.0,1.0,1.0,1.0,401.0748769997008,4.0,1.0,part_1,,,,,,,,,,,,,orange,circle
1282.0,4.0,4.0,0.0,1.0,1.0,353.1433810003364,4.0,1.0,part_1,,,,,,,,,,,,,white,square
1282.0,4.0,4.0,0.0,3.0,3.0,326.2974030003533,4.0,1.0,part_1,,,,,,,,,,,,,white,square
147.0,1.0,1.0,0.0,1.0,1.0,428.4763889991154,4.0,1.0,part_1,,,,,,,,,,,,,gray,triangle
137.0,5.0,1.0,1.0,4.0,4.0,316.6958279998653,4.0,1.0,part_1,,,,,,,,,,,,,magenta,flipped triangle
0.0,4.0,0.0,0.0,1.0,1.0,410.6373890008399,4.0,1.0,part_1,,,,,,,,,,,,,white,square
139.0,1.0,1.0,0.0,3.0,3.0,343.9130219994695,4.0,1.0,part_1,,,,,,,,,,,,,gray,triangle
178.0,1.0,1.0,0.0,2.0,2.0,586.4145730010932,4.0,2.0,part_1,,,,,,,,,,,,,gray,triangle
628.0,3.0,3.0,0.0,4.0,4.0,317.2557079997204,4.0,1.0,part_1,,,,,,,,,,,,,green,hexagon
335.0,2.0,2.0,0.0,2.0,2.0,428.7096419993759,4.0,1.0,part_1,,,,,,,,,,,,,yellow,I
335.0,2.0,2.0,0.0,1.0,1.0,567.2427320005227,4.0,1.0,part_1,,,,,,,,,,,,,yellow,I
666.0,3.0,3.0,0.0,3.0,3.0,316.1360880003485,4.0,1.0,part_1,,,,,,,,,,,,,green,hexagon
157.0,1.0,1.0,0.0,3.0,3.0,353.7525869996898,4.0,1.0,part_1,,,,,,,,,,,,,gray,triangle
671.0,7.0,3.0,1.0,3.0,3.0,316.36941000033397,4.0,1.0,part_1,,,,,,,,,,,,,blue,diamond
0.0,1.0,0.0,0.0,3.0,3.0,335.9550770001078,4.0,1.0,part_1,,,,,,,,,,,,,gray,triangle
307.0,6.0,2.0,1.0,2.0,2.0,417.7019449998624,4.0,1.0,part_1,,,,,,,,,,,,,cyan,cross
319.0,2.0,2.0,0.0,3.0,3.0,298.3355800006393,4.0,1.0,part_1,,,,,,,,,,,,,yellow,I
658.0,7.0,3.0,1.0,3.0,3.0,307.6524319985765,4.0,1.0,part_1,,,,,,,,,,,,,blue,diamond
157.0,1.0,1.0,0.0,2.0,2.0,391.2524930001382,4.0,1.0,part_1,,,,,,,,,,,,,gray,triangle
1312.0,4.0,4.0,0.0,3.0,3.0,316.8309459997545,4.0,1.0,part_1,,,,,,,,,,,,,white,square
317.0,2.0,2.0,0.0,3.0,3.0,345.2686879991233,4.0,1.0,part_1,,,,,,,,,,,,,yellow,I
328.0,2.0,2.0,0.0,2.0,2.0,362.9468290000659,4.0,1.0,part_1,,,,,,,,,,,,,yellow,I
641.0,3.0,3.0,0.0,2.0,2.0,316.0593249995145,4.0,1.0,part_1,,,,,,,,,,,,,green,hexagon
631.0,3.0,3.0,0.0,2.0,2.0,297.4579410001752,4.0,1.0,part_1,,,,,,,,,,,,,green,hexagon
323.0,2.0,2.0,0.0,1.0,1.0,502.61255399891525,4.0,1.0,part_1,,,,,,,,,,,,,yellow,I
0.0,3.0,0.0,0.0,3.0,3.0,298.4556070005055,4.0,1.0,part_1,,,,,,,,,,,,,green,hexagon
0.0,2.0,0.0,0.0,3.0,3.0,317.5295330001972,4.0,1.0,part_1,,,,,,,,,,,,,yellow,I
0.0,5.0,1.0,1.0,5.0,0.0,0.0,1.0,0.0,part_2,stop,250.0,250.0,4.0,,,,,,,,,magenta,flipped triangle
0.0,6.0,2.0,1.0,5.0,5.0,449.0504680015874,1.0,0.0,part_2,stop,300.0,250.0,3.0,,,,,,,,,cyan,cross
0.0,6.0,2.0,1.0,6.0,0.0,0.0,1.0,0.0,part_2,stop,250.0,250.0,4.0,,,,,,,,,cyan,cross
0.0,4.0,4.0,0.0,5.0,5.0,535.1340060005896,1.0,0.0,part_2,go,250.0,300.0,1.0,,,,,,,,,white,square
0.0,4.0,4.0,0.0,6.0,6.0,488.942746000248,1.0,0.0,part_2,go,250.0,300.0,1.0,,,,,,,,,white,square
0.0,7.0,3.0,1.0,6.0,6.0,505.0978689996555,1.0,0.0,part_2,go,250.0,300.0,1.0,,,,,,,,,blue,diamond
0.0,3.0,3.0,0.0,5.0,5.0,619.9085139996896,1.0,0.0,part_2,go,250.0,300.0,1.0,,,,,,,,,green,hexagon
0.0,1.0,1.0,0.0,6.0,6.0,609.1474879995076,1.0,0.0,part_2,go,250.0,300.0,1.0,,,,,,,,,gray,triangle
0.0,7.0,3.0,1.0,5.0,0.0,0.0,1.0,0.0,part_2,stop,250.0,300.0,4.0,,,,,,,,,blue,diamond
0.0,6.0,2.0,1.0,6.0,0.0,0.0,1.0,0.0,part_2,stop,300.0,300.0,4.0,,,,,,,,,cyan,cross
0.0,4.0,4.0,0.0,5.0,5.0,486.688906999916,1.0,0.0,part_2,go,300.0,350.0,1.0,,,,,,,,,white,square
0.0,8.0,4.0,1.0,6.0,6.0,500.6995799994911,1.0,0.0,part_2,stop,300.0,350.0,3.0,,,,,,,,,orange,circle
0.0,7.0,3.0,1.0,5.0,0.0,0.0,1.0,0.0,part_2,stop,300.0,300.0,4.0,,,,,,,,,blue,diamond
0.0,2.0,2.0,0.0,5.0,5.0,441.972276999877,1.0,0.0,part_2,go,350.0,300.0,1.0,,,,,,,,,yellow,I
0.0,7.0,3.0,1.0,5.0,0.0,0.0,1.0,0.0,part_2,stop,350.0,300.0,4.0,,,,,,,,,blue,diamond
0.0,3.0,3.0,0.0,6.0,6.0,652.7845550008351,1.0,0.0,part_2,go,400.0,300.0,1.0,,,,,,,,,green,hexagon
0.0,2.0,2.0,0.0,5.0,5.0,693.0836989995441,1.0,0.0,part_2,go,400.0,300.0,1.0,,,,,,,,,yellow,I
0.0,6.0,2.0,1.0,5.0,5.0,741.8780269999843,1.0,0.0,part_2,go,400.0,300.0,1.0,,,,,,,,,cyan,cross
0.0,4.0,4.0,0.0,5.0,5.0,704.1568189997633,1.0,0.0,part_2,go,400.0,300.0,1.0,,,,,,,,,white,square
0.0,1.0,1.0,0.0,5.0,5.0,964.707927998461,1.0,0.0,part_2,go,400.0,300.0,1.0,,,,,,,,,gray,triangle
0.0,3.0,3.0,0.0,5.0,5.0,730.7894929999748,1.0,0.0,part_2,go,400.0,300.0,1.0,,,,,,,,,green,hexagon
0.0,5.0,1.0,1.0,6.0,0.0,0.0,1.0,0.0,part_2,stop,400.0,300.0,4.0,,,,,,,,,magenta,flipped triangle
0.0,5.0,1.0,1.0,6.0,0.0,0.0,1.0,0.0,part_2,stop,400.0,350.0,4.0,,,,,,,,,magenta,flipped triangle
0.0,8.0,4.0,1.0,5.0,0.0,0.0,1.0,0.0,part_2,stop,400.0,400.0,4.0,,,,,,,,,orange,circle
0.0,1.0,1.0,0.0,6.0,6.0,835.4524180012959,1.0,0.0,part_2,go,450.0,400.0,1.0,,,,,,,,,gray,triangle
0.0,1.0,1.0,0.0,5.0,5.0,786.1732380006288,1.0,0.0,part_2,go,450.0,400.0,1.0,,,,,,,,,gray,triangle
0.0,3.0,3.0,0.0,5.0,5.0,564.0419100000145,1.0,0.0,part_2,go,450.0,400.0,1.0,,,,,,,,,green,hexagon
0.0,8.0,4.0,1.0,5.0,5.0,347.5119119993906,1.0,0.0,part_2,go,450.0,400.0,1.0,,,,,,,,,orange,circle
0.0,7.0,3.0,1.0,6.0,6.0,440.5955889997131,1.0,0.0,part_2,stop,450.0,400.0,3.0,,,,,,,,,blue,diamond
0.0,2.0,2.0,0.0,5.0,5.0,646.9502780000767,1.0,0.0,part_2,go,450.0,350.0,1.0,,,,,,,,,yellow,I
0.0,7.0,3.0,1.0,6.0,6.0,536.2731120003446,1.0,0.0,part_2,stop,450.0,350.0,3.0,,,,,,,,,blue,diamond
0.0,1.0,1.0,0.0,6.0,6.0,693.5792009990109,1.0,0.0,part_2,go,450.0,300.0,1.0,,,,,,,,,gray,triangle
0.0,2.0,2.0,0.0,5.0,5.0,535.0456169999234,1.0,0.0,part_2,go,450.0,300.0,1.0,,,,,,,,,yellow,I
0.0,5.0,1.0,1.0,5.0,0.0,0.0,1.0,0.0,part_2,stop,450.0,300.0,4.0,,,,,,,,,magenta,flipped triangle
0.0,7.0,3.0,1.0,6.0,0.0,0.0,1.0,0.0,part_2,stop,500.0,300.0,4.0,,,,,,,,,blue,diamond
0.0,4.0,4.0,0.0,5.0,5.0,533.1799420000607,1.0,0.0,part_2,go,500.0,350.0,1.0,,,,,,,,,white,square
0.0,8.0,4.0,1.0,6.0,6.0,487.4844500009203,2.0,0.0,part_2,stop,500.0,350.0,3.0,,,,,,,,,orange,circle
0.0,5.0,1.0,1.0,6.0,0.0,0.0,2.0,0.0,part_2,stop,500.0,300.0,4.0,,,,,,,,,magenta,flipped triangle
0.0,4.0,4.0,0.0,6.0,6.0,543.5004940009094,2.0,0.0,part_2,go,500.0,350.0,1.0,,,,,,,,,white,square
0.0,2.0,2.0,0.0,6.0,6.0,571.3872969990916,2.0,0.0,part_2,go,500.0,350.0,1.0,,,,,,,,,yellow,I
0.0,2.0,2.0,0.0,6.0,6.0,572.0194189998438,2.0,0.0,part_2,go,500.0,350.0,1.0,,,,,,,,,yellow,I
0.0,8.0,4.0,1.0,5.0,5.0,543.045248999988,2.0,0.0,part_2,stop,500.0,350.0,3.0,,,,,,,,,orange,circle
0.0,6.0,2.0,1.0,6.0,0.0,0.0,2.0,0.0,part_2,stop,450.0,350.0,4.0,,,,,,,,,cyan,cross
0.0,3.0,3.0,0.0,5.0,5.0,646.6269820011803,2.0,0.0,part_2,go,450.0,400.0,1.0,,,,,,,,,green,hexagon
0.0,2.0,2.0,0.0,6.0,6.0,785.6765119995544,2.0,0.0,part_2,go,450.0,400.0,1.0,,,,,,,,,yellow,I
0.0,3.0,3.0,0.0,5.0,5.0,600.2646329998242,2.0,0.0,part_2,go,450.0,400.0,1.0,,,,,,,,,green,hexagon
0.0,7.0,3.0,1.0,6.0,0.0,0.0,2.0,0.0,part_2,stop,450.0,400.0,4.0,,,,,,,,,blue,diamond
0.0,5.0,1.0,1.0,6.0,0.0,0.0,2.0,0.0,part_2,stop,450.0,450.0,4.0,,,,,,,,,magenta,flipped triangle
0.0,4.0,4.0,0.0,5.0,5.0,741.4418810003554,2.0,0.0,part_2,go,450.0,500.0,1.0,,,,,,,,,white,square
0.0,7.0,3.0,1.0,6.0,6.0,826.847390999319,2.0,0.0,part_2,go,450.0,500.0,1.0,,,,,,,,,blue,diamond
0.0,3.0,3.0,0.0,5.0,5.0,738.8413200005743,2.0,0.0,part_2,go,450.0,500.0,1.0,,,,,,,,,green,hexagon
0.0,1.0,1.0,0.0,5.0,5.0,824.6182040002168,2.0,0.0,part_2,go,450.0,500.0,1.0,,,,,,,,,gray,triangle
0.0,4.0,4.0,0.0,6.0,6.0,450.1733870001771,2.0,0.0,part_2,go,450.0,500.0,1.0,,,,,,,,,white,square
0.0,6.0,2.0,1.0,5.0,5.0,599.985957998797,2.0,0.0,part_2,go,450.0,500.0,1.0,,,,,,,,,cyan,cross
0.0,8.0,4.0,1.0,5.0,5.0,611.4370759987651,2.0,0.0,part_2,stop,450.0,500.0,3.0,,,,,,,,,orange,circle
0.0,5.0,1.0,1.0,5.0,0.0,0.0,2.0,0.0,part_2,stop,400.0,500.0,4.0,,,,,,,,,magenta,flipped triangle
0.0,3.0,3.0,0.0,6.0,6.0,694.2972220003867,2.0,0.0,part_2,go,450.0,500.0,1.0,,,,,,,,,green,hexagon
0.0,8.0,4.0,1.0,6.0,6.0,607.4188999991748,2.0,0.0,part_2,stop,450.0,500.0,3.0,,,,,,,,,orange,circle
0.0,6.0,2.0,1.0,5.0,5.0,628.0855080003676,2.0,0.0,part_2,go,450.0,450.0,1.0,,,,,,,,,cyan,cross
0.0,3.0,3.0,0.0,6.0,6.0,703.5063740004261,2.0,0.0,part_2,go,450.0,450.0,1.0,,,,,,,,,green,hexagon
0.0,6.0,2.0,1.0,6.0,0.0,0.0,2.0,0.0,part_2,stop,450.0,450.0,4.0,,,,,,,,,cyan,cross
0.0,1.0,1.0,0.0,6.0,6.0,627.71703999897,2.0,0.0,part_2,go,450.0,500.0,1.0,,,,,,,,,gray,triangle
0.0,6.0,2.0,1.0,6.0,0.0,0.0,2.0,0.0,part_2,stop,450.0,500.0,4.0,,,,,,,,,cyan,cross
0.0,8.0,4.0,1.0,5.0,0.0,0.0,2.0,0.0,part_2,stop,450.0,550.0,4.0,,,,,,,,,orange,circle
0.0,5.0,1.0,1.0,5.0,5.0,851.7186660010339,2.0,0.0,part_2,go,500.0,550.0,1.0,,,,,,,,,magenta,flipped triangle
0.0,8.0,4.0,1.0,5.0,0.0,0.0,2.0,0.0,part_2,stop,500.0,550.0,4.0,,,,,,,,,orange,circle
0.0,8.0,4.0,1.0,6.0,0.0,0.0,2.0,0.0,part_2,stop,550.0,550.0,4.0,,,,,,,,,orange,circle
0.0,2.0,2.0,0.0,5.0,5.0,658.6101419998158,2.0,0.0,part_2,go,550.0,600.0,1.0,,,,,,,,,yellow,I
0.0,5.0,1.0,1.0,5.0,0.0,0.0,2.0,0.0,part_2,stop,550.0,600.0,4.0,,,,,,,,,magenta,flipped triangle
0.0,4.0,4.0,0.0,6.0,6.0,656.184679000944,2.0,0.0,part_2,go,600.0,600.0,1.0,,,,,,,,,white,square
0.0,8.0,4.0,1.0,5.0,0.0,0.0,2.0,0.0,part_2,stop,600.0,600.0,4.0,,,,,,,,,orange,circle
0.0,2.0,2.0,0.0,6.0,6.0,975.4357670008176,2.0,0.0,part_2,go,650.0,600.0,1.0,,,,,,,,,yellow,I
0.0,1.0,1.0,0.0,5.0,5.0,692.921188998298,3.0,0.0,part_2,go,650.0,600.0,1.0,,,,,,,,,gray,triangle
0.0,4.0,4.0,0.0,6.0,6.0,478.1646629999159,3.0,0.0,part_2,go,650.0,600.0,1.0,,,,,,,,,white,square
0.0,4.0,4.0,0.0,6.0,6.0,636.3069210001413,3.0,0.0,part_2,go,650.0,600.0,1.0,,,,,,,,,white,square
0.0,8.0,4.0,1.0,6.0,6.0,497.5423579999187,3.0,0.0,part_2,stop,650.0,600.0,3.0,,,,,,,,,orange,circle
0.0,3.0,3.0,0.0,6.0,6.0,431.3336340001115,3.0,0.0,part_2,go,650.0,550.0,1.0,,,,,,,,,green,hexagon
0.0,8.0,4.0,1.0,6.0,6.0,469.5032820000051,3.0,0.0,part_2,go,650.0,550.0,1.0,,,,,,,,,orange,circle
0.0,8.0,4.0,1.0,5.0,5.0,431.605177000165,3.0,0.0,part_2,stop,650.0,550.0,3.0,,,,,,,,,orange,circle
0.0,1.0,1.0,0.0,6.0,6.0,702.0631159994082,3.0,0.0,part_2,go,600.0,550.0,1.0,,,,,,,,,gray,triangle
0.0,6.0,2.0,1.0,6.0,6.0,671.8299909989582,3.0,0.0,part_2,stop,600.0,550.0,3.0,,,,,,,,,cyan,cross
0.0,2.0,2.0,0.0,6.0,6.0,485.8251410005323,3.0,0.0,part_2,go,600.0,500.0,1.0,,,,,,,,,yellow,I
0.0,7.0,3.0,1.0,6.0,6.0,731.0207459995581,3.0,0.0,part_2,go,600.0,500.0,1.0,,,,,,,,,blue,diamond
0.0,5.0,1.0,1.0,6.0,6.0,667.917849999867,3.0,0.0,part_2,stop,600.0,500.0,3.0,,,,,,,,,magenta,flipped triangle
0.0,5.0,1.0,1.0,5.0,5.0,447.7476410011149,3.0,0.0,part_2,go,600.0,450.0,1.0,,,,,,,,,magenta,flipped triangle
0.0,7.0,3.0,1.0,5.0,5.0,526.4528729985614,3.0,0.0,part_2,stop,600.0,450.0,3.0,,,,,,,,,blue,diamond
0.0,7.0,3.0,1.0,6.0,0.0,0.0,3.0,0.0,part_2,stop,550.0,450.0,4.0,,,,,,,,,blue,diamond
0.0,3.0,3.0,0.0,6.0,6.0,355.6664460011234,3.0,0.0,part_2,go,550.0,500.0,1.0,,,,,,,,,green,hexagon
0.0,2.0,2.0,0.0,6.0,6.0,451.0083889999805,3.0,0.0,part_2,go,550.0,500.0,1.0,,,,,,,,,yellow,I
0.0,4.0,4.0,0.0,6.0,6.0,625.2727770006459,3.0,0.0,part_2,go,550.0,500.0,1.0,,,,,,,,,white,square
0.0,1.0,1.0,0.0,5.0,5.0,298.7012729990965,3.0,0.0,part_2,go,550.0,500.0,1.0,,,,,,,,,gray,triangle
0.0,2.0,2.0,0.0,5.0,5.0,720.6815509998705,3.0,0.0,part_2,go,550.0,500.0,1.0,,,,,,,,,yellow,I
0.0,4.0,4.0,0.0,5.0,5.0,450.0036630015529,3.0,0.0,part_2,go,550.0,500.0,1.0,,,,,,,,,white,square
0.0,5.0,1.0,1.0,5.0,5.0,406.3299049994384,3.0,0.0,part_2,stop,550.0,500.0,3.0,,,,,,,,,magenta,flipped triangle
0.0,8.0,4.0,1.0,6.0,6.0,458.7701700002071,3.0,0.0,part_2,go,500.0,500.0,1.0,,,,,,,,,orange,circle
0.0,6.0,2.0,1.0,5.0,5.0,430.4200510014198,3.0,0.0,part_2,stop,500.0,500.0,3.0,,,,,,,,,cyan,cross
0.0,2.0,2.0,0.0,6.0,6.0,477.8866240012576,3.0,0.0,part_2,go,450.0,500.0,1.0,,,,,,,,,yellow,I
0.0,4.0,4.0,0.0,5.0,5.0,580.8093300001929,3.0,0.0,part_2,go,450.0,500.0,1.0,,,,,,,,,white,square
0.0,6.0,2.0,1.0,5.0,5.0,289.8155010007031,3.0,0.0,part_2,stop,450.0,500.0,3.0,,,,,,,,,cyan,cross
0.0,5.0,1.0,1.0,6.0,6.0,539.0736669996841,3.0,0.0,part_2,stop,400.0,500.0,3.0,,,,,,,,,magenta,flipped triangle
0.0,7.0,3.0,1.0,5.0,5.0,542.1796080008789,3.0,0.0,part_2,stop,400.0,450.0,3.0,,,,,,,,,blue,diamond
0.0,1.0,1.0,0.0,5.0,5.0,683.2826379995822,3.0,0.0,part_2,go,350.0,450.0,1.0,,,,,,,,,gray,triangle
0.0,5.0,1.0,1.0,5.0,5.0,712.7736260008533,3.0,0.0,part_2,go,350.0,450.0,1.0,,,,,,,,,magenta,flipped triangle
0.0,8.0,4.0,1.0,5.0,0.0,0.0,3.0,0.0,part_2,stop,350.0,450.0,4.0,,,,,,,,,orange,circle
0.0,3.0,3.0,0.0,5.0,5.0,559.2968739983917,3.0,0.0,part_2,go,400.0,450.0,1.0,,,,,,,,,green,hexagon
0.0,7.0,3.0,1.0,6.0,6.0,543.0458809987613,3.0,0.0,part_2,go,400.0,450.0,1.0,,,,,,,,,blue,diamond
0.0,7.0,3.0,1.0,5.0,5.0,578.7225740004942,3.0,0.0,part_2,stop,400.0,450.0,3.0,,,,,,,,,blue,diamond
0.0,4.0,4.0,0.0,6.0,6.0,493.7675700002728,3.0,0.0,part_2,go,350.0,450.0,1.0,,,,,,,,,white,square
0.0,2.0,2.0,0.0,5.0,5.0,395.0713920003181,4.0,0.0,part_2,go,350.0,450.0,1.0,,,,,,,,,yellow,I
0.0,8.0,4.0,1.0,5.0,5.0,403.5979189993668,4.0,0.0,part_2,stop,350.0,450.0,3.0,,,,,,,,,orange,circle
0.0,6.0,2.0,1.0,6.0,6.0,394.4177439989289,4.0,0.0,part_2,go,300.0,450.0,1.0,,,,,,,,,cyan,cross
0.0,7.0,3.0,1.0,5.0,0.0,0.0,4.0,0.0,part_2,stop,300.0,450.0,4.0,,,,,,,,,blue,diamond
0.0,7.0,3.0,1.0,5.0,5.0,431.5173249997315,4.0,0.0,part_2,stop,350.0,450.0,3.0,,,,,,,,,blue,diamond
0.0,3.0,3.0,0.0,6.0,6.0,406.0264739982813,4.0,0.0,part_2,go,300.0,450.0,1.0,,,,,,,,,green,hexagon
0.0,7.0,3.0,1.0,6.0,0.0,0.0,4.0,0.0,part_2,stop,300.0,450.0,4.0,,,,,,,,,blue,diamond
0.0,3.0,3.0,0.0,5.0,5.0,545.5885880001006,4.0,0.0,part_2,go,300.0,500.0,1.0,,,,,,,,,green,hexagon
0.0,5.0,1.0,1.0,5.0,0.0,0.0,4.0,0.0,part_2,stop,300.0,500.0,4.0,,,,,,,,,magenta,flipped triangle
0.0,2.0,2.0,0.0,6.0,6.0,554.1624630004662,4.0,0.0,part_2,go,350.0,500.0,1.0,,,,,,,,,yellow,I
0.0,7.0,3.0,1.0,6.0,0.0,0.0,4.0,0.0,part_2,stop,350.0,500.0,4.0,,,,,,,,,blue,diamond
0.0,1.0,1.0,0.0,5.0,5.0,582.8373990007094,4.0,0.0,part_2,go,350.0,550.0,1.0,,,,,,,,,gray,triangle
0.0,4.0,4.0,0.0,5.0,5.0,892.8667290001613,4.0,0.0,part_2,go,350.0,550.0,1.0,,,,,,,,,white,square
0.0,7.0,3.0,1.0,5.0,0.0,0.0,4.0,0.0,part_2,stop,350.0,550.0,4.0,,,,,,,,,blue,diamond
0.0,2.0,2.0,0.0,5.0,5.0,468.7096259985992,4.0,0.0,part_2,go,400.0,550.0,1.0,,,,,,,,,yellow,I
0.0,3.0,3.0,0.0,6.0,6.0,734.1660229994886,4.0,0.0,part_2,go,400.0,550.0,1.0,,,,,,,,,green,hexagon
0.0,6.0,2.0,1.0,5.0,0.0,0.0,4.0,0.0,part_2,stop,400.0,550.0,4.0,,,,,,,,,cyan,cross
0.0,6.0,2.0,1.0,5.0,5.0,617.1424459989794,4.0,0.0,part_2,stop,450.0,550.0,3.0,,,,,,,,,cyan,cross
0.0,4.0,4.0,0.0,6.0,6.0,440.7970840002235,4.0,0.0,part_2,go,400.0,550.0,1.0,,,,,,,,,white,square
0.0,5.0,1.0,1.0,6.0,6.0,751.9381590009289,4.0,0.0,part_2,go,400.0,550.0,1.0,,,,,,,,,magenta,flipped triangle
0.0,2.0,2.0,0.0,5.0,5.0,791.4421959994797,4.0,0.0,part_2,go,400.0,550.0,1.0,,,,,,,,,yellow,I
0.0,1.0,1.0,0.0,6.0,6.0,743.4635970003001,4.0,0.0,part_2,go,400.0,550.0,1.0,,,,,,,,,gray,triangle
0.0,7.0,3.0,1.0,6.0,0.0,0.0,4.0,0.0,part_2,stop,400.0,550.0,4.0,,,,,,,,,blue,diamond
0.0,4.0,4.0,0.0,5.0,5.0,566.4952339993761,4.0,0.0,part_2,go,400.0,600.0,1.0,,,,,,,,,white,square
0.0,7.0,3.0,1.0,5.0,0.0,0.0,4.0,0.0,part_2,stop,400.0,600.0,4.0,,,,,,,,,blue,diamond
0.0,2.0,2.0,0.0,6.0,6.0,555.1420809988485,4.0,0.0,part_2,go,450.0,600.0,1.0,,,,,,,,,yellow,I
0.0,8.0,4.0,1.0,6.0,6.0,902.9618470012792,4.0,0.0,part_2,go,450.0,600.0,1.0,,,,,,,,,orange,circle
0.0,4.0,4.0,0.0,6.0,6.0,771.7145959995833,4.0,0.0,part_2,go,450.0,600.0,1.0,,,,,,,,,white,square
0.0,1.0,1.0,0.0,6.0,6.0,750.0069130001066,4.0,0.0,part_2,go,450.0,600.0,1.0,,,,,,,,,gray,triangle
0.0,6.0,2.0,1.0,5.0,0.0,0.0,4.0,0.0,part_2,stop,450.0,600.0,4.0,,,,,,,,,cyan,cross
0.0,3.0,3.0,0.0,6.0,6.0,668.720191999455,4.0,0.0,part_2,go,500.0,600.0,1.0,,,,,,,,,green,hexagon
0.0,7.0,3.0,1.0,6.0,6.0,696.4772789997369,4.0,0.0,part_2,stop,500.0,600.0,3.0,,,,,,,,,blue,diamond
0.0,1.0,1.0,0.0,6.0,6.0,649.415128000328,4.0,0.0,part_2,go,500.0,550.0,1.0,,,,,,,,,gray,triangle
0.0,1.0,1.0,0.0,6.0,6.0,770.3821109989804,4.0,0.0,part_2,go,500.0,550.0,1.0,,,,,,,,,gray,triangle
0.0,8.0,4.0,1.0,6.0,0.0,0.0,4.0,0.0,part_2,stop,500.0,550.0,4.0,,,,,,,,,orange,circle
0.0,3.0,3.0,0.0,6.0,6.0,733.6165860015171,4.0,0.0,part_2,go,500.0,600.0,1.0,,,,,,,,,green,hexagon
0.0,1.0,1.0,0.0,6.0,6.0,479.2966599998181,5.0,0.0,part_2,go,500.0,600.0,1.0,,,,,,,,,gray,triangle
0.0,2.0,2.0,0.0,5.0,5.0,713.6876140011736,5.0,0.0,part_2,go,500.0,600.0,1.0,,,,,,,,,yellow,I
0.0,5.0,1.0,1.0,6.0,6.0,721.9235759985168,5.0,0.0,part_2,go,500.0,600.0,1.0,,,,,,,,,magenta,flipped triangle
0.0,3.0,3.0,0.0,6.0,6.0,797.87055000088,5.0,0.0,part_2,go,500.0,600.0,1.0,,,,,,,,,green,hexagon
0.0,7.0,3.0,1.0,6.0,6.0,785.2757079999719,5.0,0.0,part_2,stop,500.0,600.0,3.0,,,,,,,,,blue,diamond
0.0,4.0,4.0,0.0,6.0,6.0,657.9404389995034,5.0,0.0,part_2,go,500.0,550.0,1.0,,,,,,,,,white,square
0.0,4.0,4.0,0.0,6.0,6.0,591.6587660012738,5.0,0.0,part_2,go,500.0,550.0,1.0,,,,,,,,,white,square
0.0,7.0,3.0,1.0,5.0,5.0,646.1355070005084,5.0,0.0,part_2,stop,500.0,550.0,3.0,,,,,,,,,blue,diamond
0.0,5.0,1.0,1.0,6.0,0.0,0.0,5.0,0.0,part_2,stop,450.0,550.0,4.0,,,,,,,,,magenta,flipped triangle
0.0,4.0,4.0,0.0,5.0,5.0,460.8325860008335,5.0,0.0,part_2,go,450.0,600.0,1.0,,,,,,,,,white,square
0.0,7.0,3.0,1.0,5.0,5.0,1013.6672930002533,5.0,0.0,part_2,go,450.0,600.0,1.0,,,,,,,,,blue,diamond
0.0,3.0,3.0,0.0,5.0,5.0,932.8315519996976,5.0,0.0,part_2,go,450.0,600.0,1.0,,,,,,,,,green,hexagon
0.0,5.0,1.0,1.0,6.0,0.0,0.0,5.0,0.0,part_2,stop,450.0,600.0,4.0,,,,,,,,,magenta,flipped triangle
0.0,2.0,2.0,0.0,5.0,5.0,592.1731140006159,5.0,0.0,part_2,go,450.0,650.0,1.0,,,,,,,,,yellow,I
0.0,6.0,2.0,1.0,5.0,5.0,1023.2171249990645,5.0,0.0,part_2,go,450.0,650.0,1.0,,,,,,,,,cyan,cross
0.0,4.0,4.0,0.0,5.0,5.0,744.7331050007051,5.0,0.0,part_2,go,450.0,650.0,1.0,,,,,,,,,white,square
0.0,6.0,2.0,1.0,6.0,0.0,0.0,5.0,0.0,part_2,stop,450.0,650.0,4.0,,,,,,,,,cyan,cross
0.0,2.0,2.0,0.0,5.0,5.0,610.1104489989666,5.0,0.0,part_2,go,450.0,700.0,1.0,,,,,,,,,yellow,I
0.0,1.0,1.0,0.0,6.0,6.0,722.3384199987777,5.0,0.0,part_2,go,450.0,700.0,1.0,,,,,,,,,gray,triangle
0.0,5.0,1.0,1.0,5.0,0.0,0.0,5.0,0.0,part_2,stop,450.0,700.0,4.0,,,,,,,,,magenta,flipped triangle
0.0,1.0,1.0,0.0,5.0,5.0,646.134164000614,5.0,0.0,part_2,go,500.0,700.0,1.0,,,,,,,,,gray,triangle
0.0,1.0,1.0,0.0,6.0,6.0,506.27232500119135,5.0,0.0,part_2,go,500.0,700.0,1.0,,,,,,,,,gray,triangle
0.0,6.0,2.0,1.0,6.0,0.0,0.0,5.0,0.0,part_2,stop,500.0,700.0,4.0,,,,,,,,,cyan,cross
0.0,3.0,3.0,0.0,5.0,5.0,599.9339079990023,5.0,0.0,part_2,go,500.0,750.0,1.0,,,,,,,,,green,hexagon
0.0,2.0,2.0,0.0,6.0,6.0,631.3266229990404,5.0,0.0,part_2,go,500.0,750.0,1.0,,,,,,,,,yellow,I
0.0,1.0,1.0,0.0,5.0,5.0,338.9786950010602,5.0,0.0,part_2,go,500.0,750.0,1.0,,,,,,,,,gray,triangle
0.0,6.0,2.0,1.0,5.0,0.0,0.0,5.0,0.0,part_2,stop,500.0,750.0,4.0,,,,,,,,,cyan,cross
0.0,5.0,1.0,1.0,5.0,5.0,882.2515920001024,5.0,0.0,part_2,go,550.0,750.0,1.0,,,,,,,,,magenta,flipped triangle
0.0,7.0,3.0,1.0,6.0,6.0,432.096268999885,5.0,0.0,part_2,go,550.0,750.0,1.0,,,,,,,,,blue,diamond
0.0,2.0,2.0,0.0,5.0,5.0,469.1383429999405,5.0,0.0,part_2,go,550.0,750.0,1.0,,,,,,,,,yellow,I
0.0,4.0,4.0,0.0,6.0,6.0,657.7004939990729,5.0,0.0,part_2,go,550.0,750.0,1.0,,,,,,,,,white,square
0.0,7.0,3.0,1.0,6.0,6.0,852.5373249995027,5.0,0.0,part_2,stop,550.0,750.0,3.0,,,,,,,,,blue,diamond
0.0,5.0,1.0,1.0,6.0,0.0,0.0,5.0,0.0,part_2,stop,550.0,700.0,4.0,,,,,,,,,magenta,flipped triangle
0.0,8.0,4.0,1.0,6.0,6.0,610.6499099987559,5.0,0.0,part_2,stop,550.0,750.0,3.0,,,,,,,,,orange,circle
0.0,4.0,4.0,0.0,5.0,5.0,526.6815530012536,5.0,0.0,part_2,go,550.0,700.0,1.0,,,,,,,,,white,square
0.0,1.0,1.0,0.0,5.0,5.0,525.8945890000177,5.0,0.0,part_2,go,550.0,700.0,1.0,,,,,,,,,gray,triangle
0.0,8.0,4.0,1.0,5.0,5.0,384.0294359997642,6.0,0.0,part_2,stop,550.0,700.0,3.0,,,,,,,,,orange,circle
0.0,7.0,3.0,1.0,5.0,5.0,595.7409529983124,6.0,0.0,part_2,go,500.0,700.0,1.0,,,,,,,,,blue,diamond
0.0,4.0,4.0,0.0,5.0,5.0,573.2178179987386,6.0,0.0,part_2,go,500.0,700.0,1.0,,,,,,,,,white,square
0.0,5.0,1.0,1.0,5.0,5.0,668.8181259996782,6.0,0.0,part_2,stop,500.0,700.0,3.0,,,,,,,,,magenta,flipped triangle
0.0,3.0,3.0,0.0,6.0,6.0,667.5434179996955,6.0,0.0,part_2,go,450.0,700.0,1.0,,,,,,,,,green,hexagon
0.0,6.0,2.0,1.0,6.0,6.0,777.3501850006141,6.0,0.0,part_2,stop,450.0,700.0,3.0,,,,,,,,,cyan,cross
0.0,6.0,2.0,1.0,6.0,6.0,751.7925739994098,6.0,0.0,part_2,stop,450.0,650.0,3.0,,,,,,,,,cyan,cross
0.0,6.0,2.0,1.0,6.0,6.0,1279.862024999602,6.0,0.0,part_2,go,450.0,600.0,1.0,,,,,,,,,cyan,cross
0.0,1.0,1.0,0.0,6.0,6.0,527.2102609997091,6.0,0.0,part_2,go,450.0,600.0,1.0,,,,,,,,,gray,triangle
0.0,4.0,4.0,0.0,6.0,6.0,599.2012940005225,6.0,0.0,part_2,go,450.0,600.0,1.0,,,,,,,,,white,square
0.0,2.0,2.0,0.0,6.0,6.0,867.5516230014182,6.0,0.0,part_2,go,450.0,600.0,1.0,,,,,,,,,yellow,I
0.0,8.0,4.0,1.0,6.0,0.0,0.0,6.0,0.0,part_2,stop,450.0,600.0,4.0,,,,,,,,,orange,circle
0.0,3.0,3.0,0.0,6.0,6.0,1147.03646199996,6.0,0.0,part_2,go,450.0,650.0,1.0,,,,,,,,,green,hexagon
0.0,8.0,4.0,1.0,6.0,6.0,1054.983776000881,6.0,0.0,part_2,go,450.0,650.0,1.0,,,,,,,,,orange,circle
0.0,8.0,4.0,1.0,6.0,6.0,838.6949129999266,6.0,0.0,part_2,go,450.0,650.0,1.0,,,,,,,,,orange,circle
0.0,8.0,4.0,1.0,6.0,6.0,581.8491160007397,6.0,0.0,part_2,stop,450.0,650.0,3.0,,,,,,,,,orange,circle
0.0,1.0,1.0,0.0,5.0,5.0,469.6454920012911,6.0,0.0,part_2,go,450.0,600.0,1.0,,,,,,,,,gray,triangle
0.0,4.0,4.0,0.0,6.0,6.0,374.9406570004794,6.0,0.0,part_2,go,450.0,600.0,1.0,,,,,,,,,white,square
0.0,7.0,3.0,1.0,5.0,0.0,0.0,6.0,0.0,part_2,stop,450.0,600.0,4.0,,,,,,,,,blue,diamond
0.0,8.0,4.0,1.0,6.0,0.0,0.0,6.0,0.0,part_2,stop,500.0,600.0,4.0,,,,,,,,,orange,circle
0.0,1.0,1.0,0.0,5.0,5.0,479.5023359984043,6.0,0.0,part_2,go,500.0,650.0,1.0,,,,,,,,,gray,triangle
0.0,7.0,3.0,1.0,5.0,5.0,1032.9284019990157,6.0,0.0,part_2,go,500.0,650.0,1.0,,,,,,,,,blue,diamond
0.0,1.0,1.0,0.0,5.0,5.0,686.2211780007783,6.0,0.0,part_2,go,500.0,650.0,1.0,,,,,,,,,gray,triangle
0.0,7.0,3.0,1.0,6.0,0.0,0.0,6.0,0.0,part_2,stop,500.0,650.0,4.0,,,,,,,,,blue,diamond
0.0,6.0,2.0,1.0,5.0,0.0,0.0,6.0,0.0,part_2,stop,500.0,700.0,4.0,,,,,,,,,cyan,cross
0.0,2.0,2.0,0.0,6.0,6.0,825.7258459998411,6.0,0.0,part_2,go,550.0,700.0,1.0,,,,,,,,,yellow,I
0.0,5.0,1.0,1.0,5.0,0.0,0.0,6.0,0.0,part_2,stop,550.0,700.0,4.0,,,,,,,,,magenta,flipped triangle
0.0,4.0,4.0,0.0,5.0,5.0,525.6096919983975,6.0,0.0,part_2,go,600.0,700.0,1.0,,,,,,,,,white,square
0.0,6.0,2.0,1.0,6.0,0.0,0.0,6.0,0.0,part_2,stop,600.0,700.0,4.0,,,,,,,,,cyan,cross
0.0,8.0,4.0,1.0,6.0,0.0,0.0,6.0,0.0,part_2,stop,600.0,750.0,4.0,,,,,,,,,orange,circle
0.0,1.0,1.0,0.0,6.0,6.0,554.8217100003967,6.0,0.0,part_2,go,600.0,800.0,1.0,,,,,,,,,gray,triangle
0.0,2.0,2.0,0.0,6.0,6.0,1068.3187719987473,6.0,0.0,part_2,go,600.0,800.0,1.0,,,,,,,,,yellow,I
0.0,5.0,1.0,1.0,6.0,6.0,1162.6029439994454,6.0,0.0,part_2,go,600.0,800.0,1.0,,,,,,,,,magenta,flipped triangle
0.0,6.0,2.0,1.0,5.0,0.0,0.0,6.0,0.0,part_2,stop,600.0,800.0,4.0,,,,,,,,,cyan,cross
0.0,8.0,4.0,1.0,6.0,6.0,778.0805720012722,6.0,0.0,part_2,stop,650.0,800.0,3.0,,,,,,,,,orange,circle
0.0,1.0,1.0,0.0,5.0,5.0,639.4257110005128,6.0,0.0,part_2,go,650.0,750.0,1.0,,,,,,,,,gray,triangle
0.0,3.0,3.0,0.0,5.0,5.0,328.8599509996857,7.0,0.0,part_2,go,650.0,750.0,1.0,,,,,,,,,green,hexagon
0.0,2.0,2.0,0.0,5.0,5.0,442.3099600007845,7.0,0.0,part_2,go,650.0,750.0,1.0,,,,,,,,,yellow,I
0.0,3.0,3.0,0.0,5.0,5.0,751.7072560003726,7.0,0.0,part_2,go,650.0,750.0,1.0,,,,,,,,,green,hexagon
0.0,1.0,1.0,0.0,6.0,6.0,329.2572319987812,7.0,0.0,part_2,go,650.0,750.0,1.0,,,,,,,,,gray,triangle
0.0,8.0,4.0,1.0,6.0,6.0,751.5259119991242,7.0,0.0,part_2,go,650.0,750.0,1.0,,,,,,,,,orange,circle
0.0,7.0,3.0,1.0,5.0,0.0,0.0,7.0,0.0,part_2,stop,650.0,750.0,4.0,,,,,,,,,blue,diamond
0.0,4.0,4.0,0.0,5.0,5.0,471.1492730002646,7.0,0.0,part_2,go,700.0,750.0,1.0,,,,,,,,,white,square
0.0,3.0,3.0,0.0,5.0,5.0,524.6221809993585,7.0,0.0,part_2,go,700.0,750.0,1.0,,,,,,,,,green,hexagon
0.0,2.0,2.0,0.0,5.0,5.0,712.8193019998434,7.0,0.0,part_2,go,700.0,750.0,1.0,,,,,,,,,yellow,I
0.0,2.0,2.0,0.0,6.0,6.0,723.8538860001427,7.0,0.0,part_2,go,700.0,750.0,1.0,,,,,,,,,yellow,I
0.0,1.0,1.0,0.0,6.0,6.0,320.141013000466,7.0,0.0,part_2,go,700.0,750.0,1.0,,,,,,,,,gray,triangle
0.0,6.0,2.0,1.0,6.0,6.0,336.6381410014583,7.0,0.0,part_2,stop,700.0,750.0,3.0,,,,,,,,,cyan,cross
0.0,2.0,2.0,0.0,6.0,6.0,572.9486929994891,7.0,0.0,part_2,go,700.0,700.0,1.0,,,,,,,,,yellow,I
0.0,3.0,3.0,0.0,5.0,5.0,692.6751139999396,7.0,0.0,part_2,go,700.0,700.0,1.0,,,,,,,,,green,hexagon
0.0,6.0,2.0,1.0,5.0,5.0,741.4334139994025,7.0,0.0,part_2,go,700.0,700.0,1.0,,,,,,,,,cyan,cross
0.0,8.0,4.0,1.0,5.0,5.0,747.5801649998175,7.0,0.0,part_2,stop,700.0,700.0,3.0,,,,,,,,,orange,circle
0.0,7.0,3.0,1.0,5.0,5.0,760.3100469987112,7.0,0.0,part_2,stop,650.0,700.0,3.0,,,,,,,,,blue,diamond
0.0,1.0,1.0,0.0,6.0,6.0,431.4637450006557,7.0,0.0,part_2,go,600.0,700.0,1.0,,,,,,,,,gray,triangle
0.0,8.0,4.0,1.0,5.0,5.0,732.7167599996756,7.0,0.0,part_2,go,600.0,700.0,1.0,,,,,,,,,orange,circle
0.0,8.0,4.0,1.0,5.0,0.0,0.0,7.0,0.0,part_2,stop,600.0,700.0,4.0,,,,,,,,,orange,circle
0.0,6.0,2.0,1.0,6.0,6.0,907.5274560000252,7.0,0.0,part_2,stop,650.0,700.0,3.0,,,,,,,,,cyan,cross
0.0,4.0,4.0,0.0,5.0,5.0,309.5969610003521,7.0,0.0,part_2,go,650.0,650.0,1.0,,,,,,,,,white,square
0.0,6.0,2.0,1.0,6.0,6.0,770.2523360003397,7.0,0.0,part_2,stop,650.0,650.0,3.0,,,,,,,,,cyan,cross
0.0,5.0,1.0,1.0,5.0,5.0,758.3221419990878,7.0,0.0,part_2,stop,650.0,600.0,3.0,,,,,,,,,magenta,flipped triangle
0.0,5.0,1.0,1.0,6.0,6.0,694.73717999972,7.0,0.0,part_2,stop,600.0,600.0,3.0,,,,,,,,,magenta,flipped triangle
0.0,8.0,4.0,1.0,5.0,5.0,823.7604119985917,7.0,0.0,part_2,go,600.0,550.0,1.0,,,,,,,,,orange,circle
0.0,4.0,4.0,0.0,6.0,6.0,319.8136899991368,7.0,0.0,part_2,go,600.0,550.0,1.0,,,,,,,,,white,square
0.0,4.0,4.0,0.0,6.0,6.0,320.7164420000481,7.0,0.0,part_2,go,600.0,550.0,1.0,,,,,,,,,white,square
0.0,6.0,2.0,1.0,5.0,5.0,562.9026730002806,7.0,0.0,part_2,stop,600.0,550.0,3.0,,,,,,,,,cyan,cross
0.0,1.0,1.0,0.0,5.0,5.0,439.4975319992227,7.0,0.0,part_2,go,550.0,550.0,1.0,,,,,,,,,gray,triangle
0.0,2.0,2.0,0.0,6.0,6.0,654.968558001201,7.0,0.0,part_2,go,550.0,550.0,1.0,,,,,,,,,yellow,I
0.0,2.0,2.0,0.0,5.0,5.0,430.4183230015042,7.0,0.0,part_2,go,550.0,550.0,1.0,,,,,,,,,yellow,I
0.0,3.0,3.0,0.0,6.0,6.0,597.9282789994613,7.0,0.0,part_2,go,550.0,550.0,1.0,,,,,,,,,green,hexagon
0.0,3.0,3.0,0.0,6.0,6.0,570.8685700010392,7.0,0.0,part_2,go,550.0,550.0,1.0,,,,,,,,,green,hexagon
0.0,5.0,1.0,1.0,5.0,5.0,661.2999129993113,7.0,0.0,part_2,stop,550.0,550.0,3.0,,,,,,,,,magenta,flipped triangle
0.0,3.0,3.0,0.0,5.0,5.0,600.0330070000928,7.0,0.0,part_2,go,500.0,550.0,1.0,,,,,,,,,green,hexagon
0.0,4.0,4.0,0.0,6.0,6.0,356.7930239987618,8.0,0.0,part_2,go,500.0,550.0,1.0,,,,,,,,,white,square
0.0,1.0,1.0,0.0,6.0,6.0,450.2036000012595,8.0,0.0,part_2,go,500.0,550.0,1.0,,,,,,,,,gray,triangle
0.0,7.0,3.0,1.0,6.0,6.0,713.2891740002378,8.0,0.0,part_2,stop,500.0,550.0,3.0,,,,,,,,,blue,diamond
0.0,1.0,1.0,0.0,5.0,5.0,423.6358649995964,8.0,0.0,part_2,go,500.0,500.0,1.0,,,,,,,,,gray,triangle
0.0,3.0,3.0,0.0,6.0,6.0,900.3359819998877,8.0,0.0,part_2,go,500.0,500.0,1.0,,,,,,,,,green,hexagon
0.0,2.0,2.0,0.0,5.0,5.0,785.9058979993279,8.0,0.0,part_2,go,500.0,500.0,1.0,,,,,,,,,yellow,I
0.0,5.0,1.0,1.0,6.0,6.0,702.56685700042,8.0,0.0,part_2,go,500.0,500.0,1.0,,,,,,,,,magenta,flipped triangle
0.0,3.0,3.0,0.0,5.0,5.0,694.8477280002407,8.0,0.0,part_2,go,500.0,500.0,1.0,,,,,,,,,green,hexagon
0.0,1.0,1.0,0.0,5.0,5.0,376.1049349996028,8.0,0.0,part_2,go,500.0,500.0,1.0,,,,,,,,,gray,triangle
0.0,5.0,1.0,1.0,6.0,6.0,657.8652629996213,8.0,0.0,part_2,stop,500.0,500.0,3.0,,,,,,,,,magenta,flipped triangle
0.0,3.0,3.0,0.0,6.0,6.0,348.3639269998093,8.0,0.0,part_2,go,500.0,450.0,1.0,,,,,,,,,green,hexagon
0.0,3.0,3.0,0.0,6.0,6.0,958.1667149996064,8.0,0.0,part_2,go,500.0,450.0,1.0,,,,,,,,,green,hexagon
0.0,2.0,2.0,0.0,6.0,6.0,481.1173500002041,8.0,0.0,part_2,go,500.0,450.0,1.0,,,,,,,,,yellow,I
0.0,7.0,3.0,1.0,5.0,5.0,882.7703269998892,8.0,0.0,part_2,go,500.0,450.0,1.0,,,,,,,,,blue,diamond
0.0,5.0,1.0,1.0,6.0,6.0,614.2134720012109,8.0,0.0,part_2,stop,500.0,450.0,3.0,,,,,,,,,magenta,flipped triangle
0.0,6.0,2.0,1.0,6.0,6.0,527.1197780002694,8.0,0.0,part_2,go,500.0,400.0,1.0,,,,,,,,,cyan,cross
0.0,6.0,2.0,1.0,5.0,0.0,0.0,8.0,0.0,part_2,stop,500.0,400.0,4.0,,,,,,,,,cyan,cross
0.0,3.0,3.0,0.0,5.0,5.0,910.7596459998604,8.0,0.0,part_2,go,550.0,400.0,1.0,,,,,,,,,green,hexagon
0.0,5.0,1.0,1.0,5.0,0.0,0.0,8.0,0.0,part_2,stop,550.0,400.0,4.0,,,,,,,,,magenta,flipped triangle
0.0,4.0,4.0,0.0,5.0,5.0,386.0121430006984,8.0,0.0,part_2,go,600.0,400.0,1.0,,,,,,,,,white,square
0.0,5.0,1.0,1.0,6.0,6.0,385.1234519988793,8.0,0.0,part_2,stop,600.0,400.0,3.0,,,,,,,,,magenta,flipped triangle
0.0,2.0,2.0,0.0,6.0,6.0,696.1242199995468,8.0,0.0,part_2,go,600.0,350.0,1.0,,,,,,,,,yellow,I
0.0,8.0,4.0,1.0,5.0,0.0,0.0,8.0,0.0,part_2,stop,600.0,350.0,4.0,,,,,,,,,orange,circle
0.0,6.0,2.0,1.0,6.0,6.0,788.9283549993706,8.0,0.0,part_2,go,650.0,350.0,1.0,,,,,,,,,cyan,cross
0.0,2.0,2.0,0.0,5.0,5.0,769.4244109989086,8.0,0.0,part_2,go,650.0,350.0,1.0,,,,,,,,,yellow,I
0.0,5.0,1.0,1.0,6.0,0.0,0.0,8.0,0.0,part_2,stop,650.0,350.0,4.0,,,,,,,,,magenta,flipped triangle
0.0,3.0,3.0,0.0,5.0,5.0,647.6921060002496,8.0,0.0,part_2,go,650.0,400.0,1.0,,,,,,,,,green,hexagon
0.0,8.0,4.0,1.0,5.0,0.0,0.0,8.0,0.0,part_2,stop,650.0,400.0,4.0,,,,,,,,,orange,circle
0.0,1.0,1.0,0.0,5.0,5.0,431.6103840010328,8.0,0.0,part_2,go,700.0,400.0,1.0,,,,,,,,,gray,triangle
0.0,5.0,1.0,1.0,5.0,5.0,911.5741410005284,8.0,0.0,part_2,go,700.0,400.0,1.0,,,,,,,,,magenta,flipped triangle
0.0,8.0,4.0,1.0,5.0,0.0,0.0,8.0,0.0,part_2,stop,700.0,400.0,4.0,,,,,,,,,orange,circle
0.0,6.0,2.0,1.0,5.0,5.0,780.6480949984689,8.0,0.0,part_2,stop,750.0,400.0,3.0,,,,,,,,,cyan,cross
0.0,5.0,1.0,1.0,5.0,0.0,0.0,8.0,0.0,part_2,stop,700.0,400.0,4.0,,,,,,,,,magenta,flipped triangle
0.0,4.0,4.0,0.0,5.0,5.0,488.8600489994132,8.0,0.0,part_2,go,750.0,400.0,1.0,,,,,,,,,white,square
0.0,3.0,3.0,0.0,6.0,6.0,789.5211180002661,8.0,0.0,part_2,go,750.0,400.0,1.0,,,,,,,,,green,hexagon
0.0,6.0,2.0,1.0,5.0,5.0,901.867652000874,8.0,0.0,part_2,stop,750.0,400.0,3.0,,,,,,,,,cyan,cross
0.0,3.0,3.0,0.0,7.0,4.0,3708.3042850008496,1.0,1.0,part_3,go,0.0,0.0,0.0,464.0,4.0,696.0,348.0,232.0,464.0,116.0,580.0,green,hexagon
0.0,6.0,2.0,1.0,7.0,4.0,1264.003116000822,1.0,2.0,part_3,go,0.0,0.0,0.0,464.0,4.0,348.0,580.0,116.0,464.0,696.0,232.0,cyan,cross
0.0,1.0,1.0,0.0,7.0,3.0,1549.8586080011592,1.0,1.0,part_3,go,0.0,0.0,0.0,232.0,2.0,580.0,696.0,232.0,348.0,464.0,116.0,gray,triangle
0.0,5.0,1.0,1.0,7.0,6.0,1855.556804999651,1.0,1.0,part_3,go,0.0,0.0,0.0,270.0,2.0,540.0,810.0,135.0,675.0,405.0,270.0,magenta,flipped triangle
0.0,3.0,3.0,0.0,7.0,5.0,1173.875032000069,1.0,1.0,part_3,go,0.0,0.0,0.0,346.0,2.0,519.0,1038.0,692.0,865.0,346.0,173.0,green,hexagon
0.0,5.0,1.0,1.0,7.0,2.0,2014.6047230009572,1.0,1.0,part_3,go,0.0,0.0,0.0,462.0,3.0,770.0,462.0,616.0,308.0,924.0,154.0,magenta,flipped triangle
0.0,4.0,4.0,0.0,7.0,2.0,1868.0894839999385,1.0,1.0,part_3,go,0.0,0.0,0.0,173.0,1.0,346.0,173.0,1038.0,519.0,692.0,865.0,white,square
0.0,3.0,3.0,0.0,7.0,2.0,1040.1035979994049,1.0,1.0,part_3,go,0.0,0.0,0.0,346.0,2.0,692.0,346.0,173.0,519.0,865.0,1038.0,green,hexagon
0.0,4.0,4.0,0.0,7.0,5.0,864.6750370007794,1.0,1.0,part_3,go,0.0,0.0,0.0,232.0,2.0,696.0,580.0,116.0,348.0,232.0,464.0,white,square
0.0,2.0,2.0,0.0,7.0,3.0,1822.281954000573,1.0,1.0,part_3,go,0.0,0.0,0.0,384.0,2.0,576.0,1152.0,384.0,768.0,192.0,960.0,yellow,I
0.0,6.0,2.0,1.0,7.0,3.0,1560.8178040001803,1.0,1.0,part_3,go,0.0,0.0,0.0,540.0,4.0,270.0,135.0,540.0,810.0,675.0,405.0,cyan,cross
0.0,5.0,1.0,1.0,7.0,5.0,994.9591029999284,1.0,1.0,part_3,go,0.0,0.0,0.0,540.0,4.0,810.0,135.0,270.0,675.0,540.0,405.0,magenta,flipped triangle
0.0,3.0,3.0,0.0,7.0,6.0,1066.8696430002456,1.0,1.0,part_3,go,0.0,0.0,0.0,348.0,3.0,232.0,580.0,696.0,116.0,464.0,348.0,green,hexagon
0.0,7.0,3.0,1.0,7.0,1.0,1815.007602999685,1.0,1.0,part_3,go,0.0,0.0,0.0,173.0,1.0,173.0,692.0,346.0,519.0,865.0,1038.0,blue,diamond
0.0,6.0,2.0,1.0,7.0,6.0,1496.0754080002516,1.0,1.0,part_3,go,0.0,0.0,0.0,576.0,3.0,384.0,1152.0,960.0,192.0,768.0,576.0,cyan,cross
0.0,8.0,4.0,1.0,7.0,1.0,1023.6951360002422,1.0,1.0,part_3,go,0.0,0.0,0.0,384.0,2.0,384.0,768.0,1152.0,576.0,192.0,960.0,orange,circle
0.0,1.0,1.0,0.0,7.0,6.0,1198.7058900012926,1.0,1.0,part_3,go,0.0,0.0,0.0,270.0,2.0,405.0,135.0,675.0,540.0,810.0,270.0,gray,triangle
0.0,1.0,1.0,0.0,7.0,6.0,1617.4555720008357,1.0,1.0,part_3,go,0.0,0.0,0.0,384.0,2.0,960.0,192.0,576.0,1152.0,768.0,384.0,gray,triangle
0.0,7.0,3.0,1.0,7.0,5.0,1659.849730998758,1.0,1.0,part_3,go,0.0,0.0,0.0,540.0,4.0,135.0,270.0,405.0,810.0,540.0,675.0,blue,diamond
0.0,1.0,1.0,0.0,7.0,6.0,1444.3898139998057,1.0,1.0,part_3,go,0.0,0.0,0.0,580.0,5.0,696.0,232.0,464.0,116.0,348.0,580.0,gray,triangle
0.0,2.0,2.0,0.0,7.0,2.0,1786.318926999229,2.0,1.0,part_3,go,0.0,0.0,0.0,346.0,2.0,173.0,346.0,519.0,692.0,865.0,1038.0,yellow,I
0.0,5.0,1.0,1.0,7.0,4.0,2062.2149080008967,2.0,1.0,part_3,go,0.0,0.0,0.0,308.0,2.0,924.0,770.0,154.0,308.0,616.0,462.0,magenta,flipped triangle
0.0,7.0,3.0,1.0,7.0,5.0,1287.73560099944,2.0,1.0,part_3,go,0.0,0.0,0.0,348.0,3.0,464.0,232.0,580.0,696.0,348.0,116.0,blue,diamond
0.0,1.0,1.0,0.0,7.0,3.0,1556.3641070002632,2.0,1.0,part_3,go,0.0,0.0,0.0,308.0,2.0,770.0,462.0,308.0,616.0,924.0,154.0,gray,triangle
0.0,2.0,2.0,0.0,7.0,6.0,1019.0655669994158,2.0,1.0,part_3,go,0.0,0.0,0.0,135.0,1.0,540.0,405.0,810.0,270.0,675.0,135.0,yellow,I
0.0,2.0,2.0,0.0,7.0,5.0,1292.444095000974,2.0,1.0,part_3,go,0.0,0.0,0.0,519.0,3.0,173.0,346.0,692.0,1038.0,519.0,865.0,yellow,I
0.0,4.0,4.0,0.0,7.0,4.0,1845.394171999942,2.0,1.0,part_3,go,0.0,0.0,0.0,576.0,3.0,768.0,1152.0,384.0,576.0,192.0,960.0,white,square
0.0,8.0,4.0,1.0,7.0,6.0,743.0976910000027,2.0,1.0,part_3,go,0.0,0.0,0.0,346.0,2.0,865.0,1038.0,173.0,692.0,519.0,346.0,orange,circle
0.0,3.0,3.0,0.0,7.0,2.0,1321.3102980007534,2.0,1.0,part_3,go,0.0,0.0,0.0,135.0,1.0,405.0,135.0,810.0,540.0,675.0,270.0,green,hexagon
0.0,5.0,1.0,1.0,7.0,4.0,845.6502529988938,2.0,1.0,part_3,go,0.0,0.0,0.0,346.0,2.0,1038.0,865.0,519.0,346.0,173.0,692.0,magenta,flipped triangle
0.0,8.0,4.0,1.0,7.0,3.0,1245.9819190007693,2.0,1.0,part_3,go,0.0,0.0,0.0,348.0,3.0,232.0,696.0,348.0,580.0,116.0,464.0,orange,circle
0.0,6.0,2.0,1.0,7.0,6.0,1356.0756570004742,2.0,1.0,part_3,go,0.0,0.0,0.0,384.0,2.0,192.0,768.0,576.0,1152.0,960.0,384.0,cyan,cross
0.0,1.0,1.0,0.0,7.0,1.0,1040.3019240002322,2.0,1.0,part_3,go,0.0,0.0,0.0,692.0,4.0,692.0,865.0,1038.0,346.0,173.0,519.0,gray,triangle
0.0,4.0,4.0,0.0,7.0,6.0,1340.4521779993956,2.0,1.0,part_3,go,0.0,0.0,0.0,616.0,4.0,770.0,462.0,924.0,308.0,154.0,616.0,white,square
0.0,7.0,3.0,1.0,7.0,6.0,1208.917265999844,2.0,1.0,part_3,go,0.0,0.0,0.0,768.0,4.0,576.0,192.0,384.0,960.0,1152.0,768.0,blue,diamond
0.0,3.0,3.0,0.0,7.0,4.0,1246.7961739985185,2.0,1.0,part_3,go,0.0,0.0,0.0,308.0,2.0,616.0,462.0,154.0,308.0,770.0,924.0,green,hexagon
0.0,6.0,2.0,1.0,7.0,4.0,1692.9021930009185,2.0,1.0,part_3,go,0.0,0.0,0.0,519.0,3.0,346.0,865.0,1038.0,519.0,692.0,173.0,cyan,cross
0.0,3.0,3.0,0.0,7.0,6.0,1244.8911120009143,2.0,1.0,part_3,go,0.0,0.0,0.0,308.0,2.0,154.0,462.0,770.0,924.0,616.0,308.0,green,hexagon
0.0,1.0,1.0,0.0,7.0,2.0,1709.2668440000125,2.0,1.0,part_3,go,0.0,0.0,0.0,462.0,3.0,770.0,462.0,308.0,616.0,924.0,154.0,gray,triangle
0.0,3.0,3.0,0.0,7.0,5.0,1576.14323999951,2.0,1.0,part_3,go,0.0,0.0,0.0,540.0,4.0,675.0,810.0,135.0,270.0,540.0,405.0,green,hexagon
0.0,8.0,4.0,1.0,7.0,6.0,930.2712509997946,3.0,1.0,part_3,go,0.0,0.0,0.0,616.0,4.0,154.0,924.0,462.0,308.0,770.0,616.0,orange,circle
0.0,2.0,2.0,0.0,7.0,6.0,1611.3148969998292,3.0,1.0,part_3,go,0.0,0.0,0.0,348.0,3.0,580.0,696.0,464.0,232.0,116.0,348.0,yellow,I
0.0,8.0,4.0,1.0,7.0,5.0,810.0466180003423,3.0,1.0,part_3,go,0.0,0.0,0.0,519.0,3.0,173.0,865.0,346.0,1038.0,519.0,692.0,orange,circle
0.0,8.0,4.0,1.0,7.0,6.0,846.5874030007399,3.0,1.0,part_3,go,0.0,0.0,0.0,348.0,3.0,464.0,696.0,232.0,580.0,116.0,348.0,orange,circle
0.0,3.0,3.0,0.0,7.0,1.0,1690.8995389985648,3.0,1.0,part_3,go,0.0,0.0,0.0,384.0,2.0,384.0,576.0,1152.0,192.0,768.0,960.0,green,hexagon
0.0,6.0,2.0,1.0,7.0,1.0,1067.3960369986162,3.0,1.0,part_3,go,0.0,0.0,0.0,616.0,4.0,616.0,154.0,308.0,462.0,924.0,770.0,cyan,cross
0.0,2.0,2.0,0.0,7.0,5.0,1126.2609229997906,3.0,1.0,part_3,go,0.0,0.0,0.0,616.0,4.0,462.0,308.0,770.0,154.0,616.0,924.0,yellow,I
0.0,6.0,2.0,1.0,7.0,5.0,1076.7956759991648,3.0,1.0,part_3,go,0.0,0.0,0.0,308.0,2.0,616.0,924.0,462.0,154.0,308.0,770.0,cyan,cross
0.0,2.0,2.0,0.0,7.0,4.0,1309.634144001393,3.0,1.0,part_3,go,0.0,0.0,0.0,576.0,3.0,1152.0,192.0,960.0,576.0,768.0,384.0,yellow,I
0.0,6.0,2.0,1.0,7.0,6.0,1126.371262000248,3.0,1.0,part_3,go,0.0,0.0,0.0,464.0,4.0,580.0,232.0,348.0,116.0,696.0,464.0,cyan,cross
0.0,7.0,3.0,1.0,7.0,1.0,1207.8432250000333,3.0,1.0,part_3,go,0.0,0.0,0.0,232.0,2.0,232.0,348.0,696.0,116.0,580.0,464.0,blue,diamond
0.0,2.0,2.0,0.0,7.0,3.0,1188.4031429999595,3.0,1.0,part_3,go,0.0,0.0,0.0,308.0,2.0,770.0,616.0,308.0,924.0,154.0,462.0,yellow,I
0.0,4.0,4.0,0.0,7.0,4.0,1572.1466640006838,3.0,1.0,part_3,go,0.0,0.0,0.0,576.0,3.0,960.0,384.0,768.0,576.0,192.0,1152.0,white,square
0.0,5.0,1.0,1.0,7.0,6.0,1517.006963000313,3.0,1.0,part_3,go,0.0,0.0,0.0,960.0,5.0,576.0,384.0,768.0,1152.0,192.0,960.0,magenta,flipped triangle
0.0,4.0,4.0,0.0,7.0,5.0,2171.2299330010865,3.0,1.0,part_3,go,0.0,0.0,0.0,810.0,6.0,405.0,675.0,270.0,540.0,810.0,135.0,white,square
0.0,6.0,2.0,1.0,7.0,5.0,798.6820900005114,3.0,1.0,part_3,go,0.0,0.0,0.0,405.0,3.0,135.0,675.0,810.0,270.0,405.0,540.0,cyan,cross
0.0,8.0,4.0,1.0,7.0,6.0,1346.8820710004366,3.0,1.0,part_3,go,0.0,0.0,0.0,192.0,1.0,576.0,960.0,1152.0,768.0,384.0,192.0,orange,circle
0.0,1.0,1.0,0.0,7.0,3.0,2193.806550001682,3.0,1.0,part_3,go,0.0,0.0,0.0,540.0,4.0,810.0,675.0,540.0,405.0,135.0,270.0,gray,triangle
0.0,7.0,3.0,1.0,7.0,4.0,1524.8637660006352,3.0,1.0,part_3,go,0.0,0.0,0.0,346.0,2.0,519.0,865.0,173.0,346.0,692.0,1038.0,blue,diamond
0.0,7.0,3.0,1.0,7.0,3.0,1580.4839829997943,3.0,1.0,part_3,go,0.0,0.0,0.0,616.0,4.0,308.0,462.0,616.0,924.0,770.0,154.0,blue,diamond
0.0,6.0,2.0,1.0,7.0,4.0,1460.534853000354,4.0,1.0,part_3,go,0.0,0.0,0.0,692.0,4.0,346.0,865.0,173.0,692.0,1038.0,519.0,cyan,cross
0.0,1.0,1.0,0.0,7.0,1.0,1534.9362390006718,4.0,1.0,part_3,go,0.0,0.0,0.0,865.0,5.0,865.0,173.0,1038.0,519.0,346.0,692.0,gray,triangle
0.0,5.0,1.0,1.0,7.0,3.0,2329.6954880006524,4.0,1.0,part_3,go,0.0,0.0,0.0,580.0,5.0,696.0,116.0,580.0,348.0,232.0,464.0,magenta,flipped triangle
0.0,7.0,3.0,1.0,7.0,3.0,2058.695183999589,4.0,1.0,part_3,go,0.0,0.0,0.0,770.0,5.0,924.0,308.0,770.0,154.0,462.0,616.0,blue,diamond
0.0,5.0,1.0,1.0,7.0,5.0,1527.233860000706,4.0,1.0,part_3,go,0.0,0.0,0.0,692.0,4.0,519.0,865.0,1038.0,173.0,692.0,346.0,magenta,flipped triangle
0.0,8.0,4.0,1.0,7.0,4.0,1129.459568999664,4.0,1.0,part_3,go,0.0,0.0,0.0,540.0,4.0,135.0,270.0,675.0,540.0,810.0,405.0,orange,circle
0.0,8.0,4.0,1.0,7.0,3.0,858.8197949993628,4.0,1.0,part_3,go,0.0,0.0,0.0,405.0,3.0,540.0,270.0,405.0,135.0,810.0,675.0,orange,circle
0.0,1.0,1.0,0.0,7.0,5.0,2336.000265000621,4.0,1.0,part_3,go,0.0,0.0,0.0,768.0,4.0,192.0,384.0,960.0,576.0,768.0,1152.0,gray,triangle
0.0,2.0,2.0,0.0,7.0,4.0,1311.3920769992546,4.0,1.0,part_3,go,0.0,0.0,0.0,232.0,2.0,116.0,696.0,348.0,232.0,580.0,464.0,yellow,I
0.0,4.0,4.0,0.0,7.0,2.0,1303.306681000322,4.0,1.0,part_3,go,0.0,0.0,0.0,692.0,4.0,519.0,692.0,346.0,865.0,1038.0,173.0,white,square
0.0,7.0,3.0,1.0,7.0,3.0,2137.996538000152,4.0,1.0,part_3,go,0.0,0.0,0.0,675.0,5.0,810.0,540.0,675.0,135.0,405.0,270.0,blue,diamond
0.0,7.0,3.0,1.0,7.0,3.0,1380.4434100002254,4.0,1.0,part_3,go,0.0,0.0,0.0,576.0,3.0,1152.0,192.0,576.0,384.0,960.0,768.0,blue,diamond
0.0,8.0,4.0,1.0,7.0,6.0,1094.7308260001591,4.0,1.0,part_3,go,0.0,0.0,0.0,462.0,3.0,308.0,770.0,154.0,616.0,924.0,462.0,orange,circle
0.0,5.0,1.0,1.0,7.0,6.0,1195.4422620001424,4.0,1.0,part_3,go,0.0,0.0,0.0,768.0,4.0,384.0,192.0,576.0,960.0,1152.0,768.0,magenta,flipped triangle
0.0,2.0,2.0,0.0,7.0,2.0,1037.734014000307,4.0,1.0,part_3,go,0.0,0.0,0.0,540.0,4.0,405.0,540.0,135.0,810.0,270.0,675.0,yellow,I
0.0,3.0,3.0,0.0,7.0,4.0,1531.4914539994788,4.0,1.0,part_3,go,0.0,0.0,0.0,768.0,4.0,576.0,192.0,960.0,768.0,1152.0,384.0,green,hexagon
0.0,4.0,4.0,0.0,7.0,6.0,859.8179020009411,4.0,1.0,part_3,go,0.0,0.0,0.0,770.0,5.0,462.0,308.0,154.0,924.0,616.0,770.0,white,square
0.0,4.0,4.0,0.0,7.0,1.0,831.9808800006285,4.0,1.0,part_3,go,0.0,0.0,0.0,580.0,5.0,580.0,464.0,232.0,348.0,116.0,696.0,white,square
0.0,4.0,4.0,0.0,7.0,5.0,746.436053999787,4.0,1.0,part_3,go,0.0,0.0,0.0,810.0,6.0,405.0,675.0,270.0,135.0,810.0,540.0,white,square
0.0,5.0,1.0,1.0,7.0,2.0,952.0696839990704,4.0,1.0,part_3,go,0.0,0.0,0.0,464.0,4.0,580.0,464.0,696.0,348.0,232.0,116.0,magenta,flipped triangle
