raw_reward_magnitude,stim_reward,stepwise_reward_magnitude,paired_with_stopping,stim_location,response,reaction_time,block,num_trial_presentations,which_phase,stop_signal_trial_type,left_SSD,right_SSD,accuracy,chosen_bidding_amount,chosen_bidding_level,possible_bid_1,possible_bid_2,possible_bid_3,possible_bid_4,possible_bid_5,possible_bid_6,color_text,shape_text
0.0,4.0,0.0,0.0,2.0,2.0,501.06870800118486,1.0,1.0,phase_1,,,,,,,,,,,,,magenta,cross
1323.0,4.0,4.0,0.0,4.0,4.0,435.8036060002632,1.0,1.0,phase_1,,,,,,,,,,,,,magenta,cross
184.0,5.0,1.0,1.0,4.0,4.0,462.5830749992019,1.0,1.0,phase_1,,,,,,,,,,,,,yellow,flipped triangle
0.0,4.0,0.0,0.0,3.0,3.0,368.3858679996774,1.0,1.0,phase_1,,,,,,,,,,,,,magenta,cross
1299.0,8.0,4.0,1.0,2.0,2.0,577.4943960004748,1.0,1.0,phase_1,,,,,,,,,,,,,blue,diamond
340.0,6.0,2.0,1.0,4.0,4.0,445.0359139991633,1.0,1.0,phase_1,,,,,,,,,,,,,green,circle
0.0,8.0,0.0,1.0,2.0,2.0,500.69508900014625,1.0,1.0,phase_1,,,,,,,,,,,,,blue,diamond
182.0,1.0,1.0,0.0,3.0,3.0,312.1918929991807,1.0,1.0,phase_1,,,,,,,,,,,,,orange,square
670.0,7.0,3.0,1.0,2.0,2.0,520.1745289996325,1.0,1.0,phase_1,,,,,,,,,,,,,white,hexagon
174.0,5.0,1.0,1.0,2.0,2.0,407.4712239998916,1.0,1.0,phase_1,,,,,,,,,,,,,yellow,flipped triangle
668.0,7.0,3.0,1.0,1.0,1.0,604.0360490005696,1.0,1.0,phase_1,,,,,,,,,,,,,white,hexagon
1317.0,4.0,4.0,0.0,1.0,1.0,494.9626170000556,1.0,1.0,phase_1,,,,,,,,,,,,,magenta,cross
668.0,3.0,3.0,0.0,2.0,2.0,520.739796998896,1.0,1.0,phase_1,,,,,,,,,,,,,gray,I
315.0,2.0,2.0,0.0,3.0,3.0,418.9565769993351,1.0,1.0,phase_1,,,,,,,,,,,,,cyan,triangle
333.0,2.0,2.0,0.0,1.0,1.0,463.8004509997699,1.0,1.0,phase_1,,,,,,,,,,,,,cyan,triangle
320.0,6.0,2.0,1.0,3.0,3.0,486.9467780008563,1.0,1.0,phase_1,,,,,,,,,,,,,green,circle
307.0,2.0,2.0,0.0,2.0,2.0,397.1720480003569,1.0,1.0,phase_1,,,,,,,,,,,,,cyan,triangle
179.0,1.0,1.0,0.0,2.0,2.0,377.5734730006661,1.0,1.0,phase_1,,,,,,,,,,,,,orange,square
349.0,2.0,2.0,0.0,4.0,4.0,492.4908409993804,1.0,1.0,phase_1,,,,,,,,,,,,,cyan,triangle
0.0,8.0,0.0,1.0,3.0,3.0,462.829961999887,1.0,1.0,phase_1,,,,,,,,,,,,,blue,diamond
630.0,7.0,3.0,1.0,4.0,4.0,444.8177239992219,1.0,1.0,phase_1,,,,,,,,,,,,,white,hexagon
142.0,5.0,1.0,1.0,1.0,1.0,416.5712839985644,1.0,1.0,phase_1,,,,,,,,,,,,,yellow,flipped triangle
156.0,5.0,1.0,1.0,3.0,3.0,500.3411249999772,1.0,1.0,phase_1,,,,,,,,,,,,,yellow,flipped triangle
675.0,7.0,3.0,1.0,4.0,4.0,453.4305109991692,1.0,1.0,phase_1,,,,,,,,,,,,,white,hexagon
650.0,3.0,3.0,0.0,3.0,3.0,435.6383579997782,1.0,1.0,phase_1,,,,,,,,,,,,,gray,I
675.0,3.0,3.0,0.0,3.0,3.0,340.5755479998333,1.0,1.0,phase_1,,,,,,,,,,,,,gray,I
0.0,3.0,0.0,0.0,3.0,3.0,396.5377449985681,1.0,1.0,phase_1,,,,,,,,,,,,,gray,I
175.0,5.0,1.0,1.0,1.0,1.0,595.5256809993443,1.0,1.0,phase_1,,,,,,,,,,,,,yellow,flipped triangle
302.0,6.0,2.0,1.0,4.0,4.0,471.7413140006101,1.0,1.0,phase_1,,,,,,,,,,,,,green,circle
0.0,4.0,0.0,0.0,1.0,1.0,565.7170800004678,1.0,1.0,phase_1,,,,,,,,,,,,,magenta,cross
666.0,3.0,3.0,0.0,4.0,4.0,463.0953319992841,1.0,1.0,phase_1,,,,,,,,,,,,,gray,I
315.0,6.0,2.0,1.0,1.0,1.0,491.7549080000754,1.0,1.0,phase_1,,,,,,,,,,,,,green,circle
1308.0,4.0,4.0,0.0,2.0,2.0,482.1958590000577,1.0,1.0,phase_1,,,,,,,,,,,,,magenta,cross
1323.0,8.0,4.0,1.0,2.0,2.0,396.2894979995326,1.0,1.0,phase_1,,,,,,,,,,,,,blue,diamond
1308.0,8.0,4.0,1.0,3.0,3.0,320.7806549999077,1.0,1.0,phase_1,,,,,,,,,,,,,blue,diamond
161.0,1.0,1.0,0.0,3.0,3.0,406.3008909997734,1.0,1.0,phase_1,,,,,,,,,,,,,orange,square
665.0,7.0,3.0,1.0,4.0,4.0,425.6545280004502,1.0,1.0,phase_1,,,,,,,,,,,,,white,hexagon
312.0,2.0,2.0,0.0,3.0,3.0,377.7356129994587,1.0,1.0,phase_1,,,,,,,,,,,,,cyan,triangle
0.0,1.0,0.0,0.0,1.0,1.0,481.7358109994529,1.0,1.0,phase_1,,,,,,,,,,,,,orange,square
628.0,7.0,3.0,1.0,1.0,1.0,483.3153710005717,1.0,1.0,phase_1,,,,,,,,,,,,,white,hexagon
641.0,3.0,3.0,0.0,1.0,1.0,538.2303149999643,1.0,1.0,phase_1,,,,,,,,,,,,,gray,I
1287.0,8.0,4.0,1.0,2.0,2.0,691.4755489997333,1.0,1.0,phase_1,,,,,,,,,,,,,blue,diamond
1299.0,4.0,4.0,0.0,1.0,1.0,481.8033970004762,1.0,1.0,phase_1,,,,,,,,,,,,,magenta,cross
163.0,1.0,1.0,0.0,4.0,4.0,586.5953470001841,1.0,1.0,phase_1,,,,,,,,,,,,,orange,square
664.0,7.0,3.0,1.0,2.0,2.0,491.3273340007436,1.0,2.0,phase_1,,,,,,,,,,,,,white,hexagon
1277.0,4.0,4.0,0.0,2.0,2.0,464.6885049987759,1.0,1.0,phase_1,,,,,,,,,,,,,magenta,cross
303.0,2.0,2.0,0.0,2.0,2.0,404.4887599993672,1.0,1.0,phase_1,,,,,,,,,,,,,cyan,triangle
339.0,6.0,2.0,1.0,4.0,4.0,547.5541970008635,1.0,1.0,phase_1,,,,,,,,,,,,,green,circle
0.0,2.0,0.0,0.0,2.0,2.0,860.5848580009479,1.0,1.0,phase_1,,,,,,,,,,,,,cyan,triangle
628.0,3.0,3.0,0.0,3.0,3.0,369.4447719990421,1.0,1.0,phase_1,,,,,,,,,,,,,gray,I
307.0,6.0,2.0,1.0,1.0,1.0,757.4996229996032,1.0,1.0,phase_1,,,,,,,,,,,,,green,circle
1299.0,4.0,4.0,0.0,2.0,2.0,604.5674859997234,1.0,1.0,phase_1,,,,,,,,,,,,,magenta,cross
0.0,4.0,0.0,0.0,3.0,3.0,434.7407900004327,1.0,1.0,phase_1,,,,,,,,,,,,,magenta,cross
0.0,3.0,0.0,0.0,3.0,3.0,386.5390500013745,1.0,1.0,phase_1,,,,,,,,,,,,,gray,I
339.0,2.0,2.0,0.0,2.0,2.0,463.2124039999326,1.0,1.0,phase_1,,,,,,,,,,,,,cyan,triangle
1315.0,8.0,4.0,1.0,2.0,2.0,407.5444669997523,1.0,1.0,phase_1,,,,,,,,,,,,,blue,diamond
1320.0,4.0,4.0,0.0,1.0,1.0,585.3399679999711,1.0,1.0,phase_1,,,,,,,,,,,,,magenta,cross
340.0,2.0,2.0,0.0,1.0,1.0,482.2797919987351,1.0,1.0,phase_1,,,,,,,,,,,,,cyan,triangle
326.0,2.0,2.0,0.0,4.0,4.0,538.5960969997541,1.0,1.0,phase_1,,,,,,,,,,,,,cyan,triangle
332.0,2.0,2.0,0.0,2.0,2.0,545.9604679999757,1.0,1.0,phase_1,,,,,,,,,,,,,cyan,triangle
182.0,5.0,1.0,1.0,1.0,1.0,680.132235000201,1.0,1.0,phase_1,,,,,,,,,,,,,yellow,flipped triangle
0.0,7.0,0.0,1.0,4.0,4.0,453.9430260010704,1.0,1.0,phase_1,,,,,,,,,,,,,white,hexagon
1280.0,8.0,4.0,1.0,1.0,1.0,482.0906369986915,1.0,1.0,phase_1,,,,,,,,,,,,,blue,diamond
0.0,3.0,0.0,0.0,1.0,1.0,482.2833879989048,1.0,1.0,phase_1,,,,,,,,,,,,,gray,I
312.0,2.0,2.0,0.0,3.0,3.0,821.7583379991993,1.0,1.0,phase_1,,,,,,,,,,,,,cyan,triangle
661.0,3.0,3.0,0.0,3.0,3.0,416.9187519983097,1.0,1.0,phase_1,,,,,,,,,,,,,gray,I
175.0,5.0,1.0,1.0,4.0,4.0,490.7714599994506,1.0,1.0,phase_1,,,,,,,,,,,,,yellow,flipped triangle
143.0,5.0,1.0,1.0,2.0,2.0,576.6459950009448,1.0,1.0,phase_1,,,,,,,,,,,,,yellow,flipped triangle
1323.0,4.0,4.0,0.0,3.0,3.0,415.2166300009412,1.0,1.0,phase_1,,,,,,,,,,,,,magenta,cross
308.0,6.0,2.0,1.0,2.0,2.0,463.3317070001794,1.0,1.0,phase_1,,,,,,,,,,,,,green,circle
140.0,1.0,1.0,0.0,2.0,2.0,501.74590999995416,1.0,1.0,phase_1,,,,,,,,,,,,,orange,square
671.0,7.0,3.0,1.0,4.0,4.0,481.9497190001129,1.0,1.0,phase_1,,,,,,,,,,,,,white,hexagon
315.0,6.0,2.0,1.0,3.0,3.0,926.2260670002432,1.0,1.0,phase_1,,,,,,,,,,,,,green,circle
0.0,5.0,0.0,1.0,2.0,2.0,426.571617999798,1.0,1.0,phase_1,,,,,,,,,,,,,yellow,flipped triangle
672.0,3.0,3.0,0.0,2.0,2.0,500.63274599961005,1.0,1.0,phase_1,,,,,,,,,,,,,gray,I
0.0,7.0,0.0,1.0,1.0,1.0,651.9838780004648,1.0,1.0,phase_1,,,,,,,,,,,,,white,hexagon
0.0,6.0,0.0,1.0,2.0,2.0,822.3104429998784,1.0,1.0,phase_1,,,,,,,,,,,,,green,circle
1290.0,4.0,4.0,0.0,3.0,3.0,531.3406440000108,1.0,1.0,phase_1,,,,,,,,,,,,,magenta,cross
326.0,2.0,2.0,0.0,4.0,4.0,510.38209900070797,1.0,1.0,phase_1,,,,,,,,,,,,,cyan,triangle
625.0,3.0,3.0,0.0,4.0,4.0,425.6737530013197,1.0,1.0,phase_1,,,,,,,,,,,,,gray,I
182.0,5.0,1.0,1.0,2.0,2.0,918.6645500012672,1.0,1.0,phase_1,,,,,,,,,,,,,yellow,flipped triangle
154.0,1.0,1.0,0.0,4.0,4.0,530.3654100007407,1.0,1.0,phase_1,,,,,,,,,,,,,orange,square
1288.0,4.0,4.0,0.0,1.0,1.0,568.6358780003502,1.0,1.0,phase_1,,,,,,,,,,,,,magenta,cross
654.0,3.0,3.0,0.0,4.0,4.0,503.26004099952115,1.0,1.0,phase_1,,,,,,,,,,,,,gray,I
159.0,1.0,1.0,0.0,4.0,4.0,435.2398920000269,1.0,1.0,phase_1,,,,,,,,,,,,,orange,square
1290.0,8.0,4.0,1.0,3.0,3.0,435.3709729984985,1.0,1.0,phase_1,,,,,,,,,,,,,blue,diamond
329.0,2.0,2.0,0.0,2.0,2.0,510.01544700011436,1.0,1.0,phase_1,,,,,,,,,,,,,cyan,triangle
179.0,5.0,1.0,1.0,2.0,2.0,435.1751440008229,1.0,1.0,phase_1,,,,,,,,,,,,,yellow,flipped triangle
635.0,7.0,3.0,1.0,4.0,4.0,367.6605860000563,1.0,1.0,phase_1,,,,,,,,,,,,,white,hexagon
0.0,2.0,0.0,0.0,1.0,1.0,503.1634999995731,1.0,1.0,phase_1,,,,,,,,,,,,,cyan,triangle
163.0,5.0,1.0,1.0,4.0,4.0,387.5080899997556,1.0,1.0,phase_1,,,,,,,,,,,,,yellow,flipped triangle
319.0,6.0,2.0,1.0,3.0,3.0,434.6325599999545,1.0,1.0,phase_1,,,,,,,,,,,,,green,circle
329.0,6.0,2.0,1.0,4.0,4.0,501.7903110001498,1.0,1.0,phase_1,,,,,,,,,,,,,green,circle
635.0,3.0,3.0,0.0,4.0,4.0,407.9399349993764,1.0,1.0,phase_1,,,,,,,,,,,,,gray,I
1323.0,8.0,4.0,1.0,1.0,1.0,538.9823719997366,1.0,1.0,phase_1,,,,,,,,,,,,,blue,diamond
0.0,8.0,0.0,1.0,4.0,4.0,452.9750319998129,1.0,1.0,phase_1,,,,,,,,,,,,,blue,diamond
0.0,5.0,0.0,1.0,2.0,2.0,717.5370610002574,1.0,1.0,phase_1,,,,,,,,,,,,,yellow,flipped triangle
301.0,2.0,2.0,0.0,4.0,4.0,464.1068340006313,1.0,1.0,phase_1,,,,,,,,,,,,,cyan,triangle
1287.0,4.0,4.0,0.0,3.0,3.0,387.6151929998741,1.0,1.0,phase_1,,,,,,,,,,,,,magenta,cross
168.0,5.0,1.0,1.0,1.0,1.0,492.0589109988214,1.0,1.0,phase_1,,,,,,,,,,,,,yellow,flipped triangle
632.0,7.0,3.0,1.0,2.0,2.0,558.0479220006964,2.0,1.0,phase_1,,,,,,,,,,,,,white,hexagon
323.0,2.0,2.0,0.0,3.0,3.0,340.3642700013733,2.0,1.0,phase_1,,,,,,,,,,,,,cyan,triangle
1318.0,4.0,4.0,0.0,4.0,4.0,407.3709880012757,2.0,1.0,phase_1,,,,,,,,,,,,,magenta,cross
169.0,5.0,1.0,1.0,1.0,1.0,455.0178720000986,2.0,1.0,phase_1,,,,,,,,,,,,,yellow,flipped triangle
1305.0,8.0,4.0,1.0,2.0,2.0,463.7664210004004,2.0,1.0,phase_1,,,,,,,,,,,,,blue,diamond
0.0,3.0,0.0,0.0,4.0,4.0,444.9344260010548,2.0,1.0,phase_1,,,,,,,,,,,,,gray,I
1293.0,4.0,4.0,0.0,1.0,1.0,567.9240219997155,2.0,1.0,phase_1,,,,,,,,,,,,,magenta,cross
321.0,6.0,2.0,1.0,2.0,2.0,473.9826010008983,2.0,1.0,phase_1,,,,,,,,,,,,,green,circle
0.0,7.0,0.0,1.0,1.0,1.0,387.2553169985622,2.0,2.0,phase_1,,,,,,,,,,,,,white,hexagon
632.0,3.0,3.0,0.0,3.0,3.0,502.037823000137,2.0,1.0,phase_1,,,,,,,,,,,,,gray,I
1319.0,8.0,4.0,1.0,4.0,4.0,446.5503849987726,2.0,1.0,phase_1,,,,,,,,,,,,,blue,diamond
0.0,2.0,0.0,0.0,1.0,1.0,663.3262859995739,2.0,1.0,phase_1,,,,,,,,,,,,,cyan,triangle
163.0,5.0,1.0,1.0,3.0,3.0,396.9261640013428,2.0,1.0,phase_1,,,,,,,,,,,,,yellow,flipped triangle
154.0,5.0,1.0,1.0,3.0,3.0,407.1374949999153,2.0,1.0,phase_1,,,,,,,,,,,,,yellow,flipped triangle
625.0,7.0,3.0,1.0,2.0,2.0,426.5186829998129,2.0,1.0,phase_1,,,,,,,,,,,,,white,hexagon
142.0,1.0,1.0,0.0,1.0,1.0,378.2110470001498,2.0,2.0,phase_1,,,,,,,,,,,,,orange,square
150.0,5.0,1.0,1.0,2.0,2.0,822.6928980002413,2.0,1.0,phase_1,,,,,,,,,,,,,yellow,flipped triangle
161.0,5.0,1.0,1.0,2.0,2.0,378.7400479995995,2.0,1.0,phase_1,,,,,,,,,,,,,yellow,flipped triangle
0.0,2.0,0.0,0.0,3.0,3.0,425.0519460001669,2.0,1.0,phase_1,,,,,,,,,,,,,cyan,triangle
340.0,2.0,2.0,0.0,2.0,2.0,511.7049010004848,2.0,1.0,phase_1,,,,,,,,,,,,,cyan,triangle
0.0,1.0,0.0,0.0,2.0,2.0,368.8940890006051,2.0,1.0,phase_1,,,,,,,,,,,,,orange,square
1276.0,4.0,4.0,0.0,3.0,3.0,433.7383199999749,2.0,1.0,phase_1,,,,,,,,,,,,,magenta,cross
632.0,3.0,3.0,0.0,4.0,4.0,416.8696550004824,2.0,1.0,phase_1,,,,,,,,,,,,,gray,I
1277.0,8.0,4.0,1.0,3.0,3.0,463.779751000402,2.0,1.0,phase_1,,,,,,,,,,,,,blue,diamond
670.0,3.0,3.0,0.0,1.0,1.0,530.7178150014806,2.0,1.0,phase_1,,,,,,,,,,,,,gray,I
0.0,2.0,0.0,0.0,4.0,4.0,502.06607399923087,2.0,1.0,phase_1,,,,,,,,,,,,,cyan,triangle
322.0,6.0,2.0,1.0,2.0,2.0,434.1785529995832,2.0,2.0,phase_1,,,,,,,,,,,,,green,circle
301.0,6.0,2.0,1.0,3.0,3.0,397.6797750001424,2.0,1.0,phase_1,,,,,,,,,,,,,green,circle
342.0,6.0,2.0,1.0,1.0,1.0,361.7236490008508,2.0,2.0,phase_1,,,,,,,,,,,,,green,circle
663.0,3.0,3.0,0.0,4.0,4.0,519.5653380014846,2.0,1.0,phase_1,,,,,,,,,,,,,gray,I
670.0,3.0,3.0,0.0,1.0,1.0,472.7569679998851,2.0,1.0,phase_1,,,,,,,,,,,,,gray,I
154.0,1.0,1.0,0.0,3.0,3.0,492.5591079991136,2.0,1.0,phase_1,,,,,,,,,,,,,orange,square
169.0,1.0,1.0,0.0,2.0,2.0,504.35456200102635,2.0,1.0,phase_1,,,,,,,,,,,,,orange,square
641.0,7.0,3.0,1.0,3.0,3.0,473.3517690001463,2.0,1.0,phase_1,,,,,,,,,,,,,white,hexagon
161.0,5.0,1.0,1.0,1.0,1.0,567.8777089997311,2.0,1.0,phase_1,,,,,,,,,,,,,yellow,flipped triangle
650.0,7.0,3.0,1.0,1.0,1.0,510.7004620003863,2.0,1.0,phase_1,,,,,,,,,,,,,white,hexagon
156.0,1.0,1.0,0.0,4.0,4.0,444.3625660005637,2.0,1.0,phase_1,,,,,,,,,,,,,orange,square
1293.0,8.0,4.0,1.0,4.0,4.0,407.5768540005811,2.0,1.0,phase_1,,,,,,,,,,,,,blue,diamond
321.0,6.0,2.0,1.0,2.0,2.0,755.0192309990962,2.0,1.0,phase_1,,,,,,,,,,,,,green,circle
171.0,5.0,1.0,1.0,4.0,4.0,416.8488850009453,2.0,1.0,phase_1,,,,,,,,,,,,,yellow,flipped triangle
340.0,6.0,2.0,1.0,2.0,2.0,747.0887710005627,2.0,1.0,phase_1,,,,,,,,,,,,,green,circle
1299.0,4.0,4.0,0.0,4.0,4.0,434.1807950004295,2.0,1.0,phase_1,,,,,,,,,,,,,magenta,cross
163.0,1.0,1.0,0.0,3.0,3.0,435.656124000161,2.0,1.0,phase_1,,,,,,,,,,,,,orange,square
338.0,2.0,2.0,0.0,3.0,3.0,369.2252459986775,2.0,1.0,phase_1,,,,,,,,,,,,,cyan,triangle
659.0,3.0,3.0,0.0,1.0,1.0,490.560047001054,2.0,2.0,phase_1,,,,,,,,,,,,,gray,I
637.0,3.0,3.0,0.0,4.0,4.0,499.7649300003104,2.0,1.0,phase_1,,,,,,,,,,,,,gray,I
1320.0,8.0,4.0,1.0,3.0,3.0,501.14659199971356,2.0,1.0,phase_1,,,,,,,,,,,,,blue,diamond
172.0,5.0,1.0,1.0,2.0,2.0,538.2628940005816,2.0,1.0,phase_1,,,,,,,,,,,,,yellow,flipped triangle
140.0,5.0,1.0,1.0,4.0,4.0,399.2457599997578,2.0,1.0,phase_1,,,,,,,,,,,,,yellow,flipped triangle
630.0,7.0,3.0,1.0,4.0,4.0,405.8685029995104,2.0,1.0,phase_1,,,,,,,,,,,,,white,hexagon
326.0,6.0,2.0,1.0,4.0,4.0,416.2334259999625,2.0,1.0,phase_1,,,,,,,,,,,,,green,circle
150.0,5.0,1.0,1.0,1.0,1.0,520.3688649999094,2.0,1.0,phase_1,,,,,,,,,,,,,yellow,flipped triangle
177.0,1.0,1.0,0.0,1.0,1.0,528.2456759996421,2.0,1.0,phase_1,,,,,,,,,,,,,orange,square
302.0,2.0,2.0,0.0,2.0,2.0,547.1406289998413,2.0,1.0,phase_1,,,,,,,,,,,,,cyan,triangle
168.0,1.0,1.0,0.0,2.0,2.0,407.7334140001767,2.0,1.0,phase_1,,,,,,,,,,,,,orange,square
1282.0,4.0,4.0,0.0,4.0,4.0,443.59695699859,2.0,1.0,phase_1,,,,,,,,,,,,,magenta,cross
659.0,7.0,3.0,1.0,2.0,2.0,641.3428259984357,2.0,1.0,phase_1,,,,,,,,,,,,,white,hexagon
659.0,7.0,3.0,1.0,3.0,3.0,435.2309760015487,2.0,1.0,phase_1,,,,,,,,,,,,,white,hexagon
1280.0,4.0,4.0,0.0,4.0,4.0,453.6956569991162,2.0,1.0,phase_1,,,,,,,,,,,,,magenta,cross
334.0,6.0,2.0,1.0,3.0,3.0,482.785801999853,2.0,1.0,phase_1,,,,,,,,,,,,,green,circle
178.0,5.0,1.0,1.0,4.0,4.0,453.6383970007591,2.0,1.0,phase_1,,,,,,,,,,,,,yellow,flipped triangle
0.0,2.0,0.0,0.0,1.0,1.0,483.7414329995226,2.0,1.0,phase_1,,,,,,,,,,,,,cyan,triangle
650.0,3.0,3.0,0.0,3.0,3.0,567.4111009993794,2.0,1.0,phase_1,,,,,,,,,,,,,gray,I
1314.0,8.0,4.0,1.0,3.0,3.0,360.4635490009968,2.0,1.0,phase_1,,,,,,,,,,,,,blue,diamond
182.0,1.0,1.0,0.0,2.0,2.0,454.0975950003485,2.0,1.0,phase_1,,,,,,,,,,,,,orange,square
138.0,5.0,1.0,1.0,3.0,3.0,397.3874530001922,2.0,1.0,phase_1,,,,,,,,,,,,,yellow,flipped triangle
0.0,3.0,0.0,0.0,3.0,3.0,407.5779430004331,2.0,1.0,phase_1,,,,,,,,,,,,,gray,I
0.0,1.0,0.0,0.0,2.0,2.0,576.2223839992657,2.0,1.0,phase_1,,,,,,,,,,,,,orange,square
1293.0,8.0,4.0,1.0,3.0,3.0,415.2078309998614,2.0,1.0,phase_1,,,,,,,,,,,,,blue,diamond
1316.0,4.0,4.0,0.0,4.0,4.0,387.578162999489,2.0,1.0,phase_1,,,,,,,,,,,,,magenta,cross
661.0,7.0,3.0,1.0,3.0,3.0,425.2140169992344,2.0,1.0,phase_1,,,,,,,,,,,,,white,hexagon
0.0,2.0,0.0,0.0,3.0,3.0,379.0958780009532,2.0,1.0,phase_1,,,,,,,,,,,,,cyan,triangle
1299.0,8.0,4.0,1.0,2.0,2.0,482.9308629996376,2.0,1.0,phase_1,,,,,,,,,,,,,blue,diamond
0.0,6.0,0.0,1.0,2.0,2.0,427.571889000319,2.0,1.0,phase_1,,,,,,,,,,,,,green,circle
323.0,2.0,2.0,0.0,4.0,4.0,511.1966410004243,2.0,1.0,phase_1,,,,,,,,,,,,,cyan,triangle
666.0,7.0,3.0,1.0,1.0,1.0,463.0259750010737,2.0,1.0,phase_1,,,,,,,,,,,,,white,hexagon
0.0,5.0,0.0,1.0,2.0,2.0,548.7169320003886,2.0,1.0,phase_1,,,,,,,,,,,,,yellow,flipped triangle
0.0,7.0,0.0,1.0,3.0,3.0,397.3469090014987,2.0,1.0,phase_1,,,,,,,,,,,,,white,hexagon
185.0,1.0,1.0,0.0,2.0,2.0,512.9320070009271,2.0,1.0,phase_1,,,,,,,,,,,,,orange,square
342.0,6.0,2.0,1.0,4.0,4.0,548.2200080004986,2.0,1.0,phase_1,,,,,,,,,,,,,green,circle
140.0,5.0,1.0,1.0,2.0,2.0,519.7247090000019,2.0,1.0,phase_1,,,,,,,,,,,,,yellow,flipped triangle
641.0,7.0,3.0,1.0,4.0,4.0,444.0783780009951,2.0,1.0,phase_1,,,,,,,,,,,,,white,hexagon
1290.0,4.0,4.0,0.0,4.0,4.0,485.2220619995933,2.0,1.0,phase_1,,,,,,,,,,,,,magenta,cross
1305.0,4.0,4.0,0.0,4.0,4.0,720.1199310002266,2.0,1.0,phase_1,,,,,,,,,,,,,magenta,cross
0.0,1.0,0.0,0.0,1.0,1.0,558.0576210013533,2.0,1.0,phase_1,,,,,,,,,,,,,orange,square
0.0,6.0,0.0,1.0,2.0,2.0,530.314741001348,2.0,1.0,phase_1,,,,,,,,,,,,,green,circle
1315.0,4.0,4.0,0.0,1.0,1.0,711.5089609997085,2.0,1.0,phase_1,,,,,,,,,,,,,magenta,cross
161.0,1.0,1.0,0.0,4.0,4.0,501.8068410008709,2.0,1.0,phase_1,,,,,,,,,,,,,orange,square
1305.0,8.0,4.0,1.0,3.0,3.0,548.976408001181,2.0,1.0,phase_1,,,,,,,,,,,,,blue,diamond
1301.0,8.0,4.0,1.0,4.0,4.0,436.015599001621,2.0,1.0,phase_1,,,,,,,,,,,,,blue,diamond
348.0,2.0,2.0,0.0,4.0,4.0,418.1285279992153,2.0,1.0,phase_1,,,,,,,,,,,,,cyan,triangle
311.0,2.0,2.0,0.0,1.0,1.0,434.9399469992931,2.0,1.0,phase_1,,,,,,,,,,,,,cyan,triangle
337.0,2.0,2.0,0.0,1.0,1.0,444.3960030002927,2.0,1.0,phase_1,,,,,,,,,,,,,cyan,triangle
159.0,5.0,1.0,1.0,3.0,3.0,530.0093289988581,2.0,1.0,phase_1,,,,,,,,,,,,,yellow,flipped triangle
140.0,1.0,1.0,0.0,1.0,1.0,529.2144489994826,2.0,1.0,phase_1,,,,,,,,,,,,,orange,square
650.0,7.0,3.0,1.0,2.0,2.0,811.8343339992862,2.0,1.0,phase_1,,,,,,,,,,,,,white,hexagon
159.0,1.0,1.0,0.0,1.0,1.0,584.3732609992003,2.0,1.0,phase_1,,,,,,,,,,,,,orange,square
641.0,3.0,3.0,0.0,3.0,3.0,500.9466170013184,2.0,1.0,phase_1,,,,,,,,,,,,,gray,I
150.0,1.0,1.0,0.0,3.0,3.0,395.4552190007234,2.0,1.0,phase_1,,,,,,,,,,,,,orange,square
1320.0,4.0,4.0,0.0,1.0,1.0,650.547146999088,2.0,1.0,phase_1,,,,,,,,,,,,,magenta,cross
140.0,1.0,1.0,0.0,3.0,3.0,369.2655440008821,3.0,1.0,phase_1,,,,,,,,,,,,,orange,square
154.0,5.0,1.0,1.0,3.0,3.0,349.3022590009786,3.0,1.0,phase_1,,,,,,,,,,,,,yellow,flipped triangle
1305.0,8.0,4.0,1.0,4.0,4.0,378.02763900072017,3.0,1.0,phase_1,,,,,,,,,,,,,blue,diamond
0.0,6.0,0.0,1.0,4.0,4.0,341.0496199994668,3.0,1.0,phase_1,,,,,,,,,,,,,green,circle
0.0,5.0,0.0,1.0,3.0,3.0,387.6199799997266,3.0,1.0,phase_1,,,,,,,,,,,,,yellow,flipped triangle
655.0,3.0,3.0,0.0,2.0,2.0,519.3493620008667,3.0,1.0,phase_1,,,,,,,,,,,,,gray,I
0.0,8.0,0.0,1.0,4.0,4.0,435.0774380000075,3.0,1.0,phase_1,,,,,,,,,,,,,blue,diamond
138.0,1.0,1.0,0.0,4.0,4.0,444.5171209990803,3.0,1.0,phase_1,,,,,,,,,,,,,orange,square
336.0,6.0,2.0,1.0,2.0,2.0,425.1575430007506,3.0,1.0,phase_1,,,,,,,,,,,,,green,circle
0.0,7.0,0.0,1.0,2.0,2.0,397.6919319993612,3.0,1.0,phase_1,,,,,,,,,,,,,white,hexagon
1304.0,8.0,4.0,1.0,1.0,1.0,522.0766520014877,3.0,1.0,phase_1,,,,,,,,,,,,,blue,diamond
320.0,2.0,2.0,0.0,1.0,1.0,454.5211390013719,3.0,1.0,phase_1,,,,,,,,,,,,,cyan,triangle
1319.0,4.0,4.0,0.0,2.0,2.0,472.3125670006993,3.0,1.0,phase_1,,,,,,,,,,,,,magenta,cross
342.0,2.0,2.0,0.0,4.0,4.0,501.821973000915,3.0,1.0,phase_1,,,,,,,,,,,,,cyan,triangle
0.0,7.0,0.0,1.0,2.0,2.0,425.9708680001495,3.0,1.0,phase_1,,,,,,,,,,,,,white,hexagon
150.0,1.0,1.0,0.0,2.0,2.0,359.993175999989,3.0,1.0,phase_1,,,,,,,,,,,,,orange,square
638.0,7.0,3.0,1.0,3.0,3.0,598.2016899997689,3.0,1.0,phase_1,,,,,,,,,,,,,white,hexagon
659.0,3.0,3.0,0.0,1.0,1.0,746.6280979988369,3.0,1.0,phase_1,,,,,,,,,,,,,gray,I
163.0,5.0,1.0,1.0,2.0,2.0,425.2109860008204,3.0,1.0,phase_1,,,,,,,,,,,,,yellow,flipped triangle
0.0,4.0,0.0,0.0,1.0,1.0,530.2464709984633,3.0,1.0,phase_1,,,,,,,,,,,,,magenta,cross
147.0,5.0,1.0,1.0,2.0,2.0,691.2791889990331,3.0,1.0,phase_1,,,,,,,,,,,,,yellow,flipped triangle
0.0,6.0,0.0,1.0,2.0,2.0,558.0586670002958,3.0,1.0,phase_1,,,,,,,,,,,,,green,circle
1281.0,4.0,4.0,0.0,2.0,2.0,340.1964019994921,3.0,1.0,phase_1,,,,,,,,,,,,,magenta,cross
153.0,1.0,1.0,0.0,3.0,3.0,530.2698269988468,3.0,1.0,phase_1,,,,,,,,,,,,,orange,square
315.0,2.0,2.0,0.0,3.0,3.0,444.0852259995154,3.0,1.0,phase_1,,,,,,,,,,,,,cyan,triangle
341.0,6.0,2.0,1.0,3.0,3.0,499.6552119991975,3.0,1.0,phase_1,,,,,,,,,,,,,green,circle
647.0,3.0,3.0,0.0,2.0,2.0,556.9070839992492,3.0,1.0,phase_1,,,,,,,,,,,,,gray,I
654.0,7.0,3.0,1.0,4.0,4.0,490.8417619990359,3.0,1.0,phase_1,,,,,,,,,,,,,white,hexagon
169.0,1.0,1.0,0.0,4.0,4.0,425.4665270000259,3.0,1.0,phase_1,,,,,,,,,,,,,orange,square
670.0,7.0,3.0,1.0,3.0,3.0,482.4897449998389,3.0,1.0,phase_1,,,,,,,,,,,,,white,hexagon
1317.0,8.0,4.0,1.0,3.0,3.0,453.3097620005719,3.0,1.0,phase_1,,,,,,,,,,,,,blue,diamond
1295.0,4.0,4.0,0.0,1.0,1.0,445.8614220002346,3.0,1.0,phase_1,,,,,,,,,,,,,magenta,cross
348.0,6.0,2.0,1.0,3.0,3.0,349.3616279993148,3.0,1.0,phase_1,,,,,,,,,,,,,green,circle
1281.0,8.0,4.0,1.0,1.0,1.0,566.7965619995812,3.0,1.0,phase_1,,,,,,,,,,,,,blue,diamond
304.0,6.0,2.0,1.0,1.0,1.0,557.4603869990824,3.0,1.0,phase_1,,,,,,,,,,,,,green,circle
1285.0,8.0,4.0,1.0,4.0,4.0,520.2164819984318,3.0,1.0,phase_1,,,,,,,,,,,,,blue,diamond
637.0,3.0,3.0,0.0,1.0,1.0,588.2215689998702,3.0,1.0,phase_1,,,,,,,,,,,,,gray,I
630.0,3.0,3.0,0.0,3.0,3.0,565.372994999052,3.0,1.0,phase_1,,,,,,,,,,,,,gray,I
1285.0,4.0,4.0,0.0,3.0,3.0,426.8874659992434,3.0,1.0,phase_1,,,,,,,,,,,,,magenta,cross
153.0,5.0,1.0,1.0,3.0,3.0,349.6536900001956,3.0,1.0,phase_1,,,,,,,,,,,,,yellow,flipped triangle
0.0,2.0,0.0,0.0,3.0,3.0,331.2017049993301,3.0,1.0,phase_1,,,,,,,,,,,,,cyan,triangle
670.0,3.0,3.0,0.0,2.0,2.0,472.7498869997362,3.0,1.0,phase_1,,,,,,,,,,,,,gray,I
1279.0,4.0,4.0,0.0,1.0,1.0,708.1055830003606,3.0,1.0,phase_1,,,,,,,,,,,,,magenta,cross
147.0,1.0,1.0,0.0,1.0,1.0,406.0899369997059,3.0,1.0,phase_1,,,,,,,,,,,,,orange,square
322.0,2.0,2.0,0.0,2.0,2.0,670.6481790006364,3.0,1.0,phase_1,,,,,,,,,,,,,cyan,triangle
0.0,1.0,0.0,0.0,3.0,3.0,350.2367490000324,3.0,1.0,phase_1,,,,,,,,,,,,,orange,square
333.0,6.0,2.0,1.0,2.0,2.0,539.7963690011238,3.0,1.0,phase_1,,,,,,,,,,,,,green,circle
0.0,1.0,0.0,0.0,2.0,2.0,407.9223740009183,3.0,1.0,phase_1,,,,,,,,,,,,,orange,square
0.0,5.0,0.0,1.0,1.0,1.0,644.0199249991565,3.0,1.0,phase_1,,,,,,,,,,,,,yellow,flipped triangle
632.0,7.0,3.0,1.0,4.0,4.0,471.2076669984526,3.0,1.0,phase_1,,,,,,,,,,,,,white,hexagon
324.0,2.0,2.0,0.0,1.0,1.0,491.2620109989802,3.0,1.0,phase_1,,,,,,,,,,,,,cyan,triangle
1302.0,4.0,4.0,0.0,2.0,2.0,510.14188999943144,3.0,1.0,phase_1,,,,,,,,,,,,,magenta,cross
313.0,2.0,2.0,0.0,4.0,4.0,509.17693200062786,3.0,1.0,phase_1,,,,,,,,,,,,,cyan,triangle
1302.0,8.0,4.0,1.0,2.0,2.0,462.368989999959,3.0,1.0,phase_1,,,,,,,,,,,,,blue,diamond
0.0,5.0,0.0,1.0,4.0,4.0,387.2770990001299,3.0,1.0,phase_1,,,,,,,,,,,,,yellow,flipped triangle
0.0,8.0,0.0,1.0,3.0,3.0,708.1451850008307,3.0,1.0,phase_1,,,,,,,,,,,,,blue,diamond
656.0,7.0,3.0,1.0,1.0,1.0,669.1736400007358,3.0,1.0,phase_1,,,,,,,,,,,,,white,hexagon
171.0,5.0,1.0,1.0,1.0,1.0,443.5972960000072,3.0,1.0,phase_1,,,,,,,,,,,,,yellow,flipped triangle
174.0,1.0,1.0,0.0,1.0,1.0,406.3144209994789,3.0,1.0,phase_1,,,,,,,,,,,,,orange,square
1293.0,4.0,4.0,0.0,1.0,1.0,350.580999000158,3.0,1.0,phase_1,,,,,,,,,,,,,magenta,cross
184.0,1.0,1.0,0.0,2.0,2.0,509.7384780001448,3.0,1.0,phase_1,,,,,,,,,,,,,orange,square
0.0,1.0,0.0,0.0,2.0,2.0,463.5220709988061,3.0,1.0,phase_1,,,,,,,,,,,,,orange,square
175.0,1.0,1.0,0.0,1.0,1.0,613.7088429986761,3.0,1.0,phase_1,,,,,,,,,,,,,orange,square
0.0,6.0,0.0,1.0,3.0,3.0,848.9586630003032,3.0,1.0,phase_1,,,,,,,,,,,,,green,circle
335.0,6.0,2.0,1.0,1.0,1.0,490.45219800063927,3.0,1.0,phase_1,,,,,,,,,,,,,green,circle
651.0,3.0,3.0,0.0,2.0,2.0,491.6617319995566,3.0,1.0,phase_1,,,,,,,,,,,,,gray,I
1305.0,4.0,4.0,0.0,3.0,3.0,473.1184699994628,3.0,1.0,phase_1,,,,,,,,,,,,,magenta,cross
0.0,7.0,0.0,1.0,2.0,2.0,444.4995769990782,3.0,1.0,phase_1,,,,,,,,,,,,,white,hexagon
0.0,5.0,0.0,1.0,4.0,4.0,435.3221519995713,3.0,1.0,phase_1,,,,,,,,,,,,,yellow,flipped triangle
664.0,3.0,3.0,0.0,2.0,2.0,509.81926699932956,3.0,1.0,phase_1,,,,,,,,,,,,,gray,I
0.0,8.0,0.0,1.0,4.0,4.0,482.290854999519,3.0,1.0,phase_1,,,,,,,,,,,,,blue,diamond
1290.0,8.0,4.0,1.0,1.0,1.0,526.9141610006045,3.0,1.0,phase_1,,,,,,,,,,,,,blue,diamond
349.0,6.0,2.0,1.0,4.0,4.0,435.2039589994092,3.0,1.0,phase_1,,,,,,,,,,,,,green,circle
0.0,4.0,0.0,0.0,2.0,2.0,518.404083999485,3.0,1.0,phase_1,,,,,,,,,,,,,magenta,cross
638.0,3.0,3.0,0.0,4.0,4.0,632.1783579987823,3.0,1.0,phase_1,,,,,,,,,,,,,gray,I
647.0,3.0,3.0,0.0,1.0,1.0,556.681075000597,3.0,1.0,phase_1,,,,,,,,,,,,,gray,I
185.0,5.0,1.0,1.0,1.0,1.0,500.5395000007411,3.0,1.0,phase_1,,,,,,,,,,,,,yellow,flipped triangle
1317.0,4.0,4.0,0.0,3.0,3.0,510.16764599989983,3.0,1.0,phase_1,,,,,,,,,,,,,magenta,cross
329.0,6.0,2.0,1.0,4.0,4.0,396.0936700004822,3.0,1.0,phase_1,,,,,,,,,,,,,green,circle
326.0,6.0,2.0,1.0,1.0,1.0,604.7099709994654,3.0,1.0,phase_1,,,,,,,,,,,,,green,circle
323.0,6.0,2.0,1.0,2.0,2.0,622.5516659997083,3.0,1.0,phase_1,,,,,,,,,,,,,green,circle
641.0,7.0,3.0,1.0,3.0,3.0,443.5582109999814,3.0,1.0,phase_1,,,,,,,,,,,,,white,hexagon
1285.0,8.0,4.0,1.0,4.0,4.0,434.3513010007882,3.0,1.0,phase_1,,,,,,,,,,,,,blue,diamond
1278.0,8.0,4.0,1.0,1.0,1.0,499.9681529989175,3.0,1.0,phase_1,,,,,,,,,,,,,blue,diamond
671.0,3.0,3.0,0.0,3.0,3.0,481.5062790003139,3.0,1.0,phase_1,,,,,,,,,,,,,gray,I
319.0,2.0,2.0,0.0,3.0,3.0,443.9361920012743,3.0,1.0,phase_1,,,,,,,,,,,,,cyan,triangle
312.0,6.0,2.0,1.0,1.0,1.0,528.9317899987509,3.0,1.0,phase_1,,,,,,,,,,,,,green,circle
0.0,3.0,0.0,0.0,3.0,3.0,453.4180070004368,3.0,1.0,phase_1,,,,,,,,,,,,,gray,I
0.0,7.0,0.0,1.0,4.0,4.0,453.2363039998017,3.0,1.0,phase_1,,,,,,,,,,,,,white,hexagon
1282.0,8.0,4.0,1.0,2.0,2.0,454.4452600002842,3.0,2.0,phase_1,,,,,,,,,,,,,blue,diamond
178.0,1.0,1.0,0.0,3.0,3.0,481.0816350000095,3.0,1.0,phase_1,,,,,,,,,,,,,orange,square
1318.0,8.0,4.0,1.0,4.0,4.0,510.77278400043724,3.0,1.0,phase_1,,,,,,,,,,,,,blue,diamond
303.0,6.0,2.0,1.0,4.0,4.0,474.6453430016117,3.0,1.0,phase_1,,,,,,,,,,,,,green,circle
170.0,5.0,1.0,1.0,3.0,3.0,491.6859450004267,3.0,1.0,phase_1,,,,,,,,,,,,,yellow,flipped triangle
0.0,5.0,0.0,1.0,4.0,4.0,708.7358600001608,3.0,1.0,phase_1,,,,,,,,,,,,,yellow,flipped triangle
334.0,2.0,2.0,0.0,4.0,4.0,501.7187850007758,3.0,1.0,phase_1,,,,,,,,,,,,,cyan,triangle
0.0,2.0,0.0,0.0,3.0,3.0,492.3060439996334,3.0,1.0,phase_1,,,,,,,,,,,,,cyan,triangle
333.0,2.0,2.0,0.0,3.0,3.0,424.2249359995185,3.0,1.0,phase_1,,,,,,,,,,,,,cyan,triangle
659.0,7.0,3.0,1.0,4.0,4.0,511.56029800040415,3.0,1.0,phase_1,,,,,,,,,,,,,white,hexagon
321.0,2.0,2.0,0.0,1.0,1.0,510.83364700025413,3.0,1.0,phase_1,,,,,,,,,,,,,cyan,triangle
642.0,7.0,3.0,1.0,3.0,3.0,426.7711029988277,4.0,1.0,phase_1,,,,,,,,,,,,,white,hexagon
651.0,7.0,3.0,1.0,2.0,2.0,443.2862960002239,4.0,1.0,phase_1,,,,,,,,,,,,,white,hexagon
1304.0,4.0,4.0,0.0,3.0,3.0,344.709609000347,4.0,1.0,phase_1,,,,,,,,,,,,,magenta,cross
1285.0,4.0,4.0,0.0,2.0,2.0,339.0058699988003,4.0,1.0,phase_1,,,,,,,,,,,,,magenta,cross
0.0,4.0,0.0,0.0,3.0,3.0,302.7069220006524,4.0,1.0,phase_1,,,,,,,,,,,,,magenta,cross
1295.0,8.0,4.0,1.0,4.0,4.0,481.4917509993393,4.0,1.0,phase_1,,,,,,,,,,,,,blue,diamond
659.0,3.0,3.0,0.0,1.0,1.0,398.4507820005092,4.0,1.0,phase_1,,,,,,,,,,,,,gray,I
637.0,7.0,3.0,1.0,2.0,2.0,529.874051000661,4.0,1.0,phase_1,,,,,,,,,,,,,white,hexagon
0.0,5.0,0.0,1.0,2.0,2.0,435.6281939999462,4.0,1.0,phase_1,,,,,,,,,,,,,yellow,flipped triangle
0.0,2.0,0.0,0.0,1.0,1.0,544.2094059999363,4.0,1.0,phase_1,,,,,,,,,,,,,cyan,triangle
308.0,2.0,2.0,0.0,4.0,4.0,520.3686750010093,4.0,1.0,phase_1,,,,,,,,,,,,,cyan,triangle
637.0,3.0,3.0,0.0,4.0,4.0,472.5583339986769,4.0,1.0,phase_1,,,,,,,,,,,,,gray,I
312.0,6.0,2.0,1.0,1.0,1.0,490.9858880000683,4.0,1.0,phase_1,,,,,,,,,,,,,green,circle
321.0,2.0,2.0,0.0,3.0,3.0,415.8320810001896,4.0,1.0,phase_1,,,,,,,,,,,,,cyan,triangle
1290.0,8.0,4.0,1.0,1.0,1.0,453.6376979995111,4.0,1.0,phase_1,,,,,,,,,,,,,blue,diamond
665.0,3.0,3.0,0.0,3.0,3.0,595.53768799924,4.0,1.0,phase_1,,,,,,,,,,,,,gray,I
177.0,5.0,1.0,1.0,3.0,3.0,425.264571000298,4.0,1.0,phase_1,,,,,,,,,,,,,yellow,flipped triangle
0.0,7.0,0.0,1.0,2.0,2.0,386.9857780009624,4.0,1.0,phase_1,,,,,,,,,,,,,white,hexagon
1278.0,4.0,4.0,0.0,4.0,4.0,415.9871290012233,4.0,1.0,phase_1,,,,,,,,,,,,,magenta,cross
1288.0,8.0,4.0,1.0,4.0,4.0,747.3287449993222,4.0,1.0,phase_1,,,,,,,,,,,,,blue,diamond
663.0,7.0,3.0,1.0,1.0,1.0,614.1100789991469,4.0,1.0,phase_1,,,,,,,,,,,,,white,hexagon
0.0,5.0,0.0,1.0,4.0,4.0,359.1940089991112,4.0,1.0,phase_1,,,,,,,,,,,,,yellow,flipped triangle
637.0,7.0,3.0,1.0,3.0,3.0,369.4809349999559,4.0,1.0,phase_1,,,,,,,,,,,,,white,hexagon
672.0,7.0,3.0,1.0,2.0,2.0,538.1087629993999,4.0,1.0,phase_1,,,,,,,,,,,,,white,hexagon
333.0,6.0,2.0,1.0,3.0,3.0,406.14001799986,4.0,1.0,phase_1,,,,,,,,,,,,,green,circle
0.0,4.0,0.0,0.0,2.0,2.0,369.3725449993508,4.0,1.0,phase_1,,,,,,,,,,,,,magenta,cross
1320.0,8.0,4.0,1.0,1.0,1.0,537.447341999723,4.0,1.0,phase_1,,,,,,,,,,,,,blue,diamond
655.0,7.0,3.0,1.0,2.0,2.0,659.8969759997999,4.0,1.0,phase_1,,,,,,,,,,,,,white,hexagon
1316.0,8.0,4.0,1.0,3.0,3.0,359.680154999296,4.0,1.0,phase_1,,,,,,,,,,,,,blue,diamond
172.0,1.0,1.0,0.0,4.0,4.0,479.5066690003295,4.0,1.0,phase_1,,,,,,,,,,,,,orange,square
171.0,1.0,1.0,0.0,1.0,1.0,425.51947700121667,4.0,1.0,phase_1,,,,,,,,,,,,,orange,square
637.0,7.0,3.0,1.0,1.0,1.0,483.1380350005929,4.0,1.0,phase_1,,,,,,,,,,,,,white,hexagon
0.0,1.0,0.0,0.0,3.0,3.0,541.6891219992976,4.0,1.0,phase_1,,,,,,,,,,,,,orange,square
1276.0,8.0,4.0,1.0,4.0,4.0,520.2447900010156,4.0,1.0,phase_1,,,,,,,,,,,,,blue,diamond
0.0,4.0,0.0,0.0,2.0,2.0,471.8562369998835,4.0,1.0,phase_1,,,,,,,,,,,,,magenta,cross
648.0,7.0,3.0,1.0,1.0,1.0,463.1194310004503,4.0,1.0,phase_1,,,,,,,,,,,,,white,hexagon
169.0,5.0,1.0,1.0,4.0,4.0,369.7850089993153,4.0,1.0,phase_1,,,,,,,,,,,,,yellow,flipped triangle
155.0,1.0,1.0,0.0,3.0,3.0,397.333114000503,4.0,1.0,phase_1,,,,,,,,,,,,,orange,square
304.0,2.0,2.0,0.0,2.0,2.0,462.529861000803,4.0,1.0,phase_1,,,,,,,,,,,,,cyan,triangle
140.0,5.0,1.0,1.0,4.0,4.0,379.0177800001402,4.0,1.0,phase_1,,,,,,,,,,,,,yellow,flipped triangle
163.0,1.0,1.0,0.0,1.0,1.0,425.3110329991614,4.0,1.0,phase_1,,,,,,,,,,,,,orange,square
1316.0,4.0,4.0,0.0,3.0,3.0,473.1586340003559,4.0,1.0,phase_1,,,,,,,,,,,,,magenta,cross
0.0,4.0,0.0,0.0,3.0,3.0,416.0891210012778,4.0,1.0,phase_1,,,,,,,,,,,,,magenta,cross
341.0,2.0,2.0,0.0,3.0,3.0,378.7207559998933,4.0,1.0,phase_1,,,,,,,,,,,,,cyan,triangle
1299.0,8.0,4.0,1.0,3.0,3.0,331.079627998406,4.0,1.0,phase_1,,,,,,,,,,,,,blue,diamond
1301.0,4.0,4.0,0.0,3.0,3.0,350.2264030012156,4.0,1.0,phase_1,,,,,,,,,,,,,magenta,cross
342.0,2.0,2.0,0.0,1.0,1.0,397.1164960003079,4.0,1.0,phase_1,,,,,,,,,,,,,cyan,triangle
0.0,3.0,0.0,0.0,2.0,2.0,500.4026549995615,4.0,1.0,phase_1,,,,,,,,,,,,,gray,I
175.0,1.0,1.0,0.0,1.0,1.0,490.8404479992896,4.0,1.0,phase_1,,,,,,,,,,,,,orange,square
323.0,6.0,2.0,1.0,2.0,2.0,483.7858160008181,4.0,1.0,phase_1,,,,,,,,,,,,,green,circle
1316.0,8.0,4.0,1.0,1.0,1.0,474.2796259997703,4.0,1.0,phase_1,,,,,,,,,,,,,blue,diamond
313.0,6.0,2.0,1.0,1.0,1.0,432.8765040008875,4.0,1.0,phase_1,,,,,,,,,,,,,green,circle
337.0,6.0,2.0,1.0,2.0,2.0,519.6244319995458,4.0,1.0,phase_1,,,,,,,,,,,,,green,circle
670.0,7.0,3.0,1.0,1.0,1.0,445.5482909997954,4.0,1.0,phase_1,,,,,,,,,,,,,white,hexagon
642.0,3.0,3.0,0.0,4.0,4.0,499.444864999532,4.0,1.0,phase_1,,,,,,,,,,,,,gray,I
634.0,3.0,3.0,0.0,2.0,2.0,433.8637649998418,4.0,1.0,phase_1,,,,,,,,,,,,,gray,I
0.0,8.0,0.0,1.0,3.0,3.0,472.6587179993657,4.0,1.0,phase_1,,,,,,,,,,,,,blue,diamond
0.0,8.0,0.0,1.0,4.0,4.0,520.314141000199,4.0,1.0,phase_1,,,,,,,,,,,,,blue,diamond
311.0,6.0,2.0,1.0,1.0,1.0,424.6729899987258,4.0,1.0,phase_1,,,,,,,,,,,,,green,circle
147.0,1.0,1.0,0.0,2.0,2.0,774.267057000543,4.0,1.0,phase_1,,,,,,,,,,,,,orange,square
0.0,8.0,0.0,1.0,2.0,2.0,425.7666849989618,4.0,1.0,phase_1,,,,,,,,,,,,,blue,diamond
1314.0,4.0,4.0,0.0,2.0,2.0,538.6930489985389,4.0,1.0,phase_1,,,,,,,,,,,,,magenta,cross
0.0,3.0,0.0,0.0,3.0,3.0,473.0740950017207,4.0,1.0,phase_1,,,,,,,,,,,,,gray,I
1305.0,4.0,4.0,0.0,4.0,4.0,538.9981259995693,4.0,1.0,phase_1,,,,,,,,,,,,,magenta,cross
1279.0,8.0,4.0,1.0,2.0,2.0,490.9908139998151,4.0,1.0,phase_1,,,,,,,,,,,,,blue,diamond
170.0,1.0,1.0,0.0,2.0,2.0,463.8925390008808,4.0,1.0,phase_1,,,,,,,,,,,,,orange,square
336.0,2.0,2.0,0.0,1.0,1.0,530.3062560014951,4.0,1.0,phase_1,,,,,,,,,,,,,cyan,triangle
0.0,3.0,0.0,0.0,1.0,1.0,378.1930759996612,4.0,1.0,phase_1,,,,,,,,,,,,,gray,I
0.0,1.0,0.0,0.0,1.0,1.0,348.7712339992868,4.0,1.0,phase_1,,,,,,,,,,,,,orange,square
630.0,3.0,3.0,0.0,1.0,1.0,360.6474900007015,4.0,1.0,phase_1,,,,,,,,,,,,,gray,I
159.0,5.0,1.0,1.0,4.0,4.0,435.0059649987088,4.0,1.0,phase_1,,,,,,,,,,,,,yellow,flipped triangle
0.0,1.0,0.0,0.0,3.0,3.0,671.2301899988233,4.0,1.0,phase_1,,,,,,,,,,,,,orange,square
1301.0,4.0,4.0,0.0,2.0,2.0,405.2562409997335,4.0,1.0,phase_1,,,,,,,,,,,,,magenta,cross
143.0,1.0,1.0,0.0,4.0,4.0,521.0342970003694,4.0,1.0,phase_1,,,,,,,,,,,,,orange,square
155.0,5.0,1.0,1.0,4.0,4.0,312.3993680001149,4.0,2.0,phase_1,,,,,,,,,,,,,yellow,flipped triangle
0.0,3.0,0.0,0.0,4.0,4.0,407.2419170006469,4.0,1.0,phase_1,,,,,,,,,,,,,gray,I
634.0,7.0,3.0,1.0,3.0,3.0,482.6538350007467,4.0,1.0,phase_1,,,,,,,,,,,,,white,hexagon
0.0,6.0,0.0,1.0,1.0,1.0,547.9514480011858,4.0,1.0,phase_1,,,,,,,,,,,,,green,circle
178.0,5.0,1.0,1.0,3.0,3.0,566.3091210008133,4.0,1.0,phase_1,,,,,,,,,,,,,yellow,flipped triangle
332.0,6.0,2.0,1.0,3.0,3.0,414.8859449996962,4.0,1.0,phase_1,,,,,,,,,,,,,green,circle
0.0,6.0,0.0,1.0,2.0,2.0,529.3340779990103,4.0,1.0,phase_1,,,,,,,,,,,,,green,circle
647.0,7.0,3.0,1.0,3.0,3.0,406.9474989992159,4.0,1.0,phase_1,,,,,,,,,,,,,white,hexagon
647.0,7.0,3.0,1.0,1.0,1.0,651.9954810009949,4.0,1.0,phase_1,,,,,,,,,,,,,white,hexagon
324.0,6.0,2.0,1.0,3.0,3.0,623.090854000111,4.0,1.0,phase_1,,,,,,,,,,,,,green,circle
171.0,1.0,1.0,0.0,3.0,3.0,396.427763000247,4.0,1.0,phase_1,,,,,,,,,,,,,orange,square
641.0,3.0,3.0,0.0,2.0,2.0,424.6766109990858,4.0,1.0,phase_1,,,,,,,,,,,,,gray,I
1290.0,4.0,4.0,0.0,2.0,2.0,473.2836669991229,4.0,1.0,phase_1,,,,,,,,,,,,,magenta,cross
656.0,3.0,3.0,0.0,1.0,1.0,615.0627150000219,4.0,1.0,phase_1,,,,,,,,,,,,,gray,I
329.0,2.0,2.0,0.0,1.0,1.0,433.6415580000903,4.0,1.0,phase_1,,,,,,,,,,,,,cyan,triangle
178.0,1.0,1.0,0.0,4.0,4.0,586.5197710008943,4.0,1.0,phase_1,,,,,,,,,,,,,orange,square
1317.0,8.0,4.0,1.0,1.0,1.0,716.5106640004524,4.0,1.0,phase_1,,,,,,,,,,,,,blue,diamond
338.0,6.0,2.0,1.0,4.0,4.0,567.0272780007508,4.0,1.0,phase_1,,,,,,,,,,,,,green,circle
335.0,2.0,2.0,0.0,2.0,2.0,464.0020550014014,4.0,1.0,phase_1,,,,,,,,,,,,,cyan,triangle
648.0,3.0,3.0,0.0,2.0,2.0,605.2901839993865,4.0,1.0,phase_1,,,,,,,,,,,,,gray,I
1301.0,8.0,4.0,1.0,2.0,2.0,472.4468629992771,4.0,1.0,phase_1,,,,,,,,,,,,,blue,diamond
0.0,7.0,0.0,1.0,3.0,3.0,442.96211999972,4.0,1.0,phase_1,,,,,,,,,,,,,white,hexagon
0.0,6.0,0.0,1.0,4.0,4.0,416.1515149990009,4.0,1.0,phase_1,,,,,,,,,,,,,green,circle
147.0,5.0,1.0,1.0,1.0,1.0,531.3494950005406,4.0,1.0,phase_1,,,,,,,,,,,,,yellow,flipped triangle
0.0,8.0,0.0,1.0,2.0,2.0,491.9066029997339,4.0,1.0,phase_1,,,,,,,,,,,,,blue,diamond
0.0,6.0,0.0,1.0,2.0,2.0,405.8283069989556,4.0,1.0,phase_1,,,,,,,,,,,,,green,circle
0.0,7.0,3.0,1.0,6.0,6.0,513.7597159991856,1.0,1.0,phase_2,go,250.0,250.0,1.0,,,,,,,,,white,hexagon
0.0,5.0,1.0,1.0,6.0,0.0,0.0,1.0,1.0,phase_2,stop,250.0,250.0,4.0,,,,,,,,,yellow,flipped triangle
0.0,5.0,1.0,1.0,6.0,6.0,482.1325590000924,1.0,1.0,phase_2,stop,250.0,300.0,3.0,,,,,,,,,yellow,flipped triangle
0.0,8.0,4.0,1.0,5.0,5.0,419.1217690004123,1.0,1.0,phase_2,go,250.0,250.0,1.0,,,,,,,,,blue,diamond
0.0,4.0,4.0,0.0,5.0,5.0,722.2795760008012,1.0,1.0,phase_2,go,250.0,250.0,1.0,,,,,,,,,magenta,cross
0.0,5.0,1.0,1.0,6.0,0.0,0.0,1.0,1.0,phase_2,stop,250.0,250.0,4.0,,,,,,,,,yellow,flipped triangle
0.0,3.0,3.0,0.0,6.0,6.0,733.8984879988857,1.0,1.0,phase_2,go,250.0,300.0,1.0,,,,,,,,,gray,I
0.0,2.0,2.0,0.0,6.0,6.0,905.9966340009852,1.0,1.0,phase_2,go,250.0,300.0,1.0,,,,,,,,,cyan,triangle
0.0,3.0,3.0,0.0,6.0,6.0,856.9206009997288,1.0,1.0,phase_2,go,250.0,300.0,1.0,,,,,,,,,gray,I
0.0,6.0,2.0,1.0,6.0,6.0,754.1119260004052,1.0,1.0,phase_2,go,250.0,300.0,1.0,,,,,,,,,green,circle
0.0,4.0,4.0,0.0,6.0,6.0,658.5753140007,1.0,1.0,phase_2,go,250.0,300.0,1.0,,,,,,,,,magenta,cross
0.0,8.0,4.0,1.0,5.0,0.0,0.0,1.0,1.0,phase_2,stop,250.0,300.0,4.0,,,,,,,,,blue,diamond
0.0,4.0,4.0,0.0,6.0,6.0,526.4407499998924,1.0,1.0,phase_2,go,300.0,300.0,1.0,,,,,,,,,magenta,cross
0.0,2.0,2.0,0.0,6.0,6.0,695.3049230014585,1.0,1.0,phase_2,go,300.0,300.0,1.0,,,,,,,,,cyan,triangle
0.0,8.0,4.0,1.0,5.0,5.0,740.9588690006785,1.0,1.0,phase_2,go,300.0,300.0,1.0,,,,,,,,,blue,diamond
0.0,8.0,4.0,1.0,5.0,5.0,790.2650500000163,1.0,1.0,phase_2,go,300.0,300.0,1.0,,,,,,,,,blue,diamond
0.0,5.0,1.0,1.0,5.0,0.0,0.0,1.0,1.0,phase_2,stop,300.0,300.0,4.0,,,,,,,,,yellow,flipped triangle
0.0,1.0,1.0,0.0,6.0,6.0,734.0476509998553,1.0,1.0,phase_2,go,350.0,300.0,1.0,,,,,,,,,orange,square
0.0,7.0,3.0,1.0,6.0,6.0,735.3549869985727,1.0,1.0,phase_2,go,350.0,300.0,1.0,,,,,,,,,white,hexagon
0.0,3.0,3.0,0.0,6.0,6.0,646.8844000009994,1.0,1.0,phase_2,go,350.0,300.0,1.0,,,,,,,,,gray,I
0.0,5.0,1.0,1.0,5.0,0.0,0.0,1.0,1.0,phase_2,stop,350.0,300.0,4.0,,,,,,,,,yellow,flipped triangle
0.0,2.0,2.0,0.0,5.0,5.0,639.1982530003588,1.0,1.0,phase_2,go,400.0,300.0,1.0,,,,,,,,,cyan,triangle
0.0,8.0,4.0,1.0,6.0,0.0,0.0,1.0,1.0,phase_2,stop,400.0,300.0,4.0,,,,,,,,,blue,diamond
0.0,2.0,2.0,0.0,5.0,5.0,657.0214029998169,1.0,1.0,phase_2,go,400.0,350.0,1.0,,,,,,,,,cyan,triangle
0.0,6.0,2.0,1.0,6.0,0.0,0.0,1.0,1.0,phase_2,stop,400.0,350.0,4.0,,,,,,,,,green,circle
0.0,8.0,4.0,1.0,5.0,0.0,0.0,1.0,1.0,phase_2,stop,400.0,400.0,4.0,,,,,,,,,blue,diamond
0.0,8.0,4.0,1.0,6.0,6.0,934.0682609999932,1.0,1.0,phase_2,go,450.0,400.0,1.0,,,,,,,,,blue,diamond
0.0,2.0,2.0,0.0,6.0,6.0,876.4275609992183,1.0,1.0,phase_2,go,450.0,400.0,1.0,,,,,,,,,cyan,triangle
0.0,3.0,3.0,0.0,5.0,5.0,800.8216870002798,1.0,1.0,phase_2,go,450.0,400.0,1.0,,,,,,,,,gray,I
0.0,5.0,1.0,1.0,5.0,0.0,0.0,1.0,1.0,phase_2,stop,450.0,400.0,4.0,,,,,,,,,yellow,flipped triangle
0.0,5.0,1.0,1.0,6.0,0.0,0.0,1.0,1.0,phase_2,stop,500.0,400.0,4.0,,,,,,,,,yellow,flipped triangle
0.0,6.0,2.0,1.0,6.0,6.0,772.4313559992879,1.0,1.0,phase_2,go,500.0,450.0,1.0,,,,,,,,,green,circle
0.0,5.0,1.0,1.0,6.0,6.0,877.3833890008973,1.0,1.0,phase_2,go,500.0,450.0,1.0,,,,,,,,,yellow,flipped triangle
0.0,3.0,3.0,0.0,5.0,5.0,781.39788199951,1.0,1.0,phase_2,go,500.0,450.0,1.0,,,,,,,,,gray,I
0.0,4.0,4.0,0.0,6.0,6.0,859.1089349993126,1.0,1.0,phase_2,go,500.0,450.0,1.0,,,,,,,,,magenta,cross
0.0,1.0,1.0,0.0,5.0,5.0,847.2893670004851,1.0,1.0,phase_2,go,500.0,450.0,1.0,,,,,,,,,orange,square
0.0,6.0,2.0,1.0,5.0,5.0,478.4336209995672,2.0,1.0,phase_2,stop,500.0,450.0,3.0,,,,,,,,,green,circle
0.0,4.0,4.0,0.0,5.0,5.0,582.1613240004808,2.0,1.0,phase_2,go,450.0,450.0,1.0,,,,,,,,,magenta,cross
0.0,4.0,4.0,0.0,6.0,6.0,553.5575670000981,2.0,1.0,phase_2,go,450.0,450.0,1.0,,,,,,,,,magenta,cross
0.0,8.0,4.0,1.0,5.0,5.0,545.2150689998234,2.0,1.0,phase_2,stop,450.0,450.0,3.0,,,,,,,,,blue,diamond
0.0,1.0,1.0,0.0,5.0,5.0,642.3444539996126,2.0,1.0,phase_2,go,400.0,450.0,1.0,,,,,,,,,orange,square
0.0,8.0,4.0,1.0,6.0,6.0,556.7156659999455,2.0,1.0,phase_2,go,400.0,450.0,1.0,,,,,,,,,blue,diamond
0.0,6.0,2.0,1.0,6.0,6.0,554.5075499994709,2.0,1.0,phase_2,stop,400.0,450.0,3.0,,,,,,,,,green,circle
0.0,7.0,3.0,1.0,5.0,5.0,652.5282629991125,2.0,1.0,phase_2,go,400.0,400.0,1.0,,,,,,,,,white,hexagon
0.0,8.0,4.0,1.0,5.0,0.0,0.0,2.0,1.0,phase_2,stop,400.0,400.0,4.0,,,,,,,,,blue,diamond
0.0,5.0,1.0,1.0,6.0,0.0,0.0,2.0,1.0,phase_2,stop,450.0,400.0,4.0,,,,,,,,,yellow,flipped triangle
0.0,2.0,2.0,0.0,5.0,5.0,602.5307750005595,2.0,1.0,phase_2,go,450.0,450.0,1.0,,,,,,,,,cyan,triangle
0.0,2.0,2.0,0.0,6.0,6.0,658.8822490011808,2.0,1.0,phase_2,go,450.0,450.0,1.0,,,,,,,,,cyan,triangle
0.0,6.0,2.0,1.0,5.0,5.0,646.2608229994657,2.0,1.0,phase_2,stop,450.0,450.0,3.0,,,,,,,,,green,circle
0.0,3.0,3.0,0.0,5.0,5.0,937.5713800000084,2.0,1.0,phase_2,go,400.0,450.0,1.0,,,,,,,,,gray,I
0.0,7.0,3.0,1.0,5.0,0.0,0.0,2.0,1.0,phase_2,stop,400.0,450.0,4.0,,,,,,,,,white,hexagon
0.0,3.0,3.0,0.0,5.0,5.0,845.1007029998436,2.0,1.0,phase_2,go,450.0,450.0,1.0,,,,,,,,,gray,I
0.0,8.0,4.0,1.0,6.0,6.0,780.2437789996475,2.0,1.0,phase_2,go,450.0,450.0,1.0,,,,,,,,,blue,diamond
0.0,7.0,3.0,1.0,5.0,0.0,0.0,2.0,1.0,phase_2,stop,450.0,450.0,4.0,,,,,,,,,white,hexagon
0.0,7.0,3.0,1.0,6.0,6.0,611.1140600005456,2.0,1.0,phase_2,go,500.0,450.0,1.0,,,,,,,,,white,hexagon
0.0,5.0,1.0,1.0,5.0,5.0,762.3822260011366,2.0,1.0,phase_2,go,500.0,450.0,1.0,,,,,,,,,yellow,flipped triangle
0.0,5.0,1.0,1.0,5.0,5.0,671.2833719993796,2.0,1.0,phase_2,stop,500.0,450.0,3.0,,,,,,,,,yellow,flipped triangle
0.0,1.0,1.0,0.0,5.0,5.0,719.8255069997685,2.0,1.0,phase_2,go,450.0,450.0,1.0,,,,,,,,,orange,square
0.0,6.0,2.0,1.0,5.0,5.0,854.5111680014088,2.0,1.0,phase_2,go,450.0,450.0,1.0,,,,,,,,,green,circle
0.0,3.0,3.0,0.0,6.0,6.0,877.817454000251,2.0,1.0,phase_2,go,450.0,450.0,1.0,,,,,,,,,gray,I
0.0,4.0,4.0,0.0,6.0,6.0,885.3818439984025,2.0,1.0,phase_2,go,450.0,450.0,1.0,,,,,,,,,magenta,cross
0.0,7.0,3.0,1.0,5.0,5.0,861.2112179998803,2.0,1.0,phase_2,go,450.0,450.0,1.0,,,,,,,,,white,hexagon
0.0,3.0,3.0,0.0,5.0,5.0,754.3281500002195,2.0,1.0,phase_2,go,450.0,450.0,1.0,,,,,,,,,gray,I
0.0,5.0,1.0,1.0,5.0,0.0,0.0,2.0,1.0,phase_2,stop,450.0,450.0,4.0,,,,,,,,,yellow,flipped triangle
0.0,4.0,4.0,0.0,6.0,6.0,715.5821959986497,2.0,1.0,phase_2,go,500.0,450.0,1.0,,,,,,,,,magenta,cross
0.0,5.0,1.0,1.0,6.0,0.0,0.0,2.0,1.0,phase_2,stop,500.0,450.0,4.0,,,,,,,,,yellow,flipped triangle
0.0,2.0,2.0,0.0,5.0,5.0,705.4323550000845,2.0,1.0,phase_2,go,500.0,500.0,1.0,,,,,,,,,cyan,triangle
0.0,7.0,3.0,1.0,5.0,5.0,848.5842220015911,2.0,1.0,phase_2,go,500.0,500.0,1.0,,,,,,,,,white,hexagon
0.0,8.0,4.0,1.0,6.0,6.0,744.4341270002042,2.0,1.0,phase_2,go,500.0,500.0,1.0,,,,,,,,,blue,diamond
0.0,3.0,3.0,0.0,5.0,5.0,675.3723089987034,2.0,1.0,phase_2,go,500.0,500.0,1.0,,,,,,,,,gray,I
0.0,7.0,3.0,1.0,6.0,0.0,0.0,2.0,1.0,phase_2,stop,500.0,500.0,4.0,,,,,,,,,white,hexagon
0.0,2.0,2.0,0.0,6.0,6.0,743.1057670000882,2.0,1.0,phase_2,go,500.0,550.0,1.0,,,,,,,,,cyan,triangle
0.0,7.0,3.0,1.0,6.0,6.0,692.7235019993532,3.0,1.0,phase_2,stop,500.0,550.0,3.0,,,,,,,,,white,hexagon
0.0,3.0,3.0,0.0,5.0,5.0,475.5528009991394,3.0,1.0,phase_2,go,500.0,500.0,1.0,,,,,,,,,gray,I
0.0,2.0,2.0,0.0,6.0,6.0,705.3394769991428,3.0,1.0,phase_2,go,500.0,500.0,1.0,,,,,,,,,cyan,triangle
0.0,8.0,4.0,1.0,5.0,5.0,438.6245549994783,3.0,1.0,phase_2,stop,500.0,500.0,3.0,,,,,,,,,blue,diamond
0.0,8.0,4.0,1.0,6.0,6.0,619.4538820000162,3.0,1.0,phase_2,stop,450.0,500.0,3.0,,,,,,,,,blue,diamond
0.0,4.0,4.0,0.0,6.0,6.0,573.8201410003967,3.0,1.0,phase_2,go,450.0,450.0,1.0,,,,,,,,,magenta,cross
0.0,1.0,1.0,0.0,5.0,5.0,531.818817000385,3.0,1.0,phase_2,go,450.0,450.0,1.0,,,,,,,,,orange,square
0.0,3.0,3.0,0.0,5.0,5.0,523.3951520003757,3.0,1.0,phase_2,go,450.0,450.0,1.0,,,,,,,,,gray,I
0.0,1.0,1.0,0.0,5.0,5.0,619.5345309988625,3.0,1.0,phase_2,go,450.0,450.0,1.0,,,,,,,,,orange,square
0.0,1.0,1.0,0.0,5.0,5.0,721.7736509992392,3.0,1.0,phase_2,go,450.0,450.0,1.0,,,,,,,,,orange,square
0.0,1.0,1.0,0.0,6.0,6.0,560.7628890011256,3.0,1.0,phase_2,go,450.0,450.0,1.0,,,,,,,,,orange,square
0.0,7.0,3.0,1.0,5.0,0.0,0.0,3.0,1.0,phase_2,stop,450.0,450.0,4.0,,,,,,,,,white,hexagon
0.0,5.0,1.0,1.0,5.0,5.0,607.2345020002103,3.0,1.0,phase_2,stop,500.0,450.0,3.0,,,,,,,,,yellow,flipped triangle
0.0,4.0,4.0,0.0,5.0,5.0,676.1648960000457,3.0,1.0,phase_2,go,450.0,450.0,1.0,,,,,,,,,magenta,cross
0.0,7.0,3.0,1.0,6.0,0.0,0.0,3.0,1.0,phase_2,stop,450.0,450.0,4.0,,,,,,,,,white,hexagon
0.0,3.0,3.0,0.0,6.0,6.0,455.8269770004699,3.0,1.0,phase_2,go,450.0,500.0,1.0,,,,,,,,,gray,I
0.0,1.0,1.0,0.0,6.0,6.0,476.5030669987027,3.0,1.0,phase_2,go,450.0,500.0,1.0,,,,,,,,,orange,square
0.0,2.0,2.0,0.0,5.0,5.0,551.7194719996041,3.0,1.0,phase_2,go,450.0,500.0,1.0,,,,,,,,,cyan,triangle
0.0,5.0,1.0,1.0,5.0,0.0,0.0,3.0,1.0,phase_2,stop,450.0,500.0,4.0,,,,,,,,,yellow,flipped triangle
0.0,4.0,4.0,0.0,6.0,6.0,446.786892000091,3.0,1.0,phase_2,go,500.0,500.0,1.0,,,,,,,,,magenta,cross
0.0,7.0,3.0,1.0,6.0,6.0,922.8464390016596,3.0,1.0,phase_2,go,500.0,500.0,1.0,,,,,,,,,white,hexagon
0.0,3.0,3.0,0.0,5.0,5.0,427.3176280003099,3.0,1.0,phase_2,go,500.0,500.0,1.0,,,,,,,,,gray,I
0.0,6.0,2.0,1.0,5.0,5.0,532.8375089993642,3.0,1.0,phase_2,stop,500.0,500.0,3.0,,,,,,,,,green,circle
0.0,3.0,3.0,0.0,6.0,6.0,504.51213599990297,3.0,1.0,phase_2,go,450.0,500.0,1.0,,,,,,,,,gray,I
0.0,5.0,1.0,1.0,6.0,6.0,759.7019549994002,3.0,1.0,phase_2,go,450.0,500.0,1.0,,,,,,,,,yellow,flipped triangle
0.0,3.0,3.0,0.0,5.0,5.0,494.22768600015837,3.0,1.0,phase_2,go,450.0,500.0,1.0,,,,,,,,,gray,I
0.0,2.0,2.0,0.0,6.0,6.0,610.0960740004666,3.0,1.0,phase_2,go,450.0,500.0,1.0,,,,,,,,,cyan,triangle
0.0,8.0,4.0,1.0,6.0,6.0,779.2948530004651,3.0,1.0,phase_2,go,450.0,500.0,1.0,,,,,,,,,blue,diamond
0.0,7.0,3.0,1.0,5.0,0.0,0.0,3.0,1.0,phase_2,stop,450.0,500.0,4.0,,,,,,,,,white,hexagon
0.0,4.0,4.0,0.0,5.0,5.0,466.5202739997767,3.0,1.0,phase_2,go,500.0,500.0,1.0,,,,,,,,,magenta,cross
0.0,6.0,2.0,1.0,5.0,5.0,720.2541759997985,3.0,1.0,phase_2,stop,500.0,500.0,3.0,,,,,,,,,green,circle
0.0,5.0,1.0,1.0,6.0,6.0,398.2855220001511,3.0,1.0,phase_2,stop,450.0,500.0,3.0,,,,,,,,,yellow,flipped triangle
0.0,3.0,3.0,0.0,6.0,6.0,504.49064599888516,3.0,1.0,phase_2,go,450.0,450.0,1.0,,,,,,,,,gray,I
0.0,5.0,1.0,1.0,6.0,6.0,807.0101059984154,3.0,1.0,phase_2,go,450.0,450.0,1.0,,,,,,,,,yellow,flipped triangle
0.0,4.0,4.0,0.0,6.0,6.0,437.1530879998317,3.0,1.0,phase_2,go,450.0,450.0,1.0,,,,,,,,,magenta,cross
0.0,1.0,1.0,0.0,6.0,6.0,371.4060189995507,3.0,1.0,phase_2,go,450.0,450.0,1.0,,,,,,,,,orange,square
0.0,7.0,3.0,1.0,6.0,6.0,764.3225339998025,4.0,1.0,phase_2,go,450.0,450.0,1.0,,,,,,,,,white,hexagon
0.0,7.0,3.0,1.0,6.0,6.0,580.7154960002663,4.0,1.0,phase_2,stop,450.0,450.0,3.0,,,,,,,,,white,hexagon
0.0,5.0,1.0,1.0,6.0,6.0,440.1111250008398,4.0,1.0,phase_2,stop,450.0,400.0,3.0,,,,,,,,,yellow,flipped triangle
0.0,3.0,3.0,0.0,6.0,6.0,505.7950370010076,4.0,1.0,phase_2,go,450.0,350.0,1.0,,,,,,,,,gray,I
0.0,5.0,1.0,1.0,5.0,5.0,579.9406730002374,4.0,1.0,phase_2,stop,450.0,350.0,3.0,,,,,,,,,yellow,flipped triangle
0.0,1.0,1.0,0.0,5.0,5.0,513.4727750009915,4.0,1.0,phase_2,go,400.0,350.0,1.0,,,,,,,,,orange,square
0.0,8.0,4.0,1.0,6.0,0.0,0.0,4.0,1.0,phase_2,stop,400.0,350.0,4.0,,,,,,,,,blue,diamond
0.0,1.0,1.0,0.0,5.0,5.0,589.488032999725,4.0,1.0,phase_2,go,400.0,400.0,1.0,,,,,,,,,orange,square
0.0,5.0,1.0,1.0,5.0,5.0,790.4603909992147,4.0,1.0,phase_2,go,400.0,400.0,1.0,,,,,,,,,yellow,flipped triangle
0.0,2.0,2.0,0.0,5.0,5.0,713.599618000444,4.0,1.0,phase_2,go,400.0,400.0,1.0,,,,,,,,,cyan,triangle
0.0,5.0,1.0,1.0,5.0,5.0,809.8140010006318,4.0,1.0,phase_2,go,400.0,400.0,1.0,,,,,,,,,yellow,flipped triangle
0.0,1.0,1.0,0.0,5.0,5.0,525.5283070000587,4.0,1.0,phase_2,go,400.0,400.0,1.0,,,,,,,,,orange,square
0.0,8.0,4.0,1.0,5.0,0.0,0.0,4.0,1.0,phase_2,stop,400.0,400.0,4.0,,,,,,,,,blue,diamond
0.0,1.0,1.0,0.0,5.0,5.0,400.3298850002466,4.0,1.0,phase_2,go,450.0,400.0,1.0,,,,,,,,,orange,square
0.0,3.0,3.0,0.0,6.0,6.0,500.10321399895474,4.0,1.0,phase_2,go,450.0,400.0,1.0,,,,,,,,,gray,I
0.0,2.0,2.0,0.0,5.0,5.0,598.7001889989187,4.0,1.0,phase_2,go,450.0,400.0,1.0,,,,,,,,,cyan,triangle
0.0,7.0,3.0,1.0,5.0,0.0,0.0,4.0,1.0,phase_2,stop,450.0,400.0,4.0,,,,,,,,,white,hexagon
0.0,4.0,4.0,0.0,5.0,5.0,485.5636110005434,4.0,1.0,phase_2,go,500.0,400.0,1.0,,,,,,,,,magenta,cross
0.0,3.0,3.0,0.0,6.0,6.0,409.2941440012509,4.0,1.0,phase_2,go,500.0,400.0,1.0,,,,,,,,,gray,I
0.0,6.0,2.0,1.0,6.0,0.0,0.0,4.0,1.0,phase_2,stop,500.0,400.0,4.0,,,,,,,,,green,circle
0.0,2.0,2.0,0.0,5.0,5.0,622.2514169985516,4.0,1.0,phase_2,go,500.0,450.0,1.0,,,,,,,,,cyan,triangle
0.0,6.0,2.0,1.0,5.0,0.0,0.0,4.0,1.0,phase_2,stop,500.0,450.0,4.0,,,,,,,,,green,circle
0.0,4.0,4.0,0.0,6.0,6.0,467.4482999998872,4.0,1.0,phase_2,go,550.0,450.0,1.0,,,,,,,,,magenta,cross
0.0,3.0,3.0,0.0,6.0,6.0,523.8352000014856,4.0,1.0,phase_2,go,550.0,450.0,1.0,,,,,,,,,gray,I
0.0,1.0,1.0,0.0,6.0,6.0,457.8275059993757,4.0,1.0,phase_2,go,550.0,450.0,1.0,,,,,,,,,orange,square
0.0,5.0,1.0,1.0,6.0,0.0,0.0,4.0,1.0,phase_2,stop,550.0,450.0,4.0,,,,,,,,,yellow,flipped triangle
0.0,6.0,2.0,1.0,6.0,0.0,0.0,4.0,1.0,phase_2,stop,550.0,500.0,4.0,,,,,,,,,green,circle
0.0,7.0,3.0,1.0,5.0,0.0,0.0,4.0,1.0,phase_2,stop,550.0,550.0,4.0,,,,,,,,,white,hexagon
0.0,4.0,4.0,0.0,5.0,5.0,543.1243950006319,4.0,1.0,phase_2,go,600.0,550.0,1.0,,,,,,,,,magenta,cross
0.0,5.0,1.0,1.0,5.0,0.0,0.0,4.0,1.0,phase_2,stop,600.0,550.0,4.0,,,,,,,,,yellow,flipped triangle
0.0,8.0,4.0,1.0,5.0,0.0,0.0,4.0,1.0,phase_2,stop,650.0,550.0,4.0,,,,,,,,,blue,diamond
0.0,1.0,1.0,0.0,6.0,6.0,400.3766850000829,4.0,1.0,phase_2,go,700.0,550.0,1.0,,,,,,,,,orange,square
0.0,7.0,3.0,1.0,5.0,0.0,0.0,4.0,1.0,phase_2,stop,700.0,550.0,4.0,,,,,,,,,white,hexagon
0.0,1.0,1.0,0.0,6.0,6.0,524.0359969993733,4.0,1.0,phase_2,go,750.0,550.0,1.0,,,,,,,,,orange,square
0.0,7.0,3.0,1.0,5.0,0.0,0.0,4.0,1.0,phase_2,stop,750.0,550.0,4.0,,,,,,,,,white,hexagon
0.0,7.0,3.0,1.0,5.0,0.0,0.0,4.0,1.0,phase_2,stop,800.0,550.0,4.0,,,,,,,,,white,hexagon
0.0,4.0,4.0,0.0,5.0,5.0,828.7151869990339,5.0,1.0,phase_2,go,850.0,550.0,1.0,,,,,,,,,magenta,cross
0.0,6.0,2.0,1.0,6.0,6.0,798.3256849984173,5.0,1.0,phase_2,go,850.0,550.0,1.0,,,,,,,,,green,circle
0.0,2.0,2.0,0.0,6.0,6.0,533.214790000784,5.0,1.0,phase_2,go,850.0,550.0,1.0,,,,,,,,,cyan,triangle
0.0,1.0,1.0,0.0,6.0,6.0,827.1648360005202,5.0,1.0,phase_2,go,850.0,550.0,1.0,,,,,,,,,orange,square
0.0,5.0,1.0,1.0,5.0,5.0,910.5845819995012,5.0,1.0,phase_2,stop,850.0,550.0,3.0,,,,,,,,,yellow,flipped triangle
0.0,1.0,1.0,0.0,6.0,6.0,428.3836469985544,5.0,1.0,phase_2,go,800.0,550.0,1.0,,,,,,,,,orange,square
0.0,7.0,3.0,1.0,6.0,6.0,666.5960559985251,5.0,1.0,phase_2,go,800.0,550.0,1.0,,,,,,,,,white,hexagon
0.0,6.0,2.0,1.0,6.0,6.0,671.7129529988597,5.0,1.0,phase_2,stop,800.0,550.0,3.0,,,,,,,,,green,circle
0.0,8.0,4.0,1.0,6.0,0.0,0.0,5.0,1.0,phase_2,stop,800.0,500.0,4.0,,,,,,,,,blue,diamond
0.0,4.0,4.0,0.0,5.0,5.0,563.1304790003924,5.0,1.0,phase_2,go,800.0,550.0,1.0,,,,,,,,,magenta,cross
0.0,4.0,4.0,0.0,5.0,5.0,678.2582169998932,5.0,1.0,phase_2,go,800.0,550.0,1.0,,,,,,,,,magenta,cross
0.0,5.0,1.0,1.0,5.0,5.0,866.3885820005817,5.0,1.0,phase_2,go,800.0,550.0,1.0,,,,,,,,,yellow,flipped triangle
0.0,1.0,1.0,0.0,6.0,6.0,494.4703380006103,5.0,1.0,phase_2,go,800.0,550.0,1.0,,,,,,,,,orange,square
0.0,6.0,2.0,1.0,5.0,5.0,741.6796340003202,5.0,1.0,phase_2,stop,800.0,550.0,3.0,,,,,,,,,green,circle
0.0,5.0,1.0,1.0,5.0,5.0,666.9930349999049,5.0,1.0,phase_2,stop,750.0,550.0,3.0,,,,,,,,,yellow,flipped triangle
0.0,2.0,2.0,0.0,6.0,6.0,571.1569169998256,5.0,1.0,phase_2,go,700.0,550.0,1.0,,,,,,,,,cyan,triangle
0.0,1.0,1.0,0.0,5.0,5.0,439.1976489987428,5.0,1.0,phase_2,go,700.0,550.0,1.0,,,,,,,,,orange,square
0.0,2.0,2.0,0.0,5.0,5.0,467.3899240005994,5.0,1.0,phase_2,go,700.0,550.0,1.0,,,,,,,,,cyan,triangle
0.0,2.0,2.0,0.0,6.0,6.0,418.8352040000609,5.0,1.0,phase_2,go,700.0,550.0,1.0,,,,,,,,,cyan,triangle
0.0,8.0,4.0,1.0,5.0,5.0,533.4903130005841,5.0,1.0,phase_2,stop,700.0,550.0,3.0,,,,,,,,,blue,diamond
0.0,7.0,3.0,1.0,5.0,5.0,468.4198390004894,5.0,1.0,phase_2,stop,650.0,550.0,3.0,,,,,,,,,white,hexagon
0.0,3.0,3.0,0.0,5.0,5.0,628.378049001185,5.0,1.0,phase_2,go,600.0,550.0,1.0,,,,,,,,,gray,I
0.0,1.0,1.0,0.0,5.0,5.0,754.2853349987126,5.0,1.0,phase_2,go,600.0,550.0,1.0,,,,,,,,,orange,square
0.0,1.0,1.0,0.0,5.0,5.0,600.2994699992996,5.0,1.0,phase_2,go,600.0,550.0,1.0,,,,,,,,,orange,square
0.0,1.0,1.0,0.0,5.0,5.0,467.3238520008453,5.0,1.0,phase_2,go,600.0,550.0,1.0,,,,,,,,,orange,square
0.0,6.0,2.0,1.0,5.0,0.0,0.0,5.0,1.0,phase_2,stop,600.0,550.0,4.0,,,,,,,,,green,circle
0.0,5.0,1.0,1.0,5.0,0.0,0.0,5.0,1.0,phase_2,stop,650.0,550.0,4.0,,,,,,,,,yellow,flipped triangle
0.0,1.0,1.0,0.0,5.0,5.0,535.4154010001366,5.0,1.0,phase_2,go,700.0,550.0,1.0,,,,,,,,,orange,square
0.0,2.0,2.0,0.0,6.0,6.0,525.4347669997514,5.0,1.0,phase_2,go,700.0,550.0,1.0,,,,,,,,,cyan,triangle
0.0,2.0,2.0,0.0,6.0,6.0,515.0912419994711,5.0,1.0,phase_2,go,700.0,550.0,1.0,,,,,,,,,cyan,triangle
0.0,2.0,2.0,0.0,5.0,5.0,457.8669769998669,5.0,1.0,phase_2,go,700.0,550.0,1.0,,,,,,,,,cyan,triangle
0.0,7.0,3.0,1.0,6.0,0.0,0.0,5.0,1.0,phase_2,stop,700.0,550.0,4.0,,,,,,,,,white,hexagon
0.0,3.0,3.0,0.0,5.0,5.0,411.9732950002799,5.0,1.0,phase_2,go,700.0,600.0,1.0,,,,,,,,,gray,I
0.0,7.0,3.0,1.0,6.0,0.0,0.0,5.0,1.0,phase_2,stop,700.0,600.0,4.0,,,,,,,,,white,hexagon
0.0,7.0,3.0,1.0,6.0,0.0,0.0,5.0,1.0,phase_2,stop,700.0,650.0,4.0,,,,,,,,,white,hexagon
0.0,2.0,2.0,0.0,5.0,5.0,465.8346329997584,5.0,1.0,phase_2,go,700.0,700.0,1.0,,,,,,,,,cyan,triangle
0.0,2.0,2.0,0.0,5.0,5.0,875.9340420001536,6.0,1.0,phase_2,go,700.0,700.0,1.0,,,,,,,,,cyan,triangle
0.0,2.0,2.0,0.0,5.0,5.0,447.6105079993431,6.0,1.0,phase_2,go,700.0,700.0,1.0,,,,,,,,,cyan,triangle
0.0,6.0,2.0,1.0,6.0,6.0,968.5504070002936,6.0,1.0,phase_2,go,700.0,700.0,1.0,,,,,,,,,green,circle
0.0,8.0,4.0,1.0,6.0,0.0,0.0,6.0,1.0,phase_2,stop,700.0,700.0,4.0,,,,,,,,,blue,diamond
0.0,2.0,2.0,0.0,6.0,6.0,487.1957459999976,6.0,1.0,phase_2,go,700.0,750.0,1.0,,,,,,,,,cyan,triangle
0.0,2.0,2.0,0.0,5.0,5.0,352.8478150001319,6.0,1.0,phase_2,go,700.0,750.0,1.0,,,,,,,,,cyan,triangle
0.0,1.0,1.0,0.0,6.0,6.0,428.6582969998562,6.0,1.0,phase_2,go,700.0,750.0,1.0,,,,,,,,,orange,square
0.0,6.0,2.0,1.0,5.0,5.0,840.8813529986219,6.0,1.0,phase_2,stop,700.0,750.0,3.0,,,,,,,,,green,circle
0.0,8.0,4.0,1.0,5.0,0.0,0.0,6.0,1.0,phase_2,stop,650.0,750.0,4.0,,,,,,,,,blue,diamond
0.0,4.0,4.0,0.0,6.0,6.0,466.9175569997605,6.0,1.0,phase_2,go,700.0,750.0,1.0,,,,,,,,,magenta,cross
0.0,1.0,1.0,0.0,6.0,6.0,495.9254650002549,6.0,1.0,phase_2,go,700.0,750.0,1.0,,,,,,,,,orange,square
0.0,3.0,3.0,0.0,6.0,6.0,504.7979450009734,6.0,1.0,phase_2,go,700.0,750.0,1.0,,,,,,,,,gray,I
0.0,4.0,4.0,0.0,5.0,5.0,456.3950449992262,6.0,1.0,phase_2,go,700.0,750.0,1.0,,,,,,,,,magenta,cross
0.0,8.0,4.0,1.0,6.0,6.0,785.327679999682,6.0,1.0,phase_2,stop,700.0,750.0,3.0,,,,,,,,,blue,diamond
0.0,3.0,3.0,0.0,5.0,5.0,505.2859420011373,6.0,1.0,phase_2,go,700.0,700.0,1.0,,,,,,,,,gray,I
0.0,8.0,4.0,1.0,6.0,0.0,0.0,6.0,1.0,phase_2,stop,700.0,700.0,4.0,,,,,,,,,blue,diamond
0.0,8.0,4.0,1.0,6.0,0.0,0.0,6.0,1.0,phase_2,stop,700.0,750.0,4.0,,,,,,,,,blue,diamond
0.0,8.0,4.0,1.0,6.0,0.0,0.0,6.0,1.0,phase_2,stop,700.0,800.0,4.0,,,,,,,,,blue,diamond
0.0,4.0,4.0,0.0,5.0,5.0,456.7208450007456,6.0,1.0,phase_2,go,700.0,850.0,1.0,,,,,,,,,magenta,cross
0.0,4.0,4.0,0.0,6.0,6.0,533.5567239999364,6.0,1.0,phase_2,go,700.0,850.0,1.0,,,,,,,,,magenta,cross
0.0,1.0,1.0,0.0,6.0,6.0,410.4709029998048,6.0,1.0,phase_2,go,700.0,850.0,1.0,,,,,,,,,orange,square
0.0,5.0,1.0,1.0,6.0,6.0,1133.2733010003722,6.0,1.0,phase_2,go,700.0,850.0,1.0,,,,,,,,,yellow,flipped triangle
0.0,8.0,4.0,1.0,5.0,0.0,0.0,6.0,1.0,phase_2,stop,700.0,850.0,4.0,,,,,,,,,blue,diamond
0.0,8.0,4.0,1.0,5.0,0.0,0.0,6.0,1.0,phase_2,stop,750.0,850.0,4.0,,,,,,,,,blue,diamond
0.0,2.0,2.0,0.0,6.0,6.0,486.1084379990643,6.0,1.0,phase_2,go,800.0,850.0,1.0,,,,,,,,,cyan,triangle
0.0,5.0,1.0,1.0,5.0,5.0,751.3102659995639,6.0,1.0,phase_2,stop,800.0,850.0,3.0,,,,,,,,,yellow,flipped triangle
0.0,3.0,3.0,0.0,5.0,5.0,428.4785310010193,6.0,1.0,phase_2,go,750.0,850.0,1.0,,,,,,,,,gray,I
0.0,1.0,1.0,0.0,6.0,6.0,436.946789999638,6.0,1.0,phase_2,go,750.0,850.0,1.0,,,,,,,,,orange,square
0.0,4.0,4.0,0.0,5.0,5.0,466.7966800006979,6.0,1.0,phase_2,go,750.0,850.0,1.0,,,,,,,,,magenta,cross
0.0,1.0,1.0,0.0,5.0,5.0,467.0847849993151,6.0,1.0,phase_2,go,750.0,850.0,1.0,,,,,,,,,orange,square
0.0,7.0,3.0,1.0,6.0,6.0,1022.6134189997538,6.0,1.0,phase_2,stop,750.0,850.0,3.0,,,,,,,,,white,hexagon
0.0,8.0,4.0,1.0,5.0,5.0,1160.8347080000383,6.0,1.0,phase_2,go,750.0,800.0,1.0,,,,,,,,,blue,diamond
0.0,6.0,2.0,1.0,6.0,6.0,996.0263760003728,6.0,1.0,phase_2,stop,750.0,800.0,3.0,,,,,,,,,green,circle
0.0,1.0,1.0,0.0,5.0,5.0,408.788820999689,6.0,1.0,phase_2,go,750.0,750.0,1.0,,,,,,,,,orange,square
0.0,6.0,2.0,1.0,5.0,0.0,0.0,6.0,1.0,phase_2,stop,750.0,750.0,4.0,,,,,,,,,green,circle
0.0,2.0,2.0,0.0,5.0,5.0,600.0676870007737,6.0,1.0,phase_2,go,800.0,750.0,1.0,,,,,,,,,cyan,triangle
0.0,4.0,4.0,0.0,6.0,6.0,684.7205690010014,7.0,1.0,phase_2,go,800.0,750.0,1.0,,,,,,,,,magenta,cross
0.0,7.0,3.0,1.0,6.0,6.0,821.998663001068,7.0,1.0,phase_2,stop,800.0,750.0,3.0,,,,,,,,,white,hexagon
0.0,5.0,1.0,1.0,6.0,6.0,570.0810359994648,7.0,1.0,phase_2,stop,800.0,700.0,3.0,,,,,,,,,yellow,flipped triangle
0.0,6.0,2.0,1.0,6.0,0.0,0.0,7.0,1.0,phase_2,stop,800.0,650.0,4.0,,,,,,,,,green,circle
0.0,4.0,4.0,0.0,5.0,5.0,351.6256290004094,7.0,1.0,phase_2,go,800.0,700.0,1.0,,,,,,,,,magenta,cross
0.0,6.0,2.0,1.0,6.0,0.0,0.0,7.0,1.0,phase_2,stop,800.0,700.0,4.0,,,,,,,,,green,circle
0.0,8.0,4.0,1.0,6.0,0.0,0.0,7.0,1.0,phase_2,stop,800.0,750.0,4.0,,,,,,,,,blue,diamond
0.0,2.0,2.0,0.0,6.0,6.0,578.8655249998556,7.0,1.0,phase_2,go,800.0,800.0,1.0,,,,,,,,,cyan,triangle
0.0,1.0,1.0,0.0,6.0,6.0,513.9667029998236,7.0,1.0,phase_2,go,800.0,800.0,1.0,,,,,,,,,orange,square
0.0,4.0,4.0,0.0,6.0,6.0,428.1859769998846,7.0,1.0,phase_2,go,800.0,800.0,1.0,,,,,,,,,magenta,cross
0.0,3.0,3.0,0.0,6.0,6.0,419.035143999281,7.0,1.0,phase_2,go,800.0,800.0,1.0,,,,,,,,,gray,I
0.0,8.0,4.0,1.0,5.0,0.0,0.0,7.0,1.0,phase_2,stop,800.0,800.0,4.0,,,,,,,,,blue,diamond
0.0,2.0,2.0,0.0,5.0,5.0,455.6452100005117,7.0,1.0,phase_2,go,850.0,800.0,1.0,,,,,,,,,cyan,triangle
0.0,8.0,4.0,1.0,6.0,0.0,0.0,7.0,1.0,phase_2,stop,850.0,800.0,4.0,,,,,,,,,blue,diamond
0.0,3.0,3.0,0.0,5.0,5.0,513.5681230003684,7.0,1.0,phase_2,go,850.0,850.0,1.0,,,,,,,,,gray,I
0.0,6.0,2.0,1.0,5.0,0.0,0.0,7.0,1.0,phase_2,stop,850.0,850.0,4.0,,,,,,,,,green,circle
0.0,5.0,1.0,1.0,6.0,0.0,0.0,7.0,1.0,phase_2,stop,900.0,850.0,4.0,,,,,,,,,yellow,flipped triangle
0.0,7.0,3.0,1.0,5.0,0.0,0.0,7.0,1.0,phase_2,stop,900.0,900.0,4.0,,,,,,,,,white,hexagon
0.0,2.0,2.0,0.0,6.0,6.0,615.9840850014007,7.0,1.0,phase_2,go,950.0,900.0,1.0,,,,,,,,,cyan,triangle
0.0,5.0,1.0,1.0,6.0,6.0,1341.5064479995635,7.0,1.0,phase_2,go,950.0,900.0,1.0,,,,,,,,,yellow,flipped triangle
0.0,7.0,3.0,1.0,6.0,6.0,1042.8473080010008,7.0,1.0,phase_2,stop,950.0,900.0,3.0,,,,,,,,,white,hexagon
0.0,4.0,4.0,0.0,6.0,6.0,408.1327809999493,7.0,1.0,phase_2,go,950.0,850.0,1.0,,,,,,,,,magenta,cross
0.0,4.0,4.0,0.0,5.0,5.0,370.2919030001794,7.0,1.0,phase_2,go,950.0,850.0,1.0,,,,,,,,,magenta,cross
0.0,6.0,2.0,1.0,6.0,0.0,0.0,7.0,1.0,phase_2,stop,950.0,850.0,4.0,,,,,,,,,green,circle
0.0,3.0,3.0,0.0,5.0,5.0,455.843358000493,7.0,1.0,phase_2,go,950.0,900.0,1.0,,,,,,,,,gray,I
0.0,1.0,1.0,0.0,6.0,6.0,466.1088490011025,7.0,1.0,phase_2,go,950.0,900.0,1.0,,,,,,,,,orange,square
0.0,4.0,4.0,0.0,5.0,5.0,464.9009949989704,7.0,1.0,phase_2,go,950.0,900.0,1.0,,,,,,,,,magenta,cross
0.0,3.0,3.0,0.0,6.0,6.0,465.6660780001402,7.0,1.0,phase_2,go,950.0,900.0,1.0,,,,,,,,,gray,I
0.0,2.0,2.0,0.0,6.0,6.0,455.7338840004377,7.0,1.0,phase_2,go,950.0,900.0,1.0,,,,,,,,,cyan,triangle
0.0,7.0,3.0,1.0,5.0,5.0,1083.95371700135,7.0,1.0,phase_2,stop,950.0,900.0,3.0,,,,,,,,,white,hexagon
0.0,8.0,4.0,1.0,6.0,6.0,389.63051599967,7.0,1.0,phase_2,stop,900.0,900.0,3.0,,,,,,,,,blue,diamond
0.0,4.0,4.0,0.0,5.0,5.0,427.5682700008474,7.0,1.0,phase_2,go,900.0,850.0,1.0,,,,,,,,,magenta,cross
0.0,4.0,4.0,0.0,5.0,5.0,391.6091580013017,7.0,1.0,phase_2,go,900.0,850.0,1.0,,,,,,,,,magenta,cross
0.0,6.0,2.0,1.0,5.0,0.0,0.0,7.0,1.0,phase_2,stop,900.0,850.0,4.0,,,,,,,,,green,circle
0.0,6.0,2.0,1.0,6.0,0.0,0.0,7.0,1.0,phase_2,stop,950.0,850.0,4.0,,,,,,,,,green,circle
0.0,4.0,4.0,0.0,6.0,6.0,619.2177299999457,7.0,1.0,phase_2,go,950.0,900.0,1.0,,,,,,,,,magenta,cross
0.0,3.0,3.0,0.0,5.0,5.0,893.0568779996975,8.0,1.0,phase_2,go,950.0,900.0,1.0,,,,,,,,,gray,I
0.0,3.0,3.0,0.0,6.0,6.0,428.7170410007093,8.0,1.0,phase_2,go,950.0,900.0,1.0,,,,,,,,,gray,I
0.0,6.0,2.0,1.0,5.0,0.0,0.0,8.0,1.0,phase_2,stop,950.0,900.0,4.0,,,,,,,,,green,circle
0.0,7.0,3.0,1.0,6.0,0.0,0.0,8.0,1.0,phase_2,stop,1000.0,900.0,4.0,,,,,,,,,white,hexagon
0.0,8.0,4.0,1.0,5.0,0.0,0.0,8.0,1.0,phase_2,stop,1000.0,950.0,4.0,,,,,,,,,blue,diamond
0.0,1.0,1.0,0.0,6.0,6.0,540.5078069998126,8.0,1.0,phase_2,go,1050.0,950.0,1.0,,,,,,,,,orange,square
0.0,5.0,1.0,1.0,5.0,0.0,0.0,8.0,1.0,phase_2,stop,1050.0,950.0,4.0,,,,,,,,,yellow,flipped triangle
0.0,3.0,3.0,0.0,6.0,6.0,429.147971999555,8.0,1.0,phase_2,go,1100.0,950.0,1.0,,,,,,,,,gray,I
0.0,6.0,2.0,1.0,6.0,0.0,0.0,8.0,1.0,phase_2,stop,1100.0,950.0,4.0,,,,,,,,,green,circle
0.0,2.0,2.0,0.0,5.0,5.0,551.8486359997041,8.0,1.0,phase_2,go,1100.0,1000.0,1.0,,,,,,,,,cyan,triangle
0.0,6.0,2.0,1.0,6.0,0.0,0.0,8.0,1.0,phase_2,stop,1100.0,1000.0,4.0,,,,,,,,,green,circle
0.0,7.0,3.0,1.0,5.0,0.0,0.0,8.0,1.0,phase_2,stop,1100.0,1050.0,4.0,,,,,,,,,white,hexagon
0.0,7.0,3.0,1.0,5.0,0.0,0.0,8.0,1.0,phase_2,stop,1150.0,1050.0,4.0,,,,,,,,,white,hexagon
0.0,2.0,2.0,0.0,6.0,6.0,475.1932380004291,8.0,1.0,phase_2,go,1200.0,1050.0,1.0,,,,,,,,,cyan,triangle
0.0,6.0,2.0,1.0,6.0,0.0,0.0,8.0,1.0,phase_2,stop,1200.0,1050.0,4.0,,,,,,,,,green,circle
0.0,6.0,2.0,1.0,5.0,0.0,0.0,8.0,1.0,phase_2,stop,1200.0,1100.0,4.0,,,,,,,,,green,circle
0.0,6.0,2.0,1.0,6.0,0.0,0.0,8.0,1.0,phase_2,go,1250.0,1100.0,5.0,,,,,,,,,green,circle
0.0,3.0,3.0,0.0,5.0,5.0,452.3196879999887,8.0,1.0,phase_2,go,1250.0,1100.0,1.0,,,,,,,,,gray,I
0.0,5.0,1.0,1.0,6.0,6.0,1093.3930870014592,8.0,1.0,phase_2,stop,1250.0,1100.0,3.0,,,,,,,,,yellow,flipped triangle
0.0,7.0,3.0,1.0,5.0,5.0,762.0374570014974,8.0,1.0,phase_2,stop,1250.0,1050.0,3.0,,,,,,,,,white,hexagon
0.0,3.0,3.0,0.0,6.0,6.0,494.1282190011407,8.0,1.0,phase_2,go,1200.0,1050.0,1.0,,,,,,,,,gray,I
0.0,4.0,4.0,0.0,6.0,6.0,456.3999599995441,8.0,1.0,phase_2,go,1200.0,1050.0,1.0,,,,,,,,,magenta,cross
0.0,6.0,2.0,1.0,5.0,5.0,1139.539085999786,8.0,1.0,phase_2,go,1200.0,1050.0,1.0,,,,,,,,,green,circle
0.0,3.0,3.0,0.0,6.0,6.0,437.3303470001701,8.0,1.0,phase_2,go,1200.0,1050.0,1.0,,,,,,,,,gray,I
0.0,1.0,1.0,0.0,5.0,5.0,389.2868759994599,8.0,1.0,phase_2,go,1200.0,1050.0,1.0,,,,,,,,,orange,square
0.0,5.0,1.0,1.0,6.0,6.0,417.7472890005447,8.0,1.0,phase_2,stop,1200.0,1050.0,3.0,,,,,,,,,yellow,flipped triangle
0.0,8.0,4.0,1.0,5.0,5.0,1113.9840309988358,8.0,1.0,phase_2,stop,1200.0,1000.0,3.0,,,,,,,,,blue,diamond
0.0,6.0,2.0,1.0,5.0,5.0,665.8523919995787,8.0,1.0,phase_2,go,1150.0,1000.0,1.0,,,,,,,,,green,circle
0.0,7.0,3.0,1.0,6.0,6.0,1038.389022000047,8.0,1.0,phase_2,stop,1150.0,1000.0,3.0,,,,,,,,,white,hexagon
0.0,6.0,2.0,1.0,5.0,5.0,1121.341496000241,8.0,1.0,phase_2,stop,1150.0,950.0,3.0,,,,,,,,,green,circle
0.0,6.0,2.0,1.0,5.0,5.0,1338.285638001253,8.0,1.0,phase_2,go,1100.0,950.0,1.0,,,,,,,,,green,circle
0.0,8.0,4.0,1.0,6.0,6.0,474.8672959995019,8.0,1.0,phase_2,stop,1100.0,950.0,3.0,,,,,,,,,blue,diamond
0.0,4.0,4.0,0.0,6.0,6.0,430.0198780001665,8.0,1.0,phase_2,go,1100.0,900.0,1.0,,,,,,,,,magenta,cross
0.0,2.0,2.0,0.0,5.0,5.0,530.2919770001608,8.0,1.0,phase_2,go,1100.0,900.0,1.0,,,,,,,,,cyan,triangle
0.0,1.0,1.0,0.0,6.0,6.0,371.5941009995731,8.0,1.0,phase_2,go,1100.0,900.0,1.0,,,,,,,,,orange,square
0.0,4.0,4.0,0.0,5.0,5.0,399.6128629987652,8.0,1.0,phase_2,go,1100.0,900.0,1.0,,,,,,,,,magenta,cross
0.0,6.0,2.0,1.0,7.0,4.0,2722.738144999312,1.0,1.0,phase_3,,,,,135.0,1.0,675.0,405.0,540.0,135.0,270.0,810.0,green,circle
0.0,8.0,4.0,1.0,7.0,2.0,1628.5116789986205,1.0,1.0,phase_3,,,,,348.0,3.0,580.0,348.0,464.0,116.0,696.0,232.0,blue,diamond
0.0,4.0,4.0,0.0,7.0,2.0,1773.8229039987343,1.0,1.0,phase_3,,,,,1152.0,6.0,768.0,1152.0,960.0,192.0,576.0,384.0,magenta,cross
0.0,3.0,3.0,0.0,7.0,4.0,1445.694147998438,1.0,1.0,phase_3,,,,,924.0,6.0,616.0,154.0,308.0,924.0,462.0,770.0,gray,I
0.0,2.0,2.0,0.0,7.0,2.0,1572.3718850003934,1.0,1.0,phase_3,,,,,519.0,3.0,173.0,519.0,692.0,346.0,1038.0,865.0,cyan,triangle
0.0,2.0,2.0,0.0,7.0,6.0,2731.2134730000253,1.0,1.0,phase_3,,,,,770.0,5.0,154.0,462.0,308.0,616.0,924.0,770.0,cyan,triangle
0.0,6.0,2.0,1.0,7.0,4.0,1587.318623000101,1.0,1.0,phase_3,,,,,576.0,3.0,1152.0,192.0,384.0,576.0,768.0,960.0,green,circle
0.0,1.0,1.0,0.0,7.0,1.0,1350.075321999611,1.0,1.0,phase_3,,,,,1152.0,6.0,1152.0,768.0,576.0,960.0,192.0,384.0,orange,square
0.0,5.0,1.0,1.0,7.0,3.0,1570.3160739994928,1.0,1.0,phase_3,,,,,768.0,4.0,960.0,384.0,768.0,1152.0,192.0,576.0,yellow,flipped triangle
0.0,7.0,3.0,1.0,7.0,6.0,1293.06731899851,1.0,1.0,phase_3,,,,,1038.0,6.0,692.0,346.0,865.0,173.0,519.0,1038.0,white,hexagon
0.0,3.0,3.0,0.0,7.0,6.0,2384.142148999672,1.0,1.0,phase_3,,,,,865.0,5.0,519.0,1038.0,346.0,173.0,692.0,865.0,gray,I
0.0,4.0,4.0,0.0,7.0,5.0,1504.0780399995128,1.0,1.0,phase_3,,,,,924.0,6.0,308.0,770.0,616.0,154.0,924.0,462.0,magenta,cross
0.0,6.0,2.0,1.0,7.0,4.0,1664.475155001128,1.0,1.0,phase_3,,,,,692.0,4.0,519.0,1038.0,865.0,692.0,346.0,173.0,green,circle
0.0,4.0,4.0,0.0,7.0,2.0,706.6025149997586,1.0,1.0,phase_3,,,,,1038.0,6.0,519.0,1038.0,692.0,346.0,173.0,865.0,magenta,cross
0.0,2.0,2.0,0.0,7.0,6.0,1335.411469999599,1.0,1.0,phase_3,,,,,519.0,3.0,865.0,346.0,1038.0,692.0,173.0,519.0,cyan,triangle
0.0,2.0,2.0,0.0,7.0,2.0,986.8022560003736,1.0,1.0,phase_3,,,,,696.0,6.0,348.0,696.0,580.0,464.0,116.0,232.0,cyan,triangle
0.0,4.0,4.0,0.0,7.0,3.0,1369.88017800104,1.0,1.0,phase_3,,,,,770.0,5.0,924.0,616.0,770.0,462.0,154.0,308.0,magenta,cross
0.0,7.0,3.0,1.0,7.0,3.0,1298.5395639989292,1.0,1.0,phase_3,,,,,692.0,4.0,519.0,865.0,692.0,1038.0,173.0,346.0,white,hexagon
0.0,5.0,1.0,1.0,7.0,2.0,1319.9919439994121,1.0,1.0,phase_3,,,,,116.0,1.0,232.0,116.0,464.0,580.0,348.0,696.0,yellow,flipped triangle
0.0,5.0,1.0,1.0,7.0,4.0,1855.9418139993795,1.0,1.0,phase_3,,,,,519.0,3.0,1038.0,173.0,692.0,519.0,346.0,865.0,yellow,flipped triangle
0.0,1.0,1.0,0.0,7.0,5.0,786.256246999983,2.0,1.0,phase_3,,,,,540.0,4.0,810.0,405.0,675.0,135.0,540.0,270.0,orange,square
0.0,4.0,4.0,0.0,7.0,4.0,1758.7382780002372,2.0,1.0,phase_3,,,,,384.0,2.0,768.0,192.0,960.0,384.0,576.0,1152.0,magenta,cross
0.0,1.0,1.0,0.0,7.0,4.0,1157.0466230004968,2.0,1.0,phase_3,,,,,692.0,4.0,865.0,173.0,519.0,692.0,1038.0,346.0,orange,square
0.0,6.0,2.0,1.0,7.0,5.0,1608.509616999072,2.0,1.0,phase_3,,,,,346.0,2.0,1038.0,519.0,692.0,865.0,346.0,173.0,green,circle
0.0,3.0,3.0,0.0,7.0,3.0,1211.977097000272,2.0,1.0,phase_3,,,,,1038.0,6.0,173.0,692.0,1038.0,346.0,865.0,519.0,gray,I
0.0,8.0,4.0,1.0,7.0,5.0,812.850033000359,2.0,1.0,phase_3,,,,,232.0,2.0,580.0,696.0,116.0,464.0,232.0,348.0,blue,diamond
0.0,2.0,2.0,0.0,7.0,4.0,1358.5460120011703,2.0,1.0,phase_3,,,,,675.0,5.0,405.0,540.0,135.0,675.0,810.0,270.0,cyan,triangle
0.0,4.0,4.0,0.0,7.0,3.0,1304.693047999535,2.0,1.0,phase_3,,,,,810.0,6.0,675.0,540.0,810.0,270.0,405.0,135.0,magenta,cross
0.0,1.0,1.0,0.0,7.0,2.0,1466.8313590009348,2.0,1.0,phase_3,,,,,692.0,4.0,346.0,692.0,1038.0,519.0,865.0,173.0,orange,square
0.0,8.0,4.0,1.0,7.0,5.0,1157.8652940006575,2.0,1.0,phase_3,,,,,692.0,4.0,1038.0,519.0,346.0,173.0,692.0,865.0,blue,diamond
0.0,3.0,3.0,0.0,7.0,4.0,1353.6179109996738,2.0,1.0,phase_3,,,,,675.0,5.0,405.0,810.0,540.0,675.0,135.0,270.0,gray,I
0.0,5.0,1.0,1.0,7.0,6.0,1512.6867250000942,2.0,1.0,phase_3,,,,,865.0,5.0,346.0,692.0,173.0,1038.0,519.0,865.0,yellow,flipped triangle
0.0,8.0,4.0,1.0,7.0,2.0,947.4397399990266,2.0,1.0,phase_3,,,,,308.0,2.0,154.0,308.0,462.0,924.0,616.0,770.0,blue,diamond
0.0,3.0,3.0,0.0,7.0,6.0,1078.8380020003387,2.0,1.0,phase_3,,,,,696.0,6.0,580.0,232.0,464.0,348.0,116.0,696.0,gray,I
0.0,8.0,4.0,1.0,7.0,2.0,1192.1653400004288,2.0,1.0,phase_3,,,,,768.0,4.0,576.0,768.0,384.0,960.0,1152.0,192.0,blue,diamond
0.0,3.0,3.0,0.0,7.0,2.0,1145.2534529998957,2.0,1.0,phase_3,,,,,675.0,5.0,270.0,675.0,135.0,405.0,540.0,810.0,gray,I
0.0,6.0,2.0,1.0,7.0,4.0,910.522326001228,2.0,1.0,phase_3,,,,,116.0,1.0,232.0,464.0,348.0,116.0,696.0,580.0,green,circle
0.0,4.0,4.0,0.0,7.0,4.0,785.7774770000105,2.0,1.0,phase_3,,,,,580.0,5.0,464.0,348.0,232.0,580.0,696.0,116.0,magenta,cross
0.0,1.0,1.0,0.0,7.0,2.0,1249.9642509992557,2.0,1.0,phase_3,,,,,696.0,6.0,116.0,696.0,464.0,580.0,232.0,348.0,orange,square
0.0,3.0,3.0,0.0,7.0,1.0,918.771992000984,2.0,1.0,phase_3,,,,,348.0,3.0,348.0,464.0,116.0,696.0,580.0,232.0,gray,I
0.0,7.0,3.0,1.0,7.0,4.0,883.0566199994792,3.0,1.0,phase_3,,,,,924.0,6.0,616.0,154.0,308.0,924.0,462.0,770.0,white,hexagon
0.0,2.0,2.0,0.0,7.0,6.0,852.9717210003582,3.0,1.0,phase_3,,,,,348.0,3.0,116.0,232.0,580.0,696.0,464.0,348.0,cyan,triangle
0.0,6.0,2.0,1.0,7.0,2.0,727.6825139997527,3.0,1.0,phase_3,,,,,154.0,1.0,924.0,154.0,616.0,462.0,308.0,770.0,green,circle
0.0,4.0,4.0,0.0,7.0,4.0,1541.6414309984248,3.0,1.0,phase_3,,,,,580.0,5.0,116.0,348.0,464.0,580.0,232.0,696.0,magenta,cross
0.0,5.0,1.0,1.0,7.0,3.0,1220.8584280015202,3.0,1.0,phase_3,,,,,616.0,4.0,924.0,770.0,616.0,154.0,308.0,462.0,yellow,flipped triangle
0.0,2.0,2.0,0.0,7.0,5.0,696.3606660010555,3.0,1.0,phase_3,,,,,924.0,6.0,154.0,462.0,616.0,770.0,924.0,308.0,cyan,triangle
0.0,7.0,3.0,1.0,7.0,6.0,833.3784130009008,3.0,1.0,phase_3,,,,,232.0,2.0,116.0,348.0,464.0,580.0,696.0,232.0,white,hexagon
0.0,7.0,3.0,1.0,7.0,4.0,1532.2131760003683,3.0,1.0,phase_3,,,,,135.0,1.0,405.0,810.0,540.0,135.0,675.0,270.0,white,hexagon
0.0,8.0,4.0,1.0,7.0,2.0,616.5681519996724,3.0,1.0,phase_3,,,,,1152.0,6.0,960.0,1152.0,576.0,768.0,384.0,192.0,blue,diamond
0.0,5.0,1.0,1.0,7.0,3.0,843.2901599990146,3.0,1.0,phase_3,,,,,464.0,4.0,116.0,580.0,464.0,696.0,232.0,348.0,yellow,flipped triangle
0.0,3.0,3.0,0.0,7.0,4.0,1198.5181609998108,3.0,1.0,phase_3,,,,,960.0,5.0,1152.0,768.0,384.0,960.0,192.0,576.0,gray,I
0.0,8.0,4.0,1.0,7.0,3.0,1020.131228999162,3.0,1.0,phase_3,,,,,675.0,5.0,810.0,135.0,675.0,405.0,270.0,540.0,blue,diamond
0.0,1.0,1.0,0.0,7.0,6.0,787.2545570007787,3.0,1.0,phase_3,,,,,924.0,6.0,616.0,154.0,308.0,770.0,462.0,924.0,orange,square
0.0,6.0,2.0,1.0,7.0,4.0,1012.6524150000478,3.0,1.0,phase_3,,,,,384.0,2.0,1152.0,192.0,960.0,384.0,768.0,576.0,green,circle
0.0,2.0,2.0,0.0,7.0,5.0,1005.3297249996831,3.0,1.0,phase_3,,,,,768.0,4.0,1152.0,384.0,960.0,192.0,768.0,576.0,cyan,triangle
0.0,7.0,3.0,1.0,7.0,2.0,1195.2308010004344,3.0,1.0,phase_3,,,,,810.0,6.0,405.0,810.0,540.0,675.0,270.0,135.0,white,hexagon
0.0,5.0,1.0,1.0,7.0,4.0,1050.8557519988244,3.0,1.0,phase_3,,,,,135.0,1.0,675.0,405.0,270.0,135.0,540.0,810.0,yellow,flipped triangle
0.0,5.0,1.0,1.0,7.0,2.0,1116.1030189996382,3.0,1.0,phase_3,,,,,384.0,2.0,192.0,384.0,960.0,576.0,1152.0,768.0,yellow,flipped triangle
0.0,1.0,1.0,0.0,7.0,4.0,1715.141730999676,3.0,1.0,phase_3,,,,,960.0,5.0,1152.0,576.0,192.0,960.0,768.0,384.0,orange,square
0.0,8.0,4.0,1.0,7.0,6.0,822.6765309991606,3.0,1.0,phase_3,,,,,675.0,5.0,540.0,810.0,270.0,135.0,405.0,675.0,blue,diamond
0.0,7.0,3.0,1.0,7.0,3.0,1560.8831469999132,4.0,1.0,phase_3,,,,,308.0,2.0,154.0,924.0,308.0,770.0,462.0,616.0,white,hexagon
0.0,4.0,4.0,0.0,7.0,5.0,964.3441399985022,4.0,1.0,phase_3,,,,,810.0,6.0,405.0,270.0,135.0,540.0,810.0,675.0,magenta,cross
0.0,7.0,3.0,1.0,7.0,3.0,1133.424498999375,4.0,1.0,phase_3,,,,,348.0,3.0,232.0,580.0,348.0,116.0,696.0,464.0,white,hexagon
0.0,5.0,1.0,1.0,7.0,4.0,1096.8111539987149,4.0,1.0,phase_3,,,,,462.0,3.0,924.0,308.0,154.0,462.0,770.0,616.0,yellow,flipped triangle
0.0,7.0,3.0,1.0,7.0,2.0,1550.045687999955,4.0,1.0,phase_3,,,,,576.0,3.0,768.0,576.0,1152.0,192.0,384.0,960.0,white,hexagon
0.0,6.0,2.0,1.0,7.0,6.0,929.247154001132,4.0,1.0,phase_3,,,,,116.0,1.0,232.0,580.0,348.0,464.0,696.0,116.0,green,circle
0.0,8.0,4.0,1.0,7.0,4.0,1106.408362998991,4.0,1.0,phase_3,,,,,462.0,3.0,770.0,616.0,924.0,462.0,154.0,308.0,blue,diamond
0.0,6.0,2.0,1.0,7.0,2.0,1435.1921279994713,4.0,1.0,phase_3,,,,,308.0,2.0,154.0,308.0,462.0,924.0,616.0,770.0,green,circle
0.0,1.0,1.0,0.0,7.0,6.0,862.0109700004832,4.0,1.0,phase_3,,,,,810.0,6.0,405.0,675.0,135.0,270.0,540.0,810.0,orange,square
0.0,8.0,4.0,1.0,7.0,4.0,1343.6759289998008,4.0,1.0,phase_3,,,,,519.0,3.0,346.0,692.0,1038.0,519.0,173.0,865.0,blue,diamond
0.0,2.0,2.0,0.0,7.0,2.0,823.7408950008103,4.0,1.0,phase_3,,,,,405.0,3.0,810.0,405.0,540.0,135.0,270.0,675.0,cyan,triangle
0.0,1.0,1.0,0.0,7.0,6.0,1049.525065000125,4.0,1.0,phase_3,,,,,464.0,4.0,580.0,232.0,696.0,116.0,348.0,464.0,orange,square
0.0,3.0,3.0,0.0,7.0,5.0,729.2804919998161,4.0,1.0,phase_3,,,,,1152.0,6.0,576.0,192.0,384.0,960.0,1152.0,768.0,gray,I
0.0,5.0,1.0,1.0,7.0,4.0,965.6739019992528,4.0,1.0,phase_3,,,,,810.0,6.0,135.0,270.0,675.0,810.0,540.0,405.0,yellow,flipped triangle
0.0,2.0,2.0,0.0,7.0,4.0,861.7418760004512,4.0,1.0,phase_3,,,,,960.0,5.0,1152.0,384.0,192.0,960.0,576.0,768.0,cyan,triangle
0.0,1.0,1.0,0.0,7.0,6.0,987.2075000002952,4.0,1.0,phase_3,,,,,924.0,6.0,154.0,462.0,616.0,770.0,308.0,924.0,orange,square
0.0,7.0,3.0,1.0,7.0,3.0,1313.9295950004453,4.0,1.0,phase_3,,,,,960.0,5.0,384.0,576.0,960.0,1152.0,768.0,192.0,white,hexagon
0.0,3.0,3.0,0.0,7.0,6.0,1043.3528700013994,4.0,1.0,phase_3,,,,,770.0,5.0,616.0,462.0,924.0,308.0,154.0,770.0,gray,I
0.0,6.0,2.0,1.0,7.0,2.0,1810.8825629988128,4.0,1.0,phase_3,,,,,405.0,3.0,135.0,405.0,540.0,675.0,810.0,270.0,green,circle
0.0,4.0,4.0,0.0,7.0,2.0,1194.7443639983248,4.0,1.0,phase_3,,,,,346.0,2.0,173.0,346.0,865.0,692.0,1038.0,519.0,magenta,cross
