raw_reward_magnitude,stim_reward,stepwise_reward_magnitude,paired_with_stopping,stim_location,response,reaction_time,block,num_trial_presentations,which_phase,stop_signal_trial_type,left_SSD,right_SSD,accuracy,chosen_bidding_amount,chosen_bidding_level,possible_bid_1,possible_bid_2,possible_bid_3,possible_bid_4,possible_bid_5,possible_bid_6,color_text,shape_text
1287.0,4.0,4.0,0.0,2.0,2.0,370.3325319947907,1.0,1.0,phase_1,,,,,,,,,,,,,yellow,square
0.0,4.0,0.0,0.0,3.0,3.0,400.6141370045952,1.0,1.0,phase_1,,,,,,,,,,,,,yellow,square
150.0,1.0,1.0,0.0,4.0,4.0,291.8086179997772,1.0,1.0,phase_1,,,,,,,,,,,,,gray,cross
310.0,6.0,2.0,1.0,4.0,4.0,320.0714510021498,1.0,1.0,phase_1,,,,,,,,,,,,,white,I
347.0,6.0,2.0,1.0,2.0,2.0,312.4553749948973,1.0,1.0,phase_1,,,,,,,,,,,,,white,I
0.0,6.0,0.0,1.0,1.0,1.0,357.7536850061733,1.0,2.0,phase_1,,,,,,,,,,,,,white,I
346.0,2.0,2.0,0.0,3.0,3.0,360.7912480074446,1.0,1.0,phase_1,,,,,,,,,,,,,green,hexagon
318.0,6.0,2.0,1.0,3.0,3.0,330.6725089933024,1.0,1.0,phase_1,,,,,,,,,,,,,white,I
0.0,3.0,0.0,0.0,1.0,1.0,264.4441689917585,1.0,1.0,phase_1,,,,,,,,,,,,,cyan,flipped triangle
0.0,4.0,0.0,0.0,1.0,1.0,299.1513820015825,1.0,1.0,phase_1,,,,,,,,,,,,,yellow,square
331.0,6.0,2.0,1.0,3.0,3.0,310.0173870043363,1.0,1.0,phase_1,,,,,,,,,,,,,white,I
0.0,1.0,0.0,0.0,4.0,4.0,260.1562110066879,1.0,1.0,phase_1,,,,,,,,,,,,,gray,cross
643.0,3.0,3.0,0.0,2.0,2.0,260.5891830025939,1.0,1.0,phase_1,,,,,,,,,,,,,cyan,flipped triangle
0.0,7.0,0.0,1.0,3.0,3.0,309.6884269907605,1.0,1.0,phase_1,,,,,,,,,,,,,blue,circle
664.0,7.0,3.0,1.0,3.0,3.0,325.6849190074717,1.0,1.0,phase_1,,,,,,,,,,,,,blue,circle
341.0,2.0,2.0,0.0,4.0,4.0,309.58626000210637,1.0,1.0,phase_1,,,,,,,,,,,,,green,hexagon
1321.0,8.0,4.0,1.0,1.0,1.0,289.3037330068182,1.0,1.0,phase_1,,,,,,,,,,,,,magenta,triangle
1307.0,4.0,4.0,0.0,2.0,2.0,299.740666989237,1.0,2.0,phase_1,,,,,,,,,,,,,yellow,square
0.0,6.0,0.0,1.0,1.0,1.0,348.2202849991154,1.0,1.0,phase_1,,,,,,,,,,,,,white,I
630.0,7.0,3.0,1.0,2.0,2.0,278.9406290103216,1.0,1.0,phase_1,,,,,,,,,,,,,blue,circle
172.0,1.0,1.0,0.0,1.0,1.0,369.738323992351,1.0,1.0,phase_1,,,,,,,,,,,,,gray,cross
301.0,2.0,2.0,0.0,3.0,3.0,328.087437999784,1.0,1.0,phase_1,,,,,,,,,,,,,green,hexagon
0.0,1.0,0.0,0.0,4.0,4.0,359.6036980015924,1.0,1.0,phase_1,,,,,,,,,,,,,gray,cross
650.0,7.0,3.0,1.0,4.0,4.0,358.4202030033339,1.0,2.0,phase_1,,,,,,,,,,,,,blue,circle
1289.0,8.0,4.0,1.0,1.0,1.0,409.2971880018012,1.0,2.0,phase_1,,,,,,,,,,,,,magenta,triangle
169.0,1.0,1.0,0.0,1.0,1.0,328.4926329943118,1.0,1.0,phase_1,,,,,,,,,,,,,gray,cross
0.0,8.0,0.0,1.0,3.0,3.0,399.7273889981443,1.0,1.0,phase_1,,,,,,,,,,,,,magenta,triangle
1317.0,8.0,4.0,1.0,4.0,4.0,329.1903889912646,1.0,1.0,phase_1,,,,,,,,,,,,,magenta,triangle
1315.0,4.0,4.0,0.0,3.0,3.0,339.7565909981495,1.0,1.0,phase_1,,,,,,,,,,,,,yellow,square
175.0,5.0,1.0,1.0,3.0,3.0,399.0390990074957,1.0,1.0,phase_1,,,,,,,,,,,,,orange,diamond
640.0,7.0,3.0,1.0,1.0,1.0,338.4620959986932,1.0,1.0,phase_1,,,,,,,,,,,,,blue,circle
665.0,7.0,3.0,1.0,3.0,3.0,377.9450250003719,1.0,1.0,phase_1,,,,,,,,,,,,,blue,circle
0.0,8.0,0.0,1.0,1.0,1.0,309.7287759883329,1.0,1.0,phase_1,,,,,,,,,,,,,magenta,triangle
0.0,2.0,0.0,0.0,1.0,1.0,349.7577629896113,1.0,1.0,phase_1,,,,,,,,,,,,,green,hexagon
658.0,3.0,3.0,0.0,3.0,3.0,350.0858100014739,1.0,1.0,phase_1,,,,,,,,,,,,,cyan,flipped triangle
1315.0,8.0,4.0,1.0,2.0,2.0,539.0730060025817,1.0,1.0,phase_1,,,,,,,,,,,,,magenta,triangle
141.0,5.0,1.0,1.0,2.0,2.0,389.1061000031186,1.0,1.0,phase_1,,,,,,,,,,,,,orange,diamond
0.0,7.0,0.0,1.0,3.0,3.0,388.7777130003087,1.0,1.0,phase_1,,,,,,,,,,,,,blue,circle
1297.0,8.0,4.0,1.0,2.0,2.0,388.6512879980728,1.0,1.0,phase_1,,,,,,,,,,,,,magenta,triangle
0.0,2.0,0.0,0.0,2.0,2.0,368.9643760008039,1.0,1.0,phase_1,,,,,,,,,,,,,green,hexagon
1322.0,4.0,4.0,0.0,2.0,2.0,348.0844660080038,1.0,1.0,phase_1,,,,,,,,,,,,,yellow,square
317.0,2.0,2.0,0.0,2.0,2.0,319.9898060120176,1.0,1.0,phase_1,,,,,,,,,,,,,green,hexagon
159.0,1.0,1.0,0.0,3.0,3.0,400.7847339962609,1.0,1.0,phase_1,,,,,,,,,,,,,gray,cross
159.0,5.0,1.0,1.0,1.0,1.0,369.4175260025076,1.0,1.0,phase_1,,,,,,,,,,,,,orange,diamond
0.0,4.0,0.0,0.0,3.0,3.0,388.3943760010879,1.0,2.0,phase_1,,,,,,,,,,,,,yellow,square
166.0,1.0,1.0,0.0,4.0,4.0,400.188576997607,1.0,1.0,phase_1,,,,,,,,,,,,,gray,cross
643.0,3.0,3.0,0.0,1.0,1.0,349.4951159955235,1.0,1.0,phase_1,,,,,,,,,,,,,cyan,flipped triangle
0.0,1.0,0.0,0.0,1.0,1.0,438.3076730009634,1.0,1.0,phase_1,,,,,,,,,,,,,gray,cross
321.0,2.0,2.0,0.0,4.0,4.0,369.7248699900228,1.0,1.0,phase_1,,,,,,,,,,,,,green,hexagon
666.0,7.0,3.0,1.0,2.0,2.0,380.1446110010147,1.0,1.0,phase_1,,,,,,,,,,,,,blue,circle
178.0,1.0,1.0,0.0,2.0,2.0,379.2820070084417,1.0,1.0,phase_1,,,,,,,,,,,,,gray,cross
167.0,5.0,1.0,1.0,3.0,3.0,381.4247740083374,1.0,1.0,phase_1,,,,,,,,,,,,,orange,diamond
0.0,1.0,0.0,0.0,3.0,3.0,370.0716079911217,1.0,1.0,phase_1,,,,,,,,,,,,,gray,cross
640.0,7.0,3.0,1.0,1.0,1.0,429.0229250036645,1.0,1.0,phase_1,,,,,,,,,,,,,blue,circle
1307.0,8.0,4.0,1.0,3.0,3.0,432.6189450075617,1.0,1.0,phase_1,,,,,,,,,,,,,magenta,triangle
0.0,7.0,0.0,1.0,4.0,4.0,418.9388619997771,1.0,1.0,phase_1,,,,,,,,,,,,,blue,circle
654.0,3.0,3.0,0.0,1.0,1.0,491.7883799935225,1.0,1.0,phase_1,,,,,,,,,,,,,cyan,flipped triangle
177.0,5.0,1.0,1.0,3.0,3.0,440.0370960065629,1.0,1.0,phase_1,,,,,,,,,,,,,orange,diamond
0.0,3.0,0.0,0.0,1.0,1.0,461.16556499328,1.0,1.0,phase_1,,,,,,,,,,,,,cyan,flipped triangle
638.0,3.0,3.0,0.0,4.0,4.0,351.3605420012027,1.0,1.0,phase_1,,,,,,,,,,,,,cyan,flipped triangle
664.0,3.0,3.0,0.0,1.0,1.0,401.8178490077844,1.0,1.0,phase_1,,,,,,,,,,,,,cyan,flipped triangle
632.0,7.0,3.0,1.0,1.0,1.0,399.1680369945243,1.0,1.0,phase_1,,,,,,,,,,,,,blue,circle
166.0,1.0,1.0,0.0,1.0,1.0,398.657835990889,1.0,1.0,phase_1,,,,,,,,,,,,,gray,cross
0.0,5.0,0.0,1.0,1.0,1.0,351.1213930032681,1.0,1.0,phase_1,,,,,,,,,,,,,orange,diamond
1293.0,4.0,4.0,0.0,4.0,4.0,379.5283689978532,1.0,1.0,phase_1,,,,,,,,,,,,,yellow,square
0.0,5.0,0.0,1.0,3.0,3.0,439.9284209939651,1.0,1.0,phase_1,,,,,,,,,,,,,orange,diamond
0.0,8.0,0.0,1.0,1.0,1.0,399.5068960066419,1.0,1.0,phase_1,,,,,,,,,,,,,magenta,triangle
336.0,6.0,2.0,1.0,1.0,1.0,381.7385680013103,1.0,1.0,phase_1,,,,,,,,,,,,,white,I
1301.0,8.0,4.0,1.0,1.0,1.0,359.7024550108472,1.0,1.0,phase_1,,,,,,,,,,,,,magenta,triangle
0.0,8.0,0.0,1.0,4.0,4.0,392.0459090004442,1.0,1.0,phase_1,,,,,,,,,,,,,magenta,triangle
143.0,1.0,1.0,0.0,2.0,2.0,457.812719992944,1.0,1.0,phase_1,,,,,,,,,,,,,gray,cross
1297.0,4.0,4.0,0.0,1.0,1.0,360.4170769976917,1.0,1.0,phase_1,,,,,,,,,,,,,yellow,square
1291.0,8.0,4.0,1.0,3.0,3.0,381.2942940130597,1.0,1.0,phase_1,,,,,,,,,,,,,magenta,triangle
0.0,7.0,0.0,1.0,2.0,2.0,360.0100880139507,1.0,1.0,phase_1,,,,,,,,,,,,,blue,circle
1288.0,8.0,4.0,1.0,2.0,2.0,369.1169359954074,1.0,1.0,phase_1,,,,,,,,,,,,,magenta,triangle
1289.0,8.0,4.0,1.0,1.0,1.0,351.0521240095841,1.0,1.0,phase_1,,,,,,,,,,,,,magenta,triangle
143.0,5.0,1.0,1.0,1.0,1.0,332.820764000644,1.0,1.0,phase_1,,,,,,,,,,,,,orange,diamond
174.0,1.0,1.0,0.0,2.0,2.0,378.5219090059399,1.0,1.0,phase_1,,,,,,,,,,,,,gray,cross
0.0,3.0,0.0,0.0,4.0,4.0,468.9177010004641,1.0,1.0,phase_1,,,,,,,,,,,,,cyan,flipped triangle
0.0,3.0,0.0,0.0,2.0,2.0,360.7382269983645,1.0,1.0,phase_1,,,,,,,,,,,,,cyan,flipped triangle
1311.0,8.0,4.0,1.0,4.0,4.0,432.5737059989478,1.0,1.0,phase_1,,,,,,,,,,,,,magenta,triangle
1300.0,4.0,4.0,0.0,4.0,4.0,410.1917459920514,1.0,1.0,phase_1,,,,,,,,,,,,,yellow,square
664.0,7.0,3.0,1.0,4.0,4.0,379.6907260111766,1.0,1.0,phase_1,,,,,,,,,,,,,blue,circle
329.0,2.0,2.0,0.0,4.0,4.0,361.4495170040754,1.0,1.0,phase_1,,,,,,,,,,,,,green,hexagon
320.0,6.0,2.0,1.0,3.0,3.0,349.5651699922746,1.0,1.0,phase_1,,,,,,,,,,,,,white,I
185.0,5.0,1.0,1.0,2.0,2.0,389.2794189887354,1.0,1.0,phase_1,,,,,,,,,,,,,orange,diamond
635.0,3.0,3.0,0.0,1.0,1.0,379.914061006275,1.0,1.0,phase_1,,,,,,,,,,,,,cyan,flipped triangle
349.0,6.0,2.0,1.0,1.0,1.0,393.3011330082081,1.0,1.0,phase_1,,,,,,,,,,,,,white,I
324.0,2.0,2.0,0.0,1.0,1.0,342.9130949953105,1.0,1.0,phase_1,,,,,,,,,,,,,green,hexagon
331.0,6.0,2.0,1.0,2.0,2.0,359.7860669979127,1.0,1.0,phase_1,,,,,,,,,,,,,white,I
633.0,7.0,3.0,1.0,4.0,4.0,429.2982929910067,1.0,1.0,phase_1,,,,,,,,,,,,,blue,circle
635.0,3.0,3.0,0.0,4.0,4.0,369.6263689926127,1.0,1.0,phase_1,,,,,,,,,,,,,cyan,flipped triangle
0.0,4.0,0.0,0.0,2.0,2.0,367.0868890039855,1.0,1.0,phase_1,,,,,,,,,,,,,yellow,square
1309.0,8.0,4.0,1.0,1.0,1.0,400.1456219993997,1.0,1.0,phase_1,,,,,,,,,,,,,magenta,triangle
329.0,6.0,2.0,1.0,2.0,2.0,419.6162320004077,1.0,1.0,phase_1,,,,,,,,,,,,,white,I
336.0,2.0,2.0,0.0,2.0,2.0,369.9026990070706,1.0,1.0,phase_1,,,,,,,,,,,,,green,hexagon
144.0,5.0,1.0,1.0,4.0,4.0,371.2343689985573,1.0,1.0,phase_1,,,,,,,,,,,,,orange,diamond
306.0,6.0,2.0,1.0,4.0,4.0,368.6701779952273,1.0,1.0,phase_1,,,,,,,,,,,,,white,I
1291.0,8.0,4.0,1.0,4.0,4.0,353.886449986021,1.0,1.0,phase_1,,,,,,,,,,,,,magenta,triangle
1277.0,8.0,4.0,1.0,2.0,2.0,351.2918269989313,1.0,1.0,phase_1,,,,,,,,,,,,,magenta,triangle
177.0,1.0,1.0,0.0,3.0,3.0,429.3811109964736,2.0,1.0,phase_1,,,,,,,,,,,,,gray,cross
0.0,8.0,0.0,1.0,4.0,4.0,359.9574350082548,2.0,1.0,phase_1,,,,,,,,,,,,,magenta,triangle
653.0,7.0,3.0,1.0,2.0,2.0,419.4977750012185,2.0,1.0,phase_1,,,,,,,,,,,,,blue,circle
0.0,6.0,0.0,1.0,4.0,4.0,340.181666004355,2.0,1.0,phase_1,,,,,,,,,,,,,white,I
1313.0,8.0,4.0,1.0,4.0,4.0,329.1080389899434,2.0,1.0,phase_1,,,,,,,,,,,,,magenta,triangle
164.0,1.0,1.0,0.0,3.0,3.0,350.5753920035204,2.0,1.0,phase_1,,,,,,,,,,,,,gray,cross
0.0,4.0,0.0,0.0,1.0,1.0,401.6546549974009,2.0,1.0,phase_1,,,,,,,,,,,,,yellow,square
0.0,3.0,0.0,0.0,3.0,3.0,331.2480780004989,2.0,1.0,phase_1,,,,,,,,,,,,,cyan,flipped triangle
325.0,2.0,2.0,0.0,2.0,2.0,310.680599999614,2.0,1.0,phase_1,,,,,,,,,,,,,green,hexagon
144.0,5.0,1.0,1.0,3.0,3.0,320.2854239934822,2.0,1.0,phase_1,,,,,,,,,,,,,orange,diamond
638.0,7.0,3.0,1.0,2.0,2.0,359.6509009948931,2.0,1.0,phase_1,,,,,,,,,,,,,blue,circle
168.0,5.0,1.0,1.0,3.0,3.0,359.0666730015073,2.0,1.0,phase_1,,,,,,,,,,,,,orange,diamond
662.0,7.0,3.0,1.0,3.0,3.0,359.692204001476,2.0,1.0,phase_1,,,,,,,,,,,,,blue,circle
635.0,7.0,3.0,1.0,2.0,2.0,358.9275460108183,2.0,1.0,phase_1,,,,,,,,,,,,,blue,circle
1276.0,4.0,4.0,0.0,3.0,3.0,348.0775110074319,2.0,1.0,phase_1,,,,,,,,,,,,,yellow,square
651.0,3.0,3.0,0.0,4.0,4.0,357.8312210011063,2.0,1.0,phase_1,,,,,,,,,,,,,cyan,flipped triangle
1322.0,8.0,4.0,1.0,3.0,3.0,369.5785750023788,2.0,1.0,phase_1,,,,,,,,,,,,,magenta,triangle
183.0,1.0,1.0,0.0,3.0,3.0,389.8220039991429,2.0,1.0,phase_1,,,,,,,,,,,,,gray,cross
655.0,3.0,3.0,0.0,3.0,3.0,358.5020810132846,2.0,1.0,phase_1,,,,,,,,,,,,,cyan,flipped triangle
317.0,6.0,2.0,1.0,3.0,3.0,349.9144530069316,2.0,1.0,phase_1,,,,,,,,,,,,,white,I
665.0,7.0,3.0,1.0,4.0,4.0,449.9583860015264,2.0,1.0,phase_1,,,,,,,,,,,,,blue,circle
1325.0,8.0,4.0,1.0,3.0,3.0,407.6350859977538,2.0,1.0,phase_1,,,,,,,,,,,,,magenta,triangle
0.0,2.0,0.0,0.0,4.0,4.0,379.4825740042142,2.0,1.0,phase_1,,,,,,,,,,,,,green,hexagon
1297.0,4.0,4.0,0.0,1.0,1.0,429.0375150012551,2.0,1.0,phase_1,,,,,,,,,,,,,yellow,square
1283.0,8.0,4.0,1.0,4.0,4.0,361.8171489943051,2.0,1.0,phase_1,,,,,,,,,,,,,magenta,triangle
670.0,3.0,3.0,0.0,4.0,4.0,361.3453220023075,2.0,1.0,phase_1,,,,,,,,,,,,,cyan,flipped triangle
1296.0,4.0,4.0,0.0,4.0,4.0,348.6581179895438,2.0,1.0,phase_1,,,,,,,,,,,,,yellow,square
329.0,6.0,2.0,1.0,3.0,3.0,459.9640100059332,2.0,1.0,phase_1,,,,,,,,,,,,,white,I
141.0,5.0,1.0,1.0,3.0,3.0,349.660377993132,2.0,1.0,phase_1,,,,,,,,,,,,,orange,diamond
1281.0,8.0,4.0,1.0,1.0,1.0,430.4160669998964,2.0,1.0,phase_1,,,,,,,,,,,,,magenta,triangle
674.0,7.0,3.0,1.0,3.0,3.0,379.6511330001522,2.0,1.0,phase_1,,,,,,,,,,,,,blue,circle
345.0,6.0,2.0,1.0,2.0,2.0,357.2216719912831,2.0,1.0,phase_1,,,,,,,,,,,,,white,I
1283.0,4.0,4.0,0.0,4.0,4.0,390.3273189935135,2.0,1.0,phase_1,,,,,,,,,,,,,yellow,square
342.0,6.0,2.0,1.0,1.0,1.0,381.0180870059412,2.0,1.0,phase_1,,,,,,,,,,,,,white,I
154.0,5.0,1.0,1.0,1.0,1.0,348.139762005303,2.0,1.0,phase_1,,,,,,,,,,,,,orange,diamond
0.0,2.0,0.0,0.0,4.0,4.0,348.3643660001689,2.0,1.0,phase_1,,,,,,,,,,,,,green,hexagon
658.0,7.0,3.0,1.0,2.0,2.0,377.5067259994102,2.0,1.0,phase_1,,,,,,,,,,,,,blue,circle
320.0,2.0,2.0,0.0,3.0,3.0,328.5087880067294,2.0,1.0,phase_1,,,,,,,,,,,,,green,hexagon
632.0,3.0,3.0,0.0,1.0,1.0,328.9699359884253,2.0,1.0,phase_1,,,,,,,,,,,,,cyan,flipped triangle
660.0,3.0,3.0,0.0,2.0,2.0,369.8270169988973,2.0,1.0,phase_1,,,,,,,,,,,,,cyan,flipped triangle
183.0,5.0,1.0,1.0,1.0,1.0,350.743634000537,2.0,1.0,phase_1,,,,,,,,,,,,,orange,diamond
333.0,6.0,2.0,1.0,1.0,1.0,390.5053100024815,2.0,1.0,phase_1,,,,,,,,,,,,,white,I
185.0,1.0,1.0,0.0,3.0,3.0,370.1267480064416,2.0,1.0,phase_1,,,,,,,,,,,,,gray,cross
1301.0,8.0,4.0,1.0,1.0,1.0,327.8934810077771,2.0,1.0,phase_1,,,,,,,,,,,,,magenta,triangle
347.0,2.0,2.0,0.0,2.0,2.0,369.766582007287,2.0,1.0,phase_1,,,,,,,,,,,,,green,hexagon
153.0,5.0,1.0,1.0,2.0,2.0,430.6837340118363,2.0,1.0,phase_1,,,,,,,,,,,,,orange,diamond
1290.0,4.0,4.0,0.0,2.0,2.0,330.4049650032539,2.0,1.0,phase_1,,,,,,,,,,,,,yellow,square
1288.0,4.0,4.0,0.0,3.0,3.0,401.7987000115681,2.0,1.0,phase_1,,,,,,,,,,,,,yellow,square
0.0,4.0,0.0,0.0,4.0,4.0,391.2571059918264,2.0,1.0,phase_1,,,,,,,,,,,,,yellow,square
305.0,6.0,2.0,1.0,3.0,3.0,340.2913970057852,2.0,1.0,phase_1,,,,,,,,,,,,,white,I
0.0,3.0,0.0,0.0,3.0,3.0,369.4679840118624,2.0,1.0,phase_1,,,,,,,,,,,,,cyan,flipped triangle
144.0,5.0,1.0,1.0,3.0,3.0,329.9051590001909,2.0,1.0,phase_1,,,,,,,,,,,,,orange,diamond
318.0,6.0,2.0,1.0,4.0,4.0,349.8124350007856,2.0,1.0,phase_1,,,,,,,,,,,,,white,I
1301.0,8.0,4.0,1.0,3.0,3.0,318.5677250003209,2.0,1.0,phase_1,,,,,,,,,,,,,magenta,triangle
0.0,2.0,0.0,0.0,4.0,4.0,339.1475270036608,2.0,1.0,phase_1,,,,,,,,,,,,,green,hexagon
144.0,1.0,1.0,0.0,2.0,2.0,349.523497003247,2.0,1.0,phase_1,,,,,,,,,,,,,gray,cross
1313.0,4.0,4.0,0.0,4.0,4.0,319.9668660090538,2.0,1.0,phase_1,,,,,,,,,,,,,yellow,square
0.0,5.0,0.0,1.0,1.0,1.0,417.951327006449,2.0,1.0,phase_1,,,,,,,,,,,,,orange,diamond
163.0,1.0,1.0,0.0,2.0,2.0,329.1994080063887,2.0,1.0,phase_1,,,,,,,,,,,,,gray,cross
144.0,1.0,1.0,0.0,3.0,3.0,309.891189011978,2.0,1.0,phase_1,,,,,,,,,,,,,gray,cross
147.0,1.0,1.0,0.0,2.0,2.0,309.6579639968695,2.0,1.0,phase_1,,,,,,,,,,,,,gray,cross
0.0,6.0,0.0,1.0,3.0,3.0,350.0561110122362,2.0,1.0,phase_1,,,,,,,,,,,,,white,I
1317.0,4.0,4.0,0.0,4.0,4.0,349.9499410099815,2.0,1.0,phase_1,,,,,,,,,,,,,yellow,square
1300.0,4.0,4.0,0.0,3.0,3.0,320.0133320060558,2.0,1.0,phase_1,,,,,,,,,,,,,yellow,square
0.0,5.0,0.0,1.0,1.0,1.0,290.5437459994573,2.0,1.0,phase_1,,,,,,,,,,,,,orange,diamond
146.0,5.0,1.0,1.0,1.0,1.0,330.319510991103,2.0,1.0,phase_1,,,,,,,,,,,,,orange,diamond
320.0,2.0,2.0,0.0,2.0,2.0,268.8125369895715,2.0,1.0,phase_1,,,,,,,,,,,,,green,hexagon
336.0,6.0,2.0,1.0,2.0,2.0,340.165290996083,2.0,1.0,phase_1,,,,,,,,,,,,,white,I
341.0,6.0,2.0,1.0,1.0,1.0,319.9746200116351,2.0,1.0,phase_1,,,,,,,,,,,,,white,I
665.0,3.0,3.0,0.0,3.0,3.0,370.2635899971938,2.0,1.0,phase_1,,,,,,,,,,,,,cyan,flipped triangle
0.0,6.0,0.0,1.0,2.0,2.0,330.5513030063594,2.0,1.0,phase_1,,,,,,,,,,,,,white,I
661.0,3.0,3.0,0.0,4.0,4.0,410.3189559973543,2.0,1.0,phase_1,,,,,,,,,,,,,cyan,flipped triangle
175.0,1.0,1.0,0.0,2.0,2.0,329.7598009958165,2.0,1.0,phase_1,,,,,,,,,,,,,gray,cross
178.0,5.0,1.0,1.0,3.0,3.0,360.1237160037271,2.0,1.0,phase_1,,,,,,,,,,,,,orange,diamond
145.0,1.0,1.0,0.0,1.0,1.0,352.2786510002333,2.0,1.0,phase_1,,,,,,,,,,,,,gray,cross
178.0,1.0,1.0,0.0,3.0,3.0,329.8059990047477,2.0,1.0,phase_1,,,,,,,,,,,,,gray,cross
0.0,1.0,0.0,0.0,1.0,1.0,470.954789998359,2.0,1.0,phase_1,,,,,,,,,,,,,gray,cross
0.0,2.0,0.0,0.0,3.0,3.0,360.0561830098741,2.0,1.0,phase_1,,,,,,,,,,,,,green,hexagon
153.0,1.0,1.0,0.0,3.0,3.0,320.4304070095531,2.0,1.0,phase_1,,,,,,,,,,,,,gray,cross
643.0,7.0,3.0,1.0,3.0,3.0,300.3869319945806,2.0,1.0,phase_1,,,,,,,,,,,,,blue,circle
0.0,7.0,0.0,1.0,3.0,3.0,312.387112993747,2.0,1.0,phase_1,,,,,,,,,,,,,blue,circle
301.0,6.0,2.0,1.0,1.0,1.0,390.2102620049845,2.0,1.0,phase_1,,,,,,,,,,,,,white,I
639.0,7.0,3.0,1.0,1.0,1.0,329.4313049991615,2.0,1.0,phase_1,,,,,,,,,,,,,blue,circle
1276.0,8.0,4.0,1.0,1.0,1.0,301.3147729943739,2.0,1.0,phase_1,,,,,,,,,,,,,magenta,triangle
1285.0,8.0,4.0,1.0,3.0,3.0,388.7899380060844,2.0,1.0,phase_1,,,,,,,,,,,,,magenta,triangle
310.0,2.0,2.0,0.0,1.0,1.0,310.5791209964081,2.0,1.0,phase_1,,,,,,,,,,,,,green,hexagon
318.0,2.0,2.0,0.0,2.0,2.0,270.159155013971,2.0,1.0,phase_1,,,,,,,,,,,,,green,hexagon
628.0,7.0,3.0,1.0,1.0,1.0,367.4829770025098,2.0,1.0,phase_1,,,,,,,,,,,,,blue,circle
661.0,7.0,3.0,1.0,4.0,4.0,433.3281080034794,2.0,1.0,phase_1,,,,,,,,,,,,,blue,circle
329.0,6.0,2.0,1.0,4.0,4.0,340.4450630041538,2.0,1.0,phase_1,,,,,,,,,,,,,white,I
1295.0,8.0,4.0,1.0,1.0,1.0,369.751983002061,2.0,1.0,phase_1,,,,,,,,,,,,,magenta,triangle
1280.0,4.0,4.0,0.0,4.0,4.0,379.4710869988194,2.0,1.0,phase_1,,,,,,,,,,,,,yellow,square
303.0,2.0,2.0,0.0,4.0,4.0,371.6677969932789,2.0,1.0,phase_1,,,,,,,,,,,,,green,hexagon
0.0,7.0,0.0,1.0,4.0,4.0,350.9735739935422,2.0,1.0,phase_1,,,,,,,,,,,,,blue,circle
1289.0,4.0,4.0,0.0,1.0,1.0,290.6482789985602,2.0,1.0,phase_1,,,,,,,,,,,,,yellow,square
321.0,6.0,2.0,1.0,3.0,3.0,367.4197530053789,2.0,1.0,phase_1,,,,,,,,,,,,,white,I
346.0,6.0,2.0,1.0,1.0,1.0,340.0487779872492,2.0,2.0,phase_1,,,,,,,,,,,,,white,I
314.0,6.0,2.0,1.0,4.0,4.0,429.033132008044,2.0,1.0,phase_1,,,,,,,,,,,,,white,I
0.0,2.0,0.0,0.0,1.0,1.0,358.2327320036711,2.0,1.0,phase_1,,,,,,,,,,,,,green,hexagon
320.0,2.0,2.0,0.0,4.0,4.0,320.8707429876085,2.0,1.0,phase_1,,,,,,,,,,,,,green,hexagon
0.0,6.0,0.0,1.0,1.0,1.0,439.5606920006685,3.0,1.0,phase_1,,,,,,,,,,,,,white,I
1317.0,8.0,4.0,1.0,2.0,2.0,301.0100420069648,3.0,1.0,phase_1,,,,,,,,,,,,,magenta,triangle
640.0,3.0,3.0,0.0,2.0,2.0,351.8000570038566,3.0,1.0,phase_1,,,,,,,,,,,,,cyan,flipped triangle
330.0,2.0,2.0,0.0,3.0,3.0,291.7323090077843,3.0,1.0,phase_1,,,,,,,,,,,,,green,hexagon
313.0,6.0,2.0,1.0,4.0,4.0,281.7793210124364,3.0,1.0,phase_1,,,,,,,,,,,,,white,I
147.0,5.0,1.0,1.0,1.0,1.0,290.3153610095614,3.0,1.0,phase_1,,,,,,,,,,,,,orange,diamond
0.0,7.0,0.0,1.0,3.0,3.0,330.4107189906062,3.0,1.0,phase_1,,,,,,,,,,,,,blue,circle
337.0,6.0,2.0,1.0,2.0,2.0,358.1539689912461,3.0,1.0,phase_1,,,,,,,,,,,,,white,I
653.0,7.0,3.0,1.0,2.0,2.0,389.2582810076419,3.0,1.0,phase_1,,,,,,,,,,,,,blue,circle
147.0,1.0,1.0,0.0,3.0,3.0,291.7801680014236,3.0,1.0,phase_1,,,,,,,,,,,,,gray,cross
183.0,5.0,1.0,1.0,2.0,2.0,400.2076870092423,3.0,1.0,phase_1,,,,,,,,,,,,,orange,diamond
1301.0,4.0,4.0,0.0,3.0,3.0,310.657035006443,3.0,1.0,phase_1,,,,,,,,,,,,,yellow,square
1301.0,4.0,4.0,0.0,3.0,3.0,370.9873330080881,3.0,1.0,phase_1,,,,,,,,,,,,,yellow,square
1295.0,4.0,4.0,0.0,2.0,2.0,331.0446539981058,3.0,1.0,phase_1,,,,,,,,,,,,,yellow,square
1322.0,4.0,4.0,0.0,3.0,3.0,340.6080949935131,3.0,1.0,phase_1,,,,,,,,,,,,,yellow,square
1304.0,4.0,4.0,0.0,4.0,4.0,439.7970139980316,3.0,1.0,phase_1,,,,,,,,,,,,,yellow,square
1299.0,4.0,4.0,0.0,3.0,3.0,370.3907169983722,3.0,1.0,phase_1,,,,,,,,,,,,,yellow,square
321.0,2.0,2.0,0.0,3.0,3.0,330.2600869938032,3.0,1.0,phase_1,,,,,,,,,,,,,green,hexagon
321.0,6.0,2.0,1.0,3.0,3.0,332.4438779964112,3.0,1.0,phase_1,,,,,,,,,,,,,white,I
1309.0,4.0,4.0,0.0,2.0,2.0,310.4196549975313,3.0,1.0,phase_1,,,,,,,,,,,,,yellow,square
649.0,3.0,3.0,0.0,2.0,2.0,330.7465999969281,3.0,1.0,phase_1,,,,,,,,,,,,,cyan,flipped triangle
670.0,7.0,3.0,1.0,3.0,3.0,270.4447919968515,3.0,1.0,phase_1,,,,,,,,,,,,,blue,circle
1325.0,8.0,4.0,1.0,4.0,4.0,349.5053549995646,3.0,1.0,phase_1,,,,,,,,,,,,,magenta,triangle
0.0,2.0,0.0,0.0,4.0,4.0,328.7739530060207,3.0,1.0,phase_1,,,,,,,,,,,,,green,hexagon
0.0,1.0,0.0,0.0,3.0,3.0,330.3000070009148,3.0,1.0,phase_1,,,,,,,,,,,,,gray,cross
336.0,2.0,2.0,0.0,1.0,1.0,330.3336190001573,3.0,1.0,phase_1,,,,,,,,,,,,,green,hexagon
340.0,2.0,2.0,0.0,3.0,3.0,289.582272991538,3.0,1.0,phase_1,,,,,,,,,,,,,green,hexagon
330.0,6.0,2.0,1.0,4.0,4.0,350.7136619882658,3.0,1.0,phase_1,,,,,,,,,,,,,white,I
308.0,6.0,2.0,1.0,2.0,2.0,398.6313529894687,3.0,1.0,phase_1,,,,,,,,,,,,,white,I
176.0,1.0,1.0,0.0,4.0,4.0,320.8657319919439,3.0,1.0,phase_1,,,,,,,,,,,,,gray,cross
0.0,6.0,0.0,1.0,3.0,3.0,311.419099001796,3.0,1.0,phase_1,,,,,,,,,,,,,white,I
1288.0,4.0,4.0,0.0,4.0,4.0,350.6596730003366,3.0,1.0,phase_1,,,,,,,,,,,,,yellow,square
1317.0,4.0,4.0,0.0,2.0,2.0,330.5087780026952,3.0,1.0,phase_1,,,,,,,,,,,,,yellow,square
638.0,3.0,3.0,0.0,4.0,4.0,310.3070659999503,3.0,1.0,phase_1,,,,,,,,,,,,,cyan,flipped triangle
144.0,1.0,1.0,0.0,3.0,3.0,361.4238439913606,3.0,1.0,phase_1,,,,,,,,,,,,,gray,cross
1300.0,8.0,4.0,1.0,3.0,3.0,330.2343909890624,3.0,1.0,phase_1,,,,,,,,,,,,,magenta,triangle
0.0,5.0,0.0,1.0,3.0,3.0,381.4460300054634,3.0,1.0,phase_1,,,,,,,,,,,,,orange,diamond
1311.0,4.0,4.0,0.0,1.0,1.0,370.2057580085238,3.0,1.0,phase_1,,,,,,,,,,,,,yellow,square
345.0,2.0,2.0,0.0,1.0,1.0,339.679889002582,3.0,1.0,phase_1,,,,,,,,,,,,,green,hexagon
324.0,6.0,2.0,1.0,3.0,3.0,329.5606339961523,3.0,1.0,phase_1,,,,,,,,,,,,,white,I
176.0,5.0,1.0,1.0,2.0,2.0,310.0577589939348,3.0,1.0,phase_1,,,,,,,,,,,,,orange,diamond
159.0,1.0,1.0,0.0,4.0,4.0,369.6254189999308,3.0,1.0,phase_1,,,,,,,,,,,,,gray,cross
1291.0,4.0,4.0,0.0,2.0,2.0,299.4729400088545,3.0,1.0,phase_1,,,,,,,,,,,,,yellow,square
183.0,1.0,1.0,0.0,4.0,4.0,329.8694910045014,3.0,1.0,phase_1,,,,,,,,,,,,,gray,cross
0.0,8.0,0.0,1.0,3.0,3.0,360.9443719906267,3.0,1.0,phase_1,,,,,,,,,,,,,magenta,triangle
1296.0,8.0,4.0,1.0,2.0,2.0,289.39113700471347,3.0,1.0,phase_1,,,,,,,,,,,,,magenta,triangle
163.0,5.0,1.0,1.0,1.0,1.0,330.8199439925374,3.0,1.0,phase_1,,,,,,,,,,,,,orange,diamond
329.0,2.0,2.0,0.0,3.0,3.0,339.9982690025354,3.0,1.0,phase_1,,,,,,,,,,,,,green,hexagon
164.0,5.0,1.0,1.0,3.0,3.0,340.0209410028765,3.0,1.0,phase_1,,,,,,,,,,,,,orange,diamond
628.0,3.0,3.0,0.0,4.0,4.0,368.6337589897448,3.0,1.0,phase_1,,,,,,,,,,,,,cyan,flipped triangle
175.0,5.0,1.0,1.0,1.0,1.0,358.9737139991484,3.0,1.0,phase_1,,,,,,,,,,,,,orange,diamond
186.0,1.0,1.0,0.0,1.0,1.0,368.8785230042413,3.0,1.0,phase_1,,,,,,,,,,,,,gray,cross
340.0,6.0,2.0,1.0,3.0,3.0,338.8757030043052,3.0,1.0,phase_1,,,,,,,,,,,,,white,I
1325.0,4.0,4.0,0.0,3.0,3.0,331.4678720053052,3.0,1.0,phase_1,,,,,,,,,,,,,yellow,square
639.0,3.0,3.0,0.0,3.0,3.0,329.534912991221,3.0,1.0,phase_1,,,,,,,,,,,,,cyan,flipped triangle
1314.0,8.0,4.0,1.0,4.0,4.0,359.0056629909668,3.0,1.0,phase_1,,,,,,,,,,,,,magenta,triangle
168.0,1.0,1.0,0.0,2.0,2.0,340.5012709990842,3.0,1.0,phase_1,,,,,,,,,,,,,gray,cross
653.0,3.0,3.0,0.0,1.0,1.0,408.3871759939939,3.0,1.0,phase_1,,,,,,,,,,,,,cyan,flipped triangle
647.0,7.0,3.0,1.0,4.0,4.0,329.5464020047802,3.0,1.0,phase_1,,,,,,,,,,,,,blue,circle
1325.0,4.0,4.0,0.0,1.0,1.0,347.9004539985908,3.0,2.0,phase_1,,,,,,,,,,,,,yellow,square
0.0,4.0,0.0,0.0,3.0,3.0,348.8818939949851,3.0,1.0,phase_1,,,,,,,,,,,,,yellow,square
640.0,3.0,3.0,0.0,3.0,3.0,320.0482279935386,3.0,1.0,phase_1,,,,,,,,,,,,,cyan,flipped triangle
639.0,7.0,3.0,1.0,4.0,4.0,349.4895750045543,3.0,1.0,phase_1,,,,,,,,,,,,,blue,circle
159.0,1.0,1.0,0.0,4.0,4.0,429.6777179988567,3.0,1.0,phase_1,,,,,,,,,,,,,gray,cross
178.0,1.0,1.0,0.0,1.0,1.0,338.2690879952861,3.0,1.0,phase_1,,,,,,,,,,,,,gray,cross
0.0,7.0,0.0,1.0,3.0,3.0,380.3483619994949,3.0,1.0,phase_1,,,,,,,,,,,,,blue,circle
0.0,4.0,0.0,0.0,1.0,1.0,369.8498000012478,3.0,1.0,phase_1,,,,,,,,,,,,,yellow,square
331.0,2.0,2.0,0.0,3.0,3.0,368.0751060019247,3.0,1.0,phase_1,,,,,,,,,,,,,green,hexagon
630.0,3.0,3.0,0.0,1.0,1.0,298.1549440009985,3.0,1.0,phase_1,,,,,,,,,,,,,cyan,flipped triangle
330.0,6.0,2.0,1.0,4.0,4.0,329.6571910032071,3.0,1.0,phase_1,,,,,,,,,,,,,white,I
141.0,1.0,1.0,0.0,4.0,4.0,360.6062990002101,3.0,1.0,phase_1,,,,,,,,,,,,,gray,cross
147.0,5.0,1.0,1.0,4.0,4.0,349.5106039918028,3.0,1.0,phase_1,,,,,,,,,,,,,orange,diamond
1300.0,8.0,4.0,1.0,3.0,3.0,359.4494010030757,3.0,1.0,phase_1,,,,,,,,,,,,,magenta,triangle
0.0,1.0,0.0,0.0,2.0,2.0,339.8134330054745,3.0,1.0,phase_1,,,,,,,,,,,,,gray,cross
177.0,1.0,1.0,0.0,1.0,1.0,329.3910210049944,3.0,1.0,phase_1,,,,,,,,,,,,,gray,cross
0.0,1.0,0.0,0.0,4.0,4.0,289.9802210013149,3.0,1.0,phase_1,,,,,,,,,,,,,gray,cross
651.0,7.0,3.0,1.0,4.0,4.0,379.4785229983972,3.0,1.0,phase_1,,,,,,,,,,,,,blue,circle
1305.0,8.0,4.0,1.0,1.0,1.0,420.2031860040733,3.0,1.0,phase_1,,,,,,,,,,,,,magenta,triangle
342.0,2.0,2.0,0.0,2.0,2.0,408.4882800088962,3.0,1.0,phase_1,,,,,,,,,,,,,green,hexagon
0.0,3.0,0.0,0.0,2.0,2.0,369.0953579935012,3.0,1.0,phase_1,,,,,,,,,,,,,cyan,flipped triangle
0.0,3.0,0.0,0.0,1.0,1.0,379.261599999154,3.0,1.0,phase_1,,,,,,,,,,,,,cyan,flipped triangle
309.0,2.0,2.0,0.0,1.0,1.0,338.1310160038993,3.0,1.0,phase_1,,,,,,,,,,,,,green,hexagon
319.0,6.0,2.0,1.0,4.0,4.0,338.1917990045622,3.0,1.0,phase_1,,,,,,,,,,,,,white,I
318.0,6.0,2.0,1.0,1.0,1.0,320.4770340089453,3.0,1.0,phase_1,,,,,,,,,,,,,white,I
1301.0,4.0,4.0,0.0,1.0,1.0,338.1395670003257,3.0,1.0,phase_1,,,,,,,,,,,,,yellow,square
144.0,5.0,1.0,1.0,4.0,4.0,350.1620299939532,3.0,1.0,phase_1,,,,,,,,,,,,,orange,diamond
0.0,5.0,0.0,1.0,3.0,3.0,370.0818779907422,3.0,1.0,phase_1,,,,,,,,,,,,,orange,diamond
666.0,3.0,3.0,0.0,3.0,3.0,361.052224994637,3.0,1.0,phase_1,,,,,,,,,,,,,cyan,flipped triangle
166.0,5.0,1.0,1.0,3.0,3.0,360.221435999847,3.0,1.0,phase_1,,,,,,,,,,,,,orange,diamond
662.0,3.0,3.0,0.0,1.0,1.0,348.9962059975369,3.0,1.0,phase_1,,,,,,,,,,,,,cyan,flipped triangle
0.0,6.0,0.0,1.0,3.0,3.0,309.0227770007914,3.0,1.0,phase_1,,,,,,,,,,,,,white,I
1281.0,4.0,4.0,0.0,4.0,4.0,339.3945239949971,3.0,1.0,phase_1,,,,,,,,,,,,,yellow,square
342.0,6.0,2.0,1.0,2.0,2.0,360.3532489942154,3.0,1.0,phase_1,,,,,,,,,,,,,white,I
1299.0,8.0,4.0,1.0,4.0,4.0,351.1053659894969,3.0,1.0,phase_1,,,,,,,,,,,,,magenta,triangle
660.0,7.0,3.0,1.0,1.0,1.0,360.3759549878305,3.0,1.0,phase_1,,,,,,,,,,,,,blue,circle
654.0,7.0,3.0,1.0,1.0,1.0,361.0251329955645,3.0,1.0,phase_1,,,,,,,,,,,,,blue,circle
0.0,1.0,0.0,0.0,1.0,1.0,370.3992840019054,3.0,1.0,phase_1,,,,,,,,,,,,,gray,cross
156.0,5.0,1.0,1.0,2.0,2.0,359.4390340003883,3.0,1.0,phase_1,,,,,,,,,,,,,orange,diamond
634.0,7.0,3.0,1.0,2.0,2.0,358.5746509925229,3.0,1.0,phase_1,,,,,,,,,,,,,blue,circle
141.0,1.0,1.0,0.0,4.0,4.0,608.3260819868883,3.0,1.0,phase_1,,,,,,,,,,,,,gray,cross
664.0,3.0,3.0,0.0,2.0,2.0,439.9246819957625,4.0,1.0,phase_1,,,,,,,,,,,,,cyan,flipped triangle
303.0,6.0,2.0,1.0,1.0,1.0,340.0750680011697,4.0,1.0,phase_1,,,,,,,,,,,,,white,I
1289.0,4.0,4.0,0.0,1.0,1.0,331.4406599965878,4.0,1.0,phase_1,,,,,,,,,,,,,yellow,square
1297.0,8.0,4.0,1.0,3.0,3.0,331.3816779991612,4.0,1.0,phase_1,,,,,,,,,,,,,magenta,triangle
0.0,8.0,0.0,1.0,4.0,4.0,261.2732440029504,4.0,1.0,phase_1,,,,,,,,,,,,,magenta,triangle
666.0,3.0,3.0,0.0,3.0,3.0,361.3893269939581,4.0,1.0,phase_1,,,,,,,,,,,,,cyan,flipped triangle
156.0,1.0,1.0,0.0,4.0,4.0,320.7946100010304,4.0,1.0,phase_1,,,,,,,,,,,,,gray,cross
0.0,6.0,0.0,1.0,1.0,1.0,320.2932999993209,4.0,1.0,phase_1,,,,,,,,,,,,,white,I
633.0,3.0,3.0,0.0,2.0,2.0,371.6385609877761,4.0,1.0,phase_1,,,,,,,,,,,,,cyan,flipped triangle
167.0,1.0,1.0,0.0,2.0,2.0,358.631498995237,4.0,1.0,phase_1,,,,,,,,,,,,,gray,cross
145.0,5.0,1.0,1.0,2.0,2.0,318.5476979997474,4.0,1.0,phase_1,,,,,,,,,,,,,orange,diamond
150.0,5.0,1.0,1.0,4.0,4.0,370.0813920004293,4.0,1.0,phase_1,,,,,,,,,,,,,orange,diamond
320.0,6.0,2.0,1.0,1.0,1.0,359.8787509981775,4.0,1.0,phase_1,,,,,,,,,,,,,white,I
647.0,3.0,3.0,0.0,4.0,4.0,351.1585450032726,4.0,1.0,phase_1,,,,,,,,,,,,,cyan,flipped triangle
670.0,3.0,3.0,0.0,3.0,3.0,350.8673559990711,4.0,1.0,phase_1,,,,,,,,,,,,,cyan,flipped triangle
166.0,5.0,1.0,1.0,1.0,1.0,309.8387919890228,4.0,1.0,phase_1,,,,,,,,,,,,,orange,diamond
0.0,5.0,0.0,1.0,1.0,1.0,371.7429390089819,4.0,1.0,phase_1,,,,,,,,,,,,,orange,diamond
169.0,5.0,1.0,1.0,2.0,2.0,357.9794980032602,4.0,1.0,phase_1,,,,,,,,,,,,,orange,diamond
649.0,7.0,3.0,1.0,3.0,3.0,331.9210279878462,4.0,1.0,phase_1,,,,,,,,,,,,,blue,circle
662.0,3.0,3.0,0.0,2.0,2.0,411.2075349985389,4.0,1.0,phase_1,,,,,,,,,,,,,cyan,flipped triangle
657.0,3.0,3.0,0.0,3.0,3.0,381.4784140122356,4.0,1.0,phase_1,,,,,,,,,,,,,cyan,flipped triangle
141.0,5.0,1.0,1.0,2.0,2.0,321.9582430028822,4.0,1.0,phase_1,,,,,,,,,,,,,orange,diamond
331.0,2.0,2.0,0.0,3.0,3.0,320.8691649924731,4.0,1.0,phase_1,,,,,,,,,,,,,green,hexagon
1285.0,4.0,4.0,0.0,3.0,3.0,341.4617569942493,4.0,1.0,phase_1,,,,,,,,,,,,,yellow,square
650.0,3.0,3.0,0.0,3.0,3.0,399.5825450110715,4.0,1.0,phase_1,,,,,,,,,,,,,cyan,flipped triangle
342.0,2.0,2.0,0.0,2.0,2.0,330.6634339969605,4.0,1.0,phase_1,,,,,,,,,,,,,green,hexagon
306.0,2.0,2.0,0.0,1.0,1.0,349.9528120009927,4.0,1.0,phase_1,,,,,,,,,,,,,green,hexagon
0.0,7.0,0.0,1.0,4.0,4.0,319.6844710037112,4.0,1.0,phase_1,,,,,,,,,,,,,blue,circle
1280.0,8.0,4.0,1.0,2.0,2.0,428.0051620007725,4.0,1.0,phase_1,,,,,,,,,,,,,magenta,triangle
177.0,5.0,1.0,1.0,4.0,4.0,440.3582210070453,4.0,1.0,phase_1,,,,,,,,,,,,,orange,diamond
628.0,3.0,3.0,0.0,2.0,2.0,419.9517899978673,4.0,1.0,phase_1,,,,,,,,,,,,,cyan,flipped triangle
308.0,2.0,2.0,0.0,4.0,4.0,329.6495709946612,4.0,1.0,phase_1,,,,,,,,,,,,,green,hexagon
628.0,7.0,3.0,1.0,3.0,3.0,388.7693490105448,4.0,1.0,phase_1,,,,,,,,,,,,,blue,circle
318.0,2.0,2.0,0.0,4.0,4.0,350.1667399978032,4.0,1.0,phase_1,,,,,,,,,,,,,green,hexagon
330.0,2.0,2.0,0.0,4.0,4.0,336.7385800083866,4.0,1.0,phase_1,,,,,,,,,,,,,green,hexagon
1287.0,8.0,4.0,1.0,2.0,2.0,350.2584929956356,4.0,1.0,phase_1,,,,,,,,,,,,,magenta,triangle
313.0,2.0,2.0,0.0,1.0,1.0,329.250940005295,4.0,1.0,phase_1,,,,,,,,,,,,,green,hexagon
154.0,1.0,1.0,0.0,1.0,1.0,340.9415810019709,4.0,1.0,phase_1,,,,,,,,,,,,,gray,cross
0.0,2.0,0.0,0.0,3.0,3.0,389.9963019939605,4.0,1.0,phase_1,,,,,,,,,,,,,green,hexagon
309.0,6.0,2.0,1.0,4.0,4.0,340.3942000004463,4.0,1.0,phase_1,,,,,,,,,,,,,white,I
172.0,5.0,1.0,1.0,4.0,4.0,339.3855459871702,4.0,1.0,phase_1,,,,,,,,,,,,,orange,diamond
657.0,7.0,3.0,1.0,3.0,3.0,390.2160069992533,4.0,1.0,phase_1,,,,,,,,,,,,,blue,circle
1277.0,4.0,4.0,0.0,2.0,2.0,320.1234489970375,4.0,1.0,phase_1,,,,,,,,,,,,,yellow,square
1322.0,8.0,4.0,1.0,4.0,4.0,300.199157994939,4.0,1.0,phase_1,,,,,,,,,,,,,magenta,triangle
144.0,1.0,1.0,0.0,1.0,1.0,391.2720929947682,4.0,1.0,phase_1,,,,,,,,,,,,,gray,cross
337.0,2.0,2.0,0.0,1.0,1.0,371.690279993345,4.0,1.0,phase_1,,,,,,,,,,,,,green,hexagon
1293.0,8.0,4.0,1.0,3.0,3.0,381.3699649908812,4.0,1.0,phase_1,,,,,,,,,,,,,magenta,triangle
1290.0,8.0,4.0,1.0,2.0,2.0,271.15515100013,4.0,1.0,phase_1,,,,,,,,,,,,,magenta,triangle
0.0,8.0,0.0,1.0,3.0,3.0,328.9987140015,4.0,1.0,phase_1,,,,,,,,,,,,,magenta,triangle
635.0,7.0,3.0,1.0,2.0,2.0,321.4358469995204,4.0,1.0,phase_1,,,,,,,,,,,,,blue,circle
639.0,3.0,3.0,0.0,1.0,1.0,362.1336270007305,4.0,1.0,phase_1,,,,,,,,,,,,,cyan,flipped triangle
643.0,7.0,3.0,1.0,4.0,4.0,371.9116139982361,4.0,1.0,phase_1,,,,,,,,,,,,,blue,circle
1288.0,8.0,4.0,1.0,4.0,4.0,372.0211280015064,4.0,1.0,phase_1,,,,,,,,,,,,,magenta,triangle
666.0,7.0,3.0,1.0,1.0,1.0,381.5544760000193,4.0,1.0,phase_1,,,,,,,,,,,,,blue,circle
1291.0,4.0,4.0,0.0,1.0,1.0,349.519727009465,4.0,1.0,phase_1,,,,,,,,,,,,,yellow,square
638.0,7.0,3.0,1.0,1.0,1.0,361.178128994652,4.0,1.0,phase_1,,,,,,,,,,,,,blue,circle
174.0,5.0,1.0,1.0,4.0,4.0,318.915404001018,4.0,1.0,phase_1,,,,,,,,,,,,,orange,diamond
0.0,4.0,0.0,0.0,3.0,3.0,398.8767639966681,4.0,1.0,phase_1,,,,,,,,,,,,,yellow,square
634.0,3.0,3.0,0.0,4.0,4.0,379.7046309919096,4.0,1.0,phase_1,,,,,,,,,,,,,cyan,flipped triangle
0.0,6.0,0.0,1.0,4.0,4.0,389.9424499977613,4.0,1.0,phase_1,,,,,,,,,,,,,white,I
146.0,1.0,1.0,0.0,1.0,1.0,310.5396799946902,4.0,1.0,phase_1,,,,,,,,,,,,,gray,cross
0.0,5.0,0.0,1.0,2.0,2.0,339.2631399910897,4.0,1.0,phase_1,,,,,,,,,,,,,orange,diamond
0.0,8.0,0.0,1.0,4.0,4.0,378.9962270093383,4.0,1.0,phase_1,,,,,,,,,,,,,magenta,triangle
670.0,7.0,3.0,1.0,4.0,4.0,398.9349939947715,4.0,1.0,phase_1,,,,,,,,,,,,,blue,circle
1314.0,4.0,4.0,0.0,1.0,1.0,309.9717989971395,4.0,1.0,phase_1,,,,,,,,,,,,,yellow,square
319.0,2.0,2.0,0.0,2.0,2.0,359.9166410131147,4.0,1.0,phase_1,,,,,,,,,,,,,green,hexagon
0.0,4.0,0.0,0.0,3.0,3.0,329.4116809993284,4.0,1.0,phase_1,,,,,,,,,,,,,yellow,square
178.0,5.0,1.0,1.0,4.0,4.0,348.94008700212,4.0,1.0,phase_1,,,,,,,,,,,,,orange,diamond
349.0,2.0,2.0,0.0,4.0,4.0,298.3961089921649,4.0,1.0,phase_1,,,,,,,,,,,,,green,hexagon
662.0,7.0,3.0,1.0,2.0,2.0,358.2286960008787,4.0,1.0,phase_1,,,,,,,,,,,,,blue,circle
0.0,1.0,0.0,0.0,1.0,1.0,360.7931269943947,4.0,1.0,phase_1,,,,,,,,,,,,,gray,cross
674.0,3.0,3.0,0.0,1.0,1.0,390.008973001386,4.0,1.0,phase_1,,,,,,,,,,,,,cyan,flipped triangle
653.0,3.0,3.0,0.0,2.0,2.0,369.7706879902398,4.0,1.0,phase_1,,,,,,,,,,,,,cyan,flipped triangle
178.0,5.0,1.0,1.0,4.0,4.0,419.8583539982792,4.0,1.0,phase_1,,,,,,,,,,,,,orange,diamond
0.0,3.0,0.0,0.0,3.0,3.0,348.9386900037061,4.0,1.0,phase_1,,,,,,,,,,,,,cyan,flipped triangle
325.0,6.0,2.0,1.0,2.0,2.0,361.3697800028603,4.0,1.0,phase_1,,,,,,,,,,,,,white,I
1321.0,4.0,4.0,0.0,1.0,1.0,329.6261950017651,4.0,1.0,phase_1,,,,,,,,,,,,,yellow,square
0.0,8.0,0.0,1.0,2.0,2.0,398.9067030051956,4.0,1.0,phase_1,,,,,,,,,,,,,magenta,triangle
159.0,5.0,1.0,1.0,2.0,2.0,359.6725399984279,4.0,1.0,phase_1,,,,,,,,,,,,,orange,diamond
320.0,6.0,2.0,1.0,2.0,2.0,407.0421250071376,4.0,1.0,phase_1,,,,,,,,,,,,,white,I
305.0,2.0,2.0,0.0,4.0,4.0,389.9344070086954,4.0,1.0,phase_1,,,,,,,,,,,,,green,hexagon
333.0,2.0,2.0,0.0,3.0,3.0,379.8447400040459,4.0,1.0,phase_1,,,,,,,,,,,,,green,hexagon
0.0,5.0,0.0,1.0,4.0,4.0,359.890746010933,4.0,1.0,phase_1,,,,,,,,,,,,,orange,diamond
1304.0,8.0,4.0,1.0,2.0,2.0,339.2489169928012,4.0,1.0,phase_1,,,,,,,,,,,,,magenta,triangle
630.0,3.0,3.0,0.0,2.0,2.0,379.7138060035649,4.0,1.0,phase_1,,,,,,,,,,,,,cyan,flipped triangle
1305.0,4.0,4.0,0.0,2.0,2.0,358.9617129910039,4.0,1.0,phase_1,,,,,,,,,,,,,yellow,square
159.0,5.0,1.0,1.0,4.0,4.0,330.8860450051725,4.0,1.0,phase_1,,,,,,,,,,,,,orange,diamond
655.0,7.0,3.0,1.0,1.0,1.0,310.6134520057821,4.0,1.0,phase_1,,,,,,,,,,,,,blue,circle
329.0,2.0,2.0,0.0,1.0,1.0,310.0879070116207,4.0,1.0,phase_1,,,,,,,,,,,,,green,hexagon
0.0,5.0,0.0,1.0,4.0,4.0,350.2914359996794,4.0,1.0,phase_1,,,,,,,,,,,,,orange,diamond
0.0,2.0,0.0,0.0,3.0,3.0,311.6396530094789,4.0,1.0,phase_1,,,,,,,,,,,,,green,hexagon
665.0,3.0,3.0,0.0,4.0,4.0,341.3958519959124,4.0,1.0,phase_1,,,,,,,,,,,,,cyan,flipped triangle
186.0,5.0,1.0,1.0,1.0,1.0,341.7280300054699,4.0,1.0,phase_1,,,,,,,,,,,,,orange,diamond
314.0,2.0,2.0,0.0,1.0,1.0,320.4335810005432,4.0,1.0,phase_1,,,,,,,,,,,,,green,hexagon
630.0,7.0,3.0,1.0,3.0,3.0,360.9274290065514,4.0,1.0,phase_1,,,,,,,,,,,,,blue,circle
175.0,1.0,1.0,0.0,4.0,4.0,331.6470589925302,4.0,1.0,phase_1,,,,,,,,,,,,,gray,cross
0.0,7.0,0.0,1.0,3.0,3.0,360.9404820017516,4.0,1.0,phase_1,,,,,,,,,,,,,blue,circle
318.0,2.0,2.0,0.0,2.0,2.0,357.5072050007293,4.0,1.0,phase_1,,,,,,,,,,,,,green,hexagon
141.0,1.0,1.0,0.0,2.0,2.0,319.8250999994343,4.0,1.0,phase_1,,,,,,,,,,,,,gray,cross
0.0,3.0,0.0,0.0,4.0,4.0,321.0290830029407,4.0,1.0,phase_1,,,,,,,,,,,,,cyan,flipped triangle
0.0,6.0,2.0,1.0,5.0,0.0,0.0,1.0,1.0,phase_2,stop,250.0,250.0,4.0,,,,,,,,,white,I
0.0,8.0,4.0,1.0,5.0,5.0,343.0924849963048,1.0,1.0,phase_2,stop,300.0,250.0,3.0,,,,,,,,,magenta,triangle
0.0,8.0,4.0,1.0,5.0,5.0,385.1437919947784,1.0,1.0,phase_2,go,250.0,250.0,1.0,,,,,,,,,magenta,triangle
0.0,1.0,1.0,0.0,6.0,6.0,434.6541190025164,1.0,1.0,phase_2,go,250.0,250.0,1.0,,,,,,,,,gray,cross
0.0,4.0,4.0,0.0,5.0,5.0,502.61915900046006,1.0,1.0,phase_2,go,250.0,250.0,1.0,,,,,,,,,yellow,square
0.0,7.0,3.0,1.0,6.0,6.0,373.2811469963053,1.0,1.0,phase_2,go,250.0,250.0,1.0,,,,,,,,,blue,circle
0.0,7.0,3.0,1.0,6.0,6.0,381.7749400041066,1.0,1.0,phase_2,stop,250.0,250.0,3.0,,,,,,,,,blue,circle
0.0,3.0,3.0,0.0,6.0,5.0,222.450672998093,1.0,1.0,phase_2,go,250.0,200.0,2.0,,,,,,,,,cyan,flipped triangle
0.0,7.0,3.0,1.0,5.0,5.0,399.4235470017884,1.0,1.0,phase_2,stop,250.0,200.0,3.0,,,,,,,,,blue,circle
0.0,1.0,1.0,0.0,5.0,5.0,454.3856970121851,1.0,1.0,phase_2,go,200.0,200.0,1.0,,,,,,,,,gray,cross
0.0,6.0,2.0,1.0,5.0,0.0,0.0,1.0,1.0,phase_2,stop,200.0,200.0,4.0,,,,,,,,,white,I
0.0,6.0,2.0,1.0,5.0,0.0,0.0,1.0,1.0,phase_2,stop,250.0,200.0,4.0,,,,,,,,,white,I
0.0,1.0,1.0,0.0,5.0,5.0,524.5960900065256,1.0,1.0,phase_2,go,300.0,200.0,1.0,,,,,,,,,gray,cross
0.0,5.0,1.0,1.0,6.0,0.0,0.0,1.0,1.0,phase_2,stop,300.0,200.0,4.0,,,,,,,,,orange,diamond
0.0,6.0,2.0,1.0,6.0,0.0,0.0,1.0,1.0,phase_2,stop,300.0,250.0,4.0,,,,,,,,,white,I
0.0,2.0,2.0,0.0,5.0,5.0,465.8322750037769,1.0,1.0,phase_2,go,300.0,300.0,1.0,,,,,,,,,green,hexagon
0.0,3.0,3.0,0.0,5.0,5.0,655.8426870033145,1.0,1.0,phase_2,go,300.0,300.0,1.0,,,,,,,,,cyan,flipped triangle
0.0,7.0,3.0,1.0,6.0,0.0,0.0,1.0,1.0,phase_2,stop,300.0,300.0,4.0,,,,,,,,,blue,circle
0.0,7.0,3.0,1.0,6.0,6.0,687.6134310005,1.0,1.0,phase_2,go,300.0,350.0,1.0,,,,,,,,,blue,circle
0.0,5.0,1.0,1.0,5.0,0.0,0.0,1.0,1.0,phase_2,stop,300.0,350.0,4.0,,,,,,,,,orange,diamond
0.0,5.0,1.0,1.0,5.0,0.0,0.0,1.0,1.0,phase_2,stop,350.0,350.0,4.0,,,,,,,,,orange,diamond
0.0,2.0,2.0,0.0,5.0,5.0,363.7626799900317,1.0,1.0,phase_2,go,400.0,350.0,1.0,,,,,,,,,green,hexagon
0.0,1.0,1.0,0.0,6.0,6.0,693.7998529901961,1.0,1.0,phase_2,go,400.0,350.0,1.0,,,,,,,,,gray,cross
0.0,5.0,1.0,1.0,6.0,6.0,715.9035730001051,1.0,1.0,phase_2,go,400.0,350.0,1.0,,,,,,,,,orange,diamond
0.0,7.0,3.0,1.0,5.0,5.0,657.8652099997271,1.0,1.0,phase_2,go,400.0,350.0,1.0,,,,,,,,,blue,circle
0.0,1.0,1.0,0.0,5.0,5.0,473.7039030005689,1.0,1.0,phase_2,go,400.0,350.0,1.0,,,,,,,,,gray,cross
0.0,8.0,4.0,1.0,6.0,6.0,561.1296339920955,1.0,1.0,phase_2,go,400.0,350.0,1.0,,,,,,,,,magenta,triangle
0.0,7.0,3.0,1.0,6.0,0.0,0.0,1.0,1.0,phase_2,stop,400.0,350.0,4.0,,,,,,,,,blue,circle
0.0,6.0,2.0,1.0,6.0,0.0,0.0,1.0,1.0,phase_2,stop,400.0,400.0,4.0,,,,,,,,,white,I
0.0,3.0,3.0,0.0,6.0,6.0,393.7609490094473,1.0,1.0,phase_2,go,400.0,450.0,1.0,,,,,,,,,cyan,flipped triangle
0.0,2.0,2.0,0.0,6.0,6.0,463.0245800071861,1.0,1.0,phase_2,go,400.0,450.0,1.0,,,,,,,,,green,hexagon
0.0,8.0,4.0,1.0,5.0,5.0,505.9539549984038,1.0,1.0,phase_2,stop,400.0,450.0,3.0,,,,,,,,,magenta,triangle
0.0,4.0,4.0,0.0,5.0,5.0,637.6325829915004,1.0,1.0,phase_2,go,350.0,450.0,1.0,,,,,,,,,yellow,square
0.0,8.0,4.0,1.0,5.0,0.0,0.0,1.0,1.0,phase_2,stop,350.0,450.0,4.0,,,,,,,,,magenta,triangle
0.0,8.0,4.0,1.0,6.0,0.0,0.0,1.0,1.0,phase_2,stop,400.0,450.0,4.0,,,,,,,,,magenta,triangle
0.0,1.0,1.0,0.0,6.0,6.0,657.169072990655,1.0,1.0,phase_2,go,400.0,500.0,1.0,,,,,,,,,gray,cross
0.0,7.0,3.0,1.0,5.0,5.0,518.3535810065223,2.0,1.0,phase_2,stop,400.0,500.0,3.0,,,,,,,,,blue,circle
0.0,5.0,1.0,1.0,5.0,0.0,0.0,2.0,1.0,phase_2,stop,350.0,500.0,4.0,,,,,,,,,orange,diamond
0.0,7.0,3.0,1.0,5.0,0.0,0.0,2.0,1.0,phase_2,stop,400.0,500.0,4.0,,,,,,,,,blue,circle
0.0,3.0,3.0,0.0,5.0,5.0,629.4700500002364,2.0,1.0,phase_2,go,450.0,500.0,1.0,,,,,,,,,cyan,flipped triangle
0.0,6.0,2.0,1.0,5.0,0.0,0.0,2.0,1.0,phase_2,stop,450.0,500.0,4.0,,,,,,,,,white,I
0.0,3.0,3.0,0.0,6.0,6.0,625.9049369982677,2.0,1.0,phase_2,go,500.0,500.0,1.0,,,,,,,,,cyan,flipped triangle
0.0,3.0,3.0,0.0,5.0,5.0,588.6661810072837,2.0,1.0,phase_2,go,500.0,500.0,1.0,,,,,,,,,cyan,flipped triangle
0.0,5.0,1.0,1.0,6.0,6.0,548.9536719978787,2.0,1.0,phase_2,stop,500.0,500.0,3.0,,,,,,,,,orange,diamond
0.0,5.0,1.0,1.0,5.0,5.0,925.6545139942318,2.0,1.0,phase_2,go,500.0,450.0,1.0,,,,,,,,,orange,diamond
0.0,5.0,1.0,1.0,6.0,6.0,605.5144389974885,2.0,1.0,phase_2,go,500.0,450.0,1.0,,,,,,,,,orange,diamond
0.0,3.0,3.0,0.0,6.0,6.0,423.9288559911074,2.0,1.0,phase_2,go,500.0,450.0,1.0,,,,,,,,,cyan,flipped triangle
0.0,2.0,2.0,0.0,6.0,6.0,313.0932979984209,2.0,1.0,phase_2,go,500.0,450.0,1.0,,,,,,,,,green,hexagon
0.0,4.0,4.0,0.0,6.0,6.0,465.5736599961528,2.0,1.0,phase_2,go,500.0,450.0,1.0,,,,,,,,,yellow,square
0.0,8.0,4.0,1.0,6.0,6.0,515.0200259959092,2.0,1.0,phase_2,go,500.0,450.0,1.0,,,,,,,,,magenta,triangle
0.0,8.0,4.0,1.0,6.0,6.0,625.764568001614,2.0,1.0,phase_2,go,500.0,450.0,1.0,,,,,,,,,magenta,triangle
0.0,3.0,3.0,0.0,6.0,6.0,303.0416669935221,2.0,1.0,phase_2,go,500.0,450.0,1.0,,,,,,,,,cyan,flipped triangle
0.0,6.0,2.0,1.0,5.0,5.0,565.567486002692,2.0,1.0,phase_2,stop,500.0,450.0,3.0,,,,,,,,,white,I
0.0,7.0,3.0,1.0,6.0,6.0,394.4526319974102,2.0,1.0,phase_2,go,450.0,450.0,1.0,,,,,,,,,blue,circle
0.0,6.0,2.0,1.0,5.0,5.0,604.651397006819,2.0,1.0,phase_2,go,450.0,450.0,1.0,,,,,,,,,white,I
0.0,2.0,2.0,0.0,5.0,5.0,544.2362469912041,2.0,1.0,phase_2,go,450.0,450.0,1.0,,,,,,,,,green,hexagon
0.0,2.0,2.0,0.0,6.0,6.0,292.6539769978262,2.0,1.0,phase_2,go,450.0,450.0,1.0,,,,,,,,,green,hexagon
0.0,4.0,4.0,0.0,6.0,6.0,401.5124010038562,2.0,1.0,phase_2,go,450.0,450.0,1.0,,,,,,,,,yellow,square
0.0,7.0,3.0,1.0,5.0,5.0,485.5099459964549,2.0,1.0,phase_2,stop,450.0,450.0,3.0,,,,,,,,,blue,circle
0.0,6.0,2.0,1.0,5.0,5.0,544.3003770051291,2.0,1.0,phase_2,go,400.0,450.0,1.0,,,,,,,,,white,I
0.0,5.0,1.0,1.0,5.0,5.0,607.4820710055064,2.0,1.0,phase_2,stop,400.0,450.0,3.0,,,,,,,,,orange,diamond
0.0,1.0,1.0,0.0,5.0,5.0,493.6956140008988,2.0,1.0,phase_2,go,350.0,450.0,1.0,,,,,,,,,gray,cross
0.0,1.0,1.0,0.0,5.0,5.0,807.1655009989627,2.0,1.0,phase_2,go,350.0,450.0,1.0,,,,,,,,,gray,cross
0.0,1.0,1.0,0.0,5.0,5.0,825.910333005595,2.0,1.0,phase_2,go,350.0,450.0,1.0,,,,,,,,,gray,cross
0.0,2.0,2.0,0.0,5.0,5.0,576.9349140027771,2.0,1.0,phase_2,go,350.0,450.0,1.0,,,,,,,,,green,hexagon
0.0,5.0,1.0,1.0,6.0,0.0,0.0,2.0,1.0,phase_2,stop,350.0,450.0,4.0,,,,,,,,,orange,diamond
0.0,1.0,1.0,0.0,5.0,5.0,463.8450230122544,2.0,1.0,phase_2,go,350.0,500.0,1.0,,,,,,,,,gray,cross
0.0,2.0,2.0,0.0,6.0,6.0,598.2247409992851,2.0,1.0,phase_2,go,350.0,500.0,1.0,,,,,,,,,green,hexagon
0.0,5.0,1.0,1.0,5.0,0.0,0.0,2.0,1.0,phase_2,stop,350.0,500.0,4.0,,,,,,,,,orange,diamond
0.0,5.0,1.0,1.0,5.0,5.0,344.9240780028049,2.0,1.0,phase_2,stop,400.0,500.0,3.0,,,,,,,,,orange,diamond
0.0,3.0,3.0,0.0,5.0,5.0,485.0995169981615,2.0,1.0,phase_2,go,350.0,500.0,1.0,,,,,,,,,cyan,flipped triangle
0.0,3.0,3.0,0.0,5.0,5.0,744.6778349985834,2.0,1.0,phase_2,go,350.0,500.0,1.0,,,,,,,,,cyan,flipped triangle
0.0,3.0,3.0,0.0,6.0,6.0,494.5643060054863,3.0,1.0,phase_2,go,350.0,500.0,1.0,,,,,,,,,cyan,flipped triangle
0.0,8.0,4.0,1.0,6.0,6.0,546.5271459979704,3.0,1.0,phase_2,stop,350.0,500.0,3.0,,,,,,,,,magenta,triangle
0.0,5.0,1.0,1.0,6.0,6.0,413.2919539988506,3.0,1.0,phase_2,stop,350.0,450.0,3.0,,,,,,,,,orange,diamond
0.0,5.0,1.0,1.0,6.0,6.0,482.5250860012602,3.0,1.0,phase_2,go,350.0,400.0,1.0,,,,,,,,,orange,diamond
0.0,7.0,3.0,1.0,5.0,5.0,620.9500589902746,3.0,1.0,phase_2,go,350.0,400.0,1.0,,,,,,,,,blue,circle
0.0,6.0,2.0,1.0,6.0,6.0,393.9784840040374,3.0,1.0,phase_2,go,350.0,400.0,1.0,,,,,,,,,white,I
0.0,6.0,2.0,1.0,6.0,6.0,384.251748007955,3.0,1.0,phase_2,stop,350.0,400.0,3.0,,,,,,,,,white,I
0.0,3.0,3.0,0.0,6.0,6.0,354.7866209992207,3.0,1.0,phase_2,go,350.0,350.0,1.0,,,,,,,,,cyan,flipped triangle
0.0,8.0,4.0,1.0,5.0,0.0,0.0,3.0,1.0,phase_2,stop,350.0,350.0,4.0,,,,,,,,,magenta,triangle
0.0,2.0,2.0,0.0,5.0,5.0,704.764644993702,3.0,1.0,phase_2,go,400.0,350.0,1.0,,,,,,,,,green,hexagon
0.0,2.0,2.0,0.0,6.0,6.0,591.949341003783,3.0,1.0,phase_2,go,400.0,350.0,1.0,,,,,,,,,green,hexagon
0.0,2.0,2.0,0.0,5.0,5.0,542.9428640054539,3.0,1.0,phase_2,go,400.0,350.0,1.0,,,,,,,,,green,hexagon
0.0,8.0,4.0,1.0,6.0,0.0,0.0,3.0,1.0,phase_2,stop,400.0,350.0,4.0,,,,,,,,,magenta,triangle
0.0,1.0,1.0,0.0,6.0,6.0,591.0744090069784,3.0,1.0,phase_2,go,400.0,400.0,1.0,,,,,,,,,gray,cross
0.0,3.0,3.0,0.0,6.0,6.0,653.2393150118878,3.0,1.0,phase_2,go,400.0,400.0,1.0,,,,,,,,,cyan,flipped triangle
0.0,4.0,4.0,0.0,6.0,6.0,453.6495619977359,3.0,1.0,phase_2,go,400.0,400.0,1.0,,,,,,,,,yellow,square
0.0,7.0,3.0,1.0,6.0,0.0,0.0,3.0,1.0,phase_2,stop,400.0,400.0,4.0,,,,,,,,,blue,circle
0.0,7.0,3.0,1.0,6.0,0.0,0.0,3.0,1.0,phase_2,stop,400.0,450.0,4.0,,,,,,,,,blue,circle
0.0,5.0,1.0,1.0,6.0,6.0,686.299205000978,3.0,1.0,phase_2,go,400.0,500.0,1.0,,,,,,,,,orange,diamond
0.0,2.0,2.0,0.0,5.0,5.0,794.5296270045219,3.0,1.0,phase_2,go,400.0,500.0,1.0,,,,,,,,,green,hexagon
0.0,1.0,1.0,0.0,5.0,5.0,712.9195890011033,3.0,1.0,phase_2,go,400.0,500.0,1.0,,,,,,,,,gray,cross
0.0,1.0,1.0,0.0,5.0,5.0,723.3343880070606,3.0,1.0,phase_2,go,400.0,500.0,1.0,,,,,,,,,gray,cross
0.0,8.0,4.0,1.0,5.0,0.0,0.0,3.0,1.0,phase_2,stop,400.0,500.0,4.0,,,,,,,,,magenta,triangle
0.0,3.0,3.0,0.0,5.0,5.0,683.7384139944334,3.0,1.0,phase_2,go,450.0,500.0,1.0,,,,,,,,,cyan,flipped triangle
0.0,7.0,3.0,1.0,5.0,5.0,499.7942930058343,3.0,1.0,phase_2,stop,450.0,500.0,3.0,,,,,,,,,blue,circle
0.0,7.0,3.0,1.0,6.0,0.0,0.0,3.0,1.0,phase_2,stop,400.0,500.0,4.0,,,,,,,,,blue,circle
0.0,3.0,3.0,0.0,6.0,6.0,705.3647299908334,3.0,1.0,phase_2,go,400.0,550.0,1.0,,,,,,,,,cyan,flipped triangle
0.0,4.0,4.0,0.0,5.0,5.0,595.8646000071894,3.0,1.0,phase_2,go,400.0,550.0,1.0,,,,,,,,,yellow,square
0.0,8.0,4.0,1.0,6.0,0.0,0.0,3.0,1.0,phase_2,stop,400.0,550.0,4.0,,,,,,,,,magenta,triangle
0.0,2.0,2.0,0.0,6.0,6.0,764.7532529954333,3.0,1.0,phase_2,go,400.0,600.0,1.0,,,,,,,,,green,hexagon
0.0,4.0,4.0,0.0,5.0,5.0,610.9733110060915,3.0,1.0,phase_2,go,400.0,600.0,1.0,,,,,,,,,yellow,square
0.0,2.0,2.0,0.0,5.0,5.0,543.2809509948129,3.0,1.0,phase_2,go,400.0,600.0,1.0,,,,,,,,,green,hexagon
0.0,5.0,1.0,1.0,5.0,5.0,528.2947530067759,3.0,1.0,phase_2,stop,400.0,600.0,3.0,,,,,,,,,orange,diamond
0.0,4.0,4.0,0.0,6.0,6.0,632.7066130033927,3.0,1.0,phase_2,go,350.0,600.0,1.0,,,,,,,,,yellow,square
0.0,6.0,2.0,1.0,5.0,5.0,630.926964993705,3.0,1.0,phase_2,go,350.0,600.0,1.0,,,,,,,,,white,I
0.0,1.0,1.0,0.0,6.0,6.0,653.3509459986817,3.0,1.0,phase_2,go,350.0,600.0,1.0,,,,,,,,,gray,cross
0.0,4.0,4.0,0.0,6.0,6.0,424.7526459948858,4.0,1.0,phase_2,go,350.0,600.0,1.0,,,,,,,,,yellow,square
0.0,2.0,2.0,0.0,5.0,5.0,436.644436995266,4.0,1.0,phase_2,go,350.0,600.0,1.0,,,,,,,,,green,hexagon
0.0,2.0,2.0,0.0,5.0,5.0,606.6817040118622,4.0,1.0,phase_2,go,350.0,600.0,1.0,,,,,,,,,green,hexagon
0.0,7.0,3.0,1.0,5.0,0.0,0.0,4.0,1.0,phase_2,stop,350.0,600.0,4.0,,,,,,,,,blue,circle
0.0,7.0,3.0,1.0,6.0,6.0,524.759352003457,4.0,1.0,phase_2,stop,400.0,600.0,3.0,,,,,,,,,blue,circle
0.0,4.0,4.0,0.0,6.0,6.0,648.0040039896267,4.0,1.0,phase_2,go,400.0,550.0,1.0,,,,,,,,,yellow,square
0.0,1.0,1.0,0.0,6.0,6.0,716.776265995577,4.0,1.0,phase_2,go,400.0,550.0,1.0,,,,,,,,,gray,cross
0.0,3.0,3.0,0.0,6.0,6.0,790.5443310010014,4.0,1.0,phase_2,go,400.0,550.0,1.0,,,,,,,,,cyan,flipped triangle
0.0,5.0,1.0,1.0,5.0,0.0,0.0,4.0,1.0,phase_2,stop,400.0,550.0,4.0,,,,,,,,,orange,diamond
0.0,3.0,3.0,0.0,6.0,6.0,757.4134859896731,4.0,1.0,phase_2,go,450.0,550.0,1.0,,,,,,,,,cyan,flipped triangle
0.0,4.0,4.0,0.0,6.0,6.0,788.0116930027725,4.0,1.0,phase_2,go,450.0,550.0,1.0,,,,,,,,,yellow,square
0.0,6.0,2.0,1.0,5.0,0.0,0.0,4.0,1.0,phase_2,stop,450.0,550.0,4.0,,,,,,,,,white,I
0.0,3.0,3.0,0.0,6.0,6.0,746.8698819866404,4.0,1.0,phase_2,go,500.0,550.0,1.0,,,,,,,,,cyan,flipped triangle
0.0,7.0,3.0,1.0,5.0,0.0,0.0,4.0,1.0,phase_2,stop,500.0,550.0,4.0,,,,,,,,,blue,circle
0.0,3.0,3.0,0.0,6.0,6.0,677.5868559925584,4.0,1.0,phase_2,go,550.0,550.0,1.0,,,,,,,,,cyan,flipped triangle
0.0,6.0,2.0,1.0,5.0,5.0,589.6429880085634,4.0,1.0,phase_2,stop,550.0,550.0,3.0,,,,,,,,,white,I
0.0,8.0,4.0,1.0,6.0,6.0,736.755557009019,4.0,1.0,phase_2,go,500.0,550.0,1.0,,,,,,,,,magenta,triangle
0.0,6.0,2.0,1.0,6.0,6.0,628.523317995132,4.0,1.0,phase_2,stop,500.0,550.0,3.0,,,,,,,,,white,I
0.0,5.0,1.0,1.0,6.0,6.0,667.4381220072974,4.0,1.0,phase_2,stop,500.0,500.0,3.0,,,,,,,,,orange,diamond
0.0,3.0,3.0,0.0,5.0,5.0,834.0712279896252,4.0,1.0,phase_2,go,500.0,450.0,1.0,,,,,,,,,cyan,flipped triangle
0.0,1.0,1.0,0.0,5.0,5.0,825.3358240035595,4.0,1.0,phase_2,go,500.0,450.0,1.0,,,,,,,,,gray,cross
0.0,2.0,2.0,0.0,5.0,5.0,983.172617998207,4.0,1.0,phase_2,go,500.0,450.0,1.0,,,,,,,,,green,hexagon
0.0,6.0,2.0,1.0,6.0,0.0,0.0,4.0,1.0,phase_2,stop,500.0,450.0,4.0,,,,,,,,,white,I
0.0,8.0,4.0,1.0,5.0,0.0,0.0,4.0,1.0,phase_2,stop,500.0,500.0,4.0,,,,,,,,,magenta,triangle
0.0,6.0,2.0,1.0,6.0,0.0,0.0,4.0,1.0,phase_2,stop,550.0,500.0,4.0,,,,,,,,,white,I
0.0,4.0,4.0,0.0,6.0,6.0,764.4330530019943,4.0,1.0,phase_2,go,550.0,550.0,1.0,,,,,,,,,yellow,square
0.0,5.0,1.0,1.0,5.0,0.0,0.0,4.0,1.0,phase_2,stop,550.0,550.0,4.0,,,,,,,,,orange,diamond
0.0,1.0,1.0,0.0,6.0,6.0,724.1994899959536,4.0,1.0,phase_2,go,600.0,550.0,1.0,,,,,,,,,gray,cross
0.0,1.0,1.0,0.0,5.0,5.0,883.0443710030522,4.0,1.0,phase_2,go,600.0,550.0,1.0,,,,,,,,,gray,cross
0.0,1.0,1.0,0.0,5.0,5.0,822.8431780007668,4.0,1.0,phase_2,go,600.0,550.0,1.0,,,,,,,,,gray,cross
0.0,8.0,4.0,1.0,6.0,6.0,709.056887004408,4.0,1.0,phase_2,stop,600.0,550.0,3.0,,,,,,,,,magenta,triangle
0.0,8.0,4.0,1.0,5.0,5.0,785.2103810000699,4.0,1.0,phase_2,go,600.0,500.0,1.0,,,,,,,,,magenta,triangle
0.0,7.0,3.0,1.0,6.0,0.0,0.0,4.0,1.0,phase_2,stop,600.0,500.0,4.0,,,,,,,,,blue,circle
0.0,2.0,2.0,0.0,6.0,6.0,973.0396730010398,4.0,1.0,phase_2,go,600.0,550.0,1.0,,,,,,,,,green,hexagon
0.0,4.0,4.0,0.0,6.0,6.0,847.6021389942616,4.0,1.0,phase_2,go,600.0,550.0,1.0,,,,,,,,,yellow,square
0.0,5.0,1.0,1.0,6.0,6.0,711.1002849997021,4.0,1.0,phase_2,stop,600.0,550.0,3.0,,,,,,,,,orange,diamond
0.0,1.0,1.0,0.0,6.0,6.0,353.1024050025735,5.0,1.0,phase_2,go,600.0,500.0,1.0,,,,,,,,,gray,cross
0.0,3.0,3.0,0.0,5.0,5.0,313.5267119942,5.0,1.0,phase_2,go,600.0,500.0,1.0,,,,,,,,,cyan,flipped triangle
0.0,8.0,4.0,1.0,6.0,6.0,262.4652300000889,5.0,1.0,phase_2,stop,600.0,500.0,3.0,,,,,,,,,magenta,triangle
0.0,1.0,1.0,0.0,5.0,5.0,251.918438996654,5.0,1.0,phase_2,go,600.0,450.0,1.0,,,,,,,,,gray,cross
0.0,4.0,4.0,0.0,5.0,6.0,282.7531299990369,5.0,1.0,phase_2,go,600.0,450.0,2.0,,,,,,,,,yellow,square
0.0,6.0,2.0,1.0,5.0,5.0,394.8095359955914,5.0,1.0,phase_2,go,600.0,450.0,1.0,,,,,,,,,white,I
0.0,6.0,2.0,1.0,6.0,6.0,292.4560319952434,5.0,1.0,phase_2,go,600.0,450.0,1.0,,,,,,,,,white,I
0.0,3.0,3.0,0.0,5.0,5.0,273.7194470100803,5.0,1.0,phase_2,go,600.0,450.0,1.0,,,,,,,,,cyan,flipped triangle
0.0,4.0,4.0,0.0,6.0,6.0,312.5324080028804,5.0,1.0,phase_2,go,600.0,450.0,1.0,,,,,,,,,yellow,square
0.0,7.0,3.0,1.0,5.0,5.0,343.6388539994368,5.0,1.0,phase_2,stop,600.0,450.0,3.0,,,,,,,,,blue,circle
0.0,5.0,1.0,1.0,6.0,6.0,272.2139520046767,5.0,1.0,phase_2,stop,550.0,450.0,3.0,,,,,,,,,orange,diamond
0.0,4.0,4.0,0.0,6.0,6.0,402.783833007561,5.0,1.0,phase_2,go,550.0,400.0,1.0,,,,,,,,,yellow,square
0.0,1.0,1.0,0.0,5.0,5.0,364.1645979951136,5.0,1.0,phase_2,go,550.0,400.0,1.0,,,,,,,,,gray,cross
0.0,3.0,3.0,0.0,5.0,5.0,353.8582409964874,5.0,1.0,phase_2,go,550.0,400.0,1.0,,,,,,,,,cyan,flipped triangle
0.0,5.0,1.0,1.0,5.0,5.0,302.6888620079262,5.0,1.0,phase_2,stop,550.0,400.0,3.0,,,,,,,,,orange,diamond
0.0,5.0,1.0,1.0,5.0,5.0,646.3419900101144,5.0,1.0,phase_2,stop,500.0,400.0,3.0,,,,,,,,,orange,diamond
0.0,4.0,4.0,0.0,5.0,5.0,331.1729499982903,5.0,1.0,phase_2,go,450.0,400.0,1.0,,,,,,,,,yellow,square
0.0,2.0,2.0,0.0,6.0,6.0,260.9916770015843,5.0,1.0,phase_2,go,450.0,400.0,1.0,,,,,,,,,green,hexagon
0.0,2.0,2.0,0.0,6.0,6.0,596.0466219985392,5.0,1.0,phase_2,go,450.0,400.0,1.0,,,,,,,,,green,hexagon
0.0,6.0,2.0,1.0,5.0,5.0,273.1904960091924,5.0,1.0,phase_2,stop,450.0,400.0,3.0,,,,,,,,,white,I
0.0,7.0,3.0,1.0,6.0,6.0,212.2357850021217,5.0,1.0,phase_2,go,400.0,400.0,1.0,,,,,,,,,blue,circle
0.0,3.0,3.0,0.0,6.0,6.0,293.4190039959503,5.0,1.0,phase_2,go,400.0,400.0,1.0,,,,,,,,,cyan,flipped triangle
0.0,6.0,2.0,1.0,6.0,6.0,344.2065980052575,5.0,1.0,phase_2,go,400.0,400.0,1.0,,,,,,,,,white,I
0.0,4.0,4.0,0.0,6.0,6.0,723.8140389963519,5.0,1.0,phase_2,go,400.0,400.0,1.0,,,,,,,,,yellow,square
0.0,6.0,2.0,1.0,6.0,6.0,323.7112369970418,5.0,1.0,phase_2,stop,400.0,400.0,3.0,,,,,,,,,white,I
0.0,8.0,4.0,1.0,5.0,5.0,302.4422080052318,5.0,1.0,phase_2,stop,400.0,350.0,3.0,,,,,,,,,magenta,triangle
0.0,2.0,2.0,0.0,6.0,6.0,412.2480799996992,5.0,1.0,phase_2,go,350.0,350.0,1.0,,,,,,,,,green,hexagon
0.0,1.0,1.0,0.0,6.0,6.0,442.6857229991583,5.0,1.0,phase_2,go,350.0,350.0,1.0,,,,,,,,,gray,cross
0.0,8.0,4.0,1.0,6.0,6.0,545.5434250034159,5.0,1.0,phase_2,stop,350.0,350.0,3.0,,,,,,,,,magenta,triangle
0.0,2.0,2.0,0.0,5.0,5.0,383.8390769960824,5.0,1.0,phase_2,go,350.0,300.0,1.0,,,,,,,,,green,hexagon
0.0,7.0,3.0,1.0,5.0,5.0,391.307390993461,5.0,1.0,phase_2,stop,350.0,300.0,3.0,,,,,,,,,blue,circle
0.0,7.0,3.0,1.0,6.0,0.0,0.0,5.0,1.0,phase_2,stop,300.0,300.0,4.0,,,,,,,,,blue,circle
0.0,4.0,4.0,0.0,5.0,5.0,292.2219809988746,5.0,1.0,phase_2,go,300.0,350.0,1.0,,,,,,,,,yellow,square
0.0,3.0,3.0,0.0,5.0,5.0,453.071081006783,5.0,1.0,phase_2,go,300.0,350.0,1.0,,,,,,,,,cyan,flipped triangle
0.0,3.0,3.0,0.0,5.0,5.0,482.2287380084162,5.0,1.0,phase_2,go,300.0,350.0,1.0,,,,,,,,,cyan,flipped triangle
0.0,4.0,4.0,0.0,5.0,5.0,643.8571280014003,5.0,1.0,phase_2,go,300.0,350.0,1.0,,,,,,,,,yellow,square
0.0,7.0,3.0,1.0,5.0,5.0,342.5563410128234,6.0,1.0,phase_2,stop,300.0,350.0,3.0,,,,,,,,,blue,circle
0.0,6.0,2.0,1.0,5.0,0.0,0.0,6.0,1.0,phase_2,stop,250.0,350.0,4.0,,,,,,,,,white,I
0.0,1.0,1.0,0.0,6.0,6.0,585.7326349942014,6.0,1.0,phase_2,go,300.0,350.0,1.0,,,,,,,,,gray,cross
0.0,3.0,3.0,0.0,5.0,5.0,566.3914169999771,6.0,1.0,phase_2,go,300.0,350.0,1.0,,,,,,,,,cyan,flipped triangle
0.0,7.0,3.0,1.0,6.0,6.0,463.3270719932625,6.0,1.0,phase_2,go,300.0,350.0,1.0,,,,,,,,,blue,circle
0.0,4.0,4.0,0.0,5.0,5.0,283.4676630009198,6.0,1.0,phase_2,go,300.0,350.0,1.0,,,,,,,,,yellow,square
0.0,5.0,1.0,1.0,6.0,6.0,384.6657260000938,6.0,1.0,phase_2,go,300.0,350.0,1.0,,,,,,,,,orange,diamond
0.0,8.0,4.0,1.0,5.0,5.0,468.3336580055766,6.0,1.0,phase_2,stop,300.0,350.0,3.0,,,,,,,,,magenta,triangle
0.0,8.0,4.0,1.0,6.0,6.0,457.0394239999586,6.0,1.0,phase_2,stop,250.0,350.0,3.0,,,,,,,,,magenta,triangle
0.0,1.0,1.0,0.0,6.0,6.0,431.1751109926263,6.0,1.0,phase_2,go,250.0,300.0,1.0,,,,,,,,,gray,cross
0.0,4.0,4.0,0.0,5.0,5.0,421.1142559943255,6.0,1.0,phase_2,go,250.0,300.0,1.0,,,,,,,,,yellow,square
0.0,5.0,1.0,1.0,6.0,0.0,0.0,6.0,1.0,phase_2,stop,250.0,300.0,4.0,,,,,,,,,orange,diamond
0.0,5.0,1.0,1.0,6.0,6.0,660.9638869995251,6.0,1.0,phase_2,go,250.0,350.0,1.0,,,,,,,,,orange,diamond
0.0,1.0,1.0,0.0,6.0,6.0,732.9770200012717,6.0,1.0,phase_2,go,250.0,350.0,1.0,,,,,,,,,gray,cross
0.0,7.0,3.0,1.0,6.0,0.0,0.0,6.0,1.0,phase_2,stop,250.0,350.0,4.0,,,,,,,,,blue,circle
0.0,8.0,4.0,1.0,6.0,0.0,0.0,6.0,1.0,phase_2,stop,250.0,400.0,4.0,,,,,,,,,magenta,triangle
0.0,2.0,2.0,0.0,5.0,5.0,564.5879799994873,6.0,1.0,phase_2,go,250.0,450.0,1.0,,,,,,,,,green,hexagon
0.0,7.0,3.0,1.0,5.0,0.0,0.0,6.0,1.0,phase_2,stop,250.0,450.0,4.0,,,,,,,,,blue,circle
0.0,3.0,3.0,0.0,5.0,5.0,637.0804559992393,6.0,1.0,phase_2,go,300.0,450.0,1.0,,,,,,,,,cyan,flipped triangle
0.0,2.0,2.0,0.0,6.0,6.0,502.18033099372406,6.0,1.0,phase_2,go,300.0,450.0,1.0,,,,,,,,,green,hexagon
0.0,5.0,1.0,1.0,5.0,0.0,0.0,6.0,1.0,phase_2,stop,300.0,450.0,4.0,,,,,,,,,orange,diamond
0.0,3.0,3.0,0.0,5.0,5.0,671.4931780006737,6.0,1.0,phase_2,go,350.0,450.0,1.0,,,,,,,,,cyan,flipped triangle
0.0,8.0,4.0,1.0,6.0,6.0,547.1326109982328,6.0,1.0,phase_2,stop,350.0,450.0,3.0,,,,,,,,,magenta,triangle
0.0,4.0,4.0,0.0,6.0,6.0,742.6073319948046,6.0,1.0,phase_2,go,350.0,400.0,1.0,,,,,,,,,yellow,square
0.0,2.0,2.0,0.0,6.0,6.0,374.0546369954245,6.0,1.0,phase_2,go,350.0,400.0,1.0,,,,,,,,,green,hexagon
0.0,6.0,2.0,1.0,6.0,0.0,0.0,6.0,1.0,phase_2,stop,350.0,400.0,4.0,,,,,,,,,white,I
0.0,6.0,2.0,1.0,6.0,6.0,603.5347600118257,6.0,1.0,phase_2,stop,350.0,450.0,3.0,,,,,,,,,white,I
0.0,8.0,4.0,1.0,5.0,5.0,651.1966679972829,6.0,1.0,phase_2,go,350.0,400.0,1.0,,,,,,,,,magenta,triangle
0.0,6.0,2.0,1.0,5.0,5.0,591.1324439948658,6.0,1.0,phase_2,go,350.0,400.0,1.0,,,,,,,,,white,I
0.0,6.0,2.0,1.0,6.0,0.0,0.0,6.0,1.0,phase_2,stop,350.0,400.0,4.0,,,,,,,,,white,I
0.0,4.0,4.0,0.0,5.0,5.0,652.1968689921778,6.0,1.0,phase_2,go,350.0,450.0,1.0,,,,,,,,,yellow,square
0.0,2.0,2.0,0.0,6.0,6.0,572.0910929958336,6.0,1.0,phase_2,go,350.0,450.0,1.0,,,,,,,,,green,hexagon
0.0,4.0,4.0,0.0,6.0,6.0,602.7240989933489,6.0,1.0,phase_2,go,350.0,450.0,1.0,,,,,,,,,yellow,square
0.0,2.0,2.0,0.0,6.0,6.0,652.6943040080369,6.0,1.0,phase_2,go,350.0,450.0,1.0,,,,,,,,,green,hexagon
0.0,3.0,3.0,0.0,6.0,6.0,522.5449110002955,6.0,1.0,phase_2,go,350.0,450.0,1.0,,,,,,,,,cyan,flipped triangle
0.0,4.0,4.0,0.0,6.0,6.0,421.707230998436,6.0,1.0,phase_2,go,350.0,450.0,1.0,,,,,,,,,yellow,square
0.0,8.0,4.0,1.0,5.0,5.0,411.6708810033742,7.0,1.0,phase_2,stop,350.0,450.0,3.0,,,,,,,,,magenta,triangle
0.0,1.0,1.0,0.0,6.0,6.0,538.5696400044253,7.0,1.0,phase_2,go,300.0,450.0,1.0,,,,,,,,,gray,cross
0.0,7.0,3.0,1.0,5.0,5.0,433.263266007998,7.0,1.0,phase_2,stop,300.0,450.0,3.0,,,,,,,,,blue,circle
0.0,1.0,1.0,0.0,5.0,5.0,440.298769986839,7.0,1.0,phase_2,go,250.0,450.0,1.0,,,,,,,,,gray,cross
0.0,4.0,4.0,0.0,5.0,5.0,399.8681320081232,7.0,1.0,phase_2,go,250.0,450.0,1.0,,,,,,,,,yellow,square
0.0,1.0,1.0,0.0,6.0,6.0,622.2063210007036,7.0,1.0,phase_2,go,250.0,450.0,1.0,,,,,,,,,gray,cross
0.0,6.0,2.0,1.0,5.0,0.0,0.0,7.0,1.0,phase_2,stop,250.0,450.0,4.0,,,,,,,,,white,I
0.0,8.0,4.0,1.0,6.0,6.0,600.5287269945256,7.0,1.0,phase_2,go,300.0,450.0,1.0,,,,,,,,,magenta,triangle
0.0,2.0,2.0,0.0,5.0,5.0,633.4734760021092,7.0,1.0,phase_2,go,300.0,450.0,1.0,,,,,,,,,green,hexagon
0.0,3.0,3.0,0.0,5.0,5.0,455.2018039976246,7.0,1.0,phase_2,go,300.0,450.0,1.0,,,,,,,,,cyan,flipped triangle
0.0,7.0,3.0,1.0,5.0,5.0,556.288134001079,7.0,1.0,phase_2,go,300.0,450.0,1.0,,,,,,,,,blue,circle
0.0,4.0,4.0,0.0,5.0,5.0,523.2595770066837,7.0,1.0,phase_2,go,300.0,450.0,1.0,,,,,,,,,yellow,square
0.0,2.0,2.0,0.0,5.0,5.0,371.915978990728,7.0,1.0,phase_2,go,300.0,450.0,1.0,,,,,,,,,green,hexagon
0.0,2.0,2.0,0.0,5.0,5.0,341.7671630013501,7.0,1.0,phase_2,go,300.0,450.0,1.0,,,,,,,,,green,hexagon
0.0,8.0,4.0,1.0,5.0,0.0,0.0,7.0,1.0,phase_2,stop,300.0,450.0,4.0,,,,,,,,,magenta,triangle
0.0,4.0,4.0,0.0,6.0,6.0,571.7639399954351,7.0,1.0,phase_2,go,350.0,450.0,1.0,,,,,,,,,yellow,square
0.0,6.0,2.0,1.0,5.0,5.0,457.1377279935404,7.0,1.0,phase_2,stop,350.0,450.0,3.0,,,,,,,,,white,I
0.0,2.0,2.0,0.0,6.0,6.0,691.7770930012921,7.0,1.0,phase_2,go,300.0,450.0,1.0,,,,,,,,,green,hexagon
0.0,4.0,4.0,0.0,5.0,5.0,651.2795379967429,7.0,1.0,phase_2,go,300.0,450.0,1.0,,,,,,,,,yellow,square
0.0,5.0,1.0,1.0,6.0,6.0,529.1404750023503,7.0,1.0,phase_2,stop,300.0,450.0,3.0,,,,,,,,,orange,diamond
0.0,5.0,1.0,1.0,6.0,0.0,0.0,7.0,1.0,phase_2,stop,300.0,400.0,4.0,,,,,,,,,orange,diamond
0.0,8.0,4.0,1.0,5.0,0.0,0.0,7.0,1.0,phase_2,stop,300.0,450.0,4.0,,,,,,,,,magenta,triangle
0.0,2.0,2.0,0.0,6.0,6.0,372.0885189977707,7.0,1.0,phase_2,go,350.0,450.0,1.0,,,,,,,,,green,hexagon
0.0,5.0,1.0,1.0,6.0,6.0,595.8358890056843,7.0,1.0,phase_2,stop,350.0,450.0,3.0,,,,,,,,,orange,diamond
0.0,8.0,4.0,1.0,6.0,0.0,0.0,7.0,1.0,phase_2,stop,350.0,400.0,4.0,,,,,,,,,magenta,triangle
0.0,4.0,4.0,0.0,6.0,6.0,583.6295159970177,7.0,1.0,phase_2,go,350.0,450.0,1.0,,,,,,,,,yellow,square
0.0,4.0,4.0,0.0,6.0,6.0,681.9898490066407,7.0,1.0,phase_2,go,350.0,450.0,1.0,,,,,,,,,yellow,square
0.0,7.0,3.0,1.0,5.0,0.0,0.0,7.0,1.0,phase_2,stop,350.0,450.0,4.0,,,,,,,,,blue,circle
0.0,5.0,1.0,1.0,5.0,0.0,0.0,7.0,1.0,phase_2,stop,400.0,450.0,4.0,,,,,,,,,orange,diamond
0.0,5.0,1.0,1.0,5.0,5.0,771.3911449973239,7.0,1.0,phase_2,go,450.0,450.0,1.0,,,,,,,,,orange,diamond
0.0,5.0,1.0,1.0,5.0,0.0,0.0,7.0,1.0,phase_2,stop,450.0,450.0,4.0,,,,,,,,,orange,diamond
0.0,8.0,4.0,1.0,5.0,0.0,0.0,7.0,1.0,phase_2,stop,500.0,450.0,4.0,,,,,,,,,magenta,triangle
0.0,3.0,3.0,0.0,6.0,6.0,670.2459689986426,7.0,1.0,phase_2,go,550.0,450.0,1.0,,,,,,,,,cyan,flipped triangle
0.0,8.0,4.0,1.0,5.0,5.0,695.5019750021165,7.0,1.0,phase_2,stop,550.0,450.0,3.0,,,,,,,,,magenta,triangle
0.0,3.0,3.0,0.0,5.0,5.0,703.1923700124025,7.0,1.0,phase_2,go,500.0,450.0,1.0,,,,,,,,,cyan,flipped triangle
0.0,8.0,4.0,1.0,5.0,0.0,0.0,7.0,1.0,phase_2,stop,500.0,450.0,4.0,,,,,,,,,magenta,triangle
0.0,7.0,3.0,1.0,5.0,5.0,542.3321289999876,8.0,1.0,phase_2,stop,550.0,450.0,3.0,,,,,,,,,blue,circle
0.0,1.0,1.0,0.0,5.0,5.0,642.4915829993552,8.0,1.0,phase_2,go,500.0,450.0,1.0,,,,,,,,,gray,cross
0.0,1.0,1.0,0.0,6.0,6.0,662.9799789952813,8.0,1.0,phase_2,go,500.0,450.0,1.0,,,,,,,,,gray,cross
0.0,1.0,1.0,0.0,6.0,6.0,342.0594860072015,8.0,1.0,phase_2,go,500.0,450.0,1.0,,,,,,,,,gray,cross
0.0,7.0,3.0,1.0,5.0,5.0,618.7567460001446,8.0,1.0,phase_2,stop,500.0,450.0,3.0,,,,,,,,,blue,circle
0.0,3.0,3.0,0.0,5.0,5.0,482.5916130066616,8.0,1.0,phase_2,go,450.0,450.0,1.0,,,,,,,,,cyan,flipped triangle
0.0,3.0,3.0,0.0,6.0,6.0,630.6751030060695,8.0,1.0,phase_2,go,450.0,450.0,1.0,,,,,,,,,cyan,flipped triangle
0.0,2.0,2.0,0.0,5.0,5.0,551.3404779921984,8.0,1.0,phase_2,go,450.0,450.0,1.0,,,,,,,,,green,hexagon
0.0,5.0,1.0,1.0,6.0,6.0,272.9965089965844,8.0,1.0,phase_2,go,450.0,450.0,1.0,,,,,,,,,orange,diamond
0.0,5.0,1.0,1.0,5.0,5.0,539.4511349877575,8.0,1.0,phase_2,stop,450.0,450.0,3.0,,,,,,,,,orange,diamond
0.0,2.0,2.0,0.0,5.0,5.0,392.8271609911462,8.0,1.0,phase_2,go,400.0,450.0,1.0,,,,,,,,,green,hexagon
0.0,5.0,1.0,1.0,5.0,0.0,0.0,8.0,1.0,phase_2,stop,400.0,450.0,4.0,,,,,,,,,orange,diamond
0.0,6.0,2.0,1.0,6.0,6.0,489.2337260098429,8.0,1.0,phase_2,stop,450.0,450.0,3.0,,,,,,,,,white,I
0.0,1.0,1.0,0.0,6.0,6.0,735.8323310036212,8.0,1.0,phase_2,go,450.0,400.0,1.0,,,,,,,,,gray,cross
0.0,6.0,2.0,1.0,6.0,0.0,0.0,8.0,1.0,phase_2,stop,450.0,400.0,4.0,,,,,,,,,white,I
0.0,6.0,2.0,1.0,6.0,6.0,701.8629869999131,8.0,1.0,phase_2,go,450.0,450.0,1.0,,,,,,,,,white,I
0.0,6.0,2.0,1.0,6.0,0.0,0.0,8.0,1.0,phase_2,stop,450.0,450.0,4.0,,,,,,,,,white,I
0.0,3.0,3.0,0.0,6.0,6.0,704.2273200058844,8.0,1.0,phase_2,go,450.0,500.0,1.0,,,,,,,,,cyan,flipped triangle
0.0,4.0,4.0,0.0,5.0,5.0,762.1513939957367,8.0,1.0,phase_2,go,450.0,500.0,1.0,,,,,,,,,yellow,square
0.0,7.0,3.0,1.0,6.0,0.0,0.0,8.0,1.0,phase_2,stop,450.0,500.0,4.0,,,,,,,,,blue,circle
0.0,4.0,4.0,0.0,5.0,5.0,791.5537389926612,8.0,1.0,phase_2,go,450.0,550.0,1.0,,,,,,,,,yellow,square
0.0,6.0,2.0,1.0,6.0,6.0,598.2633329986129,8.0,1.0,phase_2,stop,450.0,550.0,3.0,,,,,,,,,white,I
0.0,1.0,1.0,0.0,6.0,6.0,320.3602599969599,8.0,1.0,phase_2,go,450.0,500.0,1.0,,,,,,,,,gray,cross
0.0,6.0,2.0,1.0,5.0,5.0,567.1793469955446,8.0,1.0,phase_2,stop,450.0,500.0,3.0,,,,,,,,,white,I
0.0,4.0,4.0,0.0,5.0,5.0,701.0677070065867,8.0,1.0,phase_2,go,400.0,500.0,1.0,,,,,,,,,yellow,square
0.0,8.0,4.0,1.0,6.0,0.0,0.0,8.0,1.0,phase_2,stop,400.0,500.0,4.0,,,,,,,,,magenta,triangle
0.0,1.0,1.0,0.0,5.0,5.0,740.4979239945533,8.0,1.0,phase_2,go,400.0,550.0,1.0,,,,,,,,,gray,cross
0.0,2.0,2.0,0.0,6.0,6.0,763.4326980041806,8.0,1.0,phase_2,go,400.0,550.0,1.0,,,,,,,,,green,hexagon
0.0,4.0,4.0,0.0,5.0,5.0,842.4986640020506,8.0,1.0,phase_2,go,400.0,550.0,1.0,,,,,,,,,yellow,square
0.0,8.0,4.0,1.0,5.0,5.0,671.972588999779,8.0,1.0,phase_2,go,400.0,550.0,1.0,,,,,,,,,magenta,triangle
0.0,2.0,2.0,0.0,6.0,6.0,791.8593349895673,8.0,1.0,phase_2,go,400.0,550.0,1.0,,,,,,,,,green,hexagon
0.0,8.0,4.0,1.0,6.0,0.0,0.0,8.0,1.0,phase_2,stop,400.0,550.0,4.0,,,,,,,,,magenta,triangle
0.0,7.0,3.0,1.0,6.0,6.0,672.1462529967539,8.0,1.0,phase_2,go,400.0,600.0,1.0,,,,,,,,,blue,circle
0.0,7.0,3.0,1.0,6.0,6.0,642.0956600049976,8.0,1.0,phase_2,stop,400.0,600.0,3.0,,,,,,,,,blue,circle
0.0,1.0,1.0,0.0,5.0,5.0,747.8485619940329,8.0,1.0,phase_2,go,400.0,550.0,1.0,,,,,,,,,gray,cross
0.0,6.0,2.0,1.0,5.0,0.0,0.0,8.0,1.0,phase_2,stop,400.0,550.0,4.0,,,,,,,,,white,I
0.0,5.0,1.0,1.0,7.0,2.0,1670.4126989934591,1.0,1.0,phase_3,,,,,692.0,4.0,865.0,692.0,173.0,519.0,346.0,1038.0,orange,diamond
0.0,7.0,3.0,1.0,7.0,4.0,1264.5415000006324,1.0,1.0,phase_3,,,,,770.0,5.0,924.0,154.0,308.0,770.0,462.0,616.0,blue,circle
0.0,4.0,4.0,0.0,7.0,3.0,898.6912059917813,1.0,1.0,phase_3,,,,,576.0,3.0,960.0,768.0,576.0,192.0,384.0,1152.0,yellow,square
0.0,2.0,2.0,0.0,7.0,5.0,764.0902819985058,1.0,1.0,phase_3,,,,,580.0,5.0,232.0,116.0,696.0,348.0,580.0,464.0,green,hexagon
0.0,4.0,4.0,0.0,7.0,6.0,545.0939920119708,1.0,1.0,phase_3,,,,,770.0,5.0,616.0,924.0,154.0,308.0,462.0,770.0,yellow,square
0.0,5.0,1.0,1.0,7.0,1.0,900.4185179946944,1.0,1.0,phase_3,,,,,810.0,6.0,810.0,540.0,675.0,270.0,135.0,405.0,orange,diamond
0.0,2.0,2.0,0.0,7.0,3.0,904.0760349889752,1.0,1.0,phase_3,,,,,960.0,5.0,384.0,768.0,960.0,192.0,1152.0,576.0,green,hexagon
0.0,3.0,3.0,0.0,7.0,3.0,2824.7322509996598,1.0,1.0,phase_3,,,,,696.0,6.0,464.0,348.0,696.0,580.0,232.0,116.0,cyan,flipped triangle
0.0,4.0,4.0,0.0,7.0,1.0,1484.5110190071864,1.0,1.0,phase_3,,,,,865.0,5.0,865.0,1038.0,519.0,346.0,173.0,692.0,yellow,square
0.0,6.0,2.0,1.0,7.0,4.0,1820.830094002304,1.0,1.0,phase_3,,,,,924.0,6.0,616.0,308.0,462.0,924.0,770.0,154.0,white,I
0.0,5.0,1.0,1.0,7.0,1.0,2668.70673300582,1.0,1.0,phase_3,,,,,270.0,2.0,270.0,675.0,405.0,135.0,810.0,540.0,orange,diamond
0.0,8.0,4.0,1.0,7.0,4.0,3568.702263000887,1.0,1.0,phase_3,,,,,768.0,4.0,960.0,1152.0,192.0,768.0,384.0,576.0,magenta,triangle
0.0,1.0,1.0,0.0,7.0,1.0,2683.819660000154,1.0,1.0,phase_3,,,,,580.0,5.0,580.0,232.0,696.0,116.0,348.0,464.0,gray,cross
0.0,8.0,4.0,1.0,7.0,3.0,4289.503053005319,1.0,1.0,phase_3,,,,,924.0,6.0,770.0,308.0,924.0,616.0,154.0,462.0,magenta,triangle
0.0,7.0,3.0,1.0,7.0,5.0,2165.543737995904,1.0,1.0,phase_3,,,,,192.0,1.0,960.0,768.0,384.0,576.0,192.0,1152.0,blue,circle
0.0,3.0,3.0,0.0,7.0,1.0,2567.821560005541,1.0,1.0,phase_3,,,,,308.0,2.0,308.0,770.0,462.0,154.0,616.0,924.0,cyan,flipped triangle
0.0,2.0,2.0,0.0,7.0,6.0,2110.859320004238,1.0,1.0,phase_3,,,,,675.0,5.0,810.0,540.0,135.0,270.0,405.0,675.0,green,hexagon
0.0,1.0,1.0,0.0,7.0,2.0,2230.78583998722,1.0,1.0,phase_3,,,,,1038.0,6.0,173.0,1038.0,692.0,519.0,346.0,865.0,gray,cross
0.0,6.0,2.0,1.0,7.0,2.0,2134.2180959909456,1.0,1.0,phase_3,,,,,1152.0,6.0,576.0,1152.0,768.0,192.0,384.0,960.0,white,I
0.0,3.0,3.0,0.0,7.0,4.0,1683.336606001831,1.0,1.0,phase_3,,,,,692.0,4.0,865.0,1038.0,346.0,692.0,519.0,173.0,cyan,flipped triangle
0.0,4.0,4.0,0.0,7.0,1.0,1073.5842650028644,2.0,1.0,phase_3,,,,,464.0,4.0,464.0,580.0,696.0,232.0,116.0,348.0,yellow,square
0.0,6.0,2.0,1.0,7.0,2.0,1411.90056099731,2.0,1.0,phase_3,,,,,810.0,6.0,270.0,810.0,540.0,405.0,135.0,675.0,white,I
0.0,4.0,4.0,0.0,7.0,5.0,1046.6280950058715,2.0,1.0,phase_3,,,,,580.0,5.0,116.0,696.0,464.0,348.0,580.0,232.0,yellow,square
0.0,2.0,2.0,0.0,7.0,1.0,1035.303627999383,2.0,1.0,phase_3,,,,,675.0,5.0,675.0,135.0,405.0,270.0,810.0,540.0,green,hexagon
0.0,7.0,3.0,1.0,7.0,4.0,1439.620923003531,2.0,1.0,phase_3,,,,,348.0,3.0,464.0,232.0,116.0,348.0,696.0,580.0,blue,circle
0.0,7.0,3.0,1.0,7.0,3.0,2008.5093039961066,2.0,1.0,phase_3,,,,,692.0,4.0,1038.0,865.0,692.0,173.0,519.0,346.0,blue,circle
0.0,3.0,3.0,0.0,7.0,2.0,1412.1447740035364,2.0,1.0,phase_3,,,,,865.0,5.0,1038.0,865.0,519.0,692.0,346.0,173.0,cyan,flipped triangle
0.0,7.0,3.0,1.0,7.0,5.0,1419.198713003425,2.0,1.0,phase_3,,,,,116.0,1.0,232.0,580.0,464.0,696.0,116.0,348.0,blue,circle
0.0,5.0,1.0,1.0,7.0,3.0,1323.125932001858,2.0,1.0,phase_3,,,,,960.0,5.0,768.0,192.0,960.0,1152.0,384.0,576.0,orange,diamond
0.0,2.0,2.0,0.0,7.0,3.0,854.9500590015668,2.0,1.0,phase_3,,,,,616.0,4.0,462.0,154.0,616.0,770.0,308.0,924.0,green,hexagon
0.0,1.0,1.0,0.0,7.0,2.0,893.8549020094797,2.0,1.0,phase_3,,,,,924.0,6.0,462.0,924.0,154.0,770.0,616.0,308.0,gray,cross
0.0,2.0,2.0,0.0,7.0,4.0,1734.8564909916604,2.0,1.0,phase_3,,,,,462.0,3.0,308.0,616.0,770.0,462.0,154.0,924.0,green,hexagon
0.0,6.0,2.0,1.0,7.0,4.0,2650.1630189886782,2.0,1.0,phase_3,,,,,696.0,6.0,232.0,116.0,580.0,696.0,348.0,464.0,white,I
0.0,6.0,2.0,1.0,7.0,1.0,1573.850714994478,2.0,1.0,phase_3,,,,,696.0,6.0,696.0,464.0,232.0,116.0,580.0,348.0,white,I
0.0,8.0,4.0,1.0,7.0,3.0,1836.522154000704,2.0,1.0,phase_3,,,,,692.0,4.0,1038.0,519.0,692.0,173.0,865.0,346.0,magenta,triangle
0.0,7.0,3.0,1.0,7.0,3.0,1716.4993729966227,2.0,1.0,phase_3,,,,,384.0,2.0,1152.0,960.0,384.0,576.0,768.0,192.0,blue,circle
0.0,8.0,4.0,1.0,7.0,5.0,1272.3764379916247,2.0,1.0,phase_3,,,,,540.0,4.0,135.0,405.0,270.0,810.0,540.0,675.0,magenta,triangle
0.0,1.0,1.0,0.0,7.0,4.0,1304.8629199911377,2.0,1.0,phase_3,,,,,810.0,6.0,135.0,270.0,540.0,810.0,675.0,405.0,gray,cross
0.0,1.0,1.0,0.0,7.0,6.0,2248.378581003635,2.0,1.0,phase_3,,,,,865.0,5.0,1038.0,519.0,692.0,346.0,173.0,865.0,gray,cross
0.0,2.0,2.0,0.0,7.0,3.0,1153.5775820084382,2.0,1.0,phase_3,,,,,464.0,4.0,580.0,116.0,464.0,348.0,696.0,232.0,green,hexagon
0.0,1.0,1.0,0.0,7.0,2.0,793.3142879919615,3.0,1.0,phase_3,,,,,696.0,6.0,232.0,696.0,116.0,580.0,464.0,348.0,gray,cross
0.0,7.0,3.0,1.0,7.0,5.0,924.8702469922137,3.0,1.0,phase_3,,,,,346.0,2.0,519.0,692.0,1038.0,173.0,346.0,865.0,blue,circle
0.0,8.0,4.0,1.0,7.0,3.0,1180.89679699915,3.0,1.0,phase_3,,,,,576.0,3.0,384.0,960.0,576.0,192.0,1152.0,768.0,magenta,triangle
0.0,4.0,4.0,0.0,7.0,6.0,1087.1091059962057,3.0,1.0,phase_3,,,,,462.0,3.0,308.0,154.0,616.0,770.0,924.0,462.0,yellow,square
0.0,8.0,4.0,1.0,7.0,2.0,1808.086657998501,3.0,1.0,phase_3,,,,,519.0,3.0,692.0,519.0,1038.0,173.0,346.0,865.0,magenta,triangle
0.0,8.0,4.0,1.0,7.0,1.0,1278.419626003597,3.0,1.0,phase_3,,,,,696.0,6.0,696.0,116.0,580.0,348.0,232.0,464.0,magenta,triangle
0.0,3.0,3.0,0.0,7.0,5.0,1548.852815001737,3.0,1.0,phase_3,,,,,616.0,4.0,770.0,308.0,154.0,924.0,616.0,462.0,cyan,flipped triangle
0.0,6.0,2.0,1.0,7.0,2.0,1272.6675940066343,3.0,1.0,phase_3,,,,,770.0,5.0,462.0,770.0,308.0,924.0,154.0,616.0,white,I
0.0,3.0,3.0,0.0,7.0,5.0,2645.5384049913846,3.0,1.0,phase_3,,,,,576.0,3.0,384.0,1152.0,768.0,960.0,576.0,192.0,cyan,flipped triangle
0.0,5.0,1.0,1.0,7.0,2.0,1445.2888809901197,3.0,1.0,phase_3,,,,,462.0,3.0,924.0,462.0,154.0,308.0,616.0,770.0,orange,diamond
0.0,4.0,4.0,0.0,7.0,6.0,1225.6908589915838,3.0,1.0,phase_3,,,,,270.0,2.0,675.0,540.0,810.0,135.0,405.0,270.0,yellow,square
0.0,7.0,3.0,1.0,7.0,1.0,1840.226530999644,3.0,1.0,phase_3,,,,,405.0,3.0,405.0,135.0,675.0,810.0,270.0,540.0,blue,circle
0.0,4.0,4.0,0.0,7.0,1.0,1587.5598809943767,3.0,1.0,phase_3,,,,,346.0,2.0,346.0,865.0,692.0,1038.0,173.0,519.0,yellow,square
0.0,6.0,2.0,1.0,7.0,6.0,1054.4065200083423,3.0,1.0,phase_3,,,,,1038.0,6.0,173.0,346.0,692.0,865.0,519.0,1038.0,white,I
0.0,3.0,3.0,0.0,7.0,3.0,1916.7918040038785,3.0,1.0,phase_3,,,,,675.0,5.0,135.0,540.0,675.0,405.0,810.0,270.0,cyan,flipped triangle
0.0,3.0,3.0,0.0,7.0,3.0,2290.908184004365,3.0,1.0,phase_3,,,,,960.0,5.0,384.0,576.0,960.0,768.0,1152.0,192.0,cyan,flipped triangle
0.0,5.0,1.0,1.0,7.0,6.0,771.1065680050524,3.0,1.0,phase_3,,,,,348.0,3.0,232.0,116.0,580.0,464.0,696.0,348.0,orange,diamond
0.0,5.0,1.0,1.0,7.0,5.0,1173.8826539949514,3.0,1.0,phase_3,,,,,580.0,5.0,348.0,232.0,116.0,464.0,580.0,696.0,orange,diamond
0.0,6.0,2.0,1.0,7.0,1.0,897.8747939981986,3.0,1.0,phase_3,,,,,1152.0,6.0,1152.0,960.0,768.0,384.0,192.0,576.0,white,I
0.0,3.0,3.0,0.0,7.0,2.0,1361.4715869916836,3.0,1.0,phase_3,,,,,810.0,6.0,540.0,810.0,405.0,135.0,675.0,270.0,cyan,flipped triangle
0.0,5.0,1.0,1.0,7.0,2.0,932.229793004808,4.0,1.0,phase_3,,,,,519.0,3.0,346.0,519.0,692.0,173.0,1038.0,865.0,orange,diamond
0.0,1.0,1.0,0.0,7.0,5.0,1149.4582220038865,4.0,1.0,phase_3,,,,,768.0,4.0,960.0,192.0,384.0,576.0,768.0,1152.0,gray,cross
0.0,6.0,2.0,1.0,7.0,1.0,1101.8194389907876,4.0,1.0,phase_3,,,,,810.0,6.0,810.0,270.0,135.0,405.0,675.0,540.0,white,I
0.0,1.0,1.0,0.0,7.0,3.0,1201.9640049984446,4.0,1.0,phase_3,,,,,770.0,5.0,462.0,616.0,770.0,924.0,308.0,154.0,gray,cross
0.0,5.0,1.0,1.0,7.0,4.0,1875.0788450124676,4.0,1.0,phase_3,,,,,770.0,5.0,924.0,462.0,308.0,770.0,616.0,154.0,orange,diamond
0.0,8.0,4.0,1.0,7.0,6.0,3111.0101789963664,4.0,1.0,phase_3,,,,,616.0,4.0,308.0,770.0,154.0,462.0,924.0,616.0,magenta,triangle
0.0,1.0,1.0,0.0,7.0,1.0,1995.6641079916155,4.0,1.0,phase_3,,,,,810.0,6.0,810.0,405.0,135.0,540.0,675.0,270.0,gray,cross
0.0,1.0,1.0,0.0,7.0,6.0,1820.953839996946,4.0,1.0,phase_3,,,,,768.0,4.0,576.0,960.0,1152.0,384.0,192.0,768.0,gray,cross
0.0,8.0,4.0,1.0,7.0,5.0,3904.232780987513,4.0,1.0,phase_3,,,,,580.0,5.0,464.0,116.0,696.0,232.0,580.0,348.0,magenta,triangle
0.0,7.0,3.0,1.0,7.0,2.0,1545.1023700006772,4.0,1.0,phase_3,,,,,308.0,2.0,616.0,308.0,154.0,770.0,924.0,462.0,blue,circle
0.0,3.0,3.0,0.0,7.0,4.0,763.2260640093591,4.0,1.0,phase_3,,,,,580.0,5.0,116.0,696.0,464.0,580.0,232.0,348.0,cyan,flipped triangle
0.0,8.0,4.0,1.0,7.0,4.0,1261.3870920031331,4.0,1.0,phase_3,,,,,675.0,5.0,540.0,810.0,270.0,675.0,135.0,405.0,magenta,triangle
0.0,6.0,2.0,1.0,7.0,2.0,962.30413900048,4.0,1.0,phase_3,,,,,865.0,5.0,346.0,865.0,692.0,1038.0,173.0,519.0,white,I
0.0,2.0,2.0,0.0,7.0,4.0,1734.8646119935438,4.0,1.0,phase_3,,,,,384.0,2.0,576.0,768.0,1152.0,384.0,192.0,960.0,green,hexagon
0.0,2.0,2.0,0.0,7.0,2.0,1463.7872000021162,4.0,1.0,phase_3,,,,,346.0,2.0,173.0,346.0,865.0,692.0,519.0,1038.0,green,hexagon
0.0,4.0,4.0,0.0,7.0,5.0,1325.5383350042391,4.0,1.0,phase_3,,,,,135.0,1.0,675.0,405.0,810.0,270.0,135.0,540.0,yellow,square
0.0,5.0,1.0,1.0,7.0,4.0,1140.3116030123783,4.0,1.0,phase_3,,,,,384.0,2.0,576.0,768.0,1152.0,384.0,960.0,192.0,orange,diamond
0.0,2.0,2.0,0.0,7.0,4.0,2172.684631004813,4.0,1.0,phase_3,,,,,346.0,2.0,173.0,1038.0,865.0,346.0,692.0,519.0,green,hexagon
0.0,4.0,4.0,0.0,7.0,6.0,2055.5402750032954,4.0,1.0,phase_3,,,,,192.0,1.0,1152.0,384.0,768.0,960.0,576.0,192.0,yellow,square
0.0,7.0,3.0,1.0,7.0,2.0,863.6214439902687,4.0,1.0,phase_3,,,,,135.0,1.0,675.0,135.0,540.0,810.0,405.0,270.0,blue,circle
