raw_reward_magnitude,stim_reward,stepwise_reward_magnitude,paired_with_stopping,stim_location,response,reaction_time,block,num_trial_presentations,which_phase,stop_signal_trial_type,left_SSD,right_SSD,accuracy,chosen_bidding_amount,chosen_bidding_level,possible_bid_1,possible_bid_2,possible_bid_3,possible_bid_4,possible_bid_5,possible_bid_6,color_text,shape_text
330.0,6.0,1.0,1.0,2.0,2.0,456.227348999846,1.0,1.0,phase_1,,,,,,,,,,,,,yellow,circle
1294.0,4.0,4.0,0.0,1.0,1.0,435.5455790000633,1.0,1.0,phase_1,,,,,,,,,,,,,blue,triangle
0.0,5.0,0.0,1.0,3.0,3.0,372.7477160000489,1.0,1.0,phase_1,,,,,,,,,,,,,magenta,diamond
641.0,7.0,2.0,1.0,3.0,3.0,437.1243509999658,1.0,1.0,phase_1,,,,,,,,,,,,,orange,cross
302.0,6.0,1.0,1.0,2.0,2.0,420.4054169999835,1.0,1.0,phase_1,,,,,,,,,,,,,yellow,circle
0.0,1.0,0.0,0.0,3.0,3.0,392.7501979999306,1.0,1.0,phase_1,,,,,,,,,,,,,green,square
349.0,2.0,1.0,0.0,3.0,3.0,394.0442919999896,1.0,1.0,phase_1,,,,,,,,,,,,,white,I
639.0,3.0,2.0,0.0,1.0,1.0,439.4800480001777,1.0,1.0,phase_1,,,,,,,,,,,,,gray,hexagon
1291.0,4.0,4.0,0.0,3.0,3.0,467.1924589999889,1.0,1.0,phase_1,,,,,,,,,,,,,blue,triangle
165.0,1.0,0.5,0.0,4.0,4.0,392.9367720002119,1.0,1.0,phase_1,,,,,,,,,,,,,green,square
142.0,1.0,0.5,0.0,2.0,2.0,355.076930999985,1.0,1.0,phase_1,,,,,,,,,,,,,green,square
626.0,3.0,2.0,0.0,2.0,2.0,504.3185489998905,1.0,1.0,phase_1,,,,,,,,,,,,,gray,hexagon
183.0,5.0,0.5,1.0,4.0,4.0,355.2325999999084,1.0,1.0,phase_1,,,,,,,,,,,,,magenta,diamond
658.0,7.0,2.0,1.0,1.0,1.0,372.9474159999881,1.0,1.0,phase_1,,,,,,,,,,,,,orange,cross
0.0,5.0,0.0,1.0,3.0,3.0,345.9846660000494,1.0,1.0,phase_1,,,,,,,,,,,,,magenta,diamond
140.0,5.0,0.5,1.0,2.0,2.0,336.4397010000175,1.0,1.0,phase_1,,,,,,,,,,,,,magenta,diamond
320.0,6.0,1.0,1.0,2.0,2.0,412.0865809998122,1.0,1.0,phase_1,,,,,,,,,,,,,yellow,circle
1292.0,4.0,4.0,0.0,1.0,1.0,433.5349200000564,1.0,1.0,phase_1,,,,,,,,,,,,,blue,triangle
1294.0,8.0,4.0,1.0,4.0,4.0,299.80501,1.0,1.0,phase_1,,,,,,,,,,,,,cyan,flipped triangle
159.0,1.0,0.5,0.0,3.0,3.0,317.3147950001294,1.0,1.0,phase_1,,,,,,,,,,,,,green,square
158.0,5.0,0.5,1.0,2.0,2.0,373.9981340002032,1.0,1.0,phase_1,,,,,,,,,,,,,magenta,diamond
670.0,3.0,2.0,0.0,3.0,3.0,362.8960399998959,1.0,1.0,phase_1,,,,,,,,,,,,,gray,hexagon
1313.0,4.0,4.0,0.0,2.0,2.0,399.8285390000546,1.0,1.0,phase_1,,,,,,,,,,,,,blue,triangle
317.0,6.0,1.0,1.0,1.0,1.0,363.4865659998922,1.0,1.0,phase_1,,,,,,,,,,,,,yellow,circle
1321.0,4.0,4.0,0.0,4.0,4.0,336.5824160000557,1.0,1.0,phase_1,,,,,,,,,,,,,blue,triangle
151.0,5.0,0.5,1.0,4.0,4.0,363.9617809999436,1.0,1.0,phase_1,,,,,,,,,,,,,magenta,diamond
302.0,6.0,1.0,1.0,3.0,3.0,326.6487440000674,1.0,1.0,phase_1,,,,,,,,,,,,,yellow,circle
1288.0,4.0,4.0,0.0,2.0,2.0,401.5580420000333,1.0,1.0,phase_1,,,,,,,,,,,,,blue,triangle
636.0,3.0,2.0,0.0,3.0,3.0,365.7004479998704,1.0,1.0,phase_1,,,,,,,,,,,,,gray,hexagon
311.0,6.0,1.0,1.0,3.0,3.0,374.0959499998553,1.0,1.0,phase_1,,,,,,,,,,,,,yellow,circle
1296.0,4.0,4.0,0.0,3.0,3.0,354.936127999963,1.0,1.0,phase_1,,,,,,,,,,,,,blue,triangle
159.0,5.0,0.5,1.0,3.0,3.0,316.8183279999539,1.0,1.0,phase_1,,,,,,,,,,,,,magenta,diamond
152.0,1.0,0.5,0.0,3.0,3.0,364.15904699993,1.0,1.0,phase_1,,,,,,,,,,,,,green,square
674.0,7.0,2.0,1.0,1.0,1.0,438.9011749999554,1.0,2.0,phase_1,,,,,,,,,,,,,orange,cross
1283.0,4.0,4.0,0.0,4.0,4.0,475.1339350000307,1.0,1.0,phase_1,,,,,,,,,,,,,blue,triangle
176.0,1.0,0.5,0.0,2.0,2.0,455.494348000002,1.0,1.0,phase_1,,,,,,,,,,,,,green,square
0.0,6.0,0.0,1.0,2.0,2.0,465.6260719998499,1.0,1.0,phase_1,,,,,,,,,,,,,yellow,circle
0.0,5.0,0.0,1.0,3.0,3.0,366.7535449999377,1.0,1.0,phase_1,,,,,,,,,,,,,magenta,diamond
321.0,2.0,1.0,0.0,1.0,1.0,456.8712630000391,1.0,1.0,phase_1,,,,,,,,,,,,,white,I
662.0,7.0,2.0,1.0,2.0,2.0,494.4653959998959,1.0,1.0,phase_1,,,,,,,,,,,,,orange,cross
0.0,6.0,0.0,1.0,4.0,4.0,429.0143709999938,1.0,1.0,phase_1,,,,,,,,,,,,,yellow,circle
1285.0,4.0,4.0,0.0,2.0,2.0,466.6044339999189,1.0,1.0,phase_1,,,,,,,,,,,,,blue,triangle
647.0,7.0,2.0,1.0,4.0,4.0,523.2539150001685,1.0,1.0,phase_1,,,,,,,,,,,,,orange,cross
1295.0,4.0,4.0,0.0,2.0,2.0,494.5893439999054,1.0,1.0,phase_1,,,,,,,,,,,,,blue,triangle
330.0,2.0,1.0,0.0,2.0,2.0,448.1240449999859,1.0,1.0,phase_1,,,,,,,,,,,,,white,I
344.0,2.0,1.0,0.0,1.0,1.0,455.8913380001286,1.0,1.0,phase_1,,,,,,,,,,,,,white,I
348.0,2.0,1.0,0.0,3.0,3.0,495.1392999998916,1.0,1.0,phase_1,,,,,,,,,,,,,white,I
0.0,1.0,0.0,0.0,1.0,1.0,410.0944760000402,1.0,1.0,phase_1,,,,,,,,,,,,,green,square
0.0,6.0,0.0,1.0,3.0,3.0,427.8451820000555,1.0,1.0,phase_1,,,,,,,,,,,,,yellow,circle
1324.0,8.0,4.0,1.0,2.0,2.0,576.545557999907,1.0,1.0,phase_1,,,,,,,,,,,,,cyan,flipped triangle
642.0,3.0,2.0,0.0,2.0,2.0,588.1431399998291,1.0,1.0,phase_1,,,,,,,,,,,,,gray,hexagon
1313.0,8.0,4.0,1.0,2.0,2.0,532.1212409999134,1.0,1.0,phase_1,,,,,,,,,,,,,cyan,flipped triangle
656.0,7.0,2.0,1.0,4.0,4.0,523.6765899999227,1.0,1.0,phase_1,,,,,,,,,,,,,orange,cross
1313.0,8.0,4.0,1.0,3.0,3.0,400.7687050000186,1.0,1.0,phase_1,,,,,,,,,,,,,cyan,flipped triangle
1318.0,8.0,4.0,1.0,1.0,1.0,382.8674869998849,1.0,1.0,phase_1,,,,,,,,,,,,,cyan,flipped triangle
0.0,4.0,0.0,0.0,3.0,3.0,467.5761739999871,1.0,1.0,phase_1,,,,,,,,,,,,,blue,triangle
311.0,2.0,1.0,0.0,1.0,1.0,429.634101999909,1.0,1.0,phase_1,,,,,,,,,,,,,white,I
627.0,7.0,2.0,1.0,4.0,4.0,449.6254719999797,1.0,1.0,phase_1,,,,,,,,,,,,,orange,cross
0.0,8.0,0.0,1.0,4.0,4.0,384.6706760000415,1.0,1.0,phase_1,,,,,,,,,,,,,cyan,flipped triangle
660.0,7.0,2.0,1.0,2.0,2.0,494.3423149998125,1.0,1.0,phase_1,,,,,,,,,,,,,orange,cross
0.0,3.0,0.0,0.0,4.0,4.0,487.0928459999959,1.0,1.0,phase_1,,,,,,,,,,,,,gray,hexagon
172.0,1.0,0.5,0.0,1.0,1.0,568.4469880000051,1.0,1.0,phase_1,,,,,,,,,,,,,green,square
0.0,8.0,0.0,1.0,2.0,2.0,551.5536709999651,1.0,1.0,phase_1,,,,,,,,,,,,,cyan,flipped triangle
0.0,8.0,0.0,1.0,1.0,1.0,587.4282299998868,1.0,1.0,phase_1,,,,,,,,,,,,,cyan,flipped triangle
0.0,1.0,0.0,0.0,3.0,3.0,401.8859909999719,1.0,1.0,phase_1,,,,,,,,,,,,,green,square
175.0,1.0,0.5,0.0,1.0,1.0,420.5278429999453,1.0,1.0,phase_1,,,,,,,,,,,,,green,square
0.0,7.0,0.0,1.0,3.0,3.0,439.5439479999368,1.0,1.0,phase_1,,,,,,,,,,,,,orange,cross
180.0,1.0,0.5,0.0,3.0,3.0,494.4088269999156,1.0,1.0,phase_1,,,,,,,,,,,,,green,square
318.0,2.0,1.0,0.0,1.0,1.0,485.3668549999383,1.0,1.0,phase_1,,,,,,,,,,,,,white,I
317.0,2.0,1.0,0.0,2.0,2.0,558.726821999926,1.0,1.0,phase_1,,,,,,,,,,,,,white,I
0.0,6.0,0.0,1.0,2.0,2.0,512.5602959999469,1.0,1.0,phase_1,,,,,,,,,,,,,yellow,circle
1313.0,4.0,4.0,0.0,3.0,3.0,430.2195919999576,1.0,1.0,phase_1,,,,,,,,,,,,,blue,triangle
667.0,3.0,2.0,0.0,1.0,1.0,402.0624170000246,1.0,1.0,phase_1,,,,,,,,,,,,,gray,hexagon
147.0,1.0,0.5,0.0,1.0,1.0,476.2407289999828,1.0,1.0,phase_1,,,,,,,,,,,,,green,square
654.0,7.0,2.0,1.0,2.0,2.0,603.7163480000345,1.0,1.0,phase_1,,,,,,,,,,,,,orange,cross
1308.0,8.0,4.0,1.0,4.0,4.0,419.4974040001398,1.0,1.0,phase_1,,,,,,,,,,,,,cyan,flipped triangle
0.0,3.0,0.0,0.0,4.0,4.0,477.5239329999294,1.0,1.0,phase_1,,,,,,,,,,,,,gray,hexagon
634.0,3.0,2.0,0.0,1.0,1.0,505.0799169998754,1.0,1.0,phase_1,,,,,,,,,,,,,gray,hexagon
1318.0,4.0,4.0,0.0,3.0,3.0,466.8655770001351,1.0,1.0,phase_1,,,,,,,,,,,,,blue,triangle
139.0,1.0,0.5,0.0,3.0,3.0,448.3447079999223,1.0,1.0,phase_1,,,,,,,,,,,,,green,square
1300.0,4.0,4.0,0.0,4.0,4.0,438.5806630000388,1.0,1.0,phase_1,,,,,,,,,,,,,blue,triangle
651.0,7.0,2.0,1.0,2.0,2.0,513.0841929999406,1.0,1.0,phase_1,,,,,,,,,,,,,orange,cross
1302.0,8.0,4.0,1.0,2.0,2.0,644.71199899981,1.0,1.0,phase_1,,,,,,,,,,,,,cyan,flipped triangle
0.0,7.0,0.0,1.0,2.0,2.0,467.7821669999957,1.0,1.0,phase_1,,,,,,,,,,,,,orange,cross
147.0,5.0,0.5,1.0,2.0,2.0,475.6942540000182,1.0,1.0,phase_1,,,,,,,,,,,,,magenta,diamond
654.0,3.0,2.0,0.0,1.0,1.0,448.4447899999395,1.0,1.0,phase_1,,,,,,,,,,,,,gray,hexagon
172.0,1.0,0.5,0.0,3.0,3.0,476.0691439998936,1.0,1.0,phase_1,,,,,,,,,,,,,green,square
1289.0,8.0,4.0,1.0,1.0,1.0,410.6549000000541,1.0,1.0,phase_1,,,,,,,,,,,,,cyan,flipped triangle
1323.0,8.0,4.0,1.0,1.0,1.0,514.3613309999182,1.0,1.0,phase_1,,,,,,,,,,,,,cyan,flipped triangle
0.0,3.0,0.0,0.0,4.0,4.0,457.9521440000462,1.0,1.0,phase_1,,,,,,,,,,,,,gray,hexagon
160.0,1.0,0.5,0.0,4.0,4.0,429.79061799997,1.0,1.0,phase_1,,,,,,,,,,,,,green,square
163.0,1.0,0.5,0.0,1.0,1.0,791.2544549999438,1.0,1.0,phase_1,,,,,,,,,,,,,green,square
0.0,4.0,0.0,0.0,3.0,3.0,440.3630709998651,1.0,1.0,phase_1,,,,,,,,,,,,,blue,triangle
303.0,2.0,1.0,0.0,4.0,4.0,467.6321670001471,1.0,1.0,phase_1,,,,,,,,,,,,,white,I
161.0,1.0,0.5,0.0,4.0,4.0,523.6908250001306,1.0,1.0,phase_1,,,,,,,,,,,,,green,square
656.0,3.0,2.0,0.0,4.0,4.0,635.0530560000607,1.0,1.0,phase_1,,,,,,,,,,,,,gray,hexagon
0.0,5.0,0.0,1.0,1.0,1.0,562.0481779999409,1.0,1.0,phase_1,,,,,,,,,,,,,magenta,diamond
330.0,6.0,1.0,1.0,4.0,4.0,542.5187149999147,1.0,1.0,phase_1,,,,,,,,,,,,,yellow,circle
314.0,2.0,1.0,0.0,2.0,2.0,634.7895270000663,1.0,1.0,phase_1,,,,,,,,,,,,,white,I
0.0,2.0,0.0,0.0,1.0,1.0,653.3802789999754,1.0,1.0,phase_1,,,,,,,,,,,,,white,I
0.0,1.0,0.0,0.0,2.0,2.0,494.2526879999604,2.0,1.0,phase_1,,,,,,,,,,,,,green,square
629.0,7.0,2.0,1.0,3.0,3.0,532.9113560001133,2.0,1.0,phase_1,,,,,,,,,,,,,orange,cross
667.0,7.0,2.0,1.0,4.0,4.0,419.3552250001175,2.0,1.0,phase_1,,,,,,,,,,,,,orange,cross
165.0,5.0,0.5,1.0,2.0,2.0,493.6813429999347,2.0,1.0,phase_1,,,,,,,,,,,,,magenta,diamond
0.0,8.0,0.0,1.0,3.0,3.0,514.2220669999915,2.0,1.0,phase_1,,,,,,,,,,,,,cyan,flipped triangle
322.0,6.0,1.0,1.0,2.0,2.0,523.2608589999472,2.0,1.0,phase_1,,,,,,,,,,,,,yellow,circle
0.0,8.0,0.0,1.0,2.0,2.0,670.9065950001332,2.0,1.0,phase_1,,,,,,,,,,,,,cyan,flipped triangle
1296.0,8.0,4.0,1.0,4.0,4.0,447.3171060001277,2.0,1.0,phase_1,,,,,,,,,,,,,cyan,flipped triangle
1282.0,4.0,4.0,0.0,2.0,2.0,467.1531499998309,2.0,1.0,phase_1,,,,,,,,,,,,,blue,triangle
150.0,1.0,0.5,0.0,4.0,4.0,560.0991740000154,2.0,1.0,phase_1,,,,,,,,,,,,,green,square
671.0,3.0,2.0,0.0,4.0,4.0,524.9788400001307,2.0,1.0,phase_1,,,,,,,,,,,,,gray,hexagon
1313.0,8.0,4.0,1.0,4.0,4.0,485.8655790001194,2.0,1.0,phase_1,,,,,,,,,,,,,cyan,flipped triangle
1300.0,8.0,4.0,1.0,1.0,1.0,544.9127910001152,2.0,1.0,phase_1,,,,,,,,,,,,,cyan,flipped triangle
635.0,3.0,2.0,0.0,4.0,4.0,496.7919309999615,2.0,1.0,phase_1,,,,,,,,,,,,,gray,hexagon
142.0,5.0,0.5,1.0,1.0,1.0,467.2431149999738,2.0,1.0,phase_1,,,,,,,,,,,,,magenta,diamond
0.0,7.0,0.0,1.0,1.0,1.0,559.1426750002029,2.0,1.0,phase_1,,,,,,,,,,,,,orange,cross
1283.0,8.0,4.0,1.0,2.0,2.0,680.4329439999037,2.0,1.0,phase_1,,,,,,,,,,,,,cyan,flipped triangle
160.0,1.0,0.5,0.0,2.0,2.0,914.0324009999858,2.0,1.0,phase_1,,,,,,,,,,,,,green,square
0.0,2.0,0.0,0.0,1.0,1.0,503.46287599995776,2.0,1.0,phase_1,,,,,,,,,,,,,white,I
160.0,5.0,0.5,1.0,1.0,1.0,457.6323789999605,2.0,1.0,phase_1,,,,,,,,,,,,,magenta,diamond
307.0,2.0,1.0,0.0,4.0,4.0,829.7145100000307,2.0,1.0,phase_1,,,,,,,,,,,,,white,I
674.0,3.0,2.0,0.0,1.0,1.0,531.7535849999331,2.0,1.0,phase_1,,,,,,,,,,,,,gray,hexagon
306.0,6.0,1.0,1.0,4.0,4.0,439.3221099999209,2.0,1.0,phase_1,,,,,,,,,,,,,yellow,circle
1292.0,8.0,4.0,1.0,4.0,4.0,466.4687280001089,2.0,1.0,phase_1,,,,,,,,,,,,,cyan,flipped triangle
0.0,5.0,0.0,1.0,4.0,4.0,486.3502680000238,2.0,1.0,phase_1,,,,,,,,,,,,,magenta,diamond
185.0,1.0,0.5,0.0,3.0,3.0,550.3323830000681,2.0,1.0,phase_1,,,,,,,,,,,,,green,square
0.0,6.0,0.0,1.0,2.0,2.0,522.0909680001569,2.0,1.0,phase_1,,,,,,,,,,,,,yellow,circle
145.0,5.0,0.5,1.0,2.0,2.0,595.8205409999664,2.0,1.0,phase_1,,,,,,,,,,,,,magenta,diamond
0.0,4.0,0.0,0.0,2.0,2.0,560.6244460000198,2.0,1.0,phase_1,,,,,,,,,,,,,blue,triangle
0.0,5.0,0.0,1.0,3.0,3.0,559.3146400001388,2.0,1.0,phase_1,,,,,,,,,,,,,magenta,diamond
0.0,1.0,0.0,0.0,2.0,2.0,633.2905960000517,2.0,1.0,phase_1,,,,,,,,,,,,,green,square
319.0,6.0,1.0,1.0,3.0,3.0,577.7406899999278,2.0,1.0,phase_1,,,,,,,,,,,,,yellow,circle
339.0,2.0,1.0,0.0,3.0,3.0,456.9838039999467,2.0,1.0,phase_1,,,,,,,,,,,,,white,I
1288.0,8.0,4.0,1.0,3.0,3.0,570.3820150001775,2.0,1.0,phase_1,,,,,,,,,,,,,cyan,flipped triangle
635.0,7.0,2.0,1.0,2.0,2.0,598.6584360000506,2.0,1.0,phase_1,,,,,,,,,,,,,orange,cross
632.0,7.0,2.0,1.0,4.0,4.0,520.2352139999675,2.0,1.0,phase_1,,,,,,,,,,,,,orange,cross
0.0,2.0,0.0,0.0,4.0,4.0,484.3514649999179,2.0,1.0,phase_1,,,,,,,,,,,,,white,I
1284.0,4.0,4.0,0.0,3.0,3.0,559.4031600001017,2.0,1.0,phase_1,,,,,,,,,,,,,blue,triangle
639.0,7.0,2.0,1.0,2.0,2.0,679.7873319999326,2.0,1.0,phase_1,,,,,,,,,,,,,orange,cross
172.0,5.0,0.5,1.0,3.0,3.0,503.62511800017273,2.0,1.0,phase_1,,,,,,,,,,,,,magenta,diamond
163.0,5.0,0.5,1.0,4.0,4.0,494.658974999993,2.0,1.0,phase_1,,,,,,,,,,,,,magenta,diamond
1303.0,4.0,4.0,0.0,1.0,1.0,559.9227309999151,2.0,1.0,phase_1,,,,,,,,,,,,,blue,triangle
330.0,2.0,1.0,0.0,1.0,1.0,504.1754989999845,2.0,1.0,phase_1,,,,,,,,,,,,,white,I
661.0,3.0,2.0,0.0,4.0,4.0,513.9995700001236,2.0,1.0,phase_1,,,,,,,,,,,,,gray,hexagon
339.0,2.0,1.0,0.0,3.0,3.0,504.1352750001806,2.0,1.0,phase_1,,,,,,,,,,,,,white,I
158.0,1.0,0.5,0.0,3.0,3.0,588.5895559999881,2.0,1.0,phase_1,,,,,,,,,,,,,green,square
671.0,7.0,2.0,1.0,3.0,3.0,486.0739559999274,2.0,1.0,phase_1,,,,,,,,,,,,,orange,cross
649.0,3.0,2.0,0.0,1.0,1.0,597.0830210001168,2.0,1.0,phase_1,,,,,,,,,,,,,gray,hexagon
305.0,2.0,1.0,0.0,3.0,3.0,495.0772889999371,2.0,1.0,phase_1,,,,,,,,,,,,,white,I
0.0,2.0,0.0,0.0,1.0,1.0,606.2465349998547,2.0,1.0,phase_1,,,,,,,,,,,,,white,I
1317.0,4.0,4.0,0.0,4.0,4.0,523.0761170000733,2.0,1.0,phase_1,,,,,,,,,,,,,blue,triangle
340.0,6.0,1.0,1.0,4.0,4.0,520.7588529999612,2.0,1.0,phase_1,,,,,,,,,,,,,yellow,circle
175.0,5.0,0.5,1.0,4.0,4.0,635.8927670000867,2.0,1.0,phase_1,,,,,,,,,,,,,magenta,diamond
0.0,4.0,0.0,0.0,4.0,4.0,644.4880700000795,2.0,1.0,phase_1,,,,,,,,,,,,,blue,triangle
319.0,2.0,1.0,0.0,3.0,3.0,570.3060210000785,2.0,1.0,phase_1,,,,,,,,,,,,,white,I
0.0,3.0,0.0,0.0,4.0,4.0,541.4998310000101,2.0,1.0,phase_1,,,,,,,,,,,,,gray,hexagon
0.0,7.0,0.0,1.0,1.0,1.0,663.4951589999218,2.0,1.0,phase_1,,,,,,,,,,,,,orange,cross
647.0,3.0,2.0,0.0,3.0,3.0,475.4059399999732,2.0,1.0,phase_1,,,,,,,,,,,,,gray,hexagon
343.0,2.0,1.0,0.0,2.0,2.0,792.2218310000062,2.0,1.0,phase_1,,,,,,,,,,,,,white,I
176.0,5.0,0.5,1.0,2.0,2.0,653.2521239998914,2.0,1.0,phase_1,,,,,,,,,,,,,magenta,diamond
1298.0,8.0,4.0,1.0,4.0,4.0,606.9763939999575,2.0,1.0,phase_1,,,,,,,,,,,,,cyan,flipped triangle
1295.0,8.0,4.0,1.0,4.0,4.0,514.6468780001214,2.0,1.0,phase_1,,,,,,,,,,,,,cyan,flipped triangle
177.0,5.0,0.5,1.0,3.0,3.0,523.497364999912,2.0,1.0,phase_1,,,,,,,,,,,,,magenta,diamond
0.0,4.0,0.0,0.0,4.0,4.0,522.4944219999088,2.0,1.0,phase_1,,,,,,,,,,,,,blue,triangle
334.0,6.0,1.0,1.0,4.0,4.0,496.6196600000785,2.0,1.0,phase_1,,,,,,,,,,,,,yellow,circle
630.0,3.0,2.0,0.0,3.0,3.0,421.3948980000168,2.0,1.0,phase_1,,,,,,,,,,,,,gray,hexagon
1313.0,4.0,4.0,0.0,2.0,2.0,533.5835469998074,2.0,1.0,phase_1,,,,,,,,,,,,,blue,triangle
140.0,1.0,0.5,0.0,3.0,3.0,438.3404909999626,2.0,1.0,phase_1,,,,,,,,,,,,,green,square
326.0,6.0,1.0,1.0,2.0,2.0,663.6344290000125,2.0,1.0,phase_1,,,,,,,,,,,,,yellow,circle
150.0,5.0,0.5,1.0,4.0,4.0,513.4754009998233,2.0,1.0,phase_1,,,,,,,,,,,,,magenta,diamond
168.0,1.0,0.5,0.0,3.0,3.0,466.4950860001227,2.0,1.0,phase_1,,,,,,,,,,,,,green,square
1316.0,4.0,4.0,0.0,1.0,1.0,559.3690999999126,2.0,1.0,phase_1,,,,,,,,,,,,,blue,triangle
150.0,1.0,0.5,0.0,4.0,4.0,578.8639240001885,2.0,1.0,phase_1,,,,,,,,,,,,,green,square
304.0,2.0,1.0,0.0,4.0,4.0,448.7148420000721,2.0,1.0,phase_1,,,,,,,,,,,,,white,I
0.0,6.0,0.0,1.0,4.0,4.0,551.4257520001138,2.0,1.0,phase_1,,,,,,,,,,,,,yellow,circle
653.0,7.0,2.0,1.0,4.0,4.0,566.8568769999638,2.0,1.0,phase_1,,,,,,,,,,,,,orange,cross
327.0,2.0,1.0,0.0,4.0,4.0,569.3059279999488,2.0,1.0,phase_1,,,,,,,,,,,,,white,I
1291.0,4.0,4.0,0.0,4.0,4.0,550.4407040000387,2.0,1.0,phase_1,,,,,,,,,,,,,blue,triangle
0.0,4.0,0.0,0.0,3.0,3.0,466.7930519999572,2.0,1.0,phase_1,,,,,,,,,,,,,blue,triangle
1284.0,8.0,4.0,1.0,1.0,1.0,551.5785839997989,2.0,1.0,phase_1,,,,,,,,,,,,,cyan,flipped triangle
177.0,1.0,0.5,0.0,2.0,2.0,503.9266439998755,2.0,1.0,phase_1,,,,,,,,,,,,,green,square
0.0,2.0,0.0,0.0,3.0,3.0,420.3514809998978,2.0,1.0,phase_1,,,,,,,,,,,,,white,I
160.0,5.0,0.5,1.0,4.0,4.0,474.8883190000015,2.0,1.0,phase_1,,,,,,,,,,,,,magenta,diamond
0.0,6.0,0.0,1.0,3.0,3.0,540.6140750001214,2.0,1.0,phase_1,,,,,,,,,,,,,yellow,circle
302.0,2.0,1.0,0.0,2.0,2.0,765.3136520000317,2.0,1.0,phase_1,,,,,,,,,,,,,white,I
178.0,5.0,0.5,1.0,3.0,3.0,523.4037489999537,2.0,1.0,phase_1,,,,,,,,,,,,,magenta,diamond
665.0,7.0,2.0,1.0,3.0,3.0,548.679532000051,2.0,1.0,phase_1,,,,,,,,,,,,,orange,cross
0.0,1.0,0.0,0.0,3.0,3.0,419.3720799999028,2.0,1.0,phase_1,,,,,,,,,,,,,green,square
630.0,7.0,2.0,1.0,3.0,3.0,484.8029259999293,2.0,1.0,phase_1,,,,,,,,,,,,,orange,cross
1301.0,4.0,4.0,0.0,4.0,4.0,549.6352449999904,2.0,1.0,phase_1,,,,,,,,,,,,,blue,triangle
661.0,7.0,2.0,1.0,1.0,1.0,521.8713479998769,2.0,1.0,phase_1,,,,,,,,,,,,,orange,cross
170.0,1.0,0.5,0.0,1.0,1.0,568.4186409998802,2.0,1.0,phase_1,,,,,,,,,,,,,green,square
0.0,7.0,0.0,1.0,1.0,1.0,504.65807299997323,2.0,1.0,phase_1,,,,,,,,,,,,,orange,cross
334.0,2.0,1.0,0.0,4.0,4.0,559.4431029999214,2.0,1.0,phase_1,,,,,,,,,,,,,white,I
1296.0,8.0,4.0,1.0,3.0,3.0,475.3804119998221,2.0,1.0,phase_1,,,,,,,,,,,,,cyan,flipped triangle
651.0,3.0,2.0,0.0,2.0,2.0,597.434567000164,2.0,1.0,phase_1,,,,,,,,,,,,,gray,hexagon
0.0,1.0,0.0,0.0,2.0,2.0,670.3579049999462,2.0,1.0,phase_1,,,,,,,,,,,,,green,square
150.0,5.0,0.5,1.0,1.0,1.0,493.4809979999954,2.0,1.0,phase_1,,,,,,,,,,,,,magenta,diamond
142.0,5.0,0.5,1.0,1.0,1.0,577.7264629998626,2.0,1.0,phase_1,,,,,,,,,,,,,magenta,diamond
1302.0,4.0,4.0,0.0,1.0,1.0,568.1279769999037,2.0,1.0,phase_1,,,,,,,,,,,,,blue,triangle
160.0,5.0,0.5,1.0,2.0,2.0,447.8905670002859,3.0,1.0,phase_1,,,,,,,,,,,,,magenta,diamond
183.0,1.0,0.5,0.0,1.0,1.0,549.8524939998788,3.0,1.0,phase_1,,,,,,,,,,,,,green,square
316.0,2.0,1.0,0.0,1.0,1.0,551.6945360000136,3.0,1.0,phase_1,,,,,,,,,,,,,white,I
144.0,1.0,0.5,0.0,2.0,2.0,476.3458459997309,3.0,1.0,phase_1,,,,,,,,,,,,,green,square
1296.0,4.0,4.0,0.0,1.0,1.0,485.4035819998898,3.0,1.0,phase_1,,,,,,,,,,,,,blue,triangle
170.0,5.0,0.5,1.0,3.0,3.0,447.6655819998996,3.0,1.0,phase_1,,,,,,,,,,,,,magenta,diamond
672.0,3.0,2.0,0.0,3.0,3.0,577.9469479998625,3.0,1.0,phase_1,,,,,,,,,,,,,gray,hexagon
1305.0,4.0,4.0,0.0,3.0,3.0,531.5769230001024,3.0,1.0,phase_1,,,,,,,,,,,,,blue,triangle
671.0,3.0,2.0,0.0,2.0,2.0,737.8583330000765,3.0,1.0,phase_1,,,,,,,,,,,,,gray,hexagon
655.0,7.0,2.0,1.0,2.0,2.0,606.5166889998181,3.0,1.0,phase_1,,,,,,,,,,,,,orange,cross
1289.0,4.0,4.0,0.0,4.0,4.0,513.9019640000697,3.0,1.0,phase_1,,,,,,,,,,,,,blue,triangle
0.0,6.0,0.0,1.0,2.0,2.0,541.9433040001422,3.0,1.0,phase_1,,,,,,,,,,,,,yellow,circle
1316.0,8.0,4.0,1.0,3.0,3.0,568.5869950002598,3.0,1.0,phase_1,,,,,,,,,,,,,cyan,flipped triangle
304.0,6.0,1.0,1.0,1.0,1.0,447.8455669996037,3.0,1.0,phase_1,,,,,,,,,,,,,yellow,circle
318.0,6.0,1.0,1.0,1.0,1.0,418.8481229998615,3.0,1.0,phase_1,,,,,,,,,,,,,yellow,circle
155.0,5.0,0.5,1.0,4.0,4.0,559.7290169998814,3.0,1.0,phase_1,,,,,,,,,,,,,magenta,diamond
655.0,7.0,2.0,1.0,1.0,1.0,755.5146249997051,3.0,1.0,phase_1,,,,,,,,,,,,,orange,cross
150.0,1.0,0.5,0.0,4.0,4.0,597.8443340000013,3.0,1.0,phase_1,,,,,,,,,,,,,green,square
648.0,3.0,2.0,0.0,3.0,3.0,643.6857280000368,3.0,1.0,phase_1,,,,,,,,,,,,,gray,hexagon
627.0,3.0,2.0,0.0,2.0,2.0,568.6279719998311,3.0,1.0,phase_1,,,,,,,,,,,,,gray,hexagon
185.0,5.0,0.5,1.0,2.0,2.0,670.6593870003417,3.0,1.0,phase_1,,,,,,,,,,,,,magenta,diamond
144.0,5.0,0.5,1.0,2.0,2.0,578.6760860000868,3.0,1.0,phase_1,,,,,,,,,,,,,magenta,diamond
152.0,5.0,0.5,1.0,3.0,3.0,570.6506059996173,3.0,1.0,phase_1,,,,,,,,,,,,,magenta,diamond
641.0,3.0,2.0,0.0,4.0,4.0,521.8873180001538,3.0,1.0,phase_1,,,,,,,,,,,,,gray,hexagon
1317.0,8.0,4.0,1.0,2.0,2.0,672.7466270003788,3.0,1.0,phase_1,,,,,,,,,,,,,cyan,flipped triangle
645.0,7.0,2.0,1.0,4.0,4.0,477.1005239999795,3.0,1.0,phase_1,,,,,,,,,,,,,orange,cross
1305.0,8.0,4.0,1.0,1.0,1.0,791.4968410000256,3.0,1.0,phase_1,,,,,,,,,,,,,cyan,flipped triangle
1288.0,8.0,4.0,1.0,1.0,1.0,604.834412999935,3.0,1.0,phase_1,,,,,,,,,,,,,cyan,flipped triangle
312.0,2.0,1.0,0.0,1.0,1.0,661.7843989997709,3.0,1.0,phase_1,,,,,,,,,,,,,white,I
183.0,1.0,0.5,0.0,2.0,2.0,642.548006999732,3.0,1.0,phase_1,,,,,,,,,,,,,green,square
1278.0,8.0,4.0,1.0,2.0,2.0,597.476289000042,3.0,1.0,phase_1,,,,,,,,,,,,,cyan,flipped triangle
653.0,3.0,2.0,0.0,2.0,2.0,560.4111229999944,3.0,1.0,phase_1,,,,,,,,,,,,,gray,hexagon
1277.0,8.0,4.0,1.0,4.0,4.0,569.8690049998731,3.0,1.0,phase_1,,,,,,,,,,,,,cyan,flipped triangle
0.0,3.0,0.0,0.0,1.0,1.0,633.3628830002453,3.0,1.0,phase_1,,,,,,,,,,,,,gray,hexagon
339.0,6.0,1.0,1.0,1.0,1.0,586.6962679997414,3.0,1.0,phase_1,,,,,,,,,,,,,yellow,circle
319.0,2.0,1.0,0.0,1.0,1.0,549.8921849998624,3.0,1.0,phase_1,,,,,,,,,,,,,white,I
344.0,6.0,1.0,1.0,3.0,3.0,540.851818000192,3.0,1.0,phase_1,,,,,,,,,,,,,yellow,circle
0.0,6.0,0.0,1.0,2.0,2.0,504.04751300038697,3.0,1.0,phase_1,,,,,,,,,,,,,yellow,circle
145.0,1.0,0.5,0.0,2.0,2.0,503.0980510000518,3.0,1.0,phase_1,,,,,,,,,,,,,green,square
330.0,6.0,1.0,1.0,3.0,3.0,559.4392220000373,3.0,1.0,phase_1,,,,,,,,,,,,,yellow,circle
345.0,2.0,1.0,0.0,1.0,1.0,584.4159520001995,3.0,1.0,phase_1,,,,,,,,,,,,,white,I
321.0,6.0,1.0,1.0,4.0,4.0,466.8053410000539,3.0,1.0,phase_1,,,,,,,,,,,,,yellow,circle
337.0,2.0,1.0,0.0,2.0,2.0,560.0804559999233,3.0,1.0,phase_1,,,,,,,,,,,,,white,I
670.0,3.0,2.0,0.0,3.0,3.0,587.306991999867,3.0,1.0,phase_1,,,,,,,,,,,,,gray,hexagon
1324.0,4.0,4.0,0.0,1.0,1.0,503.08752899991305,3.0,1.0,phase_1,,,,,,,,,,,,,blue,triangle
1277.0,4.0,4.0,0.0,2.0,2.0,829.8889659999986,3.0,1.0,phase_1,,,,,,,,,,,,,blue,triangle
337.0,6.0,1.0,1.0,2.0,2.0,531.4076310000928,3.0,2.0,phase_1,,,,,,,,,,,,,yellow,circle
343.0,6.0,1.0,1.0,4.0,4.0,642.8692520003096,3.0,1.0,phase_1,,,,,,,,,,,,,yellow,circle
632.0,3.0,2.0,0.0,2.0,2.0,540.3126480000537,3.0,1.0,phase_1,,,,,,,,,,,,,gray,hexagon
151.0,1.0,0.5,0.0,1.0,1.0,494.1802329999518,3.0,1.0,phase_1,,,,,,,,,,,,,green,square
0.0,8.0,0.0,1.0,3.0,3.0,401.8225530003292,3.0,1.0,phase_1,,,,,,,,,,,,,cyan,flipped triangle
350.0,6.0,1.0,1.0,2.0,2.0,613.5754030001408,3.0,1.0,phase_1,,,,,,,,,,,,,yellow,circle
307.0,6.0,1.0,1.0,1.0,1.0,557.6149889998305,3.0,1.0,phase_1,,,,,,,,,,,,,yellow,circle
649.0,7.0,2.0,1.0,1.0,1.0,503.73681500013845,3.0,1.0,phase_1,,,,,,,,,,,,,orange,cross
636.0,7.0,2.0,1.0,3.0,3.0,448.2171919999018,3.0,1.0,phase_1,,,,,,,,,,,,,orange,cross
0.0,7.0,0.0,1.0,4.0,4.0,456.0712080001394,3.0,1.0,phase_1,,,,,,,,,,,,,orange,cross
652.0,3.0,2.0,0.0,4.0,4.0,560.0003290001041,3.0,1.0,phase_1,,,,,,,,,,,,,gray,hexagon
319.0,6.0,1.0,1.0,3.0,3.0,419.5431550001558,3.0,1.0,phase_1,,,,,,,,,,,,,yellow,circle
658.0,3.0,2.0,0.0,2.0,2.0,595.7739270002094,3.0,1.0,phase_1,,,,,,,,,,,,,gray,hexagon
166.0,1.0,0.5,0.0,1.0,1.0,456.1262590000297,3.0,1.0,phase_1,,,,,,,,,,,,,green,square
644.0,3.0,2.0,0.0,4.0,4.0,467.7493649996904,3.0,1.0,phase_1,,,,,,,,,,,,,gray,hexagon
1294.0,4.0,4.0,0.0,3.0,3.0,484.599419999995,3.0,1.0,phase_1,,,,,,,,,,,,,blue,triangle
0.0,8.0,0.0,1.0,3.0,3.0,505.47111600008066,3.0,1.0,phase_1,,,,,,,,,,,,,cyan,flipped triangle
0.0,2.0,0.0,0.0,4.0,4.0,523.8179240000136,3.0,1.0,phase_1,,,,,,,,,,,,,white,I
1282.0,8.0,4.0,1.0,1.0,1.0,522.4717500000224,3.0,1.0,phase_1,,,,,,,,,,,,,cyan,flipped triangle
0.0,3.0,0.0,0.0,1.0,1.0,680.0009329999739,3.0,1.0,phase_1,,,,,,,,,,,,,gray,hexagon
0.0,4.0,0.0,0.0,1.0,1.0,522.54033600002,3.0,1.0,phase_1,,,,,,,,,,,,,blue,triangle
348.0,2.0,1.0,0.0,3.0,3.0,579.755675999877,3.0,1.0,phase_1,,,,,,,,,,,,,white,I
0.0,5.0,0.0,1.0,3.0,3.0,643.6077549997208,3.0,1.0,phase_1,,,,,,,,,,,,,magenta,diamond
309.0,2.0,1.0,0.0,2.0,2.0,736.7802879998635,3.0,1.0,phase_1,,,,,,,,,,,,,white,I
660.0,3.0,2.0,0.0,1.0,1.0,533.8850610000918,3.0,1.0,phase_1,,,,,,,,,,,,,gray,hexagon
1298.0,4.0,4.0,0.0,4.0,4.0,512.8972309998971,3.0,1.0,phase_1,,,,,,,,,,,,,blue,triangle
1318.0,4.0,4.0,0.0,1.0,1.0,578.5013980002987,3.0,1.0,phase_1,,,,,,,,,,,,,blue,triangle
1305.0,8.0,4.0,1.0,3.0,3.0,558.6039690001599,3.0,1.0,phase_1,,,,,,,,,,,,,cyan,flipped triangle
155.0,5.0,0.5,1.0,4.0,4.0,494.01337900008,3.0,1.0,phase_1,,,,,,,,,,,,,magenta,diamond
161.0,5.0,0.5,1.0,3.0,3.0,568.1043820000014,3.0,1.0,phase_1,,,,,,,,,,,,,magenta,diamond
0.0,1.0,0.0,0.0,2.0,2.0,865.8968109998568,3.0,1.0,phase_1,,,,,,,,,,,,,green,square
1303.0,8.0,4.0,1.0,4.0,4.0,710.3821919999973,3.0,1.0,phase_1,,,,,,,,,,,,,cyan,flipped triangle
642.0,7.0,2.0,1.0,4.0,4.0,995.590619000268,3.0,1.0,phase_1,,,,,,,,,,,,,orange,cross
626.0,7.0,2.0,1.0,3.0,3.0,577.4510250003004,3.0,1.0,phase_1,,,,,,,,,,,,,orange,cross
1317.0,8.0,4.0,1.0,2.0,2.0,644.2733649996626,3.0,1.0,phase_1,,,,,,,,,,,,,cyan,flipped triangle
1285.0,8.0,4.0,1.0,3.0,3.0,531.1716890000753,3.0,1.0,phase_1,,,,,,,,,,,,,cyan,flipped triangle
1288.0,4.0,4.0,0.0,1.0,1.0,633.0738030001157,3.0,1.0,phase_1,,,,,,,,,,,,,blue,triangle
670.0,7.0,2.0,1.0,2.0,2.0,959.9820739999814,3.0,1.0,phase_1,,,,,,,,,,,,,orange,cross
339.0,6.0,1.0,1.0,3.0,3.0,681.4841010000237,3.0,1.0,phase_1,,,,,,,,,,,,,yellow,circle
1321.0,8.0,4.0,1.0,2.0,2.0,773.8683799998398,3.0,1.0,phase_1,,,,,,,,,,,,,cyan,flipped triangle
183.0,5.0,0.5,1.0,3.0,3.0,708.9462909998474,3.0,1.0,phase_1,,,,,,,,,,,,,magenta,diamond
1291.0,8.0,4.0,1.0,3.0,3.0,532.9740710003534,3.0,1.0,phase_1,,,,,,,,,,,,,cyan,flipped triangle
343.0,6.0,1.0,1.0,1.0,1.0,755.7445369998277,3.0,1.0,phase_1,,,,,,,,,,,,,yellow,circle
1317.0,4.0,4.0,0.0,3.0,3.0,651.2815639998735,3.0,1.0,phase_1,,,,,,,,,,,,,blue,triangle
665.0,3.0,2.0,0.0,4.0,4.0,772.775066000122,3.0,1.0,phase_1,,,,,,,,,,,,,gray,hexagon
652.0,7.0,2.0,1.0,4.0,4.0,661.6832989998329,3.0,1.0,phase_1,,,,,,,,,,,,,orange,cross
139.0,5.0,0.5,1.0,1.0,1.0,708.6362240002018,3.0,1.0,phase_1,,,,,,,,,,,,,magenta,diamond
1286.0,4.0,4.0,0.0,4.0,4.0,619.2533139997067,3.0,1.0,phase_1,,,,,,,,,,,,,blue,triangle
1277.0,4.0,4.0,0.0,3.0,3.0,614.8652749998291,3.0,1.0,phase_1,,,,,,,,,,,,,blue,triangle
648.0,3.0,2.0,0.0,3.0,3.0,803.3644950000962,3.0,1.0,phase_1,,,,,,,,,,,,,gray,hexagon
0.0,7.0,0.0,1.0,3.0,3.0,680.8149089997642,3.0,1.0,phase_1,,,,,,,,,,,,,orange,cross
0.0,2.0,0.0,0.0,3.0,3.0,691.8752860001405,3.0,1.0,phase_1,,,,,,,,,,,,,white,I
343.0,2.0,1.0,0.0,3.0,3.0,522.0067270001891,3.0,1.0,phase_1,,,,,,,,,,,,,white,I
652.0,7.0,2.0,1.0,1.0,1.0,476.0921619999863,3.0,1.0,phase_1,,,,,,,,,,,,,orange,cross
305.0,6.0,1.0,1.0,1.0,1.0,436.5405030002875,4.0,1.0,phase_1,,,,,,,,,,,,,yellow,circle
655.0,3.0,2.0,0.0,1.0,1.0,476.9289600003503,4.0,1.0,phase_1,,,,,,,,,,,,,gray,hexagon
312.0,6.0,1.0,1.0,4.0,4.0,457.045360000393,4.0,1.0,phase_1,,,,,,,,,,,,,yellow,circle
0.0,5.0,0.0,1.0,3.0,3.0,582.3672810001881,4.0,1.0,phase_1,,,,,,,,,,,,,magenta,diamond
634.0,7.0,2.0,1.0,3.0,3.0,513.135205999788,4.0,1.0,phase_1,,,,,,,,,,,,,orange,cross
648.0,7.0,2.0,1.0,1.0,1.0,541.4436669998395,4.0,1.0,phase_1,,,,,,,,,,,,,orange,cross
182.0,5.0,0.5,1.0,4.0,4.0,410.7786370000212,4.0,1.0,phase_1,,,,,,,,,,,,,magenta,diamond
172.0,5.0,0.5,1.0,3.0,3.0,438.6400530001992,4.0,1.0,phase_1,,,,,,,,,,,,,magenta,diamond
180.0,5.0,0.5,1.0,4.0,4.0,569.3964529996265,4.0,1.0,phase_1,,,,,,,,,,,,,magenta,diamond
672.0,7.0,2.0,1.0,2.0,2.0,736.2377899999046,4.0,1.0,phase_1,,,,,,,,,,,,,orange,cross
168.0,5.0,0.5,1.0,2.0,2.0,568.581168000037,4.0,1.0,phase_1,,,,,,,,,,,,,magenta,diamond
348.0,6.0,1.0,1.0,3.0,3.0,559.139413000139,4.0,1.0,phase_1,,,,,,,,,,,,,yellow,circle
348.0,6.0,1.0,1.0,4.0,4.0,550.5336219998753,4.0,1.0,phase_1,,,,,,,,,,,,,yellow,circle
348.0,6.0,1.0,1.0,1.0,1.0,539.5295289999922,4.0,1.0,phase_1,,,,,,,,,,,,,yellow,circle
652.0,3.0,2.0,0.0,1.0,1.0,635.5475549999028,4.0,1.0,phase_1,,,,,,,,,,,,,gray,hexagon
150.0,5.0,0.5,1.0,1.0,1.0,578.0845649996991,4.0,1.0,phase_1,,,,,,,,,,,,,magenta,diamond
166.0,5.0,0.5,1.0,1.0,1.0,504.2598390000421,4.0,1.0,phase_1,,,,,,,,,,,,,magenta,diamond
0.0,2.0,0.0,0.0,1.0,1.0,541.7981079999663,4.0,1.0,phase_1,,,,,,,,,,,,,white,I
155.0,1.0,0.5,0.0,2.0,2.0,632.8620879999107,4.0,1.0,phase_1,,,,,,,,,,,,,green,square
345.0,6.0,1.0,1.0,4.0,4.0,597.558016000221,4.0,1.0,phase_1,,,,,,,,,,,,,yellow,circle
0.0,3.0,0.0,0.0,1.0,1.0,569.4666569997935,4.0,1.0,phase_1,,,,,,,,,,,,,gray,hexagon
175.0,1.0,0.5,0.0,4.0,4.0,606.6185720001158,4.0,1.0,phase_1,,,,,,,,,,,,,green,square
1305.0,4.0,4.0,0.0,4.0,4.0,718.3644679998906,4.0,1.0,phase_1,,,,,,,,,,,,,blue,triangle
1284.0,8.0,4.0,1.0,1.0,1.0,597.2970310003802,4.0,1.0,phase_1,,,,,,,,,,,,,cyan,flipped triangle
320.0,2.0,1.0,0.0,1.0,1.0,625.3571570000531,4.0,1.0,phase_1,,,,,,,,,,,,,white,I
0.0,7.0,0.0,1.0,1.0,1.0,475.3045279999242,4.0,1.0,phase_1,,,,,,,,,,,,,orange,cross
0.0,4.0,0.0,0.0,2.0,2.0,615.3315030001067,4.0,1.0,phase_1,,,,,,,,,,,,,blue,triangle
1278.0,4.0,4.0,0.0,1.0,1.0,532.9122829998596,4.0,1.0,phase_1,,,,,,,,,,,,,blue,triangle
165.0,5.0,0.5,1.0,1.0,1.0,616.893065000113,4.0,1.0,phase_1,,,,,,,,,,,,,magenta,diamond
0.0,3.0,0.0,0.0,3.0,3.0,747.0228870001847,4.0,1.0,phase_1,,,,,,,,,,,,,gray,hexagon
306.0,2.0,1.0,0.0,3.0,3.0,707.7113400000599,4.0,1.0,phase_1,,,,,,,,,,,,,white,I
0.0,4.0,0.0,0.0,4.0,4.0,623.0498840000109,4.0,1.0,phase_1,,,,,,,,,,,,,blue,triangle
660.0,7.0,2.0,1.0,3.0,3.0,549.215231999824,4.0,1.0,phase_1,,,,,,,,,,,,,orange,cross
165.0,1.0,0.5,0.0,2.0,2.0,669.5531340001253,4.0,1.0,phase_1,,,,,,,,,,,,,green,square
1322.0,8.0,4.0,1.0,1.0,1.0,467.2560989997691,4.0,1.0,phase_1,,,,,,,,,,,,,cyan,flipped triangle
320.0,2.0,1.0,0.0,4.0,4.0,605.952107000121,4.0,1.0,phase_1,,,,,,,,,,,,,white,I
660.0,3.0,2.0,0.0,2.0,2.0,662.1455439999409,4.0,1.0,phase_1,,,,,,,,,,,,,gray,hexagon
0.0,7.0,0.0,1.0,4.0,4.0,726.5928879996864,4.0,1.0,phase_1,,,,,,,,,,,,,orange,cross
326.0,2.0,1.0,0.0,2.0,2.0,717.5580830003128,4.0,1.0,phase_1,,,,,,,,,,,,,white,I
629.0,3.0,2.0,0.0,1.0,1.0,661.0943400000906,4.0,1.0,phase_1,,,,,,,,,,,,,gray,hexagon
175.0,5.0,0.5,1.0,1.0,1.0,605.3921349998745,4.0,1.0,phase_1,,,,,,,,,,,,,magenta,diamond
178.0,1.0,0.5,0.0,4.0,4.0,523.4530049997375,4.0,1.0,phase_1,,,,,,,,,,,,,green,square
1308.0,4.0,4.0,0.0,2.0,2.0,560.2628080000613,4.0,1.0,phase_1,,,,,,,,,,,,,blue,triangle
671.0,7.0,2.0,1.0,3.0,3.0,606.9996719998016,4.0,1.0,phase_1,,,,,,,,,,,,,orange,cross
312.0,6.0,1.0,1.0,3.0,3.0,651.8120789996829,4.0,1.0,phase_1,,,,,,,,,,,,,yellow,circle
1323.0,4.0,4.0,0.0,2.0,2.0,661.9222929998614,4.0,1.0,phase_1,,,,,,,,,,,,,blue,triangle
662.0,3.0,2.0,0.0,2.0,2.0,689.2141190000984,4.0,1.0,phase_1,,,,,,,,,,,,,gray,hexagon
670.0,7.0,2.0,1.0,1.0,1.0,541.8112780002957,4.0,1.0,phase_1,,,,,,,,,,,,,orange,cross
0.0,2.0,0.0,0.0,3.0,3.0,494.2673619998459,4.0,1.0,phase_1,,,,,,,,,,,,,white,I
0.0,1.0,0.0,0.0,3.0,3.0,679.992695999772,4.0,1.0,phase_1,,,,,,,,,,,,,green,square
302.0,2.0,1.0,0.0,4.0,4.0,681.5915540000788,4.0,1.0,phase_1,,,,,,,,,,,,,white,I
181.0,5.0,0.5,1.0,1.0,1.0,567.7385059998414,4.0,1.0,phase_1,,,,,,,,,,,,,magenta,diamond
1322.0,4.0,4.0,0.0,2.0,2.0,568.4906409996984,4.0,1.0,phase_1,,,,,,,,,,,,,blue,triangle
0.0,2.0,0.0,0.0,3.0,3.0,429.880888000298,4.0,1.0,phase_1,,,,,,,,,,,,,white,I
303.0,6.0,1.0,1.0,1.0,1.0,514.2625040002713,4.0,1.0,phase_1,,,,,,,,,,,,,yellow,circle
181.0,1.0,0.5,0.0,1.0,1.0,475.3417199999603,4.0,1.0,phase_1,,,,,,,,,,,,,green,square
644.0,7.0,2.0,1.0,1.0,1.0,680.4693080002835,4.0,1.0,phase_1,,,,,,,,,,,,,orange,cross
630.0,7.0,2.0,1.0,1.0,1.0,633.9450709997436,4.0,1.0,phase_1,,,,,,,,,,,,,orange,cross
322.0,2.0,1.0,0.0,4.0,4.0,951.7539710000163,4.0,1.0,phase_1,,,,,,,,,,,,,white,I
1291.0,8.0,4.0,1.0,3.0,3.0,707.3333329999514,4.0,1.0,phase_1,,,,,,,,,,,,,cyan,flipped triangle
151.0,1.0,0.5,0.0,3.0,3.0,623.7193020001541,4.0,1.0,phase_1,,,,,,,,,,,,,green,square
0.0,5.0,0.0,1.0,2.0,2.0,930.931547,4.0,1.0,phase_1,,,,,,,,,,,,,magenta,diamond
0.0,5.0,0.0,1.0,4.0,4.0,588.5900039997978,4.0,1.0,phase_1,,,,,,,,,,,,,magenta,diamond
1294.0,8.0,4.0,1.0,3.0,3.0,485.4769470002793,4.0,1.0,phase_1,,,,,,,,,,,,,cyan,flipped triangle
0.0,8.0,0.0,1.0,1.0,1.0,512.9847630000768,4.0,1.0,phase_1,,,,,,,,,,,,,cyan,flipped triangle
155.0,1.0,0.5,0.0,2.0,2.0,633.257821999905,4.0,1.0,phase_1,,,,,,,,,,,,,green,square
0.0,8.0,0.0,1.0,2.0,2.0,634.2324750003172,4.0,1.0,phase_1,,,,,,,,,,,,,cyan,flipped triangle
312.0,2.0,1.0,0.0,2.0,2.0,803.7652420002814,4.0,1.0,phase_1,,,,,,,,,,,,,white,I
648.0,7.0,2.0,1.0,2.0,2.0,690.0251729998672,4.0,1.0,phase_1,,,,,,,,,,,,,orange,cross
0.0,8.0,0.0,1.0,1.0,1.0,634.2279400000734,4.0,1.0,phase_1,,,,,,,,,,,,,cyan,flipped triangle
316.0,6.0,1.0,1.0,1.0,1.0,506.55254299999797,4.0,1.0,phase_1,,,,,,,,,,,,,yellow,circle
340.0,2.0,1.0,0.0,4.0,4.0,503.75002500004484,4.0,1.0,phase_1,,,,,,,,,,,,,white,I
1286.0,8.0,4.0,1.0,3.0,3.0,588.2565299998532,4.0,1.0,phase_1,,,,,,,,,,,,,cyan,flipped triangle
309.0,6.0,1.0,1.0,2.0,2.0,625.5223680000199,4.0,1.0,phase_1,,,,,,,,,,,,,yellow,circle
160.0,1.0,0.5,0.0,4.0,4.0,580.7994260003397,4.0,1.0,phase_1,,,,,,,,,,,,,green,square
1284.0,4.0,4.0,0.0,3.0,3.0,494.1018889999213,4.0,1.0,phase_1,,,,,,,,,,,,,blue,triangle
645.0,3.0,2.0,0.0,4.0,4.0,624.8769959997844,4.0,1.0,phase_1,,,,,,,,,,,,,gray,hexagon
327.0,6.0,1.0,1.0,2.0,2.0,580.301578000217,4.0,1.0,phase_1,,,,,,,,,,,,,yellow,circle
0.0,3.0,0.0,0.0,4.0,4.0,496.2176889998773,4.0,1.0,phase_1,,,,,,,,,,,,,gray,hexagon
349.0,6.0,1.0,1.0,4.0,4.0,579.5063640002809,4.0,1.0,phase_1,,,,,,,,,,,,,yellow,circle
630.0,7.0,2.0,1.0,4.0,4.0,793.2247949997873,4.0,1.0,phase_1,,,,,,,,,,,,,orange,cross
0.0,1.0,0.0,0.0,1.0,1.0,756.253549000121,4.0,1.0,phase_1,,,,,,,,,,,,,green,square
1318.0,8.0,4.0,1.0,2.0,2.0,672.204101999796,4.0,1.0,phase_1,,,,,,,,,,,,,cyan,flipped triangle
330.0,2.0,1.0,0.0,4.0,4.0,699.6768290000546,4.0,1.0,phase_1,,,,,,,,,,,,,white,I
1301.0,8.0,4.0,1.0,2.0,2.0,726.8029289998594,4.0,1.0,phase_1,,,,,,,,,,,,,cyan,flipped triangle
350.0,2.0,1.0,0.0,3.0,3.0,736.9129369999428,4.0,1.0,phase_1,,,,,,,,,,,,,white,I
0.0,4.0,0.0,0.0,3.0,3.0,527.7049589999478,4.0,1.0,phase_1,,,,,,,,,,,,,blue,triangle
151.0,5.0,0.5,1.0,3.0,3.0,531.8220909998672,4.0,1.0,phase_1,,,,,,,,,,,,,magenta,diamond
0.0,7.0,0.0,1.0,1.0,1.0,531.9952479999301,4.0,1.0,phase_1,,,,,,,,,,,,,orange,cross
314.0,6.0,1.0,1.0,3.0,3.0,552.2813070001575,4.0,1.0,phase_1,,,,,,,,,,,,,yellow,circle
182.0,1.0,0.5,0.0,4.0,4.0,569.6784000001571,4.0,1.0,phase_1,,,,,,,,,,,,,green,square
655.0,3.0,2.0,0.0,3.0,3.0,617.5642949997382,4.0,1.0,phase_1,,,,,,,,,,,,,gray,hexagon
320.0,6.0,1.0,1.0,2.0,2.0,607.3170370000298,4.0,1.0,phase_1,,,,,,,,,,,,,yellow,circle
630.0,3.0,2.0,0.0,3.0,3.0,633.8422009998794,4.0,1.0,phase_1,,,,,,,,,,,,,gray,hexagon
630.0,3.0,2.0,0.0,4.0,4.0,615.1901729999736,4.0,1.0,phase_1,,,,,,,,,,,,,gray,hexagon
142.0,1.0,0.5,0.0,1.0,1.0,626.1352809997334,4.0,1.0,phase_1,,,,,,,,,,,,,green,square
0.0,6.0,0.0,1.0,4.0,4.0,560.4199310000695,4.0,1.0,phase_1,,,,,,,,,,,,,yellow,circle
0.0,3.0,0.0,0.0,1.0,1.0,616.822546000094,4.0,1.0,phase_1,,,,,,,,,,,,,gray,hexagon
348.0,2.0,1.0,0.0,2.0,2.0,719.1226589998223,4.0,1.0,phase_1,,,,,,,,,,,,,white,I
1277.0,8.0,4.0,1.0,4.0,4.0,654.5079940001415,4.0,1.0,phase_1,,,,,,,,,,,,,cyan,flipped triangle
0.0,7.0,2.0,1.0,6.0,6.0,522.0033840000724,1.0,1.0,phase_2,go,250.0,250.0,1.0,,,,,,,,,orange,cross
0.0,3.0,2.0,0.0,5.0,5.0,1147.0998749996395,1.0,1.0,phase_2,go,250.0,250.0,1.0,,,,,,,,,gray,hexagon
0.0,6.0,1.0,1.0,5.0,0.0,0.0,1.0,1.0,phase_2,stop,250.0,250.0,4.0,,,,,,,,,yellow,circle
0.0,5.0,0.5,1.0,6.0,6.0,748.2295570002861,1.0,1.0,phase_2,go,300.0,250.0,1.0,,,,,,,,,magenta,diamond
0.0,5.0,0.5,1.0,5.0,5.0,949.2823250002402,1.0,1.0,phase_2,go,300.0,250.0,1.0,,,,,,,,,magenta,diamond
0.0,5.0,0.5,1.0,5.0,0.0,0.0,1.0,1.0,phase_2,stop,300.0,250.0,4.0,,,,,,,,,magenta,diamond
0.0,4.0,4.0,0.0,5.0,5.0,722.3538769999323,1.0,1.0,phase_2,go,350.0,250.0,1.0,,,,,,,,,blue,triangle
0.0,3.0,2.0,0.0,5.0,5.0,1097.0152990003044,1.0,1.0,phase_2,go,350.0,250.0,1.0,,,,,,,,,gray,hexagon
0.0,2.0,1.0,0.0,5.0,5.0,943.7933399999564,1.0,1.0,phase_2,go,350.0,250.0,1.0,,,,,,,,,white,I
0.0,1.0,0.5,0.0,6.0,6.0,927.8348739999274,1.0,1.0,phase_2,go,350.0,250.0,1.0,,,,,,,,,green,square
0.0,4.0,4.0,0.0,5.0,5.0,1095.2686390000963,1.0,1.0,phase_2,go,350.0,250.0,1.0,,,,,,,,,blue,triangle
0.0,2.0,1.0,0.0,5.0,5.0,1069.0183619999516,1.0,1.0,phase_2,go,350.0,250.0,1.0,,,,,,,,,white,I
0.0,8.0,4.0,1.0,6.0,0.0,0.0,1.0,1.0,phase_2,stop,350.0,250.0,4.0,,,,,,,,,cyan,flipped triangle
0.0,7.0,2.0,1.0,6.0,0.0,0.0,1.0,1.0,phase_2,stop,350.0,300.0,4.0,,,,,,,,,orange,cross
0.0,3.0,2.0,0.0,6.0,6.0,973.729786000149,1.0,1.0,phase_2,go,350.0,350.0,1.0,,,,,,,,,gray,hexagon
0.0,7.0,2.0,1.0,5.0,0.0,0.0,1.0,1.0,phase_2,stop,350.0,350.0,4.0,,,,,,,,,orange,cross
0.0,2.0,1.0,0.0,6.0,6.0,899.914383000123,1.0,1.0,phase_2,go,400.0,350.0,1.0,,,,,,,,,white,I
0.0,1.0,0.5,0.0,5.0,5.0,935.2682749999984,1.0,1.0,phase_2,go,400.0,350.0,1.0,,,,,,,,,green,square
0.0,7.0,2.0,1.0,6.0,0.0,0.0,1.0,1.0,phase_2,stop,400.0,350.0,4.0,,,,,,,,,orange,cross
0.0,3.0,2.0,0.0,6.0,6.0,879.3467360001159,1.0,1.0,phase_2,go,400.0,400.0,1.0,,,,,,,,,gray,hexagon
0.0,8.0,4.0,1.0,5.0,0.0,0.0,1.0,1.0,phase_2,stop,400.0,400.0,4.0,,,,,,,,,cyan,flipped triangle
0.0,2.0,1.0,0.0,6.0,6.0,945.9948500002612,1.0,1.0,phase_2,go,450.0,400.0,1.0,,,,,,,,,white,I
0.0,6.0,1.0,1.0,5.0,5.0,1068.6487839998335,1.0,1.0,phase_2,go,450.0,400.0,1.0,,,,,,,,,yellow,circle
0.0,6.0,1.0,1.0,6.0,0.0,0.0,1.0,1.0,phase_2,stop,450.0,400.0,4.0,,,,,,,,,yellow,circle
0.0,3.0,2.0,0.0,6.0,6.0,1246.4448099999572,1.0,1.0,phase_2,go,450.0,450.0,1.0,,,,,,,,,gray,hexagon
0.0,8.0,4.0,1.0,6.0,0.0,0.0,1.0,1.0,phase_2,stop,450.0,450.0,4.0,,,,,,,,,cyan,flipped triangle
0.0,1.0,0.5,0.0,5.0,5.0,992.9374210000788,1.0,1.0,phase_2,go,450.0,500.0,1.0,,,,,,,,,green,square
0.0,5.0,0.5,1.0,5.0,0.0,0.0,1.0,1.0,phase_2,stop,450.0,500.0,4.0,,,,,,,,,magenta,diamond
0.0,6.0,1.0,1.0,5.0,0.0,0.0,1.0,1.0,phase_2,stop,500.0,500.0,4.0,,,,,,,,,yellow,circle
0.0,6.0,1.0,1.0,6.0,0.0,0.0,1.0,1.0,phase_2,stop,550.0,500.0,4.0,,,,,,,,,yellow,circle
0.0,3.0,2.0,0.0,5.0,5.0,1042.6565469997513,1.0,1.0,phase_2,go,550.0,550.0,1.0,,,,,,,,,gray,hexagon
0.0,3.0,2.0,0.0,6.0,6.0,1013.6199039998246,1.0,1.0,phase_2,go,550.0,550.0,1.0,,,,,,,,,gray,hexagon
0.0,6.0,1.0,1.0,5.0,0.0,0.0,1.0,1.0,phase_2,stop,550.0,550.0,4.0,,,,,,,,,yellow,circle
0.0,1.0,0.5,0.0,6.0,6.0,1014.3402639996566,1.0,1.0,phase_2,go,600.0,550.0,1.0,,,,,,,,,green,square
0.0,6.0,1.0,1.0,6.0,0.0,0.0,1.0,1.0,phase_2,stop,600.0,550.0,4.0,,,,,,,,,yellow,circle
0.0,7.0,2.0,1.0,5.0,0.0,0.0,1.0,1.0,phase_2,stop,600.0,600.0,4.0,,,,,,,,,orange,cross
0.0,1.0,0.5,0.0,5.0,5.0,1049.831836000067,2.0,1.0,phase_2,go,650.0,600.0,1.0,,,,,,,,,green,square
0.0,2.0,1.0,0.0,5.0,5.0,1099.504636000347,2.0,1.0,phase_2,go,650.0,600.0,1.0,,,,,,,,,white,I
0.0,2.0,1.0,0.0,6.0,6.0,1205.3963000003023,2.0,1.0,phase_2,go,650.0,600.0,1.0,,,,,,,,,white,I
0.0,8.0,4.0,1.0,6.0,0.0,0.0,2.0,1.0,phase_2,stop,650.0,600.0,4.0,,,,,,,,,cyan,flipped triangle
0.0,1.0,0.5,0.0,6.0,6.0,1034.131004000301,2.0,1.0,phase_2,go,650.0,650.0,1.0,,,,,,,,,green,square
0.0,1.0,0.5,0.0,5.0,5.0,911.5769320001164,2.0,1.0,phase_2,go,650.0,650.0,1.0,,,,,,,,,green,square
0.0,6.0,1.0,1.0,6.0,6.0,931.6152810001768,2.0,1.0,phase_2,go,650.0,650.0,1.0,,,,,,,,,yellow,circle
0.0,8.0,4.0,1.0,6.0,6.0,846.0247120001441,2.0,1.0,phase_2,go,650.0,650.0,1.0,,,,,,,,,cyan,flipped triangle
0.0,5.0,0.5,1.0,5.0,0.0,0.0,2.0,1.0,phase_2,stop,650.0,650.0,4.0,,,,,,,,,magenta,diamond
0.0,2.0,1.0,0.0,6.0,6.0,991.9164880002428,2.0,1.0,phase_2,go,700.0,650.0,1.0,,,,,,,,,white,I
0.0,8.0,4.0,1.0,5.0,0.0,0.0,2.0,1.0,phase_2,stop,700.0,650.0,4.0,,,,,,,,,cyan,flipped triangle
0.0,5.0,0.5,1.0,5.0,0.0,0.0,2.0,1.0,phase_2,stop,750.0,650.0,4.0,,,,,,,,,magenta,diamond
0.0,7.0,2.0,1.0,5.0,5.0,1326.1691819998305,2.0,1.0,phase_2,go,800.0,650.0,1.0,,,,,,,,,orange,cross
0.0,5.0,0.5,1.0,5.0,0.0,0.0,2.0,1.0,phase_2,stop,800.0,650.0,4.0,,,,,,,,,magenta,diamond
0.0,8.0,4.0,1.0,6.0,0.0,0.0,2.0,1.0,phase_2,stop,850.0,650.0,4.0,,,,,,,,,cyan,flipped triangle
0.0,5.0,0.5,1.0,5.0,0.0,0.0,2.0,1.0,phase_2,stop,850.0,700.0,4.0,,,,,,,,,magenta,diamond
0.0,7.0,2.0,1.0,6.0,6.0,1145.8385259998067,2.0,1.0,phase_2,go,900.0,700.0,1.0,,,,,,,,,orange,cross
0.0,1.0,0.5,0.0,6.0,6.0,1360.1191210000252,2.0,1.0,phase_2,go,900.0,700.0,1.0,,,,,,,,,green,square
0.0,7.0,2.0,1.0,5.0,5.0,1002.2689339998578,2.0,1.0,phase_2,go,900.0,700.0,1.0,,,,,,,,,orange,cross
0.0,7.0,2.0,1.0,5.0,5.0,956.5408319999732,2.0,1.0,phase_2,stop,900.0,700.0,3.0,,,,,,,,,orange,cross
0.0,2.0,1.0,0.0,6.0,6.0,1239.8553119996905,2.0,1.0,phase_2,go,850.0,700.0,1.0,,,,,,,,,white,I
0.0,3.0,2.0,0.0,6.0,6.0,1089.856064000287,2.0,1.0,phase_2,go,850.0,700.0,1.0,,,,,,,,,gray,hexagon
0.0,8.0,4.0,1.0,6.0,0.0,0.0,2.0,1.0,phase_2,stop,850.0,700.0,4.0,,,,,,,,,cyan,flipped triangle
0.0,8.0,4.0,1.0,6.0,0.0,0.0,2.0,1.0,phase_2,stop,850.0,750.0,4.0,,,,,,,,,cyan,flipped triangle
0.0,3.0,2.0,0.0,6.0,6.0,1407.6815040002657,2.0,1.0,phase_2,go,850.0,800.0,1.0,,,,,,,,,gray,hexagon
0.0,4.0,4.0,0.0,5.0,5.0,1164.896384000258,2.0,1.0,phase_2,go,850.0,800.0,1.0,,,,,,,,,blue,triangle
0.0,7.0,2.0,1.0,6.0,0.0,0.0,2.0,1.0,phase_2,stop,850.0,800.0,4.0,,,,,,,,,orange,cross
0.0,1.0,0.5,0.0,5.0,5.0,1430.482007000137,2.0,1.0,phase_2,go,850.0,850.0,1.0,,,,,,,,,green,square
0.0,1.0,0.5,0.0,5.0,5.0,1444.719920999887,2.0,1.0,phase_2,go,850.0,850.0,1.0,,,,,,,,,green,square
0.0,6.0,1.0,1.0,5.0,0.0,0.0,2.0,1.0,phase_2,stop,850.0,850.0,4.0,,,,,,,,,yellow,circle
0.0,7.0,2.0,1.0,6.0,0.0,0.0,2.0,1.0,phase_2,stop,900.0,850.0,4.0,,,,,,,,,orange,cross
0.0,1.0,0.5,0.0,6.0,6.0,1384.9781389999407,2.0,1.0,phase_2,go,900.0,900.0,1.0,,,,,,,,,green,square
0.0,1.0,0.5,0.0,6.0,0.0,0.0,2.0,1.0,phase_2,go,900.0,900.0,5.0,,,,,,,,,green,square
0.0,2.0,1.0,0.0,5.0,0.0,0.0,2.0,1.0,phase_2,go,900.0,900.0,5.0,,,,,,,,,white,I
0.0,2.0,1.0,0.0,5.0,5.0,694.1160339997623,2.0,1.0,phase_2,go,900.0,900.0,1.0,,,,,,,,,white,I
0.0,6.0,1.0,1.0,6.0,6.0,1017.8505959997892,2.0,1.0,phase_2,go,900.0,900.0,1.0,,,,,,,,,yellow,circle
0.0,2.0,1.0,0.0,6.0,6.0,1308.9841070000148,3.0,1.0,phase_2,go,900.0,900.0,1.0,,,,,,,,,white,I
0.0,1.0,0.5,0.0,5.0,5.0,1108.458828000039,3.0,1.0,phase_2,go,900.0,900.0,1.0,,,,,,,,,green,square
0.0,8.0,4.0,1.0,6.0,0.0,0.0,3.0,1.0,phase_2,stop,900.0,900.0,4.0,,,,,,,,,cyan,flipped triangle
0.0,1.0,0.5,0.0,6.0,6.0,1193.686437999986,3.0,1.0,phase_2,go,900.0,950.0,1.0,,,,,,,,,green,square
0.0,1.0,0.5,0.0,6.0,6.0,986.230224999872,3.0,1.0,phase_2,go,900.0,950.0,1.0,,,,,,,,,green,square
0.0,3.0,2.0,0.0,6.0,6.0,1033.5643980001803,3.0,1.0,phase_2,go,900.0,950.0,1.0,,,,,,,,,gray,hexagon
0.0,3.0,2.0,0.0,6.0,6.0,865.6883319999906,3.0,1.0,phase_2,go,900.0,950.0,1.0,,,,,,,,,gray,hexagon
0.0,4.0,4.0,0.0,5.0,5.0,947.413399999732,3.0,1.0,phase_2,go,900.0,950.0,1.0,,,,,,,,,blue,triangle
0.0,1.0,0.5,0.0,5.0,5.0,893.4385600000496,3.0,1.0,phase_2,go,900.0,950.0,1.0,,,,,,,,,green,square
0.0,4.0,4.0,0.0,6.0,6.0,1005.3334909998739,3.0,1.0,phase_2,go,900.0,950.0,1.0,,,,,,,,,blue,triangle
0.0,5.0,0.5,1.0,6.0,6.0,1119.771905000107,3.0,1.0,phase_2,stop,900.0,950.0,3.0,,,,,,,,,magenta,diamond
0.0,6.0,1.0,1.0,5.0,5.0,1069.409448999977,3.0,1.0,phase_2,stop,900.0,900.0,3.0,,,,,,,,,yellow,circle
0.0,5.0,0.5,1.0,5.0,0.0,0.0,3.0,1.0,phase_2,stop,850.0,900.0,4.0,,,,,,,,,magenta,diamond
0.0,1.0,0.5,0.0,6.0,6.0,1445.3557330002695,3.0,1.0,phase_2,go,900.0,900.0,1.0,,,,,,,,,green,square
0.0,3.0,2.0,0.0,6.0,0.0,0.0,3.0,1.0,phase_2,go,900.0,900.0,5.0,,,,,,,,,gray,hexagon
0.0,3.0,2.0,0.0,5.0,5.0,1041.244814000038,3.0,1.0,phase_2,go,900.0,900.0,1.0,,,,,,,,,gray,hexagon
0.0,7.0,2.0,1.0,5.0,0.0,0.0,3.0,1.0,phase_2,stop,900.0,900.0,4.0,,,,,,,,,orange,cross
0.0,7.0,2.0,1.0,6.0,0.0,0.0,3.0,1.0,phase_2,stop,950.0,900.0,4.0,,,,,,,,,orange,cross
0.0,6.0,1.0,1.0,6.0,6.0,1228.0979219999608,3.0,1.0,phase_2,go,950.0,950.0,1.0,,,,,,,,,yellow,circle
0.0,1.0,0.5,0.0,6.0,6.0,1371.2983460000032,3.0,1.0,phase_2,go,950.0,950.0,1.0,,,,,,,,,green,square
0.0,2.0,1.0,0.0,5.0,5.0,1389.719753999998,3.0,1.0,phase_2,go,950.0,950.0,1.0,,,,,,,,,white,I
0.0,3.0,2.0,0.0,5.0,0.0,0.0,3.0,1.0,phase_2,go,950.0,950.0,5.0,,,,,,,,,gray,hexagon
0.0,5.0,0.5,1.0,6.0,6.0,1068.8830400004008,3.0,1.0,phase_2,go,950.0,950.0,1.0,,,,,,,,,magenta,diamond
0.0,7.0,2.0,1.0,5.0,5.0,1032.2423679999702,3.0,1.0,phase_2,go,950.0,950.0,1.0,,,,,,,,,orange,cross
0.0,7.0,2.0,1.0,5.0,5.0,1056.375769999704,3.0,1.0,phase_2,stop,950.0,950.0,3.0,,,,,,,,,orange,cross
0.0,2.0,1.0,0.0,6.0,6.0,1156.37672999992,3.0,1.0,phase_2,go,900.0,950.0,1.0,,,,,,,,,white,I
0.0,2.0,1.0,0.0,5.0,5.0,1024.0687580003396,3.0,1.0,phase_2,go,900.0,950.0,1.0,,,,,,,,,white,I
0.0,1.0,0.5,0.0,6.0,6.0,1051.3362179999604,3.0,1.0,phase_2,go,900.0,950.0,1.0,,,,,,,,,green,square
0.0,6.0,1.0,1.0,5.0,5.0,1103.0299620001642,3.0,1.0,phase_2,stop,900.0,950.0,3.0,,,,,,,,,yellow,circle
0.0,8.0,4.0,1.0,6.0,0.0,0.0,3.0,1.0,phase_2,stop,850.0,950.0,4.0,,,,,,,,,cyan,flipped triangle
0.0,2.0,1.0,0.0,6.0,6.0,1284.7333079998862,3.0,1.0,phase_2,go,850.0,1000.0,1.0,,,,,,,,,white,I
0.0,2.0,1.0,0.0,5.0,0.0,0.0,3.0,1.0,phase_2,go,850.0,1000.0,5.0,,,,,,,,,white,I
0.0,2.0,1.0,0.0,6.0,6.0,1050.8294330002173,3.0,1.0,phase_2,go,850.0,1000.0,1.0,,,,,,,,,white,I
0.0,6.0,1.0,1.0,5.0,0.0,0.0,3.0,1.0,phase_2,stop,850.0,1000.0,4.0,,,,,,,,,yellow,circle
0.0,5.0,0.5,1.0,5.0,5.0,1032.5792469998305,3.0,1.0,phase_2,stop,900.0,1000.0,3.0,,,,,,,,,magenta,diamond
0.0,7.0,2.0,1.0,5.0,0.0,0.0,3.0,1.0,phase_2,stop,850.0,1000.0,4.0,,,,,,,,,orange,cross
0.0,1.0,0.5,0.0,5.0,5.0,1196.5791779998654,4.0,1.0,phase_2,go,900.0,1000.0,1.0,,,,,,,,,green,square
0.0,8.0,4.0,1.0,5.0,0.0,0.0,4.0,1.0,phase_2,stop,900.0,1000.0,4.0,,,,,,,,,cyan,flipped triangle
0.0,4.0,4.0,0.0,6.0,6.0,1176.0302049997335,4.0,1.0,phase_2,go,950.0,1000.0,1.0,,,,,,,,,blue,triangle
0.0,7.0,2.0,1.0,6.0,6.0,1222.0390819998102,4.0,1.0,phase_2,go,950.0,1000.0,1.0,,,,,,,,,orange,cross
0.0,3.0,2.0,0.0,5.0,5.0,1281.0322079999423,4.0,1.0,phase_2,go,950.0,1000.0,1.0,,,,,,,,,gray,hexagon
0.0,4.0,4.0,0.0,5.0,5.0,1251.0453969998707,4.0,1.0,phase_2,go,950.0,1000.0,1.0,,,,,,,,,blue,triangle
0.0,1.0,0.5,0.0,5.0,5.0,961.405633999675,4.0,1.0,phase_2,go,950.0,1000.0,1.0,,,,,,,,,green,square
0.0,5.0,0.5,1.0,5.0,0.0,0.0,4.0,1.0,phase_2,stop,950.0,1000.0,4.0,,,,,,,,,magenta,diamond
0.0,5.0,0.5,1.0,6.0,6.0,1094.7889220001343,4.0,1.0,phase_2,stop,1000.0,1000.0,3.0,,,,,,,,,magenta,diamond
0.0,8.0,4.0,1.0,5.0,5.0,1251.7181650000566,4.0,1.0,phase_2,stop,1000.0,950.0,3.0,,,,,,,,,cyan,flipped triangle
0.0,3.0,2.0,0.0,6.0,6.0,1345.6084120002745,4.0,1.0,phase_2,go,950.0,950.0,1.0,,,,,,,,,gray,hexagon
0.0,3.0,2.0,0.0,5.0,5.0,1129.0817250001055,4.0,1.0,phase_2,go,950.0,950.0,1.0,,,,,,,,,gray,hexagon
0.0,4.0,4.0,0.0,6.0,6.0,1279.076960999646,4.0,1.0,phase_2,go,950.0,950.0,1.0,,,,,,,,,blue,triangle
0.0,6.0,1.0,1.0,5.0,0.0,0.0,4.0,1.0,phase_2,stop,950.0,950.0,4.0,,,,,,,,,yellow,circle
0.0,5.0,0.5,1.0,5.0,0.0,0.0,4.0,1.0,phase_2,stop,1000.0,950.0,4.0,,,,,,,,,magenta,diamond
0.0,6.0,1.0,1.0,6.0,6.0,1132.2865640004238,4.0,1.0,phase_2,stop,1050.0,950.0,3.0,,,,,,,,,yellow,circle
0.0,1.0,0.5,0.0,5.0,5.0,1155.7426379999924,4.0,1.0,phase_2,go,1050.0,900.0,1.0,,,,,,,,,green,square
0.0,4.0,4.0,0.0,6.0,6.0,1393.131263000214,4.0,1.0,phase_2,go,1050.0,900.0,1.0,,,,,,,,,blue,triangle
0.0,2.0,1.0,0.0,5.0,5.0,1240.599876000033,4.0,1.0,phase_2,go,1050.0,900.0,1.0,,,,,,,,,white,I
0.0,4.0,4.0,0.0,5.0,5.0,1352.4283439996907,4.0,1.0,phase_2,go,1050.0,900.0,1.0,,,,,,,,,blue,triangle
0.0,8.0,4.0,1.0,6.0,6.0,1362.671538000086,4.0,1.0,phase_2,go,1050.0,900.0,1.0,,,,,,,,,cyan,flipped triangle
0.0,5.0,0.5,1.0,6.0,0.0,0.0,4.0,1.0,phase_2,stop,1050.0,900.0,4.0,,,,,,,,,magenta,diamond
0.0,7.0,2.0,1.0,6.0,0.0,0.0,4.0,1.0,phase_2,stop,1050.0,950.0,4.0,,,,,,,,,orange,cross
0.0,5.0,0.5,1.0,6.0,0.0,0.0,4.0,1.0,phase_2,go,1050.0,1000.0,5.0,,,,,,,,,magenta,diamond
0.0,6.0,1.0,1.0,6.0,0.0,0.0,4.0,1.0,phase_2,stop,1050.0,1000.0,4.0,,,,,,,,,yellow,circle
0.0,2.0,1.0,0.0,6.0,6.0,1118.9377939999758,4.0,1.0,phase_2,go,1050.0,1050.0,1.0,,,,,,,,,white,I
0.0,3.0,2.0,0.0,5.0,5.0,1238.7328519998846,4.0,1.0,phase_2,go,1050.0,1050.0,1.0,,,,,,,,,gray,hexagon
0.0,7.0,2.0,1.0,6.0,0.0,0.0,4.0,1.0,phase_2,stop,1050.0,1050.0,4.0,,,,,,,,,orange,cross
0.0,2.0,1.0,0.0,5.0,5.0,1462.0820999998614,4.0,1.0,phase_2,go,1050.0,1100.0,1.0,,,,,,,,,white,I
0.0,2.0,1.0,0.0,5.0,0.0,0.0,4.0,1.0,phase_2,go,1050.0,1100.0,5.0,,,,,,,,,white,I
0.0,4.0,4.0,0.0,6.0,0.0,0.0,4.0,1.0,phase_2,go,1050.0,1100.0,5.0,,,,,,,,,blue,triangle
0.0,1.0,0.5,0.0,6.0,0.0,0.0,4.0,1.0,phase_2,go,1050.0,1100.0,5.0,,,,,,,,,green,square
0.0,2.0,1.0,0.0,5.0,5.0,1292.5181410000732,4.0,1.0,phase_2,go,1050.0,1100.0,1.0,,,,,,,,,white,I
0.0,7.0,2.0,1.0,6.0,6.0,1370.0058409999656,4.0,1.0,phase_2,stop,1050.0,1100.0,3.0,,,,,,,,,orange,cross
0.0,6.0,1.0,1.0,5.0,0.0,0.0,4.0,1.0,phase_2,stop,1050.0,1050.0,4.0,,,,,,,,,yellow,circle
0.0,6.0,1.0,1.0,6.0,6.0,1186.7085439998846,4.0,1.0,phase_2,stop,1100.0,1050.0,3.0,,,,,,,,,yellow,circle
0.0,2.0,1.0,0.0,6.0,6.0,1188.0348949998734,5.0,1.0,phase_2,go,1100.0,1000.0,1.0,,,,,,,,,white,I
0.0,3.0,2.0,0.0,6.0,6.0,1091.7424869999195,5.0,1.0,phase_2,go,1100.0,1000.0,1.0,,,,,,,,,gray,hexagon
0.0,5.0,0.5,1.0,6.0,6.0,1389.9562229998992,5.0,1.0,phase_2,go,1100.0,1000.0,1.0,,,,,,,,,magenta,diamond
0.0,5.0,0.5,1.0,5.0,5.0,1137.094624999918,5.0,1.0,phase_2,stop,1100.0,1000.0,3.0,,,,,,,,,magenta,diamond
0.0,5.0,0.5,1.0,6.0,0.0,0.0,5.0,1.0,phase_2,stop,1050.0,1000.0,4.0,,,,,,,,,magenta,diamond
0.0,6.0,1.0,1.0,6.0,0.0,0.0,5.0,1.0,phase_2,stop,1050.0,1050.0,4.0,,,,,,,,,yellow,circle
0.0,4.0,4.0,0.0,6.0,6.0,1386.8468450000364,5.0,1.0,phase_2,go,1050.0,1100.0,1.0,,,,,,,,,blue,triangle
0.0,8.0,4.0,1.0,6.0,6.0,1328.4410790001857,5.0,1.0,phase_2,go,1050.0,1100.0,1.0,,,,,,,,,cyan,flipped triangle
0.0,7.0,2.0,1.0,6.0,0.0,0.0,5.0,1.0,phase_2,stop,1050.0,1100.0,4.0,,,,,,,,,orange,cross
0.0,6.0,1.0,1.0,6.0,6.0,1477.050909999889,5.0,1.0,phase_2,go,1050.0,1150.0,1.0,,,,,,,,,yellow,circle
0.0,6.0,1.0,1.0,6.0,0.0,0.0,5.0,1.0,phase_2,stop,1050.0,1150.0,4.0,,,,,,,,,yellow,circle
0.0,3.0,2.0,0.0,6.0,6.0,1431.3604580001993,5.0,1.0,phase_2,go,1050.0,1200.0,1.0,,,,,,,,,gray,hexagon
0.0,6.0,1.0,1.0,6.0,6.0,1269.9289040001531,5.0,1.0,phase_2,stop,1050.0,1200.0,3.0,,,,,,,,,yellow,circle
0.0,8.0,4.0,1.0,5.0,5.0,1452.5338889998238,5.0,1.0,phase_2,go,1050.0,1150.0,1.0,,,,,,,,,cyan,flipped triangle
0.0,5.0,0.5,1.0,6.0,0.0,0.0,5.0,1.0,phase_2,stop,1050.0,1150.0,4.0,,,,,,,,,magenta,diamond
0.0,4.0,4.0,0.0,6.0,6.0,1480.8993310002734,5.0,1.0,phase_2,go,1050.0,1200.0,1.0,,,,,,,,,blue,triangle
0.0,4.0,4.0,0.0,6.0,0.0,0.0,5.0,1.0,phase_2,go,1050.0,1200.0,5.0,,,,,,,,,blue,triangle
0.0,4.0,4.0,0.0,5.0,5.0,1361.8510319997768,5.0,1.0,phase_2,go,1050.0,1200.0,1.0,,,,,,,,,blue,triangle
0.0,7.0,2.0,1.0,6.0,0.0,0.0,5.0,1.0,phase_2,stop,1050.0,1200.0,4.0,,,,,,,,,orange,cross
0.0,6.0,1.0,1.0,5.0,5.0,1381.1140089997025,5.0,1.0,phase_2,go,1050.0,1250.0,1.0,,,,,,,,,yellow,circle
0.0,7.0,2.0,1.0,6.0,0.0,0.0,5.0,1.0,phase_2,stop,1050.0,1250.0,4.0,,,,,,,,,orange,cross
0.0,1.0,0.5,0.0,5.0,5.0,1458.5974440001337,5.0,1.0,phase_2,go,1050.0,1300.0,1.0,,,,,,,,,green,square
0.0,7.0,2.0,1.0,6.0,0.0,0.0,5.0,1.0,phase_2,stop,1050.0,1300.0,4.0,,,,,,,,,orange,cross
0.0,4.0,4.0,0.0,6.0,0.0,0.0,5.0,1.0,phase_2,go,1050.0,1350.0,5.0,,,,,,,,,blue,triangle
0.0,2.0,1.0,0.0,6.0,0.0,0.0,5.0,1.0,phase_2,go,1050.0,1350.0,5.0,,,,,,,,,white,I
0.0,8.0,4.0,1.0,5.0,0.0,0.0,5.0,1.0,phase_2,stop,1050.0,1350.0,4.0,,,,,,,,,cyan,flipped triangle
0.0,3.0,2.0,0.0,6.0,6.0,1438.7582660001501,5.0,1.0,phase_2,go,1100.0,1350.0,1.0,,,,,,,,,gray,hexagon
0.0,8.0,4.0,1.0,5.0,5.0,1297.2691979998672,5.0,1.0,phase_2,go,1100.0,1350.0,1.0,,,,,,,,,cyan,flipped triangle
0.0,5.0,0.5,1.0,6.0,0.0,0.0,5.0,1.0,phase_2,stop,1100.0,1350.0,4.0,,,,,,,,,magenta,diamond
0.0,8.0,4.0,1.0,6.0,0.0,0.0,5.0,1.0,phase_2,stop,1100.0,1400.0,4.0,,,,,,,,,cyan,flipped triangle
0.0,5.0,0.5,1.0,5.0,0.0,0.0,5.0,1.0,phase_2,go,1100.0,1450.0,5.0,,,,,,,,,magenta,diamond
0.0,4.0,4.0,0.0,6.0,6.0,1307.028412999898,5.0,1.0,phase_2,go,1100.0,1450.0,1.0,,,,,,,,,blue,triangle
0.0,4.0,4.0,0.0,5.0,0.0,0.0,5.0,1.0,phase_2,go,1100.0,1450.0,5.0,,,,,,,,,blue,triangle
0.0,5.0,0.5,1.0,6.0,0.0,0.0,5.0,1.0,phase_2,stop,1100.0,1450.0,4.0,,,,,,,,,magenta,diamond
0.0,1.0,0.5,0.0,6.0,6.0,1473.8088029998837,5.0,1.0,phase_2,go,1100.0,1500.0,1.0,,,,,,,,,green,square
0.0,4.0,4.0,0.0,5.0,0.0,0.0,5.0,1.0,phase_2,go,1100.0,1500.0,5.0,,,,,,,,,blue,triangle
0.0,8.0,4.0,1.0,5.0,0.0,0.0,6.0,1.0,phase_2,stop,1100.0,1500.0,4.0,,,,,,,,,cyan,flipped triangle
0.0,3.0,2.0,0.0,5.0,5.0,1045.0085779998517,6.0,1.0,phase_2,go,1150.0,1500.0,1.0,,,,,,,,,gray,hexagon
0.0,1.0,0.5,0.0,5.0,5.0,1363.7385649999487,6.0,1.0,phase_2,go,1150.0,1500.0,1.0,,,,,,,,,green,square
0.0,8.0,4.0,1.0,5.0,5.0,1332.90966200002,6.0,1.0,phase_2,stop,1150.0,1500.0,3.0,,,,,,,,,cyan,flipped triangle
0.0,2.0,1.0,0.0,5.0,0.0,0.0,6.0,1.0,phase_2,go,1100.0,1500.0,5.0,,,,,,,,,white,I
0.0,6.0,1.0,1.0,5.0,5.0,1195.626958000048,6.0,1.0,phase_2,stop,1100.0,1500.0,3.0,,,,,,,,,yellow,circle
0.0,4.0,4.0,0.0,5.0,5.0,1153.8991060001536,6.0,1.0,phase_2,go,1050.0,1500.0,1.0,,,,,,,,,blue,triangle
0.0,6.0,1.0,1.0,6.0,0.0,0.0,6.0,1.0,phase_2,stop,1050.0,1500.0,4.0,,,,,,,,,yellow,circle
0.0,5.0,0.5,1.0,6.0,6.0,1332.8130750001037,6.0,1.0,phase_2,go,1050.0,1550.0,1.0,,,,,,,,,magenta,diamond
0.0,2.0,1.0,0.0,6.0,6.0,1363.0067130002317,6.0,1.0,phase_2,go,1050.0,1550.0,1.0,,,,,,,,,white,I
0.0,7.0,2.0,1.0,5.0,5.0,1225.5039540000323,6.0,1.0,phase_2,stop,1050.0,1550.0,3.0,,,,,,,,,orange,cross
0.0,4.0,4.0,0.0,6.0,6.0,1213.5291509998751,6.0,1.0,phase_2,go,1000.0,1550.0,1.0,,,,,,,,,blue,triangle
0.0,1.0,0.5,0.0,5.0,5.0,1314.456810000138,6.0,1.0,phase_2,go,1000.0,1550.0,1.0,,,,,,,,,green,square
0.0,8.0,4.0,1.0,5.0,5.0,1352.8655579998483,6.0,1.0,phase_2,go,1000.0,1550.0,1.0,,,,,,,,,cyan,flipped triangle
0.0,2.0,1.0,0.0,5.0,5.0,1336.6023430003224,6.0,1.0,phase_2,go,1000.0,1550.0,1.0,,,,,,,,,white,I
0.0,5.0,0.5,1.0,5.0,0.0,0.0,6.0,1.0,phase_2,stop,1000.0,1550.0,4.0,,,,,,,,,magenta,diamond
0.0,7.0,2.0,1.0,5.0,0.0,0.0,6.0,1.0,phase_2,stop,1050.0,1550.0,4.0,,,,,,,,,orange,cross
0.0,3.0,2.0,0.0,5.0,5.0,1437.9689399997917,6.0,1.0,phase_2,go,1100.0,1550.0,1.0,,,,,,,,,gray,hexagon
0.0,6.0,1.0,1.0,5.0,0.0,0.0,6.0,1.0,phase_2,stop,1100.0,1550.0,4.0,,,,,,,,,yellow,circle
0.0,8.0,4.0,1.0,5.0,0.0,0.0,6.0,1.0,phase_2,go,1150.0,1550.0,5.0,,,,,,,,,cyan,flipped triangle
0.0,4.0,4.0,0.0,5.0,0.0,0.0,6.0,1.0,phase_2,go,1150.0,1550.0,5.0,,,,,,,,,blue,triangle
0.0,6.0,1.0,1.0,5.0,0.0,0.0,6.0,1.0,phase_2,stop,1150.0,1550.0,4.0,,,,,,,,,yellow,circle
0.0,3.0,2.0,0.0,6.0,6.0,1277.3281760000827,6.0,1.0,phase_2,go,1200.0,1550.0,1.0,,,,,,,,,gray,hexagon
0.0,7.0,2.0,1.0,5.0,5.0,1230.2287769998657,6.0,1.0,phase_2,go,1200.0,1550.0,1.0,,,,,,,,,orange,cross
0.0,1.0,0.5,0.0,5.0,5.0,1304.3981650002934,6.0,1.0,phase_2,go,1200.0,1550.0,1.0,,,,,,,,,green,square
0.0,8.0,4.0,1.0,6.0,6.0,1317.9391050002778,6.0,1.0,phase_2,stop,1200.0,1550.0,3.0,,,,,,,,,cyan,flipped triangle
0.0,1.0,0.5,0.0,6.0,6.0,1418.7776419998954,6.0,1.0,phase_2,go,1200.0,1500.0,1.0,,,,,,,,,green,square
0.0,1.0,0.5,0.0,5.0,5.0,1277.048867999838,6.0,1.0,phase_2,go,1200.0,1500.0,1.0,,,,,,,,,green,square
0.0,7.0,2.0,1.0,5.0,5.0,1331.96616000032,6.0,1.0,phase_2,stop,1200.0,1500.0,3.0,,,,,,,,,orange,cross
0.0,4.0,4.0,0.0,6.0,6.0,1370.8110799998394,6.0,1.0,phase_2,go,1150.0,1500.0,1.0,,,,,,,,,blue,triangle
0.0,8.0,4.0,1.0,6.0,6.0,1154.1577189996133,6.0,1.0,phase_2,stop,1150.0,1500.0,3.0,,,,,,,,,cyan,flipped triangle
0.0,7.0,2.0,1.0,5.0,0.0,0.0,6.0,1.0,phase_2,stop,1150.0,1450.0,4.0,,,,,,,,,orange,cross
0.0,2.0,1.0,0.0,6.0,6.0,1260.570650999853,6.0,1.0,phase_2,go,1200.0,1450.0,1.0,,,,,,,,,white,I
0.0,8.0,4.0,1.0,6.0,6.0,1276.2771789998624,6.0,1.0,phase_2,stop,1200.0,1450.0,3.0,,,,,,,,,cyan,flipped triangle
0.0,3.0,2.0,0.0,5.0,0.0,0.0,6.0,1.0,phase_2,go,1200.0,1400.0,5.0,,,,,,,,,gray,hexagon
0.0,4.0,4.0,0.0,6.0,0.0,0.0,6.0,1.0,phase_2,go,1200.0,1400.0,5.0,,,,,,,,,blue,triangle
0.0,3.0,2.0,0.0,5.0,0.0,0.0,7.0,1.0,phase_2,go,1200.0,1400.0,5.0,,,,,,,,,gray,hexagon
0.0,1.0,0.5,0.0,6.0,6.0,1117.4761140000555,7.0,1.0,phase_2,go,1200.0,1400.0,1.0,,,,,,,,,green,square
0.0,4.0,4.0,0.0,6.0,6.0,1218.583673000012,7.0,1.0,phase_2,go,1200.0,1400.0,1.0,,,,,,,,,blue,triangle
0.0,5.0,0.5,1.0,5.0,5.0,1146.2256300001172,7.0,1.0,phase_2,go,1200.0,1400.0,1.0,,,,,,,,,magenta,diamond
0.0,5.0,0.5,1.0,6.0,6.0,1253.9336880004155,7.0,1.0,phase_2,stop,1200.0,1400.0,3.0,,,,,,,,,magenta,diamond
0.0,7.0,2.0,1.0,5.0,0.0,0.0,7.0,1.0,phase_2,stop,1200.0,1350.0,4.0,,,,,,,,,orange,cross
0.0,4.0,4.0,0.0,5.0,5.0,1465.4802519999066,7.0,1.0,phase_2,go,1250.0,1350.0,1.0,,,,,,,,,blue,triangle
0.0,3.0,2.0,0.0,5.0,5.0,1099.5579000000362,7.0,1.0,phase_2,go,1250.0,1350.0,1.0,,,,,,,,,gray,hexagon
0.0,6.0,1.0,1.0,5.0,5.0,1155.2774669999053,7.0,1.0,phase_2,stop,1250.0,1350.0,3.0,,,,,,,,,yellow,circle
0.0,6.0,1.0,1.0,5.0,5.0,1433.7454729998171,7.0,1.0,phase_2,stop,1200.0,1350.0,3.0,,,,,,,,,yellow,circle
0.0,4.0,4.0,0.0,5.0,0.0,0.0,7.0,1.0,phase_2,go,1150.0,1350.0,5.0,,,,,,,,,blue,triangle
0.0,8.0,4.0,1.0,5.0,5.0,1107.171483999991,7.0,1.0,phase_2,go,1150.0,1350.0,1.0,,,,,,,,,cyan,flipped triangle
0.0,7.0,2.0,1.0,6.0,6.0,1154.4480879997536,7.0,1.0,phase_2,stop,1150.0,1350.0,3.0,,,,,,,,,orange,cross
0.0,3.0,2.0,0.0,5.0,5.0,1315.3894249999212,7.0,1.0,phase_2,go,1150.0,1300.0,1.0,,,,,,,,,gray,hexagon
0.0,8.0,4.0,1.0,5.0,0.0,0.0,7.0,1.0,phase_2,stop,1150.0,1300.0,4.0,,,,,,,,,cyan,flipped triangle
0.0,2.0,1.0,0.0,6.0,0.0,0.0,7.0,1.0,phase_2,go,1200.0,1300.0,5.0,,,,,,,,,white,I
0.0,1.0,0.5,0.0,6.0,6.0,1468.1602989999192,7.0,1.0,phase_2,go,1200.0,1300.0,1.0,,,,,,,,,green,square
0.0,7.0,2.0,1.0,5.0,0.0,0.0,7.0,1.0,phase_2,stop,1200.0,1300.0,4.0,,,,,,,,,orange,cross
0.0,2.0,1.0,0.0,6.0,6.0,1465.1677090000703,7.0,1.0,phase_2,go,1250.0,1300.0,1.0,,,,,,,,,white,I
0.0,4.0,4.0,0.0,6.0,6.0,1345.4567919998226,7.0,1.0,phase_2,go,1250.0,1300.0,1.0,,,,,,,,,blue,triangle
0.0,8.0,4.0,1.0,6.0,6.0,1125.4043989997626,7.0,1.0,phase_2,go,1250.0,1300.0,1.0,,,,,,,,,cyan,flipped triangle
0.0,4.0,4.0,0.0,6.0,6.0,1362.9652620002162,7.0,1.0,phase_2,go,1250.0,1300.0,1.0,,,,,,,,,blue,triangle
0.0,2.0,1.0,0.0,6.0,6.0,1344.8089729999992,7.0,1.0,phase_2,go,1250.0,1300.0,1.0,,,,,,,,,white,I
0.0,2.0,1.0,0.0,5.0,5.0,1276.2644770000406,7.0,1.0,phase_2,go,1250.0,1300.0,1.0,,,,,,,,,white,I
0.0,1.0,0.5,0.0,6.0,6.0,1461.313811999844,7.0,1.0,phase_2,go,1250.0,1300.0,1.0,,,,,,,,,green,square
0.0,2.0,1.0,0.0,5.0,5.0,1222.614490000069,7.0,1.0,phase_2,go,1250.0,1300.0,1.0,,,,,,,,,white,I
0.0,8.0,4.0,1.0,5.0,0.0,0.0,7.0,1.0,phase_2,stop,1250.0,1300.0,4.0,,,,,,,,,cyan,flipped triangle
0.0,4.0,4.0,0.0,5.0,5.0,1297.600565999801,7.0,1.0,phase_2,go,1300.0,1300.0,1.0,,,,,,,,,blue,triangle
0.0,1.0,0.5,0.0,5.0,0.0,0.0,7.0,1.0,phase_2,go,1300.0,1300.0,5.0,,,,,,,,,green,square
0.0,7.0,2.0,1.0,5.0,0.0,0.0,7.0,1.0,phase_2,go,1300.0,1300.0,5.0,,,,,,,,,orange,cross
0.0,2.0,1.0,0.0,5.0,0.0,0.0,7.0,1.0,phase_2,go,1300.0,1300.0,5.0,,,,,,,,,white,I
0.0,3.0,2.0,0.0,5.0,5.0,1242.906407999726,7.0,1.0,phase_2,go,1300.0,1300.0,1.0,,,,,,,,,gray,hexagon
0.0,5.0,0.5,1.0,6.0,6.0,1420.481992999612,7.0,1.0,phase_2,stop,1300.0,1300.0,3.0,,,,,,,,,magenta,diamond
0.0,4.0,4.0,0.0,5.0,0.0,0.0,7.0,1.0,phase_2,go,1300.0,1250.0,5.0,,,,,,,,,blue,triangle
0.0,2.0,1.0,0.0,5.0,5.0,1484.163442999943,7.0,1.0,phase_2,go,1300.0,1250.0,1.0,,,,,,,,,white,I
0.0,8.0,4.0,1.0,5.0,5.0,1381.7421839999042,7.0,1.0,phase_2,stop,1300.0,1250.0,3.0,,,,,,,,,cyan,flipped triangle
0.0,4.0,4.0,0.0,6.0,6.0,1400.1274739998737,8.0,1.0,phase_2,go,1250.0,1250.0,1.0,,,,,,,,,blue,triangle
0.0,6.0,1.0,1.0,6.0,6.0,1391.3343569997778,8.0,1.0,phase_2,go,1250.0,1250.0,1.0,,,,,,,,,yellow,circle
0.0,5.0,0.5,1.0,6.0,6.0,1329.2003269998531,8.0,1.0,phase_2,stop,1250.0,1250.0,3.0,,,,,,,,,magenta,diamond
0.0,6.0,1.0,1.0,5.0,5.0,1387.0571809998182,8.0,1.0,phase_2,stop,1250.0,1200.0,3.0,,,,,,,,,yellow,circle
0.0,4.0,4.0,0.0,5.0,0.0,0.0,8.0,1.0,phase_2,go,1200.0,1200.0,5.0,,,,,,,,,blue,triangle
0.0,8.0,4.0,1.0,5.0,0.0,0.0,8.0,1.0,phase_2,stop,1200.0,1200.0,4.0,,,,,,,,,cyan,flipped triangle
0.0,6.0,1.0,1.0,6.0,6.0,1277.3373360000733,8.0,1.0,phase_2,go,1250.0,1200.0,1.0,,,,,,,,,yellow,circle
0.0,3.0,2.0,0.0,6.0,6.0,1399.6389140002066,8.0,1.0,phase_2,go,1250.0,1200.0,1.0,,,,,,,,,gray,hexagon
0.0,1.0,0.5,0.0,6.0,6.0,1325.0330539999595,8.0,1.0,phase_2,go,1250.0,1200.0,1.0,,,,,,,,,green,square
0.0,5.0,0.5,1.0,5.0,5.0,1137.744720000228,8.0,1.0,phase_2,stop,1250.0,1200.0,3.0,,,,,,,,,magenta,diamond
0.0,5.0,0.5,1.0,6.0,0.0,0.0,8.0,1.0,phase_2,stop,1200.0,1200.0,4.0,,,,,,,,,magenta,diamond
0.0,4.0,4.0,0.0,5.0,0.0,0.0,8.0,1.0,phase_2,go,1200.0,1250.0,5.0,,,,,,,,,blue,triangle
0.0,5.0,0.5,1.0,6.0,0.0,0.0,8.0,1.0,phase_2,stop,1200.0,1250.0,4.0,,,,,,,,,magenta,diamond
0.0,4.0,4.0,0.0,5.0,5.0,1275.724314999934,8.0,1.0,phase_2,go,1200.0,1300.0,1.0,,,,,,,,,blue,triangle
0.0,3.0,2.0,0.0,6.0,6.0,1468.0801949998568,8.0,1.0,phase_2,go,1200.0,1300.0,1.0,,,,,,,,,gray,hexagon
0.0,6.0,1.0,1.0,6.0,6.0,1388.6406859996896,8.0,1.0,phase_2,stop,1200.0,1300.0,3.0,,,,,,,,,yellow,circle
0.0,3.0,2.0,0.0,5.0,5.0,1360.501218999616,8.0,1.0,phase_2,go,1200.0,1250.0,1.0,,,,,,,,,gray,hexagon
0.0,4.0,4.0,0.0,6.0,6.0,1482.4265109996304,8.0,1.0,phase_2,go,1200.0,1250.0,1.0,,,,,,,,,blue,triangle
0.0,5.0,0.5,1.0,6.0,0.0,0.0,8.0,1.0,phase_2,stop,1200.0,1250.0,4.0,,,,,,,,,magenta,diamond
0.0,7.0,2.0,1.0,5.0,5.0,1295.3452980000293,8.0,1.0,phase_2,go,1200.0,1300.0,1.0,,,,,,,,,orange,cross
0.0,1.0,0.5,0.0,5.0,5.0,1256.3832760001787,8.0,1.0,phase_2,go,1200.0,1300.0,1.0,,,,,,,,,green,square
0.0,3.0,2.0,0.0,5.0,5.0,1219.9567729999217,8.0,1.0,phase_2,go,1200.0,1300.0,1.0,,,,,,,,,gray,hexagon
0.0,3.0,2.0,0.0,5.0,5.0,1238.685445000101,8.0,1.0,phase_2,go,1200.0,1300.0,1.0,,,,,,,,,gray,hexagon
0.0,3.0,2.0,0.0,6.0,6.0,1316.7892740002571,8.0,1.0,phase_2,go,1200.0,1300.0,1.0,,,,,,,,,gray,hexagon
0.0,5.0,0.5,1.0,5.0,5.0,1351.4381969998794,8.0,1.0,phase_2,stop,1200.0,1300.0,3.0,,,,,,,,,magenta,diamond
0.0,8.0,4.0,1.0,6.0,0.0,0.0,8.0,1.0,phase_2,stop,1150.0,1300.0,4.0,,,,,,,,,cyan,flipped triangle
0.0,7.0,2.0,1.0,6.0,6.0,0.21970799980400002,8.0,1.0,phase_2,stop,1150.0,1350.0,3.0,,,,,,,,,orange,cross
0.0,2.0,1.0,0.0,6.0,6.0,1381.2928920001468,8.0,1.0,phase_2,go,1150.0,1300.0,1.0,,,,,,,,,white,I
0.0,8.0,4.0,1.0,5.0,0.0,0.0,8.0,1.0,phase_2,stop,1150.0,1300.0,4.0,,,,,,,,,cyan,flipped triangle
0.0,7.0,2.0,1.0,6.0,0.0,0.0,8.0,1.0,phase_2,stop,1200.0,1300.0,4.0,,,,,,,,,orange,cross
0.0,8.0,4.0,1.0,6.0,0.0,0.0,8.0,1.0,phase_2,stop,1200.0,1350.0,4.0,,,,,,,,,cyan,flipped triangle
0.0,3.0,2.0,0.0,6.0,6.0,1455.6979170001796,8.0,1.0,phase_2,go,1200.0,1400.0,1.0,,,,,,,,,gray,hexagon
0.0,5.0,0.5,1.0,5.0,0.0,0.0,8.0,1.0,phase_2,go,1200.0,1400.0,5.0,,,,,,,,,magenta,diamond
0.0,6.0,1.0,1.0,5.0,5.0,1273.756996999964,8.0,1.0,phase_2,stop,1200.0,1400.0,3.0,,,,,,,,,yellow,circle
0.0,6.0,1.0,1.0,6.0,0.0,0.0,8.0,1.0,phase_2,go,1150.0,1400.0,5.0,,,,,,,,,yellow,circle
0.0,8.0,4.0,1.0,5.0,0.0,0.0,8.0,1.0,phase_2,stop,1150.0,1400.0,4.0,,,,,,,,,cyan,flipped triangle
0.0,5.0,0.5,1.0,7.0,2.0,4.8299999998562,1.0,1.0,phase_3,,,,,462.0,3.0,308.0,462.0,924.0,154.0,616.0,770.0,magenta,diamond
0.0,5.0,0.5,1.0,7.0,3.0,1.0920400000031,1.0,1.0,phase_3,,,,,384.0,2.0,576.0,1152.0,384.0,768.0,192.0,960.0,magenta,diamond
0.0,5.0,0.5,1.0,7.0,3.0,0.528456000211,1.0,1.0,phase_3,,,,,770.0,5.0,462.0,154.0,770.0,616.0,308.0,924.0,magenta,diamond
0.0,8.0,4.0,1.0,7.0,4.0,64.3043659993054,1.0,1.0,phase_3,,,,,576.0,3.0,1152.0,960.0,192.0,576.0,384.0,768.0,cyan,flipped triangle
0.0,1.0,0.5,0.0,7.0,4.0,1.3513039993995002,1.0,1.0,phase_3,,,,,675.0,5.0,405.0,270.0,810.0,675.0,540.0,135.0,green,square
0.0,8.0,4.0,1.0,7.0,5.0,93.7298969993207,1.0,1.0,phase_3,,,,,232.0,2.0,580.0,116.0,696.0,348.0,232.0,464.0,cyan,flipped triangle
0.0,7.0,2.0,1.0,7.0,5.0,0.2818030006892,1.0,1.0,phase_3,,,,,405.0,3.0,135.0,810.0,270.0,675.0,405.0,540.0,orange,cross
0.0,5.0,0.5,1.0,7.0,6.0,288.0023719999371,1.0,1.0,phase_3,,,,,1152.0,6.0,960.0,576.0,384.0,192.0,768.0,1152.0,magenta,diamond
0.0,6.0,1.0,1.0,7.0,6.0,223.0753049998384,1.0,1.0,phase_3,,,,,865.0,5.0,1038.0,519.0,692.0,346.0,173.0,865.0,yellow,circle
0.0,4.0,4.0,0.0,7.0,1.0,204.1759280000405,1.0,1.0,phase_3,,,,,580.0,5.0,580.0,348.0,696.0,116.0,232.0,464.0,blue,triangle
0.0,2.0,1.0,0.0,7.0,1.0,0.2751860001808,1.0,1.0,phase_3,,,,,384.0,2.0,384.0,1152.0,576.0,768.0,192.0,960.0,white,I
0.0,7.0,2.0,1.0,7.0,2.0,0.27256500015929996,1.0,1.0,phase_3,,,,,135.0,1.0,540.0,135.0,675.0,270.0,810.0,405.0,orange,cross
0.0,3.0,2.0,0.0,7.0,2.0,129.6497220000674,1.0,1.0,phase_3,,,,,346.0,2.0,692.0,346.0,1038.0,865.0,519.0,173.0,gray,hexagon
0.0,4.0,4.0,0.0,7.0,3.0,130.0799509999706,1.0,1.0,phase_3,,,,,540.0,4.0,675.0,405.0,540.0,810.0,270.0,135.0,blue,triangle
0.0,2.0,1.0,0.0,7.0,4.0,0.2629820000947,1.0,1.0,phase_3,,,,,576.0,3.0,192.0,1152.0,384.0,576.0,768.0,960.0,white,I
0.0,8.0,4.0,1.0,7.0,5.0,47.2305639996193,1.0,1.0,phase_3,,,,,154.0,1.0,616.0,462.0,770.0,924.0,154.0,308.0,cyan,flipped triangle
0.0,4.0,4.0,0.0,7.0,5.0,222.53014699981568,1.0,1.0,phase_3,,,,,405.0,3.0,135.0,675.0,810.0,270.0,405.0,540.0,blue,triangle
0.0,1.0,0.5,0.0,7.0,6.0,0.2181489999202,1.0,1.0,phase_3,,,,,192.0,1.0,960.0,1152.0,768.0,576.0,384.0,192.0,green,square
0.0,7.0,2.0,1.0,7.0,1.0,278.7642549992597,1.0,1.0,phase_3,,,,,1038.0,6.0,1038.0,173.0,865.0,519.0,346.0,692.0,orange,cross
0.0,6.0,1.0,1.0,7.0,1.0,112.2602140003437,1.0,1.0,phase_3,,,,,462.0,3.0,462.0,770.0,924.0,616.0,308.0,154.0,yellow,circle
0.0,4.0,4.0,0.0,7.0,1.0,1809.870201999729,2.0,1.0,phase_3,,,,,519.0,3.0,519.0,692.0,1038.0,173.0,346.0,865.0,blue,triangle
0.0,3.0,2.0,0.0,7.0,1.0,37.612512000123296,2.0,1.0,phase_3,,,,,232.0,2.0,232.0,580.0,116.0,696.0,464.0,348.0,gray,hexagon
0.0,4.0,4.0,0.0,7.0,2.0,0.2454280001984,2.0,1.0,phase_3,,,,,576.0,3.0,1152.0,576.0,960.0,768.0,192.0,384.0,blue,triangle
0.0,2.0,1.0,0.0,7.0,3.0,0.2401689998805,2.0,1.0,phase_3,,,,,675.0,5.0,810.0,405.0,675.0,540.0,135.0,270.0,white,I
0.0,5.0,0.5,1.0,7.0,3.0,0.25946599998860004,2.0,1.0,phase_3,,,,,580.0,5.0,696.0,232.0,580.0,116.0,464.0,348.0,magenta,diamond
0.0,8.0,4.0,1.0,7.0,4.0,0.24143900009219998,2.0,1.0,phase_3,,,,,675.0,5.0,405.0,810.0,540.0,675.0,270.0,135.0,cyan,flipped triangle
0.0,3.0,2.0,0.0,7.0,4.0,0.31599600060870003,2.0,1.0,phase_3,,,,,576.0,3.0,384.0,768.0,1152.0,576.0,192.0,960.0,gray,hexagon
0.0,6.0,1.0,1.0,7.0,5.0,0.27417099954609997,2.0,1.0,phase_3,,,,,308.0,2.0,924.0,462.0,770.0,154.0,308.0,616.0,yellow,circle
0.0,1.0,0.5,0.0,7.0,5.0,0.23123799928719999,2.0,1.0,phase_3,,,,,270.0,2.0,810.0,540.0,405.0,135.0,270.0,675.0,green,square
0.0,5.0,0.5,1.0,7.0,6.0,0.264903000243,2.0,1.0,phase_3,,,,,696.0,6.0,580.0,348.0,232.0,464.0,116.0,696.0,magenta,diamond
0.0,3.0,2.0,0.0,7.0,6.0,0.2772739999272,2.0,1.0,phase_3,,,,,348.0,3.0,232.0,464.0,696.0,116.0,580.0,348.0,gray,hexagon
0.0,1.0,0.5,0.0,7.0,1.0,0.2374780005993,2.0,1.0,phase_3,,,,,692.0,4.0,692.0,346.0,173.0,1038.0,865.0,519.0,green,square
0.0,7.0,2.0,1.0,7.0,2.0,0.23112899998519998,2.0,1.0,phase_3,,,,,116.0,1.0,348.0,116.0,696.0,232.0,580.0,464.0,orange,cross
0.0,2.0,1.0,0.0,7.0,2.0,0.26065400015789997,2.0,1.0,phase_3,,,,,116.0,1.0,464.0,116.0,580.0,696.0,348.0,232.0,white,I
0.0,2.0,1.0,0.0,7.0,2.0,0.2792080003928,2.0,1.0,phase_3,,,,,1038.0,6.0,346.0,1038.0,173.0,519.0,865.0,692.0,white,I
0.0,1.0,0.5,0.0,7.0,3.0,0.2492600006007,2.0,1.0,phase_3,,,,,348.0,3.0,696.0,116.0,348.0,464.0,232.0,580.0,green,square
0.0,3.0,2.0,0.0,7.0,3.0,0.24191399916159997,2.0,1.0,phase_3,,,,,1152.0,6.0,576.0,192.0,1152.0,384.0,960.0,768.0,gray,hexagon
0.0,8.0,4.0,1.0,7.0,4.0,0.2395780002188,2.0,1.0,phase_3,,,,,154.0,1.0,308.0,770.0,616.0,154.0,462.0,924.0,cyan,flipped triangle
0.0,7.0,2.0,1.0,7.0,4.0,0.29732799976040003,2.0,1.0,phase_3,,,,,154.0,1.0,770.0,924.0,616.0,154.0,308.0,462.0,orange,cross
0.0,6.0,1.0,1.0,7.0,5.0,0.2788849997159,2.0,1.0,phase_3,,,,,580.0,5.0,116.0,696.0,348.0,464.0,580.0,232.0,yellow,circle
0.0,2.0,1.0,0.0,7.0,6.0,0.266420999651,3.0,1.0,phase_3,,,,,270.0,2.0,135.0,405.0,675.0,540.0,810.0,270.0,white,I
0.0,7.0,2.0,1.0,7.0,5.0,0.2389539995419,3.0,1.0,phase_3,,,,,519.0,3.0,346.0,865.0,692.0,173.0,519.0,1038.0,orange,cross
0.0,6.0,1.0,1.0,7.0,4.0,0.2746979998846,3.0,1.0,phase_3,,,,,173.0,1.0,1038.0,519.0,346.0,173.0,865.0,692.0,yellow,circle
0.0,1.0,0.5,0.0,7.0,3.0,0.2433159997963,3.0,1.0,phase_3,,,,,770.0,5.0,154.0,924.0,770.0,616.0,462.0,308.0,green,square
0.0,7.0,2.0,1.0,7.0,2.0,0.2532749995225,3.0,1.0,phase_3,,,,,1152.0,6.0,768.0,1152.0,960.0,192.0,576.0,384.0,orange,cross
0.0,4.0,4.0,0.0,7.0,1.0,0.2783070003715,3.0,1.0,phase_3,,,,,232.0,2.0,232.0,580.0,348.0,116.0,696.0,464.0,blue,triangle
0.0,4.0,4.0,0.0,7.0,2.0,0.2532790003897,3.0,1.0,phase_3,,,,,346.0,2.0,519.0,346.0,692.0,865.0,1038.0,173.0,blue,triangle
0.0,5.0,0.5,1.0,7.0,3.0,0.2565269996921,3.0,1.0,phase_3,,,,,540.0,4.0,675.0,810.0,540.0,405.0,270.0,135.0,magenta,diamond
0.0,7.0,2.0,1.0,7.0,4.0,0.2637479992699,3.0,1.0,phase_3,,,,,1152.0,6.0,960.0,768.0,384.0,1152.0,192.0,576.0,orange,cross
0.0,4.0,4.0,0.0,7.0,5.0,0.27877399952549997,3.0,1.0,phase_3,,,,,924.0,6.0,462.0,308.0,770.0,616.0,924.0,154.0,blue,triangle
0.0,2.0,1.0,0.0,7.0,6.0,0.2823819995683,3.0,1.0,phase_3,,,,,616.0,4.0,462.0,308.0,924.0,154.0,770.0,616.0,white,I
0.0,6.0,1.0,1.0,7.0,5.0,0.2810569994835,3.0,1.0,phase_3,,,,,540.0,4.0,675.0,810.0,405.0,135.0,540.0,270.0,yellow,circle
0.0,1.0,0.5,0.0,7.0,4.0,0.2633009999044,3.0,1.0,phase_3,,,,,519.0,3.0,692.0,865.0,346.0,519.0,173.0,1038.0,green,square
0.0,7.0,2.0,1.0,7.0,3.0,0.27889000011779996,3.0,1.0,phase_3,,,,,696.0,6.0,116.0,348.0,696.0,464.0,232.0,580.0,orange,cross
0.0,8.0,4.0,1.0,7.0,2.0,0.26286100001010004,3.0,1.0,phase_3,,,,,768.0,4.0,384.0,768.0,1152.0,576.0,192.0,960.0,cyan,flipped triangle
0.0,7.0,2.0,1.0,7.0,1.0,0.2644850001161,3.0,1.0,phase_3,,,,,616.0,4.0,616.0,924.0,770.0,308.0,462.0,154.0,orange,cross
0.0,8.0,4.0,1.0,7.0,3.0,0.26773599984150004,3.0,1.0,phase_3,,,,,692.0,4.0,173.0,346.0,692.0,1038.0,865.0,519.0,cyan,flipped triangle
0.0,6.0,1.0,1.0,7.0,5.0,0.191760999769,3.0,1.0,phase_3,,,,,116.0,1.0,696.0,580.0,464.0,348.0,116.0,232.0,yellow,circle
0.0,2.0,1.0,0.0,7.0,6.0,0.2596010008346,3.0,1.0,phase_3,,,,,154.0,1.0,616.0,924.0,308.0,462.0,770.0,154.0,white,I
0.0,8.0,4.0,1.0,7.0,4.0,0.23615200007040002,3.0,1.0,phase_3,,,,,173.0,1.0,1038.0,692.0,865.0,173.0,346.0,519.0,cyan,flipped triangle
0.0,4.0,4.0,0.0,7.0,1.0,0.2815850002662,4.0,1.0,phase_3,,,,,192.0,1.0,192.0,576.0,960.0,768.0,1152.0,384.0,blue,triangle
0.0,2.0,1.0,0.0,7.0,1.0,0.2827810003509,4.0,1.0,phase_3,,,,,519.0,3.0,519.0,865.0,346.0,173.0,1038.0,692.0,white,I
0.0,1.0,0.5,0.0,7.0,1.0,0.28783200014,4.0,1.0,phase_3,,,,,768.0,4.0,768.0,576.0,192.0,384.0,1152.0,960.0,green,square
0.0,1.0,0.5,0.0,7.0,1.0,0.2458429999023,4.0,1.0,phase_3,,,,,348.0,3.0,348.0,116.0,696.0,464.0,232.0,580.0,green,square
0.0,4.0,4.0,0.0,7.0,1.0,0.2792400000544,4.0,1.0,phase_3,,,,,616.0,4.0,616.0,154.0,308.0,924.0,462.0,770.0,blue,triangle
0.0,3.0,2.0,0.0,7.0,1.0,0.27853599931399997,4.0,1.0,phase_3,,,,,154.0,1.0,154.0,308.0,770.0,616.0,462.0,924.0,gray,hexagon
0.0,5.0,0.5,1.0,7.0,1.0,0.2656249998835,4.0,1.0,phase_3,,,,,692.0,4.0,692.0,865.0,346.0,173.0,1038.0,519.0,magenta,diamond
0.0,3.0,2.0,0.0,7.0,1.0,0.2936639994004,4.0,1.0,phase_3,,,,,865.0,5.0,865.0,173.0,519.0,1038.0,692.0,346.0,gray,hexagon
0.0,8.0,4.0,1.0,7.0,1.0,0.2939189998869,4.0,1.0,phase_3,,,,,580.0,5.0,580.0,348.0,116.0,232.0,696.0,464.0,cyan,flipped triangle
0.0,3.0,2.0,0.0,7.0,1.0,0.2561499995863,4.0,1.0,phase_3,,,,,462.0,3.0,462.0,924.0,308.0,154.0,770.0,616.0,gray,hexagon
0.0,6.0,1.0,1.0,7.0,1.0,0.2899239998441,4.0,1.0,phase_3,,,,,768.0,4.0,768.0,192.0,576.0,384.0,1152.0,960.0,yellow,circle
0.0,5.0,0.5,1.0,7.0,1.0,0.2781160001177,4.0,1.0,phase_3,,,,,173.0,1.0,173.0,865.0,519.0,346.0,1038.0,692.0,magenta,diamond
0.0,1.0,0.5,0.0,7.0,1.0,0.2536769998187,4.0,1.0,phase_3,,,,,770.0,5.0,770.0,462.0,154.0,616.0,308.0,924.0,green,square
0.0,8.0,4.0,1.0,7.0,1.0,0.2756120002231,4.0,1.0,phase_3,,,,,810.0,6.0,810.0,540.0,135.0,675.0,270.0,405.0,cyan,flipped triangle
0.0,5.0,0.5,1.0,7.0,1.0,0.2648979998411,4.0,1.0,phase_3,,,,,675.0,5.0,675.0,405.0,540.0,270.0,810.0,135.0,magenta,diamond
0.0,3.0,2.0,0.0,7.0,1.0,0.1521129997854,4.0,1.0,phase_3,,,,,270.0,2.0,270.0,675.0,135.0,405.0,540.0,810.0,gray,hexagon
0.0,6.0,1.0,1.0,7.0,1.0,0.26446700030639997,4.0,1.0,phase_3,,,,,960.0,5.0,960.0,384.0,192.0,576.0,1152.0,768.0,yellow,circle
0.0,2.0,1.0,0.0,7.0,1.0,0.28807700073229997,4.0,1.0,phase_3,,,,,696.0,6.0,696.0,348.0,116.0,464.0,232.0,580.0,white,I
0.0,6.0,1.0,1.0,7.0,1.0,0.2231460002803,4.0,1.0,phase_3,,,,,675.0,5.0,675.0,270.0,540.0,405.0,135.0,810.0,yellow,circle
0.0,3.0,2.0,0.0,7.0,1.0,0.4106249998585,4.0,1.0,phase_3,,,,,270.0,2.0,270.0,540.0,810.0,405.0,135.0,675.0,gray,hexagon
