raw_reward_magnitude,stim_reward,stepwise_reward_magnitude,paired_with_stopping,stim_location,response,reaction_time,block,num_trial_presentations,which_phase,stop_signal_trial_type,left_SSD,right_SSD,accuracy,chosen_bidding_amount,chosen_bidding_level,possible_bid_1,possible_bid_2,possible_bid_3,possible_bid_4,possible_bid_5,possible_bid_6,color_text,shape_text
1303.0,4.0,4.0,0.0,1.0,1.0,397.0849490001455,1.0,1.0,phase_1,,,,,,,,,,,,,blue,diamond
1307.0,4.0,4.0,0.0,2.0,2.0,636.9081380003081,1.0,1.0,phase_1,,,,,,,,,,,,,blue,diamond
185.0,5.0,1.0,1.0,3.0,3.0,388.865467999949,1.0,1.0,phase_1,,,,,,,,,,,,,cyan,square
0.0,8.0,0.0,1.0,1.0,1.0,427.3569729998598,1.0,1.0,phase_1,,,,,,,,,,,,,orange,I
171.0,5.0,1.0,1.0,1.0,1.0,397.0543299997189,1.0,1.0,phase_1,,,,,,,,,,,,,cyan,square
173.0,1.0,1.0,0.0,2.0,2.0,277.9409980003038,1.0,2.0,phase_1,,,,,,,,,,,,,white,cross
174.0,5.0,1.0,1.0,3.0,3.0,296.1914030001935,1.0,1.0,phase_1,,,,,,,,,,,,,cyan,square
660.0,7.0,3.0,1.0,1.0,1.0,498.9135760001773,1.0,1.0,phase_1,,,,,,,,,,,,,magenta,hexagon
0.0,8.0,0.0,1.0,3.0,3.0,313.8633650000884,1.0,1.0,phase_1,,,,,,,,,,,,,orange,I
0.0,3.0,0.0,0.0,4.0,4.0,331.6428989996893,1.0,1.0,phase_1,,,,,,,,,,,,,yellow,circle
654.0,3.0,3.0,0.0,1.0,1.0,268.18836200027357,1.0,1.0,phase_1,,,,,,,,,,,,,yellow,circle
665.0,3.0,3.0,0.0,2.0,2.0,305.1931869999862,1.0,1.0,phase_1,,,,,,,,,,,,,yellow,circle
1315.0,4.0,4.0,0.0,2.0,2.0,443.4765089999928,1.0,1.0,phase_1,,,,,,,,,,,,,blue,diamond
1303.0,8.0,4.0,1.0,1.0,1.0,380.3130109999983,1.0,1.0,phase_1,,,,,,,,,,,,,orange,I
1303.0,8.0,4.0,1.0,3.0,3.0,352.2770909999053,1.0,1.0,phase_1,,,,,,,,,,,,,orange,I
0.0,7.0,0.0,1.0,1.0,1.0,360.1093279999077,1.0,1.0,phase_1,,,,,,,,,,,,,magenta,hexagon
668.0,7.0,3.0,1.0,3.0,3.0,259.3116189996181,1.0,1.0,phase_1,,,,,,,,,,,,,magenta,hexagon
181.0,5.0,1.0,1.0,1.0,1.0,380.1350140001887,1.0,1.0,phase_1,,,,,,,,,,,,,cyan,square
330.0,2.0,2.0,0.0,4.0,4.0,341.5684060000785,1.0,1.0,phase_1,,,,,,,,,,,,,gray,triangle
0.0,5.0,0.0,1.0,1.0,1.0,498.7402530000508,1.0,1.0,phase_1,,,,,,,,,,,,,cyan,square
0.0,8.0,0.0,1.0,3.0,3.0,277.5657810002485,1.0,1.0,phase_1,,,,,,,,,,,,,orange,I
335.0,2.0,2.0,0.0,2.0,2.0,324.8745920000147,1.0,1.0,phase_1,,,,,,,,,,,,,gray,triangle
0.0,6.0,0.0,1.0,2.0,2.0,378.4086640002897,1.0,1.0,phase_1,,,,,,,,,,,,,green,flipped triangle
667.0,3.0,3.0,0.0,1.0,1.0,498.8811590001205,1.0,1.0,phase_1,,,,,,,,,,,,,yellow,circle
657.0,7.0,3.0,1.0,2.0,2.0,231.6194049999467,1.0,2.0,phase_1,,,,,,,,,,,,,magenta,hexagon
630.0,3.0,3.0,0.0,4.0,4.0,351.8606010002258,1.0,1.0,phase_1,,,,,,,,,,,,,yellow,circle
668.0,3.0,3.0,0.0,4.0,4.0,499.5090869997511,1.0,1.0,phase_1,,,,,,,,,,,,,yellow,circle
323.0,6.0,2.0,1.0,1.0,1.0,545.9530950001863,1.0,1.0,phase_1,,,,,,,,,,,,,green,flipped triangle
1291.0,4.0,4.0,0.0,3.0,3.0,408.2795809999879,1.0,1.0,phase_1,,,,,,,,,,,,,blue,diamond
171.0,1.0,1.0,0.0,4.0,4.0,462.5355849998414,1.0,1.0,phase_1,,,,,,,,,,,,,white,cross
634.0,7.0,3.0,1.0,2.0,2.0,426.1860059996252,1.0,2.0,phase_1,,,,,,,,,,,,,magenta,hexagon
181.0,1.0,1.0,0.0,3.0,3.0,242.3286769999322,1.0,1.0,phase_1,,,,,,,,,,,,,white,cross
1302.0,4.0,4.0,0.0,4.0,4.0,400.3720499999872,1.0,1.0,phase_1,,,,,,,,,,,,,blue,diamond
153.0,1.0,1.0,0.0,4.0,4.0,447.2472180000295,1.0,1.0,phase_1,,,,,,,,,,,,,white,cross
0.0,3.0,0.0,0.0,4.0,4.0,379.1750209998099,1.0,1.0,phase_1,,,,,,,,,,,,,yellow,circle
648.0,3.0,3.0,0.0,2.0,2.0,567.3595299999761,1.0,1.0,phase_1,,,,,,,,,,,,,yellow,circle
1298.0,4.0,4.0,0.0,2.0,2.0,436.5329329998531,1.0,1.0,phase_1,,,,,,,,,,,,,blue,diamond
673.0,7.0,3.0,1.0,1.0,1.0,399.8201980002704,1.0,1.0,phase_1,,,,,,,,,,,,,magenta,hexagon
0.0,1.0,0.0,0.0,4.0,4.0,371.9022020000011,1.0,1.0,phase_1,,,,,,,,,,,,,white,cross
177.0,5.0,1.0,1.0,2.0,2.0,437.2022029997424,1.0,1.0,phase_1,,,,,,,,,,,,,cyan,square
348.0,2.0,2.0,0.0,3.0,3.0,666.0376459999497,1.0,1.0,phase_1,,,,,,,,,,,,,gray,triangle
165.0,1.0,1.0,0.0,3.0,3.0,381.6092439997192,1.0,1.0,phase_1,,,,,,,,,,,,,white,cross
175.0,5.0,1.0,1.0,2.0,2.0,474.671409000166,1.0,1.0,phase_1,,,,,,,,,,,,,cyan,square
639.0,3.0,3.0,0.0,1.0,1.0,409.0295240002888,1.0,1.0,phase_1,,,,,,,,,,,,,yellow,circle
0.0,7.0,0.0,1.0,3.0,3.0,298.2942110002113,1.0,1.0,phase_1,,,,,,,,,,,,,magenta,hexagon
334.0,6.0,2.0,1.0,1.0,1.0,390.2289130001009,1.0,1.0,phase_1,,,,,,,,,,,,,green,flipped triangle
636.0,7.0,3.0,1.0,3.0,3.0,371.9799909999892,1.0,1.0,phase_1,,,,,,,,,,,,,magenta,hexagon
1291.0,8.0,4.0,1.0,1.0,1.0,446.5091310003117,1.0,1.0,phase_1,,,,,,,,,,,,,orange,I
344.0,2.0,2.0,0.0,3.0,3.0,364.199367999845,1.0,1.0,phase_1,,,,,,,,,,,,,gray,triangle
0.0,4.0,0.0,0.0,4.0,4.0,437.500135999926,1.0,1.0,phase_1,,,,,,,,,,,,,blue,diamond
1296.0,8.0,4.0,1.0,2.0,2.0,466.1394749996361,1.0,1.0,phase_1,,,,,,,,,,,,,orange,I
327.0,2.0,2.0,0.0,1.0,1.0,343.5586590003368,1.0,1.0,phase_1,,,,,,,,,,,,,gray,triangle
1310.0,4.0,4.0,0.0,1.0,1.0,316.0459780001474,1.0,1.0,phase_1,,,,,,,,,,,,,blue,diamond
0.0,2.0,0.0,0.0,1.0,1.0,315.4100440001457,1.0,1.0,phase_1,,,,,,,,,,,,,gray,triangle
346.0,6.0,2.0,1.0,2.0,2.0,742.093339999883,1.0,1.0,phase_1,,,,,,,,,,,,,green,flipped triangle
314.0,6.0,2.0,1.0,2.0,2.0,295.4723849998117,1.0,1.0,phase_1,,,,,,,,,,,,,green,flipped triangle
170.0,1.0,1.0,0.0,2.0,2.0,370.0263129999257,1.0,1.0,phase_1,,,,,,,,,,,,,white,cross
142.0,5.0,1.0,1.0,3.0,3.0,378.8485559998662,1.0,1.0,phase_1,,,,,,,,,,,,,cyan,square
659.0,3.0,3.0,0.0,2.0,2.0,444.8164589998669,1.0,1.0,phase_1,,,,,,,,,,,,,yellow,circle
1299.0,4.0,4.0,0.0,4.0,4.0,435.1273070001298,1.0,1.0,phase_1,,,,,,,,,,,,,blue,diamond
663.0,3.0,3.0,0.0,4.0,4.0,390.4329179999877,1.0,1.0,phase_1,,,,,,,,,,,,,yellow,circle
0.0,5.0,0.0,1.0,1.0,1.0,572.9581110003892,1.0,1.0,phase_1,,,,,,,,,,,,,cyan,square
326.0,2.0,2.0,0.0,4.0,4.0,399.4561579997935,1.0,1.0,phase_1,,,,,,,,,,,,,gray,triangle
0.0,4.0,0.0,0.0,4.0,4.0,306.3124499999503,1.0,1.0,phase_1,,,,,,,,,,,,,blue,diamond
1278.0,8.0,4.0,1.0,3.0,3.0,342.6503410000805,1.0,1.0,phase_1,,,,,,,,,,,,,orange,I
175.0,1.0,1.0,0.0,1.0,1.0,555.3256890002558,1.0,1.0,phase_1,,,,,,,,,,,,,white,cross
671.0,3.0,3.0,0.0,4.0,4.0,352.4660199996106,1.0,1.0,phase_1,,,,,,,,,,,,,yellow,circle
139.0,1.0,1.0,0.0,2.0,2.0,446.3961060000656,1.0,1.0,phase_1,,,,,,,,,,,,,white,cross
650.0,7.0,3.0,1.0,4.0,4.0,471.8068789998142,1.0,1.0,phase_1,,,,,,,,,,,,,magenta,hexagon
152.0,1.0,1.0,0.0,1.0,1.0,398.9680110003064,1.0,1.0,phase_1,,,,,,,,,,,,,white,cross
1312.0,8.0,4.0,1.0,3.0,3.0,304.9453720000201,1.0,1.0,phase_1,,,,,,,,,,,,,orange,I
1321.0,4.0,4.0,0.0,1.0,1.0,425.5169859998204,1.0,1.0,phase_1,,,,,,,,,,,,,blue,diamond
328.0,2.0,2.0,0.0,3.0,3.0,388.7709350001387,1.0,1.0,phase_1,,,,,,,,,,,,,gray,triangle
1317.0,4.0,4.0,0.0,4.0,4.0,436.1512850000508,1.0,1.0,phase_1,,,,,,,,,,,,,blue,diamond
1298.0,8.0,4.0,1.0,4.0,4.0,408.4900119996746,1.0,1.0,phase_1,,,,,,,,,,,,,orange,I
314.0,2.0,2.0,0.0,1.0,1.0,434.3432379996557,1.0,1.0,phase_1,,,,,,,,,,,,,gray,triangle
307.0,2.0,2.0,0.0,2.0,2.0,499.3123269996431,1.0,1.0,phase_1,,,,,,,,,,,,,gray,triangle
0.0,1.0,0.0,0.0,1.0,1.0,387.5541990000783,1.0,1.0,phase_1,,,,,,,,,,,,,white,cross
0.0,2.0,0.0,0.0,3.0,3.0,408.3012969999799,1.0,1.0,phase_1,,,,,,,,,,,,,gray,triangle
153.0,5.0,1.0,1.0,1.0,1.0,314.2268199999307,1.0,1.0,phase_1,,,,,,,,,,,,,cyan,square
138.0,1.0,1.0,0.0,2.0,2.0,425.4032540002299,1.0,1.0,phase_1,,,,,,,,,,,,,white,cross
171.0,5.0,1.0,1.0,4.0,4.0,425.8154819999618,1.0,1.0,phase_1,,,,,,,,,,,,,cyan,square
631.0,3.0,3.0,0.0,3.0,3.0,399.2457479998847,1.0,1.0,phase_1,,,,,,,,,,,,,yellow,circle
1317.0,8.0,4.0,1.0,3.0,3.0,380.0205870002173,1.0,1.0,phase_1,,,,,,,,,,,,,orange,I
1282.0,4.0,4.0,0.0,1.0,1.0,334.5030989999031,1.0,1.0,phase_1,,,,,,,,,,,,,blue,diamond
645.0,7.0,3.0,1.0,4.0,4.0,359.5726849998755,1.0,1.0,phase_1,,,,,,,,,,,,,magenta,hexagon
309.0,6.0,2.0,1.0,4.0,4.0,417.2451589997763,1.0,1.0,phase_1,,,,,,,,,,,,,green,flipped triangle
0.0,7.0,0.0,1.0,4.0,4.0,353.1183879999844,1.0,1.0,phase_1,,,,,,,,,,,,,magenta,hexagon
626.0,7.0,3.0,1.0,3.0,3.0,296.2737970001399,1.0,1.0,phase_1,,,,,,,,,,,,,magenta,hexagon
671.0,7.0,3.0,1.0,4.0,4.0,343.8011319999532,1.0,1.0,phase_1,,,,,,,,,,,,,magenta,hexagon
1300.0,8.0,4.0,1.0,1.0,1.0,352.7006660001461,1.0,1.0,phase_1,,,,,,,,,,,,,orange,I
0.0,2.0,0.0,0.0,4.0,4.0,444.7726220000731,1.0,1.0,phase_1,,,,,,,,,,,,,gray,triangle
0.0,2.0,0.0,0.0,4.0,4.0,399.4397420001405,1.0,1.0,phase_1,,,,,,,,,,,,,gray,triangle
145.0,1.0,1.0,0.0,1.0,1.0,323.9767949999077,1.0,1.0,phase_1,,,,,,,,,,,,,white,cross
141.0,1.0,1.0,0.0,1.0,1.0,519.8079599999801,1.0,1.0,phase_1,,,,,,,,,,,,,white,cross
0.0,6.0,0.0,1.0,3.0,3.0,342.8199999998469,1.0,1.0,phase_1,,,,,,,,,,,,,green,flipped triangle
0.0,4.0,0.0,0.0,4.0,4.0,324.1273070002535,1.0,1.0,phase_1,,,,,,,,,,,,,blue,diamond
151.0,5.0,1.0,1.0,2.0,2.0,619.9749259999408,1.0,1.0,phase_1,,,,,,,,,,,,,cyan,square
1299.0,8.0,4.0,1.0,3.0,3.0,304.9851420000777,1.0,3.0,phase_1,,,,,,,,,,,,,orange,I
301.0,6.0,2.0,1.0,3.0,3.0,324.651281000115,1.0,1.0,phase_1,,,,,,,,,,,,,green,flipped triangle
0.0,3.0,0.0,0.0,3.0,3.0,453.5742499997468,2.0,1.0,phase_1,,,,,,,,,,,,,yellow,circle
648.0,7.0,3.0,1.0,4.0,4.0,397.166302000187,2.0,1.0,phase_1,,,,,,,,,,,,,magenta,hexagon
673.0,3.0,3.0,0.0,3.0,3.0,425.8712109999578,2.0,1.0,phase_1,,,,,,,,,,,,,yellow,circle
0.0,2.0,0.0,0.0,1.0,1.0,295.7629489997089,2.0,2.0,phase_1,,,,,,,,,,,,,gray,triangle
665.0,7.0,3.0,1.0,1.0,1.0,479.480761999639,2.0,1.0,phase_1,,,,,,,,,,,,,magenta,hexagon
0.0,4.0,0.0,0.0,1.0,1.0,351.3301509997291,2.0,1.0,phase_1,,,,,,,,,,,,,blue,diamond
177.0,5.0,1.0,1.0,4.0,4.0,351.3087820001601,2.0,1.0,phase_1,,,,,,,,,,,,,cyan,square
310.0,2.0,2.0,0.0,1.0,1.0,537.0662489999631,2.0,1.0,phase_1,,,,,,,,,,,,,gray,triangle
336.0,6.0,2.0,1.0,4.0,4.0,333.5853879998467,2.0,1.0,phase_1,,,,,,,,,,,,,green,flipped triangle
664.0,3.0,3.0,0.0,2.0,2.0,526.767789999667,2.0,1.0,phase_1,,,,,,,,,,,,,yellow,circle
627.0,3.0,3.0,0.0,1.0,1.0,434.7964839998894,2.0,1.0,phase_1,,,,,,,,,,,,,yellow,circle
643.0,3.0,3.0,0.0,4.0,4.0,304.8933360000774,2.0,1.0,phase_1,,,,,,,,,,,,,yellow,circle
330.0,6.0,2.0,1.0,3.0,3.0,360.380382999665,2.0,1.0,phase_1,,,,,,,,,,,,,green,flipped triangle
1278.0,8.0,4.0,1.0,1.0,1.0,387.9341789997852,2.0,1.0,phase_1,,,,,,,,,,,,,orange,I
301.0,2.0,2.0,0.0,3.0,3.0,444.2612220000228,2.0,1.0,phase_1,,,,,,,,,,,,,gray,triangle
657.0,3.0,3.0,0.0,2.0,2.0,424.8670130000391,2.0,1.0,phase_1,,,,,,,,,,,,,yellow,circle
0.0,8.0,0.0,1.0,1.0,1.0,582.473901999947,2.0,1.0,phase_1,,,,,,,,,,,,,orange,I
0.0,7.0,0.0,1.0,4.0,4.0,353.1209170000693,2.0,1.0,phase_1,,,,,,,,,,,,,magenta,hexagon
0.0,2.0,0.0,0.0,2.0,2.0,517.109408000124,2.0,1.0,phase_1,,,,,,,,,,,,,gray,triangle
335.0,6.0,2.0,1.0,4.0,4.0,538.2113539999409,2.0,1.0,phase_1,,,,,,,,,,,,,green,flipped triangle
650.0,3.0,3.0,0.0,2.0,2.0,435.2478499999961,2.0,1.0,phase_1,,,,,,,,,,,,,yellow,circle
333.0,2.0,2.0,0.0,1.0,1.0,377.9391050002232,2.0,1.0,phase_1,,,,,,,,,,,,,gray,triangle
165.0,5.0,1.0,1.0,1.0,1.0,406.2025580001318,2.0,1.0,phase_1,,,,,,,,,,,,,cyan,square
1277.0,8.0,4.0,1.0,2.0,2.0,369.437027999993,2.0,1.0,phase_1,,,,,,,,,,,,,orange,I
309.0,6.0,2.0,1.0,3.0,3.0,295.3663369999049,2.0,1.0,phase_1,,,,,,,,,,,,,green,flipped triangle
664.0,3.0,3.0,0.0,3.0,3.0,351.2967329997991,2.0,1.0,phase_1,,,,,,,,,,,,,yellow,circle
163.0,5.0,1.0,1.0,4.0,4.0,406.2866219996977,2.0,1.0,phase_1,,,,,,,,,,,,,cyan,square
307.0,6.0,2.0,1.0,1.0,1.0,508.4762540000156,2.0,1.0,phase_1,,,,,,,,,,,,,green,flipped triangle
1318.0,4.0,4.0,0.0,1.0,1.0,368.3707710001727,2.0,1.0,phase_1,,,,,,,,,,,,,blue,diamond
650.0,7.0,3.0,1.0,4.0,4.0,323.7520570000924,2.0,1.0,phase_1,,,,,,,,,,,,,magenta,hexagon
1310.0,4.0,4.0,0.0,3.0,3.0,304.6344319996024,2.0,1.0,phase_1,,,,,,,,,,,,,blue,diamond
310.0,6.0,2.0,1.0,3.0,3.0,342.0584199998302,2.0,1.0,phase_1,,,,,,,,,,,,,green,flipped triangle
323.0,6.0,2.0,1.0,2.0,2.0,461.5380870000081,2.0,1.0,phase_1,,,,,,,,,,,,,green,flipped triangle
181.0,1.0,1.0,0.0,2.0,2.0,765.3714539997054,2.0,1.0,phase_1,,,,,,,,,,,,,white,cross
159.0,5.0,1.0,1.0,4.0,4.0,433.6472129998583,2.0,1.0,phase_1,,,,,,,,,,,,,cyan,square
1307.0,8.0,4.0,1.0,2.0,2.0,489.804119999917,2.0,1.0,phase_1,,,,,,,,,,,,,orange,I
0.0,7.0,0.0,1.0,2.0,2.0,250.51951500017822,2.0,2.0,phase_1,,,,,,,,,,,,,magenta,hexagon
639.0,3.0,3.0,0.0,2.0,2.0,316.0558529998525,2.0,1.0,phase_1,,,,,,,,,,,,,yellow,circle
0.0,6.0,0.0,1.0,4.0,4.0,369.9847660000159,2.0,1.0,phase_1,,,,,,,,,,,,,green,flipped triangle
0.0,3.0,0.0,0.0,4.0,4.0,370.9558470000047,2.0,1.0,phase_1,,,,,,,,,,,,,yellow,circle
0.0,7.0,0.0,1.0,3.0,3.0,444.1840389999925,2.0,1.0,phase_1,,,,,,,,,,,,,magenta,hexagon
1281.0,4.0,4.0,0.0,1.0,1.0,582.5096329999724,2.0,1.0,phase_1,,,,,,,,,,,,,blue,diamond
1324.0,8.0,4.0,1.0,3.0,3.0,323.4894709999025,2.0,1.0,phase_1,,,,,,,,,,,,,orange,I
1311.0,4.0,4.0,0.0,1.0,1.0,545.6232880001153,2.0,1.0,phase_1,,,,,,,,,,,,,blue,diamond
663.0,7.0,3.0,1.0,2.0,2.0,722.4719369996819,2.0,1.0,phase_1,,,,,,,,,,,,,magenta,hexagon
1308.0,8.0,4.0,1.0,4.0,4.0,397.4682819998634,2.0,1.0,phase_1,,,,,,,,,,,,,orange,I
1302.0,8.0,4.0,1.0,1.0,1.0,333.6197230000834,2.0,1.0,phase_1,,,,,,,,,,,,,orange,I
0.0,5.0,0.0,1.0,3.0,3.0,360.5229189997772,2.0,1.0,phase_1,,,,,,,,,,,,,cyan,square
0.0,1.0,0.0,0.0,2.0,2.0,516.2020220000159,2.0,1.0,phase_1,,,,,,,,,,,,,white,cross
309.0,2.0,2.0,0.0,1.0,1.0,397.3886310000125,2.0,1.0,phase_1,,,,,,,,,,,,,gray,triangle
304.0,6.0,2.0,1.0,3.0,3.0,333.2766619996619,2.0,1.0,phase_1,,,,,,,,,,,,,green,flipped triangle
0.0,8.0,0.0,1.0,2.0,2.0,452.9583180001282,2.0,1.0,phase_1,,,,,,,,,,,,,orange,I
1314.0,4.0,4.0,0.0,3.0,3.0,552.4638950000735,2.0,1.0,phase_1,,,,,,,,,,,,,blue,diamond
165.0,1.0,1.0,0.0,1.0,1.0,603.4878460000073,2.0,1.0,phase_1,,,,,,,,,,,,,white,cross
0.0,3.0,0.0,0.0,4.0,4.0,711.698990000059,2.0,1.0,phase_1,,,,,,,,,,,,,yellow,circle
0.0,5.0,0.0,1.0,2.0,2.0,259.776686999885,2.0,2.0,phase_1,,,,,,,,,,,,,cyan,square
0.0,4.0,0.0,0.0,2.0,2.0,230.8957720001672,2.0,1.0,phase_1,,,,,,,,,,,,,blue,diamond
1305.0,8.0,4.0,1.0,4.0,4.0,525.3016269998625,2.0,1.0,phase_1,,,,,,,,,,,,,orange,I
0.0,6.0,0.0,1.0,1.0,1.0,406.6188950000651,2.0,1.0,phase_1,,,,,,,,,,,,,green,flipped triangle
0.0,8.0,0.0,1.0,4.0,4.0,397.4171649997515,2.0,1.0,phase_1,,,,,,,,,,,,,orange,I
0.0,4.0,0.0,0.0,1.0,1.0,489.7602160003771,2.0,1.0,phase_1,,,,,,,,,,,,,blue,diamond
1282.0,8.0,4.0,1.0,3.0,3.0,396.2783290003244,2.0,1.0,phase_1,,,,,,,,,,,,,orange,I
0.0,8.0,0.0,1.0,4.0,4.0,378.5185800002182,2.0,1.0,phase_1,,,,,,,,,,,,,orange,I
1296.0,4.0,4.0,0.0,4.0,4.0,387.1567589999358,2.0,1.0,phase_1,,,,,,,,,,,,,blue,diamond
643.0,3.0,3.0,0.0,2.0,2.0,693.7173500000426,2.0,1.0,phase_1,,,,,,,,,,,,,yellow,circle
331.0,6.0,2.0,1.0,4.0,4.0,508.4475150001708,2.0,1.0,phase_1,,,,,,,,,,,,,green,flipped triangle
1310.0,8.0,4.0,1.0,2.0,2.0,451.2438089996067,2.0,1.0,phase_1,,,,,,,,,,,,,orange,I
0.0,7.0,0.0,1.0,1.0,1.0,590.1284639999176,2.0,1.0,phase_1,,,,,,,,,,,,,magenta,hexagon
142.0,1.0,1.0,0.0,1.0,1.0,387.5113520002742,2.0,1.0,phase_1,,,,,,,,,,,,,white,cross
1308.0,4.0,4.0,0.0,2.0,2.0,508.0142059996433,2.0,1.0,phase_1,,,,,,,,,,,,,blue,diamond
1278.0,4.0,4.0,0.0,2.0,2.0,507.6935570000387,2.0,1.0,phase_1,,,,,,,,,,,,,blue,diamond
177.0,5.0,1.0,1.0,3.0,3.0,332.4433769998904,2.0,1.0,phase_1,,,,,,,,,,,,,cyan,square
0.0,7.0,0.0,1.0,1.0,1.0,469.3075910004154,2.0,1.0,phase_1,,,,,,,,,,,,,magenta,hexagon
1291.0,4.0,4.0,0.0,2.0,2.0,553.4008669997093,2.0,1.0,phase_1,,,,,,,,,,,,,blue,diamond
310.0,6.0,2.0,1.0,4.0,4.0,609.6184020002511,2.0,1.0,phase_1,,,,,,,,,,,,,green,flipped triangle
1294.0,8.0,4.0,1.0,3.0,3.0,433.3444040003087,2.0,1.0,phase_1,,,,,,,,,,,,,orange,I
0.0,1.0,0.0,0.0,1.0,1.0,416.1152920000859,2.0,1.0,phase_1,,,,,,,,,,,,,white,cross
327.0,6.0,2.0,1.0,1.0,1.0,414.8004650000985,2.0,1.0,phase_1,,,,,,,,,,,,,green,flipped triangle
328.0,2.0,2.0,0.0,2.0,2.0,802.2613690000071,2.0,1.0,phase_1,,,,,,,,,,,,,gray,triangle
1282.0,8.0,4.0,1.0,1.0,1.0,388.0403309999565,2.0,1.0,phase_1,,,,,,,,,,,,,orange,I
1300.0,4.0,4.0,0.0,4.0,4.0,351.02853699982,2.0,1.0,phase_1,,,,,,,,,,,,,blue,diamond
341.0,6.0,2.0,1.0,2.0,2.0,536.4889620000213,2.0,1.0,phase_1,,,,,,,,,,,,,green,flipped triangle
632.0,3.0,3.0,0.0,3.0,3.0,424.9555530000179,2.0,1.0,phase_1,,,,,,,,,,,,,yellow,circle
345.0,6.0,2.0,1.0,2.0,2.0,397.7016759999969,2.0,1.0,phase_1,,,,,,,,,,,,,green,flipped triangle
163.0,5.0,1.0,1.0,3.0,3.0,361.4216930000111,2.0,1.0,phase_1,,,,,,,,,,,,,cyan,square
1318.0,8.0,4.0,1.0,4.0,4.0,359.3913099998644,2.0,1.0,phase_1,,,,,,,,,,,,,orange,I
643.0,7.0,3.0,1.0,4.0,4.0,378.3298260000265,2.0,1.0,phase_1,,,,,,,,,,,,,magenta,hexagon
650.0,3.0,3.0,0.0,4.0,4.0,435.2835069998946,2.0,1.0,phase_1,,,,,,,,,,,,,yellow,circle
319.0,2.0,2.0,0.0,3.0,3.0,333.1055779999587,2.0,1.0,phase_1,,,,,,,,,,,,,gray,triangle
147.0,1.0,1.0,0.0,4.0,4.0,359.24630000045,2.0,1.0,phase_1,,,,,,,,,,,,,white,cross
309.0,6.0,2.0,1.0,2.0,2.0,387.1029409997391,2.0,1.0,phase_1,,,,,,,,,,,,,green,flipped triangle
328.0,6.0,2.0,1.0,4.0,4.0,415.5140670000037,2.0,1.0,phase_1,,,,,,,,,,,,,green,flipped triangle
158.0,5.0,1.0,1.0,2.0,2.0,376.8811479999385,2.0,1.0,phase_1,,,,,,,,,,,,,cyan,square
154.0,1.0,1.0,0.0,1.0,1.0,322.8943770000114,2.0,1.0,phase_1,,,,,,,,,,,,,white,cross
1315.0,8.0,4.0,1.0,1.0,1.0,516.8811049998112,2.0,1.0,phase_1,,,,,,,,,,,,,orange,I
300.0,6.0,2.0,1.0,4.0,4.0,497.5464650001413,2.0,1.0,phase_1,,,,,,,,,,,,,green,flipped triangle
1280.0,4.0,4.0,0.0,3.0,3.0,343.3678100000179,2.0,1.0,phase_1,,,,,,,,,,,,,blue,diamond
138.0,5.0,1.0,1.0,1.0,1.0,499.2041529999369,2.0,1.0,phase_1,,,,,,,,,,,,,cyan,square
139.0,5.0,1.0,1.0,4.0,4.0,379.5805939998899,2.0,1.0,phase_1,,,,,,,,,,,,,cyan,square
344.0,6.0,2.0,1.0,2.0,2.0,471.916622000208,2.0,1.0,phase_1,,,,,,,,,,,,,green,flipped triangle
0.0,2.0,0.0,0.0,3.0,3.0,545.1524600002813,3.0,1.0,phase_1,,,,,,,,,,,,,gray,triangle
341.0,2.0,2.0,0.0,4.0,4.0,602.2324139999,3.0,1.0,phase_1,,,,,,,,,,,,,gray,triangle
329.0,2.0,2.0,0.0,2.0,2.0,518.6888580001323,3.0,1.0,phase_1,,,,,,,,,,,,,gray,triangle
169.0,5.0,1.0,1.0,4.0,4.0,538.179429000138,3.0,1.0,phase_1,,,,,,,,,,,,,cyan,square
319.0,6.0,2.0,1.0,4.0,4.0,416.2871329999689,3.0,1.0,phase_1,,,,,,,,,,,,,green,flipped triangle
1320.0,4.0,4.0,0.0,3.0,3.0,332.506039999771,3.0,1.0,phase_1,,,,,,,,,,,,,blue,diamond
1321.0,4.0,4.0,0.0,3.0,3.0,343.4151740002562,3.0,1.0,phase_1,,,,,,,,,,,,,blue,diamond
348.0,6.0,2.0,1.0,2.0,2.0,350.8058929996878,3.0,1.0,phase_1,,,,,,,,,,,,,green,flipped triangle
310.0,2.0,2.0,0.0,1.0,1.0,398.0470210003659,3.0,1.0,phase_1,,,,,,,,,,,,,gray,triangle
0.0,6.0,0.0,1.0,3.0,3.0,297.6917650003088,3.0,1.0,phase_1,,,,,,,,,,,,,green,flipped triangle
165.0,5.0,1.0,1.0,2.0,2.0,711.625998999807,3.0,1.0,phase_1,,,,,,,,,,,,,cyan,square
0.0,4.0,0.0,0.0,4.0,4.0,335.9162970000398,3.0,1.0,phase_1,,,,,,,,,,,,,blue,diamond
669.0,7.0,3.0,1.0,1.0,1.0,342.4445999999079,3.0,1.0,phase_1,,,,,,,,,,,,,magenta,hexagon
1308.0,4.0,4.0,0.0,1.0,1.0,325.2279240000462,3.0,1.0,phase_1,,,,,,,,,,,,,blue,diamond
314.0,6.0,2.0,1.0,3.0,3.0,305.1128110000718,3.0,1.0,phase_1,,,,,,,,,,,,,green,flipped triangle
1282.0,4.0,4.0,0.0,4.0,4.0,343.9074510001774,3.0,1.0,phase_1,,,,,,,,,,,,,blue,diamond
0.0,5.0,0.0,1.0,1.0,1.0,545.8990890001587,3.0,1.0,phase_1,,,,,,,,,,,,,cyan,square
1315.0,8.0,4.0,1.0,2.0,2.0,610.8463400000801,3.0,1.0,phase_1,,,,,,,,,,,,,orange,I
1278.0,4.0,4.0,0.0,1.0,1.0,462.0904990001691,3.0,1.0,phase_1,,,,,,,,,,,,,blue,diamond
626.0,3.0,3.0,0.0,4.0,4.0,398.7280609999288,3.0,1.0,phase_1,,,,,,,,,,,,,yellow,circle
169.0,1.0,1.0,0.0,4.0,4.0,472.8160569998181,3.0,1.0,phase_1,,,,,,,,,,,,,white,cross
324.0,6.0,2.0,1.0,1.0,1.0,278.1040479999319,3.0,1.0,phase_1,,,,,,,,,,,,,green,flipped triangle
1279.0,8.0,4.0,1.0,4.0,4.0,343.7978329998259,3.0,1.0,phase_1,,,,,,,,,,,,,orange,I
634.0,3.0,3.0,0.0,4.0,4.0,441.6718219999893,3.0,1.0,phase_1,,,,,,,,,,,,,yellow,circle
0.0,8.0,0.0,1.0,4.0,4.0,444.9428620000617,3.0,1.0,phase_1,,,,,,,,,,,,,orange,I
652.0,7.0,3.0,1.0,1.0,1.0,582.1520690001307,3.0,1.0,phase_1,,,,,,,,,,,,,magenta,hexagon
631.0,7.0,3.0,1.0,3.0,3.0,370.3403260001323,3.0,1.0,phase_1,,,,,,,,,,,,,magenta,hexagon
674.0,7.0,3.0,1.0,2.0,2.0,314.7353320000547,3.0,1.0,phase_1,,,,,,,,,,,,,magenta,hexagon
143.0,1.0,1.0,0.0,4.0,4.0,424.6725560001323,3.0,1.0,phase_1,,,,,,,,,,,,,white,cross
0.0,4.0,0.0,0.0,1.0,1.0,389.200639000137,3.0,1.0,phase_1,,,,,,,,,,,,,blue,diamond
337.0,2.0,2.0,0.0,1.0,1.0,315.9613490001902,3.0,2.0,phase_1,,,,,,,,,,,,,gray,triangle
1277.0,4.0,4.0,0.0,4.0,4.0,709.846792999997,3.0,1.0,phase_1,,,,,,,,,,,,,blue,diamond
640.0,7.0,3.0,1.0,3.0,3.0,287.7974359998916,3.0,1.0,phase_1,,,,,,,,,,,,,magenta,hexagon
322.0,6.0,2.0,1.0,1.0,1.0,555.4710609999347,3.0,1.0,phase_1,,,,,,,,,,,,,green,flipped triangle
0.0,3.0,0.0,0.0,4.0,4.0,371.8762759999663,3.0,1.0,phase_1,,,,,,,,,,,,,yellow,circle
642.0,7.0,3.0,1.0,1.0,1.0,454.4050990002688,3.0,1.0,phase_1,,,,,,,,,,,,,magenta,hexagon
0.0,1.0,0.0,0.0,4.0,4.0,454.3185479997191,3.0,1.0,phase_1,,,,,,,,,,,,,white,cross
643.0,7.0,3.0,1.0,1.0,1.0,434.4726049998826,3.0,1.0,phase_1,,,,,,,,,,,,,magenta,hexagon
350.0,6.0,2.0,1.0,4.0,4.0,656.2298260000716,3.0,1.0,phase_1,,,,,,,,,,,,,green,flipped triangle
1310.0,8.0,4.0,1.0,2.0,2.0,776.7856049999864,3.0,1.0,phase_1,,,,,,,,,,,,,orange,I
0.0,3.0,0.0,0.0,4.0,4.0,500.3437049999775,3.0,1.0,phase_1,,,,,,,,,,,,,yellow,circle
0.0,4.0,0.0,0.0,2.0,2.0,628.0974429996604,3.0,1.0,phase_1,,,,,,,,,,,,,blue,diamond
300.0,2.0,2.0,0.0,4.0,4.0,536.0421619998306,3.0,1.0,phase_1,,,,,,,,,,,,,gray,triangle
303.0,6.0,2.0,1.0,1.0,1.0,464.1431850000117,3.0,1.0,phase_1,,,,,,,,,,,,,green,flipped triangle
322.0,2.0,2.0,0.0,1.0,1.0,516.5301500001078,3.0,1.0,phase_1,,,,,,,,,,,,,gray,triangle
185.0,1.0,1.0,0.0,2.0,2.0,609.5681460001288,3.0,1.0,phase_1,,,,,,,,,,,,,white,cross
177.0,1.0,1.0,0.0,2.0,2.0,526.229050999973,3.0,1.0,phase_1,,,,,,,,,,,,,white,cross
163.0,5.0,1.0,1.0,3.0,3.0,362.4306399997294,3.0,1.0,phase_1,,,,,,,,,,,,,cyan,square
0.0,1.0,0.0,0.0,1.0,1.0,599.7290069999508,3.0,1.0,phase_1,,,,,,,,,,,,,white,cross
149.0,5.0,1.0,1.0,3.0,3.0,490.6886140001916,3.0,1.0,phase_1,,,,,,,,,,,,,cyan,square
0.0,3.0,0.0,0.0,1.0,1.0,665.306327000053,3.0,1.0,phase_1,,,,,,,,,,,,,yellow,circle
1291.0,8.0,4.0,1.0,2.0,2.0,563.5308119999536,3.0,1.0,phase_1,,,,,,,,,,,,,orange,I
654.0,7.0,3.0,1.0,3.0,3.0,351.0252989999571,3.0,1.0,phase_1,,,,,,,,,,,,,magenta,hexagon
0.0,1.0,0.0,0.0,1.0,1.0,647.1168680000119,3.0,1.0,phase_1,,,,,,,,,,,,,white,cross
667.0,7.0,3.0,1.0,4.0,4.0,351.7784969999411,3.0,1.0,phase_1,,,,,,,,,,,,,magenta,hexagon
635.0,7.0,3.0,1.0,3.0,3.0,378.5343039999134,3.0,1.0,phase_1,,,,,,,,,,,,,magenta,hexagon
1280.0,8.0,4.0,1.0,2.0,2.0,307.0762220004326,3.0,2.0,phase_1,,,,,,,,,,,,,orange,I
645.0,3.0,3.0,0.0,1.0,1.0,703.1574090001413,3.0,1.0,phase_1,,,,,,,,,,,,,yellow,circle
0.0,2.0,0.0,0.0,1.0,1.0,481.3233429999854,3.0,1.0,phase_1,,,,,,,,,,,,,gray,triangle
0.0,3.0,0.0,0.0,2.0,2.0,712.8693900003782,3.0,1.0,phase_1,,,,,,,,,,,,,yellow,circle
185.0,1.0,1.0,0.0,2.0,2.0,370.5448050000086,3.0,1.0,phase_1,,,,,,,,,,,,,white,cross
159.0,1.0,1.0,0.0,2.0,2.0,433.6515280001549,3.0,1.0,phase_1,,,,,,,,,,,,,white,cross
328.0,6.0,2.0,1.0,3.0,3.0,351.404616000309,3.0,1.0,phase_1,,,,,,,,,,,,,green,flipped triangle
643.0,7.0,3.0,1.0,3.0,3.0,443.4861989998353,3.0,1.0,phase_1,,,,,,,,,,,,,magenta,hexagon
664.0,7.0,3.0,1.0,4.0,4.0,454.1103169999587,3.0,1.0,phase_1,,,,,,,,,,,,,magenta,hexagon
0.0,8.0,0.0,1.0,1.0,1.0,415.9711959996457,3.0,1.0,phase_1,,,,,,,,,,,,,orange,I
0.0,7.0,0.0,1.0,3.0,3.0,306.6012269996463,3.0,1.0,phase_1,,,,,,,,,,,,,magenta,hexagon
1310.0,4.0,4.0,0.0,4.0,4.0,398.7448279999626,3.0,1.0,phase_1,,,,,,,,,,,,,blue,diamond
647.0,7.0,3.0,1.0,2.0,2.0,303.9632690001781,3.0,2.0,phase_1,,,,,,,,,,,,,magenta,hexagon
0.0,6.0,0.0,1.0,2.0,2.0,464.1518130001714,3.0,1.0,phase_1,,,,,,,,,,,,,green,flipped triangle
0.0,5.0,0.0,1.0,1.0,1.0,628.1852199999776,3.0,1.0,phase_1,,,,,,,,,,,,,cyan,square
159.0,5.0,1.0,1.0,2.0,2.0,498.8770660002046,3.0,1.0,phase_1,,,,,,,,,,,,,cyan,square
326.0,6.0,2.0,1.0,2.0,2.0,407.1923369997421,3.0,1.0,phase_1,,,,,,,,,,,,,green,flipped triangle
173.0,1.0,1.0,0.0,3.0,3.0,443.4382450003795,3.0,1.0,phase_1,,,,,,,,,,,,,white,cross
1278.0,8.0,4.0,1.0,4.0,4.0,461.4681170000949,3.0,1.0,phase_1,,,,,,,,,,,,,orange,I
648.0,7.0,3.0,1.0,2.0,2.0,566.8534589999581,3.0,1.0,phase_1,,,,,,,,,,,,,magenta,hexagon
324.0,2.0,2.0,0.0,3.0,3.0,333.6987039997439,3.0,1.0,phase_1,,,,,,,,,,,,,gray,triangle
170.0,5.0,1.0,1.0,1.0,1.0,574.0832989999944,3.0,1.0,phase_1,,,,,,,,,,,,,cyan,square
648.0,7.0,3.0,1.0,2.0,2.0,454.417684999953,3.0,1.0,phase_1,,,,,,,,,,,,,magenta,hexagon
303.0,2.0,2.0,0.0,2.0,2.0,452.4643919999107,3.0,1.0,phase_1,,,,,,,,,,,,,gray,triangle
1294.0,4.0,4.0,0.0,1.0,1.0,574.9410190001072,3.0,1.0,phase_1,,,,,,,,,,,,,blue,diamond
1310.0,8.0,4.0,1.0,1.0,1.0,535.7798139998522,3.0,1.0,phase_1,,,,,,,,,,,,,orange,I
181.0,5.0,1.0,1.0,2.0,2.0,461.8889859998489,3.0,1.0,phase_1,,,,,,,,,,,,,cyan,square
1285.0,4.0,4.0,0.0,3.0,3.0,324.8611100002563,3.0,1.0,phase_1,,,,,,,,,,,,,blue,diamond
309.0,2.0,2.0,0.0,4.0,4.0,595.1840000002449,3.0,1.0,phase_1,,,,,,,,,,,,,gray,triangle
163.0,1.0,1.0,0.0,3.0,3.0,306.4259620000484,3.0,1.0,phase_1,,,,,,,,,,,,,white,cross
177.0,5.0,1.0,1.0,1.0,1.0,277.3875839998254,3.0,2.0,phase_1,,,,,,,,,,,,,cyan,square
648.0,3.0,3.0,0.0,3.0,3.0,693.408651000027,3.0,1.0,phase_1,,,,,,,,,,,,,yellow,circle
642.0,3.0,3.0,0.0,4.0,4.0,804.2866760001743,3.0,1.0,phase_1,,,,,,,,,,,,,yellow,circle
159.0,1.0,1.0,0.0,1.0,1.0,936.3810770000782,3.0,1.0,phase_1,,,,,,,,,,,,,white,cross
0.0,1.0,0.0,0.0,4.0,4.0,523.7193540001499,3.0,1.0,phase_1,,,,,,,,,,,,,white,cross
331.0,2.0,2.0,0.0,2.0,2.0,766.9196820002071,3.0,1.0,phase_1,,,,,,,,,,,,,gray,triangle
151.0,1.0,1.0,0.0,3.0,3.0,286.797555999783,3.0,1.0,phase_1,,,,,,,,,,,,,white,cross
173.0,5.0,1.0,1.0,4.0,4.0,480.2008110000315,3.0,1.0,phase_1,,,,,,,,,,,,,cyan,square
146.0,5.0,1.0,1.0,4.0,4.0,415.6488400003582,3.0,1.0,phase_1,,,,,,,,,,,,,cyan,square
0.0,2.0,0.0,0.0,4.0,4.0,416.709312000421,3.0,1.0,phase_1,,,,,,,,,,,,,gray,triangle
185.0,5.0,1.0,1.0,3.0,3.0,352.7297089999592,3.0,1.0,phase_1,,,,,,,,,,,,,cyan,square
177.0,1.0,1.0,0.0,4.0,4.0,444.9391449998074,3.0,1.0,phase_1,,,,,,,,,,,,,white,cross
335.0,2.0,2.0,0.0,4.0,4.0,359.7487649999493,3.0,1.0,phase_1,,,,,,,,,,,,,gray,triangle
1311.0,8.0,4.0,1.0,3.0,3.0,343.0087090000597,3.0,1.0,phase_1,,,,,,,,,,,,,orange,I
143.0,1.0,1.0,0.0,3.0,3.0,406.9212759995935,4.0,2.0,phase_1,,,,,,,,,,,,,white,cross
0.0,3.0,0.0,0.0,1.0,1.0,535.5770420001136,4.0,1.0,phase_1,,,,,,,,,,,,,yellow,circle
0.0,4.0,0.0,0.0,3.0,3.0,434.0252560000408,4.0,1.0,phase_1,,,,,,,,,,,,,blue,diamond
349.0,6.0,2.0,1.0,1.0,1.0,591.6455850001512,4.0,1.0,phase_1,,,,,,,,,,,,,green,flipped triangle
323.0,2.0,2.0,0.0,3.0,3.0,333.3395190002193,4.0,1.0,phase_1,,,,,,,,,,,,,gray,triangle
664.0,7.0,3.0,1.0,3.0,3.0,378.6470729996836,4.0,1.0,phase_1,,,,,,,,,,,,,magenta,hexagon
346.0,2.0,2.0,0.0,3.0,3.0,480.4863690001184,4.0,1.0,phase_1,,,,,,,,,,,,,gray,triangle
652.0,3.0,3.0,0.0,1.0,1.0,331.7726880000009,4.0,1.0,phase_1,,,,,,,,,,,,,yellow,circle
648.0,3.0,3.0,0.0,2.0,2.0,628.9607660000911,4.0,1.0,phase_1,,,,,,,,,,,,,yellow,circle
1285.0,8.0,4.0,1.0,2.0,2.0,489.3365359998824,4.0,1.0,phase_1,,,,,,,,,,,,,orange,I
146.0,1.0,1.0,0.0,3.0,3.0,333.5506530002021,4.0,1.0,phase_1,,,,,,,,,,,,,white,cross
0.0,1.0,0.0,0.0,2.0,2.0,480.227460000151,4.0,1.0,phase_1,,,,,,,,,,,,,white,cross
1303.0,8.0,4.0,1.0,1.0,1.0,563.2367809998868,4.0,1.0,phase_1,,,,,,,,,,,,,orange,I
0.0,5.0,0.0,1.0,3.0,3.0,378.177401999892,4.0,1.0,phase_1,,,,,,,,,,,,,cyan,square
627.0,7.0,3.0,1.0,3.0,3.0,434.3883679998725,4.0,1.0,phase_1,,,,,,,,,,,,,magenta,hexagon
0.0,6.0,0.0,1.0,2.0,2.0,638.4908549998727,4.0,1.0,phase_1,,,,,,,,,,,,,green,flipped triangle
640.0,3.0,3.0,0.0,3.0,3.0,398.914923999655,4.0,1.0,phase_1,,,,,,,,,,,,,yellow,circle
0.0,2.0,0.0,0.0,1.0,1.0,350.6513469997117,4.0,1.0,phase_1,,,,,,,,,,,,,gray,triangle
152.0,5.0,1.0,1.0,2.0,2.0,267.7939989998776,4.0,2.0,phase_1,,,,,,,,,,,,,cyan,square
1321.0,8.0,4.0,1.0,1.0,1.0,406.4182810002421,4.0,2.0,phase_1,,,,,,,,,,,,,orange,I
333.0,6.0,2.0,1.0,4.0,4.0,646.2082150001152,4.0,1.0,phase_1,,,,,,,,,,,,,green,flipped triangle
177.0,1.0,1.0,0.0,4.0,4.0,545.0227830001495,4.0,1.0,phase_1,,,,,,,,,,,,,white,cross
639.0,7.0,3.0,1.0,1.0,1.0,490.4564069997832,4.0,1.0,phase_1,,,,,,,,,,,,,magenta,hexagon
641.0,7.0,3.0,1.0,2.0,2.0,507.7041019999342,4.0,1.0,phase_1,,,,,,,,,,,,,magenta,hexagon
1308.0,8.0,4.0,1.0,3.0,3.0,452.8614490000109,4.0,1.0,phase_1,,,,,,,,,,,,,orange,I
1320.0,8.0,4.0,1.0,4.0,4.0,443.46358499979027,4.0,1.0,phase_1,,,,,,,,,,,,,orange,I
661.0,7.0,3.0,1.0,2.0,2.0,333.5264379998079,4.0,1.0,phase_1,,,,,,,,,,,,,magenta,hexagon
163.0,1.0,1.0,0.0,4.0,4.0,352.1606089998386,4.0,1.0,phase_1,,,,,,,,,,,,,white,cross
674.0,3.0,3.0,0.0,2.0,2.0,629.0687589998925,4.0,1.0,phase_1,,,,,,,,,,,,,yellow,circle
327.0,2.0,2.0,0.0,4.0,4.0,342.1077759999207,4.0,1.0,phase_1,,,,,,,,,,,,,gray,triangle
632.0,7.0,3.0,1.0,1.0,1.0,525.7274159998815,4.0,1.0,phase_1,,,,,,,,,,,,,magenta,hexagon
1278.0,4.0,4.0,0.0,2.0,2.0,600.7117520002794,4.0,1.0,phase_1,,,,,,,,,,,,,blue,diamond
327.0,6.0,2.0,1.0,2.0,2.0,424.9594490001982,4.0,1.0,phase_1,,,,,,,,,,,,,green,flipped triangle
1324.0,4.0,4.0,0.0,4.0,4.0,414.9861930000043,4.0,1.0,phase_1,,,,,,,,,,,,,blue,diamond
171.0,1.0,1.0,0.0,4.0,4.0,407.2431969998433,4.0,1.0,phase_1,,,,,,,,,,,,,white,cross
304.0,2.0,2.0,0.0,1.0,1.0,609.3553840000823,4.0,1.0,phase_1,,,,,,,,,,,,,gray,triangle
641.0,3.0,3.0,0.0,3.0,3.0,590.60420600008,4.0,1.0,phase_1,,,,,,,,,,,,,yellow,circle
177.0,1.0,1.0,0.0,3.0,3.0,498.4616359997744,4.0,1.0,phase_1,,,,,,,,,,,,,white,cross
0.0,1.0,0.0,0.0,2.0,2.0,581.8334139999024,4.0,1.0,phase_1,,,,,,,,,,,,,white,cross
1279.0,4.0,4.0,0.0,3.0,3.0,434.0710679998665,4.0,1.0,phase_1,,,,,,,,,,,,,blue,diamond
659.0,7.0,3.0,1.0,4.0,4.0,397.1553169999424,4.0,1.0,phase_1,,,,,,,,,,,,,magenta,hexagon
350.0,6.0,2.0,1.0,3.0,3.0,333.1463839999742,4.0,1.0,phase_1,,,,,,,,,,,,,green,flipped triangle
307.0,6.0,2.0,1.0,1.0,1.0,637.9371150001134,4.0,1.0,phase_1,,,,,,,,,,,,,green,flipped triangle
1303.0,4.0,4.0,0.0,2.0,2.0,489.7948389998419,4.0,1.0,phase_1,,,,,,,,,,,,,blue,diamond
0.0,5.0,0.0,1.0,3.0,3.0,351.5600750001795,4.0,1.0,phase_1,,,,,,,,,,,,,cyan,square
307.0,2.0,2.0,0.0,2.0,2.0,443.7429439999505,4.0,1.0,phase_1,,,,,,,,,,,,,gray,triangle
350.0,2.0,2.0,0.0,2.0,2.0,517.2089950001464,4.0,1.0,phase_1,,,,,,,,,,,,,gray,triangle
1303.0,4.0,4.0,0.0,2.0,2.0,442.9612429998997,4.0,1.0,phase_1,,,,,,,,,,,,,blue,diamond
173.0,5.0,1.0,1.0,3.0,3.0,351.2092609998944,4.0,1.0,phase_1,,,,,,,,,,,,,cyan,square
643.0,3.0,3.0,0.0,3.0,3.0,563.7553419996948,4.0,1.0,phase_1,,,,,,,,,,,,,yellow,circle
149.0,1.0,1.0,0.0,1.0,1.0,387.4774860000798,4.0,2.0,phase_1,,,,,,,,,,,,,white,cross
660.0,3.0,3.0,0.0,1.0,1.0,526.921707999918,4.0,1.0,phase_1,,,,,,,,,,,,,yellow,circle
329.0,6.0,2.0,1.0,3.0,3.0,536.3885990000199,4.0,1.0,phase_1,,,,,,,,,,,,,green,flipped triangle
154.0,5.0,1.0,1.0,3.0,3.0,342.1158000001014,4.0,1.0,phase_1,,,,,,,,,,,,,cyan,square
1312.0,4.0,4.0,0.0,4.0,4.0,525.5715359999158,4.0,1.0,phase_1,,,,,,,,,,,,,blue,diamond
336.0,2.0,2.0,0.0,1.0,1.0,692.156165000597,4.0,1.0,phase_1,,,,,,,,,,,,,gray,triangle
159.0,5.0,1.0,1.0,1.0,1.0,415.3760079998392,4.0,1.0,phase_1,,,,,,,,,,,,,cyan,square
334.0,2.0,2.0,0.0,2.0,2.0,737.5779870008046,4.0,1.0,phase_1,,,,,,,,,,,,,gray,triangle
143.0,5.0,1.0,1.0,2.0,2.0,498.6022390003199,4.0,1.0,phase_1,,,,,,,,,,,,,cyan,square
0.0,8.0,0.0,1.0,3.0,3.0,342.5119300000006,4.0,1.0,phase_1,,,,,,,,,,,,,orange,I
1293.0,4.0,4.0,0.0,3.0,3.0,305.82680399948,4.0,1.0,phase_1,,,,,,,,,,,,,blue,diamond
345.0,2.0,2.0,0.0,2.0,2.0,359.6141059997535,4.0,1.0,phase_1,,,,,,,,,,,,,gray,triangle
1321.0,8.0,4.0,1.0,4.0,4.0,508.1012330001613,4.0,1.0,phase_1,,,,,,,,,,,,,orange,I
335.0,6.0,2.0,1.0,1.0,1.0,444.0648649997456,4.0,2.0,phase_1,,,,,,,,,,,,,green,flipped triangle
163.0,1.0,1.0,0.0,3.0,3.0,601.286049999544,4.0,1.0,phase_1,,,,,,,,,,,,,white,cross
1314.0,8.0,4.0,1.0,4.0,4.0,388.0644559994834,4.0,1.0,phase_1,,,,,,,,,,,,,orange,I
159.0,1.0,1.0,0.0,3.0,3.0,351.1698819993398,4.0,1.0,phase_1,,,,,,,,,,,,,white,cross
143.0,5.0,1.0,1.0,1.0,1.0,526.7354809993776,4.0,2.0,phase_1,,,,,,,,,,,,,cyan,square
1281.0,8.0,4.0,1.0,4.0,4.0,461.3854250001168,4.0,1.0,phase_1,,,,,,,,,,,,,orange,I
314.0,2.0,2.0,0.0,3.0,3.0,360.3031860002375,4.0,1.0,phase_1,,,,,,,,,,,,,gray,triangle
636.0,3.0,3.0,0.0,1.0,1.0,581.9890339998892,4.0,1.0,phase_1,,,,,,,,,,,,,yellow,circle
635.0,3.0,3.0,0.0,4.0,4.0,313.8442010003928,4.0,1.0,phase_1,,,,,,,,,,,,,yellow,circle
309.0,2.0,2.0,0.0,4.0,4.0,396.7965669999103,4.0,1.0,phase_1,,,,,,,,,,,,,gray,triangle
141.0,5.0,1.0,1.0,2.0,2.0,647.3509510005897,4.0,1.0,phase_1,,,,,,,,,,,,,cyan,square
647.0,3.0,3.0,0.0,3.0,3.0,315.4849370002921,4.0,1.0,phase_1,,,,,,,,,,,,,yellow,circle
337.0,6.0,2.0,1.0,3.0,3.0,461.5977000003113,4.0,1.0,phase_1,,,,,,,,,,,,,green,flipped triangle
0.0,5.0,0.0,1.0,3.0,3.0,342.5796259998606,4.0,1.0,phase_1,,,,,,,,,,,,,cyan,square
177.0,1.0,1.0,0.0,1.0,1.0,704.627786999481,4.0,1.0,phase_1,,,,,,,,,,,,,white,cross
0.0,7.0,0.0,1.0,3.0,3.0,434.7571219996098,4.0,1.0,phase_1,,,,,,,,,,,,,magenta,hexagon
147.0,5.0,1.0,1.0,4.0,4.0,545.8245190002344,4.0,1.0,phase_1,,,,,,,,,,,,,cyan,square
639.0,7.0,3.0,1.0,1.0,1.0,563.8423760001388,4.0,1.0,phase_1,,,,,,,,,,,,,magenta,hexagon
630.0,7.0,3.0,1.0,4.0,4.0,378.5051579998253,4.0,1.0,phase_1,,,,,,,,,,,,,magenta,hexagon
642.0,3.0,3.0,0.0,1.0,1.0,563.2532299996456,4.0,1.0,phase_1,,,,,,,,,,,,,yellow,circle
642.0,7.0,3.0,1.0,2.0,2.0,250.6289740003922,4.0,2.0,phase_1,,,,,,,,,,,,,magenta,hexagon
350.0,2.0,2.0,0.0,3.0,3.0,416.4804810006899,4.0,1.0,phase_1,,,,,,,,,,,,,gray,triangle
1315.0,4.0,4.0,0.0,3.0,3.0,342.0666299998629,4.0,1.0,phase_1,,,,,,,,,,,,,blue,diamond
1305.0,4.0,4.0,0.0,2.0,2.0,666.9681659996058,4.0,1.0,phase_1,,,,,,,,,,,,,blue,diamond
0.0,6.0,0.0,1.0,3.0,3.0,406.1912890001622,4.0,1.0,phase_1,,,,,,,,,,,,,green,flipped triangle
177.0,5.0,1.0,1.0,1.0,1.0,414.8713679996945,4.0,1.0,phase_1,,,,,,,,,,,,,cyan,square
323.0,2.0,2.0,0.0,4.0,4.0,405.6203660002211,4.0,1.0,phase_1,,,,,,,,,,,,,gray,triangle
349.0,2.0,2.0,0.0,4.0,4.0,646.114099999977,4.0,1.0,phase_1,,,,,,,,,,,,,gray,triangle
0.0,5.0,0.0,1.0,2.0,2.0,516.7412180007886,4.0,1.0,phase_1,,,,,,,,,,,,,cyan,square
0.0,6.0,0.0,1.0,3.0,3.0,332.6374289999876,4.0,1.0,phase_1,,,,,,,,,,,,,green,flipped triangle
145.0,5.0,1.0,1.0,4.0,4.0,379.3651899995893,4.0,1.0,phase_1,,,,,,,,,,,,,cyan,square
1293.0,8.0,4.0,1.0,2.0,2.0,528.1254660003469,4.0,1.0,phase_1,,,,,,,,,,,,,orange,I
661.0,3.0,3.0,0.0,3.0,3.0,323.8593969999783,4.0,1.0,phase_1,,,,,,,,,,,,,yellow,circle
158.0,1.0,1.0,0.0,2.0,2.0,694.1484660001151,4.0,1.0,phase_1,,,,,,,,,,,,,white,cross
174.0,1.0,1.0,0.0,4.0,4.0,388.3484300004056,4.0,1.0,phase_1,,,,,,,,,,,,,white,cross
669.0,3.0,3.0,0.0,1.0,1.0,913.1948049998756,4.0,1.0,phase_1,,,,,,,,,,,,,yellow,circle
0.0,6.0,0.0,1.0,3.0,3.0,443.7196950002544,4.0,1.0,phase_1,,,,,,,,,,,,,green,flipped triangle
0.0,3.0,3.0,0.0,5.0,5.0,407.268101000227,1.0,1.0,phase_2,go,250.0,250.0,1.0,,,,,,,,,yellow,circle
0.0,5.0,1.0,1.0,5.0,0.0,0.0,1.0,1.0,phase_2,stop,250.0,250.0,4.0,,,,,,,,,cyan,square
0.0,5.0,1.0,1.0,5.0,5.0,408.7280350004221,1.0,1.0,phase_2,go,300.0,250.0,1.0,,,,,,,,,cyan,square
0.0,6.0,2.0,1.0,6.0,0.0,0.0,1.0,1.0,phase_2,stop,300.0,250.0,4.0,,,,,,,,,green,flipped triangle
0.0,6.0,2.0,1.0,6.0,6.0,643.4545749998506,1.0,1.0,phase_2,go,300.0,300.0,1.0,,,,,,,,,green,flipped triangle
0.0,6.0,2.0,1.0,6.0,6.0,354.3331540004146,1.0,1.0,phase_2,stop,300.0,300.0,3.0,,,,,,,,,green,flipped triangle
0.0,5.0,1.0,1.0,5.0,0.0,0.0,1.0,1.0,phase_2,stop,300.0,250.0,4.0,,,,,,,,,cyan,square
0.0,7.0,3.0,1.0,5.0,0.0,0.0,1.0,1.0,phase_2,stop,350.0,250.0,4.0,,,,,,,,,magenta,hexagon
0.0,3.0,3.0,0.0,5.0,5.0,381.780513999729,1.0,1.0,phase_2,go,400.0,250.0,1.0,,,,,,,,,yellow,circle
0.0,8.0,4.0,1.0,6.0,6.0,332.9067960003158,1.0,1.0,phase_2,stop,400.0,250.0,3.0,,,,,,,,,orange,I
0.0,7.0,3.0,1.0,6.0,6.0,315.3517319997263,1.0,1.0,phase_2,go,400.0,200.0,1.0,,,,,,,,,magenta,hexagon
0.0,1.0,1.0,0.0,6.0,6.0,355.6747049997284,1.0,1.0,phase_2,go,400.0,200.0,1.0,,,,,,,,,white,cross
0.0,8.0,4.0,1.0,6.0,6.0,333.5684390003735,1.0,1.0,phase_2,stop,400.0,200.0,3.0,,,,,,,,,orange,I
0.0,8.0,4.0,1.0,5.0,0.0,0.0,1.0,1.0,phase_2,stop,400.0,150.0,4.0,,,,,,,,,orange,I
0.0,3.0,3.0,0.0,6.0,6.0,558.5146329995041,1.0,1.0,phase_2,go,450.0,150.0,1.0,,,,,,,,,yellow,circle
0.0,8.0,4.0,1.0,5.0,5.0,354.1566499998225,1.0,1.0,phase_2,go,450.0,150.0,1.0,,,,,,,,,orange,I
0.0,4.0,4.0,0.0,6.0,6.0,326.2455770000088,1.0,1.0,phase_2,go,450.0,150.0,1.0,,,,,,,,,blue,diamond
0.0,5.0,1.0,1.0,5.0,5.0,279.9581070003114,1.0,1.0,phase_2,go,450.0,150.0,1.0,,,,,,,,,cyan,square
0.0,2.0,2.0,0.0,6.0,6.0,576.0338279997086,1.0,1.0,phase_2,go,450.0,150.0,1.0,,,,,,,,,gray,triangle
0.0,1.0,1.0,0.0,5.0,5.0,326.6864249999344,1.0,1.0,phase_2,go,450.0,150.0,1.0,,,,,,,,,white,cross
0.0,6.0,2.0,1.0,6.0,6.0,277.4108569992677,1.0,1.0,phase_2,stop,450.0,150.0,3.0,,,,,,,,,green,flipped triangle
0.0,5.0,1.0,1.0,5.0,5.0,401.0567080003966,1.0,1.0,phase_2,stop,450.0,100.0,3.0,,,,,,,,,cyan,square
0.0,8.0,4.0,1.0,5.0,5.0,530.5063219993826,1.0,1.0,phase_2,go,400.0,100.0,1.0,,,,,,,,,orange,I
0.0,8.0,4.0,1.0,5.0,5.0,363.8842379996276,1.0,1.0,phase_2,stop,400.0,100.0,3.0,,,,,,,,,orange,I
0.0,8.0,4.0,1.0,5.0,5.0,371.7263140006253,1.0,1.0,phase_2,go,350.0,100.0,1.0,,,,,,,,,orange,I
0.0,6.0,2.0,1.0,6.0,0.0,0.0,1.0,1.0,phase_2,stop,350.0,100.0,4.0,,,,,,,,,green,flipped triangle
0.0,5.0,1.0,1.0,6.0,0.0,0.0,1.0,1.0,phase_2,stop,350.0,150.0,4.0,,,,,,,,,cyan,square
0.0,8.0,4.0,1.0,5.0,5.0,564.9390379994657,1.0,1.0,phase_2,stop,350.0,200.0,3.0,,,,,,,,,orange,I
0.0,3.0,3.0,0.0,6.0,6.0,484.4070239996654,1.0,1.0,phase_2,go,300.0,200.0,1.0,,,,,,,,,yellow,circle
0.0,7.0,3.0,1.0,6.0,0.0,0.0,1.0,1.0,phase_2,stop,300.0,200.0,4.0,,,,,,,,,magenta,hexagon
0.0,7.0,3.0,1.0,6.0,0.0,0.0,1.0,1.0,phase_2,stop,300.0,250.0,4.0,,,,,,,,,magenta,hexagon
0.0,4.0,4.0,0.0,6.0,6.0,743.4997500004101,1.0,1.0,phase_2,go,300.0,300.0,1.0,,,,,,,,,blue,diamond
0.0,4.0,4.0,0.0,5.0,5.0,335.6870000006893,1.0,1.0,phase_2,go,300.0,300.0,1.0,,,,,,,,,blue,diamond
0.0,4.0,4.0,0.0,5.0,5.0,409.1013819997897,1.0,1.0,phase_2,go,300.0,300.0,1.0,,,,,,,,,blue,diamond
0.0,5.0,1.0,1.0,5.0,0.0,0.0,1.0,1.0,phase_2,stop,300.0,300.0,4.0,,,,,,,,,cyan,square
0.0,2.0,2.0,0.0,5.0,5.0,518.8448799999605,1.0,1.0,phase_2,go,350.0,300.0,1.0,,,,,,,,,gray,triangle
0.0,4.0,4.0,0.0,6.0,6.0,361.8979480006601,2.0,1.0,phase_2,go,350.0,300.0,1.0,,,,,,,,,blue,diamond
0.0,3.0,3.0,0.0,5.0,5.0,287.8197469999577,2.0,1.0,phase_2,go,350.0,300.0,1.0,,,,,,,,,yellow,circle
0.0,6.0,2.0,1.0,5.0,5.0,344.4098350000786,2.0,1.0,phase_2,stop,350.0,300.0,3.0,,,,,,,,,green,flipped triangle
0.0,2.0,2.0,0.0,5.0,5.0,567.3500220000278,2.0,1.0,phase_2,go,300.0,300.0,1.0,,,,,,,,,gray,triangle
0.0,5.0,1.0,1.0,6.0,6.0,260.9686869991492,2.0,1.0,phase_2,stop,300.0,300.0,3.0,,,,,,,,,cyan,square
0.0,7.0,3.0,1.0,5.0,0.0,0.0,2.0,1.0,phase_2,stop,300.0,250.0,4.0,,,,,,,,,magenta,hexagon
0.0,4.0,4.0,0.0,5.0,5.0,532.5937719999274,2.0,1.0,phase_2,go,350.0,250.0,1.0,,,,,,,,,blue,diamond
0.0,7.0,3.0,1.0,6.0,6.0,317.5288020001972,2.0,1.0,phase_2,go,350.0,250.0,1.0,,,,,,,,,magenta,hexagon
0.0,6.0,2.0,1.0,5.0,5.0,346.4045569999143,2.0,1.0,phase_2,stop,350.0,250.0,3.0,,,,,,,,,green,flipped triangle
0.0,8.0,4.0,1.0,6.0,6.0,482.933397999659,2.0,1.0,phase_2,go,300.0,250.0,1.0,,,,,,,,,orange,I
0.0,8.0,4.0,1.0,5.0,5.0,288.5925059999863,2.0,1.0,phase_2,stop,300.0,250.0,3.0,,,,,,,,,orange,I
0.0,8.0,4.0,1.0,5.0,5.0,615.465709000091,2.0,1.0,phase_2,go,250.0,250.0,1.0,,,,,,,,,orange,I
0.0,4.0,4.0,0.0,5.0,5.0,631.4325510002163,2.0,1.0,phase_2,go,250.0,250.0,1.0,,,,,,,,,blue,diamond
0.0,3.0,3.0,0.0,6.0,6.0,325.5862660007551,2.0,1.0,phase_2,go,250.0,250.0,1.0,,,,,,,,,yellow,circle
0.0,3.0,3.0,0.0,6.0,6.0,280.9853499993551,2.0,1.0,phase_2,go,250.0,250.0,1.0,,,,,,,,,yellow,circle
0.0,1.0,1.0,0.0,6.0,6.0,353.2817279992741,2.0,1.0,phase_2,go,250.0,250.0,1.0,,,,,,,,,white,cross
0.0,5.0,1.0,1.0,6.0,6.0,340.9548609997728,2.0,1.0,phase_2,stop,250.0,250.0,3.0,,,,,,,,,cyan,square
0.0,2.0,2.0,0.0,6.0,6.0,482.4904520000928,2.0,1.0,phase_2,go,250.0,200.0,1.0,,,,,,,,,gray,triangle
0.0,1.0,1.0,0.0,6.0,6.0,389.1386489995057,2.0,1.0,phase_2,go,250.0,200.0,1.0,,,,,,,,,white,cross
0.0,6.0,2.0,1.0,6.0,6.0,326.6611590006505,2.0,1.0,phase_2,stop,250.0,200.0,3.0,,,,,,,,,green,flipped triangle
0.0,4.0,4.0,0.0,5.0,5.0,634.5712080001249,2.0,1.0,phase_2,go,250.0,150.0,1.0,,,,,,,,,blue,diamond
0.0,5.0,1.0,1.0,6.0,6.0,308.412207999936,2.0,1.0,phase_2,stop,250.0,150.0,3.0,,,,,,,,,cyan,square
0.0,4.0,4.0,0.0,5.0,5.0,495.21963600000157,2.0,1.0,phase_2,go,250.0,100.0,1.0,,,,,,,,,blue,diamond
0.0,8.0,4.0,1.0,6.0,0.0,0.0,2.0,1.0,phase_2,stop,250.0,100.0,4.0,,,,,,,,,orange,I
0.0,2.0,2.0,0.0,5.0,5.0,463.9205079993189,2.0,1.0,phase_2,go,250.0,150.0,1.0,,,,,,,,,gray,triangle
0.0,7.0,3.0,1.0,5.0,0.0,0.0,2.0,1.0,phase_2,stop,250.0,150.0,4.0,,,,,,,,,magenta,hexagon
0.0,6.0,2.0,1.0,6.0,0.0,0.0,2.0,1.0,phase_2,stop,300.0,150.0,4.0,,,,,,,,,green,flipped triangle
0.0,3.0,3.0,0.0,5.0,5.0,575.9661820002293,2.0,1.0,phase_2,go,300.0,200.0,1.0,,,,,,,,,yellow,circle
0.0,4.0,4.0,0.0,6.0,6.0,549.850792000143,2.0,1.0,phase_2,go,300.0,200.0,1.0,,,,,,,,,blue,diamond
0.0,2.0,2.0,0.0,6.0,6.0,353.413666999586,2.0,1.0,phase_2,go,300.0,200.0,1.0,,,,,,,,,gray,triangle
0.0,8.0,4.0,1.0,6.0,0.0,0.0,2.0,1.0,phase_2,stop,300.0,200.0,4.0,,,,,,,,,orange,I
0.0,6.0,2.0,1.0,5.0,5.0,429.3505779996849,2.0,1.0,phase_2,go,300.0,250.0,1.0,,,,,,,,,green,flipped triangle
0.0,6.0,2.0,1.0,5.0,5.0,370.5896049996227,2.0,1.0,phase_2,stop,300.0,250.0,3.0,,,,,,,,,green,flipped triangle
0.0,4.0,4.0,0.0,5.0,5.0,418.8598990003811,2.0,1.0,phase_2,go,250.0,250.0,1.0,,,,,,,,,blue,diamond
0.0,5.0,1.0,1.0,5.0,5.0,372.7591020006002,2.0,1.0,phase_2,stop,250.0,250.0,3.0,,,,,,,,,cyan,square
0.0,5.0,1.0,1.0,5.0,5.0,344.2522969999118,2.0,1.0,phase_2,go,200.0,250.0,1.0,,,,,,,,,cyan,square
0.0,4.0,4.0,0.0,5.0,5.0,446.1367220001193,3.0,1.0,phase_2,go,200.0,250.0,1.0,,,,,,,,,blue,diamond
0.0,8.0,4.0,1.0,6.0,6.0,391.6786549998505,3.0,1.0,phase_2,stop,200.0,250.0,3.0,,,,,,,,,orange,I
0.0,3.0,3.0,0.0,6.0,6.0,429.5599340002809,3.0,1.0,phase_2,go,200.0,200.0,1.0,,,,,,,,,yellow,circle
0.0,5.0,1.0,1.0,5.0,5.0,389.679304999845,3.0,1.0,phase_2,go,200.0,200.0,1.0,,,,,,,,,cyan,square
0.0,6.0,2.0,1.0,5.0,0.0,0.0,3.0,1.0,phase_2,stop,200.0,200.0,4.0,,,,,,,,,green,flipped triangle
0.0,7.0,3.0,1.0,6.0,6.0,345.0337300000683,3.0,1.0,phase_2,stop,250.0,200.0,3.0,,,,,,,,,magenta,hexagon
0.0,6.0,2.0,1.0,6.0,6.0,519.9751680002009,3.0,1.0,phase_2,go,250.0,150.0,1.0,,,,,,,,,green,flipped triangle
0.0,4.0,4.0,0.0,6.0,6.0,354.5540530003563,3.0,1.0,phase_2,go,250.0,150.0,1.0,,,,,,,,,blue,diamond
0.0,1.0,1.0,0.0,5.0,5.0,465.5216399996789,3.0,1.0,phase_2,go,250.0,150.0,1.0,,,,,,,,,white,cross
0.0,6.0,2.0,1.0,5.0,5.0,364.9702439997782,3.0,1.0,phase_2,stop,250.0,150.0,3.0,,,,,,,,,green,flipped triangle
0.0,7.0,3.0,1.0,5.0,0.0,0.0,3.0,1.0,phase_2,stop,200.0,150.0,4.0,,,,,,,,,magenta,hexagon
0.0,2.0,2.0,0.0,5.0,5.0,642.6876420000553,3.0,1.0,phase_2,go,250.0,150.0,1.0,,,,,,,,,gray,triangle
0.0,3.0,3.0,0.0,6.0,6.0,363.2974190004461,3.0,1.0,phase_2,go,250.0,150.0,1.0,,,,,,,,,yellow,circle
0.0,4.0,4.0,0.0,6.0,6.0,325.74912299969577,3.0,1.0,phase_2,go,250.0,150.0,1.0,,,,,,,,,blue,diamond
0.0,2.0,2.0,0.0,6.0,6.0,280.110787999547,3.0,1.0,phase_2,go,250.0,150.0,1.0,,,,,,,,,gray,triangle
0.0,1.0,1.0,0.0,5.0,5.0,316.4138319998528,3.0,1.0,phase_2,go,250.0,150.0,1.0,,,,,,,,,white,cross
0.0,7.0,3.0,1.0,5.0,5.0,328.1508660002146,3.0,1.0,phase_2,stop,250.0,150.0,3.0,,,,,,,,,magenta,hexagon
0.0,4.0,4.0,0.0,6.0,6.0,324.6827450002456,3.0,1.0,phase_2,go,200.0,150.0,1.0,,,,,,,,,blue,diamond
0.0,1.0,1.0,0.0,6.0,6.0,325.0546649996977,3.0,1.0,phase_2,go,200.0,150.0,1.0,,,,,,,,,white,cross
0.0,1.0,1.0,0.0,6.0,6.0,334.6501329997409,3.0,1.0,phase_2,go,200.0,150.0,1.0,,,,,,,,,white,cross
0.0,8.0,4.0,1.0,6.0,0.0,0.0,3.0,1.0,phase_2,stop,200.0,150.0,4.0,,,,,,,,,orange,I
0.0,6.0,2.0,1.0,6.0,0.0,0.0,3.0,1.0,phase_2,stop,200.0,200.0,4.0,,,,,,,,,green,flipped triangle
0.0,4.0,4.0,0.0,6.0,6.0,633.0436509997526,3.0,1.0,phase_2,go,200.0,250.0,1.0,,,,,,,,,blue,diamond
0.0,4.0,4.0,0.0,5.0,5.0,317.0658420003747,3.0,1.0,phase_2,go,200.0,250.0,1.0,,,,,,,,,blue,diamond
0.0,7.0,3.0,1.0,5.0,5.0,348.2518840000921,3.0,1.0,phase_2,stop,200.0,250.0,3.0,,,,,,,,,magenta,hexagon
0.0,1.0,1.0,0.0,5.0,5.0,401.78851499968,3.0,1.0,phase_2,go,150.0,250.0,1.0,,,,,,,,,white,cross
0.0,6.0,2.0,1.0,5.0,0.0,0.0,3.0,1.0,phase_2,stop,150.0,250.0,4.0,,,,,,,,,green,flipped triangle
0.0,7.0,3.0,1.0,5.0,0.0,0.0,3.0,1.0,phase_2,stop,200.0,250.0,4.0,,,,,,,,,magenta,hexagon
0.0,4.0,4.0,0.0,6.0,6.0,391.6471940001429,3.0,1.0,phase_2,go,250.0,250.0,1.0,,,,,,,,,blue,diamond
0.0,2.0,2.0,0.0,6.0,6.0,345.9060340001088,3.0,1.0,phase_2,go,250.0,250.0,1.0,,,,,,,,,gray,triangle
0.0,4.0,4.0,0.0,6.0,6.0,317.8857419998167,3.0,1.0,phase_2,go,250.0,250.0,1.0,,,,,,,,,blue,diamond
0.0,7.0,3.0,1.0,5.0,5.0,311.8356189997939,3.0,1.0,phase_2,stop,250.0,250.0,3.0,,,,,,,,,magenta,hexagon
0.0,8.0,4.0,1.0,6.0,6.0,294.7032470001431,3.0,1.0,phase_2,stop,200.0,250.0,3.0,,,,,,,,,orange,I
0.0,4.0,4.0,0.0,6.0,6.0,445.82566400004,3.0,1.0,phase_2,go,200.0,200.0,1.0,,,,,,,,,blue,diamond
0.0,1.0,1.0,0.0,5.0,5.0,613.6208339994482,3.0,1.0,phase_2,go,200.0,200.0,1.0,,,,,,,,,white,cross
0.0,2.0,2.0,0.0,5.0,5.0,436.8124829998123,3.0,1.0,phase_2,go,200.0,200.0,1.0,,,,,,,,,gray,triangle
0.0,4.0,4.0,0.0,6.0,6.0,837.613300999692,4.0,1.0,phase_2,go,200.0,200.0,1.0,,,,,,,,,blue,diamond
0.0,2.0,2.0,0.0,5.0,5.0,336.5721819991449,4.0,1.0,phase_2,go,200.0,200.0,1.0,,,,,,,,,gray,triangle
0.0,6.0,2.0,1.0,6.0,6.0,292.8906600000118,4.0,1.0,phase_2,stop,200.0,200.0,3.0,,,,,,,,,green,flipped triangle
0.0,5.0,1.0,1.0,6.0,6.0,355.9568970003965,4.0,1.0,phase_2,go,200.0,150.0,1.0,,,,,,,,,cyan,square
0.0,8.0,4.0,1.0,6.0,6.0,387.1315830001549,4.0,1.0,phase_2,stop,200.0,150.0,3.0,,,,,,,,,orange,I
0.0,7.0,3.0,1.0,6.0,0.0,0.0,4.0,1.0,phase_2,stop,200.0,100.0,4.0,,,,,,,,,magenta,hexagon
0.0,7.0,3.0,1.0,6.0,6.0,650.7384199994704,4.0,1.0,phase_2,go,200.0,150.0,1.0,,,,,,,,,magenta,hexagon
0.0,6.0,2.0,1.0,6.0,6.0,308.4131460000208,4.0,1.0,phase_2,stop,200.0,150.0,3.0,,,,,,,,,green,flipped triangle
0.0,4.0,4.0,0.0,6.0,6.0,374.4494579996171,4.0,1.0,phase_2,go,200.0,100.0,1.0,,,,,,,,,blue,diamond
0.0,8.0,4.0,1.0,6.0,0.0,0.0,4.0,1.0,phase_2,stop,200.0,100.0,4.0,,,,,,,,,orange,I
0.0,5.0,1.0,1.0,6.0,0.0,0.0,4.0,1.0,phase_2,stop,200.0,150.0,4.0,,,,,,,,,cyan,square
0.0,7.0,3.0,1.0,5.0,5.0,380.7198389995392,4.0,1.0,phase_2,stop,200.0,200.0,3.0,,,,,,,,,magenta,hexagon
0.0,3.0,3.0,0.0,5.0,5.0,402.1652219998941,4.0,1.0,phase_2,go,150.0,200.0,1.0,,,,,,,,,yellow,circle
0.0,7.0,3.0,1.0,6.0,6.0,531.1646560003283,4.0,1.0,phase_2,go,150.0,200.0,1.0,,,,,,,,,magenta,hexagon
0.0,5.0,1.0,1.0,6.0,0.0,0.0,4.0,1.0,phase_2,stop,150.0,200.0,4.0,,,,,,,,,cyan,square
0.0,4.0,4.0,0.0,5.0,5.0,456.8548030001693,4.0,1.0,phase_2,go,150.0,250.0,1.0,,,,,,,,,blue,diamond
0.0,5.0,1.0,1.0,5.0,0.0,0.0,4.0,1.0,phase_2,stop,150.0,250.0,4.0,,,,,,,,,cyan,square
0.0,7.0,3.0,1.0,5.0,0.0,0.0,4.0,1.0,phase_2,stop,200.0,250.0,4.0,,,,,,,,,magenta,hexagon
0.0,5.0,1.0,1.0,6.0,6.0,402.181575999748,4.0,1.0,phase_2,stop,250.0,250.0,3.0,,,,,,,,,cyan,square
0.0,4.0,4.0,0.0,6.0,6.0,502.7823330001411,4.0,1.0,phase_2,go,250.0,200.0,1.0,,,,,,,,,blue,diamond
0.0,3.0,3.0,0.0,5.0,5.0,699.1576560003523,4.0,1.0,phase_2,go,250.0,200.0,1.0,,,,,,,,,yellow,circle
0.0,8.0,4.0,1.0,5.0,5.0,419.4648089996917,4.0,1.0,phase_2,stop,250.0,200.0,3.0,,,,,,,,,orange,I
0.0,5.0,1.0,1.0,5.0,5.0,496.978678999767,4.0,1.0,phase_2,go,200.0,200.0,1.0,,,,,,,,,cyan,square
0.0,1.0,1.0,0.0,5.0,5.0,513.1403699997463,4.0,1.0,phase_2,go,200.0,200.0,1.0,,,,,,,,,white,cross
0.0,6.0,2.0,1.0,5.0,5.0,339.3409220007015,4.0,1.0,phase_2,stop,200.0,200.0,3.0,,,,,,,,,green,flipped triangle
0.0,6.0,2.0,1.0,5.0,0.0,0.0,4.0,1.0,phase_2,stop,150.0,200.0,4.0,,,,,,,,,green,flipped triangle
0.0,1.0,1.0,0.0,6.0,6.0,550.9156960006294,4.0,1.0,phase_2,go,200.0,200.0,1.0,,,,,,,,,white,cross
0.0,7.0,3.0,1.0,5.0,5.0,588.428697999916,4.0,1.0,phase_2,go,200.0,200.0,1.0,,,,,,,,,magenta,hexagon
0.0,5.0,1.0,1.0,5.0,0.0,0.0,4.0,1.0,phase_2,stop,200.0,200.0,4.0,,,,,,,,,cyan,square
0.0,8.0,4.0,1.0,5.0,0.0,0.0,4.0,1.0,phase_2,stop,250.0,200.0,4.0,,,,,,,,,orange,I
0.0,1.0,1.0,0.0,5.0,5.0,569.7467110003345,4.0,1.0,phase_2,go,300.0,200.0,1.0,,,,,,,,,white,cross
0.0,1.0,1.0,0.0,6.0,6.0,337.844781000058,4.0,1.0,phase_2,go,300.0,200.0,1.0,,,,,,,,,white,cross
0.0,2.0,2.0,0.0,6.0,6.0,401.551758000096,4.0,1.0,phase_2,go,300.0,200.0,1.0,,,,,,,,,gray,triangle
0.0,7.0,3.0,1.0,6.0,6.0,488.6005339994881,4.0,1.0,phase_2,stop,300.0,200.0,3.0,,,,,,,,,magenta,hexagon
0.0,1.0,1.0,0.0,6.0,6.0,413.7001389999568,4.0,1.0,phase_2,go,300.0,150.0,1.0,,,,,,,,,white,cross
0.0,1.0,1.0,0.0,5.0,5.0,344.2566830008218,4.0,1.0,phase_2,go,300.0,150.0,1.0,,,,,,,,,white,cross
0.0,3.0,3.0,0.0,6.0,6.0,401.7708829996991,5.0,1.0,phase_2,go,300.0,150.0,1.0,,,,,,,,,yellow,circle
0.0,8.0,4.0,1.0,6.0,6.0,400.073347000216,5.0,1.0,phase_2,stop,300.0,150.0,3.0,,,,,,,,,orange,I
0.0,3.0,3.0,0.0,6.0,6.0,390.0484570003755,5.0,1.0,phase_2,go,300.0,100.0,1.0,,,,,,,,,yellow,circle
0.0,8.0,4.0,1.0,5.0,5.0,335.7155069998043,5.0,1.0,phase_2,stop,300.0,100.0,3.0,,,,,,,,,orange,I
0.0,3.0,3.0,0.0,5.0,5.0,381.6077629999199,5.0,1.0,phase_2,go,250.0,100.0,1.0,,,,,,,,,yellow,circle
0.0,7.0,3.0,1.0,6.0,0.0,0.0,5.0,1.0,phase_2,stop,250.0,100.0,4.0,,,,,,,,,magenta,hexagon
0.0,5.0,1.0,1.0,5.0,0.0,0.0,5.0,1.0,phase_2,stop,250.0,150.0,4.0,,,,,,,,,cyan,square
0.0,3.0,3.0,0.0,5.0,5.0,541.8528239997613,5.0,1.0,phase_2,go,300.0,150.0,1.0,,,,,,,,,yellow,circle
0.0,5.0,1.0,1.0,6.0,0.0,0.0,5.0,1.0,phase_2,stop,300.0,150.0,4.0,,,,,,,,,cyan,square
0.0,7.0,3.0,1.0,6.0,6.0,318.2535330006431,5.0,1.0,phase_2,go,300.0,200.0,1.0,,,,,,,,,magenta,hexagon
0.0,5.0,1.0,1.0,6.0,6.0,411.6322990003027,5.0,1.0,phase_2,stop,300.0,200.0,3.0,,,,,,,,,cyan,square
0.0,2.0,2.0,0.0,5.0,5.0,530.9624910005368,5.0,1.0,phase_2,go,300.0,150.0,1.0,,,,,,,,,gray,triangle
0.0,1.0,1.0,0.0,6.0,6.0,410.0743620001594,5.0,1.0,phase_2,go,300.0,150.0,1.0,,,,,,,,,white,cross
0.0,3.0,3.0,0.0,5.0,5.0,457.4347909992866,5.0,1.0,phase_2,go,300.0,150.0,1.0,,,,,,,,,yellow,circle
0.0,6.0,2.0,1.0,5.0,5.0,560.7661860003645,5.0,1.0,phase_2,go,300.0,150.0,1.0,,,,,,,,,green,flipped triangle
0.0,8.0,4.0,1.0,6.0,0.0,0.0,5.0,1.0,phase_2,stop,300.0,150.0,4.0,,,,,,,,,orange,I
0.0,2.0,2.0,0.0,5.0,5.0,391.8009610006265,5.0,1.0,phase_2,go,300.0,200.0,1.0,,,,,,,,,gray,triangle
0.0,7.0,3.0,1.0,6.0,6.0,345.4931280002711,5.0,1.0,phase_2,stop,300.0,200.0,3.0,,,,,,,,,magenta,hexagon
0.0,1.0,1.0,0.0,6.0,6.0,435.9253100001297,5.0,1.0,phase_2,go,300.0,150.0,1.0,,,,,,,,,white,cross
0.0,6.0,2.0,1.0,5.0,5.0,339.7212400004719,5.0,1.0,phase_2,stop,300.0,150.0,3.0,,,,,,,,,green,flipped triangle
0.0,2.0,2.0,0.0,6.0,6.0,417.9646330003379,5.0,1.0,phase_2,go,250.0,150.0,1.0,,,,,,,,,gray,triangle
0.0,1.0,1.0,0.0,5.0,5.0,529.9304720001601,5.0,1.0,phase_2,go,250.0,150.0,1.0,,,,,,,,,white,cross
0.0,8.0,4.0,1.0,6.0,0.0,0.0,5.0,1.0,phase_2,stop,250.0,150.0,4.0,,,,,,,,,orange,I
0.0,3.0,3.0,0.0,6.0,6.0,567.5582320000103,5.0,1.0,phase_2,go,250.0,200.0,1.0,,,,,,,,,yellow,circle
0.0,2.0,2.0,0.0,5.0,5.0,418.3088760000828,5.0,1.0,phase_2,go,250.0,200.0,1.0,,,,,,,,,gray,triangle
0.0,3.0,3.0,0.0,6.0,6.0,334.5904839998184,5.0,1.0,phase_2,go,250.0,200.0,1.0,,,,,,,,,yellow,circle
0.0,7.0,3.0,1.0,6.0,6.0,494.3289259999801,5.0,1.0,phase_2,go,250.0,200.0,1.0,,,,,,,,,magenta,hexagon
0.0,6.0,2.0,1.0,6.0,6.0,577.722551000079,5.0,1.0,phase_2,go,250.0,200.0,1.0,,,,,,,,,green,flipped triangle
0.0,8.0,4.0,1.0,5.0,0.0,0.0,5.0,1.0,phase_2,stop,250.0,200.0,4.0,,,,,,,,,orange,I
0.0,5.0,1.0,1.0,5.0,5.0,603.3164279997436,5.0,1.0,phase_2,go,300.0,200.0,1.0,,,,,,,,,cyan,square
0.0,4.0,4.0,0.0,5.0,5.0,556.7301800001587,5.0,1.0,phase_2,go,300.0,200.0,1.0,,,,,,,,,blue,diamond
0.0,3.0,3.0,0.0,6.0,6.0,325.87531199988,5.0,1.0,phase_2,go,300.0,200.0,1.0,,,,,,,,,yellow,circle
0.0,7.0,3.0,1.0,5.0,5.0,381.0848969997096,5.0,1.0,phase_2,stop,300.0,200.0,3.0,,,,,,,,,magenta,hexagon
0.0,2.0,2.0,0.0,5.0,5.0,391.7686719996709,5.0,1.0,phase_2,go,250.0,200.0,1.0,,,,,,,,,gray,triangle
0.0,5.0,1.0,1.0,6.0,6.0,504.2374579998068,5.0,1.0,phase_2,go,250.0,200.0,1.0,,,,,,,,,cyan,square
0.0,3.0,3.0,0.0,6.0,6.0,298.2312389995059,5.0,1.0,phase_2,go,250.0,200.0,1.0,,,,,,,,,yellow,circle
0.0,1.0,1.0,0.0,6.0,6.0,419.2799140000716,6.0,1.0,phase_2,go,250.0,200.0,1.0,,,,,,,,,white,cross
0.0,8.0,4.0,1.0,5.0,5.0,298.4625400004006,6.0,1.0,phase_2,stop,250.0,200.0,3.0,,,,,,,,,orange,I
0.0,1.0,1.0,0.0,5.0,5.0,335.6320599996252,6.0,1.0,phase_2,go,200.0,200.0,1.0,,,,,,,,,white,cross
0.0,7.0,3.0,1.0,5.0,5.0,333.5368050002216,6.0,1.0,phase_2,stop,200.0,200.0,3.0,,,,,,,,,magenta,hexagon
0.0,6.0,2.0,1.0,5.0,5.0,466.1508930003037,6.0,1.0,phase_2,go,150.0,200.0,1.0,,,,,,,,,green,flipped triangle
0.0,3.0,3.0,0.0,6.0,6.0,418.2635280003524,6.0,1.0,phase_2,go,150.0,200.0,1.0,,,,,,,,,yellow,circle
0.0,5.0,1.0,1.0,5.0,0.0,0.0,6.0,1.0,phase_2,stop,150.0,200.0,4.0,,,,,,,,,cyan,square
0.0,6.0,2.0,1.0,5.0,0.0,0.0,6.0,1.0,phase_2,stop,200.0,200.0,4.0,,,,,,,,,green,flipped triangle
0.0,3.0,3.0,0.0,5.0,5.0,540.8771749998778,6.0,1.0,phase_2,go,250.0,200.0,1.0,,,,,,,,,yellow,circle
0.0,8.0,4.0,1.0,5.0,5.0,438.7841040006606,6.0,1.0,phase_2,stop,250.0,200.0,3.0,,,,,,,,,orange,I
0.0,2.0,2.0,0.0,6.0,6.0,401.6397999994296,6.0,1.0,phase_2,go,200.0,200.0,1.0,,,,,,,,,gray,triangle
0.0,3.0,3.0,0.0,5.0,5.0,532.4332079999294,6.0,1.0,phase_2,go,200.0,200.0,1.0,,,,,,,,,yellow,circle
0.0,1.0,1.0,0.0,6.0,6.0,362.3591519999536,6.0,1.0,phase_2,go,200.0,200.0,1.0,,,,,,,,,white,cross
0.0,3.0,3.0,0.0,6.0,6.0,373.2988929996281,6.0,1.0,phase_2,go,200.0,200.0,1.0,,,,,,,,,yellow,circle
0.0,1.0,1.0,0.0,5.0,5.0,438.4039549995577,6.0,1.0,phase_2,go,200.0,200.0,1.0,,,,,,,,,white,cross
0.0,8.0,4.0,1.0,6.0,6.0,326.9036459996641,6.0,1.0,phase_2,stop,200.0,200.0,3.0,,,,,,,,,orange,I
0.0,8.0,4.0,1.0,6.0,6.0,320.495428999493,6.0,1.0,phase_2,stop,200.0,150.0,3.0,,,,,,,,,orange,I
0.0,1.0,1.0,0.0,5.0,5.0,410.7990000002246,6.0,1.0,phase_2,go,200.0,100.0,1.0,,,,,,,,,white,cross
0.0,6.0,2.0,1.0,6.0,0.0,0.0,6.0,1.0,phase_2,stop,200.0,100.0,4.0,,,,,,,,,green,flipped triangle
0.0,2.0,2.0,0.0,6.0,6.0,401.080883000759,6.0,1.0,phase_2,go,200.0,150.0,1.0,,,,,,,,,gray,triangle
0.0,2.0,2.0,0.0,6.0,6.0,354.7483459997238,6.0,1.0,phase_2,go,200.0,150.0,1.0,,,,,,,,,gray,triangle
0.0,4.0,4.0,0.0,6.0,6.0,316.1061020000488,6.0,1.0,phase_2,go,200.0,150.0,1.0,,,,,,,,,blue,diamond
0.0,1.0,1.0,0.0,6.0,6.0,317.8458360007425,6.0,1.0,phase_2,go,200.0,150.0,1.0,,,,,,,,,white,cross
0.0,8.0,4.0,1.0,6.0,6.0,298.4423739999329,6.0,1.0,phase_2,go,200.0,150.0,1.0,,,,,,,,,orange,I
0.0,2.0,2.0,0.0,6.0,6.0,364.8174590007329,6.0,1.0,phase_2,go,200.0,150.0,1.0,,,,,,,,,gray,triangle
0.0,8.0,4.0,1.0,5.0,5.0,366.8625119998978,6.0,1.0,phase_2,stop,200.0,150.0,3.0,,,,,,,,,orange,I
0.0,4.0,4.0,0.0,5.0,5.0,514.7353539996402,6.0,1.0,phase_2,go,150.0,150.0,1.0,,,,,,,,,blue,diamond
0.0,5.0,1.0,1.0,5.0,0.0,0.0,6.0,1.0,phase_2,stop,150.0,150.0,4.0,,,,,,,,,cyan,square
0.0,6.0,2.0,1.0,5.0,5.0,458.3965010006068,6.0,1.0,phase_2,go,200.0,150.0,1.0,,,,,,,,,green,flipped triangle
0.0,8.0,4.0,1.0,5.0,0.0,0.0,6.0,1.0,phase_2,stop,200.0,150.0,4.0,,,,,,,,,orange,I
0.0,7.0,3.0,1.0,5.0,5.0,606.541641000149,6.0,1.0,phase_2,stop,250.0,150.0,3.0,,,,,,,,,magenta,hexagon
0.0,5.0,1.0,1.0,6.0,0.0,0.0,6.0,1.0,phase_2,stop,200.0,150.0,4.0,,,,,,,,,cyan,square
0.0,2.0,2.0,0.0,5.0,5.0,430.1519620003091,6.0,1.0,phase_2,go,200.0,200.0,1.0,,,,,,,,,gray,triangle
0.0,5.0,1.0,1.0,5.0,0.0,0.0,6.0,1.0,phase_2,stop,200.0,200.0,4.0,,,,,,,,,cyan,square
0.0,6.0,2.0,1.0,6.0,0.0,0.0,6.0,1.0,phase_2,stop,250.0,200.0,4.0,,,,,,,,,green,flipped triangle
0.0,6.0,2.0,1.0,6.0,6.0,385.8467299996846,6.0,1.0,phase_2,stop,250.0,250.0,3.0,,,,,,,,,green,flipped triangle
0.0,2.0,2.0,0.0,6.0,6.0,345.1033850005842,7.0,1.0,phase_2,go,250.0,200.0,1.0,,,,,,,,,gray,triangle
0.0,7.0,3.0,1.0,6.0,6.0,351.6656159999911,7.0,1.0,phase_2,stop,250.0,200.0,3.0,,,,,,,,,magenta,hexagon
0.0,3.0,3.0,0.0,6.0,6.0,326.2660610007515,7.0,1.0,phase_2,go,250.0,150.0,1.0,,,,,,,,,yellow,circle
0.0,6.0,2.0,1.0,5.0,5.0,316.943363000064,7.0,1.0,phase_2,go,250.0,150.0,1.0,,,,,,,,,green,flipped triangle
0.0,6.0,2.0,1.0,6.0,0.0,0.0,7.0,1.0,phase_2,stop,250.0,150.0,4.0,,,,,,,,,green,flipped triangle
0.0,7.0,3.0,1.0,5.0,0.0,0.0,7.0,1.0,phase_2,stop,250.0,200.0,4.0,,,,,,,,,magenta,hexagon
0.0,6.0,2.0,1.0,5.0,5.0,444.2192879996582,7.0,1.0,phase_2,stop,300.0,200.0,3.0,,,,,,,,,green,flipped triangle
0.0,3.0,3.0,0.0,6.0,6.0,326.6531850003957,7.0,1.0,phase_2,go,250.0,200.0,1.0,,,,,,,,,yellow,circle
0.0,5.0,1.0,1.0,6.0,0.0,0.0,7.0,1.0,phase_2,stop,250.0,200.0,4.0,,,,,,,,,cyan,square
0.0,8.0,4.0,1.0,6.0,6.0,607.3657539991473,7.0,1.0,phase_2,go,250.0,250.0,1.0,,,,,,,,,orange,I
0.0,3.0,3.0,0.0,6.0,6.0,334.8213429999305,7.0,1.0,phase_2,go,250.0,250.0,1.0,,,,,,,,,yellow,circle
0.0,4.0,4.0,0.0,6.0,6.0,281.325167000432,7.0,1.0,phase_2,go,250.0,250.0,1.0,,,,,,,,,blue,diamond
0.0,7.0,3.0,1.0,5.0,0.0,0.0,7.0,1.0,phase_2,stop,250.0,250.0,4.0,,,,,,,,,magenta,hexagon
0.0,1.0,1.0,0.0,5.0,5.0,597.0688150000569,7.0,1.0,phase_2,go,300.0,250.0,1.0,,,,,,,,,white,cross
0.0,3.0,3.0,0.0,5.0,5.0,382.8263899995363,7.0,1.0,phase_2,go,300.0,250.0,1.0,,,,,,,,,yellow,circle
0.0,7.0,3.0,1.0,6.0,6.0,337.2237470002801,7.0,1.0,phase_2,stop,300.0,250.0,3.0,,,,,,,,,magenta,hexagon
0.0,1.0,1.0,0.0,5.0,5.0,334.8754449998523,7.0,1.0,phase_2,go,300.0,200.0,1.0,,,,,,,,,white,cross
0.0,3.0,3.0,0.0,6.0,6.0,326.1695280007188,7.0,1.0,phase_2,go,300.0,200.0,1.0,,,,,,,,,yellow,circle
0.0,3.0,3.0,0.0,5.0,5.0,308.0481599999984,7.0,1.0,phase_2,go,300.0,200.0,1.0,,,,,,,,,yellow,circle
0.0,7.0,3.0,1.0,6.0,6.0,351.3163199995688,7.0,1.0,phase_2,stop,300.0,200.0,3.0,,,,,,,,,magenta,hexagon
0.0,1.0,1.0,0.0,6.0,6.0,587.0449759995608,7.0,1.0,phase_2,go,300.0,150.0,1.0,,,,,,,,,white,cross
0.0,1.0,1.0,0.0,6.0,6.0,297.4789660001988,7.0,1.0,phase_2,go,300.0,150.0,1.0,,,,,,,,,white,cross
0.0,2.0,2.0,0.0,5.0,5.0,493.1545199997345,7.0,1.0,phase_2,go,300.0,150.0,1.0,,,,,,,,,gray,triangle
0.0,5.0,1.0,1.0,6.0,0.0,0.0,7.0,1.0,phase_2,stop,300.0,150.0,4.0,,,,,,,,,cyan,square
0.0,1.0,1.0,0.0,5.0,5.0,344.9722180002936,7.0,1.0,phase_2,go,300.0,200.0,1.0,,,,,,,,,white,cross
0.0,3.0,3.0,0.0,5.0,5.0,380.3092070002094,7.0,1.0,phase_2,go,300.0,200.0,1.0,,,,,,,,,yellow,circle
0.0,7.0,3.0,1.0,6.0,6.0,343.5368710006514,7.0,1.0,phase_2,go,300.0,200.0,1.0,,,,,,,,,magenta,hexagon
0.0,1.0,1.0,0.0,5.0,5.0,343.4573989998171,7.0,1.0,phase_2,go,300.0,200.0,1.0,,,,,,,,,white,cross
0.0,1.0,1.0,0.0,6.0,6.0,344.581805999951,7.0,1.0,phase_2,go,300.0,200.0,1.0,,,,,,,,,white,cross
0.0,2.0,2.0,0.0,6.0,6.0,382.9209829991669,7.0,1.0,phase_2,go,300.0,200.0,1.0,,,,,,,,,gray,triangle
0.0,2.0,2.0,0.0,6.0,6.0,408.6271769992891,7.0,1.0,phase_2,go,300.0,200.0,1.0,,,,,,,,,gray,triangle
0.0,4.0,4.0,0.0,5.0,5.0,474.0381720002915,7.0,1.0,phase_2,go,300.0,200.0,1.0,,,,,,,,,blue,diamond
0.0,6.0,2.0,1.0,5.0,5.0,499.5958859999518,7.0,1.0,phase_2,stop,300.0,200.0,3.0,,,,,,,,,green,flipped triangle
0.0,5.0,1.0,1.0,5.0,0.0,0.0,7.0,1.0,phase_2,stop,250.0,200.0,4.0,,,,,,,,,cyan,square
0.0,2.0,2.0,0.0,6.0,6.0,465.4265099998156,7.0,1.0,phase_2,go,300.0,200.0,1.0,,,,,,,,,gray,triangle
0.0,1.0,1.0,0.0,5.0,5.0,438.2883990001573,7.0,1.0,phase_2,go,300.0,200.0,1.0,,,,,,,,,white,cross
0.0,5.0,1.0,1.0,6.0,6.0,405.0844229996073,8.0,1.0,phase_2,stop,300.0,200.0,3.0,,,,,,,,,cyan,square
0.0,2.0,2.0,0.0,5.0,5.0,399.5152189991131,8.0,1.0,phase_2,go,300.0,150.0,1.0,,,,,,,,,gray,triangle
0.0,7.0,3.0,1.0,5.0,5.0,376.6310379996866,8.0,1.0,phase_2,stop,300.0,150.0,3.0,,,,,,,,,magenta,hexagon
0.0,2.0,2.0,0.0,5.0,5.0,538.2949530003316,8.0,1.0,phase_2,go,250.0,150.0,1.0,,,,,,,,,gray,triangle
0.0,4.0,4.0,0.0,5.0,5.0,400.7893850002801,8.0,1.0,phase_2,go,250.0,150.0,1.0,,,,,,,,,blue,diamond
0.0,5.0,1.0,1.0,6.0,6.0,317.4067220006691,8.0,1.0,phase_2,go,250.0,150.0,1.0,,,,,,,,,cyan,square
0.0,8.0,4.0,1.0,6.0,0.0,0.0,8.0,1.0,phase_2,stop,250.0,150.0,4.0,,,,,,,,,orange,I
0.0,2.0,2.0,0.0,5.0,5.0,622.8640019999148,8.0,1.0,phase_2,go,250.0,200.0,1.0,,,,,,,,,gray,triangle
0.0,4.0,4.0,0.0,5.0,5.0,605.530963000092,8.0,1.0,phase_2,go,250.0,200.0,1.0,,,,,,,,,blue,diamond
0.0,6.0,2.0,1.0,6.0,6.0,316.3173840002855,8.0,1.0,phase_2,go,250.0,200.0,1.0,,,,,,,,,green,flipped triangle
0.0,2.0,2.0,0.0,6.0,6.0,343.8837909998256,8.0,1.0,phase_2,go,250.0,200.0,1.0,,,,,,,,,gray,triangle
0.0,6.0,2.0,1.0,5.0,5.0,380.2239469996493,8.0,1.0,phase_2,stop,250.0,200.0,3.0,,,,,,,,,green,flipped triangle
0.0,4.0,4.0,0.0,6.0,6.0,370.6058170000688,8.0,1.0,phase_2,go,200.0,200.0,1.0,,,,,,,,,blue,diamond
0.0,2.0,2.0,0.0,5.0,5.0,474.1408350000711,8.0,1.0,phase_2,go,200.0,200.0,1.0,,,,,,,,,gray,triangle
0.0,2.0,2.0,0.0,5.0,5.0,437.9411599993545,8.0,1.0,phase_2,go,200.0,200.0,1.0,,,,,,,,,gray,triangle
0.0,1.0,1.0,0.0,5.0,5.0,436.5606369992747,8.0,1.0,phase_2,go,200.0,200.0,1.0,,,,,,,,,white,cross
0.0,3.0,3.0,0.0,5.0,5.0,465.0712519996887,8.0,1.0,phase_2,go,200.0,200.0,1.0,,,,,,,,,yellow,circle
0.0,5.0,1.0,1.0,6.0,0.0,0.0,8.0,1.0,phase_2,stop,200.0,200.0,4.0,,,,,,,,,cyan,square
0.0,8.0,4.0,1.0,5.0,5.0,585.7058559995494,8.0,1.0,phase_2,go,200.0,250.0,1.0,,,,,,,,,orange,I
0.0,2.0,2.0,0.0,6.0,6.0,433.5478590001003,8.0,1.0,phase_2,go,200.0,250.0,1.0,,,,,,,,,gray,triangle
0.0,6.0,2.0,1.0,6.0,6.0,361.2910030005878,8.0,1.0,phase_2,stop,200.0,250.0,3.0,,,,,,,,,green,flipped triangle
0.0,3.0,3.0,0.0,5.0,5.0,466.0758669997449,8.0,1.0,phase_2,go,200.0,200.0,1.0,,,,,,,,,yellow,circle
0.0,7.0,3.0,1.0,6.0,6.0,345.6627410005239,8.0,1.0,phase_2,go,200.0,200.0,1.0,,,,,,,,,magenta,hexagon
0.0,8.0,4.0,1.0,5.0,5.0,436.59305700020917,8.0,1.0,phase_2,go,200.0,200.0,1.0,,,,,,,,,orange,I
0.0,4.0,4.0,0.0,5.0,5.0,408.3690939996813,8.0,1.0,phase_2,go,200.0,200.0,1.0,,,,,,,,,blue,diamond
0.0,5.0,1.0,1.0,6.0,6.0,316.4219589998538,8.0,1.0,phase_2,stop,200.0,200.0,3.0,,,,,,,,,cyan,square
0.0,7.0,3.0,1.0,5.0,0.0,0.0,8.0,1.0,phase_2,stop,200.0,150.0,4.0,,,,,,,,,magenta,hexagon
0.0,3.0,3.0,0.0,5.0,5.0,522.6322449998406,8.0,1.0,phase_2,go,250.0,150.0,1.0,,,,,,,,,yellow,circle
0.0,3.0,3.0,0.0,5.0,5.0,409.5935559998906,8.0,1.0,phase_2,go,250.0,150.0,1.0,,,,,,,,,yellow,circle
0.0,4.0,4.0,0.0,6.0,6.0,288.6568970006919,8.0,1.0,phase_2,go,250.0,150.0,1.0,,,,,,,,,blue,diamond
0.0,4.0,4.0,0.0,5.0,5.0,501.42322899955616,8.0,1.0,phase_2,go,250.0,150.0,1.0,,,,,,,,,blue,diamond
0.0,2.0,2.0,0.0,6.0,6.0,261.0805949998394,8.0,1.0,phase_2,go,250.0,150.0,1.0,,,,,,,,,gray,triangle
0.0,4.0,4.0,0.0,5.0,5.0,269.733771000574,8.0,1.0,phase_2,go,250.0,150.0,1.0,,,,,,,,,blue,diamond
0.0,1.0,1.0,0.0,6.0,6.0,260.4877849998956,8.0,1.0,phase_2,go,250.0,150.0,1.0,,,,,,,,,white,cross
0.0,1.0,1.0,0.0,6.0,6.0,307.5443429997904,8.0,1.0,phase_2,go,250.0,150.0,1.0,,,,,,,,,white,cross
0.0,2.0,2.0,0.0,5.0,5.0,398.6919219996707,8.0,1.0,phase_2,go,250.0,150.0,1.0,,,,,,,,,gray,triangle
0.0,3.0,3.0,0.0,7.0,2.0,2036.3392110002678,1.0,1.0,phase_3,,,,,519.0,3.0,865.0,519.0,692.0,1038.0,346.0,173.0,yellow,circle
0.0,3.0,3.0,0.0,7.0,4.0,2657.917914999416,1.0,1.0,phase_3,,,,,770.0,5.0,616.0,462.0,154.0,770.0,924.0,308.0,yellow,circle
0.0,8.0,4.0,1.0,7.0,2.0,2815.098447999844,1.0,1.0,phase_3,,,,,810.0,6.0,675.0,810.0,135.0,405.0,270.0,540.0,orange,I
0.0,7.0,3.0,1.0,7.0,4.0,2226.059423000152,1.0,1.0,phase_3,,,,,348.0,3.0,116.0,696.0,580.0,348.0,232.0,464.0,magenta,hexagon
0.0,3.0,3.0,0.0,7.0,5.0,2562.470850000864,1.0,1.0,phase_3,,,,,865.0,5.0,519.0,692.0,173.0,346.0,865.0,1038.0,yellow,circle
0.0,4.0,4.0,0.0,7.0,6.0,3643.8978870000938,1.0,1.0,phase_3,,,,,464.0,4.0,232.0,696.0,116.0,580.0,348.0,464.0,blue,diamond
0.0,6.0,2.0,1.0,7.0,1.0,2296.906436999961,1.0,1.0,phase_3,,,,,616.0,4.0,616.0,770.0,154.0,462.0,924.0,308.0,green,flipped triangle
0.0,5.0,1.0,1.0,7.0,4.0,1790.4355520004174,1.0,1.0,phase_3,,,,,519.0,3.0,865.0,173.0,692.0,519.0,1038.0,346.0,cyan,square
0.0,1.0,1.0,0.0,7.0,2.0,1800.7130539999707,1.0,1.0,phase_3,,,,,580.0,5.0,232.0,580.0,464.0,116.0,696.0,348.0,white,cross
0.0,3.0,3.0,0.0,7.0,6.0,1199.1836430006515,1.0,1.0,phase_3,,,,,810.0,6.0,135.0,270.0,675.0,540.0,405.0,810.0,yellow,circle
0.0,3.0,3.0,0.0,7.0,5.0,2208.516263999627,1.0,1.0,phase_3,,,,,1152.0,6.0,768.0,576.0,960.0,192.0,1152.0,384.0,yellow,circle
0.0,8.0,4.0,1.0,7.0,4.0,1579.3630389998723,1.0,1.0,phase_3,,,,,696.0,6.0,116.0,232.0,464.0,696.0,348.0,580.0,orange,I
0.0,1.0,1.0,0.0,7.0,1.0,1587.697594999554,1.0,1.0,phase_3,,,,,405.0,3.0,405.0,810.0,135.0,540.0,270.0,675.0,white,cross
0.0,2.0,2.0,0.0,7.0,6.0,1625.1009369998428,1.0,1.0,phase_3,,,,,675.0,5.0,810.0,135.0,405.0,540.0,270.0,675.0,gray,triangle
0.0,5.0,1.0,1.0,7.0,5.0,2294.8492279992934,1.0,1.0,phase_3,,,,,696.0,6.0,232.0,464.0,116.0,580.0,696.0,348.0,cyan,square
0.0,2.0,2.0,0.0,7.0,4.0,1190.989271000035,1.0,1.0,phase_3,,,,,580.0,5.0,116.0,232.0,464.0,580.0,696.0,348.0,gray,triangle
0.0,1.0,1.0,0.0,7.0,1.0,1745.701084999382,1.0,1.0,phase_3,,,,,696.0,6.0,696.0,232.0,464.0,348.0,116.0,580.0,white,cross
0.0,5.0,1.0,1.0,7.0,5.0,3127.8413970003385,1.0,1.0,phase_3,,,,,696.0,6.0,232.0,116.0,464.0,348.0,696.0,580.0,cyan,square
0.0,2.0,2.0,0.0,7.0,6.0,1023.3215289999862,1.0,1.0,phase_3,,,,,580.0,5.0,232.0,348.0,696.0,116.0,464.0,580.0,gray,triangle
0.0,3.0,3.0,0.0,7.0,2.0,1441.0040789998677,1.0,1.0,phase_3,,,,,924.0,6.0,154.0,924.0,462.0,616.0,770.0,308.0,yellow,circle
0.0,5.0,1.0,1.0,7.0,5.0,1464.4187870007954,2.0,1.0,phase_3,,,,,768.0,4.0,192.0,576.0,960.0,1152.0,768.0,384.0,cyan,square
0.0,4.0,4.0,0.0,7.0,3.0,2180.3858350003798,2.0,1.0,phase_3,,,,,540.0,4.0,810.0,405.0,540.0,675.0,135.0,270.0,blue,diamond
0.0,8.0,4.0,1.0,7.0,3.0,1043.838314999448,2.0,1.0,phase_3,,,,,960.0,5.0,576.0,1152.0,960.0,384.0,192.0,768.0,orange,I
0.0,6.0,2.0,1.0,7.0,6.0,1487.7672470001926,2.0,1.0,phase_3,,,,,519.0,3.0,865.0,692.0,1038.0,173.0,346.0,519.0,green,flipped triangle
0.0,5.0,1.0,1.0,7.0,1.0,2124.8874129996693,2.0,1.0,phase_3,,,,,924.0,6.0,924.0,770.0,462.0,308.0,616.0,154.0,cyan,square
0.0,7.0,3.0,1.0,7.0,5.0,2235.3348750002624,2.0,1.0,phase_3,,,,,960.0,5.0,768.0,192.0,576.0,1152.0,960.0,384.0,magenta,hexagon
0.0,6.0,2.0,1.0,7.0,3.0,1463.9254690000598,2.0,1.0,phase_3,,,,,576.0,3.0,768.0,960.0,576.0,384.0,1152.0,192.0,green,flipped triangle
0.0,2.0,2.0,0.0,7.0,2.0,1625.046967999879,2.0,1.0,phase_3,,,,,384.0,2.0,960.0,384.0,1152.0,576.0,192.0,768.0,gray,triangle
0.0,8.0,4.0,1.0,7.0,5.0,913.714629000424,2.0,1.0,phase_3,,,,,232.0,2.0,464.0,580.0,348.0,696.0,232.0,116.0,orange,I
0.0,2.0,2.0,0.0,7.0,1.0,2020.775588000106,2.0,1.0,phase_3,,,,,308.0,2.0,308.0,770.0,154.0,924.0,616.0,462.0,gray,triangle
0.0,7.0,3.0,1.0,7.0,2.0,1195.916114999818,2.0,1.0,phase_3,,,,,960.0,5.0,192.0,960.0,1152.0,768.0,384.0,576.0,magenta,hexagon
0.0,8.0,4.0,1.0,7.0,6.0,1272.358377999808,2.0,1.0,phase_3,,,,,384.0,2.0,576.0,1152.0,960.0,768.0,192.0,384.0,orange,I
0.0,4.0,4.0,0.0,7.0,2.0,1852.2753639999792,2.0,1.0,phase_3,,,,,308.0,2.0,462.0,308.0,924.0,770.0,154.0,616.0,blue,diamond
0.0,6.0,2.0,1.0,7.0,4.0,1702.8242099995623,2.0,1.0,phase_3,,,,,768.0,4.0,576.0,384.0,960.0,768.0,192.0,1152.0,green,flipped triangle
0.0,1.0,1.0,0.0,7.0,5.0,1557.4178209999443,2.0,1.0,phase_3,,,,,173.0,1.0,346.0,865.0,519.0,1038.0,173.0,692.0,white,cross
0.0,3.0,3.0,0.0,7.0,1.0,1428.6037330002728,2.0,1.0,phase_3,,,,,810.0,6.0,810.0,135.0,540.0,405.0,675.0,270.0,yellow,circle
0.0,1.0,1.0,0.0,7.0,3.0,2178.5175280001567,2.0,1.0,phase_3,,,,,1038.0,6.0,692.0,173.0,1038.0,519.0,865.0,346.0,white,cross
0.0,2.0,2.0,0.0,7.0,5.0,897.2272749997501,2.0,1.0,phase_3,,,,,346.0,2.0,865.0,173.0,1038.0,519.0,346.0,692.0,gray,triangle
0.0,2.0,2.0,0.0,7.0,4.0,719.1788289992473,2.0,1.0,phase_3,,,,,616.0,4.0,924.0,154.0,770.0,616.0,308.0,462.0,gray,triangle
0.0,6.0,2.0,1.0,7.0,1.0,1363.877630999923,2.0,1.0,phase_3,,,,,580.0,5.0,580.0,232.0,116.0,696.0,464.0,348.0,green,flipped triangle
0.0,4.0,4.0,0.0,7.0,6.0,873.7657639994723,3.0,1.0,phase_3,,,,,768.0,4.0,192.0,576.0,1152.0,960.0,384.0,768.0,blue,diamond
0.0,2.0,2.0,0.0,7.0,2.0,757.1543080002812,3.0,1.0,phase_3,,,,,540.0,4.0,405.0,540.0,675.0,810.0,135.0,270.0,gray,triangle
0.0,7.0,3.0,1.0,7.0,4.0,1363.3427980003034,3.0,1.0,phase_3,,,,,270.0,2.0,675.0,810.0,540.0,270.0,405.0,135.0,magenta,hexagon
0.0,1.0,1.0,0.0,7.0,3.0,1392.1779349993813,3.0,1.0,phase_3,,,,,768.0,4.0,576.0,960.0,768.0,192.0,384.0,1152.0,white,cross
0.0,3.0,3.0,0.0,7.0,4.0,1098.1737780002732,3.0,1.0,phase_3,,,,,232.0,2.0,116.0,348.0,464.0,232.0,580.0,696.0,yellow,circle
0.0,6.0,2.0,1.0,7.0,5.0,903.1270460000088,3.0,1.0,phase_3,,,,,540.0,4.0,810.0,675.0,405.0,270.0,540.0,135.0,green,flipped triangle
0.0,7.0,3.0,1.0,7.0,2.0,1486.9613809996736,3.0,1.0,phase_3,,,,,696.0,6.0,580.0,696.0,116.0,348.0,464.0,232.0,magenta,hexagon
0.0,4.0,4.0,0.0,7.0,6.0,901.513261999753,3.0,1.0,phase_3,,,,,519.0,3.0,865.0,173.0,346.0,1038.0,692.0,519.0,blue,diamond
0.0,7.0,3.0,1.0,7.0,5.0,2135.8766410003227,3.0,1.0,phase_3,,,,,692.0,4.0,346.0,173.0,1038.0,519.0,692.0,865.0,magenta,hexagon
0.0,6.0,2.0,1.0,7.0,1.0,1448.9061539998147,3.0,1.0,phase_3,,,,,1038.0,6.0,1038.0,692.0,346.0,173.0,519.0,865.0,green,flipped triangle
0.0,1.0,1.0,0.0,7.0,3.0,1425.7232299996758,3.0,1.0,phase_3,,,,,1152.0,6.0,960.0,384.0,1152.0,576.0,768.0,192.0,white,cross
0.0,1.0,1.0,0.0,7.0,5.0,2003.4490660000301,3.0,1.0,phase_3,,,,,616.0,4.0,462.0,924.0,308.0,770.0,616.0,154.0,white,cross
0.0,8.0,4.0,1.0,7.0,2.0,2326.053502999457,3.0,1.0,phase_3,,,,,462.0,3.0,924.0,462.0,308.0,154.0,770.0,616.0,orange,I
0.0,8.0,4.0,1.0,7.0,5.0,1776.0533380005654,3.0,1.0,phase_3,,,,,540.0,4.0,405.0,810.0,675.0,270.0,540.0,135.0,orange,I
0.0,3.0,3.0,0.0,7.0,1.0,2011.496244999762,3.0,1.0,phase_3,,,,,576.0,3.0,576.0,1152.0,192.0,384.0,768.0,960.0,yellow,circle
0.0,2.0,2.0,0.0,7.0,2.0,2316.7242370000167,3.0,1.0,phase_3,,,,,692.0,4.0,865.0,692.0,1038.0,346.0,519.0,173.0,gray,triangle
0.0,1.0,1.0,0.0,7.0,3.0,1836.3287000001949,3.0,1.0,phase_3,,,,,770.0,5.0,308.0,154.0,770.0,616.0,924.0,462.0,white,cross
0.0,6.0,2.0,1.0,7.0,1.0,2838.1028559997503,3.0,1.0,phase_3,,,,,616.0,4.0,616.0,154.0,924.0,308.0,770.0,462.0,green,flipped triangle
0.0,8.0,4.0,1.0,7.0,2.0,1931.929641000352,3.0,1.0,phase_3,,,,,616.0,4.0,308.0,616.0,154.0,770.0,924.0,462.0,orange,I
0.0,8.0,4.0,1.0,7.0,4.0,2685.2349609998782,3.0,1.0,phase_3,,,,,692.0,4.0,519.0,1038.0,865.0,692.0,346.0,173.0,orange,I
0.0,7.0,3.0,1.0,7.0,1.0,1036.4499629995407,4.0,1.0,phase_3,,,,,616.0,4.0,616.0,924.0,154.0,770.0,462.0,308.0,magenta,hexagon
0.0,4.0,4.0,0.0,7.0,3.0,1525.858590000098,4.0,1.0,phase_3,,,,,810.0,6.0,405.0,270.0,810.0,540.0,675.0,135.0,blue,diamond
0.0,3.0,3.0,0.0,7.0,1.0,1395.055640999999,4.0,1.0,phase_3,,,,,696.0,6.0,696.0,232.0,116.0,580.0,464.0,348.0,yellow,circle
0.0,4.0,4.0,0.0,7.0,4.0,1616.4734789999784,4.0,1.0,phase_3,,,,,768.0,4.0,192.0,1152.0,960.0,768.0,384.0,576.0,blue,diamond
0.0,8.0,4.0,1.0,7.0,3.0,1912.1439809996448,4.0,1.0,phase_3,,,,,865.0,5.0,692.0,519.0,865.0,346.0,173.0,1038.0,orange,I
0.0,7.0,3.0,1.0,7.0,2.0,1643.7429179995888,4.0,1.0,phase_3,,,,,675.0,5.0,810.0,675.0,135.0,540.0,270.0,405.0,magenta,hexagon
0.0,5.0,1.0,1.0,7.0,3.0,1789.522449999822,4.0,1.0,phase_3,,,,,675.0,5.0,540.0,135.0,675.0,405.0,270.0,810.0,cyan,square
0.0,5.0,1.0,1.0,7.0,1.0,2574.207538999872,4.0,1.0,phase_3,,,,,865.0,5.0,865.0,173.0,692.0,519.0,1038.0,346.0,cyan,square
0.0,4.0,4.0,0.0,7.0,2.0,1638.486756999555,4.0,1.0,phase_3,,,,,519.0,3.0,692.0,519.0,173.0,865.0,346.0,1038.0,blue,diamond
0.0,6.0,2.0,1.0,7.0,3.0,2154.163197000344,4.0,1.0,phase_3,,,,,580.0,5.0,116.0,696.0,580.0,464.0,232.0,348.0,green,flipped triangle
0.0,1.0,1.0,0.0,7.0,5.0,2168.610085999717,4.0,1.0,phase_3,,,,,675.0,5.0,405.0,270.0,540.0,135.0,675.0,810.0,white,cross
0.0,4.0,4.0,0.0,7.0,1.0,2937.9662760002248,4.0,1.0,phase_3,,,,,116.0,1.0,116.0,696.0,464.0,580.0,348.0,232.0,blue,diamond
0.0,5.0,1.0,1.0,7.0,4.0,1353.1829499997912,4.0,1.0,phase_3,,,,,308.0,2.0,770.0,462.0,924.0,308.0,154.0,616.0,cyan,square
0.0,5.0,1.0,1.0,7.0,5.0,1365.294463000282,4.0,1.0,phase_3,,,,,810.0,6.0,540.0,135.0,405.0,675.0,810.0,270.0,cyan,square
0.0,7.0,3.0,1.0,7.0,6.0,4127.716731999499,4.0,1.0,phase_3,,,,,770.0,5.0,462.0,616.0,308.0,924.0,154.0,770.0,magenta,hexagon
0.0,7.0,3.0,1.0,7.0,4.0,1607.8511509995224,4.0,1.0,phase_3,,,,,692.0,4.0,1038.0,519.0,346.0,692.0,173.0,865.0,magenta,hexagon
0.0,2.0,2.0,0.0,7.0,3.0,1910.807379999824,4.0,1.0,phase_3,,,,,768.0,4.0,1152.0,192.0,768.0,576.0,384.0,960.0,gray,triangle
0.0,5.0,1.0,1.0,7.0,1.0,2013.2630799998879,4.0,1.0,phase_3,,,,,768.0,4.0,768.0,576.0,960.0,1152.0,192.0,384.0,cyan,square
0.0,6.0,2.0,1.0,7.0,3.0,2122.118794999551,4.0,1.0,phase_3,,,,,810.0,6.0,675.0,135.0,810.0,540.0,270.0,405.0,green,flipped triangle
0.0,4.0,4.0,0.0,7.0,5.0,2302.727173999301,4.0,1.0,phase_3,,,,,462.0,3.0,616.0,924.0,308.0,770.0,462.0,154.0,blue,diamond
