raw_reward_magnitude,stim_reward,stepwise_reward_magnitude,paired_with_stopping,stim_location,response,reaction_time,block,num_trial_presentations,which_phase,stop_signal_trial_type,left_SSD,right_SSD,accuracy,chosen_bidding_amount,chosen_bidding_level,possible_bid_1,possible_bid_2,possible_bid_3,possible_bid_4,possible_bid_5,possible_bid_6,color_text,shape_text
0.0,2.0,0.0,0.0,4.0,4.0,396.0335609999674,1.0,1.0,phase_1,,,,,,,,,,,,,orange,I
330.0,2.0,1.0,0.0,3.0,3.0,341.3949650002905,1.0,1.0,phase_1,,,,,,,,,,,,,orange,I
0.0,7.0,0.0,1.0,3.0,3.0,321.2669839999762,1.0,1.0,phase_1,,,,,,,,,,,,,yellow,circle
0.0,2.0,0.0,0.0,1.0,1.0,349.6273249998012,1.0,1.0,phase_1,,,,,,,,,,,,,orange,I
325.0,2.0,1.0,0.0,2.0,2.0,320.7309479998912,1.0,1.0,phase_1,,,,,,,,,,,,,orange,I
637.0,3.0,2.0,0.0,3.0,3.0,301.8779599997288,1.0,1.0,phase_1,,,,,,,,,,,,,white,square
307.0,6.0,1.0,1.0,2.0,2.0,282.6762620002228,1.0,1.0,phase_1,,,,,,,,,,,,,magenta,flipped triangle
1321.0,4.0,4.0,0.0,4.0,4.0,272.5416899997981,1.0,1.0,phase_1,,,,,,,,,,,,,blue,diamond
664.0,3.0,2.0,0.0,1.0,1.0,357.6333329997396,1.0,1.0,phase_1,,,,,,,,,,,,,white,square
314.0,6.0,1.0,1.0,3.0,3.0,319.3417719999161,1.0,1.0,phase_1,,,,,,,,,,,,,magenta,flipped triangle
1294.0,8.0,4.0,1.0,4.0,4.0,330.2639600001384,1.0,1.0,phase_1,,,,,,,,,,,,,gray,hexagon
1311.0,4.0,4.0,0.0,4.0,4.0,367.3511080000935,1.0,1.0,phase_1,,,,,,,,,,,,,blue,diamond
1292.0,8.0,4.0,1.0,1.0,1.0,358.3928049997666,1.0,2.0,phase_1,,,,,,,,,,,,,gray,hexagon
663.0,3.0,2.0,0.0,1.0,1.0,359.2371009999624,1.0,1.0,phase_1,,,,,,,,,,,,,white,square
156.0,1.0,0.5,0.0,3.0,3.0,320.3387630001089,1.0,1.0,phase_1,,,,,,,,,,,,,cyan,cross
330.0,6.0,1.0,1.0,1.0,1.0,320.5064409999067,1.0,1.0,phase_1,,,,,,,,,,,,,magenta,flipped triangle
0.0,7.0,0.0,1.0,2.0,2.0,329.94534500039657,1.0,1.0,phase_1,,,,,,,,,,,,,yellow,circle
0.0,1.0,0.0,0.0,4.0,4.0,198.4397440000975,1.0,1.0,phase_1,,,,,,,,,,,,,cyan,cross
328.0,2.0,1.0,0.0,1.0,1.0,301.2161450001258,1.0,1.0,phase_1,,,,,,,,,,,,,orange,I
0.0,8.0,0.0,1.0,4.0,4.0,301.0613910000757,1.0,1.0,phase_1,,,,,,,,,,,,,gray,hexagon
1294.0,4.0,4.0,0.0,1.0,1.0,320.4569700001229,1.0,1.0,phase_1,,,,,,,,,,,,,blue,diamond
325.0,6.0,1.0,1.0,1.0,1.0,359.0788149999753,1.0,2.0,phase_1,,,,,,,,,,,,,magenta,flipped triangle
170.0,1.0,0.5,0.0,2.0,2.0,348.4473349999462,1.0,1.0,phase_1,,,,,,,,,,,,,cyan,cross
335.0,6.0,1.0,1.0,4.0,4.0,405.7812699998067,1.0,2.0,phase_1,,,,,,,,,,,,,magenta,flipped triangle
627.0,7.0,2.0,1.0,3.0,3.0,320.0669089997063,1.0,1.0,phase_1,,,,,,,,,,,,,yellow,circle
164.0,1.0,0.5,0.0,1.0,1.0,378.8437180000983,1.0,1.0,phase_1,,,,,,,,,,,,,cyan,cross
153.0,1.0,0.5,0.0,1.0,1.0,462.3066250001102,1.0,1.0,phase_1,,,,,,,,,,,,,cyan,cross
338.0,2.0,1.0,0.0,2.0,2.0,376.6819520001263,1.0,1.0,phase_1,,,,,,,,,,,,,orange,I
637.0,7.0,2.0,1.0,2.0,2.0,301.5855339999689,1.0,1.0,phase_1,,,,,,,,,,,,,yellow,circle
153.0,5.0,0.5,1.0,3.0,3.0,358.37996200007177,1.0,1.0,phase_1,,,,,,,,,,,,,green,triangle
0.0,1.0,0.0,0.0,4.0,4.0,377.8714489999402,1.0,1.0,phase_1,,,,,,,,,,,,,cyan,cross
0.0,8.0,0.0,1.0,1.0,1.0,329.0867030000299,1.0,1.0,phase_1,,,,,,,,,,,,,gray,hexagon
0.0,5.0,0.0,1.0,2.0,2.0,272.9927979999047,1.0,1.0,phase_1,,,,,,,,,,,,,green,triangle
304.0,6.0,1.0,1.0,4.0,4.0,283.0397749999065,1.0,1.0,phase_1,,,,,,,,,,,,,magenta,flipped triangle
0.0,6.0,0.0,1.0,3.0,3.0,385.2295379997486,1.0,1.0,phase_1,,,,,,,,,,,,,magenta,flipped triangle
639.0,7.0,2.0,1.0,4.0,4.0,340.0081989998398,1.0,1.0,phase_1,,,,,,,,,,,,,yellow,circle
329.0,6.0,1.0,1.0,2.0,2.0,329.2420900002071,1.0,1.0,phase_1,,,,,,,,,,,,,magenta,flipped triangle
0.0,4.0,0.0,0.0,4.0,4.0,292.0282580003004,1.0,1.0,phase_1,,,,,,,,,,,,,blue,diamond
1316.0,8.0,4.0,1.0,2.0,2.0,301.9835840000269,1.0,1.0,phase_1,,,,,,,,,,,,,gray,hexagon
644.0,3.0,2.0,0.0,3.0,3.0,339.02740800022,1.0,1.0,phase_1,,,,,,,,,,,,,white,square
674.0,7.0,2.0,1.0,2.0,2.0,441.3328450000335,1.0,1.0,phase_1,,,,,,,,,,,,,yellow,circle
672.0,3.0,2.0,0.0,3.0,3.0,346.0230910000064,1.0,1.0,phase_1,,,,,,,,,,,,,white,square
1319.0,8.0,4.0,1.0,3.0,3.0,310.8401389999926,1.0,1.0,phase_1,,,,,,,,,,,,,gray,hexagon
1316.0,8.0,4.0,1.0,3.0,3.0,321.5589860001273,1.0,1.0,phase_1,,,,,,,,,,,,,gray,hexagon
336.0,2.0,1.0,0.0,3.0,3.0,329.0436970000883,1.0,1.0,phase_1,,,,,,,,,,,,,orange,I
0.0,4.0,0.0,0.0,3.0,3.0,300.7105110000339,1.0,1.0,phase_1,,,,,,,,,,,,,blue,diamond
347.0,2.0,1.0,0.0,3.0,3.0,311.7389950002689,1.0,1.0,phase_1,,,,,,,,,,,,,orange,I
1280.0,8.0,4.0,1.0,1.0,1.0,385.4802350001591,1.0,1.0,phase_1,,,,,,,,,,,,,gray,hexagon
666.0,7.0,2.0,1.0,3.0,3.0,367.1629509999548,1.0,1.0,phase_1,,,,,,,,,,,,,yellow,circle
318.0,2.0,1.0,0.0,4.0,4.0,320.3536189998885,1.0,1.0,phase_1,,,,,,,,,,,,,orange,I
139.0,5.0,0.5,1.0,4.0,4.0,329.2483980003453,1.0,1.0,phase_1,,,,,,,,,,,,,green,triangle
184.0,1.0,0.5,0.0,2.0,2.0,338.973788000203,1.0,1.0,phase_1,,,,,,,,,,,,,cyan,cross
347.0,6.0,1.0,1.0,2.0,2.0,302.7541050000764,1.0,1.0,phase_1,,,,,,,,,,,,,magenta,flipped triangle
640.0,3.0,2.0,0.0,1.0,1.0,415.0662850001936,1.0,1.0,phase_1,,,,,,,,,,,,,white,square
0.0,4.0,0.0,0.0,1.0,1.0,330.0701779999144,1.0,1.0,phase_1,,,,,,,,,,,,,blue,diamond
1298.0,8.0,4.0,1.0,4.0,4.0,348.2931809999172,1.0,1.0,phase_1,,,,,,,,,,,,,gray,hexagon
323.0,2.0,1.0,0.0,4.0,4.0,338.7294359999941,1.0,1.0,phase_1,,,,,,,,,,,,,orange,I
164.0,5.0,0.5,1.0,4.0,4.0,330.2274510001552,1.0,1.0,phase_1,,,,,,,,,,,,,green,triangle
0.0,3.0,0.0,0.0,3.0,3.0,376.7035830001077,1.0,1.0,phase_1,,,,,,,,,,,,,white,square
180.0,1.0,0.5,0.0,3.0,3.0,310.3419539997958,1.0,1.0,phase_1,,,,,,,,,,,,,cyan,cross
659.0,3.0,2.0,0.0,2.0,2.0,357.8506179997021,1.0,1.0,phase_1,,,,,,,,,,,,,white,square
647.0,3.0,2.0,0.0,1.0,1.0,281.5938749999986,1.0,1.0,phase_1,,,,,,,,,,,,,white,square
1312.0,8.0,4.0,1.0,1.0,1.0,357.4525019998873,1.0,1.0,phase_1,,,,,,,,,,,,,gray,hexagon
0.0,8.0,0.0,1.0,2.0,2.0,386.3684749999265,1.0,1.0,phase_1,,,,,,,,,,,,,gray,hexagon
0.0,5.0,0.0,1.0,2.0,2.0,414.779363999969,1.0,1.0,phase_1,,,,,,,,,,,,,green,triangle
186.0,1.0,0.5,0.0,1.0,1.0,479.4536060003338,1.0,1.0,phase_1,,,,,,,,,,,,,cyan,cross
328.0,6.0,1.0,1.0,3.0,3.0,424.0308359999289,1.0,2.0,phase_1,,,,,,,,,,,,,magenta,flipped triangle
177.0,1.0,0.5,0.0,2.0,2.0,449.4562119998591,1.0,1.0,phase_1,,,,,,,,,,,,,cyan,cross
664.0,7.0,2.0,1.0,1.0,1.0,396.2788779999755,1.0,1.0,phase_1,,,,,,,,,,,,,yellow,circle
639.0,3.0,2.0,0.0,4.0,4.0,301.5390719997413,1.0,1.0,phase_1,,,,,,,,,,,,,white,square
303.0,6.0,1.0,1.0,3.0,3.0,300.4338739997365,1.0,1.0,phase_1,,,,,,,,,,,,,magenta,flipped triangle
0.0,2.0,0.0,0.0,3.0,3.0,367.6734139999098,1.0,1.0,phase_1,,,,,,,,,,,,,orange,I
324.0,6.0,1.0,1.0,4.0,4.0,339.6132719999514,1.0,1.0,phase_1,,,,,,,,,,,,,magenta,flipped triangle
1307.0,8.0,4.0,1.0,4.0,4.0,329.81685499998997,1.0,1.0,phase_1,,,,,,,,,,,,,gray,hexagon
1304.0,4.0,4.0,0.0,2.0,2.0,348.7568689997715,1.0,1.0,phase_1,,,,,,,,,,,,,blue,diamond
627.0,3.0,2.0,0.0,2.0,2.0,367.9765319998296,1.0,1.0,phase_1,,,,,,,,,,,,,white,square
305.0,2.0,1.0,0.0,1.0,1.0,338.8266900001326,1.0,1.0,phase_1,,,,,,,,,,,,,orange,I
0.0,6.0,0.0,1.0,2.0,2.0,357.7963679999811,1.0,1.0,phase_1,,,,,,,,,,,,,magenta,flipped triangle
326.0,2.0,1.0,0.0,1.0,1.0,394.7072750002007,1.0,1.0,phase_1,,,,,,,,,,,,,orange,I
169.0,1.0,0.5,0.0,1.0,1.0,414.1071869998995,1.0,1.0,phase_1,,,,,,,,,,,,,cyan,cross
653.0,3.0,2.0,0.0,4.0,4.0,357.6112900000225,1.0,1.0,phase_1,,,,,,,,,,,,,white,square
633.0,3.0,2.0,0.0,3.0,3.0,329.2927930001497,1.0,1.0,phase_1,,,,,,,,,,,,,white,square
1279.0,4.0,4.0,0.0,4.0,4.0,253.6982050000915,1.0,1.0,phase_1,,,,,,,,,,,,,blue,diamond
1299.0,4.0,4.0,0.0,3.0,3.0,376.1245860000599,1.0,1.0,phase_1,,,,,,,,,,,,,blue,diamond
0.0,8.0,0.0,1.0,2.0,2.0,309.5632579997982,1.0,1.0,phase_1,,,,,,,,,,,,,gray,hexagon
1280.0,4.0,4.0,0.0,1.0,1.0,375.2697879999687,1.0,1.0,phase_1,,,,,,,,,,,,,blue,diamond
1321.0,4.0,4.0,0.0,2.0,2.0,366.8877400000383,1.0,1.0,phase_1,,,,,,,,,,,,,blue,diamond
327.0,6.0,1.0,1.0,3.0,3.0,377.533344999847,1.0,1.0,phase_1,,,,,,,,,,,,,magenta,flipped triangle
148.0,5.0,0.5,1.0,2.0,2.0,337.7727310003138,1.0,1.0,phase_1,,,,,,,,,,,,,green,triangle
170.0,5.0,0.5,1.0,4.0,4.0,338.242763999915,1.0,1.0,phase_1,,,,,,,,,,,,,green,triangle
301.0,2.0,1.0,0.0,1.0,1.0,385.7059279998793,1.0,1.0,phase_1,,,,,,,,,,,,,orange,I
314.0,2.0,1.0,0.0,3.0,3.0,386.6270660000737,1.0,1.0,phase_1,,,,,,,,,,,,,orange,I
163.0,1.0,0.5,0.0,4.0,4.0,310.0203209996834,1.0,1.0,phase_1,,,,,,,,,,,,,cyan,cross
168.0,1.0,0.5,0.0,4.0,4.0,376.6979339998215,1.0,1.0,phase_1,,,,,,,,,,,,,cyan,cross
1298.0,4.0,4.0,0.0,3.0,3.0,339.3417600000248,1.0,1.0,phase_1,,,,,,,,,,,,,blue,diamond
186.0,1.0,0.5,0.0,1.0,1.0,367.2790050000003,1.0,1.0,phase_1,,,,,,,,,,,,,cyan,cross
0.0,7.0,0.0,1.0,1.0,1.0,471.9896120000157,1.0,2.0,phase_1,,,,,,,,,,,,,yellow,circle
660.0,7.0,2.0,1.0,2.0,2.0,340.0918659999661,1.0,1.0,phase_1,,,,,,,,,,,,,yellow,circle
656.0,3.0,2.0,0.0,2.0,2.0,292.9990200000247,1.0,1.0,phase_1,,,,,,,,,,,,,white,square
634.0,7.0,2.0,1.0,4.0,4.0,358.8288999999349,1.0,1.0,phase_1,,,,,,,,,,,,,yellow,circle
340.0,2.0,1.0,0.0,3.0,3.0,351.1634289998255,2.0,1.0,phase_1,,,,,,,,,,,,,orange,I
1287.0,4.0,4.0,0.0,2.0,2.0,425.1452410003367,2.0,1.0,phase_1,,,,,,,,,,,,,blue,diamond
1291.0,8.0,4.0,1.0,4.0,4.0,329.8963399997774,2.0,1.0,phase_1,,,,,,,,,,,,,gray,hexagon
0.0,8.0,0.0,1.0,1.0,1.0,349.1537510003581,2.0,1.0,phase_1,,,,,,,,,,,,,gray,hexagon
141.0,5.0,0.5,1.0,4.0,4.0,284.2550440000195,2.0,1.0,phase_1,,,,,,,,,,,,,green,triangle
0.0,7.0,0.0,1.0,4.0,4.0,321.2353079998138,2.0,1.0,phase_1,,,,,,,,,,,,,yellow,circle
0.0,6.0,0.0,1.0,3.0,3.0,357.6839809998091,2.0,1.0,phase_1,,,,,,,,,,,,,magenta,flipped triangle
650.0,7.0,2.0,1.0,2.0,2.0,415.3185569998641,2.0,1.0,phase_1,,,,,,,,,,,,,yellow,circle
0.0,2.0,0.0,0.0,3.0,3.0,292.8457010002603,2.0,1.0,phase_1,,,,,,,,,,,,,orange,I
149.0,5.0,0.5,1.0,4.0,4.0,302.9276990000653,2.0,1.0,phase_1,,,,,,,,,,,,,green,triangle
1300.0,4.0,4.0,0.0,4.0,4.0,330.6573899999421,2.0,1.0,phase_1,,,,,,,,,,,,,blue,diamond
146.0,5.0,0.5,1.0,2.0,2.0,341.3354250001248,2.0,1.0,phase_1,,,,,,,,,,,,,green,triangle
1291.0,4.0,4.0,0.0,3.0,3.0,292.083614999683,2.0,1.0,phase_1,,,,,,,,,,,,,blue,diamond
0.0,4.0,0.0,0.0,1.0,1.0,340.54857799992527,2.0,1.0,phase_1,,,,,,,,,,,,,blue,diamond
157.0,1.0,0.5,0.0,1.0,1.0,330.3747570002997,2.0,1.0,phase_1,,,,,,,,,,,,,cyan,cross
344.0,2.0,1.0,0.0,1.0,1.0,368.0467029998908,2.0,1.0,phase_1,,,,,,,,,,,,,orange,I
627.0,7.0,2.0,1.0,4.0,4.0,321.2382500000785,2.0,1.0,phase_1,,,,,,,,,,,,,yellow,circle
1304.0,8.0,4.0,1.0,3.0,3.0,320.7153299999845,2.0,1.0,phase_1,,,,,,,,,,,,,gray,hexagon
638.0,3.0,2.0,0.0,2.0,2.0,265.1190349997705,2.0,1.0,phase_1,,,,,,,,,,,,,white,square
334.0,6.0,1.0,1.0,4.0,4.0,300.8537840000826,2.0,1.0,phase_1,,,,,,,,,,,,,magenta,flipped triangle
344.0,2.0,1.0,0.0,4.0,4.0,341.7647609999221,2.0,1.0,phase_1,,,,,,,,,,,,,orange,I
157.0,5.0,0.5,1.0,3.0,3.0,305.071854000289,2.0,1.0,phase_1,,,,,,,,,,,,,green,triangle
152.0,5.0,0.5,1.0,3.0,3.0,311.3082730001224,2.0,1.0,phase_1,,,,,,,,,,,,,green,triangle
650.0,3.0,2.0,0.0,3.0,3.0,292.6671339996574,2.0,1.0,phase_1,,,,,,,,,,,,,white,square
1309.0,8.0,4.0,1.0,1.0,1.0,348.8112879999789,2.0,1.0,phase_1,,,,,,,,,,,,,gray,hexagon
664.0,7.0,2.0,1.0,4.0,4.0,338.7366160000056,2.0,1.0,phase_1,,,,,,,,,,,,,yellow,circle
1285.0,4.0,4.0,0.0,4.0,4.0,302.0546870002363,2.0,1.0,phase_1,,,,,,,,,,,,,blue,diamond
148.0,1.0,0.5,0.0,1.0,1.0,329.5714890000454,2.0,1.0,phase_1,,,,,,,,,,,,,cyan,cross
634.0,7.0,2.0,1.0,1.0,1.0,358.7425260002419,2.0,1.0,phase_1,,,,,,,,,,,,,yellow,circle
0.0,7.0,0.0,1.0,4.0,4.0,339.8988459998691,2.0,1.0,phase_1,,,,,,,,,,,,,yellow,circle
331.0,6.0,1.0,1.0,2.0,2.0,300.5347070002244,2.0,1.0,phase_1,,,,,,,,,,,,,magenta,flipped triangle
139.0,5.0,0.5,1.0,1.0,1.0,302.8621280000152,2.0,1.0,phase_1,,,,,,,,,,,,,green,triangle
312.0,2.0,1.0,0.0,3.0,3.0,338.8587630001893,2.0,2.0,phase_1,,,,,,,,,,,,,orange,I
0.0,1.0,0.0,0.0,3.0,3.0,309.9922510000397,2.0,1.0,phase_1,,,,,,,,,,,,,cyan,cross
652.0,7.0,2.0,1.0,4.0,4.0,321.0609759998988,2.0,1.0,phase_1,,,,,,,,,,,,,yellow,circle
170.0,1.0,0.5,0.0,4.0,4.0,347.9765379997843,2.0,1.0,phase_1,,,,,,,,,,,,,cyan,cross
336.0,6.0,1.0,1.0,1.0,1.0,339.0220840001348,2.0,1.0,phase_1,,,,,,,,,,,,,magenta,flipped triangle
646.0,3.0,2.0,0.0,1.0,1.0,339.8135460001867,2.0,1.0,phase_1,,,,,,,,,,,,,white,square
0.0,4.0,0.0,0.0,4.0,4.0,442.844020999928,2.0,1.0,phase_1,,,,,,,,,,,,,blue,diamond
318.0,6.0,1.0,1.0,2.0,2.0,372.5813709997965,2.0,1.0,phase_1,,,,,,,,,,,,,magenta,flipped triangle
666.0,3.0,2.0,0.0,4.0,4.0,264.8116590003155,2.0,1.0,phase_1,,,,,,,,,,,,,white,square
1321.0,4.0,4.0,0.0,2.0,2.0,376.7337299996143,2.0,1.0,phase_1,,,,,,,,,,,,,blue,diamond
0.0,1.0,0.0,0.0,1.0,1.0,292.034183999931,2.0,1.0,phase_1,,,,,,,,,,,,,cyan,cross
1322.0,8.0,4.0,1.0,3.0,3.0,310.967399999754,2.0,1.0,phase_1,,,,,,,,,,,,,gray,hexagon
628.0,7.0,2.0,1.0,3.0,3.0,366.9878280002194,2.0,1.0,phase_1,,,,,,,,,,,,,yellow,circle
345.0,6.0,1.0,1.0,3.0,3.0,320.0280010000824,2.0,1.0,phase_1,,,,,,,,,,,,,magenta,flipped triangle
186.0,5.0,0.5,1.0,4.0,4.0,291.2271720001627,2.0,1.0,phase_1,,,,,,,,,,,,,green,triangle
629.0,7.0,2.0,1.0,3.0,3.0,282.1175860003677,2.0,1.0,phase_1,,,,,,,,,,,,,yellow,circle
1277.0,4.0,4.0,0.0,2.0,2.0,300.6246469999496,2.0,1.0,phase_1,,,,,,,,,,,,,blue,diamond
145.0,5.0,0.5,1.0,1.0,1.0,357.9923990000679,2.0,1.0,phase_1,,,,,,,,,,,,,green,triangle
177.0,5.0,0.5,1.0,2.0,2.0,329.031343999759,2.0,1.0,phase_1,,,,,,,,,,,,,green,triangle
629.0,3.0,2.0,0.0,3.0,3.0,337.6653850000366,2.0,1.0,phase_1,,,,,,,,,,,,,white,square
0.0,2.0,0.0,0.0,3.0,3.0,339.1831009998896,2.0,1.0,phase_1,,,,,,,,,,,,,orange,I
176.0,5.0,0.5,1.0,2.0,2.0,281.9311110001763,2.0,1.0,phase_1,,,,,,,,,,,,,green,triangle
1307.0,4.0,4.0,0.0,4.0,4.0,328.4284009996554,2.0,1.0,phase_1,,,,,,,,,,,,,blue,diamond
329.0,2.0,1.0,0.0,3.0,3.0,300.1104309996663,2.0,1.0,phase_1,,,,,,,,,,,,,orange,I
1288.0,8.0,4.0,1.0,2.0,2.0,348.3266219996039,2.0,1.0,phase_1,,,,,,,,,,,,,gray,hexagon
330.0,6.0,1.0,1.0,1.0,1.0,338.5041189999356,2.0,1.0,phase_1,,,,,,,,,,,,,magenta,flipped triangle
646.0,7.0,2.0,1.0,1.0,1.0,329.7575820001839,2.0,1.0,phase_1,,,,,,,,,,,,,yellow,circle
628.0,3.0,2.0,0.0,2.0,2.0,329.1724509999767,2.0,1.0,phase_1,,,,,,,,,,,,,white,square
1299.0,4.0,4.0,0.0,3.0,3.0,338.3659010000883,2.0,1.0,phase_1,,,,,,,,,,,,,blue,diamond
186.0,5.0,0.5,1.0,2.0,2.0,338.5752939998383,2.0,1.0,phase_1,,,,,,,,,,,,,green,triangle
662.0,7.0,2.0,1.0,1.0,1.0,273.1210189999729,2.0,1.0,phase_1,,,,,,,,,,,,,yellow,circle
1311.0,4.0,4.0,0.0,1.0,1.0,328.9734019999741,2.0,1.0,phase_1,,,,,,,,,,,,,blue,diamond
669.0,7.0,2.0,1.0,1.0,1.0,310.1724879998073,2.0,1.0,phase_1,,,,,,,,,,,,,yellow,circle
0.0,1.0,0.0,0.0,4.0,4.0,310.4080059997613,2.0,1.0,phase_1,,,,,,,,,,,,,cyan,cross
344.0,6.0,1.0,1.0,4.0,4.0,310.140973000216,2.0,1.0,phase_1,,,,,,,,,,,,,magenta,flipped triangle
1313.0,4.0,4.0,0.0,3.0,3.0,319.1940120000254,2.0,1.0,phase_1,,,,,,,,,,,,,blue,diamond
153.0,1.0,0.5,0.0,2.0,2.0,405.3874780001933,2.0,1.0,phase_1,,,,,,,,,,,,,cyan,cross
169.0,5.0,0.5,1.0,4.0,4.0,311.0645369997655,2.0,1.0,phase_1,,,,,,,,,,,,,green,triangle
1313.0,8.0,4.0,1.0,3.0,3.0,310.4575229999682,2.0,1.0,phase_1,,,,,,,,,,,,,gray,hexagon
335.0,6.0,1.0,1.0,1.0,1.0,433.8079949998246,2.0,1.0,phase_1,,,,,,,,,,,,,magenta,flipped triangle
1275.0,4.0,4.0,0.0,1.0,1.0,292.9185069997402,2.0,1.0,phase_1,,,,,,,,,,,,,blue,diamond
666.0,7.0,2.0,1.0,3.0,3.0,300.5666970002494,2.0,1.0,phase_1,,,,,,,,,,,,,yellow,circle
301.0,6.0,1.0,1.0,2.0,2.0,301.7487249999249,2.0,1.0,phase_1,,,,,,,,,,,,,magenta,flipped triangle
1280.0,4.0,4.0,0.0,1.0,1.0,311.3222130000395,2.0,1.0,phase_1,,,,,,,,,,,,,blue,diamond
1320.0,4.0,4.0,0.0,1.0,1.0,302.134930000193,2.0,1.0,phase_1,,,,,,,,,,,,,blue,diamond
175.0,1.0,0.5,0.0,2.0,2.0,311.1941900001511,2.0,1.0,phase_1,,,,,,,,,,,,,cyan,cross
1312.0,4.0,4.0,0.0,1.0,1.0,329.8581789999844,2.0,2.0,phase_1,,,,,,,,,,,,,blue,diamond
313.0,6.0,1.0,1.0,2.0,2.0,319.8183800000151,2.0,1.0,phase_1,,,,,,,,,,,,,magenta,flipped triangle
1321.0,8.0,4.0,1.0,1.0,1.0,291.9154149999485,2.0,1.0,phase_1,,,,,,,,,,,,,gray,hexagon
168.0,5.0,0.5,1.0,1.0,1.0,310.0573070000791,2.0,1.0,phase_1,,,,,,,,,,,,,green,triangle
304.0,2.0,1.0,0.0,4.0,4.0,273.1619450000835,2.0,2.0,phase_1,,,,,,,,,,,,,orange,I
146.0,1.0,0.5,0.0,4.0,4.0,339.5656719999351,2.0,1.0,phase_1,,,,,,,,,,,,,cyan,cross
312.0,6.0,1.0,1.0,2.0,2.0,322.1485889998803,2.0,1.0,phase_1,,,,,,,,,,,,,magenta,flipped triangle
157.0,5.0,0.5,1.0,4.0,4.0,348.0905450001046,2.0,1.0,phase_1,,,,,,,,,,,,,green,triangle
0.0,6.0,0.0,1.0,4.0,4.0,303.5054709998803,2.0,1.0,phase_1,,,,,,,,,,,,,magenta,flipped triangle
669.0,3.0,2.0,0.0,3.0,3.0,348.5607620000337,2.0,1.0,phase_1,,,,,,,,,,,,,white,square
186.0,5.0,0.5,1.0,3.0,3.0,320.1360830003068,2.0,1.0,phase_1,,,,,,,,,,,,,green,triangle
0.0,8.0,0.0,1.0,2.0,2.0,338.2664450000447,2.0,1.0,phase_1,,,,,,,,,,,,,gray,hexagon
1280.0,4.0,4.0,0.0,2.0,2.0,319.0815399998428,2.0,1.0,phase_1,,,,,,,,,,,,,blue,diamond
0.0,1.0,0.0,0.0,4.0,4.0,282.0218950000708,2.0,1.0,phase_1,,,,,,,,,,,,,cyan,cross
666.0,3.0,2.0,0.0,4.0,4.0,310.8389429999079,2.0,1.0,phase_1,,,,,,,,,,,,,white,square
184.0,5.0,0.5,1.0,4.0,4.0,328.4485129997847,2.0,1.0,phase_1,,,,,,,,,,,,,green,triangle
1321.0,8.0,4.0,1.0,2.0,2.0,319.033830999615,2.0,1.0,phase_1,,,,,,,,,,,,,gray,hexagon
306.0,2.0,1.0,0.0,2.0,2.0,338.9378820002093,2.0,1.0,phase_1,,,,,,,,,,,,,orange,I
145.0,1.0,0.5,0.0,3.0,3.0,385.9770169997318,2.0,1.0,phase_1,,,,,,,,,,,,,cyan,cross
305.0,6.0,1.0,1.0,1.0,1.0,441.9631690002461,2.0,1.0,phase_1,,,,,,,,,,,,,magenta,flipped triangle
0.0,5.0,0.0,1.0,3.0,3.0,319.6408019998671,2.0,1.0,phase_1,,,,,,,,,,,,,green,triangle
0.0,3.0,0.0,0.0,1.0,1.0,328.260248999868,2.0,1.0,phase_1,,,,,,,,,,,,,white,square
647.0,7.0,2.0,1.0,4.0,4.0,366.9925819999662,3.0,1.0,phase_1,,,,,,,,,,,,,yellow,circle
338.0,6.0,1.0,1.0,4.0,4.0,339.7603160001381,3.0,1.0,phase_1,,,,,,,,,,,,,magenta,flipped triangle
325.0,2.0,1.0,0.0,2.0,2.0,309.9586069997713,3.0,1.0,phase_1,,,,,,,,,,,,,orange,I
1278.0,8.0,4.0,1.0,2.0,2.0,394.6457509996435,3.0,1.0,phase_1,,,,,,,,,,,,,gray,hexagon
1283.0,4.0,4.0,0.0,4.0,4.0,300.8980560002783,3.0,1.0,phase_1,,,,,,,,,,,,,blue,diamond
1291.0,8.0,4.0,1.0,4.0,4.0,312.0230440003979,3.0,1.0,phase_1,,,,,,,,,,,,,gray,hexagon
0.0,7.0,0.0,1.0,2.0,2.0,291.744140999981,3.0,1.0,phase_1,,,,,,,,,,,,,yellow,circle
639.0,3.0,2.0,0.0,3.0,3.0,367.7445600001192,3.0,1.0,phase_1,,,,,,,,,,,,,white,square
1275.0,8.0,4.0,1.0,1.0,1.0,479.4361290000779,3.0,2.0,phase_1,,,,,,,,,,,,,gray,hexagon
1308.0,4.0,4.0,0.0,4.0,4.0,339.2424839998966,3.0,1.0,phase_1,,,,,,,,,,,,,blue,diamond
0.0,1.0,0.0,0.0,2.0,2.0,328.6331589997644,3.0,1.0,phase_1,,,,,,,,,,,,,cyan,cross
300.0,6.0,1.0,1.0,3.0,3.0,413.50483000042,3.0,1.0,phase_1,,,,,,,,,,,,,magenta,flipped triangle
0.0,2.0,0.0,0.0,1.0,1.0,433.0152210000051,3.0,1.0,phase_1,,,,,,,,,,,,,orange,I
163.0,5.0,0.5,1.0,3.0,3.0,413.609329999872,3.0,1.0,phase_1,,,,,,,,,,,,,green,triangle
0.0,5.0,0.0,1.0,3.0,3.0,412.8807040001447,3.0,1.0,phase_1,,,,,,,,,,,,,green,triangle
313.0,2.0,1.0,0.0,4.0,4.0,310.0104599998303,3.0,1.0,phase_1,,,,,,,,,,,,,orange,I
0.0,3.0,0.0,0.0,3.0,3.0,281.864558000052,3.0,1.0,phase_1,,,,,,,,,,,,,white,square
342.0,2.0,1.0,0.0,2.0,2.0,320.2215669998622,3.0,1.0,phase_1,,,,,,,,,,,,,orange,I
1316.0,8.0,4.0,1.0,4.0,4.0,311.03774300027,3.0,1.0,phase_1,,,,,,,,,,,,,gray,hexagon
669.0,3.0,2.0,0.0,4.0,4.0,328.0326879998938,3.0,1.0,phase_1,,,,,,,,,,,,,white,square
0.0,7.0,0.0,1.0,2.0,2.0,329.6364190000531,3.0,1.0,phase_1,,,,,,,,,,,,,yellow,circle
0.0,5.0,0.0,1.0,4.0,4.0,310.9743479999451,3.0,1.0,phase_1,,,,,,,,,,,,,green,triangle
1288.0,4.0,4.0,0.0,2.0,2.0,281.8967489997703,3.0,1.0,phase_1,,,,,,,,,,,,,blue,diamond
344.0,6.0,1.0,1.0,4.0,4.0,318.7874780001039,3.0,1.0,phase_1,,,,,,,,,,,,,magenta,flipped triangle
152.0,1.0,0.5,0.0,2.0,2.0,290.8463589997154,3.0,1.0,phase_1,,,,,,,,,,,,,cyan,cross
335.0,2.0,1.0,0.0,2.0,2.0,319.658254999922,3.0,1.0,phase_1,,,,,,,,,,,,,orange,I
1281.0,8.0,4.0,1.0,4.0,4.0,291.3692500001161,3.0,1.0,phase_1,,,,,,,,,,,,,gray,hexagon
1316.0,4.0,4.0,0.0,3.0,3.0,329.0246599999591,3.0,1.0,phase_1,,,,,,,,,,,,,blue,diamond
668.0,3.0,2.0,0.0,4.0,4.0,309.9845760002608,3.0,1.0,phase_1,,,,,,,,,,,,,white,square
668.0,7.0,2.0,1.0,3.0,3.0,441.8209109999225,3.0,1.0,phase_1,,,,,,,,,,,,,yellow,circle
180.0,1.0,0.5,0.0,2.0,2.0,319.2169290000493,3.0,1.0,phase_1,,,,,,,,,,,,,cyan,cross
627.0,3.0,2.0,0.0,1.0,1.0,365.7407669998065,3.0,2.0,phase_1,,,,,,,,,,,,,white,square
141.0,1.0,0.5,0.0,4.0,4.0,319.9543440000525,3.0,1.0,phase_1,,,,,,,,,,,,,cyan,cross
672.0,7.0,2.0,1.0,3.0,3.0,328.0909469999642,3.0,1.0,phase_1,,,,,,,,,,,,,yellow,circle
1316.0,4.0,4.0,0.0,2.0,2.0,329.6035120001761,3.0,1.0,phase_1,,,,,,,,,,,,,blue,diamond
169.0,1.0,0.5,0.0,4.0,4.0,347.4458609998692,3.0,1.0,phase_1,,,,,,,,,,,,,cyan,cross
306.0,6.0,1.0,1.0,3.0,3.0,329.7584909996658,3.0,1.0,phase_1,,,,,,,,,,,,,magenta,flipped triangle
0.0,4.0,0.0,0.0,2.0,2.0,330.869526999777,3.0,1.0,phase_1,,,,,,,,,,,,,blue,diamond
0.0,6.0,0.0,1.0,1.0,1.0,329.6944190001341,3.0,1.0,phase_1,,,,,,,,,,,,,magenta,flipped triangle
330.0,6.0,1.0,1.0,4.0,4.0,310.9026390002327,3.0,1.0,phase_1,,,,,,,,,,,,,magenta,flipped triangle
647.0,3.0,2.0,0.0,4.0,4.0,300.3809729998465,3.0,1.0,phase_1,,,,,,,,,,,,,white,square
0.0,8.0,0.0,1.0,2.0,2.0,329.0450740000779,3.0,1.0,phase_1,,,,,,,,,,,,,gray,hexagon
1312.0,8.0,4.0,1.0,2.0,2.0,358.4455680002065,3.0,1.0,phase_1,,,,,,,,,,,,,gray,hexagon
181.0,1.0,0.5,0.0,2.0,2.0,356.5122490003887,3.0,1.0,phase_1,,,,,,,,,,,,,cyan,cross
0.0,6.0,0.0,1.0,1.0,1.0,290.4480229999535,3.0,1.0,phase_1,,,,,,,,,,,,,magenta,flipped triangle
305.0,2.0,1.0,0.0,1.0,1.0,310.17416900022,3.0,1.0,phase_1,,,,,,,,,,,,,orange,I
156.0,5.0,0.5,1.0,1.0,1.0,338.6934649997783,3.0,1.0,phase_1,,,,,,,,,,,,,green,triangle
174.0,1.0,0.5,0.0,3.0,3.0,347.2771679998914,3.0,1.0,phase_1,,,,,,,,,,,,,cyan,cross
656.0,7.0,2.0,1.0,1.0,1.0,319.6299850001196,3.0,1.0,phase_1,,,,,,,,,,,,,yellow,circle
663.0,7.0,2.0,1.0,1.0,1.0,319.2083629996887,3.0,1.0,phase_1,,,,,,,,,,,,,yellow,circle
1319.0,4.0,4.0,0.0,2.0,2.0,357.4364199998854,3.0,1.0,phase_1,,,,,,,,,,,,,blue,diamond
344.0,2.0,1.0,0.0,1.0,1.0,366.5883010003199,3.0,1.0,phase_1,,,,,,,,,,,,,orange,I
1322.0,4.0,4.0,0.0,3.0,3.0,338.4725600008096,3.0,1.0,phase_1,,,,,,,,,,,,,blue,diamond
139.0,1.0,0.5,0.0,4.0,4.0,339.8937089996252,3.0,1.0,phase_1,,,,,,,,,,,,,cyan,cross
672.0,3.0,2.0,0.0,2.0,2.0,338.6594019993936,3.0,1.0,phase_1,,,,,,,,,,,,,white,square
1278.0,4.0,4.0,0.0,3.0,3.0,357.7861450003183,3.0,1.0,phase_1,,,,,,,,,,,,,blue,diamond
342.0,6.0,1.0,1.0,1.0,1.0,357.5428869999086,3.0,1.0,phase_1,,,,,,,,,,,,,magenta,flipped triangle
330.0,2.0,1.0,0.0,2.0,2.0,341.1825609991865,3.0,1.0,phase_1,,,,,,,,,,,,,orange,I
657.0,3.0,2.0,0.0,3.0,3.0,339.701566000258,3.0,1.0,phase_1,,,,,,,,,,,,,white,square
337.0,2.0,1.0,0.0,3.0,3.0,346.6279479998775,3.0,1.0,phase_1,,,,,,,,,,,,,orange,I
638.0,7.0,2.0,1.0,4.0,4.0,357.6431080000475,3.0,1.0,phase_1,,,,,,,,,,,,,yellow,circle
1280.0,8.0,4.0,1.0,3.0,3.0,291.1495110001851,3.0,1.0,phase_1,,,,,,,,,,,,,gray,hexagon
307.0,2.0,1.0,0.0,2.0,2.0,497.3044239995943,3.0,1.0,phase_1,,,,,,,,,,,,,orange,I
335.0,2.0,1.0,0.0,1.0,1.0,403.185246999783,3.0,1.0,phase_1,,,,,,,,,,,,,orange,I
0.0,3.0,0.0,0.0,1.0,1.0,413.7853210004323,3.0,1.0,phase_1,,,,,,,,,,,,,white,square
150.0,1.0,0.5,0.0,3.0,3.0,460.2761320002173,3.0,1.0,phase_1,,,,,,,,,,,,,cyan,cross
638.0,3.0,2.0,0.0,2.0,2.0,319.9146199995084,3.0,1.0,phase_1,,,,,,,,,,,,,white,square
324.0,2.0,1.0,0.0,2.0,2.0,292.5926170000821,3.0,1.0,phase_1,,,,,,,,,,,,,orange,I
639.0,3.0,2.0,0.0,4.0,4.0,310.5689750000238,3.0,1.0,phase_1,,,,,,,,,,,,,white,square
642.0,3.0,2.0,0.0,2.0,2.0,319.6349429999827,3.0,1.0,phase_1,,,,,,,,,,,,,white,square
669.0,7.0,2.0,1.0,1.0,1.0,301.2415399998644,3.0,1.0,phase_1,,,,,,,,,,,,,yellow,circle
0.0,5.0,0.0,1.0,1.0,1.0,320.6512139995539,3.0,1.0,phase_1,,,,,,,,,,,,,green,triangle
0.0,8.0,0.0,1.0,3.0,3.0,301.7520339999464,3.0,1.0,phase_1,,,,,,,,,,,,,gray,hexagon
634.0,3.0,2.0,0.0,4.0,4.0,329.6727939996344,3.0,1.0,phase_1,,,,,,,,,,,,,white,square
1283.0,8.0,4.0,1.0,2.0,2.0,339.1783500001111,3.0,1.0,phase_1,,,,,,,,,,,,,gray,hexagon
0.0,3.0,0.0,0.0,1.0,1.0,282.8310320001037,3.0,1.0,phase_1,,,,,,,,,,,,,white,square
324.0,2.0,1.0,0.0,4.0,4.0,282.3465980000037,3.0,1.0,phase_1,,,,,,,,,,,,,orange,I
330.0,2.0,1.0,0.0,1.0,1.0,319.5078620001368,3.0,1.0,phase_1,,,,,,,,,,,,,orange,I
0.0,2.0,0.0,0.0,1.0,1.0,321.0811729995839,3.0,1.0,phase_1,,,,,,,,,,,,,orange,I
1311.0,8.0,4.0,1.0,2.0,2.0,367.3866819999603,3.0,1.0,phase_1,,,,,,,,,,,,,gray,hexagon
664.0,3.0,2.0,0.0,1.0,1.0,348.9072769998529,3.0,1.0,phase_1,,,,,,,,,,,,,white,square
0.0,7.0,0.0,1.0,2.0,2.0,414.0523430005487,3.0,1.0,phase_1,,,,,,,,,,,,,yellow,circle
139.0,1.0,0.5,0.0,3.0,3.0,508.0334539998148,3.0,1.0,phase_1,,,,,,,,,,,,,cyan,cross
323.0,6.0,1.0,1.0,1.0,1.0,366.5239860001748,3.0,1.0,phase_1,,,,,,,,,,,,,magenta,flipped triangle
305.0,6.0,1.0,1.0,3.0,3.0,319.7447960001227,3.0,1.0,phase_1,,,,,,,,,,,,,magenta,flipped triangle
652.0,3.0,2.0,0.0,3.0,3.0,330.0166389999504,3.0,1.0,phase_1,,,,,,,,,,,,,white,square
0.0,6.0,0.0,1.0,4.0,4.0,320.6433039995318,3.0,1.0,phase_1,,,,,,,,,,,,,magenta,flipped triangle
139.0,5.0,0.5,1.0,1.0,1.0,347.7725430002465,3.0,1.0,phase_1,,,,,,,,,,,,,green,triangle
0.0,6.0,0.0,1.0,2.0,2.0,328.3062800001062,3.0,1.0,phase_1,,,,,,,,,,,,,magenta,flipped triangle
143.0,1.0,0.5,0.0,3.0,3.0,309.9150059997555,3.0,1.0,phase_1,,,,,,,,,,,,,cyan,cross
0.0,8.0,0.0,1.0,4.0,4.0,357.3825330004183,3.0,1.0,phase_1,,,,,,,,,,,,,gray,hexagon
1287.0,8.0,4.0,1.0,3.0,3.0,310.0304379995577,3.0,1.0,phase_1,,,,,,,,,,,,,gray,hexagon
331.0,2.0,1.0,0.0,2.0,2.0,320.3861880001568,3.0,1.0,phase_1,,,,,,,,,,,,,orange,I
318.0,2.0,1.0,0.0,4.0,4.0,357.3497950001183,3.0,1.0,phase_1,,,,,,,,,,,,,orange,I
653.0,7.0,2.0,1.0,3.0,3.0,311.2829989995589,3.0,1.0,phase_1,,,,,,,,,,,,,yellow,circle
0.0,1.0,0.0,0.0,3.0,3.0,356.5537280001081,3.0,1.0,phase_1,,,,,,,,,,,,,cyan,cross
326.0,6.0,1.0,1.0,2.0,2.0,320.0362670004324,3.0,1.0,phase_1,,,,,,,,,,,,,magenta,flipped triangle
1299.0,8.0,4.0,1.0,1.0,1.0,385.9980300003371,3.0,1.0,phase_1,,,,,,,,,,,,,gray,hexagon
0.0,3.0,0.0,0.0,3.0,3.0,339.5668460007073,3.0,1.0,phase_1,,,,,,,,,,,,,white,square
634.0,3.0,2.0,0.0,2.0,2.0,292.4324240002534,3.0,1.0,phase_1,,,,,,,,,,,,,white,square
159.0,1.0,0.5,0.0,1.0,1.0,499.0404559994204,4.0,1.0,phase_1,,,,,,,,,,,,,cyan,cross
662.0,3.0,2.0,0.0,1.0,1.0,301.1252369997237,4.0,1.0,phase_1,,,,,,,,,,,,,white,square
150.0,5.0,0.5,1.0,2.0,2.0,348.2533919996058,4.0,1.0,phase_1,,,,,,,,,,,,,green,triangle
176.0,1.0,0.5,0.0,3.0,3.0,319.6380020008291,4.0,1.0,phase_1,,,,,,,,,,,,,cyan,cross
642.0,7.0,2.0,1.0,2.0,2.0,320.5208119998133,4.0,1.0,phase_1,,,,,,,,,,,,,yellow,circle
1279.0,8.0,4.0,1.0,2.0,2.0,366.4709459999358,4.0,1.0,phase_1,,,,,,,,,,,,,gray,hexagon
307.0,6.0,1.0,1.0,2.0,2.0,321.0984080005801,4.0,1.0,phase_1,,,,,,,,,,,,,magenta,flipped triangle
143.0,5.0,0.5,1.0,3.0,3.0,348.9302719999614,4.0,1.0,phase_1,,,,,,,,,,,,,green,triangle
1321.0,8.0,4.0,1.0,4.0,4.0,338.874506999673,4.0,1.0,phase_1,,,,,,,,,,,,,gray,hexagon
1324.0,4.0,4.0,0.0,1.0,1.0,349.6337410006163,4.0,1.0,phase_1,,,,,,,,,,,,,blue,diamond
345.0,2.0,1.0,0.0,4.0,4.0,340.1467809999303,4.0,1.0,phase_1,,,,,,,,,,,,,orange,I
180.0,5.0,0.5,1.0,3.0,3.0,311.5300110002863,4.0,1.0,phase_1,,,,,,,,,,,,,green,triangle
1311.0,8.0,4.0,1.0,3.0,3.0,283.6752100001831,4.0,1.0,phase_1,,,,,,,,,,,,,gray,hexagon
1312.0,4.0,4.0,0.0,4.0,4.0,273.7250260006476,4.0,1.0,phase_1,,,,,,,,,,,,,blue,diamond
1277.0,8.0,4.0,1.0,2.0,2.0,339.5387149994349,4.0,2.0,phase_1,,,,,,,,,,,,,gray,hexagon
159.0,1.0,0.5,0.0,3.0,3.0,321.1487939997823,4.0,1.0,phase_1,,,,,,,,,,,,,cyan,cross
660.0,3.0,2.0,0.0,1.0,1.0,414.9944440005129,4.0,1.0,phase_1,,,,,,,,,,,,,white,square
0.0,1.0,0.0,0.0,4.0,4.0,376.7535619999762,4.0,1.0,phase_1,,,,,,,,,,,,,cyan,cross
639.0,7.0,2.0,1.0,2.0,2.0,302.3920759997054,4.0,1.0,phase_1,,,,,,,,,,,,,yellow,circle
0.0,2.0,0.0,0.0,1.0,1.0,340.0148149994493,4.0,1.0,phase_1,,,,,,,,,,,,,orange,I
674.0,3.0,2.0,0.0,4.0,4.0,283.7554000007003,4.0,1.0,phase_1,,,,,,,,,,,,,white,square
638.0,3.0,2.0,0.0,2.0,2.0,338.9682710003399,4.0,1.0,phase_1,,,,,,,,,,,,,white,square
157.0,1.0,0.5,0.0,4.0,4.0,348.671517999719,4.0,1.0,phase_1,,,,,,,,,,,,,cyan,cross
0.0,7.0,0.0,1.0,2.0,2.0,488.4465429995543,4.0,1.0,phase_1,,,,,,,,,,,,,yellow,circle
1280.0,8.0,4.0,1.0,3.0,3.0,320.1312620003591,4.0,1.0,phase_1,,,,,,,,,,,,,gray,hexagon
1320.0,8.0,4.0,1.0,4.0,4.0,394.2499340000722,4.0,1.0,phase_1,,,,,,,,,,,,,gray,hexagon
0.0,4.0,0.0,0.0,1.0,1.0,339.2267259996515,4.0,1.0,phase_1,,,,,,,,,,,,,blue,diamond
180.0,5.0,0.5,1.0,2.0,2.0,350.7912559998658,4.0,1.0,phase_1,,,,,,,,,,,,,green,triangle
0.0,7.0,0.0,1.0,4.0,4.0,338.7657060002311,4.0,1.0,phase_1,,,,,,,,,,,,,yellow,circle
1324.0,8.0,4.0,1.0,1.0,1.0,385.1280379994932,4.0,1.0,phase_1,,,,,,,,,,,,,gray,hexagon
325.0,6.0,1.0,1.0,1.0,1.0,413.319672000398,4.0,1.0,phase_1,,,,,,,,,,,,,magenta,flipped triangle
167.0,5.0,0.5,1.0,3.0,3.0,366.8549800004257,4.0,1.0,phase_1,,,,,,,,,,,,,green,triangle
181.0,5.0,0.5,1.0,1.0,1.0,318.9971399997375,4.0,1.0,phase_1,,,,,,,,,,,,,green,triangle
340.0,6.0,1.0,1.0,3.0,3.0,367.4083329997302,4.0,1.0,phase_1,,,,,,,,,,,,,magenta,flipped triangle
180.0,5.0,0.5,1.0,1.0,1.0,339.307123999788,4.0,1.0,phase_1,,,,,,,,,,,,,green,triangle
0.0,6.0,0.0,1.0,4.0,4.0,376.8214290003016,4.0,1.0,phase_1,,,,,,,,,,,,,magenta,flipped triangle
334.0,2.0,1.0,0.0,4.0,4.0,348.2228599996233,4.0,1.0,phase_1,,,,,,,,,,,,,orange,I
1285.0,8.0,4.0,1.0,1.0,1.0,406.3982080006099,4.0,1.0,phase_1,,,,,,,,,,,,,gray,hexagon
0.0,5.0,0.0,1.0,4.0,4.0,348.4090519996243,4.0,1.0,phase_1,,,,,,,,,,,,,green,triangle
0.0,3.0,0.0,0.0,1.0,1.0,376.7484079999121,4.0,1.0,phase_1,,,,,,,,,,,,,white,square
0.0,4.0,0.0,0.0,2.0,2.0,301.0807569999087,4.0,1.0,phase_1,,,,,,,,,,,,,blue,diamond
0.0,5.0,0.0,1.0,2.0,2.0,309.6477919998506,4.0,1.0,phase_1,,,,,,,,,,,,,green,triangle
672.0,7.0,2.0,1.0,2.0,2.0,367.4478740003906,4.0,1.0,phase_1,,,,,,,,,,,,,yellow,circle
639.0,7.0,2.0,1.0,2.0,2.0,545.3761340004348,4.0,1.0,phase_1,,,,,,,,,,,,,yellow,circle
638.0,7.0,2.0,1.0,4.0,4.0,330.5118039997978,4.0,1.0,phase_1,,,,,,,,,,,,,yellow,circle
1309.0,4.0,4.0,0.0,1.0,1.0,405.7706379999217,4.0,1.0,phase_1,,,,,,,,,,,,,blue,diamond
318.0,6.0,1.0,1.0,3.0,3.0,423.2271079999918,4.0,1.0,phase_1,,,,,,,,,,,,,magenta,flipped triangle
1285.0,8.0,4.0,1.0,2.0,2.0,386.5529300001071,4.0,1.0,phase_1,,,,,,,,,,,,,gray,hexagon
337.0,6.0,1.0,1.0,4.0,4.0,358.1278239998937,4.0,1.0,phase_1,,,,,,,,,,,,,magenta,flipped triangle
0.0,5.0,0.0,1.0,3.0,3.0,311.2259059998905,4.0,1.0,phase_1,,,,,,,,,,,,,green,triangle
186.0,1.0,0.5,0.0,2.0,2.0,329.5721610002147,4.0,1.0,phase_1,,,,,,,,,,,,,cyan,cross
139.0,1.0,0.5,0.0,1.0,1.0,329.9191529995369,4.0,1.0,phase_1,,,,,,,,,,,,,cyan,cross
0.0,4.0,0.0,0.0,4.0,4.0,310.81211000037,4.0,1.0,phase_1,,,,,,,,,,,,,blue,diamond
1299.0,8.0,4.0,1.0,3.0,3.0,349.1716349999478,4.0,1.0,phase_1,,,,,,,,,,,,,gray,hexagon
0.0,2.0,0.0,0.0,2.0,2.0,321.5850830001727,4.0,1.0,phase_1,,,,,,,,,,,,,orange,I
1300.0,8.0,4.0,1.0,4.0,4.0,367.0083690003594,4.0,2.0,phase_1,,,,,,,,,,,,,gray,hexagon
143.0,5.0,0.5,1.0,2.0,2.0,283.1370970006901,4.0,1.0,phase_1,,,,,,,,,,,,,green,triangle
324.0,6.0,1.0,1.0,1.0,1.0,357.5470379992111,4.0,1.0,phase_1,,,,,,,,,,,,,magenta,flipped triangle
180.0,1.0,0.5,0.0,4.0,4.0,329.2004080003607,4.0,1.0,phase_1,,,,,,,,,,,,,cyan,cross
169.0,5.0,0.5,1.0,4.0,4.0,358.6238940006296,4.0,1.0,phase_1,,,,,,,,,,,,,green,triangle
633.0,7.0,2.0,1.0,4.0,4.0,339.5990150002035,4.0,1.0,phase_1,,,,,,,,,,,,,yellow,circle
0.0,6.0,0.0,1.0,4.0,4.0,329.3758079998952,4.0,1.0,phase_1,,,,,,,,,,,,,magenta,flipped triangle
175.0,5.0,0.5,1.0,2.0,2.0,403.7694299995564,4.0,1.0,phase_1,,,,,,,,,,,,,green,triangle
647.0,7.0,2.0,1.0,3.0,3.0,432.0202570006586,4.0,1.0,phase_1,,,,,,,,,,,,,yellow,circle
1316.0,4.0,4.0,0.0,3.0,3.0,508.4238009994806,4.0,1.0,phase_1,,,,,,,,,,,,,blue,diamond
0.0,4.0,0.0,0.0,1.0,1.0,554.4178089994602,4.0,1.0,phase_1,,,,,,,,,,,,,blue,diamond
1308.0,8.0,4.0,1.0,1.0,1.0,376.9423820003794,4.0,1.0,phase_1,,,,,,,,,,,,,gray,hexagon
158.0,1.0,0.5,0.0,4.0,4.0,394.9423169997317,4.0,2.0,phase_1,,,,,,,,,,,,,cyan,cross
0.0,3.0,0.0,0.0,4.0,4.0,328.8697559992215,4.0,1.0,phase_1,,,,,,,,,,,,,white,square
303.0,2.0,1.0,0.0,3.0,3.0,353.4739520000585,4.0,1.0,phase_1,,,,,,,,,,,,,orange,I
1285.0,4.0,4.0,0.0,2.0,2.0,339.72297800028167,4.0,1.0,phase_1,,,,,,,,,,,,,blue,diamond
0.0,1.0,0.0,0.0,3.0,3.0,300.3471439997156,4.0,1.0,phase_1,,,,,,,,,,,,,cyan,cross
327.0,2.0,1.0,0.0,3.0,3.0,302.0728540004711,4.0,1.0,phase_1,,,,,,,,,,,,,orange,I
0.0,2.0,0.0,0.0,2.0,2.0,395.8966750005857,4.0,1.0,phase_1,,,,,,,,,,,,,orange,I
640.0,7.0,2.0,1.0,2.0,2.0,338.9196390007782,4.0,1.0,phase_1,,,,,,,,,,,,,yellow,circle
170.0,5.0,0.5,1.0,3.0,3.0,358.0185840000922,4.0,1.0,phase_1,,,,,,,,,,,,,green,triangle
644.0,7.0,2.0,1.0,1.0,1.0,377.9270539998833,4.0,1.0,phase_1,,,,,,,,,,,,,yellow,circle
149.0,1.0,0.5,0.0,1.0,1.0,367.1798649993434,4.0,1.0,phase_1,,,,,,,,,,,,,cyan,cross
0.0,5.0,0.0,1.0,2.0,2.0,339.073085999189,4.0,1.0,phase_1,,,,,,,,,,,,,green,triangle
159.0,5.0,0.5,1.0,1.0,1.0,453.1854159995419,4.0,1.0,phase_1,,,,,,,,,,,,,green,triangle
0.0,3.0,0.0,0.0,1.0,1.0,321.3049180003509,4.0,1.0,phase_1,,,,,,,,,,,,,white,square
0.0,8.0,0.0,1.0,3.0,3.0,348.1752030002099,4.0,2.0,phase_1,,,,,,,,,,,,,gray,hexagon
657.0,7.0,2.0,1.0,4.0,4.0,488.7939780001034,4.0,1.0,phase_1,,,,,,,,,,,,,yellow,circle
662.0,3.0,2.0,0.0,1.0,1.0,404.187697999987,4.0,1.0,phase_1,,,,,,,,,,,,,white,square
174.0,5.0,0.5,1.0,3.0,3.0,311.511213999438,4.0,1.0,phase_1,,,,,,,,,,,,,green,triangle
0.0,3.0,0.0,0.0,2.0,2.0,320.1204219994906,4.0,1.0,phase_1,,,,,,,,,,,,,white,square
659.0,7.0,2.0,1.0,1.0,1.0,405.3681499999584,4.0,1.0,phase_1,,,,,,,,,,,,,yellow,circle
638.0,7.0,2.0,1.0,3.0,3.0,302.0411249999597,4.0,1.0,phase_1,,,,,,,,,,,,,yellow,circle
300.0,2.0,1.0,0.0,1.0,1.0,348.5251989995959,4.0,1.0,phase_1,,,,,,,,,,,,,orange,I
167.0,1.0,0.5,0.0,3.0,3.0,301.9268730004114,4.0,1.0,phase_1,,,,,,,,,,,,,cyan,cross
662.0,7.0,2.0,1.0,2.0,2.0,348.5890870006187,4.0,1.0,phase_1,,,,,,,,,,,,,yellow,circle
1292.0,4.0,4.0,0.0,1.0,1.0,310.6558999998015,4.0,1.0,phase_1,,,,,,,,,,,,,blue,diamond
143.0,1.0,0.5,0.0,2.0,2.0,347.5574710000728,4.0,1.0,phase_1,,,,,,,,,,,,,cyan,cross
1291.0,4.0,4.0,0.0,4.0,4.0,357.418678000613,4.0,1.0,phase_1,,,,,,,,,,,,,blue,diamond
159.0,5.0,0.5,1.0,2.0,2.0,423.0467439992935,4.0,1.0,phase_1,,,,,,,,,,,,,green,triangle
153.0,5.0,0.5,1.0,1.0,1.0,387.2563099994295,4.0,1.0,phase_1,,,,,,,,,,,,,green,triangle
344.0,6.0,1.0,1.0,4.0,4.0,480.8233829999153,4.0,1.0,phase_1,,,,,,,,,,,,,magenta,flipped triangle
307.0,2.0,1.0,0.0,4.0,4.0,518.2804359992588,4.0,1.0,phase_1,,,,,,,,,,,,,orange,I
1281.0,4.0,4.0,0.0,3.0,3.0,423.6146060002284,4.0,1.0,phase_1,,,,,,,,,,,,,blue,diamond
158.0,5.0,0.5,1.0,1.0,1.0,518.8786190001338,4.0,2.0,phase_1,,,,,,,,,,,,,green,triangle
0.0,3.0,2.0,0.0,5.0,5.0,368.2110030003969,1.0,1.0,phase_2,go,250.0,250.0,1.0,,,,,,,,,white,square
0.0,1.0,0.5,0.0,6.0,6.0,376.4252529999794,1.0,1.0,phase_2,go,250.0,250.0,1.0,,,,,,,,,cyan,cross
0.0,4.0,4.0,0.0,5.0,5.0,347.9047060000084,1.0,1.0,phase_2,go,250.0,250.0,1.0,,,,,,,,,blue,diamond
0.0,7.0,2.0,1.0,6.0,0.0,0.0,1.0,1.0,phase_2,stop,250.0,250.0,4.0,,,,,,,,,yellow,circle
0.0,7.0,2.0,1.0,6.0,6.0,469.8708690002604,1.0,1.0,phase_2,stop,250.0,300.0,3.0,,,,,,,,,yellow,circle
0.0,6.0,1.0,1.0,5.0,0.0,0.0,1.0,1.0,phase_2,stop,250.0,250.0,4.0,,,,,,,,,magenta,flipped triangle
0.0,2.0,1.0,0.0,6.0,6.0,341.9926200003829,1.0,1.0,phase_2,go,300.0,250.0,1.0,,,,,,,,,orange,I
0.0,2.0,1.0,0.0,5.0,5.0,492.2835229999691,1.0,1.0,phase_2,go,300.0,250.0,1.0,,,,,,,,,orange,I
0.0,8.0,4.0,1.0,5.0,5.0,447.915132000162,1.0,1.0,phase_2,go,300.0,250.0,1.0,,,,,,,,,gray,hexagon
0.0,8.0,4.0,1.0,6.0,6.0,379.6655180003654,1.0,1.0,phase_2,go,300.0,250.0,1.0,,,,,,,,,gray,hexagon
0.0,2.0,1.0,0.0,5.0,5.0,538.8984679993882,1.0,1.0,phase_2,go,300.0,250.0,1.0,,,,,,,,,orange,I
0.0,3.0,2.0,0.0,5.0,5.0,455.6776989993523,1.0,1.0,phase_2,go,300.0,250.0,1.0,,,,,,,,,white,square
0.0,3.0,2.0,0.0,6.0,6.0,454.7113239996179,1.0,1.0,phase_2,go,300.0,250.0,1.0,,,,,,,,,white,square
0.0,8.0,4.0,1.0,6.0,6.0,356.9554719997541,1.0,1.0,phase_2,stop,300.0,250.0,3.0,,,,,,,,,gray,hexagon
0.0,8.0,4.0,1.0,6.0,0.0,0.0,1.0,1.0,phase_2,stop,300.0,200.0,4.0,,,,,,,,,gray,hexagon
0.0,4.0,4.0,0.0,5.0,5.0,410.5138220002118,1.0,1.0,phase_2,go,300.0,250.0,1.0,,,,,,,,,blue,diamond
0.0,6.0,1.0,1.0,6.0,6.0,417.4161890005052,1.0,1.0,phase_2,go,300.0,250.0,1.0,,,,,,,,,magenta,flipped triangle
0.0,7.0,2.0,1.0,6.0,6.0,398.2312369998908,1.0,1.0,phase_2,stop,300.0,250.0,3.0,,,,,,,,,yellow,circle
0.0,6.0,1.0,1.0,6.0,0.0,0.0,1.0,1.0,phase_2,stop,300.0,200.0,4.0,,,,,,,,,magenta,flipped triangle
0.0,6.0,1.0,1.0,6.0,0.0,0.0,1.0,1.0,phase_2,stop,300.0,250.0,4.0,,,,,,,,,magenta,flipped triangle
0.0,8.0,4.0,1.0,5.0,5.0,428.5608850004792,1.0,1.0,phase_2,go,300.0,300.0,1.0,,,,,,,,,gray,hexagon
0.0,2.0,1.0,0.0,6.0,6.0,370.8009459996901,1.0,1.0,phase_2,go,300.0,300.0,1.0,,,,,,,,,orange,I
0.0,5.0,0.5,1.0,6.0,6.0,389.1650289997415,1.0,1.0,phase_2,stop,300.0,300.0,3.0,,,,,,,,,green,triangle
0.0,1.0,0.5,0.0,6.0,6.0,570.271555000545,1.0,1.0,phase_2,go,300.0,250.0,1.0,,,,,,,,,cyan,cross
0.0,7.0,2.0,1.0,5.0,5.0,436.3596130006044,1.0,1.0,phase_2,go,300.0,250.0,1.0,,,,,,,,,yellow,circle
0.0,7.0,2.0,1.0,5.0,5.0,369.9759440005437,1.0,1.0,phase_2,stop,300.0,250.0,3.0,,,,,,,,,yellow,circle
0.0,4.0,4.0,0.0,6.0,6.0,351.2711630000922,1.0,1.0,phase_2,go,250.0,250.0,1.0,,,,,,,,,blue,diamond
0.0,5.0,0.5,1.0,6.0,6.0,474.4361790008042,1.0,1.0,phase_2,go,250.0,250.0,1.0,,,,,,,,,green,triangle
0.0,8.0,4.0,1.0,6.0,0.0,0.0,1.0,1.0,phase_2,stop,250.0,250.0,4.0,,,,,,,,,gray,hexagon
0.0,4.0,4.0,0.0,6.0,6.0,436.833643000682,1.0,1.0,phase_2,go,250.0,300.0,1.0,,,,,,,,,blue,diamond
0.0,4.0,4.0,0.0,5.0,5.0,417.8114280002774,1.0,1.0,phase_2,go,250.0,300.0,1.0,,,,,,,,,blue,diamond
0.0,4.0,4.0,0.0,5.0,5.0,447.3087679998571,1.0,1.0,phase_2,go,250.0,300.0,1.0,,,,,,,,,blue,diamond
0.0,1.0,0.5,0.0,6.0,6.0,361.7543069995008,1.0,1.0,phase_2,go,250.0,300.0,1.0,,,,,,,,,cyan,cross
0.0,3.0,2.0,0.0,5.0,5.0,398.8761599994177,1.0,1.0,phase_2,go,250.0,300.0,1.0,,,,,,,,,white,square
0.0,6.0,1.0,1.0,6.0,6.0,294.4439949997104,1.0,1.0,phase_2,go,250.0,300.0,1.0,,,,,,,,,magenta,flipped triangle
0.0,5.0,0.5,1.0,6.0,0.0,0.0,1.0,1.0,phase_2,stop,250.0,300.0,4.0,,,,,,,,,green,triangle
0.0,2.0,1.0,0.0,6.0,6.0,589.5950209996954,2.0,1.0,phase_2,go,250.0,350.0,1.0,,,,,,,,,orange,I
0.0,2.0,1.0,0.0,6.0,6.0,342.2978849994251,2.0,1.0,phase_2,go,250.0,350.0,1.0,,,,,,,,,orange,I
0.0,1.0,0.5,0.0,5.0,5.0,379.1687789998832,2.0,1.0,phase_2,go,250.0,350.0,1.0,,,,,,,,,cyan,cross
0.0,7.0,2.0,1.0,6.0,6.0,331.7204879995188,2.0,1.0,phase_2,go,250.0,350.0,1.0,,,,,,,,,yellow,circle
0.0,6.0,1.0,1.0,5.0,5.0,467.587896000623,2.0,1.0,phase_2,stop,250.0,350.0,3.0,,,,,,,,,magenta,flipped triangle
0.0,7.0,2.0,1.0,6.0,6.0,547.1836629994868,2.0,1.0,phase_2,stop,200.0,350.0,3.0,,,,,,,,,yellow,circle
0.0,6.0,1.0,1.0,5.0,0.0,0.0,2.0,1.0,phase_2,stop,200.0,300.0,4.0,,,,,,,,,magenta,flipped triangle
0.0,3.0,2.0,0.0,6.0,6.0,492.4578909995034,2.0,1.0,phase_2,go,250.0,300.0,1.0,,,,,,,,,white,square
0.0,6.0,1.0,1.0,5.0,5.0,427.4488860000929,2.0,1.0,phase_2,stop,250.0,300.0,3.0,,,,,,,,,magenta,flipped triangle
0.0,3.0,2.0,0.0,5.0,5.0,522.5436079999781,2.0,1.0,phase_2,go,200.0,300.0,1.0,,,,,,,,,white,square
0.0,7.0,2.0,1.0,6.0,6.0,399.7654390004754,2.0,1.0,phase_2,stop,200.0,300.0,3.0,,,,,,,,,yellow,circle
0.0,8.0,4.0,1.0,6.0,6.0,502.74735699986195,2.0,1.0,phase_2,go,200.0,250.0,1.0,,,,,,,,,gray,hexagon
0.0,2.0,1.0,0.0,5.0,5.0,426.5791679999893,2.0,1.0,phase_2,go,200.0,250.0,1.0,,,,,,,,,orange,I
0.0,4.0,4.0,0.0,6.0,6.0,389.1964250005912,2.0,1.0,phase_2,go,200.0,250.0,1.0,,,,,,,,,blue,diamond
0.0,3.0,2.0,0.0,6.0,6.0,360.802109999895,2.0,1.0,phase_2,go,200.0,250.0,1.0,,,,,,,,,white,square
0.0,6.0,1.0,1.0,6.0,0.0,0.0,2.0,1.0,phase_2,stop,200.0,250.0,4.0,,,,,,,,,magenta,flipped triangle
0.0,8.0,4.0,1.0,6.0,6.0,389.168000000609,2.0,1.0,phase_2,go,200.0,300.0,1.0,,,,,,,,,gray,hexagon
0.0,1.0,0.5,0.0,5.0,5.0,350.8720070003619,2.0,1.0,phase_2,go,200.0,300.0,1.0,,,,,,,,,cyan,cross
0.0,7.0,2.0,1.0,5.0,5.0,387.7304839998032,2.0,1.0,phase_2,stop,200.0,300.0,3.0,,,,,,,,,yellow,circle
0.0,3.0,2.0,0.0,6.0,6.0,398.2268830004614,2.0,1.0,phase_2,go,150.0,300.0,1.0,,,,,,,,,white,square
0.0,3.0,2.0,0.0,6.0,6.0,360.0048469998,2.0,1.0,phase_2,go,150.0,300.0,1.0,,,,,,,,,white,square
0.0,3.0,2.0,0.0,5.0,5.0,352.7026650008338,2.0,1.0,phase_2,go,150.0,300.0,1.0,,,,,,,,,white,square
0.0,7.0,2.0,1.0,5.0,0.0,0.0,2.0,1.0,phase_2,stop,150.0,300.0,4.0,,,,,,,,,yellow,circle
0.0,6.0,1.0,1.0,5.0,0.0,0.0,2.0,1.0,phase_2,stop,200.0,300.0,4.0,,,,,,,,,magenta,flipped triangle
0.0,6.0,1.0,1.0,5.0,5.0,481.7807120007273,2.0,1.0,phase_2,stop,250.0,300.0,3.0,,,,,,,,,magenta,flipped triangle
0.0,6.0,1.0,1.0,5.0,5.0,531.582841999807,2.0,1.0,phase_2,go,200.0,300.0,1.0,,,,,,,,,magenta,flipped triangle
0.0,5.0,0.5,1.0,5.0,0.0,0.0,2.0,1.0,phase_2,stop,200.0,300.0,4.0,,,,,,,,,green,triangle
0.0,8.0,4.0,1.0,5.0,0.0,0.0,2.0,1.0,phase_2,stop,250.0,300.0,4.0,,,,,,,,,gray,hexagon
0.0,2.0,1.0,0.0,5.0,5.0,464.9699540004803,2.0,1.0,phase_2,go,300.0,300.0,1.0,,,,,,,,,orange,I
0.0,2.0,1.0,0.0,5.0,5.0,389.24079500066,2.0,1.0,phase_2,go,300.0,300.0,1.0,,,,,,,,,orange,I
0.0,2.0,1.0,0.0,5.0,5.0,370.7709649997923,2.0,1.0,phase_2,go,300.0,300.0,1.0,,,,,,,,,orange,I
0.0,4.0,4.0,0.0,6.0,6.0,418.243688000075,2.0,1.0,phase_2,go,300.0,300.0,1.0,,,,,,,,,blue,diamond
0.0,7.0,2.0,1.0,5.0,5.0,342.570868000621,2.0,1.0,phase_2,stop,300.0,300.0,3.0,,,,,,,,,yellow,circle
0.0,5.0,0.5,1.0,6.0,6.0,351.2513010000475,2.0,1.0,phase_2,stop,250.0,300.0,3.0,,,,,,,,,green,triangle
0.0,1.0,0.5,0.0,5.0,5.0,579.5028840002487,2.0,1.0,phase_2,go,250.0,250.0,1.0,,,,,,,,,cyan,cross
0.0,3.0,2.0,0.0,5.0,5.0,408.2347819994538,2.0,1.0,phase_2,go,250.0,250.0,1.0,,,,,,,,,white,square
0.0,2.0,1.0,0.0,5.0,5.0,560.4757959999915,3.0,1.0,phase_2,go,250.0,250.0,1.0,,,,,,,,,orange,I
0.0,4.0,4.0,0.0,6.0,6.0,304.4773729998269,3.0,1.0,phase_2,go,250.0,250.0,1.0,,,,,,,,,blue,diamond
0.0,7.0,2.0,1.0,6.0,6.0,372.0760209998843,3.0,1.0,phase_2,stop,250.0,250.0,3.0,,,,,,,,,yellow,circle
0.0,8.0,4.0,1.0,5.0,5.0,396.4831329994922,3.0,1.0,phase_2,stop,250.0,200.0,3.0,,,,,,,,,gray,hexagon
0.0,8.0,4.0,1.0,6.0,6.0,380.366727999899,3.0,1.0,phase_2,stop,200.0,200.0,3.0,,,,,,,,,gray,hexagon
0.0,6.0,1.0,1.0,5.0,5.0,608.0983070005459,3.0,1.0,phase_2,go,200.0,150.0,1.0,,,,,,,,,magenta,flipped triangle
0.0,2.0,1.0,0.0,5.0,5.0,417.8036519997476,3.0,1.0,phase_2,go,200.0,150.0,1.0,,,,,,,,,orange,I
0.0,1.0,0.5,0.0,5.0,5.0,464.5717529992907,3.0,1.0,phase_2,go,200.0,150.0,1.0,,,,,,,,,cyan,cross
0.0,8.0,4.0,1.0,5.0,0.0,0.0,3.0,1.0,phase_2,stop,200.0,150.0,4.0,,,,,,,,,gray,hexagon
0.0,6.0,1.0,1.0,6.0,6.0,456.1214629993628,3.0,1.0,phase_2,go,250.0,150.0,1.0,,,,,,,,,magenta,flipped triangle
0.0,6.0,1.0,1.0,6.0,6.0,342.8318179994676,3.0,1.0,phase_2,stop,250.0,150.0,3.0,,,,,,,,,magenta,flipped triangle
0.0,5.0,0.5,1.0,5.0,0.0,0.0,3.0,1.0,phase_2,stop,250.0,100.0,4.0,,,,,,,,,green,triangle
0.0,5.0,0.5,1.0,5.0,5.0,493.3548879998852,3.0,1.0,phase_2,go,300.0,100.0,1.0,,,,,,,,,green,triangle
0.0,7.0,2.0,1.0,6.0,6.0,427.9441279995808,3.0,1.0,phase_2,go,300.0,100.0,1.0,,,,,,,,,yellow,circle
0.0,3.0,2.0,0.0,5.0,5.0,342.7589829998396,3.0,1.0,phase_2,go,300.0,100.0,1.0,,,,,,,,,white,square
0.0,1.0,0.5,0.0,6.0,6.0,312.7476129993738,3.0,1.0,phase_2,go,300.0,100.0,1.0,,,,,,,,,cyan,cross
0.0,5.0,0.5,1.0,5.0,5.0,329.2322399993281,3.0,1.0,phase_2,stop,300.0,100.0,3.0,,,,,,,,,green,triangle
0.0,3.0,2.0,0.0,6.0,6.0,390.5383290002646,3.0,1.0,phase_2,go,250.0,100.0,1.0,,,,,,,,,white,square
0.0,3.0,2.0,0.0,5.0,5.0,322.9009959995892,3.0,1.0,phase_2,go,250.0,100.0,1.0,,,,,,,,,white,square
0.0,5.0,0.5,1.0,6.0,6.0,285.6203229994207,3.0,1.0,phase_2,stop,250.0,100.0,3.0,,,,,,,,,green,triangle
0.0,4.0,4.0,0.0,5.0,5.0,370.9082220002528,3.0,1.0,phase_2,go,250.0,50.0,1.0,,,,,,,,,blue,diamond
0.0,7.0,2.0,1.0,5.0,5.0,418.4529570002269,3.0,1.0,phase_2,go,250.0,50.0,1.0,,,,,,,,,yellow,circle
0.0,5.0,0.5,1.0,6.0,0.0,0.0,3.0,1.0,phase_2,stop,250.0,50.0,4.0,,,,,,,,,green,triangle
0.0,7.0,2.0,1.0,5.0,5.0,424.4624060002024,3.0,1.0,phase_2,stop,250.0,100.0,3.0,,,,,,,,,yellow,circle
0.0,3.0,2.0,0.0,5.0,5.0,484.8733850003555,3.0,1.0,phase_2,go,200.0,100.0,1.0,,,,,,,,,white,square
0.0,2.0,1.0,0.0,5.0,5.0,418.8402240006326,3.0,1.0,phase_2,go,200.0,100.0,1.0,,,,,,,,,orange,I
0.0,4.0,4.0,0.0,6.0,6.0,323.04351699986,3.0,1.0,phase_2,go,200.0,100.0,1.0,,,,,,,,,blue,diamond
0.0,5.0,0.5,1.0,6.0,0.0,0.0,3.0,1.0,phase_2,stop,200.0,100.0,4.0,,,,,,,,,green,triangle
0.0,2.0,1.0,0.0,5.0,5.0,361.3104730002305,3.0,1.0,phase_2,go,200.0,150.0,1.0,,,,,,,,,orange,I
0.0,8.0,4.0,1.0,6.0,0.0,0.0,3.0,1.0,phase_2,stop,200.0,150.0,4.0,,,,,,,,,gray,hexagon
0.0,8.0,4.0,1.0,5.0,0.0,0.0,3.0,1.0,phase_2,stop,200.0,200.0,4.0,,,,,,,,,gray,hexagon
0.0,6.0,1.0,1.0,5.0,5.0,607.4304169997049,3.0,1.0,phase_2,go,250.0,200.0,1.0,,,,,,,,,magenta,flipped triangle
0.0,2.0,1.0,0.0,5.0,5.0,406.2788030005322,3.0,1.0,phase_2,go,250.0,200.0,1.0,,,,,,,,,orange,I
0.0,3.0,2.0,0.0,5.0,5.0,398.5341779998634,3.0,1.0,phase_2,go,250.0,200.0,1.0,,,,,,,,,white,square
0.0,5.0,0.5,1.0,6.0,6.0,332.8928509999969,3.0,1.0,phase_2,stop,250.0,200.0,3.0,,,,,,,,,green,triangle
0.0,8.0,4.0,1.0,5.0,5.0,442.1088189992588,3.0,1.0,phase_2,stop,250.0,150.0,3.0,,,,,,,,,gray,hexagon
0.0,3.0,2.0,0.0,5.0,5.0,371.8650569999226,4.0,1.0,phase_2,go,200.0,150.0,1.0,,,,,,,,,white,square
0.0,4.0,4.0,0.0,5.0,5.0,332.4953609999284,4.0,1.0,phase_2,go,200.0,150.0,1.0,,,,,,,,,blue,diamond
0.0,3.0,2.0,0.0,6.0,6.0,379.4945400004508,4.0,1.0,phase_2,go,200.0,150.0,1.0,,,,,,,,,white,square
0.0,1.0,0.5,0.0,6.0,6.0,370.5728029999591,4.0,1.0,phase_2,go,200.0,150.0,1.0,,,,,,,,,cyan,cross
0.0,8.0,4.0,1.0,5.0,5.0,322.9631260001042,4.0,1.0,phase_2,go,200.0,150.0,1.0,,,,,,,,,gray,hexagon
0.0,7.0,2.0,1.0,6.0,6.0,280.2200449996235,4.0,1.0,phase_2,stop,200.0,150.0,3.0,,,,,,,,,yellow,circle
0.0,3.0,2.0,0.0,5.0,5.0,497.8713880000214,4.0,1.0,phase_2,go,200.0,100.0,1.0,,,,,,,,,white,square
0.0,8.0,4.0,1.0,5.0,0.0,0.0,4.0,1.0,phase_2,stop,200.0,100.0,4.0,,,,,,,,,gray,hexagon
0.0,1.0,0.5,0.0,6.0,6.0,378.6465140001382,4.0,1.0,phase_2,go,250.0,100.0,1.0,,,,,,,,,cyan,cross
0.0,1.0,0.5,0.0,5.0,5.0,416.3666849999572,4.0,1.0,phase_2,go,250.0,100.0,1.0,,,,,,,,,cyan,cross
0.0,6.0,1.0,1.0,5.0,5.0,327.5351580005008,4.0,1.0,phase_2,stop,250.0,100.0,3.0,,,,,,,,,magenta,flipped triangle
0.0,4.0,4.0,0.0,5.0,5.0,476.5876460005529,4.0,1.0,phase_2,go,200.0,100.0,1.0,,,,,,,,,blue,diamond
0.0,8.0,4.0,1.0,5.0,5.0,373.298980999607,4.0,1.0,phase_2,stop,200.0,100.0,3.0,,,,,,,,,gray,hexagon
0.0,4.0,4.0,0.0,6.0,6.0,436.2351199997647,4.0,1.0,phase_2,go,150.0,100.0,1.0,,,,,,,,,blue,diamond
0.0,5.0,0.5,1.0,6.0,0.0,0.0,4.0,1.0,phase_2,stop,150.0,100.0,4.0,,,,,,,,,green,triangle
0.0,5.0,0.5,1.0,6.0,6.0,579.1137200003504,4.0,1.0,phase_2,go,150.0,150.0,1.0,,,,,,,,,green,triangle
0.0,5.0,0.5,1.0,6.0,0.0,0.0,4.0,1.0,phase_2,stop,150.0,150.0,4.0,,,,,,,,,green,triangle
0.0,8.0,4.0,1.0,5.0,5.0,362.2969779999039,4.0,1.0,phase_2,stop,150.0,200.0,3.0,,,,,,,,,gray,hexagon
0.0,4.0,4.0,0.0,6.0,6.0,578.1902569997328,4.0,1.0,phase_2,go,100.0,200.0,1.0,,,,,,,,,blue,diamond
0.0,1.0,0.5,0.0,5.0,5.0,466.8072519998532,4.0,1.0,phase_2,go,100.0,200.0,1.0,,,,,,,,,cyan,cross
0.0,3.0,2.0,0.0,5.0,5.0,399.2940059997636,4.0,1.0,phase_2,go,100.0,200.0,1.0,,,,,,,,,white,square
0.0,4.0,4.0,0.0,5.0,5.0,380.6549470000391,4.0,1.0,phase_2,go,100.0,200.0,1.0,,,,,,,,,blue,diamond
0.0,2.0,1.0,0.0,6.0,6.0,388.8396689999354,4.0,1.0,phase_2,go,100.0,200.0,1.0,,,,,,,,,orange,I
0.0,5.0,0.5,1.0,5.0,5.0,330.665030000091,4.0,1.0,phase_2,go,100.0,200.0,1.0,,,,,,,,,green,triangle
0.0,6.0,1.0,1.0,6.0,6.0,341.3387690006857,4.0,1.0,phase_2,stop,100.0,200.0,3.0,,,,,,,,,magenta,flipped triangle
0.0,2.0,1.0,0.0,6.0,6.0,454.2967059996954,4.0,1.0,phase_2,go,100.0,150.0,1.0,,,,,,,,,orange,I
0.0,1.0,0.5,0.0,6.0,6.0,436.2962569994124,4.0,1.0,phase_2,go,100.0,150.0,1.0,,,,,,,,,cyan,cross
0.0,7.0,2.0,1.0,6.0,0.0,0.0,4.0,1.0,phase_2,stop,100.0,150.0,4.0,,,,,,,,,yellow,circle
0.0,7.0,2.0,1.0,6.0,6.0,437.3571020005329,4.0,1.0,phase_2,stop,100.0,200.0,3.0,,,,,,,,,yellow,circle
0.0,6.0,1.0,1.0,5.0,0.0,0.0,4.0,1.0,phase_2,stop,100.0,150.0,4.0,,,,,,,,,magenta,flipped triangle
0.0,2.0,1.0,0.0,5.0,5.0,473.7983739996707,4.0,1.0,phase_2,go,150.0,150.0,1.0,,,,,,,,,orange,I
0.0,2.0,1.0,0.0,5.0,5.0,503.7076900007378,4.0,1.0,phase_2,go,150.0,150.0,1.0,,,,,,,,,orange,I
0.0,4.0,4.0,0.0,6.0,6.0,379.5111389999874,4.0,1.0,phase_2,go,150.0,150.0,1.0,,,,,,,,,blue,diamond
0.0,7.0,2.0,1.0,6.0,0.0,0.0,4.0,1.0,phase_2,stop,150.0,150.0,4.0,,,,,,,,,yellow,circle
0.0,8.0,4.0,1.0,6.0,0.0,0.0,4.0,1.0,phase_2,stop,150.0,200.0,4.0,,,,,,,,,gray,hexagon
0.0,1.0,0.5,0.0,5.0,5.0,454.4745000002876,4.0,1.0,phase_2,go,150.0,250.0,1.0,,,,,,,,,cyan,cross
0.0,4.0,4.0,0.0,6.0,6.0,427.983893999226,5.0,1.0,phase_2,go,150.0,250.0,1.0,,,,,,,,,blue,diamond
0.0,1.0,0.5,0.0,6.0,6.0,304.1521049999574,5.0,1.0,phase_2,go,150.0,250.0,1.0,,,,,,,,,cyan,cross
0.0,6.0,1.0,1.0,6.0,6.0,359.3770180004867,5.0,1.0,phase_2,stop,150.0,250.0,3.0,,,,,,,,,magenta,flipped triangle
0.0,2.0,1.0,0.0,6.0,6.0,512.8234430003431,5.0,1.0,phase_2,go,150.0,200.0,1.0,,,,,,,,,orange,I
0.0,8.0,4.0,1.0,6.0,6.0,388.7863569998444,5.0,1.0,phase_2,go,150.0,200.0,1.0,,,,,,,,,gray,hexagon
0.0,7.0,2.0,1.0,5.0,5.0,587.0019780004441,5.0,1.0,phase_2,go,150.0,200.0,1.0,,,,,,,,,yellow,circle
0.0,3.0,2.0,0.0,6.0,6.0,350.2143490004528,5.0,1.0,phase_2,go,150.0,200.0,1.0,,,,,,,,,white,square
0.0,7.0,2.0,1.0,6.0,6.0,360.8279110003423,5.0,1.0,phase_2,stop,150.0,200.0,3.0,,,,,,,,,yellow,circle
0.0,6.0,1.0,1.0,6.0,0.0,0.0,5.0,1.0,phase_2,stop,150.0,150.0,4.0,,,,,,,,,magenta,flipped triangle
0.0,2.0,1.0,0.0,5.0,5.0,417.2783539997908,5.0,1.0,phase_2,go,150.0,200.0,1.0,,,,,,,,,orange,I
0.0,2.0,1.0,0.0,6.0,6.0,408.2770449995223,5.0,1.0,phase_2,go,150.0,200.0,1.0,,,,,,,,,orange,I
0.0,4.0,4.0,0.0,6.0,6.0,455.7123199992929,5.0,1.0,phase_2,go,150.0,200.0,1.0,,,,,,,,,blue,diamond
0.0,8.0,4.0,1.0,6.0,6.0,399.8710160003611,5.0,1.0,phase_2,stop,150.0,200.0,3.0,,,,,,,,,gray,hexagon
0.0,6.0,1.0,1.0,5.0,5.0,363.2724139997663,5.0,1.0,phase_2,stop,150.0,150.0,3.0,,,,,,,,,magenta,flipped triangle
0.0,2.0,1.0,0.0,6.0,6.0,597.5360550000914,5.0,1.0,phase_2,go,100.0,150.0,1.0,,,,,,,,,orange,I
0.0,6.0,1.0,1.0,6.0,0.0,0.0,5.0,1.0,phase_2,stop,100.0,150.0,4.0,,,,,,,,,magenta,flipped triangle
0.0,4.0,4.0,0.0,5.0,5.0,454.8413580005217,5.0,1.0,phase_2,go,100.0,200.0,1.0,,,,,,,,,blue,diamond
0.0,3.0,2.0,0.0,5.0,5.0,569.8357220007892,5.0,1.0,phase_2,go,100.0,200.0,1.0,,,,,,,,,white,square
0.0,3.0,2.0,0.0,6.0,6.0,409.0329119999296,5.0,1.0,phase_2,go,100.0,200.0,1.0,,,,,,,,,white,square
0.0,3.0,2.0,0.0,6.0,6.0,511.84496200039575,5.0,1.0,phase_2,go,100.0,200.0,1.0,,,,,,,,,white,square
0.0,4.0,4.0,0.0,5.0,5.0,388.8691759993889,5.0,1.0,phase_2,go,100.0,200.0,1.0,,,,,,,,,blue,diamond
0.0,2.0,1.0,0.0,6.0,6.0,379.1193719998773,5.0,1.0,phase_2,go,100.0,200.0,1.0,,,,,,,,,orange,I
0.0,3.0,2.0,0.0,6.0,6.0,435.8888599999773,5.0,1.0,phase_2,go,100.0,200.0,1.0,,,,,,,,,white,square
0.0,3.0,2.0,0.0,5.0,5.0,388.0613290002657,5.0,1.0,phase_2,go,100.0,200.0,1.0,,,,,,,,,white,square
0.0,7.0,2.0,1.0,6.0,0.0,0.0,5.0,1.0,phase_2,stop,100.0,200.0,4.0,,,,,,,,,yellow,circle
0.0,4.0,4.0,0.0,5.0,5.0,521.7217529998379,5.0,1.0,phase_2,go,100.0,250.0,1.0,,,,,,,,,blue,diamond
0.0,8.0,4.0,1.0,6.0,6.0,399.3815399999221,5.0,1.0,phase_2,stop,100.0,250.0,3.0,,,,,,,,,gray,hexagon
0.0,4.0,4.0,0.0,6.0,6.0,510.5084460001308,5.0,1.0,phase_2,go,100.0,200.0,1.0,,,,,,,,,blue,diamond
0.0,6.0,1.0,1.0,5.0,0.0,0.0,5.0,1.0,phase_2,stop,100.0,200.0,4.0,,,,,,,,,magenta,flipped triangle
0.0,5.0,0.5,1.0,6.0,6.0,338.9671830000225,5.0,1.0,phase_2,stop,150.0,200.0,3.0,,,,,,,,,green,triangle
0.0,4.0,4.0,0.0,6.0,6.0,437.2975819997009,5.0,1.0,phase_2,go,150.0,150.0,1.0,,,,,,,,,blue,diamond
0.0,5.0,0.5,1.0,5.0,0.0,0.0,5.0,1.0,phase_2,stop,150.0,150.0,4.0,,,,,,,,,green,triangle
0.0,7.0,2.0,1.0,5.0,0.0,0.0,5.0,1.0,phase_2,stop,200.0,150.0,4.0,,,,,,,,,yellow,circle
0.0,7.0,2.0,1.0,5.0,0.0,0.0,5.0,1.0,phase_2,stop,250.0,150.0,4.0,,,,,,,,,yellow,circle
0.0,3.0,2.0,0.0,5.0,5.0,485.9186910007338,5.0,1.0,phase_2,go,300.0,150.0,1.0,,,,,,,,,white,square
0.0,7.0,2.0,1.0,5.0,5.0,415.4413350006507,5.0,1.0,phase_2,stop,300.0,150.0,3.0,,,,,,,,,yellow,circle
0.0,1.0,0.5,0.0,5.0,5.0,360.6100710003375,6.0,1.0,phase_2,go,250.0,150.0,1.0,,,,,,,,,cyan,cross
0.0,8.0,4.0,1.0,5.0,5.0,360.8608989998174,6.0,1.0,phase_2,stop,250.0,150.0,3.0,,,,,,,,,gray,hexagon
0.0,1.0,0.5,0.0,5.0,5.0,494.7103949998563,6.0,1.0,phase_2,go,200.0,150.0,1.0,,,,,,,,,cyan,cross
0.0,7.0,2.0,1.0,5.0,5.0,493.138796000494,6.0,1.0,phase_2,go,200.0,150.0,1.0,,,,,,,,,yellow,circle
0.0,5.0,0.5,1.0,5.0,0.0,0.0,6.0,1.0,phase_2,stop,200.0,150.0,4.0,,,,,,,,,green,triangle
0.0,6.0,1.0,1.0,5.0,0.0,0.0,6.0,1.0,phase_2,stop,250.0,150.0,4.0,,,,,,,,,magenta,flipped triangle
0.0,1.0,0.5,0.0,5.0,5.0,521.8316690006759,6.0,1.0,phase_2,go,300.0,150.0,1.0,,,,,,,,,cyan,cross
0.0,7.0,2.0,1.0,5.0,5.0,480.115477000254,6.0,1.0,phase_2,go,300.0,150.0,1.0,,,,,,,,,yellow,circle
0.0,3.0,2.0,0.0,6.0,6.0,512.2044050003751,6.0,1.0,phase_2,go,300.0,150.0,1.0,,,,,,,,,white,square
0.0,1.0,0.5,0.0,6.0,6.0,429.6201240003938,6.0,1.0,phase_2,go,300.0,150.0,1.0,,,,,,,,,cyan,cross
0.0,5.0,0.5,1.0,5.0,5.0,396.2703060005879,6.0,1.0,phase_2,stop,300.0,150.0,3.0,,,,,,,,,green,triangle
0.0,5.0,0.5,1.0,5.0,5.0,542.0486540006095,6.0,1.0,phase_2,go,250.0,150.0,1.0,,,,,,,,,green,triangle
0.0,6.0,1.0,1.0,6.0,0.0,0.0,6.0,1.0,phase_2,stop,250.0,150.0,4.0,,,,,,,,,magenta,flipped triangle
0.0,7.0,2.0,1.0,5.0,5.0,365.3032940001139,6.0,1.0,phase_2,stop,250.0,200.0,3.0,,,,,,,,,yellow,circle
0.0,4.0,4.0,0.0,6.0,6.0,492.9191010005525,6.0,1.0,phase_2,go,200.0,200.0,1.0,,,,,,,,,blue,diamond
0.0,1.0,0.5,0.0,6.0,6.0,561.0009219999483,6.0,1.0,phase_2,go,200.0,200.0,1.0,,,,,,,,,cyan,cross
0.0,1.0,0.5,0.0,5.0,5.0,484.3684580000627,6.0,1.0,phase_2,go,200.0,200.0,1.0,,,,,,,,,cyan,cross
0.0,6.0,1.0,1.0,5.0,0.0,0.0,6.0,1.0,phase_2,stop,200.0,200.0,4.0,,,,,,,,,magenta,flipped triangle
0.0,5.0,0.5,1.0,6.0,6.0,541.1078819997783,6.0,1.0,phase_2,go,250.0,200.0,1.0,,,,,,,,,green,triangle
0.0,1.0,0.5,0.0,5.0,5.0,540.7765079999081,6.0,1.0,phase_2,go,250.0,200.0,1.0,,,,,,,,,cyan,cross
0.0,1.0,0.5,0.0,5.0,5.0,502.44792199919175,6.0,1.0,phase_2,go,250.0,200.0,1.0,,,,,,,,,cyan,cross
0.0,1.0,0.5,0.0,5.0,5.0,560.6815440005448,6.0,1.0,phase_2,go,250.0,200.0,1.0,,,,,,,,,cyan,cross
0.0,8.0,4.0,1.0,6.0,0.0,0.0,6.0,1.0,phase_2,stop,250.0,200.0,4.0,,,,,,,,,gray,hexagon
0.0,4.0,4.0,0.0,5.0,5.0,494.2442910005411,6.0,1.0,phase_2,go,250.0,250.0,1.0,,,,,,,,,blue,diamond
0.0,8.0,4.0,1.0,6.0,6.0,425.8545069997126,6.0,1.0,phase_2,stop,250.0,250.0,3.0,,,,,,,,,gray,hexagon
0.0,7.0,2.0,1.0,6.0,0.0,0.0,6.0,1.0,phase_2,stop,250.0,200.0,4.0,,,,,,,,,yellow,circle
0.0,6.0,1.0,1.0,6.0,6.0,628.137702999993,6.0,1.0,phase_2,go,250.0,250.0,1.0,,,,,,,,,magenta,flipped triangle
0.0,5.0,0.5,1.0,6.0,0.0,0.0,6.0,1.0,phase_2,stop,250.0,250.0,4.0,,,,,,,,,green,triangle
0.0,4.0,4.0,0.0,5.0,5.0,559.4704129998718,6.0,1.0,phase_2,go,250.0,300.0,1.0,,,,,,,,,blue,diamond
0.0,6.0,1.0,1.0,5.0,0.0,0.0,6.0,1.0,phase_2,stop,250.0,300.0,4.0,,,,,,,,,magenta,flipped triangle
0.0,8.0,4.0,1.0,5.0,5.0,485.1539510000293,6.0,1.0,phase_2,go,300.0,300.0,1.0,,,,,,,,,gray,hexagon
0.0,8.0,4.0,1.0,5.0,0.0,0.0,6.0,1.0,phase_2,stop,300.0,300.0,4.0,,,,,,,,,gray,hexagon
0.0,8.0,4.0,1.0,5.0,0.0,0.0,6.0,1.0,phase_2,stop,350.0,300.0,4.0,,,,,,,,,gray,hexagon
0.0,3.0,2.0,0.0,5.0,5.0,560.2656860000934,6.0,1.0,phase_2,go,400.0,300.0,1.0,,,,,,,,,white,square
0.0,3.0,2.0,0.0,6.0,6.0,513.3342139997694,6.0,1.0,phase_2,go,400.0,300.0,1.0,,,,,,,,,white,square
0.0,3.0,2.0,0.0,5.0,5.0,407.9026440003872,6.0,1.0,phase_2,go,400.0,300.0,1.0,,,,,,,,,white,square
0.0,5.0,0.5,1.0,5.0,5.0,332.9435549994741,7.0,1.0,phase_2,stop,400.0,300.0,3.0,,,,,,,,,green,triangle
0.0,7.0,2.0,1.0,6.0,6.0,457.7992060003453,7.0,1.0,phase_2,stop,350.0,300.0,3.0,,,,,,,,,yellow,circle
0.0,7.0,2.0,1.0,6.0,6.0,512.5930920003157,7.0,1.0,phase_2,go,350.0,250.0,1.0,,,,,,,,,yellow,circle
0.0,3.0,2.0,0.0,6.0,6.0,588.6786259998189,7.0,1.0,phase_2,go,350.0,250.0,1.0,,,,,,,,,white,square
0.0,2.0,1.0,0.0,6.0,6.0,515.0980220005295,7.0,1.0,phase_2,go,350.0,250.0,1.0,,,,,,,,,orange,I
0.0,1.0,0.5,0.0,5.0,5.0,427.7674650002154,7.0,1.0,phase_2,go,350.0,250.0,1.0,,,,,,,,,cyan,cross
0.0,1.0,0.5,0.0,6.0,6.0,304.671875999702,7.0,1.0,phase_2,go,350.0,250.0,1.0,,,,,,,,,cyan,cross
0.0,3.0,2.0,0.0,6.0,6.0,562.5491579994559,7.0,1.0,phase_2,go,350.0,250.0,1.0,,,,,,,,,white,square
0.0,5.0,0.5,1.0,5.0,5.0,382.1175309994942,7.0,1.0,phase_2,stop,350.0,250.0,3.0,,,,,,,,,green,triangle
0.0,8.0,4.0,1.0,6.0,6.0,447.4307219998081,7.0,1.0,phase_2,stop,300.0,250.0,3.0,,,,,,,,,gray,hexagon
0.0,5.0,0.5,1.0,5.0,5.0,524.3976490000932,7.0,1.0,phase_2,go,300.0,200.0,1.0,,,,,,,,,green,triangle
0.0,4.0,4.0,0.0,6.0,6.0,390.4274349997649,7.0,1.0,phase_2,go,300.0,200.0,1.0,,,,,,,,,blue,diamond
0.0,5.0,0.5,1.0,5.0,0.0,0.0,7.0,1.0,phase_2,stop,300.0,200.0,4.0,,,,,,,,,green,triangle
0.0,1.0,0.5,0.0,5.0,5.0,639.2827070003477,7.0,1.0,phase_2,go,350.0,200.0,1.0,,,,,,,,,cyan,cross
0.0,2.0,1.0,0.0,5.0,5.0,646.5794400000959,7.0,1.0,phase_2,go,350.0,200.0,1.0,,,,,,,,,orange,I
0.0,2.0,1.0,0.0,6.0,6.0,370.5024410000987,7.0,1.0,phase_2,go,350.0,200.0,1.0,,,,,,,,,orange,I
0.0,7.0,2.0,1.0,6.0,0.0,0.0,7.0,1.0,phase_2,stop,350.0,200.0,4.0,,,,,,,,,yellow,circle
0.0,5.0,0.5,1.0,6.0,6.0,561.807836999833,7.0,1.0,phase_2,go,350.0,250.0,1.0,,,,,,,,,green,triangle
0.0,1.0,0.5,0.0,6.0,6.0,581.7628670001795,7.0,1.0,phase_2,go,350.0,250.0,1.0,,,,,,,,,cyan,cross
0.0,3.0,2.0,0.0,6.0,6.0,732.4910910001563,7.0,1.0,phase_2,go,350.0,250.0,1.0,,,,,,,,,white,square
0.0,8.0,4.0,1.0,6.0,0.0,0.0,7.0,1.0,phase_2,stop,350.0,250.0,4.0,,,,,,,,,gray,hexagon
0.0,6.0,1.0,1.0,6.0,0.0,0.0,7.0,1.0,phase_2,stop,350.0,300.0,4.0,,,,,,,,,magenta,flipped triangle
0.0,8.0,4.0,1.0,6.0,0.0,0.0,7.0,1.0,phase_2,stop,350.0,350.0,4.0,,,,,,,,,gray,hexagon
0.0,1.0,0.5,0.0,6.0,6.0,597.1768069994141,7.0,1.0,phase_2,go,350.0,400.0,1.0,,,,,,,,,cyan,cross
0.0,4.0,4.0,0.0,6.0,6.0,428.2844119998117,7.0,1.0,phase_2,go,350.0,400.0,1.0,,,,,,,,,blue,diamond
0.0,4.0,4.0,0.0,6.0,6.0,428.5340389997145,7.0,1.0,phase_2,go,350.0,400.0,1.0,,,,,,,,,blue,diamond
0.0,2.0,1.0,0.0,6.0,6.0,399.6723259997452,7.0,1.0,phase_2,go,350.0,400.0,1.0,,,,,,,,,orange,I
0.0,1.0,0.5,0.0,6.0,6.0,438.9657359997727,7.0,1.0,phase_2,go,350.0,400.0,1.0,,,,,,,,,cyan,cross
0.0,6.0,1.0,1.0,6.0,6.0,459.9103860000468,7.0,1.0,phase_2,stop,350.0,400.0,3.0,,,,,,,,,magenta,flipped triangle
0.0,5.0,0.5,1.0,5.0,0.0,0.0,7.0,1.0,phase_2,stop,350.0,350.0,4.0,,,,,,,,,green,triangle
0.0,6.0,1.0,1.0,6.0,6.0,836.8438739998965,7.0,1.0,phase_2,go,400.0,350.0,1.0,,,,,,,,,magenta,flipped triangle
0.0,4.0,4.0,0.0,5.0,5.0,673.9086249999673,7.0,1.0,phase_2,go,400.0,350.0,1.0,,,,,,,,,blue,diamond
0.0,2.0,1.0,0.0,6.0,6.0,607.3894430001019,7.0,1.0,phase_2,go,400.0,350.0,1.0,,,,,,,,,orange,I
0.0,4.0,4.0,0.0,5.0,5.0,361.1394260005909,7.0,1.0,phase_2,go,400.0,350.0,1.0,,,,,,,,,blue,diamond
0.0,6.0,1.0,1.0,5.0,5.0,569.6190399994521,7.0,1.0,phase_2,go,400.0,350.0,1.0,,,,,,,,,magenta,flipped triangle
0.0,3.0,2.0,0.0,6.0,6.0,464.931018000243,7.0,1.0,phase_2,go,400.0,350.0,1.0,,,,,,,,,white,square
0.0,2.0,1.0,0.0,6.0,6.0,522.9940279996299,8.0,1.0,phase_2,go,400.0,350.0,1.0,,,,,,,,,orange,I
0.0,8.0,4.0,1.0,6.0,6.0,379.5974810000189,8.0,1.0,phase_2,stop,400.0,350.0,3.0,,,,,,,,,gray,hexagon
0.0,2.0,1.0,0.0,6.0,6.0,511.25894699998753,8.0,1.0,phase_2,go,400.0,300.0,1.0,,,,,,,,,orange,I
0.0,3.0,2.0,0.0,6.0,6.0,417.9205350001211,8.0,1.0,phase_2,go,400.0,300.0,1.0,,,,,,,,,white,square
0.0,7.0,2.0,1.0,5.0,5.0,418.4968950003167,8.0,1.0,phase_2,go,400.0,300.0,1.0,,,,,,,,,yellow,circle
0.0,6.0,1.0,1.0,6.0,6.0,380.1224749995526,8.0,1.0,phase_2,stop,400.0,300.0,3.0,,,,,,,,,magenta,flipped triangle
0.0,7.0,2.0,1.0,5.0,5.0,658.4381529992243,8.0,1.0,phase_2,stop,400.0,250.0,3.0,,,,,,,,,yellow,circle
0.0,2.0,1.0,0.0,6.0,6.0,446.1515660004806,8.0,1.0,phase_2,go,350.0,250.0,1.0,,,,,,,,,orange,I
0.0,5.0,0.5,1.0,6.0,0.0,0.0,8.0,1.0,phase_2,stop,350.0,250.0,4.0,,,,,,,,,green,triangle
0.0,4.0,4.0,0.0,5.0,5.0,521.1636539997926,8.0,1.0,phase_2,go,350.0,300.0,1.0,,,,,,,,,blue,diamond
0.0,4.0,4.0,0.0,5.0,5.0,616.5984319995914,8.0,1.0,phase_2,go,350.0,300.0,1.0,,,,,,,,,blue,diamond
0.0,5.0,0.5,1.0,5.0,0.0,0.0,8.0,1.0,phase_2,stop,350.0,300.0,4.0,,,,,,,,,green,triangle
0.0,5.0,0.5,1.0,5.0,0.0,0.0,8.0,1.0,phase_2,stop,400.0,300.0,4.0,,,,,,,,,green,triangle
0.0,7.0,2.0,1.0,5.0,0.0,0.0,8.0,1.0,phase_2,stop,450.0,300.0,4.0,,,,,,,,,yellow,circle
0.0,2.0,1.0,0.0,5.0,5.0,786.5960350000023,8.0,1.0,phase_2,go,500.0,300.0,1.0,,,,,,,,,orange,I
0.0,2.0,1.0,0.0,5.0,5.0,609.0315289993669,8.0,1.0,phase_2,go,500.0,300.0,1.0,,,,,,,,,orange,I
0.0,1.0,0.5,0.0,5.0,5.0,609.3944569993255,8.0,1.0,phase_2,go,500.0,300.0,1.0,,,,,,,,,cyan,cross
0.0,2.0,1.0,0.0,6.0,6.0,645.25107999998,8.0,1.0,phase_2,go,500.0,300.0,1.0,,,,,,,,,orange,I
0.0,5.0,0.5,1.0,6.0,6.0,383.5989210001571,8.0,1.0,phase_2,stop,500.0,300.0,3.0,,,,,,,,,green,triangle
0.0,8.0,4.0,1.0,5.0,5.0,679.4735660005244,8.0,1.0,phase_2,stop,500.0,250.0,3.0,,,,,,,,,gray,hexagon
0.0,4.0,4.0,0.0,6.0,6.0,701.8664440001885,8.0,1.0,phase_2,go,450.0,250.0,1.0,,,,,,,,,blue,diamond
0.0,2.0,1.0,0.0,5.0,5.0,635.7249840002623,8.0,1.0,phase_2,go,450.0,250.0,1.0,,,,,,,,,orange,I
0.0,1.0,0.5,0.0,6.0,6.0,484.7925700005362,8.0,1.0,phase_2,go,450.0,250.0,1.0,,,,,,,,,cyan,cross
0.0,6.0,1.0,1.0,5.0,5.0,498.8792200001626,8.0,1.0,phase_2,stop,450.0,250.0,3.0,,,,,,,,,magenta,flipped triangle
0.0,5.0,0.5,1.0,6.0,6.0,512.6803809998819,8.0,1.0,phase_2,go,400.0,250.0,1.0,,,,,,,,,green,triangle
0.0,6.0,1.0,1.0,6.0,0.0,0.0,8.0,1.0,phase_2,stop,400.0,250.0,4.0,,,,,,,,,magenta,flipped triangle
0.0,5.0,0.5,1.0,5.0,0.0,0.0,8.0,1.0,phase_2,stop,400.0,300.0,4.0,,,,,,,,,green,triangle
0.0,1.0,0.5,0.0,5.0,5.0,920.1724049999028,8.0,1.0,phase_2,go,450.0,300.0,1.0,,,,,,,,,cyan,cross
0.0,1.0,0.5,0.0,6.0,6.0,615.1192050001555,8.0,1.0,phase_2,go,450.0,300.0,1.0,,,,,,,,,cyan,cross
0.0,7.0,2.0,1.0,5.0,5.0,643.2144109994624,8.0,1.0,phase_2,stop,450.0,300.0,3.0,,,,,,,,,yellow,circle
0.0,1.0,0.5,0.0,6.0,6.0,854.3576609999946,8.0,1.0,phase_2,go,400.0,300.0,1.0,,,,,,,,,cyan,cross
0.0,8.0,4.0,1.0,5.0,5.0,711.4257920002274,8.0,1.0,phase_2,go,400.0,300.0,1.0,,,,,,,,,gray,hexagon
0.0,5.0,0.5,1.0,5.0,5.0,587.3693630001071,8.0,1.0,phase_2,stop,400.0,300.0,3.0,,,,,,,,,green,triangle
0.0,1.0,0.5,0.0,6.0,6.0,513.6304520001431,8.0,1.0,phase_2,go,350.0,300.0,1.0,,,,,,,,,cyan,cross
0.0,8.0,4.0,1.0,5.0,0.0,0.0,8.0,1.0,phase_2,stop,350.0,300.0,4.0,,,,,,,,,gray,hexagon
0.0,4.0,4.0,0.0,5.0,5.0,540.4795629992805,8.0,1.0,phase_2,go,400.0,300.0,1.0,,,,,,,,,blue,diamond
0.0,6.0,1.0,1.0,7.0,2.0,1319.1007599998557,1.0,1.0,phase_3,,,,,696.0,6.0,348.0,696.0,580.0,464.0,116.0,232.0,magenta,flipped triangle
0.0,4.0,4.0,0.0,7.0,3.0,1921.7021229997044,1.0,1.0,phase_3,,,,,960.0,5.0,192.0,576.0,960.0,384.0,1152.0,768.0,blue,diamond
0.0,4.0,4.0,0.0,7.0,1.0,970.6420239999716,1.0,1.0,phase_3,,,,,696.0,6.0,696.0,464.0,580.0,116.0,348.0,232.0,blue,diamond
0.0,3.0,2.0,0.0,7.0,5.0,744.4452110003112,1.0,1.0,phase_3,,,,,116.0,1.0,232.0,580.0,696.0,464.0,116.0,348.0,white,square
0.0,5.0,0.5,1.0,7.0,2.0,1606.1444879996998,1.0,1.0,phase_3,,,,,135.0,1.0,270.0,135.0,810.0,405.0,540.0,675.0,green,triangle
0.0,6.0,1.0,1.0,7.0,1.0,1827.259826000045,1.0,1.0,phase_3,,,,,810.0,6.0,810.0,270.0,540.0,675.0,405.0,135.0,magenta,flipped triangle
0.0,6.0,1.0,1.0,7.0,6.0,1897.6987500000175,1.0,1.0,phase_3,,,,,576.0,3.0,960.0,1152.0,768.0,192.0,384.0,576.0,magenta,flipped triangle
0.0,4.0,4.0,0.0,7.0,3.0,1188.229739000235,1.0,1.0,phase_3,,,,,692.0,4.0,173.0,519.0,692.0,346.0,865.0,1038.0,blue,diamond
0.0,6.0,1.0,1.0,7.0,6.0,1298.1258489999163,1.0,1.0,phase_3,,,,,696.0,6.0,464.0,116.0,232.0,348.0,580.0,696.0,magenta,flipped triangle
0.0,7.0,2.0,1.0,7.0,4.0,1640.435482000612,1.0,1.0,phase_3,,,,,810.0,6.0,135.0,540.0,270.0,810.0,405.0,675.0,yellow,circle
0.0,1.0,0.5,0.0,7.0,5.0,1338.1581640005606,1.0,1.0,phase_3,,,,,696.0,6.0,232.0,116.0,580.0,348.0,696.0,464.0,cyan,cross
0.0,5.0,0.5,1.0,7.0,4.0,1700.1868340003057,1.0,1.0,phase_3,,,,,580.0,5.0,348.0,464.0,696.0,580.0,232.0,116.0,green,triangle
0.0,8.0,4.0,1.0,7.0,1.0,986.5907410003274,1.0,1.0,phase_3,,,,,692.0,4.0,692.0,346.0,1038.0,865.0,173.0,519.0,gray,hexagon
0.0,8.0,4.0,1.0,7.0,1.0,1015.0062640004762,1.0,1.0,phase_3,,,,,770.0,5.0,770.0,154.0,924.0,308.0,616.0,462.0,gray,hexagon
0.0,2.0,1.0,0.0,7.0,6.0,1535.136080000484,1.0,1.0,phase_3,,,,,768.0,4.0,384.0,576.0,192.0,960.0,1152.0,768.0,orange,I
0.0,2.0,1.0,0.0,7.0,3.0,1072.1914740006468,1.0,1.0,phase_3,,,,,692.0,4.0,1038.0,519.0,692.0,173.0,346.0,865.0,orange,I
0.0,5.0,0.5,1.0,7.0,1.0,1793.6616790002518,1.0,1.0,phase_3,,,,,616.0,4.0,616.0,924.0,462.0,154.0,770.0,308.0,green,triangle
0.0,8.0,4.0,1.0,7.0,4.0,1682.303438999952,1.0,1.0,phase_3,,,,,696.0,6.0,348.0,580.0,464.0,696.0,232.0,116.0,gray,hexagon
0.0,8.0,4.0,1.0,7.0,3.0,996.294356999897,1.0,1.0,phase_3,,,,,924.0,6.0,308.0,154.0,924.0,462.0,770.0,616.0,gray,hexagon
0.0,7.0,2.0,1.0,7.0,1.0,1157.6160559998243,1.0,1.0,phase_3,,,,,960.0,5.0,960.0,384.0,1152.0,576.0,768.0,192.0,yellow,circle
0.0,4.0,4.0,0.0,7.0,2.0,1165.990069000145,2.0,1.0,phase_3,,,,,810.0,6.0,405.0,810.0,540.0,270.0,675.0,135.0,blue,diamond
0.0,2.0,1.0,0.0,7.0,3.0,2380.4575220001425,2.0,1.0,phase_3,,,,,865.0,5.0,346.0,519.0,865.0,692.0,1038.0,173.0,orange,I
0.0,2.0,1.0,0.0,7.0,2.0,921.2734470002032,2.0,1.0,phase_3,,,,,770.0,5.0,154.0,770.0,616.0,924.0,308.0,462.0,orange,I
0.0,2.0,1.0,0.0,7.0,6.0,800.5117009997775,2.0,1.0,phase_3,,,,,675.0,5.0,540.0,810.0,135.0,405.0,270.0,675.0,orange,I
0.0,8.0,4.0,1.0,7.0,3.0,1336.0069939999448,2.0,1.0,phase_3,,,,,696.0,6.0,464.0,348.0,696.0,580.0,116.0,232.0,gray,hexagon
0.0,4.0,4.0,0.0,7.0,6.0,1391.8459209999128,2.0,1.0,phase_3,,,,,770.0,5.0,154.0,462.0,308.0,924.0,616.0,770.0,blue,diamond
0.0,7.0,2.0,1.0,7.0,2.0,1489.6352610003305,2.0,1.0,phase_3,,,,,696.0,6.0,464.0,696.0,580.0,348.0,116.0,232.0,yellow,circle
0.0,2.0,1.0,0.0,7.0,6.0,1787.8967959995862,2.0,1.0,phase_3,,,,,696.0,6.0,348.0,464.0,580.0,232.0,116.0,696.0,orange,I
0.0,4.0,4.0,0.0,7.0,5.0,1148.1218140006604,2.0,1.0,phase_3,,,,,770.0,5.0,616.0,924.0,462.0,154.0,770.0,308.0,blue,diamond
0.0,8.0,4.0,1.0,7.0,3.0,1006.4981820005414,2.0,1.0,phase_3,,,,,270.0,2.0,405.0,675.0,270.0,540.0,810.0,135.0,gray,hexagon
0.0,2.0,1.0,0.0,7.0,1.0,1045.7253080003284,2.0,1.0,phase_3,,,,,675.0,5.0,675.0,405.0,270.0,540.0,810.0,135.0,orange,I
0.0,8.0,4.0,1.0,7.0,4.0,1149.4503960002476,2.0,1.0,phase_3,,,,,192.0,1.0,384.0,960.0,1152.0,192.0,768.0,576.0,gray,hexagon
0.0,1.0,0.5,0.0,7.0,5.0,1054.5114560000002,2.0,1.0,phase_3,,,,,1152.0,6.0,960.0,768.0,384.0,576.0,1152.0,192.0,cyan,cross
0.0,3.0,2.0,0.0,7.0,1.0,1049.0457930000048,2.0,1.0,phase_3,,,,,348.0,3.0,348.0,580.0,232.0,464.0,696.0,116.0,white,square
0.0,3.0,2.0,0.0,7.0,3.0,883.0424409998159,2.0,1.0,phase_3,,,,,865.0,5.0,346.0,519.0,865.0,1038.0,692.0,173.0,white,square
0.0,1.0,0.5,0.0,7.0,3.0,866.9496769998659,2.0,1.0,phase_3,,,,,616.0,4.0,308.0,462.0,616.0,154.0,924.0,770.0,cyan,cross
0.0,5.0,0.5,1.0,7.0,4.0,989.2961559999094,2.0,1.0,phase_3,,,,,865.0,5.0,173.0,519.0,692.0,865.0,346.0,1038.0,green,triangle
0.0,5.0,0.5,1.0,7.0,1.0,933.258527000362,2.0,1.0,phase_3,,,,,464.0,4.0,464.0,580.0,696.0,232.0,348.0,116.0,green,triangle
0.0,2.0,1.0,0.0,7.0,4.0,649.6368600001006,2.0,1.0,phase_3,,,,,348.0,3.0,580.0,232.0,696.0,348.0,464.0,116.0,orange,I
0.0,3.0,2.0,0.0,7.0,6.0,611.4237760002652,2.0,1.0,phase_3,,,,,768.0,4.0,960.0,1152.0,576.0,384.0,192.0,768.0,white,square
0.0,7.0,2.0,1.0,7.0,1.0,1034.3495580000308,3.0,1.0,phase_3,,,,,308.0,2.0,308.0,770.0,616.0,462.0,924.0,154.0,yellow,circle
0.0,7.0,2.0,1.0,7.0,6.0,1176.7181979994348,3.0,1.0,phase_3,,,,,462.0,3.0,616.0,770.0,154.0,924.0,308.0,462.0,yellow,circle
0.0,6.0,1.0,1.0,7.0,5.0,773.0861430000004,3.0,1.0,phase_3,,,,,768.0,4.0,1152.0,960.0,576.0,192.0,768.0,384.0,magenta,flipped triangle
0.0,5.0,0.5,1.0,7.0,1.0,544.8681710004166,3.0,1.0,phase_3,,,,,960.0,5.0,960.0,1152.0,576.0,192.0,768.0,384.0,green,triangle
0.0,7.0,2.0,1.0,7.0,4.0,978.3679219999613,3.0,1.0,phase_3,,,,,675.0,5.0,405.0,540.0,810.0,675.0,270.0,135.0,yellow,circle
0.0,1.0,0.5,0.0,7.0,3.0,997.4083130000508,3.0,1.0,phase_3,,,,,616.0,4.0,770.0,924.0,616.0,154.0,308.0,462.0,cyan,cross
0.0,3.0,2.0,0.0,7.0,2.0,979.9504500006152,3.0,1.0,phase_3,,,,,768.0,4.0,1152.0,768.0,384.0,960.0,576.0,192.0,white,square
0.0,6.0,1.0,1.0,7.0,3.0,1016.3760759996876,3.0,1.0,phase_3,,,,,770.0,5.0,924.0,616.0,770.0,462.0,308.0,154.0,magenta,flipped triangle
0.0,7.0,2.0,1.0,7.0,6.0,1270.476320999478,3.0,1.0,phase_3,,,,,519.0,3.0,173.0,1038.0,692.0,346.0,865.0,519.0,yellow,circle
0.0,4.0,4.0,0.0,7.0,1.0,877.9515790001824,3.0,1.0,phase_3,,,,,519.0,3.0,519.0,1038.0,865.0,692.0,346.0,173.0,blue,diamond
0.0,4.0,4.0,0.0,7.0,1.0,1480.120225999599,3.0,1.0,phase_3,,,,,768.0,4.0,768.0,192.0,960.0,384.0,576.0,1152.0,blue,diamond
0.0,6.0,1.0,1.0,7.0,1.0,959.5396710001296,3.0,1.0,phase_3,,,,,692.0,4.0,692.0,173.0,1038.0,865.0,346.0,519.0,magenta,flipped triangle
0.0,8.0,4.0,1.0,7.0,6.0,857.711245000246,3.0,1.0,phase_3,,,,,865.0,5.0,519.0,692.0,173.0,346.0,1038.0,865.0,gray,hexagon
0.0,8.0,4.0,1.0,7.0,2.0,648.8339749994338,3.0,1.0,phase_3,,,,,1152.0,6.0,768.0,1152.0,576.0,384.0,960.0,192.0,gray,hexagon
0.0,7.0,2.0,1.0,7.0,2.0,980.0025790000292,3.0,1.0,phase_3,,,,,519.0,3.0,346.0,519.0,1038.0,692.0,865.0,173.0,yellow,circle
0.0,4.0,4.0,0.0,7.0,6.0,874.0550400007123,3.0,1.0,phase_3,,,,,135.0,1.0,540.0,270.0,675.0,405.0,810.0,135.0,blue,diamond
0.0,6.0,1.0,1.0,7.0,5.0,1740.313629999946,3.0,1.0,phase_3,,,,,865.0,5.0,692.0,173.0,346.0,1038.0,865.0,519.0,magenta,flipped triangle
0.0,5.0,0.5,1.0,7.0,4.0,1223.1072320000749,3.0,1.0,phase_3,,,,,768.0,4.0,1152.0,960.0,384.0,768.0,576.0,192.0,green,triangle
0.0,5.0,0.5,1.0,7.0,4.0,1514.575058999981,3.0,1.0,phase_3,,,,,540.0,4.0,135.0,405.0,270.0,540.0,675.0,810.0,green,triangle
0.0,3.0,2.0,0.0,7.0,1.0,1534.3365240005369,3.0,1.0,phase_3,,,,,519.0,3.0,519.0,865.0,173.0,346.0,1038.0,692.0,white,square
0.0,1.0,0.5,0.0,7.0,3.0,875.5494679999174,4.0,1.0,phase_3,,,,,865.0,5.0,1038.0,519.0,865.0,173.0,346.0,692.0,cyan,cross
0.0,3.0,2.0,0.0,7.0,6.0,1233.0060660005984,4.0,1.0,phase_3,,,,,675.0,5.0,810.0,270.0,135.0,540.0,405.0,675.0,white,square
0.0,7.0,2.0,1.0,7.0,1.0,734.3178969995279,4.0,1.0,phase_3,,,,,960.0,5.0,960.0,192.0,1152.0,384.0,576.0,768.0,yellow,circle
0.0,1.0,0.5,0.0,7.0,1.0,1293.775948000075,4.0,1.0,phase_3,,,,,810.0,6.0,810.0,135.0,405.0,675.0,540.0,270.0,cyan,cross
0.0,8.0,4.0,1.0,7.0,2.0,1570.8246540007167,4.0,1.0,phase_3,,,,,405.0,3.0,135.0,405.0,675.0,270.0,540.0,810.0,gray,hexagon
0.0,7.0,2.0,1.0,7.0,3.0,1385.4567799999131,4.0,1.0,phase_3,,,,,696.0,6.0,232.0,348.0,696.0,580.0,464.0,116.0,yellow,circle
0.0,3.0,2.0,0.0,7.0,1.0,1275.924767000106,4.0,1.0,phase_3,,,,,616.0,4.0,616.0,924.0,154.0,462.0,770.0,308.0,white,square
0.0,3.0,2.0,0.0,7.0,2.0,1298.368370999924,4.0,1.0,phase_3,,,,,675.0,5.0,135.0,675.0,270.0,540.0,810.0,405.0,white,square
0.0,3.0,2.0,0.0,7.0,4.0,1458.6851260000913,4.0,1.0,phase_3,,,,,770.0,5.0,308.0,462.0,154.0,770.0,924.0,616.0,white,square
0.0,1.0,0.5,0.0,7.0,1.0,1275.7251680004629,4.0,1.0,phase_3,,,,,768.0,4.0,768.0,960.0,576.0,192.0,1152.0,384.0,cyan,cross
0.0,5.0,0.5,1.0,7.0,3.0,1135.351377999541,4.0,1.0,phase_3,,,,,692.0,4.0,346.0,519.0,692.0,173.0,865.0,1038.0,green,triangle
0.0,2.0,1.0,0.0,7.0,5.0,2747.225408000304,4.0,1.0,phase_3,,,,,960.0,5.0,576.0,384.0,1152.0,768.0,960.0,192.0,orange,I
0.0,5.0,0.5,1.0,7.0,5.0,1852.4298080001245,4.0,1.0,phase_3,,,,,770.0,5.0,616.0,154.0,924.0,308.0,770.0,462.0,green,triangle
0.0,6.0,1.0,1.0,7.0,1.0,903.022809000504,4.0,1.0,phase_3,,,,,675.0,5.0,675.0,540.0,270.0,405.0,135.0,810.0,magenta,flipped triangle
0.0,1.0,0.5,0.0,7.0,5.0,1091.2360689999332,4.0,1.0,phase_3,,,,,810.0,6.0,135.0,405.0,675.0,540.0,810.0,270.0,cyan,cross
0.0,1.0,0.5,0.0,7.0,4.0,1834.050034999564,4.0,1.0,phase_3,,,,,692.0,4.0,346.0,1038.0,865.0,692.0,173.0,519.0,cyan,cross
0.0,4.0,4.0,0.0,7.0,4.0,1105.535286000304,4.0,1.0,phase_3,,,,,464.0,4.0,116.0,580.0,696.0,464.0,232.0,348.0,blue,diamond
0.0,2.0,1.0,0.0,7.0,3.0,1405.596976999732,4.0,1.0,phase_3,,,,,924.0,6.0,616.0,770.0,924.0,154.0,462.0,308.0,orange,I
0.0,6.0,1.0,1.0,7.0,3.0,1010.5455979992255,4.0,1.0,phase_3,,,,,616.0,4.0,462.0,924.0,616.0,154.0,308.0,770.0,magenta,flipped triangle
0.0,1.0,0.5,0.0,7.0,3.0,771.1604960004479,4.0,1.0,phase_3,,,,,696.0,6.0,232.0,116.0,696.0,464.0,580.0,348.0,cyan,cross
