raw_reward_magnitude,stim_reward,stepwise_reward_magnitude,paired_with_stopping,stim_location,response,reaction_time,block,num_trial_presentations,which_phase,stop_signal_trial_type,left_SSD,right_SSD,accuracy,chosen_bidding_amount,chosen_bidding_level,possible_bid_1,possible_bid_2,possible_bid_3,possible_bid_4,possible_bid_5,possible_bid_6,color_text,shape_text
155.0,1.0,0.5,0.0,1.0,1.0,540.8062790520489,1.0,1.0,phase_1,,,,,,,,,,,,,white,cross
674.0,7.0,2.0,1.0,1.0,1.0,457.0708359824493,1.0,1.0,phase_1,,,,,,,,,,,,,magenta,I
309.0,2.0,1.0,0.0,3.0,3.0,381.960705970414,1.0,1.0,phase_1,,,,,,,,,,,,,orange,diamond
0.0,3.0,0.0,0.0,3.0,3.0,418.4785099932924,1.0,1.0,phase_1,,,,,,,,,,,,,cyan,triangle
143.0,5.0,0.5,1.0,1.0,1.0,307.4827020172961,1.0,1.0,phase_1,,,,,,,,,,,,,green,circle
147.0,1.0,0.5,0.0,4.0,4.0,418.9238719991408,1.0,1.0,phase_1,,,,,,,,,,,,,white,cross
0.0,3.0,0.0,0.0,2.0,2.0,400.6640210282057,1.0,1.0,phase_1,,,,,,,,,,,,,cyan,triangle
1286.0,8.0,4.0,1.0,4.0,4.0,409.6277179778553,1.0,1.0,phase_1,,,,,,,,,,,,,blue,hexagon
0.0,8.0,0.0,1.0,1.0,1.0,401.6753369942307,1.0,1.0,phase_1,,,,,,,,,,,,,blue,hexagon
158.0,1.0,0.5,0.0,2.0,2.0,382.406915014144,1.0,1.0,phase_1,,,,,,,,,,,,,white,cross
0.0,2.0,0.0,0.0,1.0,1.0,326.148190011736,1.0,1.0,phase_1,,,,,,,,,,,,,orange,diamond
183.0,1.0,0.5,0.0,3.0,3.0,307.5528279878199,1.0,1.0,phase_1,,,,,,,,,,,,,white,cross
662.0,3.0,2.0,0.0,4.0,4.0,382.3915090179071,1.0,1.0,phase_1,,,,,,,,,,,,,cyan,triangle
0.0,6.0,0.0,1.0,3.0,3.0,242.9623560165055,1.0,1.0,phase_1,,,,,,,,,,,,,yellow,square
1320.0,4.0,4.0,0.0,2.0,2.0,354.3092219624668,1.0,1.0,phase_1,,,,,,,,,,,,,gray,flipped triangle
0.0,5.0,0.0,1.0,1.0,1.0,334.8701900104061,1.0,1.0,phase_1,,,,,,,,,,,,,green,circle
341.0,2.0,1.0,0.0,1.0,1.0,354.2724960134364,1.0,1.0,phase_1,,,,,,,,,,,,,orange,diamond
650.0,3.0,2.0,0.0,1.0,1.0,260.6858719955198,1.0,1.0,phase_1,,,,,,,,,,,,,cyan,triangle
1302.0,8.0,4.0,1.0,3.0,3.0,315.9907850204035,1.0,1.0,phase_1,,,,,,,,,,,,,blue,hexagon
0.0,7.0,0.0,1.0,2.0,2.0,279.2447000392712,1.0,1.0,phase_1,,,,,,,,,,,,,magenta,I
170.0,5.0,0.5,1.0,1.0,1.0,316.86218600953,1.0,1.0,phase_1,,,,,,,,,,,,,green,circle
664.0,3.0,2.0,0.0,2.0,2.0,242.9774189949967,1.0,1.0,phase_1,,,,,,,,,,,,,cyan,triangle
1284.0,8.0,4.0,1.0,1.0,1.0,289.7110219928436,1.0,1.0,phase_1,,,,,,,,,,,,,blue,hexagon
178.0,1.0,0.5,0.0,1.0,1.0,373.0286079808138,1.0,1.0,phase_1,,,,,,,,,,,,,white,cross
1276.0,8.0,4.0,1.0,1.0,1.0,337.0503630139865,1.0,1.0,phase_1,,,,,,,,,,,,,blue,hexagon
0.0,2.0,0.0,0.0,3.0,3.0,355.228757020086,1.0,1.0,phase_1,,,,,,,,,,,,,orange,diamond
0.0,5.0,0.0,1.0,2.0,2.0,456.6232240176759,1.0,1.0,phase_1,,,,,,,,,,,,,green,circle
0.0,5.0,0.0,1.0,1.0,1.0,578.0644440092146,1.0,1.0,phase_1,,,,,,,,,,,,,green,circle
656.0,3.0,2.0,0.0,2.0,2.0,466.8811470037326,1.0,1.0,phase_1,,,,,,,,,,,,,cyan,triangle
1283.0,4.0,4.0,0.0,1.0,1.0,400.9680810268037,1.0,1.0,phase_1,,,,,,,,,,,,,gray,flipped triangle
323.0,2.0,1.0,0.0,2.0,2.0,474.972000985872,1.0,1.0,phase_1,,,,,,,,,,,,,orange,diamond
664.0,7.0,2.0,1.0,4.0,4.0,279.8161899554543,1.0,1.0,phase_1,,,,,,,,,,,,,magenta,I
627.0,3.0,2.0,0.0,3.0,3.0,336.2417059834115,1.0,1.0,phase_1,,,,,,,,,,,,,cyan,triangle
668.0,3.0,2.0,0.0,2.0,2.0,308.6285939789377,1.0,1.0,phase_1,,,,,,,,,,,,,cyan,triangle
656.0,7.0,2.0,1.0,1.0,1.0,300.4915660130791,1.0,1.0,phase_1,,,,,,,,,,,,,magenta,I
0.0,2.0,0.0,0.0,3.0,3.0,281.6443160409108,1.0,1.0,phase_1,,,,,,,,,,,,,orange,diamond
169.0,1.0,0.5,0.0,4.0,4.0,335.7708639814518,1.0,1.0,phase_1,,,,,,,,,,,,,white,cross
633.0,3.0,2.0,0.0,2.0,2.0,280.5980850243941,1.0,1.0,phase_1,,,,,,,,,,,,,cyan,triangle
1290.0,8.0,4.0,1.0,4.0,4.0,391.1108020110987,1.0,1.0,phase_1,,,,,,,,,,,,,blue,hexagon
343.0,6.0,1.0,1.0,2.0,2.0,289.2477089772001,1.0,1.0,phase_1,,,,,,,,,,,,,yellow,square
1318.0,4.0,4.0,0.0,4.0,4.0,316.9223410077393,1.0,1.0,phase_1,,,,,,,,,,,,,gray,flipped triangle
0.0,3.0,0.0,0.0,3.0,3.0,279.8817770089954,1.0,1.0,phase_1,,,,,,,,,,,,,cyan,triangle
341.0,6.0,1.0,1.0,2.0,2.0,307.8625199850648,1.0,1.0,phase_1,,,,,,,,,,,,,yellow,square
1300.0,8.0,4.0,1.0,4.0,4.0,252.5408979854546,1.0,1.0,phase_1,,,,,,,,,,,,,blue,hexagon
140.0,1.0,0.5,0.0,4.0,4.0,374.0757619962096,1.0,1.0,phase_1,,,,,,,,,,,,,white,cross
656.0,7.0,2.0,1.0,1.0,1.0,308.2898469874635,1.0,1.0,phase_1,,,,,,,,,,,,,magenta,I
0.0,6.0,0.0,1.0,1.0,1.0,317.7468249923549,1.0,1.0,phase_1,,,,,,,,,,,,,yellow,square
180.0,1.0,0.5,0.0,2.0,2.0,345.4952639876865,1.0,1.0,phase_1,,,,,,,,,,,,,white,cross
1316.0,4.0,4.0,0.0,1.0,1.0,419.1442009760067,1.0,1.0,phase_1,,,,,,,,,,,,,gray,flipped triangle
656.0,3.0,2.0,0.0,4.0,4.0,289.834847964812,1.0,1.0,phase_1,,,,,,,,,,,,,cyan,triangle
155.0,5.0,0.5,1.0,4.0,4.0,354.1076030232943,1.0,1.0,phase_1,,,,,,,,,,,,,green,circle
0.0,7.0,0.0,1.0,2.0,2.0,269.9797039967961,1.0,1.0,phase_1,,,,,,,,,,,,,magenta,I
309.0,6.0,1.0,1.0,4.0,4.0,261.5071510081179,1.0,1.0,phase_1,,,,,,,,,,,,,yellow,square
333.0,6.0,1.0,1.0,2.0,2.0,315.7747979857959,1.0,1.0,phase_1,,,,,,,,,,,,,yellow,square
311.0,6.0,1.0,1.0,3.0,3.0,297.6372680277563,1.0,1.0,phase_1,,,,,,,,,,,,,yellow,square
639.0,3.0,2.0,0.0,4.0,4.0,279.3778809718787,1.0,1.0,phase_1,,,,,,,,,,,,,cyan,triangle
340.0,2.0,1.0,0.0,4.0,4.0,335.1693479926325,1.0,1.0,phase_1,,,,,,,,,,,,,orange,diamond
0.0,8.0,0.0,1.0,1.0,1.0,383.4840210038237,1.0,2.0,phase_1,,,,,,,,,,,,,blue,hexagon
332.0,2.0,1.0,0.0,3.0,3.0,307.8509510378353,1.0,1.0,phase_1,,,,,,,,,,,,,orange,diamond
0.0,4.0,0.0,0.0,4.0,4.0,400.8369880029931,1.0,1.0,phase_1,,,,,,,,,,,,,gray,flipped triangle
327.0,6.0,1.0,1.0,2.0,2.0,346.3986580027267,1.0,1.0,phase_1,,,,,,,,,,,,,yellow,square
327.0,2.0,1.0,0.0,2.0,2.0,317.2997240326367,1.0,1.0,phase_1,,,,,,,,,,,,,orange,diamond
631.0,3.0,2.0,0.0,4.0,4.0,299.7679359978065,1.0,1.0,phase_1,,,,,,,,,,,,,cyan,triangle
319.0,6.0,1.0,1.0,3.0,3.0,336.0979639692232,1.0,1.0,phase_1,,,,,,,,,,,,,yellow,square
0.0,8.0,0.0,1.0,2.0,2.0,328.5076129832305,1.0,1.0,phase_1,,,,,,,,,,,,,blue,hexagon
1307.0,4.0,4.0,0.0,4.0,4.0,270.6716330139898,1.0,1.0,phase_1,,,,,,,,,,,,,gray,flipped triangle
629.0,3.0,2.0,0.0,3.0,3.0,299.1697670076974,1.0,1.0,phase_1,,,,,,,,,,,,,cyan,triangle
0.0,5.0,0.0,1.0,1.0,1.0,290.3476460487582,1.0,1.0,phase_1,,,,,,,,,,,,,green,circle
167.0,5.0,0.5,1.0,3.0,3.0,262.2505230247043,1.0,1.0,phase_1,,,,,,,,,,,,,green,circle
167.0,1.0,0.5,0.0,4.0,4.0,308.6081169894896,1.0,1.0,phase_1,,,,,,,,,,,,,white,cross
300.0,6.0,1.0,1.0,4.0,4.0,355.9782080119475,1.0,1.0,phase_1,,,,,,,,,,,,,yellow,square
649.0,3.0,2.0,0.0,1.0,1.0,346.5443939785473,1.0,2.0,phase_1,,,,,,,,,,,,,cyan,triangle
0.0,1.0,0.0,0.0,4.0,4.0,327.6101759984158,1.0,1.0,phase_1,,,,,,,,,,,,,white,cross
1302.0,4.0,4.0,0.0,3.0,3.0,308.6312739760615,1.0,1.0,phase_1,,,,,,,,,,,,,gray,flipped triangle
639.0,7.0,2.0,1.0,2.0,2.0,299.0636850008741,1.0,1.0,phase_1,,,,,,,,,,,,,magenta,I
1324.0,8.0,4.0,1.0,3.0,3.0,393.1764180306345,1.0,1.0,phase_1,,,,,,,,,,,,,blue,hexagon
327.0,2.0,1.0,0.0,3.0,3.0,363.5392999858595,1.0,1.0,phase_1,,,,,,,,,,,,,orange,diamond
164.0,1.0,0.5,0.0,2.0,2.0,401.100151007995,1.0,1.0,phase_1,,,,,,,,,,,,,white,cross
158.0,5.0,0.5,1.0,1.0,1.0,391.704948968254,1.0,1.0,phase_1,,,,,,,,,,,,,green,circle
319.0,2.0,1.0,0.0,4.0,4.0,298.48668701015407,1.0,1.0,phase_1,,,,,,,,,,,,,orange,diamond
317.0,6.0,1.0,1.0,4.0,4.0,373.3897490310482,1.0,2.0,phase_1,,,,,,,,,,,,,yellow,square
637.0,3.0,2.0,0.0,1.0,1.0,568.8191049848683,1.0,1.0,phase_1,,,,,,,,,,,,,cyan,triangle
0.0,7.0,0.0,1.0,3.0,3.0,326.5555799589492,1.0,1.0,phase_1,,,,,,,,,,,,,magenta,I
139.0,5.0,0.5,1.0,3.0,3.0,336.0829169978387,1.0,1.0,phase_1,,,,,,,,,,,,,green,circle
341.0,6.0,1.0,1.0,4.0,4.0,411.4533530082553,1.0,1.0,phase_1,,,,,,,,,,,,,yellow,square
1306.0,4.0,4.0,0.0,1.0,1.0,383.0728339962661,1.0,1.0,phase_1,,,,,,,,,,,,,gray,flipped triangle
661.0,3.0,2.0,0.0,2.0,2.0,540.6800030032173,1.0,1.0,phase_1,,,,,,,,,,,,,cyan,triangle
633.0,7.0,2.0,1.0,4.0,4.0,318.8942200504243,1.0,1.0,phase_1,,,,,,,,,,,,,magenta,I
1298.0,8.0,4.0,1.0,2.0,2.0,326.484665973112,1.0,1.0,phase_1,,,,,,,,,,,,,blue,hexagon
670.0,7.0,2.0,1.0,4.0,4.0,364.1452220035717,1.0,1.0,phase_1,,,,,,,,,,,,,magenta,I
152.0,5.0,0.5,1.0,2.0,2.0,411.1272899899632,1.0,1.0,phase_1,,,,,,,,,,,,,green,circle
1314.0,8.0,4.0,1.0,3.0,3.0,372.688595962245,1.0,1.0,phase_1,,,,,,,,,,,,,blue,hexagon
1297.0,4.0,4.0,0.0,3.0,3.0,354.42598501686,1.0,1.0,phase_1,,,,,,,,,,,,,gray,flipped triangle
668.0,7.0,2.0,1.0,4.0,4.0,374.9055429943837,1.0,1.0,phase_1,,,,,,,,,,,,,magenta,I
0.0,7.0,0.0,1.0,1.0,1.0,663.390617002733,1.0,1.0,phase_1,,,,,,,,,,,,,magenta,I
643.0,3.0,2.0,0.0,2.0,2.0,598.5349920229055,1.0,1.0,phase_1,,,,,,,,,,,,,cyan,triangle
304.0,6.0,1.0,1.0,4.0,4.0,459.468149987515,1.0,1.0,phase_1,,,,,,,,,,,,,yellow,square
1286.0,4.0,4.0,0.0,3.0,3.0,410.6579720391892,1.0,1.0,phase_1,,,,,,,,,,,,,gray,flipped triangle
673.0,7.0,2.0,1.0,4.0,4.0,410.7716630096547,1.0,1.0,phase_1,,,,,,,,,,,,,magenta,I
653.0,7.0,2.0,1.0,4.0,4.0,402.2304369718767,1.0,1.0,phase_1,,,,,,,,,,,,,magenta,I
668.0,7.0,2.0,1.0,3.0,3.0,447.3048090003431,2.0,1.0,phase_1,,,,,,,,,,,,,magenta,I
0.0,7.0,0.0,1.0,1.0,1.0,355.9712580172345,2.0,1.0,phase_1,,,,,,,,,,,,,magenta,I
0.0,6.0,0.0,1.0,1.0,1.0,439.0150039689615,2.0,1.0,phase_1,,,,,,,,,,,,,yellow,square
0.0,3.0,0.0,0.0,3.0,3.0,326.621473999694,2.0,1.0,phase_1,,,,,,,,,,,,,cyan,triangle
648.0,7.0,2.0,1.0,2.0,2.0,502.90178903378546,2.0,1.0,phase_1,,,,,,,,,,,,,magenta,I
168.0,5.0,0.5,1.0,2.0,2.0,336.088680953253,2.0,1.0,phase_1,,,,,,,,,,,,,green,circle
307.0,6.0,1.0,1.0,2.0,2.0,279.348456999287,2.0,1.0,phase_1,,,,,,,,,,,,,yellow,square
0.0,5.0,0.0,1.0,4.0,4.0,400.9054480120539,2.0,1.0,phase_1,,,,,,,,,,,,,green,circle
159.0,5.0,0.5,1.0,2.0,2.0,279.9663000041619,2.0,1.0,phase_1,,,,,,,,,,,,,green,circle
649.0,7.0,2.0,1.0,2.0,2.0,334.9119779886678,2.0,1.0,phase_1,,,,,,,,,,,,,magenta,I
0.0,3.0,0.0,0.0,3.0,3.0,354.2976159951649,2.0,1.0,phase_1,,,,,,,,,,,,,cyan,triangle
345.0,6.0,1.0,1.0,2.0,2.0,362.9755990114063,2.0,1.0,phase_1,,,,,,,,,,,,,yellow,square
641.0,3.0,2.0,0.0,4.0,4.0,354.2218470247462,2.0,1.0,phase_1,,,,,,,,,,,,,cyan,triangle
317.0,6.0,1.0,1.0,4.0,4.0,421.2781310197897,2.0,1.0,phase_1,,,,,,,,,,,,,yellow,square
140.0,5.0,0.5,1.0,4.0,4.0,428.1764919869602,2.0,1.0,phase_1,,,,,,,,,,,,,green,circle
670.0,3.0,2.0,0.0,2.0,2.0,325.73579903692,2.0,1.0,phase_1,,,,,,,,,,,,,cyan,triangle
0.0,4.0,0.0,0.0,4.0,4.0,437.9585449933074,2.0,1.0,phase_1,,,,,,,,,,,,,gray,flipped triangle
1289.0,8.0,4.0,1.0,4.0,4.0,343.9155460218899,2.0,1.0,phase_1,,,,,,,,,,,,,blue,hexagon
152.0,1.0,0.5,0.0,1.0,1.0,383.6977559840306,2.0,2.0,phase_1,,,,,,,,,,,,,white,cross
183.0,5.0,0.5,1.0,4.0,4.0,402.0154179888777,2.0,1.0,phase_1,,,,,,,,,,,,,green,circle
312.0,6.0,1.0,1.0,1.0,1.0,478.308928955812,2.0,1.0,phase_1,,,,,,,,,,,,,yellow,square
170.0,1.0,0.5,0.0,2.0,2.0,484.5854890299961,2.0,1.0,phase_1,,,,,,,,,,,,,white,cross
167.0,5.0,0.5,1.0,2.0,2.0,410.8112070243805,2.0,1.0,phase_1,,,,,,,,,,,,,green,circle
1313.0,4.0,4.0,0.0,2.0,2.0,438.4392359643243,2.0,1.0,phase_1,,,,,,,,,,,,,gray,flipped triangle
640.0,7.0,2.0,1.0,3.0,3.0,402.0219800295308,2.0,1.0,phase_1,,,,,,,,,,,,,magenta,I
180.0,5.0,0.5,1.0,3.0,3.0,364.1671389923431,2.0,1.0,phase_1,,,,,,,,,,,,,green,circle
1324.0,4.0,4.0,0.0,2.0,2.0,356.5406579873524,2.0,1.0,phase_1,,,,,,,,,,,,,gray,flipped triangle
0.0,6.0,0.0,1.0,4.0,4.0,355.1630129804835,2.0,1.0,phase_1,,,,,,,,,,,,,yellow,square
333.0,2.0,1.0,0.0,4.0,4.0,438.4408160112798,2.0,1.0,phase_1,,,,,,,,,,,,,orange,diamond
302.0,2.0,1.0,0.0,2.0,2.0,319.594717992004,2.0,1.0,phase_1,,,,,,,,,,,,,orange,diamond
162.0,5.0,0.5,1.0,4.0,4.0,344.9915480450727,2.0,1.0,phase_1,,,,,,,,,,,,,green,circle
0.0,7.0,0.0,1.0,1.0,1.0,635.2477669715881,2.0,1.0,phase_1,,,,,,,,,,,,,magenta,I
642.0,7.0,2.0,1.0,1.0,1.0,608.1691330182366,2.0,1.0,phase_1,,,,,,,,,,,,,magenta,I
1300.0,4.0,4.0,0.0,4.0,4.0,345.4384329961613,2.0,1.0,phase_1,,,,,,,,,,,,,gray,flipped triangle
168.0,1.0,0.5,0.0,3.0,3.0,401.8689479562454,2.0,1.0,phase_1,,,,,,,,,,,,,white,cross
642.0,3.0,2.0,0.0,4.0,4.0,401.8239120487124,2.0,1.0,phase_1,,,,,,,,,,,,,cyan,triangle
153.0,1.0,0.5,0.0,1.0,1.0,543.0017859907821,2.0,1.0,phase_1,,,,,,,,,,,,,white,cross
649.0,7.0,2.0,1.0,3.0,3.0,364.5330910221673,2.0,1.0,phase_1,,,,,,,,,,,,,magenta,I
348.0,6.0,1.0,1.0,3.0,3.0,373.4159909654408,2.0,1.0,phase_1,,,,,,,,,,,,,yellow,square
1294.0,4.0,4.0,0.0,3.0,3.0,419.7513330145739,2.0,1.0,phase_1,,,,,,,,,,,,,gray,flipped triangle
143.0,1.0,0.5,0.0,4.0,4.0,346.218604943715,2.0,1.0,phase_1,,,,,,,,,,,,,white,cross
327.0,6.0,1.0,1.0,1.0,1.0,391.7758649913594,2.0,1.0,phase_1,,,,,,,,,,,,,yellow,square
1289.0,4.0,4.0,0.0,1.0,1.0,391.8779679806903,2.0,1.0,phase_1,,,,,,,,,,,,,gray,flipped triangle
139.0,5.0,0.5,1.0,3.0,3.0,363.1667669978924,2.0,1.0,phase_1,,,,,,,,,,,,,green,circle
634.0,7.0,2.0,1.0,2.0,2.0,437.9419010365382,2.0,1.0,phase_1,,,,,,,,,,,,,magenta,I
0.0,2.0,0.0,0.0,3.0,3.0,354.5187429990619,2.0,1.0,phase_1,,,,,,,,,,,,,orange,diamond
0.0,3.0,0.0,0.0,2.0,2.0,484.5625560265034,2.0,1.0,phase_1,,,,,,,,,,,,,cyan,triangle
304.0,2.0,1.0,0.0,1.0,1.0,439.6422759746201,2.0,1.0,phase_1,,,,,,,,,,,,,orange,diamond
176.0,1.0,0.5,0.0,3.0,3.0,457.7335030189715,2.0,1.0,phase_1,,,,,,,,,,,,,white,cross
315.0,2.0,1.0,0.0,1.0,1.0,326.4367170049809,2.0,1.0,phase_1,,,,,,,,,,,,,orange,diamond
150.0,5.0,0.5,1.0,4.0,4.0,391.3919589831494,2.0,2.0,phase_1,,,,,,,,,,,,,green,circle
0.0,6.0,0.0,1.0,2.0,2.0,383.0296300002374,2.0,1.0,phase_1,,,,,,,,,,,,,yellow,square
326.0,2.0,1.0,0.0,4.0,4.0,336.2647860194556,2.0,1.0,phase_1,,,,,,,,,,,,,orange,diamond
668.0,3.0,2.0,0.0,1.0,1.0,390.9690449945628,2.0,1.0,phase_1,,,,,,,,,,,,,cyan,triangle
160.0,1.0,0.5,0.0,3.0,3.0,343.8767039915547,2.0,1.0,phase_1,,,,,,,,,,,,,white,cross
0.0,3.0,0.0,0.0,1.0,1.0,466.8773810262792,2.0,1.0,phase_1,,,,,,,,,,,,,cyan,triangle
165.0,5.0,0.5,1.0,1.0,1.0,494.7107500047423,2.0,1.0,phase_1,,,,,,,,,,,,,green,circle
317.0,2.0,1.0,0.0,4.0,4.0,429.2539890157059,2.0,1.0,phase_1,,,,,,,,,,,,,orange,diamond
659.0,3.0,2.0,0.0,4.0,4.0,400.3325730445795,2.0,1.0,phase_1,,,,,,,,,,,,,cyan,triangle
147.0,5.0,0.5,1.0,1.0,1.0,420.936754962895,2.0,2.0,phase_1,,,,,,,,,,,,,green,circle
626.0,7.0,2.0,1.0,1.0,1.0,429.1469399468042,2.0,1.0,phase_1,,,,,,,,,,,,,magenta,I
317.0,6.0,1.0,1.0,1.0,1.0,428.6650239955634,2.0,1.0,phase_1,,,,,,,,,,,,,yellow,square
0.0,7.0,0.0,1.0,4.0,4.0,439.5396850304678,2.0,1.0,phase_1,,,,,,,,,,,,,magenta,I
317.0,2.0,1.0,0.0,2.0,2.0,484.8129340098239,2.0,1.0,phase_1,,,,,,,,,,,,,orange,diamond
166.0,5.0,0.5,1.0,1.0,1.0,494.1269379924051,2.0,1.0,phase_1,,,,,,,,,,,,,green,circle
626.0,3.0,2.0,0.0,4.0,4.0,429.4566140160896,2.0,1.0,phase_1,,,,,,,,,,,,,cyan,triangle
663.0,7.0,2.0,1.0,3.0,3.0,409.7919310443103,2.0,1.0,phase_1,,,,,,,,,,,,,magenta,I
162.0,5.0,0.5,1.0,1.0,1.0,382.2337780147791,2.0,1.0,phase_1,,,,,,,,,,,,,green,circle
672.0,3.0,2.0,0.0,2.0,2.0,503.34505597129464,2.0,1.0,phase_1,,,,,,,,,,,,,cyan,triangle
147.0,5.0,0.5,1.0,4.0,4.0,430.5330239585601,2.0,1.0,phase_1,,,,,,,,,,,,,green,circle
1278.0,4.0,4.0,0.0,2.0,2.0,355.2988140145316,2.0,1.0,phase_1,,,,,,,,,,,,,gray,flipped triangle
659.0,7.0,2.0,1.0,2.0,2.0,438.2282829610631,2.0,1.0,phase_1,,,,,,,,,,,,,magenta,I
176.0,5.0,0.5,1.0,2.0,2.0,402.1758959861472,2.0,1.0,phase_1,,,,,,,,,,,,,green,circle
185.0,5.0,0.5,1.0,1.0,1.0,521.5813179966062,2.0,1.0,phase_1,,,,,,,,,,,,,green,circle
1283.0,8.0,4.0,1.0,2.0,2.0,421.1310370010324,2.0,1.0,phase_1,,,,,,,,,,,,,blue,hexagon
1278.0,4.0,4.0,0.0,4.0,4.0,438.1717860233038,2.0,1.0,phase_1,,,,,,,,,,,,,gray,flipped triangle
1294.0,8.0,4.0,1.0,2.0,2.0,336.354814004153,2.0,1.0,phase_1,,,,,,,,,,,,,blue,hexagon
0.0,8.0,0.0,1.0,4.0,4.0,400.4742439719848,2.0,1.0,phase_1,,,,,,,,,,,,,blue,hexagon
143.0,5.0,0.5,1.0,2.0,2.0,335.599958023522,2.0,1.0,phase_1,,,,,,,,,,,,,green,circle
0.0,2.0,0.0,0.0,3.0,3.0,484.9278290057555,2.0,1.0,phase_1,,,,,,,,,,,,,orange,diamond
1279.0,8.0,4.0,1.0,3.0,3.0,401.8155829980969,2.0,1.0,phase_1,,,,,,,,,,,,,blue,hexagon
323.0,2.0,1.0,0.0,4.0,4.0,325.7586890249513,2.0,1.0,phase_1,,,,,,,,,,,,,orange,diamond
1290.0,8.0,4.0,1.0,3.0,3.0,345.7116899662651,2.0,1.0,phase_1,,,,,,,,,,,,,blue,hexagon
0.0,5.0,0.0,1.0,4.0,4.0,427.5024959933944,2.0,1.0,phase_1,,,,,,,,,,,,,green,circle
174.0,1.0,0.5,0.0,1.0,1.0,474.113512027543,2.0,1.0,phase_1,,,,,,,,,,,,,white,cross
649.0,7.0,2.0,1.0,3.0,3.0,373.5254149651155,2.0,1.0,phase_1,,,,,,,,,,,,,magenta,I
1300.0,8.0,4.0,1.0,4.0,4.0,354.466577002313,2.0,1.0,phase_1,,,,,,,,,,,,,blue,hexagon
1290.0,4.0,4.0,0.0,1.0,1.0,772.7829669602215,2.0,1.0,phase_1,,,,,,,,,,,,,gray,flipped triangle
0.0,1.0,0.0,0.0,1.0,1.0,457.6324590016156,2.0,1.0,phase_1,,,,,,,,,,,,,white,cross
628.0,3.0,2.0,0.0,1.0,1.0,364.4655969692394,2.0,1.0,phase_1,,,,,,,,,,,,,cyan,triangle
307.0,2.0,1.0,0.0,1.0,1.0,585.6591659830883,2.0,1.0,phase_1,,,,,,,,,,,,,orange,diamond
1294.0,4.0,4.0,0.0,3.0,3.0,401.7988699488342,2.0,1.0,phase_1,,,,,,,,,,,,,gray,flipped triangle
327.0,2.0,1.0,0.0,3.0,3.0,392.0734249986708,2.0,1.0,phase_1,,,,,,,,,,,,,orange,diamond
153.0,5.0,0.5,1.0,2.0,2.0,363.7728030444123,2.0,1.0,phase_1,,,,,,,,,,,,,green,circle
0.0,1.0,0.0,0.0,3.0,3.0,353.6517570028081,2.0,1.0,phase_1,,,,,,,,,,,,,white,cross
1316.0,8.0,4.0,1.0,3.0,3.0,349.2099169525318,2.0,1.0,phase_1,,,,,,,,,,,,,blue,hexagon
661.0,7.0,2.0,1.0,4.0,4.0,529.7154129948467,2.0,1.0,phase_1,,,,,,,,,,,,,magenta,I
1316.0,8.0,4.0,1.0,2.0,2.0,549.6296870405786,2.0,1.0,phase_1,,,,,,,,,,,,,blue,hexagon
0.0,3.0,0.0,0.0,2.0,2.0,500.85471401689574,2.0,1.0,phase_1,,,,,,,,,,,,,cyan,triangle
315.0,6.0,1.0,1.0,3.0,3.0,307.1267560007982,2.0,1.0,phase_1,,,,,,,,,,,,,yellow,square
165.0,1.0,0.5,0.0,4.0,4.0,513.6211000499316,3.0,1.0,phase_1,,,,,,,,,,,,,white,cross
141.0,5.0,0.5,1.0,2.0,2.0,466.5367219713516,3.0,1.0,phase_1,,,,,,,,,,,,,green,circle
0.0,4.0,0.0,0.0,3.0,3.0,383.0514650326222,3.0,1.0,phase_1,,,,,,,,,,,,,gray,flipped triangle
150.0,1.0,0.5,0.0,2.0,2.0,438.3101440034807,3.0,1.0,phase_1,,,,,,,,,,,,,white,cross
1325.0,4.0,4.0,0.0,4.0,4.0,438.6118089896627,3.0,1.0,phase_1,,,,,,,,,,,,,gray,flipped triangle
649.0,3.0,2.0,0.0,4.0,4.0,410.7573860092088,3.0,1.0,phase_1,,,,,,,,,,,,,cyan,triangle
670.0,7.0,2.0,1.0,2.0,2.0,316.6420120396651,3.0,1.0,phase_1,,,,,,,,,,,,,magenta,I
642.0,7.0,2.0,1.0,4.0,4.0,335.452681989409,3.0,1.0,phase_1,,,,,,,,,,,,,magenta,I
672.0,7.0,2.0,1.0,2.0,2.0,326.162445009686,3.0,1.0,phase_1,,,,,,,,,,,,,magenta,I
664.0,3.0,2.0,0.0,3.0,3.0,484.2193910153582,3.0,1.0,phase_1,,,,,,,,,,,,,cyan,triangle
156.0,5.0,0.5,1.0,3.0,3.0,429.5790230389684,3.0,1.0,phase_1,,,,,,,,,,,,,green,circle
653.0,3.0,2.0,0.0,1.0,1.0,466.4685159805231,3.0,1.0,phase_1,,,,,,,,,,,,,cyan,triangle
1317.0,8.0,4.0,1.0,1.0,1.0,374.0019249962643,3.0,1.0,phase_1,,,,,,,,,,,,,blue,hexagon
1321.0,8.0,4.0,1.0,1.0,1.0,401.3912469963543,3.0,1.0,phase_1,,,,,,,,,,,,,blue,hexagon
337.0,2.0,1.0,0.0,2.0,2.0,429.0424979990348,3.0,1.0,phase_1,,,,,,,,,,,,,orange,diamond
316.0,2.0,1.0,0.0,1.0,1.0,568.202120019123,3.0,1.0,phase_1,,,,,,,,,,,,,orange,diamond
1297.0,8.0,4.0,1.0,3.0,3.0,457.0944070001133,3.0,1.0,phase_1,,,,,,,,,,,,,blue,hexagon
1279.0,4.0,4.0,0.0,3.0,3.0,402.1251210360788,3.0,1.0,phase_1,,,,,,,,,,,,,gray,flipped triangle
0.0,1.0,0.0,0.0,3.0,3.0,374.6179080335423,3.0,1.0,phase_1,,,,,,,,,,,,,white,cross
1283.0,8.0,4.0,1.0,4.0,4.0,484.8619879921898,3.0,1.0,phase_1,,,,,,,,,,,,,blue,hexagon
0.0,2.0,0.0,0.0,1.0,1.0,485.1596869993955,3.0,1.0,phase_1,,,,,,,,,,,,,orange,diamond
166.0,1.0,0.5,0.0,4.0,4.0,474.659034051001,3.0,1.0,phase_1,,,,,,,,,,,,,white,cross
1282.0,8.0,4.0,1.0,4.0,4.0,550.5424799630418,3.0,1.0,phase_1,,,,,,,,,,,,,blue,hexagon
1325.0,8.0,4.0,1.0,2.0,2.0,550.5554369883612,3.0,1.0,phase_1,,,,,,,,,,,,,blue,hexagon
1316.0,4.0,4.0,0.0,2.0,2.0,363.5709449881688,3.0,1.0,phase_1,,,,,,,,,,,,,gray,flipped triangle
0.0,4.0,0.0,0.0,2.0,2.0,372.7750449907034,3.0,1.0,phase_1,,,,,,,,,,,,,gray,flipped triangle
143.0,1.0,0.5,0.0,2.0,2.0,354.1209700051695,3.0,1.0,phase_1,,,,,,,,,,,,,white,cross
332.0,6.0,1.0,1.0,1.0,1.0,531.5763350226916,3.0,1.0,phase_1,,,,,,,,,,,,,yellow,square
0.0,8.0,0.0,1.0,1.0,1.0,336.28923899959767,3.0,1.0,phase_1,,,,,,,,,,,,,blue,hexagon
1300.0,8.0,4.0,1.0,4.0,4.0,530.7075289892964,3.0,1.0,phase_1,,,,,,,,,,,,,blue,hexagon
1294.0,8.0,4.0,1.0,3.0,3.0,391.866507998202,3.0,1.0,phase_1,,,,,,,,,,,,,blue,hexagon
162.0,1.0,0.5,0.0,4.0,4.0,513.629861001391,3.0,1.0,phase_1,,,,,,,,,,,,,white,cross
0.0,5.0,0.0,1.0,3.0,3.0,345.7031699945219,3.0,1.0,phase_1,,,,,,,,,,,,,green,circle
653.0,7.0,2.0,1.0,3.0,3.0,344.3502960144542,3.0,1.0,phase_1,,,,,,,,,,,,,magenta,I
1298.0,8.0,4.0,1.0,1.0,1.0,362.5530509743839,3.0,1.0,phase_1,,,,,,,,,,,,,blue,hexagon
161.0,1.0,0.5,0.0,3.0,3.0,345.3842220478691,3.0,1.0,phase_1,,,,,,,,,,,,,white,cross
0.0,5.0,0.0,1.0,1.0,1.0,495.1425209874287,3.0,1.0,phase_1,,,,,,,,,,,,,green,circle
1316.0,8.0,4.0,1.0,3.0,3.0,410.1420149672776,3.0,1.0,phase_1,,,,,,,,,,,,,blue,hexagon
643.0,7.0,2.0,1.0,2.0,2.0,503.18610901013017,3.0,1.0,phase_1,,,,,,,,,,,,,magenta,I
174.0,5.0,0.5,1.0,3.0,3.0,337.0401930296793,3.0,1.0,phase_1,,,,,,,,,,,,,green,circle
337.0,6.0,1.0,1.0,4.0,4.0,494.6337830042466,3.0,1.0,phase_1,,,,,,,,,,,,,yellow,square
316.0,6.0,1.0,1.0,3.0,3.0,326.6845699981786,3.0,1.0,phase_1,,,,,,,,,,,,,yellow,square
0.0,4.0,0.0,0.0,3.0,3.0,375.9327220031991,3.0,1.0,phase_1,,,,,,,,,,,,,gray,flipped triangle
1307.0,8.0,4.0,1.0,1.0,1.0,558.3931599976495,3.0,1.0,phase_1,,,,,,,,,,,,,blue,hexagon
0.0,2.0,0.0,0.0,3.0,3.0,353.4540199907496,3.0,1.0,phase_1,,,,,,,,,,,,,orange,diamond
0.0,2.0,0.0,0.0,2.0,2.0,457.3842660174705,3.0,1.0,phase_1,,,,,,,,,,,,,orange,diamond
310.0,2.0,1.0,0.0,4.0,4.0,373.5427359933965,3.0,1.0,phase_1,,,,,,,,,,,,,orange,diamond
176.0,1.0,0.5,0.0,2.0,2.0,475.9878399781883,3.0,1.0,phase_1,,,,,,,,,,,,,white,cross
349.0,6.0,1.0,1.0,1.0,1.0,447.6744310231879,3.0,1.0,phase_1,,,,,,,,,,,,,yellow,square
1307.0,4.0,4.0,0.0,3.0,3.0,429.8063470050692,3.0,1.0,phase_1,,,,,,,,,,,,,gray,flipped triangle
349.0,2.0,1.0,0.0,2.0,2.0,446.7282549594529,3.0,1.0,phase_1,,,,,,,,,,,,,orange,diamond
1315.0,8.0,4.0,1.0,2.0,2.0,362.7308320137672,3.0,1.0,phase_1,,,,,,,,,,,,,blue,hexagon
335.0,6.0,1.0,1.0,2.0,2.0,345.9942800109274,3.0,1.0,phase_1,,,,,,,,,,,,,yellow,square
0.0,4.0,0.0,0.0,4.0,4.0,437.6582049881108,3.0,1.0,phase_1,,,,,,,,,,,,,gray,flipped triangle
1294.0,4.0,4.0,0.0,4.0,4.0,494.726039993111,3.0,1.0,phase_1,,,,,,,,,,,,,gray,flipped triangle
323.0,2.0,1.0,0.0,3.0,3.0,333.7707699974999,3.0,1.0,phase_1,,,,,,,,,,,,,orange,diamond
662.0,7.0,2.0,1.0,4.0,4.0,409.0382809517905,3.0,1.0,phase_1,,,,,,,,,,,,,magenta,I
179.0,1.0,0.5,0.0,3.0,3.0,334.5363199478015,3.0,1.0,phase_1,,,,,,,,,,,,,white,cross
170.0,5.0,0.5,1.0,3.0,3.0,362.1743150288239,3.0,1.0,phase_1,,,,,,,,,,,,,green,circle
0.0,4.0,0.0,0.0,4.0,4.0,398.9033980178647,3.0,1.0,phase_1,,,,,,,,,,,,,gray,flipped triangle
674.0,3.0,2.0,0.0,1.0,1.0,504.33673098450527,3.0,1.0,phase_1,,,,,,,,,,,,,cyan,triangle
1315.0,4.0,4.0,0.0,1.0,1.0,476.3263640343211,3.0,1.0,phase_1,,,,,,,,,,,,,gray,flipped triangle
648.0,3.0,2.0,0.0,1.0,1.0,474.4240110157989,3.0,1.0,phase_1,,,,,,,,,,,,,cyan,triangle
323.0,6.0,1.0,1.0,3.0,3.0,428.2539829728193,3.0,1.0,phase_1,,,,,,,,,,,,,yellow,square
0.0,6.0,0.0,1.0,1.0,1.0,429.1018269723281,3.0,1.0,phase_1,,,,,,,,,,,,,yellow,square
329.0,6.0,1.0,1.0,2.0,2.0,419.7104920167476,3.0,1.0,phase_1,,,,,,,,,,,,,yellow,square
673.0,3.0,2.0,0.0,3.0,3.0,399.2699649534188,3.0,1.0,phase_1,,,,,,,,,,,,,cyan,triangle
178.0,5.0,0.5,1.0,3.0,3.0,344.4072780548595,3.0,1.0,phase_1,,,,,,,,,,,,,green,circle
0.0,2.0,0.0,0.0,1.0,1.0,343.9640370197594,3.0,1.0,phase_1,,,,,,,,,,,,,orange,diamond
670.0,3.0,2.0,0.0,3.0,3.0,326.0835870169103,3.0,1.0,phase_1,,,,,,,,,,,,,cyan,triangle
631.0,7.0,2.0,1.0,1.0,1.0,418.6414629803039,3.0,1.0,phase_1,,,,,,,,,,,,,magenta,I
1294.0,8.0,4.0,1.0,1.0,1.0,398.6968970275484,3.0,1.0,phase_1,,,,,,,,,,,,,blue,hexagon
167.0,1.0,0.5,0.0,2.0,2.0,391.9495129957795,3.0,1.0,phase_1,,,,,,,,,,,,,white,cross
0.0,6.0,0.0,1.0,2.0,2.0,316.6031880537048,3.0,1.0,phase_1,,,,,,,,,,,,,yellow,square
663.0,3.0,2.0,0.0,4.0,4.0,438.3745240047574,3.0,1.0,phase_1,,,,,,,,,,,,,cyan,triangle
634.0,3.0,2.0,0.0,3.0,3.0,354.4771239976398,3.0,1.0,phase_1,,,,,,,,,,,,,cyan,triangle
311.0,2.0,1.0,0.0,4.0,4.0,391.6595419868827,3.0,1.0,phase_1,,,,,,,,,,,,,orange,diamond
330.0,2.0,1.0,0.0,3.0,3.0,335.3097279905341,3.0,1.0,phase_1,,,,,,,,,,,,,orange,diamond
323.0,6.0,1.0,1.0,4.0,4.0,465.6491979840211,3.0,1.0,phase_1,,,,,,,,,,,,,yellow,square
0.0,5.0,0.0,1.0,3.0,3.0,335.1244690129533,3.0,1.0,phase_1,,,,,,,,,,,,,green,circle
0.0,3.0,0.0,0.0,4.0,4.0,353.8359419908374,3.0,1.0,phase_1,,,,,,,,,,,,,cyan,triangle
185.0,1.0,0.5,0.0,4.0,4.0,334.9427730427123,3.0,1.0,phase_1,,,,,,,,,,,,,white,cross
309.0,2.0,1.0,0.0,3.0,3.0,317.2523829853162,3.0,1.0,phase_1,,,,,,,,,,,,,orange,diamond
170.0,1.0,0.5,0.0,3.0,3.0,373.380830977112,3.0,1.0,phase_1,,,,,,,,,,,,,white,cross
1316.0,4.0,4.0,0.0,2.0,2.0,672.3881249781698,3.0,1.0,phase_1,,,,,,,,,,,,,gray,flipped triangle
1298.0,4.0,4.0,0.0,2.0,2.0,474.7402229695581,3.0,1.0,phase_1,,,,,,,,,,,,,gray,flipped triangle
1317.0,4.0,4.0,0.0,2.0,2.0,418.9357400173321,3.0,1.0,phase_1,,,,,,,,,,,,,gray,flipped triangle
0.0,1.0,0.0,0.0,4.0,4.0,335.9586350270547,3.0,1.0,phase_1,,,,,,,,,,,,,white,cross
323.0,6.0,1.0,1.0,1.0,1.0,532.262765977066,3.0,1.0,phase_1,,,,,,,,,,,,,yellow,square
0.0,1.0,0.0,0.0,1.0,1.0,512.158298981376,3.0,1.0,phase_1,,,,,,,,,,,,,white,cross
156.0,1.0,0.5,0.0,3.0,3.0,381.4782190020196,3.0,1.0,phase_1,,,,,,,,,,,,,white,cross
0.0,8.0,0.0,1.0,1.0,1.0,344.5574570214376,3.0,1.0,phase_1,,,,,,,,,,,,,blue,hexagon
161.0,5.0,0.5,1.0,4.0,4.0,512.8705559764057,3.0,1.0,phase_1,,,,,,,,,,,,,green,circle
0.0,8.0,0.0,1.0,4.0,4.0,485.1457200129516,3.0,1.0,phase_1,,,,,,,,,,,,,blue,hexagon
146.0,5.0,0.5,1.0,1.0,1.0,390.6843169825151,3.0,1.0,phase_1,,,,,,,,,,,,,green,circle
0.0,1.0,0.0,0.0,2.0,2.0,447.4188410094939,3.0,1.0,phase_1,,,,,,,,,,,,,white,cross
182.0,5.0,0.5,1.0,4.0,4.0,477.249808027409,3.0,1.0,phase_1,,,,,,,,,,,,,green,circle
1300.0,4.0,4.0,0.0,1.0,1.0,568.9940560259856,3.0,1.0,phase_1,,,,,,,,,,,,,gray,flipped triangle
1287.0,4.0,4.0,0.0,3.0,3.0,466.2750270217657,3.0,1.0,phase_1,,,,,,,,,,,,,gray,flipped triangle
645.0,7.0,2.0,1.0,1.0,1.0,614.9787859758362,3.0,1.0,phase_1,,,,,,,,,,,,,magenta,I
0.0,4.0,0.0,0.0,2.0,2.0,543.4200370218605,4.0,1.0,phase_1,,,,,,,,,,,,,gray,flipped triangle
302.0,6.0,1.0,1.0,4.0,4.0,446.9922060379758,4.0,1.0,phase_1,,,,,,,,,,,,,yellow,square
185.0,1.0,0.5,0.0,3.0,3.0,569.1423050011508,4.0,1.0,phase_1,,,,,,,,,,,,,white,cross
1290.0,4.0,4.0,0.0,1.0,1.0,428.9336720248684,4.0,1.0,phase_1,,,,,,,,,,,,,gray,flipped triangle
141.0,1.0,0.5,0.0,2.0,2.0,410.5991660035215,4.0,1.0,phase_1,,,,,,,,,,,,,white,cross
330.0,6.0,1.0,1.0,1.0,1.0,326.7074599862098,4.0,1.0,phase_1,,,,,,,,,,,,,yellow,square
667.0,3.0,2.0,0.0,3.0,3.0,383.1714889965951,4.0,1.0,phase_1,,,,,,,,,,,,,cyan,triangle
0.0,8.0,0.0,1.0,3.0,3.0,485.5858119553886,4.0,1.0,phase_1,,,,,,,,,,,,,blue,hexagon
1320.0,8.0,4.0,1.0,2.0,2.0,383.4348429809324,4.0,1.0,phase_1,,,,,,,,,,,,,blue,hexagon
319.0,2.0,1.0,0.0,3.0,3.0,476.2858750182204,4.0,1.0,phase_1,,,,,,,,,,,,,orange,diamond
164.0,5.0,0.5,1.0,2.0,2.0,474.5838199742138,4.0,1.0,phase_1,,,,,,,,,,,,,green,circle
1300.0,8.0,4.0,1.0,4.0,4.0,614.3783790175803,4.0,1.0,phase_1,,,,,,,,,,,,,blue,hexagon
178.0,5.0,0.5,1.0,4.0,4.0,392.18798198271537,4.0,1.0,phase_1,,,,,,,,,,,,,green,circle
642.0,3.0,2.0,0.0,2.0,2.0,336.6048389580101,4.0,1.0,phase_1,,,,,,,,,,,,,cyan,triangle
345.0,2.0,1.0,0.0,1.0,1.0,522.5706690107472,4.0,1.0,phase_1,,,,,,,,,,,,,orange,diamond
309.0,6.0,1.0,1.0,4.0,4.0,503.12986999051645,4.0,1.0,phase_1,,,,,,,,,,,,,yellow,square
653.0,3.0,2.0,0.0,3.0,3.0,354.6063139801845,4.0,1.0,phase_1,,,,,,,,,,,,,cyan,triangle
1286.0,4.0,4.0,0.0,2.0,2.0,400.6924999994226,4.0,1.0,phase_1,,,,,,,,,,,,,gray,flipped triangle
1298.0,4.0,4.0,0.0,3.0,3.0,399.5399289997294,4.0,1.0,phase_1,,,,,,,,,,,,,gray,flipped triangle
348.0,2.0,1.0,0.0,2.0,2.0,401.6144420020282,4.0,1.0,phase_1,,,,,,,,,,,,,orange,diamond
1314.0,4.0,4.0,0.0,2.0,2.0,492.834047996439,4.0,1.0,phase_1,,,,,,,,,,,,,gray,flipped triangle
1313.0,8.0,4.0,1.0,1.0,1.0,437.9409039975144,4.0,1.0,phase_1,,,,,,,,,,,,,blue,hexagon
1284.0,4.0,4.0,0.0,4.0,4.0,513.8719709939323,4.0,1.0,phase_1,,,,,,,,,,,,,gray,flipped triangle
637.0,7.0,2.0,1.0,3.0,3.0,410.1415299810469,4.0,1.0,phase_1,,,,,,,,,,,,,magenta,I
645.0,3.0,2.0,0.0,3.0,3.0,372.6512470166199,4.0,1.0,phase_1,,,,,,,,,,,,,cyan,triangle
340.0,6.0,1.0,1.0,2.0,2.0,438.3382879896089,4.0,1.0,phase_1,,,,,,,,,,,,,yellow,square
160.0,5.0,0.5,1.0,2.0,2.0,402.3636559722945,4.0,1.0,phase_1,,,,,,,,,,,,,green,circle
341.0,2.0,1.0,0.0,4.0,4.0,363.9490429777652,4.0,1.0,phase_1,,,,,,,,,,,,,orange,diamond
0.0,3.0,0.0,0.0,1.0,1.0,559.299137967173,4.0,1.0,phase_1,,,,,,,,,,,,,cyan,triangle
340.0,2.0,1.0,0.0,1.0,1.0,552.2904850076884,4.0,1.0,phase_1,,,,,,,,,,,,,orange,diamond
0.0,4.0,0.0,0.0,2.0,2.0,355.43829301605,4.0,1.0,phase_1,,,,,,,,,,,,,gray,flipped triangle
185.0,5.0,0.5,1.0,3.0,3.0,325.762938009575,4.0,1.0,phase_1,,,,,,,,,,,,,green,circle
343.0,2.0,1.0,0.0,2.0,2.0,374.5957839419134,4.0,1.0,phase_1,,,,,,,,,,,,,orange,diamond
0.0,7.0,0.0,1.0,2.0,2.0,363.3938650018535,4.0,1.0,phase_1,,,,,,,,,,,,,magenta,I
628.0,7.0,2.0,1.0,1.0,1.0,390.7924620434642,4.0,1.0,phase_1,,,,,,,,,,,,,magenta,I
300.0,2.0,1.0,0.0,1.0,1.0,427.7417929843068,4.0,1.0,phase_1,,,,,,,,,,,,,orange,diamond
1287.0,8.0,4.0,1.0,2.0,2.0,419.7999410098418,4.0,1.0,phase_1,,,,,,,,,,,,,blue,hexagon
159.0,1.0,0.5,0.0,1.0,1.0,419.8900600313209,4.0,1.0,phase_1,,,,,,,,,,,,,white,cross
641.0,7.0,2.0,1.0,4.0,4.0,437.7578650019131,4.0,2.0,phase_1,,,,,,,,,,,,,magenta,I
312.0,2.0,1.0,0.0,3.0,3.0,420.1430829707533,4.0,1.0,phase_1,,,,,,,,,,,,,orange,diamond
337.0,6.0,1.0,1.0,1.0,1.0,522.6316960179247,4.0,1.0,phase_1,,,,,,,,,,,,,yellow,square
0.0,6.0,0.0,1.0,1.0,1.0,589.3991219927557,4.0,1.0,phase_1,,,,,,,,,,,,,yellow,square
1278.0,8.0,4.0,1.0,4.0,4.0,466.8046219740063,4.0,1.0,phase_1,,,,,,,,,,,,,blue,hexagon
147.0,1.0,0.5,0.0,3.0,3.0,449.0362079814076,4.0,1.0,phase_1,,,,,,,,,,,,,white,cross
327.0,6.0,1.0,1.0,3.0,3.0,402.9790089698508,4.0,1.0,phase_1,,,,,,,,,,,,,yellow,square
1283.0,4.0,4.0,0.0,1.0,1.0,382.8077009529806,4.0,1.0,phase_1,,,,,,,,,,,,,gray,flipped triangle
304.0,2.0,1.0,0.0,1.0,1.0,428.6326139699667,4.0,1.0,phase_1,,,,,,,,,,,,,orange,diamond
337.0,2.0,1.0,0.0,2.0,2.0,475.8059729938395,4.0,1.0,phase_1,,,,,,,,,,,,,orange,diamond
182.0,1.0,0.5,0.0,4.0,4.0,438.0818370264023,4.0,1.0,phase_1,,,,,,,,,,,,,white,cross
0.0,2.0,0.0,0.0,2.0,2.0,446.9705889932811,4.0,1.0,phase_1,,,,,,,,,,,,,orange,diamond
626.0,3.0,2.0,0.0,1.0,1.0,429.31017302908,4.0,1.0,phase_1,,,,,,,,,,,,,cyan,triangle
1300.0,4.0,4.0,0.0,3.0,3.0,633.1882320228033,4.0,1.0,phase_1,,,,,,,,,,,,,gray,flipped triangle
0.0,8.0,0.0,1.0,1.0,1.0,532.4502279981971,4.0,1.0,phase_1,,,,,,,,,,,,,blue,hexagon
627.0,7.0,2.0,1.0,3.0,3.0,391.9598190113902,4.0,1.0,phase_1,,,,,,,,,,,,,magenta,I
657.0,3.0,2.0,0.0,1.0,1.0,392.8670089808292,4.0,1.0,phase_1,,,,,,,,,,,,,cyan,triangle
0.0,1.0,0.0,0.0,4.0,4.0,427.5449619744904,4.0,1.0,phase_1,,,,,,,,,,,,,white,cross
650.0,7.0,2.0,1.0,1.0,1.0,521.4462580042891,4.0,1.0,phase_1,,,,,,,,,,,,,magenta,I
169.0,5.0,0.5,1.0,4.0,4.0,495.8257480175234,4.0,1.0,phase_1,,,,,,,,,,,,,green,circle
667.0,7.0,2.0,1.0,3.0,3.0,420.2621830045245,4.0,1.0,phase_1,,,,,,,,,,,,,magenta,I
0.0,1.0,0.0,0.0,4.0,4.0,495.0753020239062,4.0,1.0,phase_1,,,,,,,,,,,,,white,cross
664.0,7.0,2.0,1.0,2.0,2.0,428.38998202933,4.0,1.0,phase_1,,,,,,,,,,,,,magenta,I
1276.0,4.0,4.0,0.0,1.0,1.0,475.1211829716339,4.0,1.0,phase_1,,,,,,,,,,,,,gray,flipped triangle
0.0,6.0,0.0,1.0,1.0,1.0,390.1160660316236,4.0,1.0,phase_1,,,,,,,,,,,,,yellow,square
179.0,5.0,0.5,1.0,1.0,1.0,382.3917000554502,4.0,1.0,phase_1,,,,,,,,,,,,,green,circle
0.0,7.0,0.0,1.0,1.0,1.0,435.5245819897391,4.0,1.0,phase_1,,,,,,,,,,,,,magenta,I
0.0,6.0,0.0,1.0,4.0,4.0,391.6642119875178,4.0,1.0,phase_1,,,,,,,,,,,,,yellow,square
348.0,2.0,1.0,0.0,2.0,2.0,503.00628098193556,4.0,1.0,phase_1,,,,,,,,,,,,,orange,diamond
1307.0,8.0,4.0,1.0,2.0,2.0,382.6944450265728,4.0,1.0,phase_1,,,,,,,,,,,,,blue,hexagon
340.0,6.0,1.0,1.0,3.0,3.0,399.0237899706699,4.0,1.0,phase_1,,,,,,,,,,,,,yellow,square
1321.0,4.0,4.0,0.0,4.0,4.0,448.4153480152599,4.0,1.0,phase_1,,,,,,,,,,,,,gray,flipped triangle
0.0,5.0,0.0,1.0,1.0,1.0,429.3919469928369,4.0,1.0,phase_1,,,,,,,,,,,,,green,circle
326.0,6.0,1.0,1.0,3.0,3.0,383.2430639886297,4.0,1.0,phase_1,,,,,,,,,,,,,yellow,square
0.0,7.0,0.0,1.0,4.0,4.0,502.9479860095307,4.0,1.0,phase_1,,,,,,,,,,,,,magenta,I
0.0,4.0,0.0,0.0,1.0,1.0,400.2934040036052,4.0,1.0,phase_1,,,,,,,,,,,,,gray,flipped triangle
0.0,1.0,0.0,0.0,1.0,1.0,521.9084619893692,4.0,1.0,phase_1,,,,,,,,,,,,,white,cross
178.0,1.0,0.5,0.0,1.0,1.0,326.73127198359,4.0,1.0,phase_1,,,,,,,,,,,,,white,cross
304.0,6.0,1.0,1.0,1.0,1.0,391.3684490253217,4.0,1.0,phase_1,,,,,,,,,,,,,yellow,square
162.0,1.0,0.5,0.0,1.0,1.0,289.3128200084902,4.0,1.0,phase_1,,,,,,,,,,,,,white,cross
146.0,1.0,0.5,0.0,1.0,1.0,355.1264569978229,4.0,1.0,phase_1,,,,,,,,,,,,,white,cross
348.0,6.0,1.0,1.0,3.0,3.0,418.8971340190619,4.0,1.0,phase_1,,,,,,,,,,,,,yellow,square
1306.0,8.0,4.0,1.0,2.0,2.0,391.1495800130069,4.0,1.0,phase_1,,,,,,,,,,,,,blue,hexagon
626.0,7.0,2.0,1.0,2.0,2.0,344.191097014118,4.0,1.0,phase_1,,,,,,,,,,,,,magenta,I
1300.0,4.0,4.0,0.0,4.0,4.0,344.8016720358282,4.0,1.0,phase_1,,,,,,,,,,,,,gray,flipped triangle
1278.0,8.0,4.0,1.0,3.0,3.0,353.9433150435798,4.0,1.0,phase_1,,,,,,,,,,,,,blue,hexagon
649.0,3.0,2.0,0.0,3.0,3.0,326.2649480020627,4.0,1.0,phase_1,,,,,,,,,,,,,cyan,triangle
0.0,8.0,0.0,1.0,2.0,2.0,363.0864680162631,4.0,1.0,phase_1,,,,,,,,,,,,,blue,hexagon
1286.0,8.0,4.0,1.0,1.0,1.0,437.1141600422561,4.0,1.0,phase_1,,,,,,,,,,,,,blue,hexagon
1318.0,8.0,4.0,1.0,1.0,1.0,362.0045160059817,4.0,1.0,phase_1,,,,,,,,,,,,,blue,hexagon
629.0,7.0,2.0,1.0,3.0,3.0,372.9358730488457,4.0,1.0,phase_1,,,,,,,,,,,,,magenta,I
657.0,7.0,2.0,1.0,1.0,1.0,419.3995569949038,4.0,1.0,phase_1,,,,,,,,,,,,,magenta,I
1282.0,4.0,4.0,0.0,4.0,4.0,446.8221800052561,4.0,1.0,phase_1,,,,,,,,,,,,,gray,flipped triangle
310.0,6.0,1.0,1.0,1.0,1.0,660.9780620201491,4.0,1.0,phase_1,,,,,,,,,,,,,yellow,square
139.0,1.0,0.5,0.0,1.0,1.0,446.7069260426797,4.0,1.0,phase_1,,,,,,,,,,,,,white,cross
139.0,1.0,0.5,0.0,2.0,2.0,456.0698270215653,4.0,1.0,phase_1,,,,,,,,,,,,,white,cross
335.0,2.0,1.0,0.0,1.0,1.0,456.1152270180173,4.0,1.0,phase_1,,,,,,,,,,,,,orange,diamond
176.0,5.0,0.5,1.0,3.0,3.0,389.7478670114651,4.0,1.0,phase_1,,,,,,,,,,,,,green,circle
329.0,2.0,1.0,0.0,3.0,3.0,363.9892009668983,4.0,1.0,phase_1,,,,,,,,,,,,,orange,diamond
319.0,6.0,1.0,1.0,2.0,2.0,447.4713280214928,4.0,1.0,phase_1,,,,,,,,,,,,,yellow,square
317.0,2.0,1.0,0.0,4.0,4.0,393.0679959594272,4.0,1.0,phase_1,,,,,,,,,,,,,orange,diamond
640.0,3.0,2.0,0.0,2.0,2.0,467.011574015487,4.0,1.0,phase_1,,,,,,,,,,,,,cyan,triangle
0.0,7.0,2.0,1.0,5.0,0.0,0.0,1.0,1.0,phase_2,stop,250.0,250.0,4.0,,,,,,,,,magenta,I
0.0,7.0,2.0,1.0,6.0,0.0,0.0,1.0,1.0,phase_2,stop,300.0,250.0,4.0,,,,,,,,,magenta,I
0.0,4.0,4.0,0.0,5.0,5.0,848.0401420383714,1.0,1.0,phase_2,go,300.0,300.0,1.0,,,,,,,,,gray,flipped triangle
0.0,1.0,0.5,0.0,6.0,6.0,1048.265610006638,1.0,1.0,phase_2,go,300.0,300.0,1.0,,,,,,,,,white,cross
0.0,3.0,2.0,0.0,5.0,5.0,880.5793889914639,1.0,1.0,phase_2,go,300.0,300.0,1.0,,,,,,,,,cyan,triangle
0.0,2.0,1.0,0.0,5.0,5.0,853.9471029653214,1.0,1.0,phase_2,go,300.0,300.0,1.0,,,,,,,,,orange,diamond
0.0,1.0,0.5,0.0,6.0,6.0,719.7945709922351,1.0,1.0,phase_2,go,300.0,300.0,1.0,,,,,,,,,white,cross
0.0,5.0,0.5,1.0,5.0,0.0,0.0,1.0,1.0,phase_2,stop,300.0,300.0,4.0,,,,,,,,,green,circle
0.0,1.0,0.5,0.0,5.0,5.0,824.80189204216,1.0,1.0,phase_2,go,350.0,300.0,1.0,,,,,,,,,white,cross
0.0,4.0,4.0,0.0,5.0,5.0,748.454426007811,1.0,1.0,phase_2,go,350.0,300.0,1.0,,,,,,,,,gray,flipped triangle
0.0,2.0,1.0,0.0,6.0,6.0,945.1593200210482,1.0,1.0,phase_2,go,350.0,300.0,1.0,,,,,,,,,orange,diamond
0.0,1.0,0.5,0.0,6.0,6.0,375.2020790125243,1.0,1.0,phase_2,go,350.0,300.0,1.0,,,,,,,,,white,cross
0.0,2.0,1.0,0.0,5.0,5.0,834.64382000966,1.0,1.0,phase_2,go,350.0,300.0,1.0,,,,,,,,,orange,diamond
0.0,4.0,4.0,0.0,5.0,5.0,899.8572549899109,1.0,1.0,phase_2,go,350.0,300.0,1.0,,,,,,,,,gray,flipped triangle
0.0,4.0,4.0,0.0,5.0,5.0,983.6984120192938,1.0,1.0,phase_2,go,350.0,300.0,1.0,,,,,,,,,gray,flipped triangle
0.0,7.0,2.0,1.0,5.0,0.0,0.0,1.0,1.0,phase_2,stop,350.0,300.0,4.0,,,,,,,,,magenta,I
0.0,8.0,4.0,1.0,5.0,5.0,938.7371779885144,1.0,1.0,phase_2,go,400.0,300.0,1.0,,,,,,,,,blue,hexagon
0.0,1.0,0.5,0.0,5.0,5.0,356.4789940137416,1.0,1.0,phase_2,go,400.0,300.0,1.0,,,,,,,,,white,cross
0.0,3.0,2.0,0.0,5.0,5.0,880.8730790042318,1.0,1.0,phase_2,go,400.0,300.0,1.0,,,,,,,,,cyan,triangle
0.0,8.0,4.0,1.0,6.0,0.0,0.0,1.0,1.0,phase_2,stop,400.0,300.0,4.0,,,,,,,,,blue,hexagon
0.0,4.0,4.0,0.0,5.0,5.0,644.882585038431,1.0,1.0,phase_2,go,400.0,350.0,1.0,,,,,,,,,gray,flipped triangle
0.0,7.0,2.0,1.0,5.0,5.0,992.1595199848524,1.0,1.0,phase_2,go,400.0,350.0,1.0,,,,,,,,,magenta,I
0.0,7.0,2.0,1.0,6.0,0.0,0.0,1.0,1.0,phase_2,stop,400.0,350.0,4.0,,,,,,,,,magenta,I
0.0,4.0,4.0,0.0,6.0,6.0,843.4530520462431,1.0,1.0,phase_2,go,400.0,400.0,1.0,,,,,,,,,gray,flipped triangle
0.0,7.0,2.0,1.0,6.0,0.0,0.0,1.0,1.0,phase_2,stop,400.0,400.0,4.0,,,,,,,,,magenta,I
0.0,8.0,4.0,1.0,5.0,5.0,751.1616589617915,1.0,1.0,phase_2,go,400.0,450.0,1.0,,,,,,,,,blue,hexagon
0.0,5.0,0.5,1.0,6.0,6.0,862.4470829963684,1.0,1.0,phase_2,go,400.0,450.0,1.0,,,,,,,,,green,circle
0.0,5.0,0.5,1.0,5.0,0.0,0.0,1.0,1.0,phase_2,stop,400.0,450.0,4.0,,,,,,,,,green,circle
0.0,2.0,1.0,0.0,6.0,6.0,701.8740969942883,1.0,1.0,phase_2,go,450.0,450.0,1.0,,,,,,,,,orange,diamond
0.0,2.0,1.0,0.0,5.0,5.0,898.5135380062275,1.0,1.0,phase_2,go,450.0,450.0,1.0,,,,,,,,,orange,diamond
0.0,1.0,0.5,0.0,6.0,6.0,985.3725759894588,1.0,1.0,phase_2,go,450.0,450.0,1.0,,,,,,,,,white,cross
0.0,8.0,4.0,1.0,5.0,0.0,0.0,1.0,1.0,phase_2,stop,450.0,450.0,4.0,,,,,,,,,blue,hexagon
0.0,1.0,0.5,0.0,5.0,5.0,777.5365000125021,1.0,1.0,phase_2,go,500.0,450.0,1.0,,,,,,,,,white,cross
0.0,6.0,1.0,1.0,6.0,0.0,0.0,1.0,1.0,phase_2,stop,500.0,450.0,4.0,,,,,,,,,yellow,square
0.0,4.0,4.0,0.0,5.0,5.0,366.5449419640936,1.0,1.0,phase_2,go,500.0,500.0,1.0,,,,,,,,,gray,flipped triangle
0.0,7.0,2.0,1.0,5.0,0.0,0.0,1.0,1.0,phase_2,stop,500.0,500.0,4.0,,,,,,,,,magenta,I
0.0,2.0,1.0,0.0,6.0,6.0,518.6866639996879,2.0,1.0,phase_2,go,550.0,500.0,1.0,,,,,,,,,orange,diamond
0.0,3.0,2.0,0.0,5.0,5.0,668.6884869704954,2.0,1.0,phase_2,go,550.0,500.0,1.0,,,,,,,,,cyan,triangle
0.0,2.0,1.0,0.0,5.0,5.0,640.3103349730372,2.0,1.0,phase_2,go,550.0,500.0,1.0,,,,,,,,,orange,diamond
0.0,1.0,0.5,0.0,5.0,5.0,824.2277959943749,2.0,1.0,phase_2,go,550.0,500.0,1.0,,,,,,,,,white,cross
0.0,6.0,1.0,1.0,5.0,5.0,753.1023289775476,2.0,1.0,phase_2,go,550.0,500.0,1.0,,,,,,,,,yellow,square
0.0,3.0,2.0,0.0,6.0,6.0,685.8922669780441,2.0,1.0,phase_2,go,550.0,500.0,1.0,,,,,,,,,cyan,triangle
0.0,7.0,2.0,1.0,5.0,5.0,816.4793329779059,2.0,1.0,phase_2,go,550.0,500.0,1.0,,,,,,,,,magenta,I
0.0,6.0,1.0,1.0,6.0,0.0,0.0,2.0,1.0,phase_2,stop,550.0,500.0,4.0,,,,,,,,,yellow,square
0.0,1.0,0.5,0.0,6.0,6.0,404.6321830246597,2.0,1.0,phase_2,go,550.0,550.0,1.0,,,,,,,,,white,cross
0.0,6.0,1.0,1.0,6.0,6.0,382.8003859962336,2.0,1.0,phase_2,go,550.0,550.0,1.0,,,,,,,,,yellow,square
0.0,2.0,1.0,0.0,6.0,6.0,581.8912060349248,2.0,1.0,phase_2,go,550.0,550.0,1.0,,,,,,,,,orange,diamond
0.0,7.0,2.0,1.0,6.0,6.0,291.7636329657398,2.0,1.0,phase_2,go,550.0,550.0,1.0,,,,,,,,,magenta,I
0.0,8.0,4.0,1.0,6.0,6.0,685.2528490126133,2.0,1.0,phase_2,go,550.0,550.0,1.0,,,,,,,,,blue,hexagon
0.0,7.0,2.0,1.0,5.0,5.0,723.7284990260378,2.0,1.0,phase_2,stop,550.0,550.0,3.0,,,,,,,,,magenta,I
0.0,3.0,2.0,0.0,5.0,5.0,749.5593820349313,2.0,1.0,phase_2,go,500.0,550.0,1.0,,,,,,,,,cyan,triangle
0.0,3.0,2.0,0.0,5.0,5.0,714.2898190068081,2.0,1.0,phase_2,go,500.0,550.0,1.0,,,,,,,,,cyan,triangle
0.0,4.0,4.0,0.0,5.0,5.0,749.0233909920789,2.0,1.0,phase_2,go,500.0,550.0,1.0,,,,,,,,,gray,flipped triangle
0.0,2.0,1.0,0.0,5.0,5.0,722.1465189941227,2.0,1.0,phase_2,go,500.0,550.0,1.0,,,,,,,,,orange,diamond
0.0,1.0,0.5,0.0,6.0,6.0,692.6553539815359,2.0,1.0,phase_2,go,500.0,550.0,1.0,,,,,,,,,white,cross
0.0,6.0,1.0,1.0,5.0,5.0,646.9948660233058,2.0,1.0,phase_2,go,500.0,550.0,1.0,,,,,,,,,yellow,square
0.0,6.0,1.0,1.0,5.0,0.0,0.0,2.0,1.0,phase_2,stop,500.0,550.0,4.0,,,,,,,,,yellow,square
0.0,7.0,2.0,1.0,6.0,6.0,487.5693339854479,2.0,1.0,phase_2,stop,550.0,550.0,3.0,,,,,,,,,magenta,I
0.0,4.0,4.0,0.0,6.0,6.0,600.9018369950354,2.0,1.0,phase_2,go,550.0,500.0,1.0,,,,,,,,,gray,flipped triangle
0.0,5.0,0.5,1.0,5.0,5.0,703.3225640188903,2.0,1.0,phase_2,go,550.0,500.0,1.0,,,,,,,,,green,circle
0.0,1.0,0.5,0.0,5.0,5.0,580.555488995742,2.0,1.0,phase_2,go,550.0,500.0,1.0,,,,,,,,,white,cross
0.0,3.0,2.0,0.0,5.0,5.0,591.6443709866144,2.0,1.0,phase_2,go,550.0,500.0,1.0,,,,,,,,,cyan,triangle
0.0,2.0,1.0,0.0,5.0,5.0,807.6920539606363,2.0,1.0,phase_2,go,550.0,500.0,1.0,,,,,,,,,orange,diamond
0.0,2.0,1.0,0.0,5.0,5.0,751.016724971123,2.0,1.0,phase_2,go,550.0,500.0,1.0,,,,,,,,,orange,diamond
0.0,2.0,1.0,0.0,6.0,6.0,929.870256979484,2.0,1.0,phase_2,go,550.0,500.0,1.0,,,,,,,,,orange,diamond
0.0,8.0,4.0,1.0,5.0,0.0,0.0,2.0,1.0,phase_2,stop,550.0,500.0,4.0,,,,,,,,,blue,hexagon
0.0,8.0,4.0,1.0,5.0,5.0,497.0923420041799,2.0,1.0,phase_2,go,600.0,500.0,1.0,,,,,,,,,blue,hexagon
0.0,5.0,0.5,1.0,6.0,0.0,0.0,2.0,1.0,phase_2,stop,600.0,500.0,4.0,,,,,,,,,green,circle
0.0,1.0,0.5,0.0,6.0,6.0,639.6105280146003,2.0,1.0,phase_2,go,600.0,550.0,1.0,,,,,,,,,white,cross
0.0,4.0,4.0,0.0,6.0,6.0,667.5905439769849,2.0,1.0,phase_2,go,600.0,550.0,1.0,,,,,,,,,gray,flipped triangle
0.0,1.0,0.5,0.0,6.0,6.0,654.8204920254648,2.0,1.0,phase_2,go,600.0,550.0,1.0,,,,,,,,,white,cross
0.0,6.0,1.0,1.0,6.0,0.0,0.0,2.0,1.0,phase_2,stop,600.0,550.0,4.0,,,,,,,,,yellow,square
0.0,4.0,4.0,0.0,5.0,5.0,702.3353690165095,3.0,1.0,phase_2,go,600.0,600.0,1.0,,,,,,,,,gray,flipped triangle
0.0,3.0,2.0,0.0,5.0,5.0,386.4313660305924,3.0,1.0,phase_2,go,600.0,600.0,1.0,,,,,,,,,cyan,triangle
0.0,5.0,0.5,1.0,5.0,5.0,553.4518170170486,3.0,1.0,phase_2,stop,600.0,600.0,3.0,,,,,,,,,green,circle
0.0,4.0,4.0,0.0,6.0,6.0,497.5840480183251,3.0,1.0,phase_2,go,550.0,600.0,1.0,,,,,,,,,gray,flipped triangle
0.0,2.0,1.0,0.0,6.0,6.0,807.652298011817,3.0,1.0,phase_2,go,550.0,600.0,1.0,,,,,,,,,orange,diamond
0.0,8.0,4.0,1.0,6.0,0.0,0.0,3.0,1.0,phase_2,stop,550.0,600.0,4.0,,,,,,,,,blue,hexagon
0.0,4.0,4.0,0.0,6.0,6.0,598.5151120112278,3.0,1.0,phase_2,go,550.0,650.0,1.0,,,,,,,,,gray,flipped triangle
0.0,8.0,4.0,1.0,6.0,6.0,815.9435290144756,3.0,1.0,phase_2,stop,550.0,650.0,3.0,,,,,,,,,blue,hexagon
0.0,3.0,2.0,0.0,6.0,6.0,908.8973029865884,3.0,1.0,phase_2,go,550.0,600.0,1.0,,,,,,,,,cyan,triangle
0.0,4.0,4.0,0.0,6.0,6.0,637.1620059944689,3.0,1.0,phase_2,go,550.0,600.0,1.0,,,,,,,,,gray,flipped triangle
0.0,2.0,1.0,0.0,6.0,6.0,871.8630450312048,3.0,1.0,phase_2,go,550.0,600.0,1.0,,,,,,,,,orange,diamond
0.0,8.0,4.0,1.0,5.0,0.0,0.0,3.0,1.0,phase_2,stop,550.0,600.0,4.0,,,,,,,,,blue,hexagon
0.0,7.0,2.0,1.0,5.0,5.0,753.5700039588846,3.0,1.0,phase_2,stop,600.0,600.0,3.0,,,,,,,,,magenta,I
0.0,4.0,4.0,0.0,6.0,6.0,620.2295949915424,3.0,1.0,phase_2,go,550.0,600.0,1.0,,,,,,,,,gray,flipped triangle
0.0,8.0,4.0,1.0,6.0,0.0,0.0,3.0,1.0,phase_2,stop,550.0,600.0,4.0,,,,,,,,,blue,hexagon
0.0,3.0,2.0,0.0,6.0,6.0,872.1997769898735,3.0,1.0,phase_2,go,550.0,650.0,1.0,,,,,,,,,cyan,triangle
0.0,7.0,2.0,1.0,5.0,0.0,0.0,3.0,1.0,phase_2,stop,550.0,650.0,4.0,,,,,,,,,magenta,I
0.0,7.0,2.0,1.0,6.0,6.0,890.6982369953766,3.0,1.0,phase_2,go,600.0,650.0,1.0,,,,,,,,,magenta,I
0.0,6.0,1.0,1.0,5.0,5.0,815.1447880081832,3.0,1.0,phase_2,go,600.0,650.0,1.0,,,,,,,,,yellow,square
0.0,4.0,4.0,0.0,6.0,6.0,723.274745978415,3.0,1.0,phase_2,go,600.0,650.0,1.0,,,,,,,,,gray,flipped triangle
0.0,8.0,4.0,1.0,6.0,6.0,394.7824859642423,3.0,1.0,phase_2,stop,600.0,650.0,3.0,,,,,,,,,blue,hexagon
0.0,5.0,0.5,1.0,6.0,6.0,515.5286340159364,3.0,1.0,phase_2,stop,600.0,600.0,3.0,,,,,,,,,green,circle
0.0,4.0,4.0,0.0,5.0,5.0,805.2746249595657,3.0,1.0,phase_2,go,600.0,550.0,1.0,,,,,,,,,gray,flipped triangle
0.0,3.0,2.0,0.0,5.0,5.0,1012.881402974017,3.0,1.0,phase_2,go,600.0,550.0,1.0,,,,,,,,,cyan,triangle
0.0,1.0,0.5,0.0,5.0,5.0,695.7222889759578,3.0,1.0,phase_2,go,600.0,550.0,1.0,,,,,,,,,white,cross
0.0,3.0,2.0,0.0,5.0,5.0,835.1003970019519,3.0,1.0,phase_2,go,600.0,550.0,1.0,,,,,,,,,cyan,triangle
0.0,4.0,4.0,0.0,5.0,5.0,648.1904280371964,3.0,1.0,phase_2,go,600.0,550.0,1.0,,,,,,,,,gray,flipped triangle
0.0,1.0,0.5,0.0,6.0,6.0,639.4764229771681,3.0,1.0,phase_2,go,600.0,550.0,1.0,,,,,,,,,white,cross
0.0,6.0,1.0,1.0,6.0,6.0,727.5548569741659,3.0,1.0,phase_2,stop,600.0,550.0,3.0,,,,,,,,,yellow,square
0.0,6.0,1.0,1.0,6.0,0.0,0.0,3.0,1.0,phase_2,stop,600.0,500.0,4.0,,,,,,,,,yellow,square
0.0,2.0,1.0,0.0,5.0,5.0,731.1233259970322,3.0,1.0,phase_2,go,600.0,550.0,1.0,,,,,,,,,orange,diamond
0.0,3.0,2.0,0.0,5.0,5.0,974.2314330069348,3.0,1.0,phase_2,go,600.0,550.0,1.0,,,,,,,,,cyan,triangle
0.0,6.0,1.0,1.0,6.0,0.0,0.0,3.0,1.0,phase_2,stop,600.0,550.0,4.0,,,,,,,,,yellow,square
0.0,6.0,1.0,1.0,5.0,0.0,0.0,3.0,1.0,phase_2,stop,600.0,600.0,4.0,,,,,,,,,yellow,square
0.0,2.0,1.0,0.0,5.0,5.0,955.7624600129202,3.0,1.0,phase_2,go,650.0,600.0,1.0,,,,,,,,,orange,diamond
0.0,2.0,1.0,0.0,5.0,5.0,1059.9588269833475,3.0,1.0,phase_2,go,650.0,600.0,1.0,,,,,,,,,orange,diamond
0.0,6.0,1.0,1.0,5.0,5.0,784.9194490117952,4.0,1.0,phase_2,stop,650.0,600.0,3.0,,,,,,,,,yellow,square
0.0,5.0,0.5,1.0,6.0,0.0,0.0,4.0,1.0,phase_2,stop,600.0,600.0,4.0,,,,,,,,,green,circle
0.0,5.0,0.5,1.0,6.0,6.0,884.591999987606,4.0,1.0,phase_2,go,600.0,650.0,1.0,,,,,,,,,green,circle
0.0,5.0,0.5,1.0,5.0,5.0,853.3509940025397,4.0,1.0,phase_2,go,600.0,650.0,1.0,,,,,,,,,green,circle
0.0,6.0,1.0,1.0,6.0,0.0,0.0,4.0,1.0,phase_2,stop,600.0,650.0,4.0,,,,,,,,,yellow,square
0.0,2.0,1.0,0.0,5.0,5.0,975.237283972092,4.0,1.0,phase_2,go,600.0,700.0,1.0,,,,,,,,,orange,diamond
0.0,6.0,1.0,1.0,6.0,0.0,0.0,4.0,1.0,phase_2,stop,600.0,700.0,4.0,,,,,,,,,yellow,square
0.0,6.0,1.0,1.0,5.0,0.0,0.0,4.0,1.0,phase_2,stop,600.0,750.0,4.0,,,,,,,,,yellow,square
0.0,3.0,2.0,0.0,5.0,5.0,983.9331760304048,4.0,1.0,phase_2,go,650.0,750.0,1.0,,,,,,,,,cyan,triangle
0.0,7.0,2.0,1.0,6.0,6.0,1054.543428006582,4.0,1.0,phase_2,go,650.0,750.0,1.0,,,,,,,,,magenta,I
0.0,1.0,0.5,0.0,5.0,5.0,779.7563470085151,4.0,1.0,phase_2,go,650.0,750.0,1.0,,,,,,,,,white,cross
0.0,5.0,0.5,1.0,6.0,6.0,742.4385109916329,4.0,1.0,phase_2,stop,650.0,750.0,3.0,,,,,,,,,green,circle
0.0,8.0,4.0,1.0,5.0,0.0,0.0,4.0,1.0,phase_2,stop,650.0,700.0,4.0,,,,,,,,,blue,hexagon
0.0,1.0,0.5,0.0,6.0,6.0,573.7236730055884,4.0,1.0,phase_2,go,700.0,700.0,1.0,,,,,,,,,white,cross
0.0,7.0,2.0,1.0,5.0,0.0,0.0,4.0,1.0,phase_2,stop,700.0,700.0,4.0,,,,,,,,,magenta,I
0.0,4.0,4.0,0.0,6.0,6.0,742.0662009972148,4.0,1.0,phase_2,go,750.0,700.0,1.0,,,,,,,,,gray,flipped triangle
0.0,2.0,1.0,0.0,6.0,6.0,1078.8991420413367,4.0,1.0,phase_2,go,750.0,700.0,1.0,,,,,,,,,orange,diamond
0.0,3.0,2.0,0.0,6.0,6.0,918.7642890028656,4.0,1.0,phase_2,go,750.0,700.0,1.0,,,,,,,,,cyan,triangle
0.0,5.0,0.5,1.0,5.0,5.0,938.2400729809888,4.0,1.0,phase_2,go,750.0,700.0,1.0,,,,,,,,,green,circle
0.0,8.0,4.0,1.0,5.0,5.0,703.1526970095001,4.0,1.0,phase_2,stop,750.0,700.0,3.0,,,,,,,,,blue,hexagon
0.0,5.0,0.5,1.0,6.0,0.0,0.0,4.0,1.0,phase_2,stop,700.0,700.0,4.0,,,,,,,,,green,circle
0.0,3.0,2.0,0.0,6.0,6.0,816.0829169792123,4.0,1.0,phase_2,go,700.0,750.0,1.0,,,,,,,,,cyan,triangle
0.0,1.0,0.5,0.0,5.0,5.0,636.6895550163463,4.0,1.0,phase_2,go,700.0,750.0,1.0,,,,,,,,,white,cross
0.0,5.0,0.5,1.0,6.0,6.0,891.3991659646854,4.0,1.0,phase_2,stop,700.0,750.0,3.0,,,,,,,,,green,circle
0.0,3.0,2.0,0.0,6.0,6.0,827.3724450264126,4.0,1.0,phase_2,go,700.0,700.0,1.0,,,,,,,,,cyan,triangle
0.0,6.0,1.0,1.0,5.0,0.0,0.0,4.0,1.0,phase_2,stop,700.0,700.0,4.0,,,,,,,,,yellow,square
0.0,2.0,1.0,0.0,5.0,5.0,1087.0037770364434,4.0,1.0,phase_2,go,750.0,700.0,1.0,,,,,,,,,orange,diamond
0.0,7.0,2.0,1.0,6.0,0.0,0.0,4.0,1.0,phase_2,stop,750.0,700.0,4.0,,,,,,,,,magenta,I
0.0,6.0,1.0,1.0,5.0,0.0,0.0,4.0,1.0,phase_2,stop,750.0,750.0,4.0,,,,,,,,,yellow,square
0.0,3.0,2.0,0.0,6.0,6.0,834.3788860365748,4.0,1.0,phase_2,go,800.0,750.0,1.0,,,,,,,,,cyan,triangle
0.0,1.0,0.5,0.0,5.0,5.0,618.3259369572625,4.0,1.0,phase_2,go,800.0,750.0,1.0,,,,,,,,,white,cross
0.0,3.0,2.0,0.0,6.0,6.0,413.8957050163299,4.0,1.0,phase_2,go,800.0,750.0,1.0,,,,,,,,,cyan,triangle
0.0,5.0,0.5,1.0,6.0,0.0,0.0,4.0,1.0,phase_2,stop,800.0,750.0,4.0,,,,,,,,,green,circle
0.0,6.0,1.0,1.0,6.0,0.0,0.0,4.0,1.0,phase_2,stop,800.0,800.0,4.0,,,,,,,,,yellow,square
0.0,7.0,2.0,1.0,6.0,0.0,0.0,4.0,1.0,phase_2,stop,800.0,850.0,4.0,,,,,,,,,magenta,I
0.0,3.0,2.0,0.0,6.0,6.0,452.4013759801164,4.0,1.0,phase_2,go,800.0,900.0,1.0,,,,,,,,,cyan,triangle
0.0,3.0,2.0,0.0,5.0,5.0,854.588818969205,5.0,1.0,phase_2,go,800.0,900.0,1.0,,,,,,,,,cyan,triangle
0.0,3.0,2.0,0.0,5.0,5.0,479.2513860156759,5.0,1.0,phase_2,go,800.0,900.0,1.0,,,,,,,,,cyan,triangle
0.0,7.0,2.0,1.0,5.0,0.0,0.0,5.0,1.0,phase_2,stop,800.0,900.0,4.0,,,,,,,,,magenta,I
0.0,6.0,1.0,1.0,6.0,0.0,0.0,5.0,1.0,phase_2,stop,850.0,900.0,4.0,,,,,,,,,yellow,square
0.0,8.0,4.0,1.0,6.0,6.0,1239.8741320357658,5.0,1.0,phase_2,go,850.0,950.0,1.0,,,,,,,,,blue,hexagon
0.0,6.0,1.0,1.0,5.0,0.0,0.0,5.0,1.0,phase_2,stop,850.0,950.0,4.0,,,,,,,,,yellow,square
0.0,8.0,4.0,1.0,6.0,6.0,601.6001059906557,5.0,1.0,phase_2,stop,900.0,950.0,3.0,,,,,,,,,blue,hexagon
0.0,8.0,4.0,1.0,5.0,5.0,956.8410650244914,5.0,1.0,phase_2,stop,900.0,900.0,3.0,,,,,,,,,blue,hexagon
0.0,8.0,4.0,1.0,6.0,6.0,1246.5620610164478,5.0,1.0,phase_2,go,850.0,900.0,1.0,,,,,,,,,blue,hexagon
0.0,6.0,1.0,1.0,6.0,0.0,0.0,5.0,1.0,phase_2,stop,850.0,900.0,4.0,,,,,,,,,yellow,square
0.0,7.0,2.0,1.0,5.0,5.0,1387.656020000577,5.0,1.0,phase_2,go,850.0,950.0,1.0,,,,,,,,,magenta,I
0.0,6.0,1.0,1.0,6.0,6.0,1097.4825880257413,5.0,1.0,phase_2,go,850.0,950.0,1.0,,,,,,,,,yellow,square
0.0,2.0,1.0,0.0,6.0,6.0,1058.458823012188,5.0,1.0,phase_2,go,850.0,950.0,1.0,,,,,,,,,orange,diamond
0.0,5.0,0.5,1.0,6.0,6.0,1087.252603028901,5.0,1.0,phase_2,stop,850.0,950.0,3.0,,,,,,,,,green,circle
0.0,5.0,0.5,1.0,6.0,6.0,1323.2205350068398,5.0,1.0,phase_2,go,850.0,900.0,1.0,,,,,,,,,green,circle
0.0,2.0,1.0,0.0,5.0,5.0,1087.5346580287442,5.0,1.0,phase_2,go,850.0,900.0,1.0,,,,,,,,,orange,diamond
0.0,4.0,4.0,0.0,6.0,6.0,591.8512510252185,5.0,1.0,phase_2,go,850.0,900.0,1.0,,,,,,,,,gray,flipped triangle
0.0,3.0,2.0,0.0,5.0,5.0,720.8763459930196,5.0,1.0,phase_2,go,850.0,900.0,1.0,,,,,,,,,cyan,triangle
0.0,7.0,2.0,1.0,6.0,0.0,0.0,5.0,1.0,phase_2,stop,850.0,900.0,4.0,,,,,,,,,magenta,I
0.0,1.0,0.5,0.0,5.0,5.0,531.6186610143632,5.0,1.0,phase_2,go,850.0,950.0,1.0,,,,,,,,,white,cross
0.0,1.0,0.5,0.0,6.0,6.0,430.7375240023248,5.0,1.0,phase_2,go,850.0,950.0,1.0,,,,,,,,,white,cross
0.0,8.0,4.0,1.0,6.0,6.0,1022.5741869653575,5.0,1.0,phase_2,stop,850.0,950.0,3.0,,,,,,,,,blue,hexagon
0.0,6.0,1.0,1.0,5.0,0.0,0.0,5.0,1.0,phase_2,stop,850.0,900.0,4.0,,,,,,,,,yellow,square
0.0,1.0,0.5,0.0,5.0,5.0,525.5860490142368,5.0,1.0,phase_2,go,900.0,900.0,1.0,,,,,,,,,white,cross
0.0,3.0,2.0,0.0,6.0,6.0,722.776998009067,5.0,1.0,phase_2,go,900.0,900.0,1.0,,,,,,,,,cyan,triangle
0.0,5.0,0.5,1.0,6.0,0.0,0.0,5.0,1.0,phase_2,stop,900.0,900.0,4.0,,,,,,,,,green,circle
0.0,2.0,1.0,0.0,6.0,6.0,1350.910853012465,5.0,1.0,phase_2,go,900.0,950.0,1.0,,,,,,,,,orange,diamond
0.0,6.0,1.0,1.0,5.0,5.0,1263.329714012798,5.0,1.0,phase_2,go,900.0,950.0,1.0,,,,,,,,,yellow,square
0.0,1.0,0.5,0.0,6.0,6.0,486.3675229717046,5.0,1.0,phase_2,go,900.0,950.0,1.0,,,,,,,,,white,cross
0.0,1.0,0.5,0.0,5.0,5.0,514.2999470117502,5.0,1.0,phase_2,go,900.0,950.0,1.0,,,,,,,,,white,cross
0.0,5.0,0.5,1.0,5.0,0.0,0.0,5.0,1.0,phase_2,stop,900.0,950.0,4.0,,,,,,,,,green,circle
0.0,3.0,2.0,0.0,6.0,6.0,786.7415570071898,5.0,1.0,phase_2,go,950.0,950.0,1.0,,,,,,,,,cyan,triangle
0.0,8.0,4.0,1.0,5.0,0.0,0.0,5.0,1.0,phase_2,stop,950.0,950.0,4.0,,,,,,,,,blue,hexagon
0.0,2.0,1.0,0.0,6.0,6.0,317.7327919984236,5.0,1.0,phase_2,go,1000.0,950.0,1.0,,,,,,,,,orange,diamond
0.0,7.0,2.0,1.0,5.0,5.0,1101.3775989995338,5.0,1.0,phase_2,stop,1000.0,950.0,3.0,,,,,,,,,magenta,I
0.0,2.0,1.0,0.0,6.0,6.0,888.0985609721392,5.0,1.0,phase_2,go,950.0,950.0,1.0,,,,,,,,,orange,diamond
0.0,3.0,2.0,0.0,6.0,6.0,704.8994940123521,6.0,1.0,phase_2,go,950.0,950.0,1.0,,,,,,,,,cyan,triangle
0.0,5.0,0.5,1.0,5.0,5.0,1072.315793950111,6.0,1.0,phase_2,stop,950.0,950.0,3.0,,,,,,,,,green,circle
0.0,7.0,2.0,1.0,6.0,6.0,1379.7893020091578,6.0,1.0,phase_2,go,900.0,950.0,1.0,,,,,,,,,magenta,I
0.0,4.0,4.0,0.0,5.0,5.0,636.6987839573994,6.0,1.0,phase_2,go,900.0,950.0,1.0,,,,,,,,,gray,flipped triangle
0.0,8.0,4.0,1.0,6.0,0.0,0.0,6.0,1.0,phase_2,stop,900.0,950.0,4.0,,,,,,,,,blue,hexagon
0.0,4.0,4.0,0.0,6.0,6.0,479.460886970628,6.0,1.0,phase_2,go,900.0,1000.0,1.0,,,,,,,,,gray,flipped triangle
0.0,8.0,4.0,1.0,6.0,0.0,0.0,6.0,1.0,phase_2,stop,900.0,1000.0,4.0,,,,,,,,,blue,hexagon
0.0,4.0,4.0,0.0,5.0,5.0,405.4739000275731,6.0,1.0,phase_2,go,900.0,1050.0,1.0,,,,,,,,,gray,flipped triangle
0.0,8.0,4.0,1.0,6.0,0.0,0.0,6.0,1.0,phase_2,stop,900.0,1050.0,4.0,,,,,,,,,blue,hexagon
0.0,5.0,0.5,1.0,5.0,0.0,0.0,6.0,1.0,phase_2,stop,900.0,1100.0,4.0,,,,,,,,,green,circle
0.0,4.0,4.0,0.0,6.0,6.0,470.844542956911,6.0,1.0,phase_2,go,950.0,1100.0,1.0,,,,,,,,,gray,flipped triangle
0.0,8.0,4.0,1.0,5.0,0.0,0.0,6.0,1.0,phase_2,stop,950.0,1100.0,4.0,,,,,,,,,blue,hexagon
0.0,5.0,0.5,1.0,6.0,0.0,0.0,6.0,1.0,phase_2,stop,1000.0,1100.0,4.0,,,,,,,,,green,circle
0.0,5.0,0.5,1.0,5.0,0.0,0.0,6.0,1.0,phase_2,stop,1000.0,1150.0,4.0,,,,,,,,,green,circle
0.0,4.0,4.0,0.0,6.0,6.0,470.1955499476753,6.0,1.0,phase_2,go,1050.0,1150.0,1.0,,,,,,,,,gray,flipped triangle
0.0,5.0,0.5,1.0,6.0,0.0,0.0,6.0,1.0,phase_2,stop,1050.0,1150.0,4.0,,,,,,,,,green,circle
0.0,8.0,4.0,1.0,6.0,0.0,0.0,6.0,1.0,phase_2,stop,1050.0,1200.0,4.0,,,,,,,,,blue,hexagon
0.0,3.0,2.0,0.0,5.0,5.0,471.2981740012765,6.0,1.0,phase_2,go,1050.0,1250.0,1.0,,,,,,,,,cyan,triangle
0.0,3.0,2.0,0.0,5.0,5.0,544.2951149889268,6.0,1.0,phase_2,go,1050.0,1250.0,1.0,,,,,,,,,cyan,triangle
0.0,6.0,1.0,1.0,6.0,0.0,0.0,6.0,1.0,phase_2,stop,1050.0,1250.0,4.0,,,,,,,,,yellow,square
0.0,7.0,2.0,1.0,5.0,0.0,0.0,6.0,1.0,phase_2,stop,1050.0,1300.0,4.0,,,,,,,,,magenta,I
0.0,5.0,0.5,1.0,5.0,0.0,0.0,6.0,1.0,phase_2,go,1100.0,1300.0,5.0,,,,,,,,,green,circle
0.0,1.0,0.5,0.0,5.0,5.0,552.8673520311713,6.0,1.0,phase_2,go,1100.0,1300.0,1.0,,,,,,,,,white,cross
0.0,4.0,4.0,0.0,6.0,6.0,564.0159749891609,6.0,1.0,phase_2,go,1100.0,1300.0,1.0,,,,,,,,,gray,flipped triangle
0.0,4.0,4.0,0.0,5.0,5.0,496.9829570036381,6.0,1.0,phase_2,go,1100.0,1300.0,1.0,,,,,,,,,gray,flipped triangle
0.0,8.0,4.0,1.0,5.0,0.0,0.0,6.0,1.0,phase_2,stop,1100.0,1300.0,4.0,,,,,,,,,blue,hexagon
0.0,6.0,1.0,1.0,6.0,6.0,1480.172371957451,6.0,1.0,phase_2,go,1150.0,1300.0,1.0,,,,,,,,,yellow,square
0.0,4.0,4.0,0.0,6.0,6.0,478.4470439772121,6.0,1.0,phase_2,go,1150.0,1300.0,1.0,,,,,,,,,gray,flipped triangle
0.0,2.0,1.0,0.0,5.0,5.0,1080.3092389833182,6.0,1.0,phase_2,go,1150.0,1300.0,1.0,,,,,,,,,orange,diamond
0.0,3.0,2.0,0.0,6.0,6.0,571.8524060212076,6.0,1.0,phase_2,go,1150.0,1300.0,1.0,,,,,,,,,cyan,triangle
0.0,1.0,0.5,0.0,5.0,5.0,562.4371800222434,6.0,1.0,phase_2,go,1150.0,1300.0,1.0,,,,,,,,,white,cross
0.0,7.0,2.0,1.0,5.0,5.0,1119.4780549849384,6.0,1.0,phase_2,stop,1150.0,1300.0,3.0,,,,,,,,,magenta,I
0.0,7.0,2.0,1.0,6.0,0.0,0.0,6.0,1.0,phase_2,go,1100.0,1300.0,5.0,,,,,,,,,magenta,I
0.0,6.0,1.0,1.0,5.0,0.0,0.0,6.0,1.0,phase_2,stop,1100.0,1300.0,4.0,,,,,,,,,yellow,square
0.0,6.0,1.0,1.0,5.0,0.0,0.0,6.0,1.0,phase_2,go,1150.0,1300.0,5.0,,,,,,,,,yellow,square
0.0,2.0,1.0,0.0,6.0,6.0,1300.8256309549324,6.0,1.0,phase_2,go,1150.0,1300.0,1.0,,,,,,,,,orange,diamond
0.0,2.0,1.0,0.0,5.0,5.0,836.4851119695231,7.0,1.0,phase_2,go,1150.0,1300.0,1.0,,,,,,,,,orange,diamond
0.0,3.0,2.0,0.0,5.0,5.0,661.4729189896025,7.0,1.0,phase_2,go,1150.0,1300.0,1.0,,,,,,,,,cyan,triangle
0.0,8.0,4.0,1.0,5.0,5.0,987.550113000907,7.0,1.0,phase_2,stop,1150.0,1300.0,3.0,,,,,,,,,blue,hexagon
0.0,1.0,0.5,0.0,6.0,6.0,538.1888520205393,7.0,1.0,phase_2,go,1100.0,1300.0,1.0,,,,,,,,,white,cross
0.0,5.0,0.5,1.0,5.0,0.0,0.0,7.0,1.0,phase_2,stop,1100.0,1300.0,4.0,,,,,,,,,green,circle
0.0,6.0,1.0,1.0,6.0,6.0,967.997762025334,7.0,1.0,phase_2,stop,1150.0,1300.0,3.0,,,,,,,,,yellow,square
0.0,7.0,2.0,1.0,6.0,0.0,0.0,7.0,1.0,phase_2,stop,1150.0,1250.0,4.0,,,,,,,,,magenta,I
0.0,1.0,0.5,0.0,5.0,5.0,516.5336310165003,7.0,1.0,phase_2,go,1150.0,1300.0,1.0,,,,,,,,,white,cross
0.0,7.0,2.0,1.0,6.0,0.0,0.0,7.0,1.0,phase_2,stop,1150.0,1300.0,4.0,,,,,,,,,magenta,I
0.0,4.0,4.0,0.0,5.0,5.0,506.3586829928681,7.0,1.0,phase_2,go,1150.0,1350.0,1.0,,,,,,,,,gray,flipped triangle
0.0,1.0,0.5,0.0,6.0,6.0,496.749302954413,7.0,1.0,phase_2,go,1150.0,1350.0,1.0,,,,,,,,,white,cross
0.0,2.0,1.0,0.0,5.0,5.0,1360.744941979647,7.0,1.0,phase_2,go,1150.0,1350.0,1.0,,,,,,,,,orange,diamond
0.0,5.0,0.5,1.0,5.0,0.0,0.0,7.0,1.0,phase_2,stop,1150.0,1350.0,4.0,,,,,,,,,green,circle
0.0,7.0,2.0,1.0,5.0,0.0,0.0,7.0,1.0,phase_2,go,1200.0,1350.0,5.0,,,,,,,,,magenta,I
0.0,5.0,0.5,1.0,5.0,0.0,0.0,7.0,1.0,phase_2,stop,1200.0,1350.0,4.0,,,,,,,,,green,circle
0.0,2.0,1.0,0.0,5.0,5.0,562.2177940094844,7.0,1.0,phase_2,go,1250.0,1350.0,1.0,,,,,,,,,orange,diamond
0.0,6.0,1.0,1.0,5.0,5.0,1298.0687859817408,7.0,1.0,phase_2,stop,1250.0,1350.0,3.0,,,,,,,,,yellow,square
0.0,6.0,1.0,1.0,5.0,0.0,0.0,7.0,1.0,phase_2,stop,1200.0,1350.0,4.0,,,,,,,,,yellow,square
0.0,8.0,4.0,1.0,6.0,6.0,1349.01035198709,7.0,1.0,phase_2,stop,1250.0,1350.0,3.0,,,,,,,,,blue,hexagon
0.0,5.0,0.5,1.0,6.0,0.0,0.0,7.0,1.0,phase_2,go,1250.0,1300.0,5.0,,,,,,,,,green,circle
0.0,3.0,2.0,0.0,6.0,6.0,433.495454955846,7.0,1.0,phase_2,go,1250.0,1300.0,1.0,,,,,,,,,cyan,triangle
0.0,6.0,1.0,1.0,5.0,5.0,898.2767580309883,7.0,1.0,phase_2,stop,1250.0,1300.0,3.0,,,,,,,,,yellow,square
0.0,5.0,0.5,1.0,6.0,6.0,1419.8958440101703,7.0,1.0,phase_2,stop,1200.0,1300.0,3.0,,,,,,,,,green,circle
0.0,7.0,2.0,1.0,6.0,0.0,0.0,7.0,1.0,phase_2,stop,1200.0,1250.0,4.0,,,,,,,,,magenta,I
0.0,2.0,1.0,0.0,6.0,6.0,1489.98539801687,7.0,1.0,phase_2,go,1200.0,1300.0,1.0,,,,,,,,,orange,diamond
0.0,2.0,1.0,0.0,6.0,6.0,582.2058559861034,7.0,1.0,phase_2,go,1200.0,1300.0,1.0,,,,,,,,,orange,diamond
0.0,5.0,0.5,1.0,5.0,0.0,0.0,7.0,1.0,phase_2,stop,1200.0,1300.0,4.0,,,,,,,,,green,circle
0.0,2.0,1.0,0.0,6.0,6.0,1050.118420040235,7.0,1.0,phase_2,go,1250.0,1300.0,1.0,,,,,,,,,orange,diamond
0.0,5.0,0.5,1.0,6.0,0.0,0.0,7.0,1.0,phase_2,stop,1250.0,1300.0,4.0,,,,,,,,,green,circle
0.0,7.0,2.0,1.0,5.0,0.0,0.0,7.0,1.0,phase_2,stop,1250.0,1350.0,4.0,,,,,,,,,magenta,I
0.0,7.0,2.0,1.0,6.0,0.0,0.0,7.0,1.0,phase_2,stop,1300.0,1350.0,4.0,,,,,,,,,magenta,I
0.0,1.0,0.5,0.0,5.0,5.0,599.0645259735174,7.0,1.0,phase_2,go,1300.0,1400.0,1.0,,,,,,,,,white,cross
0.0,1.0,0.5,0.0,6.0,6.0,449.8244259739294,7.0,1.0,phase_2,go,1300.0,1400.0,1.0,,,,,,,,,white,cross
0.0,7.0,2.0,1.0,5.0,0.0,0.0,7.0,1.0,phase_2,stop,1300.0,1400.0,4.0,,,,,,,,,magenta,I
0.0,3.0,2.0,0.0,6.0,6.0,523.530063976068,7.0,1.0,phase_2,go,1350.0,1400.0,1.0,,,,,,,,,cyan,triangle
0.0,6.0,1.0,1.0,6.0,6.0,1238.337524002418,7.0,1.0,phase_2,stop,1350.0,1400.0,3.0,,,,,,,,,yellow,square
0.0,8.0,4.0,1.0,5.0,5.0,816.9192139757797,8.0,1.0,phase_2,stop,1350.0,1350.0,3.0,,,,,,,,,blue,hexagon
0.0,7.0,2.0,1.0,6.0,6.0,1460.2241329848766,8.0,1.0,phase_2,stop,1300.0,1350.0,3.0,,,,,,,,,magenta,I
0.0,2.0,1.0,0.0,6.0,0.0,0.0,8.0,1.0,phase_2,go,1300.0,1300.0,5.0,,,,,,,,,orange,diamond
0.0,8.0,4.0,1.0,6.0,0.0,0.0,8.0,1.0,phase_2,stop,1300.0,1300.0,4.0,,,,,,,,,blue,hexagon
0.0,5.0,0.5,1.0,5.0,0.0,0.0,8.0,1.0,phase_2,stop,1300.0,1350.0,4.0,,,,,,,,,green,circle
0.0,8.0,4.0,1.0,5.0,0.0,0.0,8.0,1.0,phase_2,go,1350.0,1350.0,5.0,,,,,,,,,blue,hexagon
0.0,8.0,4.0,1.0,6.0,6.0,1144.1205180017278,8.0,1.0,phase_2,go,1350.0,1350.0,1.0,,,,,,,,,blue,hexagon
0.0,4.0,4.0,0.0,5.0,5.0,525.8374440018088,8.0,1.0,phase_2,go,1350.0,1350.0,1.0,,,,,,,,,gray,flipped triangle
0.0,6.0,1.0,1.0,5.0,5.0,814.7790069924667,8.0,1.0,phase_2,stop,1350.0,1350.0,3.0,,,,,,,,,yellow,square
0.0,4.0,4.0,0.0,5.0,5.0,517.2143939998932,8.0,1.0,phase_2,go,1300.0,1350.0,1.0,,,,,,,,,gray,flipped triangle
0.0,5.0,0.5,1.0,5.0,5.0,1469.3714489694685,8.0,1.0,phase_2,stop,1300.0,1350.0,3.0,,,,,,,,,green,circle
0.0,4.0,4.0,0.0,6.0,6.0,534.462561015971,8.0,1.0,phase_2,go,1250.0,1350.0,1.0,,,,,,,,,gray,flipped triangle
0.0,8.0,4.0,1.0,5.0,0.0,0.0,8.0,1.0,phase_2,stop,1250.0,1350.0,4.0,,,,,,,,,blue,hexagon
0.0,3.0,2.0,0.0,6.0,6.0,490.205681999214,8.0,1.0,phase_2,go,1300.0,1350.0,1.0,,,,,,,,,cyan,triangle
0.0,3.0,2.0,0.0,6.0,6.0,460.4047000175342,8.0,1.0,phase_2,go,1300.0,1350.0,1.0,,,,,,,,,cyan,triangle
0.0,2.0,1.0,0.0,5.0,5.0,1348.6227940302342,8.0,1.0,phase_2,go,1300.0,1350.0,1.0,,,,,,,,,orange,diamond
0.0,1.0,0.5,0.0,5.0,5.0,478.0248629976995,8.0,1.0,phase_2,go,1300.0,1350.0,1.0,,,,,,,,,white,cross
0.0,8.0,4.0,1.0,5.0,0.0,0.0,8.0,1.0,phase_2,stop,1300.0,1350.0,4.0,,,,,,,,,blue,hexagon
0.0,8.0,4.0,1.0,6.0,0.0,0.0,8.0,1.0,phase_2,stop,1350.0,1350.0,4.0,,,,,,,,,blue,hexagon
0.0,6.0,1.0,1.0,6.0,0.0,0.0,8.0,1.0,phase_2,go,1350.0,1400.0,5.0,,,,,,,,,yellow,square
0.0,4.0,4.0,0.0,6.0,6.0,449.8032600386068,8.0,1.0,phase_2,go,1350.0,1400.0,1.0,,,,,,,,,gray,flipped triangle
0.0,1.0,0.5,0.0,6.0,6.0,496.5806840336881,8.0,1.0,phase_2,go,1350.0,1400.0,1.0,,,,,,,,,white,cross
0.0,3.0,2.0,0.0,6.0,6.0,393.1816670228727,8.0,1.0,phase_2,go,1350.0,1400.0,1.0,,,,,,,,,cyan,triangle
0.0,5.0,0.5,1.0,5.0,0.0,0.0,8.0,1.0,phase_2,go,1350.0,1400.0,5.0,,,,,,,,,green,circle
0.0,8.0,4.0,1.0,5.0,5.0,487.749759980943,8.0,1.0,phase_2,go,1350.0,1400.0,1.0,,,,,,,,,blue,hexagon
0.0,1.0,0.5,0.0,6.0,6.0,366.8501120409928,8.0,1.0,phase_2,go,1350.0,1400.0,1.0,,,,,,,,,white,cross
0.0,1.0,0.5,0.0,5.0,5.0,403.7505639716983,8.0,1.0,phase_2,go,1350.0,1400.0,1.0,,,,,,,,,white,cross
0.0,5.0,0.5,1.0,6.0,6.0,383.5591549868695,8.0,1.0,phase_2,stop,1350.0,1400.0,3.0,,,,,,,,,green,circle
0.0,7.0,2.0,1.0,5.0,5.0,1491.61282699788,8.0,1.0,phase_2,stop,1350.0,1350.0,3.0,,,,,,,,,magenta,I
0.0,2.0,1.0,0.0,6.0,6.0,572.1085210097954,8.0,1.0,phase_2,go,1300.0,1350.0,1.0,,,,,,,,,orange,diamond
0.0,1.0,0.5,0.0,6.0,6.0,403.18008500617,8.0,1.0,phase_2,go,1300.0,1350.0,1.0,,,,,,,,,white,cross
0.0,4.0,4.0,0.0,5.0,5.0,626.8073579994962,8.0,1.0,phase_2,go,1300.0,1350.0,1.0,,,,,,,,,gray,flipped triangle
0.0,7.0,2.0,1.0,6.0,6.0,1401.5614049858414,8.0,1.0,phase_2,stop,1300.0,1350.0,3.0,,,,,,,,,magenta,I
0.0,3.0,2.0,0.0,5.0,5.0,507.5320390169509,8.0,1.0,phase_2,go,1300.0,1300.0,1.0,,,,,,,,,cyan,triangle
0.0,4.0,4.0,0.0,5.0,5.0,516.8586280196905,8.0,1.0,phase_2,go,1300.0,1300.0,1.0,,,,,,,,,gray,flipped triangle
0.0,4.0,4.0,0.0,6.0,6.0,366.1810680059716,8.0,1.0,phase_2,go,1300.0,1300.0,1.0,,,,,,,,,gray,flipped triangle
0.0,1.0,0.5,0.0,7.0,3.0,2686.745502986014,1.0,1.0,phase_3,,,,,810.0,6.0,540.0,270.0,810.0,135.0,675.0,405.0,white,cross
0.0,3.0,2.0,0.0,7.0,5.0,317.3273830325342,1.0,1.0,phase_3,,,,,540.0,4.0,675.0,405.0,135.0,810.0,540.0,270.0,cyan,triangle
0.0,6.0,1.0,1.0,7.0,4.0,2363.615551032126,1.0,1.0,phase_3,,,,,116.0,1.0,696.0,580.0,232.0,116.0,348.0,464.0,yellow,square
0.0,8.0,4.0,1.0,7.0,3.0,2844.3761609960347,1.0,1.0,phase_3,,,,,768.0,4.0,576.0,960.0,768.0,192.0,1152.0,384.0,blue,hexagon
0.0,1.0,0.5,0.0,7.0,3.0,1157.0828440017067,1.0,1.0,phase_3,,,,,540.0,4.0,810.0,405.0,540.0,270.0,135.0,675.0,white,cross
0.0,6.0,1.0,1.0,7.0,4.0,3404.7438640263863,1.0,1.0,phase_3,,,,,405.0,3.0,270.0,540.0,810.0,405.0,135.0,675.0,yellow,square
0.0,6.0,1.0,1.0,7.0,2.0,2462.0089050149545,1.0,1.0,phase_3,,,,,865.0,5.0,692.0,865.0,1038.0,173.0,519.0,346.0,yellow,square
0.0,3.0,2.0,0.0,7.0,5.0,1779.1739020030946,1.0,1.0,phase_3,,,,,232.0,2.0,580.0,348.0,696.0,464.0,232.0,116.0,cyan,triangle
0.0,2.0,1.0,0.0,7.0,2.0,2932.416591036599,1.0,1.0,phase_3,,,,,519.0,3.0,1038.0,519.0,173.0,865.0,692.0,346.0,orange,diamond
0.0,4.0,4.0,0.0,7.0,6.0,1499.3134469841607,1.0,1.0,phase_3,,,,,384.0,2.0,960.0,576.0,192.0,1152.0,768.0,384.0,gray,flipped triangle
0.0,3.0,2.0,0.0,7.0,4.0,1732.9431480029598,1.0,1.0,phase_3,,,,,405.0,3.0,135.0,675.0,810.0,405.0,270.0,540.0,cyan,triangle
0.0,6.0,1.0,1.0,7.0,1.0,1071.55595702352,1.0,1.0,phase_3,,,,,675.0,5.0,675.0,810.0,540.0,135.0,405.0,270.0,yellow,square
0.0,7.0,2.0,1.0,7.0,6.0,4143.500401987694,1.0,1.0,phase_3,,,,,384.0,2.0,768.0,576.0,960.0,192.0,1152.0,384.0,magenta,I
0.0,8.0,4.0,1.0,7.0,4.0,1510.987046000082,1.0,1.0,phase_3,,,,,519.0,3.0,173.0,346.0,865.0,519.0,1038.0,692.0,blue,hexagon
0.0,7.0,2.0,1.0,7.0,4.0,3515.841601009015,1.0,1.0,phase_3,,,,,865.0,5.0,519.0,346.0,1038.0,865.0,692.0,173.0,magenta,I
0.0,8.0,4.0,1.0,7.0,6.0,1503.5931440070271,1.0,1.0,phase_3,,,,,519.0,3.0,173.0,346.0,1038.0,692.0,865.0,519.0,blue,hexagon
0.0,3.0,2.0,0.0,7.0,1.0,907.1148840012028,1.0,1.0,phase_3,,,,,692.0,4.0,692.0,346.0,1038.0,173.0,865.0,519.0,cyan,triangle
0.0,7.0,2.0,1.0,7.0,2.0,1809.9757940508423,1.0,1.0,phase_3,,,,,405.0,3.0,810.0,405.0,270.0,675.0,540.0,135.0,magenta,I
0.0,4.0,4.0,0.0,7.0,1.0,4502.383109007496,1.0,1.0,phase_3,,,,,519.0,3.0,519.0,692.0,346.0,173.0,865.0,1038.0,gray,flipped triangle
0.0,1.0,0.5,0.0,7.0,4.0,4589.295216021128,1.0,1.0,phase_3,,,,,580.0,5.0,696.0,348.0,116.0,580.0,464.0,232.0,white,cross
0.0,4.0,4.0,0.0,7.0,4.0,1173.099157982506,2.0,1.0,phase_3,,,,,384.0,2.0,960.0,192.0,1152.0,384.0,768.0,576.0,gray,flipped triangle
0.0,1.0,0.5,0.0,7.0,3.0,941.3511420134456,2.0,1.0,phase_3,,,,,770.0,5.0,462.0,924.0,770.0,154.0,308.0,616.0,white,cross
0.0,3.0,2.0,0.0,7.0,2.0,1945.8738979883487,2.0,1.0,phase_3,,,,,576.0,3.0,384.0,576.0,192.0,768.0,1152.0,960.0,cyan,triangle
0.0,1.0,0.5,0.0,7.0,1.0,1592.2573760035448,2.0,1.0,phase_3,,,,,192.0,1.0,192.0,384.0,1152.0,768.0,576.0,960.0,white,cross
0.0,4.0,4.0,0.0,7.0,5.0,2862.3543679714203,2.0,1.0,phase_3,,,,,405.0,3.0,675.0,270.0,540.0,135.0,405.0,810.0,gray,flipped triangle
0.0,7.0,2.0,1.0,7.0,2.0,1076.1920610093512,2.0,1.0,phase_3,,,,,770.0,5.0,154.0,770.0,616.0,924.0,462.0,308.0,magenta,I
0.0,2.0,1.0,0.0,7.0,3.0,1929.1739229811355,2.0,1.0,phase_3,,,,,232.0,2.0,580.0,696.0,232.0,348.0,464.0,116.0,orange,diamond
0.0,8.0,4.0,1.0,7.0,5.0,971.407532982994,2.0,1.0,phase_3,,,,,464.0,4.0,348.0,580.0,116.0,696.0,464.0,232.0,blue,hexagon
0.0,5.0,0.5,1.0,7.0,4.0,1358.9962709811516,2.0,1.0,phase_3,,,,,580.0,5.0,348.0,696.0,464.0,580.0,116.0,232.0,green,circle
0.0,3.0,2.0,0.0,7.0,6.0,1052.007945952937,2.0,1.0,phase_3,,,,,960.0,5.0,1152.0,192.0,576.0,768.0,384.0,960.0,cyan,triangle
0.0,5.0,0.5,1.0,7.0,1.0,1895.1412489986976,2.0,1.0,phase_3,,,,,692.0,4.0,692.0,865.0,173.0,346.0,519.0,1038.0,green,circle
0.0,5.0,0.5,1.0,7.0,4.0,1453.498116985429,2.0,1.0,phase_3,,,,,346.0,2.0,692.0,1038.0,519.0,346.0,173.0,865.0,green,circle
0.0,1.0,0.5,0.0,7.0,3.0,2342.039124981966,2.0,1.0,phase_3,,,,,1038.0,6.0,173.0,519.0,1038.0,346.0,865.0,692.0,white,cross
0.0,3.0,2.0,0.0,7.0,5.0,551.5176720218733,2.0,1.0,phase_3,,,,,519.0,3.0,346.0,692.0,173.0,865.0,519.0,1038.0,cyan,triangle
0.0,4.0,4.0,0.0,7.0,2.0,633.9326649904251,2.0,1.0,phase_3,,,,,462.0,3.0,154.0,462.0,616.0,924.0,770.0,308.0,gray,flipped triangle
0.0,4.0,4.0,0.0,7.0,1.0,437.8836370306089,2.0,1.0,phase_3,,,,,692.0,4.0,692.0,173.0,1038.0,519.0,865.0,346.0,gray,flipped triangle
0.0,6.0,1.0,1.0,7.0,5.0,1155.9660749626346,2.0,1.0,phase_3,,,,,154.0,1.0,616.0,770.0,462.0,308.0,154.0,924.0,yellow,square
0.0,5.0,0.5,1.0,7.0,1.0,1925.0435750000177,2.0,1.0,phase_3,,,,,960.0,5.0,960.0,576.0,384.0,192.0,768.0,1152.0,green,circle
0.0,5.0,0.5,1.0,7.0,5.0,614.6818200359121,2.0,1.0,phase_3,,,,,770.0,5.0,462.0,308.0,616.0,924.0,770.0,154.0,green,circle
0.0,1.0,0.5,0.0,7.0,2.0,2488.00333798863,2.0,1.0,phase_3,,,,,308.0,2.0,616.0,308.0,154.0,924.0,770.0,462.0,white,cross
0.0,8.0,4.0,1.0,7.0,3.0,2978.084775968455,3.0,1.0,phase_3,,,,,580.0,5.0,696.0,348.0,580.0,232.0,116.0,464.0,blue,hexagon
0.0,8.0,4.0,1.0,7.0,4.0,1437.3276369879022,3.0,1.0,phase_3,,,,,810.0,6.0,675.0,270.0,540.0,810.0,405.0,135.0,blue,hexagon
0.0,2.0,1.0,0.0,7.0,5.0,1553.9243100211024,3.0,1.0,phase_3,,,,,346.0,2.0,1038.0,173.0,692.0,519.0,346.0,865.0,orange,diamond
0.0,2.0,1.0,0.0,7.0,5.0,1970.86785803549,3.0,1.0,phase_3,,,,,384.0,2.0,576.0,192.0,768.0,960.0,384.0,1152.0,orange,diamond
0.0,7.0,2.0,1.0,7.0,6.0,1342.169958981685,3.0,1.0,phase_3,,,,,580.0,5.0,464.0,348.0,116.0,232.0,696.0,580.0,magenta,I
0.0,4.0,4.0,0.0,7.0,2.0,856.3397960388102,3.0,1.0,phase_3,,,,,116.0,1.0,464.0,116.0,348.0,580.0,232.0,696.0,gray,flipped triangle
0.0,7.0,2.0,1.0,7.0,2.0,1053.317885962315,3.0,1.0,phase_3,,,,,232.0,2.0,116.0,232.0,580.0,348.0,464.0,696.0,magenta,I
0.0,6.0,1.0,1.0,7.0,4.0,1276.2989230104722,3.0,1.0,phase_3,,,,,192.0,1.0,576.0,768.0,960.0,192.0,384.0,1152.0,yellow,square
0.0,6.0,1.0,1.0,7.0,4.0,848.6379900132306,3.0,1.0,phase_3,,,,,770.0,5.0,924.0,462.0,308.0,770.0,616.0,154.0,yellow,square
0.0,2.0,1.0,0.0,7.0,5.0,642.1732120215893,3.0,1.0,phase_3,,,,,580.0,5.0,464.0,348.0,116.0,696.0,580.0,232.0,orange,diamond
0.0,3.0,2.0,0.0,7.0,1.0,715.6170289963484,3.0,1.0,phase_3,,,,,924.0,6.0,924.0,154.0,770.0,308.0,462.0,616.0,cyan,triangle
0.0,1.0,0.5,0.0,7.0,2.0,885.0464489660226,3.0,1.0,phase_3,,,,,865.0,5.0,173.0,865.0,692.0,346.0,519.0,1038.0,white,cross
0.0,6.0,1.0,1.0,7.0,4.0,1078.3352819853462,3.0,1.0,phase_3,,,,,464.0,4.0,116.0,348.0,696.0,464.0,580.0,232.0,yellow,square
0.0,2.0,1.0,0.0,7.0,6.0,540.7607849920169,3.0,1.0,phase_3,,,,,308.0,2.0,924.0,462.0,770.0,154.0,616.0,308.0,orange,diamond
0.0,5.0,0.5,1.0,7.0,4.0,987.597854982596,3.0,1.0,phase_3,,,,,348.0,3.0,580.0,232.0,696.0,348.0,464.0,116.0,green,circle
0.0,3.0,2.0,0.0,7.0,1.0,903.7164770415984,3.0,1.0,phase_3,,,,,616.0,4.0,616.0,924.0,154.0,308.0,462.0,770.0,cyan,triangle
0.0,3.0,2.0,0.0,7.0,5.0,2175.894887011964,3.0,1.0,phase_3,,,,,580.0,5.0,696.0,464.0,232.0,116.0,580.0,348.0,cyan,triangle
0.0,8.0,4.0,1.0,7.0,4.0,1007.3065519682132,3.0,1.0,phase_3,,,,,384.0,2.0,960.0,768.0,192.0,384.0,1152.0,576.0,blue,hexagon
0.0,8.0,4.0,1.0,7.0,2.0,1277.921035012696,3.0,1.0,phase_3,,,,,308.0,2.0,154.0,308.0,924.0,462.0,770.0,616.0,blue,hexagon
0.0,2.0,1.0,0.0,7.0,5.0,1666.8490630108863,3.0,1.0,phase_3,,,,,384.0,2.0,576.0,1152.0,960.0,192.0,384.0,768.0,orange,diamond
0.0,7.0,2.0,1.0,7.0,4.0,811.6941610351205,4.0,1.0,phase_3,,,,,770.0,5.0,462.0,308.0,154.0,770.0,924.0,616.0,magenta,I
0.0,2.0,1.0,0.0,7.0,1.0,1035.0096760084853,4.0,1.0,phase_3,,,,,616.0,4.0,616.0,770.0,154.0,924.0,462.0,308.0,orange,diamond
0.0,8.0,4.0,1.0,7.0,3.0,923.7490569939836,4.0,1.0,phase_3,,,,,924.0,6.0,462.0,770.0,924.0,616.0,308.0,154.0,blue,hexagon
0.0,2.0,1.0,0.0,7.0,6.0,877.3159789852798,4.0,1.0,phase_3,,,,,405.0,3.0,675.0,270.0,540.0,135.0,810.0,405.0,orange,diamond
0.0,8.0,4.0,1.0,7.0,1.0,2088.2563270279206,4.0,1.0,phase_3,,,,,675.0,5.0,675.0,810.0,135.0,405.0,540.0,270.0,blue,hexagon
0.0,5.0,0.5,1.0,7.0,2.0,624.1826050099917,4.0,1.0,phase_3,,,,,154.0,1.0,770.0,154.0,462.0,616.0,308.0,924.0,green,circle
0.0,4.0,4.0,0.0,7.0,3.0,690.3500779881142,4.0,1.0,phase_3,,,,,270.0,2.0,810.0,135.0,270.0,540.0,405.0,675.0,gray,flipped triangle
0.0,1.0,0.5,0.0,7.0,6.0,976.270412968006,4.0,1.0,phase_3,,,,,116.0,1.0,348.0,232.0,464.0,580.0,696.0,116.0,white,cross
0.0,7.0,2.0,1.0,7.0,4.0,940.4404839733616,4.0,1.0,phase_3,,,,,540.0,4.0,810.0,675.0,405.0,540.0,270.0,135.0,magenta,I
0.0,4.0,4.0,0.0,7.0,2.0,1518.7186099938117,4.0,1.0,phase_3,,,,,232.0,2.0,116.0,232.0,348.0,464.0,580.0,696.0,gray,flipped triangle
0.0,7.0,2.0,1.0,7.0,3.0,1524.3039919878356,4.0,1.0,phase_3,,,,,865.0,5.0,1038.0,519.0,865.0,692.0,346.0,173.0,magenta,I
0.0,1.0,0.5,0.0,7.0,5.0,1051.317255012691,4.0,1.0,phase_3,,,,,384.0,2.0,960.0,768.0,576.0,1152.0,384.0,192.0,white,cross
0.0,5.0,0.5,1.0,7.0,5.0,1125.7761659799144,4.0,1.0,phase_3,,,,,1152.0,6.0,960.0,576.0,384.0,192.0,1152.0,768.0,green,circle
0.0,7.0,2.0,1.0,7.0,2.0,793.5220409999602,4.0,1.0,phase_3,,,,,576.0,3.0,384.0,576.0,960.0,1152.0,768.0,192.0,magenta,I
0.0,2.0,1.0,0.0,7.0,4.0,737.7807199954987,4.0,1.0,phase_3,,,,,810.0,6.0,270.0,540.0,405.0,810.0,675.0,135.0,orange,diamond
0.0,6.0,1.0,1.0,7.0,2.0,978.04284398444,4.0,1.0,phase_3,,,,,865.0,5.0,173.0,865.0,519.0,692.0,346.0,1038.0,yellow,square
0.0,4.0,4.0,0.0,7.0,4.0,957.5922369840556,4.0,1.0,phase_3,,,,,154.0,1.0,924.0,770.0,616.0,154.0,308.0,462.0,gray,flipped triangle
0.0,5.0,0.5,1.0,7.0,6.0,997.660071006976,4.0,1.0,phase_3,,,,,405.0,3.0,810.0,135.0,675.0,540.0,270.0,405.0,green,circle
0.0,5.0,0.5,1.0,7.0,1.0,911.7211439879612,4.0,1.0,phase_3,,,,,540.0,4.0,540.0,135.0,810.0,675.0,405.0,270.0,green,circle
0.0,6.0,1.0,1.0,7.0,4.0,1973.0369210010397,4.0,1.0,phase_3,,,,,576.0,3.0,768.0,960.0,192.0,576.0,384.0,1152.0,yellow,square
