raw_reward_magnitude,stim_reward,stepwise_reward_magnitude,paired_with_stopping,stim_location,response,reaction_time,block,num_trial_presentations,which_phase,stop_signal_trial_type,left_SSD,right_SSD,accuracy,chosen_bidding_amount,chosen_bidding_level,possible_bid_1,possible_bid_2,possible_bid_3,possible_bid_4,possible_bid_5,possible_bid_6,color_text,shape_text
0.0,5.0,0.0,1.0,2.0,2.0,380.3918179999073,1.0,1.0,phase_1,,,,,,,,,,,,,white,circle
140.0,5.0,0.5,1.0,2.0,2.0,314.8236029999225,1.0,1.0,phase_1,,,,,,,,,,,,,white,circle
0.0,6.0,0.0,1.0,4.0,4.0,351.8695689999731,1.0,1.0,phase_1,,,,,,,,,,,,,magenta,hexagon
0.0,6.0,0.0,1.0,2.0,2.0,417.70401899998427,1.0,1.0,phase_1,,,,,,,,,,,,,magenta,hexagon
313.0,6.0,1.0,1.0,2.0,2.0,323.2028300001275,1.0,1.0,phase_1,,,,,,,,,,,,,magenta,hexagon
1315.0,4.0,4.0,0.0,4.0,4.0,318.2165180000993,1.0,1.0,phase_1,,,,,,,,,,,,,cyan,I
172.0,1.0,0.5,0.0,2.0,2.0,315.3212980000717,1.0,1.0,phase_1,,,,,,,,,,,,,orange,flipped triangle
0.0,6.0,0.0,1.0,2.0,2.0,361.4856750000399,1.0,1.0,phase_1,,,,,,,,,,,,,magenta,hexagon
346.0,6.0,1.0,1.0,1.0,1.0,351.5351959999861,1.0,2.0,phase_1,,,,,,,,,,,,,magenta,hexagon
0.0,2.0,0.0,0.0,4.0,4.0,325.2097790000334,1.0,2.0,phase_1,,,,,,,,,,,,,yellow,cross
1285.0,8.0,4.0,1.0,3.0,3.0,343.7986459998683,1.0,1.0,phase_1,,,,,,,,,,,,,green,square
318.0,6.0,1.0,1.0,2.0,2.0,453.2381520000399,1.0,1.0,phase_1,,,,,,,,,,,,,magenta,hexagon
650.0,7.0,2.0,1.0,4.0,4.0,343.2140049999361,1.0,1.0,phase_1,,,,,,,,,,,,,gray,diamond
1321.0,4.0,4.0,0.0,2.0,2.0,436.8566220000502,1.0,1.0,phase_1,,,,,,,,,,,,,cyan,I
635.0,7.0,2.0,1.0,4.0,4.0,444.0876670000762,1.0,1.0,phase_1,,,,,,,,,,,,,gray,diamond
0.0,4.0,0.0,0.0,2.0,2.0,408.767583999861,1.0,1.0,phase_1,,,,,,,,,,,,,cyan,I
1294.0,8.0,4.0,1.0,3.0,3.0,428.0856759999096,1.0,1.0,phase_1,,,,,,,,,,,,,green,square
163.0,1.0,0.5,0.0,4.0,4.0,269.5130570000401,1.0,1.0,phase_1,,,,,,,,,,,,,orange,flipped triangle
664.0,7.0,2.0,1.0,4.0,4.0,306.7498559998967,1.0,1.0,phase_1,,,,,,,,,,,,,gray,diamond
674.0,7.0,2.0,1.0,1.0,1.0,453.5504169998603,1.0,2.0,phase_1,,,,,,,,,,,,,gray,diamond
663.0,7.0,2.0,1.0,2.0,2.0,351.4358929999162,1.0,1.0,phase_1,,,,,,,,,,,,,gray,diamond
1276.0,8.0,4.0,1.0,2.0,2.0,305.9676380000837,1.0,1.0,phase_1,,,,,,,,,,,,,green,square
1300.0,4.0,4.0,0.0,2.0,2.0,296.8400949998795,1.0,1.0,phase_1,,,,,,,,,,,,,cyan,I
1275.0,4.0,4.0,0.0,2.0,2.0,288.4180329999708,1.0,1.0,phase_1,,,,,,,,,,,,,cyan,I
148.0,5.0,0.5,1.0,4.0,4.0,363.0880230000457,1.0,1.0,phase_1,,,,,,,,,,,,,white,circle
329.0,6.0,1.0,1.0,1.0,1.0,362.3030609999205,1.0,1.0,phase_1,,,,,,,,,,,,,magenta,hexagon
625.0,7.0,2.0,1.0,4.0,4.0,334.7052499998426,1.0,1.0,phase_1,,,,,,,,,,,,,gray,diamond
307.0,6.0,1.0,1.0,4.0,4.0,306.8494729998292,1.0,1.0,phase_1,,,,,,,,,,,,,magenta,hexagon
312.0,6.0,1.0,1.0,2.0,2.0,251.2788700000783,1.0,1.0,phase_1,,,,,,,,,,,,,magenta,hexagon
1303.0,4.0,4.0,0.0,2.0,2.0,288.1213080001998,1.0,1.0,phase_1,,,,,,,,,,,,,cyan,I
174.0,1.0,0.5,0.0,3.0,3.0,389.2968089999158,1.0,2.0,phase_1,,,,,,,,,,,,,orange,flipped triangle
1323.0,4.0,4.0,0.0,4.0,4.0,370.0231390000681,1.0,1.0,phase_1,,,,,,,,,,,,,cyan,I
0.0,3.0,0.0,0.0,3.0,3.0,416.7495429999235,1.0,1.0,phase_1,,,,,,,,,,,,,blue,triangle
160.0,1.0,0.5,0.0,3.0,3.0,314.6792760001062,1.0,1.0,phase_1,,,,,,,,,,,,,orange,flipped triangle
1285.0,4.0,4.0,0.0,1.0,1.0,324.1492509998807,1.0,1.0,phase_1,,,,,,,,,,,,,cyan,I
170.0,1.0,0.5,0.0,1.0,1.0,426.5147410001191,1.0,1.0,phase_1,,,,,,,,,,,,,orange,flipped triangle
0.0,8.0,0.0,1.0,1.0,1.0,397.8035259999615,1.0,1.0,phase_1,,,,,,,,,,,,,green,square
0.0,5.0,0.0,1.0,4.0,4.0,434.760992000065,1.0,1.0,phase_1,,,,,,,,,,,,,white,circle
651.0,7.0,2.0,1.0,1.0,1.0,371.2482270000237,1.0,1.0,phase_1,,,,,,,,,,,,,gray,diamond
330.0,2.0,1.0,0.0,4.0,4.0,341.7101320001166,1.0,1.0,phase_1,,,,,,,,,,,,,yellow,cross
0.0,7.0,0.0,1.0,3.0,3.0,315.0499090002086,1.0,1.0,phase_1,,,,,,,,,,,,,gray,diamond
0.0,4.0,0.0,0.0,3.0,3.0,324.8352450000311,1.0,1.0,phase_1,,,,,,,,,,,,,cyan,I
301.0,6.0,1.0,1.0,3.0,3.0,324.3942619999416,1.0,1.0,phase_1,,,,,,,,,,,,,magenta,hexagon
145.0,5.0,0.5,1.0,3.0,3.0,501.04378099990754,1.0,1.0,phase_1,,,,,,,,,,,,,white,circle
632.0,3.0,2.0,0.0,4.0,4.0,296.6368900001725,1.0,1.0,phase_1,,,,,,,,,,,,,blue,triangle
1284.0,8.0,4.0,1.0,1.0,1.0,306.0984500000359,1.0,1.0,phase_1,,,,,,,,,,,,,green,square
168.0,1.0,0.5,0.0,1.0,1.0,325.1880830000573,1.0,2.0,phase_1,,,,,,,,,,,,,orange,flipped triangle
177.0,1.0,0.5,0.0,2.0,2.0,324.4547760000387,1.0,1.0,phase_1,,,,,,,,,,,,,orange,flipped triangle
144.0,5.0,0.5,1.0,4.0,4.0,361.213404999944,1.0,1.0,phase_1,,,,,,,,,,,,,white,circle
346.0,2.0,1.0,0.0,1.0,1.0,324.8633159998917,1.0,1.0,phase_1,,,,,,,,,,,,,yellow,cross
0.0,3.0,0.0,0.0,2.0,2.0,273.6282289999963,1.0,1.0,phase_1,,,,,,,,,,,,,blue,triangle
0.0,3.0,0.0,0.0,4.0,4.0,296.8046819999017,1.0,1.0,phase_1,,,,,,,,,,,,,blue,triangle
0.0,3.0,0.0,0.0,3.0,3.0,399.2318950001845,1.0,1.0,phase_1,,,,,,,,,,,,,blue,triangle
330.0,6.0,1.0,1.0,2.0,2.0,341.9584210000721,1.0,1.0,phase_1,,,,,,,,,,,,,magenta,hexagon
145.0,1.0,0.5,0.0,2.0,2.0,286.4340880000782,1.0,1.0,phase_1,,,,,,,,,,,,,orange,flipped triangle
0.0,6.0,0.0,1.0,2.0,2.0,268.2917440001802,1.0,1.0,phase_1,,,,,,,,,,,,,magenta,hexagon
333.0,2.0,1.0,0.0,2.0,2.0,335.541264000085,1.0,1.0,phase_1,,,,,,,,,,,,,yellow,cross
0.0,7.0,0.0,1.0,4.0,4.0,343.3207230000334,1.0,1.0,phase_1,,,,,,,,,,,,,gray,diamond
670.0,7.0,2.0,1.0,2.0,2.0,269.0781129999777,1.0,1.0,phase_1,,,,,,,,,,,,,gray,diamond
631.0,7.0,2.0,1.0,2.0,2.0,445.541558000059,1.0,1.0,phase_1,,,,,,,,,,,,,gray,diamond
331.0,6.0,1.0,1.0,1.0,1.0,334.3536129998483,1.0,1.0,phase_1,,,,,,,,,,,,,magenta,hexagon
1295.0,4.0,4.0,0.0,1.0,1.0,362.0950060001178,1.0,1.0,phase_1,,,,,,,,,,,,,cyan,I
145.0,5.0,0.5,1.0,3.0,3.0,326.5041749998545,1.0,1.0,phase_1,,,,,,,,,,,,,white,circle
333.0,6.0,1.0,1.0,3.0,3.0,380.4897259999507,1.0,1.0,phase_1,,,,,,,,,,,,,magenta,hexagon
176.0,1.0,0.5,0.0,4.0,4.0,335.1954370000385,1.0,1.0,phase_1,,,,,,,,,,,,,orange,flipped triangle
309.0,2.0,1.0,0.0,1.0,1.0,344.0831809998599,1.0,1.0,phase_1,,,,,,,,,,,,,yellow,cross
638.0,7.0,2.0,1.0,3.0,3.0,455.7235739998759,1.0,1.0,phase_1,,,,,,,,,,,,,gray,diamond
322.0,6.0,1.0,1.0,3.0,3.0,315.8947750000607,1.0,1.0,phase_1,,,,,,,,,,,,,magenta,hexagon
657.0,3.0,2.0,0.0,3.0,3.0,334.0816679999534,1.0,1.0,phase_1,,,,,,,,,,,,,blue,triangle
166.0,5.0,0.5,1.0,2.0,2.0,325.2830300000369,1.0,1.0,phase_1,,,,,,,,,,,,,white,circle
0.0,2.0,0.0,0.0,4.0,4.0,369.7534200000518,1.0,1.0,phase_1,,,,,,,,,,,,,yellow,cross
0.0,8.0,0.0,1.0,3.0,3.0,342.6172319998386,1.0,1.0,phase_1,,,,,,,,,,,,,green,square
346.0,6.0,1.0,1.0,3.0,3.0,361.9598809998479,1.0,1.0,phase_1,,,,,,,,,,,,,magenta,hexagon
654.0,3.0,2.0,0.0,2.0,2.0,370.5864790001669,1.0,2.0,phase_1,,,,,,,,,,,,,blue,triangle
152.0,5.0,0.5,1.0,1.0,1.0,361.1654900000758,1.0,1.0,phase_1,,,,,,,,,,,,,white,circle
0.0,8.0,0.0,1.0,1.0,1.0,343.5966530000769,1.0,1.0,phase_1,,,,,,,,,,,,,green,square
1303.0,8.0,4.0,1.0,1.0,1.0,361.3573479999559,1.0,1.0,phase_1,,,,,,,,,,,,,green,square
0.0,7.0,0.0,1.0,2.0,2.0,305.3461399999833,1.0,1.0,phase_1,,,,,,,,,,,,,gray,diamond
168.0,5.0,0.5,1.0,1.0,1.0,341.8243510000138,1.0,1.0,phase_1,,,,,,,,,,,,,white,circle
141.0,5.0,0.5,1.0,1.0,1.0,344.2615060000662,1.0,1.0,phase_1,,,,,,,,,,,,,white,circle
643.0,7.0,2.0,1.0,4.0,4.0,528.2911429999331,1.0,2.0,phase_1,,,,,,,,,,,,,gray,diamond
0.0,2.0,0.0,0.0,1.0,1.0,416.0422830000243,1.0,1.0,phase_1,,,,,,,,,,,,,yellow,cross
338.0,2.0,1.0,0.0,3.0,3.0,546.4073680000183,1.0,1.0,phase_1,,,,,,,,,,,,,yellow,cross
153.0,5.0,0.5,1.0,2.0,2.0,527.8652550000515,1.0,1.0,phase_1,,,,,,,,,,,,,white,circle
141.0,1.0,0.5,0.0,4.0,4.0,463.7538509998649,1.0,1.0,phase_1,,,,,,,,,,,,,orange,flipped triangle
631.0,3.0,2.0,0.0,1.0,1.0,427.867229000185,1.0,1.0,phase_1,,,,,,,,,,,,,blue,triangle
0.0,5.0,0.0,1.0,4.0,4.0,370.7257460000619,1.0,1.0,phase_1,,,,,,,,,,,,,white,circle
626.0,3.0,2.0,0.0,4.0,4.0,388.5388609999154,1.0,1.0,phase_1,,,,,,,,,,,,,blue,triangle
658.0,7.0,2.0,1.0,4.0,4.0,351.1314180000227,1.0,1.0,phase_1,,,,,,,,,,,,,gray,diamond
160.0,5.0,0.5,1.0,1.0,1.0,288.504901999886,1.0,1.0,phase_1,,,,,,,,,,,,,white,circle
338.0,6.0,1.0,1.0,3.0,3.0,418.0298619999121,1.0,1.0,phase_1,,,,,,,,,,,,,magenta,hexagon
646.0,7.0,2.0,1.0,2.0,2.0,378.605989000107,1.0,1.0,phase_1,,,,,,,,,,,,,gray,diamond
1306.0,4.0,4.0,0.0,2.0,2.0,463.384896999969,1.0,1.0,phase_1,,,,,,,,,,,,,cyan,I
163.0,5.0,0.5,1.0,2.0,2.0,338.6316710000301,1.0,1.0,phase_1,,,,,,,,,,,,,white,circle
0.0,3.0,0.0,0.0,1.0,1.0,279.0282860000843,1.0,1.0,phase_1,,,,,,,,,,,,,blue,triangle
140.0,1.0,0.5,0.0,1.0,1.0,410.3013149999697,1.0,1.0,phase_1,,,,,,,,,,,,,orange,flipped triangle
331.0,2.0,1.0,0.0,1.0,1.0,306.0446859999501,1.0,1.0,phase_1,,,,,,,,,,,,,yellow,cross
177.0,1.0,0.5,0.0,2.0,2.0,370.2846139999565,1.0,1.0,phase_1,,,,,,,,,,,,,orange,flipped triangle
310.0,2.0,1.0,0.0,4.0,4.0,343.8532159998431,1.0,1.0,phase_1,,,,,,,,,,,,,yellow,cross
1301.0,4.0,4.0,0.0,1.0,1.0,400.4714160000731,1.0,1.0,phase_1,,,,,,,,,,,,,cyan,I
1323.0,8.0,4.0,1.0,4.0,4.0,417.9809849999856,2.0,1.0,phase_1,,,,,,,,,,,,,green,square
337.0,6.0,1.0,1.0,1.0,1.0,361.4992710001843,2.0,1.0,phase_1,,,,,,,,,,,,,magenta,hexagon
0.0,7.0,0.0,1.0,4.0,4.0,401.3157239999145,2.0,1.0,phase_1,,,,,,,,,,,,,gray,diamond
672.0,7.0,2.0,1.0,2.0,2.0,372.3805060001268,2.0,1.0,phase_1,,,,,,,,,,,,,gray,diamond
1294.0,4.0,4.0,0.0,3.0,3.0,343.0527680000068,2.0,1.0,phase_1,,,,,,,,,,,,,cyan,I
329.0,2.0,1.0,0.0,4.0,4.0,316.1652879998655,2.0,1.0,phase_1,,,,,,,,,,,,,yellow,cross
672.0,3.0,2.0,0.0,3.0,3.0,361.6761500002212,2.0,1.0,phase_1,,,,,,,,,,,,,blue,triangle
0.0,5.0,0.0,1.0,3.0,3.0,390.1491540000279,2.0,1.0,phase_1,,,,,,,,,,,,,white,circle
653.0,7.0,2.0,1.0,4.0,4.0,363.8344420000976,2.0,1.0,phase_1,,,,,,,,,,,,,gray,diamond
178.0,5.0,0.5,1.0,1.0,1.0,380.5527279998841,2.0,1.0,phase_1,,,,,,,,,,,,,white,circle
0.0,8.0,0.0,1.0,4.0,4.0,380.1599880000594,2.0,1.0,phase_1,,,,,,,,,,,,,green,square
0.0,7.0,0.0,1.0,4.0,4.0,342.8819630000816,2.0,1.0,phase_1,,,,,,,,,,,,,gray,diamond
1316.0,8.0,4.0,1.0,2.0,2.0,416.7840279999382,2.0,1.0,phase_1,,,,,,,,,,,,,green,square
346.0,6.0,1.0,1.0,1.0,1.0,333.8460919999306,2.0,1.0,phase_1,,,,,,,,,,,,,magenta,hexagon
627.0,3.0,2.0,0.0,3.0,3.0,316.2333689999741,2.0,1.0,phase_1,,,,,,,,,,,,,blue,triangle
176.0,5.0,0.5,1.0,4.0,4.0,362.4620770001456,2.0,1.0,phase_1,,,,,,,,,,,,,white,circle
333.0,6.0,1.0,1.0,3.0,3.0,370.7942930000172,2.0,1.0,phase_1,,,,,,,,,,,,,magenta,hexagon
1280.0,4.0,4.0,0.0,3.0,3.0,407.6777930001753,2.0,1.0,phase_1,,,,,,,,,,,,,cyan,I
1282.0,8.0,4.0,1.0,2.0,2.0,306.260894999923,2.0,1.0,phase_1,,,,,,,,,,,,,green,square
178.0,1.0,0.5,0.0,4.0,4.0,342.9535120001219,2.0,1.0,phase_1,,,,,,,,,,,,,orange,flipped triangle
161.0,5.0,0.5,1.0,2.0,2.0,370.8780250001382,2.0,1.0,phase_1,,,,,,,,,,,,,white,circle
643.0,7.0,2.0,1.0,4.0,4.0,315.8731910000369,2.0,1.0,phase_1,,,,,,,,,,,,,gray,diamond
0.0,2.0,0.0,0.0,1.0,1.0,380.3825330001018,2.0,1.0,phase_1,,,,,,,,,,,,,yellow,cross
168.0,5.0,0.5,1.0,4.0,4.0,325.3540069999872,2.0,1.0,phase_1,,,,,,,,,,,,,white,circle
1275.0,8.0,4.0,1.0,2.0,2.0,306.9575540000642,2.0,1.0,phase_1,,,,,,,,,,,,,green,square
0.0,8.0,0.0,1.0,2.0,2.0,325.2790849999201,2.0,1.0,phase_1,,,,,,,,,,,,,green,square
150.0,5.0,0.5,1.0,3.0,3.0,362.6637639999899,2.0,1.0,phase_1,,,,,,,,,,,,,white,circle
325.0,2.0,1.0,0.0,1.0,1.0,326.9311940000534,2.0,1.0,phase_1,,,,,,,,,,,,,yellow,cross
1321.0,8.0,4.0,1.0,1.0,1.0,389.8660100001052,2.0,1.0,phase_1,,,,,,,,,,,,,green,square
647.0,3.0,2.0,0.0,4.0,4.0,287.5348110001141,2.0,1.0,phase_1,,,,,,,,,,,,,blue,triangle
0.0,2.0,0.0,0.0,1.0,1.0,395.6587539998963,2.0,1.0,phase_1,,,,,,,,,,,,,yellow,cross
320.0,6.0,1.0,1.0,1.0,1.0,344.3254339999839,2.0,1.0,phase_1,,,,,,,,,,,,,magenta,hexagon
1324.0,4.0,4.0,0.0,2.0,2.0,288.6059840000143,2.0,1.0,phase_1,,,,,,,,,,,,,cyan,I
182.0,5.0,0.5,1.0,2.0,2.0,342.7355710000483,2.0,1.0,phase_1,,,,,,,,,,,,,white,circle
1283.0,8.0,4.0,1.0,2.0,2.0,381.6603669999949,2.0,1.0,phase_1,,,,,,,,,,,,,green,square
310.0,6.0,1.0,1.0,4.0,4.0,463.223403000029,2.0,1.0,phase_1,,,,,,,,,,,,,magenta,hexagon
1316.0,4.0,4.0,0.0,1.0,1.0,343.3409849999407,2.0,1.0,phase_1,,,,,,,,,,,,,cyan,I
0.0,8.0,0.0,1.0,3.0,3.0,343.2332299998961,2.0,1.0,phase_1,,,,,,,,,,,,,green,square
664.0,3.0,2.0,0.0,4.0,4.0,343.5827040000276,2.0,1.0,phase_1,,,,,,,,,,,,,blue,triangle
1312.0,4.0,4.0,0.0,4.0,4.0,351.8161419999615,2.0,1.0,phase_1,,,,,,,,,,,,,cyan,I
166.0,1.0,0.5,0.0,2.0,2.0,360.8036240000274,2.0,2.0,phase_1,,,,,,,,,,,,,orange,flipped triangle
319.0,6.0,1.0,1.0,4.0,4.0,427.2803940000358,2.0,1.0,phase_1,,,,,,,,,,,,,magenta,hexagon
302.0,2.0,1.0,0.0,3.0,3.0,334.3697539999084,2.0,1.0,phase_1,,,,,,,,,,,,,yellow,cross
316.0,6.0,1.0,1.0,3.0,3.0,361.8200659998365,2.0,1.0,phase_1,,,,,,,,,,,,,magenta,hexagon
140.0,5.0,0.5,1.0,1.0,1.0,510.31884000008176,2.0,1.0,phase_1,,,,,,,,,,,,,white,circle
674.0,3.0,2.0,0.0,1.0,1.0,334.6739319999869,2.0,1.0,phase_1,,,,,,,,,,,,,blue,triangle
333.0,2.0,1.0,0.0,4.0,4.0,361.0028709999824,2.0,1.0,phase_1,,,,,,,,,,,,,yellow,cross
1301.0,8.0,4.0,1.0,1.0,1.0,360.3649029998905,2.0,1.0,phase_1,,,,,,,,,,,,,green,square
169.0,1.0,0.5,0.0,1.0,1.0,389.8130410000249,2.0,1.0,phase_1,,,,,,,,,,,,,orange,flipped triangle
145.0,5.0,0.5,1.0,1.0,1.0,409.6980879999137,2.0,1.0,phase_1,,,,,,,,,,,,,white,circle
1295.0,8.0,4.0,1.0,4.0,4.0,325.8206069999687,2.0,1.0,phase_1,,,,,,,,,,,,,green,square
0.0,6.0,0.0,1.0,3.0,3.0,324.4564560000071,2.0,1.0,phase_1,,,,,,,,,,,,,magenta,hexagon
144.0,1.0,0.5,0.0,3.0,3.0,333.4289939998598,2.0,1.0,phase_1,,,,,,,,,,,,,orange,flipped triangle
1319.0,4.0,4.0,0.0,2.0,2.0,325.4612220000581,2.0,1.0,phase_1,,,,,,,,,,,,,cyan,I
153.0,1.0,0.5,0.0,4.0,4.0,380.7802890000857,2.0,1.0,phase_1,,,,,,,,,,,,,orange,flipped triangle
320.0,2.0,1.0,0.0,1.0,1.0,399.9168079999435,2.0,1.0,phase_1,,,,,,,,,,,,,yellow,cross
0.0,1.0,0.0,0.0,2.0,2.0,287.8071050001836,2.0,1.0,phase_1,,,,,,,,,,,,,orange,flipped triangle
0.0,8.0,0.0,1.0,1.0,1.0,361.3835910000489,2.0,2.0,phase_1,,,,,,,,,,,,,green,square
659.0,3.0,2.0,0.0,3.0,3.0,353.6976739999318,2.0,1.0,phase_1,,,,,,,,,,,,,blue,triangle
346.0,2.0,1.0,0.0,2.0,2.0,352.3851439999816,2.0,1.0,phase_1,,,,,,,,,,,,,yellow,cross
0.0,3.0,0.0,0.0,4.0,4.0,483.6591399998724,2.0,1.0,phase_1,,,,,,,,,,,,,blue,triangle
628.0,7.0,2.0,1.0,1.0,1.0,335.2536869999767,2.0,1.0,phase_1,,,,,,,,,,,,,gray,diamond
177.0,5.0,0.5,1.0,2.0,2.0,492.0661690000543,2.0,1.0,phase_1,,,,,,,,,,,,,white,circle
1304.0,8.0,4.0,1.0,1.0,1.0,447.5619770000776,2.0,1.0,phase_1,,,,,,,,,,,,,green,square
345.0,2.0,1.0,0.0,4.0,4.0,398.4907750000275,2.0,1.0,phase_1,,,,,,,,,,,,,yellow,cross
1312.0,8.0,4.0,1.0,1.0,1.0,543.8856040000246,2.0,1.0,phase_1,,,,,,,,,,,,,green,square
0.0,7.0,0.0,1.0,3.0,3.0,492.5619299999653,2.0,1.0,phase_1,,,,,,,,,,,,,gray,diamond
0.0,4.0,0.0,0.0,3.0,3.0,391.1214319998635,2.0,1.0,phase_1,,,,,,,,,,,,,cyan,I
1292.0,4.0,4.0,0.0,4.0,4.0,520.2211039998019,2.0,1.0,phase_1,,,,,,,,,,,,,cyan,I
319.0,2.0,1.0,0.0,2.0,2.0,426.5727639999568,2.0,1.0,phase_1,,,,,,,,,,,,,yellow,cross
337.0,2.0,1.0,0.0,1.0,1.0,334.2733800000133,2.0,1.0,phase_1,,,,,,,,,,,,,yellow,cross
1313.0,4.0,4.0,0.0,3.0,3.0,657.5945449999381,2.0,1.0,phase_1,,,,,,,,,,,,,cyan,I
163.0,5.0,0.5,1.0,2.0,2.0,474.1754949998267,2.0,1.0,phase_1,,,,,,,,,,,,,white,circle
650.0,3.0,2.0,0.0,4.0,4.0,435.9604730000228,2.0,1.0,phase_1,,,,,,,,,,,,,blue,triangle
153.0,5.0,0.5,1.0,3.0,3.0,509.24137800006974,2.0,1.0,phase_1,,,,,,,,,,,,,white,circle
315.0,2.0,1.0,0.0,1.0,1.0,334.6213350000653,2.0,1.0,phase_1,,,,,,,,,,,,,yellow,cross
659.0,7.0,2.0,1.0,1.0,1.0,408.2477519998519,2.0,1.0,phase_1,,,,,,,,,,,,,gray,diamond
1291.0,8.0,4.0,1.0,4.0,4.0,307.5306569999156,2.0,1.0,phase_1,,,,,,,,,,,,,green,square
1298.0,4.0,4.0,0.0,3.0,3.0,315.4411779999009,2.0,1.0,phase_1,,,,,,,,,,,,,cyan,I
177.0,5.0,0.5,1.0,4.0,4.0,325.431922000007,2.0,1.0,phase_1,,,,,,,,,,,,,white,circle
1319.0,8.0,4.0,1.0,3.0,3.0,259.3373800000336,2.0,1.0,phase_1,,,,,,,,,,,,,green,square
0.0,4.0,0.0,0.0,1.0,1.0,388.912714000071,2.0,1.0,phase_1,,,,,,,,,,,,,cyan,I
1318.0,4.0,4.0,0.0,3.0,3.0,297.1849719999682,2.0,1.0,phase_1,,,,,,,,,,,,,cyan,I
1313.0,8.0,4.0,1.0,3.0,3.0,380.658904000029,2.0,1.0,phase_1,,,,,,,,,,,,,green,square
0.0,1.0,0.0,0.0,2.0,2.0,342.6854779997939,2.0,2.0,phase_1,,,,,,,,,,,,,orange,flipped triangle
1306.0,8.0,4.0,1.0,3.0,3.0,389.7823309998784,2.0,1.0,phase_1,,,,,,,,,,,,,green,square
0.0,6.0,0.0,1.0,4.0,4.0,296.3540060000014,2.0,1.0,phase_1,,,,,,,,,,,,,magenta,hexagon
647.0,7.0,2.0,1.0,2.0,2.0,333.6655000000519,2.0,1.0,phase_1,,,,,,,,,,,,,gray,diamond
1306.0,8.0,4.0,1.0,3.0,3.0,325.1302510000187,2.0,1.0,phase_1,,,,,,,,,,,,,green,square
1284.0,4.0,4.0,0.0,3.0,3.0,306.9050680001055,2.0,1.0,phase_1,,,,,,,,,,,,,cyan,I
338.0,2.0,1.0,0.0,4.0,4.0,481.3341379999656,2.0,1.0,phase_1,,,,,,,,,,,,,yellow,cross
152.0,1.0,0.5,0.0,4.0,4.0,397.6564229999439,2.0,1.0,phase_1,,,,,,,,,,,,,orange,flipped triangle
0.0,4.0,0.0,0.0,3.0,3.0,389.6129760000804,2.0,1.0,phase_1,,,,,,,,,,,,,cyan,I
1312.0,8.0,4.0,1.0,3.0,3.0,353.0380069998955,2.0,1.0,phase_1,,,,,,,,,,,,,green,square
639.0,3.0,2.0,0.0,2.0,2.0,473.2624739999664,2.0,1.0,phase_1,,,,,,,,,,,,,blue,triangle
1286.0,4.0,4.0,0.0,3.0,3.0,426.6065260001142,2.0,1.0,phase_1,,,,,,,,,,,,,cyan,I
627.0,7.0,2.0,1.0,3.0,3.0,316.0023759999149,2.0,1.0,phase_1,,,,,,,,,,,,,gray,diamond
174.0,1.0,0.5,0.0,3.0,3.0,324.8272200000883,2.0,1.0,phase_1,,,,,,,,,,,,,orange,flipped triangle
162.0,5.0,0.5,1.0,1.0,1.0,379.3313290000242,2.0,1.0,phase_1,,,,,,,,,,,,,white,circle
670.0,3.0,2.0,0.0,1.0,1.0,453.5475810000662,2.0,1.0,phase_1,,,,,,,,,,,,,blue,triangle
319.0,2.0,1.0,0.0,2.0,2.0,314.977792000036,3.0,1.0,phase_1,,,,,,,,,,,,,yellow,cross
307.0,2.0,1.0,0.0,2.0,2.0,341.4781470000889,3.0,1.0,phase_1,,,,,,,,,,,,,yellow,cross
0.0,5.0,0.0,1.0,3.0,3.0,407.2326509999584,3.0,1.0,phase_1,,,,,,,,,,,,,white,circle
0.0,2.0,0.0,0.0,4.0,4.0,352.0253499998489,3.0,2.0,phase_1,,,,,,,,,,,,,yellow,cross
0.0,1.0,0.0,0.0,3.0,3.0,370.2268029999231,3.0,1.0,phase_1,,,,,,,,,,,,,orange,flipped triangle
1288.0,8.0,4.0,1.0,4.0,4.0,465.5729549999705,3.0,1.0,phase_1,,,,,,,,,,,,,green,square
180.0,1.0,0.5,0.0,1.0,1.0,453.9021410000714,3.0,1.0,phase_1,,,,,,,,,,,,,orange,flipped triangle
646.0,3.0,2.0,0.0,2.0,2.0,371.3755459998538,3.0,1.0,phase_1,,,,,,,,,,,,,blue,triangle
145.0,1.0,0.5,0.0,3.0,3.0,454.4913810000253,3.0,1.0,phase_1,,,,,,,,,,,,,orange,flipped triangle
1292.0,8.0,4.0,1.0,2.0,2.0,361.4489270000831,3.0,1.0,phase_1,,,,,,,,,,,,,green,square
0.0,5.0,0.0,1.0,3.0,3.0,509.03875899984996,3.0,1.0,phase_1,,,,,,,,,,,,,white,circle
177.0,1.0,0.5,0.0,3.0,3.0,546.4554299999236,3.0,1.0,phase_1,,,,,,,,,,,,,orange,flipped triangle
163.0,1.0,0.5,0.0,1.0,1.0,342.7917510000497,3.0,1.0,phase_1,,,,,,,,,,,,,orange,flipped triangle
1318.0,8.0,4.0,1.0,4.0,4.0,425.5685349999112,3.0,1.0,phase_1,,,,,,,,,,,,,green,square
1292.0,4.0,4.0,0.0,3.0,3.0,328.505664999966,3.0,1.0,phase_1,,,,,,,,,,,,,cyan,I
341.0,6.0,1.0,1.0,1.0,1.0,397.3754479998206,3.0,1.0,phase_1,,,,,,,,,,,,,magenta,hexagon
0.0,6.0,0.0,1.0,4.0,4.0,378.2480910001595,3.0,1.0,phase_1,,,,,,,,,,,,,magenta,hexagon
319.0,6.0,1.0,1.0,3.0,3.0,334.2930609999257,3.0,1.0,phase_1,,,,,,,,,,,,,magenta,hexagon
643.0,7.0,2.0,1.0,2.0,2.0,370.5088180001894,3.0,1.0,phase_1,,,,,,,,,,,,,gray,diamond
643.0,3.0,2.0,0.0,4.0,4.0,324.5168580001518,3.0,1.0,phase_1,,,,,,,,,,,,,blue,triangle
172.0,1.0,0.5,0.0,3.0,3.0,352.6467369999864,3.0,1.0,phase_1,,,,,,,,,,,,,orange,flipped triangle
311.0,6.0,1.0,1.0,4.0,4.0,425.1447760000246,3.0,2.0,phase_1,,,,,,,,,,,,,magenta,hexagon
338.0,6.0,1.0,1.0,3.0,3.0,500.839993999989,3.0,1.0,phase_1,,,,,,,,,,,,,magenta,hexagon
170.0,5.0,0.5,1.0,2.0,2.0,424.0381309998611,3.0,1.0,phase_1,,,,,,,,,,,,,white,circle
0.0,5.0,0.0,1.0,3.0,3.0,380.1214459999755,3.0,1.0,phase_1,,,,,,,,,,,,,white,circle
643.0,3.0,2.0,0.0,3.0,3.0,352.473209999971,3.0,1.0,phase_1,,,,,,,,,,,,,blue,triangle
0.0,7.0,0.0,1.0,4.0,4.0,434.6685640000487,3.0,1.0,phase_1,,,,,,,,,,,,,gray,diamond
0.0,1.0,0.0,0.0,3.0,3.0,305.6997040000624,3.0,1.0,phase_1,,,,,,,,,,,,,orange,flipped triangle
1281.0,4.0,4.0,0.0,3.0,3.0,323.8956939999298,3.0,1.0,phase_1,,,,,,,,,,,,,cyan,I
332.0,2.0,1.0,0.0,3.0,3.0,352.3091920001207,3.0,1.0,phase_1,,,,,,,,,,,,,yellow,cross
158.0,1.0,0.5,0.0,2.0,2.0,483.3248360000652,3.0,1.0,phase_1,,,,,,,,,,,,,orange,flipped triangle
1309.0,8.0,4.0,1.0,1.0,1.0,491.1218520001057,3.0,1.0,phase_1,,,,,,,,,,,,,green,square
161.0,1.0,0.5,0.0,1.0,1.0,490.7384169996476,3.0,1.0,phase_1,,,,,,,,,,,,,orange,flipped triangle
0.0,1.0,0.0,0.0,3.0,3.0,381.1868299999332,3.0,1.0,phase_1,,,,,,,,,,,,,orange,flipped triangle
1276.0,4.0,4.0,0.0,4.0,4.0,379.1096939999079,3.0,1.0,phase_1,,,,,,,,,,,,,cyan,I
1286.0,8.0,4.0,1.0,4.0,4.0,493.0035520001183,3.0,1.0,phase_1,,,,,,,,,,,,,green,square
1306.0,4.0,4.0,0.0,1.0,1.0,435.9166270000969,3.0,1.0,phase_1,,,,,,,,,,,,,cyan,I
1303.0,8.0,4.0,1.0,1.0,1.0,379.8905099997682,3.0,1.0,phase_1,,,,,,,,,,,,,green,square
153.0,1.0,0.5,0.0,1.0,1.0,406.0902759997589,3.0,1.0,phase_1,,,,,,,,,,,,,orange,flipped triangle
172.0,5.0,0.5,1.0,1.0,1.0,407.5052599996525,3.0,1.0,phase_1,,,,,,,,,,,,,white,circle
1280.0,8.0,4.0,1.0,4.0,4.0,371.9975960002557,3.0,2.0,phase_1,,,,,,,,,,,,,green,square
651.0,3.0,2.0,0.0,1.0,1.0,352.4780309999187,3.0,1.0,phase_1,,,,,,,,,,,,,blue,triangle
1312.0,4.0,4.0,0.0,1.0,1.0,425.0809680002021,3.0,1.0,phase_1,,,,,,,,,,,,,cyan,I
1323.0,8.0,4.0,1.0,2.0,2.0,352.1724520001044,3.0,2.0,phase_1,,,,,,,,,,,,,green,square
318.0,2.0,1.0,0.0,4.0,4.0,443.9799450001374,3.0,1.0,phase_1,,,,,,,,,,,,,yellow,cross
174.0,5.0,0.5,1.0,4.0,4.0,425.7127089999812,3.0,1.0,phase_1,,,,,,,,,,,,,white,circle
1315.0,8.0,4.0,1.0,3.0,3.0,324.7759369996856,3.0,1.0,phase_1,,,,,,,,,,,,,green,square
632.0,7.0,2.0,1.0,3.0,3.0,544.7314409998398,3.0,1.0,phase_1,,,,,,,,,,,,,gray,diamond
158.0,5.0,0.5,1.0,3.0,3.0,388.7766369998644,3.0,1.0,phase_1,,,,,,,,,,,,,white,circle
646.0,3.0,2.0,0.0,3.0,3.0,325.6530730000122,3.0,1.0,phase_1,,,,,,,,,,,,,blue,triangle
0.0,3.0,0.0,0.0,3.0,3.0,370.9722560001864,3.0,1.0,phase_1,,,,,,,,,,,,,blue,triangle
313.0,2.0,1.0,0.0,2.0,2.0,341.7724930000076,3.0,1.0,phase_1,,,,,,,,,,,,,yellow,cross
1323.0,4.0,4.0,0.0,4.0,4.0,343.5955999998441,3.0,1.0,phase_1,,,,,,,,,,,,,cyan,I
0.0,8.0,0.0,1.0,1.0,1.0,435.4833970000982,3.0,1.0,phase_1,,,,,,,,,,,,,green,square
139.0,5.0,0.5,1.0,3.0,3.0,324.26433399996307,3.0,1.0,phase_1,,,,,,,,,,,,,white,circle
661.0,7.0,2.0,1.0,3.0,3.0,389.7224319998713,3.0,1.0,phase_1,,,,,,,,,,,,,gray,diamond
1292.0,8.0,4.0,1.0,3.0,3.0,305.5459289998907,3.0,1.0,phase_1,,,,,,,,,,,,,green,square
309.0,6.0,1.0,1.0,2.0,2.0,296.2403329997869,3.0,1.0,phase_1,,,,,,,,,,,,,magenta,hexagon
184.0,5.0,0.5,1.0,3.0,3.0,324.1352119998737,3.0,1.0,phase_1,,,,,,,,,,,,,white,circle
319.0,6.0,1.0,1.0,4.0,4.0,443.9440450000802,3.0,1.0,phase_1,,,,,,,,,,,,,magenta,hexagon
341.0,2.0,1.0,0.0,3.0,3.0,379.3298049999976,3.0,1.0,phase_1,,,,,,,,,,,,,yellow,cross
166.0,5.0,0.5,1.0,3.0,3.0,352.1638600000187,3.0,1.0,phase_1,,,,,,,,,,,,,white,circle
660.0,3.0,2.0,0.0,4.0,4.0,407.9621149999184,3.0,1.0,phase_1,,,,,,,,,,,,,blue,triangle
323.0,2.0,1.0,0.0,2.0,2.0,378.4948200000144,3.0,1.0,phase_1,,,,,,,,,,,,,yellow,cross
0.0,5.0,0.0,1.0,2.0,2.0,359.8128920002637,3.0,1.0,phase_1,,,,,,,,,,,,,white,circle
650.0,7.0,2.0,1.0,3.0,3.0,286.4194919998226,3.0,1.0,phase_1,,,,,,,,,,,,,gray,diamond
672.0,7.0,2.0,1.0,1.0,1.0,351.6464109998196,3.0,1.0,phase_1,,,,,,,,,,,,,gray,diamond
341.0,2.0,1.0,0.0,3.0,3.0,370.0883219999014,3.0,2.0,phase_1,,,,,,,,,,,,,yellow,cross
316.0,2.0,1.0,0.0,3.0,3.0,343.222445000265,3.0,1.0,phase_1,,,,,,,,,,,,,yellow,cross
319.0,2.0,1.0,0.0,4.0,4.0,378.3013979996212,3.0,1.0,phase_1,,,,,,,,,,,,,yellow,cross
1288.0,8.0,4.0,1.0,3.0,3.0,444.3297030002213,3.0,1.0,phase_1,,,,,,,,,,,,,green,square
341.0,6.0,1.0,1.0,2.0,2.0,397.7742980000585,3.0,1.0,phase_1,,,,,,,,,,,,,magenta,hexagon
0.0,4.0,0.0,0.0,1.0,1.0,500.32969299991237,3.0,1.0,phase_1,,,,,,,,,,,,,cyan,I
1309.0,4.0,4.0,0.0,4.0,4.0,445.4705969997121,3.0,1.0,phase_1,,,,,,,,,,,,,cyan,I
323.0,6.0,1.0,1.0,2.0,2.0,323.8421739997648,3.0,1.0,phase_1,,,,,,,,,,,,,magenta,hexagon
668.0,7.0,2.0,1.0,1.0,1.0,471.9150900000386,3.0,1.0,phase_1,,,,,,,,,,,,,gray,diamond
0.0,3.0,0.0,0.0,4.0,4.0,481.6463799998018,3.0,1.0,phase_1,,,,,,,,,,,,,blue,triangle
635.0,3.0,2.0,0.0,4.0,4.0,380.4739950001021,3.0,1.0,phase_1,,,,,,,,,,,,,blue,triangle
145.0,1.0,0.5,0.0,3.0,3.0,435.5915370001639,3.0,1.0,phase_1,,,,,,,,,,,,,orange,flipped triangle
160.0,1.0,0.5,0.0,3.0,3.0,445.6736619999901,3.0,1.0,phase_1,,,,,,,,,,,,,orange,flipped triangle
628.0,3.0,2.0,0.0,4.0,4.0,371.6499759998442,3.0,1.0,phase_1,,,,,,,,,,,,,blue,triangle
150.0,1.0,0.5,0.0,2.0,2.0,370.7150289997116,3.0,1.0,phase_1,,,,,,,,,,,,,orange,flipped triangle
663.0,3.0,2.0,0.0,3.0,3.0,370.7392950000212,3.0,1.0,phase_1,,,,,,,,,,,,,blue,triangle
1282.0,4.0,4.0,0.0,3.0,3.0,352.1434790000057,3.0,1.0,phase_1,,,,,,,,,,,,,cyan,I
648.0,7.0,2.0,1.0,3.0,3.0,452.7142590000039,3.0,1.0,phase_1,,,,,,,,,,,,,gray,diamond
660.0,7.0,2.0,1.0,3.0,3.0,380.7530149997546,3.0,1.0,phase_1,,,,,,,,,,,,,gray,diamond
322.0,2.0,1.0,0.0,4.0,4.0,370.8294409998416,3.0,1.0,phase_1,,,,,,,,,,,,,yellow,cross
0.0,5.0,0.0,1.0,4.0,4.0,435.290478999832,3.0,1.0,phase_1,,,,,,,,,,,,,white,circle
302.0,6.0,1.0,1.0,2.0,2.0,316.1539200000334,3.0,2.0,phase_1,,,,,,,,,,,,,magenta,hexagon
0.0,1.0,0.0,0.0,3.0,3.0,324.3103830000109,3.0,1.0,phase_1,,,,,,,,,,,,,orange,flipped triangle
0.0,2.0,0.0,0.0,1.0,1.0,304.9700719998327,3.0,1.0,phase_1,,,,,,,,,,,,,yellow,cross
325.0,6.0,1.0,1.0,4.0,4.0,314.9306720001732,3.0,1.0,phase_1,,,,,,,,,,,,,magenta,hexagon
626.0,7.0,2.0,1.0,2.0,2.0,547.1272030004002,3.0,1.0,phase_1,,,,,,,,,,,,,gray,diamond
646.0,7.0,2.0,1.0,2.0,2.0,407.4912030000632,3.0,1.0,phase_1,,,,,,,,,,,,,gray,diamond
1312.0,8.0,4.0,1.0,4.0,4.0,489.5178120000309,3.0,1.0,phase_1,,,,,,,,,,,,,green,square
337.0,6.0,1.0,1.0,4.0,4.0,371.7121029999362,3.0,1.0,phase_1,,,,,,,,,,,,,magenta,hexagon
302.0,6.0,1.0,1.0,1.0,1.0,471.7689369999789,3.0,1.0,phase_1,,,,,,,,,,,,,magenta,hexagon
638.0,3.0,2.0,0.0,1.0,1.0,407.3545209998883,3.0,1.0,phase_1,,,,,,,,,,,,,blue,triangle
1324.0,8.0,4.0,1.0,2.0,2.0,333.913086999928,3.0,1.0,phase_1,,,,,,,,,,,,,green,square
327.0,6.0,1.0,1.0,1.0,1.0,361.0440300003574,3.0,1.0,phase_1,,,,,,,,,,,,,magenta,hexagon
186.0,5.0,0.5,1.0,1.0,1.0,454.1800400002103,4.0,1.0,phase_1,,,,,,,,,,,,,white,circle
1283.0,4.0,4.0,0.0,2.0,2.0,324.5059579999179,4.0,1.0,phase_1,,,,,,,,,,,,,cyan,I
0.0,1.0,0.0,0.0,3.0,3.0,434.4747449999886,4.0,1.0,phase_1,,,,,,,,,,,,,orange,flipped triangle
0.0,2.0,0.0,0.0,2.0,2.0,342.5361750000775,4.0,1.0,phase_1,,,,,,,,,,,,,yellow,cross
648.0,3.0,2.0,0.0,1.0,1.0,426.0867379998672,4.0,1.0,phase_1,,,,,,,,,,,,,blue,triangle
337.0,2.0,1.0,0.0,2.0,2.0,355.7391660001485,4.0,1.0,phase_1,,,,,,,,,,,,,yellow,cross
0.0,2.0,0.0,0.0,1.0,1.0,352.2442500002398,4.0,1.0,phase_1,,,,,,,,,,,,,yellow,cross
310.0,6.0,1.0,1.0,2.0,2.0,314.3659970000954,4.0,1.0,phase_1,,,,,,,,,,,,,magenta,hexagon
0.0,1.0,0.0,0.0,3.0,3.0,328.7019379999947,4.0,1.0,phase_1,,,,,,,,,,,,,orange,flipped triangle
184.0,1.0,0.5,0.0,3.0,3.0,369.1071339999325,4.0,1.0,phase_1,,,,,,,,,,,,,orange,flipped triangle
168.0,1.0,0.5,0.0,4.0,4.0,611.4460769999823,4.0,1.0,phase_1,,,,,,,,,,,,,orange,flipped triangle
308.0,6.0,1.0,1.0,4.0,4.0,352.1092999999382,4.0,1.0,phase_1,,,,,,,,,,,,,magenta,hexagon
664.0,7.0,2.0,1.0,4.0,4.0,334.2898840000998,4.0,1.0,phase_1,,,,,,,,,,,,,gray,diamond
166.0,1.0,0.5,0.0,2.0,2.0,369.5232670002042,4.0,1.0,phase_1,,,,,,,,,,,,,orange,flipped triangle
160.0,5.0,0.5,1.0,4.0,4.0,435.7176790003905,4.0,1.0,phase_1,,,,,,,,,,,,,white,circle
0.0,4.0,0.0,0.0,4.0,4.0,352.1126740001818,4.0,1.0,phase_1,,,,,,,,,,,,,cyan,I
182.0,1.0,0.5,0.0,1.0,1.0,324.6388339998702,4.0,1.0,phase_1,,,,,,,,,,,,,orange,flipped triangle
1304.0,4.0,4.0,0.0,1.0,1.0,378.3913460001713,4.0,1.0,phase_1,,,,,,,,,,,,,cyan,I
162.0,1.0,0.5,0.0,4.0,4.0,332.6826269999401,4.0,1.0,phase_1,,,,,,,,,,,,,orange,flipped triangle
0.0,8.0,0.0,1.0,2.0,2.0,352.1471160001965,4.0,1.0,phase_1,,,,,,,,,,,,,green,square
1298.0,8.0,4.0,1.0,2.0,2.0,324.9166590003369,4.0,1.0,phase_1,,,,,,,,,,,,,green,square
1309.0,8.0,4.0,1.0,2.0,2.0,342.8258359999745,4.0,1.0,phase_1,,,,,,,,,,,,,green,square
174.0,5.0,0.5,1.0,4.0,4.0,369.5771659999991,4.0,2.0,phase_1,,,,,,,,,,,,,white,circle
655.0,7.0,2.0,1.0,1.0,1.0,501.48814499971195,4.0,1.0,phase_1,,,,,,,,,,,,,gray,diamond
1288.0,4.0,4.0,0.0,4.0,4.0,391.7960660000972,4.0,1.0,phase_1,,,,,,,,,,,,,cyan,I
172.0,5.0,0.5,1.0,3.0,3.0,316.1456269999689,4.0,1.0,phase_1,,,,,,,,,,,,,white,circle
0.0,3.0,0.0,0.0,3.0,3.0,314.5897920003335,4.0,1.0,phase_1,,,,,,,,,,,,,blue,triangle
650.0,3.0,2.0,0.0,2.0,2.0,297.3022159999345,4.0,1.0,phase_1,,,,,,,,,,,,,blue,triangle
657.0,3.0,2.0,0.0,1.0,1.0,370.7664400003523,4.0,1.0,phase_1,,,,,,,,,,,,,blue,triangle
148.0,1.0,0.5,0.0,2.0,2.0,306.7660869996871,4.0,1.0,phase_1,,,,,,,,,,,,,orange,flipped triangle
337.0,2.0,1.0,0.0,3.0,3.0,297.7011929997388,4.0,1.0,phase_1,,,,,,,,,,,,,yellow,cross
337.0,6.0,1.0,1.0,4.0,4.0,316.9351279998409,4.0,1.0,phase_1,,,,,,,,,,,,,magenta,hexagon
643.0,3.0,2.0,0.0,2.0,2.0,295.8240309999382,4.0,1.0,phase_1,,,,,,,,,,,,,blue,triangle
186.0,1.0,0.5,0.0,4.0,4.0,381.8488649999381,4.0,1.0,phase_1,,,,,,,,,,,,,orange,flipped triangle
658.0,7.0,2.0,1.0,1.0,1.0,334.3818769999416,4.0,1.0,phase_1,,,,,,,,,,,,,gray,diamond
653.0,3.0,2.0,0.0,2.0,2.0,353.8799259999905,4.0,1.0,phase_1,,,,,,,,,,,,,blue,triangle
0.0,7.0,0.0,1.0,2.0,2.0,408.8508840000031,4.0,1.0,phase_1,,,,,,,,,,,,,gray,diamond
315.0,6.0,1.0,1.0,3.0,3.0,343.1121140001778,4.0,1.0,phase_1,,,,,,,,,,,,,magenta,hexagon
672.0,3.0,2.0,0.0,1.0,1.0,314.9533790001442,4.0,1.0,phase_1,,,,,,,,,,,,,blue,triangle
0.0,1.0,0.0,0.0,4.0,4.0,351.8569190000562,4.0,1.0,phase_1,,,,,,,,,,,,,orange,flipped triangle
658.0,3.0,2.0,0.0,2.0,2.0,258.7082000000009,4.0,1.0,phase_1,,,,,,,,,,,,,blue,triangle
140.0,1.0,0.5,0.0,4.0,4.0,408.9223229998424,4.0,1.0,phase_1,,,,,,,,,,,,,orange,flipped triangle
151.0,1.0,0.5,0.0,2.0,2.0,361.6751949998615,4.0,1.0,phase_1,,,,,,,,,,,,,orange,flipped triangle
641.0,3.0,2.0,0.0,1.0,1.0,407.8633099998114,4.0,1.0,phase_1,,,,,,,,,,,,,blue,triangle
625.0,3.0,2.0,0.0,2.0,2.0,314.5824060002269,4.0,1.0,phase_1,,,,,,,,,,,,,blue,triangle
641.0,7.0,2.0,1.0,1.0,1.0,379.2762709999806,4.0,1.0,phase_1,,,,,,,,,,,,,gray,diamond
0.0,4.0,0.0,0.0,3.0,3.0,314.037900999665,4.0,1.0,phase_1,,,,,,,,,,,,,cyan,I
346.0,2.0,1.0,0.0,1.0,1.0,314.2085230001612,4.0,1.0,phase_1,,,,,,,,,,,,,yellow,cross
180.0,5.0,0.5,1.0,2.0,2.0,332.2700999997323,4.0,1.0,phase_1,,,,,,,,,,,,,white,circle
658.0,3.0,2.0,0.0,3.0,3.0,343.3969500001694,4.0,1.0,phase_1,,,,,,,,,,,,,blue,triangle
0.0,1.0,0.0,0.0,3.0,3.0,472.3904350003067,4.0,1.0,phase_1,,,,,,,,,,,,,orange,flipped triangle
1288.0,4.0,4.0,0.0,4.0,4.0,399.1649540002981,4.0,1.0,phase_1,,,,,,,,,,,,,cyan,I
310.0,2.0,1.0,0.0,3.0,3.0,315.8081999999922,4.0,1.0,phase_1,,,,,,,,,,,,,yellow,cross
0.0,8.0,0.0,1.0,2.0,2.0,361.061293000148,4.0,1.0,phase_1,,,,,,,,,,,,,green,square
151.0,5.0,0.5,1.0,4.0,4.0,362.1021290000499,4.0,1.0,phase_1,,,,,,,,,,,,,white,circle
0.0,2.0,0.0,0.0,3.0,3.0,342.7526460000081,4.0,2.0,phase_1,,,,,,,,,,,,,yellow,cross
169.0,5.0,0.5,1.0,3.0,3.0,352.6081609998073,4.0,1.0,phase_1,,,,,,,,,,,,,white,circle
1300.0,8.0,4.0,1.0,4.0,4.0,315.0213569997504,4.0,1.0,phase_1,,,,,,,,,,,,,green,square
661.0,3.0,2.0,0.0,3.0,3.0,425.6971129998419,4.0,1.0,phase_1,,,,,,,,,,,,,blue,triangle
346.0,2.0,1.0,0.0,4.0,4.0,343.04153699986267,4.0,1.0,phase_1,,,,,,,,,,,,,yellow,cross
655.0,3.0,2.0,0.0,2.0,2.0,315.129694999996,4.0,2.0,phase_1,,,,,,,,,,,,,blue,triangle
302.0,2.0,1.0,0.0,3.0,3.0,362.5542869999663,4.0,1.0,phase_1,,,,,,,,,,,,,yellow,cross
0.0,4.0,0.0,0.0,3.0,3.0,558.6084980000123,4.0,1.0,phase_1,,,,,,,,,,,,,cyan,I
0.0,5.0,0.0,1.0,4.0,4.0,380.3245439999045,4.0,1.0,phase_1,,,,,,,,,,,,,white,circle
0.0,6.0,0.0,1.0,4.0,4.0,408.1494769998244,4.0,1.0,phase_1,,,,,,,,,,,,,magenta,hexagon
1300.0,8.0,4.0,1.0,1.0,1.0,333.634061000339,4.0,1.0,phase_1,,,,,,,,,,,,,green,square
672.0,3.0,2.0,0.0,2.0,2.0,307.1282800001427,4.0,1.0,phase_1,,,,,,,,,,,,,blue,triangle
0.0,6.0,0.0,1.0,4.0,4.0,307.020556000225,4.0,1.0,phase_1,,,,,,,,,,,,,magenta,hexagon
312.0,2.0,1.0,0.0,1.0,1.0,370.012455000051,4.0,1.0,phase_1,,,,,,,,,,,,,yellow,cross
0.0,3.0,0.0,0.0,3.0,3.0,324.2084729999988,4.0,1.0,phase_1,,,,,,,,,,,,,blue,triangle
1303.0,4.0,4.0,0.0,2.0,2.0,279.6338339999238,4.0,1.0,phase_1,,,,,,,,,,,,,cyan,I
672.0,7.0,2.0,1.0,3.0,3.0,297.0983850000266,4.0,1.0,phase_1,,,,,,,,,,,,,gray,diamond
639.0,7.0,2.0,1.0,2.0,2.0,304.8573569999462,4.0,1.0,phase_1,,,,,,,,,,,,,gray,diamond
0.0,6.0,0.0,1.0,4.0,4.0,296.7245320000984,4.0,1.0,phase_1,,,,,,,,,,,,,magenta,hexagon
637.0,7.0,2.0,1.0,3.0,3.0,379.3418420000307,4.0,2.0,phase_1,,,,,,,,,,,,,gray,diamond
1291.0,4.0,4.0,0.0,1.0,1.0,333.00323599996767,4.0,1.0,phase_1,,,,,,,,,,,,,cyan,I
637.0,3.0,2.0,0.0,4.0,4.0,350.9839799999099,4.0,1.0,phase_1,,,,,,,,,,,,,blue,triangle
668.0,3.0,2.0,0.0,1.0,1.0,333.4442800000943,4.0,1.0,phase_1,,,,,,,,,,,,,blue,triangle
1309.0,4.0,4.0,0.0,1.0,1.0,324.5215890001418,4.0,1.0,phase_1,,,,,,,,,,,,,cyan,I
1312.0,4.0,4.0,0.0,2.0,2.0,296.5442069998971,4.0,1.0,phase_1,,,,,,,,,,,,,cyan,I
654.0,7.0,2.0,1.0,3.0,3.0,277.8073109998331,4.0,1.0,phase_1,,,,,,,,,,,,,gray,diamond
327.0,2.0,1.0,0.0,1.0,1.0,259.1794859999936,4.0,1.0,phase_1,,,,,,,,,,,,,yellow,cross
657.0,7.0,2.0,1.0,4.0,4.0,342.7636400001574,4.0,1.0,phase_1,,,,,,,,,,,,,gray,diamond
308.0,2.0,1.0,0.0,3.0,3.0,267.9960909999863,4.0,1.0,phase_1,,,,,,,,,,,,,yellow,cross
346.0,6.0,1.0,1.0,4.0,4.0,324.9360210002123,4.0,1.0,phase_1,,,,,,,,,,,,,magenta,hexagon
1300.0,4.0,4.0,0.0,1.0,1.0,361.3903649998065,4.0,1.0,phase_1,,,,,,,,,,,,,cyan,I
139.0,1.0,0.5,0.0,1.0,1.0,286.4237230000981,4.0,2.0,phase_1,,,,,,,,,,,,,orange,flipped triangle
301.0,2.0,1.0,0.0,2.0,2.0,278.1202599999233,4.0,1.0,phase_1,,,,,,,,,,,,,yellow,cross
0.0,7.0,0.0,1.0,4.0,4.0,306.8899120003152,4.0,1.0,phase_1,,,,,,,,,,,,,gray,diamond
0.0,7.0,0.0,1.0,2.0,2.0,316.1267059999773,4.0,1.0,phase_1,,,,,,,,,,,,,gray,diamond
1281.0,8.0,4.0,1.0,4.0,4.0,316.5979489999699,4.0,1.0,phase_1,,,,,,,,,,,,,green,square
332.0,6.0,1.0,1.0,2.0,2.0,278.372569000112,4.0,1.0,phase_1,,,,,,,,,,,,,magenta,hexagon
1294.0,8.0,4.0,1.0,1.0,1.0,258.9529030001358,4.0,1.0,phase_1,,,,,,,,,,,,,green,square
311.0,2.0,1.0,0.0,2.0,2.0,260.5472860000191,4.0,1.0,phase_1,,,,,,,,,,,,,yellow,cross
345.0,6.0,1.0,1.0,1.0,1.0,324.8219960000824,4.0,1.0,phase_1,,,,,,,,,,,,,magenta,hexagon
664.0,3.0,2.0,0.0,3.0,3.0,315.2187310001864,4.0,1.0,phase_1,,,,,,,,,,,,,blue,triangle
1294.0,4.0,4.0,0.0,4.0,4.0,351.6604599999482,4.0,2.0,phase_1,,,,,,,,,,,,,cyan,I
177.0,5.0,0.5,1.0,4.0,4.0,314.91810599982267,4.0,1.0,phase_1,,,,,,,,,,,,,white,circle
657.0,7.0,2.0,1.0,1.0,1.0,313.748779999969,4.0,1.0,phase_1,,,,,,,,,,,,,gray,diamond
0.0,4.0,0.0,0.0,2.0,2.0,249.1649369999322,4.0,1.0,phase_1,,,,,,,,,,,,,cyan,I
0.0,2.0,1.0,0.0,5.0,5.0,490.8511329999783,1.0,1.0,phase_2,go,250.0,250.0,1.0,,,,,,,,,yellow,cross
0.0,2.0,1.0,0.0,5.0,5.0,361.6209320002781,1.0,1.0,phase_2,go,250.0,250.0,1.0,,,,,,,,,yellow,cross
0.0,4.0,4.0,0.0,6.0,6.0,315.6823459999032,1.0,1.0,phase_2,go,250.0,250.0,1.0,,,,,,,,,cyan,I
0.0,7.0,2.0,1.0,5.0,0.0,0.0,1.0,1.0,phase_2,stop,250.0,250.0,4.0,,,,,,,,,gray,diamond
0.0,5.0,0.5,1.0,6.0,6.0,345.6427129999611,1.0,1.0,phase_2,go,300.0,250.0,1.0,,,,,,,,,white,circle
0.0,4.0,4.0,0.0,6.0,6.0,392.3014530000728,1.0,1.0,phase_2,go,300.0,250.0,1.0,,,,,,,,,cyan,I
0.0,2.0,1.0,0.0,5.0,5.0,336.3396889999421,1.0,1.0,phase_2,go,300.0,250.0,1.0,,,,,,,,,yellow,cross
0.0,6.0,1.0,1.0,5.0,5.0,345.4931119999855,1.0,1.0,phase_2,stop,300.0,250.0,3.0,,,,,,,,,magenta,hexagon
0.0,4.0,4.0,0.0,6.0,6.0,531.0912190002455,1.0,1.0,phase_2,go,250.0,250.0,1.0,,,,,,,,,cyan,I
0.0,2.0,1.0,0.0,5.0,5.0,578.8158639998073,1.0,1.0,phase_2,go,250.0,250.0,1.0,,,,,,,,,yellow,cross
0.0,4.0,4.0,0.0,6.0,6.0,429.0827909999279,1.0,1.0,phase_2,go,250.0,250.0,1.0,,,,,,,,,cyan,I
0.0,8.0,4.0,1.0,5.0,5.0,328.1754099998579,1.0,1.0,phase_2,stop,250.0,250.0,3.0,,,,,,,,,green,square
0.0,8.0,4.0,1.0,6.0,0.0,0.0,1.0,1.0,phase_2,stop,200.0,250.0,4.0,,,,,,,,,green,square
0.0,3.0,2.0,0.0,6.0,6.0,742.6444070001708,1.0,1.0,phase_2,go,200.0,300.0,1.0,,,,,,,,,blue,triangle
0.0,6.0,1.0,1.0,6.0,0.0,0.0,1.0,1.0,phase_2,stop,200.0,300.0,4.0,,,,,,,,,magenta,hexagon
0.0,8.0,4.0,1.0,6.0,0.0,0.0,1.0,1.0,phase_2,stop,200.0,350.0,4.0,,,,,,,,,green,square
0.0,4.0,4.0,0.0,5.0,5.0,1193.2857809997586,1.0,1.0,phase_2,go,200.0,400.0,1.0,,,,,,,,,cyan,I
0.0,7.0,2.0,1.0,5.0,0.0,0.0,1.0,1.0,phase_2,stop,200.0,400.0,4.0,,,,,,,,,gray,diamond
0.0,3.0,2.0,0.0,6.0,6.0,744.6571999998923,1.0,1.0,phase_2,go,250.0,400.0,1.0,,,,,,,,,blue,triangle
0.0,7.0,2.0,1.0,5.0,5.0,1062.6221869997607,1.0,1.0,phase_2,stop,250.0,400.0,3.0,,,,,,,,,gray,diamond
0.0,3.0,2.0,0.0,6.0,6.0,950.6326310001896,1.0,1.0,phase_2,go,200.0,400.0,1.0,,,,,,,,,blue,triangle
0.0,3.0,2.0,0.0,5.0,5.0,668.8059680000151,1.0,1.0,phase_2,go,200.0,400.0,1.0,,,,,,,,,blue,triangle
0.0,4.0,4.0,0.0,5.0,5.0,531.1584259998199,1.0,1.0,phase_2,go,200.0,400.0,1.0,,,,,,,,,cyan,I
0.0,7.0,2.0,1.0,5.0,5.0,459.1544620002423,1.0,1.0,phase_2,stop,200.0,400.0,3.0,,,,,,,,,gray,diamond
0.0,2.0,1.0,0.0,6.0,6.0,706.9771279998349,1.0,1.0,phase_2,go,150.0,400.0,1.0,,,,,,,,,yellow,cross
0.0,1.0,0.5,0.0,5.0,5.0,614.7861770000418,1.0,1.0,phase_2,go,150.0,400.0,1.0,,,,,,,,,orange,flipped triangle
0.0,8.0,4.0,1.0,6.0,6.0,669.4230779999089,1.0,1.0,phase_2,go,150.0,400.0,1.0,,,,,,,,,green,square
0.0,1.0,0.5,0.0,6.0,6.0,613.8052399996923,1.0,1.0,phase_2,go,150.0,400.0,1.0,,,,,,,,,orange,flipped triangle
0.0,1.0,0.5,0.0,6.0,6.0,635.1046200002202,1.0,1.0,phase_2,go,150.0,400.0,1.0,,,,,,,,,orange,flipped triangle
0.0,2.0,1.0,0.0,5.0,5.0,626.3040099997852,1.0,1.0,phase_2,go,150.0,400.0,1.0,,,,,,,,,yellow,cross
0.0,6.0,1.0,1.0,6.0,6.0,493.1924180000351,1.0,1.0,phase_2,stop,150.0,400.0,3.0,,,,,,,,,magenta,hexagon
0.0,3.0,2.0,0.0,5.0,5.0,693.7145509996299,1.0,1.0,phase_2,go,150.0,350.0,1.0,,,,,,,,,blue,triangle
0.0,5.0,0.5,1.0,6.0,6.0,543.2503749998432,1.0,1.0,phase_2,stop,150.0,350.0,3.0,,,,,,,,,white,circle
0.0,1.0,0.5,0.0,5.0,5.0,711.1632320002172,1.0,1.0,phase_2,go,150.0,300.0,1.0,,,,,,,,,orange,flipped triangle
0.0,2.0,1.0,0.0,6.0,6.0,752.2371959998964,1.0,1.0,phase_2,go,150.0,300.0,1.0,,,,,,,,,yellow,cross
0.0,6.0,1.0,1.0,6.0,0.0,0.0,1.0,1.0,phase_2,stop,150.0,300.0,4.0,,,,,,,,,magenta,hexagon
0.0,7.0,2.0,1.0,6.0,0.0,0.0,2.0,1.0,phase_2,stop,150.0,350.0,4.0,,,,,,,,,gray,diamond
0.0,7.0,2.0,1.0,6.0,6.0,677.9589369998575,2.0,1.0,phase_2,go,150.0,400.0,1.0,,,,,,,,,gray,diamond
0.0,3.0,2.0,0.0,6.0,6.0,1005.4085320002739,2.0,1.0,phase_2,go,150.0,400.0,1.0,,,,,,,,,blue,triangle
0.0,6.0,1.0,1.0,5.0,5.0,484.6740039997712,2.0,1.0,phase_2,go,150.0,400.0,1.0,,,,,,,,,magenta,hexagon
0.0,6.0,1.0,1.0,6.0,6.0,466.8066360000011,2.0,1.0,phase_2,go,150.0,400.0,1.0,,,,,,,,,magenta,hexagon
0.0,2.0,1.0,0.0,5.0,5.0,495.3198770003837,2.0,1.0,phase_2,go,150.0,400.0,1.0,,,,,,,,,yellow,cross
0.0,6.0,1.0,1.0,5.0,0.0,0.0,2.0,1.0,phase_2,stop,150.0,400.0,4.0,,,,,,,,,magenta,hexagon
0.0,1.0,0.5,0.0,5.0,5.0,532.7517360001366,2.0,1.0,phase_2,go,200.0,400.0,1.0,,,,,,,,,orange,flipped triangle
0.0,5.0,0.5,1.0,5.0,0.0,0.0,2.0,1.0,phase_2,stop,200.0,400.0,4.0,,,,,,,,,white,circle
0.0,4.0,4.0,0.0,6.0,6.0,521.268501999657,2.0,1.0,phase_2,go,250.0,400.0,1.0,,,,,,,,,cyan,I
0.0,2.0,1.0,0.0,6.0,6.0,607.1361090002938,2.0,1.0,phase_2,go,250.0,400.0,1.0,,,,,,,,,yellow,cross
0.0,2.0,1.0,0.0,6.0,6.0,782.3334750000868,2.0,1.0,phase_2,go,250.0,400.0,1.0,,,,,,,,,yellow,cross
0.0,8.0,4.0,1.0,5.0,0.0,0.0,2.0,1.0,phase_2,stop,250.0,400.0,4.0,,,,,,,,,green,square
0.0,2.0,1.0,0.0,5.0,5.0,531.1157380001532,2.0,1.0,phase_2,go,300.0,400.0,1.0,,,,,,,,,yellow,cross
0.0,3.0,2.0,0.0,5.0,5.0,512.2500430002219,2.0,1.0,phase_2,go,300.0,400.0,1.0,,,,,,,,,blue,triangle
0.0,1.0,0.5,0.0,6.0,6.0,493.6856669996814,2.0,1.0,phase_2,go,300.0,400.0,1.0,,,,,,,,,orange,flipped triangle
0.0,4.0,4.0,0.0,5.0,5.0,547.8329799998392,2.0,1.0,phase_2,go,300.0,400.0,1.0,,,,,,,,,cyan,I
0.0,1.0,0.5,0.0,6.0,6.0,597.575620999578,2.0,1.0,phase_2,go,300.0,400.0,1.0,,,,,,,,,orange,flipped triangle
0.0,8.0,4.0,1.0,6.0,6.0,436.1450469996271,2.0,1.0,phase_2,stop,300.0,400.0,3.0,,,,,,,,,green,square
0.0,3.0,2.0,0.0,6.0,6.0,447.7634499999112,2.0,1.0,phase_2,go,300.0,350.0,1.0,,,,,,,,,blue,triangle
0.0,6.0,1.0,1.0,6.0,6.0,597.1846130000813,2.0,1.0,phase_2,go,300.0,350.0,1.0,,,,,,,,,magenta,hexagon
0.0,8.0,4.0,1.0,5.0,5.0,473.4162730001117,2.0,1.0,phase_2,stop,300.0,350.0,3.0,,,,,,,,,green,square
0.0,1.0,0.5,0.0,6.0,6.0,653.1921529999636,2.0,1.0,phase_2,go,250.0,350.0,1.0,,,,,,,,,orange,flipped triangle
0.0,5.0,0.5,1.0,5.0,0.0,0.0,2.0,1.0,phase_2,stop,250.0,350.0,4.0,,,,,,,,,white,circle
0.0,4.0,4.0,0.0,6.0,6.0,551.706342000216,2.0,1.0,phase_2,go,300.0,350.0,1.0,,,,,,,,,cyan,I
0.0,1.0,0.5,0.0,6.0,6.0,474.5602849998249,2.0,1.0,phase_2,go,300.0,350.0,1.0,,,,,,,,,orange,flipped triangle
0.0,5.0,0.5,1.0,6.0,6.0,567.8227079997669,2.0,1.0,phase_2,stop,300.0,350.0,3.0,,,,,,,,,white,circle
0.0,4.0,4.0,0.0,6.0,6.0,495.7465350003076,2.0,1.0,phase_2,go,300.0,300.0,1.0,,,,,,,,,cyan,I
0.0,2.0,1.0,0.0,5.0,5.0,781.2934950002273,2.0,1.0,phase_2,go,300.0,300.0,1.0,,,,,,,,,yellow,cross
0.0,6.0,1.0,1.0,5.0,0.0,0.0,2.0,1.0,phase_2,stop,300.0,300.0,4.0,,,,,,,,,magenta,hexagon
0.0,1.0,0.5,0.0,6.0,6.0,532.8269130000081,2.0,1.0,phase_2,go,350.0,300.0,1.0,,,,,,,,,orange,flipped triangle
0.0,3.0,2.0,0.0,5.0,5.0,467.1722459997909,2.0,1.0,phase_2,go,350.0,300.0,1.0,,,,,,,,,blue,triangle
0.0,4.0,4.0,0.0,5.0,5.0,437.9186710002614,2.0,1.0,phase_2,go,350.0,300.0,1.0,,,,,,,,,cyan,I
0.0,7.0,2.0,1.0,5.0,5.0,576.9714839998414,2.0,1.0,phase_2,stop,350.0,300.0,3.0,,,,,,,,,gray,diamond
0.0,7.0,2.0,1.0,5.0,0.0,0.0,2.0,1.0,phase_2,stop,300.0,300.0,4.0,,,,,,,,,gray,diamond
0.0,3.0,2.0,0.0,5.0,5.0,772.1947229997568,2.0,1.0,phase_2,go,350.0,300.0,1.0,,,,,,,,,blue,triangle
0.0,7.0,2.0,1.0,5.0,5.0,680.9322780000002,3.0,1.0,phase_2,go,350.0,300.0,1.0,,,,,,,,,gray,diamond
0.0,3.0,2.0,0.0,6.0,6.0,345.3374759997132,3.0,1.0,phase_2,go,350.0,300.0,1.0,,,,,,,,,blue,triangle
0.0,6.0,1.0,1.0,6.0,6.0,279.51400499978257,3.0,1.0,phase_2,stop,350.0,300.0,3.0,,,,,,,,,magenta,hexagon
0.0,6.0,1.0,1.0,5.0,5.0,511.4494829999785,3.0,1.0,phase_2,stop,350.0,250.0,3.0,,,,,,,,,magenta,hexagon
0.0,2.0,1.0,0.0,6.0,6.0,616.5419310000289,3.0,1.0,phase_2,go,300.0,250.0,1.0,,,,,,,,,yellow,cross
0.0,7.0,2.0,1.0,6.0,6.0,738.2156929998018,3.0,1.0,phase_2,go,300.0,250.0,1.0,,,,,,,,,gray,diamond
0.0,1.0,0.5,0.0,6.0,6.0,663.7321690000135,3.0,1.0,phase_2,go,300.0,250.0,1.0,,,,,,,,,orange,flipped triangle
0.0,6.0,1.0,1.0,6.0,0.0,0.0,3.0,1.0,phase_2,stop,300.0,250.0,4.0,,,,,,,,,magenta,hexagon
0.0,4.0,4.0,0.0,6.0,6.0,625.5533039998227,3.0,1.0,phase_2,go,300.0,300.0,1.0,,,,,,,,,cyan,I
0.0,8.0,4.0,1.0,5.0,5.0,529.0386849997049,3.0,1.0,phase_2,stop,300.0,300.0,3.0,,,,,,,,,green,square
0.0,4.0,4.0,0.0,6.0,6.0,700.2588420000393,3.0,1.0,phase_2,go,250.0,300.0,1.0,,,,,,,,,cyan,I
0.0,3.0,2.0,0.0,6.0,6.0,420.4058499999519,3.0,1.0,phase_2,go,250.0,300.0,1.0,,,,,,,,,blue,triangle
0.0,1.0,0.5,0.0,5.0,5.0,400.8159720001458,3.0,1.0,phase_2,go,250.0,300.0,1.0,,,,,,,,,orange,flipped triangle
0.0,4.0,4.0,0.0,5.0,5.0,336.5823010003623,3.0,1.0,phase_2,go,250.0,300.0,1.0,,,,,,,,,cyan,I
0.0,2.0,1.0,0.0,6.0,6.0,486.268081000162,3.0,1.0,phase_2,go,250.0,300.0,1.0,,,,,,,,,yellow,cross
0.0,2.0,1.0,0.0,5.0,5.0,557.3173729999326,3.0,1.0,phase_2,go,250.0,300.0,1.0,,,,,,,,,yellow,cross
0.0,6.0,1.0,1.0,5.0,0.0,0.0,3.0,1.0,phase_2,stop,250.0,300.0,4.0,,,,,,,,,magenta,hexagon
0.0,5.0,0.5,1.0,6.0,0.0,0.0,3.0,1.0,phase_2,stop,300.0,300.0,4.0,,,,,,,,,white,circle
0.0,3.0,2.0,0.0,5.0,5.0,755.4737499999646,3.0,1.0,phase_2,go,300.0,350.0,1.0,,,,,,,,,blue,triangle
0.0,5.0,0.5,1.0,5.0,0.0,0.0,3.0,1.0,phase_2,stop,300.0,350.0,4.0,,,,,,,,,white,circle
0.0,6.0,1.0,1.0,6.0,6.0,433.2555949999914,3.0,1.0,phase_2,stop,350.0,350.0,3.0,,,,,,,,,magenta,hexagon
0.0,1.0,0.5,0.0,6.0,6.0,492.9061809998529,3.0,1.0,phase_2,go,350.0,300.0,1.0,,,,,,,,,orange,flipped triangle
0.0,3.0,2.0,0.0,6.0,6.0,672.4434349998774,3.0,1.0,phase_2,go,350.0,300.0,1.0,,,,,,,,,blue,triangle
0.0,4.0,4.0,0.0,5.0,5.0,372.8799949999484,3.0,1.0,phase_2,go,350.0,300.0,1.0,,,,,,,,,cyan,I
0.0,3.0,2.0,0.0,6.0,6.0,317.9371530000026,3.0,1.0,phase_2,go,350.0,300.0,1.0,,,,,,,,,blue,triangle
0.0,5.0,0.5,1.0,5.0,5.0,326.4740829999937,3.0,1.0,phase_2,stop,350.0,300.0,3.0,,,,,,,,,white,circle
0.0,5.0,0.5,1.0,6.0,0.0,0.0,3.0,1.0,phase_2,stop,300.0,300.0,4.0,,,,,,,,,white,circle
0.0,3.0,2.0,0.0,6.0,6.0,854.2177719996289,3.0,1.0,phase_2,go,300.0,350.0,1.0,,,,,,,,,blue,triangle
0.0,2.0,1.0,0.0,6.0,6.0,544.6502029999465,3.0,1.0,phase_2,go,300.0,350.0,1.0,,,,,,,,,yellow,cross
0.0,7.0,2.0,1.0,6.0,0.0,0.0,3.0,1.0,phase_2,stop,300.0,350.0,4.0,,,,,,,,,gray,diamond
0.0,6.0,1.0,1.0,5.0,5.0,547.083769999972,3.0,1.0,phase_2,stop,300.0,400.0,3.0,,,,,,,,,magenta,hexagon
0.0,7.0,2.0,1.0,6.0,6.0,840.7060580002508,3.0,1.0,phase_2,go,250.0,400.0,1.0,,,,,,,,,gray,diamond
0.0,8.0,4.0,1.0,5.0,0.0,0.0,3.0,1.0,phase_2,stop,250.0,400.0,4.0,,,,,,,,,green,square
0.0,6.0,1.0,1.0,6.0,6.0,737.1034679999866,3.0,1.0,phase_2,go,300.0,400.0,1.0,,,,,,,,,magenta,hexagon
0.0,5.0,0.5,1.0,6.0,0.0,0.0,3.0,1.0,phase_2,stop,300.0,400.0,4.0,,,,,,,,,white,circle
0.0,4.0,4.0,0.0,5.0,5.0,569.0286770000057,3.0,1.0,phase_2,go,300.0,450.0,1.0,,,,,,,,,cyan,I
0.0,6.0,1.0,1.0,6.0,6.0,591.1072009998861,4.0,1.0,phase_2,stop,300.0,450.0,3.0,,,,,,,,,magenta,hexagon
0.0,8.0,4.0,1.0,6.0,0.0,0.0,4.0,1.0,phase_2,stop,300.0,400.0,4.0,,,,,,,,,green,square
0.0,8.0,4.0,1.0,5.0,0.0,0.0,4.0,1.0,phase_2,stop,300.0,450.0,4.0,,,,,,,,,green,square
0.0,6.0,1.0,1.0,6.0,6.0,520.8668790000957,4.0,1.0,phase_2,go,350.0,450.0,1.0,,,,,,,,,magenta,hexagon
0.0,1.0,0.5,0.0,6.0,6.0,595.6606969998575,4.0,1.0,phase_2,go,350.0,450.0,1.0,,,,,,,,,orange,flipped triangle
0.0,7.0,2.0,1.0,5.0,0.0,0.0,4.0,1.0,phase_2,stop,350.0,450.0,4.0,,,,,,,,,gray,diamond
0.0,3.0,2.0,0.0,5.0,5.0,902.7119069996844,4.0,1.0,phase_2,go,400.0,450.0,1.0,,,,,,,,,blue,triangle
0.0,5.0,0.5,1.0,6.0,6.0,726.180535000367,4.0,1.0,phase_2,go,400.0,450.0,1.0,,,,,,,,,white,circle
0.0,5.0,0.5,1.0,6.0,6.0,629.3286690001878,4.0,1.0,phase_2,stop,400.0,450.0,3.0,,,,,,,,,white,circle
0.0,7.0,2.0,1.0,5.0,0.0,0.0,4.0,1.0,phase_2,stop,400.0,400.0,4.0,,,,,,,,,gray,diamond
0.0,3.0,2.0,0.0,6.0,6.0,934.505199999876,4.0,1.0,phase_2,go,450.0,400.0,1.0,,,,,,,,,blue,triangle
0.0,2.0,1.0,0.0,5.0,5.0,654.4060470000659,4.0,1.0,phase_2,go,450.0,400.0,1.0,,,,,,,,,yellow,cross
0.0,7.0,2.0,1.0,6.0,6.0,556.3474949999545,4.0,1.0,phase_2,stop,450.0,400.0,3.0,,,,,,,,,gray,diamond
0.0,4.0,4.0,0.0,6.0,6.0,467.2922120003022,4.0,1.0,phase_2,go,450.0,350.0,1.0,,,,,,,,,cyan,I
0.0,6.0,1.0,1.0,6.0,0.0,0.0,4.0,1.0,phase_2,stop,450.0,350.0,4.0,,,,,,,,,magenta,hexagon
0.0,2.0,1.0,0.0,5.0,5.0,624.1675159999431,4.0,1.0,phase_2,go,450.0,400.0,1.0,,,,,,,,,yellow,cross
0.0,6.0,1.0,1.0,5.0,0.0,0.0,4.0,1.0,phase_2,stop,450.0,400.0,4.0,,,,,,,,,magenta,hexagon
0.0,2.0,1.0,0.0,5.0,5.0,688.0641610000566,4.0,1.0,phase_2,go,500.0,400.0,1.0,,,,,,,,,yellow,cross
0.0,5.0,0.5,1.0,5.0,0.0,0.0,4.0,1.0,phase_2,stop,500.0,400.0,4.0,,,,,,,,,white,circle
0.0,8.0,4.0,1.0,6.0,6.0,493.4531860003517,4.0,1.0,phase_2,go,550.0,400.0,1.0,,,,,,,,,green,square
0.0,1.0,0.5,0.0,6.0,6.0,818.6479269998017,4.0,1.0,phase_2,go,550.0,400.0,1.0,,,,,,,,,orange,flipped triangle
0.0,2.0,1.0,0.0,6.0,6.0,578.344917999857,4.0,1.0,phase_2,go,550.0,400.0,1.0,,,,,,,,,yellow,cross
0.0,1.0,0.5,0.0,6.0,6.0,625.7894549999037,4.0,1.0,phase_2,go,550.0,400.0,1.0,,,,,,,,,orange,flipped triangle
0.0,3.0,2.0,0.0,5.0,5.0,437.7144699997188,4.0,1.0,phase_2,go,550.0,400.0,1.0,,,,,,,,,blue,triangle
0.0,2.0,1.0,0.0,5.0,5.0,485.0304579999829,4.0,1.0,phase_2,go,550.0,400.0,1.0,,,,,,,,,yellow,cross
0.0,4.0,4.0,0.0,6.0,6.0,447.7487940002902,4.0,1.0,phase_2,go,550.0,400.0,1.0,,,,,,,,,cyan,I
0.0,8.0,4.0,1.0,5.0,5.0,541.8370239999604,4.0,1.0,phase_2,stop,550.0,400.0,3.0,,,,,,,,,green,square
0.0,6.0,1.0,1.0,5.0,5.0,599.6791530001246,4.0,1.0,phase_2,stop,500.0,400.0,3.0,,,,,,,,,magenta,hexagon
0.0,1.0,0.5,0.0,5.0,5.0,717.2694270002467,4.0,1.0,phase_2,go,450.0,400.0,1.0,,,,,,,,,orange,flipped triangle
0.0,2.0,1.0,0.0,6.0,6.0,465.0411570000869,4.0,1.0,phase_2,go,450.0,400.0,1.0,,,,,,,,,yellow,cross
0.0,1.0,0.5,0.0,5.0,5.0,428.8652689997434,4.0,1.0,phase_2,go,450.0,400.0,1.0,,,,,,,,,orange,flipped triangle
0.0,6.0,1.0,1.0,5.0,5.0,318.8835230002951,4.0,1.0,phase_2,stop,450.0,400.0,3.0,,,,,,,,,magenta,hexagon
0.0,6.0,1.0,1.0,5.0,5.0,558.9745239999502,4.0,1.0,phase_2,stop,400.0,400.0,3.0,,,,,,,,,magenta,hexagon
0.0,8.0,4.0,1.0,5.0,5.0,635.8805139998367,4.0,1.0,phase_2,go,350.0,400.0,1.0,,,,,,,,,green,square
0.0,1.0,0.5,0.0,6.0,6.0,625.4676809999182,4.0,1.0,phase_2,go,350.0,400.0,1.0,,,,,,,,,orange,flipped triangle
0.0,1.0,0.5,0.0,5.0,5.0,345.8756330001051,4.0,1.0,phase_2,go,350.0,400.0,1.0,,,,,,,,,orange,flipped triangle
0.0,8.0,4.0,1.0,5.0,5.0,678.7820630001988,5.0,1.0,phase_2,go,350.0,400.0,1.0,,,,,,,,,green,square
0.0,5.0,0.5,1.0,6.0,0.0,0.0,5.0,1.0,phase_2,stop,350.0,400.0,4.0,,,,,,,,,white,circle
0.0,7.0,2.0,1.0,6.0,6.0,648.2735499998853,5.0,1.0,phase_2,stop,350.0,450.0,3.0,,,,,,,,,gray,diamond
0.0,4.0,4.0,0.0,5.0,5.0,399.9389239997981,5.0,1.0,phase_2,go,350.0,400.0,1.0,,,,,,,,,cyan,I
0.0,3.0,2.0,0.0,6.0,6.0,1004.8468620002495,5.0,1.0,phase_2,go,350.0,400.0,1.0,,,,,,,,,blue,triangle
0.0,7.0,2.0,1.0,6.0,6.0,391.2610410002344,5.0,1.0,phase_2,stop,350.0,400.0,3.0,,,,,,,,,gray,diamond
0.0,7.0,2.0,1.0,6.0,6.0,493.7802299996292,5.0,1.0,phase_2,go,350.0,350.0,1.0,,,,,,,,,gray,diamond
0.0,5.0,0.5,1.0,5.0,5.0,548.4489840000606,5.0,1.0,phase_2,stop,350.0,350.0,3.0,,,,,,,,,white,circle
0.0,2.0,1.0,0.0,6.0,6.0,698.242763000053,5.0,1.0,phase_2,go,300.0,350.0,1.0,,,,,,,,,yellow,cross
0.0,6.0,1.0,1.0,5.0,5.0,560.0500390000889,5.0,1.0,phase_2,go,300.0,350.0,1.0,,,,,,,,,magenta,hexagon
0.0,4.0,4.0,0.0,5.0,5.0,623.4297769997283,5.0,1.0,phase_2,go,300.0,350.0,1.0,,,,,,,,,cyan,I
0.0,3.0,2.0,0.0,5.0,5.0,353.4052869999868,5.0,1.0,phase_2,go,300.0,350.0,1.0,,,,,,,,,blue,triangle
0.0,4.0,4.0,0.0,5.0,5.0,455.5255619998206,5.0,1.0,phase_2,go,300.0,350.0,1.0,,,,,,,,,cyan,I
0.0,8.0,4.0,1.0,6.0,6.0,387.9832570000872,5.0,1.0,phase_2,stop,300.0,350.0,3.0,,,,,,,,,green,square
0.0,4.0,4.0,0.0,5.0,5.0,465.813863999756,5.0,1.0,phase_2,go,300.0,300.0,1.0,,,,,,,,,cyan,I
0.0,3.0,2.0,0.0,5.0,5.0,400.6830630000877,5.0,1.0,phase_2,go,300.0,300.0,1.0,,,,,,,,,blue,triangle
0.0,3.0,2.0,0.0,5.0,5.0,531.2256719998913,5.0,1.0,phase_2,go,300.0,300.0,1.0,,,,,,,,,blue,triangle
0.0,2.0,1.0,0.0,6.0,6.0,372.4781890000486,5.0,1.0,phase_2,go,300.0,300.0,1.0,,,,,,,,,yellow,cross
0.0,5.0,0.5,1.0,5.0,5.0,426.6235999998571,5.0,1.0,phase_2,stop,300.0,300.0,3.0,,,,,,,,,white,circle
0.0,3.0,2.0,0.0,5.0,5.0,503.32583099998374,5.0,1.0,phase_2,go,250.0,300.0,1.0,,,,,,,,,blue,triangle
0.0,8.0,4.0,1.0,5.0,5.0,433.1637089999276,5.0,1.0,phase_2,stop,250.0,300.0,3.0,,,,,,,,,green,square
0.0,1.0,0.5,0.0,6.0,6.0,485.2680240001064,5.0,1.0,phase_2,go,200.0,300.0,1.0,,,,,,,,,orange,flipped triangle
0.0,8.0,4.0,1.0,5.0,0.0,0.0,5.0,1.0,phase_2,stop,200.0,300.0,4.0,,,,,,,,,green,square
0.0,3.0,2.0,0.0,5.0,5.0,911.574489999566,5.0,1.0,phase_2,go,250.0,300.0,1.0,,,,,,,,,blue,triangle
0.0,5.0,0.5,1.0,6.0,0.0,0.0,5.0,1.0,phase_2,stop,250.0,300.0,4.0,,,,,,,,,white,circle
0.0,5.0,0.5,1.0,6.0,6.0,558.6742720001894,5.0,1.0,phase_2,go,250.0,350.0,1.0,,,,,,,,,white,circle
0.0,4.0,4.0,0.0,5.0,5.0,428.9985820000765,5.0,1.0,phase_2,go,250.0,350.0,1.0,,,,,,,,,cyan,I
0.0,2.0,1.0,0.0,6.0,6.0,484.059494000121,5.0,1.0,phase_2,go,250.0,350.0,1.0,,,,,,,,,yellow,cross
0.0,5.0,0.5,1.0,6.0,6.0,409.54020800018037,5.0,1.0,phase_2,stop,250.0,350.0,3.0,,,,,,,,,white,circle
0.0,7.0,2.0,1.0,5.0,5.0,330.6533840000156,5.0,1.0,phase_2,stop,250.0,300.0,3.0,,,,,,,,,gray,diamond
0.0,7.0,2.0,1.0,6.0,0.0,0.0,5.0,1.0,phase_2,stop,200.0,300.0,4.0,,,,,,,,,gray,diamond
0.0,5.0,0.5,1.0,5.0,5.0,529.6391960000619,5.0,1.0,phase_2,go,200.0,350.0,1.0,,,,,,,,,white,circle
0.0,4.0,4.0,0.0,5.0,5.0,512.0091440003307,5.0,1.0,phase_2,go,200.0,350.0,1.0,,,,,,,,,cyan,I
0.0,4.0,4.0,0.0,5.0,5.0,567.0769230000587,5.0,1.0,phase_2,go,200.0,350.0,1.0,,,,,,,,,cyan,I
0.0,3.0,2.0,0.0,6.0,5.0,437.7207699999417,5.0,1.0,phase_2,go,200.0,350.0,2.0,,,,,,,,,blue,triangle
0.0,2.0,1.0,0.0,5.0,5.0,530.6864290000703,5.0,1.0,phase_2,go,200.0,350.0,1.0,,,,,,,,,yellow,cross
0.0,8.0,4.0,1.0,5.0,5.0,933.536598000046,6.0,1.0,phase_2,go,200.0,350.0,1.0,,,,,,,,,green,square
0.0,6.0,1.0,1.0,5.0,0.0,0.0,6.0,1.0,phase_2,stop,200.0,350.0,4.0,,,,,,,,,magenta,hexagon
0.0,3.0,2.0,0.0,5.0,5.0,560.326638999868,6.0,1.0,phase_2,go,250.0,350.0,1.0,,,,,,,,,blue,triangle
0.0,8.0,4.0,1.0,6.0,6.0,386.8808329998501,6.0,1.0,phase_2,stop,250.0,350.0,3.0,,,,,,,,,green,square
0.0,5.0,0.5,1.0,5.0,5.0,560.981965999872,6.0,1.0,phase_2,go,250.0,300.0,1.0,,,,,,,,,white,circle
0.0,8.0,4.0,1.0,5.0,0.0,0.0,6.0,1.0,phase_2,stop,250.0,300.0,4.0,,,,,,,,,green,square
0.0,8.0,4.0,1.0,6.0,6.0,531.7686340004002,6.0,1.0,phase_2,go,300.0,300.0,1.0,,,,,,,,,green,square
0.0,1.0,0.5,0.0,6.0,6.0,644.6282900001279,6.0,1.0,phase_2,go,300.0,300.0,1.0,,,,,,,,,orange,flipped triangle
0.0,3.0,2.0,0.0,6.0,6.0,607.3245239999778,6.0,1.0,phase_2,go,300.0,300.0,1.0,,,,,,,,,blue,triangle
0.0,7.0,2.0,1.0,5.0,5.0,549.6194359998299,6.0,1.0,phase_2,go,300.0,300.0,1.0,,,,,,,,,gray,diamond
0.0,7.0,2.0,1.0,6.0,6.0,423.3028120002018,6.0,1.0,phase_2,stop,300.0,300.0,3.0,,,,,,,,,gray,diamond
0.0,5.0,0.5,1.0,6.0,6.0,625.7586970000375,6.0,1.0,phase_2,go,300.0,250.0,1.0,,,,,,,,,white,circle
0.0,4.0,4.0,0.0,6.0,6.0,317.4134739997498,6.0,1.0,phase_2,go,300.0,250.0,1.0,,,,,,,,,cyan,I
0.0,3.0,2.0,0.0,6.0,6.0,420.8114900002329,6.0,1.0,phase_2,go,300.0,250.0,1.0,,,,,,,,,blue,triangle
0.0,1.0,0.5,0.0,5.0,5.0,317.7112850003141,6.0,1.0,phase_2,go,300.0,250.0,1.0,,,,,,,,,orange,flipped triangle
0.0,8.0,4.0,1.0,6.0,6.0,298.4132729998237,6.0,1.0,phase_2,stop,300.0,250.0,3.0,,,,,,,,,green,square
0.0,5.0,0.5,1.0,6.0,0.0,0.0,6.0,1.0,phase_2,stop,300.0,200.0,4.0,,,,,,,,,white,circle
0.0,8.0,4.0,1.0,5.0,5.0,384.2018669997742,6.0,1.0,phase_2,stop,300.0,250.0,3.0,,,,,,,,,green,square
0.0,8.0,4.0,1.0,6.0,6.0,606.1961519999386,6.0,1.0,phase_2,go,250.0,250.0,1.0,,,,,,,,,green,square
0.0,5.0,0.5,1.0,6.0,0.0,0.0,6.0,1.0,phase_2,stop,250.0,250.0,4.0,,,,,,,,,white,circle
0.0,4.0,4.0,0.0,5.0,5.0,541.8822700003147,6.0,1.0,phase_2,go,250.0,300.0,1.0,,,,,,,,,cyan,I
0.0,6.0,1.0,1.0,5.0,0.0,0.0,6.0,1.0,phase_2,stop,250.0,300.0,4.0,,,,,,,,,magenta,hexagon
0.0,7.0,2.0,1.0,5.0,0.0,0.0,6.0,1.0,phase_2,stop,300.0,300.0,4.0,,,,,,,,,gray,diamond
0.0,1.0,0.5,0.0,5.0,5.0,664.1347280001355,6.0,1.0,phase_2,go,350.0,300.0,1.0,,,,,,,,,orange,flipped triangle
0.0,7.0,2.0,1.0,6.0,0.0,0.0,6.0,1.0,phase_2,stop,350.0,300.0,4.0,,,,,,,,,gray,diamond
0.0,8.0,4.0,1.0,5.0,5.0,580.115018000015,6.0,1.0,phase_2,stop,350.0,350.0,3.0,,,,,,,,,green,square
0.0,7.0,2.0,1.0,6.0,6.0,633.5300390001066,6.0,1.0,phase_2,go,300.0,350.0,1.0,,,,,,,,,gray,diamond
0.0,1.0,0.5,0.0,5.0,5.0,726.8179049997343,6.0,1.0,phase_2,go,300.0,350.0,1.0,,,,,,,,,orange,flipped triangle
0.0,6.0,1.0,1.0,6.0,0.0,0.0,6.0,1.0,phase_2,stop,300.0,350.0,4.0,,,,,,,,,magenta,hexagon
0.0,1.0,0.5,0.0,5.0,5.0,540.8736740000677,6.0,1.0,phase_2,go,300.0,400.0,1.0,,,,,,,,,orange,flipped triangle
0.0,7.0,2.0,1.0,5.0,5.0,662.9907090000415,6.0,1.0,phase_2,go,300.0,400.0,1.0,,,,,,,,,gray,diamond
0.0,2.0,1.0,0.0,6.0,6.0,681.2384659997406,6.0,1.0,phase_2,go,300.0,400.0,1.0,,,,,,,,,yellow,cross
0.0,1.0,0.5,0.0,5.0,5.0,551.3185630002226,6.0,1.0,phase_2,go,300.0,400.0,1.0,,,,,,,,,orange,flipped triangle
0.0,8.0,4.0,1.0,6.0,6.0,457.2599600001013,6.0,1.0,phase_2,go,300.0,400.0,1.0,,,,,,,,,green,square
0.0,8.0,4.0,1.0,5.0,5.0,392.5638969999454,6.0,1.0,phase_2,stop,300.0,400.0,3.0,,,,,,,,,green,square
0.0,7.0,2.0,1.0,5.0,5.0,388.06505499997,6.0,1.0,phase_2,stop,250.0,400.0,3.0,,,,,,,,,gray,diamond
0.0,7.0,2.0,1.0,6.0,0.0,0.0,7.0,1.0,phase_2,stop,200.0,400.0,4.0,,,,,,,,,gray,diamond
0.0,4.0,4.0,0.0,6.0,6.0,560.3681850002431,7.0,1.0,phase_2,go,200.0,450.0,1.0,,,,,,,,,cyan,I
0.0,8.0,4.0,1.0,6.0,6.0,550.8735410003283,7.0,1.0,phase_2,stop,200.0,450.0,3.0,,,,,,,,,green,square
0.0,1.0,0.5,0.0,5.0,5.0,485.0054290000116,7.0,1.0,phase_2,go,200.0,400.0,1.0,,,,,,,,,orange,flipped triangle
0.0,8.0,4.0,1.0,6.0,6.0,344.9856299998828,7.0,1.0,phase_2,stop,200.0,400.0,3.0,,,,,,,,,green,square
0.0,1.0,0.5,0.0,5.0,5.0,566.6664529999252,7.0,1.0,phase_2,go,200.0,350.0,1.0,,,,,,,,,orange,flipped triangle
0.0,6.0,1.0,1.0,5.0,0.0,0.0,7.0,1.0,phase_2,stop,200.0,350.0,4.0,,,,,,,,,magenta,hexagon
0.0,7.0,2.0,1.0,6.0,6.0,654.6677940000336,7.0,1.0,phase_2,go,250.0,350.0,1.0,,,,,,,,,gray,diamond
0.0,2.0,1.0,0.0,6.0,6.0,633.8543779997963,7.0,1.0,phase_2,go,250.0,350.0,1.0,,,,,,,,,yellow,cross
0.0,2.0,1.0,0.0,5.0,5.0,410.529796999981,7.0,1.0,phase_2,go,250.0,350.0,1.0,,,,,,,,,yellow,cross
0.0,5.0,0.5,1.0,6.0,0.0,0.0,7.0,1.0,phase_2,stop,250.0,350.0,4.0,,,,,,,,,white,circle
0.0,6.0,1.0,1.0,6.0,6.0,551.1791250000897,7.0,1.0,phase_2,stop,250.0,400.0,3.0,,,,,,,,,magenta,hexagon
0.0,5.0,0.5,1.0,5.0,0.0,0.0,7.0,1.0,phase_2,stop,250.0,350.0,4.0,,,,,,,,,white,circle
0.0,2.0,1.0,0.0,6.0,6.0,707.6458469996396,7.0,1.0,phase_2,go,300.0,350.0,1.0,,,,,,,,,yellow,cross
0.0,2.0,1.0,0.0,5.0,5.0,561.4159760002622,7.0,1.0,phase_2,go,300.0,350.0,1.0,,,,,,,,,yellow,cross
0.0,4.0,4.0,0.0,6.0,6.0,578.2519800000046,7.0,1.0,phase_2,go,300.0,350.0,1.0,,,,,,,,,cyan,I
0.0,5.0,0.5,1.0,5.0,5.0,409.6570889996656,7.0,1.0,phase_2,stop,300.0,350.0,3.0,,,,,,,,,white,circle
0.0,3.0,2.0,0.0,5.0,5.0,599.2301669998596,7.0,1.0,phase_2,go,250.0,350.0,1.0,,,,,,,,,blue,triangle
0.0,5.0,0.5,1.0,5.0,0.0,0.0,7.0,1.0,phase_2,stop,250.0,350.0,4.0,,,,,,,,,white,circle
0.0,5.0,0.5,1.0,5.0,5.0,670.7859759999337,7.0,1.0,phase_2,go,300.0,350.0,1.0,,,,,,,,,white,circle
0.0,5.0,0.5,1.0,5.0,0.0,0.0,7.0,1.0,phase_2,stop,300.0,350.0,4.0,,,,,,,,,white,circle
0.0,6.0,1.0,1.0,5.0,0.0,0.0,7.0,1.0,phase_2,stop,350.0,350.0,4.0,,,,,,,,,magenta,hexagon
0.0,7.0,2.0,1.0,5.0,0.0,0.0,7.0,1.0,phase_2,stop,400.0,350.0,4.0,,,,,,,,,gray,diamond
0.0,2.0,1.0,0.0,6.0,6.0,643.7051750003775,7.0,1.0,phase_2,go,450.0,350.0,1.0,,,,,,,,,yellow,cross
0.0,7.0,2.0,1.0,5.0,0.0,0.0,7.0,1.0,phase_2,stop,450.0,350.0,4.0,,,,,,,,,gray,diamond
0.0,8.0,4.0,1.0,6.0,0.0,0.0,7.0,1.0,phase_2,stop,500.0,350.0,4.0,,,,,,,,,green,square
0.0,6.0,1.0,1.0,5.0,0.0,0.0,7.0,1.0,phase_2,stop,500.0,400.0,4.0,,,,,,,,,magenta,hexagon
0.0,1.0,0.5,0.0,5.0,5.0,894.561948000046,7.0,1.0,phase_2,go,550.0,400.0,1.0,,,,,,,,,orange,flipped triangle
0.0,7.0,2.0,1.0,5.0,5.0,612.7663460001713,7.0,1.0,phase_2,stop,550.0,400.0,3.0,,,,,,,,,gray,diamond
0.0,5.0,0.5,1.0,6.0,6.0,699.5914310000444,7.0,1.0,phase_2,go,500.0,400.0,1.0,,,,,,,,,white,circle
0.0,4.0,4.0,0.0,6.0,6.0,623.3063560002847,7.0,1.0,phase_2,go,500.0,400.0,1.0,,,,,,,,,cyan,I
0.0,3.0,2.0,0.0,6.0,6.0,615.783602999727,7.0,1.0,phase_2,go,500.0,400.0,1.0,,,,,,,,,blue,triangle
0.0,3.0,2.0,0.0,6.0,6.0,530.5064640001547,7.0,1.0,phase_2,go,500.0,400.0,1.0,,,,,,,,,blue,triangle
0.0,8.0,4.0,1.0,6.0,6.0,373.446117000185,7.0,1.0,phase_2,go,500.0,400.0,1.0,,,,,,,,,green,square
0.0,7.0,2.0,1.0,6.0,6.0,355.1241979998849,7.0,1.0,phase_2,stop,500.0,400.0,3.0,,,,,,,,,gray,diamond
0.0,4.0,4.0,0.0,6.0,6.0,420.3149629997824,7.0,1.0,phase_2,go,500.0,350.0,1.0,,,,,,,,,cyan,I
0.0,1.0,0.5,0.0,5.0,5.0,724.6237839999594,8.0,1.0,phase_2,go,500.0,350.0,1.0,,,,,,,,,orange,flipped triangle
0.0,6.0,1.0,1.0,6.0,6.0,529.0337980000004,8.0,1.0,phase_2,go,500.0,350.0,1.0,,,,,,,,,magenta,hexagon
0.0,4.0,4.0,0.0,5.0,5.0,427.888891999828,8.0,1.0,phase_2,go,500.0,350.0,1.0,,,,,,,,,cyan,I
0.0,5.0,0.5,1.0,5.0,5.0,559.4669679999242,8.0,1.0,phase_2,go,500.0,350.0,1.0,,,,,,,,,white,circle
0.0,4.0,4.0,0.0,6.0,6.0,430.0679719999607,8.0,1.0,phase_2,go,500.0,350.0,1.0,,,,,,,,,cyan,I
0.0,5.0,0.5,1.0,5.0,5.0,470.1542880002307,8.0,1.0,phase_2,stop,500.0,350.0,3.0,,,,,,,,,white,circle
0.0,4.0,4.0,0.0,5.0,5.0,511.01661700022305,8.0,1.0,phase_2,go,450.0,350.0,1.0,,,,,,,,,cyan,I
0.0,3.0,2.0,0.0,5.0,5.0,522.9017159999785,8.0,1.0,phase_2,go,450.0,350.0,1.0,,,,,,,,,blue,triangle
0.0,6.0,1.0,1.0,6.0,6.0,391.2772310000036,8.0,1.0,phase_2,go,450.0,350.0,1.0,,,,,,,,,magenta,hexagon
0.0,6.0,1.0,1.0,6.0,6.0,384.8959100000684,8.0,1.0,phase_2,stop,450.0,350.0,3.0,,,,,,,,,magenta,hexagon
0.0,5.0,0.5,1.0,6.0,0.0,0.0,8.0,1.0,phase_2,stop,450.0,300.0,4.0,,,,,,,,,white,circle
0.0,7.0,2.0,1.0,5.0,5.0,585.6031190000976,8.0,1.0,phase_2,stop,450.0,350.0,3.0,,,,,,,,,gray,diamond
0.0,1.0,0.5,0.0,6.0,6.0,334.3343070000628,8.0,1.0,phase_2,go,400.0,350.0,1.0,,,,,,,,,orange,flipped triangle
0.0,4.0,4.0,0.0,6.0,6.0,530.5286410002736,8.0,1.0,phase_2,go,400.0,350.0,1.0,,,,,,,,,cyan,I
0.0,7.0,2.0,1.0,6.0,0.0,0.0,8.0,1.0,phase_2,stop,400.0,350.0,4.0,,,,,,,,,gray,diamond
0.0,5.0,0.5,1.0,5.0,0.0,0.0,8.0,1.0,phase_2,stop,400.0,400.0,4.0,,,,,,,,,white,circle
0.0,8.0,4.0,1.0,5.0,5.0,617.269006999777,8.0,1.0,phase_2,stop,450.0,400.0,3.0,,,,,,,,,green,square
0.0,2.0,1.0,0.0,5.0,5.0,698.9412660000198,8.0,1.0,phase_2,go,400.0,400.0,1.0,,,,,,,,,yellow,cross
0.0,5.0,0.5,1.0,5.0,0.0,0.0,8.0,1.0,phase_2,stop,400.0,400.0,4.0,,,,,,,,,white,circle
0.0,6.0,1.0,1.0,5.0,0.0,0.0,8.0,1.0,phase_2,stop,450.0,400.0,4.0,,,,,,,,,magenta,hexagon
0.0,7.0,2.0,1.0,6.0,0.0,0.0,8.0,1.0,phase_2,stop,500.0,400.0,4.0,,,,,,,,,gray,diamond
0.0,1.0,0.5,0.0,5.0,5.0,867.4989070000265,8.0,1.0,phase_2,go,500.0,450.0,1.0,,,,,,,,,orange,flipped triangle
0.0,2.0,1.0,0.0,6.0,6.0,734.5347240002411,8.0,1.0,phase_2,go,500.0,450.0,1.0,,,,,,,,,yellow,cross
0.0,3.0,2.0,0.0,5.0,5.0,530.817651000234,8.0,1.0,phase_2,go,500.0,450.0,1.0,,,,,,,,,blue,triangle
0.0,4.0,4.0,0.0,5.0,5.0,485.5033200001344,8.0,1.0,phase_2,go,500.0,450.0,1.0,,,,,,,,,cyan,I
0.0,2.0,1.0,0.0,6.0,6.0,605.6116079998901,8.0,1.0,phase_2,go,500.0,450.0,1.0,,,,,,,,,yellow,cross
0.0,3.0,2.0,0.0,6.0,6.0,409.2397089998485,8.0,1.0,phase_2,go,500.0,450.0,1.0,,,,,,,,,blue,triangle
0.0,1.0,0.5,0.0,6.0,6.0,390.742734000014,8.0,1.0,phase_2,go,500.0,450.0,1.0,,,,,,,,,orange,flipped triangle
0.0,2.0,1.0,0.0,5.0,5.0,494.3174850000105,8.0,1.0,phase_2,go,500.0,450.0,1.0,,,,,,,,,yellow,cross
0.0,6.0,1.0,1.0,6.0,6.0,317.2183550000227,8.0,1.0,phase_2,go,500.0,450.0,1.0,,,,,,,,,magenta,hexagon
0.0,8.0,4.0,1.0,6.0,6.0,436.6411820001303,8.0,1.0,phase_2,stop,500.0,450.0,3.0,,,,,,,,,green,square
0.0,3.0,2.0,0.0,5.0,5.0,474.3481290001909,8.0,1.0,phase_2,go,500.0,400.0,1.0,,,,,,,,,blue,triangle
0.0,1.0,0.5,0.0,5.0,5.0,476.1154769998938,8.0,1.0,phase_2,go,500.0,400.0,1.0,,,,,,,,,orange,flipped triangle
0.0,8.0,4.0,1.0,5.0,5.0,354.0455000002112,8.0,1.0,phase_2,stop,500.0,400.0,3.0,,,,,,,,,green,square
0.0,1.0,0.5,0.0,6.0,6.0,391.8600550000519,8.0,1.0,phase_2,go,450.0,400.0,1.0,,,,,,,,,orange,flipped triangle
0.0,8.0,4.0,1.0,6.0,6.0,426.8392849999145,8.0,1.0,phase_2,stop,450.0,400.0,3.0,,,,,,,,,green,square
0.0,8.0,4.0,1.0,7.0,4.0,2157.424895999611,1.0,3.0,phase_3,,,,,462.0,3.0,308.0,154.0,770.0,462.0,924.0,616.0,green,square
0.0,3.0,2.0,0.0,7.0,5.0,2652.128808999805,1.0,1.0,phase_3,,,,,384.0,2.0,1152.0,576.0,960.0,192.0,384.0,768.0,blue,triangle
0.0,5.0,0.5,1.0,7.0,5.0,3426.927731999968,1.0,1.0,phase_3,,,,,135.0,1.0,675.0,270.0,810.0,405.0,135.0,540.0,white,circle
0.0,3.0,2.0,0.0,7.0,2.0,2269.219060000069,1.0,1.0,phase_3,,,,,308.0,2.0,770.0,308.0,462.0,154.0,924.0,616.0,blue,triangle
0.0,6.0,1.0,1.0,7.0,4.0,3461.2256430000343,1.0,1.0,phase_3,,,,,675.0,5.0,270.0,810.0,540.0,675.0,135.0,405.0,magenta,hexagon
0.0,8.0,4.0,1.0,7.0,4.0,3843.3081570001377,1.0,1.0,phase_3,,,,,346.0,2.0,519.0,1038.0,865.0,346.0,692.0,173.0,green,square
0.0,4.0,4.0,0.0,7.0,4.0,4078.3461230003013,1.0,1.0,phase_3,,,,,810.0,6.0,135.0,540.0,675.0,810.0,405.0,270.0,cyan,I
0.0,4.0,4.0,0.0,7.0,6.0,3423.240991000057,1.0,1.0,phase_3,,,,,768.0,4.0,960.0,1152.0,576.0,192.0,384.0,768.0,cyan,I
0.0,5.0,0.5,1.0,7.0,6.0,2388.905777999753,1.0,1.0,phase_3,,,,,192.0,1.0,768.0,1152.0,384.0,960.0,576.0,192.0,white,circle
0.0,6.0,1.0,1.0,7.0,6.0,3427.772258999539,1.0,1.0,phase_3,,,,,576.0,3.0,768.0,1152.0,384.0,960.0,192.0,576.0,magenta,hexagon
0.0,6.0,1.0,1.0,7.0,3.0,1978.696535999916,1.0,1.0,phase_3,,,,,616.0,4.0,462.0,770.0,616.0,308.0,154.0,924.0,magenta,hexagon
0.0,3.0,2.0,0.0,7.0,2.0,1802.7540949997276,1.0,1.0,phase_3,,,,,346.0,2.0,519.0,346.0,173.0,1038.0,865.0,692.0,blue,triangle
0.0,7.0,2.0,1.0,7.0,6.0,2182.969428999968,1.0,1.0,phase_3,,,,,405.0,3.0,540.0,675.0,135.0,810.0,270.0,405.0,gray,diamond
0.0,2.0,1.0,0.0,7.0,4.0,3913.141908000398,1.0,1.0,phase_3,,,,,1038.0,6.0,173.0,346.0,519.0,1038.0,865.0,692.0,yellow,cross
0.0,2.0,1.0,0.0,7.0,4.0,3441.4343870002995,1.0,1.0,phase_3,,,,,696.0,6.0,348.0,116.0,464.0,696.0,232.0,580.0,yellow,cross
0.0,7.0,2.0,1.0,7.0,4.0,1518.8274239999373,1.0,1.0,phase_3,,,,,462.0,3.0,770.0,924.0,616.0,462.0,154.0,308.0,gray,diamond
0.0,7.0,2.0,1.0,7.0,6.0,2219.883718999881,1.0,1.0,phase_3,,,,,384.0,2.0,960.0,576.0,192.0,768.0,1152.0,384.0,gray,diamond
0.0,6.0,1.0,1.0,7.0,2.0,1869.4043239993332,1.0,1.0,phase_3,,,,,696.0,6.0,232.0,696.0,580.0,348.0,464.0,116.0,magenta,hexagon
0.0,1.0,0.5,0.0,7.0,4.0,3617.80628499946,1.0,1.0,phase_3,,,,,270.0,2.0,675.0,405.0,810.0,270.0,540.0,135.0,orange,flipped triangle
0.0,4.0,4.0,0.0,7.0,4.0,4105.652762999853,1.0,1.0,phase_3,,,,,1038.0,6.0,692.0,173.0,346.0,1038.0,519.0,865.0,cyan,I
0.0,1.0,0.5,0.0,7.0,1.0,2609.7117460003574,2.0,1.0,phase_3,,,,,308.0,2.0,308.0,616.0,462.0,154.0,770.0,924.0,orange,flipped triangle
0.0,3.0,2.0,0.0,7.0,2.0,1727.674696000577,2.0,1.0,phase_3,,,,,348.0,3.0,464.0,348.0,232.0,696.0,116.0,580.0,blue,triangle
0.0,3.0,2.0,0.0,7.0,1.0,1541.462557000159,2.0,1.0,phase_3,,,,,346.0,2.0,346.0,865.0,1038.0,173.0,519.0,692.0,blue,triangle
0.0,1.0,0.5,0.0,7.0,3.0,2572.390430999804,2.0,1.0,phase_3,,,,,462.0,3.0,770.0,924.0,462.0,616.0,308.0,154.0,orange,flipped triangle
0.0,5.0,0.5,1.0,7.0,2.0,2507.118755999727,2.0,1.0,phase_3,,,,,173.0,1.0,1038.0,173.0,692.0,519.0,346.0,865.0,white,circle
0.0,1.0,0.5,0.0,7.0,2.0,3525.367854999786,2.0,1.0,phase_3,,,,,346.0,2.0,173.0,346.0,1038.0,865.0,519.0,692.0,orange,flipped triangle
0.0,2.0,1.0,0.0,7.0,1.0,1662.8083779996814,2.0,1.0,phase_3,,,,,1152.0,6.0,1152.0,768.0,192.0,384.0,960.0,576.0,yellow,cross
0.0,4.0,4.0,0.0,7.0,1.0,3577.037107000251,2.0,1.0,phase_3,,,,,696.0,6.0,696.0,116.0,232.0,348.0,580.0,464.0,cyan,I
0.0,4.0,4.0,0.0,7.0,2.0,2521.841568000127,2.0,1.0,phase_3,,,,,675.0,5.0,540.0,675.0,135.0,405.0,810.0,270.0,cyan,I
0.0,2.0,1.0,0.0,7.0,4.0,2596.4055879994703,2.0,1.0,phase_3,,,,,1152.0,6.0,192.0,384.0,768.0,1152.0,576.0,960.0,yellow,cross
0.0,8.0,4.0,1.0,7.0,4.0,1720.4662330004794,2.0,1.0,phase_3,,,,,464.0,4.0,116.0,232.0,348.0,464.0,580.0,696.0,green,square
0.0,2.0,1.0,0.0,7.0,1.0,2174.165205999998,2.0,1.0,phase_3,,,,,810.0,6.0,810.0,135.0,540.0,405.0,675.0,270.0,yellow,cross
0.0,3.0,2.0,0.0,7.0,6.0,2155.5174949999127,2.0,1.0,phase_3,,,,,384.0,2.0,768.0,192.0,1152.0,576.0,960.0,384.0,blue,triangle
0.0,6.0,1.0,1.0,7.0,1.0,4038.809329999822,2.0,1.0,phase_3,,,,,675.0,5.0,675.0,405.0,135.0,810.0,540.0,270.0,magenta,hexagon
0.0,2.0,1.0,0.0,7.0,5.0,2423.071097000502,2.0,1.0,phase_3,,,,,1038.0,6.0,692.0,865.0,346.0,519.0,1038.0,173.0,yellow,cross
0.0,5.0,0.5,1.0,7.0,6.0,1319.4937520001986,2.0,1.0,phase_3,,,,,192.0,1.0,576.0,1152.0,384.0,960.0,768.0,192.0,white,circle
0.0,6.0,1.0,1.0,7.0,6.0,2199.881794999783,2.0,1.0,phase_3,,,,,696.0,6.0,348.0,580.0,232.0,116.0,464.0,696.0,magenta,hexagon
0.0,5.0,0.5,1.0,7.0,3.0,2678.019637000034,2.0,1.0,phase_3,,,,,135.0,1.0,675.0,540.0,135.0,405.0,810.0,270.0,white,circle
0.0,1.0,0.5,0.0,7.0,5.0,1938.3106189998216,2.0,1.0,phase_3,,,,,348.0,3.0,580.0,232.0,696.0,464.0,348.0,116.0,orange,flipped triangle
0.0,4.0,4.0,0.0,7.0,6.0,1947.1379899996464,2.0,1.0,phase_3,,,,,1152.0,6.0,384.0,192.0,768.0,960.0,576.0,1152.0,cyan,I
0.0,6.0,1.0,1.0,7.0,3.0,1784.0992709998318,3.0,1.0,phase_3,,,,,616.0,4.0,462.0,924.0,616.0,308.0,770.0,154.0,magenta,hexagon
0.0,2.0,1.0,0.0,7.0,2.0,2804.479869000716,3.0,1.0,phase_3,,,,,696.0,6.0,348.0,696.0,232.0,580.0,464.0,116.0,yellow,cross
0.0,6.0,1.0,1.0,7.0,5.0,2142.678674000308,3.0,1.0,phase_3,,,,,576.0,3.0,960.0,192.0,384.0,1152.0,576.0,768.0,magenta,hexagon
0.0,3.0,2.0,0.0,7.0,5.0,1920.7155359999888,3.0,1.0,phase_3,,,,,232.0,2.0,580.0,696.0,464.0,116.0,232.0,348.0,blue,triangle
0.0,6.0,1.0,1.0,7.0,4.0,1791.7831989998376,3.0,1.0,phase_3,,,,,692.0,4.0,173.0,519.0,1038.0,692.0,865.0,346.0,magenta,hexagon
0.0,4.0,4.0,0.0,7.0,1.0,3140.308134999941,3.0,1.0,phase_3,,,,,696.0,6.0,696.0,116.0,348.0,464.0,232.0,580.0,cyan,I
0.0,8.0,4.0,1.0,7.0,3.0,1254.8682200003896,3.0,1.0,phase_3,,,,,464.0,4.0,696.0,580.0,464.0,348.0,116.0,232.0,green,square
0.0,7.0,2.0,1.0,7.0,2.0,2516.0388610001974,3.0,1.0,phase_3,,,,,346.0,2.0,865.0,346.0,519.0,692.0,1038.0,173.0,gray,diamond
0.0,2.0,1.0,0.0,7.0,6.0,2638.2406160000755,3.0,1.0,phase_3,,,,,924.0,6.0,616.0,462.0,308.0,154.0,770.0,924.0,yellow,cross
0.0,2.0,1.0,0.0,7.0,1.0,2446.7615570001726,3.0,1.0,phase_3,,,,,924.0,6.0,924.0,616.0,462.0,154.0,308.0,770.0,yellow,cross
0.0,5.0,0.5,1.0,7.0,4.0,1477.2081959999923,3.0,1.0,phase_3,,,,,173.0,1.0,1038.0,346.0,519.0,173.0,692.0,865.0,white,circle
0.0,1.0,0.5,0.0,7.0,2.0,1947.61027200002,3.0,1.0,phase_3,,,,,346.0,2.0,692.0,346.0,519.0,173.0,1038.0,865.0,orange,flipped triangle
0.0,5.0,0.5,1.0,7.0,4.0,2152.327712999977,3.0,1.0,phase_3,,,,,116.0,1.0,696.0,464.0,232.0,116.0,348.0,580.0,white,circle
0.0,4.0,4.0,0.0,7.0,6.0,2217.271523999443,3.0,1.0,phase_3,,,,,924.0,6.0,308.0,154.0,616.0,770.0,462.0,924.0,cyan,I
0.0,7.0,2.0,1.0,7.0,5.0,2429.192819000491,3.0,1.0,phase_3,,,,,540.0,4.0,270.0,675.0,135.0,810.0,540.0,405.0,gray,diamond
0.0,7.0,2.0,1.0,7.0,5.0,2392.6804479997368,3.0,1.0,phase_3,,,,,346.0,2.0,1038.0,173.0,865.0,519.0,346.0,692.0,gray,diamond
0.0,3.0,2.0,0.0,7.0,2.0,2151.7505729998447,3.0,1.0,phase_3,,,,,308.0,2.0,462.0,308.0,770.0,154.0,616.0,924.0,blue,triangle
0.0,8.0,4.0,1.0,7.0,1.0,2208.5433940001167,3.0,1.0,phase_3,,,,,346.0,2.0,346.0,173.0,519.0,692.0,1038.0,865.0,green,square
0.0,7.0,2.0,1.0,7.0,3.0,1780.6926550001665,3.0,1.0,phase_3,,,,,462.0,3.0,616.0,154.0,462.0,924.0,308.0,770.0,gray,diamond
0.0,7.0,2.0,1.0,7.0,6.0,2403.126451999924,3.0,1.0,phase_3,,,,,464.0,4.0,232.0,580.0,696.0,116.0,348.0,464.0,gray,diamond
0.0,1.0,0.5,0.0,7.0,3.0,1339.8822589997508,4.0,1.0,phase_3,,,,,348.0,3.0,232.0,580.0,348.0,116.0,696.0,464.0,orange,flipped triangle
0.0,1.0,0.5,0.0,7.0,4.0,1300.461266999264,4.0,1.0,phase_3,,,,,384.0,2.0,576.0,768.0,1152.0,384.0,192.0,960.0,orange,flipped triangle
0.0,5.0,0.5,1.0,7.0,3.0,1459.782439999799,4.0,1.0,phase_3,,,,,116.0,1.0,580.0,232.0,116.0,464.0,696.0,348.0,white,circle
0.0,4.0,4.0,0.0,7.0,6.0,2456.826546999764,4.0,1.0,phase_3,,,,,924.0,6.0,770.0,308.0,462.0,154.0,616.0,924.0,cyan,I
0.0,3.0,2.0,0.0,7.0,6.0,3635.049561000415,4.0,1.0,phase_3,,,,,405.0,3.0,675.0,135.0,810.0,270.0,540.0,405.0,blue,triangle
0.0,8.0,4.0,1.0,7.0,6.0,1544.4494479997957,4.0,1.0,phase_3,,,,,405.0,3.0,675.0,135.0,270.0,540.0,810.0,405.0,green,square
0.0,5.0,0.5,1.0,7.0,2.0,1451.621234000413,4.0,1.0,phase_3,,,,,154.0,1.0,924.0,154.0,462.0,308.0,616.0,770.0,white,circle
0.0,8.0,4.0,1.0,7.0,1.0,2151.9972189998957,4.0,1.0,phase_3,,,,,405.0,3.0,405.0,135.0,270.0,540.0,810.0,675.0,green,square
0.0,1.0,0.5,0.0,7.0,4.0,3476.440550000006,4.0,1.0,phase_3,,,,,384.0,2.0,576.0,768.0,1152.0,384.0,960.0,192.0,orange,flipped triangle
0.0,2.0,1.0,0.0,7.0,2.0,2660.493786999723,4.0,1.0,phase_3,,,,,675.0,5.0,540.0,675.0,405.0,810.0,135.0,270.0,yellow,cross
0.0,4.0,4.0,0.0,7.0,1.0,1952.043056000548,4.0,1.0,phase_3,,,,,1038.0,6.0,1038.0,346.0,173.0,865.0,692.0,519.0,cyan,I
0.0,7.0,2.0,1.0,7.0,5.0,1923.8233510004648,4.0,1.0,phase_3,,,,,384.0,2.0,768.0,192.0,1152.0,576.0,384.0,960.0,gray,diamond
0.0,8.0,4.0,1.0,7.0,6.0,2161.055210000086,4.0,1.0,phase_3,,,,,384.0,2.0,1152.0,192.0,768.0,960.0,576.0,384.0,green,square
0.0,3.0,2.0,0.0,7.0,1.0,2549.2853370005832,4.0,1.0,phase_3,,,,,405.0,3.0,405.0,270.0,135.0,540.0,810.0,675.0,blue,triangle
0.0,5.0,0.5,1.0,7.0,3.0,2011.983744000645,4.0,1.0,phase_3,,,,,154.0,1.0,616.0,462.0,154.0,308.0,770.0,924.0,white,circle
0.0,7.0,2.0,1.0,7.0,4.0,2017.0753909997075,4.0,1.0,phase_3,,,,,464.0,4.0,580.0,232.0,348.0,464.0,116.0,696.0,gray,diamond
0.0,1.0,0.5,0.0,7.0,3.0,3044.0600600004477,4.0,1.0,phase_3,,,,,405.0,3.0,810.0,270.0,405.0,135.0,540.0,675.0,orange,flipped triangle
0.0,8.0,4.0,1.0,7.0,5.0,2020.3905220005254,4.0,1.0,phase_3,,,,,384.0,2.0,1152.0,576.0,768.0,960.0,384.0,192.0,green,square
0.0,8.0,4.0,1.0,7.0,4.0,2491.5077360001305,4.0,1.0,phase_3,,,,,308.0,2.0,154.0,770.0,924.0,308.0,616.0,462.0,green,square
0.0,6.0,1.0,1.0,7.0,3.0,4330.259416999979,4.0,1.0,phase_3,,,,,346.0,2.0,1038.0,692.0,346.0,519.0,865.0,173.0,magenta,hexagon
