raw_reward_magnitude,stim_reward,stepwise_reward_magnitude,paired_with_stopping,stim_location,response,reaction_time,block,num_trial_presentations,which_phase,stop_signal_trial_type,left_SSD,right_SSD,accuracy,chosen_bidding_amount,chosen_bidding_level,possible_bid_1,possible_bid_2,possible_bid_3,possible_bid_4,possible_bid_5,possible_bid_6,color_text,shape_text
1287.0,8.0,4.0,1.0,1.0,1.0,573.5484229990107,1.0,1.0,phase_1,,,,,,,,,,,,,blue,diamond
154.0,5.0,1.0,1.0,1.0,1.0,602.8372839991789,1.0,1.0,phase_1,,,,,,,,,,,,,magenta,hexagon
664.0,7.0,3.0,1.0,2.0,2.0,924.6531709995908,1.0,1.0,phase_1,,,,,,,,,,,,,white,circle
1283.0,4.0,4.0,0.0,3.0,3.0,454.4881029996759,1.0,1.0,phase_1,,,,,,,,,,,,,gray,I
186.0,1.0,1.0,0.0,3.0,3.0,379.6755440016568,1.0,1.0,phase_1,,,,,,,,,,,,,cyan,flipped triangle
0.0,8.0,0.0,1.0,3.0,3.0,416.9734839997545,1.0,1.0,phase_1,,,,,,,,,,,,,blue,diamond
304.0,6.0,2.0,1.0,3.0,3.0,397.7595699998346,1.0,1.0,phase_1,,,,,,,,,,,,,yellow,cross
675.0,7.0,3.0,1.0,4.0,4.0,378.62340600077,1.0,1.0,phase_1,,,,,,,,,,,,,white,circle
140.0,1.0,1.0,0.0,1.0,1.0,499.6249970008648,1.0,1.0,phase_1,,,,,,,,,,,,,cyan,flipped triangle
338.0,6.0,2.0,1.0,1.0,1.0,739.259324998784,1.0,1.0,phase_1,,,,,,,,,,,,,yellow,cross
349.0,6.0,2.0,1.0,4.0,4.0,453.2964270001685,1.0,1.0,phase_1,,,,,,,,,,,,,yellow,cross
145.0,1.0,1.0,0.0,2.0,2.0,472.2373240001616,1.0,1.0,phase_1,,,,,,,,,,,,,cyan,flipped triangle
312.0,6.0,2.0,1.0,1.0,1.0,443.9520060004724,1.0,1.0,phase_1,,,,,,,,,,,,,yellow,cross
648.0,7.0,3.0,1.0,3.0,3.0,554.3848939996678,1.0,1.0,phase_1,,,,,,,,,,,,,white,circle
647.0,7.0,3.0,1.0,2.0,2.0,768.820836001396,1.0,1.0,phase_1,,,,,,,,,,,,,white,circle
154.0,1.0,1.0,0.0,2.0,2.0,537.0926089999557,1.0,1.0,phase_1,,,,,,,,,,,,,cyan,flipped triangle
0.0,7.0,0.0,1.0,4.0,4.0,398.8629560008121,1.0,1.0,phase_1,,,,,,,,,,,,,white,circle
627.0,3.0,3.0,0.0,2.0,2.0,610.6357640001079,1.0,1.0,phase_1,,,,,,,,,,,,,orange,triangle
305.0,6.0,2.0,1.0,2.0,2.0,472.5415459997748,1.0,1.0,phase_1,,,,,,,,,,,,,yellow,cross
349.0,2.0,2.0,0.0,2.0,2.0,416.855580999254,1.0,1.0,phase_1,,,,,,,,,,,,,green,square
671.0,7.0,3.0,1.0,1.0,1.0,603.5566110003856,1.0,1.0,phase_1,,,,,,,,,,,,,white,circle
0.0,5.0,0.0,1.0,4.0,4.0,666.3679310004227,1.0,1.0,phase_1,,,,,,,,,,,,,magenta,hexagon
0.0,4.0,0.0,0.0,3.0,3.0,555.4679599990777,1.0,1.0,phase_1,,,,,,,,,,,,,gray,I
303.0,2.0,2.0,0.0,2.0,2.0,581.3667479997093,1.0,1.0,phase_1,,,,,,,,,,,,,green,square
337.0,2.0,2.0,0.0,4.0,4.0,370.8297200009838,1.0,1.0,phase_1,,,,,,,,,,,,,green,square
629.0,7.0,3.0,1.0,1.0,1.0,712.615165999523,1.0,1.0,phase_1,,,,,,,,,,,,,white,circle
1317.0,8.0,4.0,1.0,1.0,1.0,573.6697219999769,1.0,1.0,phase_1,,,,,,,,,,,,,blue,diamond
163.0,5.0,1.0,1.0,4.0,4.0,499.6439490005286,1.0,1.0,phase_1,,,,,,,,,,,,,magenta,hexagon
177.0,5.0,1.0,1.0,3.0,3.0,371.0490529992967,1.0,1.0,phase_1,,,,,,,,,,,,,magenta,hexagon
0.0,1.0,0.0,0.0,4.0,4.0,427.1166840007936,1.0,1.0,phase_1,,,,,,,,,,,,,cyan,flipped triangle
668.0,3.0,3.0,0.0,2.0,2.0,546.6362169991044,1.0,1.0,phase_1,,,,,,,,,,,,,orange,triangle
312.0,2.0,2.0,0.0,2.0,2.0,370.7879300000058,1.0,1.0,phase_1,,,,,,,,,,,,,green,square
146.0,1.0,1.0,0.0,2.0,2.0,437.9678519999288,1.0,1.0,phase_1,,,,,,,,,,,,,cyan,flipped triangle
0.0,8.0,0.0,1.0,4.0,4.0,361.9813980003528,1.0,1.0,phase_1,,,,,,,,,,,,,blue,diamond
1323.0,8.0,4.0,1.0,1.0,1.0,463.838614999986,1.0,1.0,phase_1,,,,,,,,,,,,,blue,diamond
177.0,1.0,1.0,0.0,2.0,2.0,398.284048998903,1.0,1.0,phase_1,,,,,,,,,,,,,cyan,flipped triangle
0.0,5.0,0.0,1.0,4.0,4.0,352.6909450010862,1.0,1.0,phase_1,,,,,,,,,,,,,magenta,hexagon
305.0,2.0,2.0,0.0,4.0,4.0,500.1756210003805,1.0,1.0,phase_1,,,,,,,,,,,,,green,square
186.0,5.0,1.0,1.0,4.0,4.0,380.4862929991941,1.0,1.0,phase_1,,,,,,,,,,,,,magenta,hexagon
0.0,4.0,0.0,0.0,4.0,4.0,408.6680130003515,1.0,1.0,phase_1,,,,,,,,,,,,,gray,I
0.0,1.0,0.0,0.0,4.0,4.0,371.2295170007564,1.0,1.0,phase_1,,,,,,,,,,,,,cyan,flipped triangle
0.0,2.0,0.0,0.0,4.0,4.0,490.9360470010142,1.0,1.0,phase_1,,,,,,,,,,,,,green,square
1322.0,8.0,4.0,1.0,3.0,3.0,334.0555750000931,1.0,1.0,phase_1,,,,,,,,,,,,,blue,diamond
637.0,7.0,3.0,1.0,4.0,4.0,371.3103529989894,1.0,1.0,phase_1,,,,,,,,,,,,,white,circle
643.0,7.0,3.0,1.0,3.0,3.0,492.56843799958,1.0,1.0,phase_1,,,,,,,,,,,,,white,circle
649.0,7.0,3.0,1.0,2.0,2.0,572.3635839985945,1.0,1.0,phase_1,,,,,,,,,,,,,white,circle
183.0,5.0,1.0,1.0,3.0,3.0,416.096982999079,1.0,1.0,phase_1,,,,,,,,,,,,,magenta,hexagon
647.0,3.0,3.0,0.0,3.0,3.0,509.4877669998823,1.0,1.0,phase_1,,,,,,,,,,,,,orange,triangle
1295.0,8.0,4.0,1.0,1.0,1.0,574.11221700022,1.0,1.0,phase_1,,,,,,,,,,,,,blue,diamond
304.0,2.0,2.0,0.0,2.0,2.0,547.6112779997493,1.0,1.0,phase_1,,,,,,,,,,,,,green,square
342.0,2.0,2.0,0.0,1.0,1.0,444.2733619998762,1.0,1.0,phase_1,,,,,,,,,,,,,green,square
0.0,4.0,0.0,0.0,3.0,3.0,445.6766700004664,1.0,1.0,phase_1,,,,,,,,,,,,,gray,I
325.0,6.0,2.0,1.0,3.0,3.0,416.9880249992275,1.0,1.0,phase_1,,,,,,,,,,,,,yellow,cross
1324.0,4.0,4.0,0.0,2.0,2.0,527.0022759996209,1.0,1.0,phase_1,,,,,,,,,,,,,gray,I
674.0,3.0,3.0,0.0,3.0,3.0,472.7401950003695,1.0,1.0,phase_1,,,,,,,,,,,,,orange,triangle
305.0,2.0,2.0,0.0,3.0,3.0,389.6821070011356,1.0,1.0,phase_1,,,,,,,,,,,,,green,square
0.0,8.0,0.0,1.0,1.0,1.0,508.77483099975507,1.0,1.0,phase_1,,,,,,,,,,,,,blue,diamond
1287.0,4.0,4.0,0.0,4.0,4.0,530.4584410005191,1.0,1.0,phase_1,,,,,,,,,,,,,gray,I
347.0,2.0,2.0,0.0,2.0,2.0,334.3765549998352,1.0,2.0,phase_1,,,,,,,,,,,,,green,square
313.0,2.0,2.0,0.0,1.0,1.0,594.3281880008726,1.0,1.0,phase_1,,,,,,,,,,,,,green,square
320.0,6.0,2.0,1.0,4.0,4.0,472.1807840014662,1.0,1.0,phase_1,,,,,,,,,,,,,yellow,cross
180.0,5.0,1.0,1.0,1.0,1.0,558.5606549993827,1.0,1.0,phase_1,,,,,,,,,,,,,magenta,hexagon
0.0,8.0,0.0,1.0,4.0,4.0,566.1510919999273,1.0,1.0,phase_1,,,,,,,,,,,,,blue,diamond
0.0,6.0,0.0,1.0,1.0,1.0,426.0096239995619,1.0,1.0,phase_1,,,,,,,,,,,,,yellow,cross
149.0,5.0,1.0,1.0,1.0,1.0,630.1148379989172,1.0,1.0,phase_1,,,,,,,,,,,,,magenta,hexagon
146.0,5.0,1.0,1.0,3.0,3.0,581.4087870003277,1.0,1.0,phase_1,,,,,,,,,,,,,magenta,hexagon
0.0,3.0,0.0,0.0,3.0,3.0,407.8579940014606,1.0,1.0,phase_1,,,,,,,,,,,,,orange,triangle
669.0,7.0,3.0,1.0,4.0,4.0,582.905892000781,1.0,1.0,phase_1,,,,,,,,,,,,,white,circle
629.0,3.0,3.0,0.0,2.0,2.0,453.9965559997654,1.0,1.0,phase_1,,,,,,,,,,,,,orange,triangle
1292.0,8.0,4.0,1.0,3.0,3.0,379.1226230005122,1.0,1.0,phase_1,,,,,,,,,,,,,blue,diamond
1295.0,8.0,4.0,1.0,3.0,3.0,433.911686999636,1.0,1.0,phase_1,,,,,,,,,,,,,blue,diamond
147.0,5.0,1.0,1.0,1.0,1.0,648.3647069999279,1.0,1.0,phase_1,,,,,,,,,,,,,magenta,hexagon
1295.0,4.0,4.0,0.0,1.0,1.0,472.2011190006014,1.0,1.0,phase_1,,,,,,,,,,,,,gray,I
628.0,3.0,3.0,0.0,2.0,2.0,575.1245119990926,1.0,1.0,phase_1,,,,,,,,,,,,,orange,triangle
638.0,7.0,3.0,1.0,4.0,4.0,378.5540749995562,1.0,1.0,phase_1,,,,,,,,,,,,,white,circle
1289.0,4.0,4.0,0.0,2.0,2.0,969.7536499988928,1.0,1.0,phase_1,,,,,,,,,,,,,gray,I
0.0,2.0,0.0,0.0,2.0,2.0,509.4639950002602,1.0,1.0,phase_1,,,,,,,,,,,,,green,square
644.0,7.0,3.0,1.0,3.0,3.0,527.891338999325,1.0,1.0,phase_1,,,,,,,,,,,,,white,circle
630.0,3.0,3.0,0.0,4.0,4.0,488.9333760002046,1.0,1.0,phase_1,,,,,,,,,,,,,orange,triangle
321.0,6.0,2.0,1.0,4.0,4.0,470.8111090003513,1.0,1.0,phase_1,,,,,,,,,,,,,yellow,cross
182.0,5.0,1.0,1.0,4.0,4.0,572.92146600048,1.0,1.0,phase_1,,,,,,,,,,,,,magenta,hexagon
660.0,3.0,3.0,0.0,4.0,4.0,489.34397400080337,1.0,1.0,phase_1,,,,,,,,,,,,,orange,triangle
342.0,6.0,2.0,1.0,2.0,2.0,462.3020620001625,1.0,1.0,phase_1,,,,,,,,,,,,,yellow,cross
0.0,8.0,0.0,1.0,2.0,2.0,379.9209310000151,1.0,1.0,phase_1,,,,,,,,,,,,,blue,diamond
155.0,1.0,1.0,0.0,4.0,4.0,592.1695769993676,1.0,1.0,phase_1,,,,,,,,,,,,,cyan,flipped triangle
1313.0,4.0,4.0,0.0,1.0,1.0,545.7377470011124,1.0,1.0,phase_1,,,,,,,,,,,,,gray,I
147.0,1.0,1.0,0.0,2.0,2.0,473.255479000727,1.0,1.0,phase_1,,,,,,,,,,,,,cyan,flipped triangle
1283.0,4.0,4.0,0.0,4.0,4.0,501.68015899907914,1.0,1.0,phase_1,,,,,,,,,,,,,gray,I
1317.0,8.0,4.0,1.0,1.0,1.0,610.2581279992592,1.0,1.0,phase_1,,,,,,,,,,,,,blue,diamond
1297.0,8.0,4.0,1.0,4.0,4.0,453.1427279998752,1.0,1.0,phase_1,,,,,,,,,,,,,blue,diamond
0.0,8.0,0.0,1.0,1.0,1.0,661.6543399995862,1.0,1.0,phase_1,,,,,,,,,,,,,blue,diamond
154.0,1.0,1.0,0.0,3.0,3.0,445.801237001433,1.0,1.0,phase_1,,,,,,,,,,,,,cyan,flipped triangle
0.0,8.0,0.0,1.0,1.0,1.0,601.9325449997268,1.0,1.0,phase_1,,,,,,,,,,,,,blue,diamond
653.0,3.0,3.0,0.0,2.0,2.0,600.9845740009041,1.0,1.0,phase_1,,,,,,,,,,,,,orange,triangle
0.0,4.0,0.0,0.0,3.0,3.0,388.9717420006491,1.0,1.0,phase_1,,,,,,,,,,,,,gray,I
1287.0,4.0,4.0,0.0,1.0,1.0,535.721743999602,1.0,1.0,phase_1,,,,,,,,,,,,,gray,I
1304.0,8.0,4.0,1.0,4.0,4.0,537.7714989990636,1.0,1.0,phase_1,,,,,,,,,,,,,blue,diamond
337.0,6.0,2.0,1.0,3.0,3.0,517.8833069985558,1.0,1.0,phase_1,,,,,,,,,,,,,yellow,cross
147.0,1.0,1.0,0.0,1.0,1.0,591.7395100004796,1.0,1.0,phase_1,,,,,,,,,,,,,cyan,flipped triangle
327.0,6.0,2.0,1.0,4.0,4.0,518.5658970003715,1.0,1.0,phase_1,,,,,,,,,,,,,yellow,cross
333.0,2.0,2.0,0.0,1.0,1.0,555.0097039995308,2.0,1.0,phase_1,,,,,,,,,,,,,green,square
1318.0,8.0,4.0,1.0,4.0,4.0,452.9557829991972,2.0,1.0,phase_1,,,,,,,,,,,,,blue,diamond
1317.0,4.0,4.0,0.0,3.0,3.0,471.0823790010181,2.0,1.0,phase_1,,,,,,,,,,,,,gray,I
148.0,1.0,1.0,0.0,4.0,4.0,471.6644150012143,2.0,1.0,phase_1,,,,,,,,,,,,,cyan,flipped triangle
0.0,7.0,0.0,1.0,4.0,4.0,490.666533998592,2.0,1.0,phase_1,,,,,,,,,,,,,white,circle
630.0,7.0,3.0,1.0,4.0,4.0,408.050292999178,2.0,1.0,phase_1,,,,,,,,,,,,,white,circle
145.0,5.0,1.0,1.0,2.0,2.0,592.0916390005004,2.0,1.0,phase_1,,,,,,,,,,,,,magenta,hexagon
1280.0,8.0,4.0,1.0,4.0,4.0,435.1758390002942,2.0,1.0,phase_1,,,,,,,,,,,,,blue,diamond
665.0,7.0,3.0,1.0,4.0,4.0,425.3052929998375,2.0,1.0,phase_1,,,,,,,,,,,,,white,circle
328.0,6.0,2.0,1.0,2.0,2.0,593.4044959994935,2.0,1.0,phase_1,,,,,,,,,,,,,yellow,cross
1313.0,8.0,4.0,1.0,2.0,2.0,454.0874689992051,2.0,1.0,phase_1,,,,,,,,,,,,,blue,diamond
1317.0,4.0,4.0,0.0,1.0,1.0,665.8937089996471,2.0,1.0,phase_1,,,,,,,,,,,,,gray,I
660.0,7.0,3.0,1.0,3.0,3.0,564.0713000011601,2.0,1.0,phase_1,,,,,,,,,,,,,white,circle
319.0,6.0,2.0,1.0,3.0,3.0,463.964565000424,2.0,1.0,phase_1,,,,,,,,,,,,,yellow,cross
0.0,3.0,0.0,0.0,4.0,4.0,480.2913890016498,2.0,1.0,phase_1,,,,,,,,,,,,,orange,triangle
637.0,3.0,3.0,0.0,1.0,1.0,546.1993289991369,2.0,1.0,phase_1,,,,,,,,,,,,,orange,triangle
168.0,5.0,1.0,1.0,3.0,3.0,567.0753460017295,2.0,1.0,phase_1,,,,,,,,,,,,,magenta,hexagon
301.0,2.0,2.0,0.0,3.0,3.0,452.7553349998925,2.0,1.0,phase_1,,,,,,,,,,,,,green,square
669.0,7.0,3.0,1.0,2.0,2.0,573.1086550003965,2.0,1.0,phase_1,,,,,,,,,,,,,white,circle
160.0,1.0,1.0,0.0,2.0,2.0,489.4117779986118,2.0,1.0,phase_1,,,,,,,,,,,,,cyan,flipped triangle
155.0,5.0,1.0,1.0,2.0,2.0,425.846571000875,2.0,1.0,phase_1,,,,,,,,,,,,,magenta,hexagon
312.0,2.0,2.0,0.0,1.0,1.0,701.6880080009287,2.0,1.0,phase_1,,,,,,,,,,,,,green,square
163.0,5.0,1.0,1.0,1.0,1.0,489.5065160017111,2.0,1.0,phase_1,,,,,,,,,,,,,magenta,hexagon
673.0,7.0,3.0,1.0,3.0,3.0,398.0118439994839,2.0,1.0,phase_1,,,,,,,,,,,,,white,circle
1278.0,4.0,4.0,0.0,3.0,3.0,434.6212450000166,2.0,1.0,phase_1,,,,,,,,,,,,,gray,I
0.0,3.0,0.0,0.0,1.0,1.0,472.2741169989604,2.0,1.0,phase_1,,,,,,,,,,,,,orange,triangle
668.0,3.0,3.0,0.0,1.0,1.0,566.7430459998286,2.0,1.0,phase_1,,,,,,,,,,,,,orange,triangle
145.0,5.0,1.0,1.0,3.0,3.0,498.5757850008667,2.0,1.0,phase_1,,,,,,,,,,,,,magenta,hexagon
323.0,2.0,2.0,0.0,3.0,3.0,379.7465920015384,2.0,1.0,phase_1,,,,,,,,,,,,,green,square
163.0,1.0,1.0,0.0,2.0,2.0,613.080560000526,2.0,1.0,phase_1,,,,,,,,,,,,,cyan,flipped triangle
1283.0,8.0,4.0,1.0,1.0,1.0,518.7912309993408,2.0,1.0,phase_1,,,,,,,,,,,,,blue,diamond
315.0,6.0,2.0,1.0,2.0,2.0,547.008255000037,2.0,1.0,phase_1,,,,,,,,,,,,,yellow,cross
0.0,7.0,0.0,1.0,1.0,1.0,528.2664309997926,2.0,1.0,phase_1,,,,,,,,,,,,,white,circle
1312.0,8.0,4.0,1.0,1.0,1.0,530.6489100003091,2.0,1.0,phase_1,,,,,,,,,,,,,blue,diamond
0.0,2.0,0.0,0.0,2.0,2.0,390.0206750004145,2.0,1.0,phase_1,,,,,,,,,,,,,green,square
0.0,8.0,0.0,1.0,1.0,1.0,408.0473550002352,2.0,1.0,phase_1,,,,,,,,,,,,,blue,diamond
138.0,5.0,1.0,1.0,3.0,3.0,480.5802649989346,2.0,1.0,phase_1,,,,,,,,,,,,,magenta,hexagon
1303.0,8.0,4.0,1.0,4.0,4.0,415.9520789999078,2.0,1.0,phase_1,,,,,,,,,,,,,blue,diamond
1283.0,8.0,4.0,1.0,2.0,2.0,575.1534999999421,2.0,1.0,phase_1,,,,,,,,,,,,,blue,diamond
0.0,2.0,0.0,0.0,3.0,3.0,415.9854690005886,2.0,1.0,phase_1,,,,,,,,,,,,,green,square
317.0,6.0,2.0,1.0,1.0,1.0,490.0479580010142,2.0,1.0,phase_1,,,,,,,,,,,,,yellow,cross
0.0,1.0,0.0,0.0,1.0,1.0,436.1428190004517,2.0,1.0,phase_1,,,,,,,,,,,,,cyan,flipped triangle
323.0,2.0,2.0,0.0,1.0,1.0,554.394210999817,2.0,1.0,phase_1,,,,,,,,,,,,,green,square
664.0,3.0,3.0,0.0,4.0,4.0,545.1678490007907,2.0,1.0,phase_1,,,,,,,,,,,,,orange,triangle
342.0,6.0,2.0,1.0,1.0,1.0,379.1416940002818,2.0,1.0,phase_1,,,,,,,,,,,,,yellow,cross
186.0,1.0,1.0,0.0,1.0,1.0,436.3714120008808,2.0,1.0,phase_1,,,,,,,,,,,,,cyan,flipped triangle
625.0,3.0,3.0,0.0,4.0,4.0,443.0325680004898,2.0,1.0,phase_1,,,,,,,,,,,,,orange,triangle
332.0,6.0,2.0,1.0,3.0,3.0,443.7730469999223,2.0,1.0,phase_1,,,,,,,,,,,,,yellow,cross
675.0,3.0,3.0,0.0,2.0,2.0,472.5661050015333,2.0,1.0,phase_1,,,,,,,,,,,,,orange,triangle
1283.0,4.0,4.0,0.0,4.0,4.0,462.8866560015012,2.0,1.0,phase_1,,,,,,,,,,,,,gray,I
0.0,2.0,0.0,0.0,1.0,1.0,518.7970830011182,2.0,1.0,phase_1,,,,,,,,,,,,,green,square
647.0,7.0,3.0,1.0,1.0,1.0,415.7798899996123,2.0,1.0,phase_1,,,,,,,,,,,,,white,circle
661.0,7.0,3.0,1.0,2.0,2.0,713.4179250006127,2.0,1.0,phase_1,,,,,,,,,,,,,white,circle
0.0,2.0,0.0,0.0,2.0,2.0,565.0384869986738,2.0,1.0,phase_1,,,,,,,,,,,,,green,square
0.0,1.0,0.0,0.0,2.0,2.0,574.0814769997087,2.0,1.0,phase_1,,,,,,,,,,,,,cyan,flipped triangle
0.0,1.0,0.0,0.0,2.0,2.0,573.4856510007376,2.0,1.0,phase_1,,,,,,,,,,,,,cyan,flipped triangle
1324.0,8.0,4.0,1.0,3.0,3.0,442.8742789987154,2.0,1.0,phase_1,,,,,,,,,,,,,blue,diamond
167.0,5.0,1.0,1.0,4.0,4.0,646.1927469990769,2.0,1.0,phase_1,,,,,,,,,,,,,magenta,hexagon
1278.0,8.0,4.0,1.0,4.0,4.0,387.9735059999802,2.0,1.0,phase_1,,,,,,,,,,,,,blue,diamond
327.0,2.0,2.0,0.0,3.0,3.0,721.8481990003056,2.0,1.0,phase_1,,,,,,,,,,,,,green,square
149.0,1.0,1.0,0.0,3.0,3.0,388.6235739992116,2.0,1.0,phase_1,,,,,,,,,,,,,cyan,flipped triangle
171.0,1.0,1.0,0.0,4.0,4.0,388.7151090002589,2.0,1.0,phase_1,,,,,,,,,,,,,cyan,flipped triangle
638.0,3.0,3.0,0.0,1.0,1.0,499.4068280011561,2.0,1.0,phase_1,,,,,,,,,,,,,orange,triangle
341.0,2.0,2.0,0.0,4.0,4.0,326.4160339986119,2.0,1.0,phase_1,,,,,,,,,,,,,green,square
0.0,7.0,0.0,1.0,4.0,4.0,407.081195999126,2.0,1.0,phase_1,,,,,,,,,,,,,white,circle
187.0,5.0,1.0,1.0,3.0,3.0,389.42010899882,2.0,1.0,phase_1,,,,,,,,,,,,,magenta,hexagon
145.0,1.0,1.0,0.0,3.0,3.0,498.950421999325,2.0,1.0,phase_1,,,,,,,,,,,,,cyan,flipped triangle
1295.0,4.0,4.0,0.0,4.0,4.0,693.5588480009756,2.0,1.0,phase_1,,,,,,,,,,,,,gray,I
0.0,1.0,0.0,0.0,1.0,1.0,592.1415810007602,2.0,2.0,phase_1,,,,,,,,,,,,,cyan,flipped triangle
326.0,2.0,2.0,0.0,4.0,4.0,462.4005069999839,2.0,1.0,phase_1,,,,,,,,,,,,,green,square
1283.0,4.0,4.0,0.0,2.0,2.0,445.110726999701,2.0,1.0,phase_1,,,,,,,,,,,,,gray,I
1302.0,4.0,4.0,0.0,2.0,2.0,489.8561410009279,2.0,1.0,phase_1,,,,,,,,,,,,,gray,I
1283.0,8.0,4.0,1.0,2.0,2.0,481.3082680011575,2.0,1.0,phase_1,,,,,,,,,,,,,blue,diamond
341.0,6.0,2.0,1.0,4.0,4.0,426.9681460009451,2.0,1.0,phase_1,,,,,,,,,,,,,yellow,cross
657.0,3.0,3.0,0.0,3.0,3.0,435.7632739993278,2.0,1.0,phase_1,,,,,,,,,,,,,orange,triangle
627.0,7.0,3.0,1.0,3.0,3.0,435.4500190002,2.0,1.0,phase_1,,,,,,,,,,,,,white,circle
342.0,2.0,2.0,0.0,3.0,3.0,388.4935759997461,2.0,1.0,phase_1,,,,,,,,,,,,,green,square
1312.0,4.0,4.0,0.0,2.0,2.0,508.685807000802,2.0,1.0,phase_1,,,,,,,,,,,,,gray,I
642.0,7.0,3.0,1.0,3.0,3.0,472.404534000816,2.0,1.0,phase_1,,,,,,,,,,,,,white,circle
138.0,1.0,1.0,0.0,1.0,1.0,693.752866000068,2.0,1.0,phase_1,,,,,,,,,,,,,cyan,flipped triangle
301.0,6.0,2.0,1.0,1.0,1.0,499.1147559994715,2.0,1.0,phase_1,,,,,,,,,,,,,yellow,cross
180.0,1.0,1.0,0.0,1.0,1.0,380.7221309998567,2.0,1.0,phase_1,,,,,,,,,,,,,cyan,flipped triangle
0.0,3.0,0.0,0.0,3.0,3.0,431.6139530001237,2.0,1.0,phase_1,,,,,,,,,,,,,orange,triangle
1295.0,8.0,4.0,1.0,2.0,2.0,582.8434590002871,2.0,1.0,phase_1,,,,,,,,,,,,,blue,diamond
0.0,5.0,0.0,1.0,4.0,4.0,444.6866830003273,2.0,1.0,phase_1,,,,,,,,,,,,,magenta,hexagon
333.0,6.0,2.0,1.0,2.0,2.0,618.9348250009061,2.0,1.0,phase_1,,,,,,,,,,,,,yellow,cross
0.0,6.0,0.0,1.0,2.0,2.0,463.7950020005519,2.0,1.0,phase_1,,,,,,,,,,,,,yellow,cross
637.0,7.0,3.0,1.0,2.0,2.0,436.9325909992767,2.0,1.0,phase_1,,,,,,,,,,,,,white,circle
0.0,7.0,0.0,1.0,1.0,1.0,646.820967000167,2.0,1.0,phase_1,,,,,,,,,,,,,white,circle
653.0,7.0,3.0,1.0,4.0,4.0,416.4465399990149,2.0,1.0,phase_1,,,,,,,,,,,,,white,circle
160.0,5.0,1.0,1.0,3.0,3.0,434.5017880004889,2.0,1.0,phase_1,,,,,,,,,,,,,magenta,hexagon
159.0,5.0,1.0,1.0,4.0,4.0,426.1221990000194,2.0,1.0,phase_1,,,,,,,,,,,,,magenta,hexagon
165.0,5.0,1.0,1.0,3.0,3.0,481.43890599931177,2.0,1.0,phase_1,,,,,,,,,,,,,magenta,hexagon
166.0,5.0,1.0,1.0,2.0,2.0,573.4028839997336,2.0,1.0,phase_1,,,,,,,,,,,,,magenta,hexagon
316.0,2.0,2.0,0.0,1.0,1.0,546.3253910002095,2.0,1.0,phase_1,,,,,,,,,,,,,green,square
1308.0,8.0,4.0,1.0,2.0,2.0,582.6346710000507,2.0,1.0,phase_1,,,,,,,,,,,,,blue,diamond
347.0,6.0,2.0,1.0,2.0,2.0,425.7628060004208,2.0,1.0,phase_1,,,,,,,,,,,,,yellow,cross
331.0,2.0,2.0,0.0,2.0,2.0,388.3046299997659,2.0,1.0,phase_1,,,,,,,,,,,,,green,square
1297.0,4.0,4.0,0.0,4.0,4.0,499.4717769986891,2.0,1.0,phase_1,,,,,,,,,,,,,gray,I
660.0,7.0,3.0,1.0,3.0,3.0,416.3955679996434,2.0,1.0,phase_1,,,,,,,,,,,,,white,circle
0.0,6.0,0.0,1.0,4.0,4.0,595.0918769995042,3.0,1.0,phase_1,,,,,,,,,,,,,yellow,cross
174.0,5.0,1.0,1.0,2.0,2.0,740.7564810000622,3.0,1.0,phase_1,,,,,,,,,,,,,magenta,hexagon
334.0,6.0,2.0,1.0,1.0,1.0,501.92426799912937,3.0,1.0,phase_1,,,,,,,,,,,,,yellow,cross
167.0,5.0,1.0,1.0,1.0,1.0,491.8504310007847,3.0,1.0,phase_1,,,,,,,,,,,,,magenta,hexagon
174.0,1.0,1.0,0.0,2.0,2.0,611.5016940002533,3.0,1.0,phase_1,,,,,,,,,,,,,cyan,flipped triangle
0.0,6.0,0.0,1.0,4.0,4.0,418.5725729985279,3.0,1.0,phase_1,,,,,,,,,,,,,yellow,cross
1309.0,4.0,4.0,0.0,2.0,2.0,445.0323330001993,3.0,1.0,phase_1,,,,,,,,,,,,,gray,I
1305.0,8.0,4.0,1.0,2.0,2.0,462.6388059987221,3.0,1.0,phase_1,,,,,,,,,,,,,blue,diamond
328.0,2.0,2.0,0.0,4.0,4.0,482.004527000754,3.0,1.0,phase_1,,,,,,,,,,,,,green,square
0.0,3.0,0.0,0.0,3.0,3.0,445.7139980004285,3.0,1.0,phase_1,,,,,,,,,,,,,orange,triangle
153.0,1.0,1.0,0.0,4.0,4.0,380.381198001487,3.0,1.0,phase_1,,,,,,,,,,,,,cyan,flipped triangle
1283.0,8.0,4.0,1.0,2.0,2.0,379.3505489993549,3.0,1.0,phase_1,,,,,,,,,,,,,blue,diamond
661.0,3.0,3.0,0.0,4.0,4.0,427.6656499987439,3.0,1.0,phase_1,,,,,,,,,,,,,orange,triangle
1309.0,8.0,4.0,1.0,3.0,3.0,369.6655679996183,3.0,1.0,phase_1,,,,,,,,,,,,,blue,diamond
183.0,1.0,1.0,0.0,1.0,1.0,454.1312789988296,3.0,1.0,phase_1,,,,,,,,,,,,,cyan,flipped triangle
1287.0,8.0,4.0,1.0,3.0,3.0,333.7730000002921,3.0,1.0,phase_1,,,,,,,,,,,,,blue,diamond
1305.0,4.0,4.0,0.0,3.0,3.0,484.3721750003169,3.0,1.0,phase_1,,,,,,,,,,,,,gray,I
324.0,2.0,2.0,0.0,1.0,1.0,454.7976800004107,3.0,1.0,phase_1,,,,,,,,,,,,,green,square
166.0,1.0,1.0,0.0,3.0,3.0,380.2508199987642,3.0,1.0,phase_1,,,,,,,,,,,,,cyan,flipped triangle
140.0,5.0,1.0,1.0,2.0,2.0,584.1404290003993,3.0,1.0,phase_1,,,,,,,,,,,,,magenta,hexagon
0.0,5.0,0.0,1.0,2.0,2.0,407.2249939999892,3.0,1.0,phase_1,,,,,,,,,,,,,magenta,hexagon
0.0,3.0,0.0,0.0,2.0,2.0,435.0055989998509,3.0,1.0,phase_1,,,,,,,,,,,,,orange,triangle
652.0,7.0,3.0,1.0,2.0,2.0,388.9991750002082,3.0,1.0,phase_1,,,,,,,,,,,,,white,circle
334.0,6.0,2.0,1.0,4.0,4.0,558.2425699994928,3.0,1.0,phase_1,,,,,,,,,,,,,yellow,cross
315.0,2.0,2.0,0.0,4.0,4.0,584.0556690000085,3.0,1.0,phase_1,,,,,,,,,,,,,green,square
338.0,2.0,2.0,0.0,1.0,1.0,631.0979059999227,3.0,1.0,phase_1,,,,,,,,,,,,,green,square
170.0,5.0,1.0,1.0,4.0,4.0,484.248843999012,3.0,1.0,phase_1,,,,,,,,,,,,,magenta,hexagon
0.0,3.0,0.0,0.0,2.0,2.0,510.1870130001771,3.0,1.0,phase_1,,,,,,,,,,,,,orange,triangle
0.0,7.0,0.0,1.0,3.0,3.0,733.083811999677,3.0,1.0,phase_1,,,,,,,,,,,,,white,circle
144.0,1.0,1.0,0.0,4.0,4.0,475.5226130000665,3.0,1.0,phase_1,,,,,,,,,,,,,cyan,flipped triangle
1289.0,8.0,4.0,1.0,2.0,2.0,528.4237529995153,3.0,1.0,phase_1,,,,,,,,,,,,,blue,diamond
1318.0,4.0,4.0,0.0,1.0,1.0,593.9790669999638,3.0,1.0,phase_1,,,,,,,,,,,,,gray,I
634.0,3.0,3.0,0.0,2.0,2.0,408.5796250001294,3.0,1.0,phase_1,,,,,,,,,,,,,orange,triangle
1279.0,8.0,4.0,1.0,2.0,2.0,538.0740959990362,3.0,1.0,phase_1,,,,,,,,,,,,,blue,diamond
1294.0,8.0,4.0,1.0,2.0,2.0,380.6189369988715,3.0,1.0,phase_1,,,,,,,,,,,,,blue,diamond
325.0,2.0,2.0,0.0,2.0,2.0,381.4145260002988,3.0,1.0,phase_1,,,,,,,,,,,,,green,square
303.0,6.0,2.0,1.0,1.0,1.0,518.7043289988651,3.0,1.0,phase_1,,,,,,,,,,,,,yellow,cross
316.0,6.0,2.0,1.0,2.0,2.0,474.7881599996617,3.0,1.0,phase_1,,,,,,,,,,,,,yellow,cross
669.0,3.0,3.0,0.0,1.0,1.0,472.7214499998808,3.0,1.0,phase_1,,,,,,,,,,,,,orange,triangle
336.0,2.0,2.0,0.0,4.0,4.0,510.5923819992313,3.0,1.0,phase_1,,,,,,,,,,,,,green,square
330.0,2.0,2.0,0.0,3.0,3.0,399.1409400005068,3.0,1.0,phase_1,,,,,,,,,,,,,green,square
1313.0,8.0,4.0,1.0,1.0,1.0,555.8774500004802,3.0,1.0,phase_1,,,,,,,,,,,,,blue,diamond
0.0,5.0,0.0,1.0,2.0,2.0,471.9830979993276,3.0,1.0,phase_1,,,,,,,,,,,,,magenta,hexagon
0.0,4.0,0.0,0.0,2.0,2.0,427.2889229996508,3.0,1.0,phase_1,,,,,,,,,,,,,gray,I
674.0,7.0,3.0,1.0,3.0,3.0,445.7285660009802,3.0,1.0,phase_1,,,,,,,,,,,,,white,circle
0.0,2.0,0.0,0.0,3.0,3.0,436.5554459982377,3.0,1.0,phase_1,,,,,,,,,,,,,green,square
1304.0,4.0,4.0,0.0,4.0,4.0,435.6895789987902,3.0,1.0,phase_1,,,,,,,,,,,,,gray,I
630.0,3.0,3.0,0.0,3.0,3.0,406.9485119998717,3.0,1.0,phase_1,,,,,,,,,,,,,orange,triangle
171.0,1.0,1.0,0.0,2.0,2.0,594.6011949999956,3.0,1.0,phase_1,,,,,,,,,,,,,cyan,flipped triangle
172.0,1.0,1.0,0.0,4.0,4.0,305.686562000119,3.0,1.0,phase_1,,,,,,,,,,,,,cyan,flipped triangle
642.0,7.0,3.0,1.0,1.0,1.0,427.1135330000106,3.0,1.0,phase_1,,,,,,,,,,,,,white,circle
1300.0,4.0,4.0,0.0,3.0,3.0,416.1939429995982,3.0,1.0,phase_1,,,,,,,,,,,,,gray,I
1324.0,8.0,4.0,1.0,1.0,1.0,464.9021629993513,3.0,1.0,phase_1,,,,,,,,,,,,,blue,diamond
0.0,4.0,0.0,0.0,4.0,4.0,362.643943999501,3.0,1.0,phase_1,,,,,,,,,,,,,gray,I
1322.0,4.0,4.0,0.0,4.0,4.0,455.9410029996797,3.0,1.0,phase_1,,,,,,,,,,,,,gray,I
165.0,1.0,1.0,0.0,1.0,1.0,583.9241330013465,3.0,1.0,phase_1,,,,,,,,,,,,,cyan,flipped triangle
159.0,1.0,1.0,0.0,4.0,4.0,407.834734998687,3.0,1.0,phase_1,,,,,,,,,,,,,cyan,flipped triangle
0.0,2.0,0.0,0.0,1.0,1.0,334.2777390007541,3.0,1.0,phase_1,,,,,,,,,,,,,green,square
641.0,3.0,3.0,0.0,3.0,3.0,462.1348199998465,3.0,1.0,phase_1,,,,,,,,,,,,,orange,triangle
170.0,1.0,1.0,0.0,3.0,3.0,398.4693029997288,3.0,1.0,phase_1,,,,,,,,,,,,,cyan,flipped triangle
1294.0,4.0,4.0,0.0,1.0,1.0,557.3009629988519,3.0,1.0,phase_1,,,,,,,,,,,,,gray,I
0.0,4.0,0.0,0.0,3.0,3.0,463.404795000315,3.0,1.0,phase_1,,,,,,,,,,,,,gray,I
0.0,6.0,0.0,1.0,4.0,4.0,593.7187259987695,3.0,1.0,phase_1,,,,,,,,,,,,,yellow,cross
0.0,1.0,0.0,0.0,3.0,3.0,390.9891280000011,3.0,1.0,phase_1,,,,,,,,,,,,,cyan,flipped triangle
0.0,6.0,0.0,1.0,2.0,2.0,705.671188999986,3.0,1.0,phase_1,,,,,,,,,,,,,yellow,cross
153.0,5.0,1.0,1.0,2.0,2.0,464.775672999167,3.0,1.0,phase_1,,,,,,,,,,,,,magenta,hexagon
0.0,5.0,0.0,1.0,1.0,1.0,547.961784999643,3.0,1.0,phase_1,,,,,,,,,,,,,magenta,hexagon
649.0,7.0,3.0,1.0,1.0,1.0,454.3376620003982,3.0,1.0,phase_1,,,,,,,,,,,,,white,circle
0.0,5.0,0.0,1.0,1.0,1.0,508.4783439997409,3.0,1.0,phase_1,,,,,,,,,,,,,magenta,hexagon
1309.0,4.0,4.0,0.0,3.0,3.0,454.5550959992397,3.0,1.0,phase_1,,,,,,,,,,,,,gray,I
141.0,1.0,1.0,0.0,1.0,1.0,583.4905080009776,3.0,1.0,phase_1,,,,,,,,,,,,,cyan,flipped triangle
1302.0,8.0,4.0,1.0,3.0,3.0,576.5689090003434,3.0,1.0,phase_1,,,,,,,,,,,,,blue,diamond
1323.0,4.0,4.0,0.0,2.0,2.0,502.4114820007526,3.0,1.0,phase_1,,,,,,,,,,,,,gray,I
328.0,6.0,2.0,1.0,3.0,3.0,418.1195620003564,3.0,1.0,phase_1,,,,,,,,,,,,,yellow,cross
1313.0,4.0,4.0,0.0,1.0,1.0,539.0307039997424,3.0,1.0,phase_1,,,,,,,,,,,,,gray,I
0.0,3.0,0.0,0.0,1.0,1.0,426.2548859987873,3.0,1.0,phase_1,,,,,,,,,,,,,orange,triangle
0.0,1.0,0.0,0.0,4.0,4.0,603.8473040007375,3.0,1.0,phase_1,,,,,,,,,,,,,cyan,flipped triangle
671.0,3.0,3.0,0.0,4.0,4.0,463.24986000036,3.0,1.0,phase_1,,,,,,,,,,,,,orange,triangle
1309.0,8.0,4.0,1.0,4.0,4.0,417.2459339988563,3.0,1.0,phase_1,,,,,,,,,,,,,blue,diamond
0.0,6.0,0.0,1.0,4.0,4.0,407.5603780001984,3.0,1.0,phase_1,,,,,,,,,,,,,yellow,cross
1323.0,8.0,4.0,1.0,3.0,3.0,594.6073459999752,3.0,1.0,phase_1,,,,,,,,,,,,,blue,diamond
641.0,7.0,3.0,1.0,2.0,2.0,567.3254889989039,3.0,1.0,phase_1,,,,,,,,,,,,,white,circle
1298.0,4.0,4.0,0.0,3.0,3.0,427.7021790003346,3.0,1.0,phase_1,,,,,,,,,,,,,gray,I
673.0,3.0,3.0,0.0,1.0,1.0,695.5090789997485,3.0,1.0,phase_1,,,,,,,,,,,,,orange,triangle
349.0,2.0,2.0,0.0,3.0,3.0,397.9486089992861,3.0,1.0,phase_1,,,,,,,,,,,,,green,square
328.0,2.0,2.0,0.0,2.0,2.0,389.5519090001471,3.0,1.0,phase_1,,,,,,,,,,,,,green,square
334.0,2.0,2.0,0.0,1.0,1.0,574.5293309992121,3.0,1.0,phase_1,,,,,,,,,,,,,green,square
324.0,6.0,2.0,1.0,3.0,3.0,592.9225850013609,3.0,1.0,phase_1,,,,,,,,,,,,,yellow,cross
649.0,3.0,3.0,0.0,4.0,4.0,549.0371599989885,3.0,1.0,phase_1,,,,,,,,,,,,,orange,triangle
336.0,6.0,2.0,1.0,2.0,2.0,454.7424159991351,3.0,1.0,phase_1,,,,,,,,,,,,,yellow,cross
665.0,3.0,3.0,0.0,1.0,1.0,592.7434880013607,3.0,1.0,phase_1,,,,,,,,,,,,,orange,triangle
320.0,6.0,2.0,1.0,1.0,1.0,472.9325770003925,3.0,1.0,phase_1,,,,,,,,,,,,,yellow,cross
0.0,7.0,0.0,1.0,4.0,4.0,418.1840860001102,3.0,1.0,phase_1,,,,,,,,,,,,,white,circle
154.0,5.0,1.0,1.0,4.0,4.0,418.0681510006252,3.0,1.0,phase_1,,,,,,,,,,,,,magenta,hexagon
643.0,3.0,3.0,0.0,4.0,4.0,602.427693998834,3.0,1.0,phase_1,,,,,,,,,,,,,orange,triangle
643.0,7.0,3.0,1.0,2.0,2.0,547.3088979997556,3.0,1.0,phase_1,,,,,,,,,,,,,white,circle
144.0,5.0,1.0,1.0,2.0,2.0,453.1581319988618,3.0,1.0,phase_1,,,,,,,,,,,,,magenta,hexagon
0.0,3.0,0.0,0.0,2.0,2.0,379.4402550011,3.0,1.0,phase_1,,,,,,,,,,,,,orange,triangle
1301.0,4.0,4.0,0.0,1.0,1.0,500.5268339991744,3.0,1.0,phase_1,,,,,,,,,,,,,gray,I
163.0,1.0,1.0,0.0,2.0,2.0,381.3089760005823,3.0,1.0,phase_1,,,,,,,,,,,,,cyan,flipped triangle
0.0,5.0,0.0,1.0,3.0,3.0,455.2537870004016,4.0,1.0,phase_1,,,,,,,,,,,,,magenta,hexagon
0.0,7.0,0.0,1.0,2.0,2.0,392.5494340001023,4.0,1.0,phase_1,,,,,,,,,,,,,white,circle
1279.0,4.0,4.0,0.0,2.0,2.0,419.4208980006806,4.0,1.0,phase_1,,,,,,,,,,,,,gray,I
167.0,1.0,1.0,0.0,3.0,3.0,380.5835530001786,4.0,1.0,phase_1,,,,,,,,,,,,,cyan,flipped triangle
0.0,1.0,0.0,0.0,3.0,3.0,472.706834998462,4.0,1.0,phase_1,,,,,,,,,,,,,cyan,flipped triangle
625.0,7.0,3.0,1.0,1.0,1.0,511.2022440007422,4.0,1.0,phase_1,,,,,,,,,,,,,white,circle
643.0,3.0,3.0,0.0,1.0,1.0,502.7529279996088,4.0,1.0,phase_1,,,,,,,,,,,,,orange,triangle
0.0,2.0,0.0,0.0,1.0,1.0,400.2153689998522,4.0,1.0,phase_1,,,,,,,,,,,,,green,square
313.0,6.0,2.0,1.0,1.0,1.0,401.1280550002993,4.0,1.0,phase_1,,,,,,,,,,,,,yellow,cross
0.0,2.0,0.0,0.0,3.0,3.0,464.2944859988347,4.0,1.0,phase_1,,,,,,,,,,,,,green,square
0.0,1.0,0.0,0.0,2.0,2.0,398.1060429996432,4.0,2.0,phase_1,,,,,,,,,,,,,cyan,flipped triangle
0.0,7.0,0.0,1.0,3.0,3.0,390.2713490006135,4.0,1.0,phase_1,,,,,,,,,,,,,white,circle
330.0,6.0,2.0,1.0,3.0,3.0,417.3381139989942,4.0,1.0,phase_1,,,,,,,,,,,,,yellow,cross
323.0,6.0,2.0,1.0,3.0,3.0,419.401340001059,4.0,1.0,phase_1,,,,,,,,,,,,,yellow,cross
323.0,6.0,2.0,1.0,2.0,2.0,546.6155699996307,4.0,1.0,phase_1,,,,,,,,,,,,,yellow,cross
1323.0,4.0,4.0,0.0,3.0,3.0,732.2035559991491,4.0,1.0,phase_1,,,,,,,,,,,,,gray,I
186.0,5.0,1.0,1.0,1.0,1.0,399.0858420002041,4.0,1.0,phase_1,,,,,,,,,,,,,magenta,hexagon
305.0,6.0,2.0,1.0,4.0,4.0,333.7973460002104,4.0,1.0,phase_1,,,,,,,,,,,,,yellow,cross
660.0,3.0,3.0,0.0,2.0,2.0,314.3316690002393,4.0,1.0,phase_1,,,,,,,,,,,,,orange,triangle
171.0,5.0,1.0,1.0,4.0,4.0,463.1500520008558,4.0,1.0,phase_1,,,,,,,,,,,,,magenta,hexagon
1283.0,4.0,4.0,0.0,4.0,4.0,406.4446820011653,4.0,1.0,phase_1,,,,,,,,,,,,,gray,I
148.0,5.0,1.0,1.0,1.0,1.0,406.6918110002007,4.0,1.0,phase_1,,,,,,,,,,,,,magenta,hexagon
0.0,3.0,0.0,0.0,2.0,2.0,453.7510219997784,4.0,1.0,phase_1,,,,,,,,,,,,,orange,triangle
0.0,8.0,0.0,1.0,3.0,3.0,370.4865039999276,4.0,1.0,phase_1,,,,,,,,,,,,,blue,diamond
0.0,5.0,0.0,1.0,1.0,1.0,536.2256070002331,4.0,1.0,phase_1,,,,,,,,,,,,,magenta,hexagon
0.0,4.0,0.0,0.0,1.0,1.0,437.7283300000272,4.0,1.0,phase_1,,,,,,,,,,,,,gray,I
634.0,7.0,3.0,1.0,1.0,1.0,472.7209530010441,4.0,1.0,phase_1,,,,,,,,,,,,,white,circle
0.0,5.0,0.0,1.0,3.0,3.0,454.3856589989445,4.0,1.0,phase_1,,,,,,,,,,,,,magenta,hexagon
317.0,2.0,2.0,0.0,3.0,3.0,397.992685000645,4.0,1.0,phase_1,,,,,,,,,,,,,green,square
0.0,4.0,0.0,0.0,1.0,1.0,435.2447349992872,4.0,1.0,phase_1,,,,,,,,,,,,,gray,I
312.0,6.0,2.0,1.0,4.0,4.0,378.8303099991026,4.0,1.0,phase_1,,,,,,,,,,,,,yellow,cross
187.0,1.0,1.0,0.0,4.0,4.0,390.1623859983374,4.0,1.0,phase_1,,,,,,,,,,,,,cyan,flipped triangle
668.0,7.0,3.0,1.0,1.0,1.0,463.884415999928,4.0,1.0,phase_1,,,,,,,,,,,,,white,circle
168.0,1.0,1.0,0.0,3.0,3.0,407.1778199995606,4.0,1.0,phase_1,,,,,,,,,,,,,cyan,flipped triangle
628.0,7.0,3.0,1.0,2.0,2.0,509.1145190017414,4.0,1.0,phase_1,,,,,,,,,,,,,white,circle
628.0,3.0,3.0,0.0,4.0,4.0,381.3623720016039,4.0,1.0,phase_1,,,,,,,,,,,,,orange,triangle
642.0,3.0,3.0,0.0,1.0,1.0,361.263101998702,4.0,1.0,phase_1,,,,,,,,,,,,,orange,triangle
172.0,1.0,1.0,0.0,1.0,1.0,480.2752129999135,4.0,1.0,phase_1,,,,,,,,,,,,,cyan,flipped triangle
657.0,3.0,3.0,0.0,3.0,3.0,429.0106349999405,4.0,1.0,phase_1,,,,,,,,,,,,,orange,triangle
1295.0,4.0,4.0,0.0,2.0,2.0,556.0136860003695,4.0,1.0,phase_1,,,,,,,,,,,,,gray,I
0.0,6.0,0.0,1.0,1.0,1.0,417.5549860010505,4.0,1.0,phase_1,,,,,,,,,,,,,yellow,cross
147.0,5.0,1.0,1.0,2.0,2.0,563.215553000191,4.0,1.0,phase_1,,,,,,,,,,,,,magenta,hexagon
1277.0,8.0,4.0,1.0,1.0,1.0,482.4926319997757,4.0,1.0,phase_1,,,,,,,,,,,,,blue,diamond
673.0,7.0,3.0,1.0,3.0,3.0,398.231939998368,4.0,1.0,phase_1,,,,,,,,,,,,,white,circle
1308.0,4.0,4.0,0.0,2.0,2.0,425.8740879995457,4.0,1.0,phase_1,,,,,,,,,,,,,gray,I
0.0,4.0,0.0,0.0,3.0,3.0,361.2341190000734,4.0,1.0,phase_1,,,,,,,,,,,,,gray,I
1303.0,4.0,4.0,0.0,1.0,1.0,379.1903189994627,4.0,1.0,phase_1,,,,,,,,,,,,,gray,I
320.0,2.0,2.0,0.0,3.0,3.0,582.9528209997079,4.0,1.0,phase_1,,,,,,,,,,,,,green,square
1301.0,8.0,4.0,1.0,3.0,3.0,389.8033100012981,4.0,1.0,phase_1,,,,,,,,,,,,,blue,diamond
1280.0,4.0,4.0,0.0,4.0,4.0,482.3812449994875,4.0,1.0,phase_1,,,,,,,,,,,,,gray,I
642.0,3.0,3.0,0.0,3.0,3.0,371.1625510004523,4.0,1.0,phase_1,,,,,,,,,,,,,orange,triangle
313.0,6.0,2.0,1.0,4.0,4.0,417.4694899993483,4.0,1.0,phase_1,,,,,,,,,,,,,yellow,cross
0.0,6.0,0.0,1.0,2.0,2.0,508.56316200042784,4.0,1.0,phase_1,,,,,,,,,,,,,yellow,cross
673.0,3.0,3.0,0.0,3.0,3.0,360.2445710002939,4.0,1.0,phase_1,,,,,,,,,,,,,orange,triangle
313.0,2.0,2.0,0.0,1.0,1.0,502.25262100138934,4.0,1.0,phase_1,,,,,,,,,,,,,green,square
647.0,3.0,3.0,0.0,3.0,3.0,371.7330819999915,4.0,1.0,phase_1,,,,,,,,,,,,,orange,triangle
326.0,6.0,2.0,1.0,1.0,1.0,491.4399040007993,4.0,1.0,phase_1,,,,,,,,,,,,,yellow,cross
332.0,2.0,2.0,0.0,4.0,4.0,444.7449270010111,4.0,1.0,phase_1,,,,,,,,,,,,,green,square
172.0,5.0,1.0,1.0,4.0,4.0,499.2632779994892,4.0,1.0,phase_1,,,,,,,,,,,,,magenta,hexagon
1309.0,8.0,4.0,1.0,3.0,3.0,407.6152090001415,4.0,1.0,phase_1,,,,,,,,,,,,,blue,diamond
649.0,3.0,3.0,0.0,1.0,1.0,501.82747500002733,4.0,1.0,phase_1,,,,,,,,,,,,,orange,triangle
1298.0,8.0,4.0,1.0,4.0,4.0,352.790584000104,4.0,1.0,phase_1,,,,,,,,,,,,,blue,diamond
648.0,3.0,3.0,0.0,2.0,2.0,519.2635490002431,4.0,1.0,phase_1,,,,,,,,,,,,,orange,triangle
320.0,2.0,2.0,0.0,4.0,4.0,417.5690360007138,4.0,1.0,phase_1,,,,,,,,,,,,,green,square
1283.0,8.0,4.0,1.0,4.0,4.0,437.5956799995038,4.0,1.0,phase_1,,,,,,,,,,,,,blue,diamond
160.0,1.0,1.0,0.0,1.0,1.0,473.4729550000338,4.0,1.0,phase_1,,,,,,,,,,,,,cyan,flipped triangle
321.0,2.0,2.0,0.0,2.0,2.0,491.8304399998305,4.0,1.0,phase_1,,,,,,,,,,,,,green,square
176.0,1.0,1.0,0.0,3.0,3.0,324.2754559996683,4.0,1.0,phase_1,,,,,,,,,,,,,cyan,flipped triangle
319.0,2.0,2.0,0.0,3.0,3.0,351.3510399989172,4.0,1.0,phase_1,,,,,,,,,,,,,green,square
171.0,5.0,1.0,1.0,1.0,1.0,538.3153760012647,4.0,1.0,phase_1,,,,,,,,,,,,,magenta,hexagon
628.0,7.0,3.0,1.0,4.0,4.0,352.233839001201,4.0,1.0,phase_1,,,,,,,,,,,,,white,circle
644.0,3.0,3.0,0.0,4.0,4.0,555.1283310014696,4.0,1.0,phase_1,,,,,,,,,,,,,orange,triangle
148.0,5.0,1.0,1.0,4.0,4.0,370.227581999643,4.0,1.0,phase_1,,,,,,,,,,,,,magenta,hexagon
657.0,7.0,3.0,1.0,1.0,1.0,544.8123810001562,4.0,1.0,phase_1,,,,,,,,,,,,,white,circle
0.0,7.0,0.0,1.0,2.0,2.0,490.40405600135267,4.0,1.0,phase_1,,,,,,,,,,,,,white,circle
334.0,2.0,2.0,0.0,2.0,2.0,407.3492450006597,4.0,1.0,phase_1,,,,,,,,,,,,,green,square
327.0,6.0,2.0,1.0,4.0,4.0,398.8093230000231,4.0,1.0,phase_1,,,,,,,,,,,,,yellow,cross
1309.0,4.0,4.0,0.0,1.0,1.0,497.8083679998235,4.0,1.0,phase_1,,,,,,,,,,,,,gray,I
1300.0,8.0,4.0,1.0,4.0,4.0,462.6253599999472,4.0,1.0,phase_1,,,,,,,,,,,,,blue,diamond
1292.0,4.0,4.0,0.0,4.0,4.0,388.6174809995282,4.0,1.0,phase_1,,,,,,,,,,,,,gray,I
652.0,3.0,3.0,0.0,2.0,2.0,510.8914369993727,4.0,1.0,phase_1,,,,,,,,,,,,,orange,triangle
327.0,2.0,2.0,0.0,4.0,4.0,372.3566320004465,4.0,1.0,phase_1,,,,,,,,,,,,,green,square
637.0,3.0,3.0,0.0,1.0,1.0,629.4879630004289,4.0,1.0,phase_1,,,,,,,,,,,,,orange,triangle
148.0,1.0,1.0,0.0,4.0,4.0,462.2945710016211,4.0,1.0,phase_1,,,,,,,,,,,,,cyan,flipped triangle
141.0,5.0,1.0,1.0,2.0,2.0,378.9496979989053,4.0,1.0,phase_1,,,,,,,,,,,,,magenta,hexagon
167.0,1.0,1.0,0.0,3.0,3.0,378.3926770011021,4.0,1.0,phase_1,,,,,,,,,,,,,cyan,flipped triangle
0.0,8.0,0.0,1.0,4.0,4.0,483.5320680012955,4.0,1.0,phase_1,,,,,,,,,,,,,blue,diamond
630.0,7.0,3.0,1.0,4.0,4.0,435.4487419986981,4.0,1.0,phase_1,,,,,,,,,,,,,white,circle
668.0,7.0,3.0,1.0,1.0,1.0,389.7993270002189,4.0,1.0,phase_1,,,,,,,,,,,,,white,circle
669.0,3.0,3.0,0.0,3.0,3.0,379.4446769989008,4.0,1.0,phase_1,,,,,,,,,,,,,orange,triangle
1277.0,4.0,4.0,0.0,3.0,3.0,456.1640080009965,4.0,1.0,phase_1,,,,,,,,,,,,,gray,I
176.0,5.0,1.0,1.0,2.0,2.0,491.4785010005289,4.0,1.0,phase_1,,,,,,,,,,,,,magenta,hexagon
1324.0,4.0,4.0,0.0,3.0,3.0,416.808451000179,4.0,1.0,phase_1,,,,,,,,,,,,,gray,I
172.0,5.0,1.0,1.0,1.0,1.0,491.4459049996367,4.0,1.0,phase_1,,,,,,,,,,,,,magenta,hexagon
0.0,6.0,0.0,1.0,3.0,3.0,353.3238690015423,4.0,1.0,phase_1,,,,,,,,,,,,,yellow,cross
182.0,1.0,1.0,0.0,4.0,4.0,491.0995249992993,4.0,1.0,phase_1,,,,,,,,,,,,,cyan,flipped triangle
331.0,6.0,2.0,1.0,2.0,2.0,493.357504999949,4.0,1.0,phase_1,,,,,,,,,,,,,yellow,cross
657.0,7.0,3.0,1.0,4.0,4.0,334.1348560006736,4.0,1.0,phase_1,,,,,,,,,,,,,white,circle
160.0,5.0,1.0,1.0,3.0,3.0,351.5419060004205,4.0,1.0,phase_1,,,,,,,,,,,,,magenta,hexagon
349.0,6.0,2.0,1.0,3.0,3.0,438.1589029999304,4.0,1.0,phase_1,,,,,,,,,,,,,yellow,cross
0.0,4.0,4.0,0.0,5.0,5.0,483.5004430005938,1.0,1.0,phase_2,go,250.0,250.0,1.0,,,,,,,,,gray,I
0.0,3.0,3.0,0.0,5.0,5.0,435.3491090005263,1.0,1.0,phase_2,go,250.0,250.0,1.0,,,,,,,,,orange,triangle
0.0,2.0,2.0,0.0,6.0,6.0,448.6415009996563,1.0,1.0,phase_2,go,250.0,250.0,1.0,,,,,,,,,green,square
0.0,4.0,4.0,0.0,5.0,5.0,399.7380020009586,1.0,1.0,phase_2,go,250.0,250.0,1.0,,,,,,,,,gray,I
0.0,4.0,4.0,0.0,5.0,5.0,604.0799689999403,1.0,1.0,phase_2,go,250.0,250.0,1.0,,,,,,,,,gray,I
0.0,7.0,3.0,1.0,6.0,0.0,0.0,1.0,1.0,phase_2,stop,250.0,250.0,4.0,,,,,,,,,white,circle
0.0,5.0,1.0,1.0,5.0,0.0,0.0,1.0,1.0,phase_2,stop,250.0,300.0,4.0,,,,,,,,,magenta,hexagon
0.0,8.0,4.0,1.0,6.0,0.0,0.0,1.0,1.0,phase_2,stop,300.0,300.0,4.0,,,,,,,,,blue,diamond
0.0,1.0,1.0,0.0,5.0,5.0,794.2010360002314,1.0,1.0,phase_2,go,300.0,350.0,1.0,,,,,,,,,cyan,flipped triangle
0.0,8.0,4.0,1.0,6.0,6.0,390.5202179994376,1.0,1.0,phase_2,go,300.0,350.0,1.0,,,,,,,,,blue,diamond
0.0,3.0,3.0,0.0,6.0,6.0,772.1605370006728,1.0,1.0,phase_2,go,300.0,350.0,1.0,,,,,,,,,orange,triangle
0.0,8.0,4.0,1.0,5.0,5.0,527.2152399993502,1.0,1.0,phase_2,stop,300.0,350.0,3.0,,,,,,,,,blue,diamond
0.0,8.0,4.0,1.0,6.0,6.0,807.9857800003083,1.0,1.0,phase_2,go,250.0,350.0,1.0,,,,,,,,,blue,diamond
0.0,8.0,4.0,1.0,5.0,0.0,0.0,1.0,1.0,phase_2,stop,250.0,350.0,4.0,,,,,,,,,blue,diamond
0.0,3.0,3.0,0.0,6.0,6.0,801.7274689991609,1.0,1.0,phase_2,go,300.0,350.0,1.0,,,,,,,,,orange,triangle
0.0,8.0,4.0,1.0,5.0,5.0,884.847211998931,1.0,1.0,phase_2,go,300.0,350.0,1.0,,,,,,,,,blue,diamond
0.0,7.0,3.0,1.0,5.0,0.0,0.0,1.0,1.0,phase_2,stop,300.0,350.0,4.0,,,,,,,,,white,circle
0.0,5.0,1.0,1.0,5.0,5.0,754.7667899998487,1.0,1.0,phase_2,go,350.0,350.0,1.0,,,,,,,,,magenta,hexagon
0.0,5.0,1.0,1.0,5.0,5.0,465.2337819989043,1.0,1.0,phase_2,stop,350.0,350.0,3.0,,,,,,,,,magenta,hexagon
0.0,6.0,2.0,1.0,6.0,0.0,0.0,1.0,1.0,phase_2,stop,300.0,350.0,4.0,,,,,,,,,yellow,cross
0.0,4.0,4.0,0.0,6.0,6.0,744.6928000008484,1.0,1.0,phase_2,go,300.0,400.0,1.0,,,,,,,,,gray,I
0.0,2.0,2.0,0.0,5.0,5.0,868.9754079987324,1.0,1.0,phase_2,go,300.0,400.0,1.0,,,,,,,,,green,square
0.0,1.0,1.0,0.0,6.0,6.0,446.1104990004969,1.0,1.0,phase_2,go,300.0,400.0,1.0,,,,,,,,,cyan,flipped triangle
0.0,5.0,1.0,1.0,5.0,5.0,436.8987649995688,1.0,1.0,phase_2,go,300.0,400.0,1.0,,,,,,,,,magenta,hexagon
0.0,5.0,1.0,1.0,6.0,6.0,381.1633510013053,1.0,1.0,phase_2,stop,300.0,400.0,3.0,,,,,,,,,magenta,hexagon
0.0,2.0,2.0,0.0,5.0,5.0,856.6915989995323,1.0,1.0,phase_2,go,300.0,350.0,1.0,,,,,,,,,green,square
0.0,1.0,1.0,0.0,5.0,5.0,829.9765910014685,1.0,1.0,phase_2,go,300.0,350.0,1.0,,,,,,,,,cyan,flipped triangle
0.0,3.0,3.0,0.0,6.0,6.0,467.031535001297,1.0,1.0,phase_2,go,300.0,350.0,1.0,,,,,,,,,orange,triangle
0.0,8.0,4.0,1.0,5.0,0.0,0.0,1.0,1.0,phase_2,stop,300.0,350.0,4.0,,,,,,,,,blue,diamond
0.0,4.0,4.0,0.0,5.0,5.0,838.819455999328,1.0,1.0,phase_2,go,350.0,350.0,1.0,,,,,,,,,gray,I
0.0,6.0,2.0,1.0,6.0,0.0,0.0,1.0,1.0,phase_2,stop,350.0,350.0,4.0,,,,,,,,,yellow,cross
0.0,7.0,3.0,1.0,5.0,0.0,0.0,1.0,1.0,phase_2,stop,350.0,400.0,4.0,,,,,,,,,white,circle
0.0,8.0,4.0,1.0,5.0,5.0,848.6453389996313,1.0,1.0,phase_2,go,400.0,400.0,1.0,,,,,,,,,blue,diamond
0.0,5.0,1.0,1.0,5.0,5.0,784.0704800000822,1.0,1.0,phase_2,go,400.0,400.0,1.0,,,,,,,,,magenta,hexagon
0.0,1.0,1.0,0.0,6.0,6.0,475.1339889990049,1.0,1.0,phase_2,go,400.0,400.0,1.0,,,,,,,,,cyan,flipped triangle
0.0,8.0,4.0,1.0,5.0,0.0,0.0,1.0,1.0,phase_2,stop,400.0,400.0,4.0,,,,,,,,,blue,diamond
0.0,8.0,4.0,1.0,5.0,0.0,0.0,2.0,1.0,phase_2,stop,450.0,400.0,4.0,,,,,,,,,blue,diamond
0.0,6.0,2.0,1.0,5.0,5.0,726.3392050008406,2.0,1.0,phase_2,go,500.0,400.0,1.0,,,,,,,,,yellow,cross
0.0,8.0,4.0,1.0,5.0,0.0,0.0,2.0,1.0,phase_2,stop,500.0,400.0,4.0,,,,,,,,,blue,diamond
0.0,6.0,2.0,1.0,5.0,5.0,666.2622910007485,2.0,1.0,phase_2,stop,550.0,400.0,3.0,,,,,,,,,yellow,cross
0.0,5.0,1.0,1.0,6.0,0.0,0.0,2.0,1.0,phase_2,stop,500.0,400.0,4.0,,,,,,,,,magenta,hexagon
0.0,1.0,1.0,0.0,6.0,6.0,790.1860410001973,2.0,1.0,phase_2,go,500.0,450.0,1.0,,,,,,,,,cyan,flipped triangle
0.0,1.0,1.0,0.0,6.0,6.0,681.8222210004024,2.0,1.0,phase_2,go,500.0,450.0,1.0,,,,,,,,,cyan,flipped triangle
0.0,8.0,4.0,1.0,5.0,5.0,791.1022930002218,2.0,1.0,phase_2,go,500.0,450.0,1.0,,,,,,,,,blue,diamond
0.0,8.0,4.0,1.0,6.0,6.0,382.7080600003683,2.0,1.0,phase_2,stop,500.0,450.0,3.0,,,,,,,,,blue,diamond
0.0,7.0,3.0,1.0,5.0,5.0,696.8356890010909,2.0,1.0,phase_2,stop,500.0,400.0,3.0,,,,,,,,,white,circle
0.0,3.0,3.0,0.0,5.0,5.0,1020.6072210003183,2.0,1.0,phase_2,go,450.0,400.0,1.0,,,,,,,,,orange,triangle
0.0,5.0,1.0,1.0,5.0,5.0,671.1024239994003,2.0,1.0,phase_2,go,450.0,400.0,1.0,,,,,,,,,magenta,hexagon
0.0,5.0,1.0,1.0,5.0,5.0,570.2062520012987,2.0,1.0,phase_2,stop,450.0,400.0,3.0,,,,,,,,,magenta,hexagon
0.0,6.0,2.0,1.0,6.0,0.0,0.0,2.0,1.0,phase_2,stop,400.0,400.0,4.0,,,,,,,,,yellow,cross
0.0,5.0,1.0,1.0,6.0,0.0,0.0,2.0,1.0,phase_2,stop,400.0,450.0,4.0,,,,,,,,,magenta,hexagon
0.0,2.0,2.0,0.0,5.0,5.0,968.6446489995432,2.0,1.0,phase_2,go,400.0,500.0,1.0,,,,,,,,,green,square
0.0,6.0,2.0,1.0,5.0,0.0,0.0,2.0,1.0,phase_2,stop,400.0,500.0,4.0,,,,,,,,,yellow,cross
0.0,6.0,2.0,1.0,5.0,5.0,959.0983359994424,2.0,1.0,phase_2,go,450.0,500.0,1.0,,,,,,,,,yellow,cross
0.0,7.0,3.0,1.0,6.0,0.0,0.0,2.0,1.0,phase_2,stop,450.0,500.0,4.0,,,,,,,,,white,circle
0.0,5.0,1.0,1.0,6.0,6.0,773.2129260002694,2.0,1.0,phase_2,stop,450.0,550.0,3.0,,,,,,,,,magenta,hexagon
0.0,4.0,4.0,0.0,5.0,5.0,1027.8940909993253,2.0,1.0,phase_2,go,450.0,500.0,1.0,,,,,,,,,gray,I
0.0,6.0,2.0,1.0,5.0,0.0,0.0,2.0,1.0,phase_2,stop,450.0,500.0,4.0,,,,,,,,,yellow,cross
0.0,6.0,2.0,1.0,5.0,0.0,0.0,2.0,1.0,phase_2,stop,500.0,500.0,4.0,,,,,,,,,yellow,cross
0.0,3.0,3.0,0.0,6.0,6.0,1144.2082279991157,2.0,1.0,phase_2,go,550.0,500.0,1.0,,,,,,,,,orange,triangle
0.0,1.0,1.0,0.0,5.0,0.0,0.0,2.0,1.0,phase_2,go,550.0,500.0,5.0,,,,,,,,,cyan,flipped triangle
0.0,4.0,4.0,0.0,6.0,6.0,776.538480000454,2.0,1.0,phase_2,go,550.0,500.0,1.0,,,,,,,,,gray,I
0.0,2.0,2.0,0.0,5.0,5.0,588.0790419996629,2.0,1.0,phase_2,go,550.0,500.0,1.0,,,,,,,,,green,square
0.0,4.0,4.0,0.0,5.0,5.0,420.3392239996901,2.0,1.0,phase_2,go,550.0,500.0,1.0,,,,,,,,,gray,I
0.0,6.0,2.0,1.0,5.0,5.0,411.6558149999036,2.0,1.0,phase_2,stop,550.0,500.0,3.0,,,,,,,,,yellow,cross
0.0,1.0,1.0,0.0,5.0,5.0,643.1648010002391,2.0,1.0,phase_2,go,500.0,500.0,1.0,,,,,,,,,cyan,flipped triangle
0.0,8.0,4.0,1.0,6.0,6.0,363.9662559999124,2.0,1.0,phase_2,stop,500.0,500.0,3.0,,,,,,,,,blue,diamond
0.0,7.0,3.0,1.0,5.0,5.0,458.0283199993573,2.0,1.0,phase_2,stop,500.0,450.0,3.0,,,,,,,,,white,circle
0.0,8.0,4.0,1.0,6.0,0.0,0.0,2.0,1.0,phase_2,stop,450.0,450.0,4.0,,,,,,,,,blue,diamond
0.0,4.0,4.0,0.0,6.0,6.0,597.6425869994273,2.0,1.0,phase_2,go,450.0,500.0,1.0,,,,,,,,,gray,I
0.0,6.0,2.0,1.0,6.0,6.0,384.1002819990535,2.0,1.0,phase_2,stop,450.0,500.0,3.0,,,,,,,,,yellow,cross
0.0,2.0,2.0,0.0,5.0,5.0,485.8077640001284,2.0,1.0,phase_2,go,450.0,450.0,1.0,,,,,,,,,green,square
0.0,8.0,4.0,1.0,5.0,5.0,862.6088480014005,3.0,1.0,phase_2,stop,450.0,450.0,3.0,,,,,,,,,blue,diamond
0.0,5.0,1.0,1.0,6.0,6.0,608.5979670024244,3.0,1.0,phase_2,stop,400.0,450.0,3.0,,,,,,,,,magenta,hexagon
0.0,4.0,4.0,0.0,6.0,6.0,645.4129919984553,3.0,1.0,phase_2,go,400.0,400.0,1.0,,,,,,,,,gray,I
0.0,8.0,4.0,1.0,6.0,6.0,363.0367250007111,3.0,1.0,phase_2,go,400.0,400.0,1.0,,,,,,,,,blue,diamond
0.0,6.0,2.0,1.0,6.0,6.0,476.0632020006596,3.0,1.0,phase_2,stop,400.0,400.0,3.0,,,,,,,,,yellow,cross
0.0,3.0,3.0,0.0,5.0,5.0,822.2934400000668,3.0,1.0,phase_2,go,400.0,350.0,1.0,,,,,,,,,orange,triangle
0.0,2.0,2.0,0.0,6.0,6.0,876.7831609984569,3.0,1.0,phase_2,go,400.0,350.0,1.0,,,,,,,,,green,square
0.0,6.0,2.0,1.0,6.0,6.0,363.0265879983199,3.0,1.0,phase_2,go,400.0,350.0,1.0,,,,,,,,,yellow,cross
0.0,1.0,1.0,0.0,6.0,6.0,411.17521599881,3.0,1.0,phase_2,go,400.0,350.0,1.0,,,,,,,,,cyan,flipped triangle
0.0,7.0,3.0,1.0,5.0,5.0,568.8937760023691,3.0,1.0,phase_2,go,400.0,350.0,1.0,,,,,,,,,white,circle
0.0,6.0,2.0,1.0,5.0,5.0,466.6264689985837,3.0,1.0,phase_2,stop,400.0,350.0,3.0,,,,,,,,,yellow,cross
0.0,1.0,1.0,0.0,5.0,5.0,755.3254080012266,3.0,1.0,phase_2,go,350.0,350.0,1.0,,,,,,,,,cyan,flipped triangle
0.0,2.0,2.0,0.0,6.0,6.0,445.7215820002602,3.0,1.0,phase_2,go,350.0,350.0,1.0,,,,,,,,,green,square
0.0,4.0,4.0,0.0,6.0,6.0,741.8290599998727,3.0,1.0,phase_2,go,350.0,350.0,1.0,,,,,,,,,gray,I
0.0,8.0,4.0,1.0,5.0,5.0,579.1118039996945,3.0,1.0,phase_2,go,350.0,350.0,1.0,,,,,,,,,blue,diamond
0.0,8.0,4.0,1.0,5.0,5.0,443.0286120004894,3.0,1.0,phase_2,stop,350.0,350.0,3.0,,,,,,,,,blue,diamond
0.0,6.0,2.0,1.0,5.0,5.0,877.7475769966259,3.0,1.0,phase_2,go,300.0,350.0,1.0,,,,,,,,,yellow,cross
0.0,2.0,2.0,0.0,5.0,5.0,616.256073997647,3.0,1.0,phase_2,go,300.0,350.0,1.0,,,,,,,,,green,square
0.0,2.0,2.0,0.0,5.0,5.0,607.9984200005129,3.0,1.0,phase_2,go,300.0,350.0,1.0,,,,,,,,,green,square
0.0,7.0,3.0,1.0,6.0,6.0,672.8718100021069,3.0,1.0,phase_2,go,300.0,350.0,1.0,,,,,,,,,white,circle
0.0,3.0,3.0,0.0,5.0,5.0,438.5141910024686,3.0,1.0,phase_2,go,300.0,350.0,1.0,,,,,,,,,orange,triangle
0.0,8.0,4.0,1.0,5.0,5.0,489.3340349990467,3.0,1.0,phase_2,stop,300.0,350.0,3.0,,,,,,,,,blue,diamond
0.0,4.0,4.0,0.0,6.0,6.0,419.2258889997902,3.0,1.0,phase_2,go,250.0,350.0,1.0,,,,,,,,,gray,I
0.0,3.0,3.0,0.0,6.0,6.0,728.8881009990291,3.0,1.0,phase_2,go,250.0,350.0,1.0,,,,,,,,,orange,triangle
0.0,4.0,4.0,0.0,5.0,5.0,707.9300320001494,3.0,1.0,phase_2,go,250.0,350.0,1.0,,,,,,,,,gray,I
0.0,3.0,3.0,0.0,6.0,6.0,551.5695630019763,3.0,1.0,phase_2,go,250.0,350.0,1.0,,,,,,,,,orange,triangle
0.0,8.0,4.0,1.0,6.0,0.0,0.0,3.0,1.0,phase_2,stop,250.0,350.0,4.0,,,,,,,,,blue,diamond
0.0,1.0,1.0,0.0,6.0,6.0,653.5892330030038,3.0,1.0,phase_2,go,250.0,400.0,1.0,,,,,,,,,cyan,flipped triangle
0.0,7.0,3.0,1.0,5.0,0.0,0.0,3.0,1.0,phase_2,stop,250.0,400.0,4.0,,,,,,,,,white,circle
0.0,4.0,4.0,0.0,6.0,6.0,905.2999440027634,3.0,1.0,phase_2,go,300.0,400.0,1.0,,,,,,,,,gray,I
0.0,1.0,1.0,0.0,5.0,5.0,774.5125900000858,3.0,1.0,phase_2,go,300.0,400.0,1.0,,,,,,,,,cyan,flipped triangle
0.0,4.0,4.0,0.0,5.0,5.0,803.8286489972961,3.0,1.0,phase_2,go,300.0,400.0,1.0,,,,,,,,,gray,I
0.0,8.0,4.0,1.0,5.0,5.0,479.5016079988272,3.0,1.0,phase_2,stop,300.0,400.0,3.0,,,,,,,,,blue,diamond
0.0,7.0,3.0,1.0,6.0,6.0,531.8234999976994,3.0,1.0,phase_2,stop,250.0,400.0,3.0,,,,,,,,,white,circle
0.0,3.0,3.0,0.0,6.0,6.0,596.5480790000584,3.0,1.0,phase_2,go,250.0,350.0,1.0,,,,,,,,,orange,triangle
0.0,3.0,3.0,0.0,6.0,6.0,820.9259219984233,3.0,1.0,phase_2,go,250.0,350.0,1.0,,,,,,,,,orange,triangle
0.0,2.0,2.0,0.0,5.0,5.0,875.6449710017478,4.0,1.0,phase_2,go,250.0,350.0,1.0,,,,,,,,,green,square
0.0,1.0,1.0,0.0,6.0,6.0,364.3552739995357,4.0,1.0,phase_2,go,250.0,350.0,1.0,,,,,,,,,cyan,flipped triangle
0.0,6.0,2.0,1.0,6.0,6.0,389.1111470002215,4.0,1.0,phase_2,stop,250.0,350.0,3.0,,,,,,,,,yellow,cross
0.0,6.0,2.0,1.0,6.0,0.0,0.0,4.0,1.0,phase_2,stop,250.0,300.0,4.0,,,,,,,,,yellow,cross
0.0,7.0,3.0,1.0,6.0,0.0,0.0,4.0,1.0,phase_2,stop,250.0,350.0,4.0,,,,,,,,,white,circle
0.0,1.0,1.0,0.0,6.0,6.0,744.80759799917,4.0,1.0,phase_2,go,250.0,400.0,1.0,,,,,,,,,cyan,flipped triangle
0.0,2.0,2.0,0.0,6.0,6.0,634.4499709994125,4.0,1.0,phase_2,go,250.0,400.0,1.0,,,,,,,,,green,square
0.0,3.0,3.0,0.0,5.0,5.0,710.6580160034355,4.0,1.0,phase_2,go,250.0,400.0,1.0,,,,,,,,,orange,triangle
0.0,7.0,3.0,1.0,6.0,0.0,0.0,4.0,1.0,phase_2,stop,250.0,400.0,4.0,,,,,,,,,white,circle
0.0,7.0,3.0,1.0,5.0,0.0,0.0,4.0,1.0,phase_2,stop,250.0,450.0,4.0,,,,,,,,,white,circle
0.0,1.0,1.0,0.0,5.0,5.0,1024.3093960016267,4.0,1.0,phase_2,go,300.0,450.0,1.0,,,,,,,,,cyan,flipped triangle
0.0,6.0,2.0,1.0,5.0,5.0,895.0576009992801,4.0,1.0,phase_2,go,300.0,450.0,1.0,,,,,,,,,yellow,cross
0.0,6.0,2.0,1.0,6.0,0.0,0.0,4.0,1.0,phase_2,stop,300.0,450.0,4.0,,,,,,,,,yellow,cross
0.0,7.0,3.0,1.0,6.0,6.0,1278.082248998544,4.0,1.0,phase_2,go,300.0,500.0,1.0,,,,,,,,,white,circle
0.0,1.0,1.0,0.0,5.0,5.0,1053.842732002522,4.0,1.0,phase_2,go,300.0,500.0,1.0,,,,,,,,,cyan,flipped triangle
0.0,7.0,3.0,1.0,6.0,0.0,0.0,4.0,1.0,phase_2,stop,300.0,500.0,4.0,,,,,,,,,white,circle
0.0,1.0,1.0,0.0,6.0,6.0,802.1562980029557,4.0,1.0,phase_2,go,300.0,550.0,1.0,,,,,,,,,cyan,flipped triangle
0.0,8.0,4.0,1.0,6.0,6.0,1203.252669001813,4.0,1.0,phase_2,go,300.0,550.0,1.0,,,,,,,,,blue,diamond
0.0,5.0,1.0,1.0,5.0,0.0,0.0,4.0,1.0,phase_2,stop,300.0,550.0,4.0,,,,,,,,,magenta,hexagon
0.0,8.0,4.0,1.0,6.0,0.0,0.0,4.0,1.0,phase_2,stop,350.0,550.0,4.0,,,,,,,,,blue,diamond
0.0,7.0,3.0,1.0,6.0,6.0,680.657680000877,4.0,1.0,phase_2,stop,350.0,600.0,3.0,,,,,,,,,white,circle
0.0,3.0,3.0,0.0,6.0,6.0,626.5279710023606,4.0,1.0,phase_2,go,350.0,550.0,1.0,,,,,,,,,orange,triangle
0.0,1.0,1.0,0.0,6.0,6.0,643.7369270024647,4.0,1.0,phase_2,go,350.0,550.0,1.0,,,,,,,,,cyan,flipped triangle
0.0,3.0,3.0,0.0,5.0,5.0,1285.29107400027,4.0,1.0,phase_2,go,350.0,550.0,1.0,,,,,,,,,orange,triangle
0.0,6.0,2.0,1.0,6.0,6.0,598.3100350022141,4.0,1.0,phase_2,stop,350.0,550.0,3.0,,,,,,,,,yellow,cross
0.0,4.0,4.0,0.0,5.0,5.0,783.6178409997956,4.0,1.0,phase_2,go,350.0,500.0,1.0,,,,,,,,,gray,I
0.0,6.0,2.0,1.0,6.0,0.0,0.0,4.0,1.0,phase_2,stop,350.0,500.0,4.0,,,,,,,,,yellow,cross
0.0,3.0,3.0,0.0,6.0,6.0,1046.467083000607,4.0,1.0,phase_2,go,350.0,550.0,1.0,,,,,,,,,orange,triangle
0.0,6.0,2.0,1.0,6.0,6.0,655.2381760011485,4.0,1.0,phase_2,stop,350.0,550.0,3.0,,,,,,,,,yellow,cross
0.0,7.0,3.0,1.0,6.0,6.0,401.6075260005891,4.0,1.0,phase_2,go,350.0,500.0,1.0,,,,,,,,,white,circle
0.0,7.0,3.0,1.0,6.0,0.0,0.0,4.0,1.0,phase_2,stop,350.0,500.0,4.0,,,,,,,,,white,circle
0.0,5.0,1.0,1.0,5.0,0.0,0.0,4.0,1.0,phase_2,stop,350.0,550.0,4.0,,,,,,,,,magenta,hexagon
0.0,4.0,4.0,0.0,5.0,5.0,894.3249799995101,4.0,1.0,phase_2,go,400.0,550.0,1.0,,,,,,,,,gray,I
0.0,1.0,1.0,0.0,5.0,0.0,0.0,4.0,1.0,phase_2,go,400.0,550.0,5.0,,,,,,,,,cyan,flipped triangle
0.0,7.0,3.0,1.0,5.0,0.0,0.0,4.0,1.0,phase_2,stop,400.0,550.0,4.0,,,,,,,,,white,circle
0.0,7.0,3.0,1.0,6.0,6.0,691.6604010002629,4.0,1.0,phase_2,stop,450.0,550.0,3.0,,,,,,,,,white,circle
0.0,3.0,3.0,0.0,5.0,5.0,868.4246329976304,5.0,1.0,phase_2,go,450.0,500.0,1.0,,,,,,,,,orange,triangle
0.0,8.0,4.0,1.0,5.0,5.0,497.1196590013278,5.0,1.0,phase_2,stop,450.0,500.0,3.0,,,,,,,,,blue,diamond
0.0,5.0,1.0,1.0,5.0,5.0,634.2643969983328,5.0,1.0,phase_2,go,400.0,500.0,1.0,,,,,,,,,magenta,hexagon
0.0,4.0,4.0,0.0,6.0,6.0,373.2010499988973,5.0,1.0,phase_2,go,400.0,500.0,1.0,,,,,,,,,gray,I
0.0,7.0,3.0,1.0,6.0,0.0,0.0,5.0,1.0,phase_2,stop,400.0,500.0,4.0,,,,,,,,,white,circle
0.0,1.0,1.0,0.0,5.0,5.0,901.1292209979728,5.0,1.0,phase_2,go,400.0,550.0,1.0,,,,,,,,,cyan,flipped triangle
0.0,7.0,3.0,1.0,6.0,0.0,0.0,5.0,1.0,phase_2,stop,400.0,550.0,4.0,,,,,,,,,white,circle
0.0,7.0,3.0,1.0,5.0,0.0,0.0,5.0,1.0,phase_2,stop,400.0,600.0,4.0,,,,,,,,,white,circle
0.0,4.0,4.0,0.0,5.0,5.0,882.6777069989475,5.0,1.0,phase_2,go,450.0,600.0,1.0,,,,,,,,,gray,I
0.0,2.0,2.0,0.0,5.0,5.0,732.787091001228,5.0,1.0,phase_2,go,450.0,600.0,1.0,,,,,,,,,green,square
0.0,5.0,1.0,1.0,6.0,6.0,638.8899910016335,5.0,1.0,phase_2,stop,450.0,600.0,3.0,,,,,,,,,magenta,hexagon
0.0,8.0,4.0,1.0,5.0,0.0,0.0,5.0,1.0,phase_2,stop,450.0,550.0,4.0,,,,,,,,,blue,diamond
0.0,6.0,2.0,1.0,6.0,6.0,1125.451444000646,5.0,1.0,phase_2,go,500.0,550.0,1.0,,,,,,,,,yellow,cross
0.0,8.0,4.0,1.0,6.0,0.0,0.0,5.0,1.0,phase_2,stop,500.0,550.0,4.0,,,,,,,,,blue,diamond
0.0,5.0,1.0,1.0,5.0,0.0,0.0,5.0,1.0,phase_2,stop,500.0,600.0,4.0,,,,,,,,,magenta,hexagon
0.0,3.0,3.0,0.0,6.0,6.0,782.2600989966304,5.0,1.0,phase_2,go,550.0,600.0,1.0,,,,,,,,,orange,triangle
0.0,7.0,3.0,1.0,5.0,5.0,706.5853959975357,5.0,1.0,phase_2,stop,550.0,600.0,3.0,,,,,,,,,white,circle
0.0,2.0,2.0,0.0,6.0,6.0,662.2576729969296,5.0,1.0,phase_2,go,500.0,600.0,1.0,,,,,,,,,green,square
0.0,5.0,1.0,1.0,5.0,0.0,0.0,5.0,1.0,phase_2,stop,500.0,600.0,4.0,,,,,,,,,magenta,hexagon
0.0,7.0,3.0,1.0,6.0,0.0,0.0,5.0,1.0,phase_2,stop,550.0,600.0,4.0,,,,,,,,,white,circle
0.0,1.0,1.0,0.0,5.0,5.0,1102.4175969978387,5.0,1.0,phase_2,go,550.0,650.0,1.0,,,,,,,,,cyan,flipped triangle
0.0,1.0,1.0,0.0,5.0,5.0,836.7447790005826,5.0,1.0,phase_2,go,550.0,650.0,1.0,,,,,,,,,cyan,flipped triangle
0.0,5.0,1.0,1.0,5.0,0.0,0.0,5.0,1.0,phase_2,stop,550.0,650.0,4.0,,,,,,,,,magenta,hexagon
0.0,4.0,4.0,0.0,5.0,5.0,1041.7498300012085,5.0,1.0,phase_2,go,600.0,650.0,1.0,,,,,,,,,gray,I
0.0,8.0,4.0,1.0,6.0,0.0,0.0,5.0,1.0,phase_2,stop,600.0,650.0,4.0,,,,,,,,,blue,diamond
0.0,7.0,3.0,1.0,5.0,0.0,0.0,5.0,1.0,phase_2,stop,600.0,700.0,4.0,,,,,,,,,white,circle
0.0,1.0,1.0,0.0,6.0,6.0,1097.6568770020094,5.0,1.0,phase_2,go,650.0,700.0,1.0,,,,,,,,,cyan,flipped triangle
0.0,5.0,1.0,1.0,6.0,0.0,0.0,5.0,1.0,phase_2,stop,650.0,700.0,4.0,,,,,,,,,magenta,hexagon
0.0,7.0,3.0,1.0,5.0,5.0,961.456665998412,5.0,1.0,phase_2,go,650.0,750.0,1.0,,,,,,,,,white,circle
0.0,4.0,4.0,0.0,6.0,6.0,1161.687402996904,5.0,1.0,phase_2,go,650.0,750.0,1.0,,,,,,,,,gray,I
0.0,6.0,2.0,1.0,6.0,6.0,825.539289999142,5.0,1.0,phase_2,stop,650.0,750.0,3.0,,,,,,,,,yellow,cross
0.0,8.0,4.0,1.0,6.0,6.0,604.084276001231,5.0,1.0,phase_2,go,650.0,700.0,1.0,,,,,,,,,blue,diamond
0.0,5.0,1.0,1.0,5.0,0.0,0.0,5.0,1.0,phase_2,stop,650.0,700.0,4.0,,,,,,,,,magenta,hexagon
0.0,2.0,2.0,0.0,6.0,6.0,625.2690870023798,5.0,1.0,phase_2,go,700.0,700.0,1.0,,,,,,,,,green,square
0.0,3.0,3.0,0.0,6.0,6.0,1118.977766000171,5.0,1.0,phase_2,go,700.0,700.0,1.0,,,,,,,,,orange,triangle
0.0,5.0,1.0,1.0,6.0,6.0,781.6398750001099,5.0,1.0,phase_2,go,700.0,700.0,1.0,,,,,,,,,magenta,hexagon
0.0,3.0,3.0,0.0,5.0,5.0,662.2071620004135,6.0,1.0,phase_2,go,700.0,700.0,1.0,,,,,,,,,orange,triangle
0.0,6.0,2.0,1.0,5.0,5.0,504.4277909983066,6.0,1.0,phase_2,stop,700.0,700.0,3.0,,,,,,,,,yellow,cross
0.0,2.0,2.0,0.0,6.0,6.0,624.7081069996057,6.0,1.0,phase_2,go,650.0,700.0,1.0,,,,,,,,,green,square
0.0,1.0,1.0,0.0,5.0,5.0,540.93583699796,6.0,1.0,phase_2,go,650.0,700.0,1.0,,,,,,,,,cyan,flipped triangle
0.0,7.0,3.0,1.0,5.0,5.0,531.5670869968017,6.0,1.0,phase_2,stop,650.0,700.0,3.0,,,,,,,,,white,circle
0.0,2.0,2.0,0.0,5.0,5.0,738.6902180005563,6.0,1.0,phase_2,go,600.0,700.0,1.0,,,,,,,,,green,square
0.0,4.0,4.0,0.0,6.0,6.0,401.9949440007622,6.0,1.0,phase_2,go,600.0,700.0,1.0,,,,,,,,,gray,I
0.0,3.0,3.0,0.0,6.0,6.0,428.8773190019128,6.0,1.0,phase_2,go,600.0,700.0,1.0,,,,,,,,,orange,triangle
0.0,5.0,1.0,1.0,5.0,5.0,645.5096149984456,6.0,1.0,phase_2,stop,600.0,700.0,3.0,,,,,,,,,magenta,hexagon
0.0,6.0,2.0,1.0,5.0,5.0,685.5340980000619,6.0,1.0,phase_2,stop,550.0,700.0,3.0,,,,,,,,,yellow,cross
0.0,3.0,3.0,0.0,5.0,5.0,757.0816360021126,6.0,1.0,phase_2,go,500.0,700.0,1.0,,,,,,,,,orange,triangle
0.0,2.0,2.0,0.0,5.0,5.0,595.6161489993974,6.0,1.0,phase_2,go,500.0,700.0,1.0,,,,,,,,,green,square
0.0,2.0,2.0,0.0,5.0,5.0,448.4191129995452,6.0,1.0,phase_2,go,500.0,700.0,1.0,,,,,,,,,green,square
0.0,3.0,3.0,0.0,5.0,5.0,522.6908559998265,6.0,1.0,phase_2,go,500.0,700.0,1.0,,,,,,,,,orange,triangle
0.0,4.0,4.0,0.0,5.0,5.0,476.5411569969728,6.0,1.0,phase_2,go,500.0,700.0,1.0,,,,,,,,,gray,I
0.0,8.0,4.0,1.0,5.0,0.0,0.0,6.0,1.0,phase_2,stop,500.0,700.0,4.0,,,,,,,,,blue,diamond
0.0,2.0,2.0,0.0,6.0,6.0,606.4042959988001,6.0,1.0,phase_2,go,550.0,700.0,1.0,,,,,,,,,green,square
0.0,1.0,1.0,0.0,6.0,6.0,698.6011039989535,6.0,1.0,phase_2,go,550.0,700.0,1.0,,,,,,,,,cyan,flipped triangle
0.0,5.0,1.0,1.0,6.0,6.0,653.3350270001392,6.0,1.0,phase_2,stop,550.0,700.0,3.0,,,,,,,,,magenta,hexagon
0.0,1.0,1.0,0.0,6.0,6.0,907.3370450023504,6.0,1.0,phase_2,go,550.0,650.0,1.0,,,,,,,,,cyan,flipped triangle
0.0,2.0,2.0,0.0,6.0,6.0,690.6287769998016,6.0,1.0,phase_2,go,550.0,650.0,1.0,,,,,,,,,green,square
0.0,6.0,2.0,1.0,6.0,0.0,0.0,6.0,1.0,phase_2,stop,550.0,650.0,4.0,,,,,,,,,yellow,cross
0.0,1.0,1.0,0.0,5.0,5.0,511.6193670000939,6.0,1.0,phase_2,go,550.0,700.0,1.0,,,,,,,,,cyan,flipped triangle
0.0,3.0,3.0,0.0,6.0,6.0,698.6087710029096,6.0,1.0,phase_2,go,550.0,700.0,1.0,,,,,,,,,orange,triangle
0.0,2.0,2.0,0.0,5.0,5.0,532.8683640000236,6.0,1.0,phase_2,go,550.0,700.0,1.0,,,,,,,,,green,square
0.0,8.0,4.0,1.0,6.0,0.0,0.0,6.0,1.0,phase_2,stop,550.0,700.0,4.0,,,,,,,,,blue,diamond
0.0,4.0,4.0,0.0,5.0,5.0,624.8019330014358,6.0,1.0,phase_2,go,550.0,750.0,1.0,,,,,,,,,gray,I
0.0,3.0,3.0,0.0,6.0,6.0,662.8346520010382,6.0,1.0,phase_2,go,550.0,750.0,1.0,,,,,,,,,orange,triangle
0.0,2.0,2.0,0.0,6.0,6.0,728.2811609984492,6.0,1.0,phase_2,go,550.0,750.0,1.0,,,,,,,,,green,square
0.0,5.0,1.0,1.0,5.0,5.0,646.458856001118,6.0,1.0,phase_2,stop,550.0,750.0,3.0,,,,,,,,,magenta,hexagon
0.0,2.0,2.0,0.0,6.0,6.0,775.5135890001839,6.0,1.0,phase_2,go,500.0,750.0,1.0,,,,,,,,,green,square
0.0,4.0,4.0,0.0,6.0,6.0,886.100315998192,6.0,1.0,phase_2,go,500.0,750.0,1.0,,,,,,,,,gray,I
0.0,7.0,3.0,1.0,5.0,5.0,1071.0759959983989,6.0,1.0,phase_2,go,500.0,750.0,1.0,,,,,,,,,white,circle
0.0,4.0,4.0,0.0,5.0,5.0,998.1039470003452,6.0,1.0,phase_2,go,500.0,750.0,1.0,,,,,,,,,gray,I
0.0,5.0,1.0,1.0,6.0,6.0,683.0603630005498,6.0,1.0,phase_2,go,500.0,750.0,1.0,,,,,,,,,magenta,hexagon
0.0,5.0,1.0,1.0,6.0,6.0,850.9225519992469,6.0,1.0,phase_2,stop,500.0,750.0,3.0,,,,,,,,,magenta,hexagon
0.0,7.0,3.0,1.0,5.0,5.0,512.4258870018821,7.0,1.0,phase_2,go,500.0,700.0,1.0,,,,,,,,,white,circle
0.0,4.0,4.0,0.0,6.0,6.0,530.7540390022041,7.0,1.0,phase_2,go,500.0,700.0,1.0,,,,,,,,,gray,I
0.0,1.0,1.0,0.0,5.0,5.0,681.2534330019844,7.0,1.0,phase_2,go,500.0,700.0,1.0,,,,,,,,,cyan,flipped triangle
0.0,3.0,3.0,0.0,5.0,5.0,447.4251070023456,7.0,1.0,phase_2,go,500.0,700.0,1.0,,,,,,,,,orange,triangle
0.0,8.0,4.0,1.0,6.0,6.0,750.7234490003611,7.0,1.0,phase_2,stop,500.0,700.0,3.0,,,,,,,,,blue,diamond
0.0,2.0,2.0,0.0,6.0,6.0,737.0557610011019,7.0,1.0,phase_2,go,500.0,650.0,1.0,,,,,,,,,green,square
0.0,3.0,3.0,0.0,6.0,6.0,1022.830376001366,7.0,1.0,phase_2,go,500.0,650.0,1.0,,,,,,,,,orange,triangle
0.0,4.0,4.0,0.0,6.0,6.0,701.3306059998285,7.0,1.0,phase_2,go,500.0,650.0,1.0,,,,,,,,,gray,I
0.0,4.0,4.0,0.0,6.0,6.0,929.5017420008662,7.0,1.0,phase_2,go,500.0,650.0,1.0,,,,,,,,,gray,I
0.0,6.0,2.0,1.0,6.0,6.0,520.596561000275,7.0,1.0,phase_2,stop,500.0,650.0,3.0,,,,,,,,,yellow,cross
0.0,5.0,1.0,1.0,5.0,5.0,656.7367570023634,7.0,1.0,phase_2,stop,500.0,600.0,3.0,,,,,,,,,magenta,hexagon
0.0,5.0,1.0,1.0,6.0,6.0,774.6034239971777,7.0,1.0,phase_2,stop,450.0,600.0,3.0,,,,,,,,,magenta,hexagon
0.0,3.0,3.0,0.0,6.0,6.0,837.8116859967122,7.0,1.0,phase_2,go,450.0,550.0,1.0,,,,,,,,,orange,triangle
0.0,2.0,2.0,0.0,5.0,5.0,746.8566169991391,7.0,1.0,phase_2,go,450.0,550.0,1.0,,,,,,,,,green,square
0.0,6.0,2.0,1.0,5.0,5.0,671.645061000163,7.0,1.0,phase_2,go,450.0,550.0,1.0,,,,,,,,,yellow,cross
0.0,6.0,2.0,1.0,5.0,0.0,0.0,7.0,1.0,phase_2,stop,450.0,550.0,4.0,,,,,,,,,yellow,cross
0.0,7.0,3.0,1.0,6.0,6.0,707.0862520013179,7.0,1.0,phase_2,go,500.0,550.0,1.0,,,,,,,,,white,circle
0.0,5.0,1.0,1.0,6.0,6.0,848.1832670004223,7.0,1.0,phase_2,go,500.0,550.0,1.0,,,,,,,,,magenta,hexagon
0.0,1.0,1.0,0.0,6.0,6.0,925.7149709992518,7.0,1.0,phase_2,go,500.0,550.0,1.0,,,,,,,,,cyan,flipped triangle
0.0,4.0,4.0,0.0,5.0,5.0,839.1798599986942,7.0,1.0,phase_2,go,500.0,550.0,1.0,,,,,,,,,gray,I
0.0,6.0,2.0,1.0,6.0,6.0,663.9104339992628,7.0,1.0,phase_2,stop,500.0,550.0,3.0,,,,,,,,,yellow,cross
0.0,2.0,2.0,0.0,6.0,6.0,1074.3680219966336,7.0,1.0,phase_2,go,500.0,500.0,1.0,,,,,,,,,green,square
0.0,4.0,4.0,0.0,6.0,0.0,0.0,7.0,1.0,phase_2,go,500.0,500.0,5.0,,,,,,,,,gray,I
0.0,7.0,3.0,1.0,5.0,5.0,626.7160480019811,7.0,1.0,phase_2,stop,500.0,500.0,3.0,,,,,,,,,white,circle
0.0,3.0,3.0,0.0,6.0,6.0,578.9812830007577,7.0,1.0,phase_2,go,450.0,500.0,1.0,,,,,,,,,orange,triangle
0.0,6.0,2.0,1.0,5.0,5.0,583.269927999936,7.0,1.0,phase_2,stop,450.0,500.0,3.0,,,,,,,,,yellow,cross
0.0,1.0,1.0,0.0,5.0,5.0,851.492263002001,7.0,1.0,phase_2,go,400.0,500.0,1.0,,,,,,,,,cyan,flipped triangle
0.0,3.0,3.0,0.0,5.0,5.0,802.1680140009266,7.0,1.0,phase_2,go,400.0,500.0,1.0,,,,,,,,,orange,triangle
0.0,4.0,4.0,0.0,6.0,6.0,572.5956140013295,7.0,1.0,phase_2,go,400.0,500.0,1.0,,,,,,,,,gray,I
0.0,4.0,4.0,0.0,6.0,6.0,467.0770190023177,7.0,1.0,phase_2,go,400.0,500.0,1.0,,,,,,,,,gray,I
0.0,7.0,3.0,1.0,6.0,0.0,0.0,7.0,1.0,phase_2,stop,400.0,500.0,4.0,,,,,,,,,white,circle
0.0,7.0,3.0,1.0,6.0,6.0,1087.7248889992188,7.0,1.0,phase_2,go,400.0,550.0,1.0,,,,,,,,,white,circle
0.0,8.0,4.0,1.0,5.0,0.0,0.0,7.0,1.0,phase_2,stop,400.0,550.0,4.0,,,,,,,,,blue,diamond
0.0,2.0,2.0,0.0,6.0,6.0,725.4605130001437,7.0,1.0,phase_2,go,450.0,550.0,1.0,,,,,,,,,green,square
0.0,2.0,2.0,0.0,5.0,5.0,799.5706840010826,7.0,1.0,phase_2,go,450.0,550.0,1.0,,,,,,,,,green,square
0.0,6.0,2.0,1.0,5.0,5.0,1231.8095640002866,7.0,1.0,phase_2,go,450.0,550.0,1.0,,,,,,,,,yellow,cross
0.0,3.0,3.0,0.0,5.0,5.0,602.078675001394,8.0,1.0,phase_2,go,450.0,550.0,1.0,,,,,,,,,orange,triangle
0.0,4.0,4.0,0.0,5.0,5.0,596.6082459999598,8.0,1.0,phase_2,go,450.0,550.0,1.0,,,,,,,,,gray,I
0.0,3.0,3.0,0.0,5.0,5.0,647.022809000191,8.0,1.0,phase_2,go,450.0,550.0,1.0,,,,,,,,,orange,triangle
0.0,8.0,4.0,1.0,6.0,6.0,434.4739690022834,8.0,1.0,phase_2,stop,450.0,550.0,3.0,,,,,,,,,blue,diamond
0.0,1.0,1.0,0.0,6.0,6.0,439.0049920002639,8.0,1.0,phase_2,go,450.0,500.0,1.0,,,,,,,,,cyan,flipped triangle
0.0,6.0,2.0,1.0,5.0,5.0,718.3500570026808,8.0,1.0,phase_2,go,450.0,500.0,1.0,,,,,,,,,yellow,cross
0.0,3.0,3.0,0.0,5.0,5.0,540.5410359999223,8.0,1.0,phase_2,go,450.0,500.0,1.0,,,,,,,,,orange,triangle
0.0,2.0,2.0,0.0,6.0,6.0,421.0471990008955,8.0,1.0,phase_2,go,450.0,500.0,1.0,,,,,,,,,green,square
0.0,5.0,1.0,1.0,6.0,6.0,675.2260440007376,8.0,1.0,phase_2,stop,450.0,500.0,3.0,,,,,,,,,magenta,hexagon
0.0,1.0,1.0,0.0,6.0,6.0,914.5899809991532,8.0,1.0,phase_2,go,450.0,450.0,1.0,,,,,,,,,cyan,flipped triangle
0.0,8.0,4.0,1.0,6.0,0.0,0.0,8.0,1.0,phase_2,stop,450.0,450.0,4.0,,,,,,,,,blue,diamond
0.0,2.0,2.0,0.0,5.0,5.0,783.4898830005841,8.0,1.0,phase_2,go,450.0,500.0,1.0,,,,,,,,,green,square
0.0,3.0,3.0,0.0,5.0,5.0,738.3548369980417,8.0,1.0,phase_2,go,450.0,500.0,1.0,,,,,,,,,orange,triangle
0.0,2.0,2.0,0.0,6.0,6.0,812.6999630003411,8.0,1.0,phase_2,go,450.0,500.0,1.0,,,,,,,,,green,square
0.0,1.0,1.0,0.0,6.0,6.0,784.6191030002956,8.0,1.0,phase_2,go,450.0,500.0,1.0,,,,,,,,,cyan,flipped triangle
0.0,3.0,3.0,0.0,5.0,5.0,879.1532619979989,8.0,1.0,phase_2,go,450.0,500.0,1.0,,,,,,,,,orange,triangle
0.0,5.0,1.0,1.0,6.0,6.0,693.1034440021904,8.0,1.0,phase_2,stop,450.0,500.0,3.0,,,,,,,,,magenta,hexagon
0.0,5.0,1.0,1.0,6.0,6.0,638.6506910021126,8.0,1.0,phase_2,stop,450.0,450.0,3.0,,,,,,,,,magenta,hexagon
0.0,1.0,1.0,0.0,5.0,5.0,513.6121159994218,8.0,1.0,phase_2,go,450.0,400.0,1.0,,,,,,,,,cyan,flipped triangle
0.0,7.0,3.0,1.0,5.0,0.0,0.0,8.0,1.0,phase_2,stop,450.0,400.0,4.0,,,,,,,,,white,circle
0.0,2.0,2.0,0.0,5.0,5.0,1036.614530999941,8.0,1.0,phase_2,go,500.0,400.0,1.0,,,,,,,,,green,square
0.0,5.0,1.0,1.0,6.0,0.0,0.0,8.0,1.0,phase_2,stop,500.0,400.0,4.0,,,,,,,,,magenta,hexagon
0.0,2.0,2.0,0.0,6.0,6.0,1049.0529369999422,8.0,1.0,phase_2,go,500.0,450.0,1.0,,,,,,,,,green,square
0.0,5.0,1.0,1.0,5.0,5.0,1072.87666800039,8.0,1.0,phase_2,go,500.0,450.0,1.0,,,,,,,,,magenta,hexagon
0.0,8.0,4.0,1.0,6.0,0.0,0.0,8.0,1.0,phase_2,stop,500.0,450.0,4.0,,,,,,,,,blue,diamond
0.0,2.0,2.0,0.0,6.0,6.0,969.4300119990658,8.0,1.0,phase_2,go,500.0,500.0,1.0,,,,,,,,,green,square
0.0,4.0,4.0,0.0,5.0,5.0,626.2665479989664,8.0,1.0,phase_2,go,500.0,500.0,1.0,,,,,,,,,gray,I
0.0,4.0,4.0,0.0,6.0,6.0,543.6607199990249,8.0,1.0,phase_2,go,500.0,500.0,1.0,,,,,,,,,gray,I
0.0,1.0,1.0,0.0,5.0,5.0,557.2028280002996,8.0,1.0,phase_2,go,500.0,500.0,1.0,,,,,,,,,cyan,flipped triangle
0.0,3.0,3.0,0.0,5.0,5.0,392.7230139997846,8.0,1.0,phase_2,go,500.0,500.0,1.0,,,,,,,,,orange,triangle
0.0,1.0,1.0,0.0,6.0,6.0,653.4903419997136,8.0,1.0,phase_2,go,500.0,500.0,1.0,,,,,,,,,cyan,flipped triangle
0.0,7.0,3.0,1.0,5.0,0.0,0.0,8.0,1.0,phase_2,stop,500.0,500.0,4.0,,,,,,,,,white,circle
0.0,6.0,2.0,1.0,6.0,0.0,0.0,8.0,1.0,phase_2,stop,550.0,500.0,4.0,,,,,,,,,yellow,cross
0.0,6.0,2.0,1.0,5.0,0.0,0.0,8.0,1.0,phase_2,stop,550.0,550.0,4.0,,,,,,,,,yellow,cross
0.0,2.0,2.0,0.0,5.0,5.0,1176.0983900021529,8.0,1.0,phase_2,go,600.0,550.0,1.0,,,,,,,,,green,square
0.0,5.0,1.0,1.0,6.0,6.0,682.917965001252,8.0,1.0,phase_2,stop,600.0,550.0,3.0,,,,,,,,,magenta,hexagon
0.0,8.0,4.0,1.0,7.0,5.0,2595.8990849976544,1.0,2.0,phase_3,,,,,519.0,3.0,692.0,865.0,1038.0,346.0,519.0,173.0,blue,diamond
0.0,3.0,3.0,0.0,7.0,2.0,2082.301708000159,1.0,1.0,phase_3,,,,,770.0,5.0,616.0,770.0,924.0,462.0,308.0,154.0,orange,triangle
0.0,6.0,2.0,1.0,7.0,3.0,1980.237269999634,1.0,1.0,phase_3,,,,,308.0,2.0,154.0,616.0,308.0,924.0,770.0,462.0,yellow,cross
0.0,3.0,3.0,0.0,7.0,6.0,2723.895781000465,1.0,1.0,phase_3,,,,,462.0,3.0,924.0,770.0,154.0,616.0,308.0,462.0,orange,triangle
0.0,7.0,3.0,1.0,7.0,3.0,1619.6397899984731,1.0,1.0,phase_3,,,,,1038.0,6.0,346.0,692.0,1038.0,519.0,865.0,173.0,white,circle
0.0,4.0,4.0,0.0,7.0,2.0,1901.7985399987083,1.0,1.0,phase_3,,,,,1038.0,6.0,346.0,1038.0,173.0,692.0,865.0,519.0,gray,I
0.0,1.0,1.0,0.0,7.0,6.0,3795.973809003044,1.0,1.0,phase_3,,,,,192.0,1.0,384.0,960.0,768.0,1152.0,576.0,192.0,cyan,flipped triangle
0.0,7.0,3.0,1.0,7.0,4.0,1853.725351000321,1.0,1.0,phase_3,,,,,464.0,4.0,348.0,696.0,232.0,464.0,580.0,116.0,white,circle
0.0,1.0,1.0,0.0,7.0,3.0,305.5982139994739,1.0,1.0,phase_3,,,,,810.0,6.0,270.0,540.0,810.0,675.0,135.0,405.0,cyan,flipped triangle
0.0,2.0,2.0,0.0,7.0,1.0,703.6612949996197,1.0,1.0,phase_3,,,,,519.0,3.0,519.0,173.0,1038.0,865.0,346.0,692.0,green,square
0.0,8.0,4.0,1.0,7.0,1.0,573.8761430002342,1.0,1.0,phase_3,,,,,519.0,3.0,519.0,692.0,1038.0,173.0,346.0,865.0,blue,diamond
0.0,3.0,3.0,0.0,7.0,1.0,1110.293157002161,1.0,1.0,phase_3,,,,,540.0,4.0,540.0,810.0,405.0,270.0,675.0,135.0,orange,triangle
0.0,6.0,2.0,1.0,7.0,2.0,463.3231949992478,1.0,1.0,phase_3,,,,,464.0,4.0,348.0,464.0,696.0,232.0,116.0,580.0,yellow,cross
0.0,1.0,1.0,0.0,7.0,4.0,1566.8731609985116,1.0,1.0,phase_3,,,,,540.0,4.0,675.0,810.0,270.0,540.0,135.0,405.0,cyan,flipped triangle
0.0,1.0,1.0,0.0,7.0,4.0,1009.3364500025928,1.0,1.0,phase_3,,,,,519.0,3.0,173.0,865.0,1038.0,519.0,346.0,692.0,cyan,flipped triangle
0.0,7.0,3.0,1.0,7.0,3.0,537.1086090017343,1.0,1.0,phase_3,,,,,616.0,4.0,154.0,770.0,616.0,462.0,924.0,308.0,white,circle
0.0,4.0,4.0,0.0,7.0,6.0,1120.16414000027,1.0,1.0,phase_3,,,,,270.0,2.0,405.0,540.0,675.0,810.0,135.0,270.0,gray,I
0.0,3.0,3.0,0.0,7.0,5.0,554.7487980002188,1.0,1.0,phase_3,,,,,192.0,1.0,576.0,1152.0,384.0,960.0,192.0,768.0,orange,triangle
0.0,2.0,2.0,0.0,7.0,4.0,481.1768880026648,1.0,1.0,phase_3,,,,,768.0,4.0,1152.0,384.0,192.0,768.0,576.0,960.0,green,square
0.0,4.0,4.0,0.0,7.0,4.0,555.4460139974253,1.0,1.0,phase_3,,,,,576.0,3.0,768.0,384.0,1152.0,576.0,192.0,960.0,gray,I
0.0,2.0,2.0,0.0,7.0,4.0,344.9121970006672,2.0,1.0,phase_3,,,,,232.0,2.0,348.0,464.0,696.0,232.0,116.0,580.0,green,square
0.0,5.0,1.0,1.0,7.0,5.0,649.312559999089,2.0,1.0,phase_3,,,,,924.0,6.0,616.0,154.0,462.0,770.0,924.0,308.0,magenta,hexagon
0.0,7.0,3.0,1.0,7.0,2.0,1221.140921003098,2.0,1.0,phase_3,,,,,960.0,5.0,1152.0,960.0,576.0,768.0,192.0,384.0,white,circle
0.0,6.0,2.0,1.0,7.0,3.0,427.8388900020218,2.0,1.0,phase_3,,,,,1038.0,6.0,346.0,692.0,1038.0,519.0,865.0,173.0,yellow,cross
0.0,7.0,3.0,1.0,7.0,3.0,315.0404449988855,2.0,1.0,phase_3,,,,,192.0,1.0,960.0,384.0,192.0,576.0,768.0,1152.0,white,circle
0.0,6.0,2.0,1.0,7.0,4.0,0.28057700183120005,2.0,1.0,phase_3,,,,,173.0,1.0,1038.0,692.0,519.0,173.0,346.0,865.0,yellow,cross
0.0,8.0,4.0,1.0,7.0,4.0,3360.7720760010125,2.0,1.0,phase_3,,,,,462.0,3.0,924.0,770.0,154.0,462.0,308.0,616.0,blue,diamond
0.0,2.0,2.0,0.0,7.0,4.0,739.448797001387,2.0,1.0,phase_3,,,,,135.0,1.0,810.0,540.0,405.0,135.0,675.0,270.0,green,square
0.0,7.0,3.0,1.0,7.0,3.0,612.2069530028966,2.0,1.0,phase_3,,,,,135.0,1.0,405.0,270.0,135.0,810.0,540.0,675.0,white,circle
0.0,4.0,4.0,0.0,7.0,2.0,547.0941300009144,2.0,1.0,phase_3,,,,,540.0,4.0,135.0,540.0,810.0,270.0,405.0,675.0,gray,I
0.0,6.0,2.0,1.0,7.0,3.0,501.57338500139304,2.0,1.0,phase_3,,,,,135.0,1.0,540.0,270.0,135.0,810.0,405.0,675.0,yellow,cross
0.0,7.0,3.0,1.0,7.0,4.0,399.0989669982809,2.0,1.0,phase_3,,,,,696.0,6.0,116.0,464.0,580.0,696.0,232.0,348.0,white,circle
0.0,8.0,4.0,1.0,7.0,5.0,138.8008360008825,2.0,1.0,phase_3,,,,,154.0,1.0,616.0,924.0,462.0,308.0,154.0,770.0,blue,diamond
0.0,1.0,1.0,0.0,7.0,6.0,602.0751989999553,2.0,1.0,phase_3,,,,,960.0,5.0,1152.0,192.0,384.0,768.0,576.0,960.0,cyan,flipped triangle
0.0,6.0,2.0,1.0,7.0,4.0,538.3764690013777,2.0,1.0,phase_3,,,,,1152.0,6.0,192.0,768.0,576.0,1152.0,384.0,960.0,yellow,cross
0.0,5.0,1.0,1.0,7.0,4.0,370.7197710027685,2.0,1.0,phase_3,,,,,865.0,5.0,1038.0,173.0,346.0,865.0,519.0,692.0,magenta,hexagon
0.0,4.0,4.0,0.0,7.0,4.0,591.6545090003638,2.0,1.0,phase_3,,,,,173.0,1.0,519.0,1038.0,692.0,173.0,346.0,865.0,gray,I
0.0,1.0,1.0,0.0,7.0,4.0,538.08330800166,2.0,1.0,phase_3,,,,,462.0,3.0,924.0,308.0,154.0,462.0,770.0,616.0,cyan,flipped triangle
0.0,5.0,1.0,1.0,7.0,4.0,785.5264629979501,2.0,1.0,phase_3,,,,,810.0,6.0,135.0,270.0,540.0,810.0,675.0,405.0,magenta,hexagon
0.0,5.0,1.0,1.0,7.0,5.0,539.9183059998904,2.0,1.0,phase_3,,,,,384.0,2.0,960.0,576.0,192.0,1152.0,384.0,768.0,magenta,hexagon
0.0,8.0,4.0,1.0,7.0,5.0,435.4836130005424,3.0,1.0,phase_3,,,,,675.0,5.0,405.0,270.0,135.0,540.0,675.0,810.0,blue,diamond
0.0,4.0,4.0,0.0,7.0,4.0,334.0035300025192,3.0,1.0,phase_3,,,,,924.0,6.0,616.0,770.0,308.0,924.0,154.0,462.0,gray,I
0.0,4.0,4.0,0.0,7.0,4.0,667.7012500003912,3.0,1.0,phase_3,,,,,770.0,5.0,924.0,616.0,462.0,770.0,308.0,154.0,gray,I
0.0,8.0,4.0,1.0,7.0,4.0,474.4626259998767,3.0,1.0,phase_3,,,,,1152.0,6.0,192.0,768.0,384.0,1152.0,960.0,576.0,blue,diamond
0.0,8.0,4.0,1.0,7.0,5.0,111.5372200001729,3.0,1.0,phase_3,,,,,348.0,3.0,696.0,232.0,116.0,580.0,348.0,464.0,blue,diamond
0.0,2.0,2.0,0.0,7.0,5.0,935.8595470002912,3.0,1.0,phase_3,,,,,232.0,2.0,696.0,348.0,116.0,580.0,232.0,464.0,green,square
0.0,3.0,3.0,0.0,7.0,5.0,0.2590169970062,3.0,1.0,phase_3,,,,,768.0,4.0,1152.0,576.0,960.0,192.0,768.0,384.0,orange,triangle
0.0,1.0,1.0,0.0,7.0,5.0,750.952452999627,3.0,1.0,phase_3,,,,,616.0,4.0,924.0,770.0,154.0,308.0,616.0,462.0,cyan,flipped triangle
0.0,1.0,1.0,0.0,7.0,5.0,1901.059372001328,3.0,1.0,phase_3,,,,,1038.0,6.0,346.0,519.0,692.0,173.0,1038.0,865.0,cyan,flipped triangle
0.0,1.0,1.0,0.0,7.0,4.0,398.2480089980527,3.0,1.0,phase_3,,,,,348.0,3.0,464.0,580.0,696.0,348.0,232.0,116.0,cyan,flipped triangle
0.0,2.0,2.0,0.0,7.0,5.0,805.3768690006109,3.0,1.0,phase_3,,,,,1038.0,6.0,865.0,346.0,173.0,519.0,1038.0,692.0,green,square
0.0,6.0,2.0,1.0,7.0,5.0,2518.891440999141,3.0,1.0,phase_3,,,,,348.0,3.0,696.0,580.0,116.0,464.0,348.0,232.0,yellow,cross
0.0,5.0,1.0,1.0,7.0,5.0,269.998071998998,3.0,1.0,phase_3,,,,,810.0,6.0,135.0,675.0,405.0,540.0,810.0,270.0,magenta,hexagon
0.0,3.0,3.0,0.0,7.0,3.0,380.1779469977191,3.0,1.0,phase_3,,,,,580.0,5.0,348.0,464.0,580.0,116.0,696.0,232.0,orange,triangle
0.0,2.0,2.0,0.0,7.0,3.0,426.2684440000157,3.0,1.0,phase_3,,,,,675.0,5.0,810.0,540.0,675.0,270.0,135.0,405.0,green,square
0.0,7.0,3.0,1.0,7.0,4.0,389.6329990020604,3.0,1.0,phase_3,,,,,924.0,6.0,462.0,770.0,616.0,924.0,154.0,308.0,white,circle
0.0,8.0,4.0,1.0,7.0,5.0,360.7067290031409,3.0,1.0,phase_3,,,,,135.0,1.0,270.0,405.0,540.0,810.0,135.0,675.0,blue,diamond
0.0,4.0,4.0,0.0,7.0,3.0,240.7624380030029,3.0,1.0,phase_3,,,,,580.0,5.0,464.0,232.0,580.0,348.0,116.0,696.0,gray,I
0.0,6.0,2.0,1.0,7.0,4.0,314.8541849986941,3.0,1.0,phase_3,,,,,1152.0,6.0,960.0,384.0,192.0,1152.0,576.0,768.0,yellow,cross
0.0,3.0,3.0,0.0,7.0,4.0,102.3442420009814,3.0,1.0,phase_3,,,,,464.0,4.0,580.0,348.0,696.0,464.0,116.0,232.0,orange,triangle
0.0,4.0,4.0,0.0,7.0,4.0,418.24525999982137,4.0,1.0,phase_3,,,,,580.0,5.0,116.0,696.0,232.0,580.0,348.0,464.0,gray,I
0.0,3.0,3.0,0.0,7.0,4.0,315.62114800181,4.0,1.0,phase_3,,,,,692.0,4.0,519.0,346.0,865.0,692.0,1038.0,173.0,orange,triangle
0.0,5.0,1.0,1.0,7.0,4.0,0.2728449981077,4.0,1.0,phase_3,,,,,1152.0,6.0,576.0,960.0,384.0,1152.0,768.0,192.0,magenta,hexagon
0.0,5.0,1.0,1.0,7.0,5.0,407.5440209999215,4.0,1.0,phase_3,,,,,519.0,3.0,173.0,1038.0,865.0,692.0,519.0,346.0,magenta,hexagon
0.0,1.0,1.0,0.0,7.0,5.0,352.2308069987048,4.0,1.0,phase_3,,,,,116.0,1.0,696.0,232.0,348.0,580.0,116.0,464.0,cyan,flipped triangle
0.0,7.0,3.0,1.0,7.0,3.0,387.8863209974952,4.0,1.0,phase_3,,,,,135.0,1.0,810.0,405.0,135.0,675.0,540.0,270.0,white,circle
0.0,5.0,1.0,1.0,7.0,3.0,444.3649210006697,4.0,1.0,phase_3,,,,,616.0,4.0,462.0,770.0,616.0,308.0,154.0,924.0,magenta,hexagon
0.0,3.0,3.0,0.0,7.0,4.0,426.9023880005989,4.0,1.0,phase_3,,,,,865.0,5.0,1038.0,346.0,519.0,865.0,692.0,173.0,orange,triangle
0.0,8.0,4.0,1.0,7.0,4.0,492.7917699969839,4.0,1.0,phase_3,,,,,580.0,5.0,232.0,696.0,116.0,580.0,464.0,348.0,blue,diamond
0.0,6.0,2.0,1.0,7.0,4.0,333.8090220022423,4.0,1.0,phase_3,,,,,924.0,6.0,462.0,154.0,616.0,924.0,308.0,770.0,yellow,cross
0.0,3.0,3.0,0.0,7.0,4.0,397.231960996578,4.0,1.0,phase_3,,,,,405.0,3.0,810.0,675.0,540.0,405.0,270.0,135.0,orange,triangle
0.0,5.0,1.0,1.0,7.0,4.0,538.0897209979594,4.0,1.0,phase_3,,,,,464.0,4.0,116.0,696.0,580.0,464.0,232.0,348.0,magenta,hexagon
0.0,2.0,2.0,0.0,7.0,4.0,536.9661559998349,4.0,1.0,phase_3,,,,,770.0,5.0,308.0,924.0,616.0,770.0,154.0,462.0,green,square
0.0,2.0,2.0,0.0,7.0,4.0,898.2593910004653,4.0,1.0,phase_3,,,,,462.0,3.0,154.0,924.0,770.0,462.0,616.0,308.0,green,square
0.0,6.0,2.0,1.0,7.0,5.0,1813.481965000392,4.0,1.0,phase_3,,,,,675.0,5.0,405.0,810.0,270.0,135.0,675.0,540.0,yellow,cross
0.0,2.0,2.0,0.0,7.0,6.0,581.4293370021915,4.0,1.0,phase_3,,,,,1152.0,6.0,384.0,768.0,576.0,960.0,192.0,1152.0,green,square
0.0,4.0,4.0,0.0,7.0,4.0,296.1409260024084,4.0,1.0,phase_3,,,,,192.0,1.0,960.0,384.0,576.0,192.0,768.0,1152.0,gray,I
0.0,7.0,3.0,1.0,7.0,5.0,323.1320710001455,4.0,1.0,phase_3,,,,,1038.0,6.0,173.0,519.0,346.0,865.0,1038.0,692.0,white,circle
0.0,8.0,4.0,1.0,7.0,3.0,379.0458460025547,4.0,1.0,phase_3,,,,,768.0,4.0,384.0,960.0,768.0,192.0,1152.0,576.0,blue,diamond
0.0,5.0,1.0,1.0,7.0,4.0,371.4485089985828,4.0,1.0,phase_3,,,,,464.0,4.0,232.0,580.0,116.0,464.0,348.0,696.0,magenta,hexagon
