raw_reward_magnitude,stim_reward,stepwise_reward_magnitude,paired_with_stopping,stim_location,response,reaction_time,block,num_trial_presentations,which_phase,stop_signal_trial_type,left_SSD,right_SSD,accuracy,chosen_bidding_amount,chosen_bidding_level,possible_bid_1,possible_bid_2,possible_bid_3,possible_bid_4,possible_bid_5,possible_bid_6,color_text,shape_text
1311.0,4.0,4.0,0.0,3.0,3.0,396.2941800000408,1.0,1.0,phase_1,,,,,,,,,,,,,orange,diamond
325.0,2.0,2.0,0.0,4.0,4.0,480.7081480003035,1.0,1.0,phase_1,,,,,,,,,,,,,green,hexagon
625.0,3.0,3.0,0.0,4.0,4.0,426.1847410002701,1.0,1.0,phase_1,,,,,,,,,,,,,yellow,triangle
167.0,1.0,1.0,0.0,2.0,2.0,499.8846320004304,1.0,1.0,phase_1,,,,,,,,,,,,,white,circle
653.0,3.0,3.0,0.0,1.0,1.0,471.7941310000242,1.0,1.0,phase_1,,,,,,,,,,,,,yellow,triangle
0.0,6.0,0.0,1.0,2.0,2.0,481.7022289998931,1.0,1.0,phase_1,,,,,,,,,,,,,blue,cross
0.0,8.0,0.0,1.0,1.0,1.0,518.8372180000442,1.0,1.0,phase_1,,,,,,,,,,,,,gray,I
332.0,2.0,2.0,0.0,4.0,4.0,370.6152159998055,1.0,1.0,phase_1,,,,,,,,,,,,,green,hexagon
668.0,7.0,3.0,1.0,2.0,2.0,306.3409279998268,1.0,1.0,phase_1,,,,,,,,,,,,,magenta,flipped triangle
1275.0,8.0,4.0,1.0,4.0,4.0,427.1215960002337,1.0,1.0,phase_1,,,,,,,,,,,,,gray,I
165.0,5.0,1.0,1.0,1.0,1.0,325.0488180001412,1.0,1.0,phase_1,,,,,,,,,,,,,cyan,square
659.0,3.0,3.0,0.0,4.0,4.0,332.7631219999603,1.0,1.0,phase_1,,,,,,,,,,,,,yellow,triangle
0.0,4.0,0.0,0.0,4.0,4.0,378.904854999746,1.0,1.0,phase_1,,,,,,,,,,,,,orange,diamond
0.0,7.0,0.0,1.0,2.0,2.0,369.9870000000373,1.0,1.0,phase_1,,,,,,,,,,,,,magenta,flipped triangle
168.0,1.0,1.0,0.0,3.0,3.0,318.7730749996262,1.0,1.0,phase_1,,,,,,,,,,,,,white,circle
636.0,7.0,3.0,1.0,4.0,4.0,318.489953000153,1.0,1.0,phase_1,,,,,,,,,,,,,magenta,flipped triangle
0.0,5.0,0.0,1.0,2.0,2.0,323.3057980000922,1.0,1.0,phase_1,,,,,,,,,,,,,cyan,square
147.0,5.0,1.0,1.0,1.0,1.0,425.8109620000141,1.0,2.0,phase_1,,,,,,,,,,,,,cyan,square
1275.0,8.0,4.0,1.0,4.0,4.0,398.1015129998013,1.0,1.0,phase_1,,,,,,,,,,,,,gray,I
349.0,6.0,2.0,1.0,3.0,3.0,370.786095999847,1.0,1.0,phase_1,,,,,,,,,,,,,blue,cross
0.0,5.0,0.0,1.0,2.0,2.0,361.2133010001344,1.0,1.0,phase_1,,,,,,,,,,,,,cyan,square
0.0,1.0,0.0,0.0,1.0,1.0,388.721655000154,1.0,1.0,phase_1,,,,,,,,,,,,,white,circle
1304.0,8.0,4.0,1.0,1.0,1.0,371.4413409998087,1.0,1.0,phase_1,,,,,,,,,,,,,gray,I
142.0,5.0,1.0,1.0,4.0,4.0,444.2103589999533,1.0,1.0,phase_1,,,,,,,,,,,,,cyan,square
148.0,1.0,1.0,0.0,3.0,3.0,435.8094459998938,1.0,1.0,phase_1,,,,,,,,,,,,,white,circle
0.0,3.0,0.0,0.0,3.0,3.0,397.6301640000201,1.0,1.0,phase_1,,,,,,,,,,,,,yellow,triangle
637.0,7.0,3.0,1.0,4.0,4.0,398.5688269999627,1.0,1.0,phase_1,,,,,,,,,,,,,magenta,flipped triangle
1303.0,4.0,4.0,0.0,1.0,1.0,482.207654999911,1.0,1.0,phase_1,,,,,,,,,,,,,orange,diamond
0.0,7.0,0.0,1.0,4.0,4.0,519.4550510000226,1.0,1.0,phase_1,,,,,,,,,,,,,magenta,flipped triangle
0.0,2.0,0.0,0.0,1.0,1.0,259.2559469999287,1.0,1.0,phase_1,,,,,,,,,,,,,green,hexagon
183.0,5.0,1.0,1.0,3.0,3.0,351.4324719999422,1.0,1.0,phase_1,,,,,,,,,,,,,cyan,square
182.0,5.0,1.0,1.0,2.0,2.0,379.1383679999853,1.0,1.0,phase_1,,,,,,,,,,,,,cyan,square
1294.0,8.0,4.0,1.0,3.0,3.0,360.8239340001091,1.0,1.0,phase_1,,,,,,,,,,,,,gray,I
338.0,2.0,2.0,0.0,2.0,2.0,600.6526900000608,1.0,1.0,phase_1,,,,,,,,,,,,,green,hexagon
138.0,5.0,1.0,1.0,4.0,4.0,333.4758529999817,1.0,1.0,phase_1,,,,,,,,,,,,,cyan,square
142.0,1.0,1.0,0.0,2.0,2.0,454.0525990000787,1.0,1.0,phase_1,,,,,,,,,,,,,white,circle
630.0,7.0,3.0,1.0,2.0,2.0,407.7134170001955,1.0,1.0,phase_1,,,,,,,,,,,,,magenta,flipped triangle
180.0,5.0,1.0,1.0,3.0,3.0,388.2278969999788,1.0,1.0,phase_1,,,,,,,,,,,,,cyan,square
318.0,6.0,2.0,1.0,4.0,4.0,352.4802150000141,1.0,1.0,phase_1,,,,,,,,,,,,,blue,cross
659.0,7.0,3.0,1.0,1.0,1.0,397.6169819998176,1.0,1.0,phase_1,,,,,,,,,,,,,magenta,flipped triangle
164.0,1.0,1.0,0.0,3.0,3.0,574.5966230001613,1.0,1.0,phase_1,,,,,,,,,,,,,white,circle
168.0,5.0,1.0,1.0,2.0,2.0,342.2545789999276,1.0,1.0,phase_1,,,,,,,,,,,,,cyan,square
1311.0,4.0,4.0,0.0,1.0,1.0,351.4330779999,1.0,1.0,phase_1,,,,,,,,,,,,,orange,diamond
1297.0,4.0,4.0,0.0,1.0,1.0,499.3696039996393,1.0,1.0,phase_1,,,,,,,,,,,,,orange,diamond
307.0,2.0,2.0,0.0,1.0,1.0,396.4837979997355,1.0,1.0,phase_1,,,,,,,,,,,,,green,hexagon
141.0,5.0,1.0,1.0,2.0,2.0,461.9102289998409,1.0,1.0,phase_1,,,,,,,,,,,,,cyan,square
331.0,2.0,2.0,0.0,3.0,3.0,407.9117850001239,1.0,1.0,phase_1,,,,,,,,,,,,,green,hexagon
673.0,3.0,3.0,0.0,4.0,4.0,498.6654599997564,1.0,1.0,phase_1,,,,,,,,,,,,,yellow,triangle
1310.0,8.0,4.0,1.0,2.0,2.0,408.0497119998654,1.0,1.0,phase_1,,,,,,,,,,,,,gray,I
1294.0,4.0,4.0,0.0,3.0,3.0,453.8947239998379,1.0,1.0,phase_1,,,,,,,,,,,,,orange,diamond
631.0,7.0,3.0,1.0,3.0,3.0,398.4212069999557,1.0,1.0,phase_1,,,,,,,,,,,,,magenta,flipped triangle
653.0,7.0,3.0,1.0,3.0,3.0,351.2057580001055,1.0,1.0,phase_1,,,,,,,,,,,,,magenta,flipped triangle
157.0,1.0,1.0,0.0,4.0,4.0,378.9624450000701,1.0,1.0,phase_1,,,,,,,,,,,,,white,circle
0.0,7.0,0.0,1.0,3.0,3.0,368.2338089997756,1.0,1.0,phase_1,,,,,,,,,,,,,magenta,flipped triangle
0.0,7.0,0.0,1.0,2.0,2.0,323.2608860002983,1.0,1.0,phase_1,,,,,,,,,,,,,magenta,flipped triangle
0.0,4.0,0.0,0.0,3.0,3.0,333.4655740000016,1.0,1.0,phase_1,,,,,,,,,,,,,orange,diamond
167.0,1.0,1.0,0.0,2.0,2.0,361.3147399996705,1.0,1.0,phase_1,,,,,,,,,,,,,white,circle
639.0,3.0,3.0,0.0,2.0,2.0,322.7889539998614,1.0,1.0,phase_1,,,,,,,,,,,,,yellow,triangle
316.0,2.0,2.0,0.0,1.0,1.0,322.8109299998323,1.0,1.0,phase_1,,,,,,,,,,,,,green,hexagon
338.0,2.0,2.0,0.0,2.0,2.0,341.5558619999501,1.0,1.0,phase_1,,,,,,,,,,,,,green,hexagon
0.0,6.0,0.0,1.0,2.0,2.0,332.6617049997367,1.0,1.0,phase_1,,,,,,,,,,,,,blue,cross
0.0,6.0,0.0,1.0,2.0,2.0,360.2363109998805,1.0,1.0,phase_1,,,,,,,,,,,,,blue,cross
0.0,8.0,0.0,1.0,1.0,1.0,370.6382000000303,1.0,1.0,phase_1,,,,,,,,,,,,,gray,I
669.0,3.0,3.0,0.0,2.0,2.0,333.2580999999663,1.0,1.0,phase_1,,,,,,,,,,,,,yellow,triangle
0.0,6.0,0.0,1.0,4.0,4.0,361.0070770000675,1.0,1.0,phase_1,,,,,,,,,,,,,blue,cross
1299.0,4.0,4.0,0.0,4.0,4.0,380.1686780002455,1.0,1.0,phase_1,,,,,,,,,,,,,orange,diamond
165.0,1.0,1.0,0.0,2.0,2.0,314.0004479996605,1.0,1.0,phase_1,,,,,,,,,,,,,white,circle
0.0,2.0,0.0,0.0,4.0,4.0,360.9580799998184,1.0,1.0,phase_1,,,,,,,,,,,,,green,hexagon
344.0,2.0,2.0,0.0,4.0,4.0,378.8292330000331,1.0,1.0,phase_1,,,,,,,,,,,,,green,hexagon
185.0,5.0,1.0,1.0,4.0,4.0,314.5033720002175,1.0,1.0,phase_1,,,,,,,,,,,,,cyan,square
630.0,3.0,3.0,0.0,1.0,1.0,416.0255259998848,1.0,1.0,phase_1,,,,,,,,,,,,,yellow,triangle
342.0,2.0,2.0,0.0,4.0,4.0,341.61924,1.0,1.0,phase_1,,,,,,,,,,,,,green,hexagon
654.0,3.0,3.0,0.0,3.0,3.0,370.3253780004161,1.0,1.0,phase_1,,,,,,,,,,,,,yellow,triangle
1315.0,8.0,4.0,1.0,1.0,1.0,463.5249110001496,1.0,1.0,phase_1,,,,,,,,,,,,,gray,I
1319.0,4.0,4.0,0.0,4.0,4.0,378.8806970001133,1.0,1.0,phase_1,,,,,,,,,,,,,orange,diamond
166.0,1.0,1.0,0.0,1.0,1.0,455.1207439999416,1.0,2.0,phase_1,,,,,,,,,,,,,white,circle
626.0,3.0,3.0,0.0,4.0,4.0,444.7922519998428,1.0,1.0,phase_1,,,,,,,,,,,,,yellow,triangle
1291.0,4.0,4.0,0.0,3.0,3.0,379.5202860001154,1.0,1.0,phase_1,,,,,,,,,,,,,orange,diamond
1320.0,8.0,4.0,1.0,1.0,1.0,554.8457539998708,1.0,1.0,phase_1,,,,,,,,,,,,,gray,I
138.0,1.0,1.0,0.0,4.0,4.0,425.6548369999109,1.0,1.0,phase_1,,,,,,,,,,,,,white,circle
637.0,3.0,3.0,0.0,3.0,3.0,407.6370529996893,1.0,1.0,phase_1,,,,,,,,,,,,,yellow,triangle
310.0,2.0,2.0,0.0,1.0,1.0,537.6065919999746,1.0,1.0,phase_1,,,,,,,,,,,,,green,hexagon
642.0,3.0,3.0,0.0,1.0,1.0,518.3235839999725,1.0,1.0,phase_1,,,,,,,,,,,,,yellow,triangle
1292.0,4.0,4.0,0.0,3.0,3.0,379.532781999842,1.0,1.0,phase_1,,,,,,,,,,,,,orange,diamond
148.0,5.0,1.0,1.0,2.0,2.0,446.057693000057,1.0,1.0,phase_1,,,,,,,,,,,,,cyan,square
142.0,5.0,1.0,1.0,1.0,1.0,344.92843299995,1.0,1.0,phase_1,,,,,,,,,,,,,cyan,square
1310.0,8.0,4.0,1.0,4.0,4.0,509.41687000022284,1.0,1.0,phase_1,,,,,,,,,,,,,gray,I
628.0,3.0,3.0,0.0,3.0,3.0,397.1898129998408,1.0,1.0,phase_1,,,,,,,,,,,,,yellow,triangle
338.0,6.0,2.0,1.0,1.0,1.0,546.7962810002973,1.0,1.0,phase_1,,,,,,,,,,,,,blue,cross
309.0,2.0,2.0,0.0,2.0,2.0,388.664960999904,1.0,1.0,phase_1,,,,,,,,,,,,,green,hexagon
1307.0,8.0,4.0,1.0,2.0,2.0,426.219643999957,1.0,1.0,phase_1,,,,,,,,,,,,,gray,I
0.0,6.0,0.0,1.0,2.0,2.0,397.2927350000645,1.0,1.0,phase_1,,,,,,,,,,,,,blue,cross
1276.0,4.0,4.0,0.0,1.0,1.0,305.0074099996891,1.0,1.0,phase_1,,,,,,,,,,,,,orange,diamond
1313.0,8.0,4.0,1.0,3.0,3.0,351.2738239996906,1.0,1.0,phase_1,,,,,,,,,,,,,gray,I
1310.0,4.0,4.0,0.0,3.0,3.0,388.5379759999523,1.0,1.0,phase_1,,,,,,,,,,,,,orange,diamond
0.0,3.0,0.0,0.0,4.0,4.0,390.6126599999879,1.0,1.0,phase_1,,,,,,,,,,,,,yellow,triangle
329.0,2.0,2.0,0.0,2.0,2.0,463.2588119998218,1.0,1.0,phase_1,,,,,,,,,,,,,green,hexagon
0.0,1.0,0.0,0.0,3.0,3.0,351.3594219998595,1.0,1.0,phase_1,,,,,,,,,,,,,white,circle
0.0,6.0,0.0,1.0,2.0,2.0,472.0743939997192,1.0,1.0,phase_1,,,,,,,,,,,,,blue,cross
307.0,2.0,2.0,0.0,2.0,2.0,389.3289619995812,1.0,1.0,phase_1,,,,,,,,,,,,,green,hexagon
162.0,5.0,1.0,1.0,4.0,4.0,474.2625250000856,2.0,1.0,phase_1,,,,,,,,,,,,,cyan,square
674.0,7.0,3.0,1.0,1.0,1.0,480.6516239996199,2.0,1.0,phase_1,,,,,,,,,,,,,magenta,flipped triangle
346.0,6.0,2.0,1.0,1.0,1.0,435.5610580000757,2.0,1.0,phase_1,,,,,,,,,,,,,blue,cross
310.0,6.0,2.0,1.0,2.0,2.0,528.440393999972,2.0,1.0,phase_1,,,,,,,,,,,,,blue,cross
145.0,5.0,1.0,1.0,1.0,1.0,499.974437000219,2.0,1.0,phase_1,,,,,,,,,,,,,cyan,square
0.0,8.0,0.0,1.0,1.0,1.0,435.1754579997759,2.0,1.0,phase_1,,,,,,,,,,,,,gray,I
1292.0,8.0,4.0,1.0,1.0,1.0,360.7793779997337,2.0,1.0,phase_1,,,,,,,,,,,,,gray,I
325.0,6.0,2.0,1.0,4.0,4.0,389.5846420000453,2.0,1.0,phase_1,,,,,,,,,,,,,blue,cross
642.0,3.0,3.0,0.0,2.0,2.0,324.8872969998047,2.0,1.0,phase_1,,,,,,,,,,,,,yellow,triangle
312.0,2.0,2.0,0.0,2.0,2.0,408.5042980000253,2.0,1.0,phase_1,,,,,,,,,,,,,green,hexagon
1322.0,4.0,4.0,0.0,2.0,2.0,407.2392150001178,2.0,1.0,phase_1,,,,,,,,,,,,,orange,diamond
649.0,3.0,3.0,0.0,2.0,2.0,360.125410999899,2.0,1.0,phase_1,,,,,,,,,,,,,yellow,triangle
1285.0,8.0,4.0,1.0,4.0,4.0,444.8518589997547,2.0,1.0,phase_1,,,,,,,,,,,,,gray,I
0.0,1.0,0.0,0.0,1.0,1.0,417.4052670000492,2.0,1.0,phase_1,,,,,,,,,,,,,white,circle
1322.0,8.0,4.0,1.0,3.0,3.0,629.0423720001854,2.0,1.0,phase_1,,,,,,,,,,,,,gray,I
167.0,5.0,1.0,1.0,2.0,2.0,472.943498999939,2.0,1.0,phase_1,,,,,,,,,,,,,cyan,square
0.0,4.0,0.0,0.0,3.0,3.0,435.6306419999782,2.0,1.0,phase_1,,,,,,,,,,,,,orange,diamond
1283.0,4.0,4.0,0.0,2.0,2.0,511.0591419997945,2.0,1.0,phase_1,,,,,,,,,,,,,orange,diamond
0.0,5.0,0.0,1.0,4.0,4.0,490.9020249997411,2.0,1.0,phase_1,,,,,,,,,,,,,cyan,square
336.0,6.0,2.0,1.0,3.0,3.0,417.0998109998436,2.0,1.0,phase_1,,,,,,,,,,,,,blue,cross
0.0,1.0,0.0,0.0,1.0,1.0,388.6463349999758,2.0,1.0,phase_1,,,,,,,,,,,,,white,circle
1315.0,4.0,4.0,0.0,2.0,2.0,409.3330900000183,2.0,1.0,phase_1,,,,,,,,,,,,,orange,diamond
0.0,7.0,0.0,1.0,3.0,3.0,380.086657999982,2.0,1.0,phase_1,,,,,,,,,,,,,magenta,flipped triangle
1281.0,8.0,4.0,1.0,1.0,1.0,444.24942500018,2.0,1.0,phase_1,,,,,,,,,,,,,gray,I
636.0,3.0,3.0,0.0,2.0,2.0,500.64354500000263,2.0,1.0,phase_1,,,,,,,,,,,,,yellow,triangle
333.0,2.0,2.0,0.0,4.0,4.0,418.1789259996549,2.0,1.0,phase_1,,,,,,,,,,,,,green,hexagon
0.0,5.0,0.0,1.0,3.0,3.0,427.1092230001159,2.0,1.0,phase_1,,,,,,,,,,,,,cyan,square
0.0,3.0,0.0,0.0,4.0,4.0,361.9126499997946,2.0,1.0,phase_1,,,,,,,,,,,,,yellow,triangle
0.0,2.0,0.0,0.0,4.0,4.0,453.8970460002929,2.0,1.0,phase_1,,,,,,,,,,,,,green,hexagon
0.0,2.0,0.0,0.0,2.0,2.0,361.8104180000046,2.0,1.0,phase_1,,,,,,,,,,,,,green,hexagon
641.0,3.0,3.0,0.0,1.0,1.0,314.7389729997485,2.0,1.0,phase_1,,,,,,,,,,,,,yellow,triangle
0.0,1.0,0.0,0.0,3.0,3.0,416.9040140000106,2.0,1.0,phase_1,,,,,,,,,,,,,white,circle
307.0,6.0,2.0,1.0,1.0,1.0,397.555574999842,2.0,1.0,phase_1,,,,,,,,,,,,,blue,cross
332.0,6.0,2.0,1.0,2.0,2.0,398.1784819998211,2.0,1.0,phase_1,,,,,,,,,,,,,blue,cross
308.0,6.0,2.0,1.0,4.0,4.0,360.7349310000245,2.0,1.0,phase_1,,,,,,,,,,,,,blue,cross
651.0,7.0,3.0,1.0,3.0,3.0,361.7307819999951,2.0,1.0,phase_1,,,,,,,,,,,,,magenta,flipped triangle
1277.0,8.0,4.0,1.0,3.0,3.0,417.329946999871,2.0,1.0,phase_1,,,,,,,,,,,,,gray,I
0.0,7.0,0.0,1.0,2.0,2.0,453.7763420003102,2.0,1.0,phase_1,,,,,,,,,,,,,magenta,flipped triangle
154.0,1.0,1.0,0.0,3.0,3.0,368.806129999939,2.0,1.0,phase_1,,,,,,,,,,,,,white,circle
1302.0,4.0,4.0,0.0,1.0,1.0,361.3062809999974,2.0,1.0,phase_1,,,,,,,,,,,,,orange,diamond
641.0,7.0,3.0,1.0,1.0,1.0,369.4014030006656,2.0,1.0,phase_1,,,,,,,,,,,,,magenta,flipped triangle
149.0,5.0,1.0,1.0,1.0,1.0,361.2194699999236,2.0,1.0,phase_1,,,,,,,,,,,,,cyan,square
0.0,1.0,0.0,0.0,3.0,3.0,388.4745540008225,2.0,1.0,phase_1,,,,,,,,,,,,,white,circle
660.0,3.0,3.0,0.0,4.0,4.0,546.3126699996792,2.0,1.0,phase_1,,,,,,,,,,,,,yellow,triangle
0.0,1.0,0.0,0.0,3.0,3.0,379.7486370003753,2.0,1.0,phase_1,,,,,,,,,,,,,white,circle
325.0,2.0,2.0,0.0,4.0,4.0,388.1608530000449,2.0,1.0,phase_1,,,,,,,,,,,,,green,hexagon
627.0,3.0,3.0,0.0,3.0,3.0,407.3713899997528,2.0,1.0,phase_1,,,,,,,,,,,,,yellow,triangle
1280.0,4.0,4.0,0.0,3.0,3.0,379.4197950001035,2.0,1.0,phase_1,,,,,,,,,,,,,orange,diamond
301.0,2.0,2.0,0.0,2.0,2.0,408.2569230004083,2.0,1.0,phase_1,,,,,,,,,,,,,green,hexagon
312.0,6.0,2.0,1.0,2.0,2.0,462.2335770000063,2.0,1.0,phase_1,,,,,,,,,,,,,blue,cross
1316.0,4.0,4.0,0.0,4.0,4.0,415.242818000479,2.0,1.0,phase_1,,,,,,,,,,,,,orange,diamond
348.0,2.0,2.0,0.0,1.0,1.0,536.6770179998639,2.0,1.0,phase_1,,,,,,,,,,,,,green,hexagon
651.0,3.0,3.0,0.0,1.0,1.0,491.2087580005391,2.0,1.0,phase_1,,,,,,,,,,,,,yellow,triangle
665.0,3.0,3.0,0.0,2.0,2.0,387.7735409996603,2.0,1.0,phase_1,,,,,,,,,,,,,yellow,triangle
336.0,2.0,2.0,0.0,1.0,1.0,351.4484150000498,2.0,1.0,phase_1,,,,,,,,,,,,,green,hexagon
0.0,6.0,0.0,1.0,2.0,2.0,360.1426900004298,2.0,1.0,phase_1,,,,,,,,,,,,,blue,cross
0.0,8.0,0.0,1.0,3.0,3.0,432.971233999524,2.0,1.0,phase_1,,,,,,,,,,,,,gray,I
165.0,5.0,1.0,1.0,3.0,3.0,410.2691819998654,2.0,1.0,phase_1,,,,,,,,,,,,,cyan,square
346.0,2.0,2.0,0.0,3.0,3.0,369.9095949996263,2.0,1.0,phase_1,,,,,,,,,,,,,green,hexagon
1283.0,8.0,4.0,1.0,2.0,2.0,417.5574999999298,2.0,1.0,phase_1,,,,,,,,,,,,,gray,I
1276.0,8.0,4.0,1.0,3.0,3.0,361.0617379999894,2.0,1.0,phase_1,,,,,,,,,,,,,gray,I
0.0,3.0,0.0,0.0,4.0,4.0,480.9713699996791,2.0,1.0,phase_1,,,,,,,,,,,,,yellow,triangle
141.0,5.0,1.0,1.0,1.0,1.0,361.8788959993253,2.0,1.0,phase_1,,,,,,,,,,,,,cyan,square
301.0,2.0,2.0,0.0,3.0,3.0,342.6106059996527,2.0,1.0,phase_1,,,,,,,,,,,,,green,hexagon
0.0,7.0,0.0,1.0,2.0,2.0,352.5291930000094,2.0,1.0,phase_1,,,,,,,,,,,,,magenta,flipped triangle
1287.0,8.0,4.0,1.0,2.0,2.0,453.501144999791,2.0,1.0,phase_1,,,,,,,,,,,,,gray,I
1277.0,4.0,4.0,0.0,2.0,2.0,342.4368819996743,2.0,1.0,phase_1,,,,,,,,,,,,,orange,diamond
631.0,3.0,3.0,0.0,1.0,1.0,416.3585010001043,2.0,2.0,phase_1,,,,,,,,,,,,,yellow,triangle
310.0,2.0,2.0,0.0,3.0,3.0,435.4201730002387,2.0,1.0,phase_1,,,,,,,,,,,,,green,hexagon
1297.0,8.0,4.0,1.0,4.0,4.0,519.3772680004258,2.0,1.0,phase_1,,,,,,,,,,,,,gray,I
662.0,3.0,3.0,0.0,4.0,4.0,462.2729989996514,2.0,1.0,phase_1,,,,,,,,,,,,,yellow,triangle
154.0,5.0,1.0,1.0,2.0,2.0,436.0957789995154,2.0,1.0,phase_1,,,,,,,,,,,,,cyan,square
656.0,7.0,3.0,1.0,2.0,2.0,693.393831999856,2.0,1.0,phase_1,,,,,,,,,,,,,magenta,flipped triangle
672.0,3.0,3.0,0.0,4.0,4.0,537.50880699954,2.0,1.0,phase_1,,,,,,,,,,,,,yellow,triangle
185.0,1.0,1.0,0.0,4.0,4.0,508.80843899994943,2.0,1.0,phase_1,,,,,,,,,,,,,white,circle
307.0,6.0,2.0,1.0,2.0,2.0,489.4939300002079,2.0,1.0,phase_1,,,,,,,,,,,,,blue,cross
1319.0,8.0,4.0,1.0,4.0,4.0,389.4979360002253,2.0,1.0,phase_1,,,,,,,,,,,,,gray,I
1310.0,4.0,4.0,0.0,3.0,3.0,481.7350080002143,2.0,1.0,phase_1,,,,,,,,,,,,,orange,diamond
658.0,3.0,3.0,0.0,3.0,3.0,471.1863089996768,2.0,1.0,phase_1,,,,,,,,,,,,,yellow,triangle
1320.0,4.0,4.0,0.0,4.0,4.0,424.9591669995425,2.0,1.0,phase_1,,,,,,,,,,,,,orange,diamond
145.0,1.0,1.0,0.0,2.0,2.0,481.2078779996227,2.0,1.0,phase_1,,,,,,,,,,,,,white,circle
669.0,7.0,3.0,1.0,3.0,3.0,535.9040819994334,2.0,1.0,phase_1,,,,,,,,,,,,,magenta,flipped triangle
350.0,6.0,2.0,1.0,1.0,1.0,518.527126000663,2.0,1.0,phase_1,,,,,,,,,,,,,blue,cross
1305.0,4.0,4.0,0.0,4.0,4.0,415.691314000469,2.0,1.0,phase_1,,,,,,,,,,,,,orange,diamond
322.0,2.0,2.0,0.0,3.0,3.0,379.6558690000893,2.0,1.0,phase_1,,,,,,,,,,,,,green,hexagon
304.0,2.0,2.0,0.0,1.0,1.0,460.6921229997169,2.0,1.0,phase_1,,,,,,,,,,,,,green,hexagon
173.0,1.0,1.0,0.0,4.0,4.0,471.5083999999478,2.0,1.0,phase_1,,,,,,,,,,,,,white,circle
168.0,5.0,1.0,1.0,4.0,4.0,435.7940270001563,2.0,1.0,phase_1,,,,,,,,,,,,,cyan,square
1296.0,8.0,4.0,1.0,4.0,4.0,462.1665200002098,2.0,1.0,phase_1,,,,,,,,,,,,,gray,I
180.0,5.0,1.0,1.0,1.0,1.0,786.0680320000029,2.0,1.0,phase_1,,,,,,,,,,,,,cyan,square
660.0,7.0,3.0,1.0,1.0,1.0,480.2811560002737,2.0,1.0,phase_1,,,,,,,,,,,,,magenta,flipped triangle
314.0,6.0,2.0,1.0,3.0,3.0,398.1270830008725,2.0,1.0,phase_1,,,,,,,,,,,,,blue,cross
665.0,7.0,3.0,1.0,4.0,4.0,444.0240819994869,2.0,1.0,phase_1,,,,,,,,,,,,,magenta,flipped triangle
1311.0,8.0,4.0,1.0,3.0,3.0,452.344785000605,2.0,1.0,phase_1,,,,,,,,,,,,,gray,I
170.0,1.0,1.0,0.0,2.0,2.0,343.0983950001973,2.0,1.0,phase_1,,,,,,,,,,,,,white,circle
174.0,1.0,1.0,0.0,3.0,3.0,399.0912790004586,2.0,1.0,phase_1,,,,,,,,,,,,,white,circle
0.0,1.0,0.0,0.0,1.0,1.0,509.9798239998563,2.0,2.0,phase_1,,,,,,,,,,,,,white,circle
173.0,5.0,1.0,1.0,4.0,4.0,536.6804939994836,2.0,1.0,phase_1,,,,,,,,,,,,,cyan,square
0.0,7.0,0.0,1.0,2.0,2.0,397.484514000098,2.0,2.0,phase_1,,,,,,,,,,,,,magenta,flipped triangle
1285.0,8.0,4.0,1.0,2.0,2.0,424.2068039993683,2.0,1.0,phase_1,,,,,,,,,,,,,gray,I
141.0,1.0,1.0,0.0,1.0,1.0,499.4663349998518,3.0,1.0,phase_1,,,,,,,,,,,,,white,circle
138.0,1.0,1.0,0.0,2.0,2.0,407.2348810004769,3.0,1.0,phase_1,,,,,,,,,,,,,white,circle
180.0,1.0,1.0,0.0,3.0,3.0,397.35031399959547,3.0,1.0,phase_1,,,,,,,,,,,,,white,circle
304.0,6.0,2.0,1.0,4.0,4.0,416.4469340003052,3.0,1.0,phase_1,,,,,,,,,,,,,blue,cross
628.0,7.0,3.0,1.0,1.0,1.0,434.3785580003896,3.0,1.0,phase_1,,,,,,,,,,,,,magenta,flipped triangle
166.0,5.0,1.0,1.0,2.0,2.0,425.0379810000595,3.0,1.0,phase_1,,,,,,,,,,,,,cyan,square
0.0,8.0,0.0,1.0,3.0,3.0,416.1280500002249,3.0,1.0,phase_1,,,,,,,,,,,,,gray,I
342.0,6.0,2.0,1.0,1.0,1.0,471.45919400009,3.0,1.0,phase_1,,,,,,,,,,,,,blue,cross
312.0,2.0,2.0,0.0,4.0,4.0,406.6869119997136,3.0,1.0,phase_1,,,,,,,,,,,,,green,hexagon
1316.0,8.0,4.0,1.0,1.0,1.0,480.2494060004392,3.0,1.0,phase_1,,,,,,,,,,,,,gray,I
346.0,2.0,2.0,0.0,3.0,3.0,379.2074949997186,3.0,1.0,phase_1,,,,,,,,,,,,,green,hexagon
1296.0,8.0,4.0,1.0,3.0,3.0,444.6469829999842,3.0,1.0,phase_1,,,,,,,,,,,,,gray,I
322.0,6.0,2.0,1.0,4.0,4.0,444.045049000124,3.0,1.0,phase_1,,,,,,,,,,,,,blue,cross
0.0,4.0,0.0,0.0,1.0,1.0,453.4532719999333,3.0,1.0,phase_1,,,,,,,,,,,,,orange,diamond
306.0,2.0,2.0,0.0,1.0,1.0,434.0791909999097,3.0,1.0,phase_1,,,,,,,,,,,,,green,hexagon
674.0,3.0,3.0,0.0,1.0,1.0,397.7743660007036,3.0,1.0,phase_1,,,,,,,,,,,,,yellow,triangle
0.0,5.0,0.0,1.0,2.0,2.0,544.14986699976,3.0,1.0,phase_1,,,,,,,,,,,,,cyan,square
0.0,5.0,0.0,1.0,3.0,3.0,480.7512700008374,3.0,1.0,phase_1,,,,,,,,,,,,,cyan,square
183.0,1.0,1.0,0.0,2.0,2.0,573.3264279997456,3.0,1.0,phase_1,,,,,,,,,,,,,white,circle
653.0,3.0,3.0,0.0,2.0,2.0,437.1379300000626,3.0,1.0,phase_1,,,,,,,,,,,,,yellow,triangle
1304.0,4.0,4.0,0.0,3.0,3.0,436.1729539996304,3.0,1.0,phase_1,,,,,,,,,,,,,orange,diamond
325.0,2.0,2.0,0.0,4.0,4.0,399.7792399995887,3.0,1.0,phase_1,,,,,,,,,,,,,green,hexagon
323.0,6.0,2.0,1.0,4.0,4.0,510.9728779998477,3.0,1.0,phase_1,,,,,,,,,,,,,blue,cross
138.0,5.0,1.0,1.0,2.0,2.0,498.0643429998963,3.0,1.0,phase_1,,,,,,,,,,,,,cyan,square
0.0,5.0,0.0,1.0,2.0,2.0,499.0084339997338,3.0,1.0,phase_1,,,,,,,,,,,,,cyan,square
185.0,1.0,1.0,0.0,2.0,2.0,438.1579830005648,3.0,1.0,phase_1,,,,,,,,,,,,,white,circle
0.0,2.0,0.0,0.0,2.0,2.0,391.4925230001245,3.0,1.0,phase_1,,,,,,,,,,,,,green,hexagon
0.0,3.0,0.0,0.0,1.0,1.0,378.5597050000433,3.0,1.0,phase_1,,,,,,,,,,,,,yellow,triangle
0.0,4.0,0.0,0.0,4.0,4.0,406.5628389998892,3.0,1.0,phase_1,,,,,,,,,,,,,orange,diamond
1317.0,8.0,4.0,1.0,4.0,4.0,518.3722949996081,3.0,1.0,phase_1,,,,,,,,,,,,,gray,I
649.0,7.0,3.0,1.0,4.0,4.0,351.7281460008234,3.0,1.0,phase_1,,,,,,,,,,,,,magenta,flipped triangle
1299.0,8.0,4.0,1.0,2.0,2.0,415.5507669993312,3.0,1.0,phase_1,,,,,,,,,,,,,gray,I
0.0,6.0,0.0,1.0,3.0,3.0,360.863191000135,3.0,1.0,phase_1,,,,,,,,,,,,,blue,cross
0.0,3.0,0.0,0.0,1.0,1.0,400.0417099996411,3.0,1.0,phase_1,,,,,,,,,,,,,yellow,triangle
1296.0,4.0,4.0,0.0,3.0,3.0,369.873231999918,3.0,1.0,phase_1,,,,,,,,,,,,,orange,diamond
655.0,3.0,3.0,0.0,2.0,2.0,444.1055880006388,3.0,1.0,phase_1,,,,,,,,,,,,,yellow,triangle
653.0,7.0,3.0,1.0,3.0,3.0,416.8601569999737,3.0,1.0,phase_1,,,,,,,,,,,,,magenta,flipped triangle
141.0,1.0,1.0,0.0,3.0,3.0,379.6614100001534,3.0,1.0,phase_1,,,,,,,,,,,,,white,circle
185.0,5.0,1.0,1.0,4.0,4.0,438.7107229995308,3.0,1.0,phase_1,,,,,,,,,,,,,cyan,square
326.0,2.0,2.0,0.0,3.0,3.0,388.5023500006355,3.0,1.0,phase_1,,,,,,,,,,,,,green,hexagon
326.0,6.0,2.0,1.0,1.0,1.0,572.4833809999836,3.0,1.0,phase_1,,,,,,,,,,,,,blue,cross
1281.0,4.0,4.0,0.0,2.0,2.0,517.6501220003047,3.0,1.0,phase_1,,,,,,,,,,,,,orange,diamond
1307.0,4.0,4.0,0.0,4.0,4.0,526.4715240000442,3.0,1.0,phase_1,,,,,,,,,,,,,orange,diamond
326.0,6.0,2.0,1.0,4.0,4.0,538.2399919999443,3.0,1.0,phase_1,,,,,,,,,,,,,blue,cross
662.0,7.0,3.0,1.0,4.0,4.0,434.1540199993687,3.0,1.0,phase_1,,,,,,,,,,,,,magenta,flipped triangle
641.0,7.0,3.0,1.0,1.0,1.0,462.5483949994304,3.0,1.0,phase_1,,,,,,,,,,,,,magenta,flipped triangle
179.0,5.0,1.0,1.0,3.0,3.0,396.9983629995113,3.0,1.0,phase_1,,,,,,,,,,,,,cyan,square
157.0,5.0,1.0,1.0,3.0,3.0,351.4304909995189,3.0,1.0,phase_1,,,,,,,,,,,,,cyan,square
670.0,3.0,3.0,0.0,1.0,1.0,516.1655560004874,3.0,1.0,phase_1,,,,,,,,,,,,,yellow,triangle
1313.0,4.0,4.0,0.0,4.0,4.0,461.4888860005521,3.0,1.0,phase_1,,,,,,,,,,,,,orange,diamond
316.0,6.0,2.0,1.0,2.0,2.0,556.3547399997333,3.0,1.0,phase_1,,,,,,,,,,,,,blue,cross
309.0,6.0,2.0,1.0,4.0,4.0,427.196671999809,3.0,1.0,phase_1,,,,,,,,,,,,,blue,cross
1313.0,8.0,4.0,1.0,2.0,2.0,359.9579339997945,3.0,1.0,phase_1,,,,,,,,,,,,,gray,I
152.0,5.0,1.0,1.0,3.0,3.0,342.5006380002742,3.0,1.0,phase_1,,,,,,,,,,,,,cyan,square
0.0,8.0,0.0,1.0,1.0,1.0,425.8657359996505,3.0,1.0,phase_1,,,,,,,,,,,,,gray,I
0.0,6.0,0.0,1.0,4.0,4.0,353.0556820005586,3.0,1.0,phase_1,,,,,,,,,,,,,blue,cross
1313.0,4.0,4.0,0.0,4.0,4.0,399.9097279993293,3.0,1.0,phase_1,,,,,,,,,,,,,orange,diamond
301.0,6.0,2.0,1.0,2.0,2.0,351.2244469993675,3.0,1.0,phase_1,,,,,,,,,,,,,blue,cross
149.0,1.0,1.0,0.0,3.0,3.0,406.63480800049,3.0,1.0,phase_1,,,,,,,,,,,,,white,circle
0.0,2.0,0.0,0.0,4.0,4.0,362.9251809998095,3.0,1.0,phase_1,,,,,,,,,,,,,green,hexagon
665.0,3.0,3.0,0.0,1.0,1.0,370.3127429998858,3.0,1.0,phase_1,,,,,,,,,,,,,yellow,triangle
350.0,2.0,2.0,0.0,1.0,1.0,415.8221859997866,3.0,2.0,phase_1,,,,,,,,,,,,,green,hexagon
178.0,1.0,1.0,0.0,1.0,1.0,407.7964120006072,3.0,1.0,phase_1,,,,,,,,,,,,,white,circle
641.0,3.0,3.0,0.0,4.0,4.0,509.1112140007681,3.0,1.0,phase_1,,,,,,,,,,,,,yellow,triangle
178.0,5.0,1.0,1.0,4.0,4.0,490.6187260003207,3.0,1.0,phase_1,,,,,,,,,,,,,cyan,square
0.0,4.0,0.0,0.0,3.0,3.0,546.8070850001823,3.0,1.0,phase_1,,,,,,,,,,,,,orange,diamond
1275.0,4.0,4.0,0.0,1.0,1.0,768.4427989997857,3.0,1.0,phase_1,,,,,,,,,,,,,orange,diamond
670.0,7.0,3.0,1.0,4.0,4.0,416.2928550003926,3.0,1.0,phase_1,,,,,,,,,,,,,magenta,flipped triangle
649.0,3.0,3.0,0.0,3.0,3.0,453.1259149998732,3.0,1.0,phase_1,,,,,,,,,,,,,yellow,triangle
1296.0,4.0,4.0,0.0,1.0,1.0,723.2261530007236,3.0,1.0,phase_1,,,,,,,,,,,,,orange,diamond
636.0,3.0,3.0,0.0,3.0,3.0,474.2372689997864,3.0,1.0,phase_1,,,,,,,,,,,,,yellow,triangle
170.0,5.0,1.0,1.0,3.0,3.0,527.192243999707,3.0,1.0,phase_1,,,,,,,,,,,,,cyan,square
348.0,6.0,2.0,1.0,3.0,3.0,426.1488590000226,3.0,1.0,phase_1,,,,,,,,,,,,,blue,cross
173.0,5.0,1.0,1.0,2.0,2.0,923.8399549994938,3.0,1.0,phase_1,,,,,,,,,,,,,cyan,square
639.0,7.0,3.0,1.0,2.0,2.0,544.8568189995058,3.0,1.0,phase_1,,,,,,,,,,,,,magenta,flipped triangle
162.0,1.0,1.0,0.0,1.0,1.0,546.7477000001963,3.0,1.0,phase_1,,,,,,,,,,,,,white,circle
1309.0,8.0,4.0,1.0,2.0,2.0,481.185177000043,3.0,1.0,phase_1,,,,,,,,,,,,,gray,I
667.0,7.0,3.0,1.0,1.0,1.0,343.05013599987427,3.0,1.0,phase_1,,,,,,,,,,,,,magenta,flipped triangle
664.0,3.0,3.0,0.0,3.0,3.0,480.7570880002458,3.0,1.0,phase_1,,,,,,,,,,,,,yellow,triangle
0.0,2.0,0.0,0.0,2.0,2.0,813.5579059999145,3.0,1.0,phase_1,,,,,,,,,,,,,green,hexagon
0.0,2.0,0.0,0.0,2.0,2.0,490.4265599998325,3.0,1.0,phase_1,,,,,,,,,,,,,green,hexagon
1282.0,8.0,4.0,1.0,1.0,1.0,435.958173000472,3.0,2.0,phase_1,,,,,,,,,,,,,gray,I
649.0,7.0,3.0,1.0,3.0,3.0,677.2316579999824,3.0,1.0,phase_1,,,,,,,,,,,,,magenta,flipped triangle
0.0,3.0,0.0,0.0,4.0,4.0,573.7964780000766,3.0,1.0,phase_1,,,,,,,,,,,,,yellow,triangle
301.0,6.0,2.0,1.0,1.0,1.0,720.0060010000016,3.0,1.0,phase_1,,,,,,,,,,,,,blue,cross
174.0,5.0,1.0,1.0,1.0,1.0,563.7169349993201,3.0,1.0,phase_1,,,,,,,,,,,,,cyan,square
329.0,6.0,2.0,1.0,1.0,1.0,425.3961499998695,3.0,1.0,phase_1,,,,,,,,,,,,,blue,cross
672.0,7.0,3.0,1.0,2.0,2.0,434.0057759991396,3.0,1.0,phase_1,,,,,,,,,,,,,magenta,flipped triangle
0.0,1.0,0.0,0.0,1.0,1.0,489.70829999962,3.0,1.0,phase_1,,,,,,,,,,,,,white,circle
304.0,6.0,2.0,1.0,2.0,2.0,637.8532600001563,3.0,1.0,phase_1,,,,,,,,,,,,,blue,cross
1304.0,4.0,4.0,0.0,2.0,2.0,444.8960220006484,3.0,1.0,phase_1,,,,,,,,,,,,,orange,diamond
1304.0,8.0,4.0,1.0,2.0,2.0,463.260110000192,3.0,1.0,phase_1,,,,,,,,,,,,,gray,I
667.0,3.0,3.0,0.0,2.0,2.0,416.0771780007053,3.0,1.0,phase_1,,,,,,,,,,,,,yellow,triangle
662.0,7.0,3.0,1.0,2.0,2.0,387.885223000012,3.0,1.0,phase_1,,,,,,,,,,,,,magenta,flipped triangle
333.0,6.0,2.0,1.0,4.0,4.0,507.91868699980114,3.0,1.0,phase_1,,,,,,,,,,,,,blue,cross
1286.0,8.0,4.0,1.0,4.0,4.0,490.3767719997631,3.0,1.0,phase_1,,,,,,,,,,,,,gray,I
1315.0,8.0,4.0,1.0,3.0,3.0,388.9236630002415,3.0,1.0,phase_1,,,,,,,,,,,,,gray,I
184.0,1.0,1.0,0.0,3.0,3.0,342.9597590002231,3.0,1.0,phase_1,,,,,,,,,,,,,white,circle
1305.0,8.0,4.0,1.0,4.0,4.0,369.8065279995717,3.0,1.0,phase_1,,,,,,,,,,,,,gray,I
331.0,6.0,2.0,1.0,1.0,1.0,443.3783829999811,3.0,1.0,phase_1,,,,,,,,,,,,,blue,cross
0.0,4.0,0.0,0.0,3.0,3.0,433.9059710000583,4.0,1.0,phase_1,,,,,,,,,,,,,orange,diamond
1319.0,8.0,4.0,1.0,1.0,1.0,776.4595709995774,4.0,1.0,phase_1,,,,,,,,,,,,,gray,I
326.0,2.0,2.0,0.0,1.0,1.0,435.2920290002657,4.0,1.0,phase_1,,,,,,,,,,,,,green,hexagon
149.0,1.0,1.0,0.0,4.0,4.0,473.1158820004566,4.0,1.0,phase_1,,,,,,,,,,,,,white,circle
315.0,6.0,2.0,1.0,2.0,2.0,804.8217699997622,4.0,1.0,phase_1,,,,,,,,,,,,,blue,cross
1303.0,8.0,4.0,1.0,3.0,3.0,359.8867239998071,4.0,1.0,phase_1,,,,,,,,,,,,,gray,I
344.0,6.0,2.0,1.0,2.0,2.0,545.649788999981,4.0,1.0,phase_1,,,,,,,,,,,,,blue,cross
149.0,5.0,1.0,1.0,3.0,3.0,425.7381530005659,4.0,1.0,phase_1,,,,,,,,,,,,,cyan,square
0.0,5.0,0.0,1.0,3.0,3.0,452.5281810001615,4.0,1.0,phase_1,,,,,,,,,,,,,cyan,square
1286.0,4.0,4.0,0.0,1.0,1.0,591.2785929995152,4.0,1.0,phase_1,,,,,,,,,,,,,orange,diamond
159.0,1.0,1.0,0.0,1.0,1.0,554.7573369995007,4.0,1.0,phase_1,,,,,,,,,,,,,white,circle
636.0,7.0,3.0,1.0,2.0,2.0,574.1336730006878,4.0,1.0,phase_1,,,,,,,,,,,,,magenta,flipped triangle
325.0,6.0,2.0,1.0,3.0,3.0,637.4315279999792,4.0,1.0,phase_1,,,,,,,,,,,,,blue,cross
314.0,2.0,2.0,0.0,3.0,3.0,435.356736000358,4.0,1.0,phase_1,,,,,,,,,,,,,green,hexagon
142.0,1.0,1.0,0.0,4.0,4.0,480.713533999733,4.0,1.0,phase_1,,,,,,,,,,,,,white,circle
627.0,7.0,3.0,1.0,1.0,1.0,398.797089999789,4.0,1.0,phase_1,,,,,,,,,,,,,magenta,flipped triangle
1285.0,4.0,4.0,0.0,2.0,2.0,507.86670700017567,4.0,1.0,phase_1,,,,,,,,,,,,,orange,diamond
160.0,1.0,1.0,0.0,3.0,3.0,480.0170689995866,4.0,1.0,phase_1,,,,,,,,,,,,,white,circle
1315.0,4.0,4.0,0.0,4.0,4.0,436.3674009991882,4.0,1.0,phase_1,,,,,,,,,,,,,orange,diamond
629.0,7.0,3.0,1.0,3.0,3.0,444.5511119993171,4.0,1.0,phase_1,,,,,,,,,,,,,magenta,flipped triangle
318.0,2.0,2.0,0.0,4.0,4.0,489.3956659998366,4.0,1.0,phase_1,,,,,,,,,,,,,green,hexagon
308.0,2.0,2.0,0.0,2.0,2.0,333.2271159997617,4.0,1.0,phase_1,,,,,,,,,,,,,green,hexagon
1319.0,4.0,4.0,0.0,2.0,2.0,453.0530150004779,4.0,1.0,phase_1,,,,,,,,,,,,,orange,diamond
1285.0,4.0,4.0,0.0,1.0,1.0,342.1145219999744,4.0,1.0,phase_1,,,,,,,,,,,,,orange,diamond
349.0,6.0,2.0,1.0,3.0,3.0,434.6043679997819,4.0,1.0,phase_1,,,,,,,,,,,,,blue,cross
310.0,6.0,2.0,1.0,2.0,2.0,360.7319109996751,4.0,1.0,phase_1,,,,,,,,,,,,,blue,cross
673.0,7.0,3.0,1.0,2.0,2.0,424.24264700002817,4.0,1.0,phase_1,,,,,,,,,,,,,magenta,flipped triangle
0.0,8.0,0.0,1.0,2.0,2.0,379.377922000458,4.0,1.0,phase_1,,,,,,,,,,,,,gray,I
1302.0,8.0,4.0,1.0,2.0,2.0,378.6339289999887,4.0,1.0,phase_1,,,,,,,,,,,,,gray,I
157.0,1.0,1.0,0.0,1.0,1.0,664.9525529992388,4.0,1.0,phase_1,,,,,,,,,,,,,white,circle
1311.0,8.0,4.0,1.0,1.0,1.0,415.4590179996376,4.0,1.0,phase_1,,,,,,,,,,,,,gray,I
629.0,3.0,3.0,0.0,4.0,4.0,479.9093780002295,4.0,1.0,phase_1,,,,,,,,,,,,,yellow,triangle
659.0,3.0,3.0,0.0,1.0,1.0,460.3407320000769,4.0,1.0,phase_1,,,,,,,,,,,,,yellow,triangle
634.0,7.0,3.0,1.0,4.0,4.0,470.6943929995759,4.0,1.0,phase_1,,,,,,,,,,,,,magenta,flipped triangle
655.0,7.0,3.0,1.0,4.0,4.0,433.8227520001965,4.0,1.0,phase_1,,,,,,,,,,,,,magenta,flipped triangle
0.0,4.0,0.0,0.0,2.0,2.0,424.56161300015077,4.0,1.0,phase_1,,,,,,,,,,,,,orange,diamond
165.0,1.0,1.0,0.0,2.0,2.0,499.1940189993329,4.0,1.0,phase_1,,,,,,,,,,,,,white,circle
0.0,8.0,0.0,1.0,3.0,3.0,545.4012749996764,4.0,1.0,phase_1,,,,,,,,,,,,,gray,I
0.0,8.0,0.0,1.0,3.0,3.0,379.4311930005278,4.0,1.0,phase_1,,,,,,,,,,,,,gray,I
173.0,1.0,1.0,0.0,4.0,4.0,388.8195060008002,4.0,1.0,phase_1,,,,,,,,,,,,,white,circle
1291.0,8.0,4.0,1.0,3.0,3.0,407.8932570000688,4.0,1.0,phase_1,,,,,,,,,,,,,gray,I
182.0,1.0,1.0,0.0,1.0,1.0,509.5025460004763,4.0,1.0,phase_1,,,,,,,,,,,,,white,circle
306.0,6.0,2.0,1.0,3.0,3.0,414.7751529999368,4.0,1.0,phase_1,,,,,,,,,,,,,blue,cross
656.0,3.0,3.0,0.0,3.0,3.0,360.8951140004137,4.0,1.0,phase_1,,,,,,,,,,,,,yellow,triangle
1317.0,4.0,4.0,0.0,4.0,4.0,453.1829009993089,4.0,1.0,phase_1,,,,,,,,,,,,,orange,diamond
668.0,3.0,3.0,0.0,2.0,2.0,314.1635720003251,4.0,1.0,phase_1,,,,,,,,,,,,,yellow,triangle
0.0,1.0,0.0,0.0,3.0,3.0,417.4667540000882,4.0,1.0,phase_1,,,,,,,,,,,,,white,circle
349.0,2.0,2.0,0.0,3.0,3.0,352.7737869999328,4.0,1.0,phase_1,,,,,,,,,,,,,green,hexagon
634.0,3.0,3.0,0.0,4.0,4.0,565.0139049994323,4.0,1.0,phase_1,,,,,,,,,,,,,yellow,triangle
0.0,4.0,0.0,0.0,4.0,4.0,425.2410779999991,4.0,1.0,phase_1,,,,,,,,,,,,,orange,diamond
0.0,5.0,0.0,1.0,2.0,2.0,562.8040100000362,4.0,1.0,phase_1,,,,,,,,,,,,,cyan,square
0.0,3.0,0.0,0.0,3.0,3.0,389.7428119998949,4.0,1.0,phase_1,,,,,,,,,,,,,yellow,triangle
315.0,2.0,2.0,0.0,4.0,4.0,508.59317100002954,4.0,1.0,phase_1,,,,,,,,,,,,,green,hexagon
167.0,5.0,1.0,1.0,3.0,3.0,489.0804540000317,4.0,1.0,phase_1,,,,,,,,,,,,,cyan,square
658.0,7.0,3.0,1.0,3.0,3.0,434.2780829992989,4.0,1.0,phase_1,,,,,,,,,,,,,magenta,flipped triangle
338.0,6.0,2.0,1.0,3.0,3.0,417.0855880001909,4.0,1.0,phase_1,,,,,,,,,,,,,blue,cross
180.0,1.0,1.0,0.0,4.0,4.0,490.367243000037,4.0,1.0,phase_1,,,,,,,,,,,,,white,circle
642.0,7.0,3.0,1.0,3.0,3.0,398.3924100002696,4.0,1.0,phase_1,,,,,,,,,,,,,magenta,flipped triangle
304.0,2.0,2.0,0.0,3.0,3.0,387.1352500000284,4.0,1.0,phase_1,,,,,,,,,,,,,green,hexagon
0.0,3.0,0.0,0.0,4.0,4.0,425.2340060002098,4.0,1.0,phase_1,,,,,,,,,,,,,yellow,triangle
349.0,2.0,2.0,0.0,2.0,2.0,556.2865450001482,4.0,1.0,phase_1,,,,,,,,,,,,,green,hexagon
160.0,5.0,1.0,1.0,4.0,4.0,453.1461280002986,4.0,1.0,phase_1,,,,,,,,,,,,,cyan,square
346.0,6.0,2.0,1.0,3.0,3.0,361.2093820001973,4.0,1.0,phase_1,,,,,,,,,,,,,blue,cross
0.0,2.0,0.0,0.0,2.0,2.0,592.054509999798,4.0,1.0,phase_1,,,,,,,,,,,,,green,hexagon
147.0,1.0,1.0,0.0,1.0,1.0,379.377664000458,4.0,1.0,phase_1,,,,,,,,,,,,,white,circle
323.0,2.0,2.0,0.0,1.0,1.0,417.4437159999797,4.0,1.0,phase_1,,,,,,,,,,,,,green,hexagon
1280.0,8.0,4.0,1.0,1.0,1.0,425.8300050005346,4.0,1.0,phase_1,,,,,,,,,,,,,gray,I
179.0,1.0,1.0,0.0,1.0,1.0,369.9640340000769,4.0,1.0,phase_1,,,,,,,,,,,,,white,circle
184.0,5.0,1.0,1.0,1.0,1.0,341.9547650000822,4.0,1.0,phase_1,,,,,,,,,,,,,cyan,square
1275.0,4.0,4.0,0.0,1.0,1.0,343.2071570005064,4.0,1.0,phase_1,,,,,,,,,,,,,orange,diamond
312.0,6.0,2.0,1.0,4.0,4.0,499.8010099998282,4.0,1.0,phase_1,,,,,,,,,,,,,blue,cross
0.0,7.0,0.0,1.0,2.0,2.0,370.5202620003547,4.0,1.0,phase_1,,,,,,,,,,,,,magenta,flipped triangle
1282.0,4.0,4.0,0.0,2.0,2.0,343.00101899953,4.0,1.0,phase_1,,,,,,,,,,,,,orange,diamond
662.0,3.0,3.0,0.0,3.0,3.0,527.2092529994552,4.0,1.0,phase_1,,,,,,,,,,,,,yellow,triangle
325.0,6.0,2.0,1.0,3.0,3.0,397.7416039997479,4.0,1.0,phase_1,,,,,,,,,,,,,blue,cross
168.0,1.0,1.0,0.0,1.0,1.0,443.5355049999998,4.0,1.0,phase_1,,,,,,,,,,,,,white,circle
0.0,3.0,0.0,0.0,1.0,1.0,332.998107000094,4.0,1.0,phase_1,,,,,,,,,,,,,yellow,triangle
139.0,1.0,1.0,0.0,4.0,4.0,416.949489000217,4.0,1.0,phase_1,,,,,,,,,,,,,white,circle
0.0,5.0,0.0,1.0,2.0,2.0,379.6715369999219,4.0,1.0,phase_1,,,,,,,,,,,,,cyan,square
625.0,7.0,3.0,1.0,2.0,2.0,369.8976050000055,4.0,1.0,phase_1,,,,,,,,,,,,,magenta,flipped triangle
164.0,5.0,1.0,1.0,1.0,1.0,306.1590160004925,4.0,1.0,phase_1,,,,,,,,,,,,,cyan,square
659.0,7.0,3.0,1.0,2.0,2.0,407.4802859995543,4.0,1.0,phase_1,,,,,,,,,,,,,magenta,flipped triangle
0.0,2.0,0.0,0.0,1.0,1.0,333.6952420004309,4.0,1.0,phase_1,,,,,,,,,,,,,green,hexagon
642.0,7.0,3.0,1.0,1.0,1.0,361.6208189996541,4.0,1.0,phase_1,,,,,,,,,,,,,magenta,flipped triangle
0.0,7.0,0.0,1.0,2.0,2.0,315.3107759999329,4.0,1.0,phase_1,,,,,,,,,,,,,magenta,flipped triangle
159.0,5.0,1.0,1.0,2.0,2.0,361.0047960000884,4.0,1.0,phase_1,,,,,,,,,,,,,cyan,square
348.0,2.0,2.0,0.0,2.0,2.0,314.0701129996159,4.0,1.0,phase_1,,,,,,,,,,,,,green,hexagon
1309.0,4.0,4.0,0.0,3.0,3.0,426.1645550004687,4.0,1.0,phase_1,,,,,,,,,,,,,orange,diamond
654.0,7.0,3.0,1.0,1.0,1.0,676.732199000071,4.0,1.0,phase_1,,,,,,,,,,,,,magenta,flipped triangle
0.0,6.0,0.0,1.0,3.0,3.0,417.6009410002734,4.0,1.0,phase_1,,,,,,,,,,,,,blue,cross
152.0,1.0,1.0,0.0,4.0,4.0,535.5115530001058,4.0,1.0,phase_1,,,,,,,,,,,,,white,circle
626.0,7.0,3.0,1.0,4.0,4.0,416.3950370002567,4.0,1.0,phase_1,,,,,,,,,,,,,magenta,flipped triangle
139.0,5.0,1.0,1.0,4.0,4.0,399.4261529996947,4.0,1.0,phase_1,,,,,,,,,,,,,cyan,square
1287.0,4.0,4.0,0.0,2.0,2.0,399.500972000169,4.0,1.0,phase_1,,,,,,,,,,,,,orange,diamond
157.0,5.0,1.0,1.0,3.0,3.0,461.6882059999625,4.0,1.0,phase_1,,,,,,,,,,,,,cyan,square
0.0,8.0,0.0,1.0,2.0,2.0,582.2915660000945,4.0,1.0,phase_1,,,,,,,,,,,,,gray,I
664.0,7.0,3.0,1.0,3.0,3.0,343.1147089995647,4.0,1.0,phase_1,,,,,,,,,,,,,magenta,flipped triangle
665.0,7.0,3.0,1.0,4.0,4.0,454.6715490005226,4.0,1.0,phase_1,,,,,,,,,,,,,magenta,flipped triangle
348.0,6.0,2.0,1.0,1.0,1.0,462.5435070001913,4.0,1.0,phase_1,,,,,,,,,,,,,blue,cross
0.0,4.0,0.0,0.0,3.0,3.0,434.3948069999896,4.0,1.0,phase_1,,,,,,,,,,,,,orange,diamond
0.0,3.0,3.0,0.0,5.0,5.0,685.0001349994272,1.0,1.0,phase_2,go,250.0,250.0,1.0,,,,,,,,,yellow,triangle
0.0,1.0,1.0,0.0,5.0,5.0,785.7055869999385,1.0,1.0,phase_2,go,250.0,250.0,1.0,,,,,,,,,white,circle
0.0,5.0,1.0,1.0,6.0,0.0,0.0,1.0,1.0,phase_2,stop,250.0,250.0,4.0,,,,,,,,,cyan,square
0.0,2.0,2.0,0.0,6.0,6.0,912.5899870005014,1.0,1.0,phase_2,go,250.0,300.0,1.0,,,,,,,,,green,hexagon
0.0,1.0,1.0,0.0,6.0,6.0,1253.5779029994956,1.0,1.0,phase_2,go,250.0,300.0,1.0,,,,,,,,,white,circle
0.0,6.0,2.0,1.0,6.0,0.0,0.0,1.0,1.0,phase_2,stop,250.0,300.0,4.0,,,,,,,,,blue,cross
0.0,1.0,1.0,0.0,6.0,6.0,810.3112339995278,1.0,1.0,phase_2,go,250.0,350.0,1.0,,,,,,,,,white,circle
0.0,7.0,3.0,1.0,6.0,6.0,849.6023180005068,1.0,1.0,phase_2,go,250.0,350.0,1.0,,,,,,,,,magenta,flipped triangle
0.0,8.0,4.0,1.0,6.0,0.0,0.0,1.0,1.0,phase_2,stop,250.0,350.0,4.0,,,,,,,,,gray,I
0.0,4.0,4.0,0.0,6.0,6.0,1128.1112100004975,1.0,1.0,phase_2,go,250.0,400.0,1.0,,,,,,,,,orange,diamond
0.0,4.0,4.0,0.0,5.0,5.0,1015.1847830002223,1.0,1.0,phase_2,go,250.0,400.0,1.0,,,,,,,,,orange,diamond
0.0,8.0,4.0,1.0,5.0,5.0,1032.9926969998269,1.0,1.0,phase_2,go,250.0,400.0,1.0,,,,,,,,,gray,I
0.0,8.0,4.0,1.0,6.0,6.0,800.2769040003841,1.0,1.0,phase_2,go,250.0,400.0,1.0,,,,,,,,,gray,I
0.0,7.0,3.0,1.0,6.0,0.0,0.0,1.0,1.0,phase_2,stop,250.0,400.0,4.0,,,,,,,,,magenta,flipped triangle
0.0,5.0,1.0,1.0,6.0,0.0,0.0,1.0,1.0,phase_2,stop,250.0,450.0,4.0,,,,,,,,,cyan,square
0.0,4.0,4.0,0.0,5.0,5.0,811.2628340004449,1.0,1.0,phase_2,go,250.0,500.0,1.0,,,,,,,,,orange,diamond
0.0,5.0,1.0,1.0,5.0,0.0,0.0,1.0,1.0,phase_2,stop,250.0,500.0,4.0,,,,,,,,,cyan,square
0.0,2.0,2.0,0.0,5.0,5.0,942.0954269999128,1.0,1.0,phase_2,go,300.0,500.0,1.0,,,,,,,,,green,hexagon
0.0,7.0,3.0,1.0,6.0,0.0,0.0,1.0,1.0,phase_2,stop,300.0,500.0,4.0,,,,,,,,,magenta,flipped triangle
0.0,5.0,1.0,1.0,5.0,5.0,800.3832199992758,1.0,1.0,phase_2,go,300.0,550.0,1.0,,,,,,,,,cyan,square
0.0,7.0,3.0,1.0,5.0,0.0,0.0,1.0,1.0,phase_2,stop,300.0,550.0,4.0,,,,,,,,,magenta,flipped triangle
0.0,7.0,3.0,1.0,5.0,0.0,0.0,1.0,1.0,phase_2,stop,350.0,550.0,4.0,,,,,,,,,magenta,flipped triangle
0.0,1.0,1.0,0.0,5.0,5.0,919.4711999998616,1.0,1.0,phase_2,go,400.0,550.0,1.0,,,,,,,,,white,circle
0.0,8.0,4.0,1.0,5.0,0.0,0.0,1.0,1.0,phase_2,stop,400.0,550.0,4.0,,,,,,,,,gray,I
0.0,6.0,2.0,1.0,5.0,5.0,624.7426480003924,1.0,1.0,phase_2,go,450.0,550.0,1.0,,,,,,,,,blue,cross
0.0,4.0,4.0,0.0,5.0,5.0,707.2432720005963,1.0,1.0,phase_2,go,450.0,550.0,1.0,,,,,,,,,orange,diamond
0.0,4.0,4.0,0.0,5.0,5.0,839.3502910003008,1.0,1.0,phase_2,go,450.0,550.0,1.0,,,,,,,,,orange,diamond
0.0,8.0,4.0,1.0,5.0,0.0,0.0,1.0,1.0,phase_2,stop,450.0,550.0,4.0,,,,,,,,,gray,I
0.0,3.0,3.0,0.0,5.0,5.0,737.8011989994775,1.0,1.0,phase_2,go,500.0,550.0,1.0,,,,,,,,,yellow,triangle
0.0,1.0,1.0,0.0,6.0,6.0,707.2343879999607,1.0,1.0,phase_2,go,500.0,550.0,1.0,,,,,,,,,white,circle
0.0,8.0,4.0,1.0,5.0,0.0,0.0,1.0,1.0,phase_2,stop,500.0,550.0,4.0,,,,,,,,,gray,I
0.0,2.0,2.0,0.0,6.0,6.0,523.2652290005717,1.0,1.0,phase_2,go,550.0,550.0,1.0,,,,,,,,,green,hexagon
0.0,1.0,1.0,0.0,5.0,5.0,604.9764909994337,1.0,1.0,phase_2,go,550.0,550.0,1.0,,,,,,,,,white,circle
0.0,6.0,2.0,1.0,6.0,6.0,680.688845000077,1.0,1.0,phase_2,stop,550.0,550.0,3.0,,,,,,,,,blue,cross
0.0,7.0,3.0,1.0,5.0,0.0,0.0,1.0,1.0,phase_2,stop,550.0,500.0,4.0,,,,,,,,,magenta,flipped triangle
0.0,8.0,4.0,1.0,5.0,5.0,922.0639779996418,1.0,1.0,phase_2,go,600.0,500.0,1.0,,,,,,,,,gray,I
0.0,1.0,1.0,0.0,6.0,6.0,598.0328469995584,2.0,1.0,phase_2,go,600.0,500.0,1.0,,,,,,,,,white,circle
0.0,7.0,3.0,1.0,6.0,6.0,717.6558420005676,2.0,1.0,phase_2,go,600.0,500.0,1.0,,,,,,,,,magenta,flipped triangle
0.0,2.0,2.0,0.0,6.0,6.0,869.9168930006635,2.0,1.0,phase_2,go,600.0,500.0,1.0,,,,,,,,,green,hexagon
0.0,1.0,1.0,0.0,5.0,5.0,929.6806040001684,2.0,1.0,phase_2,go,600.0,500.0,1.0,,,,,,,,,white,circle
0.0,1.0,1.0,0.0,6.0,6.0,736.340325999663,2.0,1.0,phase_2,go,600.0,500.0,1.0,,,,,,,,,white,circle
0.0,5.0,1.0,1.0,5.0,5.0,497.1417809992999,2.0,1.0,phase_2,stop,600.0,500.0,3.0,,,,,,,,,cyan,square
0.0,4.0,4.0,0.0,6.0,6.0,513.3285249994515,2.0,1.0,phase_2,go,550.0,500.0,1.0,,,,,,,,,orange,diamond
0.0,4.0,4.0,0.0,6.0,6.0,727.1898239996517,2.0,1.0,phase_2,go,550.0,500.0,1.0,,,,,,,,,orange,diamond
0.0,8.0,4.0,1.0,6.0,0.0,0.0,2.0,1.0,phase_2,stop,550.0,500.0,4.0,,,,,,,,,gray,I
0.0,8.0,4.0,1.0,6.0,6.0,668.7690469998415,2.0,1.0,phase_2,stop,550.0,550.0,3.0,,,,,,,,,gray,I
0.0,5.0,1.0,1.0,5.0,0.0,0.0,2.0,1.0,phase_2,stop,550.0,500.0,4.0,,,,,,,,,cyan,square
0.0,1.0,1.0,0.0,6.0,6.0,889.4706130004124,2.0,1.0,phase_2,go,600.0,500.0,1.0,,,,,,,,,white,circle
0.0,2.0,2.0,0.0,5.0,5.0,912.8870079994158,2.0,1.0,phase_2,go,600.0,500.0,1.0,,,,,,,,,green,hexagon
0.0,5.0,1.0,1.0,6.0,0.0,0.0,2.0,1.0,phase_2,stop,600.0,500.0,4.0,,,,,,,,,cyan,square
0.0,4.0,4.0,0.0,5.0,5.0,775.9669290007878,2.0,1.0,phase_2,go,600.0,550.0,1.0,,,,,,,,,orange,diamond
0.0,2.0,2.0,0.0,6.0,6.0,830.5175220002639,2.0,1.0,phase_2,go,600.0,550.0,1.0,,,,,,,,,green,hexagon
0.0,6.0,2.0,1.0,6.0,6.0,997.599431000708,2.0,1.0,phase_2,go,600.0,550.0,1.0,,,,,,,,,blue,cross
0.0,6.0,2.0,1.0,5.0,5.0,768.0115260000093,2.0,1.0,phase_2,stop,600.0,550.0,3.0,,,,,,,,,blue,cross
0.0,6.0,2.0,1.0,6.0,0.0,0.0,2.0,1.0,phase_2,stop,550.0,550.0,4.0,,,,,,,,,blue,cross
0.0,3.0,3.0,0.0,6.0,6.0,671.4240849996713,2.0,1.0,phase_2,go,550.0,600.0,1.0,,,,,,,,,yellow,triangle
0.0,4.0,4.0,0.0,6.0,6.0,958.2573800007594,2.0,1.0,phase_2,go,550.0,600.0,1.0,,,,,,,,,orange,diamond
0.0,2.0,2.0,0.0,5.0,5.0,708.2777619998524,2.0,1.0,phase_2,go,550.0,600.0,1.0,,,,,,,,,green,hexagon
0.0,5.0,1.0,1.0,6.0,6.0,363.8878080000722,2.0,1.0,phase_2,stop,550.0,600.0,3.0,,,,,,,,,cyan,square
0.0,5.0,1.0,1.0,6.0,0.0,0.0,2.0,1.0,phase_2,stop,550.0,550.0,4.0,,,,,,,,,cyan,square
0.0,2.0,2.0,0.0,5.0,5.0,838.607370000318,2.0,1.0,phase_2,go,550.0,600.0,1.0,,,,,,,,,green,hexagon
0.0,6.0,2.0,1.0,6.0,0.0,0.0,2.0,1.0,phase_2,stop,550.0,600.0,4.0,,,,,,,,,blue,cross
0.0,3.0,3.0,0.0,6.0,6.0,930.5248909995498,2.0,1.0,phase_2,go,550.0,650.0,1.0,,,,,,,,,yellow,triangle
0.0,4.0,4.0,0.0,6.0,6.0,996.7170549998629,2.0,1.0,phase_2,go,550.0,650.0,1.0,,,,,,,,,orange,diamond
0.0,5.0,1.0,1.0,5.0,0.0,0.0,2.0,1.0,phase_2,stop,550.0,650.0,4.0,,,,,,,,,cyan,square
0.0,6.0,2.0,1.0,6.0,6.0,846.3628790004805,2.0,1.0,phase_2,go,600.0,650.0,1.0,,,,,,,,,blue,cross
0.0,3.0,3.0,0.0,5.0,5.0,717.1334750000824,2.0,1.0,phase_2,go,600.0,650.0,1.0,,,,,,,,,yellow,triangle
0.0,6.0,2.0,1.0,5.0,0.0,0.0,2.0,1.0,phase_2,stop,600.0,650.0,4.0,,,,,,,,,blue,cross
0.0,7.0,3.0,1.0,6.0,6.0,672.6254260001951,2.0,1.0,phase_2,go,650.0,650.0,1.0,,,,,,,,,magenta,flipped triangle
0.0,5.0,1.0,1.0,6.0,0.0,0.0,2.0,1.0,phase_2,stop,650.0,650.0,4.0,,,,,,,,,cyan,square
0.0,2.0,2.0,0.0,5.0,5.0,923.849550000341,2.0,1.0,phase_2,go,650.0,700.0,1.0,,,,,,,,,green,hexagon
0.0,3.0,3.0,0.0,6.0,6.0,804.1459229998509,2.0,1.0,phase_2,go,650.0,700.0,1.0,,,,,,,,,yellow,triangle
0.0,5.0,1.0,1.0,6.0,6.0,457.3847579995345,3.0,1.0,phase_2,stop,650.0,700.0,3.0,,,,,,,,,cyan,square
0.0,2.0,2.0,0.0,5.0,5.0,856.5216750002946,3.0,1.0,phase_2,go,650.0,650.0,1.0,,,,,,,,,green,hexagon
0.0,6.0,2.0,1.0,5.0,0.0,0.0,3.0,1.0,phase_2,stop,650.0,650.0,4.0,,,,,,,,,blue,cross
0.0,8.0,4.0,1.0,5.0,5.0,739.1931570000452,3.0,1.0,phase_2,stop,700.0,650.0,3.0,,,,,,,,,gray,I
0.0,2.0,2.0,0.0,6.0,6.0,959.2176909991394,3.0,1.0,phase_2,go,650.0,650.0,1.0,,,,,,,,,green,hexagon
0.0,3.0,3.0,0.0,5.0,5.0,839.0966890001437,3.0,1.0,phase_2,go,650.0,650.0,1.0,,,,,,,,,yellow,triangle
0.0,6.0,2.0,1.0,5.0,5.0,1213.6115290004454,3.0,1.0,phase_2,go,650.0,650.0,1.0,,,,,,,,,blue,cross
0.0,3.0,3.0,0.0,6.0,6.0,1050.7729190003374,3.0,1.0,phase_2,go,650.0,650.0,1.0,,,,,,,,,yellow,triangle
0.0,8.0,4.0,1.0,5.0,0.0,0.0,3.0,1.0,phase_2,stop,650.0,650.0,4.0,,,,,,,,,gray,I
0.0,1.0,1.0,0.0,5.0,5.0,958.3569060005176,3.0,1.0,phase_2,go,700.0,650.0,1.0,,,,,,,,,white,circle
0.0,4.0,4.0,0.0,5.0,5.0,829.4537459996718,3.0,1.0,phase_2,go,700.0,650.0,1.0,,,,,,,,,orange,diamond
0.0,3.0,3.0,0.0,5.0,5.0,373.7713789996633,3.0,1.0,phase_2,go,700.0,650.0,1.0,,,,,,,,,yellow,triangle
0.0,6.0,2.0,1.0,5.0,5.0,838.1946230001631,3.0,1.0,phase_2,stop,700.0,650.0,3.0,,,,,,,,,blue,cross
0.0,6.0,2.0,1.0,6.0,0.0,0.0,3.0,1.0,phase_2,stop,650.0,650.0,4.0,,,,,,,,,blue,cross
0.0,5.0,1.0,1.0,5.0,5.0,1162.9350729999717,3.0,1.0,phase_2,go,650.0,700.0,1.0,,,,,,,,,cyan,square
0.0,6.0,2.0,1.0,6.0,0.0,0.0,3.0,1.0,phase_2,stop,650.0,700.0,4.0,,,,,,,,,blue,cross
0.0,3.0,3.0,0.0,5.0,5.0,921.012052000151,3.0,1.0,phase_2,go,650.0,750.0,1.0,,,,,,,,,yellow,triangle
0.0,3.0,3.0,0.0,6.0,6.0,1015.0861559995974,3.0,1.0,phase_2,go,650.0,750.0,1.0,,,,,,,,,yellow,triangle
0.0,5.0,1.0,1.0,6.0,0.0,0.0,3.0,1.0,phase_2,stop,650.0,750.0,4.0,,,,,,,,,cyan,square
0.0,3.0,3.0,0.0,6.0,6.0,883.9735580004344,3.0,1.0,phase_2,go,650.0,800.0,1.0,,,,,,,,,yellow,triangle
0.0,8.0,4.0,1.0,6.0,0.0,0.0,3.0,1.0,phase_2,stop,650.0,800.0,4.0,,,,,,,,,gray,I
0.0,6.0,2.0,1.0,5.0,0.0,0.0,3.0,1.0,phase_2,stop,650.0,850.0,4.0,,,,,,,,,blue,cross
0.0,4.0,4.0,0.0,5.0,5.0,653.5032849997151,3.0,1.0,phase_2,go,700.0,850.0,1.0,,,,,,,,,orange,diamond
0.0,8.0,4.0,1.0,6.0,6.0,1173.1794289999016,3.0,1.0,phase_2,go,700.0,850.0,1.0,,,,,,,,,gray,I
0.0,1.0,1.0,0.0,6.0,6.0,604.9092520006525,3.0,1.0,phase_2,go,700.0,850.0,1.0,,,,,,,,,white,circle
0.0,7.0,3.0,1.0,6.0,6.0,839.6544939996602,3.0,1.0,phase_2,stop,700.0,850.0,3.0,,,,,,,,,magenta,flipped triangle
0.0,5.0,1.0,1.0,6.0,0.0,0.0,3.0,1.0,phase_2,stop,700.0,800.0,4.0,,,,,,,,,cyan,square
0.0,8.0,4.0,1.0,6.0,0.0,0.0,3.0,1.0,phase_2,stop,700.0,850.0,4.0,,,,,,,,,gray,I
0.0,1.0,1.0,0.0,6.0,6.0,690.0845740001387,3.0,1.0,phase_2,go,700.0,900.0,1.0,,,,,,,,,white,circle
0.0,6.0,2.0,1.0,6.0,0.0,0.0,3.0,1.0,phase_2,stop,700.0,900.0,4.0,,,,,,,,,blue,cross
0.0,6.0,2.0,1.0,6.0,0.0,0.0,3.0,1.0,phase_2,go,700.0,950.0,5.0,,,,,,,,,blue,cross
0.0,1.0,1.0,0.0,5.0,5.0,858.355438000217,3.0,1.0,phase_2,go,700.0,950.0,1.0,,,,,,,,,white,circle
0.0,8.0,4.0,1.0,6.0,0.0,0.0,3.0,1.0,phase_2,stop,700.0,950.0,4.0,,,,,,,,,gray,I
0.0,2.0,2.0,0.0,6.0,6.0,633.6245039992718,3.0,1.0,phase_2,go,700.0,1000.0,1.0,,,,,,,,,green,hexagon
0.0,2.0,2.0,0.0,5.0,5.0,1306.064301999868,3.0,1.0,phase_2,go,700.0,1000.0,1.0,,,,,,,,,green,hexagon
0.0,2.0,2.0,0.0,5.0,5.0,1009.1456110003492,3.0,1.0,phase_2,go,700.0,1000.0,1.0,,,,,,,,,green,hexagon
0.0,8.0,4.0,1.0,5.0,5.0,418.7259640002594,4.0,1.0,phase_2,stop,700.0,1000.0,3.0,,,,,,,,,gray,I
0.0,7.0,3.0,1.0,5.0,0.0,0.0,4.0,1.0,phase_2,stop,650.0,1000.0,4.0,,,,,,,,,magenta,flipped triangle
0.0,4.0,4.0,0.0,6.0,6.0,914.1369810004109,4.0,1.0,phase_2,go,700.0,1000.0,1.0,,,,,,,,,orange,diamond
0.0,3.0,3.0,0.0,5.0,5.0,784.0664989998913,4.0,1.0,phase_2,go,700.0,1000.0,1.0,,,,,,,,,yellow,triangle
0.0,8.0,4.0,1.0,6.0,6.0,952.036390000103,4.0,1.0,phase_2,stop,700.0,1000.0,3.0,,,,,,,,,gray,I
0.0,7.0,3.0,1.0,5.0,5.0,932.6762279997638,4.0,1.0,phase_2,go,700.0,950.0,1.0,,,,,,,,,magenta,flipped triangle
0.0,3.0,3.0,0.0,5.0,5.0,1011.3682870005505,4.0,1.0,phase_2,go,700.0,950.0,1.0,,,,,,,,,yellow,triangle
0.0,6.0,2.0,1.0,5.0,0.0,0.0,4.0,1.0,phase_2,stop,700.0,950.0,4.0,,,,,,,,,blue,cross
0.0,2.0,2.0,0.0,6.0,6.0,865.5667190005261,4.0,1.0,phase_2,go,750.0,950.0,1.0,,,,,,,,,green,hexagon
0.0,4.0,4.0,0.0,5.0,5.0,929.155830000127,4.0,1.0,phase_2,go,750.0,950.0,1.0,,,,,,,,,orange,diamond
0.0,1.0,1.0,0.0,6.0,6.0,996.263569999428,4.0,1.0,phase_2,go,750.0,950.0,1.0,,,,,,,,,white,circle
0.0,1.0,1.0,0.0,6.0,6.0,596.5443279992542,4.0,1.0,phase_2,go,750.0,950.0,1.0,,,,,,,,,white,circle
0.0,3.0,3.0,0.0,5.0,5.0,762.3792599997614,4.0,1.0,phase_2,go,750.0,950.0,1.0,,,,,,,,,yellow,triangle
0.0,7.0,3.0,1.0,6.0,6.0,903.6399260003236,4.0,1.0,phase_2,stop,750.0,950.0,3.0,,,,,,,,,magenta,flipped triangle
0.0,8.0,4.0,1.0,5.0,0.0,0.0,4.0,1.0,phase_2,stop,750.0,900.0,4.0,,,,,,,,,gray,I
0.0,3.0,3.0,0.0,5.0,5.0,752.5281779999204,4.0,1.0,phase_2,go,800.0,900.0,1.0,,,,,,,,,yellow,triangle
0.0,5.0,1.0,1.0,5.0,0.0,0.0,4.0,1.0,phase_2,stop,800.0,900.0,4.0,,,,,,,,,cyan,square
0.0,8.0,4.0,1.0,5.0,0.0,0.0,4.0,1.0,phase_2,stop,850.0,900.0,4.0,,,,,,,,,gray,I
0.0,7.0,3.0,1.0,6.0,6.0,864.1295919996992,4.0,1.0,phase_2,stop,900.0,900.0,3.0,,,,,,,,,magenta,flipped triangle
0.0,3.0,3.0,0.0,5.0,5.0,556.8679859998156,4.0,1.0,phase_2,go,900.0,850.0,1.0,,,,,,,,,yellow,triangle
0.0,7.0,3.0,1.0,6.0,0.0,0.0,4.0,1.0,phase_2,stop,900.0,850.0,4.0,,,,,,,,,magenta,flipped triangle
0.0,8.0,4.0,1.0,6.0,0.0,0.0,4.0,1.0,phase_2,stop,900.0,900.0,4.0,,,,,,,,,gray,I
0.0,7.0,3.0,1.0,5.0,0.0,0.0,4.0,1.0,phase_2,stop,900.0,950.0,4.0,,,,,,,,,magenta,flipped triangle
0.0,2.0,2.0,0.0,6.0,6.0,584.7045259997685,4.0,1.0,phase_2,go,950.0,950.0,1.0,,,,,,,,,green,hexagon
0.0,4.0,4.0,0.0,6.0,6.0,520.7003340001393,4.0,1.0,phase_2,go,950.0,950.0,1.0,,,,,,,,,orange,diamond
0.0,3.0,3.0,0.0,6.0,6.0,677.9784269992888,4.0,1.0,phase_2,go,950.0,950.0,1.0,,,,,,,,,yellow,triangle
0.0,5.0,1.0,1.0,5.0,0.0,0.0,4.0,1.0,phase_2,stop,950.0,950.0,4.0,,,,,,,,,cyan,square
0.0,4.0,4.0,0.0,6.0,6.0,708.7404750000132,4.0,1.0,phase_2,go,1000.0,950.0,1.0,,,,,,,,,orange,diamond
0.0,1.0,1.0,0.0,6.0,6.0,540.7888159998038,4.0,1.0,phase_2,go,1000.0,950.0,1.0,,,,,,,,,white,circle
0.0,6.0,2.0,1.0,5.0,0.0,0.0,4.0,1.0,phase_2,go,1000.0,950.0,5.0,,,,,,,,,blue,cross
0.0,4.0,4.0,0.0,6.0,6.0,1114.760276000197,4.0,1.0,phase_2,go,1000.0,950.0,1.0,,,,,,,,,orange,diamond
0.0,1.0,1.0,0.0,6.0,6.0,549.0874349998194,4.0,1.0,phase_2,go,1000.0,950.0,1.0,,,,,,,,,white,circle
0.0,7.0,3.0,1.0,5.0,5.0,521.6717309995147,4.0,1.0,phase_2,stop,1000.0,950.0,3.0,,,,,,,,,magenta,flipped triangle
0.0,7.0,3.0,1.0,5.0,0.0,0.0,4.0,1.0,phase_2,stop,950.0,950.0,4.0,,,,,,,,,magenta,flipped triangle
0.0,3.0,3.0,0.0,6.0,6.0,867.7653860004284,4.0,1.0,phase_2,go,1000.0,950.0,1.0,,,,,,,,,yellow,triangle
0.0,3.0,3.0,0.0,6.0,6.0,678.1708799999251,4.0,1.0,phase_2,go,1000.0,950.0,1.0,,,,,,,,,yellow,triangle
0.0,8.0,4.0,1.0,6.0,6.0,551.3959040008558,5.0,1.0,phase_2,stop,1000.0,950.0,3.0,,,,,,,,,gray,I
0.0,2.0,2.0,0.0,6.0,6.0,811.8904289995044,5.0,1.0,phase_2,go,1000.0,900.0,1.0,,,,,,,,,green,hexagon
0.0,7.0,3.0,1.0,5.0,0.0,0.0,5.0,1.0,phase_2,stop,1000.0,900.0,4.0,,,,,,,,,magenta,flipped triangle
0.0,2.0,2.0,0.0,5.0,5.0,615.5561939995096,5.0,1.0,phase_2,go,1050.0,900.0,1.0,,,,,,,,,green,hexagon
0.0,5.0,1.0,1.0,5.0,0.0,0.0,5.0,1.0,phase_2,stop,1050.0,900.0,4.0,,,,,,,,,cyan,square
0.0,1.0,1.0,0.0,5.0,5.0,504.2168319996563,5.0,1.0,phase_2,go,1100.0,900.0,1.0,,,,,,,,,white,circle
0.0,4.0,4.0,0.0,6.0,6.0,436.0908589997052,5.0,1.0,phase_2,go,1100.0,900.0,1.0,,,,,,,,,orange,diamond
0.0,2.0,2.0,0.0,5.0,5.0,762.2399309993853,5.0,1.0,phase_2,go,1100.0,900.0,1.0,,,,,,,,,green,hexagon
0.0,5.0,1.0,1.0,6.0,0.0,0.0,5.0,1.0,phase_2,stop,1100.0,900.0,4.0,,,,,,,,,cyan,square
0.0,8.0,4.0,1.0,6.0,0.0,0.0,5.0,1.0,phase_2,stop,1100.0,950.0,4.0,,,,,,,,,gray,I
0.0,6.0,2.0,1.0,6.0,0.0,0.0,5.0,1.0,phase_2,stop,1100.0,1000.0,4.0,,,,,,,,,blue,cross
0.0,4.0,4.0,0.0,6.0,6.0,763.6165789999723,5.0,1.0,phase_2,go,1100.0,1050.0,1.0,,,,,,,,,orange,diamond
0.0,5.0,1.0,1.0,5.0,0.0,0.0,5.0,1.0,phase_2,stop,1100.0,1050.0,4.0,,,,,,,,,cyan,square
0.0,3.0,3.0,0.0,5.0,5.0,587.55449399996,5.0,1.0,phase_2,go,1150.0,1050.0,1.0,,,,,,,,,yellow,triangle
0.0,5.0,1.0,1.0,5.0,0.0,0.0,5.0,1.0,phase_2,stop,1150.0,1050.0,4.0,,,,,,,,,cyan,square
0.0,4.0,4.0,0.0,5.0,5.0,539.2765549995602,5.0,1.0,phase_2,go,1200.0,1050.0,1.0,,,,,,,,,orange,diamond
0.0,8.0,4.0,1.0,5.0,0.0,0.0,5.0,1.0,phase_2,go,1200.0,1050.0,5.0,,,,,,,,,gray,I
0.0,7.0,3.0,1.0,6.0,6.0,458.5480240002653,5.0,1.0,phase_2,stop,1200.0,1050.0,3.0,,,,,,,,,magenta,flipped triangle
0.0,2.0,2.0,0.0,5.0,5.0,511.04413899975043,5.0,1.0,phase_2,go,1200.0,1000.0,1.0,,,,,,,,,green,hexagon
0.0,2.0,2.0,0.0,6.0,6.0,428.6959450000722,5.0,1.0,phase_2,go,1200.0,1000.0,1.0,,,,,,,,,green,hexagon
0.0,7.0,3.0,1.0,6.0,6.0,1193.1467640006304,5.0,1.0,phase_2,go,1200.0,1000.0,1.0,,,,,,,,,magenta,flipped triangle
0.0,1.0,1.0,0.0,6.0,6.0,521.471090999512,5.0,1.0,phase_2,go,1200.0,1000.0,1.0,,,,,,,,,white,circle
0.0,3.0,3.0,0.0,6.0,6.0,651.8047869994916,5.0,1.0,phase_2,go,1200.0,1000.0,1.0,,,,,,,,,yellow,triangle
0.0,1.0,1.0,0.0,6.0,6.0,438.1797260002713,5.0,1.0,phase_2,go,1200.0,1000.0,1.0,,,,,,,,,white,circle
0.0,5.0,1.0,1.0,5.0,5.0,1145.569203999912,5.0,1.0,phase_2,stop,1200.0,1000.0,3.0,,,,,,,,,cyan,square
0.0,8.0,4.0,1.0,6.0,0.0,0.0,5.0,1.0,phase_2,stop,1150.0,1000.0,4.0,,,,,,,,,gray,I
0.0,1.0,1.0,0.0,6.0,6.0,531.1958760003108,5.0,1.0,phase_2,go,1150.0,1050.0,1.0,,,,,,,,,white,circle
0.0,8.0,4.0,1.0,5.0,0.0,0.0,5.0,1.0,phase_2,stop,1150.0,1050.0,4.0,,,,,,,,,gray,I
0.0,3.0,3.0,0.0,6.0,6.0,671.0351689998788,5.0,1.0,phase_2,go,1200.0,1050.0,1.0,,,,,,,,,yellow,triangle
0.0,5.0,1.0,1.0,5.0,0.0,0.0,5.0,1.0,phase_2,stop,1200.0,1050.0,4.0,,,,,,,,,cyan,square
0.0,6.0,2.0,1.0,6.0,0.0,0.0,5.0,1.0,phase_2,go,1250.0,1050.0,5.0,,,,,,,,,blue,cross
0.0,7.0,3.0,1.0,5.0,5.0,1325.524163999944,5.0,1.0,phase_2,stop,1250.0,1050.0,3.0,,,,,,,,,magenta,flipped triangle
0.0,3.0,3.0,0.0,5.0,5.0,540.1491010006794,5.0,1.0,phase_2,go,1200.0,1050.0,1.0,,,,,,,,,yellow,triangle
0.0,2.0,2.0,0.0,5.0,5.0,466.8162369998754,5.0,1.0,phase_2,go,1200.0,1050.0,1.0,,,,,,,,,green,hexagon
0.0,5.0,1.0,1.0,6.0,0.0,0.0,5.0,1.0,phase_2,go,1200.0,1050.0,5.0,,,,,,,,,cyan,square
0.0,6.0,2.0,1.0,6.0,6.0,1169.1912779997438,5.0,1.0,phase_2,stop,1200.0,1050.0,3.0,,,,,,,,,blue,cross
0.0,7.0,3.0,1.0,5.0,5.0,664.657864000219,6.0,1.0,phase_2,stop,1200.0,1000.0,3.0,,,,,,,,,magenta,flipped triangle
0.0,1.0,1.0,0.0,5.0,5.0,605.5983500000366,6.0,1.0,phase_2,go,1150.0,1000.0,1.0,,,,,,,,,white,circle
0.0,1.0,1.0,0.0,6.0,6.0,428.869762999966,6.0,1.0,phase_2,go,1150.0,1000.0,1.0,,,,,,,,,white,circle
0.0,4.0,4.0,0.0,6.0,6.0,596.4535650000471,6.0,1.0,phase_2,go,1150.0,1000.0,1.0,,,,,,,,,orange,diamond
0.0,4.0,4.0,0.0,5.0,5.0,441.4151519995357,6.0,1.0,phase_2,go,1150.0,1000.0,1.0,,,,,,,,,orange,diamond
0.0,8.0,4.0,1.0,5.0,5.0,1296.1294180004188,6.0,1.0,phase_2,go,1150.0,1000.0,1.0,,,,,,,,,gray,I
0.0,6.0,2.0,1.0,6.0,6.0,1311.3174059999435,6.0,1.0,phase_2,go,1150.0,1000.0,1.0,,,,,,,,,blue,cross
0.0,6.0,2.0,1.0,6.0,6.0,874.4570279995969,6.0,1.0,phase_2,stop,1150.0,1000.0,3.0,,,,,,,,,blue,cross
0.0,1.0,1.0,0.0,5.0,5.0,632.062393000524,6.0,1.0,phase_2,go,1150.0,950.0,1.0,,,,,,,,,white,circle
0.0,7.0,3.0,1.0,5.0,0.0,0.0,6.0,1.0,phase_2,stop,1150.0,950.0,4.0,,,,,,,,,magenta,flipped triangle
0.0,7.0,3.0,1.0,6.0,0.0,0.0,6.0,1.0,phase_2,stop,1200.0,950.0,4.0,,,,,,,,,magenta,flipped triangle
0.0,2.0,2.0,0.0,5.0,5.0,530.1121239999702,6.0,1.0,phase_2,go,1200.0,1000.0,1.0,,,,,,,,,green,hexagon
0.0,3.0,3.0,0.0,5.0,5.0,417.4002269992343,6.0,1.0,phase_2,go,1200.0,1000.0,1.0,,,,,,,,,yellow,triangle
0.0,8.0,4.0,1.0,5.0,5.0,1345.6996380000421,6.0,1.0,phase_2,stop,1200.0,1000.0,3.0,,,,,,,,,gray,I
0.0,7.0,3.0,1.0,5.0,0.0,0.0,6.0,1.0,phase_2,stop,1150.0,1000.0,4.0,,,,,,,,,magenta,flipped triangle
0.0,7.0,3.0,1.0,5.0,0.0,0.0,6.0,1.0,phase_2,go,1200.0,1000.0,5.0,,,,,,,,,magenta,flipped triangle
0.0,4.0,4.0,0.0,6.0,6.0,668.8739740002347,6.0,1.0,phase_2,go,1200.0,1000.0,1.0,,,,,,,,,orange,diamond
0.0,3.0,3.0,0.0,5.0,5.0,531.9115890006287,6.0,1.0,phase_2,go,1200.0,1000.0,1.0,,,,,,,,,yellow,triangle
0.0,3.0,3.0,0.0,6.0,6.0,372.9337770000711,6.0,1.0,phase_2,go,1200.0,1000.0,1.0,,,,,,,,,yellow,triangle
0.0,4.0,4.0,0.0,5.0,5.0,355.1071159999992,6.0,1.0,phase_2,go,1200.0,1000.0,1.0,,,,,,,,,orange,diamond
0.0,3.0,3.0,0.0,6.0,6.0,474.9077420001413,6.0,1.0,phase_2,go,1200.0,1000.0,1.0,,,,,,,,,yellow,triangle
0.0,3.0,3.0,0.0,6.0,6.0,354.1110189999017,6.0,1.0,phase_2,go,1200.0,1000.0,1.0,,,,,,,,,yellow,triangle
0.0,7.0,3.0,1.0,6.0,0.0,0.0,6.0,1.0,phase_2,stop,1200.0,1000.0,4.0,,,,,,,,,magenta,flipped triangle
0.0,2.0,2.0,0.0,5.0,5.0,531.4713340003436,6.0,1.0,phase_2,go,1200.0,1050.0,1.0,,,,,,,,,green,hexagon
0.0,7.0,3.0,1.0,6.0,6.0,1236.8528389997664,6.0,1.0,phase_2,go,1200.0,1050.0,1.0,,,,,,,,,magenta,flipped triangle
0.0,2.0,2.0,0.0,6.0,6.0,511.8531090001852,6.0,1.0,phase_2,go,1200.0,1050.0,1.0,,,,,,,,,green,hexagon
0.0,4.0,4.0,0.0,6.0,6.0,411.003069999424,6.0,1.0,phase_2,go,1200.0,1050.0,1.0,,,,,,,,,orange,diamond
0.0,5.0,1.0,1.0,6.0,0.0,0.0,6.0,1.0,phase_2,stop,1200.0,1050.0,4.0,,,,,,,,,cyan,square
0.0,7.0,3.0,1.0,5.0,0.0,0.0,6.0,1.0,phase_2,go,1200.0,1100.0,5.0,,,,,,,,,magenta,flipped triangle
0.0,4.0,4.0,0.0,5.0,5.0,436.5470020002249,6.0,1.0,phase_2,go,1200.0,1100.0,1.0,,,,,,,,,orange,diamond
0.0,5.0,1.0,1.0,6.0,6.0,1141.8471010001667,6.0,1.0,phase_2,stop,1200.0,1100.0,3.0,,,,,,,,,cyan,square
0.0,1.0,1.0,0.0,5.0,5.0,510.71406200026104,6.0,1.0,phase_2,go,1200.0,1050.0,1.0,,,,,,,,,white,circle
0.0,5.0,1.0,1.0,5.0,0.0,0.0,6.0,1.0,phase_2,stop,1200.0,1050.0,4.0,,,,,,,,,cyan,square
0.0,5.0,1.0,1.0,6.0,0.0,0.0,6.0,1.0,phase_2,go,1250.0,1050.0,5.0,,,,,,,,,cyan,square
0.0,4.0,4.0,0.0,5.0,5.0,475.3526690001308,6.0,1.0,phase_2,go,1250.0,1050.0,1.0,,,,,,,,,orange,diamond
0.0,5.0,1.0,1.0,5.0,5.0,1207.7604660007637,6.0,1.0,phase_2,stop,1250.0,1050.0,3.0,,,,,,,,,cyan,square
0.0,2.0,2.0,0.0,5.0,5.0,538.1590119995963,7.0,1.0,phase_2,go,1200.0,1050.0,1.0,,,,,,,,,green,hexagon
0.0,5.0,1.0,1.0,6.0,6.0,1237.7411449997453,7.0,1.0,phase_2,go,1200.0,1050.0,1.0,,,,,,,,,cyan,square
0.0,8.0,4.0,1.0,5.0,5.0,371.5689760001623,7.0,1.0,phase_2,stop,1200.0,1050.0,3.0,,,,,,,,,gray,I
0.0,2.0,2.0,0.0,6.0,6.0,485.1634710003054,7.0,1.0,phase_2,go,1150.0,1050.0,1.0,,,,,,,,,green,hexagon
0.0,3.0,3.0,0.0,6.0,6.0,447.3864089995913,7.0,1.0,phase_2,go,1150.0,1050.0,1.0,,,,,,,,,yellow,triangle
0.0,7.0,3.0,1.0,6.0,6.0,1088.6921480005185,7.0,1.0,phase_2,stop,1150.0,1050.0,3.0,,,,,,,,,magenta,flipped triangle
0.0,4.0,4.0,0.0,5.0,5.0,532.2209010000734,7.0,1.0,phase_2,go,1150.0,1000.0,1.0,,,,,,,,,orange,diamond
0.0,3.0,3.0,0.0,6.0,6.0,446.7730309997932,7.0,1.0,phase_2,go,1150.0,1000.0,1.0,,,,,,,,,yellow,triangle
0.0,3.0,3.0,0.0,5.0,5.0,345.2915509997183,7.0,1.0,phase_2,go,1150.0,1000.0,1.0,,,,,,,,,yellow,triangle
0.0,2.0,2.0,0.0,6.0,6.0,482.8010860001086,7.0,1.0,phase_2,go,1150.0,1000.0,1.0,,,,,,,,,green,hexagon
0.0,6.0,2.0,1.0,6.0,6.0,1092.335327000001,7.0,1.0,phase_2,stop,1150.0,1000.0,3.0,,,,,,,,,blue,cross
0.0,6.0,2.0,1.0,6.0,0.0,0.0,7.0,1.0,phase_2,stop,1150.0,950.0,4.0,,,,,,,,,blue,cross
0.0,7.0,3.0,1.0,5.0,0.0,0.0,7.0,1.0,phase_2,stop,1150.0,1000.0,4.0,,,,,,,,,magenta,flipped triangle
0.0,1.0,1.0,0.0,5.0,5.0,541.6480980002234,7.0,1.0,phase_2,go,1200.0,1000.0,1.0,,,,,,,,,white,circle
0.0,2.0,2.0,0.0,5.0,5.0,427.7457100006359,7.0,1.0,phase_2,go,1200.0,1000.0,1.0,,,,,,,,,green,hexagon
0.0,2.0,2.0,0.0,6.0,6.0,428.5333279995029,7.0,1.0,phase_2,go,1200.0,1000.0,1.0,,,,,,,,,green,hexagon
0.0,3.0,3.0,0.0,6.0,6.0,521.8067300002076,7.0,1.0,phase_2,go,1200.0,1000.0,1.0,,,,,,,,,yellow,triangle
0.0,6.0,2.0,1.0,5.0,5.0,1361.218934000135,7.0,1.0,phase_2,stop,1200.0,1000.0,3.0,,,,,,,,,blue,cross
0.0,6.0,2.0,1.0,5.0,0.0,0.0,7.0,1.0,phase_2,go,1150.0,1000.0,5.0,,,,,,,,,blue,cross
0.0,2.0,2.0,0.0,5.0,5.0,567.3984779996317,7.0,1.0,phase_2,go,1150.0,1000.0,1.0,,,,,,,,,green,hexagon
0.0,6.0,2.0,1.0,5.0,0.0,0.0,7.0,1.0,phase_2,stop,1150.0,1000.0,4.0,,,,,,,,,blue,cross
0.0,7.0,3.0,1.0,6.0,0.0,0.0,7.0,1.0,phase_2,stop,1200.0,1000.0,4.0,,,,,,,,,magenta,flipped triangle
0.0,1.0,1.0,0.0,5.0,5.0,531.0552740002095,7.0,1.0,phase_2,go,1200.0,1050.0,1.0,,,,,,,,,white,circle
0.0,1.0,1.0,0.0,6.0,6.0,446.9503649997932,7.0,1.0,phase_2,go,1200.0,1050.0,1.0,,,,,,,,,white,circle
0.0,8.0,4.0,1.0,5.0,5.0,439.0319489993999,7.0,1.0,phase_2,stop,1200.0,1050.0,3.0,,,,,,,,,gray,I
0.0,1.0,1.0,0.0,5.0,5.0,493.0878510003822,7.0,1.0,phase_2,go,1150.0,1050.0,1.0,,,,,,,,,white,circle
0.0,1.0,1.0,0.0,5.0,5.0,401.2506429999121,7.0,1.0,phase_2,go,1150.0,1050.0,1.0,,,,,,,,,white,circle
0.0,7.0,3.0,1.0,5.0,5.0,1460.918046000188,7.0,1.0,phase_2,go,1150.0,1050.0,1.0,,,,,,,,,magenta,flipped triangle
0.0,6.0,2.0,1.0,5.0,0.0,0.0,7.0,1.0,phase_2,stop,1150.0,1050.0,4.0,,,,,,,,,blue,cross
0.0,6.0,2.0,1.0,5.0,5.0,1161.7444949997662,7.0,1.0,phase_2,stop,1200.0,1050.0,3.0,,,,,,,,,blue,cross
0.0,5.0,1.0,1.0,5.0,0.0,0.0,7.0,1.0,phase_2,stop,1150.0,1050.0,4.0,,,,,,,,,cyan,square
0.0,4.0,4.0,0.0,5.0,5.0,548.8344520008468,7.0,1.0,phase_2,go,1200.0,1050.0,1.0,,,,,,,,,orange,diamond
0.0,3.0,3.0,0.0,5.0,5.0,381.5158360002897,7.0,1.0,phase_2,go,1200.0,1050.0,1.0,,,,,,,,,yellow,triangle
0.0,4.0,4.0,0.0,6.0,6.0,389.9012410001887,7.0,1.0,phase_2,go,1200.0,1050.0,1.0,,,,,,,,,orange,diamond
0.0,5.0,1.0,1.0,6.0,6.0,1476.4698110002428,7.0,1.0,phase_2,go,1200.0,1050.0,1.0,,,,,,,,,cyan,square
0.0,5.0,1.0,1.0,6.0,0.0,0.0,7.0,1.0,phase_2,go,1200.0,1050.0,5.0,,,,,,,,,cyan,square
0.0,4.0,4.0,0.0,6.0,6.0,399.434275999738,8.0,1.0,phase_2,go,1200.0,1050.0,1.0,,,,,,,,,orange,diamond
0.0,8.0,4.0,1.0,6.0,0.0,0.0,8.0,1.0,phase_2,stop,1200.0,1050.0,4.0,,,,,,,,,gray,I
0.0,2.0,2.0,0.0,6.0,6.0,520.8370669997748,8.0,1.0,phase_2,go,1200.0,1100.0,1.0,,,,,,,,,green,hexagon
0.0,6.0,2.0,1.0,5.0,5.0,1143.7238930002422,8.0,1.0,phase_2,stop,1200.0,1100.0,3.0,,,,,,,,,blue,cross
0.0,8.0,4.0,1.0,5.0,0.0,0.0,8.0,1.0,phase_2,stop,1150.0,1100.0,4.0,,,,,,,,,gray,I
0.0,5.0,1.0,1.0,5.0,0.0,0.0,8.0,1.0,phase_2,stop,1200.0,1100.0,4.0,,,,,,,,,cyan,square
0.0,5.0,1.0,1.0,6.0,6.0,1476.2149480002336,8.0,1.0,phase_2,go,1250.0,1100.0,1.0,,,,,,,,,cyan,square
0.0,2.0,2.0,0.0,5.0,5.0,539.7958510002354,8.0,1.0,phase_2,go,1250.0,1100.0,1.0,,,,,,,,,green,hexagon
0.0,6.0,2.0,1.0,5.0,0.0,0.0,8.0,1.0,phase_2,stop,1250.0,1100.0,4.0,,,,,,,,,blue,cross
0.0,4.0,4.0,0.0,5.0,5.0,483.5829309995461,8.0,1.0,phase_2,go,1300.0,1100.0,1.0,,,,,,,,,orange,diamond
0.0,1.0,1.0,0.0,5.0,5.0,389.8430090002875,8.0,1.0,phase_2,go,1300.0,1100.0,1.0,,,,,,,,,white,circle
0.0,6.0,2.0,1.0,6.0,0.0,0.0,8.0,1.0,phase_2,stop,1300.0,1100.0,4.0,,,,,,,,,blue,cross
0.0,1.0,1.0,0.0,5.0,5.0,529.9884080004631,8.0,1.0,phase_2,go,1300.0,1150.0,1.0,,,,,,,,,white,circle
0.0,1.0,1.0,0.0,6.0,6.0,446.0011330002089,8.0,1.0,phase_2,go,1300.0,1150.0,1.0,,,,,,,,,white,circle
0.0,8.0,4.0,1.0,6.0,0.0,0.0,8.0,1.0,phase_2,stop,1300.0,1150.0,4.0,,,,,,,,,gray,I
0.0,8.0,4.0,1.0,6.0,0.0,0.0,8.0,1.0,phase_2,go,1300.0,1200.0,5.0,,,,,,,,,gray,I
0.0,4.0,4.0,0.0,6.0,6.0,503.7193690004642,8.0,1.0,phase_2,go,1300.0,1200.0,1.0,,,,,,,,,orange,diamond
0.0,8.0,4.0,1.0,5.0,5.0,1132.9406710001422,8.0,1.0,phase_2,go,1300.0,1200.0,1.0,,,,,,,,,gray,I
0.0,1.0,1.0,0.0,5.0,5.0,512.6842760000727,8.0,1.0,phase_2,go,1300.0,1200.0,1.0,,,,,,,,,white,circle
0.0,5.0,1.0,1.0,5.0,0.0,0.0,8.0,1.0,phase_2,go,1300.0,1200.0,5.0,,,,,,,,,cyan,square
0.0,6.0,2.0,1.0,5.0,5.0,1161.6221150006822,8.0,1.0,phase_2,stop,1300.0,1200.0,3.0,,,,,,,,,blue,cross
0.0,2.0,2.0,0.0,6.0,6.0,494.9313440001788,8.0,1.0,phase_2,go,1250.0,1200.0,1.0,,,,,,,,,green,hexagon
0.0,2.0,2.0,0.0,6.0,6.0,464.2474279999078,8.0,1.0,phase_2,go,1250.0,1200.0,1.0,,,,,,,,,green,hexagon
0.0,7.0,3.0,1.0,6.0,0.0,0.0,8.0,1.0,phase_2,stop,1250.0,1200.0,4.0,,,,,,,,,magenta,flipped triangle
0.0,4.0,4.0,0.0,6.0,6.0,529.0427239997371,8.0,1.0,phase_2,go,1250.0,1250.0,1.0,,,,,,,,,orange,diamond
0.0,7.0,3.0,1.0,5.0,0.0,0.0,8.0,1.0,phase_2,stop,1250.0,1250.0,4.0,,,,,,,,,magenta,flipped triangle
0.0,2.0,2.0,0.0,6.0,6.0,575.3216789998987,8.0,1.0,phase_2,go,1300.0,1250.0,1.0,,,,,,,,,green,hexagon
0.0,6.0,2.0,1.0,5.0,5.0,1377.4732589999985,8.0,1.0,phase_2,stop,1300.0,1250.0,3.0,,,,,,,,,blue,cross
0.0,3.0,3.0,0.0,6.0,6.0,399.6046209995256,8.0,1.0,phase_2,go,1250.0,1250.0,1.0,,,,,,,,,yellow,triangle
0.0,3.0,3.0,0.0,5.0,5.0,652.2184710001966,8.0,1.0,phase_2,go,1250.0,1250.0,1.0,,,,,,,,,yellow,triangle
0.0,8.0,4.0,1.0,6.0,0.0,0.0,8.0,1.0,phase_2,go,1250.0,1250.0,5.0,,,,,,,,,gray,I
0.0,4.0,4.0,0.0,5.0,5.0,1022.647777000202,8.0,1.0,phase_2,go,1250.0,1250.0,1.0,,,,,,,,,orange,diamond
0.0,4.0,4.0,0.0,5.0,5.0,522.5004399999307,8.0,1.0,phase_2,go,1250.0,1250.0,1.0,,,,,,,,,orange,diamond
0.0,8.0,4.0,1.0,6.0,6.0,1076.9795119995251,8.0,1.0,phase_2,stop,1250.0,1250.0,3.0,,,,,,,,,gray,I
0.0,1.0,1.0,0.0,5.0,5.0,491.8299109995132,8.0,1.0,phase_2,go,1250.0,1200.0,1.0,,,,,,,,,white,circle
0.0,7.0,3.0,1.0,6.0,0.0,0.0,8.0,1.0,phase_2,stop,1250.0,1200.0,4.0,,,,,,,,,magenta,flipped triangle
0.0,8.0,4.0,1.0,7.0,6.0,3803.51861500003,1.0,1.0,phase_3,,,,,384.0,2.0,960.0,768.0,1152.0,192.0,576.0,384.0,gray,I
0.0,2.0,2.0,0.0,7.0,3.0,2559.106093000082,1.0,1.0,phase_3,,,,,462.0,3.0,616.0,308.0,462.0,770.0,154.0,924.0,green,hexagon
0.0,8.0,4.0,1.0,7.0,1.0,2211.188762999882,1.0,1.0,phase_3,,,,,308.0,2.0,308.0,154.0,616.0,924.0,770.0,462.0,gray,I
0.0,3.0,3.0,0.0,7.0,6.0,1700.986155999999,1.0,1.0,phase_3,,,,,616.0,4.0,770.0,308.0,462.0,154.0,924.0,616.0,yellow,triangle
0.0,1.0,1.0,0.0,7.0,1.0,2056.3506630005577,1.0,1.0,phase_3,,,,,960.0,5.0,960.0,768.0,384.0,192.0,1152.0,576.0,white,circle
0.0,3.0,3.0,0.0,7.0,4.0,2814.813466000487,1.0,1.0,phase_3,,,,,768.0,4.0,1152.0,384.0,192.0,768.0,576.0,960.0,yellow,triangle
0.0,2.0,2.0,0.0,7.0,6.0,1369.9478569997154,1.0,1.0,phase_3,,,,,696.0,6.0,464.0,580.0,348.0,232.0,116.0,696.0,green,hexagon
0.0,5.0,1.0,1.0,7.0,5.0,2069.131940999796,1.0,1.0,phase_3,,,,,384.0,2.0,192.0,576.0,1152.0,960.0,384.0,768.0,cyan,square
0.0,3.0,3.0,0.0,7.0,2.0,2060.734532999959,1.0,1.0,phase_3,,,,,540.0,4.0,405.0,540.0,675.0,270.0,135.0,810.0,yellow,triangle
0.0,6.0,2.0,1.0,7.0,6.0,2010.1287170000437,1.0,1.0,phase_3,,,,,270.0,2.0,540.0,135.0,405.0,810.0,675.0,270.0,blue,cross
0.0,3.0,3.0,0.0,7.0,5.0,2086.956682000164,1.0,1.0,phase_3,,,,,270.0,2.0,810.0,675.0,405.0,135.0,270.0,540.0,yellow,triangle
0.0,2.0,2.0,0.0,7.0,5.0,1402.1823079992828,1.0,1.0,phase_3,,,,,675.0,5.0,540.0,270.0,135.0,810.0,675.0,405.0,green,hexagon
0.0,7.0,3.0,1.0,7.0,3.0,1848.1555690004825,1.0,1.0,phase_3,,,,,232.0,2.0,464.0,116.0,232.0,348.0,580.0,696.0,magenta,flipped triangle
0.0,8.0,4.0,1.0,7.0,3.0,1193.795277999925,1.0,1.0,phase_3,,,,,135.0,1.0,675.0,540.0,135.0,270.0,810.0,405.0,gray,I
0.0,4.0,4.0,0.0,7.0,4.0,2361.6186279996327,1.0,1.0,phase_3,,,,,462.0,3.0,924.0,308.0,616.0,462.0,154.0,770.0,orange,diamond
0.0,2.0,2.0,0.0,7.0,2.0,1916.456618000666,1.0,1.0,phase_3,,,,,768.0,4.0,576.0,768.0,192.0,384.0,1152.0,960.0,green,hexagon
0.0,7.0,3.0,1.0,7.0,6.0,1807.933881999816,1.0,1.0,phase_3,,,,,116.0,1.0,580.0,348.0,464.0,232.0,696.0,116.0,magenta,flipped triangle
0.0,7.0,3.0,1.0,7.0,5.0,2033.916844000487,1.0,1.0,phase_3,,,,,270.0,2.0,540.0,405.0,810.0,675.0,270.0,135.0,magenta,flipped triangle
0.0,2.0,2.0,0.0,7.0,4.0,1903.341360000013,1.0,1.0,phase_3,,,,,696.0,6.0,348.0,232.0,580.0,696.0,464.0,116.0,green,hexagon
0.0,8.0,4.0,1.0,7.0,2.0,1276.222159000099,1.0,1.0,phase_3,,,,,192.0,1.0,1152.0,192.0,384.0,576.0,768.0,960.0,gray,I
0.0,3.0,3.0,0.0,7.0,3.0,1197.4100890001864,2.0,1.0,phase_3,,,,,464.0,4.0,116.0,696.0,464.0,580.0,348.0,232.0,yellow,triangle
0.0,5.0,1.0,1.0,7.0,1.0,1562.847230999978,2.0,1.0,phase_3,,,,,173.0,1.0,173.0,865.0,692.0,346.0,519.0,1038.0,cyan,square
0.0,8.0,4.0,1.0,7.0,6.0,1919.240078999792,2.0,1.0,phase_3,,,,,173.0,1.0,865.0,1038.0,692.0,346.0,519.0,173.0,gray,I
0.0,1.0,1.0,0.0,7.0,3.0,1349.656911999773,2.0,1.0,phase_3,,,,,462.0,3.0,308.0,924.0,462.0,154.0,616.0,770.0,white,circle
0.0,5.0,1.0,1.0,7.0,4.0,1970.8522379996796,2.0,1.0,phase_3,,,,,192.0,1.0,576.0,768.0,384.0,192.0,960.0,1152.0,cyan,square
0.0,1.0,1.0,0.0,7.0,4.0,2026.3542239999879,2.0,1.0,phase_3,,,,,405.0,3.0,675.0,810.0,270.0,405.0,135.0,540.0,white,circle
0.0,1.0,1.0,0.0,7.0,1.0,3730.766636999761,2.0,1.0,phase_3,,,,,308.0,2.0,308.0,770.0,924.0,616.0,154.0,462.0,white,circle
0.0,5.0,1.0,1.0,7.0,2.0,1183.8148380002167,2.0,1.0,phase_3,,,,,116.0,1.0,580.0,116.0,348.0,464.0,232.0,696.0,cyan,square
0.0,4.0,4.0,0.0,7.0,5.0,1035.7998230001613,2.0,1.0,phase_3,,,,,346.0,2.0,1038.0,865.0,692.0,519.0,346.0,173.0,orange,diamond
0.0,4.0,4.0,0.0,7.0,2.0,2132.683578000069,2.0,1.0,phase_3,,,,,348.0,3.0,116.0,348.0,580.0,232.0,464.0,696.0,orange,diamond
0.0,7.0,3.0,1.0,7.0,3.0,1173.9953610003795,2.0,1.0,phase_3,,,,,270.0,2.0,675.0,135.0,270.0,810.0,405.0,540.0,magenta,flipped triangle
0.0,7.0,3.0,1.0,7.0,1.0,3233.660197000063,2.0,1.0,phase_3,,,,,346.0,2.0,346.0,173.0,519.0,1038.0,865.0,692.0,magenta,flipped triangle
0.0,8.0,4.0,1.0,7.0,3.0,2866.576718999568,2.0,1.0,phase_3,,,,,135.0,1.0,810.0,270.0,135.0,405.0,675.0,540.0,gray,I
0.0,7.0,3.0,1.0,7.0,6.0,2898.607570999957,2.0,1.0,phase_3,,,,,308.0,2.0,154.0,462.0,616.0,770.0,924.0,308.0,magenta,flipped triangle
0.0,1.0,1.0,0.0,7.0,5.0,2578.069833999507,2.0,1.0,phase_3,,,,,519.0,3.0,173.0,1038.0,865.0,346.0,519.0,692.0,white,circle
0.0,4.0,4.0,0.0,7.0,5.0,2263.963051000246,2.0,1.0,phase_3,,,,,308.0,2.0,154.0,462.0,616.0,924.0,308.0,770.0,orange,diamond
0.0,2.0,2.0,0.0,7.0,3.0,1063.9796220002609,2.0,1.0,phase_3,,,,,540.0,4.0,675.0,810.0,540.0,405.0,135.0,270.0,green,hexagon
0.0,7.0,3.0,1.0,7.0,3.0,1736.0811759999706,2.0,1.0,phase_3,,,,,192.0,1.0,1152.0,768.0,192.0,576.0,384.0,960.0,magenta,flipped triangle
0.0,3.0,3.0,0.0,7.0,6.0,812.1538319992396,2.0,1.0,phase_3,,,,,692.0,4.0,1038.0,519.0,173.0,865.0,346.0,692.0,yellow,triangle
0.0,5.0,1.0,1.0,7.0,1.0,1710.105682000176,2.0,1.0,phase_3,,,,,173.0,1.0,173.0,692.0,865.0,1038.0,519.0,346.0,cyan,square
0.0,4.0,4.0,0.0,7.0,5.0,1218.8733240000147,3.0,1.0,phase_3,,,,,580.0,5.0,696.0,116.0,232.0,464.0,580.0,348.0,orange,diamond
0.0,5.0,1.0,1.0,7.0,5.0,1217.7435510002397,3.0,1.0,phase_3,,,,,154.0,1.0,770.0,616.0,462.0,924.0,154.0,308.0,cyan,square
0.0,5.0,1.0,1.0,7.0,1.0,1474.394750999636,3.0,1.0,phase_3,,,,,154.0,1.0,154.0,616.0,462.0,770.0,924.0,308.0,cyan,square
0.0,1.0,1.0,0.0,7.0,6.0,1027.3498850001488,3.0,1.0,phase_3,,,,,405.0,3.0,675.0,135.0,810.0,540.0,270.0,405.0,white,circle
0.0,1.0,1.0,0.0,7.0,1.0,2272.03638500032,3.0,1.0,phase_3,,,,,464.0,4.0,464.0,696.0,116.0,232.0,348.0,580.0,white,circle
0.0,2.0,2.0,0.0,7.0,6.0,1250.7406180002365,3.0,1.0,phase_3,,,,,692.0,4.0,519.0,1038.0,346.0,173.0,865.0,692.0,green,hexagon
0.0,1.0,1.0,0.0,7.0,3.0,4121.936782000375,3.0,1.0,phase_3,,,,,576.0,3.0,1152.0,960.0,576.0,768.0,384.0,192.0,white,circle
0.0,3.0,3.0,0.0,7.0,4.0,1832.94577200013,3.0,1.0,phase_3,,,,,576.0,3.0,1152.0,768.0,384.0,576.0,192.0,960.0,yellow,triangle
0.0,3.0,3.0,0.0,7.0,1.0,3331.9323050000094,3.0,1.0,phase_3,,,,,462.0,3.0,462.0,308.0,154.0,616.0,924.0,770.0,yellow,triangle
0.0,6.0,2.0,1.0,7.0,5.0,3067.8315850000217,3.0,1.0,phase_3,,,,,308.0,2.0,924.0,462.0,616.0,770.0,308.0,154.0,blue,cross
0.0,5.0,1.0,1.0,7.0,2.0,2583.6689710004066,3.0,1.0,phase_3,,,,,135.0,1.0,810.0,135.0,405.0,675.0,540.0,270.0,cyan,square
0.0,8.0,4.0,1.0,7.0,6.0,3310.809394999524,3.0,1.0,phase_3,,,,,116.0,1.0,696.0,348.0,464.0,232.0,580.0,116.0,gray,I
0.0,6.0,2.0,1.0,7.0,3.0,2145.918543999869,3.0,1.0,phase_3,,,,,192.0,1.0,1152.0,960.0,192.0,768.0,384.0,576.0,blue,cross
0.0,4.0,4.0,0.0,7.0,4.0,1776.314915000512,3.0,1.0,phase_3,,,,,384.0,2.0,192.0,960.0,1152.0,384.0,576.0,768.0,orange,diamond
0.0,4.0,4.0,0.0,7.0,6.0,2195.0107069997102,3.0,1.0,phase_3,,,,,346.0,2.0,865.0,1038.0,173.0,519.0,692.0,346.0,orange,diamond
0.0,6.0,2.0,1.0,7.0,5.0,1869.714854000449,3.0,1.0,phase_3,,,,,154.0,1.0,308.0,462.0,616.0,770.0,154.0,924.0,blue,cross
0.0,6.0,2.0,1.0,7.0,3.0,2244.5914370000537,3.0,1.0,phase_3,,,,,192.0,1.0,576.0,768.0,192.0,1152.0,960.0,384.0,blue,cross
0.0,8.0,4.0,1.0,7.0,4.0,1803.6528889997496,3.0,1.0,phase_3,,,,,116.0,1.0,348.0,580.0,696.0,116.0,232.0,464.0,gray,I
0.0,4.0,4.0,0.0,7.0,3.0,1222.8377890005504,3.0,1.0,phase_3,,,,,270.0,2.0,540.0,675.0,270.0,405.0,135.0,810.0,orange,diamond
0.0,7.0,3.0,1.0,7.0,3.0,3279.191222000009,3.0,1.0,phase_3,,,,,384.0,2.0,576.0,1152.0,384.0,768.0,960.0,192.0,magenta,flipped triangle
0.0,8.0,4.0,1.0,7.0,6.0,1221.02306799934,4.0,1.0,phase_3,,,,,154.0,1.0,462.0,770.0,924.0,308.0,616.0,154.0,gray,I
0.0,4.0,4.0,0.0,7.0,2.0,2184.3993060001594,4.0,1.0,phase_3,,,,,270.0,2.0,675.0,270.0,540.0,405.0,135.0,810.0,orange,diamond
0.0,3.0,3.0,0.0,7.0,5.0,1599.4747700005971,4.0,1.0,phase_3,,,,,348.0,3.0,232.0,580.0,116.0,696.0,348.0,464.0,yellow,triangle
0.0,4.0,4.0,0.0,7.0,1.0,1794.6358930003043,4.0,1.0,phase_3,,,,,384.0,2.0,384.0,768.0,960.0,192.0,576.0,1152.0,orange,diamond
0.0,1.0,1.0,0.0,7.0,1.0,1929.3332249999369,4.0,1.0,phase_3,,,,,464.0,4.0,464.0,580.0,232.0,696.0,348.0,116.0,white,circle
0.0,3.0,3.0,0.0,7.0,6.0,1612.1953170004415,4.0,1.0,phase_3,,,,,346.0,2.0,173.0,1038.0,865.0,519.0,692.0,346.0,yellow,triangle
0.0,6.0,2.0,1.0,7.0,4.0,1487.6190999993923,4.0,1.0,phase_3,,,,,135.0,1.0,810.0,540.0,270.0,135.0,675.0,405.0,blue,cross
0.0,7.0,3.0,1.0,7.0,4.0,1737.3740859993632,4.0,1.0,phase_3,,,,,308.0,2.0,154.0,770.0,462.0,308.0,924.0,616.0,magenta,flipped triangle
0.0,2.0,2.0,0.0,7.0,2.0,1777.230519999648,4.0,1.0,phase_3,,,,,462.0,3.0,616.0,462.0,154.0,308.0,770.0,924.0,green,hexagon
0.0,6.0,2.0,1.0,7.0,3.0,851.4195309999195,4.0,1.0,phase_3,,,,,173.0,1.0,1038.0,865.0,173.0,692.0,346.0,519.0,blue,cross
0.0,8.0,4.0,1.0,7.0,1.0,2005.081806999442,4.0,1.0,phase_3,,,,,173.0,1.0,173.0,865.0,692.0,346.0,519.0,1038.0,gray,I
0.0,2.0,2.0,0.0,7.0,5.0,848.8883109994276,4.0,1.0,phase_3,,,,,346.0,2.0,865.0,173.0,692.0,519.0,346.0,1038.0,green,hexagon
0.0,6.0,2.0,1.0,7.0,4.0,979.1764689998672,4.0,1.0,phase_3,,,,,173.0,1.0,519.0,1038.0,346.0,173.0,692.0,865.0,blue,cross
0.0,7.0,3.0,1.0,7.0,5.0,1218.2483910000883,4.0,1.0,phase_3,,,,,346.0,2.0,865.0,1038.0,173.0,692.0,346.0,519.0,magenta,flipped triangle
0.0,2.0,2.0,0.0,7.0,2.0,2290.1190590000624,4.0,1.0,phase_3,,,,,576.0,3.0,1152.0,576.0,192.0,960.0,768.0,384.0,green,hexagon
0.0,5.0,1.0,1.0,7.0,6.0,1393.9833340000405,4.0,1.0,phase_3,,,,,116.0,1.0,232.0,580.0,348.0,696.0,464.0,116.0,cyan,square
0.0,6.0,2.0,1.0,7.0,4.0,2724.4357529998524,4.0,1.0,phase_3,,,,,232.0,2.0,348.0,464.0,116.0,232.0,580.0,696.0,blue,cross
0.0,6.0,2.0,1.0,7.0,6.0,1174.3356180004412,4.0,1.0,phase_3,,,,,232.0,2.0,348.0,464.0,116.0,580.0,696.0,232.0,blue,cross
0.0,1.0,1.0,0.0,7.0,4.0,2617.8005050005595,4.0,1.0,phase_3,,,,,865.0,5.0,519.0,692.0,346.0,865.0,173.0,1038.0,white,circle
0.0,5.0,1.0,1.0,7.0,3.0,3723.260282999945,4.0,1.0,phase_3,,,,,810.0,6.0,675.0,270.0,810.0,405.0,135.0,540.0,cyan,square
