raw_reward_magnitude,stim_reward,stepwise_reward_magnitude,paired_with_stopping,stim_location,response,reaction_time,block,num_trial_presentations,which_phase,stop_signal_trial_type,left_SSD,right_SSD,accuracy,chosen_bidding_amount,chosen_bidding_level,possible_bid_1,possible_bid_2,possible_bid_3,possible_bid_4,possible_bid_5,possible_bid_6,color_text,shape_text
300.0,6.0,1.0,1.0,3.0,3.0,420.9533240000382,1.0,1.0,phase_1,,,,,,,,,,,,,white,square
186.0,5.0,0.5,1.0,2.0,2.0,280.4181579999749,1.0,1.0,phase_1,,,,,,,,,,,,,magenta,hexagon
0.0,1.0,0.0,0.0,3.0,3.0,421.5987140000834,1.0,1.0,phase_1,,,,,,,,,,,,,yellow,circle
0.0,2.0,0.0,0.0,4.0,4.0,345.9158489999936,1.0,1.0,phase_1,,,,,,,,,,,,,blue,triangle
0.0,7.0,0.0,1.0,1.0,1.0,272.1262140003091,1.0,1.0,phase_1,,,,,,,,,,,,,gray,I
144.0,5.0,0.5,1.0,1.0,1.0,401.6920500002925,1.0,2.0,phase_1,,,,,,,,,,,,,magenta,hexagon
1290.0,4.0,4.0,0.0,2.0,2.0,478.6157920002551,1.0,1.0,phase_1,,,,,,,,,,,,,orange,cross
333.0,6.0,1.0,1.0,2.0,2.0,364.5716030000585,1.0,1.0,phase_1,,,,,,,,,,,,,white,square
0.0,7.0,0.0,1.0,1.0,1.0,393.2277339999928,1.0,1.0,phase_1,,,,,,,,,,,,,gray,I
672.0,3.0,2.0,0.0,2.0,2.0,308.6001839997152,1.0,1.0,phase_1,,,,,,,,,,,,,green,diamond
142.0,5.0,0.5,1.0,2.0,2.0,356.891418000032,1.0,1.0,phase_1,,,,,,,,,,,,,magenta,hexagon
331.0,2.0,1.0,0.0,4.0,4.0,430.5859440000859,1.0,1.0,phase_1,,,,,,,,,,,,,blue,triangle
1279.0,8.0,4.0,1.0,1.0,1.0,413.4365260001686,1.0,1.0,phase_1,,,,,,,,,,,,,cyan,flipped triangle
1288.0,4.0,4.0,0.0,1.0,1.0,403.9312969998718,1.0,1.0,phase_1,,,,,,,,,,,,,orange,cross
1290.0,8.0,4.0,1.0,1.0,1.0,457.4856489998637,1.0,1.0,phase_1,,,,,,,,,,,,,cyan,flipped triangle
307.0,6.0,1.0,1.0,3.0,3.0,317.9101100004118,1.0,1.0,phase_1,,,,,,,,,,,,,white,square
165.0,1.0,0.5,0.0,1.0,1.0,562.6833559999795,1.0,1.0,phase_1,,,,,,,,,,,,,yellow,circle
350.0,2.0,1.0,0.0,1.0,1.0,420.6410329998107,1.0,1.0,phase_1,,,,,,,,,,,,,blue,triangle
1281.0,4.0,4.0,0.0,4.0,4.0,447.9843730000539,1.0,1.0,phase_1,,,,,,,,,,,,,orange,cross
1323.0,4.0,4.0,0.0,4.0,4.0,476.3909350003814,1.0,1.0,phase_1,,,,,,,,,,,,,orange,cross
303.0,2.0,1.0,0.0,1.0,1.0,364.7752900001251,1.0,1.0,phase_1,,,,,,,,,,,,,blue,triangle
658.0,7.0,2.0,1.0,2.0,2.0,364.2269480001232,1.0,1.0,phase_1,,,,,,,,,,,,,gray,I
1323.0,4.0,4.0,0.0,1.0,1.0,438.898472999881,1.0,1.0,phase_1,,,,,,,,,,,,,orange,cross
0.0,6.0,0.0,1.0,1.0,1.0,411.551820999648,1.0,1.0,phase_1,,,,,,,,,,,,,white,square
632.0,7.0,2.0,1.0,3.0,3.0,401.6264959996078,1.0,1.0,phase_1,,,,,,,,,,,,,gray,I
1310.0,4.0,4.0,0.0,1.0,1.0,395.1610750000327,1.0,1.0,phase_1,,,,,,,,,,,,,orange,cross
346.0,2.0,1.0,0.0,3.0,3.0,400.3150749999804,1.0,1.0,phase_1,,,,,,,,,,,,,blue,triangle
303.0,6.0,1.0,1.0,4.0,4.0,457.9069179999351,1.0,1.0,phase_1,,,,,,,,,,,,,white,square
152.0,1.0,0.5,0.0,3.0,3.0,345.804704999864,1.0,1.0,phase_1,,,,,,,,,,,,,yellow,circle
181.0,1.0,0.5,0.0,4.0,4.0,421.4298390002113,1.0,1.0,phase_1,,,,,,,,,,,,,yellow,circle
657.0,7.0,2.0,1.0,4.0,4.0,392.4670129999867,1.0,1.0,phase_1,,,,,,,,,,,,,gray,I
638.0,3.0,2.0,0.0,3.0,3.0,402.2992010000052,1.0,1.0,phase_1,,,,,,,,,,,,,green,diamond
670.0,7.0,2.0,1.0,2.0,2.0,356.6636460000154,1.0,1.0,phase_1,,,,,,,,,,,,,gray,I
349.0,6.0,1.0,1.0,1.0,1.0,412.3745619999681,1.0,1.0,phase_1,,,,,,,,,,,,,white,square
321.0,6.0,1.0,1.0,1.0,1.0,421.8964560000131,1.0,1.0,phase_1,,,,,,,,,,,,,white,square
333.0,2.0,1.0,0.0,2.0,2.0,412.937619999866,1.0,1.0,phase_1,,,,,,,,,,,,,blue,triangle
0.0,7.0,0.0,1.0,2.0,2.0,320.2396990000125,1.0,1.0,phase_1,,,,,,,,,,,,,gray,I
0.0,5.0,0.0,1.0,1.0,1.0,440.6623569998373,1.0,1.0,phase_1,,,,,,,,,,,,,magenta,hexagon
1324.0,8.0,4.0,1.0,3.0,3.0,375.5370559997573,1.0,1.0,phase_1,,,,,,,,,,,,,cyan,flipped triangle
651.0,3.0,2.0,0.0,1.0,1.0,356.0187080001924,1.0,1.0,phase_1,,,,,,,,,,,,,green,diamond
147.0,1.0,0.5,0.0,2.0,2.0,402.199544999803,1.0,1.0,phase_1,,,,,,,,,,,,,yellow,circle
305.0,6.0,1.0,1.0,1.0,1.0,317.3356239999521,1.0,1.0,phase_1,,,,,,,,,,,,,white,square
0.0,8.0,0.0,1.0,4.0,4.0,393.8339510000332,1.0,1.0,phase_1,,,,,,,,,,,,,cyan,flipped triangle
311.0,6.0,1.0,1.0,3.0,3.0,403.8020759999199,1.0,1.0,phase_1,,,,,,,,,,,,,white,square
0.0,6.0,0.0,1.0,1.0,1.0,327.9157150000173,1.0,1.0,phase_1,,,,,,,,,,,,,white,square
1279.0,8.0,4.0,1.0,4.0,4.0,356.2973870002679,1.0,1.0,phase_1,,,,,,,,,,,,,cyan,flipped triangle
1279.0,4.0,4.0,0.0,2.0,2.0,515.1432119996571,1.0,1.0,phase_1,,,,,,,,,,,,,orange,cross
0.0,5.0,0.0,1.0,2.0,2.0,347.6846560001831,1.0,1.0,phase_1,,,,,,,,,,,,,magenta,hexagon
1296.0,8.0,4.0,1.0,1.0,1.0,351.5997039999092,1.0,1.0,phase_1,,,,,,,,,,,,,cyan,flipped triangle
1323.0,8.0,4.0,1.0,2.0,2.0,430.140917999779,1.0,1.0,phase_1,,,,,,,,,,,,,cyan,flipped triangle
1297.0,8.0,4.0,1.0,3.0,3.0,447.61638599993597,1.0,1.0,phase_1,,,,,,,,,,,,,cyan,flipped triangle
656.0,7.0,2.0,1.0,3.0,3.0,467.3327479999898,1.0,1.0,phase_1,,,,,,,,,,,,,gray,I
1289.0,8.0,4.0,1.0,3.0,3.0,440.8729290003066,1.0,1.0,phase_1,,,,,,,,,,,,,cyan,flipped triangle
641.0,7.0,2.0,1.0,3.0,3.0,375.6064760000299,1.0,1.0,phase_1,,,,,,,,,,,,,gray,I
0.0,4.0,0.0,0.0,4.0,4.0,459.5074009998825,1.0,1.0,phase_1,,,,,,,,,,,,,orange,cross
139.0,1.0,0.5,0.0,1.0,1.0,430.1407279999694,1.0,1.0,phase_1,,,,,,,,,,,,,yellow,circle
150.0,1.0,0.5,0.0,2.0,2.0,430.9964069998386,1.0,1.0,phase_1,,,,,,,,,,,,,yellow,circle
0.0,8.0,0.0,1.0,1.0,1.0,458.9328910001313,1.0,1.0,phase_1,,,,,,,,,,,,,cyan,flipped triangle
176.0,5.0,0.5,1.0,2.0,2.0,468.7472000000525,1.0,1.0,phase_1,,,,,,,,,,,,,magenta,hexagon
0.0,3.0,0.0,0.0,1.0,1.0,430.4514260002179,1.0,1.0,phase_1,,,,,,,,,,,,,green,diamond
1310.0,8.0,4.0,1.0,3.0,3.0,336.9723069999963,1.0,1.0,phase_1,,,,,,,,,,,,,cyan,flipped triangle
139.0,5.0,0.5,1.0,2.0,2.0,495.6148400001439,1.0,1.0,phase_1,,,,,,,,,,,,,magenta,hexagon
1281.0,8.0,4.0,1.0,3.0,3.0,410.9935179999411,1.0,1.0,phase_1,,,,,,,,,,,,,cyan,flipped triangle
634.0,3.0,2.0,0.0,3.0,3.0,436.5285519997997,1.0,1.0,phase_1,,,,,,,,,,,,,green,diamond
1288.0,4.0,4.0,0.0,2.0,2.0,402.0114909999392,1.0,1.0,phase_1,,,,,,,,,,,,,orange,cross
177.0,5.0,0.5,1.0,4.0,4.0,450.3592920000301,1.0,1.0,phase_1,,,,,,,,,,,,,magenta,hexagon
333.0,6.0,1.0,1.0,3.0,3.0,401.7877729997963,1.0,1.0,phase_1,,,,,,,,,,,,,white,square
0.0,1.0,0.0,0.0,4.0,4.0,420.5761739999616,1.0,1.0,phase_1,,,,,,,,,,,,,yellow,circle
666.0,3.0,2.0,0.0,2.0,2.0,457.788982999773,1.0,1.0,phase_1,,,,,,,,,,,,,green,diamond
343.0,6.0,1.0,1.0,2.0,2.0,364.2824050002673,1.0,1.0,phase_1,,,,,,,,,,,,,white,square
331.0,6.0,1.0,1.0,3.0,3.0,421.3035840002703,1.0,1.0,phase_1,,,,,,,,,,,,,white,square
186.0,1.0,0.5,0.0,2.0,2.0,363.5970689997521,1.0,1.0,phase_1,,,,,,,,,,,,,yellow,circle
322.0,6.0,1.0,1.0,1.0,1.0,440.4393580002761,1.0,1.0,phase_1,,,,,,,,,,,,,white,square
0.0,7.0,0.0,1.0,2.0,2.0,524.0714010001284,1.0,1.0,phase_1,,,,,,,,,,,,,gray,I
0.0,5.0,0.0,1.0,2.0,2.0,420.3251640001326,1.0,1.0,phase_1,,,,,,,,,,,,,magenta,hexagon
666.0,3.0,2.0,0.0,3.0,3.0,449.4986570002766,1.0,1.0,phase_1,,,,,,,,,,,,,green,diamond
674.0,7.0,2.0,1.0,1.0,1.0,551.9308319999254,1.0,1.0,phase_1,,,,,,,,,,,,,gray,I
336.0,6.0,1.0,1.0,4.0,4.0,420.2266480001526,1.0,1.0,phase_1,,,,,,,,,,,,,white,square
179.0,1.0,0.5,0.0,3.0,3.0,382.9149149996738,1.0,1.0,phase_1,,,,,,,,,,,,,yellow,circle
1323.0,8.0,4.0,1.0,4.0,4.0,448.7023039996529,1.0,1.0,phase_1,,,,,,,,,,,,,cyan,flipped triangle
634.0,7.0,2.0,1.0,3.0,3.0,393.1052560001262,1.0,1.0,phase_1,,,,,,,,,,,,,gray,I
168.0,1.0,0.5,0.0,4.0,4.0,411.949032999928,1.0,1.0,phase_1,,,,,,,,,,,,,yellow,circle
1317.0,4.0,4.0,0.0,4.0,4.0,449.0990230001443,1.0,1.0,phase_1,,,,,,,,,,,,,orange,cross
161.0,5.0,0.5,1.0,1.0,1.0,544.4297349999943,1.0,1.0,phase_1,,,,,,,,,,,,,magenta,hexagon
655.0,7.0,2.0,1.0,2.0,2.0,504.5970649998708,1.0,1.0,phase_1,,,,,,,,,,,,,gray,I
1316.0,4.0,4.0,0.0,4.0,4.0,531.9570639999256,1.0,1.0,phase_1,,,,,,,,,,,,,orange,cross
174.0,1.0,0.5,0.0,3.0,3.0,448.5811729996385,1.0,1.0,phase_1,,,,,,,,,,,,,yellow,circle
0.0,7.0,0.0,1.0,4.0,4.0,486.5550700001222,1.0,1.0,phase_1,,,,,,,,,,,,,gray,I
1311.0,8.0,4.0,1.0,4.0,4.0,457.3120760001075,1.0,1.0,phase_1,,,,,,,,,,,,,cyan,flipped triangle
184.0,5.0,0.5,1.0,3.0,3.0,456.3850320000711,1.0,1.0,phase_1,,,,,,,,,,,,,magenta,hexagon
312.0,6.0,1.0,1.0,4.0,4.0,495.8813729999747,1.0,1.0,phase_1,,,,,,,,,,,,,white,square
637.0,3.0,2.0,0.0,4.0,4.0,440.4319930004021,1.0,1.0,phase_1,,,,,,,,,,,,,green,diamond
154.0,5.0,0.5,1.0,4.0,4.0,438.6940740000682,1.0,1.0,phase_1,,,,,,,,,,,,,magenta,hexagon
0.0,8.0,0.0,1.0,2.0,2.0,374.3090779998965,1.0,1.0,phase_1,,,,,,,,,,,,,cyan,flipped triangle
659.0,7.0,2.0,1.0,2.0,2.0,400.5157139999937,1.0,1.0,phase_1,,,,,,,,,,,,,gray,I
307.0,6.0,1.0,1.0,2.0,2.0,428.5203770000407,1.0,1.0,phase_1,,,,,,,,,,,,,white,square
177.0,5.0,0.5,1.0,2.0,2.0,400.7210879999547,1.0,1.0,phase_1,,,,,,,,,,,,,magenta,hexagon
161.0,1.0,0.5,0.0,2.0,2.0,363.9337310000883,1.0,1.0,phase_1,,,,,,,,,,,,,yellow,circle
319.0,6.0,1.0,1.0,2.0,2.0,362.2736379998059,1.0,1.0,phase_1,,,,,,,,,,,,,white,square
302.0,2.0,1.0,0.0,2.0,2.0,391.0978150001938,1.0,1.0,phase_1,,,,,,,,,,,,,blue,triangle
1282.0,8.0,4.0,1.0,1.0,1.0,458.1866519997675,2.0,1.0,phase_1,,,,,,,,,,,,,cyan,flipped triangle
0.0,8.0,0.0,1.0,4.0,4.0,364.0585619996273,2.0,1.0,phase_1,,,,,,,,,,,,,cyan,flipped triangle
163.0,5.0,0.5,1.0,2.0,2.0,317.9743099999541,2.0,1.0,phase_1,,,,,,,,,,,,,magenta,hexagon
660.0,3.0,2.0,0.0,1.0,1.0,412.8463869997176,2.0,2.0,phase_1,,,,,,,,,,,,,green,diamond
0.0,3.0,0.0,0.0,1.0,1.0,328.4200989996861,2.0,1.0,phase_1,,,,,,,,,,,,,green,diamond
655.0,3.0,2.0,0.0,4.0,4.0,506.19825800004037,2.0,1.0,phase_1,,,,,,,,,,,,,green,diamond
660.0,7.0,2.0,1.0,1.0,1.0,430.4581169999437,2.0,1.0,phase_1,,,,,,,,,,,,,gray,I
0.0,2.0,0.0,0.0,4.0,4.0,374.3532829998912,2.0,1.0,phase_1,,,,,,,,,,,,,blue,triangle
0.0,3.0,0.0,0.0,4.0,4.0,523.2621139998628,2.0,2.0,phase_1,,,,,,,,,,,,,green,diamond
0.0,1.0,0.0,0.0,2.0,2.0,553.1819560001168,2.0,1.0,phase_1,,,,,,,,,,,,,yellow,circle
1318.0,8.0,4.0,1.0,4.0,4.0,512.7725789998294,2.0,1.0,phase_1,,,,,,,,,,,,,cyan,flipped triangle
643.0,3.0,2.0,0.0,2.0,2.0,504.68978299977607,2.0,1.0,phase_1,,,,,,,,,,,,,green,diamond
1313.0,8.0,4.0,1.0,2.0,2.0,411.9031690001975,2.0,1.0,phase_1,,,,,,,,,,,,,cyan,flipped triangle
1309.0,8.0,4.0,1.0,3.0,3.0,431.7054749999442,2.0,1.0,phase_1,,,,,,,,,,,,,cyan,flipped triangle
137.0,1.0,0.5,0.0,2.0,2.0,411.031087000083,2.0,1.0,phase_1,,,,,,,,,,,,,yellow,circle
651.0,7.0,2.0,1.0,3.0,3.0,382.8776229997856,2.0,1.0,phase_1,,,,,,,,,,,,,gray,I
1296.0,4.0,4.0,0.0,1.0,1.0,646.0288369999034,2.0,1.0,phase_1,,,,,,,,,,,,,orange,cross
649.0,7.0,2.0,1.0,4.0,4.0,411.25894900005727,2.0,1.0,phase_1,,,,,,,,,,,,,gray,I
1304.0,8.0,4.0,1.0,4.0,4.0,456.9057319999956,2.0,1.0,phase_1,,,,,,,,,,,,,cyan,flipped triangle
634.0,3.0,2.0,0.0,3.0,3.0,680.6623249999575,2.0,1.0,phase_1,,,,,,,,,,,,,green,diamond
1280.0,8.0,4.0,1.0,1.0,1.0,457.4893979997796,2.0,1.0,phase_1,,,,,,,,,,,,,cyan,flipped triangle
1312.0,8.0,4.0,1.0,1.0,1.0,440.6339989996013,2.0,1.0,phase_1,,,,,,,,,,,,,cyan,flipped triangle
152.0,5.0,0.5,1.0,1.0,1.0,438.5353790003137,2.0,1.0,phase_1,,,,,,,,,,,,,magenta,hexagon
162.0,1.0,0.5,0.0,4.0,4.0,372.7618230000189,2.0,1.0,phase_1,,,,,,,,,,,,,yellow,circle
180.0,1.0,0.5,0.0,3.0,3.0,438.4873839999272,2.0,1.0,phase_1,,,,,,,,,,,,,yellow,circle
0.0,7.0,0.0,1.0,3.0,3.0,439.4676909996633,2.0,1.0,phase_1,,,,,,,,,,,,,gray,I
0.0,4.0,0.0,0.0,4.0,4.0,494.8307790000399,2.0,1.0,phase_1,,,,,,,,,,,,,orange,cross
0.0,6.0,0.0,1.0,4.0,4.0,327.025586000218,2.0,1.0,phase_1,,,,,,,,,,,,,white,square
349.0,2.0,1.0,0.0,3.0,3.0,335.9728450000148,2.0,1.0,phase_1,,,,,,,,,,,,,blue,triangle
156.0,5.0,0.5,1.0,4.0,4.0,364.3134650001229,2.0,1.0,phase_1,,,,,,,,,,,,,magenta,hexagon
633.0,3.0,2.0,0.0,3.0,3.0,355.588742999771,2.0,1.0,phase_1,,,,,,,,,,,,,green,diamond
637.0,7.0,2.0,1.0,3.0,3.0,354.8025509999206,2.0,1.0,phase_1,,,,,,,,,,,,,gray,I
0.0,2.0,0.0,0.0,2.0,2.0,691.3468469997497,2.0,1.0,phase_1,,,,,,,,,,,,,blue,triangle
0.0,7.0,0.0,1.0,1.0,1.0,372.9476309999882,2.0,1.0,phase_1,,,,,,,,,,,,,gray,I
1277.0,4.0,4.0,0.0,2.0,2.0,400.8833209995828,2.0,1.0,phase_1,,,,,,,,,,,,,orange,cross
350.0,2.0,1.0,0.0,3.0,3.0,449.1039479999017,2.0,1.0,phase_1,,,,,,,,,,,,,blue,triangle
1276.0,4.0,4.0,0.0,1.0,1.0,507.6564050000343,2.0,1.0,phase_1,,,,,,,,,,,,,orange,cross
1311.0,4.0,4.0,0.0,3.0,3.0,410.8024379997914,2.0,1.0,phase_1,,,,,,,,,,,,,orange,cross
319.0,6.0,1.0,1.0,1.0,1.0,403.2630920000883,2.0,1.0,phase_1,,,,,,,,,,,,,white,square
1302.0,4.0,4.0,0.0,3.0,3.0,449.8987079996368,2.0,1.0,phase_1,,,,,,,,,,,,,orange,cross
174.0,5.0,0.5,1.0,3.0,3.0,402.6471400002265,2.0,1.0,phase_1,,,,,,,,,,,,,magenta,hexagon
149.0,5.0,0.5,1.0,3.0,3.0,402.2166289996676,2.0,1.0,phase_1,,,,,,,,,,,,,magenta,hexagon
302.0,6.0,1.0,1.0,1.0,1.0,495.3037119998953,2.0,1.0,phase_1,,,,,,,,,,,,,white,square
182.0,1.0,0.5,0.0,3.0,3.0,375.0298100003419,2.0,1.0,phase_1,,,,,,,,,,,,,yellow,circle
1284.0,4.0,4.0,0.0,3.0,3.0,375.2366060002714,2.0,1.0,phase_1,,,,,,,,,,,,,orange,cross
0.0,5.0,0.0,1.0,1.0,1.0,627.303910000137,2.0,1.0,phase_1,,,,,,,,,,,,,magenta,hexagon
0.0,3.0,0.0,0.0,3.0,3.0,375.9961769997062,2.0,1.0,phase_1,,,,,,,,,,,,,green,diamond
316.0,6.0,1.0,1.0,3.0,3.0,412.8045929996915,2.0,1.0,phase_1,,,,,,,,,,,,,white,square
1278.0,4.0,4.0,0.0,3.0,3.0,336.9240590000117,2.0,1.0,phase_1,,,,,,,,,,,,,orange,cross
1312.0,4.0,4.0,0.0,1.0,1.0,459.098061000077,2.0,1.0,phase_1,,,,,,,,,,,,,orange,cross
162.0,1.0,0.5,0.0,1.0,1.0,410.3203950003262,2.0,1.0,phase_1,,,,,,,,,,,,,yellow,circle
634.0,7.0,2.0,1.0,1.0,1.0,394.1857909999271,2.0,1.0,phase_1,,,,,,,,,,,,,gray,I
147.0,5.0,0.5,1.0,2.0,2.0,702.7623679996395,2.0,1.0,phase_1,,,,,,,,,,,,,magenta,hexagon
1279.0,4.0,4.0,0.0,2.0,2.0,411.6714199999478,2.0,1.0,phase_1,,,,,,,,,,,,,orange,cross
1309.0,4.0,4.0,0.0,3.0,3.0,392.7839879997918,2.0,1.0,phase_1,,,,,,,,,,,,,orange,cross
0.0,7.0,0.0,1.0,1.0,1.0,459.4016249998276,2.0,1.0,phase_1,,,,,,,,,,,,,gray,I
0.0,1.0,0.0,0.0,4.0,4.0,514.6094480001011,2.0,1.0,phase_1,,,,,,,,,,,,,yellow,circle
0.0,8.0,0.0,1.0,4.0,4.0,533.5918099999617,2.0,1.0,phase_1,,,,,,,,,,,,,cyan,flipped triangle
0.0,8.0,0.0,1.0,1.0,1.0,495.8355640001173,2.0,1.0,phase_1,,,,,,,,,,,,,cyan,flipped triangle
330.0,6.0,1.0,1.0,3.0,3.0,394.70981500016927,2.0,1.0,phase_1,,,,,,,,,,,,,white,square
1325.0,8.0,4.0,1.0,2.0,2.0,356.2769199998001,2.0,1.0,phase_1,,,,,,,,,,,,,cyan,flipped triangle
633.0,7.0,2.0,1.0,2.0,2.0,346.2609379998866,2.0,1.0,phase_1,,,,,,,,,,,,,gray,I
160.0,5.0,0.5,1.0,2.0,2.0,521.4038449998952,2.0,1.0,phase_1,,,,,,,,,,,,,magenta,hexagon
0.0,1.0,0.0,0.0,3.0,3.0,468.3837779998612,2.0,1.0,phase_1,,,,,,,,,,,,,yellow,circle
331.0,6.0,1.0,1.0,1.0,1.0,328.8311519995659,2.0,1.0,phase_1,,,,,,,,,,,,,white,square
648.0,7.0,2.0,1.0,1.0,1.0,412.1438770002896,2.0,1.0,phase_1,,,,,,,,,,,,,gray,I
0.0,8.0,0.0,1.0,3.0,3.0,420.0544629998148,2.0,2.0,phase_1,,,,,,,,,,,,,cyan,flipped triangle
169.0,1.0,0.5,0.0,4.0,4.0,693.4087959998578,2.0,1.0,phase_1,,,,,,,,,,,,,yellow,circle
310.0,6.0,1.0,1.0,4.0,4.0,589.037024999925,2.0,1.0,phase_1,,,,,,,,,,,,,white,square
1313.0,4.0,4.0,0.0,1.0,1.0,561.0209619999296,2.0,1.0,phase_1,,,,,,,,,,,,,orange,cross
637.0,3.0,2.0,0.0,3.0,3.0,523.583072999827,2.0,1.0,phase_1,,,,,,,,,,,,,green,diamond
644.0,3.0,2.0,0.0,2.0,2.0,356.7745390000709,2.0,1.0,phase_1,,,,,,,,,,,,,green,diamond
1324.0,4.0,4.0,0.0,3.0,3.0,420.5476450001697,2.0,1.0,phase_1,,,,,,,,,,,,,orange,cross
161.0,1.0,0.5,0.0,2.0,2.0,336.5014770001835,2.0,1.0,phase_1,,,,,,,,,,,,,yellow,circle
632.0,3.0,2.0,0.0,2.0,2.0,392.48007499963927,2.0,1.0,phase_1,,,,,,,,,,,,,green,diamond
321.0,2.0,1.0,0.0,3.0,3.0,412.5748659998862,2.0,1.0,phase_1,,,,,,,,,,,,,blue,triangle
659.0,3.0,2.0,0.0,4.0,4.0,637.3910110000907,2.0,1.0,phase_1,,,,,,,,,,,,,green,diamond
342.0,6.0,1.0,1.0,4.0,4.0,459.0425809997214,2.0,1.0,phase_1,,,,,,,,,,,,,white,square
0.0,3.0,0.0,0.0,3.0,3.0,691.9168200001877,2.0,1.0,phase_1,,,,,,,,,,,,,green,diamond
141.0,1.0,0.5,0.0,3.0,3.0,524.1532620002545,2.0,1.0,phase_1,,,,,,,,,,,,,yellow,circle
143.0,5.0,0.5,1.0,1.0,1.0,486.5947739999683,2.0,1.0,phase_1,,,,,,,,,,,,,magenta,hexagon
336.0,2.0,1.0,0.0,1.0,1.0,373.3807510002407,2.0,2.0,phase_1,,,,,,,,,,,,,blue,triangle
645.0,3.0,2.0,0.0,2.0,2.0,478.069000999767,2.0,1.0,phase_1,,,,,,,,,,,,,green,diamond
1322.0,8.0,4.0,1.0,2.0,2.0,431.2522370000806,2.0,1.0,phase_1,,,,,,,,,,,,,cyan,flipped triangle
0.0,1.0,0.0,0.0,4.0,4.0,513.2609820002472,2.0,1.0,phase_1,,,,,,,,,,,,,yellow,circle
185.0,5.0,0.5,1.0,1.0,1.0,598.2710530001896,2.0,1.0,phase_1,,,,,,,,,,,,,magenta,hexagon
0.0,3.0,0.0,0.0,1.0,1.0,402.5676410001324,2.0,1.0,phase_1,,,,,,,,,,,,,green,diamond
652.0,7.0,2.0,1.0,3.0,3.0,476.1326940001709,2.0,1.0,phase_1,,,,,,,,,,,,,gray,I
149.0,1.0,0.5,0.0,1.0,1.0,486.8726539998533,2.0,1.0,phase_1,,,,,,,,,,,,,yellow,circle
0.0,5.0,0.0,1.0,3.0,3.0,804.6925650000958,2.0,1.0,phase_1,,,,,,,,,,,,,magenta,hexagon
657.0,3.0,2.0,0.0,1.0,1.0,571.7906619997848,2.0,1.0,phase_1,,,,,,,,,,,,,green,diamond
0.0,2.0,0.0,0.0,3.0,3.0,563.2647929996892,2.0,1.0,phase_1,,,,,,,,,,,,,blue,triangle
161.0,5.0,0.5,1.0,3.0,3.0,366.0211219998928,2.0,1.0,phase_1,,,,,,,,,,,,,magenta,hexagon
330.0,6.0,1.0,1.0,4.0,4.0,477.0943530002114,2.0,1.0,phase_1,,,,,,,,,,,,,white,square
185.0,1.0,0.5,0.0,1.0,1.0,478.279681999993,2.0,1.0,phase_1,,,,,,,,,,,,,yellow,circle
1309.0,4.0,4.0,0.0,4.0,4.0,412.0459979999396,2.0,1.0,phase_1,,,,,,,,,,,,,orange,cross
322.0,2.0,1.0,0.0,2.0,2.0,514.9421790001725,2.0,2.0,phase_1,,,,,,,,,,,,,blue,triangle
634.0,7.0,2.0,1.0,1.0,1.0,654.250594000132,2.0,1.0,phase_1,,,,,,,,,,,,,gray,I
634.0,7.0,2.0,1.0,4.0,4.0,580.4356169996936,2.0,1.0,phase_1,,,,,,,,,,,,,gray,I
137.0,5.0,0.5,1.0,4.0,4.0,457.3159279998435,2.0,1.0,phase_1,,,,,,,,,,,,,magenta,hexagon
350.0,6.0,1.0,1.0,4.0,4.0,589.0515989999585,3.0,1.0,phase_1,,,,,,,,,,,,,white,square
146.0,5.0,0.5,1.0,3.0,3.0,570.6557509997765,3.0,1.0,phase_1,,,,,,,,,,,,,magenta,hexagon
0.0,3.0,0.0,0.0,2.0,2.0,571.8059219998395,3.0,1.0,phase_1,,,,,,,,,,,,,green,diamond
0.0,4.0,0.0,0.0,4.0,4.0,514.0049950000503,3.0,1.0,phase_1,,,,,,,,,,,,,orange,cross
1322.0,4.0,4.0,0.0,2.0,2.0,719.0341299997272,3.0,1.0,phase_1,,,,,,,,,,,,,orange,cross
143.0,1.0,0.5,0.0,2.0,2.0,429.1761530002986,3.0,1.0,phase_1,,,,,,,,,,,,,yellow,circle
1307.0,8.0,4.0,1.0,2.0,2.0,375.8269979998658,3.0,1.0,phase_1,,,,,,,,,,,,,cyan,flipped triangle
1318.0,4.0,4.0,0.0,1.0,1.0,515.5494900000122,3.0,1.0,phase_1,,,,,,,,,,,,,orange,cross
174.0,5.0,0.5,1.0,1.0,1.0,504.54208700011804,3.0,1.0,phase_1,,,,,,,,,,,,,magenta,hexagon
0.0,4.0,0.0,0.0,4.0,4.0,357.2416930001054,3.0,1.0,phase_1,,,,,,,,,,,,,orange,cross
0.0,4.0,0.0,0.0,3.0,3.0,403.0563060000531,3.0,1.0,phase_1,,,,,,,,,,,,,orange,cross
1290.0,4.0,4.0,0.0,4.0,4.0,429.1726800001925,3.0,1.0,phase_1,,,,,,,,,,,,,orange,cross
1282.0,4.0,4.0,0.0,4.0,4.0,431.7919169998276,3.0,1.0,phase_1,,,,,,,,,,,,,orange,cross
337.0,6.0,1.0,1.0,3.0,3.0,382.7880020003249,3.0,1.0,phase_1,,,,,,,,,,,,,white,square
326.0,2.0,1.0,0.0,4.0,4.0,506.49209599987444,3.0,1.0,phase_1,,,,,,,,,,,,,blue,triangle
0.0,3.0,0.0,0.0,4.0,4.0,430.2791889999753,3.0,1.0,phase_1,,,,,,,,,,,,,green,diamond
164.0,5.0,0.5,1.0,3.0,3.0,394.3132749996039,3.0,1.0,phase_1,,,,,,,,,,,,,magenta,hexagon
0.0,6.0,0.0,1.0,1.0,1.0,562.2936979998485,3.0,1.0,phase_1,,,,,,,,,,,,,white,square
1325.0,4.0,4.0,0.0,2.0,2.0,429.226818999723,3.0,1.0,phase_1,,,,,,,,,,,,,orange,cross
0.0,4.0,0.0,0.0,2.0,2.0,466.9824259999586,3.0,1.0,phase_1,,,,,,,,,,,,,orange,cross
666.0,3.0,2.0,0.0,1.0,1.0,504.5069699999658,3.0,1.0,phase_1,,,,,,,,,,,,,green,diamond
674.0,7.0,2.0,1.0,4.0,4.0,494.5781460000944,3.0,1.0,phase_1,,,,,,,,,,,,,gray,I
1306.0,4.0,4.0,0.0,3.0,3.0,476.2024569999994,3.0,1.0,phase_1,,,,,,,,,,,,,orange,cross
0.0,2.0,0.0,0.0,2.0,2.0,485.2784549998432,3.0,1.0,phase_1,,,,,,,,,,,,,blue,triangle
156.0,1.0,0.5,0.0,3.0,3.0,486.3545299999714,3.0,1.0,phase_1,,,,,,,,,,,,,yellow,circle
165.0,5.0,0.5,1.0,4.0,4.0,447.62183299963,3.0,1.0,phase_1,,,,,,,,,,,,,magenta,hexagon
162.0,5.0,0.5,1.0,1.0,1.0,467.7104710003732,3.0,1.0,phase_1,,,,,,,,,,,,,magenta,hexagon
340.0,2.0,1.0,0.0,4.0,4.0,493.5476509999716,3.0,1.0,phase_1,,,,,,,,,,,,,blue,triangle
670.0,3.0,2.0,0.0,1.0,1.0,549.8059159999684,3.0,1.0,phase_1,,,,,,,,,,,,,green,diamond
181.0,5.0,0.5,1.0,4.0,4.0,476.1832959998173,3.0,1.0,phase_1,,,,,,,,,,,,,magenta,hexagon
1280.0,4.0,4.0,0.0,2.0,2.0,615.7754840000962,3.0,1.0,phase_1,,,,,,,,,,,,,orange,cross
0.0,8.0,0.0,1.0,2.0,2.0,456.445980999888,3.0,1.0,phase_1,,,,,,,,,,,,,cyan,flipped triangle
637.0,7.0,2.0,1.0,1.0,1.0,615.3637190000154,3.0,1.0,phase_1,,,,,,,,,,,,,gray,I
341.0,2.0,1.0,0.0,1.0,1.0,615.835490000336,3.0,1.0,phase_1,,,,,,,,,,,,,blue,triangle
300.0,2.0,1.0,0.0,1.0,1.0,385.1644309997937,3.0,1.0,phase_1,,,,,,,,,,,,,blue,triangle
0.0,7.0,0.0,1.0,3.0,3.0,505.8186280002701,3.0,1.0,phase_1,,,,,,,,,,,,,gray,I
0.0,8.0,0.0,1.0,2.0,2.0,494.528887999877,3.0,1.0,phase_1,,,,,,,,,,,,,cyan,flipped triangle
142.0,1.0,0.5,0.0,1.0,1.0,495.4745649997676,3.0,1.0,phase_1,,,,,,,,,,,,,yellow,circle
1314.0,4.0,4.0,0.0,4.0,4.0,599.4446530003188,3.0,1.0,phase_1,,,,,,,,,,,,,orange,cross
0.0,5.0,0.0,1.0,2.0,2.0,531.1958200004483,3.0,1.0,phase_1,,,,,,,,,,,,,magenta,hexagon
0.0,6.0,0.0,1.0,3.0,3.0,494.7107219995814,3.0,1.0,phase_1,,,,,,,,,,,,,white,square
303.0,2.0,1.0,0.0,4.0,4.0,624.5587929997782,3.0,1.0,phase_1,,,,,,,,,,,,,blue,triangle
1318.0,4.0,4.0,0.0,4.0,4.0,541.4307699998062,3.0,1.0,phase_1,,,,,,,,,,,,,orange,cross
634.0,3.0,2.0,0.0,4.0,4.0,411.1637979999614,3.0,1.0,phase_1,,,,,,,,,,,,,green,diamond
180.0,5.0,0.5,1.0,2.0,2.0,512.9025889996228,3.0,1.0,phase_1,,,,,,,,,,,,,magenta,hexagon
0.0,3.0,0.0,0.0,2.0,2.0,477.0815460001358,3.0,1.0,phase_1,,,,,,,,,,,,,green,diamond
316.0,2.0,1.0,0.0,2.0,2.0,429.1456999999354,3.0,1.0,phase_1,,,,,,,,,,,,,blue,triangle
328.0,2.0,1.0,0.0,1.0,1.0,504.0576319997854,3.0,1.0,phase_1,,,,,,,,,,,,,blue,triangle
659.0,3.0,2.0,0.0,2.0,2.0,449.2989710001893,3.0,1.0,phase_1,,,,,,,,,,,,,green,diamond
628.0,7.0,2.0,1.0,2.0,2.0,401.9628559999546,3.0,1.0,phase_1,,,,,,,,,,,,,gray,I
138.0,5.0,0.5,1.0,1.0,1.0,456.8805469998551,3.0,1.0,phase_1,,,,,,,,,,,,,magenta,hexagon
319.0,6.0,1.0,1.0,2.0,2.0,401.6545419999602,3.0,1.0,phase_1,,,,,,,,,,,,,white,square
0.0,2.0,0.0,0.0,3.0,3.0,561.0938619997796,3.0,1.0,phase_1,,,,,,,,,,,,,blue,triangle
333.0,2.0,1.0,0.0,2.0,2.0,542.4409620000006,3.0,1.0,phase_1,,,,,,,,,,,,,blue,triangle
638.0,7.0,2.0,1.0,4.0,4.0,521.4084409999487,3.0,1.0,phase_1,,,,,,,,,,,,,gray,I
1300.0,4.0,4.0,0.0,2.0,2.0,558.9417269998194,3.0,1.0,phase_1,,,,,,,,,,,,,orange,cross
174.0,5.0,0.5,1.0,3.0,3.0,447.3685910002132,3.0,1.0,phase_1,,,,,,,,,,,,,magenta,hexagon
658.0,3.0,2.0,0.0,1.0,1.0,521.78635700011,3.0,1.0,phase_1,,,,,,,,,,,,,green,diamond
628.0,3.0,2.0,0.0,4.0,4.0,541.7400340002132,3.0,1.0,phase_1,,,,,,,,,,,,,green,diamond
0.0,6.0,0.0,1.0,3.0,3.0,540.7852240000466,3.0,1.0,phase_1,,,,,,,,,,,,,white,square
0.0,7.0,0.0,1.0,2.0,2.0,484.4084669998665,3.0,1.0,phase_1,,,,,,,,,,,,,gray,I
674.0,3.0,2.0,0.0,3.0,3.0,540.8316929997454,3.0,1.0,phase_1,,,,,,,,,,,,,green,diamond
1306.0,8.0,4.0,1.0,1.0,1.0,671.9899889999397,3.0,1.0,phase_1,,,,,,,,,,,,,cyan,flipped triangle
660.0,7.0,2.0,1.0,2.0,2.0,466.2612870001794,3.0,1.0,phase_1,,,,,,,,,,,,,gray,I
656.0,3.0,2.0,0.0,4.0,4.0,410.8854759997484,3.0,1.0,phase_1,,,,,,,,,,,,,green,diamond
139.0,1.0,0.5,0.0,3.0,3.0,543.1638400000338,3.0,1.0,phase_1,,,,,,,,,,,,,yellow,circle
1307.0,4.0,4.0,0.0,3.0,3.0,466.3851640002576,3.0,1.0,phase_1,,,,,,,,,,,,,orange,cross
342.0,2.0,1.0,0.0,3.0,3.0,458.5302880000199,3.0,1.0,phase_1,,,,,,,,,,,,,blue,triangle
307.0,2.0,1.0,0.0,4.0,4.0,577.2702279996338,3.0,1.0,phase_1,,,,,,,,,,,,,blue,triangle
160.0,1.0,0.5,0.0,4.0,4.0,598.2519440003671,3.0,1.0,phase_1,,,,,,,,,,,,,yellow,circle
0.0,4.0,0.0,0.0,2.0,2.0,576.1160389997713,3.0,1.0,phase_1,,,,,,,,,,,,,orange,cross
0.0,6.0,0.0,1.0,4.0,4.0,485.7888269998511,3.0,1.0,phase_1,,,,,,,,,,,,,white,square
1280.0,8.0,4.0,1.0,4.0,4.0,609.1758259999551,3.0,1.0,phase_1,,,,,,,,,,,,,cyan,flipped triangle
323.0,2.0,1.0,0.0,2.0,2.0,460.7362329998068,3.0,1.0,phase_1,,,,,,,,,,,,,blue,triangle
1284.0,8.0,4.0,1.0,1.0,1.0,465.8290920001491,3.0,1.0,phase_1,,,,,,,,,,,,,cyan,flipped triangle
660.0,3.0,2.0,0.0,4.0,4.0,532.7958970001418,3.0,1.0,phase_1,,,,,,,,,,,,,green,diamond
305.0,2.0,1.0,0.0,3.0,3.0,383.6901060003583,3.0,1.0,phase_1,,,,,,,,,,,,,blue,triangle
0.0,5.0,0.0,1.0,3.0,3.0,392.0634030000656,3.0,1.0,phase_1,,,,,,,,,,,,,magenta,hexagon
634.0,3.0,2.0,0.0,1.0,1.0,587.2241779998149,3.0,1.0,phase_1,,,,,,,,,,,,,green,diamond
336.0,6.0,1.0,1.0,1.0,1.0,372.5551899997299,3.0,1.0,phase_1,,,,,,,,,,,,,white,square
144.0,1.0,0.5,0.0,1.0,1.0,400.821181000083,3.0,1.0,phase_1,,,,,,,,,,,,,yellow,circle
322.0,6.0,1.0,1.0,2.0,2.0,345.9450219997961,3.0,1.0,phase_1,,,,,,,,,,,,,white,square
660.0,7.0,2.0,1.0,1.0,1.0,364.216302999921,3.0,1.0,phase_1,,,,,,,,,,,,,gray,I
165.0,1.0,0.5,0.0,2.0,2.0,354.4256879999921,3.0,1.0,phase_1,,,,,,,,,,,,,yellow,circle
319.0,2.0,1.0,0.0,4.0,4.0,409.9346570001216,3.0,1.0,phase_1,,,,,,,,,,,,,blue,triangle
626.0,7.0,2.0,1.0,2.0,2.0,641.5204309996625,3.0,1.0,phase_1,,,,,,,,,,,,,gray,I
156.0,1.0,0.5,0.0,4.0,4.0,716.9456720002927,3.0,1.0,phase_1,,,,,,,,,,,,,yellow,circle
649.0,3.0,2.0,0.0,4.0,4.0,653.0877830000463,3.0,1.0,phase_1,,,,,,,,,,,,,green,diamond
162.0,5.0,0.5,1.0,3.0,3.0,400.8161149999978,3.0,1.0,phase_1,,,,,,,,,,,,,magenta,hexagon
0.0,2.0,0.0,0.0,2.0,2.0,373.2834590000493,3.0,1.0,phase_1,,,,,,,,,,,,,blue,triangle
0.0,2.0,0.0,0.0,4.0,4.0,393.1775569999445,3.0,2.0,phase_1,,,,,,,,,,,,,blue,triangle
1278.0,8.0,4.0,1.0,2.0,2.0,648.8693930000409,3.0,1.0,phase_1,,,,,,,,,,,,,cyan,flipped triangle
322.0,2.0,1.0,0.0,1.0,1.0,431.1596500001542,3.0,1.0,phase_1,,,,,,,,,,,,,blue,triangle
646.0,3.0,2.0,0.0,1.0,1.0,450.0916749998396,3.0,1.0,phase_1,,,,,,,,,,,,,green,diamond
666.0,7.0,2.0,1.0,3.0,3.0,486.4880100003574,3.0,1.0,phase_1,,,,,,,,,,,,,gray,I
663.0,7.0,2.0,1.0,4.0,4.0,377.1700199999941,3.0,1.0,phase_1,,,,,,,,,,,,,gray,I
0.0,1.0,0.0,0.0,4.0,4.0,430.2853189997222,3.0,1.0,phase_1,,,,,,,,,,,,,yellow,circle
154.0,1.0,0.5,0.0,2.0,2.0,600.2784639999845,3.0,1.0,phase_1,,,,,,,,,,,,,yellow,circle
629.0,7.0,2.0,1.0,3.0,3.0,495.8614239999406,3.0,1.0,phase_1,,,,,,,,,,,,,gray,I
169.0,5.0,0.5,1.0,4.0,4.0,413.2951110000249,3.0,1.0,phase_1,,,,,,,,,,,,,magenta,hexagon
310.0,2.0,1.0,0.0,2.0,2.0,346.4537469999413,4.0,1.0,phase_1,,,,,,,,,,,,,blue,triangle
1276.0,8.0,4.0,1.0,4.0,4.0,329.3258490002699,4.0,1.0,phase_1,,,,,,,,,,,,,cyan,flipped triangle
638.0,3.0,2.0,0.0,2.0,2.0,309.1755390000799,4.0,1.0,phase_1,,,,,,,,,,,,,green,diamond
638.0,7.0,2.0,1.0,1.0,1.0,430.5880580000121,4.0,1.0,phase_1,,,,,,,,,,,,,gray,I
1277.0,8.0,4.0,1.0,2.0,2.0,347.5147720000677,4.0,1.0,phase_1,,,,,,,,,,,,,cyan,flipped triangle
341.0,6.0,1.0,1.0,4.0,4.0,308.3239259999573,4.0,1.0,phase_1,,,,,,,,,,,,,white,square
652.0,3.0,2.0,0.0,3.0,3.0,458.5978629997953,4.0,1.0,phase_1,,,,,,,,,,,,,green,diamond
349.0,2.0,1.0,0.0,3.0,3.0,317.7954040002078,4.0,1.0,phase_1,,,,,,,,,,,,,blue,triangle
163.0,1.0,0.5,0.0,4.0,4.0,308.8488100001996,4.0,1.0,phase_1,,,,,,,,,,,,,yellow,circle
326.0,6.0,1.0,1.0,4.0,4.0,383.0203939996863,4.0,1.0,phase_1,,,,,,,,,,,,,white,square
1289.0,4.0,4.0,0.0,1.0,1.0,346.3537839998025,4.0,1.0,phase_1,,,,,,,,,,,,,orange,cross
0.0,1.0,0.0,0.0,3.0,3.0,336.87111800009,4.0,1.0,phase_1,,,,,,,,,,,,,yellow,circle
156.0,5.0,0.5,1.0,4.0,4.0,450.215844000013,4.0,1.0,phase_1,,,,,,,,,,,,,magenta,hexagon
0.0,4.0,0.0,0.0,4.0,4.0,374.7661990000779,4.0,1.0,phase_1,,,,,,,,,,,,,orange,cross
343.0,2.0,1.0,0.0,3.0,3.0,337.8585289997318,4.0,1.0,phase_1,,,,,,,,,,,,,blue,triangle
655.0,3.0,2.0,0.0,3.0,3.0,346.893879000163,4.0,1.0,phase_1,,,,,,,,,,,,,green,diamond
1309.0,8.0,4.0,1.0,2.0,2.0,385.7903250000163,4.0,1.0,phase_1,,,,,,,,,,,,,cyan,flipped triangle
0.0,6.0,0.0,1.0,2.0,2.0,366.3208340003621,4.0,1.0,phase_1,,,,,,,,,,,,,white,square
1288.0,8.0,4.0,1.0,3.0,3.0,394.2470569995748,4.0,1.0,phase_1,,,,,,,,,,,,,cyan,flipped triangle
643.0,7.0,2.0,1.0,4.0,4.0,375.2967260002151,4.0,1.0,phase_1,,,,,,,,,,,,,gray,I
660.0,3.0,2.0,0.0,4.0,4.0,393.7730669999837,4.0,1.0,phase_1,,,,,,,,,,,,,green,diamond
663.0,3.0,2.0,0.0,1.0,1.0,430.7521160003489,4.0,1.0,phase_1,,,,,,,,,,,,,green,diamond
1297.0,4.0,4.0,0.0,3.0,3.0,337.7760070002296,4.0,1.0,phase_1,,,,,,,,,,,,,orange,cross
174.0,1.0,0.5,0.0,4.0,4.0,337.3977430001105,4.0,1.0,phase_1,,,,,,,,,,,,,yellow,circle
641.0,3.0,2.0,0.0,2.0,2.0,645.2249689996279,4.0,1.0,phase_1,,,,,,,,,,,,,green,diamond
319.0,2.0,1.0,0.0,4.0,4.0,385.2976630000739,4.0,1.0,phase_1,,,,,,,,,,,,,blue,triangle
0.0,6.0,0.0,1.0,4.0,4.0,343.7060100000053,4.0,1.0,phase_1,,,,,,,,,,,,,white,square
655.0,7.0,2.0,1.0,4.0,4.0,356.2639920000947,4.0,1.0,phase_1,,,,,,,,,,,,,gray,I
340.0,6.0,1.0,1.0,2.0,2.0,411.7102959999101,4.0,1.0,phase_1,,,,,,,,,,,,,white,square
330.0,2.0,1.0,0.0,1.0,1.0,375.4372369999146,4.0,1.0,phase_1,,,,,,,,,,,,,blue,triangle
0.0,4.0,0.0,0.0,4.0,4.0,394.6917729999768,4.0,1.0,phase_1,,,,,,,,,,,,,orange,cross
312.0,2.0,1.0,0.0,2.0,2.0,318.9836110000215,4.0,1.0,phase_1,,,,,,,,,,,,,blue,triangle
323.0,6.0,1.0,1.0,1.0,1.0,450.1632920000702,4.0,1.0,phase_1,,,,,,,,,,,,,white,square
644.0,7.0,2.0,1.0,1.0,1.0,422.2553499998867,4.0,1.0,phase_1,,,,,,,,,,,,,gray,I
177.0,1.0,0.5,0.0,4.0,4.0,412.9618309998477,4.0,1.0,phase_1,,,,,,,,,,,,,yellow,circle
332.0,2.0,1.0,0.0,3.0,3.0,355.518480000228,4.0,1.0,phase_1,,,,,,,,,,,,,blue,triangle
1285.0,8.0,4.0,1.0,2.0,2.0,300.2992439996887,4.0,1.0,phase_1,,,,,,,,,,,,,cyan,flipped triangle
1288.0,8.0,4.0,1.0,2.0,2.0,337.1727469998404,4.0,1.0,phase_1,,,,,,,,,,,,,cyan,flipped triangle
146.0,1.0,0.5,0.0,1.0,1.0,281.2536709998312,4.0,1.0,phase_1,,,,,,,,,,,,,yellow,circle
182.0,5.0,0.5,1.0,3.0,3.0,422.042514000168,4.0,1.0,phase_1,,,,,,,,,,,,,magenta,hexagon
672.0,7.0,2.0,1.0,4.0,4.0,346.7017469997699,4.0,1.0,phase_1,,,,,,,,,,,,,gray,I
666.0,7.0,2.0,1.0,1.0,1.0,354.3128260002959,4.0,1.0,phase_1,,,,,,,,,,,,,gray,I
311.0,2.0,1.0,0.0,2.0,2.0,326.9594250000409,4.0,1.0,phase_1,,,,,,,,,,,,,blue,triangle
648.0,3.0,2.0,0.0,2.0,2.0,319.3626059996859,4.0,1.0,phase_1,,,,,,,,,,,,,green,diamond
179.0,5.0,0.5,1.0,1.0,1.0,421.0292449997723,4.0,1.0,phase_1,,,,,,,,,,,,,magenta,hexagon
350.0,6.0,1.0,1.0,4.0,4.0,374.3621369999346,4.0,1.0,phase_1,,,,,,,,,,,,,white,square
0.0,2.0,0.0,0.0,1.0,1.0,346.4755109998805,4.0,1.0,phase_1,,,,,,,,,,,,,blue,triangle
0.0,1.0,0.0,0.0,1.0,1.0,328.4506469999542,4.0,1.0,phase_1,,,,,,,,,,,,,yellow,circle
331.0,2.0,1.0,0.0,4.0,4.0,402.9948259999401,4.0,1.0,phase_1,,,,,,,,,,,,,blue,triangle
1286.0,4.0,4.0,0.0,1.0,1.0,392.6789990000543,4.0,1.0,phase_1,,,,,,,,,,,,,orange,cross
0.0,6.0,0.0,1.0,3.0,3.0,401.5746319996651,4.0,1.0,phase_1,,,,,,,,,,,,,white,square
674.0,3.0,2.0,0.0,1.0,1.0,383.0258009998033,4.0,1.0,phase_1,,,,,,,,,,,,,green,diamond
1286.0,8.0,4.0,1.0,4.0,4.0,393.8484880000032,4.0,1.0,phase_1,,,,,,,,,,,,,cyan,flipped triangle
1314.0,8.0,4.0,1.0,3.0,3.0,411.6561949999777,4.0,1.0,phase_1,,,,,,,,,,,,,cyan,flipped triangle
150.0,5.0,0.5,1.0,4.0,4.0,420.8884660001786,4.0,1.0,phase_1,,,,,,,,,,,,,magenta,hexagon
177.0,1.0,0.5,0.0,1.0,1.0,374.8788759999115,4.0,1.0,phase_1,,,,,,,,,,,,,yellow,circle
304.0,2.0,1.0,0.0,3.0,3.0,430.8331030001682,4.0,1.0,phase_1,,,,,,,,,,,,,blue,triangle
1302.0,8.0,4.0,1.0,1.0,1.0,394.2244569998365,4.0,1.0,phase_1,,,,,,,,,,,,,cyan,flipped triangle
304.0,6.0,1.0,1.0,3.0,3.0,431.090631999723,4.0,1.0,phase_1,,,,,,,,,,,,,white,square
646.0,7.0,2.0,1.0,4.0,4.0,402.4784279999949,4.0,1.0,phase_1,,,,,,,,,,,,,gray,I
1318.0,8.0,4.0,1.0,4.0,4.0,384.3532370001412,4.0,1.0,phase_1,,,,,,,,,,,,,cyan,flipped triangle
139.0,5.0,0.5,1.0,4.0,4.0,439.5494829996096,4.0,1.0,phase_1,,,,,,,,,,,,,magenta,hexagon
666.0,7.0,2.0,1.0,2.0,2.0,377.0834749998357,4.0,1.0,phase_1,,,,,,,,,,,,,gray,I
319.0,2.0,1.0,0.0,1.0,1.0,355.6853279997085,4.0,1.0,phase_1,,,,,,,,,,,,,blue,triangle
0.0,8.0,0.0,1.0,1.0,1.0,374.2374319999726,4.0,1.0,phase_1,,,,,,,,,,,,,cyan,flipped triangle
629.0,3.0,2.0,0.0,4.0,4.0,412.6039269999637,4.0,1.0,phase_1,,,,,,,,,,,,,green,diamond
336.0,2.0,1.0,0.0,2.0,2.0,525.5461870001454,4.0,1.0,phase_1,,,,,,,,,,,,,blue,triangle
330.0,2.0,1.0,0.0,1.0,1.0,402.9572690001259,4.0,1.0,phase_1,,,,,,,,,,,,,blue,triangle
328.0,6.0,1.0,1.0,2.0,2.0,356.6261410001061,4.0,1.0,phase_1,,,,,,,,,,,,,white,square
659.0,7.0,2.0,1.0,2.0,2.0,374.7215280000091,4.0,1.0,phase_1,,,,,,,,,,,,,gray,I
1300.0,8.0,4.0,1.0,3.0,3.0,383.9797050000015,4.0,1.0,phase_1,,,,,,,,,,,,,cyan,flipped triangle
1304.0,4.0,4.0,0.0,2.0,2.0,384.6236869999302,4.0,1.0,phase_1,,,,,,,,,,,,,orange,cross
0.0,5.0,0.0,1.0,3.0,3.0,394.3326909998177,4.0,1.0,phase_1,,,,,,,,,,,,,magenta,hexagon
1317.0,8.0,4.0,1.0,1.0,1.0,364.7715680003784,4.0,1.0,phase_1,,,,,,,,,,,,,cyan,flipped triangle
645.0,7.0,2.0,1.0,3.0,3.0,410.8957160001409,4.0,1.0,phase_1,,,,,,,,,,,,,gray,I
0.0,5.0,0.0,1.0,2.0,2.0,364.4376549996195,4.0,1.0,phase_1,,,,,,,,,,,,,magenta,hexagon
349.0,6.0,1.0,1.0,1.0,1.0,543.0046380001841,4.0,1.0,phase_1,,,,,,,,,,,,,white,square
141.0,5.0,0.5,1.0,1.0,1.0,384.7508099997867,4.0,1.0,phase_1,,,,,,,,,,,,,magenta,hexagon
1290.0,8.0,4.0,1.0,4.0,4.0,459.3621019998863,4.0,1.0,phase_1,,,,,,,,,,,,,cyan,flipped triangle
1316.0,8.0,4.0,1.0,3.0,3.0,357.7004960002341,4.0,1.0,phase_1,,,,,,,,,,,,,cyan,flipped triangle
626.0,3.0,2.0,0.0,3.0,3.0,337.5764500001423,4.0,1.0,phase_1,,,,,,,,,,,,,green,diamond
337.0,2.0,1.0,0.0,4.0,4.0,422.4700919999122,4.0,1.0,phase_1,,,,,,,,,,,,,blue,triangle
303.0,6.0,1.0,1.0,2.0,2.0,561.9747739997365,4.0,1.0,phase_1,,,,,,,,,,,,,white,square
346.0,6.0,1.0,1.0,3.0,3.0,337.2262709999631,4.0,1.0,phase_1,,,,,,,,,,,,,white,square
0.0,4.0,0.0,0.0,2.0,2.0,346.0499749999144,4.0,1.0,phase_1,,,,,,,,,,,,,orange,cross
184.0,1.0,0.5,0.0,1.0,1.0,364.7780749997764,4.0,1.0,phase_1,,,,,,,,,,,,,yellow,circle
307.0,2.0,1.0,0.0,4.0,4.0,383.6790729997119,4.0,1.0,phase_1,,,,,,,,,,,,,blue,triangle
0.0,5.0,0.0,1.0,4.0,4.0,402.8717040000629,4.0,1.0,phase_1,,,,,,,,,,,,,magenta,hexagon
0.0,2.0,0.0,0.0,2.0,2.0,290.6767829999808,4.0,1.0,phase_1,,,,,,,,,,,,,blue,triangle
165.0,5.0,0.5,1.0,2.0,2.0,271.8537169998853,4.0,1.0,phase_1,,,,,,,,,,,,,magenta,hexagon
174.0,1.0,0.5,0.0,4.0,4.0,374.8106380003264,4.0,1.0,phase_1,,,,,,,,,,,,,yellow,circle
1280.0,4.0,4.0,0.0,3.0,3.0,440.7197950004047,4.0,1.0,phase_1,,,,,,,,,,,,,orange,cross
138.0,1.0,0.5,0.0,3.0,3.0,394.1281349998462,4.0,1.0,phase_1,,,,,,,,,,,,,yellow,circle
0.0,3.0,0.0,0.0,4.0,4.0,365.9313680000196,4.0,1.0,phase_1,,,,,,,,,,,,,green,diamond
1285.0,4.0,4.0,0.0,4.0,4.0,411.972502000026,4.0,1.0,phase_1,,,,,,,,,,,,,orange,cross
164.0,1.0,0.5,0.0,2.0,2.0,692.4552529999346,4.0,1.0,phase_1,,,,,,,,,,,,,yellow,circle
0.0,1.0,0.0,0.0,1.0,1.0,402.9106289999618,4.0,1.0,phase_1,,,,,,,,,,,,,yellow,circle
176.0,1.0,0.5,0.0,3.0,3.0,431.0072329999457,4.0,1.0,phase_1,,,,,,,,,,,,,yellow,circle
332.0,6.0,1.0,1.0,2.0,2.0,412.6004519998787,4.0,1.0,phase_1,,,,,,,,,,,,,white,square
168.0,5.0,0.5,1.0,3.0,3.0,431.8017199998394,4.0,1.0,phase_1,,,,,,,,,,,,,magenta,hexagon
0.0,1.0,0.5,0.0,5.0,5.0,422.1890779999739,1.0,1.0,phase_2,go,250.0,250.0,1.0,,,,,,,,,yellow,circle
0.0,1.0,0.5,0.0,5.0,5.0,560.420341000281,1.0,1.0,phase_2,go,250.0,250.0,1.0,,,,,,,,,yellow,circle
0.0,7.0,2.0,1.0,5.0,5.0,542.8108090000023,1.0,1.0,phase_2,go,250.0,250.0,1.0,,,,,,,,,gray,I
0.0,1.0,0.5,0.0,6.0,6.0,477.2255999996559,1.0,1.0,phase_2,go,250.0,250.0,1.0,,,,,,,,,yellow,circle
0.0,5.0,0.5,1.0,5.0,0.0,0.0,1.0,1.0,phase_2,stop,250.0,250.0,4.0,,,,,,,,,magenta,hexagon
0.0,4.0,4.0,0.0,5.0,5.0,424.6189519999461,1.0,1.0,phase_2,go,300.0,250.0,1.0,,,,,,,,,orange,cross
0.0,7.0,2.0,1.0,6.0,6.0,406.3151109999126,1.0,1.0,phase_2,go,300.0,250.0,1.0,,,,,,,,,gray,I
0.0,1.0,0.5,0.0,6.0,6.0,357.507758000338,1.0,1.0,phase_2,go,300.0,250.0,1.0,,,,,,,,,yellow,circle
0.0,5.0,0.5,1.0,5.0,5.0,466.5840939996997,1.0,1.0,phase_2,go,300.0,250.0,1.0,,,,,,,,,magenta,hexagon
0.0,7.0,2.0,1.0,5.0,5.0,612.4902550000115,1.0,1.0,phase_2,go,300.0,250.0,1.0,,,,,,,,,gray,I
0.0,3.0,2.0,0.0,6.0,6.0,717.5405379998665,1.0,1.0,phase_2,go,300.0,250.0,1.0,,,,,,,,,green,diamond
0.0,8.0,4.0,1.0,6.0,6.0,547.3213069999474,1.0,1.0,phase_2,go,300.0,250.0,1.0,,,,,,,,,cyan,flipped triangle
0.0,2.0,1.0,0.0,5.0,5.0,510.0430659999802,1.0,1.0,phase_2,go,300.0,250.0,1.0,,,,,,,,,blue,triangle
0.0,7.0,2.0,1.0,5.0,0.0,0.0,1.0,1.0,phase_2,stop,300.0,250.0,4.0,,,,,,,,,gray,I
0.0,7.0,2.0,1.0,6.0,0.0,0.0,1.0,1.0,phase_2,stop,350.0,250.0,4.0,,,,,,,,,gray,I
0.0,2.0,1.0,0.0,6.0,6.0,709.1379170001346,1.0,1.0,phase_2,go,350.0,300.0,1.0,,,,,,,,,blue,triangle
0.0,4.0,4.0,0.0,6.0,6.0,602.7089560002423,1.0,1.0,phase_2,go,350.0,300.0,1.0,,,,,,,,,orange,cross
0.0,6.0,1.0,1.0,5.0,0.0,0.0,1.0,1.0,phase_2,stop,350.0,300.0,4.0,,,,,,,,,white,square
0.0,8.0,4.0,1.0,6.0,6.0,621.4319339997019,1.0,1.0,phase_2,go,400.0,300.0,1.0,,,,,,,,,cyan,flipped triangle
0.0,4.0,4.0,0.0,5.0,5.0,612.4139920002563,1.0,1.0,phase_2,go,400.0,300.0,1.0,,,,,,,,,orange,cross
0.0,7.0,2.0,1.0,5.0,5.0,480.2287799998339,1.0,1.0,phase_2,stop,400.0,300.0,3.0,,,,,,,,,gray,I
0.0,3.0,2.0,0.0,5.0,5.0,582.9521810001097,1.0,1.0,phase_2,go,350.0,300.0,1.0,,,,,,,,,green,diamond
0.0,4.0,4.0,0.0,6.0,6.0,716.8712229999983,1.0,1.0,phase_2,go,350.0,300.0,1.0,,,,,,,,,orange,cross
0.0,1.0,0.5,0.0,5.0,5.0,603.6532990001433,1.0,1.0,phase_2,go,350.0,300.0,1.0,,,,,,,,,yellow,circle
0.0,1.0,0.5,0.0,6.0,6.0,962.6993430001676,1.0,1.0,phase_2,go,350.0,300.0,1.0,,,,,,,,,yellow,circle
0.0,3.0,2.0,0.0,6.0,6.0,450.5178780000278,1.0,1.0,phase_2,go,350.0,300.0,1.0,,,,,,,,,green,diamond
0.0,6.0,1.0,1.0,5.0,0.0,0.0,1.0,1.0,phase_2,stop,350.0,300.0,4.0,,,,,,,,,white,square
0.0,8.0,4.0,1.0,5.0,0.0,0.0,1.0,1.0,phase_2,stop,400.0,300.0,4.0,,,,,,,,,cyan,flipped triangle
0.0,6.0,1.0,1.0,6.0,0.0,0.0,1.0,1.0,phase_2,stop,450.0,300.0,4.0,,,,,,,,,white,square
0.0,1.0,0.5,0.0,6.0,6.0,509.07762599990747,1.0,1.0,phase_2,go,450.0,350.0,1.0,,,,,,,,,yellow,circle
0.0,2.0,1.0,0.0,6.0,6.0,810.7166700001471,1.0,1.0,phase_2,go,450.0,350.0,1.0,,,,,,,,,blue,triangle
0.0,6.0,1.0,1.0,5.0,0.0,0.0,1.0,1.0,phase_2,stop,450.0,350.0,4.0,,,,,,,,,white,square
0.0,4.0,4.0,0.0,6.0,6.0,592.6370859997405,1.0,1.0,phase_2,go,500.0,350.0,1.0,,,,,,,,,orange,cross
0.0,8.0,4.0,1.0,6.0,6.0,753.2120340001711,1.0,1.0,phase_2,go,500.0,350.0,1.0,,,,,,,,,cyan,flipped triangle
0.0,4.0,4.0,0.0,5.0,5.0,851.3342300002478,1.0,1.0,phase_2,go,500.0,350.0,1.0,,,,,,,,,orange,cross
0.0,1.0,0.5,0.0,5.0,5.0,706.8175389999851,1.0,1.0,phase_2,go,500.0,350.0,1.0,,,,,,,,,yellow,circle
0.0,3.0,2.0,0.0,5.0,5.0,433.2041249999747,2.0,1.0,phase_2,go,500.0,350.0,1.0,,,,,,,,,green,diamond
0.0,8.0,4.0,1.0,6.0,6.0,406.3761540000996,2.0,1.0,phase_2,stop,500.0,350.0,3.0,,,,,,,,,cyan,flipped triangle
0.0,6.0,1.0,1.0,6.0,0.0,0.0,2.0,1.0,phase_2,stop,500.0,300.0,4.0,,,,,,,,,white,square
0.0,4.0,4.0,0.0,5.0,5.0,596.8323439997221,2.0,1.0,phase_2,go,500.0,350.0,1.0,,,,,,,,,orange,cross
0.0,8.0,4.0,1.0,5.0,5.0,666.8906849999985,2.0,1.0,phase_2,go,500.0,350.0,1.0,,,,,,,,,cyan,flipped triangle
0.0,1.0,0.5,0.0,5.0,5.0,619.9047269997209,2.0,1.0,phase_2,go,500.0,350.0,1.0,,,,,,,,,yellow,circle
0.0,3.0,2.0,0.0,5.0,5.0,555.4275909998978,2.0,1.0,phase_2,go,500.0,350.0,1.0,,,,,,,,,green,diamond
0.0,2.0,1.0,0.0,6.0,6.0,674.9663959999452,2.0,1.0,phase_2,go,500.0,350.0,1.0,,,,,,,,,blue,triangle
0.0,1.0,0.5,0.0,5.0,5.0,600.8320300002197,2.0,1.0,phase_2,go,500.0,350.0,1.0,,,,,,,,,yellow,circle
0.0,5.0,0.5,1.0,5.0,5.0,386.3039719999506,2.0,1.0,phase_2,stop,500.0,350.0,3.0,,,,,,,,,magenta,hexagon
0.0,5.0,0.5,1.0,6.0,0.0,0.0,2.0,1.0,phase_2,stop,450.0,350.0,4.0,,,,,,,,,magenta,hexagon
0.0,1.0,0.5,0.0,6.0,6.0,545.789615999638,2.0,1.0,phase_2,go,450.0,400.0,1.0,,,,,,,,,yellow,circle
0.0,3.0,2.0,0.0,6.0,6.0,604.2697010002485,2.0,1.0,phase_2,go,450.0,400.0,1.0,,,,,,,,,green,diamond
0.0,4.0,4.0,0.0,6.0,6.0,471.3644670000576,2.0,1.0,phase_2,go,450.0,400.0,1.0,,,,,,,,,orange,cross
0.0,2.0,1.0,0.0,6.0,6.0,526.2087169999177,2.0,1.0,phase_2,go,450.0,400.0,1.0,,,,,,,,,blue,triangle
0.0,5.0,0.5,1.0,5.0,0.0,0.0,2.0,1.0,phase_2,stop,450.0,400.0,4.0,,,,,,,,,magenta,hexagon
0.0,6.0,1.0,1.0,5.0,5.0,589.3920889998299,2.0,1.0,phase_2,stop,500.0,400.0,3.0,,,,,,,,,white,square
0.0,3.0,2.0,0.0,6.0,6.0,864.7093629997471,2.0,1.0,phase_2,go,450.0,400.0,1.0,,,,,,,,,green,diamond
0.0,4.0,4.0,0.0,6.0,6.0,1004.8046369997792,2.0,1.0,phase_2,go,450.0,400.0,1.0,,,,,,,,,orange,cross
0.0,3.0,2.0,0.0,6.0,6.0,564.4715660000656,2.0,1.0,phase_2,go,450.0,400.0,1.0,,,,,,,,,green,diamond
0.0,7.0,2.0,1.0,5.0,0.0,0.0,2.0,1.0,phase_2,stop,450.0,400.0,4.0,,,,,,,,,gray,I
0.0,3.0,2.0,0.0,5.0,5.0,753.572671999791,2.0,1.0,phase_2,go,500.0,400.0,1.0,,,,,,,,,green,diamond
0.0,7.0,2.0,1.0,6.0,0.0,0.0,2.0,1.0,phase_2,stop,500.0,400.0,4.0,,,,,,,,,gray,I
0.0,4.0,4.0,0.0,5.0,5.0,678.1246299997292,2.0,1.0,phase_2,go,500.0,450.0,1.0,,,,,,,,,orange,cross
0.0,2.0,1.0,0.0,5.0,5.0,725.6264309999096,2.0,1.0,phase_2,go,500.0,450.0,1.0,,,,,,,,,blue,triangle
0.0,6.0,1.0,1.0,5.0,0.0,0.0,2.0,1.0,phase_2,stop,500.0,450.0,4.0,,,,,,,,,white,square
0.0,7.0,2.0,1.0,5.0,5.0,760.1263629999266,2.0,1.0,phase_2,stop,550.0,450.0,3.0,,,,,,,,,gray,I
0.0,4.0,4.0,0.0,5.0,5.0,904.6451950002848,2.0,1.0,phase_2,go,500.0,450.0,1.0,,,,,,,,,orange,cross
0.0,5.0,0.5,1.0,5.0,5.0,667.3289880000084,2.0,1.0,phase_2,stop,500.0,450.0,3.0,,,,,,,,,magenta,hexagon
0.0,2.0,1.0,0.0,5.0,5.0,1074.023028999818,2.0,1.0,phase_2,go,450.0,450.0,1.0,,,,,,,,,blue,triangle
0.0,5.0,0.5,1.0,6.0,0.0,0.0,2.0,1.0,phase_2,stop,450.0,450.0,4.0,,,,,,,,,magenta,hexagon
0.0,2.0,1.0,0.0,6.0,6.0,866.8913069996051,2.0,1.0,phase_2,go,450.0,500.0,1.0,,,,,,,,,blue,triangle
0.0,5.0,0.5,1.0,5.0,0.0,0.0,2.0,1.0,phase_2,stop,450.0,500.0,4.0,,,,,,,,,magenta,hexagon
0.0,1.0,0.5,0.0,6.0,6.0,858.5029589999067,2.0,1.0,phase_2,go,500.0,500.0,1.0,,,,,,,,,yellow,circle
0.0,5.0,0.5,1.0,6.0,6.0,839.9903149997954,2.0,1.0,phase_2,go,500.0,500.0,1.0,,,,,,,,,magenta,hexagon
0.0,6.0,1.0,1.0,6.0,0.0,0.0,2.0,1.0,phase_2,stop,500.0,500.0,4.0,,,,,,,,,white,square
0.0,2.0,1.0,0.0,6.0,6.0,414.1755519999606,3.0,1.0,phase_2,go,500.0,550.0,1.0,,,,,,,,,blue,triangle
0.0,8.0,4.0,1.0,5.0,5.0,237.5452700002824,3.0,1.0,phase_2,stop,500.0,550.0,3.0,,,,,,,,,cyan,flipped triangle
0.0,6.0,1.0,1.0,5.0,5.0,577.0847120002145,3.0,1.0,phase_2,stop,450.0,550.0,3.0,,,,,,,,,white,square
0.0,7.0,2.0,1.0,5.0,0.0,0.0,3.0,1.0,phase_2,stop,400.0,550.0,4.0,,,,,,,,,gray,I
0.0,3.0,2.0,0.0,6.0,6.0,432.6214020002226,3.0,1.0,phase_2,go,450.0,550.0,1.0,,,,,,,,,green,diamond
0.0,4.0,4.0,0.0,6.0,6.0,611.0529340003268,3.0,1.0,phase_2,go,450.0,550.0,1.0,,,,,,,,,orange,cross
0.0,6.0,1.0,1.0,5.0,0.0,0.0,3.0,1.0,phase_2,stop,450.0,550.0,4.0,,,,,,,,,white,square
0.0,5.0,0.5,1.0,6.0,6.0,630.1758390000032,3.0,1.0,phase_2,stop,500.0,550.0,3.0,,,,,,,,,magenta,hexagon
0.0,2.0,1.0,0.0,6.0,6.0,752.1647639996445,3.0,1.0,phase_2,go,500.0,500.0,1.0,,,,,,,,,blue,triangle
0.0,2.0,1.0,0.0,6.0,6.0,734.1033489997244,3.0,1.0,phase_2,go,500.0,500.0,1.0,,,,,,,,,blue,triangle
0.0,5.0,0.5,1.0,6.0,0.0,0.0,3.0,1.0,phase_2,stop,500.0,500.0,4.0,,,,,,,,,magenta,hexagon
0.0,2.0,1.0,0.0,6.0,6.0,656.9481820001783,3.0,1.0,phase_2,go,500.0,550.0,1.0,,,,,,,,,blue,triangle
0.0,1.0,0.5,0.0,6.0,6.0,726.0827460004293,3.0,1.0,phase_2,go,500.0,550.0,1.0,,,,,,,,,yellow,circle
0.0,1.0,0.5,0.0,6.0,6.0,659.9033080001391,3.0,1.0,phase_2,go,500.0,550.0,1.0,,,,,,,,,yellow,circle
0.0,8.0,4.0,1.0,6.0,0.0,0.0,3.0,1.0,phase_2,stop,500.0,550.0,4.0,,,,,,,,,cyan,flipped triangle
0.0,6.0,1.0,1.0,5.0,0.0,0.0,3.0,1.0,phase_2,stop,500.0,600.0,4.0,,,,,,,,,white,square
0.0,2.0,1.0,0.0,5.0,5.0,602.1889429998737,3.0,1.0,phase_2,go,550.0,600.0,1.0,,,,,,,,,blue,triangle
0.0,2.0,1.0,0.0,6.0,6.0,893.900179999946,3.0,1.0,phase_2,go,550.0,600.0,1.0,,,,,,,,,blue,triangle
0.0,7.0,2.0,1.0,5.0,0.0,0.0,3.0,1.0,phase_2,stop,550.0,600.0,4.0,,,,,,,,,gray,I
0.0,1.0,0.5,0.0,6.0,6.0,669.3911200000002,3.0,1.0,phase_2,go,600.0,600.0,1.0,,,,,,,,,yellow,circle
0.0,8.0,4.0,1.0,5.0,5.0,662.8633850000369,3.0,1.0,phase_2,stop,600.0,600.0,3.0,,,,,,,,,cyan,flipped triangle
0.0,7.0,2.0,1.0,6.0,0.0,0.0,3.0,1.0,phase_2,stop,550.0,600.0,4.0,,,,,,,,,gray,I
0.0,1.0,0.5,0.0,6.0,6.0,733.577521999905,3.0,1.0,phase_2,go,550.0,650.0,1.0,,,,,,,,,yellow,circle
0.0,6.0,1.0,1.0,5.0,5.0,640.4064300004393,3.0,1.0,phase_2,go,550.0,650.0,1.0,,,,,,,,,white,square
0.0,2.0,1.0,0.0,6.0,6.0,818.0219969999598,3.0,1.0,phase_2,go,550.0,650.0,1.0,,,,,,,,,blue,triangle
0.0,6.0,1.0,1.0,5.0,5.0,743.143001000135,3.0,1.0,phase_2,go,550.0,650.0,1.0,,,,,,,,,white,square
0.0,8.0,4.0,1.0,6.0,6.0,562.9116129998692,3.0,1.0,phase_2,stop,550.0,650.0,3.0,,,,,,,,,cyan,flipped triangle
0.0,8.0,4.0,1.0,6.0,0.0,0.0,3.0,1.0,phase_2,stop,550.0,600.0,4.0,,,,,,,,,cyan,flipped triangle
0.0,3.0,2.0,0.0,5.0,5.0,902.826498000195,3.0,1.0,phase_2,go,550.0,650.0,1.0,,,,,,,,,green,diamond
0.0,7.0,2.0,1.0,5.0,0.0,0.0,3.0,1.0,phase_2,stop,550.0,650.0,4.0,,,,,,,,,gray,I
0.0,1.0,0.5,0.0,6.0,6.0,734.6892420000586,3.0,1.0,phase_2,go,600.0,650.0,1.0,,,,,,,,,yellow,circle
0.0,7.0,2.0,1.0,5.0,0.0,0.0,3.0,1.0,phase_2,stop,600.0,650.0,4.0,,,,,,,,,gray,I
0.0,6.0,1.0,1.0,6.0,6.0,789.5928469997671,3.0,1.0,phase_2,go,650.0,650.0,1.0,,,,,,,,,white,square
0.0,7.0,2.0,1.0,6.0,6.0,865.4014130001997,3.0,1.0,phase_2,stop,650.0,650.0,3.0,,,,,,,,,gray,I
0.0,8.0,4.0,1.0,5.0,0.0,0.0,3.0,1.0,phase_2,stop,650.0,600.0,4.0,,,,,,,,,cyan,flipped triangle
0.0,3.0,2.0,0.0,6.0,6.0,884.1880429999947,3.0,1.0,phase_2,go,700.0,600.0,1.0,,,,,,,,,green,diamond
0.0,8.0,4.0,1.0,5.0,5.0,367.5886490000266,4.0,1.0,phase_2,stop,700.0,600.0,3.0,,,,,,,,,cyan,flipped triangle
0.0,7.0,2.0,1.0,5.0,5.0,640.5535599997165,4.0,1.0,phase_2,stop,650.0,600.0,3.0,,,,,,,,,gray,I
0.0,7.0,2.0,1.0,5.0,0.0,0.0,4.0,1.0,phase_2,stop,600.0,600.0,4.0,,,,,,,,,gray,I
0.0,2.0,1.0,0.0,5.0,5.0,556.550887999947,4.0,1.0,phase_2,go,650.0,600.0,1.0,,,,,,,,,blue,triangle
0.0,5.0,0.5,1.0,5.0,5.0,702.7221650000683,4.0,1.0,phase_2,stop,650.0,600.0,3.0,,,,,,,,,magenta,hexagon
0.0,5.0,0.5,1.0,5.0,5.0,884.5678640000187,4.0,1.0,phase_2,go,600.0,600.0,1.0,,,,,,,,,magenta,hexagon
0.0,4.0,4.0,0.0,6.0,6.0,800.5379200003517,4.0,1.0,phase_2,go,600.0,600.0,1.0,,,,,,,,,orange,cross
0.0,7.0,2.0,1.0,5.0,5.0,760.5517839997447,4.0,1.0,phase_2,stop,600.0,600.0,3.0,,,,,,,,,gray,I
0.0,3.0,2.0,0.0,5.0,5.0,838.6135929999909,4.0,1.0,phase_2,go,550.0,600.0,1.0,,,,,,,,,green,diamond
0.0,3.0,2.0,0.0,6.0,6.0,566.1537720002343,4.0,1.0,phase_2,go,550.0,600.0,1.0,,,,,,,,,green,diamond
0.0,7.0,2.0,1.0,5.0,5.0,320.4062009999688,4.0,1.0,phase_2,go,550.0,600.0,1.0,,,,,,,,,gray,I
0.0,3.0,2.0,0.0,5.0,5.0,444.4712389999949,4.0,1.0,phase_2,go,550.0,600.0,1.0,,,,,,,,,green,diamond
0.0,5.0,0.5,1.0,5.0,5.0,598.429016999944,4.0,1.0,phase_2,stop,550.0,600.0,3.0,,,,,,,,,magenta,hexagon
0.0,6.0,1.0,1.0,6.0,6.0,557.1212700001524,4.0,1.0,phase_2,stop,500.0,600.0,3.0,,,,,,,,,white,square
0.0,6.0,1.0,1.0,5.0,0.0,0.0,4.0,1.0,phase_2,stop,500.0,550.0,4.0,,,,,,,,,white,square
0.0,4.0,4.0,0.0,6.0,6.0,650.8230019999246,4.0,1.0,phase_2,go,550.0,550.0,1.0,,,,,,,,,orange,cross
0.0,5.0,0.5,1.0,6.0,0.0,0.0,4.0,1.0,phase_2,stop,550.0,550.0,4.0,,,,,,,,,magenta,hexagon
0.0,6.0,1.0,1.0,5.0,5.0,348.2193429999825,4.0,1.0,phase_2,stop,550.0,600.0,3.0,,,,,,,,,white,square
0.0,8.0,4.0,1.0,5.0,0.0,0.0,4.0,1.0,phase_2,stop,500.0,600.0,4.0,,,,,,,,,cyan,flipped triangle
0.0,1.0,0.5,0.0,6.0,6.0,818.4408340002847,4.0,1.0,phase_2,go,550.0,600.0,1.0,,,,,,,,,yellow,circle
0.0,8.0,4.0,1.0,6.0,6.0,790.0445369996305,4.0,1.0,phase_2,stop,550.0,600.0,3.0,,,,,,,,,cyan,flipped triangle
0.0,5.0,0.5,1.0,5.0,0.0,0.0,4.0,1.0,phase_2,stop,550.0,550.0,4.0,,,,,,,,,magenta,hexagon
0.0,5.0,0.5,1.0,6.0,0.0,0.0,4.0,1.0,phase_2,stop,600.0,550.0,4.0,,,,,,,,,magenta,hexagon
0.0,7.0,2.0,1.0,6.0,6.0,821.4238390000901,4.0,1.0,phase_2,go,600.0,600.0,1.0,,,,,,,,,gray,I
0.0,8.0,4.0,1.0,5.0,5.0,744.3585169999096,4.0,1.0,phase_2,stop,600.0,600.0,3.0,,,,,,,,,cyan,flipped triangle
0.0,2.0,1.0,0.0,5.0,5.0,911.912580000262,4.0,1.0,phase_2,go,550.0,600.0,1.0,,,,,,,,,blue,triangle
0.0,2.0,1.0,0.0,5.0,5.0,977.9758959998616,4.0,1.0,phase_2,go,550.0,600.0,1.0,,,,,,,,,blue,triangle
0.0,7.0,2.0,1.0,6.0,6.0,647.5842249997186,4.0,1.0,phase_2,stop,550.0,600.0,3.0,,,,,,,,,gray,I
0.0,5.0,0.5,1.0,5.0,5.0,419.5345969997106,4.0,1.0,phase_2,stop,550.0,550.0,3.0,,,,,,,,,magenta,hexagon
0.0,5.0,0.5,1.0,6.0,0.0,0.0,4.0,1.0,phase_2,stop,500.0,550.0,4.0,,,,,,,,,magenta,hexagon
0.0,3.0,2.0,0.0,5.0,5.0,837.8965609999796,4.0,1.0,phase_2,go,500.0,600.0,1.0,,,,,,,,,green,diamond
0.0,2.0,1.0,0.0,6.0,6.0,687.7266989999953,4.0,1.0,phase_2,go,500.0,600.0,1.0,,,,,,,,,blue,triangle
0.0,3.0,2.0,0.0,6.0,6.0,726.3485210000908,4.0,1.0,phase_2,go,500.0,600.0,1.0,,,,,,,,,green,diamond
0.0,6.0,1.0,1.0,6.0,6.0,546.8341720002172,4.0,1.0,phase_2,stop,500.0,600.0,3.0,,,,,,,,,white,square
0.0,1.0,0.5,0.0,5.0,5.0,763.6183499998879,4.0,1.0,phase_2,go,500.0,550.0,1.0,,,,,,,,,yellow,circle
0.0,7.0,2.0,1.0,5.0,5.0,464.912029000061,4.0,1.0,phase_2,go,500.0,550.0,1.0,,,,,,,,,gray,I
0.0,7.0,2.0,1.0,5.0,5.0,557.3269260003144,5.0,1.0,phase_2,stop,500.0,550.0,3.0,,,,,,,,,gray,I
0.0,3.0,2.0,0.0,5.0,5.0,366.5015719998337,5.0,1.0,phase_2,go,450.0,550.0,1.0,,,,,,,,,green,diamond
0.0,4.0,4.0,0.0,5.0,5.0,460.3301000006468,5.0,1.0,phase_2,go,450.0,550.0,1.0,,,,,,,,,orange,cross
0.0,6.0,1.0,1.0,5.0,5.0,590.8517210000355,5.0,1.0,phase_2,stop,450.0,550.0,3.0,,,,,,,,,white,square
0.0,3.0,2.0,0.0,5.0,5.0,630.472980000377,5.0,1.0,phase_2,go,400.0,550.0,1.0,,,,,,,,,green,diamond
0.0,8.0,4.0,1.0,5.0,5.0,376.3836979996995,5.0,1.0,phase_2,stop,400.0,550.0,3.0,,,,,,,,,cyan,flipped triangle
0.0,4.0,4.0,0.0,5.0,5.0,819.4768590001331,5.0,1.0,phase_2,go,350.0,550.0,1.0,,,,,,,,,orange,cross
0.0,1.0,0.5,0.0,5.0,5.0,582.4203499996656,5.0,1.0,phase_2,go,350.0,550.0,1.0,,,,,,,,,yellow,circle
0.0,6.0,1.0,1.0,5.0,5.0,638.2045600003039,5.0,1.0,phase_2,go,350.0,550.0,1.0,,,,,,,,,white,square
0.0,8.0,4.0,1.0,6.0,6.0,442.7738570002475,5.0,1.0,phase_2,go,350.0,550.0,1.0,,,,,,,,,cyan,flipped triangle
0.0,5.0,0.5,1.0,6.0,6.0,245.9387510007218,5.0,1.0,phase_2,stop,350.0,550.0,3.0,,,,,,,,,magenta,hexagon
0.0,6.0,1.0,1.0,6.0,6.0,584.1120069999306,5.0,1.0,phase_2,go,350.0,500.0,1.0,,,,,,,,,white,square
0.0,3.0,2.0,0.0,6.0,6.0,545.6685549997928,5.0,1.0,phase_2,go,350.0,500.0,1.0,,,,,,,,,green,diamond
0.0,8.0,4.0,1.0,5.0,0.0,0.0,5.0,1.0,phase_2,stop,350.0,500.0,4.0,,,,,,,,,cyan,flipped triangle
0.0,7.0,2.0,1.0,6.0,6.0,554.5422300001519,5.0,1.0,phase_2,stop,400.0,500.0,3.0,,,,,,,,,gray,I
0.0,6.0,1.0,1.0,6.0,0.0,0.0,5.0,1.0,phase_2,stop,400.0,450.0,4.0,,,,,,,,,white,square
0.0,3.0,2.0,0.0,5.0,5.0,339.5014119996631,5.0,1.0,phase_2,go,400.0,500.0,1.0,,,,,,,,,green,diamond
0.0,6.0,1.0,1.0,5.0,5.0,638.2012429994575,5.0,1.0,phase_2,go,400.0,500.0,1.0,,,,,,,,,white,square
0.0,8.0,4.0,1.0,6.0,6.0,367.9014399995139,5.0,1.0,phase_2,stop,400.0,500.0,3.0,,,,,,,,,cyan,flipped triangle
0.0,2.0,1.0,0.0,6.0,6.0,773.3013130000472,5.0,1.0,phase_2,go,400.0,450.0,1.0,,,,,,,,,blue,triangle
0.0,5.0,0.5,1.0,6.0,0.0,0.0,5.0,1.0,phase_2,stop,400.0,450.0,4.0,,,,,,,,,magenta,hexagon
0.0,7.0,2.0,1.0,6.0,0.0,0.0,5.0,1.0,phase_2,stop,400.0,500.0,4.0,,,,,,,,,gray,I
0.0,4.0,4.0,0.0,6.0,6.0,857.5993169997673,5.0,1.0,phase_2,go,400.0,550.0,1.0,,,,,,,,,orange,cross
0.0,8.0,4.0,1.0,5.0,5.0,687.672771000507,5.0,1.0,phase_2,go,400.0,550.0,1.0,,,,,,,,,cyan,flipped triangle
0.0,1.0,0.5,0.0,5.0,5.0,573.5846959996707,5.0,1.0,phase_2,go,400.0,550.0,1.0,,,,,,,,,yellow,circle
0.0,4.0,4.0,0.0,6.0,6.0,566.0530900004233,5.0,1.0,phase_2,go,400.0,550.0,1.0,,,,,,,,,orange,cross
0.0,7.0,2.0,1.0,6.0,6.0,377.9844020000382,5.0,1.0,phase_2,stop,400.0,550.0,3.0,,,,,,,,,gray,I
0.0,6.0,1.0,1.0,6.0,6.0,630.1112470000589,5.0,1.0,phase_2,stop,400.0,500.0,3.0,,,,,,,,,white,square
0.0,3.0,2.0,0.0,5.0,5.0,659.1810749996512,5.0,1.0,phase_2,go,400.0,450.0,1.0,,,,,,,,,green,diamond
0.0,5.0,0.5,1.0,6.0,6.0,716.7126929998631,5.0,1.0,phase_2,go,400.0,450.0,1.0,,,,,,,,,magenta,hexagon
0.0,1.0,0.5,0.0,6.0,6.0,405.554652000319,5.0,1.0,phase_2,go,400.0,450.0,1.0,,,,,,,,,yellow,circle
0.0,6.0,1.0,1.0,5.0,5.0,529.7409619997779,5.0,1.0,phase_2,stop,400.0,450.0,3.0,,,,,,,,,white,square
0.0,4.0,4.0,0.0,5.0,5.0,357.8412639999442,5.0,1.0,phase_2,go,350.0,450.0,1.0,,,,,,,,,orange,cross
0.0,7.0,2.0,1.0,6.0,6.0,753.7079989997437,5.0,1.0,phase_2,go,350.0,450.0,1.0,,,,,,,,,gray,I
0.0,2.0,1.0,0.0,6.0,6.0,630.6964139994307,5.0,1.0,phase_2,go,350.0,450.0,1.0,,,,,,,,,blue,triangle
0.0,8.0,4.0,1.0,6.0,6.0,595.1011229999494,5.0,1.0,phase_2,stop,350.0,450.0,3.0,,,,,,,,,cyan,flipped triangle
0.0,3.0,2.0,0.0,6.0,6.0,382.4426080000194,6.0,1.0,phase_2,go,350.0,400.0,1.0,,,,,,,,,green,diamond
0.0,7.0,2.0,1.0,5.0,5.0,404.0691440004593,6.0,1.0,phase_2,stop,350.0,400.0,3.0,,,,,,,,,gray,I
0.0,2.0,1.0,0.0,5.0,5.0,574.5213959999091,6.0,1.0,phase_2,go,300.0,400.0,1.0,,,,,,,,,blue,triangle
0.0,2.0,1.0,0.0,5.0,5.0,595.3185460002715,6.0,1.0,phase_2,go,300.0,400.0,1.0,,,,,,,,,blue,triangle
0.0,4.0,4.0,0.0,6.0,6.0,498.5612939999555,6.0,1.0,phase_2,go,300.0,400.0,1.0,,,,,,,,,orange,cross
0.0,7.0,2.0,1.0,6.0,6.0,359.1029650006021,6.0,1.0,phase_2,go,300.0,400.0,1.0,,,,,,,,,gray,I
0.0,1.0,0.5,0.0,5.0,5.0,450.5463900004542,6.0,1.0,phase_2,go,300.0,400.0,1.0,,,,,,,,,yellow,circle
0.0,3.0,2.0,0.0,6.0,6.0,535.074311000244,6.0,1.0,phase_2,go,300.0,400.0,1.0,,,,,,,,,green,diamond
0.0,6.0,1.0,1.0,6.0,6.0,517.7050799993594,6.0,1.0,phase_2,go,300.0,400.0,1.0,,,,,,,,,white,square
0.0,2.0,1.0,0.0,5.0,5.0,366.6069370001423,6.0,1.0,phase_2,go,300.0,400.0,1.0,,,,,,,,,blue,triangle
0.0,8.0,4.0,1.0,6.0,6.0,348.4935260003112,6.0,1.0,phase_2,stop,300.0,400.0,3.0,,,,,,,,,cyan,flipped triangle
0.0,8.0,4.0,1.0,6.0,6.0,563.1803780006521,6.0,1.0,phase_2,stop,300.0,350.0,3.0,,,,,,,,,cyan,flipped triangle
0.0,5.0,0.5,1.0,5.0,0.0,0.0,6.0,1.0,phase_2,stop,300.0,300.0,4.0,,,,,,,,,magenta,hexagon
0.0,2.0,1.0,0.0,5.0,5.0,633.1015279993153,6.0,1.0,phase_2,go,350.0,300.0,1.0,,,,,,,,,blue,triangle
0.0,5.0,0.5,1.0,6.0,6.0,659.6209059998728,6.0,1.0,phase_2,go,350.0,300.0,1.0,,,,,,,,,magenta,hexagon
0.0,2.0,1.0,0.0,6.0,6.0,593.5752129998946,6.0,1.0,phase_2,go,350.0,300.0,1.0,,,,,,,,,blue,triangle
0.0,5.0,0.5,1.0,5.0,0.0,0.0,6.0,1.0,phase_2,stop,350.0,300.0,4.0,,,,,,,,,magenta,hexagon
0.0,3.0,2.0,0.0,6.0,6.0,254.5659360002901,6.0,1.0,phase_2,go,400.0,300.0,1.0,,,,,,,,,green,diamond
0.0,8.0,4.0,1.0,5.0,5.0,542.2060370001418,6.0,1.0,phase_2,stop,400.0,300.0,3.0,,,,,,,,,cyan,flipped triangle
0.0,8.0,4.0,1.0,5.0,0.0,0.0,6.0,1.0,phase_2,stop,350.0,300.0,4.0,,,,,,,,,cyan,flipped triangle
0.0,6.0,1.0,1.0,6.0,6.0,564.4228719993407,6.0,1.0,phase_2,go,400.0,300.0,1.0,,,,,,,,,white,square
0.0,3.0,2.0,0.0,5.0,5.0,761.9235530000878,6.0,1.0,phase_2,go,400.0,300.0,1.0,,,,,,,,,green,diamond
0.0,4.0,4.0,0.0,5.0,5.0,659.0026060002856,6.0,1.0,phase_2,go,400.0,300.0,1.0,,,,,,,,,orange,cross
0.0,5.0,0.5,1.0,6.0,0.0,0.0,6.0,1.0,phase_2,stop,400.0,300.0,4.0,,,,,,,,,magenta,hexagon
0.0,3.0,2.0,0.0,5.0,5.0,433.102377999603,6.0,1.0,phase_2,go,400.0,350.0,1.0,,,,,,,,,green,diamond
0.0,6.0,1.0,1.0,5.0,5.0,310.6524469994838,6.0,1.0,phase_2,stop,400.0,350.0,3.0,,,,,,,,,white,square
0.0,1.0,0.5,0.0,5.0,5.0,366.7425660005392,6.0,1.0,phase_2,go,350.0,350.0,1.0,,,,,,,,,yellow,circle
0.0,4.0,4.0,0.0,6.0,6.0,281.9073250002475,6.0,1.0,phase_2,go,350.0,350.0,1.0,,,,,,,,,orange,cross
0.0,2.0,1.0,0.0,5.0,5.0,225.5720970006223,6.0,1.0,phase_2,go,350.0,350.0,1.0,,,,,,,,,blue,triangle
0.0,4.0,4.0,0.0,5.0,5.0,321.156609999889,6.0,1.0,phase_2,go,350.0,350.0,1.0,,,,,,,,,orange,cross
0.0,4.0,4.0,0.0,5.0,5.0,563.2060979996822,6.0,1.0,phase_2,go,350.0,350.0,1.0,,,,,,,,,orange,cross
0.0,8.0,4.0,1.0,6.0,6.0,425.2268740001454,6.0,1.0,phase_2,stop,350.0,350.0,3.0,,,,,,,,,cyan,flipped triangle
0.0,2.0,1.0,0.0,5.0,5.0,555.4867270002433,6.0,1.0,phase_2,go,350.0,300.0,1.0,,,,,,,,,blue,triangle
0.0,2.0,1.0,0.0,5.0,5.0,319.5726019994254,6.0,1.0,phase_2,go,350.0,300.0,1.0,,,,,,,,,blue,triangle
0.0,4.0,4.0,0.0,6.0,6.0,339.0026199995191,6.0,1.0,phase_2,go,350.0,300.0,1.0,,,,,,,,,orange,cross
0.0,5.0,0.5,1.0,6.0,6.0,386.9492100002389,6.0,1.0,phase_2,go,350.0,300.0,1.0,,,,,,,,,magenta,hexagon
0.0,1.0,0.5,0.0,5.0,5.0,282.3498779998772,7.0,1.0,phase_2,go,350.0,300.0,1.0,,,,,,,,,yellow,circle
0.0,1.0,0.5,0.0,5.0,5.0,227.6664080000046,7.0,1.0,phase_2,go,350.0,300.0,1.0,,,,,,,,,yellow,circle
0.0,4.0,4.0,0.0,6.0,6.0,291.0355450003408,7.0,1.0,phase_2,go,350.0,300.0,1.0,,,,,,,,,orange,cross
0.0,7.0,2.0,1.0,6.0,6.0,338.3975160004411,7.0,1.0,phase_2,stop,350.0,300.0,3.0,,,,,,,,,gray,I
0.0,8.0,4.0,1.0,6.0,6.0,329.047984000681,7.0,1.0,phase_2,go,350.0,250.0,1.0,,,,,,,,,cyan,flipped triangle
0.0,1.0,0.5,0.0,5.0,5.0,497.8061700003309,7.0,1.0,phase_2,go,350.0,250.0,1.0,,,,,,,,,yellow,circle
0.0,1.0,0.5,0.0,5.0,5.0,309.9308009996093,7.0,1.0,phase_2,go,350.0,250.0,1.0,,,,,,,,,yellow,circle
0.0,3.0,2.0,0.0,5.0,5.0,329.7955189991626,7.0,1.0,phase_2,go,350.0,250.0,1.0,,,,,,,,,green,diamond
0.0,4.0,4.0,0.0,5.0,5.0,300.3373559995452,7.0,1.0,phase_2,go,350.0,250.0,1.0,,,,,,,,,orange,cross
0.0,4.0,4.0,0.0,5.0,5.0,498.6456380001982,7.0,1.0,phase_2,go,350.0,250.0,1.0,,,,,,,,,orange,cross
0.0,3.0,2.0,0.0,6.0,6.0,414.419036000254,7.0,1.0,phase_2,go,350.0,250.0,1.0,,,,,,,,,green,diamond
0.0,2.0,1.0,0.0,6.0,6.0,357.5886830003583,7.0,1.0,phase_2,go,350.0,250.0,1.0,,,,,,,,,blue,triangle
0.0,8.0,4.0,1.0,6.0,6.0,340.0202620005075,7.0,1.0,phase_2,stop,350.0,250.0,3.0,,,,,,,,,cyan,flipped triangle
0.0,5.0,0.5,1.0,5.0,0.0,0.0,7.0,1.0,phase_2,stop,350.0,200.0,4.0,,,,,,,,,magenta,hexagon
0.0,3.0,2.0,0.0,5.0,5.0,423.5821140000553,7.0,1.0,phase_2,go,400.0,200.0,1.0,,,,,,,,,green,diamond
0.0,1.0,0.5,0.0,6.0,6.0,367.23323500064,7.0,1.0,phase_2,go,400.0,200.0,1.0,,,,,,,,,yellow,circle
0.0,6.0,1.0,1.0,6.0,6.0,360.4396549999364,7.0,1.0,phase_2,stop,400.0,200.0,3.0,,,,,,,,,white,square
0.0,3.0,2.0,0.0,6.0,6.0,601.5469610001674,7.0,1.0,phase_2,go,400.0,150.0,1.0,,,,,,,,,green,diamond
0.0,5.0,0.5,1.0,6.0,0.0,0.0,7.0,1.0,phase_2,stop,400.0,150.0,4.0,,,,,,,,,magenta,hexagon
0.0,3.0,2.0,0.0,5.0,5.0,328.605859000163,7.0,1.0,phase_2,go,400.0,200.0,1.0,,,,,,,,,green,diamond
0.0,1.0,0.5,0.0,5.0,5.0,357.1938380000574,7.0,1.0,phase_2,go,400.0,200.0,1.0,,,,,,,,,yellow,circle
0.0,2.0,1.0,0.0,6.0,6.0,235.240256999532,7.0,1.0,phase_2,go,400.0,200.0,1.0,,,,,,,,,blue,triangle
0.0,7.0,2.0,1.0,6.0,6.0,303.517090999776,7.0,1.0,phase_2,stop,400.0,200.0,3.0,,,,,,,,,gray,I
0.0,4.0,4.0,0.0,5.0,5.0,405.043728000237,7.0,1.0,phase_2,go,400.0,150.0,1.0,,,,,,,,,orange,cross
0.0,2.0,1.0,0.0,6.0,6.0,508.831545999783,7.0,1.0,phase_2,go,400.0,150.0,1.0,,,,,,,,,blue,triangle
0.0,8.0,4.0,1.0,5.0,5.0,480.1313920006578,7.0,1.0,phase_2,go,400.0,150.0,1.0,,,,,,,,,cyan,flipped triangle
0.0,3.0,2.0,0.0,5.0,5.0,433.3708399999523,7.0,1.0,phase_2,go,400.0,150.0,1.0,,,,,,,,,green,diamond
0.0,6.0,1.0,1.0,6.0,6.0,499.0321000004769,7.0,1.0,phase_2,go,400.0,150.0,1.0,,,,,,,,,white,square
0.0,4.0,4.0,0.0,6.0,6.0,435.2450420001332,7.0,1.0,phase_2,go,400.0,150.0,1.0,,,,,,,,,orange,cross
0.0,7.0,2.0,1.0,5.0,5.0,415.1774290003232,7.0,1.0,phase_2,go,400.0,150.0,1.0,,,,,,,,,gray,I
0.0,3.0,2.0,0.0,6.0,6.0,384.6151919997282,7.0,1.0,phase_2,go,400.0,150.0,1.0,,,,,,,,,green,diamond
0.0,5.0,0.5,1.0,5.0,5.0,291.411932000301,7.0,1.0,phase_2,stop,400.0,150.0,3.0,,,,,,,,,magenta,hexagon
0.0,6.0,1.0,1.0,6.0,6.0,244.6693379997668,7.0,1.0,phase_2,stop,350.0,150.0,3.0,,,,,,,,,white,square
0.0,4.0,4.0,0.0,5.0,5.0,460.5577350002932,7.0,1.0,phase_2,go,350.0,100.0,1.0,,,,,,,,,orange,cross
0.0,8.0,4.0,1.0,6.0,0.0,0.0,7.0,1.0,phase_2,stop,350.0,100.0,4.0,,,,,,,,,cyan,flipped triangle
0.0,5.0,0.5,1.0,5.0,5.0,435.353951000252,7.0,1.0,phase_2,stop,350.0,150.0,3.0,,,,,,,,,magenta,hexagon
0.0,8.0,4.0,1.0,5.0,0.0,0.0,8.0,1.0,phase_2,stop,300.0,150.0,4.0,,,,,,,,,cyan,flipped triangle
0.0,1.0,0.5,0.0,6.0,6.0,405.0777049997123,8.0,1.0,phase_2,go,350.0,150.0,1.0,,,,,,,,,yellow,circle
0.0,5.0,0.5,1.0,5.0,5.0,498.0940660007036,8.0,1.0,phase_2,stop,350.0,150.0,3.0,,,,,,,,,magenta,hexagon
0.0,3.0,2.0,0.0,6.0,6.0,528.7283609995939,8.0,1.0,phase_2,go,300.0,150.0,1.0,,,,,,,,,green,diamond
0.0,3.0,2.0,0.0,6.0,6.0,640.5767229998673,8.0,1.0,phase_2,go,300.0,150.0,1.0,,,,,,,,,green,diamond
0.0,4.0,4.0,0.0,6.0,6.0,470.5053590005263,8.0,1.0,phase_2,go,300.0,150.0,1.0,,,,,,,,,orange,cross
0.0,5.0,0.5,1.0,6.0,0.0,0.0,8.0,1.0,phase_2,stop,300.0,150.0,4.0,,,,,,,,,magenta,hexagon
0.0,5.0,0.5,1.0,6.0,6.0,557.0374409999204,8.0,1.0,phase_2,go,300.0,200.0,1.0,,,,,,,,,magenta,hexagon
0.0,8.0,4.0,1.0,6.0,0.0,0.0,8.0,1.0,phase_2,stop,300.0,200.0,4.0,,,,,,,,,cyan,flipped triangle
0.0,5.0,0.5,1.0,5.0,5.0,678.1124299996009,8.0,1.0,phase_2,go,300.0,250.0,1.0,,,,,,,,,magenta,hexagon
0.0,4.0,4.0,0.0,6.0,6.0,641.3073090006947,8.0,1.0,phase_2,go,300.0,250.0,1.0,,,,,,,,,orange,cross
0.0,6.0,1.0,1.0,5.0,0.0,0.0,8.0,1.0,phase_2,stop,300.0,250.0,4.0,,,,,,,,,white,square
0.0,1.0,0.5,0.0,6.0,6.0,443.9612920004947,8.0,1.0,phase_2,go,350.0,250.0,1.0,,,,,,,,,yellow,circle
0.0,6.0,1.0,1.0,6.0,0.0,0.0,8.0,1.0,phase_2,stop,350.0,250.0,4.0,,,,,,,,,white,square
0.0,7.0,2.0,1.0,6.0,0.0,0.0,8.0,1.0,phase_2,stop,350.0,300.0,4.0,,,,,,,,,gray,I
0.0,1.0,0.5,0.0,5.0,5.0,595.0041790001706,8.0,1.0,phase_2,go,350.0,350.0,1.0,,,,,,,,,yellow,circle
0.0,6.0,1.0,1.0,6.0,0.0,0.0,8.0,1.0,phase_2,stop,350.0,350.0,4.0,,,,,,,,,white,square
0.0,1.0,0.5,0.0,5.0,5.0,584.2135100001542,8.0,1.0,phase_2,go,350.0,400.0,1.0,,,,,,,,,yellow,circle
0.0,1.0,0.5,0.0,6.0,6.0,480.7231690001572,8.0,1.0,phase_2,go,350.0,400.0,1.0,,,,,,,,,yellow,circle
0.0,8.0,4.0,1.0,5.0,0.0,0.0,8.0,1.0,phase_2,stop,350.0,400.0,4.0,,,,,,,,,cyan,flipped triangle
0.0,4.0,4.0,0.0,5.0,5.0,583.5532519995468,8.0,1.0,phase_2,go,400.0,400.0,1.0,,,,,,,,,orange,cross
0.0,8.0,4.0,1.0,5.0,5.0,581.9898829995509,8.0,1.0,phase_2,stop,400.0,400.0,3.0,,,,,,,,,cyan,flipped triangle
0.0,8.0,4.0,1.0,5.0,5.0,706.0749100000976,8.0,1.0,phase_2,go,350.0,400.0,1.0,,,,,,,,,cyan,flipped triangle
0.0,6.0,1.0,1.0,6.0,0.0,0.0,8.0,1.0,phase_2,stop,350.0,400.0,4.0,,,,,,,,,white,square
0.0,7.0,2.0,1.0,6.0,6.0,609.0105060002315,8.0,1.0,phase_2,stop,350.0,450.0,3.0,,,,,,,,,gray,I
0.0,2.0,1.0,0.0,5.0,5.0,696.5507260001687,8.0,1.0,phase_2,go,350.0,400.0,1.0,,,,,,,,,blue,triangle
0.0,6.0,1.0,1.0,6.0,0.0,0.0,8.0,1.0,phase_2,stop,350.0,400.0,4.0,,,,,,,,,white,square
0.0,5.0,0.5,1.0,6.0,6.0,697.5560830005634,8.0,1.0,phase_2,go,350.0,450.0,1.0,,,,,,,,,magenta,hexagon
0.0,7.0,2.0,1.0,6.0,0.0,0.0,8.0,1.0,phase_2,stop,350.0,450.0,4.0,,,,,,,,,gray,I
0.0,2.0,1.0,0.0,5.0,5.0,742.5976380000066,8.0,1.0,phase_2,go,350.0,500.0,1.0,,,,,,,,,blue,triangle
0.0,2.0,1.0,0.0,5.0,5.0,915.2473730000564,8.0,1.0,phase_2,go,350.0,500.0,1.0,,,,,,,,,blue,triangle
0.0,1.0,0.5,0.0,6.0,6.0,622.5621080002384,8.0,1.0,phase_2,go,350.0,500.0,1.0,,,,,,,,,yellow,circle
0.0,2.0,1.0,0.0,5.0,5.0,724.1483870002412,8.0,1.0,phase_2,go,350.0,500.0,1.0,,,,,,,,,blue,triangle
0.0,4.0,4.0,0.0,5.0,5.0,602.1349070006181,8.0,1.0,phase_2,go,350.0,500.0,1.0,,,,,,,,,orange,cross
0.0,4.0,4.0,0.0,6.0,6.0,667.8386879993923,8.0,1.0,phase_2,go,350.0,500.0,1.0,,,,,,,,,orange,cross
0.0,7.0,2.0,1.0,6.0,6.0,349.2990080003437,8.0,1.0,phase_2,stop,350.0,500.0,3.0,,,,,,,,,gray,I
0.0,6.0,1.0,1.0,7.0,4.0,2598.8700160005465,1.0,1.0,phase_3,,,,,346.0,2.0,173.0,1038.0,692.0,346.0,865.0,519.0,white,square
0.0,7.0,2.0,1.0,7.0,5.0,2649.5709470000293,1.0,1.0,phase_3,,,,,308.0,2.0,616.0,154.0,770.0,462.0,308.0,924.0,gray,I
0.0,5.0,0.5,1.0,7.0,6.0,2393.378163999841,1.0,1.0,phase_3,,,,,270.0,2.0,540.0,135.0,405.0,810.0,675.0,270.0,magenta,hexagon
0.0,2.0,1.0,0.0,7.0,3.0,2739.629038999737,1.0,1.0,phase_3,,,,,696.0,6.0,116.0,232.0,696.0,580.0,348.0,464.0,blue,triangle
0.0,7.0,2.0,1.0,7.0,2.0,3203.411220999442,1.0,1.0,phase_3,,,,,270.0,2.0,540.0,270.0,135.0,405.0,810.0,675.0,gray,I
0.0,3.0,2.0,0.0,7.0,2.0,2898.314489999393,1.0,1.0,phase_3,,,,,1038.0,6.0,519.0,1038.0,346.0,173.0,692.0,865.0,green,diamond
0.0,1.0,0.5,0.0,7.0,3.0,2285.766875999798,1.0,1.0,phase_3,,,,,135.0,1.0,405.0,810.0,135.0,540.0,270.0,675.0,yellow,circle
0.0,3.0,2.0,0.0,7.0,2.0,3089.453687999594,1.0,1.0,phase_3,,,,,308.0,2.0,616.0,308.0,770.0,154.0,462.0,924.0,green,diamond
0.0,8.0,4.0,1.0,7.0,5.0,3469.6545260003404,1.0,1.0,phase_3,,,,,348.0,3.0,116.0,232.0,580.0,464.0,348.0,696.0,cyan,flipped triangle
0.0,8.0,4.0,1.0,7.0,4.0,3569.260117999874,1.0,1.0,phase_3,,,,,384.0,2.0,1152.0,192.0,576.0,384.0,960.0,768.0,cyan,flipped triangle
0.0,3.0,2.0,0.0,7.0,2.0,3242.384244999812,1.0,1.0,phase_3,,,,,616.0,4.0,308.0,616.0,462.0,154.0,924.0,770.0,green,diamond
0.0,6.0,1.0,1.0,7.0,6.0,3238.441884999702,1.0,1.0,phase_3,,,,,384.0,2.0,192.0,960.0,576.0,768.0,1152.0,384.0,white,square
0.0,7.0,2.0,1.0,7.0,1.0,4613.911804000054,1.0,1.0,phase_3,,,,,346.0,2.0,346.0,1038.0,692.0,519.0,173.0,865.0,gray,I
0.0,5.0,0.5,1.0,7.0,3.0,3733.333852999749,1.0,1.0,phase_3,,,,,464.0,4.0,116.0,348.0,464.0,696.0,580.0,232.0,magenta,hexagon
0.0,5.0,0.5,1.0,7.0,4.0,3559.033396000814,1.0,1.0,phase_3,,,,,692.0,4.0,173.0,346.0,519.0,692.0,865.0,1038.0,magenta,hexagon
0.0,3.0,2.0,0.0,7.0,3.0,3031.06857199964,1.0,1.0,phase_3,,,,,1038.0,6.0,692.0,865.0,1038.0,346.0,519.0,173.0,green,diamond
0.0,6.0,1.0,1.0,7.0,4.0,4314.3460080000295,1.0,1.0,phase_3,,,,,580.0,5.0,232.0,116.0,464.0,580.0,348.0,696.0,white,square
0.0,8.0,4.0,1.0,7.0,4.0,3019.003800000064,1.0,2.0,phase_3,,,,,464.0,4.0,696.0,580.0,348.0,464.0,116.0,232.0,cyan,flipped triangle
0.0,3.0,2.0,0.0,7.0,1.0,3732.283563999772,1.0,1.0,phase_3,,,,,768.0,4.0,768.0,1152.0,384.0,576.0,192.0,960.0,green,diamond
0.0,6.0,1.0,1.0,7.0,3.0,3123.7929589997293,1.0,1.0,phase_3,,,,,232.0,2.0,580.0,116.0,232.0,348.0,464.0,696.0,white,square
0.0,6.0,1.0,1.0,7.0,3.0,2441.561620999892,2.0,1.0,phase_3,,,,,346.0,2.0,519.0,173.0,346.0,865.0,692.0,1038.0,white,square
0.0,5.0,0.5,1.0,7.0,2.0,2877.3472609991586,2.0,1.0,phase_3,,,,,462.0,3.0,308.0,462.0,616.0,924.0,770.0,154.0,magenta,hexagon
0.0,2.0,1.0,0.0,7.0,2.0,2229.463743999986,2.0,1.0,phase_3,,,,,576.0,3.0,1152.0,576.0,768.0,192.0,960.0,384.0,blue,triangle
0.0,2.0,1.0,0.0,7.0,4.0,3023.133938999308,2.0,1.0,phase_3,,,,,462.0,3.0,770.0,924.0,308.0,462.0,154.0,616.0,blue,triangle
0.0,6.0,1.0,1.0,7.0,2.0,4055.4267090001304,2.0,1.0,phase_3,,,,,154.0,1.0,308.0,154.0,924.0,462.0,616.0,770.0,white,square
0.0,2.0,1.0,0.0,7.0,5.0,4158.001158999468,2.0,1.0,phase_3,,,,,135.0,1.0,675.0,270.0,810.0,540.0,135.0,405.0,blue,triangle
0.0,8.0,4.0,1.0,7.0,4.0,2126.3204520000727,2.0,1.0,phase_3,,,,,519.0,3.0,692.0,1038.0,865.0,519.0,346.0,173.0,cyan,flipped triangle
0.0,2.0,1.0,0.0,7.0,2.0,2115.9333949999564,2.0,1.0,phase_3,,,,,308.0,2.0,616.0,308.0,154.0,924.0,770.0,462.0,blue,triangle
0.0,7.0,2.0,1.0,7.0,4.0,3763.733058999605,2.0,1.0,phase_3,,,,,384.0,2.0,768.0,1152.0,576.0,384.0,960.0,192.0,gray,I
0.0,4.0,4.0,0.0,7.0,1.0,3407.370826999795,2.0,1.0,phase_3,,,,,1152.0,6.0,1152.0,768.0,384.0,576.0,960.0,192.0,orange,cross
0.0,6.0,1.0,1.0,7.0,1.0,3629.04630399953,2.0,1.0,phase_3,,,,,384.0,2.0,384.0,1152.0,768.0,192.0,576.0,960.0,white,square
0.0,8.0,4.0,1.0,7.0,5.0,2978.0618539998613,2.0,1.0,phase_3,,,,,519.0,3.0,692.0,865.0,173.0,1038.0,519.0,346.0,cyan,flipped triangle
0.0,4.0,4.0,0.0,7.0,2.0,2386.3122419998035,2.0,1.0,phase_3,,,,,865.0,5.0,1038.0,865.0,346.0,519.0,173.0,692.0,orange,cross
0.0,8.0,4.0,1.0,7.0,4.0,4099.548486999993,2.0,1.0,phase_3,,,,,462.0,3.0,924.0,770.0,616.0,462.0,308.0,154.0,cyan,flipped triangle
0.0,4.0,4.0,0.0,7.0,4.0,2950.6502479998744,2.0,1.0,phase_3,,,,,232.0,2.0,464.0,116.0,696.0,232.0,580.0,348.0,orange,cross
0.0,7.0,2.0,1.0,7.0,3.0,4659.226474000207,2.0,1.0,phase_3,,,,,348.0,3.0,116.0,696.0,348.0,464.0,232.0,580.0,gray,I
0.0,6.0,1.0,1.0,7.0,4.0,3285.2974280003764,2.0,1.0,phase_3,,,,,308.0,2.0,462.0,770.0,924.0,308.0,616.0,154.0,white,square
0.0,1.0,0.5,0.0,7.0,5.0,3339.8993619994144,2.0,1.0,phase_3,,,,,464.0,4.0,348.0,116.0,580.0,232.0,464.0,696.0,yellow,circle
0.0,2.0,1.0,0.0,7.0,1.0,4542.667677999816,2.0,1.0,phase_3,,,,,540.0,4.0,540.0,270.0,810.0,675.0,405.0,135.0,blue,triangle
0.0,1.0,0.5,0.0,7.0,5.0,3239.9272519996885,2.0,1.0,phase_3,,,,,576.0,3.0,768.0,1152.0,384.0,192.0,576.0,960.0,yellow,circle
0.0,3.0,2.0,0.0,7.0,2.0,1821.1388879999504,3.0,1.0,phase_3,,,,,696.0,6.0,116.0,696.0,464.0,580.0,348.0,232.0,green,diamond
0.0,5.0,0.5,1.0,7.0,6.0,2323.213122000197,3.0,1.0,phase_3,,,,,384.0,2.0,576.0,768.0,192.0,1152.0,960.0,384.0,magenta,hexagon
0.0,1.0,0.5,0.0,7.0,2.0,1593.5065939993365,3.0,1.0,phase_3,,,,,348.0,3.0,116.0,348.0,580.0,232.0,464.0,696.0,yellow,circle
0.0,3.0,2.0,0.0,7.0,2.0,3931.9085120005184,3.0,1.0,phase_3,,,,,696.0,6.0,580.0,696.0,348.0,232.0,464.0,116.0,green,diamond
0.0,4.0,4.0,0.0,7.0,4.0,3209.7061360000225,3.0,1.0,phase_3,,,,,810.0,6.0,675.0,405.0,270.0,810.0,540.0,135.0,orange,cross
0.0,4.0,4.0,0.0,7.0,4.0,3652.2008259998975,3.0,1.0,phase_3,,,,,675.0,5.0,540.0,270.0,810.0,675.0,135.0,405.0,orange,cross
0.0,5.0,0.5,1.0,7.0,5.0,3116.9098740001573,3.0,1.0,phase_3,,,,,768.0,4.0,576.0,192.0,384.0,960.0,768.0,1152.0,magenta,hexagon
0.0,5.0,0.5,1.0,7.0,2.0,2126.751394999701,3.0,1.0,phase_3,,,,,519.0,3.0,173.0,519.0,692.0,865.0,346.0,1038.0,magenta,hexagon
0.0,7.0,2.0,1.0,7.0,4.0,2739.6536510004807,3.0,1.0,phase_3,,,,,348.0,3.0,580.0,232.0,116.0,348.0,696.0,464.0,gray,I
0.0,5.0,0.5,1.0,7.0,6.0,4652.495414999976,3.0,1.0,phase_3,,,,,462.0,3.0,154.0,770.0,308.0,616.0,924.0,462.0,magenta,hexagon
0.0,8.0,4.0,1.0,7.0,5.0,1967.4743160003343,3.0,2.0,phase_3,,,,,270.0,2.0,540.0,810.0,135.0,405.0,270.0,675.0,cyan,flipped triangle
0.0,3.0,2.0,0.0,7.0,6.0,3103.420821999862,3.0,1.0,phase_3,,,,,675.0,5.0,270.0,810.0,135.0,405.0,540.0,675.0,green,diamond
0.0,2.0,1.0,0.0,7.0,1.0,3753.882220999913,3.0,1.0,phase_3,,,,,346.0,2.0,346.0,692.0,519.0,173.0,865.0,1038.0,blue,triangle
0.0,4.0,4.0,0.0,7.0,2.0,1158.694622999974,3.0,1.0,phase_3,,,,,462.0,3.0,154.0,462.0,770.0,308.0,616.0,924.0,orange,cross
0.0,7.0,2.0,1.0,7.0,1.0,1469.4502739994275,3.0,1.0,phase_3,,,,,173.0,1.0,173.0,519.0,346.0,865.0,692.0,1038.0,gray,I
0.0,7.0,2.0,1.0,7.0,6.0,2805.297234000136,3.0,1.0,phase_3,,,,,384.0,2.0,576.0,1152.0,192.0,960.0,768.0,384.0,gray,I
0.0,1.0,0.5,0.0,7.0,3.0,933.0955559998984,3.0,2.0,phase_3,,,,,270.0,2.0,675.0,135.0,270.0,405.0,810.0,540.0,yellow,circle
0.0,5.0,0.5,1.0,7.0,4.0,3478.465303000121,3.0,1.0,phase_3,,,,,675.0,5.0,405.0,540.0,135.0,675.0,270.0,810.0,magenta,hexagon
0.0,3.0,2.0,0.0,7.0,4.0,1815.5293309991976,3.0,1.0,phase_3,,,,,576.0,3.0,768.0,960.0,384.0,576.0,1152.0,192.0,green,diamond
0.0,1.0,0.5,0.0,7.0,5.0,2964.5891500003927,3.0,1.0,phase_3,,,,,462.0,3.0,924.0,616.0,154.0,308.0,462.0,770.0,yellow,circle
0.0,2.0,1.0,0.0,7.0,4.0,2791.812886000116,4.0,1.0,phase_3,,,,,960.0,5.0,768.0,1152.0,576.0,960.0,192.0,384.0,blue,triangle
0.0,8.0,4.0,1.0,7.0,6.0,2095.536625999557,4.0,1.0,phase_3,,,,,384.0,2.0,768.0,192.0,960.0,576.0,1152.0,384.0,cyan,flipped triangle
0.0,3.0,2.0,0.0,7.0,2.0,2271.1809729999004,4.0,1.0,phase_3,,,,,270.0,2.0,810.0,270.0,540.0,675.0,135.0,405.0,green,diamond
0.0,5.0,0.5,1.0,7.0,5.0,2846.723634000228,4.0,1.0,phase_3,,,,,348.0,3.0,232.0,696.0,464.0,116.0,348.0,580.0,magenta,hexagon
0.0,4.0,4.0,0.0,7.0,4.0,2890.7535389998884,4.0,1.0,phase_3,,,,,1152.0,6.0,768.0,960.0,192.0,1152.0,576.0,384.0,orange,cross
0.0,4.0,4.0,0.0,7.0,3.0,3890.619017999597,4.0,1.0,phase_3,,,,,865.0,5.0,519.0,346.0,865.0,692.0,1038.0,173.0,orange,cross
0.0,1.0,0.5,0.0,7.0,6.0,3636.5513090004238,4.0,1.0,phase_3,,,,,576.0,3.0,192.0,1152.0,768.0,960.0,384.0,576.0,yellow,circle
0.0,7.0,2.0,1.0,7.0,3.0,2051.330407000023,4.0,1.0,phase_3,,,,,308.0,2.0,154.0,770.0,308.0,616.0,924.0,462.0,gray,I
0.0,2.0,1.0,0.0,7.0,5.0,3743.076038000254,4.0,1.0,phase_3,,,,,865.0,5.0,173.0,1038.0,519.0,346.0,865.0,692.0,blue,triangle
0.0,8.0,4.0,1.0,7.0,5.0,3323.20533300026,4.0,1.0,phase_3,,,,,675.0,5.0,810.0,270.0,135.0,405.0,675.0,540.0,cyan,flipped triangle
0.0,4.0,4.0,0.0,7.0,2.0,2604.4520519999423,4.0,1.0,phase_3,,,,,696.0,6.0,116.0,696.0,580.0,464.0,232.0,348.0,orange,cross
0.0,6.0,1.0,1.0,7.0,5.0,2472.1511609996014,4.0,1.0,phase_3,,,,,135.0,1.0,405.0,270.0,675.0,540.0,135.0,810.0,white,square
0.0,1.0,0.5,0.0,7.0,2.0,3823.191407000195,4.0,1.0,phase_3,,,,,519.0,3.0,173.0,519.0,346.0,692.0,1038.0,865.0,yellow,circle
0.0,7.0,2.0,1.0,7.0,5.0,2484.7336259999797,4.0,1.0,phase_3,,,,,405.0,3.0,810.0,270.0,135.0,675.0,405.0,540.0,gray,I
0.0,2.0,1.0,0.0,7.0,6.0,2801.253684000585,4.0,1.0,phase_3,,,,,580.0,5.0,696.0,232.0,348.0,116.0,464.0,580.0,blue,triangle
0.0,1.0,0.5,0.0,7.0,2.0,4574.837539999862,4.0,1.0,phase_3,,,,,692.0,4.0,346.0,692.0,1038.0,865.0,519.0,173.0,yellow,circle
0.0,1.0,0.5,0.0,7.0,1.0,3206.4148530007515,4.0,1.0,phase_3,,,,,462.0,3.0,462.0,616.0,770.0,154.0,924.0,308.0,yellow,circle
0.0,6.0,1.0,1.0,7.0,5.0,3259.78736900015,4.0,1.0,phase_3,,,,,405.0,3.0,810.0,270.0,540.0,675.0,405.0,135.0,white,square
0.0,4.0,4.0,0.0,7.0,4.0,4025.3910230003385,4.0,1.0,phase_3,,,,,616.0,4.0,154.0,308.0,924.0,616.0,462.0,770.0,orange,cross
0.0,8.0,4.0,1.0,7.0,5.0,3037.521172999732,4.0,1.0,phase_3,,,,,616.0,4.0,770.0,308.0,924.0,462.0,616.0,154.0,cyan,flipped triangle
