raw_reward_magnitude,stim_reward,stepwise_reward_magnitude,paired_with_stopping,quadrant,response,reaction_time,block,num_trial_presentations,which_part,stop_signal_trial_type,left_SSD,right_SSD,accuracy,chosen_bidding_amount,chosen_bidding_level,possible_bid_1,possible_bid_2,possible_bid_3,possible_bid_4,possible_bid_5,possible_bid_6,color_text,shape_text
674.0,7.0,3.0,1.0,2.0,2.0,514.5895690002362,1.0,1.0,part_1,,,,,,,,,,,,,gray,flipped triangle
334.0,2.0,2.0,0.0,4.0,4.0,424.3198949998259,1.0,1.0,part_1,,,,,,,,,,,,,yellow,cross
185.0,5.0,1.0,1.0,1.0,1.0,332.5181449999945,1.0,1.0,part_1,,,,,,,,,,,,,magenta,hexagon
633.0,7.0,3.0,1.0,3.0,3.0,424.2228780003643,1.0,1.0,part_1,,,,,,,,,,,,,gray,flipped triangle
0.0,3.0,0.0,0.0,2.0,2.0,508.1568759997026,1.0,1.0,part_1,,,,,,,,,,,,,green,I
1292.0,4.0,4.0,0.0,2.0,2.0,386.5844390002166,1.0,1.0,part_1,,,,,,,,,,,,,blue,square
0.0,3.0,0.0,0.0,4.0,4.0,350.8830430000671,1.0,1.0,part_1,,,,,,,,,,,,,green,I
167.0,1.0,1.0,0.0,3.0,3.0,387.175037999441,1.0,1.0,part_1,,,,,,,,,,,,,cyan,diamond
307.0,2.0,2.0,0.0,3.0,3.0,380.3328510002757,1.0,1.0,part_1,,,,,,,,,,,,,yellow,cross
1318.0,8.0,4.0,1.0,4.0,4.0,424.9826079994818,1.0,1.0,part_1,,,,,,,,,,,,,orange,circle
655.0,3.0,3.0,0.0,3.0,3.0,358.8882169997305,1.0,1.0,part_1,,,,,,,,,,,,,green,I
1300.0,4.0,4.0,0.0,3.0,3.0,434.5375689999855,1.0,1.0,part_1,,,,,,,,,,,,,blue,square
176.0,1.0,1.0,0.0,4.0,4.0,323.8469779998922,1.0,1.0,part_1,,,,,,,,,,,,,cyan,diamond
0.0,5.0,0.0,1.0,4.0,4.0,378.0241439999372,1.0,1.0,part_1,,,,,,,,,,,,,magenta,hexagon
167.0,5.0,1.0,1.0,1.0,1.0,370.3392180004812,1.0,1.0,part_1,,,,,,,,,,,,,magenta,hexagon
671.0,3.0,3.0,0.0,3.0,3.0,376.6274059998977,1.0,1.0,part_1,,,,,,,,,,,,,green,I
176.0,5.0,1.0,1.0,1.0,1.0,404.0281320003487,1.0,1.0,part_1,,,,,,,,,,,,,magenta,hexagon
657.0,3.0,3.0,0.0,1.0,1.0,461.1743939994994,1.0,1.0,part_1,,,,,,,,,,,,,green,I
1324.0,8.0,4.0,1.0,2.0,2.0,444.1522759998406,1.0,1.0,part_1,,,,,,,,,,,,,orange,circle
0.0,3.0,0.0,0.0,3.0,3.0,349.8960090000764,1.0,1.0,part_1,,,,,,,,,,,,,green,I
329.0,2.0,2.0,0.0,2.0,2.0,405.455424000138,1.0,1.0,part_1,,,,,,,,,,,,,yellow,cross
665.0,3.0,3.0,0.0,3.0,3.0,395.8496750001359,1.0,1.0,part_1,,,,,,,,,,,,,green,I
170.0,5.0,1.0,1.0,4.0,4.0,444.7833869999158,1.0,1.0,part_1,,,,,,,,,,,,,magenta,hexagon
140.0,1.0,1.0,0.0,1.0,1.0,358.8427810000212,1.0,1.0,part_1,,,,,,,,,,,,,cyan,diamond
319.0,6.0,2.0,1.0,1.0,1.0,376.0964140001306,1.0,1.0,part_1,,,,,,,,,,,,,white,triangle
149.0,1.0,1.0,0.0,1.0,1.0,478.5050279997449,1.0,1.0,part_1,,,,,,,,,,,,,cyan,diamond
149.0,1.0,1.0,0.0,1.0,1.0,358.7262560004092,1.0,1.0,part_1,,,,,,,,,,,,,cyan,diamond
310.0,2.0,2.0,0.0,2.0,2.0,499.2385590003323,1.0,1.0,part_1,,,,,,,,,,,,,yellow,cross
642.0,7.0,3.0,1.0,1.0,1.0,451.0170369994739,1.0,1.0,part_1,,,,,,,,,,,,,gray,flipped triangle
1295.0,4.0,4.0,0.0,4.0,4.0,617.1827240004859,1.0,1.0,part_1,,,,,,,,,,,,,blue,square
314.0,6.0,2.0,1.0,2.0,2.0,369.2434340000545,1.0,1.0,part_1,,,,,,,,,,,,,white,triangle
159.0,1.0,1.0,0.0,4.0,4.0,434.832720000486,1.0,1.0,part_1,,,,,,,,,,,,,cyan,diamond
178.0,1.0,1.0,0.0,1.0,1.0,426.9577650002247,1.0,1.0,part_1,,,,,,,,,,,,,cyan,diamond
662.0,7.0,3.0,1.0,2.0,2.0,433.8235059994986,1.0,1.0,part_1,,,,,,,,,,,,,gray,flipped triangle
1292.0,4.0,4.0,0.0,3.0,3.0,395.8160669999415,1.0,1.0,part_1,,,,,,,,,,,,,blue,square
0.0,7.0,0.0,1.0,3.0,3.0,408.3862609995776,1.0,1.0,part_1,,,,,,,,,,,,,gray,flipped triangle
0.0,7.0,0.0,1.0,4.0,4.0,340.0493570006802,1.0,1.0,part_1,,,,,,,,,,,,,gray,flipped triangle
1313.0,4.0,4.0,0.0,2.0,2.0,399.0028890002577,1.0,1.0,part_1,,,,,,,,,,,,,blue,square
0.0,6.0,0.0,1.0,4.0,4.0,450.9019990000524,1.0,1.0,part_1,,,,,,,,,,,,,white,triangle
659.0,3.0,3.0,0.0,2.0,2.0,416.1412880002899,1.0,1.0,part_1,,,,,,,,,,,,,green,I
648.0,7.0,3.0,1.0,1.0,1.0,331.5630500001134,1.0,1.0,part_1,,,,,,,,,,,,,gray,flipped triangle
0.0,2.0,0.0,0.0,4.0,4.0,385.4859760003819,1.0,1.0,part_1,,,,,,,,,,,,,yellow,cross
346.0,6.0,2.0,1.0,2.0,2.0,453.4820039998521,1.0,1.0,part_1,,,,,,,,,,,,,white,triangle
341.0,2.0,2.0,0.0,1.0,1.0,332.6774249999289,1.0,1.0,part_1,,,,,,,,,,,,,yellow,cross
313.0,2.0,2.0,0.0,2.0,2.0,451.4371219993336,1.0,1.0,part_1,,,,,,,,,,,,,yellow,cross
0.0,8.0,0.0,1.0,4.0,4.0,409.6124100005909,1.0,1.0,part_1,,,,,,,,,,,,,orange,circle
1324.0,4.0,4.0,0.0,2.0,2.0,516.7848600003708,1.0,1.0,part_1,,,,,,,,,,,,,blue,square
0.0,1.0,0.0,0.0,1.0,1.0,303.5454169994409,1.0,1.0,part_1,,,,,,,,,,,,,cyan,diamond
0.0,4.0,0.0,0.0,1.0,1.0,403.0181220005033,1.0,1.0,part_1,,,,,,,,,,,,,blue,square
137.0,1.0,1.0,0.0,3.0,3.0,415.2940349995333,1.0,1.0,part_1,,,,,,,,,,,,,cyan,diamond
656.0,7.0,3.0,1.0,3.0,3.0,451.4843039996776,1.0,1.0,part_1,,,,,,,,,,,,,gray,flipped triangle
147.0,1.0,1.0,0.0,2.0,2.0,480.7628980006484,1.0,1.0,part_1,,,,,,,,,,,,,cyan,diamond
163.0,1.0,1.0,0.0,3.0,3.0,396.7646110004352,1.0,1.0,part_1,,,,,,,,,,,,,cyan,diamond
675.0,3.0,3.0,0.0,2.0,2.0,477.9960319992824,1.0,1.0,part_1,,,,,,,,,,,,,green,I
1309.0,4.0,4.0,0.0,4.0,4.0,470.3486909993444,1.0,1.0,part_1,,,,,,,,,,,,,blue,square
670.0,7.0,3.0,1.0,3.0,3.0,405.8431989997189,1.0,1.0,part_1,,,,,,,,,,,,,gray,flipped triangle
663.0,3.0,3.0,0.0,2.0,2.0,460.5128979992514,1.0,1.0,part_1,,,,,,,,,,,,,green,I
0.0,7.0,0.0,1.0,2.0,2.0,360.527243999968,1.0,1.0,part_1,,,,,,,,,,,,,gray,flipped triangle
1280.0,8.0,4.0,1.0,1.0,1.0,367.7772359997107,1.0,1.0,part_1,,,,,,,,,,,,,orange,circle
306.0,2.0,2.0,0.0,2.0,2.0,350.806632000058,1.0,1.0,part_1,,,,,,,,,,,,,yellow,cross
1321.0,4.0,4.0,0.0,3.0,3.0,386.541140999725,1.0,1.0,part_1,,,,,,,,,,,,,blue,square
0.0,3.0,0.0,0.0,3.0,3.0,377.7327809993949,1.0,1.0,part_1,,,,,,,,,,,,,green,I
178.0,5.0,1.0,1.0,1.0,1.0,350.2457710001181,1.0,1.0,part_1,,,,,,,,,,,,,magenta,hexagon
0.0,1.0,0.0,0.0,1.0,1.0,404.7708049993161,1.0,1.0,part_1,,,,,,,,,,,,,cyan,diamond
648.0,7.0,3.0,1.0,1.0,1.0,368.5065400004532,1.0,1.0,part_1,,,,,,,,,,,,,gray,flipped triangle
642.0,3.0,3.0,0.0,4.0,4.0,378.7040440001874,1.0,1.0,part_1,,,,,,,,,,,,,green,I
334.0,6.0,2.0,1.0,3.0,3.0,368.3270040000934,1.0,1.0,part_1,,,,,,,,,,,,,white,triangle
0.0,2.0,0.0,0.0,3.0,3.0,387.6127209996411,1.0,1.0,part_1,,,,,,,,,,,,,yellow,cross
333.0,6.0,2.0,1.0,3.0,3.0,396.8730689994117,1.0,1.0,part_1,,,,,,,,,,,,,white,triangle
0.0,7.0,0.0,1.0,1.0,1.0,515.5728460003957,1.0,1.0,part_1,,,,,,,,,,,,,gray,flipped triangle
671.0,7.0,3.0,1.0,1.0,1.0,333.6960209999233,1.0,1.0,part_1,,,,,,,,,,,,,gray,flipped triangle
636.0,7.0,3.0,1.0,3.0,3.0,377.8722970000672,1.0,1.0,part_1,,,,,,,,,,,,,gray,flipped triangle
307.0,6.0,2.0,1.0,1.0,1.0,404.7508739995464,1.0,1.0,part_1,,,,,,,,,,,,,white,triangle
657.0,7.0,3.0,1.0,2.0,2.0,477.7818259999549,1.0,1.0,part_1,,,,,,,,,,,,,gray,flipped triangle
300.0,6.0,2.0,1.0,1.0,1.0,453.8309519994072,1.0,1.0,part_1,,,,,,,,,,,,,white,triangle
148.0,5.0,1.0,1.0,4.0,4.0,461.0322460002862,1.0,1.0,part_1,,,,,,,,,,,,,magenta,hexagon
1309.0,8.0,4.0,1.0,2.0,2.0,415.9958460004418,1.0,1.0,part_1,,,,,,,,,,,,,orange,circle
140.0,5.0,1.0,1.0,2.0,2.0,479.3483719995492,1.0,1.0,part_1,,,,,,,,,,,,,magenta,hexagon
674.0,3.0,3.0,0.0,4.0,4.0,416.4116130004913,1.0,1.0,part_1,,,,,,,,,,,,,green,I
1293.0,8.0,4.0,1.0,1.0,1.0,294.5088530004796,1.0,1.0,part_1,,,,,,,,,,,,,orange,circle
1307.0,4.0,4.0,0.0,2.0,2.0,469.6983759995419,1.0,1.0,part_1,,,,,,,,,,,,,blue,square
1291.0,4.0,4.0,0.0,1.0,1.0,368.521337999482,1.0,1.0,part_1,,,,,,,,,,,,,blue,square
649.0,3.0,3.0,0.0,3.0,3.0,441.3267330000963,1.0,1.0,part_1,,,,,,,,,,,,,green,I
346.0,2.0,2.0,0.0,3.0,3.0,451.8286940001417,1.0,1.0,part_1,,,,,,,,,,,,,yellow,cross
150.0,5.0,1.0,1.0,1.0,1.0,395.107915999688,1.0,1.0,part_1,,,,,,,,,,,,,magenta,hexagon
185.0,5.0,1.0,1.0,2.0,2.0,404.6590790003392,1.0,1.0,part_1,,,,,,,,,,,,,magenta,hexagon
670.0,3.0,3.0,0.0,4.0,4.0,378.6820019995502,1.0,1.0,part_1,,,,,,,,,,,,,green,I
329.0,6.0,2.0,1.0,2.0,2.0,434.1161239999564,1.0,1.0,part_1,,,,,,,,,,,,,white,triangle
1314.0,8.0,4.0,1.0,4.0,4.0,405.8082000001377,1.0,1.0,part_1,,,,,,,,,,,,,orange,circle
137.0,5.0,1.0,1.0,4.0,4.0,396.2510759993165,1.0,1.0,part_1,,,,,,,,,,,,,magenta,hexagon
633.0,3.0,3.0,0.0,4.0,4.0,368.3232610001141,1.0,1.0,part_1,,,,,,,,,,,,,green,I
335.0,2.0,2.0,0.0,4.0,4.0,479.1741270000784,1.0,1.0,part_1,,,,,,,,,,,,,yellow,cross
328.0,2.0,2.0,0.0,4.0,4.0,441.3327279999066,1.0,1.0,part_1,,,,,,,,,,,,,yellow,cross
665.0,7.0,3.0,1.0,2.0,2.0,420.3564389999883,1.0,1.0,part_1,,,,,,,,,,,,,gray,flipped triangle
0.0,1.0,0.0,0.0,3.0,3.0,341.3888810000571,1.0,1.0,part_1,,,,,,,,,,,,,cyan,diamond
0.0,2.0,0.0,0.0,4.0,4.0,331.491487000676,1.0,1.0,part_1,,,,,,,,,,,,,yellow,cross
1316.0,4.0,4.0,0.0,3.0,3.0,385.3442210001958,1.0,1.0,part_1,,,,,,,,,,,,,blue,square
0.0,3.0,0.0,0.0,1.0,1.0,378.8160739995874,1.0,1.0,part_1,,,,,,,,,,,,,green,I
343.0,2.0,2.0,0.0,2.0,2.0,341.386815000078,1.0,1.0,part_1,,,,,,,,,,,,,yellow,cross
0.0,8.0,0.0,1.0,1.0,1.0,395.6790049996925,1.0,1.0,part_1,,,,,,,,,,,,,orange,circle
166.0,1.0,1.0,0.0,3.0,3.0,360.2236879996781,2.0,1.0,part_1,,,,,,,,,,,,,cyan,diamond
1292.0,8.0,4.0,1.0,3.0,3.0,434.0514310006256,2.0,1.0,part_1,,,,,,,,,,,,,orange,circle
1314.0,4.0,4.0,0.0,4.0,4.0,414.3401310002446,2.0,2.0,part_1,,,,,,,,,,,,,blue,square
301.0,2.0,2.0,0.0,3.0,3.0,415.6740960006573,2.0,1.0,part_1,,,,,,,,,,,,,yellow,cross
145.0,1.0,1.0,0.0,1.0,1.0,442.1179840001059,2.0,1.0,part_1,,,,,,,,,,,,,cyan,diamond
0.0,7.0,0.0,1.0,1.0,1.0,396.2114690002636,2.0,1.0,part_1,,,,,,,,,,,,,gray,flipped triangle
0.0,6.0,0.0,1.0,2.0,2.0,702.0196249995934,2.0,2.0,part_1,,,,,,,,,,,,,white,triangle
175.0,5.0,1.0,1.0,3.0,3.0,498.1034419997741,2.0,1.0,part_1,,,,,,,,,,,,,magenta,hexagon
144.0,5.0,1.0,1.0,4.0,4.0,415.19353700005007,2.0,1.0,part_1,,,,,,,,,,,,,magenta,hexagon
633.0,7.0,3.0,1.0,1.0,1.0,387.1679989997574,2.0,1.0,part_1,,,,,,,,,,,,,gray,flipped triangle
1292.0,4.0,4.0,0.0,2.0,2.0,517.0026870000584,2.0,1.0,part_1,,,,,,,,,,,,,blue,square
142.0,1.0,1.0,0.0,2.0,2.0,673.0642510001417,2.0,1.0,part_1,,,,,,,,,,,,,cyan,diamond
311.0,6.0,2.0,1.0,4.0,4.0,387.809285000003,2.0,1.0,part_1,,,,,,,,,,,,,white,triangle
348.0,6.0,2.0,1.0,3.0,3.0,360.3979400004391,2.0,1.0,part_1,,,,,,,,,,,,,white,triangle
340.0,2.0,2.0,0.0,1.0,1.0,424.1007800001171,2.0,1.0,part_1,,,,,,,,,,,,,yellow,cross
1297.0,4.0,4.0,0.0,1.0,1.0,396.0822789995291,2.0,1.0,part_1,,,,,,,,,,,,,blue,square
629.0,7.0,3.0,1.0,4.0,4.0,377.1652409996022,2.0,1.0,part_1,,,,,,,,,,,,,gray,flipped triangle
343.0,6.0,2.0,1.0,1.0,1.0,368.5331349997796,2.0,1.0,part_1,,,,,,,,,,,,,white,triangle
0.0,2.0,0.0,0.0,1.0,1.0,349.7258669995062,2.0,1.0,part_1,,,,,,,,,,,,,yellow,cross
626.0,3.0,3.0,0.0,3.0,3.0,378.0422879999605,2.0,1.0,part_1,,,,,,,,,,,,,green,I
0.0,4.0,0.0,0.0,1.0,1.0,460.9188300000824,2.0,1.0,part_1,,,,,,,,,,,,,blue,square
638.0,7.0,3.0,1.0,4.0,4.0,385.9511349992317,2.0,1.0,part_1,,,,,,,,,,,,,gray,flipped triangle
1278.0,8.0,4.0,1.0,2.0,2.0,471.0155229995507,2.0,1.0,part_1,,,,,,,,,,,,,orange,circle
638.0,3.0,3.0,0.0,4.0,4.0,378.0687270000271,2.0,1.0,part_1,,,,,,,,,,,,,green,I
664.0,3.0,3.0,0.0,1.0,1.0,396.0801150005864,2.0,1.0,part_1,,,,,,,,,,,,,green,I
340.0,6.0,2.0,1.0,1.0,1.0,414.3447079995894,2.0,1.0,part_1,,,,,,,,,,,,,white,triangle
665.0,3.0,3.0,0.0,1.0,1.0,360.3192749997106,2.0,1.0,part_1,,,,,,,,,,,,,green,I
1307.0,8.0,4.0,1.0,3.0,3.0,387.6702190000287,2.0,1.0,part_1,,,,,,,,,,,,,orange,circle
143.0,5.0,1.0,1.0,2.0,2.0,462.9353750005975,2.0,1.0,part_1,,,,,,,,,,,,,magenta,hexagon
149.0,5.0,1.0,1.0,3.0,3.0,517.4926569998206,2.0,1.0,part_1,,,,,,,,,,,,,magenta,hexagon
0.0,5.0,0.0,1.0,4.0,4.0,351.2842029995227,2.0,1.0,part_1,,,,,,,,,,,,,magenta,hexagon
337.0,6.0,2.0,1.0,1.0,1.0,324.1231109996079,2.0,1.0,part_1,,,,,,,,,,,,,white,triangle
179.0,5.0,1.0,1.0,3.0,3.0,423.7077699999645,2.0,1.0,part_1,,,,,,,,,,,,,magenta,hexagon
0.0,6.0,0.0,1.0,3.0,3.0,414.3956879997859,2.0,1.0,part_1,,,,,,,,,,,,,white,triangle
1279.0,8.0,4.0,1.0,4.0,4.0,369.5240709994323,2.0,1.0,part_1,,,,,,,,,,,,,orange,circle
152.0,5.0,1.0,1.0,2.0,2.0,387.1830139996746,2.0,1.0,part_1,,,,,,,,,,,,,magenta,hexagon
1324.0,8.0,4.0,1.0,3.0,3.0,351.2536540001747,2.0,1.0,part_1,,,,,,,,,,,,,orange,circle
182.0,5.0,1.0,1.0,2.0,2.0,424.04319500019477,2.0,1.0,part_1,,,,,,,,,,,,,magenta,hexagon
1323.0,8.0,4.0,1.0,4.0,4.0,324.902352999743,2.0,1.0,part_1,,,,,,,,,,,,,orange,circle
314.0,2.0,2.0,0.0,2.0,2.0,451.3059930004601,2.0,1.0,part_1,,,,,,,,,,,,,yellow,cross
0.0,4.0,0.0,0.0,4.0,4.0,368.6354569999821,2.0,1.0,part_1,,,,,,,,,,,,,blue,square
321.0,6.0,2.0,1.0,2.0,2.0,415.8969149993936,2.0,1.0,part_1,,,,,,,,,,,,,white,triangle
341.0,6.0,2.0,1.0,3.0,3.0,342.3887369999647,2.0,1.0,part_1,,,,,,,,,,,,,white,triangle
0.0,1.0,0.0,0.0,2.0,2.0,386.3775939998959,2.0,1.0,part_1,,,,,,,,,,,,,cyan,diamond
626.0,7.0,3.0,1.0,4.0,4.0,377.5416230000701,2.0,1.0,part_1,,,,,,,,,,,,,gray,flipped triangle
0.0,6.0,0.0,1.0,1.0,1.0,331.6384480003762,2.0,1.0,part_1,,,,,,,,,,,,,white,triangle
186.0,1.0,1.0,0.0,3.0,3.0,350.1790450000044,2.0,1.0,part_1,,,,,,,,,,,,,cyan,diamond
300.0,2.0,2.0,0.0,3.0,3.0,368.3756970003742,2.0,1.0,part_1,,,,,,,,,,,,,yellow,cross
333.0,2.0,2.0,0.0,3.0,3.0,342.8111060002266,2.0,1.0,part_1,,,,,,,,,,,,,yellow,cross
653.0,7.0,3.0,1.0,2.0,2.0,396.3511800002379,2.0,1.0,part_1,,,,,,,,,,,,,gray,flipped triangle
0.0,7.0,0.0,1.0,4.0,4.0,361.5648779996263,2.0,1.0,part_1,,,,,,,,,,,,,gray,flipped triangle
150.0,1.0,1.0,0.0,2.0,2.0,350.5543680003029,2.0,1.0,part_1,,,,,,,,,,,,,cyan,diamond
347.0,6.0,2.0,1.0,4.0,4.0,341.7968100002326,2.0,1.0,part_1,,,,,,,,,,,,,white,triangle
0.0,5.0,0.0,1.0,1.0,1.0,407.2395590001179,2.0,1.0,part_1,,,,,,,,,,,,,magenta,hexagon
643.0,7.0,3.0,1.0,4.0,4.0,386.7708190000485,2.0,1.0,part_1,,,,,,,,,,,,,gray,flipped triangle
0.0,8.0,0.0,1.0,1.0,1.0,389.16871299989,2.0,1.0,part_1,,,,,,,,,,,,,orange,circle
629.0,3.0,3.0,0.0,4.0,4.0,480.5829619999713,2.0,1.0,part_1,,,,,,,,,,,,,green,I
1295.0,8.0,4.0,1.0,2.0,2.0,396.2414939996961,2.0,1.0,part_1,,,,,,,,,,,,,orange,circle
302.0,6.0,2.0,1.0,1.0,1.0,367.8839239992157,2.0,1.0,part_1,,,,,,,,,,,,,white,triangle
0.0,2.0,0.0,0.0,3.0,3.0,369.8993569996673,2.0,1.0,part_1,,,,,,,,,,,,,yellow,cross
633.0,3.0,3.0,0.0,2.0,2.0,461.5757080000549,2.0,1.0,part_1,,,,,,,,,,,,,green,I
1296.0,8.0,4.0,1.0,2.0,2.0,414.8889019998023,2.0,1.0,part_1,,,,,,,,,,,,,orange,circle
343.0,2.0,2.0,0.0,3.0,3.0,368.8500079997538,2.0,1.0,part_1,,,,,,,,,,,,,yellow,cross
648.0,3.0,3.0,0.0,2.0,2.0,408.9578819994131,2.0,1.0,part_1,,,,,,,,,,,,,green,I
159.0,5.0,1.0,1.0,3.0,3.0,361.2888840007144,2.0,1.0,part_1,,,,,,,,,,,,,magenta,hexagon
1293.0,4.0,4.0,0.0,4.0,4.0,445.9887400007574,2.0,1.0,part_1,,,,,,,,,,,,,blue,square
0.0,4.0,0.0,0.0,1.0,1.0,433.0112879997614,2.0,1.0,part_1,,,,,,,,,,,,,blue,square
319.0,2.0,2.0,0.0,1.0,1.0,322.6420959999814,2.0,1.0,part_1,,,,,,,,,,,,,yellow,cross
1303.0,4.0,4.0,0.0,1.0,1.0,365.0336099999549,2.0,1.0,part_1,,,,,,,,,,,,,blue,square
0.0,8.0,0.0,1.0,4.0,4.0,303.2391939996159,2.0,1.0,part_1,,,,,,,,,,,,,orange,circle
0.0,6.0,0.0,1.0,1.0,1.0,379.6992870002214,2.0,1.0,part_1,,,,,,,,,,,,,white,triangle
319.0,2.0,2.0,0.0,1.0,1.0,499.4492519999767,2.0,1.0,part_1,,,,,,,,,,,,,yellow,cross
0.0,8.0,0.0,1.0,1.0,1.0,322.7334229995904,2.0,1.0,part_1,,,,,,,,,,,,,orange,circle
185.0,1.0,1.0,0.0,4.0,4.0,313.3103769996523,2.0,1.0,part_1,,,,,,,,,,,,,cyan,diamond
648.0,7.0,3.0,1.0,3.0,3.0,396.4011369998843,2.0,1.0,part_1,,,,,,,,,,,,,gray,flipped triangle
0.0,2.0,0.0,0.0,4.0,4.0,378.2724440006859,2.0,1.0,part_1,,,,,,,,,,,,,yellow,cross
0.0,5.0,0.0,1.0,2.0,2.0,376.8583290002425,2.0,1.0,part_1,,,,,,,,,,,,,magenta,hexagon
328.0,6.0,2.0,1.0,2.0,2.0,397.2237719999612,2.0,1.0,part_1,,,,,,,,,,,,,white,triangle
0.0,4.0,0.0,0.0,1.0,1.0,350.2637820001837,2.0,1.0,part_1,,,,,,,,,,,,,blue,square
648.0,3.0,3.0,0.0,1.0,1.0,351.1468179995063,2.0,1.0,part_1,,,,,,,,,,,,,green,I
166.0,5.0,1.0,1.0,4.0,4.0,276.6574610004682,2.0,1.0,part_1,,,,,,,,,,,,,magenta,hexagon
1279.0,4.0,4.0,0.0,1.0,1.0,323.4413790005419,2.0,1.0,part_1,,,,,,,,,,,,,blue,square
0.0,5.0,0.0,1.0,2.0,2.0,663.6674660003337,2.0,2.0,part_1,,,,,,,,,,,,,magenta,hexagon
655.0,7.0,3.0,1.0,4.0,4.0,547.9947039993931,2.0,1.0,part_1,,,,,,,,,,,,,gray,flipped triangle
1297.0,8.0,4.0,1.0,2.0,2.0,462.8414970002268,2.0,1.0,part_1,,,,,,,,,,,,,orange,circle
649.0,7.0,3.0,1.0,3.0,3.0,509.531878999951,2.0,1.0,part_1,,,,,,,,,,,,,gray,flipped triangle
1300.0,8.0,4.0,1.0,1.0,1.0,369.1842070002167,2.0,1.0,part_1,,,,,,,,,,,,,orange,circle
314.0,2.0,2.0,0.0,4.0,4.0,472.9692690007141,2.0,1.0,part_1,,,,,,,,,,,,,yellow,cross
145.0,5.0,1.0,1.0,1.0,1.0,489.2486679991634,2.0,1.0,part_1,,,,,,,,,,,,,magenta,hexagon
0.0,7.0,0.0,1.0,1.0,1.0,369.7348630003034,2.0,1.0,part_1,,,,,,,,,,,,,gray,flipped triangle
648.0,3.0,3.0,0.0,3.0,3.0,333.8612690004083,2.0,1.0,part_1,,,,,,,,,,,,,green,I
336.0,6.0,2.0,1.0,1.0,1.0,501.02516100014327,2.0,1.0,part_1,,,,,,,,,,,,,white,triangle
674.0,7.0,3.0,1.0,2.0,2.0,406.0308489997624,2.0,1.0,part_1,,,,,,,,,,,,,gray,flipped triangle
321.0,2.0,2.0,0.0,2.0,2.0,387.7529809997213,2.0,1.0,part_1,,,,,,,,,,,,,yellow,cross
302.0,2.0,2.0,0.0,3.0,3.0,370.4861179994623,2.0,1.0,part_1,,,,,,,,,,,,,yellow,cross
316.0,2.0,2.0,0.0,1.0,1.0,452.6798980004969,2.0,1.0,part_1,,,,,,,,,,,,,yellow,cross
187.0,5.0,1.0,1.0,3.0,3.0,369.4880749999356,2.0,1.0,part_1,,,,,,,,,,,,,magenta,hexagon
0.0,5.0,0.0,1.0,2.0,2.0,370.1536620001207,2.0,2.0,part_1,,,,,,,,,,,,,magenta,hexagon
156.0,1.0,1.0,0.0,3.0,3.0,359.858221999275,2.0,1.0,part_1,,,,,,,,,,,,,cyan,diamond
318.0,2.0,2.0,0.0,3.0,3.0,387.5767560002714,2.0,1.0,part_1,,,,,,,,,,,,,yellow,cross
0.0,1.0,0.0,0.0,2.0,2.0,397.0960209999248,3.0,1.0,part_1,,,,,,,,,,,,,cyan,diamond
143.0,1.0,1.0,0.0,2.0,2.0,396.1481599999388,3.0,1.0,part_1,,,,,,,,,,,,,cyan,diamond
0.0,4.0,0.0,0.0,4.0,4.0,397.1917969993228,3.0,1.0,part_1,,,,,,,,,,,,,blue,square
347.0,2.0,2.0,0.0,1.0,1.0,341.907691000415,3.0,1.0,part_1,,,,,,,,,,,,,yellow,cross
319.0,6.0,2.0,1.0,3.0,3.0,360.1089189996855,3.0,1.0,part_1,,,,,,,,,,,,,white,triangle
1303.0,8.0,4.0,1.0,2.0,2.0,322.8228160005528,3.0,1.0,part_1,,,,,,,,,,,,,orange,circle
336.0,2.0,2.0,0.0,1.0,1.0,397.513083999911,3.0,1.0,part_1,,,,,,,,,,,,,yellow,cross
348.0,2.0,2.0,0.0,3.0,3.0,350.7784779994836,3.0,1.0,part_1,,,,,,,,,,,,,yellow,cross
150.0,5.0,1.0,1.0,4.0,4.0,342.8071689995704,3.0,1.0,part_1,,,,,,,,,,,,,magenta,hexagon
159.0,1.0,1.0,0.0,4.0,4.0,618.822370000089,3.0,1.0,part_1,,,,,,,,,,,,,cyan,diamond
149.0,5.0,1.0,1.0,3.0,3.0,324.0921409997099,3.0,1.0,part_1,,,,,,,,,,,,,magenta,hexagon
154.0,5.0,1.0,1.0,4.0,4.0,314.8778169997968,3.0,1.0,part_1,,,,,,,,,,,,,magenta,hexagon
0.0,5.0,0.0,1.0,1.0,1.0,397.161793000123,3.0,1.0,part_1,,,,,,,,,,,,,magenta,hexagon
346.0,6.0,2.0,1.0,2.0,2.0,413.9584119993742,3.0,1.0,part_1,,,,,,,,,,,,,white,triangle
327.0,2.0,2.0,0.0,1.0,1.0,332.9780210005992,3.0,1.0,part_1,,,,,,,,,,,,,yellow,cross
1289.0,4.0,4.0,0.0,4.0,4.0,451.8490099999326,3.0,1.0,part_1,,,,,,,,,,,,,blue,square
0.0,6.0,0.0,1.0,1.0,1.0,360.4631710004469,3.0,1.0,part_1,,,,,,,,,,,,,white,triangle
147.0,5.0,1.0,1.0,1.0,1.0,396.9882460005465,3.0,1.0,part_1,,,,,,,,,,,,,magenta,hexagon
152.0,1.0,1.0,0.0,2.0,2.0,351.0746729998573,3.0,1.0,part_1,,,,,,,,,,,,,cyan,diamond
660.0,3.0,3.0,0.0,4.0,4.0,323.6816850003379,3.0,1.0,part_1,,,,,,,,,,,,,green,I
144.0,1.0,1.0,0.0,4.0,4.0,415.1146700005483,3.0,2.0,part_1,,,,,,,,,,,,,cyan,diamond
1302.0,8.0,4.0,1.0,4.0,4.0,361.6184379998231,3.0,1.0,part_1,,,,,,,,,,,,,orange,circle
639.0,3.0,3.0,0.0,1.0,1.0,360.1185770003212,3.0,1.0,part_1,,,,,,,,,,,,,green,I
310.0,6.0,2.0,1.0,4.0,4.0,415.402668999377,3.0,1.0,part_1,,,,,,,,,,,,,white,triangle
1318.0,4.0,4.0,0.0,4.0,4.0,498.4104579998529,3.0,1.0,part_1,,,,,,,,,,,,,blue,square
1293.0,4.0,4.0,0.0,3.0,3.0,433.676691999608,3.0,1.0,part_1,,,,,,,,,,,,,blue,square
0.0,4.0,0.0,0.0,1.0,1.0,415.9425399993779,3.0,1.0,part_1,,,,,,,,,,,,,blue,square
0.0,4.0,0.0,0.0,1.0,1.0,591.0444259998258,3.0,1.0,part_1,,,,,,,,,,,,,blue,square
1321.0,8.0,4.0,1.0,4.0,4.0,489.89073600023397,3.0,1.0,part_1,,,,,,,,,,,,,orange,circle
657.0,7.0,3.0,1.0,3.0,3.0,497.8988899993055,3.0,1.0,part_1,,,,,,,,,,,,,gray,flipped triangle
0.0,1.0,0.0,0.0,2.0,2.0,396.7310319994794,3.0,1.0,part_1,,,,,,,,,,,,,cyan,diamond
0.0,7.0,0.0,1.0,2.0,2.0,433.5883730000205,3.0,1.0,part_1,,,,,,,,,,,,,gray,flipped triangle
0.0,4.0,0.0,0.0,3.0,3.0,369.6209720001207,3.0,1.0,part_1,,,,,,,,,,,,,blue,square
170.0,5.0,1.0,1.0,4.0,4.0,340.9430929996233,3.0,1.0,part_1,,,,,,,,,,,,,magenta,hexagon
179.0,1.0,1.0,0.0,1.0,1.0,364.2748800002664,3.0,1.0,part_1,,,,,,,,,,,,,cyan,diamond
170.0,1.0,1.0,0.0,3.0,3.0,322.4704160002147,3.0,1.0,part_1,,,,,,,,,,,,,cyan,diamond
640.0,3.0,3.0,0.0,1.0,1.0,396.3693730001978,3.0,1.0,part_1,,,,,,,,,,,,,green,I
343.0,6.0,2.0,1.0,3.0,3.0,349.271394000425,3.0,1.0,part_1,,,,,,,,,,,,,white,triangle
1313.0,8.0,4.0,1.0,3.0,3.0,460.6906580002032,3.0,1.0,part_1,,,,,,,,,,,,,orange,circle
175.0,5.0,1.0,1.0,2.0,2.0,497.9466750000938,3.0,1.0,part_1,,,,,,,,,,,,,magenta,hexagon
0.0,5.0,0.0,1.0,1.0,1.0,340.8563419998245,3.0,1.0,part_1,,,,,,,,,,,,,magenta,hexagon
1290.0,4.0,4.0,0.0,4.0,4.0,339.893043000302,3.0,1.0,part_1,,,,,,,,,,,,,blue,square
647.0,3.0,3.0,0.0,3.0,3.0,431.8193030003385,3.0,1.0,part_1,,,,,,,,,,,,,green,I
308.0,2.0,2.0,0.0,2.0,2.0,398.1744100001378,3.0,1.0,part_1,,,,,,,,,,,,,yellow,cross
327.0,6.0,2.0,1.0,2.0,2.0,452.4001929994483,3.0,1.0,part_1,,,,,,,,,,,,,white,triangle
187.0,1.0,1.0,0.0,3.0,3.0,342.7525019997119,3.0,1.0,part_1,,,,,,,,,,,,,cyan,diamond
337.0,2.0,2.0,0.0,4.0,4.0,454.0673920000699,3.0,1.0,part_1,,,,,,,,,,,,,yellow,cross
311.0,2.0,2.0,0.0,4.0,4.0,296.5167230004226,3.0,1.0,part_1,,,,,,,,,,,,,yellow,cross
660.0,7.0,3.0,1.0,4.0,4.0,350.6592869998712,3.0,1.0,part_1,,,,,,,,,,,,,gray,flipped triangle
1281.0,8.0,4.0,1.0,1.0,1.0,405.4512650000106,3.0,1.0,part_1,,,,,,,,,,,,,orange,circle
169.0,1.0,1.0,0.0,2.0,2.0,358.6482070004422,3.0,1.0,part_1,,,,,,,,,,,,,cyan,diamond
346.0,2.0,2.0,0.0,2.0,2.0,368.2310409994898,3.0,1.0,part_1,,,,,,,,,,,,,yellow,cross
332.0,2.0,2.0,0.0,4.0,4.0,480.0674369998887,3.0,1.0,part_1,,,,,,,,,,,,,yellow,cross
1281.0,4.0,4.0,0.0,3.0,3.0,405.7593320003434,3.0,1.0,part_1,,,,,,,,,,,,,blue,square
149.0,1.0,1.0,0.0,2.0,2.0,349.4818330000271,3.0,1.0,part_1,,,,,,,,,,,,,cyan,diamond
346.0,6.0,2.0,1.0,3.0,3.0,488.2838270004868,3.0,1.0,part_1,,,,,,,,,,,,,white,triangle
664.0,7.0,3.0,1.0,4.0,4.0,396.6018269993583,3.0,1.0,part_1,,,,,,,,,,,,,gray,flipped triangle
1289.0,8.0,4.0,1.0,1.0,1.0,386.4953199999945,3.0,1.0,part_1,,,,,,,,,,,,,orange,circle
329.0,6.0,2.0,1.0,4.0,4.0,359.0353190002133,3.0,1.0,part_1,,,,,,,,,,,,,white,triangle
156.0,5.0,1.0,1.0,1.0,1.0,333.9248769998448,3.0,1.0,part_1,,,,,,,,,,,,,magenta,hexagon
639.0,3.0,3.0,0.0,4.0,4.0,358.8802900003429,3.0,1.0,part_1,,,,,,,,,,,,,green,I
1316.0,8.0,4.0,1.0,2.0,2.0,626.7760850005288,3.0,1.0,part_1,,,,,,,,,,,,,orange,circle
148.0,1.0,1.0,0.0,2.0,2.0,544.0781440001956,3.0,1.0,part_1,,,,,,,,,,,,,cyan,diamond
183.0,1.0,1.0,0.0,1.0,1.0,424.564965999707,3.0,1.0,part_1,,,,,,,,,,,,,cyan,diamond
1292.0,8.0,4.0,1.0,2.0,2.0,397.1818949994485,3.0,1.0,part_1,,,,,,,,,,,,,orange,circle
1282.0,8.0,4.0,1.0,3.0,3.0,377.1440909995363,3.0,1.0,part_1,,,,,,,,,,,,,orange,circle
302.0,6.0,2.0,1.0,4.0,4.0,341.1533990001771,3.0,1.0,part_1,,,,,,,,,,,,,white,triangle
643.0,3.0,3.0,0.0,3.0,3.0,369.2587690002256,3.0,1.0,part_1,,,,,,,,,,,,,green,I
634.0,3.0,3.0,0.0,3.0,3.0,397.1093520003705,3.0,1.0,part_1,,,,,,,,,,,,,green,I
0.0,8.0,0.0,1.0,3.0,3.0,378.3590950006328,3.0,1.0,part_1,,,,,,,,,,,,,orange,circle
302.0,2.0,2.0,0.0,4.0,4.0,359.94278799989837,3.0,1.0,part_1,,,,,,,,,,,,,yellow,cross
154.0,1.0,1.0,0.0,3.0,3.0,360.8499259999007,3.0,1.0,part_1,,,,,,,,,,,,,cyan,diamond
186.0,5.0,1.0,1.0,1.0,1.0,387.284032000025,3.0,1.0,part_1,,,,,,,,,,,,,magenta,hexagon
639.0,7.0,3.0,1.0,3.0,3.0,378.4903949999716,3.0,1.0,part_1,,,,,,,,,,,,,gray,flipped triangle
1291.0,8.0,4.0,1.0,2.0,2.0,442.4412250000387,3.0,1.0,part_1,,,,,,,,,,,,,orange,circle
170.0,1.0,1.0,0.0,1.0,1.0,352.752882000459,3.0,1.0,part_1,,,,,,,,,,,,,cyan,diamond
0.0,3.0,0.0,0.0,4.0,4.0,369.7314880000704,3.0,1.0,part_1,,,,,,,,,,,,,green,I
0.0,3.0,0.0,0.0,3.0,3.0,370.462881000094,3.0,1.0,part_1,,,,,,,,,,,,,green,I
175.0,1.0,1.0,0.0,1.0,1.0,368.9042930000141,3.0,1.0,part_1,,,,,,,,,,,,,cyan,diamond
307.0,6.0,2.0,1.0,1.0,1.0,443.234508000387,3.0,1.0,part_1,,,,,,,,,,,,,white,triangle
1278.0,4.0,4.0,0.0,3.0,3.0,369.0083369992862,3.0,1.0,part_1,,,,,,,,,,,,,blue,square
1297.0,4.0,4.0,0.0,1.0,1.0,377.8714089994537,3.0,1.0,part_1,,,,,,,,,,,,,blue,square
306.0,6.0,2.0,1.0,4.0,4.0,386.557251999875,3.0,1.0,part_1,,,,,,,,,,,,,white,triangle
307.0,2.0,2.0,0.0,1.0,1.0,370.7945409996682,3.0,1.0,part_1,,,,,,,,,,,,,yellow,cross
653.0,3.0,3.0,0.0,2.0,2.0,425.1819770006477,3.0,1.0,part_1,,,,,,,,,,,,,green,I
659.0,7.0,3.0,1.0,2.0,2.0,478.3764109997719,3.0,1.0,part_1,,,,,,,,,,,,,gray,flipped triangle
1318.0,8.0,4.0,1.0,4.0,4.0,377.7538279991859,3.0,1.0,part_1,,,,,,,,,,,,,orange,circle
183.0,5.0,1.0,1.0,1.0,1.0,332.6588159998209,3.0,1.0,part_1,,,,,,,,,,,,,magenta,hexagon
314.0,6.0,2.0,1.0,2.0,2.0,360.1675899999463,3.0,1.0,part_1,,,,,,,,,,,,,white,triangle
0.0,3.0,0.0,0.0,2.0,2.0,395.9830840003633,3.0,1.0,part_1,,,,,,,,,,,,,green,I
0.0,7.0,0.0,1.0,4.0,4.0,397.3415020000175,3.0,1.0,part_1,,,,,,,,,,,,,gray,flipped triangle
348.0,6.0,2.0,1.0,2.0,2.0,396.3602539997737,3.0,1.0,part_1,,,,,,,,,,,,,white,triangle
1289.0,8.0,4.0,1.0,3.0,3.0,432.8829389996826,3.0,1.0,part_1,,,,,,,,,,,,,orange,circle
634.0,7.0,3.0,1.0,1.0,1.0,340.2042959996834,3.0,1.0,part_1,,,,,,,,,,,,,gray,flipped triangle
163.0,5.0,1.0,1.0,2.0,2.0,351.8215109997982,3.0,1.0,part_1,,,,,,,,,,,,,magenta,hexagon
348.0,2.0,2.0,0.0,4.0,4.0,405.7802730003459,3.0,1.0,part_1,,,,,,,,,,,,,yellow,cross
313.0,6.0,2.0,1.0,3.0,3.0,378.1570099999953,3.0,1.0,part_1,,,,,,,,,,,,,white,triangle
149.0,5.0,1.0,1.0,4.0,4.0,405.7116419999147,3.0,1.0,part_1,,,,,,,,,,,,,magenta,hexagon
1313.0,8.0,4.0,1.0,3.0,3.0,497.4100109993742,3.0,1.0,part_1,,,,,,,,,,,,,orange,circle
301.0,6.0,2.0,1.0,4.0,4.0,524.0799359999073,3.0,1.0,part_1,,,,,,,,,,,,,white,triangle
176.0,1.0,1.0,0.0,4.0,4.0,398.0069030003506,4.0,1.0,part_1,,,,,,,,,,,,,cyan,diamond
166.0,5.0,1.0,1.0,3.0,3.0,378.5462890000417,4.0,1.0,part_1,,,,,,,,,,,,,magenta,hexagon
0.0,1.0,0.0,0.0,2.0,2.0,388.7579920001371,4.0,1.0,part_1,,,,,,,,,,,,,cyan,diamond
169.0,5.0,1.0,1.0,2.0,2.0,406.3772620002055,4.0,1.0,part_1,,,,,,,,,,,,,magenta,hexagon
1293.0,8.0,4.0,1.0,4.0,4.0,341.2519400008023,4.0,1.0,part_1,,,,,,,,,,,,,orange,circle
1297.0,8.0,4.0,1.0,1.0,1.0,369.8143100000379,4.0,1.0,part_1,,,,,,,,,,,,,orange,circle
639.0,7.0,3.0,1.0,4.0,4.0,450.6270060001043,4.0,1.0,part_1,,,,,,,,,,,,,gray,flipped triangle
1289.0,4.0,4.0,0.0,4.0,4.0,377.3754679996273,4.0,1.0,part_1,,,,,,,,,,,,,blue,square
0.0,3.0,0.0,0.0,4.0,4.0,386.9056510002338,4.0,1.0,part_1,,,,,,,,,,,,,green,I
302.0,6.0,2.0,1.0,3.0,3.0,415.344269000343,4.0,1.0,part_1,,,,,,,,,,,,,white,triangle
150.0,1.0,1.0,0.0,4.0,4.0,360.3710730003513,4.0,1.0,part_1,,,,,,,,,,,,,cyan,diamond
0.0,2.0,0.0,0.0,3.0,3.0,405.9361780000472,4.0,1.0,part_1,,,,,,,,,,,,,yellow,cross
1320.0,4.0,4.0,0.0,1.0,1.0,323.3061210003143,4.0,1.0,part_1,,,,,,,,,,,,,blue,square
1280.0,4.0,4.0,0.0,2.0,2.0,367.9448599996249,4.0,1.0,part_1,,,,,,,,,,,,,blue,square
0.0,7.0,0.0,1.0,4.0,4.0,331.4032510006655,4.0,1.0,part_1,,,,,,,,,,,,,gray,flipped triangle
0.0,5.0,0.0,1.0,3.0,3.0,351.4156960000036,4.0,1.0,part_1,,,,,,,,,,,,,magenta,hexagon
636.0,3.0,3.0,0.0,2.0,2.0,369.4481590000578,4.0,1.0,part_1,,,,,,,,,,,,,green,I
166.0,1.0,1.0,0.0,2.0,2.0,415.0213630000507,4.0,1.0,part_1,,,,,,,,,,,,,cyan,diamond
0.0,6.0,0.0,1.0,4.0,4.0,340.5374840003787,4.0,1.0,part_1,,,,,,,,,,,,,white,triangle
1313.0,4.0,4.0,0.0,2.0,2.0,488.3144539999193,4.0,1.0,part_1,,,,,,,,,,,,,blue,square
0.0,3.0,0.0,0.0,1.0,1.0,360.9762310006772,4.0,1.0,part_1,,,,,,,,,,,,,green,I
144.0,5.0,1.0,1.0,4.0,4.0,452.8242320002391,4.0,1.0,part_1,,,,,,,,,,,,,magenta,hexagon
0.0,8.0,0.0,1.0,2.0,2.0,433.5020489997987,4.0,1.0,part_1,,,,,,,,,,,,,orange,circle
1314.0,8.0,4.0,1.0,1.0,1.0,377.3558050006613,4.0,1.0,part_1,,,,,,,,,,,,,orange,circle
1311.0,8.0,4.0,1.0,1.0,1.0,332.9487139999401,4.0,1.0,part_1,,,,,,,,,,,,,orange,circle
0.0,8.0,0.0,1.0,4.0,4.0,332.2264319995156,4.0,1.0,part_1,,,,,,,,,,,,,orange,circle
1283.0,8.0,4.0,1.0,3.0,3.0,376.9794079998974,4.0,1.0,part_1,,,,,,,,,,,,,orange,circle
656.0,3.0,3.0,0.0,2.0,2.0,369.6437159997003,4.0,1.0,part_1,,,,,,,,,,,,,green,I
665.0,7.0,3.0,1.0,3.0,3.0,405.0535919996036,4.0,1.0,part_1,,,,,,,,,,,,,gray,flipped triangle
328.0,6.0,2.0,1.0,4.0,4.0,424.8347849998026,4.0,1.0,part_1,,,,,,,,,,,,,white,triangle
1320.0,8.0,4.0,1.0,1.0,1.0,387.8505170005155,4.0,1.0,part_1,,,,,,,,,,,,,orange,circle
1282.0,4.0,4.0,0.0,2.0,2.0,378.9851109995652,4.0,1.0,part_1,,,,,,,,,,,,,blue,square
1302.0,4.0,4.0,0.0,3.0,3.0,395.8030719995804,4.0,1.0,part_1,,,,,,,,,,,,,blue,square
1297.0,4.0,4.0,0.0,1.0,1.0,350.3793270001551,4.0,1.0,part_1,,,,,,,,,,,,,blue,square
175.0,1.0,1.0,0.0,1.0,1.0,478.7348049994762,4.0,1.0,part_1,,,,,,,,,,,,,cyan,diamond
1324.0,4.0,4.0,0.0,1.0,1.0,304.3400169999586,4.0,1.0,part_1,,,,,,,,,,,,,blue,square
1296.0,4.0,4.0,0.0,1.0,1.0,313.8878910003768,4.0,1.0,part_1,,,,,,,,,,,,,blue,square
1323.0,4.0,4.0,0.0,2.0,2.0,534.1826499998206,4.0,1.0,part_1,,,,,,,,,,,,,blue,square
653.0,3.0,3.0,0.0,4.0,4.0,424.1515450003135,4.0,1.0,part_1,,,,,,,,,,,,,green,I
1283.0,4.0,4.0,0.0,4.0,4.0,379.2136719994232,4.0,2.0,part_1,,,,,,,,,,,,,blue,square
0.0,4.0,0.0,0.0,4.0,4.0,351.7032069994457,4.0,1.0,part_1,,,,,,,,,,,,,blue,square
653.0,7.0,3.0,1.0,1.0,1.0,388.0557169995882,4.0,1.0,part_1,,,,,,,,,,,,,gray,flipped triangle
176.0,5.0,1.0,1.0,3.0,3.0,361.1110270003337,4.0,1.0,part_1,,,,,,,,,,,,,magenta,hexagon
640.0,7.0,3.0,1.0,1.0,1.0,444.6907040000951,4.0,1.0,part_1,,,,,,,,,,,,,gray,flipped triangle
318.0,6.0,2.0,1.0,4.0,4.0,360.9363800005667,4.0,1.0,part_1,,,,,,,,,,,,,white,triangle
1289.0,4.0,4.0,0.0,1.0,1.0,387.2955960005129,4.0,1.0,part_1,,,,,,,,,,,,,blue,square
302.0,2.0,2.0,0.0,2.0,2.0,425.2985279999848,4.0,1.0,part_1,,,,,,,,,,,,,yellow,cross
0.0,2.0,0.0,0.0,4.0,4.0,368.1108609998773,4.0,1.0,part_1,,,,,,,,,,,,,yellow,cross
346.0,2.0,2.0,0.0,3.0,3.0,453.7288840001565,4.0,1.0,part_1,,,,,,,,,,,,,yellow,cross
629.0,3.0,3.0,0.0,2.0,2.0,425.5043539997132,4.0,1.0,part_1,,,,,,,,,,,,,green,I
626.0,7.0,3.0,1.0,4.0,4.0,322.4693089996435,4.0,1.0,part_1,,,,,,,,,,,,,gray,flipped triangle
0.0,1.0,0.0,0.0,2.0,2.0,390.4697460002353,4.0,1.0,part_1,,,,,,,,,,,,,cyan,diamond
674.0,3.0,3.0,0.0,1.0,1.0,323.1546999995771,4.0,1.0,part_1,,,,,,,,,,,,,green,I
163.0,5.0,1.0,1.0,2.0,2.0,398.4617539999817,4.0,1.0,part_1,,,,,,,,,,,,,magenta,hexagon
0.0,2.0,0.0,0.0,4.0,4.0,369.7373149998384,4.0,1.0,part_1,,,,,,,,,,,,,yellow,cross
329.0,2.0,2.0,0.0,4.0,4.0,461.5750029997798,4.0,1.0,part_1,,,,,,,,,,,,,yellow,cross
666.0,3.0,3.0,0.0,1.0,1.0,323.0903640005635,4.0,1.0,part_1,,,,,,,,,,,,,green,I
335.0,6.0,2.0,1.0,4.0,4.0,396.4229949997389,4.0,1.0,part_1,,,,,,,,,,,,,white,triangle
160.0,5.0,1.0,1.0,3.0,3.0,398.3651560001817,4.0,1.0,part_1,,,,,,,,,,,,,magenta,hexagon
0.0,6.0,0.0,1.0,2.0,2.0,461.6716970003836,4.0,1.0,part_1,,,,,,,,,,,,,white,triangle
0.0,8.0,0.0,1.0,2.0,2.0,442.5655320001169,4.0,1.0,part_1,,,,,,,,,,,,,orange,circle
0.0,6.0,0.0,1.0,1.0,1.0,397.9281809997701,4.0,1.0,part_1,,,,,,,,,,,,,white,triangle
1297.0,8.0,4.0,1.0,1.0,1.0,370.2781719994164,4.0,1.0,part_1,,,,,,,,,,,,,orange,circle
308.0,6.0,2.0,1.0,2.0,2.0,434.0701149994856,4.0,1.0,part_1,,,,,,,,,,,,,white,triangle
634.0,7.0,3.0,1.0,1.0,1.0,350.9854309995717,4.0,1.0,part_1,,,,,,,,,,,,,gray,flipped triangle
0.0,5.0,0.0,1.0,2.0,2.0,341.5579250004157,4.0,1.0,part_1,,,,,,,,,,,,,magenta,hexagon
144.0,1.0,1.0,0.0,4.0,4.0,425.0997310000457,4.0,2.0,part_1,,,,,,,,,,,,,cyan,diamond
666.0,7.0,3.0,1.0,4.0,4.0,581.9987940003557,4.0,1.0,part_1,,,,,,,,,,,,,gray,flipped triangle
644.0,3.0,3.0,0.0,4.0,4.0,399.8080070005017,4.0,1.0,part_1,,,,,,,,,,,,,green,I
332.0,6.0,2.0,1.0,3.0,3.0,369.9767570005861,4.0,1.0,part_1,,,,,,,,,,,,,white,triangle
629.0,7.0,3.0,1.0,2.0,2.0,378.4654470000532,4.0,1.0,part_1,,,,,,,,,,,,,gray,flipped triangle
163.0,1.0,1.0,0.0,4.0,4.0,489.1896039998755,4.0,1.0,part_1,,,,,,,,,,,,,cyan,diamond
316.0,6.0,2.0,1.0,1.0,1.0,458.3625260002009,4.0,1.0,part_1,,,,,,,,,,,,,white,triangle
644.0,7.0,3.0,1.0,2.0,2.0,395.4575420002584,4.0,1.0,part_1,,,,,,,,,,,,,gray,flipped triangle
663.0,7.0,3.0,1.0,3.0,3.0,405.5770659997506,4.0,1.0,part_1,,,,,,,,,,,,,gray,flipped triangle
1318.0,4.0,4.0,0.0,2.0,2.0,478.5111390001475,4.0,1.0,part_1,,,,,,,,,,,,,blue,square
185.0,1.0,1.0,0.0,3.0,3.0,405.8794790007596,4.0,1.0,part_1,,,,,,,,,,,,,cyan,diamond
0.0,1.0,0.0,0.0,1.0,1.0,416.0367829999813,4.0,1.0,part_1,,,,,,,,,,,,,cyan,diamond
662.0,3.0,3.0,0.0,3.0,3.0,407.0628469999064,4.0,1.0,part_1,,,,,,,,,,,,,green,I
0.0,6.0,0.0,1.0,4.0,4.0,425.2047170002697,4.0,1.0,part_1,,,,,,,,,,,,,white,triangle
675.0,7.0,3.0,1.0,2.0,2.0,384.646124000028,4.0,1.0,part_1,,,,,,,,,,,,,gray,flipped triangle
0.0,2.0,0.0,0.0,3.0,3.0,405.8065980007086,4.0,1.0,part_1,,,,,,,,,,,,,yellow,cross
657.0,3.0,3.0,0.0,1.0,1.0,461.7280719994596,4.0,1.0,part_1,,,,,,,,,,,,,green,I
1279.0,4.0,4.0,0.0,3.0,3.0,361.2465989999691,4.0,1.0,part_1,,,,,,,,,,,,,blue,square
634.0,3.0,3.0,0.0,1.0,1.0,488.4919910000462,4.0,1.0,part_1,,,,,,,,,,,,,green,I
1279.0,8.0,4.0,1.0,3.0,3.0,395.9646430002976,4.0,1.0,part_1,,,,,,,,,,,,,orange,circle
142.0,5.0,1.0,1.0,2.0,2.0,369.2295310002009,4.0,1.0,part_1,,,,,,,,,,,,,magenta,hexagon
0.0,8.0,0.0,1.0,1.0,1.0,323.8016449995484,4.0,1.0,part_1,,,,,,,,,,,,,orange,circle
159.0,5.0,1.0,1.0,3.0,3.0,416.3876229995367,4.0,1.0,part_1,,,,,,,,,,,,,magenta,hexagon
626.0,3.0,3.0,0.0,2.0,2.0,516.8135320000147,4.0,1.0,part_1,,,,,,,,,,,,,green,I
1290.0,8.0,4.0,1.0,4.0,4.0,375.0827570002002,4.0,1.0,part_1,,,,,,,,,,,,,orange,circle
328.0,2.0,2.0,0.0,1.0,1.0,324.1404090003925,4.0,1.0,part_1,,,,,,,,,,,,,yellow,cross
1314.0,4.0,4.0,0.0,4.0,4.0,433.730244999424,4.0,1.0,part_1,,,,,,,,,,,,,blue,square
160.0,1.0,1.0,0.0,4.0,4.0,397.7258549994076,4.0,1.0,part_1,,,,,,,,,,,,,cyan,diamond
0.0,1.0,0.0,0.0,2.0,2.0,368.2140939999954,4.0,1.0,part_1,,,,,,,,,,,,,cyan,diamond
182.0,1.0,1.0,0.0,2.0,2.0,351.8331889999899,4.0,1.0,part_1,,,,,,,,,,,,,cyan,diamond
647.0,7.0,3.0,1.0,1.0,1.0,322.7651179995519,4.0,1.0,part_1,,,,,,,,,,,,,gray,flipped triangle
1311.0,4.0,4.0,0.0,3.0,3.0,396.924511999714,4.0,1.0,part_1,,,,,,,,,,,,,blue,square
1289.0,8.0,4.0,1.0,3.0,3.0,396.0126020001553,4.0,1.0,part_1,,,,,,,,,,,,,orange,circle
1292.0,8.0,4.0,1.0,4.0,4.0,387.8581190001569,4.0,1.0,part_1,,,,,,,,,,,,,orange,circle
0.0,1.0,1.0,0.0,5.0,5.0,370.3407529992546,1.0,0.0,part_2,go,250.0,250.0,1.0,,,,,,,,,cyan,diamond
0.0,5.0,1.0,1.0,6.0,0.0,0.0,1.0,0.0,part_2,stop,250.0,250.0,4.0,,,,,,,,,magenta,hexagon
0.0,6.0,2.0,1.0,6.0,6.0,390.4891239999415,1.0,0.0,part_2,stop,250.0,300.0,3.0,,,,,,,,,white,triangle
0.0,7.0,3.0,1.0,5.0,5.0,381.9530259997918,1.0,0.0,part_2,stop,250.0,250.0,3.0,,,,,,,,,gray,flipped triangle
0.0,3.0,3.0,0.0,6.0,6.0,473.1050020000111,1.0,0.0,part_2,go,200.0,250.0,1.0,,,,,,,,,green,I
0.0,7.0,3.0,1.0,6.0,6.0,474.3217490004099,1.0,0.0,part_2,go,200.0,250.0,1.0,,,,,,,,,gray,flipped triangle
0.0,2.0,2.0,0.0,6.0,6.0,474.2187539995939,1.0,0.0,part_2,go,200.0,250.0,1.0,,,,,,,,,yellow,cross
0.0,2.0,2.0,0.0,5.0,5.0,418.1239239997012,1.0,0.0,part_2,go,200.0,250.0,1.0,,,,,,,,,yellow,cross
0.0,8.0,4.0,1.0,6.0,6.0,496.4819980004904,1.0,0.0,part_2,stop,200.0,250.0,3.0,,,,,,,,,orange,circle
0.0,8.0,4.0,1.0,5.0,5.0,385.190877000241,1.0,0.0,part_2,stop,200.0,200.0,3.0,,,,,,,,,orange,circle
0.0,5.0,1.0,1.0,5.0,0.0,0.0,1.0,0.0,part_2,stop,150.0,200.0,4.0,,,,,,,,,magenta,hexagon
0.0,1.0,1.0,0.0,6.0,6.0,658.5037279992321,1.0,0.0,part_2,go,200.0,200.0,1.0,,,,,,,,,cyan,diamond
0.0,2.0,2.0,0.0,6.0,6.0,611.3910439999017,1.0,0.0,part_2,go,200.0,200.0,1.0,,,,,,,,,yellow,cross
0.0,7.0,3.0,1.0,6.0,0.0,0.0,1.0,0.0,part_2,stop,200.0,200.0,4.0,,,,,,,,,gray,flipped triangle
0.0,5.0,1.0,1.0,6.0,6.0,797.5400999994235,1.0,0.0,part_2,go,200.0,250.0,1.0,,,,,,,,,magenta,hexagon
0.0,5.0,1.0,1.0,5.0,0.0,0.0,1.0,0.0,part_2,stop,200.0,250.0,4.0,,,,,,,,,magenta,hexagon
0.0,8.0,4.0,1.0,6.0,0.0,0.0,1.0,0.0,part_2,stop,250.0,250.0,4.0,,,,,,,,,orange,circle
0.0,4.0,4.0,0.0,5.0,5.0,790.4527999999118,1.0,0.0,part_2,go,250.0,300.0,1.0,,,,,,,,,blue,square
0.0,2.0,2.0,0.0,5.0,5.0,770.149525999841,1.0,0.0,part_2,go,250.0,300.0,1.0,,,,,,,,,yellow,cross
0.0,1.0,1.0,0.0,6.0,6.0,652.0947799999703,1.0,0.0,part_2,go,250.0,300.0,1.0,,,,,,,,,cyan,diamond
0.0,8.0,4.0,1.0,6.0,0.0,0.0,1.0,0.0,part_2,stop,250.0,300.0,4.0,,,,,,,,,orange,circle
0.0,7.0,3.0,1.0,6.0,6.0,753.2668510002622,1.0,0.0,part_2,go,250.0,350.0,1.0,,,,,,,,,gray,flipped triangle
0.0,5.0,1.0,1.0,6.0,0.0,0.0,1.0,0.0,part_2,stop,250.0,350.0,4.0,,,,,,,,,magenta,hexagon
0.0,4.0,4.0,0.0,6.0,6.0,577.6900549999482,1.0,0.0,part_2,go,250.0,400.0,1.0,,,,,,,,,blue,square
0.0,4.0,4.0,0.0,5.0,5.0,733.7204559999009,1.0,0.0,part_2,go,250.0,400.0,1.0,,,,,,,,,blue,square
0.0,7.0,3.0,1.0,5.0,0.0,0.0,1.0,0.0,part_2,stop,250.0,400.0,4.0,,,,,,,,,gray,flipped triangle
0.0,3.0,3.0,0.0,6.0,6.0,735.6833650001136,1.0,0.0,part_2,go,300.0,400.0,1.0,,,,,,,,,green,I
0.0,3.0,3.0,0.0,6.0,6.0,615.7911119998971,1.0,0.0,part_2,go,300.0,400.0,1.0,,,,,,,,,green,I
0.0,7.0,3.0,1.0,5.0,0.0,0.0,1.0,0.0,part_2,stop,300.0,400.0,4.0,,,,,,,,,gray,flipped triangle
0.0,3.0,3.0,0.0,6.0,6.0,530.8866819996183,1.0,0.0,part_2,go,350.0,400.0,1.0,,,,,,,,,green,I
0.0,5.0,1.0,1.0,5.0,0.0,0.0,1.0,0.0,part_2,stop,350.0,400.0,4.0,,,,,,,,,magenta,hexagon
0.0,8.0,4.0,1.0,6.0,0.0,0.0,1.0,0.0,part_2,stop,400.0,400.0,4.0,,,,,,,,,orange,circle
0.0,4.0,4.0,0.0,6.0,6.0,836.8842199997744,1.0,0.0,part_2,go,400.0,450.0,1.0,,,,,,,,,blue,square
0.0,7.0,3.0,1.0,6.0,0.0,0.0,1.0,0.0,part_2,stop,400.0,450.0,4.0,,,,,,,,,gray,flipped triangle
0.0,8.0,4.0,1.0,5.0,0.0,0.0,1.0,0.0,part_2,stop,400.0,500.0,4.0,,,,,,,,,orange,circle
0.0,2.0,2.0,0.0,6.0,6.0,1032.163085999855,1.0,0.0,part_2,go,450.0,500.0,1.0,,,,,,,,,yellow,cross
0.0,4.0,4.0,0.0,5.0,5.0,912.1083969994288,2.0,0.0,part_2,go,450.0,500.0,1.0,,,,,,,,,blue,square
0.0,1.0,1.0,0.0,5.0,5.0,613.9744510001037,2.0,0.0,part_2,go,450.0,500.0,1.0,,,,,,,,,cyan,diamond
0.0,7.0,3.0,1.0,6.0,6.0,533.7761740001952,2.0,0.0,part_2,stop,450.0,500.0,3.0,,,,,,,,,gray,flipped triangle
0.0,5.0,1.0,1.0,6.0,0.0,0.0,2.0,0.0,part_2,stop,450.0,450.0,4.0,,,,,,,,,magenta,hexagon
0.0,1.0,1.0,0.0,5.0,5.0,605.8980739999242,2.0,0.0,part_2,go,450.0,500.0,1.0,,,,,,,,,cyan,diamond
0.0,3.0,3.0,0.0,6.0,6.0,708.7375729997802,2.0,0.0,part_2,go,450.0,500.0,1.0,,,,,,,,,green,I
0.0,4.0,4.0,0.0,6.0,6.0,698.23006399929,2.0,0.0,part_2,go,450.0,500.0,1.0,,,,,,,,,blue,square
0.0,7.0,3.0,1.0,5.0,5.0,581.7991159992744,2.0,0.0,part_2,stop,450.0,500.0,3.0,,,,,,,,,gray,flipped triangle
0.0,2.0,2.0,0.0,5.0,5.0,708.6304040003597,2.0,0.0,part_2,go,400.0,500.0,1.0,,,,,,,,,yellow,cross
0.0,6.0,2.0,1.0,6.0,6.0,742.5153009999121,2.0,0.0,part_2,go,400.0,500.0,1.0,,,,,,,,,white,triangle
0.0,6.0,2.0,1.0,5.0,5.0,615.8138309992864,2.0,0.0,part_2,go,400.0,500.0,1.0,,,,,,,,,white,triangle
0.0,3.0,3.0,0.0,5.0,5.0,595.0511669998377,2.0,0.0,part_2,go,400.0,500.0,1.0,,,,,,,,,green,I
0.0,1.0,1.0,0.0,5.0,5.0,659.0564739999536,2.0,0.0,part_2,go,400.0,500.0,1.0,,,,,,,,,cyan,diamond
0.0,2.0,2.0,0.0,5.0,5.0,761.5589779998118,2.0,0.0,part_2,go,400.0,500.0,1.0,,,,,,,,,yellow,cross
0.0,3.0,3.0,0.0,5.0,5.0,602.8337190000457,2.0,0.0,part_2,go,400.0,500.0,1.0,,,,,,,,,green,I
0.0,6.0,2.0,1.0,6.0,6.0,662.4492200007808,2.0,0.0,part_2,stop,400.0,500.0,3.0,,,,,,,,,white,triangle
0.0,3.0,3.0,0.0,5.0,5.0,724.8636469994381,2.0,0.0,part_2,go,400.0,450.0,1.0,,,,,,,,,green,I
0.0,5.0,1.0,1.0,6.0,6.0,837.1945729995787,2.0,0.0,part_2,go,400.0,450.0,1.0,,,,,,,,,magenta,hexagon
0.0,3.0,3.0,0.0,6.0,6.0,688.9347429996633,2.0,0.0,part_2,go,400.0,450.0,1.0,,,,,,,,,green,I
0.0,1.0,1.0,0.0,6.0,6.0,930.5415349999748,2.0,0.0,part_2,go,400.0,450.0,1.0,,,,,,,,,cyan,diamond
0.0,1.0,1.0,0.0,6.0,6.0,827.9319980001674,2.0,0.0,part_2,go,400.0,450.0,1.0,,,,,,,,,cyan,diamond
0.0,5.0,1.0,1.0,6.0,0.0,0.0,2.0,0.0,part_2,stop,400.0,450.0,4.0,,,,,,,,,magenta,hexagon
0.0,2.0,2.0,0.0,6.0,6.0,761.0524840001744,2.0,0.0,part_2,go,400.0,500.0,1.0,,,,,,,,,yellow,cross
0.0,1.0,1.0,0.0,6.0,6.0,955.0810629998524,2.0,0.0,part_2,go,400.0,500.0,1.0,,,,,,,,,cyan,diamond
0.0,7.0,3.0,1.0,6.0,0.0,0.0,2.0,0.0,part_2,stop,400.0,500.0,4.0,,,,,,,,,gray,flipped triangle
0.0,4.0,4.0,0.0,6.0,6.0,837.6126120001572,2.0,0.0,part_2,go,400.0,550.0,1.0,,,,,,,,,blue,square
0.0,2.0,2.0,0.0,6.0,6.0,873.6778459997367,2.0,0.0,part_2,go,400.0,550.0,1.0,,,,,,,,,yellow,cross
0.0,8.0,4.0,1.0,5.0,0.0,0.0,2.0,0.0,part_2,stop,400.0,550.0,4.0,,,,,,,,,orange,circle
0.0,8.0,4.0,1.0,5.0,5.0,726.4340909996463,2.0,0.0,part_2,go,450.0,550.0,1.0,,,,,,,,,orange,circle
0.0,6.0,2.0,1.0,6.0,0.0,0.0,2.0,0.0,part_2,stop,450.0,550.0,4.0,,,,,,,,,white,triangle
0.0,6.0,2.0,1.0,6.0,0.0,0.0,2.0,0.0,part_2,stop,450.0,600.0,4.0,,,,,,,,,white,triangle
0.0,4.0,4.0,0.0,6.0,6.0,1097.3189209998964,2.0,0.0,part_2,go,450.0,650.0,1.0,,,,,,,,,blue,square
0.0,7.0,3.0,1.0,6.0,6.0,775.5453500003568,2.0,0.0,part_2,stop,450.0,650.0,3.0,,,,,,,,,gray,flipped triangle
0.0,8.0,4.0,1.0,6.0,6.0,938.2060130001264,2.0,0.0,part_2,go,450.0,600.0,1.0,,,,,,,,,orange,circle
0.0,4.0,4.0,0.0,6.0,6.0,947.94004600044,2.0,0.0,part_2,go,450.0,600.0,1.0,,,,,,,,,blue,square
0.0,7.0,3.0,1.0,6.0,0.0,0.0,2.0,0.0,part_2,stop,450.0,600.0,4.0,,,,,,,,,gray,flipped triangle
0.0,8.0,4.0,1.0,5.0,5.0,835.0060740003755,3.0,0.0,part_2,go,450.0,650.0,1.0,,,,,,,,,orange,circle
0.0,4.0,4.0,0.0,5.0,5.0,595.4174340004101,3.0,0.0,part_2,go,450.0,650.0,1.0,,,,,,,,,blue,square
0.0,8.0,4.0,1.0,6.0,6.0,597.9302429996096,3.0,0.0,part_2,go,450.0,650.0,1.0,,,,,,,,,orange,circle
0.0,7.0,3.0,1.0,6.0,6.0,596.0463820001678,3.0,0.0,part_2,go,450.0,650.0,1.0,,,,,,,,,gray,flipped triangle
0.0,8.0,4.0,1.0,6.0,6.0,436.6488240002582,3.0,0.0,part_2,stop,450.0,650.0,3.0,,,,,,,,,orange,circle
0.0,6.0,2.0,1.0,6.0,6.0,655.5694790004054,3.0,0.0,part_2,stop,450.0,600.0,3.0,,,,,,,,,white,triangle
0.0,8.0,4.0,1.0,5.0,5.0,819.7872989994721,3.0,0.0,part_2,go,450.0,550.0,1.0,,,,,,,,,orange,circle
0.0,2.0,2.0,0.0,5.0,5.0,757.3807440003293,3.0,0.0,part_2,go,450.0,550.0,1.0,,,,,,,,,yellow,cross
0.0,5.0,1.0,1.0,6.0,6.0,867.2253209997507,3.0,0.0,part_2,stop,450.0,550.0,3.0,,,,,,,,,magenta,hexagon
0.0,8.0,4.0,1.0,5.0,0.0,0.0,3.0,0.0,part_2,stop,450.0,500.0,4.0,,,,,,,,,orange,circle
0.0,2.0,2.0,0.0,6.0,6.0,836.8408529995577,3.0,0.0,part_2,go,500.0,500.0,1.0,,,,,,,,,yellow,cross
0.0,1.0,1.0,0.0,5.0,5.0,838.7269299992113,3.0,0.0,part_2,go,500.0,500.0,1.0,,,,,,,,,cyan,diamond
0.0,2.0,2.0,0.0,5.0,5.0,901.5091710007256,3.0,0.0,part_2,go,500.0,500.0,1.0,,,,,,,,,yellow,cross
0.0,4.0,4.0,0.0,6.0,6.0,766.4412750000338,3.0,0.0,part_2,go,500.0,500.0,1.0,,,,,,,,,blue,square
0.0,6.0,2.0,1.0,5.0,5.0,697.4147070004619,3.0,0.0,part_2,go,500.0,500.0,1.0,,,,,,,,,white,triangle
0.0,7.0,3.0,1.0,5.0,0.0,0.0,3.0,0.0,part_2,stop,500.0,500.0,4.0,,,,,,,,,gray,flipped triangle
0.0,1.0,1.0,0.0,6.0,6.0,937.9828559995076,3.0,0.0,part_2,go,550.0,500.0,1.0,,,,,,,,,cyan,diamond
0.0,7.0,3.0,1.0,5.0,0.0,0.0,3.0,0.0,part_2,stop,550.0,500.0,4.0,,,,,,,,,gray,flipped triangle
0.0,5.0,1.0,1.0,5.0,5.0,815.3917050003656,3.0,0.0,part_2,stop,600.0,500.0,3.0,,,,,,,,,magenta,hexagon
0.0,1.0,1.0,0.0,6.0,6.0,891.0808569999062,3.0,0.0,part_2,go,550.0,500.0,1.0,,,,,,,,,cyan,diamond
0.0,4.0,4.0,0.0,5.0,5.0,985.8064449999802,3.0,0.0,part_2,go,550.0,500.0,1.0,,,,,,,,,blue,square
0.0,1.0,1.0,0.0,6.0,6.0,834.6575159994245,3.0,0.0,part_2,go,550.0,500.0,1.0,,,,,,,,,cyan,diamond
0.0,2.0,2.0,0.0,5.0,5.0,734.3068089994631,3.0,0.0,part_2,go,550.0,500.0,1.0,,,,,,,,,yellow,cross
0.0,5.0,1.0,1.0,5.0,5.0,863.2416199998261,3.0,0.0,part_2,go,550.0,500.0,1.0,,,,,,,,,magenta,hexagon
0.0,8.0,4.0,1.0,6.0,0.0,0.0,3.0,0.0,part_2,stop,550.0,500.0,4.0,,,,,,,,,orange,circle
0.0,5.0,1.0,1.0,6.0,0.0,0.0,3.0,0.0,part_2,stop,550.0,550.0,4.0,,,,,,,,,magenta,hexagon
0.0,8.0,4.0,1.0,6.0,6.0,805.2868889999445,3.0,0.0,part_2,stop,550.0,600.0,3.0,,,,,,,,,orange,circle
0.0,1.0,1.0,0.0,6.0,6.0,891.5831909998815,3.0,0.0,part_2,go,550.0,550.0,1.0,,,,,,,,,cyan,diamond
0.0,2.0,2.0,0.0,6.0,6.0,754.4371399999363,3.0,0.0,part_2,go,550.0,550.0,1.0,,,,,,,,,yellow,cross
0.0,5.0,1.0,1.0,6.0,0.0,0.0,3.0,0.0,part_2,stop,550.0,550.0,4.0,,,,,,,,,magenta,hexagon
0.0,5.0,1.0,1.0,6.0,0.0,0.0,3.0,0.0,part_2,stop,550.0,600.0,4.0,,,,,,,,,magenta,hexagon
0.0,4.0,4.0,0.0,5.0,5.0,929.6909680006138,3.0,0.0,part_2,go,550.0,650.0,1.0,,,,,,,,,blue,square
0.0,6.0,2.0,1.0,5.0,0.0,0.0,3.0,0.0,part_2,stop,550.0,650.0,4.0,,,,,,,,,white,triangle
0.0,3.0,3.0,0.0,6.0,6.0,958.9663089991518,3.0,0.0,part_2,go,600.0,650.0,1.0,,,,,,,,,green,I
0.0,1.0,1.0,0.0,5.0,5.0,809.3979639997997,3.0,0.0,part_2,go,600.0,650.0,1.0,,,,,,,,,cyan,diamond
0.0,8.0,4.0,1.0,5.0,5.0,686.2345509998704,3.0,0.0,part_2,stop,600.0,650.0,3.0,,,,,,,,,orange,circle
0.0,6.0,2.0,1.0,5.0,5.0,602.87384700041,4.0,0.0,part_2,stop,550.0,650.0,3.0,,,,,,,,,white,triangle
0.0,8.0,4.0,1.0,6.0,6.0,456.3831139994363,4.0,0.0,part_2,stop,500.0,650.0,3.0,,,,,,,,,orange,circle
0.0,3.0,3.0,0.0,6.0,6.0,409.04577099991,4.0,0.0,part_2,go,500.0,600.0,1.0,,,,,,,,,green,I
0.0,3.0,3.0,0.0,5.0,5.0,344.4836700000451,4.0,0.0,part_2,go,500.0,600.0,1.0,,,,,,,,,green,I
0.0,1.0,1.0,0.0,6.0,6.0,362.0102009999755,4.0,0.0,part_2,go,500.0,600.0,1.0,,,,,,,,,cyan,diamond
0.0,8.0,4.0,1.0,6.0,6.0,419.4914829995468,4.0,0.0,part_2,stop,500.0,600.0,3.0,,,,,,,,,orange,circle
0.0,8.0,4.0,1.0,5.0,5.0,589.5340189999843,4.0,0.0,part_2,stop,500.0,550.0,3.0,,,,,,,,,orange,circle
0.0,5.0,1.0,1.0,6.0,6.0,424.6383919999061,4.0,0.0,part_2,go,450.0,550.0,1.0,,,,,,,,,magenta,hexagon
0.0,2.0,2.0,0.0,5.0,5.0,326.462494000225,4.0,0.0,part_2,go,450.0,550.0,1.0,,,,,,,,,yellow,cross
0.0,2.0,2.0,0.0,5.0,5.0,502.5080010000238,4.0,0.0,part_2,go,450.0,550.0,1.0,,,,,,,,,yellow,cross
0.0,1.0,1.0,0.0,6.0,6.0,308.581532000062,4.0,0.0,part_2,go,450.0,550.0,1.0,,,,,,,,,cyan,diamond
0.0,5.0,1.0,1.0,5.0,5.0,362.7436510005282,4.0,0.0,part_2,go,450.0,550.0,1.0,,,,,,,,,magenta,hexagon
0.0,3.0,3.0,0.0,6.0,6.0,315.9963570005857,4.0,0.0,part_2,go,450.0,550.0,1.0,,,,,,,,,green,I
0.0,5.0,1.0,1.0,5.0,5.0,288.4494569998423,4.0,0.0,part_2,go,450.0,550.0,1.0,,,,,,,,,magenta,hexagon
0.0,6.0,2.0,1.0,6.0,6.0,325.8093069998722,4.0,0.0,part_2,stop,450.0,550.0,3.0,,,,,,,,,white,triangle
0.0,6.0,2.0,1.0,5.0,5.0,364.285867000035,4.0,0.0,part_2,stop,450.0,500.0,3.0,,,,,,,,,white,triangle
0.0,3.0,3.0,0.0,5.0,5.0,455.2923090004697,4.0,0.0,part_2,go,400.0,500.0,1.0,,,,,,,,,green,I
0.0,1.0,1.0,0.0,5.0,5.0,308.354524000606,4.0,0.0,part_2,go,400.0,500.0,1.0,,,,,,,,,cyan,diamond
0.0,5.0,1.0,1.0,6.0,6.0,316.2255619999996,4.0,0.0,part_2,stop,400.0,500.0,3.0,,,,,,,,,magenta,hexagon
0.0,2.0,2.0,0.0,5.0,5.0,466.5391060007096,4.0,0.0,part_2,go,400.0,450.0,1.0,,,,,,,,,yellow,cross
0.0,6.0,2.0,1.0,6.0,6.0,373.441757999899,4.0,0.0,part_2,stop,400.0,450.0,3.0,,,,,,,,,white,triangle
0.0,6.0,2.0,1.0,5.0,5.0,352.9095719995894,4.0,0.0,part_2,stop,400.0,400.0,3.0,,,,,,,,,white,triangle
0.0,3.0,3.0,0.0,5.0,5.0,621.8624080001973,4.0,0.0,part_2,go,350.0,400.0,1.0,,,,,,,,,green,I
0.0,4.0,4.0,0.0,5.0,5.0,465.3146870005002,4.0,0.0,part_2,go,350.0,400.0,1.0,,,,,,,,,blue,square
0.0,8.0,4.0,1.0,6.0,6.0,317.2207060006258,4.0,0.0,part_2,stop,350.0,400.0,3.0,,,,,,,,,orange,circle
0.0,5.0,1.0,1.0,5.0,5.0,525.2959079998618,4.0,0.0,part_2,stop,350.0,350.0,3.0,,,,,,,,,magenta,hexagon
0.0,4.0,4.0,0.0,5.0,5.0,875.6173550000312,4.0,0.0,part_2,go,300.0,350.0,1.0,,,,,,,,,blue,square
0.0,4.0,4.0,0.0,5.0,5.0,530.802913000116,4.0,0.0,part_2,go,300.0,350.0,1.0,,,,,,,,,blue,square
0.0,2.0,2.0,0.0,6.0,6.0,447.1536470000501,4.0,0.0,part_2,go,300.0,350.0,1.0,,,,,,,,,yellow,cross
0.0,5.0,1.0,1.0,5.0,5.0,512.5120889997561,4.0,0.0,part_2,stop,300.0,350.0,3.0,,,,,,,,,magenta,hexagon
0.0,8.0,4.0,1.0,6.0,6.0,395.9315950005475,4.0,0.0,part_2,stop,250.0,350.0,3.0,,,,,,,,,orange,circle
0.0,8.0,4.0,1.0,5.0,5.0,707.5970579999193,4.0,0.0,part_2,go,250.0,300.0,1.0,,,,,,,,,orange,circle
0.0,6.0,2.0,1.0,6.0,0.0,0.0,4.0,0.0,part_2,stop,250.0,300.0,4.0,,,,,,,,,white,triangle
0.0,4.0,4.0,0.0,6.0,6.0,561.506950999501,4.0,0.0,part_2,go,250.0,350.0,1.0,,,,,,,,,blue,square
0.0,1.0,1.0,0.0,5.0,5.0,521.151848000045,4.0,0.0,part_2,go,250.0,350.0,1.0,,,,,,,,,cyan,diamond
0.0,8.0,4.0,1.0,6.0,0.0,0.0,4.0,0.0,part_2,stop,250.0,350.0,4.0,,,,,,,,,orange,circle
0.0,4.0,4.0,0.0,6.0,6.0,623.7060000003112,5.0,0.0,part_2,go,250.0,400.0,1.0,,,,,,,,,blue,square
0.0,2.0,2.0,0.0,6.0,6.0,464.3938139997772,5.0,0.0,part_2,go,250.0,400.0,1.0,,,,,,,,,yellow,cross
0.0,6.0,2.0,1.0,6.0,6.0,390.645198999664,5.0,0.0,part_2,stop,250.0,400.0,3.0,,,,,,,,,white,triangle
0.0,6.0,2.0,1.0,6.0,0.0,0.0,5.0,0.0,part_2,stop,250.0,350.0,4.0,,,,,,,,,white,triangle
0.0,8.0,4.0,1.0,5.0,5.0,399.710877999496,5.0,0.0,part_2,go,250.0,400.0,1.0,,,,,,,,,orange,circle
0.0,6.0,2.0,1.0,6.0,6.0,492.5620340000023,5.0,0.0,part_2,go,250.0,400.0,1.0,,,,,,,,,white,triangle
0.0,5.0,1.0,1.0,6.0,6.0,455.9242080003969,5.0,0.0,part_2,stop,250.0,400.0,3.0,,,,,,,,,magenta,hexagon
0.0,7.0,3.0,1.0,6.0,6.0,475.5071760000646,5.0,0.0,part_2,stop,250.0,350.0,3.0,,,,,,,,,gray,flipped triangle
0.0,5.0,1.0,1.0,5.0,5.0,421.7271160005111,5.0,0.0,part_2,stop,250.0,300.0,3.0,,,,,,,,,magenta,hexagon
0.0,4.0,4.0,0.0,5.0,5.0,642.8004790004707,5.0,0.0,part_2,go,200.0,300.0,1.0,,,,,,,,,blue,square
0.0,6.0,2.0,1.0,5.0,5.0,402.0896060001178,5.0,0.0,part_2,stop,200.0,300.0,3.0,,,,,,,,,white,triangle
0.0,5.0,1.0,1.0,6.0,6.0,474.7272879994852,5.0,0.0,part_2,go,150.0,300.0,1.0,,,,,,,,,magenta,hexagon
0.0,5.0,1.0,1.0,5.0,0.0,0.0,5.0,0.0,part_2,stop,150.0,300.0,4.0,,,,,,,,,magenta,hexagon
0.0,8.0,4.0,1.0,6.0,0.0,0.0,5.0,0.0,part_2,stop,200.0,300.0,4.0,,,,,,,,,orange,circle
0.0,6.0,2.0,1.0,5.0,5.0,595.699446999788,5.0,0.0,part_2,go,200.0,350.0,1.0,,,,,,,,,white,triangle
0.0,1.0,1.0,0.0,6.0,6.0,409.9321710000367,5.0,0.0,part_2,go,200.0,350.0,1.0,,,,,,,,,cyan,diamond
0.0,7.0,3.0,1.0,5.0,0.0,0.0,5.0,0.0,part_2,stop,200.0,350.0,4.0,,,,,,,,,gray,flipped triangle
0.0,4.0,4.0,0.0,5.0,5.0,632.7266890002647,5.0,0.0,part_2,go,250.0,350.0,1.0,,,,,,,,,blue,square
0.0,3.0,3.0,0.0,5.0,5.0,596.3720560002912,5.0,0.0,part_2,go,250.0,350.0,1.0,,,,,,,,,green,I
0.0,4.0,4.0,0.0,5.0,5.0,567.7665520006485,5.0,0.0,part_2,go,250.0,350.0,1.0,,,,,,,,,blue,square
0.0,4.0,4.0,0.0,6.0,6.0,511.5221140003996,5.0,0.0,part_2,go,250.0,350.0,1.0,,,,,,,,,blue,square
0.0,3.0,3.0,0.0,5.0,5.0,558.565868000187,5.0,0.0,part_2,go,250.0,350.0,1.0,,,,,,,,,green,I
0.0,2.0,2.0,0.0,5.0,5.0,662.127672000679,5.0,0.0,part_2,go,250.0,350.0,1.0,,,,,,,,,yellow,cross
0.0,2.0,2.0,0.0,6.0,6.0,371.9302460003746,5.0,0.0,part_2,go,250.0,350.0,1.0,,,,,,,,,yellow,cross
0.0,2.0,2.0,0.0,5.0,5.0,409.617586999957,5.0,0.0,part_2,go,250.0,350.0,1.0,,,,,,,,,yellow,cross
0.0,5.0,1.0,1.0,6.0,6.0,531.0855769994305,5.0,0.0,part_2,stop,250.0,350.0,3.0,,,,,,,,,magenta,hexagon
0.0,7.0,3.0,1.0,5.0,5.0,678.7649829993825,5.0,0.0,part_2,go,250.0,300.0,1.0,,,,,,,,,gray,flipped triangle
0.0,6.0,2.0,1.0,6.0,6.0,511.27781800005323,5.0,0.0,part_2,go,250.0,300.0,1.0,,,,,,,,,white,triangle
0.0,7.0,3.0,1.0,6.0,0.0,0.0,5.0,0.0,part_2,stop,250.0,300.0,4.0,,,,,,,,,gray,flipped triangle
0.0,7.0,3.0,1.0,5.0,0.0,0.0,5.0,0.0,part_2,stop,250.0,350.0,4.0,,,,,,,,,gray,flipped triangle
0.0,4.0,4.0,0.0,6.0,6.0,529.2229350006892,5.0,0.0,part_2,go,300.0,350.0,1.0,,,,,,,,,blue,square
0.0,3.0,3.0,0.0,6.0,6.0,594.8924670001361,5.0,0.0,part_2,go,300.0,350.0,1.0,,,,,,,,,green,I
0.0,4.0,4.0,0.0,6.0,6.0,532.6832620003188,5.0,0.0,part_2,go,300.0,350.0,1.0,,,,,,,,,blue,square
0.0,6.0,2.0,1.0,5.0,5.0,495.4542000004949,5.0,0.0,part_2,stop,300.0,350.0,3.0,,,,,,,,,white,triangle
0.0,8.0,4.0,1.0,5.0,0.0,0.0,5.0,0.0,part_2,stop,250.0,350.0,4.0,,,,,,,,,orange,circle
0.0,3.0,3.0,0.0,6.0,6.0,605.2286359999925,5.0,0.0,part_2,go,300.0,350.0,1.0,,,,,,,,,green,I
0.0,1.0,1.0,0.0,5.0,5.0,606.4904700006082,6.0,0.0,part_2,go,300.0,350.0,1.0,,,,,,,,,cyan,diamond
0.0,3.0,3.0,0.0,5.0,5.0,455.5279760006669,6.0,0.0,part_2,go,300.0,350.0,1.0,,,,,,,,,green,I
0.0,2.0,2.0,0.0,6.0,6.0,530.7578309993914,6.0,0.0,part_2,go,300.0,350.0,1.0,,,,,,,,,yellow,cross
0.0,6.0,2.0,1.0,6.0,0.0,0.0,6.0,0.0,part_2,stop,300.0,350.0,4.0,,,,,,,,,white,triangle
0.0,8.0,4.0,1.0,6.0,6.0,585.9677210000882,6.0,0.0,part_2,stop,300.0,400.0,3.0,,,,,,,,,orange,circle
0.0,5.0,1.0,1.0,5.0,0.0,0.0,6.0,0.0,part_2,stop,300.0,350.0,4.0,,,,,,,,,magenta,hexagon
0.0,2.0,2.0,0.0,5.0,5.0,492.7410239997698,6.0,0.0,part_2,go,350.0,350.0,1.0,,,,,,,,,yellow,cross
0.0,6.0,2.0,1.0,5.0,5.0,483.0275730000721,6.0,0.0,part_2,stop,350.0,350.0,3.0,,,,,,,,,white,triangle
0.0,5.0,1.0,1.0,6.0,0.0,0.0,6.0,0.0,part_2,stop,300.0,350.0,4.0,,,,,,,,,magenta,hexagon
0.0,1.0,1.0,0.0,6.0,6.0,557.9877709997163,6.0,0.0,part_2,go,300.0,400.0,1.0,,,,,,,,,cyan,diamond
0.0,1.0,1.0,0.0,5.0,5.0,513.9289230000941,6.0,0.0,part_2,go,300.0,400.0,1.0,,,,,,,,,cyan,diamond
0.0,7.0,3.0,1.0,6.0,0.0,0.0,6.0,0.0,part_2,stop,300.0,400.0,4.0,,,,,,,,,gray,flipped triangle
0.0,7.0,3.0,1.0,5.0,5.0,845.1965140002358,6.0,0.0,part_2,go,300.0,450.0,1.0,,,,,,,,,gray,flipped triangle
0.0,7.0,3.0,1.0,5.0,0.0,0.0,6.0,0.0,part_2,stop,300.0,450.0,4.0,,,,,,,,,gray,flipped triangle
0.0,8.0,4.0,1.0,5.0,5.0,503.0754239996895,6.0,0.0,part_2,stop,350.0,450.0,3.0,,,,,,,,,orange,circle
0.0,5.0,1.0,1.0,5.0,0.0,0.0,6.0,0.0,part_2,stop,300.0,450.0,4.0,,,,,,,,,magenta,hexagon
0.0,3.0,3.0,0.0,6.0,6.0,429.3405360003817,6.0,0.0,part_2,go,350.0,450.0,1.0,,,,,,,,,green,I
0.0,1.0,1.0,0.0,5.0,5.0,744.0576110002439,6.0,0.0,part_2,go,350.0,450.0,1.0,,,,,,,,,cyan,diamond
0.0,3.0,3.0,0.0,6.0,6.0,717.5202250000439,6.0,0.0,part_2,go,350.0,450.0,1.0,,,,,,,,,green,I
0.0,6.0,2.0,1.0,6.0,6.0,573.5638939995624,6.0,0.0,part_2,stop,350.0,450.0,3.0,,,,,,,,,white,triangle
0.0,5.0,1.0,1.0,5.0,5.0,670.4564920000848,6.0,0.0,part_2,go,350.0,400.0,1.0,,,,,,,,,magenta,hexagon
0.0,1.0,1.0,0.0,5.0,5.0,623.2654969999203,6.0,0.0,part_2,go,350.0,400.0,1.0,,,,,,,,,cyan,diamond
0.0,4.0,4.0,0.0,5.0,5.0,710.6889859996954,6.0,0.0,part_2,go,350.0,400.0,1.0,,,,,,,,,blue,square
0.0,2.0,2.0,0.0,5.0,5.0,849.4180750003579,6.0,0.0,part_2,go,350.0,400.0,1.0,,,,,,,,,yellow,cross
0.0,2.0,2.0,0.0,6.0,6.0,688.0164480007807,6.0,0.0,part_2,go,350.0,400.0,1.0,,,,,,,,,yellow,cross
0.0,4.0,4.0,0.0,5.0,5.0,603.4260629994606,6.0,0.0,part_2,go,350.0,400.0,1.0,,,,,,,,,blue,square
0.0,5.0,1.0,1.0,5.0,0.0,0.0,6.0,0.0,part_2,stop,350.0,400.0,4.0,,,,,,,,,magenta,hexagon
0.0,4.0,4.0,0.0,5.0,5.0,578.0401460006033,6.0,0.0,part_2,go,400.0,400.0,1.0,,,,,,,,,blue,square
0.0,1.0,1.0,0.0,6.0,6.0,538.4682940002676,6.0,0.0,part_2,go,400.0,400.0,1.0,,,,,,,,,cyan,diamond
0.0,7.0,3.0,1.0,5.0,5.0,546.306561000165,6.0,0.0,part_2,stop,400.0,400.0,3.0,,,,,,,,,gray,flipped triangle
0.0,2.0,2.0,0.0,6.0,6.0,604.6568970004955,6.0,0.0,part_2,go,350.0,400.0,1.0,,,,,,,,,yellow,cross
0.0,6.0,2.0,1.0,5.0,0.0,0.0,6.0,0.0,part_2,stop,350.0,400.0,4.0,,,,,,,,,white,triangle
0.0,2.0,2.0,0.0,6.0,6.0,707.1746179999536,6.0,0.0,part_2,go,400.0,400.0,1.0,,,,,,,,,yellow,cross
0.0,1.0,1.0,0.0,5.0,5.0,642.1491359997162,6.0,0.0,part_2,go,400.0,400.0,1.0,,,,,,,,,cyan,diamond
0.0,7.0,3.0,1.0,6.0,0.0,0.0,6.0,0.0,part_2,stop,400.0,400.0,4.0,,,,,,,,,gray,flipped triangle
0.0,7.0,3.0,1.0,5.0,5.0,781.8455389997325,6.0,0.0,part_2,go,400.0,450.0,1.0,,,,,,,,,gray,flipped triangle
0.0,7.0,3.0,1.0,5.0,5.0,446.9131670002753,7.0,0.0,part_2,stop,400.0,450.0,3.0,,,,,,,,,gray,flipped triangle
0.0,1.0,1.0,0.0,5.0,5.0,679.6812330003377,7.0,0.0,part_2,go,350.0,450.0,1.0,,,,,,,,,cyan,diamond
0.0,1.0,1.0,0.0,6.0,6.0,595.4656120002255,7.0,0.0,part_2,go,350.0,450.0,1.0,,,,,,,,,cyan,diamond
0.0,7.0,3.0,1.0,6.0,6.0,752.009894999901,7.0,0.0,part_2,go,350.0,450.0,1.0,,,,,,,,,gray,flipped triangle
0.0,3.0,3.0,0.0,5.0,5.0,547.9338360000838,7.0,0.0,part_2,go,350.0,450.0,1.0,,,,,,,,,green,I
0.0,3.0,3.0,0.0,6.0,6.0,695.6139230005647,7.0,0.0,part_2,go,350.0,450.0,1.0,,,,,,,,,green,I
0.0,3.0,3.0,0.0,6.0,6.0,689.0125879999687,7.0,0.0,part_2,go,350.0,450.0,1.0,,,,,,,,,green,I
0.0,7.0,3.0,1.0,6.0,6.0,705.8179120003842,7.0,0.0,part_2,go,350.0,450.0,1.0,,,,,,,,,gray,flipped triangle
0.0,1.0,1.0,0.0,5.0,5.0,640.8440780005549,7.0,0.0,part_2,go,350.0,450.0,1.0,,,,,,,,,cyan,diamond
0.0,1.0,1.0,0.0,6.0,6.0,651.4634920004028,7.0,0.0,part_2,go,350.0,450.0,1.0,,,,,,,,,cyan,diamond
0.0,5.0,1.0,1.0,5.0,0.0,0.0,7.0,0.0,part_2,stop,350.0,450.0,4.0,,,,,,,,,magenta,hexagon
0.0,6.0,2.0,1.0,5.0,5.0,569.6298850007224,7.0,0.0,part_2,stop,400.0,450.0,3.0,,,,,,,,,white,triangle
0.0,2.0,2.0,0.0,5.0,5.0,586.6093280001223,7.0,0.0,part_2,go,350.0,450.0,1.0,,,,,,,,,yellow,cross
0.0,5.0,1.0,1.0,6.0,0.0,0.0,7.0,0.0,part_2,stop,350.0,450.0,4.0,,,,,,,,,magenta,hexagon
0.0,6.0,2.0,1.0,6.0,6.0,882.8242079998745,7.0,0.0,part_2,go,350.0,500.0,1.0,,,,,,,,,white,triangle
0.0,4.0,4.0,0.0,6.0,6.0,800.012487999993,7.0,0.0,part_2,go,350.0,500.0,1.0,,,,,,,,,blue,square
0.0,7.0,3.0,1.0,5.0,0.0,0.0,7.0,0.0,part_2,stop,350.0,500.0,4.0,,,,,,,,,gray,flipped triangle
0.0,2.0,2.0,0.0,5.0,5.0,687.0633070002441,7.0,0.0,part_2,go,400.0,500.0,1.0,,,,,,,,,yellow,cross
0.0,1.0,1.0,0.0,5.0,5.0,1002.3740770002405,7.0,0.0,part_2,go,400.0,500.0,1.0,,,,,,,,,cyan,diamond
0.0,4.0,4.0,0.0,6.0,6.0,845.8364850002908,7.0,0.0,part_2,go,400.0,500.0,1.0,,,,,,,,,blue,square
0.0,3.0,3.0,0.0,6.0,6.0,977.5777429995288,7.0,0.0,part_2,go,400.0,500.0,1.0,,,,,,,,,green,I
0.0,2.0,2.0,0.0,6.0,6.0,723.0745900005786,7.0,0.0,part_2,go,400.0,500.0,1.0,,,,,,,,,yellow,cross
0.0,4.0,4.0,0.0,6.0,0.0,0.0,7.0,0.0,part_2,go,400.0,500.0,5.0,,,,,,,,,blue,square
0.0,8.0,4.0,1.0,5.0,0.0,0.0,7.0,0.0,part_2,stop,400.0,500.0,4.0,,,,,,,,,orange,circle
0.0,1.0,1.0,0.0,5.0,5.0,575.280104999365,7.0,0.0,part_2,go,450.0,500.0,1.0,,,,,,,,,cyan,diamond
0.0,5.0,1.0,1.0,5.0,5.0,743.0201520000992,7.0,0.0,part_2,go,450.0,500.0,1.0,,,,,,,,,magenta,hexagon
0.0,5.0,1.0,1.0,5.0,0.0,0.0,7.0,0.0,part_2,stop,450.0,500.0,4.0,,,,,,,,,magenta,hexagon
0.0,3.0,3.0,0.0,5.0,5.0,826.6449689999718,7.0,0.0,part_2,go,500.0,500.0,1.0,,,,,,,,,green,I
0.0,8.0,4.0,1.0,6.0,0.0,0.0,7.0,0.0,part_2,stop,500.0,500.0,4.0,,,,,,,,,orange,circle
0.0,6.0,2.0,1.0,5.0,5.0,699.1773319996355,7.0,0.0,part_2,go,500.0,550.0,1.0,,,,,,,,,white,triangle
0.0,7.0,3.0,1.0,5.0,0.0,0.0,7.0,0.0,part_2,stop,500.0,550.0,4.0,,,,,,,,,gray,flipped triangle
0.0,2.0,2.0,0.0,5.0,5.0,754.6727620001548,7.0,0.0,part_2,go,550.0,550.0,1.0,,,,,,,,,yellow,cross
0.0,7.0,3.0,1.0,5.0,0.0,0.0,7.0,0.0,part_2,stop,550.0,550.0,4.0,,,,,,,,,gray,flipped triangle
0.0,2.0,2.0,0.0,6.0,6.0,716.5602719996969,7.0,0.0,part_2,go,600.0,550.0,1.0,,,,,,,,,yellow,cross
0.0,7.0,3.0,1.0,6.0,0.0,0.0,7.0,0.0,part_2,stop,600.0,550.0,4.0,,,,,,,,,gray,flipped triangle
0.0,3.0,3.0,0.0,5.0,5.0,668.4423590004371,7.0,0.0,part_2,go,600.0,600.0,1.0,,,,,,,,,green,I
0.0,4.0,4.0,0.0,5.0,5.0,500.8162379999703,8.0,0.0,part_2,go,600.0,600.0,1.0,,,,,,,,,blue,square
0.0,7.0,3.0,1.0,6.0,6.0,530.5616480000026,8.0,0.0,part_2,go,600.0,600.0,1.0,,,,,,,,,gray,flipped triangle
0.0,7.0,3.0,1.0,5.0,5.0,653.1979020001017,8.0,0.0,part_2,stop,600.0,600.0,3.0,,,,,,,,,gray,flipped triangle
0.0,3.0,3.0,0.0,5.0,5.0,670.620675000464,8.0,0.0,part_2,go,550.0,600.0,1.0,,,,,,,,,green,I
0.0,3.0,3.0,0.0,5.0,5.0,602.7864059997228,8.0,0.0,part_2,go,550.0,600.0,1.0,,,,,,,,,green,I
0.0,5.0,1.0,1.0,6.0,6.0,585.8361949995015,8.0,0.0,part_2,stop,550.0,600.0,3.0,,,,,,,,,magenta,hexagon
0.0,1.0,1.0,0.0,5.0,5.0,605.6522759990912,8.0,0.0,part_2,go,550.0,550.0,1.0,,,,,,,,,cyan,diamond
0.0,2.0,2.0,0.0,6.0,6.0,528.697085001113,8.0,0.0,part_2,go,550.0,550.0,1.0,,,,,,,,,yellow,cross
0.0,1.0,1.0,0.0,6.0,6.0,651.0428640012833,8.0,0.0,part_2,go,550.0,550.0,1.0,,,,,,,,,cyan,diamond
0.0,2.0,2.0,0.0,6.0,6.0,428.0428550009674,8.0,0.0,part_2,go,550.0,550.0,1.0,,,,,,,,,yellow,cross
0.0,4.0,4.0,0.0,5.0,5.0,679.2920820007566,8.0,0.0,part_2,go,550.0,550.0,1.0,,,,,,,,,blue,square
0.0,3.0,3.0,0.0,5.0,5.0,725.1358489993436,8.0,0.0,part_2,go,550.0,550.0,1.0,,,,,,,,,green,I
0.0,8.0,4.0,1.0,5.0,5.0,688.1933599997865,8.0,0.0,part_2,go,550.0,550.0,1.0,,,,,,,,,orange,circle
0.0,6.0,2.0,1.0,5.0,5.0,737.406103999092,8.0,0.0,part_2,stop,550.0,550.0,3.0,,,,,,,,,white,triangle
0.0,8.0,4.0,1.0,5.0,5.0,686.659328001042,8.0,0.0,part_2,stop,500.0,550.0,3.0,,,,,,,,,orange,circle
0.0,3.0,3.0,0.0,6.0,6.0,569.8520879996067,8.0,0.0,part_2,go,450.0,550.0,1.0,,,,,,,,,green,I
0.0,3.0,3.0,0.0,5.0,5.0,612.5098669999716,8.0,0.0,part_2,go,450.0,550.0,1.0,,,,,,,,,green,I
0.0,6.0,2.0,1.0,5.0,0.0,0.0,8.0,0.0,part_2,stop,450.0,550.0,4.0,,,,,,,,,white,triangle
0.0,3.0,3.0,0.0,5.0,5.0,641.8214839995926,8.0,0.0,part_2,go,500.0,550.0,1.0,,,,,,,,,green,I
0.0,8.0,4.0,1.0,6.0,6.0,789.1099610005767,8.0,0.0,part_2,go,500.0,550.0,1.0,,,,,,,,,orange,circle
0.0,6.0,2.0,1.0,5.0,5.0,630.7057250014623,8.0,0.0,part_2,stop,500.0,550.0,3.0,,,,,,,,,white,triangle
0.0,8.0,4.0,1.0,5.0,0.0,0.0,8.0,0.0,part_2,stop,450.0,550.0,4.0,,,,,,,,,orange,circle
0.0,1.0,1.0,0.0,6.0,6.0,642.175810999106,8.0,0.0,part_2,go,500.0,550.0,1.0,,,,,,,,,cyan,diamond
0.0,7.0,3.0,1.0,6.0,6.0,714.2724939985783,8.0,0.0,part_2,stop,500.0,550.0,3.0,,,,,,,,,gray,flipped triangle
0.0,3.0,3.0,0.0,5.0,5.0,669.6364599993103,8.0,0.0,part_2,go,500.0,500.0,1.0,,,,,,,,,green,I
0.0,2.0,2.0,0.0,5.0,5.0,696.2637420001556,8.0,0.0,part_2,go,500.0,500.0,1.0,,,,,,,,,yellow,cross
0.0,4.0,4.0,0.0,6.0,6.0,752.9920550005045,8.0,0.0,part_2,go,500.0,500.0,1.0,,,,,,,,,blue,square
0.0,6.0,2.0,1.0,6.0,6.0,389.9703669994778,8.0,0.0,part_2,stop,500.0,500.0,3.0,,,,,,,,,white,triangle
0.0,8.0,4.0,1.0,5.0,0.0,0.0,8.0,0.0,part_2,stop,500.0,450.0,4.0,,,,,,,,,orange,circle
0.0,6.0,2.0,1.0,5.0,5.0,732.5401689995488,8.0,0.0,part_2,stop,550.0,450.0,3.0,,,,,,,,,white,triangle
0.0,4.0,4.0,0.0,6.0,6.0,707.0226979994914,8.0,0.0,part_2,go,500.0,450.0,1.0,,,,,,,,,blue,square
0.0,4.0,4.0,0.0,6.0,6.0,903.641991000768,8.0,0.0,part_2,go,500.0,450.0,1.0,,,,,,,,,blue,square
0.0,4.0,4.0,0.0,5.0,5.0,891.9777589999285,8.0,0.0,part_2,go,500.0,450.0,1.0,,,,,,,,,blue,square
0.0,6.0,2.0,1.0,6.0,6.0,698.3029160001024,8.0,0.0,part_2,go,500.0,450.0,1.0,,,,,,,,,white,triangle
0.0,6.0,2.0,1.0,5.0,0.0,0.0,8.0,0.0,part_2,stop,500.0,450.0,4.0,,,,,,,,,white,triangle
0.0,3.0,3.0,0.0,6.0,6.0,724.4787870004075,8.0,0.0,part_2,go,550.0,450.0,1.0,,,,,,,,,green,I
0.0,2.0,2.0,0.0,7.0,2.0,2953.1509919997916,1.0,1.0,part_3,go,0.0,0.0,0.0,462.0,3.0,154.0,462.0,924.0,308.0,616.0,770.0,yellow,cross
0.0,8.0,4.0,1.0,7.0,5.0,1308.4221350000007,1.0,1.0,part_3,go,0.0,0.0,0.0,135.0,1.0,675.0,540.0,810.0,270.0,135.0,405.0,orange,circle
0.0,5.0,1.0,1.0,7.0,6.0,3893.184346999987,1.0,1.0,part_3,go,0.0,0.0,0.0,810.0,6.0,675.0,270.0,540.0,405.0,135.0,810.0,magenta,hexagon
0.0,1.0,1.0,0.0,7.0,5.0,3106.481202001305,1.0,1.0,part_3,go,0.0,0.0,0.0,616.0,4.0,308.0,154.0,462.0,924.0,616.0,770.0,cyan,diamond
0.0,5.0,1.0,1.0,7.0,2.0,2435.3044029994635,1.0,1.0,part_3,go,0.0,0.0,0.0,462.0,3.0,924.0,462.0,616.0,770.0,308.0,154.0,magenta,hexagon
0.0,3.0,3.0,0.0,7.0,6.0,1482.825798999329,1.0,1.0,part_3,go,0.0,0.0,0.0,348.0,3.0,232.0,696.0,116.0,464.0,580.0,348.0,green,I
0.0,5.0,1.0,1.0,7.0,2.0,1122.3865339998156,1.0,1.0,part_3,go,0.0,0.0,0.0,692.0,4.0,519.0,692.0,173.0,346.0,1038.0,865.0,magenta,hexagon
0.0,3.0,3.0,0.0,7.0,4.0,691.943538000487,1.0,1.0,part_3,go,0.0,0.0,0.0,692.0,4.0,173.0,519.0,346.0,692.0,865.0,1038.0,green,I
0.0,7.0,3.0,1.0,7.0,1.0,1189.652171000489,1.0,1.0,part_3,go,0.0,0.0,0.0,346.0,2.0,346.0,865.0,173.0,692.0,519.0,1038.0,gray,flipped triangle
0.0,4.0,4.0,0.0,7.0,6.0,885.8218360001047,1.0,1.0,part_3,go,0.0,0.0,0.0,1152.0,6.0,960.0,576.0,768.0,192.0,384.0,1152.0,blue,square
0.0,4.0,4.0,0.0,7.0,4.0,427.6508820003073,1.0,1.0,part_3,go,0.0,0.0,0.0,692.0,4.0,519.0,1038.0,865.0,692.0,346.0,173.0,blue,square
0.0,1.0,1.0,0.0,7.0,5.0,1072.8278169990515,1.0,1.0,part_3,go,0.0,0.0,0.0,346.0,2.0,173.0,865.0,1038.0,519.0,346.0,692.0,cyan,diamond
0.0,3.0,3.0,0.0,7.0,1.0,564.0612539991707,1.0,1.0,part_3,go,0.0,0.0,0.0,540.0,4.0,540.0,405.0,135.0,810.0,270.0,675.0,green,I
0.0,6.0,2.0,1.0,7.0,2.0,563.8283040007082,1.0,1.0,part_3,go,0.0,0.0,0.0,348.0,3.0,580.0,348.0,116.0,464.0,232.0,696.0,white,triangle
0.0,8.0,4.0,1.0,7.0,3.0,388.7684430010267,1.0,1.0,part_3,go,0.0,0.0,0.0,960.0,5.0,576.0,1152.0,960.0,384.0,192.0,768.0,orange,circle
0.0,7.0,3.0,1.0,7.0,4.0,397.6425729997572,1.0,1.0,part_3,go,0.0,0.0,0.0,348.0,3.0,580.0,696.0,116.0,348.0,232.0,464.0,gray,flipped triangle
0.0,6.0,2.0,1.0,7.0,5.0,445.8183259994257,1.0,1.0,part_3,go,0.0,0.0,0.0,770.0,5.0,462.0,924.0,308.0,616.0,770.0,154.0,white,triangle
0.0,2.0,2.0,0.0,7.0,1.0,619.9195259996486,1.0,1.0,part_3,go,0.0,0.0,0.0,192.0,1.0,192.0,576.0,960.0,1152.0,384.0,768.0,yellow,cross
0.0,4.0,4.0,0.0,7.0,2.0,580.8685800002422,1.0,1.0,part_3,go,0.0,0.0,0.0,270.0,2.0,675.0,270.0,540.0,405.0,810.0,135.0,blue,square
0.0,1.0,1.0,0.0,7.0,5.0,341.4459999985411,1.0,1.0,part_3,go,0.0,0.0,0.0,1152.0,6.0,192.0,576.0,768.0,960.0,1152.0,384.0,cyan,diamond
0.0,3.0,3.0,0.0,7.0,6.0,397.2613409987389,2.0,1.0,part_3,go,0.0,0.0,0.0,580.0,5.0,464.0,116.0,696.0,232.0,348.0,580.0,green,I
0.0,7.0,3.0,1.0,7.0,1.0,342.7665810013423,2.0,1.0,part_3,go,0.0,0.0,0.0,462.0,3.0,462.0,154.0,616.0,308.0,770.0,924.0,gray,flipped triangle
0.0,6.0,2.0,1.0,7.0,5.0,499.3463390001125,2.0,1.0,part_3,go,0.0,0.0,0.0,135.0,1.0,405.0,270.0,810.0,675.0,135.0,540.0,white,triangle
0.0,2.0,2.0,0.0,7.0,3.0,489.1088889999082,2.0,1.0,part_3,go,0.0,0.0,0.0,116.0,1.0,464.0,348.0,116.0,232.0,696.0,580.0,yellow,cross
0.0,2.0,2.0,0.0,7.0,4.0,467.4205960000108,2.0,1.0,part_3,go,0.0,0.0,0.0,1038.0,6.0,692.0,173.0,519.0,1038.0,865.0,346.0,yellow,cross
0.0,3.0,3.0,0.0,7.0,2.0,396.5408949989069,2.0,1.0,part_3,go,0.0,0.0,0.0,405.0,3.0,540.0,405.0,810.0,675.0,270.0,135.0,green,I
0.0,1.0,1.0,0.0,7.0,6.0,434.5973360013886,2.0,1.0,part_3,go,0.0,0.0,0.0,348.0,3.0,696.0,232.0,116.0,580.0,464.0,348.0,cyan,diamond
0.0,6.0,2.0,1.0,7.0,5.0,388.1204459994478,2.0,1.0,part_3,go,0.0,0.0,0.0,519.0,3.0,346.0,1038.0,173.0,865.0,519.0,692.0,white,triangle
0.0,4.0,4.0,0.0,7.0,1.0,561.902403998829,2.0,1.0,part_3,go,0.0,0.0,0.0,519.0,3.0,519.0,865.0,1038.0,346.0,692.0,173.0,blue,square
0.0,6.0,2.0,1.0,7.0,3.0,471.7479110004205,2.0,1.0,part_3,go,0.0,0.0,0.0,576.0,3.0,960.0,384.0,576.0,192.0,768.0,1152.0,white,triangle
0.0,4.0,4.0,0.0,7.0,4.0,738.1973359988478,2.0,1.0,part_3,go,0.0,0.0,0.0,135.0,1.0,405.0,810.0,675.0,135.0,540.0,270.0,blue,square
0.0,3.0,3.0,0.0,7.0,4.0,475.2941059996374,2.0,1.0,part_3,go,0.0,0.0,0.0,768.0,4.0,1152.0,960.0,192.0,768.0,384.0,576.0,green,I
0.0,3.0,3.0,0.0,7.0,3.0,344.956828001159,2.0,1.0,part_3,go,0.0,0.0,0.0,1152.0,6.0,768.0,960.0,1152.0,576.0,384.0,192.0,green,I
0.0,4.0,4.0,0.0,7.0,1.0,391.8968580001092,2.0,1.0,part_3,go,0.0,0.0,0.0,348.0,3.0,348.0,464.0,116.0,232.0,580.0,696.0,blue,square
0.0,7.0,3.0,1.0,7.0,5.0,541.3418509997427,2.0,1.0,part_3,go,0.0,0.0,0.0,519.0,3.0,692.0,173.0,865.0,346.0,519.0,1038.0,gray,flipped triangle
0.0,7.0,3.0,1.0,7.0,6.0,258.3473189988581,2.0,1.0,part_3,go,0.0,0.0,0.0,232.0,2.0,696.0,464.0,580.0,116.0,348.0,232.0,gray,flipped triangle
0.0,1.0,1.0,0.0,7.0,2.0,543.748867999966,2.0,1.0,part_3,go,0.0,0.0,0.0,308.0,2.0,924.0,308.0,462.0,154.0,770.0,616.0,cyan,diamond
0.0,6.0,2.0,1.0,7.0,5.0,397.4177649997727,2.0,1.0,part_3,go,0.0,0.0,0.0,346.0,2.0,692.0,1038.0,519.0,865.0,346.0,173.0,white,triangle
0.0,6.0,2.0,1.0,7.0,1.0,625.8413150007982,2.0,1.0,part_3,go,0.0,0.0,0.0,232.0,2.0,232.0,464.0,696.0,348.0,116.0,580.0,white,triangle
0.0,2.0,2.0,0.0,7.0,2.0,535.1388620001671,2.0,1.0,part_3,go,0.0,0.0,0.0,405.0,3.0,810.0,405.0,270.0,135.0,675.0,540.0,yellow,cross
0.0,5.0,1.0,1.0,7.0,5.0,691.9331110002531,3.0,1.0,part_3,go,0.0,0.0,0.0,135.0,1.0,270.0,675.0,540.0,405.0,135.0,810.0,magenta,hexagon
0.0,7.0,3.0,1.0,7.0,2.0,543.8676940011646,3.0,1.0,part_3,go,0.0,0.0,0.0,540.0,4.0,675.0,540.0,135.0,270.0,810.0,405.0,gray,flipped triangle
0.0,8.0,4.0,1.0,7.0,6.0,507.24179000098957,3.0,1.0,part_3,go,0.0,0.0,0.0,865.0,5.0,346.0,519.0,173.0,1038.0,692.0,865.0,orange,circle
0.0,2.0,2.0,0.0,7.0,5.0,589.7550179997779,3.0,1.0,part_3,go,0.0,0.0,0.0,1038.0,6.0,692.0,173.0,519.0,865.0,1038.0,346.0,yellow,cross
0.0,8.0,4.0,1.0,7.0,2.0,405.1090419998218,3.0,1.0,part_3,go,0.0,0.0,0.0,616.0,4.0,462.0,616.0,154.0,924.0,770.0,308.0,orange,circle
0.0,2.0,2.0,0.0,7.0,4.0,344.2499749999115,3.0,1.0,part_3,go,0.0,0.0,0.0,464.0,4.0,580.0,696.0,232.0,464.0,116.0,348.0,yellow,cross
0.0,1.0,1.0,0.0,7.0,2.0,858.5930039989762,3.0,1.0,part_3,go,0.0,0.0,0.0,692.0,4.0,865.0,692.0,1038.0,173.0,519.0,346.0,cyan,diamond
0.0,2.0,2.0,0.0,7.0,5.0,600.573132000136,3.0,1.0,part_3,go,0.0,0.0,0.0,576.0,3.0,960.0,192.0,1152.0,768.0,576.0,384.0,yellow,cross
0.0,1.0,1.0,0.0,7.0,2.0,435.1351019995491,3.0,1.0,part_3,go,0.0,0.0,0.0,540.0,4.0,405.0,540.0,270.0,810.0,135.0,675.0,cyan,diamond
0.0,1.0,1.0,0.0,7.0,6.0,645.8733100007521,3.0,1.0,part_3,go,0.0,0.0,0.0,810.0,6.0,135.0,270.0,405.0,675.0,540.0,810.0,cyan,diamond
0.0,8.0,4.0,1.0,7.0,1.0,508.23233099981735,3.0,1.0,part_3,go,0.0,0.0,0.0,580.0,5.0,580.0,232.0,116.0,464.0,696.0,348.0,orange,circle
0.0,1.0,1.0,0.0,7.0,2.0,518.6879890006821,3.0,1.0,part_3,go,0.0,0.0,0.0,464.0,4.0,580.0,464.0,348.0,232.0,116.0,696.0,cyan,diamond
0.0,4.0,4.0,0.0,7.0,2.0,1051.3209460004873,3.0,1.0,part_3,go,0.0,0.0,0.0,192.0,1.0,960.0,192.0,1152.0,576.0,768.0,384.0,blue,square
0.0,6.0,2.0,1.0,7.0,5.0,790.3273489991989,3.0,1.0,part_3,go,0.0,0.0,0.0,135.0,1.0,675.0,810.0,540.0,405.0,135.0,270.0,white,triangle
0.0,5.0,1.0,1.0,7.0,5.0,1243.5101869996288,3.0,1.0,part_3,go,0.0,0.0,0.0,696.0,6.0,580.0,232.0,348.0,464.0,696.0,116.0,magenta,hexagon
0.0,5.0,1.0,1.0,7.0,2.0,1584.9247379992448,3.0,1.0,part_3,go,0.0,0.0,0.0,346.0,2.0,1038.0,346.0,865.0,692.0,519.0,173.0,magenta,hexagon
0.0,6.0,2.0,1.0,7.0,5.0,1342.0658859995456,3.0,1.0,part_3,go,0.0,0.0,0.0,616.0,4.0,308.0,462.0,154.0,924.0,616.0,770.0,white,triangle
0.0,5.0,1.0,1.0,7.0,1.0,536.1830430010741,3.0,1.0,part_3,go,0.0,0.0,0.0,580.0,5.0,580.0,464.0,232.0,348.0,696.0,116.0,magenta,hexagon
0.0,4.0,4.0,0.0,7.0,5.0,626.5018419999251,3.0,1.0,part_3,go,0.0,0.0,0.0,770.0,5.0,154.0,616.0,462.0,308.0,770.0,924.0,blue,square
0.0,3.0,3.0,0.0,7.0,6.0,784.9714460007817,3.0,1.0,part_3,go,0.0,0.0,0.0,519.0,3.0,692.0,173.0,865.0,346.0,1038.0,519.0,green,I
0.0,2.0,2.0,0.0,7.0,2.0,665.4933530007838,4.0,1.0,part_3,go,0.0,0.0,0.0,135.0,1.0,675.0,135.0,540.0,270.0,810.0,405.0,yellow,cross
0.0,8.0,4.0,1.0,7.0,3.0,674.1692110008444,4.0,1.0,part_3,go,0.0,0.0,0.0,960.0,5.0,768.0,1152.0,960.0,576.0,192.0,384.0,orange,circle
0.0,8.0,4.0,1.0,7.0,1.0,664.5572050001647,4.0,1.0,part_3,go,0.0,0.0,0.0,154.0,1.0,154.0,308.0,770.0,924.0,616.0,462.0,orange,circle
0.0,1.0,1.0,0.0,7.0,5.0,1154.6715250005946,4.0,1.0,part_3,go,0.0,0.0,0.0,192.0,1.0,1152.0,768.0,960.0,384.0,192.0,576.0,cyan,diamond
0.0,7.0,3.0,1.0,7.0,5.0,1825.037335000161,4.0,1.0,part_3,go,0.0,0.0,0.0,135.0,1.0,405.0,270.0,675.0,540.0,135.0,810.0,gray,flipped triangle
0.0,5.0,1.0,1.0,7.0,6.0,896.9344709985307,4.0,1.0,part_3,go,0.0,0.0,0.0,576.0,3.0,768.0,192.0,960.0,1152.0,384.0,576.0,magenta,hexagon
0.0,8.0,4.0,1.0,7.0,1.0,600.7816979999916,4.0,1.0,part_3,go,0.0,0.0,0.0,346.0,2.0,346.0,692.0,1038.0,519.0,173.0,865.0,orange,circle
0.0,7.0,3.0,1.0,7.0,2.0,1472.974336000334,4.0,1.0,part_3,go,0.0,0.0,0.0,462.0,3.0,616.0,462.0,154.0,770.0,308.0,924.0,gray,flipped triangle
0.0,8.0,4.0,1.0,7.0,6.0,959.8350700016454,4.0,1.0,part_3,go,0.0,0.0,0.0,810.0,6.0,135.0,270.0,405.0,675.0,540.0,810.0,orange,circle
0.0,5.0,1.0,1.0,7.0,2.0,1056.2410050006292,4.0,1.0,part_3,go,0.0,0.0,0.0,616.0,4.0,770.0,616.0,462.0,924.0,154.0,308.0,magenta,hexagon
0.0,2.0,2.0,0.0,7.0,5.0,1588.959770999281,4.0,1.0,part_3,go,0.0,0.0,0.0,924.0,6.0,308.0,462.0,770.0,154.0,924.0,616.0,yellow,cross
0.0,5.0,1.0,1.0,7.0,1.0,499.3404090000695,4.0,1.0,part_3,go,0.0,0.0,0.0,960.0,5.0,960.0,192.0,1152.0,576.0,768.0,384.0,magenta,hexagon
0.0,7.0,3.0,1.0,7.0,5.0,556.823169999916,4.0,1.0,part_3,go,0.0,0.0,0.0,192.0,1.0,768.0,384.0,1152.0,576.0,192.0,960.0,gray,flipped triangle
0.0,8.0,4.0,1.0,7.0,2.0,518.4777560007205,4.0,1.0,part_3,go,0.0,0.0,0.0,696.0,6.0,464.0,696.0,232.0,580.0,116.0,348.0,orange,circle
0.0,7.0,3.0,1.0,7.0,5.0,574.7775399995589,4.0,1.0,part_3,go,0.0,0.0,0.0,960.0,5.0,384.0,1152.0,768.0,576.0,960.0,192.0,gray,flipped triangle
0.0,4.0,4.0,0.0,7.0,5.0,1613.577919000818,4.0,1.0,part_3,go,0.0,0.0,0.0,616.0,4.0,154.0,770.0,924.0,308.0,616.0,462.0,blue,square
0.0,6.0,2.0,1.0,7.0,2.0,935.7011639986011,4.0,1.0,part_3,go,0.0,0.0,0.0,1152.0,6.0,960.0,1152.0,192.0,576.0,768.0,384.0,white,triangle
0.0,3.0,3.0,0.0,7.0,5.0,1012.3454620006669,4.0,1.0,part_3,go,0.0,0.0,0.0,154.0,1.0,308.0,462.0,770.0,616.0,154.0,924.0,green,I
0.0,4.0,4.0,0.0,7.0,6.0,599.5140129998617,4.0,1.0,part_3,go,0.0,0.0,0.0,580.0,5.0,696.0,464.0,116.0,232.0,348.0,580.0,blue,square
0.0,3.0,3.0,0.0,7.0,2.0,1045.6830849998369,4.0,1.0,part_3,go,0.0,0.0,0.0,616.0,4.0,154.0,616.0,770.0,924.0,308.0,462.0,green,I
