raw_reward_magnitude,stim_reward,stepwise_reward_magnitude,paired_with_stopping,stim_location,response,reaction_time,block,num_trial_presentations,which_phase,stop_signal_trial_type,left_SSD,right_SSD,accuracy,chosen_bidding_amount,chosen_bidding_level,possible_bid_1,possible_bid_2,possible_bid_3,possible_bid_4,possible_bid_5,possible_bid_6,color_text,shape_text
1286.0,4.0,4.0,0.0,3.0,3.0,436.7258789989137,1.0,1.0,phase_1,,,,,,,,,,,,,yellow,hexagon
1313.0,4.0,4.0,0.0,2.0,2.0,419.4247180003003,1.0,1.0,phase_1,,,,,,,,,,,,,yellow,hexagon
0.0,3.0,0.0,0.0,3.0,3.0,381.3654339992354,1.0,1.0,phase_1,,,,,,,,,,,,,green,diamond
142.0,1.0,1.0,0.0,2.0,2.0,427.6483550002012,1.0,1.0,phase_1,,,,,,,,,,,,,white,circle
317.0,2.0,2.0,0.0,1.0,1.0,392.0566519991553,1.0,1.0,phase_1,,,,,,,,,,,,,cyan,cross
1286.0,8.0,4.0,1.0,3.0,3.0,353.1543409990263,1.0,1.0,phase_1,,,,,,,,,,,,,gray,flipped triangle
644.0,3.0,3.0,0.0,1.0,1.0,419.020385001204,1.0,1.0,phase_1,,,,,,,,,,,,,green,diamond
644.0,7.0,3.0,1.0,3.0,3.0,327.4252359988168,1.0,1.0,phase_1,,,,,,,,,,,,,orange,I
660.0,7.0,3.0,1.0,1.0,1.0,371.7146109993336,1.0,1.0,phase_1,,,,,,,,,,,,,orange,I
305.0,6.0,2.0,1.0,4.0,4.0,400.0075920012023,1.0,1.0,phase_1,,,,,,,,,,,,,magenta,square
0.0,8.0,0.0,1.0,2.0,2.0,372.0396839999011,1.0,1.0,phase_1,,,,,,,,,,,,,gray,flipped triangle
0.0,1.0,0.0,0.0,3.0,3.0,355.2035969987628,1.0,1.0,phase_1,,,,,,,,,,,,,white,circle
660.0,3.0,3.0,0.0,3.0,3.0,342.5667679985054,1.0,1.0,phase_1,,,,,,,,,,,,,green,diamond
162.0,1.0,1.0,0.0,2.0,2.0,424.2477540010441,1.0,2.0,phase_1,,,,,,,,,,,,,white,circle
0.0,2.0,0.0,0.0,3.0,3.0,408.9421160006168,1.0,1.0,phase_1,,,,,,,,,,,,,cyan,cross
1306.0,8.0,4.0,1.0,2.0,2.0,482.6069820010161,1.0,1.0,phase_1,,,,,,,,,,,,,gray,flipped triangle
321.0,6.0,2.0,1.0,3.0,3.0,361.8998839992855,1.0,1.0,phase_1,,,,,,,,,,,,,magenta,square
0.0,5.0,0.0,1.0,2.0,2.0,603.3553909983311,1.0,1.0,phase_1,,,,,,,,,,,,,blue,triangle
1312.0,4.0,4.0,0.0,4.0,4.0,397.5459729990689,1.0,1.0,phase_1,,,,,,,,,,,,,yellow,hexagon
1292.0,4.0,4.0,0.0,3.0,3.0,343.4481559997948,1.0,1.0,phase_1,,,,,,,,,,,,,yellow,hexagon
141.0,5.0,1.0,1.0,3.0,3.0,354.3591359994025,1.0,1.0,phase_1,,,,,,,,,,,,,blue,triangle
1285.0,8.0,4.0,1.0,4.0,4.0,435.2070700006152,1.0,1.0,phase_1,,,,,,,,,,,,,gray,flipped triangle
653.0,7.0,3.0,1.0,1.0,1.0,383.5048410001036,1.0,1.0,phase_1,,,,,,,,,,,,,orange,I
333.0,6.0,2.0,1.0,1.0,1.0,370.5272679999325,1.0,1.0,phase_1,,,,,,,,,,,,,magenta,square
1285.0,4.0,4.0,0.0,1.0,1.0,332.8856259995518,1.0,1.0,phase_1,,,,,,,,,,,,,yellow,hexagon
0.0,2.0,0.0,0.0,4.0,4.0,390.7216970001173,1.0,1.0,phase_1,,,,,,,,,,,,,cyan,cross
301.0,2.0,2.0,0.0,2.0,2.0,465.721714999745,1.0,1.0,phase_1,,,,,,,,,,,,,cyan,cross
0.0,2.0,0.0,0.0,1.0,1.0,333.6342310012696,1.0,1.0,phase_1,,,,,,,,,,,,,cyan,cross
185.0,1.0,1.0,0.0,2.0,2.0,389.5047559999511,1.0,1.0,phase_1,,,,,,,,,,,,,white,circle
667.0,3.0,3.0,0.0,3.0,3.0,372.1767110000655,1.0,1.0,phase_1,,,,,,,,,,,,,green,diamond
301.0,6.0,2.0,1.0,2.0,2.0,420.2423839997209,1.0,1.0,phase_1,,,,,,,,,,,,,magenta,square
0.0,5.0,0.0,1.0,4.0,4.0,500.2839660010068,1.0,1.0,phase_1,,,,,,,,,,,,,blue,triangle
337.0,2.0,2.0,0.0,4.0,4.0,389.3138769999495,1.0,1.0,phase_1,,,,,,,,,,,,,cyan,cross
173.0,1.0,1.0,0.0,1.0,1.0,333.7177419998625,1.0,1.0,phase_1,,,,,,,,,,,,,white,circle
666.0,7.0,3.0,1.0,2.0,2.0,455.6105060000845,1.0,1.0,phase_1,,,,,,,,,,,,,orange,I
1307.0,8.0,4.0,1.0,3.0,3.0,371.1220170007436,1.0,1.0,phase_1,,,,,,,,,,,,,gray,flipped triangle
1316.0,4.0,4.0,0.0,1.0,1.0,362.161852999634,1.0,1.0,phase_1,,,,,,,,,,,,,yellow,hexagon
630.0,3.0,3.0,0.0,1.0,1.0,399.2268700003478,1.0,1.0,phase_1,,,,,,,,,,,,,green,diamond
0.0,2.0,0.0,0.0,4.0,4.0,362.4100310007634,1.0,1.0,phase_1,,,,,,,,,,,,,cyan,cross
138.0,5.0,1.0,1.0,4.0,4.0,380.2079199995205,1.0,1.0,phase_1,,,,,,,,,,,,,blue,triangle
0.0,4.0,0.0,0.0,1.0,1.0,389.3153859989979,1.0,1.0,phase_1,,,,,,,,,,,,,yellow,hexagon
330.0,6.0,2.0,1.0,4.0,4.0,353.0714589996933,1.0,1.0,phase_1,,,,,,,,,,,,,magenta,square
644.0,7.0,3.0,1.0,3.0,3.0,371.4072000002488,1.0,1.0,phase_1,,,,,,,,,,,,,orange,I
184.0,1.0,1.0,0.0,1.0,1.0,418.0460779989516,1.0,1.0,phase_1,,,,,,,,,,,,,white,circle
325.0,2.0,2.0,0.0,1.0,1.0,417.2963080000045,1.0,1.0,phase_1,,,,,,,,,,,,,cyan,cross
0.0,7.0,0.0,1.0,3.0,3.0,417.5500950004789,1.0,1.0,phase_1,,,,,,,,,,,,,orange,I
336.0,2.0,2.0,0.0,3.0,3.0,418.1692250003834,1.0,1.0,phase_1,,,,,,,,,,,,,cyan,cross
1310.0,8.0,4.0,1.0,1.0,1.0,360.8882510015974,1.0,1.0,phase_1,,,,,,,,,,,,,gray,flipped triangle
1289.0,8.0,4.0,1.0,1.0,1.0,388.1927710008312,1.0,1.0,phase_1,,,,,,,,,,,,,gray,flipped triangle
1306.0,4.0,4.0,0.0,4.0,4.0,361.147974999767,1.0,1.0,phase_1,,,,,,,,,,,,,yellow,hexagon
0.0,4.0,0.0,0.0,2.0,2.0,509.0258590007579,1.0,1.0,phase_1,,,,,,,,,,,,,yellow,hexagon
0.0,4.0,0.0,0.0,1.0,1.0,379.1370189992449,1.0,1.0,phase_1,,,,,,,,,,,,,yellow,hexagon
156.0,1.0,1.0,0.0,1.0,1.0,341.9187849995069,1.0,1.0,phase_1,,,,,,,,,,,,,white,circle
1277.0,8.0,4.0,1.0,4.0,4.0,295.9120820014504,1.0,1.0,phase_1,,,,,,,,,,,,,gray,flipped triangle
327.0,6.0,2.0,1.0,3.0,3.0,314.9078759997792,1.0,1.0,phase_1,,,,,,,,,,,,,magenta,square
141.0,5.0,1.0,1.0,2.0,2.0,425.1637500001379,1.0,1.0,phase_1,,,,,,,,,,,,,blue,triangle
345.0,6.0,2.0,1.0,1.0,1.0,388.402077000137,1.0,1.0,phase_1,,,,,,,,,,,,,magenta,square
1319.0,4.0,4.0,0.0,2.0,2.0,406.8054039998969,1.0,1.0,phase_1,,,,,,,,,,,,,yellow,hexagon
641.0,7.0,3.0,1.0,4.0,4.0,361.7435460000706,1.0,1.0,phase_1,,,,,,,,,,,,,orange,I
163.0,5.0,1.0,1.0,2.0,2.0,398.2335170003352,1.0,1.0,phase_1,,,,,,,,,,,,,blue,triangle
1282.0,8.0,4.0,1.0,1.0,1.0,333.5061189991393,1.0,1.0,phase_1,,,,,,,,,,,,,gray,flipped triangle
1310.0,8.0,4.0,1.0,3.0,3.0,399.3529139988823,1.0,1.0,phase_1,,,,,,,,,,,,,gray,flipped triangle
658.0,3.0,3.0,0.0,3.0,3.0,332.601722999243,1.0,1.0,phase_1,,,,,,,,,,,,,green,diamond
0.0,5.0,0.0,1.0,3.0,3.0,370.9568089998356,1.0,1.0,phase_1,,,,,,,,,,,,,blue,triangle
144.0,1.0,1.0,0.0,2.0,2.0,380.385018999732,1.0,1.0,phase_1,,,,,,,,,,,,,white,circle
320.0,2.0,2.0,0.0,2.0,2.0,417.4141809999128,1.0,1.0,phase_1,,,,,,,,,,,,,cyan,cross
173.0,5.0,1.0,1.0,2.0,2.0,351.8911619994469,1.0,1.0,phase_1,,,,,,,,,,,,,blue,triangle
153.0,1.0,1.0,0.0,3.0,3.0,333.876427001087,1.0,1.0,phase_1,,,,,,,,,,,,,white,circle
183.0,1.0,1.0,0.0,3.0,3.0,342.6077240001177,1.0,1.0,phase_1,,,,,,,,,,,,,white,circle
301.0,2.0,2.0,0.0,2.0,2.0,399.6688799998082,1.0,1.0,phase_1,,,,,,,,,,,,,cyan,cross
637.0,3.0,3.0,0.0,2.0,2.0,379.800097000043,1.0,1.0,phase_1,,,,,,,,,,,,,green,diamond
323.0,2.0,2.0,0.0,3.0,3.0,352.9978599999595,1.0,1.0,phase_1,,,,,,,,,,,,,cyan,cross
339.0,6.0,2.0,1.0,3.0,3.0,407.7420360008545,1.0,1.0,phase_1,,,,,,,,,,,,,magenta,square
0.0,3.0,0.0,0.0,4.0,4.0,361.12921700078,1.0,1.0,phase_1,,,,,,,,,,,,,green,diamond
164.0,1.0,1.0,0.0,4.0,4.0,317.5975920003111,1.0,1.0,phase_1,,,,,,,,,,,,,white,circle
655.0,7.0,3.0,1.0,1.0,1.0,305.8031290001963,1.0,1.0,phase_1,,,,,,,,,,,,,orange,I
1304.0,8.0,4.0,1.0,1.0,1.0,315.3409080005076,1.0,1.0,phase_1,,,,,,,,,,,,,gray,flipped triangle
0.0,5.0,0.0,1.0,1.0,1.0,379.6541450010409,1.0,1.0,phase_1,,,,,,,,,,,,,blue,triangle
319.0,6.0,2.0,1.0,4.0,4.0,353.0343340007675,1.0,1.0,phase_1,,,,,,,,,,,,,magenta,square
637.0,7.0,3.0,1.0,4.0,4.0,361.2864049991913,1.0,1.0,phase_1,,,,,,,,,,,,,orange,I
321.0,2.0,2.0,0.0,3.0,3.0,398.3744930010289,1.0,1.0,phase_1,,,,,,,,,,,,,cyan,cross
156.0,1.0,1.0,0.0,1.0,1.0,333.3155330001318,1.0,1.0,phase_1,,,,,,,,,,,,,white,circle
320.0,6.0,2.0,1.0,1.0,1.0,332.9603769998357,1.0,1.0,phase_1,,,,,,,,,,,,,magenta,square
175.0,5.0,1.0,1.0,4.0,4.0,400.2885139998398,1.0,1.0,phase_1,,,,,,,,,,,,,blue,triangle
1277.0,4.0,4.0,0.0,2.0,2.0,441.8175819992029,1.0,1.0,phase_1,,,,,,,,,,,,,yellow,hexagon
640.0,3.0,3.0,0.0,3.0,3.0,363.265625999702,1.0,1.0,phase_1,,,,,,,,,,,,,green,diamond
302.0,2.0,2.0,0.0,1.0,1.0,364.6381290000136,1.0,1.0,phase_1,,,,,,,,,,,,,cyan,cross
631.0,7.0,3.0,1.0,4.0,4.0,407.4757739999768,1.0,1.0,phase_1,,,,,,,,,,,,,orange,I
158.0,5.0,1.0,1.0,2.0,2.0,432.6241600010689,1.0,1.0,phase_1,,,,,,,,,,,,,blue,triangle
302.0,6.0,2.0,1.0,4.0,4.0,334.4844500006729,1.0,1.0,phase_1,,,,,,,,,,,,,magenta,square
0.0,7.0,0.0,1.0,3.0,3.0,352.0297119994211,1.0,1.0,phase_1,,,,,,,,,,,,,orange,I
0.0,3.0,0.0,0.0,2.0,2.0,480.1044360010564,1.0,1.0,phase_1,,,,,,,,,,,,,green,diamond
335.0,6.0,2.0,1.0,2.0,2.0,410.7356870008516,1.0,1.0,phase_1,,,,,,,,,,,,,magenta,square
1286.0,4.0,4.0,0.0,1.0,1.0,337.3877329995594,1.0,1.0,phase_1,,,,,,,,,,,,,yellow,hexagon
301.0,6.0,2.0,1.0,3.0,3.0,351.9220999987738,1.0,1.0,phase_1,,,,,,,,,,,,,magenta,square
314.0,2.0,2.0,0.0,2.0,2.0,370.5806929992832,1.0,1.0,phase_1,,,,,,,,,,,,,cyan,cross
663.0,3.0,3.0,0.0,1.0,1.0,359.0894129993103,1.0,1.0,phase_1,,,,,,,,,,,,,green,diamond
186.0,5.0,1.0,1.0,3.0,3.0,322.4590469999384,1.0,1.0,phase_1,,,,,,,,,,,,,blue,triangle
145.0,5.0,1.0,1.0,4.0,4.0,295.4558229994291,1.0,1.0,phase_1,,,,,,,,,,,,,blue,triangle
1299.0,4.0,4.0,0.0,3.0,3.0,296.304561999932,1.0,1.0,phase_1,,,,,,,,,,,,,yellow,hexagon
328.0,2.0,2.0,0.0,2.0,2.0,259.8821339997812,2.0,9.0,phase_1,,,,,,,,,,,,,cyan,cross
0.0,8.0,0.0,1.0,4.0,4.0,334.2703680009435,2.0,1.0,phase_1,,,,,,,,,,,,,gray,flipped triangle
334.0,2.0,2.0,0.0,4.0,4.0,362.6888980015792,2.0,1.0,phase_1,,,,,,,,,,,,,cyan,cross
0.0,5.0,0.0,1.0,1.0,1.0,296.7088249988592,2.0,2.0,phase_1,,,,,,,,,,,,,blue,triangle
183.0,5.0,1.0,1.0,3.0,3.0,381.8529410000337,2.0,1.0,phase_1,,,,,,,,,,,,,blue,triangle
627.0,7.0,3.0,1.0,1.0,1.0,332.8562370006693,2.0,1.0,phase_1,,,,,,,,,,,,,orange,I
0.0,3.0,0.0,0.0,2.0,2.0,481.9422170003236,2.0,1.0,phase_1,,,,,,,,,,,,,green,diamond
319.0,6.0,2.0,1.0,1.0,1.0,306.1836340002628,2.0,1.0,phase_1,,,,,,,,,,,,,magenta,square
181.0,5.0,1.0,1.0,3.0,3.0,343.5351459993399,2.0,1.0,phase_1,,,,,,,,,,,,,blue,triangle
0.0,8.0,0.0,1.0,3.0,3.0,372.5394150005741,2.0,1.0,phase_1,,,,,,,,,,,,,gray,flipped triangle
0.0,8.0,0.0,1.0,2.0,2.0,370.9985120003694,2.0,1.0,phase_1,,,,,,,,,,,,,gray,flipped triangle
324.0,6.0,2.0,1.0,1.0,1.0,333.2742259990482,2.0,1.0,phase_1,,,,,,,,,,,,,magenta,square
178.0,1.0,1.0,0.0,3.0,3.0,344.5525289989746,2.0,1.0,phase_1,,,,,,,,,,,,,white,circle
0.0,5.0,0.0,1.0,3.0,3.0,362.2961689998192,2.0,1.0,phase_1,,,,,,,,,,,,,blue,triangle
1275.0,8.0,4.0,1.0,3.0,3.0,343.6990089994651,2.0,1.0,phase_1,,,,,,,,,,,,,gray,flipped triangle
1310.0,4.0,4.0,0.0,2.0,2.0,418.0113460006396,2.0,1.0,phase_1,,,,,,,,,,,,,yellow,hexagon
346.0,2.0,2.0,0.0,4.0,4.0,379.9592529994697,2.0,1.0,phase_1,,,,,,,,,,,,,cyan,cross
1312.0,8.0,4.0,1.0,4.0,4.0,342.7675539987831,2.0,1.0,phase_1,,,,,,,,,,,,,gray,flipped triangle
641.0,3.0,3.0,0.0,2.0,2.0,390.4099070005031,2.0,1.0,phase_1,,,,,,,,,,,,,green,diamond
1310.0,8.0,4.0,1.0,3.0,3.0,407.2117260002414,2.0,1.0,phase_1,,,,,,,,,,,,,gray,flipped triangle
1287.0,4.0,4.0,0.0,4.0,4.0,360.8286700000462,2.0,1.0,phase_1,,,,,,,,,,,,,yellow,hexagon
327.0,6.0,2.0,1.0,2.0,2.0,435.518486001456,2.0,1.0,phase_1,,,,,,,,,,,,,magenta,square
1277.0,8.0,4.0,1.0,2.0,2.0,370.1498030004586,2.0,1.0,phase_1,,,,,,,,,,,,,gray,flipped triangle
663.0,7.0,3.0,1.0,3.0,3.0,295.8360470001935,2.0,1.0,phase_1,,,,,,,,,,,,,orange,I
164.0,5.0,1.0,1.0,1.0,1.0,332.9442810008913,2.0,1.0,phase_1,,,,,,,,,,,,,blue,triangle
0.0,4.0,0.0,0.0,4.0,4.0,342.2645730006479,2.0,1.0,phase_1,,,,,,,,,,,,,yellow,hexagon
638.0,3.0,3.0,0.0,2.0,2.0,351.5315229997213,2.0,1.0,phase_1,,,,,,,,,,,,,green,diamond
184.0,5.0,1.0,1.0,4.0,4.0,342.8606460001902,2.0,1.0,phase_1,,,,,,,,,,,,,blue,triangle
158.0,1.0,1.0,0.0,1.0,1.0,314.1491440001118,2.0,1.0,phase_1,,,,,,,,,,,,,white,circle
153.0,5.0,1.0,1.0,4.0,4.0,333.0725199994049,2.0,1.0,phase_1,,,,,,,,,,,,,blue,triangle
310.0,6.0,2.0,1.0,2.0,2.0,425.3800900005444,2.0,1.0,phase_1,,,,,,,,,,,,,magenta,square
1318.0,8.0,4.0,1.0,4.0,4.0,350.9275329997763,2.0,1.0,phase_1,,,,,,,,,,,,,gray,flipped triangle
181.0,1.0,1.0,0.0,3.0,3.0,387.6720710013615,2.0,1.0,phase_1,,,,,,,,,,,,,white,circle
0.0,4.0,0.0,0.0,1.0,1.0,397.4562749990582,2.0,1.0,phase_1,,,,,,,,,,,,,yellow,hexagon
1320.0,8.0,4.0,1.0,4.0,4.0,314.6947770001134,2.0,1.0,phase_1,,,,,,,,,,,,,gray,flipped triangle
172.0,5.0,1.0,1.0,3.0,3.0,342.4927390005905,2.0,1.0,phase_1,,,,,,,,,,,,,blue,triangle
632.0,7.0,3.0,1.0,3.0,3.0,323.7095599997701,2.0,1.0,phase_1,,,,,,,,,,,,,orange,I
343.0,6.0,2.0,1.0,4.0,4.0,296.0980410007323,2.0,1.0,phase_1,,,,,,,,,,,,,magenta,square
319.0,6.0,2.0,1.0,2.0,2.0,352.0523019997199,2.0,1.0,phase_1,,,,,,,,,,,,,magenta,square
310.0,6.0,2.0,1.0,3.0,3.0,315.3564220010594,2.0,1.0,phase_1,,,,,,,,,,,,,magenta,square
1287.0,8.0,4.0,1.0,3.0,3.0,379.8327870008506,2.0,1.0,phase_1,,,,,,,,,,,,,gray,flipped triangle
138.0,1.0,1.0,0.0,4.0,4.0,324.3533289987681,2.0,1.0,phase_1,,,,,,,,,,,,,white,circle
0.0,3.0,0.0,0.0,1.0,1.0,491.2142059984035,2.0,1.0,phase_1,,,,,,,,,,,,,green,diamond
0.0,6.0,0.0,1.0,4.0,4.0,407.5520959995629,2.0,1.0,phase_1,,,,,,,,,,,,,magenta,square
1322.0,8.0,4.0,1.0,2.0,2.0,435.5424360001052,2.0,1.0,phase_1,,,,,,,,,,,,,gray,flipped triangle
673.0,3.0,3.0,0.0,3.0,3.0,278.6477160007052,2.0,1.0,phase_1,,,,,,,,,,,,,green,diamond
0.0,4.0,0.0,0.0,4.0,4.0,251.1030410005332,2.0,1.0,phase_1,,,,,,,,,,,,,yellow,hexagon
0.0,1.0,0.0,0.0,4.0,4.0,361.45908200160187,2.0,1.0,phase_1,,,,,,,,,,,,,white,circle
0.0,6.0,0.0,1.0,2.0,2.0,379.5071770000504,2.0,1.0,phase_1,,,,,,,,,,,,,magenta,square
627.0,3.0,3.0,0.0,4.0,4.0,305.4847210005391,2.0,1.0,phase_1,,,,,,,,,,,,,green,diamond
1320.0,4.0,4.0,0.0,3.0,3.0,315.6207920001179,2.0,1.0,phase_1,,,,,,,,,,,,,yellow,hexagon
666.0,3.0,3.0,0.0,4.0,4.0,287.3957350002456,2.0,1.0,phase_1,,,,,,,,,,,,,green,diamond
1310.0,4.0,4.0,0.0,2.0,2.0,324.7762040009547,2.0,1.0,phase_1,,,,,,,,,,,,,yellow,hexagon
1306.0,4.0,4.0,0.0,3.0,3.0,343.5190170002897,2.0,1.0,phase_1,,,,,,,,,,,,,yellow,hexagon
1295.0,8.0,4.0,1.0,2.0,2.0,389.5435209997231,2.0,1.0,phase_1,,,,,,,,,,,,,gray,flipped triangle
663.0,7.0,3.0,1.0,2.0,2.0,453.1148200003372,2.0,1.0,phase_1,,,,,,,,,,,,,orange,I
345.0,2.0,2.0,0.0,3.0,3.0,306.7255850000947,2.0,1.0,phase_1,,,,,,,,,,,,,cyan,cross
0.0,7.0,0.0,1.0,2.0,2.0,360.9914010012289,2.0,1.0,phase_1,,,,,,,,,,,,,orange,I
663.0,7.0,3.0,1.0,2.0,2.0,305.3549800006294,2.0,2.0,phase_1,,,,,,,,,,,,,orange,I
183.0,1.0,1.0,0.0,3.0,3.0,361.9204299993726,2.0,1.0,phase_1,,,,,,,,,,,,,white,circle
151.0,5.0,1.0,1.0,4.0,4.0,361.8575370001053,2.0,1.0,phase_1,,,,,,,,,,,,,blue,triangle
0.0,3.0,0.0,0.0,4.0,4.0,305.835589999333,2.0,1.0,phase_1,,,,,,,,,,,,,green,diamond
167.0,5.0,1.0,1.0,4.0,4.0,389.7813680014224,2.0,1.0,phase_1,,,,,,,,,,,,,blue,triangle
640.0,3.0,3.0,0.0,2.0,2.0,343.0649960009759,2.0,1.0,phase_1,,,,,,,,,,,,,green,diamond
0.0,6.0,0.0,1.0,1.0,1.0,378.7807310000062,2.0,1.0,phase_1,,,,,,,,,,,,,magenta,square
345.0,6.0,2.0,1.0,1.0,1.0,379.8827280006662,2.0,1.0,phase_1,,,,,,,,,,,,,magenta,square
0.0,8.0,0.0,1.0,2.0,2.0,344.1189160002977,2.0,1.0,phase_1,,,,,,,,,,,,,gray,flipped triangle
163.0,5.0,1.0,1.0,1.0,1.0,324.7579130002123,2.0,1.0,phase_1,,,,,,,,,,,,,blue,triangle
334.0,6.0,2.0,1.0,4.0,4.0,353.7271620007232,2.0,1.0,phase_1,,,,,,,,,,,,,magenta,square
648.0,7.0,3.0,1.0,3.0,3.0,397.3462509984529,2.0,1.0,phase_1,,,,,,,,,,,,,orange,I
158.0,5.0,1.0,1.0,4.0,4.0,408.5032660004799,2.0,1.0,phase_1,,,,,,,,,,,,,blue,triangle
1277.0,4.0,4.0,0.0,3.0,3.0,381.5229840001848,2.0,1.0,phase_1,,,,,,,,,,,,,yellow,hexagon
0.0,2.0,0.0,0.0,1.0,1.0,444.0586759992584,2.0,1.0,phase_1,,,,,,,,,,,,,cyan,cross
305.0,2.0,2.0,0.0,3.0,3.0,338.0703099992388,2.0,1.0,phase_1,,,,,,,,,,,,,cyan,cross
172.0,1.0,1.0,0.0,2.0,2.0,519.5660949993908,2.0,1.0,phase_1,,,,,,,,,,,,,white,circle
649.0,3.0,3.0,0.0,4.0,4.0,297.2501299991563,2.0,1.0,phase_1,,,,,,,,,,,,,green,diamond
1318.0,4.0,4.0,0.0,2.0,2.0,325.087352999617,2.0,1.0,phase_1,,,,,,,,,,,,,yellow,hexagon
0.0,4.0,0.0,0.0,3.0,3.0,432.5686629999836,2.0,1.0,phase_1,,,,,,,,,,,,,yellow,hexagon
346.0,6.0,2.0,1.0,4.0,4.0,389.5285899998271,2.0,1.0,phase_1,,,,,,,,,,,,,magenta,square
673.0,3.0,3.0,0.0,2.0,2.0,445.2262060003704,2.0,1.0,phase_1,,,,,,,,,,,,,green,diamond
0.0,2.0,0.0,0.0,2.0,2.0,352.2648729995126,2.0,1.0,phase_1,,,,,,,,,,,,,cyan,cross
644.0,3.0,3.0,0.0,2.0,2.0,332.8183390003687,2.0,1.0,phase_1,,,,,,,,,,,,,green,diamond
324.0,2.0,2.0,0.0,3.0,3.0,370.5285070009267,2.0,1.0,phase_1,,,,,,,,,,,,,cyan,cross
156.0,5.0,1.0,1.0,3.0,3.0,334.3183340002724,2.0,1.0,phase_1,,,,,,,,,,,,,blue,triangle
1305.0,4.0,4.0,0.0,3.0,3.0,361.272056999951,2.0,1.0,phase_1,,,,,,,,,,,,,yellow,hexagon
0.0,5.0,0.0,1.0,3.0,3.0,417.8303120006603,2.0,1.0,phase_1,,,,,,,,,,,,,blue,triangle
158.0,1.0,1.0,0.0,4.0,4.0,379.4583079998119,2.0,1.0,phase_1,,,,,,,,,,,,,white,circle
0.0,3.0,0.0,0.0,4.0,4.0,399.4451230009872,2.0,1.0,phase_1,,,,,,,,,,,,,green,diamond
1307.0,4.0,4.0,0.0,1.0,1.0,417.8065059986693,2.0,1.0,phase_1,,,,,,,,,,,,,yellow,hexagon
0.0,1.0,0.0,0.0,2.0,2.0,407.9188929990778,2.0,1.0,phase_1,,,,,,,,,,,,,white,circle
303.0,6.0,2.0,1.0,3.0,3.0,334.5404560004681,2.0,1.0,phase_1,,,,,,,,,,,,,magenta,square
0.0,4.0,0.0,0.0,1.0,1.0,334.5163430003595,2.0,1.0,phase_1,,,,,,,,,,,,,yellow,hexagon
343.0,2.0,2.0,0.0,1.0,1.0,371.0599920013919,2.0,1.0,phase_1,,,,,,,,,,,,,cyan,cross
317.0,6.0,2.0,1.0,4.0,4.0,435.8222820010269,2.0,1.0,phase_1,,,,,,,,,,,,,magenta,square
330.0,6.0,2.0,1.0,3.0,3.0,362.3348370001622,2.0,1.0,phase_1,,,,,,,,,,,,,magenta,square
645.0,3.0,3.0,0.0,1.0,1.0,307.2464659999241,2.0,1.0,phase_1,,,,,,,,,,,,,green,diamond
650.0,3.0,3.0,0.0,4.0,4.0,307.1505250009068,2.0,1.0,phase_1,,,,,,,,,,,,,green,diamond
178.0,1.0,1.0,0.0,3.0,3.0,360.7003800007078,2.0,1.0,phase_1,,,,,,,,,,,,,white,circle
1304.0,4.0,4.0,0.0,4.0,4.0,371.0490049998043,2.0,1.0,phase_1,,,,,,,,,,,,,yellow,hexagon
648.0,3.0,3.0,0.0,3.0,3.0,297.4195819988381,2.0,1.0,phase_1,,,,,,,,,,,,,green,diamond
0.0,8.0,0.0,1.0,1.0,1.0,565.4919499993412,3.0,1.0,phase_1,,,,,,,,,,,,,gray,flipped triangle
663.0,3.0,3.0,0.0,1.0,1.0,333.5783779984922,3.0,1.0,phase_1,,,,,,,,,,,,,green,diamond
645.0,7.0,3.0,1.0,1.0,1.0,305.4708969993953,3.0,1.0,phase_1,,,,,,,,,,,,,orange,I
653.0,3.0,3.0,0.0,1.0,1.0,315.1813250005943,3.0,1.0,phase_1,,,,,,,,,,,,,green,diamond
0.0,4.0,0.0,0.0,2.0,2.0,324.5849209997686,3.0,1.0,phase_1,,,,,,,,,,,,,yellow,hexagon
1322.0,4.0,4.0,0.0,4.0,4.0,324.254810999264,3.0,2.0,phase_1,,,,,,,,,,,,,yellow,hexagon
340.0,6.0,2.0,1.0,2.0,2.0,417.7129700001387,3.0,1.0,phase_1,,,,,,,,,,,,,magenta,square
1292.0,8.0,4.0,1.0,4.0,4.0,379.8987680002028,3.0,1.0,phase_1,,,,,,,,,,,,,gray,flipped triangle
138.0,1.0,1.0,0.0,4.0,4.0,379.4161950008856,3.0,1.0,phase_1,,,,,,,,,,,,,white,circle
640.0,7.0,3.0,1.0,3.0,3.0,427.0089450001251,3.0,1.0,phase_1,,,,,,,,,,,,,orange,I
675.0,7.0,3.0,1.0,3.0,3.0,389.9073490010778,3.0,1.0,phase_1,,,,,,,,,,,,,orange,I
1275.0,4.0,4.0,0.0,1.0,1.0,351.740152000275,3.0,1.0,phase_1,,,,,,,,,,,,,yellow,hexagon
0.0,8.0,0.0,1.0,4.0,4.0,425.4192300013528,3.0,1.0,phase_1,,,,,,,,,,,,,gray,flipped triangle
303.0,2.0,2.0,0.0,4.0,4.0,389.7048270009691,3.0,1.0,phase_1,,,,,,,,,,,,,cyan,cross
0.0,6.0,0.0,1.0,4.0,4.0,398.853124001107,3.0,1.0,phase_1,,,,,,,,,,,,,magenta,square
178.0,5.0,1.0,1.0,3.0,3.0,388.3762249988649,3.0,1.0,phase_1,,,,,,,,,,,,,blue,triangle
636.0,7.0,3.0,1.0,4.0,4.0,361.8124139993597,3.0,1.0,phase_1,,,,,,,,,,,,,orange,I
333.0,2.0,2.0,0.0,1.0,1.0,407.0486960008566,3.0,1.0,phase_1,,,,,,,,,,,,,cyan,cross
1325.0,4.0,4.0,0.0,1.0,1.0,417.3463700008142,3.0,1.0,phase_1,,,,,,,,,,,,,yellow,hexagon
631.0,3.0,3.0,0.0,2.0,2.0,371.5181480001774,3.0,1.0,phase_1,,,,,,,,,,,,,green,diamond
656.0,7.0,3.0,1.0,3.0,3.0,407.9074790006416,3.0,1.0,phase_1,,,,,,,,,,,,,orange,I
675.0,7.0,3.0,1.0,2.0,2.0,378.4605490000103,3.0,2.0,phase_1,,,,,,,,,,,,,orange,I
656.0,7.0,3.0,1.0,2.0,2.0,369.2091969987814,3.0,1.0,phase_1,,,,,,,,,,,,,orange,I
161.0,5.0,1.0,1.0,2.0,2.0,434.4504590008,3.0,1.0,phase_1,,,,,,,,,,,,,blue,triangle
0.0,7.0,0.0,1.0,3.0,3.0,379.3277420008962,3.0,1.0,phase_1,,,,,,,,,,,,,orange,I
183.0,5.0,1.0,1.0,3.0,3.0,351.6027059995394,3.0,1.0,phase_1,,,,,,,,,,,,,blue,triangle
632.0,3.0,3.0,0.0,1.0,1.0,398.0337390003114,3.0,1.0,phase_1,,,,,,,,,,,,,green,diamond
0.0,7.0,0.0,1.0,1.0,1.0,353.0801039996731,3.0,1.0,phase_1,,,,,,,,,,,,,orange,I
0.0,6.0,0.0,1.0,1.0,1.0,370.5568639998091,3.0,1.0,phase_1,,,,,,,,,,,,,magenta,square
330.0,2.0,2.0,0.0,2.0,2.0,342.3751020000054,3.0,1.0,phase_1,,,,,,,,,,,,,cyan,cross
1303.0,4.0,4.0,0.0,2.0,2.0,324.4878049990802,3.0,1.0,phase_1,,,,,,,,,,,,,yellow,hexagon
0.0,5.0,0.0,1.0,4.0,4.0,703.4030979993986,3.0,1.0,phase_1,,,,,,,,,,,,,blue,triangle
1278.0,4.0,4.0,0.0,2.0,2.0,600.4883659988991,3.0,1.0,phase_1,,,,,,,,,,,,,yellow,hexagon
0.0,7.0,0.0,1.0,3.0,3.0,408.2827319998614,3.0,1.0,phase_1,,,,,,,,,,,,,orange,I
138.0,5.0,1.0,1.0,1.0,1.0,361.070684999504,3.0,1.0,phase_1,,,,,,,,,,,,,blue,triangle
1281.0,8.0,4.0,1.0,1.0,1.0,406.5740010009904,3.0,1.0,phase_1,,,,,,,,,,,,,gray,flipped triangle
0.0,7.0,0.0,1.0,2.0,2.0,434.9499200015998,3.0,1.0,phase_1,,,,,,,,,,,,,orange,I
1301.0,4.0,4.0,0.0,2.0,2.0,407.0681569992302,3.0,1.0,phase_1,,,,,,,,,,,,,yellow,hexagon
310.0,2.0,2.0,0.0,4.0,4.0,444.6177370009536,3.0,1.0,phase_1,,,,,,,,,,,,,cyan,cross
150.0,5.0,1.0,1.0,1.0,1.0,333.4181999998691,3.0,1.0,phase_1,,,,,,,,,,,,,blue,triangle
1290.0,4.0,4.0,0.0,4.0,4.0,408.5109690004174,3.0,1.0,phase_1,,,,,,,,,,,,,yellow,hexagon
142.0,5.0,1.0,1.0,2.0,2.0,369.127379000929,3.0,1.0,phase_1,,,,,,,,,,,,,blue,triangle
143.0,1.0,1.0,0.0,1.0,1.0,333.5265549994801,3.0,1.0,phase_1,,,,,,,,,,,,,white,circle
327.0,2.0,2.0,0.0,1.0,1.0,333.9121190001606,3.0,1.0,phase_1,,,,,,,,,,,,,cyan,cross
339.0,2.0,2.0,0.0,1.0,1.0,350.9921109998686,3.0,1.0,phase_1,,,,,,,,,,,,,cyan,cross
626.0,3.0,3.0,0.0,2.0,2.0,325.4208269991068,3.0,1.0,phase_1,,,,,,,,,,,,,green,diamond
327.0,2.0,2.0,0.0,2.0,2.0,398.1574030003685,3.0,1.0,phase_1,,,,,,,,,,,,,cyan,cross
328.0,2.0,2.0,0.0,4.0,4.0,388.4518340000795,3.0,2.0,phase_1,,,,,,,,,,,,,cyan,cross
335.0,2.0,2.0,0.0,3.0,3.0,463.5307779990398,3.0,1.0,phase_1,,,,,,,,,,,,,cyan,cross
174.0,5.0,1.0,1.0,4.0,4.0,472.7528109997365,3.0,1.0,phase_1,,,,,,,,,,,,,blue,triangle
638.0,7.0,3.0,1.0,2.0,2.0,660.441580999759,3.0,1.0,phase_1,,,,,,,,,,,,,orange,I
0.0,6.0,0.0,1.0,2.0,2.0,425.8561669994378,3.0,1.0,phase_1,,,,,,,,,,,,,magenta,square
0.0,6.0,0.0,1.0,2.0,2.0,406.7259300009027,3.0,1.0,phase_1,,,,,,,,,,,,,magenta,square
158.0,1.0,1.0,0.0,1.0,1.0,388.5807170008775,3.0,1.0,phase_1,,,,,,,,,,,,,white,circle
0.0,7.0,0.0,1.0,1.0,1.0,333.1942989989329,3.0,1.0,phase_1,,,,,,,,,,,,,orange,I
1320.0,8.0,4.0,1.0,1.0,1.0,380.2217829997971,3.0,1.0,phase_1,,,,,,,,,,,,,gray,flipped triangle
156.0,1.0,1.0,0.0,3.0,3.0,436.0751479998725,3.0,1.0,phase_1,,,,,,,,,,,,,white,circle
1300.0,8.0,4.0,1.0,2.0,2.0,584.1407659991091,3.0,1.0,phase_1,,,,,,,,,,,,,gray,flipped triangle
158.0,5.0,1.0,1.0,2.0,2.0,408.0955339995853,3.0,1.0,phase_1,,,,,,,,,,,,,blue,triangle
1320.0,4.0,4.0,0.0,4.0,4.0,378.8057820001995,3.0,1.0,phase_1,,,,,,,,,,,,,yellow,hexagon
0.0,5.0,0.0,1.0,4.0,4.0,362.2531130004063,3.0,1.0,phase_1,,,,,,,,,,,,,blue,triangle
656.0,3.0,3.0,0.0,4.0,4.0,361.150134998752,3.0,1.0,phase_1,,,,,,,,,,,,,green,diamond
0.0,1.0,0.0,0.0,2.0,2.0,418.2313269993756,3.0,1.0,phase_1,,,,,,,,,,,,,white,circle
323.0,6.0,2.0,1.0,1.0,1.0,324.2495110007439,3.0,1.0,phase_1,,,,,,,,,,,,,magenta,square
638.0,3.0,3.0,0.0,4.0,4.0,342.7690739990794,3.0,1.0,phase_1,,,,,,,,,,,,,green,diamond
675.0,7.0,3.0,1.0,4.0,4.0,352.401992000523,3.0,1.0,phase_1,,,,,,,,,,,,,orange,I
0.0,6.0,0.0,1.0,2.0,2.0,362.4042320006992,3.0,1.0,phase_1,,,,,,,,,,,,,magenta,square
340.0,2.0,2.0,0.0,2.0,2.0,351.4260740012105,3.0,1.0,phase_1,,,,,,,,,,,,,cyan,cross
162.0,5.0,1.0,1.0,4.0,4.0,471.8289339998591,3.0,1.0,phase_1,,,,,,,,,,,,,blue,triangle
647.0,7.0,3.0,1.0,1.0,1.0,370.1512409988936,3.0,1.0,phase_1,,,,,,,,,,,,,orange,I
1295.0,4.0,4.0,0.0,3.0,3.0,426.978768000481,3.0,1.0,phase_1,,,,,,,,,,,,,yellow,hexagon
167.0,1.0,1.0,0.0,1.0,1.0,334.3627309986914,3.0,1.0,phase_1,,,,,,,,,,,,,white,circle
1295.0,8.0,4.0,1.0,3.0,3.0,371.2382319990865,3.0,1.0,phase_1,,,,,,,,,,,,,gray,flipped triangle
675.0,3.0,3.0,0.0,2.0,2.0,398.464669000532,3.0,1.0,phase_1,,,,,,,,,,,,,green,diamond
141.0,1.0,1.0,0.0,2.0,2.0,362.9375040000013,3.0,1.0,phase_1,,,,,,,,,,,,,white,circle
330.0,2.0,2.0,0.0,4.0,4.0,344.0492169993376,3.0,1.0,phase_1,,,,,,,,,,,,,cyan,cross
656.0,3.0,3.0,0.0,1.0,1.0,360.3725949997169,3.0,1.0,phase_1,,,,,,,,,,,,,green,diamond
156.0,5.0,1.0,1.0,1.0,1.0,378.8249070003076,3.0,1.0,phase_1,,,,,,,,,,,,,blue,triangle
1319.0,8.0,4.0,1.0,4.0,4.0,371.3372040001559,3.0,1.0,phase_1,,,,,,,,,,,,,gray,flipped triangle
1313.0,8.0,4.0,1.0,4.0,4.0,314.4963400009146,3.0,1.0,phase_1,,,,,,,,,,,,,gray,flipped triangle
150.0,1.0,1.0,0.0,1.0,1.0,269.304725999973,3.0,1.0,phase_1,,,,,,,,,,,,,white,circle
0.0,1.0,0.0,0.0,2.0,2.0,388.579454000137,3.0,1.0,phase_1,,,,,,,,,,,,,white,circle
1303.0,8.0,4.0,1.0,4.0,4.0,342.6158950005629,3.0,1.0,phase_1,,,,,,,,,,,,,gray,flipped triangle
1306.0,8.0,4.0,1.0,1.0,1.0,379.38488600048,3.0,1.0,phase_1,,,,,,,,,,,,,gray,flipped triangle
334.0,2.0,2.0,0.0,2.0,2.0,352.4884079997719,3.0,1.0,phase_1,,,,,,,,,,,,,cyan,cross
137.0,5.0,1.0,1.0,1.0,1.0,360.8589579998806,3.0,1.0,phase_1,,,,,,,,,,,,,blue,triangle
630.0,7.0,3.0,1.0,1.0,1.0,352.0030600011523,3.0,1.0,phase_1,,,,,,,,,,,,,orange,I
178.0,1.0,1.0,0.0,2.0,2.0,352.0963699993444,3.0,1.0,phase_1,,,,,,,,,,,,,white,circle
178.0,5.0,1.0,1.0,1.0,1.0,360.3445640001155,3.0,1.0,phase_1,,,,,,,,,,,,,blue,triangle
1283.0,8.0,4.0,1.0,1.0,1.0,414.8565019986563,3.0,1.0,phase_1,,,,,,,,,,,,,gray,flipped triangle
647.0,3.0,3.0,0.0,3.0,3.0,370.1251189995673,3.0,1.0,phase_1,,,,,,,,,,,,,green,diamond
651.0,3.0,3.0,0.0,3.0,3.0,379.9033569994208,3.0,1.0,phase_1,,,,,,,,,,,,,green,diamond
0.0,8.0,0.0,1.0,4.0,4.0,369.5947260002867,3.0,1.0,phase_1,,,,,,,,,,,,,gray,flipped triangle
163.0,1.0,1.0,0.0,4.0,4.0,415.1897470001131,3.0,1.0,phase_1,,,,,,,,,,,,,white,circle
0.0,2.0,0.0,0.0,3.0,3.0,315.5309970006783,3.0,1.0,phase_1,,,,,,,,,,,,,cyan,cross
310.0,2.0,2.0,0.0,3.0,3.0,351.9957410007919,3.0,1.0,phase_1,,,,,,,,,,,,,cyan,cross
648.0,7.0,3.0,1.0,4.0,4.0,324.1386039990175,3.0,1.0,phase_1,,,,,,,,,,,,,orange,I
312.0,2.0,2.0,0.0,2.0,2.0,425.9609670007194,3.0,1.0,phase_1,,,,,,,,,,,,,cyan,cross
655.0,7.0,3.0,1.0,2.0,2.0,331.5957520007941,3.0,1.0,phase_1,,,,,,,,,,,,,orange,I
0.0,8.0,0.0,1.0,4.0,4.0,425.120018000598,3.0,1.0,phase_1,,,,,,,,,,,,,gray,flipped triangle
0.0,7.0,0.0,1.0,4.0,4.0,520.9362749992579,4.0,1.0,phase_1,,,,,,,,,,,,,orange,I
145.0,1.0,1.0,0.0,3.0,3.0,418.9298189994588,4.0,1.0,phase_1,,,,,,,,,,,,,white,circle
1281.0,4.0,4.0,0.0,1.0,1.0,363.0374560016207,4.0,1.0,phase_1,,,,,,,,,,,,,yellow,hexagon
1278.0,8.0,4.0,1.0,2.0,2.0,297.6818070001172,4.0,1.0,phase_1,,,,,,,,,,,,,gray,flipped triangle
673.0,7.0,3.0,1.0,2.0,2.0,307.5267120002536,4.0,1.0,phase_1,,,,,,,,,,,,,orange,I
185.0,5.0,1.0,1.0,1.0,1.0,371.8967810000322,4.0,1.0,phase_1,,,,,,,,,,,,,blue,triangle
675.0,3.0,3.0,0.0,4.0,4.0,371.027650000542,4.0,1.0,phase_1,,,,,,,,,,,,,green,diamond
1316.0,8.0,4.0,1.0,2.0,2.0,362.2601589995611,4.0,1.0,phase_1,,,,,,,,,,,,,gray,flipped triangle
0.0,1.0,0.0,0.0,2.0,2.0,333.6224319991743,4.0,1.0,phase_1,,,,,,,,,,,,,white,circle
325.0,6.0,2.0,1.0,3.0,3.0,397.8558870003326,4.0,1.0,phase_1,,,,,,,,,,,,,magenta,square
651.0,7.0,3.0,1.0,3.0,3.0,320.68349099972687,4.0,1.0,phase_1,,,,,,,,,,,,,orange,I
653.0,3.0,3.0,0.0,1.0,1.0,379.7435409996978,4.0,1.0,phase_1,,,,,,,,,,,,,green,diamond
326.0,2.0,2.0,0.0,1.0,1.0,417.689033998613,4.0,1.0,phase_1,,,,,,,,,,,,,cyan,cross
0.0,5.0,0.0,1.0,2.0,2.0,418.2145340000716,4.0,1.0,phase_1,,,,,,,,,,,,,blue,triangle
0.0,1.0,0.0,0.0,1.0,1.0,361.5408180012309,4.0,1.0,phase_1,,,,,,,,,,,,,white,circle
158.0,1.0,1.0,0.0,4.0,4.0,454.1132989998004,4.0,1.0,phase_1,,,,,,,,,,,,,white,circle
1286.0,8.0,4.0,1.0,3.0,3.0,389.2564899997524,4.0,1.0,phase_1,,,,,,,,,,,,,gray,flipped triangle
178.0,5.0,1.0,1.0,1.0,1.0,371.2229549983021,4.0,1.0,phase_1,,,,,,,,,,,,,blue,triangle
1299.0,8.0,4.0,1.0,4.0,4.0,399.3496650000452,4.0,1.0,phase_1,,,,,,,,,,,,,gray,flipped triangle
176.0,5.0,1.0,1.0,3.0,3.0,362.8695589995914,4.0,1.0,phase_1,,,,,,,,,,,,,blue,triangle
313.0,6.0,2.0,1.0,2.0,2.0,389.1708119990653,4.0,1.0,phase_1,,,,,,,,,,,,,magenta,square
141.0,1.0,1.0,0.0,3.0,3.0,409.0165130000969,4.0,1.0,phase_1,,,,,,,,,,,,,white,circle
0.0,3.0,0.0,0.0,2.0,2.0,546.5376900010597,4.0,1.0,phase_1,,,,,,,,,,,,,green,diamond
175.0,1.0,1.0,0.0,4.0,4.0,361.8156369993812,4.0,1.0,phase_1,,,,,,,,,,,,,white,circle
1282.0,4.0,4.0,0.0,4.0,4.0,375.1099339988286,4.0,1.0,phase_1,,,,,,,,,,,,,yellow,hexagon
0.0,4.0,0.0,0.0,2.0,2.0,351.7707339997287,4.0,1.0,phase_1,,,,,,,,,,,,,yellow,hexagon
1305.0,8.0,4.0,1.0,1.0,1.0,297.0398390007176,4.0,2.0,phase_1,,,,,,,,,,,,,gray,flipped triangle
1313.0,4.0,4.0,0.0,1.0,1.0,352.5576079991879,4.0,1.0,phase_1,,,,,,,,,,,,,yellow,hexagon
326.0,6.0,2.0,1.0,1.0,1.0,443.6479649993998,4.0,1.0,phase_1,,,,,,,,,,,,,magenta,square
137.0,1.0,1.0,0.0,4.0,4.0,462.5201529997866,4.0,1.0,phase_1,,,,,,,,,,,,,white,circle
1289.0,4.0,4.0,0.0,2.0,2.0,462.8765109991946,4.0,1.0,phase_1,,,,,,,,,,,,,yellow,hexagon
319.0,2.0,2.0,0.0,3.0,3.0,332.5987030002579,4.0,1.0,phase_1,,,,,,,,,,,,,cyan,cross
163.0,1.0,1.0,0.0,2.0,2.0,370.5286889999115,4.0,1.0,phase_1,,,,,,,,,,,,,white,circle
627.0,3.0,3.0,0.0,1.0,1.0,389.9408420002146,4.0,1.0,phase_1,,,,,,,,,,,,,green,diamond
1300.0,4.0,4.0,0.0,4.0,4.0,379.4149300010758,4.0,1.0,phase_1,,,,,,,,,,,,,yellow,hexagon
151.0,1.0,1.0,0.0,2.0,2.0,426.6102219989989,4.0,1.0,phase_1,,,,,,,,,,,,,white,circle
667.0,7.0,3.0,1.0,2.0,2.0,640.9918970002764,4.0,1.0,phase_1,,,,,,,,,,,,,orange,I
337.0,6.0,2.0,1.0,3.0,3.0,445.9609579989774,4.0,1.0,phase_1,,,,,,,,,,,,,magenta,square
334.0,6.0,2.0,1.0,2.0,2.0,361.6271209994011,4.0,1.0,phase_1,,,,,,,,,,,,,magenta,square
1313.0,8.0,4.0,1.0,3.0,3.0,379.9599360008869,4.0,1.0,phase_1,,,,,,,,,,,,,gray,flipped triangle
1286.0,4.0,4.0,0.0,1.0,1.0,370.1850990000821,4.0,1.0,phase_1,,,,,,,,,,,,,yellow,hexagon
345.0,2.0,2.0,0.0,3.0,3.0,398.2672020010795,4.0,1.0,phase_1,,,,,,,,,,,,,cyan,cross
183.0,1.0,1.0,0.0,2.0,2.0,333.8119420004659,4.0,1.0,phase_1,,,,,,,,,,,,,white,circle
183.0,5.0,1.0,1.0,2.0,2.0,398.0395890012005,4.0,1.0,phase_1,,,,,,,,,,,,,blue,triangle
658.0,7.0,3.0,1.0,1.0,1.0,454.6382049993553,4.0,1.0,phase_1,,,,,,,,,,,,,orange,I
0.0,1.0,0.0,0.0,3.0,3.0,389.4267159994342,4.0,1.0,phase_1,,,,,,,,,,,,,white,circle
1310.0,4.0,4.0,0.0,1.0,1.0,426.4013939991855,4.0,1.0,phase_1,,,,,,,,,,,,,yellow,hexagon
312.0,6.0,2.0,1.0,2.0,2.0,306.3719000001583,4.0,1.0,phase_1,,,,,,,,,,,,,magenta,square
655.0,3.0,3.0,0.0,4.0,4.0,362.216511999577,4.0,1.0,phase_1,,,,,,,,,,,,,green,diamond
0.0,2.0,0.0,0.0,1.0,1.0,371.2802699992608,4.0,1.0,phase_1,,,,,,,,,,,,,cyan,cross
313.0,2.0,2.0,0.0,4.0,4.0,378.477001999272,4.0,1.0,phase_1,,,,,,,,,,,,,cyan,cross
0.0,3.0,0.0,0.0,3.0,3.0,342.308013998263,4.0,1.0,phase_1,,,,,,,,,,,,,green,diamond
1313.0,4.0,4.0,0.0,3.0,3.0,397.8659549993608,4.0,1.0,phase_1,,,,,,,,,,,,,yellow,hexagon
627.0,7.0,3.0,1.0,1.0,1.0,314.4067610010097,4.0,1.0,phase_1,,,,,,,,,,,,,orange,I
626.0,7.0,3.0,1.0,1.0,1.0,314.5696229985333,4.0,1.0,phase_1,,,,,,,,,,,,,orange,I
0.0,1.0,0.0,0.0,2.0,2.0,371.1682320008549,4.0,1.0,phase_1,,,,,,,,,,,,,white,circle
0.0,2.0,0.0,0.0,1.0,1.0,381.6296260010858,4.0,1.0,phase_1,,,,,,,,,,,,,cyan,cross
1283.0,4.0,4.0,0.0,4.0,4.0,361.9119169998157,4.0,1.0,phase_1,,,,,,,,,,,,,yellow,hexagon
349.0,2.0,2.0,0.0,1.0,1.0,387.5088969998614,4.0,1.0,phase_1,,,,,,,,,,,,,cyan,cross
339.0,2.0,2.0,0.0,4.0,4.0,314.4743860011658,4.0,1.0,phase_1,,,,,,,,,,,,,cyan,cross
0.0,2.0,0.0,0.0,2.0,2.0,342.9521500002011,4.0,1.0,phase_1,,,,,,,,,,,,,cyan,cross
176.0,1.0,1.0,0.0,4.0,4.0,359.6588759992301,4.0,1.0,phase_1,,,,,,,,,,,,,white,circle
0.0,8.0,0.0,1.0,4.0,4.0,352.0462600008613,4.0,1.0,phase_1,,,,,,,,,,,,,gray,flipped triangle
349.0,6.0,2.0,1.0,1.0,1.0,286.4609919997747,4.0,1.0,phase_1,,,,,,,,,,,,,magenta,square
1325.0,8.0,4.0,1.0,2.0,2.0,370.5168790002062,4.0,1.0,phase_1,,,,,,,,,,,,,gray,flipped triangle
1290.0,8.0,4.0,1.0,2.0,2.0,352.9021659996942,4.0,1.0,phase_1,,,,,,,,,,,,,gray,flipped triangle
328.0,6.0,2.0,1.0,1.0,1.0,333.8763680003467,4.0,1.0,phase_1,,,,,,,,,,,,,magenta,square
336.0,6.0,2.0,1.0,2.0,2.0,294.8021329993935,4.0,1.0,phase_1,,,,,,,,,,,,,magenta,square
319.0,2.0,2.0,0.0,4.0,4.0,443.4003839996876,4.0,1.0,phase_1,,,,,,,,,,,,,cyan,cross
640.0,7.0,3.0,1.0,4.0,4.0,398.1535860002623,4.0,1.0,phase_1,,,,,,,,,,,,,orange,I
144.0,5.0,1.0,1.0,2.0,2.0,350.944060999609,4.0,1.0,phase_1,,,,,,,,,,,,,blue,triangle
339.0,6.0,2.0,1.0,4.0,4.0,343.082815001253,4.0,1.0,phase_1,,,,,,,,,,,,,magenta,square
0.0,3.0,0.0,0.0,1.0,1.0,692.71721000041,4.0,1.0,phase_1,,,,,,,,,,,,,green,diamond
648.0,3.0,3.0,0.0,2.0,2.0,536.2776879992452,4.0,1.0,phase_1,,,,,,,,,,,,,green,diamond
638.0,7.0,3.0,1.0,4.0,4.0,463.5280300008162,4.0,1.0,phase_1,,,,,,,,,,,,,orange,I
319.0,2.0,2.0,0.0,1.0,1.0,342.2995340006309,4.0,1.0,phase_1,,,,,,,,,,,,,cyan,cross
655.0,3.0,3.0,0.0,4.0,4.0,370.1811659993836,4.0,1.0,phase_1,,,,,,,,,,,,,green,diamond
1286.0,8.0,4.0,1.0,2.0,2.0,396.7209070015087,4.0,1.0,phase_1,,,,,,,,,,,,,gray,flipped triangle
673.0,7.0,3.0,1.0,3.0,3.0,378.2639749988448,4.0,1.0,phase_1,,,,,,,,,,,,,orange,I
0.0,6.0,0.0,1.0,4.0,4.0,389.1903639996599,4.0,1.0,phase_1,,,,,,,,,,,,,magenta,square
1313.0,8.0,4.0,1.0,1.0,1.0,314.4290929994895,4.0,1.0,phase_1,,,,,,,,,,,,,gray,flipped triangle
0.0,7.0,0.0,1.0,3.0,3.0,351.4788640004553,4.0,1.0,phase_1,,,,,,,,,,,,,orange,I
0.0,6.0,0.0,1.0,3.0,3.0,443.3375990010972,4.0,1.0,phase_1,,,,,,,,,,,,,magenta,square
1295.0,4.0,4.0,0.0,3.0,3.0,350.3808969999227,4.0,1.0,phase_1,,,,,,,,,,,,,yellow,hexagon
174.0,1.0,1.0,0.0,1.0,1.0,470.9411320000072,4.0,1.0,phase_1,,,,,,,,,,,,,white,circle
143.0,5.0,1.0,1.0,3.0,3.0,435.8668500008207,4.0,1.0,phase_1,,,,,,,,,,,,,blue,triangle
186.0,1.0,1.0,0.0,4.0,4.0,379.2798800004675,4.0,1.0,phase_1,,,,,,,,,,,,,white,circle
158.0,5.0,1.0,1.0,1.0,1.0,333.0931250002322,4.0,1.0,phase_1,,,,,,,,,,,,,blue,triangle
0.0,1.0,0.0,0.0,1.0,1.0,332.1888139998918,4.0,1.0,phase_1,,,,,,,,,,,,,white,circle
663.0,3.0,3.0,0.0,3.0,3.0,361.0117759999411,4.0,1.0,phase_1,,,,,,,,,,,,,green,diamond
161.0,1.0,1.0,0.0,3.0,3.0,425.5499890005012,4.0,1.0,phase_1,,,,,,,,,,,,,white,circle
653.0,7.0,3.0,1.0,4.0,4.0,426.1386380003387,4.0,1.0,phase_1,,,,,,,,,,,,,orange,I
636.0,3.0,3.0,0.0,3.0,3.0,352.8423850002582,4.0,1.0,phase_1,,,,,,,,,,,,,green,diamond
649.0,7.0,3.0,1.0,4.0,4.0,278.2761510006821,4.0,1.0,phase_1,,,,,,,,,,,,,orange,I
675.0,3.0,3.0,0.0,4.0,4.0,388.9930909990653,4.0,1.0,phase_1,,,,,,,,,,,,,green,diamond
1301.0,8.0,4.0,1.0,3.0,3.0,305.3761049995955,4.0,1.0,phase_1,,,,,,,,,,,,,gray,flipped triangle
328.0,6.0,2.0,1.0,4.0,4.0,251.2596950000443,4.0,1.0,phase_1,,,,,,,,,,,,,magenta,square
156.0,5.0,1.0,1.0,2.0,2.0,370.05424400013,4.0,1.0,phase_1,,,,,,,,,,,,,blue,triangle
314.0,6.0,2.0,1.0,3.0,3.0,407.4809619996813,4.0,1.0,phase_1,,,,,,,,,,,,,magenta,square
650.0,7.0,3.0,1.0,2.0,2.0,352.84767200028,4.0,1.0,phase_1,,,,,,,,,,,,,orange,I
0.0,1.0,1.0,0.0,6.0,6.0,372.8266179987258,1.0,1.0,phase_2,go,250.0,250.0,1.0,,,,,,,,,white,circle
0.0,1.0,1.0,0.0,6.0,6.0,270.4180389991961,1.0,1.0,phase_2,go,250.0,250.0,1.0,,,,,,,,,white,circle
0.0,4.0,4.0,0.0,6.0,6.0,298.3810960013215,1.0,1.0,phase_2,go,250.0,250.0,1.0,,,,,,,,,yellow,hexagon
0.0,5.0,1.0,1.0,6.0,0.0,0.0,1.0,1.0,phase_2,stop,250.0,250.0,4.0,,,,,,,,,blue,triangle
0.0,5.0,1.0,1.0,5.0,5.0,245.7449149987951,1.0,1.0,phase_2,stop,250.0,300.0,3.0,,,,,,,,,blue,triangle
0.0,2.0,2.0,0.0,5.0,5.0,345.6238899998425,1.0,1.0,phase_2,go,200.0,300.0,1.0,,,,,,,,,cyan,cross
0.0,3.0,3.0,0.0,6.0,6.0,308.627295999031,1.0,1.0,phase_2,go,200.0,300.0,1.0,,,,,,,,,green,diamond
0.0,6.0,2.0,1.0,6.0,6.0,270.9665180009324,1.0,1.0,phase_2,go,200.0,300.0,1.0,,,,,,,,,magenta,square
0.0,2.0,2.0,0.0,6.0,6.0,354.9384250000003,1.0,1.0,phase_2,go,200.0,300.0,1.0,,,,,,,,,cyan,cross
0.0,4.0,4.0,0.0,5.0,5.0,299.4141090002813,1.0,1.0,phase_2,go,200.0,300.0,1.0,,,,,,,,,yellow,hexagon
0.0,6.0,2.0,1.0,5.0,5.0,325.6624129990086,1.0,1.0,phase_2,stop,200.0,300.0,3.0,,,,,,,,,magenta,square
0.0,2.0,2.0,0.0,5.0,5.0,308.8801049998437,1.0,1.0,phase_2,go,150.0,300.0,1.0,,,,,,,,,cyan,cross
0.0,4.0,4.0,0.0,5.0,5.0,346.4514200004487,1.0,1.0,phase_2,go,150.0,300.0,1.0,,,,,,,,,yellow,hexagon
0.0,4.0,4.0,0.0,5.0,5.0,299.2179519987985,1.0,1.0,phase_2,go,150.0,300.0,1.0,,,,,,,,,yellow,hexagon
0.0,2.0,2.0,0.0,5.0,5.0,319.7012840009847,1.0,1.0,phase_2,go,150.0,300.0,1.0,,,,,,,,,cyan,cross
0.0,8.0,4.0,1.0,5.0,5.0,329.2137539992836,1.0,1.0,phase_2,stop,150.0,300.0,3.0,,,,,,,,,gray,flipped triangle
0.0,1.0,1.0,0.0,5.0,5.0,309.2432100002042,1.0,1.0,phase_2,go,100.0,300.0,1.0,,,,,,,,,white,circle
0.0,6.0,2.0,1.0,5.0,5.0,307.6972920007392,1.0,1.0,phase_2,stop,100.0,300.0,3.0,,,,,,,,,magenta,square
0.0,5.0,1.0,1.0,6.0,6.0,290.6295630000386,1.0,1.0,phase_2,go,50.0,300.0,1.0,,,,,,,,,blue,triangle
0.0,7.0,3.0,1.0,5.0,5.0,522.7628770007868,1.0,1.0,phase_2,stop,50.0,300.0,3.0,,,,,,,,,orange,I
0.0,8.0,4.0,1.0,5.0,5.0,382.680122000238,1.0,1.0,phase_2,go,0.0,300.0,1.0,,,,,,,,,gray,flipped triangle
0.0,6.0,2.0,1.0,6.0,6.0,353.41630000039,1.0,1.0,phase_2,stop,0.0,300.0,3.0,,,,,,,,,magenta,square
0.0,5.0,1.0,1.0,5.0,0.0,0.0,1.0,1.0,phase_2,stop,0.0,250.0,4.0,,,,,,,,,blue,triangle
0.0,1.0,1.0,0.0,5.0,5.0,372.9441089999454,1.0,1.0,phase_2,go,50.0,250.0,1.0,,,,,,,,,white,circle
0.0,6.0,2.0,1.0,5.0,5.0,317.6297129994054,1.0,1.0,phase_2,go,50.0,250.0,1.0,,,,,,,,,magenta,square
0.0,8.0,4.0,1.0,5.0,0.0,0.0,1.0,1.0,phase_2,stop,50.0,250.0,4.0,,,,,,,,,gray,flipped triangle
0.0,3.0,3.0,0.0,5.0,5.0,326.593652000156,1.0,1.0,phase_2,go,100.0,250.0,1.0,,,,,,,,,green,diamond
0.0,6.0,2.0,1.0,6.0,6.0,233.4326179989148,1.0,1.0,phase_2,stop,100.0,250.0,3.0,,,,,,,,,magenta,square
0.0,7.0,3.0,1.0,5.0,5.0,287.0364869995683,1.0,1.0,phase_2,go,100.0,200.0,1.0,,,,,,,,,orange,I
0.0,2.0,2.0,0.0,6.0,6.0,307.9161620007653,1.0,1.0,phase_2,go,100.0,200.0,1.0,,,,,,,,,cyan,cross
0.0,7.0,3.0,1.0,6.0,6.0,359.2038490005507,1.0,1.0,phase_2,stop,100.0,200.0,3.0,,,,,,,,,orange,I
0.0,1.0,1.0,0.0,6.0,6.0,520.8872470011556,1.0,1.0,phase_2,go,100.0,150.0,1.0,,,,,,,,,white,circle
0.0,5.0,1.0,1.0,6.0,6.0,299.0364370016323,1.0,1.0,phase_2,go,100.0,150.0,1.0,,,,,,,,,blue,triangle
0.0,4.0,4.0,0.0,6.0,6.0,326.4560009993147,1.0,1.0,phase_2,go,100.0,150.0,1.0,,,,,,,,,yellow,hexagon
0.0,1.0,1.0,0.0,5.0,5.0,251.4612560007663,1.0,1.0,phase_2,go,100.0,150.0,1.0,,,,,,,,,white,circle
0.0,2.0,2.0,0.0,5.0,5.0,261.7829359987809,1.0,1.0,phase_2,go,100.0,150.0,1.0,,,,,,,,,cyan,cross
0.0,8.0,4.0,1.0,6.0,6.0,561.3667569996323,2.0,1.0,phase_2,stop,100.0,150.0,3.0,,,,,,,,,gray,flipped triangle
0.0,4.0,4.0,0.0,5.0,5.0,447.9664289992797,2.0,1.0,phase_2,go,100.0,100.0,1.0,,,,,,,,,yellow,hexagon
0.0,5.0,1.0,1.0,6.0,6.0,317.15506799992,2.0,1.0,phase_2,stop,100.0,100.0,3.0,,,,,,,,,blue,triangle
0.0,6.0,2.0,1.0,6.0,6.0,384.6273140006815,2.0,1.0,phase_2,stop,100.0,50.0,3.0,,,,,,,,,magenta,square
0.0,8.0,4.0,1.0,5.0,0.0,0.0,2.0,1.0,phase_2,stop,100.0,0.0,4.0,,,,,,,,,gray,flipped triangle
0.0,4.0,4.0,0.0,5.0,5.0,373.4474639986729,2.0,1.0,phase_2,go,150.0,0.0,1.0,,,,,,,,,yellow,hexagon
0.0,1.0,1.0,0.0,6.0,6.0,307.758079999985,2.0,1.0,phase_2,go,150.0,0.0,1.0,,,,,,,,,white,circle
0.0,7.0,3.0,1.0,6.0,0.0,0.0,2.0,1.0,phase_2,stop,150.0,0.0,4.0,,,,,,,,,orange,I
0.0,6.0,2.0,1.0,5.0,0.0,0.0,2.0,1.0,phase_2,stop,150.0,50.0,4.0,,,,,,,,,magenta,square
0.0,4.0,4.0,0.0,6.0,6.0,540.2321869987645,2.0,1.0,phase_2,go,200.0,50.0,1.0,,,,,,,,,yellow,hexagon
0.0,5.0,1.0,1.0,5.0,0.0,0.0,2.0,1.0,phase_2,stop,200.0,50.0,4.0,,,,,,,,,blue,triangle
0.0,1.0,1.0,0.0,6.0,6.0,353.9667149998422,2.0,1.0,phase_2,go,250.0,50.0,1.0,,,,,,,,,white,circle
0.0,6.0,2.0,1.0,6.0,0.0,0.0,2.0,1.0,phase_2,stop,250.0,50.0,4.0,,,,,,,,,magenta,square
0.0,2.0,2.0,0.0,5.0,5.0,623.7954250009352,2.0,1.0,phase_2,go,250.0,100.0,1.0,,,,,,,,,cyan,cross
0.0,2.0,2.0,0.0,6.0,6.0,353.7515589996474,2.0,1.0,phase_2,go,250.0,100.0,1.0,,,,,,,,,cyan,cross
0.0,8.0,4.0,1.0,6.0,0.0,0.0,2.0,1.0,phase_2,stop,250.0,100.0,4.0,,,,,,,,,gray,flipped triangle
0.0,3.0,3.0,0.0,5.0,5.0,628.411480000068,2.0,1.0,phase_2,go,250.0,150.0,1.0,,,,,,,,,green,diamond
0.0,4.0,4.0,0.0,5.0,5.0,486.7882739999913,2.0,1.0,phase_2,go,250.0,150.0,1.0,,,,,,,,,yellow,hexagon
0.0,8.0,4.0,1.0,6.0,0.0,0.0,2.0,1.0,phase_2,stop,250.0,150.0,4.0,,,,,,,,,gray,flipped triangle
0.0,7.0,3.0,1.0,6.0,0.0,0.0,2.0,1.0,phase_2,stop,250.0,200.0,4.0,,,,,,,,,orange,I
0.0,7.0,3.0,1.0,6.0,0.0,0.0,2.0,1.0,phase_2,stop,250.0,250.0,4.0,,,,,,,,,orange,I
0.0,4.0,4.0,0.0,6.0,6.0,412.4475799999345,2.0,1.0,phase_2,go,250.0,300.0,1.0,,,,,,,,,yellow,hexagon
0.0,7.0,3.0,1.0,5.0,0.0,0.0,2.0,1.0,phase_2,stop,250.0,300.0,4.0,,,,,,,,,orange,I
0.0,4.0,4.0,0.0,6.0,6.0,641.3873810015502,2.0,1.0,phase_2,go,300.0,300.0,1.0,,,,,,,,,yellow,hexagon
0.0,1.0,1.0,0.0,6.0,6.0,484.999152000455,2.0,1.0,phase_2,go,300.0,300.0,1.0,,,,,,,,,white,circle
0.0,7.0,3.0,1.0,5.0,5.0,346.2812260004284,2.0,1.0,phase_2,go,300.0,300.0,1.0,,,,,,,,,orange,I
0.0,8.0,4.0,1.0,6.0,6.0,556.9933939987095,2.0,1.0,phase_2,stop,300.0,300.0,3.0,,,,,,,,,gray,flipped triangle
0.0,1.0,1.0,0.0,5.0,5.0,616.2264419999701,2.0,1.0,phase_2,go,300.0,250.0,1.0,,,,,,,,,white,circle
0.0,8.0,4.0,1.0,5.0,0.0,0.0,2.0,1.0,phase_2,stop,300.0,250.0,4.0,,,,,,,,,gray,flipped triangle
0.0,8.0,4.0,1.0,5.0,0.0,0.0,2.0,1.0,phase_2,stop,350.0,250.0,4.0,,,,,,,,,gray,flipped triangle
0.0,3.0,3.0,0.0,5.0,5.0,345.2426749990991,2.0,1.0,phase_2,go,400.0,250.0,1.0,,,,,,,,,green,diamond
0.0,5.0,1.0,1.0,6.0,6.0,414.8806129996956,2.0,1.0,phase_2,stop,400.0,250.0,3.0,,,,,,,,,blue,triangle
0.0,5.0,1.0,1.0,6.0,0.0,0.0,2.0,1.0,phase_2,stop,400.0,200.0,4.0,,,,,,,,,blue,triangle
0.0,3.0,3.0,0.0,5.0,5.0,577.9863009993278,2.0,1.0,phase_2,go,400.0,250.0,1.0,,,,,,,,,green,diamond
0.0,1.0,1.0,0.0,6.0,6.0,690.8378160005668,2.0,1.0,phase_2,go,400.0,250.0,1.0,,,,,,,,,white,circle
0.0,2.0,2.0,0.0,6.0,6.0,680.3255140002875,2.0,1.0,phase_2,go,400.0,250.0,1.0,,,,,,,,,cyan,cross
0.0,3.0,3.0,0.0,5.0,5.0,654.5083459986927,3.0,1.0,phase_2,go,400.0,250.0,1.0,,,,,,,,,green,diamond
0.0,2.0,2.0,0.0,6.0,6.0,391.6817899989837,3.0,1.0,phase_2,go,400.0,250.0,1.0,,,,,,,,,cyan,cross
0.0,1.0,1.0,0.0,5.0,5.0,382.4358689998917,3.0,1.0,phase_2,go,400.0,250.0,1.0,,,,,,,,,white,circle
0.0,4.0,4.0,0.0,6.0,6.0,363.7410330011335,3.0,1.0,phase_2,go,400.0,250.0,1.0,,,,,,,,,yellow,hexagon
0.0,6.0,2.0,1.0,5.0,0.0,0.0,3.0,1.0,phase_2,stop,400.0,250.0,4.0,,,,,,,,,magenta,square
0.0,7.0,3.0,1.0,5.0,5.0,719.3222219993913,3.0,1.0,phase_2,go,450.0,250.0,1.0,,,,,,,,,orange,I
0.0,7.0,3.0,1.0,5.0,5.0,384.6120239995798,3.0,1.0,phase_2,go,450.0,250.0,1.0,,,,,,,,,orange,I
0.0,8.0,4.0,1.0,5.0,0.0,0.0,3.0,1.0,phase_2,stop,450.0,250.0,4.0,,,,,,,,,gray,flipped triangle
0.0,1.0,1.0,0.0,5.0,5.0,784.4264770010341,3.0,1.0,phase_2,go,500.0,250.0,1.0,,,,,,,,,white,circle
0.0,2.0,2.0,0.0,5.0,5.0,962.227811000048,3.0,1.0,phase_2,go,500.0,250.0,1.0,,,,,,,,,cyan,cross
0.0,2.0,2.0,0.0,6.0,6.0,652.498490000653,3.0,1.0,phase_2,go,500.0,250.0,1.0,,,,,,,,,cyan,cross
0.0,6.0,2.0,1.0,5.0,5.0,327.4483889999828,3.0,1.0,phase_2,stop,500.0,250.0,3.0,,,,,,,,,magenta,square
0.0,4.0,4.0,0.0,5.0,5.0,469.5604349999485,3.0,1.0,phase_2,go,450.0,250.0,1.0,,,,,,,,,yellow,hexagon
0.0,3.0,3.0,0.0,6.0,6.0,636.9980599993141,3.0,1.0,phase_2,go,450.0,250.0,1.0,,,,,,,,,green,diamond
0.0,7.0,3.0,1.0,5.0,5.0,355.191955999544,3.0,1.0,phase_2,stop,450.0,250.0,3.0,,,,,,,,,orange,I
0.0,7.0,3.0,1.0,5.0,0.0,0.0,3.0,1.0,phase_2,stop,400.0,250.0,4.0,,,,,,,,,orange,I
0.0,6.0,2.0,1.0,5.0,5.0,508.9718319995882,3.0,1.0,phase_2,stop,450.0,250.0,3.0,,,,,,,,,magenta,square
0.0,8.0,4.0,1.0,5.0,5.0,700.5088770001748,3.0,1.0,phase_2,go,400.0,250.0,1.0,,,,,,,,,gray,flipped triangle
0.0,5.0,1.0,1.0,5.0,0.0,0.0,3.0,1.0,phase_2,stop,400.0,250.0,4.0,,,,,,,,,blue,triangle
0.0,1.0,1.0,0.0,5.0,5.0,691.4027499988151,3.0,1.0,phase_2,go,450.0,250.0,1.0,,,,,,,,,white,circle
0.0,3.0,3.0,0.0,6.0,6.0,681.4986350000254,3.0,1.0,phase_2,go,450.0,250.0,1.0,,,,,,,,,green,diamond
0.0,2.0,2.0,0.0,6.0,6.0,870.2350229996227,3.0,1.0,phase_2,go,450.0,250.0,1.0,,,,,,,,,cyan,cross
0.0,3.0,3.0,0.0,6.0,6.0,709.495634000632,3.0,1.0,phase_2,go,450.0,250.0,1.0,,,,,,,,,green,diamond
0.0,7.0,3.0,1.0,5.0,0.0,0.0,3.0,1.0,phase_2,stop,450.0,250.0,4.0,,,,,,,,,orange,I
0.0,3.0,3.0,0.0,6.0,6.0,766.5222050000011,3.0,1.0,phase_2,go,500.0,250.0,1.0,,,,,,,,,green,diamond
0.0,2.0,2.0,0.0,5.0,5.0,962.5041689996578,3.0,1.0,phase_2,go,500.0,250.0,1.0,,,,,,,,,cyan,cross
0.0,4.0,4.0,0.0,5.0,5.0,822.5595549993159,3.0,1.0,phase_2,go,500.0,250.0,1.0,,,,,,,,,yellow,hexagon
0.0,4.0,4.0,0.0,5.0,5.0,346.1433900010888,3.0,1.0,phase_2,go,500.0,250.0,1.0,,,,,,,,,yellow,hexagon
0.0,8.0,4.0,1.0,6.0,6.0,437.0878029985761,3.0,1.0,phase_2,go,500.0,250.0,1.0,,,,,,,,,gray,flipped triangle
0.0,1.0,1.0,0.0,6.0,6.0,541.924821000066,3.0,1.0,phase_2,go,500.0,250.0,1.0,,,,,,,,,white,circle
0.0,8.0,4.0,1.0,6.0,0.0,0.0,3.0,1.0,phase_2,stop,500.0,250.0,4.0,,,,,,,,,gray,flipped triangle
0.0,8.0,4.0,1.0,5.0,5.0,627.088236000418,3.0,1.0,phase_2,stop,500.0,300.0,3.0,,,,,,,,,gray,flipped triangle
0.0,7.0,3.0,1.0,6.0,6.0,765.6563510008709,3.0,1.0,phase_2,go,450.0,300.0,1.0,,,,,,,,,orange,I
0.0,2.0,2.0,0.0,5.0,5.0,869.8916459998145,3.0,1.0,phase_2,go,450.0,300.0,1.0,,,,,,,,,cyan,cross
0.0,3.0,3.0,0.0,5.0,5.0,887.5146499995026,3.0,1.0,phase_2,go,450.0,300.0,1.0,,,,,,,,,green,diamond
0.0,2.0,2.0,0.0,5.0,5.0,785.3899740002817,3.0,1.0,phase_2,go,450.0,300.0,1.0,,,,,,,,,cyan,cross
0.0,5.0,1.0,1.0,5.0,5.0,783.4001110004465,4.0,1.0,phase_2,go,450.0,300.0,1.0,,,,,,,,,blue,triangle
0.0,6.0,2.0,1.0,6.0,6.0,362.6522439990367,4.0,1.0,phase_2,stop,450.0,300.0,3.0,,,,,,,,,magenta,square
0.0,3.0,3.0,0.0,5.0,5.0,420.6039480013714,4.0,1.0,phase_2,go,450.0,250.0,1.0,,,,,,,,,green,diamond
0.0,1.0,1.0,0.0,5.0,5.0,446.8172130000312,4.0,1.0,phase_2,go,450.0,250.0,1.0,,,,,,,,,white,circle
0.0,5.0,1.0,1.0,5.0,5.0,383.5292439998738,4.0,1.0,phase_2,stop,450.0,250.0,3.0,,,,,,,,,blue,triangle
0.0,8.0,4.0,1.0,6.0,6.0,438.9663809997728,4.0,1.0,phase_2,stop,400.0,250.0,3.0,,,,,,,,,gray,flipped triangle
0.0,6.0,2.0,1.0,5.0,5.0,602.9517509996367,4.0,1.0,phase_2,stop,400.0,200.0,3.0,,,,,,,,,magenta,square
0.0,2.0,2.0,0.0,5.0,5.0,738.4190609991492,4.0,1.0,phase_2,go,350.0,200.0,1.0,,,,,,,,,cyan,cross
0.0,6.0,2.0,1.0,6.0,6.0,783.8552980010718,4.0,1.0,phase_2,go,350.0,200.0,1.0,,,,,,,,,magenta,square
0.0,1.0,1.0,0.0,5.0,5.0,661.1012760004087,4.0,1.0,phase_2,go,350.0,200.0,1.0,,,,,,,,,white,circle
0.0,2.0,2.0,0.0,5.0,5.0,698.696524999832,4.0,1.0,phase_2,go,350.0,200.0,1.0,,,,,,,,,cyan,cross
0.0,7.0,3.0,1.0,5.0,0.0,0.0,4.0,1.0,phase_2,stop,350.0,200.0,4.0,,,,,,,,,orange,I
0.0,3.0,3.0,0.0,6.0,6.0,836.9187939988478,4.0,1.0,phase_2,go,400.0,200.0,1.0,,,,,,,,,green,diamond
0.0,7.0,3.0,1.0,6.0,0.0,0.0,4.0,1.0,phase_2,stop,400.0,200.0,4.0,,,,,,,,,orange,I
0.0,2.0,2.0,0.0,5.0,5.0,700.513466999837,4.0,1.0,phase_2,go,400.0,250.0,1.0,,,,,,,,,cyan,cross
0.0,4.0,4.0,0.0,5.0,5.0,884.1030220009998,4.0,1.0,phase_2,go,400.0,250.0,1.0,,,,,,,,,yellow,hexagon
0.0,6.0,2.0,1.0,5.0,5.0,317.0919339991087,4.0,1.0,phase_2,stop,400.0,250.0,3.0,,,,,,,,,magenta,square
0.0,6.0,2.0,1.0,6.0,0.0,0.0,4.0,1.0,phase_2,stop,350.0,250.0,4.0,,,,,,,,,magenta,square
0.0,3.0,3.0,0.0,6.0,6.0,828.6612439987948,4.0,1.0,phase_2,go,350.0,300.0,1.0,,,,,,,,,green,diamond
0.0,5.0,1.0,1.0,5.0,0.0,0.0,4.0,1.0,phase_2,stop,350.0,300.0,4.0,,,,,,,,,blue,triangle
0.0,5.0,1.0,1.0,6.0,6.0,731.8430800005444,4.0,1.0,phase_2,stop,400.0,300.0,3.0,,,,,,,,,blue,triangle
0.0,2.0,2.0,0.0,6.0,6.0,718.5337739992974,4.0,1.0,phase_2,go,400.0,250.0,1.0,,,,,,,,,cyan,cross
0.0,5.0,1.0,1.0,6.0,0.0,0.0,4.0,1.0,phase_2,stop,400.0,250.0,4.0,,,,,,,,,blue,triangle
0.0,8.0,4.0,1.0,5.0,5.0,729.1335579993756,4.0,1.0,phase_2,go,400.0,300.0,1.0,,,,,,,,,gray,flipped triangle
0.0,6.0,2.0,1.0,5.0,5.0,774.0819139999076,4.0,1.0,phase_2,go,400.0,300.0,1.0,,,,,,,,,magenta,square
0.0,4.0,4.0,0.0,6.0,6.0,605.9009100008552,4.0,1.0,phase_2,go,400.0,300.0,1.0,,,,,,,,,yellow,hexagon
0.0,4.0,4.0,0.0,5.0,5.0,559.7841360013263,4.0,1.0,phase_2,go,400.0,300.0,1.0,,,,,,,,,yellow,hexagon
0.0,1.0,1.0,0.0,6.0,6.0,671.9753429988486,4.0,1.0,phase_2,go,400.0,300.0,1.0,,,,,,,,,white,circle
0.0,5.0,1.0,1.0,6.0,0.0,0.0,4.0,1.0,phase_2,stop,400.0,300.0,4.0,,,,,,,,,blue,triangle
0.0,2.0,2.0,0.0,5.0,5.0,464.8276459993212,4.0,1.0,phase_2,go,400.0,350.0,1.0,,,,,,,,,cyan,cross
0.0,5.0,1.0,1.0,6.0,0.0,0.0,4.0,1.0,phase_2,stop,400.0,350.0,4.0,,,,,,,,,blue,triangle
0.0,4.0,4.0,0.0,6.0,6.0,373.1022699994355,4.0,1.0,phase_2,go,400.0,400.0,1.0,,,,,,,,,yellow,hexagon
0.0,6.0,2.0,1.0,5.0,5.0,570.9386230009841,4.0,1.0,phase_2,stop,400.0,400.0,3.0,,,,,,,,,magenta,square
0.0,4.0,4.0,0.0,6.0,6.0,662.406765999549,4.0,1.0,phase_2,go,350.0,400.0,1.0,,,,,,,,,yellow,hexagon
0.0,6.0,2.0,1.0,5.0,0.0,0.0,4.0,1.0,phase_2,stop,350.0,400.0,4.0,,,,,,,,,magenta,square
0.0,4.0,4.0,0.0,5.0,5.0,718.2317829992826,4.0,1.0,phase_2,go,400.0,400.0,1.0,,,,,,,,,yellow,hexagon
0.0,2.0,2.0,0.0,6.0,6.0,589.6595119993435,5.0,1.0,phase_2,go,400.0,400.0,1.0,,,,,,,,,cyan,cross
0.0,4.0,4.0,0.0,6.0,6.0,615.7106479986396,5.0,1.0,phase_2,go,400.0,400.0,1.0,,,,,,,,,yellow,hexagon
0.0,6.0,2.0,1.0,6.0,6.0,346.1207740001555,5.0,1.0,phase_2,stop,400.0,400.0,3.0,,,,,,,,,magenta,square
0.0,3.0,3.0,0.0,6.0,6.0,514.8580420009239,5.0,1.0,phase_2,go,400.0,350.0,1.0,,,,,,,,,green,diamond
0.0,8.0,4.0,1.0,6.0,0.0,0.0,5.0,1.0,phase_2,stop,400.0,350.0,4.0,,,,,,,,,gray,flipped triangle
0.0,3.0,3.0,0.0,5.0,5.0,562.9720899996755,5.0,1.0,phase_2,go,400.0,400.0,1.0,,,,,,,,,green,diamond
0.0,6.0,2.0,1.0,5.0,5.0,757.2467049994884,5.0,1.0,phase_2,go,400.0,400.0,1.0,,,,,,,,,magenta,square
0.0,6.0,2.0,1.0,6.0,6.0,327.378834999763,5.0,1.0,phase_2,stop,400.0,400.0,3.0,,,,,,,,,magenta,square
0.0,2.0,2.0,0.0,6.0,6.0,459.6315179987869,5.0,1.0,phase_2,go,400.0,350.0,1.0,,,,,,,,,cyan,cross
0.0,3.0,3.0,0.0,6.0,6.0,616.421545000776,5.0,1.0,phase_2,go,400.0,350.0,1.0,,,,,,,,,green,diamond
0.0,4.0,4.0,0.0,5.0,5.0,642.3128750011529,5.0,1.0,phase_2,go,400.0,350.0,1.0,,,,,,,,,yellow,hexagon
0.0,8.0,4.0,1.0,6.0,6.0,364.4861150005454,5.0,1.0,phase_2,go,400.0,350.0,1.0,,,,,,,,,gray,flipped triangle
0.0,3.0,3.0,0.0,5.0,5.0,560.6679119991895,5.0,1.0,phase_2,go,400.0,350.0,1.0,,,,,,,,,green,diamond
0.0,1.0,1.0,0.0,6.0,6.0,586.4138959987031,5.0,1.0,phase_2,go,400.0,350.0,1.0,,,,,,,,,white,circle
0.0,2.0,2.0,0.0,5.0,5.0,336.0018099992885,5.0,1.0,phase_2,go,400.0,350.0,1.0,,,,,,,,,cyan,cross
0.0,3.0,3.0,0.0,6.0,6.0,485.627182000826,5.0,1.0,phase_2,go,400.0,350.0,1.0,,,,,,,,,green,diamond
0.0,5.0,1.0,1.0,5.0,5.0,443.2460389998596,5.0,1.0,phase_2,stop,400.0,350.0,3.0,,,,,,,,,blue,triangle
0.0,2.0,2.0,0.0,6.0,6.0,401.5633919989341,5.0,1.0,phase_2,go,350.0,350.0,1.0,,,,,,,,,cyan,cross
0.0,4.0,4.0,0.0,6.0,6.0,411.3901389991952,5.0,1.0,phase_2,go,350.0,350.0,1.0,,,,,,,,,yellow,hexagon
0.0,8.0,4.0,1.0,6.0,6.0,390.0431210004171,5.0,1.0,phase_2,stop,350.0,350.0,3.0,,,,,,,,,gray,flipped triangle
0.0,7.0,3.0,1.0,6.0,6.0,335.7576259986672,5.0,1.0,phase_2,stop,350.0,300.0,3.0,,,,,,,,,orange,I
0.0,3.0,3.0,0.0,5.0,5.0,317.5057479984389,5.0,1.0,phase_2,go,350.0,250.0,1.0,,,,,,,,,green,diamond
0.0,2.0,2.0,0.0,6.0,6.0,299.4028939992859,5.0,1.0,phase_2,go,350.0,250.0,1.0,,,,,,,,,cyan,cross
0.0,3.0,3.0,0.0,6.0,6.0,253.7647070003004,5.0,1.0,phase_2,go,350.0,250.0,1.0,,,,,,,,,green,diamond
0.0,8.0,4.0,1.0,5.0,5.0,437.317007999809,5.0,1.0,phase_2,go,350.0,250.0,1.0,,,,,,,,,gray,flipped triangle
0.0,2.0,2.0,0.0,5.0,5.0,522.4130560000049,5.0,1.0,phase_2,go,350.0,250.0,1.0,,,,,,,,,cyan,cross
0.0,5.0,1.0,1.0,5.0,5.0,307.7398719997291,5.0,1.0,phase_2,stop,350.0,250.0,3.0,,,,,,,,,blue,triangle
0.0,3.0,3.0,0.0,6.0,6.0,205.3611620012816,5.0,1.0,phase_2,go,300.0,250.0,1.0,,,,,,,,,green,diamond
0.0,7.0,3.0,1.0,5.0,5.0,215.2327170006174,5.0,1.0,phase_2,go,300.0,250.0,1.0,,,,,,,,,orange,I
0.0,8.0,4.0,1.0,6.0,6.0,197.1894350008369,5.0,1.0,phase_2,stop,300.0,250.0,3.0,,,,,,,,,gray,flipped triangle
0.0,1.0,1.0,0.0,6.0,5.0,270.2570350011228,5.0,1.0,phase_2,go,300.0,200.0,2.0,,,,,,,,,white,circle
0.0,4.0,4.0,0.0,6.0,6.0,345.9029869991354,5.0,1.0,phase_2,go,300.0,200.0,1.0,,,,,,,,,yellow,hexagon
0.0,6.0,2.0,1.0,5.0,0.0,0.0,5.0,1.0,phase_2,stop,300.0,200.0,4.0,,,,,,,,,magenta,square
0.0,8.0,4.0,1.0,5.0,5.0,463.3002360005775,5.0,1.0,phase_2,stop,350.0,200.0,3.0,,,,,,,,,gray,flipped triangle
0.0,6.0,2.0,1.0,5.0,5.0,342.7626869997766,5.0,1.0,phase_2,stop,300.0,200.0,3.0,,,,,,,,,magenta,square
0.0,5.0,1.0,1.0,6.0,6.0,541.7207330010569,5.0,1.0,phase_2,go,250.0,200.0,1.0,,,,,,,,,blue,triangle
0.0,7.0,3.0,1.0,6.0,6.0,615.7321709997632,6.0,1.0,phase_2,go,250.0,200.0,1.0,,,,,,,,,orange,I
0.0,5.0,1.0,1.0,5.0,5.0,299.27709399999,6.0,1.0,phase_2,go,250.0,200.0,1.0,,,,,,,,,blue,triangle
0.0,4.0,4.0,0.0,5.0,5.0,327.2678800003632,6.0,1.0,phase_2,go,250.0,200.0,1.0,,,,,,,,,yellow,hexagon
0.0,1.0,1.0,0.0,6.0,6.0,234.2651930011925,6.0,1.0,phase_2,go,250.0,200.0,1.0,,,,,,,,,white,circle
0.0,3.0,3.0,0.0,6.0,6.0,261.7385730009118,6.0,1.0,phase_2,go,250.0,200.0,1.0,,,,,,,,,green,diamond
0.0,5.0,1.0,1.0,5.0,5.0,280.3274670004612,6.0,1.0,phase_2,stop,250.0,200.0,3.0,,,,,,,,,blue,triangle
0.0,6.0,2.0,1.0,6.0,6.0,262.2879479986295,6.0,1.0,phase_2,go,200.0,200.0,1.0,,,,,,,,,magenta,square
0.0,3.0,3.0,0.0,5.0,5.0,229.2772960008733,6.0,1.0,phase_2,go,200.0,200.0,1.0,,,,,,,,,green,diamond
0.0,5.0,1.0,1.0,5.0,5.0,336.0478739996324,6.0,1.0,phase_2,go,200.0,200.0,1.0,,,,,,,,,blue,triangle
0.0,5.0,1.0,1.0,6.0,6.0,298.9011879999452,6.0,1.0,phase_2,stop,200.0,200.0,3.0,,,,,,,,,blue,triangle
0.0,7.0,3.0,1.0,6.0,6.0,310.0108660000842,6.0,1.0,phase_2,stop,200.0,150.0,3.0,,,,,,,,,orange,I
0.0,1.0,1.0,0.0,5.0,5.0,242.918837999241,6.0,1.0,phase_2,go,200.0,100.0,1.0,,,,,,,,,white,circle
0.0,4.0,4.0,0.0,6.0,6.0,271.5332719999423,6.0,1.0,phase_2,go,200.0,100.0,1.0,,,,,,,,,yellow,hexagon
0.0,5.0,1.0,1.0,6.0,6.0,328.0039540004509,6.0,1.0,phase_2,go,200.0,100.0,1.0,,,,,,,,,blue,triangle
0.0,2.0,2.0,0.0,6.0,6.0,308.4157800003595,6.0,1.0,phase_2,go,200.0,100.0,1.0,,,,,,,,,cyan,cross
0.0,1.0,1.0,0.0,5.0,5.0,289.9006590014323,6.0,1.0,phase_2,go,200.0,100.0,1.0,,,,,,,,,white,circle
0.0,6.0,2.0,1.0,6.0,6.0,272.7375949998532,6.0,1.0,phase_2,stop,200.0,100.0,3.0,,,,,,,,,magenta,square
0.0,1.0,1.0,0.0,6.0,6.0,270.0427640011185,6.0,1.0,phase_2,go,200.0,50.0,1.0,,,,,,,,,white,circle
0.0,4.0,4.0,0.0,6.0,6.0,280.3784450006787,6.0,1.0,phase_2,go,200.0,50.0,1.0,,,,,,,,,yellow,hexagon
0.0,5.0,1.0,1.0,5.0,5.0,298.4655380005279,6.0,1.0,phase_2,go,200.0,50.0,1.0,,,,,,,,,blue,triangle
0.0,6.0,2.0,1.0,5.0,5.0,324.2061720011406,6.0,1.0,phase_2,stop,200.0,50.0,3.0,,,,,,,,,magenta,square
0.0,4.0,4.0,0.0,5.0,5.0,336.5563620009197,6.0,1.0,phase_2,go,150.0,50.0,1.0,,,,,,,,,yellow,hexagon
0.0,7.0,3.0,1.0,5.0,5.0,280.7347180005308,6.0,1.0,phase_2,stop,150.0,50.0,3.0,,,,,,,,,orange,I
0.0,5.0,1.0,1.0,5.0,0.0,0.0,6.0,1.0,phase_2,stop,100.0,50.0,4.0,,,,,,,,,blue,triangle
0.0,7.0,3.0,1.0,5.0,0.0,0.0,6.0,1.0,phase_2,stop,150.0,50.0,4.0,,,,,,,,,orange,I
0.0,1.0,1.0,0.0,5.0,5.0,504.42631199985044,6.0,1.0,phase_2,go,200.0,50.0,1.0,,,,,,,,,white,circle
0.0,8.0,4.0,1.0,5.0,5.0,417.181711000012,6.0,1.0,phase_2,stop,200.0,50.0,3.0,,,,,,,,,gray,flipped triangle
0.0,7.0,3.0,1.0,6.0,0.0,0.0,6.0,1.0,phase_2,stop,150.0,50.0,4.0,,,,,,,,,orange,I
0.0,3.0,3.0,0.0,6.0,6.0,353.3017820009263,6.0,1.0,phase_2,go,150.0,100.0,1.0,,,,,,,,,green,diamond
0.0,1.0,1.0,0.0,6.0,6.0,318.283528999018,6.0,1.0,phase_2,go,150.0,100.0,1.0,,,,,,,,,white,circle
0.0,4.0,4.0,0.0,6.0,6.0,373.5560080003779,6.0,1.0,phase_2,go,150.0,100.0,1.0,,,,,,,,,yellow,hexagon
0.0,1.0,1.0,0.0,6.0,6.0,279.2427439999301,6.0,1.0,phase_2,go,150.0,100.0,1.0,,,,,,,,,white,circle
0.0,8.0,4.0,1.0,6.0,6.0,305.1499079992936,6.0,1.0,phase_2,stop,150.0,100.0,3.0,,,,,,,,,gray,flipped triangle
0.0,6.0,2.0,1.0,6.0,0.0,0.0,6.0,1.0,phase_2,stop,150.0,50.0,4.0,,,,,,,,,magenta,square
0.0,3.0,3.0,0.0,5.0,5.0,336.4941270010604,6.0,1.0,phase_2,go,150.0,100.0,1.0,,,,,,,,,green,diamond
0.0,2.0,2.0,0.0,5.0,5.0,353.9267779997317,6.0,1.0,phase_2,go,150.0,100.0,1.0,,,,,,,,,cyan,cross
0.0,7.0,3.0,1.0,5.0,5.0,393.7082789998385,7.0,1.0,phase_2,stop,150.0,100.0,3.0,,,,,,,,,orange,I
0.0,4.0,4.0,0.0,6.0,6.0,307.402409000133,7.0,1.0,phase_2,go,100.0,100.0,1.0,,,,,,,,,yellow,hexagon
0.0,5.0,1.0,1.0,5.0,0.0,0.0,7.0,1.0,phase_2,stop,100.0,100.0,4.0,,,,,,,,,blue,triangle
0.0,5.0,1.0,1.0,6.0,0.0,0.0,7.0,1.0,phase_2,stop,150.0,100.0,4.0,,,,,,,,,blue,triangle
0.0,3.0,3.0,0.0,5.0,5.0,325.3253679995396,7.0,1.0,phase_2,go,150.0,150.0,1.0,,,,,,,,,green,diamond
0.0,7.0,3.0,1.0,6.0,0.0,0.0,7.0,1.0,phase_2,stop,150.0,150.0,4.0,,,,,,,,,orange,I
0.0,8.0,4.0,1.0,5.0,5.0,393.6567900000227,7.0,1.0,phase_2,go,150.0,200.0,1.0,,,,,,,,,gray,flipped triangle
0.0,1.0,1.0,0.0,6.0,6.0,383.5346399991977,7.0,1.0,phase_2,go,150.0,200.0,1.0,,,,,,,,,white,circle
0.0,6.0,2.0,1.0,6.0,6.0,384.4446160001098,7.0,1.0,phase_2,go,150.0,200.0,1.0,,,,,,,,,magenta,square
0.0,1.0,1.0,0.0,5.0,5.0,411.8802120010514,7.0,1.0,phase_2,go,150.0,200.0,1.0,,,,,,,,,white,circle
0.0,1.0,1.0,0.0,5.0,5.0,336.4073970005847,7.0,1.0,phase_2,go,150.0,200.0,1.0,,,,,,,,,white,circle
0.0,5.0,1.0,1.0,5.0,5.0,350.7702919996518,7.0,1.0,phase_2,stop,150.0,200.0,3.0,,,,,,,,,blue,triangle
0.0,2.0,2.0,0.0,6.0,6.0,364.4932610004616,7.0,1.0,phase_2,go,100.0,200.0,1.0,,,,,,,,,cyan,cross
0.0,7.0,3.0,1.0,6.0,6.0,365.7796249990497,7.0,1.0,phase_2,stop,100.0,200.0,3.0,,,,,,,,,orange,I
0.0,8.0,4.0,1.0,6.0,6.0,719.8050989991316,7.0,1.0,phase_2,go,100.0,150.0,1.0,,,,,,,,,gray,flipped triangle
0.0,1.0,1.0,0.0,6.0,6.0,417.9329529997631,7.0,1.0,phase_2,go,100.0,150.0,1.0,,,,,,,,,white,circle
0.0,3.0,3.0,0.0,5.0,5.0,550.866199999291,7.0,1.0,phase_2,go,100.0,150.0,1.0,,,,,,,,,green,diamond
0.0,1.0,1.0,0.0,5.0,5.0,551.428410999506,7.0,1.0,phase_2,go,100.0,150.0,1.0,,,,,,,,,white,circle
0.0,7.0,3.0,1.0,5.0,0.0,0.0,7.0,1.0,phase_2,stop,100.0,150.0,4.0,,,,,,,,,orange,I
0.0,6.0,2.0,1.0,5.0,5.0,420.739663999484,7.0,1.0,phase_2,go,150.0,150.0,1.0,,,,,,,,,magenta,square
0.0,1.0,1.0,0.0,5.0,5.0,354.84645500037,7.0,1.0,phase_2,go,150.0,150.0,1.0,,,,,,,,,white,circle
0.0,1.0,1.0,0.0,5.0,5.0,336.9691919997422,7.0,1.0,phase_2,go,150.0,150.0,1.0,,,,,,,,,white,circle
0.0,8.0,4.0,1.0,5.0,5.0,360.8885799985728,7.0,1.0,phase_2,stop,150.0,150.0,3.0,,,,,,,,,gray,flipped triangle
0.0,3.0,3.0,0.0,6.0,6.0,309.3027419999998,7.0,1.0,phase_2,go,100.0,150.0,1.0,,,,,,,,,green,diamond
0.0,8.0,4.0,1.0,6.0,0.0,0.0,7.0,1.0,phase_2,stop,100.0,150.0,4.0,,,,,,,,,gray,flipped triangle
0.0,8.0,4.0,1.0,6.0,6.0,397.4501910015533,7.0,1.0,phase_2,stop,100.0,200.0,3.0,,,,,,,,,gray,flipped triangle
0.0,5.0,1.0,1.0,6.0,6.0,345.3232319989183,7.0,1.0,phase_2,go,100.0,150.0,1.0,,,,,,,,,blue,triangle
0.0,7.0,3.0,1.0,5.0,5.0,355.7668279991048,7.0,1.0,phase_2,go,100.0,150.0,1.0,,,,,,,,,orange,I
0.0,7.0,3.0,1.0,6.0,0.0,0.0,7.0,1.0,phase_2,stop,100.0,150.0,4.0,,,,,,,,,orange,I
0.0,5.0,1.0,1.0,5.0,0.0,0.0,7.0,1.0,phase_2,stop,100.0,200.0,4.0,,,,,,,,,blue,triangle
0.0,2.0,2.0,0.0,6.0,6.0,355.0685400005022,7.0,1.0,phase_2,go,150.0,200.0,1.0,,,,,,,,,cyan,cross
0.0,5.0,1.0,1.0,6.0,0.0,0.0,7.0,1.0,phase_2,stop,150.0,200.0,4.0,,,,,,,,,blue,triangle
0.0,7.0,3.0,1.0,6.0,0.0,0.0,7.0,1.0,phase_2,stop,150.0,250.0,4.0,,,,,,,,,orange,I
0.0,4.0,4.0,0.0,5.0,5.0,579.4179169988638,7.0,1.0,phase_2,go,150.0,300.0,1.0,,,,,,,,,yellow,hexagon
0.0,2.0,2.0,0.0,5.0,5.0,411.5168219996121,7.0,1.0,phase_2,go,150.0,300.0,1.0,,,,,,,,,cyan,cross
0.0,6.0,2.0,1.0,6.0,0.0,0.0,7.0,1.0,phase_2,stop,150.0,300.0,4.0,,,,,,,,,magenta,square
0.0,8.0,4.0,1.0,6.0,6.0,567.5712089996523,8.0,1.0,phase_2,stop,150.0,350.0,3.0,,,,,,,,,gray,flipped triangle
0.0,2.0,2.0,0.0,5.0,5.0,524.1031260011368,8.0,1.0,phase_2,go,150.0,300.0,1.0,,,,,,,,,cyan,cross
0.0,8.0,4.0,1.0,5.0,0.0,0.0,8.0,1.0,phase_2,stop,150.0,300.0,4.0,,,,,,,,,gray,flipped triangle
0.0,8.0,4.0,1.0,5.0,0.0,0.0,8.0,1.0,phase_2,stop,200.0,300.0,4.0,,,,,,,,,gray,flipped triangle
0.0,7.0,3.0,1.0,5.0,0.0,0.0,8.0,1.0,phase_2,stop,250.0,300.0,4.0,,,,,,,,,orange,I
0.0,3.0,3.0,0.0,5.0,5.0,560.8240669989755,8.0,1.0,phase_2,go,300.0,300.0,1.0,,,,,,,,,green,diamond
0.0,6.0,2.0,1.0,6.0,6.0,473.3975979997922,8.0,1.0,phase_2,stop,300.0,300.0,3.0,,,,,,,,,magenta,square
0.0,7.0,3.0,1.0,6.0,0.0,0.0,8.0,1.0,phase_2,stop,300.0,250.0,4.0,,,,,,,,,orange,I
0.0,5.0,1.0,1.0,6.0,0.0,0.0,8.0,1.0,phase_2,stop,300.0,300.0,4.0,,,,,,,,,blue,triangle
0.0,7.0,3.0,1.0,6.0,6.0,624.4797609997477,8.0,1.0,phase_2,go,300.0,350.0,1.0,,,,,,,,,orange,I
0.0,7.0,3.0,1.0,5.0,0.0,0.0,8.0,1.0,phase_2,stop,300.0,350.0,4.0,,,,,,,,,orange,I
0.0,7.0,3.0,1.0,6.0,6.0,396.6837879997911,8.0,1.0,phase_2,stop,350.0,350.0,3.0,,,,,,,,,orange,I
0.0,3.0,3.0,0.0,5.0,5.0,501.82509499973094,8.0,1.0,phase_2,go,350.0,300.0,1.0,,,,,,,,,green,diamond
0.0,2.0,2.0,0.0,6.0,6.0,532.328082001186,8.0,1.0,phase_2,go,350.0,300.0,1.0,,,,,,,,,cyan,cross
0.0,3.0,3.0,0.0,6.0,6.0,530.848183998387,8.0,1.0,phase_2,go,350.0,300.0,1.0,,,,,,,,,green,diamond
0.0,1.0,1.0,0.0,5.0,5.0,392.9311199990479,8.0,1.0,phase_2,go,350.0,300.0,1.0,,,,,,,,,white,circle
0.0,2.0,2.0,0.0,6.0,6.0,476.413094000236,8.0,1.0,phase_2,go,350.0,300.0,1.0,,,,,,,,,cyan,cross
0.0,4.0,4.0,0.0,6.0,6.0,484.722712999428,8.0,1.0,phase_2,go,350.0,300.0,1.0,,,,,,,,,yellow,hexagon
0.0,5.0,1.0,1.0,5.0,5.0,473.1801959987933,8.0,1.0,phase_2,stop,350.0,300.0,3.0,,,,,,,,,blue,triangle
0.0,6.0,2.0,1.0,5.0,5.0,644.499422998706,8.0,1.0,phase_2,go,300.0,300.0,1.0,,,,,,,,,magenta,square
0.0,8.0,4.0,1.0,6.0,6.0,336.6268779991515,8.0,1.0,phase_2,stop,300.0,300.0,3.0,,,,,,,,,gray,flipped triangle
0.0,6.0,2.0,1.0,6.0,0.0,0.0,8.0,1.0,phase_2,stop,300.0,250.0,4.0,,,,,,,,,magenta,square
0.0,4.0,4.0,0.0,6.0,6.0,570.3212509997684,8.0,1.0,phase_2,go,300.0,300.0,1.0,,,,,,,,,yellow,hexagon
0.0,4.0,4.0,0.0,5.0,5.0,449.4085570004245,8.0,1.0,phase_2,go,300.0,300.0,1.0,,,,,,,,,yellow,hexagon
0.0,7.0,3.0,1.0,6.0,0.0,0.0,8.0,1.0,phase_2,stop,300.0,300.0,4.0,,,,,,,,,orange,I
0.0,5.0,1.0,1.0,6.0,6.0,430.6495639993954,8.0,1.0,phase_2,stop,300.0,350.0,3.0,,,,,,,,,blue,triangle
0.0,1.0,1.0,0.0,6.0,6.0,505.07190999996965,8.0,1.0,phase_2,go,300.0,300.0,1.0,,,,,,,,,white,circle
0.0,3.0,3.0,0.0,5.0,5.0,364.417056000093,8.0,1.0,phase_2,go,300.0,300.0,1.0,,,,,,,,,green,diamond
0.0,6.0,2.0,1.0,6.0,6.0,439.4463339995127,8.0,1.0,phase_2,stop,300.0,300.0,3.0,,,,,,,,,magenta,square
0.0,8.0,4.0,1.0,6.0,6.0,425.071822000973,8.0,1.0,phase_2,stop,300.0,250.0,3.0,,,,,,,,,gray,flipped triangle
0.0,4.0,4.0,0.0,5.0,5.0,466.077488999872,8.0,1.0,phase_2,go,300.0,200.0,1.0,,,,,,,,,yellow,hexagon
0.0,8.0,4.0,1.0,5.0,5.0,497.2748229993158,8.0,1.0,phase_2,go,300.0,200.0,1.0,,,,,,,,,gray,flipped triangle
0.0,3.0,3.0,0.0,5.0,5.0,570.1965510015725,8.0,1.0,phase_2,go,300.0,200.0,1.0,,,,,,,,,green,diamond
0.0,3.0,3.0,0.0,6.0,6.0,502.01692399969033,8.0,1.0,phase_2,go,300.0,200.0,1.0,,,,,,,,,green,diamond
0.0,3.0,3.0,0.0,6.0,6.0,559.7851069996977,8.0,1.0,phase_2,go,300.0,200.0,1.0,,,,,,,,,green,diamond
0.0,2.0,2.0,0.0,6.0,6.0,493.5581370009458,8.0,1.0,phase_2,go,300.0,200.0,1.0,,,,,,,,,cyan,cross
0.0,6.0,2.0,1.0,7.0,3.0,2580.97303500108,1.0,1.0,phase_3,,,,,135.0,1.0,405.0,540.0,135.0,270.0,810.0,675.0,magenta,square
0.0,5.0,1.0,1.0,7.0,6.0,685.3377949992137,1.0,1.0,phase_3,,,,,462.0,3.0,770.0,308.0,924.0,154.0,616.0,462.0,blue,triangle
0.0,2.0,2.0,0.0,7.0,1.0,1443.7150900012057,1.0,1.0,phase_3,,,,,675.0,5.0,675.0,810.0,135.0,540.0,405.0,270.0,cyan,cross
0.0,1.0,1.0,0.0,7.0,1.0,1569.549002999338,1.0,1.0,phase_3,,,,,580.0,5.0,580.0,696.0,116.0,464.0,348.0,232.0,white,circle
0.0,8.0,4.0,1.0,7.0,3.0,2143.1123519996618,1.0,1.0,phase_3,,,,,405.0,3.0,810.0,270.0,405.0,675.0,540.0,135.0,gray,flipped triangle
0.0,4.0,4.0,0.0,7.0,2.0,1817.6009420003536,1.0,1.0,phase_3,,,,,135.0,1.0,675.0,135.0,270.0,405.0,540.0,810.0,yellow,hexagon
0.0,3.0,3.0,0.0,7.0,3.0,1221.5893900010997,1.0,1.0,phase_3,,,,,232.0,2.0,696.0,116.0,232.0,580.0,348.0,464.0,green,diamond
0.0,8.0,4.0,1.0,7.0,6.0,1067.7708900002472,1.0,1.0,phase_3,,,,,464.0,4.0,232.0,116.0,696.0,348.0,580.0,464.0,gray,flipped triangle
0.0,1.0,1.0,0.0,7.0,2.0,1519.192853000277,1.0,1.0,phase_3,,,,,1152.0,6.0,960.0,1152.0,384.0,576.0,192.0,768.0,white,circle
0.0,2.0,2.0,0.0,7.0,5.0,3772.283099000561,1.0,1.0,phase_3,,,,,519.0,3.0,346.0,173.0,1038.0,692.0,519.0,865.0,cyan,cross
0.0,1.0,1.0,0.0,7.0,3.0,2128.733524999916,1.0,1.0,phase_3,,,,,692.0,4.0,865.0,1038.0,692.0,173.0,519.0,346.0,white,circle
0.0,3.0,3.0,0.0,7.0,5.0,1429.4071559997974,1.0,1.0,phase_3,,,,,768.0,4.0,192.0,960.0,576.0,384.0,768.0,1152.0,green,diamond
0.0,2.0,2.0,0.0,7.0,4.0,1268.1413080008497,1.0,1.0,phase_3,,,,,540.0,4.0,405.0,135.0,675.0,540.0,810.0,270.0,cyan,cross
0.0,2.0,2.0,0.0,7.0,3.0,2340.492453000479,1.0,1.0,phase_3,,,,,576.0,3.0,960.0,384.0,576.0,192.0,768.0,1152.0,cyan,cross
0.0,3.0,3.0,0.0,7.0,1.0,1491.5808639998431,1.0,1.0,phase_3,,,,,576.0,3.0,576.0,1152.0,960.0,384.0,192.0,768.0,green,diamond
0.0,7.0,3.0,1.0,7.0,6.0,1167.4665310001728,1.0,1.0,phase_3,,,,,173.0,1.0,346.0,692.0,1038.0,865.0,519.0,173.0,orange,I
0.0,5.0,1.0,1.0,7.0,3.0,1454.510396999467,1.0,1.0,phase_3,,,,,580.0,5.0,348.0,232.0,580.0,464.0,116.0,696.0,blue,triangle
0.0,2.0,2.0,0.0,7.0,2.0,1835.391327000252,1.0,1.0,phase_3,,,,,696.0,6.0,464.0,696.0,580.0,348.0,116.0,232.0,cyan,cross
0.0,4.0,4.0,0.0,7.0,1.0,1212.671457000397,1.0,1.0,phase_3,,,,,540.0,4.0,540.0,810.0,675.0,405.0,270.0,135.0,yellow,hexagon
0.0,1.0,1.0,0.0,7.0,4.0,1547.3356940001397,1.0,1.0,phase_3,,,,,173.0,1.0,692.0,1038.0,519.0,173.0,865.0,346.0,white,circle
0.0,6.0,2.0,1.0,7.0,5.0,899.2444230007095,2.0,1.0,phase_3,,,,,308.0,2.0,462.0,616.0,770.0,154.0,308.0,924.0,magenta,square
0.0,4.0,4.0,0.0,7.0,3.0,1329.7592229992006,2.0,1.0,phase_3,,,,,464.0,4.0,696.0,232.0,464.0,116.0,580.0,348.0,yellow,hexagon
0.0,6.0,2.0,1.0,7.0,3.0,1799.4649800002662,2.0,1.0,phase_3,,,,,348.0,3.0,464.0,696.0,348.0,232.0,580.0,116.0,magenta,square
0.0,2.0,2.0,0.0,7.0,6.0,1478.401391999796,2.0,1.0,phase_3,,,,,960.0,5.0,384.0,768.0,192.0,576.0,1152.0,960.0,cyan,cross
0.0,8.0,4.0,1.0,7.0,5.0,1290.9809289994882,2.0,1.0,phase_3,,,,,154.0,1.0,462.0,924.0,308.0,770.0,154.0,616.0,gray,flipped triangle
0.0,8.0,4.0,1.0,7.0,4.0,1191.7556289990898,2.0,1.0,phase_3,,,,,580.0,5.0,464.0,232.0,348.0,580.0,116.0,696.0,gray,flipped triangle
0.0,5.0,1.0,1.0,7.0,5.0,2519.808311999441,2.0,1.0,phase_3,,,,,346.0,2.0,865.0,519.0,173.0,1038.0,346.0,692.0,blue,triangle
0.0,2.0,2.0,0.0,7.0,6.0,882.1395519989892,2.0,1.0,phase_3,,,,,464.0,4.0,580.0,348.0,232.0,696.0,116.0,464.0,cyan,cross
0.0,6.0,2.0,1.0,7.0,1.0,1564.376395999716,2.0,1.0,phase_3,,,,,192.0,1.0,192.0,768.0,384.0,576.0,960.0,1152.0,magenta,square
0.0,7.0,3.0,1.0,7.0,4.0,2215.555851000317,2.0,1.0,phase_3,,,,,1152.0,6.0,576.0,192.0,384.0,1152.0,960.0,768.0,orange,I
0.0,6.0,2.0,1.0,7.0,5.0,1343.680570998913,2.0,1.0,phase_3,,,,,348.0,3.0,696.0,580.0,232.0,464.0,348.0,116.0,magenta,square
0.0,6.0,2.0,1.0,7.0,4.0,3159.229544999107,2.0,1.0,phase_3,,,,,270.0,2.0,135.0,405.0,810.0,270.0,540.0,675.0,magenta,square
0.0,1.0,1.0,0.0,7.0,3.0,1251.299908000874,2.0,1.0,phase_3,,,,,810.0,6.0,270.0,540.0,810.0,405.0,135.0,675.0,white,circle
0.0,7.0,3.0,1.0,7.0,5.0,1297.3242180014497,2.0,1.0,phase_3,,,,,135.0,1.0,675.0,270.0,540.0,810.0,135.0,405.0,orange,I
0.0,5.0,1.0,1.0,7.0,1.0,716.0190739996324,2.0,1.0,phase_3,,,,,692.0,4.0,692.0,865.0,346.0,519.0,173.0,1038.0,blue,triangle
0.0,5.0,1.0,1.0,7.0,3.0,934.3368289992212,2.0,1.0,phase_3,,,,,384.0,2.0,960.0,192.0,384.0,576.0,1152.0,768.0,blue,triangle
0.0,3.0,3.0,0.0,7.0,5.0,1038.3682480005518,2.0,1.0,phase_3,,,,,135.0,1.0,270.0,540.0,405.0,810.0,135.0,675.0,green,diamond
0.0,8.0,4.0,1.0,7.0,6.0,855.3348749992438,2.0,1.0,phase_3,,,,,1038.0,6.0,346.0,692.0,173.0,865.0,519.0,1038.0,gray,flipped triangle
0.0,4.0,4.0,0.0,7.0,4.0,1185.749828000553,2.0,1.0,phase_3,,,,,1038.0,6.0,519.0,173.0,865.0,1038.0,346.0,692.0,yellow,hexagon
0.0,7.0,3.0,1.0,7.0,4.0,1059.698622999349,2.0,1.0,phase_3,,,,,192.0,1.0,768.0,576.0,960.0,192.0,1152.0,384.0,orange,I
0.0,6.0,2.0,1.0,7.0,2.0,955.5285699989328,3.0,1.0,phase_3,,,,,576.0,3.0,1152.0,576.0,768.0,192.0,384.0,960.0,magenta,square
0.0,6.0,2.0,1.0,7.0,4.0,1149.3890429992462,3.0,1.0,phase_3,,,,,692.0,4.0,519.0,346.0,1038.0,692.0,865.0,173.0,magenta,square
0.0,2.0,2.0,0.0,7.0,6.0,790.4652249999344,3.0,1.0,phase_3,,,,,308.0,2.0,462.0,154.0,924.0,770.0,616.0,308.0,cyan,cross
0.0,4.0,4.0,0.0,7.0,1.0,667.8988410003512,3.0,1.0,phase_3,,,,,960.0,5.0,960.0,768.0,384.0,576.0,1152.0,192.0,yellow,hexagon
0.0,3.0,3.0,0.0,7.0,2.0,1185.6531639987224,3.0,1.0,phase_3,,,,,519.0,3.0,346.0,519.0,1038.0,692.0,173.0,865.0,green,diamond
0.0,3.0,3.0,0.0,7.0,1.0,2453.14642700032,3.0,1.0,phase_3,,,,,462.0,3.0,462.0,770.0,616.0,924.0,154.0,308.0,green,diamond
0.0,3.0,3.0,0.0,7.0,5.0,1306.869784999435,3.0,1.0,phase_3,,,,,540.0,4.0,135.0,810.0,405.0,675.0,540.0,270.0,green,diamond
0.0,1.0,1.0,0.0,7.0,6.0,892.5679470012255,3.0,1.0,phase_3,,,,,154.0,1.0,616.0,770.0,462.0,924.0,308.0,154.0,white,circle
0.0,8.0,4.0,1.0,7.0,4.0,974.4175209998502,3.0,1.0,phase_3,,,,,308.0,2.0,154.0,770.0,924.0,308.0,616.0,462.0,gray,flipped triangle
0.0,1.0,1.0,0.0,7.0,2.0,1150.2055790006125,3.0,1.0,phase_3,,,,,464.0,4.0,232.0,464.0,348.0,696.0,116.0,580.0,white,circle
0.0,7.0,3.0,1.0,7.0,3.0,1650.102657999014,3.0,1.0,phase_3,,,,,675.0,5.0,405.0,810.0,675.0,540.0,135.0,270.0,orange,I
0.0,4.0,4.0,0.0,7.0,2.0,1214.5435210004507,3.0,1.0,phase_3,,,,,116.0,1.0,696.0,116.0,464.0,232.0,580.0,348.0,yellow,hexagon
0.0,6.0,2.0,1.0,7.0,3.0,1222.9624789997615,3.0,1.0,phase_3,,,,,770.0,5.0,308.0,616.0,770.0,154.0,462.0,924.0,magenta,square
0.0,1.0,1.0,0.0,7.0,5.0,853.2895219996135,3.0,1.0,phase_3,,,,,770.0,5.0,154.0,308.0,924.0,462.0,770.0,616.0,white,circle
0.0,8.0,4.0,1.0,7.0,6.0,612.8995119997853,3.0,1.0,phase_3,,,,,192.0,1.0,384.0,576.0,768.0,960.0,1152.0,192.0,gray,flipped triangle
0.0,4.0,4.0,0.0,7.0,2.0,945.313468999302,3.0,1.0,phase_3,,,,,924.0,6.0,770.0,924.0,308.0,616.0,154.0,462.0,yellow,hexagon
0.0,3.0,3.0,0.0,7.0,4.0,955.9691200011002,3.0,1.0,phase_3,,,,,692.0,4.0,173.0,865.0,1038.0,692.0,519.0,346.0,green,diamond
0.0,7.0,3.0,1.0,7.0,5.0,687.5963279999269,3.0,1.0,phase_3,,,,,865.0,5.0,1038.0,692.0,346.0,173.0,865.0,519.0,orange,I
0.0,1.0,1.0,0.0,7.0,2.0,1246.181575999799,3.0,1.0,phase_3,,,,,768.0,4.0,192.0,768.0,1152.0,576.0,384.0,960.0,white,circle
0.0,7.0,3.0,1.0,7.0,4.0,874.6630940004252,3.0,1.0,phase_3,,,,,464.0,4.0,232.0,580.0,696.0,464.0,116.0,348.0,orange,I
0.0,2.0,2.0,0.0,7.0,3.0,1512.294379001105,4.0,1.0,phase_3,,,,,1038.0,6.0,692.0,865.0,1038.0,173.0,519.0,346.0,cyan,cross
0.0,7.0,3.0,1.0,7.0,1.0,686.389053998937,4.0,1.0,phase_3,,,,,348.0,3.0,348.0,696.0,464.0,232.0,580.0,116.0,orange,I
0.0,7.0,3.0,1.0,7.0,1.0,1780.680753001434,4.0,1.0,phase_3,,,,,308.0,2.0,308.0,154.0,924.0,770.0,616.0,462.0,orange,I
0.0,6.0,2.0,1.0,7.0,3.0,788.0875029986782,4.0,1.0,phase_3,,,,,1038.0,6.0,173.0,519.0,1038.0,346.0,692.0,865.0,magenta,square
0.0,5.0,1.0,1.0,7.0,5.0,881.3713429990457,4.0,1.0,phase_3,,,,,675.0,5.0,810.0,540.0,270.0,405.0,675.0,135.0,blue,triangle
0.0,7.0,3.0,1.0,7.0,1.0,1375.1528339998913,4.0,1.0,phase_3,,,,,308.0,2.0,308.0,154.0,770.0,462.0,924.0,616.0,orange,I
0.0,4.0,4.0,0.0,7.0,4.0,999.7817920011584,4.0,1.0,phase_3,,,,,924.0,6.0,308.0,770.0,616.0,924.0,154.0,462.0,yellow,hexagon
0.0,8.0,4.0,1.0,7.0,5.0,977.413037999213,4.0,1.0,phase_3,,,,,192.0,1.0,576.0,384.0,1152.0,768.0,192.0,960.0,gray,flipped triangle
0.0,5.0,1.0,1.0,7.0,6.0,2818.125836000036,4.0,1.0,phase_3,,,,,770.0,5.0,154.0,308.0,462.0,924.0,616.0,770.0,blue,triangle
0.0,8.0,4.0,1.0,7.0,5.0,1099.1444109986332,4.0,1.0,phase_3,,,,,346.0,2.0,519.0,173.0,1038.0,865.0,346.0,692.0,gray,flipped triangle
0.0,1.0,1.0,0.0,7.0,4.0,759.2621399999189,4.0,1.0,phase_3,,,,,540.0,4.0,270.0,810.0,135.0,540.0,675.0,405.0,white,circle
0.0,4.0,4.0,0.0,7.0,5.0,974.0479680003772,4.0,1.0,phase_3,,,,,1152.0,6.0,384.0,768.0,192.0,960.0,1152.0,576.0,yellow,hexagon
0.0,8.0,4.0,1.0,7.0,3.0,1308.5019680002006,4.0,1.0,phase_3,,,,,135.0,1.0,405.0,675.0,135.0,270.0,810.0,540.0,gray,flipped triangle
0.0,5.0,1.0,1.0,7.0,2.0,1606.5100959986012,4.0,1.0,phase_3,,,,,576.0,3.0,384.0,576.0,960.0,1152.0,192.0,768.0,blue,triangle
0.0,4.0,4.0,0.0,7.0,5.0,1512.611645999641,4.0,1.0,phase_3,,,,,519.0,3.0,865.0,173.0,346.0,692.0,519.0,1038.0,yellow,hexagon
0.0,5.0,1.0,1.0,7.0,6.0,788.8438219997624,4.0,1.0,phase_3,,,,,116.0,1.0,232.0,464.0,348.0,580.0,696.0,116.0,blue,triangle
0.0,5.0,1.0,1.0,7.0,5.0,1710.0238279999758,4.0,1.0,phase_3,,,,,135.0,1.0,810.0,405.0,540.0,675.0,135.0,270.0,blue,triangle
0.0,3.0,3.0,0.0,7.0,3.0,1624.9635849999322,4.0,1.0,phase_3,,,,,232.0,2.0,580.0,464.0,232.0,116.0,696.0,348.0,green,diamond
0.0,2.0,2.0,0.0,7.0,3.0,1048.8823809992027,4.0,1.0,phase_3,,,,,616.0,4.0,924.0,154.0,616.0,770.0,308.0,462.0,cyan,cross
0.0,3.0,3.0,0.0,7.0,2.0,1003.6956959993404,4.0,1.0,phase_3,,,,,154.0,1.0,308.0,154.0,616.0,770.0,924.0,462.0,green,diamond
