raw_reward_magnitude,stim_reward,stepwise_reward_magnitude,paired_with_stopping,stim_location,response,reaction_time,block,num_trial_presentations,which_phase,stop_signal_trial_type,left_SSD,right_SSD,accuracy,chosen_bidding_amount,chosen_bidding_level,possible_bid_1,possible_bid_2,possible_bid_3,possible_bid_4,possible_bid_5,possible_bid_6,color_text,shape_text
142.0,1.0,0.5,0.0,2.0,2.0,432.0964799999274,1.0,1.0,phase_1,,,,,,,,,,,,,gray,I
151.0,5.0,0.5,1.0,1.0,1.0,309.5581030001995,1.0,1.0,phase_1,,,,,,,,,,,,,white,cross
0.0,8.0,0.0,1.0,2.0,2.0,439.8916889999782,1.0,1.0,phase_1,,,,,,,,,,,,,blue,hexagon
1320.0,8.0,4.0,1.0,3.0,3.0,340.1222519996736,1.0,1.0,phase_1,,,,,,,,,,,,,blue,hexagon
343.0,2.0,1.0,0.0,4.0,4.0,371.2151610002365,1.0,1.0,phase_1,,,,,,,,,,,,,green,flipped triangle
323.0,6.0,1.0,1.0,3.0,3.0,369.179239999994,1.0,1.0,phase_1,,,,,,,,,,,,,yellow,triangle
330.0,6.0,1.0,1.0,1.0,1.0,357.254052999906,1.0,1.0,phase_1,,,,,,,,,,,,,yellow,triangle
340.0,6.0,1.0,1.0,4.0,4.0,368.0509929999971,1.0,1.0,phase_1,,,,,,,,,,,,,yellow,triangle
0.0,1.0,0.0,0.0,4.0,4.0,376.2058629999956,1.0,1.0,phase_1,,,,,,,,,,,,,gray,I
332.0,6.0,1.0,1.0,3.0,3.0,338.3555270002034,1.0,1.0,phase_1,,,,,,,,,,,,,yellow,triangle
0.0,7.0,0.0,1.0,4.0,4.0,352.6290680001693,1.0,1.0,phase_1,,,,,,,,,,,,,orange,diamond
634.0,3.0,2.0,0.0,4.0,4.0,339.3397380000351,1.0,1.0,phase_1,,,,,,,,,,,,,cyan,square
174.0,1.0,0.5,0.0,4.0,4.0,304.5003969996287,1.0,1.0,phase_1,,,,,,,,,,,,,gray,I
158.0,1.0,0.5,0.0,3.0,3.0,319.5508699996026,1.0,1.0,phase_1,,,,,,,,,,,,,gray,I
1324.0,8.0,4.0,1.0,4.0,4.0,318.5972629999014,1.0,1.0,phase_1,,,,,,,,,,,,,blue,hexagon
645.0,3.0,2.0,0.0,4.0,4.0,291.3603239999247,1.0,1.0,phase_1,,,,,,,,,,,,,cyan,square
324.0,6.0,1.0,1.0,4.0,4.0,285.3068960002929,1.0,1.0,phase_1,,,,,,,,,,,,,yellow,triangle
1319.0,8.0,4.0,1.0,2.0,2.0,488.2000659999903,1.0,2.0,phase_1,,,,,,,,,,,,,blue,hexagon
185.0,1.0,0.5,0.0,1.0,1.0,456.1191380003038,1.0,1.0,phase_1,,,,,,,,,,,,,gray,I
172.0,1.0,0.5,0.0,3.0,3.0,510.6333740000082,1.0,1.0,phase_1,,,,,,,,,,,,,gray,I
0.0,1.0,0.0,0.0,4.0,4.0,348.0416819998027,1.0,1.0,phase_1,,,,,,,,,,,,,gray,I
638.0,3.0,2.0,0.0,1.0,1.0,384.0289189997747,1.0,1.0,phase_1,,,,,,,,,,,,,cyan,square
0.0,6.0,0.0,1.0,2.0,2.0,449.298120000094,1.0,1.0,phase_1,,,,,,,,,,,,,yellow,triangle
1301.0,8.0,4.0,1.0,1.0,1.0,310.5582130001494,1.0,1.0,phase_1,,,,,,,,,,,,,blue,hexagon
652.0,3.0,2.0,0.0,4.0,4.0,601.5465800001039,1.0,1.0,phase_1,,,,,,,,,,,,,cyan,square
141.0,5.0,0.5,1.0,4.0,4.0,375.2497699997548,1.0,1.0,phase_1,,,,,,,,,,,,,white,cross
163.0,1.0,0.5,0.0,1.0,1.0,412.6581400000759,1.0,1.0,phase_1,,,,,,,,,,,,,gray,I
0.0,6.0,0.0,1.0,1.0,1.0,319.7292949998882,1.0,1.0,phase_1,,,,,,,,,,,,,yellow,triangle
1298.0,4.0,4.0,0.0,3.0,3.0,376.1372409999239,1.0,1.0,phase_1,,,,,,,,,,,,,magenta,circle
670.0,7.0,2.0,1.0,1.0,1.0,374.8139929998615,1.0,1.0,phase_1,,,,,,,,,,,,,orange,diamond
340.0,2.0,1.0,0.0,1.0,1.0,348.8597890000164,1.0,1.0,phase_1,,,,,,,,,,,,,green,flipped triangle
311.0,2.0,1.0,0.0,3.0,3.0,395.1844279999932,1.0,1.0,phase_1,,,,,,,,,,,,,green,flipped triangle
672.0,3.0,2.0,0.0,3.0,3.0,394.2891440001403,1.0,1.0,phase_1,,,,,,,,,,,,,cyan,square
0.0,7.0,0.0,1.0,3.0,3.0,367.9919950000112,1.0,1.0,phase_1,,,,,,,,,,,,,orange,diamond
0.0,2.0,0.0,0.0,1.0,1.0,347.775766000268,1.0,1.0,phase_1,,,,,,,,,,,,,green,flipped triangle
638.0,7.0,2.0,1.0,2.0,2.0,384.1682350002884,1.0,1.0,phase_1,,,,,,,,,,,,,orange,diamond
0.0,2.0,0.0,0.0,2.0,2.0,488.5748189999503,1.0,1.0,phase_1,,,,,,,,,,,,,green,flipped triangle
628.0,3.0,2.0,0.0,4.0,4.0,384.7890530000768,1.0,1.0,phase_1,,,,,,,,,,,,,cyan,square
649.0,3.0,2.0,0.0,1.0,1.0,356.8570200000067,1.0,1.0,phase_1,,,,,,,,,,,,,cyan,square
0.0,4.0,0.0,0.0,4.0,4.0,329.4238640000912,1.0,1.0,phase_1,,,,,,,,,,,,,magenta,circle
325.0,2.0,1.0,0.0,2.0,2.0,412.1134779998101,1.0,1.0,phase_1,,,,,,,,,,,,,green,flipped triangle
656.0,3.0,2.0,0.0,4.0,4.0,347.718334000092,1.0,1.0,phase_1,,,,,,,,,,,,,cyan,square
335.0,2.0,1.0,0.0,4.0,4.0,357.8295789998265,1.0,1.0,phase_1,,,,,,,,,,,,,green,flipped triangle
1309.0,4.0,4.0,0.0,1.0,1.0,358.1264839999676,1.0,1.0,phase_1,,,,,,,,,,,,,magenta,circle
628.0,7.0,2.0,1.0,4.0,4.0,385.8221150003373,1.0,1.0,phase_1,,,,,,,,,,,,,orange,diamond
1320.0,8.0,4.0,1.0,4.0,4.0,338.579352999659,1.0,1.0,phase_1,,,,,,,,,,,,,blue,hexagon
307.0,2.0,1.0,0.0,3.0,3.0,365.898885000206,1.0,1.0,phase_1,,,,,,,,,,,,,green,flipped triangle
1312.0,4.0,4.0,0.0,2.0,2.0,430.7089069998255,1.0,1.0,phase_1,,,,,,,,,,,,,magenta,circle
162.0,1.0,0.5,0.0,4.0,4.0,450.9866039998087,1.0,1.0,phase_1,,,,,,,,,,,,,gray,I
331.0,2.0,1.0,0.0,3.0,3.0,394.258789000105,1.0,1.0,phase_1,,,,,,,,,,,,,green,flipped triangle
154.0,1.0,0.5,0.0,4.0,4.0,345.814806999897,1.0,1.0,phase_1,,,,,,,,,,,,,gray,I
346.0,2.0,1.0,0.0,4.0,4.0,403.1020149996038,1.0,1.0,phase_1,,,,,,,,,,,,,green,flipped triangle
330.0,2.0,1.0,0.0,2.0,2.0,461.6441580001265,1.0,1.0,phase_1,,,,,,,,,,,,,green,flipped triangle
0.0,2.0,0.0,0.0,4.0,4.0,330.3755389997604,1.0,1.0,phase_1,,,,,,,,,,,,,green,flipped triangle
1277.0,4.0,4.0,0.0,4.0,4.0,300.631482999961,1.0,1.0,phase_1,,,,,,,,,,,,,magenta,circle
668.0,7.0,2.0,1.0,2.0,2.0,382.6248780001151,1.0,1.0,phase_1,,,,,,,,,,,,,orange,diamond
0.0,1.0,0.0,0.0,4.0,4.0,365.5072840001594,1.0,1.0,phase_1,,,,,,,,,,,,,gray,I
0.0,5.0,0.0,1.0,3.0,3.0,347.1114740000303,1.0,1.0,phase_1,,,,,,,,,,,,,white,cross
0.0,8.0,0.0,1.0,4.0,4.0,329.7946840002623,1.0,1.0,phase_1,,,,,,,,,,,,,blue,hexagon
668.0,7.0,2.0,1.0,4.0,4.0,301.5048519996526,1.0,1.0,phase_1,,,,,,,,,,,,,orange,diamond
1289.0,4.0,4.0,0.0,2.0,2.0,383.8426020001861,1.0,1.0,phase_1,,,,,,,,,,,,,magenta,circle
1284.0,8.0,4.0,1.0,1.0,1.0,469.4249290000698,1.0,1.0,phase_1,,,,,,,,,,,,,blue,hexagon
659.0,7.0,2.0,1.0,1.0,1.0,365.2499039999384,1.0,1.0,phase_1,,,,,,,,,,,,,orange,diamond
300.0,2.0,1.0,0.0,2.0,2.0,516.9344949999868,1.0,1.0,phase_1,,,,,,,,,,,,,green,flipped triangle
148.0,5.0,0.5,1.0,1.0,1.0,514.6811750000779,1.0,1.0,phase_1,,,,,,,,,,,,,white,cross
174.0,1.0,0.5,0.0,4.0,4.0,356.1441940000804,1.0,1.0,phase_1,,,,,,,,,,,,,gray,I
630.0,3.0,2.0,0.0,4.0,4.0,346.9643940002243,1.0,1.0,phase_1,,,,,,,,,,,,,cyan,square
0.0,5.0,0.0,1.0,2.0,2.0,365.3817560002608,1.0,1.0,phase_1,,,,,,,,,,,,,white,cross
1318.0,4.0,4.0,0.0,3.0,3.0,376.0684769999898,1.0,1.0,phase_1,,,,,,,,,,,,,magenta,circle
167.0,1.0,0.5,0.0,2.0,2.0,347.1968599997126,1.0,1.0,phase_1,,,,,,,,,,,,,gray,I
1287.0,8.0,4.0,1.0,2.0,2.0,374.5864489997075,1.0,1.0,phase_1,,,,,,,,,,,,,blue,hexagon
661.0,3.0,2.0,0.0,3.0,3.0,486.3641859997187,1.0,1.0,phase_1,,,,,,,,,,,,,cyan,square
150.0,1.0,0.5,0.0,3.0,3.0,364.4719139997505,1.0,1.0,phase_1,,,,,,,,,,,,,gray,I
661.0,7.0,2.0,1.0,3.0,3.0,367.5255269999979,1.0,1.0,phase_1,,,,,,,,,,,,,orange,diamond
1314.0,4.0,4.0,0.0,3.0,3.0,397.6311679998616,1.0,1.0,phase_1,,,,,,,,,,,,,magenta,circle
324.0,2.0,1.0,0.0,4.0,4.0,384.7787029999381,1.0,1.0,phase_1,,,,,,,,,,,,,green,flipped triangle
336.0,2.0,1.0,0.0,3.0,3.0,383.3371180003269,1.0,1.0,phase_1,,,,,,,,,,,,,green,flipped triangle
643.0,3.0,2.0,0.0,3.0,3.0,336.2341600000036,1.0,1.0,phase_1,,,,,,,,,,,,,cyan,square
1314.0,8.0,4.0,1.0,4.0,4.0,336.7566329998226,1.0,1.0,phase_1,,,,,,,,,,,,,blue,hexagon
175.0,1.0,0.5,0.0,1.0,1.0,373.2324790003076,1.0,1.0,phase_1,,,,,,,,,,,,,gray,I
1314.0,8.0,4.0,1.0,3.0,3.0,354.5162880000134,1.0,1.0,phase_1,,,,,,,,,,,,,blue,hexagon
307.0,6.0,1.0,1.0,3.0,3.0,337.3503000002529,1.0,1.0,phase_1,,,,,,,,,,,,,yellow,triangle
309.0,6.0,1.0,1.0,2.0,2.0,346.6177429995696,1.0,3.0,phase_1,,,,,,,,,,,,,yellow,triangle
338.0,6.0,1.0,1.0,4.0,4.0,421.3539020001917,1.0,1.0,phase_1,,,,,,,,,,,,,yellow,triangle
0.0,5.0,0.0,1.0,4.0,4.0,485.3949309999734,1.0,1.0,phase_1,,,,,,,,,,,,,white,cross
674.0,3.0,2.0,0.0,4.0,4.0,355.6804219997502,1.0,1.0,phase_1,,,,,,,,,,,,,cyan,square
155.0,5.0,0.5,1.0,3.0,3.0,309.443993000059,1.0,1.0,phase_1,,,,,,,,,,,,,white,cross
1281.0,8.0,4.0,1.0,3.0,3.0,309.4966819999172,1.0,1.0,phase_1,,,,,,,,,,,,,blue,hexagon
1313.0,4.0,4.0,0.0,3.0,3.0,366.4204860006066,1.0,1.0,phase_1,,,,,,,,,,,,,magenta,circle
0.0,3.0,0.0,0.0,1.0,1.0,635.9286590004558,1.0,1.0,phase_1,,,,,,,,,,,,,cyan,square
176.0,5.0,0.5,1.0,1.0,1.0,468.6615049995453,1.0,1.0,phase_1,,,,,,,,,,,,,white,cross
628.0,3.0,2.0,0.0,2.0,2.0,618.881004999821,1.0,1.0,phase_1,,,,,,,,,,,,,cyan,square
649.0,7.0,2.0,1.0,3.0,3.0,365.8097389998147,1.0,1.0,phase_1,,,,,,,,,,,,,orange,diamond
163.0,5.0,0.5,1.0,4.0,4.0,373.5840769995775,1.0,1.0,phase_1,,,,,,,,,,,,,white,cross
325.0,6.0,1.0,1.0,4.0,4.0,375.2060690003418,1.0,1.0,phase_1,,,,,,,,,,,,,yellow,triangle
1293.0,4.0,4.0,0.0,1.0,1.0,525.6382960005794,1.0,1.0,phase_1,,,,,,,,,,,,,magenta,circle
673.0,3.0,2.0,0.0,2.0,2.0,384.1754519999085,1.0,1.0,phase_1,,,,,,,,,,,,,cyan,square
324.0,2.0,1.0,0.0,1.0,1.0,422.503511999821,1.0,1.0,phase_1,,,,,,,,,,,,,green,flipped triangle
1300.0,8.0,4.0,1.0,4.0,4.0,374.7415579991866,1.0,1.0,phase_1,,,,,,,,,,,,,blue,hexagon
0.0,8.0,0.0,1.0,4.0,4.0,384.9817179998354,1.0,1.0,phase_1,,,,,,,,,,,,,blue,hexagon
647.0,7.0,2.0,1.0,3.0,3.0,374.9445599996761,2.0,1.0,phase_1,,,,,,,,,,,,,orange,diamond
639.0,7.0,2.0,1.0,2.0,2.0,272.1672289999333,2.0,1.0,phase_1,,,,,,,,,,,,,orange,diamond
144.0,1.0,0.5,0.0,2.0,2.0,338.258216000213,2.0,1.0,phase_1,,,,,,,,,,,,,gray,I
627.0,3.0,2.0,0.0,4.0,4.0,336.8340030001491,2.0,1.0,phase_1,,,,,,,,,,,,,cyan,square
0.0,8.0,0.0,1.0,2.0,2.0,589.794305000396,2.0,1.0,phase_1,,,,,,,,,,,,,blue,hexagon
1287.0,4.0,4.0,0.0,3.0,3.0,337.4834630003533,2.0,1.0,phase_1,,,,,,,,,,,,,magenta,circle
165.0,5.0,0.5,1.0,2.0,2.0,262.1430690005581,2.0,1.0,phase_1,,,,,,,,,,,,,white,cross
1278.0,4.0,4.0,0.0,2.0,2.0,300.4886859998805,2.0,1.0,phase_1,,,,,,,,,,,,,magenta,circle
630.0,7.0,2.0,1.0,4.0,4.0,300.5350359999283,2.0,1.0,phase_1,,,,,,,,,,,,,orange,diamond
0.0,7.0,0.0,1.0,1.0,1.0,402.4293310003486,2.0,1.0,phase_1,,,,,,,,,,,,,orange,diamond
659.0,3.0,2.0,0.0,2.0,2.0,393.6486719994718,2.0,1.0,phase_1,,,,,,,,,,,,,cyan,square
668.0,3.0,2.0,0.0,2.0,2.0,300.9410750000825,2.0,1.0,phase_1,,,,,,,,,,,,,cyan,square
338.0,2.0,1.0,0.0,2.0,2.0,328.1711710005766,2.0,1.0,phase_1,,,,,,,,,,,,,green,flipped triangle
316.0,6.0,1.0,1.0,1.0,1.0,646.4257899997392,2.0,1.0,phase_1,,,,,,,,,,,,,yellow,triangle
1325.0,4.0,4.0,0.0,4.0,4.0,367.5355550003587,2.0,1.0,phase_1,,,,,,,,,,,,,magenta,circle
172.0,5.0,0.5,1.0,2.0,2.0,375.5084979993626,2.0,1.0,phase_1,,,,,,,,,,,,,white,cross
1301.0,4.0,4.0,0.0,3.0,3.0,393.287687999873,2.0,1.0,phase_1,,,,,,,,,,,,,magenta,circle
177.0,1.0,0.5,0.0,4.0,4.0,402.5415590003831,2.0,1.0,phase_1,,,,,,,,,,,,,gray,I
626.0,7.0,2.0,1.0,3.0,3.0,374.6732780000457,2.0,1.0,phase_1,,,,,,,,,,,,,orange,diamond
0.0,4.0,0.0,0.0,1.0,1.0,309.0012680004292,2.0,1.0,phase_1,,,,,,,,,,,,,magenta,circle
343.0,6.0,1.0,1.0,1.0,1.0,393.2484709994241,2.0,1.0,phase_1,,,,,,,,,,,,,yellow,triangle
1308.0,4.0,4.0,0.0,3.0,3.0,461.2528699999529,2.0,1.0,phase_1,,,,,,,,,,,,,magenta,circle
1280.0,8.0,4.0,1.0,4.0,4.0,384.628480000174,2.0,1.0,phase_1,,,,,,,,,,,,,blue,hexagon
1294.0,4.0,4.0,0.0,2.0,2.0,356.1312759993598,2.0,1.0,phase_1,,,,,,,,,,,,,magenta,circle
0.0,1.0,0.0,0.0,3.0,3.0,366.0889319999114,2.0,1.0,phase_1,,,,,,,,,,,,,gray,I
0.0,6.0,0.0,1.0,1.0,1.0,420.4959620001318,2.0,1.0,phase_1,,,,,,,,,,,,,yellow,triangle
0.0,1.0,0.0,0.0,4.0,4.0,356.5317969996613,2.0,1.0,phase_1,,,,,,,,,,,,,gray,I
1282.0,8.0,4.0,1.0,4.0,4.0,383.4066139997958,2.0,1.0,phase_1,,,,,,,,,,,,,blue,hexagon
0.0,2.0,0.0,0.0,1.0,1.0,356.2966300005428,2.0,1.0,phase_1,,,,,,,,,,,,,green,flipped triangle
183.0,5.0,0.5,1.0,1.0,1.0,410.9012690005329,2.0,1.0,phase_1,,,,,,,,,,,,,white,cross
654.0,7.0,2.0,1.0,2.0,2.0,402.5148450000415,2.0,1.0,phase_1,,,,,,,,,,,,,orange,diamond
1306.0,4.0,4.0,0.0,1.0,1.0,440.0256219996663,2.0,1.0,phase_1,,,,,,,,,,,,,magenta,circle
177.0,5.0,0.5,1.0,3.0,3.0,346.4894109993111,2.0,1.0,phase_1,,,,,,,,,,,,,white,cross
1325.0,8.0,4.0,1.0,1.0,1.0,327.8628049993131,2.0,1.0,phase_1,,,,,,,,,,,,,blue,hexagon
323.0,6.0,1.0,1.0,1.0,1.0,337.642606999907,2.0,1.0,phase_1,,,,,,,,,,,,,yellow,triangle
0.0,2.0,0.0,0.0,1.0,1.0,339.6411489993625,2.0,1.0,phase_1,,,,,,,,,,,,,green,flipped triangle
323.0,2.0,1.0,0.0,3.0,3.0,310.7627779991162,2.0,1.0,phase_1,,,,,,,,,,,,,green,flipped triangle
0.0,7.0,0.0,1.0,4.0,4.0,422.2511680000025,2.0,1.0,phase_1,,,,,,,,,,,,,orange,diamond
335.0,2.0,1.0,0.0,1.0,1.0,337.7292759996635,2.0,1.0,phase_1,,,,,,,,,,,,,green,flipped triangle
644.0,7.0,2.0,1.0,1.0,1.0,310.041273999559,2.0,1.0,phase_1,,,,,,,,,,,,,orange,diamond
311.0,6.0,1.0,1.0,3.0,3.0,337.2205139994548,2.0,1.0,phase_1,,,,,,,,,,,,,yellow,triangle
301.0,2.0,1.0,0.0,1.0,1.0,318.6187609999251,2.0,1.0,phase_1,,,,,,,,,,,,,green,flipped triangle
304.0,2.0,1.0,0.0,4.0,4.0,393.4516139997868,2.0,1.0,phase_1,,,,,,,,,,,,,green,flipped triangle
153.0,1.0,0.5,0.0,2.0,2.0,393.2176510006684,2.0,1.0,phase_1,,,,,,,,,,,,,gray,I
0.0,4.0,0.0,0.0,4.0,4.0,525.9401860002981,2.0,1.0,phase_1,,,,,,,,,,,,,magenta,circle
1289.0,8.0,4.0,1.0,2.0,2.0,346.2451959994723,2.0,1.0,phase_1,,,,,,,,,,,,,blue,hexagon
0.0,2.0,0.0,0.0,4.0,4.0,375.5234890004431,2.0,1.0,phase_1,,,,,,,,,,,,,green,flipped triangle
1318.0,8.0,4.0,1.0,1.0,1.0,327.8863989999081,2.0,1.0,phase_1,,,,,,,,,,,,,blue,hexagon
341.0,6.0,1.0,1.0,2.0,2.0,384.0218929999537,2.0,1.0,phase_1,,,,,,,,,,,,,yellow,triangle
1278.0,8.0,4.0,1.0,1.0,1.0,333.2164060002469,2.0,1.0,phase_1,,,,,,,,,,,,,blue,hexagon
309.0,6.0,1.0,1.0,1.0,1.0,440.7360220002374,2.0,1.0,phase_1,,,,,,,,,,,,,yellow,triangle
183.0,1.0,0.5,0.0,4.0,4.0,404.0574219998234,2.0,1.0,phase_1,,,,,,,,,,,,,gray,I
324.0,2.0,1.0,0.0,4.0,4.0,365.8109529997091,2.0,1.0,phase_1,,,,,,,,,,,,,green,flipped triangle
165.0,1.0,0.5,0.0,3.0,3.0,422.9012329997204,2.0,1.0,phase_1,,,,,,,,,,,,,gray,I
0.0,2.0,0.0,0.0,4.0,4.0,385.3358329997718,2.0,1.0,phase_1,,,,,,,,,,,,,green,flipped triangle
141.0,1.0,0.5,0.0,1.0,1.0,329.4917089997398,2.0,1.0,phase_1,,,,,,,,,,,,,gray,I
644.0,3.0,2.0,0.0,2.0,2.0,376.3469890000124,2.0,1.0,phase_1,,,,,,,,,,,,,cyan,square
1308.0,8.0,4.0,1.0,4.0,4.0,356.3785280002776,2.0,1.0,phase_1,,,,,,,,,,,,,blue,hexagon
177.0,1.0,0.5,0.0,1.0,1.0,439.9572010006523,2.0,1.0,phase_1,,,,,,,,,,,,,gray,I
181.0,5.0,0.5,1.0,3.0,3.0,459.2132709994985,2.0,1.0,phase_1,,,,,,,,,,,,,white,cross
321.0,6.0,1.0,1.0,3.0,3.0,385.2685210003983,2.0,1.0,phase_1,,,,,,,,,,,,,yellow,triangle
337.0,6.0,1.0,1.0,4.0,4.0,338.0080650003947,2.0,1.0,phase_1,,,,,,,,,,,,,yellow,triangle
644.0,3.0,2.0,0.0,1.0,1.0,403.55453400025,2.0,1.0,phase_1,,,,,,,,,,,,,cyan,square
155.0,1.0,0.5,0.0,4.0,4.0,448.5879599997133,2.0,1.0,phase_1,,,,,,,,,,,,,gray,I
181.0,1.0,0.5,0.0,4.0,4.0,374.625272999765,2.0,1.0,phase_1,,,,,,,,,,,,,gray,I
1305.0,8.0,4.0,1.0,3.0,3.0,374.5329350003885,2.0,1.0,phase_1,,,,,,,,,,,,,blue,hexagon
140.0,1.0,0.5,0.0,2.0,2.0,440.7398670000475,2.0,1.0,phase_1,,,,,,,,,,,,,gray,I
341.0,2.0,1.0,0.0,2.0,2.0,403.122472999712,2.0,1.0,phase_1,,,,,,,,,,,,,green,flipped triangle
657.0,7.0,2.0,1.0,3.0,3.0,421.7415720004283,2.0,1.0,phase_1,,,,,,,,,,,,,orange,diamond
145.0,1.0,0.5,0.0,2.0,2.0,421.1002760002884,2.0,2.0,phase_1,,,,,,,,,,,,,gray,I
144.0,5.0,0.5,1.0,4.0,4.0,469.1180759991766,2.0,1.0,phase_1,,,,,,,,,,,,,white,cross
321.0,2.0,1.0,0.0,1.0,1.0,814.5061800005351,2.0,1.0,phase_1,,,,,,,,,,,,,green,flipped triangle
150.0,5.0,0.5,1.0,4.0,4.0,383.6236079996524,2.0,1.0,phase_1,,,,,,,,,,,,,white,cross
1298.0,8.0,4.0,1.0,4.0,4.0,319.3693350003741,2.0,1.0,phase_1,,,,,,,,,,,,,blue,hexagon
0.0,5.0,0.0,1.0,3.0,3.0,384.6548100000291,2.0,1.0,phase_1,,,,,,,,,,,,,white,cross
1312.0,8.0,4.0,1.0,2.0,2.0,365.271694000512,2.0,1.0,phase_1,,,,,,,,,,,,,blue,hexagon
1306.0,8.0,4.0,1.0,3.0,3.0,375.6317300003502,2.0,1.0,phase_1,,,,,,,,,,,,,blue,hexagon
665.0,3.0,2.0,0.0,4.0,4.0,413.0042570004661,2.0,1.0,phase_1,,,,,,,,,,,,,cyan,square
0.0,6.0,0.0,1.0,3.0,3.0,422.6222819997929,2.0,1.0,phase_1,,,,,,,,,,,,,yellow,triangle
345.0,6.0,1.0,1.0,1.0,1.0,468.4448880007039,2.0,1.0,phase_1,,,,,,,,,,,,,yellow,triangle
1294.0,8.0,4.0,1.0,4.0,4.0,431.4376720003565,2.0,1.0,phase_1,,,,,,,,,,,,,blue,hexagon
312.0,2.0,1.0,0.0,2.0,2.0,487.9765400000906,2.0,1.0,phase_1,,,,,,,,,,,,,green,flipped triangle
670.0,3.0,2.0,0.0,1.0,1.0,506.0127110000394,2.0,1.0,phase_1,,,,,,,,,,,,,cyan,square
1311.0,8.0,4.0,1.0,3.0,3.0,439.400105000459,2.0,1.0,phase_1,,,,,,,,,,,,,blue,hexagon
0.0,1.0,0.0,0.0,3.0,3.0,374.5152770006825,2.0,1.0,phase_1,,,,,,,,,,,,,gray,I
176.0,1.0,0.5,0.0,4.0,4.0,346.6257970003426,2.0,1.0,phase_1,,,,,,,,,,,,,gray,I
659.0,3.0,2.0,0.0,1.0,1.0,450.1827379999668,2.0,1.0,phase_1,,,,,,,,,,,,,cyan,square
307.0,2.0,1.0,0.0,2.0,2.0,365.5476980002277,2.0,1.0,phase_1,,,,,,,,,,,,,green,flipped triangle
0.0,2.0,0.0,0.0,2.0,2.0,337.6600020001206,2.0,1.0,phase_1,,,,,,,,,,,,,green,flipped triangle
154.0,5.0,0.5,1.0,2.0,2.0,346.8218250000063,2.0,1.0,phase_1,,,,,,,,,,,,,white,cross
0.0,3.0,0.0,0.0,1.0,1.0,449.8195810001562,2.0,1.0,phase_1,,,,,,,,,,,,,cyan,square
0.0,7.0,0.0,1.0,3.0,3.0,430.9436319999804,2.0,1.0,phase_1,,,,,,,,,,,,,orange,diamond
0.0,1.0,0.0,0.0,2.0,2.0,403.5078180004348,2.0,1.0,phase_1,,,,,,,,,,,,,gray,I
0.0,3.0,0.0,0.0,1.0,1.0,441.2455629999385,2.0,1.0,phase_1,,,,,,,,,,,,,cyan,square
0.0,5.0,0.0,1.0,1.0,1.0,441.3666760001433,2.0,1.0,phase_1,,,,,,,,,,,,,white,cross
148.0,1.0,0.5,0.0,1.0,1.0,374.8108510008023,2.0,1.0,phase_1,,,,,,,,,,,,,gray,I
336.0,6.0,1.0,1.0,3.0,3.0,348.075346000769,2.0,1.0,phase_1,,,,,,,,,,,,,yellow,triangle
0.0,5.0,0.0,1.0,4.0,4.0,392.9982789995847,2.0,1.0,phase_1,,,,,,,,,,,,,white,cross
0.0,1.0,0.0,0.0,1.0,1.0,439.3191030003436,2.0,1.0,phase_1,,,,,,,,,,,,,gray,I
179.0,1.0,0.5,0.0,3.0,3.0,384.778229999938,2.0,1.0,phase_1,,,,,,,,,,,,,gray,I
1314.0,4.0,4.0,0.0,1.0,1.0,365.7944560000032,3.0,1.0,phase_1,,,,,,,,,,,,,magenta,circle
1303.0,8.0,4.0,1.0,2.0,2.0,328.3941740000955,3.0,1.0,phase_1,,,,,,,,,,,,,blue,hexagon
142.0,5.0,0.5,1.0,2.0,2.0,384.5309979997182,3.0,1.0,phase_1,,,,,,,,,,,,,white,cross
344.0,2.0,1.0,0.0,2.0,2.0,319.4760460000907,3.0,1.0,phase_1,,,,,,,,,,,,,green,flipped triangle
325.0,6.0,1.0,1.0,4.0,4.0,374.9256829996739,3.0,1.0,phase_1,,,,,,,,,,,,,yellow,triangle
0.0,7.0,0.0,1.0,1.0,1.0,346.8822509994425,3.0,1.0,phase_1,,,,,,,,,,,,,orange,diamond
0.0,7.0,0.0,1.0,3.0,3.0,396.3894360003905,3.0,1.0,phase_1,,,,,,,,,,,,,orange,diamond
303.0,2.0,1.0,0.0,4.0,4.0,301.1925590008104,3.0,1.0,phase_1,,,,,,,,,,,,,green,flipped triangle
315.0,6.0,1.0,1.0,3.0,3.0,309.5400160000281,3.0,1.0,phase_1,,,,,,,,,,,,,yellow,triangle
1285.0,4.0,4.0,0.0,4.0,4.0,367.1843210004226,3.0,1.0,phase_1,,,,,,,,,,,,,magenta,circle
1305.0,4.0,4.0,0.0,3.0,3.0,451.4344570006869,3.0,1.0,phase_1,,,,,,,,,,,,,magenta,circle
175.0,5.0,0.5,1.0,4.0,4.0,357.7781029998732,3.0,1.0,phase_1,,,,,,,,,,,,,white,cross
638.0,7.0,2.0,1.0,4.0,4.0,356.1466170003768,3.0,1.0,phase_1,,,,,,,,,,,,,orange,diamond
1324.0,4.0,4.0,0.0,1.0,1.0,600.357766000343,3.0,1.0,phase_1,,,,,,,,,,,,,magenta,circle
0.0,3.0,0.0,0.0,4.0,4.0,460.4163759995572,3.0,1.0,phase_1,,,,,,,,,,,,,cyan,square
342.0,6.0,1.0,1.0,3.0,3.0,441.5538299999753,3.0,1.0,phase_1,,,,,,,,,,,,,yellow,triangle
1285.0,8.0,4.0,1.0,1.0,1.0,422.8220360000705,3.0,1.0,phase_1,,,,,,,,,,,,,blue,hexagon
643.0,7.0,2.0,1.0,1.0,1.0,338.310989999627,3.0,1.0,phase_1,,,,,,,,,,,,,orange,diamond
0.0,4.0,0.0,0.0,2.0,2.0,337.8457290000369,3.0,1.0,phase_1,,,,,,,,,,,,,magenta,circle
324.0,6.0,1.0,1.0,1.0,1.0,356.8212310001399,3.0,1.0,phase_1,,,,,,,,,,,,,yellow,triangle
315.0,2.0,1.0,0.0,1.0,1.0,328.7698609992731,3.0,1.0,phase_1,,,,,,,,,,,,,green,flipped triangle
0.0,2.0,0.0,0.0,2.0,2.0,374.6986389996891,3.0,1.0,phase_1,,,,,,,,,,,,,green,flipped triangle
1324.0,4.0,4.0,0.0,4.0,4.0,551.7523700000311,3.0,1.0,phase_1,,,,,,,,,,,,,magenta,circle
335.0,6.0,1.0,1.0,1.0,1.0,347.5164430001314,3.0,1.0,phase_1,,,,,,,,,,,,,yellow,triangle
167.0,5.0,0.5,1.0,3.0,3.0,319.8281300001326,3.0,1.0,phase_1,,,,,,,,,,,,,white,cross
0.0,3.0,0.0,0.0,1.0,1.0,346.0268159997213,3.0,1.0,phase_1,,,,,,,,,,,,,cyan,square
307.0,6.0,1.0,1.0,2.0,2.0,407.6681320002535,3.0,1.0,phase_1,,,,,,,,,,,,,yellow,triangle
169.0,5.0,0.5,1.0,3.0,3.0,365.7466230006321,3.0,1.0,phase_1,,,,,,,,,,,,,white,cross
163.0,1.0,0.5,0.0,3.0,3.0,347.2896649991526,3.0,1.0,phase_1,,,,,,,,,,,,,gray,I
644.0,7.0,2.0,1.0,4.0,4.0,347.6160259997414,3.0,1.0,phase_1,,,,,,,,,,,,,orange,diamond
638.0,3.0,2.0,0.0,3.0,3.0,346.5632819998063,3.0,1.0,phase_1,,,,,,,,,,,,,cyan,square
301.0,6.0,1.0,1.0,2.0,2.0,356.5892259994143,3.0,1.0,phase_1,,,,,,,,,,,,,yellow,triangle
344.0,6.0,1.0,1.0,1.0,1.0,449.2608809996454,3.0,1.0,phase_1,,,,,,,,,,,,,yellow,triangle
1299.0,8.0,4.0,1.0,2.0,2.0,335.9934870004508,3.0,1.0,phase_1,,,,,,,,,,,,,blue,hexagon
164.0,5.0,0.5,1.0,2.0,2.0,347.0483030005198,3.0,1.0,phase_1,,,,,,,,,,,,,white,cross
140.0,5.0,0.5,1.0,2.0,2.0,327.6622820003467,3.0,1.0,phase_1,,,,,,,,,,,,,white,cross
0.0,5.0,0.0,1.0,1.0,1.0,300.0158429995281,3.0,1.0,phase_1,,,,,,,,,,,,,white,cross
170.0,1.0,0.5,0.0,1.0,1.0,392.8044570002384,3.0,1.0,phase_1,,,,,,,,,,,,,gray,I
1311.0,4.0,4.0,0.0,2.0,2.0,347.0090850005363,3.0,1.0,phase_1,,,,,,,,,,,,,magenta,circle
1324.0,8.0,4.0,1.0,1.0,1.0,318.9056629998958,3.0,1.0,phase_1,,,,,,,,,,,,,blue,hexagon
645.0,7.0,2.0,1.0,1.0,1.0,366.3819479997983,3.0,1.0,phase_1,,,,,,,,,,,,,orange,diamond
644.0,3.0,2.0,0.0,3.0,3.0,347.1036270002514,3.0,1.0,phase_1,,,,,,,,,,,,,cyan,square
309.0,2.0,1.0,0.0,3.0,3.0,326.8835110002328,3.0,1.0,phase_1,,,,,,,,,,,,,green,flipped triangle
651.0,7.0,2.0,1.0,4.0,4.0,365.0043910001841,3.0,1.0,phase_1,,,,,,,,,,,,,orange,diamond
163.0,5.0,0.5,1.0,3.0,3.0,308.6456949995408,3.0,1.0,phase_1,,,,,,,,,,,,,white,cross
164.0,1.0,0.5,0.0,1.0,1.0,356.1274530002265,3.0,1.0,phase_1,,,,,,,,,,,,,gray,I
157.0,5.0,0.5,1.0,4.0,4.0,281.6850990002422,3.0,1.0,phase_1,,,,,,,,,,,,,white,cross
0.0,8.0,0.0,1.0,1.0,1.0,317.9133359999468,3.0,1.0,phase_1,,,,,,,,,,,,,blue,hexagon
0.0,4.0,0.0,0.0,1.0,1.0,393.0617210007767,3.0,1.0,phase_1,,,,,,,,,,,,,magenta,circle
0.0,3.0,0.0,0.0,4.0,4.0,299.875128000167,3.0,2.0,phase_1,,,,,,,,,,,,,cyan,square
0.0,4.0,0.0,0.0,1.0,1.0,336.7721380000148,3.0,1.0,phase_1,,,,,,,,,,,,,magenta,circle
1289.0,8.0,4.0,1.0,3.0,3.0,347.5104410008498,3.0,1.0,phase_1,,,,,,,,,,,,,blue,hexagon
668.0,7.0,2.0,1.0,2.0,2.0,411.9650370003,3.0,1.0,phase_1,,,,,,,,,,,,,orange,diamond
334.0,6.0,1.0,1.0,2.0,2.0,384.0439719997448,3.0,1.0,phase_1,,,,,,,,,,,,,yellow,triangle
657.0,3.0,2.0,0.0,3.0,3.0,421.1003690006691,3.0,1.0,phase_1,,,,,,,,,,,,,cyan,square
1286.0,4.0,4.0,0.0,3.0,3.0,308.9305249995959,3.0,1.0,phase_1,,,,,,,,,,,,,magenta,circle
647.0,3.0,2.0,0.0,3.0,3.0,317.9659490006088,3.0,1.0,phase_1,,,,,,,,,,,,,cyan,square
314.0,6.0,1.0,1.0,4.0,4.0,373.885541999698,3.0,1.0,phase_1,,,,,,,,,,,,,yellow,triangle
150.0,5.0,0.5,1.0,3.0,3.0,373.7750160007635,3.0,1.0,phase_1,,,,,,,,,,,,,white,cross
324.0,6.0,1.0,1.0,2.0,2.0,402.563521999582,3.0,1.0,phase_1,,,,,,,,,,,,,yellow,triangle
169.0,1.0,0.5,0.0,1.0,1.0,392.37465899987,3.0,1.0,phase_1,,,,,,,,,,,,,gray,I
314.0,2.0,1.0,0.0,3.0,3.0,506.5059520002251,3.0,1.0,phase_1,,,,,,,,,,,,,green,flipped triangle
174.0,5.0,0.5,1.0,1.0,1.0,440.1841729995794,3.0,1.0,phase_1,,,,,,,,,,,,,white,cross
1301.0,8.0,4.0,1.0,3.0,3.0,338.0356600000596,3.0,1.0,phase_1,,,,,,,,,,,,,blue,hexagon
1296.0,4.0,4.0,0.0,1.0,1.0,403.2705510007872,3.0,1.0,phase_1,,,,,,,,,,,,,magenta,circle
651.0,3.0,2.0,0.0,4.0,4.0,374.9876529991525,3.0,1.0,phase_1,,,,,,,,,,,,,cyan,square
341.0,6.0,1.0,1.0,4.0,4.0,384.6365529998365,3.0,1.0,phase_1,,,,,,,,,,,,,yellow,triangle
332.0,2.0,1.0,0.0,4.0,4.0,375.3360169994266,3.0,1.0,phase_1,,,,,,,,,,,,,green,flipped triangle
674.0,7.0,2.0,1.0,4.0,4.0,383.8226839998242,3.0,1.0,phase_1,,,,,,,,,,,,,orange,diamond
0.0,4.0,0.0,0.0,3.0,3.0,393.6774869998771,3.0,1.0,phase_1,,,,,,,,,,,,,magenta,circle
659.0,7.0,2.0,1.0,1.0,1.0,430.4845689994181,3.0,1.0,phase_1,,,,,,,,,,,,,orange,diamond
345.0,2.0,1.0,0.0,2.0,2.0,393.0843699999968,3.0,1.0,phase_1,,,,,,,,,,,,,green,flipped triangle
331.0,6.0,1.0,1.0,2.0,2.0,355.9218380005404,3.0,1.0,phase_1,,,,,,,,,,,,,yellow,triangle
337.0,2.0,1.0,0.0,4.0,4.0,393.9902540005278,3.0,1.0,phase_1,,,,,,,,,,,,,green,flipped triangle
1296.0,8.0,4.0,1.0,1.0,1.0,327.2580069997275,3.0,1.0,phase_1,,,,,,,,,,,,,blue,hexagon
0.0,2.0,0.0,0.0,1.0,1.0,347.0651509996969,3.0,1.0,phase_1,,,,,,,,,,,,,green,flipped triangle
1319.0,4.0,4.0,0.0,4.0,4.0,337.7093839999361,3.0,1.0,phase_1,,,,,,,,,,,,,magenta,circle
325.0,6.0,1.0,1.0,2.0,2.0,440.2677119996951,3.0,1.0,phase_1,,,,,,,,,,,,,yellow,triangle
656.0,3.0,2.0,0.0,2.0,2.0,430.8533619996524,3.0,1.0,phase_1,,,,,,,,,,,,,cyan,square
152.0,5.0,0.5,1.0,3.0,3.0,299.5723359999829,3.0,1.0,phase_1,,,,,,,,,,,,,white,cross
1280.0,4.0,4.0,0.0,2.0,2.0,328.0915169998479,3.0,1.0,phase_1,,,,,,,,,,,,,magenta,circle
334.0,2.0,1.0,0.0,4.0,4.0,487.1922940001241,3.0,1.0,phase_1,,,,,,,,,,,,,green,flipped triangle
174.0,5.0,0.5,1.0,3.0,3.0,327.2992490001343,3.0,1.0,phase_1,,,,,,,,,,,,,white,cross
150.0,1.0,0.5,0.0,2.0,2.0,327.6773480001793,3.0,1.0,phase_1,,,,,,,,,,,,,gray,I
325.0,2.0,1.0,0.0,3.0,3.0,356.4879100003963,3.0,1.0,phase_1,,,,,,,,,,,,,green,flipped triangle
0.0,3.0,0.0,0.0,2.0,2.0,364.1851700003826,3.0,1.0,phase_1,,,,,,,,,,,,,cyan,square
1313.0,8.0,4.0,1.0,2.0,2.0,356.0682520001137,3.0,1.0,phase_1,,,,,,,,,,,,,blue,hexagon
185.0,5.0,0.5,1.0,1.0,1.0,317.4295290000373,3.0,1.0,phase_1,,,,,,,,,,,,,white,cross
672.0,7.0,2.0,1.0,2.0,2.0,327.5153210006465,3.0,1.0,phase_1,,,,,,,,,,,,,orange,diamond
627.0,7.0,2.0,1.0,2.0,2.0,317.3668810004528,3.0,1.0,phase_1,,,,,,,,,,,,,orange,diamond
656.0,7.0,2.0,1.0,3.0,3.0,374.5549029999893,3.0,1.0,phase_1,,,,,,,,,,,,,orange,diamond
672.0,7.0,2.0,1.0,3.0,3.0,365.1494690002437,3.0,1.0,phase_1,,,,,,,,,,,,,orange,diamond
0.0,1.0,0.0,0.0,2.0,2.0,393.0164900002637,3.0,1.0,phase_1,,,,,,,,,,,,,gray,I
0.0,8.0,0.0,1.0,4.0,4.0,374.7643219994643,3.0,1.0,phase_1,,,,,,,,,,,,,blue,hexagon
645.0,7.0,2.0,1.0,3.0,3.0,346.873198999674,3.0,1.0,phase_1,,,,,,,,,,,,,orange,diamond
165.0,5.0,0.5,1.0,2.0,2.0,366.4346400000795,3.0,1.0,phase_1,,,,,,,,,,,,,white,cross
626.0,3.0,2.0,0.0,1.0,1.0,358.2887669999763,3.0,2.0,phase_1,,,,,,,,,,,,,cyan,square
1303.0,4.0,4.0,0.0,1.0,1.0,367.2471939999013,3.0,1.0,phase_1,,,,,,,,,,,,,magenta,circle
145.0,5.0,0.5,1.0,1.0,1.0,328.6948159993699,3.0,1.0,phase_1,,,,,,,,,,,,,white,cross
342.0,2.0,1.0,0.0,3.0,3.0,346.327502999884,3.0,1.0,phase_1,,,,,,,,,,,,,green,flipped triangle
0.0,3.0,0.0,0.0,1.0,1.0,364.8955299995577,4.0,1.0,phase_1,,,,,,,,,,,,,cyan,square
0.0,4.0,0.0,0.0,2.0,2.0,328.5327399999005,4.0,1.0,phase_1,,,,,,,,,,,,,magenta,circle
662.0,3.0,2.0,0.0,1.0,1.0,562.737553000261,4.0,1.0,phase_1,,,,,,,,,,,,,cyan,square
144.0,5.0,0.5,1.0,2.0,2.0,346.3762530000167,4.0,1.0,phase_1,,,,,,,,,,,,,white,cross
627.0,3.0,2.0,0.0,2.0,2.0,318.93234700055467,4.0,1.0,phase_1,,,,,,,,,,,,,cyan,square
1296.0,8.0,4.0,1.0,3.0,3.0,411.6093000002365,4.0,1.0,phase_1,,,,,,,,,,,,,blue,hexagon
0.0,1.0,0.0,0.0,1.0,1.0,393.7665910007126,4.0,1.0,phase_1,,,,,,,,,,,,,gray,I
0.0,3.0,0.0,0.0,1.0,1.0,308.8204010000481,4.0,1.0,phase_1,,,,,,,,,,,,,cyan,square
654.0,3.0,2.0,0.0,2.0,2.0,430.5959080002139,4.0,1.0,phase_1,,,,,,,,,,,,,cyan,square
138.0,5.0,0.5,1.0,1.0,1.0,411.7839159998766,4.0,1.0,phase_1,,,,,,,,,,,,,white,cross
177.0,5.0,0.5,1.0,1.0,1.0,271.1830469997949,4.0,1.0,phase_1,,,,,,,,,,,,,white,cross
1300.0,4.0,4.0,0.0,2.0,2.0,337.3638260000007,4.0,1.0,phase_1,,,,,,,,,,,,,magenta,circle
634.0,7.0,2.0,1.0,3.0,3.0,413.0687869992471,4.0,1.0,phase_1,,,,,,,,,,,,,orange,diamond
323.0,2.0,1.0,0.0,3.0,3.0,412.6193410002088,4.0,1.0,phase_1,,,,,,,,,,,,,green,flipped triangle
673.0,7.0,2.0,1.0,2.0,2.0,329.0066489998935,4.0,1.0,phase_1,,,,,,,,,,,,,orange,diamond
1290.0,4.0,4.0,0.0,2.0,2.0,271.7362399998819,4.0,1.0,phase_1,,,,,,,,,,,,,magenta,circle
1276.0,4.0,4.0,0.0,1.0,1.0,262.6267259993255,4.0,1.0,phase_1,,,,,,,,,,,,,magenta,circle
0.0,4.0,0.0,0.0,4.0,4.0,365.1369429999249,4.0,1.0,phase_1,,,,,,,,,,,,,magenta,circle
0.0,6.0,0.0,1.0,1.0,1.0,422.2234210001261,4.0,1.0,phase_1,,,,,,,,,,,,,yellow,triangle
144.0,1.0,0.5,0.0,3.0,3.0,383.7787910006227,4.0,1.0,phase_1,,,,,,,,,,,,,gray,I
1320.0,4.0,4.0,0.0,1.0,1.0,300.1975939996555,4.0,1.0,phase_1,,,,,,,,,,,,,magenta,circle
152.0,1.0,0.5,0.0,2.0,2.0,309.4375540003966,4.0,1.0,phase_1,,,,,,,,,,,,,gray,I
0.0,8.0,0.0,1.0,3.0,3.0,319.0722800000003,4.0,1.0,phase_1,,,,,,,,,,,,,blue,hexagon
1320.0,4.0,4.0,0.0,4.0,4.0,357.5658380004824,4.0,2.0,phase_1,,,,,,,,,,,,,magenta,circle
303.0,6.0,1.0,1.0,4.0,4.0,366.7943720001858,4.0,1.0,phase_1,,,,,,,,,,,,,yellow,triangle
627.0,7.0,2.0,1.0,1.0,1.0,338.4670630002802,4.0,1.0,phase_1,,,,,,,,,,,,,orange,diamond
662.0,7.0,2.0,1.0,4.0,4.0,366.0845790000167,4.0,1.0,phase_1,,,,,,,,,,,,,orange,diamond
0.0,6.0,0.0,1.0,2.0,2.0,413.8054299992291,4.0,2.0,phase_1,,,,,,,,,,,,,yellow,triangle
0.0,7.0,0.0,1.0,3.0,3.0,477.6676989995394,4.0,1.0,phase_1,,,,,,,,,,,,,orange,diamond
1304.0,4.0,4.0,0.0,4.0,4.0,411.9011729999329,4.0,1.0,phase_1,,,,,,,,,,,,,magenta,circle
1284.0,4.0,4.0,0.0,2.0,2.0,477.0100160003494,4.0,1.0,phase_1,,,,,,,,,,,,,magenta,circle
316.0,2.0,1.0,0.0,1.0,1.0,347.6552370002537,4.0,2.0,phase_1,,,,,,,,,,,,,green,flipped triangle
1277.0,8.0,4.0,1.0,1.0,1.0,366.345098000238,4.0,1.0,phase_1,,,,,,,,,,,,,blue,hexagon
1296.0,4.0,4.0,0.0,2.0,2.0,375.1131030003307,4.0,1.0,phase_1,,,,,,,,,,,,,magenta,circle
1281.0,4.0,4.0,0.0,3.0,3.0,375.1525940006104,4.0,1.0,phase_1,,,,,,,,,,,,,magenta,circle
186.0,5.0,0.5,1.0,3.0,3.0,357.1323409996694,4.0,1.0,phase_1,,,,,,,,,,,,,white,cross
165.0,5.0,0.5,1.0,1.0,1.0,673.5920080000142,4.0,1.0,phase_1,,,,,,,,,,,,,white,cross
162.0,5.0,0.5,1.0,4.0,4.0,421.6268000000127,4.0,1.0,phase_1,,,,,,,,,,,,,white,cross
1276.0,8.0,4.0,1.0,1.0,1.0,384.4833880002625,4.0,1.0,phase_1,,,,,,,,,,,,,blue,hexagon
641.0,3.0,2.0,0.0,1.0,1.0,356.0147660000439,4.0,1.0,phase_1,,,,,,,,,,,,,cyan,square
644.0,7.0,2.0,1.0,3.0,3.0,356.1310490003961,4.0,1.0,phase_1,,,,,,,,,,,,,orange,diamond
341.0,2.0,1.0,0.0,2.0,2.0,486.2903050006935,4.0,1.0,phase_1,,,,,,,,,,,,,green,flipped triangle
300.0,6.0,1.0,1.0,2.0,2.0,365.9978109999429,4.0,1.0,phase_1,,,,,,,,,,,,,yellow,triangle
0.0,5.0,0.0,1.0,4.0,4.0,403.4003890001258,4.0,1.0,phase_1,,,,,,,,,,,,,white,cross
165.0,1.0,0.5,0.0,1.0,1.0,731.9950149994838,4.0,1.0,phase_1,,,,,,,,,,,,,gray,I
1293.0,8.0,4.0,1.0,2.0,2.0,337.509040000441,4.0,1.0,phase_1,,,,,,,,,,,,,blue,hexagon
165.0,1.0,0.5,0.0,4.0,4.0,403.3585260003747,4.0,1.0,phase_1,,,,,,,,,,,,,gray,I
0.0,7.0,0.0,1.0,1.0,1.0,308.8079760000255,4.0,1.0,phase_1,,,,,,,,,,,,,orange,diamond
637.0,7.0,2.0,1.0,1.0,1.0,365.2051959998061,4.0,1.0,phase_1,,,,,,,,,,,,,orange,diamond
179.0,5.0,0.5,1.0,2.0,2.0,338.3178149997548,4.0,1.0,phase_1,,,,,,,,,,,,,white,cross
1299.0,4.0,4.0,0.0,4.0,4.0,393.4005060000345,4.0,1.0,phase_1,,,,,,,,,,,,,magenta,circle
346.0,6.0,1.0,1.0,4.0,4.0,365.8118430003014,4.0,1.0,phase_1,,,,,,,,,,,,,yellow,triangle
652.0,7.0,2.0,1.0,1.0,1.0,402.0459939993088,4.0,1.0,phase_1,,,,,,,,,,,,,orange,diamond
639.0,3.0,2.0,0.0,1.0,1.0,327.2553440001502,4.0,1.0,phase_1,,,,,,,,,,,,,cyan,square
0.0,4.0,0.0,0.0,4.0,4.0,412.192130999756,4.0,1.0,phase_1,,,,,,,,,,,,,magenta,circle
0.0,6.0,0.0,1.0,3.0,3.0,412.2081810000964,4.0,1.0,phase_1,,,,,,,,,,,,,yellow,triangle
0.0,5.0,0.0,1.0,2.0,2.0,365.6266549996871,4.0,1.0,phase_1,,,,,,,,,,,,,white,cross
0.0,6.0,0.0,1.0,1.0,1.0,496.2195190000784,4.0,1.0,phase_1,,,,,,,,,,,,,yellow,triangle
146.0,5.0,0.5,1.0,4.0,4.0,375.1063030003934,4.0,1.0,phase_1,,,,,,,,,,,,,white,cross
138.0,1.0,0.5,0.0,3.0,3.0,355.4466939995109,4.0,1.0,phase_1,,,,,,,,,,,,,gray,I
0.0,6.0,0.0,1.0,3.0,3.0,365.9715499998128,4.0,1.0,phase_1,,,,,,,,,,,,,yellow,triangle
1309.0,8.0,4.0,1.0,2.0,2.0,346.8393039993316,4.0,1.0,phase_1,,,,,,,,,,,,,blue,hexagon
643.0,3.0,2.0,0.0,2.0,2.0,336.5832549998231,4.0,1.0,phase_1,,,,,,,,,,,,,cyan,square
1286.0,8.0,4.0,1.0,3.0,3.0,393.6569430006784,4.0,1.0,phase_1,,,,,,,,,,,,,blue,hexagon
151.0,1.0,0.5,0.0,3.0,3.0,365.4266269995787,4.0,1.0,phase_1,,,,,,,,,,,,,gray,I
0.0,8.0,0.0,1.0,2.0,2.0,309.9687230005656,4.0,1.0,phase_1,,,,,,,,,,,,,blue,hexagon
0.0,5.0,0.0,1.0,3.0,3.0,338.4442130000025,4.0,1.0,phase_1,,,,,,,,,,,,,white,cross
0.0,3.0,0.0,0.0,2.0,2.0,271.7180019999432,4.0,1.0,phase_1,,,,,,,,,,,,,cyan,square
330.0,2.0,1.0,0.0,1.0,1.0,376.4726290000908,4.0,2.0,phase_1,,,,,,,,,,,,,green,flipped triangle
312.0,6.0,1.0,1.0,3.0,3.0,403.6506630000076,4.0,1.0,phase_1,,,,,,,,,,,,,yellow,triangle
665.0,7.0,2.0,1.0,4.0,4.0,356.8165389997375,4.0,1.0,phase_1,,,,,,,,,,,,,orange,diamond
1289.0,4.0,4.0,0.0,4.0,4.0,375.1663659995756,4.0,1.0,phase_1,,,,,,,,,,,,,magenta,circle
0.0,7.0,0.0,1.0,2.0,2.0,346.5664690002086,4.0,1.0,phase_1,,,,,,,,,,,,,orange,diamond
170.0,5.0,0.5,1.0,4.0,4.0,347.8911940001126,4.0,1.0,phase_1,,,,,,,,,,,,,white,cross
330.0,6.0,1.0,1.0,3.0,3.0,338.3503430004566,4.0,1.0,phase_1,,,,,,,,,,,,,yellow,triangle
1282.0,4.0,4.0,0.0,1.0,1.0,412.8692779995617,4.0,1.0,phase_1,,,,,,,,,,,,,magenta,circle
146.0,1.0,0.5,0.0,2.0,2.0,319.2006839999521,4.0,1.0,phase_1,,,,,,,,,,,,,gray,I
304.0,6.0,1.0,1.0,2.0,2.0,337.8342320002048,4.0,1.0,phase_1,,,,,,,,,,,,,yellow,triangle
325.0,2.0,1.0,0.0,1.0,1.0,515.6620309999198,4.0,1.0,phase_1,,,,,,,,,,,,,green,flipped triangle
1301.0,4.0,4.0,0.0,4.0,4.0,638.5151220001717,4.0,1.0,phase_1,,,,,,,,,,,,,magenta,circle
668.0,3.0,2.0,0.0,3.0,3.0,365.8095299997512,4.0,1.0,phase_1,,,,,,,,,,,,,cyan,square
641.0,7.0,2.0,1.0,2.0,2.0,356.564642000194,4.0,1.0,phase_1,,,,,,,,,,,,,orange,diamond
0.0,6.0,0.0,1.0,4.0,4.0,441.4921839997987,4.0,1.0,phase_1,,,,,,,,,,,,,yellow,triangle
153.0,5.0,0.5,1.0,2.0,2.0,365.3953580005691,4.0,1.0,phase_1,,,,,,,,,,,,,white,cross
0.0,8.0,0.0,1.0,3.0,3.0,375.2581859998827,4.0,1.0,phase_1,,,,,,,,,,,,,blue,hexagon
0.0,8.0,0.0,1.0,4.0,4.0,345.7460789995821,4.0,1.0,phase_1,,,,,,,,,,,,,blue,hexagon
656.0,7.0,2.0,1.0,2.0,2.0,346.5422270000999,4.0,1.0,phase_1,,,,,,,,,,,,,orange,diamond
645.0,3.0,2.0,0.0,3.0,3.0,365.8623830006036,4.0,1.0,phase_1,,,,,,,,,,,,,cyan,square
309.0,2.0,1.0,0.0,1.0,1.0,804.8044219995063,4.0,1.0,phase_1,,,,,,,,,,,,,green,flipped triangle
672.0,3.0,2.0,0.0,3.0,3.0,430.978662000598,4.0,1.0,phase_1,,,,,,,,,,,,,cyan,square
637.0,3.0,2.0,0.0,2.0,2.0,366.6220260001864,4.0,1.0,phase_1,,,,,,,,,,,,,cyan,square
628.0,7.0,2.0,1.0,4.0,4.0,356.0295759998553,4.0,1.0,phase_1,,,,,,,,,,,,,orange,diamond
643.0,7.0,2.0,1.0,1.0,1.0,309.5754790001592,4.0,1.0,phase_1,,,,,,,,,,,,,orange,diamond
158.0,5.0,0.5,1.0,4.0,4.0,451.0746819996711,4.0,1.0,phase_1,,,,,,,,,,,,,white,cross
157.0,1.0,0.5,0.0,3.0,3.0,337.7141860000847,4.0,1.0,phase_1,,,,,,,,,,,,,gray,I
186.0,1.0,0.5,0.0,2.0,2.0,421.9364529999438,4.0,1.0,phase_1,,,,,,,,,,,,,gray,I
1304.0,8.0,4.0,1.0,2.0,2.0,393.5832570005004,4.0,1.0,phase_1,,,,,,,,,,,,,blue,hexagon
1290.0,8.0,4.0,1.0,4.0,4.0,375.1083140004994,4.0,1.0,phase_1,,,,,,,,,,,,,blue,hexagon
335.0,6.0,1.0,1.0,1.0,1.0,356.2970339999083,4.0,1.0,phase_1,,,,,,,,,,,,,yellow,triangle
668.0,3.0,2.0,0.0,1.0,1.0,589.6348450005462,4.0,1.0,phase_1,,,,,,,,,,,,,cyan,square
0.0,2.0,1.0,0.0,6.0,6.0,438.1383390000337,1.0,1.0,phase_2,go,250.0,250.0,1.0,,,,,,,,,green,flipped triangle
0.0,3.0,2.0,0.0,6.0,6.0,600.7297480000489,1.0,1.0,phase_2,go,250.0,250.0,1.0,,,,,,,,,cyan,square
0.0,6.0,1.0,1.0,5.0,0.0,0.0,1.0,1.0,phase_2,stop,250.0,250.0,4.0,,,,,,,,,yellow,triangle
0.0,8.0,4.0,1.0,5.0,5.0,527.3792509997293,1.0,1.0,phase_2,go,300.0,250.0,1.0,,,,,,,,,blue,hexagon
0.0,6.0,1.0,1.0,6.0,6.0,489.8638180002308,1.0,1.0,phase_2,go,300.0,250.0,1.0,,,,,,,,,yellow,triangle
0.0,3.0,2.0,0.0,5.0,5.0,651.813600999958,1.0,1.0,phase_2,go,300.0,250.0,1.0,,,,,,,,,cyan,square
0.0,6.0,1.0,1.0,6.0,6.0,409.7304489996531,1.0,1.0,phase_2,stop,300.0,250.0,3.0,,,,,,,,,yellow,triangle
0.0,7.0,2.0,1.0,6.0,0.0,0.0,1.0,1.0,phase_2,stop,300.0,200.0,4.0,,,,,,,,,orange,diamond
0.0,8.0,4.0,1.0,6.0,0.0,0.0,1.0,1.0,phase_2,stop,300.0,250.0,4.0,,,,,,,,,blue,hexagon
0.0,4.0,4.0,0.0,5.0,5.0,518.4192579999944,1.0,1.0,phase_2,go,300.0,300.0,1.0,,,,,,,,,magenta,circle
0.0,6.0,1.0,1.0,6.0,6.0,846.333106000202,1.0,1.0,phase_2,go,300.0,300.0,1.0,,,,,,,,,yellow,triangle
0.0,7.0,2.0,1.0,6.0,0.0,0.0,1.0,1.0,phase_2,stop,300.0,300.0,4.0,,,,,,,,,orange,diamond
0.0,2.0,1.0,0.0,6.0,6.0,790.5197220006812,1.0,1.0,phase_2,go,300.0,350.0,1.0,,,,,,,,,green,flipped triangle
0.0,8.0,4.0,1.0,5.0,0.0,0.0,1.0,1.0,phase_2,stop,300.0,350.0,4.0,,,,,,,,,blue,hexagon
0.0,6.0,1.0,1.0,6.0,0.0,0.0,1.0,1.0,phase_2,stop,350.0,350.0,4.0,,,,,,,,,yellow,triangle
0.0,6.0,1.0,1.0,5.0,0.0,0.0,1.0,1.0,phase_2,stop,350.0,400.0,4.0,,,,,,,,,yellow,triangle
0.0,4.0,4.0,0.0,5.0,5.0,668.1788000005326,1.0,1.0,phase_2,go,400.0,400.0,1.0,,,,,,,,,magenta,circle
0.0,5.0,0.5,1.0,6.0,0.0,0.0,1.0,1.0,phase_2,stop,400.0,400.0,4.0,,,,,,,,,white,cross
0.0,1.0,0.5,0.0,6.0,6.0,726.2066149996826,1.0,1.0,phase_2,go,400.0,450.0,1.0,,,,,,,,,gray,I
0.0,1.0,0.5,0.0,5.0,5.0,783.218026999748,1.0,1.0,phase_2,go,400.0,450.0,1.0,,,,,,,,,gray,I
0.0,6.0,1.0,1.0,6.0,0.0,0.0,1.0,1.0,phase_2,stop,400.0,450.0,4.0,,,,,,,,,yellow,triangle
0.0,6.0,1.0,1.0,6.0,0.0,0.0,1.0,1.0,phase_2,stop,400.0,500.0,4.0,,,,,,,,,yellow,triangle
0.0,5.0,0.5,1.0,6.0,6.0,621.5685170000143,1.0,1.0,phase_2,go,400.0,550.0,1.0,,,,,,,,,white,cross
0.0,6.0,1.0,1.0,6.0,6.0,791.1559159992976,1.0,1.0,phase_2,go,400.0,550.0,1.0,,,,,,,,,yellow,triangle
0.0,2.0,1.0,0.0,5.0,5.0,773.0077070000334,1.0,1.0,phase_2,go,400.0,550.0,1.0,,,,,,,,,green,flipped triangle
0.0,7.0,2.0,1.0,6.0,6.0,744.4987459994081,1.0,1.0,phase_2,stop,400.0,550.0,3.0,,,,,,,,,orange,diamond
0.0,3.0,2.0,0.0,5.0,5.0,856.0416829996029,1.0,1.0,phase_2,go,400.0,500.0,1.0,,,,,,,,,cyan,square
0.0,4.0,4.0,0.0,5.0,5.0,931.0936689998924,1.0,1.0,phase_2,go,400.0,500.0,1.0,,,,,,,,,magenta,circle
0.0,1.0,0.5,0.0,6.0,6.0,987.538719999975,1.0,1.0,phase_2,go,400.0,500.0,1.0,,,,,,,,,gray,I
0.0,6.0,1.0,1.0,5.0,0.0,0.0,1.0,1.0,phase_2,stop,400.0,500.0,4.0,,,,,,,,,yellow,triangle
0.0,8.0,4.0,1.0,5.0,0.0,0.0,1.0,1.0,phase_2,stop,450.0,500.0,4.0,,,,,,,,,blue,hexagon
0.0,1.0,0.5,0.0,6.0,6.0,849.5863820007798,1.0,1.0,phase_2,go,500.0,500.0,1.0,,,,,,,,,gray,I
0.0,7.0,2.0,1.0,5.0,5.0,761.4997519995086,1.0,1.0,phase_2,go,500.0,500.0,1.0,,,,,,,,,orange,diamond
0.0,8.0,4.0,1.0,5.0,5.0,652.2977929998888,1.0,1.0,phase_2,stop,500.0,500.0,3.0,,,,,,,,,blue,hexagon
0.0,1.0,0.5,0.0,6.0,6.0,831.4448169994648,1.0,1.0,phase_2,go,450.0,500.0,1.0,,,,,,,,,gray,I
0.0,5.0,0.5,1.0,6.0,0.0,0.0,1.0,1.0,phase_2,stop,450.0,500.0,4.0,,,,,,,,,white,cross
0.0,3.0,2.0,0.0,5.0,5.0,500.07540299975517,2.0,1.0,phase_2,go,450.0,550.0,1.0,,,,,,,,,cyan,square
0.0,4.0,4.0,0.0,6.0,6.0,717.8304319995732,2.0,1.0,phase_2,go,450.0,550.0,1.0,,,,,,,,,magenta,circle
0.0,5.0,0.5,1.0,5.0,0.0,0.0,2.0,1.0,phase_2,stop,450.0,550.0,4.0,,,,,,,,,white,cross
0.0,1.0,0.5,0.0,6.0,6.0,878.8282300001811,2.0,1.0,phase_2,go,500.0,550.0,1.0,,,,,,,,,gray,I
0.0,4.0,4.0,0.0,6.0,6.0,802.6032689995191,2.0,1.0,phase_2,go,500.0,550.0,1.0,,,,,,,,,magenta,circle
0.0,2.0,1.0,0.0,5.0,5.0,613.992122000127,2.0,1.0,phase_2,go,500.0,550.0,1.0,,,,,,,,,green,flipped triangle
0.0,2.0,1.0,0.0,6.0,6.0,624.291600000106,2.0,1.0,phase_2,go,500.0,550.0,1.0,,,,,,,,,green,flipped triangle
0.0,5.0,0.5,1.0,5.0,0.0,0.0,2.0,1.0,phase_2,stop,500.0,550.0,4.0,,,,,,,,,white,cross
0.0,8.0,4.0,1.0,6.0,6.0,693.5801710005762,2.0,1.0,phase_2,stop,550.0,550.0,3.0,,,,,,,,,blue,hexagon
0.0,8.0,4.0,1.0,5.0,5.0,765.422531000695,2.0,1.0,phase_2,go,550.0,500.0,1.0,,,,,,,,,blue,hexagon
0.0,4.0,4.0,0.0,6.0,6.0,717.1804690005956,2.0,1.0,phase_2,go,550.0,500.0,1.0,,,,,,,,,magenta,circle
0.0,2.0,1.0,0.0,6.0,6.0,839.4995959997686,2.0,1.0,phase_2,go,550.0,500.0,1.0,,,,,,,,,green,flipped triangle
0.0,3.0,2.0,0.0,5.0,5.0,595.479689000058,2.0,1.0,phase_2,go,550.0,500.0,1.0,,,,,,,,,cyan,square
0.0,7.0,2.0,1.0,6.0,6.0,303.2095030002892,2.0,1.0,phase_2,go,550.0,500.0,1.0,,,,,,,,,orange,diamond
0.0,4.0,4.0,0.0,5.0,5.0,405.1937739995992,2.0,1.0,phase_2,go,550.0,500.0,1.0,,,,,,,,,magenta,circle
0.0,1.0,0.5,0.0,6.0,6.0,501.2172360002296,2.0,1.0,phase_2,go,550.0,500.0,1.0,,,,,,,,,gray,I
0.0,4.0,4.0,0.0,5.0,5.0,715.2511350004715,2.0,1.0,phase_2,go,550.0,500.0,1.0,,,,,,,,,magenta,circle
0.0,8.0,4.0,1.0,5.0,5.0,906.0137589995064,2.0,1.0,phase_2,go,550.0,500.0,1.0,,,,,,,,,blue,hexagon
0.0,5.0,0.5,1.0,5.0,0.0,0.0,2.0,1.0,phase_2,stop,550.0,500.0,4.0,,,,,,,,,white,cross
0.0,3.0,2.0,0.0,5.0,5.0,736.3194560002739,2.0,1.0,phase_2,go,600.0,500.0,1.0,,,,,,,,,cyan,square
0.0,6.0,1.0,1.0,5.0,5.0,537.3852829998214,2.0,1.0,phase_2,stop,600.0,500.0,3.0,,,,,,,,,yellow,triangle
0.0,7.0,2.0,1.0,6.0,6.0,858.3338380003624,2.0,1.0,phase_2,go,550.0,500.0,1.0,,,,,,,,,orange,diamond
0.0,1.0,0.5,0.0,6.0,6.0,660.5531710001742,2.0,1.0,phase_2,go,550.0,500.0,1.0,,,,,,,,,gray,I
0.0,8.0,4.0,1.0,5.0,0.0,0.0,2.0,1.0,phase_2,stop,550.0,500.0,4.0,,,,,,,,,blue,hexagon
0.0,8.0,4.0,1.0,6.0,0.0,0.0,2.0,1.0,phase_2,stop,600.0,500.0,4.0,,,,,,,,,blue,hexagon
0.0,7.0,2.0,1.0,5.0,0.0,0.0,2.0,1.0,phase_2,stop,600.0,550.0,4.0,,,,,,,,,orange,diamond
0.0,6.0,1.0,1.0,5.0,5.0,820.6004140001824,2.0,1.0,phase_2,go,650.0,550.0,1.0,,,,,,,,,yellow,triangle
0.0,2.0,1.0,0.0,5.0,5.0,813.5619300001053,2.0,1.0,phase_2,go,650.0,550.0,1.0,,,,,,,,,green,flipped triangle
0.0,5.0,0.5,1.0,5.0,5.0,762.4832410001545,2.0,1.0,phase_2,stop,650.0,550.0,3.0,,,,,,,,,white,cross
0.0,6.0,1.0,1.0,6.0,0.0,0.0,2.0,1.0,phase_2,stop,600.0,550.0,4.0,,,,,,,,,yellow,triangle
0.0,4.0,4.0,0.0,6.0,6.0,913.1574000002728,2.0,1.0,phase_2,go,600.0,600.0,1.0,,,,,,,,,magenta,circle
0.0,6.0,1.0,1.0,6.0,0.0,0.0,2.0,1.0,phase_2,stop,600.0,600.0,4.0,,,,,,,,,yellow,triangle
0.0,3.0,2.0,0.0,6.0,6.0,881.4023330005512,2.0,1.0,phase_2,go,600.0,650.0,1.0,,,,,,,,,cyan,square
0.0,5.0,0.5,1.0,5.0,5.0,831.375153999943,2.0,1.0,phase_2,go,600.0,650.0,1.0,,,,,,,,,white,cross
0.0,2.0,1.0,0.0,6.0,6.0,369.6763669995562,2.0,1.0,phase_2,go,600.0,650.0,1.0,,,,,,,,,green,flipped triangle
0.0,1.0,0.5,0.0,6.0,6.0,501.782540000022,2.0,1.0,phase_2,go,600.0,650.0,1.0,,,,,,,,,gray,I
0.0,6.0,1.0,1.0,6.0,6.0,671.9015279995801,3.0,1.0,phase_2,go,600.0,650.0,1.0,,,,,,,,,yellow,triangle
0.0,7.0,2.0,1.0,5.0,5.0,677.6493770003071,3.0,1.0,phase_2,stop,600.0,650.0,3.0,,,,,,,,,orange,diamond
0.0,1.0,0.5,0.0,5.0,5.0,651.3917130005211,3.0,1.0,phase_2,go,550.0,650.0,1.0,,,,,,,,,gray,I
0.0,2.0,1.0,0.0,6.0,6.0,526.7909710000822,3.0,1.0,phase_2,go,550.0,650.0,1.0,,,,,,,,,green,flipped triangle
0.0,7.0,2.0,1.0,6.0,6.0,623.16896899938,3.0,1.0,phase_2,stop,550.0,650.0,3.0,,,,,,,,,orange,diamond
0.0,3.0,2.0,0.0,5.0,5.0,510.45245100067405,3.0,1.0,phase_2,go,550.0,600.0,1.0,,,,,,,,,cyan,square
0.0,7.0,2.0,1.0,5.0,5.0,704.4776900002034,3.0,1.0,phase_2,stop,550.0,600.0,3.0,,,,,,,,,orange,diamond
0.0,5.0,0.5,1.0,5.0,0.0,0.0,3.0,1.0,phase_2,stop,500.0,600.0,4.0,,,,,,,,,white,cross
0.0,7.0,2.0,1.0,5.0,5.0,802.8489270000136,3.0,1.0,phase_2,go,550.0,600.0,1.0,,,,,,,,,orange,diamond
0.0,4.0,4.0,0.0,5.0,5.0,754.3384639993747,3.0,1.0,phase_2,go,550.0,600.0,1.0,,,,,,,,,magenta,circle
0.0,2.0,1.0,0.0,5.0,5.0,689.6155790000194,3.0,1.0,phase_2,go,550.0,600.0,1.0,,,,,,,,,green,flipped triangle
0.0,6.0,1.0,1.0,5.0,5.0,721.823227000641,3.0,1.0,phase_2,stop,550.0,600.0,3.0,,,,,,,,,yellow,triangle
0.0,8.0,4.0,1.0,5.0,5.0,794.2418369993902,3.0,1.0,phase_2,go,500.0,600.0,1.0,,,,,,,,,blue,hexagon
0.0,8.0,4.0,1.0,6.0,6.0,658.1494479996763,3.0,1.0,phase_2,stop,500.0,600.0,3.0,,,,,,,,,blue,hexagon
0.0,8.0,4.0,1.0,5.0,0.0,0.0,3.0,1.0,phase_2,stop,500.0,550.0,4.0,,,,,,,,,blue,hexagon
0.0,7.0,2.0,1.0,6.0,0.0,0.0,3.0,1.0,phase_2,stop,550.0,550.0,4.0,,,,,,,,,orange,diamond
0.0,3.0,2.0,0.0,5.0,5.0,971.3110509992476,3.0,1.0,phase_2,go,550.0,600.0,1.0,,,,,,,,,cyan,square
0.0,8.0,4.0,1.0,6.0,6.0,773.5820349998903,3.0,1.0,phase_2,go,550.0,600.0,1.0,,,,,,,,,blue,hexagon
0.0,7.0,2.0,1.0,5.0,0.0,0.0,3.0,1.0,phase_2,stop,550.0,600.0,4.0,,,,,,,,,orange,diamond
0.0,7.0,2.0,1.0,5.0,0.0,0.0,3.0,1.0,phase_2,stop,600.0,600.0,4.0,,,,,,,,,orange,diamond
0.0,3.0,2.0,0.0,6.0,6.0,821.7637710004055,3.0,1.0,phase_2,go,650.0,600.0,1.0,,,,,,,,,cyan,square
0.0,1.0,0.5,0.0,6.0,6.0,698.9369379998607,3.0,1.0,phase_2,go,650.0,600.0,1.0,,,,,,,,,gray,I
0.0,5.0,0.5,1.0,5.0,0.0,0.0,3.0,1.0,phase_2,stop,650.0,600.0,4.0,,,,,,,,,white,cross
0.0,5.0,0.5,1.0,5.0,5.0,859.311094000077,3.0,1.0,phase_2,go,700.0,600.0,1.0,,,,,,,,,white,cross
0.0,2.0,1.0,0.0,6.0,6.0,663.4558859996105,3.0,1.0,phase_2,go,700.0,600.0,1.0,,,,,,,,,green,flipped triangle
0.0,7.0,2.0,1.0,6.0,0.0,0.0,3.0,1.0,phase_2,stop,700.0,600.0,4.0,,,,,,,,,orange,diamond
0.0,4.0,4.0,0.0,6.0,6.0,737.0709619999616,3.0,1.0,phase_2,go,700.0,650.0,1.0,,,,,,,,,magenta,circle
0.0,6.0,1.0,1.0,5.0,5.0,824.5797170002334,3.0,1.0,phase_2,stop,700.0,650.0,3.0,,,,,,,,,yellow,triangle
0.0,3.0,2.0,0.0,6.0,6.0,876.9641709995994,3.0,1.0,phase_2,go,650.0,650.0,1.0,,,,,,,,,cyan,square
0.0,5.0,0.5,1.0,6.0,0.0,0.0,3.0,1.0,phase_2,stop,650.0,650.0,4.0,,,,,,,,,white,cross
0.0,5.0,0.5,1.0,6.0,6.0,846.2292000003799,3.0,1.0,phase_2,stop,650.0,700.0,3.0,,,,,,,,,white,cross
0.0,8.0,4.0,1.0,6.0,0.0,0.0,3.0,1.0,phase_2,stop,650.0,650.0,4.0,,,,,,,,,blue,hexagon
0.0,4.0,4.0,0.0,6.0,6.0,856.3921710001523,3.0,1.0,phase_2,go,650.0,700.0,1.0,,,,,,,,,magenta,circle
0.0,7.0,2.0,1.0,6.0,6.0,833.7219999993977,3.0,1.0,phase_2,stop,650.0,700.0,3.0,,,,,,,,,orange,diamond
0.0,3.0,2.0,0.0,6.0,6.0,980.434250000144,3.0,1.0,phase_2,go,650.0,650.0,1.0,,,,,,,,,cyan,square
0.0,5.0,0.5,1.0,6.0,0.0,0.0,3.0,1.0,phase_2,stop,650.0,650.0,4.0,,,,,,,,,white,cross
0.0,2.0,1.0,0.0,6.0,6.0,690.133066999806,4.0,1.0,phase_2,go,650.0,700.0,1.0,,,,,,,,,green,flipped triangle
0.0,2.0,1.0,0.0,6.0,6.0,793.1932730007247,4.0,1.0,phase_2,go,650.0,700.0,1.0,,,,,,,,,green,flipped triangle
0.0,2.0,1.0,0.0,5.0,5.0,1010.3270830004476,4.0,1.0,phase_2,go,650.0,700.0,1.0,,,,,,,,,green,flipped triangle
0.0,1.0,0.5,0.0,5.0,5.0,1009.029494999595,4.0,1.0,phase_2,go,650.0,700.0,1.0,,,,,,,,,gray,I
0.0,7.0,2.0,1.0,6.0,6.0,869.9349839998831,4.0,1.0,phase_2,stop,650.0,700.0,3.0,,,,,,,,,orange,diamond
0.0,1.0,0.5,0.0,5.0,5.0,875.6996949996392,4.0,1.0,phase_2,go,650.0,650.0,1.0,,,,,,,,,gray,I
0.0,3.0,2.0,0.0,5.0,5.0,1046.640939000099,4.0,1.0,phase_2,go,650.0,650.0,1.0,,,,,,,,,cyan,square
0.0,5.0,0.5,1.0,5.0,5.0,942.227946999992,4.0,1.0,phase_2,go,650.0,650.0,1.0,,,,,,,,,white,cross
0.0,7.0,2.0,1.0,6.0,0.0,0.0,4.0,1.0,phase_2,stop,650.0,650.0,4.0,,,,,,,,,orange,diamond
0.0,1.0,0.5,0.0,5.0,5.0,1046.3272599999982,4.0,1.0,phase_2,go,650.0,700.0,1.0,,,,,,,,,gray,I
0.0,8.0,4.0,1.0,5.0,5.0,952.9869630005124,4.0,1.0,phase_2,go,650.0,700.0,1.0,,,,,,,,,blue,hexagon
0.0,5.0,0.5,1.0,6.0,6.0,871.8398540004273,4.0,1.0,phase_2,stop,650.0,700.0,3.0,,,,,,,,,white,cross
0.0,8.0,4.0,1.0,6.0,0.0,0.0,4.0,1.0,phase_2,stop,650.0,650.0,4.0,,,,,,,,,blue,hexagon
0.0,5.0,0.5,1.0,5.0,0.0,0.0,4.0,1.0,phase_2,stop,650.0,700.0,4.0,,,,,,,,,white,cross
0.0,4.0,4.0,0.0,5.0,5.0,968.49469100016,4.0,1.0,phase_2,go,700.0,700.0,1.0,,,,,,,,,magenta,circle
0.0,2.0,1.0,0.0,5.0,5.0,1001.2580050006363,4.0,1.0,phase_2,go,700.0,700.0,1.0,,,,,,,,,green,flipped triangle
0.0,6.0,1.0,1.0,5.0,5.0,489.4207359993743,4.0,1.0,phase_2,stop,700.0,700.0,3.0,,,,,,,,,yellow,triangle
0.0,8.0,4.0,1.0,5.0,5.0,602.9161230007958,4.0,1.0,phase_2,stop,650.0,700.0,3.0,,,,,,,,,blue,hexagon
0.0,3.0,2.0,0.0,6.0,6.0,1027.7681940006005,4.0,1.0,phase_2,go,600.0,700.0,1.0,,,,,,,,,cyan,square
0.0,8.0,4.0,1.0,5.0,0.0,0.0,4.0,1.0,phase_2,stop,600.0,700.0,4.0,,,,,,,,,blue,hexagon
0.0,8.0,4.0,1.0,5.0,0.0,0.0,4.0,1.0,phase_2,stop,650.0,700.0,4.0,,,,,,,,,blue,hexagon
0.0,2.0,1.0,0.0,5.0,5.0,1132.002029999967,4.0,1.0,phase_2,go,700.0,700.0,1.0,,,,,,,,,green,flipped triangle
0.0,7.0,2.0,1.0,5.0,0.0,0.0,4.0,1.0,phase_2,stop,700.0,700.0,4.0,,,,,,,,,orange,diamond
0.0,5.0,0.5,1.0,5.0,0.0,0.0,4.0,1.0,phase_2,stop,750.0,700.0,4.0,,,,,,,,,white,cross
0.0,4.0,4.0,0.0,6.0,6.0,897.2799650000525,4.0,1.0,phase_2,go,800.0,700.0,1.0,,,,,,,,,magenta,circle
0.0,2.0,1.0,0.0,5.0,5.0,1167.3355220000303,4.0,1.0,phase_2,go,800.0,700.0,1.0,,,,,,,,,green,flipped triangle
0.0,5.0,0.5,1.0,6.0,0.0,0.0,4.0,1.0,phase_2,stop,800.0,700.0,4.0,,,,,,,,,white,cross
0.0,1.0,0.5,0.0,6.0,6.0,1091.9683330002954,4.0,1.0,phase_2,go,800.0,750.0,1.0,,,,,,,,,gray,I
0.0,2.0,1.0,0.0,6.0,6.0,1142.7764130003195,4.0,1.0,phase_2,go,800.0,750.0,1.0,,,,,,,,,green,flipped triangle
0.0,2.0,1.0,0.0,6.0,6.0,828.4511019992351,4.0,1.0,phase_2,go,800.0,750.0,1.0,,,,,,,,,green,flipped triangle
0.0,3.0,2.0,0.0,5.0,5.0,1008.8661050003791,4.0,1.0,phase_2,go,800.0,750.0,1.0,,,,,,,,,cyan,square
0.0,7.0,2.0,1.0,5.0,5.0,756.2655970004926,4.0,1.0,phase_2,go,800.0,750.0,1.0,,,,,,,,,orange,diamond
0.0,6.0,1.0,1.0,5.0,5.0,794.1470309997385,4.0,1.0,phase_2,stop,800.0,750.0,3.0,,,,,,,,,yellow,triangle
0.0,2.0,1.0,0.0,5.0,5.0,1150.220857000022,4.0,1.0,phase_2,go,750.0,750.0,1.0,,,,,,,,,green,flipped triangle
0.0,3.0,2.0,0.0,5.0,5.0,1150.6491609998193,4.0,1.0,phase_2,go,750.0,750.0,1.0,,,,,,,,,cyan,square
0.0,8.0,4.0,1.0,6.0,6.0,1084.0675540002849,4.0,1.0,phase_2,go,750.0,750.0,1.0,,,,,,,,,blue,hexagon
0.0,7.0,2.0,1.0,6.0,6.0,799.7308679996422,5.0,1.0,phase_2,stop,750.0,750.0,3.0,,,,,,,,,orange,diamond
0.0,7.0,2.0,1.0,5.0,0.0,0.0,5.0,1.0,phase_2,stop,750.0,700.0,4.0,,,,,,,,,orange,diamond
0.0,6.0,1.0,1.0,6.0,0.0,0.0,5.0,1.0,phase_2,stop,800.0,700.0,4.0,,,,,,,,,yellow,triangle
0.0,3.0,2.0,0.0,5.0,5.0,770.382509999763,5.0,1.0,phase_2,go,800.0,750.0,1.0,,,,,,,,,cyan,square
0.0,3.0,2.0,0.0,5.0,5.0,741.6417019994697,5.0,1.0,phase_2,go,800.0,750.0,1.0,,,,,,,,,cyan,square
0.0,4.0,4.0,0.0,5.0,5.0,935.4019250004058,5.0,1.0,phase_2,go,800.0,750.0,1.0,,,,,,,,,magenta,circle
0.0,1.0,0.5,0.0,6.0,6.0,368.9225600001009,5.0,1.0,phase_2,go,800.0,750.0,1.0,,,,,,,,,gray,I
0.0,2.0,1.0,0.0,5.0,5.0,888.2752469999105,5.0,1.0,phase_2,go,800.0,750.0,1.0,,,,,,,,,green,flipped triangle
0.0,5.0,0.5,1.0,6.0,0.0,0.0,5.0,1.0,phase_2,stop,800.0,750.0,4.0,,,,,,,,,white,cross
0.0,6.0,1.0,1.0,5.0,5.0,982.7083059999496,5.0,1.0,phase_2,go,800.0,800.0,1.0,,,,,,,,,yellow,triangle
0.0,5.0,0.5,1.0,6.0,6.0,1011.0556139998153,5.0,1.0,phase_2,stop,800.0,800.0,3.0,,,,,,,,,white,cross
0.0,4.0,4.0,0.0,6.0,6.0,1049.8806410005272,5.0,1.0,phase_2,go,800.0,750.0,1.0,,,,,,,,,magenta,circle
0.0,6.0,1.0,1.0,5.0,5.0,1295.291953000742,5.0,1.0,phase_2,go,800.0,750.0,1.0,,,,,,,,,yellow,triangle
0.0,8.0,4.0,1.0,6.0,6.0,797.9598639994947,5.0,1.0,phase_2,stop,800.0,750.0,3.0,,,,,,,,,blue,hexagon
0.0,7.0,2.0,1.0,6.0,0.0,0.0,5.0,1.0,phase_2,stop,800.0,700.0,4.0,,,,,,,,,orange,diamond
0.0,3.0,2.0,0.0,5.0,5.0,1041.8156840005397,5.0,1.0,phase_2,go,800.0,750.0,1.0,,,,,,,,,cyan,square
0.0,5.0,0.5,1.0,6.0,6.0,1275.2354110007218,5.0,1.0,phase_2,go,800.0,750.0,1.0,,,,,,,,,white,cross
0.0,5.0,0.5,1.0,6.0,0.0,0.0,5.0,1.0,phase_2,stop,800.0,750.0,4.0,,,,,,,,,white,cross
0.0,8.0,4.0,1.0,6.0,0.0,0.0,5.0,1.0,phase_2,stop,800.0,800.0,4.0,,,,,,,,,blue,hexagon
0.0,1.0,0.5,0.0,6.0,6.0,1182.2928439996758,5.0,1.0,phase_2,go,800.0,850.0,1.0,,,,,,,,,gray,I
0.0,1.0,0.5,0.0,5.0,5.0,1277.1436049997646,5.0,1.0,phase_2,go,800.0,850.0,1.0,,,,,,,,,gray,I
0.0,1.0,0.5,0.0,6.0,6.0,1332.9847710001561,5.0,1.0,phase_2,go,800.0,850.0,1.0,,,,,,,,,gray,I
0.0,2.0,1.0,0.0,6.0,6.0,492.0493180006815,5.0,1.0,phase_2,go,800.0,850.0,1.0,,,,,,,,,green,flipped triangle
0.0,6.0,1.0,1.0,6.0,6.0,1019.2793800006257,5.0,1.0,phase_2,stop,800.0,850.0,3.0,,,,,,,,,yellow,triangle
0.0,7.0,2.0,1.0,6.0,0.0,0.0,5.0,1.0,phase_2,stop,800.0,800.0,4.0,,,,,,,,,orange,diamond
0.0,3.0,2.0,0.0,6.0,6.0,1151.974230999258,5.0,1.0,phase_2,go,800.0,850.0,1.0,,,,,,,,,cyan,square
0.0,3.0,2.0,0.0,6.0,6.0,1098.2937380003932,5.0,1.0,phase_2,go,800.0,850.0,1.0,,,,,,,,,cyan,square
0.0,7.0,2.0,1.0,6.0,6.0,1203.0137250003463,5.0,1.0,phase_2,go,800.0,850.0,1.0,,,,,,,,,orange,diamond
0.0,3.0,2.0,0.0,5.0,5.0,1089.176081000005,5.0,1.0,phase_2,go,800.0,850.0,1.0,,,,,,,,,cyan,square
0.0,3.0,2.0,0.0,6.0,6.0,1251.4556449996237,5.0,1.0,phase_2,go,800.0,850.0,1.0,,,,,,,,,cyan,square
0.0,8.0,4.0,1.0,6.0,6.0,1001.6526819999854,5.0,1.0,phase_2,stop,800.0,850.0,3.0,,,,,,,,,blue,hexagon
0.0,4.0,4.0,0.0,5.0,5.0,1032.7602000006664,5.0,1.0,phase_2,go,800.0,800.0,1.0,,,,,,,,,magenta,circle
0.0,1.0,0.5,0.0,6.0,6.0,878.8008110004739,5.0,1.0,phase_2,go,800.0,800.0,1.0,,,,,,,,,gray,I
0.0,5.0,0.5,1.0,5.0,5.0,1316.938590999598,5.0,1.0,phase_2,go,800.0,800.0,1.0,,,,,,,,,white,cross
0.0,1.0,0.5,0.0,5.0,5.0,416.4922529998875,5.0,1.0,phase_2,go,800.0,800.0,1.0,,,,,,,,,gray,I
0.0,3.0,2.0,0.0,6.0,6.0,1305.7446000002528,5.0,1.0,phase_2,go,800.0,800.0,1.0,,,,,,,,,cyan,square
0.0,6.0,1.0,1.0,6.0,6.0,601.9210260001273,6.0,1.0,phase_2,stop,800.0,800.0,3.0,,,,,,,,,yellow,triangle
0.0,2.0,1.0,0.0,6.0,6.0,387.2910039999624,6.0,1.0,phase_2,go,800.0,750.0,1.0,,,,,,,,,green,flipped triangle
0.0,3.0,2.0,0.0,6.0,6.0,416.4314839999861,6.0,1.0,phase_2,go,800.0,750.0,1.0,,,,,,,,,cyan,square
0.0,1.0,0.5,0.0,6.0,6.0,585.0990089993502,6.0,1.0,phase_2,go,800.0,750.0,1.0,,,,,,,,,gray,I
0.0,1.0,0.5,0.0,5.0,5.0,473.213719999876,6.0,1.0,phase_2,go,800.0,750.0,1.0,,,,,,,,,gray,I
0.0,6.0,1.0,1.0,5.0,5.0,473.2934829999067,6.0,1.0,phase_2,stop,800.0,750.0,3.0,,,,,,,,,yellow,triangle
0.0,6.0,1.0,1.0,6.0,6.0,369.0033590000894,6.0,1.0,phase_2,stop,750.0,750.0,3.0,,,,,,,,,yellow,triangle
0.0,4.0,4.0,0.0,6.0,6.0,688.3447579994026,6.0,1.0,phase_2,go,750.0,700.0,1.0,,,,,,,,,magenta,circle
0.0,5.0,0.5,1.0,5.0,5.0,593.7477540001055,6.0,1.0,phase_2,stop,750.0,700.0,3.0,,,,,,,,,white,cross
0.0,8.0,4.0,1.0,5.0,5.0,914.0410760001032,6.0,1.0,phase_2,stop,700.0,700.0,3.0,,,,,,,,,blue,hexagon
0.0,6.0,1.0,1.0,5.0,0.0,0.0,6.0,1.0,phase_2,stop,650.0,700.0,4.0,,,,,,,,,yellow,triangle
0.0,4.0,4.0,0.0,6.0,6.0,660.3401239999585,6.0,1.0,phase_2,go,700.0,700.0,1.0,,,,,,,,,magenta,circle
0.0,8.0,4.0,1.0,5.0,5.0,624.0189700001793,6.0,1.0,phase_2,stop,700.0,700.0,3.0,,,,,,,,,blue,hexagon
0.0,2.0,1.0,0.0,5.0,5.0,540.0241879997338,6.0,1.0,phase_2,go,650.0,700.0,1.0,,,,,,,,,green,flipped triangle
0.0,7.0,2.0,1.0,5.0,5.0,700.905726000201,6.0,1.0,phase_2,stop,650.0,700.0,3.0,,,,,,,,,orange,diamond
0.0,4.0,4.0,0.0,6.0,6.0,784.1209460002574,6.0,1.0,phase_2,go,600.0,700.0,1.0,,,,,,,,,magenta,circle
0.0,6.0,1.0,1.0,5.0,5.0,483.0975340000805,6.0,1.0,phase_2,stop,600.0,700.0,3.0,,,,,,,,,yellow,triangle
0.0,4.0,4.0,0.0,5.0,5.0,746.5282880002633,6.0,1.0,phase_2,go,550.0,700.0,1.0,,,,,,,,,magenta,circle
0.0,8.0,4.0,1.0,5.0,5.0,658.0172149997452,6.0,1.0,phase_2,stop,550.0,700.0,3.0,,,,,,,,,blue,hexagon
0.0,3.0,2.0,0.0,6.0,6.0,831.9350579995444,6.0,1.0,phase_2,go,500.0,700.0,1.0,,,,,,,,,cyan,square
0.0,8.0,4.0,1.0,5.0,0.0,0.0,6.0,1.0,phase_2,stop,500.0,700.0,4.0,,,,,,,,,blue,hexagon
0.0,1.0,0.5,0.0,6.0,6.0,700.9842030001892,6.0,1.0,phase_2,go,550.0,700.0,1.0,,,,,,,,,gray,I
0.0,5.0,0.5,1.0,6.0,6.0,837.7124589997038,6.0,1.0,phase_2,stop,550.0,700.0,3.0,,,,,,,,,white,cross
0.0,4.0,4.0,0.0,5.0,5.0,1122.630207999464,6.0,1.0,phase_2,go,550.0,650.0,1.0,,,,,,,,,magenta,circle
0.0,7.0,2.0,1.0,6.0,6.0,301.7485209993538,6.0,1.0,phase_2,go,550.0,650.0,1.0,,,,,,,,,orange,diamond
0.0,4.0,4.0,0.0,6.0,6.0,397.4059459997079,6.0,1.0,phase_2,go,550.0,650.0,1.0,,,,,,,,,magenta,circle
0.0,1.0,0.5,0.0,5.0,5.0,238.150750999921,6.0,1.0,phase_2,go,550.0,650.0,1.0,,,,,,,,,gray,I
0.0,2.0,1.0,0.0,5.0,5.0,660.8856580005522,6.0,1.0,phase_2,go,550.0,650.0,1.0,,,,,,,,,green,flipped triangle
0.0,8.0,4.0,1.0,6.0,6.0,576.2074920003215,6.0,1.0,phase_2,stop,550.0,650.0,3.0,,,,,,,,,blue,hexagon
0.0,4.0,4.0,0.0,6.0,6.0,329.7396719999597,6.0,1.0,phase_2,go,550.0,600.0,1.0,,,,,,,,,magenta,circle
0.0,3.0,2.0,0.0,5.0,5.0,539.9069550003333,6.0,1.0,phase_2,go,550.0,600.0,1.0,,,,,,,,,cyan,square
0.0,1.0,0.5,0.0,5.0,5.0,529.0229430002,6.0,1.0,phase_2,go,550.0,600.0,1.0,,,,,,,,,gray,I
0.0,5.0,0.5,1.0,6.0,6.0,406.8886209997799,6.0,1.0,phase_2,stop,550.0,600.0,3.0,,,,,,,,,white,cross
0.0,8.0,4.0,1.0,6.0,6.0,653.1491159994403,6.0,1.0,phase_2,go,550.0,550.0,1.0,,,,,,,,,blue,hexagon
0.0,4.0,4.0,0.0,6.0,6.0,568.4557389995462,6.0,1.0,phase_2,go,550.0,550.0,1.0,,,,,,,,,magenta,circle
0.0,2.0,1.0,0.0,5.0,5.0,462.7205710003181,6.0,1.0,phase_2,go,550.0,550.0,1.0,,,,,,,,,green,flipped triangle
0.0,2.0,1.0,0.0,5.0,5.0,490.8798449996538,7.0,1.0,phase_2,go,550.0,550.0,1.0,,,,,,,,,green,flipped triangle
0.0,1.0,0.5,0.0,5.0,5.0,349.0800729996408,7.0,1.0,phase_2,go,550.0,550.0,1.0,,,,,,,,,gray,I
0.0,1.0,0.5,0.0,5.0,5.0,350.4548519995296,7.0,1.0,phase_2,go,550.0,550.0,1.0,,,,,,,,,gray,I
0.0,2.0,1.0,0.0,5.0,5.0,368.9798470004461,7.0,1.0,phase_2,go,550.0,550.0,1.0,,,,,,,,,green,flipped triangle
0.0,6.0,1.0,1.0,6.0,6.0,463.2766910008286,7.0,1.0,phase_2,go,550.0,550.0,1.0,,,,,,,,,yellow,triangle
0.0,5.0,0.5,1.0,5.0,5.0,759.4480819998353,7.0,1.0,phase_2,stop,550.0,550.0,3.0,,,,,,,,,white,cross
0.0,6.0,1.0,1.0,6.0,0.0,0.0,7.0,1.0,phase_2,stop,500.0,550.0,4.0,,,,,,,,,yellow,triangle
0.0,5.0,0.5,1.0,6.0,6.0,772.3679150003591,7.0,1.0,phase_2,stop,500.0,600.0,3.0,,,,,,,,,white,cross
0.0,3.0,2.0,0.0,6.0,6.0,837.9017979996206,7.0,1.0,phase_2,go,500.0,550.0,1.0,,,,,,,,,cyan,square
0.0,7.0,2.0,1.0,5.0,5.0,554.8567810001259,7.0,1.0,phase_2,stop,500.0,550.0,3.0,,,,,,,,,orange,diamond
0.0,4.0,4.0,0.0,5.0,5.0,340.6474340008572,7.0,1.0,phase_2,go,450.0,550.0,1.0,,,,,,,,,magenta,circle
0.0,4.0,4.0,0.0,5.0,5.0,489.5115670005907,7.0,1.0,phase_2,go,450.0,550.0,1.0,,,,,,,,,magenta,circle
0.0,2.0,1.0,0.0,6.0,6.0,490.8889799999087,7.0,1.0,phase_2,go,450.0,550.0,1.0,,,,,,,,,green,flipped triangle
0.0,2.0,1.0,0.0,5.0,5.0,321.6318730001148,7.0,1.0,phase_2,go,450.0,550.0,1.0,,,,,,,,,green,flipped triangle
0.0,3.0,2.0,0.0,6.0,6.0,339.1150859997651,7.0,1.0,phase_2,go,450.0,550.0,1.0,,,,,,,,,cyan,square
0.0,5.0,0.5,1.0,6.0,6.0,330.5670859999736,7.0,1.0,phase_2,go,450.0,550.0,1.0,,,,,,,,,white,cross
0.0,3.0,2.0,0.0,5.0,5.0,283.9547269995819,7.0,1.0,phase_2,go,450.0,550.0,1.0,,,,,,,,,cyan,square
0.0,4.0,4.0,0.0,5.0,5.0,318.9426290000483,7.0,1.0,phase_2,go,450.0,550.0,1.0,,,,,,,,,magenta,circle
0.0,5.0,0.5,1.0,6.0,6.0,423.5949750000145,7.0,1.0,phase_2,stop,450.0,550.0,3.0,,,,,,,,,white,cross
0.0,3.0,2.0,0.0,6.0,6.0,903.0538159995558,7.0,1.0,phase_2,go,450.0,500.0,1.0,,,,,,,,,cyan,square
0.0,5.0,0.5,1.0,5.0,5.0,310.7136979997449,7.0,1.0,phase_2,stop,450.0,500.0,3.0,,,,,,,,,white,cross
0.0,4.0,4.0,0.0,6.0,6.0,556.1100319991965,7.0,1.0,phase_2,go,400.0,500.0,1.0,,,,,,,,,magenta,circle
0.0,7.0,2.0,1.0,5.0,5.0,283.2430070002374,7.0,1.0,phase_2,go,400.0,500.0,1.0,,,,,,,,,orange,diamond
0.0,6.0,1.0,1.0,5.0,5.0,227.3911910006063,7.0,1.0,phase_2,stop,400.0,500.0,3.0,,,,,,,,,yellow,triangle
0.0,5.0,0.5,1.0,6.0,6.0,406.2958509994132,7.0,1.0,phase_2,stop,350.0,500.0,3.0,,,,,,,,,white,cross
0.0,2.0,1.0,0.0,5.0,5.0,697.7609060004397,7.0,1.0,phase_2,go,350.0,450.0,1.0,,,,,,,,,green,flipped triangle
0.0,3.0,2.0,0.0,6.0,6.0,490.4456520007443,7.0,1.0,phase_2,go,350.0,450.0,1.0,,,,,,,,,cyan,square
0.0,6.0,1.0,1.0,6.0,6.0,339.597557000161,7.0,1.0,phase_2,stop,350.0,450.0,3.0,,,,,,,,,yellow,triangle
0.0,8.0,4.0,1.0,6.0,6.0,320.9316379998199,7.0,1.0,phase_2,stop,350.0,400.0,3.0,,,,,,,,,blue,hexagon
0.0,7.0,2.0,1.0,5.0,0.0,0.0,7.0,1.0,phase_2,stop,350.0,350.0,4.0,,,,,,,,,orange,diamond
0.0,3.0,2.0,0.0,6.0,6.0,526.9955920002758,7.0,1.0,phase_2,go,400.0,350.0,1.0,,,,,,,,,cyan,square
0.0,8.0,4.0,1.0,6.0,0.0,0.0,7.0,1.0,phase_2,stop,400.0,350.0,4.0,,,,,,,,,blue,hexagon
0.0,4.0,4.0,0.0,6.0,6.0,528.2574780003415,7.0,1.0,phase_2,go,400.0,400.0,1.0,,,,,,,,,magenta,circle
0.0,6.0,1.0,1.0,5.0,5.0,348.9473249992443,7.0,1.0,phase_2,go,400.0,400.0,1.0,,,,,,,,,yellow,triangle
0.0,7.0,2.0,1.0,5.0,5.0,487.9998129999876,7.0,1.0,phase_2,stop,400.0,400.0,3.0,,,,,,,,,orange,diamond
0.0,6.0,1.0,1.0,5.0,0.0,0.0,7.0,1.0,phase_2,stop,350.0,400.0,4.0,,,,,,,,,yellow,triangle
0.0,5.0,0.5,1.0,5.0,5.0,449.6949120002682,8.0,1.0,phase_2,stop,400.0,400.0,3.0,,,,,,,,,white,cross
0.0,2.0,1.0,0.0,5.0,5.0,312.0894730000145,8.0,1.0,phase_2,go,350.0,400.0,1.0,,,,,,,,,green,flipped triangle
0.0,5.0,0.5,1.0,5.0,5.0,405.3703010004028,8.0,1.0,phase_2,go,350.0,400.0,1.0,,,,,,,,,white,cross
0.0,8.0,4.0,1.0,6.0,6.0,263.6808590004875,8.0,1.0,phase_2,stop,350.0,400.0,3.0,,,,,,,,,blue,hexagon
0.0,2.0,1.0,0.0,6.0,6.0,283.3224639998661,8.0,1.0,phase_2,go,350.0,350.0,1.0,,,,,,,,,green,flipped triangle
0.0,8.0,4.0,1.0,6.0,6.0,527.3972020004294,8.0,1.0,phase_2,go,350.0,350.0,1.0,,,,,,,,,blue,hexagon
0.0,4.0,4.0,0.0,5.0,5.0,358.6301819996151,8.0,1.0,phase_2,go,350.0,350.0,1.0,,,,,,,,,magenta,circle
0.0,3.0,2.0,0.0,5.0,5.0,255.971918000796,8.0,1.0,phase_2,go,350.0,350.0,1.0,,,,,,,,,cyan,square
0.0,6.0,1.0,1.0,5.0,5.0,236.0983549997399,8.0,1.0,phase_2,stop,350.0,350.0,3.0,,,,,,,,,yellow,triangle
0.0,1.0,0.5,0.0,5.0,5.0,471.1855719997402,8.0,1.0,phase_2,go,300.0,350.0,1.0,,,,,,,,,gray,I
0.0,1.0,0.5,0.0,5.0,5.0,774.2260450004324,8.0,1.0,phase_2,go,300.0,350.0,1.0,,,,,,,,,gray,I
0.0,1.0,0.5,0.0,5.0,5.0,302.3522209996372,8.0,1.0,phase_2,go,300.0,350.0,1.0,,,,,,,,,gray,I
0.0,8.0,4.0,1.0,5.0,5.0,283.9326430002984,8.0,1.0,phase_2,stop,300.0,350.0,3.0,,,,,,,,,blue,hexagon
0.0,7.0,2.0,1.0,5.0,5.0,536.0938909998367,8.0,1.0,phase_2,go,250.0,350.0,1.0,,,,,,,,,orange,diamond
0.0,4.0,4.0,0.0,5.0,5.0,480.7147090004946,8.0,1.0,phase_2,go,250.0,350.0,1.0,,,,,,,,,magenta,circle
0.0,4.0,4.0,0.0,5.0,5.0,386.1305089994857,8.0,1.0,phase_2,go,250.0,350.0,1.0,,,,,,,,,magenta,circle
0.0,5.0,0.5,1.0,5.0,5.0,387.8206899998986,8.0,1.0,phase_2,go,250.0,350.0,1.0,,,,,,,,,white,cross
0.0,2.0,1.0,0.0,6.0,6.0,311.7820570005278,8.0,1.0,phase_2,go,250.0,350.0,1.0,,,,,,,,,green,flipped triangle
0.0,4.0,4.0,0.0,6.0,6.0,341.2261009998474,8.0,1.0,phase_2,go,250.0,350.0,1.0,,,,,,,,,magenta,circle
0.0,2.0,1.0,0.0,6.0,6.0,706.8669350001073,8.0,1.0,phase_2,go,250.0,350.0,1.0,,,,,,,,,green,flipped triangle
0.0,6.0,1.0,1.0,6.0,6.0,498.0261109994899,8.0,1.0,phase_2,stop,250.0,350.0,3.0,,,,,,,,,yellow,triangle
0.0,3.0,2.0,0.0,5.0,5.0,564.2789470002754,8.0,1.0,phase_2,go,250.0,300.0,1.0,,,,,,,,,cyan,square
0.0,7.0,2.0,1.0,5.0,5.0,295.1658990004944,8.0,1.0,phase_2,stop,250.0,300.0,3.0,,,,,,,,,orange,diamond
0.0,2.0,1.0,0.0,6.0,6.0,526.0974369994074,8.0,1.0,phase_2,go,200.0,300.0,1.0,,,,,,,,,green,flipped triangle
0.0,1.0,0.5,0.0,6.0,6.0,301.9246100002419,8.0,1.0,phase_2,go,200.0,300.0,1.0,,,,,,,,,gray,I
0.0,1.0,0.5,0.0,5.0,5.0,302.7888579999853,8.0,1.0,phase_2,go,200.0,300.0,1.0,,,,,,,,,gray,I
0.0,4.0,4.0,0.0,5.0,5.0,284.1306219997932,8.0,1.0,phase_2,go,200.0,300.0,1.0,,,,,,,,,magenta,circle
0.0,7.0,2.0,1.0,6.0,6.0,291.3657139997667,8.0,1.0,phase_2,stop,200.0,300.0,3.0,,,,,,,,,orange,diamond
0.0,1.0,0.5,0.0,5.0,5.0,348.310056999253,8.0,1.0,phase_2,go,200.0,250.0,1.0,,,,,,,,,gray,I
0.0,8.0,4.0,1.0,6.0,6.0,287.1437419998983,8.0,1.0,phase_2,stop,200.0,250.0,3.0,,,,,,,,,blue,hexagon
0.0,3.0,2.0,0.0,6.0,6.0,320.5693909994807,8.0,1.0,phase_2,go,200.0,200.0,1.0,,,,,,,,,cyan,square
0.0,1.0,0.5,0.0,5.0,5.0,489.0723260004961,8.0,1.0,phase_2,go,200.0,200.0,1.0,,,,,,,,,gray,I
0.0,7.0,2.0,1.0,5.0,5.0,254.4527899999593,8.0,1.0,phase_2,stop,200.0,200.0,3.0,,,,,,,,,orange,diamond
0.0,4.0,4.0,0.0,6.0,6.0,340.5131899999105,8.0,1.0,phase_2,go,150.0,200.0,1.0,,,,,,,,,magenta,circle
0.0,7.0,2.0,1.0,6.0,6.0,324.1558839999925,8.0,1.0,phase_2,stop,150.0,200.0,3.0,,,,,,,,,orange,diamond
0.0,1.0,0.5,0.0,6.0,6.0,508.9044809992629,8.0,1.0,phase_2,go,150.0,150.0,1.0,,,,,,,,,gray,I
0.0,7.0,2.0,1.0,7.0,2.0,3375.262037999164,1.0,1.0,phase_3,,,,,960.0,5.0,1152.0,960.0,384.0,192.0,576.0,768.0,orange,diamond
0.0,7.0,2.0,1.0,7.0,3.0,3115.284884000175,1.0,1.0,phase_3,,,,,924.0,6.0,770.0,616.0,924.0,462.0,154.0,308.0,orange,diamond
0.0,4.0,4.0,0.0,7.0,1.0,3373.471244999564,1.0,1.0,phase_3,,,,,960.0,5.0,960.0,768.0,192.0,1152.0,384.0,576.0,magenta,circle
0.0,4.0,4.0,0.0,7.0,5.0,4388.546297000175,1.0,1.0,phase_3,,,,,675.0,5.0,405.0,810.0,270.0,135.0,675.0,540.0,magenta,circle
0.0,5.0,0.5,1.0,7.0,3.0,3503.3325129998047,1.0,1.0,phase_3,,,,,960.0,5.0,1152.0,768.0,960.0,384.0,576.0,192.0,white,cross
0.0,6.0,1.0,1.0,7.0,3.0,3793.8389099999767,1.0,1.0,phase_3,,,,,519.0,3.0,692.0,865.0,519.0,1038.0,346.0,173.0,yellow,triangle
0.0,2.0,1.0,0.0,7.0,2.0,3530.9939530006886,1.0,1.0,phase_3,,,,,696.0,6.0,348.0,696.0,580.0,116.0,232.0,464.0,green,flipped triangle
0.0,8.0,4.0,1.0,7.0,1.0,2695.409787999779,1.0,1.0,phase_3,,,,,616.0,4.0,616.0,462.0,924.0,154.0,770.0,308.0,blue,hexagon
0.0,5.0,0.5,1.0,7.0,3.0,4774.669625999195,1.0,1.0,phase_3,,,,,464.0,4.0,580.0,232.0,464.0,116.0,696.0,348.0,white,cross
0.0,7.0,2.0,1.0,7.0,6.0,2583.410805999847,1.0,1.0,phase_3,,,,,692.0,4.0,519.0,1038.0,865.0,346.0,173.0,692.0,orange,diamond
0.0,8.0,4.0,1.0,7.0,3.0,2532.308978999936,1.0,1.0,phase_3,,,,,540.0,4.0,270.0,810.0,540.0,675.0,405.0,135.0,blue,hexagon
0.0,5.0,0.5,1.0,7.0,3.0,3574.526798000079,1.0,1.0,phase_3,,,,,576.0,3.0,768.0,384.0,576.0,960.0,192.0,1152.0,white,cross
0.0,4.0,4.0,0.0,7.0,3.0,3159.8900620001587,1.0,1.0,phase_3,,,,,580.0,5.0,348.0,116.0,580.0,232.0,696.0,464.0,magenta,circle
0.0,2.0,1.0,0.0,7.0,3.0,4668.174282999644,1.0,1.0,phase_3,,,,,768.0,4.0,1152.0,384.0,768.0,192.0,576.0,960.0,green,flipped triangle
0.0,1.0,0.5,0.0,7.0,3.0,2973.4718519994203,1.0,1.0,phase_3,,,,,580.0,5.0,116.0,696.0,580.0,348.0,232.0,464.0,gray,I
0.0,7.0,2.0,1.0,7.0,1.0,2525.357809000525,1.0,1.0,phase_3,,,,,768.0,4.0,768.0,960.0,384.0,1152.0,576.0,192.0,orange,diamond
0.0,5.0,0.5,1.0,7.0,4.0,3386.124509000183,1.0,1.0,phase_3,,,,,924.0,6.0,616.0,154.0,770.0,924.0,462.0,308.0,white,cross
0.0,6.0,1.0,1.0,7.0,1.0,2494.946701000117,1.0,1.0,phase_3,,,,,616.0,4.0,616.0,154.0,770.0,462.0,924.0,308.0,yellow,triangle
0.0,4.0,4.0,0.0,7.0,1.0,2049.1760400000203,1.0,1.0,phase_3,,,,,768.0,4.0,768.0,576.0,384.0,960.0,192.0,1152.0,magenta,circle
0.0,1.0,0.5,0.0,7.0,4.0,3284.54255700035,1.0,1.0,phase_3,,,,,675.0,5.0,135.0,270.0,405.0,675.0,540.0,810.0,gray,I
0.0,8.0,4.0,1.0,7.0,4.0,1639.346193000165,2.0,1.0,phase_3,,,,,768.0,4.0,384.0,960.0,576.0,768.0,192.0,1152.0,blue,hexagon
0.0,1.0,0.5,0.0,7.0,5.0,2011.4416790002,2.0,1.0,phase_3,,,,,1038.0,6.0,692.0,346.0,173.0,519.0,1038.0,865.0,gray,I
0.0,6.0,1.0,1.0,7.0,4.0,2120.248030999392,2.0,1.0,phase_3,,,,,464.0,4.0,580.0,348.0,116.0,464.0,696.0,232.0,yellow,triangle
0.0,6.0,1.0,1.0,7.0,6.0,3970.769221999944,2.0,1.0,phase_3,,,,,464.0,4.0,348.0,580.0,116.0,696.0,232.0,464.0,yellow,triangle
0.0,5.0,0.5,1.0,7.0,2.0,2640.3209950003657,2.0,1.0,phase_3,,,,,464.0,4.0,232.0,464.0,116.0,348.0,696.0,580.0,white,cross
0.0,2.0,1.0,0.0,7.0,6.0,2182.382114000575,2.0,1.0,phase_3,,,,,675.0,5.0,135.0,540.0,810.0,270.0,405.0,675.0,green,flipped triangle
0.0,1.0,0.5,0.0,7.0,5.0,2188.63729900022,2.0,1.0,phase_3,,,,,519.0,3.0,1038.0,865.0,173.0,346.0,519.0,692.0,gray,I
0.0,3.0,2.0,0.0,7.0,2.0,3565.659973000038,2.0,1.0,phase_3,,,,,768.0,4.0,1152.0,768.0,576.0,384.0,960.0,192.0,cyan,square
0.0,4.0,4.0,0.0,7.0,3.0,2096.133039000051,2.0,1.0,phase_3,,,,,616.0,4.0,924.0,770.0,616.0,462.0,154.0,308.0,magenta,circle
0.0,6.0,1.0,1.0,7.0,5.0,2655.196564000107,2.0,1.0,phase_3,,,,,675.0,5.0,135.0,270.0,540.0,405.0,675.0,810.0,yellow,triangle
0.0,3.0,2.0,0.0,7.0,3.0,2145.9504070007824,2.0,1.0,phase_3,,,,,580.0,5.0,116.0,232.0,580.0,464.0,696.0,348.0,cyan,square
0.0,3.0,2.0,0.0,7.0,5.0,2669.307645999652,2.0,1.0,phase_3,,,,,770.0,5.0,462.0,154.0,924.0,308.0,770.0,616.0,cyan,square
0.0,2.0,1.0,0.0,7.0,1.0,2076.5501659998336,2.0,1.0,phase_3,,,,,768.0,4.0,768.0,192.0,1152.0,576.0,384.0,960.0,green,flipped triangle
0.0,5.0,0.5,1.0,7.0,1.0,2139.74101399981,2.0,1.0,phase_3,,,,,810.0,6.0,810.0,135.0,270.0,675.0,540.0,405.0,white,cross
0.0,1.0,0.5,0.0,7.0,5.0,2263.762257999588,2.0,1.0,phase_3,,,,,770.0,5.0,462.0,154.0,924.0,616.0,770.0,308.0,gray,I
0.0,3.0,2.0,0.0,7.0,2.0,2800.1524450000943,2.0,1.0,phase_3,,,,,692.0,4.0,865.0,692.0,519.0,1038.0,173.0,346.0,cyan,square
0.0,5.0,0.5,1.0,7.0,1.0,1799.9975250004354,2.0,1.0,phase_3,,,,,770.0,5.0,770.0,154.0,308.0,616.0,924.0,462.0,white,cross
0.0,7.0,2.0,1.0,7.0,6.0,3196.3610630000403,2.0,1.0,phase_3,,,,,696.0,6.0,348.0,580.0,232.0,116.0,464.0,696.0,orange,diamond
0.0,1.0,0.5,0.0,7.0,4.0,3292.698051000116,2.0,1.0,phase_3,,,,,924.0,6.0,308.0,616.0,154.0,924.0,462.0,770.0,gray,I
0.0,8.0,4.0,1.0,7.0,1.0,4614.963719000116,2.0,1.0,phase_3,,,,,768.0,4.0,768.0,192.0,384.0,1152.0,576.0,960.0,blue,hexagon
0.0,6.0,1.0,1.0,7.0,5.0,2939.344798000093,3.0,1.0,phase_3,,,,,540.0,4.0,810.0,405.0,270.0,135.0,540.0,675.0,yellow,triangle
0.0,7.0,2.0,1.0,7.0,2.0,2031.8417280004724,3.0,1.0,phase_3,,,,,770.0,5.0,924.0,770.0,308.0,462.0,154.0,616.0,orange,diamond
0.0,6.0,1.0,1.0,7.0,5.0,2140.13417499973,3.0,1.0,phase_3,,,,,770.0,5.0,616.0,154.0,308.0,462.0,770.0,924.0,yellow,triangle
0.0,2.0,1.0,0.0,7.0,6.0,2534.914996000225,3.0,1.0,phase_3,,,,,770.0,5.0,924.0,308.0,154.0,462.0,616.0,770.0,green,flipped triangle
0.0,2.0,1.0,0.0,7.0,1.0,2894.1912619993677,3.0,1.0,phase_3,,,,,865.0,5.0,865.0,692.0,173.0,1038.0,519.0,346.0,green,flipped triangle
0.0,4.0,4.0,0.0,7.0,6.0,3161.341673999232,3.0,1.0,phase_3,,,,,692.0,4.0,173.0,865.0,519.0,1038.0,346.0,692.0,magenta,circle
0.0,6.0,1.0,1.0,7.0,4.0,2130.0174269999843,3.0,1.0,phase_3,,,,,960.0,5.0,384.0,576.0,1152.0,960.0,192.0,768.0,yellow,triangle
0.0,4.0,4.0,0.0,7.0,6.0,2482.9809159991783,3.0,1.0,phase_3,,,,,580.0,5.0,348.0,116.0,232.0,696.0,464.0,580.0,magenta,circle
0.0,2.0,1.0,0.0,7.0,6.0,3889.351003999764,3.0,1.0,phase_3,,,,,348.0,3.0,580.0,232.0,116.0,464.0,696.0,348.0,green,flipped triangle
0.0,8.0,4.0,1.0,7.0,2.0,4668.600453000181,3.0,1.0,phase_3,,,,,616.0,4.0,308.0,616.0,154.0,462.0,770.0,924.0,blue,hexagon
0.0,8.0,4.0,1.0,7.0,3.0,4073.671715999808,3.0,1.0,phase_3,,,,,865.0,5.0,692.0,1038.0,865.0,346.0,519.0,173.0,blue,hexagon
0.0,7.0,2.0,1.0,7.0,1.0,1878.1255840003723,3.0,1.0,phase_3,,,,,675.0,5.0,675.0,810.0,135.0,405.0,540.0,270.0,orange,diamond
0.0,2.0,1.0,0.0,7.0,4.0,2686.2720250001075,3.0,1.0,phase_3,,,,,692.0,4.0,865.0,519.0,346.0,692.0,1038.0,173.0,green,flipped triangle
0.0,4.0,4.0,0.0,7.0,5.0,3098.6658709998665,3.0,1.0,phase_3,,,,,692.0,4.0,173.0,519.0,1038.0,865.0,692.0,346.0,magenta,circle
0.0,7.0,2.0,1.0,7.0,2.0,2153.0830499996227,3.0,1.0,phase_3,,,,,696.0,6.0,348.0,696.0,464.0,580.0,116.0,232.0,orange,diamond
0.0,4.0,4.0,0.0,7.0,6.0,2443.034176000765,3.0,1.0,phase_3,,,,,616.0,4.0,154.0,770.0,924.0,462.0,308.0,616.0,magenta,circle
0.0,8.0,4.0,1.0,7.0,5.0,3108.5985190002248,3.0,1.0,phase_3,,,,,696.0,6.0,348.0,232.0,580.0,116.0,696.0,464.0,blue,hexagon
0.0,1.0,0.5,0.0,7.0,6.0,1748.305905000052,3.0,1.0,phase_3,,,,,768.0,4.0,960.0,1152.0,576.0,192.0,384.0,768.0,gray,I
0.0,2.0,1.0,0.0,7.0,6.0,2787.0455439997386,3.0,1.0,phase_3,,,,,770.0,5.0,616.0,308.0,462.0,924.0,154.0,770.0,green,flipped triangle
0.0,3.0,2.0,0.0,7.0,4.0,3461.978665000061,3.0,1.0,phase_3,,,,,768.0,4.0,576.0,1152.0,192.0,768.0,384.0,960.0,cyan,square
0.0,1.0,0.5,0.0,7.0,6.0,3487.22353499943,4.0,1.0,phase_3,,,,,675.0,5.0,810.0,135.0,540.0,270.0,405.0,675.0,gray,I
0.0,8.0,4.0,1.0,7.0,1.0,3567.614132000017,4.0,1.0,phase_3,,,,,464.0,4.0,464.0,116.0,232.0,580.0,348.0,696.0,blue,hexagon
0.0,3.0,2.0,0.0,7.0,1.0,3070.045714999651,4.0,1.0,phase_3,,,,,616.0,4.0,616.0,462.0,308.0,924.0,770.0,154.0,cyan,square
0.0,5.0,0.5,1.0,7.0,4.0,2820.945911999843,4.0,1.0,phase_3,,,,,1038.0,6.0,865.0,346.0,173.0,1038.0,692.0,519.0,white,cross
0.0,6.0,1.0,1.0,7.0,3.0,2169.7497309996834,4.0,1.0,phase_3,,,,,768.0,4.0,576.0,384.0,768.0,1152.0,192.0,960.0,yellow,triangle
0.0,3.0,2.0,0.0,7.0,1.0,4238.716912999735,4.0,1.0,phase_3,,,,,580.0,5.0,580.0,232.0,348.0,696.0,116.0,464.0,cyan,square
0.0,3.0,2.0,0.0,7.0,1.0,3106.599235000431,4.0,1.0,phase_3,,,,,675.0,5.0,675.0,135.0,405.0,270.0,540.0,810.0,cyan,square
0.0,2.0,1.0,0.0,7.0,5.0,2830.34127799965,4.0,1.0,phase_3,,,,,675.0,5.0,405.0,270.0,540.0,135.0,675.0,810.0,green,flipped triangle
0.0,6.0,1.0,1.0,7.0,6.0,2424.242511000557,4.0,1.0,phase_3,,,,,692.0,4.0,1038.0,346.0,173.0,519.0,865.0,692.0,yellow,triangle
0.0,5.0,0.5,1.0,7.0,3.0,2721.8831600002886,4.0,1.0,phase_3,,,,,865.0,5.0,346.0,519.0,865.0,173.0,692.0,1038.0,white,cross
0.0,7.0,2.0,1.0,7.0,3.0,2328.094432999933,4.0,1.0,phase_3,,,,,346.0,2.0,692.0,865.0,346.0,173.0,1038.0,519.0,orange,diamond
0.0,8.0,4.0,1.0,7.0,6.0,4578.965451999466,4.0,1.0,phase_3,,,,,405.0,3.0,540.0,135.0,810.0,675.0,270.0,405.0,blue,hexagon
0.0,8.0,4.0,1.0,7.0,2.0,3315.2714739999283,4.0,1.0,phase_3,,,,,865.0,5.0,519.0,865.0,692.0,173.0,346.0,1038.0,blue,hexagon
0.0,7.0,2.0,1.0,7.0,4.0,3533.7755479995394,4.0,1.0,phase_3,,,,,540.0,4.0,810.0,405.0,270.0,540.0,675.0,135.0,orange,diamond
0.0,3.0,2.0,0.0,7.0,3.0,3069.9892329994327,4.0,1.0,phase_3,,,,,405.0,3.0,810.0,270.0,405.0,540.0,135.0,675.0,cyan,square
0.0,1.0,0.5,0.0,7.0,3.0,2450.0796639995315,4.0,1.0,phase_3,,,,,696.0,6.0,348.0,464.0,696.0,232.0,580.0,116.0,gray,I
0.0,3.0,2.0,0.0,7.0,4.0,3422.789930000363,4.0,1.0,phase_3,,,,,692.0,4.0,865.0,173.0,519.0,692.0,346.0,1038.0,cyan,square
0.0,4.0,4.0,0.0,7.0,5.0,4031.084651999663,4.0,1.0,phase_3,,,,,675.0,5.0,540.0,405.0,270.0,810.0,675.0,135.0,magenta,circle
0.0,5.0,0.5,1.0,7.0,6.0,2348.2000409994725,4.0,1.0,phase_3,,,,,405.0,3.0,135.0,675.0,270.0,540.0,810.0,405.0,white,cross
0.0,1.0,0.5,0.0,7.0,2.0,2638.518391999241,4.0,1.0,phase_3,,,,,576.0,3.0,768.0,576.0,960.0,1152.0,192.0,384.0,gray,I
