raw_reward_magnitude,stim_reward,stepwise_reward_magnitude,paired_with_stopping,stim_location,response,reaction_time,block,num_trial_presentations,which_phase,stop_signal_trial_type,left_SSD,right_SSD,accuracy,chosen_bidding_amount,chosen_bidding_level,possible_bid_1,possible_bid_2,possible_bid_3,possible_bid_4,possible_bid_5,possible_bid_6,color_text,shape_text
167.0,5.0,1.0,1.0,3.0,3.0,333.6155239994696,1.0,1.0,phase_1,,,,,,,,,,,,,green,square
0.0,5.0,0.0,1.0,4.0,4.0,353.0615469999247,1.0,1.0,phase_1,,,,,,,,,,,,,green,square
0.0,4.0,0.0,0.0,4.0,4.0,507.1353499997713,1.0,1.0,phase_1,,,,,,,,,,,,,gray,circle
0.0,3.0,0.0,0.0,1.0,1.0,430.4161330001079,1.0,1.0,phase_1,,,,,,,,,,,,,magenta,I
655.0,3.0,3.0,0.0,1.0,1.0,363.3074340004896,1.0,1.0,phase_1,,,,,,,,,,,,,magenta,I
664.0,7.0,3.0,1.0,3.0,3.0,325.6070549996366,1.0,1.0,phase_1,,,,,,,,,,,,,yellow,triangle
0.0,6.0,0.0,1.0,4.0,4.0,446.1683159997847,1.0,1.0,phase_1,,,,,,,,,,,,,orange,flipped triangle
1313.0,4.0,4.0,0.0,2.0,2.0,494.1769170000043,1.0,2.0,phase_1,,,,,,,,,,,,,gray,circle
630.0,3.0,3.0,0.0,3.0,3.0,423.7214319991835,1.0,1.0,phase_1,,,,,,,,,,,,,magenta,I
338.0,2.0,2.0,0.0,4.0,4.0,419.675410000309,1.0,1.0,phase_1,,,,,,,,,,,,,blue,hexagon
182.0,5.0,1.0,1.0,4.0,4.0,333.8781989996278,1.0,1.0,phase_1,,,,,,,,,,,,,green,square
672.0,3.0,3.0,0.0,3.0,3.0,434.1553809999823,1.0,1.0,phase_1,,,,,,,,,,,,,magenta,I
667.0,3.0,3.0,0.0,3.0,3.0,353.0924080005206,1.0,1.0,phase_1,,,,,,,,,,,,,magenta,I
1322.0,8.0,4.0,1.0,3.0,3.0,323.5579069996674,1.0,1.0,phase_1,,,,,,,,,,,,,white,cross
0.0,3.0,0.0,0.0,2.0,2.0,423.0272089998834,1.0,1.0,phase_1,,,,,,,,,,,,,magenta,I
1286.0,4.0,4.0,0.0,2.0,2.0,477.0550659995933,1.0,1.0,phase_1,,,,,,,,,,,,,gray,circle
638.0,3.0,3.0,0.0,1.0,1.0,337.4268060006216,1.0,1.0,phase_1,,,,,,,,,,,,,magenta,I
180.0,5.0,1.0,1.0,3.0,3.0,429.2110940004932,1.0,1.0,phase_1,,,,,,,,,,,,,green,square
320.0,6.0,2.0,1.0,4.0,4.0,491.6621359998316,1.0,1.0,phase_1,,,,,,,,,,,,,orange,flipped triangle
0.0,3.0,0.0,0.0,1.0,1.0,496.0682040000392,1.0,1.0,phase_1,,,,,,,,,,,,,magenta,I
176.0,5.0,1.0,1.0,2.0,2.0,339.6470870002304,1.0,1.0,phase_1,,,,,,,,,,,,,green,square
0.0,8.0,0.0,1.0,3.0,3.0,392.0255299999553,1.0,1.0,phase_1,,,,,,,,,,,,,white,cross
1277.0,8.0,4.0,1.0,4.0,4.0,420.4351020007379,1.0,1.0,phase_1,,,,,,,,,,,,,white,cross
314.0,2.0,2.0,0.0,1.0,1.0,344.3300660001114,1.0,1.0,phase_1,,,,,,,,,,,,,blue,hexagon
633.0,7.0,3.0,1.0,4.0,4.0,415.1122040002519,1.0,1.0,phase_1,,,,,,,,,,,,,yellow,triangle
637.0,3.0,3.0,0.0,1.0,1.0,372.2273980001773,1.0,1.0,phase_1,,,,,,,,,,,,,magenta,I
336.0,2.0,2.0,0.0,4.0,4.0,371.13036700066,1.0,1.0,phase_1,,,,,,,,,,,,,blue,hexagon
0.0,5.0,0.0,1.0,1.0,1.0,419.0280430002531,1.0,2.0,phase_1,,,,,,,,,,,,,green,square
336.0,6.0,2.0,1.0,4.0,4.0,438.4587450003891,1.0,1.0,phase_1,,,,,,,,,,,,,orange,flipped triangle
0.0,5.0,0.0,1.0,3.0,3.0,541.1467149997407,1.0,1.0,phase_1,,,,,,,,,,,,,green,square
626.0,3.0,3.0,0.0,2.0,2.0,352.1208819993262,1.0,1.0,phase_1,,,,,,,,,,,,,magenta,I
655.0,3.0,3.0,0.0,4.0,4.0,457.0247980000204,1.0,1.0,phase_1,,,,,,,,,,,,,magenta,I
1311.0,4.0,4.0,0.0,3.0,3.0,473.5588280000229,1.0,1.0,phase_1,,,,,,,,,,,,,gray,circle
1315.0,8.0,4.0,1.0,3.0,3.0,445.4329299996971,1.0,1.0,phase_1,,,,,,,,,,,,,white,cross
1317.0,4.0,4.0,0.0,4.0,4.0,495.25401199935,1.0,1.0,phase_1,,,,,,,,,,,,,gray,circle
1284.0,8.0,4.0,1.0,4.0,4.0,457.06655200046947,1.0,1.0,phase_1,,,,,,,,,,,,,white,cross
641.0,3.0,3.0,0.0,1.0,1.0,409.7064430006867,1.0,1.0,phase_1,,,,,,,,,,,,,magenta,I
641.0,7.0,3.0,1.0,1.0,1.0,334.443968999949,1.0,1.0,phase_1,,,,,,,,,,,,,yellow,triangle
345.0,6.0,2.0,1.0,3.0,3.0,457.267967000007,1.0,1.0,phase_1,,,,,,,,,,,,,orange,flipped triangle
176.0,1.0,1.0,0.0,1.0,1.0,333.2430290001866,1.0,1.0,phase_1,,,,,,,,,,,,,cyan,diamond
655.0,7.0,3.0,1.0,4.0,4.0,372.3520049998114,1.0,1.0,phase_1,,,,,,,,,,,,,yellow,triangle
314.0,6.0,2.0,1.0,4.0,4.0,475.6903600000441,1.0,1.0,phase_1,,,,,,,,,,,,,orange,flipped triangle
314.0,2.0,2.0,0.0,3.0,3.0,473.5122020001654,1.0,1.0,phase_1,,,,,,,,,,,,,blue,hexagon
164.0,1.0,1.0,0.0,1.0,1.0,351.2555719999,1.0,1.0,phase_1,,,,,,,,,,,,,cyan,diamond
158.0,5.0,1.0,1.0,2.0,2.0,572.073674999956,1.0,1.0,phase_1,,,,,,,,,,,,,green,square
304.0,6.0,2.0,1.0,2.0,2.0,551.4424809998673,1.0,1.0,phase_1,,,,,,,,,,,,,orange,flipped triangle
0.0,8.0,0.0,1.0,3.0,3.0,343.6652059999687,1.0,1.0,phase_1,,,,,,,,,,,,,white,cross
306.0,6.0,2.0,1.0,3.0,3.0,416.9461410001531,1.0,1.0,phase_1,,,,,,,,,,,,,orange,flipped triangle
0.0,1.0,0.0,0.0,1.0,1.0,444.4516650000878,1.0,1.0,phase_1,,,,,,,,,,,,,cyan,diamond
181.0,1.0,1.0,0.0,2.0,2.0,529.369699000199,1.0,1.0,phase_1,,,,,,,,,,,,,cyan,diamond
346.0,2.0,2.0,0.0,4.0,4.0,453.449585999806,1.0,1.0,phase_1,,,,,,,,,,,,,blue,hexagon
342.0,6.0,2.0,1.0,2.0,2.0,444.9088700002903,1.0,1.0,phase_1,,,,,,,,,,,,,orange,flipped triangle
314.0,6.0,2.0,1.0,3.0,3.0,360.1779939999687,1.0,1.0,phase_1,,,,,,,,,,,,,orange,flipped triangle
1302.0,8.0,4.0,1.0,3.0,3.0,418.8669269997263,1.0,1.0,phase_1,,,,,,,,,,,,,white,cross
0.0,3.0,0.0,0.0,1.0,1.0,448.3654400000887,1.0,1.0,phase_1,,,,,,,,,,,,,magenta,I
0.0,1.0,0.0,0.0,4.0,4.0,408.1912450001255,1.0,1.0,phase_1,,,,,,,,,,,,,cyan,diamond
653.0,7.0,3.0,1.0,2.0,2.0,454.2247260005752,1.0,1.0,phase_1,,,,,,,,,,,,,yellow,triangle
303.0,2.0,2.0,0.0,4.0,4.0,445.307973999661,1.0,1.0,phase_1,,,,,,,,,,,,,blue,hexagon
0.0,4.0,0.0,0.0,4.0,4.0,464.3159769993872,1.0,1.0,phase_1,,,,,,,,,,,,,gray,circle
0.0,5.0,0.0,1.0,4.0,4.0,391.0692360004759,1.0,1.0,phase_1,,,,,,,,,,,,,green,square
1309.0,4.0,4.0,0.0,4.0,4.0,390.6192859994917,1.0,1.0,phase_1,,,,,,,,,,,,,gray,circle
145.0,1.0,1.0,0.0,4.0,4.0,371.2775280000642,1.0,1.0,phase_1,,,,,,,,,,,,,cyan,diamond
0.0,2.0,0.0,0.0,1.0,1.0,399.9211629998171,1.0,1.0,phase_1,,,,,,,,,,,,,blue,hexagon
0.0,1.0,0.0,0.0,1.0,1.0,314.9491770000168,1.0,1.0,phase_1,,,,,,,,,,,,,cyan,diamond
151.0,5.0,1.0,1.0,3.0,3.0,438.6844589998873,1.0,1.0,phase_1,,,,,,,,,,,,,green,square
647.0,7.0,3.0,1.0,3.0,3.0,381.2127430001055,1.0,1.0,phase_1,,,,,,,,,,,,,yellow,triangle
1283.0,8.0,4.0,1.0,2.0,2.0,427.2678540000925,1.0,1.0,phase_1,,,,,,,,,,,,,white,cross
175.0,5.0,1.0,1.0,2.0,2.0,454.8865119995753,1.0,1.0,phase_1,,,,,,,,,,,,,green,square
348.0,2.0,2.0,0.0,4.0,4.0,419.4591919995218,1.0,1.0,phase_1,,,,,,,,,,,,,blue,hexagon
149.0,1.0,1.0,0.0,3.0,3.0,532.6150260007125,1.0,1.0,phase_1,,,,,,,,,,,,,cyan,diamond
346.0,6.0,2.0,1.0,4.0,4.0,541.4350589999231,1.0,1.0,phase_1,,,,,,,,,,,,,orange,flipped triangle
672.0,7.0,3.0,1.0,2.0,2.0,512.1981629999937,1.0,1.0,phase_1,,,,,,,,,,,,,yellow,triangle
170.0,5.0,1.0,1.0,1.0,1.0,379.464535999432,1.0,1.0,phase_1,,,,,,,,,,,,,green,square
0.0,8.0,0.0,1.0,1.0,1.0,425.6170740000016,1.0,1.0,phase_1,,,,,,,,,,,,,white,cross
315.0,2.0,2.0,0.0,2.0,2.0,548.4971409996433,1.0,1.0,phase_1,,,,,,,,,,,,,blue,hexagon
0.0,7.0,0.0,1.0,2.0,2.0,435.6976310000391,1.0,1.0,phase_1,,,,,,,,,,,,,yellow,triangle
303.0,6.0,2.0,1.0,1.0,1.0,425.5903180001041,1.0,1.0,phase_1,,,,,,,,,,,,,orange,flipped triangle
1310.0,8.0,4.0,1.0,1.0,1.0,397.1374409993586,1.0,1.0,phase_1,,,,,,,,,,,,,white,cross
0.0,6.0,0.0,1.0,3.0,3.0,437.8116019997833,1.0,1.0,phase_1,,,,,,,,,,,,,orange,flipped triangle
657.0,7.0,3.0,1.0,4.0,4.0,437.11944900042,1.0,1.0,phase_1,,,,,,,,,,,,,yellow,triangle
651.0,7.0,3.0,1.0,1.0,1.0,486.3709499995821,1.0,1.0,phase_1,,,,,,,,,,,,,yellow,triangle
0.0,8.0,0.0,1.0,3.0,3.0,496.2587649997658,1.0,1.0,phase_1,,,,,,,,,,,,,white,cross
641.0,7.0,3.0,1.0,4.0,4.0,449.056532999748,1.0,1.0,phase_1,,,,,,,,,,,,,yellow,triangle
1306.0,4.0,4.0,0.0,1.0,1.0,333.4782310002993,1.0,1.0,phase_1,,,,,,,,,,,,,gray,circle
661.0,3.0,3.0,0.0,2.0,2.0,486.5396889999829,1.0,1.0,phase_1,,,,,,,,,,,,,magenta,I
1276.0,4.0,4.0,0.0,1.0,1.0,444.7003700006462,1.0,1.0,phase_1,,,,,,,,,,,,,gray,circle
653.0,3.0,3.0,0.0,3.0,3.0,427.2726290000719,1.0,1.0,phase_1,,,,,,,,,,,,,magenta,I
632.0,3.0,3.0,0.0,3.0,3.0,389.832199999546,1.0,1.0,phase_1,,,,,,,,,,,,,magenta,I
140.0,1.0,1.0,0.0,3.0,3.0,417.4641330000668,1.0,1.0,phase_1,,,,,,,,,,,,,cyan,diamond
304.0,2.0,2.0,0.0,1.0,1.0,532.1968030002608,1.0,1.0,phase_1,,,,,,,,,,,,,blue,hexagon
1322.0,4.0,4.0,0.0,4.0,4.0,399.7903039999073,1.0,1.0,phase_1,,,,,,,,,,,,,gray,circle
647.0,3.0,3.0,0.0,4.0,4.0,438.53643500006,1.0,1.0,phase_1,,,,,,,,,,,,,magenta,I
634.0,7.0,3.0,1.0,1.0,1.0,486.9534550007302,1.0,1.0,phase_1,,,,,,,,,,,,,yellow,triangle
350.0,6.0,2.0,1.0,1.0,1.0,475.0855190004586,1.0,1.0,phase_1,,,,,,,,,,,,,orange,flipped triangle
142.0,1.0,1.0,0.0,1.0,1.0,417.9550349999772,1.0,1.0,phase_1,,,,,,,,,,,,,cyan,diamond
1277.0,4.0,4.0,0.0,3.0,3.0,388.2184789999883,1.0,1.0,phase_1,,,,,,,,,,,,,gray,circle
1280.0,4.0,4.0,0.0,3.0,3.0,407.2778800000378,1.0,1.0,phase_1,,,,,,,,,,,,,gray,circle
331.0,6.0,2.0,1.0,2.0,2.0,579.0676630003873,1.0,1.0,phase_1,,,,,,,,,,,,,orange,flipped triangle
161.0,5.0,1.0,1.0,2.0,2.0,407.7913940000144,1.0,1.0,phase_1,,,,,,,,,,,,,green,square
321.0,2.0,2.0,0.0,2.0,2.0,408.3515869997427,1.0,1.0,phase_1,,,,,,,,,,,,,blue,hexagon
626.0,7.0,3.0,1.0,3.0,3.0,399.6480890000384,2.0,1.0,phase_1,,,,,,,,,,,,,yellow,triangle
1309.0,4.0,4.0,0.0,2.0,2.0,362.4283389999618,2.0,1.0,phase_1,,,,,,,,,,,,,gray,circle
667.0,3.0,3.0,0.0,2.0,2.0,409.3124940000052,2.0,1.0,phase_1,,,,,,,,,,,,,magenta,I
182.0,1.0,1.0,0.0,1.0,1.0,466.338404000453,2.0,1.0,phase_1,,,,,,,,,,,,,cyan,diamond
315.0,2.0,2.0,0.0,4.0,4.0,352.6336110007833,2.0,1.0,phase_1,,,,,,,,,,,,,blue,hexagon
0.0,4.0,0.0,0.0,3.0,3.0,352.4555390004025,2.0,1.0,phase_1,,,,,,,,,,,,,gray,circle
173.0,5.0,1.0,1.0,4.0,4.0,400.7793390001097,2.0,1.0,phase_1,,,,,,,,,,,,,green,square
646.0,3.0,3.0,0.0,2.0,2.0,495.2490939995186,2.0,1.0,phase_1,,,,,,,,,,,,,magenta,I
146.0,1.0,1.0,0.0,4.0,4.0,371.4355709998926,2.0,1.0,phase_1,,,,,,,,,,,,,cyan,diamond
306.0,2.0,2.0,0.0,4.0,4.0,400.7800999997926,2.0,1.0,phase_1,,,,,,,,,,,,,blue,hexagon
1320.0,8.0,4.0,1.0,3.0,3.0,657.4701059998915,2.0,1.0,phase_1,,,,,,,,,,,,,white,cross
156.0,5.0,1.0,1.0,4.0,4.0,563.034482999683,2.0,1.0,phase_1,,,,,,,,,,,,,green,square
143.0,1.0,1.0,0.0,4.0,4.0,410.3367039997465,2.0,1.0,phase_1,,,,,,,,,,,,,cyan,diamond
184.0,1.0,1.0,0.0,4.0,4.0,410.2252459997544,2.0,1.0,phase_1,,,,,,,,,,,,,cyan,diamond
342.0,6.0,2.0,1.0,4.0,4.0,475.741219000156,2.0,1.0,phase_1,,,,,,,,,,,,,orange,flipped triangle
1299.0,4.0,4.0,0.0,2.0,2.0,438.6741190000975,2.0,1.0,phase_1,,,,,,,,,,,,,gray,circle
0.0,2.0,0.0,0.0,4.0,4.0,429.108995000206,2.0,1.0,phase_1,,,,,,,,,,,,,blue,hexagon
0.0,1.0,0.0,0.0,1.0,1.0,465.7230220000201,2.0,1.0,phase_1,,,,,,,,,,,,,cyan,diamond
170.0,1.0,1.0,0.0,4.0,4.0,392.5374549999105,2.0,1.0,phase_1,,,,,,,,,,,,,cyan,diamond
145.0,5.0,1.0,1.0,1.0,1.0,325.5088590003652,2.0,1.0,phase_1,,,,,,,,,,,,,green,square
0.0,7.0,0.0,1.0,3.0,3.0,268.0886200005261,2.0,1.0,phase_1,,,,,,,,,,,,,yellow,triangle
314.0,2.0,2.0,0.0,1.0,1.0,362.3870379997242,2.0,1.0,phase_1,,,,,,,,,,,,,blue,hexagon
311.0,6.0,2.0,1.0,3.0,3.0,362.92295200019,2.0,1.0,phase_1,,,,,,,,,,,,,orange,flipped triangle
161.0,1.0,1.0,0.0,3.0,3.0,438.4182349995171,2.0,1.0,phase_1,,,,,,,,,,,,,cyan,diamond
140.0,5.0,1.0,1.0,1.0,1.0,352.8430469996237,2.0,1.0,phase_1,,,,,,,,,,,,,green,square
170.0,5.0,1.0,1.0,4.0,4.0,363.2817560001058,2.0,1.0,phase_1,,,,,,,,,,,,,green,square
0.0,7.0,0.0,1.0,1.0,1.0,402.1014680001826,2.0,1.0,phase_1,,,,,,,,,,,,,yellow,triangle
628.0,3.0,3.0,0.0,4.0,4.0,373.5872320003182,2.0,1.0,phase_1,,,,,,,,,,,,,magenta,I
0.0,3.0,0.0,0.0,1.0,1.0,362.126430999524,2.0,1.0,phase_1,,,,,,,,,,,,,magenta,I
0.0,7.0,0.0,1.0,4.0,4.0,345.302988000185,2.0,1.0,phase_1,,,,,,,,,,,,,yellow,triangle
0.0,5.0,0.0,1.0,3.0,3.0,448.5378899998977,2.0,1.0,phase_1,,,,,,,,,,,,,green,square
1292.0,8.0,4.0,1.0,2.0,2.0,343.8150499996482,2.0,1.0,phase_1,,,,,,,,,,,,,white,cross
149.0,5.0,1.0,1.0,1.0,1.0,448.7446820003242,2.0,1.0,phase_1,,,,,,,,,,,,,green,square
657.0,3.0,3.0,0.0,3.0,3.0,391.8549709997023,2.0,1.0,phase_1,,,,,,,,,,,,,magenta,I
140.0,5.0,1.0,1.0,4.0,4.0,413.3341229999132,2.0,1.0,phase_1,,,,,,,,,,,,,green,square
315.0,6.0,2.0,1.0,2.0,2.0,600.7378420008536,2.0,1.0,phase_1,,,,,,,,,,,,,orange,flipped triangle
332.0,2.0,2.0,0.0,1.0,1.0,476.1843129999761,2.0,1.0,phase_1,,,,,,,,,,,,,blue,hexagon
0.0,6.0,0.0,1.0,4.0,4.0,410.5715779996899,2.0,1.0,phase_1,,,,,,,,,,,,,orange,flipped triangle
1303.0,8.0,4.0,1.0,1.0,1.0,428.8078770005086,2.0,1.0,phase_1,,,,,,,,,,,,,white,cross
158.0,1.0,1.0,0.0,2.0,2.0,438.8334329996723,2.0,1.0,phase_1,,,,,,,,,,,,,cyan,diamond
1280.0,8.0,4.0,1.0,1.0,1.0,402.0102020003833,2.0,1.0,phase_1,,,,,,,,,,,,,white,cross
0.0,1.0,0.0,0.0,4.0,4.0,477.1178409991989,2.0,1.0,phase_1,,,,,,,,,,,,,cyan,diamond
166.0,1.0,1.0,0.0,1.0,1.0,390.4439549996823,2.0,1.0,phase_1,,,,,,,,,,,,,cyan,diamond
638.0,3.0,3.0,0.0,4.0,4.0,401.6420839998318,2.0,1.0,phase_1,,,,,,,,,,,,,magenta,I
0.0,4.0,0.0,0.0,1.0,1.0,372.1912339997288,2.0,1.0,phase_1,,,,,,,,,,,,,gray,circle
149.0,5.0,1.0,1.0,3.0,3.0,362.7254359998915,2.0,1.0,phase_1,,,,,,,,,,,,,green,square
652.0,3.0,3.0,0.0,1.0,1.0,371.9578980008009,2.0,1.0,phase_1,,,,,,,,,,,,,magenta,I
0.0,4.0,0.0,0.0,2.0,2.0,505.7928650003305,2.0,1.0,phase_1,,,,,,,,,,,,,gray,circle
1289.0,8.0,4.0,1.0,3.0,3.0,381.6434179998396,2.0,1.0,phase_1,,,,,,,,,,,,,white,cross
1294.0,8.0,4.0,1.0,2.0,2.0,543.2830370000374,2.0,1.0,phase_1,,,,,,,,,,,,,white,cross
1286.0,8.0,4.0,1.0,3.0,3.0,346.3921769998705,2.0,1.0,phase_1,,,,,,,,,,,,,white,cross
0.0,2.0,0.0,0.0,4.0,4.0,391.9906549999723,2.0,1.0,phase_1,,,,,,,,,,,,,blue,hexagon
1309.0,8.0,4.0,1.0,2.0,2.0,572.2243019999951,2.0,1.0,phase_1,,,,,,,,,,,,,white,cross
1311.0,8.0,4.0,1.0,4.0,4.0,448.7080179997065,2.0,1.0,phase_1,,,,,,,,,,,,,white,cross
0.0,5.0,0.0,1.0,1.0,1.0,371.8551359997946,2.0,1.0,phase_1,,,,,,,,,,,,,green,square
1292.0,4.0,4.0,0.0,4.0,4.0,410.4890419994262,2.0,1.0,phase_1,,,,,,,,,,,,,gray,circle
642.0,3.0,3.0,0.0,2.0,2.0,526.5981560005457,2.0,1.0,phase_1,,,,,,,,,,,,,magenta,I
335.0,2.0,2.0,0.0,1.0,1.0,363.107530999514,2.0,1.0,phase_1,,,,,,,,,,,,,blue,hexagon
0.0,1.0,0.0,0.0,1.0,1.0,410.3378950003389,2.0,1.0,phase_1,,,,,,,,,,,,,cyan,diamond
0.0,7.0,0.0,1.0,2.0,2.0,477.0205000004353,2.0,1.0,phase_1,,,,,,,,,,,,,yellow,triangle
157.0,1.0,1.0,0.0,1.0,1.0,374.2055589991651,2.0,1.0,phase_1,,,,,,,,,,,,,cyan,diamond
138.0,5.0,1.0,1.0,1.0,1.0,374.3732470002214,2.0,1.0,phase_1,,,,,,,,,,,,,green,square
642.0,7.0,3.0,1.0,1.0,1.0,410.8632399993439,2.0,1.0,phase_1,,,,,,,,,,,,,yellow,triangle
0.0,8.0,0.0,1.0,4.0,4.0,430.2557000000888,2.0,1.0,phase_1,,,,,,,,,,,,,white,cross
325.0,2.0,2.0,0.0,2.0,2.0,382.3804140001812,2.0,1.0,phase_1,,,,,,,,,,,,,blue,hexagon
0.0,5.0,0.0,1.0,2.0,2.0,467.3378030001913,2.0,1.0,phase_1,,,,,,,,,,,,,green,square
324.0,2.0,2.0,0.0,2.0,2.0,427.8054840006007,2.0,1.0,phase_1,,,,,,,,,,,,,blue,hexagon
668.0,3.0,3.0,0.0,4.0,4.0,380.1224469998487,2.0,1.0,phase_1,,,,,,,,,,,,,magenta,I
0.0,7.0,0.0,1.0,3.0,3.0,344.1576240002177,2.0,1.0,phase_1,,,,,,,,,,,,,yellow,triangle
327.0,6.0,2.0,1.0,3.0,3.0,343.2039309991523,2.0,1.0,phase_1,,,,,,,,,,,,,orange,flipped triangle
328.0,2.0,2.0,0.0,1.0,1.0,429.7376259992234,2.0,1.0,phase_1,,,,,,,,,,,,,blue,hexagon
1320.0,4.0,4.0,0.0,4.0,4.0,381.0469689997262,2.0,1.0,phase_1,,,,,,,,,,,,,gray,circle
1309.0,8.0,4.0,1.0,2.0,2.0,439.4992830002593,2.0,1.0,phase_1,,,,,,,,,,,,,white,cross
1277.0,8.0,4.0,1.0,4.0,4.0,325.4376489994683,2.0,1.0,phase_1,,,,,,,,,,,,,white,cross
1292.0,4.0,4.0,0.0,1.0,1.0,343.99528799986,2.0,1.0,phase_1,,,,,,,,,,,,,gray,circle
0.0,6.0,0.0,1.0,1.0,1.0,361.7370620004294,2.0,1.0,phase_1,,,,,,,,,,,,,orange,flipped triangle
324.0,6.0,2.0,1.0,1.0,1.0,467.4600089992964,2.0,1.0,phase_1,,,,,,,,,,,,,orange,flipped triangle
338.0,6.0,2.0,1.0,4.0,4.0,525.0285140000415,2.0,1.0,phase_1,,,,,,,,,,,,,orange,flipped triangle
1313.0,8.0,4.0,1.0,4.0,4.0,457.7059549992555,2.0,1.0,phase_1,,,,,,,,,,,,,white,cross
1284.0,4.0,4.0,0.0,3.0,3.0,409.7108340001796,2.0,1.0,phase_1,,,,,,,,,,,,,gray,circle
151.0,1.0,1.0,0.0,3.0,3.0,390.9755309996399,2.0,1.0,phase_1,,,,,,,,,,,,,cyan,diamond
1309.0,8.0,4.0,1.0,2.0,2.0,343.8677359999929,2.0,1.0,phase_1,,,,,,,,,,,,,white,cross
1318.0,8.0,4.0,1.0,3.0,3.0,324.6665579999899,2.0,1.0,phase_1,,,,,,,,,,,,,white,cross
328.0,6.0,2.0,1.0,2.0,2.0,477.2176859996762,2.0,1.0,phase_1,,,,,,,,,,,,,orange,flipped triangle
0.0,2.0,0.0,0.0,3.0,3.0,333.9792260003378,2.0,1.0,phase_1,,,,,,,,,,,,,blue,hexagon
158.0,1.0,1.0,0.0,4.0,4.0,362.9963710000083,2.0,1.0,phase_1,,,,,,,,,,,,,cyan,diamond
636.0,3.0,3.0,0.0,4.0,4.0,401.1912500000107,2.0,1.0,phase_1,,,,,,,,,,,,,magenta,I
638.0,7.0,3.0,1.0,3.0,3.0,335.836733999713,2.0,1.0,phase_1,,,,,,,,,,,,,yellow,triangle
0.0,6.0,0.0,1.0,3.0,3.0,372.4126660008551,2.0,1.0,phase_1,,,,,,,,,,,,,orange,flipped triangle
0.0,2.0,0.0,0.0,3.0,3.0,401.7626820004807,2.0,1.0,phase_1,,,,,,,,,,,,,blue,hexagon
0.0,2.0,0.0,0.0,1.0,1.0,430.3615329999957,2.0,1.0,phase_1,,,,,,,,,,,,,blue,hexagon
652.0,7.0,3.0,1.0,4.0,4.0,363.7904429997434,2.0,1.0,phase_1,,,,,,,,,,,,,yellow,triangle
646.0,7.0,3.0,1.0,4.0,4.0,384.3954900003155,2.0,1.0,phase_1,,,,,,,,,,,,,yellow,triangle
1298.0,4.0,4.0,0.0,2.0,2.0,467.7589660004742,2.0,1.0,phase_1,,,,,,,,,,,,,gray,circle
320.0,6.0,2.0,1.0,2.0,2.0,478.3387170009519,2.0,1.0,phase_1,,,,,,,,,,,,,orange,flipped triangle
321.0,6.0,2.0,1.0,4.0,4.0,419.2437120000249,2.0,1.0,phase_1,,,,,,,,,,,,,orange,flipped triangle
185.0,5.0,1.0,1.0,3.0,3.0,418.9739050016214,2.0,1.0,phase_1,,,,,,,,,,,,,green,square
138.0,1.0,1.0,0.0,2.0,2.0,343.1209970003692,2.0,1.0,phase_1,,,,,,,,,,,,,cyan,diamond
656.0,3.0,3.0,0.0,1.0,1.0,401.3443610001559,2.0,1.0,phase_1,,,,,,,,,,,,,magenta,I
0.0,2.0,0.0,0.0,2.0,2.0,496.4220600013505,2.0,1.0,phase_1,,,,,,,,,,,,,blue,hexagon
671.0,7.0,3.0,1.0,2.0,2.0,382.0538820000365,3.0,1.0,phase_1,,,,,,,,,,,,,yellow,triangle
1294.0,4.0,4.0,0.0,3.0,3.0,419.4998080001824,3.0,1.0,phase_1,,,,,,,,,,,,,gray,circle
182.0,1.0,1.0,0.0,2.0,2.0,400.5781239993666,3.0,1.0,phase_1,,,,,,,,,,,,,cyan,diamond
0.0,3.0,0.0,0.0,4.0,4.0,401.030543998786,3.0,1.0,phase_1,,,,,,,,,,,,,magenta,I
648.0,7.0,3.0,1.0,1.0,1.0,315.3290209993429,3.0,1.0,phase_1,,,,,,,,,,,,,yellow,triangle
334.0,2.0,2.0,0.0,3.0,3.0,420.5950499999744,3.0,1.0,phase_1,,,,,,,,,,,,,blue,hexagon
658.0,3.0,3.0,0.0,4.0,4.0,325.0736689988116,3.0,1.0,phase_1,,,,,,,,,,,,,magenta,I
315.0,6.0,2.0,1.0,2.0,2.0,382.4221049999323,3.0,1.0,phase_1,,,,,,,,,,,,,orange,flipped triangle
0.0,3.0,0.0,0.0,2.0,2.0,427.3734299986245,3.0,1.0,phase_1,,,,,,,,,,,,,magenta,I
160.0,5.0,1.0,1.0,1.0,1.0,323.7893580007949,3.0,1.0,phase_1,,,,,,,,,,,,,green,square
336.0,6.0,2.0,1.0,1.0,1.0,420.3019130000029,3.0,1.0,phase_1,,,,,,,,,,,,,orange,flipped triangle
149.0,1.0,1.0,0.0,3.0,3.0,410.5806309999025,3.0,1.0,phase_1,,,,,,,,,,,,,cyan,diamond
334.0,6.0,2.0,1.0,4.0,4.0,400.8501789994625,3.0,1.0,phase_1,,,,,,,,,,,,,orange,flipped triangle
342.0,2.0,2.0,0.0,4.0,4.0,372.3370560001058,3.0,1.0,phase_1,,,,,,,,,,,,,blue,hexagon
170.0,1.0,1.0,0.0,3.0,3.0,419.8624769996968,3.0,1.0,phase_1,,,,,,,,,,,,,cyan,diamond
0.0,3.0,0.0,0.0,3.0,3.0,342.1000260004803,3.0,1.0,phase_1,,,,,,,,,,,,,magenta,I
0.0,1.0,0.0,0.0,3.0,3.0,344.3625090003479,3.0,1.0,phase_1,,,,,,,,,,,,,cyan,diamond
140.0,1.0,1.0,0.0,3.0,3.0,334.3127090010966,3.0,1.0,phase_1,,,,,,,,,,,,,cyan,diamond
656.0,7.0,3.0,1.0,2.0,2.0,352.8428530007659,3.0,1.0,phase_1,,,,,,,,,,,,,yellow,triangle
1308.0,4.0,4.0,0.0,1.0,1.0,343.149660000563,3.0,1.0,phase_1,,,,,,,,,,,,,gray,circle
0.0,4.0,0.0,0.0,4.0,4.0,381.0261049984547,3.0,1.0,phase_1,,,,,,,,,,,,,gray,circle
0.0,3.0,0.0,0.0,2.0,2.0,401.5822350011149,3.0,1.0,phase_1,,,,,,,,,,,,,magenta,I
1322.0,4.0,4.0,0.0,2.0,2.0,324.751380001544,3.0,1.0,phase_1,,,,,,,,,,,,,gray,circle
316.0,6.0,2.0,1.0,4.0,4.0,477.2333820001222,3.0,1.0,phase_1,,,,,,,,,,,,,orange,flipped triangle
347.0,6.0,2.0,1.0,1.0,1.0,487.9204779990687,3.0,1.0,phase_1,,,,,,,,,,,,,orange,flipped triangle
1311.0,8.0,4.0,1.0,1.0,1.0,372.7844370005186,3.0,1.0,phase_1,,,,,,,,,,,,,white,cross
636.0,7.0,3.0,1.0,4.0,4.0,401.0430239995912,3.0,1.0,phase_1,,,,,,,,,,,,,yellow,triangle
651.0,3.0,3.0,0.0,2.0,2.0,362.820267000643,3.0,1.0,phase_1,,,,,,,,,,,,,magenta,I
631.0,7.0,3.0,1.0,1.0,1.0,410.5261919994518,3.0,1.0,phase_1,,,,,,,,,,,,,yellow,triangle
673.0,3.0,3.0,0.0,2.0,2.0,408.8612029991054,3.0,1.0,phase_1,,,,,,,,,,,,,magenta,I
638.0,7.0,3.0,1.0,4.0,4.0,477.7987440011202,3.0,1.0,phase_1,,,,,,,,,,,,,yellow,triangle
634.0,3.0,3.0,0.0,4.0,4.0,372.8083040005003,3.0,1.0,phase_1,,,,,,,,,,,,,magenta,I
1298.0,8.0,4.0,1.0,1.0,1.0,381.1470239998016,3.0,1.0,phase_1,,,,,,,,,,,,,white,cross
167.0,1.0,1.0,0.0,2.0,2.0,354.4518399994558,3.0,1.0,phase_1,,,,,,,,,,,,,cyan,diamond
654.0,7.0,3.0,1.0,1.0,1.0,381.5078849984274,3.0,1.0,phase_1,,,,,,,,,,,,,yellow,triangle
0.0,2.0,0.0,0.0,1.0,1.0,430.0303489999351,3.0,1.0,phase_1,,,,,,,,,,,,,blue,hexagon
316.0,2.0,2.0,0.0,3.0,3.0,458.7711340009264,3.0,1.0,phase_1,,,,,,,,,,,,,blue,hexagon
305.0,2.0,2.0,0.0,2.0,2.0,427.220337000108,3.0,1.0,phase_1,,,,,,,,,,,,,blue,hexagon
342.0,2.0,2.0,0.0,1.0,1.0,400.724810999236,3.0,1.0,phase_1,,,,,,,,,,,,,blue,hexagon
153.0,1.0,1.0,0.0,4.0,4.0,347.6597520002542,3.0,1.0,phase_1,,,,,,,,,,,,,cyan,diamond
668.0,7.0,3.0,1.0,2.0,2.0,344.4021280010929,3.0,1.0,phase_1,,,,,,,,,,,,,yellow,triangle
1302.0,4.0,4.0,0.0,4.0,4.0,430.0832519984396,3.0,1.0,phase_1,,,,,,,,,,,,,gray,circle
1276.0,8.0,4.0,1.0,1.0,1.0,335.7587259997672,3.0,1.0,phase_1,,,,,,,,,,,,,white,cross
1275.0,4.0,4.0,0.0,4.0,4.0,337.142827000207,3.0,1.0,phase_1,,,,,,,,,,,,,gray,circle
146.0,5.0,1.0,1.0,4.0,4.0,333.5225640003045,3.0,1.0,phase_1,,,,,,,,,,,,,green,square
1289.0,4.0,4.0,0.0,3.0,3.0,361.6924250000011,3.0,1.0,phase_1,,,,,,,,,,,,,gray,circle
632.0,7.0,3.0,1.0,2.0,2.0,460.1755010007764,3.0,1.0,phase_1,,,,,,,,,,,,,yellow,triangle
663.0,7.0,3.0,1.0,4.0,4.0,370.7645790000242,3.0,1.0,phase_1,,,,,,,,,,,,,yellow,triangle
1306.0,8.0,4.0,1.0,2.0,2.0,487.0901340000273,3.0,1.0,phase_1,,,,,,,,,,,,,white,cross
350.0,2.0,2.0,0.0,3.0,3.0,449.1288549997989,3.0,1.0,phase_1,,,,,,,,,,,,,blue,hexagon
180.0,1.0,1.0,0.0,2.0,2.0,448.7976230011554,3.0,1.0,phase_1,,,,,,,,,,,,,cyan,diamond
1299.0,4.0,4.0,0.0,4.0,4.0,403.901865998705,3.0,1.0,phase_1,,,,,,,,,,,,,gray,circle
651.0,7.0,3.0,1.0,1.0,1.0,430.0309550017118,3.0,1.0,phase_1,,,,,,,,,,,,,yellow,triangle
663.0,3.0,3.0,0.0,3.0,3.0,449.4685030003893,3.0,1.0,phase_1,,,,,,,,,,,,,magenta,I
339.0,2.0,2.0,0.0,4.0,4.0,420.5979339985788,3.0,1.0,phase_1,,,,,,,,,,,,,blue,hexagon
652.0,7.0,3.0,1.0,3.0,3.0,380.4467400004796,3.0,1.0,phase_1,,,,,,,,,,,,,yellow,triangle
1308.0,8.0,4.0,1.0,2.0,2.0,407.6036579990614,3.0,1.0,phase_1,,,,,,,,,,,,,white,cross
651.0,3.0,3.0,0.0,3.0,3.0,476.0053240006527,3.0,1.0,phase_1,,,,,,,,,,,,,magenta,I
178.0,1.0,1.0,0.0,2.0,2.0,381.1251110000739,3.0,1.0,phase_1,,,,,,,,,,,,,cyan,diamond
0.0,1.0,0.0,0.0,1.0,1.0,389.3905409986473,3.0,1.0,phase_1,,,,,,,,,,,,,cyan,diamond
312.0,2.0,2.0,0.0,2.0,2.0,382.645940000657,3.0,1.0,phase_1,,,,,,,,,,,,,blue,hexagon
175.0,5.0,1.0,1.0,4.0,4.0,381.6767089992936,3.0,1.0,phase_1,,,,,,,,,,,,,green,square
336.0,2.0,2.0,0.0,1.0,1.0,416.7448500011232,3.0,1.0,phase_1,,,,,,,,,,,,,blue,hexagon
314.0,6.0,2.0,1.0,1.0,1.0,436.60173599892,3.0,1.0,phase_1,,,,,,,,,,,,,orange,flipped triangle
1302.0,4.0,4.0,0.0,2.0,2.0,399.8570570001902,3.0,1.0,phase_1,,,,,,,,,,,,,gray,circle
145.0,5.0,1.0,1.0,4.0,4.0,360.1857800003927,3.0,1.0,phase_1,,,,,,,,,,,,,green,square
145.0,1.0,1.0,0.0,2.0,2.0,350.3104150004219,3.0,1.0,phase_1,,,,,,,,,,,,,cyan,diamond
0.0,1.0,0.0,0.0,3.0,3.0,369.4367210009659,3.0,1.0,phase_1,,,,,,,,,,,,,cyan,diamond
655.0,7.0,3.0,1.0,2.0,2.0,379.8626970001351,3.0,1.0,phase_1,,,,,,,,,,,,,yellow,triangle
1281.0,8.0,4.0,1.0,2.0,2.0,369.0342059999238,3.0,1.0,phase_1,,,,,,,,,,,,,white,cross
327.0,2.0,2.0,0.0,3.0,3.0,447.2750549994089,3.0,1.0,phase_1,,,,,,,,,,,,,blue,hexagon
184.0,5.0,1.0,1.0,2.0,2.0,361.5771580007276,3.0,1.0,phase_1,,,,,,,,,,,,,green,square
1314.0,4.0,4.0,0.0,1.0,1.0,428.0340679997607,3.0,1.0,phase_1,,,,,,,,,,,,,gray,circle
347.0,2.0,2.0,0.0,2.0,2.0,410.2523100009421,3.0,1.0,phase_1,,,,,,,,,,,,,blue,hexagon
658.0,7.0,3.0,1.0,3.0,3.0,390.3556409986777,3.0,1.0,phase_1,,,,,,,,,,,,,yellow,triangle
313.0,2.0,2.0,0.0,3.0,3.0,407.6785430006566,3.0,1.0,phase_1,,,,,,,,,,,,,blue,hexagon
1310.0,4.0,4.0,0.0,3.0,3.0,418.4041209991846,3.0,1.0,phase_1,,,,,,,,,,,,,gray,circle
1315.0,4.0,4.0,0.0,3.0,3.0,447.6321750007628,3.0,1.0,phase_1,,,,,,,,,,,,,gray,circle
332.0,6.0,2.0,1.0,2.0,2.0,419.5199320001848,3.0,1.0,phase_1,,,,,,,,,,,,,orange,flipped triangle
1299.0,8.0,4.0,1.0,4.0,4.0,361.3863640002819,3.0,1.0,phase_1,,,,,,,,,,,,,white,cross
671.0,3.0,3.0,0.0,3.0,3.0,398.30679500119,3.0,1.0,phase_1,,,,,,,,,,,,,magenta,I
667.0,7.0,3.0,1.0,3.0,3.0,399.4970269995974,3.0,1.0,phase_1,,,,,,,,,,,,,yellow,triangle
1277.0,4.0,4.0,0.0,2.0,2.0,410.5467049994331,3.0,1.0,phase_1,,,,,,,,,,,,,gray,circle
142.0,5.0,1.0,1.0,2.0,2.0,437.214147999839,3.0,1.0,phase_1,,,,,,,,,,,,,green,square
180.0,1.0,1.0,0.0,4.0,4.0,409.7239279999485,3.0,1.0,phase_1,,,,,,,,,,,,,cyan,diamond
0.0,4.0,0.0,0.0,2.0,2.0,457.7567750002345,3.0,1.0,phase_1,,,,,,,,,,,,,gray,circle
664.0,3.0,3.0,0.0,2.0,2.0,494.1958990002604,3.0,1.0,phase_1,,,,,,,,,,,,,magenta,I
1292.0,8.0,4.0,1.0,4.0,4.0,398.224383001434,3.0,1.0,phase_1,,,,,,,,,,,,,white,cross
141.0,1.0,1.0,0.0,3.0,3.0,409.3417929998395,3.0,1.0,phase_1,,,,,,,,,,,,,cyan,diamond
0.0,5.0,0.0,1.0,4.0,4.0,360.64302799968567,3.0,1.0,phase_1,,,,,,,,,,,,,green,square
1293.0,4.0,4.0,0.0,3.0,3.0,447.0460489992547,3.0,1.0,phase_1,,,,,,,,,,,,,gray,circle
180.0,5.0,1.0,1.0,3.0,3.0,450.177099000939,3.0,1.0,phase_1,,,,,,,,,,,,,green,square
348.0,6.0,2.0,1.0,3.0,3.0,436.95956400006247,3.0,1.0,phase_1,,,,,,,,,,,,,orange,flipped triangle
661.0,7.0,3.0,1.0,2.0,2.0,597.3022390007827,3.0,1.0,phase_1,,,,,,,,,,,,,yellow,triangle
1292.0,8.0,4.0,1.0,1.0,1.0,466.5538799999922,3.0,1.0,phase_1,,,,,,,,,,,,,white,cross
0.0,5.0,0.0,1.0,2.0,2.0,515.090846000021,3.0,1.0,phase_1,,,,,,,,,,,,,green,square
633.0,3.0,3.0,0.0,4.0,4.0,353.2210909997957,3.0,1.0,phase_1,,,,,,,,,,,,,magenta,I
181.0,5.0,1.0,1.0,1.0,1.0,429.9397459999454,3.0,1.0,phase_1,,,,,,,,,,,,,green,square
1303.0,4.0,4.0,0.0,1.0,1.0,379.9963689998549,3.0,1.0,phase_1,,,,,,,,,,,,,gray,circle
0.0,7.0,0.0,1.0,1.0,1.0,429.8192870010098,3.0,1.0,phase_1,,,,,,,,,,,,,yellow,triangle
158.0,5.0,1.0,1.0,1.0,1.0,638.8845070014213,4.0,1.0,phase_1,,,,,,,,,,,,,green,square
637.0,7.0,3.0,1.0,3.0,3.0,381.0692699989886,4.0,1.0,phase_1,,,,,,,,,,,,,yellow,triangle
628.0,7.0,3.0,1.0,1.0,1.0,296.0192409991578,4.0,1.0,phase_1,,,,,,,,,,,,,yellow,triangle
335.0,6.0,2.0,1.0,3.0,3.0,324.4517980001546,4.0,1.0,phase_1,,,,,,,,,,,,,orange,flipped triangle
663.0,3.0,3.0,0.0,2.0,2.0,426.840465001078,4.0,1.0,phase_1,,,,,,,,,,,,,magenta,I
1309.0,4.0,4.0,0.0,1.0,1.0,380.3365349995147,4.0,1.0,phase_1,,,,,,,,,,,,,gray,circle
331.0,2.0,2.0,0.0,3.0,3.0,373.6910729985538,4.0,1.0,phase_1,,,,,,,,,,,,,blue,hexagon
320.0,2.0,2.0,0.0,3.0,3.0,372.4197400006233,4.0,1.0,phase_1,,,,,,,,,,,,,blue,hexagon
175.0,1.0,1.0,0.0,1.0,1.0,410.4433789998438,4.0,1.0,phase_1,,,,,,,,,,,,,cyan,diamond
1281.0,4.0,4.0,0.0,3.0,3.0,372.4537929992948,4.0,1.0,phase_1,,,,,,,,,,,,,gray,circle
650.0,7.0,3.0,1.0,2.0,2.0,354.2658690003009,4.0,1.0,phase_1,,,,,,,,,,,,,yellow,triangle
0.0,7.0,0.0,1.0,1.0,1.0,314.6485680008481,4.0,1.0,phase_1,,,,,,,,,,,,,yellow,triangle
0.0,6.0,0.0,1.0,2.0,2.0,543.9319830002205,4.0,1.0,phase_1,,,,,,,,,,,,,orange,flipped triangle
168.0,1.0,1.0,0.0,4.0,4.0,409.2059829999925,4.0,1.0,phase_1,,,,,,,,,,,,,cyan,diamond
313.0,6.0,2.0,1.0,2.0,2.0,398.8289049993909,4.0,1.0,phase_1,,,,,,,,,,,,,orange,flipped triangle
1321.0,4.0,4.0,0.0,1.0,1.0,372.0488799990562,4.0,1.0,phase_1,,,,,,,,,,,,,gray,circle
0.0,6.0,0.0,1.0,1.0,1.0,354.1042220003874,4.0,1.0,phase_1,,,,,,,,,,,,,orange,flipped triangle
1321.0,8.0,4.0,1.0,1.0,1.0,344.0999580016068,4.0,1.0,phase_1,,,,,,,,,,,,,white,cross
312.0,6.0,2.0,1.0,4.0,4.0,439.2806670002755,4.0,1.0,phase_1,,,,,,,,,,,,,orange,flipped triangle
0.0,5.0,0.0,1.0,1.0,1.0,353.59089600024157,4.0,1.0,phase_1,,,,,,,,,,,,,green,square
648.0,3.0,3.0,0.0,2.0,2.0,343.328623999696,4.0,1.0,phase_1,,,,,,,,,,,,,magenta,I
168.0,1.0,1.0,0.0,3.0,3.0,325.3373179995833,4.0,1.0,phase_1,,,,,,,,,,,,,cyan,diamond
168.0,5.0,1.0,1.0,2.0,2.0,427.8481460005423,4.0,1.0,phase_1,,,,,,,,,,,,,green,square
313.0,2.0,2.0,0.0,2.0,2.0,454.9983570013864,4.0,1.0,phase_1,,,,,,,,,,,,,blue,hexagon
1292.0,4.0,4.0,0.0,1.0,1.0,371.5849809996143,4.0,1.0,phase_1,,,,,,,,,,,,,gray,circle
143.0,5.0,1.0,1.0,2.0,2.0,447.5292370007082,4.0,1.0,phase_1,,,,,,,,,,,,,green,square
650.0,3.0,3.0,0.0,1.0,1.0,391.7827190016396,4.0,1.0,phase_1,,,,,,,,,,,,,magenta,I
1322.0,8.0,4.0,1.0,4.0,4.0,353.306335000525,4.0,1.0,phase_1,,,,,,,,,,,,,white,cross
315.0,6.0,2.0,1.0,3.0,3.0,525.1609539991478,4.0,1.0,phase_1,,,,,,,,,,,,,orange,flipped triangle
1314.0,8.0,4.0,1.0,1.0,1.0,353.1426179997652,4.0,1.0,phase_1,,,,,,,,,,,,,white,cross
648.0,7.0,3.0,1.0,3.0,3.0,391.1129299995082,4.0,1.0,phase_1,,,,,,,,,,,,,yellow,triangle
1309.0,4.0,4.0,0.0,4.0,4.0,362.7034069995716,4.0,1.0,phase_1,,,,,,,,,,,,,gray,circle
1311.0,4.0,4.0,0.0,2.0,2.0,495.947541001442,4.0,1.0,phase_1,,,,,,,,,,,,,gray,circle
156.0,1.0,1.0,0.0,1.0,1.0,373.8892759993177,4.0,1.0,phase_1,,,,,,,,,,,,,cyan,diamond
339.0,2.0,2.0,0.0,2.0,2.0,458.4719560007215,4.0,1.0,phase_1,,,,,,,,,,,,,blue,hexagon
1317.0,8.0,4.0,1.0,3.0,3.0,352.4502339987521,4.0,1.0,phase_1,,,,,,,,,,,,,white,cross
0.0,6.0,0.0,1.0,1.0,1.0,411.2618269991799,4.0,1.0,phase_1,,,,,,,,,,,,,orange,flipped triangle
0.0,4.0,0.0,0.0,4.0,4.0,353.2599549998849,4.0,1.0,phase_1,,,,,,,,,,,,,gray,circle
654.0,3.0,3.0,0.0,1.0,1.0,353.1015749995276,4.0,1.0,phase_1,,,,,,,,,,,,,magenta,I
0.0,4.0,0.0,0.0,4.0,4.0,371.459144000255,4.0,1.0,phase_1,,,,,,,,,,,,,gray,circle
641.0,3.0,3.0,0.0,3.0,3.0,438.5073489993374,4.0,1.0,phase_1,,,,,,,,,,,,,magenta,I
185.0,1.0,1.0,0.0,3.0,3.0,429.0816329994413,4.0,1.0,phase_1,,,,,,,,,,,,,cyan,diamond
0.0,4.0,0.0,0.0,2.0,2.0,400.3787269994063,4.0,1.0,phase_1,,,,,,,,,,,,,gray,circle
663.0,7.0,3.0,1.0,1.0,1.0,449.6385980000923,4.0,1.0,phase_1,,,,,,,,,,,,,yellow,triangle
1286.0,4.0,4.0,0.0,4.0,4.0,324.6561299984023,4.0,1.0,phase_1,,,,,,,,,,,,,gray,circle
0.0,8.0,0.0,1.0,1.0,1.0,514.9201939984778,4.0,1.0,phase_1,,,,,,,,,,,,,white,cross
1299.0,8.0,4.0,1.0,3.0,3.0,466.2880529995163,4.0,1.0,phase_1,,,,,,,,,,,,,white,cross
0.0,6.0,0.0,1.0,3.0,3.0,477.7679229991918,4.0,1.0,phase_1,,,,,,,,,,,,,orange,flipped triangle
1283.0,4.0,4.0,0.0,2.0,2.0,466.5493859993148,4.0,1.0,phase_1,,,,,,,,,,,,,gray,circle
305.0,6.0,2.0,1.0,1.0,1.0,353.0611529986345,4.0,1.0,phase_1,,,,,,,,,,,,,orange,flipped triangle
0.0,8.0,0.0,1.0,4.0,4.0,372.6800080003158,4.0,1.0,phase_1,,,,,,,,,,,,,white,cross
166.0,5.0,1.0,1.0,2.0,2.0,404.1143349986669,4.0,1.0,phase_1,,,,,,,,,,,,,green,square
339.0,6.0,2.0,1.0,1.0,1.0,324.4257349997497,4.0,1.0,phase_1,,,,,,,,,,,,,orange,flipped triangle
175.0,1.0,1.0,0.0,4.0,4.0,333.9032710009633,4.0,1.0,phase_1,,,,,,,,,,,,,cyan,diamond
178.0,5.0,1.0,1.0,1.0,1.0,391.6478190003545,4.0,1.0,phase_1,,,,,,,,,,,,,green,square
1293.0,8.0,4.0,1.0,2.0,2.0,447.7851040010137,4.0,1.0,phase_1,,,,,,,,,,,,,white,cross
160.0,1.0,1.0,0.0,2.0,2.0,419.482056000561,4.0,1.0,phase_1,,,,,,,,,,,,,cyan,diamond
164.0,5.0,1.0,1.0,2.0,2.0,381.4295879983547,4.0,1.0,phase_1,,,,,,,,,,,,,green,square
652.0,3.0,3.0,0.0,1.0,1.0,363.1059939998522,4.0,1.0,phase_1,,,,,,,,,,,,,magenta,I
167.0,5.0,1.0,1.0,3.0,3.0,381.9597019992216,4.0,1.0,phase_1,,,,,,,,,,,,,green,square
648.0,3.0,3.0,0.0,4.0,4.0,325.1194749991555,4.0,1.0,phase_1,,,,,,,,,,,,,magenta,I
0.0,3.0,0.0,0.0,4.0,4.0,487.147902000288,4.0,1.0,phase_1,,,,,,,,,,,,,magenta,I
1275.0,8.0,4.0,1.0,4.0,4.0,468.1944859985378,4.0,1.0,phase_1,,,,,,,,,,,,,white,cross
0.0,2.0,0.0,0.0,1.0,1.0,343.956642998819,4.0,1.0,phase_1,,,,,,,,,,,,,blue,hexagon
157.0,5.0,1.0,1.0,3.0,3.0,457.8045690013823,4.0,1.0,phase_1,,,,,,,,,,,,,green,square
325.0,6.0,2.0,1.0,1.0,1.0,811.25988399981,4.0,1.0,phase_1,,,,,,,,,,,,,orange,flipped triangle
315.0,2.0,2.0,0.0,1.0,1.0,439.0346089985542,4.0,1.0,phase_1,,,,,,,,,,,,,blue,hexagon
0.0,8.0,0.0,1.0,4.0,4.0,429.0562240003055,4.0,1.0,phase_1,,,,,,,,,,,,,white,cross
0.0,8.0,0.0,1.0,3.0,3.0,381.2245360004453,4.0,1.0,phase_1,,,,,,,,,,,,,white,cross
168.0,5.0,1.0,1.0,3.0,3.0,457.7377559999149,4.0,1.0,phase_1,,,,,,,,,,,,,green,square
0.0,7.0,0.0,1.0,4.0,4.0,439.0687760005676,4.0,1.0,phase_1,,,,,,,,,,,,,yellow,triangle
667.0,7.0,3.0,1.0,4.0,4.0,410.0108399998134,4.0,1.0,phase_1,,,,,,,,,,,,,yellow,triangle
160.0,1.0,1.0,0.0,2.0,2.0,410.1865089996863,4.0,1.0,phase_1,,,,,,,,,,,,,cyan,diamond
153.0,5.0,1.0,1.0,1.0,1.0,324.7614049996628,4.0,1.0,phase_1,,,,,,,,,,,,,green,square
303.0,6.0,2.0,1.0,1.0,1.0,372.5010500002099,4.0,1.0,phase_1,,,,,,,,,,,,,orange,flipped triangle
0.0,8.0,0.0,1.0,1.0,1.0,380.8550670000841,4.0,1.0,phase_1,,,,,,,,,,,,,white,cross
313.0,6.0,2.0,1.0,3.0,3.0,343.73587600020977,4.0,1.0,phase_1,,,,,,,,,,,,,orange,flipped triangle
339.0,6.0,2.0,1.0,2.0,2.0,619.5131000004039,4.0,1.0,phase_1,,,,,,,,,,,,,orange,flipped triangle
630.0,7.0,3.0,1.0,2.0,2.0,486.1616149992187,4.0,1.0,phase_1,,,,,,,,,,,,,yellow,triangle
311.0,2.0,2.0,0.0,1.0,1.0,400.0239770011831,4.0,1.0,phase_1,,,,,,,,,,,,,blue,hexagon
0.0,6.0,0.0,1.0,1.0,1.0,458.797917000993,4.0,1.0,phase_1,,,,,,,,,,,,,orange,flipped triangle
160.0,5.0,1.0,1.0,3.0,3.0,343.866141000035,4.0,1.0,phase_1,,,,,,,,,,,,,green,square
167.0,1.0,1.0,0.0,1.0,1.0,485.3555030003917,4.0,1.0,phase_1,,,,,,,,,,,,,cyan,diamond
309.0,6.0,2.0,1.0,3.0,3.0,409.1703209996922,4.0,1.0,phase_1,,,,,,,,,,,,,orange,flipped triangle
141.0,5.0,1.0,1.0,4.0,4.0,409.133989998736,4.0,1.0,phase_1,,,,,,,,,,,,,green,square
303.0,2.0,2.0,0.0,4.0,4.0,429.7982980006054,4.0,1.0,phase_1,,,,,,,,,,,,,blue,hexagon
345.0,2.0,2.0,0.0,3.0,3.0,496.5248270000302,4.0,1.0,phase_1,,,,,,,,,,,,,blue,hexagon
1309.0,8.0,4.0,1.0,4.0,4.0,420.8563499996671,4.0,1.0,phase_1,,,,,,,,,,,,,white,cross
309.0,2.0,2.0,0.0,3.0,3.0,400.7640439995157,4.0,1.0,phase_1,,,,,,,,,,,,,blue,hexagon
1286.0,8.0,4.0,1.0,3.0,3.0,409.6377070000017,4.0,1.0,phase_1,,,,,,,,,,,,,white,cross
673.0,7.0,3.0,1.0,3.0,3.0,429.0772780004772,4.0,1.0,phase_1,,,,,,,,,,,,,yellow,triangle
1318.0,4.0,4.0,0.0,1.0,1.0,617.4140570001327,4.0,1.0,phase_1,,,,,,,,,,,,,gray,circle
0.0,7.0,0.0,1.0,2.0,2.0,428.6959979999665,4.0,1.0,phase_1,,,,,,,,,,,,,yellow,triangle
0.0,2.0,0.0,0.0,1.0,1.0,638.1195440008014,4.0,1.0,phase_1,,,,,,,,,,,,,blue,hexagon
0.0,1.0,0.0,0.0,1.0,1.0,400.2775449989713,4.0,1.0,phase_1,,,,,,,,,,,,,cyan,diamond
320.0,2.0,2.0,0.0,2.0,2.0,477.0220669997798,4.0,1.0,phase_1,,,,,,,,,,,,,blue,hexagon
182.0,5.0,1.0,1.0,4.0,4.0,400.3140589993563,4.0,1.0,phase_1,,,,,,,,,,,,,green,square
173.0,1.0,1.0,0.0,1.0,1.0,447.9223630005435,4.0,1.0,phase_1,,,,,,,,,,,,,cyan,diamond
631.0,3.0,3.0,0.0,1.0,1.0,457.4549379995005,4.0,1.0,phase_1,,,,,,,,,,,,,magenta,I
1302.0,8.0,4.0,1.0,1.0,1.0,439.1534700007469,4.0,1.0,phase_1,,,,,,,,,,,,,white,cross
0.0,3.0,3.0,0.0,6.0,6.0,333.9796800009935,1.0,1.0,phase_2,go,250.0,250.0,1.0,,,,,,,,,magenta,I
0.0,3.0,3.0,0.0,5.0,5.0,362.026043001606,1.0,1.0,phase_2,go,250.0,250.0,1.0,,,,,,,,,magenta,I
0.0,6.0,2.0,1.0,5.0,0.0,0.0,1.0,1.0,phase_2,stop,250.0,250.0,4.0,,,,,,,,,orange,flipped triangle
0.0,1.0,1.0,0.0,6.0,6.0,480.6255920011608,1.0,1.0,phase_2,go,300.0,250.0,1.0,,,,,,,,,cyan,diamond
0.0,4.0,4.0,0.0,6.0,6.0,469.1653479985689,1.0,1.0,phase_2,go,300.0,250.0,1.0,,,,,,,,,gray,circle
0.0,6.0,2.0,1.0,6.0,0.0,0.0,1.0,1.0,phase_2,stop,300.0,250.0,4.0,,,,,,,,,orange,flipped triangle
0.0,5.0,1.0,1.0,6.0,6.0,487.5916740002139,1.0,1.0,phase_2,stop,300.0,300.0,3.0,,,,,,,,,green,square
0.0,6.0,2.0,1.0,6.0,0.0,0.0,1.0,1.0,phase_2,stop,300.0,250.0,4.0,,,,,,,,,orange,flipped triangle
0.0,5.0,1.0,1.0,5.0,5.0,355.2284039997175,1.0,1.0,phase_2,go,300.0,300.0,1.0,,,,,,,,,green,square
0.0,3.0,3.0,0.0,5.0,5.0,767.2225360001903,1.0,1.0,phase_2,go,300.0,300.0,1.0,,,,,,,,,magenta,I
0.0,8.0,4.0,1.0,5.0,5.0,499.2135350003082,1.0,1.0,phase_2,go,300.0,300.0,1.0,,,,,,,,,white,cross
0.0,5.0,1.0,1.0,6.0,6.0,748.8354249999247,1.0,1.0,phase_2,go,300.0,300.0,1.0,,,,,,,,,green,square
0.0,8.0,4.0,1.0,5.0,5.0,409.0972850008256,1.0,1.0,phase_2,stop,300.0,300.0,3.0,,,,,,,,,white,cross
0.0,6.0,2.0,1.0,6.0,0.0,0.0,1.0,1.0,phase_2,stop,250.0,300.0,4.0,,,,,,,,,orange,flipped triangle
0.0,7.0,3.0,1.0,6.0,0.0,0.0,1.0,1.0,phase_2,stop,250.0,350.0,4.0,,,,,,,,,yellow,triangle
0.0,6.0,2.0,1.0,6.0,6.0,564.6941369996057,1.0,1.0,phase_2,go,250.0,400.0,1.0,,,,,,,,,orange,flipped triangle
0.0,1.0,1.0,0.0,5.0,5.0,508.5947209990991,1.0,1.0,phase_2,go,250.0,400.0,1.0,,,,,,,,,cyan,diamond
0.0,6.0,2.0,1.0,5.0,5.0,844.8621229999844,1.0,1.0,phase_2,go,250.0,400.0,1.0,,,,,,,,,orange,flipped triangle
0.0,6.0,2.0,1.0,5.0,0.0,0.0,1.0,1.0,phase_2,stop,250.0,400.0,4.0,,,,,,,,,orange,flipped triangle
0.0,8.0,4.0,1.0,5.0,0.0,0.0,1.0,1.0,phase_2,stop,300.0,400.0,4.0,,,,,,,,,white,cross
0.0,6.0,2.0,1.0,5.0,0.0,0.0,1.0,1.0,phase_2,stop,350.0,400.0,4.0,,,,,,,,,orange,flipped triangle
0.0,1.0,1.0,0.0,5.0,5.0,392.9871000000275,1.0,1.0,phase_2,go,400.0,400.0,1.0,,,,,,,,,cyan,diamond
0.0,5.0,1.0,1.0,5.0,5.0,430.5164070010505,1.0,1.0,phase_2,stop,400.0,400.0,3.0,,,,,,,,,green,square
0.0,7.0,3.0,1.0,5.0,0.0,0.0,1.0,1.0,phase_2,stop,350.0,400.0,4.0,,,,,,,,,yellow,triangle
0.0,1.0,1.0,0.0,6.0,6.0,421.6306430007535,1.0,1.0,phase_2,go,400.0,400.0,1.0,,,,,,,,,cyan,diamond
0.0,8.0,4.0,1.0,6.0,6.0,671.033198999794,1.0,1.0,phase_2,go,400.0,400.0,1.0,,,,,,,,,white,cross
0.0,8.0,4.0,1.0,5.0,0.0,0.0,1.0,1.0,phase_2,stop,400.0,400.0,4.0,,,,,,,,,white,cross
0.0,8.0,4.0,1.0,6.0,6.0,581.3774460002605,1.0,1.0,phase_2,stop,450.0,400.0,3.0,,,,,,,,,white,cross
0.0,5.0,1.0,1.0,6.0,0.0,0.0,1.0,1.0,phase_2,stop,450.0,350.0,4.0,,,,,,,,,green,square
0.0,1.0,1.0,0.0,6.0,6.0,585.3396080001403,1.0,1.0,phase_2,go,450.0,400.0,1.0,,,,,,,,,cyan,diamond
0.0,8.0,4.0,1.0,5.0,0.0,0.0,1.0,1.0,phase_2,stop,450.0,400.0,4.0,,,,,,,,,white,cross
0.0,8.0,4.0,1.0,6.0,0.0,0.0,1.0,1.0,phase_2,stop,500.0,400.0,4.0,,,,,,,,,white,cross
0.0,8.0,4.0,1.0,5.0,5.0,759.4338740000239,1.0,1.0,phase_2,go,500.0,450.0,1.0,,,,,,,,,white,cross
0.0,6.0,2.0,1.0,5.0,5.0,767.1513739987859,1.0,1.0,phase_2,go,500.0,450.0,1.0,,,,,,,,,orange,flipped triangle
0.0,4.0,4.0,0.0,5.0,5.0,786.248546999559,1.0,1.0,phase_2,go,500.0,450.0,1.0,,,,,,,,,gray,circle
0.0,5.0,1.0,1.0,6.0,0.0,0.0,1.0,1.0,phase_2,stop,500.0,450.0,4.0,,,,,,,,,green,square
0.0,5.0,1.0,1.0,5.0,5.0,648.2564029993227,2.0,1.0,phase_2,stop,500.0,500.0,3.0,,,,,,,,,green,square
0.0,7.0,3.0,1.0,6.0,6.0,681.4879409994319,2.0,1.0,phase_2,go,450.0,500.0,1.0,,,,,,,,,yellow,triangle
0.0,2.0,2.0,0.0,6.0,6.0,708.6428390011861,2.0,1.0,phase_2,go,450.0,500.0,1.0,,,,,,,,,blue,hexagon
0.0,6.0,2.0,1.0,6.0,0.0,0.0,2.0,1.0,phase_2,stop,450.0,500.0,4.0,,,,,,,,,orange,flipped triangle
0.0,1.0,1.0,0.0,5.0,5.0,816.0919100009778,2.0,1.0,phase_2,go,450.0,550.0,1.0,,,,,,,,,cyan,diamond
0.0,1.0,1.0,0.0,5.0,5.0,833.1606310002826,2.0,1.0,phase_2,go,450.0,550.0,1.0,,,,,,,,,cyan,diamond
0.0,2.0,2.0,0.0,5.0,5.0,737.3769370005903,2.0,1.0,phase_2,go,450.0,550.0,1.0,,,,,,,,,blue,hexagon
0.0,5.0,1.0,1.0,5.0,0.0,0.0,2.0,1.0,phase_2,stop,450.0,550.0,4.0,,,,,,,,,green,square
0.0,7.0,3.0,1.0,6.0,0.0,0.0,2.0,1.0,phase_2,stop,500.0,550.0,4.0,,,,,,,,,yellow,triangle
0.0,5.0,1.0,1.0,5.0,5.0,735.9822939997684,2.0,1.0,phase_2,stop,500.0,600.0,3.0,,,,,,,,,green,square
0.0,3.0,3.0,0.0,5.0,5.0,632.2741299991321,2.0,1.0,phase_2,go,450.0,600.0,1.0,,,,,,,,,magenta,I
0.0,1.0,1.0,0.0,5.0,5.0,890.4057100007776,2.0,1.0,phase_2,go,450.0,600.0,1.0,,,,,,,,,cyan,diamond
0.0,4.0,4.0,0.0,6.0,6.0,975.9043600006408,2.0,1.0,phase_2,go,450.0,600.0,1.0,,,,,,,,,gray,circle
0.0,8.0,4.0,1.0,6.0,6.0,758.421021999311,2.0,1.0,phase_2,stop,450.0,600.0,3.0,,,,,,,,,white,cross
0.0,5.0,1.0,1.0,6.0,0.0,0.0,2.0,1.0,phase_2,stop,450.0,550.0,4.0,,,,,,,,,green,square
0.0,4.0,4.0,0.0,5.0,5.0,878.8623620002909,2.0,1.0,phase_2,go,450.0,600.0,1.0,,,,,,,,,gray,circle
0.0,2.0,2.0,0.0,5.0,5.0,1254.210757000692,2.0,1.0,phase_2,go,450.0,600.0,1.0,,,,,,,,,blue,hexagon
0.0,8.0,4.0,1.0,6.0,0.0,0.0,2.0,1.0,phase_2,stop,450.0,600.0,4.0,,,,,,,,,white,cross
0.0,7.0,3.0,1.0,5.0,5.0,1032.883222998862,2.0,1.0,phase_2,go,450.0,650.0,1.0,,,,,,,,,yellow,triangle
0.0,2.0,2.0,0.0,5.0,5.0,820.9021969996684,2.0,1.0,phase_2,go,450.0,650.0,1.0,,,,,,,,,blue,hexagon
0.0,3.0,3.0,0.0,6.0,6.0,1281.0723800012056,2.0,1.0,phase_2,go,450.0,650.0,1.0,,,,,,,,,magenta,I
0.0,2.0,2.0,0.0,6.0,6.0,969.072473999404,2.0,1.0,phase_2,go,450.0,650.0,1.0,,,,,,,,,blue,hexagon
0.0,4.0,4.0,0.0,5.0,5.0,793.641532998663,2.0,1.0,phase_2,go,450.0,650.0,1.0,,,,,,,,,gray,circle
0.0,1.0,1.0,0.0,6.0,6.0,960.9481650004454,2.0,1.0,phase_2,go,450.0,650.0,1.0,,,,,,,,,cyan,diamond
0.0,3.0,3.0,0.0,6.0,6.0,979.02443699968,2.0,1.0,phase_2,go,450.0,650.0,1.0,,,,,,,,,magenta,I
0.0,7.0,3.0,1.0,6.0,0.0,0.0,2.0,1.0,phase_2,stop,450.0,650.0,4.0,,,,,,,,,yellow,triangle
0.0,6.0,2.0,1.0,6.0,0.0,0.0,2.0,1.0,phase_2,stop,450.0,700.0,4.0,,,,,,,,,orange,flipped triangle
0.0,3.0,3.0,0.0,5.0,5.0,987.7472579992173,2.0,1.0,phase_2,go,450.0,750.0,1.0,,,,,,,,,magenta,I
0.0,7.0,3.0,1.0,6.0,6.0,868.7547530007578,2.0,1.0,phase_2,stop,450.0,750.0,3.0,,,,,,,,,yellow,triangle
0.0,4.0,4.0,0.0,5.0,5.0,1141.9288189990766,2.0,1.0,phase_2,go,450.0,700.0,1.0,,,,,,,,,gray,circle
0.0,4.0,4.0,0.0,6.0,6.0,524.882138999601,2.0,1.0,phase_2,go,450.0,700.0,1.0,,,,,,,,,gray,circle
0.0,1.0,1.0,0.0,6.0,6.0,1148.6551070011046,2.0,1.0,phase_2,go,450.0,700.0,1.0,,,,,,,,,cyan,diamond
0.0,5.0,1.0,1.0,6.0,0.0,0.0,2.0,1.0,phase_2,stop,450.0,700.0,4.0,,,,,,,,,green,square
0.0,7.0,3.0,1.0,5.0,0.0,0.0,2.0,1.0,phase_2,stop,450.0,750.0,4.0,,,,,,,,,yellow,triangle
0.0,7.0,3.0,1.0,5.0,0.0,0.0,2.0,1.0,phase_2,stop,500.0,750.0,4.0,,,,,,,,,yellow,triangle
0.0,4.0,4.0,0.0,5.0,5.0,584.2732420005632,2.0,1.0,phase_2,go,550.0,750.0,1.0,,,,,,,,,gray,circle
0.0,5.0,1.0,1.0,5.0,5.0,402.6204750007309,3.0,1.0,phase_2,stop,550.0,750.0,3.0,,,,,,,,,green,square
0.0,3.0,3.0,0.0,5.0,5.0,566.3084070001787,3.0,1.0,phase_2,go,500.0,750.0,1.0,,,,,,,,,magenta,I
0.0,2.0,2.0,0.0,6.0,6.0,383.351696000318,3.0,1.0,phase_2,go,500.0,750.0,1.0,,,,,,,,,blue,hexagon
0.0,1.0,1.0,0.0,6.0,6.0,697.7928539999994,3.0,1.0,phase_2,go,500.0,750.0,1.0,,,,,,,,,cyan,diamond
0.0,1.0,1.0,0.0,6.0,6.0,517.5048150013026,3.0,1.0,phase_2,go,500.0,750.0,1.0,,,,,,,,,cyan,diamond
0.0,7.0,3.0,1.0,6.0,6.0,802.1032310007286,3.0,1.0,phase_2,stop,500.0,750.0,3.0,,,,,,,,,yellow,triangle
0.0,3.0,3.0,0.0,6.0,6.0,964.3226209991552,3.0,1.0,phase_2,go,500.0,700.0,1.0,,,,,,,,,magenta,I
0.0,3.0,3.0,0.0,6.0,6.0,804.0401720008958,3.0,1.0,phase_2,go,500.0,700.0,1.0,,,,,,,,,magenta,I
0.0,2.0,2.0,0.0,6.0,6.0,724.1362900003878,3.0,1.0,phase_2,go,500.0,700.0,1.0,,,,,,,,,blue,hexagon
0.0,8.0,4.0,1.0,6.0,0.0,0.0,3.0,1.0,phase_2,stop,500.0,700.0,4.0,,,,,,,,,white,cross
0.0,5.0,1.0,1.0,5.0,5.0,873.6510279995855,3.0,1.0,phase_2,go,500.0,750.0,1.0,,,,,,,,,green,square
0.0,7.0,3.0,1.0,5.0,0.0,0.0,3.0,1.0,phase_2,stop,500.0,750.0,4.0,,,,,,,,,yellow,triangle
0.0,1.0,1.0,0.0,6.0,6.0,705.1820430006046,3.0,1.0,phase_2,go,550.0,750.0,1.0,,,,,,,,,cyan,diamond
0.0,3.0,3.0,0.0,5.0,5.0,985.6043769996176,3.0,1.0,phase_2,go,550.0,750.0,1.0,,,,,,,,,magenta,I
0.0,1.0,1.0,0.0,5.0,5.0,479.4608079992031,3.0,1.0,phase_2,go,550.0,750.0,1.0,,,,,,,,,cyan,diamond
0.0,6.0,2.0,1.0,5.0,5.0,783.8851420001447,3.0,1.0,phase_2,go,550.0,750.0,1.0,,,,,,,,,orange,flipped triangle
0.0,8.0,4.0,1.0,5.0,0.0,0.0,3.0,1.0,phase_2,stop,550.0,750.0,4.0,,,,,,,,,white,cross
0.0,1.0,1.0,0.0,6.0,6.0,852.5337039991427,3.0,1.0,phase_2,go,600.0,750.0,1.0,,,,,,,,,cyan,diamond
0.0,3.0,3.0,0.0,6.0,6.0,728.117728000143,3.0,1.0,phase_2,go,600.0,750.0,1.0,,,,,,,,,magenta,I
0.0,6.0,2.0,1.0,5.0,5.0,898.8104920008482,3.0,1.0,phase_2,go,600.0,750.0,1.0,,,,,,,,,orange,flipped triangle
0.0,4.0,4.0,0.0,6.0,6.0,1071.6525929983618,3.0,1.0,phase_2,go,600.0,750.0,1.0,,,,,,,,,gray,circle
0.0,5.0,1.0,1.0,6.0,6.0,805.0040610014548,3.0,1.0,phase_2,stop,600.0,750.0,3.0,,,,,,,,,green,square
0.0,2.0,2.0,0.0,6.0,6.0,803.8800150006864,3.0,1.0,phase_2,go,600.0,700.0,1.0,,,,,,,,,blue,hexagon
0.0,4.0,4.0,0.0,6.0,6.0,460.1470849993347,3.0,1.0,phase_2,go,600.0,700.0,1.0,,,,,,,,,gray,circle
0.0,2.0,2.0,0.0,6.0,6.0,737.2578039994551,3.0,1.0,phase_2,go,600.0,700.0,1.0,,,,,,,,,blue,hexagon
0.0,2.0,2.0,0.0,6.0,6.0,642.0811450007022,3.0,1.0,phase_2,go,600.0,700.0,1.0,,,,,,,,,blue,hexagon
0.0,3.0,3.0,0.0,6.0,6.0,888.8838660004694,3.0,1.0,phase_2,go,600.0,700.0,1.0,,,,,,,,,magenta,I
0.0,7.0,3.0,1.0,5.0,5.0,658.7969900010648,3.0,1.0,phase_2,stop,600.0,700.0,3.0,,,,,,,,,yellow,triangle
0.0,2.0,2.0,0.0,5.0,5.0,718.0636940011027,3.0,1.0,phase_2,go,550.0,700.0,1.0,,,,,,,,,blue,hexagon
0.0,7.0,3.0,1.0,6.0,6.0,466.4262289988983,3.0,1.0,phase_2,go,550.0,700.0,1.0,,,,,,,,,yellow,triangle
0.0,8.0,4.0,1.0,6.0,6.0,784.0315089997603,3.0,1.0,phase_2,stop,550.0,700.0,3.0,,,,,,,,,white,cross
0.0,1.0,1.0,0.0,5.0,5.0,716.9624520010984,3.0,1.0,phase_2,go,550.0,650.0,1.0,,,,,,,,,cyan,diamond
0.0,7.0,3.0,1.0,6.0,6.0,458.1712710005376,3.0,1.0,phase_2,stop,550.0,650.0,3.0,,,,,,,,,yellow,triangle
0.0,7.0,3.0,1.0,6.0,6.0,748.1787430006079,3.0,1.0,phase_2,stop,550.0,600.0,3.0,,,,,,,,,yellow,triangle
0.0,2.0,2.0,0.0,5.0,5.0,677.1585599999526,3.0,1.0,phase_2,go,550.0,550.0,1.0,,,,,,,,,blue,hexagon
0.0,4.0,4.0,0.0,6.0,6.0,880.6911900010164,3.0,1.0,phase_2,go,550.0,550.0,1.0,,,,,,,,,gray,circle
0.0,3.0,3.0,0.0,5.0,5.0,335.5035509994195,4.0,1.0,phase_2,go,550.0,550.0,1.0,,,,,,,,,magenta,I
0.0,8.0,4.0,1.0,5.0,5.0,315.4074590001983,4.0,1.0,phase_2,stop,550.0,550.0,3.0,,,,,,,,,white,cross
0.0,5.0,1.0,1.0,5.0,5.0,601.4720069997566,4.0,1.0,phase_2,stop,500.0,550.0,3.0,,,,,,,,,green,square
0.0,6.0,2.0,1.0,6.0,6.0,315.7896479988267,4.0,1.0,phase_2,stop,450.0,550.0,3.0,,,,,,,,,orange,flipped triangle
0.0,3.0,3.0,0.0,5.0,5.0,564.5366110002215,4.0,1.0,phase_2,go,450.0,500.0,1.0,,,,,,,,,magenta,I
0.0,3.0,3.0,0.0,6.0,6.0,620.5189600004815,4.0,1.0,phase_2,go,450.0,500.0,1.0,,,,,,,,,magenta,I
0.0,8.0,4.0,1.0,5.0,5.0,383.5575010016328,4.0,1.0,phase_2,stop,450.0,500.0,3.0,,,,,,,,,white,cross
0.0,4.0,4.0,0.0,6.0,6.0,601.4627179993113,4.0,1.0,phase_2,go,400.0,500.0,1.0,,,,,,,,,gray,circle
0.0,1.0,1.0,0.0,6.0,6.0,418.5407370005123,4.0,1.0,phase_2,go,400.0,500.0,1.0,,,,,,,,,cyan,diamond
0.0,5.0,1.0,1.0,6.0,0.0,0.0,4.0,1.0,phase_2,stop,400.0,500.0,4.0,,,,,,,,,green,square
0.0,3.0,3.0,0.0,5.0,5.0,446.6422320001584,4.0,1.0,phase_2,go,400.0,550.0,1.0,,,,,,,,,magenta,I
0.0,7.0,3.0,1.0,6.0,6.0,315.9434049994161,4.0,1.0,phase_2,stop,400.0,550.0,3.0,,,,,,,,,yellow,triangle
0.0,2.0,2.0,0.0,6.0,6.0,925.1737150007102,4.0,1.0,phase_2,go,400.0,500.0,1.0,,,,,,,,,blue,hexagon
0.0,1.0,1.0,0.0,6.0,6.0,773.6052310010564,4.0,1.0,phase_2,go,400.0,500.0,1.0,,,,,,,,,cyan,diamond
0.0,6.0,2.0,1.0,6.0,6.0,344.740090000414,4.0,1.0,phase_2,go,400.0,500.0,1.0,,,,,,,,,orange,flipped triangle
0.0,4.0,4.0,0.0,6.0,6.0,669.9112510013947,4.0,1.0,phase_2,go,400.0,500.0,1.0,,,,,,,,,gray,circle
0.0,5.0,1.0,1.0,6.0,6.0,343.7854389994754,4.0,1.0,phase_2,go,400.0,500.0,1.0,,,,,,,,,green,square
0.0,1.0,1.0,0.0,6.0,6.0,325.2178059992729,4.0,1.0,phase_2,go,400.0,500.0,1.0,,,,,,,,,cyan,diamond
0.0,6.0,2.0,1.0,5.0,5.0,555.6671400008781,4.0,1.0,phase_2,stop,400.0,500.0,3.0,,,,,,,,,orange,flipped triangle
0.0,8.0,4.0,1.0,5.0,0.0,0.0,4.0,1.0,phase_2,stop,350.0,500.0,4.0,,,,,,,,,white,cross
0.0,2.0,2.0,0.0,5.0,5.0,450.8815379995212,4.0,1.0,phase_2,go,400.0,500.0,1.0,,,,,,,,,blue,hexagon
0.0,6.0,2.0,1.0,5.0,5.0,305.8839629993599,4.0,1.0,phase_2,stop,400.0,500.0,3.0,,,,,,,,,orange,flipped triangle
0.0,2.0,2.0,0.0,6.0,6.0,440.1840690006793,4.0,1.0,phase_2,go,350.0,500.0,1.0,,,,,,,,,blue,hexagon
0.0,7.0,3.0,1.0,5.0,5.0,525.4381840004498,4.0,1.0,phase_2,stop,350.0,500.0,3.0,,,,,,,,,yellow,triangle
0.0,1.0,1.0,0.0,5.0,5.0,688.2829000005586,4.0,1.0,phase_2,go,300.0,500.0,1.0,,,,,,,,,cyan,diamond
0.0,5.0,1.0,1.0,5.0,5.0,496.6800289985258,4.0,1.0,phase_2,go,300.0,500.0,1.0,,,,,,,,,green,square
0.0,4.0,4.0,0.0,5.0,5.0,353.2598470010271,4.0,1.0,phase_2,go,300.0,500.0,1.0,,,,,,,,,gray,circle
0.0,3.0,3.0,0.0,5.0,5.0,459.2115420000482,4.0,1.0,phase_2,go,300.0,500.0,1.0,,,,,,,,,magenta,I
0.0,4.0,4.0,0.0,5.0,5.0,420.6911110013607,4.0,1.0,phase_2,go,300.0,500.0,1.0,,,,,,,,,gray,circle
0.0,3.0,3.0,0.0,6.0,6.0,667.3918279993813,4.0,1.0,phase_2,go,300.0,500.0,1.0,,,,,,,,,magenta,I
0.0,7.0,3.0,1.0,5.0,0.0,0.0,4.0,1.0,phase_2,stop,300.0,500.0,4.0,,,,,,,,,yellow,triangle
0.0,5.0,1.0,1.0,6.0,6.0,555.3094840015547,4.0,1.0,phase_2,go,350.0,500.0,1.0,,,,,,,,,green,square
0.0,3.0,3.0,0.0,6.0,6.0,725.0268909992883,4.0,1.0,phase_2,go,350.0,500.0,1.0,,,,,,,,,magenta,I
0.0,4.0,4.0,0.0,6.0,6.0,686.4095410001028,4.0,1.0,phase_2,go,350.0,500.0,1.0,,,,,,,,,gray,circle
0.0,5.0,1.0,1.0,6.0,6.0,383.1962940002995,4.0,1.0,phase_2,stop,350.0,500.0,3.0,,,,,,,,,green,square
0.0,4.0,4.0,0.0,5.0,5.0,595.2311330001976,4.0,1.0,phase_2,go,350.0,450.0,1.0,,,,,,,,,gray,circle
0.0,1.0,1.0,0.0,6.0,6.0,373.1430419993558,5.0,1.0,phase_2,go,350.0,450.0,1.0,,,,,,,,,cyan,diamond
0.0,2.0,2.0,0.0,6.0,6.0,373.2189539987303,5.0,1.0,phase_2,go,350.0,450.0,1.0,,,,,,,,,blue,hexagon
0.0,6.0,2.0,1.0,5.0,5.0,445.072042000902,5.0,1.0,phase_2,stop,350.0,450.0,3.0,,,,,,,,,orange,flipped triangle
0.0,5.0,1.0,1.0,6.0,6.0,604.098009000154,5.0,1.0,phase_2,stop,300.0,450.0,3.0,,,,,,,,,green,square
0.0,2.0,2.0,0.0,6.0,6.0,526.0769359992992,5.0,1.0,phase_2,go,300.0,400.0,1.0,,,,,,,,,blue,hexagon
0.0,3.0,3.0,0.0,6.0,6.0,477.4319419993844,5.0,1.0,phase_2,go,300.0,400.0,1.0,,,,,,,,,magenta,I
0.0,2.0,2.0,0.0,6.0,6.0,392.0959509996464,5.0,1.0,phase_2,go,300.0,400.0,1.0,,,,,,,,,blue,hexagon
0.0,7.0,3.0,1.0,5.0,0.0,0.0,5.0,1.0,phase_2,stop,300.0,400.0,4.0,,,,,,,,,yellow,triangle
0.0,6.0,2.0,1.0,5.0,0.0,0.0,5.0,1.0,phase_2,stop,350.0,400.0,4.0,,,,,,,,,orange,flipped triangle
0.0,4.0,4.0,0.0,6.0,6.0,364.4240730009187,5.0,1.0,phase_2,go,400.0,400.0,1.0,,,,,,,,,gray,circle
0.0,2.0,2.0,0.0,5.0,5.0,266.8215939993388,5.0,1.0,phase_2,go,400.0,400.0,1.0,,,,,,,,,blue,hexagon
0.0,2.0,2.0,0.0,5.0,5.0,754.664980000598,5.0,1.0,phase_2,go,400.0,400.0,1.0,,,,,,,,,blue,hexagon
0.0,3.0,3.0,0.0,6.0,6.0,487.2959519998403,5.0,1.0,phase_2,go,400.0,400.0,1.0,,,,,,,,,magenta,I
0.0,3.0,3.0,0.0,5.0,5.0,795.4988500005129,5.0,1.0,phase_2,go,400.0,400.0,1.0,,,,,,,,,magenta,I
0.0,1.0,1.0,0.0,5.0,5.0,650.0688239993906,5.0,1.0,phase_2,go,400.0,400.0,1.0,,,,,,,,,cyan,diamond
0.0,5.0,1.0,1.0,5.0,0.0,0.0,5.0,1.0,phase_2,stop,400.0,400.0,4.0,,,,,,,,,green,square
0.0,8.0,4.0,1.0,5.0,5.0,689.9235119999503,5.0,1.0,phase_2,go,450.0,400.0,1.0,,,,,,,,,white,cross
0.0,7.0,3.0,1.0,6.0,6.0,314.9595129998488,5.0,1.0,phase_2,stop,450.0,400.0,3.0,,,,,,,,,yellow,triangle
0.0,8.0,4.0,1.0,6.0,6.0,503.97442299981776,5.0,1.0,phase_2,stop,450.0,350.0,3.0,,,,,,,,,white,cross
0.0,7.0,3.0,1.0,5.0,5.0,545.69833199821,5.0,1.0,phase_2,stop,450.0,300.0,3.0,,,,,,,,,yellow,triangle
0.0,2.0,2.0,0.0,6.0,6.0,593.1329559989535,5.0,1.0,phase_2,go,400.0,300.0,1.0,,,,,,,,,blue,hexagon
0.0,5.0,1.0,1.0,5.0,5.0,382.7739299995301,5.0,1.0,phase_2,stop,400.0,300.0,3.0,,,,,,,,,green,square
0.0,1.0,1.0,0.0,5.0,5.0,700.5411039990577,5.0,1.0,phase_2,go,350.0,300.0,1.0,,,,,,,,,cyan,diamond
0.0,7.0,3.0,1.0,5.0,5.0,420.8218610001495,5.0,1.0,phase_2,go,350.0,300.0,1.0,,,,,,,,,yellow,triangle
0.0,6.0,2.0,1.0,5.0,5.0,411.000204998345,5.0,1.0,phase_2,go,350.0,300.0,1.0,,,,,,,,,orange,flipped triangle
0.0,7.0,3.0,1.0,5.0,5.0,410.2136319997953,5.0,1.0,phase_2,stop,350.0,300.0,3.0,,,,,,,,,yellow,triangle
0.0,5.0,1.0,1.0,5.0,5.0,719.0680700005032,5.0,1.0,phase_2,go,300.0,300.0,1.0,,,,,,,,,green,square
0.0,2.0,2.0,0.0,6.0,6.0,382.9617209994467,5.0,1.0,phase_2,go,300.0,300.0,1.0,,,,,,,,,blue,hexagon
0.0,4.0,4.0,0.0,5.0,5.0,334.154830999978,5.0,1.0,phase_2,go,300.0,300.0,1.0,,,,,,,,,gray,circle
0.0,2.0,2.0,0.0,5.0,5.0,457.751318001101,5.0,1.0,phase_2,go,300.0,300.0,1.0,,,,,,,,,blue,hexagon
0.0,3.0,3.0,0.0,5.0,5.0,555.4490769991389,5.0,1.0,phase_2,go,300.0,300.0,1.0,,,,,,,,,magenta,I
0.0,7.0,3.0,1.0,5.0,0.0,0.0,5.0,1.0,phase_2,stop,300.0,300.0,4.0,,,,,,,,,yellow,triangle
0.0,4.0,4.0,0.0,5.0,5.0,562.6053289997799,5.0,1.0,phase_2,go,350.0,300.0,1.0,,,,,,,,,gray,circle
0.0,3.0,3.0,0.0,6.0,6.0,621.8905719997565,5.0,1.0,phase_2,go,350.0,300.0,1.0,,,,,,,,,magenta,I
0.0,5.0,1.0,1.0,6.0,0.0,0.0,5.0,1.0,phase_2,stop,350.0,300.0,4.0,,,,,,,,,green,square
0.0,6.0,2.0,1.0,6.0,0.0,0.0,5.0,1.0,phase_2,stop,350.0,350.0,4.0,,,,,,,,,orange,flipped triangle
0.0,8.0,4.0,1.0,5.0,5.0,315.8925179996004,6.0,1.0,phase_2,stop,350.0,400.0,3.0,,,,,,,,,white,cross
0.0,4.0,4.0,0.0,5.0,5.0,384.5491279989801,6.0,1.0,phase_2,go,300.0,400.0,1.0,,,,,,,,,gray,circle
0.0,6.0,2.0,1.0,5.0,0.0,0.0,6.0,1.0,phase_2,stop,300.0,400.0,4.0,,,,,,,,,orange,flipped triangle
0.0,7.0,3.0,1.0,5.0,5.0,458.4848579997924,6.0,1.0,phase_2,go,350.0,400.0,1.0,,,,,,,,,yellow,triangle
0.0,7.0,3.0,1.0,6.0,6.0,421.4313109987415,6.0,1.0,phase_2,go,350.0,400.0,1.0,,,,,,,,,yellow,triangle
0.0,6.0,2.0,1.0,5.0,5.0,345.0361529994552,6.0,1.0,phase_2,stop,350.0,400.0,3.0,,,,,,,,,orange,flipped triangle
0.0,2.0,2.0,0.0,5.0,5.0,496.2004299995897,6.0,1.0,phase_2,go,300.0,400.0,1.0,,,,,,,,,blue,hexagon
0.0,7.0,3.0,1.0,6.0,6.0,526.3376969996898,6.0,1.0,phase_2,go,300.0,400.0,1.0,,,,,,,,,yellow,triangle
0.0,8.0,4.0,1.0,6.0,6.0,433.5895909989631,6.0,1.0,phase_2,stop,300.0,400.0,3.0,,,,,,,,,white,cross
0.0,8.0,4.0,1.0,6.0,0.0,0.0,6.0,1.0,phase_2,stop,300.0,350.0,4.0,,,,,,,,,white,cross
0.0,2.0,2.0,0.0,5.0,5.0,373.9446499985206,6.0,1.0,phase_2,go,300.0,400.0,1.0,,,,,,,,,blue,hexagon
0.0,7.0,3.0,1.0,6.0,0.0,0.0,6.0,1.0,phase_2,stop,300.0,400.0,4.0,,,,,,,,,yellow,triangle
0.0,8.0,4.0,1.0,6.0,6.0,535.5583990003652,6.0,1.0,phase_2,go,300.0,450.0,1.0,,,,,,,,,white,cross
0.0,4.0,4.0,0.0,6.0,6.0,384.2731339991587,6.0,1.0,phase_2,go,300.0,450.0,1.0,,,,,,,,,gray,circle
0.0,5.0,1.0,1.0,6.0,6.0,347.0313589987199,6.0,1.0,phase_2,stop,300.0,450.0,3.0,,,,,,,,,green,square
0.0,7.0,3.0,1.0,6.0,6.0,487.9327109993028,6.0,1.0,phase_2,stop,300.0,400.0,3.0,,,,,,,,,yellow,triangle
0.0,5.0,1.0,1.0,5.0,0.0,0.0,6.0,1.0,phase_2,stop,300.0,350.0,4.0,,,,,,,,,green,square
0.0,1.0,1.0,0.0,6.0,6.0,393.1174030003603,6.0,1.0,phase_2,go,350.0,350.0,1.0,,,,,,,,,cyan,diamond
0.0,7.0,3.0,1.0,6.0,6.0,680.0120799998695,6.0,1.0,phase_2,go,350.0,350.0,1.0,,,,,,,,,yellow,triangle
0.0,3.0,3.0,0.0,5.0,5.0,506.1639150007977,6.0,1.0,phase_2,go,350.0,350.0,1.0,,,,,,,,,magenta,I
0.0,4.0,4.0,0.0,5.0,5.0,487.6623190011742,6.0,1.0,phase_2,go,350.0,350.0,1.0,,,,,,,,,gray,circle
0.0,8.0,4.0,1.0,6.0,0.0,0.0,6.0,1.0,phase_2,stop,350.0,350.0,4.0,,,,,,,,,white,cross
0.0,4.0,4.0,0.0,5.0,5.0,468.9932090004731,6.0,1.0,phase_2,go,350.0,400.0,1.0,,,,,,,,,gray,circle
0.0,2.0,2.0,0.0,6.0,6.0,566.7717729993456,6.0,1.0,phase_2,go,350.0,400.0,1.0,,,,,,,,,blue,hexagon
0.0,2.0,2.0,0.0,5.0,5.0,632.3093990013149,6.0,1.0,phase_2,go,350.0,400.0,1.0,,,,,,,,,blue,hexagon
0.0,3.0,3.0,0.0,6.0,6.0,381.7832059994543,6.0,1.0,phase_2,go,350.0,400.0,1.0,,,,,,,,,magenta,I
0.0,3.0,3.0,0.0,5.0,5.0,420.7098050010245,6.0,1.0,phase_2,go,350.0,400.0,1.0,,,,,,,,,magenta,I
0.0,7.0,3.0,1.0,5.0,0.0,0.0,6.0,1.0,phase_2,stop,350.0,400.0,4.0,,,,,,,,,yellow,triangle
0.0,4.0,4.0,0.0,5.0,5.0,525.2274590002344,6.0,1.0,phase_2,go,400.0,400.0,1.0,,,,,,,,,gray,circle
0.0,2.0,2.0,0.0,5.0,5.0,490.2984680011286,6.0,1.0,phase_2,go,400.0,400.0,1.0,,,,,,,,,blue,hexagon
0.0,3.0,3.0,0.0,5.0,5.0,363.9685389989608,6.0,1.0,phase_2,go,400.0,400.0,1.0,,,,,,,,,magenta,I
0.0,5.0,1.0,1.0,5.0,0.0,0.0,6.0,1.0,phase_2,stop,400.0,400.0,4.0,,,,,,,,,green,square
0.0,6.0,2.0,1.0,5.0,5.0,555.3764849992149,6.0,1.0,phase_2,stop,450.0,400.0,3.0,,,,,,,,,orange,flipped triangle
0.0,1.0,1.0,0.0,6.0,6.0,565.5051360008656,6.0,1.0,phase_2,go,400.0,400.0,1.0,,,,,,,,,cyan,diamond
0.0,4.0,4.0,0.0,6.0,6.0,594.2170569996961,6.0,1.0,phase_2,go,400.0,400.0,1.0,,,,,,,,,gray,circle
0.0,1.0,1.0,0.0,6.0,6.0,726.8701270004385,6.0,1.0,phase_2,go,400.0,400.0,1.0,,,,,,,,,cyan,diamond
0.0,7.0,3.0,1.0,6.0,6.0,430.2057969998714,7.0,1.0,phase_2,stop,400.0,400.0,3.0,,,,,,,,,yellow,triangle
0.0,4.0,4.0,0.0,5.0,5.0,495.934501001102,7.0,1.0,phase_2,go,400.0,350.0,1.0,,,,,,,,,gray,circle
0.0,8.0,4.0,1.0,6.0,6.0,421.3757149991579,7.0,1.0,phase_2,stop,400.0,350.0,3.0,,,,,,,,,white,cross
0.0,8.0,4.0,1.0,6.0,0.0,0.0,7.0,1.0,phase_2,stop,400.0,300.0,4.0,,,,,,,,,white,cross
0.0,1.0,1.0,0.0,5.0,5.0,334.5471680004266,7.0,1.0,phase_2,go,400.0,350.0,1.0,,,,,,,,,cyan,diamond
0.0,7.0,3.0,1.0,5.0,0.0,0.0,7.0,1.0,phase_2,stop,400.0,350.0,4.0,,,,,,,,,yellow,triangle
0.0,1.0,1.0,0.0,6.0,6.0,372.8382419994887,7.0,1.0,phase_2,go,450.0,350.0,1.0,,,,,,,,,cyan,diamond
0.0,2.0,2.0,0.0,5.0,5.0,564.8022899986245,7.0,1.0,phase_2,go,450.0,350.0,1.0,,,,,,,,,blue,hexagon
0.0,8.0,4.0,1.0,5.0,0.0,0.0,7.0,1.0,phase_2,stop,450.0,350.0,4.0,,,,,,,,,white,cross
0.0,4.0,4.0,0.0,6.0,6.0,508.11285300005693,7.0,1.0,phase_2,go,500.0,350.0,1.0,,,,,,,,,gray,circle
0.0,6.0,2.0,1.0,6.0,0.0,0.0,7.0,1.0,phase_2,stop,500.0,350.0,4.0,,,,,,,,,orange,flipped triangle
0.0,8.0,4.0,1.0,5.0,5.0,647.510417000376,7.0,1.0,phase_2,stop,500.0,400.0,3.0,,,,,,,,,white,cross
0.0,3.0,3.0,0.0,6.0,6.0,413.4262150000722,7.0,1.0,phase_2,go,450.0,400.0,1.0,,,,,,,,,magenta,I
0.0,3.0,3.0,0.0,5.0,6.0,611.6912889992818,7.0,1.0,phase_2,go,450.0,400.0,2.0,,,,,,,,,magenta,I
0.0,1.0,1.0,0.0,5.0,5.0,584.5486400012305,7.0,1.0,phase_2,go,450.0,400.0,1.0,,,,,,,,,cyan,diamond
0.0,7.0,3.0,1.0,5.0,0.0,0.0,7.0,1.0,phase_2,stop,450.0,400.0,4.0,,,,,,,,,yellow,triangle
0.0,7.0,3.0,1.0,5.0,5.0,956.3071569991736,7.0,1.0,phase_2,go,500.0,400.0,1.0,,,,,,,,,yellow,triangle
0.0,5.0,1.0,1.0,6.0,6.0,602.3287509997317,7.0,1.0,phase_2,stop,500.0,400.0,3.0,,,,,,,,,green,square
0.0,6.0,2.0,1.0,6.0,0.0,0.0,7.0,1.0,phase_2,stop,500.0,350.0,4.0,,,,,,,,,orange,flipped triangle
0.0,5.0,1.0,1.0,5.0,5.0,670.0060260009195,7.0,1.0,phase_2,stop,500.0,400.0,3.0,,,,,,,,,green,square
0.0,2.0,2.0,0.0,5.0,5.0,400.9829380011069,7.0,1.0,phase_2,go,450.0,400.0,1.0,,,,,,,,,blue,hexagon
0.0,8.0,4.0,1.0,6.0,6.0,747.2757529994851,7.0,1.0,phase_2,go,450.0,400.0,1.0,,,,,,,,,white,cross
0.0,6.0,2.0,1.0,6.0,0.0,0.0,7.0,1.0,phase_2,stop,450.0,400.0,4.0,,,,,,,,,orange,flipped triangle
0.0,1.0,1.0,0.0,5.0,5.0,574.7456629997032,7.0,1.0,phase_2,go,450.0,450.0,1.0,,,,,,,,,cyan,diamond
0.0,5.0,1.0,1.0,5.0,5.0,345.1846200005093,7.0,1.0,phase_2,stop,450.0,450.0,3.0,,,,,,,,,green,square
0.0,3.0,3.0,0.0,5.0,5.0,449.6455130010872,7.0,1.0,phase_2,go,400.0,450.0,1.0,,,,,,,,,magenta,I
0.0,8.0,4.0,1.0,6.0,6.0,612.348259999635,7.0,1.0,phase_2,go,400.0,450.0,1.0,,,,,,,,,white,cross
0.0,1.0,1.0,0.0,5.0,5.0,448.701205999896,7.0,1.0,phase_2,go,400.0,450.0,1.0,,,,,,,,,cyan,diamond
0.0,2.0,2.0,0.0,5.0,5.0,430.4704349997337,7.0,1.0,phase_2,go,400.0,450.0,1.0,,,,,,,,,blue,hexagon
0.0,4.0,4.0,0.0,6.0,6.0,533.3491760011384,7.0,1.0,phase_2,go,400.0,450.0,1.0,,,,,,,,,gray,circle
0.0,6.0,2.0,1.0,6.0,0.0,0.0,7.0,1.0,phase_2,stop,400.0,450.0,4.0,,,,,,,,,orange,flipped triangle
0.0,2.0,2.0,0.0,5.0,5.0,467.8186269993603,7.0,1.0,phase_2,go,400.0,500.0,1.0,,,,,,,,,blue,hexagon
0.0,4.0,4.0,0.0,5.0,5.0,477.7032820002205,7.0,1.0,phase_2,go,400.0,500.0,1.0,,,,,,,,,gray,circle
0.0,6.0,2.0,1.0,6.0,6.0,646.9637640002475,7.0,1.0,phase_2,stop,400.0,500.0,3.0,,,,,,,,,orange,flipped triangle
0.0,7.0,3.0,1.0,6.0,0.0,0.0,7.0,1.0,phase_2,stop,400.0,450.0,4.0,,,,,,,,,yellow,triangle
0.0,1.0,1.0,0.0,6.0,6.0,630.078746999061,7.0,1.0,phase_2,go,400.0,500.0,1.0,,,,,,,,,cyan,diamond
0.0,4.0,4.0,0.0,5.0,5.0,431.7760319991066,8.0,1.0,phase_2,go,400.0,500.0,1.0,,,,,,,,,gray,circle
0.0,5.0,1.0,1.0,6.0,6.0,651.0947669994493,8.0,1.0,phase_2,go,400.0,500.0,1.0,,,,,,,,,green,square
0.0,6.0,2.0,1.0,5.0,5.0,615.5165479995048,8.0,1.0,phase_2,stop,400.0,500.0,3.0,,,,,,,,,orange,flipped triangle
0.0,6.0,2.0,1.0,5.0,5.0,744.5405510006822,8.0,1.0,phase_2,go,350.0,500.0,1.0,,,,,,,,,orange,flipped triangle
0.0,6.0,2.0,1.0,5.0,5.0,543.9753299997392,8.0,1.0,phase_2,stop,350.0,500.0,3.0,,,,,,,,,orange,flipped triangle
0.0,1.0,1.0,0.0,5.0,5.0,508.73485100055404,8.0,1.0,phase_2,go,300.0,500.0,1.0,,,,,,,,,cyan,diamond
0.0,8.0,4.0,1.0,5.0,0.0,0.0,8.0,1.0,phase_2,stop,300.0,500.0,4.0,,,,,,,,,white,cross
0.0,6.0,2.0,1.0,6.0,0.0,0.0,8.0,1.0,phase_2,stop,350.0,500.0,4.0,,,,,,,,,orange,flipped triangle
0.0,5.0,1.0,1.0,6.0,6.0,468.9224630001263,8.0,1.0,phase_2,stop,350.0,550.0,3.0,,,,,,,,,green,square
0.0,4.0,4.0,0.0,5.0,5.0,477.3402720002195,8.0,1.0,phase_2,go,350.0,500.0,1.0,,,,,,,,,gray,circle
0.0,2.0,2.0,0.0,6.0,6.0,489.3469020007615,8.0,1.0,phase_2,go,350.0,500.0,1.0,,,,,,,,,blue,hexagon
0.0,6.0,2.0,1.0,6.0,0.0,0.0,8.0,1.0,phase_2,stop,350.0,500.0,4.0,,,,,,,,,orange,flipped triangle
0.0,6.0,2.0,1.0,6.0,6.0,907.6509779988556,8.0,1.0,phase_2,go,350.0,550.0,1.0,,,,,,,,,orange,flipped triangle
0.0,2.0,2.0,0.0,6.0,6.0,401.7176100005599,8.0,1.0,phase_2,go,350.0,550.0,1.0,,,,,,,,,blue,hexagon
0.0,2.0,2.0,0.0,5.0,5.0,449.6329040011915,8.0,1.0,phase_2,go,350.0,550.0,1.0,,,,,,,,,blue,hexagon
0.0,3.0,3.0,0.0,6.0,6.0,479.0272499994898,8.0,1.0,phase_2,go,350.0,550.0,1.0,,,,,,,,,magenta,I
0.0,5.0,1.0,1.0,6.0,6.0,345.0978910004778,8.0,1.0,phase_2,stop,350.0,550.0,3.0,,,,,,,,,green,square
0.0,8.0,4.0,1.0,6.0,6.0,792.2803450001084,8.0,1.0,phase_2,go,350.0,500.0,1.0,,,,,,,,,white,cross
0.0,8.0,4.0,1.0,5.0,5.0,385.7930549984303,8.0,1.0,phase_2,stop,350.0,500.0,3.0,,,,,,,,,white,cross
0.0,5.0,1.0,1.0,5.0,5.0,835.1789100015594,8.0,1.0,phase_2,go,300.0,500.0,1.0,,,,,,,,,green,square
0.0,8.0,4.0,1.0,6.0,6.0,717.7905120006471,8.0,1.0,phase_2,go,300.0,500.0,1.0,,,,,,,,,white,cross
0.0,1.0,1.0,0.0,5.0,5.0,430.8963699986634,8.0,1.0,phase_2,go,300.0,500.0,1.0,,,,,,,,,cyan,diamond
0.0,4.0,4.0,0.0,6.0,6.0,363.7862420000601,8.0,1.0,phase_2,go,300.0,500.0,1.0,,,,,,,,,gray,circle
0.0,6.0,2.0,1.0,6.0,0.0,0.0,8.0,1.0,phase_2,stop,300.0,500.0,4.0,,,,,,,,,orange,flipped triangle
0.0,1.0,1.0,0.0,5.0,5.0,507.85303199882037,8.0,1.0,phase_2,go,300.0,550.0,1.0,,,,,,,,,cyan,diamond
0.0,8.0,4.0,1.0,5.0,0.0,0.0,8.0,1.0,phase_2,stop,300.0,550.0,4.0,,,,,,,,,white,cross
0.0,2.0,2.0,0.0,6.0,6.0,459.8373429998901,8.0,1.0,phase_2,go,350.0,550.0,1.0,,,,,,,,,blue,hexagon
0.0,8.0,4.0,1.0,5.0,0.0,0.0,8.0,1.0,phase_2,stop,350.0,550.0,4.0,,,,,,,,,white,cross
0.0,4.0,4.0,0.0,6.0,6.0,544.9483720003627,8.0,1.0,phase_2,go,400.0,550.0,1.0,,,,,,,,,gray,circle
0.0,3.0,3.0,0.0,5.0,5.0,526.418127999932,8.0,1.0,phase_2,go,400.0,550.0,1.0,,,,,,,,,magenta,I
0.0,4.0,4.0,0.0,6.0,6.0,495.9085750015219,8.0,1.0,phase_2,go,400.0,550.0,1.0,,,,,,,,,gray,circle
0.0,4.0,4.0,0.0,6.0,6.0,410.5940629997349,8.0,1.0,phase_2,go,400.0,550.0,1.0,,,,,,,,,gray,circle
0.0,3.0,3.0,0.0,6.0,6.0,429.5520609994128,8.0,1.0,phase_2,go,400.0,550.0,1.0,,,,,,,,,magenta,I
0.0,3.0,3.0,0.0,6.0,6.0,381.2564449999627,8.0,1.0,phase_2,go,400.0,550.0,1.0,,,,,,,,,magenta,I
0.0,1.0,1.0,0.0,5.0,5.0,488.2086680008797,8.0,1.0,phase_2,go,400.0,550.0,1.0,,,,,,,,,cyan,diamond
0.0,5.0,1.0,1.0,5.0,0.0,0.0,8.0,1.0,phase_2,stop,400.0,550.0,4.0,,,,,,,,,green,square
0.0,1.0,1.0,0.0,7.0,6.0,1888.3305130002557,1.0,2.0,phase_3,,,,,348.0,3.0,232.0,580.0,696.0,464.0,116.0,348.0,cyan,diamond
0.0,2.0,2.0,0.0,7.0,3.0,3605.989249999766,1.0,1.0,phase_3,,,,,270.0,2.0,675.0,540.0,270.0,810.0,135.0,405.0,blue,hexagon
0.0,8.0,4.0,1.0,7.0,5.0,2184.784732999105,1.0,1.0,phase_3,,,,,768.0,4.0,960.0,384.0,1152.0,192.0,768.0,576.0,white,cross
0.0,2.0,2.0,0.0,7.0,4.0,3968.818192000981,1.0,1.0,phase_3,,,,,540.0,4.0,135.0,810.0,675.0,540.0,405.0,270.0,blue,hexagon
0.0,4.0,4.0,0.0,7.0,6.0,2948.1221020014345,1.0,1.0,phase_3,,,,,924.0,6.0,616.0,462.0,308.0,770.0,154.0,924.0,gray,circle
0.0,7.0,3.0,1.0,7.0,4.0,2642.2580819998984,1.0,1.0,phase_3,,,,,692.0,4.0,1038.0,519.0,173.0,692.0,346.0,865.0,yellow,triangle
0.0,5.0,1.0,1.0,7.0,3.0,3877.385669000432,1.0,1.0,phase_3,,,,,384.0,2.0,192.0,1152.0,384.0,768.0,960.0,576.0,green,square
0.0,4.0,4.0,0.0,7.0,4.0,2435.559583000213,1.0,1.0,phase_3,,,,,810.0,6.0,270.0,405.0,540.0,810.0,675.0,135.0,gray,circle
0.0,1.0,1.0,0.0,7.0,2.0,1857.041441999172,1.0,1.0,phase_3,,,,,675.0,5.0,405.0,675.0,810.0,540.0,270.0,135.0,cyan,diamond
0.0,1.0,1.0,0.0,7.0,2.0,2793.733952999901,1.0,1.0,phase_3,,,,,346.0,2.0,1038.0,346.0,173.0,519.0,692.0,865.0,cyan,diamond
0.0,4.0,4.0,0.0,7.0,2.0,1923.344441000154,1.0,1.0,phase_3,,,,,1152.0,6.0,960.0,1152.0,384.0,192.0,576.0,768.0,gray,circle
0.0,6.0,2.0,1.0,7.0,1.0,1516.640053001538,1.0,1.0,phase_3,,,,,384.0,2.0,384.0,192.0,1152.0,960.0,768.0,576.0,orange,flipped triangle
0.0,7.0,3.0,1.0,7.0,3.0,1935.1345769991892,1.0,1.0,phase_3,,,,,308.0,2.0,924.0,616.0,308.0,154.0,462.0,770.0,yellow,triangle
0.0,5.0,1.0,1.0,7.0,5.0,1519.9489739989076,1.0,1.0,phase_3,,,,,519.0,3.0,865.0,1038.0,173.0,692.0,519.0,346.0,green,square
0.0,5.0,1.0,1.0,7.0,3.0,2880.9602959991025,1.0,1.0,phase_3,,,,,540.0,4.0,270.0,675.0,540.0,135.0,405.0,810.0,green,square
0.0,7.0,3.0,1.0,7.0,6.0,2722.2301439996954,1.0,1.0,phase_3,,,,,692.0,4.0,1038.0,346.0,865.0,519.0,173.0,692.0,yellow,triangle
0.0,2.0,2.0,0.0,7.0,2.0,1789.6872719993553,1.0,1.0,phase_3,,,,,770.0,5.0,616.0,770.0,924.0,154.0,308.0,462.0,blue,hexagon
0.0,7.0,3.0,1.0,7.0,3.0,2475.2012369990557,1.0,1.0,phase_3,,,,,540.0,4.0,270.0,135.0,540.0,675.0,810.0,405.0,yellow,triangle
0.0,6.0,2.0,1.0,7.0,5.0,1943.8066410002648,1.0,1.0,phase_3,,,,,770.0,5.0,616.0,308.0,462.0,154.0,770.0,924.0,orange,flipped triangle
0.0,5.0,1.0,1.0,7.0,2.0,1664.495409000665,1.0,1.0,phase_3,,,,,770.0,5.0,154.0,770.0,462.0,924.0,308.0,616.0,green,square
0.0,3.0,3.0,0.0,7.0,4.0,2098.3878759998333,2.0,1.0,phase_3,,,,,308.0,2.0,616.0,770.0,462.0,308.0,154.0,924.0,magenta,I
0.0,5.0,1.0,1.0,7.0,3.0,1777.6442819995282,2.0,1.0,phase_3,,,,,576.0,3.0,384.0,1152.0,576.0,960.0,768.0,192.0,green,square
0.0,3.0,3.0,0.0,7.0,2.0,1792.773744000442,2.0,1.0,phase_3,,,,,576.0,3.0,768.0,576.0,384.0,192.0,960.0,1152.0,magenta,I
0.0,2.0,2.0,0.0,7.0,6.0,1847.3657369995635,2.0,1.0,phase_3,,,,,576.0,3.0,384.0,960.0,1152.0,192.0,768.0,576.0,blue,hexagon
0.0,4.0,4.0,0.0,7.0,2.0,1641.1193309995724,2.0,1.0,phase_3,,,,,810.0,6.0,405.0,810.0,270.0,135.0,540.0,675.0,gray,circle
0.0,6.0,2.0,1.0,7.0,3.0,1266.8925230009336,2.0,1.0,phase_3,,,,,540.0,4.0,135.0,675.0,540.0,270.0,810.0,405.0,orange,flipped triangle
0.0,8.0,4.0,1.0,7.0,5.0,2183.511109000392,2.0,1.0,phase_3,,,,,192.0,1.0,960.0,576.0,1152.0,768.0,192.0,384.0,white,cross
0.0,2.0,2.0,0.0,7.0,2.0,1536.616129000322,2.0,1.0,phase_3,,,,,580.0,5.0,232.0,580.0,696.0,348.0,464.0,116.0,blue,hexagon
0.0,5.0,1.0,1.0,7.0,5.0,1641.2287870007276,2.0,1.0,phase_3,,,,,462.0,3.0,154.0,770.0,924.0,616.0,462.0,308.0,green,square
0.0,4.0,4.0,0.0,7.0,3.0,1516.2058509995404,2.0,1.0,phase_3,,,,,924.0,6.0,462.0,308.0,924.0,770.0,616.0,154.0,gray,circle
0.0,3.0,3.0,0.0,7.0,3.0,1275.2572919998784,2.0,1.0,phase_3,,,,,464.0,4.0,348.0,580.0,464.0,116.0,232.0,696.0,magenta,I
0.0,4.0,4.0,0.0,7.0,2.0,1341.3948899997197,2.0,1.0,phase_3,,,,,1038.0,6.0,692.0,1038.0,865.0,173.0,346.0,519.0,gray,circle
0.0,1.0,1.0,0.0,7.0,2.0,1615.280336000069,2.0,1.0,phase_3,,,,,696.0,6.0,464.0,696.0,116.0,348.0,232.0,580.0,cyan,diamond
0.0,7.0,3.0,1.0,7.0,4.0,1287.1542840002803,2.0,1.0,phase_3,,,,,464.0,4.0,116.0,580.0,696.0,464.0,232.0,348.0,yellow,triangle
0.0,7.0,3.0,1.0,7.0,5.0,2156.474507999519,2.0,1.0,phase_3,,,,,1152.0,6.0,192.0,576.0,960.0,768.0,1152.0,384.0,yellow,triangle
0.0,4.0,4.0,0.0,7.0,3.0,1683.4252120006568,2.0,1.0,phase_3,,,,,1038.0,6.0,865.0,346.0,1038.0,173.0,692.0,519.0,gray,circle
0.0,1.0,1.0,0.0,7.0,4.0,1498.1302519991004,2.0,1.0,phase_3,,,,,692.0,4.0,1038.0,865.0,346.0,692.0,519.0,173.0,cyan,diamond
0.0,4.0,4.0,0.0,7.0,6.0,1843.122376998508,2.0,1.0,phase_3,,,,,696.0,6.0,580.0,116.0,232.0,348.0,464.0,696.0,gray,circle
0.0,8.0,4.0,1.0,7.0,4.0,1284.355861998847,2.0,1.0,phase_3,,,,,692.0,4.0,346.0,865.0,519.0,692.0,1038.0,173.0,white,cross
0.0,5.0,1.0,1.0,7.0,2.0,1925.073870999768,2.0,1.0,phase_3,,,,,464.0,4.0,116.0,464.0,348.0,696.0,232.0,580.0,green,square
0.0,1.0,1.0,0.0,7.0,6.0,1917.370418999781,3.0,1.0,phase_3,,,,,384.0,2.0,192.0,1152.0,768.0,576.0,960.0,384.0,cyan,diamond
0.0,1.0,1.0,0.0,7.0,3.0,1985.7133320001597,3.0,1.0,phase_3,,,,,384.0,2.0,960.0,768.0,384.0,1152.0,192.0,576.0,cyan,diamond
0.0,2.0,2.0,0.0,7.0,6.0,2031.523849000223,3.0,1.0,phase_3,,,,,768.0,4.0,1152.0,384.0,576.0,960.0,192.0,768.0,blue,hexagon
0.0,7.0,3.0,1.0,7.0,3.0,1049.110207000922,3.0,1.0,phase_3,,,,,464.0,4.0,232.0,580.0,464.0,348.0,696.0,116.0,yellow,triangle
0.0,8.0,4.0,1.0,7.0,5.0,1489.6654469994246,3.0,1.0,phase_3,,,,,865.0,5.0,346.0,692.0,1038.0,519.0,865.0,173.0,white,cross
0.0,2.0,2.0,0.0,7.0,3.0,1937.5415159993279,3.0,1.0,phase_3,,,,,348.0,3.0,232.0,696.0,348.0,580.0,116.0,464.0,blue,hexagon
0.0,3.0,3.0,0.0,7.0,5.0,1073.1936679985663,3.0,1.0,phase_3,,,,,348.0,3.0,232.0,696.0,464.0,116.0,348.0,580.0,magenta,I
0.0,2.0,2.0,0.0,7.0,5.0,1319.555214000502,3.0,1.0,phase_3,,,,,346.0,2.0,519.0,173.0,1038.0,865.0,346.0,692.0,blue,hexagon
0.0,3.0,3.0,0.0,7.0,4.0,1488.169812000706,3.0,1.0,phase_3,,,,,462.0,3.0,308.0,770.0,616.0,462.0,154.0,924.0,magenta,I
0.0,3.0,3.0,0.0,7.0,6.0,1879.1991830003096,3.0,1.0,phase_3,,,,,540.0,4.0,810.0,270.0,675.0,135.0,405.0,540.0,magenta,I
0.0,6.0,2.0,1.0,7.0,3.0,1829.4906720002475,3.0,1.0,phase_3,,,,,960.0,5.0,1152.0,192.0,960.0,384.0,768.0,576.0,orange,flipped triangle
0.0,7.0,3.0,1.0,7.0,2.0,1575.5644680011756,3.0,1.0,phase_3,,,,,384.0,2.0,768.0,384.0,192.0,576.0,1152.0,960.0,yellow,triangle
0.0,1.0,1.0,0.0,7.0,6.0,1317.768613998851,3.0,1.0,phase_3,,,,,616.0,4.0,924.0,462.0,770.0,308.0,154.0,616.0,cyan,diamond
0.0,5.0,1.0,1.0,7.0,1.0,1702.2805819997302,3.0,1.0,phase_3,,,,,865.0,5.0,865.0,346.0,173.0,519.0,1038.0,692.0,green,square
0.0,2.0,2.0,0.0,7.0,6.0,1328.8965279989498,3.0,1.0,phase_3,,,,,770.0,5.0,616.0,154.0,462.0,924.0,308.0,770.0,blue,hexagon
0.0,4.0,4.0,0.0,7.0,1.0,1009.1208489993733,3.0,1.0,phase_3,,,,,960.0,5.0,960.0,576.0,384.0,192.0,768.0,1152.0,gray,circle
0.0,6.0,2.0,1.0,7.0,4.0,1313.8263420005387,3.0,1.0,phase_3,,,,,580.0,5.0,696.0,464.0,232.0,580.0,348.0,116.0,orange,flipped triangle
0.0,6.0,2.0,1.0,7.0,5.0,1155.842387999655,3.0,1.0,phase_3,,,,,519.0,3.0,346.0,1038.0,173.0,692.0,519.0,865.0,orange,flipped triangle
0.0,8.0,4.0,1.0,7.0,4.0,1559.6298230011598,3.0,1.0,phase_3,,,,,232.0,2.0,464.0,116.0,348.0,232.0,696.0,580.0,white,cross
0.0,3.0,3.0,0.0,7.0,5.0,2050.999106000745,3.0,1.0,phase_3,,,,,346.0,2.0,692.0,519.0,173.0,1038.0,346.0,865.0,magenta,I
0.0,1.0,1.0,0.0,7.0,5.0,1587.8125920007733,4.0,1.0,phase_3,,,,,675.0,5.0,270.0,135.0,405.0,810.0,675.0,540.0,cyan,diamond
0.0,4.0,4.0,0.0,7.0,5.0,3721.520357999907,4.0,1.0,phase_3,,,,,580.0,5.0,464.0,348.0,232.0,116.0,580.0,696.0,gray,circle
0.0,8.0,4.0,1.0,7.0,5.0,2136.9010700000217,4.0,1.0,phase_3,,,,,462.0,3.0,616.0,154.0,770.0,924.0,462.0,308.0,white,cross
0.0,3.0,3.0,0.0,7.0,6.0,1838.76790100112,4.0,1.0,phase_3,,,,,270.0,2.0,540.0,405.0,810.0,675.0,135.0,270.0,magenta,I
0.0,8.0,4.0,1.0,7.0,3.0,1620.443083000282,4.0,1.0,phase_3,,,,,116.0,1.0,232.0,464.0,116.0,696.0,348.0,580.0,white,cross
0.0,7.0,3.0,1.0,7.0,2.0,948.5014389993012,4.0,1.0,phase_3,,,,,405.0,3.0,270.0,405.0,675.0,135.0,810.0,540.0,yellow,triangle
0.0,6.0,2.0,1.0,7.0,5.0,900.6263510000281,4.0,1.0,phase_3,,,,,519.0,3.0,865.0,346.0,1038.0,692.0,519.0,173.0,orange,flipped triangle
0.0,1.0,1.0,0.0,7.0,4.0,1300.063399999999,4.0,1.0,phase_3,,,,,616.0,4.0,308.0,154.0,462.0,616.0,770.0,924.0,cyan,diamond
0.0,2.0,2.0,0.0,7.0,1.0,1805.189104999954,4.0,1.0,phase_3,,,,,865.0,5.0,865.0,173.0,346.0,692.0,519.0,1038.0,blue,hexagon
0.0,6.0,2.0,1.0,7.0,4.0,2342.344292999769,4.0,1.0,phase_3,,,,,462.0,3.0,616.0,154.0,770.0,462.0,924.0,308.0,orange,flipped triangle
0.0,6.0,2.0,1.0,7.0,1.0,1564.1641539987177,4.0,1.0,phase_3,,,,,580.0,5.0,580.0,696.0,464.0,348.0,116.0,232.0,orange,flipped triangle
0.0,5.0,1.0,1.0,7.0,6.0,1965.204498001185,4.0,1.0,phase_3,,,,,348.0,3.0,232.0,696.0,464.0,580.0,116.0,348.0,green,square
0.0,5.0,1.0,1.0,7.0,6.0,1325.3471849984635,4.0,1.0,phase_3,,,,,405.0,3.0,540.0,135.0,270.0,675.0,810.0,405.0,green,square
0.0,3.0,3.0,0.0,7.0,4.0,2038.3883340000466,4.0,1.0,phase_3,,,,,192.0,1.0,1152.0,768.0,384.0,192.0,960.0,576.0,magenta,I
0.0,7.0,3.0,1.0,7.0,4.0,1509.3469570001616,4.0,1.0,phase_3,,,,,462.0,3.0,154.0,616.0,924.0,462.0,308.0,770.0,yellow,triangle
0.0,8.0,4.0,1.0,7.0,4.0,1451.8826229996191,4.0,1.0,phase_3,,,,,540.0,4.0,405.0,135.0,810.0,540.0,270.0,675.0,white,cross
0.0,8.0,4.0,1.0,7.0,3.0,2432.2669119992497,4.0,1.0,phase_3,,,,,616.0,4.0,462.0,154.0,616.0,924.0,770.0,308.0,white,cross
0.0,6.0,2.0,1.0,7.0,6.0,2084.070402999714,4.0,1.0,phase_3,,,,,675.0,5.0,405.0,540.0,270.0,135.0,810.0,675.0,orange,flipped triangle
0.0,8.0,4.0,1.0,7.0,3.0,1686.0522119986854,4.0,1.0,phase_3,,,,,540.0,4.0,135.0,405.0,540.0,810.0,675.0,270.0,white,cross
0.0,3.0,3.0,0.0,7.0,1.0,1747.9216199990333,4.0,1.0,phase_3,,,,,519.0,3.0,519.0,692.0,865.0,346.0,173.0,1038.0,magenta,I
