raw_reward_magnitude,stim_reward,stepwise_reward_magnitude,paired_with_stopping,quadrant,response,reaction_time,block,num_trial_presentations,which_part,stop_signal_trial_type,left_SSD,right_SSD,accuracy,chosen_bidding_amount,chosen_bidding_level,possible_bid_1,possible_bid_2,possible_bid_3,possible_bid_4,possible_bid_5,possible_bid_6,color_text,shape_text
1299.0,8.0,4.0,1.0,2.0,2.0,616.708620000054,1.0,2.0,part_1,,,,,,,,,,,,,orange,flipped triangle
670.0,7.0,3.0,1.0,1.0,1.0,535.126986000023,1.0,1.0,part_1,,,,,,,,,,,,,cyan,diamond
164.0,1.0,1.0,0.0,4.0,4.0,564.9224720000348,1.0,1.0,part_1,,,,,,,,,,,,,gray,triangle
342.0,6.0,2.0,1.0,1.0,1.0,496.0114170000906,1.0,1.0,part_1,,,,,,,,,,,,,magenta,square
1317.0,4.0,4.0,0.0,1.0,1.0,536.9337160000214,1.0,1.0,part_1,,,,,,,,,,,,,green,cross
661.0,7.0,3.0,1.0,4.0,4.0,488.4106770000471,1.0,1.0,part_1,,,,,,,,,,,,,cyan,diamond
333.0,2.0,2.0,0.0,3.0,3.0,432.830359999798,1.0,1.0,part_1,,,,,,,,,,,,,white,circle
319.0,2.0,2.0,0.0,2.0,2.0,452.017860000069,1.0,1.0,part_1,,,,,,,,,,,,,white,circle
1305.0,4.0,4.0,0.0,2.0,2.0,571.1574819999896,1.0,1.0,part_1,,,,,,,,,,,,,green,cross
0.0,1.0,0.0,0.0,2.0,2.0,593.4021870000379,1.0,1.0,part_1,,,,,,,,,,,,,gray,triangle
631.0,7.0,3.0,1.0,4.0,4.0,595.0592780000079,1.0,1.0,part_1,,,,,,,,,,,,,cyan,diamond
0.0,7.0,0.0,1.0,1.0,1.0,527.9553450000094,1.0,1.0,part_1,,,,,,,,,,,,,cyan,diamond
646.0,3.0,3.0,0.0,4.0,4.0,597.8459289999591,1.0,1.0,part_1,,,,,,,,,,,,,yellow,I
0.0,2.0,0.0,0.0,1.0,1.0,616.6684140000598,1.0,1.0,part_1,,,,,,,,,,,,,white,circle
327.0,6.0,2.0,1.0,4.0,4.0,542.9456619999655,1.0,1.0,part_1,,,,,,,,,,,,,magenta,square
0.0,6.0,0.0,1.0,2.0,2.0,697.2011339998971,1.0,1.0,part_1,,,,,,,,,,,,,magenta,square
1276.0,8.0,4.0,1.0,1.0,1.0,721.3642770000206,1.0,1.0,part_1,,,,,,,,,,,,,orange,flipped triangle
1293.0,8.0,4.0,1.0,3.0,3.0,628.7725859999682,1.0,1.0,part_1,,,,,,,,,,,,,orange,flipped triangle
1281.0,4.0,4.0,0.0,3.0,3.0,523.3976560000428,1.0,1.0,part_1,,,,,,,,,,,,,green,cross
313.0,6.0,2.0,1.0,2.0,2.0,870.9807249999812,1.0,1.0,part_1,,,,,,,,,,,,,magenta,square
639.0,7.0,3.0,1.0,4.0,4.0,493.12169000018,1.0,1.0,part_1,,,,,,,,,,,,,cyan,diamond
660.0,3.0,3.0,0.0,2.0,2.0,813.7746449999668,1.0,1.0,part_1,,,,,,,,,,,,,yellow,I
336.0,2.0,2.0,0.0,1.0,1.0,620.3697569999349,1.0,1.0,part_1,,,,,,,,,,,,,white,circle
0.0,1.0,0.0,0.0,4.0,4.0,566.7243400000643,1.0,1.0,part_1,,,,,,,,,,,,,gray,triangle
159.0,1.0,1.0,0.0,3.0,3.0,534.5408460000272,1.0,1.0,part_1,,,,,,,,,,,,,gray,triangle
639.0,7.0,3.0,1.0,1.0,1.0,542.7798599998823,1.0,1.0,part_1,,,,,,,,,,,,,cyan,diamond
670.0,3.0,3.0,0.0,1.0,1.0,534.3256339999698,1.0,1.0,part_1,,,,,,,,,,,,,yellow,I
146.0,5.0,1.0,1.0,2.0,2.0,576.8867269998736,1.0,1.0,part_1,,,,,,,,,,,,,blue,hexagon
649.0,3.0,3.0,0.0,4.0,4.0,434.1311670000323,1.0,1.0,part_1,,,,,,,,,,,,,yellow,I
0.0,6.0,0.0,1.0,3.0,3.0,370.275311999876,1.0,1.0,part_1,,,,,,,,,,,,,magenta,square
1289.0,4.0,4.0,0.0,4.0,4.0,514.6655279997958,1.0,1.0,part_1,,,,,,,,,,,,,green,cross
652.0,3.0,3.0,0.0,1.0,1.0,461.5240660000381,1.0,1.0,part_1,,,,,,,,,,,,,yellow,I
1298.0,8.0,4.0,1.0,2.0,2.0,602.0604840000487,1.0,1.0,part_1,,,,,,,,,,,,,orange,flipped triangle
651.0,7.0,3.0,1.0,4.0,4.0,403.4350890001406,1.0,1.0,part_1,,,,,,,,,,,,,cyan,diamond
0.0,3.0,0.0,0.0,2.0,2.0,507.0171110000956,1.0,1.0,part_1,,,,,,,,,,,,,yellow,I
153.0,1.0,1.0,0.0,2.0,2.0,636.3555429998087,1.0,2.0,part_1,,,,,,,,,,,,,gray,triangle
174.0,1.0,1.0,0.0,1.0,1.0,662.4866730001031,1.0,1.0,part_1,,,,,,,,,,,,,gray,triangle
304.0,6.0,2.0,1.0,3.0,3.0,616.1851679999018,1.0,1.0,part_1,,,,,,,,,,,,,magenta,square
327.0,6.0,2.0,1.0,1.0,1.0,571.5491409998776,1.0,2.0,part_1,,,,,,,,,,,,,magenta,square
180.0,5.0,1.0,1.0,3.0,3.0,604.2734440000004,1.0,1.0,part_1,,,,,,,,,,,,,blue,hexagon
1276.0,4.0,4.0,0.0,2.0,2.0,852.1517610001865,1.0,1.0,part_1,,,,,,,,,,,,,green,cross
0.0,7.0,0.0,1.0,4.0,4.0,497.9032720000305,1.0,1.0,part_1,,,,,,,,,,,,,cyan,diamond
348.0,6.0,2.0,1.0,3.0,3.0,496.441926999978,1.0,1.0,part_1,,,,,,,,,,,,,magenta,square
152.0,1.0,1.0,0.0,4.0,4.0,575.2545249999912,1.0,1.0,part_1,,,,,,,,,,,,,gray,triangle
309.0,6.0,2.0,1.0,2.0,2.0,629.8378760000105,1.0,2.0,part_1,,,,,,,,,,,,,magenta,square
0.0,5.0,0.0,1.0,3.0,3.0,533.6721769999713,1.0,1.0,part_1,,,,,,,,,,,,,blue,hexagon
0.0,7.0,0.0,1.0,2.0,2.0,541.8820079999023,1.0,1.0,part_1,,,,,,,,,,,,,cyan,diamond
0.0,4.0,0.0,0.0,2.0,2.0,552.4800599998798,1.0,1.0,part_1,,,,,,,,,,,,,green,cross
137.0,5.0,1.0,1.0,4.0,4.0,430.791359000068,1.0,1.0,part_1,,,,,,,,,,,,,blue,hexagon
302.0,2.0,2.0,0.0,3.0,3.0,495.8652650000203,1.0,1.0,part_1,,,,,,,,,,,,,white,circle
138.0,5.0,1.0,1.0,1.0,1.0,421.2007110002105,1.0,1.0,part_1,,,,,,,,,,,,,blue,hexagon
185.0,5.0,1.0,1.0,2.0,2.0,695.1072920001025,1.0,1.0,part_1,,,,,,,,,,,,,blue,hexagon
1300.0,4.0,4.0,0.0,4.0,4.0,421.4480009998169,1.0,1.0,part_1,,,,,,,,,,,,,green,cross
1277.0,8.0,4.0,1.0,2.0,2.0,598.8377310000033,1.0,1.0,part_1,,,,,,,,,,,,,orange,flipped triangle
342.0,2.0,2.0,0.0,4.0,4.0,415.4737569999724,1.0,1.0,part_1,,,,,,,,,,,,,white,circle
328.0,6.0,2.0,1.0,2.0,2.0,598.2210370000303,1.0,1.0,part_1,,,,,,,,,,,,,magenta,square
0.0,4.0,0.0,0.0,2.0,2.0,515.25628100012,1.0,1.0,part_1,,,,,,,,,,,,,green,cross
332.0,6.0,2.0,1.0,4.0,4.0,440.7511800000065,1.0,1.0,part_1,,,,,,,,,,,,,magenta,square
319.0,6.0,2.0,1.0,3.0,3.0,551.7338469999231,1.0,1.0,part_1,,,,,,,,,,,,,magenta,square
315.0,2.0,2.0,0.0,4.0,4.0,525.3690140000344,1.0,1.0,part_1,,,,,,,,,,,,,white,circle
0.0,7.0,0.0,1.0,1.0,1.0,589.150975000166,1.0,1.0,part_1,,,,,,,,,,,,,cyan,diamond
0.0,1.0,0.0,0.0,2.0,2.0,606.8256959999871,1.0,1.0,part_1,,,,,,,,,,,,,gray,triangle
1303.0,4.0,4.0,0.0,2.0,2.0,626.6327389998878,1.0,1.0,part_1,,,,,,,,,,,,,green,cross
640.0,3.0,3.0,0.0,4.0,4.0,506.9476080000186,1.0,1.0,part_1,,,,,,,,,,,,,yellow,I
0.0,8.0,0.0,1.0,4.0,4.0,571.7782649999208,1.0,1.0,part_1,,,,,,,,,,,,,orange,flipped triangle
655.0,7.0,3.0,1.0,4.0,4.0,401.1864320000313,1.0,1.0,part_1,,,,,,,,,,,,,cyan,diamond
629.0,7.0,3.0,1.0,3.0,3.0,451.6762880000442,1.0,1.0,part_1,,,,,,,,,,,,,cyan,diamond
139.0,5.0,1.0,1.0,1.0,1.0,497.8043700000398,1.0,1.0,part_1,,,,,,,,,,,,,blue,hexagon
1293.0,4.0,4.0,0.0,4.0,4.0,431.096104000062,1.0,1.0,part_1,,,,,,,,,,,,,green,cross
316.0,6.0,2.0,1.0,2.0,2.0,748.7464829998771,1.0,1.0,part_1,,,,,,,,,,,,,magenta,square
1285.0,4.0,4.0,0.0,3.0,3.0,452.0953490000465,1.0,1.0,part_1,,,,,,,,,,,,,green,cross
659.0,3.0,3.0,0.0,4.0,4.0,383.8200209997922,1.0,1.0,part_1,,,,,,,,,,,,,yellow,I
142.0,5.0,1.0,1.0,2.0,2.0,572.0102699999643,1.0,2.0,part_1,,,,,,,,,,,,,blue,hexagon
0.0,4.0,0.0,0.0,3.0,3.0,507.2831040001802,1.0,1.0,part_1,,,,,,,,,,,,,green,cross
0.0,5.0,0.0,1.0,1.0,1.0,441.4980619999369,1.0,1.0,part_1,,,,,,,,,,,,,blue,hexagon
1298.0,4.0,4.0,0.0,1.0,1.0,554.094576000125,1.0,1.0,part_1,,,,,,,,,,,,,green,cross
0.0,3.0,0.0,0.0,2.0,2.0,656.8921120001505,1.0,1.0,part_1,,,,,,,,,,,,,yellow,I
176.0,1.0,1.0,0.0,4.0,4.0,572.1697739998035,1.0,1.0,part_1,,,,,,,,,,,,,gray,triangle
167.0,1.0,1.0,0.0,1.0,1.0,591.7564989999846,1.0,1.0,part_1,,,,,,,,,,,,,gray,triangle
649.0,3.0,3.0,0.0,3.0,3.0,487.4358320000738,1.0,1.0,part_1,,,,,,,,,,,,,yellow,I
1321.0,4.0,4.0,0.0,2.0,2.0,954.393644999982,1.0,1.0,part_1,,,,,,,,,,,,,green,cross
1277.0,4.0,4.0,0.0,4.0,4.0,600.2622460000566,1.0,1.0,part_1,,,,,,,,,,,,,green,cross
302.0,6.0,2.0,1.0,1.0,1.0,515.4558930000803,1.0,1.0,part_1,,,,,,,,,,,,,magenta,square
180.0,1.0,1.0,0.0,3.0,3.0,609.8529979999512,1.0,1.0,part_1,,,,,,,,,,,,,gray,triangle
660.0,7.0,3.0,1.0,1.0,1.0,711.6727500001616,1.0,1.0,part_1,,,,,,,,,,,,,cyan,diamond
336.0,6.0,2.0,1.0,2.0,2.0,543.4068829999887,1.0,2.0,part_1,,,,,,,,,,,,,magenta,square
0.0,3.0,0.0,0.0,2.0,2.0,515.8720660001563,1.0,1.0,part_1,,,,,,,,,,,,,yellow,I
650.0,3.0,3.0,0.0,2.0,2.0,524.7312260000854,1.0,1.0,part_1,,,,,,,,,,,,,yellow,I
0.0,6.0,0.0,1.0,2.0,2.0,468.5168930000145,1.0,1.0,part_1,,,,,,,,,,,,,magenta,square
310.0,2.0,2.0,0.0,3.0,3.0,674.1544670001076,1.0,1.0,part_1,,,,,,,,,,,,,white,circle
0.0,6.0,0.0,1.0,4.0,4.0,597.9659130000528,1.0,1.0,part_1,,,,,,,,,,,,,magenta,square
324.0,6.0,2.0,1.0,3.0,3.0,580.3937249997944,1.0,1.0,part_1,,,,,,,,,,,,,magenta,square
1300.0,8.0,4.0,1.0,3.0,3.0,496.1484000000382,1.0,1.0,part_1,,,,,,,,,,,,,orange,flipped triangle
669.0,3.0,3.0,0.0,2.0,2.0,478.1638079998629,1.0,2.0,part_1,,,,,,,,,,,,,yellow,I
0.0,3.0,0.0,0.0,2.0,2.0,514.8383060000015,1.0,1.0,part_1,,,,,,,,,,,,,yellow,I
324.0,6.0,2.0,1.0,1.0,1.0,626.9849700001942,1.0,1.0,part_1,,,,,,,,,,,,,magenta,square
0.0,4.0,0.0,0.0,4.0,4.0,506.96643399987806,1.0,1.0,part_1,,,,,,,,,,,,,green,cross
649.0,7.0,3.0,1.0,2.0,2.0,787.0553299999301,1.0,1.0,part_1,,,,,,,,,,,,,cyan,diamond
305.0,2.0,2.0,0.0,1.0,1.0,525.5894299998545,1.0,1.0,part_1,,,,,,,,,,,,,white,circle
1286.0,4.0,4.0,0.0,1.0,1.0,515.4701980000027,1.0,1.0,part_1,,,,,,,,,,,,,green,cross
159.0,5.0,1.0,1.0,4.0,4.0,648.0355599996983,2.0,1.0,part_1,,,,,,,,,,,,,blue,hexagon
1325.0,8.0,4.0,1.0,1.0,1.0,587.7454759997818,2.0,1.0,part_1,,,,,,,,,,,,,orange,flipped triangle
319.0,2.0,2.0,0.0,4.0,4.0,538.0345529997612,2.0,1.0,part_1,,,,,,,,,,,,,white,circle
348.0,2.0,2.0,0.0,4.0,4.0,467.3078719997647,2.0,1.0,part_1,,,,,,,,,,,,,white,circle
0.0,7.0,0.0,1.0,1.0,1.0,468.3953280000423,2.0,1.0,part_1,,,,,,,,,,,,,cyan,diamond
0.0,8.0,0.0,1.0,3.0,3.0,496.3122089998251,2.0,1.0,part_1,,,,,,,,,,,,,orange,flipped triangle
645.0,3.0,3.0,0.0,4.0,4.0,505.4330650000338,2.0,2.0,part_1,,,,,,,,,,,,,yellow,I
661.0,7.0,3.0,1.0,4.0,4.0,534.494560999974,2.0,1.0,part_1,,,,,,,,,,,,,cyan,diamond
1313.0,4.0,4.0,0.0,4.0,4.0,468.0129749999651,2.0,1.0,part_1,,,,,,,,,,,,,green,cross
1295.0,4.0,4.0,0.0,2.0,2.0,898.7475709996033,2.0,1.0,part_1,,,,,,,,,,,,,green,cross
1301.0,8.0,4.0,1.0,3.0,3.0,505.06777700002203,2.0,1.0,part_1,,,,,,,,,,,,,orange,flipped triangle
0.0,4.0,0.0,0.0,4.0,4.0,394.0600229998381,2.0,1.0,part_1,,,,,,,,,,,,,green,cross
180.0,5.0,1.0,1.0,3.0,3.0,553.0321829996865,2.0,1.0,part_1,,,,,,,,,,,,,blue,hexagon
177.0,1.0,1.0,0.0,4.0,4.0,533.8209400001688,2.0,1.0,part_1,,,,,,,,,,,,,gray,triangle
645.0,7.0,3.0,1.0,2.0,2.0,824.5481469998595,2.0,1.0,part_1,,,,,,,,,,,,,cyan,diamond
649.0,7.0,3.0,1.0,3.0,3.0,506.23616200027755,2.0,1.0,part_1,,,,,,,,,,,,,cyan,diamond
350.0,6.0,2.0,1.0,4.0,4.0,534.5585939999182,2.0,1.0,part_1,,,,,,,,,,,,,magenta,square
1325.0,8.0,4.0,1.0,4.0,4.0,599.800734999917,2.0,1.0,part_1,,,,,,,,,,,,,orange,flipped triangle
337.0,6.0,2.0,1.0,3.0,3.0,505.80179400003544,2.0,1.0,part_1,,,,,,,,,,,,,magenta,square
1316.0,8.0,4.0,1.0,1.0,1.0,681.5561149996938,2.0,1.0,part_1,,,,,,,,,,,,,orange,flipped triangle
337.0,6.0,2.0,1.0,3.0,3.0,574.1332799998418,2.0,1.0,part_1,,,,,,,,,,,,,magenta,square
0.0,2.0,0.0,0.0,4.0,4.0,638.5495690001335,2.0,1.0,part_1,,,,,,,,,,,,,white,circle
181.0,1.0,1.0,0.0,2.0,2.0,748.8650039999811,2.0,1.0,part_1,,,,,,,,,,,,,gray,triangle
0.0,4.0,0.0,0.0,2.0,2.0,533.5313159998805,2.0,1.0,part_1,,,,,,,,,,,,,green,cross
328.0,2.0,2.0,0.0,1.0,1.0,572.4598110000443,2.0,1.0,part_1,,,,,,,,,,,,,white,circle
0.0,5.0,0.0,1.0,1.0,1.0,563.3843900000102,2.0,1.0,part_1,,,,,,,,,,,,,blue,hexagon
165.0,5.0,1.0,1.0,3.0,3.0,393.8724849999744,2.0,1.0,part_1,,,,,,,,,,,,,blue,hexagon
145.0,1.0,1.0,0.0,2.0,2.0,646.9842309998057,2.0,1.0,part_1,,,,,,,,,,,,,gray,triangle
0.0,1.0,0.0,0.0,1.0,1.0,618.1204810000054,2.0,2.0,part_1,,,,,,,,,,,,,gray,triangle
1281.0,8.0,4.0,1.0,1.0,1.0,599.9858049999602,2.0,1.0,part_1,,,,,,,,,,,,,orange,flipped triangle
162.0,1.0,1.0,0.0,2.0,2.0,663.6009629996806,2.0,1.0,part_1,,,,,,,,,,,,,gray,triangle
169.0,5.0,1.0,1.0,1.0,1.0,617.3879230000239,2.0,2.0,part_1,,,,,,,,,,,,,blue,hexagon
1282.0,8.0,4.0,1.0,3.0,3.0,775.4029560001072,2.0,1.0,part_1,,,,,,,,,,,,,orange,flipped triangle
138.0,1.0,1.0,0.0,4.0,4.0,582.6348250002411,2.0,1.0,part_1,,,,,,,,,,,,,gray,triangle
347.0,2.0,2.0,0.0,2.0,2.0,525.2278509997268,2.0,1.0,part_1,,,,,,,,,,,,,white,circle
1313.0,8.0,4.0,1.0,3.0,3.0,478.1536730001789,2.0,1.0,part_1,,,,,,,,,,,,,orange,flipped triangle
155.0,1.0,1.0,0.0,3.0,3.0,469.423395999911,2.0,1.0,part_1,,,,,,,,,,,,,gray,triangle
324.0,2.0,2.0,0.0,2.0,2.0,758.720460999939,2.0,1.0,part_1,,,,,,,,,,,,,white,circle
0.0,8.0,0.0,1.0,1.0,1.0,436.9240800001535,2.0,1.0,part_1,,,,,,,,,,,,,orange,flipped triangle
307.0,2.0,2.0,0.0,4.0,4.0,375.3565340002751,2.0,1.0,part_1,,,,,,,,,,,,,white,circle
1301.0,4.0,4.0,0.0,3.0,3.0,458.7994759999674,2.0,1.0,part_1,,,,,,,,,,,,,green,cross
0.0,3.0,0.0,0.0,4.0,4.0,525.3939630001696,2.0,1.0,part_1,,,,,,,,,,,,,yellow,I
0.0,5.0,0.0,1.0,4.0,4.0,505.2054279999538,2.0,1.0,part_1,,,,,,,,,,,,,blue,hexagon
1321.0,4.0,4.0,0.0,2.0,2.0,570.1337979999153,2.0,2.0,part_1,,,,,,,,,,,,,green,cross
1324.0,4.0,4.0,0.0,4.0,4.0,768.788991999827,2.0,1.0,part_1,,,,,,,,,,,,,green,cross
179.0,5.0,1.0,1.0,3.0,3.0,637.5716540001122,2.0,1.0,part_1,,,,,,,,,,,,,blue,hexagon
0.0,6.0,0.0,1.0,1.0,1.0,589.6512999997867,2.0,1.0,part_1,,,,,,,,,,,,,magenta,square
1304.0,8.0,4.0,1.0,2.0,2.0,692.8015860003143,2.0,1.0,part_1,,,,,,,,,,,,,orange,flipped triangle
328.0,2.0,2.0,0.0,1.0,1.0,888.733697999669,2.0,1.0,part_1,,,,,,,,,,,,,white,circle
182.0,1.0,1.0,0.0,4.0,4.0,554.7432970001864,2.0,1.0,part_1,,,,,,,,,,,,,gray,triangle
0.0,2.0,0.0,0.0,4.0,4.0,497.4151209999036,2.0,1.0,part_1,,,,,,,,,,,,,white,circle
332.0,2.0,2.0,0.0,4.0,4.0,431.7214160000731,2.0,1.0,part_1,,,,,,,,,,,,,white,circle
1277.0,4.0,4.0,0.0,3.0,3.0,480.3199019997919,2.0,1.0,part_1,,,,,,,,,,,,,green,cross
336.0,6.0,2.0,1.0,2.0,2.0,552.2980750001807,2.0,1.0,part_1,,,,,,,,,,,,,magenta,square
183.0,5.0,1.0,1.0,3.0,3.0,563.1770189997951,2.0,1.0,part_1,,,,,,,,,,,,,blue,hexagon
0.0,2.0,0.0,0.0,3.0,3.0,684.0359689999786,2.0,1.0,part_1,,,,,,,,,,,,,white,circle
142.0,1.0,1.0,0.0,3.0,3.0,544.513027999983,2.0,1.0,part_1,,,,,,,,,,,,,gray,triangle
182.0,5.0,1.0,1.0,1.0,1.0,534.0197830000761,2.0,1.0,part_1,,,,,,,,,,,,,blue,hexagon
0.0,8.0,0.0,1.0,4.0,4.0,625.9128820001933,2.0,1.0,part_1,,,,,,,,,,,,,orange,flipped triangle
1303.0,8.0,4.0,1.0,4.0,4.0,507.0468509998136,2.0,1.0,part_1,,,,,,,,,,,,,orange,flipped triangle
629.0,3.0,3.0,0.0,4.0,4.0,497.8146769999512,2.0,1.0,part_1,,,,,,,,,,,,,yellow,I
1294.0,4.0,4.0,0.0,3.0,3.0,394.5424670000648,2.0,1.0,part_1,,,,,,,,,,,,,green,cross
155.0,5.0,1.0,1.0,1.0,1.0,654.62345800006,2.0,2.0,part_1,,,,,,,,,,,,,blue,hexagon
1282.0,4.0,4.0,0.0,4.0,4.0,505.60126800019134,2.0,1.0,part_1,,,,,,,,,,,,,green,cross
327.0,2.0,2.0,0.0,3.0,3.0,328.5732610002014,2.0,1.0,part_1,,,,,,,,,,,,,white,circle
348.0,6.0,2.0,1.0,3.0,3.0,421.1573039997347,2.0,1.0,part_1,,,,,,,,,,,,,magenta,square
0.0,6.0,0.0,1.0,4.0,4.0,394.0213649998441,2.0,1.0,part_1,,,,,,,,,,,,,magenta,square
640.0,7.0,3.0,1.0,4.0,4.0,431.3004350001392,2.0,1.0,part_1,,,,,,,,,,,,,cyan,diamond
0.0,7.0,0.0,1.0,2.0,2.0,675.1733880000756,2.0,1.0,part_1,,,,,,,,,,,,,cyan,diamond
0.0,1.0,0.0,0.0,2.0,2.0,478.4735719999844,2.0,1.0,part_1,,,,,,,,,,,,,gray,triangle
0.0,2.0,0.0,0.0,3.0,3.0,497.5153529999261,2.0,1.0,part_1,,,,,,,,,,,,,white,circle
632.0,7.0,3.0,1.0,2.0,2.0,657.1910890002073,2.0,1.0,part_1,,,,,,,,,,,,,cyan,diamond
146.0,1.0,1.0,0.0,1.0,1.0,534.4014539996351,2.0,1.0,part_1,,,,,,,,,,,,,gray,triangle
646.0,7.0,3.0,1.0,1.0,1.0,506.32995199975994,2.0,1.0,part_1,,,,,,,,,,,,,cyan,diamond
659.0,7.0,3.0,1.0,2.0,2.0,563.3455610000055,2.0,2.0,part_1,,,,,,,,,,,,,cyan,diamond
0.0,1.0,0.0,0.0,2.0,2.0,477.0120869998209,2.0,1.0,part_1,,,,,,,,,,,,,gray,triangle
0.0,5.0,0.0,1.0,1.0,1.0,561.4237780000622,2.0,1.0,part_1,,,,,,,,,,,,,blue,hexagon
330.0,2.0,2.0,0.0,2.0,2.0,580.1976359998662,2.0,1.0,part_1,,,,,,,,,,,,,white,circle
1321.0,8.0,4.0,1.0,3.0,3.0,599.1732150000644,2.0,1.0,part_1,,,,,,,,,,,,,orange,flipped triangle
162.0,5.0,1.0,1.0,2.0,2.0,628.4751700000015,2.0,1.0,part_1,,,,,,,,,,,,,blue,hexagon
177.0,5.0,1.0,1.0,3.0,3.0,441.0683339997376,2.0,1.0,part_1,,,,,,,,,,,,,blue,hexagon
181.0,5.0,1.0,1.0,4.0,4.0,495.9563669999625,2.0,1.0,part_1,,,,,,,,,,,,,blue,hexagon
330.0,6.0,2.0,1.0,4.0,4.0,431.262863000029,2.0,1.0,part_1,,,,,,,,,,,,,magenta,square
1314.0,8.0,4.0,1.0,4.0,4.0,478.04330200006,2.0,1.0,part_1,,,,,,,,,,,,,orange,flipped triangle
640.0,3.0,3.0,0.0,3.0,3.0,514.8192950000521,2.0,1.0,part_1,,,,,,,,,,,,,yellow,I
1283.0,4.0,4.0,0.0,2.0,2.0,645.0006220002251,2.0,1.0,part_1,,,,,,,,,,,,,green,cross
162.0,5.0,1.0,1.0,1.0,1.0,691.1755510000148,2.0,1.0,part_1,,,,,,,,,,,,,blue,hexagon
666.0,3.0,3.0,0.0,2.0,2.0,543.5533540003235,2.0,1.0,part_1,,,,,,,,,,,,,yellow,I
324.0,2.0,2.0,0.0,3.0,3.0,457.9166990001795,2.0,1.0,part_1,,,,,,,,,,,,,white,circle
177.0,1.0,1.0,0.0,4.0,4.0,720.5062379998708,2.0,1.0,part_1,,,,,,,,,,,,,gray,triangle
646.0,7.0,3.0,1.0,2.0,2.0,517.3779749998175,2.0,1.0,part_1,,,,,,,,,,,,,cyan,diamond
169.0,1.0,1.0,0.0,1.0,1.0,608.5032480000336,2.0,1.0,part_1,,,,,,,,,,,,,gray,triangle
1283.0,4.0,4.0,0.0,3.0,3.0,383.7393929998143,2.0,1.0,part_1,,,,,,,,,,,,,green,cross
648.0,7.0,3.0,1.0,1.0,1.0,682.6306250000016,2.0,1.0,part_1,,,,,,,,,,,,,cyan,diamond
1277.0,4.0,4.0,0.0,1.0,1.0,591.7708270003459,2.0,1.0,part_1,,,,,,,,,,,,,green,cross
663.0,3.0,3.0,0.0,1.0,1.0,636.8147650000537,2.0,1.0,part_1,,,,,,,,,,,,,yellow,I
0.0,7.0,0.0,1.0,4.0,4.0,562.5611650002611,2.0,1.0,part_1,,,,,,,,,,,,,cyan,diamond
631.0,3.0,3.0,0.0,3.0,3.0,448.0364159999226,2.0,1.0,part_1,,,,,,,,,,,,,yellow,I
1289.0,8.0,4.0,1.0,4.0,4.0,515.1281710000148,2.0,1.0,part_1,,,,,,,,,,,,,orange,flipped triangle
627.0,7.0,3.0,1.0,3.0,3.0,599.0022219998536,2.0,1.0,part_1,,,,,,,,,,,,,cyan,diamond
0.0,7.0,0.0,1.0,1.0,1.0,581.2020399998801,3.0,1.0,part_1,,,,,,,,,,,,,cyan,diamond
649.0,3.0,3.0,0.0,3.0,3.0,504.6773129997746,3.0,1.0,part_1,,,,,,,,,,,,,yellow,I
315.0,2.0,2.0,0.0,2.0,2.0,640.360716000032,3.0,1.0,part_1,,,,,,,,,,,,,white,circle
665.0,7.0,3.0,1.0,3.0,3.0,421.9710620000114,3.0,1.0,part_1,,,,,,,,,,,,,cyan,diamond
334.0,6.0,2.0,1.0,1.0,1.0,544.9781199999961,3.0,1.0,part_1,,,,,,,,,,,,,magenta,square
333.0,6.0,2.0,1.0,4.0,4.0,514.2340309998872,3.0,1.0,part_1,,,,,,,,,,,,,magenta,square
321.0,6.0,2.0,1.0,4.0,4.0,450.979056000051,3.0,1.0,part_1,,,,,,,,,,,,,magenta,square
0.0,5.0,0.0,1.0,1.0,1.0,578.84930299997,3.0,1.0,part_1,,,,,,,,,,,,,blue,hexagon
0.0,1.0,0.0,0.0,1.0,1.0,450.2360649998991,3.0,1.0,part_1,,,,,,,,,,,,,gray,triangle
1277.0,8.0,4.0,1.0,1.0,1.0,711.9440000001305,3.0,1.0,part_1,,,,,,,,,,,,,orange,flipped triangle
0.0,6.0,0.0,1.0,2.0,2.0,561.9562080000833,3.0,1.0,part_1,,,,,,,,,,,,,magenta,square
159.0,1.0,1.0,0.0,3.0,3.0,449.6803590000127,3.0,1.0,part_1,,,,,,,,,,,,,gray,triangle
1305.0,8.0,4.0,1.0,1.0,1.0,449.8366669999996,3.0,1.0,part_1,,,,,,,,,,,,,orange,flipped triangle
137.0,1.0,1.0,0.0,1.0,1.0,534.0600039999117,3.0,1.0,part_1,,,,,,,,,,,,,gray,triangle
172.0,5.0,1.0,1.0,4.0,4.0,506.21385399972496,3.0,1.0,part_1,,,,,,,,,,,,,blue,hexagon
185.0,1.0,1.0,0.0,3.0,3.0,401.9679909997649,3.0,1.0,part_1,,,,,,,,,,,,,gray,triangle
152.0,5.0,1.0,1.0,1.0,1.0,411.4584620001551,3.0,1.0,part_1,,,,,,,,,,,,,blue,hexagon
665.0,3.0,3.0,0.0,3.0,3.0,440.0170730000354,3.0,1.0,part_1,,,,,,,,,,,,,yellow,I
1292.0,4.0,4.0,0.0,3.0,3.0,497.0971210000243,3.0,1.0,part_1,,,,,,,,,,,,,green,cross
1289.0,8.0,4.0,1.0,4.0,4.0,432.3632719997476,3.0,1.0,part_1,,,,,,,,,,,,,orange,flipped triangle
0.0,5.0,0.0,1.0,4.0,4.0,477.3694419995991,3.0,1.0,part_1,,,,,,,,,,,,,blue,hexagon
155.0,5.0,1.0,1.0,4.0,4.0,533.9464710000357,3.0,1.0,part_1,,,,,,,,,,,,,blue,hexagon
1306.0,8.0,4.0,1.0,3.0,3.0,432.3466170003485,3.0,1.0,part_1,,,,,,,,,,,,,orange,flipped triangle
640.0,3.0,3.0,0.0,2.0,2.0,591.9029229999069,3.0,1.0,part_1,,,,,,,,,,,,,yellow,I
663.0,7.0,3.0,1.0,2.0,2.0,740.5509309996887,3.0,1.0,part_1,,,,,,,,,,,,,cyan,diamond
1276.0,4.0,4.0,0.0,4.0,4.0,430.8812390004277,3.0,1.0,part_1,,,,,,,,,,,,,green,cross
315.0,6.0,2.0,1.0,2.0,2.0,636.7135629998302,3.0,1.0,part_1,,,,,,,,,,,,,magenta,square
637.0,7.0,3.0,1.0,3.0,3.0,389.7101170000496,3.0,1.0,part_1,,,,,,,,,,,,,cyan,diamond
159.0,1.0,1.0,0.0,2.0,2.0,580.0866910003606,3.0,2.0,part_1,,,,,,,,,,,,,gray,triangle
343.0,2.0,2.0,0.0,2.0,2.0,506.1970229999133,3.0,1.0,part_1,,,,,,,,,,,,,white,circle
0.0,5.0,0.0,1.0,1.0,1.0,570.0743639999928,3.0,2.0,part_1,,,,,,,,,,,,,blue,hexagon
147.0,1.0,1.0,0.0,2.0,2.0,552.6925439999104,3.0,1.0,part_1,,,,,,,,,,,,,gray,triangle
1325.0,4.0,4.0,0.0,1.0,1.0,439.691706999838,3.0,1.0,part_1,,,,,,,,,,,,,green,cross
138.0,5.0,1.0,1.0,4.0,4.0,506.8631959998129,3.0,1.0,part_1,,,,,,,,,,,,,blue,hexagon
343.0,6.0,2.0,1.0,2.0,2.0,608.1836869998369,3.0,1.0,part_1,,,,,,,,,,,,,magenta,square
336.0,2.0,2.0,0.0,3.0,3.0,543.1932929996037,3.0,1.0,part_1,,,,,,,,,,,,,white,circle
1325.0,4.0,4.0,0.0,4.0,4.0,524.2248090003159,3.0,2.0,part_1,,,,,,,,,,,,,green,cross
319.0,6.0,2.0,1.0,4.0,4.0,457.9017129999556,3.0,1.0,part_1,,,,,,,,,,,,,magenta,square
670.0,3.0,3.0,0.0,1.0,1.0,773.9514320001035,3.0,1.0,part_1,,,,,,,,,,,,,yellow,I
183.0,1.0,1.0,0.0,1.0,1.0,625.4349529999672,3.0,1.0,part_1,,,,,,,,,,,,,gray,triangle
305.0,6.0,2.0,1.0,4.0,4.0,467.4930719997974,3.0,1.0,part_1,,,,,,,,,,,,,magenta,square
648.0,3.0,3.0,0.0,1.0,1.0,541.4308960002927,3.0,1.0,part_1,,,,,,,,,,,,,yellow,I
0.0,1.0,0.0,0.0,2.0,2.0,512.8986929998973,3.0,1.0,part_1,,,,,,,,,,,,,gray,triangle
1313.0,4.0,4.0,0.0,1.0,1.0,543.1150190001972,3.0,1.0,part_1,,,,,,,,,,,,,green,cross
1286.0,8.0,4.0,1.0,2.0,2.0,551.1183120001988,3.0,1.0,part_1,,,,,,,,,,,,,orange,flipped triangle
658.0,7.0,3.0,1.0,3.0,3.0,552.1335829998861,3.0,1.0,part_1,,,,,,,,,,,,,cyan,diamond
1315.0,4.0,4.0,0.0,1.0,1.0,681.43374400006,3.0,1.0,part_1,,,,,,,,,,,,,green,cross
162.0,1.0,1.0,0.0,1.0,1.0,503.8816279998173,3.0,1.0,part_1,,,,,,,,,,,,,gray,triangle
1289.0,4.0,4.0,0.0,3.0,3.0,597.8524490001291,3.0,1.0,part_1,,,,,,,,,,,,,green,cross
0.0,8.0,0.0,1.0,1.0,1.0,767.0200920001662,3.0,1.0,part_1,,,,,,,,,,,,,orange,flipped triangle
675.0,7.0,3.0,1.0,2.0,2.0,634.4425510001201,3.0,1.0,part_1,,,,,,,,,,,,,cyan,diamond
1322.0,4.0,4.0,0.0,2.0,2.0,411.9692760000362,3.0,1.0,part_1,,,,,,,,,,,,,green,cross
1294.0,8.0,4.0,1.0,2.0,2.0,374.2107620000752,3.0,1.0,part_1,,,,,,,,,,,,,orange,flipped triangle
0.0,3.0,0.0,0.0,1.0,1.0,486.1216270001023,3.0,1.0,part_1,,,,,,,,,,,,,yellow,I
144.0,1.0,1.0,0.0,2.0,2.0,562.6991050003198,3.0,1.0,part_1,,,,,,,,,,,,,gray,triangle
310.0,6.0,2.0,1.0,3.0,3.0,383.4364600002118,3.0,1.0,part_1,,,,,,,,,,,,,magenta,square
1323.0,4.0,4.0,0.0,2.0,2.0,523.7487320000582,3.0,1.0,part_1,,,,,,,,,,,,,green,cross
159.0,5.0,1.0,1.0,4.0,4.0,497.9404699997758,3.0,1.0,part_1,,,,,,,,,,,,,blue,hexagon
1323.0,8.0,4.0,1.0,1.0,1.0,439.2104569997173,3.0,2.0,part_1,,,,,,,,,,,,,orange,flipped triangle
333.0,2.0,2.0,0.0,1.0,1.0,451.9348489998265,3.0,1.0,part_1,,,,,,,,,,,,,white,circle
164.0,5.0,1.0,1.0,2.0,2.0,449.0198889998282,3.0,2.0,part_1,,,,,,,,,,,,,blue,hexagon
0.0,8.0,0.0,1.0,1.0,1.0,561.8876359999376,3.0,1.0,part_1,,,,,,,,,,,,,orange,flipped triangle
144.0,1.0,1.0,0.0,3.0,3.0,516.9194290001542,3.0,1.0,part_1,,,,,,,,,,,,,gray,triangle
327.0,2.0,2.0,0.0,2.0,2.0,544.4251169997187,3.0,1.0,part_1,,,,,,,,,,,,,white,circle
1324.0,4.0,4.0,0.0,1.0,1.0,477.7605829999629,3.0,1.0,part_1,,,,,,,,,,,,,green,cross
0.0,4.0,0.0,0.0,2.0,2.0,656.241786999999,3.0,1.0,part_1,,,,,,,,,,,,,green,cross
630.0,7.0,3.0,1.0,2.0,2.0,523.7365880002471,3.0,1.0,part_1,,,,,,,,,,,,,cyan,diamond
1304.0,4.0,4.0,0.0,3.0,3.0,373.29680799985,3.0,1.0,part_1,,,,,,,,,,,,,green,cross
644.0,3.0,3.0,0.0,1.0,1.0,562.061359999916,3.0,1.0,part_1,,,,,,,,,,,,,yellow,I
165.0,1.0,1.0,0.0,2.0,2.0,429.8016009997809,3.0,1.0,part_1,,,,,,,,,,,,,gray,triangle
348.0,2.0,2.0,0.0,1.0,1.0,440.306757000144,3.0,1.0,part_1,,,,,,,,,,,,,white,circle
1317.0,8.0,4.0,1.0,4.0,4.0,431.0261259997787,3.0,1.0,part_1,,,,,,,,,,,,,orange,flipped triangle
173.0,1.0,1.0,0.0,1.0,1.0,458.7278270000752,3.0,1.0,part_1,,,,,,,,,,,,,gray,triangle
0.0,8.0,0.0,1.0,4.0,4.0,541.270557000189,3.0,2.0,part_1,,,,,,,,,,,,,orange,flipped triangle
1276.0,8.0,4.0,1.0,4.0,4.0,497.6822579997133,3.0,1.0,part_1,,,,,,,,,,,,,orange,flipped triangle
179.0,1.0,1.0,0.0,3.0,3.0,477.4522299999262,3.0,1.0,part_1,,,,,,,,,,,,,gray,triangle
1282.0,4.0,4.0,0.0,3.0,3.0,357.0212710001215,3.0,1.0,part_1,,,,,,,,,,,,,green,cross
334.0,2.0,2.0,0.0,1.0,1.0,402.0860109999375,3.0,1.0,part_1,,,,,,,,,,,,,white,circle
0.0,3.0,0.0,0.0,3.0,3.0,421.1690100000851,3.0,1.0,part_1,,,,,,,,,,,,,yellow,I
313.0,2.0,2.0,0.0,3.0,3.0,440.6213359998219,3.0,1.0,part_1,,,,,,,,,,,,,white,circle
138.0,1.0,1.0,0.0,1.0,1.0,458.7045299999772,3.0,1.0,part_1,,,,,,,,,,,,,gray,triangle
652.0,7.0,3.0,1.0,4.0,4.0,478.18843000004557,3.0,1.0,part_1,,,,,,,,,,,,,cyan,diamond
1315.0,8.0,4.0,1.0,4.0,4.0,375.365344000329,3.0,1.0,part_1,,,,,,,,,,,,,orange,flipped triangle
307.0,6.0,2.0,1.0,2.0,2.0,876.5432360000887,3.0,1.0,part_1,,,,,,,,,,,,,magenta,square
630.0,3.0,3.0,0.0,2.0,2.0,543.846105999819,3.0,1.0,part_1,,,,,,,,,,,,,yellow,I
333.0,6.0,2.0,1.0,2.0,2.0,412.544490000073,3.0,1.0,part_1,,,,,,,,,,,,,magenta,square
627.0,3.0,3.0,0.0,2.0,2.0,337.5955269998485,3.0,1.0,part_1,,,,,,,,,,,,,yellow,I
301.0,2.0,2.0,0.0,1.0,1.0,535.206560000006,3.0,1.0,part_1,,,,,,,,,,,,,white,circle
350.0,2.0,2.0,0.0,4.0,4.0,449.8907269999108,3.0,1.0,part_1,,,,,,,,,,,,,white,circle
172.0,1.0,1.0,0.0,3.0,3.0,393.7620980000247,3.0,1.0,part_1,,,,,,,,,,,,,gray,triangle
155.0,1.0,1.0,0.0,4.0,4.0,393.9177520001067,3.0,1.0,part_1,,,,,,,,,,,,,gray,triangle
1283.0,8.0,4.0,1.0,4.0,4.0,439.8965360001057,3.0,1.0,part_1,,,,,,,,,,,,,orange,flipped triangle
672.0,3.0,3.0,0.0,4.0,4.0,374.9749580001662,3.0,1.0,part_1,,,,,,,,,,,,,yellow,I
177.0,5.0,1.0,1.0,2.0,2.0,532.7626319999581,3.0,1.0,part_1,,,,,,,,,,,,,blue,hexagon
1314.0,4.0,4.0,0.0,4.0,4.0,534.8783180002101,3.0,1.0,part_1,,,,,,,,,,,,,green,cross
629.0,7.0,3.0,1.0,2.0,2.0,769.7663259996261,3.0,1.0,part_1,,,,,,,,,,,,,cyan,diamond
632.0,3.0,3.0,0.0,3.0,3.0,897.4035550004373,3.0,1.0,part_1,,,,,,,,,,,,,yellow,I
0.0,3.0,0.0,0.0,3.0,3.0,449.8179520001031,3.0,1.0,part_1,,,,,,,,,,,,,yellow,I
144.0,5.0,1.0,1.0,4.0,4.0,486.6267979996337,3.0,1.0,part_1,,,,,,,,,,,,,blue,hexagon
0.0,2.0,0.0,0.0,4.0,4.0,578.9828320002925,3.0,1.0,part_1,,,,,,,,,,,,,white,circle
651.0,3.0,3.0,0.0,2.0,2.0,907.9068719997848,4.0,1.0,part_1,,,,,,,,,,,,,yellow,I
1313.0,8.0,4.0,1.0,3.0,3.0,412.6695779996225,4.0,1.0,part_1,,,,,,,,,,,,,orange,flipped triangle
304.0,2.0,2.0,0.0,1.0,1.0,487.4208750002253,4.0,1.0,part_1,,,,,,,,,,,,,white,circle
164.0,5.0,1.0,1.0,1.0,1.0,449.9843369999325,4.0,1.0,part_1,,,,,,,,,,,,,blue,hexagon
1321.0,8.0,4.0,1.0,1.0,1.0,458.1524569998692,4.0,1.0,part_1,,,,,,,,,,,,,orange,flipped triangle
0.0,5.0,0.0,1.0,1.0,1.0,347.9467870001826,4.0,1.0,part_1,,,,,,,,,,,,,blue,hexagon
1299.0,4.0,4.0,0.0,1.0,1.0,330.7111910003186,4.0,1.0,part_1,,,,,,,,,,,,,green,cross
337.0,2.0,2.0,0.0,2.0,2.0,415.840720000233,4.0,2.0,part_1,,,,,,,,,,,,,white,circle
1322.0,8.0,4.0,1.0,2.0,2.0,392.8299849999348,4.0,1.0,part_1,,,,,,,,,,,,,orange,flipped triangle
310.0,2.0,2.0,0.0,4.0,4.0,437.4989200000527,4.0,1.0,part_1,,,,,,,,,,,,,white,circle
0.0,8.0,0.0,1.0,3.0,3.0,430.6993220002368,4.0,1.0,part_1,,,,,,,,,,,,,orange,flipped triangle
174.0,5.0,1.0,1.0,3.0,3.0,485.8557060001658,4.0,1.0,part_1,,,,,,,,,,,,,blue,hexagon
308.0,6.0,2.0,1.0,4.0,4.0,440.6787459997758,4.0,1.0,part_1,,,,,,,,,,,,,magenta,square
650.0,7.0,3.0,1.0,1.0,1.0,412.2410549998676,4.0,1.0,part_1,,,,,,,,,,,,,cyan,diamond
628.0,3.0,3.0,0.0,4.0,4.0,561.4279619999252,4.0,1.0,part_1,,,,,,,,,,,,,yellow,I
658.0,3.0,3.0,0.0,4.0,4.0,523.6057410002104,4.0,1.0,part_1,,,,,,,,,,,,,yellow,I
0.0,4.0,0.0,0.0,2.0,2.0,774.0404759997546,4.0,1.0,part_1,,,,,,,,,,,,,green,cross
640.0,7.0,3.0,1.0,2.0,2.0,479.3386649998865,4.0,1.0,part_1,,,,,,,,,,,,,cyan,diamond
308.0,2.0,2.0,0.0,4.0,4.0,776.2936039998749,4.0,1.0,part_1,,,,,,,,,,,,,white,circle
0.0,2.0,0.0,0.0,2.0,2.0,468.9116360000298,4.0,1.0,part_1,,,,,,,,,,,,,white,circle
646.0,3.0,3.0,0.0,3.0,3.0,345.4683479999403,4.0,1.0,part_1,,,,,,,,,,,,,yellow,I
153.0,5.0,1.0,1.0,2.0,2.0,475.8735280001929,4.0,1.0,part_1,,,,,,,,,,,,,blue,hexagon
0.0,2.0,0.0,0.0,2.0,2.0,521.7861969999831,4.0,1.0,part_1,,,,,,,,,,,,,white,circle
144.0,5.0,1.0,1.0,3.0,3.0,356.2085819999083,4.0,1.0,part_1,,,,,,,,,,,,,blue,hexagon
0.0,7.0,0.0,1.0,3.0,3.0,487.7778689997285,4.0,1.0,part_1,,,,,,,,,,,,,cyan,diamond
672.0,7.0,3.0,1.0,3.0,3.0,404.6475980003379,4.0,1.0,part_1,,,,,,,,,,,,,cyan,diamond
338.0,2.0,2.0,0.0,3.0,3.0,383.9463539998178,4.0,1.0,part_1,,,,,,,,,,,,,white,circle
150.0,1.0,1.0,0.0,3.0,3.0,337.3193460001857,4.0,1.0,part_1,,,,,,,,,,,,,gray,triangle
1282.0,8.0,4.0,1.0,2.0,2.0,580.8274089999941,4.0,1.0,part_1,,,,,,,,,,,,,orange,flipped triangle
176.0,5.0,1.0,1.0,4.0,4.0,497.2660429998541,4.0,1.0,part_1,,,,,,,,,,,,,blue,hexagon
348.0,6.0,2.0,1.0,1.0,1.0,590.1583400000163,4.0,1.0,part_1,,,,,,,,,,,,,magenta,square
348.0,2.0,2.0,0.0,2.0,2.0,467.7909779998117,4.0,1.0,part_1,,,,,,,,,,,,,white,circle
1292.0,8.0,4.0,1.0,1.0,1.0,553.1217329998981,4.0,2.0,part_1,,,,,,,,,,,,,orange,flipped triangle
0.0,6.0,0.0,1.0,4.0,4.0,458.3238929999425,4.0,2.0,part_1,,,,,,,,,,,,,magenta,square
0.0,1.0,0.0,0.0,4.0,4.0,386.0733989999971,4.0,1.0,part_1,,,,,,,,,,,,,gray,triangle
316.0,2.0,2.0,0.0,1.0,1.0,552.2034659998099,4.0,1.0,part_1,,,,,,,,,,,,,white,circle
0.0,7.0,0.0,1.0,2.0,2.0,410.0588109999989,4.0,1.0,part_1,,,,,,,,,,,,,cyan,diamond
167.0,5.0,1.0,1.0,2.0,2.0,366.6099130000475,4.0,1.0,part_1,,,,,,,,,,,,,blue,hexagon
180.0,1.0,1.0,0.0,4.0,4.0,470.1869509999596,4.0,1.0,part_1,,,,,,,,,,,,,gray,triangle
1277.0,8.0,4.0,1.0,3.0,3.0,410.8168810003008,4.0,1.0,part_1,,,,,,,,,,,,,orange,flipped triangle
655.0,3.0,3.0,0.0,1.0,1.0,448.739057000239,4.0,1.0,part_1,,,,,,,,,,,,,yellow,I
150.0,5.0,1.0,1.0,2.0,2.0,486.6875079997044,4.0,1.0,part_1,,,,,,,,,,,,,blue,hexagon
675.0,3.0,3.0,0.0,2.0,2.0,458.2594600001357,4.0,2.0,part_1,,,,,,,,,,,,,yellow,I
1295.0,8.0,4.0,1.0,3.0,3.0,526.7895769998177,4.0,1.0,part_1,,,,,,,,,,,,,orange,flipped triangle
176.0,1.0,1.0,0.0,2.0,2.0,861.1208800002714,4.0,1.0,part_1,,,,,,,,,,,,,gray,triangle
321.0,2.0,2.0,0.0,3.0,3.0,627.0168569999441,4.0,1.0,part_1,,,,,,,,,,,,,white,circle
1324.0,8.0,4.0,1.0,4.0,4.0,694.7799139998097,4.0,1.0,part_1,,,,,,,,,,,,,orange,flipped triangle
0.0,3.0,0.0,0.0,1.0,1.0,458.2538280001245,4.0,1.0,part_1,,,,,,,,,,,,,yellow,I
1285.0,8.0,4.0,1.0,1.0,1.0,505.65307499982737,4.0,1.0,part_1,,,,,,,,,,,,,orange,flipped triangle
661.0,3.0,3.0,0.0,1.0,1.0,523.4700880000673,4.0,1.0,part_1,,,,,,,,,,,,,yellow,I
337.0,2.0,2.0,0.0,4.0,4.0,515.5048479996367,4.0,1.0,part_1,,,,,,,,,,,,,white,circle
0.0,4.0,0.0,0.0,2.0,2.0,516.6421849999097,4.0,1.0,part_1,,,,,,,,,,,,,green,cross
1306.0,4.0,4.0,0.0,1.0,1.0,384.8729970000022,4.0,1.0,part_1,,,,,,,,,,,,,green,cross
670.0,7.0,3.0,1.0,1.0,1.0,590.4282169999533,4.0,1.0,part_1,,,,,,,,,,,,,cyan,diamond
310.0,6.0,2.0,1.0,1.0,1.0,607.0303060000697,4.0,1.0,part_1,,,,,,,,,,,,,magenta,square
666.0,7.0,3.0,1.0,4.0,4.0,413.7443029999303,4.0,2.0,part_1,,,,,,,,,,,,,cyan,diamond
164.0,1.0,1.0,0.0,2.0,2.0,496.0105300001487,4.0,1.0,part_1,,,,,,,,,,,,,gray,triangle
669.0,7.0,3.0,1.0,3.0,3.0,335.8760240002993,4.0,1.0,part_1,,,,,,,,,,,,,cyan,diamond
173.0,5.0,1.0,1.0,4.0,4.0,365.4764059997433,4.0,1.0,part_1,,,,,,,,,,,,,blue,hexagon
315.0,6.0,2.0,1.0,3.0,3.0,365.9293750001779,4.0,1.0,part_1,,,,,,,,,,,,,magenta,square
150.0,5.0,1.0,1.0,1.0,1.0,421.4261369997985,4.0,1.0,part_1,,,,,,,,,,,,,blue,hexagon
328.0,6.0,2.0,1.0,1.0,1.0,467.2187790001771,4.0,1.0,part_1,,,,,,,,,,,,,magenta,square
314.0,6.0,2.0,1.0,1.0,1.0,412.0003929997438,4.0,1.0,part_1,,,,,,,,,,,,,magenta,square
640.0,7.0,3.0,1.0,1.0,1.0,393.229718999919,4.0,1.0,part_1,,,,,,,,,,,,,cyan,diamond
314.0,2.0,2.0,0.0,2.0,2.0,551.80092899991,4.0,1.0,part_1,,,,,,,,,,,,,white,circle
0.0,2.0,0.0,0.0,2.0,2.0,393.1139549999898,4.0,1.0,part_1,,,,,,,,,,,,,white,circle
0.0,3.0,0.0,0.0,2.0,2.0,382.9311370000141,4.0,1.0,part_1,,,,,,,,,,,,,yellow,I
639.0,3.0,3.0,0.0,1.0,1.0,468.7234339999122,4.0,2.0,part_1,,,,,,,,,,,,,yellow,I
145.0,5.0,1.0,1.0,3.0,3.0,516.0289410000587,4.0,1.0,part_1,,,,,,,,,,,,,blue,hexagon
301.0,6.0,2.0,1.0,3.0,3.0,394.0574260000176,4.0,1.0,part_1,,,,,,,,,,,,,magenta,square
644.0,7.0,3.0,1.0,1.0,1.0,524.670461000369,4.0,1.0,part_1,,,,,,,,,,,,,cyan,diamond
1283.0,8.0,4.0,1.0,2.0,2.0,600.1554180002131,4.0,1.0,part_1,,,,,,,,,,,,,orange,flipped triangle
629.0,3.0,3.0,0.0,3.0,3.0,544.2395110003417,4.0,1.0,part_1,,,,,,,,,,,,,yellow,I
669.0,3.0,3.0,0.0,3.0,3.0,505.7217580001634,4.0,2.0,part_1,,,,,,,,,,,,,yellow,I
1316.0,4.0,4.0,0.0,2.0,2.0,506.98591800028225,4.0,1.0,part_1,,,,,,,,,,,,,green,cross
159.0,5.0,1.0,1.0,3.0,3.0,458.8384570001835,4.0,1.0,part_1,,,,,,,,,,,,,blue,hexagon
0.0,6.0,0.0,1.0,1.0,1.0,422.0690920001289,4.0,1.0,part_1,,,,,,,,,,,,,magenta,square
338.0,6.0,2.0,1.0,1.0,1.0,422.1011690001433,4.0,1.0,part_1,,,,,,,,,,,,,magenta,square
147.0,5.0,1.0,1.0,2.0,2.0,516.3631280001937,4.0,1.0,part_1,,,,,,,,,,,,,blue,hexagon
347.0,6.0,2.0,1.0,4.0,4.0,517.0100410000487,4.0,1.0,part_1,,,,,,,,,,,,,magenta,square
661.0,3.0,3.0,0.0,2.0,2.0,476.8913249999968,4.0,2.0,part_1,,,,,,,,,,,,,yellow,I
139.0,1.0,1.0,0.0,4.0,4.0,505.3612270003214,4.0,1.0,part_1,,,,,,,,,,,,,gray,triangle
1324.0,8.0,4.0,1.0,2.0,2.0,562.1471969998311,4.0,1.0,part_1,,,,,,,,,,,,,orange,flipped triangle
0.0,8.0,0.0,1.0,4.0,4.0,497.640310999941,4.0,2.0,part_1,,,,,,,,,,,,,orange,flipped triangle
669.0,7.0,3.0,1.0,4.0,4.0,384.7488689998499,4.0,1.0,part_1,,,,,,,,,,,,,cyan,diamond
639.0,3.0,3.0,0.0,3.0,3.0,422.7111169998352,4.0,1.0,part_1,,,,,,,,,,,,,yellow,I
150.0,1.0,1.0,0.0,1.0,1.0,394.6445800002038,4.0,1.0,part_1,,,,,,,,,,,,,gray,triangle
637.0,3.0,3.0,0.0,4.0,4.0,413.7690859997747,4.0,1.0,part_1,,,,,,,,,,,,,yellow,I
0.0,2.0,0.0,0.0,4.0,4.0,479.2834840000068,4.0,1.0,part_1,,,,,,,,,,,,,white,circle
649.0,7.0,3.0,1.0,3.0,3.0,496.2309570000798,4.0,1.0,part_1,,,,,,,,,,,,,cyan,diamond
0.0,5.0,0.0,1.0,3.0,3.0,583.0510140003753,4.0,2.0,part_1,,,,,,,,,,,,,blue,hexagon
0.0,4.0,0.0,0.0,3.0,3.0,424.0449419999095,4.0,1.0,part_1,,,,,,,,,,,,,green,cross
670.0,7.0,3.0,1.0,1.0,1.0,646.6533449997769,4.0,1.0,part_1,,,,,,,,,,,,,cyan,diamond
628.0,7.0,3.0,1.0,3.0,3.0,515.9929700002976,4.0,1.0,part_1,,,,,,,,,,,,,cyan,diamond
670.0,3.0,3.0,0.0,1.0,1.0,468.0504299999484,4.0,2.0,part_1,,,,,,,,,,,,,yellow,I
0.0,8.0,0.0,1.0,2.0,2.0,590.2121170001919,4.0,1.0,part_1,,,,,,,,,,,,,orange,flipped triangle
176.0,5.0,1.0,1.0,1.0,1.0,421.134818000155,4.0,1.0,part_1,,,,,,,,,,,,,blue,hexagon
0.0,1.0,0.0,0.0,3.0,3.0,515.3978749999624,4.0,1.0,part_1,,,,,,,,,,,,,gray,triangle
0.0,6.0,0.0,1.0,2.0,2.0,581.915141999616,4.0,1.0,part_1,,,,,,,,,,,,,magenta,square
309.0,2.0,2.0,0.0,3.0,3.0,450.7879220000177,4.0,1.0,part_1,,,,,,,,,,,,,white,circle
0.0,8.0,4.0,1.0,5.0,0.0,0.0,1.0,0.0,part_2,stop,250.0,250.0,4.0,,,,,,,,,orange,flipped triangle
0.0,8.0,4.0,1.0,5.0,0.0,0.0,1.0,0.0,part_2,stop,300.0,250.0,4.0,,,,,,,,,orange,flipped triangle
0.0,7.0,3.0,1.0,5.0,0.0,0.0,1.0,0.0,part_2,stop,350.0,250.0,4.0,,,,,,,,,cyan,diamond
0.0,3.0,3.0,0.0,6.0,6.0,650.3096030000961,1.0,0.0,part_2,go,400.0,250.0,1.0,,,,,,,,,yellow,I
0.0,7.0,3.0,1.0,6.0,0.0,0.0,1.0,0.0,part_2,stop,400.0,250.0,4.0,,,,,,,,,cyan,diamond
0.0,1.0,1.0,0.0,5.0,5.0,699.5123619999504,1.0,0.0,part_2,go,400.0,300.0,1.0,,,,,,,,,gray,triangle
0.0,6.0,2.0,1.0,6.0,6.0,817.108382999777,1.0,0.0,part_2,go,400.0,300.0,1.0,,,,,,,,,magenta,square
0.0,1.0,1.0,0.0,6.0,6.0,623.3624719998261,1.0,0.0,part_2,go,400.0,300.0,1.0,,,,,,,,,gray,triangle
0.0,7.0,3.0,1.0,6.0,6.0,457.8820700003234,1.0,0.0,part_2,stop,400.0,300.0,3.0,,,,,,,,,cyan,diamond
0.0,3.0,3.0,0.0,5.0,5.0,582.6647569997476,1.0,0.0,part_2,go,400.0,250.0,1.0,,,,,,,,,yellow,I
0.0,3.0,3.0,0.0,6.0,6.0,1036.151636999875,1.0,0.0,part_2,go,400.0,250.0,1.0,,,,,,,,,yellow,I
0.0,4.0,4.0,0.0,6.0,6.0,894.6329269997477,1.0,0.0,part_2,go,400.0,250.0,1.0,,,,,,,,,green,cross
0.0,1.0,1.0,0.0,5.0,5.0,662.158196999826,1.0,0.0,part_2,go,400.0,250.0,1.0,,,,,,,,,gray,triangle
0.0,4.0,4.0,0.0,5.0,5.0,565.3447280001274,1.0,0.0,part_2,go,400.0,250.0,1.0,,,,,,,,,green,cross
0.0,5.0,1.0,1.0,6.0,0.0,0.0,1.0,0.0,part_2,stop,400.0,250.0,4.0,,,,,,,,,blue,hexagon
0.0,6.0,2.0,1.0,5.0,0.0,0.0,1.0,0.0,part_2,stop,400.0,300.0,4.0,,,,,,,,,magenta,square
0.0,3.0,3.0,0.0,5.0,5.0,1334.8567790003472,1.0,0.0,part_2,go,450.0,300.0,1.0,,,,,,,,,yellow,I
0.0,3.0,3.0,0.0,5.0,5.0,1103.5179290001906,1.0,0.0,part_2,go,450.0,300.0,1.0,,,,,,,,,yellow,I
0.0,6.0,2.0,1.0,6.0,0.0,0.0,1.0,0.0,part_2,stop,450.0,300.0,4.0,,,,,,,,,magenta,square
0.0,4.0,4.0,0.0,5.0,5.0,1066.103767000186,1.0,0.0,part_2,go,450.0,350.0,1.0,,,,,,,,,green,cross
0.0,7.0,3.0,1.0,6.0,0.0,0.0,1.0,0.0,part_2,stop,450.0,350.0,4.0,,,,,,,,,cyan,diamond
0.0,6.0,2.0,1.0,6.0,6.0,1187.1573979997263,1.0,0.0,part_2,go,450.0,400.0,1.0,,,,,,,,,magenta,square
0.0,6.0,2.0,1.0,5.0,0.0,0.0,1.0,0.0,part_2,stop,450.0,400.0,4.0,,,,,,,,,magenta,square
0.0,7.0,3.0,1.0,6.0,6.0,673.0875540001762,1.0,0.0,part_2,stop,500.0,400.0,3.0,,,,,,,,,cyan,diamond
0.0,7.0,3.0,1.0,6.0,6.0,887.607479000053,1.0,0.0,part_2,go,500.0,350.0,1.0,,,,,,,,,cyan,diamond
0.0,1.0,1.0,0.0,6.0,6.0,1149.5234049998544,1.0,0.0,part_2,go,500.0,350.0,1.0,,,,,,,,,gray,triangle
0.0,2.0,2.0,0.0,5.0,5.0,1048.835111000244,1.0,0.0,part_2,go,500.0,350.0,1.0,,,,,,,,,white,circle
0.0,4.0,4.0,0.0,5.0,5.0,907.788408000215,1.0,0.0,part_2,go,500.0,350.0,1.0,,,,,,,,,green,cross
0.0,8.0,4.0,1.0,5.0,0.0,0.0,1.0,0.0,part_2,stop,500.0,350.0,4.0,,,,,,,,,orange,flipped triangle
0.0,5.0,1.0,1.0,5.0,0.0,0.0,1.0,0.0,part_2,go,550.0,350.0,5.0,,,,,,,,,blue,hexagon
0.0,7.0,3.0,1.0,5.0,0.0,0.0,1.0,0.0,part_2,stop,550.0,350.0,4.0,,,,,,,,,cyan,diamond
0.0,8.0,4.0,1.0,5.0,5.0,647.3155200001202,1.0,0.0,part_2,stop,600.0,350.0,3.0,,,,,,,,,orange,flipped triangle
0.0,4.0,4.0,0.0,5.0,5.0,1241.4659179999037,1.0,0.0,part_2,go,550.0,350.0,1.0,,,,,,,,,green,cross
0.0,1.0,1.0,0.0,6.0,6.0,1102.0324840001194,1.0,0.0,part_2,go,550.0,350.0,1.0,,,,,,,,,gray,triangle
0.0,3.0,3.0,0.0,5.0,5.0,989.3102820001332,1.0,0.0,part_2,go,550.0,350.0,1.0,,,,,,,,,yellow,I
0.0,5.0,1.0,1.0,5.0,0.0,0.0,1.0,0.0,part_2,stop,550.0,350.0,4.0,,,,,,,,,blue,hexagon
0.0,7.0,3.0,1.0,6.0,0.0,0.0,2.0,0.0,part_2,stop,600.0,350.0,4.0,,,,,,,,,cyan,diamond
0.0,5.0,1.0,1.0,5.0,5.0,733.0838939997193,2.0,0.0,part_2,stop,600.0,400.0,3.0,,,,,,,,,blue,hexagon
0.0,1.0,1.0,0.0,5.0,5.0,763.715990000037,2.0,0.0,part_2,go,550.0,400.0,1.0,,,,,,,,,gray,triangle
0.0,8.0,4.0,1.0,5.0,5.0,602.8463540001212,2.0,0.0,part_2,go,550.0,400.0,1.0,,,,,,,,,orange,flipped triangle
0.0,1.0,1.0,0.0,6.0,6.0,1038.0177170000024,2.0,0.0,part_2,go,550.0,400.0,1.0,,,,,,,,,gray,triangle
0.0,8.0,4.0,1.0,5.0,0.0,0.0,2.0,0.0,part_2,stop,550.0,400.0,4.0,,,,,,,,,orange,flipped triangle
0.0,4.0,4.0,0.0,5.0,5.0,914.2795509997086,2.0,0.0,part_2,go,600.0,400.0,1.0,,,,,,,,,green,cross
0.0,6.0,2.0,1.0,6.0,6.0,850.785624999844,2.0,0.0,part_2,go,600.0,400.0,1.0,,,,,,,,,magenta,square
0.0,2.0,2.0,0.0,6.0,6.0,676.1272839999037,2.0,0.0,part_2,go,600.0,400.0,1.0,,,,,,,,,white,circle
0.0,8.0,4.0,1.0,5.0,5.0,951.4762240000892,2.0,0.0,part_2,go,600.0,400.0,1.0,,,,,,,,,orange,flipped triangle
0.0,2.0,2.0,0.0,5.0,5.0,505.69603899975846,2.0,0.0,part_2,go,600.0,400.0,1.0,,,,,,,,,white,circle
0.0,2.0,2.0,0.0,5.0,5.0,791.5838069998244,2.0,0.0,part_2,go,600.0,400.0,1.0,,,,,,,,,white,circle
0.0,7.0,3.0,1.0,6.0,0.0,0.0,2.0,0.0,part_2,stop,600.0,400.0,4.0,,,,,,,,,cyan,diamond
0.0,8.0,4.0,1.0,6.0,0.0,0.0,2.0,0.0,part_2,stop,600.0,450.0,4.0,,,,,,,,,orange,flipped triangle
0.0,3.0,3.0,0.0,5.0,5.0,643.1805229999554,2.0,0.0,part_2,go,600.0,500.0,1.0,,,,,,,,,yellow,I
0.0,1.0,1.0,0.0,6.0,6.0,1132.5194880000709,2.0,0.0,part_2,go,600.0,500.0,1.0,,,,,,,,,gray,triangle
0.0,7.0,3.0,1.0,5.0,0.0,0.0,2.0,0.0,part_2,stop,600.0,500.0,4.0,,,,,,,,,cyan,diamond
0.0,4.0,4.0,0.0,5.0,5.0,975.0624879998212,2.0,0.0,part_2,go,650.0,500.0,1.0,,,,,,,,,green,cross
0.0,6.0,2.0,1.0,6.0,6.0,698.0927760000668,2.0,0.0,part_2,stop,650.0,500.0,3.0,,,,,,,,,magenta,square
0.0,5.0,1.0,1.0,6.0,0.0,0.0,2.0,0.0,part_2,stop,650.0,450.0,4.0,,,,,,,,,blue,hexagon
0.0,1.0,1.0,0.0,6.0,6.0,708.4348920002412,2.0,0.0,part_2,go,650.0,500.0,1.0,,,,,,,,,gray,triangle
0.0,6.0,2.0,1.0,5.0,5.0,576.614791999873,2.0,0.0,part_2,stop,650.0,500.0,3.0,,,,,,,,,magenta,square
0.0,3.0,3.0,0.0,6.0,6.0,526.2214529998346,2.0,0.0,part_2,go,600.0,500.0,1.0,,,,,,,,,yellow,I
0.0,5.0,1.0,1.0,6.0,0.0,0.0,2.0,0.0,part_2,stop,600.0,500.0,4.0,,,,,,,,,blue,hexagon
0.0,5.0,1.0,1.0,6.0,0.0,0.0,2.0,0.0,part_2,stop,600.0,550.0,4.0,,,,,,,,,blue,hexagon
0.0,3.0,3.0,0.0,5.0,5.0,757.2453980001228,2.0,0.0,part_2,go,600.0,600.0,1.0,,,,,,,,,yellow,I
0.0,1.0,1.0,0.0,6.0,6.0,841.0644600003252,2.0,0.0,part_2,go,600.0,600.0,1.0,,,,,,,,,gray,triangle
0.0,6.0,2.0,1.0,5.0,5.0,574.9288950000846,2.0,0.0,part_2,stop,600.0,600.0,3.0,,,,,,,,,magenta,square
0.0,1.0,1.0,0.0,5.0,5.0,1095.3666420000443,2.0,0.0,part_2,go,550.0,600.0,1.0,,,,,,,,,gray,triangle
0.0,2.0,2.0,0.0,5.0,5.0,642.5876779999271,2.0,0.0,part_2,go,550.0,600.0,1.0,,,,,,,,,white,circle
0.0,1.0,1.0,0.0,5.0,5.0,755.1763390001724,2.0,0.0,part_2,go,550.0,600.0,1.0,,,,,,,,,gray,triangle
0.0,8.0,4.0,1.0,5.0,5.0,906.6257230001612,2.0,0.0,part_2,go,550.0,600.0,1.0,,,,,,,,,orange,flipped triangle
0.0,1.0,1.0,0.0,5.0,5.0,984.9937899998622,2.0,0.0,part_2,go,550.0,600.0,1.0,,,,,,,,,gray,triangle
0.0,4.0,4.0,0.0,5.0,5.0,945.8641199998964,2.0,0.0,part_2,go,550.0,600.0,1.0,,,,,,,,,green,cross
0.0,5.0,1.0,1.0,5.0,0.0,0.0,2.0,0.0,part_2,stop,550.0,600.0,4.0,,,,,,,,,blue,hexagon
0.0,5.0,1.0,1.0,6.0,0.0,0.0,2.0,0.0,part_2,stop,600.0,600.0,4.0,,,,,,,,,blue,hexagon
0.0,2.0,2.0,0.0,6.0,6.0,795.7076239999878,3.0,0.0,part_2,go,600.0,650.0,1.0,,,,,,,,,white,circle
0.0,5.0,1.0,1.0,5.0,5.0,868.2758100003412,3.0,0.0,part_2,go,600.0,650.0,1.0,,,,,,,,,blue,hexagon
0.0,8.0,4.0,1.0,5.0,0.0,0.0,3.0,0.0,part_2,stop,600.0,650.0,4.0,,,,,,,,,orange,flipped triangle
0.0,4.0,4.0,0.0,5.0,5.0,756.6204019999532,3.0,0.0,part_2,go,650.0,650.0,1.0,,,,,,,,,green,cross
0.0,4.0,4.0,0.0,5.0,5.0,747.8022690002035,3.0,0.0,part_2,go,650.0,650.0,1.0,,,,,,,,,green,cross
0.0,7.0,3.0,1.0,5.0,5.0,578.4585689998494,3.0,0.0,part_2,stop,650.0,650.0,3.0,,,,,,,,,cyan,diamond
0.0,2.0,2.0,0.0,6.0,6.0,474.6476840000468,3.0,0.0,part_2,go,600.0,650.0,1.0,,,,,,,,,white,circle
0.0,6.0,2.0,1.0,5.0,0.0,0.0,3.0,0.0,part_2,stop,600.0,650.0,4.0,,,,,,,,,magenta,square
0.0,8.0,4.0,1.0,5.0,5.0,1096.955952999906,3.0,0.0,part_2,go,650.0,650.0,1.0,,,,,,,,,orange,flipped triangle
0.0,2.0,2.0,0.0,5.0,5.0,807.3287779998282,3.0,0.0,part_2,go,650.0,650.0,1.0,,,,,,,,,white,circle
0.0,6.0,2.0,1.0,6.0,6.0,424.7302799999488,3.0,0.0,part_2,stop,650.0,650.0,3.0,,,,,,,,,magenta,square
0.0,2.0,2.0,0.0,6.0,6.0,810.6502030000229,3.0,0.0,part_2,go,650.0,600.0,1.0,,,,,,,,,white,circle
0.0,5.0,1.0,1.0,6.0,6.0,586.9706529997529,3.0,0.0,part_2,go,650.0,600.0,1.0,,,,,,,,,blue,hexagon
0.0,3.0,3.0,0.0,6.0,6.0,934.8520620001182,3.0,0.0,part_2,go,650.0,600.0,1.0,,,,,,,,,yellow,I
0.0,4.0,4.0,0.0,6.0,6.0,509.3458249998548,3.0,0.0,part_2,go,650.0,600.0,1.0,,,,,,,,,green,cross
0.0,4.0,4.0,0.0,6.0,6.0,830.6220710001071,3.0,0.0,part_2,go,650.0,600.0,1.0,,,,,,,,,green,cross
0.0,2.0,2.0,0.0,5.0,5.0,491.5187619999415,3.0,0.0,part_2,go,650.0,600.0,1.0,,,,,,,,,white,circle
0.0,8.0,4.0,1.0,5.0,5.0,842.542764999962,3.0,0.0,part_2,stop,650.0,600.0,3.0,,,,,,,,,orange,flipped triangle
0.0,7.0,3.0,1.0,5.0,0.0,0.0,3.0,0.0,part_2,stop,600.0,600.0,4.0,,,,,,,,,cyan,diamond
0.0,7.0,3.0,1.0,5.0,0.0,0.0,3.0,0.0,part_2,stop,650.0,600.0,4.0,,,,,,,,,cyan,diamond
0.0,2.0,2.0,0.0,6.0,6.0,557.9346869999426,3.0,0.0,part_2,go,700.0,600.0,1.0,,,,,,,,,white,circle
0.0,7.0,3.0,1.0,6.0,6.0,1026.7826890003562,3.0,0.0,part_2,go,700.0,600.0,1.0,,,,,,,,,cyan,diamond
0.0,1.0,1.0,0.0,5.0,5.0,1283.9177139999265,3.0,0.0,part_2,go,700.0,600.0,1.0,,,,,,,,,gray,triangle
0.0,6.0,2.0,1.0,6.0,0.0,0.0,3.0,0.0,part_2,stop,700.0,600.0,4.0,,,,,,,,,magenta,square
0.0,6.0,2.0,1.0,5.0,5.0,1094.5535109999582,3.0,0.0,part_2,go,700.0,650.0,1.0,,,,,,,,,magenta,square
0.0,8.0,4.0,1.0,6.0,6.0,1189.1322540000149,3.0,0.0,part_2,go,700.0,650.0,1.0,,,,,,,,,orange,flipped triangle
0.0,8.0,4.0,1.0,6.0,6.0,686.5842299998803,3.0,0.0,part_2,stop,700.0,650.0,3.0,,,,,,,,,orange,flipped triangle
0.0,8.0,4.0,1.0,6.0,6.0,1144.1196759997183,3.0,0.0,part_2,go,700.0,600.0,1.0,,,,,,,,,orange,flipped triangle
0.0,3.0,3.0,0.0,6.0,6.0,990.3125729997556,3.0,0.0,part_2,go,700.0,600.0,1.0,,,,,,,,,yellow,I
0.0,8.0,4.0,1.0,6.0,0.0,0.0,3.0,0.0,part_2,stop,700.0,600.0,4.0,,,,,,,,,orange,flipped triangle
0.0,6.0,2.0,1.0,5.0,0.0,0.0,3.0,0.0,part_2,stop,700.0,650.0,4.0,,,,,,,,,magenta,square
0.0,1.0,1.0,0.0,6.0,6.0,1357.1483069999886,3.0,0.0,part_2,go,750.0,650.0,1.0,,,,,,,,,gray,triangle
0.0,4.0,4.0,0.0,6.0,6.0,1009.5586569996158,3.0,0.0,part_2,go,750.0,650.0,1.0,,,,,,,,,green,cross
0.0,5.0,1.0,1.0,5.0,5.0,936.6456669999934,3.0,0.0,part_2,stop,750.0,650.0,3.0,,,,,,,,,blue,hexagon
0.0,2.0,2.0,0.0,5.0,5.0,1350.9702470000775,3.0,0.0,part_2,go,700.0,650.0,1.0,,,,,,,,,white,circle
0.0,5.0,1.0,1.0,6.0,0.0,0.0,3.0,0.0,part_2,stop,700.0,650.0,4.0,,,,,,,,,blue,hexagon
0.0,8.0,4.0,1.0,5.0,5.0,735.8437559996673,4.0,0.0,part_2,stop,700.0,700.0,3.0,,,,,,,,,orange,flipped triangle
0.0,1.0,1.0,0.0,6.0,6.0,819.9272369997743,4.0,0.0,part_2,go,650.0,700.0,1.0,,,,,,,,,gray,triangle
0.0,8.0,4.0,1.0,6.0,6.0,772.1318180001617,4.0,0.0,part_2,stop,650.0,700.0,3.0,,,,,,,,,orange,flipped triangle
0.0,6.0,2.0,1.0,5.0,5.0,529.6731459998227,4.0,0.0,part_2,stop,650.0,650.0,3.0,,,,,,,,,magenta,square
0.0,4.0,4.0,0.0,6.0,6.0,871.747957000025,4.0,0.0,part_2,go,600.0,650.0,1.0,,,,,,,,,green,cross
0.0,6.0,2.0,1.0,6.0,0.0,0.0,4.0,0.0,part_2,stop,600.0,650.0,4.0,,,,,,,,,magenta,square
0.0,5.0,1.0,1.0,5.0,5.0,999.0123879997554,4.0,0.0,part_2,go,600.0,700.0,1.0,,,,,,,,,blue,hexagon
0.0,6.0,2.0,1.0,6.0,6.0,585.2860899999541,4.0,0.0,part_2,stop,600.0,700.0,3.0,,,,,,,,,magenta,square
0.0,2.0,2.0,0.0,6.0,6.0,858.8441500000954,4.0,0.0,part_2,go,600.0,650.0,1.0,,,,,,,,,white,circle
0.0,3.0,3.0,0.0,5.0,5.0,944.2846670003746,4.0,0.0,part_2,go,600.0,650.0,1.0,,,,,,,,,yellow,I
0.0,6.0,2.0,1.0,6.0,6.0,471.8505430000732,4.0,0.0,part_2,stop,600.0,650.0,3.0,,,,,,,,,magenta,square
0.0,7.0,3.0,1.0,6.0,0.0,0.0,4.0,0.0,part_2,stop,600.0,600.0,4.0,,,,,,,,,cyan,diamond
0.0,6.0,2.0,1.0,5.0,0.0,0.0,4.0,0.0,part_2,stop,600.0,650.0,4.0,,,,,,,,,magenta,square
0.0,8.0,4.0,1.0,6.0,6.0,943.73719899977,4.0,0.0,part_2,go,650.0,650.0,1.0,,,,,,,,,orange,flipped triangle
0.0,7.0,3.0,1.0,5.0,5.0,858.598321000045,4.0,0.0,part_2,go,650.0,650.0,1.0,,,,,,,,,cyan,diamond
0.0,5.0,1.0,1.0,5.0,5.0,509.87999000017226,4.0,0.0,part_2,stop,650.0,650.0,3.0,,,,,,,,,blue,hexagon
0.0,1.0,1.0,0.0,6.0,6.0,660.4905670001244,4.0,0.0,part_2,go,600.0,650.0,1.0,,,,,,,,,gray,triangle
0.0,1.0,1.0,0.0,5.0,5.0,508.66094000002704,4.0,0.0,part_2,go,600.0,650.0,1.0,,,,,,,,,gray,triangle
0.0,4.0,4.0,0.0,5.0,5.0,565.1499509999667,4.0,0.0,part_2,go,600.0,650.0,1.0,,,,,,,,,green,cross
0.0,7.0,3.0,1.0,5.0,5.0,414.3888710000283,4.0,0.0,part_2,stop,600.0,650.0,3.0,,,,,,,,,cyan,diamond
0.0,8.0,4.0,1.0,6.0,6.0,537.9657969997425,4.0,0.0,part_2,stop,550.0,650.0,3.0,,,,,,,,,orange,flipped triangle
0.0,3.0,3.0,0.0,6.0,6.0,819.5138080000106,4.0,0.0,part_2,go,550.0,600.0,1.0,,,,,,,,,yellow,I
0.0,2.0,2.0,0.0,6.0,6.0,905.0416379996022,4.0,0.0,part_2,go,550.0,600.0,1.0,,,,,,,,,white,circle
0.0,1.0,1.0,0.0,5.0,6.0,907.533582999804,4.0,0.0,part_2,go,550.0,600.0,2.0,,,,,,,,,gray,triangle
0.0,6.0,2.0,1.0,6.0,6.0,443.5091069999544,4.0,0.0,part_2,go,550.0,600.0,1.0,,,,,,,,,magenta,square
0.0,7.0,3.0,1.0,5.0,5.0,406.4099729998816,4.0,0.0,part_2,stop,550.0,600.0,3.0,,,,,,,,,cyan,diamond
0.0,6.0,2.0,1.0,6.0,6.0,519.4865660000687,4.0,0.0,part_2,stop,500.0,600.0,3.0,,,,,,,,,magenta,square
0.0,2.0,2.0,0.0,6.0,6.0,699.4165750002139,4.0,0.0,part_2,go,500.0,550.0,1.0,,,,,,,,,white,circle
0.0,5.0,1.0,1.0,6.0,6.0,549.2956329999288,4.0,0.0,part_2,go,500.0,550.0,1.0,,,,,,,,,blue,hexagon
0.0,5.0,1.0,1.0,5.0,5.0,533.6446869996507,4.0,0.0,part_2,stop,500.0,550.0,3.0,,,,,,,,,blue,hexagon
0.0,5.0,1.0,1.0,5.0,0.0,0.0,4.0,0.0,part_2,stop,450.0,550.0,4.0,,,,,,,,,blue,hexagon
0.0,4.0,4.0,0.0,6.0,6.0,716.5932829998383,4.0,0.0,part_2,go,500.0,550.0,1.0,,,,,,,,,green,cross
0.0,4.0,4.0,0.0,6.0,6.0,444.4930459999341,4.0,0.0,part_2,go,500.0,550.0,1.0,,,,,,,,,green,cross
0.0,5.0,1.0,1.0,6.0,6.0,369.2488510000657,4.0,0.0,part_2,stop,500.0,550.0,3.0,,,,,,,,,blue,hexagon
0.0,1.0,1.0,0.0,5.0,5.0,727.2568510002202,4.0,0.0,part_2,go,500.0,500.0,1.0,,,,,,,,,gray,triangle
0.0,8.0,4.0,1.0,6.0,0.0,0.0,4.0,0.0,part_2,stop,500.0,500.0,4.0,,,,,,,,,orange,flipped triangle
0.0,2.0,2.0,0.0,5.0,0.0,0.0,5.0,0.0,part_2,go,500.0,550.0,5.0,,,,,,,,,white,circle
0.0,7.0,3.0,1.0,6.0,6.0,518.9932299999782,5.0,0.0,part_2,go,500.0,550.0,1.0,,,,,,,,,cyan,diamond
0.0,3.0,3.0,0.0,6.0,6.0,509.7771040000225,5.0,0.0,part_2,go,500.0,550.0,1.0,,,,,,,,,yellow,I
0.0,2.0,2.0,0.0,6.0,6.0,509.104397000101,5.0,0.0,part_2,go,500.0,550.0,1.0,,,,,,,,,white,circle
0.0,8.0,4.0,1.0,5.0,5.0,999.5697619997372,5.0,0.0,part_2,go,500.0,550.0,1.0,,,,,,,,,orange,flipped triangle
0.0,7.0,3.0,1.0,6.0,6.0,725.4127190003601,5.0,0.0,part_2,go,500.0,550.0,1.0,,,,,,,,,cyan,diamond
0.0,2.0,2.0,0.0,5.0,5.0,612.2944920002737,5.0,0.0,part_2,go,500.0,550.0,1.0,,,,,,,,,white,circle
0.0,2.0,2.0,0.0,5.0,5.0,490.8719660002134,5.0,0.0,part_2,go,500.0,550.0,1.0,,,,,,,,,white,circle
0.0,4.0,4.0,0.0,5.0,5.0,443.4912369997619,5.0,0.0,part_2,go,500.0,550.0,1.0,,,,,,,,,green,cross
0.0,6.0,2.0,1.0,5.0,5.0,387.1230519998789,5.0,0.0,part_2,stop,500.0,550.0,3.0,,,,,,,,,magenta,square
0.0,7.0,3.0,1.0,5.0,5.0,1198.191098999814,5.0,0.0,part_2,go,450.0,550.0,1.0,,,,,,,,,cyan,diamond
0.0,2.0,2.0,0.0,5.0,5.0,784.4296190000932,5.0,0.0,part_2,go,450.0,550.0,1.0,,,,,,,,,white,circle
0.0,7.0,3.0,1.0,5.0,5.0,388.1261849996917,5.0,0.0,part_2,stop,450.0,550.0,3.0,,,,,,,,,cyan,diamond
0.0,8.0,4.0,1.0,5.0,0.0,0.0,5.0,0.0,part_2,stop,400.0,550.0,4.0,,,,,,,,,orange,flipped triangle
0.0,4.0,4.0,0.0,5.0,5.0,924.6170579999672,5.0,0.0,part_2,go,450.0,550.0,1.0,,,,,,,,,green,cross
0.0,2.0,2.0,0.0,5.0,5.0,500.3086320002694,5.0,0.0,part_2,go,450.0,550.0,1.0,,,,,,,,,white,circle
0.0,2.0,2.0,0.0,5.0,5.0,377.6297510003132,5.0,0.0,part_2,go,450.0,550.0,1.0,,,,,,,,,white,circle
0.0,3.0,3.0,0.0,6.0,6.0,622.2773349995805,5.0,0.0,part_2,go,450.0,550.0,1.0,,,,,,,,,yellow,I
0.0,2.0,2.0,0.0,5.0,5.0,443.7264890002552,5.0,0.0,part_2,go,450.0,550.0,1.0,,,,,,,,,white,circle
0.0,3.0,3.0,0.0,6.0,6.0,434.3128630002866,5.0,0.0,part_2,go,450.0,550.0,1.0,,,,,,,,,yellow,I
0.0,5.0,1.0,1.0,6.0,6.0,483.0108959999961,5.0,0.0,part_2,stop,450.0,550.0,3.0,,,,,,,,,blue,hexagon
0.0,3.0,3.0,0.0,5.0,5.0,1058.9305230000718,5.0,0.0,part_2,go,450.0,500.0,1.0,,,,,,,,,yellow,I
0.0,4.0,4.0,0.0,6.0,6.0,809.9686580003436,5.0,0.0,part_2,go,450.0,500.0,1.0,,,,,,,,,green,cross
0.0,4.0,4.0,0.0,6.0,6.0,377.3414950001097,5.0,0.0,part_2,go,450.0,500.0,1.0,,,,,,,,,green,cross
0.0,2.0,2.0,0.0,6.0,6.0,585.4070489999685,5.0,0.0,part_2,go,450.0,500.0,1.0,,,,,,,,,white,circle
0.0,1.0,1.0,0.0,6.0,6.0,764.8585000001731,5.0,0.0,part_2,go,450.0,500.0,1.0,,,,,,,,,gray,triangle
0.0,3.0,3.0,0.0,6.0,6.0,406.599290000031,5.0,0.0,part_2,go,450.0,500.0,1.0,,,,,,,,,yellow,I
0.0,3.0,3.0,0.0,5.0,5.0,774.3047099997966,5.0,0.0,part_2,go,450.0,500.0,1.0,,,,,,,,,yellow,I
0.0,5.0,1.0,1.0,5.0,5.0,445.2928129999236,5.0,0.0,part_2,stop,450.0,500.0,3.0,,,,,,,,,blue,hexagon
0.0,2.0,2.0,0.0,6.0,6.0,482.9165890000695,5.0,0.0,part_2,go,400.0,500.0,1.0,,,,,,,,,white,circle
0.0,7.0,3.0,1.0,5.0,5.0,567.5504959999671,5.0,0.0,part_2,go,400.0,500.0,1.0,,,,,,,,,cyan,diamond
0.0,3.0,3.0,0.0,5.0,5.0,482.4052419999134,5.0,0.0,part_2,go,400.0,500.0,1.0,,,,,,,,,yellow,I
0.0,2.0,2.0,0.0,6.0,6.0,434.5571639996706,5.0,0.0,part_2,go,400.0,500.0,1.0,,,,,,,,,white,circle
0.0,7.0,3.0,1.0,5.0,5.0,509.84415400034777,5.0,0.0,part_2,stop,400.0,500.0,3.0,,,,,,,,,cyan,diamond
0.0,2.0,2.0,0.0,5.0,5.0,593.6521130001893,5.0,0.0,part_2,go,350.0,500.0,1.0,,,,,,,,,white,circle
0.0,4.0,4.0,0.0,5.0,5.0,499.1242589999274,5.0,0.0,part_2,go,350.0,500.0,1.0,,,,,,,,,green,cross
0.0,4.0,4.0,0.0,6.0,6.0,603.8275269997939,6.0,0.0,part_2,go,350.0,500.0,1.0,,,,,,,,,green,cross
0.0,1.0,1.0,0.0,5.0,5.0,849.4135839996488,6.0,0.0,part_2,go,350.0,500.0,1.0,,,,,,,,,gray,triangle
0.0,4.0,4.0,0.0,6.0,6.0,434.1140579999774,6.0,0.0,part_2,go,350.0,500.0,1.0,,,,,,,,,green,cross
0.0,6.0,2.0,1.0,5.0,5.0,358.2789449997108,6.0,0.0,part_2,go,350.0,500.0,1.0,,,,,,,,,magenta,square
0.0,4.0,4.0,0.0,6.0,6.0,398.331257999871,6.0,0.0,part_2,go,350.0,500.0,1.0,,,,,,,,,green,cross
0.0,1.0,1.0,0.0,6.0,6.0,389.4199769997613,6.0,0.0,part_2,go,350.0,500.0,1.0,,,,,,,,,gray,triangle
0.0,3.0,3.0,0.0,5.0,5.0,396.0200480000821,6.0,0.0,part_2,go,350.0,500.0,1.0,,,,,,,,,yellow,I
0.0,6.0,2.0,1.0,5.0,5.0,439.2043299999386,6.0,0.0,part_2,stop,350.0,500.0,3.0,,,,,,,,,magenta,square
0.0,1.0,1.0,0.0,5.0,5.0,717.7021269999386,6.0,0.0,part_2,go,300.0,500.0,1.0,,,,,,,,,gray,triangle
0.0,7.0,3.0,1.0,6.0,6.0,357.5682109999434,6.0,0.0,part_2,stop,300.0,500.0,3.0,,,,,,,,,cyan,diamond
0.0,5.0,1.0,1.0,6.0,6.0,436.0444379999535,6.0,0.0,part_2,go,300.0,450.0,1.0,,,,,,,,,blue,hexagon
0.0,8.0,4.0,1.0,5.0,5.0,409.5829309999317,6.0,0.0,part_2,stop,300.0,450.0,3.0,,,,,,,,,orange,flipped triangle
0.0,4.0,4.0,0.0,5.0,5.0,991.9493690003948,6.0,0.0,part_2,go,250.0,450.0,1.0,,,,,,,,,green,cross
0.0,4.0,4.0,0.0,5.0,5.0,492.9494850002811,6.0,0.0,part_2,go,250.0,450.0,1.0,,,,,,,,,green,cross
0.0,2.0,2.0,0.0,6.0,6.0,557.1376269999746,6.0,0.0,part_2,go,250.0,450.0,1.0,,,,,,,,,white,circle
0.0,7.0,3.0,1.0,6.0,6.0,434.1201870001896,6.0,0.0,part_2,go,250.0,450.0,1.0,,,,,,,,,cyan,diamond
0.0,3.0,3.0,0.0,6.0,6.0,340.1311879997593,6.0,0.0,part_2,go,250.0,450.0,1.0,,,,,,,,,yellow,I
0.0,7.0,3.0,1.0,6.0,6.0,424.6187730000201,6.0,0.0,part_2,stop,250.0,450.0,3.0,,,,,,,,,cyan,diamond
0.0,1.0,1.0,0.0,6.0,6.0,772.1540130000903,6.0,0.0,part_2,go,250.0,400.0,1.0,,,,,,,,,gray,triangle
0.0,5.0,1.0,1.0,5.0,0.0,0.0,6.0,0.0,part_2,stop,250.0,400.0,4.0,,,,,,,,,blue,hexagon
0.0,4.0,4.0,0.0,6.0,6.0,916.1521070000164,6.0,0.0,part_2,go,300.0,400.0,1.0,,,,,,,,,green,cross
0.0,8.0,4.0,1.0,5.0,0.0,0.0,6.0,0.0,part_2,stop,300.0,400.0,4.0,,,,,,,,,orange,flipped triangle
0.0,8.0,4.0,1.0,5.0,0.0,0.0,6.0,0.0,part_2,stop,350.0,400.0,4.0,,,,,,,,,orange,flipped triangle
0.0,1.0,1.0,0.0,5.0,5.0,943.4985389998474,6.0,0.0,part_2,go,400.0,400.0,1.0,,,,,,,,,gray,triangle
0.0,7.0,3.0,1.0,6.0,6.0,524.0712949998851,6.0,0.0,part_2,stop,400.0,400.0,3.0,,,,,,,,,cyan,diamond
0.0,7.0,3.0,1.0,6.0,0.0,0.0,6.0,0.0,part_2,stop,400.0,350.0,4.0,,,,,,,,,cyan,diamond
0.0,6.0,2.0,1.0,6.0,5.0,1149.1476119999788,6.0,0.0,part_2,go,400.0,400.0,2.0,,,,,,,,,magenta,square
0.0,3.0,3.0,0.0,5.0,5.0,831.6326860003755,6.0,0.0,part_2,go,400.0,400.0,1.0,,,,,,,,,yellow,I
0.0,3.0,3.0,0.0,6.0,6.0,642.4002359999577,6.0,0.0,part_2,go,400.0,400.0,1.0,,,,,,,,,yellow,I
0.0,3.0,3.0,0.0,5.0,5.0,518.881144000261,6.0,0.0,part_2,go,400.0,400.0,1.0,,,,,,,,,yellow,I
0.0,1.0,1.0,0.0,6.0,6.0,399.2137029999867,6.0,0.0,part_2,go,400.0,400.0,1.0,,,,,,,,,gray,triangle
0.0,8.0,4.0,1.0,6.0,0.0,0.0,6.0,0.0,part_2,stop,400.0,400.0,4.0,,,,,,,,,orange,flipped triangle
0.0,8.0,4.0,1.0,6.0,0.0,0.0,6.0,0.0,part_2,stop,400.0,450.0,4.0,,,,,,,,,orange,flipped triangle
0.0,6.0,2.0,1.0,6.0,0.0,0.0,6.0,0.0,part_2,stop,400.0,500.0,4.0,,,,,,,,,magenta,square
0.0,6.0,2.0,1.0,6.0,6.0,1310.7400930002768,6.0,0.0,part_2,go,400.0,550.0,1.0,,,,,,,,,magenta,square
0.0,6.0,2.0,1.0,5.0,0.0,0.0,6.0,0.0,part_2,stop,400.0,550.0,4.0,,,,,,,,,magenta,square
0.0,7.0,3.0,1.0,5.0,5.0,1024.8452469995757,7.0,0.0,part_2,stop,450.0,550.0,3.0,,,,,,,,,cyan,diamond
0.0,2.0,2.0,0.0,6.0,6.0,621.8557110005349,7.0,0.0,part_2,go,400.0,550.0,1.0,,,,,,,,,white,circle
0.0,3.0,3.0,0.0,5.0,5.0,699.5756079995772,7.0,0.0,part_2,go,400.0,550.0,1.0,,,,,,,,,yellow,I
0.0,8.0,4.0,1.0,6.0,6.0,517.5712619993647,7.0,0.0,part_2,stop,400.0,550.0,3.0,,,,,,,,,orange,flipped triangle
0.0,5.0,1.0,1.0,5.0,5.0,998.9057389993832,7.0,0.0,part_2,go,400.0,500.0,1.0,,,,,,,,,blue,hexagon
0.0,3.0,3.0,0.0,5.0,5.0,623.7314070003777,7.0,0.0,part_2,go,400.0,500.0,1.0,,,,,,,,,yellow,I
0.0,3.0,3.0,0.0,6.0,6.0,858.9315119997991,7.0,0.0,part_2,go,400.0,500.0,1.0,,,,,,,,,yellow,I
0.0,4.0,4.0,0.0,5.0,5.0,963.7698609994914,7.0,0.0,part_2,go,400.0,500.0,1.0,,,,,,,,,green,cross
0.0,6.0,2.0,1.0,5.0,0.0,0.0,7.0,0.0,part_2,stop,400.0,500.0,4.0,,,,,,,,,magenta,square
0.0,5.0,1.0,1.0,6.0,0.0,0.0,7.0,0.0,part_2,stop,450.0,500.0,4.0,,,,,,,,,blue,hexagon
0.0,1.0,1.0,0.0,5.0,5.0,802.1757729993624,7.0,0.0,part_2,go,450.0,550.0,1.0,,,,,,,,,gray,triangle
0.0,5.0,1.0,1.0,5.0,0.0,0.0,7.0,0.0,part_2,stop,450.0,550.0,4.0,,,,,,,,,blue,hexagon
0.0,3.0,3.0,0.0,5.0,5.0,991.7949159998898,7.0,0.0,part_2,go,500.0,550.0,1.0,,,,,,,,,yellow,I
0.0,7.0,3.0,1.0,5.0,5.0,711.4409450005041,7.0,0.0,part_2,stop,500.0,550.0,3.0,,,,,,,,,cyan,diamond
0.0,7.0,3.0,1.0,6.0,0.0,0.0,7.0,0.0,part_2,stop,450.0,550.0,4.0,,,,,,,,,cyan,diamond
0.0,1.0,1.0,0.0,5.0,5.0,782.0915809998041,7.0,0.0,part_2,go,450.0,600.0,1.0,,,,,,,,,gray,triangle
0.0,1.0,1.0,0.0,5.0,5.0,754.1171590000886,7.0,0.0,part_2,go,450.0,600.0,1.0,,,,,,,,,gray,triangle
0.0,4.0,4.0,0.0,6.0,6.0,830.9687099999792,7.0,0.0,part_2,go,450.0,600.0,1.0,,,,,,,,,green,cross
0.0,6.0,2.0,1.0,5.0,0.0,0.0,7.0,0.0,part_2,stop,450.0,600.0,4.0,,,,,,,,,magenta,square
0.0,3.0,3.0,0.0,6.0,6.0,651.0197469997365,7.0,0.0,part_2,go,500.0,600.0,1.0,,,,,,,,,yellow,I
0.0,8.0,4.0,1.0,6.0,0.0,0.0,7.0,0.0,part_2,stop,500.0,600.0,4.0,,,,,,,,,orange,flipped triangle
0.0,3.0,3.0,0.0,6.0,6.0,603.1771690004462,7.0,0.0,part_2,go,500.0,650.0,1.0,,,,,,,,,yellow,I
0.0,3.0,3.0,0.0,6.0,6.0,452.7685419998306,7.0,0.0,part_2,go,500.0,650.0,1.0,,,,,,,,,yellow,I
0.0,5.0,1.0,1.0,6.0,6.0,444.2855289998988,7.0,0.0,part_2,stop,500.0,650.0,3.0,,,,,,,,,blue,hexagon
0.0,2.0,2.0,0.0,6.0,6.0,641.7282700003852,7.0,0.0,part_2,go,500.0,600.0,1.0,,,,,,,,,white,circle
0.0,5.0,1.0,1.0,5.0,0.0,0.0,7.0,0.0,part_2,stop,500.0,600.0,4.0,,,,,,,,,blue,hexagon
0.0,7.0,3.0,1.0,5.0,0.0,0.0,7.0,0.0,part_2,stop,550.0,600.0,4.0,,,,,,,,,cyan,diamond
0.0,3.0,3.0,0.0,5.0,0.0,0.0,7.0,0.0,part_2,go,600.0,600.0,5.0,,,,,,,,,yellow,I
0.0,6.0,2.0,1.0,6.0,6.0,793.1630339999174,7.0,0.0,part_2,go,600.0,600.0,1.0,,,,,,,,,magenta,square
0.0,1.0,1.0,0.0,6.0,6.0,574.8688119992948,7.0,0.0,part_2,go,600.0,600.0,1.0,,,,,,,,,gray,triangle
0.0,2.0,2.0,0.0,5.0,5.0,756.6147830002592,7.0,0.0,part_2,go,600.0,600.0,1.0,,,,,,,,,white,circle
0.0,3.0,3.0,0.0,6.0,6.0,379.58989299932,7.0,0.0,part_2,go,600.0,600.0,1.0,,,,,,,,,yellow,I
0.0,2.0,2.0,0.0,6.0,6.0,388.93173299948097,7.0,0.0,part_2,go,600.0,600.0,1.0,,,,,,,,,white,circle
0.0,5.0,1.0,1.0,5.0,5.0,714.6597549999569,7.0,0.0,part_2,stop,600.0,600.0,3.0,,,,,,,,,blue,hexagon
0.0,4.0,4.0,0.0,6.0,6.0,387.3598600002879,7.0,0.0,part_2,go,550.0,600.0,1.0,,,,,,,,,green,cross
0.0,4.0,4.0,0.0,5.0,5.0,585.3802129995529,7.0,0.0,part_2,go,550.0,600.0,1.0,,,,,,,,,green,cross
0.0,1.0,1.0,0.0,6.0,6.0,762.6832229998399,8.0,0.0,part_2,go,550.0,600.0,1.0,,,,,,,,,gray,triangle
0.0,7.0,3.0,1.0,5.0,5.0,600.4542139999103,8.0,0.0,part_2,stop,550.0,600.0,3.0,,,,,,,,,cyan,diamond
0.0,5.0,1.0,1.0,5.0,0.0,0.0,8.0,0.0,part_2,stop,500.0,600.0,4.0,,,,,,,,,blue,hexagon
0.0,6.0,2.0,1.0,5.0,5.0,736.6521100002501,8.0,0.0,part_2,stop,550.0,600.0,3.0,,,,,,,,,magenta,square
0.0,5.0,1.0,1.0,6.0,6.0,407.1305870002106,8.0,0.0,part_2,go,500.0,600.0,1.0,,,,,,,,,blue,hexagon
0.0,1.0,1.0,0.0,5.0,5.0,504.63617800051,8.0,0.0,part_2,go,500.0,600.0,1.0,,,,,,,,,gray,triangle
0.0,8.0,4.0,1.0,6.0,6.0,369.15375700027647,8.0,0.0,part_2,stop,500.0,600.0,3.0,,,,,,,,,orange,flipped triangle
0.0,4.0,4.0,0.0,6.0,6.0,679.2354919998616,8.0,0.0,part_2,go,500.0,550.0,1.0,,,,,,,,,green,cross
0.0,5.0,1.0,1.0,6.0,6.0,461.6246289997434,8.0,0.0,part_2,stop,500.0,550.0,3.0,,,,,,,,,blue,hexagon
0.0,8.0,4.0,1.0,6.0,6.0,935.1569990003554,8.0,0.0,part_2,go,500.0,500.0,1.0,,,,,,,,,orange,flipped triangle
0.0,2.0,2.0,0.0,6.0,6.0,443.8629850001234,8.0,0.0,part_2,go,500.0,500.0,1.0,,,,,,,,,white,circle
0.0,3.0,3.0,0.0,5.0,5.0,434.6919180006807,8.0,0.0,part_2,go,500.0,500.0,1.0,,,,,,,,,yellow,I
0.0,7.0,3.0,1.0,5.0,5.0,474.5696740001222,8.0,0.0,part_2,stop,500.0,500.0,3.0,,,,,,,,,cyan,diamond
0.0,1.0,1.0,0.0,5.0,5.0,549.8618870005885,8.0,0.0,part_2,go,450.0,500.0,1.0,,,,,,,,,gray,triangle
0.0,6.0,2.0,1.0,5.0,0.0,0.0,8.0,0.0,part_2,stop,450.0,500.0,4.0,,,,,,,,,magenta,square
0.0,5.0,1.0,1.0,6.0,6.0,456.0195209996891,8.0,0.0,part_2,stop,500.0,500.0,3.0,,,,,,,,,blue,hexagon
0.0,8.0,4.0,1.0,6.0,6.0,435.3978339995592,8.0,0.0,part_2,stop,500.0,450.0,3.0,,,,,,,,,orange,flipped triangle
0.0,4.0,4.0,0.0,6.0,6.0,888.9554840006895,8.0,0.0,part_2,go,500.0,400.0,1.0,,,,,,,,,green,cross
0.0,2.0,2.0,0.0,5.0,5.0,738.4302300006311,8.0,0.0,part_2,go,500.0,400.0,1.0,,,,,,,,,white,circle
0.0,6.0,2.0,1.0,6.0,6.0,331.3787629995204,8.0,0.0,part_2,stop,500.0,400.0,3.0,,,,,,,,,magenta,square
0.0,5.0,1.0,1.0,6.0,0.0,0.0,8.0,0.0,part_2,stop,500.0,350.0,4.0,,,,,,,,,blue,hexagon
0.0,3.0,3.0,0.0,6.0,6.0,558.7873760005095,8.0,0.0,part_2,go,500.0,400.0,1.0,,,,,,,,,yellow,I
0.0,7.0,3.0,1.0,6.0,6.0,813.3478660001856,8.0,0.0,part_2,go,500.0,400.0,1.0,,,,,,,,,cyan,diamond
0.0,4.0,4.0,0.0,5.0,5.0,775.3823329994702,8.0,0.0,part_2,go,500.0,400.0,1.0,,,,,,,,,green,cross
0.0,4.0,4.0,0.0,6.0,6.0,464.2694119993393,8.0,0.0,part_2,go,500.0,400.0,1.0,,,,,,,,,green,cross
0.0,5.0,1.0,1.0,6.0,6.0,359.3996669997068,8.0,0.0,part_2,go,500.0,400.0,1.0,,,,,,,,,blue,hexagon
0.0,8.0,4.0,1.0,5.0,5.0,463.0140300005223,8.0,0.0,part_2,stop,500.0,400.0,3.0,,,,,,,,,orange,flipped triangle
0.0,5.0,1.0,1.0,5.0,0.0,0.0,8.0,0.0,part_2,stop,450.0,400.0,4.0,,,,,,,,,blue,hexagon
0.0,8.0,4.0,1.0,6.0,0.0,0.0,8.0,0.0,part_2,stop,500.0,400.0,4.0,,,,,,,,,orange,flipped triangle
0.0,1.0,1.0,0.0,6.0,6.0,850.3211300003386,8.0,0.0,part_2,go,500.0,450.0,1.0,,,,,,,,,gray,triangle
0.0,8.0,4.0,1.0,6.0,0.0,0.0,8.0,0.0,part_2,stop,500.0,450.0,4.0,,,,,,,,,orange,flipped triangle
0.0,2.0,2.0,0.0,6.0,6.0,870.6007869996029,8.0,0.0,part_2,go,500.0,500.0,1.0,,,,,,,,,white,circle
0.0,6.0,2.0,1.0,5.0,5.0,463.1424059998608,8.0,0.0,part_2,stop,500.0,500.0,3.0,,,,,,,,,magenta,square
0.0,1.0,1.0,0.0,6.0,6.0,415.5939029997171,8.0,0.0,part_2,go,450.0,500.0,1.0,,,,,,,,,gray,triangle
0.0,2.0,2.0,0.0,5.0,5.0,872.6557350000803,8.0,0.0,part_2,go,450.0,500.0,1.0,,,,,,,,,white,circle
0.0,6.0,2.0,1.0,6.0,6.0,544.3562169994038,8.0,0.0,part_2,stop,450.0,500.0,3.0,,,,,,,,,magenta,square
0.0,6.0,2.0,1.0,7.0,4.0,4651.732473000266,1.0,1.0,part_3,go,0.0,0.0,0.0,770.0,5.0,462.0,154.0,308.0,770.0,924.0,616.0,magenta,square
0.0,6.0,2.0,1.0,7.0,5.0,4220.546891000595,1.0,1.0,part_3,go,0.0,0.0,0.0,810.0,6.0,270.0,675.0,135.0,540.0,810.0,405.0,magenta,square
0.0,8.0,4.0,1.0,7.0,3.0,3746.8217269997695,1.0,1.0,part_3,go,0.0,0.0,0.0,768.0,4.0,1152.0,192.0,768.0,384.0,576.0,960.0,orange,flipped triangle
0.0,2.0,2.0,0.0,7.0,6.0,2062.304939000569,1.0,1.0,part_3,go,0.0,0.0,0.0,580.0,5.0,696.0,116.0,232.0,348.0,464.0,580.0,white,circle
0.0,3.0,3.0,0.0,7.0,5.0,2586.8318880002334,1.0,1.0,part_3,go,0.0,0.0,0.0,232.0,2.0,580.0,464.0,696.0,116.0,232.0,348.0,yellow,I
0.0,2.0,2.0,0.0,7.0,5.0,4086.789037000017,1.0,1.0,part_3,go,0.0,0.0,0.0,580.0,5.0,464.0,232.0,348.0,116.0,580.0,696.0,white,circle
0.0,3.0,3.0,0.0,7.0,5.0,498.1052960001761,1.0,2.0,part_3,go,0.0,0.0,0.0,810.0,6.0,135.0,675.0,540.0,405.0,810.0,270.0,yellow,I
0.0,7.0,3.0,1.0,7.0,2.0,3074.882824999804,1.0,1.0,part_3,go,0.0,0.0,0.0,464.0,4.0,348.0,464.0,580.0,232.0,696.0,116.0,cyan,diamond
0.0,3.0,3.0,0.0,7.0,2.0,4407.255539999824,1.0,1.0,part_3,go,0.0,0.0,0.0,308.0,2.0,616.0,308.0,924.0,770.0,154.0,462.0,yellow,I
0.0,7.0,3.0,1.0,7.0,3.0,422.112897000261,1.0,2.0,part_3,go,0.0,0.0,0.0,770.0,5.0,924.0,616.0,770.0,154.0,308.0,462.0,cyan,diamond
0.0,4.0,4.0,0.0,7.0,5.0,4554.383760999372,1.0,1.0,part_3,go,0.0,0.0,0.0,768.0,4.0,384.0,960.0,576.0,1152.0,768.0,192.0,green,cross
0.0,8.0,4.0,1.0,7.0,1.0,3041.732059000424,1.0,1.0,part_3,go,0.0,0.0,0.0,154.0,1.0,154.0,616.0,770.0,308.0,462.0,924.0,orange,flipped triangle
0.0,7.0,3.0,1.0,7.0,6.0,3552.7195229997233,1.0,1.0,part_3,go,0.0,0.0,0.0,348.0,3.0,696.0,232.0,116.0,580.0,464.0,348.0,cyan,diamond
0.0,4.0,4.0,0.0,7.0,4.0,4278.294895999352,1.0,1.0,part_3,go,0.0,0.0,0.0,405.0,3.0,135.0,810.0,270.0,405.0,675.0,540.0,green,cross
0.0,3.0,3.0,0.0,7.0,1.0,2923.608792999403,1.0,1.0,part_3,go,0.0,0.0,0.0,810.0,6.0,810.0,540.0,675.0,270.0,135.0,405.0,yellow,I
0.0,6.0,2.0,1.0,7.0,1.0,375.2184840004702,1.0,2.0,part_3,go,0.0,0.0,0.0,173.0,1.0,173.0,346.0,865.0,1038.0,519.0,692.0,magenta,square
0.0,7.0,3.0,1.0,7.0,2.0,2229.9816190006823,1.0,1.0,part_3,go,0.0,0.0,0.0,405.0,3.0,540.0,405.0,675.0,270.0,135.0,810.0,cyan,diamond
0.0,4.0,4.0,0.0,7.0,6.0,3692.214614000477,1.0,1.0,part_3,go,0.0,0.0,0.0,519.0,3.0,865.0,173.0,1038.0,346.0,692.0,519.0,green,cross
0.0,2.0,2.0,0.0,7.0,5.0,4453.706233999583,1.0,1.0,part_3,go,0.0,0.0,0.0,865.0,5.0,173.0,692.0,1038.0,519.0,865.0,346.0,white,circle
0.0,3.0,3.0,0.0,7.0,3.0,3710.109715999351,1.0,1.0,part_3,go,0.0,0.0,0.0,346.0,2.0,519.0,1038.0,346.0,692.0,865.0,173.0,yellow,I
0.0,8.0,4.0,1.0,7.0,5.0,3952.367148999656,2.0,1.0,part_3,go,0.0,0.0,0.0,405.0,3.0,135.0,540.0,675.0,270.0,405.0,810.0,orange,flipped triangle
0.0,2.0,2.0,0.0,7.0,5.0,2617.4922909995075,2.0,1.0,part_3,go,0.0,0.0,0.0,173.0,1.0,865.0,1038.0,346.0,692.0,173.0,519.0,white,circle
0.0,4.0,4.0,0.0,7.0,4.0,1041.5936559993495,2.0,2.0,part_3,go,0.0,0.0,0.0,192.0,1.0,768.0,1152.0,576.0,192.0,960.0,384.0,green,cross
0.0,4.0,4.0,0.0,7.0,5.0,2219.013294999968,2.0,1.0,part_3,go,0.0,0.0,0.0,462.0,3.0,616.0,770.0,924.0,308.0,462.0,154.0,green,cross
0.0,6.0,2.0,1.0,7.0,3.0,4675.844260999838,2.0,1.0,part_3,go,0.0,0.0,0.0,770.0,5.0,616.0,924.0,770.0,462.0,308.0,154.0,magenta,square
0.0,8.0,4.0,1.0,7.0,2.0,2362.447367000641,2.0,1.0,part_3,go,0.0,0.0,0.0,348.0,3.0,116.0,348.0,696.0,580.0,232.0,464.0,orange,flipped triangle
0.0,7.0,3.0,1.0,7.0,3.0,2509.261766000236,2.0,1.0,part_3,go,0.0,0.0,0.0,270.0,2.0,810.0,135.0,270.0,405.0,675.0,540.0,cyan,diamond
0.0,8.0,4.0,1.0,7.0,2.0,2867.2151629998552,2.0,1.0,part_3,go,0.0,0.0,0.0,308.0,2.0,154.0,308.0,616.0,462.0,924.0,770.0,orange,flipped triangle
0.0,5.0,1.0,1.0,7.0,5.0,1806.0210590001589,2.0,1.0,part_3,go,0.0,0.0,0.0,384.0,2.0,768.0,576.0,192.0,960.0,384.0,1152.0,blue,hexagon
0.0,1.0,1.0,0.0,7.0,4.0,2577.3831679998693,2.0,1.0,part_3,go,0.0,0.0,0.0,810.0,6.0,270.0,405.0,675.0,810.0,540.0,135.0,gray,triangle
0.0,1.0,1.0,0.0,7.0,4.0,3655.1658859998497,2.0,1.0,part_3,go,0.0,0.0,0.0,580.0,5.0,232.0,464.0,348.0,580.0,696.0,116.0,gray,triangle
0.0,6.0,2.0,1.0,7.0,5.0,2732.1929380004804,2.0,1.0,part_3,go,0.0,0.0,0.0,348.0,3.0,116.0,580.0,696.0,232.0,348.0,464.0,magenta,square
0.0,2.0,2.0,0.0,7.0,2.0,2902.7986709998004,2.0,1.0,part_3,go,0.0,0.0,0.0,1152.0,6.0,576.0,1152.0,960.0,768.0,384.0,192.0,white,circle
0.0,6.0,2.0,1.0,7.0,5.0,2202.8362949995426,2.0,1.0,part_3,go,0.0,0.0,0.0,348.0,3.0,580.0,232.0,116.0,696.0,348.0,464.0,magenta,square
0.0,6.0,2.0,1.0,7.0,5.0,2230.051179999464,2.0,1.0,part_3,go,0.0,0.0,0.0,384.0,2.0,1152.0,768.0,576.0,192.0,384.0,960.0,magenta,square
0.0,3.0,3.0,0.0,7.0,5.0,2877.3294080001506,2.0,1.0,part_3,go,0.0,0.0,0.0,348.0,3.0,232.0,116.0,464.0,696.0,348.0,580.0,yellow,I
0.0,7.0,3.0,1.0,7.0,2.0,2959.474390999276,2.0,1.0,part_3,go,0.0,0.0,0.0,519.0,3.0,692.0,519.0,1038.0,346.0,865.0,173.0,cyan,diamond
0.0,3.0,3.0,0.0,7.0,3.0,2942.5649810000323,2.0,1.0,part_3,go,0.0,0.0,0.0,173.0,1.0,692.0,865.0,173.0,1038.0,346.0,519.0,yellow,I
0.0,7.0,3.0,1.0,7.0,5.0,2640.6592250004906,2.0,1.0,part_3,go,0.0,0.0,0.0,770.0,5.0,154.0,924.0,616.0,308.0,770.0,462.0,cyan,diamond
0.0,3.0,3.0,0.0,7.0,4.0,2030.1595519995317,2.0,1.0,part_3,go,0.0,0.0,0.0,308.0,2.0,154.0,462.0,924.0,308.0,616.0,770.0,yellow,I
0.0,8.0,4.0,1.0,7.0,5.0,2075.4393429997435,3.0,1.0,part_3,go,0.0,0.0,0.0,810.0,6.0,675.0,270.0,540.0,405.0,810.0,135.0,orange,flipped triangle
0.0,3.0,3.0,0.0,7.0,3.0,2853.872665000381,3.0,1.0,part_3,go,0.0,0.0,0.0,1152.0,6.0,960.0,576.0,1152.0,192.0,768.0,384.0,yellow,I
0.0,1.0,1.0,0.0,7.0,2.0,2656.331928000327,3.0,1.0,part_3,go,0.0,0.0,0.0,519.0,3.0,173.0,519.0,1038.0,346.0,865.0,692.0,gray,triangle
0.0,1.0,1.0,0.0,7.0,2.0,2329.2078320000655,3.0,1.0,part_3,go,0.0,0.0,0.0,770.0,5.0,308.0,770.0,154.0,616.0,924.0,462.0,gray,triangle
0.0,2.0,2.0,0.0,7.0,3.0,1715.1630969992766,3.0,1.0,part_3,go,0.0,0.0,0.0,770.0,5.0,308.0,154.0,770.0,462.0,616.0,924.0,white,circle
0.0,4.0,4.0,0.0,7.0,3.0,3125.338988999829,3.0,1.0,part_3,go,0.0,0.0,0.0,308.0,2.0,770.0,924.0,308.0,616.0,462.0,154.0,green,cross
0.0,1.0,1.0,0.0,7.0,4.0,2116.240757000014,3.0,1.0,part_3,go,0.0,0.0,0.0,770.0,5.0,924.0,462.0,616.0,770.0,154.0,308.0,gray,triangle
0.0,1.0,1.0,0.0,7.0,2.0,1443.9687559997765,3.0,1.0,part_3,go,0.0,0.0,0.0,519.0,3.0,692.0,519.0,1038.0,865.0,346.0,173.0,gray,triangle
0.0,1.0,1.0,0.0,7.0,4.0,2681.603350999467,3.0,1.0,part_3,go,0.0,0.0,0.0,810.0,6.0,405.0,135.0,270.0,810.0,540.0,675.0,gray,triangle
0.0,8.0,4.0,1.0,7.0,1.0,1969.7952839997015,3.0,1.0,part_3,go,0.0,0.0,0.0,173.0,1.0,173.0,865.0,1038.0,692.0,346.0,519.0,orange,flipped triangle
0.0,7.0,3.0,1.0,7.0,5.0,3194.7439189998477,3.0,1.0,part_3,go,0.0,0.0,0.0,173.0,1.0,692.0,865.0,1038.0,346.0,173.0,519.0,cyan,diamond
0.0,4.0,4.0,0.0,7.0,3.0,3291.567940999812,3.0,1.0,part_3,go,0.0,0.0,0.0,540.0,4.0,810.0,405.0,540.0,135.0,675.0,270.0,green,cross
0.0,5.0,1.0,1.0,7.0,3.0,1790.3350429996865,3.0,1.0,part_3,go,0.0,0.0,0.0,308.0,2.0,462.0,616.0,308.0,924.0,154.0,770.0,blue,hexagon
0.0,5.0,1.0,1.0,7.0,5.0,2926.708439000322,3.0,1.0,part_3,go,0.0,0.0,0.0,308.0,2.0,924.0,770.0,462.0,616.0,308.0,154.0,blue,hexagon
0.0,2.0,2.0,0.0,7.0,2.0,2170.7558699999936,3.0,1.0,part_3,go,0.0,0.0,0.0,770.0,5.0,616.0,770.0,308.0,154.0,462.0,924.0,white,circle
0.0,2.0,2.0,0.0,7.0,4.0,3070.9982389998913,3.0,1.0,part_3,go,0.0,0.0,0.0,960.0,5.0,384.0,192.0,1152.0,960.0,576.0,768.0,white,circle
0.0,1.0,1.0,0.0,7.0,1.0,2715.26738799912,3.0,1.0,part_3,go,0.0,0.0,0.0,960.0,5.0,960.0,1152.0,192.0,576.0,384.0,768.0,gray,triangle
0.0,8.0,4.0,1.0,7.0,2.0,1863.447511000231,3.0,1.0,part_3,go,0.0,0.0,0.0,519.0,3.0,692.0,519.0,1038.0,865.0,346.0,173.0,orange,flipped triangle
0.0,5.0,1.0,1.0,7.0,2.0,1342.1348920001035,3.0,1.0,part_3,go,0.0,0.0,0.0,519.0,3.0,692.0,519.0,865.0,1038.0,346.0,173.0,blue,hexagon
0.0,8.0,4.0,1.0,7.0,5.0,2285.3174980000404,3.0,1.0,part_3,go,0.0,0.0,0.0,960.0,5.0,576.0,192.0,1152.0,768.0,960.0,384.0,orange,flipped triangle
0.0,1.0,1.0,0.0,7.0,2.0,1192.299300000741,4.0,1.0,part_3,go,0.0,0.0,0.0,960.0,5.0,768.0,960.0,384.0,576.0,192.0,1152.0,gray,triangle
0.0,6.0,2.0,1.0,7.0,5.0,1693.5555870004464,4.0,1.0,part_3,go,0.0,0.0,0.0,519.0,3.0,865.0,173.0,692.0,1038.0,519.0,346.0,magenta,square
0.0,5.0,1.0,1.0,7.0,1.0,2921.825078999973,4.0,1.0,part_3,go,0.0,0.0,0.0,384.0,2.0,384.0,576.0,768.0,960.0,1152.0,192.0,blue,hexagon
0.0,6.0,2.0,1.0,7.0,2.0,2825.400477000585,4.0,1.0,part_3,go,0.0,0.0,0.0,576.0,3.0,768.0,576.0,192.0,384.0,1152.0,960.0,magenta,square
0.0,8.0,4.0,1.0,7.0,5.0,2043.2818850003969,4.0,1.0,part_3,go,0.0,0.0,0.0,348.0,3.0,464.0,696.0,580.0,116.0,348.0,232.0,orange,flipped triangle
0.0,5.0,1.0,1.0,7.0,2.0,1095.4887830002915,4.0,1.0,part_3,go,0.0,0.0,0.0,810.0,6.0,405.0,810.0,270.0,135.0,675.0,540.0,blue,hexagon
0.0,1.0,1.0,0.0,7.0,2.0,1658.633498999734,4.0,1.0,part_3,go,0.0,0.0,0.0,348.0,3.0,464.0,348.0,580.0,696.0,232.0,116.0,gray,triangle
0.0,2.0,2.0,0.0,7.0,5.0,3031.39544700025,4.0,1.0,part_3,go,0.0,0.0,0.0,810.0,6.0,675.0,270.0,135.0,405.0,810.0,540.0,white,circle
0.0,2.0,2.0,0.0,7.0,5.0,1402.2428120006225,4.0,1.0,part_3,go,0.0,0.0,0.0,540.0,4.0,810.0,405.0,675.0,135.0,540.0,270.0,white,circle
0.0,5.0,1.0,1.0,7.0,1.0,3720.50134500023,4.0,1.0,part_3,go,0.0,0.0,0.0,519.0,3.0,519.0,346.0,692.0,865.0,173.0,1038.0,blue,hexagon
0.0,4.0,4.0,0.0,7.0,5.0,3960.486783999841,4.0,1.0,part_3,go,0.0,0.0,0.0,116.0,1.0,580.0,696.0,232.0,464.0,116.0,348.0,green,cross
0.0,5.0,1.0,1.0,7.0,5.0,3146.129560999725,4.0,1.0,part_3,go,0.0,0.0,0.0,810.0,6.0,135.0,270.0,540.0,675.0,810.0,405.0,blue,hexagon
0.0,7.0,3.0,1.0,7.0,2.0,928.356034999524,4.0,1.0,part_3,go,0.0,0.0,0.0,768.0,4.0,384.0,768.0,192.0,576.0,1152.0,960.0,cyan,diamond
0.0,5.0,1.0,1.0,7.0,5.0,3679.299247999552,4.0,1.0,part_3,go,0.0,0.0,0.0,580.0,5.0,464.0,696.0,232.0,348.0,580.0,116.0,blue,hexagon
0.0,4.0,4.0,0.0,7.0,4.0,2115.022061999298,4.0,1.0,part_3,go,0.0,0.0,0.0,116.0,1.0,580.0,464.0,348.0,116.0,232.0,696.0,green,cross
0.0,6.0,2.0,1.0,7.0,3.0,1247.004197000024,4.0,1.0,part_3,go,0.0,0.0,0.0,810.0,6.0,135.0,270.0,810.0,405.0,675.0,540.0,magenta,square
0.0,4.0,4.0,0.0,7.0,2.0,1050.2514800000426,4.0,1.0,part_3,go,0.0,0.0,0.0,173.0,1.0,1038.0,173.0,519.0,346.0,692.0,865.0,green,cross
0.0,3.0,3.0,0.0,7.0,6.0,1277.133218999552,4.0,1.0,part_3,go,0.0,0.0,0.0,768.0,4.0,192.0,576.0,960.0,384.0,1152.0,768.0,yellow,I
0.0,5.0,1.0,1.0,7.0,5.0,1566.612583999813,4.0,1.0,part_3,go,0.0,0.0,0.0,232.0,2.0,116.0,696.0,580.0,348.0,232.0,464.0,blue,hexagon
0.0,7.0,3.0,1.0,7.0,2.0,571.4990639999087,4.0,1.0,part_3,go,0.0,0.0,0.0,1152.0,6.0,960.0,1152.0,576.0,192.0,768.0,384.0,cyan,diamond
