raw_reward_magnitude,stim_reward,stepwise_reward_magnitude,paired_with_stopping,stim_location,response,reaction_time,block,num_trial_presentations,which_phase,stop_signal_trial_type,left_SSD,right_SSD,accuracy,chosen_bidding_amount,chosen_bidding_level,possible_bid_1,possible_bid_2,possible_bid_3,possible_bid_4,possible_bid_5,possible_bid_6,color_text,shape_text
172.0,1.0,0.5,0.0,2.0,2.0,760.3115439997055,1.0,1.0,phase_1,,,,,,,,,,,,,cyan,cross
308.0,6.0,1.0,1.0,1.0,1.0,517.5024680211209,1.0,1.0,phase_1,,,,,,,,,,,,,blue,I
649.0,7.0,2.0,1.0,4.0,4.0,388.5518059832975,1.0,1.0,phase_1,,,,,,,,,,,,,white,flipped triangle
0.0,6.0,0.0,1.0,3.0,3.0,360.5795259936712,1.0,1.0,phase_1,,,,,,,,,,,,,blue,I
629.0,3.0,2.0,0.0,4.0,4.0,351.3538059778511,1.0,2.0,phase_1,,,,,,,,,,,,,gray,circle
1309.0,8.0,4.0,1.0,2.0,2.0,433.5569660179317,1.0,1.0,phase_1,,,,,,,,,,,,,orange,diamond
150.0,5.0,0.5,1.0,1.0,1.0,406.712451018393,1.0,1.0,phase_1,,,,,,,,,,,,,green,hexagon
629.0,3.0,2.0,0.0,4.0,4.0,406.7918219952844,1.0,1.0,phase_1,,,,,,,,,,,,,gray,circle
644.0,7.0,2.0,1.0,4.0,4.0,341.965484956745,1.0,1.0,phase_1,,,,,,,,,,,,,white,flipped triangle
332.0,6.0,1.0,1.0,2.0,2.0,360.2212429977953,1.0,1.0,phase_1,,,,,,,,,,,,,blue,I
0.0,5.0,0.0,1.0,3.0,3.0,360.3625109535642,1.0,1.0,phase_1,,,,,,,,,,,,,green,hexagon
659.0,7.0,2.0,1.0,4.0,4.0,378.0988430371508,1.0,1.0,phase_1,,,,,,,,,,,,,white,flipped triangle
0.0,5.0,0.0,1.0,1.0,1.0,415.1723200338892,1.0,1.0,phase_1,,,,,,,,,,,,,green,hexagon
303.0,2.0,1.0,0.0,3.0,3.0,323.5894729732536,1.0,1.0,phase_1,,,,,,,,,,,,,yellow,triangle
665.0,7.0,2.0,1.0,2.0,2.0,368.5278950142674,1.0,1.0,phase_1,,,,,,,,,,,,,white,flipped triangle
1284.0,4.0,4.0,0.0,4.0,4.0,369.4253339781426,1.0,1.0,phase_1,,,,,,,,,,,,,magenta,square
629.0,7.0,2.0,1.0,3.0,3.0,324.2818869766779,1.0,1.0,phase_1,,,,,,,,,,,,,white,flipped triangle
162.0,1.0,0.5,0.0,2.0,2.0,359.8482590168714,1.0,1.0,phase_1,,,,,,,,,,,,,cyan,cross
673.0,7.0,2.0,1.0,3.0,3.0,358.9808289543725,1.0,1.0,phase_1,,,,,,,,,,,,,white,flipped triangle
662.0,7.0,2.0,1.0,3.0,3.0,351.5779220033437,1.0,1.0,phase_1,,,,,,,,,,,,,white,flipped triangle
0.0,3.0,0.0,0.0,3.0,3.0,414.8289629956707,1.0,1.0,phase_1,,,,,,,,,,,,,gray,circle
1276.0,8.0,4.0,1.0,4.0,4.0,322.8646649513393,1.0,1.0,phase_1,,,,,,,,,,,,,orange,diamond
0.0,6.0,0.0,1.0,2.0,2.0,461.68084803503,1.0,1.0,phase_1,,,,,,,,,,,,,blue,I
0.0,4.0,0.0,0.0,3.0,3.0,341.0543140489608,1.0,1.0,phase_1,,,,,,,,,,,,,magenta,square
150.0,5.0,0.5,1.0,1.0,1.0,359.5750629901886,1.0,1.0,phase_1,,,,,,,,,,,,,green,hexagon
177.0,1.0,0.5,0.0,4.0,4.0,352.9061960289255,1.0,1.0,phase_1,,,,,,,,,,,,,cyan,cross
1286.0,8.0,4.0,1.0,1.0,1.0,313.2163200061768,1.0,1.0,phase_1,,,,,,,,,,,,,orange,diamond
1295.0,4.0,4.0,0.0,1.0,1.0,295.2610870124772,1.0,1.0,phase_1,,,,,,,,,,,,,magenta,square
661.0,3.0,2.0,0.0,2.0,2.0,341.4996589999646,1.0,1.0,phase_1,,,,,,,,,,,,,gray,circle
0.0,3.0,0.0,0.0,1.0,1.0,350.2545590163208,1.0,1.0,phase_1,,,,,,,,,,,,,gray,circle
652.0,3.0,2.0,0.0,2.0,2.0,342.5779230310581,1.0,1.0,phase_1,,,,,,,,,,,,,gray,circle
329.0,2.0,1.0,0.0,3.0,3.0,397.7293930365704,1.0,1.0,phase_1,,,,,,,,,,,,,yellow,triangle
150.0,1.0,0.5,0.0,4.0,4.0,323.7752440036274,1.0,1.0,phase_1,,,,,,,,,,,,,cyan,cross
0.0,3.0,0.0,0.0,4.0,4.0,378.9447129820473,1.0,1.0,phase_1,,,,,,,,,,,,,gray,circle
661.0,7.0,2.0,1.0,3.0,3.0,397.1426640055142,1.0,1.0,phase_1,,,,,,,,,,,,,white,flipped triangle
347.0,2.0,1.0,0.0,2.0,2.0,527.2437789826654,1.0,1.0,phase_1,,,,,,,,,,,,,yellow,triangle
666.0,7.0,2.0,1.0,3.0,3.0,379.5432149781845,1.0,1.0,phase_1,,,,,,,,,,,,,white,flipped triangle
0.0,6.0,0.0,1.0,1.0,1.0,342.6020049955696,1.0,1.0,phase_1,,,,,,,,,,,,,blue,I
662.0,7.0,2.0,1.0,4.0,4.0,324.3034560000524,1.0,1.0,phase_1,,,,,,,,,,,,,white,flipped triangle
659.0,7.0,2.0,1.0,2.0,2.0,406.5162319457158,1.0,1.0,phase_1,,,,,,,,,,,,,white,flipped triangle
0.0,4.0,0.0,0.0,3.0,3.0,324.177365982905,1.0,1.0,phase_1,,,,,,,,,,,,,magenta,square
1303.0,8.0,4.0,1.0,3.0,3.0,361.023630015552,1.0,1.0,phase_1,,,,,,,,,,,,,orange,diamond
185.0,5.0,0.5,1.0,2.0,2.0,388.5048169759102,1.0,1.0,phase_1,,,,,,,,,,,,,green,hexagon
163.0,1.0,0.5,0.0,1.0,1.0,461.5481839864515,1.0,1.0,phase_1,,,,,,,,,,,,,cyan,cross
0.0,6.0,0.0,1.0,1.0,1.0,332.8406159998849,1.0,1.0,phase_1,,,,,,,,,,,,,blue,I
167.0,5.0,0.5,1.0,1.0,1.0,324.1629650001414,1.0,1.0,phase_1,,,,,,,,,,,,,green,hexagon
0.0,5.0,0.0,1.0,3.0,3.0,333.1882200436666,1.0,1.0,phase_1,,,,,,,,,,,,,green,hexagon
340.0,6.0,1.0,1.0,2.0,2.0,463.3821250172332,1.0,1.0,phase_1,,,,,,,,,,,,,blue,I
313.0,6.0,1.0,1.0,3.0,3.0,407.0659700082615,1.0,1.0,phase_1,,,,,,,,,,,,,blue,I
1304.0,4.0,4.0,0.0,4.0,4.0,565.4451160226017,1.0,1.0,phase_1,,,,,,,,,,,,,magenta,square
0.0,8.0,0.0,1.0,4.0,4.0,342.2575270524248,1.0,1.0,phase_1,,,,,,,,,,,,,orange,diamond
0.0,3.0,0.0,0.0,4.0,4.0,324.57307097502047,1.0,1.0,phase_1,,,,,,,,,,,,,gray,circle
153.0,1.0,0.5,0.0,2.0,2.0,353.5544300102629,1.0,1.0,phase_1,,,,,,,,,,,,,cyan,cross
1278.0,4.0,4.0,0.0,3.0,3.0,324.9170240014791,1.0,1.0,phase_1,,,,,,,,,,,,,magenta,square
330.0,2.0,1.0,0.0,2.0,2.0,408.6656090221368,1.0,1.0,phase_1,,,,,,,,,,,,,yellow,triangle
312.0,2.0,1.0,0.0,1.0,1.0,425.1780289923772,1.0,1.0,phase_1,,,,,,,,,,,,,yellow,triangle
659.0,3.0,2.0,0.0,3.0,3.0,356.0319659882225,1.0,1.0,phase_1,,,,,,,,,,,,,gray,circle
180.0,5.0,0.5,1.0,2.0,2.0,398.3129929983988,1.0,1.0,phase_1,,,,,,,,,,,,,green,hexagon
1284.0,8.0,4.0,1.0,4.0,4.0,333.7112779845483,1.0,1.0,phase_1,,,,,,,,,,,,,orange,diamond
0.0,2.0,0.0,0.0,4.0,4.0,361.7833079770207,1.0,1.0,phase_1,,,,,,,,,,,,,yellow,triangle
145.0,1.0,0.5,0.0,2.0,2.0,416.8627500184811,1.0,1.0,phase_1,,,,,,,,,,,,,cyan,cross
323.0,2.0,1.0,0.0,4.0,4.0,362.0680370368063,1.0,1.0,phase_1,,,,,,,,,,,,,yellow,triangle
143.0,1.0,0.5,0.0,2.0,2.0,353.2714419998228,1.0,1.0,phase_1,,,,,,,,,,,,,cyan,cross
1291.0,4.0,4.0,0.0,1.0,1.0,352.80687402701,1.0,1.0,phase_1,,,,,,,,,,,,,magenta,square
0.0,3.0,0.0,0.0,3.0,3.0,380.4417049977928,1.0,1.0,phase_1,,,,,,,,,,,,,gray,circle
309.0,2.0,1.0,0.0,2.0,2.0,407.3928819852881,1.0,1.0,phase_1,,,,,,,,,,,,,yellow,triangle
303.0,2.0,1.0,0.0,3.0,3.0,353.6285320296883,1.0,1.0,phase_1,,,,,,,,,,,,,yellow,triangle
650.0,3.0,2.0,0.0,1.0,1.0,370.009651989676,1.0,1.0,phase_1,,,,,,,,,,,,,gray,circle
0.0,2.0,0.0,0.0,1.0,1.0,436.3987860269844,1.0,1.0,phase_1,,,,,,,,,,,,,yellow,triangle
1303.0,4.0,4.0,0.0,1.0,1.0,343.3829940040596,1.0,1.0,phase_1,,,,,,,,,,,,,magenta,square
670.0,7.0,2.0,1.0,2.0,2.0,453.8872260018252,1.0,1.0,phase_1,,,,,,,,,,,,,white,flipped triangle
150.0,5.0,0.5,1.0,2.0,2.0,407.9166519804857,1.0,1.0,phase_1,,,,,,,,,,,,,green,hexagon
312.0,2.0,1.0,0.0,3.0,3.0,452.5665630353614,1.0,1.0,phase_1,,,,,,,,,,,,,yellow,triangle
146.0,1.0,0.5,0.0,3.0,3.0,417.3026049975306,1.0,1.0,phase_1,,,,,,,,,,,,,cyan,cross
178.0,5.0,0.5,1.0,3.0,3.0,398.1022909865714,1.0,1.0,phase_1,,,,,,,,,,,,,green,hexagon
329.0,6.0,1.0,1.0,1.0,1.0,343.2357049896382,1.0,1.0,phase_1,,,,,,,,,,,,,blue,I
332.0,2.0,1.0,0.0,1.0,1.0,336.9358609779738,1.0,1.0,phase_1,,,,,,,,,,,,,yellow,triangle
1315.0,8.0,4.0,1.0,1.0,1.0,314.5102799753658,1.0,1.0,phase_1,,,,,,,,,,,,,orange,diamond
1276.0,4.0,4.0,0.0,3.0,3.0,343.0242029717192,1.0,1.0,phase_1,,,,,,,,,,,,,magenta,square
173.0,1.0,0.5,0.0,1.0,1.0,361.3811699906364,1.0,1.0,phase_1,,,,,,,,,,,,,cyan,cross
337.0,2.0,1.0,0.0,4.0,4.0,445.103767036926,1.0,1.0,phase_1,,,,,,,,,,,,,yellow,triangle
0.0,2.0,0.0,0.0,2.0,2.0,620.0665860087611,1.0,1.0,phase_1,,,,,,,,,,,,,yellow,triangle
1325.0,8.0,4.0,1.0,2.0,2.0,380.1278049941174,1.0,1.0,phase_1,,,,,,,,,,,,,orange,diamond
0.0,6.0,0.0,1.0,1.0,1.0,352.6596080046147,1.0,1.0,phase_1,,,,,,,,,,,,,blue,I
309.0,6.0,1.0,1.0,4.0,4.0,417.9652130114846,1.0,1.0,phase_1,,,,,,,,,,,,,blue,I
635.0,7.0,2.0,1.0,3.0,3.0,475.1722560031339,1.0,1.0,phase_1,,,,,,,,,,,,,white,flipped triangle
185.0,1.0,0.5,0.0,1.0,1.0,353.2381989643909,1.0,1.0,phase_1,,,,,,,,,,,,,cyan,cross
635.0,3.0,2.0,0.0,1.0,1.0,351.8293319502845,1.0,1.0,phase_1,,,,,,,,,,,,,gray,circle
1323.0,8.0,4.0,1.0,4.0,4.0,408.1660709925927,1.0,1.0,phase_1,,,,,,,,,,,,,orange,diamond
1280.0,4.0,4.0,0.0,2.0,2.0,388.8208330026828,1.0,1.0,phase_1,,,,,,,,,,,,,magenta,square
666.0,3.0,2.0,0.0,4.0,4.0,352.1423190250061,1.0,1.0,phase_1,,,,,,,,,,,,,gray,circle
626.0,3.0,2.0,0.0,1.0,1.0,314.3439010018483,1.0,1.0,phase_1,,,,,,,,,,,,,gray,circle
1285.0,8.0,4.0,1.0,3.0,3.0,444.758761965204,1.0,1.0,phase_1,,,,,,,,,,,,,orange,diamond
315.0,6.0,1.0,1.0,2.0,2.0,380.0638900138438,1.0,1.0,phase_1,,,,,,,,,,,,,blue,I
180.0,1.0,0.5,0.0,2.0,2.0,445.733003958594,1.0,1.0,phase_1,,,,,,,,,,,,,cyan,cross
0.0,7.0,0.0,1.0,3.0,3.0,343.2252820348367,1.0,1.0,phase_1,,,,,,,,,,,,,white,flipped triangle
325.0,2.0,1.0,0.0,3.0,3.0,407.1829129825346,1.0,1.0,phase_1,,,,,,,,,,,,,yellow,triangle
0.0,8.0,0.0,1.0,1.0,1.0,342.3436659504659,1.0,1.0,phase_1,,,,,,,,,,,,,orange,diamond
147.0,5.0,0.5,1.0,3.0,3.0,389.0374379698187,1.0,1.0,phase_1,,,,,,,,,,,,,green,hexagon
642.0,7.0,2.0,1.0,1.0,1.0,435.5640019639395,1.0,1.0,phase_1,,,,,,,,,,,,,white,flipped triangle
144.0,1.0,0.5,0.0,4.0,4.0,465.7172299921512,2.0,1.0,phase_1,,,,,,,,,,,,,cyan,cross
335.0,2.0,1.0,0.0,1.0,1.0,426.8511059926823,2.0,1.0,phase_1,,,,,,,,,,,,,yellow,triangle
309.0,2.0,1.0,0.0,2.0,2.0,573.5690469737165,2.0,1.0,phase_1,,,,,,,,,,,,,yellow,triangle
162.0,5.0,0.5,1.0,4.0,4.0,370.8339449949562,2.0,1.0,phase_1,,,,,,,,,,,,,green,hexagon
347.0,2.0,1.0,0.0,1.0,1.0,315.5070699867792,2.0,1.0,phase_1,,,,,,,,,,,,,yellow,triangle
1313.0,8.0,4.0,1.0,3.0,3.0,370.14143896522,2.0,1.0,phase_1,,,,,,,,,,,,,orange,diamond
0.0,5.0,0.0,1.0,3.0,3.0,344.5178759866394,2.0,1.0,phase_1,,,,,,,,,,,,,green,hexagon
0.0,1.0,0.0,0.0,4.0,4.0,406.484185019508,2.0,1.0,phase_1,,,,,,,,,,,,,cyan,cross
1315.0,4.0,4.0,0.0,3.0,3.0,343.0443610413931,2.0,1.0,phase_1,,,,,,,,,,,,,magenta,square
174.0,5.0,0.5,1.0,3.0,3.0,370.5777649884112,2.0,1.0,phase_1,,,,,,,,,,,,,green,hexagon
0.0,7.0,0.0,1.0,3.0,3.0,370.4469479853287,2.0,1.0,phase_1,,,,,,,,,,,,,white,flipped triangle
172.0,5.0,0.5,1.0,2.0,2.0,581.5449560177512,2.0,1.0,phase_1,,,,,,,,,,,,,green,hexagon
154.0,5.0,0.5,1.0,3.0,3.0,369.8986920062452,2.0,1.0,phase_1,,,,,,,,,,,,,green,hexagon
0.0,5.0,0.0,1.0,2.0,2.0,398.2659120229073,2.0,1.0,phase_1,,,,,,,,,,,,,green,hexagon
1324.0,8.0,4.0,1.0,2.0,2.0,361.3066529505886,2.0,1.0,phase_1,,,,,,,,,,,,,orange,diamond
144.0,5.0,0.5,1.0,4.0,4.0,341.7322100140154,2.0,1.0,phase_1,,,,,,,,,,,,,green,hexagon
1312.0,8.0,4.0,1.0,4.0,4.0,379.0047240327112,2.0,1.0,phase_1,,,,,,,,,,,,,orange,diamond
672.0,7.0,2.0,1.0,2.0,2.0,350.615089002531,2.0,1.0,phase_1,,,,,,,,,,,,,white,flipped triangle
311.0,2.0,1.0,0.0,2.0,2.0,332.0408539730124,2.0,1.0,phase_1,,,,,,,,,,,,,yellow,triangle
337.0,2.0,1.0,0.0,4.0,4.0,499.7745369910262,2.0,1.0,phase_1,,,,,,,,,,,,,yellow,triangle
312.0,6.0,1.0,1.0,4.0,4.0,323.0622850242071,2.0,1.0,phase_1,,,,,,,,,,,,,blue,I
143.0,5.0,0.5,1.0,1.0,1.0,415.7023529987782,2.0,1.0,phase_1,,,,,,,,,,,,,green,hexagon
154.0,1.0,0.5,0.0,1.0,1.0,408.4137619938701,2.0,1.0,phase_1,,,,,,,,,,,,,cyan,cross
314.0,6.0,1.0,1.0,3.0,3.0,453.8632280309684,2.0,1.0,phase_1,,,,,,,,,,,,,blue,I
145.0,5.0,0.5,1.0,4.0,4.0,427.1090679685585,2.0,1.0,phase_1,,,,,,,,,,,,,green,hexagon
629.0,3.0,2.0,0.0,4.0,4.0,379.0165429818444,2.0,1.0,phase_1,,,,,,,,,,,,,gray,circle
1324.0,4.0,4.0,0.0,3.0,3.0,332.8853499842807,2.0,1.0,phase_1,,,,,,,,,,,,,magenta,square
161.0,5.0,0.5,1.0,2.0,2.0,509.62442700983956,2.0,1.0,phase_1,,,,,,,,,,,,,green,hexagon
142.0,5.0,0.5,1.0,3.0,3.0,379.4882530346513,2.0,1.0,phase_1,,,,,,,,,,,,,green,hexagon
0.0,4.0,0.0,0.0,1.0,1.0,387.7931389724836,2.0,1.0,phase_1,,,,,,,,,,,,,magenta,square
143.0,1.0,0.5,0.0,3.0,3.0,361.312456021551,2.0,1.0,phase_1,,,,,,,,,,,,,cyan,cross
0.0,6.0,0.0,1.0,3.0,3.0,390.4027419630438,2.0,1.0,phase_1,,,,,,,,,,,,,blue,I
337.0,6.0,1.0,1.0,1.0,1.0,500.25669299066067,2.0,1.0,phase_1,,,,,,,,,,,,,blue,I
154.0,5.0,0.5,1.0,1.0,1.0,583.911633992102,2.0,1.0,phase_1,,,,,,,,,,,,,green,hexagon
1286.0,8.0,4.0,1.0,3.0,3.0,379.7793940175324,2.0,1.0,phase_1,,,,,,,,,,,,,orange,diamond
0.0,8.0,0.0,1.0,3.0,3.0,352.5943749700673,2.0,1.0,phase_1,,,,,,,,,,,,,orange,diamond
164.0,1.0,0.5,0.0,4.0,4.0,488.7954529840499,2.0,1.0,phase_1,,,,,,,,,,,,,cyan,cross
1280.0,8.0,4.0,1.0,4.0,4.0,359.8301009624265,2.0,1.0,phase_1,,,,,,,,,,,,,orange,diamond
326.0,2.0,1.0,0.0,2.0,2.0,508.13647999893874,2.0,1.0,phase_1,,,,,,,,,,,,,yellow,triangle
1315.0,4.0,4.0,0.0,2.0,2.0,406.9981600041501,2.0,1.0,phase_1,,,,,,,,,,,,,magenta,square
0.0,4.0,0.0,0.0,3.0,3.0,378.6419929820113,2.0,1.0,phase_1,,,,,,,,,,,,,magenta,square
0.0,1.0,0.0,0.0,4.0,4.0,360.5709570110775,2.0,1.0,phase_1,,,,,,,,,,,,,cyan,cross
664.0,3.0,2.0,0.0,3.0,3.0,369.439902016893,2.0,1.0,phase_1,,,,,,,,,,,,,gray,circle
309.0,6.0,1.0,1.0,3.0,3.0,361.7238759761676,2.0,1.0,phase_1,,,,,,,,,,,,,blue,I
1312.0,4.0,4.0,0.0,4.0,4.0,407.6203809818253,2.0,1.0,phase_1,,,,,,,,,,,,,magenta,square
0.0,6.0,0.0,1.0,2.0,2.0,473.483404959552,2.0,1.0,phase_1,,,,,,,,,,,,,blue,I
0.0,2.0,0.0,0.0,1.0,1.0,527.9411739902571,2.0,1.0,phase_1,,,,,,,,,,,,,yellow,triangle
0.0,8.0,0.0,1.0,3.0,3.0,416.6548560024239,2.0,1.0,phase_1,,,,,,,,,,,,,orange,diamond
660.0,3.0,2.0,0.0,3.0,3.0,370.1465780031867,2.0,1.0,phase_1,,,,,,,,,,,,,gray,circle
665.0,3.0,2.0,0.0,1.0,1.0,397.5363789941184,2.0,1.0,phase_1,,,,,,,,,,,,,gray,circle
1296.0,4.0,4.0,0.0,2.0,2.0,592.6298539852723,2.0,1.0,phase_1,,,,,,,,,,,,,magenta,square
142.0,1.0,0.5,0.0,1.0,1.0,332.7166800154373,2.0,1.0,phase_1,,,,,,,,,,,,,cyan,cross
323.0,6.0,1.0,1.0,3.0,3.0,332.7813370269723,2.0,1.0,phase_1,,,,,,,,,,,,,blue,I
335.0,2.0,1.0,0.0,4.0,4.0,342.1648599905893,2.0,1.0,phase_1,,,,,,,,,,,,,yellow,triangle
302.0,2.0,1.0,0.0,2.0,2.0,407.0603389991447,2.0,1.0,phase_1,,,,,,,,,,,,,yellow,triangle
0.0,1.0,0.0,0.0,2.0,2.0,405.9922529850155,2.0,1.0,phase_1,,,,,,,,,,,,,cyan,cross
0.0,3.0,0.0,0.0,1.0,1.0,406.5929829957895,2.0,1.0,phase_1,,,,,,,,,,,,,gray,circle
152.0,5.0,0.5,1.0,3.0,3.0,360.7677599648013,2.0,1.0,phase_1,,,,,,,,,,,,,green,hexagon
0.0,5.0,0.0,1.0,1.0,1.0,351.6351879807189,2.0,1.0,phase_1,,,,,,,,,,,,,green,hexagon
631.0,3.0,2.0,0.0,1.0,1.0,397.9918730328791,2.0,1.0,phase_1,,,,,,,,,,,,,gray,circle
153.0,5.0,0.5,1.0,2.0,2.0,424.6729810256511,2.0,1.0,phase_1,,,,,,,,,,,,,green,hexagon
143.0,5.0,0.5,1.0,4.0,4.0,304.692336008884,2.0,1.0,phase_1,,,,,,,,,,,,,green,hexagon
182.0,5.0,0.5,1.0,1.0,1.0,351.2854569707997,2.0,1.0,phase_1,,,,,,,,,,,,,green,hexagon
0.0,8.0,0.0,1.0,1.0,1.0,401.5577069949358,2.0,1.0,phase_1,,,,,,,,,,,,,orange,diamond
0.0,7.0,0.0,1.0,2.0,2.0,414.4538999535143,2.0,1.0,phase_1,,,,,,,,,,,,,white,flipped triangle
0.0,4.0,0.0,0.0,2.0,2.0,434.2011180124245,2.0,1.0,phase_1,,,,,,,,,,,,,magenta,square
1276.0,8.0,4.0,1.0,1.0,1.0,396.6661550221033,2.0,1.0,phase_1,,,,,,,,,,,,,orange,diamond
315.0,2.0,1.0,0.0,1.0,1.0,351.8938350025564,2.0,1.0,phase_1,,,,,,,,,,,,,yellow,triangle
146.0,5.0,0.5,1.0,1.0,1.0,350.5301210097968,2.0,1.0,phase_1,,,,,,,,,,,,,green,hexagon
139.0,5.0,0.5,1.0,4.0,4.0,370.8789959782734,2.0,1.0,phase_1,,,,,,,,,,,,,green,hexagon
185.0,5.0,0.5,1.0,3.0,3.0,334.1187830083072,2.0,1.0,phase_1,,,,,,,,,,,,,green,hexagon
160.0,5.0,0.5,1.0,2.0,2.0,545.0626429519616,2.0,1.0,phase_1,,,,,,,,,,,,,green,hexagon
632.0,7.0,2.0,1.0,2.0,2.0,416.1931920098141,2.0,1.0,phase_1,,,,,,,,,,,,,white,flipped triangle
669.0,7.0,2.0,1.0,3.0,3.0,352.011221984867,2.0,1.0,phase_1,,,,,,,,,,,,,white,flipped triangle
0.0,1.0,0.0,0.0,2.0,2.0,342.8294690093025,2.0,1.0,phase_1,,,,,,,,,,,,,cyan,cross
1289.0,8.0,4.0,1.0,4.0,4.0,399.0122379618697,2.0,1.0,phase_1,,,,,,,,,,,,,orange,diamond
0.0,1.0,0.0,0.0,1.0,1.0,406.7667439812794,2.0,1.0,phase_1,,,,,,,,,,,,,cyan,cross
1292.0,8.0,4.0,1.0,1.0,1.0,406.2507720082067,2.0,1.0,phase_1,,,,,,,,,,,,,orange,diamond
0.0,3.0,0.0,0.0,4.0,4.0,563.8264419976622,2.0,1.0,phase_1,,,,,,,,,,,,,gray,circle
139.0,1.0,0.5,0.0,1.0,1.0,426.1511419899761,2.0,1.0,phase_1,,,,,,,,,,,,,cyan,cross
0.0,4.0,0.0,0.0,1.0,1.0,676.4319940120913,2.0,1.0,phase_1,,,,,,,,,,,,,magenta,square
1300.0,8.0,4.0,1.0,3.0,3.0,389.0158690046519,2.0,1.0,phase_1,,,,,,,,,,,,,orange,diamond
0.0,7.0,0.0,1.0,1.0,1.0,470.721366989892,2.0,1.0,phase_1,,,,,,,,,,,,,white,flipped triangle
1278.0,8.0,4.0,1.0,1.0,1.0,500.02110499190167,2.0,1.0,phase_1,,,,,,,,,,,,,orange,diamond
1278.0,8.0,4.0,1.0,4.0,4.0,408.0936070531606,2.0,1.0,phase_1,,,,,,,,,,,,,orange,diamond
345.0,2.0,1.0,0.0,1.0,1.0,399.1365790134296,2.0,1.0,phase_1,,,,,,,,,,,,,yellow,triangle
662.0,3.0,2.0,0.0,1.0,1.0,380.2311770268716,2.0,1.0,phase_1,,,,,,,,,,,,,gray,circle
0.0,8.0,0.0,1.0,2.0,2.0,370.7220539799891,2.0,1.0,phase_1,,,,,,,,,,,,,orange,diamond
0.0,3.0,0.0,0.0,2.0,2.0,370.7862320006825,2.0,1.0,phase_1,,,,,,,,,,,,,gray,circle
335.0,6.0,1.0,1.0,4.0,4.0,436.9792569777928,2.0,1.0,phase_1,,,,,,,,,,,,,blue,I
0.0,8.0,0.0,1.0,1.0,1.0,463.6529120034538,2.0,1.0,phase_1,,,,,,,,,,,,,orange,diamond
152.0,1.0,0.5,0.0,3.0,3.0,398.4251610236242,2.0,1.0,phase_1,,,,,,,,,,,,,cyan,cross
667.0,3.0,2.0,0.0,4.0,4.0,454.7279679682106,2.0,1.0,phase_1,,,,,,,,,,,,,gray,circle
632.0,3.0,2.0,0.0,2.0,2.0,435.7574739842675,2.0,1.0,phase_1,,,,,,,,,,,,,gray,circle
303.0,2.0,1.0,0.0,3.0,3.0,398.0117670143954,2.0,1.0,phase_1,,,,,,,,,,,,,yellow,triangle
173.0,5.0,0.5,1.0,2.0,2.0,388.2607159903273,2.0,1.0,phase_1,,,,,,,,,,,,,green,hexagon
631.0,7.0,2.0,1.0,4.0,4.0,379.7506240080111,2.0,1.0,phase_1,,,,,,,,,,,,,white,flipped triangle
164.0,5.0,0.5,1.0,1.0,1.0,398.0887599755078,2.0,1.0,phase_1,,,,,,,,,,,,,green,hexagon
1313.0,4.0,4.0,0.0,2.0,2.0,360.3360749548301,2.0,1.0,phase_1,,,,,,,,,,,,,magenta,square
1277.0,8.0,4.0,1.0,3.0,3.0,361.0237629618495,2.0,1.0,phase_1,,,,,,,,,,,,,orange,diamond
163.0,1.0,0.5,0.0,3.0,3.0,436.4957690122537,3.0,1.0,phase_1,,,,,,,,,,,,,cyan,cross
650.0,7.0,2.0,1.0,2.0,2.0,434.3287000083364,3.0,1.0,phase_1,,,,,,,,,,,,,white,flipped triangle
303.0,6.0,1.0,1.0,1.0,1.0,563.1903379689902,3.0,1.0,phase_1,,,,,,,,,,,,,blue,I
319.0,6.0,1.0,1.0,3.0,3.0,528.3563529956155,3.0,1.0,phase_1,,,,,,,,,,,,,blue,I
0.0,8.0,0.0,1.0,4.0,4.0,416.3445539888926,3.0,1.0,phase_1,,,,,,,,,,,,,orange,diamond
672.0,3.0,2.0,0.0,2.0,2.0,582.5868269894272,3.0,1.0,phase_1,,,,,,,,,,,,,gray,circle
323.0,2.0,1.0,0.0,1.0,1.0,453.62900395412,3.0,1.0,phase_1,,,,,,,,,,,,,yellow,triangle
0.0,8.0,0.0,1.0,1.0,1.0,379.6831429935992,3.0,1.0,phase_1,,,,,,,,,,,,,orange,diamond
0.0,2.0,0.0,0.0,4.0,4.0,352.0122569752857,3.0,1.0,phase_1,,,,,,,,,,,,,yellow,triangle
341.0,2.0,1.0,0.0,3.0,3.0,434.1049239737913,3.0,1.0,phase_1,,,,,,,,,,,,,yellow,triangle
1323.0,4.0,4.0,0.0,2.0,2.0,388.23484495515,3.0,1.0,phase_1,,,,,,,,,,,,,magenta,square
664.0,7.0,2.0,1.0,3.0,3.0,397.1526469686068,3.0,1.0,phase_1,,,,,,,,,,,,,white,flipped triangle
629.0,7.0,2.0,1.0,1.0,1.0,443.6660220380872,3.0,1.0,phase_1,,,,,,,,,,,,,white,flipped triangle
0.0,2.0,0.0,0.0,2.0,2.0,398.1437929905951,3.0,1.0,phase_1,,,,,,,,,,,,,yellow,triangle
184.0,1.0,0.5,0.0,4.0,4.0,387.9832100355997,3.0,1.0,phase_1,,,,,,,,,,,,,cyan,cross
345.0,6.0,1.0,1.0,1.0,1.0,388.9058079803362,3.0,1.0,phase_1,,,,,,,,,,,,,blue,I
303.0,6.0,1.0,1.0,2.0,2.0,361.2001789733767,3.0,1.0,phase_1,,,,,,,,,,,,,blue,I
1310.0,4.0,4.0,0.0,2.0,2.0,535.3517979965545,3.0,1.0,phase_1,,,,,,,,,,,,,magenta,square
185.0,1.0,0.5,0.0,1.0,1.0,426.2311410275288,3.0,1.0,phase_1,,,,,,,,,,,,,cyan,cross
186.0,1.0,0.5,0.0,4.0,4.0,517.682324978523,3.0,1.0,phase_1,,,,,,,,,,,,,cyan,cross
0.0,5.0,0.0,1.0,3.0,3.0,417.5923409638926,3.0,1.0,phase_1,,,,,,,,,,,,,green,hexagon
150.0,1.0,0.5,0.0,2.0,2.0,389.7168030380271,3.0,1.0,phase_1,,,,,,,,,,,,,cyan,cross
638.0,7.0,2.0,1.0,1.0,1.0,499.4157719775103,3.0,1.0,phase_1,,,,,,,,,,,,,white,flipped triangle
174.0,5.0,0.5,1.0,3.0,3.0,378.6343959509395,3.0,1.0,phase_1,,,,,,,,,,,,,green,hexagon
150.0,1.0,0.5,0.0,2.0,2.0,491.27124104416,3.0,1.0,phase_1,,,,,,,,,,,,,cyan,cross
154.0,1.0,0.5,0.0,2.0,2.0,379.1329570231028,3.0,1.0,phase_1,,,,,,,,,,,,,cyan,cross
659.0,7.0,2.0,1.0,1.0,1.0,481.3580840127542,3.0,1.0,phase_1,,,,,,,,,,,,,white,flipped triangle
169.0,5.0,0.5,1.0,2.0,2.0,701.2817399809137,3.0,1.0,phase_1,,,,,,,,,,,,,green,hexagon
0.0,3.0,0.0,0.0,4.0,4.0,379.2672269628383,3.0,1.0,phase_1,,,,,,,,,,,,,gray,circle
341.0,6.0,1.0,1.0,4.0,4.0,369.5894859847612,3.0,1.0,phase_1,,,,,,,,,,,,,blue,I
314.0,2.0,1.0,0.0,4.0,4.0,360.4903339873999,3.0,1.0,phase_1,,,,,,,,,,,,,yellow,triangle
0.0,1.0,0.0,0.0,1.0,1.0,655.1710510393605,3.0,1.0,phase_1,,,,,,,,,,,,,cyan,cross
167.0,1.0,0.5,0.0,3.0,3.0,444.5249389973469,3.0,1.0,phase_1,,,,,,,,,,,,,cyan,cross
634.0,7.0,2.0,1.0,1.0,1.0,446.1066609947011,3.0,1.0,phase_1,,,,,,,,,,,,,white,flipped triangle
170.0,5.0,0.5,1.0,4.0,4.0,454.4151260051876,3.0,1.0,phase_1,,,,,,,,,,,,,green,hexagon
155.0,1.0,0.5,0.0,3.0,3.0,379.0636729681864,3.0,1.0,phase_1,,,,,,,,,,,,,cyan,cross
323.0,6.0,1.0,1.0,4.0,4.0,333.1548530259169,3.0,1.0,phase_1,,,,,,,,,,,,,blue,I
1292.0,4.0,4.0,0.0,1.0,1.0,407.368570973631,3.0,1.0,phase_1,,,,,,,,,,,,,magenta,square
648.0,7.0,2.0,1.0,4.0,4.0,369.6492500021122,3.0,1.0,phase_1,,,,,,,,,,,,,white,flipped triangle
651.0,7.0,2.0,1.0,2.0,2.0,434.339412022382,3.0,1.0,phase_1,,,,,,,,,,,,,white,flipped triangle
1304.0,8.0,4.0,1.0,2.0,2.0,408.113214012701,3.0,1.0,phase_1,,,,,,,,,,,,,orange,diamond
641.0,3.0,2.0,0.0,1.0,1.0,460.6128810555674,3.0,1.0,phase_1,,,,,,,,,,,,,gray,circle
1315.0,8.0,4.0,1.0,1.0,1.0,360.5596080305986,3.0,1.0,phase_1,,,,,,,,,,,,,orange,diamond
1285.0,8.0,4.0,1.0,2.0,2.0,334.8517069825902,3.0,1.0,phase_1,,,,,,,,,,,,,orange,diamond
1300.0,4.0,4.0,0.0,4.0,4.0,398.8345289835706,3.0,1.0,phase_1,,,,,,,,,,,,,magenta,square
163.0,5.0,0.5,1.0,4.0,4.0,396.2543689995073,3.0,1.0,phase_1,,,,,,,,,,,,,green,hexagon
635.0,3.0,2.0,0.0,2.0,2.0,509.5560199697502,3.0,1.0,phase_1,,,,,,,,,,,,,gray,circle
0.0,2.0,0.0,0.0,1.0,1.0,528.2472880207933,3.0,1.0,phase_1,,,,,,,,,,,,,yellow,triangle
1307.0,4.0,4.0,0.0,4.0,4.0,407.6613369979895,3.0,1.0,phase_1,,,,,,,,,,,,,magenta,square
1287.0,8.0,4.0,1.0,2.0,2.0,443.8742640195414,3.0,1.0,phase_1,,,,,,,,,,,,,orange,diamond
337.0,6.0,1.0,1.0,2.0,2.0,444.6388480137102,3.0,1.0,phase_1,,,,,,,,,,,,,blue,I
630.0,7.0,2.0,1.0,1.0,1.0,462.2903539566323,3.0,1.0,phase_1,,,,,,,,,,,,,white,flipped triangle
319.0,2.0,1.0,0.0,1.0,1.0,527.2380550159141,3.0,1.0,phase_1,,,,,,,,,,,,,yellow,triangle
169.0,1.0,0.5,0.0,3.0,3.0,433.5760460235178,3.0,1.0,phase_1,,,,,,,,,,,,,cyan,cross
349.0,6.0,1.0,1.0,2.0,2.0,573.7766349921003,3.0,1.0,phase_1,,,,,,,,,,,,,blue,I
1280.0,8.0,4.0,1.0,2.0,2.0,425.2018429688178,3.0,1.0,phase_1,,,,,,,,,,,,,orange,diamond
1310.0,8.0,4.0,1.0,1.0,1.0,610.5986520415172,3.0,1.0,phase_1,,,,,,,,,,,,,orange,diamond
349.0,2.0,1.0,0.0,4.0,4.0,350.5504629574716,3.0,1.0,phase_1,,,,,,,,,,,,,yellow,triangle
659.0,7.0,2.0,1.0,2.0,2.0,490.0943480315618,3.0,1.0,phase_1,,,,,,,,,,,,,white,flipped triangle
659.0,3.0,2.0,0.0,3.0,3.0,443.8374990131706,3.0,1.0,phase_1,,,,,,,,,,,,,gray,circle
313.0,2.0,1.0,0.0,4.0,4.0,454.1727100149728,3.0,1.0,phase_1,,,,,,,,,,,,,yellow,triangle
0.0,1.0,0.0,0.0,4.0,4.0,527.4779960163869,3.0,1.0,phase_1,,,,,,,,,,,,,cyan,cross
1280.0,4.0,4.0,0.0,1.0,1.0,488.5411399882287,3.0,1.0,phase_1,,,,,,,,,,,,,magenta,square
186.0,5.0,0.5,1.0,4.0,4.0,444.4042230024934,3.0,1.0,phase_1,,,,,,,,,,,,,green,hexagon
0.0,7.0,0.0,1.0,3.0,3.0,406.685333000496,3.0,1.0,phase_1,,,,,,,,,,,,,white,flipped triangle
326.0,6.0,1.0,1.0,3.0,3.0,435.1089139818214,3.0,1.0,phase_1,,,,,,,,,,,,,blue,I
1325.0,4.0,4.0,0.0,2.0,2.0,415.4030870413407,3.0,1.0,phase_1,,,,,,,,,,,,,magenta,square
1323.0,4.0,4.0,0.0,2.0,2.0,396.7898730188608,3.0,1.0,phase_1,,,,,,,,,,,,,magenta,square
665.0,3.0,2.0,0.0,3.0,3.0,490.7582750311121,3.0,1.0,phase_1,,,,,,,,,,,,,gray,circle
139.0,1.0,0.5,0.0,1.0,1.0,675.9818370337598,3.0,1.0,phase_1,,,,,,,,,,,,,cyan,cross
668.0,3.0,2.0,0.0,4.0,4.0,398.2049059704877,3.0,1.0,phase_1,,,,,,,,,,,,,gray,circle
0.0,1.0,0.0,0.0,2.0,2.0,425.6194640183821,3.0,1.0,phase_1,,,,,,,,,,,,,cyan,cross
0.0,7.0,0.0,1.0,4.0,4.0,398.320538981352,3.0,1.0,phase_1,,,,,,,,,,,,,white,flipped triangle
308.0,2.0,1.0,0.0,3.0,3.0,378.3986869966611,3.0,1.0,phase_1,,,,,,,,,,,,,yellow,triangle
1295.0,8.0,4.0,1.0,2.0,2.0,397.8745130007155,3.0,1.0,phase_1,,,,,,,,,,,,,orange,diamond
0.0,1.0,0.0,0.0,1.0,1.0,405.5827099946327,3.0,1.0,phase_1,,,,,,,,,,,,,cyan,cross
333.0,6.0,1.0,1.0,2.0,2.0,491.1251519806683,3.0,1.0,phase_1,,,,,,,,,,,,,blue,I
333.0,2.0,1.0,0.0,1.0,1.0,425.8111460367217,3.0,1.0,phase_1,,,,,,,,,,,,,yellow,triangle
0.0,1.0,0.0,0.0,1.0,1.0,388.8592549483292,3.0,1.0,phase_1,,,,,,,,,,,,,cyan,cross
345.0,2.0,1.0,0.0,1.0,1.0,389.17262700852,3.0,1.0,phase_1,,,,,,,,,,,,,yellow,triangle
0.0,7.0,0.0,1.0,1.0,1.0,424.184839008376,3.0,1.0,phase_1,,,,,,,,,,,,,white,flipped triangle
1309.0,8.0,4.0,1.0,4.0,4.0,434.9437810014933,3.0,1.0,phase_1,,,,,,,,,,,,,orange,diamond
319.0,6.0,1.0,1.0,4.0,4.0,480.0055600353516,3.0,1.0,phase_1,,,,,,,,,,,,,blue,I
302.0,6.0,1.0,1.0,1.0,1.0,536.5328569896519,3.0,1.0,phase_1,,,,,,,,,,,,,blue,I
321.0,2.0,1.0,0.0,4.0,4.0,407.7514389646239,3.0,1.0,phase_1,,,,,,,,,,,,,yellow,triangle
636.0,3.0,2.0,0.0,2.0,2.0,443.4253940125927,3.0,1.0,phase_1,,,,,,,,,,,,,gray,circle
0.0,8.0,0.0,1.0,2.0,2.0,442.8587660077028,3.0,1.0,phase_1,,,,,,,,,,,,,orange,diamond
163.0,5.0,0.5,1.0,3.0,3.0,768.5174039797857,3.0,1.0,phase_1,,,,,,,,,,,,,green,hexagon
328.0,2.0,1.0,0.0,4.0,4.0,555.4865309968591,3.0,1.0,phase_1,,,,,,,,,,,,,yellow,triangle
1309.0,4.0,4.0,0.0,4.0,4.0,397.6306279655546,3.0,1.0,phase_1,,,,,,,,,,,,,magenta,square
1295.0,8.0,4.0,1.0,1.0,1.0,693.3586960076354,3.0,1.0,phase_1,,,,,,,,,,,,,orange,diamond
1313.0,8.0,4.0,1.0,1.0,1.0,574.1036619874649,3.0,1.0,phase_1,,,,,,,,,,,,,orange,diamond
635.0,7.0,2.0,1.0,1.0,1.0,621.3126460206695,3.0,1.0,phase_1,,,,,,,,,,,,,white,flipped triangle
184.0,5.0,0.5,1.0,4.0,4.0,407.0927010034211,3.0,1.0,phase_1,,,,,,,,,,,,,green,hexagon
148.0,1.0,0.5,0.0,4.0,4.0,407.1044219890609,3.0,1.0,phase_1,,,,,,,,,,,,,cyan,cross
183.0,1.0,0.5,0.0,3.0,3.0,350.6642180145718,3.0,1.0,phase_1,,,,,,,,,,,,,cyan,cross
182.0,1.0,0.5,0.0,4.0,4.0,341.7176330112852,3.0,1.0,phase_1,,,,,,,,,,,,,cyan,cross
1291.0,8.0,4.0,1.0,3.0,3.0,434.0796450269408,3.0,1.0,phase_1,,,,,,,,,,,,,orange,diamond
0.0,2.0,0.0,0.0,4.0,4.0,369.4769980502315,3.0,1.0,phase_1,,,,,,,,,,,,,yellow,triangle
347.0,6.0,1.0,1.0,4.0,4.0,351.4369880431331,3.0,1.0,phase_1,,,,,,,,,,,,,blue,I
0.0,5.0,0.0,1.0,1.0,1.0,491.1420089774765,4.0,1.0,phase_1,,,,,,,,,,,,,green,hexagon
300.0,6.0,1.0,1.0,3.0,3.0,351.8372649559751,4.0,1.0,phase_1,,,,,,,,,,,,,blue,I
1323.0,4.0,4.0,0.0,1.0,1.0,508.9849369833246,4.0,1.0,phase_1,,,,,,,,,,,,,magenta,square
348.0,6.0,1.0,1.0,4.0,4.0,397.9419709648937,4.0,1.0,phase_1,,,,,,,,,,,,,blue,I
300.0,2.0,1.0,0.0,2.0,2.0,379.8409689916298,4.0,1.0,phase_1,,,,,,,,,,,,,yellow,triangle
638.0,7.0,2.0,1.0,4.0,4.0,435.0961080053821,4.0,1.0,phase_1,,,,,,,,,,,,,white,flipped triangle
634.0,3.0,2.0,0.0,2.0,2.0,406.6673319903202,4.0,1.0,phase_1,,,,,,,,,,,,,gray,circle
0.0,3.0,0.0,0.0,4.0,4.0,360.5968969641253,4.0,1.0,phase_1,,,,,,,,,,,,,gray,circle
161.0,1.0,0.5,0.0,3.0,3.0,397.4023609771393,4.0,1.0,phase_1,,,,,,,,,,,,,cyan,cross
1291.0,4.0,4.0,0.0,1.0,1.0,424.9866619938984,4.0,1.0,phase_1,,,,,,,,,,,,,magenta,square
1289.0,4.0,4.0,0.0,2.0,2.0,462.0172359864227,4.0,1.0,phase_1,,,,,,,,,,,,,magenta,square
659.0,3.0,2.0,0.0,1.0,1.0,471.8062100000679,4.0,1.0,phase_1,,,,,,,,,,,,,gray,circle
660.0,7.0,2.0,1.0,2.0,2.0,463.3963939850218,4.0,1.0,phase_1,,,,,,,,,,,,,white,flipped triangle
335.0,6.0,1.0,1.0,1.0,1.0,554.846484970767,4.0,1.0,phase_1,,,,,,,,,,,,,blue,I
1285.0,4.0,4.0,0.0,1.0,1.0,406.0650680330582,4.0,1.0,phase_1,,,,,,,,,,,,,magenta,square
0.0,5.0,0.0,1.0,1.0,1.0,454.2802920332178,4.0,1.0,phase_1,,,,,,,,,,,,,green,hexagon
668.0,7.0,2.0,1.0,1.0,1.0,398.2852820190601,4.0,1.0,phase_1,,,,,,,,,,,,,white,flipped triangle
1324.0,8.0,4.0,1.0,3.0,3.0,455.3847729694098,4.0,1.0,phase_1,,,,,,,,,,,,,orange,diamond
1291.0,8.0,4.0,1.0,3.0,3.0,508.7598669924773,4.0,1.0,phase_1,,,,,,,,,,,,,orange,diamond
1277.0,4.0,4.0,0.0,4.0,4.0,563.1624520174228,4.0,1.0,phase_1,,,,,,,,,,,,,magenta,square
342.0,2.0,1.0,0.0,4.0,4.0,426.09192803502077,4.0,1.0,phase_1,,,,,,,,,,,,,yellow,triangle
649.0,3.0,2.0,0.0,2.0,2.0,407.695711008273,4.0,1.0,phase_1,,,,,,,,,,,,,gray,circle
651.0,3.0,2.0,0.0,3.0,3.0,425.6345159956254,4.0,1.0,phase_1,,,,,,,,,,,,,gray,circle
174.0,1.0,0.5,0.0,4.0,4.0,407.0031760493293,4.0,1.0,phase_1,,,,,,,,,,,,,cyan,cross
662.0,3.0,2.0,0.0,2.0,2.0,434.6143970033154,4.0,1.0,phase_1,,,,,,,,,,,,,gray,circle
148.0,5.0,0.5,1.0,2.0,2.0,360.2176230051555,4.0,1.0,phase_1,,,,,,,,,,,,,green,hexagon
147.0,1.0,0.5,0.0,3.0,3.0,396.3963200221769,4.0,1.0,phase_1,,,,,,,,,,,,,cyan,cross
347.0,6.0,1.0,1.0,1.0,1.0,471.0485429968685,4.0,1.0,phase_1,,,,,,,,,,,,,blue,I
344.0,6.0,1.0,1.0,4.0,4.0,361.2023479654453,4.0,1.0,phase_1,,,,,,,,,,,,,blue,I
659.0,3.0,2.0,0.0,2.0,2.0,425.8049999480136,4.0,1.0,phase_1,,,,,,,,,,,,,gray,circle
183.0,5.0,0.5,1.0,1.0,1.0,471.2682669633068,4.0,1.0,phase_1,,,,,,,,,,,,,green,hexagon
1285.0,4.0,4.0,0.0,2.0,2.0,417.0033650007099,4.0,1.0,phase_1,,,,,,,,,,,,,magenta,square
1286.0,4.0,4.0,0.0,4.0,4.0,407.2480629547499,4.0,1.0,phase_1,,,,,,,,,,,,,magenta,square
1313.0,4.0,4.0,0.0,3.0,3.0,370.996412995737,4.0,1.0,phase_1,,,,,,,,,,,,,magenta,square
330.0,6.0,1.0,1.0,1.0,1.0,452.9784210026264,4.0,1.0,phase_1,,,,,,,,,,,,,blue,I
626.0,7.0,2.0,1.0,4.0,4.0,389.2735170084052,4.0,1.0,phase_1,,,,,,,,,,,,,white,flipped triangle
638.0,3.0,2.0,0.0,3.0,3.0,369.5712629705667,4.0,1.0,phase_1,,,,,,,,,,,,,gray,circle
319.0,2.0,1.0,0.0,2.0,2.0,378.2337580341846,4.0,1.0,phase_1,,,,,,,,,,,,,yellow,triangle
1314.0,8.0,4.0,1.0,4.0,4.0,389.036639011465,4.0,1.0,phase_1,,,,,,,,,,,,,orange,diamond
1317.0,4.0,4.0,0.0,3.0,3.0,398.7881840439513,4.0,1.0,phase_1,,,,,,,,,,,,,magenta,square
348.0,2.0,1.0,0.0,3.0,3.0,387.8188320086337,4.0,1.0,phase_1,,,,,,,,,,,,,yellow,triangle
139.0,5.0,0.5,1.0,1.0,1.0,599.6000580489635,4.0,1.0,phase_1,,,,,,,,,,,,,green,hexagon
325.0,6.0,1.0,1.0,2.0,2.0,434.7047409974038,4.0,1.0,phase_1,,,,,,,,,,,,,blue,I
638.0,3.0,2.0,0.0,1.0,1.0,517.607374000363,4.0,1.0,phase_1,,,,,,,,,,,,,gray,circle
1287.0,4.0,4.0,0.0,4.0,4.0,369.5829539792612,4.0,1.0,phase_1,,,,,,,,,,,,,magenta,square
345.0,6.0,1.0,1.0,2.0,2.0,415.9283259650692,4.0,1.0,phase_1,,,,,,,,,,,,,blue,I
669.0,3.0,2.0,0.0,3.0,3.0,397.7506250375882,4.0,1.0,phase_1,,,,,,,,,,,,,gray,circle
312.0,6.0,1.0,1.0,2.0,2.0,444.0939939813688,4.0,1.0,phase_1,,,,,,,,,,,,,blue,I
648.0,3.0,2.0,0.0,1.0,1.0,370.1499429880641,4.0,1.0,phase_1,,,,,,,,,,,,,gray,circle
177.0,5.0,0.5,1.0,3.0,3.0,747.0030119875446,4.0,1.0,phase_1,,,,,,,,,,,,,green,hexagon
644.0,3.0,2.0,0.0,4.0,4.0,388.4213870042003,4.0,1.0,phase_1,,,,,,,,,,,,,gray,circle
1307.0,8.0,4.0,1.0,2.0,2.0,370.0604460318573,4.0,1.0,phase_1,,,,,,,,,,,,,orange,diamond
1278.0,4.0,4.0,0.0,3.0,3.0,516.5611510165036,4.0,1.0,phase_1,,,,,,,,,,,,,magenta,square
641.0,7.0,2.0,1.0,3.0,3.0,351.7924339976161,4.0,1.0,phase_1,,,,,,,,,,,,,white,flipped triangle
629.0,7.0,2.0,1.0,3.0,3.0,397.4289369652979,4.0,1.0,phase_1,,,,,,,,,,,,,white,flipped triangle
0.0,6.0,0.0,1.0,1.0,1.0,480.6491680210456,4.0,1.0,phase_1,,,,,,,,,,,,,blue,I
0.0,5.0,0.0,1.0,4.0,4.0,508.0992490402423,4.0,1.0,phase_1,,,,,,,,,,,,,green,hexagon
328.0,6.0,1.0,1.0,3.0,3.0,396.7001449782401,4.0,1.0,phase_1,,,,,,,,,,,,,blue,I
174.0,1.0,0.5,0.0,1.0,1.0,526.6936589614488,4.0,1.0,phase_1,,,,,,,,,,,,,cyan,cross
1323.0,8.0,4.0,1.0,2.0,2.0,563.8363920152187,4.0,1.0,phase_1,,,,,,,,,,,,,orange,diamond
0.0,7.0,0.0,1.0,1.0,1.0,593.4087799978442,4.0,1.0,phase_1,,,,,,,,,,,,,white,flipped triangle
1314.0,4.0,4.0,0.0,1.0,1.0,416.7943529901095,4.0,1.0,phase_1,,,,,,,,,,,,,magenta,square
665.0,7.0,2.0,1.0,4.0,4.0,396.4058480341919,4.0,1.0,phase_1,,,,,,,,,,,,,white,flipped triangle
0.0,2.0,0.0,0.0,3.0,3.0,361.8107559741474,4.0,1.0,phase_1,,,,,,,,,,,,,yellow,triangle
0.0,2.0,0.0,0.0,2.0,2.0,370.237305003684,4.0,1.0,phase_1,,,,,,,,,,,,,yellow,triangle
170.0,1.0,0.5,0.0,2.0,2.0,322.4824960343539,4.0,1.0,phase_1,,,,,,,,,,,,,cyan,cross
670.0,3.0,2.0,0.0,4.0,4.0,333.2036089850589,4.0,1.0,phase_1,,,,,,,,,,,,,gray,circle
155.0,5.0,0.5,1.0,4.0,4.0,360.3356239618733,4.0,1.0,phase_1,,,,,,,,,,,,,green,hexagon
1324.0,4.0,4.0,0.0,4.0,4.0,340.3859229874797,4.0,1.0,phase_1,,,,,,,,,,,,,magenta,square
303.0,6.0,1.0,1.0,3.0,3.0,350.7854700437747,4.0,1.0,phase_1,,,,,,,,,,,,,blue,I
0.0,7.0,0.0,1.0,4.0,4.0,370.36409799475217,4.0,1.0,phase_1,,,,,,,,,,,,,white,flipped triangle
321.0,6.0,1.0,1.0,3.0,3.0,351.2131570023484,4.0,1.0,phase_1,,,,,,,,,,,,,blue,I
160.0,1.0,0.5,0.0,4.0,4.0,332.5498109916225,4.0,1.0,phase_1,,,,,,,,,,,,,cyan,cross
0.0,6.0,0.0,1.0,3.0,3.0,345.1121869729832,4.0,1.0,phase_1,,,,,,,,,,,,,blue,I
631.0,7.0,2.0,1.0,1.0,1.0,483.0467799911275,4.0,1.0,phase_1,,,,,,,,,,,,,white,flipped triangle
344.0,2.0,1.0,0.0,2.0,2.0,351.6013379557989,4.0,1.0,phase_1,,,,,,,,,,,,,yellow,triangle
636.0,7.0,2.0,1.0,1.0,1.0,784.7365849884227,4.0,1.0,phase_1,,,,,,,,,,,,,white,flipped triangle
178.0,1.0,0.5,0.0,1.0,1.0,425.309860962443,4.0,1.0,phase_1,,,,,,,,,,,,,cyan,cross
311.0,6.0,1.0,1.0,1.0,1.0,398.198393988423,4.0,1.0,phase_1,,,,,,,,,,,,,blue,I
1276.0,4.0,4.0,0.0,3.0,3.0,353.750163980294,4.0,1.0,phase_1,,,,,,,,,,,,,magenta,square
642.0,3.0,2.0,0.0,4.0,4.0,389.1855900292285,4.0,1.0,phase_1,,,,,,,,,,,,,gray,circle
340.0,2.0,1.0,0.0,3.0,3.0,361.2547100055963,4.0,1.0,phase_1,,,,,,,,,,,,,yellow,triangle
630.0,3.0,2.0,0.0,4.0,4.0,424.4695130037144,4.0,1.0,phase_1,,,,,,,,,,,,,gray,circle
1295.0,4.0,4.0,0.0,3.0,3.0,427.2559160017408,4.0,1.0,phase_1,,,,,,,,,,,,,magenta,square
0.0,4.0,0.0,0.0,4.0,4.0,360.5016649817116,4.0,1.0,phase_1,,,,,,,,,,,,,magenta,square
0.0,4.0,0.0,0.0,4.0,4.0,323.722783010453,4.0,1.0,phase_1,,,,,,,,,,,,,magenta,square
673.0,3.0,2.0,0.0,3.0,3.0,461.9333270238712,4.0,1.0,phase_1,,,,,,,,,,,,,gray,circle
1296.0,8.0,4.0,1.0,4.0,4.0,407.589178008493,4.0,1.0,phase_1,,,,,,,,,,,,,orange,diamond
0.0,4.0,0.0,0.0,4.0,4.0,415.2008859673515,4.0,1.0,phase_1,,,,,,,,,,,,,magenta,square
631.0,3.0,2.0,0.0,3.0,3.0,360.5855050263926,4.0,1.0,phase_1,,,,,,,,,,,,,gray,circle
652.0,7.0,2.0,1.0,4.0,4.0,295.4797139973379,4.0,1.0,phase_1,,,,,,,,,,,,,white,flipped triangle
1317.0,8.0,4.0,1.0,3.0,3.0,369.9393110000528,4.0,1.0,phase_1,,,,,,,,,,,,,orange,diamond
0.0,7.0,0.0,1.0,4.0,4.0,388.3771019754931,4.0,1.0,phase_1,,,,,,,,,,,,,white,flipped triangle
1309.0,4.0,4.0,0.0,3.0,3.0,443.457062006928,4.0,1.0,phase_1,,,,,,,,,,,,,magenta,square
1323.0,8.0,4.0,1.0,1.0,1.0,672.2271799808368,4.0,1.0,phase_1,,,,,,,,,,,,,orange,diamond
1286.0,4.0,4.0,0.0,1.0,1.0,711.3487829919904,4.0,1.0,phase_1,,,,,,,,,,,,,magenta,square
0.0,6.0,0.0,1.0,4.0,4.0,425.1477320212871,4.0,1.0,phase_1,,,,,,,,,,,,,blue,I
667.0,7.0,2.0,1.0,2.0,2.0,406.2245590030215,4.0,1.0,phase_1,,,,,,,,,,,,,white,flipped triangle
0.0,4.0,0.0,0.0,2.0,2.0,370.4201280488632,4.0,1.0,phase_1,,,,,,,,,,,,,magenta,square
342.0,6.0,1.0,1.0,4.0,4.0,397.1932369749993,4.0,1.0,phase_1,,,,,,,,,,,,,blue,I
0.0,6.0,1.0,1.0,6.0,6.0,622.3446590011008,1.0,1.0,phase_2,stop,250.0,250.0,3.0,,,,,,,,,blue,I
0.0,5.0,0.5,1.0,5.0,0.0,0.0,1.0,1.0,phase_2,stop,250.0,200.0,4.0,,,,,,,,,green,hexagon
0.0,7.0,2.0,1.0,5.0,5.0,948.3676610398106,1.0,1.0,phase_2,go,300.0,200.0,1.0,,,,,,,,,white,flipped triangle
0.0,7.0,2.0,1.0,5.0,5.0,1106.949496024754,1.0,1.0,phase_2,go,300.0,200.0,1.0,,,,,,,,,white,flipped triangle
0.0,3.0,2.0,0.0,5.0,5.0,968.1305199628696,1.0,1.0,phase_2,go,300.0,200.0,1.0,,,,,,,,,gray,circle
0.0,3.0,2.0,0.0,6.0,6.0,910.4751560371368,1.0,1.0,phase_2,go,300.0,200.0,1.0,,,,,,,,,gray,circle
0.0,6.0,1.0,1.0,5.0,0.0,0.0,1.0,1.0,phase_2,stop,300.0,200.0,4.0,,,,,,,,,blue,I
0.0,4.0,4.0,0.0,5.0,5.0,1054.5215889578683,1.0,1.0,phase_2,go,350.0,200.0,1.0,,,,,,,,,magenta,square
0.0,2.0,1.0,0.0,5.0,5.0,910.557780007366,1.0,1.0,phase_2,go,350.0,200.0,1.0,,,,,,,,,yellow,triangle
0.0,8.0,4.0,1.0,6.0,6.0,799.7101409710012,1.0,1.0,phase_2,go,350.0,200.0,1.0,,,,,,,,,orange,diamond
0.0,3.0,2.0,0.0,5.0,5.0,903.6154149798676,1.0,1.0,phase_2,go,350.0,200.0,1.0,,,,,,,,,gray,circle
0.0,4.0,4.0,0.0,5.0,5.0,714.7043289733119,1.0,1.0,phase_2,go,350.0,200.0,1.0,,,,,,,,,magenta,square
0.0,7.0,2.0,1.0,6.0,0.0,0.0,1.0,1.0,phase_2,stop,350.0,200.0,4.0,,,,,,,,,white,flipped triangle
0.0,4.0,4.0,0.0,5.0,5.0,939.4582589739002,1.0,1.0,phase_2,go,350.0,250.0,1.0,,,,,,,,,magenta,square
0.0,5.0,0.5,1.0,6.0,0.0,0.0,1.0,1.0,phase_2,stop,350.0,250.0,4.0,,,,,,,,,green,hexagon
0.0,1.0,0.5,0.0,5.0,5.0,615.4373020399362,1.0,1.0,phase_2,go,350.0,300.0,1.0,,,,,,,,,cyan,cross
0.0,7.0,2.0,1.0,5.0,5.0,1060.501080006361,1.0,1.0,phase_2,go,350.0,300.0,1.0,,,,,,,,,white,flipped triangle
0.0,7.0,2.0,1.0,5.0,0.0,0.0,1.0,1.0,phase_2,stop,350.0,300.0,4.0,,,,,,,,,white,flipped triangle
0.0,3.0,2.0,0.0,5.0,5.0,1025.0674239941873,1.0,1.0,phase_2,go,400.0,300.0,1.0,,,,,,,,,gray,circle
0.0,3.0,2.0,0.0,5.0,5.0,392.3661290318705,1.0,1.0,phase_2,go,400.0,300.0,1.0,,,,,,,,,gray,circle
0.0,5.0,0.5,1.0,5.0,0.0,0.0,1.0,1.0,phase_2,stop,400.0,300.0,4.0,,,,,,,,,green,hexagon
0.0,5.0,0.5,1.0,6.0,0.0,0.0,1.0,1.0,phase_2,stop,450.0,300.0,4.0,,,,,,,,,green,hexagon
0.0,2.0,1.0,0.0,5.0,5.0,893.3989540091716,1.0,1.0,phase_2,go,450.0,350.0,1.0,,,,,,,,,yellow,triangle
0.0,1.0,0.5,0.0,6.0,6.0,1089.647154964041,1.0,1.0,phase_2,go,450.0,350.0,1.0,,,,,,,,,cyan,cross
0.0,6.0,1.0,1.0,5.0,0.0,0.0,1.0,1.0,phase_2,stop,450.0,350.0,4.0,,,,,,,,,blue,I
0.0,7.0,2.0,1.0,5.0,0.0,0.0,1.0,1.0,phase_2,stop,500.0,350.0,4.0,,,,,,,,,white,flipped triangle
0.0,1.0,0.5,0.0,5.0,5.0,1146.710067987442,1.0,1.0,phase_2,go,550.0,350.0,1.0,,,,,,,,,cyan,cross
0.0,7.0,2.0,1.0,5.0,5.0,1302.802858990617,1.0,1.0,phase_2,go,550.0,350.0,1.0,,,,,,,,,white,flipped triangle
0.0,3.0,2.0,0.0,5.0,5.0,1219.560316996649,1.0,1.0,phase_2,go,550.0,350.0,1.0,,,,,,,,,gray,circle
0.0,2.0,1.0,0.0,6.0,6.0,993.4643690357916,1.0,1.0,phase_2,go,550.0,350.0,1.0,,,,,,,,,yellow,triangle
0.0,6.0,1.0,1.0,5.0,0.0,0.0,1.0,1.0,phase_2,stop,550.0,350.0,4.0,,,,,,,,,blue,I
0.0,2.0,1.0,0.0,5.0,5.0,1062.3891690047458,1.0,1.0,phase_2,go,600.0,350.0,1.0,,,,,,,,,yellow,triangle
0.0,6.0,1.0,1.0,6.0,0.0,0.0,1.0,1.0,phase_2,stop,600.0,350.0,4.0,,,,,,,,,blue,I
0.0,7.0,2.0,1.0,5.0,0.0,0.0,1.0,1.0,phase_2,stop,600.0,400.0,4.0,,,,,,,,,white,flipped triangle
0.0,6.0,1.0,1.0,6.0,0.0,0.0,1.0,1.0,phase_2,stop,650.0,400.0,4.0,,,,,,,,,blue,I
0.0,1.0,0.5,0.0,5.0,5.0,1023.1756269931791,1.0,1.0,phase_2,go,650.0,450.0,1.0,,,,,,,,,cyan,cross
0.0,4.0,4.0,0.0,6.0,6.0,976.4341710251756,2.0,1.0,phase_2,go,650.0,450.0,1.0,,,,,,,,,magenta,square
0.0,2.0,1.0,0.0,5.0,5.0,678.9451979566365,2.0,1.0,phase_2,go,650.0,450.0,1.0,,,,,,,,,yellow,triangle
0.0,7.0,2.0,1.0,6.0,6.0,506.87753298552707,2.0,1.0,phase_2,stop,650.0,450.0,3.0,,,,,,,,,white,flipped triangle
0.0,3.0,2.0,0.0,6.0,6.0,941.3492739549838,2.0,1.0,phase_2,go,650.0,400.0,1.0,,,,,,,,,gray,circle
0.0,1.0,0.5,0.0,5.0,5.0,930.5900149629452,2.0,1.0,phase_2,go,650.0,400.0,1.0,,,,,,,,,cyan,cross
0.0,3.0,2.0,0.0,5.0,5.0,913.498391979374,2.0,1.0,phase_2,go,650.0,400.0,1.0,,,,,,,,,gray,circle
0.0,4.0,4.0,0.0,5.0,5.0,817.5272169755772,2.0,1.0,phase_2,go,650.0,400.0,1.0,,,,,,,,,magenta,square
0.0,2.0,1.0,0.0,5.0,5.0,976.7628369736484,2.0,1.0,phase_2,go,650.0,400.0,1.0,,,,,,,,,yellow,triangle
0.0,4.0,4.0,0.0,6.0,6.0,1071.0451499908231,2.0,1.0,phase_2,go,650.0,400.0,1.0,,,,,,,,,magenta,square
0.0,5.0,0.5,1.0,5.0,0.0,0.0,2.0,1.0,phase_2,stop,650.0,400.0,4.0,,,,,,,,,green,hexagon
0.0,7.0,2.0,1.0,6.0,6.0,818.5682109906338,2.0,1.0,phase_2,go,700.0,400.0,1.0,,,,,,,,,white,flipped triangle
0.0,8.0,4.0,1.0,6.0,0.0,0.0,2.0,1.0,phase_2,stop,700.0,400.0,4.0,,,,,,,,,orange,diamond
0.0,3.0,2.0,0.0,5.0,5.0,910.0970060098916,2.0,1.0,phase_2,go,700.0,450.0,1.0,,,,,,,,,gray,circle
0.0,7.0,2.0,1.0,5.0,0.0,0.0,2.0,1.0,phase_2,stop,700.0,450.0,4.0,,,,,,,,,white,flipped triangle
0.0,6.0,1.0,1.0,5.0,5.0,856.8054499919526,2.0,1.0,phase_2,go,750.0,450.0,1.0,,,,,,,,,blue,I
0.0,6.0,1.0,1.0,5.0,0.0,0.0,2.0,1.0,phase_2,stop,750.0,450.0,4.0,,,,,,,,,blue,I
0.0,5.0,0.5,1.0,5.0,0.0,0.0,2.0,1.0,phase_2,stop,800.0,450.0,4.0,,,,,,,,,green,hexagon
0.0,6.0,1.0,1.0,6.0,0.0,0.0,2.0,1.0,phase_2,stop,850.0,450.0,4.0,,,,,,,,,blue,I
0.0,3.0,2.0,0.0,5.0,5.0,949.2243279819376,2.0,1.0,phase_2,go,850.0,500.0,1.0,,,,,,,,,gray,circle
0.0,5.0,0.5,1.0,5.0,5.0,1152.6715679792687,2.0,1.0,phase_2,go,850.0,500.0,1.0,,,,,,,,,green,hexagon
0.0,8.0,4.0,1.0,5.0,0.0,0.0,2.0,1.0,phase_2,stop,850.0,500.0,4.0,,,,,,,,,orange,diamond
0.0,7.0,2.0,1.0,6.0,0.0,0.0,2.0,1.0,phase_2,stop,900.0,500.0,4.0,,,,,,,,,white,flipped triangle
0.0,5.0,0.5,1.0,6.0,6.0,874.74833894521,2.0,1.0,phase_2,go,900.0,550.0,1.0,,,,,,,,,green,hexagon
0.0,5.0,0.5,1.0,5.0,5.0,946.5958759537898,2.0,1.0,phase_2,stop,900.0,550.0,3.0,,,,,,,,,green,hexagon
0.0,5.0,0.5,1.0,6.0,0.0,0.0,2.0,1.0,phase_2,stop,850.0,550.0,4.0,,,,,,,,,green,hexagon
0.0,2.0,1.0,0.0,6.0,6.0,1161.9697260321118,2.0,1.0,phase_2,go,850.0,600.0,1.0,,,,,,,,,yellow,triangle
0.0,1.0,0.5,0.0,5.0,5.0,1106.801159970928,2.0,1.0,phase_2,go,850.0,600.0,1.0,,,,,,,,,cyan,cross
0.0,2.0,1.0,0.0,5.0,5.0,1127.8907080413774,2.0,1.0,phase_2,go,850.0,600.0,1.0,,,,,,,,,yellow,triangle
0.0,7.0,2.0,1.0,5.0,5.0,996.9280069926754,2.0,1.0,phase_2,stop,850.0,600.0,3.0,,,,,,,,,white,flipped triangle
0.0,3.0,2.0,0.0,6.0,0.0,0.0,2.0,1.0,phase_2,go,800.0,600.0,5.0,,,,,,,,,gray,circle
0.0,5.0,0.5,1.0,6.0,6.0,739.2811320023611,2.0,1.0,phase_2,stop,800.0,600.0,3.0,,,,,,,,,green,hexagon
0.0,4.0,4.0,0.0,6.0,6.0,1025.5173780024052,2.0,1.0,phase_2,go,800.0,550.0,1.0,,,,,,,,,magenta,square
0.0,3.0,2.0,0.0,6.0,6.0,922.4167359643616,2.0,1.0,phase_2,go,800.0,550.0,1.0,,,,,,,,,gray,circle
0.0,1.0,0.5,0.0,6.0,6.0,1110.5751889990645,2.0,1.0,phase_2,go,800.0,550.0,1.0,,,,,,,,,cyan,cross
0.0,6.0,1.0,1.0,6.0,6.0,1008.0906560178846,2.0,1.0,phase_2,go,800.0,550.0,1.0,,,,,,,,,blue,I
0.0,6.0,1.0,1.0,6.0,0.0,0.0,2.0,1.0,phase_2,stop,800.0,550.0,4.0,,,,,,,,,blue,I
0.0,8.0,4.0,1.0,5.0,0.0,0.0,3.0,1.0,phase_2,stop,800.0,600.0,4.0,,,,,,,,,orange,diamond
0.0,1.0,0.5,0.0,5.0,5.0,1248.165400989819,3.0,1.0,phase_2,go,850.0,600.0,1.0,,,,,,,,,cyan,cross
0.0,5.0,0.5,1.0,6.0,0.0,0.0,3.0,1.0,phase_2,stop,850.0,600.0,4.0,,,,,,,,,green,hexagon
0.0,4.0,4.0,0.0,5.0,5.0,1040.4022430302575,3.0,1.0,phase_2,go,850.0,650.0,1.0,,,,,,,,,magenta,square
0.0,5.0,0.5,1.0,6.0,6.0,1197.369522997178,3.0,1.0,phase_2,go,850.0,650.0,1.0,,,,,,,,,green,hexagon
0.0,7.0,2.0,1.0,6.0,0.0,0.0,3.0,1.0,phase_2,stop,850.0,650.0,4.0,,,,,,,,,white,flipped triangle
0.0,4.0,4.0,0.0,6.0,6.0,854.1118270368315,3.0,1.0,phase_2,go,850.0,700.0,1.0,,,,,,,,,magenta,square
0.0,8.0,4.0,1.0,5.0,0.0,0.0,3.0,1.0,phase_2,stop,850.0,700.0,4.0,,,,,,,,,orange,diamond
0.0,2.0,1.0,0.0,6.0,6.0,1035.5105169583112,3.0,1.0,phase_2,go,900.0,700.0,1.0,,,,,,,,,yellow,triangle
0.0,5.0,0.5,1.0,5.0,0.0,0.0,3.0,1.0,phase_2,stop,900.0,700.0,4.0,,,,,,,,,green,hexagon
0.0,4.0,4.0,0.0,5.0,5.0,1192.2817220329307,3.0,1.0,phase_2,go,950.0,700.0,1.0,,,,,,,,,magenta,square
0.0,4.0,4.0,0.0,6.0,6.0,1118.254883971531,3.0,1.0,phase_2,go,950.0,700.0,1.0,,,,,,,,,magenta,square
0.0,8.0,4.0,1.0,5.0,5.0,990.8546149963512,3.0,1.0,phase_2,stop,950.0,700.0,3.0,,,,,,,,,orange,diamond
0.0,6.0,1.0,1.0,6.0,6.0,737.1500459848903,3.0,1.0,phase_2,go,900.0,700.0,1.0,,,,,,,,,blue,I
0.0,6.0,1.0,1.0,6.0,6.0,365.1917909737676,3.0,1.0,phase_2,stop,900.0,700.0,3.0,,,,,,,,,blue,I
0.0,8.0,4.0,1.0,6.0,0.0,0.0,3.0,1.0,phase_2,stop,900.0,650.0,4.0,,,,,,,,,orange,diamond
0.0,3.0,2.0,0.0,5.0,5.0,979.7559549915604,3.0,1.0,phase_2,go,900.0,700.0,1.0,,,,,,,,,gray,circle
0.0,6.0,1.0,1.0,5.0,5.0,1118.103664019145,3.0,1.0,phase_2,go,900.0,700.0,1.0,,,,,,,,,blue,I
0.0,8.0,4.0,1.0,5.0,0.0,0.0,3.0,1.0,phase_2,stop,900.0,700.0,4.0,,,,,,,,,orange,diamond
0.0,6.0,1.0,1.0,6.0,0.0,0.0,3.0,1.0,phase_2,stop,950.0,700.0,4.0,,,,,,,,,blue,I
0.0,7.0,2.0,1.0,5.0,5.0,902.6866969652474,3.0,1.0,phase_2,go,950.0,750.0,1.0,,,,,,,,,white,flipped triangle
0.0,5.0,0.5,1.0,5.0,0.0,0.0,3.0,1.0,phase_2,stop,950.0,750.0,4.0,,,,,,,,,green,hexagon
0.0,7.0,2.0,1.0,6.0,0.0,0.0,3.0,1.0,phase_2,stop,1000.0,750.0,4.0,,,,,,,,,white,flipped triangle
0.0,3.0,2.0,0.0,6.0,6.0,1019.6670080185868,3.0,1.0,phase_2,go,1000.0,800.0,1.0,,,,,,,,,gray,circle
0.0,8.0,4.0,1.0,6.0,0.0,0.0,3.0,1.0,phase_2,stop,1000.0,800.0,4.0,,,,,,,,,orange,diamond
0.0,4.0,4.0,0.0,6.0,6.0,1155.7017439627089,3.0,1.0,phase_2,go,1000.0,850.0,1.0,,,,,,,,,magenta,square
0.0,7.0,2.0,1.0,5.0,0.0,0.0,3.0,1.0,phase_2,stop,1000.0,850.0,4.0,,,,,,,,,white,flipped triangle
0.0,1.0,0.5,0.0,6.0,6.0,961.5153910126536,3.0,1.0,phase_2,go,1050.0,850.0,1.0,,,,,,,,,cyan,cross
0.0,3.0,2.0,0.0,6.0,6.0,1196.046255994588,3.0,1.0,phase_2,go,1050.0,850.0,1.0,,,,,,,,,gray,circle
0.0,6.0,1.0,1.0,6.0,0.0,0.0,3.0,1.0,phase_2,stop,1050.0,850.0,4.0,,,,,,,,,blue,I
0.0,1.0,0.5,0.0,6.0,6.0,978.6419999436476,3.0,1.0,phase_2,go,1050.0,900.0,1.0,,,,,,,,,cyan,cross
0.0,4.0,4.0,0.0,6.0,6.0,1269.143375044223,3.0,1.0,phase_2,go,1050.0,900.0,1.0,,,,,,,,,magenta,square
0.0,5.0,0.5,1.0,6.0,6.0,1016.3962580263617,3.0,1.0,phase_2,stop,1050.0,900.0,3.0,,,,,,,,,green,hexagon
0.0,1.0,0.5,0.0,5.0,5.0,1165.1014880044386,3.0,1.0,phase_2,go,1050.0,850.0,1.0,,,,,,,,,cyan,cross
0.0,2.0,1.0,0.0,6.0,6.0,1222.5481539499017,3.0,1.0,phase_2,go,1050.0,850.0,1.0,,,,,,,,,yellow,triangle
0.0,7.0,2.0,1.0,5.0,0.0,0.0,3.0,1.0,phase_2,stop,1050.0,850.0,4.0,,,,,,,,,white,flipped triangle
0.0,3.0,2.0,0.0,5.0,5.0,1209.574682987295,4.0,1.0,phase_2,go,1100.0,850.0,1.0,,,,,,,,,gray,circle
0.0,3.0,2.0,0.0,5.0,5.0,1276.4069810509682,4.0,1.0,phase_2,go,1100.0,850.0,1.0,,,,,,,,,gray,circle
0.0,5.0,0.5,1.0,5.0,0.0,0.0,4.0,1.0,phase_2,stop,1100.0,850.0,4.0,,,,,,,,,green,hexagon
0.0,8.0,4.0,1.0,6.0,6.0,1478.2064140308648,4.0,1.0,phase_2,go,1150.0,850.0,1.0,,,,,,,,,orange,diamond
0.0,6.0,1.0,1.0,6.0,0.0,0.0,4.0,1.0,phase_2,stop,1150.0,850.0,4.0,,,,,,,,,blue,I
0.0,3.0,2.0,0.0,5.0,5.0,1481.4836150035262,4.0,1.0,phase_2,go,1150.0,900.0,1.0,,,,,,,,,gray,circle
0.0,2.0,1.0,0.0,6.0,6.0,1377.415208960883,4.0,1.0,phase_2,go,1150.0,900.0,1.0,,,,,,,,,yellow,triangle
0.0,7.0,2.0,1.0,6.0,0.0,0.0,4.0,1.0,phase_2,stop,1150.0,900.0,4.0,,,,,,,,,white,flipped triangle
0.0,5.0,0.5,1.0,6.0,0.0,0.0,4.0,1.0,phase_2,stop,1150.0,950.0,4.0,,,,,,,,,green,hexagon
0.0,1.0,0.5,0.0,5.0,5.0,1268.8433909788728,4.0,1.0,phase_2,go,1150.0,1000.0,1.0,,,,,,,,,cyan,cross
0.0,1.0,0.5,0.0,6.0,6.0,1304.4302010093816,4.0,1.0,phase_2,go,1150.0,1000.0,1.0,,,,,,,,,cyan,cross
0.0,2.0,1.0,0.0,6.0,6.0,1295.4294289811514,4.0,1.0,phase_2,go,1150.0,1000.0,1.0,,,,,,,,,yellow,triangle
0.0,5.0,0.5,1.0,5.0,5.0,1238.217241014354,4.0,1.0,phase_2,stop,1150.0,1000.0,3.0,,,,,,,,,green,hexagon
0.0,1.0,0.5,0.0,5.0,0.0,0.0,4.0,1.0,phase_2,go,1100.0,1000.0,5.0,,,,,,,,,cyan,cross
0.0,1.0,0.5,0.0,6.0,0.0,0.0,4.0,1.0,phase_2,go,1100.0,1000.0,5.0,,,,,,,,,cyan,cross
0.0,7.0,2.0,1.0,6.0,6.0,912.3643300263212,4.0,1.0,phase_2,stop,1100.0,1000.0,3.0,,,,,,,,,white,flipped triangle
0.0,4.0,4.0,0.0,6.0,6.0,914.3696699757128,4.0,1.0,phase_2,go,1100.0,950.0,1.0,,,,,,,,,magenta,square
0.0,2.0,1.0,0.0,5.0,5.0,672.6742009632289,4.0,1.0,phase_2,go,1100.0,950.0,1.0,,,,,,,,,yellow,triangle
0.0,4.0,4.0,0.0,6.0,6.0,520.894629007671,4.0,1.0,phase_2,go,1100.0,950.0,1.0,,,,,,,,,magenta,square
0.0,7.0,2.0,1.0,6.0,6.0,1127.1216199966148,4.0,1.0,phase_2,go,1100.0,950.0,1.0,,,,,,,,,white,flipped triangle
0.0,5.0,0.5,1.0,6.0,6.0,1129.4733579852618,4.0,1.0,phase_2,stop,1100.0,950.0,3.0,,,,,,,,,green,hexagon
0.0,4.0,4.0,0.0,6.0,0.0,0.0,4.0,1.0,phase_2,go,1100.0,900.0,5.0,,,,,,,,,magenta,square
0.0,4.0,4.0,0.0,6.0,6.0,1176.084490027279,4.0,1.0,phase_2,go,1100.0,900.0,1.0,,,,,,,,,magenta,square
0.0,1.0,0.5,0.0,6.0,6.0,998.6217499827036,4.0,1.0,phase_2,go,1100.0,900.0,1.0,,,,,,,,,cyan,cross
0.0,3.0,2.0,0.0,5.0,5.0,1108.1735439947806,4.0,1.0,phase_2,go,1100.0,900.0,1.0,,,,,,,,,gray,circle
0.0,8.0,4.0,1.0,6.0,6.0,1193.4237459790893,4.0,1.0,phase_2,go,1100.0,900.0,1.0,,,,,,,,,orange,diamond
0.0,1.0,0.5,0.0,5.0,5.0,1056.1748949694447,4.0,1.0,phase_2,go,1100.0,900.0,1.0,,,,,,,,,cyan,cross
0.0,6.0,1.0,1.0,6.0,6.0,1203.3810879802331,4.0,1.0,phase_2,go,1100.0,900.0,1.0,,,,,,,,,blue,I
0.0,4.0,4.0,0.0,5.0,5.0,1175.8587270160206,4.0,1.0,phase_2,go,1100.0,900.0,1.0,,,,,,,,,magenta,square
0.0,4.0,4.0,0.0,5.0,5.0,1145.7202319870703,4.0,1.0,phase_2,go,1100.0,900.0,1.0,,,,,,,,,magenta,square
0.0,8.0,4.0,1.0,5.0,5.0,1151.3881499995475,4.0,1.0,phase_2,stop,1100.0,900.0,3.0,,,,,,,,,orange,diamond
0.0,3.0,2.0,0.0,5.0,5.0,1100.4412570036948,4.0,1.0,phase_2,go,1050.0,900.0,1.0,,,,,,,,,gray,circle
0.0,2.0,1.0,0.0,6.0,6.0,1314.7274240036495,4.0,1.0,phase_2,go,1050.0,900.0,1.0,,,,,,,,,yellow,triangle
0.0,3.0,2.0,0.0,5.0,5.0,1036.039979022462,4.0,1.0,phase_2,go,1050.0,900.0,1.0,,,,,,,,,gray,circle
0.0,8.0,4.0,1.0,6.0,0.0,0.0,4.0,1.0,phase_2,stop,1050.0,900.0,4.0,,,,,,,,,orange,diamond
0.0,5.0,0.5,1.0,5.0,0.0,0.0,4.0,1.0,phase_2,go,1050.0,950.0,5.0,,,,,,,,,green,hexagon
0.0,8.0,4.0,1.0,5.0,5.0,855.7684940169565,5.0,1.0,phase_2,go,1050.0,950.0,1.0,,,,,,,,,orange,diamond
0.0,6.0,1.0,1.0,6.0,6.0,987.349275033921,5.0,1.0,phase_2,stop,1050.0,950.0,3.0,,,,,,,,,blue,I
0.0,8.0,4.0,1.0,6.0,6.0,782.6586620067246,5.0,1.0,phase_2,stop,1050.0,900.0,3.0,,,,,,,,,orange,diamond
0.0,7.0,2.0,1.0,5.0,5.0,541.1205319687724,5.0,1.0,phase_2,stop,1050.0,850.0,3.0,,,,,,,,,white,flipped triangle
0.0,4.0,4.0,0.0,6.0,6.0,700.7283249986358,5.0,1.0,phase_2,go,1000.0,850.0,1.0,,,,,,,,,magenta,square
0.0,1.0,0.5,0.0,6.0,6.0,1051.6054039471785,5.0,1.0,phase_2,go,1000.0,850.0,1.0,,,,,,,,,cyan,cross
0.0,8.0,4.0,1.0,5.0,5.0,1088.9954770100303,5.0,1.0,phase_2,stop,1000.0,850.0,3.0,,,,,,,,,orange,diamond
0.0,8.0,4.0,1.0,5.0,5.0,951.0133570292963,5.0,1.0,phase_2,go,950.0,850.0,1.0,,,,,,,,,orange,diamond
0.0,7.0,2.0,1.0,6.0,6.0,809.1988629894331,5.0,1.0,phase_2,stop,950.0,850.0,3.0,,,,,,,,,white,flipped triangle
0.0,1.0,0.5,0.0,5.0,5.0,1108.3282160107046,5.0,1.0,phase_2,go,950.0,800.0,1.0,,,,,,,,,cyan,cross
0.0,3.0,2.0,0.0,5.0,5.0,1435.013392008841,5.0,1.0,phase_2,go,950.0,800.0,1.0,,,,,,,,,gray,circle
0.0,2.0,1.0,0.0,5.0,5.0,1333.274786011316,5.0,1.0,phase_2,go,950.0,800.0,1.0,,,,,,,,,yellow,triangle
0.0,6.0,1.0,1.0,6.0,0.0,0.0,5.0,1.0,phase_2,stop,950.0,800.0,4.0,,,,,,,,,blue,I
0.0,6.0,1.0,1.0,5.0,0.0,0.0,5.0,1.0,phase_2,stop,950.0,850.0,4.0,,,,,,,,,blue,I
0.0,2.0,1.0,0.0,6.0,6.0,1199.11598903127,5.0,1.0,phase_2,go,1000.0,850.0,1.0,,,,,,,,,yellow,triangle
0.0,6.0,1.0,1.0,5.0,5.0,1396.3774830335751,5.0,1.0,phase_2,go,1000.0,850.0,1.0,,,,,,,,,blue,I
0.0,4.0,4.0,0.0,5.0,5.0,1480.1760509726591,5.0,1.0,phase_2,go,1000.0,850.0,1.0,,,,,,,,,magenta,square
0.0,5.0,0.5,1.0,5.0,0.0,0.0,5.0,1.0,phase_2,stop,1000.0,850.0,4.0,,,,,,,,,green,hexagon
0.0,4.0,4.0,0.0,6.0,0.0,0.0,5.0,1.0,phase_2,go,1050.0,850.0,5.0,,,,,,,,,magenta,square
0.0,3.0,2.0,0.0,5.0,5.0,1419.9297570157796,5.0,1.0,phase_2,go,1050.0,850.0,1.0,,,,,,,,,gray,circle
0.0,8.0,4.0,1.0,6.0,0.0,0.0,5.0,1.0,phase_2,stop,1050.0,850.0,4.0,,,,,,,,,orange,diamond
0.0,3.0,2.0,0.0,6.0,6.0,1159.6563769853674,5.0,1.0,phase_2,go,1050.0,900.0,1.0,,,,,,,,,gray,circle
0.0,6.0,1.0,1.0,6.0,0.0,0.0,5.0,1.0,phase_2,stop,1050.0,900.0,4.0,,,,,,,,,blue,I
0.0,6.0,1.0,1.0,5.0,5.0,1259.8401250434108,5.0,1.0,phase_2,stop,1050.0,950.0,3.0,,,,,,,,,blue,I
0.0,1.0,0.5,0.0,5.0,5.0,1332.6375660253689,5.0,1.0,phase_2,go,1000.0,950.0,1.0,,,,,,,,,cyan,cross
0.0,3.0,2.0,0.0,6.0,6.0,1426.813090976793,5.0,1.0,phase_2,go,1000.0,950.0,1.0,,,,,,,,,gray,circle
0.0,1.0,0.5,0.0,6.0,0.0,0.0,5.0,1.0,phase_2,go,1000.0,950.0,5.0,,,,,,,,,cyan,cross
0.0,5.0,0.5,1.0,5.0,0.0,0.0,5.0,1.0,phase_2,go,1000.0,950.0,5.0,,,,,,,,,green,hexagon
0.0,8.0,4.0,1.0,5.0,5.0,849.6025329804979,5.0,1.0,phase_2,stop,1000.0,950.0,3.0,,,,,,,,,orange,diamond
0.0,2.0,1.0,0.0,5.0,5.0,1100.887993001379,5.0,1.0,phase_2,go,950.0,950.0,1.0,,,,,,,,,yellow,triangle
0.0,2.0,1.0,0.0,5.0,5.0,392.0007809647359,5.0,1.0,phase_2,go,950.0,950.0,1.0,,,,,,,,,yellow,triangle
0.0,4.0,4.0,0.0,5.0,5.0,951.052266987972,5.0,1.0,phase_2,go,950.0,950.0,1.0,,,,,,,,,magenta,square
0.0,7.0,2.0,1.0,6.0,6.0,857.0535940234549,5.0,1.0,phase_2,stop,950.0,950.0,3.0,,,,,,,,,white,flipped triangle
0.0,5.0,0.5,1.0,5.0,0.0,0.0,5.0,1.0,phase_2,stop,950.0,900.0,4.0,,,,,,,,,green,hexagon
0.0,6.0,1.0,1.0,5.0,5.0,1257.4634759803305,5.0,1.0,phase_2,go,1000.0,900.0,1.0,,,,,,,,,blue,I
0.0,8.0,4.0,1.0,5.0,0.0,0.0,5.0,1.0,phase_2,stop,1000.0,900.0,4.0,,,,,,,,,orange,diamond
0.0,3.0,2.0,0.0,6.0,6.0,784.0837920084596,6.0,1.0,phase_2,go,1050.0,900.0,1.0,,,,,,,,,gray,circle
0.0,3.0,2.0,0.0,6.0,6.0,1253.9290669956245,6.0,1.0,phase_2,go,1050.0,900.0,1.0,,,,,,,,,gray,circle
0.0,4.0,4.0,0.0,6.0,6.0,1222.311322984751,6.0,1.0,phase_2,go,1050.0,900.0,1.0,,,,,,,,,magenta,square
0.0,8.0,4.0,1.0,5.0,5.0,1064.0393640496768,6.0,1.0,phase_2,go,1050.0,900.0,1.0,,,,,,,,,orange,diamond
0.0,6.0,1.0,1.0,5.0,5.0,1010.7040790026076,6.0,1.0,phase_2,go,1050.0,900.0,1.0,,,,,,,,,blue,I
0.0,8.0,4.0,1.0,6.0,0.0,0.0,6.0,1.0,phase_2,stop,1050.0,900.0,4.0,,,,,,,,,orange,diamond
0.0,4.0,4.0,0.0,5.0,5.0,1317.1131070121191,6.0,1.0,phase_2,go,1050.0,950.0,1.0,,,,,,,,,magenta,square
0.0,7.0,2.0,1.0,6.0,0.0,0.0,6.0,1.0,phase_2,stop,1050.0,950.0,4.0,,,,,,,,,white,flipped triangle
0.0,5.0,0.5,1.0,5.0,0.0,0.0,6.0,1.0,phase_2,stop,1050.0,1000.0,4.0,,,,,,,,,green,hexagon
0.0,2.0,1.0,0.0,5.0,5.0,1286.6530789760873,6.0,1.0,phase_2,go,1100.0,1000.0,1.0,,,,,,,,,yellow,triangle
0.0,7.0,2.0,1.0,5.0,5.0,1073.1570710195228,6.0,1.0,phase_2,stop,1100.0,1000.0,3.0,,,,,,,,,white,flipped triangle
0.0,7.0,2.0,1.0,6.0,0.0,0.0,6.0,1.0,phase_2,stop,1050.0,1000.0,4.0,,,,,,,,,white,flipped triangle
0.0,6.0,1.0,1.0,5.0,5.0,1092.7520000259392,6.0,1.0,phase_2,stop,1050.0,1050.0,3.0,,,,,,,,,blue,I
0.0,3.0,2.0,0.0,6.0,6.0,1025.5167260183953,6.0,1.0,phase_2,go,1000.0,1050.0,1.0,,,,,,,,,gray,circle
0.0,7.0,2.0,1.0,6.0,6.0,729.466985038016,6.0,1.0,phase_2,stop,1000.0,1050.0,3.0,,,,,,,,,white,flipped triangle
0.0,5.0,0.5,1.0,5.0,5.0,961.1931719700806,6.0,1.0,phase_2,stop,1000.0,1000.0,3.0,,,,,,,,,green,hexagon
0.0,4.0,4.0,0.0,6.0,6.0,1211.172470997553,6.0,1.0,phase_2,go,950.0,1000.0,1.0,,,,,,,,,magenta,square
0.0,4.0,4.0,0.0,5.0,5.0,1174.0888990461826,6.0,1.0,phase_2,go,950.0,1000.0,1.0,,,,,,,,,magenta,square
0.0,3.0,2.0,0.0,6.0,6.0,1325.8659319835715,6.0,1.0,phase_2,go,950.0,1000.0,1.0,,,,,,,,,gray,circle
0.0,3.0,2.0,0.0,6.0,6.0,1221.5482679894194,6.0,1.0,phase_2,go,950.0,1000.0,1.0,,,,,,,,,gray,circle
0.0,3.0,2.0,0.0,5.0,5.0,1016.570802021306,6.0,1.0,phase_2,go,950.0,1000.0,1.0,,,,,,,,,gray,circle
0.0,8.0,4.0,1.0,5.0,0.0,0.0,6.0,1.0,phase_2,stop,950.0,1000.0,4.0,,,,,,,,,orange,diamond
0.0,2.0,1.0,0.0,6.0,6.0,1274.9789190129377,6.0,1.0,phase_2,go,1000.0,1000.0,1.0,,,,,,,,,yellow,triangle
0.0,1.0,0.5,0.0,5.0,5.0,1201.4979050145485,6.0,1.0,phase_2,go,1000.0,1000.0,1.0,,,,,,,,,cyan,cross
0.0,1.0,0.5,0.0,5.0,5.0,1274.656708992552,6.0,1.0,phase_2,go,1000.0,1000.0,1.0,,,,,,,,,cyan,cross
0.0,8.0,4.0,1.0,6.0,0.0,0.0,6.0,1.0,phase_2,stop,1000.0,1000.0,4.0,,,,,,,,,orange,diamond
0.0,6.0,1.0,1.0,6.0,0.0,0.0,6.0,1.0,phase_2,stop,1000.0,1050.0,4.0,,,,,,,,,blue,I
0.0,3.0,2.0,0.0,6.0,6.0,1343.5047550010497,6.0,1.0,phase_2,go,1000.0,1100.0,1.0,,,,,,,,,gray,circle
0.0,2.0,1.0,0.0,6.0,0.0,0.0,6.0,1.0,phase_2,go,1000.0,1100.0,5.0,,,,,,,,,yellow,triangle
0.0,3.0,2.0,0.0,6.0,6.0,1007.3267120169476,6.0,1.0,phase_2,go,1000.0,1100.0,1.0,,,,,,,,,gray,circle
0.0,1.0,0.5,0.0,6.0,6.0,1078.438271943014,6.0,1.0,phase_2,go,1000.0,1100.0,1.0,,,,,,,,,cyan,cross
0.0,1.0,0.5,0.0,6.0,6.0,1078.8191530155018,6.0,1.0,phase_2,go,1000.0,1100.0,1.0,,,,,,,,,cyan,cross
0.0,8.0,4.0,1.0,6.0,6.0,1045.667995000258,6.0,1.0,phase_2,stop,1000.0,1100.0,3.0,,,,,,,,,orange,diamond
0.0,5.0,0.5,1.0,6.0,0.0,0.0,6.0,1.0,phase_2,stop,1000.0,1050.0,4.0,,,,,,,,,green,hexagon
0.0,2.0,1.0,0.0,5.0,5.0,1268.176237994339,6.0,1.0,phase_2,go,1000.0,1100.0,1.0,,,,,,,,,yellow,triangle
0.0,2.0,1.0,0.0,5.0,5.0,1026.5584589797072,6.0,1.0,phase_2,go,1000.0,1100.0,1.0,,,,,,,,,yellow,triangle
0.0,1.0,0.5,0.0,6.0,6.0,1079.7895720461383,7.0,1.0,phase_2,go,1000.0,1100.0,1.0,,,,,,,,,cyan,cross
0.0,7.0,2.0,1.0,5.0,0.0,0.0,7.0,1.0,phase_2,stop,1000.0,1100.0,4.0,,,,,,,,,white,flipped triangle
0.0,2.0,1.0,0.0,6.0,6.0,1156.5525339683518,7.0,1.0,phase_2,go,1050.0,1100.0,1.0,,,,,,,,,yellow,triangle
0.0,2.0,1.0,0.0,6.0,6.0,783.3609969820827,7.0,1.0,phase_2,go,1050.0,1100.0,1.0,,,,,,,,,yellow,triangle
0.0,5.0,0.5,1.0,6.0,6.0,894.419691991061,7.0,1.0,phase_2,go,1050.0,1100.0,1.0,,,,,,,,,green,hexagon
0.0,8.0,4.0,1.0,5.0,5.0,909.9228599807248,7.0,1.0,phase_2,go,1050.0,1100.0,1.0,,,,,,,,,orange,diamond
0.0,6.0,1.0,1.0,5.0,5.0,1035.4185869800858,7.0,1.0,phase_2,stop,1050.0,1100.0,3.0,,,,,,,,,blue,I
0.0,6.0,1.0,1.0,6.0,0.0,0.0,7.0,1.0,phase_2,stop,1000.0,1100.0,4.0,,,,,,,,,blue,I
0.0,6.0,1.0,1.0,6.0,6.0,1297.197773004882,7.0,1.0,phase_2,stop,1000.0,1150.0,3.0,,,,,,,,,blue,I
0.0,3.0,2.0,0.0,6.0,6.0,1230.7637369958684,7.0,1.0,phase_2,go,1000.0,1100.0,1.0,,,,,,,,,gray,circle
0.0,3.0,2.0,0.0,6.0,6.0,1403.7274199654348,7.0,1.0,phase_2,go,1000.0,1100.0,1.0,,,,,,,,,gray,circle
0.0,5.0,0.5,1.0,5.0,0.0,0.0,7.0,1.0,phase_2,go,1000.0,1100.0,5.0,,,,,,,,,green,hexagon
0.0,4.0,4.0,0.0,5.0,0.0,0.0,7.0,1.0,phase_2,go,1000.0,1100.0,5.0,,,,,,,,,magenta,square
0.0,8.0,4.0,1.0,5.0,5.0,1184.5724959857762,7.0,1.0,phase_2,go,1000.0,1100.0,1.0,,,,,,,,,orange,diamond
0.0,7.0,2.0,1.0,5.0,0.0,0.0,7.0,1.0,phase_2,stop,1000.0,1100.0,4.0,,,,,,,,,white,flipped triangle
0.0,8.0,4.0,1.0,6.0,0.0,0.0,7.0,1.0,phase_2,stop,1050.0,1100.0,4.0,,,,,,,,,orange,diamond
0.0,4.0,4.0,0.0,5.0,5.0,1236.608317005448,7.0,1.0,phase_2,go,1050.0,1150.0,1.0,,,,,,,,,magenta,square
0.0,1.0,0.5,0.0,5.0,5.0,1454.4404430198483,7.0,1.0,phase_2,go,1050.0,1150.0,1.0,,,,,,,,,cyan,cross
0.0,2.0,1.0,0.0,6.0,6.0,1158.710532996338,7.0,1.0,phase_2,go,1050.0,1150.0,1.0,,,,,,,,,yellow,triangle
0.0,2.0,1.0,0.0,6.0,6.0,1100.8463129983284,7.0,1.0,phase_2,go,1050.0,1150.0,1.0,,,,,,,,,yellow,triangle
0.0,5.0,0.5,1.0,6.0,6.0,1017.8846720373258,7.0,1.0,phase_2,stop,1050.0,1150.0,3.0,,,,,,,,,green,hexagon
0.0,1.0,0.5,0.0,5.0,5.0,1322.6671479642391,7.0,1.0,phase_2,go,1050.0,1100.0,1.0,,,,,,,,,cyan,cross
0.0,2.0,1.0,0.0,6.0,6.0,1100.521878048312,7.0,1.0,phase_2,go,1050.0,1100.0,1.0,,,,,,,,,yellow,triangle
0.0,4.0,4.0,0.0,6.0,6.0,1249.2502439999953,7.0,1.0,phase_2,go,1050.0,1100.0,1.0,,,,,,,,,magenta,square
0.0,1.0,0.5,0.0,6.0,6.0,1110.0675520137884,7.0,1.0,phase_2,go,1050.0,1100.0,1.0,,,,,,,,,cyan,cross
0.0,4.0,4.0,0.0,5.0,5.0,1108.426655002404,7.0,1.0,phase_2,go,1050.0,1100.0,1.0,,,,,,,,,magenta,square
0.0,2.0,1.0,0.0,6.0,6.0,1180.1006689784117,7.0,1.0,phase_2,go,1050.0,1100.0,1.0,,,,,,,,,yellow,triangle
0.0,5.0,0.5,1.0,6.0,6.0,1164.6357360295951,7.0,1.0,phase_2,stop,1050.0,1100.0,3.0,,,,,,,,,green,hexagon
0.0,7.0,2.0,1.0,6.0,0.0,0.0,7.0,1.0,phase_2,stop,1050.0,1050.0,4.0,,,,,,,,,white,flipped triangle
0.0,7.0,2.0,1.0,5.0,0.0,0.0,7.0,1.0,phase_2,go,1050.0,1100.0,5.0,,,,,,,,,white,flipped triangle
0.0,6.0,1.0,1.0,5.0,5.0,1412.87670499878,7.0,1.0,phase_2,stop,1050.0,1100.0,3.0,,,,,,,,,blue,I
0.0,8.0,4.0,1.0,6.0,0.0,0.0,7.0,1.0,phase_2,stop,1000.0,1100.0,4.0,,,,,,,,,orange,diamond
0.0,7.0,2.0,1.0,6.0,0.0,0.0,7.0,1.0,phase_2,stop,1000.0,1150.0,4.0,,,,,,,,,white,flipped triangle
0.0,4.0,4.0,0.0,6.0,6.0,1210.892383009195,7.0,1.0,phase_2,go,1000.0,1200.0,1.0,,,,,,,,,magenta,square
0.0,1.0,0.5,0.0,6.0,6.0,1323.7766129896045,7.0,1.0,phase_2,go,1000.0,1200.0,1.0,,,,,,,,,cyan,cross
0.0,1.0,0.5,0.0,6.0,6.0,1275.5601159879006,7.0,1.0,phase_2,go,1000.0,1200.0,1.0,,,,,,,,,cyan,cross
0.0,2.0,1.0,0.0,5.0,5.0,1209.647149022203,8.0,1.0,phase_2,go,1000.0,1200.0,1.0,,,,,,,,,yellow,triangle
0.0,7.0,2.0,1.0,6.0,6.0,1245.4096529982053,8.0,1.0,phase_2,stop,1000.0,1200.0,3.0,,,,,,,,,white,flipped triangle
0.0,6.0,1.0,1.0,5.0,5.0,1072.5606440100821,8.0,1.0,phase_2,go,1000.0,1150.0,1.0,,,,,,,,,blue,I
0.0,2.0,1.0,0.0,6.0,6.0,1378.4502089838495,8.0,1.0,phase_2,go,1000.0,1150.0,1.0,,,,,,,,,yellow,triangle
0.0,8.0,4.0,1.0,5.0,0.0,0.0,8.0,1.0,phase_2,stop,1000.0,1150.0,4.0,,,,,,,,,orange,diamond
0.0,5.0,0.5,1.0,5.0,0.0,0.0,8.0,1.0,phase_2,stop,1050.0,1150.0,4.0,,,,,,,,,green,hexagon
0.0,3.0,2.0,0.0,6.0,0.0,0.0,8.0,1.0,phase_2,go,1100.0,1150.0,5.0,,,,,,,,,gray,circle
0.0,8.0,4.0,1.0,5.0,0.0,0.0,8.0,1.0,phase_2,stop,1100.0,1150.0,4.0,,,,,,,,,orange,diamond
0.0,8.0,4.0,1.0,6.0,6.0,930.1035639946348,8.0,1.0,phase_2,stop,1150.0,1150.0,3.0,,,,,,,,,orange,diamond
0.0,4.0,4.0,0.0,6.0,6.0,1044.835226959549,8.0,1.0,phase_2,go,1150.0,1100.0,1.0,,,,,,,,,magenta,square
0.0,2.0,1.0,0.0,6.0,6.0,1402.7095509809442,8.0,1.0,phase_2,go,1150.0,1100.0,1.0,,,,,,,,,yellow,triangle
0.0,5.0,0.5,1.0,6.0,0.0,0.0,8.0,1.0,phase_2,stop,1150.0,1100.0,4.0,,,,,,,,,green,hexagon
0.0,7.0,2.0,1.0,6.0,6.0,1245.4237019992431,8.0,1.0,phase_2,go,1150.0,1150.0,1.0,,,,,,,,,white,flipped triangle
0.0,4.0,4.0,0.0,5.0,5.0,1166.718252003193,8.0,1.0,phase_2,go,1150.0,1150.0,1.0,,,,,,,,,magenta,square
0.0,2.0,1.0,0.0,5.0,5.0,625.3254530020058,8.0,1.0,phase_2,go,1150.0,1150.0,1.0,,,,,,,,,yellow,triangle
0.0,8.0,4.0,1.0,6.0,6.0,1186.3530359696597,8.0,1.0,phase_2,stop,1150.0,1150.0,3.0,,,,,,,,,orange,diamond
0.0,6.0,1.0,1.0,5.0,5.0,1117.2179630375467,8.0,1.0,phase_2,stop,1150.0,1100.0,3.0,,,,,,,,,blue,I
0.0,1.0,0.5,0.0,6.0,6.0,1279.214704001788,8.0,1.0,phase_2,go,1100.0,1100.0,1.0,,,,,,,,,cyan,cross
0.0,4.0,4.0,0.0,5.0,5.0,1239.9854629766196,8.0,1.0,phase_2,go,1100.0,1100.0,1.0,,,,,,,,,magenta,square
0.0,1.0,0.5,0.0,5.0,5.0,1398.6973889986984,8.0,1.0,phase_2,go,1100.0,1100.0,1.0,,,,,,,,,cyan,cross
0.0,5.0,0.5,1.0,6.0,0.0,0.0,8.0,1.0,phase_2,go,1100.0,1100.0,5.0,,,,,,,,,green,hexagon
0.0,7.0,2.0,1.0,5.0,5.0,1035.488190012984,8.0,1.0,phase_2,stop,1100.0,1100.0,3.0,,,,,,,,,white,flipped triangle
0.0,2.0,1.0,0.0,5.0,5.0,1320.0918919756075,8.0,1.0,phase_2,go,1050.0,1100.0,1.0,,,,,,,,,yellow,triangle
0.0,8.0,4.0,1.0,6.0,6.0,1099.5932020014152,8.0,1.0,phase_2,go,1050.0,1100.0,1.0,,,,,,,,,orange,diamond
0.0,1.0,0.5,0.0,5.0,5.0,1182.3249920271337,8.0,1.0,phase_2,go,1050.0,1100.0,1.0,,,,,,,,,cyan,cross
0.0,5.0,0.5,1.0,6.0,6.0,1007.0571160176769,8.0,1.0,phase_2,stop,1050.0,1100.0,3.0,,,,,,,,,green,hexagon
0.0,8.0,4.0,1.0,5.0,0.0,0.0,8.0,1.0,phase_2,stop,1050.0,1050.0,4.0,,,,,,,,,orange,diamond
0.0,2.0,1.0,0.0,5.0,5.0,1316.4120360161178,8.0,1.0,phase_2,go,1100.0,1050.0,1.0,,,,,,,,,yellow,triangle
0.0,1.0,0.5,0.0,6.0,6.0,1237.3401280492544,8.0,1.0,phase_2,go,1100.0,1050.0,1.0,,,,,,,,,cyan,cross
0.0,1.0,0.5,0.0,6.0,6.0,1404.1258220095187,8.0,1.0,phase_2,go,1100.0,1050.0,1.0,,,,,,,,,cyan,cross
0.0,4.0,4.0,0.0,5.0,5.0,1490.3148130397312,8.0,1.0,phase_2,go,1100.0,1050.0,1.0,,,,,,,,,magenta,square
0.0,6.0,1.0,1.0,5.0,0.0,0.0,8.0,1.0,phase_2,stop,1100.0,1050.0,4.0,,,,,,,,,blue,I
0.0,2.0,1.0,0.0,5.0,0.0,0.0,8.0,1.0,phase_2,go,1150.0,1050.0,5.0,,,,,,,,,yellow,triangle
0.0,5.0,0.5,1.0,6.0,6.0,1228.2680219504982,8.0,1.0,phase_2,go,1150.0,1050.0,1.0,,,,,,,,,green,hexagon
0.0,6.0,1.0,1.0,5.0,5.0,1110.1890379795805,8.0,1.0,phase_2,stop,1150.0,1050.0,3.0,,,,,,,,,blue,I
0.0,8.0,4.0,1.0,6.0,0.0,0.0,8.0,1.0,phase_2,stop,1100.0,1050.0,4.0,,,,,,,,,orange,diamond
0.0,4.0,4.0,0.0,7.0,5.0,1599.9300829716958,1.0,1.0,phase_3,,,,,768.0,4.0,1152.0,384.0,576.0,192.0,768.0,960.0,magenta,square
0.0,1.0,0.5,0.0,7.0,2.0,0.374092021957,1.0,1.0,phase_3,,,,,173.0,1.0,346.0,173.0,692.0,865.0,519.0,1038.0,cyan,cross
0.0,7.0,2.0,1.0,7.0,2.0,619.5361530408263,1.0,1.0,phase_3,,,,,308.0,2.0,462.0,308.0,154.0,616.0,924.0,770.0,white,flipped triangle
0.0,6.0,1.0,1.0,7.0,1.0,926.5722740092316,1.0,1.0,phase_3,,,,,696.0,6.0,696.0,580.0,116.0,348.0,464.0,232.0,blue,I
0.0,6.0,1.0,1.0,7.0,2.0,445.0883590034209,1.0,1.0,phase_3,,,,,116.0,1.0,348.0,116.0,232.0,696.0,580.0,464.0,blue,I
0.0,3.0,2.0,0.0,7.0,3.0,906.8998689763248,1.0,1.0,phase_3,,,,,692.0,4.0,173.0,1038.0,692.0,865.0,346.0,519.0,gray,circle
0.0,4.0,4.0,0.0,7.0,4.0,677.0952009828761,1.0,1.0,phase_3,,,,,692.0,4.0,519.0,865.0,173.0,692.0,346.0,1038.0,magenta,square
0.0,7.0,2.0,1.0,7.0,5.0,887.6516110030934,1.0,1.0,phase_3,,,,,960.0,5.0,192.0,384.0,576.0,1152.0,960.0,768.0,white,flipped triangle
0.0,2.0,1.0,0.0,7.0,6.0,998.6747969524004,1.0,1.0,phase_3,,,,,924.0,6.0,770.0,308.0,154.0,616.0,462.0,924.0,yellow,triangle
0.0,8.0,4.0,1.0,7.0,6.0,370.2681819559075,1.0,1.0,phase_3,,,,,154.0,1.0,616.0,462.0,308.0,924.0,770.0,154.0,orange,diamond
0.0,2.0,1.0,0.0,7.0,6.0,491.1816579988226,1.0,1.0,phase_3,,,,,346.0,2.0,519.0,865.0,1038.0,692.0,173.0,346.0,yellow,triangle
0.0,4.0,4.0,0.0,7.0,5.0,517.8986680111848,1.0,1.0,phase_3,,,,,768.0,4.0,960.0,192.0,1152.0,576.0,768.0,384.0,magenta,square
0.0,1.0,0.5,0.0,7.0,4.0,592.9651719634421,1.0,1.0,phase_3,,,,,768.0,4.0,576.0,384.0,192.0,768.0,1152.0,960.0,cyan,cross
0.0,8.0,4.0,1.0,7.0,3.0,704.2860049987212,1.0,1.0,phase_3,,,,,960.0,5.0,192.0,1152.0,960.0,576.0,768.0,384.0,orange,diamond
0.0,7.0,2.0,1.0,7.0,2.0,797.5361699936911,1.0,1.0,phase_3,,,,,865.0,5.0,1038.0,865.0,173.0,692.0,346.0,519.0,white,flipped triangle
0.0,6.0,1.0,1.0,7.0,1.0,1026.6966740018688,1.0,1.0,phase_3,,,,,1152.0,6.0,1152.0,192.0,768.0,576.0,960.0,384.0,blue,I
0.0,4.0,4.0,0.0,7.0,2.0,555.4473740048707,1.0,1.0,phase_3,,,,,173.0,1.0,692.0,173.0,865.0,1038.0,346.0,519.0,magenta,square
0.0,5.0,0.5,1.0,7.0,3.0,601.7683410318568,1.0,1.0,phase_3,,,,,675.0,5.0,135.0,540.0,675.0,270.0,405.0,810.0,green,hexagon
0.0,2.0,1.0,0.0,7.0,4.0,647.5327179650776,1.0,1.0,phase_3,,,,,580.0,5.0,348.0,232.0,696.0,580.0,116.0,464.0,yellow,triangle
0.0,5.0,0.5,1.0,7.0,5.0,601.5437989844941,1.0,1.0,phase_3,,,,,154.0,1.0,770.0,616.0,308.0,924.0,154.0,462.0,green,hexagon
0.0,5.0,0.5,1.0,7.0,6.0,331.5777420066297,2.0,1.0,phase_3,,,,,270.0,2.0,135.0,405.0,810.0,540.0,675.0,270.0,green,hexagon
0.0,2.0,1.0,0.0,7.0,5.0,278.2906310167163,2.0,1.0,phase_3,,,,,405.0,3.0,675.0,810.0,540.0,135.0,405.0,270.0,yellow,triangle
0.0,8.0,4.0,1.0,7.0,4.0,250.2794309984892,2.0,1.0,phase_3,,,,,173.0,1.0,865.0,346.0,692.0,173.0,519.0,1038.0,orange,diamond
0.0,3.0,2.0,0.0,7.0,3.0,305.7434300426394,2.0,1.0,phase_3,,,,,405.0,3.0,540.0,270.0,405.0,675.0,810.0,135.0,gray,circle
0.0,8.0,4.0,1.0,7.0,2.0,269.2394370096735,2.0,1.0,phase_3,,,,,770.0,5.0,308.0,770.0,924.0,154.0,462.0,616.0,orange,diamond
0.0,7.0,2.0,1.0,7.0,1.0,638.0730210221373,2.0,1.0,phase_3,,,,,405.0,3.0,405.0,540.0,675.0,270.0,135.0,810.0,white,flipped triangle
0.0,7.0,2.0,1.0,7.0,2.0,240.5943519552238,2.0,1.0,phase_3,,,,,865.0,5.0,519.0,865.0,173.0,1038.0,692.0,346.0,white,flipped triangle
0.0,3.0,2.0,0.0,7.0,3.0,600.9867290267721,2.0,1.0,phase_3,,,,,384.0,2.0,576.0,192.0,384.0,768.0,960.0,1152.0,gray,circle
0.0,2.0,1.0,0.0,7.0,4.0,602.5048200390302,2.0,1.0,phase_3,,,,,348.0,3.0,232.0,580.0,464.0,348.0,696.0,116.0,yellow,triangle
0.0,4.0,4.0,0.0,7.0,5.0,342.3466099775396,2.0,1.0,phase_3,,,,,770.0,5.0,924.0,308.0,616.0,154.0,770.0,462.0,magenta,square
0.0,5.0,0.5,1.0,7.0,6.0,545.9280800423585,2.0,1.0,phase_3,,,,,580.0,5.0,696.0,464.0,348.0,116.0,232.0,580.0,green,hexagon
0.0,8.0,4.0,1.0,7.0,5.0,480.2718299906701,2.0,1.0,phase_3,,,,,692.0,4.0,346.0,173.0,865.0,1038.0,692.0,519.0,orange,diamond
0.0,1.0,0.5,0.0,7.0,4.0,368.7944109551608,2.0,1.0,phase_3,,,,,384.0,2.0,960.0,192.0,768.0,384.0,576.0,1152.0,cyan,cross
0.0,3.0,2.0,0.0,7.0,3.0,610.5744680389762,2.0,1.0,phase_3,,,,,346.0,2.0,1038.0,865.0,346.0,692.0,519.0,173.0,gray,circle
0.0,8.0,4.0,1.0,7.0,2.0,305.3353470168076,2.0,1.0,phase_3,,,,,540.0,4.0,675.0,540.0,270.0,810.0,135.0,405.0,orange,diamond
0.0,4.0,4.0,0.0,7.0,1.0,332.9137740074657,2.0,1.0,phase_3,,,,,348.0,3.0,348.0,116.0,580.0,232.0,696.0,464.0,magenta,square
0.0,4.0,4.0,0.0,7.0,1.0,867.5890219747089,2.0,1.0,phase_3,,,,,540.0,4.0,540.0,270.0,135.0,675.0,405.0,810.0,magenta,square
0.0,5.0,0.5,1.0,7.0,2.0,684.2991270241328,2.0,1.0,phase_3,,,,,519.0,3.0,865.0,519.0,346.0,1038.0,173.0,692.0,green,hexagon
0.0,2.0,1.0,0.0,7.0,3.0,712.0341139961965,2.0,1.0,phase_3,,,,,924.0,6.0,770.0,308.0,924.0,154.0,616.0,462.0,yellow,triangle
0.0,5.0,0.5,1.0,7.0,4.0,665.5811420059763,2.0,1.0,phase_3,,,,,173.0,1.0,692.0,519.0,865.0,173.0,346.0,1038.0,green,hexagon
0.0,7.0,2.0,1.0,7.0,4.0,792.9520269972272,3.0,1.0,phase_3,,,,,270.0,2.0,405.0,540.0,675.0,270.0,810.0,135.0,white,flipped triangle
0.0,5.0,0.5,1.0,7.0,6.0,629.6872289967723,3.0,1.0,phase_3,,,,,384.0,2.0,192.0,1152.0,768.0,576.0,960.0,384.0,green,hexagon
0.0,1.0,0.5,0.0,7.0,5.0,526.3471349608153,3.0,1.0,phase_3,,,,,696.0,6.0,232.0,464.0,580.0,116.0,696.0,348.0,cyan,cross
0.0,1.0,0.5,0.0,7.0,4.0,572.6278639631346,3.0,1.0,phase_3,,,,,616.0,4.0,308.0,924.0,770.0,616.0,154.0,462.0,cyan,cross
0.0,7.0,2.0,1.0,7.0,3.0,646.601943008136,3.0,1.0,phase_3,,,,,308.0,2.0,924.0,616.0,308.0,462.0,154.0,770.0,white,flipped triangle
0.0,6.0,1.0,1.0,7.0,2.0,527.5830440223217,3.0,1.0,phase_3,,,,,540.0,4.0,405.0,540.0,270.0,135.0,810.0,675.0,blue,I
0.0,6.0,1.0,1.0,7.0,1.0,517.4277760088444,3.0,1.0,phase_3,,,,,540.0,4.0,540.0,675.0,135.0,405.0,810.0,270.0,blue,I
0.0,3.0,2.0,0.0,7.0,2.0,426.1575700365938,3.0,1.0,phase_3,,,,,384.0,2.0,768.0,384.0,576.0,1152.0,192.0,960.0,gray,circle
0.0,1.0,0.5,0.0,7.0,3.0,434.5637860242277,3.0,1.0,phase_3,,,,,810.0,6.0,675.0,270.0,810.0,405.0,540.0,135.0,cyan,cross
0.0,8.0,4.0,1.0,7.0,4.0,728.4669599612243,3.0,1.0,phase_3,,,,,960.0,5.0,576.0,192.0,768.0,960.0,1152.0,384.0,orange,diamond
0.0,1.0,0.5,0.0,7.0,5.0,601.8655709922314,3.0,1.0,phase_3,,,,,348.0,3.0,116.0,464.0,580.0,696.0,348.0,232.0,cyan,cross
0.0,4.0,4.0,0.0,7.0,6.0,609.5400949707255,3.0,1.0,phase_3,,,,,770.0,5.0,924.0,154.0,616.0,308.0,462.0,770.0,magenta,square
0.0,2.0,1.0,0.0,7.0,5.0,519.2315599997528,3.0,1.0,phase_3,,,,,346.0,2.0,519.0,865.0,692.0,173.0,346.0,1038.0,yellow,triangle
0.0,2.0,1.0,0.0,7.0,4.0,600.0126949511468,3.0,1.0,phase_3,,,,,675.0,5.0,135.0,405.0,270.0,675.0,540.0,810.0,yellow,triangle
0.0,3.0,2.0,0.0,7.0,3.0,795.4330909997225,3.0,1.0,phase_3,,,,,154.0,1.0,924.0,462.0,154.0,308.0,616.0,770.0,gray,circle
0.0,6.0,1.0,1.0,7.0,2.0,627.4099390138872,3.0,1.0,phase_3,,,,,576.0,3.0,1152.0,576.0,384.0,960.0,768.0,192.0,blue,I
0.0,8.0,4.0,1.0,7.0,1.0,526.9865189911798,3.0,1.0,phase_3,,,,,696.0,6.0,696.0,116.0,580.0,464.0,348.0,232.0,orange,diamond
0.0,6.0,1.0,1.0,7.0,2.0,590.6599889858626,3.0,1.0,phase_3,,,,,308.0,2.0,462.0,308.0,770.0,924.0,616.0,154.0,blue,I
0.0,8.0,4.0,1.0,7.0,3.0,732.179582992103,3.0,1.0,phase_3,,,,,405.0,3.0,675.0,810.0,405.0,540.0,135.0,270.0,orange,diamond
0.0,3.0,2.0,0.0,7.0,4.0,417.0768890180625,3.0,1.0,phase_3,,,,,464.0,4.0,580.0,116.0,696.0,464.0,348.0,232.0,gray,circle
0.0,1.0,0.5,0.0,7.0,2.0,676.0180880082771,4.0,1.0,phase_3,,,,,519.0,3.0,173.0,519.0,865.0,1038.0,692.0,346.0,cyan,cross
0.0,5.0,0.5,1.0,7.0,1.0,435.4783309972845,4.0,1.0,phase_3,,,,,768.0,4.0,768.0,384.0,192.0,960.0,1152.0,576.0,green,hexagon
0.0,2.0,1.0,0.0,7.0,3.0,704.3096320121549,4.0,1.0,phase_3,,,,,960.0,5.0,1152.0,576.0,960.0,192.0,384.0,768.0,yellow,triangle
0.0,5.0,0.5,1.0,7.0,4.0,518.4672619798221,4.0,1.0,phase_3,,,,,696.0,6.0,580.0,232.0,348.0,696.0,116.0,464.0,green,hexagon
0.0,7.0,2.0,1.0,7.0,5.0,621.3532589608803,4.0,1.0,phase_3,,,,,384.0,2.0,1152.0,192.0,960.0,576.0,384.0,768.0,white,flipped triangle
0.0,8.0,4.0,1.0,7.0,6.0,574.2420280002989,4.0,1.0,phase_3,,,,,116.0,1.0,696.0,464.0,348.0,580.0,232.0,116.0,orange,diamond
0.0,3.0,2.0,0.0,7.0,5.0,602.3639979539439,4.0,1.0,phase_3,,,,,308.0,2.0,770.0,924.0,616.0,462.0,308.0,154.0,gray,circle
0.0,5.0,0.5,1.0,7.0,4.0,1018.508696986828,4.0,1.0,phase_3,,,,,154.0,1.0,616.0,924.0,770.0,154.0,308.0,462.0,green,hexagon
0.0,6.0,1.0,1.0,7.0,3.0,703.8219359819777,4.0,1.0,phase_3,,,,,154.0,1.0,616.0,308.0,154.0,462.0,770.0,924.0,blue,I
0.0,6.0,1.0,1.0,7.0,2.0,565.0132889859378,4.0,1.0,phase_3,,,,,865.0,5.0,173.0,865.0,692.0,519.0,346.0,1038.0,blue,I
0.0,4.0,4.0,0.0,7.0,1.0,750.6248480058275,4.0,1.0,phase_3,,,,,675.0,5.0,675.0,405.0,810.0,270.0,135.0,540.0,magenta,square
0.0,7.0,2.0,1.0,7.0,2.0,992.1552140149288,4.0,1.0,phase_3,,,,,348.0,3.0,580.0,348.0,696.0,464.0,232.0,116.0,white,flipped triangle
0.0,1.0,0.5,0.0,7.0,3.0,775.7135790307075,4.0,1.0,phase_3,,,,,540.0,4.0,135.0,675.0,540.0,405.0,270.0,810.0,cyan,cross
0.0,1.0,0.5,0.0,7.0,4.0,481.05903895339,4.0,1.0,phase_3,,,,,462.0,3.0,154.0,770.0,924.0,462.0,616.0,308.0,cyan,cross
0.0,3.0,2.0,0.0,7.0,5.0,529.297202010639,4.0,1.0,phase_3,,,,,135.0,1.0,810.0,405.0,270.0,675.0,135.0,540.0,gray,circle
0.0,6.0,1.0,1.0,7.0,6.0,408.541975019034,4.0,1.0,phase_3,,,,,346.0,2.0,173.0,1038.0,692.0,865.0,519.0,346.0,blue,I
0.0,7.0,2.0,1.0,7.0,5.0,1031.3388489885256,4.0,1.0,phase_3,,,,,464.0,4.0,116.0,580.0,348.0,232.0,464.0,696.0,white,flipped triangle
0.0,3.0,2.0,0.0,7.0,4.0,611.9826110079885,4.0,1.0,phase_3,,,,,696.0,6.0,116.0,464.0,580.0,696.0,232.0,348.0,gray,circle
0.0,4.0,4.0,0.0,7.0,3.0,988.6386030120776,4.0,1.0,phase_3,,,,,116.0,1.0,580.0,464.0,116.0,348.0,696.0,232.0,magenta,square
0.0,2.0,1.0,0.0,7.0,2.0,640.8173129893839,4.0,1.0,phase_3,,,,,384.0,2.0,192.0,384.0,768.0,576.0,1152.0,960.0,yellow,triangle
