raw_reward_magnitude,stim_reward,stepwise_reward_magnitude,paired_with_stopping,stim_location,response,reaction_time,block,num_trial_presentations,which_phase,stop_signal_trial_type,left_SSD,right_SSD,accuracy,chosen_bidding_amount,chosen_bidding_level,possible_bid_1,possible_bid_2,possible_bid_3,possible_bid_4,possible_bid_5,possible_bid_6,color_text,shape_text
141.0,1.0,1.0,0.0,4.0,4.0,481.6025469999658,1.0,1.0,phase_1,,,,,,,,,,,,,cyan,hexagon
0.0,5.0,0.0,1.0,2.0,2.0,733.7306930000977,1.0,1.0,phase_1,,,,,,,,,,,,,magenta,square
0.0,2.0,0.0,0.0,2.0,2.0,399.0565579999838,1.0,1.0,phase_1,,,,,,,,,,,,,green,flipped triangle
1285.0,8.0,4.0,1.0,4.0,4.0,445.2674780000052,1.0,1.0,phase_1,,,,,,,,,,,,,orange,circle
325.0,2.0,2.0,0.0,4.0,4.0,398.5216070000206,1.0,1.0,phase_1,,,,,,,,,,,,,green,flipped triangle
1314.0,4.0,4.0,0.0,3.0,3.0,343.2695060000696,1.0,1.0,phase_1,,,,,,,,,,,,,yellow,I
312.0,2.0,2.0,0.0,4.0,4.0,353.7076810000599,1.0,1.0,phase_1,,,,,,,,,,,,,green,flipped triangle
1315.0,8.0,4.0,1.0,2.0,2.0,381.0619570001563,1.0,2.0,phase_1,,,,,,,,,,,,,orange,circle
183.0,5.0,1.0,1.0,3.0,3.0,406.3171079999392,1.0,1.0,phase_1,,,,,,,,,,,,,magenta,square
302.0,2.0,2.0,0.0,4.0,4.0,370.7761649998247,1.0,1.0,phase_1,,,,,,,,,,,,,green,flipped triangle
665.0,3.0,3.0,0.0,1.0,1.0,474.0035100001023,1.0,2.0,phase_1,,,,,,,,,,,,,white,triangle
340.0,2.0,2.0,0.0,1.0,1.0,454.0259709999645,1.0,1.0,phase_1,,,,,,,,,,,,,green,flipped triangle
666.0,7.0,3.0,1.0,3.0,3.0,426.216820000036,1.0,1.0,phase_1,,,,,,,,,,,,,blue,diamond
1284.0,4.0,4.0,0.0,4.0,4.0,406.5269350001017,1.0,1.0,phase_1,,,,,,,,,,,,,yellow,I
637.0,7.0,3.0,1.0,2.0,2.0,386.4633480000066,1.0,1.0,phase_1,,,,,,,,,,,,,blue,diamond
139.0,1.0,1.0,0.0,4.0,4.0,416.0444809999717,1.0,1.0,phase_1,,,,,,,,,,,,,cyan,hexagon
1289.0,4.0,4.0,0.0,2.0,2.0,398.8349149999521,1.0,1.0,phase_1,,,,,,,,,,,,,yellow,I
342.0,6.0,2.0,1.0,2.0,2.0,389.7085720000177,1.0,1.0,phase_1,,,,,,,,,,,,,gray,cross
644.0,3.0,3.0,0.0,1.0,1.0,397.4197559998629,1.0,1.0,phase_1,,,,,,,,,,,,,white,triangle
645.0,7.0,3.0,1.0,4.0,4.0,351.3854979998996,1.0,1.0,phase_1,,,,,,,,,,,,,blue,diamond
1315.0,8.0,4.0,1.0,2.0,2.0,387.9802950000339,1.0,1.0,phase_1,,,,,,,,,,,,,orange,circle
630.0,3.0,3.0,0.0,4.0,4.0,369.9917639999057,1.0,1.0,phase_1,,,,,,,,,,,,,white,triangle
315.0,2.0,2.0,0.0,3.0,3.0,379.3507339998996,1.0,1.0,phase_1,,,,,,,,,,,,,green,flipped triangle
0.0,3.0,0.0,0.0,2.0,2.0,389.8770169998897,1.0,1.0,phase_1,,,,,,,,,,,,,white,triangle
633.0,7.0,3.0,1.0,2.0,2.0,371.1006819999056,1.0,1.0,phase_1,,,,,,,,,,,,,blue,diamond
138.0,1.0,1.0,0.0,3.0,3.0,397.9853030000413,1.0,1.0,phase_1,,,,,,,,,,,,,cyan,hexagon
639.0,7.0,3.0,1.0,4.0,4.0,417.2145840000212,1.0,1.0,phase_1,,,,,,,,,,,,,blue,diamond
308.0,6.0,2.0,1.0,1.0,1.0,592.2949370001334,1.0,1.0,phase_1,,,,,,,,,,,,,gray,cross
167.0,5.0,1.0,1.0,2.0,2.0,353.5102020000522,1.0,1.0,phase_1,,,,,,,,,,,,,magenta,square
160.0,1.0,1.0,0.0,4.0,4.0,343.764641000007,1.0,1.0,phase_1,,,,,,,,,,,,,cyan,hexagon
626.0,7.0,3.0,1.0,1.0,1.0,416.3992750000034,1.0,1.0,phase_1,,,,,,,,,,,,,blue,diamond
0.0,1.0,0.0,0.0,1.0,1.0,506.8947429999753,1.0,1.0,phase_1,,,,,,,,,,,,,cyan,hexagon
144.0,1.0,1.0,0.0,2.0,2.0,389.3835389999367,1.0,1.0,phase_1,,,,,,,,,,,,,cyan,hexagon
628.0,3.0,3.0,0.0,2.0,2.0,352.9999469999438,1.0,1.0,phase_1,,,,,,,,,,,,,white,triangle
635.0,3.0,3.0,0.0,4.0,4.0,324.4738309999775,1.0,1.0,phase_1,,,,,,,,,,,,,white,triangle
0.0,5.0,0.0,1.0,2.0,2.0,324.7527129999525,1.0,1.0,phase_1,,,,,,,,,,,,,magenta,square
331.0,2.0,2.0,0.0,3.0,3.0,401.2281049999728,1.0,1.0,phase_1,,,,,,,,,,,,,green,flipped triangle
1294.0,8.0,4.0,1.0,1.0,1.0,373.4623889999966,1.0,1.0,phase_1,,,,,,,,,,,,,orange,circle
1296.0,8.0,4.0,1.0,4.0,4.0,362.2899229999348,1.0,1.0,phase_1,,,,,,,,,,,,,orange,circle
168.0,1.0,1.0,0.0,1.0,1.0,463.3056650000071,1.0,1.0,phase_1,,,,,,,,,,,,,cyan,hexagon
144.0,5.0,1.0,1.0,3.0,3.0,371.6433170000073,1.0,1.0,phase_1,,,,,,,,,,,,,magenta,square
185.0,5.0,1.0,1.0,4.0,4.0,363.1603620001442,1.0,1.0,phase_1,,,,,,,,,,,,,magenta,square
183.0,5.0,1.0,1.0,4.0,4.0,411.4615200001026,1.0,1.0,phase_1,,,,,,,,,,,,,magenta,square
0.0,4.0,0.0,0.0,4.0,4.0,408.1628769999952,1.0,1.0,phase_1,,,,,,,,,,,,,yellow,I
675.0,3.0,3.0,0.0,3.0,3.0,434.0416899999582,1.0,1.0,phase_1,,,,,,,,,,,,,white,triangle
1289.0,8.0,4.0,1.0,4.0,4.0,361.5938709999682,1.0,1.0,phase_1,,,,,,,,,,,,,orange,circle
654.0,3.0,3.0,0.0,1.0,1.0,380.1173659999222,1.0,1.0,phase_1,,,,,,,,,,,,,white,triangle
1309.0,4.0,4.0,0.0,1.0,1.0,360.4902309998579,1.0,1.0,phase_1,,,,,,,,,,,,,yellow,I
637.0,7.0,3.0,1.0,3.0,3.0,389.2059410000001,1.0,1.0,phase_1,,,,,,,,,,,,,blue,diamond
0.0,1.0,0.0,0.0,1.0,1.0,378.5011130000839,1.0,1.0,phase_1,,,,,,,,,,,,,cyan,hexagon
0.0,5.0,0.0,1.0,1.0,1.0,323.6000039998998,1.0,1.0,phase_1,,,,,,,,,,,,,magenta,square
185.0,1.0,1.0,0.0,3.0,3.0,351.0727749999205,1.0,1.0,phase_1,,,,,,,,,,,,,cyan,hexagon
1305.0,4.0,4.0,0.0,1.0,1.0,341.7789909999555,1.0,1.0,phase_1,,,,,,,,,,,,,yellow,I
159.0,5.0,1.0,1.0,3.0,3.0,334.3288449998454,1.0,1.0,phase_1,,,,,,,,,,,,,magenta,square
183.0,5.0,1.0,1.0,1.0,1.0,473.1668039999022,1.0,2.0,phase_1,,,,,,,,,,,,,magenta,square
332.0,2.0,2.0,0.0,2.0,2.0,787.2477429998526,1.0,1.0,phase_1,,,,,,,,,,,,,green,flipped triangle
635.0,7.0,3.0,1.0,3.0,3.0,426.3616299999739,1.0,1.0,phase_1,,,,,,,,,,,,,blue,diamond
1299.0,8.0,4.0,1.0,4.0,4.0,426.5305779999835,1.0,1.0,phase_1,,,,,,,,,,,,,orange,circle
312.0,6.0,2.0,1.0,4.0,4.0,427.1949640001367,1.0,1.0,phase_1,,,,,,,,,,,,,gray,cross
0.0,4.0,0.0,0.0,1.0,1.0,491.2492939999993,1.0,1.0,phase_1,,,,,,,,,,,,,yellow,I
1306.0,8.0,4.0,1.0,3.0,3.0,379.5511869998336,1.0,1.0,phase_1,,,,,,,,,,,,,orange,circle
1319.0,4.0,4.0,0.0,4.0,4.0,343.1821530000434,1.0,1.0,phase_1,,,,,,,,,,,,,yellow,I
163.0,5.0,1.0,1.0,3.0,3.0,389.8221480001211,1.0,1.0,phase_1,,,,,,,,,,,,,magenta,square
634.0,7.0,3.0,1.0,1.0,1.0,379.3848070001786,1.0,1.0,phase_1,,,,,,,,,,,,,blue,diamond
153.0,5.0,1.0,1.0,2.0,2.0,522.6240030001463,1.0,2.0,phase_1,,,,,,,,,,,,,magenta,square
1302.0,4.0,4.0,0.0,2.0,2.0,538.9094359998126,1.0,1.0,phase_1,,,,,,,,,,,,,yellow,I
0.0,1.0,0.0,0.0,2.0,2.0,443.6251259999153,1.0,1.0,phase_1,,,,,,,,,,,,,cyan,hexagon
672.0,7.0,3.0,1.0,4.0,4.0,427.9765460000817,1.0,1.0,phase_1,,,,,,,,,,,,,blue,diamond
656.0,7.0,3.0,1.0,2.0,2.0,399.1532630000165,1.0,1.0,phase_1,,,,,,,,,,,,,blue,diamond
637.0,3.0,3.0,0.0,2.0,2.0,370.1300570000967,1.0,1.0,phase_1,,,,,,,,,,,,,white,triangle
0.0,7.0,0.0,1.0,3.0,3.0,352.7805700000499,1.0,1.0,phase_1,,,,,,,,,,,,,blue,diamond
328.0,6.0,2.0,1.0,1.0,1.0,463.6175389998698,1.0,1.0,phase_1,,,,,,,,,,,,,gray,cross
182.0,1.0,1.0,0.0,1.0,1.0,437.3333940000066,1.0,1.0,phase_1,,,,,,,,,,,,,cyan,hexagon
0.0,1.0,0.0,0.0,1.0,1.0,381.314237999959,1.0,1.0,phase_1,,,,,,,,,,,,,cyan,hexagon
1293.0,8.0,4.0,1.0,2.0,2.0,426.0933530001694,1.0,1.0,phase_1,,,,,,,,,,,,,orange,circle
1288.0,4.0,4.0,0.0,1.0,1.0,472.2054999999727,1.0,1.0,phase_1,,,,,,,,,,,,,yellow,I
181.0,1.0,1.0,0.0,1.0,1.0,398.4119060000921,1.0,1.0,phase_1,,,,,,,,,,,,,cyan,hexagon
147.0,1.0,1.0,0.0,2.0,2.0,370.0371889999587,1.0,1.0,phase_1,,,,,,,,,,,,,cyan,hexagon
183.0,1.0,1.0,0.0,4.0,4.0,380.8768979999968,1.0,1.0,phase_1,,,,,,,,,,,,,cyan,hexagon
1293.0,4.0,4.0,0.0,2.0,2.0,417.2464690000197,1.0,1.0,phase_1,,,,,,,,,,,,,yellow,I
331.0,6.0,2.0,1.0,2.0,2.0,446.1341140001877,1.0,1.0,phase_1,,,,,,,,,,,,,gray,cross
304.0,2.0,2.0,0.0,1.0,1.0,529.1948240001147,1.0,1.0,phase_1,,,,,,,,,,,,,green,flipped triangle
0.0,3.0,0.0,0.0,3.0,3.0,416.1898350000683,1.0,1.0,phase_1,,,,,,,,,,,,,white,triangle
321.0,6.0,2.0,1.0,4.0,4.0,483.5911110001234,1.0,1.0,phase_1,,,,,,,,,,,,,gray,cross
0.0,6.0,0.0,1.0,2.0,2.0,742.5114430000122,1.0,1.0,phase_1,,,,,,,,,,,,,gray,cross
146.0,5.0,1.0,1.0,2.0,2.0,436.2332919999971,1.0,1.0,phase_1,,,,,,,,,,,,,magenta,square
1322.0,4.0,4.0,0.0,1.0,1.0,510.52688300001137,1.0,1.0,phase_1,,,,,,,,,,,,,yellow,I
665.0,7.0,3.0,1.0,1.0,1.0,429.725918000031,1.0,1.0,phase_1,,,,,,,,,,,,,blue,diamond
307.0,2.0,2.0,0.0,3.0,3.0,407.3726100000385,1.0,1.0,phase_1,,,,,,,,,,,,,green,flipped triangle
0.0,8.0,0.0,1.0,2.0,2.0,434.3412040000203,1.0,1.0,phase_1,,,,,,,,,,,,,orange,circle
1276.0,8.0,4.0,1.0,1.0,1.0,306.1942250001266,1.0,1.0,phase_1,,,,,,,,,,,,,orange,circle
147.0,5.0,1.0,1.0,1.0,1.0,398.7499630000002,1.0,1.0,phase_1,,,,,,,,,,,,,magenta,square
0.0,6.0,0.0,1.0,2.0,2.0,399.3180699999357,1.0,1.0,phase_1,,,,,,,,,,,,,gray,cross
0.0,2.0,0.0,0.0,1.0,1.0,436.0200600001462,1.0,1.0,phase_1,,,,,,,,,,,,,green,flipped triangle
1325.0,8.0,4.0,1.0,2.0,2.0,351.0504599998967,1.0,1.0,phase_1,,,,,,,,,,,,,orange,circle
635.0,7.0,3.0,1.0,3.0,3.0,371.3548050000099,1.0,1.0,phase_1,,,,,,,,,,,,,blue,diamond
1320.0,8.0,4.0,1.0,1.0,1.0,389.3800850000843,1.0,1.0,phase_1,,,,,,,,,,,,,orange,circle
153.0,1.0,1.0,0.0,3.0,3.0,352.5821919999998,1.0,1.0,phase_1,,,,,,,,,,,,,cyan,hexagon
1322.0,8.0,4.0,1.0,2.0,2.0,472.8105609999602,1.0,1.0,phase_1,,,,,,,,,,,,,orange,circle
318.0,6.0,2.0,1.0,3.0,3.0,440.03167300002127,1.0,1.0,phase_1,,,,,,,,,,,,,gray,cross
0.0,3.0,0.0,0.0,3.0,3.0,454.0070630000627,2.0,1.0,phase_1,,,,,,,,,,,,,white,triangle
314.0,2.0,2.0,0.0,3.0,3.0,426.5241920002154,2.0,1.0,phase_1,,,,,,,,,,,,,green,flipped triangle
0.0,7.0,0.0,1.0,1.0,1.0,557.5721990001057,2.0,1.0,phase_1,,,,,,,,,,,,,blue,diamond
1302.0,8.0,4.0,1.0,3.0,3.0,361.3961769999605,2.0,1.0,phase_1,,,,,,,,,,,,,orange,circle
635.0,3.0,3.0,0.0,1.0,1.0,361.1404240000411,2.0,1.0,phase_1,,,,,,,,,,,,,white,triangle
150.0,1.0,1.0,0.0,3.0,3.0,344.3155909999404,2.0,1.0,phase_1,,,,,,,,,,,,,cyan,hexagon
639.0,3.0,3.0,0.0,4.0,4.0,510.503134000146,2.0,1.0,phase_1,,,,,,,,,,,,,white,triangle
0.0,5.0,0.0,1.0,4.0,4.0,391.9362759997966,2.0,1.0,phase_1,,,,,,,,,,,,,magenta,square
653.0,3.0,3.0,0.0,3.0,3.0,427.9082509999625,2.0,1.0,phase_1,,,,,,,,,,,,,white,triangle
157.0,5.0,1.0,1.0,1.0,1.0,465.4648959999576,2.0,1.0,phase_1,,,,,,,,,,,,,magenta,square
0.0,8.0,0.0,1.0,3.0,3.0,401.3935210000454,2.0,1.0,phase_1,,,,,,,,,,,,,orange,circle
178.0,1.0,1.0,0.0,2.0,2.0,632.3090650000722,2.0,1.0,phase_1,,,,,,,,,,,,,cyan,hexagon
152.0,5.0,1.0,1.0,2.0,2.0,472.8082089998224,2.0,1.0,phase_1,,,,,,,,,,,,,magenta,square
0.0,7.0,0.0,1.0,4.0,4.0,418.5584750000544,2.0,1.0,phase_1,,,,,,,,,,,,,blue,diamond
331.0,2.0,2.0,0.0,4.0,4.0,436.0378090000267,2.0,1.0,phase_1,,,,,,,,,,,,,green,flipped triangle
675.0,7.0,3.0,1.0,1.0,1.0,389.5843089999289,2.0,1.0,phase_1,,,,,,,,,,,,,blue,diamond
659.0,3.0,3.0,0.0,2.0,2.0,501.8603759999678,2.0,1.0,phase_1,,,,,,,,,,,,,white,triangle
139.0,5.0,1.0,1.0,2.0,2.0,464.3646199999693,2.0,1.0,phase_1,,,,,,,,,,,,,magenta,square
0.0,7.0,0.0,1.0,3.0,3.0,388.809510999863,2.0,1.0,phase_1,,,,,,,,,,,,,blue,diamond
1281.0,8.0,4.0,1.0,4.0,4.0,435.7667770000262,2.0,1.0,phase_1,,,,,,,,,,,,,orange,circle
331.0,2.0,2.0,0.0,2.0,2.0,400.2827280000929,2.0,1.0,phase_1,,,,,,,,,,,,,green,flipped triangle
663.0,3.0,3.0,0.0,3.0,3.0,399.5314729997972,2.0,1.0,phase_1,,,,,,,,,,,,,white,triangle
339.0,2.0,2.0,0.0,4.0,4.0,409.1584700001931,2.0,1.0,phase_1,,,,,,,,,,,,,green,flipped triangle
317.0,2.0,2.0,0.0,1.0,1.0,511.52695199994014,2.0,1.0,phase_1,,,,,,,,,,,,,green,flipped triangle
663.0,3.0,3.0,0.0,2.0,2.0,380.754632999924,2.0,1.0,phase_1,,,,,,,,,,,,,white,triangle
0.0,8.0,0.0,1.0,1.0,1.0,390.6850000000759,2.0,1.0,phase_1,,,,,,,,,,,,,orange,circle
654.0,7.0,3.0,1.0,4.0,4.0,435.172914000077,2.0,1.0,phase_1,,,,,,,,,,,,,blue,diamond
1291.0,4.0,4.0,0.0,2.0,2.0,463.8157130000309,2.0,1.0,phase_1,,,,,,,,,,,,,yellow,I
0.0,8.0,0.0,1.0,2.0,2.0,454.1528009999638,2.0,1.0,phase_1,,,,,,,,,,,,,orange,circle
0.0,5.0,0.0,1.0,4.0,4.0,389.9548530000629,2.0,1.0,phase_1,,,,,,,,,,,,,magenta,square
320.0,6.0,2.0,1.0,4.0,4.0,362.4041470000065,2.0,1.0,phase_1,,,,,,,,,,,,,gray,cross
304.0,2.0,2.0,0.0,4.0,4.0,419.9066339999717,2.0,1.0,phase_1,,,,,,,,,,,,,green,flipped triangle
160.0,5.0,1.0,1.0,1.0,1.0,353.7379920001058,2.0,1.0,phase_1,,,,,,,,,,,,,magenta,square
0.0,6.0,0.0,1.0,1.0,1.0,435.4255179998745,2.0,1.0,phase_1,,,,,,,,,,,,,gray,cross
645.0,7.0,3.0,1.0,1.0,1.0,362.583357999938,2.0,1.0,phase_1,,,,,,,,,,,,,blue,diamond
663.0,7.0,3.0,1.0,4.0,4.0,420.760699000084,2.0,1.0,phase_1,,,,,,,,,,,,,blue,diamond
146.0,1.0,1.0,0.0,3.0,3.0,437.4791349998759,2.0,1.0,phase_1,,,,,,,,,,,,,cyan,hexagon
1281.0,4.0,4.0,0.0,2.0,2.0,816.4966689998892,2.0,1.0,phase_1,,,,,,,,,,,,,yellow,I
320.0,2.0,2.0,0.0,4.0,4.0,400.3805760000887,2.0,1.0,phase_1,,,,,,,,,,,,,green,flipped triangle
168.0,5.0,1.0,1.0,2.0,2.0,408.989745999861,2.0,1.0,phase_1,,,,,,,,,,,,,magenta,square
1308.0,8.0,4.0,1.0,2.0,2.0,566.2158350000936,2.0,1.0,phase_1,,,,,,,,,,,,,orange,circle
669.0,3.0,3.0,0.0,3.0,3.0,419.4976440001028,2.0,1.0,phase_1,,,,,,,,,,,,,white,triangle
1298.0,4.0,4.0,0.0,3.0,3.0,400.8090800000445,2.0,1.0,phase_1,,,,,,,,,,,,,yellow,I
332.0,6.0,2.0,1.0,2.0,2.0,453.4838009999475,2.0,1.0,phase_1,,,,,,,,,,,,,gray,cross
171.0,5.0,1.0,1.0,3.0,3.0,352.3697900000115,2.0,1.0,phase_1,,,,,,,,,,,,,magenta,square
1294.0,4.0,4.0,0.0,4.0,4.0,435.8311450000656,2.0,1.0,phase_1,,,,,,,,,,,,,yellow,I
659.0,7.0,3.0,1.0,2.0,2.0,342.5921739999467,2.0,1.0,phase_1,,,,,,,,,,,,,blue,diamond
150.0,5.0,1.0,1.0,1.0,1.0,333.8313920000928,2.0,1.0,phase_1,,,,,,,,,,,,,magenta,square
626.0,3.0,3.0,0.0,2.0,2.0,334.5053069999721,2.0,1.0,phase_1,,,,,,,,,,,,,white,triangle
0.0,7.0,0.0,1.0,3.0,3.0,399.6745950000786,2.0,1.0,phase_1,,,,,,,,,,,,,blue,diamond
1276.0,4.0,4.0,0.0,1.0,1.0,407.1675420000247,2.0,1.0,phase_1,,,,,,,,,,,,,yellow,I
1295.0,4.0,4.0,0.0,2.0,2.0,417.0399859999634,2.0,1.0,phase_1,,,,,,,,,,,,,yellow,I
0.0,8.0,0.0,1.0,2.0,2.0,369.8802090000299,2.0,1.0,phase_1,,,,,,,,,,,,,orange,circle
304.0,6.0,2.0,1.0,3.0,3.0,471.0429690001092,2.0,1.0,phase_1,,,,,,,,,,,,,gray,cross
145.0,5.0,1.0,1.0,2.0,2.0,388.9900750000379,2.0,1.0,phase_1,,,,,,,,,,,,,magenta,square
1294.0,4.0,4.0,0.0,4.0,4.0,481.0681860001295,2.0,1.0,phase_1,,,,,,,,,,,,,yellow,I
0.0,5.0,0.0,1.0,3.0,3.0,453.6341820000871,2.0,1.0,phase_1,,,,,,,,,,,,,magenta,square
663.0,7.0,3.0,1.0,4.0,4.0,452.0703690000118,2.0,1.0,phase_1,,,,,,,,,,,,,blue,diamond
1291.0,8.0,4.0,1.0,4.0,4.0,425.5782360000921,2.0,1.0,phase_1,,,,,,,,,,,,,orange,circle
0.0,3.0,0.0,0.0,4.0,4.0,445.1048129999435,2.0,1.0,phase_1,,,,,,,,,,,,,white,triangle
328.0,2.0,2.0,0.0,1.0,1.0,370.7800700001371,2.0,1.0,phase_1,,,,,,,,,,,,,green,flipped triangle
343.0,6.0,2.0,1.0,2.0,2.0,537.3399350000909,2.0,1.0,phase_1,,,,,,,,,,,,,gray,cross
1298.0,8.0,4.0,1.0,1.0,1.0,360.4447099999106,2.0,1.0,phase_1,,,,,,,,,,,,,orange,circle
171.0,1.0,1.0,0.0,1.0,1.0,461.9818959999975,2.0,1.0,phase_1,,,,,,,,,,,,,cyan,hexagon
340.0,6.0,2.0,1.0,4.0,4.0,379.5502339999075,2.0,1.0,phase_1,,,,,,,,,,,,,gray,cross
631.0,7.0,3.0,1.0,4.0,4.0,407.5889660000484,2.0,1.0,phase_1,,,,,,,,,,,,,blue,diamond
0.0,3.0,0.0,0.0,1.0,1.0,343.3229959998698,2.0,1.0,phase_1,,,,,,,,,,,,,white,triangle
630.0,7.0,3.0,1.0,3.0,3.0,574.6026660001462,2.0,1.0,phase_1,,,,,,,,,,,,,blue,diamond
306.0,2.0,2.0,0.0,2.0,2.0,370.2826359999562,2.0,1.0,phase_1,,,,,,,,,,,,,green,flipped triangle
142.0,1.0,1.0,0.0,4.0,4.0,380.402722999861,2.0,1.0,phase_1,,,,,,,,,,,,,cyan,hexagon
180.0,5.0,1.0,1.0,1.0,1.0,323.4394299997802,2.0,1.0,phase_1,,,,,,,,,,,,,magenta,square
345.0,6.0,2.0,1.0,2.0,2.0,499.3883030001598,2.0,1.0,phase_1,,,,,,,,,,,,,gray,cross
645.0,3.0,3.0,0.0,3.0,3.0,431.6836170000897,2.0,1.0,phase_1,,,,,,,,,,,,,white,triangle
314.0,2.0,2.0,0.0,1.0,1.0,389.5244140003342,2.0,1.0,phase_1,,,,,,,,,,,,,green,flipped triangle
172.0,5.0,1.0,1.0,4.0,4.0,425.7607539998389,2.0,1.0,phase_1,,,,,,,,,,,,,magenta,square
668.0,3.0,3.0,0.0,2.0,2.0,416.6058480000174,2.0,1.0,phase_1,,,,,,,,,,,,,white,triangle
334.0,6.0,2.0,1.0,4.0,4.0,471.693870999843,2.0,1.0,phase_1,,,,,,,,,,,,,gray,cross
315.0,6.0,2.0,1.0,1.0,1.0,424.9622180000187,2.0,1.0,phase_1,,,,,,,,,,,,,gray,cross
644.0,7.0,3.0,1.0,1.0,1.0,609.7945189999336,2.0,1.0,phase_1,,,,,,,,,,,,,blue,diamond
1322.0,8.0,4.0,1.0,4.0,4.0,480.3437919999851,2.0,1.0,phase_1,,,,,,,,,,,,,orange,circle
335.0,2.0,2.0,0.0,3.0,3.0,415.997674999744,2.0,1.0,phase_1,,,,,,,,,,,,,green,flipped triangle
0.0,1.0,0.0,0.0,3.0,3.0,377.8130499999861,2.0,1.0,phase_1,,,,,,,,,,,,,cyan,hexagon
1298.0,4.0,4.0,0.0,3.0,3.0,416.2223650000669,2.0,1.0,phase_1,,,,,,,,,,,,,yellow,I
0.0,6.0,0.0,1.0,2.0,2.0,461.96741499989,2.0,1.0,phase_1,,,,,,,,,,,,,gray,cross
1308.0,4.0,4.0,0.0,2.0,2.0,361.0495899997659,2.0,1.0,phase_1,,,,,,,,,,,,,yellow,I
176.0,1.0,1.0,0.0,2.0,2.0,379.5423199999277,2.0,1.0,phase_1,,,,,,,,,,,,,cyan,hexagon
1299.0,4.0,4.0,0.0,1.0,1.0,516.9886900002894,2.0,1.0,phase_1,,,,,,,,,,,,,yellow,I
0.0,1.0,0.0,0.0,1.0,1.0,388.89196800028,2.0,1.0,phase_1,,,,,,,,,,,,,cyan,hexagon
150.0,5.0,1.0,1.0,4.0,4.0,379.4890260001011,2.0,1.0,phase_1,,,,,,,,,,,,,magenta,square
142.0,5.0,1.0,1.0,2.0,2.0,397.6770209997085,2.0,1.0,phase_1,,,,,,,,,,,,,magenta,square
1314.0,8.0,4.0,1.0,1.0,1.0,332.8431770000861,2.0,1.0,phase_1,,,,,,,,,,,,,orange,circle
0.0,1.0,0.0,0.0,2.0,2.0,333.7610859998676,2.0,1.0,phase_1,,,,,,,,,,,,,cyan,hexagon
0.0,2.0,0.0,0.0,3.0,3.0,443.3900330000142,2.0,1.0,phase_1,,,,,,,,,,,,,green,flipped triangle
324.0,2.0,2.0,0.0,3.0,3.0,351.9188750001376,2.0,1.0,phase_1,,,,,,,,,,,,,green,flipped triangle
159.0,1.0,1.0,0.0,4.0,4.0,461.7589320000661,2.0,1.0,phase_1,,,,,,,,,,,,,cyan,hexagon
168.0,5.0,1.0,1.0,1.0,1.0,387.6618100002815,2.0,1.0,phase_1,,,,,,,,,,,,,magenta,square
656.0,3.0,3.0,0.0,3.0,3.0,388.5044970002127,2.0,1.0,phase_1,,,,,,,,,,,,,white,triangle
0.0,2.0,0.0,0.0,1.0,1.0,399.3945189999976,2.0,1.0,phase_1,,,,,,,,,,,,,green,flipped triangle
310.0,6.0,2.0,1.0,3.0,3.0,416.3255399998888,2.0,1.0,phase_1,,,,,,,,,,,,,gray,cross
0.0,3.0,0.0,0.0,1.0,1.0,351.3022410002122,2.0,1.0,phase_1,,,,,,,,,,,,,white,triangle
644.0,3.0,3.0,0.0,3.0,3.0,416.571236999971,3.0,1.0,phase_1,,,,,,,,,,,,,white,triangle
349.0,2.0,2.0,0.0,3.0,3.0,316.5758669997558,3.0,1.0,phase_1,,,,,,,,,,,,,green,flipped triangle
0.0,8.0,0.0,1.0,3.0,3.0,351.4099970002462,3.0,1.0,phase_1,,,,,,,,,,,,,orange,circle
345.0,2.0,2.0,0.0,1.0,1.0,396.5605470002629,3.0,1.0,phase_1,,,,,,,,,,,,,green,flipped triangle
1314.0,4.0,4.0,0.0,3.0,3.0,424.9688679997234,3.0,1.0,phase_1,,,,,,,,,,,,,yellow,I
1282.0,4.0,4.0,0.0,4.0,4.0,434.6340030001556,3.0,1.0,phase_1,,,,,,,,,,,,,yellow,I
664.0,3.0,3.0,0.0,2.0,2.0,387.9967820003003,3.0,1.0,phase_1,,,,,,,,,,,,,white,triangle
666.0,7.0,3.0,1.0,3.0,3.0,389.3966369996633,3.0,1.0,phase_1,,,,,,,,,,,,,blue,diamond
0.0,5.0,0.0,1.0,3.0,3.0,342.4230459995669,3.0,1.0,phase_1,,,,,,,,,,,,,magenta,square
343.0,2.0,2.0,0.0,2.0,2.0,453.4599329999764,3.0,1.0,phase_1,,,,,,,,,,,,,green,flipped triangle
307.0,6.0,2.0,1.0,2.0,2.0,331.6504469999017,3.0,1.0,phase_1,,,,,,,,,,,,,gray,cross
1317.0,4.0,4.0,0.0,2.0,2.0,424.3232949997946,3.0,1.0,phase_1,,,,,,,,,,,,,yellow,I
0.0,1.0,0.0,0.0,3.0,3.0,370.140113999696,3.0,1.0,phase_1,,,,,,,,,,,,,cyan,hexagon
0.0,7.0,0.0,1.0,3.0,3.0,379.4085679996897,3.0,1.0,phase_1,,,,,,,,,,,,,blue,diamond
341.0,6.0,2.0,1.0,4.0,4.0,425.482306000049,3.0,1.0,phase_1,,,,,,,,,,,,,gray,cross
644.0,3.0,3.0,0.0,4.0,4.0,360.6508640000356,3.0,1.0,phase_1,,,,,,,,,,,,,white,triangle
335.0,6.0,2.0,1.0,1.0,1.0,361.3865689999329,3.0,1.0,phase_1,,,,,,,,,,,,,gray,cross
0.0,6.0,0.0,1.0,4.0,4.0,416.1546909999742,3.0,1.0,phase_1,,,,,,,,,,,,,gray,cross
338.0,6.0,2.0,1.0,4.0,4.0,389.2681870001979,3.0,1.0,phase_1,,,,,,,,,,,,,gray,cross
653.0,7.0,3.0,1.0,1.0,1.0,388.618222000332,3.0,1.0,phase_1,,,,,,,,,,,,,blue,diamond
349.0,6.0,2.0,1.0,4.0,4.0,600.9630250000555,3.0,1.0,phase_1,,,,,,,,,,,,,gray,cross
1298.0,8.0,4.0,1.0,1.0,1.0,342.5073610001163,3.0,1.0,phase_1,,,,,,,,,,,,,orange,circle
167.0,1.0,1.0,0.0,2.0,2.0,462.7678329998161,3.0,1.0,phase_1,,,,,,,,,,,,,cyan,hexagon
0.0,6.0,0.0,1.0,2.0,2.0,408.197528999608,3.0,1.0,phase_1,,,,,,,,,,,,,gray,cross
0.0,4.0,0.0,0.0,4.0,4.0,334.2348869996385,3.0,1.0,phase_1,,,,,,,,,,,,,yellow,I
176.0,1.0,1.0,0.0,2.0,2.0,398.5573079999085,3.0,1.0,phase_1,,,,,,,,,,,,,cyan,hexagon
167.0,5.0,1.0,1.0,4.0,4.0,388.1977569999435,3.0,1.0,phase_1,,,,,,,,,,,,,magenta,square
644.0,7.0,3.0,1.0,1.0,1.0,471.6867180000008,3.0,1.0,phase_1,,,,,,,,,,,,,blue,diamond
1277.0,8.0,4.0,1.0,3.0,3.0,379.629462000139,3.0,1.0,phase_1,,,,,,,,,,,,,orange,circle
1285.0,4.0,4.0,0.0,4.0,4.0,435.4651779999585,3.0,1.0,phase_1,,,,,,,,,,,,,yellow,I
338.0,2.0,2.0,0.0,4.0,4.0,381.3750250001249,3.0,1.0,phase_1,,,,,,,,,,,,,green,flipped triangle
644.0,7.0,3.0,1.0,2.0,2.0,455.4644469999402,3.0,1.0,phase_1,,,,,,,,,,,,,blue,diamond
0.0,7.0,0.0,1.0,2.0,2.0,333.7227599995458,3.0,1.0,phase_1,,,,,,,,,,,,,blue,diamond
0.0,8.0,0.0,1.0,4.0,4.0,453.1629250000151,3.0,1.0,phase_1,,,,,,,,,,,,,orange,circle
1304.0,8.0,4.0,1.0,2.0,2.0,360.4619159996218,3.0,1.0,phase_1,,,,,,,,,,,,,orange,circle
1315.0,8.0,4.0,1.0,3.0,3.0,435.0647159999425,3.0,1.0,phase_1,,,,,,,,,,,,,orange,circle
312.0,6.0,2.0,1.0,1.0,1.0,555.6279610000274,3.0,1.0,phase_1,,,,,,,,,,,,,gray,cross
1308.0,4.0,4.0,0.0,3.0,3.0,398.3193340000071,3.0,1.0,phase_1,,,,,,,,,,,,,yellow,I
1284.0,8.0,4.0,1.0,3.0,3.0,334.9862109998867,3.0,1.0,phase_1,,,,,,,,,,,,,orange,circle
628.0,7.0,3.0,1.0,3.0,3.0,305.1545140001508,3.0,1.0,phase_1,,,,,,,,,,,,,blue,diamond
349.0,6.0,2.0,1.0,2.0,2.0,489.8729860001367,3.0,1.0,phase_1,,,,,,,,,,,,,gray,cross
168.0,1.0,1.0,0.0,1.0,1.0,397.9944269999578,3.0,1.0,phase_1,,,,,,,,,,,,,cyan,hexagon
1279.0,8.0,4.0,1.0,3.0,3.0,435.5534350002017,3.0,1.0,phase_1,,,,,,,,,,,,,orange,circle
0.0,2.0,0.0,0.0,2.0,2.0,379.156798999702,3.0,1.0,phase_1,,,,,,,,,,,,,green,flipped triangle
0.0,1.0,0.0,0.0,2.0,2.0,407.2717839999313,3.0,1.0,phase_1,,,,,,,,,,,,,cyan,hexagon
644.0,3.0,3.0,0.0,4.0,4.0,420.3044429996225,3.0,1.0,phase_1,,,,,,,,,,,,,white,triangle
1288.0,8.0,4.0,1.0,3.0,3.0,417.233306000071,3.0,1.0,phase_1,,,,,,,,,,,,,orange,circle
0.0,2.0,0.0,0.0,3.0,3.0,353.5650270000587,3.0,1.0,phase_1,,,,,,,,,,,,,green,flipped triangle
162.0,5.0,1.0,1.0,1.0,1.0,416.6267569999036,3.0,1.0,phase_1,,,,,,,,,,,,,magenta,square
312.0,2.0,2.0,0.0,2.0,2.0,509.843587999967,3.0,1.0,phase_1,,,,,,,,,,,,,green,flipped triangle
0.0,4.0,0.0,0.0,3.0,3.0,324.08343499992037,3.0,1.0,phase_1,,,,,,,,,,,,,yellow,I
304.0,6.0,2.0,1.0,1.0,1.0,389.5654580001064,3.0,1.0,phase_1,,,,,,,,,,,,,gray,cross
1295.0,8.0,4.0,1.0,1.0,1.0,344.424097999763,3.0,1.0,phase_1,,,,,,,,,,,,,orange,circle
0.0,4.0,0.0,0.0,1.0,1.0,379.3507929999578,3.0,1.0,phase_1,,,,,,,,,,,,,yellow,I
0.0,6.0,0.0,1.0,3.0,3.0,444.2485290001059,3.0,1.0,phase_1,,,,,,,,,,,,,gray,cross
178.0,5.0,1.0,1.0,4.0,4.0,527.5316129996099,3.0,1.0,phase_1,,,,,,,,,,,,,magenta,square
628.0,3.0,3.0,0.0,1.0,1.0,361.2355119998938,3.0,1.0,phase_1,,,,,,,,,,,,,white,triangle
322.0,6.0,2.0,1.0,3.0,3.0,362.3593380002603,3.0,1.0,phase_1,,,,,,,,,,,,,gray,cross
335.0,6.0,2.0,1.0,2.0,2.0,619.8905420001211,3.0,1.0,phase_1,,,,,,,,,,,,,gray,cross
187.0,1.0,1.0,0.0,1.0,1.0,399.0639550002015,3.0,1.0,phase_1,,,,,,,,,,,,,cyan,hexagon
642.0,3.0,3.0,0.0,4.0,4.0,361.1884150000151,3.0,1.0,phase_1,,,,,,,,,,,,,white,triangle
157.0,1.0,1.0,0.0,3.0,3.0,398.2097889997931,3.0,1.0,phase_1,,,,,,,,,,,,,cyan,hexagon
0.0,8.0,0.0,1.0,1.0,1.0,369.4813679999242,3.0,1.0,phase_1,,,,,,,,,,,,,orange,circle
657.0,7.0,3.0,1.0,2.0,2.0,398.430929999904,3.0,1.0,phase_1,,,,,,,,,,,,,blue,diamond
0.0,6.0,0.0,1.0,3.0,3.0,341.0170180000023,3.0,1.0,phase_1,,,,,,,,,,,,,gray,cross
144.0,5.0,1.0,1.0,4.0,4.0,463.2303600001251,3.0,1.0,phase_1,,,,,,,,,,,,,magenta,square
302.0,6.0,2.0,1.0,1.0,1.0,417.47292700028987,3.0,1.0,phase_1,,,,,,,,,,,,,gray,cross
180.0,1.0,1.0,0.0,1.0,1.0,399.1846489998352,3.0,1.0,phase_1,,,,,,,,,,,,,cyan,hexagon
1294.0,8.0,4.0,1.0,3.0,3.0,352.1894730001804,3.0,1.0,phase_1,,,,,,,,,,,,,orange,circle
325.0,2.0,2.0,0.0,1.0,1.0,352.0207330002449,3.0,1.0,phase_1,,,,,,,,,,,,,green,flipped triangle
339.0,6.0,2.0,1.0,4.0,4.0,387.7457109997522,3.0,1.0,phase_1,,,,,,,,,,,,,gray,cross
187.0,5.0,1.0,1.0,4.0,4.0,398.777438000252,3.0,1.0,phase_1,,,,,,,,,,,,,magenta,square
0.0,2.0,0.0,0.0,1.0,1.0,351.4297440001428,3.0,1.0,phase_1,,,,,,,,,,,,,green,flipped triangle
1314.0,8.0,4.0,1.0,1.0,1.0,342.5212790002661,3.0,1.0,phase_1,,,,,,,,,,,,,orange,circle
331.0,6.0,2.0,1.0,3.0,3.0,470.9682620000421,3.0,1.0,phase_1,,,,,,,,,,,,,gray,cross
666.0,3.0,3.0,0.0,1.0,1.0,368.9173220000157,3.0,1.0,phase_1,,,,,,,,,,,,,white,triangle
0.0,3.0,0.0,0.0,2.0,2.0,378.5533559998839,3.0,1.0,phase_1,,,,,,,,,,,,,white,triangle
0.0,4.0,0.0,0.0,4.0,4.0,600.100952000048,3.0,1.0,phase_1,,,,,,,,,,,,,yellow,I
672.0,3.0,3.0,0.0,4.0,4.0,379.6009329998924,3.0,1.0,phase_1,,,,,,,,,,,,,white,triangle
141.0,5.0,1.0,1.0,3.0,3.0,444.7278800003005,3.0,1.0,phase_1,,,,,,,,,,,,,magenta,square
657.0,3.0,3.0,0.0,1.0,1.0,489.0478460001759,3.0,1.0,phase_1,,,,,,,,,,,,,white,triangle
317.0,6.0,2.0,1.0,2.0,2.0,379.5797220000168,3.0,2.0,phase_1,,,,,,,,,,,,,gray,cross
1314.0,8.0,4.0,1.0,2.0,2.0,407.3168879999684,3.0,1.0,phase_1,,,,,,,,,,,,,orange,circle
666.0,3.0,3.0,0.0,2.0,2.0,323.7411140003132,3.0,1.0,phase_1,,,,,,,,,,,,,white,triangle
145.0,1.0,1.0,0.0,3.0,3.0,407.5850230001379,3.0,1.0,phase_1,,,,,,,,,,,,,cyan,hexagon
643.0,7.0,3.0,1.0,1.0,1.0,693.3979389996239,3.0,1.0,phase_1,,,,,,,,,,,,,blue,diamond
349.0,2.0,2.0,0.0,2.0,2.0,452.7022580000448,3.0,1.0,phase_1,,,,,,,,,,,,,green,flipped triangle
314.0,6.0,2.0,1.0,3.0,3.0,452.6716690002104,3.0,1.0,phase_1,,,,,,,,,,,,,gray,cross
176.0,5.0,1.0,1.0,3.0,3.0,481.1157260000982,3.0,1.0,phase_1,,,,,,,,,,,,,magenta,square
656.0,7.0,3.0,1.0,2.0,2.0,444.770698999946,3.0,1.0,phase_1,,,,,,,,,,,,,blue,diamond
1306.0,4.0,4.0,0.0,3.0,3.0,500.19081199980064,3.0,1.0,phase_1,,,,,,,,,,,,,yellow,I
321.0,6.0,2.0,1.0,1.0,1.0,609.5887980000043,3.0,1.0,phase_1,,,,,,,,,,,,,gray,cross
644.0,7.0,3.0,1.0,2.0,2.0,481.1400560001857,3.0,1.0,phase_1,,,,,,,,,,,,,blue,diamond
314.0,6.0,2.0,1.0,1.0,1.0,415.9025489998385,3.0,1.0,phase_1,,,,,,,,,,,,,gray,cross
325.0,6.0,2.0,1.0,3.0,3.0,517.0156609997321,3.0,1.0,phase_1,,,,,,,,,,,,,gray,cross
1309.0,8.0,4.0,1.0,4.0,4.0,434.9023630002193,3.0,1.0,phase_1,,,,,,,,,,,,,orange,circle
1315.0,4.0,4.0,0.0,4.0,4.0,471.6300199997931,3.0,1.0,phase_1,,,,,,,,,,,,,yellow,I
1282.0,4.0,4.0,0.0,3.0,3.0,398.4681140000248,3.0,1.0,phase_1,,,,,,,,,,,,,yellow,I
668.0,7.0,3.0,1.0,3.0,3.0,453.2828999999765,3.0,1.0,phase_1,,,,,,,,,,,,,blue,diamond
342.0,2.0,2.0,0.0,1.0,1.0,360.3966209998361,3.0,1.0,phase_1,,,,,,,,,,,,,green,flipped triangle
137.0,1.0,1.0,0.0,2.0,2.0,492.4024559995814,4.0,1.0,phase_1,,,,,,,,,,,,,cyan,hexagon
168.0,5.0,1.0,1.0,3.0,3.0,353.3955670000068,4.0,1.0,phase_1,,,,,,,,,,,,,magenta,square
176.0,1.0,1.0,0.0,3.0,3.0,369.9759280002581,4.0,1.0,phase_1,,,,,,,,,,,,,cyan,hexagon
0.0,4.0,0.0,0.0,2.0,2.0,388.8833379996868,4.0,1.0,phase_1,,,,,,,,,,,,,yellow,I
1315.0,4.0,4.0,0.0,1.0,1.0,333.3903779998763,4.0,1.0,phase_1,,,,,,,,,,,,,yellow,I
0.0,4.0,0.0,0.0,3.0,3.0,342.6071599997158,4.0,1.0,phase_1,,,,,,,,,,,,,yellow,I
0.0,8.0,0.0,1.0,4.0,4.0,363.6713649998455,4.0,1.0,phase_1,,,,,,,,,,,,,orange,circle
1320.0,4.0,4.0,0.0,1.0,1.0,389.0477170002668,4.0,1.0,phase_1,,,,,,,,,,,,,yellow,I
163.0,1.0,1.0,0.0,1.0,1.0,379.8100599997269,4.0,1.0,phase_1,,,,,,,,,,,,,cyan,hexagon
0.0,2.0,0.0,0.0,4.0,4.0,380.107425999995,4.0,1.0,phase_1,,,,,,,,,,,,,green,flipped triangle
310.0,2.0,2.0,0.0,3.0,3.0,435.3338709997842,4.0,1.0,phase_1,,,,,,,,,,,,,green,flipped triangle
663.0,7.0,3.0,1.0,1.0,1.0,370.7081020002079,4.0,1.0,phase_1,,,,,,,,,,,,,blue,diamond
321.0,2.0,2.0,0.0,1.0,1.0,305.5598070000087,4.0,1.0,phase_1,,,,,,,,,,,,,green,flipped triangle
1305.0,8.0,4.0,1.0,3.0,3.0,362.1377940003185,4.0,1.0,phase_1,,,,,,,,,,,,,orange,circle
637.0,3.0,3.0,0.0,4.0,4.0,369.9975119998271,4.0,1.0,phase_1,,,,,,,,,,,,,white,triangle
153.0,5.0,1.0,1.0,1.0,1.0,361.3851719997001,4.0,1.0,phase_1,,,,,,,,,,,,,magenta,square
1314.0,4.0,4.0,0.0,1.0,1.0,315.4953569996905,4.0,1.0,phase_1,,,,,,,,,,,,,yellow,I
305.0,2.0,2.0,0.0,4.0,4.0,407.9005349999534,4.0,1.0,phase_1,,,,,,,,,,,,,green,flipped triangle
642.0,7.0,3.0,1.0,4.0,4.0,388.3001679996596,4.0,1.0,phase_1,,,,,,,,,,,,,blue,diamond
183.0,1.0,1.0,0.0,3.0,3.0,342.2862820002592,4.0,1.0,phase_1,,,,,,,,,,,,,cyan,hexagon
654.0,7.0,3.0,1.0,4.0,4.0,380.2331209999465,4.0,1.0,phase_1,,,,,,,,,,,,,blue,diamond
306.0,6.0,2.0,1.0,4.0,4.0,389.9333109998224,4.0,1.0,phase_1,,,,,,,,,,,,,gray,cross
669.0,7.0,3.0,1.0,3.0,3.0,343.2565480002267,4.0,1.0,phase_1,,,,,,,,,,,,,blue,diamond
1284.0,8.0,4.0,1.0,1.0,1.0,407.6376279999749,4.0,1.0,phase_1,,,,,,,,,,,,,orange,circle
1294.0,4.0,4.0,0.0,4.0,4.0,508.4239559996604,4.0,1.0,phase_1,,,,,,,,,,,,,yellow,I
182.0,5.0,1.0,1.0,2.0,2.0,360.8100090000334,4.0,1.0,phase_1,,,,,,,,,,,,,magenta,square
0.0,6.0,0.0,1.0,4.0,4.0,388.234341000043,4.0,1.0,phase_1,,,,,,,,,,,,,gray,cross
1315.0,4.0,4.0,0.0,4.0,4.0,424.9593579997963,4.0,1.0,phase_1,,,,,,,,,,,,,yellow,I
1282.0,8.0,4.0,1.0,2.0,2.0,378.9985799999158,4.0,1.0,phase_1,,,,,,,,,,,,,orange,circle
305.0,6.0,2.0,1.0,1.0,1.0,361.3514610001402,4.0,1.0,phase_1,,,,,,,,,,,,,gray,cross
166.0,5.0,1.0,1.0,1.0,1.0,434.4353880001108,4.0,1.0,phase_1,,,,,,,,,,,,,magenta,square
172.0,1.0,1.0,0.0,4.0,4.0,518.5600939998949,4.0,1.0,phase_1,,,,,,,,,,,,,cyan,hexagon
671.0,3.0,3.0,0.0,3.0,3.0,407.9236860002311,4.0,1.0,phase_1,,,,,,,,,,,,,white,triangle
162.0,1.0,1.0,0.0,2.0,2.0,381.1858469998697,4.0,1.0,phase_1,,,,,,,,,,,,,cyan,hexagon
1296.0,4.0,4.0,0.0,3.0,3.0,427.1619319997626,4.0,1.0,phase_1,,,,,,,,,,,,,yellow,I
664.0,7.0,3.0,1.0,3.0,3.0,362.396082000032,4.0,1.0,phase_1,,,,,,,,,,,,,blue,diamond
0.0,6.0,0.0,1.0,2.0,2.0,434.8331560004226,4.0,1.0,phase_1,,,,,,,,,,,,,gray,cross
0.0,7.0,0.0,1.0,2.0,2.0,390.0814720000198,4.0,1.0,phase_1,,,,,,,,,,,,,blue,diamond
672.0,3.0,3.0,0.0,3.0,3.0,325.028489000033,4.0,1.0,phase_1,,,,,,,,,,,,,white,triangle
656.0,3.0,3.0,0.0,1.0,1.0,481.2215060001108,4.0,1.0,phase_1,,,,,,,,,,,,,white,triangle
183.0,1.0,1.0,0.0,4.0,4.0,370.70901100014447,4.0,1.0,phase_1,,,,,,,,,,,,,cyan,hexagon
1282.0,8.0,4.0,1.0,1.0,1.0,370.0493689998438,4.0,1.0,phase_1,,,,,,,,,,,,,orange,circle
628.0,7.0,3.0,1.0,4.0,4.0,342.9770389998339,4.0,1.0,phase_1,,,,,,,,,,,,,blue,diamond
331.0,6.0,2.0,1.0,3.0,3.0,398.53789100016,4.0,1.0,phase_1,,,,,,,,,,,,,gray,cross
0.0,2.0,0.0,0.0,3.0,3.0,389.0440130003298,4.0,1.0,phase_1,,,,,,,,,,,,,green,flipped triangle
168.0,1.0,1.0,0.0,2.0,2.0,370.6254840003566,4.0,1.0,phase_1,,,,,,,,,,,,,cyan,hexagon
0.0,3.0,0.0,0.0,1.0,1.0,425.9813590001613,4.0,1.0,phase_1,,,,,,,,,,,,,white,triangle
152.0,1.0,1.0,0.0,3.0,3.0,389.1658950001329,4.0,1.0,phase_1,,,,,,,,,,,,,cyan,hexagon
144.0,1.0,1.0,0.0,1.0,1.0,471.3384179999593,4.0,1.0,phase_1,,,,,,,,,,,,,cyan,hexagon
645.0,3.0,3.0,0.0,3.0,3.0,408.0092710000826,4.0,1.0,phase_1,,,,,,,,,,,,,white,triangle
322.0,2.0,2.0,0.0,2.0,2.0,406.2528189997465,4.0,1.0,phase_1,,,,,,,,,,,,,green,flipped triangle
1294.0,8.0,4.0,1.0,3.0,3.0,379.3716559998756,4.0,1.0,phase_1,,,,,,,,,,,,,orange,circle
336.0,2.0,2.0,0.0,3.0,3.0,371.3505270002315,4.0,1.0,phase_1,,,,,,,,,,,,,green,flipped triangle
1284.0,4.0,4.0,0.0,2.0,2.0,454.2148850000558,4.0,1.0,phase_1,,,,,,,,,,,,,yellow,I
308.0,2.0,2.0,0.0,2.0,2.0,381.0491670001283,4.0,1.0,phase_1,,,,,,,,,,,,,green,flipped triangle
138.0,5.0,1.0,1.0,2.0,2.0,352.3329659997216,4.0,1.0,phase_1,,,,,,,,,,,,,magenta,square
634.0,3.0,3.0,0.0,2.0,2.0,564.7450940000454,4.0,1.0,phase_1,,,,,,,,,,,,,white,triangle
0.0,5.0,0.0,1.0,1.0,1.0,391.4589249998244,4.0,1.0,phase_1,,,,,,,,,,,,,magenta,square
0.0,3.0,0.0,0.0,1.0,1.0,324.9334130000534,4.0,1.0,phase_1,,,,,,,,,,,,,white,triangle
324.0,6.0,2.0,1.0,2.0,2.0,324.4596429999546,4.0,2.0,phase_1,,,,,,,,,,,,,gray,cross
633.0,3.0,3.0,0.0,4.0,4.0,572.0141429997057,4.0,1.0,phase_1,,,,,,,,,,,,,white,triangle
176.0,5.0,1.0,1.0,4.0,4.0,461.5624410002965,4.0,1.0,phase_1,,,,,,,,,,,,,magenta,square
181.0,5.0,1.0,1.0,3.0,3.0,709.5730219998586,4.0,1.0,phase_1,,,,,,,,,,,,,magenta,square
0.0,4.0,0.0,0.0,2.0,2.0,406.8357420001121,4.0,1.0,phase_1,,,,,,,,,,,,,yellow,I
654.0,3.0,3.0,0.0,4.0,4.0,490.2783550001004,4.0,1.0,phase_1,,,,,,,,,,,,,white,triangle
0.0,4.0,0.0,0.0,1.0,1.0,314.4553130000531,4.0,1.0,phase_1,,,,,,,,,,,,,yellow,I
1317.0,8.0,4.0,1.0,4.0,4.0,425.9528279999358,4.0,1.0,phase_1,,,,,,,,,,,,,orange,circle
335.0,2.0,2.0,0.0,4.0,4.0,406.7151680001188,4.0,1.0,phase_1,,,,,,,,,,,,,green,flipped triangle
166.0,1.0,1.0,0.0,4.0,4.0,407.5789299999997,4.0,1.0,phase_1,,,,,,,,,,,,,cyan,hexagon
1319.0,8.0,4.0,1.0,4.0,4.0,399.7999819998767,4.0,1.0,phase_1,,,,,,,,,,,,,orange,circle
0.0,5.0,0.0,1.0,2.0,2.0,444.4797790001757,4.0,1.0,phase_1,,,,,,,,,,,,,magenta,square
0.0,8.0,0.0,1.0,4.0,4.0,436.6400499998235,4.0,1.0,phase_1,,,,,,,,,,,,,orange,circle
137.0,5.0,1.0,1.0,4.0,4.0,352.2806149999269,4.0,1.0,phase_1,,,,,,,,,,,,,magenta,square
167.0,1.0,1.0,0.0,1.0,1.0,407.8946949998681,4.0,1.0,phase_1,,,,,,,,,,,,,cyan,hexagon
341.0,2.0,2.0,0.0,2.0,2.0,526.9354170000042,4.0,1.0,phase_1,,,,,,,,,,,,,green,flipped triangle
0.0,2.0,0.0,0.0,2.0,2.0,371.5392409999367,4.0,1.0,phase_1,,,,,,,,,,,,,green,flipped triangle
1308.0,8.0,4.0,1.0,2.0,2.0,397.8387100000873,4.0,1.0,phase_1,,,,,,,,,,,,,orange,circle
153.0,1.0,1.0,0.0,2.0,2.0,369.2720590001954,4.0,1.0,phase_1,,,,,,,,,,,,,cyan,hexagon
0.0,7.0,0.0,1.0,1.0,1.0,629.4782609998038,4.0,1.0,phase_1,,,,,,,,,,,,,blue,diamond
318.0,2.0,2.0,0.0,3.0,3.0,435.102136000296,4.0,1.0,phase_1,,,,,,,,,,,,,green,flipped triangle
325.0,6.0,2.0,1.0,3.0,3.0,499.8076729998502,4.0,1.0,phase_1,,,,,,,,,,,,,gray,cross
176.0,5.0,1.0,1.0,3.0,3.0,472.5216730003012,4.0,1.0,phase_1,,,,,,,,,,,,,magenta,square
671.0,7.0,3.0,1.0,2.0,2.0,414.0161580003223,4.0,1.0,phase_1,,,,,,,,,,,,,blue,diamond
321.0,2.0,2.0,0.0,2.0,2.0,406.3467510000009,4.0,1.0,phase_1,,,,,,,,,,,,,green,flipped triangle
150.0,1.0,1.0,0.0,4.0,4.0,436.5621130000363,4.0,1.0,phase_1,,,,,,,,,,,,,cyan,hexagon
1304.0,4.0,4.0,0.0,1.0,1.0,433.6517010001444,4.0,1.0,phase_1,,,,,,,,,,,,,yellow,I
334.0,2.0,2.0,0.0,1.0,1.0,368.5871950001456,4.0,1.0,phase_1,,,,,,,,,,,,,green,flipped triangle
643.0,3.0,3.0,0.0,2.0,2.0,406.9845260000875,4.0,1.0,phase_1,,,,,,,,,,,,,white,triangle
1279.0,4.0,4.0,0.0,3.0,3.0,423.9568879997932,4.0,1.0,phase_1,,,,,,,,,,,,,yellow,I
0.0,7.0,0.0,1.0,2.0,2.0,483.412423000118,4.0,1.0,phase_1,,,,,,,,,,,,,blue,diamond
0.0,5.0,0.0,1.0,1.0,1.0,407.5502410000808,4.0,1.0,phase_1,,,,,,,,,,,,,magenta,square
0.0,3.0,0.0,0.0,4.0,4.0,499.0226990003066,4.0,1.0,phase_1,,,,,,,,,,,,,white,triangle
631.0,3.0,3.0,0.0,1.0,1.0,406.8547519996173,4.0,1.0,phase_1,,,,,,,,,,,,,white,triangle
1325.0,4.0,4.0,0.0,3.0,3.0,443.8672729997961,4.0,1.0,phase_1,,,,,,,,,,,,,yellow,I
663.0,3.0,3.0,0.0,1.0,1.0,397.4087229998986,4.0,1.0,phase_1,,,,,,,,,,,,,white,triangle
1277.0,4.0,4.0,0.0,2.0,2.0,490.8789989999604,4.0,1.0,phase_1,,,,,,,,,,,,,yellow,I
336.0,6.0,2.0,1.0,3.0,3.0,461.9881230000828,4.0,1.0,phase_1,,,,,,,,,,,,,gray,cross
0.0,1.0,0.0,0.0,2.0,2.0,490.5444150003859,4.0,1.0,phase_1,,,,,,,,,,,,,cyan,hexagon
672.0,7.0,3.0,1.0,2.0,2.0,431.0604730003433,4.0,1.0,phase_1,,,,,,,,,,,,,blue,diamond
1322.0,4.0,4.0,0.0,4.0,4.0,516.7861340000854,4.0,1.0,phase_1,,,,,,,,,,,,,yellow,I
0.0,4.0,4.0,0.0,5.0,5.0,425.9265109999433,1.0,1.0,phase_2,go,250.0,250.0,1.0,,,,,,,,,yellow,I
0.0,4.0,4.0,0.0,5.0,5.0,498.6891739999919,1.0,1.0,phase_2,go,250.0,250.0,1.0,,,,,,,,,yellow,I
0.0,1.0,1.0,0.0,5.0,5.0,637.1354249999968,1.0,1.0,phase_2,go,250.0,250.0,1.0,,,,,,,,,cyan,hexagon
0.0,5.0,1.0,1.0,6.0,0.0,0.0,1.0,1.0,phase_2,stop,250.0,250.0,4.0,,,,,,,,,magenta,square
0.0,4.0,4.0,0.0,6.0,6.0,520.9315789998072,1.0,1.0,phase_2,go,250.0,300.0,1.0,,,,,,,,,yellow,I
0.0,3.0,3.0,0.0,5.0,5.0,548.7723710002683,1.0,1.0,phase_2,go,250.0,300.0,1.0,,,,,,,,,white,triangle
0.0,6.0,2.0,1.0,5.0,0.0,0.0,1.0,1.0,phase_2,stop,250.0,300.0,4.0,,,,,,,,,gray,cross
0.0,4.0,4.0,0.0,6.0,6.0,603.9643210001486,1.0,1.0,phase_2,go,300.0,300.0,1.0,,,,,,,,,yellow,I
0.0,4.0,4.0,0.0,5.0,5.0,584.8646740000731,1.0,1.0,phase_2,go,300.0,300.0,1.0,,,,,,,,,yellow,I
0.0,7.0,3.0,1.0,5.0,0.0,0.0,1.0,1.0,phase_2,stop,300.0,300.0,4.0,,,,,,,,,blue,diamond
0.0,5.0,1.0,1.0,6.0,0.0,0.0,1.0,1.0,phase_2,stop,350.0,300.0,4.0,,,,,,,,,magenta,square
0.0,5.0,1.0,1.0,5.0,5.0,565.1424319999023,1.0,1.0,phase_2,stop,350.0,350.0,3.0,,,,,,,,,magenta,square
0.0,6.0,2.0,1.0,5.0,5.0,735.942557999806,1.0,1.0,phase_2,go,300.0,350.0,1.0,,,,,,,,,gray,cross
0.0,4.0,4.0,0.0,5.0,5.0,632.4412949998077,1.0,1.0,phase_2,go,300.0,350.0,1.0,,,,,,,,,yellow,I
0.0,4.0,4.0,0.0,6.0,6.0,736.1286790001031,1.0,1.0,phase_2,go,300.0,350.0,1.0,,,,,,,,,yellow,I
0.0,7.0,3.0,1.0,5.0,0.0,0.0,1.0,1.0,phase_2,stop,300.0,350.0,4.0,,,,,,,,,blue,diamond
0.0,4.0,4.0,0.0,6.0,6.0,761.3549400002739,1.0,1.0,phase_2,go,350.0,350.0,1.0,,,,,,,,,yellow,I
0.0,8.0,4.0,1.0,5.0,0.0,0.0,1.0,1.0,phase_2,stop,350.0,350.0,4.0,,,,,,,,,orange,circle
0.0,6.0,2.0,1.0,6.0,0.0,0.0,1.0,1.0,phase_2,stop,400.0,350.0,4.0,,,,,,,,,gray,cross
0.0,7.0,3.0,1.0,5.0,0.0,0.0,1.0,1.0,phase_2,stop,400.0,400.0,4.0,,,,,,,,,blue,diamond
0.0,4.0,4.0,0.0,6.0,6.0,733.5131159998127,1.0,1.0,phase_2,go,450.0,400.0,1.0,,,,,,,,,yellow,I
0.0,6.0,2.0,1.0,5.0,0.0,0.0,1.0,1.0,phase_2,stop,450.0,400.0,4.0,,,,,,,,,gray,cross
0.0,1.0,1.0,0.0,6.0,6.0,745.951050000258,1.0,1.0,phase_2,go,500.0,400.0,1.0,,,,,,,,,cyan,hexagon
0.0,1.0,1.0,0.0,5.0,5.0,828.1625750000785,1.0,1.0,phase_2,go,500.0,400.0,1.0,,,,,,,,,cyan,hexagon
0.0,7.0,3.0,1.0,5.0,0.0,0.0,1.0,1.0,phase_2,stop,500.0,400.0,4.0,,,,,,,,,blue,diamond
0.0,7.0,3.0,1.0,6.0,6.0,755.1172869998481,1.0,1.0,phase_2,go,550.0,400.0,1.0,,,,,,,,,blue,diamond
0.0,6.0,2.0,1.0,6.0,6.0,781.6400570000042,1.0,1.0,phase_2,go,550.0,400.0,1.0,,,,,,,,,gray,cross
0.0,1.0,1.0,0.0,6.0,6.0,762.8119660002994,1.0,1.0,phase_2,go,550.0,400.0,1.0,,,,,,,,,cyan,hexagon
0.0,7.0,3.0,1.0,5.0,0.0,0.0,1.0,1.0,phase_2,stop,550.0,400.0,4.0,,,,,,,,,blue,diamond
0.0,1.0,1.0,0.0,5.0,5.0,732.8254080002807,1.0,1.0,phase_2,go,600.0,400.0,1.0,,,,,,,,,cyan,hexagon
0.0,6.0,2.0,1.0,6.0,0.0,0.0,1.0,1.0,phase_2,stop,600.0,400.0,4.0,,,,,,,,,gray,cross
0.0,8.0,4.0,1.0,6.0,6.0,736.3527279999289,1.0,1.0,phase_2,go,600.0,450.0,1.0,,,,,,,,,orange,circle
0.0,8.0,4.0,1.0,6.0,6.0,1013.8104640000165,1.0,1.0,phase_2,go,600.0,450.0,1.0,,,,,,,,,orange,circle
0.0,5.0,1.0,1.0,5.0,5.0,798.47942699962,1.0,1.0,phase_2,go,600.0,450.0,1.0,,,,,,,,,magenta,square
0.0,7.0,3.0,1.0,6.0,0.0,0.0,1.0,1.0,phase_2,stop,600.0,450.0,4.0,,,,,,,,,blue,diamond
0.0,5.0,1.0,1.0,5.0,5.0,689.8541719997411,1.0,1.0,phase_2,go,600.0,500.0,1.0,,,,,,,,,magenta,square
0.0,5.0,1.0,1.0,6.0,6.0,616.3160850001077,2.0,1.0,phase_2,stop,600.0,500.0,3.0,,,,,,,,,magenta,square
0.0,2.0,2.0,0.0,5.0,5.0,604.8127129997738,2.0,1.0,phase_2,go,600.0,450.0,1.0,,,,,,,,,green,flipped triangle
0.0,6.0,2.0,1.0,5.0,5.0,576.9917040001928,2.0,1.0,phase_2,stop,600.0,450.0,3.0,,,,,,,,,gray,cross
0.0,5.0,1.0,1.0,5.0,5.0,607.6643260003038,2.0,1.0,phase_2,stop,550.0,450.0,3.0,,,,,,,,,magenta,square
0.0,7.0,3.0,1.0,6.0,6.0,709.6866430001683,2.0,1.0,phase_2,go,500.0,450.0,1.0,,,,,,,,,blue,diamond
0.0,5.0,1.0,1.0,6.0,0.0,0.0,2.0,1.0,phase_2,stop,500.0,450.0,4.0,,,,,,,,,magenta,square
0.0,2.0,2.0,0.0,6.0,6.0,672.287802000028,2.0,1.0,phase_2,go,500.0,500.0,1.0,,,,,,,,,green,flipped triangle
0.0,8.0,4.0,1.0,5.0,5.0,713.9037340002687,2.0,1.0,phase_2,stop,500.0,500.0,3.0,,,,,,,,,orange,circle
0.0,5.0,1.0,1.0,6.0,6.0,780.590636999932,2.0,1.0,phase_2,go,450.0,500.0,1.0,,,,,,,,,magenta,square
0.0,7.0,3.0,1.0,5.0,0.0,0.0,2.0,1.0,phase_2,stop,450.0,500.0,4.0,,,,,,,,,blue,diamond
0.0,4.0,4.0,0.0,6.0,6.0,716.929779000111,2.0,1.0,phase_2,go,500.0,500.0,1.0,,,,,,,,,yellow,I
0.0,5.0,1.0,1.0,6.0,0.0,0.0,2.0,1.0,phase_2,stop,500.0,500.0,4.0,,,,,,,,,magenta,square
0.0,8.0,4.0,1.0,5.0,0.0,0.0,2.0,1.0,phase_2,stop,500.0,550.0,4.0,,,,,,,,,orange,circle
0.0,2.0,2.0,0.0,5.0,5.0,847.5794440000755,2.0,1.0,phase_2,go,550.0,550.0,1.0,,,,,,,,,green,flipped triangle
0.0,5.0,1.0,1.0,5.0,0.0,0.0,2.0,1.0,phase_2,stop,550.0,550.0,4.0,,,,,,,,,magenta,square
0.0,2.0,2.0,0.0,6.0,6.0,725.7854380000026,2.0,1.0,phase_2,go,600.0,550.0,1.0,,,,,,,,,green,flipped triangle
0.0,8.0,4.0,1.0,5.0,0.0,0.0,2.0,1.0,phase_2,stop,600.0,550.0,4.0,,,,,,,,,orange,circle
0.0,8.0,4.0,1.0,6.0,0.0,0.0,2.0,1.0,phase_2,stop,650.0,550.0,4.0,,,,,,,,,orange,circle
0.0,2.0,2.0,0.0,5.0,5.0,838.8664429999153,2.0,1.0,phase_2,go,650.0,600.0,1.0,,,,,,,,,green,flipped triangle
0.0,8.0,4.0,1.0,5.0,0.0,0.0,2.0,1.0,phase_2,stop,650.0,600.0,4.0,,,,,,,,,orange,circle
0.0,1.0,1.0,0.0,5.0,5.0,918.8460949999352,2.0,1.0,phase_2,go,700.0,600.0,1.0,,,,,,,,,cyan,hexagon
0.0,7.0,3.0,1.0,5.0,0.0,0.0,2.0,1.0,phase_2,stop,700.0,600.0,4.0,,,,,,,,,blue,diamond
0.0,7.0,3.0,1.0,6.0,6.0,957.9619099999944,2.0,1.0,phase_2,go,750.0,600.0,1.0,,,,,,,,,blue,diamond
0.0,2.0,2.0,0.0,6.0,6.0,845.1236949999839,2.0,1.0,phase_2,go,750.0,600.0,1.0,,,,,,,,,green,flipped triangle
0.0,2.0,2.0,0.0,6.0,6.0,1007.3043789998335,2.0,1.0,phase_2,go,750.0,600.0,1.0,,,,,,,,,green,flipped triangle
0.0,5.0,1.0,1.0,6.0,0.0,0.0,2.0,1.0,phase_2,stop,750.0,600.0,4.0,,,,,,,,,magenta,square
0.0,2.0,2.0,0.0,5.0,5.0,837.8255390002778,2.0,1.0,phase_2,go,750.0,650.0,1.0,,,,,,,,,green,flipped triangle
0.0,3.0,3.0,0.0,6.0,6.0,1033.7861800003338,2.0,1.0,phase_2,go,750.0,650.0,1.0,,,,,,,,,white,triangle
0.0,1.0,1.0,0.0,5.0,5.0,1095.960967999872,2.0,1.0,phase_2,go,750.0,650.0,1.0,,,,,,,,,cyan,hexagon
0.0,8.0,4.0,1.0,5.0,5.0,871.4612939998005,2.0,1.0,phase_2,stop,750.0,650.0,3.0,,,,,,,,,orange,circle
0.0,3.0,3.0,0.0,5.0,5.0,1078.7479529999473,2.0,1.0,phase_2,go,700.0,650.0,1.0,,,,,,,,,white,triangle
0.0,8.0,4.0,1.0,6.0,0.0,0.0,2.0,1.0,phase_2,stop,700.0,650.0,4.0,,,,,,,,,orange,circle
0.0,4.0,4.0,0.0,5.0,5.0,919.855605000066,2.0,1.0,phase_2,go,700.0,700.0,1.0,,,,,,,,,yellow,I
0.0,3.0,3.0,0.0,5.0,5.0,1145.6985929999064,2.0,1.0,phase_2,go,700.0,700.0,1.0,,,,,,,,,white,triangle
0.0,3.0,3.0,0.0,6.0,6.0,1295.1630419997855,2.0,1.0,phase_2,go,700.0,700.0,1.0,,,,,,,,,white,triangle
0.0,8.0,4.0,1.0,6.0,6.0,1284.963040000093,2.0,1.0,phase_2,go,700.0,700.0,1.0,,,,,,,,,orange,circle
0.0,8.0,4.0,1.0,5.0,5.0,486.6689250002309,3.0,1.0,phase_2,stop,700.0,700.0,3.0,,,,,,,,,orange,circle
0.0,2.0,2.0,0.0,5.0,5.0,728.1756630000018,3.0,1.0,phase_2,go,650.0,700.0,1.0,,,,,,,,,green,flipped triangle
0.0,5.0,1.0,1.0,6.0,6.0,689.6767909997834,3.0,1.0,phase_2,go,650.0,700.0,1.0,,,,,,,,,magenta,square
0.0,4.0,4.0,0.0,6.0,6.0,719.4258790000276,3.0,1.0,phase_2,go,650.0,700.0,1.0,,,,,,,,,yellow,I
0.0,6.0,2.0,1.0,6.0,6.0,699.8305179999988,3.0,1.0,phase_2,go,650.0,700.0,1.0,,,,,,,,,gray,cross
0.0,4.0,4.0,0.0,5.0,5.0,701.009657999748,3.0,1.0,phase_2,go,650.0,700.0,1.0,,,,,,,,,yellow,I
0.0,2.0,2.0,0.0,6.0,6.0,854.7531740000522,3.0,1.0,phase_2,go,650.0,700.0,1.0,,,,,,,,,green,flipped triangle
0.0,2.0,2.0,0.0,5.0,5.0,836.2246500000765,3.0,1.0,phase_2,go,650.0,700.0,1.0,,,,,,,,,green,flipped triangle
0.0,7.0,3.0,1.0,6.0,0.0,0.0,3.0,1.0,phase_2,stop,650.0,700.0,4.0,,,,,,,,,blue,diamond
0.0,8.0,4.0,1.0,5.0,0.0,0.0,3.0,1.0,phase_2,stop,650.0,750.0,4.0,,,,,,,,,orange,circle
0.0,6.0,2.0,1.0,5.0,0.0,0.0,3.0,1.0,phase_2,stop,700.0,750.0,4.0,,,,,,,,,gray,cross
0.0,1.0,1.0,0.0,6.0,6.0,702.1173690000069,3.0,1.0,phase_2,go,750.0,750.0,1.0,,,,,,,,,cyan,hexagon
0.0,2.0,2.0,0.0,5.0,5.0,755.2772310000364,3.0,1.0,phase_2,go,750.0,750.0,1.0,,,,,,,,,green,flipped triangle
0.0,8.0,4.0,1.0,6.0,6.0,1213.7651170000936,3.0,1.0,phase_2,go,750.0,750.0,1.0,,,,,,,,,orange,circle
0.0,4.0,4.0,0.0,6.0,6.0,1018.1876120000195,3.0,1.0,phase_2,go,750.0,750.0,1.0,,,,,,,,,yellow,I
0.0,5.0,1.0,1.0,6.0,0.0,0.0,3.0,1.0,phase_2,stop,750.0,750.0,4.0,,,,,,,,,magenta,square
0.0,1.0,1.0,0.0,5.0,5.0,1063.4194220001518,3.0,1.0,phase_2,go,750.0,800.0,1.0,,,,,,,,,cyan,hexagon
0.0,6.0,2.0,1.0,5.0,0.0,0.0,3.0,1.0,phase_2,stop,750.0,800.0,4.0,,,,,,,,,gray,cross
0.0,1.0,1.0,0.0,5.0,5.0,1173.7102469996898,3.0,1.0,phase_2,go,800.0,800.0,1.0,,,,,,,,,cyan,hexagon
0.0,3.0,3.0,0.0,6.0,6.0,1202.0122409999203,3.0,1.0,phase_2,go,800.0,800.0,1.0,,,,,,,,,white,triangle
0.0,1.0,1.0,0.0,5.0,5.0,1235.9189069998138,3.0,1.0,phase_2,go,800.0,800.0,1.0,,,,,,,,,cyan,hexagon
0.0,3.0,3.0,0.0,5.0,5.0,763.5776000001897,3.0,1.0,phase_2,go,800.0,800.0,1.0,,,,,,,,,white,triangle
0.0,4.0,4.0,0.0,5.0,5.0,1276.3842449999174,3.0,1.0,phase_2,go,800.0,800.0,1.0,,,,,,,,,yellow,I
0.0,3.0,3.0,0.0,5.0,5.0,512.5664140000481,3.0,1.0,phase_2,go,800.0,800.0,1.0,,,,,,,,,white,triangle
0.0,4.0,4.0,0.0,6.0,6.0,447.2276020001118,3.0,1.0,phase_2,go,800.0,800.0,1.0,,,,,,,,,yellow,I
0.0,6.0,2.0,1.0,6.0,6.0,972.0274530000096,3.0,1.0,phase_2,stop,800.0,800.0,3.0,,,,,,,,,gray,cross
0.0,7.0,3.0,1.0,5.0,0.0,0.0,3.0,1.0,phase_2,stop,800.0,750.0,4.0,,,,,,,,,blue,diamond
0.0,5.0,1.0,1.0,6.0,6.0,1162.465599999905,3.0,1.0,phase_2,go,850.0,750.0,1.0,,,,,,,,,magenta,square
0.0,6.0,2.0,1.0,6.0,0.0,0.0,3.0,1.0,phase_2,stop,850.0,750.0,4.0,,,,,,,,,gray,cross
0.0,7.0,3.0,1.0,5.0,5.0,1023.8114329999917,3.0,1.0,phase_2,stop,850.0,800.0,3.0,,,,,,,,,blue,diamond
0.0,5.0,1.0,1.0,6.0,0.0,0.0,3.0,1.0,phase_2,stop,800.0,800.0,4.0,,,,,,,,,magenta,square
0.0,5.0,1.0,1.0,6.0,6.0,736.4783040002294,3.0,1.0,phase_2,go,800.0,850.0,1.0,,,,,,,,,magenta,square
0.0,1.0,1.0,0.0,5.0,5.0,939.3870459998652,3.0,1.0,phase_2,go,800.0,850.0,1.0,,,,,,,,,cyan,hexagon
0.0,3.0,3.0,0.0,5.0,5.0,970.4262440000092,3.0,1.0,phase_2,go,800.0,850.0,1.0,,,,,,,,,white,triangle
0.0,6.0,2.0,1.0,5.0,5.0,942.9820860000292,3.0,1.0,phase_2,stop,800.0,850.0,3.0,,,,,,,,,gray,cross
0.0,3.0,3.0,0.0,5.0,5.0,988.2247579998876,3.0,1.0,phase_2,go,750.0,850.0,1.0,,,,,,,,,white,triangle
0.0,6.0,2.0,1.0,5.0,5.0,846.2059739999859,4.0,1.0,phase_2,stop,750.0,850.0,3.0,,,,,,,,,gray,cross
0.0,7.0,3.0,1.0,6.0,6.0,845.9920290001719,4.0,1.0,phase_2,go,700.0,850.0,1.0,,,,,,,,,blue,diamond
0.0,8.0,4.0,1.0,5.0,5.0,735.4714899997816,4.0,1.0,phase_2,go,700.0,850.0,1.0,,,,,,,,,orange,circle
0.0,2.0,2.0,0.0,6.0,6.0,875.676655999996,4.0,1.0,phase_2,go,700.0,850.0,1.0,,,,,,,,,green,flipped triangle
0.0,3.0,3.0,0.0,6.0,6.0,389.8293820002436,4.0,1.0,phase_2,go,700.0,850.0,1.0,,,,,,,,,white,triangle
0.0,5.0,1.0,1.0,5.0,5.0,633.1123099998877,4.0,1.0,phase_2,stop,700.0,850.0,3.0,,,,,,,,,magenta,square
0.0,5.0,1.0,1.0,5.0,5.0,743.7829420000526,4.0,1.0,phase_2,stop,650.0,850.0,3.0,,,,,,,,,magenta,square
0.0,5.0,1.0,1.0,6.0,6.0,963.485442000092,4.0,1.0,phase_2,stop,600.0,850.0,3.0,,,,,,,,,magenta,square
0.0,4.0,4.0,0.0,6.0,6.0,1249.2197810001926,4.0,1.0,phase_2,go,600.0,800.0,1.0,,,,,,,,,yellow,I
0.0,7.0,3.0,1.0,6.0,0.0,0.0,4.0,1.0,phase_2,stop,600.0,800.0,4.0,,,,,,,,,blue,diamond
0.0,7.0,3.0,1.0,5.0,5.0,987.7593470000648,4.0,1.0,phase_2,go,600.0,850.0,1.0,,,,,,,,,blue,diamond
0.0,3.0,3.0,0.0,6.0,6.0,1090.139291000014,4.0,1.0,phase_2,go,600.0,850.0,1.0,,,,,,,,,white,triangle
0.0,1.0,1.0,0.0,6.0,6.0,1326.8339549999837,4.0,1.0,phase_2,go,600.0,850.0,1.0,,,,,,,,,cyan,hexagon
0.0,3.0,3.0,0.0,5.0,5.0,1269.2134580001948,4.0,1.0,phase_2,go,600.0,850.0,1.0,,,,,,,,,white,triangle
0.0,3.0,3.0,0.0,6.0,6.0,1229.3744800003878,4.0,1.0,phase_2,go,600.0,850.0,1.0,,,,,,,,,white,triangle
0.0,4.0,4.0,0.0,6.0,6.0,1269.6941730000617,4.0,1.0,phase_2,go,600.0,850.0,1.0,,,,,,,,,yellow,I
0.0,8.0,4.0,1.0,6.0,6.0,956.6263279998566,4.0,1.0,phase_2,stop,600.0,850.0,3.0,,,,,,,,,orange,circle
0.0,7.0,3.0,1.0,5.0,0.0,0.0,4.0,1.0,phase_2,stop,600.0,800.0,4.0,,,,,,,,,blue,diamond
0.0,6.0,2.0,1.0,6.0,0.0,0.0,4.0,1.0,phase_2,stop,650.0,800.0,4.0,,,,,,,,,gray,cross
0.0,2.0,2.0,0.0,6.0,6.0,1128.081593999923,4.0,1.0,phase_2,go,650.0,850.0,1.0,,,,,,,,,green,flipped triangle
0.0,3.0,3.0,0.0,5.0,5.0,1184.9883139998385,4.0,1.0,phase_2,go,650.0,850.0,1.0,,,,,,,,,white,triangle
0.0,1.0,1.0,0.0,6.0,6.0,754.7706659997857,4.0,1.0,phase_2,go,650.0,850.0,1.0,,,,,,,,,cyan,hexagon
0.0,1.0,1.0,0.0,6.0,6.0,607.2019639996142,4.0,1.0,phase_2,go,650.0,850.0,1.0,,,,,,,,,cyan,hexagon
0.0,7.0,3.0,1.0,5.0,5.0,1060.1269640001192,4.0,1.0,phase_2,go,650.0,850.0,1.0,,,,,,,,,blue,diamond
0.0,2.0,2.0,0.0,6.0,6.0,893.204262999916,4.0,1.0,phase_2,go,650.0,850.0,1.0,,,,,,,,,green,flipped triangle
0.0,8.0,4.0,1.0,5.0,5.0,795.129296000141,4.0,1.0,phase_2,stop,650.0,850.0,3.0,,,,,,,,,orange,circle
0.0,7.0,3.0,1.0,5.0,0.0,0.0,4.0,1.0,phase_2,stop,600.0,850.0,4.0,,,,,,,,,blue,diamond
0.0,4.0,4.0,0.0,6.0,6.0,1266.4095280001677,4.0,1.0,phase_2,go,650.0,850.0,1.0,,,,,,,,,yellow,I
0.0,7.0,3.0,1.0,5.0,0.0,0.0,4.0,1.0,phase_2,stop,650.0,850.0,4.0,,,,,,,,,blue,diamond
0.0,6.0,2.0,1.0,6.0,6.0,845.1992850000352,4.0,1.0,phase_2,go,700.0,850.0,1.0,,,,,,,,,gray,cross
0.0,2.0,2.0,0.0,6.0,6.0,922.126384999956,4.0,1.0,phase_2,go,700.0,850.0,1.0,,,,,,,,,green,flipped triangle
0.0,6.0,2.0,1.0,5.0,5.0,642.0201050000287,4.0,1.0,phase_2,stop,700.0,850.0,3.0,,,,,,,,,gray,cross
0.0,6.0,2.0,1.0,5.0,0.0,0.0,4.0,1.0,phase_2,stop,650.0,850.0,4.0,,,,,,,,,gray,cross
0.0,4.0,4.0,0.0,5.0,5.0,874.4952090000879,4.0,1.0,phase_2,go,700.0,850.0,1.0,,,,,,,,,yellow,I
0.0,1.0,1.0,0.0,6.0,6.0,973.0394630000774,4.0,1.0,phase_2,go,700.0,850.0,1.0,,,,,,,,,cyan,hexagon
0.0,8.0,4.0,1.0,6.0,6.0,976.8421250000756,4.0,1.0,phase_2,stop,700.0,850.0,3.0,,,,,,,,,orange,circle
0.0,1.0,1.0,0.0,6.0,6.0,522.2875129998101,5.0,1.0,phase_2,go,700.0,800.0,1.0,,,,,,,,,cyan,hexagon
0.0,7.0,3.0,1.0,6.0,6.0,298.1598659998781,5.0,1.0,phase_2,stop,700.0,800.0,3.0,,,,,,,,,blue,diamond
0.0,1.0,1.0,0.0,6.0,6.0,339.0632320001714,5.0,1.0,phase_2,go,700.0,750.0,1.0,,,,,,,,,cyan,hexagon
0.0,3.0,3.0,0.0,5.0,5.0,345.1310250002279,5.0,1.0,phase_2,go,700.0,750.0,1.0,,,,,,,,,white,triangle
0.0,6.0,2.0,1.0,6.0,6.0,316.7766340002345,5.0,1.0,phase_2,stop,700.0,750.0,3.0,,,,,,,,,gray,cross
0.0,5.0,1.0,1.0,5.0,5.0,653.6939000002349,5.0,1.0,phase_2,stop,700.0,700.0,3.0,,,,,,,,,magenta,square
0.0,7.0,3.0,1.0,6.0,0.0,0.0,5.0,1.0,phase_2,stop,650.0,700.0,4.0,,,,,,,,,blue,diamond
0.0,8.0,4.0,1.0,5.0,5.0,934.3102590000854,5.0,1.0,phase_2,go,650.0,750.0,1.0,,,,,,,,,orange,circle
0.0,8.0,4.0,1.0,5.0,0.0,0.0,5.0,1.0,phase_2,stop,650.0,750.0,4.0,,,,,,,,,orange,circle
0.0,8.0,4.0,1.0,6.0,6.0,796.3995640002395,5.0,1.0,phase_2,stop,700.0,750.0,3.0,,,,,,,,,orange,circle
0.0,4.0,4.0,0.0,5.0,5.0,876.9057790000261,5.0,1.0,phase_2,go,700.0,700.0,1.0,,,,,,,,,yellow,I
0.0,2.0,2.0,0.0,5.0,5.0,988.7575289999404,5.0,1.0,phase_2,go,700.0,700.0,1.0,,,,,,,,,green,flipped triangle
0.0,3.0,3.0,0.0,6.0,6.0,784.2254590000266,5.0,1.0,phase_2,go,700.0,700.0,1.0,,,,,,,,,white,triangle
0.0,3.0,3.0,0.0,6.0,6.0,934.1055910003888,5.0,1.0,phase_2,go,700.0,700.0,1.0,,,,,,,,,white,triangle
0.0,1.0,1.0,0.0,5.0,5.0,1046.1612969997989,5.0,1.0,phase_2,go,700.0,700.0,1.0,,,,,,,,,cyan,hexagon
0.0,8.0,4.0,1.0,6.0,0.0,0.0,5.0,1.0,phase_2,stop,700.0,700.0,4.0,,,,,,,,,orange,circle
0.0,2.0,2.0,0.0,6.0,6.0,1066.5780640001683,5.0,1.0,phase_2,go,700.0,750.0,1.0,,,,,,,,,green,flipped triangle
0.0,1.0,1.0,0.0,5.0,5.0,1073.4443030000875,5.0,1.0,phase_2,go,700.0,750.0,1.0,,,,,,,,,cyan,hexagon
0.0,7.0,3.0,1.0,5.0,0.0,0.0,5.0,1.0,phase_2,stop,700.0,750.0,4.0,,,,,,,,,blue,diamond
0.0,2.0,2.0,0.0,5.0,0.0,0.0,5.0,1.0,phase_2,go,750.0,750.0,5.0,,,,,,,,,green,flipped triangle
0.0,4.0,4.0,0.0,6.0,6.0,914.9381050001466,5.0,1.0,phase_2,go,750.0,750.0,1.0,,,,,,,,,yellow,I
0.0,4.0,4.0,0.0,6.0,6.0,712.2468490001665,5.0,1.0,phase_2,go,750.0,750.0,1.0,,,,,,,,,yellow,I
0.0,4.0,4.0,0.0,6.0,6.0,766.6506659998049,5.0,1.0,phase_2,go,750.0,750.0,1.0,,,,,,,,,yellow,I
0.0,7.0,3.0,1.0,6.0,6.0,567.854165999961,5.0,1.0,phase_2,stop,750.0,750.0,3.0,,,,,,,,,blue,diamond
0.0,8.0,4.0,1.0,6.0,6.0,597.4532919999547,5.0,1.0,phase_2,stop,750.0,700.0,3.0,,,,,,,,,orange,circle
0.0,4.0,4.0,0.0,6.0,6.0,737.8946540002289,5.0,1.0,phase_2,go,750.0,650.0,1.0,,,,,,,,,yellow,I
0.0,5.0,1.0,1.0,5.0,5.0,625.9213149996867,5.0,1.0,phase_2,go,750.0,650.0,1.0,,,,,,,,,magenta,square
0.0,4.0,4.0,0.0,5.0,5.0,1062.204001999817,5.0,1.0,phase_2,go,750.0,650.0,1.0,,,,,,,,,yellow,I
0.0,5.0,1.0,1.0,5.0,5.0,1025.333677999697,5.0,1.0,phase_2,go,750.0,650.0,1.0,,,,,,,,,magenta,square
0.0,1.0,1.0,0.0,5.0,5.0,1176.1630179998974,5.0,1.0,phase_2,go,750.0,650.0,1.0,,,,,,,,,cyan,hexagon
0.0,8.0,4.0,1.0,5.0,5.0,1165.756126999895,5.0,1.0,phase_2,stop,750.0,650.0,3.0,,,,,,,,,orange,circle
0.0,8.0,4.0,1.0,6.0,6.0,579.6459210000648,5.0,1.0,phase_2,stop,700.0,650.0,3.0,,,,,,,,,orange,circle
0.0,4.0,4.0,0.0,5.0,5.0,755.8316979998381,5.0,1.0,phase_2,go,700.0,600.0,1.0,,,,,,,,,yellow,I
0.0,1.0,1.0,0.0,5.0,5.0,559.8529950002558,5.0,1.0,phase_2,go,700.0,600.0,1.0,,,,,,,,,cyan,hexagon
0.0,4.0,4.0,0.0,6.0,6.0,682.5744560001112,5.0,1.0,phase_2,go,700.0,600.0,1.0,,,,,,,,,yellow,I
0.0,4.0,4.0,0.0,5.0,5.0,895.0700239997786,5.0,1.0,phase_2,go,700.0,600.0,1.0,,,,,,,,,yellow,I
0.0,4.0,4.0,0.0,5.0,5.0,609.5163330001014,6.0,1.0,phase_2,go,700.0,600.0,1.0,,,,,,,,,yellow,I
0.0,2.0,2.0,0.0,5.0,5.0,439.1701529998499,6.0,1.0,phase_2,go,700.0,600.0,1.0,,,,,,,,,green,flipped triangle
0.0,5.0,1.0,1.0,6.0,6.0,345.7541289999426,6.0,1.0,phase_2,stop,700.0,600.0,3.0,,,,,,,,,magenta,square
0.0,3.0,3.0,0.0,5.0,5.0,289.44185499995,6.0,1.0,phase_2,go,700.0,550.0,1.0,,,,,,,,,white,triangle
0.0,8.0,4.0,1.0,5.0,5.0,336.7242509998505,6.0,1.0,phase_2,stop,700.0,550.0,3.0,,,,,,,,,orange,circle
0.0,7.0,3.0,1.0,6.0,6.0,381.7601469995679,6.0,1.0,phase_2,stop,650.0,550.0,3.0,,,,,,,,,blue,diamond
0.0,1.0,1.0,0.0,6.0,6.0,346.1514720002014,6.0,1.0,phase_2,go,650.0,500.0,1.0,,,,,,,,,cyan,hexagon
0.0,6.0,2.0,1.0,6.0,6.0,355.6543360000432,6.0,1.0,phase_2,stop,650.0,500.0,3.0,,,,,,,,,gray,cross
0.0,5.0,1.0,1.0,5.0,5.0,852.6937820006424,6.0,1.0,phase_2,stop,650.0,450.0,3.0,,,,,,,,,magenta,square
0.0,5.0,1.0,1.0,6.0,6.0,840.9235489998537,6.0,1.0,phase_2,go,600.0,450.0,1.0,,,,,,,,,magenta,square
0.0,2.0,2.0,0.0,5.0,5.0,896.9112229997336,6.0,1.0,phase_2,go,600.0,450.0,1.0,,,,,,,,,green,flipped triangle
0.0,2.0,2.0,0.0,6.0,6.0,972.8856800002176,6.0,1.0,phase_2,go,600.0,450.0,1.0,,,,,,,,,green,flipped triangle
0.0,1.0,1.0,0.0,6.0,6.0,382.9814280006758,6.0,1.0,phase_2,go,600.0,450.0,1.0,,,,,,,,,cyan,hexagon
0.0,6.0,2.0,1.0,5.0,5.0,714.2249819999051,6.0,1.0,phase_2,go,600.0,450.0,1.0,,,,,,,,,gray,cross
0.0,3.0,3.0,0.0,6.0,6.0,823.784591999356,6.0,1.0,phase_2,go,600.0,450.0,1.0,,,,,,,,,white,triangle
0.0,3.0,3.0,0.0,6.0,6.0,823.5303850005948,6.0,1.0,phase_2,go,600.0,450.0,1.0,,,,,,,,,white,triangle
0.0,7.0,3.0,1.0,5.0,5.0,1186.6527239999414,6.0,1.0,phase_2,stop,600.0,450.0,3.0,,,,,,,,,blue,diamond
0.0,1.0,1.0,0.0,6.0,6.0,1375.593636999838,6.0,1.0,phase_2,go,550.0,450.0,1.0,,,,,,,,,cyan,hexagon
0.0,6.0,2.0,1.0,6.0,6.0,1477.7869480003574,6.0,1.0,phase_2,go,550.0,450.0,1.0,,,,,,,,,gray,cross
0.0,2.0,2.0,0.0,6.0,6.0,1434.7719600000346,6.0,1.0,phase_2,go,550.0,450.0,1.0,,,,,,,,,green,flipped triangle
0.0,2.0,2.0,0.0,5.0,5.0,940.9149070006606,6.0,1.0,phase_2,go,550.0,450.0,1.0,,,,,,,,,green,flipped triangle
0.0,1.0,1.0,0.0,5.0,5.0,1039.5960389996617,6.0,1.0,phase_2,go,550.0,450.0,1.0,,,,,,,,,cyan,hexagon
0.0,1.0,1.0,0.0,5.0,5.0,1111.4936120002312,6.0,1.0,phase_2,go,550.0,450.0,1.0,,,,,,,,,cyan,hexagon
0.0,8.0,4.0,1.0,5.0,0.0,0.0,6.0,1.0,phase_2,stop,550.0,450.0,4.0,,,,,,,,,orange,circle
0.0,5.0,1.0,1.0,5.0,0.0,0.0,6.0,1.0,phase_2,stop,600.0,450.0,4.0,,,,,,,,,magenta,square
0.0,7.0,3.0,1.0,6.0,6.0,1044.7942440005136,6.0,1.0,phase_2,go,650.0,450.0,1.0,,,,,,,,,blue,diamond
0.0,3.0,3.0,0.0,5.0,5.0,1101.3378709994868,6.0,1.0,phase_2,go,650.0,450.0,1.0,,,,,,,,,white,triangle
0.0,2.0,2.0,0.0,6.0,6.0,1203.3748809999452,6.0,1.0,phase_2,go,650.0,450.0,1.0,,,,,,,,,green,flipped triangle
0.0,3.0,3.0,0.0,6.0,6.0,786.7363850000402,6.0,1.0,phase_2,go,650.0,450.0,1.0,,,,,,,,,white,triangle
0.0,8.0,4.0,1.0,6.0,0.0,0.0,6.0,1.0,phase_2,stop,650.0,450.0,4.0,,,,,,,,,orange,circle
0.0,4.0,4.0,0.0,5.0,5.0,1056.5947320001214,6.0,1.0,phase_2,go,650.0,500.0,1.0,,,,,,,,,yellow,I
0.0,5.0,1.0,1.0,6.0,6.0,344.8028130005696,6.0,1.0,phase_2,stop,650.0,500.0,3.0,,,,,,,,,magenta,square
0.0,1.0,1.0,0.0,5.0,5.0,971.5498730001856,6.0,1.0,phase_2,go,650.0,450.0,1.0,,,,,,,,,cyan,hexagon
0.0,6.0,2.0,1.0,6.0,0.0,0.0,6.0,1.0,phase_2,stop,650.0,450.0,4.0,,,,,,,,,gray,cross
0.0,2.0,2.0,0.0,6.0,6.0,823.0579159999252,6.0,1.0,phase_2,go,650.0,500.0,1.0,,,,,,,,,green,flipped triangle
0.0,6.0,2.0,1.0,6.0,0.0,0.0,6.0,1.0,phase_2,stop,650.0,500.0,4.0,,,,,,,,,gray,cross
0.0,6.0,2.0,1.0,5.0,5.0,893.5957060002693,7.0,1.0,phase_2,stop,650.0,550.0,3.0,,,,,,,,,gray,cross
0.0,1.0,1.0,0.0,5.0,5.0,883.640158000162,7.0,1.0,phase_2,go,600.0,550.0,1.0,,,,,,,,,cyan,hexagon
0.0,3.0,3.0,0.0,5.0,5.0,860.313015000429,7.0,1.0,phase_2,go,600.0,550.0,1.0,,,,,,,,,white,triangle
0.0,8.0,4.0,1.0,5.0,5.0,987.044297000466,7.0,1.0,phase_2,go,600.0,550.0,1.0,,,,,,,,,orange,circle
0.0,6.0,2.0,1.0,5.0,0.0,0.0,7.0,1.0,phase_2,stop,600.0,550.0,4.0,,,,,,,,,gray,cross
0.0,3.0,3.0,0.0,6.0,6.0,903.8694710006894,7.0,1.0,phase_2,go,650.0,550.0,1.0,,,,,,,,,white,triangle
0.0,8.0,4.0,1.0,6.0,6.0,886.8360620008389,7.0,1.0,phase_2,go,650.0,550.0,1.0,,,,,,,,,orange,circle
0.0,6.0,2.0,1.0,6.0,0.0,0.0,7.0,1.0,phase_2,stop,650.0,550.0,4.0,,,,,,,,,gray,cross
0.0,5.0,1.0,1.0,5.0,0.0,0.0,7.0,1.0,phase_2,stop,650.0,600.0,4.0,,,,,,,,,magenta,square
0.0,6.0,2.0,1.0,5.0,0.0,0.0,7.0,1.0,phase_2,stop,700.0,600.0,4.0,,,,,,,,,gray,cross
0.0,7.0,3.0,1.0,6.0,6.0,1091.2588549999782,7.0,1.0,phase_2,go,750.0,600.0,1.0,,,,,,,,,blue,diamond
0.0,4.0,4.0,0.0,5.0,5.0,1205.1311850000277,7.0,1.0,phase_2,go,750.0,600.0,1.0,,,,,,,,,yellow,I
0.0,7.0,3.0,1.0,6.0,0.0,0.0,7.0,1.0,phase_2,stop,750.0,600.0,4.0,,,,,,,,,blue,diamond
0.0,3.0,3.0,0.0,5.0,5.0,1100.8202220000385,7.0,1.0,phase_2,go,750.0,650.0,1.0,,,,,,,,,white,triangle
0.0,5.0,1.0,1.0,5.0,0.0,0.0,7.0,1.0,phase_2,stop,750.0,650.0,4.0,,,,,,,,,magenta,square
0.0,2.0,2.0,0.0,6.0,6.0,1035.71370499958,7.0,1.0,phase_2,go,800.0,650.0,1.0,,,,,,,,,green,flipped triangle
0.0,6.0,2.0,1.0,5.0,5.0,1043.1582000001072,7.0,1.0,phase_2,go,800.0,650.0,1.0,,,,,,,,,gray,cross
0.0,5.0,1.0,1.0,5.0,5.0,298.9205880003283,7.0,1.0,phase_2,stop,800.0,650.0,3.0,,,,,,,,,magenta,square
0.0,5.0,1.0,1.0,5.0,5.0,372.1978160001526,7.0,1.0,phase_2,stop,750.0,650.0,3.0,,,,,,,,,magenta,square
0.0,2.0,2.0,0.0,5.0,5.0,353.5651649999636,7.0,1.0,phase_2,go,700.0,650.0,1.0,,,,,,,,,green,flipped triangle
0.0,1.0,1.0,0.0,5.0,5.0,837.9015329992399,7.0,1.0,phase_2,go,700.0,650.0,1.0,,,,,,,,,cyan,hexagon
0.0,1.0,1.0,0.0,6.0,6.0,494.1788789992642,7.0,1.0,phase_2,go,700.0,650.0,1.0,,,,,,,,,cyan,hexagon
0.0,1.0,1.0,0.0,6.0,6.0,614.2689099997369,7.0,1.0,phase_2,go,700.0,650.0,1.0,,,,,,,,,cyan,hexagon
0.0,3.0,3.0,0.0,6.0,6.0,570.6552390001889,7.0,1.0,phase_2,go,700.0,650.0,1.0,,,,,,,,,white,triangle
0.0,5.0,1.0,1.0,5.0,5.0,683.5488429996985,7.0,1.0,phase_2,stop,700.0,650.0,3.0,,,,,,,,,magenta,square
0.0,7.0,3.0,1.0,6.0,6.0,1281.3256610006647,7.0,1.0,phase_2,stop,650.0,650.0,3.0,,,,,,,,,blue,diamond
0.0,8.0,4.0,1.0,5.0,5.0,1199.6371280001767,7.0,1.0,phase_2,go,650.0,600.0,1.0,,,,,,,,,orange,circle
0.0,7.0,3.0,1.0,5.0,5.0,1135.8993089997966,7.0,1.0,phase_2,go,650.0,600.0,1.0,,,,,,,,,blue,diamond
0.0,3.0,3.0,0.0,5.0,5.0,958.827718000066,7.0,1.0,phase_2,go,650.0,600.0,1.0,,,,,,,,,white,triangle
0.0,1.0,1.0,0.0,6.0,6.0,799.2326210005558,7.0,1.0,phase_2,go,650.0,600.0,1.0,,,,,,,,,cyan,hexagon
0.0,3.0,3.0,0.0,6.0,6.0,1022.0384539998122,7.0,1.0,phase_2,go,650.0,600.0,1.0,,,,,,,,,white,triangle
0.0,3.0,3.0,0.0,5.0,5.0,968.5107080003944,7.0,1.0,phase_2,go,650.0,600.0,1.0,,,,,,,,,white,triangle
0.0,7.0,3.0,1.0,6.0,0.0,0.0,7.0,1.0,phase_2,stop,650.0,600.0,4.0,,,,,,,,,blue,diamond
0.0,6.0,2.0,1.0,6.0,0.0,0.0,7.0,1.0,phase_2,stop,650.0,650.0,4.0,,,,,,,,,gray,cross
0.0,6.0,2.0,1.0,6.0,6.0,894.8455959998682,7.0,1.0,phase_2,stop,650.0,700.0,3.0,,,,,,,,,gray,cross
0.0,1.0,1.0,0.0,6.0,6.0,1089.9536229999285,7.0,1.0,phase_2,go,650.0,650.0,1.0,,,,,,,,,cyan,hexagon
0.0,6.0,2.0,1.0,5.0,5.0,903.2281859999785,8.0,1.0,phase_2,go,650.0,650.0,1.0,,,,,,,,,gray,cross
0.0,8.0,4.0,1.0,6.0,6.0,465.8163659996717,8.0,1.0,phase_2,stop,650.0,650.0,3.0,,,,,,,,,orange,circle
0.0,6.0,2.0,1.0,6.0,6.0,722.8000370005248,8.0,1.0,phase_2,stop,650.0,600.0,3.0,,,,,,,,,gray,cross
0.0,8.0,4.0,1.0,6.0,6.0,626.2256769996384,8.0,1.0,phase_2,stop,650.0,550.0,3.0,,,,,,,,,orange,circle
0.0,2.0,2.0,0.0,5.0,5.0,781.2140400001226,8.0,1.0,phase_2,go,650.0,500.0,1.0,,,,,,,,,green,flipped triangle
0.0,8.0,4.0,1.0,6.0,0.0,0.0,8.0,1.0,phase_2,stop,650.0,500.0,4.0,,,,,,,,,orange,circle
0.0,3.0,3.0,0.0,6.0,6.0,942.2462760003328,8.0,1.0,phase_2,go,650.0,550.0,1.0,,,,,,,,,white,triangle
0.0,2.0,2.0,0.0,5.0,5.0,1005.5307050006377,8.0,1.0,phase_2,go,650.0,550.0,1.0,,,,,,,,,green,flipped triangle
0.0,5.0,1.0,1.0,6.0,6.0,1218.7648290000652,8.0,1.0,phase_2,stop,650.0,550.0,3.0,,,,,,,,,magenta,square
0.0,7.0,3.0,1.0,6.0,0.0,0.0,8.0,1.0,phase_2,stop,650.0,500.0,4.0,,,,,,,,,blue,diamond
0.0,4.0,4.0,0.0,5.0,5.0,857.7222150006492,8.0,1.0,phase_2,go,650.0,550.0,1.0,,,,,,,,,yellow,I
0.0,7.0,3.0,1.0,6.0,0.0,0.0,8.0,1.0,phase_2,stop,650.0,550.0,4.0,,,,,,,,,blue,diamond
0.0,3.0,3.0,0.0,5.0,5.0,1170.717889000116,8.0,1.0,phase_2,go,650.0,600.0,1.0,,,,,,,,,white,triangle
0.0,6.0,2.0,1.0,5.0,0.0,0.0,8.0,1.0,phase_2,stop,650.0,600.0,4.0,,,,,,,,,gray,cross
0.0,5.0,1.0,1.0,5.0,5.0,743.1451029997334,8.0,1.0,phase_2,stop,700.0,600.0,3.0,,,,,,,,,magenta,square
0.0,3.0,3.0,0.0,5.0,5.0,885.4402999995727,8.0,1.0,phase_2,go,650.0,600.0,1.0,,,,,,,,,white,triangle
0.0,8.0,4.0,1.0,6.0,0.0,0.0,8.0,1.0,phase_2,stop,650.0,600.0,4.0,,,,,,,,,orange,circle
0.0,1.0,1.0,0.0,6.0,6.0,875.0664589997541,8.0,1.0,phase_2,go,650.0,650.0,1.0,,,,,,,,,cyan,hexagon
0.0,2.0,2.0,0.0,6.0,6.0,1106.584099000429,8.0,1.0,phase_2,go,650.0,650.0,1.0,,,,,,,,,green,flipped triangle
0.0,4.0,4.0,0.0,6.0,6.0,1442.3076869998113,8.0,1.0,phase_2,go,650.0,650.0,1.0,,,,,,,,,yellow,I
0.0,1.0,1.0,0.0,6.0,6.0,1281.9639579993236,8.0,1.0,phase_2,go,650.0,650.0,1.0,,,,,,,,,cyan,hexagon
0.0,6.0,2.0,1.0,6.0,6.0,1400.245967999581,8.0,1.0,phase_2,stop,650.0,650.0,3.0,,,,,,,,,gray,cross
0.0,5.0,1.0,1.0,6.0,0.0,0.0,8.0,1.0,phase_2,stop,650.0,600.0,4.0,,,,,,,,,magenta,square
0.0,4.0,4.0,0.0,5.0,5.0,1145.961201999853,8.0,1.0,phase_2,go,650.0,650.0,1.0,,,,,,,,,yellow,I
0.0,8.0,4.0,1.0,5.0,0.0,0.0,8.0,1.0,phase_2,stop,650.0,650.0,4.0,,,,,,,,,orange,circle
0.0,3.0,3.0,0.0,6.0,6.0,1174.423437999394,8.0,1.0,phase_2,go,700.0,650.0,1.0,,,,,,,,,white,triangle
0.0,2.0,2.0,0.0,5.0,0.0,0.0,8.0,1.0,phase_2,go,700.0,650.0,5.0,,,,,,,,,green,flipped triangle
0.0,6.0,2.0,1.0,5.0,5.0,530.6075749995216,8.0,1.0,phase_2,go,700.0,650.0,1.0,,,,,,,,,gray,cross
0.0,2.0,2.0,0.0,5.0,5.0,1071.147609000036,8.0,1.0,phase_2,go,700.0,650.0,1.0,,,,,,,,,green,flipped triangle
0.0,2.0,2.0,0.0,5.0,5.0,607.070544000635,8.0,1.0,phase_2,go,700.0,650.0,1.0,,,,,,,,,green,flipped triangle
0.0,2.0,2.0,0.0,6.0,6.0,728.3639249999396,8.0,1.0,phase_2,go,700.0,650.0,1.0,,,,,,,,,green,flipped triangle
0.0,3.0,3.0,0.0,6.0,6.0,764.7470029996839,8.0,1.0,phase_2,go,700.0,650.0,1.0,,,,,,,,,white,triangle
0.0,7.0,3.0,1.0,5.0,5.0,754.5073399996909,8.0,1.0,phase_2,stop,700.0,650.0,3.0,,,,,,,,,blue,diamond
0.0,3.0,3.0,0.0,6.0,6.0,856.7865949999032,8.0,1.0,phase_2,go,650.0,650.0,1.0,,,,,,,,,white,triangle
0.0,4.0,4.0,0.0,5.0,5.0,1026.4341350002724,8.0,1.0,phase_2,go,650.0,650.0,1.0,,,,,,,,,yellow,I
0.0,2.0,2.0,0.0,6.0,6.0,1022.3017030002666,8.0,1.0,phase_2,go,650.0,650.0,1.0,,,,,,,,,green,flipped triangle
0.0,8.0,4.0,1.0,7.0,1.0,434.9144859997977,1.0,2.0,phase_3,,,,,696.0,6.0,696.0,116.0,580.0,348.0,464.0,232.0,orange,circle
0.0,4.0,4.0,0.0,7.0,5.0,599.111792000258,1.0,2.0,phase_3,,,,,1152.0,6.0,192.0,960.0,384.0,576.0,1152.0,768.0,yellow,I
0.0,7.0,3.0,1.0,7.0,3.0,4245.9851860003255,1.0,1.0,phase_3,,,,,865.0,5.0,692.0,1038.0,865.0,173.0,346.0,519.0,blue,diamond
0.0,7.0,3.0,1.0,7.0,1.0,2089.5974810000557,1.0,1.0,phase_3,,,,,810.0,6.0,810.0,270.0,675.0,135.0,540.0,405.0,blue,diamond
0.0,3.0,3.0,0.0,7.0,2.0,525.6704140001602,1.0,1.0,phase_3,,,,,384.0,2.0,576.0,384.0,192.0,1152.0,960.0,768.0,white,triangle
0.0,3.0,3.0,0.0,7.0,4.0,3322.610228000485,1.0,1.0,phase_3,,,,,308.0,2.0,616.0,770.0,154.0,308.0,924.0,462.0,white,triangle
0.0,4.0,4.0,0.0,7.0,4.0,406.4132479998079,1.0,1.0,phase_3,,,,,692.0,4.0,173.0,519.0,865.0,692.0,346.0,1038.0,yellow,I
0.0,7.0,3.0,1.0,7.0,2.0,914.7864249998748,1.0,1.0,phase_3,,,,,616.0,4.0,770.0,616.0,462.0,308.0,924.0,154.0,blue,diamond
0.0,4.0,4.0,0.0,7.0,5.0,1265.6450719996428,1.0,1.0,phase_3,,,,,270.0,2.0,675.0,405.0,810.0,540.0,270.0,135.0,yellow,I
0.0,4.0,4.0,0.0,7.0,4.0,332.6210260001971,1.0,1.0,phase_3,,,,,116.0,1.0,464.0,696.0,580.0,116.0,348.0,232.0,yellow,I
0.0,3.0,3.0,0.0,7.0,2.0,517.218922000211,1.0,1.0,phase_3,,,,,865.0,5.0,692.0,865.0,346.0,173.0,1038.0,519.0,white,triangle
0.0,1.0,1.0,0.0,7.0,2.0,535.3246020004008,1.0,1.0,phase_3,,,,,173.0,1.0,1038.0,173.0,519.0,865.0,692.0,346.0,cyan,hexagon
0.0,6.0,2.0,1.0,7.0,2.0,1652.4873210000806,1.0,1.0,phase_3,,,,,346.0,2.0,173.0,346.0,1038.0,865.0,692.0,519.0,gray,cross
0.0,5.0,1.0,1.0,7.0,2.0,949.750947999746,1.0,1.0,phase_3,,,,,173.0,1.0,1038.0,173.0,865.0,519.0,692.0,346.0,magenta,square
0.0,5.0,1.0,1.0,7.0,2.0,368.8794739991863,1.0,1.0,phase_3,,,,,384.0,2.0,960.0,384.0,768.0,192.0,576.0,1152.0,magenta,square
0.0,5.0,1.0,1.0,7.0,2.0,1292.327381999712,1.0,1.0,phase_3,,,,,580.0,5.0,696.0,580.0,464.0,348.0,116.0,232.0,magenta,square
0.0,1.0,1.0,0.0,7.0,5.0,414.8952049999934,1.0,1.0,phase_3,,,,,464.0,4.0,116.0,580.0,232.0,348.0,464.0,696.0,cyan,hexagon
0.0,6.0,2.0,1.0,7.0,1.0,370.3402749997622,1.0,1.0,phase_3,,,,,232.0,2.0,232.0,116.0,348.0,464.0,580.0,696.0,gray,cross
0.0,8.0,4.0,1.0,7.0,2.0,406.8238439995184,1.0,1.0,phase_3,,,,,384.0,2.0,768.0,384.0,960.0,192.0,576.0,1152.0,orange,circle
0.0,8.0,4.0,1.0,7.0,6.0,4109.289318999799,1.0,1.0,phase_3,,,,,308.0,2.0,616.0,462.0,924.0,770.0,154.0,308.0,orange,circle
0.0,3.0,3.0,0.0,7.0,1.0,473.4174639997945,2.0,1.0,phase_3,,,,,810.0,6.0,810.0,135.0,405.0,540.0,270.0,675.0,white,triangle
0.0,7.0,3.0,1.0,7.0,5.0,324.4364590000259,2.0,1.0,phase_3,,,,,696.0,6.0,580.0,348.0,116.0,232.0,696.0,464.0,blue,diamond
0.0,2.0,2.0,0.0,7.0,3.0,685.0111500007188,2.0,1.0,phase_3,,,,,519.0,3.0,1038.0,865.0,519.0,346.0,692.0,173.0,green,flipped triangle
0.0,6.0,2.0,1.0,7.0,5.0,287.5286150001557,2.0,1.0,phase_3,,,,,135.0,1.0,270.0,810.0,675.0,540.0,135.0,405.0,gray,cross
0.0,1.0,1.0,0.0,7.0,1.0,9.426185999472999,2.0,1.0,phase_3,,,,,616.0,4.0,616.0,924.0,462.0,308.0,154.0,770.0,cyan,hexagon
0.0,2.0,2.0,0.0,7.0,4.0,305.9146979994693,2.0,1.0,phase_3,,,,,464.0,4.0,348.0,580.0,232.0,464.0,696.0,116.0,green,flipped triangle
0.0,5.0,1.0,1.0,7.0,1.0,213.0127069995069,2.0,1.0,phase_3,,,,,173.0,1.0,173.0,865.0,519.0,346.0,1038.0,692.0,magenta,square
0.0,8.0,4.0,1.0,7.0,4.0,425.8457739997539,2.0,1.0,phase_3,,,,,616.0,4.0,462.0,154.0,308.0,616.0,924.0,770.0,orange,circle
0.0,1.0,1.0,0.0,7.0,3.0,793.067995000456,2.0,1.0,phase_3,,,,,768.0,4.0,1152.0,384.0,768.0,192.0,960.0,576.0,cyan,hexagon
0.0,8.0,4.0,1.0,7.0,2.0,324.708420999741,2.0,1.0,phase_3,,,,,865.0,5.0,519.0,865.0,346.0,1038.0,173.0,692.0,orange,circle
0.0,5.0,1.0,1.0,7.0,4.0,240.5965140005719,2.0,1.0,phase_3,,,,,116.0,1.0,348.0,232.0,580.0,116.0,464.0,696.0,magenta,square
0.0,8.0,4.0,1.0,7.0,3.0,361.6066260001389,2.0,1.0,phase_3,,,,,405.0,3.0,675.0,810.0,405.0,135.0,270.0,540.0,orange,circle
0.0,5.0,1.0,1.0,7.0,1.0,378.7200220003797,2.0,1.0,phase_3,,,,,540.0,4.0,540.0,270.0,405.0,675.0,135.0,810.0,magenta,square
0.0,6.0,2.0,1.0,7.0,1.0,417.3145920003662,2.0,1.0,phase_3,,,,,865.0,5.0,865.0,173.0,519.0,692.0,346.0,1038.0,gray,cross
0.0,7.0,3.0,1.0,7.0,2.0,324.6188610000899,2.0,1.0,phase_3,,,,,1152.0,6.0,960.0,1152.0,384.0,768.0,192.0,576.0,blue,diamond
0.0,2.0,2.0,0.0,7.0,3.0,341.4023089999318,2.0,1.0,phase_3,,,,,405.0,3.0,540.0,675.0,405.0,135.0,270.0,810.0,green,flipped triangle
0.0,6.0,2.0,1.0,7.0,6.0,388.8162969997211,2.0,1.0,phase_3,,,,,154.0,1.0,308.0,924.0,770.0,462.0,616.0,154.0,gray,cross
0.0,4.0,4.0,0.0,7.0,5.0,0.246970000262,2.0,1.0,phase_3,,,,,1038.0,6.0,865.0,519.0,173.0,692.0,1038.0,346.0,yellow,I
0.0,1.0,1.0,0.0,7.0,4.0,1180.4369699993913,2.0,1.0,phase_3,,,,,1152.0,6.0,384.0,768.0,576.0,1152.0,960.0,192.0,cyan,hexagon
0.0,5.0,1.0,1.0,7.0,3.0,556.1995120006031,2.0,1.0,phase_3,,,,,616.0,4.0,154.0,462.0,616.0,770.0,308.0,924.0,magenta,square
0.0,2.0,2.0,0.0,7.0,4.0,778.5941119991548,3.0,1.0,phase_3,,,,,192.0,1.0,960.0,1152.0,576.0,192.0,768.0,384.0,green,flipped triangle
0.0,5.0,1.0,1.0,7.0,4.0,565.8246499997404,3.0,1.0,phase_3,,,,,270.0,2.0,135.0,540.0,675.0,270.0,810.0,405.0,magenta,square
0.0,2.0,2.0,0.0,7.0,3.0,38.2487039996704,3.0,1.0,phase_3,,,,,346.0,2.0,519.0,1038.0,346.0,865.0,692.0,173.0,green,flipped triangle
0.0,7.0,3.0,1.0,7.0,2.0,231.6122319998612,3.0,1.0,phase_3,,,,,810.0,6.0,675.0,810.0,270.0,135.0,540.0,405.0,blue,diamond
0.0,1.0,1.0,0.0,7.0,4.0,722.1529119997285,3.0,1.0,phase_3,,,,,770.0,5.0,308.0,924.0,154.0,770.0,616.0,462.0,cyan,hexagon
0.0,2.0,2.0,0.0,7.0,4.0,351.9741069994779,3.0,1.0,phase_3,,,,,135.0,1.0,675.0,810.0,270.0,135.0,540.0,405.0,green,flipped triangle
0.0,3.0,3.0,0.0,7.0,3.0,315.8597790006752,3.0,1.0,phase_3,,,,,924.0,6.0,462.0,154.0,924.0,770.0,308.0,616.0,white,triangle
0.0,2.0,2.0,0.0,7.0,3.0,434.2027809998399,3.0,1.0,phase_3,,,,,308.0,2.0,462.0,770.0,308.0,154.0,616.0,924.0,green,flipped triangle
0.0,2.0,2.0,0.0,7.0,2.0,2109.855601000163,3.0,1.0,phase_3,,,,,960.0,5.0,1152.0,960.0,192.0,768.0,576.0,384.0,green,flipped triangle
0.0,3.0,3.0,0.0,7.0,1.0,1740.5136570005195,3.0,1.0,phase_3,,,,,464.0,4.0,464.0,580.0,116.0,232.0,348.0,696.0,white,triangle
0.0,6.0,2.0,1.0,7.0,6.0,1496.6824160001124,3.0,1.0,phase_3,,,,,675.0,5.0,810.0,270.0,540.0,405.0,135.0,675.0,gray,cross
0.0,6.0,2.0,1.0,7.0,3.0,1593.6828950007111,3.0,1.0,phase_3,,,,,696.0,6.0,232.0,580.0,696.0,348.0,464.0,116.0,gray,cross
0.0,6.0,2.0,1.0,7.0,4.0,1980.973222999637,3.0,1.0,phase_3,,,,,616.0,4.0,154.0,308.0,924.0,616.0,462.0,770.0,gray,cross
0.0,7.0,3.0,1.0,7.0,1.0,1667.674973999965,3.0,1.0,phase_3,,,,,576.0,3.0,576.0,384.0,960.0,192.0,1152.0,768.0,blue,diamond
0.0,3.0,3.0,0.0,7.0,2.0,1432.9197570004908,3.0,1.0,phase_3,,,,,173.0,1.0,865.0,173.0,346.0,692.0,519.0,1038.0,white,triangle
0.0,1.0,1.0,0.0,7.0,4.0,1862.9013600002509,3.0,1.0,phase_3,,,,,270.0,2.0,405.0,135.0,810.0,270.0,540.0,675.0,cyan,hexagon
0.0,7.0,3.0,1.0,7.0,4.0,1312.1021110000584,3.0,1.0,phase_3,,,,,770.0,5.0,154.0,462.0,924.0,770.0,308.0,616.0,blue,diamond
0.0,8.0,4.0,1.0,7.0,2.0,1408.6054560002594,3.0,1.0,phase_3,,,,,116.0,1.0,348.0,116.0,232.0,464.0,696.0,580.0,orange,circle
0.0,7.0,3.0,1.0,7.0,3.0,2776.872435999394,3.0,1.0,phase_3,,,,,696.0,6.0,580.0,464.0,696.0,116.0,348.0,232.0,blue,diamond
0.0,7.0,3.0,1.0,7.0,3.0,1072.5669599996763,3.0,1.0,phase_3,,,,,692.0,4.0,173.0,346.0,692.0,865.0,1038.0,519.0,blue,diamond
0.0,4.0,4.0,0.0,7.0,1.0,1262.7764660001048,4.0,1.0,phase_3,,,,,154.0,1.0,154.0,924.0,308.0,616.0,462.0,770.0,yellow,I
0.0,4.0,4.0,0.0,7.0,3.0,2232.622587999685,4.0,1.0,phase_3,,,,,135.0,1.0,675.0,540.0,135.0,270.0,810.0,405.0,yellow,I
0.0,8.0,4.0,1.0,7.0,4.0,2475.747884000157,4.0,1.0,phase_3,,,,,192.0,1.0,576.0,384.0,1152.0,192.0,960.0,768.0,orange,circle
0.0,4.0,4.0,0.0,7.0,5.0,1885.987106999892,4.0,1.0,phase_3,,,,,154.0,1.0,308.0,616.0,462.0,770.0,154.0,924.0,yellow,I
0.0,6.0,2.0,1.0,7.0,1.0,2383.1037390000347,4.0,1.0,phase_3,,,,,768.0,4.0,768.0,192.0,576.0,960.0,384.0,1152.0,gray,cross
0.0,3.0,3.0,0.0,7.0,5.0,1413.9495090003038,4.0,1.0,phase_3,,,,,135.0,1.0,270.0,540.0,675.0,810.0,135.0,405.0,white,triangle
0.0,6.0,2.0,1.0,7.0,3.0,2181.091837999702,4.0,1.0,phase_3,,,,,576.0,3.0,384.0,960.0,576.0,1152.0,768.0,192.0,gray,cross
0.0,1.0,1.0,0.0,7.0,4.0,2468.2396069993047,4.0,1.0,phase_3,,,,,519.0,3.0,173.0,692.0,865.0,519.0,1038.0,346.0,cyan,hexagon
0.0,8.0,4.0,1.0,7.0,3.0,1590.3325369999948,4.0,1.0,phase_3,,,,,270.0,2.0,810.0,405.0,270.0,675.0,540.0,135.0,orange,circle
0.0,2.0,2.0,0.0,7.0,2.0,742.0423660005326,4.0,1.0,phase_3,,,,,616.0,4.0,308.0,616.0,770.0,154.0,924.0,462.0,green,flipped triangle
0.0,5.0,1.0,1.0,7.0,5.0,508.1997629995385,4.0,1.0,phase_3,,,,,768.0,4.0,1152.0,576.0,960.0,384.0,768.0,192.0,magenta,square
0.0,4.0,4.0,0.0,7.0,4.0,395.926569999574,4.0,1.0,phase_3,,,,,232.0,2.0,580.0,696.0,116.0,232.0,348.0,464.0,yellow,I
0.0,1.0,1.0,0.0,7.0,1.0,445.783105999908,4.0,1.0,phase_3,,,,,232.0,2.0,232.0,464.0,348.0,116.0,580.0,696.0,cyan,hexagon
0.0,8.0,4.0,1.0,7.0,5.0,407.1665190003841,4.0,1.0,phase_3,,,,,173.0,1.0,1038.0,519.0,346.0,865.0,173.0,692.0,orange,circle
0.0,4.0,4.0,0.0,7.0,4.0,658.2057900004656,4.0,1.0,phase_3,,,,,768.0,4.0,960.0,576.0,192.0,768.0,384.0,1152.0,yellow,I
0.0,3.0,3.0,0.0,7.0,2.0,1431.8394810006794,4.0,1.0,phase_3,,,,,116.0,1.0,348.0,116.0,232.0,464.0,696.0,580.0,white,triangle
0.0,3.0,3.0,0.0,7.0,4.0,1653.1168120000077,4.0,1.0,phase_3,,,,,192.0,1.0,384.0,960.0,1152.0,192.0,768.0,576.0,white,triangle
0.0,2.0,2.0,0.0,7.0,3.0,1358.9207720006016,4.0,1.0,phase_3,,,,,116.0,1.0,348.0,464.0,116.0,580.0,696.0,232.0,green,flipped triangle
0.0,5.0,1.0,1.0,7.0,4.0,1220.9766240002864,4.0,1.0,phase_3,,,,,616.0,4.0,770.0,154.0,308.0,616.0,462.0,924.0,magenta,square
0.0,1.0,1.0,0.0,7.0,1.0,1611.898371999814,4.0,1.0,phase_3,,,,,270.0,2.0,270.0,810.0,540.0,675.0,135.0,405.0,cyan,hexagon
