raw_reward_magnitude,stim_reward,stepwise_reward_magnitude,paired_with_stopping,stim_location,response,reaction_time,block,num_trial_presentations,which_phase,stop_signal_trial_type,left_SSD,right_SSD,accuracy,chosen_bidding_amount,chosen_bidding_level,possible_bid_1,possible_bid_2,possible_bid_3,possible_bid_4,possible_bid_5,possible_bid_6,color_text,shape_text
661.0,7.0,3.0,1.0,2.0,2.0,354.1893569999956,1.0,1.0,phase_1,,,,,,,,,,,,,magenta,hexagon
1314.0,8.0,4.0,1.0,3.0,3.0,325.6107479996899,1.0,1.0,phase_1,,,,,,,,,,,,,cyan,I
174.0,1.0,1.0,0.0,3.0,3.0,320.3047390002211,1.0,1.0,phase_1,,,,,,,,,,,,,yellow,diamond
139.0,5.0,1.0,1.0,4.0,4.0,343.6556599999676,1.0,1.0,phase_1,,,,,,,,,,,,,white,circle
308.0,6.0,2.0,1.0,1.0,1.0,312.0372000003044,1.0,1.0,phase_1,,,,,,,,,,,,,blue,flipped triangle
1282.0,4.0,4.0,0.0,4.0,4.0,401.894570999957,1.0,1.0,phase_1,,,,,,,,,,,,,gray,triangle
0.0,8.0,0.0,1.0,3.0,3.0,303.5303380002006,1.0,1.0,phase_1,,,,,,,,,,,,,cyan,I
0.0,6.0,0.0,1.0,2.0,2.0,444.7122510000554,1.0,1.0,phase_1,,,,,,,,,,,,,blue,flipped triangle
0.0,1.0,0.0,0.0,1.0,1.0,285.0034069997491,1.0,1.0,phase_1,,,,,,,,,,,,,yellow,diamond
182.0,5.0,1.0,1.0,1.0,1.0,347.1913819998917,1.0,1.0,phase_1,,,,,,,,,,,,,white,circle
1317.0,8.0,4.0,1.0,1.0,1.0,343.2718290000593,1.0,1.0,phase_1,,,,,,,,,,,,,cyan,I
0.0,7.0,0.0,1.0,2.0,2.0,331.4279090000127,1.0,1.0,phase_1,,,,,,,,,,,,,magenta,hexagon
1290.0,8.0,4.0,1.0,4.0,4.0,355.7300030001897,1.0,1.0,phase_1,,,,,,,,,,,,,cyan,I
139.0,1.0,1.0,0.0,3.0,3.0,292.0617480003784,1.0,1.0,phase_1,,,,,,,,,,,,,yellow,diamond
167.0,5.0,1.0,1.0,2.0,2.0,272.4532429997452,1.0,1.0,phase_1,,,,,,,,,,,,,white,circle
326.0,2.0,2.0,0.0,1.0,1.0,304.7827589998633,1.0,1.0,phase_1,,,,,,,,,,,,,green,square
180.0,5.0,1.0,1.0,1.0,1.0,291.7027680000501,1.0,1.0,phase_1,,,,,,,,,,,,,white,circle
142.0,1.0,1.0,0.0,4.0,4.0,356.1310999998568,1.0,2.0,phase_1,,,,,,,,,,,,,yellow,diamond
1306.0,4.0,4.0,0.0,3.0,3.0,265.0301480002781,1.0,1.0,phase_1,,,,,,,,,,,,,gray,triangle
349.0,6.0,2.0,1.0,4.0,4.0,291.8715860000702,1.0,1.0,phase_1,,,,,,,,,,,,,blue,flipped triangle
0.0,6.0,0.0,1.0,3.0,3.0,284.1925230000015,1.0,1.0,phase_1,,,,,,,,,,,,,blue,flipped triangle
311.0,2.0,2.0,0.0,2.0,2.0,313.2526200001848,1.0,1.0,phase_1,,,,,,,,,,,,,green,square
311.0,2.0,2.0,0.0,4.0,4.0,373.0209100003776,1.0,1.0,phase_1,,,,,,,,,,,,,green,square
177.0,1.0,1.0,0.0,3.0,3.0,272.474233000139,1.0,1.0,phase_1,,,,,,,,,,,,,yellow,diamond
626.0,3.0,3.0,0.0,3.0,3.0,290.0732819998666,1.0,1.0,phase_1,,,,,,,,,,,,,orange,cross
639.0,7.0,3.0,1.0,1.0,1.0,446.5051059996767,1.0,2.0,phase_1,,,,,,,,,,,,,magenta,hexagon
638.0,3.0,3.0,0.0,1.0,1.0,350.649918000272,1.0,1.0,phase_1,,,,,,,,,,,,,orange,cross
639.0,3.0,3.0,0.0,2.0,2.0,628.8855030002196,1.0,1.0,phase_1,,,,,,,,,,,,,orange,cross
168.0,5.0,1.0,1.0,4.0,4.0,348.8432240001202,1.0,1.0,phase_1,,,,,,,,,,,,,white,circle
317.0,6.0,2.0,1.0,2.0,2.0,421.853667999585,1.0,2.0,phase_1,,,,,,,,,,,,,blue,flipped triangle
0.0,5.0,0.0,1.0,4.0,4.0,463.1301620001977,1.0,1.0,phase_1,,,,,,,,,,,,,white,circle
0.0,4.0,0.0,0.0,1.0,1.0,323.4210040000107,1.0,1.0,phase_1,,,,,,,,,,,,,gray,triangle
0.0,7.0,0.0,1.0,3.0,3.0,366.1312650001491,1.0,1.0,phase_1,,,,,,,,,,,,,magenta,hexagon
1296.0,4.0,4.0,0.0,2.0,2.0,336.1436089999188,1.0,1.0,phase_1,,,,,,,,,,,,,gray,triangle
648.0,7.0,3.0,1.0,3.0,3.0,382.9860539999572,1.0,1.0,phase_1,,,,,,,,,,,,,magenta,hexagon
628.0,3.0,3.0,0.0,1.0,1.0,313.9662440003121,1.0,1.0,phase_1,,,,,,,,,,,,,orange,cross
326.0,6.0,2.0,1.0,1.0,1.0,376.9604210001489,1.0,1.0,phase_1,,,,,,,,,,,,,blue,flipped triangle
646.0,7.0,3.0,1.0,2.0,2.0,466.4294750000408,1.0,1.0,phase_1,,,,,,,,,,,,,magenta,hexagon
637.0,7.0,3.0,1.0,2.0,2.0,333.450511999672,1.0,1.0,phase_1,,,,,,,,,,,,,magenta,hexagon
626.0,3.0,3.0,0.0,1.0,1.0,365.2410720001171,1.0,1.0,phase_1,,,,,,,,,,,,,orange,cross
0.0,5.0,0.0,1.0,3.0,3.0,393.4325159998479,1.0,1.0,phase_1,,,,,,,,,,,,,white,circle
640.0,3.0,3.0,0.0,1.0,1.0,394.5287209999151,1.0,1.0,phase_1,,,,,,,,,,,,,orange,cross
335.0,6.0,2.0,1.0,2.0,2.0,323.7628689998928,1.0,1.0,phase_1,,,,,,,,,,,,,blue,flipped triangle
0.0,3.0,0.0,0.0,2.0,2.0,385.9760159998586,1.0,1.0,phase_1,,,,,,,,,,,,,orange,cross
154.0,1.0,1.0,0.0,1.0,1.0,383.8671470002737,1.0,1.0,phase_1,,,,,,,,,,,,,yellow,diamond
142.0,5.0,1.0,1.0,2.0,2.0,336.6109619996678,1.0,1.0,phase_1,,,,,,,,,,,,,white,circle
0.0,2.0,0.0,0.0,1.0,1.0,344.8949980001998,1.0,1.0,phase_1,,,,,,,,,,,,,green,square
311.0,2.0,2.0,0.0,3.0,3.0,367.259347000072,1.0,1.0,phase_1,,,,,,,,,,,,,green,square
630.0,3.0,3.0,0.0,4.0,4.0,434.8183930001141,1.0,1.0,phase_1,,,,,,,,,,,,,orange,cross
327.0,2.0,2.0,0.0,3.0,3.0,335.4458050002904,1.0,1.0,phase_1,,,,,,,,,,,,,green,square
313.0,2.0,2.0,0.0,3.0,3.0,376.3358349997361,1.0,1.0,phase_1,,,,,,,,,,,,,green,square
138.0,1.0,1.0,0.0,4.0,4.0,396.4483839999957,1.0,1.0,phase_1,,,,,,,,,,,,,yellow,diamond
321.0,2.0,2.0,0.0,1.0,1.0,457.1672390002277,1.0,1.0,phase_1,,,,,,,,,,,,,green,square
1278.0,8.0,4.0,1.0,1.0,1.0,437.3605440000574,1.0,1.0,phase_1,,,,,,,,,,,,,cyan,I
669.0,3.0,3.0,0.0,3.0,3.0,314.9359610001738,1.0,1.0,phase_1,,,,,,,,,,,,,orange,cross
0.0,2.0,0.0,0.0,3.0,3.0,295.7771450001019,1.0,1.0,phase_1,,,,,,,,,,,,,green,square
0.0,4.0,0.0,0.0,3.0,3.0,333.2213660000889,1.0,1.0,phase_1,,,,,,,,,,,,,gray,triangle
313.0,6.0,2.0,1.0,3.0,3.0,327.1339259999877,1.0,1.0,phase_1,,,,,,,,,,,,,blue,flipped triangle
144.0,1.0,1.0,0.0,1.0,1.0,406.7737850000412,1.0,1.0,phase_1,,,,,,,,,,,,,yellow,diamond
1296.0,8.0,4.0,1.0,1.0,1.0,469.1504639999948,1.0,1.0,phase_1,,,,,,,,,,,,,cyan,I
312.0,6.0,2.0,1.0,3.0,3.0,348.3224370002062,1.0,1.0,phase_1,,,,,,,,,,,,,blue,flipped triangle
1303.0,8.0,4.0,1.0,4.0,4.0,488.2783389998621,1.0,2.0,phase_1,,,,,,,,,,,,,cyan,I
1297.0,8.0,4.0,1.0,3.0,3.0,552.9836659998182,1.0,1.0,phase_1,,,,,,,,,,,,,cyan,I
661.0,7.0,3.0,1.0,1.0,1.0,514.6476790000634,1.0,1.0,phase_1,,,,,,,,,,,,,magenta,hexagon
645.0,7.0,3.0,1.0,2.0,2.0,567.042849000245,1.0,1.0,phase_1,,,,,,,,,,,,,magenta,hexagon
0.0,2.0,0.0,0.0,2.0,2.0,405.2204159997927,1.0,1.0,phase_1,,,,,,,,,,,,,green,square
0.0,6.0,0.0,1.0,2.0,2.0,382.174577999649,1.0,1.0,phase_1,,,,,,,,,,,,,blue,flipped triangle
303.0,6.0,2.0,1.0,2.0,2.0,370.6080309998469,1.0,1.0,phase_1,,,,,,,,,,,,,blue,flipped triangle
661.0,3.0,3.0,0.0,3.0,3.0,355.3525399997852,1.0,1.0,phase_1,,,,,,,,,,,,,orange,cross
1294.0,8.0,4.0,1.0,2.0,2.0,509.0523789999679,1.0,1.0,phase_1,,,,,,,,,,,,,cyan,I
651.0,3.0,3.0,0.0,3.0,3.0,342.285843999889,1.0,1.0,phase_1,,,,,,,,,,,,,orange,cross
186.0,1.0,1.0,0.0,2.0,2.0,549.5675819997814,1.0,1.0,phase_1,,,,,,,,,,,,,yellow,diamond
177.0,5.0,1.0,1.0,1.0,1.0,336.4983110000139,1.0,1.0,phase_1,,,,,,,,,,,,,white,circle
641.0,7.0,3.0,1.0,3.0,3.0,405.117490000066,1.0,1.0,phase_1,,,,,,,,,,,,,magenta,hexagon
0.0,1.0,0.0,0.0,3.0,3.0,375.1661800001784,1.0,1.0,phase_1,,,,,,,,,,,,,yellow,diamond
1324.0,4.0,4.0,0.0,3.0,3.0,353.6090399998102,1.0,1.0,phase_1,,,,,,,,,,,,,gray,triangle
0.0,2.0,0.0,0.0,4.0,4.0,406.4709450003647,1.0,1.0,phase_1,,,,,,,,,,,,,green,square
340.0,2.0,2.0,0.0,2.0,2.0,450.4205729999739,1.0,1.0,phase_1,,,,,,,,,,,,,green,square
1307.0,8.0,4.0,1.0,4.0,4.0,403.5632330001135,1.0,1.0,phase_1,,,,,,,,,,,,,cyan,I
1289.0,4.0,4.0,0.0,1.0,1.0,708.8177840000753,1.0,1.0,phase_1,,,,,,,,,,,,,gray,triangle
1310.0,4.0,4.0,0.0,3.0,3.0,344.576097999834,1.0,1.0,phase_1,,,,,,,,,,,,,gray,triangle
340.0,6.0,2.0,1.0,3.0,3.0,332.4478409999756,1.0,1.0,phase_1,,,,,,,,,,,,,blue,flipped triangle
636.0,3.0,3.0,0.0,3.0,3.0,309.8526170001605,1.0,1.0,phase_1,,,,,,,,,,,,,orange,cross
344.0,2.0,2.0,0.0,2.0,2.0,675.7014849999905,1.0,1.0,phase_1,,,,,,,,,,,,,green,square
173.0,5.0,1.0,1.0,3.0,3.0,364.8817309999685,1.0,1.0,phase_1,,,,,,,,,,,,,white,circle
345.0,6.0,2.0,1.0,1.0,1.0,454.121159999886,1.0,1.0,phase_1,,,,,,,,,,,,,blue,flipped triangle
1317.0,8.0,4.0,1.0,2.0,2.0,567.5201380004182,1.0,1.0,phase_1,,,,,,,,,,,,,cyan,I
331.0,2.0,2.0,0.0,1.0,1.0,335.1865159997942,1.0,1.0,phase_1,,,,,,,,,,,,,green,square
667.0,3.0,3.0,0.0,3.0,3.0,345.358251000107,1.0,1.0,phase_1,,,,,,,,,,,,,orange,cross
1279.0,8.0,4.0,1.0,3.0,3.0,349.8655080002208,1.0,1.0,phase_1,,,,,,,,,,,,,cyan,I
638.0,7.0,3.0,1.0,1.0,1.0,347.0002270000805,1.0,1.0,phase_1,,,,,,,,,,,,,magenta,hexagon
146.0,1.0,1.0,0.0,4.0,4.0,724.8291949999839,1.0,1.0,phase_1,,,,,,,,,,,,,yellow,diamond
155.0,1.0,1.0,0.0,1.0,1.0,462.7412350000668,1.0,1.0,phase_1,,,,,,,,,,,,,yellow,diamond
1294.0,8.0,4.0,1.0,3.0,3.0,325.7211259997348,1.0,1.0,phase_1,,,,,,,,,,,,,cyan,I
1277.0,4.0,4.0,0.0,4.0,4.0,469.842539000183,1.0,1.0,phase_1,,,,,,,,,,,,,gray,triangle
0.0,8.0,0.0,1.0,2.0,2.0,367.0966769996084,1.0,1.0,phase_1,,,,,,,,,,,,,cyan,I
315.0,2.0,2.0,0.0,2.0,2.0,402.8672079998614,1.0,1.0,phase_1,,,,,,,,,,,,,green,square
186.0,5.0,1.0,1.0,2.0,2.0,373.4475739997833,1.0,1.0,phase_1,,,,,,,,,,,,,white,circle
664.0,3.0,3.0,0.0,4.0,4.0,539.6532509998906,1.0,1.0,phase_1,,,,,,,,,,,,,orange,cross
648.0,3.0,3.0,0.0,1.0,1.0,476.9211619995985,1.0,1.0,phase_1,,,,,,,,,,,,,orange,cross
149.0,5.0,1.0,1.0,4.0,4.0,401.1611229998379,2.0,1.0,phase_1,,,,,,,,,,,,,white,circle
670.0,3.0,3.0,0.0,2.0,2.0,569.4244169999365,2.0,1.0,phase_1,,,,,,,,,,,,,orange,cross
1286.0,4.0,4.0,0.0,3.0,3.0,352.1787650001897,2.0,1.0,phase_1,,,,,,,,,,,,,gray,triangle
1286.0,8.0,4.0,1.0,3.0,3.0,433.3110349998605,2.0,1.0,phase_1,,,,,,,,,,,,,cyan,I
308.0,2.0,2.0,0.0,1.0,1.0,472.0813500002805,2.0,1.0,phase_1,,,,,,,,,,,,,green,square
321.0,6.0,2.0,1.0,4.0,4.0,368.8141520001409,2.0,1.0,phase_1,,,,,,,,,,,,,blue,flipped triangle
654.0,7.0,3.0,1.0,4.0,4.0,384.6651589997236,2.0,1.0,phase_1,,,,,,,,,,,,,magenta,hexagon
144.0,1.0,1.0,0.0,3.0,3.0,339.3531060000896,2.0,1.0,phase_1,,,,,,,,,,,,,yellow,diamond
0.0,6.0,0.0,1.0,3.0,3.0,308.8904830001411,2.0,1.0,phase_1,,,,,,,,,,,,,blue,flipped triangle
1306.0,8.0,4.0,1.0,4.0,4.0,495.2876180000203,2.0,1.0,phase_1,,,,,,,,,,,,,cyan,I
165.0,1.0,1.0,0.0,1.0,1.0,413.2180630003859,2.0,1.0,phase_1,,,,,,,,,,,,,yellow,diamond
636.0,7.0,3.0,1.0,4.0,4.0,308.6881220001487,2.0,1.0,phase_1,,,,,,,,,,,,,magenta,hexagon
629.0,7.0,3.0,1.0,2.0,2.0,526.7971839998609,2.0,1.0,phase_1,,,,,,,,,,,,,magenta,hexagon
1282.0,8.0,4.0,1.0,2.0,2.0,370.208717999958,2.0,1.0,phase_1,,,,,,,,,,,,,cyan,I
673.0,3.0,3.0,0.0,3.0,3.0,341.1481289999756,2.0,1.0,phase_1,,,,,,,,,,,,,orange,cross
0.0,4.0,0.0,0.0,4.0,4.0,371.0003969999889,2.0,1.0,phase_1,,,,,,,,,,,,,gray,triangle
324.0,2.0,2.0,0.0,2.0,2.0,499.7815209999316,2.0,1.0,phase_1,,,,,,,,,,,,,green,square
1284.0,4.0,4.0,0.0,2.0,2.0,364.5430679998753,2.0,1.0,phase_1,,,,,,,,,,,,,gray,triangle
314.0,6.0,2.0,1.0,2.0,2.0,322.5680420000572,2.0,1.0,phase_1,,,,,,,,,,,,,blue,flipped triangle
167.0,1.0,1.0,0.0,1.0,1.0,305.9749919998467,2.0,1.0,phase_1,,,,,,,,,,,,,yellow,diamond
1289.0,4.0,4.0,0.0,1.0,1.0,322.9144900001301,2.0,1.0,phase_1,,,,,,,,,,,,,gray,triangle
1279.0,4.0,4.0,0.0,2.0,2.0,446.0809120000704,2.0,1.0,phase_1,,,,,,,,,,,,,gray,triangle
1300.0,8.0,4.0,1.0,3.0,3.0,366.3808020000942,2.0,1.0,phase_1,,,,,,,,,,,,,cyan,I
330.0,2.0,2.0,0.0,1.0,1.0,275.4820530003599,2.0,1.0,phase_1,,,,,,,,,,,,,green,square
1317.0,8.0,4.0,1.0,1.0,1.0,384.9398850002217,2.0,1.0,phase_1,,,,,,,,,,,,,cyan,I
0.0,3.0,0.0,0.0,2.0,2.0,388.0867420002687,2.0,1.0,phase_1,,,,,,,,,,,,,orange,cross
1305.0,8.0,4.0,1.0,1.0,1.0,381.4161410000452,2.0,1.0,phase_1,,,,,,,,,,,,,cyan,I
0.0,2.0,0.0,0.0,2.0,2.0,868.0548269999235,2.0,1.0,phase_1,,,,,,,,,,,,,green,square
181.0,5.0,1.0,1.0,2.0,2.0,337.9815059997781,2.0,1.0,phase_1,,,,,,,,,,,,,white,circle
640.0,7.0,3.0,1.0,3.0,3.0,556.5609010000117,2.0,1.0,phase_1,,,,,,,,,,,,,magenta,hexagon
1315.0,8.0,4.0,1.0,1.0,1.0,288.312734000101,2.0,1.0,phase_1,,,,,,,,,,,,,cyan,I
1317.0,8.0,4.0,1.0,4.0,4.0,345.4329179999149,2.0,1.0,phase_1,,,,,,,,,,,,,cyan,I
0.0,4.0,0.0,0.0,3.0,3.0,305.0790240004062,2.0,1.0,phase_1,,,,,,,,,,,,,gray,triangle
138.0,5.0,1.0,1.0,2.0,2.0,321.8825019998803,2.0,1.0,phase_1,,,,,,,,,,,,,white,circle
328.0,2.0,2.0,0.0,3.0,3.0,383.8884329998109,2.0,1.0,phase_1,,,,,,,,,,,,,green,square
328.0,6.0,2.0,1.0,4.0,4.0,444.2243079997752,2.0,1.0,phase_1,,,,,,,,,,,,,blue,flipped triangle
137.0,5.0,1.0,1.0,1.0,1.0,312.6239389998773,2.0,1.0,phase_1,,,,,,,,,,,,,white,circle
301.0,2.0,2.0,0.0,4.0,4.0,384.6690089999356,2.0,1.0,phase_1,,,,,,,,,,,,,green,square
317.0,6.0,2.0,1.0,2.0,2.0,342.4050319999878,2.0,1.0,phase_1,,,,,,,,,,,,,blue,flipped triangle
166.0,5.0,1.0,1.0,4.0,4.0,353.6979360001169,2.0,1.0,phase_1,,,,,,,,,,,,,white,circle
333.0,6.0,2.0,1.0,4.0,4.0,405.9457530001964,2.0,1.0,phase_1,,,,,,,,,,,,,blue,flipped triangle
0.0,5.0,0.0,1.0,4.0,4.0,323.5279189998437,2.0,1.0,phase_1,,,,,,,,,,,,,white,circle
639.0,7.0,3.0,1.0,4.0,4.0,354.3300040000758,2.0,1.0,phase_1,,,,,,,,,,,,,magenta,hexagon
149.0,5.0,1.0,1.0,4.0,4.0,356.3817730000664,2.0,1.0,phase_1,,,,,,,,,,,,,white,circle
0.0,4.0,0.0,0.0,1.0,1.0,464.7833709996121,2.0,1.0,phase_1,,,,,,,,,,,,,gray,triangle
0.0,6.0,0.0,1.0,1.0,1.0,337.0678119999866,2.0,1.0,phase_1,,,,,,,,,,,,,blue,flipped triangle
164.0,1.0,1.0,0.0,2.0,2.0,649.2685570001413,2.0,1.0,phase_1,,,,,,,,,,,,,yellow,diamond
0.0,7.0,0.0,1.0,4.0,4.0,487.3316299999715,2.0,1.0,phase_1,,,,,,,,,,,,,magenta,hexagon
165.0,5.0,1.0,1.0,1.0,1.0,378.0436090000876,2.0,1.0,phase_1,,,,,,,,,,,,,white,circle
0.0,4.0,0.0,0.0,4.0,4.0,399.5256100001825,2.0,1.0,phase_1,,,,,,,,,,,,,gray,triangle
342.0,6.0,2.0,1.0,1.0,1.0,386.6579860000456,2.0,1.0,phase_1,,,,,,,,,,,,,blue,flipped triangle
173.0,1.0,1.0,0.0,2.0,2.0,444.3629329998657,2.0,1.0,phase_1,,,,,,,,,,,,,yellow,diamond
1278.0,4.0,4.0,0.0,3.0,3.0,336.3085549999596,2.0,1.0,phase_1,,,,,,,,,,,,,gray,triangle
0.0,8.0,0.0,1.0,3.0,3.0,406.5534450000996,2.0,1.0,phase_1,,,,,,,,,,,,,cyan,I
158.0,5.0,1.0,1.0,1.0,1.0,392.9228569995757,2.0,1.0,phase_1,,,,,,,,,,,,,white,circle
0.0,4.0,0.0,0.0,1.0,1.0,341.3267710002401,2.0,1.0,phase_1,,,,,,,,,,,,,gray,triangle
0.0,1.0,0.0,0.0,2.0,2.0,406.4648660000785,2.0,1.0,phase_1,,,,,,,,,,,,,yellow,diamond
0.0,5.0,0.0,1.0,3.0,3.0,407.9469189996416,2.0,1.0,phase_1,,,,,,,,,,,,,white,circle
317.0,2.0,2.0,0.0,3.0,3.0,355.5889740000566,2.0,1.0,phase_1,,,,,,,,,,,,,green,square
639.0,7.0,3.0,1.0,3.0,3.0,374.6950689996993,2.0,1.0,phase_1,,,,,,,,,,,,,magenta,hexagon
1300.0,4.0,4.0,0.0,4.0,4.0,475.4744710003251,2.0,1.0,phase_1,,,,,,,,,,,,,gray,triangle
639.0,3.0,3.0,0.0,3.0,3.0,366.9407050001609,2.0,1.0,phase_1,,,,,,,,,,,,,orange,cross
1303.0,4.0,4.0,0.0,2.0,2.0,528.876260999823,2.0,1.0,phase_1,,,,,,,,,,,,,gray,triangle
0.0,3.0,0.0,0.0,4.0,4.0,597.1722500003125,2.0,1.0,phase_1,,,,,,,,,,,,,orange,cross
634.0,3.0,3.0,0.0,4.0,4.0,406.2633710000227,2.0,1.0,phase_1,,,,,,,,,,,,,orange,cross
654.0,7.0,3.0,1.0,1.0,1.0,305.1322989999789,2.0,1.0,phase_1,,,,,,,,,,,,,magenta,hexagon
660.0,7.0,3.0,1.0,3.0,3.0,307.7698060001239,2.0,1.0,phase_1,,,,,,,,,,,,,magenta,hexagon
158.0,1.0,1.0,0.0,1.0,1.0,356.4694629999394,2.0,1.0,phase_1,,,,,,,,,,,,,yellow,diamond
315.0,6.0,2.0,1.0,1.0,1.0,378.6462699999902,2.0,1.0,phase_1,,,,,,,,,,,,,blue,flipped triangle
659.0,7.0,3.0,1.0,3.0,3.0,334.3887220003125,2.0,1.0,phase_1,,,,,,,,,,,,,magenta,hexagon
0.0,5.0,0.0,1.0,3.0,3.0,314.4941079999626,2.0,1.0,phase_1,,,,,,,,,,,,,white,circle
301.0,6.0,2.0,1.0,1.0,1.0,353.6314820003099,2.0,1.0,phase_1,,,,,,,,,,,,,blue,flipped triangle
333.0,2.0,2.0,0.0,1.0,1.0,333.5752980001416,2.0,1.0,phase_1,,,,,,,,,,,,,green,square
146.0,5.0,1.0,1.0,1.0,1.0,352.5628600000345,2.0,1.0,phase_1,,,,,,,,,,,,,white,circle
1304.0,4.0,4.0,0.0,1.0,1.0,307.9085229996963,2.0,1.0,phase_1,,,,,,,,,,,,,gray,triangle
1319.0,8.0,4.0,1.0,4.0,4.0,444.851335000294,2.0,1.0,phase_1,,,,,,,,,,,,,cyan,I
1300.0,8.0,4.0,1.0,2.0,2.0,333.3396100001664,2.0,1.0,phase_1,,,,,,,,,,,,,cyan,I
0.0,1.0,0.0,0.0,2.0,2.0,367.6583480000772,2.0,1.0,phase_1,,,,,,,,,,,,,yellow,diamond
1290.0,4.0,4.0,0.0,3.0,3.0,577.8985160000047,2.0,1.0,phase_1,,,,,,,,,,,,,gray,triangle
168.0,1.0,1.0,0.0,4.0,4.0,629.6761380003773,2.0,1.0,phase_1,,,,,,,,,,,,,yellow,diamond
1317.0,4.0,4.0,0.0,1.0,1.0,383.1651169998622,2.0,1.0,phase_1,,,,,,,,,,,,,gray,triangle
151.0,1.0,1.0,0.0,1.0,1.0,394.5244500000626,2.0,1.0,phase_1,,,,,,,,,,,,,yellow,diamond
637.0,3.0,3.0,0.0,1.0,1.0,306.1135429998103,2.0,1.0,phase_1,,,,,,,,,,,,,orange,cross
641.0,3.0,3.0,0.0,2.0,2.0,578.8131649997013,2.0,2.0,phase_1,,,,,,,,,,,,,orange,cross
0.0,2.0,0.0,0.0,1.0,1.0,416.7818770001759,2.0,1.0,phase_1,,,,,,,,,,,,,green,square
0.0,3.0,0.0,0.0,1.0,1.0,405.411402000027,2.0,1.0,phase_1,,,,,,,,,,,,,orange,cross
181.0,1.0,1.0,0.0,2.0,2.0,482.3964709999018,2.0,1.0,phase_1,,,,,,,,,,,,,yellow,diamond
0.0,4.0,0.0,0.0,2.0,2.0,487.2258350001175,2.0,1.0,phase_1,,,,,,,,,,,,,gray,triangle
674.0,3.0,3.0,0.0,1.0,1.0,334.5623750001323,2.0,1.0,phase_1,,,,,,,,,,,,,orange,cross
0.0,1.0,0.0,0.0,1.0,1.0,374.5932389997506,2.0,1.0,phase_1,,,,,,,,,,,,,yellow,diamond
1314.0,4.0,4.0,0.0,4.0,4.0,438.1330340002023,2.0,1.0,phase_1,,,,,,,,,,,,,gray,triangle
1313.0,8.0,4.0,1.0,2.0,2.0,352.2453809996477,2.0,1.0,phase_1,,,,,,,,,,,,,cyan,I
0.0,7.0,0.0,1.0,2.0,2.0,361.7200029998457,2.0,1.0,phase_1,,,,,,,,,,,,,magenta,hexagon
317.0,2.0,2.0,0.0,4.0,4.0,499.331503999656,2.0,1.0,phase_1,,,,,,,,,,,,,green,square
0.0,3.0,0.0,0.0,2.0,2.0,377.5443059998906,2.0,1.0,phase_1,,,,,,,,,,,,,orange,cross
629.0,3.0,3.0,0.0,2.0,2.0,306.6682470002888,2.0,1.0,phase_1,,,,,,,,,,,,,orange,cross
323.0,6.0,2.0,1.0,2.0,2.0,337.1199459998024,2.0,1.0,phase_1,,,,,,,,,,,,,blue,flipped triangle
179.0,5.0,1.0,1.0,1.0,1.0,534.8548639999535,2.0,1.0,phase_1,,,,,,,,,,,,,white,circle
154.0,5.0,1.0,1.0,3.0,3.0,356.8791970001257,2.0,1.0,phase_1,,,,,,,,,,,,,white,circle
141.0,5.0,1.0,1.0,4.0,4.0,456.0835590000351,2.0,1.0,phase_1,,,,,,,,,,,,,white,circle
186.0,1.0,1.0,0.0,3.0,3.0,362.8340950003803,3.0,1.0,phase_1,,,,,,,,,,,,,yellow,diamond
669.0,7.0,3.0,1.0,1.0,1.0,396.5415180000491,3.0,1.0,phase_1,,,,,,,,,,,,,magenta,hexagon
0.0,8.0,0.0,1.0,2.0,2.0,363.6737779997929,3.0,1.0,phase_1,,,,,,,,,,,,,cyan,I
317.0,2.0,2.0,0.0,4.0,4.0,353.1622260002223,3.0,1.0,phase_1,,,,,,,,,,,,,green,square
164.0,5.0,1.0,1.0,3.0,3.0,344.0877279999768,3.0,1.0,phase_1,,,,,,,,,,,,,white,circle
1307.0,8.0,4.0,1.0,4.0,4.0,464.8884769999313,3.0,1.0,phase_1,,,,,,,,,,,,,cyan,I
0.0,8.0,0.0,1.0,2.0,2.0,381.0743269996237,3.0,1.0,phase_1,,,,,,,,,,,,,cyan,I
168.0,5.0,1.0,1.0,2.0,2.0,383.2170759997098,3.0,1.0,phase_1,,,,,,,,,,,,,white,circle
163.0,5.0,1.0,1.0,3.0,3.0,376.0486209998817,3.0,1.0,phase_1,,,,,,,,,,,,,white,circle
349.0,2.0,2.0,0.0,2.0,2.0,382.5481960002435,3.0,1.0,phase_1,,,,,,,,,,,,,green,square
0.0,6.0,0.0,1.0,3.0,3.0,372.2922890001428,3.0,1.0,phase_1,,,,,,,,,,,,,blue,flipped triangle
0.0,5.0,0.0,1.0,4.0,4.0,351.7849299996669,3.0,1.0,phase_1,,,,,,,,,,,,,white,circle
167.0,1.0,1.0,0.0,2.0,2.0,294.7742329997709,3.0,1.0,phase_1,,,,,,,,,,,,,yellow,diamond
0.0,8.0,0.0,1.0,1.0,1.0,415.357103000133,3.0,1.0,phase_1,,,,,,,,,,,,,cyan,I
149.0,1.0,1.0,0.0,1.0,1.0,332.9494069998873,3.0,1.0,phase_1,,,,,,,,,,,,,yellow,diamond
1310.0,8.0,4.0,1.0,2.0,2.0,312.0137850000901,3.0,1.0,phase_1,,,,,,,,,,,,,cyan,I
1324.0,8.0,4.0,1.0,3.0,3.0,346.6158249998443,3.0,1.0,phase_1,,,,,,,,,,,,,cyan,I
346.0,2.0,2.0,0.0,3.0,3.0,333.0946040000526,3.0,1.0,phase_1,,,,,,,,,,,,,green,square
335.0,2.0,2.0,0.0,3.0,3.0,276.5138260001549,3.0,1.0,phase_1,,,,,,,,,,,,,green,square
0.0,7.0,0.0,1.0,4.0,4.0,365.8152439998048,3.0,1.0,phase_1,,,,,,,,,,,,,magenta,hexagon
149.0,1.0,1.0,0.0,2.0,2.0,384.9673790000452,3.0,2.0,phase_1,,,,,,,,,,,,,yellow,diamond
0.0,2.0,0.0,0.0,4.0,4.0,403.2665879999513,3.0,1.0,phase_1,,,,,,,,,,,,,green,square
646.0,3.0,3.0,0.0,4.0,4.0,504.02561100008825,3.0,1.0,phase_1,,,,,,,,,,,,,orange,cross
169.0,5.0,1.0,1.0,3.0,3.0,387.8919740000128,3.0,1.0,phase_1,,,,,,,,,,,,,white,circle
339.0,6.0,2.0,1.0,3.0,3.0,393.428135999784,3.0,1.0,phase_1,,,,,,,,,,,,,blue,flipped triangle
1284.0,8.0,4.0,1.0,2.0,2.0,427.7136129999235,3.0,1.0,phase_1,,,,,,,,,,,,,cyan,I
180.0,5.0,1.0,1.0,3.0,3.0,344.3579179997869,3.0,1.0,phase_1,,,,,,,,,,,,,white,circle
346.0,6.0,2.0,1.0,3.0,3.0,359.3356040000799,3.0,1.0,phase_1,,,,,,,,,,,,,blue,flipped triangle
0.0,1.0,0.0,0.0,3.0,3.0,362.4330870002268,3.0,1.0,phase_1,,,,,,,,,,,,,yellow,diamond
326.0,6.0,2.0,1.0,3.0,3.0,356.6134190000412,3.0,1.0,phase_1,,,,,,,,,,,,,blue,flipped triangle
0.0,2.0,0.0,0.0,4.0,4.0,403.169629000331,3.0,1.0,phase_1,,,,,,,,,,,,,green,square
667.0,3.0,3.0,0.0,4.0,4.0,373.0548910002653,3.0,1.0,phase_1,,,,,,,,,,,,,orange,cross
1300.0,8.0,4.0,1.0,3.0,3.0,404.4624660000409,3.0,1.0,phase_1,,,,,,,,,,,,,cyan,I
630.0,3.0,3.0,0.0,4.0,4.0,376.0203689998889,3.0,1.0,phase_1,,,,,,,,,,,,,orange,cross
163.0,1.0,1.0,0.0,4.0,4.0,436.4328510000632,3.0,1.0,phase_1,,,,,,,,,,,,,yellow,diamond
1280.0,8.0,4.0,1.0,4.0,4.0,345.2642090001063,3.0,1.0,phase_1,,,,,,,,,,,,,cyan,I
173.0,1.0,1.0,0.0,4.0,4.0,366.5186780003751,3.0,1.0,phase_1,,,,,,,,,,,,,yellow,diamond
0.0,5.0,0.0,1.0,1.0,1.0,343.1285619999471,3.0,1.0,phase_1,,,,,,,,,,,,,white,circle
0.0,7.0,0.0,1.0,1.0,1.0,627.9319639997993,3.0,1.0,phase_1,,,,,,,,,,,,,magenta,hexagon
1294.0,4.0,4.0,0.0,1.0,1.0,301.5671279999878,3.0,1.0,phase_1,,,,,,,,,,,,,gray,triangle
0.0,6.0,0.0,1.0,1.0,1.0,332.9174800001055,3.0,1.0,phase_1,,,,,,,,,,,,,blue,flipped triangle
314.0,2.0,2.0,0.0,4.0,4.0,332.3223620000135,3.0,1.0,phase_1,,,,,,,,,,,,,green,square
0.0,1.0,0.0,0.0,3.0,3.0,670.8072860001266,3.0,1.0,phase_1,,,,,,,,,,,,,yellow,diamond
1317.0,4.0,4.0,0.0,1.0,1.0,394.1952919999494,3.0,1.0,phase_1,,,,,,,,,,,,,gray,triangle
346.0,2.0,2.0,0.0,3.0,3.0,284.8222499997064,3.0,1.0,phase_1,,,,,,,,,,,,,green,square
0.0,5.0,0.0,1.0,1.0,1.0,595.9834350001074,3.0,1.0,phase_1,,,,,,,,,,,,,white,circle
315.0,6.0,2.0,1.0,2.0,2.0,515.9228610000355,3.0,1.0,phase_1,,,,,,,,,,,,,blue,flipped triangle
660.0,3.0,3.0,0.0,3.0,3.0,346.2588070001402,3.0,1.0,phase_1,,,,,,,,,,,,,orange,cross
668.0,3.0,3.0,0.0,4.0,4.0,526.7393210001501,3.0,1.0,phase_1,,,,,,,,,,,,,orange,cross
674.0,7.0,3.0,1.0,1.0,1.0,404.178322000007,3.0,1.0,phase_1,,,,,,,,,,,,,magenta,hexagon
140.0,1.0,1.0,0.0,4.0,4.0,405.8053529997778,3.0,1.0,phase_1,,,,,,,,,,,,,yellow,diamond
0.0,4.0,0.0,0.0,2.0,2.0,405.7926169998609,3.0,1.0,phase_1,,,,,,,,,,,,,gray,triangle
0.0,6.0,0.0,1.0,1.0,1.0,418.466737000017,3.0,1.0,phase_1,,,,,,,,,,,,,blue,flipped triangle
326.0,2.0,2.0,0.0,1.0,1.0,324.2740890000277,3.0,1.0,phase_1,,,,,,,,,,,,,green,square
341.0,2.0,2.0,0.0,4.0,4.0,384.537286000068,3.0,1.0,phase_1,,,,,,,,,,,,,green,square
1313.0,4.0,4.0,0.0,3.0,3.0,458.6999980001565,3.0,1.0,phase_1,,,,,,,,,,,,,gray,triangle
1320.0,4.0,4.0,0.0,2.0,2.0,387.9867919999924,3.0,1.0,phase_1,,,,,,,,,,,,,gray,triangle
628.0,7.0,3.0,1.0,4.0,4.0,381.1639679997824,3.0,1.0,phase_1,,,,,,,,,,,,,magenta,hexagon
1292.0,8.0,4.0,1.0,4.0,4.0,377.3559229998682,3.0,1.0,phase_1,,,,,,,,,,,,,cyan,I
654.0,3.0,3.0,0.0,2.0,2.0,577.6773149996188,3.0,1.0,phase_1,,,,,,,,,,,,,orange,cross
339.0,2.0,2.0,0.0,1.0,1.0,570.8262950001881,3.0,1.0,phase_1,,,,,,,,,,,,,green,square
0.0,2.0,0.0,0.0,2.0,2.0,568.5255460002736,3.0,1.0,phase_1,,,,,,,,,,,,,green,square
317.0,2.0,2.0,0.0,2.0,2.0,370.7484299998214,3.0,1.0,phase_1,,,,,,,,,,,,,green,square
0.0,5.0,0.0,1.0,2.0,2.0,404.4203060002473,3.0,1.0,phase_1,,,,,,,,,,,,,white,circle
626.0,7.0,3.0,1.0,4.0,4.0,484.9556549997942,3.0,1.0,phase_1,,,,,,,,,,,,,magenta,hexagon
174.0,5.0,1.0,1.0,1.0,1.0,672.0629609999378,3.0,1.0,phase_1,,,,,,,,,,,,,white,circle
1300.0,4.0,4.0,0.0,1.0,1.0,324.5385760001227,3.0,1.0,phase_1,,,,,,,,,,,,,gray,triangle
0.0,2.0,0.0,0.0,1.0,1.0,334.7131279997484,3.0,1.0,phase_1,,,,,,,,,,,,,green,square
0.0,7.0,0.0,1.0,4.0,4.0,525.5605850002212,3.0,1.0,phase_1,,,,,,,,,,,,,magenta,hexagon
345.0,2.0,2.0,0.0,4.0,4.0,601.5969690001839,3.0,1.0,phase_1,,,,,,,,,,,,,green,square
1286.0,8.0,4.0,1.0,1.0,1.0,527.2389609999664,3.0,1.0,phase_1,,,,,,,,,,,,,cyan,I
1296.0,8.0,4.0,1.0,1.0,1.0,315.3488500001913,3.0,1.0,phase_1,,,,,,,,,,,,,cyan,I
656.0,7.0,3.0,1.0,2.0,2.0,593.4655539999767,3.0,1.0,phase_1,,,,,,,,,,,,,magenta,hexagon
645.0,7.0,3.0,1.0,4.0,4.0,382.8533679998145,3.0,1.0,phase_1,,,,,,,,,,,,,magenta,hexagon
158.0,1.0,1.0,0.0,2.0,2.0,365.8181290002176,3.0,1.0,phase_1,,,,,,,,,,,,,yellow,diamond
1286.0,4.0,4.0,0.0,4.0,4.0,382.8933899999356,3.0,1.0,phase_1,,,,,,,,,,,,,gray,triangle
0.0,7.0,0.0,1.0,4.0,4.0,413.1207750001522,3.0,1.0,phase_1,,,,,,,,,,,,,magenta,hexagon
654.0,3.0,3.0,0.0,2.0,2.0,359.5229879997532,3.0,1.0,phase_1,,,,,,,,,,,,,orange,cross
1294.0,4.0,4.0,0.0,3.0,3.0,451.8611779999446,3.0,1.0,phase_1,,,,,,,,,,,,,gray,triangle
165.0,1.0,1.0,0.0,4.0,4.0,314.5094709998375,3.0,1.0,phase_1,,,,,,,,,,,,,yellow,diamond
0.0,3.0,0.0,0.0,2.0,2.0,363.0340919999071,3.0,2.0,phase_1,,,,,,,,,,,,,orange,cross
626.0,7.0,3.0,1.0,2.0,2.0,376.9122509997942,3.0,1.0,phase_1,,,,,,,,,,,,,magenta,hexagon
630.0,7.0,3.0,1.0,3.0,3.0,373.1354470000951,3.0,1.0,phase_1,,,,,,,,,,,,,magenta,hexagon
0.0,6.0,0.0,1.0,4.0,4.0,478.6190140002873,3.0,1.0,phase_1,,,,,,,,,,,,,blue,flipped triangle
339.0,6.0,2.0,1.0,2.0,2.0,344.8014909999983,3.0,1.0,phase_1,,,,,,,,,,,,,blue,flipped triangle
137.0,1.0,1.0,0.0,4.0,4.0,434.5377810000173,3.0,1.0,phase_1,,,,,,,,,,,,,yellow,diamond
331.0,6.0,2.0,1.0,3.0,3.0,682.6543639999727,3.0,1.0,phase_1,,,,,,,,,,,,,blue,flipped triangle
173.0,5.0,1.0,1.0,3.0,3.0,416.4026830003422,3.0,1.0,phase_1,,,,,,,,,,,,,white,circle
0.0,7.0,0.0,1.0,2.0,2.0,365.4168240000217,3.0,1.0,phase_1,,,,,,,,,,,,,magenta,hexagon
315.0,2.0,2.0,0.0,1.0,1.0,395.8608339999045,3.0,1.0,phase_1,,,,,,,,,,,,,green,square
0.0,8.0,0.0,1.0,2.0,2.0,427.1072189999358,3.0,1.0,phase_1,,,,,,,,,,,,,cyan,I
344.0,6.0,2.0,1.0,2.0,2.0,386.2078849997488,3.0,1.0,phase_1,,,,,,,,,,,,,blue,flipped triangle
324.0,6.0,2.0,1.0,3.0,3.0,367.0380290000139,3.0,1.0,phase_1,,,,,,,,,,,,,blue,flipped triangle
1280.0,4.0,4.0,0.0,2.0,2.0,377.7859189999617,3.0,1.0,phase_1,,,,,,,,,,,,,gray,triangle
342.0,2.0,2.0,0.0,4.0,4.0,395.0675559999581,3.0,1.0,phase_1,,,,,,,,,,,,,green,square
1283.0,4.0,4.0,0.0,4.0,4.0,506.70309199995245,3.0,1.0,phase_1,,,,,,,,,,,,,gray,triangle
670.0,3.0,3.0,0.0,2.0,2.0,326.0997170000337,3.0,1.0,phase_1,,,,,,,,,,,,,orange,cross
664.0,3.0,3.0,0.0,4.0,4.0,355.8936310000717,3.0,1.0,phase_1,,,,,,,,,,,,,orange,cross
166.0,1.0,1.0,0.0,3.0,3.0,337.2422899997218,3.0,1.0,phase_1,,,,,,,,,,,,,yellow,diamond
184.0,1.0,1.0,0.0,3.0,3.0,332.0907309998802,3.0,1.0,phase_1,,,,,,,,,,,,,yellow,diamond
652.0,7.0,3.0,1.0,4.0,4.0,406.2511500001164,4.0,1.0,phase_1,,,,,,,,,,,,,magenta,hexagon
1304.0,8.0,4.0,1.0,4.0,4.0,331.6538210001454,4.0,1.0,phase_1,,,,,,,,,,,,,cyan,I
659.0,3.0,3.0,0.0,1.0,1.0,336.5732969996315,4.0,1.0,phase_1,,,,,,,,,,,,,orange,cross
651.0,7.0,3.0,1.0,1.0,1.0,317.8704199999629,4.0,2.0,phase_1,,,,,,,,,,,,,magenta,hexagon
186.0,5.0,1.0,1.0,4.0,4.0,375.9380079995935,4.0,1.0,phase_1,,,,,,,,,,,,,white,circle
664.0,7.0,3.0,1.0,4.0,4.0,504.47417199984557,4.0,1.0,phase_1,,,,,,,,,,,,,magenta,hexagon
311.0,6.0,2.0,1.0,1.0,1.0,314.4424030001573,4.0,1.0,phase_1,,,,,,,,,,,,,blue,flipped triangle
1320.0,8.0,4.0,1.0,2.0,2.0,405.9893710000324,4.0,1.0,phase_1,,,,,,,,,,,,,cyan,I
1307.0,8.0,4.0,1.0,2.0,2.0,386.463059000107,4.0,1.0,phase_1,,,,,,,,,,,,,cyan,I
149.0,5.0,1.0,1.0,3.0,3.0,363.1786740002098,4.0,1.0,phase_1,,,,,,,,,,,,,white,circle
341.0,2.0,2.0,0.0,2.0,2.0,335.9633509999185,4.0,1.0,phase_1,,,,,,,,,,,,,green,square
333.0,2.0,2.0,0.0,1.0,1.0,422.7509490001466,4.0,1.0,phase_1,,,,,,,,,,,,,green,square
1307.0,4.0,4.0,0.0,3.0,3.0,599.1171910000048,4.0,1.0,phase_1,,,,,,,,,,,,,gray,triangle
311.0,6.0,2.0,1.0,1.0,1.0,350.1687860002676,4.0,1.0,phase_1,,,,,,,,,,,,,blue,flipped triangle
151.0,5.0,1.0,1.0,2.0,2.0,345.5461239996111,4.0,1.0,phase_1,,,,,,,,,,,,,white,circle
1292.0,4.0,4.0,0.0,1.0,1.0,382.90410100034927,4.0,1.0,phase_1,,,,,,,,,,,,,gray,triangle
630.0,7.0,3.0,1.0,3.0,3.0,332.885952000197,4.0,1.0,phase_1,,,,,,,,,,,,,magenta,hexagon
312.0,2.0,2.0,0.0,3.0,3.0,363.3017420002034,4.0,1.0,phase_1,,,,,,,,,,,,,green,square
1320.0,4.0,4.0,0.0,4.0,4.0,427.2328360002575,4.0,1.0,phase_1,,,,,,,,,,,,,gray,triangle
0.0,8.0,0.0,1.0,2.0,2.0,350.3986110004007,4.0,1.0,phase_1,,,,,,,,,,,,,cyan,I
645.0,3.0,3.0,0.0,1.0,1.0,384.7187269998358,4.0,1.0,phase_1,,,,,,,,,,,,,orange,cross
0.0,1.0,0.0,0.0,4.0,4.0,483.4574420001445,4.0,1.0,phase_1,,,,,,,,,,,,,yellow,diamond
346.0,6.0,2.0,1.0,4.0,4.0,395.7976679998864,4.0,1.0,phase_1,,,,,,,,,,,,,blue,flipped triangle
1289.0,8.0,4.0,1.0,3.0,3.0,336.8051830002514,4.0,1.0,phase_1,,,,,,,,,,,,,cyan,I
1297.0,4.0,4.0,0.0,4.0,4.0,393.0173339999783,4.0,1.0,phase_1,,,,,,,,,,,,,gray,triangle
308.0,6.0,2.0,1.0,1.0,1.0,365.5808120001893,4.0,1.0,phase_1,,,,,,,,,,,,,blue,flipped triangle
180.0,1.0,1.0,0.0,1.0,1.0,304.0190379997511,4.0,1.0,phase_1,,,,,,,,,,,,,yellow,diamond
645.0,3.0,3.0,0.0,4.0,4.0,352.377983000224,4.0,1.0,phase_1,,,,,,,,,,,,,orange,cross
0.0,3.0,0.0,0.0,3.0,3.0,344.2706020000514,4.0,1.0,phase_1,,,,,,,,,,,,,orange,cross
0.0,3.0,0.0,0.0,2.0,2.0,323.3173680000618,4.0,1.0,phase_1,,,,,,,,,,,,,orange,cross
1317.0,4.0,4.0,0.0,2.0,2.0,391.4067079999768,4.0,1.0,phase_1,,,,,,,,,,,,,gray,triangle
320.0,2.0,2.0,0.0,4.0,4.0,354.3100800002321,4.0,1.0,phase_1,,,,,,,,,,,,,green,square
667.0,7.0,3.0,1.0,2.0,2.0,339.8095130000911,4.0,1.0,phase_1,,,,,,,,,,,,,magenta,hexagon
661.0,3.0,3.0,0.0,2.0,2.0,374.4556860001466,4.0,1.0,phase_1,,,,,,,,,,,,,orange,cross
180.0,1.0,1.0,0.0,2.0,2.0,314.4273060001978,4.0,1.0,phase_1,,,,,,,,,,,,,yellow,diamond
669.0,7.0,3.0,1.0,3.0,3.0,375.7126320001589,4.0,1.0,phase_1,,,,,,,,,,,,,magenta,hexagon
1317.0,4.0,4.0,0.0,1.0,1.0,423.1807980004305,4.0,1.0,phase_1,,,,,,,,,,,,,gray,triangle
167.0,5.0,1.0,1.0,2.0,2.0,354.5421520002492,4.0,2.0,phase_1,,,,,,,,,,,,,white,circle
149.0,1.0,1.0,0.0,3.0,3.0,352.5602319996324,4.0,1.0,phase_1,,,,,,,,,,,,,yellow,diamond
0.0,5.0,0.0,1.0,2.0,2.0,330.0652389998504,4.0,1.0,phase_1,,,,,,,,,,,,,white,circle
182.0,1.0,1.0,0.0,2.0,2.0,356.139991999953,4.0,1.0,phase_1,,,,,,,,,,,,,yellow,diamond
0.0,3.0,0.0,0.0,3.0,3.0,334.3017729998792,4.0,1.0,phase_1,,,,,,,,,,,,,orange,cross
327.0,6.0,2.0,1.0,2.0,2.0,337.4027989998467,4.0,1.0,phase_1,,,,,,,,,,,,,blue,flipped triangle
670.0,7.0,3.0,1.0,1.0,1.0,420.5393659999572,4.0,1.0,phase_1,,,,,,,,,,,,,magenta,hexagon
179.0,1.0,1.0,0.0,4.0,4.0,387.4468609997166,4.0,1.0,phase_1,,,,,,,,,,,,,yellow,diamond
1277.0,8.0,4.0,1.0,1.0,1.0,351.6350840000086,4.0,1.0,phase_1,,,,,,,,,,,,,cyan,I
649.0,3.0,3.0,0.0,2.0,2.0,487.277904000166,4.0,1.0,phase_1,,,,,,,,,,,,,orange,cross
303.0,2.0,2.0,0.0,2.0,2.0,313.8113820000399,4.0,1.0,phase_1,,,,,,,,,,,,,green,square
649.0,7.0,3.0,1.0,4.0,4.0,507.0866680002837,4.0,1.0,phase_1,,,,,,,,,,,,,magenta,hexagon
308.0,2.0,2.0,0.0,3.0,3.0,364.5508009999503,4.0,1.0,phase_1,,,,,,,,,,,,,green,square
317.0,6.0,2.0,1.0,1.0,1.0,394.0921020002861,4.0,1.0,phase_1,,,,,,,,,,,,,blue,flipped triangle
1296.0,4.0,4.0,0.0,3.0,3.0,352.0271560000765,4.0,1.0,phase_1,,,,,,,,,,,,,gray,triangle
165.0,5.0,1.0,1.0,2.0,2.0,448.3940200002507,4.0,1.0,phase_1,,,,,,,,,,,,,white,circle
668.0,7.0,3.0,1.0,2.0,2.0,445.4329489999509,4.0,1.0,phase_1,,,,,,,,,,,,,magenta,hexagon
656.0,3.0,3.0,0.0,4.0,4.0,438.9414449997275,4.0,1.0,phase_1,,,,,,,,,,,,,orange,cross
1289.0,8.0,4.0,1.0,3.0,3.0,336.4646499999253,4.0,1.0,phase_1,,,,,,,,,,,,,cyan,I
0.0,1.0,0.0,0.0,1.0,1.0,351.3763480000307,4.0,1.0,phase_1,,,,,,,,,,,,,yellow,diamond
169.0,1.0,1.0,0.0,2.0,2.0,343.2540209996659,4.0,1.0,phase_1,,,,,,,,,,,,,yellow,diamond
320.0,6.0,2.0,1.0,4.0,4.0,418.6577549999128,4.0,1.0,phase_1,,,,,,,,,,,,,blue,flipped triangle
317.0,6.0,2.0,1.0,3.0,3.0,345.185236999896,4.0,1.0,phase_1,,,,,,,,,,,,,blue,flipped triangle
339.0,2.0,2.0,0.0,4.0,4.0,426.9696149999618,4.0,1.0,phase_1,,,,,,,,,,,,,green,square
667.0,7.0,3.0,1.0,2.0,2.0,295.3676180000002,4.0,1.0,phase_1,,,,,,,,,,,,,magenta,hexagon
0.0,8.0,0.0,1.0,4.0,4.0,403.4161089998633,4.0,1.0,phase_1,,,,,,,,,,,,,cyan,I
323.0,2.0,2.0,0.0,2.0,2.0,302.2272889998021,4.0,1.0,phase_1,,,,,,,,,,,,,green,square
664.0,7.0,3.0,1.0,1.0,1.0,426.2141449999035,4.0,1.0,phase_1,,,,,,,,,,,,,magenta,hexagon
0.0,8.0,0.0,1.0,2.0,2.0,415.9362219998002,4.0,1.0,phase_1,,,,,,,,,,,,,cyan,I
180.0,5.0,1.0,1.0,3.0,3.0,723.3708429998842,4.0,1.0,phase_1,,,,,,,,,,,,,white,circle
184.0,5.0,1.0,1.0,4.0,4.0,593.1109489997652,4.0,1.0,phase_1,,,,,,,,,,,,,white,circle
333.0,6.0,2.0,1.0,4.0,4.0,484.7814980003022,4.0,1.0,phase_1,,,,,,,,,,,,,blue,flipped triangle
1300.0,4.0,4.0,0.0,1.0,1.0,314.4019299998035,4.0,1.0,phase_1,,,,,,,,,,,,,gray,triangle
0.0,3.0,0.0,0.0,1.0,1.0,325.6367349999891,4.0,1.0,phase_1,,,,,,,,,,,,,orange,cross
141.0,1.0,1.0,0.0,3.0,3.0,472.1293719999266,4.0,1.0,phase_1,,,,,,,,,,,,,yellow,diamond
341.0,6.0,2.0,1.0,3.0,3.0,355.0903340001241,4.0,1.0,phase_1,,,,,,,,,,,,,blue,flipped triangle
1305.0,4.0,4.0,0.0,2.0,2.0,360.9355629996571,4.0,1.0,phase_1,,,,,,,,,,,,,gray,triangle
0.0,4.0,0.0,0.0,3.0,3.0,332.8074549999655,4.0,1.0,phase_1,,,,,,,,,,,,,gray,triangle
652.0,3.0,3.0,0.0,1.0,1.0,407.0533789999899,4.0,1.0,phase_1,,,,,,,,,,,,,orange,cross
639.0,3.0,3.0,0.0,3.0,3.0,315.4078020002089,4.0,1.0,phase_1,,,,,,,,,,,,,orange,cross
1307.0,4.0,4.0,0.0,2.0,2.0,383.4530439999071,4.0,1.0,phase_1,,,,,,,,,,,,,gray,triangle
311.0,6.0,2.0,1.0,4.0,4.0,701.136986000165,4.0,1.0,phase_1,,,,,,,,,,,,,blue,flipped triangle
341.0,6.0,2.0,1.0,4.0,4.0,434.8121650000394,4.0,1.0,phase_1,,,,,,,,,,,,,blue,flipped triangle
0.0,7.0,0.0,1.0,2.0,2.0,476.9085429998085,4.0,1.0,phase_1,,,,,,,,,,,,,magenta,hexagon
1320.0,8.0,4.0,1.0,1.0,1.0,415.4360150000684,4.0,1.0,phase_1,,,,,,,,,,,,,cyan,I
670.0,7.0,3.0,1.0,3.0,3.0,294.0120440002829,4.0,1.0,phase_1,,,,,,,,,,,,,magenta,hexagon
144.0,5.0,1.0,1.0,1.0,1.0,334.2927200001213,4.0,1.0,phase_1,,,,,,,,,,,,,white,circle
673.0,7.0,3.0,1.0,1.0,1.0,333.0199340002764,4.0,1.0,phase_1,,,,,,,,,,,,,magenta,hexagon
168.0,1.0,1.0,0.0,3.0,3.0,350.0298690000818,4.0,1.0,phase_1,,,,,,,,,,,,,yellow,diamond
144.0,5.0,1.0,1.0,4.0,4.0,345.6876559998818,4.0,1.0,phase_1,,,,,,,,,,,,,white,circle
1315.0,4.0,4.0,0.0,4.0,4.0,352.0114180000746,4.0,1.0,phase_1,,,,,,,,,,,,,gray,triangle
1283.0,8.0,4.0,1.0,2.0,2.0,370.7895549996465,4.0,2.0,phase_1,,,,,,,,,,,,,cyan,I
180.0,1.0,1.0,0.0,1.0,1.0,406.27894499994,4.0,1.0,phase_1,,,,,,,,,,,,,yellow,diamond
669.0,3.0,3.0,0.0,2.0,2.0,384.7188049999204,4.0,1.0,phase_1,,,,,,,,,,,,,orange,cross
1307.0,4.0,4.0,0.0,2.0,2.0,436.11060400007767,4.0,1.0,phase_1,,,,,,,,,,,,,gray,triangle
140.0,5.0,1.0,1.0,2.0,2.0,352.7524010000888,4.0,1.0,phase_1,,,,,,,,,,,,,white,circle
330.0,6.0,2.0,1.0,4.0,4.0,436.6011289998823,4.0,1.0,phase_1,,,,,,,,,,,,,blue,flipped triangle
158.0,5.0,1.0,1.0,3.0,3.0,384.7681019997253,4.0,1.0,phase_1,,,,,,,,,,,,,white,circle
634.0,7.0,3.0,1.0,4.0,4.0,448.20932799984797,4.0,1.0,phase_1,,,,,,,,,,,,,magenta,hexagon
0.0,1.0,0.0,0.0,4.0,4.0,384.967788999802,4.0,1.0,phase_1,,,,,,,,,,,,,yellow,diamond
1319.0,4.0,4.0,0.0,4.0,4.0,342.2169049999866,4.0,1.0,phase_1,,,,,,,,,,,,,gray,triangle
0.0,6.0,0.0,1.0,4.0,4.0,312.6227420002578,4.0,1.0,phase_1,,,,,,,,,,,,,blue,flipped triangle
155.0,5.0,1.0,1.0,4.0,4.0,356.1203939998449,4.0,1.0,phase_1,,,,,,,,,,,,,white,circle
0.0,1.0,1.0,0.0,5.0,5.0,427.9675019997739,1.0,1.0,phase_2,go,250.0,250.0,1.0,,,,,,,,,yellow,diamond
0.0,2.0,2.0,0.0,6.0,6.0,427.3187549997601,1.0,1.0,phase_2,go,250.0,250.0,1.0,,,,,,,,,green,square
0.0,2.0,2.0,0.0,5.0,5.0,374.8169519999464,1.0,1.0,phase_2,go,250.0,250.0,1.0,,,,,,,,,green,square
0.0,1.0,1.0,0.0,6.0,6.0,366.5712020001592,1.0,1.0,phase_2,go,250.0,250.0,1.0,,,,,,,,,yellow,diamond
0.0,2.0,2.0,0.0,6.0,6.0,353.699501000392,1.0,1.0,phase_2,go,250.0,250.0,1.0,,,,,,,,,green,square
0.0,8.0,4.0,1.0,5.0,0.0,0.0,1.0,1.0,phase_2,stop,250.0,250.0,4.0,,,,,,,,,cyan,I
0.0,7.0,3.0,1.0,6.0,0.0,0.0,1.0,1.0,phase_2,stop,300.0,250.0,4.0,,,,,,,,,magenta,hexagon
0.0,5.0,1.0,1.0,5.0,5.0,372.4279239995667,1.0,1.0,phase_2,stop,300.0,300.0,3.0,,,,,,,,,white,circle
0.0,8.0,4.0,1.0,6.0,6.0,390.257147000284,1.0,1.0,phase_2,go,250.0,300.0,1.0,,,,,,,,,cyan,I
0.0,4.0,4.0,0.0,6.0,6.0,538.7696699999651,1.0,1.0,phase_2,go,250.0,300.0,1.0,,,,,,,,,gray,triangle
0.0,8.0,4.0,1.0,5.0,5.0,459.9119330000576,1.0,1.0,phase_2,stop,250.0,300.0,3.0,,,,,,,,,cyan,I
0.0,2.0,2.0,0.0,5.0,5.0,338.2966650001435,1.0,1.0,phase_2,go,200.0,300.0,1.0,,,,,,,,,green,square
0.0,1.0,1.0,0.0,5.0,5.0,442.1638339999845,1.0,1.0,phase_2,go,200.0,300.0,1.0,,,,,,,,,yellow,diamond
0.0,5.0,1.0,1.0,5.0,5.0,682.112085999961,1.0,1.0,phase_2,go,200.0,300.0,1.0,,,,,,,,,white,circle
0.0,7.0,3.0,1.0,5.0,0.0,0.0,1.0,1.0,phase_2,stop,200.0,300.0,4.0,,,,,,,,,magenta,hexagon
0.0,4.0,4.0,0.0,6.0,6.0,513.4154840002338,1.0,1.0,phase_2,go,250.0,300.0,1.0,,,,,,,,,gray,triangle
0.0,1.0,1.0,0.0,5.0,5.0,625.4822529999728,1.0,1.0,phase_2,go,250.0,300.0,1.0,,,,,,,,,yellow,diamond
0.0,5.0,1.0,1.0,5.0,5.0,391.8711329997677,1.0,1.0,phase_2,go,250.0,300.0,1.0,,,,,,,,,white,circle
0.0,7.0,3.0,1.0,5.0,0.0,0.0,1.0,1.0,phase_2,stop,250.0,300.0,4.0,,,,,,,,,magenta,hexagon
0.0,2.0,2.0,0.0,5.0,5.0,591.0229460000664,1.0,1.0,phase_2,go,300.0,300.0,1.0,,,,,,,,,green,square
0.0,3.0,3.0,0.0,5.0,5.0,597.2700150000492,1.0,1.0,phase_2,go,300.0,300.0,1.0,,,,,,,,,orange,cross
0.0,5.0,1.0,1.0,5.0,0.0,0.0,1.0,1.0,phase_2,stop,300.0,300.0,4.0,,,,,,,,,white,circle
0.0,7.0,3.0,1.0,5.0,0.0,0.0,1.0,1.0,phase_2,stop,350.0,300.0,4.0,,,,,,,,,magenta,hexagon
0.0,6.0,2.0,1.0,5.0,5.0,577.7699039999789,1.0,1.0,phase_2,go,400.0,300.0,1.0,,,,,,,,,blue,flipped triangle
0.0,7.0,3.0,1.0,6.0,0.0,0.0,1.0,1.0,phase_2,stop,400.0,300.0,4.0,,,,,,,,,magenta,hexagon
0.0,6.0,2.0,1.0,5.0,5.0,594.3102450000879,1.0,1.0,phase_2,go,400.0,350.0,1.0,,,,,,,,,blue,flipped triangle
0.0,4.0,4.0,0.0,5.0,5.0,647.0508530001098,1.0,1.0,phase_2,go,400.0,350.0,1.0,,,,,,,,,gray,triangle
0.0,4.0,4.0,0.0,6.0,6.0,567.463928000052,1.0,1.0,phase_2,go,400.0,350.0,1.0,,,,,,,,,gray,triangle
0.0,2.0,2.0,0.0,5.0,5.0,540.6756960001076,1.0,1.0,phase_2,go,400.0,350.0,1.0,,,,,,,,,green,square
0.0,5.0,1.0,1.0,5.0,5.0,347.7154160000282,1.0,1.0,phase_2,stop,400.0,350.0,3.0,,,,,,,,,white,circle
0.0,2.0,2.0,0.0,5.0,5.0,407.6989380000668,1.0,1.0,phase_2,go,350.0,350.0,1.0,,,,,,,,,green,square
0.0,5.0,1.0,1.0,6.0,6.0,424.5741640002052,1.0,1.0,phase_2,stop,350.0,350.0,3.0,,,,,,,,,white,circle
0.0,1.0,1.0,0.0,6.0,6.0,434.248915000353,1.0,1.0,phase_2,go,350.0,300.0,1.0,,,,,,,,,yellow,diamond
0.0,3.0,3.0,0.0,6.0,6.0,670.3712170001381,1.0,1.0,phase_2,go,350.0,300.0,1.0,,,,,,,,,orange,cross
0.0,2.0,2.0,0.0,5.0,5.0,599.5882520001032,1.0,1.0,phase_2,go,350.0,300.0,1.0,,,,,,,,,green,square
0.0,3.0,3.0,0.0,5.0,5.0,358.9828330000273,1.0,1.0,phase_2,go,350.0,300.0,1.0,,,,,,,,,orange,cross
0.0,7.0,3.0,1.0,5.0,5.0,432.9864970000017,2.0,1.0,phase_2,stop,350.0,300.0,3.0,,,,,,,,,magenta,hexagon
0.0,1.0,1.0,0.0,6.0,6.0,337.1933929997794,2.0,1.0,phase_2,go,300.0,300.0,1.0,,,,,,,,,yellow,diamond
0.0,6.0,2.0,1.0,5.0,5.0,363.6179790000824,2.0,1.0,phase_2,stop,300.0,300.0,3.0,,,,,,,,,blue,flipped triangle
0.0,2.0,2.0,0.0,5.0,5.0,447.2720360004132,2.0,1.0,phase_2,go,250.0,300.0,1.0,,,,,,,,,green,square
0.0,1.0,1.0,0.0,6.0,6.0,299.136087000079,2.0,1.0,phase_2,go,250.0,300.0,1.0,,,,,,,,,yellow,diamond
0.0,6.0,2.0,1.0,5.0,5.0,569.5162160000109,2.0,1.0,phase_2,go,250.0,300.0,1.0,,,,,,,,,blue,flipped triangle
0.0,3.0,3.0,0.0,6.0,6.0,600.8560519999264,2.0,1.0,phase_2,go,250.0,300.0,1.0,,,,,,,,,orange,cross
0.0,2.0,2.0,0.0,5.0,5.0,591.686173999733,2.0,1.0,phase_2,go,250.0,300.0,1.0,,,,,,,,,green,square
0.0,4.0,4.0,0.0,6.0,6.0,567.1889480004211,2.0,1.0,phase_2,go,250.0,300.0,1.0,,,,,,,,,gray,triangle
0.0,5.0,1.0,1.0,6.0,0.0,0.0,2.0,1.0,phase_2,stop,250.0,300.0,4.0,,,,,,,,,white,circle
0.0,3.0,3.0,0.0,5.0,5.0,553.1463850002183,2.0,1.0,phase_2,go,250.0,350.0,1.0,,,,,,,,,orange,cross
0.0,8.0,4.0,1.0,5.0,0.0,0.0,2.0,1.0,phase_2,stop,250.0,350.0,4.0,,,,,,,,,cyan,I
0.0,5.0,1.0,1.0,5.0,0.0,0.0,2.0,1.0,phase_2,stop,300.0,350.0,4.0,,,,,,,,,white,circle
0.0,2.0,2.0,0.0,6.0,6.0,487.1808650000275,2.0,1.0,phase_2,go,350.0,350.0,1.0,,,,,,,,,green,square
0.0,5.0,1.0,1.0,6.0,6.0,456.745218999913,2.0,1.0,phase_2,stop,350.0,350.0,3.0,,,,,,,,,white,circle
0.0,1.0,1.0,0.0,5.0,5.0,565.4595109999718,2.0,1.0,phase_2,go,350.0,300.0,1.0,,,,,,,,,yellow,diamond
0.0,5.0,1.0,1.0,6.0,0.0,0.0,2.0,1.0,phase_2,stop,350.0,300.0,4.0,,,,,,,,,white,circle
0.0,5.0,1.0,1.0,6.0,0.0,0.0,2.0,1.0,phase_2,stop,350.0,350.0,4.0,,,,,,,,,white,circle
0.0,7.0,3.0,1.0,6.0,6.0,541.8516449999515,2.0,1.0,phase_2,stop,350.0,400.0,3.0,,,,,,,,,magenta,hexagon
0.0,8.0,4.0,1.0,6.0,6.0,658.7899229998584,2.0,1.0,phase_2,go,350.0,350.0,1.0,,,,,,,,,cyan,I
0.0,6.0,2.0,1.0,5.0,5.0,691.2256149998939,2.0,1.0,phase_2,go,350.0,350.0,1.0,,,,,,,,,blue,flipped triangle
0.0,3.0,3.0,0.0,6.0,6.0,686.99143799995,2.0,1.0,phase_2,go,350.0,350.0,1.0,,,,,,,,,orange,cross
0.0,7.0,3.0,1.0,6.0,6.0,682.4978449999435,2.0,1.0,phase_2,go,350.0,350.0,1.0,,,,,,,,,magenta,hexagon
0.0,6.0,2.0,1.0,6.0,0.0,0.0,2.0,1.0,phase_2,stop,350.0,350.0,4.0,,,,,,,,,blue,flipped triangle
0.0,4.0,4.0,0.0,5.0,5.0,660.7688240001153,2.0,1.0,phase_2,go,350.0,400.0,1.0,,,,,,,,,gray,triangle
0.0,7.0,3.0,1.0,6.0,6.0,727.516924000156,2.0,1.0,phase_2,go,350.0,400.0,1.0,,,,,,,,,magenta,hexagon
0.0,1.0,1.0,0.0,5.0,5.0,513.0933259997619,2.0,1.0,phase_2,go,350.0,400.0,1.0,,,,,,,,,yellow,diamond
0.0,5.0,1.0,1.0,5.0,0.0,0.0,2.0,1.0,phase_2,stop,350.0,400.0,4.0,,,,,,,,,white,circle
0.0,5.0,1.0,1.0,5.0,5.0,753.9757360000294,2.0,1.0,phase_2,go,400.0,400.0,1.0,,,,,,,,,white,circle
0.0,5.0,1.0,1.0,6.0,6.0,358.7158630002705,2.0,1.0,phase_2,stop,400.0,400.0,3.0,,,,,,,,,white,circle
0.0,6.0,2.0,1.0,5.0,5.0,479.189629999837,2.0,1.0,phase_2,stop,400.0,350.0,3.0,,,,,,,,,blue,flipped triangle
0.0,2.0,2.0,0.0,6.0,6.0,694.2173259999436,2.0,1.0,phase_2,go,350.0,350.0,1.0,,,,,,,,,green,square
0.0,7.0,3.0,1.0,6.0,6.0,813.9113820002422,2.0,1.0,phase_2,go,350.0,350.0,1.0,,,,,,,,,magenta,hexagon
0.0,7.0,3.0,1.0,5.0,0.0,0.0,2.0,1.0,phase_2,stop,350.0,350.0,4.0,,,,,,,,,magenta,hexagon
0.0,7.0,3.0,1.0,5.0,0.0,0.0,2.0,1.0,phase_2,stop,400.0,350.0,4.0,,,,,,,,,magenta,hexagon
0.0,5.0,1.0,1.0,6.0,6.0,795.944474999942,2.0,1.0,phase_2,go,450.0,350.0,1.0,,,,,,,,,white,circle
0.0,5.0,1.0,1.0,6.0,0.0,0.0,3.0,1.0,phase_2,stop,450.0,350.0,4.0,,,,,,,,,white,circle
0.0,6.0,2.0,1.0,5.0,5.0,553.425277000315,3.0,1.0,phase_2,stop,450.0,400.0,3.0,,,,,,,,,blue,flipped triangle
0.0,1.0,1.0,0.0,6.0,6.0,580.6686400001126,3.0,1.0,phase_2,go,400.0,400.0,1.0,,,,,,,,,yellow,diamond
0.0,5.0,1.0,1.0,5.0,5.0,686.656399000185,3.0,1.0,phase_2,go,400.0,400.0,1.0,,,,,,,,,white,circle
0.0,3.0,3.0,0.0,5.0,5.0,598.4405180001886,3.0,1.0,phase_2,go,400.0,400.0,1.0,,,,,,,,,orange,cross
0.0,2.0,2.0,0.0,5.0,5.0,675.416309999946,3.0,1.0,phase_2,go,400.0,400.0,1.0,,,,,,,,,green,square
0.0,5.0,1.0,1.0,5.0,0.0,0.0,3.0,1.0,phase_2,stop,400.0,400.0,4.0,,,,,,,,,white,circle
0.0,3.0,3.0,0.0,6.0,6.0,661.5244770000572,3.0,1.0,phase_2,go,450.0,400.0,1.0,,,,,,,,,orange,cross
0.0,4.0,4.0,0.0,5.0,5.0,662.3341519998576,3.0,1.0,phase_2,go,450.0,400.0,1.0,,,,,,,,,gray,triangle
0.0,6.0,2.0,1.0,5.0,0.0,0.0,3.0,1.0,phase_2,stop,450.0,400.0,4.0,,,,,,,,,blue,flipped triangle
0.0,2.0,2.0,0.0,6.0,6.0,551.5083629998117,3.0,1.0,phase_2,go,500.0,400.0,1.0,,,,,,,,,green,square
0.0,5.0,1.0,1.0,6.0,0.0,0.0,3.0,1.0,phase_2,stop,500.0,400.0,4.0,,,,,,,,,white,circle
0.0,6.0,2.0,1.0,6.0,6.0,561.1329210000804,3.0,1.0,phase_2,go,500.0,450.0,1.0,,,,,,,,,blue,flipped triangle
0.0,6.0,2.0,1.0,6.0,0.0,0.0,3.0,1.0,phase_2,stop,500.0,450.0,4.0,,,,,,,,,blue,flipped triangle
0.0,7.0,3.0,1.0,5.0,5.0,635.1793440003348,3.0,1.0,phase_2,stop,500.0,500.0,3.0,,,,,,,,,magenta,hexagon
0.0,1.0,1.0,0.0,5.0,5.0,634.5018369997888,3.0,1.0,phase_2,go,450.0,500.0,1.0,,,,,,,,,yellow,diamond
0.0,2.0,2.0,0.0,6.0,6.0,763.2584880002469,3.0,1.0,phase_2,go,450.0,500.0,1.0,,,,,,,,,green,square
0.0,8.0,4.0,1.0,6.0,6.0,650.8813949999421,3.0,1.0,phase_2,stop,450.0,500.0,3.0,,,,,,,,,cyan,I
0.0,4.0,4.0,0.0,6.0,6.0,778.6805330001698,3.0,1.0,phase_2,go,450.0,450.0,1.0,,,,,,,,,gray,triangle
0.0,2.0,2.0,0.0,5.0,5.0,735.3607430000011,3.0,1.0,phase_2,go,450.0,450.0,1.0,,,,,,,,,green,square
0.0,6.0,2.0,1.0,6.0,6.0,296.9718399999692,3.0,1.0,phase_2,stop,450.0,450.0,3.0,,,,,,,,,blue,flipped triangle
0.0,8.0,4.0,1.0,6.0,0.0,0.0,3.0,1.0,phase_2,stop,450.0,400.0,4.0,,,,,,,,,cyan,I
0.0,1.0,1.0,0.0,6.0,6.0,671.1296050002602,3.0,1.0,phase_2,go,450.0,450.0,1.0,,,,,,,,,yellow,diamond
0.0,1.0,1.0,0.0,6.0,6.0,922.9832670002908,3.0,1.0,phase_2,go,450.0,450.0,1.0,,,,,,,,,yellow,diamond
0.0,7.0,3.0,1.0,6.0,0.0,0.0,3.0,1.0,phase_2,stop,450.0,450.0,4.0,,,,,,,,,magenta,hexagon
0.0,1.0,1.0,0.0,5.0,5.0,644.0408670000579,3.0,1.0,phase_2,go,450.0,500.0,1.0,,,,,,,,,yellow,diamond
0.0,8.0,4.0,1.0,6.0,6.0,736.8528570000308,3.0,1.0,phase_2,go,450.0,500.0,1.0,,,,,,,,,cyan,I
0.0,8.0,4.0,1.0,6.0,0.0,0.0,3.0,1.0,phase_2,stop,450.0,500.0,4.0,,,,,,,,,cyan,I
0.0,3.0,3.0,0.0,5.0,5.0,744.6503639998809,3.0,1.0,phase_2,go,450.0,550.0,1.0,,,,,,,,,orange,cross
0.0,8.0,4.0,1.0,6.0,0.0,0.0,3.0,1.0,phase_2,stop,450.0,550.0,4.0,,,,,,,,,cyan,I
0.0,4.0,4.0,0.0,5.0,5.0,590.4938060002678,3.0,1.0,phase_2,go,450.0,600.0,1.0,,,,,,,,,gray,triangle
0.0,8.0,4.0,1.0,5.0,0.0,0.0,3.0,1.0,phase_2,stop,450.0,600.0,4.0,,,,,,,,,cyan,I
0.0,3.0,3.0,0.0,6.0,6.0,693.1709810000939,3.0,1.0,phase_2,go,500.0,600.0,1.0,,,,,,,,,orange,cross
0.0,7.0,3.0,1.0,6.0,6.0,1000.9657330001571,3.0,1.0,phase_2,go,500.0,600.0,1.0,,,,,,,,,magenta,hexagon
0.0,7.0,3.0,1.0,6.0,6.0,736.0771250000653,3.0,1.0,phase_2,stop,500.0,600.0,3.0,,,,,,,,,magenta,hexagon
0.0,1.0,1.0,0.0,5.0,5.0,683.6128420000023,3.0,1.0,phase_2,go,500.0,550.0,1.0,,,,,,,,,yellow,diamond
0.0,2.0,2.0,0.0,6.0,6.0,474.0353019997201,4.0,1.0,phase_2,go,500.0,550.0,1.0,,,,,,,,,green,square
0.0,4.0,4.0,0.0,6.0,6.0,329.2682089995651,4.0,1.0,phase_2,go,500.0,550.0,1.0,,,,,,,,,gray,triangle
0.0,1.0,1.0,0.0,5.0,5.0,267.9980839993732,4.0,1.0,phase_2,go,500.0,550.0,1.0,,,,,,,,,yellow,diamond
0.0,2.0,2.0,0.0,6.0,6.0,540.1375000001281,4.0,1.0,phase_2,go,500.0,550.0,1.0,,,,,,,,,green,square
0.0,7.0,3.0,1.0,6.0,6.0,512.6826260002417,4.0,1.0,phase_2,stop,500.0,550.0,3.0,,,,,,,,,magenta,hexagon
0.0,3.0,3.0,0.0,6.0,6.0,510.48372400055086,4.0,1.0,phase_2,go,500.0,500.0,1.0,,,,,,,,,orange,cross
0.0,3.0,3.0,0.0,6.0,6.0,292.3220540005786,4.0,1.0,phase_2,go,500.0,500.0,1.0,,,,,,,,,orange,cross
0.0,6.0,2.0,1.0,5.0,5.0,489.7010679997038,4.0,1.0,phase_2,stop,500.0,500.0,3.0,,,,,,,,,blue,flipped triangle
0.0,6.0,2.0,1.0,5.0,5.0,555.0522900002761,4.0,1.0,phase_2,go,450.0,500.0,1.0,,,,,,,,,blue,flipped triangle
0.0,2.0,2.0,0.0,5.0,5.0,560.8041129999037,4.0,1.0,phase_2,go,450.0,500.0,1.0,,,,,,,,,green,square
0.0,8.0,4.0,1.0,6.0,0.0,0.0,4.0,1.0,phase_2,stop,450.0,500.0,4.0,,,,,,,,,cyan,I
0.0,3.0,3.0,0.0,6.0,6.0,606.4543259999482,4.0,1.0,phase_2,go,450.0,550.0,1.0,,,,,,,,,orange,cross
0.0,8.0,4.0,1.0,6.0,0.0,0.0,4.0,1.0,phase_2,stop,450.0,550.0,4.0,,,,,,,,,cyan,I
0.0,4.0,4.0,0.0,6.0,6.0,600.4672460003349,4.0,1.0,phase_2,go,450.0,600.0,1.0,,,,,,,,,gray,triangle
0.0,2.0,2.0,0.0,5.0,5.0,549.8588000000382,4.0,1.0,phase_2,go,450.0,600.0,1.0,,,,,,,,,green,square
0.0,4.0,4.0,0.0,5.0,5.0,612.4809530001585,4.0,1.0,phase_2,go,450.0,600.0,1.0,,,,,,,,,gray,triangle
0.0,6.0,2.0,1.0,6.0,6.0,679.7399920005773,4.0,1.0,phase_2,stop,450.0,600.0,3.0,,,,,,,,,blue,flipped triangle
0.0,6.0,2.0,1.0,6.0,6.0,686.980613999367,4.0,1.0,phase_2,stop,450.0,550.0,3.0,,,,,,,,,blue,flipped triangle
0.0,5.0,1.0,1.0,6.0,0.0,0.0,4.0,1.0,phase_2,stop,450.0,500.0,4.0,,,,,,,,,white,circle
0.0,4.0,4.0,0.0,6.0,6.0,726.4132529999188,4.0,1.0,phase_2,go,450.0,550.0,1.0,,,,,,,,,gray,triangle
0.0,6.0,2.0,1.0,6.0,0.0,0.0,4.0,1.0,phase_2,stop,450.0,550.0,4.0,,,,,,,,,blue,flipped triangle
0.0,4.0,4.0,0.0,5.0,5.0,582.6797729996542,4.0,1.0,phase_2,go,450.0,600.0,1.0,,,,,,,,,gray,triangle
0.0,1.0,1.0,0.0,5.0,5.0,674.0950889998203,4.0,1.0,phase_2,go,450.0,600.0,1.0,,,,,,,,,yellow,diamond
0.0,8.0,4.0,1.0,6.0,6.0,722.0949679995101,4.0,1.0,phase_2,stop,450.0,600.0,3.0,,,,,,,,,cyan,I
0.0,6.0,2.0,1.0,5.0,0.0,0.0,4.0,1.0,phase_2,stop,450.0,550.0,4.0,,,,,,,,,blue,flipped triangle
0.0,5.0,1.0,1.0,5.0,0.0,0.0,4.0,1.0,phase_2,stop,500.0,550.0,4.0,,,,,,,,,white,circle
0.0,3.0,3.0,0.0,5.0,5.0,795.7506909997392,4.0,1.0,phase_2,go,550.0,550.0,1.0,,,,,,,,,orange,cross
0.0,4.0,4.0,0.0,6.0,6.0,729.818704000536,4.0,1.0,phase_2,go,550.0,550.0,1.0,,,,,,,,,gray,triangle
0.0,3.0,3.0,0.0,5.0,5.0,720.1683319999574,4.0,1.0,phase_2,go,550.0,550.0,1.0,,,,,,,,,orange,cross
0.0,1.0,1.0,0.0,6.0,6.0,956.2853930001438,4.0,1.0,phase_2,go,550.0,550.0,1.0,,,,,,,,,yellow,diamond
0.0,7.0,3.0,1.0,5.0,5.0,907.6495189992784,4.0,1.0,phase_2,go,550.0,550.0,1.0,,,,,,,,,magenta,hexagon
0.0,4.0,4.0,0.0,5.0,5.0,832.8113910001775,4.0,1.0,phase_2,go,550.0,550.0,1.0,,,,,,,,,gray,triangle
0.0,6.0,2.0,1.0,6.0,6.0,626.1057669998991,4.0,1.0,phase_2,go,550.0,550.0,1.0,,,,,,,,,blue,flipped triangle
0.0,5.0,1.0,1.0,6.0,6.0,675.4167890003373,4.0,1.0,phase_2,stop,550.0,550.0,3.0,,,,,,,,,white,circle
0.0,6.0,2.0,1.0,5.0,5.0,483.2475980001618,4.0,1.0,phase_2,stop,550.0,500.0,3.0,,,,,,,,,blue,flipped triangle
0.0,1.0,1.0,0.0,6.0,6.0,673.2662439999331,4.0,1.0,phase_2,go,500.0,500.0,1.0,,,,,,,,,yellow,diamond
0.0,6.0,2.0,1.0,5.0,5.0,670.9583710007792,5.0,1.0,phase_2,stop,500.0,500.0,3.0,,,,,,,,,blue,flipped triangle
0.0,2.0,2.0,0.0,5.0,5.0,469.8052610001468,5.0,1.0,phase_2,go,450.0,500.0,1.0,,,,,,,,,green,square
0.0,4.0,4.0,0.0,5.0,5.0,573.2547030002024,5.0,1.0,phase_2,go,450.0,500.0,1.0,,,,,,,,,gray,triangle
0.0,7.0,3.0,1.0,5.0,5.0,594.3129540000882,5.0,1.0,phase_2,go,450.0,500.0,1.0,,,,,,,,,magenta,hexagon
0.0,6.0,2.0,1.0,5.0,5.0,562.5927270002649,5.0,1.0,phase_2,go,450.0,500.0,1.0,,,,,,,,,blue,flipped triangle
0.0,8.0,4.0,1.0,6.0,6.0,602.8000189999148,5.0,1.0,phase_2,go,450.0,500.0,1.0,,,,,,,,,cyan,I
0.0,6.0,2.0,1.0,6.0,6.0,631.7914379997092,5.0,1.0,phase_2,stop,450.0,500.0,3.0,,,,,,,,,blue,flipped triangle
0.0,2.0,2.0,0.0,6.0,6.0,716.7196370000966,5.0,1.0,phase_2,go,450.0,450.0,1.0,,,,,,,,,green,square
0.0,7.0,3.0,1.0,6.0,0.0,0.0,5.0,1.0,phase_2,stop,450.0,450.0,4.0,,,,,,,,,magenta,hexagon
0.0,3.0,3.0,0.0,5.0,5.0,510.115766999661,5.0,1.0,phase_2,go,450.0,500.0,1.0,,,,,,,,,orange,cross
0.0,6.0,2.0,1.0,6.0,0.0,0.0,5.0,1.0,phase_2,stop,450.0,500.0,4.0,,,,,,,,,blue,flipped triangle
0.0,8.0,4.0,1.0,6.0,6.0,597.7523399997153,5.0,1.0,phase_2,stop,450.0,550.0,3.0,,,,,,,,,cyan,I
0.0,2.0,2.0,0.0,6.0,6.0,546.8859200000225,5.0,1.0,phase_2,go,450.0,500.0,1.0,,,,,,,,,green,square
0.0,4.0,4.0,0.0,5.0,5.0,545.1489910001328,5.0,1.0,phase_2,go,450.0,500.0,1.0,,,,,,,,,gray,triangle
0.0,6.0,2.0,1.0,6.0,6.0,521.9836429996576,5.0,1.0,phase_2,go,450.0,500.0,1.0,,,,,,,,,blue,flipped triangle
0.0,8.0,4.0,1.0,5.0,0.0,0.0,5.0,1.0,phase_2,stop,450.0,500.0,4.0,,,,,,,,,cyan,I
0.0,7.0,3.0,1.0,5.0,5.0,447.890421000011,5.0,1.0,phase_2,stop,500.0,500.0,3.0,,,,,,,,,magenta,hexagon
0.0,1.0,1.0,0.0,6.0,6.0,887.0702369995342,5.0,1.0,phase_2,go,450.0,500.0,1.0,,,,,,,,,yellow,diamond
0.0,8.0,4.0,1.0,5.0,0.0,0.0,5.0,1.0,phase_2,stop,450.0,500.0,4.0,,,,,,,,,cyan,I
0.0,2.0,2.0,0.0,6.0,6.0,521.5199340000254,5.0,1.0,phase_2,go,500.0,500.0,1.0,,,,,,,,,green,square
0.0,4.0,4.0,0.0,5.0,5.0,687.3645839996243,5.0,1.0,phase_2,go,500.0,500.0,1.0,,,,,,,,,gray,triangle
0.0,2.0,2.0,0.0,6.0,6.0,707.5300670003344,5.0,1.0,phase_2,go,500.0,500.0,1.0,,,,,,,,,green,square
0.0,2.0,2.0,0.0,5.0,5.0,661.9623870001305,5.0,1.0,phase_2,go,500.0,500.0,1.0,,,,,,,,,green,square
0.0,8.0,4.0,1.0,5.0,0.0,0.0,5.0,1.0,phase_2,stop,500.0,500.0,4.0,,,,,,,,,cyan,I
0.0,5.0,1.0,1.0,5.0,5.0,396.042524999757,5.0,1.0,phase_2,go,550.0,500.0,1.0,,,,,,,,,white,circle
0.0,4.0,4.0,0.0,6.0,6.0,529.145053999855,5.0,1.0,phase_2,go,550.0,500.0,1.0,,,,,,,,,gray,triangle
0.0,2.0,2.0,0.0,5.0,5.0,439.681453999583,5.0,1.0,phase_2,go,550.0,500.0,1.0,,,,,,,,,green,square
0.0,4.0,4.0,0.0,5.0,5.0,553.3548699995663,5.0,1.0,phase_2,go,550.0,500.0,1.0,,,,,,,,,gray,triangle
0.0,1.0,1.0,0.0,5.0,5.0,560.749410000426,5.0,1.0,phase_2,go,550.0,500.0,1.0,,,,,,,,,yellow,diamond
0.0,3.0,3.0,0.0,5.0,5.0,481.4229539997541,5.0,1.0,phase_2,go,550.0,500.0,1.0,,,,,,,,,orange,cross
0.0,6.0,2.0,1.0,6.0,6.0,617.8625969996574,5.0,1.0,phase_2,stop,550.0,500.0,3.0,,,,,,,,,blue,flipped triangle
0.0,5.0,1.0,1.0,5.0,0.0,0.0,5.0,1.0,phase_2,stop,550.0,450.0,4.0,,,,,,,,,white,circle
0.0,8.0,4.0,1.0,6.0,6.0,539.7664209995128,5.0,1.0,phase_2,go,600.0,450.0,1.0,,,,,,,,,cyan,I
0.0,8.0,4.0,1.0,5.0,5.0,650.1336710007308,5.0,1.0,phase_2,go,600.0,450.0,1.0,,,,,,,,,cyan,I
0.0,7.0,3.0,1.0,5.0,5.0,599.5946000002732,5.0,1.0,phase_2,stop,600.0,450.0,3.0,,,,,,,,,magenta,hexagon
0.0,6.0,2.0,1.0,5.0,0.0,0.0,5.0,1.0,phase_2,stop,550.0,450.0,4.0,,,,,,,,,blue,flipped triangle
0.0,8.0,4.0,1.0,6.0,6.0,586.7404250002437,6.0,1.0,phase_2,stop,600.0,450.0,3.0,,,,,,,,,cyan,I
0.0,3.0,3.0,0.0,6.0,6.0,511.6067330000078,6.0,1.0,phase_2,go,600.0,400.0,1.0,,,,,,,,,orange,cross
0.0,6.0,2.0,1.0,6.0,6.0,326.8062060005832,6.0,1.0,phase_2,stop,600.0,400.0,3.0,,,,,,,,,blue,flipped triangle
0.0,8.0,4.0,1.0,5.0,5.0,613.0922640004428,6.0,1.0,phase_2,go,600.0,350.0,1.0,,,,,,,,,cyan,I
0.0,7.0,3.0,1.0,5.0,5.0,557.652008000332,6.0,1.0,phase_2,stop,600.0,350.0,3.0,,,,,,,,,magenta,hexagon
0.0,3.0,3.0,0.0,6.0,6.0,642.3188990002018,6.0,1.0,phase_2,go,550.0,350.0,1.0,,,,,,,,,orange,cross
0.0,3.0,3.0,0.0,6.0,6.0,621.7402990005212,6.0,1.0,phase_2,go,550.0,350.0,1.0,,,,,,,,,orange,cross
0.0,8.0,4.0,1.0,5.0,5.0,713.5130050000953,6.0,1.0,phase_2,stop,550.0,350.0,3.0,,,,,,,,,cyan,I
0.0,5.0,1.0,1.0,5.0,5.0,556.4358109995737,6.0,1.0,phase_2,stop,500.0,350.0,3.0,,,,,,,,,white,circle
0.0,5.0,1.0,1.0,5.0,5.0,999.380447000476,6.0,1.0,phase_2,go,450.0,350.0,1.0,,,,,,,,,white,circle
0.0,7.0,3.0,1.0,6.0,6.0,1263.525475000279,6.0,1.0,phase_2,go,450.0,350.0,1.0,,,,,,,,,magenta,hexagon
0.0,3.0,3.0,0.0,6.0,6.0,683.9787680000882,6.0,1.0,phase_2,go,450.0,350.0,1.0,,,,,,,,,orange,cross
0.0,4.0,4.0,0.0,5.0,5.0,570.0840750005227,6.0,1.0,phase_2,go,450.0,350.0,1.0,,,,,,,,,gray,triangle
0.0,1.0,1.0,0.0,6.0,6.0,740.3390449999279,6.0,1.0,phase_2,go,450.0,350.0,1.0,,,,,,,,,yellow,diamond
0.0,8.0,4.0,1.0,6.0,0.0,0.0,6.0,1.0,phase_2,stop,450.0,350.0,4.0,,,,,,,,,cyan,I
0.0,5.0,1.0,1.0,6.0,0.0,0.0,6.0,1.0,phase_2,stop,450.0,400.0,4.0,,,,,,,,,white,circle
0.0,4.0,4.0,0.0,6.0,6.0,621.7443610003102,6.0,1.0,phase_2,go,450.0,450.0,1.0,,,,,,,,,gray,triangle
0.0,7.0,3.0,1.0,5.0,0.0,0.0,6.0,1.0,phase_2,stop,450.0,450.0,4.0,,,,,,,,,magenta,hexagon
0.0,1.0,1.0,0.0,6.0,6.0,694.912929999191,6.0,1.0,phase_2,go,500.0,450.0,1.0,,,,,,,,,yellow,diamond
0.0,7.0,3.0,1.0,6.0,0.0,0.0,6.0,1.0,phase_2,stop,500.0,450.0,4.0,,,,,,,,,magenta,hexagon
0.0,2.0,2.0,0.0,5.0,5.0,558.3246739997776,6.0,1.0,phase_2,go,500.0,500.0,1.0,,,,,,,,,green,square
0.0,1.0,1.0,0.0,6.0,6.0,654.6887399999832,6.0,1.0,phase_2,go,500.0,500.0,1.0,,,,,,,,,yellow,diamond
0.0,7.0,3.0,1.0,6.0,0.0,0.0,6.0,1.0,phase_2,stop,500.0,500.0,4.0,,,,,,,,,magenta,hexagon
0.0,4.0,4.0,0.0,5.0,5.0,635.8329009999579,6.0,1.0,phase_2,go,500.0,550.0,1.0,,,,,,,,,gray,triangle
0.0,3.0,3.0,0.0,6.0,6.0,709.9980079992747,6.0,1.0,phase_2,go,500.0,550.0,1.0,,,,,,,,,orange,cross
0.0,4.0,4.0,0.0,5.0,5.0,704.0663710004083,6.0,1.0,phase_2,go,500.0,550.0,1.0,,,,,,,,,gray,triangle
0.0,6.0,2.0,1.0,6.0,0.0,0.0,6.0,1.0,phase_2,stop,500.0,550.0,4.0,,,,,,,,,blue,flipped triangle
0.0,5.0,1.0,1.0,6.0,0.0,0.0,6.0,1.0,phase_2,stop,500.0,600.0,4.0,,,,,,,,,white,circle
0.0,5.0,1.0,1.0,5.0,0.0,0.0,6.0,1.0,phase_2,stop,500.0,650.0,4.0,,,,,,,,,white,circle
0.0,1.0,1.0,0.0,5.0,5.0,734.680020000269,6.0,1.0,phase_2,go,550.0,650.0,1.0,,,,,,,,,yellow,diamond
0.0,8.0,4.0,1.0,5.0,0.0,0.0,6.0,1.0,phase_2,stop,550.0,650.0,4.0,,,,,,,,,cyan,I
0.0,3.0,3.0,0.0,5.0,5.0,613.9986890002547,6.0,1.0,phase_2,go,600.0,650.0,1.0,,,,,,,,,orange,cross
0.0,6.0,2.0,1.0,6.0,0.0,0.0,6.0,1.0,phase_2,stop,600.0,650.0,4.0,,,,,,,,,blue,flipped triangle
0.0,3.0,3.0,0.0,6.0,6.0,658.6098009993293,6.0,1.0,phase_2,go,600.0,700.0,1.0,,,,,,,,,orange,cross
0.0,3.0,3.0,0.0,5.0,5.0,654.4972029996643,6.0,1.0,phase_2,go,600.0,700.0,1.0,,,,,,,,,orange,cross
0.0,4.0,4.0,0.0,5.0,5.0,757.01564100018,6.0,1.0,phase_2,go,600.0,700.0,1.0,,,,,,,,,gray,triangle
0.0,3.0,3.0,0.0,5.0,5.0,733.5870839997369,7.0,1.0,phase_2,go,600.0,700.0,1.0,,,,,,,,,orange,cross
0.0,2.0,2.0,0.0,6.0,6.0,318.3802769999602,7.0,1.0,phase_2,go,600.0,700.0,1.0,,,,,,,,,green,square
0.0,1.0,1.0,0.0,5.0,5.0,522.289462000117,7.0,1.0,phase_2,go,600.0,700.0,1.0,,,,,,,,,yellow,diamond
0.0,8.0,4.0,1.0,5.0,5.0,699.0719000004901,7.0,1.0,phase_2,stop,600.0,700.0,3.0,,,,,,,,,cyan,I
0.0,4.0,4.0,0.0,6.0,6.0,509.4184409999798,7.0,1.0,phase_2,go,550.0,700.0,1.0,,,,,,,,,gray,triangle
0.0,5.0,1.0,1.0,6.0,6.0,660.8179430004384,7.0,1.0,phase_2,stop,550.0,700.0,3.0,,,,,,,,,white,circle
0.0,1.0,1.0,0.0,5.0,5.0,723.8865240005907,7.0,1.0,phase_2,go,550.0,650.0,1.0,,,,,,,,,yellow,diamond
0.0,5.0,1.0,1.0,6.0,0.0,0.0,7.0,1.0,phase_2,stop,550.0,650.0,4.0,,,,,,,,,white,circle
0.0,1.0,1.0,0.0,6.0,6.0,727.8612119998797,7.0,1.0,phase_2,go,550.0,700.0,1.0,,,,,,,,,yellow,diamond
0.0,3.0,3.0,0.0,5.0,5.0,683.440339000299,7.0,1.0,phase_2,go,550.0,700.0,1.0,,,,,,,,,orange,cross
0.0,7.0,3.0,1.0,5.0,0.0,0.0,7.0,1.0,phase_2,stop,550.0,700.0,4.0,,,,,,,,,magenta,hexagon
0.0,6.0,2.0,1.0,6.0,6.0,683.6571920002825,7.0,1.0,phase_2,stop,600.0,700.0,3.0,,,,,,,,,blue,flipped triangle
0.0,7.0,3.0,1.0,5.0,5.0,946.7137579995324,7.0,1.0,phase_2,go,600.0,650.0,1.0,,,,,,,,,magenta,hexagon
0.0,3.0,3.0,0.0,5.0,5.0,615.2858119994562,7.0,1.0,phase_2,go,600.0,650.0,1.0,,,,,,,,,orange,cross
0.0,6.0,2.0,1.0,6.0,0.0,0.0,7.0,1.0,phase_2,stop,600.0,650.0,4.0,,,,,,,,,blue,flipped triangle
0.0,6.0,2.0,1.0,6.0,0.0,0.0,7.0,1.0,phase_2,stop,600.0,700.0,4.0,,,,,,,,,blue,flipped triangle
0.0,1.0,1.0,0.0,5.0,5.0,702.8590619993338,7.0,1.0,phase_2,go,600.0,750.0,1.0,,,,,,,,,yellow,diamond
0.0,5.0,1.0,1.0,5.0,0.0,0.0,7.0,1.0,phase_2,stop,600.0,750.0,4.0,,,,,,,,,white,circle
0.0,7.0,3.0,1.0,5.0,5.0,697.7144089996727,7.0,1.0,phase_2,stop,650.0,750.0,3.0,,,,,,,,,magenta,hexagon
0.0,5.0,1.0,1.0,6.0,6.0,953.2194129997152,7.0,1.0,phase_2,go,600.0,750.0,1.0,,,,,,,,,white,circle
0.0,4.0,4.0,0.0,5.0,5.0,590.2708249996067,7.0,1.0,phase_2,go,600.0,750.0,1.0,,,,,,,,,gray,triangle
0.0,2.0,2.0,0.0,6.0,6.0,516.6799309999988,7.0,1.0,phase_2,go,600.0,750.0,1.0,,,,,,,,,green,square
0.0,1.0,1.0,0.0,6.0,6.0,589.5878829996946,7.0,1.0,phase_2,go,600.0,750.0,1.0,,,,,,,,,yellow,diamond
0.0,4.0,4.0,0.0,6.0,6.0,785.4520359996968,7.0,1.0,phase_2,go,600.0,750.0,1.0,,,,,,,,,gray,triangle
0.0,1.0,1.0,0.0,6.0,6.0,495.0876029997744,7.0,1.0,phase_2,go,600.0,750.0,1.0,,,,,,,,,yellow,diamond
0.0,7.0,3.0,1.0,6.0,6.0,983.6579869997876,7.0,1.0,phase_2,go,600.0,750.0,1.0,,,,,,,,,magenta,hexagon
0.0,2.0,2.0,0.0,6.0,6.0,524.0914749992953,7.0,1.0,phase_2,go,600.0,750.0,1.0,,,,,,,,,green,square
0.0,8.0,4.0,1.0,6.0,0.0,0.0,7.0,1.0,phase_2,stop,600.0,750.0,4.0,,,,,,,,,cyan,I
0.0,1.0,1.0,0.0,6.0,6.0,626.5076130002853,7.0,1.0,phase_2,go,600.0,800.0,1.0,,,,,,,,,yellow,diamond
0.0,7.0,3.0,1.0,6.0,6.0,843.3560289995512,7.0,1.0,phase_2,stop,600.0,800.0,3.0,,,,,,,,,magenta,hexagon
0.0,2.0,2.0,0.0,6.0,6.0,741.255922000164,7.0,1.0,phase_2,go,600.0,750.0,1.0,,,,,,,,,green,square
0.0,3.0,3.0,0.0,5.0,5.0,706.9130509999013,7.0,1.0,phase_2,go,600.0,750.0,1.0,,,,,,,,,orange,cross
0.0,8.0,4.0,1.0,5.0,0.0,0.0,7.0,1.0,phase_2,stop,600.0,750.0,4.0,,,,,,,,,cyan,I
0.0,4.0,4.0,0.0,6.0,6.0,504.5637760003956,7.0,1.0,phase_2,go,650.0,750.0,1.0,,,,,,,,,gray,triangle
0.0,5.0,1.0,1.0,6.0,6.0,817.361376000008,7.0,1.0,phase_2,stop,650.0,750.0,3.0,,,,,,,,,white,circle
0.0,8.0,4.0,1.0,5.0,0.0,0.0,7.0,1.0,phase_2,stop,650.0,700.0,4.0,,,,,,,,,cyan,I
0.0,3.0,3.0,0.0,5.0,5.0,411.3715699995737,8.0,1.0,phase_2,go,700.0,700.0,1.0,,,,,,,,,orange,cross
0.0,4.0,4.0,0.0,6.0,6.0,447.3471399996924,8.0,1.0,phase_2,go,700.0,700.0,1.0,,,,,,,,,gray,triangle
0.0,3.0,3.0,0.0,6.0,6.0,338.7522369994258,8.0,1.0,phase_2,go,700.0,700.0,1.0,,,,,,,,,orange,cross
0.0,7.0,3.0,1.0,5.0,5.0,317.3340879993702,8.0,1.0,phase_2,stop,700.0,700.0,3.0,,,,,,,,,magenta,hexagon
0.0,5.0,1.0,1.0,5.0,5.0,616.7484350007726,8.0,1.0,phase_2,go,650.0,700.0,1.0,,,,,,,,,white,circle
0.0,3.0,3.0,0.0,5.0,5.0,421.8175419991894,8.0,1.0,phase_2,go,650.0,700.0,1.0,,,,,,,,,orange,cross
0.0,3.0,3.0,0.0,6.0,6.0,298.0447270001605,8.0,1.0,phase_2,go,650.0,700.0,1.0,,,,,,,,,orange,cross
0.0,3.0,3.0,0.0,6.0,6.0,459.3813450001107,8.0,1.0,phase_2,go,650.0,700.0,1.0,,,,,,,,,orange,cross
0.0,4.0,4.0,0.0,6.0,6.0,487.4361100000897,8.0,1.0,phase_2,go,650.0,700.0,1.0,,,,,,,,,gray,triangle
0.0,1.0,1.0,0.0,6.0,6.0,336.1770910005361,8.0,1.0,phase_2,go,650.0,700.0,1.0,,,,,,,,,yellow,diamond
0.0,8.0,4.0,1.0,6.0,6.0,312.0444700007283,8.0,1.0,phase_2,stop,650.0,700.0,3.0,,,,,,,,,cyan,I
0.0,4.0,4.0,0.0,6.0,6.0,462.7100170000631,8.0,1.0,phase_2,go,650.0,650.0,1.0,,,,,,,,,gray,triangle
0.0,1.0,1.0,0.0,5.0,5.0,456.0614949996306,8.0,1.0,phase_2,go,650.0,650.0,1.0,,,,,,,,,yellow,diamond
0.0,2.0,2.0,0.0,5.0,5.0,395.3949220003778,8.0,1.0,phase_2,go,650.0,650.0,1.0,,,,,,,,,green,square
0.0,6.0,2.0,1.0,5.0,5.0,761.424100000113,8.0,1.0,phase_2,stop,650.0,650.0,3.0,,,,,,,,,blue,flipped triangle
0.0,8.0,4.0,1.0,6.0,0.0,0.0,8.0,1.0,phase_2,stop,600.0,650.0,4.0,,,,,,,,,cyan,I
0.0,2.0,2.0,0.0,5.0,5.0,774.5312770002784,8.0,1.0,phase_2,go,600.0,700.0,1.0,,,,,,,,,green,square
0.0,6.0,2.0,1.0,5.0,0.0,0.0,8.0,1.0,phase_2,stop,600.0,700.0,4.0,,,,,,,,,blue,flipped triangle
0.0,6.0,2.0,1.0,5.0,0.0,0.0,8.0,1.0,phase_2,stop,650.0,700.0,4.0,,,,,,,,,blue,flipped triangle
0.0,2.0,2.0,0.0,6.0,6.0,488.1267999999181,8.0,1.0,phase_2,go,700.0,700.0,1.0,,,,,,,,,green,square
0.0,8.0,4.0,1.0,5.0,0.0,0.0,8.0,1.0,phase_2,stop,700.0,700.0,4.0,,,,,,,,,cyan,I
0.0,8.0,4.0,1.0,5.0,5.0,889.3017520003923,8.0,1.0,phase_2,stop,750.0,700.0,3.0,,,,,,,,,cyan,I
0.0,1.0,1.0,0.0,5.0,5.0,588.7253270002475,8.0,1.0,phase_2,go,700.0,700.0,1.0,,,,,,,,,yellow,diamond
0.0,1.0,1.0,0.0,5.0,5.0,492.4554149993128,8.0,1.0,phase_2,go,700.0,700.0,1.0,,,,,,,,,yellow,diamond
0.0,4.0,4.0,0.0,6.0,6.0,599.6439310001733,8.0,1.0,phase_2,go,700.0,700.0,1.0,,,,,,,,,gray,triangle
0.0,7.0,3.0,1.0,6.0,0.0,0.0,8.0,1.0,phase_2,stop,700.0,700.0,4.0,,,,,,,,,magenta,hexagon
0.0,8.0,4.0,1.0,5.0,5.0,1046.6636900000594,8.0,1.0,phase_2,go,700.0,750.0,1.0,,,,,,,,,cyan,I
0.0,4.0,4.0,0.0,5.0,5.0,555.5842989997473,8.0,1.0,phase_2,go,700.0,750.0,1.0,,,,,,,,,gray,triangle
0.0,3.0,3.0,0.0,5.0,5.0,506.52561700007936,8.0,1.0,phase_2,go,700.0,750.0,1.0,,,,,,,,,orange,cross
0.0,7.0,3.0,1.0,6.0,6.0,841.048962000059,8.0,1.0,phase_2,stop,700.0,750.0,3.0,,,,,,,,,magenta,hexagon
0.0,4.0,4.0,0.0,5.0,5.0,461.0059260003254,8.0,1.0,phase_2,go,700.0,700.0,1.0,,,,,,,,,gray,triangle
0.0,8.0,4.0,1.0,5.0,5.0,859.9939960004122,8.0,1.0,phase_2,go,700.0,700.0,1.0,,,,,,,,,cyan,I
0.0,3.0,3.0,0.0,6.0,6.0,466.8426259995613,8.0,1.0,phase_2,go,700.0,700.0,1.0,,,,,,,,,orange,cross
0.0,5.0,1.0,1.0,6.0,0.0,0.0,8.0,1.0,phase_2,stop,700.0,700.0,4.0,,,,,,,,,white,circle
0.0,7.0,3.0,1.0,5.0,0.0,0.0,8.0,1.0,phase_2,stop,700.0,750.0,4.0,,,,,,,,,magenta,hexagon
0.0,2.0,2.0,0.0,6.0,6.0,528.0454909998298,8.0,1.0,phase_2,go,750.0,750.0,1.0,,,,,,,,,green,square
0.0,8.0,4.0,1.0,7.0,2.0,481.4948960001857,1.0,2.0,phase_3,,,,,462.0,3.0,616.0,462.0,770.0,924.0,308.0,154.0,cyan,I
0.0,3.0,3.0,0.0,7.0,4.0,3846.956085999409,1.0,1.0,phase_3,,,,,580.0,5.0,232.0,464.0,696.0,580.0,348.0,116.0,orange,cross
0.0,3.0,3.0,0.0,7.0,4.0,3093.412850999812,1.0,1.0,phase_3,,,,,580.0,5.0,116.0,696.0,348.0,580.0,232.0,464.0,orange,cross
0.0,4.0,4.0,0.0,7.0,3.0,3596.826554000472,1.0,1.0,phase_3,,,,,384.0,2.0,1152.0,576.0,384.0,960.0,768.0,192.0,gray,triangle
0.0,1.0,1.0,0.0,7.0,4.0,4817.505182000787,1.0,1.0,phase_3,,,,,580.0,5.0,464.0,348.0,232.0,580.0,116.0,696.0,yellow,diamond
0.0,6.0,2.0,1.0,7.0,3.0,3217.379522999181,1.0,1.0,phase_3,,,,,405.0,3.0,270.0,810.0,405.0,135.0,675.0,540.0,blue,flipped triangle
0.0,2.0,2.0,0.0,7.0,4.0,1643.7800249996144,1.0,1.0,phase_3,,,,,696.0,6.0,116.0,464.0,232.0,696.0,580.0,348.0,green,square
0.0,5.0,1.0,1.0,7.0,5.0,2755.587370000285,1.0,1.0,phase_3,,,,,1038.0,6.0,692.0,519.0,173.0,865.0,1038.0,346.0,white,circle
0.0,8.0,4.0,1.0,7.0,4.0,2320.5972619998647,1.0,1.0,phase_3,,,,,696.0,6.0,464.0,348.0,580.0,696.0,116.0,232.0,cyan,I
0.0,7.0,3.0,1.0,7.0,1.0,3433.23213199983,1.0,1.0,phase_3,,,,,270.0,2.0,270.0,135.0,540.0,405.0,675.0,810.0,magenta,hexagon
0.0,2.0,2.0,0.0,7.0,2.0,3065.7220439998127,1.0,1.0,phase_3,,,,,346.0,2.0,1038.0,346.0,865.0,519.0,173.0,692.0,green,square
0.0,3.0,3.0,0.0,7.0,6.0,3345.4759449996345,1.0,1.0,phase_3,,,,,405.0,3.0,135.0,810.0,540.0,270.0,675.0,405.0,orange,cross
0.0,7.0,3.0,1.0,7.0,3.0,3033.710562000124,1.0,1.0,phase_3,,,,,692.0,4.0,1038.0,865.0,692.0,346.0,173.0,519.0,magenta,hexagon
0.0,5.0,1.0,1.0,7.0,2.0,2381.8527409994203,1.0,1.0,phase_3,,,,,346.0,2.0,519.0,346.0,865.0,173.0,692.0,1038.0,white,circle
0.0,7.0,3.0,1.0,7.0,2.0,2686.441835999176,1.0,1.0,phase_3,,,,,924.0,6.0,462.0,924.0,770.0,154.0,308.0,616.0,magenta,hexagon
0.0,2.0,2.0,0.0,7.0,6.0,3480.5362239994797,1.0,1.0,phase_3,,,,,960.0,5.0,576.0,192.0,1152.0,384.0,768.0,960.0,green,square
0.0,3.0,3.0,0.0,7.0,1.0,2513.800770999296,1.0,1.0,phase_3,,,,,768.0,4.0,768.0,384.0,192.0,960.0,576.0,1152.0,orange,cross
0.0,6.0,2.0,1.0,7.0,2.0,1755.2285720003056,1.0,1.0,phase_3,,,,,384.0,2.0,960.0,384.0,576.0,192.0,768.0,1152.0,blue,flipped triangle
0.0,4.0,4.0,0.0,7.0,4.0,1195.7438839999668,1.0,1.0,phase_3,,,,,173.0,1.0,346.0,519.0,865.0,173.0,1038.0,692.0,gray,triangle
0.0,8.0,4.0,1.0,7.0,5.0,1670.440410000083,1.0,1.0,phase_3,,,,,810.0,6.0,405.0,270.0,675.0,135.0,810.0,540.0,cyan,I
0.0,8.0,4.0,1.0,7.0,2.0,2447.185648999948,2.0,1.0,phase_3,,,,,519.0,3.0,1038.0,519.0,692.0,173.0,865.0,346.0,cyan,I
0.0,5.0,1.0,1.0,7.0,5.0,1654.4082010004786,2.0,1.0,phase_3,,,,,270.0,2.0,810.0,135.0,405.0,675.0,270.0,540.0,white,circle
0.0,7.0,3.0,1.0,7.0,4.0,1793.7456070003464,2.0,1.0,phase_3,,,,,692.0,4.0,173.0,346.0,1038.0,692.0,519.0,865.0,magenta,hexagon
0.0,5.0,1.0,1.0,7.0,1.0,2240.2792459997727,2.0,1.0,phase_3,,,,,384.0,2.0,384.0,768.0,576.0,192.0,1152.0,960.0,white,circle
0.0,5.0,1.0,1.0,7.0,4.0,2635.3376030001527,2.0,1.0,phase_3,,,,,308.0,2.0,154.0,924.0,616.0,308.0,462.0,770.0,white,circle
0.0,7.0,3.0,1.0,7.0,1.0,2407.541225999921,2.0,1.0,phase_3,,,,,768.0,4.0,768.0,1152.0,576.0,192.0,960.0,384.0,magenta,hexagon
0.0,1.0,1.0,0.0,7.0,4.0,1837.7183319998949,2.0,1.0,phase_3,,,,,576.0,3.0,384.0,192.0,768.0,576.0,960.0,1152.0,yellow,diamond
0.0,2.0,2.0,0.0,7.0,3.0,2418.788042999949,2.0,1.0,phase_3,,,,,462.0,3.0,616.0,308.0,462.0,924.0,770.0,154.0,green,square
0.0,2.0,2.0,0.0,7.0,1.0,1777.3496470008467,2.0,1.0,phase_3,,,,,464.0,4.0,464.0,348.0,580.0,232.0,116.0,696.0,green,square
0.0,3.0,3.0,0.0,7.0,5.0,2579.723702999217,2.0,1.0,phase_3,,,,,924.0,6.0,154.0,770.0,308.0,616.0,924.0,462.0,orange,cross
0.0,5.0,1.0,1.0,7.0,1.0,1703.487982000297,2.0,1.0,phase_3,,,,,464.0,4.0,464.0,696.0,116.0,232.0,348.0,580.0,white,circle
0.0,8.0,4.0,1.0,7.0,2.0,1805.766281000615,2.0,1.0,phase_3,,,,,1038.0,6.0,173.0,1038.0,692.0,519.0,865.0,346.0,cyan,I
0.0,1.0,1.0,0.0,7.0,4.0,2258.788452999397,2.0,1.0,phase_3,,,,,675.0,5.0,540.0,810.0,270.0,675.0,135.0,405.0,yellow,diamond
0.0,8.0,4.0,1.0,7.0,5.0,2463.464816999476,2.0,1.0,phase_3,,,,,192.0,1.0,384.0,1152.0,576.0,960.0,192.0,768.0,cyan,I
0.0,6.0,2.0,1.0,7.0,6.0,2126.5920579999147,2.0,1.0,phase_3,,,,,192.0,1.0,1152.0,960.0,384.0,576.0,768.0,192.0,blue,flipped triangle
0.0,4.0,4.0,0.0,7.0,3.0,1444.956282000021,2.0,1.0,phase_3,,,,,384.0,2.0,960.0,576.0,384.0,768.0,1152.0,192.0,gray,triangle
0.0,1.0,1.0,0.0,7.0,4.0,2147.8539620002266,2.0,1.0,phase_3,,,,,348.0,3.0,696.0,464.0,116.0,348.0,232.0,580.0,yellow,diamond
0.0,4.0,4.0,0.0,7.0,2.0,1751.4291140005298,2.0,1.0,phase_3,,,,,135.0,1.0,405.0,135.0,675.0,540.0,270.0,810.0,gray,triangle
0.0,5.0,1.0,1.0,7.0,4.0,2467.784335000033,2.0,1.0,phase_3,,,,,192.0,1.0,960.0,576.0,768.0,192.0,1152.0,384.0,white,circle
0.0,7.0,3.0,1.0,7.0,5.0,1422.3765810002078,2.0,1.0,phase_3,,,,,924.0,6.0,462.0,308.0,770.0,154.0,924.0,616.0,magenta,hexagon
0.0,5.0,1.0,1.0,7.0,2.0,1796.0429209997528,3.0,1.0,phase_3,,,,,405.0,3.0,810.0,405.0,135.0,270.0,675.0,540.0,white,circle
0.0,6.0,2.0,1.0,7.0,4.0,1558.683229000053,3.0,1.0,phase_3,,,,,346.0,2.0,519.0,1038.0,865.0,346.0,692.0,173.0,blue,flipped triangle
0.0,2.0,2.0,0.0,7.0,5.0,2680.1837949997207,3.0,1.0,phase_3,,,,,1152.0,6.0,768.0,960.0,192.0,384.0,1152.0,576.0,green,square
0.0,8.0,4.0,1.0,7.0,4.0,1944.553096999698,3.0,1.0,phase_3,,,,,232.0,2.0,116.0,696.0,580.0,232.0,348.0,464.0,cyan,I
0.0,2.0,2.0,0.0,7.0,6.0,1812.410952999926,3.0,1.0,phase_3,,,,,692.0,4.0,346.0,173.0,1038.0,865.0,519.0,692.0,green,square
0.0,3.0,3.0,0.0,7.0,4.0,1414.687440000307,3.0,1.0,phase_3,,,,,173.0,1.0,865.0,519.0,1038.0,173.0,346.0,692.0,orange,cross
0.0,1.0,1.0,0.0,7.0,2.0,1264.9537800007238,3.0,1.0,phase_3,,,,,270.0,2.0,810.0,270.0,675.0,135.0,405.0,540.0,yellow,diamond
0.0,4.0,4.0,0.0,7.0,4.0,2069.5501780000995,3.0,1.0,phase_3,,,,,540.0,4.0,675.0,405.0,135.0,540.0,810.0,270.0,gray,triangle
0.0,4.0,4.0,0.0,7.0,5.0,1570.9594620002465,3.0,1.0,phase_3,,,,,924.0,6.0,616.0,462.0,308.0,770.0,924.0,154.0,gray,triangle
0.0,4.0,4.0,0.0,7.0,5.0,1422.003098999994,3.0,1.0,phase_3,,,,,692.0,4.0,519.0,1038.0,173.0,346.0,692.0,865.0,gray,triangle
0.0,7.0,3.0,1.0,7.0,5.0,1440.522902000339,3.0,1.0,phase_3,,,,,348.0,3.0,116.0,696.0,232.0,580.0,348.0,464.0,magenta,hexagon
0.0,1.0,1.0,0.0,7.0,6.0,1032.1669559998554,3.0,1.0,phase_3,,,,,346.0,2.0,173.0,519.0,1038.0,692.0,865.0,346.0,yellow,diamond
0.0,2.0,2.0,0.0,7.0,5.0,1886.4716389998648,3.0,1.0,phase_3,,,,,770.0,5.0,924.0,616.0,154.0,462.0,770.0,308.0,green,square
0.0,6.0,2.0,1.0,7.0,3.0,2315.5102020000413,3.0,1.0,phase_3,,,,,696.0,6.0,348.0,116.0,696.0,464.0,232.0,580.0,blue,flipped triangle
0.0,8.0,4.0,1.0,7.0,4.0,1104.308351000327,3.0,1.0,phase_3,,,,,1152.0,6.0,192.0,768.0,960.0,1152.0,576.0,384.0,cyan,I
0.0,1.0,1.0,0.0,7.0,5.0,1750.9521189995212,3.0,1.0,phase_3,,,,,770.0,5.0,616.0,154.0,924.0,308.0,770.0,462.0,yellow,diamond
0.0,6.0,2.0,1.0,7.0,3.0,1053.4152609998273,3.0,1.0,phase_3,,,,,154.0,1.0,462.0,770.0,154.0,308.0,616.0,924.0,blue,flipped triangle
0.0,3.0,3.0,0.0,7.0,4.0,1320.7734850002453,3.0,1.0,phase_3,,,,,384.0,2.0,960.0,768.0,576.0,384.0,1152.0,192.0,orange,cross
0.0,3.0,3.0,0.0,7.0,3.0,1632.31868999992,3.0,1.0,phase_3,,,,,308.0,2.0,616.0,924.0,308.0,462.0,154.0,770.0,orange,cross
0.0,1.0,1.0,0.0,7.0,4.0,1010.3626860000077,3.0,1.0,phase_3,,,,,346.0,2.0,865.0,173.0,692.0,346.0,519.0,1038.0,yellow,diamond
0.0,5.0,1.0,1.0,7.0,4.0,701.4039069999853,4.0,1.0,phase_3,,,,,770.0,5.0,308.0,616.0,924.0,770.0,462.0,154.0,white,circle
0.0,2.0,2.0,0.0,7.0,2.0,1022.2292579992427,4.0,1.0,phase_3,,,,,135.0,1.0,405.0,135.0,540.0,675.0,270.0,810.0,green,square
0.0,6.0,2.0,1.0,7.0,3.0,1162.1623159999217,4.0,1.0,phase_3,,,,,308.0,2.0,924.0,770.0,308.0,462.0,616.0,154.0,blue,flipped triangle
0.0,3.0,3.0,0.0,7.0,4.0,1296.139714999299,4.0,1.0,phase_3,,,,,810.0,6.0,405.0,135.0,540.0,810.0,270.0,675.0,orange,cross
0.0,1.0,1.0,0.0,7.0,4.0,1098.536965000676,4.0,1.0,phase_3,,,,,924.0,6.0,308.0,770.0,616.0,924.0,154.0,462.0,yellow,diamond
0.0,6.0,2.0,1.0,7.0,3.0,1883.054463000008,4.0,1.0,phase_3,,,,,1038.0,6.0,865.0,692.0,1038.0,346.0,173.0,519.0,blue,flipped triangle
0.0,7.0,3.0,1.0,7.0,5.0,1681.728282000222,4.0,1.0,phase_3,,,,,540.0,4.0,135.0,810.0,675.0,270.0,540.0,405.0,magenta,hexagon
0.0,3.0,3.0,0.0,7.0,5.0,1380.368381000153,4.0,1.0,phase_3,,,,,346.0,2.0,1038.0,865.0,692.0,519.0,346.0,173.0,orange,cross
0.0,4.0,4.0,0.0,7.0,4.0,1306.6425059996618,4.0,1.0,phase_3,,,,,154.0,1.0,462.0,770.0,616.0,154.0,924.0,308.0,gray,triangle
0.0,6.0,2.0,1.0,7.0,3.0,1288.8092490002236,4.0,1.0,phase_3,,,,,348.0,3.0,580.0,232.0,348.0,696.0,116.0,464.0,blue,flipped triangle
0.0,4.0,4.0,0.0,7.0,3.0,1051.4108430006672,4.0,1.0,phase_3,,,,,116.0,1.0,464.0,580.0,116.0,232.0,348.0,696.0,gray,triangle
0.0,7.0,3.0,1.0,7.0,4.0,963.773012999809,4.0,1.0,phase_3,,,,,192.0,1.0,384.0,960.0,768.0,192.0,576.0,1152.0,magenta,hexagon
0.0,8.0,4.0,1.0,7.0,5.0,1052.0613159997083,4.0,1.0,phase_3,,,,,924.0,6.0,770.0,154.0,308.0,462.0,924.0,616.0,cyan,I
0.0,1.0,1.0,0.0,7.0,3.0,1085.1363580004545,4.0,1.0,phase_3,,,,,576.0,3.0,384.0,768.0,576.0,192.0,960.0,1152.0,yellow,diamond
0.0,6.0,2.0,1.0,7.0,4.0,590.3501029997642,4.0,1.0,phase_3,,,,,810.0,6.0,270.0,540.0,405.0,810.0,675.0,135.0,blue,flipped triangle
0.0,2.0,2.0,0.0,7.0,5.0,1112.864678999358,4.0,1.0,phase_3,,,,,540.0,4.0,405.0,810.0,675.0,270.0,540.0,135.0,green,square
0.0,7.0,3.0,1.0,7.0,2.0,1009.715905000121,4.0,1.0,phase_3,,,,,580.0,5.0,696.0,580.0,232.0,348.0,464.0,116.0,magenta,hexagon
0.0,5.0,1.0,1.0,7.0,3.0,1174.0786340005798,4.0,1.0,phase_3,,,,,348.0,3.0,580.0,464.0,348.0,232.0,116.0,696.0,white,circle
0.0,4.0,4.0,0.0,7.0,2.0,1493.8983489992097,4.0,1.0,phase_3,,,,,580.0,5.0,232.0,580.0,696.0,348.0,464.0,116.0,gray,triangle
0.0,8.0,4.0,1.0,7.0,5.0,1186.1268720003864,4.0,1.0,phase_3,,,,,810.0,6.0,405.0,270.0,135.0,675.0,810.0,540.0,cyan,I
