raw_reward_magnitude,stim_reward,stepwise_reward_magnitude,paired_with_stopping,quadrant,response,reaction_time,block,num_trial_presentations,which_part,stop_signal_trial_type,left_SSD,right_SSD,accuracy,chosen_bidding_amount,chosen_bidding_level,possible_bid_1,possible_bid_2,possible_bid_3,possible_bid_4,possible_bid_5,possible_bid_6,color_text,shape_text
334.0,2.0,2.0,0.0,1.0,1.0,421.4657330001046,1.0,1.0,part_1,,,,,,,,,,,,,gray,I
0.0,4.0,0.0,0.0,4.0,4.0,394.3300299999919,1.0,1.0,part_1,,,,,,,,,,,,,blue,cross
330.0,6.0,2.0,1.0,3.0,3.0,366.3844770001105,1.0,1.0,part_1,,,,,,,,,,,,,yellow,triangle
0.0,5.0,0.0,1.0,3.0,3.0,376.7026609998538,1.0,1.0,part_1,,,,,,,,,,,,,white,flipped triangle
330.0,2.0,2.0,0.0,1.0,1.0,365.7090730000618,1.0,1.0,part_1,,,,,,,,,,,,,gray,I
327.0,6.0,2.0,1.0,3.0,3.0,356.6293730000325,1.0,1.0,part_1,,,,,,,,,,,,,yellow,triangle
1283.0,4.0,4.0,0.0,4.0,4.0,281.0581710000406,1.0,1.0,part_1,,,,,,,,,,,,,blue,cross
337.0,6.0,2.0,1.0,1.0,1.0,309.3569909999587,1.0,1.0,part_1,,,,,,,,,,,,,yellow,triangle
0.0,1.0,0.0,0.0,1.0,1.0,375.4017670000849,1.0,1.0,part_1,,,,,,,,,,,,,cyan,diamond
1279.0,4.0,4.0,0.0,1.0,1.0,334.344566000027,1.0,1.0,part_1,,,,,,,,,,,,,blue,cross
638.0,7.0,3.0,1.0,1.0,1.0,385.5153490001157,1.0,1.0,part_1,,,,,,,,,,,,,green,circle
0.0,2.0,0.0,0.0,1.0,1.0,337.5275850000889,1.0,1.0,part_1,,,,,,,,,,,,,gray,I
668.0,7.0,3.0,1.0,3.0,3.0,318.9908509998531,1.0,1.0,part_1,,,,,,,,,,,,,green,circle
303.0,2.0,2.0,0.0,2.0,2.0,346.859405000032,1.0,1.0,part_1,,,,,,,,,,,,,gray,I
0.0,7.0,0.0,1.0,1.0,1.0,365.2178309998817,1.0,1.0,part_1,,,,,,,,,,,,,green,circle
342.0,2.0,2.0,0.0,1.0,1.0,374.812663999819,1.0,1.0,part_1,,,,,,,,,,,,,gray,I
641.0,7.0,3.0,1.0,2.0,2.0,355.6632540000919,1.0,1.0,part_1,,,,,,,,,,,,,green,circle
662.0,7.0,3.0,1.0,2.0,2.0,327.2379410000212,1.0,1.0,part_1,,,,,,,,,,,,,green,circle
656.0,3.0,3.0,0.0,3.0,3.0,477.8088279999792,1.0,1.0,part_1,,,,,,,,,,,,,orange,hexagon
628.0,7.0,3.0,1.0,3.0,3.0,366.1901610000768,1.0,1.0,part_1,,,,,,,,,,,,,green,circle
0.0,5.0,0.0,1.0,3.0,3.0,347.2530039998673,1.0,1.0,part_1,,,,,,,,,,,,,white,flipped triangle
333.0,2.0,2.0,0.0,2.0,2.0,347.7129529999274,1.0,1.0,part_1,,,,,,,,,,,,,gray,I
650.0,7.0,3.0,1.0,4.0,4.0,365.6251009999778,1.0,1.0,part_1,,,,,,,,,,,,,green,circle
625.0,3.0,3.0,0.0,2.0,2.0,291.1997569999585,1.0,1.0,part_1,,,,,,,,,,,,,orange,hexagon
669.0,3.0,3.0,0.0,1.0,1.0,318.1746319999092,1.0,1.0,part_1,,,,,,,,,,,,,orange,hexagon
341.0,6.0,2.0,1.0,2.0,2.0,338.1957540000258,1.0,1.0,part_1,,,,,,,,,,,,,yellow,triangle
148.0,1.0,1.0,0.0,2.0,2.0,318.5071660000176,1.0,1.0,part_1,,,,,,,,,,,,,cyan,diamond
639.0,3.0,3.0,0.0,1.0,1.0,319.0356749998955,1.0,1.0,part_1,,,,,,,,,,,,,orange,hexagon
171.0,1.0,1.0,0.0,4.0,4.0,403.1593869999597,1.0,2.0,part_1,,,,,,,,,,,,,cyan,diamond
154.0,5.0,1.0,1.0,2.0,2.0,356.3075819999994,1.0,1.0,part_1,,,,,,,,,,,,,white,flipped triangle
1302.0,8.0,4.0,1.0,3.0,3.0,347.4678640000093,1.0,1.0,part_1,,,,,,,,,,,,,magenta,square
0.0,1.0,0.0,0.0,4.0,4.0,304.8542119997819,1.0,1.0,part_1,,,,,,,,,,,,,cyan,diamond
0.0,8.0,0.0,1.0,3.0,3.0,318.7757990001501,1.0,1.0,part_1,,,,,,,,,,,,,magenta,square
180.0,5.0,1.0,1.0,4.0,4.0,319.4001290000869,1.0,1.0,part_1,,,,,,,,,,,,,white,flipped triangle
0.0,6.0,0.0,1.0,1.0,1.0,374.0582870000253,1.0,2.0,part_1,,,,,,,,,,,,,yellow,triangle
342.0,6.0,2.0,1.0,3.0,3.0,364.7919539998838,1.0,1.0,part_1,,,,,,,,,,,,,yellow,triangle
176.0,5.0,1.0,1.0,1.0,1.0,449.5721399998729,1.0,1.0,part_1,,,,,,,,,,,,,white,flipped triangle
0.0,4.0,0.0,0.0,1.0,1.0,441.533900999957,1.0,1.0,part_1,,,,,,,,,,,,,blue,cross
1308.0,8.0,4.0,1.0,1.0,1.0,317.8546770000139,1.0,1.0,part_1,,,,,,,,,,,,,magenta,square
335.0,6.0,2.0,1.0,2.0,2.0,403.4740600000077,1.0,1.0,part_1,,,,,,,,,,,,,yellow,triangle
0.0,2.0,0.0,0.0,4.0,4.0,393.7589659999503,1.0,1.0,part_1,,,,,,,,,,,,,gray,I
333.0,6.0,2.0,1.0,4.0,4.0,440.4953749999549,1.0,1.0,part_1,,,,,,,,,,,,,yellow,triangle
0.0,2.0,0.0,0.0,1.0,1.0,337.4186519999966,1.0,1.0,part_1,,,,,,,,,,,,,gray,I
667.0,3.0,3.0,0.0,2.0,2.0,328.2744369998909,1.0,1.0,part_1,,,,,,,,,,,,,orange,hexagon
1302.0,4.0,4.0,0.0,1.0,1.0,402.9190960000051,1.0,1.0,part_1,,,,,,,,,,,,,blue,cross
0.0,1.0,0.0,0.0,2.0,2.0,402.91943499983057,1.0,1.0,part_1,,,,,,,,,,,,,cyan,diamond
0.0,2.0,0.0,0.0,2.0,2.0,432.7382370001942,1.0,1.0,part_1,,,,,,,,,,,,,gray,I
0.0,6.0,0.0,1.0,1.0,1.0,367.1866189999946,1.0,1.0,part_1,,,,,,,,,,,,,yellow,triangle
179.0,5.0,1.0,1.0,3.0,3.0,385.756585000081,1.0,1.0,part_1,,,,,,,,,,,,,white,flipped triangle
0.0,7.0,0.0,1.0,4.0,4.0,488.3917970000766,1.0,1.0,part_1,,,,,,,,,,,,,green,circle
338.0,2.0,2.0,0.0,2.0,2.0,300.3908109999429,1.0,1.0,part_1,,,,,,,,,,,,,gray,I
153.0,1.0,1.0,0.0,2.0,2.0,373.558095999897,1.0,1.0,part_1,,,,,,,,,,,,,cyan,diamond
146.0,5.0,1.0,1.0,3.0,3.0,385.5287310000221,1.0,1.0,part_1,,,,,,,,,,,,,white,flipped triangle
331.0,2.0,2.0,0.0,4.0,4.0,412.257271000044,1.0,1.0,part_1,,,,,,,,,,,,,gray,I
305.0,6.0,2.0,1.0,4.0,4.0,449.5174679998399,1.0,1.0,part_1,,,,,,,,,,,,,yellow,triangle
652.0,7.0,3.0,1.0,3.0,3.0,460.0233090000074,1.0,1.0,part_1,,,,,,,,,,,,,green,circle
1291.0,4.0,4.0,0.0,2.0,2.0,402.0092179998755,1.0,1.0,part_1,,,,,,,,,,,,,blue,cross
0.0,3.0,0.0,0.0,3.0,3.0,495.7738150001205,1.0,1.0,part_1,,,,,,,,,,,,,orange,hexagon
1323.0,8.0,4.0,1.0,4.0,4.0,515.0991309999426,1.0,1.0,part_1,,,,,,,,,,,,,magenta,square
157.0,5.0,1.0,1.0,4.0,4.0,384.2714909999358,1.0,1.0,part_1,,,,,,,,,,,,,white,flipped triangle
663.0,3.0,3.0,0.0,4.0,4.0,383.1083580000722,1.0,1.0,part_1,,,,,,,,,,,,,orange,hexagon
1318.0,4.0,4.0,0.0,2.0,2.0,375.3314340001452,1.0,1.0,part_1,,,,,,,,,,,,,blue,cross
642.0,3.0,3.0,0.0,3.0,3.0,367.1562580000227,1.0,1.0,part_1,,,,,,,,,,,,,orange,hexagon
138.0,1.0,1.0,0.0,1.0,1.0,562.0353679998971,1.0,1.0,part_1,,,,,,,,,,,,,cyan,diamond
0.0,3.0,0.0,0.0,3.0,3.0,347.875434000116,1.0,1.0,part_1,,,,,,,,,,,,,orange,hexagon
0.0,3.0,0.0,0.0,3.0,3.0,374.0296630001012,1.0,1.0,part_1,,,,,,,,,,,,,orange,hexagon
1289.0,8.0,4.0,1.0,3.0,3.0,356.0229509998862,1.0,1.0,part_1,,,,,,,,,,,,,magenta,square
335.0,2.0,2.0,0.0,4.0,4.0,430.7216820000121,1.0,1.0,part_1,,,,,,,,,,,,,gray,I
334.0,6.0,2.0,1.0,2.0,2.0,385.4564880000453,1.0,1.0,part_1,,,,,,,,,,,,,yellow,triangle
146.0,1.0,1.0,0.0,2.0,2.0,590.7486510000126,1.0,1.0,part_1,,,,,,,,,,,,,cyan,diamond
165.0,5.0,1.0,1.0,1.0,1.0,402.8906240000651,1.0,1.0,part_1,,,,,,,,,,,,,white,flipped triangle
342.0,6.0,2.0,1.0,3.0,3.0,337.1129170000131,1.0,1.0,part_1,,,,,,,,,,,,,yellow,triangle
144.0,1.0,1.0,0.0,4.0,4.0,346.5406739999253,1.0,1.0,part_1,,,,,,,,,,,,,cyan,diamond
345.0,2.0,2.0,0.0,4.0,4.0,411.8409949999204,1.0,1.0,part_1,,,,,,,,,,,,,gray,I
1322.0,8.0,4.0,1.0,3.0,3.0,344.8745210000652,1.0,1.0,part_1,,,,,,,,,,,,,magenta,square
1287.0,4.0,4.0,0.0,1.0,1.0,347.8886390000753,1.0,2.0,part_1,,,,,,,,,,,,,blue,cross
326.0,6.0,2.0,1.0,1.0,1.0,367.1793710000202,1.0,1.0,part_1,,,,,,,,,,,,,yellow,triangle
1306.0,4.0,4.0,0.0,2.0,2.0,262.9026199999771,1.0,2.0,part_1,,,,,,,,,,,,,blue,cross
0.0,3.0,0.0,0.0,4.0,4.0,402.676048000103,1.0,1.0,part_1,,,,,,,,,,,,,orange,hexagon
637.0,7.0,3.0,1.0,2.0,2.0,624.6170890001395,1.0,1.0,part_1,,,,,,,,,,,,,green,circle
647.0,3.0,3.0,0.0,3.0,3.0,439.9877509999896,1.0,1.0,part_1,,,,,,,,,,,,,orange,hexagon
321.0,6.0,2.0,1.0,1.0,1.0,318.0424259999199,1.0,1.0,part_1,,,,,,,,,,,,,yellow,triangle
0.0,5.0,0.0,1.0,1.0,1.0,392.7881749998505,1.0,1.0,part_1,,,,,,,,,,,,,white,flipped triangle
138.0,5.0,1.0,1.0,1.0,1.0,355.9597380001378,1.0,1.0,part_1,,,,,,,,,,,,,white,flipped triangle
646.0,3.0,3.0,0.0,1.0,1.0,391.9989210000949,1.0,1.0,part_1,,,,,,,,,,,,,orange,hexagon
1311.0,4.0,4.0,0.0,1.0,1.0,281.5644360000533,1.0,1.0,part_1,,,,,,,,,,,,,blue,cross
1276.0,8.0,4.0,1.0,4.0,4.0,235.3246059999492,1.0,2.0,part_1,,,,,,,,,,,,,magenta,square
161.0,1.0,1.0,0.0,4.0,4.0,392.9564869999922,1.0,1.0,part_1,,,,,,,,,,,,,cyan,diamond
148.0,1.0,1.0,0.0,1.0,1.0,197.5439039999855,1.0,2.0,part_1,,,,,,,,,,,,,cyan,diamond
152.0,1.0,1.0,0.0,3.0,3.0,494.1533300000174,1.0,1.0,part_1,,,,,,,,,,,,,cyan,diamond
1286.0,8.0,4.0,1.0,2.0,2.0,579.0116530001796,1.0,1.0,part_1,,,,,,,,,,,,,magenta,square
315.0,2.0,2.0,0.0,2.0,2.0,391.5477860000464,1.0,1.0,part_1,,,,,,,,,,,,,gray,I
1292.0,4.0,4.0,0.0,1.0,1.0,476.8626590000622,1.0,1.0,part_1,,,,,,,,,,,,,blue,cross
1298.0,4.0,4.0,0.0,4.0,4.0,735.1477789998171,1.0,1.0,part_1,,,,,,,,,,,,,blue,cross
305.0,2.0,2.0,0.0,1.0,1.0,645.259132999854,1.0,1.0,part_1,,,,,,,,,,,,,gray,I
1318.0,8.0,4.0,1.0,2.0,2.0,478.1405639998866,1.0,1.0,part_1,,,,,,,,,,,,,magenta,square
1295.0,4.0,4.0,0.0,1.0,1.0,364.8953409999649,1.0,1.0,part_1,,,,,,,,,,,,,blue,cross
0.0,8.0,0.0,1.0,3.0,3.0,584.2682080001396,1.0,1.0,part_1,,,,,,,,,,,,,magenta,square
648.0,3.0,3.0,0.0,3.0,3.0,375.0249490001351,1.0,1.0,part_1,,,,,,,,,,,,,orange,hexagon
0.0,2.0,0.0,0.0,2.0,2.0,524.6741199998723,1.0,1.0,part_1,,,,,,,,,,,,,gray,I
341.0,2.0,2.0,0.0,4.0,4.0,470.2485740001521,2.0,1.0,part_1,,,,,,,,,,,,,gray,I
1285.0,8.0,4.0,1.0,1.0,1.0,419.6067739999307,2.0,1.0,part_1,,,,,,,,,,,,,magenta,square
173.0,5.0,1.0,1.0,1.0,1.0,428.9505080000708,2.0,1.0,part_1,,,,,,,,,,,,,white,flipped triangle
325.0,2.0,2.0,0.0,4.0,4.0,505.5243369999971,2.0,1.0,part_1,,,,,,,,,,,,,gray,I
1317.0,4.0,4.0,0.0,3.0,3.0,421.6884110001047,2.0,1.0,part_1,,,,,,,,,,,,,blue,cross
0.0,3.0,0.0,0.0,3.0,3.0,411.9165429999611,2.0,1.0,part_1,,,,,,,,,,,,,orange,hexagon
143.0,5.0,1.0,1.0,1.0,1.0,440.0344359999053,2.0,1.0,part_1,,,,,,,,,,,,,white,flipped triangle
182.0,1.0,1.0,0.0,1.0,1.0,338.1917379999777,2.0,1.0,part_1,,,,,,,,,,,,,cyan,diamond
628.0,3.0,3.0,0.0,3.0,3.0,365.1122620001388,2.0,1.0,part_1,,,,,,,,,,,,,orange,hexagon
331.0,6.0,2.0,1.0,1.0,1.0,216.467830999818,2.0,2.0,part_1,,,,,,,,,,,,,yellow,triangle
633.0,3.0,3.0,0.0,3.0,3.0,384.0248029998747,2.0,1.0,part_1,,,,,,,,,,,,,orange,hexagon
0.0,8.0,0.0,1.0,3.0,3.0,364.541010000039,2.0,1.0,part_1,,,,,,,,,,,,,magenta,square
157.0,1.0,1.0,0.0,4.0,4.0,346.5772730000935,2.0,1.0,part_1,,,,,,,,,,,,,cyan,diamond
663.0,7.0,3.0,1.0,3.0,3.0,365.1269070001035,2.0,1.0,part_1,,,,,,,,,,,,,green,circle
0.0,4.0,0.0,0.0,2.0,2.0,375.14260300008567,2.0,1.0,part_1,,,,,,,,,,,,,blue,cross
316.0,6.0,2.0,1.0,2.0,2.0,626.5939170000365,2.0,1.0,part_1,,,,,,,,,,,,,yellow,triangle
640.0,3.0,3.0,0.0,4.0,4.0,420.9703569999874,2.0,1.0,part_1,,,,,,,,,,,,,orange,hexagon
0.0,6.0,0.0,1.0,3.0,3.0,346.9860089999201,2.0,1.0,part_1,,,,,,,,,,,,,yellow,triangle
1283.0,8.0,4.0,1.0,1.0,1.0,347.0871819999956,2.0,1.0,part_1,,,,,,,,,,,,,magenta,square
0.0,1.0,0.0,0.0,2.0,2.0,358.0644490000395,2.0,1.0,part_1,,,,,,,,,,,,,cyan,diamond
663.0,3.0,3.0,0.0,1.0,1.0,364.4488439999804,2.0,1.0,part_1,,,,,,,,,,,,,orange,hexagon
0.0,7.0,0.0,1.0,2.0,2.0,411.0201420000976,2.0,1.0,part_1,,,,,,,,,,,,,green,circle
1276.0,4.0,4.0,0.0,2.0,2.0,356.6334540000753,2.0,1.0,part_1,,,,,,,,,,,,,blue,cross
647.0,3.0,3.0,0.0,4.0,4.0,355.2514630000587,2.0,1.0,part_1,,,,,,,,,,,,,orange,hexagon
662.0,3.0,3.0,0.0,2.0,2.0,329.5415990000947,2.0,1.0,part_1,,,,,,,,,,,,,orange,hexagon
1315.0,8.0,4.0,1.0,2.0,2.0,356.599102999553,2.0,1.0,part_1,,,,,,,,,,,,,magenta,square
651.0,7.0,3.0,1.0,2.0,2.0,328.2775580000816,2.0,1.0,part_1,,,,,,,,,,,,,green,circle
313.0,2.0,2.0,0.0,3.0,3.0,367.1546820000912,2.0,1.0,part_1,,,,,,,,,,,,,gray,I
0.0,7.0,0.0,1.0,4.0,4.0,346.7848750001394,2.0,1.0,part_1,,,,,,,,,,,,,green,circle
1292.0,8.0,4.0,1.0,4.0,4.0,422.932936000052,2.0,1.0,part_1,,,,,,,,,,,,,magenta,square
647.0,7.0,3.0,1.0,2.0,2.0,365.1077889999214,2.0,1.0,part_1,,,,,,,,,,,,,green,circle
147.0,5.0,1.0,1.0,2.0,2.0,357.0671829997991,2.0,1.0,part_1,,,,,,,,,,,,,white,flipped triangle
1301.0,4.0,4.0,0.0,4.0,4.0,318.8931810000213,2.0,1.0,part_1,,,,,,,,,,,,,blue,cross
0.0,8.0,0.0,1.0,3.0,3.0,374.8994879997553,2.0,1.0,part_1,,,,,,,,,,,,,magenta,square
157.0,5.0,1.0,1.0,2.0,2.0,338.7346340000476,2.0,1.0,part_1,,,,,,,,,,,,,white,flipped triangle
626.0,3.0,3.0,0.0,1.0,1.0,207.0258950002426,2.0,2.0,part_1,,,,,,,,,,,,,orange,hexagon
342.0,6.0,2.0,1.0,2.0,2.0,346.7058169999291,2.0,1.0,part_1,,,,,,,,,,,,,yellow,triangle
658.0,7.0,3.0,1.0,4.0,4.0,365.3173229999993,2.0,1.0,part_1,,,,,,,,,,,,,green,circle
638.0,3.0,3.0,0.0,3.0,3.0,368.8295279998783,2.0,1.0,part_1,,,,,,,,,,,,,orange,hexagon
0.0,1.0,0.0,0.0,1.0,1.0,318.6793130003025,2.0,1.0,part_1,,,,,,,,,,,,,cyan,diamond
325.0,6.0,2.0,1.0,2.0,2.0,383.8646029998926,2.0,1.0,part_1,,,,,,,,,,,,,yellow,triangle
639.0,7.0,3.0,1.0,3.0,3.0,364.6800609999445,2.0,1.0,part_1,,,,,,,,,,,,,green,circle
0.0,3.0,0.0,0.0,3.0,3.0,403.2394599998952,2.0,1.0,part_1,,,,,,,,,,,,,orange,hexagon
646.0,7.0,3.0,1.0,2.0,2.0,290.8871439999529,2.0,1.0,part_1,,,,,,,,,,,,,green,circle
0.0,5.0,0.0,1.0,3.0,3.0,346.564741000293,2.0,1.0,part_1,,,,,,,,,,,,,white,flipped triangle
0.0,2.0,0.0,0.0,2.0,2.0,382.4794090000978,2.0,1.0,part_1,,,,,,,,,,,,,gray,I
1323.0,4.0,4.0,0.0,4.0,4.0,421.8181280002682,2.0,1.0,part_1,,,,,,,,,,,,,blue,cross
662.0,7.0,3.0,1.0,3.0,3.0,337.3832410002251,2.0,1.0,part_1,,,,,,,,,,,,,green,circle
302.0,2.0,2.0,0.0,2.0,2.0,357.1934159999728,2.0,1.0,part_1,,,,,,,,,,,,,gray,I
1307.0,4.0,4.0,0.0,3.0,3.0,477.2601150002629,2.0,1.0,part_1,,,,,,,,,,,,,blue,cross
148.0,5.0,1.0,1.0,2.0,2.0,374.6195489998172,2.0,1.0,part_1,,,,,,,,,,,,,white,flipped triangle
0.0,6.0,0.0,1.0,2.0,2.0,356.6588000003321,2.0,1.0,part_1,,,,,,,,,,,,,yellow,triangle
157.0,5.0,1.0,1.0,2.0,2.0,402.97432699981067,2.0,1.0,part_1,,,,,,,,,,,,,white,flipped triangle
0.0,7.0,0.0,1.0,1.0,1.0,607.5002739999036,2.0,1.0,part_1,,,,,,,,,,,,,green,circle
165.0,1.0,1.0,0.0,3.0,3.0,375.5223559996921,2.0,1.0,part_1,,,,,,,,,,,,,cyan,diamond
635.0,3.0,3.0,0.0,1.0,1.0,331.9519120000223,2.0,1.0,part_1,,,,,,,,,,,,,orange,hexagon
656.0,7.0,3.0,1.0,4.0,4.0,346.338439000192,2.0,1.0,part_1,,,,,,,,,,,,,green,circle
0.0,8.0,0.0,1.0,4.0,4.0,386.1398089998147,2.0,2.0,part_1,,,,,,,,,,,,,magenta,square
1316.0,4.0,4.0,0.0,2.0,2.0,392.2404609998011,2.0,1.0,part_1,,,,,,,,,,,,,blue,cross
0.0,2.0,0.0,0.0,1.0,1.0,384.629736000079,2.0,1.0,part_1,,,,,,,,,,,,,gray,I
343.0,2.0,2.0,0.0,2.0,2.0,412.6489880000008,2.0,1.0,part_1,,,,,,,,,,,,,gray,I
321.0,6.0,2.0,1.0,3.0,3.0,429.8238649998893,2.0,1.0,part_1,,,,,,,,,,,,,yellow,triangle
186.0,5.0,1.0,1.0,1.0,1.0,355.9136400003808,2.0,1.0,part_1,,,,,,,,,,,,,white,flipped triangle
1294.0,4.0,4.0,0.0,2.0,2.0,373.5620549996383,2.0,1.0,part_1,,,,,,,,,,,,,blue,cross
0.0,8.0,0.0,1.0,4.0,4.0,337.285232999875,2.0,1.0,part_1,,,,,,,,,,,,,magenta,square
0.0,3.0,0.0,0.0,2.0,2.0,347.7142319998165,2.0,1.0,part_1,,,,,,,,,,,,,orange,hexagon
176.0,1.0,1.0,0.0,1.0,1.0,300.0186030003533,2.0,1.0,part_1,,,,,,,,,,,,,cyan,diamond
0.0,5.0,0.0,1.0,4.0,4.0,376.3897090002501,2.0,1.0,part_1,,,,,,,,,,,,,white,flipped triangle
180.0,1.0,1.0,0.0,3.0,3.0,337.7065849999781,2.0,1.0,part_1,,,,,,,,,,,,,cyan,diamond
0.0,1.0,0.0,0.0,1.0,1.0,357.4895300002936,2.0,1.0,part_1,,,,,,,,,,,,,cyan,diamond
1297.0,4.0,4.0,0.0,4.0,4.0,421.3628809998226,2.0,1.0,part_1,,,,,,,,,,,,,blue,cross
316.0,6.0,2.0,1.0,4.0,4.0,393.7361009998312,2.0,1.0,part_1,,,,,,,,,,,,,yellow,triangle
326.0,2.0,2.0,0.0,4.0,4.0,375.3314660002615,2.0,1.0,part_1,,,,,,,,,,,,,gray,I
0.0,7.0,0.0,1.0,2.0,2.0,383.5482360000242,2.0,1.0,part_1,,,,,,,,,,,,,green,circle
1316.0,8.0,4.0,1.0,4.0,4.0,365.0552969997989,2.0,1.0,part_1,,,,,,,,,,,,,magenta,square
0.0,5.0,0.0,1.0,2.0,2.0,587.9447570000593,2.0,1.0,part_1,,,,,,,,,,,,,white,flipped triangle
1312.0,8.0,4.0,1.0,2.0,2.0,420.3646209998624,2.0,1.0,part_1,,,,,,,,,,,,,magenta,square
1301.0,8.0,4.0,1.0,2.0,2.0,348.8461619999725,2.0,1.0,part_1,,,,,,,,,,,,,magenta,square
153.0,5.0,1.0,1.0,3.0,3.0,411.6514639999877,2.0,1.0,part_1,,,,,,,,,,,,,white,flipped triangle
1307.0,8.0,4.0,1.0,3.0,3.0,421.4748739996139,2.0,1.0,part_1,,,,,,,,,,,,,magenta,square
147.0,5.0,1.0,1.0,4.0,4.0,383.8595019997228,2.0,1.0,part_1,,,,,,,,,,,,,white,flipped triangle
0.0,6.0,0.0,1.0,2.0,2.0,457.8642000001309,2.0,1.0,part_1,,,,,,,,,,,,,yellow,triangle
154.0,1.0,1.0,0.0,3.0,3.0,365.4411020002044,2.0,1.0,part_1,,,,,,,,,,,,,cyan,diamond
157.0,1.0,1.0,0.0,1.0,1.0,373.885283999698,2.0,1.0,part_1,,,,,,,,,,,,,cyan,diamond
180.0,5.0,1.0,1.0,4.0,4.0,402.0150579999608,2.0,1.0,part_1,,,,,,,,,,,,,white,flipped triangle
1294.0,8.0,4.0,1.0,4.0,4.0,337.4054810001325,2.0,1.0,part_1,,,,,,,,,,,,,magenta,square
643.0,7.0,3.0,1.0,1.0,1.0,308.8834300001508,2.0,1.0,part_1,,,,,,,,,,,,,green,circle
165.0,1.0,1.0,0.0,1.0,1.0,357.3832249999213,2.0,1.0,part_1,,,,,,,,,,,,,cyan,diamond
641.0,3.0,3.0,0.0,4.0,4.0,420.6166690000827,2.0,1.0,part_1,,,,,,,,,,,,,orange,hexagon
303.0,2.0,2.0,0.0,1.0,1.0,515.1421509999636,2.0,1.0,part_1,,,,,,,,,,,,,gray,I
1304.0,4.0,4.0,0.0,4.0,4.0,319.0606829998614,2.0,1.0,part_1,,,,,,,,,,,,,blue,cross
312.0,6.0,2.0,1.0,1.0,1.0,271.3801330000933,2.0,1.0,part_1,,,,,,,,,,,,,yellow,triangle
0.0,5.0,0.0,1.0,4.0,4.0,384.1944209998473,2.0,1.0,part_1,,,,,,,,,,,,,white,flipped triangle
0.0,2.0,0.0,0.0,1.0,1.0,337.36164200036,2.0,1.0,part_1,,,,,,,,,,,,,gray,I
648.0,7.0,3.0,1.0,2.0,2.0,524.1200460000073,2.0,1.0,part_1,,,,,,,,,,,,,green,circle
0.0,1.0,0.0,0.0,3.0,3.0,375.4239119998601,2.0,1.0,part_1,,,,,,,,,,,,,cyan,diamond
319.0,2.0,2.0,0.0,3.0,3.0,384.198457000366,2.0,1.0,part_1,,,,,,,,,,,,,gray,I
161.0,1.0,1.0,0.0,4.0,4.0,360.8003350000217,2.0,1.0,part_1,,,,,,,,,,,,,cyan,diamond
635.0,7.0,3.0,1.0,1.0,1.0,374.6332050000092,2.0,1.0,part_1,,,,,,,,,,,,,green,circle
181.0,5.0,1.0,1.0,1.0,1.0,365.6586320003043,2.0,1.0,part_1,,,,,,,,,,,,,white,flipped triangle
1282.0,4.0,4.0,0.0,3.0,3.0,461.4187839997612,3.0,1.0,part_1,,,,,,,,,,,,,blue,cross
0.0,8.0,0.0,1.0,3.0,3.0,393.9279360001819,3.0,1.0,part_1,,,,,,,,,,,,,magenta,square
171.0,1.0,1.0,0.0,2.0,2.0,359.1674110002714,3.0,1.0,part_1,,,,,,,,,,,,,cyan,diamond
0.0,5.0,0.0,1.0,1.0,1.0,356.0367780000888,3.0,1.0,part_1,,,,,,,,,,,,,white,flipped triangle
147.0,1.0,1.0,0.0,2.0,2.0,366.3918199999898,3.0,1.0,part_1,,,,,,,,,,,,,cyan,diamond
1304.0,8.0,4.0,1.0,4.0,4.0,331.5216269998018,3.0,1.0,part_1,,,,,,,,,,,,,magenta,square
172.0,1.0,1.0,0.0,2.0,2.0,342.36558900011,3.0,1.0,part_1,,,,,,,,,,,,,cyan,diamond
345.0,6.0,2.0,1.0,1.0,1.0,328.8798980001957,3.0,1.0,part_1,,,,,,,,,,,,,yellow,triangle
669.0,7.0,3.0,1.0,2.0,2.0,351.3339330002054,3.0,1.0,part_1,,,,,,,,,,,,,green,circle
147.0,1.0,1.0,0.0,2.0,2.0,405.0069810000423,3.0,1.0,part_1,,,,,,,,,,,,,cyan,diamond
307.0,2.0,2.0,0.0,3.0,3.0,458.4133770003973,3.0,1.0,part_1,,,,,,,,,,,,,gray,I
333.0,2.0,2.0,0.0,2.0,2.0,392.4088509998,3.0,1.0,part_1,,,,,,,,,,,,,gray,I
1306.0,8.0,4.0,1.0,1.0,1.0,449.5789190000323,3.0,1.0,part_1,,,,,,,,,,,,,magenta,square
160.0,1.0,1.0,0.0,2.0,2.0,336.3644440000826,3.0,1.0,part_1,,,,,,,,,,,,,cyan,diamond
161.0,1.0,1.0,0.0,2.0,2.0,347.5202139998146,3.0,1.0,part_1,,,,,,,,,,,,,cyan,diamond
161.0,5.0,1.0,1.0,3.0,3.0,336.9979399999465,3.0,1.0,part_1,,,,,,,,,,,,,white,flipped triangle
343.0,6.0,2.0,1.0,2.0,2.0,293.07042299979,3.0,1.0,part_1,,,,,,,,,,,,,yellow,triangle
179.0,1.0,1.0,0.0,1.0,1.0,290.6314599999859,3.0,1.0,part_1,,,,,,,,,,,,,cyan,diamond
182.0,1.0,1.0,0.0,3.0,3.0,384.5494819997839,3.0,1.0,part_1,,,,,,,,,,,,,cyan,diamond
320.0,6.0,2.0,1.0,3.0,3.0,38.892821999979695,3.0,2.0,part_1,,,,,,,,,,,,,yellow,triangle
1317.0,8.0,4.0,1.0,1.0,1.0,346.8924710000465,3.0,1.0,part_1,,,,,,,,,,,,,magenta,square
337.0,6.0,2.0,1.0,4.0,4.0,374.4225219998043,3.0,1.0,part_1,,,,,,,,,,,,,yellow,triangle
303.0,6.0,2.0,1.0,4.0,4.0,382.9704079998919,3.0,1.0,part_1,,,,,,,,,,,,,yellow,triangle
652.0,7.0,3.0,1.0,1.0,1.0,393.1804700000612,3.0,1.0,part_1,,,,,,,,,,,,,green,circle
1276.0,8.0,4.0,1.0,3.0,3.0,375.3998610000053,3.0,1.0,part_1,,,,,,,,,,,,,magenta,square
182.0,5.0,1.0,1.0,2.0,2.0,339.2976850000195,3.0,1.0,part_1,,,,,,,,,,,,,white,flipped triangle
323.0,6.0,2.0,1.0,1.0,1.0,318.6172990003797,3.0,1.0,part_1,,,,,,,,,,,,,yellow,triangle
161.0,5.0,1.0,1.0,2.0,2.0,309.7662579998541,3.0,1.0,part_1,,,,,,,,,,,,,white,flipped triangle
1292.0,4.0,4.0,0.0,1.0,1.0,366.4893249997476,3.0,1.0,part_1,,,,,,,,,,,,,blue,cross
1297.0,8.0,4.0,1.0,2.0,2.0,393.6132499998166,3.0,1.0,part_1,,,,,,,,,,,,,magenta,square
0.0,1.0,0.0,0.0,4.0,4.0,384.789302000172,3.0,1.0,part_1,,,,,,,,,,,,,cyan,diamond
655.0,3.0,3.0,0.0,2.0,2.0,317.6716840002882,3.0,1.0,part_1,,,,,,,,,,,,,orange,hexagon
1299.0,4.0,4.0,0.0,2.0,2.0,355.4529839998395,3.0,1.0,part_1,,,,,,,,,,,,,blue,cross
672.0,3.0,3.0,0.0,3.0,3.0,392.5155359997916,3.0,1.0,part_1,,,,,,,,,,,,,orange,hexagon
1308.0,8.0,4.0,1.0,3.0,3.0,356.6503560000456,3.0,1.0,part_1,,,,,,,,,,,,,magenta,square
348.0,2.0,2.0,0.0,1.0,1.0,291.3853549998748,3.0,1.0,part_1,,,,,,,,,,,,,gray,I
171.0,5.0,1.0,1.0,3.0,3.0,346.7591349999566,3.0,1.0,part_1,,,,,,,,,,,,,white,flipped triangle
0.0,4.0,0.0,0.0,2.0,2.0,317.3255980000249,3.0,1.0,part_1,,,,,,,,,,,,,blue,cross
1275.0,8.0,4.0,1.0,2.0,2.0,318.5138030003145,3.0,1.0,part_1,,,,,,,,,,,,,magenta,square
173.0,1.0,1.0,0.0,4.0,4.0,364.3700070001614,3.0,1.0,part_1,,,,,,,,,,,,,cyan,diamond
1287.0,8.0,4.0,1.0,1.0,1.0,365.6524900002296,3.0,1.0,part_1,,,,,,,,,,,,,magenta,square
307.0,6.0,2.0,1.0,1.0,1.0,310.2439579997735,3.0,1.0,part_1,,,,,,,,,,,,,yellow,triangle
1321.0,4.0,4.0,0.0,3.0,3.0,353.3689500000037,3.0,1.0,part_1,,,,,,,,,,,,,blue,cross
1291.0,8.0,4.0,1.0,4.0,4.0,319.304283999827,3.0,1.0,part_1,,,,,,,,,,,,,magenta,square
1310.0,4.0,4.0,0.0,3.0,3.0,360.4512639999484,3.0,1.0,part_1,,,,,,,,,,,,,blue,cross
0.0,6.0,0.0,1.0,1.0,1.0,328.5500880001564,3.0,1.0,part_1,,,,,,,,,,,,,yellow,triangle
325.0,6.0,2.0,1.0,2.0,2.0,309.9795349999112,3.0,1.0,part_1,,,,,,,,,,,,,yellow,triangle
0.0,3.0,0.0,0.0,4.0,4.0,290.4216310002994,3.0,1.0,part_1,,,,,,,,,,,,,orange,hexagon
160.0,5.0,1.0,1.0,3.0,3.0,347.7837760001421,3.0,1.0,part_1,,,,,,,,,,,,,white,flipped triangle
342.0,2.0,2.0,0.0,1.0,1.0,358.6128060001101,3.0,1.0,part_1,,,,,,,,,,,,,gray,I
337.0,2.0,2.0,0.0,3.0,3.0,468.170998000005,3.0,1.0,part_1,,,,,,,,,,,,,gray,I
180.0,1.0,1.0,0.0,2.0,2.0,375.3188850000697,3.0,1.0,part_1,,,,,,,,,,,,,cyan,diamond
640.0,7.0,3.0,1.0,3.0,3.0,320.7675109997581,3.0,1.0,part_1,,,,,,,,,,,,,green,circle
142.0,1.0,1.0,0.0,3.0,3.0,328.7114170002496,3.0,1.0,part_1,,,,,,,,,,,,,cyan,diamond
0.0,3.0,0.0,0.0,4.0,4.0,309.3014699998093,3.0,1.0,part_1,,,,,,,,,,,,,orange,hexagon
0.0,3.0,0.0,0.0,3.0,3.0,366.2827979997018,3.0,1.0,part_1,,,,,,,,,,,,,orange,hexagon
313.0,2.0,2.0,0.0,4.0,4.0,290.8366199999364,3.0,1.0,part_1,,,,,,,,,,,,,gray,I
183.0,1.0,1.0,0.0,1.0,1.0,319.5470860000569,3.0,1.0,part_1,,,,,,,,,,,,,cyan,diamond
647.0,3.0,3.0,0.0,4.0,4.0,347.9455840001719,3.0,1.0,part_1,,,,,,,,,,,,,orange,hexagon
1304.0,4.0,4.0,0.0,3.0,3.0,319.5784920003461,3.0,1.0,part_1,,,,,,,,,,,,,blue,cross
1298.0,8.0,4.0,1.0,3.0,3.0,348.0797690003783,3.0,1.0,part_1,,,,,,,,,,,,,magenta,square
0.0,7.0,0.0,1.0,4.0,4.0,601.0470729997905,3.0,1.0,part_1,,,,,,,,,,,,,green,circle
172.0,5.0,1.0,1.0,3.0,3.0,328.2098909999149,3.0,1.0,part_1,,,,,,,,,,,,,white,flipped triangle
142.0,5.0,1.0,1.0,2.0,2.0,346.2169139997968,3.0,1.0,part_1,,,,,,,,,,,,,white,flipped triangle
673.0,7.0,3.0,1.0,4.0,4.0,357.583835999776,3.0,1.0,part_1,,,,,,,,,,,,,green,circle
343.0,2.0,2.0,0.0,3.0,3.0,421.7727489999561,3.0,1.0,part_1,,,,,,,,,,,,,gray,I
312.0,2.0,2.0,0.0,2.0,2.0,439.7548300003109,3.0,1.0,part_1,,,,,,,,,,,,,gray,I
165.0,5.0,1.0,1.0,1.0,1.0,291.3586569998188,3.0,1.0,part_1,,,,,,,,,,,,,white,flipped triangle
673.0,3.0,3.0,0.0,4.0,4.0,384.453042000132,3.0,1.0,part_1,,,,,,,,,,,,,orange,hexagon
642.0,7.0,3.0,1.0,1.0,1.0,357.8777570000966,3.0,1.0,part_1,,,,,,,,,,,,,green,circle
0.0,8.0,0.0,1.0,1.0,1.0,330.1784010000119,3.0,1.0,part_1,,,,,,,,,,,,,magenta,square
316.0,6.0,2.0,1.0,3.0,3.0,319.385185000101,3.0,1.0,part_1,,,,,,,,,,,,,yellow,triangle
1308.0,4.0,4.0,0.0,3.0,3.0,310.2219460001834,3.0,1.0,part_1,,,,,,,,,,,,,blue,cross
348.0,6.0,2.0,1.0,2.0,2.0,365.7572050001363,3.0,1.0,part_1,,,,,,,,,,,,,yellow,triangle
1299.0,8.0,4.0,1.0,1.0,1.0,319.2671160004465,3.0,1.0,part_1,,,,,,,,,,,,,magenta,square
667.0,7.0,3.0,1.0,3.0,3.0,309.7754349996648,3.0,1.0,part_1,,,,,,,,,,,,,green,circle
166.0,1.0,1.0,0.0,3.0,3.0,309.9654200000259,3.0,1.0,part_1,,,,,,,,,,,,,cyan,diamond
0.0,5.0,0.0,1.0,2.0,2.0,328.2666089999111,3.0,1.0,part_1,,,,,,,,,,,,,white,flipped triangle
0.0,6.0,0.0,1.0,4.0,4.0,402.1264389998578,3.0,1.0,part_1,,,,,,,,,,,,,yellow,triangle
0.0,6.0,0.0,1.0,3.0,3.0,299.4748979999713,3.0,1.0,part_1,,,,,,,,,,,,,yellow,triangle
658.0,7.0,3.0,1.0,4.0,4.0,308.3233059996928,3.0,1.0,part_1,,,,,,,,,,,,,green,circle
1295.0,8.0,4.0,1.0,3.0,3.0,318.9688180000303,3.0,1.0,part_1,,,,,,,,,,,,,magenta,square
1300.0,4.0,4.0,0.0,4.0,4.0,290.8725350002896,3.0,1.0,part_1,,,,,,,,,,,,,blue,cross
337.0,2.0,2.0,0.0,4.0,4.0,347.77505800002467,3.0,1.0,part_1,,,,,,,,,,,,,gray,I
153.0,5.0,1.0,1.0,4.0,4.0,318.6580829997183,3.0,1.0,part_1,,,,,,,,,,,,,white,flipped triangle
1315.0,4.0,4.0,0.0,2.0,2.0,394.5585670003311,3.0,1.0,part_1,,,,,,,,,,,,,blue,cross
626.0,7.0,3.0,1.0,1.0,1.0,337.43398300021,3.0,1.0,part_1,,,,,,,,,,,,,green,circle
320.0,2.0,2.0,0.0,4.0,4.0,441.3099200000943,3.0,1.0,part_1,,,,,,,,,,,,,gray,I
181.0,5.0,1.0,1.0,4.0,4.0,460.0514419998944,3.0,1.0,part_1,,,,,,,,,,,,,white,flipped triangle
331.0,2.0,2.0,0.0,3.0,3.0,347.0873119999851,3.0,1.0,part_1,,,,,,,,,,,,,gray,I
653.0,3.0,3.0,0.0,4.0,4.0,356.8865470001583,3.0,1.0,part_1,,,,,,,,,,,,,orange,hexagon
154.0,1.0,1.0,0.0,3.0,3.0,300.4697189999206,3.0,1.0,part_1,,,,,,,,,,,,,cyan,diamond
137.0,5.0,1.0,1.0,4.0,4.0,500.18321500010643,3.0,1.0,part_1,,,,,,,,,,,,,white,flipped triangle
331.0,6.0,2.0,1.0,3.0,3.0,291.4822719999392,3.0,1.0,part_1,,,,,,,,,,,,,yellow,triangle
1308.0,4.0,4.0,0.0,1.0,1.0,299.7025629997552,3.0,2.0,part_1,,,,,,,,,,,,,blue,cross
171.0,5.0,1.0,1.0,3.0,3.0,347.7373630003058,3.0,1.0,part_1,,,,,,,,,,,,,white,flipped triangle
1300.0,8.0,4.0,1.0,3.0,3.0,328.3646840000074,3.0,1.0,part_1,,,,,,,,,,,,,magenta,square
323.0,2.0,2.0,0.0,1.0,1.0,300.2399350002633,3.0,1.0,part_1,,,,,,,,,,,,,gray,I
1312.0,4.0,4.0,0.0,2.0,2.0,310.165176999817,3.0,1.0,part_1,,,,,,,,,,,,,blue,cross
653.0,7.0,3.0,1.0,1.0,1.0,317.5252080000064,3.0,1.0,part_1,,,,,,,,,,,,,green,circle
672.0,7.0,3.0,1.0,4.0,4.0,421.0694530002001,4.0,1.0,part_1,,,,,,,,,,,,,green,circle
637.0,3.0,3.0,0.0,2.0,2.0,272.6515660001496,4.0,1.0,part_1,,,,,,,,,,,,,orange,hexagon
338.0,6.0,2.0,1.0,4.0,4.0,262.6679760001025,4.0,1.0,part_1,,,,,,,,,,,,,yellow,triangle
321.0,2.0,2.0,0.0,3.0,3.0,309.7517910000533,4.0,1.0,part_1,,,,,,,,,,,,,gray,I
171.0,1.0,1.0,0.0,3.0,3.0,318.3129429999098,4.0,1.0,part_1,,,,,,,,,,,,,cyan,diamond
166.0,5.0,1.0,1.0,1.0,1.0,300.7966000000124,4.0,1.0,part_1,,,,,,,,,,,,,white,flipped triangle
327.0,2.0,2.0,0.0,4.0,4.0,358.6749870000858,4.0,1.0,part_1,,,,,,,,,,,,,gray,I
302.0,6.0,2.0,1.0,3.0,3.0,301.9107909999547,4.0,1.0,part_1,,,,,,,,,,,,,yellow,triangle
181.0,1.0,1.0,0.0,1.0,1.0,292.077927000264,4.0,3.0,part_1,,,,,,,,,,,,,cyan,diamond
316.0,2.0,2.0,0.0,1.0,1.0,327.3835410000174,4.0,1.0,part_1,,,,,,,,,,,,,gray,I
152.0,5.0,1.0,1.0,2.0,2.0,365.140490000158,4.0,1.0,part_1,,,,,,,,,,,,,white,flipped triangle
333.0,6.0,2.0,1.0,4.0,4.0,346.124477000103,4.0,1.0,part_1,,,,,,,,,,,,,yellow,triangle
171.0,5.0,1.0,1.0,3.0,3.0,356.3506999998935,4.0,1.0,part_1,,,,,,,,,,,,,white,flipped triangle
0.0,8.0,0.0,1.0,4.0,4.0,281.0098999998445,4.0,1.0,part_1,,,,,,,,,,,,,magenta,square
153.0,1.0,1.0,0.0,1.0,1.0,365.8093740000367,4.0,1.0,part_1,,,,,,,,,,,,,cyan,diamond
668.0,3.0,3.0,0.0,4.0,4.0,291.1703479999232,4.0,1.0,part_1,,,,,,,,,,,,,orange,hexagon
658.0,3.0,3.0,0.0,4.0,4.0,329.375273000096,4.0,1.0,part_1,,,,,,,,,,,,,orange,hexagon
1275.0,4.0,4.0,0.0,2.0,2.0,308.755999999903,4.0,1.0,part_1,,,,,,,,,,,,,blue,cross
663.0,7.0,3.0,1.0,1.0,1.0,282.2471999998015,4.0,1.0,part_1,,,,,,,,,,,,,green,circle
1289.0,4.0,4.0,0.0,1.0,1.0,550.665631999891,4.0,1.0,part_1,,,,,,,,,,,,,blue,cross
1310.0,8.0,4.0,1.0,3.0,3.0,357.5334470001508,4.0,1.0,part_1,,,,,,,,,,,,,magenta,square
302.0,6.0,2.0,1.0,1.0,1.0,309.186831000261,4.0,1.0,part_1,,,,,,,,,,,,,yellow,triangle
650.0,3.0,3.0,0.0,2.0,2.0,273.0749850002212,4.0,1.0,part_1,,,,,,,,,,,,,orange,hexagon
0.0,6.0,0.0,1.0,2.0,2.0,318.4970819997943,4.0,1.0,part_1,,,,,,,,,,,,,yellow,triangle
655.0,7.0,3.0,1.0,2.0,2.0,309.8399679997783,4.0,1.0,part_1,,,,,,,,,,,,,green,circle
1307.0,8.0,4.0,1.0,1.0,1.0,272.3487930002193,4.0,1.0,part_1,,,,,,,,,,,,,magenta,square
625.0,7.0,3.0,1.0,4.0,4.0,291.3811469998109,4.0,1.0,part_1,,,,,,,,,,,,,green,circle
1286.0,4.0,4.0,0.0,3.0,3.0,339.81345500023957,4.0,1.0,part_1,,,,,,,,,,,,,blue,cross
1276.0,4.0,4.0,0.0,3.0,3.0,0.23544299983759998,4.0,2.0,part_1,,,,,,,,,,,,,blue,cross
1307.0,4.0,4.0,0.0,3.0,3.0,392.2730839999531,4.0,1.0,part_1,,,,,,,,,,,,,blue,cross
0.0,4.0,0.0,0.0,4.0,4.0,215.9418609999193,4.0,2.0,part_1,,,,,,,,,,,,,blue,cross
625.0,3.0,3.0,0.0,1.0,1.0,495.6829309999193,4.0,1.0,part_1,,,,,,,,,,,,,orange,hexagon
0.0,4.0,0.0,0.0,1.0,1.0,383.7530740001966,4.0,1.0,part_1,,,,,,,,,,,,,blue,cross
658.0,7.0,3.0,1.0,3.0,3.0,355.2973949999796,4.0,1.0,part_1,,,,,,,,,,,,,green,circle
1283.0,8.0,4.0,1.0,2.0,2.0,393.6180059999969,4.0,1.0,part_1,,,,,,,,,,,,,magenta,square
182.0,5.0,1.0,1.0,4.0,4.0,355.3321160002269,4.0,1.0,part_1,,,,,,,,,,,,,white,flipped triangle
0.0,2.0,0.0,0.0,4.0,4.0,382.4600920002012,4.0,1.0,part_1,,,,,,,,,,,,,gray,I
313.0,6.0,2.0,1.0,4.0,4.0,347.7361949999249,4.0,1.0,part_1,,,,,,,,,,,,,yellow,triangle
647.0,7.0,3.0,1.0,1.0,1.0,393.0882919999021,4.0,1.0,part_1,,,,,,,,,,,,,green,circle
658.0,3.0,3.0,0.0,1.0,1.0,337.7994680004121,4.0,1.0,part_1,,,,,,,,,,,,,orange,hexagon
0.0,4.0,0.0,0.0,2.0,2.0,327.2464010001386,4.0,1.0,part_1,,,,,,,,,,,,,blue,cross
154.0,5.0,1.0,1.0,2.0,2.0,459.8398839998481,4.0,2.0,part_1,,,,,,,,,,,,,white,flipped triangle
315.0,6.0,2.0,1.0,2.0,2.0,364.6796859998176,4.0,1.0,part_1,,,,,,,,,,,,,yellow,triangle
1285.0,4.0,4.0,0.0,4.0,4.0,364.6642859998792,4.0,1.0,part_1,,,,,,,,,,,,,blue,cross
0.0,8.0,0.0,1.0,3.0,3.0,354.9290710002424,4.0,1.0,part_1,,,,,,,,,,,,,magenta,square
647.0,7.0,3.0,1.0,3.0,3.0,366.0013950002394,4.0,1.0,part_1,,,,,,,,,,,,,green,circle
662.0,3.0,3.0,0.0,4.0,4.0,298.7924949998159,4.0,1.0,part_1,,,,,,,,,,,,,orange,hexagon
343.0,6.0,2.0,1.0,3.0,3.0,345.9232069999416,4.0,1.0,part_1,,,,,,,,,,,,,yellow,triangle
0.0,5.0,0.0,1.0,3.0,3.0,346.61638099987607,4.0,1.0,part_1,,,,,,,,,,,,,white,flipped triangle
313.0,6.0,2.0,1.0,4.0,4.0,271.8183179999869,4.0,1.0,part_1,,,,,,,,,,,,,yellow,triangle
302.0,2.0,2.0,0.0,3.0,3.0,309.2875530001038,4.0,1.0,part_1,,,,,,,,,,,,,gray,I
665.0,3.0,3.0,0.0,1.0,1.0,375.2665000001798,4.0,1.0,part_1,,,,,,,,,,,,,orange,hexagon
303.0,6.0,2.0,1.0,1.0,1.0,420.3698329997678,4.0,1.0,part_1,,,,,,,,,,,,,yellow,triangle
652.0,3.0,3.0,0.0,2.0,2.0,365.1755750001939,4.0,1.0,part_1,,,,,,,,,,,,,orange,hexagon
652.0,3.0,3.0,0.0,3.0,3.0,318.1643259999873,4.0,1.0,part_1,,,,,,,,,,,,,orange,hexagon
0.0,7.0,0.0,1.0,1.0,1.0,272.696476999954,4.0,1.0,part_1,,,,,,,,,,,,,green,circle
658.0,3.0,3.0,0.0,2.0,2.0,300.2330829999664,4.0,1.0,part_1,,,,,,,,,,,,,orange,hexagon
1304.0,8.0,4.0,1.0,4.0,4.0,318.4230510000816,4.0,1.0,part_1,,,,,,,,,,,,,magenta,square
161.0,5.0,1.0,1.0,1.0,1.0,352.9952499998217,4.0,1.0,part_1,,,,,,,,,,,,,white,flipped triangle
319.0,6.0,2.0,1.0,4.0,4.0,299.7493529996973,4.0,1.0,part_1,,,,,,,,,,,,,yellow,triangle
316.0,2.0,2.0,0.0,2.0,2.0,306.9161159996838,4.0,1.0,part_1,,,,,,,,,,,,,gray,I
625.0,7.0,3.0,1.0,1.0,1.0,326.9352199999957,4.0,1.0,part_1,,,,,,,,,,,,,green,circle
1323.0,4.0,4.0,0.0,4.0,4.0,299.312068999825,4.0,1.0,part_1,,,,,,,,,,,,,blue,cross
1292.0,8.0,4.0,1.0,2.0,2.0,365.4357659997913,4.0,1.0,part_1,,,,,,,,,,,,,magenta,square
0.0,1.0,0.0,0.0,3.0,3.0,374.5516610001687,4.0,1.0,part_1,,,,,,,,,,,,,cyan,diamond
1279.0,8.0,4.0,1.0,2.0,2.0,299.9716379999881,4.0,1.0,part_1,,,,,,,,,,,,,magenta,square
137.0,1.0,1.0,0.0,4.0,4.0,300.2033369998571,4.0,1.0,part_1,,,,,,,,,,,,,cyan,diamond
626.0,7.0,3.0,1.0,4.0,4.0,347.2556120000263,4.0,1.0,part_1,,,,,,,,,,,,,green,circle
0.0,4.0,0.0,0.0,2.0,2.0,411.746199999925,4.0,1.0,part_1,,,,,,,,,,,,,blue,cross
0.0,7.0,0.0,1.0,4.0,4.0,356.7783500002406,4.0,1.0,part_1,,,,,,,,,,,,,green,circle
633.0,7.0,3.0,1.0,4.0,4.0,355.6256520000715,4.0,1.0,part_1,,,,,,,,,,,,,green,circle
144.0,5.0,1.0,1.0,4.0,4.0,308.5006780002004,4.0,1.0,part_1,,,,,,,,,,,,,white,flipped triangle
316.0,2.0,2.0,0.0,3.0,3.0,318.8337769997815,4.0,1.0,part_1,,,,,,,,,,,,,gray,I
0.0,6.0,0.0,1.0,3.0,3.0,382.4439830000301,4.0,1.0,part_1,,,,,,,,,,,,,yellow,triangle
342.0,2.0,2.0,0.0,1.0,1.0,514.2342840003948,4.0,1.0,part_1,,,,,,,,,,,,,gray,I
0.0,2.0,0.0,0.0,4.0,4.0,429.1504590000841,4.0,1.0,part_1,,,,,,,,,,,,,gray,I
0.0,4.0,0.0,0.0,3.0,3.0,441.6450049998275,4.0,1.0,part_1,,,,,,,,,,,,,blue,cross
626.0,3.0,3.0,0.0,2.0,2.0,309.1465269999389,4.0,1.0,part_1,,,,,,,,,,,,,orange,hexagon
183.0,5.0,1.0,1.0,3.0,3.0,337.5594859999182,4.0,1.0,part_1,,,,,,,,,,,,,white,flipped triangle
651.0,3.0,3.0,0.0,3.0,3.0,271.623374000228,4.0,1.0,part_1,,,,,,,,,,,,,orange,hexagon
1321.0,8.0,4.0,1.0,4.0,4.0,336.0620969997399,4.0,1.0,part_1,,,,,,,,,,,,,magenta,square
1282.0,8.0,4.0,1.0,4.0,4.0,354.9225980000301,4.0,1.0,part_1,,,,,,,,,,,,,magenta,square
643.0,3.0,3.0,0.0,2.0,2.0,410.8410270000604,4.0,1.0,part_1,,,,,,,,,,,,,orange,hexagon
0.0,1.0,0.0,0.0,2.0,2.0,357.1680740001284,4.0,1.0,part_1,,,,,,,,,,,,,cyan,diamond
1323.0,8.0,4.0,1.0,1.0,1.0,402.5889059998917,4.0,1.0,part_1,,,,,,,,,,,,,magenta,square
321.0,2.0,2.0,0.0,2.0,2.0,309.0376670002115,4.0,1.0,part_1,,,,,,,,,,,,,gray,I
157.0,1.0,1.0,0.0,4.0,4.0,336.1161420002645,4.0,1.0,part_1,,,,,,,,,,,,,cyan,diamond
665.0,7.0,3.0,1.0,4.0,4.0,383.6327029998756,4.0,1.0,part_1,,,,,,,,,,,,,green,circle
0.0,7.0,0.0,1.0,2.0,2.0,373.7427169999137,4.0,1.0,part_1,,,,,,,,,,,,,green,circle
1311.0,8.0,4.0,1.0,1.0,1.0,336.478876000001,4.0,1.0,part_1,,,,,,,,,,,,,magenta,square
0.0,4.0,0.0,0.0,1.0,1.0,364.258367000275,4.0,1.0,part_1,,,,,,,,,,,,,blue,cross
1322.0,4.0,4.0,0.0,4.0,4.0,327.5488230001429,4.0,1.0,part_1,,,,,,,,,,,,,blue,cross
662.0,3.0,3.0,0.0,1.0,1.0,326.8863599996621,4.0,1.0,part_1,,,,,,,,,,,,,orange,hexagon
662.0,7.0,3.0,1.0,2.0,2.0,345.9374200001548,4.0,1.0,part_1,,,,,,,,,,,,,green,circle
325.0,2.0,2.0,0.0,3.0,3.0,450.0989759999356,4.0,1.0,part_1,,,,,,,,,,,,,gray,I
181.0,1.0,1.0,0.0,4.0,4.0,346.3618420000784,4.0,1.0,part_1,,,,,,,,,,,,,cyan,diamond
143.0,1.0,1.0,0.0,4.0,4.0,411.377671000082,4.0,1.0,part_1,,,,,,,,,,,,,cyan,diamond
1283.0,4.0,4.0,0.0,1.0,1.0,308.7935210000978,4.0,1.0,part_1,,,,,,,,,,,,,blue,cross
186.0,1.0,1.0,0.0,3.0,3.0,290.4745149999144,4.0,1.0,part_1,,,,,,,,,,,,,cyan,diamond
148.0,5.0,1.0,1.0,4.0,4.0,319.0224339996348,4.0,1.0,part_1,,,,,,,,,,,,,white,flipped triangle
0.0,2.0,2.0,0.0,5.0,5.0,404.1389510002773,1.0,0.0,part_2,go,250.0,250.0,1.0,,,,,,,,,gray,I
0.0,3.0,3.0,0.0,6.0,6.0,422.2494229998119,1.0,0.0,part_2,go,250.0,250.0,1.0,,,,,,,,,orange,hexagon
0.0,6.0,2.0,1.0,5.0,0.0,0.0,1.0,0.0,part_2,stop,250.0,250.0,4.0,,,,,,,,,yellow,triangle
0.0,2.0,2.0,0.0,5.0,5.0,387.2041459999309,1.0,0.0,part_2,go,300.0,250.0,1.0,,,,,,,,,gray,I
0.0,4.0,4.0,0.0,6.0,6.0,377.6719269999375,1.0,0.0,part_2,go,300.0,250.0,1.0,,,,,,,,,blue,cross
0.0,5.0,1.0,1.0,6.0,6.0,422.1613849999812,1.0,0.0,part_2,stop,300.0,250.0,3.0,,,,,,,,,white,flipped triangle
0.0,5.0,1.0,1.0,5.0,0.0,0.0,1.0,0.0,part_2,stop,300.0,200.0,4.0,,,,,,,,,white,flipped triangle
0.0,3.0,3.0,0.0,5.0,5.0,367.0951900003274,1.0,0.0,part_2,go,350.0,200.0,1.0,,,,,,,,,orange,hexagon
0.0,2.0,2.0,0.0,6.0,6.0,415.6329339998592,1.0,0.0,part_2,go,350.0,200.0,1.0,,,,,,,,,gray,I
0.0,4.0,4.0,0.0,5.0,5.0,443.8929240000107,1.0,0.0,part_2,go,350.0,200.0,1.0,,,,,,,,,blue,cross
0.0,4.0,4.0,0.0,6.0,6.0,454.1843440001685,1.0,0.0,part_2,go,350.0,200.0,1.0,,,,,,,,,blue,cross
0.0,7.0,3.0,1.0,6.0,6.0,435.0487599999724,1.0,0.0,part_2,stop,350.0,200.0,3.0,,,,,,,,,green,circle
0.0,6.0,2.0,1.0,6.0,0.0,0.0,1.0,0.0,part_2,stop,350.0,150.0,4.0,,,,,,,,,yellow,triangle
0.0,8.0,4.0,1.0,6.0,0.0,0.0,1.0,0.0,part_2,stop,350.0,200.0,4.0,,,,,,,,,magenta,square
0.0,2.0,2.0,0.0,5.0,5.0,585.6919279999602,1.0,0.0,part_2,go,350.0,250.0,1.0,,,,,,,,,gray,I
0.0,1.0,1.0,0.0,5.0,5.0,367.8510689996983,1.0,0.0,part_2,go,350.0,250.0,1.0,,,,,,,,,cyan,diamond
0.0,4.0,4.0,0.0,6.0,6.0,443.9932240002235,1.0,0.0,part_2,go,350.0,250.0,1.0,,,,,,,,,blue,cross
0.0,1.0,1.0,0.0,6.0,6.0,378.5232870000072,1.0,0.0,part_2,go,350.0,250.0,1.0,,,,,,,,,cyan,diamond
0.0,7.0,3.0,1.0,6.0,6.0,481.2082640000881,1.0,0.0,part_2,go,350.0,250.0,1.0,,,,,,,,,green,circle
0.0,6.0,2.0,1.0,6.0,0.0,0.0,1.0,0.0,part_2,stop,350.0,250.0,4.0,,,,,,,,,yellow,triangle
0.0,4.0,4.0,0.0,6.0,6.0,464.2843199999333,1.0,0.0,part_2,go,350.0,300.0,1.0,,,,,,,,,blue,cross
0.0,8.0,4.0,1.0,5.0,5.0,453.0639519998658,1.0,0.0,part_2,go,350.0,300.0,1.0,,,,,,,,,magenta,square
0.0,5.0,1.0,1.0,5.0,5.0,348.5852720000366,1.0,0.0,part_2,stop,350.0,300.0,3.0,,,,,,,,,white,flipped triangle
0.0,6.0,2.0,1.0,6.0,0.0,0.0,1.0,0.0,part_2,stop,300.0,300.0,4.0,,,,,,,,,yellow,triangle
0.0,1.0,1.0,0.0,5.0,5.0,434.4361789999311,1.0,0.0,part_2,go,300.0,350.0,1.0,,,,,,,,,cyan,diamond
0.0,7.0,3.0,1.0,5.0,0.0,0.0,1.0,0.0,part_2,stop,300.0,350.0,4.0,,,,,,,,,green,circle
0.0,1.0,1.0,0.0,5.0,5.0,716.9684890000099,1.0,0.0,part_2,go,350.0,350.0,1.0,,,,,,,,,cyan,diamond
0.0,1.0,1.0,0.0,6.0,6.0,359.4074279999404,1.0,0.0,part_2,go,350.0,350.0,1.0,,,,,,,,,cyan,diamond
0.0,7.0,3.0,1.0,6.0,6.0,385.5942019999929,1.0,0.0,part_2,stop,350.0,350.0,3.0,,,,,,,,,green,circle
0.0,3.0,3.0,0.0,6.0,6.0,472.705311000027,1.0,0.0,part_2,go,350.0,300.0,1.0,,,,,,,,,orange,hexagon
0.0,7.0,3.0,1.0,5.0,5.0,379.7181390000332,1.0,0.0,part_2,stop,350.0,300.0,3.0,,,,,,,,,green,circle
0.0,3.0,3.0,0.0,5.0,5.0,848.3818429999701,1.0,0.0,part_2,go,300.0,300.0,1.0,,,,,,,,,orange,hexagon
0.0,8.0,4.0,1.0,5.0,0.0,0.0,1.0,0.0,part_2,stop,300.0,300.0,4.0,,,,,,,,,magenta,square
0.0,6.0,2.0,1.0,5.0,5.0,595.7271810002567,1.0,0.0,part_2,go,350.0,300.0,1.0,,,,,,,,,yellow,triangle
0.0,5.0,1.0,1.0,5.0,5.0,483.4871069997462,1.0,0.0,part_2,go,350.0,300.0,1.0,,,,,,,,,white,flipped triangle
0.0,2.0,2.0,0.0,6.0,6.0,443.0411890002688,1.0,0.0,part_2,go,350.0,300.0,1.0,,,,,,,,,gray,I
0.0,1.0,1.0,0.0,6.0,6.0,754.2434290003257,2.0,0.0,part_2,go,350.0,300.0,1.0,,,,,,,,,cyan,diamond
0.0,1.0,1.0,0.0,5.0,5.0,331.9348649997664,2.0,0.0,part_2,go,350.0,300.0,1.0,,,,,,,,,cyan,diamond
0.0,8.0,4.0,1.0,5.0,5.0,358.4718910001356,2.0,0.0,part_2,go,350.0,300.0,1.0,,,,,,,,,magenta,square
0.0,6.0,2.0,1.0,6.0,6.0,344.1031289999046,2.0,0.0,part_2,stop,350.0,300.0,3.0,,,,,,,,,yellow,triangle
0.0,2.0,2.0,0.0,5.0,5.0,640.8851720002531,2.0,0.0,part_2,go,350.0,250.0,1.0,,,,,,,,,gray,I
0.0,5.0,1.0,1.0,5.0,5.0,470.5037730000185,2.0,0.0,part_2,stop,350.0,250.0,3.0,,,,,,,,,white,flipped triangle
0.0,8.0,4.0,1.0,6.0,0.0,0.0,2.0,0.0,part_2,stop,300.0,250.0,4.0,,,,,,,,,magenta,square
0.0,8.0,4.0,1.0,5.0,0.0,0.0,2.0,0.0,part_2,stop,300.0,300.0,4.0,,,,,,,,,magenta,square
0.0,3.0,3.0,0.0,6.0,6.0,461.9209289999162,2.0,0.0,part_2,go,350.0,300.0,1.0,,,,,,,,,orange,hexagon
0.0,5.0,1.0,1.0,6.0,6.0,436.6912539999248,2.0,0.0,part_2,stop,350.0,300.0,3.0,,,,,,,,,white,flipped triangle
0.0,7.0,3.0,1.0,5.0,5.0,528.4884559996499,2.0,0.0,part_2,stop,350.0,250.0,3.0,,,,,,,,,green,circle
0.0,8.0,4.0,1.0,6.0,0.0,0.0,2.0,0.0,part_2,stop,300.0,250.0,4.0,,,,,,,,,magenta,square
0.0,4.0,4.0,0.0,5.0,5.0,582.6423680000516,2.0,0.0,part_2,go,300.0,300.0,1.0,,,,,,,,,blue,cross
0.0,4.0,4.0,0.0,6.0,6.0,613.456221999968,2.0,0.0,part_2,go,300.0,300.0,1.0,,,,,,,,,blue,cross
0.0,7.0,3.0,1.0,6.0,6.0,395.9736169999814,2.0,0.0,part_2,stop,300.0,300.0,3.0,,,,,,,,,green,circle
0.0,6.0,2.0,1.0,6.0,0.0,0.0,2.0,0.0,part_2,stop,300.0,250.0,4.0,,,,,,,,,yellow,triangle
0.0,4.0,4.0,0.0,6.0,6.0,801.0233579998385,2.0,0.0,part_2,go,300.0,300.0,1.0,,,,,,,,,blue,cross
0.0,1.0,1.0,0.0,6.0,6.0,689.6275300000525,2.0,0.0,part_2,go,300.0,300.0,1.0,,,,,,,,,cyan,diamond
0.0,5.0,1.0,1.0,5.0,0.0,0.0,2.0,0.0,part_2,stop,300.0,300.0,4.0,,,,,,,,,white,flipped triangle
0.0,8.0,4.0,1.0,5.0,0.0,0.0,2.0,0.0,part_2,stop,350.0,300.0,4.0,,,,,,,,,magenta,square
0.0,8.0,4.0,1.0,5.0,0.0,0.0,2.0,0.0,part_2,stop,400.0,300.0,4.0,,,,,,,,,magenta,square
0.0,8.0,4.0,1.0,6.0,6.0,1260.8156219998818,2.0,0.0,part_2,go,450.0,300.0,1.0,,,,,,,,,magenta,square
0.0,4.0,4.0,0.0,5.0,5.0,443.34839299972367,2.0,0.0,part_2,go,450.0,300.0,1.0,,,,,,,,,blue,cross
0.0,1.0,1.0,0.0,5.0,5.0,659.6036990003995,2.0,0.0,part_2,go,450.0,300.0,1.0,,,,,,,,,cyan,diamond
0.0,3.0,3.0,0.0,6.0,6.0,583.5866710003756,2.0,0.0,part_2,go,450.0,300.0,1.0,,,,,,,,,orange,hexagon
0.0,3.0,3.0,0.0,6.0,6.0,489.6831149999343,2.0,0.0,part_2,go,450.0,300.0,1.0,,,,,,,,,orange,hexagon
0.0,2.0,2.0,0.0,6.0,6.0,405.4961810002169,2.0,0.0,part_2,go,450.0,300.0,1.0,,,,,,,,,gray,I
0.0,7.0,3.0,1.0,6.0,6.0,451.2202800001432,2.0,0.0,part_2,stop,450.0,300.0,3.0,,,,,,,,,green,circle
0.0,4.0,4.0,0.0,5.0,5.0,621.9947599997795,2.0,0.0,part_2,go,450.0,250.0,1.0,,,,,,,,,blue,cross
0.0,4.0,4.0,0.0,5.0,5.0,624.1849660000298,2.0,0.0,part_2,go,450.0,250.0,1.0,,,,,,,,,blue,cross
0.0,5.0,1.0,1.0,6.0,0.0,0.0,2.0,0.0,part_2,stop,450.0,250.0,4.0,,,,,,,,,white,flipped triangle
0.0,2.0,2.0,0.0,5.0,5.0,386.1025369997151,2.0,0.0,part_2,go,450.0,300.0,1.0,,,,,,,,,gray,I
0.0,5.0,1.0,1.0,6.0,6.0,391.8583700001363,2.0,0.0,part_2,stop,450.0,300.0,3.0,,,,,,,,,white,flipped triangle
0.0,1.0,1.0,0.0,5.0,5.0,415.7984059997943,2.0,0.0,part_2,go,450.0,250.0,1.0,,,,,,,,,cyan,diamond
0.0,3.0,3.0,0.0,5.0,5.0,752.8129429997534,2.0,0.0,part_2,go,450.0,250.0,1.0,,,,,,,,,orange,hexagon
0.0,5.0,1.0,1.0,6.0,6.0,367.6422180001282,2.0,0.0,part_2,stop,450.0,250.0,3.0,,,,,,,,,white,flipped triangle
0.0,5.0,1.0,1.0,5.0,5.0,556.5864089999195,3.0,0.0,part_2,go,450.0,200.0,1.0,,,,,,,,,white,flipped triangle
0.0,6.0,2.0,1.0,6.0,6.0,458.9649750000717,3.0,0.0,part_2,stop,450.0,200.0,3.0,,,,,,,,,yellow,triangle
0.0,3.0,3.0,0.0,6.0,6.0,650.5366159999539,3.0,0.0,part_2,go,450.0,150.0,1.0,,,,,,,,,orange,hexagon
0.0,8.0,4.0,1.0,5.0,5.0,529.8601490003421,3.0,0.0,part_2,stop,450.0,150.0,3.0,,,,,,,,,magenta,square
0.0,8.0,4.0,1.0,6.0,6.0,658.5770880001292,3.0,0.0,part_2,go,400.0,150.0,1.0,,,,,,,,,magenta,square
0.0,2.0,2.0,0.0,6.0,6.0,575.7194650000201,3.0,0.0,part_2,go,400.0,150.0,1.0,,,,,,,,,gray,I
0.0,4.0,4.0,0.0,5.0,5.0,546.0288929998569,3.0,0.0,part_2,go,400.0,150.0,1.0,,,,,,,,,blue,cross
0.0,4.0,4.0,0.0,6.0,6.0,744.5910569999796,3.0,0.0,part_2,go,400.0,150.0,1.0,,,,,,,,,blue,cross
0.0,8.0,4.0,1.0,5.0,0.0,0.0,3.0,0.0,part_2,stop,400.0,150.0,4.0,,,,,,,,,magenta,square
0.0,2.0,2.0,0.0,6.0,6.0,773.0203910000455,3.0,0.0,part_2,go,450.0,150.0,1.0,,,,,,,,,gray,I
0.0,7.0,3.0,1.0,6.0,6.0,565.0328079996143,3.0,0.0,part_2,go,450.0,150.0,1.0,,,,,,,,,green,circle
0.0,1.0,1.0,0.0,5.0,5.0,508.92260499995245,3.0,0.0,part_2,go,450.0,150.0,1.0,,,,,,,,,cyan,diamond
0.0,8.0,4.0,1.0,6.0,0.0,0.0,3.0,0.0,part_2,stop,450.0,150.0,4.0,,,,,,,,,magenta,square
0.0,2.0,2.0,0.0,5.0,5.0,679.0199229999416,3.0,0.0,part_2,go,450.0,200.0,1.0,,,,,,,,,gray,I
0.0,4.0,4.0,0.0,5.0,5.0,414.389139999912,3.0,0.0,part_2,go,450.0,200.0,1.0,,,,,,,,,blue,cross
0.0,4.0,4.0,0.0,5.0,5.0,772.2798750000948,3.0,0.0,part_2,go,450.0,200.0,1.0,,,,,,,,,blue,cross
0.0,5.0,1.0,1.0,6.0,6.0,752.5366179997945,3.0,0.0,part_2,go,450.0,200.0,1.0,,,,,,,,,white,flipped triangle
0.0,3.0,3.0,0.0,5.0,5.0,714.8145619999013,3.0,0.0,part_2,go,450.0,200.0,1.0,,,,,,,,,orange,hexagon
0.0,7.0,3.0,1.0,5.0,5.0,696.9561030000477,3.0,0.0,part_2,go,450.0,200.0,1.0,,,,,,,,,green,circle
0.0,5.0,1.0,1.0,5.0,5.0,492.9952759998741,3.0,0.0,part_2,stop,450.0,200.0,3.0,,,,,,,,,white,flipped triangle
0.0,1.0,1.0,0.0,6.0,6.0,613.250465999954,3.0,0.0,part_2,go,400.0,200.0,1.0,,,,,,,,,cyan,diamond
0.0,6.0,2.0,1.0,6.0,0.0,0.0,3.0,0.0,part_2,stop,400.0,200.0,4.0,,,,,,,,,yellow,triangle
0.0,5.0,1.0,1.0,5.0,5.0,556.2158070001715,3.0,0.0,part_2,go,400.0,250.0,1.0,,,,,,,,,white,flipped triangle
0.0,2.0,2.0,0.0,6.0,6.0,912.4418619999232,3.0,0.0,part_2,go,400.0,250.0,1.0,,,,,,,,,gray,I
0.0,5.0,1.0,1.0,5.0,5.0,376.7311040001004,3.0,0.0,part_2,stop,400.0,250.0,3.0,,,,,,,,,white,flipped triangle
0.0,6.0,2.0,1.0,5.0,5.0,321.0095409999667,3.0,0.0,part_2,stop,350.0,250.0,3.0,,,,,,,,,yellow,triangle
0.0,7.0,3.0,1.0,5.0,0.0,0.0,3.0,0.0,part_2,stop,300.0,250.0,4.0,,,,,,,,,green,circle
0.0,3.0,3.0,0.0,5.0,5.0,509.6990020001613,3.0,0.0,part_2,go,350.0,250.0,1.0,,,,,,,,,orange,hexagon
0.0,6.0,2.0,1.0,6.0,6.0,378.897582999798,3.0,0.0,part_2,stop,350.0,250.0,3.0,,,,,,,,,yellow,triangle
0.0,7.0,3.0,1.0,5.0,0.0,0.0,3.0,0.0,part_2,stop,350.0,200.0,4.0,,,,,,,,,green,circle
0.0,5.0,1.0,1.0,6.0,0.0,0.0,3.0,0.0,part_2,stop,400.0,200.0,4.0,,,,,,,,,white,flipped triangle
0.0,2.0,2.0,0.0,5.0,5.0,651.1194820000128,3.0,0.0,part_2,go,400.0,250.0,1.0,,,,,,,,,gray,I
0.0,1.0,1.0,0.0,5.0,5.0,760.9244220002438,3.0,0.0,part_2,go,400.0,250.0,1.0,,,,,,,,,cyan,diamond
0.0,1.0,1.0,0.0,5.0,5.0,604.7142709999207,3.0,0.0,part_2,go,400.0,250.0,1.0,,,,,,,,,cyan,diamond
0.0,3.0,3.0,0.0,5.0,5.0,546.2536750001163,3.0,0.0,part_2,go,400.0,250.0,1.0,,,,,,,,,orange,hexagon
0.0,4.0,4.0,0.0,6.0,6.0,377.7059799999733,3.0,0.0,part_2,go,400.0,250.0,1.0,,,,,,,,,blue,cross
0.0,4.0,4.0,0.0,6.0,6.0,767.3002090000409,4.0,0.0,part_2,go,400.0,250.0,1.0,,,,,,,,,blue,cross
0.0,1.0,1.0,0.0,6.0,6.0,650.4767900000843,4.0,0.0,part_2,go,400.0,250.0,1.0,,,,,,,,,cyan,diamond
0.0,2.0,2.0,0.0,6.0,6.0,378.0690779999531,4.0,0.0,part_2,go,400.0,250.0,1.0,,,,,,,,,gray,I
0.0,8.0,4.0,1.0,5.0,5.0,348.5549759998321,4.0,0.0,part_2,stop,400.0,250.0,3.0,,,,,,,,,magenta,square
0.0,6.0,2.0,1.0,6.0,6.0,631.5374790001442,4.0,0.0,part_2,go,350.0,250.0,1.0,,,,,,,,,yellow,triangle
0.0,3.0,3.0,0.0,6.0,6.0,671.9572100000732,4.0,0.0,part_2,go,350.0,250.0,1.0,,,,,,,,,orange,hexagon
0.0,3.0,3.0,0.0,6.0,6.0,329.9681620001138,4.0,0.0,part_2,go,350.0,250.0,1.0,,,,,,,,,orange,hexagon
0.0,4.0,4.0,0.0,5.0,5.0,368.3305719996497,4.0,0.0,part_2,go,350.0,250.0,1.0,,,,,,,,,blue,cross
0.0,8.0,4.0,1.0,5.0,5.0,498.2835830001022,4.0,0.0,part_2,stop,350.0,250.0,3.0,,,,,,,,,magenta,square
0.0,2.0,2.0,0.0,5.0,5.0,614.0230740002153,4.0,0.0,part_2,go,300.0,250.0,1.0,,,,,,,,,gray,I
0.0,7.0,3.0,1.0,6.0,6.0,379.3641229999593,4.0,0.0,part_2,stop,300.0,250.0,3.0,,,,,,,,,green,circle
0.0,8.0,4.0,1.0,6.0,6.0,539.1008910000892,4.0,0.0,part_2,go,300.0,200.0,1.0,,,,,,,,,magenta,square
0.0,6.0,2.0,1.0,6.0,6.0,398.2239269998899,4.0,0.0,part_2,stop,300.0,200.0,3.0,,,,,,,,,yellow,triangle
0.0,8.0,4.0,1.0,6.0,0.0,0.0,4.0,0.0,part_2,stop,300.0,150.0,4.0,,,,,,,,,magenta,square
0.0,6.0,2.0,1.0,5.0,5.0,532.1363210000527,4.0,0.0,part_2,stop,300.0,200.0,3.0,,,,,,,,,yellow,triangle
0.0,1.0,1.0,0.0,5.0,5.0,575.7448819999809,4.0,0.0,part_2,go,250.0,200.0,1.0,,,,,,,,,cyan,diamond
0.0,6.0,2.0,1.0,6.0,6.0,434.1113929999665,4.0,0.0,part_2,go,250.0,200.0,1.0,,,,,,,,,yellow,triangle
0.0,7.0,3.0,1.0,5.0,5.0,441.8451280002955,4.0,0.0,part_2,stop,250.0,200.0,3.0,,,,,,,,,green,circle
0.0,6.0,2.0,1.0,5.0,0.0,0.0,4.0,0.0,part_2,stop,200.0,200.0,4.0,,,,,,,,,yellow,triangle
0.0,5.0,1.0,1.0,5.0,0.0,0.0,4.0,0.0,part_2,stop,250.0,200.0,4.0,,,,,,,,,white,flipped triangle
0.0,1.0,1.0,0.0,6.0,6.0,677.8745090000484,4.0,0.0,part_2,go,300.0,200.0,1.0,,,,,,,,,cyan,diamond
0.0,5.0,1.0,1.0,5.0,5.0,476.8632889999935,4.0,0.0,part_2,stop,300.0,200.0,3.0,,,,,,,,,white,flipped triangle
0.0,8.0,4.0,1.0,6.0,0.0,0.0,4.0,0.0,part_2,stop,250.0,200.0,4.0,,,,,,,,,magenta,square
0.0,4.0,4.0,0.0,5.0,5.0,725.9171690002404,4.0,0.0,part_2,go,250.0,250.0,1.0,,,,,,,,,blue,cross
0.0,2.0,2.0,0.0,6.0,6.0,660.1314940003249,4.0,0.0,part_2,go,250.0,250.0,1.0,,,,,,,,,gray,I
0.0,3.0,3.0,0.0,5.0,5.0,587.8534559997206,4.0,0.0,part_2,go,250.0,250.0,1.0,,,,,,,,,orange,hexagon
0.0,5.0,1.0,1.0,5.0,0.0,0.0,4.0,0.0,part_2,stop,250.0,250.0,4.0,,,,,,,,,white,flipped triangle
0.0,7.0,3.0,1.0,5.0,5.0,699.0202199999658,4.0,0.0,part_2,go,300.0,250.0,1.0,,,,,,,,,green,circle
0.0,7.0,3.0,1.0,5.0,0.0,0.0,4.0,0.0,part_2,stop,300.0,250.0,4.0,,,,,,,,,green,circle
0.0,3.0,3.0,0.0,6.0,6.0,1177.2110440001595,4.0,0.0,part_2,go,350.0,250.0,1.0,,,,,,,,,orange,hexagon
0.0,3.0,3.0,0.0,5.0,5.0,905.1445860000058,4.0,0.0,part_2,go,350.0,250.0,1.0,,,,,,,,,orange,hexagon
0.0,2.0,2.0,0.0,6.0,6.0,707.7590270000655,4.0,0.0,part_2,go,350.0,250.0,1.0,,,,,,,,,gray,I
0.0,5.0,1.0,1.0,6.0,6.0,454.0641919998052,4.0,0.0,part_2,stop,350.0,250.0,3.0,,,,,,,,,white,flipped triangle
0.0,2.0,2.0,0.0,5.0,5.0,641.048512999987,4.0,0.0,part_2,go,350.0,200.0,1.0,,,,,,,,,gray,I
0.0,7.0,3.0,1.0,6.0,0.0,0.0,4.0,0.0,part_2,stop,350.0,200.0,4.0,,,,,,,,,green,circle
0.0,3.0,3.0,0.0,6.0,6.0,794.5228649996352,4.0,0.0,part_2,go,350.0,250.0,1.0,,,,,,,,,orange,hexagon
0.0,3.0,3.0,0.0,5.0,5.0,434.8005740002918,5.0,0.0,part_2,go,350.0,250.0,1.0,,,,,,,,,orange,hexagon
0.0,7.0,3.0,1.0,6.0,0.0,0.0,5.0,0.0,part_2,stop,350.0,250.0,4.0,,,,,,,,,green,circle
0.0,2.0,2.0,0.0,5.0,5.0,558.6255099997288,5.0,0.0,part_2,go,350.0,300.0,1.0,,,,,,,,,gray,I
0.0,5.0,1.0,1.0,6.0,0.0,0.0,5.0,0.0,part_2,stop,350.0,300.0,4.0,,,,,,,,,white,flipped triangle
0.0,6.0,2.0,1.0,5.0,5.0,527.0772909998414,5.0,0.0,part_2,stop,350.0,350.0,3.0,,,,,,,,,yellow,triangle
0.0,1.0,1.0,0.0,6.0,6.0,688.9292819996626,5.0,0.0,part_2,go,300.0,350.0,1.0,,,,,,,,,cyan,diamond
0.0,1.0,1.0,0.0,5.0,5.0,558.0464390000088,5.0,0.0,part_2,go,300.0,350.0,1.0,,,,,,,,,cyan,diamond
0.0,8.0,4.0,1.0,6.0,6.0,407.2888499999862,5.0,0.0,part_2,stop,300.0,350.0,3.0,,,,,,,,,magenta,square
0.0,5.0,1.0,1.0,6.0,0.0,0.0,5.0,0.0,part_2,stop,300.0,300.0,4.0,,,,,,,,,white,flipped triangle
0.0,7.0,3.0,1.0,6.0,0.0,0.0,5.0,0.0,part_2,stop,300.0,350.0,4.0,,,,,,,,,green,circle
0.0,8.0,4.0,1.0,6.0,6.0,850.2157149996492,5.0,0.0,part_2,go,300.0,400.0,1.0,,,,,,,,,magenta,square
0.0,4.0,4.0,0.0,6.0,6.0,519.9382689997947,5.0,0.0,part_2,go,300.0,400.0,1.0,,,,,,,,,blue,cross
0.0,5.0,1.0,1.0,5.0,5.0,335.2514609996433,5.0,0.0,part_2,stop,300.0,400.0,3.0,,,,,,,,,white,flipped triangle
0.0,6.0,2.0,1.0,5.0,0.0,0.0,5.0,0.0,part_2,stop,250.0,400.0,4.0,,,,,,,,,yellow,triangle
0.0,7.0,3.0,1.0,6.0,6.0,576.4480679999906,5.0,0.0,part_2,go,300.0,400.0,1.0,,,,,,,,,green,circle
0.0,3.0,3.0,0.0,6.0,6.0,453.2925519997661,5.0,0.0,part_2,go,300.0,400.0,1.0,,,,,,,,,orange,hexagon
0.0,8.0,4.0,1.0,6.0,6.0,433.584466999946,5.0,0.0,part_2,go,300.0,400.0,1.0,,,,,,,,,magenta,square
0.0,3.0,3.0,0.0,6.0,6.0,605.2253640000345,5.0,0.0,part_2,go,300.0,400.0,1.0,,,,,,,,,orange,hexagon
0.0,6.0,2.0,1.0,6.0,6.0,397.2246680000353,5.0,0.0,part_2,stop,300.0,400.0,3.0,,,,,,,,,yellow,triangle
0.0,2.0,2.0,0.0,5.0,5.0,462.4169630001233,5.0,0.0,part_2,go,300.0,350.0,1.0,,,,,,,,,gray,I
0.0,2.0,2.0,0.0,5.0,5.0,415.5442340002082,5.0,0.0,part_2,go,300.0,350.0,1.0,,,,,,,,,gray,I
0.0,1.0,1.0,0.0,5.0,5.0,538.5091499997543,5.0,0.0,part_2,go,300.0,350.0,1.0,,,,,,,,,cyan,diamond
0.0,2.0,2.0,0.0,5.0,5.0,434.6300289998908,5.0,0.0,part_2,go,300.0,350.0,1.0,,,,,,,,,gray,I
0.0,8.0,4.0,1.0,5.0,5.0,416.640808000011,5.0,0.0,part_2,go,300.0,350.0,1.0,,,,,,,,,magenta,square
0.0,2.0,2.0,0.0,6.0,6.0,415.8000709999214,5.0,0.0,part_2,go,300.0,350.0,1.0,,,,,,,,,gray,I
0.0,5.0,1.0,1.0,6.0,0.0,0.0,5.0,0.0,part_2,stop,300.0,350.0,4.0,,,,,,,,,white,flipped triangle
0.0,8.0,4.0,1.0,6.0,0.0,0.0,5.0,0.0,part_2,stop,300.0,400.0,4.0,,,,,,,,,magenta,square
0.0,3.0,3.0,0.0,5.0,5.0,632.0711889998165,5.0,0.0,part_2,go,300.0,450.0,1.0,,,,,,,,,orange,hexagon
0.0,7.0,3.0,1.0,5.0,5.0,441.0110210001221,5.0,0.0,part_2,stop,300.0,450.0,3.0,,,,,,,,,green,circle
0.0,1.0,1.0,0.0,5.0,5.0,566.3965960002315,5.0,0.0,part_2,go,250.0,450.0,1.0,,,,,,,,,cyan,diamond
0.0,5.0,1.0,1.0,6.0,6.0,654.6305020001455,5.0,0.0,part_2,stop,250.0,450.0,3.0,,,,,,,,,white,flipped triangle
0.0,7.0,3.0,1.0,6.0,6.0,593.9361390001068,5.0,0.0,part_2,go,250.0,400.0,1.0,,,,,,,,,green,circle
0.0,2.0,2.0,0.0,6.0,6.0,622.6240109999708,5.0,0.0,part_2,go,250.0,400.0,1.0,,,,,,,,,gray,I
0.0,1.0,1.0,0.0,5.0,5.0,302.6939629999106,5.0,0.0,part_2,go,250.0,400.0,1.0,,,,,,,,,cyan,diamond
0.0,2.0,2.0,0.0,5.0,5.0,397.7815819998795,5.0,0.0,part_2,go,250.0,400.0,1.0,,,,,,,,,gray,I
0.0,2.0,2.0,0.0,5.0,5.0,358.2626930001424,5.0,0.0,part_2,go,250.0,400.0,1.0,,,,,,,,,gray,I
0.0,3.0,3.0,0.0,6.0,0.0,0.0,6.0,0.0,part_2,go,250.0,400.0,5.0,,,,,,,,,orange,hexagon
0.0,7.0,3.0,1.0,5.0,5.0,418.0338430001029,6.0,0.0,part_2,stop,250.0,400.0,3.0,,,,,,,,,green,circle
0.0,6.0,2.0,1.0,5.0,5.0,385.4574169999978,6.0,0.0,part_2,stop,200.0,400.0,3.0,,,,,,,,,yellow,triangle
0.0,3.0,3.0,0.0,6.0,6.0,501.847429999998,6.0,0.0,part_2,go,150.0,400.0,1.0,,,,,,,,,orange,hexagon
0.0,5.0,1.0,1.0,6.0,6.0,398.3411029998933,6.0,0.0,part_2,go,150.0,400.0,1.0,,,,,,,,,white,flipped triangle
0.0,2.0,2.0,0.0,6.0,6.0,426.7613869997149,6.0,0.0,part_2,go,150.0,400.0,1.0,,,,,,,,,gray,I
0.0,3.0,3.0,0.0,5.0,5.0,389.6483440003067,6.0,0.0,part_2,go,150.0,400.0,1.0,,,,,,,,,orange,hexagon
0.0,4.0,4.0,0.0,5.0,5.0,437.0384220001142,6.0,0.0,part_2,go,150.0,400.0,1.0,,,,,,,,,blue,cross
0.0,4.0,4.0,0.0,5.0,5.0,455.699482,6.0,0.0,part_2,go,150.0,400.0,1.0,,,,,,,,,blue,cross
0.0,6.0,2.0,1.0,6.0,6.0,511.8148259998634,6.0,0.0,part_2,stop,150.0,400.0,3.0,,,,,,,,,yellow,triangle
0.0,7.0,3.0,1.0,5.0,0.0,0.0,6.0,0.0,part_2,stop,150.0,350.0,4.0,,,,,,,,,green,circle
0.0,6.0,2.0,1.0,6.0,6.0,636.2535789999129,6.0,0.0,part_2,go,200.0,350.0,1.0,,,,,,,,,yellow,triangle
0.0,1.0,1.0,0.0,5.0,5.0,614.6677210003872,6.0,0.0,part_2,go,200.0,350.0,1.0,,,,,,,,,cyan,diamond
0.0,5.0,1.0,1.0,5.0,0.0,0.0,6.0,0.0,part_2,stop,200.0,350.0,4.0,,,,,,,,,white,flipped triangle
0.0,4.0,4.0,0.0,5.0,5.0,608.4086910000224,6.0,0.0,part_2,go,250.0,350.0,1.0,,,,,,,,,blue,cross
0.0,7.0,3.0,1.0,6.0,6.0,737.4675629998819,6.0,0.0,part_2,go,250.0,350.0,1.0,,,,,,,,,green,circle
0.0,3.0,3.0,0.0,5.0,5.0,418.1167770002503,6.0,0.0,part_2,go,250.0,350.0,1.0,,,,,,,,,orange,hexagon
0.0,2.0,2.0,0.0,6.0,6.0,342.4342819998855,6.0,0.0,part_2,go,250.0,350.0,1.0,,,,,,,,,gray,I
0.0,2.0,2.0,0.0,6.0,6.0,390.5512410001392,6.0,0.0,part_2,go,250.0,350.0,1.0,,,,,,,,,gray,I
0.0,6.0,2.0,1.0,5.0,5.0,388.330684000266,6.0,0.0,part_2,go,250.0,350.0,1.0,,,,,,,,,yellow,triangle
0.0,6.0,2.0,1.0,6.0,0.0,0.0,6.0,0.0,part_2,stop,250.0,350.0,4.0,,,,,,,,,yellow,triangle
0.0,3.0,3.0,0.0,5.0,5.0,549.1232719996333,6.0,0.0,part_2,go,250.0,400.0,1.0,,,,,,,,,orange,hexagon
0.0,4.0,4.0,0.0,6.0,6.0,464.6043729999292,6.0,0.0,part_2,go,250.0,400.0,1.0,,,,,,,,,blue,cross
0.0,8.0,4.0,1.0,6.0,0.0,0.0,6.0,0.0,part_2,stop,250.0,400.0,4.0,,,,,,,,,magenta,square
0.0,4.0,4.0,0.0,6.0,6.0,786.3899039998614,6.0,0.0,part_2,go,250.0,450.0,1.0,,,,,,,,,blue,cross
0.0,3.0,3.0,0.0,6.0,6.0,888.6112589998447,6.0,0.0,part_2,go,250.0,450.0,1.0,,,,,,,,,orange,hexagon
0.0,1.0,1.0,0.0,6.0,6.0,643.6305260003792,6.0,0.0,part_2,go,250.0,450.0,1.0,,,,,,,,,cyan,diamond
0.0,5.0,1.0,1.0,6.0,6.0,538.6204769997676,6.0,0.0,part_2,go,250.0,450.0,1.0,,,,,,,,,white,flipped triangle
0.0,4.0,4.0,0.0,5.0,5.0,464.3529940003645,6.0,0.0,part_2,go,250.0,450.0,1.0,,,,,,,,,blue,cross
0.0,1.0,1.0,0.0,6.0,6.0,379.7192510000968,6.0,0.0,part_2,go,250.0,450.0,1.0,,,,,,,,,cyan,diamond
0.0,3.0,3.0,0.0,5.0,5.0,358.2977089999986,6.0,0.0,part_2,go,250.0,450.0,1.0,,,,,,,,,orange,hexagon
0.0,7.0,3.0,1.0,6.0,6.0,313.3107119997476,6.0,0.0,part_2,stop,250.0,450.0,3.0,,,,,,,,,green,circle
0.0,6.0,2.0,1.0,5.0,0.0,0.0,6.0,0.0,part_2,stop,250.0,400.0,4.0,,,,,,,,,yellow,triangle
0.0,1.0,1.0,0.0,6.0,6.0,605.9678060000806,6.0,0.0,part_2,go,300.0,400.0,1.0,,,,,,,,,cyan,diamond
0.0,6.0,2.0,1.0,5.0,0.0,0.0,6.0,0.0,part_2,stop,300.0,400.0,4.0,,,,,,,,,yellow,triangle
0.0,8.0,4.0,1.0,5.0,5.0,471.8292530001235,6.0,0.0,part_2,stop,350.0,400.0,3.0,,,,,,,,,magenta,square
0.0,5.0,1.0,1.0,6.0,6.0,637.5936619997447,7.0,0.0,part_2,go,300.0,400.0,1.0,,,,,,,,,white,flipped triangle
0.0,7.0,3.0,1.0,6.0,6.0,435.0484749998031,7.0,0.0,part_2,go,300.0,400.0,1.0,,,,,,,,,green,circle
0.0,2.0,2.0,0.0,5.0,5.0,453.2243220000964,7.0,0.0,part_2,go,300.0,400.0,1.0,,,,,,,,,gray,I
0.0,7.0,3.0,1.0,6.0,6.0,496.7351380000764,7.0,0.0,part_2,stop,300.0,400.0,3.0,,,,,,,,,green,circle
0.0,7.0,3.0,1.0,6.0,6.0,496.7360910000025,7.0,0.0,part_2,stop,300.0,350.0,3.0,,,,,,,,,green,circle
0.0,4.0,4.0,0.0,5.0,5.0,651.3656990000527,7.0,0.0,part_2,go,300.0,300.0,1.0,,,,,,,,,blue,cross
0.0,4.0,4.0,0.0,5.0,5.0,746.192369000255,7.0,0.0,part_2,go,300.0,300.0,1.0,,,,,,,,,blue,cross
0.0,3.0,3.0,0.0,5.0,5.0,688.8316180002221,7.0,0.0,part_2,go,300.0,300.0,1.0,,,,,,,,,orange,hexagon
0.0,5.0,1.0,1.0,6.0,6.0,363.1593999998586,7.0,0.0,part_2,stop,300.0,300.0,3.0,,,,,,,,,white,flipped triangle
0.0,1.0,1.0,0.0,5.0,5.0,312.4151179999899,7.0,0.0,part_2,go,300.0,250.0,1.0,,,,,,,,,cyan,diamond
0.0,7.0,3.0,1.0,5.0,5.0,442.8434390001712,7.0,0.0,part_2,stop,300.0,250.0,3.0,,,,,,,,,green,circle
0.0,4.0,4.0,0.0,6.0,6.0,623.1928619999962,7.0,0.0,part_2,go,250.0,250.0,1.0,,,,,,,,,blue,cross
0.0,5.0,1.0,1.0,5.0,0.0,0.0,7.0,0.0,part_2,stop,250.0,250.0,4.0,,,,,,,,,white,flipped triangle
0.0,6.0,2.0,1.0,5.0,0.0,0.0,7.0,0.0,part_2,stop,300.0,250.0,4.0,,,,,,,,,yellow,triangle
0.0,3.0,3.0,0.0,6.0,6.0,530.1091329993142,7.0,0.0,part_2,go,350.0,250.0,1.0,,,,,,,,,orange,hexagon
0.0,3.0,3.0,0.0,5.0,5.0,670.1476419993924,7.0,0.0,part_2,go,350.0,250.0,1.0,,,,,,,,,orange,hexagon
0.0,1.0,1.0,0.0,5.0,5.0,483.0282579996492,7.0,0.0,part_2,go,350.0,250.0,1.0,,,,,,,,,cyan,diamond
0.0,1.0,1.0,0.0,6.0,6.0,331.3182100000631,7.0,0.0,part_2,go,350.0,250.0,1.0,,,,,,,,,cyan,diamond
0.0,8.0,4.0,1.0,5.0,5.0,320.7713840001815,7.0,0.0,part_2,stop,350.0,250.0,3.0,,,,,,,,,magenta,square
0.0,1.0,1.0,0.0,5.0,5.0,463.2868559992857,7.0,0.0,part_2,go,300.0,250.0,1.0,,,,,,,,,cyan,diamond
0.0,3.0,3.0,0.0,5.0,5.0,653.04154200021,7.0,0.0,part_2,go,300.0,250.0,1.0,,,,,,,,,orange,hexagon
0.0,1.0,1.0,0.0,6.0,6.0,330.318903999796,7.0,0.0,part_2,go,300.0,250.0,1.0,,,,,,,,,cyan,diamond
0.0,7.0,3.0,1.0,5.0,5.0,351.4116859996647,7.0,0.0,part_2,stop,300.0,250.0,3.0,,,,,,,,,green,circle
0.0,8.0,4.0,1.0,5.0,5.0,414.4658870000057,7.0,0.0,part_2,stop,250.0,250.0,3.0,,,,,,,,,magenta,square
0.0,7.0,3.0,1.0,5.0,5.0,774.5857549998618,7.0,0.0,part_2,go,200.0,250.0,1.0,,,,,,,,,green,circle
0.0,5.0,1.0,1.0,6.0,6.0,717.3094859999765,7.0,0.0,part_2,go,200.0,250.0,1.0,,,,,,,,,white,flipped triangle
0.0,8.0,4.0,1.0,6.0,0.0,0.0,7.0,0.0,part_2,stop,200.0,250.0,4.0,,,,,,,,,magenta,square
0.0,7.0,3.0,1.0,6.0,6.0,491.684159000215,7.0,0.0,part_2,stop,200.0,300.0,3.0,,,,,,,,,green,circle
0.0,6.0,2.0,1.0,6.0,0.0,0.0,7.0,0.0,part_2,stop,200.0,250.0,4.0,,,,,,,,,yellow,triangle
0.0,3.0,3.0,0.0,6.0,6.0,681.7084160002196,7.0,0.0,part_2,go,200.0,300.0,1.0,,,,,,,,,orange,hexagon
0.0,1.0,1.0,0.0,6.0,6.0,616.0059270005149,7.0,0.0,part_2,go,200.0,300.0,1.0,,,,,,,,,cyan,diamond
0.0,6.0,2.0,1.0,6.0,6.0,394.5713200000682,7.0,0.0,part_2,stop,200.0,300.0,3.0,,,,,,,,,yellow,triangle
0.0,5.0,1.0,1.0,5.0,0.0,0.0,7.0,0.0,part_2,stop,200.0,250.0,4.0,,,,,,,,,white,flipped triangle
0.0,4.0,4.0,0.0,6.0,6.0,632.40620400029,7.0,0.0,part_2,go,250.0,250.0,1.0,,,,,,,,,blue,cross
0.0,6.0,2.0,1.0,5.0,5.0,699.7903330002373,7.0,0.0,part_2,go,250.0,250.0,1.0,,,,,,,,,yellow,triangle
0.0,4.0,4.0,0.0,6.0,6.0,414.4405710003411,7.0,0.0,part_2,go,250.0,250.0,1.0,,,,,,,,,blue,cross
0.0,8.0,4.0,1.0,5.0,5.0,392.6472749999448,8.0,0.0,part_2,stop,250.0,250.0,3.0,,,,,,,,,magenta,square
0.0,2.0,2.0,0.0,6.0,6.0,539.3475780001609,8.0,0.0,part_2,go,200.0,250.0,1.0,,,,,,,,,gray,I
0.0,1.0,1.0,0.0,6.0,6.0,388.3029070002521,8.0,0.0,part_2,go,200.0,250.0,1.0,,,,,,,,,cyan,diamond
0.0,4.0,4.0,0.0,6.0,6.0,501.18232000022545,8.0,0.0,part_2,go,200.0,250.0,1.0,,,,,,,,,blue,cross
0.0,8.0,4.0,1.0,6.0,0.0,0.0,8.0,0.0,part_2,stop,200.0,250.0,4.0,,,,,,,,,magenta,square
0.0,1.0,1.0,0.0,6.0,6.0,651.2687920003373,8.0,0.0,part_2,go,200.0,300.0,1.0,,,,,,,,,cyan,diamond
0.0,2.0,2.0,0.0,5.0,5.0,359.0943549997973,8.0,0.0,part_2,go,200.0,300.0,1.0,,,,,,,,,gray,I
0.0,8.0,4.0,1.0,6.0,6.0,447.8422960000898,8.0,0.0,part_2,stop,200.0,300.0,3.0,,,,,,,,,magenta,square
0.0,8.0,4.0,1.0,5.0,0.0,0.0,8.0,0.0,part_2,stop,200.0,250.0,4.0,,,,,,,,,magenta,square
0.0,5.0,1.0,1.0,5.0,0.0,0.0,8.0,0.0,part_2,stop,250.0,250.0,4.0,,,,,,,,,white,flipped triangle
0.0,4.0,4.0,0.0,5.0,5.0,575.416050000058,8.0,0.0,part_2,go,300.0,250.0,1.0,,,,,,,,,blue,cross
0.0,7.0,3.0,1.0,5.0,0.0,0.0,8.0,0.0,part_2,stop,300.0,250.0,4.0,,,,,,,,,green,circle
0.0,6.0,2.0,1.0,5.0,0.0,0.0,8.0,0.0,part_2,stop,350.0,250.0,4.0,,,,,,,,,yellow,triangle
0.0,6.0,2.0,1.0,6.0,6.0,669.6425889995226,8.0,0.0,part_2,go,400.0,250.0,1.0,,,,,,,,,yellow,triangle
0.0,2.0,2.0,0.0,5.0,5.0,501.4394049994735,8.0,0.0,part_2,go,400.0,250.0,1.0,,,,,,,,,gray,I
0.0,8.0,4.0,1.0,5.0,5.0,564.1980560003503,8.0,0.0,part_2,stop,400.0,250.0,3.0,,,,,,,,,magenta,square
0.0,2.0,2.0,0.0,6.0,6.0,568.3090429993172,8.0,0.0,part_2,go,350.0,250.0,1.0,,,,,,,,,gray,I
0.0,7.0,3.0,1.0,5.0,0.0,0.0,8.0,0.0,part_2,stop,350.0,250.0,4.0,,,,,,,,,green,circle
0.0,6.0,2.0,1.0,5.0,5.0,756.339503000163,8.0,0.0,part_2,go,400.0,250.0,1.0,,,,,,,,,yellow,triangle
0.0,5.0,1.0,1.0,6.0,0.0,0.0,8.0,0.0,part_2,stop,400.0,250.0,4.0,,,,,,,,,white,flipped triangle
0.0,1.0,1.0,0.0,6.0,6.0,689.3715929991231,8.0,0.0,part_2,go,400.0,300.0,1.0,,,,,,,,,cyan,diamond
0.0,4.0,4.0,0.0,6.0,6.0,444.7918810001283,8.0,0.0,part_2,go,400.0,300.0,1.0,,,,,,,,,blue,cross
0.0,6.0,2.0,1.0,5.0,5.0,576.9141030004903,8.0,0.0,part_2,go,400.0,300.0,1.0,,,,,,,,,yellow,triangle
0.0,3.0,3.0,0.0,6.0,6.0,755.8973239993065,8.0,0.0,part_2,go,400.0,300.0,1.0,,,,,,,,,orange,hexagon
0.0,2.0,2.0,0.0,6.0,6.0,537.64509299981,8.0,0.0,part_2,go,400.0,300.0,1.0,,,,,,,,,gray,I
0.0,6.0,2.0,1.0,5.0,5.0,709.9989139996978,8.0,0.0,part_2,stop,400.0,300.0,3.0,,,,,,,,,yellow,triangle
0.0,4.0,4.0,0.0,6.0,6.0,471.7559850005273,8.0,0.0,part_2,go,350.0,300.0,1.0,,,,,,,,,blue,cross
0.0,8.0,4.0,1.0,6.0,6.0,1115.1529910002864,8.0,0.0,part_2,go,350.0,300.0,1.0,,,,,,,,,magenta,square
0.0,2.0,2.0,0.0,6.0,6.0,549.4194900002185,8.0,0.0,part_2,go,350.0,300.0,1.0,,,,,,,,,gray,I
0.0,7.0,3.0,1.0,5.0,5.0,445.2492709997386,8.0,0.0,part_2,stop,350.0,300.0,3.0,,,,,,,,,green,circle
0.0,3.0,3.0,0.0,5.0,5.0,586.6008969996983,8.0,0.0,part_2,go,300.0,300.0,1.0,,,,,,,,,orange,hexagon
0.0,6.0,2.0,1.0,5.0,5.0,459.8564809994059,8.0,0.0,part_2,stop,300.0,300.0,3.0,,,,,,,,,yellow,triangle
0.0,4.0,4.0,0.0,5.0,5.0,594.9095980004131,8.0,0.0,part_2,go,250.0,300.0,1.0,,,,,,,,,blue,cross
0.0,1.0,1.0,0.0,6.0,6.0,641.548103999412,8.0,0.0,part_2,go,250.0,300.0,1.0,,,,,,,,,cyan,diamond
0.0,8.0,4.0,1.0,5.0,0.0,0.0,8.0,0.0,part_2,stop,250.0,300.0,4.0,,,,,,,,,magenta,square
0.0,5.0,1.0,1.0,5.0,5.0,736.2125499994363,8.0,0.0,part_2,go,300.0,300.0,1.0,,,,,,,,,white,flipped triangle
0.0,2.0,2.0,0.0,7.0,5.0,3402.2547720005605,1.0,1.0,part_3,go,0.0,0.0,0.0,576.0,3.0,1152.0,768.0,192.0,960.0,576.0,384.0,gray,I
0.0,1.0,1.0,0.0,7.0,2.0,1638.4163129996523,1.0,1.0,part_3,go,0.0,0.0,0.0,540.0,4.0,270.0,540.0,810.0,405.0,675.0,135.0,cyan,diamond
0.0,3.0,3.0,0.0,7.0,6.0,1327.8896019992317,1.0,1.0,part_3,go,0.0,0.0,0.0,696.0,6.0,580.0,232.0,464.0,348.0,116.0,696.0,orange,hexagon
0.0,8.0,4.0,1.0,7.0,2.0,318.3920569999827,1.0,1.0,part_3,go,0.0,0.0,0.0,405.0,3.0,810.0,405.0,675.0,270.0,135.0,540.0,magenta,square
0.0,1.0,1.0,0.0,7.0,5.0,1225.1571329998114,1.0,1.0,part_3,go,0.0,0.0,0.0,960.0,5.0,576.0,384.0,192.0,1152.0,960.0,768.0,cyan,diamond
0.0,7.0,3.0,1.0,7.0,4.0,1479.7947340002793,1.0,1.0,part_3,go,0.0,0.0,0.0,464.0,4.0,232.0,348.0,580.0,464.0,116.0,696.0,green,circle
0.0,4.0,4.0,0.0,7.0,2.0,2850.784778000161,1.0,1.0,part_3,go,0.0,0.0,0.0,960.0,5.0,1152.0,960.0,768.0,576.0,192.0,384.0,blue,cross
0.0,5.0,1.0,1.0,7.0,5.0,337.7362689998335,1.0,1.0,part_3,go,0.0,0.0,0.0,1038.0,6.0,519.0,865.0,692.0,173.0,1038.0,346.0,white,flipped triangle
0.0,8.0,4.0,1.0,7.0,2.0,515.4435269996611,1.0,1.0,part_3,go,0.0,0.0,0.0,135.0,1.0,675.0,135.0,405.0,810.0,540.0,270.0,magenta,square
0.0,7.0,3.0,1.0,7.0,4.0,552.7197370001886,1.0,1.0,part_3,go,0.0,0.0,0.0,1152.0,6.0,384.0,192.0,768.0,1152.0,576.0,960.0,green,circle
0.0,2.0,2.0,0.0,7.0,1.0,468.6571259999255,1.0,1.0,part_3,go,0.0,0.0,0.0,270.0,2.0,270.0,135.0,675.0,540.0,405.0,810.0,gray,I
0.0,1.0,1.0,0.0,7.0,6.0,524.3193919995974,1.0,1.0,part_3,go,0.0,0.0,0.0,865.0,5.0,519.0,346.0,173.0,692.0,1038.0,865.0,cyan,diamond
0.0,1.0,1.0,0.0,7.0,5.0,319.6625880000283,1.0,1.0,part_3,go,0.0,0.0,0.0,462.0,3.0,924.0,770.0,616.0,154.0,462.0,308.0,cyan,diamond
0.0,2.0,2.0,0.0,7.0,2.0,412.1522209998147,1.0,1.0,part_3,go,0.0,0.0,0.0,696.0,6.0,116.0,696.0,348.0,232.0,580.0,464.0,gray,I
0.0,5.0,1.0,1.0,7.0,5.0,486.2392420000105,1.0,1.0,part_3,go,0.0,0.0,0.0,960.0,5.0,192.0,768.0,576.0,1152.0,960.0,384.0,white,flipped triangle
0.0,6.0,2.0,1.0,7.0,2.0,834.4830050000382,1.0,1.0,part_3,go,0.0,0.0,0.0,464.0,4.0,348.0,464.0,116.0,696.0,580.0,232.0,yellow,triangle
0.0,2.0,2.0,0.0,7.0,5.0,1312.2960949995104,1.0,1.0,part_3,go,0.0,0.0,0.0,462.0,3.0,308.0,616.0,770.0,924.0,462.0,154.0,gray,I
0.0,6.0,2.0,1.0,7.0,2.0,986.0672139993768,1.0,1.0,part_3,go,0.0,0.0,0.0,770.0,5.0,616.0,770.0,154.0,308.0,924.0,462.0,yellow,triangle
0.0,4.0,4.0,0.0,7.0,5.0,554.6636969993415,1.0,1.0,part_3,go,0.0,0.0,0.0,810.0,6.0,135.0,405.0,270.0,540.0,810.0,675.0,blue,cross
0.0,5.0,1.0,1.0,7.0,4.0,740.7635339995977,1.0,1.0,part_3,go,0.0,0.0,0.0,616.0,4.0,308.0,462.0,924.0,616.0,154.0,770.0,white,flipped triangle
0.0,1.0,1.0,0.0,7.0,4.0,712.3138079996352,2.0,1.0,part_3,go,0.0,0.0,0.0,519.0,3.0,865.0,1038.0,346.0,519.0,173.0,692.0,cyan,diamond
0.0,7.0,3.0,1.0,7.0,4.0,887.5360390002243,2.0,1.0,part_3,go,0.0,0.0,0.0,770.0,5.0,462.0,924.0,308.0,770.0,616.0,154.0,green,circle
0.0,8.0,4.0,1.0,7.0,5.0,878.9029180006764,2.0,1.0,part_3,go,0.0,0.0,0.0,580.0,5.0,696.0,348.0,116.0,232.0,580.0,464.0,magenta,square
0.0,6.0,2.0,1.0,7.0,2.0,579.9829420002425,2.0,1.0,part_3,go,0.0,0.0,0.0,270.0,2.0,540.0,270.0,405.0,810.0,675.0,135.0,yellow,triangle
0.0,8.0,4.0,1.0,7.0,6.0,570.7457849994171,2.0,1.0,part_3,go,0.0,0.0,0.0,348.0,3.0,696.0,232.0,116.0,580.0,464.0,348.0,magenta,square
0.0,2.0,2.0,0.0,7.0,1.0,441.2266180006554,2.0,1.0,part_3,go,0.0,0.0,0.0,464.0,4.0,464.0,116.0,696.0,348.0,580.0,232.0,gray,I
0.0,6.0,2.0,1.0,7.0,5.0,780.982571000095,2.0,1.0,part_3,go,0.0,0.0,0.0,348.0,3.0,116.0,696.0,232.0,580.0,348.0,464.0,yellow,triangle
0.0,7.0,3.0,1.0,7.0,6.0,543.6273249997612,2.0,1.0,part_3,go,0.0,0.0,0.0,692.0,4.0,519.0,173.0,1038.0,865.0,346.0,692.0,green,circle
0.0,1.0,1.0,0.0,7.0,2.0,582.6210340001126,2.0,1.0,part_3,go,0.0,0.0,0.0,960.0,5.0,192.0,960.0,576.0,1152.0,384.0,768.0,cyan,diamond
0.0,6.0,2.0,1.0,7.0,5.0,467.7990589998444,2.0,1.0,part_3,go,0.0,0.0,0.0,810.0,6.0,405.0,675.0,135.0,270.0,810.0,540.0,yellow,triangle
0.0,2.0,2.0,0.0,7.0,3.0,402.1931150000455,2.0,1.0,part_3,go,0.0,0.0,0.0,540.0,4.0,270.0,135.0,540.0,405.0,675.0,810.0,gray,I
0.0,1.0,1.0,0.0,7.0,3.0,1365.157318000456,2.0,1.0,part_3,go,0.0,0.0,0.0,696.0,6.0,348.0,580.0,696.0,464.0,116.0,232.0,cyan,diamond
0.0,6.0,2.0,1.0,7.0,6.0,467.7758079997147,2.0,1.0,part_3,go,0.0,0.0,0.0,865.0,5.0,519.0,173.0,346.0,1038.0,692.0,865.0,yellow,triangle
0.0,4.0,4.0,0.0,7.0,5.0,309.7193670000706,2.0,1.0,part_3,go,0.0,0.0,0.0,692.0,4.0,519.0,346.0,865.0,173.0,692.0,1038.0,blue,cross
0.0,7.0,3.0,1.0,7.0,3.0,459.3544950002979,2.0,1.0,part_3,go,0.0,0.0,0.0,270.0,2.0,135.0,675.0,270.0,405.0,810.0,540.0,green,circle
0.0,8.0,4.0,1.0,7.0,2.0,483.9822479998474,2.0,1.0,part_3,go,0.0,0.0,0.0,924.0,6.0,154.0,924.0,308.0,462.0,616.0,770.0,magenta,square
0.0,4.0,4.0,0.0,7.0,1.0,476.7412339997463,2.0,1.0,part_3,go,0.0,0.0,0.0,580.0,5.0,580.0,464.0,696.0,116.0,348.0,232.0,blue,cross
0.0,2.0,2.0,0.0,7.0,5.0,553.2160060001843,2.0,1.0,part_3,go,0.0,0.0,0.0,173.0,1.0,692.0,865.0,346.0,519.0,173.0,1038.0,gray,I
0.0,3.0,3.0,0.0,7.0,4.0,777.8478870004619,2.0,1.0,part_3,go,0.0,0.0,0.0,770.0,5.0,616.0,924.0,154.0,770.0,308.0,462.0,orange,hexagon
0.0,7.0,3.0,1.0,7.0,2.0,469.8928710004111,2.0,1.0,part_3,go,0.0,0.0,0.0,692.0,4.0,173.0,692.0,1038.0,519.0,346.0,865.0,green,circle
0.0,6.0,2.0,1.0,7.0,2.0,532.8779419996863,3.0,1.0,part_3,go,0.0,0.0,0.0,384.0,2.0,1152.0,384.0,960.0,768.0,576.0,192.0,yellow,triangle
0.0,5.0,1.0,1.0,7.0,6.0,394.2772469999909,3.0,1.0,part_3,go,0.0,0.0,0.0,405.0,3.0,675.0,135.0,810.0,540.0,270.0,405.0,white,flipped triangle
0.0,3.0,3.0,0.0,7.0,5.0,403.1554709999909,3.0,1.0,part_3,go,0.0,0.0,0.0,960.0,5.0,576.0,1152.0,384.0,192.0,960.0,768.0,orange,hexagon
0.0,6.0,2.0,1.0,7.0,3.0,639.1317200004778,3.0,1.0,part_3,go,0.0,0.0,0.0,692.0,4.0,519.0,173.0,692.0,865.0,1038.0,346.0,yellow,triangle
0.0,6.0,2.0,1.0,7.0,6.0,1403.7630269995134,3.0,1.0,part_3,go,0.0,0.0,0.0,308.0,2.0,154.0,770.0,924.0,616.0,462.0,308.0,yellow,triangle
0.0,1.0,1.0,0.0,7.0,3.0,1468.4457060002387,3.0,1.0,part_3,go,0.0,0.0,0.0,540.0,4.0,270.0,135.0,540.0,675.0,405.0,810.0,cyan,diamond
0.0,8.0,4.0,1.0,7.0,5.0,618.1586650000099,3.0,1.0,part_3,go,0.0,0.0,0.0,692.0,4.0,346.0,519.0,173.0,1038.0,692.0,865.0,magenta,square
0.0,3.0,3.0,0.0,7.0,3.0,728.757169000346,3.0,1.0,part_3,go,0.0,0.0,0.0,810.0,6.0,270.0,135.0,810.0,675.0,540.0,405.0,orange,hexagon
0.0,4.0,4.0,0.0,7.0,6.0,480.667686999368,3.0,1.0,part_3,go,0.0,0.0,0.0,960.0,5.0,192.0,576.0,1152.0,384.0,768.0,960.0,blue,cross
0.0,7.0,3.0,1.0,7.0,2.0,421.8328229999315,3.0,1.0,part_3,go,0.0,0.0,0.0,768.0,4.0,960.0,768.0,384.0,1152.0,576.0,192.0,green,circle
0.0,7.0,3.0,1.0,7.0,4.0,506.337875999634,3.0,1.0,part_3,go,0.0,0.0,0.0,270.0,2.0,675.0,810.0,135.0,270.0,540.0,405.0,green,circle
0.0,5.0,1.0,1.0,7.0,5.0,916.4285319993724,3.0,1.0,part_3,go,0.0,0.0,0.0,696.0,6.0,580.0,116.0,232.0,464.0,696.0,348.0,white,flipped triangle
0.0,8.0,4.0,1.0,7.0,2.0,542.2831489995588,3.0,1.0,part_3,go,0.0,0.0,0.0,462.0,3.0,308.0,462.0,924.0,770.0,616.0,154.0,magenta,square
0.0,5.0,1.0,1.0,7.0,6.0,965.172650000568,3.0,1.0,part_3,go,0.0,0.0,0.0,576.0,3.0,768.0,960.0,192.0,1152.0,384.0,576.0,white,flipped triangle
0.0,8.0,4.0,1.0,7.0,4.0,1282.134022999344,3.0,1.0,part_3,go,0.0,0.0,0.0,960.0,5.0,768.0,192.0,576.0,960.0,1152.0,384.0,magenta,square
0.0,7.0,3.0,1.0,7.0,2.0,951.1674730001688,3.0,1.0,part_3,go,0.0,0.0,0.0,308.0,2.0,924.0,308.0,770.0,616.0,462.0,154.0,green,circle
0.0,2.0,2.0,0.0,7.0,6.0,794.3278339998869,3.0,1.0,part_3,go,0.0,0.0,0.0,462.0,3.0,770.0,924.0,308.0,154.0,616.0,462.0,gray,I
0.0,5.0,1.0,1.0,7.0,2.0,787.5399200001993,3.0,1.0,part_3,go,0.0,0.0,0.0,865.0,5.0,173.0,865.0,692.0,519.0,1038.0,346.0,white,flipped triangle
0.0,4.0,4.0,0.0,7.0,6.0,545.685869999943,3.0,1.0,part_3,go,0.0,0.0,0.0,346.0,2.0,692.0,519.0,865.0,1038.0,173.0,346.0,blue,cross
0.0,5.0,1.0,1.0,7.0,3.0,1225.3819340003247,3.0,1.0,part_3,go,0.0,0.0,0.0,924.0,6.0,154.0,770.0,924.0,308.0,462.0,616.0,white,flipped triangle
0.0,3.0,3.0,0.0,7.0,4.0,656.9133160001002,4.0,1.0,part_3,go,0.0,0.0,0.0,135.0,1.0,405.0,270.0,810.0,135.0,540.0,675.0,orange,hexagon
0.0,5.0,1.0,1.0,7.0,2.0,610.0118430003931,4.0,1.0,part_3,go,0.0,0.0,0.0,405.0,3.0,135.0,405.0,270.0,675.0,540.0,810.0,white,flipped triangle
0.0,3.0,3.0,0.0,7.0,1.0,2408.953602999645,4.0,1.0,part_3,go,0.0,0.0,0.0,768.0,4.0,768.0,576.0,960.0,1152.0,384.0,192.0,orange,hexagon
0.0,5.0,1.0,1.0,7.0,4.0,1040.1278270001058,4.0,1.0,part_3,go,0.0,0.0,0.0,232.0,2.0,348.0,464.0,116.0,232.0,580.0,696.0,white,flipped triangle
0.0,4.0,4.0,0.0,7.0,3.0,1741.9865120000395,4.0,1.0,part_3,go,0.0,0.0,0.0,308.0,2.0,924.0,154.0,308.0,462.0,616.0,770.0,blue,cross
0.0,1.0,1.0,0.0,7.0,5.0,1386.8608279999537,4.0,1.0,part_3,go,0.0,0.0,0.0,462.0,3.0,924.0,154.0,770.0,308.0,462.0,616.0,cyan,diamond
0.0,3.0,3.0,0.0,7.0,4.0,1654.104682000252,4.0,1.0,part_3,go,0.0,0.0,0.0,692.0,4.0,346.0,1038.0,519.0,692.0,173.0,865.0,orange,hexagon
0.0,2.0,2.0,0.0,7.0,2.0,507.55727399973694,4.0,1.0,part_3,go,0.0,0.0,0.0,173.0,1.0,692.0,173.0,865.0,346.0,519.0,1038.0,gray,I
0.0,3.0,3.0,0.0,7.0,6.0,1209.6088979997148,4.0,1.0,part_3,go,0.0,0.0,0.0,308.0,2.0,462.0,616.0,770.0,924.0,154.0,308.0,orange,hexagon
0.0,3.0,3.0,0.0,7.0,2.0,647.3721860002115,4.0,1.0,part_3,go,0.0,0.0,0.0,232.0,2.0,116.0,232.0,464.0,580.0,696.0,348.0,orange,hexagon
0.0,4.0,4.0,0.0,7.0,5.0,907.6752060000216,4.0,1.0,part_3,go,0.0,0.0,0.0,770.0,5.0,308.0,154.0,616.0,462.0,770.0,924.0,blue,cross
0.0,6.0,2.0,1.0,7.0,4.0,741.7005960005554,4.0,1.0,part_3,go,0.0,0.0,0.0,576.0,3.0,1152.0,384.0,192.0,576.0,960.0,768.0,yellow,triangle
0.0,8.0,4.0,1.0,7.0,5.0,1086.7225779993532,4.0,1.0,part_3,go,0.0,0.0,0.0,519.0,3.0,1038.0,346.0,865.0,173.0,519.0,692.0,magenta,square
0.0,4.0,4.0,0.0,7.0,3.0,1274.520740999833,4.0,1.0,part_3,go,0.0,0.0,0.0,464.0,4.0,696.0,116.0,464.0,232.0,348.0,580.0,blue,cross
0.0,8.0,4.0,1.0,7.0,5.0,1732.3033310003666,4.0,1.0,part_3,go,0.0,0.0,0.0,768.0,4.0,1152.0,576.0,960.0,192.0,768.0,384.0,magenta,square
0.0,3.0,3.0,0.0,7.0,2.0,1293.1791170003637,4.0,1.0,part_3,go,0.0,0.0,0.0,692.0,4.0,173.0,692.0,346.0,519.0,1038.0,865.0,orange,hexagon
0.0,4.0,4.0,0.0,7.0,4.0,1452.2293990003163,4.0,1.0,part_3,go,0.0,0.0,0.0,540.0,4.0,675.0,135.0,270.0,540.0,810.0,405.0,blue,cross
0.0,7.0,3.0,1.0,7.0,2.0,713.0218709999099,4.0,1.0,part_3,go,0.0,0.0,0.0,580.0,5.0,116.0,580.0,696.0,232.0,348.0,464.0,green,circle
0.0,1.0,1.0,0.0,7.0,5.0,713.2757789995594,4.0,1.0,part_3,go,0.0,0.0,0.0,464.0,4.0,232.0,116.0,348.0,580.0,464.0,696.0,cyan,diamond
0.0,2.0,2.0,0.0,7.0,2.0,534.7797509994052,4.0,1.0,part_3,go,0.0,0.0,0.0,384.0,2.0,1152.0,384.0,192.0,960.0,768.0,576.0,gray,I
