raw_reward_magnitude,stim_reward,stepwise_reward_magnitude,paired_with_stopping,stim_location,response,reaction_time,block,num_trial_presentations,which_phase,stop_signal_trial_type,left_SSD,right_SSD,accuracy,chosen_bidding_amount,chosen_bidding_level,possible_bid_1,possible_bid_2,possible_bid_3,possible_bid_4,possible_bid_5,possible_bid_6,color_text,shape_text
348.0,6.0,1.0,1.0,4.0,4.0,699.9144549999983,1.0,1.0,phase_1,,,,,,,,,,,,,green,cross
171.0,5.0,0.5,1.0,3.0,3.0,391.6843669999252,1.0,1.0,phase_1,,,,,,,,,,,,,orange,square
172.0,1.0,0.5,0.0,4.0,4.0,642.6890039999762,1.0,1.0,phase_1,,,,,,,,,,,,,gray,I
176.0,5.0,0.5,1.0,4.0,4.0,362.2617159999208,1.0,1.0,phase_1,,,,,,,,,,,,,orange,square
1288.0,8.0,4.0,1.0,1.0,1.0,458.8305140000557,1.0,1.0,phase_1,,,,,,,,,,,,,white,diamond
631.0,3.0,2.0,0.0,4.0,4.0,385.9119040000678,1.0,1.0,phase_1,,,,,,,,,,,,,blue,circle
0.0,2.0,0.0,0.0,4.0,4.0,372.7463899999748,1.0,1.0,phase_1,,,,,,,,,,,,,yellow,hexagon
0.0,7.0,0.0,1.0,1.0,1.0,391.9962530001157,1.0,1.0,phase_1,,,,,,,,,,,,,magenta,flipped triangle
1283.0,4.0,4.0,0.0,2.0,2.0,725.2342799999951,1.0,1.0,phase_1,,,,,,,,,,,,,cyan,triangle
0.0,2.0,0.0,0.0,1.0,1.0,493.1731570000011,1.0,2.0,phase_1,,,,,,,,,,,,,yellow,hexagon
667.0,3.0,2.0,0.0,1.0,1.0,505.23872499979916,1.0,1.0,phase_1,,,,,,,,,,,,,blue,circle
0.0,2.0,0.0,0.0,4.0,4.0,461.9158529999367,1.0,1.0,phase_1,,,,,,,,,,,,,yellow,hexagon
314.0,6.0,1.0,1.0,3.0,3.0,427.1345320000819,1.0,1.0,phase_1,,,,,,,,,,,,,green,cross
0.0,1.0,0.0,0.0,3.0,3.0,429.6600659999967,1.0,1.0,phase_1,,,,,,,,,,,,,gray,I
644.0,3.0,2.0,0.0,4.0,4.0,411.8636590001188,1.0,1.0,phase_1,,,,,,,,,,,,,blue,circle
0.0,8.0,0.0,1.0,3.0,3.0,421.276564999971,1.0,1.0,phase_1,,,,,,,,,,,,,white,diamond
174.0,1.0,0.5,0.0,2.0,2.0,624.024221999889,1.0,1.0,phase_1,,,,,,,,,,,,,gray,I
0.0,5.0,0.0,1.0,4.0,4.0,438.3023770001273,1.0,1.0,phase_1,,,,,,,,,,,,,orange,square
1316.0,8.0,4.0,1.0,1.0,1.0,595.3910600001109,1.0,1.0,phase_1,,,,,,,,,,,,,white,diamond
179.0,1.0,0.5,0.0,3.0,3.0,380.9949859999051,1.0,1.0,phase_1,,,,,,,,,,,,,gray,I
156.0,1.0,0.5,0.0,4.0,4.0,418.1879820000631,1.0,1.0,phase_1,,,,,,,,,,,,,gray,I
658.0,7.0,2.0,1.0,4.0,4.0,504.22493099995336,1.0,1.0,phase_1,,,,,,,,,,,,,magenta,flipped triangle
339.0,2.0,1.0,0.0,2.0,2.0,619.195487999832,1.0,1.0,phase_1,,,,,,,,,,,,,yellow,hexagon
1290.0,8.0,4.0,1.0,3.0,3.0,498.1775200001266,1.0,1.0,phase_1,,,,,,,,,,,,,white,diamond
660.0,7.0,2.0,1.0,3.0,3.0,492.8544469998996,1.0,1.0,phase_1,,,,,,,,,,,,,magenta,flipped triangle
339.0,6.0,1.0,1.0,2.0,2.0,564.5934680001119,1.0,1.0,phase_1,,,,,,,,,,,,,green,cross
630.0,7.0,2.0,1.0,1.0,1.0,427.7020609999908,1.0,1.0,phase_1,,,,,,,,,,,,,magenta,flipped triangle
1297.0,4.0,4.0,0.0,3.0,3.0,446.8798740001602,1.0,1.0,phase_1,,,,,,,,,,,,,cyan,triangle
644.0,3.0,2.0,0.0,2.0,2.0,476.1681810000482,1.0,1.0,phase_1,,,,,,,,,,,,,blue,circle
0.0,4.0,0.0,0.0,4.0,4.0,361.9193520000863,1.0,1.0,phase_1,,,,,,,,,,,,,cyan,triangle
332.0,6.0,1.0,1.0,2.0,2.0,596.7672290000792,1.0,1.0,phase_1,,,,,,,,,,,,,green,cross
161.0,5.0,0.5,1.0,2.0,2.0,547.726184999874,1.0,1.0,phase_1,,,,,,,,,,,,,orange,square
179.0,5.0,0.5,1.0,1.0,1.0,460.7963720000043,1.0,1.0,phase_1,,,,,,,,,,,,,orange,square
648.0,7.0,2.0,1.0,2.0,2.0,727.3621270001058,1.0,1.0,phase_1,,,,,,,,,,,,,magenta,flipped triangle
0.0,6.0,0.0,1.0,4.0,4.0,391.8702649998522,1.0,1.0,phase_1,,,,,,,,,,,,,green,cross
0.0,3.0,0.0,0.0,3.0,3.0,578.4119510001346,1.0,1.0,phase_1,,,,,,,,,,,,,blue,circle
325.0,6.0,1.0,1.0,1.0,1.0,439.4373569998606,1.0,1.0,phase_1,,,,,,,,,,,,,green,cross
178.0,5.0,0.5,1.0,3.0,3.0,447.5846579998688,1.0,1.0,phase_1,,,,,,,,,,,,,orange,square
633.0,7.0,2.0,1.0,4.0,4.0,412.960681999948,1.0,1.0,phase_1,,,,,,,,,,,,,magenta,flipped triangle
144.0,1.0,0.5,0.0,1.0,1.0,609.435964000113,1.0,1.0,phase_1,,,,,,,,,,,,,gray,I
305.0,2.0,1.0,0.0,4.0,4.0,394.1527829999813,1.0,1.0,phase_1,,,,,,,,,,,,,yellow,hexagon
1280.0,4.0,4.0,0.0,1.0,1.0,762.969516000112,1.0,1.0,phase_1,,,,,,,,,,,,,cyan,triangle
0.0,3.0,0.0,0.0,1.0,1.0,431.6779210000732,1.0,1.0,phase_1,,,,,,,,,,,,,blue,circle
319.0,6.0,1.0,1.0,2.0,2.0,563.4767159999683,1.0,1.0,phase_1,,,,,,,,,,,,,green,cross
0.0,6.0,0.0,1.0,4.0,4.0,423.1681109999954,1.0,1.0,phase_1,,,,,,,,,,,,,green,cross
649.0,7.0,2.0,1.0,3.0,3.0,623.5649819998343,1.0,1.0,phase_1,,,,,,,,,,,,,magenta,flipped triangle
0.0,4.0,0.0,0.0,3.0,3.0,493.8317210001059,1.0,1.0,phase_1,,,,,,,,,,,,,cyan,triangle
314.0,6.0,1.0,1.0,1.0,1.0,550.3125270001874,1.0,1.0,phase_1,,,,,,,,,,,,,green,cross
630.0,7.0,2.0,1.0,2.0,2.0,661.2585670000044,1.0,1.0,phase_1,,,,,,,,,,,,,magenta,flipped triangle
183.0,5.0,0.5,1.0,1.0,1.0,522.0399390000239,1.0,1.0,phase_1,,,,,,,,,,,,,orange,square
150.0,5.0,0.5,1.0,1.0,1.0,437.4480620001577,1.0,1.0,phase_1,,,,,,,,,,,,,orange,square
660.0,3.0,2.0,0.0,1.0,1.0,550.47545299999,1.0,1.0,phase_1,,,,,,,,,,,,,blue,circle
333.0,2.0,1.0,0.0,1.0,1.0,443.0847430000995,1.0,1.0,phase_1,,,,,,,,,,,,,yellow,hexagon
138.0,5.0,0.5,1.0,3.0,3.0,583.6289310000211,1.0,1.0,phase_1,,,,,,,,,,,,,orange,square
0.0,4.0,0.0,0.0,2.0,2.0,733.769822999875,1.0,1.0,phase_1,,,,,,,,,,,,,cyan,triangle
667.0,7.0,2.0,1.0,1.0,1.0,668.1528290000642,1.0,1.0,phase_1,,,,,,,,,,,,,magenta,flipped triangle
342.0,2.0,1.0,0.0,2.0,2.0,464.5235250000041,1.0,1.0,phase_1,,,,,,,,,,,,,yellow,hexagon
1316.0,4.0,4.0,0.0,3.0,3.0,475.0980530000106,1.0,1.0,phase_1,,,,,,,,,,,,,cyan,triangle
0.0,7.0,0.0,1.0,2.0,2.0,615.506564000043,1.0,1.0,phase_1,,,,,,,,,,,,,magenta,flipped triangle
1313.0,4.0,4.0,0.0,4.0,4.0,465.4574260000572,1.0,1.0,phase_1,,,,,,,,,,,,,cyan,triangle
673.0,3.0,2.0,0.0,3.0,3.0,439.1887120000319,1.0,1.0,phase_1,,,,,,,,,,,,,blue,circle
0.0,6.0,0.0,1.0,2.0,2.0,652.2375389999979,1.0,1.0,phase_1,,,,,,,,,,,,,green,cross
327.0,6.0,1.0,1.0,2.0,2.0,430.5192889999034,1.0,1.0,phase_1,,,,,,,,,,,,,green,cross
655.0,7.0,2.0,1.0,1.0,1.0,431.9922689999202,1.0,1.0,phase_1,,,,,,,,,,,,,magenta,flipped triangle
667.0,3.0,2.0,0.0,2.0,2.0,382.2453089999271,1.0,1.0,phase_1,,,,,,,,,,,,,blue,circle
0.0,5.0,0.0,1.0,2.0,2.0,521.694934000152,1.0,1.0,phase_1,,,,,,,,,,,,,orange,square
1292.0,4.0,4.0,0.0,3.0,3.0,454.810469999984,1.0,1.0,phase_1,,,,,,,,,,,,,cyan,triangle
345.0,6.0,1.0,1.0,4.0,4.0,660.1595930001167,1.0,1.0,phase_1,,,,,,,,,,,,,green,cross
1300.0,4.0,4.0,0.0,4.0,4.0,542.2340269999495,1.0,1.0,phase_1,,,,,,,,,,,,,cyan,triangle
166.0,5.0,0.5,1.0,2.0,2.0,485.3578989998368,1.0,1.0,phase_1,,,,,,,,,,,,,orange,square
313.0,2.0,1.0,0.0,1.0,1.0,597.5238870000794,1.0,1.0,phase_1,,,,,,,,,,,,,yellow,hexagon
0.0,3.0,0.0,0.0,3.0,3.0,522.0699330000116,1.0,1.0,phase_1,,,,,,,,,,,,,blue,circle
343.0,2.0,1.0,0.0,2.0,2.0,687.5325659998452,1.0,1.0,phase_1,,,,,,,,,,,,,yellow,hexagon
0.0,2.0,0.0,0.0,2.0,2.0,476.7763979998562,1.0,1.0,phase_1,,,,,,,,,,,,,yellow,hexagon
323.0,6.0,1.0,1.0,1.0,1.0,457.3113720000492,1.0,1.0,phase_1,,,,,,,,,,,,,green,cross
0.0,6.0,0.0,1.0,1.0,1.0,542.1851619998961,1.0,1.0,phase_1,,,,,,,,,,,,,green,cross
0.0,2.0,0.0,0.0,2.0,2.0,467.1402680000938,1.0,1.0,phase_1,,,,,,,,,,,,,yellow,hexagon
1302.0,4.0,4.0,0.0,1.0,1.0,403.3797319998484,1.0,1.0,phase_1,,,,,,,,,,,,,cyan,triangle
1305.0,4.0,4.0,0.0,4.0,4.0,412.9355200000191,1.0,1.0,phase_1,,,,,,,,,,,,,cyan,triangle
0.0,3.0,0.0,0.0,3.0,3.0,879.7004289999677,1.0,1.0,phase_1,,,,,,,,,,,,,blue,circle
0.0,2.0,0.0,0.0,2.0,2.0,557.743101999904,1.0,1.0,phase_1,,,,,,,,,,,,,yellow,hexagon
0.0,8.0,0.0,1.0,3.0,3.0,448.1852239998716,1.0,1.0,phase_1,,,,,,,,,,,,,white,diamond
300.0,2.0,1.0,0.0,3.0,3.0,475.3280290001385,1.0,1.0,phase_1,,,,,,,,,,,,,yellow,hexagon
308.0,6.0,1.0,1.0,1.0,1.0,466.1892950000492,1.0,1.0,phase_1,,,,,,,,,,,,,green,cross
627.0,3.0,2.0,0.0,1.0,1.0,442.8806109999641,1.0,1.0,phase_1,,,,,,,,,,,,,blue,circle
310.0,6.0,1.0,1.0,1.0,1.0,418.6821390001114,1.0,1.0,phase_1,,,,,,,,,,,,,green,cross
656.0,3.0,2.0,0.0,1.0,1.0,574.8969220001072,1.0,1.0,phase_1,,,,,,,,,,,,,blue,circle
629.0,7.0,2.0,1.0,1.0,1.0,491.3859980001689,1.0,1.0,phase_1,,,,,,,,,,,,,magenta,flipped triangle
329.0,2.0,1.0,0.0,4.0,4.0,367.0042030000786,1.0,1.0,phase_1,,,,,,,,,,,,,yellow,hexagon
0.0,6.0,0.0,1.0,1.0,1.0,309.691875999988,1.0,1.0,phase_1,,,,,,,,,,,,,green,cross
0.0,8.0,0.0,1.0,1.0,1.0,455.3035609999369,1.0,1.0,phase_1,,,,,,,,,,,,,white,diamond
1279.0,4.0,4.0,0.0,2.0,2.0,539.2691389999982,1.0,1.0,phase_1,,,,,,,,,,,,,cyan,triangle
0.0,4.0,0.0,0.0,2.0,2.0,448.6445860000003,1.0,1.0,phase_1,,,,,,,,,,,,,cyan,triangle
649.0,3.0,2.0,0.0,3.0,3.0,748.8118320000012,1.0,1.0,phase_1,,,,,,,,,,,,,blue,circle
1297.0,8.0,4.0,1.0,1.0,1.0,419.5872530001452,1.0,1.0,phase_1,,,,,,,,,,,,,white,diamond
0.0,2.0,0.0,0.0,2.0,2.0,543.6600880000242,1.0,1.0,phase_1,,,,,,,,,,,,,yellow,hexagon
150.0,1.0,0.5,0.0,3.0,3.0,512.8537419998338,1.0,1.0,phase_1,,,,,,,,,,,,,gray,I
167.0,1.0,0.5,0.0,1.0,1.0,621.6358320000381,1.0,1.0,phase_1,,,,,,,,,,,,,gray,I
301.0,6.0,1.0,1.0,3.0,3.0,621.1673710001833,1.0,1.0,phase_1,,,,,,,,,,,,,green,cross
636.0,3.0,2.0,0.0,3.0,3.0,395.0149550000787,1.0,1.0,phase_1,,,,,,,,,,,,,blue,circle
644.0,7.0,2.0,1.0,4.0,4.0,635.5853729999126,2.0,1.0,phase_1,,,,,,,,,,,,,magenta,flipped triangle
312.0,2.0,1.0,0.0,1.0,1.0,383.2597059999898,2.0,1.0,phase_1,,,,,,,,,,,,,yellow,hexagon
1280.0,8.0,4.0,1.0,2.0,2.0,499.6161730000494,2.0,1.0,phase_1,,,,,,,,,,,,,white,diamond
183.0,5.0,0.5,1.0,4.0,4.0,379.7808699998768,2.0,1.0,phase_1,,,,,,,,,,,,,orange,square
0.0,8.0,0.0,1.0,3.0,3.0,451.054527999986,2.0,1.0,phase_1,,,,,,,,,,,,,white,diamond
186.0,1.0,0.5,0.0,3.0,3.0,457.0470129999648,2.0,1.0,phase_1,,,,,,,,,,,,,gray,I
147.0,1.0,0.5,0.0,2.0,2.0,584.3925189999482,2.0,1.0,phase_1,,,,,,,,,,,,,gray,I
1297.0,4.0,4.0,0.0,2.0,2.0,448.557904999916,2.0,1.0,phase_1,,,,,,,,,,,,,cyan,triangle
1277.0,8.0,4.0,1.0,2.0,2.0,466.2967699998717,2.0,1.0,phase_1,,,,,,,,,,,,,white,diamond
160.0,5.0,0.5,1.0,4.0,4.0,486.6513610004404,2.0,1.0,phase_1,,,,,,,,,,,,,orange,square
660.0,7.0,2.0,1.0,1.0,1.0,550.8255610002379,2.0,1.0,phase_1,,,,,,,,,,,,,magenta,flipped triangle
0.0,5.0,0.0,1.0,2.0,2.0,637.0153159996335,2.0,1.0,phase_1,,,,,,,,,,,,,orange,square
339.0,2.0,1.0,0.0,4.0,4.0,504.99935400011964,2.0,1.0,phase_1,,,,,,,,,,,,,yellow,hexagon
673.0,7.0,2.0,1.0,3.0,3.0,656.6750179999872,2.0,1.0,phase_1,,,,,,,,,,,,,magenta,flipped triangle
138.0,1.0,0.5,0.0,1.0,1.0,532.123386999956,2.0,1.0,phase_1,,,,,,,,,,,,,gray,I
0.0,8.0,0.0,1.0,3.0,3.0,554.8114500002157,2.0,1.0,phase_1,,,,,,,,,,,,,white,diamond
156.0,5.0,0.5,1.0,2.0,2.0,692.331017000015,2.0,1.0,phase_1,,,,,,,,,,,,,orange,square
174.0,5.0,0.5,1.0,2.0,2.0,630.7847849998325,2.0,1.0,phase_1,,,,,,,,,,,,,orange,square
163.0,1.0,0.5,0.0,3.0,3.0,443.8578479998796,2.0,1.0,phase_1,,,,,,,,,,,,,gray,I
1316.0,8.0,4.0,1.0,2.0,2.0,582.7990900002078,2.0,1.0,phase_1,,,,,,,,,,,,,white,diamond
0.0,3.0,0.0,0.0,1.0,1.0,609.8299519999273,2.0,1.0,phase_1,,,,,,,,,,,,,blue,circle
626.0,3.0,2.0,0.0,3.0,3.0,536.309381999672,2.0,1.0,phase_1,,,,,,,,,,,,,blue,circle
662.0,3.0,2.0,0.0,2.0,2.0,674.9523779999436,2.0,1.0,phase_1,,,,,,,,,,,,,blue,circle
0.0,5.0,0.0,1.0,4.0,4.0,601.8908390001343,2.0,1.0,phase_1,,,,,,,,,,,,,orange,square
1297.0,8.0,4.0,1.0,4.0,4.0,425.7067409998853,2.0,1.0,phase_1,,,,,,,,,,,,,white,diamond
670.0,3.0,2.0,0.0,3.0,3.0,407.341845999781,2.0,1.0,phase_1,,,,,,,,,,,,,blue,circle
0.0,3.0,0.0,0.0,3.0,3.0,417.1020140001928,2.0,1.0,phase_1,,,,,,,,,,,,,blue,circle
167.0,5.0,0.5,1.0,4.0,4.0,408.0755659997521,2.0,1.0,phase_1,,,,,,,,,,,,,orange,square
0.0,5.0,0.0,1.0,2.0,2.0,722.6600789999793,2.0,1.0,phase_1,,,,,,,,,,,,,orange,square
1283.0,4.0,4.0,0.0,2.0,2.0,528.1106329998693,2.0,1.0,phase_1,,,,,,,,,,,,,cyan,triangle
138.0,1.0,0.5,0.0,4.0,4.0,388.2785379996676,2.0,1.0,phase_1,,,,,,,,,,,,,gray,I
652.0,7.0,2.0,1.0,2.0,2.0,397.6044129999536,2.0,1.0,phase_1,,,,,,,,,,,,,magenta,flipped triangle
654.0,3.0,2.0,0.0,2.0,2.0,500.5016989998694,2.0,1.0,phase_1,,,,,,,,,,,,,blue,circle
1313.0,8.0,4.0,1.0,1.0,1.0,481.1366489998363,2.0,1.0,phase_1,,,,,,,,,,,,,white,diamond
348.0,2.0,1.0,0.0,4.0,4.0,492.4041200001738,2.0,1.0,phase_1,,,,,,,,,,,,,yellow,hexagon
145.0,1.0,0.5,0.0,2.0,2.0,536.3259450000442,2.0,1.0,phase_1,,,,,,,,,,,,,gray,I
0.0,7.0,0.0,1.0,1.0,1.0,585.2682499998991,2.0,1.0,phase_1,,,,,,,,,,,,,magenta,flipped triangle
0.0,1.0,0.0,0.0,3.0,3.0,400.4636200002096,2.0,1.0,phase_1,,,,,,,,,,,,,gray,I
1309.0,8.0,4.0,1.0,2.0,2.0,639.0036319999126,2.0,1.0,phase_1,,,,,,,,,,,,,white,diamond
323.0,6.0,1.0,1.0,2.0,2.0,546.1992949999512,2.0,1.0,phase_1,,,,,,,,,,,,,green,cross
673.0,7.0,2.0,1.0,1.0,1.0,582.536058000187,2.0,1.0,phase_1,,,,,,,,,,,,,magenta,flipped triangle
675.0,3.0,2.0,0.0,4.0,4.0,472.7508420000958,2.0,1.0,phase_1,,,,,,,,,,,,,blue,circle
171.0,1.0,0.5,0.0,1.0,1.0,694.7661919998609,2.0,1.0,phase_1,,,,,,,,,,,,,gray,I
1310.0,8.0,4.0,1.0,4.0,4.0,415.8708449999722,2.0,1.0,phase_1,,,,,,,,,,,,,white,diamond
1323.0,8.0,4.0,1.0,4.0,4.0,433.5902259999784,2.0,1.0,phase_1,,,,,,,,,,,,,white,diamond
0.0,1.0,0.0,0.0,1.0,1.0,499.3117250000978,2.0,1.0,phase_1,,,,,,,,,,,,,gray,I
1316.0,4.0,4.0,0.0,4.0,4.0,352.5411169998733,2.0,1.0,phase_1,,,,,,,,,,,,,cyan,triangle
329.0,6.0,1.0,1.0,4.0,4.0,443.7124239998411,2.0,1.0,phase_1,,,,,,,,,,,,,green,cross
1312.0,8.0,4.0,1.0,1.0,1.0,527.6639779999641,2.0,1.0,phase_1,,,,,,,,,,,,,white,diamond
1309.0,4.0,4.0,0.0,3.0,3.0,436.7952620000324,2.0,1.0,phase_1,,,,,,,,,,,,,cyan,triangle
644.0,7.0,2.0,1.0,4.0,4.0,442.750425000213,2.0,1.0,phase_1,,,,,,,,,,,,,magenta,flipped triangle
177.0,1.0,0.5,0.0,3.0,3.0,425.055605000125,2.0,1.0,phase_1,,,,,,,,,,,,,gray,I
1302.0,8.0,4.0,1.0,1.0,1.0,415.6326819997957,2.0,1.0,phase_1,,,,,,,,,,,,,white,diamond
663.0,3.0,2.0,0.0,2.0,2.0,582.9646359998151,2.0,1.0,phase_1,,,,,,,,,,,,,blue,circle
165.0,1.0,0.5,0.0,2.0,2.0,776.1828840002636,2.0,1.0,phase_1,,,,,,,,,,,,,gray,I
1323.0,4.0,4.0,0.0,1.0,1.0,574.1153660001146,2.0,1.0,phase_1,,,,,,,,,,,,,cyan,triangle
339.0,6.0,1.0,1.0,4.0,4.0,446.6012109996882,2.0,1.0,phase_1,,,,,,,,,,,,,green,cross
1292.0,8.0,4.0,1.0,3.0,3.0,388.473888000135,2.0,1.0,phase_1,,,,,,,,,,,,,white,diamond
337.0,6.0,1.0,1.0,3.0,3.0,425.0440759997218,2.0,1.0,phase_1,,,,,,,,,,,,,green,cross
330.0,6.0,1.0,1.0,3.0,3.0,461.8999859999348,2.0,1.0,phase_1,,,,,,,,,,,,,green,cross
140.0,1.0,0.5,0.0,1.0,1.0,398.0055220004033,2.0,1.0,phase_1,,,,,,,,,,,,,gray,I
629.0,3.0,2.0,0.0,3.0,3.0,370.4585529999349,2.0,1.0,phase_1,,,,,,,,,,,,,blue,circle
183.0,1.0,0.5,0.0,2.0,2.0,620.2888739999253,2.0,1.0,phase_1,,,,,,,,,,,,,gray,I
1276.0,8.0,4.0,1.0,2.0,2.0,610.759675999816,2.0,1.0,phase_1,,,,,,,,,,,,,white,diamond
145.0,5.0,0.5,1.0,2.0,2.0,528.0688900002133,2.0,1.0,phase_1,,,,,,,,,,,,,orange,square
1286.0,4.0,4.0,0.0,2.0,2.0,444.9448149998716,2.0,1.0,phase_1,,,,,,,,,,,,,cyan,triangle
1322.0,4.0,4.0,0.0,4.0,4.0,499.9357480000981,2.0,1.0,phase_1,,,,,,,,,,,,,cyan,triangle
337.0,2.0,1.0,0.0,3.0,3.0,462.4733780001406,2.0,1.0,phase_1,,,,,,,,,,,,,yellow,hexagon
0.0,8.0,0.0,1.0,4.0,4.0,499.6098970000275,2.0,1.0,phase_1,,,,,,,,,,,,,white,diamond
629.0,3.0,2.0,0.0,3.0,3.0,453.7754580001092,2.0,1.0,phase_1,,,,,,,,,,,,,blue,circle
147.0,5.0,0.5,1.0,4.0,4.0,601.8995130002622,2.0,1.0,phase_1,,,,,,,,,,,,,orange,square
160.0,5.0,0.5,1.0,3.0,3.0,454.6830129997943,2.0,1.0,phase_1,,,,,,,,,,,,,orange,square
0.0,3.0,0.0,0.0,3.0,3.0,379.0545009997004,2.0,1.0,phase_1,,,,,,,,,,,,,blue,circle
314.0,2.0,1.0,0.0,3.0,3.0,360.3550740003811,2.0,1.0,phase_1,,,,,,,,,,,,,yellow,hexagon
315.0,2.0,1.0,0.0,3.0,3.0,445.1238039996497,2.0,1.0,phase_1,,,,,,,,,,,,,yellow,hexagon
0.0,7.0,0.0,1.0,4.0,4.0,445.4250070002672,2.0,1.0,phase_1,,,,,,,,,,,,,magenta,flipped triangle
144.0,5.0,0.5,1.0,1.0,1.0,509.65883900016706,2.0,2.0,phase_1,,,,,,,,,,,,,orange,square
342.0,2.0,1.0,0.0,1.0,1.0,518.8724330000696,2.0,1.0,phase_1,,,,,,,,,,,,,yellow,hexagon
1301.0,8.0,4.0,1.0,2.0,2.0,621.7760600002293,2.0,1.0,phase_1,,,,,,,,,,,,,white,diamond
1290.0,4.0,4.0,0.0,3.0,3.0,666.2379719996352,2.0,1.0,phase_1,,,,,,,,,,,,,cyan,triangle
662.0,7.0,2.0,1.0,4.0,4.0,600.4630739998902,2.0,1.0,phase_1,,,,,,,,,,,,,magenta,flipped triangle
329.0,6.0,1.0,1.0,4.0,4.0,547.0078119997197,2.0,1.0,phase_1,,,,,,,,,,,,,green,cross
337.0,2.0,1.0,0.0,4.0,4.0,455.2037559997188,2.0,1.0,phase_1,,,,,,,,,,,,,yellow,hexagon
675.0,3.0,2.0,0.0,1.0,1.0,621.6350059999058,2.0,1.0,phase_1,,,,,,,,,,,,,blue,circle
337.0,6.0,1.0,1.0,3.0,3.0,415.9785560000273,2.0,1.0,phase_1,,,,,,,,,,,,,green,cross
0.0,8.0,0.0,1.0,2.0,2.0,536.2330729999485,2.0,1.0,phase_1,,,,,,,,,,,,,white,diamond
137.0,1.0,0.5,0.0,1.0,1.0,573.1991080001535,2.0,1.0,phase_1,,,,,,,,,,,,,gray,I
302.0,2.0,1.0,0.0,3.0,3.0,454.3267210001431,2.0,1.0,phase_1,,,,,,,,,,,,,yellow,hexagon
171.0,5.0,0.5,1.0,1.0,1.0,492.2649879999881,2.0,1.0,phase_1,,,,,,,,,,,,,orange,square
308.0,2.0,1.0,0.0,2.0,2.0,583.3842990000448,2.0,1.0,phase_1,,,,,,,,,,,,,yellow,hexagon
1322.0,8.0,4.0,1.0,4.0,4.0,471.4582029996563,2.0,1.0,phase_1,,,,,,,,,,,,,white,diamond
156.0,5.0,0.5,1.0,3.0,3.0,417.8474089999326,2.0,1.0,phase_1,,,,,,,,,,,,,orange,square
640.0,7.0,2.0,1.0,1.0,1.0,629.7861279999779,2.0,1.0,phase_1,,,,,,,,,,,,,magenta,flipped triangle
654.0,7.0,2.0,1.0,2.0,2.0,666.3301170001432,2.0,1.0,phase_1,,,,,,,,,,,,,magenta,flipped triangle
1286.0,4.0,4.0,0.0,4.0,4.0,491.7403449999256,2.0,1.0,phase_1,,,,,,,,,,,,,cyan,triangle
1309.0,8.0,4.0,1.0,4.0,4.0,435.1110020002124,2.0,1.0,phase_1,,,,,,,,,,,,,white,diamond
635.0,7.0,2.0,1.0,4.0,4.0,454.3010719999074,2.0,1.0,phase_1,,,,,,,,,,,,,magenta,flipped triangle
0.0,4.0,0.0,0.0,1.0,1.0,563.6681119999594,2.0,1.0,phase_1,,,,,,,,,,,,,cyan,triangle
302.0,2.0,1.0,0.0,3.0,3.0,454.1824110001471,2.0,1.0,phase_1,,,,,,,,,,,,,yellow,hexagon
1316.0,4.0,4.0,0.0,2.0,2.0,591.8398040003012,2.0,1.0,phase_1,,,,,,,,,,,,,cyan,triangle
1313.0,8.0,4.0,1.0,4.0,4.0,566.1139230001027,3.0,1.0,phase_1,,,,,,,,,,,,,white,diamond
170.0,5.0,0.5,1.0,2.0,2.0,638.2581729999401,3.0,1.0,phase_1,,,,,,,,,,,,,orange,square
658.0,3.0,2.0,0.0,2.0,2.0,575.7403729999169,3.0,1.0,phase_1,,,,,,,,,,,,,blue,circle
329.0,6.0,1.0,1.0,4.0,4.0,602.905791000012,3.0,1.0,phase_1,,,,,,,,,,,,,green,cross
1307.0,8.0,4.0,1.0,4.0,4.0,491.9051249999029,3.0,1.0,phase_1,,,,,,,,,,,,,white,diamond
319.0,2.0,1.0,0.0,4.0,4.0,408.4222460001001,3.0,1.0,phase_1,,,,,,,,,,,,,yellow,hexagon
1277.0,8.0,4.0,1.0,2.0,2.0,537.4170529998992,3.0,1.0,phase_1,,,,,,,,,,,,,white,diamond
345.0,2.0,1.0,0.0,3.0,3.0,501.29486700006964,3.0,1.0,phase_1,,,,,,,,,,,,,yellow,hexagon
644.0,7.0,2.0,1.0,1.0,1.0,675.1184300001114,3.0,1.0,phase_1,,,,,,,,,,,,,magenta,flipped triangle
633.0,3.0,2.0,0.0,4.0,4.0,509.6683290003057,3.0,1.0,phase_1,,,,,,,,,,,,,blue,circle
1310.0,8.0,4.0,1.0,3.0,3.0,361.0952690000886,3.0,1.0,phase_1,,,,,,,,,,,,,white,diamond
0.0,1.0,0.0,0.0,3.0,3.0,500.871454999924,3.0,1.0,phase_1,,,,,,,,,,,,,gray,I
642.0,7.0,2.0,1.0,1.0,1.0,648.4012600003553,3.0,2.0,phase_1,,,,,,,,,,,,,magenta,flipped triangle
1279.0,8.0,4.0,1.0,3.0,3.0,408.6520779997045,3.0,1.0,phase_1,,,,,,,,,,,,,white,diamond
312.0,2.0,1.0,0.0,1.0,1.0,526.9858980000208,3.0,1.0,phase_1,,,,,,,,,,,,,yellow,hexagon
150.0,1.0,0.5,0.0,4.0,4.0,473.4368330000507,3.0,1.0,phase_1,,,,,,,,,,,,,gray,I
161.0,1.0,0.5,0.0,4.0,4.0,472.8904080002394,3.0,1.0,phase_1,,,,,,,,,,,,,gray,I
169.0,5.0,0.5,1.0,4.0,4.0,481.5537360000235,3.0,1.0,phase_1,,,,,,,,,,,,,orange,square
342.0,6.0,1.0,1.0,2.0,2.0,638.3983679997982,3.0,1.0,phase_1,,,,,,,,,,,,,green,cross
312.0,6.0,1.0,1.0,2.0,2.0,406.6348249998555,3.0,1.0,phase_1,,,,,,,,,,,,,green,cross
1300.0,8.0,4.0,1.0,3.0,3.0,750.3654239999378,3.0,1.0,phase_1,,,,,,,,,,,,,white,diamond
147.0,1.0,0.5,0.0,2.0,2.0,620.5292289996578,3.0,1.0,phase_1,,,,,,,,,,,,,gray,I
0.0,3.0,0.0,0.0,2.0,2.0,631.0126979997221,3.0,1.0,phase_1,,,,,,,,,,,,,blue,circle
0.0,8.0,0.0,1.0,3.0,3.0,526.6388200002439,3.0,1.0,phase_1,,,,,,,,,,,,,white,diamond
640.0,3.0,2.0,0.0,3.0,3.0,473.4753309999178,3.0,1.0,phase_1,,,,,,,,,,,,,blue,circle
178.0,1.0,0.5,0.0,1.0,1.0,686.0541360001662,3.0,1.0,phase_1,,,,,,,,,,,,,gray,I
653.0,7.0,2.0,1.0,2.0,2.0,583.6787620000905,3.0,1.0,phase_1,,,,,,,,,,,,,magenta,flipped triangle
183.0,1.0,0.5,0.0,2.0,2.0,435.2902739997262,3.0,1.0,phase_1,,,,,,,,,,,,,gray,I
1288.0,4.0,4.0,0.0,1.0,1.0,576.178735999747,3.0,1.0,phase_1,,,,,,,,,,,,,cyan,triangle
0.0,5.0,0.0,1.0,1.0,1.0,491.2918979998721,3.0,1.0,phase_1,,,,,,,,,,,,,orange,square
185.0,5.0,0.5,1.0,4.0,4.0,409.2743100000007,3.0,1.0,phase_1,,,,,,,,,,,,,orange,square
174.0,1.0,0.5,0.0,2.0,2.0,427.3109629998544,3.0,1.0,phase_1,,,,,,,,,,,,,gray,I
305.0,6.0,1.0,1.0,1.0,1.0,631.2156620001588,3.0,1.0,phase_1,,,,,,,,,,,,,green,cross
0.0,7.0,0.0,1.0,1.0,1.0,464.0588470001603,3.0,1.0,phase_1,,,,,,,,,,,,,magenta,flipped triangle
1291.0,8.0,4.0,1.0,2.0,2.0,435.5330630000935,3.0,1.0,phase_1,,,,,,,,,,,,,white,diamond
149.0,5.0,0.5,1.0,2.0,2.0,407.986854000228,3.0,1.0,phase_1,,,,,,,,,,,,,orange,square
1304.0,8.0,4.0,1.0,3.0,3.0,408.0321590004132,3.0,1.0,phase_1,,,,,,,,,,,,,white,diamond
302.0,6.0,1.0,1.0,4.0,4.0,406.7808240001795,3.0,1.0,phase_1,,,,,,,,,,,,,green,cross
1313.0,4.0,4.0,0.0,2.0,2.0,374.6597389999806,3.0,1.0,phase_1,,,,,,,,,,,,,cyan,triangle
322.0,2.0,1.0,0.0,2.0,2.0,490.6670510004005,3.0,1.0,phase_1,,,,,,,,,,,,,yellow,hexagon
644.0,3.0,2.0,0.0,1.0,1.0,536.855781000213,3.0,1.0,phase_1,,,,,,,,,,,,,blue,circle
171.0,1.0,0.5,0.0,3.0,3.0,351.4554739999767,3.0,1.0,phase_1,,,,,,,,,,,,,gray,I
0.0,4.0,0.0,0.0,4.0,4.0,519.6171689999574,3.0,1.0,phase_1,,,,,,,,,,,,,cyan,triangle
1320.0,4.0,4.0,0.0,2.0,2.0,516.8948810000984,3.0,1.0,phase_1,,,,,,,,,,,,,cyan,triangle
310.0,2.0,1.0,0.0,1.0,1.0,389.2661410000073,3.0,1.0,phase_1,,,,,,,,,,,,,yellow,hexagon
642.0,3.0,2.0,0.0,1.0,1.0,749.5731489998434,3.0,1.0,phase_1,,,,,,,,,,,,,blue,circle
149.0,1.0,0.5,0.0,1.0,1.0,526.6893319999326,3.0,1.0,phase_1,,,,,,,,,,,,,gray,I
347.0,6.0,1.0,1.0,3.0,3.0,397.084778000135,3.0,1.0,phase_1,,,,,,,,,,,,,green,cross
0.0,5.0,0.0,1.0,3.0,3.0,397.7867919998061,3.0,1.0,phase_1,,,,,,,,,,,,,orange,square
176.0,1.0,0.5,0.0,4.0,4.0,694.0102300000035,3.0,1.0,phase_1,,,,,,,,,,,,,gray,I
0.0,5.0,0.0,1.0,2.0,2.0,713.1340799996906,3.0,1.0,phase_1,,,,,,,,,,,,,orange,square
0.0,1.0,0.0,0.0,2.0,2.0,750.836229000015,3.0,1.0,phase_1,,,,,,,,,,,,,gray,I
1297.0,4.0,4.0,0.0,1.0,1.0,634.1339340001468,3.0,1.0,phase_1,,,,,,,,,,,,,cyan,triangle
1286.0,8.0,4.0,1.0,4.0,4.0,619.7297949997846,3.0,1.0,phase_1,,,,,,,,,,,,,white,diamond
660.0,3.0,2.0,0.0,4.0,4.0,490.4754680001133,3.0,1.0,phase_1,,,,,,,,,,,,,blue,circle
343.0,6.0,1.0,1.0,3.0,3.0,482.4229259997992,3.0,1.0,phase_1,,,,,,,,,,,,,green,cross
301.0,2.0,1.0,0.0,1.0,1.0,674.8194809997585,3.0,1.0,phase_1,,,,,,,,,,,,,yellow,hexagon
1297.0,8.0,4.0,1.0,4.0,4.0,499.7962789998382,3.0,1.0,phase_1,,,,,,,,,,,,,white,diamond
1305.0,8.0,4.0,1.0,1.0,1.0,538.6711030000697,3.0,1.0,phase_1,,,,,,,,,,,,,white,diamond
630.0,3.0,2.0,0.0,3.0,3.0,383.73097900012,3.0,1.0,phase_1,,,,,,,,,,,,,blue,circle
667.0,7.0,2.0,1.0,2.0,2.0,566.0156070002813,3.0,1.0,phase_1,,,,,,,,,,,,,magenta,flipped triangle
0.0,4.0,0.0,0.0,2.0,2.0,482.6603110000178,3.0,1.0,phase_1,,,,,,,,,,,,,cyan,triangle
1301.0,4.0,4.0,0.0,4.0,4.0,511.53942900009497,3.0,1.0,phase_1,,,,,,,,,,,,,cyan,triangle
675.0,7.0,2.0,1.0,4.0,4.0,630.7627189999039,3.0,1.0,phase_1,,,,,,,,,,,,,magenta,flipped triangle
647.0,3.0,2.0,0.0,4.0,4.0,492.8603690000273,3.0,1.0,phase_1,,,,,,,,,,,,,blue,circle
637.0,3.0,2.0,0.0,4.0,4.0,427.4407009997958,3.0,1.0,phase_1,,,,,,,,,,,,,blue,circle
636.0,7.0,2.0,1.0,4.0,4.0,434.6540450001157,3.0,1.0,phase_1,,,,,,,,,,,,,magenta,flipped triangle
648.0,7.0,2.0,1.0,3.0,3.0,583.704029999808,3.0,1.0,phase_1,,,,,,,,,,,,,magenta,flipped triangle
137.0,5.0,0.5,1.0,2.0,2.0,647.2394960001111,3.0,1.0,phase_1,,,,,,,,,,,,,orange,square
0.0,2.0,0.0,0.0,2.0,2.0,526.2865169997895,3.0,1.0,phase_1,,,,,,,,,,,,,yellow,hexagon
629.0,7.0,2.0,1.0,3.0,3.0,417.1351879999747,3.0,1.0,phase_1,,,,,,,,,,,,,magenta,flipped triangle
165.0,5.0,0.5,1.0,3.0,3.0,425.4270699998415,3.0,1.0,phase_1,,,,,,,,,,,,,orange,square
0.0,6.0,0.0,1.0,3.0,3.0,445.8639239996955,3.0,1.0,phase_1,,,,,,,,,,,,,green,cross
349.0,2.0,1.0,0.0,2.0,2.0,581.4790429999448,3.0,1.0,phase_1,,,,,,,,,,,,,yellow,hexagon
1277.0,4.0,4.0,0.0,3.0,3.0,420.1376870000786,3.0,1.0,phase_1,,,,,,,,,,,,,cyan,triangle
300.0,6.0,1.0,1.0,1.0,1.0,443.517058999987,3.0,1.0,phase_1,,,,,,,,,,,,,green,cross
652.0,3.0,2.0,0.0,1.0,1.0,444.306434000282,3.0,1.0,phase_1,,,,,,,,,,,,,blue,circle
1314.0,4.0,4.0,0.0,3.0,3.0,471.5495219998047,3.0,1.0,phase_1,,,,,,,,,,,,,cyan,triangle
167.0,1.0,0.5,0.0,1.0,1.0,554.5886529998825,3.0,1.0,phase_1,,,,,,,,,,,,,gray,I
648.0,3.0,2.0,0.0,2.0,2.0,757.475807999981,3.0,1.0,phase_1,,,,,,,,,,,,,blue,circle
654.0,7.0,2.0,1.0,1.0,1.0,499.5246769999539,3.0,1.0,phase_1,,,,,,,,,,,,,magenta,flipped triangle
647.0,7.0,2.0,1.0,2.0,2.0,519.7650259997317,3.0,1.0,phase_1,,,,,,,,,,,,,magenta,flipped triangle
342.0,6.0,1.0,1.0,4.0,4.0,435.7631800003219,3.0,1.0,phase_1,,,,,,,,,,,,,green,cross
147.0,5.0,0.5,1.0,3.0,3.0,407.6912929999707,3.0,1.0,phase_1,,,,,,,,,,,,,orange,square
312.0,6.0,1.0,1.0,1.0,1.0,594.0659849998156,3.0,1.0,phase_1,,,,,,,,,,,,,green,cross
305.0,6.0,1.0,1.0,3.0,3.0,362.3857610000414,3.0,1.0,phase_1,,,,,,,,,,,,,green,cross
1289.0,8.0,4.0,1.0,3.0,3.0,401.1562820001018,3.0,1.0,phase_1,,,,,,,,,,,,,white,diamond
142.0,1.0,0.5,0.0,3.0,3.0,388.324085000022,3.0,1.0,phase_1,,,,,,,,,,,,,gray,I
140.0,5.0,0.5,1.0,1.0,1.0,416.8902169999455,3.0,1.0,phase_1,,,,,,,,,,,,,orange,square
302.0,6.0,1.0,1.0,3.0,3.0,453.1271629998628,3.0,1.0,phase_1,,,,,,,,,,,,,green,cross
1310.0,4.0,4.0,0.0,2.0,2.0,511.6519690000132,3.0,1.0,phase_1,,,,,,,,,,,,,cyan,triangle
0.0,6.0,0.0,1.0,1.0,1.0,574.1597060000458,3.0,1.0,phase_1,,,,,,,,,,,,,green,cross
1307.0,4.0,4.0,0.0,1.0,1.0,444.193420999909,3.0,1.0,phase_1,,,,,,,,,,,,,cyan,triangle
156.0,1.0,0.5,0.0,3.0,3.0,463.6907809999684,3.0,1.0,phase_1,,,,,,,,,,,,,gray,I
630.0,3.0,2.0,0.0,4.0,4.0,499.2567429999326,3.0,1.0,phase_1,,,,,,,,,,,,,blue,circle
1291.0,4.0,4.0,0.0,4.0,4.0,389.0771500000483,3.0,1.0,phase_1,,,,,,,,,,,,,cyan,triangle
653.0,3.0,2.0,0.0,4.0,4.0,408.9005800001359,3.0,1.0,phase_1,,,,,,,,,,,,,blue,circle
1283.0,8.0,4.0,1.0,1.0,1.0,481.0029870000107,3.0,1.0,phase_1,,,,,,,,,,,,,white,diamond
177.0,5.0,0.5,1.0,2.0,2.0,371.0729130002619,3.0,1.0,phase_1,,,,,,,,,,,,,orange,square
672.0,7.0,2.0,1.0,3.0,3.0,479.556236999997,3.0,1.0,phase_1,,,,,,,,,,,,,magenta,flipped triangle
323.0,2.0,1.0,0.0,3.0,3.0,520.3643130003002,4.0,1.0,phase_1,,,,,,,,,,,,,yellow,hexagon
675.0,7.0,2.0,1.0,4.0,4.0,445.7853300000352,4.0,1.0,phase_1,,,,,,,,,,,,,magenta,flipped triangle
174.0,5.0,0.5,1.0,2.0,2.0,490.1559049999378,4.0,1.0,phase_1,,,,,,,,,,,,,orange,square
0.0,1.0,0.0,0.0,4.0,4.0,407.0414769998933,4.0,1.0,phase_1,,,,,,,,,,,,,gray,I
1289.0,4.0,4.0,0.0,1.0,1.0,350.53458900029,4.0,1.0,phase_1,,,,,,,,,,,,,cyan,triangle
0.0,4.0,0.0,0.0,3.0,3.0,397.99678999997917,4.0,1.0,phase_1,,,,,,,,,,,,,cyan,triangle
1283.0,8.0,4.0,1.0,1.0,1.0,368.4269010000207,4.0,1.0,phase_1,,,,,,,,,,,,,white,diamond
1306.0,8.0,4.0,1.0,3.0,3.0,380.7506459997967,4.0,1.0,phase_1,,,,,,,,,,,,,white,diamond
1305.0,4.0,4.0,0.0,3.0,3.0,481.3854049998554,4.0,1.0,phase_1,,,,,,,,,,,,,cyan,triangle
326.0,2.0,1.0,0.0,2.0,2.0,508.181909999621,4.0,1.0,phase_1,,,,,,,,,,,,,yellow,hexagon
0.0,5.0,0.0,1.0,1.0,1.0,640.2678270001161,4.0,1.0,phase_1,,,,,,,,,,,,,orange,square
183.0,5.0,0.5,1.0,4.0,4.0,574.3495739998252,4.0,1.0,phase_1,,,,,,,,,,,,,orange,square
1286.0,8.0,4.0,1.0,3.0,3.0,498.8022840002486,4.0,1.0,phase_1,,,,,,,,,,,,,white,diamond
183.0,1.0,0.5,0.0,4.0,4.0,572.3834700002044,4.0,1.0,phase_1,,,,,,,,,,,,,gray,I
0.0,4.0,0.0,0.0,2.0,2.0,389.7184399997968,4.0,1.0,phase_1,,,,,,,,,,,,,cyan,triangle
328.0,2.0,1.0,0.0,1.0,1.0,645.4044780002732,4.0,1.0,phase_1,,,,,,,,,,,,,yellow,hexagon
330.0,2.0,1.0,0.0,4.0,4.0,544.9328409999907,4.0,1.0,phase_1,,,,,,,,,,,,,yellow,hexagon
138.0,5.0,0.5,1.0,4.0,4.0,454.5984139999746,4.0,1.0,phase_1,,,,,,,,,,,,,orange,square
1309.0,4.0,4.0,0.0,1.0,1.0,656.2049419999312,4.0,1.0,phase_1,,,,,,,,,,,,,cyan,triangle
323.0,2.0,1.0,0.0,1.0,1.0,572.5154169999769,4.0,1.0,phase_1,,,,,,,,,,,,,yellow,hexagon
670.0,7.0,2.0,1.0,3.0,3.0,489.5555590001095,4.0,1.0,phase_1,,,,,,,,,,,,,magenta,flipped triangle
160.0,1.0,0.5,0.0,4.0,4.0,490.1039049996143,4.0,1.0,phase_1,,,,,,,,,,,,,gray,I
1306.0,4.0,4.0,0.0,4.0,4.0,463.9747629998965,4.0,1.0,phase_1,,,,,,,,,,,,,cyan,triangle
174.0,5.0,0.5,1.0,3.0,3.0,424.6048390000396,4.0,1.0,phase_1,,,,,,,,,,,,,orange,square
672.0,3.0,2.0,0.0,4.0,4.0,418.8921429999936,4.0,1.0,phase_1,,,,,,,,,,,,,blue,circle
349.0,6.0,1.0,1.0,2.0,2.0,461.9891960001041,4.0,1.0,phase_1,,,,,,,,,,,,,green,cross
170.0,1.0,0.5,0.0,3.0,3.0,507.4527839997245,4.0,1.0,phase_1,,,,,,,,,,,,,gray,I
0.0,7.0,0.0,1.0,2.0,2.0,491.2133519997042,4.0,1.0,phase_1,,,,,,,,,,,,,magenta,flipped triangle
0.0,7.0,0.0,1.0,3.0,3.0,721.7058349997387,4.0,1.0,phase_1,,,,,,,,,,,,,magenta,flipped triangle
328.0,6.0,1.0,1.0,4.0,4.0,471.9636190002347,4.0,1.0,phase_1,,,,,,,,,,,,,green,cross
314.0,2.0,1.0,0.0,2.0,2.0,564.0195010000753,4.0,1.0,phase_1,,,,,,,,,,,,,yellow,hexagon
167.0,5.0,0.5,1.0,1.0,1.0,471.5607560001444,4.0,1.0,phase_1,,,,,,,,,,,,,orange,square
326.0,6.0,1.0,1.0,1.0,1.0,443.0887010003062,4.0,1.0,phase_1,,,,,,,,,,,,,green,cross
0.0,6.0,0.0,1.0,1.0,1.0,417.1993449999718,4.0,1.0,phase_1,,,,,,,,,,,,,green,cross
663.0,7.0,2.0,1.0,2.0,2.0,532.8953099997307,4.0,1.0,phase_1,,,,,,,,,,,,,magenta,flipped triangle
665.0,7.0,2.0,1.0,3.0,3.0,897.0554729999094,4.0,1.0,phase_1,,,,,,,,,,,,,magenta,flipped triangle
347.0,2.0,1.0,0.0,2.0,2.0,538.4410719998414,4.0,1.0,phase_1,,,,,,,,,,,,,yellow,hexagon
325.0,2.0,1.0,0.0,1.0,1.0,425.0439090001237,4.0,1.0,phase_1,,,,,,,,,,,,,yellow,hexagon
313.0,6.0,1.0,1.0,1.0,1.0,397.2780149997561,4.0,1.0,phase_1,,,,,,,,,,,,,green,cross
1312.0,4.0,4.0,0.0,1.0,1.0,480.5471529998613,4.0,1.0,phase_1,,,,,,,,,,,,,cyan,triangle
0.0,8.0,0.0,1.0,1.0,1.0,462.006712999937,4.0,1.0,phase_1,,,,,,,,,,,,,white,diamond
315.0,6.0,1.0,1.0,3.0,3.0,454.1282989998763,4.0,1.0,phase_1,,,,,,,,,,,,,green,cross
656.0,7.0,2.0,1.0,4.0,4.0,612.7283760001774,4.0,1.0,phase_1,,,,,,,,,,,,,magenta,flipped triangle
0.0,1.0,0.0,0.0,1.0,1.0,600.4935500000101,4.0,1.0,phase_1,,,,,,,,,,,,,gray,I
626.0,7.0,2.0,1.0,3.0,3.0,444.9058639997929,4.0,1.0,phase_1,,,,,,,,,,,,,magenta,flipped triangle
1277.0,4.0,4.0,0.0,1.0,1.0,417.4362740000106,4.0,1.0,phase_1,,,,,,,,,,,,,cyan,triangle
0.0,7.0,0.0,1.0,3.0,3.0,342.9287049998493,4.0,1.0,phase_1,,,,,,,,,,,,,magenta,flipped triangle
150.0,5.0,0.5,1.0,1.0,1.0,482.2947160000694,4.0,1.0,phase_1,,,,,,,,,,,,,orange,square
160.0,1.0,0.5,0.0,4.0,4.0,611.0313020003559,4.0,1.0,phase_1,,,,,,,,,,,,,gray,I
654.0,3.0,2.0,0.0,1.0,1.0,470.0456629998371,4.0,1.0,phase_1,,,,,,,,,,,,,blue,circle
329.0,2.0,1.0,0.0,4.0,4.0,565.1072929999827,4.0,1.0,phase_1,,,,,,,,,,,,,yellow,hexagon
0.0,4.0,0.0,0.0,4.0,4.0,472.7250129999447,4.0,1.0,phase_1,,,,,,,,,,,,,cyan,triangle
665.0,3.0,2.0,0.0,2.0,2.0,519.0871659997356,4.0,1.0,phase_1,,,,,,,,,,,,,blue,circle
342.0,2.0,1.0,0.0,3.0,3.0,566.3361719998647,4.0,1.0,phase_1,,,,,,,,,,,,,yellow,hexagon
1310.0,4.0,4.0,0.0,4.0,4.0,952.62227000012,4.0,1.0,phase_1,,,,,,,,,,,,,cyan,triangle
631.0,7.0,2.0,1.0,2.0,2.0,581.1515909999798,4.0,1.0,phase_1,,,,,,,,,,,,,magenta,flipped triangle
145.0,1.0,0.5,0.0,3.0,3.0,573.1949910000367,4.0,1.0,phase_1,,,,,,,,,,,,,gray,I
186.0,5.0,0.5,1.0,1.0,1.0,516.4115709999351,4.0,1.0,phase_1,,,,,,,,,,,,,orange,square
0.0,1.0,0.0,0.0,3.0,3.0,499.2152150002766,4.0,1.0,phase_1,,,,,,,,,,,,,gray,I
142.0,5.0,0.5,1.0,4.0,4.0,491.2185609996413,4.0,1.0,phase_1,,,,,,,,,,,,,orange,square
1304.0,4.0,4.0,0.0,3.0,3.0,462.4417390000417,4.0,1.0,phase_1,,,,,,,,,,,,,cyan,triangle
627.0,7.0,2.0,1.0,3.0,3.0,461.3991820001502,4.0,1.0,phase_1,,,,,,,,,,,,,magenta,flipped triangle
174.0,1.0,0.5,0.0,2.0,2.0,462.1750299997984,4.0,1.0,phase_1,,,,,,,,,,,,,gray,I
0.0,2.0,0.0,0.0,2.0,2.0,406.1998249999305,4.0,1.0,phase_1,,,,,,,,,,,,,yellow,hexagon
635.0,3.0,2.0,0.0,3.0,3.0,840.8605099998567,4.0,1.0,phase_1,,,,,,,,,,,,,blue,circle
145.0,5.0,0.5,1.0,1.0,1.0,592.3777559996779,4.0,1.0,phase_1,,,,,,,,,,,,,orange,square
185.0,1.0,0.5,0.0,2.0,2.0,453.101856000103,4.0,1.0,phase_1,,,,,,,,,,,,,gray,I
342.0,6.0,1.0,1.0,2.0,2.0,406.5679939999427,4.0,1.0,phase_1,,,,,,,,,,,,,green,cross
0.0,2.0,0.0,0.0,4.0,4.0,378.5347799998817,4.0,1.0,phase_1,,,,,,,,,,,,,yellow,hexagon
329.0,2.0,1.0,0.0,3.0,3.0,425.0303000003441,4.0,1.0,phase_1,,,,,,,,,,,,,yellow,hexagon
327.0,2.0,1.0,0.0,4.0,4.0,759.4462550000571,4.0,1.0,phase_1,,,,,,,,,,,,,yellow,hexagon
1320.0,8.0,4.0,1.0,3.0,3.0,370.0809409997418,4.0,1.0,phase_1,,,,,,,,,,,,,white,diamond
1313.0,8.0,4.0,1.0,2.0,2.0,443.6640330000045,4.0,1.0,phase_1,,,,,,,,,,,,,white,diamond
648.0,3.0,2.0,0.0,2.0,2.0,637.786892999884,4.0,1.0,phase_1,,,,,,,,,,,,,blue,circle
0.0,1.0,0.0,0.0,2.0,2.0,500.52899599995726,4.0,1.0,phase_1,,,,,,,,,,,,,gray,I
166.0,1.0,0.5,0.0,4.0,4.0,555.5284840002059,4.0,1.0,phase_1,,,,,,,,,,,,,gray,I
169.0,1.0,0.5,0.0,1.0,1.0,843.0944149999959,4.0,1.0,phase_1,,,,,,,,,,,,,gray,I
0.0,3.0,0.0,0.0,1.0,1.0,517.843417000222,4.0,1.0,phase_1,,,,,,,,,,,,,blue,circle
333.0,6.0,1.0,1.0,2.0,2.0,490.8300319998488,4.0,1.0,phase_1,,,,,,,,,,,,,green,cross
0.0,6.0,0.0,1.0,2.0,2.0,362.0149570001558,4.0,1.0,phase_1,,,,,,,,,,,,,green,cross
305.0,2.0,1.0,0.0,4.0,4.0,397.509712000101,4.0,1.0,phase_1,,,,,,,,,,,,,yellow,hexagon
673.0,3.0,2.0,0.0,1.0,1.0,657.4850639999568,4.0,1.0,phase_1,,,,,,,,,,,,,blue,circle
0.0,6.0,0.0,1.0,2.0,2.0,592.0059639997817,4.0,1.0,phase_1,,,,,,,,,,,,,green,cross
0.0,7.0,0.0,1.0,1.0,1.0,761.5457889996833,4.0,1.0,phase_1,,,,,,,,,,,,,magenta,flipped triangle
172.0,5.0,0.5,1.0,3.0,3.0,526.84486499993,4.0,1.0,phase_1,,,,,,,,,,,,,orange,square
322.0,6.0,1.0,1.0,4.0,4.0,482.5663070000701,4.0,1.0,phase_1,,,,,,,,,,,,,green,cross
0.0,5.0,0.0,1.0,4.0,4.0,417.2860759999821,4.0,1.0,phase_1,,,,,,,,,,,,,orange,square
637.0,7.0,2.0,1.0,2.0,2.0,434.9970550001671,4.0,1.0,phase_1,,,,,,,,,,,,,magenta,flipped triangle
1305.0,8.0,4.0,1.0,1.0,1.0,518.2704009998815,4.0,1.0,phase_1,,,,,,,,,,,,,white,diamond
1314.0,8.0,4.0,1.0,4.0,4.0,417.0938400002342,4.0,1.0,phase_1,,,,,,,,,,,,,white,diamond
1276.0,4.0,4.0,0.0,3.0,3.0,471.3264769998204,4.0,1.0,phase_1,,,,,,,,,,,,,cyan,triangle
1313.0,4.0,4.0,0.0,2.0,2.0,453.3739150001565,4.0,1.0,phase_1,,,,,,,,,,,,,cyan,triangle
0.0,3.0,0.0,0.0,2.0,2.0,453.5538149998501,4.0,1.0,phase_1,,,,,,,,,,,,,blue,circle
655.0,3.0,2.0,0.0,2.0,2.0,647.2093800002767,4.0,1.0,phase_1,,,,,,,,,,,,,blue,circle
0.0,8.0,0.0,1.0,3.0,3.0,463.1601169999157,4.0,1.0,phase_1,,,,,,,,,,,,,white,diamond
0.0,7.0,0.0,1.0,4.0,4.0,538.1499889999759,4.0,1.0,phase_1,,,,,,,,,,,,,magenta,flipped triangle
332.0,2.0,1.0,0.0,2.0,2.0,555.6825069998013,4.0,1.0,phase_1,,,,,,,,,,,,,yellow,hexagon
0.0,1.0,0.0,0.0,1.0,1.0,574.7435509997558,4.0,1.0,phase_1,,,,,,,,,,,,,gray,I
163.0,5.0,0.5,1.0,3.0,3.0,398.4505020002871,4.0,1.0,phase_1,,,,,,,,,,,,,orange,square
1316.0,8.0,4.0,1.0,2.0,2.0,425.6520839999211,4.0,1.0,phase_1,,,,,,,,,,,,,white,diamond
0.0,2.0,1.0,0.0,6.0,6.0,457.7837430001636,1.0,1.0,phase_2,go,250.0,250.0,1.0,,,,,,,,,yellow,hexagon
0.0,8.0,4.0,1.0,5.0,0.0,0.0,1.0,1.0,phase_2,stop,250.0,250.0,4.0,,,,,,,,,white,diamond
0.0,8.0,4.0,1.0,5.0,5.0,354.4541940000272,1.0,1.0,phase_2,stop,300.0,250.0,3.0,,,,,,,,,white,diamond
0.0,2.0,1.0,0.0,5.0,5.0,521.9258110000737,1.0,1.0,phase_2,go,250.0,250.0,1.0,,,,,,,,,yellow,hexagon
0.0,2.0,1.0,0.0,5.0,5.0,430.5491999998594,1.0,1.0,phase_2,go,250.0,250.0,1.0,,,,,,,,,yellow,hexagon
0.0,3.0,2.0,0.0,6.0,6.0,605.9352930001296,1.0,1.0,phase_2,go,250.0,250.0,1.0,,,,,,,,,blue,circle
0.0,7.0,2.0,1.0,5.0,5.0,645.492509000178,1.0,1.0,phase_2,stop,250.0,250.0,3.0,,,,,,,,,magenta,flipped triangle
0.0,1.0,0.5,0.0,6.0,6.0,690.1191270003437,1.0,1.0,phase_2,go,200.0,250.0,1.0,,,,,,,,,gray,I
0.0,3.0,2.0,0.0,6.0,6.0,867.643594999663,1.0,1.0,phase_2,go,200.0,250.0,1.0,,,,,,,,,blue,circle
0.0,4.0,4.0,0.0,5.0,5.0,595.2476090001255,1.0,1.0,phase_2,go,200.0,250.0,1.0,,,,,,,,,cyan,triangle
0.0,3.0,2.0,0.0,5.0,5.0,754.1036300003725,1.0,1.0,phase_2,go,200.0,250.0,1.0,,,,,,,,,blue,circle
0.0,8.0,4.0,1.0,6.0,0.0,0.0,1.0,1.0,phase_2,stop,200.0,250.0,4.0,,,,,,,,,white,diamond
0.0,4.0,4.0,0.0,6.0,6.0,911.002289999942,1.0,1.0,phase_2,go,200.0,300.0,1.0,,,,,,,,,cyan,triangle
0.0,6.0,1.0,1.0,5.0,0.0,0.0,1.0,1.0,phase_2,stop,200.0,300.0,4.0,,,,,,,,,green,cross
0.0,5.0,0.5,1.0,5.0,0.0,0.0,1.0,1.0,phase_2,stop,250.0,300.0,4.0,,,,,,,,,orange,square
0.0,8.0,4.0,1.0,6.0,6.0,586.6360039999563,1.0,1.0,phase_2,go,300.0,300.0,1.0,,,,,,,,,white,diamond
0.0,2.0,1.0,0.0,6.0,6.0,903.4791889998814,1.0,1.0,phase_2,go,300.0,300.0,1.0,,,,,,,,,yellow,hexagon
0.0,2.0,1.0,0.0,6.0,6.0,688.9847480001663,1.0,1.0,phase_2,go,300.0,300.0,1.0,,,,,,,,,yellow,hexagon
0.0,4.0,4.0,0.0,5.0,5.0,929.523849999896,1.0,1.0,phase_2,go,300.0,300.0,1.0,,,,,,,,,cyan,triangle
0.0,7.0,2.0,1.0,6.0,0.0,0.0,1.0,1.0,phase_2,stop,300.0,300.0,4.0,,,,,,,,,magenta,flipped triangle
0.0,3.0,2.0,0.0,6.0,6.0,677.7367499998945,1.0,1.0,phase_2,go,300.0,350.0,1.0,,,,,,,,,blue,circle
0.0,3.0,2.0,0.0,6.0,6.0,828.403179000361,1.0,1.0,phase_2,go,300.0,350.0,1.0,,,,,,,,,blue,circle
0.0,3.0,2.0,0.0,5.0,5.0,772.725392999746,1.0,1.0,phase_2,go,300.0,350.0,1.0,,,,,,,,,blue,circle
0.0,2.0,1.0,0.0,5.0,5.0,1059.416358999897,1.0,1.0,phase_2,go,300.0,350.0,1.0,,,,,,,,,yellow,hexagon
0.0,2.0,1.0,0.0,6.0,6.0,930.2555150002264,1.0,1.0,phase_2,go,300.0,350.0,1.0,,,,,,,,,yellow,hexagon
0.0,2.0,1.0,0.0,5.0,5.0,977.132752000216,1.0,1.0,phase_2,go,300.0,350.0,1.0,,,,,,,,,yellow,hexagon
0.0,6.0,1.0,1.0,5.0,5.0,855.6695349998336,1.0,1.0,phase_2,go,300.0,350.0,1.0,,,,,,,,,green,cross
0.0,4.0,4.0,0.0,6.0,6.0,960.5015560000538,1.0,1.0,phase_2,go,300.0,350.0,1.0,,,,,,,,,cyan,triangle
0.0,5.0,0.5,1.0,5.0,5.0,919.8728830001528,1.0,1.0,phase_2,go,300.0,350.0,1.0,,,,,,,,,orange,square
0.0,5.0,0.5,1.0,6.0,0.0,0.0,1.0,1.0,phase_2,stop,300.0,350.0,4.0,,,,,,,,,orange,square
0.0,5.0,0.5,1.0,6.0,0.0,0.0,1.0,1.0,phase_2,stop,300.0,400.0,4.0,,,,,,,,,orange,square
0.0,4.0,4.0,0.0,6.0,6.0,874.0189559998726,1.0,1.0,phase_2,go,300.0,450.0,1.0,,,,,,,,,cyan,triangle
0.0,8.0,4.0,1.0,6.0,6.0,801.4356979997501,1.0,1.0,phase_2,go,300.0,450.0,1.0,,,,,,,,,white,diamond
0.0,6.0,1.0,1.0,5.0,0.0,0.0,1.0,1.0,phase_2,stop,300.0,450.0,4.0,,,,,,,,,green,cross
0.0,4.0,4.0,0.0,6.0,6.0,782.8853340001842,1.0,1.0,phase_2,go,350.0,450.0,1.0,,,,,,,,,cyan,triangle
0.0,8.0,4.0,1.0,5.0,0.0,0.0,1.0,1.0,phase_2,stop,350.0,450.0,4.0,,,,,,,,,white,diamond
0.0,6.0,1.0,1.0,5.0,5.0,1031.8933939997803,2.0,1.0,phase_2,stop,400.0,450.0,3.0,,,,,,,,,green,cross
0.0,1.0,0.5,0.0,6.0,6.0,885.3705840001567,2.0,1.0,phase_2,go,350.0,450.0,1.0,,,,,,,,,gray,I
0.0,2.0,1.0,0.0,6.0,6.0,921.014692999961,2.0,1.0,phase_2,go,350.0,450.0,1.0,,,,,,,,,yellow,hexagon
0.0,2.0,1.0,0.0,6.0,6.0,447.6467319996118,2.0,1.0,phase_2,go,350.0,450.0,1.0,,,,,,,,,yellow,hexagon
0.0,8.0,4.0,1.0,6.0,6.0,486.5819779997764,2.0,1.0,phase_2,stop,350.0,450.0,3.0,,,,,,,,,white,diamond
0.0,3.0,2.0,0.0,6.0,6.0,560.6308589999571,2.0,1.0,phase_2,go,350.0,400.0,1.0,,,,,,,,,blue,circle
0.0,3.0,2.0,0.0,5.0,5.0,513.0884780000997,2.0,1.0,phase_2,go,350.0,400.0,1.0,,,,,,,,,blue,circle
0.0,2.0,1.0,0.0,6.0,6.0,511.29373799994937,2.0,1.0,phase_2,go,350.0,400.0,1.0,,,,,,,,,yellow,hexagon
0.0,7.0,2.0,1.0,6.0,6.0,374.8535280001306,2.0,1.0,phase_2,stop,350.0,400.0,3.0,,,,,,,,,magenta,flipped triangle
0.0,3.0,2.0,0.0,6.0,6.0,736.4145219999045,2.0,1.0,phase_2,go,350.0,350.0,1.0,,,,,,,,,blue,circle
0.0,4.0,4.0,0.0,5.0,5.0,661.4979179998954,2.0,1.0,phase_2,go,350.0,350.0,1.0,,,,,,,,,cyan,triangle
0.0,4.0,4.0,0.0,5.0,5.0,772.5306319998708,2.0,1.0,phase_2,go,350.0,350.0,1.0,,,,,,,,,cyan,triangle
0.0,2.0,1.0,0.0,6.0,6.0,690.6373540000459,2.0,1.0,phase_2,go,350.0,350.0,1.0,,,,,,,,,yellow,hexagon
0.0,5.0,0.5,1.0,5.0,5.0,503.1456850001632,2.0,1.0,phase_2,stop,350.0,350.0,3.0,,,,,,,,,orange,square
0.0,3.0,2.0,0.0,5.0,5.0,801.9008609999219,2.0,1.0,phase_2,go,300.0,350.0,1.0,,,,,,,,,blue,circle
0.0,2.0,1.0,0.0,5.0,5.0,810.2650959999664,2.0,1.0,phase_2,go,300.0,350.0,1.0,,,,,,,,,yellow,hexagon
0.0,6.0,1.0,1.0,6.0,0.0,0.0,2.0,1.0,phase_2,stop,300.0,350.0,4.0,,,,,,,,,green,cross
0.0,7.0,2.0,1.0,5.0,0.0,0.0,2.0,1.0,phase_2,stop,300.0,400.0,4.0,,,,,,,,,magenta,flipped triangle
0.0,4.0,4.0,0.0,6.0,6.0,640.7561790001637,2.0,1.0,phase_2,go,350.0,400.0,1.0,,,,,,,,,cyan,triangle
0.0,8.0,4.0,1.0,5.0,0.0,0.0,2.0,1.0,phase_2,stop,350.0,400.0,4.0,,,,,,,,,white,diamond
0.0,6.0,1.0,1.0,5.0,0.0,0.0,2.0,1.0,phase_2,stop,400.0,400.0,4.0,,,,,,,,,green,cross
0.0,8.0,4.0,1.0,6.0,0.0,0.0,2.0,1.0,phase_2,stop,450.0,400.0,4.0,,,,,,,,,white,diamond
0.0,8.0,4.0,1.0,5.0,5.0,836.1647379997521,2.0,1.0,phase_2,go,450.0,450.0,1.0,,,,,,,,,white,diamond
0.0,8.0,4.0,1.0,5.0,5.0,485.6776110000282,2.0,1.0,phase_2,go,450.0,450.0,1.0,,,,,,,,,white,diamond
0.0,6.0,1.0,1.0,6.0,6.0,584.4152179997764,2.0,1.0,phase_2,stop,450.0,450.0,3.0,,,,,,,,,green,cross
0.0,6.0,1.0,1.0,6.0,6.0,1073.890449999908,2.0,1.0,phase_2,go,450.0,400.0,1.0,,,,,,,,,green,cross
0.0,5.0,0.5,1.0,5.0,0.0,0.0,2.0,1.0,phase_2,stop,450.0,400.0,4.0,,,,,,,,,orange,square
0.0,1.0,0.5,0.0,5.0,5.0,882.6882660000592,2.0,1.0,phase_2,go,500.0,400.0,1.0,,,,,,,,,gray,I
0.0,7.0,2.0,1.0,5.0,0.0,0.0,2.0,1.0,phase_2,stop,500.0,400.0,4.0,,,,,,,,,magenta,flipped triangle
0.0,6.0,1.0,1.0,6.0,0.0,0.0,2.0,1.0,phase_2,stop,550.0,400.0,4.0,,,,,,,,,green,cross
0.0,6.0,1.0,1.0,6.0,0.0,0.0,2.0,1.0,phase_2,stop,550.0,450.0,4.0,,,,,,,,,green,cross
0.0,1.0,0.5,0.0,5.0,5.0,532.7015890002258,2.0,1.0,phase_2,go,550.0,500.0,1.0,,,,,,,,,gray,I
0.0,6.0,1.0,1.0,5.0,0.0,0.0,2.0,1.0,phase_2,stop,550.0,500.0,4.0,,,,,,,,,green,cross
0.0,1.0,0.5,0.0,6.0,6.0,843.6212479996357,2.0,1.0,phase_2,go,600.0,500.0,1.0,,,,,,,,,gray,I
0.0,7.0,2.0,1.0,5.0,0.0,0.0,2.0,1.0,phase_2,stop,600.0,500.0,4.0,,,,,,,,,magenta,flipped triangle
0.0,3.0,2.0,0.0,5.0,5.0,955.3543749998424,2.0,1.0,phase_2,go,650.0,500.0,1.0,,,,,,,,,blue,circle
0.0,4.0,4.0,0.0,5.0,5.0,561.1748989999796,3.0,1.0,phase_2,go,650.0,500.0,1.0,,,,,,,,,cyan,triangle
0.0,4.0,4.0,0.0,5.0,5.0,728.080374000001,3.0,1.0,phase_2,go,650.0,500.0,1.0,,,,,,,,,cyan,triangle
0.0,4.0,4.0,0.0,6.0,6.0,652.4922499997956,3.0,1.0,phase_2,go,650.0,500.0,1.0,,,,,,,,,cyan,triangle
0.0,5.0,0.5,1.0,5.0,5.0,818.565879000289,3.0,1.0,phase_2,stop,650.0,500.0,3.0,,,,,,,,,orange,square
0.0,7.0,2.0,1.0,6.0,6.0,550.9669329999269,3.0,1.0,phase_2,stop,600.0,500.0,3.0,,,,,,,,,magenta,flipped triangle
0.0,4.0,4.0,0.0,6.0,6.0,532.0227629999863,3.0,1.0,phase_2,go,600.0,450.0,1.0,,,,,,,,,cyan,triangle
0.0,3.0,2.0,0.0,5.0,5.0,738.8532790000681,3.0,1.0,phase_2,go,600.0,450.0,1.0,,,,,,,,,blue,circle
0.0,2.0,1.0,0.0,5.0,5.0,680.6561930002317,3.0,1.0,phase_2,go,600.0,450.0,1.0,,,,,,,,,yellow,hexagon
0.0,3.0,2.0,0.0,6.0,6.0,609.2563490001339,3.0,1.0,phase_2,go,600.0,450.0,1.0,,,,,,,,,blue,circle
0.0,8.0,4.0,1.0,5.0,5.0,373.3552009998675,3.0,1.0,phase_2,stop,600.0,450.0,3.0,,,,,,,,,white,diamond
0.0,4.0,4.0,0.0,6.0,6.0,728.2646600001499,3.0,1.0,phase_2,go,550.0,450.0,1.0,,,,,,,,,cyan,triangle
0.0,1.0,0.5,0.0,6.0,6.0,913.1571899997653,3.0,1.0,phase_2,go,550.0,450.0,1.0,,,,,,,,,gray,I
0.0,4.0,4.0,0.0,5.0,5.0,868.3157899999969,3.0,1.0,phase_2,go,550.0,450.0,1.0,,,,,,,,,cyan,triangle
0.0,6.0,1.0,1.0,5.0,0.0,0.0,3.0,1.0,phase_2,stop,550.0,450.0,4.0,,,,,,,,,green,cross
0.0,6.0,1.0,1.0,5.0,0.0,0.0,3.0,1.0,phase_2,stop,600.0,450.0,4.0,,,,,,,,,green,cross
0.0,5.0,0.5,1.0,6.0,0.0,0.0,3.0,1.0,phase_2,stop,650.0,450.0,4.0,,,,,,,,,orange,square
0.0,5.0,0.5,1.0,5.0,5.0,922.9806629996348,3.0,1.0,phase_2,go,650.0,500.0,1.0,,,,,,,,,orange,square
0.0,6.0,1.0,1.0,6.0,0.0,0.0,3.0,1.0,phase_2,stop,650.0,500.0,4.0,,,,,,,,,green,cross
0.0,1.0,0.5,0.0,5.0,5.0,691.4173509999273,3.0,1.0,phase_2,go,650.0,550.0,1.0,,,,,,,,,gray,I
0.0,7.0,2.0,1.0,5.0,0.0,0.0,3.0,1.0,phase_2,stop,650.0,550.0,4.0,,,,,,,,,magenta,flipped triangle
0.0,2.0,1.0,0.0,5.0,5.0,915.5480730000818,3.0,1.0,phase_2,go,700.0,550.0,1.0,,,,,,,,,yellow,hexagon
0.0,4.0,4.0,0.0,6.0,6.0,848.9498009998897,3.0,1.0,phase_2,go,700.0,550.0,1.0,,,,,,,,,cyan,triangle
0.0,7.0,2.0,1.0,5.0,5.0,654.049243999907,3.0,1.0,phase_2,go,700.0,550.0,1.0,,,,,,,,,magenta,flipped triangle
0.0,4.0,4.0,0.0,6.0,6.0,672.9528480000226,3.0,1.0,phase_2,go,700.0,550.0,1.0,,,,,,,,,cyan,triangle
0.0,1.0,0.5,0.0,5.0,5.0,663.5078539998176,3.0,1.0,phase_2,go,700.0,550.0,1.0,,,,,,,,,gray,I
0.0,4.0,4.0,0.0,6.0,6.0,430.049154000244,3.0,1.0,phase_2,go,700.0,550.0,1.0,,,,,,,,,cyan,triangle
0.0,8.0,4.0,1.0,6.0,0.0,0.0,3.0,1.0,phase_2,stop,700.0,550.0,4.0,,,,,,,,,white,diamond
0.0,6.0,1.0,1.0,5.0,5.0,1082.779341999867,3.0,1.0,phase_2,go,700.0,600.0,1.0,,,,,,,,,green,cross
0.0,7.0,2.0,1.0,5.0,5.0,875.116438999612,3.0,1.0,phase_2,stop,700.0,600.0,3.0,,,,,,,,,magenta,flipped triangle
0.0,3.0,2.0,0.0,6.0,6.0,765.0489450002169,3.0,1.0,phase_2,go,650.0,600.0,1.0,,,,,,,,,blue,circle
0.0,8.0,4.0,1.0,5.0,5.0,484.6818579999308,3.0,1.0,phase_2,stop,650.0,600.0,3.0,,,,,,,,,white,diamond
0.0,7.0,2.0,1.0,5.0,0.0,0.0,3.0,1.0,phase_2,stop,600.0,600.0,4.0,,,,,,,,,magenta,flipped triangle
0.0,6.0,1.0,1.0,5.0,0.0,0.0,3.0,1.0,phase_2,stop,650.0,600.0,4.0,,,,,,,,,green,cross
0.0,2.0,1.0,0.0,5.0,5.0,961.2293590002992,3.0,1.0,phase_2,go,700.0,600.0,1.0,,,,,,,,,yellow,hexagon
0.0,8.0,4.0,1.0,6.0,0.0,0.0,3.0,1.0,phase_2,stop,700.0,600.0,4.0,,,,,,,,,white,diamond
0.0,6.0,1.0,1.0,6.0,6.0,915.922595000211,3.0,1.0,phase_2,go,700.0,650.0,1.0,,,,,,,,,green,cross
0.0,5.0,0.5,1.0,5.0,5.0,577.8337189999547,4.0,1.0,phase_2,stop,700.0,650.0,3.0,,,,,,,,,orange,square
0.0,6.0,1.0,1.0,6.0,6.0,373.6132740000357,4.0,1.0,phase_2,go,650.0,650.0,1.0,,,,,,,,,green,cross
0.0,7.0,2.0,1.0,6.0,6.0,925.6903750001584,4.0,1.0,phase_2,go,650.0,650.0,1.0,,,,,,,,,magenta,flipped triangle
0.0,7.0,2.0,1.0,6.0,6.0,950.5116130003444,4.0,1.0,phase_2,go,650.0,650.0,1.0,,,,,,,,,magenta,flipped triangle
0.0,1.0,0.5,0.0,6.0,6.0,750.440265999714,4.0,1.0,phase_2,go,650.0,650.0,1.0,,,,,,,,,gray,I
0.0,4.0,4.0,0.0,5.0,5.0,882.9948990000958,4.0,1.0,phase_2,go,650.0,650.0,1.0,,,,,,,,,cyan,triangle
0.0,7.0,2.0,1.0,6.0,6.0,494.6671950001473,4.0,1.0,phase_2,stop,650.0,650.0,3.0,,,,,,,,,magenta,flipped triangle
0.0,2.0,1.0,0.0,5.0,5.0,699.2617270002484,4.0,1.0,phase_2,go,650.0,600.0,1.0,,,,,,,,,yellow,hexagon
0.0,5.0,0.5,1.0,5.0,0.0,0.0,4.0,1.0,phase_2,stop,650.0,600.0,4.0,,,,,,,,,orange,square
0.0,7.0,2.0,1.0,6.0,6.0,1025.279572999807,4.0,1.0,phase_2,go,700.0,600.0,1.0,,,,,,,,,magenta,flipped triangle
0.0,7.0,2.0,1.0,5.0,5.0,485.1307300000371,4.0,1.0,phase_2,go,700.0,600.0,1.0,,,,,,,,,magenta,flipped triangle
0.0,6.0,1.0,1.0,5.0,0.0,0.0,4.0,1.0,phase_2,stop,700.0,600.0,4.0,,,,,,,,,green,cross
0.0,2.0,1.0,0.0,6.0,6.0,1035.154997999598,4.0,1.0,phase_2,go,750.0,600.0,1.0,,,,,,,,,yellow,hexagon
0.0,7.0,2.0,1.0,5.0,0.0,0.0,4.0,1.0,phase_2,stop,750.0,600.0,4.0,,,,,,,,,magenta,flipped triangle
0.0,5.0,0.5,1.0,5.0,5.0,969.1984090000004,4.0,1.0,phase_2,stop,800.0,600.0,3.0,,,,,,,,,orange,square
0.0,6.0,1.0,1.0,6.0,0.0,0.0,4.0,1.0,phase_2,stop,750.0,600.0,4.0,,,,,,,,,green,cross
0.0,8.0,4.0,1.0,5.0,5.0,813.548233000347,4.0,1.0,phase_2,go,750.0,650.0,1.0,,,,,,,,,white,diamond
0.0,4.0,4.0,0.0,5.0,5.0,884.9416519997249,4.0,1.0,phase_2,go,750.0,650.0,1.0,,,,,,,,,cyan,triangle
0.0,7.0,2.0,1.0,6.0,6.0,814.375347999885,4.0,1.0,phase_2,stop,750.0,650.0,3.0,,,,,,,,,magenta,flipped triangle
0.0,8.0,4.0,1.0,5.0,5.0,1167.2007440001837,4.0,1.0,phase_2,go,750.0,600.0,1.0,,,,,,,,,white,diamond
0.0,2.0,1.0,0.0,5.0,5.0,1231.8444259999524,4.0,1.0,phase_2,go,750.0,600.0,1.0,,,,,,,,,yellow,hexagon
0.0,2.0,1.0,0.0,6.0,6.0,1188.3428520000052,4.0,1.0,phase_2,go,750.0,600.0,1.0,,,,,,,,,yellow,hexagon
0.0,7.0,2.0,1.0,6.0,6.0,859.4131019999622,4.0,1.0,phase_2,go,750.0,600.0,1.0,,,,,,,,,magenta,flipped triangle
0.0,1.0,0.5,0.0,5.0,5.0,1017.3453450001944,4.0,1.0,phase_2,go,750.0,600.0,1.0,,,,,,,,,gray,I
0.0,2.0,1.0,0.0,5.0,5.0,792.0949189997373,4.0,1.0,phase_2,go,750.0,600.0,1.0,,,,,,,,,yellow,hexagon
0.0,8.0,4.0,1.0,6.0,0.0,0.0,4.0,1.0,phase_2,stop,750.0,600.0,4.0,,,,,,,,,white,diamond
0.0,2.0,1.0,0.0,5.0,5.0,795.18122699983,4.0,1.0,phase_2,go,750.0,650.0,1.0,,,,,,,,,yellow,hexagon
0.0,1.0,0.5,0.0,5.0,5.0,747.8383259999646,4.0,1.0,phase_2,go,750.0,650.0,1.0,,,,,,,,,gray,I
0.0,1.0,0.5,0.0,6.0,6.0,624.6232680000503,4.0,1.0,phase_2,go,750.0,650.0,1.0,,,,,,,,,gray,I
0.0,7.0,2.0,1.0,5.0,5.0,604.2071570000189,4.0,1.0,phase_2,stop,750.0,650.0,3.0,,,,,,,,,magenta,flipped triangle
0.0,5.0,0.5,1.0,6.0,6.0,577.0278820000385,4.0,1.0,phase_2,stop,700.0,650.0,3.0,,,,,,,,,orange,square
0.0,3.0,2.0,0.0,6.0,6.0,912.8368900001078,4.0,1.0,phase_2,go,700.0,600.0,1.0,,,,,,,,,blue,circle
0.0,4.0,4.0,0.0,6.0,6.0,1069.554829000026,4.0,1.0,phase_2,go,700.0,600.0,1.0,,,,,,,,,cyan,triangle
0.0,5.0,0.5,1.0,5.0,0.0,0.0,4.0,1.0,phase_2,stop,700.0,600.0,4.0,,,,,,,,,orange,square
0.0,4.0,4.0,0.0,6.0,0.0,0.0,4.0,1.0,phase_2,go,750.0,600.0,5.0,,,,,,,,,cyan,triangle
0.0,5.0,0.5,1.0,6.0,6.0,975.6300870003544,4.0,1.0,phase_2,go,750.0,600.0,1.0,,,,,,,,,orange,square
0.0,8.0,4.0,1.0,5.0,5.0,717.807300000004,5.0,1.0,phase_2,stop,750.0,600.0,3.0,,,,,,,,,white,diamond
0.0,8.0,4.0,1.0,6.0,6.0,345.1246330000685,5.0,1.0,phase_2,stop,700.0,600.0,3.0,,,,,,,,,white,diamond
0.0,1.0,0.5,0.0,6.0,6.0,391.6153410000333,5.0,1.0,phase_2,go,700.0,550.0,1.0,,,,,,,,,gray,I
0.0,4.0,4.0,0.0,5.0,5.0,318.1360150001637,5.0,1.0,phase_2,go,700.0,550.0,1.0,,,,,,,,,cyan,triangle
0.0,6.0,1.0,1.0,6.0,6.0,410.0906290000239,5.0,1.0,phase_2,stop,700.0,550.0,3.0,,,,,,,,,green,cross
0.0,4.0,4.0,0.0,5.0,5.0,514.2740490000506,5.0,1.0,phase_2,go,700.0,500.0,1.0,,,,,,,,,cyan,triangle
0.0,8.0,4.0,1.0,5.0,5.0,494.6259779999309,5.0,1.0,phase_2,stop,700.0,500.0,3.0,,,,,,,,,white,diamond
0.0,8.0,4.0,1.0,5.0,5.0,714.0729899997496,5.0,1.0,phase_2,stop,650.0,500.0,3.0,,,,,,,,,white,diamond
0.0,1.0,0.5,0.0,5.0,5.0,755.3587669999615,5.0,1.0,phase_2,go,600.0,500.0,1.0,,,,,,,,,gray,I
0.0,7.0,2.0,1.0,6.0,6.0,483.2014220000928,5.0,1.0,phase_2,go,600.0,500.0,1.0,,,,,,,,,magenta,flipped triangle
0.0,1.0,0.5,0.0,5.0,5.0,447.7810849998604,5.0,1.0,phase_2,go,600.0,500.0,1.0,,,,,,,,,gray,I
0.0,4.0,4.0,0.0,6.0,6.0,410.6173649997799,5.0,1.0,phase_2,go,600.0,500.0,1.0,,,,,,,,,cyan,triangle
0.0,5.0,0.5,1.0,6.0,6.0,457.7604090000022,5.0,1.0,phase_2,stop,600.0,500.0,3.0,,,,,,,,,orange,square
0.0,2.0,1.0,0.0,6.0,6.0,502.4855319998096,5.0,1.0,phase_2,go,600.0,450.0,1.0,,,,,,,,,yellow,hexagon
0.0,8.0,4.0,1.0,6.0,6.0,437.4437970000144,5.0,1.0,phase_2,stop,600.0,450.0,3.0,,,,,,,,,white,diamond
0.0,2.0,1.0,0.0,6.0,6.0,643.0047819999345,5.0,1.0,phase_2,go,600.0,400.0,1.0,,,,,,,,,yellow,hexagon
0.0,3.0,2.0,0.0,5.0,5.0,391.4272199999686,5.0,1.0,phase_2,go,600.0,400.0,1.0,,,,,,,,,blue,circle
0.0,8.0,4.0,1.0,5.0,5.0,410.5895819998295,5.0,1.0,phase_2,stop,600.0,400.0,3.0,,,,,,,,,white,diamond
0.0,1.0,0.5,0.0,6.0,6.0,655.246611000166,5.0,1.0,phase_2,go,550.0,400.0,1.0,,,,,,,,,gray,I
0.0,5.0,0.5,1.0,6.0,6.0,451.5380620000542,5.0,1.0,phase_2,stop,550.0,400.0,3.0,,,,,,,,,orange,square
0.0,7.0,2.0,1.0,5.0,5.0,495.7713640001202,5.0,1.0,phase_2,stop,550.0,350.0,3.0,,,,,,,,,magenta,flipped triangle
0.0,2.0,1.0,0.0,5.0,5.0,1069.8114619999617,5.0,1.0,phase_2,go,500.0,350.0,1.0,,,,,,,,,yellow,hexagon
0.0,3.0,2.0,0.0,6.0,6.0,868.5541029999513,5.0,1.0,phase_2,go,500.0,350.0,1.0,,,,,,,,,blue,circle
0.0,4.0,4.0,0.0,6.0,6.0,884.9354170001789,5.0,1.0,phase_2,go,500.0,350.0,1.0,,,,,,,,,cyan,triangle
0.0,7.0,2.0,1.0,6.0,0.0,0.0,5.0,1.0,phase_2,stop,500.0,350.0,4.0,,,,,,,,,magenta,flipped triangle
0.0,8.0,4.0,1.0,6.0,6.0,960.3050159998928,5.0,1.0,phase_2,go,500.0,400.0,1.0,,,,,,,,,white,diamond
0.0,3.0,2.0,0.0,5.0,5.0,895.2564349997374,5.0,1.0,phase_2,go,500.0,400.0,1.0,,,,,,,,,blue,circle
0.0,6.0,1.0,1.0,6.0,6.0,522.4698950000857,5.0,1.0,phase_2,go,500.0,400.0,1.0,,,,,,,,,green,cross
0.0,4.0,4.0,0.0,6.0,6.0,514.0391769996313,5.0,1.0,phase_2,go,500.0,400.0,1.0,,,,,,,,,cyan,triangle
0.0,3.0,2.0,0.0,6.0,6.0,438.9372860000549,5.0,1.0,phase_2,go,500.0,400.0,1.0,,,,,,,,,blue,circle
0.0,8.0,4.0,1.0,6.0,6.0,372.2851809998246,5.0,1.0,phase_2,stop,500.0,400.0,3.0,,,,,,,,,white,diamond
0.0,7.0,2.0,1.0,5.0,0.0,0.0,5.0,1.0,phase_2,stop,500.0,350.0,4.0,,,,,,,,,magenta,flipped triangle
0.0,2.0,1.0,0.0,6.0,6.0,903.7417639997328,5.0,1.0,phase_2,go,550.0,350.0,1.0,,,,,,,,,yellow,hexagon
0.0,4.0,4.0,0.0,5.0,5.0,783.0360880002445,5.0,1.0,phase_2,go,550.0,350.0,1.0,,,,,,,,,cyan,triangle
0.0,1.0,0.5,0.0,5.0,5.0,1166.564752999875,5.0,1.0,phase_2,go,550.0,350.0,1.0,,,,,,,,,gray,I
0.0,8.0,4.0,1.0,5.0,5.0,961.7223449999984,5.0,1.0,phase_2,go,550.0,350.0,1.0,,,,,,,,,white,diamond
0.0,8.0,4.0,1.0,5.0,5.0,587.9029590000755,6.0,1.0,phase_2,stop,550.0,350.0,3.0,,,,,,,,,white,diamond
0.0,2.0,1.0,0.0,6.0,6.0,569.1924950001521,6.0,1.0,phase_2,go,500.0,350.0,1.0,,,,,,,,,yellow,hexagon
0.0,1.0,0.5,0.0,5.0,5.0,635.0465669997902,6.0,1.0,phase_2,go,500.0,350.0,1.0,,,,,,,,,gray,I
0.0,5.0,0.5,1.0,5.0,5.0,541.2125650000235,6.0,1.0,phase_2,stop,500.0,350.0,3.0,,,,,,,,,orange,square
0.0,1.0,0.5,0.0,6.0,6.0,401.5957589999743,6.0,1.0,phase_2,go,450.0,350.0,1.0,,,,,,,,,gray,I
0.0,3.0,2.0,0.0,5.0,5.0,960.4521810001644,6.0,1.0,phase_2,go,450.0,350.0,1.0,,,,,,,,,blue,circle
0.0,5.0,0.5,1.0,6.0,0.0,0.0,6.0,1.0,phase_2,stop,450.0,350.0,4.0,,,,,,,,,orange,square
0.0,3.0,2.0,0.0,5.0,5.0,485.2151539998885,6.0,1.0,phase_2,go,450.0,400.0,1.0,,,,,,,,,blue,circle
0.0,8.0,4.0,1.0,5.0,0.0,0.0,6.0,1.0,phase_2,stop,450.0,400.0,4.0,,,,,,,,,white,diamond
0.0,5.0,0.5,1.0,6.0,6.0,447.6489769999716,6.0,1.0,phase_2,stop,500.0,400.0,3.0,,,,,,,,,orange,square
0.0,6.0,1.0,1.0,6.0,6.0,523.5590229999616,6.0,1.0,phase_2,stop,500.0,350.0,3.0,,,,,,,,,green,cross
0.0,7.0,2.0,1.0,6.0,6.0,353.9476860000832,6.0,1.0,phase_2,go,500.0,300.0,1.0,,,,,,,,,magenta,flipped triangle
0.0,1.0,0.5,0.0,6.0,6.0,429.4239410000955,6.0,1.0,phase_2,go,500.0,300.0,1.0,,,,,,,,,gray,I
0.0,5.0,0.5,1.0,5.0,5.0,410.2628089999598,6.0,1.0,phase_2,go,500.0,300.0,1.0,,,,,,,,,orange,square
0.0,2.0,1.0,0.0,5.0,5.0,341.2033869999504,6.0,1.0,phase_2,go,500.0,300.0,1.0,,,,,,,,,yellow,hexagon
0.0,1.0,0.5,0.0,5.0,5.0,391.1445730000196,6.0,1.0,phase_2,go,500.0,300.0,1.0,,,,,,,,,gray,I
0.0,1.0,0.5,0.0,6.0,6.0,578.0552320002244,6.0,1.0,phase_2,go,500.0,300.0,1.0,,,,,,,,,gray,I
0.0,8.0,4.0,1.0,6.0,6.0,497.8907259996958,6.0,1.0,phase_2,stop,500.0,300.0,3.0,,,,,,,,,white,diamond
0.0,5.0,0.5,1.0,5.0,5.0,327.8191070003231,6.0,1.0,phase_2,stop,500.0,250.0,3.0,,,,,,,,,orange,square
0.0,7.0,2.0,1.0,6.0,6.0,233.6889779999182,6.0,1.0,phase_2,stop,450.0,250.0,3.0,,,,,,,,,magenta,flipped triangle
0.0,5.0,0.5,1.0,6.0,6.0,420.8275500000127,6.0,1.0,phase_2,go,450.0,200.0,1.0,,,,,,,,,orange,square
0.0,8.0,4.0,1.0,6.0,6.0,436.0660810002628,6.0,1.0,phase_2,stop,450.0,200.0,3.0,,,,,,,,,white,diamond
0.0,3.0,2.0,0.0,6.0,6.0,578.3047739996618,6.0,1.0,phase_2,go,450.0,150.0,1.0,,,,,,,,,blue,circle
0.0,6.0,1.0,1.0,6.0,0.0,0.0,6.0,1.0,phase_2,stop,450.0,150.0,4.0,,,,,,,,,green,cross
0.0,6.0,1.0,1.0,5.0,5.0,625.3057159997297,6.0,1.0,phase_2,stop,450.0,200.0,3.0,,,,,,,,,green,cross
0.0,6.0,1.0,1.0,5.0,0.0,0.0,6.0,1.0,phase_2,stop,400.0,200.0,4.0,,,,,,,,,green,cross
0.0,1.0,0.5,0.0,6.0,6.0,346.4290199999595,6.0,1.0,phase_2,go,450.0,200.0,1.0,,,,,,,,,gray,I
0.0,5.0,0.5,1.0,6.0,0.0,0.0,6.0,1.0,phase_2,stop,450.0,200.0,4.0,,,,,,,,,orange,square
0.0,7.0,2.0,1.0,5.0,5.0,580.4613959999188,6.0,1.0,phase_2,stop,450.0,250.0,3.0,,,,,,,,,magenta,flipped triangle
0.0,3.0,2.0,0.0,5.0,5.0,701.4248710001993,6.0,1.0,phase_2,go,400.0,250.0,1.0,,,,,,,,,blue,circle
0.0,3.0,2.0,0.0,5.0,5.0,940.032871999847,6.0,1.0,phase_2,go,400.0,250.0,1.0,,,,,,,,,blue,circle
0.0,7.0,2.0,1.0,5.0,0.0,0.0,6.0,1.0,phase_2,stop,400.0,250.0,4.0,,,,,,,,,magenta,flipped triangle
0.0,7.0,2.0,1.0,6.0,6.0,1172.8021659996557,6.0,1.0,phase_2,go,450.0,250.0,1.0,,,,,,,,,magenta,flipped triangle
0.0,6.0,1.0,1.0,5.0,5.0,568.1591960001242,6.0,1.0,phase_2,go,450.0,250.0,1.0,,,,,,,,,green,cross
0.0,3.0,2.0,0.0,5.0,5.0,475.9396959998412,6.0,1.0,phase_2,go,450.0,250.0,1.0,,,,,,,,,blue,circle
0.0,8.0,4.0,1.0,6.0,6.0,332.0886600004087,6.0,1.0,phase_2,stop,450.0,250.0,3.0,,,,,,,,,white,diamond
0.0,6.0,1.0,1.0,5.0,5.0,765.173933999904,7.0,1.0,phase_2,go,450.0,200.0,1.0,,,,,,,,,green,cross
0.0,7.0,2.0,1.0,5.0,0.0,0.0,7.0,1.0,phase_2,stop,450.0,200.0,4.0,,,,,,,,,magenta,flipped triangle
0.0,5.0,0.5,1.0,6.0,6.0,698.7642670001151,7.0,1.0,phase_2,go,500.0,200.0,1.0,,,,,,,,,orange,square
0.0,3.0,2.0,0.0,6.0,6.0,755.1260340005683,7.0,1.0,phase_2,go,500.0,200.0,1.0,,,,,,,,,blue,circle
0.0,1.0,0.5,0.0,5.0,5.0,688.1977299999562,7.0,1.0,phase_2,go,500.0,200.0,1.0,,,,,,,,,gray,I
0.0,1.0,0.5,0.0,5.0,5.0,772.3479200003567,7.0,1.0,phase_2,go,500.0,200.0,1.0,,,,,,,,,gray,I
0.0,1.0,0.5,0.0,6.0,6.0,756.0588219994315,7.0,1.0,phase_2,go,500.0,200.0,1.0,,,,,,,,,gray,I
0.0,6.0,1.0,1.0,5.0,5.0,439.0857210000831,7.0,1.0,phase_2,stop,500.0,200.0,3.0,,,,,,,,,green,cross
0.0,4.0,4.0,0.0,5.0,5.0,894.1108749995692,7.0,1.0,phase_2,go,450.0,200.0,1.0,,,,,,,,,cyan,triangle
0.0,1.0,0.5,0.0,5.0,5.0,543.1906049998361,7.0,1.0,phase_2,go,450.0,200.0,1.0,,,,,,,,,gray,I
0.0,3.0,2.0,0.0,5.0,5.0,391.8655759998728,7.0,1.0,phase_2,go,450.0,200.0,1.0,,,,,,,,,blue,circle
0.0,3.0,2.0,0.0,6.0,6.0,392.0410090004225,7.0,1.0,phase_2,go,450.0,200.0,1.0,,,,,,,,,blue,circle
0.0,4.0,4.0,0.0,5.0,5.0,531.1668840004131,7.0,1.0,phase_2,go,450.0,200.0,1.0,,,,,,,,,cyan,triangle
0.0,1.0,0.5,0.0,6.0,6.0,532.4016659997142,7.0,1.0,phase_2,go,450.0,200.0,1.0,,,,,,,,,gray,I
0.0,3.0,2.0,0.0,6.0,6.0,756.3517170001433,7.0,1.0,phase_2,go,450.0,200.0,1.0,,,,,,,,,blue,circle
0.0,1.0,0.5,0.0,5.0,5.0,623.8653529999283,7.0,1.0,phase_2,go,450.0,200.0,1.0,,,,,,,,,gray,I
0.0,6.0,1.0,1.0,5.0,5.0,506.5915289997065,7.0,1.0,phase_2,stop,450.0,200.0,3.0,,,,,,,,,green,cross
0.0,5.0,0.5,1.0,5.0,5.0,483.2057050007279,7.0,1.0,phase_2,stop,400.0,200.0,3.0,,,,,,,,,orange,square
0.0,2.0,1.0,0.0,5.0,5.0,790.9548779998659,7.0,1.0,phase_2,go,350.0,200.0,1.0,,,,,,,,,yellow,hexagon
0.0,6.0,1.0,1.0,6.0,6.0,751.7961149997063,7.0,1.0,phase_2,go,350.0,200.0,1.0,,,,,,,,,green,cross
0.0,6.0,1.0,1.0,6.0,0.0,0.0,7.0,1.0,phase_2,stop,350.0,200.0,4.0,,,,,,,,,green,cross
0.0,3.0,2.0,0.0,5.0,5.0,501.71882699942216,7.0,1.0,phase_2,go,350.0,250.0,1.0,,,,,,,,,blue,circle
0.0,5.0,0.5,1.0,6.0,0.0,0.0,7.0,1.0,phase_2,stop,350.0,250.0,4.0,,,,,,,,,orange,square
0.0,2.0,1.0,0.0,6.0,6.0,644.3968069997936,7.0,1.0,phase_2,go,350.0,300.0,1.0,,,,,,,,,yellow,hexagon
0.0,5.0,0.5,1.0,6.0,0.0,0.0,7.0,1.0,phase_2,stop,350.0,300.0,4.0,,,,,,,,,orange,square
0.0,1.0,0.5,0.0,6.0,6.0,893.6615360007636,7.0,1.0,phase_2,go,350.0,350.0,1.0,,,,,,,,,gray,I
0.0,1.0,0.5,0.0,6.0,6.0,681.1265229998753,7.0,1.0,phase_2,go,350.0,350.0,1.0,,,,,,,,,gray,I
0.0,6.0,1.0,1.0,5.0,0.0,0.0,7.0,1.0,phase_2,stop,350.0,350.0,4.0,,,,,,,,,green,cross
0.0,5.0,0.5,1.0,6.0,6.0,858.6459549997016,7.0,1.0,phase_2,go,400.0,350.0,1.0,,,,,,,,,orange,square
0.0,2.0,1.0,0.0,6.0,6.0,512.3807720001423,7.0,1.0,phase_2,go,400.0,350.0,1.0,,,,,,,,,yellow,hexagon
0.0,3.0,2.0,0.0,6.0,6.0,410.9667720003926,7.0,1.0,phase_2,go,400.0,350.0,1.0,,,,,,,,,blue,circle
0.0,7.0,2.0,1.0,5.0,5.0,818.4412319997136,7.0,1.0,phase_2,stop,400.0,350.0,3.0,,,,,,,,,magenta,flipped triangle
0.0,6.0,1.0,1.0,6.0,0.0,0.0,7.0,1.0,phase_2,stop,350.0,350.0,4.0,,,,,,,,,green,cross
0.0,2.0,1.0,0.0,6.0,6.0,550.5227829999058,7.0,1.0,phase_2,go,350.0,400.0,1.0,,,,,,,,,yellow,hexagon
0.0,7.0,2.0,1.0,6.0,6.0,446.3752480005496,7.0,1.0,phase_2,stop,350.0,400.0,3.0,,,,,,,,,magenta,flipped triangle
0.0,5.0,0.5,1.0,5.0,5.0,297.03247100042057,7.0,1.0,phase_2,stop,350.0,350.0,3.0,,,,,,,,,orange,square
0.0,1.0,0.5,0.0,5.0,5.0,1194.7025569998004,8.0,1.0,phase_2,go,300.0,350.0,1.0,,,,,,,,,gray,I
0.0,3.0,2.0,0.0,5.0,5.0,838.9496869995128,8.0,1.0,phase_2,go,300.0,350.0,1.0,,,,,,,,,blue,circle
0.0,2.0,1.0,0.0,5.0,5.0,1432.8405930000372,8.0,1.0,phase_2,go,300.0,350.0,1.0,,,,,,,,,yellow,hexagon
0.0,8.0,4.0,1.0,5.0,5.0,317.6875680001103,8.0,1.0,phase_2,go,300.0,350.0,1.0,,,,,,,,,white,diamond
0.0,4.0,4.0,0.0,5.0,5.0,334.8080550003942,8.0,1.0,phase_2,go,300.0,350.0,1.0,,,,,,,,,cyan,triangle
0.0,6.0,1.0,1.0,6.0,6.0,450.1447920001737,8.0,1.0,phase_2,stop,300.0,350.0,3.0,,,,,,,,,green,cross
0.0,4.0,4.0,0.0,5.0,5.0,493.9259130005666,8.0,1.0,phase_2,go,300.0,300.0,1.0,,,,,,,,,cyan,triangle
0.0,7.0,2.0,1.0,6.0,6.0,355.0875880000603,8.0,1.0,phase_2,stop,300.0,300.0,3.0,,,,,,,,,magenta,flipped triangle
0.0,5.0,0.5,1.0,5.0,5.0,233.4312010007124,8.0,1.0,phase_2,stop,300.0,250.0,3.0,,,,,,,,,orange,square
0.0,1.0,0.5,0.0,6.0,6.0,336.3918699997157,8.0,1.0,phase_2,go,250.0,250.0,1.0,,,,,,,,,gray,I
0.0,5.0,0.5,1.0,5.0,5.0,410.0553769994803,8.0,1.0,phase_2,stop,250.0,250.0,3.0,,,,,,,,,orange,square
0.0,8.0,4.0,1.0,6.0,0.0,0.0,8.0,1.0,phase_2,stop,200.0,250.0,4.0,,,,,,,,,white,diamond
0.0,3.0,2.0,0.0,5.0,5.0,548.1328329997268,8.0,1.0,phase_2,go,200.0,300.0,1.0,,,,,,,,,blue,circle
0.0,7.0,2.0,1.0,5.0,0.0,0.0,8.0,1.0,phase_2,stop,200.0,300.0,4.0,,,,,,,,,magenta,flipped triangle
0.0,1.0,0.5,0.0,6.0,6.0,428.1608999999662,8.0,1.0,phase_2,go,250.0,300.0,1.0,,,,,,,,,gray,I
0.0,7.0,2.0,1.0,6.0,6.0,433.8991119993807,8.0,1.0,phase_2,stop,250.0,300.0,3.0,,,,,,,,,magenta,flipped triangle
0.0,8.0,4.0,1.0,6.0,0.0,0.0,8.0,1.0,phase_2,stop,250.0,250.0,4.0,,,,,,,,,white,diamond
0.0,1.0,0.5,0.0,5.0,5.0,401.0662199998478,8.0,1.0,phase_2,go,250.0,300.0,1.0,,,,,,,,,gray,I
0.0,4.0,4.0,0.0,6.0,6.0,1062.2549589998016,8.0,1.0,phase_2,go,250.0,300.0,1.0,,,,,,,,,cyan,triangle
0.0,3.0,2.0,0.0,6.0,6.0,838.6212799996429,8.0,1.0,phase_2,go,250.0,300.0,1.0,,,,,,,,,blue,circle
0.0,5.0,0.5,1.0,6.0,0.0,0.0,8.0,1.0,phase_2,stop,250.0,300.0,4.0,,,,,,,,,orange,square
0.0,7.0,2.0,1.0,6.0,6.0,460.5361619996984,8.0,1.0,phase_2,stop,250.0,350.0,3.0,,,,,,,,,magenta,flipped triangle
0.0,2.0,1.0,0.0,5.0,5.0,380.695616999219,8.0,1.0,phase_2,go,250.0,300.0,1.0,,,,,,,,,yellow,hexagon
0.0,8.0,4.0,1.0,6.0,6.0,262.1175040003436,8.0,1.0,phase_2,stop,250.0,300.0,3.0,,,,,,,,,white,diamond
0.0,5.0,0.5,1.0,6.0,5.0,577.2099949999756,8.0,1.0,phase_2,go,250.0,250.0,2.0,,,,,,,,,orange,square
0.0,2.0,1.0,0.0,5.0,5.0,605.2320090002468,8.0,1.0,phase_2,go,250.0,250.0,1.0,,,,,,,,,yellow,hexagon
0.0,5.0,0.5,1.0,5.0,5.0,364.3641169992406,8.0,1.0,phase_2,stop,250.0,250.0,3.0,,,,,,,,,orange,square
0.0,5.0,0.5,1.0,6.0,6.0,409.8507950002386,8.0,1.0,phase_2,go,200.0,250.0,1.0,,,,,,,,,orange,square
0.0,4.0,4.0,0.0,5.0,5.0,409.205257999929,8.0,1.0,phase_2,go,200.0,250.0,1.0,,,,,,,,,cyan,triangle
0.0,2.0,1.0,0.0,6.0,6.0,308.0197969993605,8.0,1.0,phase_2,go,200.0,250.0,1.0,,,,,,,,,yellow,hexagon
0.0,4.0,4.0,0.0,6.0,6.0,372.3010410003553,8.0,1.0,phase_2,go,200.0,250.0,1.0,,,,,,,,,cyan,triangle
0.0,4.0,4.0,0.0,5.0,5.0,344.5964920001643,8.0,1.0,phase_2,go,200.0,250.0,1.0,,,,,,,,,cyan,triangle
0.0,3.0,2.0,0.0,6.0,6.0,437.2120389998599,8.0,1.0,phase_2,go,200.0,250.0,1.0,,,,,,,,,blue,circle
0.0,3.0,2.0,0.0,5.0,5.0,306.8478079994747,8.0,1.0,phase_2,go,200.0,250.0,1.0,,,,,,,,,blue,circle
0.0,1.0,0.5,0.0,5.0,5.0,576.8917179993878,8.0,1.0,phase_2,go,200.0,250.0,1.0,,,,,,,,,gray,I
0.0,6.0,1.0,1.0,6.0,6.0,393.5585119997995,8.0,1.0,phase_2,stop,200.0,250.0,3.0,,,,,,,,,green,cross
0.0,5.0,0.5,1.0,7.0,1.0,3699.8513879998422,1.0,1.0,phase_3,,,,,865.0,5.0,865.0,692.0,346.0,173.0,1038.0,519.0,orange,square
0.0,6.0,1.0,1.0,7.0,3.0,3166.149386999677,1.0,1.0,phase_3,,,,,519.0,3.0,692.0,1038.0,519.0,173.0,865.0,346.0,green,cross
0.0,8.0,4.0,1.0,7.0,6.0,1292.6166900006135,1.0,1.0,phase_3,,,,,462.0,3.0,308.0,924.0,154.0,770.0,616.0,462.0,white,diamond
0.0,2.0,1.0,0.0,7.0,1.0,1217.7983520005,1.0,1.0,phase_3,,,,,865.0,5.0,865.0,346.0,1038.0,692.0,519.0,173.0,yellow,hexagon
0.0,2.0,1.0,0.0,7.0,3.0,2632.3631380000734,1.0,1.0,phase_3,,,,,696.0,6.0,116.0,232.0,696.0,348.0,580.0,464.0,yellow,hexagon
0.0,2.0,1.0,0.0,7.0,2.0,702.9213420000815,1.0,1.0,phase_3,,,,,576.0,3.0,192.0,576.0,960.0,1152.0,384.0,768.0,yellow,hexagon
0.0,1.0,0.5,0.0,7.0,5.0,1549.223952999455,1.0,1.0,phase_3,,,,,384.0,2.0,768.0,192.0,960.0,1152.0,384.0,576.0,gray,I
0.0,8.0,4.0,1.0,7.0,2.0,851.2003180003376,1.0,1.0,phase_3,,,,,1152.0,6.0,576.0,1152.0,384.0,960.0,768.0,192.0,white,diamond
0.0,7.0,2.0,1.0,7.0,2.0,1911.1627330003105,1.0,1.0,phase_3,,,,,865.0,5.0,173.0,865.0,692.0,346.0,1038.0,519.0,magenta,flipped triangle
0.0,1.0,0.5,0.0,7.0,2.0,2114.337161000549,1.0,1.0,phase_3,,,,,924.0,6.0,770.0,924.0,616.0,462.0,154.0,308.0,gray,I
0.0,3.0,2.0,0.0,7.0,3.0,480.2228799999284,1.0,1.0,phase_3,,,,,696.0,6.0,232.0,580.0,696.0,348.0,464.0,116.0,blue,circle
0.0,2.0,1.0,0.0,7.0,5.0,285.2213460000712,1.0,1.0,phase_3,,,,,116.0,1.0,696.0,580.0,464.0,232.0,116.0,348.0,yellow,hexagon
0.0,6.0,1.0,1.0,7.0,2.0,2647.8302000004987,1.0,1.0,phase_3,,,,,540.0,4.0,135.0,540.0,405.0,270.0,675.0,810.0,green,cross
0.0,1.0,0.5,0.0,7.0,5.0,1523.8319629997932,1.0,1.0,phase_3,,,,,232.0,2.0,696.0,580.0,116.0,348.0,232.0,464.0,gray,I
0.0,5.0,0.5,1.0,7.0,1.0,1247.370024000702,1.0,1.0,phase_3,,,,,270.0,2.0,270.0,405.0,675.0,810.0,540.0,135.0,orange,square
0.0,3.0,2.0,0.0,7.0,5.0,2224.29455099973,1.0,1.0,phase_3,,,,,810.0,6.0,135.0,270.0,675.0,540.0,810.0,405.0,blue,circle
0.0,1.0,0.5,0.0,7.0,1.0,3884.3940240003576,1.0,1.0,phase_3,,,,,865.0,5.0,865.0,173.0,346.0,692.0,519.0,1038.0,gray,I
0.0,1.0,0.5,0.0,7.0,6.0,3880.7949699994415,1.0,1.0,phase_3,,,,,464.0,4.0,232.0,580.0,696.0,116.0,348.0,464.0,gray,I
0.0,6.0,1.0,1.0,7.0,2.0,2178.2366670004194,1.0,1.0,phase_3,,,,,770.0,5.0,616.0,770.0,924.0,154.0,462.0,308.0,green,cross
0.0,7.0,2.0,1.0,7.0,2.0,4589.417514999695,1.0,1.0,phase_3,,,,,384.0,2.0,1152.0,384.0,576.0,768.0,192.0,960.0,magenta,flipped triangle
0.0,4.0,4.0,0.0,7.0,5.0,1180.5770709997887,2.0,1.0,phase_3,,,,,308.0,2.0,770.0,924.0,462.0,616.0,308.0,154.0,cyan,triangle
0.0,5.0,0.5,1.0,7.0,3.0,2567.3516029992243,2.0,1.0,phase_3,,,,,924.0,6.0,154.0,308.0,924.0,616.0,770.0,462.0,orange,square
0.0,4.0,4.0,0.0,7.0,3.0,2254.613684000105,2.0,1.0,phase_3,,,,,135.0,1.0,675.0,405.0,135.0,540.0,270.0,810.0,cyan,triangle
0.0,1.0,0.5,0.0,7.0,1.0,1591.383292000501,2.0,1.0,phase_3,,,,,924.0,6.0,924.0,154.0,770.0,308.0,616.0,462.0,gray,I
0.0,3.0,2.0,0.0,7.0,6.0,849.0026059998854,2.0,1.0,phase_3,,,,,135.0,1.0,675.0,540.0,810.0,405.0,270.0,135.0,blue,circle
0.0,6.0,1.0,1.0,7.0,4.0,1519.2120550000254,2.0,1.0,phase_3,,,,,462.0,3.0,770.0,308.0,154.0,462.0,924.0,616.0,green,cross
0.0,5.0,0.5,1.0,7.0,6.0,1932.5502179999603,2.0,1.0,phase_3,,,,,1152.0,6.0,384.0,768.0,960.0,192.0,576.0,1152.0,orange,square
0.0,7.0,2.0,1.0,7.0,1.0,1741.62491900006,2.0,1.0,phase_3,,,,,576.0,3.0,576.0,960.0,1152.0,192.0,768.0,384.0,magenta,flipped triangle
0.0,3.0,2.0,0.0,7.0,2.0,1318.8145209996949,2.0,1.0,phase_3,,,,,696.0,6.0,116.0,696.0,232.0,580.0,348.0,464.0,blue,circle
0.0,5.0,0.5,1.0,7.0,5.0,1742.6610350003102,2.0,1.0,phase_3,,,,,810.0,6.0,135.0,540.0,675.0,270.0,810.0,405.0,orange,square
0.0,7.0,2.0,1.0,7.0,1.0,1335.3379769996536,2.0,1.0,phase_3,,,,,580.0,5.0,580.0,232.0,464.0,116.0,696.0,348.0,magenta,flipped triangle
0.0,6.0,1.0,1.0,7.0,4.0,3775.184244000229,2.0,1.0,phase_3,,,,,580.0,5.0,116.0,464.0,696.0,580.0,232.0,348.0,green,cross
0.0,6.0,1.0,1.0,7.0,1.0,3924.8630380006944,2.0,1.0,phase_3,,,,,675.0,5.0,675.0,405.0,540.0,810.0,135.0,270.0,green,cross
0.0,4.0,4.0,0.0,7.0,1.0,1309.980484999869,2.0,1.0,phase_3,,,,,1152.0,6.0,1152.0,384.0,576.0,192.0,960.0,768.0,cyan,triangle
0.0,8.0,4.0,1.0,7.0,4.0,2121.396738999465,2.0,1.0,phase_3,,,,,540.0,4.0,675.0,810.0,405.0,540.0,270.0,135.0,white,diamond
0.0,3.0,2.0,0.0,7.0,2.0,395.4083319995334,2.0,1.0,phase_3,,,,,192.0,1.0,576.0,192.0,1152.0,768.0,960.0,384.0,blue,circle
0.0,8.0,4.0,1.0,7.0,6.0,561.754399000165,2.0,1.0,phase_3,,,,,696.0,6.0,348.0,232.0,116.0,580.0,464.0,696.0,white,diamond
0.0,8.0,4.0,1.0,7.0,3.0,2081.7873560008597,2.0,1.0,phase_3,,,,,135.0,1.0,270.0,405.0,135.0,675.0,540.0,810.0,white,diamond
0.0,7.0,2.0,1.0,7.0,5.0,1457.309938000435,2.0,1.0,phase_3,,,,,810.0,6.0,135.0,405.0,540.0,675.0,810.0,270.0,magenta,flipped triangle
0.0,2.0,1.0,0.0,7.0,1.0,286.5616640001462,2.0,1.0,phase_3,,,,,768.0,4.0,768.0,1152.0,192.0,384.0,576.0,960.0,yellow,hexagon
0.0,4.0,4.0,0.0,7.0,2.0,2893.011948000094,3.0,1.0,phase_3,,,,,696.0,6.0,464.0,696.0,116.0,580.0,348.0,232.0,cyan,triangle
0.0,3.0,2.0,0.0,7.0,5.0,2172.377054000208,3.0,1.0,phase_3,,,,,346.0,2.0,173.0,865.0,519.0,692.0,346.0,1038.0,blue,circle
0.0,8.0,4.0,1.0,7.0,1.0,1738.1704849995003,3.0,1.0,phase_3,,,,,580.0,5.0,580.0,116.0,348.0,464.0,232.0,696.0,white,diamond
0.0,1.0,0.5,0.0,7.0,6.0,1994.7896519997807,3.0,1.0,phase_3,,,,,675.0,5.0,270.0,810.0,405.0,540.0,135.0,675.0,gray,I
0.0,7.0,2.0,1.0,7.0,2.0,869.9461230007728,3.0,1.0,phase_3,,,,,154.0,1.0,308.0,154.0,616.0,924.0,462.0,770.0,magenta,flipped triangle
0.0,3.0,2.0,0.0,7.0,1.0,1910.6280529995277,3.0,1.0,phase_3,,,,,865.0,5.0,865.0,692.0,346.0,519.0,1038.0,173.0,blue,circle
0.0,2.0,1.0,0.0,7.0,5.0,1689.8810660004528,3.0,1.0,phase_3,,,,,462.0,3.0,770.0,616.0,154.0,308.0,462.0,924.0,yellow,hexagon
0.0,5.0,0.5,1.0,7.0,5.0,3355.2296859998023,3.0,1.0,phase_3,,,,,696.0,6.0,464.0,116.0,232.0,348.0,696.0,580.0,orange,square
0.0,3.0,2.0,0.0,7.0,2.0,3460.2325500000006,3.0,1.0,phase_3,,,,,960.0,5.0,576.0,960.0,768.0,384.0,192.0,1152.0,blue,circle
0.0,1.0,0.5,0.0,7.0,5.0,2328.743298000518,3.0,1.0,phase_3,,,,,346.0,2.0,1038.0,865.0,692.0,519.0,346.0,173.0,gray,I
0.0,7.0,2.0,1.0,7.0,5.0,998.1796669999312,3.0,1.0,phase_3,,,,,116.0,1.0,580.0,464.0,696.0,232.0,116.0,348.0,magenta,flipped triangle
0.0,6.0,1.0,1.0,7.0,4.0,2645.183045000522,3.0,1.0,phase_3,,,,,960.0,5.0,384.0,768.0,576.0,960.0,1152.0,192.0,green,cross
0.0,6.0,1.0,1.0,7.0,4.0,2156.7590580007163,3.0,1.0,phase_3,,,,,1038.0,6.0,519.0,173.0,346.0,1038.0,865.0,692.0,green,cross
0.0,4.0,4.0,0.0,7.0,4.0,3041.6516249997585,3.0,1.0,phase_3,,,,,540.0,4.0,135.0,405.0,270.0,540.0,675.0,810.0,cyan,triangle
0.0,3.0,2.0,0.0,7.0,1.0,2306.292623000445,3.0,1.0,phase_3,,,,,924.0,6.0,924.0,308.0,770.0,616.0,462.0,154.0,blue,circle
0.0,1.0,0.5,0.0,7.0,3.0,2045.8930539998619,3.0,1.0,phase_3,,,,,135.0,1.0,675.0,540.0,135.0,270.0,405.0,810.0,gray,I
0.0,7.0,2.0,1.0,7.0,6.0,3002.948267000648,3.0,1.0,phase_3,,,,,154.0,1.0,462.0,308.0,924.0,770.0,616.0,154.0,magenta,flipped triangle
0.0,2.0,1.0,0.0,7.0,5.0,2028.342278999844,3.0,1.0,phase_3,,,,,924.0,6.0,462.0,308.0,770.0,154.0,924.0,616.0,yellow,hexagon
0.0,5.0,0.5,1.0,7.0,5.0,2026.6539809999813,3.0,1.0,phase_3,,,,,462.0,3.0,770.0,154.0,924.0,616.0,462.0,308.0,orange,square
0.0,1.0,0.5,0.0,7.0,1.0,2479.8812510007338,3.0,1.0,phase_3,,,,,192.0,1.0,192.0,768.0,1152.0,960.0,384.0,576.0,gray,I
0.0,3.0,2.0,0.0,7.0,5.0,2364.338850000422,4.0,1.0,phase_3,,,,,924.0,6.0,154.0,770.0,462.0,616.0,924.0,308.0,blue,circle
0.0,4.0,4.0,0.0,7.0,5.0,1813.54274000023,4.0,1.0,phase_3,,,,,960.0,5.0,768.0,384.0,192.0,576.0,960.0,1152.0,cyan,triangle
0.0,4.0,4.0,0.0,7.0,2.0,2842.0049129999825,4.0,1.0,phase_3,,,,,924.0,6.0,616.0,924.0,770.0,154.0,308.0,462.0,cyan,triangle
0.0,6.0,1.0,1.0,7.0,1.0,2806.3247989994125,4.0,1.0,phase_3,,,,,696.0,6.0,696.0,116.0,348.0,232.0,464.0,580.0,green,cross
0.0,7.0,2.0,1.0,7.0,1.0,2182.714757000213,4.0,1.0,phase_3,,,,,173.0,1.0,173.0,692.0,865.0,1038.0,346.0,519.0,magenta,flipped triangle
0.0,8.0,4.0,1.0,7.0,5.0,2769.461403000605,4.0,1.0,phase_3,,,,,692.0,4.0,1038.0,519.0,346.0,173.0,692.0,865.0,white,diamond
0.0,5.0,0.5,1.0,7.0,5.0,2544.2403979996016,4.0,1.0,phase_3,,,,,519.0,3.0,173.0,346.0,1038.0,692.0,519.0,865.0,orange,square
0.0,8.0,4.0,1.0,7.0,4.0,1983.9219969999249,4.0,1.0,phase_3,,,,,308.0,2.0,462.0,616.0,154.0,308.0,770.0,924.0,white,diamond
0.0,4.0,4.0,0.0,7.0,5.0,1904.9152839997987,4.0,1.0,phase_3,,,,,1038.0,6.0,692.0,519.0,173.0,865.0,1038.0,346.0,cyan,triangle
0.0,5.0,0.5,1.0,7.0,3.0,1405.4943290002484,4.0,1.0,phase_3,,,,,464.0,4.0,232.0,580.0,464.0,696.0,116.0,348.0,orange,square
0.0,8.0,4.0,1.0,7.0,5.0,840.9674490003454,4.0,1.0,phase_3,,,,,173.0,1.0,692.0,519.0,865.0,1038.0,173.0,346.0,white,diamond
0.0,2.0,1.0,0.0,7.0,4.0,1655.0870680002845,4.0,1.0,phase_3,,,,,810.0,6.0,405.0,540.0,270.0,810.0,135.0,675.0,yellow,hexagon
0.0,6.0,1.0,1.0,7.0,3.0,1249.85813100011,4.0,1.0,phase_3,,,,,960.0,5.0,576.0,1152.0,960.0,384.0,768.0,192.0,green,cross
0.0,5.0,0.5,1.0,7.0,4.0,1293.847894999999,4.0,1.0,phase_3,,,,,384.0,2.0,192.0,768.0,576.0,384.0,960.0,1152.0,orange,square
0.0,2.0,1.0,0.0,7.0,1.0,1461.8821969997953,4.0,1.0,phase_3,,,,,810.0,6.0,810.0,540.0,270.0,675.0,135.0,405.0,yellow,hexagon
0.0,2.0,1.0,0.0,7.0,3.0,1544.5199140003751,4.0,1.0,phase_3,,,,,1038.0,6.0,346.0,865.0,1038.0,519.0,173.0,692.0,yellow,hexagon
0.0,7.0,2.0,1.0,7.0,5.0,3154.051360999801,4.0,1.0,phase_3,,,,,135.0,1.0,675.0,540.0,405.0,810.0,135.0,270.0,magenta,flipped triangle
0.0,8.0,4.0,1.0,7.0,1.0,2321.7674890001945,4.0,1.0,phase_3,,,,,960.0,5.0,960.0,768.0,1152.0,384.0,576.0,192.0,white,diamond
0.0,4.0,4.0,0.0,7.0,3.0,2273.707074000413,4.0,1.0,phase_3,,,,,696.0,6.0,464.0,348.0,696.0,580.0,116.0,232.0,cyan,triangle
0.0,4.0,4.0,0.0,7.0,2.0,1739.2981630000577,4.0,1.0,phase_3,,,,,692.0,4.0,865.0,692.0,173.0,519.0,1038.0,346.0,cyan,triangle
