raw_reward_magnitude,stim_reward,stepwise_reward_magnitude,paired_with_stopping,quadrant,response,reaction_time,block,num_trial_presentations,which_part,stop_signal_trial_type,left_SSD,right_SSD,accuracy,chosen_bidding_amount,chosen_bidding_level,possible_bid_1,possible_bid_2,possible_bid_3,possible_bid_4,possible_bid_5,possible_bid_6,color_text,shape_text
164.0,5.0,1.0,1.0,1.0,1.0,714.1865180001332,1.0,1.0,part_1,,,,,,,,,,,,,magenta,triangle
1277.0,4.0,4.0,0.0,2.0,2.0,324.8628410001402,1.0,1.0,part_1,,,,,,,,,,,,,yellow,cross
162.0,1.0,1.0,0.0,2.0,2.0,343.4570879999228,1.0,1.0,part_1,,,,,,,,,,,,,white,diamond
316.0,6.0,2.0,1.0,1.0,1.0,343.2577589992434,1.0,1.0,part_1,,,,,,,,,,,,,cyan,hexagon
304.0,6.0,2.0,1.0,4.0,4.0,324.4609420016786,1.0,2.0,part_1,,,,,,,,,,,,,cyan,hexagon
0.0,6.0,0.0,1.0,1.0,1.0,361.090571999739,1.0,2.0,part_1,,,,,,,,,,,,,cyan,hexagon
309.0,2.0,2.0,0.0,3.0,3.0,333.3717240002443,1.0,1.0,part_1,,,,,,,,,,,,,green,flipped triangle
626.0,7.0,3.0,1.0,1.0,1.0,417.1488209995004,1.0,1.0,part_1,,,,,,,,,,,,,orange,square
187.0,1.0,1.0,0.0,3.0,3.0,306.4818770017155,1.0,1.0,part_1,,,,,,,,,,,,,white,diamond
322.0,2.0,2.0,0.0,1.0,1.0,278.5364209994441,1.0,1.0,part_1,,,,,,,,,,,,,green,flipped triangle
1279.0,8.0,4.0,1.0,2.0,2.0,362.0343479997245,1.0,1.0,part_1,,,,,,,,,,,,,blue,circle
315.0,2.0,2.0,0.0,1.0,1.0,305.7993049987999,1.0,1.0,part_1,,,,,,,,,,,,,green,flipped triangle
0.0,1.0,0.0,0.0,1.0,1.0,379.952981000315,1.0,1.0,part_1,,,,,,,,,,,,,white,diamond
156.0,5.0,1.0,1.0,2.0,2.0,603.2203400009166,1.0,1.0,part_1,,,,,,,,,,,,,magenta,triangle
662.0,3.0,3.0,0.0,1.0,1.0,556.7718639995292,1.0,1.0,part_1,,,,,,,,,,,,,gray,I
343.0,2.0,2.0,0.0,4.0,4.0,436.6141679984139,1.0,1.0,part_1,,,,,,,,,,,,,green,flipped triangle
658.0,7.0,3.0,1.0,3.0,3.0,332.6639419992716,1.0,1.0,part_1,,,,,,,,,,,,,orange,square
156.0,5.0,1.0,1.0,4.0,4.0,446.2761399990995,1.0,1.0,part_1,,,,,,,,,,,,,magenta,triangle
1280.0,8.0,4.0,1.0,1.0,1.0,268.4129720000783,1.0,1.0,part_1,,,,,,,,,,,,,blue,circle
656.0,7.0,3.0,1.0,3.0,3.0,324.4823919994815,1.0,1.0,part_1,,,,,,,,,,,,,orange,square
0.0,3.0,0.0,0.0,3.0,3.0,332.9312719997688,1.0,1.0,part_1,,,,,,,,,,,,,gray,I
672.0,3.0,3.0,0.0,1.0,1.0,296.7800019996502,1.0,1.0,part_1,,,,,,,,,,,,,gray,I
0.0,7.0,0.0,1.0,3.0,3.0,278.8636340010271,1.0,1.0,part_1,,,,,,,,,,,,,orange,square
1299.0,4.0,4.0,0.0,1.0,1.0,288.0684979991201,1.0,1.0,part_1,,,,,,,,,,,,,yellow,cross
654.0,3.0,3.0,0.0,3.0,3.0,268.8104730004852,1.0,1.0,part_1,,,,,,,,,,,,,gray,I
1307.0,8.0,4.0,1.0,1.0,1.0,333.9028439986578,1.0,1.0,part_1,,,,,,,,,,,,,blue,circle
671.0,7.0,3.0,1.0,3.0,3.0,296.0339540004497,1.0,1.0,part_1,,,,,,,,,,,,,orange,square
671.0,7.0,3.0,1.0,2.0,2.0,325.0385519986594,1.0,1.0,part_1,,,,,,,,,,,,,orange,square
659.0,3.0,3.0,0.0,4.0,4.0,463.0112559989356,1.0,1.0,part_1,,,,,,,,,,,,,gray,I
343.0,2.0,2.0,0.0,1.0,1.0,277.0666159995016,1.0,1.0,part_1,,,,,,,,,,,,,green,flipped triangle
0.0,3.0,0.0,0.0,1.0,1.0,342.9458570008137,1.0,1.0,part_1,,,,,,,,,,,,,gray,I
137.0,1.0,1.0,0.0,4.0,4.0,325.0807910008007,1.0,1.0,part_1,,,,,,,,,,,,,white,diamond
1301.0,8.0,4.0,1.0,3.0,3.0,335.2435670003615,1.0,1.0,part_1,,,,,,,,,,,,,blue,circle
349.0,2.0,2.0,0.0,3.0,3.0,305.3265420003299,1.0,1.0,part_1,,,,,,,,,,,,,green,flipped triangle
1310.0,8.0,4.0,1.0,1.0,1.0,407.1081849997426,1.0,2.0,part_1,,,,,,,,,,,,,blue,circle
630.0,7.0,3.0,1.0,2.0,2.0,508.30700200094725,1.0,1.0,part_1,,,,,,,,,,,,,orange,square
637.0,3.0,3.0,0.0,4.0,4.0,353.4389029991871,1.0,1.0,part_1,,,,,,,,,,,,,gray,I
0.0,6.0,0.0,1.0,4.0,4.0,399.7539499996492,1.0,1.0,part_1,,,,,,,,,,,,,cyan,hexagon
0.0,6.0,0.0,1.0,4.0,4.0,390.122822000194,1.0,1.0,part_1,,,,,,,,,,,,,cyan,hexagon
1276.0,8.0,4.0,1.0,3.0,3.0,455.9177089995501,1.0,1.0,part_1,,,,,,,,,,,,,blue,circle
661.0,3.0,3.0,0.0,2.0,2.0,390.5388919993129,1.0,1.0,part_1,,,,,,,,,,,,,gray,I
164.0,1.0,1.0,0.0,2.0,2.0,303.1178349992842,1.0,1.0,part_1,,,,,,,,,,,,,white,diamond
627.0,3.0,3.0,0.0,2.0,2.0,297.7662699995562,1.0,1.0,part_1,,,,,,,,,,,,,gray,I
661.0,7.0,3.0,1.0,3.0,3.0,427.3588989999553,1.0,1.0,part_1,,,,,,,,,,,,,orange,square
1312.0,8.0,4.0,1.0,1.0,1.0,353.2586799992714,1.0,1.0,part_1,,,,,,,,,,,,,blue,circle
161.0,1.0,1.0,0.0,3.0,3.0,288.4081350002816,1.0,1.0,part_1,,,,,,,,,,,,,white,diamond
161.0,1.0,1.0,0.0,2.0,2.0,325.9824970009504,1.0,1.0,part_1,,,,,,,,,,,,,white,diamond
641.0,3.0,3.0,0.0,3.0,3.0,388.6525779998919,1.0,1.0,part_1,,,,,,,,,,,,,gray,I
0.0,5.0,0.0,1.0,1.0,1.0,362.5145269998029,1.0,1.0,part_1,,,,,,,,,,,,,magenta,triangle
335.0,6.0,2.0,1.0,3.0,3.0,436.2623209999583,1.0,1.0,part_1,,,,,,,,,,,,,cyan,hexagon
1288.0,4.0,4.0,0.0,4.0,4.0,400.281318999987,1.0,1.0,part_1,,,,,,,,,,,,,yellow,cross
331.0,6.0,2.0,1.0,2.0,2.0,381.6513100009615,1.0,1.0,part_1,,,,,,,,,,,,,cyan,hexagon
347.0,2.0,2.0,0.0,2.0,2.0,409.1562119992886,1.0,2.0,part_1,,,,,,,,,,,,,green,flipped triangle
1276.0,4.0,4.0,0.0,4.0,4.0,437.1853970005759,1.0,1.0,part_1,,,,,,,,,,,,,yellow,cross
0.0,3.0,0.0,0.0,3.0,3.0,324.311704000138,1.0,1.0,part_1,,,,,,,,,,,,,gray,I
182.0,1.0,1.0,0.0,4.0,4.0,297.0527950001269,1.0,1.0,part_1,,,,,,,,,,,,,white,diamond
340.0,2.0,2.0,0.0,4.0,4.0,343.2393319999391,1.0,1.0,part_1,,,,,,,,,,,,,green,flipped triangle
300.0,2.0,2.0,0.0,1.0,1.0,391.0853230008797,1.0,1.0,part_1,,,,,,,,,,,,,green,flipped triangle
0.0,7.0,0.0,1.0,1.0,1.0,417.8599730003043,1.0,1.0,part_1,,,,,,,,,,,,,orange,square
0.0,8.0,0.0,1.0,2.0,2.0,334.76102700115,1.0,1.0,part_1,,,,,,,,,,,,,blue,circle
627.0,7.0,3.0,1.0,4.0,4.0,443.8637389994255,1.0,1.0,part_1,,,,,,,,,,,,,orange,square
172.0,5.0,1.0,1.0,3.0,3.0,352.3283670001547,1.0,1.0,part_1,,,,,,,,,,,,,magenta,triangle
0.0,1.0,0.0,0.0,2.0,2.0,473.056426999392,1.0,1.0,part_1,,,,,,,,,,,,,white,diamond
335.0,6.0,2.0,1.0,1.0,1.0,398.3892840005865,1.0,1.0,part_1,,,,,,,,,,,,,cyan,hexagon
1310.0,8.0,4.0,1.0,3.0,3.0,323.6059290011326,1.0,1.0,part_1,,,,,,,,,,,,,blue,circle
349.0,2.0,2.0,0.0,2.0,2.0,399.8437909995118,1.0,1.0,part_1,,,,,,,,,,,,,green,flipped triangle
156.0,1.0,1.0,0.0,4.0,4.0,419.5116800001415,1.0,1.0,part_1,,,,,,,,,,,,,white,diamond
332.0,2.0,2.0,0.0,3.0,3.0,454.4186080001964,1.0,1.0,part_1,,,,,,,,,,,,,green,flipped triangle
139.0,5.0,1.0,1.0,1.0,1.0,463.8467149998178,1.0,1.0,part_1,,,,,,,,,,,,,magenta,triangle
658.0,7.0,3.0,1.0,4.0,4.0,344.3562599986762,1.0,1.0,part_1,,,,,,,,,,,,,orange,square
665.0,3.0,3.0,0.0,3.0,3.0,325.8021629990253,1.0,1.0,part_1,,,,,,,,,,,,,gray,I
316.0,2.0,2.0,0.0,3.0,3.0,388.7457929995435,1.0,1.0,part_1,,,,,,,,,,,,,green,flipped triangle
177.0,5.0,1.0,1.0,2.0,2.0,445.0116150001122,1.0,1.0,part_1,,,,,,,,,,,,,magenta,triangle
1298.0,4.0,4.0,0.0,4.0,4.0,381.5311470007145,1.0,1.0,part_1,,,,,,,,,,,,,yellow,cross
632.0,7.0,3.0,1.0,2.0,2.0,369.7963089998666,1.0,1.0,part_1,,,,,,,,,,,,,orange,square
1285.0,4.0,4.0,0.0,2.0,2.0,362.1807019990228,1.0,1.0,part_1,,,,,,,,,,,,,yellow,cross
635.0,3.0,3.0,0.0,1.0,1.0,435.3287699996144,1.0,1.0,part_1,,,,,,,,,,,,,gray,I
654.0,3.0,3.0,0.0,2.0,2.0,305.5171560008602,1.0,1.0,part_1,,,,,,,,,,,,,gray,I
1309.0,8.0,4.0,1.0,2.0,2.0,407.1276009999565,1.0,1.0,part_1,,,,,,,,,,,,,blue,circle
170.0,1.0,1.0,0.0,3.0,3.0,425.8913499998016,1.0,1.0,part_1,,,,,,,,,,,,,white,diamond
0.0,7.0,0.0,1.0,2.0,2.0,370.3114099989761,1.0,1.0,part_1,,,,,,,,,,,,,orange,square
672.0,7.0,3.0,1.0,3.0,3.0,351.0349699990911,1.0,1.0,part_1,,,,,,,,,,,,,orange,square
177.0,1.0,1.0,0.0,4.0,4.0,332.2959440010891,1.0,1.0,part_1,,,,,,,,,,,,,white,diamond
1319.0,8.0,4.0,1.0,2.0,2.0,493.3323779987404,1.0,1.0,part_1,,,,,,,,,,,,,blue,circle
316.0,6.0,2.0,1.0,3.0,3.0,407.1577419999812,1.0,1.0,part_1,,,,,,,,,,,,,cyan,hexagon
147.0,5.0,1.0,1.0,3.0,3.0,343.1858849999116,1.0,1.0,part_1,,,,,,,,,,,,,magenta,triangle
182.0,5.0,1.0,1.0,1.0,1.0,436.2176030008413,1.0,1.0,part_1,,,,,,,,,,,,,magenta,triangle
0.0,2.0,0.0,0.0,3.0,3.0,332.3564279999118,1.0,1.0,part_1,,,,,,,,,,,,,green,flipped triangle
1319.0,8.0,4.0,1.0,2.0,2.0,637.3269989999244,1.0,1.0,part_1,,,,,,,,,,,,,blue,circle
1278.0,8.0,4.0,1.0,4.0,4.0,583.5638059998018,1.0,1.0,part_1,,,,,,,,,,,,,blue,circle
1301.0,4.0,4.0,0.0,3.0,3.0,324.213628000507,1.0,1.0,part_1,,,,,,,,,,,,,yellow,cross
171.0,5.0,1.0,1.0,4.0,4.0,305.5910220009536,1.0,1.0,part_1,,,,,,,,,,,,,magenta,triangle
176.0,5.0,1.0,1.0,2.0,2.0,426.1035870003979,1.0,1.0,part_1,,,,,,,,,,,,,magenta,triangle
137.0,1.0,1.0,0.0,3.0,3.0,342.6897680001275,1.0,1.0,part_1,,,,,,,,,,,,,white,diamond
1324.0,8.0,4.0,1.0,3.0,3.0,316.0893309996027,1.0,1.0,part_1,,,,,,,,,,,,,blue,circle
153.0,5.0,1.0,1.0,3.0,3.0,335.3670889991917,1.0,1.0,part_1,,,,,,,,,,,,,magenta,triangle
309.0,6.0,2.0,1.0,2.0,2.0,629.3740769997385,1.0,1.0,part_1,,,,,,,,,,,,,cyan,hexagon
1318.0,8.0,4.0,1.0,2.0,2.0,424.9984039997798,1.0,1.0,part_1,,,,,,,,,,,,,blue,circle
671.0,3.0,3.0,0.0,3.0,3.0,342.0946440000989,1.0,1.0,part_1,,,,,,,,,,,,,gray,I
669.0,7.0,3.0,1.0,2.0,2.0,581.93729300001,1.0,1.0,part_1,,,,,,,,,,,,,orange,square
626.0,3.0,3.0,0.0,3.0,3.0,353.7243600003421,2.0,1.0,part_1,,,,,,,,,,,,,gray,I
1294.0,8.0,4.0,1.0,1.0,1.0,548.2623339994461,2.0,2.0,part_1,,,,,,,,,,,,,blue,circle
1314.0,4.0,4.0,0.0,4.0,4.0,452.4732819991186,2.0,1.0,part_1,,,,,,,,,,,,,yellow,cross
0.0,5.0,0.0,1.0,1.0,1.0,324.7194550003769,2.0,1.0,part_1,,,,,,,,,,,,,magenta,triangle
177.0,5.0,1.0,1.0,1.0,1.0,407.1915339991392,2.0,1.0,part_1,,,,,,,,,,,,,magenta,triangle
1312.0,4.0,4.0,0.0,3.0,3.0,508.33511500059103,2.0,1.0,part_1,,,,,,,,,,,,,yellow,cross
627.0,7.0,3.0,1.0,1.0,1.0,443.9810330004548,2.0,1.0,part_1,,,,,,,,,,,,,orange,square
0.0,1.0,0.0,0.0,1.0,1.0,324.3928780011629,2.0,1.0,part_1,,,,,,,,,,,,,white,diamond
0.0,2.0,0.0,0.0,3.0,3.0,306.0854049999761,2.0,1.0,part_1,,,,,,,,,,,,,green,flipped triangle
0.0,7.0,0.0,1.0,4.0,4.0,333.5863619995507,2.0,1.0,part_1,,,,,,,,,,,,,orange,square
1319.0,8.0,4.0,1.0,2.0,2.0,398.7629070015828,2.0,1.0,part_1,,,,,,,,,,,,,blue,circle
303.0,2.0,2.0,0.0,1.0,1.0,351.7731240008288,2.0,1.0,part_1,,,,,,,,,,,,,green,flipped triangle
648.0,3.0,3.0,0.0,3.0,3.0,319.4266529990273,2.0,1.0,part_1,,,,,,,,,,,,,gray,I
349.0,6.0,2.0,1.0,3.0,3.0,444.9100609999732,2.0,1.0,part_1,,,,,,,,,,,,,cyan,hexagon
334.0,6.0,2.0,1.0,1.0,1.0,454.2295489991375,2.0,1.0,part_1,,,,,,,,,,,,,cyan,hexagon
1278.0,4.0,4.0,0.0,3.0,3.0,278.1351679986983,2.0,1.0,part_1,,,,,,,,,,,,,yellow,cross
641.0,3.0,3.0,0.0,2.0,2.0,334.1213170006085,2.0,1.0,part_1,,,,,,,,,,,,,gray,I
178.0,1.0,1.0,0.0,1.0,1.0,372.1162140009255,2.0,1.0,part_1,,,,,,,,,,,,,white,diamond
637.0,7.0,3.0,1.0,2.0,2.0,315.3259729988349,2.0,1.0,part_1,,,,,,,,,,,,,orange,square
1306.0,8.0,4.0,1.0,4.0,4.0,490.8113809997303,2.0,1.0,part_1,,,,,,,,,,,,,blue,circle
630.0,3.0,3.0,0.0,2.0,2.0,408.3200020013464,2.0,1.0,part_1,,,,,,,,,,,,,gray,I
1305.0,4.0,4.0,0.0,1.0,1.0,400.0115920007374,2.0,1.0,part_1,,,,,,,,,,,,,yellow,cross
0.0,1.0,0.0,0.0,4.0,4.0,443.8845539989415,2.0,1.0,part_1,,,,,,,,,,,,,white,diamond
177.0,1.0,1.0,0.0,1.0,1.0,342.4110180003481,2.0,1.0,part_1,,,,,,,,,,,,,white,diamond
635.0,7.0,3.0,1.0,3.0,3.0,332.6945970002271,2.0,1.0,part_1,,,,,,,,,,,,,orange,square
159.0,1.0,1.0,0.0,3.0,3.0,342.9643279996526,2.0,1.0,part_1,,,,,,,,,,,,,white,diamond
1310.0,4.0,4.0,0.0,4.0,4.0,352.66023999975,2.0,1.0,part_1,,,,,,,,,,,,,yellow,cross
146.0,1.0,1.0,0.0,1.0,1.0,342.3140759987291,2.0,1.0,part_1,,,,,,,,,,,,,white,diamond
170.0,1.0,1.0,0.0,3.0,3.0,315.7665779999661,2.0,1.0,part_1,,,,,,,,,,,,,white,diamond
177.0,1.0,1.0,0.0,2.0,2.0,502.1259859986458,2.0,1.0,part_1,,,,,,,,,,,,,white,diamond
312.0,2.0,2.0,0.0,4.0,4.0,332.6517419991432,2.0,1.0,part_1,,,,,,,,,,,,,green,flipped triangle
1324.0,4.0,4.0,0.0,2.0,2.0,351.6840860011143,2.0,1.0,part_1,,,,,,,,,,,,,yellow,cross
171.0,5.0,1.0,1.0,3.0,3.0,343.3575559993187,2.0,1.0,part_1,,,,,,,,,,,,,magenta,triangle
143.0,5.0,1.0,1.0,2.0,2.0,306.1705099989922,2.0,1.0,part_1,,,,,,,,,,,,,magenta,triangle
0.0,5.0,0.0,1.0,3.0,3.0,360.8525790004933,2.0,1.0,part_1,,,,,,,,,,,,,magenta,triangle
334.0,6.0,2.0,1.0,4.0,4.0,350.8535829987522,2.0,1.0,part_1,,,,,,,,,,,,,cyan,hexagon
1279.0,4.0,4.0,0.0,3.0,3.0,315.9706160004134,2.0,1.0,part_1,,,,,,,,,,,,,yellow,cross
334.0,2.0,2.0,0.0,4.0,4.0,416.3530900004843,2.0,1.0,part_1,,,,,,,,,,,,,green,flipped triangle
1305.0,8.0,4.0,1.0,2.0,2.0,426.7766959983419,2.0,1.0,part_1,,,,,,,,,,,,,blue,circle
0.0,4.0,0.0,0.0,4.0,4.0,369.1753860002791,2.0,1.0,part_1,,,,,,,,,,,,,yellow,cross
327.0,6.0,2.0,1.0,3.0,3.0,315.7027880006353,2.0,1.0,part_1,,,,,,,,,,,,,cyan,hexagon
0.0,6.0,0.0,1.0,4.0,4.0,380.1249119987915,2.0,1.0,part_1,,,,,,,,,,,,,cyan,hexagon
0.0,1.0,0.0,0.0,1.0,1.0,388.654538000992,2.0,1.0,part_1,,,,,,,,,,,,,white,diamond
0.0,2.0,0.0,0.0,1.0,1.0,398.5871260010754,2.0,1.0,part_1,,,,,,,,,,,,,green,flipped triangle
0.0,2.0,0.0,0.0,3.0,3.0,315.6137539990595,2.0,1.0,part_1,,,,,,,,,,,,,green,flipped triangle
642.0,3.0,3.0,0.0,3.0,3.0,342.1775130009337,2.0,1.0,part_1,,,,,,,,,,,,,gray,I
627.0,3.0,3.0,0.0,1.0,1.0,428.1338500004494,2.0,1.0,part_1,,,,,,,,,,,,,gray,I
1292.0,8.0,4.0,1.0,3.0,3.0,334.357732999706,2.0,1.0,part_1,,,,,,,,,,,,,blue,circle
1301.0,8.0,4.0,1.0,3.0,3.0,313.8352430014492,2.0,1.0,part_1,,,,,,,,,,,,,blue,circle
1307.0,4.0,4.0,0.0,1.0,1.0,304.503814999407,2.0,2.0,part_1,,,,,,,,,,,,,yellow,cross
0.0,6.0,0.0,1.0,1.0,1.0,324.2946530008339,2.0,1.0,part_1,,,,,,,,,,,,,cyan,hexagon
159.0,5.0,1.0,1.0,1.0,1.0,342.0037380001304,2.0,1.0,part_1,,,,,,,,,,,,,magenta,triangle
1298.0,8.0,4.0,1.0,2.0,2.0,565.1391170013085,2.0,1.0,part_1,,,,,,,,,,,,,blue,circle
1301.0,4.0,4.0,0.0,4.0,4.0,379.4068719998904,2.0,1.0,part_1,,,,,,,,,,,,,yellow,cross
1287.0,4.0,4.0,0.0,2.0,2.0,378.7747669994132,2.0,1.0,part_1,,,,,,,,,,,,,yellow,cross
633.0,7.0,3.0,1.0,4.0,4.0,362.2532409990526,2.0,1.0,part_1,,,,,,,,,,,,,orange,square
305.0,2.0,2.0,0.0,1.0,1.0,342.2404960001586,2.0,1.0,part_1,,,,,,,,,,,,,green,flipped triangle
663.0,7.0,3.0,1.0,4.0,4.0,296.6212119990814,2.0,1.0,part_1,,,,,,,,,,,,,orange,square
1298.0,8.0,4.0,1.0,1.0,1.0,379.5485160007956,2.0,1.0,part_1,,,,,,,,,,,,,blue,circle
665.0,7.0,3.0,1.0,1.0,1.0,314.4817539996438,2.0,1.0,part_1,,,,,,,,,,,,,orange,square
161.0,5.0,1.0,1.0,4.0,4.0,463.4791549997317,2.0,1.0,part_1,,,,,,,,,,,,,magenta,triangle
337.0,2.0,2.0,0.0,3.0,3.0,379.0964140007418,2.0,1.0,part_1,,,,,,,,,,,,,green,flipped triangle
637.0,7.0,3.0,1.0,1.0,1.0,360.277533000044,2.0,1.0,part_1,,,,,,,,,,,,,orange,square
0.0,4.0,0.0,0.0,3.0,3.0,443.9479609991394,2.0,1.0,part_1,,,,,,,,,,,,,yellow,cross
653.0,3.0,3.0,0.0,4.0,4.0,396.5702449986565,2.0,1.0,part_1,,,,,,,,,,,,,gray,I
658.0,3.0,3.0,0.0,4.0,4.0,369.7496639997553,2.0,1.0,part_1,,,,,,,,,,,,,gray,I
642.0,7.0,3.0,1.0,3.0,3.0,286.0120579989598,2.0,1.0,part_1,,,,,,,,,,,,,orange,square
0.0,3.0,0.0,0.0,4.0,4.0,443.4288069987815,2.0,1.0,part_1,,,,,,,,,,,,,gray,I
0.0,4.0,0.0,0.0,3.0,3.0,324.1822069994668,2.0,1.0,part_1,,,,,,,,,,,,,yellow,cross
166.0,1.0,1.0,0.0,1.0,1.0,379.4396130015229,2.0,1.0,part_1,,,,,,,,,,,,,white,diamond
0.0,7.0,0.0,1.0,4.0,4.0,325.4578260002745,2.0,1.0,part_1,,,,,,,,,,,,,orange,square
349.0,6.0,2.0,1.0,2.0,2.0,443.9801860007719,2.0,1.0,part_1,,,,,,,,,,,,,cyan,hexagon
0.0,7.0,0.0,1.0,3.0,3.0,304.7671540007286,2.0,1.0,part_1,,,,,,,,,,,,,orange,square
313.0,6.0,2.0,1.0,1.0,1.0,408.091579000029,2.0,1.0,part_1,,,,,,,,,,,,,cyan,hexagon
0.0,7.0,0.0,1.0,2.0,2.0,646.9746210004814,2.0,1.0,part_1,,,,,,,,,,,,,orange,square
143.0,1.0,1.0,0.0,4.0,4.0,369.8423739988357,2.0,1.0,part_1,,,,,,,,,,,,,white,diamond
671.0,7.0,3.0,1.0,1.0,1.0,416.7334249996202,2.0,2.0,part_1,,,,,,,,,,,,,orange,square
137.0,5.0,1.0,1.0,3.0,3.0,443.4596760002023,2.0,1.0,part_1,,,,,,,,,,,,,magenta,triangle
654.0,7.0,3.0,1.0,4.0,4.0,415.8479589987109,2.0,1.0,part_1,,,,,,,,,,,,,orange,square
1293.0,8.0,4.0,1.0,3.0,3.0,360.0304530009452,2.0,1.0,part_1,,,,,,,,,,,,,blue,circle
656.0,3.0,3.0,0.0,2.0,2.0,436.0317939990636,2.0,1.0,part_1,,,,,,,,,,,,,gray,I
1314.0,8.0,4.0,1.0,4.0,4.0,406.4860569997108,2.0,1.0,part_1,,,,,,,,,,,,,blue,circle
332.0,6.0,2.0,1.0,2.0,2.0,499.622373999955,2.0,1.0,part_1,,,,,,,,,,,,,cyan,hexagon
663.0,3.0,3.0,0.0,3.0,3.0,397.4304849998589,2.0,1.0,part_1,,,,,,,,,,,,,gray,I
334.0,2.0,2.0,0.0,2.0,2.0,397.8734319989598,2.0,2.0,part_1,,,,,,,,,,,,,green,flipped triangle
162.0,5.0,1.0,1.0,4.0,4.0,454.2079340008058,2.0,2.0,part_1,,,,,,,,,,,,,magenta,triangle
311.0,6.0,2.0,1.0,2.0,2.0,388.6733389990695,2.0,1.0,part_1,,,,,,,,,,,,,cyan,hexagon
667.0,7.0,3.0,1.0,4.0,4.0,342.5081010009307,2.0,1.0,part_1,,,,,,,,,,,,,orange,square
668.0,3.0,3.0,0.0,2.0,2.0,351.3040220004768,2.0,1.0,part_1,,,,,,,,,,,,,gray,I
0.0,4.0,0.0,0.0,4.0,4.0,554.237092999756,2.0,1.0,part_1,,,,,,,,,,,,,yellow,cross
147.0,1.0,1.0,0.0,1.0,1.0,618.9059979988087,2.0,1.0,part_1,,,,,,,,,,,,,white,diamond
0.0,8.0,0.0,1.0,4.0,4.0,627.1805540000059,2.0,1.0,part_1,,,,,,,,,,,,,blue,circle
159.0,5.0,1.0,1.0,4.0,4.0,361.0794400010491,2.0,1.0,part_1,,,,,,,,,,,,,magenta,triangle
161.0,5.0,1.0,1.0,1.0,1.0,314.8048399998515,2.0,1.0,part_1,,,,,,,,,,,,,magenta,triangle
1294.0,8.0,4.0,1.0,3.0,3.0,462.8033529988897,2.0,1.0,part_1,,,,,,,,,,,,,blue,circle
1290.0,8.0,4.0,1.0,4.0,4.0,334.7679689995857,2.0,1.0,part_1,,,,,,,,,,,,,blue,circle
671.0,3.0,3.0,0.0,4.0,4.0,469.1596669999853,2.0,1.0,part_1,,,,,,,,,,,,,gray,I
162.0,5.0,1.0,1.0,3.0,3.0,459.128092001265,2.0,1.0,part_1,,,,,,,,,,,,,magenta,triangle
1285.0,8.0,4.0,1.0,2.0,2.0,518.0641389997618,2.0,1.0,part_1,,,,,,,,,,,,,blue,circle
0.0,3.0,0.0,0.0,2.0,2.0,354.8271599993313,2.0,1.0,part_1,,,,,,,,,,,,,gray,I
0.0,3.0,0.0,0.0,3.0,3.0,398.5078770001564,3.0,1.0,part_1,,,,,,,,,,,,,gray,I
1288.0,8.0,4.0,1.0,4.0,4.0,298.5432589994161,3.0,1.0,part_1,,,,,,,,,,,,,blue,circle
641.0,7.0,3.0,1.0,4.0,4.0,317.4103969995485,3.0,1.0,part_1,,,,,,,,,,,,,orange,square
675.0,7.0,3.0,1.0,4.0,4.0,353.3641920002992,3.0,1.0,part_1,,,,,,,,,,,,,orange,square
1319.0,4.0,4.0,0.0,3.0,3.0,279.1745929989702,3.0,1.0,part_1,,,,,,,,,,,,,yellow,cross
637.0,7.0,3.0,1.0,2.0,2.0,371.7864259997441,3.0,1.0,part_1,,,,,,,,,,,,,orange,square
668.0,7.0,3.0,1.0,2.0,2.0,324.4290660004481,3.0,1.0,part_1,,,,,,,,,,,,,orange,square
669.0,3.0,3.0,0.0,1.0,1.0,361.2809520000155,3.0,1.0,part_1,,,,,,,,,,,,,gray,I
0.0,1.0,0.0,0.0,2.0,2.0,333.9679450000403,3.0,1.0,part_1,,,,,,,,,,,,,white,diamond
167.0,5.0,1.0,1.0,4.0,4.0,343.6683029995038,3.0,1.0,part_1,,,,,,,,,,,,,magenta,triangle
171.0,1.0,1.0,0.0,1.0,1.0,351.6312209994794,3.0,1.0,part_1,,,,,,,,,,,,,white,diamond
304.0,6.0,2.0,1.0,4.0,4.0,388.8561860003392,3.0,1.0,part_1,,,,,,,,,,,,,cyan,hexagon
177.0,1.0,1.0,0.0,4.0,4.0,296.2790110013884,3.0,1.0,part_1,,,,,,,,,,,,,white,diamond
665.0,3.0,3.0,0.0,1.0,1.0,332.6883329991688,3.0,1.0,part_1,,,,,,,,,,,,,gray,I
343.0,6.0,2.0,1.0,3.0,3.0,324.7105800001009,3.0,1.0,part_1,,,,,,,,,,,,,cyan,hexagon
139.0,1.0,1.0,0.0,4.0,4.0,287.0777769985579,3.0,1.0,part_1,,,,,,,,,,,,,white,diamond
0.0,6.0,0.0,1.0,3.0,3.0,370.2959299989743,3.0,1.0,part_1,,,,,,,,,,,,,cyan,hexagon
0.0,6.0,0.0,1.0,3.0,3.0,362.6028220005537,3.0,1.0,part_1,,,,,,,,,,,,,cyan,hexagon
173.0,5.0,1.0,1.0,2.0,2.0,390.1524350003456,3.0,1.0,part_1,,,,,,,,,,,,,magenta,triangle
338.0,6.0,2.0,1.0,1.0,1.0,472.9527320014313,3.0,1.0,part_1,,,,,,,,,,,,,cyan,hexagon
151.0,1.0,1.0,0.0,2.0,2.0,389.1675169998052,3.0,1.0,part_1,,,,,,,,,,,,,white,diamond
0.0,3.0,0.0,0.0,2.0,2.0,369.8881270011043,3.0,1.0,part_1,,,,,,,,,,,,,gray,I
648.0,7.0,3.0,1.0,4.0,4.0,337.29123500052077,3.0,1.0,part_1,,,,,,,,,,,,,orange,square
349.0,6.0,2.0,1.0,3.0,3.0,444.6715090016369,3.0,1.0,part_1,,,,,,,,,,,,,cyan,hexagon
1324.0,4.0,4.0,0.0,2.0,2.0,462.4314899992896,3.0,1.0,part_1,,,,,,,,,,,,,yellow,cross
1309.0,4.0,4.0,0.0,2.0,2.0,370.6686109999282,3.0,1.0,part_1,,,,,,,,,,,,,yellow,cross
0.0,3.0,0.0,0.0,4.0,4.0,352.4692160008271,3.0,1.0,part_1,,,,,,,,,,,,,gray,I
304.0,2.0,2.0,0.0,4.0,4.0,353.1415240013302,3.0,1.0,part_1,,,,,,,,,,,,,green,flipped triangle
314.0,6.0,2.0,1.0,4.0,4.0,389.3325200006075,3.0,1.0,part_1,,,,,,,,,,,,,cyan,hexagon
0.0,3.0,0.0,0.0,2.0,2.0,352.1316189999197,3.0,1.0,part_1,,,,,,,,,,,,,gray,I
313.0,6.0,2.0,1.0,3.0,3.0,325.4614550005499,3.0,1.0,part_1,,,,,,,,,,,,,cyan,hexagon
1290.0,4.0,4.0,0.0,1.0,1.0,480.8418390002771,3.0,1.0,part_1,,,,,,,,,,,,,yellow,cross
322.0,6.0,2.0,1.0,2.0,2.0,519.9126129991782,3.0,1.0,part_1,,,,,,,,,,,,,cyan,hexagon
0.0,4.0,0.0,0.0,4.0,4.0,333.8112219989853,3.0,1.0,part_1,,,,,,,,,,,,,yellow,cross
1280.0,4.0,4.0,0.0,1.0,1.0,343.1642420000571,3.0,1.0,part_1,,,,,,,,,,,,,yellow,cross
162.0,1.0,1.0,0.0,3.0,3.0,434.9376310001389,3.0,1.0,part_1,,,,,,,,,,,,,white,diamond
305.0,6.0,2.0,1.0,4.0,4.0,341.5337370006455,3.0,1.0,part_1,,,,,,,,,,,,,cyan,hexagon
0.0,2.0,0.0,0.0,4.0,4.0,323.4133549995022,3.0,1.0,part_1,,,,,,,,,,,,,green,flipped triangle
340.0,6.0,2.0,1.0,2.0,2.0,388.4718970002723,3.0,1.0,part_1,,,,,,,,,,,,,cyan,hexagon
0.0,5.0,0.0,1.0,3.0,3.0,435.6503100007103,3.0,1.0,part_1,,,,,,,,,,,,,magenta,triangle
0.0,8.0,0.0,1.0,4.0,4.0,314.3944980001834,3.0,1.0,part_1,,,,,,,,,,,,,blue,circle
0.0,5.0,0.0,1.0,2.0,2.0,379.9899690002348,3.0,1.0,part_1,,,,,,,,,,,,,magenta,triangle
176.0,1.0,1.0,0.0,2.0,2.0,389.9070959996606,3.0,1.0,part_1,,,,,,,,,,,,,white,diamond
151.0,5.0,1.0,1.0,3.0,3.0,372.1134520001214,3.0,1.0,part_1,,,,,,,,,,,,,magenta,triangle
637.0,3.0,3.0,0.0,3.0,3.0,324.0728909986501,3.0,1.0,part_1,,,,,,,,,,,,,gray,I
1303.0,4.0,4.0,0.0,1.0,1.0,361.8649389991333,3.0,1.0,part_1,,,,,,,,,,,,,yellow,cross
0.0,1.0,0.0,0.0,2.0,2.0,474.4484450002346,3.0,2.0,part_1,,,,,,,,,,,,,white,diamond
0.0,6.0,0.0,1.0,4.0,4.0,342.4768509994464,3.0,1.0,part_1,,,,,,,,,,,,,cyan,hexagon
161.0,5.0,1.0,1.0,2.0,2.0,342.7405760012334,3.0,1.0,part_1,,,,,,,,,,,,,magenta,triangle
1278.0,4.0,4.0,0.0,3.0,3.0,379.7341459994641,3.0,1.0,part_1,,,,,,,,,,,,,yellow,cross
639.0,7.0,3.0,1.0,3.0,3.0,370.8260229996085,3.0,1.0,part_1,,,,,,,,,,,,,orange,square
1319.0,4.0,4.0,0.0,4.0,4.0,323.5734249974484,3.0,1.0,part_1,,,,,,,,,,,,,yellow,cross
670.0,3.0,3.0,0.0,1.0,1.0,406.7024430005403,3.0,1.0,part_1,,,,,,,,,,,,,gray,I
327.0,2.0,2.0,0.0,4.0,4.0,343.3498960002907,3.0,1.0,part_1,,,,,,,,,,,,,green,flipped triangle
1278.0,8.0,4.0,1.0,2.0,2.0,353.1503189988143,3.0,1.0,part_1,,,,,,,,,,,,,blue,circle
144.0,5.0,1.0,1.0,3.0,3.0,297.7642409969121,3.0,1.0,part_1,,,,,,,,,,,,,magenta,triangle
1306.0,4.0,4.0,0.0,1.0,1.0,324.5150229995488,3.0,1.0,part_1,,,,,,,,,,,,,yellow,cross
156.0,1.0,1.0,0.0,2.0,2.0,380.6561750025139,3.0,1.0,part_1,,,,,,,,,,,,,white,diamond
167.0,1.0,1.0,0.0,4.0,4.0,352.2013370020431,3.0,1.0,part_1,,,,,,,,,,,,,white,diamond
338.0,2.0,2.0,0.0,2.0,2.0,463.5338529988075,3.0,1.0,part_1,,,,,,,,,,,,,green,flipped triangle
658.0,3.0,3.0,0.0,2.0,2.0,343.0401130026439,3.0,1.0,part_1,,,,,,,,,,,,,gray,I
350.0,2.0,2.0,0.0,3.0,3.0,370.2288450003834,3.0,1.0,part_1,,,,,,,,,,,,,green,flipped triangle
1307.0,8.0,4.0,1.0,4.0,4.0,360.8967639993352,3.0,1.0,part_1,,,,,,,,,,,,,blue,circle
1295.0,4.0,4.0,0.0,3.0,3.0,314.6377569973992,3.0,1.0,part_1,,,,,,,,,,,,,yellow,cross
325.0,6.0,2.0,1.0,4.0,4.0,333.7747989971831,3.0,1.0,part_1,,,,,,,,,,,,,cyan,hexagon
137.0,5.0,1.0,1.0,3.0,3.0,314.8658780010009,3.0,1.0,part_1,,,,,,,,,,,,,magenta,triangle
630.0,7.0,3.0,1.0,2.0,2.0,396.6058680016431,3.0,1.0,part_1,,,,,,,,,,,,,orange,square
0.0,4.0,0.0,0.0,4.0,4.0,361.598634000984,3.0,1.0,part_1,,,,,,,,,,,,,yellow,cross
146.0,5.0,1.0,1.0,2.0,2.0,360.3508189989952,3.0,1.0,part_1,,,,,,,,,,,,,magenta,triangle
300.0,6.0,2.0,1.0,4.0,4.0,324.3434379983227,3.0,1.0,part_1,,,,,,,,,,,,,cyan,hexagon
0.0,7.0,0.0,1.0,3.0,3.0,324.9944240014883,3.0,1.0,part_1,,,,,,,,,,,,,orange,square
177.0,5.0,1.0,1.0,2.0,2.0,470.8897849995992,3.0,1.0,part_1,,,,,,,,,,,,,magenta,triangle
1314.0,8.0,4.0,1.0,4.0,4.0,416.9473459987785,3.0,1.0,part_1,,,,,,,,,,,,,blue,circle
323.0,6.0,2.0,1.0,4.0,4.0,398.867045998486,3.0,1.0,part_1,,,,,,,,,,,,,cyan,hexagon
0.0,2.0,0.0,0.0,4.0,4.0,306.640184000571,3.0,1.0,part_1,,,,,,,,,,,,,green,flipped triangle
156.0,1.0,1.0,0.0,2.0,2.0,342.2724830015795,3.0,2.0,part_1,,,,,,,,,,,,,white,diamond
315.0,2.0,2.0,0.0,3.0,3.0,296.0615920019336,3.0,1.0,part_1,,,,,,,,,,,,,green,flipped triangle
0.0,8.0,0.0,1.0,2.0,2.0,537.6882649979962,3.0,1.0,part_1,,,,,,,,,,,,,blue,circle
162.0,5.0,1.0,1.0,1.0,1.0,399.4380800031649,3.0,1.0,part_1,,,,,,,,,,,,,magenta,triangle
303.0,6.0,2.0,1.0,1.0,1.0,463.1617410013859,3.0,1.0,part_1,,,,,,,,,,,,,cyan,hexagon
1277.0,8.0,4.0,1.0,1.0,1.0,315.0900549990183,3.0,1.0,part_1,,,,,,,,,,,,,blue,circle
1292.0,4.0,4.0,0.0,1.0,1.0,333.4777840027527,3.0,1.0,part_1,,,,,,,,,,,,,yellow,cross
1324.0,8.0,4.0,1.0,1.0,1.0,388.281563999044,3.0,1.0,part_1,,,,,,,,,,,,,blue,circle
1294.0,4.0,4.0,0.0,2.0,2.0,406.6228200026671,3.0,1.0,part_1,,,,,,,,,,,,,yellow,cross
0.0,8.0,0.0,1.0,3.0,3.0,370.0277019997884,3.0,1.0,part_1,,,,,,,,,,,,,blue,circle
343.0,6.0,2.0,1.0,1.0,1.0,323.6350510014745,3.0,1.0,part_1,,,,,,,,,,,,,cyan,hexagon
316.0,2.0,2.0,0.0,4.0,4.0,333.0249749997165,3.0,1.0,part_1,,,,,,,,,,,,,green,flipped triangle
0.0,8.0,0.0,1.0,4.0,4.0,369.6815429975686,3.0,1.0,part_1,,,,,,,,,,,,,blue,circle
187.0,5.0,1.0,1.0,4.0,4.0,351.8299040006241,3.0,1.0,part_1,,,,,,,,,,,,,magenta,triangle
312.0,6.0,2.0,1.0,2.0,2.0,343.0663959989033,3.0,1.0,part_1,,,,,,,,,,,,,cyan,hexagon
315.0,6.0,2.0,1.0,3.0,3.0,295.9456950011372,3.0,1.0,part_1,,,,,,,,,,,,,cyan,hexagon
632.0,3.0,3.0,0.0,2.0,2.0,342.1211140012019,3.0,1.0,part_1,,,,,,,,,,,,,gray,I
1298.0,8.0,4.0,1.0,4.0,4.0,315.2094450015283,3.0,1.0,part_1,,,,,,,,,,,,,blue,circle
335.0,2.0,2.0,0.0,3.0,3.0,324.4185549992835,3.0,1.0,part_1,,,,,,,,,,,,,green,flipped triangle
0.0,7.0,0.0,1.0,2.0,2.0,304.9403710028855,3.0,1.0,part_1,,,,,,,,,,,,,orange,square
0.0,1.0,0.0,0.0,2.0,2.0,397.2336410006392,3.0,1.0,part_1,,,,,,,,,,,,,white,diamond
305.0,2.0,2.0,0.0,2.0,2.0,333.2194329996127,3.0,1.0,part_1,,,,,,,,,,,,,green,flipped triangle
156.0,5.0,1.0,1.0,4.0,4.0,352.2575960014364,3.0,1.0,part_1,,,,,,,,,,,,,magenta,triangle
159.0,1.0,1.0,0.0,3.0,3.0,350.6728730026225,3.0,1.0,part_1,,,,,,,,,,,,,white,diamond
170.0,5.0,1.0,1.0,4.0,4.0,342.2435819993552,3.0,1.0,part_1,,,,,,,,,,,,,magenta,triangle
0.0,5.0,0.0,1.0,2.0,2.0,362.1050649999233,4.0,1.0,part_1,,,,,,,,,,,,,magenta,triangle
305.0,6.0,2.0,1.0,1.0,1.0,323.4451919997809,4.0,1.0,part_1,,,,,,,,,,,,,cyan,hexagon
642.0,7.0,3.0,1.0,2.0,2.0,324.2397719986911,4.0,1.0,part_1,,,,,,,,,,,,,orange,square
654.0,7.0,3.0,1.0,4.0,4.0,389.1092230005597,4.0,1.0,part_1,,,,,,,,,,,,,orange,square
629.0,7.0,3.0,1.0,3.0,3.0,278.7576270020508,4.0,1.0,part_1,,,,,,,,,,,,,orange,square
1314.0,4.0,4.0,0.0,2.0,2.0,369.9666049978987,4.0,1.0,part_1,,,,,,,,,,,,,yellow,cross
313.0,2.0,2.0,0.0,1.0,1.0,306.4347629988333,4.0,1.0,part_1,,,,,,,,,,,,,green,flipped triangle
144.0,1.0,1.0,0.0,2.0,2.0,379.6594439991168,4.0,1.0,part_1,,,,,,,,,,,,,white,diamond
642.0,3.0,3.0,0.0,4.0,4.0,360.5740800012427,4.0,1.0,part_1,,,,,,,,,,,,,gray,I
662.0,7.0,3.0,1.0,3.0,3.0,363.9608400008001,4.0,1.0,part_1,,,,,,,,,,,,,orange,square
0.0,8.0,0.0,1.0,4.0,4.0,342.6250979973702,4.0,1.0,part_1,,,,,,,,,,,,,blue,circle
177.0,5.0,1.0,1.0,2.0,2.0,535.8325610031898,4.0,1.0,part_1,,,,,,,,,,,,,magenta,triangle
629.0,3.0,3.0,0.0,1.0,1.0,399.0505950023362,4.0,1.0,part_1,,,,,,,,,,,,,gray,I
155.0,5.0,1.0,1.0,1.0,1.0,314.0104369995242,4.0,2.0,part_1,,,,,,,,,,,,,magenta,triangle
155.0,1.0,1.0,0.0,3.0,3.0,628.1763250008225,4.0,1.0,part_1,,,,,,,,,,,,,white,diamond
0.0,4.0,0.0,0.0,3.0,3.0,342.9254419970675,4.0,1.0,part_1,,,,,,,,,,,,,yellow,cross
1293.0,4.0,4.0,0.0,2.0,2.0,442.8556210004899,4.0,1.0,part_1,,,,,,,,,,,,,yellow,cross
0.0,3.0,0.0,0.0,1.0,1.0,305.1705739999306,4.0,1.0,part_1,,,,,,,,,,,,,gray,I
173.0,1.0,1.0,0.0,2.0,2.0,296.1646559997462,4.0,1.0,part_1,,,,,,,,,,,,,white,diamond
1303.0,8.0,4.0,1.0,4.0,4.0,369.1745620017173,4.0,1.0,part_1,,,,,,,,,,,,,blue,circle
172.0,1.0,1.0,0.0,1.0,1.0,397.0956089979154,4.0,1.0,part_1,,,,,,,,,,,,,white,diamond
170.0,5.0,1.0,1.0,1.0,1.0,323.3602530017379,4.0,1.0,part_1,,,,,,,,,,,,,magenta,triangle
187.0,5.0,1.0,1.0,3.0,3.0,462.2655260027386,4.0,1.0,part_1,,,,,,,,,,,,,magenta,triangle
639.0,3.0,3.0,0.0,4.0,4.0,583.751891997963,4.0,1.0,part_1,,,,,,,,,,,,,gray,I
0.0,8.0,0.0,1.0,1.0,1.0,369.6327489997202,4.0,1.0,part_1,,,,,,,,,,,,,blue,circle
187.0,1.0,1.0,0.0,3.0,3.0,313.9623360002588,4.0,1.0,part_1,,,,,,,,,,,,,white,diamond
153.0,1.0,1.0,0.0,4.0,4.0,314.0230630015139,4.0,1.0,part_1,,,,,,,,,,,,,white,diamond
0.0,5.0,0.0,1.0,3.0,3.0,406.6807769995648,4.0,1.0,part_1,,,,,,,,,,,,,magenta,triangle
325.0,2.0,2.0,0.0,2.0,2.0,387.9792099978658,4.0,1.0,part_1,,,,,,,,,,,,,green,flipped triangle
667.0,3.0,3.0,0.0,1.0,1.0,378.6106030020164,4.0,1.0,part_1,,,,,,,,,,,,,gray,I
1284.0,8.0,4.0,1.0,1.0,1.0,350.7568710010673,4.0,1.0,part_1,,,,,,,,,,,,,blue,circle
1319.0,4.0,4.0,0.0,2.0,2.0,342.012094999518,4.0,1.0,part_1,,,,,,,,,,,,,yellow,cross
1287.0,8.0,4.0,1.0,4.0,4.0,341.5365880027821,4.0,1.0,part_1,,,,,,,,,,,,,blue,circle
0.0,2.0,0.0,0.0,4.0,4.0,360.4115509988332,4.0,1.0,part_1,,,,,,,,,,,,,green,flipped triangle
659.0,7.0,3.0,1.0,2.0,2.0,350.6538649999129,4.0,1.0,part_1,,,,,,,,,,,,,orange,square
161.0,1.0,1.0,0.0,1.0,1.0,324.139799002296,4.0,1.0,part_1,,,,,,,,,,,,,white,diamond
665.0,7.0,3.0,1.0,1.0,1.0,341.471897001611,4.0,1.0,part_1,,,,,,,,,,,,,orange,square
304.0,2.0,2.0,0.0,4.0,4.0,343.9089130006323,4.0,1.0,part_1,,,,,,,,,,,,,green,flipped triangle
0.0,5.0,0.0,1.0,3.0,3.0,388.1662160019914,4.0,1.0,part_1,,,,,,,,,,,,,magenta,triangle
0.0,2.0,0.0,0.0,3.0,3.0,304.5597700001963,4.0,1.0,part_1,,,,,,,,,,,,,green,flipped triangle
633.0,3.0,3.0,0.0,4.0,4.0,518.6091590003343,4.0,1.0,part_1,,,,,,,,,,,,,gray,I
1295.0,8.0,4.0,1.0,1.0,1.0,555.0731859984808,4.0,1.0,part_1,,,,,,,,,,,,,blue,circle
178.0,5.0,1.0,1.0,2.0,2.0,360.0578100013081,4.0,1.0,part_1,,,,,,,,,,,,,magenta,triangle
637.0,3.0,3.0,0.0,2.0,2.0,370.4150410012516,4.0,1.0,part_1,,,,,,,,,,,,,gray,I
0.0,1.0,0.0,0.0,4.0,4.0,343.4506560006412,4.0,1.0,part_1,,,,,,,,,,,,,white,diamond
349.0,6.0,2.0,1.0,3.0,3.0,323.5869359996286,4.0,1.0,part_1,,,,,,,,,,,,,cyan,hexagon
634.0,3.0,3.0,0.0,3.0,3.0,435.5861650001316,4.0,1.0,part_1,,,,,,,,,,,,,gray,I
653.0,7.0,3.0,1.0,1.0,1.0,585.5599930000608,4.0,1.0,part_1,,,,,,,,,,,,,orange,square
350.0,6.0,2.0,1.0,3.0,3.0,342.6590650014987,4.0,1.0,part_1,,,,,,,,,,,,,cyan,hexagon
143.0,5.0,1.0,1.0,4.0,4.0,370.7795139998779,4.0,1.0,part_1,,,,,,,,,,,,,magenta,triangle
347.0,6.0,2.0,1.0,2.0,2.0,426.4111720003711,4.0,1.0,part_1,,,,,,,,,,,,,cyan,hexagon
325.0,2.0,2.0,0.0,1.0,1.0,379.1070349980145,4.0,1.0,part_1,,,,,,,,,,,,,green,flipped triangle
0.0,2.0,0.0,0.0,4.0,4.0,324.7453460026008,4.0,1.0,part_1,,,,,,,,,,,,,green,flipped triangle
1294.0,4.0,4.0,0.0,4.0,4.0,334.5454130030703,4.0,1.0,part_1,,,,,,,,,,,,,yellow,cross
331.0,2.0,2.0,0.0,2.0,2.0,351.8048349978926,4.0,1.0,part_1,,,,,,,,,,,,,green,flipped triangle
0.0,4.0,0.0,0.0,3.0,3.0,370.8428310019371,4.0,1.0,part_1,,,,,,,,,,,,,yellow,cross
1309.0,4.0,4.0,0.0,1.0,1.0,371.5093880018685,4.0,1.0,part_1,,,,,,,,,,,,,yellow,cross
634.0,7.0,3.0,1.0,1.0,1.0,333.8721410000289,4.0,1.0,part_1,,,,,,,,,,,,,orange,square
670.0,7.0,3.0,1.0,1.0,1.0,333.7267879978753,4.0,1.0,part_1,,,,,,,,,,,,,orange,square
306.0,6.0,2.0,1.0,4.0,4.0,342.4154430031194,4.0,1.0,part_1,,,,,,,,,,,,,cyan,hexagon
1310.0,4.0,4.0,0.0,3.0,3.0,387.8974239996751,4.0,1.0,part_1,,,,,,,,,,,,,yellow,cross
0.0,4.0,0.0,0.0,4.0,4.0,324.4483119997312,4.0,1.0,part_1,,,,,,,,,,,,,yellow,cross
1309.0,8.0,4.0,1.0,3.0,3.0,324.9743099986517,4.0,1.0,part_1,,,,,,,,,,,,,blue,circle
1284.0,4.0,4.0,0.0,3.0,3.0,351.350105000165,4.0,1.0,part_1,,,,,,,,,,,,,yellow,cross
0.0,1.0,0.0,0.0,1.0,1.0,351.634025999374,4.0,1.0,part_1,,,,,,,,,,,,,white,diamond
0.0,8.0,0.0,1.0,3.0,3.0,323.9563750030356,4.0,1.0,part_1,,,,,,,,,,,,,blue,circle
0.0,5.0,0.0,1.0,2.0,2.0,472.22465700178867,4.0,1.0,part_1,,,,,,,,,,,,,magenta,triangle
641.0,7.0,3.0,1.0,1.0,1.0,342.5156420016719,4.0,1.0,part_1,,,,,,,,,,,,,orange,square
310.0,6.0,2.0,1.0,2.0,2.0,463.4743170026922,4.0,1.0,part_1,,,,,,,,,,,,,cyan,hexagon
314.0,2.0,2.0,0.0,1.0,1.0,351.9760799972573,4.0,1.0,part_1,,,,,,,,,,,,,green,flipped triangle
0.0,8.0,0.0,1.0,4.0,4.0,332.9440399975283,4.0,1.0,part_1,,,,,,,,,,,,,blue,circle
143.0,1.0,1.0,0.0,1.0,1.0,351.8305870020413,4.0,1.0,part_1,,,,,,,,,,,,,white,diamond
1299.0,8.0,4.0,1.0,3.0,3.0,334.8071129985328,4.0,1.0,part_1,,,,,,,,,,,,,blue,circle
337.0,6.0,2.0,1.0,1.0,1.0,463.7574150001455,4.0,1.0,part_1,,,,,,,,,,,,,cyan,hexagon
671.0,3.0,3.0,0.0,4.0,4.0,455.1912139977503,4.0,1.0,part_1,,,,,,,,,,,,,gray,I
310.0,2.0,2.0,0.0,3.0,3.0,370.7277909998083,4.0,1.0,part_1,,,,,,,,,,,,,green,flipped triangle
315.0,6.0,2.0,1.0,1.0,1.0,361.9795839986182,4.0,1.0,part_1,,,,,,,,,,,,,cyan,hexagon
1298.0,4.0,4.0,0.0,3.0,3.0,388.6248109993175,4.0,1.0,part_1,,,,,,,,,,,,,yellow,cross
1318.0,4.0,4.0,0.0,4.0,4.0,343.7451040008454,4.0,1.0,part_1,,,,,,,,,,,,,yellow,cross
349.0,2.0,2.0,0.0,4.0,4.0,324.5096280006692,4.0,1.0,part_1,,,,,,,,,,,,,green,flipped triangle
166.0,5.0,1.0,1.0,1.0,1.0,343.6558799985505,4.0,2.0,part_1,,,,,,,,,,,,,magenta,triangle
0.0,6.0,0.0,1.0,3.0,3.0,379.7739439978613,4.0,1.0,part_1,,,,,,,,,,,,,cyan,hexagon
0.0,6.0,0.0,1.0,3.0,3.0,315.3558880003402,4.0,1.0,part_1,,,,,,,,,,,,,cyan,hexagon
675.0,3.0,3.0,0.0,4.0,4.0,315.0900729997374,4.0,1.0,part_1,,,,,,,,,,,,,gray,I
311.0,2.0,2.0,0.0,4.0,4.0,370.4064819976338,4.0,1.0,part_1,,,,,,,,,,,,,green,flipped triangle
1298.0,4.0,4.0,0.0,4.0,4.0,417.4701269985235,4.0,1.0,part_1,,,,,,,,,,,,,yellow,cross
306.0,2.0,2.0,0.0,2.0,2.0,351.6038509987993,4.0,1.0,part_1,,,,,,,,,,,,,green,flipped triangle
0.0,7.0,0.0,1.0,1.0,1.0,314.2709989988361,4.0,1.0,part_1,,,,,,,,,,,,,orange,square
171.0,1.0,1.0,0.0,4.0,4.0,324.1334889971767,4.0,1.0,part_1,,,,,,,,,,,,,white,diamond
0.0,5.0,0.0,1.0,4.0,4.0,433.6182629995164,4.0,1.0,part_1,,,,,,,,,,,,,magenta,triangle
0.0,2.0,0.0,0.0,1.0,1.0,416.232225998101,4.0,1.0,part_1,,,,,,,,,,,,,green,flipped triangle
349.0,2.0,2.0,0.0,3.0,3.0,407.7578819997143,4.0,1.0,part_1,,,,,,,,,,,,,green,flipped triangle
313.0,2.0,2.0,0.0,1.0,1.0,472.7695720030169,4.0,1.0,part_1,,,,,,,,,,,,,green,flipped triangle
325.0,6.0,2.0,1.0,4.0,4.0,351.9250650024332,4.0,1.0,part_1,,,,,,,,,,,,,cyan,hexagon
335.0,2.0,2.0,0.0,2.0,2.0,518.74183900145,4.0,1.0,part_1,,,,,,,,,,,,,green,flipped triangle
323.0,2.0,2.0,0.0,2.0,2.0,425.4156540009717,4.0,1.0,part_1,,,,,,,,,,,,,green,flipped triangle
1307.0,4.0,4.0,0.0,1.0,1.0,471.3245100028871,4.0,1.0,part_1,,,,,,,,,,,,,yellow,cross
162.0,1.0,1.0,0.0,1.0,1.0,443.0672890011919,4.0,1.0,part_1,,,,,,,,,,,,,white,diamond
0.0,4.0,0.0,0.0,4.0,4.0,572.634364998521,4.0,1.0,part_1,,,,,,,,,,,,,yellow,cross
630.0,3.0,3.0,0.0,1.0,1.0,352.8295180003624,4.0,1.0,part_1,,,,,,,,,,,,,gray,I
0.0,2.0,2.0,0.0,6.0,6.0,584.0363800016348,1.0,0.0,part_2,go,250.0,250.0,1.0,,,,,,,,,green,flipped triangle
0.0,3.0,3.0,0.0,5.0,5.0,342.9416120015958,1.0,0.0,part_2,go,250.0,250.0,1.0,,,,,,,,,gray,I
0.0,8.0,4.0,1.0,6.0,0.0,0.0,1.0,0.0,part_2,stop,250.0,250.0,4.0,,,,,,,,,blue,circle
0.0,5.0,1.0,1.0,6.0,0.0,0.0,1.0,0.0,part_2,stop,250.0,300.0,4.0,,,,,,,,,magenta,triangle
0.0,6.0,2.0,1.0,5.0,0.0,0.0,1.0,0.0,part_2,stop,250.0,350.0,4.0,,,,,,,,,cyan,hexagon
0.0,3.0,3.0,0.0,6.0,6.0,772.7184890027274,1.0,0.0,part_2,go,300.0,350.0,1.0,,,,,,,,,gray,I
0.0,7.0,3.0,1.0,5.0,0.0,0.0,1.0,0.0,part_2,stop,300.0,350.0,4.0,,,,,,,,,orange,square
0.0,1.0,1.0,0.0,6.0,6.0,697.7611830006936,1.0,0.0,part_2,go,350.0,350.0,1.0,,,,,,,,,white,diamond
0.0,3.0,3.0,0.0,6.0,6.0,656.9942320020346,1.0,0.0,part_2,go,350.0,350.0,1.0,,,,,,,,,gray,I
0.0,1.0,1.0,0.0,6.0,6.0,638.2377789996099,1.0,0.0,part_2,go,350.0,350.0,1.0,,,,,,,,,white,diamond
0.0,4.0,4.0,0.0,5.0,5.0,672.3327109975799,1.0,0.0,part_2,go,350.0,350.0,1.0,,,,,,,,,yellow,cross
0.0,3.0,3.0,0.0,6.0,6.0,763.5279220012308,1.0,0.0,part_2,go,350.0,350.0,1.0,,,,,,,,,gray,I
0.0,2.0,2.0,0.0,5.0,5.0,588.199710000481,1.0,0.0,part_2,go,350.0,350.0,1.0,,,,,,,,,green,flipped triangle
0.0,3.0,3.0,0.0,6.0,6.0,450.6182180011819,1.0,0.0,part_2,go,350.0,350.0,1.0,,,,,,,,,gray,I
0.0,1.0,1.0,0.0,6.0,6.0,383.2277309993515,1.0,0.0,part_2,go,350.0,350.0,1.0,,,,,,,,,white,diamond
0.0,7.0,3.0,1.0,5.0,5.0,513.7171899987152,1.0,0.0,part_2,stop,350.0,350.0,3.0,,,,,,,,,orange,square
0.0,6.0,2.0,1.0,5.0,5.0,441.4227420020324,1.0,0.0,part_2,stop,300.0,350.0,3.0,,,,,,,,,cyan,hexagon
0.0,2.0,2.0,0.0,6.0,6.0,578.6658620017988,1.0,0.0,part_2,go,250.0,350.0,1.0,,,,,,,,,green,flipped triangle
0.0,7.0,3.0,1.0,6.0,0.0,0.0,1.0,0.0,part_2,stop,250.0,350.0,4.0,,,,,,,,,orange,square
0.0,7.0,3.0,1.0,6.0,0.0,0.0,1.0,0.0,part_2,stop,250.0,400.0,4.0,,,,,,,,,orange,square
0.0,7.0,3.0,1.0,5.0,5.0,671.3842069984821,1.0,0.0,part_2,go,250.0,450.0,1.0,,,,,,,,,orange,square
0.0,3.0,3.0,0.0,5.0,5.0,835.6106290011667,1.0,0.0,part_2,go,250.0,450.0,1.0,,,,,,,,,gray,I
0.0,6.0,2.0,1.0,5.0,0.0,0.0,1.0,0.0,part_2,stop,250.0,450.0,4.0,,,,,,,,,cyan,hexagon
0.0,7.0,3.0,1.0,5.0,5.0,404.1825739986961,1.0,0.0,part_2,go,300.0,450.0,1.0,,,,,,,,,orange,square
0.0,8.0,4.0,1.0,5.0,5.0,829.2499460003455,1.0,0.0,part_2,go,300.0,450.0,1.0,,,,,,,,,blue,circle
0.0,5.0,1.0,1.0,5.0,0.0,0.0,1.0,0.0,part_2,stop,300.0,450.0,4.0,,,,,,,,,magenta,triangle
0.0,2.0,2.0,0.0,5.0,5.0,839.2677760020888,1.0,0.0,part_2,go,350.0,450.0,1.0,,,,,,,,,green,flipped triangle
0.0,7.0,3.0,1.0,5.0,0.0,0.0,1.0,0.0,part_2,stop,350.0,450.0,4.0,,,,,,,,,orange,square
0.0,2.0,2.0,0.0,6.0,6.0,362.9839430032007,1.0,0.0,part_2,go,400.0,450.0,1.0,,,,,,,,,green,flipped triangle
0.0,4.0,4.0,0.0,6.0,6.0,676.590863000456,1.0,0.0,part_2,go,400.0,450.0,1.0,,,,,,,,,yellow,cross
0.0,2.0,2.0,0.0,6.0,6.0,854.0515200002119,1.0,0.0,part_2,go,400.0,450.0,1.0,,,,,,,,,green,flipped triangle
0.0,4.0,4.0,0.0,5.0,5.0,839.9068100006843,1.0,0.0,part_2,go,400.0,450.0,1.0,,,,,,,,,yellow,cross
0.0,8.0,4.0,1.0,5.0,0.0,0.0,1.0,0.0,part_2,stop,400.0,450.0,4.0,,,,,,,,,blue,circle
0.0,3.0,3.0,0.0,5.0,5.0,560.9502439983771,1.0,0.0,part_2,go,450.0,450.0,1.0,,,,,,,,,gray,I
0.0,4.0,4.0,0.0,6.0,6.0,522.5960719981231,1.0,0.0,part_2,go,450.0,450.0,1.0,,,,,,,,,yellow,cross
0.0,2.0,2.0,0.0,6.0,6.0,707.2580300009577,1.0,0.0,part_2,go,450.0,450.0,1.0,,,,,,,,,green,flipped triangle
0.0,6.0,2.0,1.0,5.0,5.0,504.974717998266,2.0,0.0,part_2,stop,450.0,450.0,3.0,,,,,,,,,cyan,hexagon
0.0,8.0,4.0,1.0,5.0,0.0,0.0,2.0,0.0,part_2,stop,400.0,450.0,4.0,,,,,,,,,blue,circle
0.0,3.0,3.0,0.0,5.0,5.0,854.4005779986037,2.0,0.0,part_2,go,450.0,450.0,1.0,,,,,,,,,gray,I
0.0,4.0,4.0,0.0,6.0,6.0,538.452798002254,2.0,0.0,part_2,go,450.0,450.0,1.0,,,,,,,,,yellow,cross
0.0,2.0,2.0,0.0,5.0,5.0,511.9805360009195,2.0,0.0,part_2,go,450.0,450.0,1.0,,,,,,,,,green,flipped triangle
0.0,6.0,2.0,1.0,6.0,6.0,564.6607740018226,2.0,0.0,part_2,stop,450.0,450.0,3.0,,,,,,,,,cyan,hexagon
0.0,7.0,3.0,1.0,5.0,5.0,846.8159540025226,2.0,0.0,part_2,go,450.0,400.0,1.0,,,,,,,,,orange,square
0.0,3.0,3.0,0.0,5.0,5.0,446.8485760007752,2.0,0.0,part_2,go,450.0,400.0,1.0,,,,,,,,,gray,I
0.0,2.0,2.0,0.0,6.0,6.0,531.6871710019768,2.0,0.0,part_2,go,450.0,400.0,1.0,,,,,,,,,green,flipped triangle
0.0,7.0,3.0,1.0,6.0,6.0,577.533442999993,2.0,0.0,part_2,go,450.0,400.0,1.0,,,,,,,,,orange,square
0.0,4.0,4.0,0.0,6.0,6.0,641.4484630004154,2.0,0.0,part_2,go,450.0,400.0,1.0,,,,,,,,,yellow,cross
0.0,7.0,3.0,1.0,5.0,0.0,0.0,2.0,0.0,part_2,stop,450.0,400.0,4.0,,,,,,,,,orange,square
0.0,3.0,3.0,0.0,5.0,5.0,875.1143549998233,2.0,0.0,part_2,go,500.0,400.0,1.0,,,,,,,,,gray,I
0.0,4.0,4.0,0.0,6.0,6.0,614.0448309997737,2.0,0.0,part_2,go,500.0,400.0,1.0,,,,,,,,,yellow,cross
0.0,5.0,1.0,1.0,6.0,6.0,772.8773740018369,2.0,0.0,part_2,go,500.0,400.0,1.0,,,,,,,,,magenta,triangle
0.0,1.0,1.0,0.0,5.0,5.0,513.1159669981571,2.0,0.0,part_2,go,500.0,400.0,1.0,,,,,,,,,white,diamond
0.0,1.0,1.0,0.0,6.0,6.0,557.3119629989378,2.0,0.0,part_2,go,500.0,400.0,1.0,,,,,,,,,white,diamond
0.0,6.0,2.0,1.0,5.0,5.0,530.008320001798,2.0,0.0,part_2,go,500.0,400.0,1.0,,,,,,,,,cyan,hexagon
0.0,7.0,3.0,1.0,6.0,0.0,0.0,2.0,0.0,part_2,stop,500.0,400.0,4.0,,,,,,,,,orange,square
0.0,3.0,3.0,0.0,5.0,5.0,708.2994949996646,2.0,0.0,part_2,go,500.0,450.0,1.0,,,,,,,,,gray,I
0.0,6.0,2.0,1.0,6.0,6.0,325.503480999032,2.0,0.0,part_2,go,500.0,450.0,1.0,,,,,,,,,cyan,hexagon
0.0,6.0,2.0,1.0,6.0,6.0,494.5749720027379,2.0,0.0,part_2,stop,500.0,450.0,3.0,,,,,,,,,cyan,hexagon
0.0,4.0,4.0,0.0,6.0,6.0,605.6931700004498,2.0,0.0,part_2,go,500.0,400.0,1.0,,,,,,,,,yellow,cross
0.0,4.0,4.0,0.0,6.0,6.0,872.4634790014534,2.0,0.0,part_2,go,500.0,400.0,1.0,,,,,,,,,yellow,cross
0.0,3.0,3.0,0.0,6.0,6.0,579.7898139971949,2.0,0.0,part_2,go,500.0,400.0,1.0,,,,,,,,,gray,I
0.0,1.0,1.0,0.0,5.0,5.0,371.8843770002422,2.0,0.0,part_2,go,500.0,400.0,1.0,,,,,,,,,white,diamond
0.0,3.0,3.0,0.0,5.0,5.0,670.5003409988421,2.0,0.0,part_2,go,500.0,400.0,1.0,,,,,,,,,gray,I
0.0,1.0,1.0,0.0,6.0,6.0,790.7662190009432,2.0,0.0,part_2,go,500.0,400.0,1.0,,,,,,,,,white,diamond
0.0,5.0,1.0,1.0,6.0,0.0,0.0,2.0,0.0,part_2,stop,500.0,400.0,4.0,,,,,,,,,magenta,triangle
0.0,1.0,1.0,0.0,5.0,5.0,588.1810630016844,2.0,0.0,part_2,go,500.0,450.0,1.0,,,,,,,,,white,diamond
0.0,6.0,2.0,1.0,5.0,5.0,537.271426001098,2.0,0.0,part_2,stop,500.0,450.0,3.0,,,,,,,,,cyan,hexagon
0.0,3.0,3.0,0.0,6.0,6.0,773.6259410012281,2.0,0.0,part_2,go,450.0,450.0,1.0,,,,,,,,,gray,I
0.0,8.0,4.0,1.0,6.0,0.0,0.0,2.0,0.0,part_2,stop,450.0,450.0,4.0,,,,,,,,,blue,circle
0.0,5.0,1.0,1.0,5.0,0.0,0.0,2.0,0.0,part_2,stop,450.0,500.0,4.0,,,,,,,,,magenta,triangle
0.0,1.0,1.0,0.0,6.0,6.0,754.8078969994094,2.0,0.0,part_2,go,500.0,500.0,1.0,,,,,,,,,white,diamond
0.0,2.0,2.0,0.0,6.0,6.0,355.3932459981297,2.0,0.0,part_2,go,500.0,500.0,1.0,,,,,,,,,green,flipped triangle
0.0,2.0,2.0,0.0,6.0,6.0,772.8662030021951,3.0,0.0,part_2,go,500.0,500.0,1.0,,,,,,,,,green,flipped triangle
0.0,2.0,2.0,0.0,5.0,5.0,475.6335590027447,3.0,0.0,part_2,go,500.0,500.0,1.0,,,,,,,,,green,flipped triangle
0.0,6.0,2.0,1.0,6.0,6.0,549.9988539995684,3.0,0.0,part_2,stop,500.0,500.0,3.0,,,,,,,,,cyan,hexagon
0.0,5.0,1.0,1.0,6.0,0.0,0.0,3.0,0.0,part_2,stop,500.0,450.0,4.0,,,,,,,,,magenta,triangle
0.0,6.0,2.0,1.0,6.0,6.0,604.9028159977752,3.0,0.0,part_2,go,500.0,500.0,1.0,,,,,,,,,cyan,hexagon
0.0,5.0,1.0,1.0,6.0,6.0,746.5767040011997,3.0,0.0,part_2,go,500.0,500.0,1.0,,,,,,,,,magenta,triangle
0.0,7.0,3.0,1.0,6.0,0.0,0.0,3.0,0.0,part_2,stop,500.0,500.0,4.0,,,,,,,,,orange,square
0.0,5.0,1.0,1.0,5.0,5.0,865.4831470012141,3.0,0.0,part_2,go,500.0,550.0,1.0,,,,,,,,,magenta,triangle
0.0,8.0,4.0,1.0,6.0,0.0,0.0,3.0,0.0,part_2,stop,500.0,550.0,4.0,,,,,,,,,blue,circle
0.0,5.0,1.0,1.0,5.0,5.0,641.8604729988147,3.0,0.0,part_2,go,500.0,600.0,1.0,,,,,,,,,magenta,triangle
0.0,7.0,3.0,1.0,5.0,0.0,0.0,3.0,0.0,part_2,stop,500.0,600.0,4.0,,,,,,,,,orange,square
0.0,6.0,2.0,1.0,6.0,6.0,757.1682960006001,3.0,0.0,part_2,stop,550.0,600.0,3.0,,,,,,,,,cyan,hexagon
0.0,5.0,1.0,1.0,5.0,5.0,731.164886001352,3.0,0.0,part_2,stop,550.0,550.0,3.0,,,,,,,,,magenta,triangle
0.0,3.0,3.0,0.0,5.0,5.0,664.2348669993225,3.0,0.0,part_2,go,500.0,550.0,1.0,,,,,,,,,gray,I
0.0,1.0,1.0,0.0,5.0,5.0,828.7608669998008,3.0,0.0,part_2,go,500.0,550.0,1.0,,,,,,,,,white,diamond
0.0,5.0,1.0,1.0,5.0,0.0,0.0,3.0,0.0,part_2,stop,500.0,550.0,4.0,,,,,,,,,magenta,triangle
0.0,1.0,1.0,0.0,5.0,5.0,965.6708269976662,3.0,0.0,part_2,go,550.0,550.0,1.0,,,,,,,,,white,diamond
0.0,6.0,2.0,1.0,5.0,0.0,0.0,3.0,0.0,part_2,stop,550.0,550.0,4.0,,,,,,,,,cyan,hexagon
0.0,3.0,3.0,0.0,6.0,6.0,958.0418040022778,3.0,0.0,part_2,go,600.0,550.0,1.0,,,,,,,,,gray,I
0.0,5.0,1.0,1.0,6.0,6.0,986.1134599996147,3.0,0.0,part_2,go,600.0,550.0,1.0,,,,,,,,,magenta,triangle
0.0,4.0,4.0,0.0,5.0,5.0,1042.7247270017688,3.0,0.0,part_2,go,600.0,550.0,1.0,,,,,,,,,yellow,cross
0.0,8.0,4.0,1.0,6.0,0.0,0.0,3.0,0.0,part_2,stop,600.0,550.0,4.0,,,,,,,,,blue,circle
0.0,3.0,3.0,0.0,5.0,5.0,1143.7472979996528,3.0,0.0,part_2,go,600.0,600.0,1.0,,,,,,,,,gray,I
0.0,3.0,3.0,0.0,6.0,6.0,705.2056459979212,3.0,0.0,part_2,go,600.0,600.0,1.0,,,,,,,,,gray,I
0.0,8.0,4.0,1.0,5.0,5.0,680.9738800002378,3.0,0.0,part_2,stop,600.0,600.0,3.0,,,,,,,,,blue,circle
0.0,2.0,2.0,0.0,6.0,6.0,745.2757499995641,3.0,0.0,part_2,go,550.0,600.0,1.0,,,,,,,,,green,flipped triangle
0.0,1.0,1.0,0.0,6.0,6.0,928.6701940000056,3.0,0.0,part_2,go,550.0,600.0,1.0,,,,,,,,,white,diamond
0.0,8.0,4.0,1.0,6.0,6.0,948.3292160002748,3.0,0.0,part_2,go,550.0,600.0,1.0,,,,,,,,,blue,circle
0.0,7.0,3.0,1.0,6.0,0.0,0.0,3.0,0.0,part_2,stop,550.0,600.0,4.0,,,,,,,,,orange,square
0.0,4.0,4.0,0.0,6.0,6.0,830.2107979980065,3.0,0.0,part_2,go,550.0,650.0,1.0,,,,,,,,,yellow,cross
0.0,1.0,1.0,0.0,5.0,5.0,717.6221910012828,3.0,0.0,part_2,go,550.0,650.0,1.0,,,,,,,,,white,diamond
0.0,1.0,1.0,0.0,5.0,5.0,791.5674520008906,3.0,0.0,part_2,go,550.0,650.0,1.0,,,,,,,,,white,diamond
0.0,4.0,4.0,0.0,5.0,5.0,606.9423009976163,3.0,0.0,part_2,go,550.0,650.0,1.0,,,,,,,,,yellow,cross
0.0,8.0,4.0,1.0,6.0,6.0,363.4162569978798,3.0,0.0,part_2,stop,550.0,650.0,3.0,,,,,,,,,blue,circle
0.0,6.0,2.0,1.0,6.0,0.0,0.0,3.0,0.0,part_2,stop,550.0,600.0,4.0,,,,,,,,,cyan,hexagon
0.0,3.0,3.0,0.0,6.0,6.0,790.2562629969907,3.0,0.0,part_2,go,550.0,650.0,1.0,,,,,,,,,gray,I
0.0,1.0,1.0,0.0,6.0,6.0,855.0949409982422,4.0,0.0,part_2,go,550.0,650.0,1.0,,,,,,,,,white,diamond
0.0,5.0,1.0,1.0,5.0,5.0,606.4877400021942,4.0,0.0,part_2,stop,550.0,650.0,3.0,,,,,,,,,magenta,triangle
0.0,4.0,4.0,0.0,5.0,5.0,391.1685519997263,4.0,0.0,part_2,go,500.0,650.0,1.0,,,,,,,,,yellow,cross
0.0,6.0,2.0,1.0,5.0,5.0,537.8629100014223,4.0,0.0,part_2,stop,500.0,650.0,3.0,,,,,,,,,cyan,hexagon
0.0,7.0,3.0,1.0,6.0,0.0,0.0,4.0,0.0,part_2,stop,450.0,650.0,4.0,,,,,,,,,orange,square
0.0,3.0,3.0,0.0,5.0,5.0,882.747861000098,4.0,0.0,part_2,go,450.0,700.0,1.0,,,,,,,,,gray,I
0.0,8.0,4.0,1.0,6.0,6.0,680.093824998039,4.0,0.0,part_2,stop,450.0,700.0,3.0,,,,,,,,,blue,circle
0.0,4.0,4.0,0.0,6.0,6.0,783.8191869996081,4.0,0.0,part_2,go,450.0,650.0,1.0,,,,,,,,,yellow,cross
0.0,7.0,3.0,1.0,5.0,0.0,0.0,4.0,0.0,part_2,stop,450.0,650.0,4.0,,,,,,,,,orange,square
0.0,8.0,4.0,1.0,5.0,5.0,676.2385459987854,4.0,0.0,part_2,stop,500.0,650.0,3.0,,,,,,,,,blue,circle
0.0,6.0,2.0,1.0,6.0,6.0,782.3407079995377,4.0,0.0,part_2,stop,450.0,650.0,3.0,,,,,,,,,cyan,hexagon
0.0,1.0,1.0,0.0,6.0,6.0,930.0267780017748,4.0,0.0,part_2,go,450.0,600.0,1.0,,,,,,,,,white,diamond
0.0,8.0,4.0,1.0,6.0,0.0,0.0,4.0,0.0,part_2,stop,450.0,600.0,4.0,,,,,,,,,blue,circle
0.0,5.0,1.0,1.0,6.0,6.0,1095.5061599997862,4.0,0.0,part_2,go,450.0,650.0,1.0,,,,,,,,,magenta,triangle
0.0,8.0,4.0,1.0,6.0,6.0,893.3835120005824,4.0,0.0,part_2,go,450.0,650.0,1.0,,,,,,,,,blue,circle
0.0,6.0,2.0,1.0,6.0,0.0,0.0,4.0,0.0,part_2,stop,450.0,650.0,4.0,,,,,,,,,cyan,hexagon
0.0,8.0,4.0,1.0,5.0,0.0,0.0,4.0,0.0,part_2,stop,450.0,700.0,4.0,,,,,,,,,blue,circle
0.0,6.0,2.0,1.0,5.0,0.0,0.0,4.0,0.0,part_2,stop,500.0,700.0,4.0,,,,,,,,,cyan,hexagon
0.0,4.0,4.0,0.0,5.0,5.0,706.4749809978821,4.0,0.0,part_2,go,550.0,700.0,1.0,,,,,,,,,yellow,cross
0.0,4.0,4.0,0.0,6.0,6.0,827.7016789979825,4.0,0.0,part_2,go,550.0,700.0,1.0,,,,,,,,,yellow,cross
0.0,8.0,4.0,1.0,6.0,6.0,716.324873999838,4.0,0.0,part_2,go,550.0,700.0,1.0,,,,,,,,,blue,circle
0.0,5.0,1.0,1.0,6.0,6.0,641.551132001041,4.0,0.0,part_2,stop,550.0,700.0,3.0,,,,,,,,,magenta,triangle
0.0,3.0,3.0,0.0,6.0,6.0,910.7931139988068,4.0,0.0,part_2,go,550.0,650.0,1.0,,,,,,,,,gray,I
0.0,5.0,1.0,1.0,6.0,0.0,0.0,4.0,0.0,part_2,stop,550.0,650.0,4.0,,,,,,,,,magenta,triangle
0.0,6.0,2.0,1.0,6.0,6.0,995.0788670030306,4.0,0.0,part_2,go,550.0,700.0,1.0,,,,,,,,,cyan,hexagon
0.0,1.0,1.0,0.0,6.0,6.0,679.0605329988466,4.0,0.0,part_2,go,550.0,700.0,1.0,,,,,,,,,white,diamond
0.0,4.0,4.0,0.0,5.0,5.0,493.2926849978685,4.0,0.0,part_2,go,550.0,700.0,1.0,,,,,,,,,yellow,cross
0.0,3.0,3.0,0.0,6.0,6.0,1054.6126690023812,4.0,0.0,part_2,go,550.0,700.0,1.0,,,,,,,,,gray,I
0.0,1.0,1.0,0.0,6.0,6.0,782.193904997257,4.0,0.0,part_2,go,550.0,700.0,1.0,,,,,,,,,white,diamond
0.0,8.0,4.0,1.0,6.0,6.0,837.8313889988931,4.0,0.0,part_2,go,550.0,700.0,1.0,,,,,,,,,blue,circle
0.0,6.0,2.0,1.0,6.0,6.0,838.4328660031315,4.0,0.0,part_2,stop,550.0,700.0,3.0,,,,,,,,,cyan,hexagon
0.0,2.0,2.0,0.0,6.0,6.0,875.8658509977977,4.0,0.0,part_2,go,550.0,650.0,1.0,,,,,,,,,green,flipped triangle
0.0,2.0,2.0,0.0,5.0,5.0,428.518669999903,4.0,0.0,part_2,go,550.0,650.0,1.0,,,,,,,,,green,flipped triangle
0.0,6.0,2.0,1.0,6.0,6.0,751.8221079990326,4.0,0.0,part_2,stop,550.0,650.0,3.0,,,,,,,,,cyan,hexagon
0.0,6.0,2.0,1.0,5.0,0.0,0.0,4.0,0.0,part_2,stop,550.0,600.0,4.0,,,,,,,,,cyan,hexagon
0.0,2.0,2.0,0.0,5.0,5.0,559.1195169981802,4.0,0.0,part_2,go,600.0,600.0,1.0,,,,,,,,,green,flipped triangle
0.0,1.0,1.0,0.0,6.0,6.0,485.9688610013108,5.0,0.0,part_2,go,600.0,600.0,1.0,,,,,,,,,white,diamond
0.0,7.0,3.0,1.0,5.0,5.0,469.1881270009617,5.0,0.0,part_2,stop,600.0,600.0,3.0,,,,,,,,,orange,square
0.0,7.0,3.0,1.0,5.0,5.0,587.6680420005869,5.0,0.0,part_2,go,550.0,600.0,1.0,,,,,,,,,orange,square
0.0,5.0,1.0,1.0,5.0,5.0,678.416238999489,5.0,0.0,part_2,stop,550.0,600.0,3.0,,,,,,,,,magenta,triangle
0.0,4.0,4.0,0.0,6.0,6.0,448.662050999701,5.0,0.0,part_2,go,500.0,600.0,1.0,,,,,,,,,yellow,cross
0.0,2.0,2.0,0.0,6.0,6.0,557.4930449984095,5.0,0.0,part_2,go,500.0,600.0,1.0,,,,,,,,,green,flipped triangle
0.0,3.0,3.0,0.0,6.0,6.0,504.14427100258763,5.0,0.0,part_2,go,500.0,600.0,1.0,,,,,,,,,gray,I
0.0,5.0,1.0,1.0,6.0,6.0,541.9344469992211,5.0,0.0,part_2,stop,500.0,600.0,3.0,,,,,,,,,magenta,triangle
0.0,4.0,4.0,0.0,6.0,6.0,651.5664770013245,5.0,0.0,part_2,go,500.0,550.0,1.0,,,,,,,,,yellow,cross
0.0,8.0,4.0,1.0,5.0,0.0,0.0,5.0,0.0,part_2,stop,500.0,550.0,4.0,,,,,,,,,blue,circle
0.0,6.0,2.0,1.0,5.0,0.0,0.0,5.0,0.0,part_2,stop,550.0,550.0,4.0,,,,,,,,,cyan,hexagon
0.0,1.0,1.0,0.0,5.0,5.0,671.6241499998432,5.0,0.0,part_2,go,600.0,550.0,1.0,,,,,,,,,white,diamond
0.0,3.0,3.0,0.0,5.0,5.0,689.7371810009645,5.0,0.0,part_2,go,600.0,550.0,1.0,,,,,,,,,gray,I
0.0,1.0,1.0,0.0,5.0,5.0,561.621279000974,5.0,0.0,part_2,go,600.0,550.0,1.0,,,,,,,,,white,diamond
0.0,4.0,4.0,0.0,5.0,5.0,532.2491930019169,5.0,0.0,part_2,go,600.0,550.0,1.0,,,,,,,,,yellow,cross
0.0,7.0,3.0,1.0,6.0,0.0,0.0,5.0,0.0,part_2,stop,600.0,550.0,4.0,,,,,,,,,orange,square
0.0,1.0,1.0,0.0,5.0,5.0,486.8225289974361,5.0,0.0,part_2,go,600.0,600.0,1.0,,,,,,,,,white,diamond
0.0,6.0,2.0,1.0,5.0,5.0,548.8865829975111,5.0,0.0,part_2,stop,600.0,600.0,3.0,,,,,,,,,cyan,hexagon
0.0,7.0,3.0,1.0,6.0,6.0,677.2690569996485,5.0,0.0,part_2,stop,550.0,600.0,3.0,,,,,,,,,orange,square
0.0,4.0,4.0,0.0,5.0,5.0,739.2762710005627,5.0,0.0,part_2,go,550.0,550.0,1.0,,,,,,,,,yellow,cross
0.0,1.0,1.0,0.0,5.0,5.0,524.7604100004537,5.0,0.0,part_2,go,550.0,550.0,1.0,,,,,,,,,white,diamond
0.0,8.0,4.0,1.0,6.0,6.0,586.2723480022396,5.0,0.0,part_2,stop,550.0,550.0,3.0,,,,,,,,,blue,circle
0.0,5.0,1.0,1.0,5.0,5.0,594.9736529983056,5.0,0.0,part_2,stop,550.0,500.0,3.0,,,,,,,,,magenta,triangle
0.0,4.0,4.0,0.0,5.0,5.0,691.9769759988412,5.0,0.0,part_2,go,500.0,500.0,1.0,,,,,,,,,yellow,cross
0.0,8.0,4.0,1.0,6.0,0.0,0.0,5.0,0.0,part_2,stop,500.0,500.0,4.0,,,,,,,,,blue,circle
0.0,3.0,3.0,0.0,6.0,6.0,651.6971969977021,5.0,0.0,part_2,go,500.0,550.0,1.0,,,,,,,,,gray,I
0.0,3.0,3.0,0.0,5.0,5.0,560.2451000013389,5.0,0.0,part_2,go,500.0,550.0,1.0,,,,,,,,,gray,I
0.0,7.0,3.0,1.0,6.0,6.0,776.5612410003087,5.0,0.0,part_2,stop,500.0,550.0,3.0,,,,,,,,,orange,square
0.0,4.0,4.0,0.0,6.0,6.0,466.0328650024894,5.0,0.0,part_2,go,500.0,500.0,1.0,,,,,,,,,yellow,cross
0.0,2.0,2.0,0.0,5.0,5.0,467.4611560003541,5.0,0.0,part_2,go,500.0,500.0,1.0,,,,,,,,,green,flipped triangle
0.0,7.0,3.0,1.0,6.0,6.0,1034.580495001137,5.0,0.0,part_2,go,500.0,500.0,1.0,,,,,,,,,orange,square
0.0,7.0,3.0,1.0,5.0,5.0,494.2459189987858,5.0,0.0,part_2,stop,500.0,500.0,3.0,,,,,,,,,orange,square
0.0,1.0,1.0,0.0,5.0,5.0,662.211273000139,5.0,0.0,part_2,go,450.0,500.0,1.0,,,,,,,,,white,diamond
0.0,7.0,3.0,1.0,5.0,5.0,633.3810159994755,5.0,0.0,part_2,go,450.0,500.0,1.0,,,,,,,,,orange,square
0.0,2.0,2.0,0.0,6.0,6.0,466.4605590005521,5.0,0.0,part_2,go,450.0,500.0,1.0,,,,,,,,,green,flipped triangle
0.0,4.0,4.0,0.0,5.0,5.0,681.5567429985094,5.0,0.0,part_2,go,450.0,500.0,1.0,,,,,,,,,yellow,cross
0.0,2.0,2.0,0.0,5.0,5.0,541.6198540006008,6.0,0.0,part_2,go,450.0,500.0,1.0,,,,,,,,,green,flipped triangle
0.0,2.0,2.0,0.0,6.0,6.0,437.3406900012924,6.0,0.0,part_2,go,450.0,500.0,1.0,,,,,,,,,green,flipped triangle
0.0,6.0,2.0,1.0,6.0,6.0,476.227884999389,6.0,0.0,part_2,stop,450.0,500.0,3.0,,,,,,,,,cyan,hexagon
0.0,2.0,2.0,0.0,5.0,5.0,643.6706120002782,6.0,0.0,part_2,go,450.0,450.0,1.0,,,,,,,,,green,flipped triangle
0.0,5.0,1.0,1.0,6.0,0.0,0.0,6.0,0.0,part_2,stop,450.0,450.0,4.0,,,,,,,,,magenta,triangle
0.0,5.0,1.0,1.0,6.0,6.0,633.473886999127,6.0,0.0,part_2,go,450.0,500.0,1.0,,,,,,,,,magenta,triangle
0.0,2.0,2.0,0.0,6.0,6.0,681.6906349995406,6.0,0.0,part_2,go,450.0,500.0,1.0,,,,,,,,,green,flipped triangle
0.0,8.0,4.0,1.0,5.0,5.0,559.5010369979718,6.0,0.0,part_2,stop,450.0,500.0,3.0,,,,,,,,,blue,circle
0.0,4.0,4.0,0.0,5.0,5.0,758.4021449983993,6.0,0.0,part_2,go,400.0,500.0,1.0,,,,,,,,,yellow,cross
0.0,1.0,1.0,0.0,6.0,6.0,634.8122400013381,6.0,0.0,part_2,go,400.0,500.0,1.0,,,,,,,,,white,diamond
0.0,5.0,1.0,1.0,5.0,0.0,0.0,6.0,0.0,part_2,stop,400.0,500.0,4.0,,,,,,,,,magenta,triangle
0.0,2.0,2.0,0.0,5.0,5.0,633.6853610009712,6.0,0.0,part_2,go,450.0,500.0,1.0,,,,,,,,,green,flipped triangle
0.0,6.0,2.0,1.0,5.0,0.0,0.0,6.0,0.0,part_2,stop,450.0,500.0,4.0,,,,,,,,,cyan,hexagon
0.0,8.0,4.0,1.0,6.0,6.0,512.9014410013042,6.0,0.0,part_2,go,500.0,500.0,1.0,,,,,,,,,blue,circle
0.0,8.0,4.0,1.0,5.0,5.0,625.333755997417,6.0,0.0,part_2,stop,500.0,500.0,3.0,,,,,,,,,blue,circle
0.0,2.0,2.0,0.0,5.0,5.0,739.5577030001732,6.0,0.0,part_2,go,450.0,500.0,1.0,,,,,,,,,green,flipped triangle
0.0,4.0,4.0,0.0,5.0,5.0,429.0068769987556,6.0,0.0,part_2,go,450.0,500.0,1.0,,,,,,,,,yellow,cross
0.0,2.0,2.0,0.0,5.0,5.0,548.1263470028352,6.0,0.0,part_2,go,450.0,500.0,1.0,,,,,,,,,green,flipped triangle
0.0,4.0,4.0,0.0,6.0,6.0,690.127895999467,6.0,0.0,part_2,go,450.0,500.0,1.0,,,,,,,,,yellow,cross
0.0,1.0,1.0,0.0,5.0,5.0,593.3474949997617,6.0,0.0,part_2,go,450.0,500.0,1.0,,,,,,,,,white,diamond
0.0,8.0,4.0,1.0,6.0,0.0,0.0,6.0,0.0,part_2,stop,450.0,500.0,4.0,,,,,,,,,blue,circle
0.0,2.0,2.0,0.0,6.0,6.0,895.6116000008478,6.0,0.0,part_2,go,450.0,550.0,1.0,,,,,,,,,green,flipped triangle
0.0,5.0,1.0,1.0,5.0,0.0,0.0,6.0,0.0,part_2,stop,450.0,550.0,4.0,,,,,,,,,magenta,triangle
0.0,3.0,3.0,0.0,6.0,6.0,687.8054920016439,6.0,0.0,part_2,go,500.0,550.0,1.0,,,,,,,,,gray,I
0.0,1.0,1.0,0.0,6.0,6.0,754.5064389996696,6.0,0.0,part_2,go,500.0,550.0,1.0,,,,,,,,,white,diamond
0.0,1.0,1.0,0.0,5.0,5.0,737.0754439980374,6.0,0.0,part_2,go,500.0,550.0,1.0,,,,,,,,,white,diamond
0.0,5.0,1.0,1.0,5.0,5.0,761.6030520002823,6.0,0.0,part_2,go,500.0,550.0,1.0,,,,,,,,,magenta,triangle
0.0,5.0,1.0,1.0,6.0,6.0,391.5894630008552,6.0,0.0,part_2,stop,500.0,550.0,3.0,,,,,,,,,magenta,triangle
0.0,1.0,1.0,0.0,5.0,5.0,494.6958479995373,6.0,0.0,part_2,go,500.0,500.0,1.0,,,,,,,,,white,diamond
0.0,6.0,2.0,1.0,6.0,6.0,764.0796450032212,6.0,0.0,part_2,go,500.0,500.0,1.0,,,,,,,,,cyan,hexagon
0.0,8.0,4.0,1.0,6.0,0.0,0.0,6.0,0.0,part_2,stop,500.0,500.0,4.0,,,,,,,,,blue,circle
0.0,4.0,4.0,0.0,5.0,5.0,504.7141519971774,6.0,0.0,part_2,go,500.0,550.0,1.0,,,,,,,,,yellow,cross
0.0,3.0,3.0,0.0,5.0,5.0,774.4435009990411,6.0,0.0,part_2,go,500.0,550.0,1.0,,,,,,,,,gray,I
0.0,7.0,3.0,1.0,6.0,6.0,745.9499399992637,6.0,0.0,part_2,go,500.0,550.0,1.0,,,,,,,,,orange,square
0.0,3.0,3.0,0.0,5.0,5.0,633.5826989998168,6.0,0.0,part_2,go,500.0,550.0,1.0,,,,,,,,,gray,I
0.0,8.0,4.0,1.0,5.0,0.0,0.0,6.0,0.0,part_2,stop,500.0,550.0,4.0,,,,,,,,,blue,circle
0.0,4.0,4.0,0.0,5.0,5.0,549.1992749994097,7.0,0.0,part_2,go,550.0,550.0,1.0,,,,,,,,,yellow,cross
0.0,1.0,1.0,0.0,6.0,6.0,439.4796029991994,7.0,0.0,part_2,go,550.0,550.0,1.0,,,,,,,,,white,diamond
0.0,6.0,2.0,1.0,5.0,5.0,430.1290169969434,7.0,0.0,part_2,stop,550.0,550.0,3.0,,,,,,,,,cyan,hexagon
0.0,6.0,2.0,1.0,5.0,5.0,418.9096479967702,7.0,0.0,part_2,go,500.0,550.0,1.0,,,,,,,,,cyan,hexagon
0.0,4.0,4.0,0.0,5.0,5.0,402.448397999251,7.0,0.0,part_2,go,500.0,550.0,1.0,,,,,,,,,yellow,cross
0.0,5.0,1.0,1.0,5.0,5.0,411.0349869988567,7.0,0.0,part_2,stop,500.0,550.0,3.0,,,,,,,,,magenta,triangle
0.0,5.0,1.0,1.0,5.0,0.0,0.0,7.0,0.0,part_2,stop,450.0,550.0,4.0,,,,,,,,,magenta,triangle
0.0,5.0,1.0,1.0,5.0,0.0,0.0,7.0,0.0,part_2,stop,500.0,550.0,4.0,,,,,,,,,magenta,triangle
0.0,8.0,4.0,1.0,5.0,5.0,840.1677439978812,7.0,0.0,part_2,go,550.0,550.0,1.0,,,,,,,,,blue,circle
0.0,6.0,2.0,1.0,5.0,5.0,373.4571999993932,7.0,0.0,part_2,stop,550.0,550.0,3.0,,,,,,,,,cyan,hexagon
0.0,1.0,1.0,0.0,5.0,5.0,504.11542800065945,7.0,0.0,part_2,go,500.0,550.0,1.0,,,,,,,,,white,diamond
0.0,6.0,2.0,1.0,5.0,5.0,494.866146997083,7.0,0.0,part_2,stop,500.0,550.0,3.0,,,,,,,,,cyan,hexagon
0.0,4.0,4.0,0.0,6.0,6.0,697.6099160019658,7.0,0.0,part_2,go,450.0,550.0,1.0,,,,,,,,,yellow,cross
0.0,3.0,3.0,0.0,6.0,6.0,464.8268029995961,7.0,0.0,part_2,go,450.0,550.0,1.0,,,,,,,,,gray,I
0.0,2.0,2.0,0.0,5.0,5.0,401.5643849998014,7.0,0.0,part_2,go,450.0,550.0,1.0,,,,,,,,,green,flipped triangle
0.0,8.0,4.0,1.0,5.0,5.0,420.0544209998043,7.0,0.0,part_2,stop,450.0,550.0,3.0,,,,,,,,,blue,circle
0.0,4.0,4.0,0.0,5.0,5.0,663.5903259993938,7.0,0.0,part_2,go,400.0,550.0,1.0,,,,,,,,,yellow,cross
0.0,7.0,3.0,1.0,6.0,6.0,701.1421960014559,7.0,0.0,part_2,stop,400.0,550.0,3.0,,,,,,,,,orange,square
0.0,3.0,3.0,0.0,6.0,6.0,447.897195997939,7.0,0.0,part_2,go,400.0,500.0,1.0,,,,,,,,,gray,I
0.0,7.0,3.0,1.0,5.0,0.0,0.0,7.0,0.0,part_2,stop,400.0,500.0,4.0,,,,,,,,,orange,square
0.0,2.0,2.0,0.0,5.0,5.0,663.9574789987819,7.0,0.0,part_2,go,450.0,500.0,1.0,,,,,,,,,green,flipped triangle
0.0,2.0,2.0,0.0,5.0,5.0,663.3164230006514,7.0,0.0,part_2,go,450.0,500.0,1.0,,,,,,,,,green,flipped triangle
0.0,7.0,3.0,1.0,6.0,6.0,599.3820590010728,7.0,0.0,part_2,stop,450.0,500.0,3.0,,,,,,,,,orange,square
0.0,1.0,1.0,0.0,5.0,5.0,700.3562789977877,7.0,0.0,part_2,go,450.0,450.0,1.0,,,,,,,,,white,diamond
0.0,2.0,2.0,0.0,5.0,5.0,700.5198490005569,7.0,0.0,part_2,go,450.0,450.0,1.0,,,,,,,,,green,flipped triangle
0.0,8.0,4.0,1.0,6.0,6.0,508.8946690011653,7.0,0.0,part_2,stop,450.0,450.0,3.0,,,,,,,,,blue,circle
0.0,7.0,3.0,1.0,5.0,5.0,876.4200250006979,7.0,0.0,part_2,go,450.0,400.0,1.0,,,,,,,,,orange,square
0.0,5.0,1.0,1.0,5.0,0.0,0.0,7.0,0.0,part_2,stop,450.0,400.0,4.0,,,,,,,,,magenta,triangle
0.0,7.0,3.0,1.0,6.0,6.0,492.0805100009602,7.0,0.0,part_2,stop,500.0,400.0,3.0,,,,,,,,,orange,square
0.0,8.0,4.0,1.0,5.0,5.0,614.5899559996906,7.0,0.0,part_2,go,500.0,350.0,1.0,,,,,,,,,blue,circle
0.0,7.0,3.0,1.0,5.0,5.0,583.9204580006481,7.0,0.0,part_2,stop,500.0,350.0,3.0,,,,,,,,,orange,square
0.0,5.0,1.0,1.0,6.0,0.0,0.0,7.0,0.0,part_2,stop,450.0,350.0,4.0,,,,,,,,,magenta,triangle
0.0,2.0,2.0,0.0,6.0,6.0,420.7063680005376,7.0,0.0,part_2,go,450.0,400.0,1.0,,,,,,,,,green,flipped triangle
0.0,2.0,2.0,0.0,5.0,5.0,662.7603960005217,7.0,0.0,part_2,go,450.0,400.0,1.0,,,,,,,,,green,flipped triangle
0.0,8.0,4.0,1.0,5.0,0.0,0.0,7.0,0.0,part_2,stop,450.0,400.0,4.0,,,,,,,,,blue,circle
0.0,3.0,3.0,0.0,5.0,5.0,644.261170997197,7.0,0.0,part_2,go,500.0,400.0,1.0,,,,,,,,,gray,I
0.0,8.0,4.0,1.0,5.0,5.0,558.1808440001623,8.0,0.0,part_2,stop,500.0,400.0,3.0,,,,,,,,,blue,circle
0.0,6.0,2.0,1.0,5.0,0.0,0.0,8.0,0.0,part_2,stop,450.0,400.0,4.0,,,,,,,,,cyan,hexagon
0.0,6.0,2.0,1.0,6.0,6.0,428.4200680012873,8.0,0.0,part_2,go,500.0,400.0,1.0,,,,,,,,,cyan,hexagon
0.0,5.0,1.0,1.0,6.0,0.0,0.0,8.0,0.0,part_2,stop,500.0,400.0,4.0,,,,,,,,,magenta,triangle
0.0,2.0,2.0,0.0,6.0,6.0,567.1460000012303,8.0,0.0,part_2,go,500.0,450.0,1.0,,,,,,,,,green,flipped triangle
0.0,3.0,3.0,0.0,6.0,6.0,595.2853519993369,8.0,0.0,part_2,go,500.0,450.0,1.0,,,,,,,,,gray,I
0.0,3.0,3.0,0.0,5.0,5.0,567.4777459971665,8.0,0.0,part_2,go,500.0,450.0,1.0,,,,,,,,,gray,I
0.0,3.0,3.0,0.0,5.0,5.0,622.2652530013875,8.0,0.0,part_2,go,500.0,450.0,1.0,,,,,,,,,gray,I
0.0,7.0,3.0,1.0,6.0,0.0,0.0,8.0,0.0,part_2,stop,500.0,450.0,4.0,,,,,,,,,orange,square
0.0,1.0,1.0,0.0,6.0,6.0,643.177782996645,8.0,0.0,part_2,go,500.0,500.0,1.0,,,,,,,,,white,diamond
0.0,7.0,3.0,1.0,6.0,0.0,0.0,8.0,0.0,part_2,stop,500.0,500.0,4.0,,,,,,,,,orange,square
0.0,1.0,1.0,0.0,5.0,5.0,521.6044419976242,8.0,0.0,part_2,go,500.0,550.0,1.0,,,,,,,,,white,diamond
0.0,4.0,4.0,0.0,6.0,6.0,382.1273469984589,8.0,0.0,part_2,go,500.0,550.0,1.0,,,,,,,,,yellow,cross
0.0,4.0,4.0,0.0,5.0,5.0,550.3526559987222,8.0,0.0,part_2,go,500.0,550.0,1.0,,,,,,,,,yellow,cross
0.0,7.0,3.0,1.0,6.0,6.0,748.8847189997614,8.0,0.0,part_2,stop,500.0,550.0,3.0,,,,,,,,,orange,square
0.0,5.0,1.0,1.0,6.0,6.0,625.3587789979065,8.0,0.0,part_2,stop,500.0,500.0,3.0,,,,,,,,,magenta,triangle
0.0,2.0,2.0,0.0,6.0,6.0,772.7451770006155,8.0,0.0,part_2,go,500.0,450.0,1.0,,,,,,,,,green,flipped triangle
0.0,8.0,4.0,1.0,6.0,6.0,623.9331709984981,8.0,0.0,part_2,stop,500.0,450.0,3.0,,,,,,,,,blue,circle
0.0,7.0,3.0,1.0,5.0,5.0,642.6797120002448,8.0,0.0,part_2,stop,500.0,400.0,3.0,,,,,,,,,orange,square
0.0,1.0,1.0,0.0,6.0,6.0,631.2742160007474,8.0,0.0,part_2,go,450.0,400.0,1.0,,,,,,,,,white,diamond
0.0,5.0,1.0,1.0,5.0,0.0,0.0,8.0,0.0,part_2,stop,450.0,400.0,4.0,,,,,,,,,magenta,triangle
0.0,2.0,2.0,0.0,5.0,5.0,607.7349490005872,8.0,0.0,part_2,go,500.0,400.0,1.0,,,,,,,,,green,flipped triangle
0.0,5.0,1.0,1.0,6.0,0.0,0.0,8.0,0.0,part_2,stop,500.0,400.0,4.0,,,,,,,,,magenta,triangle
0.0,4.0,4.0,0.0,6.0,6.0,551.0401819992694,8.0,0.0,part_2,go,500.0,450.0,1.0,,,,,,,,,yellow,cross
0.0,6.0,2.0,1.0,6.0,6.0,596.4084330007609,8.0,0.0,part_2,go,500.0,450.0,1.0,,,,,,,,,cyan,hexagon
0.0,6.0,2.0,1.0,6.0,6.0,624.9607099998684,8.0,0.0,part_2,go,500.0,450.0,1.0,,,,,,,,,cyan,hexagon
0.0,5.0,1.0,1.0,5.0,5.0,1042.3632679994626,8.0,0.0,part_2,go,500.0,450.0,1.0,,,,,,,,,magenta,triangle
0.0,8.0,4.0,1.0,5.0,0.0,0.0,8.0,0.0,part_2,stop,500.0,450.0,4.0,,,,,,,,,blue,circle
0.0,1.0,1.0,0.0,6.0,6.0,605.4205059990636,8.0,0.0,part_2,go,550.0,450.0,1.0,,,,,,,,,white,diamond
0.0,6.0,2.0,1.0,6.0,0.0,0.0,8.0,0.0,part_2,stop,550.0,450.0,4.0,,,,,,,,,cyan,hexagon
0.0,8.0,4.0,1.0,5.0,5.0,556.8910539986973,8.0,0.0,part_2,go,550.0,500.0,1.0,,,,,,,,,blue,circle
0.0,4.0,4.0,0.0,6.0,6.0,493.3390439982759,8.0,0.0,part_2,go,550.0,500.0,1.0,,,,,,,,,yellow,cross
0.0,3.0,3.0,0.0,6.0,6.0,448.2128140007262,8.0,0.0,part_2,go,550.0,500.0,1.0,,,,,,,,,gray,I
0.0,5.0,1.0,1.0,6.0,0.0,0.0,8.0,0.0,part_2,stop,550.0,500.0,4.0,,,,,,,,,magenta,triangle
0.0,8.0,4.0,1.0,5.0,5.0,588.5482340017916,8.0,0.0,part_2,stop,550.0,550.0,3.0,,,,,,,,,blue,circle
0.0,7.0,3.0,1.0,5.0,5.0,485.5949940028949,8.0,0.0,part_2,stop,500.0,550.0,3.0,,,,,,,,,orange,square
0.0,3.0,3.0,0.0,7.0,5.0,2952.4897060000512,1.0,1.0,part_3,go,0.0,0.0,0.0,580.0,5.0,116.0,348.0,232.0,696.0,580.0,464.0,gray,I
0.0,5.0,1.0,1.0,7.0,1.0,2664.8314200028835,1.0,1.0,part_3,go,0.0,0.0,0.0,464.0,4.0,464.0,116.0,232.0,348.0,580.0,696.0,magenta,triangle
0.0,6.0,2.0,1.0,7.0,4.0,2408.9614169970446,1.0,1.0,part_3,go,0.0,0.0,0.0,384.0,2.0,768.0,192.0,576.0,384.0,1152.0,960.0,cyan,hexagon
0.0,8.0,4.0,1.0,7.0,3.0,1332.0245430004434,1.0,1.0,part_3,go,0.0,0.0,0.0,810.0,6.0,270.0,405.0,810.0,675.0,135.0,540.0,blue,circle
0.0,3.0,3.0,0.0,7.0,1.0,1784.1254390004906,1.0,1.0,part_3,go,0.0,0.0,0.0,540.0,4.0,540.0,270.0,675.0,810.0,405.0,135.0,gray,I
0.0,8.0,4.0,1.0,7.0,4.0,1475.7167239986302,1.0,1.0,part_3,go,0.0,0.0,0.0,960.0,5.0,576.0,768.0,1152.0,960.0,192.0,384.0,blue,circle
0.0,2.0,2.0,0.0,7.0,6.0,1519.1568619993632,1.0,1.0,part_3,go,0.0,0.0,0.0,519.0,3.0,692.0,346.0,173.0,1038.0,865.0,519.0,green,flipped triangle
0.0,5.0,1.0,1.0,7.0,2.0,1725.22728200056,1.0,1.0,part_3,go,0.0,0.0,0.0,692.0,4.0,865.0,692.0,173.0,1038.0,346.0,519.0,magenta,triangle
0.0,5.0,1.0,1.0,7.0,6.0,1695.0712310026574,1.0,1.0,part_3,go,0.0,0.0,0.0,770.0,5.0,308.0,462.0,924.0,616.0,154.0,770.0,magenta,triangle
0.0,7.0,3.0,1.0,7.0,2.0,1702.2033059984096,1.0,1.0,part_3,go,0.0,0.0,0.0,924.0,6.0,462.0,924.0,308.0,770.0,616.0,154.0,orange,square
0.0,7.0,3.0,1.0,7.0,4.0,1471.805134002352,1.0,1.0,part_3,go,0.0,0.0,0.0,960.0,5.0,384.0,1152.0,768.0,960.0,576.0,192.0,orange,square
0.0,5.0,1.0,1.0,7.0,5.0,2246.1430789990122,1.0,1.0,part_3,go,0.0,0.0,0.0,692.0,4.0,1038.0,346.0,519.0,173.0,692.0,865.0,magenta,triangle
0.0,3.0,3.0,0.0,7.0,4.0,2017.725697998685,1.0,1.0,part_3,go,0.0,0.0,0.0,346.0,2.0,1038.0,173.0,692.0,346.0,865.0,519.0,gray,I
0.0,6.0,2.0,1.0,7.0,5.0,1298.6460799984345,1.0,1.0,part_3,go,0.0,0.0,0.0,768.0,4.0,576.0,1152.0,384.0,960.0,768.0,192.0,cyan,hexagon
0.0,6.0,2.0,1.0,7.0,1.0,2193.8569449994247,1.0,1.0,part_3,go,0.0,0.0,0.0,865.0,5.0,865.0,1038.0,173.0,519.0,692.0,346.0,cyan,hexagon
0.0,6.0,2.0,1.0,7.0,5.0,2534.760159000143,1.0,1.0,part_3,go,0.0,0.0,0.0,924.0,6.0,770.0,154.0,462.0,616.0,924.0,308.0,cyan,hexagon
0.0,3.0,3.0,0.0,7.0,2.0,1276.249292997818,1.0,1.0,part_3,go,0.0,0.0,0.0,464.0,4.0,580.0,464.0,696.0,232.0,348.0,116.0,gray,I
0.0,4.0,4.0,0.0,7.0,4.0,2343.3113939972827,1.0,1.0,part_3,go,0.0,0.0,0.0,1038.0,6.0,173.0,519.0,692.0,1038.0,346.0,865.0,yellow,cross
0.0,6.0,2.0,1.0,7.0,5.0,1832.0364479986893,1.0,1.0,part_3,go,0.0,0.0,0.0,770.0,5.0,924.0,154.0,308.0,616.0,770.0,462.0,cyan,hexagon
0.0,4.0,4.0,0.0,7.0,5.0,3428.421487002197,1.0,1.0,part_3,go,0.0,0.0,0.0,696.0,6.0,232.0,580.0,116.0,464.0,696.0,348.0,yellow,cross
0.0,7.0,3.0,1.0,7.0,3.0,1064.938052000798,2.0,1.0,part_3,go,0.0,0.0,0.0,675.0,5.0,810.0,270.0,675.0,540.0,405.0,135.0,orange,square
0.0,7.0,3.0,1.0,7.0,1.0,1241.0215240015532,2.0,1.0,part_3,go,0.0,0.0,0.0,696.0,6.0,696.0,116.0,348.0,464.0,580.0,232.0,orange,square
0.0,1.0,1.0,0.0,7.0,5.0,1873.751274000824,2.0,1.0,part_3,go,0.0,0.0,0.0,1152.0,6.0,384.0,576.0,960.0,768.0,1152.0,192.0,white,diamond
0.0,5.0,1.0,1.0,7.0,2.0,1194.98213100087,2.0,1.0,part_3,go,0.0,0.0,0.0,675.0,5.0,810.0,675.0,135.0,405.0,270.0,540.0,magenta,triangle
0.0,6.0,2.0,1.0,7.0,3.0,1119.1637179981626,2.0,1.0,part_3,go,0.0,0.0,0.0,405.0,3.0,270.0,810.0,405.0,135.0,675.0,540.0,cyan,hexagon
0.0,5.0,1.0,1.0,7.0,6.0,851.3898050005082,2.0,1.0,part_3,go,0.0,0.0,0.0,770.0,5.0,924.0,462.0,308.0,154.0,616.0,770.0,magenta,triangle
0.0,5.0,1.0,1.0,7.0,3.0,1203.663967000466,2.0,1.0,part_3,go,0.0,0.0,0.0,768.0,4.0,1152.0,192.0,768.0,960.0,384.0,576.0,magenta,triangle
0.0,1.0,1.0,0.0,7.0,2.0,1075.0512830018124,2.0,1.0,part_3,go,0.0,0.0,0.0,810.0,6.0,540.0,810.0,135.0,405.0,675.0,270.0,white,diamond
0.0,3.0,3.0,0.0,7.0,1.0,778.2166950019018,2.0,1.0,part_3,go,0.0,0.0,0.0,308.0,2.0,308.0,154.0,770.0,616.0,462.0,924.0,gray,I
0.0,2.0,2.0,0.0,7.0,6.0,1138.7167780012533,2.0,1.0,part_3,go,0.0,0.0,0.0,768.0,4.0,1152.0,192.0,576.0,960.0,384.0,768.0,green,flipped triangle
0.0,6.0,2.0,1.0,7.0,3.0,1431.7147710025893,2.0,1.0,part_3,go,0.0,0.0,0.0,696.0,6.0,464.0,116.0,696.0,348.0,232.0,580.0,cyan,hexagon
0.0,4.0,4.0,0.0,7.0,3.0,952.4898509989724,2.0,1.0,part_3,go,0.0,0.0,0.0,810.0,6.0,405.0,675.0,810.0,540.0,135.0,270.0,yellow,cross
0.0,8.0,4.0,1.0,7.0,2.0,1447.0946220026235,2.0,1.0,part_3,go,0.0,0.0,0.0,576.0,3.0,384.0,576.0,960.0,1152.0,768.0,192.0,blue,circle
0.0,1.0,1.0,0.0,7.0,5.0,1143.304633002117,2.0,1.0,part_3,go,0.0,0.0,0.0,768.0,4.0,1152.0,960.0,384.0,192.0,768.0,576.0,white,diamond
0.0,3.0,3.0,0.0,7.0,6.0,1829.0787389996697,2.0,1.0,part_3,go,0.0,0.0,0.0,384.0,2.0,192.0,768.0,960.0,576.0,1152.0,384.0,gray,I
0.0,5.0,1.0,1.0,7.0,2.0,667.4731559978682,2.0,1.0,part_3,go,0.0,0.0,0.0,810.0,6.0,675.0,810.0,270.0,135.0,405.0,540.0,magenta,triangle
0.0,4.0,4.0,0.0,7.0,2.0,1369.085549998999,2.0,1.0,part_3,go,0.0,0.0,0.0,696.0,6.0,116.0,696.0,232.0,464.0,580.0,348.0,yellow,cross
0.0,4.0,4.0,0.0,7.0,5.0,2271.9019910000497,2.0,1.0,part_3,go,0.0,0.0,0.0,768.0,4.0,384.0,1152.0,576.0,960.0,768.0,192.0,yellow,cross
0.0,3.0,3.0,0.0,7.0,3.0,2151.667098998587,2.0,1.0,part_3,go,0.0,0.0,0.0,576.0,3.0,1152.0,960.0,576.0,192.0,384.0,768.0,gray,I
0.0,4.0,4.0,0.0,7.0,6.0,1455.3594270000758,2.0,1.0,part_3,go,0.0,0.0,0.0,462.0,3.0,154.0,616.0,308.0,924.0,770.0,462.0,yellow,cross
0.0,2.0,2.0,0.0,7.0,5.0,1568.6463320016628,3.0,1.0,part_3,go,0.0,0.0,0.0,135.0,1.0,270.0,810.0,675.0,540.0,135.0,405.0,green,flipped triangle
0.0,1.0,1.0,0.0,7.0,1.0,1097.0657170000775,3.0,1.0,part_3,go,0.0,0.0,0.0,348.0,3.0,348.0,464.0,580.0,232.0,696.0,116.0,white,diamond
0.0,1.0,1.0,0.0,7.0,2.0,799.8619999998482,3.0,1.0,part_3,go,0.0,0.0,0.0,519.0,3.0,346.0,519.0,865.0,1038.0,173.0,692.0,white,diamond
0.0,3.0,3.0,0.0,7.0,5.0,1651.0706279987062,3.0,1.0,part_3,go,0.0,0.0,0.0,346.0,2.0,865.0,692.0,173.0,1038.0,346.0,519.0,gray,I
0.0,7.0,3.0,1.0,7.0,3.0,1341.572332999931,3.0,1.0,part_3,go,0.0,0.0,0.0,865.0,5.0,173.0,692.0,865.0,1038.0,346.0,519.0,orange,square
0.0,8.0,4.0,1.0,7.0,5.0,1288.3631289987534,3.0,1.0,part_3,go,0.0,0.0,0.0,462.0,3.0,924.0,154.0,616.0,770.0,462.0,308.0,blue,circle
0.0,5.0,1.0,1.0,7.0,3.0,1419.2475780000675,3.0,1.0,part_3,go,0.0,0.0,0.0,580.0,5.0,232.0,116.0,580.0,464.0,348.0,696.0,magenta,triangle
0.0,8.0,4.0,1.0,7.0,2.0,1481.4802380024048,3.0,1.0,part_3,go,0.0,0.0,0.0,865.0,5.0,346.0,865.0,692.0,173.0,1038.0,519.0,blue,circle
0.0,1.0,1.0,0.0,7.0,6.0,1212.3618550031097,3.0,1.0,part_3,go,0.0,0.0,0.0,810.0,6.0,270.0,540.0,135.0,405.0,675.0,810.0,white,diamond
0.0,4.0,4.0,0.0,7.0,1.0,924.858647002111,3.0,1.0,part_3,go,0.0,0.0,0.0,519.0,3.0,519.0,692.0,865.0,173.0,346.0,1038.0,yellow,cross
0.0,4.0,4.0,0.0,7.0,1.0,1445.8840490005969,3.0,1.0,part_3,go,0.0,0.0,0.0,616.0,4.0,616.0,462.0,154.0,770.0,924.0,308.0,yellow,cross
0.0,6.0,2.0,1.0,7.0,2.0,1936.502055003075,3.0,1.0,part_3,go,0.0,0.0,0.0,675.0,5.0,270.0,675.0,135.0,810.0,540.0,405.0,cyan,hexagon
0.0,8.0,4.0,1.0,7.0,1.0,1222.2113529969647,3.0,1.0,part_3,go,0.0,0.0,0.0,462.0,3.0,462.0,770.0,924.0,616.0,154.0,308.0,blue,circle
0.0,4.0,4.0,0.0,7.0,4.0,1574.8854470002698,3.0,1.0,part_3,go,0.0,0.0,0.0,540.0,4.0,810.0,675.0,270.0,540.0,135.0,405.0,yellow,cross
0.0,2.0,2.0,0.0,7.0,2.0,1122.4446070009435,3.0,1.0,part_3,go,0.0,0.0,0.0,346.0,2.0,173.0,346.0,519.0,692.0,865.0,1038.0,green,flipped triangle
0.0,2.0,2.0,0.0,7.0,4.0,1740.282805996685,3.0,1.0,part_3,go,0.0,0.0,0.0,576.0,3.0,384.0,192.0,1152.0,576.0,768.0,960.0,green,flipped triangle
0.0,8.0,4.0,1.0,7.0,5.0,639.3966769974213,3.0,1.0,part_3,go,0.0,0.0,0.0,348.0,3.0,696.0,464.0,116.0,580.0,348.0,232.0,blue,circle
0.0,1.0,1.0,0.0,7.0,3.0,2529.295309999725,3.0,1.0,part_3,go,0.0,0.0,0.0,924.0,6.0,616.0,462.0,924.0,154.0,308.0,770.0,white,diamond
0.0,6.0,2.0,1.0,7.0,2.0,1943.68731600116,3.0,1.0,part_3,go,0.0,0.0,0.0,692.0,4.0,519.0,692.0,1038.0,865.0,173.0,346.0,cyan,hexagon
0.0,6.0,2.0,1.0,7.0,2.0,638.986671998282,3.0,1.0,part_3,go,0.0,0.0,0.0,696.0,6.0,116.0,696.0,580.0,464.0,232.0,348.0,cyan,hexagon
0.0,4.0,4.0,0.0,7.0,3.0,2045.1938070000324,4.0,1.0,part_3,go,0.0,0.0,0.0,768.0,4.0,1152.0,384.0,768.0,576.0,960.0,192.0,yellow,cross
0.0,1.0,1.0,0.0,7.0,5.0,1296.1639569984982,4.0,1.0,part_3,go,0.0,0.0,0.0,116.0,1.0,464.0,232.0,348.0,696.0,116.0,580.0,white,diamond
0.0,2.0,2.0,0.0,7.0,3.0,906.07049800019,4.0,1.0,part_3,go,0.0,0.0,0.0,696.0,6.0,116.0,348.0,696.0,464.0,232.0,580.0,green,flipped triangle
0.0,2.0,2.0,0.0,7.0,4.0,1560.9295760004898,4.0,1.0,part_3,go,0.0,0.0,0.0,616.0,4.0,462.0,308.0,924.0,616.0,154.0,770.0,green,flipped triangle
0.0,7.0,3.0,1.0,7.0,2.0,1202.9188999986218,4.0,1.0,part_3,go,0.0,0.0,0.0,270.0,2.0,810.0,270.0,675.0,540.0,135.0,405.0,orange,square
0.0,2.0,2.0,0.0,7.0,2.0,2172.704838001664,4.0,1.0,part_3,go,0.0,0.0,0.0,675.0,5.0,405.0,675.0,270.0,810.0,135.0,540.0,green,flipped triangle
0.0,2.0,2.0,0.0,7.0,2.0,1470.9042709982896,4.0,1.0,part_3,go,0.0,0.0,0.0,580.0,5.0,116.0,580.0,464.0,348.0,696.0,232.0,green,flipped triangle
0.0,8.0,4.0,1.0,7.0,2.0,2004.6652160017402,4.0,1.0,part_3,go,0.0,0.0,0.0,346.0,2.0,692.0,346.0,173.0,1038.0,865.0,519.0,blue,circle
0.0,5.0,1.0,1.0,7.0,6.0,1453.2228509997367,4.0,1.0,part_3,go,0.0,0.0,0.0,384.0,2.0,768.0,960.0,1152.0,576.0,192.0,384.0,magenta,triangle
0.0,7.0,3.0,1.0,7.0,1.0,1074.749626000994,4.0,1.0,part_3,go,0.0,0.0,0.0,462.0,3.0,462.0,770.0,154.0,308.0,924.0,616.0,orange,square
0.0,7.0,3.0,1.0,7.0,5.0,1137.895091000246,4.0,1.0,part_3,go,0.0,0.0,0.0,464.0,4.0,580.0,116.0,348.0,232.0,464.0,696.0,orange,square
0.0,2.0,2.0,0.0,7.0,2.0,1196.1978069994077,4.0,1.0,part_3,go,0.0,0.0,0.0,924.0,6.0,308.0,924.0,770.0,462.0,616.0,154.0,green,flipped triangle
0.0,1.0,1.0,0.0,7.0,4.0,1703.5003050004889,4.0,1.0,part_3,go,0.0,0.0,0.0,462.0,3.0,616.0,154.0,308.0,462.0,924.0,770.0,white,diamond
0.0,7.0,3.0,1.0,7.0,3.0,1365.0464990023463,4.0,1.0,part_3,go,0.0,0.0,0.0,768.0,4.0,1152.0,384.0,768.0,192.0,960.0,576.0,orange,square
0.0,3.0,3.0,0.0,7.0,1.0,1199.672286998975,4.0,1.0,part_3,go,0.0,0.0,0.0,308.0,2.0,308.0,462.0,616.0,770.0,924.0,154.0,gray,I
0.0,7.0,3.0,1.0,7.0,5.0,729.480746002082,4.0,1.0,part_3,go,0.0,0.0,0.0,519.0,3.0,346.0,865.0,173.0,692.0,519.0,1038.0,orange,square
0.0,3.0,3.0,0.0,7.0,1.0,1626.4124189983704,4.0,1.0,part_3,go,0.0,0.0,0.0,270.0,2.0,270.0,810.0,135.0,675.0,405.0,540.0,gray,I
0.0,8.0,4.0,1.0,7.0,6.0,1376.7195729997184,4.0,1.0,part_3,go,0.0,0.0,0.0,405.0,3.0,675.0,135.0,270.0,540.0,810.0,405.0,blue,circle
0.0,1.0,1.0,0.0,7.0,1.0,1864.508616999956,4.0,1.0,part_3,go,0.0,0.0,0.0,692.0,4.0,692.0,1038.0,519.0,173.0,346.0,865.0,white,diamond
0.0,8.0,4.0,1.0,7.0,4.0,1442.831293999916,4.0,1.0,part_3,go,0.0,0.0,0.0,696.0,6.0,464.0,232.0,580.0,696.0,348.0,116.0,blue,circle
