raw_reward_magnitude,stim_reward,stepwise_reward_magnitude,paired_with_stopping,quadrant,response,reaction_time,block,num_trial_presentations,which_part,stop_signal_trial_type,left_SSD,right_SSD,accuracy,chosen_bidding_amount,chosen_bidding_level,possible_bid_1,possible_bid_2,possible_bid_3,possible_bid_4,possible_bid_5,possible_bid_6,color_text,shape_text
660.0,7.0,3.0,1.0,1.0,1.0,631.2701809999908,1.0,1.0,part_1,,,,,,,,,,,,,cyan,circle
649.0,7.0,3.0,1.0,4.0,4.0,527.6730450000287,1.0,1.0,part_1,,,,,,,,,,,,,cyan,circle
304.0,6.0,2.0,1.0,2.0,2.0,473.4078709999494,1.0,1.0,part_1,,,,,,,,,,,,,green,hexagon
0.0,4.0,0.0,0.0,3.0,3.0,393.1206259999271,1.0,1.0,part_1,,,,,,,,,,,,,gray,I
0.0,2.0,0.0,0.0,3.0,3.0,408.3879219999744,1.0,1.0,part_1,,,,,,,,,,,,,blue,square
1277.0,8.0,4.0,1.0,4.0,4.0,481.5910959999883,1.0,1.0,part_1,,,,,,,,,,,,,magenta,flipped triangle
185.0,5.0,1.0,1.0,1.0,1.0,556.1382629999798,1.0,1.0,part_1,,,,,,,,,,,,,yellow,triangle
149.0,5.0,1.0,1.0,2.0,2.0,572.2713790000853,1.0,1.0,part_1,,,,,,,,,,,,,yellow,triangle
1280.0,8.0,4.0,1.0,2.0,2.0,511.4461799998935,1.0,1.0,part_1,,,,,,,,,,,,,magenta,flipped triangle
665.0,3.0,3.0,0.0,3.0,3.0,517.9026260000228,1.0,1.0,part_1,,,,,,,,,,,,,orange,diamond
339.0,2.0,2.0,0.0,1.0,1.0,417.3617000000149,1.0,1.0,part_1,,,,,,,,,,,,,blue,square
172.0,1.0,1.0,0.0,4.0,4.0,462.8611990000308,1.0,1.0,part_1,,,,,,,,,,,,,white,cross
148.0,5.0,1.0,1.0,4.0,4.0,370.2578479999374,1.0,1.0,part_1,,,,,,,,,,,,,yellow,triangle
1300.0,4.0,4.0,0.0,2.0,2.0,371.5597259999867,1.0,1.0,part_1,,,,,,,,,,,,,gray,I
1323.0,8.0,4.0,1.0,2.0,2.0,461.6566699999112,1.0,1.0,part_1,,,,,,,,,,,,,magenta,flipped triangle
0.0,2.0,0.0,0.0,3.0,3.0,415.8475970000381,1.0,1.0,part_1,,,,,,,,,,,,,blue,square
0.0,1.0,0.0,0.0,2.0,2.0,388.1676699999161,1.0,1.0,part_1,,,,,,,,,,,,,white,cross
139.0,1.0,1.0,0.0,4.0,4.0,481.0577419999617,1.0,1.0,part_1,,,,,,,,,,,,,white,cross
1316.0,4.0,4.0,0.0,3.0,3.0,370.2596839999614,1.0,1.0,part_1,,,,,,,,,,,,,gray,I
139.0,5.0,1.0,1.0,2.0,2.0,528.7805529999332,1.0,1.0,part_1,,,,,,,,,,,,,yellow,triangle
186.0,1.0,1.0,0.0,1.0,1.0,344.4449250000616,1.0,1.0,part_1,,,,,,,,,,,,,white,cross
1309.0,8.0,4.0,1.0,1.0,1.0,362.2658880000244,1.0,1.0,part_1,,,,,,,,,,,,,magenta,flipped triangle
0.0,8.0,0.0,1.0,1.0,1.0,545.6561400000055,1.0,1.0,part_1,,,,,,,,,,,,,magenta,flipped triangle
339.0,6.0,2.0,1.0,1.0,1.0,360.3675440000415,1.0,1.0,part_1,,,,,,,,,,,,,green,hexagon
0.0,4.0,0.0,0.0,1.0,1.0,390.9219529999745,1.0,2.0,part_1,,,,,,,,,,,,,gray,I
321.0,2.0,2.0,0.0,1.0,1.0,370.4279249999445,1.0,1.0,part_1,,,,,,,,,,,,,blue,square
639.0,3.0,3.0,0.0,3.0,3.0,436.6295030000628,1.0,1.0,part_1,,,,,,,,,,,,,orange,diamond
0.0,3.0,0.0,0.0,4.0,4.0,583.8469280000709,1.0,1.0,part_1,,,,,,,,,,,,,orange,diamond
1299.0,4.0,4.0,0.0,4.0,4.0,435.8710149999751,1.0,1.0,part_1,,,,,,,,,,,,,gray,I
181.0,1.0,1.0,0.0,2.0,2.0,435.5467010000211,1.0,1.0,part_1,,,,,,,,,,,,,white,cross
146.0,5.0,1.0,1.0,3.0,3.0,391.3592600000584,1.0,1.0,part_1,,,,,,,,,,,,,yellow,triangle
185.0,1.0,1.0,0.0,2.0,2.0,584.4900810000127,1.0,1.0,part_1,,,,,,,,,,,,,white,cross
146.0,5.0,1.0,1.0,1.0,1.0,593.8005099999373,1.0,1.0,part_1,,,,,,,,,,,,,yellow,triangle
0.0,5.0,0.0,1.0,3.0,3.0,527.3041980000244,1.0,1.0,part_1,,,,,,,,,,,,,yellow,triangle
653.0,3.0,3.0,0.0,1.0,1.0,390.2912359999391,1.0,1.0,part_1,,,,,,,,,,,,,orange,diamond
320.0,6.0,2.0,1.0,4.0,4.0,436.3914870000371,1.0,1.0,part_1,,,,,,,,,,,,,green,hexagon
150.0,5.0,1.0,1.0,1.0,1.0,325.2891450000561,1.0,1.0,part_1,,,,,,,,,,,,,yellow,triangle
0.0,5.0,0.0,1.0,2.0,2.0,353.0806109999957,1.0,1.0,part_1,,,,,,,,,,,,,yellow,triangle
1293.0,4.0,4.0,0.0,1.0,1.0,657.8000570000313,1.0,1.0,part_1,,,,,,,,,,,,,gray,I
1298.0,8.0,4.0,1.0,3.0,3.0,380.4658359999848,1.0,1.0,part_1,,,,,,,,,,,,,magenta,flipped triangle
669.0,3.0,3.0,0.0,1.0,1.0,443.8950249999607,1.0,1.0,part_1,,,,,,,,,,,,,orange,diamond
627.0,7.0,3.0,1.0,1.0,1.0,453.6099460000287,1.0,1.0,part_1,,,,,,,,,,,,,cyan,circle
1323.0,4.0,4.0,0.0,4.0,4.0,399.0134439999337,1.0,1.0,part_1,,,,,,,,,,,,,gray,I
0.0,3.0,0.0,0.0,1.0,1.0,453.7819829999989,1.0,1.0,part_1,,,,,,,,,,,,,orange,diamond
0.0,4.0,0.0,0.0,2.0,2.0,306.1908390000099,1.0,1.0,part_1,,,,,,,,,,,,,gray,I
665.0,7.0,3.0,1.0,1.0,1.0,437.0682950000173,1.0,1.0,part_1,,,,,,,,,,,,,cyan,circle
137.0,5.0,1.0,1.0,1.0,1.0,528.9478839999902,1.0,1.0,part_1,,,,,,,,,,,,,yellow,triangle
343.0,2.0,2.0,0.0,4.0,4.0,573.6785349999991,1.0,1.0,part_1,,,,,,,,,,,,,blue,square
146.0,1.0,1.0,0.0,4.0,4.0,517.9542060000131,1.0,1.0,part_1,,,,,,,,,,,,,white,cross
314.0,6.0,2.0,1.0,3.0,3.0,427.1942209999224,1.0,1.0,part_1,,,,,,,,,,,,,green,hexagon
158.0,1.0,1.0,0.0,1.0,1.0,426.386473999969,1.0,1.0,part_1,,,,,,,,,,,,,white,cross
660.0,3.0,3.0,0.0,2.0,2.0,372.8959750000058,1.0,1.0,part_1,,,,,,,,,,,,,orange,diamond
309.0,6.0,2.0,1.0,2.0,2.0,592.8034969999771,1.0,1.0,part_1,,,,,,,,,,,,,green,hexagon
652.0,3.0,3.0,0.0,2.0,2.0,609.8110570000017,1.0,1.0,part_1,,,,,,,,,,,,,orange,diamond
326.0,6.0,2.0,1.0,4.0,4.0,630.4097270000284,1.0,1.0,part_1,,,,,,,,,,,,,green,hexagon
348.0,2.0,2.0,0.0,2.0,2.0,408.9653330000828,1.0,1.0,part_1,,,,,,,,,,,,,blue,square
0.0,7.0,0.0,1.0,1.0,1.0,482.2292919999427,1.0,1.0,part_1,,,,,,,,,,,,,cyan,circle
634.0,3.0,3.0,0.0,1.0,1.0,455.0121750000926,1.0,1.0,part_1,,,,,,,,,,,,,orange,diamond
627.0,3.0,3.0,0.0,1.0,1.0,332.8301039999815,1.0,1.0,part_1,,,,,,,,,,,,,orange,diamond
1280.0,4.0,4.0,0.0,4.0,4.0,536.7496890000893,1.0,1.0,part_1,,,,,,,,,,,,,gray,I
0.0,1.0,0.0,0.0,4.0,4.0,389.3835239999816,1.0,1.0,part_1,,,,,,,,,,,,,white,cross
172.0,1.0,1.0,0.0,2.0,2.0,408.1734930000493,1.0,1.0,part_1,,,,,,,,,,,,,white,cross
1322.0,4.0,4.0,0.0,3.0,3.0,428.9712070000178,1.0,1.0,part_1,,,,,,,,,,,,,gray,I
1303.0,4.0,4.0,0.0,2.0,2.0,418.7098480000486,1.0,1.0,part_1,,,,,,,,,,,,,gray,I
314.0,2.0,2.0,0.0,2.0,2.0,518.5525200000711,1.0,1.0,part_1,,,,,,,,,,,,,blue,square
327.0,6.0,2.0,1.0,2.0,2.0,370.6966350000584,1.0,1.0,part_1,,,,,,,,,,,,,green,hexagon
150.0,1.0,1.0,0.0,3.0,3.0,406.8592140000646,1.0,1.0,part_1,,,,,,,,,,,,,white,cross
152.0,5.0,1.0,1.0,3.0,3.0,370.3451879999875,1.0,1.0,part_1,,,,,,,,,,,,,yellow,triangle
0.0,5.0,0.0,1.0,3.0,3.0,332.6358250000112,1.0,1.0,part_1,,,,,,,,,,,,,yellow,triangle
301.0,2.0,2.0,0.0,4.0,4.0,528.509017000033,1.0,1.0,part_1,,,,,,,,,,,,,blue,square
0.0,7.0,0.0,1.0,1.0,1.0,352.5260019999905,1.0,1.0,part_1,,,,,,,,,,,,,cyan,circle
166.0,1.0,1.0,0.0,1.0,1.0,620.4122469999902,1.0,1.0,part_1,,,,,,,,,,,,,white,cross
340.0,6.0,2.0,1.0,4.0,4.0,454.0531549999969,1.0,1.0,part_1,,,,,,,,,,,,,green,hexagon
1276.0,4.0,4.0,0.0,2.0,2.0,649.1065379999554,1.0,1.0,part_1,,,,,,,,,,,,,gray,I
1319.0,8.0,4.0,1.0,1.0,1.0,714.3094790000077,1.0,1.0,part_1,,,,,,,,,,,,,magenta,flipped triangle
348.0,6.0,2.0,1.0,2.0,2.0,657.0124209999904,1.0,1.0,part_1,,,,,,,,,,,,,green,hexagon
648.0,7.0,3.0,1.0,2.0,2.0,452.6734260000467,1.0,1.0,part_1,,,,,,,,,,,,,cyan,circle
0.0,1.0,0.0,0.0,2.0,2.0,673.4841820000383,1.0,1.0,part_1,,,,,,,,,,,,,white,cross
656.0,7.0,3.0,1.0,4.0,4.0,627.4506700000302,1.0,1.0,part_1,,,,,,,,,,,,,cyan,circle
176.0,5.0,1.0,1.0,3.0,3.0,406.0077110000293,1.0,1.0,part_1,,,,,,,,,,,,,yellow,triangle
339.0,2.0,2.0,0.0,4.0,4.0,414.7405610000305,1.0,1.0,part_1,,,,,,,,,,,,,blue,square
1281.0,4.0,4.0,0.0,3.0,3.0,379.6629369999209,1.0,1.0,part_1,,,,,,,,,,,,,gray,I
1318.0,8.0,4.0,1.0,3.0,3.0,656.9078829999171,1.0,1.0,part_1,,,,,,,,,,,,,magenta,flipped triangle
1301.0,4.0,4.0,0.0,4.0,4.0,444.065495000018,1.0,1.0,part_1,,,,,,,,,,,,,gray,I
639.0,3.0,3.0,0.0,4.0,4.0,551.2452350000103,1.0,1.0,part_1,,,,,,,,,,,,,orange,diamond
149.0,1.0,1.0,0.0,3.0,3.0,454.0636269999822,1.0,1.0,part_1,,,,,,,,,,,,,white,cross
167.0,1.0,1.0,0.0,4.0,4.0,472.6674709999088,1.0,1.0,part_1,,,,,,,,,,,,,white,cross
305.0,6.0,2.0,1.0,3.0,3.0,415.7390269999723,1.0,1.0,part_1,,,,,,,,,,,,,green,hexagon
1293.0,8.0,4.0,1.0,4.0,4.0,407.5729359999513,1.0,2.0,part_1,,,,,,,,,,,,,magenta,flipped triangle
652.0,7.0,3.0,1.0,4.0,4.0,508.34950400007983,1.0,1.0,part_1,,,,,,,,,,,,,cyan,circle
1287.0,4.0,4.0,0.0,2.0,2.0,343.8405119999288,1.0,1.0,part_1,,,,,,,,,,,,,gray,I
175.0,5.0,1.0,1.0,3.0,3.0,472.2856180000008,1.0,1.0,part_1,,,,,,,,,,,,,yellow,triangle
639.0,7.0,3.0,1.0,3.0,3.0,344.0893570000298,1.0,1.0,part_1,,,,,,,,,,,,,cyan,circle
316.0,2.0,2.0,0.0,3.0,3.0,351.4201489999777,1.0,1.0,part_1,,,,,,,,,,,,,blue,square
1306.0,8.0,4.0,1.0,1.0,1.0,379.2532909999409,1.0,1.0,part_1,,,,,,,,,,,,,magenta,flipped triangle
334.0,6.0,2.0,1.0,4.0,4.0,423.7623669999948,1.0,1.0,part_1,,,,,,,,,,,,,green,hexagon
165.0,1.0,1.0,0.0,1.0,1.0,490.196931000014,1.0,2.0,part_1,,,,,,,,,,,,,white,cross
1301.0,8.0,4.0,1.0,2.0,2.0,434.0669519999665,1.0,1.0,part_1,,,,,,,,,,,,,magenta,flipped triangle
1315.0,4.0,4.0,0.0,1.0,1.0,472.0481189999645,1.0,1.0,part_1,,,,,,,,,,,,,gray,I
1309.0,4.0,4.0,0.0,1.0,1.0,388.91766500000807,1.0,1.0,part_1,,,,,,,,,,,,,gray,I
173.0,5.0,1.0,1.0,3.0,3.0,573.7912360000337,2.0,1.0,part_1,,,,,,,,,,,,,yellow,triangle
163.0,5.0,1.0,1.0,1.0,1.0,343.2392720000052,2.0,1.0,part_1,,,,,,,,,,,,,yellow,triangle
344.0,6.0,2.0,1.0,4.0,4.0,399.9158600000783,2.0,1.0,part_1,,,,,,,,,,,,,green,hexagon
0.0,3.0,0.0,0.0,2.0,2.0,388.9937659999987,2.0,1.0,part_1,,,,,,,,,,,,,orange,diamond
316.0,2.0,2.0,0.0,2.0,2.0,472.1770249999508,2.0,1.0,part_1,,,,,,,,,,,,,blue,square
0.0,4.0,0.0,0.0,1.0,1.0,556.6727369999853,2.0,1.0,part_1,,,,,,,,,,,,,gray,I
337.0,2.0,2.0,0.0,4.0,4.0,314.590517000056,2.0,1.0,part_1,,,,,,,,,,,,,blue,square
0.0,5.0,0.0,1.0,2.0,2.0,379.799491999961,2.0,1.0,part_1,,,,,,,,,,,,,yellow,triangle
160.0,1.0,1.0,0.0,1.0,1.0,489.9209569999811,2.0,1.0,part_1,,,,,,,,,,,,,white,cross
340.0,2.0,2.0,0.0,3.0,3.0,389.9316060000046,2.0,1.0,part_1,,,,,,,,,,,,,blue,square
628.0,3.0,3.0,0.0,1.0,1.0,463.3388439999635,2.0,1.0,part_1,,,,,,,,,,,,,orange,diamond
331.0,6.0,2.0,1.0,4.0,4.0,334.3836809999629,2.0,1.0,part_1,,,,,,,,,,,,,green,hexagon
1293.0,4.0,4.0,0.0,1.0,1.0,677.4842970000918,2.0,1.0,part_1,,,,,,,,,,,,,gray,I
653.0,7.0,3.0,1.0,4.0,4.0,462.7464679999775,2.0,1.0,part_1,,,,,,,,,,,,,cyan,circle
1309.0,4.0,4.0,0.0,2.0,2.0,563.1915260000824,2.0,1.0,part_1,,,,,,,,,,,,,gray,I
0.0,5.0,0.0,1.0,1.0,1.0,694.8390760001075,2.0,1.0,part_1,,,,,,,,,,,,,yellow,triangle
656.0,3.0,3.0,0.0,2.0,2.0,649.3081829999028,2.0,1.0,part_1,,,,,,,,,,,,,orange,diamond
658.0,7.0,3.0,1.0,3.0,3.0,519.6499520000089,2.0,1.0,part_1,,,,,,,,,,,,,cyan,circle
346.0,2.0,2.0,0.0,4.0,4.0,573.1376599999294,2.0,1.0,part_1,,,,,,,,,,,,,blue,square
1316.0,8.0,4.0,1.0,3.0,3.0,647.3725240000476,2.0,1.0,part_1,,,,,,,,,,,,,magenta,flipped triangle
0.0,6.0,0.0,1.0,4.0,4.0,546.4752779998889,2.0,1.0,part_1,,,,,,,,,,,,,green,hexagon
655.0,3.0,3.0,0.0,1.0,1.0,454.1899449998254,2.0,1.0,part_1,,,,,,,,,,,,,orange,diamond
655.0,7.0,3.0,1.0,3.0,3.0,434.3631890001234,2.0,1.0,part_1,,,,,,,,,,,,,cyan,circle
1288.0,4.0,4.0,0.0,2.0,2.0,397.3638630000096,2.0,1.0,part_1,,,,,,,,,,,,,gray,I
346.0,6.0,2.0,1.0,1.0,1.0,361.0315340001762,2.0,1.0,part_1,,,,,,,,,,,,,green,hexagon
658.0,7.0,3.0,1.0,3.0,3.0,397.2736660000464,2.0,1.0,part_1,,,,,,,,,,,,,cyan,circle
634.0,7.0,3.0,1.0,4.0,4.0,390.1951150000968,2.0,2.0,part_1,,,,,,,,,,,,,cyan,circle
0.0,5.0,0.0,1.0,2.0,2.0,583.9931150001121,2.0,1.0,part_1,,,,,,,,,,,,,yellow,triangle
0.0,3.0,0.0,0.0,2.0,2.0,351.9230649999372,2.0,1.0,part_1,,,,,,,,,,,,,orange,diamond
348.0,2.0,2.0,0.0,2.0,2.0,362.7301950000401,2.0,1.0,part_1,,,,,,,,,,,,,blue,square
1300.0,4.0,4.0,0.0,1.0,1.0,407.6675510000314,2.0,1.0,part_1,,,,,,,,,,,,,gray,I
0.0,3.0,0.0,0.0,1.0,1.0,397.7290159998574,2.0,1.0,part_1,,,,,,,,,,,,,orange,diamond
146.0,1.0,1.0,0.0,3.0,3.0,454.7917400000187,2.0,1.0,part_1,,,,,,,,,,,,,white,cross
1284.0,4.0,4.0,0.0,4.0,4.0,434.6734859998378,2.0,2.0,part_1,,,,,,,,,,,,,gray,I
1303.0,8.0,4.0,1.0,3.0,3.0,426.5408150001804,2.0,1.0,part_1,,,,,,,,,,,,,magenta,flipped triangle
1296.0,8.0,4.0,1.0,3.0,3.0,484.3578710001566,2.0,1.0,part_1,,,,,,,,,,,,,magenta,flipped triangle
1292.0,8.0,4.0,1.0,1.0,1.0,612.4924030000329,2.0,1.0,part_1,,,,,,,,,,,,,magenta,flipped triangle
672.0,3.0,3.0,0.0,4.0,4.0,521.9900590000179,2.0,1.0,part_1,,,,,,,,,,,,,orange,diamond
669.0,3.0,3.0,0.0,3.0,3.0,389.740146999884,2.0,1.0,part_1,,,,,,,,,,,,,orange,diamond
1313.0,4.0,4.0,0.0,3.0,3.0,407.9180399999131,2.0,1.0,part_1,,,,,,,,,,,,,gray,I
165.0,5.0,1.0,1.0,2.0,2.0,379.9897270000656,2.0,1.0,part_1,,,,,,,,,,,,,yellow,triangle
0.0,7.0,0.0,1.0,1.0,1.0,593.4408760001588,2.0,1.0,part_1,,,,,,,,,,,,,cyan,circle
0.0,6.0,0.0,1.0,3.0,3.0,582.5324800000544,2.0,1.0,part_1,,,,,,,,,,,,,green,hexagon
329.0,6.0,2.0,1.0,4.0,4.0,371.643382000002,2.0,2.0,part_1,,,,,,,,,,,,,green,hexagon
150.0,5.0,1.0,1.0,3.0,3.0,354.817120000007,2.0,1.0,part_1,,,,,,,,,,,,,yellow,triangle
1282.0,8.0,4.0,1.0,4.0,4.0,371.5030420000857,2.0,1.0,part_1,,,,,,,,,,,,,magenta,flipped triangle
635.0,7.0,3.0,1.0,4.0,4.0,436.1951099999714,2.0,1.0,part_1,,,,,,,,,,,,,cyan,circle
0.0,4.0,0.0,0.0,3.0,3.0,350.8728619999601,2.0,1.0,part_1,,,,,,,,,,,,,gray,I
175.0,1.0,1.0,0.0,4.0,4.0,325.5855320001046,2.0,1.0,part_1,,,,,,,,,,,,,white,cross
333.0,2.0,2.0,0.0,1.0,1.0,397.6381719999153,2.0,1.0,part_1,,,,,,,,,,,,,blue,square
0.0,1.0,0.0,0.0,2.0,2.0,378.6978339999223,2.0,1.0,part_1,,,,,,,,,,,,,white,cross
1306.0,4.0,4.0,0.0,1.0,1.0,582.9201429999102,2.0,1.0,part_1,,,,,,,,,,,,,gray,I
1287.0,8.0,4.0,1.0,4.0,4.0,788.5808720000114,2.0,1.0,part_1,,,,,,,,,,,,,magenta,flipped triangle
146.0,5.0,1.0,1.0,4.0,4.0,766.1024320000251,2.0,1.0,part_1,,,,,,,,,,,,,yellow,triangle
653.0,7.0,3.0,1.0,3.0,3.0,475.0296849999813,2.0,1.0,part_1,,,,,,,,,,,,,cyan,circle
653.0,3.0,3.0,0.0,2.0,2.0,363.902113999984,2.0,1.0,part_1,,,,,,,,,,,,,orange,diamond
0.0,1.0,0.0,0.0,2.0,2.0,385.5335490000016,2.0,1.0,part_1,,,,,,,,,,,,,white,cross
1292.0,4.0,4.0,0.0,4.0,4.0,446.6756829999667,2.0,1.0,part_1,,,,,,,,,,,,,gray,I
0.0,8.0,0.0,1.0,2.0,2.0,394.8363620002055,2.0,1.0,part_1,,,,,,,,,,,,,magenta,flipped triangle
0.0,5.0,0.0,1.0,1.0,1.0,760.4644329999246,2.0,2.0,part_1,,,,,,,,,,,,,yellow,triangle
1312.0,8.0,4.0,1.0,3.0,3.0,389.9117260000366,2.0,1.0,part_1,,,,,,,,,,,,,magenta,flipped triangle
633.0,3.0,3.0,0.0,2.0,2.0,627.7705480001714,2.0,1.0,part_1,,,,,,,,,,,,,orange,diamond
1288.0,8.0,4.0,1.0,1.0,1.0,602.7157249998254,2.0,1.0,part_1,,,,,,,,,,,,,magenta,flipped triangle
334.0,2.0,2.0,0.0,2.0,2.0,334.9826270000449,2.0,1.0,part_1,,,,,,,,,,,,,blue,square
1283.0,8.0,4.0,1.0,3.0,3.0,362.4791889999414,2.0,1.0,part_1,,,,,,,,,,,,,magenta,flipped triangle
309.0,6.0,2.0,1.0,2.0,2.0,407.7394090002144,2.0,1.0,part_1,,,,,,,,,,,,,green,hexagon
345.0,2.0,2.0,0.0,1.0,1.0,472.4726439999358,2.0,1.0,part_1,,,,,,,,,,,,,blue,square
304.0,2.0,2.0,0.0,2.0,2.0,470.9379620001073,2.0,1.0,part_1,,,,,,,,,,,,,blue,square
155.0,1.0,1.0,0.0,1.0,1.0,343.1577339999876,2.0,1.0,part_1,,,,,,,,,,,,,white,cross
0.0,4.0,0.0,0.0,3.0,3.0,343.6796460000551,2.0,2.0,part_1,,,,,,,,,,,,,gray,I
1301.0,4.0,4.0,0.0,2.0,2.0,370.8110929999293,2.0,1.0,part_1,,,,,,,,,,,,,gray,I
0.0,6.0,0.0,1.0,1.0,1.0,481.6937789998974,2.0,1.0,part_1,,,,,,,,,,,,,green,hexagon
152.0,1.0,1.0,0.0,4.0,4.0,508.9297310000802,2.0,2.0,part_1,,,,,,,,,,,,,white,cross
0.0,2.0,0.0,0.0,3.0,3.0,371.3363990000289,2.0,1.0,part_1,,,,,,,,,,,,,blue,square
632.0,7.0,3.0,1.0,2.0,2.0,315.2681090000442,2.0,1.0,part_1,,,,,,,,,,,,,cyan,circle
671.0,7.0,3.0,1.0,2.0,2.0,516.9574549997833,2.0,1.0,part_1,,,,,,,,,,,,,cyan,circle
309.0,6.0,2.0,1.0,2.0,2.0,388.27708099984187,2.0,1.0,part_1,,,,,,,,,,,,,green,hexagon
0.0,3.0,0.0,0.0,2.0,2.0,341.5209720001257,2.0,1.0,part_1,,,,,,,,,,,,,orange,diamond
328.0,6.0,2.0,1.0,1.0,1.0,453.6543229999097,2.0,1.0,part_1,,,,,,,,,,,,,green,hexagon
152.0,1.0,1.0,0.0,2.0,2.0,649.1820109999935,2.0,1.0,part_1,,,,,,,,,,,,,white,cross
662.0,3.0,3.0,0.0,4.0,4.0,435.5256979999922,2.0,1.0,part_1,,,,,,,,,,,,,orange,diamond
1282.0,4.0,4.0,0.0,1.0,1.0,540.3867439999885,2.0,1.0,part_1,,,,,,,,,,,,,gray,I
0.0,2.0,0.0,0.0,2.0,2.0,602.8609950001282,2.0,1.0,part_1,,,,,,,,,,,,,blue,square
177.0,1.0,1.0,0.0,1.0,1.0,464.3372699999872,2.0,1.0,part_1,,,,,,,,,,,,,white,cross
1277.0,4.0,4.0,0.0,4.0,4.0,629.7552359999372,2.0,1.0,part_1,,,,,,,,,,,,,gray,I
0.0,7.0,0.0,1.0,4.0,4.0,472.1524040000986,2.0,1.0,part_1,,,,,,,,,,,,,cyan,circle
315.0,2.0,2.0,0.0,4.0,4.0,417.9250629999842,2.0,1.0,part_1,,,,,,,,,,,,,blue,square
671.0,3.0,3.0,0.0,3.0,3.0,529.2754520000926,2.0,1.0,part_1,,,,,,,,,,,,,orange,diamond
177.0,1.0,1.0,0.0,4.0,4.0,419.034080000074,2.0,1.0,part_1,,,,,,,,,,,,,white,cross
631.0,3.0,3.0,0.0,4.0,4.0,417.7279790001194,2.0,1.0,part_1,,,,,,,,,,,,,orange,diamond
1277.0,4.0,4.0,0.0,4.0,4.0,473.2893230000172,2.0,1.0,part_1,,,,,,,,,,,,,gray,I
627.0,3.0,3.0,0.0,4.0,4.0,427.5416499999664,2.0,1.0,part_1,,,,,,,,,,,,,orange,diamond
1318.0,4.0,4.0,0.0,3.0,3.0,418.1247559999974,2.0,1.0,part_1,,,,,,,,,,,,,gray,I
665.0,3.0,3.0,0.0,2.0,2.0,593.419466000114,2.0,1.0,part_1,,,,,,,,,,,,,orange,diamond
320.0,2.0,2.0,0.0,1.0,1.0,519.3628019999323,2.0,1.0,part_1,,,,,,,,,,,,,blue,square
0.0,8.0,0.0,1.0,1.0,1.0,648.3785030000035,2.0,1.0,part_1,,,,,,,,,,,,,magenta,flipped triangle
145.0,1.0,1.0,0.0,3.0,3.0,398.0922609998742,2.0,1.0,part_1,,,,,,,,,,,,,white,cross
146.0,1.0,1.0,0.0,2.0,2.0,370.3030490000856,2.0,1.0,part_1,,,,,,,,,,,,,white,cross
310.0,2.0,2.0,0.0,3.0,3.0,491.571403999842,2.0,1.0,part_1,,,,,,,,,,,,,blue,square
0.0,1.0,0.0,0.0,3.0,3.0,694.6745129998817,2.0,1.0,part_1,,,,,,,,,,,,,white,cross
348.0,6.0,2.0,1.0,1.0,1.0,455.1191230000313,3.0,3.0,part_1,,,,,,,,,,,,,green,hexagon
1293.0,8.0,4.0,1.0,1.0,1.0,353.2422990001578,3.0,1.0,part_1,,,,,,,,,,,,,magenta,flipped triangle
185.0,1.0,1.0,0.0,2.0,2.0,343.6369940000077,3.0,1.0,part_1,,,,,,,,,,,,,white,cross
0.0,2.0,0.0,0.0,1.0,1.0,435.9015329998783,3.0,1.0,part_1,,,,,,,,,,,,,blue,square
654.0,3.0,3.0,0.0,4.0,4.0,409.6210479999627,3.0,1.0,part_1,,,,,,,,,,,,,orange,diamond
626.0,7.0,3.0,1.0,2.0,2.0,324.6513380001943,3.0,1.0,part_1,,,,,,,,,,,,,cyan,circle
149.0,1.0,1.0,0.0,2.0,2.0,444.0988009998818,3.0,1.0,part_1,,,,,,,,,,,,,white,cross
327.0,2.0,2.0,0.0,3.0,3.0,527.9026339999291,3.0,1.0,part_1,,,,,,,,,,,,,blue,square
628.0,7.0,3.0,1.0,4.0,4.0,537.6439330000267,3.0,1.0,part_1,,,,,,,,,,,,,cyan,circle
1312.0,4.0,4.0,0.0,1.0,1.0,546.369132000109,3.0,1.0,part_1,,,,,,,,,,,,,gray,I
1316.0,8.0,4.0,1.0,3.0,3.0,408.4728610000638,3.0,1.0,part_1,,,,,,,,,,,,,magenta,flipped triangle
1298.0,4.0,4.0,0.0,2.0,2.0,362.5839830001496,3.0,1.0,part_1,,,,,,,,,,,,,gray,I
1284.0,8.0,4.0,1.0,4.0,4.0,361.7952409999816,3.0,1.0,part_1,,,,,,,,,,,,,magenta,flipped triangle
327.0,2.0,2.0,0.0,3.0,3.0,389.8607880000782,3.0,1.0,part_1,,,,,,,,,,,,,blue,square
0.0,2.0,0.0,0.0,2.0,2.0,343.8985870000124,3.0,1.0,part_1,,,,,,,,,,,,,blue,square
0.0,2.0,0.0,0.0,3.0,3.0,397.9801749999296,3.0,1.0,part_1,,,,,,,,,,,,,blue,square
145.0,5.0,1.0,1.0,3.0,3.0,353.2683750001979,3.0,1.0,part_1,,,,,,,,,,,,,yellow,triangle
155.0,5.0,1.0,1.0,1.0,1.0,381.4139649998651,3.0,1.0,part_1,,,,,,,,,,,,,yellow,triangle
670.0,3.0,3.0,0.0,3.0,3.0,556.5243060000284,3.0,1.0,part_1,,,,,,,,,,,,,orange,diamond
343.0,2.0,2.0,0.0,1.0,1.0,436.8947410000601,3.0,1.0,part_1,,,,,,,,,,,,,blue,square
0.0,4.0,0.0,0.0,4.0,4.0,490.8144859998629,3.0,1.0,part_1,,,,,,,,,,,,,gray,I
159.0,1.0,1.0,0.0,3.0,3.0,398.2009479998396,3.0,1.0,part_1,,,,,,,,,,,,,white,cross
1300.0,8.0,4.0,1.0,1.0,1.0,602.1170439998969,3.0,1.0,part_1,,,,,,,,,,,,,magenta,flipped triangle
0.0,5.0,0.0,1.0,4.0,4.0,601.6366849999031,3.0,1.0,part_1,,,,,,,,,,,,,yellow,triangle
159.0,1.0,1.0,0.0,4.0,4.0,397.4808320001557,3.0,1.0,part_1,,,,,,,,,,,,,white,cross
301.0,2.0,2.0,0.0,3.0,3.0,342.4863960001403,3.0,1.0,part_1,,,,,,,,,,,,,blue,square
0.0,8.0,0.0,1.0,1.0,1.0,499.9436380001043,3.0,1.0,part_1,,,,,,,,,,,,,magenta,flipped triangle
1296.0,4.0,4.0,0.0,1.0,1.0,462.7479399998719,3.0,1.0,part_1,,,,,,,,,,,,,gray,I
0.0,4.0,0.0,0.0,1.0,1.0,360.8501819999219,3.0,1.0,part_1,,,,,,,,,,,,,gray,I
316.0,6.0,2.0,1.0,3.0,3.0,472.6110990000052,3.0,1.0,part_1,,,,,,,,,,,,,green,hexagon
160.0,1.0,1.0,0.0,4.0,4.0,527.7700930000719,3.0,1.0,part_1,,,,,,,,,,,,,white,cross
1317.0,4.0,4.0,0.0,3.0,3.0,408.0634040001314,3.0,1.0,part_1,,,,,,,,,,,,,gray,I
152.0,5.0,1.0,1.0,4.0,4.0,426.6758359999585,3.0,1.0,part_1,,,,,,,,,,,,,yellow,triangle
672.0,7.0,3.0,1.0,2.0,2.0,536.9077269999707,3.0,1.0,part_1,,,,,,,,,,,,,cyan,circle
0.0,8.0,0.0,1.0,4.0,4.0,481.9155290001617,3.0,1.0,part_1,,,,,,,,,,,,,magenta,flipped triangle
316.0,6.0,2.0,1.0,1.0,1.0,323.2103650000226,3.0,1.0,part_1,,,,,,,,,,,,,green,hexagon
644.0,3.0,3.0,0.0,1.0,1.0,415.0030430000697,3.0,1.0,part_1,,,,,,,,,,,,,orange,diamond
309.0,2.0,2.0,0.0,4.0,4.0,601.9512279999617,3.0,1.0,part_1,,,,,,,,,,,,,blue,square
646.0,7.0,3.0,1.0,1.0,1.0,436.0213689999455,3.0,1.0,part_1,,,,,,,,,,,,,cyan,circle
1312.0,4.0,4.0,0.0,3.0,3.0,434.2839890000505,3.0,1.0,part_1,,,,,,,,,,,,,gray,I
662.0,7.0,3.0,1.0,4.0,4.0,575.0588770001741,3.0,1.0,part_1,,,,,,,,,,,,,cyan,circle
1316.0,4.0,4.0,0.0,3.0,3.0,342.7116789998763,3.0,1.0,part_1,,,,,,,,,,,,,gray,I
654.0,7.0,3.0,1.0,3.0,3.0,342.5217840001551,3.0,1.0,part_1,,,,,,,,,,,,,cyan,circle
633.0,3.0,3.0,0.0,3.0,3.0,362.2233080000114,3.0,1.0,part_1,,,,,,,,,,,,,orange,diamond
671.0,7.0,3.0,1.0,2.0,2.0,566.0939350000262,3.0,1.0,part_1,,,,,,,,,,,,,cyan,circle
674.0,3.0,3.0,0.0,3.0,3.0,343.6154759999681,3.0,1.0,part_1,,,,,,,,,,,,,orange,diamond
309.0,2.0,2.0,0.0,3.0,3.0,390.4462989999047,3.0,1.0,part_1,,,,,,,,,,,,,blue,square
0.0,5.0,0.0,1.0,4.0,4.0,427.0946419999291,3.0,1.0,part_1,,,,,,,,,,,,,yellow,triangle
1283.0,4.0,4.0,0.0,3.0,3.0,556.9408880000992,3.0,1.0,part_1,,,,,,,,,,,,,gray,I
0.0,7.0,0.0,1.0,3.0,3.0,332.6841600000989,3.0,1.0,part_1,,,,,,,,,,,,,cyan,circle
1292.0,8.0,4.0,1.0,2.0,2.0,334.05302999995,3.0,1.0,part_1,,,,,,,,,,,,,magenta,flipped triangle
0.0,1.0,0.0,0.0,4.0,4.0,408.3413739999741,3.0,1.0,part_1,,,,,,,,,,,,,white,cross
0.0,3.0,0.0,0.0,3.0,3.0,380.1857769999515,3.0,1.0,part_1,,,,,,,,,,,,,orange,diamond
316.0,2.0,2.0,0.0,4.0,4.0,408.1452779998926,3.0,1.0,part_1,,,,,,,,,,,,,blue,square
627.0,3.0,3.0,0.0,3.0,3.0,351.9246719999955,3.0,1.0,part_1,,,,,,,,,,,,,orange,diamond
0.0,7.0,0.0,1.0,2.0,2.0,537.884110999812,3.0,1.0,part_1,,,,,,,,,,,,,cyan,circle
0.0,1.0,0.0,0.0,4.0,4.0,398.2210259998737,3.0,1.0,part_1,,,,,,,,,,,,,white,cross
159.0,5.0,1.0,1.0,4.0,4.0,648.9100720000351,3.0,1.0,part_1,,,,,,,,,,,,,yellow,triangle
1322.0,8.0,4.0,1.0,3.0,3.0,502.0696720000615,3.0,1.0,part_1,,,,,,,,,,,,,magenta,flipped triangle
1277.0,8.0,4.0,1.0,4.0,4.0,472.6848170000721,3.0,1.0,part_1,,,,,,,,,,,,,magenta,flipped triangle
337.0,6.0,2.0,1.0,2.0,2.0,725.2229590001207,3.0,1.0,part_1,,,,,,,,,,,,,green,hexagon
1312.0,8.0,4.0,1.0,2.0,2.0,435.4220310001437,3.0,1.0,part_1,,,,,,,,,,,,,magenta,flipped triangle
1300.0,8.0,4.0,1.0,2.0,2.0,521.8709869998293,3.0,1.0,part_1,,,,,,,,,,,,,magenta,flipped triangle
1278.0,4.0,4.0,0.0,4.0,4.0,426.7703870000332,3.0,1.0,part_1,,,,,,,,,,,,,gray,I
343.0,6.0,2.0,1.0,4.0,4.0,436.7855759999202,3.0,1.0,part_1,,,,,,,,,,,,,green,hexagon
0.0,4.0,0.0,0.0,3.0,3.0,408.8425499999175,3.0,1.0,part_1,,,,,,,,,,,,,gray,I
1281.0,8.0,4.0,1.0,2.0,2.0,436.526325000159,3.0,1.0,part_1,,,,,,,,,,,,,magenta,flipped triangle
0.0,7.0,0.0,1.0,1.0,1.0,481.4302719998977,3.0,1.0,part_1,,,,,,,,,,,,,cyan,circle
1276.0,8.0,4.0,1.0,3.0,3.0,694.7489449999011,3.0,1.0,part_1,,,,,,,,,,,,,magenta,flipped triangle
0.0,6.0,0.0,1.0,1.0,1.0,685.5801879999035,3.0,1.0,part_1,,,,,,,,,,,,,green,hexagon
648.0,3.0,3.0,0.0,4.0,4.0,493.4501710001768,3.0,1.0,part_1,,,,,,,,,,,,,orange,diamond
627.0,7.0,3.0,1.0,1.0,1.0,521.562632000041,3.0,1.0,part_1,,,,,,,,,,,,,cyan,circle
0.0,6.0,0.0,1.0,2.0,2.0,870.75450500015,3.0,1.0,part_1,,,,,,,,,,,,,green,hexagon
0.0,4.0,0.0,0.0,2.0,2.0,686.0470690000966,3.0,1.0,part_1,,,,,,,,,,,,,gray,I
631.0,7.0,3.0,1.0,3.0,3.0,390.3273490000174,3.0,1.0,part_1,,,,,,,,,,,,,cyan,circle
177.0,5.0,1.0,1.0,2.0,2.0,363.3948470001087,3.0,2.0,part_1,,,,,,,,,,,,,yellow,triangle
301.0,6.0,2.0,1.0,3.0,3.0,417.0192910000878,3.0,1.0,part_1,,,,,,,,,,,,,green,hexagon
310.0,6.0,2.0,1.0,2.0,2.0,297.6229920000151,3.0,1.0,part_1,,,,,,,,,,,,,green,hexagon
328.0,2.0,2.0,0.0,3.0,3.0,343.3521570000266,3.0,1.0,part_1,,,,,,,,,,,,,blue,square
316.0,6.0,2.0,1.0,3.0,3.0,490.9389889999147,3.0,1.0,part_1,,,,,,,,,,,,,green,hexagon
632.0,3.0,3.0,0.0,2.0,2.0,352.4107169998842,3.0,1.0,part_1,,,,,,,,,,,,,orange,diamond
1323.0,4.0,4.0,0.0,2.0,2.0,379.7708719998809,3.0,1.0,part_1,,,,,,,,,,,,,gray,I
339.0,6.0,2.0,1.0,1.0,1.0,342.9860470000676,3.0,1.0,part_1,,,,,,,,,,,,,green,hexagon
173.0,5.0,1.0,1.0,1.0,1.0,389.568650000001,3.0,1.0,part_1,,,,,,,,,,,,,yellow,triangle
316.0,6.0,2.0,1.0,4.0,4.0,601.7561259998274,3.0,1.0,part_1,,,,,,,,,,,,,green,hexagon
670.0,7.0,3.0,1.0,1.0,1.0,427.7165539999714,3.0,1.0,part_1,,,,,,,,,,,,,cyan,circle
0.0,8.0,0.0,1.0,4.0,4.0,435.3937579999183,3.0,1.0,part_1,,,,,,,,,,,,,magenta,flipped triangle
152.0,1.0,1.0,0.0,3.0,3.0,389.1671620001489,3.0,1.0,part_1,,,,,,,,,,,,,white,cross
0.0,2.0,0.0,0.0,4.0,4.0,510.6153420001647,3.0,1.0,part_1,,,,,,,,,,,,,blue,square
170.0,5.0,1.0,1.0,4.0,4.0,389.0353009999217,3.0,1.0,part_1,,,,,,,,,,,,,yellow,triangle
1323.0,8.0,4.0,1.0,2.0,2.0,362.3395829999936,3.0,1.0,part_1,,,,,,,,,,,,,magenta,flipped triangle
305.0,2.0,2.0,0.0,2.0,2.0,453.9562459999615,3.0,1.0,part_1,,,,,,,,,,,,,blue,square
340.0,6.0,2.0,1.0,3.0,3.0,425.8909190000395,3.0,1.0,part_1,,,,,,,,,,,,,green,hexagon
160.0,5.0,1.0,1.0,4.0,4.0,630.6954639999276,3.0,1.0,part_1,,,,,,,,,,,,,yellow,triangle
321.0,2.0,2.0,0.0,1.0,1.0,426.1963700000706,3.0,1.0,part_1,,,,,,,,,,,,,blue,square
1317.0,8.0,4.0,1.0,4.0,4.0,528.0178449997948,3.0,1.0,part_1,,,,,,,,,,,,,magenta,flipped triangle
633.0,7.0,3.0,1.0,1.0,1.0,417.6879239998925,3.0,1.0,part_1,,,,,,,,,,,,,cyan,circle
1319.0,4.0,4.0,0.0,4.0,4.0,426.2494590000187,3.0,1.0,part_1,,,,,,,,,,,,,gray,I
137.0,1.0,1.0,0.0,3.0,3.0,390.3165929998522,3.0,1.0,part_1,,,,,,,,,,,,,white,cross
171.0,5.0,1.0,1.0,2.0,2.0,360.8920699998634,3.0,1.0,part_1,,,,,,,,,,,,,yellow,triangle
305.0,2.0,2.0,0.0,1.0,1.0,351.5733310000541,4.0,1.0,part_1,,,,,,,,,,,,,blue,square
185.0,5.0,1.0,1.0,4.0,4.0,389.52424099989,4.0,1.0,part_1,,,,,,,,,,,,,yellow,triangle
172.0,5.0,1.0,1.0,4.0,4.0,399.4729200001075,4.0,1.0,part_1,,,,,,,,,,,,,yellow,triangle
301.0,6.0,2.0,1.0,1.0,1.0,416.5745799998603,4.0,1.0,part_1,,,,,,,,,,,,,green,hexagon
170.0,1.0,1.0,0.0,2.0,2.0,397.3010160000285,4.0,1.0,part_1,,,,,,,,,,,,,white,cross
167.0,5.0,1.0,1.0,4.0,4.0,390.014272000144,4.0,1.0,part_1,,,,,,,,,,,,,yellow,triangle
321.0,6.0,2.0,1.0,3.0,3.0,399.9399629999516,4.0,1.0,part_1,,,,,,,,,,,,,green,hexagon
0.0,2.0,0.0,0.0,3.0,3.0,454.1973299999426,4.0,1.0,part_1,,,,,,,,,,,,,blue,square
1315.0,8.0,4.0,1.0,1.0,1.0,341.6081299999405,4.0,1.0,part_1,,,,,,,,,,,,,magenta,flipped triangle
1309.0,8.0,4.0,1.0,4.0,4.0,528.1785689999197,4.0,1.0,part_1,,,,,,,,,,,,,magenta,flipped triangle
181.0,5.0,1.0,1.0,1.0,1.0,380.0564429998303,4.0,1.0,part_1,,,,,,,,,,,,,yellow,triangle
635.0,3.0,3.0,0.0,1.0,1.0,371.9947410002078,4.0,1.0,part_1,,,,,,,,,,,,,orange,diamond
305.0,6.0,2.0,1.0,3.0,3.0,371.2318290001803,4.0,1.0,part_1,,,,,,,,,,,,,green,hexagon
321.0,6.0,2.0,1.0,1.0,1.0,343.6431689999608,4.0,1.0,part_1,,,,,,,,,,,,,green,hexagon
173.0,1.0,1.0,0.0,3.0,3.0,361.0720710000805,4.0,1.0,part_1,,,,,,,,,,,,,white,cross
300.0,2.0,2.0,0.0,3.0,3.0,455.7460139999421,4.0,1.0,part_1,,,,,,,,,,,,,blue,square
149.0,5.0,1.0,1.0,1.0,1.0,398.3320840000033,4.0,1.0,part_1,,,,,,,,,,,,,yellow,triangle
300.0,6.0,2.0,1.0,2.0,2.0,547.0122389999688,4.0,1.0,part_1,,,,,,,,,,,,,green,hexagon
158.0,5.0,1.0,1.0,3.0,3.0,361.8670359999214,4.0,1.0,part_1,,,,,,,,,,,,,yellow,triangle
1292.0,4.0,4.0,0.0,2.0,2.0,583.8761669999712,4.0,1.0,part_1,,,,,,,,,,,,,gray,I
163.0,5.0,1.0,1.0,2.0,2.0,843.1239070000629,4.0,1.0,part_1,,,,,,,,,,,,,yellow,triangle
336.0,2.0,2.0,0.0,4.0,4.0,768.7674609999249,4.0,1.0,part_1,,,,,,,,,,,,,blue,square
1276.0,8.0,4.0,1.0,1.0,1.0,435.3564190000725,4.0,1.0,part_1,,,,,,,,,,,,,magenta,flipped triangle
626.0,3.0,3.0,0.0,4.0,4.0,548.8577230000828,4.0,1.0,part_1,,,,,,,,,,,,,orange,diamond
315.0,6.0,2.0,1.0,3.0,3.0,463.6646650001239,4.0,1.0,part_1,,,,,,,,,,,,,green,hexagon
329.0,2.0,2.0,0.0,3.0,3.0,390.0111310001648,4.0,1.0,part_1,,,,,,,,,,,,,blue,square
653.0,7.0,3.0,1.0,2.0,2.0,723.2313770000474,4.0,1.0,part_1,,,,,,,,,,,,,cyan,circle
163.0,1.0,1.0,0.0,1.0,1.0,473.3629079998991,4.0,1.0,part_1,,,,,,,,,,,,,white,cross
0.0,8.0,0.0,1.0,2.0,2.0,389.5343820001926,4.0,1.0,part_1,,,,,,,,,,,,,magenta,flipped triangle
627.0,7.0,3.0,1.0,2.0,2.0,353.0149420000725,4.0,1.0,part_1,,,,,,,,,,,,,cyan,circle
0.0,2.0,0.0,0.0,2.0,2.0,371.8431639999835,4.0,1.0,part_1,,,,,,,,,,,,,blue,square
186.0,5.0,1.0,1.0,3.0,3.0,650.6276190000335,4.0,1.0,part_1,,,,,,,,,,,,,yellow,triangle
1318.0,8.0,4.0,1.0,4.0,4.0,392.1965110000656,4.0,2.0,part_1,,,,,,,,,,,,,magenta,flipped triangle
152.0,5.0,1.0,1.0,1.0,1.0,492.2490809999544,4.0,1.0,part_1,,,,,,,,,,,,,yellow,triangle
176.0,1.0,1.0,0.0,3.0,3.0,353.8562440000987,4.0,1.0,part_1,,,,,,,,,,,,,white,cross
148.0,1.0,1.0,0.0,2.0,2.0,353.0134830000406,4.0,1.0,part_1,,,,,,,,,,,,,white,cross
1276.0,4.0,4.0,0.0,1.0,1.0,417.5186649999887,4.0,1.0,part_1,,,,,,,,,,,,,gray,I
0.0,1.0,0.0,0.0,1.0,1.0,491.6708490000019,4.0,1.0,part_1,,,,,,,,,,,,,white,cross
309.0,2.0,2.0,0.0,2.0,2.0,474.0737909999097,4.0,1.0,part_1,,,,,,,,,,,,,blue,square
649.0,3.0,3.0,0.0,1.0,1.0,492.5924789999953,4.0,1.0,part_1,,,,,,,,,,,,,orange,diamond
668.0,7.0,3.0,1.0,3.0,3.0,427.9592039999897,4.0,1.0,part_1,,,,,,,,,,,,,cyan,circle
171.0,1.0,1.0,0.0,2.0,2.0,445.1728750000256,4.0,1.0,part_1,,,,,,,,,,,,,white,cross
0.0,8.0,0.0,1.0,3.0,3.0,482.36818700002,4.0,1.0,part_1,,,,,,,,,,,,,magenta,flipped triangle
640.0,3.0,3.0,0.0,1.0,1.0,669.0434759998425,4.0,1.0,part_1,,,,,,,,,,,,,orange,diamond
1313.0,8.0,4.0,1.0,2.0,2.0,353.8940920000186,4.0,1.0,part_1,,,,,,,,,,,,,magenta,flipped triangle
181.0,5.0,1.0,1.0,3.0,3.0,391.5840370000296,4.0,1.0,part_1,,,,,,,,,,,,,yellow,triangle
633.0,7.0,3.0,1.0,2.0,2.0,947.721711999975,4.0,1.0,part_1,,,,,,,,,,,,,cyan,circle
0.0,8.0,0.0,1.0,4.0,4.0,437.612190999971,4.0,1.0,part_1,,,,,,,,,,,,,magenta,flipped triangle
640.0,7.0,3.0,1.0,3.0,3.0,344.9317030001566,4.0,1.0,part_1,,,,,,,,,,,,,cyan,circle
331.0,2.0,2.0,0.0,2.0,2.0,381.2197960000958,4.0,1.0,part_1,,,,,,,,,,,,,blue,square
0.0,3.0,0.0,0.0,1.0,1.0,770.3536599999552,4.0,1.0,part_1,,,,,,,,,,,,,orange,diamond
658.0,3.0,3.0,0.0,2.0,2.0,630.6763080001474,4.0,1.0,part_1,,,,,,,,,,,,,orange,diamond
327.0,6.0,2.0,1.0,1.0,1.0,419.4092620000447,4.0,1.0,part_1,,,,,,,,,,,,,green,hexagon
333.0,6.0,2.0,1.0,3.0,3.0,444.5098300000154,4.0,1.0,part_1,,,,,,,,,,,,,green,hexagon
0.0,6.0,0.0,1.0,3.0,3.0,380.4253829998743,4.0,1.0,part_1,,,,,,,,,,,,,green,hexagon
0.0,8.0,0.0,1.0,2.0,2.0,370.7623629998124,4.0,1.0,part_1,,,,,,,,,,,,,magenta,flipped triangle
172.0,5.0,1.0,1.0,2.0,2.0,352.3573670001951,4.0,1.0,part_1,,,,,,,,,,,,,yellow,triangle
668.0,3.0,3.0,0.0,3.0,3.0,400.1581120000992,4.0,1.0,part_1,,,,,,,,,,,,,orange,diamond
344.0,2.0,2.0,0.0,1.0,1.0,380.4129049999574,4.0,1.0,part_1,,,,,,,,,,,,,blue,square
159.0,5.0,1.0,1.0,2.0,2.0,436.311084999943,4.0,1.0,part_1,,,,,,,,,,,,,yellow,triangle
1299.0,8.0,4.0,1.0,4.0,4.0,445.3439830001571,4.0,1.0,part_1,,,,,,,,,,,,,magenta,flipped triangle
0.0,5.0,0.0,1.0,4.0,4.0,473.6767869999312,4.0,1.0,part_1,,,,,,,,,,,,,yellow,triangle
0.0,6.0,0.0,1.0,3.0,3.0,465.4057660000035,4.0,1.0,part_1,,,,,,,,,,,,,green,hexagon
654.0,3.0,3.0,0.0,3.0,3.0,389.5800059999601,4.0,1.0,part_1,,,,,,,,,,,,,orange,diamond
671.0,3.0,3.0,0.0,4.0,4.0,389.9794880001082,4.0,1.0,part_1,,,,,,,,,,,,,orange,diamond
336.0,6.0,2.0,1.0,2.0,2.0,675.2552899999955,4.0,1.0,part_1,,,,,,,,,,,,,green,hexagon
639.0,7.0,3.0,1.0,3.0,3.0,790.247915000009,4.0,1.0,part_1,,,,,,,,,,,,,cyan,circle
163.0,1.0,1.0,0.0,3.0,3.0,381.1231770000631,4.0,1.0,part_1,,,,,,,,,,,,,white,cross
646.0,3.0,3.0,0.0,2.0,2.0,370.1870219999819,4.0,2.0,part_1,,,,,,,,,,,,,orange,diamond
658.0,3.0,3.0,0.0,4.0,4.0,629.920428999867,4.0,1.0,part_1,,,,,,,,,,,,,orange,diamond
0.0,7.0,0.0,1.0,2.0,2.0,380.8623759998681,4.0,1.0,part_1,,,,,,,,,,,,,cyan,circle
160.0,5.0,1.0,1.0,4.0,4.0,408.1363039999814,4.0,1.0,part_1,,,,,,,,,,,,,yellow,triangle
665.0,7.0,3.0,1.0,1.0,1.0,314.8037240000576,4.0,1.0,part_1,,,,,,,,,,,,,cyan,circle
0.0,1.0,0.0,0.0,1.0,1.0,371.961021000061,4.0,1.0,part_1,,,,,,,,,,,,,white,cross
177.0,5.0,1.0,1.0,2.0,2.0,435.4714619998958,4.0,1.0,part_1,,,,,,,,,,,,,yellow,triangle
0.0,7.0,0.0,1.0,4.0,4.0,527.716183999928,4.0,1.0,part_1,,,,,,,,,,,,,cyan,circle
669.0,7.0,3.0,1.0,4.0,4.0,389.3215919999875,4.0,1.0,part_1,,,,,,,,,,,,,cyan,circle
0.0,3.0,0.0,0.0,1.0,1.0,796.2884280000253,4.0,1.0,part_1,,,,,,,,,,,,,orange,diamond
0.0,3.0,0.0,0.0,1.0,1.0,677.9822789999344,4.0,1.0,part_1,,,,,,,,,,,,,orange,diamond
0.0,6.0,0.0,1.0,4.0,4.0,501.3238490000731,4.0,1.0,part_1,,,,,,,,,,,,,green,hexagon
0.0,6.0,0.0,1.0,4.0,4.0,399.8488320000888,4.0,1.0,part_1,,,,,,,,,,,,,green,hexagon
653.0,3.0,3.0,0.0,2.0,2.0,360.3880650000519,4.0,1.0,part_1,,,,,,,,,,,,,orange,diamond
1301.0,8.0,4.0,1.0,1.0,1.0,389.0850929999487,4.0,1.0,part_1,,,,,,,,,,,,,magenta,flipped triangle
173.0,1.0,1.0,0.0,1.0,1.0,528.0045619999783,4.0,1.0,part_1,,,,,,,,,,,,,white,cross
674.0,7.0,3.0,1.0,1.0,1.0,416.5179950000492,4.0,1.0,part_1,,,,,,,,,,,,,cyan,circle
343.0,6.0,2.0,1.0,4.0,4.0,491.8299939999997,4.0,1.0,part_1,,,,,,,,,,,,,green,hexagon
345.0,6.0,2.0,1.0,1.0,1.0,453.6387190000823,4.0,1.0,part_1,,,,,,,,,,,,,green,hexagon
644.0,7.0,3.0,1.0,4.0,4.0,427.3227950000091,4.0,1.0,part_1,,,,,,,,,,,,,cyan,circle
654.0,7.0,3.0,1.0,1.0,1.0,453.5157680002157,4.0,2.0,part_1,,,,,,,,,,,,,cyan,circle
669.0,7.0,3.0,1.0,2.0,2.0,434.86804700000897,4.0,1.0,part_1,,,,,,,,,,,,,cyan,circle
316.0,2.0,2.0,0.0,2.0,2.0,464.4525279998106,4.0,1.0,part_1,,,,,,,,,,,,,blue,square
340.0,2.0,2.0,0.0,1.0,1.0,509.4471689999409,4.0,1.0,part_1,,,,,,,,,,,,,blue,square
181.0,1.0,1.0,0.0,4.0,4.0,481.0221860000183,4.0,1.0,part_1,,,,,,,,,,,,,white,cross
0.0,7.0,0.0,1.0,2.0,2.0,444.2866459999095,4.0,1.0,part_1,,,,,,,,,,,,,cyan,circle
1318.0,4.0,4.0,0.0,3.0,3.0,408.458193000115,4.0,1.0,part_1,,,,,,,,,,,,,gray,I
166.0,5.0,1.0,1.0,2.0,2.0,398.0644669998128,4.0,1.0,part_1,,,,,,,,,,,,,yellow,triangle
1278.0,8.0,4.0,1.0,2.0,2.0,406.9888629999241,4.0,1.0,part_1,,,,,,,,,,,,,magenta,flipped triangle
0.0,6.0,0.0,1.0,1.0,1.0,539.4692630000009,4.0,1.0,part_1,,,,,,,,,,,,,green,hexagon
326.0,2.0,2.0,0.0,4.0,4.0,454.6849509999902,4.0,1.0,part_1,,,,,,,,,,,,,blue,square
150.0,1.0,1.0,0.0,1.0,1.0,435.4544579998674,4.0,1.0,part_1,,,,,,,,,,,,,white,cross
0.0,3.0,3.0,0.0,5.0,5.0,399.2653589998554,1.0,0.0,part_2,go,250.0,250.0,1.0,,,,,,,,,orange,diamond
0.0,4.0,4.0,0.0,6.0,6.0,575.922661000277,1.0,0.0,part_2,go,250.0,250.0,1.0,,,,,,,,,gray,I
0.0,7.0,3.0,1.0,5.0,5.0,391.0324729999956,1.0,0.0,part_2,go,250.0,250.0,1.0,,,,,,,,,cyan,circle
0.0,1.0,1.0,0.0,5.0,5.0,444.9859539995486,1.0,0.0,part_2,go,250.0,250.0,1.0,,,,,,,,,white,cross
0.0,4.0,4.0,0.0,6.0,6.0,384.5668119997754,1.0,0.0,part_2,go,250.0,250.0,1.0,,,,,,,,,gray,I
0.0,6.0,2.0,1.0,5.0,5.0,324.7720300000765,1.0,0.0,part_2,go,250.0,250.0,1.0,,,,,,,,,green,hexagon
0.0,5.0,1.0,1.0,5.0,5.0,627.3116950001167,1.0,0.0,part_2,stop,250.0,250.0,3.0,,,,,,,,,yellow,triangle
0.0,5.0,1.0,1.0,6.0,6.0,541.3773010000114,1.0,0.0,part_2,stop,200.0,250.0,3.0,,,,,,,,,yellow,triangle
0.0,3.0,3.0,0.0,6.0,6.0,691.4516010001535,1.0,0.0,part_2,go,200.0,200.0,1.0,,,,,,,,,orange,diamond
0.0,1.0,1.0,0.0,6.0,6.0,746.1918129997684,1.0,0.0,part_2,go,200.0,200.0,1.0,,,,,,,,,white,cross
0.0,1.0,1.0,0.0,6.0,6.0,765.0122310001279,1.0,0.0,part_2,go,200.0,200.0,1.0,,,,,,,,,white,cross
0.0,2.0,2.0,0.0,6.0,6.0,560.1849499998934,1.0,0.0,part_2,go,200.0,200.0,1.0,,,,,,,,,blue,square
0.0,2.0,2.0,0.0,5.0,5.0,521.7250890000287,1.0,0.0,part_2,go,200.0,200.0,1.0,,,,,,,,,blue,square
0.0,1.0,1.0,0.0,6.0,6.0,437.1764489997076,1.0,0.0,part_2,go,200.0,200.0,1.0,,,,,,,,,white,cross
0.0,5.0,1.0,1.0,6.0,0.0,0.0,1.0,0.0,part_2,stop,200.0,200.0,4.0,,,,,,,,,yellow,triangle
0.0,1.0,1.0,0.0,5.0,5.0,577.692124999885,1.0,0.0,part_2,go,200.0,250.0,1.0,,,,,,,,,white,cross
0.0,5.0,1.0,1.0,6.0,0.0,0.0,1.0,0.0,part_2,stop,200.0,250.0,4.0,,,,,,,,,yellow,triangle
0.0,8.0,4.0,1.0,5.0,5.0,764.6093379999002,1.0,0.0,part_2,go,200.0,300.0,1.0,,,,,,,,,magenta,flipped triangle
0.0,1.0,1.0,0.0,5.0,5.0,364.3899560001955,1.0,0.0,part_2,go,200.0,300.0,1.0,,,,,,,,,white,cross
0.0,8.0,4.0,1.0,5.0,5.0,523.9754350000112,1.0,0.0,part_2,go,200.0,300.0,1.0,,,,,,,,,magenta,flipped triangle
0.0,2.0,2.0,0.0,6.0,6.0,531.4271689999259,1.0,0.0,part_2,go,200.0,300.0,1.0,,,,,,,,,blue,square
0.0,4.0,4.0,0.0,6.0,6.0,465.1063360001899,1.0,0.0,part_2,go,200.0,300.0,1.0,,,,,,,,,gray,I
0.0,1.0,1.0,0.0,5.0,5.0,456.5782009999566,1.0,0.0,part_2,go,200.0,300.0,1.0,,,,,,,,,white,cross
0.0,4.0,4.0,0.0,5.0,5.0,447.2052930000245,1.0,0.0,part_2,go,200.0,300.0,1.0,,,,,,,,,gray,I
0.0,6.0,2.0,1.0,6.0,6.0,447.5487790000443,1.0,0.0,part_2,stop,200.0,300.0,3.0,,,,,,,,,green,hexagon
0.0,4.0,4.0,0.0,6.0,6.0,663.2994139999937,1.0,0.0,part_2,go,200.0,250.0,1.0,,,,,,,,,gray,I
0.0,2.0,2.0,0.0,5.0,5.0,691.161878999992,1.0,0.0,part_2,go,200.0,250.0,1.0,,,,,,,,,blue,square
0.0,3.0,3.0,0.0,6.0,6.0,474.1403459997855,1.0,0.0,part_2,go,200.0,250.0,1.0,,,,,,,,,orange,diamond
0.0,8.0,4.0,1.0,5.0,0.0,0.0,1.0,0.0,part_2,stop,200.0,250.0,4.0,,,,,,,,,magenta,flipped triangle
0.0,7.0,3.0,1.0,5.0,0.0,0.0,1.0,0.0,part_2,stop,250.0,250.0,4.0,,,,,,,,,cyan,circle
0.0,3.0,3.0,0.0,5.0,5.0,523.4965229997215,1.0,0.0,part_2,go,300.0,250.0,1.0,,,,,,,,,orange,diamond
0.0,4.0,4.0,0.0,5.0,5.0,352.1378880000156,1.0,0.0,part_2,go,300.0,250.0,1.0,,,,,,,,,gray,I
0.0,3.0,3.0,0.0,6.0,6.0,345.890619000329,1.0,0.0,part_2,go,300.0,250.0,1.0,,,,,,,,,orange,diamond
0.0,7.0,3.0,1.0,5.0,0.0,0.0,1.0,0.0,part_2,stop,300.0,250.0,4.0,,,,,,,,,cyan,circle
0.0,6.0,2.0,1.0,5.0,5.0,371.2053969998123,1.0,0.0,part_2,go,350.0,250.0,1.0,,,,,,,,,green,hexagon
0.0,3.0,3.0,0.0,6.0,6.0,486.8492380001044,1.0,0.0,part_2,go,350.0,250.0,1.0,,,,,,,,,orange,diamond
0.0,4.0,4.0,0.0,5.0,5.0,493.0904480002027,2.0,0.0,part_2,go,350.0,250.0,1.0,,,,,,,,,gray,I
0.0,7.0,3.0,1.0,5.0,5.0,498.9673009999933,2.0,0.0,part_2,stop,350.0,250.0,3.0,,,,,,,,,cyan,circle
0.0,3.0,3.0,0.0,6.0,6.0,588.2449850000739,2.0,0.0,part_2,go,300.0,250.0,1.0,,,,,,,,,orange,diamond
0.0,6.0,2.0,1.0,6.0,0.0,0.0,2.0,0.0,part_2,stop,300.0,250.0,4.0,,,,,,,,,green,hexagon
0.0,7.0,3.0,1.0,6.0,6.0,767.0153389999541,2.0,0.0,part_2,go,300.0,300.0,1.0,,,,,,,,,cyan,circle
0.0,1.0,1.0,0.0,6.0,6.0,448.4848920001241,2.0,0.0,part_2,go,300.0,300.0,1.0,,,,,,,,,white,cross
0.0,6.0,2.0,1.0,5.0,0.0,0.0,2.0,0.0,part_2,stop,300.0,300.0,4.0,,,,,,,,,green,hexagon
0.0,2.0,2.0,0.0,5.0,5.0,652.7095550000013,2.0,0.0,part_2,go,350.0,300.0,1.0,,,,,,,,,blue,square
0.0,6.0,2.0,1.0,5.0,0.0,0.0,2.0,0.0,part_2,stop,350.0,300.0,4.0,,,,,,,,,green,hexagon
0.0,4.0,4.0,0.0,6.0,0.0,0.0,2.0,0.0,part_2,go,400.0,300.0,5.0,,,,,,,,,gray,I
0.0,3.0,3.0,0.0,6.0,6.0,723.1364189997294,2.0,0.0,part_2,go,400.0,300.0,1.0,,,,,,,,,orange,diamond
0.0,2.0,2.0,0.0,6.0,6.0,668.780125000012,2.0,0.0,part_2,go,400.0,300.0,1.0,,,,,,,,,blue,square
0.0,7.0,3.0,1.0,6.0,6.0,363.3446710000498,2.0,0.0,part_2,stop,400.0,300.0,3.0,,,,,,,,,cyan,circle
0.0,3.0,3.0,0.0,6.0,6.0,474.4659450002473,2.0,0.0,part_2,go,400.0,250.0,1.0,,,,,,,,,orange,diamond
0.0,1.0,1.0,0.0,6.0,6.0,781.5526960002899,2.0,0.0,part_2,go,400.0,250.0,1.0,,,,,,,,,white,cross
0.0,8.0,4.0,1.0,6.0,0.0,0.0,2.0,0.0,part_2,stop,400.0,250.0,4.0,,,,,,,,,magenta,flipped triangle
0.0,6.0,2.0,1.0,6.0,6.0,959.4648819997929,2.0,0.0,part_2,go,400.0,300.0,1.0,,,,,,,,,green,hexagon
0.0,7.0,3.0,1.0,6.0,6.0,827.0849650002674,2.0,0.0,part_2,go,400.0,300.0,1.0,,,,,,,,,cyan,circle
0.0,4.0,4.0,0.0,6.0,6.0,466.9320669995613,2.0,0.0,part_2,go,400.0,300.0,1.0,,,,,,,,,gray,I
0.0,1.0,1.0,0.0,6.0,6.0,465.2303100001518,2.0,0.0,part_2,go,400.0,300.0,1.0,,,,,,,,,white,cross
0.0,8.0,4.0,1.0,5.0,5.0,464.4335359998877,2.0,0.0,part_2,stop,400.0,300.0,3.0,,,,,,,,,magenta,flipped triangle
0.0,8.0,4.0,1.0,5.0,5.0,766.3709169996764,2.0,0.0,part_2,go,350.0,300.0,1.0,,,,,,,,,magenta,flipped triangle
0.0,7.0,3.0,1.0,5.0,0.0,0.0,2.0,0.0,part_2,stop,350.0,300.0,4.0,,,,,,,,,cyan,circle
0.0,7.0,3.0,1.0,6.0,0.0,0.0,2.0,0.0,part_2,stop,400.0,300.0,4.0,,,,,,,,,cyan,circle
0.0,3.0,3.0,0.0,5.0,5.0,818.8903319996825,2.0,0.0,part_2,go,400.0,350.0,1.0,,,,,,,,,orange,diamond
0.0,5.0,1.0,1.0,6.0,6.0,734.2892329997994,2.0,0.0,part_2,go,400.0,350.0,1.0,,,,,,,,,yellow,triangle
0.0,7.0,3.0,1.0,6.0,6.0,487.5227659999837,2.0,0.0,part_2,stop,400.0,350.0,3.0,,,,,,,,,cyan,circle
0.0,3.0,3.0,0.0,6.0,6.0,1398.2232260000274,2.0,0.0,part_2,go,400.0,300.0,1.0,,,,,,,,,orange,diamond
0.0,2.0,2.0,0.0,5.0,5.0,446.711341000082,2.0,0.0,part_2,go,400.0,300.0,1.0,,,,,,,,,blue,square
0.0,6.0,2.0,1.0,5.0,5.0,598.3632599995872,2.0,0.0,part_2,stop,400.0,300.0,3.0,,,,,,,,,green,hexagon
0.0,5.0,1.0,1.0,5.0,0.0,0.0,2.0,0.0,part_2,stop,350.0,300.0,4.0,,,,,,,,,yellow,triangle
0.0,2.0,2.0,0.0,6.0,6.0,681.6707619996123,2.0,0.0,part_2,go,400.0,300.0,1.0,,,,,,,,,blue,square
0.0,1.0,1.0,0.0,6.0,6.0,810.9464350000053,2.0,0.0,part_2,go,400.0,300.0,1.0,,,,,,,,,white,cross
0.0,2.0,2.0,0.0,6.0,6.0,698.2101300000068,2.0,0.0,part_2,go,400.0,300.0,1.0,,,,,,,,,blue,square
0.0,4.0,4.0,0.0,6.0,6.0,791.9387270003426,2.0,0.0,part_2,go,400.0,300.0,1.0,,,,,,,,,gray,I
0.0,8.0,4.0,1.0,6.0,0.0,0.0,2.0,0.0,part_2,stop,400.0,300.0,4.0,,,,,,,,,magenta,flipped triangle
0.0,8.0,4.0,1.0,5.0,0.0,0.0,3.0,0.0,part_2,stop,400.0,350.0,4.0,,,,,,,,,magenta,flipped triangle
0.0,4.0,4.0,0.0,5.0,5.0,746.7119509997246,3.0,0.0,part_2,go,450.0,350.0,1.0,,,,,,,,,gray,I
0.0,4.0,4.0,0.0,5.0,5.0,419.1637729995818,3.0,0.0,part_2,go,450.0,350.0,1.0,,,,,,,,,gray,I
0.0,6.0,2.0,1.0,5.0,5.0,558.4939210002631,3.0,0.0,part_2,stop,450.0,350.0,3.0,,,,,,,,,green,hexagon
0.0,7.0,3.0,1.0,6.0,0.0,0.0,3.0,0.0,part_2,stop,400.0,350.0,4.0,,,,,,,,,cyan,circle
0.0,8.0,4.0,1.0,5.0,0.0,0.0,3.0,0.0,part_2,stop,400.0,400.0,4.0,,,,,,,,,magenta,flipped triangle
0.0,2.0,2.0,0.0,6.0,6.0,834.491237000293,3.0,0.0,part_2,go,450.0,400.0,1.0,,,,,,,,,blue,square
0.0,1.0,1.0,0.0,6.0,6.0,643.2870500002537,3.0,0.0,part_2,go,450.0,400.0,1.0,,,,,,,,,white,cross
0.0,1.0,1.0,0.0,6.0,6.0,911.126317000253,3.0,0.0,part_2,go,450.0,400.0,1.0,,,,,,,,,white,cross
0.0,2.0,2.0,0.0,5.0,5.0,734.9556289996144,3.0,0.0,part_2,go,450.0,400.0,1.0,,,,,,,,,blue,square
0.0,8.0,4.0,1.0,5.0,0.0,0.0,3.0,0.0,part_2,stop,450.0,400.0,4.0,,,,,,,,,magenta,flipped triangle
0.0,2.0,2.0,0.0,6.0,6.0,773.3585440000752,3.0,0.0,part_2,go,500.0,400.0,1.0,,,,,,,,,blue,square
0.0,2.0,2.0,0.0,5.0,5.0,886.431901999913,3.0,0.0,part_2,go,500.0,400.0,1.0,,,,,,,,,blue,square
0.0,4.0,4.0,0.0,5.0,5.0,448.9103629998681,3.0,0.0,part_2,go,500.0,400.0,1.0,,,,,,,,,gray,I
0.0,3.0,3.0,0.0,5.0,5.0,578.8716519996342,3.0,0.0,part_2,go,500.0,400.0,1.0,,,,,,,,,orange,diamond
0.0,5.0,1.0,1.0,5.0,5.0,1061.8473889999225,3.0,0.0,part_2,go,500.0,400.0,1.0,,,,,,,,,yellow,triangle
0.0,8.0,4.0,1.0,5.0,5.0,476.3483599999745,3.0,0.0,part_2,stop,500.0,400.0,3.0,,,,,,,,,magenta,flipped triangle
0.0,2.0,2.0,0.0,6.0,6.0,735.8184910003729,3.0,0.0,part_2,go,450.0,400.0,1.0,,,,,,,,,blue,square
0.0,8.0,4.0,1.0,6.0,0.0,0.0,3.0,0.0,part_2,stop,450.0,400.0,4.0,,,,,,,,,magenta,flipped triangle
0.0,5.0,1.0,1.0,5.0,0.0,0.0,3.0,0.0,part_2,stop,450.0,450.0,4.0,,,,,,,,,yellow,triangle
0.0,3.0,3.0,0.0,5.0,5.0,1016.9797280000239,3.0,0.0,part_2,go,500.0,450.0,1.0,,,,,,,,,orange,diamond
0.0,8.0,4.0,1.0,6.0,0.0,0.0,3.0,0.0,part_2,stop,500.0,450.0,4.0,,,,,,,,,magenta,flipped triangle
0.0,5.0,1.0,1.0,6.0,0.0,0.0,3.0,0.0,part_2,stop,500.0,500.0,4.0,,,,,,,,,yellow,triangle
0.0,6.0,2.0,1.0,6.0,0.0,0.0,3.0,0.0,part_2,stop,500.0,550.0,4.0,,,,,,,,,green,hexagon
0.0,3.0,3.0,0.0,5.0,0.0,0.0,3.0,0.0,part_2,go,500.0,600.0,5.0,,,,,,,,,orange,diamond
0.0,6.0,2.0,1.0,5.0,5.0,1083.179506999841,3.0,0.0,part_2,go,500.0,600.0,1.0,,,,,,,,,green,hexagon
0.0,7.0,3.0,1.0,6.0,0.0,0.0,3.0,0.0,part_2,stop,500.0,600.0,4.0,,,,,,,,,cyan,circle
0.0,8.0,4.0,1.0,5.0,0.0,0.0,3.0,0.0,part_2,stop,500.0,650.0,4.0,,,,,,,,,magenta,flipped triangle
0.0,6.0,2.0,1.0,5.0,0.0,0.0,3.0,0.0,part_2,stop,550.0,650.0,4.0,,,,,,,,,green,hexagon
0.0,1.0,1.0,0.0,6.0,6.0,904.6460819999992,3.0,0.0,part_2,go,600.0,650.0,1.0,,,,,,,,,white,cross
0.0,8.0,4.0,1.0,6.0,6.0,714.7995049999736,3.0,0.0,part_2,stop,600.0,650.0,3.0,,,,,,,,,magenta,flipped triangle
0.0,1.0,1.0,0.0,5.0,5.0,1340.8923800002412,3.0,0.0,part_2,go,600.0,600.0,1.0,,,,,,,,,white,cross
0.0,2.0,2.0,0.0,5.0,5.0,950.5488129998412,3.0,0.0,part_2,go,600.0,600.0,1.0,,,,,,,,,blue,square
0.0,7.0,3.0,1.0,5.0,5.0,1080.4796879997411,3.0,0.0,part_2,go,600.0,600.0,1.0,,,,,,,,,cyan,circle
0.0,5.0,1.0,1.0,6.0,6.0,763.560096999754,3.0,0.0,part_2,stop,600.0,600.0,3.0,,,,,,,,,yellow,triangle
0.0,6.0,2.0,1.0,5.0,0.0,0.0,3.0,0.0,part_2,stop,600.0,550.0,4.0,,,,,,,,,green,hexagon
0.0,5.0,1.0,1.0,6.0,0.0,0.0,4.0,0.0,part_2,go,650.0,550.0,5.0,,,,,,,,,yellow,triangle
0.0,7.0,3.0,1.0,6.0,6.0,678.0839840002955,4.0,0.0,part_2,stop,650.0,550.0,3.0,,,,,,,,,cyan,circle
0.0,7.0,3.0,1.0,6.0,0.0,0.0,4.0,0.0,part_2,stop,650.0,500.0,4.0,,,,,,,,,cyan,circle
0.0,1.0,1.0,0.0,5.0,5.0,661.9884299998375,4.0,0.0,part_2,go,650.0,550.0,1.0,,,,,,,,,white,cross
0.0,4.0,4.0,0.0,5.0,5.0,810.6597949999923,4.0,0.0,part_2,go,650.0,550.0,1.0,,,,,,,,,gray,I
0.0,5.0,1.0,1.0,6.0,0.0,0.0,4.0,0.0,part_2,stop,650.0,550.0,4.0,,,,,,,,,yellow,triangle
0.0,4.0,4.0,0.0,5.0,5.0,1041.124822999791,4.0,0.0,part_2,go,650.0,600.0,1.0,,,,,,,,,gray,I
0.0,3.0,3.0,0.0,6.0,6.0,420.567224000024,4.0,0.0,part_2,go,650.0,600.0,1.0,,,,,,,,,orange,diamond
0.0,5.0,1.0,1.0,5.0,5.0,798.7781669999094,4.0,0.0,part_2,stop,650.0,600.0,3.0,,,,,,,,,yellow,triangle
0.0,3.0,3.0,0.0,5.0,5.0,1314.844297000036,4.0,0.0,part_2,go,600.0,600.0,1.0,,,,,,,,,orange,diamond
0.0,6.0,2.0,1.0,5.0,5.0,539.7781040001064,4.0,0.0,part_2,stop,600.0,600.0,3.0,,,,,,,,,green,hexagon
0.0,8.0,4.0,1.0,5.0,0.0,0.0,4.0,0.0,part_2,stop,550.0,600.0,4.0,,,,,,,,,magenta,flipped triangle
0.0,4.0,4.0,0.0,5.0,5.0,911.9165619999876,4.0,0.0,part_2,go,600.0,600.0,1.0,,,,,,,,,gray,I
0.0,7.0,3.0,1.0,6.0,6.0,569.7240439999405,4.0,0.0,part_2,stop,600.0,600.0,3.0,,,,,,,,,cyan,circle
0.0,8.0,4.0,1.0,6.0,0.0,0.0,4.0,0.0,part_2,stop,600.0,550.0,4.0,,,,,,,,,magenta,flipped triangle
0.0,1.0,1.0,0.0,6.0,6.0,1226.565092000328,4.0,0.0,part_2,go,600.0,600.0,1.0,,,,,,,,,white,cross
0.0,4.0,4.0,0.0,5.0,5.0,733.504443000129,4.0,0.0,part_2,go,600.0,600.0,1.0,,,,,,,,,gray,I
0.0,4.0,4.0,0.0,5.0,5.0,717.0346640000389,4.0,0.0,part_2,go,600.0,600.0,1.0,,,,,,,,,gray,I
0.0,5.0,1.0,1.0,5.0,6.0,568.6648979999518,4.0,0.0,part_2,go,600.0,600.0,2.0,,,,,,,,,yellow,triangle
0.0,5.0,1.0,1.0,5.0,5.0,362.6157440003226,4.0,0.0,part_2,stop,600.0,600.0,3.0,,,,,,,,,yellow,triangle
0.0,6.0,2.0,1.0,6.0,0.0,0.0,4.0,0.0,part_2,stop,550.0,600.0,4.0,,,,,,,,,green,hexagon
0.0,5.0,1.0,1.0,6.0,6.0,751.9155049999426,4.0,0.0,part_2,stop,550.0,650.0,3.0,,,,,,,,,yellow,triangle
0.0,1.0,1.0,0.0,6.0,6.0,1006.7966209999213,4.0,0.0,part_2,go,550.0,600.0,1.0,,,,,,,,,white,cross
0.0,8.0,4.0,1.0,6.0,0.0,0.0,4.0,0.0,part_2,stop,550.0,600.0,4.0,,,,,,,,,magenta,flipped triangle
0.0,3.0,3.0,0.0,6.0,6.0,1004.874326999925,4.0,0.0,part_2,go,550.0,650.0,1.0,,,,,,,,,orange,diamond
0.0,2.0,2.0,0.0,6.0,6.0,791.5959039996778,4.0,0.0,part_2,go,550.0,650.0,1.0,,,,,,,,,blue,square
0.0,3.0,3.0,0.0,5.0,5.0,791.3305970000692,4.0,0.0,part_2,go,550.0,650.0,1.0,,,,,,,,,orange,diamond
0.0,7.0,3.0,1.0,5.0,5.0,817.6815189999616,4.0,0.0,part_2,go,550.0,650.0,1.0,,,,,,,,,cyan,circle
0.0,1.0,1.0,0.0,5.0,5.0,1100.1300600000832,4.0,0.0,part_2,go,550.0,650.0,1.0,,,,,,,,,white,cross
0.0,5.0,1.0,1.0,5.0,5.0,1022.3259990002589,4.0,0.0,part_2,go,550.0,650.0,1.0,,,,,,,,,yellow,triangle
0.0,6.0,2.0,1.0,6.0,6.0,738.5017379997407,4.0,0.0,part_2,stop,550.0,650.0,3.0,,,,,,,,,green,hexagon
0.0,3.0,3.0,0.0,5.0,0.0,0.0,4.0,0.0,part_2,go,550.0,600.0,5.0,,,,,,,,,orange,diamond
0.0,2.0,2.0,0.0,6.0,6.0,594.5116650000273,4.0,0.0,part_2,go,550.0,600.0,1.0,,,,,,,,,blue,square
0.0,1.0,1.0,0.0,5.0,5.0,865.2570809999816,4.0,0.0,part_2,go,550.0,600.0,1.0,,,,,,,,,white,cross
0.0,4.0,4.0,0.0,6.0,6.0,792.448370999864,4.0,0.0,part_2,go,550.0,600.0,1.0,,,,,,,,,gray,I
0.0,5.0,1.0,1.0,6.0,0.0,0.0,4.0,0.0,part_2,stop,550.0,600.0,4.0,,,,,,,,,yellow,triangle
0.0,2.0,2.0,0.0,6.0,0.0,0.0,5.0,0.0,part_2,go,550.0,650.0,5.0,,,,,,,,,blue,square
0.0,5.0,1.0,1.0,5.0,5.0,909.128765999867,5.0,0.0,part_2,stop,550.0,650.0,3.0,,,,,,,,,yellow,triangle
0.0,1.0,1.0,0.0,5.0,5.0,447.6085880000937,5.0,0.0,part_2,go,500.0,650.0,1.0,,,,,,,,,white,cross
0.0,5.0,1.0,1.0,5.0,5.0,673.4911150001608,5.0,0.0,part_2,stop,500.0,650.0,3.0,,,,,,,,,yellow,triangle
0.0,8.0,4.0,1.0,5.0,5.0,1090.724337999745,5.0,0.0,part_2,go,450.0,650.0,1.0,,,,,,,,,magenta,flipped triangle
0.0,8.0,4.0,1.0,6.0,0.0,0.0,5.0,0.0,part_2,stop,450.0,650.0,4.0,,,,,,,,,magenta,flipped triangle
0.0,4.0,4.0,0.0,5.0,5.0,1462.116543999855,5.0,0.0,part_2,go,450.0,700.0,1.0,,,,,,,,,gray,I
0.0,1.0,1.0,0.0,6.0,6.0,875.6188120000843,5.0,0.0,part_2,go,450.0,700.0,1.0,,,,,,,,,white,cross
0.0,7.0,3.0,1.0,6.0,6.0,780.1270329996441,5.0,0.0,part_2,stop,450.0,700.0,3.0,,,,,,,,,cyan,circle
0.0,5.0,1.0,1.0,5.0,0.0,0.0,5.0,0.0,part_2,go,450.0,650.0,5.0,,,,,,,,,yellow,triangle
0.0,7.0,3.0,1.0,5.0,0.0,0.0,5.0,0.0,part_2,stop,450.0,650.0,4.0,,,,,,,,,cyan,circle
0.0,8.0,4.0,1.0,5.0,5.0,671.9735179999589,5.0,0.0,part_2,go,500.0,650.0,1.0,,,,,,,,,magenta,flipped triangle
0.0,5.0,1.0,1.0,5.0,0.0,0.0,5.0,0.0,part_2,stop,500.0,650.0,4.0,,,,,,,,,yellow,triangle
0.0,5.0,1.0,1.0,6.0,0.0,0.0,5.0,0.0,part_2,stop,550.0,650.0,4.0,,,,,,,,,yellow,triangle
0.0,8.0,4.0,1.0,5.0,0.0,0.0,5.0,0.0,part_2,stop,550.0,700.0,4.0,,,,,,,,,magenta,flipped triangle
0.0,4.0,4.0,0.0,5.0,5.0,1320.402558999831,5.0,0.0,part_2,go,600.0,700.0,1.0,,,,,,,,,gray,I
0.0,1.0,1.0,0.0,6.0,6.0,1042.6651860002494,5.0,0.0,part_2,go,600.0,700.0,1.0,,,,,,,,,white,cross
0.0,8.0,4.0,1.0,6.0,0.0,0.0,5.0,0.0,part_2,stop,600.0,700.0,4.0,,,,,,,,,magenta,flipped triangle
0.0,8.0,4.0,1.0,6.0,0.0,0.0,5.0,0.0,part_2,stop,600.0,750.0,4.0,,,,,,,,,magenta,flipped triangle
0.0,6.0,2.0,1.0,5.0,0.0,0.0,5.0,0.0,part_2,stop,600.0,800.0,4.0,,,,,,,,,green,hexagon
0.0,4.0,4.0,0.0,6.0,6.0,940.1628139999048,5.0,0.0,part_2,go,650.0,800.0,1.0,,,,,,,,,gray,I
0.0,4.0,4.0,0.0,6.0,6.0,867.0720989998699,5.0,0.0,part_2,go,650.0,800.0,1.0,,,,,,,,,gray,I
0.0,5.0,1.0,1.0,5.0,0.0,0.0,5.0,0.0,part_2,stop,650.0,800.0,4.0,,,,,,,,,yellow,triangle
0.0,7.0,3.0,1.0,5.0,0.0,0.0,5.0,0.0,part_2,stop,700.0,800.0,4.0,,,,,,,,,cyan,circle
0.0,6.0,2.0,1.0,6.0,0.0,0.0,5.0,0.0,part_2,stop,750.0,800.0,4.0,,,,,,,,,green,hexagon
0.0,4.0,4.0,0.0,6.0,6.0,977.35540199983,5.0,0.0,part_2,go,750.0,850.0,1.0,,,,,,,,,gray,I
0.0,5.0,1.0,1.0,5.0,0.0,0.0,5.0,0.0,part_2,stop,750.0,850.0,4.0,,,,,,,,,yellow,triangle
0.0,3.0,3.0,0.0,5.0,5.0,1174.7706480000488,5.0,0.0,part_2,go,800.0,850.0,1.0,,,,,,,,,orange,diamond
0.0,1.0,1.0,0.0,5.0,5.0,1137.656912000239,5.0,0.0,part_2,go,800.0,850.0,1.0,,,,,,,,,white,cross
0.0,8.0,4.0,1.0,6.0,6.0,904.6858699998666,5.0,0.0,part_2,stop,800.0,850.0,3.0,,,,,,,,,magenta,flipped triangle
0.0,8.0,4.0,1.0,5.0,5.0,1152.8964690000976,5.0,0.0,part_2,go,800.0,800.0,1.0,,,,,,,,,magenta,flipped triangle
0.0,2.0,2.0,0.0,5.0,5.0,1033.9549630002691,5.0,0.0,part_2,go,800.0,800.0,1.0,,,,,,,,,blue,square
0.0,3.0,3.0,0.0,6.0,6.0,735.5744579999737,5.0,0.0,part_2,go,800.0,800.0,1.0,,,,,,,,,orange,diamond
0.0,5.0,1.0,1.0,5.0,5.0,881.3945169999897,5.0,0.0,part_2,stop,800.0,800.0,3.0,,,,,,,,,yellow,triangle
0.0,7.0,3.0,1.0,6.0,6.0,995.3631240000504,5.0,0.0,part_2,go,750.0,800.0,1.0,,,,,,,,,cyan,circle
0.0,6.0,2.0,1.0,5.0,0.0,0.0,5.0,0.0,part_2,stop,750.0,800.0,4.0,,,,,,,,,green,hexagon
0.0,5.0,1.0,1.0,6.0,6.0,1332.0748829996774,6.0,0.0,part_2,go,800.0,800.0,1.0,,,,,,,,,yellow,triangle
0.0,8.0,4.0,1.0,6.0,6.0,391.030383999805,6.0,0.0,part_2,go,800.0,800.0,1.0,,,,,,,,,magenta,flipped triangle
0.0,8.0,4.0,1.0,5.0,5.0,540.4490360001546,6.0,0.0,part_2,stop,800.0,800.0,3.0,,,,,,,,,magenta,flipped triangle
0.0,2.0,2.0,0.0,5.0,5.0,1267.5122099999498,6.0,0.0,part_2,go,750.0,800.0,1.0,,,,,,,,,blue,square
0.0,2.0,2.0,0.0,6.0,6.0,914.2195199997332,6.0,0.0,part_2,go,750.0,800.0,1.0,,,,,,,,,blue,square
0.0,6.0,2.0,1.0,6.0,6.0,844.8979849999887,6.0,0.0,part_2,go,750.0,800.0,1.0,,,,,,,,,green,hexagon
0.0,8.0,4.0,1.0,5.0,5.0,577.9167679997954,6.0,0.0,part_2,stop,750.0,800.0,3.0,,,,,,,,,magenta,flipped triangle
0.0,2.0,2.0,0.0,6.0,0.0,0.0,6.0,0.0,part_2,go,700.0,800.0,5.0,,,,,,,,,blue,square
0.0,3.0,3.0,0.0,6.0,6.0,1024.5827929998086,6.0,0.0,part_2,go,700.0,800.0,1.0,,,,,,,,,orange,diamond
0.0,3.0,3.0,0.0,6.0,6.0,1087.8272799996012,6.0,0.0,part_2,go,700.0,800.0,1.0,,,,,,,,,orange,diamond
0.0,5.0,1.0,1.0,5.0,5.0,1398.4730419997504,6.0,0.0,part_2,go,700.0,800.0,1.0,,,,,,,,,yellow,triangle
0.0,2.0,2.0,0.0,5.0,5.0,972.3222749998968,6.0,0.0,part_2,go,700.0,800.0,1.0,,,,,,,,,blue,square
0.0,6.0,2.0,1.0,6.0,6.0,1026.592478999646,6.0,0.0,part_2,go,700.0,800.0,1.0,,,,,,,,,green,hexagon
0.0,4.0,4.0,0.0,6.0,6.0,764.4092729997283,6.0,0.0,part_2,go,700.0,800.0,1.0,,,,,,,,,gray,I
0.0,7.0,3.0,1.0,5.0,5.0,846.5097620000961,6.0,0.0,part_2,stop,700.0,800.0,3.0,,,,,,,,,cyan,circle
0.0,2.0,2.0,0.0,5.0,0.0,0.0,6.0,0.0,part_2,go,650.0,800.0,5.0,,,,,,,,,blue,square
0.0,4.0,4.0,0.0,5.0,0.0,0.0,6.0,0.0,part_2,go,650.0,800.0,5.0,,,,,,,,,gray,I
0.0,3.0,3.0,0.0,5.0,5.0,820.5808940001589,6.0,0.0,part_2,go,650.0,800.0,1.0,,,,,,,,,orange,diamond
0.0,3.0,3.0,0.0,5.0,5.0,708.4465230000205,6.0,0.0,part_2,go,650.0,800.0,1.0,,,,,,,,,orange,diamond
0.0,4.0,4.0,0.0,6.0,6.0,756.1394610002026,6.0,0.0,part_2,go,650.0,800.0,1.0,,,,,,,,,gray,I
0.0,4.0,4.0,0.0,5.0,5.0,439.1883809998944,6.0,0.0,part_2,go,650.0,800.0,1.0,,,,,,,,,gray,I
0.0,2.0,2.0,0.0,5.0,5.0,476.8876580001233,6.0,0.0,part_2,go,650.0,800.0,1.0,,,,,,,,,blue,square
0.0,3.0,3.0,0.0,5.0,5.0,495.5207680000058,6.0,0.0,part_2,go,650.0,800.0,1.0,,,,,,,,,orange,diamond
0.0,7.0,3.0,1.0,5.0,5.0,420.3066009999929,6.0,0.0,part_2,stop,650.0,800.0,3.0,,,,,,,,,cyan,circle
0.0,1.0,1.0,0.0,5.0,5.0,690.4309599999578,6.0,0.0,part_2,go,600.0,800.0,1.0,,,,,,,,,white,cross
0.0,6.0,2.0,1.0,6.0,0.0,0.0,6.0,0.0,part_2,stop,600.0,800.0,4.0,,,,,,,,,green,hexagon
0.0,1.0,1.0,0.0,6.0,6.0,1145.983335999972,6.0,0.0,part_2,go,600.0,850.0,1.0,,,,,,,,,white,cross
0.0,3.0,3.0,0.0,6.0,0.0,0.0,6.0,0.0,part_2,go,600.0,850.0,5.0,,,,,,,,,orange,diamond
0.0,6.0,2.0,1.0,5.0,5.0,890.0350200001412,6.0,0.0,part_2,stop,600.0,850.0,3.0,,,,,,,,,green,hexagon
0.0,2.0,2.0,0.0,5.0,5.0,1304.8132120002265,6.0,0.0,part_2,go,550.0,850.0,1.0,,,,,,,,,blue,square
0.0,3.0,3.0,0.0,6.0,6.0,1007.2622269999556,6.0,0.0,part_2,go,550.0,850.0,1.0,,,,,,,,,orange,diamond
0.0,6.0,2.0,1.0,5.0,0.0,0.0,6.0,0.0,part_2,stop,550.0,850.0,4.0,,,,,,,,,green,hexagon
0.0,3.0,3.0,0.0,5.0,5.0,998.6893759996748,6.0,0.0,part_2,go,600.0,850.0,1.0,,,,,,,,,orange,diamond
0.0,5.0,1.0,1.0,6.0,0.0,0.0,6.0,0.0,part_2,stop,600.0,850.0,4.0,,,,,,,,,yellow,triangle
0.0,8.0,4.0,1.0,6.0,6.0,949.0864519998468,6.0,0.0,part_2,stop,600.0,900.0,3.0,,,,,,,,,magenta,flipped triangle
0.0,1.0,1.0,0.0,6.0,6.0,873.0191740000919,6.0,0.0,part_2,go,600.0,850.0,1.0,,,,,,,,,white,cross
0.0,3.0,3.0,0.0,5.0,0.0,0.0,7.0,0.0,part_2,go,600.0,850.0,5.0,,,,,,,,,orange,diamond
0.0,4.0,4.0,0.0,6.0,6.0,1451.7966869998418,7.0,0.0,part_2,go,600.0,850.0,1.0,,,,,,,,,gray,I
0.0,1.0,1.0,0.0,5.0,5.0,928.4791150003002,7.0,0.0,part_2,go,600.0,850.0,1.0,,,,,,,,,white,cross
0.0,6.0,2.0,1.0,6.0,6.0,1038.019646000066,7.0,0.0,part_2,stop,600.0,850.0,3.0,,,,,,,,,green,hexagon
0.0,5.0,1.0,1.0,6.0,0.0,0.0,7.0,0.0,part_2,stop,600.0,800.0,4.0,,,,,,,,,yellow,triangle
0.0,2.0,2.0,0.0,6.0,0.0,0.0,7.0,0.0,part_2,go,600.0,850.0,5.0,,,,,,,,,blue,square
0.0,6.0,2.0,1.0,6.0,6.0,959.9227759999848,7.0,0.0,part_2,go,600.0,850.0,1.0,,,,,,,,,green,hexagon
0.0,2.0,2.0,0.0,5.0,5.0,1313.6547089998205,7.0,0.0,part_2,go,600.0,850.0,1.0,,,,,,,,,blue,square
0.0,2.0,2.0,0.0,6.0,6.0,1079.2703930001153,7.0,0.0,part_2,go,600.0,850.0,1.0,,,,,,,,,blue,square
0.0,8.0,4.0,1.0,6.0,6.0,890.114795000045,7.0,0.0,part_2,stop,600.0,850.0,3.0,,,,,,,,,magenta,flipped triangle
0.0,4.0,4.0,0.0,5.0,0.0,0.0,7.0,0.0,part_2,go,600.0,800.0,5.0,,,,,,,,,gray,I
0.0,1.0,1.0,0.0,6.0,6.0,854.9472620002234,7.0,0.0,part_2,go,600.0,800.0,1.0,,,,,,,,,white,cross
0.0,6.0,2.0,1.0,6.0,6.0,950.935859999845,7.0,0.0,part_2,go,600.0,800.0,1.0,,,,,,,,,green,hexagon
0.0,5.0,1.0,1.0,6.0,6.0,559.7736999998233,7.0,0.0,part_2,stop,600.0,800.0,3.0,,,,,,,,,yellow,triangle
0.0,7.0,3.0,1.0,6.0,6.0,985.3624470001704,7.0,0.0,part_2,go,600.0,750.0,1.0,,,,,,,,,cyan,circle
0.0,5.0,1.0,1.0,6.0,6.0,904.6890509998776,7.0,0.0,part_2,stop,600.0,750.0,3.0,,,,,,,,,yellow,triangle
0.0,7.0,3.0,1.0,5.0,0.0,0.0,7.0,0.0,part_2,stop,600.0,700.0,4.0,,,,,,,,,cyan,circle
0.0,5.0,1.0,1.0,5.0,0.0,0.0,7.0,0.0,part_2,stop,650.0,700.0,4.0,,,,,,,,,yellow,triangle
0.0,4.0,4.0,0.0,5.0,5.0,1107.6908220002224,7.0,0.0,part_2,go,700.0,700.0,1.0,,,,,,,,,gray,I
0.0,7.0,3.0,1.0,5.0,0.0,0.0,7.0,0.0,part_2,stop,700.0,700.0,4.0,,,,,,,,,cyan,circle
0.0,2.0,2.0,0.0,6.0,6.0,1239.996223000162,7.0,0.0,part_2,go,750.0,700.0,1.0,,,,,,,,,blue,square
0.0,8.0,4.0,1.0,6.0,6.0,1190.1471830001356,7.0,0.0,part_2,go,750.0,700.0,1.0,,,,,,,,,magenta,flipped triangle
0.0,4.0,4.0,0.0,5.0,5.0,1004.4060100003662,7.0,0.0,part_2,go,750.0,700.0,1.0,,,,,,,,,gray,I
0.0,2.0,2.0,0.0,6.0,6.0,1007.6646620000247,7.0,0.0,part_2,go,750.0,700.0,1.0,,,,,,,,,blue,square
0.0,1.0,1.0,0.0,6.0,6.0,892.4975530003394,7.0,0.0,part_2,go,750.0,700.0,1.0,,,,,,,,,white,cross
0.0,1.0,1.0,0.0,5.0,5.0,1050.5911469999774,7.0,0.0,part_2,go,750.0,700.0,1.0,,,,,,,,,white,cross
0.0,4.0,4.0,0.0,6.0,6.0,939.888258999872,7.0,0.0,part_2,go,750.0,700.0,1.0,,,,,,,,,gray,I
0.0,4.0,4.0,0.0,6.0,6.0,1062.956148000012,7.0,0.0,part_2,go,750.0,700.0,1.0,,,,,,,,,gray,I
0.0,6.0,2.0,1.0,6.0,0.0,0.0,7.0,0.0,part_2,stop,750.0,700.0,4.0,,,,,,,,,green,hexagon
0.0,6.0,2.0,1.0,6.0,0.0,0.0,7.0,0.0,part_2,stop,750.0,750.0,4.0,,,,,,,,,green,hexagon
0.0,4.0,4.0,0.0,6.0,6.0,1142.735530000209,7.0,0.0,part_2,go,750.0,800.0,1.0,,,,,,,,,gray,I
0.0,2.0,2.0,0.0,6.0,6.0,1227.9247179999402,7.0,0.0,part_2,go,750.0,800.0,1.0,,,,,,,,,blue,square
0.0,2.0,2.0,0.0,5.0,5.0,1273.870934000115,7.0,0.0,part_2,go,750.0,800.0,1.0,,,,,,,,,blue,square
0.0,6.0,2.0,1.0,6.0,0.0,0.0,7.0,0.0,part_2,stop,750.0,800.0,4.0,,,,,,,,,green,hexagon
0.0,7.0,3.0,1.0,6.0,0.0,0.0,7.0,0.0,part_2,stop,750.0,850.0,4.0,,,,,,,,,cyan,circle
0.0,6.0,2.0,1.0,5.0,0.0,0.0,7.0,0.0,part_2,stop,750.0,900.0,4.0,,,,,,,,,green,hexagon
0.0,3.0,3.0,0.0,5.0,5.0,1034.5551150003305,8.0,0.0,part_2,go,800.0,900.0,1.0,,,,,,,,,orange,diamond
0.0,7.0,3.0,1.0,5.0,5.0,494.3737640001018,8.0,0.0,part_2,stop,800.0,900.0,3.0,,,,,,,,,cyan,circle
0.0,7.0,3.0,1.0,6.0,6.0,1029.9426569999923,8.0,0.0,part_2,stop,750.0,900.0,3.0,,,,,,,,,cyan,circle
0.0,7.0,3.0,1.0,5.0,0.0,0.0,8.0,0.0,part_2,stop,750.0,850.0,4.0,,,,,,,,,cyan,circle
0.0,5.0,1.0,1.0,6.0,6.0,1404.8135359998923,8.0,0.0,part_2,go,800.0,850.0,1.0,,,,,,,,,yellow,triangle
0.0,7.0,3.0,1.0,6.0,0.0,0.0,8.0,0.0,part_2,stop,800.0,850.0,4.0,,,,,,,,,cyan,circle
0.0,7.0,3.0,1.0,5.0,0.0,0.0,8.0,0.0,part_2,go,800.0,900.0,5.0,,,,,,,,,cyan,circle
0.0,6.0,2.0,1.0,5.0,0.0,0.0,8.0,0.0,part_2,stop,800.0,900.0,4.0,,,,,,,,,green,hexagon
0.0,7.0,3.0,1.0,6.0,6.0,1057.6904690001356,8.0,0.0,part_2,go,850.0,900.0,1.0,,,,,,,,,cyan,circle
0.0,6.0,2.0,1.0,6.0,0.0,0.0,8.0,0.0,part_2,stop,850.0,900.0,4.0,,,,,,,,,green,hexagon
0.0,3.0,3.0,0.0,6.0,6.0,1181.458394999936,8.0,0.0,part_2,go,850.0,950.0,1.0,,,,,,,,,orange,diamond
0.0,1.0,1.0,0.0,5.0,5.0,1144.4898419999845,8.0,0.0,part_2,go,850.0,950.0,1.0,,,,,,,,,white,cross
0.0,3.0,3.0,0.0,5.0,5.0,1368.3705530002044,8.0,0.0,part_2,go,850.0,950.0,1.0,,,,,,,,,orange,diamond
0.0,2.0,2.0,0.0,5.0,5.0,931.845523999982,8.0,0.0,part_2,go,850.0,950.0,1.0,,,,,,,,,blue,square
0.0,1.0,1.0,0.0,5.0,0.0,0.0,8.0,0.0,part_2,go,850.0,950.0,5.0,,,,,,,,,white,cross
0.0,6.0,2.0,1.0,5.0,0.0,0.0,8.0,0.0,part_2,stop,850.0,950.0,4.0,,,,,,,,,green,hexagon
0.0,3.0,3.0,0.0,6.0,6.0,1264.9230509996414,8.0,0.0,part_2,go,900.0,950.0,1.0,,,,,,,,,orange,diamond
0.0,7.0,3.0,1.0,6.0,6.0,585.6477649999761,8.0,0.0,part_2,stop,900.0,950.0,3.0,,,,,,,,,cyan,circle
0.0,2.0,2.0,0.0,5.0,0.0,0.0,8.0,0.0,part_2,go,900.0,900.0,5.0,,,,,,,,,blue,square
0.0,8.0,4.0,1.0,5.0,0.0,0.0,8.0,0.0,part_2,stop,900.0,900.0,4.0,,,,,,,,,magenta,flipped triangle
0.0,8.0,4.0,1.0,6.0,6.0,1105.5514659997243,8.0,0.0,part_2,go,950.0,900.0,1.0,,,,,,,,,magenta,flipped triangle
0.0,3.0,3.0,0.0,6.0,6.0,931.3114830001724,8.0,0.0,part_2,go,950.0,900.0,1.0,,,,,,,,,orange,diamond
0.0,1.0,1.0,0.0,5.0,0.0,0.0,8.0,0.0,part_2,go,950.0,900.0,5.0,,,,,,,,,white,cross
0.0,5.0,1.0,1.0,5.0,0.0,0.0,8.0,0.0,part_2,stop,950.0,900.0,4.0,,,,,,,,,yellow,triangle
0.0,8.0,4.0,1.0,6.0,6.0,930.04860200017,8.0,0.0,part_2,stop,1000.0,900.0,3.0,,,,,,,,,magenta,flipped triangle
0.0,7.0,3.0,1.0,5.0,5.0,910.9976299996559,8.0,0.0,part_2,stop,1000.0,850.0,3.0,,,,,,,,,cyan,circle
0.0,3.0,3.0,0.0,5.0,0.0,0.0,8.0,0.0,part_2,go,950.0,850.0,5.0,,,,,,,,,orange,diamond
0.0,1.0,1.0,0.0,5.0,5.0,948.308349999934,8.0,0.0,part_2,go,950.0,850.0,1.0,,,,,,,,,white,cross
0.0,6.0,2.0,1.0,6.0,6.0,418.7627209998936,8.0,0.0,part_2,stop,950.0,850.0,3.0,,,,,,,,,green,hexagon
0.0,1.0,1.0,0.0,5.0,5.0,1394.609642999967,8.0,0.0,part_2,go,950.0,800.0,1.0,,,,,,,,,white,cross
0.0,7.0,3.0,1.0,5.0,5.0,1057.6140890002534,8.0,0.0,part_2,stop,950.0,800.0,3.0,,,,,,,,,cyan,circle
0.0,5.0,1.0,1.0,6.0,0.0,0.0,8.0,0.0,part_2,stop,900.0,800.0,4.0,,,,,,,,,yellow,triangle
0.0,6.0,2.0,1.0,5.0,0.0,0.0,8.0,0.0,part_2,go,900.0,850.0,5.0,,,,,,,,,green,hexagon
0.0,2.0,2.0,0.0,5.0,5.0,810.2394229999845,8.0,0.0,part_2,go,900.0,850.0,1.0,,,,,,,,,blue,square
0.0,8.0,4.0,1.0,6.0,6.0,714.4623180001872,8.0,0.0,part_2,stop,900.0,850.0,3.0,,,,,,,,,magenta,flipped triangle
0.0,4.0,4.0,0.0,6.0,6.0,1262.7143609997802,8.0,0.0,part_2,go,900.0,800.0,1.0,,,,,,,,,gray,I
0.0,2.0,2.0,0.0,7.0,4.0,703.4651579997444,1.0,2.0,part_3,go,0.0,0.0,0.0,960.0,5.0,1152.0,192.0,576.0,960.0,384.0,768.0,blue,square
0.0,2.0,2.0,0.0,7.0,2.0,3223.343321000357,1.0,1.0,part_3,go,0.0,0.0,0.0,770.0,5.0,154.0,770.0,308.0,462.0,924.0,616.0,blue,square
0.0,6.0,2.0,1.0,7.0,5.0,2367.3752759996205,1.0,1.0,part_3,go,0.0,0.0,0.0,270.0,2.0,135.0,540.0,675.0,405.0,270.0,810.0,green,hexagon
0.0,6.0,2.0,1.0,7.0,2.0,1714.801549000185,1.0,1.0,part_3,go,0.0,0.0,0.0,768.0,4.0,576.0,768.0,960.0,1152.0,384.0,192.0,green,hexagon
0.0,3.0,3.0,0.0,7.0,1.0,2060.4531610006234,1.0,1.0,part_3,go,0.0,0.0,0.0,675.0,5.0,675.0,810.0,270.0,135.0,540.0,405.0,orange,diamond
0.0,6.0,2.0,1.0,7.0,3.0,2009.314507999989,1.0,1.0,part_3,go,0.0,0.0,0.0,580.0,5.0,116.0,348.0,580.0,696.0,232.0,464.0,green,hexagon
0.0,1.0,1.0,0.0,7.0,6.0,1600.4823250004847,1.0,1.0,part_3,go,0.0,0.0,0.0,576.0,3.0,1152.0,960.0,192.0,384.0,768.0,576.0,white,cross
0.0,4.0,4.0,0.0,7.0,6.0,1054.1260630006946,1.0,1.0,part_3,go,0.0,0.0,0.0,924.0,6.0,308.0,770.0,462.0,154.0,616.0,924.0,gray,I
0.0,5.0,1.0,1.0,7.0,4.0,870.5814349996217,1.0,1.0,part_3,go,0.0,0.0,0.0,540.0,4.0,135.0,675.0,270.0,540.0,405.0,810.0,yellow,triangle
0.0,4.0,4.0,0.0,7.0,5.0,656.9110200007344,1.0,1.0,part_3,go,0.0,0.0,0.0,519.0,3.0,346.0,1038.0,692.0,865.0,519.0,173.0,gray,I
0.0,4.0,4.0,0.0,7.0,6.0,1160.0187000003643,1.0,1.0,part_3,go,0.0,0.0,0.0,116.0,1.0,348.0,696.0,232.0,464.0,580.0,116.0,gray,I
0.0,1.0,1.0,0.0,7.0,3.0,1294.7281619999558,1.0,1.0,part_3,go,0.0,0.0,0.0,540.0,4.0,405.0,675.0,540.0,270.0,135.0,810.0,white,cross
0.0,4.0,4.0,0.0,7.0,1.0,1380.5723900004525,1.0,1.0,part_3,go,0.0,0.0,0.0,192.0,1.0,192.0,384.0,1152.0,960.0,576.0,768.0,gray,I
0.0,1.0,1.0,0.0,7.0,3.0,1406.658948999393,1.0,1.0,part_3,go,0.0,0.0,0.0,1038.0,6.0,173.0,346.0,1038.0,692.0,519.0,865.0,white,cross
0.0,6.0,2.0,1.0,7.0,4.0,1019.0970200001177,1.0,1.0,part_3,go,0.0,0.0,0.0,519.0,3.0,692.0,1038.0,346.0,519.0,173.0,865.0,green,hexagon
0.0,1.0,1.0,0.0,7.0,3.0,1063.9233259998946,1.0,1.0,part_3,go,0.0,0.0,0.0,1038.0,6.0,346.0,173.0,1038.0,865.0,519.0,692.0,white,cross
0.0,4.0,4.0,0.0,7.0,3.0,1575.7843909996154,1.0,1.0,part_3,go,0.0,0.0,0.0,346.0,2.0,519.0,865.0,346.0,173.0,1038.0,692.0,gray,I
0.0,8.0,4.0,1.0,7.0,3.0,945.7315539993942,1.0,1.0,part_3,go,0.0,0.0,0.0,405.0,3.0,810.0,540.0,405.0,135.0,270.0,675.0,magenta,flipped triangle
0.0,5.0,1.0,1.0,7.0,5.0,796.4483779996954,1.0,1.0,part_3,go,0.0,0.0,0.0,348.0,3.0,580.0,464.0,696.0,232.0,348.0,116.0,yellow,triangle
0.0,8.0,4.0,1.0,7.0,5.0,769.6766789995308,1.0,1.0,part_3,go,0.0,0.0,0.0,810.0,6.0,540.0,270.0,135.0,405.0,810.0,675.0,magenta,flipped triangle
0.0,6.0,2.0,1.0,7.0,3.0,1221.612475999791,2.0,1.0,part_3,go,0.0,0.0,0.0,675.0,5.0,810.0,135.0,675.0,270.0,540.0,405.0,green,hexagon
0.0,1.0,1.0,0.0,7.0,3.0,407.8980880003655,2.0,1.0,part_3,go,0.0,0.0,0.0,576.0,3.0,1152.0,768.0,576.0,960.0,384.0,192.0,white,cross
0.0,4.0,4.0,0.0,7.0,3.0,334.6720430008645,2.0,1.0,part_3,go,0.0,0.0,0.0,675.0,5.0,405.0,810.0,675.0,135.0,270.0,540.0,gray,I
0.0,5.0,1.0,1.0,7.0,3.0,1792.6529839996874,2.0,1.0,part_3,go,0.0,0.0,0.0,540.0,4.0,270.0,405.0,540.0,810.0,135.0,675.0,yellow,triangle
0.0,5.0,1.0,1.0,7.0,3.0,847.0719650003957,2.0,1.0,part_3,go,0.0,0.0,0.0,768.0,4.0,1152.0,384.0,768.0,192.0,576.0,960.0,yellow,triangle
0.0,2.0,2.0,0.0,7.0,3.0,578.7664099998437,2.0,1.0,part_3,go,0.0,0.0,0.0,346.0,2.0,519.0,865.0,346.0,1038.0,692.0,173.0,blue,square
0.0,3.0,3.0,0.0,7.0,4.0,610.7253279997167,2.0,1.0,part_3,go,0.0,0.0,0.0,576.0,3.0,192.0,1152.0,768.0,576.0,384.0,960.0,orange,diamond
0.0,5.0,1.0,1.0,7.0,5.0,981.2140349995389,2.0,1.0,part_3,go,0.0,0.0,0.0,924.0,6.0,616.0,308.0,154.0,770.0,924.0,462.0,yellow,triangle
0.0,2.0,2.0,0.0,7.0,5.0,510.2287740000975,2.0,1.0,part_3,go,0.0,0.0,0.0,770.0,5.0,154.0,308.0,616.0,462.0,770.0,924.0,blue,square
0.0,8.0,4.0,1.0,7.0,5.0,528.310428999248,2.0,1.0,part_3,go,0.0,0.0,0.0,580.0,5.0,348.0,232.0,464.0,116.0,580.0,696.0,magenta,flipped triangle
0.0,1.0,1.0,0.0,7.0,6.0,555.0868029995399,2.0,1.0,part_3,go,0.0,0.0,0.0,675.0,5.0,135.0,270.0,810.0,405.0,540.0,675.0,white,cross
0.0,3.0,3.0,0.0,7.0,6.0,519.0691609996065,2.0,1.0,part_3,go,0.0,0.0,0.0,580.0,5.0,348.0,696.0,464.0,232.0,116.0,580.0,orange,diamond
0.0,3.0,3.0,0.0,7.0,6.0,1157.0322990000932,2.0,1.0,part_3,go,0.0,0.0,0.0,810.0,6.0,675.0,270.0,405.0,135.0,540.0,810.0,orange,diamond
0.0,1.0,1.0,0.0,7.0,1.0,1551.7445839996071,2.0,1.0,part_3,go,0.0,0.0,0.0,696.0,6.0,696.0,116.0,232.0,348.0,464.0,580.0,white,cross
0.0,7.0,3.0,1.0,7.0,4.0,435.2062019997902,2.0,1.0,part_3,go,0.0,0.0,0.0,405.0,3.0,810.0,675.0,540.0,405.0,135.0,270.0,cyan,circle
0.0,3.0,3.0,0.0,7.0,4.0,557.171797000592,2.0,1.0,part_3,go,0.0,0.0,0.0,770.0,5.0,924.0,616.0,154.0,770.0,462.0,308.0,orange,diamond
0.0,8.0,4.0,1.0,7.0,4.0,417.1006839997062,2.0,1.0,part_3,go,0.0,0.0,0.0,173.0,1.0,865.0,519.0,346.0,173.0,1038.0,692.0,magenta,flipped triangle
0.0,7.0,3.0,1.0,7.0,4.0,1852.2857280004248,2.0,1.0,part_3,go,0.0,0.0,0.0,462.0,3.0,308.0,154.0,924.0,462.0,770.0,616.0,cyan,circle
0.0,6.0,2.0,1.0,7.0,3.0,1901.1071909999373,2.0,1.0,part_3,go,0.0,0.0,0.0,308.0,2.0,770.0,462.0,308.0,924.0,154.0,616.0,green,hexagon
0.0,7.0,3.0,1.0,7.0,6.0,1055.8222599993314,2.0,1.0,part_3,go,0.0,0.0,0.0,580.0,5.0,464.0,696.0,348.0,116.0,232.0,580.0,cyan,circle
0.0,4.0,4.0,0.0,7.0,5.0,1973.4130800006824,3.0,1.0,part_3,go,0.0,0.0,0.0,232.0,2.0,580.0,464.0,696.0,348.0,232.0,116.0,gray,I
0.0,6.0,2.0,1.0,7.0,6.0,2000.8518699996785,3.0,1.0,part_3,go,0.0,0.0,0.0,1152.0,6.0,576.0,192.0,768.0,384.0,960.0,1152.0,green,hexagon
0.0,1.0,1.0,0.0,7.0,1.0,2057.651896999232,3.0,1.0,part_3,go,0.0,0.0,0.0,696.0,6.0,696.0,232.0,464.0,348.0,580.0,116.0,white,cross
0.0,2.0,2.0,0.0,7.0,5.0,1258.619443000498,3.0,1.0,part_3,go,0.0,0.0,0.0,692.0,4.0,173.0,519.0,1038.0,865.0,692.0,346.0,blue,square
0.0,3.0,3.0,0.0,7.0,5.0,490.6888839996099,3.0,1.0,part_3,go,0.0,0.0,0.0,519.0,3.0,346.0,1038.0,173.0,692.0,519.0,865.0,orange,diamond
0.0,7.0,3.0,1.0,7.0,6.0,723.6524350000764,3.0,1.0,part_3,go,0.0,0.0,0.0,116.0,1.0,580.0,348.0,696.0,232.0,464.0,116.0,cyan,circle
0.0,7.0,3.0,1.0,7.0,6.0,455.7738389994483,3.0,1.0,part_3,go,0.0,0.0,0.0,865.0,5.0,173.0,519.0,692.0,1038.0,346.0,865.0,cyan,circle
0.0,8.0,4.0,1.0,7.0,6.0,455.9862660007638,3.0,1.0,part_3,go,0.0,0.0,0.0,770.0,5.0,154.0,616.0,462.0,924.0,308.0,770.0,magenta,flipped triangle
0.0,5.0,1.0,1.0,7.0,6.0,1641.69279700036,3.0,1.0,part_3,go,0.0,0.0,0.0,1038.0,6.0,692.0,865.0,346.0,519.0,173.0,1038.0,yellow,triangle
0.0,7.0,3.0,1.0,7.0,5.0,2019.412071999795,3.0,1.0,part_3,go,0.0,0.0,0.0,270.0,2.0,540.0,675.0,405.0,135.0,270.0,810.0,cyan,circle
0.0,4.0,4.0,0.0,7.0,1.0,2733.250873000543,3.0,1.0,part_3,go,0.0,0.0,0.0,1152.0,6.0,1152.0,384.0,960.0,768.0,192.0,576.0,gray,I
0.0,3.0,3.0,0.0,7.0,3.0,982.3050970007898,3.0,1.0,part_3,go,0.0,0.0,0.0,692.0,4.0,346.0,1038.0,692.0,519.0,865.0,173.0,orange,diamond
0.0,2.0,2.0,0.0,7.0,4.0,1245.1290740000331,3.0,1.0,part_3,go,0.0,0.0,0.0,232.0,2.0,696.0,116.0,464.0,232.0,348.0,580.0,blue,square
0.0,5.0,1.0,1.0,7.0,4.0,473.3192280000367,3.0,1.0,part_3,go,0.0,0.0,0.0,576.0,3.0,768.0,960.0,1152.0,576.0,384.0,192.0,yellow,triangle
0.0,5.0,1.0,1.0,7.0,4.0,464.455495999573,3.0,1.0,part_3,go,0.0,0.0,0.0,1038.0,6.0,519.0,692.0,173.0,1038.0,865.0,346.0,yellow,triangle
0.0,4.0,4.0,0.0,7.0,4.0,1094.9125859997366,3.0,1.0,part_3,go,0.0,0.0,0.0,405.0,3.0,810.0,540.0,270.0,405.0,675.0,135.0,gray,I
0.0,7.0,3.0,1.0,7.0,6.0,1076.2182320004283,3.0,1.0,part_3,go,0.0,0.0,0.0,960.0,5.0,384.0,192.0,576.0,1152.0,768.0,960.0,cyan,circle
0.0,5.0,1.0,1.0,7.0,6.0,606.2744689997999,3.0,1.0,part_3,go,0.0,0.0,0.0,232.0,2.0,696.0,464.0,348.0,116.0,580.0,232.0,yellow,triangle
0.0,7.0,3.0,1.0,7.0,5.0,558.066227999916,3.0,1.0,part_3,go,0.0,0.0,0.0,192.0,1.0,768.0,1152.0,960.0,576.0,192.0,384.0,cyan,circle
0.0,7.0,3.0,1.0,7.0,4.0,761.5305399995123,3.0,1.0,part_3,go,0.0,0.0,0.0,173.0,1.0,346.0,1038.0,692.0,173.0,519.0,865.0,cyan,circle
0.0,8.0,4.0,1.0,7.0,3.0,1547.3415970000133,4.0,1.0,part_3,go,0.0,0.0,0.0,348.0,3.0,580.0,464.0,348.0,232.0,116.0,696.0,magenta,flipped triangle
0.0,7.0,3.0,1.0,7.0,5.0,3838.2065920004607,4.0,1.0,part_3,go,0.0,0.0,0.0,462.0,3.0,616.0,924.0,154.0,308.0,462.0,770.0,cyan,circle
0.0,5.0,1.0,1.0,7.0,1.0,4286.191181000504,4.0,1.0,part_3,go,0.0,0.0,0.0,616.0,4.0,616.0,924.0,770.0,308.0,154.0,462.0,yellow,triangle
0.0,2.0,2.0,0.0,7.0,2.0,2248.1487899995045,4.0,1.0,part_3,go,0.0,0.0,0.0,810.0,6.0,540.0,810.0,675.0,270.0,405.0,135.0,blue,square
0.0,2.0,2.0,0.0,7.0,2.0,519.7762620000503,4.0,1.0,part_3,go,0.0,0.0,0.0,960.0,5.0,576.0,960.0,768.0,384.0,192.0,1152.0,blue,square
0.0,4.0,4.0,0.0,7.0,3.0,427.1520290003536,4.0,1.0,part_3,go,0.0,0.0,0.0,616.0,4.0,770.0,154.0,616.0,462.0,308.0,924.0,gray,I
0.0,6.0,2.0,1.0,7.0,4.0,536.9364939997467,4.0,1.0,part_3,go,0.0,0.0,0.0,770.0,5.0,308.0,462.0,616.0,770.0,154.0,924.0,green,hexagon
0.0,6.0,2.0,1.0,7.0,3.0,779.6640599999591,4.0,1.0,part_3,go,0.0,0.0,0.0,173.0,1.0,346.0,692.0,173.0,519.0,865.0,1038.0,green,hexagon
0.0,2.0,2.0,0.0,7.0,3.0,184.5784609995462,4.0,1.0,part_3,go,0.0,0.0,0.0,810.0,6.0,540.0,675.0,810.0,270.0,135.0,405.0,blue,square
0.0,3.0,3.0,0.0,7.0,3.0,769.6133649997137,4.0,1.0,part_3,go,0.0,0.0,0.0,960.0,5.0,768.0,576.0,960.0,384.0,192.0,1152.0,orange,diamond
0.0,8.0,4.0,1.0,7.0,3.0,964.3525080000472,4.0,1.0,part_3,go,0.0,0.0,0.0,192.0,1.0,576.0,768.0,192.0,384.0,1152.0,960.0,magenta,flipped triangle
0.0,8.0,4.0,1.0,7.0,6.0,1257.8414110002996,4.0,1.0,part_3,go,0.0,0.0,0.0,1152.0,6.0,768.0,192.0,960.0,576.0,384.0,1152.0,magenta,flipped triangle
0.0,8.0,4.0,1.0,7.0,5.0,1274.6866369998315,4.0,1.0,part_3,go,0.0,0.0,0.0,865.0,5.0,519.0,173.0,346.0,1038.0,865.0,692.0,magenta,flipped triangle
0.0,3.0,3.0,0.0,7.0,5.0,1222.0382250006878,4.0,1.0,part_3,go,0.0,0.0,0.0,924.0,6.0,462.0,770.0,154.0,308.0,924.0,616.0,orange,diamond
0.0,1.0,1.0,0.0,7.0,5.0,669.497023999611,4.0,1.0,part_3,go,0.0,0.0,0.0,924.0,6.0,154.0,462.0,616.0,770.0,924.0,308.0,white,cross
0.0,8.0,4.0,1.0,7.0,6.0,1398.8789810000526,4.0,1.0,part_3,go,0.0,0.0,0.0,770.0,5.0,154.0,462.0,308.0,924.0,616.0,770.0,magenta,flipped triangle
0.0,6.0,2.0,1.0,7.0,1.0,1729.3856119995326,4.0,1.0,part_3,go,0.0,0.0,0.0,696.0,6.0,696.0,464.0,116.0,580.0,348.0,232.0,green,hexagon
0.0,3.0,3.0,0.0,7.0,6.0,3070.241180999801,4.0,1.0,part_3,go,0.0,0.0,0.0,348.0,3.0,116.0,696.0,232.0,464.0,580.0,348.0,orange,diamond
0.0,1.0,1.0,0.0,7.0,6.0,2763.039195999226,4.0,1.0,part_3,go,0.0,0.0,0.0,154.0,1.0,616.0,308.0,924.0,770.0,462.0,154.0,white,cross
0.0,2.0,2.0,0.0,7.0,6.0,773.416807999638,4.0,1.0,part_3,go,0.0,0.0,0.0,116.0,1.0,696.0,580.0,232.0,348.0,464.0,116.0,blue,square
