raw_reward_magnitude,stim_reward,stepwise_reward_magnitude,paired_with_stopping,quadrant,response,reaction_time,block,num_trial_presentations,which_part,stop_signal_trial_type,left_SSD,right_SSD,accuracy,chosen_bidding_amount,chosen_bidding_level,possible_bid_1,possible_bid_2,possible_bid_3,possible_bid_4,possible_bid_5,possible_bid_6,color_text,shape_text
1324.0,8.0,4.0,1.0,4.0,4.0,434.1825529999141,1.0,1.0,part_1,,,,,,,,,,,,,white,hexagon
0.0,4.0,0.0,0.0,2.0,2.0,476.7074679999723,1.0,2.0,part_1,,,,,,,,,,,,,orange,square
0.0,6.0,0.0,1.0,1.0,1.0,499.5590260000426,1.0,1.0,part_1,,,,,,,,,,,,,cyan,cross
0.0,1.0,0.0,0.0,1.0,1.0,482.9219590000093,1.0,1.0,part_1,,,,,,,,,,,,,magenta,circle
656.0,3.0,3.0,0.0,1.0,1.0,375.4293939999797,1.0,1.0,part_1,,,,,,,,,,,,,blue,triangle
322.0,6.0,2.0,1.0,1.0,1.0,374.625301999913,1.0,1.0,part_1,,,,,,,,,,,,,cyan,cross
144.0,5.0,1.0,1.0,4.0,4.0,399.1605879999724,1.0,1.0,part_1,,,,,,,,,,,,,gray,I
0.0,8.0,0.0,1.0,1.0,1.0,496.4003540000021,1.0,1.0,part_1,,,,,,,,,,,,,white,hexagon
1312.0,4.0,4.0,0.0,3.0,3.0,441.0225340000124,1.0,1.0,part_1,,,,,,,,,,,,,orange,square
179.0,5.0,1.0,1.0,1.0,1.0,475.8118109999714,1.0,1.0,part_1,,,,,,,,,,,,,gray,I
0.0,8.0,0.0,1.0,4.0,4.0,385.1959510000142,1.0,1.0,part_1,,,,,,,,,,,,,white,hexagon
0.0,1.0,0.0,0.0,1.0,1.0,442.294846999971,1.0,1.0,part_1,,,,,,,,,,,,,magenta,circle
0.0,5.0,0.0,1.0,1.0,1.0,512.2744390000662,1.0,1.0,part_1,,,,,,,,,,,,,gray,I
314.0,2.0,2.0,0.0,2.0,2.0,467.9665099999965,1.0,1.0,part_1,,,,,,,,,,,,,yellow,diamond
317.0,2.0,2.0,0.0,4.0,4.0,385.1746469999852,1.0,1.0,part_1,,,,,,,,,,,,,yellow,diamond
317.0,6.0,2.0,1.0,4.0,4.0,485.8861999999817,1.0,1.0,part_1,,,,,,,,,,,,,cyan,cross
656.0,7.0,3.0,1.0,3.0,3.0,457.3540950000279,1.0,1.0,part_1,,,,,,,,,,,,,green,flipped triangle
0.0,5.0,0.0,1.0,3.0,3.0,483.4648940000079,1.0,1.0,part_1,,,,,,,,,,,,,gray,I
0.0,5.0,0.0,1.0,1.0,1.0,504.3955679999499,1.0,1.0,part_1,,,,,,,,,,,,,gray,I
322.0,2.0,2.0,0.0,2.0,2.0,477.212881000014,1.0,1.0,part_1,,,,,,,,,,,,,yellow,diamond
1324.0,8.0,4.0,1.0,4.0,4.0,382.5656550000076,1.0,1.0,part_1,,,,,,,,,,,,,white,hexagon
656.0,3.0,3.0,0.0,1.0,1.0,485.6978589999698,1.0,1.0,part_1,,,,,,,,,,,,,blue,triangle
164.0,5.0,1.0,1.0,1.0,1.0,521.7561069999874,1.0,1.0,part_1,,,,,,,,,,,,,gray,I
1302.0,8.0,4.0,1.0,3.0,3.0,450.5931970001029,1.0,1.0,part_1,,,,,,,,,,,,,white,hexagon
0.0,5.0,0.0,1.0,4.0,4.0,383.7060270000165,1.0,1.0,part_1,,,,,,,,,,,,,gray,I
643.0,3.0,3.0,0.0,2.0,2.0,421.8987760000345,1.0,1.0,part_1,,,,,,,,,,,,,blue,triangle
1323.0,4.0,4.0,0.0,3.0,3.0,424.9075239999911,1.0,1.0,part_1,,,,,,,,,,,,,orange,square
642.0,3.0,3.0,0.0,4.0,4.0,373.082826999962,1.0,1.0,part_1,,,,,,,,,,,,,blue,triangle
0.0,3.0,0.0,0.0,4.0,4.0,379.2488970000249,1.0,1.0,part_1,,,,,,,,,,,,,blue,triangle
159.0,5.0,1.0,1.0,3.0,3.0,414.0915570000061,1.0,1.0,part_1,,,,,,,,,,,,,gray,I
626.0,3.0,3.0,0.0,3.0,3.0,344.4500260000041,1.0,1.0,part_1,,,,,,,,,,,,,blue,triangle
657.0,3.0,3.0,0.0,4.0,4.0,372.8186600000072,1.0,1.0,part_1,,,,,,,,,,,,,blue,triangle
174.0,5.0,1.0,1.0,1.0,1.0,457.8197549999458,1.0,1.0,part_1,,,,,,,,,,,,,gray,I
345.0,6.0,2.0,1.0,4.0,4.0,461.4005879999467,1.0,1.0,part_1,,,,,,,,,,,,,cyan,cross
307.0,6.0,2.0,1.0,3.0,3.0,397.9547359999742,1.0,1.0,part_1,,,,,,,,,,,,,cyan,cross
146.0,1.0,1.0,0.0,1.0,1.0,495.6816919999482,1.0,1.0,part_1,,,,,,,,,,,,,magenta,circle
1279.0,8.0,4.0,1.0,4.0,4.0,337.4416469999914,1.0,1.0,part_1,,,,,,,,,,,,,white,hexagon
0.0,4.0,0.0,0.0,3.0,3.0,373.3089510000127,1.0,1.0,part_1,,,,,,,,,,,,,orange,square
316.0,2.0,2.0,0.0,2.0,2.0,570.9973739999441,1.0,1.0,part_1,,,,,,,,,,,,,yellow,diamond
1297.0,4.0,4.0,0.0,4.0,4.0,384.125246999929,1.0,1.0,part_1,,,,,,,,,,,,,orange,square
653.0,3.0,3.0,0.0,4.0,4.0,546.808814999963,1.0,1.0,part_1,,,,,,,,,,,,,blue,triangle
1323.0,4.0,4.0,0.0,2.0,2.0,559.3896230000155,1.0,1.0,part_1,,,,,,,,,,,,,orange,square
0.0,5.0,0.0,1.0,1.0,1.0,570.9972779999362,1.0,1.0,part_1,,,,,,,,,,,,,gray,I
140.0,1.0,1.0,0.0,1.0,1.0,476.2052400000129,1.0,1.0,part_1,,,,,,,,,,,,,magenta,circle
310.0,6.0,2.0,1.0,1.0,1.0,453.3396809999885,1.0,1.0,part_1,,,,,,,,,,,,,cyan,cross
0.0,5.0,0.0,1.0,2.0,2.0,535.9408389999771,1.0,1.0,part_1,,,,,,,,,,,,,gray,I
0.0,4.0,0.0,0.0,1.0,1.0,402.518791000034,1.0,1.0,part_1,,,,,,,,,,,,,orange,square
325.0,2.0,2.0,0.0,1.0,1.0,449.3225719999145,1.0,1.0,part_1,,,,,,,,,,,,,yellow,diamond
0.0,1.0,0.0,0.0,2.0,2.0,420.9888139999975,1.0,1.0,part_1,,,,,,,,,,,,,magenta,circle
319.0,2.0,2.0,0.0,1.0,1.0,346.288204000075,1.0,1.0,part_1,,,,,,,,,,,,,yellow,diamond
326.0,6.0,2.0,1.0,3.0,3.0,485.79104800001,1.0,1.0,part_1,,,,,,,,,,,,,cyan,cross
1311.0,8.0,4.0,1.0,1.0,1.0,591.8378510000366,1.0,1.0,part_1,,,,,,,,,,,,,white,hexagon
339.0,2.0,2.0,0.0,3.0,3.0,362.8475010000329,1.0,1.0,part_1,,,,,,,,,,,,,yellow,diamond
657.0,3.0,3.0,0.0,2.0,2.0,462.4100040000485,1.0,1.0,part_1,,,,,,,,,,,,,blue,triangle
348.0,2.0,2.0,0.0,2.0,2.0,411.1702410000362,1.0,1.0,part_1,,,,,,,,,,,,,yellow,diamond
0.0,7.0,0.0,1.0,2.0,2.0,514.1244829999323,1.0,1.0,part_1,,,,,,,,,,,,,green,flipped triangle
0.0,4.0,0.0,0.0,3.0,3.0,496.4320930000667,1.0,1.0,part_1,,,,,,,,,,,,,orange,square
146.0,1.0,1.0,0.0,3.0,3.0,473.4123780000345,1.0,1.0,part_1,,,,,,,,,,,,,magenta,circle
187.0,5.0,1.0,1.0,3.0,3.0,445.3560480000078,1.0,1.0,part_1,,,,,,,,,,,,,gray,I
657.0,7.0,3.0,1.0,1.0,1.0,554.9763409999287,1.0,1.0,part_1,,,,,,,,,,,,,green,flipped triangle
1300.0,4.0,4.0,0.0,1.0,1.0,391.3218299999244,1.0,1.0,part_1,,,,,,,,,,,,,orange,square
629.0,7.0,3.0,1.0,2.0,2.0,475.5430509999314,1.0,1.0,part_1,,,,,,,,,,,,,green,flipped triangle
1279.0,4.0,4.0,0.0,4.0,4.0,402.4485310000045,1.0,1.0,part_1,,,,,,,,,,,,,orange,square
1312.0,8.0,4.0,1.0,3.0,3.0,374.4303339999533,1.0,1.0,part_1,,,,,,,,,,,,,white,hexagon
137.0,1.0,1.0,0.0,4.0,4.0,392.7453940000305,1.0,1.0,part_1,,,,,,,,,,,,,magenta,circle
1299.0,8.0,4.0,1.0,3.0,3.0,393.9086059999681,1.0,1.0,part_1,,,,,,,,,,,,,white,hexagon
176.0,5.0,1.0,1.0,4.0,4.0,448.4054949999745,1.0,1.0,part_1,,,,,,,,,,,,,gray,I
320.0,2.0,2.0,0.0,1.0,1.0,467.4327189999303,1.0,1.0,part_1,,,,,,,,,,,,,yellow,diamond
667.0,7.0,3.0,1.0,1.0,1.0,552.7245910000147,1.0,1.0,part_1,,,,,,,,,,,,,green,flipped triangle
1296.0,4.0,4.0,0.0,1.0,1.0,446.9730690000233,1.0,1.0,part_1,,,,,,,,,,,,,orange,square
665.0,7.0,3.0,1.0,4.0,4.0,429.9759200000608,1.0,1.0,part_1,,,,,,,,,,,,,green,flipped triangle
323.0,6.0,2.0,1.0,1.0,1.0,502.51758499996413,1.0,1.0,part_1,,,,,,,,,,,,,cyan,cross
645.0,3.0,3.0,0.0,4.0,4.0,400.2160089999051,1.0,1.0,part_1,,,,,,,,,,,,,blue,triangle
0.0,4.0,0.0,0.0,4.0,4.0,401.2472230000412,1.0,1.0,part_1,,,,,,,,,,,,,orange,square
661.0,3.0,3.0,0.0,3.0,3.0,415.707348000069,1.0,1.0,part_1,,,,,,,,,,,,,blue,triangle
630.0,7.0,3.0,1.0,2.0,2.0,487.0570410000709,1.0,1.0,part_1,,,,,,,,,,,,,green,flipped triangle
1312.0,8.0,4.0,1.0,1.0,1.0,549.0026990000842,1.0,1.0,part_1,,,,,,,,,,,,,white,hexagon
672.0,3.0,3.0,0.0,1.0,1.0,494.4278839999469,1.0,1.0,part_1,,,,,,,,,,,,,blue,triangle
1317.0,4.0,4.0,0.0,4.0,4.0,440.8144259999744,1.0,1.0,part_1,,,,,,,,,,,,,orange,square
0.0,8.0,0.0,1.0,3.0,3.0,448.2440139998971,1.0,1.0,part_1,,,,,,,,,,,,,white,hexagon
0.0,7.0,0.0,1.0,3.0,3.0,441.0975210000742,1.0,1.0,part_1,,,,,,,,,,,,,green,flipped triangle
336.0,2.0,2.0,0.0,4.0,4.0,409.9109759999919,1.0,1.0,part_1,,,,,,,,,,,,,yellow,diamond
344.0,2.0,2.0,0.0,1.0,1.0,578.8261620000412,1.0,1.0,part_1,,,,,,,,,,,,,yellow,diamond
150.0,5.0,1.0,1.0,3.0,3.0,430.0895659999924,1.0,1.0,part_1,,,,,,,,,,,,,gray,I
176.0,1.0,1.0,0.0,2.0,2.0,502.78323800000635,1.0,1.0,part_1,,,,,,,,,,,,,magenta,circle
1324.0,4.0,4.0,0.0,4.0,4.0,418.6200699999745,1.0,1.0,part_1,,,,,,,,,,,,,orange,square
169.0,1.0,1.0,0.0,3.0,3.0,447.6906759999792,1.0,1.0,part_1,,,,,,,,,,,,,magenta,circle
674.0,7.0,3.0,1.0,1.0,1.0,552.1052100000361,1.0,1.0,part_1,,,,,,,,,,,,,green,flipped triangle
1315.0,8.0,4.0,1.0,2.0,2.0,578.9968259999796,1.0,1.0,part_1,,,,,,,,,,,,,white,hexagon
1323.0,8.0,4.0,1.0,1.0,1.0,533.382338000024,1.0,1.0,part_1,,,,,,,,,,,,,white,hexagon
163.0,5.0,1.0,1.0,2.0,2.0,520.2639930000714,1.0,1.0,part_1,,,,,,,,,,,,,gray,I
0.0,7.0,0.0,1.0,1.0,1.0,552.426473999958,1.0,1.0,part_1,,,,,,,,,,,,,green,flipped triangle
169.0,5.0,1.0,1.0,4.0,4.0,440.6657910000149,1.0,1.0,part_1,,,,,,,,,,,,,gray,I
1309.0,4.0,4.0,0.0,2.0,2.0,456.4407609999534,1.0,1.0,part_1,,,,,,,,,,,,,orange,square
0.0,2.0,0.0,0.0,2.0,2.0,474.904433000006,1.0,1.0,part_1,,,,,,,,,,,,,yellow,diamond
348.0,6.0,2.0,1.0,4.0,4.0,653.4580850000111,1.0,1.0,part_1,,,,,,,,,,,,,cyan,cross
648.0,3.0,3.0,0.0,2.0,2.0,530.6370920000063,1.0,1.0,part_1,,,,,,,,,,,,,blue,triangle
164.0,1.0,1.0,0.0,3.0,3.0,464.8913199999924,1.0,1.0,part_1,,,,,,,,,,,,,magenta,circle
167.0,5.0,1.0,1.0,2.0,2.0,643.2576120000704,1.0,1.0,part_1,,,,,,,,,,,,,gray,I
0.0,1.0,0.0,0.0,3.0,3.0,461.489250999989,1.0,1.0,part_1,,,,,,,,,,,,,magenta,circle
332.0,2.0,2.0,0.0,4.0,4.0,433.1696550000288,2.0,1.0,part_1,,,,,,,,,,,,,yellow,diamond
1290.0,4.0,4.0,0.0,4.0,4.0,409.1089140000576,2.0,1.0,part_1,,,,,,,,,,,,,orange,square
137.0,5.0,1.0,1.0,4.0,4.0,587.4012009999205,2.0,1.0,part_1,,,,,,,,,,,,,gray,I
0.0,7.0,0.0,1.0,1.0,1.0,484.6971570000278,2.0,1.0,part_1,,,,,,,,,,,,,green,flipped triangle
0.0,4.0,0.0,0.0,1.0,1.0,410.757139999987,2.0,1.0,part_1,,,,,,,,,,,,,orange,square
0.0,4.0,0.0,0.0,2.0,2.0,544.4845670000404,2.0,1.0,part_1,,,,,,,,,,,,,orange,square
665.0,3.0,3.0,0.0,1.0,1.0,457.1892420000267,2.0,1.0,part_1,,,,,,,,,,,,,blue,triangle
166.0,5.0,1.0,1.0,4.0,4.0,494.1069049999669,2.0,1.0,part_1,,,,,,,,,,,,,gray,I
317.0,6.0,2.0,1.0,4.0,4.0,441.4216449999912,2.0,1.0,part_1,,,,,,,,,,,,,cyan,cross
320.0,6.0,2.0,1.0,4.0,4.0,370.1270569999906,2.0,1.0,part_1,,,,,,,,,,,,,cyan,cross
154.0,5.0,1.0,1.0,4.0,4.0,424.2657479999252,2.0,1.0,part_1,,,,,,,,,,,,,gray,I
167.0,1.0,1.0,0.0,1.0,1.0,496.0640940000758,2.0,1.0,part_1,,,,,,,,,,,,,magenta,circle
0.0,3.0,0.0,0.0,4.0,4.0,353.979337999931,2.0,1.0,part_1,,,,,,,,,,,,,blue,triangle
183.0,5.0,1.0,1.0,2.0,2.0,478.2660410000972,2.0,1.0,part_1,,,,,,,,,,,,,gray,I
0.0,2.0,0.0,0.0,2.0,2.0,442.0746189999818,2.0,1.0,part_1,,,,,,,,,,,,,yellow,diamond
0.0,2.0,0.0,0.0,2.0,2.0,356.2890379999999,2.0,1.0,part_1,,,,,,,,,,,,,yellow,diamond
674.0,3.0,3.0,0.0,4.0,4.0,596.8226290001439,2.0,1.0,part_1,,,,,,,,,,,,,blue,triangle
1300.0,8.0,4.0,1.0,1.0,1.0,475.142870999889,2.0,1.0,part_1,,,,,,,,,,,,,white,hexagon
629.0,3.0,3.0,0.0,3.0,3.0,582.0611569999983,2.0,1.0,part_1,,,,,,,,,,,,,blue,triangle
1296.0,8.0,4.0,1.0,2.0,2.0,625.3275040000972,2.0,1.0,part_1,,,,,,,,,,,,,white,hexagon
1280.0,8.0,4.0,1.0,4.0,4.0,357.7366990000428,2.0,1.0,part_1,,,,,,,,,,,,,white,hexagon
645.0,7.0,3.0,1.0,3.0,3.0,487.0895579999796,2.0,1.0,part_1,,,,,,,,,,,,,green,flipped triangle
0.0,6.0,0.0,1.0,2.0,2.0,523.1454949998806,2.0,1.0,part_1,,,,,,,,,,,,,cyan,cross
1317.0,8.0,4.0,1.0,4.0,4.0,381.928415999937,2.0,1.0,part_1,,,,,,,,,,,,,white,hexagon
0.0,7.0,0.0,1.0,4.0,4.0,485.195406999992,2.0,1.0,part_1,,,,,,,,,,,,,green,flipped triangle
1309.0,8.0,4.0,1.0,1.0,1.0,801.45615299989,2.0,1.0,part_1,,,,,,,,,,,,,white,hexagon
317.0,2.0,2.0,0.0,1.0,1.0,724.955047000094,2.0,1.0,part_1,,,,,,,,,,,,,yellow,diamond
155.0,5.0,1.0,1.0,1.0,1.0,541.5161509999962,2.0,1.0,part_1,,,,,,,,,,,,,gray,I
345.0,2.0,2.0,0.0,4.0,4.0,391.9947049998882,2.0,1.0,part_1,,,,,,,,,,,,,yellow,diamond
315.0,2.0,2.0,0.0,2.0,2.0,474.8450350000439,2.0,1.0,part_1,,,,,,,,,,,,,yellow,diamond
306.0,6.0,2.0,1.0,2.0,2.0,486.0622460000741,2.0,1.0,part_1,,,,,,,,,,,,,cyan,cross
339.0,6.0,2.0,1.0,3.0,3.0,467.6486870000644,2.0,1.0,part_1,,,,,,,,,,,,,cyan,cross
0.0,5.0,0.0,1.0,4.0,4.0,464.2739549999533,2.0,1.0,part_1,,,,,,,,,,,,,gray,I
1275.0,4.0,4.0,0.0,1.0,1.0,535.7924360000652,2.0,1.0,part_1,,,,,,,,,,,,,orange,square
305.0,6.0,2.0,1.0,2.0,2.0,537.6401839998834,2.0,1.0,part_1,,,,,,,,,,,,,cyan,cross
650.0,7.0,3.0,1.0,1.0,1.0,557.501018000039,2.0,1.0,part_1,,,,,,,,,,,,,green,flipped triangle
639.0,3.0,3.0,0.0,3.0,3.0,446.8447339997965,2.0,1.0,part_1,,,,,,,,,,,,,blue,triangle
176.0,1.0,1.0,0.0,2.0,2.0,502.74079500013613,2.0,1.0,part_1,,,,,,,,,,,,,magenta,circle
667.0,3.0,3.0,0.0,3.0,3.0,428.2654859998729,2.0,1.0,part_1,,,,,,,,,,,,,blue,triangle
0.0,7.0,0.0,1.0,2.0,2.0,570.0121039999431,2.0,1.0,part_1,,,,,,,,,,,,,green,flipped triangle
0.0,1.0,0.0,0.0,4.0,4.0,529.8225919998458,2.0,1.0,part_1,,,,,,,,,,,,,magenta,circle
0.0,2.0,0.0,0.0,2.0,2.0,464.7553330000846,2.0,1.0,part_1,,,,,,,,,,,,,yellow,diamond
310.0,6.0,2.0,1.0,3.0,3.0,391.6766280001411,2.0,1.0,part_1,,,,,,,,,,,,,cyan,cross
330.0,6.0,2.0,1.0,1.0,1.0,450.7118710000668,2.0,1.0,part_1,,,,,,,,,,,,,cyan,cross
186.0,5.0,1.0,1.0,1.0,1.0,558.7841540000227,2.0,1.0,part_1,,,,,,,,,,,,,gray,I
177.0,5.0,1.0,1.0,3.0,3.0,507.28944699994827,2.0,1.0,part_1,,,,,,,,,,,,,gray,I
159.0,1.0,1.0,0.0,3.0,3.0,492.9086459999325,2.0,1.0,part_1,,,,,,,,,,,,,magenta,circle
332.0,6.0,2.0,1.0,4.0,4.0,490.0920210000095,2.0,1.0,part_1,,,,,,,,,,,,,cyan,cross
319.0,6.0,2.0,1.0,4.0,4.0,434.6996900001159,2.0,1.0,part_1,,,,,,,,,,,,,cyan,cross
657.0,3.0,3.0,0.0,2.0,2.0,602.3108459999094,2.0,1.0,part_1,,,,,,,,,,,,,blue,triangle
1277.0,8.0,4.0,1.0,3.0,3.0,453.4815209999578,2.0,1.0,part_1,,,,,,,,,,,,,white,hexagon
344.0,6.0,2.0,1.0,2.0,2.0,537.5273610000022,2.0,1.0,part_1,,,,,,,,,,,,,cyan,cross
0.0,1.0,0.0,0.0,4.0,4.0,368.8154370001939,2.0,1.0,part_1,,,,,,,,,,,,,magenta,circle
656.0,7.0,3.0,1.0,1.0,1.0,629.2673000000377,2.0,1.0,part_1,,,,,,,,,,,,,green,flipped triangle
669.0,7.0,3.0,1.0,4.0,4.0,463.66881799986,2.0,1.0,part_1,,,,,,,,,,,,,green,flipped triangle
181.0,1.0,1.0,0.0,2.0,2.0,428.7059939999835,2.0,1.0,part_1,,,,,,,,,,,,,magenta,circle
1323.0,4.0,4.0,0.0,2.0,2.0,411.0159250001288,2.0,1.0,part_1,,,,,,,,,,,,,orange,square
301.0,2.0,2.0,0.0,2.0,2.0,429.1871780001202,2.0,1.0,part_1,,,,,,,,,,,,,yellow,diamond
348.0,2.0,2.0,0.0,1.0,1.0,581.5514140001596,2.0,1.0,part_1,,,,,,,,,,,,,yellow,diamond
635.0,7.0,3.0,1.0,4.0,4.0,595.3917500000898,2.0,1.0,part_1,,,,,,,,,,,,,green,flipped triangle
155.0,1.0,1.0,0.0,4.0,4.0,494.2848430000595,2.0,1.0,part_1,,,,,,,,,,,,,magenta,circle
336.0,6.0,2.0,1.0,2.0,2.0,437.8951529999995,2.0,1.0,part_1,,,,,,,,,,,,,cyan,cross
146.0,5.0,1.0,1.0,2.0,2.0,433.8064020000729,2.0,1.0,part_1,,,,,,,,,,,,,gray,I
328.0,6.0,2.0,1.0,3.0,3.0,560.1581930000066,2.0,1.0,part_1,,,,,,,,,,,,,cyan,cross
181.0,5.0,1.0,1.0,1.0,1.0,565.341774999979,2.0,1.0,part_1,,,,,,,,,,,,,gray,I
674.0,7.0,3.0,1.0,2.0,2.0,446.6615769999862,2.0,1.0,part_1,,,,,,,,,,,,,green,flipped triangle
142.0,5.0,1.0,1.0,3.0,3.0,409.2866080000021,2.0,1.0,part_1,,,,,,,,,,,,,gray,I
655.0,3.0,3.0,0.0,1.0,1.0,541.8631030001961,2.0,1.0,part_1,,,,,,,,,,,,,blue,triangle
176.0,5.0,1.0,1.0,1.0,1.0,498.5586359998706,2.0,1.0,part_1,,,,,,,,,,,,,gray,I
142.0,1.0,1.0,0.0,4.0,4.0,485.0280230000408,2.0,1.0,part_1,,,,,,,,,,,,,magenta,circle
0.0,3.0,0.0,0.0,3.0,3.0,370.9654879999107,2.0,1.0,part_1,,,,,,,,,,,,,blue,triangle
662.0,7.0,3.0,1.0,2.0,2.0,514.1022830000566,2.0,1.0,part_1,,,,,,,,,,,,,green,flipped triangle
328.0,6.0,2.0,1.0,4.0,4.0,445.8825840001736,2.0,1.0,part_1,,,,,,,,,,,,,cyan,cross
1281.0,4.0,4.0,0.0,4.0,4.0,502.22508399997423,2.0,1.0,part_1,,,,,,,,,,,,,orange,square
1294.0,4.0,4.0,0.0,1.0,1.0,670.6592049999927,2.0,1.0,part_1,,,,,,,,,,,,,orange,square
144.0,1.0,1.0,0.0,4.0,4.0,467.5994409999475,2.0,1.0,part_1,,,,,,,,,,,,,magenta,circle
1281.0,8.0,4.0,1.0,4.0,4.0,456.0130340000796,2.0,1.0,part_1,,,,,,,,,,,,,white,hexagon
1295.0,8.0,4.0,1.0,4.0,4.0,445.0696430001244,2.0,1.0,part_1,,,,,,,,,,,,,white,hexagon
0.0,8.0,0.0,1.0,3.0,3.0,490.8695189999434,2.0,1.0,part_1,,,,,,,,,,,,,white,hexagon
0.0,8.0,0.0,1.0,3.0,3.0,486.4915539999401,2.0,1.0,part_1,,,,,,,,,,,,,white,hexagon
1323.0,8.0,4.0,1.0,2.0,2.0,617.818466000017,2.0,1.0,part_1,,,,,,,,,,,,,white,hexagon
179.0,1.0,1.0,0.0,4.0,4.0,626.5233860001445,2.0,1.0,part_1,,,,,,,,,,,,,magenta,circle
336.0,2.0,2.0,0.0,3.0,3.0,420.8578350001062,2.0,1.0,part_1,,,,,,,,,,,,,yellow,diamond
154.0,1.0,1.0,0.0,1.0,1.0,422.6960890000555,2.0,1.0,part_1,,,,,,,,,,,,,magenta,circle
178.0,1.0,1.0,0.0,2.0,2.0,554.4758739999907,2.0,1.0,part_1,,,,,,,,,,,,,magenta,circle
318.0,2.0,2.0,0.0,3.0,3.0,483.5022310001022,2.0,1.0,part_1,,,,,,,,,,,,,yellow,diamond
639.0,7.0,3.0,1.0,4.0,4.0,345.9219019998727,2.0,1.0,part_1,,,,,,,,,,,,,green,flipped triangle
142.0,5.0,1.0,1.0,2.0,2.0,500.0531210000645,2.0,1.0,part_1,,,,,,,,,,,,,gray,I
1280.0,4.0,4.0,0.0,4.0,4.0,360.0896840000587,2.0,1.0,part_1,,,,,,,,,,,,,orange,square
661.0,7.0,3.0,1.0,1.0,1.0,582.8188509999563,2.0,1.0,part_1,,,,,,,,,,,,,green,flipped triangle
0.0,6.0,0.0,1.0,4.0,4.0,426.9645310000669,2.0,1.0,part_1,,,,,,,,,,,,,cyan,cross
140.0,5.0,1.0,1.0,2.0,2.0,527.8290070000367,2.0,1.0,part_1,,,,,,,,,,,,,gray,I
0.0,8.0,0.0,1.0,3.0,3.0,453.9467290001084,2.0,1.0,part_1,,,,,,,,,,,,,white,hexagon
179.0,5.0,1.0,1.0,2.0,2.0,566.9704859999456,2.0,1.0,part_1,,,,,,,,,,,,,gray,I
1295.0,4.0,4.0,0.0,2.0,2.0,610.901019000039,2.0,1.0,part_1,,,,,,,,,,,,,orange,square
337.0,2.0,2.0,0.0,4.0,4.0,582.4468870000601,2.0,1.0,part_1,,,,,,,,,,,,,yellow,diamond
648.0,7.0,3.0,1.0,3.0,3.0,472.095070000023,2.0,1.0,part_1,,,,,,,,,,,,,green,flipped triangle
0.0,3.0,0.0,0.0,4.0,4.0,603.4231859998727,2.0,1.0,part_1,,,,,,,,,,,,,blue,triangle
1312.0,4.0,4.0,0.0,2.0,2.0,547.651918999918,2.0,1.0,part_1,,,,,,,,,,,,,orange,square
318.0,6.0,2.0,1.0,2.0,2.0,500.0728570000774,2.0,1.0,part_1,,,,,,,,,,,,,cyan,cross
1295.0,8.0,4.0,1.0,1.0,1.0,453.639603000056,3.0,1.0,part_1,,,,,,,,,,,,,white,hexagon
646.0,3.0,3.0,0.0,4.0,4.0,350.8770410001034,3.0,1.0,part_1,,,,,,,,,,,,,blue,triangle
635.0,3.0,3.0,0.0,2.0,2.0,463.5546360000262,3.0,1.0,part_1,,,,,,,,,,,,,blue,triangle
147.0,1.0,1.0,0.0,2.0,2.0,379.8940130000119,3.0,1.0,part_1,,,,,,,,,,,,,magenta,circle
650.0,3.0,3.0,0.0,2.0,2.0,481.0811449999619,3.0,1.0,part_1,,,,,,,,,,,,,blue,triangle
632.0,7.0,3.0,1.0,2.0,2.0,489.9437169999601,3.0,1.0,part_1,,,,,,,,,,,,,green,flipped triangle
0.0,3.0,0.0,0.0,4.0,4.0,610.4889460000322,3.0,1.0,part_1,,,,,,,,,,,,,blue,triangle
1302.0,8.0,4.0,1.0,2.0,2.0,490.8825400000296,3.0,1.0,part_1,,,,,,,,,,,,,white,hexagon
336.0,6.0,2.0,1.0,1.0,1.0,509.4305909999548,3.0,1.0,part_1,,,,,,,,,,,,,cyan,cross
1323.0,8.0,4.0,1.0,4.0,4.0,425.0392399999327,3.0,1.0,part_1,,,,,,,,,,,,,white,hexagon
642.0,7.0,3.0,1.0,2.0,2.0,472.6957500001845,3.0,1.0,part_1,,,,,,,,,,,,,green,flipped triangle
639.0,7.0,3.0,1.0,4.0,4.0,657.608836999998,3.0,1.0,part_1,,,,,,,,,,,,,green,flipped triangle
139.0,1.0,1.0,0.0,1.0,1.0,520.1937829999679,3.0,1.0,part_1,,,,,,,,,,,,,magenta,circle
665.0,3.0,3.0,0.0,3.0,3.0,436.554082999919,3.0,1.0,part_1,,,,,,,,,,,,,blue,triangle
144.0,5.0,1.0,1.0,3.0,3.0,435.6545680000181,3.0,1.0,part_1,,,,,,,,,,,,,gray,I
335.0,6.0,2.0,1.0,4.0,4.0,472.2667439998531,3.0,1.0,part_1,,,,,,,,,,,,,cyan,cross
303.0,2.0,2.0,0.0,3.0,3.0,444.4801409999854,3.0,1.0,part_1,,,,,,,,,,,,,yellow,diamond
0.0,8.0,0.0,1.0,2.0,2.0,501.15699299999505,3.0,1.0,part_1,,,,,,,,,,,,,white,hexagon
333.0,2.0,2.0,0.0,1.0,1.0,547.2375379999903,3.0,1.0,part_1,,,,,,,,,,,,,yellow,diamond
0.0,4.0,0.0,0.0,2.0,2.0,686.2113619999946,3.0,1.0,part_1,,,,,,,,,,,,,orange,square
178.0,5.0,1.0,1.0,3.0,3.0,519.8182050000923,3.0,1.0,part_1,,,,,,,,,,,,,gray,I
661.0,3.0,3.0,0.0,1.0,1.0,520.5587480002123,3.0,1.0,part_1,,,,,,,,,,,,,blue,triangle
160.0,5.0,1.0,1.0,1.0,1.0,499.3482449999646,3.0,1.0,part_1,,,,,,,,,,,,,gray,I
328.0,2.0,2.0,0.0,1.0,1.0,351.4231340000151,3.0,1.0,part_1,,,,,,,,,,,,,yellow,diamond
1278.0,8.0,4.0,1.0,2.0,2.0,480.9581299998626,3.0,1.0,part_1,,,,,,,,,,,,,white,hexagon
674.0,3.0,3.0,0.0,1.0,1.0,444.3423730001541,3.0,1.0,part_1,,,,,,,,,,,,,blue,triangle
665.0,7.0,3.0,1.0,3.0,3.0,492.2247340000467,3.0,1.0,part_1,,,,,,,,,,,,,green,flipped triangle
633.0,3.0,3.0,0.0,4.0,4.0,380.2796639999997,3.0,1.0,part_1,,,,,,,,,,,,,blue,triangle
341.0,2.0,2.0,0.0,3.0,3.0,427.4261529999421,3.0,1.0,part_1,,,,,,,,,,,,,yellow,diamond
147.0,5.0,1.0,1.0,4.0,4.0,528.8463159999992,3.0,1.0,part_1,,,,,,,,,,,,,gray,I
1307.0,4.0,4.0,0.0,1.0,1.0,556.8636699999843,3.0,1.0,part_1,,,,,,,,,,,,,orange,square
1278.0,4.0,4.0,0.0,2.0,2.0,666.4287030000651,3.0,1.0,part_1,,,,,,,,,,,,,orange,square
0.0,2.0,0.0,0.0,4.0,4.0,527.1131009999408,3.0,1.0,part_1,,,,,,,,,,,,,yellow,diamond
1296.0,4.0,4.0,0.0,2.0,2.0,585.1090890000705,3.0,1.0,part_1,,,,,,,,,,,,,orange,square
1280.0,8.0,4.0,1.0,1.0,1.0,575.5911460000789,3.0,1.0,part_1,,,,,,,,,,,,,white,hexagon
0.0,8.0,0.0,1.0,3.0,3.0,408.1355300002087,3.0,1.0,part_1,,,,,,,,,,,,,white,hexagon
645.0,7.0,3.0,1.0,1.0,1.0,555.1906410000811,3.0,1.0,part_1,,,,,,,,,,,,,green,flipped triangle
656.0,3.0,3.0,0.0,3.0,3.0,429.8848299999918,3.0,1.0,part_1,,,,,,,,,,,,,blue,triangle
139.0,5.0,1.0,1.0,4.0,4.0,417.6417989999663,3.0,1.0,part_1,,,,,,,,,,,,,gray,I
653.0,7.0,3.0,1.0,4.0,4.0,445.4123549999167,3.0,1.0,part_1,,,,,,,,,,,,,green,flipped triangle
0.0,6.0,0.0,1.0,3.0,3.0,388.5239610001463,3.0,1.0,part_1,,,,,,,,,,,,,cyan,cross
137.0,5.0,1.0,1.0,4.0,4.0,482.2194070000023,3.0,1.0,part_1,,,,,,,,,,,,,gray,I
177.0,1.0,1.0,0.0,1.0,1.0,537.8885069999342,3.0,1.0,part_1,,,,,,,,,,,,,magenta,circle
661.0,7.0,3.0,1.0,2.0,2.0,528.9652550000028,3.0,1.0,part_1,,,,,,,,,,,,,green,flipped triangle
1294.0,4.0,4.0,0.0,1.0,1.0,426.4813600000252,3.0,1.0,part_1,,,,,,,,,,,,,orange,square
0.0,6.0,0.0,1.0,3.0,3.0,362.7901879999626,3.0,1.0,part_1,,,,,,,,,,,,,cyan,cross
0.0,1.0,0.0,0.0,3.0,3.0,418.3579089999512,3.0,1.0,part_1,,,,,,,,,,,,,magenta,circle
0.0,5.0,0.0,1.0,1.0,1.0,528.9194249999127,3.0,1.0,part_1,,,,,,,,,,,,,gray,I
642.0,3.0,3.0,0.0,3.0,3.0,474.4126770001458,3.0,1.0,part_1,,,,,,,,,,,,,blue,triangle
1287.0,8.0,4.0,1.0,1.0,1.0,639.0060509997966,3.0,1.0,part_1,,,,,,,,,,,,,white,hexagon
320.0,2.0,2.0,0.0,2.0,2.0,657.8918630000317,3.0,1.0,part_1,,,,,,,,,,,,,yellow,diamond
1297.0,8.0,4.0,1.0,3.0,3.0,491.8526480000764,3.0,1.0,part_1,,,,,,,,,,,,,white,hexagon
343.0,2.0,2.0,0.0,1.0,1.0,593.8029589999587,3.0,1.0,part_1,,,,,,,,,,,,,yellow,diamond
335.0,2.0,2.0,0.0,3.0,3.0,400.0817190001271,3.0,1.0,part_1,,,,,,,,,,,,,yellow,diamond
1294.0,8.0,4.0,1.0,3.0,3.0,489.9560189999192,3.0,1.0,part_1,,,,,,,,,,,,,white,hexagon
0.0,4.0,0.0,0.0,4.0,4.0,418.1023610001375,3.0,1.0,part_1,,,,,,,,,,,,,orange,square
1310.0,8.0,4.0,1.0,3.0,3.0,538.3498680000685,3.0,1.0,part_1,,,,,,,,,,,,,white,hexagon
322.0,2.0,2.0,0.0,3.0,3.0,594.3899750000128,3.0,1.0,part_1,,,,,,,,,,,,,yellow,diamond
1290.0,8.0,4.0,1.0,4.0,4.0,457.0233980000466,3.0,1.0,part_1,,,,,,,,,,,,,white,hexagon
1287.0,4.0,4.0,0.0,1.0,1.0,574.1191770000569,3.0,1.0,part_1,,,,,,,,,,,,,orange,square
662.0,3.0,3.0,0.0,4.0,4.0,519.4605960000445,3.0,1.0,part_1,,,,,,,,,,,,,blue,triangle
160.0,1.0,1.0,0.0,4.0,4.0,518.3738840000842,3.0,1.0,part_1,,,,,,,,,,,,,magenta,circle
343.0,6.0,2.0,1.0,3.0,3.0,444.3656190001093,3.0,1.0,part_1,,,,,,,,,,,,,cyan,cross
307.0,2.0,2.0,0.0,3.0,3.0,371.2376809999114,3.0,1.0,part_1,,,,,,,,,,,,,yellow,diamond
184.0,5.0,1.0,1.0,2.0,2.0,528.9419050000106,3.0,1.0,part_1,,,,,,,,,,,,,gray,I
656.0,7.0,3.0,1.0,4.0,4.0,565.5591750000895,3.0,1.0,part_1,,,,,,,,,,,,,green,flipped triangle
0.0,3.0,0.0,0.0,2.0,2.0,630.088275000162,3.0,1.0,part_1,,,,,,,,,,,,,blue,triangle
669.0,3.0,3.0,0.0,2.0,2.0,407.4190119999912,3.0,1.0,part_1,,,,,,,,,,,,,blue,triangle
632.0,3.0,3.0,0.0,2.0,2.0,409.1336679998676,3.0,1.0,part_1,,,,,,,,,,,,,blue,triangle
0.0,2.0,0.0,0.0,2.0,2.0,416.500656999915,3.0,1.0,part_1,,,,,,,,,,,,,yellow,diamond
633.0,7.0,3.0,1.0,4.0,4.0,577.0489140002155,3.0,1.0,part_1,,,,,,,,,,,,,green,flipped triangle
146.0,5.0,1.0,1.0,3.0,3.0,500.86609100003443,3.0,1.0,part_1,,,,,,,,,,,,,gray,I
1311.0,8.0,4.0,1.0,2.0,2.0,480.833647000054,3.0,2.0,part_1,,,,,,,,,,,,,white,hexagon
303.0,6.0,2.0,1.0,2.0,2.0,408.7057659999118,3.0,1.0,part_1,,,,,,,,,,,,,cyan,cross
348.0,6.0,2.0,1.0,1.0,1.0,583.7356890001502,3.0,1.0,part_1,,,,,,,,,,,,,cyan,cross
1288.0,4.0,4.0,0.0,3.0,3.0,565.31748600014,3.0,1.0,part_1,,,,,,,,,,,,,orange,square
301.0,6.0,2.0,1.0,1.0,1.0,592.6819159999468,3.0,1.0,part_1,,,,,,,,,,,,,cyan,cross
0.0,1.0,0.0,0.0,4.0,4.0,500.1021780001338,3.0,1.0,part_1,,,,,,,,,,,,,magenta,circle
1287.0,8.0,4.0,1.0,1.0,1.0,528.1906840000374,3.0,1.0,part_1,,,,,,,,,,,,,white,hexagon
1288.0,8.0,4.0,1.0,2.0,2.0,490.8882370000356,3.0,1.0,part_1,,,,,,,,,,,,,white,hexagon
1310.0,4.0,4.0,0.0,2.0,2.0,564.3772019998323,3.0,1.0,part_1,,,,,,,,,,,,,orange,square
0.0,3.0,0.0,0.0,1.0,1.0,482.0648390000315,3.0,1.0,part_1,,,,,,,,,,,,,blue,triangle
633.0,3.0,3.0,0.0,1.0,1.0,416.3213059998725,3.0,1.0,part_1,,,,,,,,,,,,,blue,triangle
0.0,1.0,0.0,0.0,4.0,4.0,822.61217700011,3.0,1.0,part_1,,,,,,,,,,,,,magenta,circle
305.0,2.0,2.0,0.0,2.0,2.0,767.5259580000784,3.0,1.0,part_1,,,,,,,,,,,,,yellow,diamond
0.0,6.0,0.0,1.0,1.0,1.0,491.6764249999232,3.0,1.0,part_1,,,,,,,,,,,,,cyan,cross
187.0,1.0,1.0,0.0,3.0,3.0,463.8691749998997,3.0,1.0,part_1,,,,,,,,,,,,,magenta,circle
314.0,6.0,2.0,1.0,3.0,3.0,601.7893850000746,3.0,1.0,part_1,,,,,,,,,,,,,cyan,cross
1324.0,4.0,4.0,0.0,3.0,3.0,519.6162229999572,3.0,1.0,part_1,,,,,,,,,,,,,orange,square
0.0,5.0,0.0,1.0,1.0,1.0,629.014897000161,3.0,1.0,part_1,,,,,,,,,,,,,gray,I
642.0,7.0,3.0,1.0,1.0,1.0,610.8889930001169,3.0,1.0,part_1,,,,,,,,,,,,,green,flipped triangle
339.0,6.0,2.0,1.0,3.0,3.0,537.2439310001482,3.0,1.0,part_1,,,,,,,,,,,,,cyan,cross
0.0,2.0,0.0,0.0,1.0,1.0,611.5452169999571,3.0,1.0,part_1,,,,,,,,,,,,,yellow,diamond
147.0,1.0,1.0,0.0,1.0,1.0,669.4656730001043,3.0,1.0,part_1,,,,,,,,,,,,,magenta,circle
168.0,5.0,1.0,1.0,1.0,1.0,536.2897170000451,3.0,1.0,part_1,,,,,,,,,,,,,gray,I
330.0,2.0,2.0,0.0,3.0,3.0,461.8883240000286,3.0,1.0,part_1,,,,,,,,,,,,,yellow,diamond
160.0,1.0,1.0,0.0,2.0,2.0,527.7189220000764,3.0,1.0,part_1,,,,,,,,,,,,,magenta,circle
1295.0,4.0,4.0,0.0,3.0,3.0,435.9835399998246,3.0,1.0,part_1,,,,,,,,,,,,,orange,square
1280.0,4.0,4.0,0.0,1.0,1.0,814.3977869999617,3.0,1.0,part_1,,,,,,,,,,,,,orange,square
0.0,5.0,0.0,1.0,1.0,1.0,565.025710999862,3.0,1.0,part_1,,,,,,,,,,,,,gray,I
0.0,6.0,0.0,1.0,3.0,3.0,361.2365189999309,4.0,1.0,part_1,,,,,,,,,,,,,cyan,cross
1315.0,4.0,4.0,0.0,4.0,4.0,389.9612750001324,4.0,1.0,part_1,,,,,,,,,,,,,orange,square
625.0,3.0,3.0,0.0,2.0,2.0,565.8685089999835,4.0,2.0,part_1,,,,,,,,,,,,,blue,triangle
169.0,5.0,1.0,1.0,3.0,3.0,483.173158999989,4.0,1.0,part_1,,,,,,,,,,,,,gray,I
155.0,5.0,1.0,1.0,4.0,4.0,408.5709529999803,4.0,1.0,part_1,,,,,,,,,,,,,gray,I
302.0,6.0,2.0,1.0,1.0,1.0,583.9807089998885,4.0,1.0,part_1,,,,,,,,,,,,,cyan,cross
674.0,3.0,3.0,0.0,1.0,1.0,518.0363459999171,4.0,1.0,part_1,,,,,,,,,,,,,blue,triangle
0.0,6.0,0.0,1.0,4.0,4.0,584.0866349999487,4.0,1.0,part_1,,,,,,,,,,,,,cyan,cross
1307.0,8.0,4.0,1.0,2.0,2.0,536.209572999951,4.0,1.0,part_1,,,,,,,,,,,,,white,hexagon
1324.0,8.0,4.0,1.0,2.0,2.0,538.3223530000123,4.0,1.0,part_1,,,,,,,,,,,,,white,hexagon
1284.0,8.0,4.0,1.0,3.0,3.0,408.345724000128,4.0,1.0,part_1,,,,,,,,,,,,,white,hexagon
320.0,6.0,2.0,1.0,1.0,1.0,685.3874149999228,4.0,1.0,part_1,,,,,,,,,,,,,cyan,cross
328.0,2.0,2.0,0.0,4.0,4.0,483.0662430001666,4.0,1.0,part_1,,,,,,,,,,,,,yellow,diamond
341.0,6.0,2.0,1.0,1.0,1.0,633.8833019999583,4.0,1.0,part_1,,,,,,,,,,,,,cyan,cross
347.0,2.0,2.0,0.0,2.0,2.0,629.4908090001172,4.0,1.0,part_1,,,,,,,,,,,,,yellow,diamond
310.0,2.0,2.0,0.0,4.0,4.0,509.6238700000413,4.0,1.0,part_1,,,,,,,,,,,,,yellow,diamond
674.0,7.0,3.0,1.0,3.0,3.0,435.6773839999732,4.0,1.0,part_1,,,,,,,,,,,,,green,flipped triangle
169.0,1.0,1.0,0.0,4.0,4.0,683.579262999956,4.0,1.0,part_1,,,,,,,,,,,,,magenta,circle
0.0,8.0,0.0,1.0,2.0,2.0,701.9089079999503,4.0,1.0,part_1,,,,,,,,,,,,,white,hexagon
1277.0,4.0,4.0,0.0,4.0,4.0,481.9796439999209,4.0,1.0,part_1,,,,,,,,,,,,,orange,square
183.0,1.0,1.0,0.0,3.0,3.0,575.0198179998733,4.0,1.0,part_1,,,,,,,,,,,,,magenta,circle
339.0,2.0,2.0,0.0,4.0,4.0,456.2651740000092,4.0,1.0,part_1,,,,,,,,,,,,,yellow,diamond
651.0,3.0,3.0,0.0,4.0,4.0,452.8345620001346,4.0,1.0,part_1,,,,,,,,,,,,,blue,triangle
137.0,1.0,1.0,0.0,3.0,3.0,555.4303400001572,4.0,1.0,part_1,,,,,,,,,,,,,magenta,circle
169.0,5.0,1.0,1.0,1.0,1.0,613.4440380001251,4.0,1.0,part_1,,,,,,,,,,,,,gray,I
0.0,7.0,0.0,1.0,3.0,3.0,445.1346979999471,4.0,1.0,part_1,,,,,,,,,,,,,green,flipped triangle
0.0,3.0,0.0,0.0,2.0,2.0,795.3220120000424,4.0,1.0,part_1,,,,,,,,,,,,,blue,triangle
183.0,5.0,1.0,1.0,2.0,2.0,500.3252829999383,4.0,1.0,part_1,,,,,,,,,,,,,gray,I
169.0,1.0,1.0,0.0,3.0,3.0,480.7513319999543,4.0,1.0,part_1,,,,,,,,,,,,,magenta,circle
0.0,6.0,0.0,1.0,1.0,1.0,638.0186299998059,4.0,1.0,part_1,,,,,,,,,,,,,cyan,cross
184.0,1.0,1.0,0.0,3.0,3.0,537.794151000071,4.0,1.0,part_1,,,,,,,,,,,,,magenta,circle
642.0,7.0,3.0,1.0,3.0,3.0,538.4254410000722,4.0,1.0,part_1,,,,,,,,,,,,,green,flipped triangle
655.0,7.0,3.0,1.0,3.0,3.0,593.5556680001355,4.0,1.0,part_1,,,,,,,,,,,,,green,flipped triangle
163.0,1.0,1.0,0.0,1.0,1.0,536.7088929999682,4.0,2.0,part_1,,,,,,,,,,,,,magenta,circle
322.0,6.0,2.0,1.0,2.0,2.0,676.7681549999907,4.0,1.0,part_1,,,,,,,,,,,,,cyan,cross
323.0,2.0,2.0,0.0,1.0,1.0,621.6250560000844,4.0,1.0,part_1,,,,,,,,,,,,,yellow,diamond
144.0,1.0,1.0,0.0,2.0,2.0,574.3149659999744,4.0,1.0,part_1,,,,,,,,,,,,,magenta,circle
0.0,1.0,0.0,0.0,4.0,4.0,620.0301930000478,4.0,1.0,part_1,,,,,,,,,,,,,magenta,circle
166.0,1.0,1.0,0.0,4.0,4.0,500.2322309999272,4.0,1.0,part_1,,,,,,,,,,,,,magenta,circle
1300.0,8.0,4.0,1.0,3.0,3.0,521.2806859999546,4.0,1.0,part_1,,,,,,,,,,,,,white,hexagon
315.0,6.0,2.0,1.0,2.0,2.0,529.3352670000786,4.0,1.0,part_1,,,,,,,,,,,,,cyan,cross
147.0,5.0,1.0,1.0,3.0,3.0,463.9062450000892,4.0,1.0,part_1,,,,,,,,,,,,,gray,I
302.0,2.0,2.0,0.0,3.0,3.0,463.0510499998763,4.0,1.0,part_1,,,,,,,,,,,,,yellow,diamond
0.0,7.0,0.0,1.0,1.0,1.0,640.4312740000933,4.0,1.0,part_1,,,,,,,,,,,,,green,flipped triangle
657.0,7.0,3.0,1.0,3.0,3.0,443.3588489998783,4.0,1.0,part_1,,,,,,,,,,,,,green,flipped triangle
0.0,6.0,0.0,1.0,1.0,1.0,675.8430969998699,4.0,1.0,part_1,,,,,,,,,,,,,cyan,cross
1296.0,8.0,4.0,1.0,4.0,4.0,517.9534220001187,4.0,1.0,part_1,,,,,,,,,,,,,white,hexagon
310.0,2.0,2.0,0.0,2.0,2.0,546.0869809999167,4.0,1.0,part_1,,,,,,,,,,,,,yellow,diamond
183.0,1.0,1.0,0.0,1.0,1.0,613.3686230000421,4.0,1.0,part_1,,,,,,,,,,,,,magenta,circle
179.0,1.0,1.0,0.0,2.0,2.0,501.34434300002795,4.0,1.0,part_1,,,,,,,,,,,,,magenta,circle
1275.0,8.0,4.0,1.0,3.0,3.0,398.2612799998151,4.0,1.0,part_1,,,,,,,,,,,,,white,hexagon
0.0,7.0,0.0,1.0,1.0,1.0,575.7145569998556,4.0,1.0,part_1,,,,,,,,,,,,,green,flipped triangle
1284.0,4.0,4.0,0.0,3.0,3.0,342.5389520000408,4.0,1.0,part_1,,,,,,,,,,,,,orange,square
626.0,7.0,3.0,1.0,2.0,2.0,657.9495240000597,4.0,1.0,part_1,,,,,,,,,,,,,green,flipped triangle
639.0,3.0,3.0,0.0,3.0,3.0,417.7518750000217,4.0,1.0,part_1,,,,,,,,,,,,,blue,triangle
632.0,3.0,3.0,0.0,4.0,4.0,555.4869699999472,4.0,1.0,part_1,,,,,,,,,,,,,blue,triangle
142.0,1.0,1.0,0.0,2.0,2.0,565.4414670000278,4.0,1.0,part_1,,,,,,,,,,,,,magenta,circle
651.0,7.0,3.0,1.0,1.0,1.0,547.059187000059,4.0,1.0,part_1,,,,,,,,,,,,,green,flipped triangle
0.0,2.0,0.0,0.0,1.0,1.0,529.6421640000517,4.0,1.0,part_1,,,,,,,,,,,,,yellow,diamond
646.0,7.0,3.0,1.0,3.0,3.0,380.7427350000125,4.0,1.0,part_1,,,,,,,,,,,,,green,flipped triangle
160.0,5.0,1.0,1.0,2.0,2.0,602.4166690001493,4.0,1.0,part_1,,,,,,,,,,,,,gray,I
630.0,3.0,3.0,0.0,3.0,3.0,490.9060719999161,4.0,1.0,part_1,,,,,,,,,,,,,blue,triangle
150.0,1.0,1.0,0.0,4.0,4.0,630.9499100000266,4.0,1.0,part_1,,,,,,,,,,,,,magenta,circle
168.0,1.0,1.0,0.0,1.0,1.0,589.0005009998731,4.0,1.0,part_1,,,,,,,,,,,,,magenta,circle
0.0,2.0,0.0,0.0,3.0,3.0,438.8868050000383,4.0,1.0,part_1,,,,,,,,,,,,,yellow,diamond
0.0,8.0,0.0,1.0,4.0,4.0,472.8579400000399,4.0,1.0,part_1,,,,,,,,,,,,,white,hexagon
325.0,6.0,2.0,1.0,4.0,4.0,454.2467609999221,4.0,1.0,part_1,,,,,,,,,,,,,cyan,cross
347.0,6.0,2.0,1.0,2.0,2.0,593.93626699989,4.0,1.0,part_1,,,,,,,,,,,,,cyan,cross
1302.0,4.0,4.0,0.0,3.0,3.0,462.8955910000059,4.0,1.0,part_1,,,,,,,,,,,,,orange,square
1280.0,4.0,4.0,0.0,4.0,4.0,419.1258329999527,4.0,1.0,part_1,,,,,,,,,,,,,orange,square
1299.0,4.0,4.0,0.0,1.0,1.0,640.828287999966,4.0,1.0,part_1,,,,,,,,,,,,,orange,square
1294.0,8.0,4.0,1.0,2.0,2.0,611.8021639999824,4.0,1.0,part_1,,,,,,,,,,,,,white,hexagon
657.0,7.0,3.0,1.0,2.0,2.0,463.0301719998897,4.0,1.0,part_1,,,,,,,,,,,,,green,flipped triangle
625.0,7.0,3.0,1.0,4.0,4.0,594.1730750000715,4.0,1.0,part_1,,,,,,,,,,,,,green,flipped triangle
333.0,6.0,2.0,1.0,3.0,3.0,427.9283129999385,4.0,1.0,part_1,,,,,,,,,,,,,cyan,cross
1280.0,8.0,4.0,1.0,1.0,1.0,474.4053710001026,4.0,2.0,part_1,,,,,,,,,,,,,white,hexagon
1302.0,4.0,4.0,0.0,3.0,3.0,594.1848990000835,4.0,1.0,part_1,,,,,,,,,,,,,orange,square
186.0,1.0,1.0,0.0,2.0,2.0,584.5620729999155,4.0,1.0,part_1,,,,,,,,,,,,,magenta,circle
643.0,7.0,3.0,1.0,2.0,2.0,547.7216449999105,4.0,1.0,part_1,,,,,,,,,,,,,green,flipped triangle
0.0,4.0,0.0,0.0,3.0,3.0,556.7102079999131,4.0,1.0,part_1,,,,,,,,,,,,,orange,square
645.0,3.0,3.0,0.0,2.0,2.0,565.2854120000939,4.0,1.0,part_1,,,,,,,,,,,,,blue,triangle
326.0,2.0,2.0,0.0,4.0,4.0,501.2216770001032,4.0,1.0,part_1,,,,,,,,,,,,,yellow,diamond
306.0,2.0,2.0,0.0,4.0,4.0,704.943313000058,4.0,1.0,part_1,,,,,,,,,,,,,yellow,diamond
633.0,7.0,3.0,1.0,3.0,3.0,475.0528609999946,4.0,1.0,part_1,,,,,,,,,,,,,green,flipped triangle
1311.0,4.0,4.0,0.0,1.0,1.0,853.2001529999889,4.0,1.0,part_1,,,,,,,,,,,,,orange,square
0.0,7.0,0.0,1.0,2.0,2.0,556.7673610000838,4.0,1.0,part_1,,,,,,,,,,,,,green,flipped triangle
155.0,1.0,1.0,0.0,3.0,3.0,465.543604000004,4.0,1.0,part_1,,,,,,,,,,,,,magenta,circle
632.0,7.0,3.0,1.0,4.0,4.0,454.798535000009,4.0,1.0,part_1,,,,,,,,,,,,,green,flipped triangle
1287.0,4.0,4.0,0.0,3.0,3.0,583.6649779998879,4.0,1.0,part_1,,,,,,,,,,,,,orange,square
0.0,3.0,0.0,0.0,4.0,4.0,696.0286989999531,4.0,1.0,part_1,,,,,,,,,,,,,blue,triangle
316.0,6.0,2.0,1.0,3.0,3.0,473.2517160000498,4.0,1.0,part_1,,,,,,,,,,,,,cyan,cross
642.0,3.0,3.0,0.0,1.0,1.0,627.7824960000089,4.0,1.0,part_1,,,,,,,,,,,,,blue,triangle
0.0,3.0,0.0,0.0,2.0,2.0,380.3361549998953,4.0,1.0,part_1,,,,,,,,,,,,,blue,triangle
337.0,6.0,2.0,1.0,2.0,2.0,527.8209149998929,4.0,1.0,part_1,,,,,,,,,,,,,cyan,cross
0.0,2.0,0.0,0.0,3.0,3.0,499.9938630000997,4.0,1.0,part_1,,,,,,,,,,,,,yellow,diamond
174.0,1.0,1.0,0.0,4.0,4.0,745.1138639999044,4.0,1.0,part_1,,,,,,,,,,,,,magenta,circle
1300.0,4.0,4.0,0.0,3.0,3.0,463.0768839999746,4.0,1.0,part_1,,,,,,,,,,,,,orange,square
672.0,7.0,3.0,1.0,1.0,1.0,779.2345210000349,4.0,1.0,part_1,,,,,,,,,,,,,green,flipped triangle
1324.0,4.0,4.0,0.0,2.0,2.0,649.2919370000436,4.0,1.0,part_1,,,,,,,,,,,,,orange,square
1311.0,4.0,4.0,0.0,2.0,2.0,417.9442429999653,4.0,1.0,part_1,,,,,,,,,,,,,orange,square
0.0,7.0,3.0,1.0,5.0,5.0,436.6577690002486,1.0,0.0,part_2,go,250.0,250.0,1.0,,,,,,,,,green,flipped triangle
0.0,7.0,3.0,1.0,6.0,0.0,0.0,1.0,0.0,part_2,stop,250.0,250.0,4.0,,,,,,,,,green,flipped triangle
0.0,3.0,3.0,0.0,6.0,6.0,514.3748329996924,1.0,0.0,part_2,go,250.0,300.0,1.0,,,,,,,,,blue,triangle
0.0,5.0,1.0,1.0,5.0,0.0,0.0,1.0,0.0,part_2,stop,250.0,300.0,4.0,,,,,,,,,gray,I
0.0,4.0,4.0,0.0,5.0,5.0,430.68156299978,1.0,0.0,part_2,go,300.0,300.0,1.0,,,,,,,,,orange,square
0.0,8.0,4.0,1.0,6.0,6.0,335.3944460000093,1.0,0.0,part_2,go,300.0,300.0,1.0,,,,,,,,,white,hexagon
0.0,8.0,4.0,1.0,6.0,6.0,417.7227779996428,1.0,0.0,part_2,stop,300.0,300.0,3.0,,,,,,,,,white,hexagon
0.0,1.0,1.0,0.0,6.0,6.0,363.7028319999444,1.0,0.0,part_2,go,300.0,250.0,1.0,,,,,,,,,magenta,circle
0.0,4.0,4.0,0.0,5.0,5.0,345.1050319999922,1.0,0.0,part_2,go,300.0,250.0,1.0,,,,,,,,,orange,square
0.0,8.0,4.0,1.0,5.0,5.0,382.2251910000886,1.0,0.0,part_2,go,300.0,250.0,1.0,,,,,,,,,white,hexagon
0.0,5.0,1.0,1.0,5.0,5.0,402.485966000313,1.0,0.0,part_2,stop,300.0,250.0,3.0,,,,,,,,,gray,I
0.0,3.0,3.0,0.0,5.0,5.0,373.4005969999998,1.0,0.0,part_2,go,250.0,250.0,1.0,,,,,,,,,blue,triangle
0.0,6.0,2.0,1.0,5.0,5.0,445.9930069997426,1.0,0.0,part_2,go,250.0,250.0,1.0,,,,,,,,,cyan,cross
0.0,1.0,1.0,0.0,6.0,6.0,401.6731269998672,1.0,0.0,part_2,go,250.0,250.0,1.0,,,,,,,,,magenta,circle
0.0,5.0,1.0,1.0,6.0,6.0,405.5253060000723,1.0,0.0,part_2,stop,250.0,250.0,3.0,,,,,,,,,gray,I
0.0,4.0,4.0,0.0,6.0,6.0,522.4522260000413,1.0,0.0,part_2,go,250.0,200.0,1.0,,,,,,,,,orange,square
0.0,1.0,1.0,0.0,6.0,6.0,399.2994150003142,1.0,0.0,part_2,go,250.0,200.0,1.0,,,,,,,,,magenta,circle
0.0,7.0,3.0,1.0,6.0,0.0,0.0,1.0,0.0,part_2,stop,250.0,200.0,4.0,,,,,,,,,green,flipped triangle
0.0,5.0,1.0,1.0,6.0,6.0,385.9163759998409,1.0,0.0,part_2,stop,250.0,250.0,3.0,,,,,,,,,gray,I
0.0,2.0,2.0,0.0,6.0,6.0,513.9018519998899,1.0,0.0,part_2,go,250.0,200.0,1.0,,,,,,,,,yellow,diamond
0.0,6.0,2.0,1.0,6.0,0.0,0.0,1.0,0.0,part_2,stop,250.0,200.0,4.0,,,,,,,,,cyan,cross
0.0,7.0,3.0,1.0,5.0,5.0,360.3927580002164,1.0,0.0,part_2,stop,250.0,250.0,3.0,,,,,,,,,green,flipped triangle
0.0,6.0,2.0,1.0,6.0,6.0,313.2378939999398,1.0,0.0,part_2,stop,200.0,250.0,3.0,,,,,,,,,cyan,cross
0.0,4.0,4.0,0.0,5.0,5.0,421.0904120000123,1.0,0.0,part_2,go,200.0,200.0,1.0,,,,,,,,,orange,square
0.0,6.0,2.0,1.0,5.0,0.0,0.0,1.0,0.0,part_2,stop,200.0,200.0,4.0,,,,,,,,,cyan,cross
0.0,4.0,4.0,0.0,6.0,6.0,354.4531840002491,1.0,0.0,part_2,go,250.0,200.0,1.0,,,,,,,,,orange,square
0.0,7.0,3.0,1.0,5.0,5.0,373.1801879998784,1.0,0.0,part_2,stop,250.0,200.0,3.0,,,,,,,,,green,flipped triangle
0.0,3.0,3.0,0.0,6.0,6.0,384.6426030004295,1.0,0.0,part_2,go,200.0,200.0,1.0,,,,,,,,,blue,triangle
0.0,8.0,4.0,1.0,6.0,0.0,0.0,1.0,0.0,part_2,stop,200.0,200.0,4.0,,,,,,,,,white,hexagon
0.0,3.0,3.0,0.0,6.0,6.0,383.4481369999594,1.0,0.0,part_2,go,200.0,250.0,1.0,,,,,,,,,blue,triangle
0.0,1.0,1.0,0.0,5.0,5.0,393.3088409999072,1.0,0.0,part_2,go,200.0,250.0,1.0,,,,,,,,,magenta,circle
0.0,6.0,2.0,1.0,6.0,6.0,365.4784149998704,1.0,0.0,part_2,stop,200.0,250.0,3.0,,,,,,,,,cyan,cross
0.0,8.0,4.0,1.0,5.0,5.0,382.9632840001977,1.0,0.0,part_2,go,200.0,200.0,1.0,,,,,,,,,white,hexagon
0.0,3.0,3.0,0.0,5.0,5.0,393.6109510000278,1.0,0.0,part_2,go,200.0,200.0,1.0,,,,,,,,,blue,triangle
0.0,3.0,3.0,0.0,5.0,5.0,402.4961449999864,1.0,0.0,part_2,go,200.0,200.0,1.0,,,,,,,,,blue,triangle
0.0,4.0,4.0,0.0,6.0,6.0,384.0200679996997,1.0,0.0,part_2,go,200.0,200.0,1.0,,,,,,,,,orange,square
0.0,4.0,4.0,0.0,5.0,5.0,392.450990999805,2.0,0.0,part_2,go,200.0,200.0,1.0,,,,,,,,,orange,square
0.0,7.0,3.0,1.0,5.0,5.0,372.9063659998246,2.0,0.0,part_2,stop,200.0,200.0,3.0,,,,,,,,,green,flipped triangle
0.0,8.0,4.0,1.0,5.0,0.0,0.0,2.0,0.0,part_2,stop,150.0,200.0,4.0,,,,,,,,,white,hexagon
0.0,7.0,3.0,1.0,5.0,5.0,393.5234959999434,2.0,0.0,part_2,stop,200.0,200.0,3.0,,,,,,,,,green,flipped triangle
0.0,4.0,4.0,0.0,5.0,5.0,392.7783680001084,2.0,0.0,part_2,go,150.0,200.0,1.0,,,,,,,,,orange,square
0.0,6.0,2.0,1.0,5.0,0.0,0.0,2.0,0.0,part_2,stop,150.0,200.0,4.0,,,,,,,,,cyan,cross
0.0,8.0,4.0,1.0,5.0,5.0,399.6544850001555,2.0,0.0,part_2,stop,200.0,200.0,3.0,,,,,,,,,white,hexagon
0.0,1.0,1.0,0.0,6.0,6.0,410.8673089999684,2.0,0.0,part_2,go,150.0,200.0,1.0,,,,,,,,,magenta,circle
0.0,2.0,2.0,0.0,5.0,5.0,421.1354830003984,2.0,0.0,part_2,go,150.0,200.0,1.0,,,,,,,,,yellow,diamond
0.0,7.0,3.0,1.0,6.0,6.0,381.5421780000179,2.0,0.0,part_2,go,150.0,200.0,1.0,,,,,,,,,green,flipped triangle
0.0,2.0,2.0,0.0,6.0,6.0,419.7540169998319,2.0,0.0,part_2,go,150.0,200.0,1.0,,,,,,,,,yellow,diamond
0.0,4.0,4.0,0.0,6.0,6.0,382.3784999999589,2.0,0.0,part_2,go,150.0,200.0,1.0,,,,,,,,,orange,square
0.0,6.0,2.0,1.0,6.0,0.0,0.0,2.0,0.0,part_2,stop,150.0,200.0,4.0,,,,,,,,,cyan,cross
0.0,7.0,3.0,1.0,5.0,0.0,0.0,2.0,0.0,part_2,stop,150.0,250.0,4.0,,,,,,,,,green,flipped triangle
0.0,1.0,1.0,0.0,5.0,5.0,502.7573110000958,2.0,0.0,part_2,go,200.0,250.0,1.0,,,,,,,,,magenta,circle
0.0,8.0,4.0,1.0,5.0,5.0,418.5839060000944,2.0,0.0,part_2,go,200.0,250.0,1.0,,,,,,,,,white,hexagon
0.0,7.0,3.0,1.0,5.0,5.0,396.5837369996734,2.0,0.0,part_2,stop,200.0,250.0,3.0,,,,,,,,,green,flipped triangle
0.0,3.0,3.0,0.0,5.0,5.0,419.6641650000856,2.0,0.0,part_2,go,150.0,250.0,1.0,,,,,,,,,blue,triangle
0.0,6.0,2.0,1.0,5.0,0.0,0.0,2.0,0.0,part_2,stop,150.0,250.0,4.0,,,,,,,,,cyan,cross
0.0,8.0,4.0,1.0,6.0,0.0,0.0,2.0,0.0,part_2,stop,200.0,250.0,4.0,,,,,,,,,white,hexagon
0.0,5.0,1.0,1.0,6.0,6.0,552.5664629999483,2.0,0.0,part_2,stop,200.0,300.0,3.0,,,,,,,,,gray,I
0.0,3.0,3.0,0.0,5.0,5.0,383.7834860000839,2.0,0.0,part_2,go,200.0,250.0,1.0,,,,,,,,,blue,triangle
0.0,3.0,3.0,0.0,6.0,6.0,409.542429999874,2.0,0.0,part_2,go,200.0,250.0,1.0,,,,,,,,,blue,triangle
0.0,4.0,4.0,0.0,6.0,6.0,428.9611140002307,2.0,0.0,part_2,go,200.0,250.0,1.0,,,,,,,,,orange,square
0.0,2.0,2.0,0.0,6.0,6.0,373.5700150000411,2.0,0.0,part_2,go,200.0,250.0,1.0,,,,,,,,,yellow,diamond
0.0,4.0,4.0,0.0,6.0,6.0,354.9698279998665,2.0,0.0,part_2,go,200.0,250.0,1.0,,,,,,,,,orange,square
0.0,2.0,2.0,0.0,6.0,6.0,400.9695009999632,2.0,0.0,part_2,go,200.0,250.0,1.0,,,,,,,,,yellow,diamond
0.0,6.0,2.0,1.0,5.0,0.0,0.0,2.0,0.0,part_2,stop,200.0,250.0,4.0,,,,,,,,,cyan,cross
0.0,8.0,4.0,1.0,5.0,0.0,0.0,2.0,0.0,part_2,stop,250.0,250.0,4.0,,,,,,,,,white,hexagon
0.0,2.0,2.0,0.0,5.0,5.0,541.9445890001953,2.0,0.0,part_2,go,300.0,250.0,1.0,,,,,,,,,yellow,diamond
0.0,4.0,4.0,0.0,6.0,6.0,382.304510999802,2.0,0.0,part_2,go,300.0,250.0,1.0,,,,,,,,,orange,square
0.0,1.0,1.0,0.0,6.0,6.0,410.7926110000335,2.0,0.0,part_2,go,300.0,250.0,1.0,,,,,,,,,magenta,circle
0.0,3.0,3.0,0.0,6.0,6.0,419.2014780001045,2.0,0.0,part_2,go,300.0,250.0,1.0,,,,,,,,,blue,triangle
0.0,4.0,4.0,0.0,5.0,5.0,410.8586559996183,2.0,0.0,part_2,go,300.0,250.0,1.0,,,,,,,,,orange,square
0.0,8.0,4.0,1.0,5.0,5.0,396.0800350000681,2.0,0.0,part_2,stop,300.0,250.0,3.0,,,,,,,,,white,hexagon
0.0,7.0,3.0,1.0,6.0,6.0,360.580784999911,2.0,0.0,part_2,stop,250.0,250.0,3.0,,,,,,,,,green,flipped triangle
0.0,3.0,3.0,0.0,6.0,6.0,381.5032560000873,3.0,0.0,part_2,go,250.0,200.0,1.0,,,,,,,,,blue,triangle
0.0,7.0,3.0,1.0,6.0,6.0,380.8632250002119,3.0,0.0,part_2,stop,250.0,200.0,3.0,,,,,,,,,green,flipped triangle
0.0,1.0,1.0,0.0,6.0,6.0,364.7997190000751,3.0,0.0,part_2,go,250.0,150.0,1.0,,,,,,,,,magenta,circle
0.0,4.0,4.0,0.0,6.0,6.0,437.7804800001286,3.0,0.0,part_2,go,250.0,150.0,1.0,,,,,,,,,orange,square
0.0,6.0,2.0,1.0,5.0,5.0,355.3264530000888,3.0,0.0,part_2,go,250.0,150.0,1.0,,,,,,,,,cyan,cross
0.0,7.0,3.0,1.0,6.0,6.0,326.3809069999297,3.0,0.0,part_2,stop,250.0,150.0,3.0,,,,,,,,,green,flipped triangle
0.0,6.0,2.0,1.0,5.0,5.0,369.1444910000427,3.0,0.0,part_2,stop,250.0,100.0,3.0,,,,,,,,,cyan,cross
0.0,7.0,3.0,1.0,5.0,0.0,0.0,3.0,0.0,part_2,stop,200.0,100.0,4.0,,,,,,,,,green,flipped triangle
0.0,4.0,4.0,0.0,6.0,6.0,372.2436240000206,3.0,0.0,part_2,go,250.0,100.0,1.0,,,,,,,,,orange,square
0.0,3.0,3.0,0.0,6.0,6.0,362.7714950002882,3.0,0.0,part_2,go,250.0,100.0,1.0,,,,,,,,,blue,triangle
0.0,7.0,3.0,1.0,6.0,0.0,0.0,3.0,0.0,part_2,stop,250.0,100.0,4.0,,,,,,,,,green,flipped triangle
0.0,1.0,1.0,0.0,5.0,5.0,550.5593819998467,3.0,0.0,part_2,go,250.0,150.0,1.0,,,,,,,,,magenta,circle
0.0,8.0,4.0,1.0,5.0,0.0,0.0,3.0,0.0,part_2,stop,250.0,150.0,4.0,,,,,,,,,white,hexagon
0.0,7.0,3.0,1.0,6.0,0.0,0.0,3.0,0.0,part_2,stop,300.0,150.0,4.0,,,,,,,,,green,flipped triangle
0.0,4.0,4.0,0.0,6.0,6.0,1025.029180999809,3.0,0.0,part_2,go,300.0,200.0,1.0,,,,,,,,,orange,square
0.0,8.0,4.0,1.0,6.0,6.0,437.235974000032,3.0,0.0,part_2,stop,300.0,200.0,3.0,,,,,,,,,white,hexagon
0.0,1.0,1.0,0.0,5.0,5.0,401.2175190000562,3.0,0.0,part_2,go,300.0,150.0,1.0,,,,,,,,,magenta,circle
0.0,8.0,4.0,1.0,6.0,6.0,372.7148319999287,3.0,0.0,part_2,go,300.0,150.0,1.0,,,,,,,,,white,hexagon
0.0,1.0,1.0,0.0,6.0,6.0,409.4592269998429,3.0,0.0,part_2,go,300.0,150.0,1.0,,,,,,,,,magenta,circle
0.0,7.0,3.0,1.0,5.0,5.0,370.8367889998953,3.0,0.0,part_2,stop,300.0,150.0,3.0,,,,,,,,,green,flipped triangle
0.0,1.0,1.0,0.0,5.0,5.0,541.6428520002228,3.0,0.0,part_2,go,250.0,150.0,1.0,,,,,,,,,magenta,circle
0.0,4.0,4.0,0.0,5.0,5.0,551.9502530000864,3.0,0.0,part_2,go,250.0,150.0,1.0,,,,,,,,,orange,square
0.0,8.0,4.0,1.0,5.0,5.0,401.8270550000125,3.0,0.0,part_2,stop,250.0,150.0,3.0,,,,,,,,,white,hexagon
0.0,2.0,2.0,0.0,6.0,6.0,466.3392240004214,3.0,0.0,part_2,go,200.0,150.0,1.0,,,,,,,,,yellow,diamond
0.0,5.0,1.0,1.0,5.0,0.0,0.0,3.0,0.0,part_2,stop,200.0,150.0,4.0,,,,,,,,,gray,I
0.0,3.0,3.0,0.0,6.0,6.0,392.3426169999402,3.0,0.0,part_2,go,250.0,150.0,1.0,,,,,,,,,blue,triangle
0.0,5.0,1.0,1.0,5.0,5.0,456.1547409998638,3.0,0.0,part_2,go,250.0,150.0,1.0,,,,,,,,,gray,I
0.0,4.0,4.0,0.0,5.0,5.0,439.974839000115,3.0,0.0,part_2,go,250.0,150.0,1.0,,,,,,,,,orange,square
0.0,5.0,1.0,1.0,5.0,5.0,397.0856109999658,3.0,0.0,part_2,stop,250.0,150.0,3.0,,,,,,,,,gray,I
0.0,8.0,4.0,1.0,5.0,5.0,396.1689310003748,3.0,0.0,part_2,stop,200.0,150.0,3.0,,,,,,,,,white,hexagon
0.0,3.0,3.0,0.0,5.0,5.0,567.7447660000325,3.0,0.0,part_2,go,150.0,150.0,1.0,,,,,,,,,blue,triangle
0.0,7.0,3.0,1.0,5.0,0.0,0.0,3.0,0.0,part_2,stop,150.0,150.0,4.0,,,,,,,,,green,flipped triangle
0.0,2.0,2.0,0.0,6.0,6.0,418.7470080000821,3.0,0.0,part_2,go,200.0,150.0,1.0,,,,,,,,,yellow,diamond
0.0,5.0,1.0,1.0,6.0,0.0,0.0,3.0,0.0,part_2,stop,200.0,150.0,4.0,,,,,,,,,gray,I
0.0,5.0,1.0,1.0,6.0,6.0,483.2626170000367,3.0,0.0,part_2,go,200.0,200.0,1.0,,,,,,,,,gray,I
0.0,4.0,4.0,0.0,5.0,5.0,372.0479300000079,3.0,0.0,part_2,go,200.0,200.0,1.0,,,,,,,,,orange,square
0.0,2.0,2.0,0.0,5.0,5.0,461.2753499995961,4.0,0.0,part_2,go,200.0,200.0,1.0,,,,,,,,,yellow,diamond
0.0,5.0,1.0,1.0,5.0,5.0,407.7293599998484,4.0,0.0,part_2,stop,200.0,200.0,3.0,,,,,,,,,gray,I
0.0,8.0,4.0,1.0,6.0,6.0,353.5631169997941,4.0,0.0,part_2,stop,150.0,200.0,3.0,,,,,,,,,white,hexagon
0.0,2.0,2.0,0.0,6.0,6.0,352.8090370000427,4.0,0.0,part_2,go,150.0,150.0,1.0,,,,,,,,,yellow,diamond
0.0,4.0,4.0,0.0,5.0,5.0,364.0462099997421,4.0,0.0,part_2,go,150.0,150.0,1.0,,,,,,,,,orange,square
0.0,8.0,4.0,1.0,5.0,5.0,334.0990800002146,4.0,0.0,part_2,stop,150.0,150.0,3.0,,,,,,,,,white,hexagon
0.0,8.0,4.0,1.0,5.0,5.0,374.2343919998347,4.0,0.0,part_2,go,100.0,150.0,1.0,,,,,,,,,white,hexagon
0.0,1.0,1.0,0.0,6.0,6.0,382.8510530001949,4.0,0.0,part_2,go,100.0,150.0,1.0,,,,,,,,,magenta,circle
0.0,1.0,1.0,0.0,5.0,5.0,401.8266109997057,4.0,0.0,part_2,go,100.0,150.0,1.0,,,,,,,,,magenta,circle
0.0,1.0,1.0,0.0,6.0,6.0,475.0427229996603,4.0,0.0,part_2,go,100.0,150.0,1.0,,,,,,,,,magenta,circle
0.0,7.0,3.0,1.0,5.0,5.0,336.1439320001409,4.0,0.0,part_2,go,100.0,150.0,1.0,,,,,,,,,green,flipped triangle
0.0,2.0,2.0,0.0,5.0,5.0,354.6814549999908,4.0,0.0,part_2,go,100.0,150.0,1.0,,,,,,,,,yellow,diamond
0.0,6.0,2.0,1.0,6.0,0.0,0.0,4.0,0.0,part_2,stop,100.0,150.0,4.0,,,,,,,,,cyan,cross
0.0,7.0,3.0,1.0,6.0,0.0,0.0,4.0,0.0,part_2,stop,100.0,200.0,4.0,,,,,,,,,green,flipped triangle
0.0,2.0,2.0,0.0,6.0,6.0,401.426272000208,4.0,0.0,part_2,go,100.0,250.0,1.0,,,,,,,,,yellow,diamond
0.0,7.0,3.0,1.0,6.0,6.0,418.4827300000506,4.0,0.0,part_2,stop,100.0,250.0,3.0,,,,,,,,,green,flipped triangle
0.0,2.0,2.0,0.0,5.0,5.0,447.8727709997656,4.0,0.0,part_2,go,100.0,200.0,1.0,,,,,,,,,yellow,diamond
0.0,6.0,2.0,1.0,6.0,0.0,0.0,4.0,0.0,part_2,stop,100.0,200.0,4.0,,,,,,,,,cyan,cross
0.0,3.0,3.0,0.0,5.0,5.0,447.410915999626,4.0,0.0,part_2,go,100.0,250.0,1.0,,,,,,,,,blue,triangle
0.0,7.0,3.0,1.0,6.0,6.0,485.5211369999779,4.0,0.0,part_2,stop,100.0,250.0,3.0,,,,,,,,,green,flipped triangle
0.0,1.0,1.0,0.0,5.0,5.0,392.2862509998595,4.0,0.0,part_2,go,100.0,200.0,1.0,,,,,,,,,magenta,circle
0.0,3.0,3.0,0.0,6.0,6.0,475.523818000056,4.0,0.0,part_2,go,100.0,200.0,1.0,,,,,,,,,blue,triangle
0.0,7.0,3.0,1.0,6.0,6.0,512.0817689999058,4.0,0.0,part_2,go,100.0,200.0,1.0,,,,,,,,,green,flipped triangle
0.0,3.0,3.0,0.0,5.0,5.0,504.21098500009975,4.0,0.0,part_2,go,100.0,200.0,1.0,,,,,,,,,blue,triangle
0.0,3.0,3.0,0.0,5.0,5.0,494.2114410000613,4.0,0.0,part_2,go,100.0,200.0,1.0,,,,,,,,,blue,triangle
0.0,6.0,2.0,1.0,5.0,5.0,493.0821569996624,4.0,0.0,part_2,go,100.0,200.0,1.0,,,,,,,,,cyan,cross
0.0,5.0,1.0,1.0,6.0,0.0,0.0,4.0,0.0,part_2,stop,100.0,200.0,4.0,,,,,,,,,gray,I
0.0,1.0,1.0,0.0,5.0,5.0,494.2681339998671,4.0,0.0,part_2,go,100.0,250.0,1.0,,,,,,,,,magenta,circle
0.0,5.0,1.0,1.0,6.0,6.0,461.0434450000866,4.0,0.0,part_2,stop,100.0,250.0,3.0,,,,,,,,,gray,I
0.0,4.0,4.0,0.0,6.0,6.0,446.748985999875,4.0,0.0,part_2,go,100.0,200.0,1.0,,,,,,,,,orange,square
0.0,8.0,4.0,1.0,6.0,0.0,0.0,4.0,0.0,part_2,stop,100.0,200.0,4.0,,,,,,,,,white,hexagon
0.0,1.0,1.0,0.0,5.0,5.0,373.5267859997293,4.0,0.0,part_2,go,100.0,250.0,1.0,,,,,,,,,magenta,circle
0.0,3.0,3.0,0.0,6.0,6.0,457.096995000029,4.0,0.0,part_2,go,100.0,250.0,1.0,,,,,,,,,blue,triangle
0.0,8.0,4.0,1.0,6.0,0.0,0.0,4.0,0.0,part_2,stop,100.0,250.0,4.0,,,,,,,,,white,hexagon
0.0,5.0,1.0,1.0,5.0,0.0,0.0,4.0,0.0,part_2,stop,100.0,300.0,4.0,,,,,,,,,gray,I
0.0,7.0,3.0,1.0,5.0,0.0,0.0,4.0,0.0,part_2,stop,150.0,300.0,4.0,,,,,,,,,green,flipped triangle
0.0,3.0,3.0,0.0,5.0,5.0,449.9071099999128,5.0,0.0,part_2,go,200.0,300.0,1.0,,,,,,,,,blue,triangle
0.0,4.0,4.0,0.0,5.0,5.0,371.4720049997595,5.0,0.0,part_2,go,200.0,300.0,1.0,,,,,,,,,orange,square
0.0,4.0,4.0,0.0,5.0,5.0,364.7045419997994,5.0,0.0,part_2,go,200.0,300.0,1.0,,,,,,,,,orange,square
0.0,7.0,3.0,1.0,6.0,6.0,317.6095809999424,5.0,0.0,part_2,go,200.0,300.0,1.0,,,,,,,,,green,flipped triangle
0.0,3.0,3.0,0.0,6.0,6.0,374.5138170002065,5.0,0.0,part_2,go,200.0,300.0,1.0,,,,,,,,,blue,triangle
0.0,8.0,4.0,1.0,5.0,5.0,352.6578930000141,5.0,0.0,part_2,stop,200.0,300.0,3.0,,,,,,,,,white,hexagon
0.0,5.0,1.0,1.0,6.0,6.0,403.9503740000327,5.0,0.0,part_2,stop,150.0,300.0,3.0,,,,,,,,,gray,I
0.0,5.0,1.0,1.0,6.0,0.0,0.0,5.0,0.0,part_2,stop,150.0,250.0,4.0,,,,,,,,,gray,I
0.0,3.0,3.0,0.0,5.0,5.0,477.7612899997621,5.0,0.0,part_2,go,150.0,300.0,1.0,,,,,,,,,blue,triangle
0.0,5.0,1.0,1.0,5.0,0.0,0.0,5.0,0.0,part_2,stop,150.0,300.0,4.0,,,,,,,,,gray,I
0.0,6.0,2.0,1.0,5.0,0.0,0.0,5.0,0.0,part_2,stop,200.0,300.0,4.0,,,,,,,,,cyan,cross
0.0,3.0,3.0,0.0,5.0,5.0,402.7994359998956,5.0,0.0,part_2,go,250.0,300.0,1.0,,,,,,,,,blue,triangle
0.0,3.0,3.0,0.0,5.0,5.0,390.6701860000794,5.0,0.0,part_2,go,250.0,300.0,1.0,,,,,,,,,blue,triangle
0.0,6.0,2.0,1.0,6.0,6.0,393.77761500009,5.0,0.0,part_2,stop,250.0,300.0,3.0,,,,,,,,,cyan,cross
0.0,2.0,2.0,0.0,6.0,6.0,541.2426459997732,5.0,0.0,part_2,go,250.0,250.0,1.0,,,,,,,,,yellow,diamond
0.0,1.0,1.0,0.0,5.0,5.0,448.9602730000115,5.0,0.0,part_2,go,250.0,250.0,1.0,,,,,,,,,magenta,circle
0.0,8.0,4.0,1.0,5.0,5.0,407.8836650000994,5.0,0.0,part_2,stop,250.0,250.0,3.0,,,,,,,,,white,hexagon
0.0,4.0,4.0,0.0,5.0,5.0,449.849476000054,5.0,0.0,part_2,go,200.0,250.0,1.0,,,,,,,,,orange,square
0.0,2.0,2.0,0.0,5.0,5.0,457.9327310002554,5.0,0.0,part_2,go,200.0,250.0,1.0,,,,,,,,,yellow,diamond
0.0,6.0,2.0,1.0,6.0,6.0,410.5956859998514,5.0,0.0,part_2,stop,200.0,250.0,3.0,,,,,,,,,cyan,cross
0.0,7.0,3.0,1.0,5.0,5.0,467.385264999848,5.0,0.0,part_2,go,200.0,200.0,1.0,,,,,,,,,green,flipped triangle
0.0,1.0,1.0,0.0,6.0,6.0,448.1892010003321,5.0,0.0,part_2,go,200.0,200.0,1.0,,,,,,,,,magenta,circle
0.0,6.0,2.0,1.0,6.0,0.0,0.0,5.0,0.0,part_2,stop,200.0,200.0,4.0,,,,,,,,,cyan,cross
0.0,2.0,2.0,0.0,6.0,6.0,431.0918969999875,5.0,0.0,part_2,go,200.0,250.0,1.0,,,,,,,,,yellow,diamond
0.0,3.0,3.0,0.0,6.0,6.0,590.955964999921,5.0,0.0,part_2,go,200.0,250.0,1.0,,,,,,,,,blue,triangle
0.0,1.0,1.0,0.0,5.0,5.0,645.3833380001015,5.0,0.0,part_2,go,200.0,250.0,1.0,,,,,,,,,magenta,circle
0.0,5.0,1.0,1.0,6.0,6.0,356.4974420000908,5.0,0.0,part_2,stop,200.0,250.0,3.0,,,,,,,,,gray,I
0.0,2.0,2.0,0.0,6.0,6.0,617.1336229999724,5.0,0.0,part_2,go,200.0,200.0,1.0,,,,,,,,,yellow,diamond
0.0,8.0,4.0,1.0,6.0,0.0,0.0,5.0,0.0,part_2,stop,200.0,200.0,4.0,,,,,,,,,white,hexagon
0.0,7.0,3.0,1.0,6.0,6.0,600.9599869998965,5.0,0.0,part_2,stop,200.0,250.0,3.0,,,,,,,,,green,flipped triangle
0.0,8.0,4.0,1.0,5.0,0.0,0.0,5.0,0.0,part_2,stop,200.0,200.0,4.0,,,,,,,,,white,hexagon
0.0,3.0,3.0,0.0,5.0,5.0,429.9521469997671,5.0,0.0,part_2,go,250.0,200.0,1.0,,,,,,,,,blue,triangle
0.0,5.0,1.0,1.0,6.0,0.0,0.0,5.0,0.0,part_2,stop,250.0,200.0,4.0,,,,,,,,,gray,I
0.0,7.0,3.0,1.0,5.0,0.0,0.0,5.0,0.0,part_2,stop,250.0,250.0,4.0,,,,,,,,,green,flipped triangle
0.0,5.0,1.0,1.0,6.0,6.0,495.7346700002745,5.0,0.0,part_2,go,300.0,250.0,1.0,,,,,,,,,gray,I
0.0,6.0,2.0,1.0,6.0,6.0,457.4908549998326,5.0,0.0,part_2,go,300.0,250.0,1.0,,,,,,,,,cyan,cross
0.0,5.0,1.0,1.0,5.0,5.0,475.1592550001078,6.0,0.0,part_2,go,300.0,250.0,1.0,,,,,,,,,gray,I
0.0,7.0,3.0,1.0,6.0,6.0,373.4647440001026,6.0,0.0,part_2,go,300.0,250.0,1.0,,,,,,,,,green,flipped triangle
0.0,6.0,2.0,1.0,6.0,6.0,399.2668969999613,6.0,0.0,part_2,stop,300.0,250.0,3.0,,,,,,,,,cyan,cross
0.0,5.0,1.0,1.0,5.0,5.0,349.7872039997673,6.0,0.0,part_2,stop,300.0,200.0,3.0,,,,,,,,,gray,I
0.0,4.0,4.0,0.0,5.0,5.0,427.4444059997222,6.0,0.0,part_2,go,250.0,200.0,1.0,,,,,,,,,orange,square
0.0,5.0,1.0,1.0,5.0,0.0,0.0,6.0,0.0,part_2,stop,250.0,200.0,4.0,,,,,,,,,gray,I
0.0,5.0,1.0,1.0,5.0,5.0,521.130912999979,6.0,0.0,part_2,go,300.0,200.0,1.0,,,,,,,,,gray,I
0.0,7.0,3.0,1.0,6.0,0.0,0.0,6.0,0.0,part_2,stop,300.0,200.0,4.0,,,,,,,,,green,flipped triangle
0.0,2.0,2.0,0.0,6.0,6.0,419.9512089999189,6.0,0.0,part_2,go,300.0,250.0,1.0,,,,,,,,,yellow,diamond
0.0,4.0,4.0,0.0,6.0,6.0,438.0944170002294,6.0,0.0,part_2,go,300.0,250.0,1.0,,,,,,,,,orange,square
0.0,3.0,3.0,0.0,6.0,6.0,382.6109010001346,6.0,0.0,part_2,go,300.0,250.0,1.0,,,,,,,,,blue,triangle
0.0,7.0,3.0,1.0,6.0,6.0,390.7328989998859,6.0,0.0,part_2,go,300.0,250.0,1.0,,,,,,,,,green,flipped triangle
0.0,7.0,3.0,1.0,5.0,5.0,507.7162729999145,6.0,0.0,part_2,stop,300.0,250.0,3.0,,,,,,,,,green,flipped triangle
0.0,6.0,2.0,1.0,5.0,5.0,531.711740999981,6.0,0.0,part_2,go,250.0,250.0,1.0,,,,,,,,,cyan,cross
0.0,1.0,1.0,0.0,5.0,5.0,520.1142130003973,6.0,0.0,part_2,go,250.0,250.0,1.0,,,,,,,,,magenta,circle
0.0,2.0,2.0,0.0,5.0,5.0,392.4224789998334,6.0,0.0,part_2,go,250.0,250.0,1.0,,,,,,,,,yellow,diamond
0.0,8.0,4.0,1.0,6.0,0.0,0.0,6.0,0.0,part_2,stop,250.0,250.0,4.0,,,,,,,,,white,hexagon
0.0,7.0,3.0,1.0,6.0,0.0,0.0,6.0,0.0,part_2,stop,250.0,300.0,4.0,,,,,,,,,green,flipped triangle
0.0,8.0,4.0,1.0,6.0,6.0,550.7727079998403,6.0,0.0,part_2,stop,250.0,350.0,3.0,,,,,,,,,white,hexagon
0.0,4.0,4.0,0.0,6.0,6.0,644.4027960001222,6.0,0.0,part_2,go,250.0,300.0,1.0,,,,,,,,,orange,square
0.0,2.0,2.0,0.0,6.0,6.0,913.1410459999644,6.0,0.0,part_2,go,250.0,300.0,1.0,,,,,,,,,yellow,diamond
0.0,2.0,2.0,0.0,5.0,5.0,568.018069000118,6.0,0.0,part_2,go,250.0,300.0,1.0,,,,,,,,,yellow,diamond
0.0,7.0,3.0,1.0,5.0,0.0,0.0,6.0,0.0,part_2,stop,250.0,300.0,4.0,,,,,,,,,green,flipped triangle
0.0,2.0,2.0,0.0,5.0,5.0,456.8841150003209,6.0,0.0,part_2,go,300.0,300.0,1.0,,,,,,,,,yellow,diamond
0.0,8.0,4.0,1.0,5.0,0.0,0.0,6.0,0.0,part_2,stop,300.0,300.0,4.0,,,,,,,,,white,hexagon
0.0,1.0,1.0,0.0,6.0,6.0,448.0862669997805,6.0,0.0,part_2,go,350.0,300.0,1.0,,,,,,,,,magenta,circle
0.0,1.0,1.0,0.0,5.0,5.0,447.9079100001399,6.0,0.0,part_2,go,350.0,300.0,1.0,,,,,,,,,magenta,circle
0.0,5.0,1.0,1.0,6.0,0.0,0.0,6.0,0.0,part_2,stop,350.0,300.0,4.0,,,,,,,,,gray,I
0.0,6.0,2.0,1.0,5.0,5.0,579.7143099998721,6.0,0.0,part_2,go,350.0,350.0,1.0,,,,,,,,,cyan,cross
0.0,6.0,2.0,1.0,6.0,0.0,0.0,6.0,0.0,part_2,stop,350.0,350.0,4.0,,,,,,,,,cyan,cross
0.0,8.0,4.0,1.0,6.0,6.0,540.5167919998348,6.0,0.0,part_2,go,350.0,400.0,1.0,,,,,,,,,white,hexagon
0.0,1.0,1.0,0.0,5.0,5.0,623.524673999782,6.0,0.0,part_2,go,350.0,400.0,1.0,,,,,,,,,magenta,circle
0.0,3.0,3.0,0.0,6.0,6.0,539.361998000004,6.0,0.0,part_2,go,350.0,400.0,1.0,,,,,,,,,blue,triangle
0.0,5.0,1.0,1.0,6.0,6.0,602.9347339999731,6.0,0.0,part_2,stop,350.0,400.0,3.0,,,,,,,,,gray,I
0.0,6.0,2.0,1.0,5.0,5.0,480.8566870001414,6.0,0.0,part_2,stop,350.0,350.0,3.0,,,,,,,,,cyan,cross
0.0,2.0,2.0,0.0,5.0,5.0,616.4927809995788,6.0,0.0,part_2,go,300.0,350.0,1.0,,,,,,,,,yellow,diamond
0.0,1.0,1.0,0.0,5.0,5.0,605.2244630000132,7.0,0.0,part_2,go,300.0,350.0,1.0,,,,,,,,,magenta,circle
0.0,2.0,2.0,0.0,5.0,5.0,410.7038040001498,7.0,0.0,part_2,go,300.0,350.0,1.0,,,,,,,,,yellow,diamond
0.0,2.0,2.0,0.0,6.0,6.0,401.6993680002088,7.0,0.0,part_2,go,300.0,350.0,1.0,,,,,,,,,yellow,diamond
0.0,2.0,2.0,0.0,5.0,5.0,372.7832869999474,7.0,0.0,part_2,go,300.0,350.0,1.0,,,,,,,,,yellow,diamond
0.0,5.0,1.0,1.0,5.0,5.0,429.157694999958,7.0,0.0,part_2,go,300.0,350.0,1.0,,,,,,,,,gray,I
0.0,8.0,4.0,1.0,6.0,6.0,597.1034200001668,7.0,0.0,part_2,go,300.0,350.0,1.0,,,,,,,,,white,hexagon
0.0,1.0,1.0,0.0,6.0,6.0,418.962848999854,7.0,0.0,part_2,go,300.0,350.0,1.0,,,,,,,,,magenta,circle
0.0,8.0,4.0,1.0,6.0,6.0,419.7112800002287,7.0,0.0,part_2,stop,300.0,350.0,3.0,,,,,,,,,white,hexagon
0.0,7.0,3.0,1.0,5.0,5.0,449.5267520001107,7.0,0.0,part_2,stop,300.0,300.0,3.0,,,,,,,,,green,flipped triangle
0.0,2.0,2.0,0.0,6.0,6.0,494.3512149998241,7.0,0.0,part_2,go,250.0,300.0,1.0,,,,,,,,,yellow,diamond
0.0,5.0,1.0,1.0,6.0,0.0,0.0,7.0,0.0,part_2,stop,250.0,300.0,4.0,,,,,,,,,gray,I
0.0,2.0,2.0,0.0,5.0,5.0,671.5537579998454,7.0,0.0,part_2,go,250.0,350.0,1.0,,,,,,,,,yellow,diamond
0.0,2.0,2.0,0.0,6.0,6.0,706.5730859999348,7.0,0.0,part_2,go,250.0,350.0,1.0,,,,,,,,,yellow,diamond
0.0,4.0,4.0,0.0,5.0,5.0,374.3062900002769,7.0,0.0,part_2,go,250.0,350.0,1.0,,,,,,,,,orange,square
0.0,6.0,2.0,1.0,5.0,5.0,410.5866469999455,7.0,0.0,part_2,stop,250.0,350.0,3.0,,,,,,,,,cyan,cross
0.0,4.0,4.0,0.0,6.0,6.0,391.003592999823,7.0,0.0,part_2,go,200.0,350.0,1.0,,,,,,,,,orange,square
0.0,5.0,1.0,1.0,5.0,5.0,672.0455399999992,7.0,0.0,part_2,go,200.0,350.0,1.0,,,,,,,,,gray,I
0.0,4.0,4.0,0.0,6.0,6.0,411.0565259998111,7.0,0.0,part_2,go,200.0,350.0,1.0,,,,,,,,,orange,square
0.0,1.0,1.0,0.0,6.0,6.0,382.4150509999526,7.0,0.0,part_2,go,200.0,350.0,1.0,,,,,,,,,magenta,circle
0.0,1.0,1.0,0.0,6.0,6.0,390.5850740002279,7.0,0.0,part_2,go,200.0,350.0,1.0,,,,,,,,,magenta,circle
0.0,4.0,4.0,0.0,6.0,6.0,382.0428419999189,7.0,0.0,part_2,go,200.0,350.0,1.0,,,,,,,,,orange,square
0.0,5.0,1.0,1.0,5.0,0.0,0.0,7.0,0.0,part_2,stop,200.0,350.0,4.0,,,,,,,,,gray,I
0.0,2.0,2.0,0.0,5.0,5.0,476.0106529997756,7.0,0.0,part_2,go,250.0,350.0,1.0,,,,,,,,,yellow,diamond
0.0,5.0,1.0,1.0,6.0,6.0,393.7342479998733,7.0,0.0,part_2,go,250.0,350.0,1.0,,,,,,,,,gray,I
0.0,3.0,3.0,0.0,5.0,5.0,401.8764709999232,7.0,0.0,part_2,go,250.0,350.0,1.0,,,,,,,,,blue,triangle
0.0,4.0,4.0,0.0,5.0,5.0,466.5765019999526,7.0,0.0,part_2,go,250.0,350.0,1.0,,,,,,,,,orange,square
0.0,3.0,3.0,0.0,6.0,6.0,549.4306069999766,7.0,0.0,part_2,go,250.0,350.0,1.0,,,,,,,,,blue,triangle
0.0,4.0,4.0,0.0,6.0,6.0,401.4887349999299,7.0,0.0,part_2,go,250.0,350.0,1.0,,,,,,,,,orange,square
0.0,8.0,4.0,1.0,6.0,6.0,438.03879999995837,7.0,0.0,part_2,stop,250.0,350.0,3.0,,,,,,,,,white,hexagon
0.0,6.0,2.0,1.0,6.0,0.0,0.0,7.0,0.0,part_2,stop,250.0,300.0,4.0,,,,,,,,,cyan,cross
0.0,6.0,2.0,1.0,6.0,0.0,0.0,7.0,0.0,part_2,stop,250.0,350.0,4.0,,,,,,,,,cyan,cross
0.0,5.0,1.0,1.0,6.0,6.0,456.8987140000899,7.0,0.0,part_2,go,250.0,400.0,1.0,,,,,,,,,gray,I
0.0,1.0,1.0,0.0,5.0,5.0,597.8655369999615,7.0,0.0,part_2,go,250.0,400.0,1.0,,,,,,,,,magenta,circle
0.0,6.0,2.0,1.0,6.0,0.0,0.0,7.0,0.0,part_2,stop,250.0,400.0,4.0,,,,,,,,,cyan,cross
0.0,3.0,3.0,0.0,6.0,6.0,717.3804169997311,7.0,0.0,part_2,go,250.0,450.0,1.0,,,,,,,,,blue,triangle
0.0,6.0,2.0,1.0,5.0,0.0,0.0,7.0,0.0,part_2,stop,250.0,450.0,4.0,,,,,,,,,cyan,cross
0.0,2.0,2.0,0.0,5.0,5.0,418.7389850003455,8.0,0.0,part_2,go,300.0,450.0,1.0,,,,,,,,,yellow,diamond
0.0,1.0,1.0,0.0,6.0,6.0,371.5458009996837,8.0,0.0,part_2,go,300.0,450.0,1.0,,,,,,,,,magenta,circle
0.0,7.0,3.0,1.0,5.0,5.0,318.3617859999685,8.0,0.0,part_2,go,300.0,450.0,1.0,,,,,,,,,green,flipped triangle
0.0,2.0,2.0,0.0,6.0,6.0,391.0654409996823,8.0,0.0,part_2,go,300.0,450.0,1.0,,,,,,,,,yellow,diamond
0.0,6.0,2.0,1.0,6.0,6.0,392.3307959998965,8.0,0.0,part_2,go,300.0,450.0,1.0,,,,,,,,,cyan,cross
0.0,8.0,4.0,1.0,5.0,5.0,386.8396849998134,8.0,0.0,part_2,stop,300.0,450.0,3.0,,,,,,,,,white,hexagon
0.0,1.0,1.0,0.0,6.0,6.0,401.8635019997418,8.0,0.0,part_2,go,250.0,450.0,1.0,,,,,,,,,magenta,circle
0.0,8.0,4.0,1.0,5.0,5.0,410.606504000043,8.0,0.0,part_2,stop,250.0,450.0,3.0,,,,,,,,,white,hexagon
0.0,4.0,4.0,0.0,5.0,5.0,467.3347479997574,8.0,0.0,part_2,go,200.0,450.0,1.0,,,,,,,,,orange,square
0.0,4.0,4.0,0.0,6.0,6.0,392.1927380001762,8.0,0.0,part_2,go,200.0,450.0,1.0,,,,,,,,,orange,square
0.0,4.0,4.0,0.0,5.0,5.0,411.8146059995524,8.0,0.0,part_2,go,200.0,450.0,1.0,,,,,,,,,orange,square
0.0,2.0,2.0,0.0,5.0,5.0,447.4633759996322,8.0,0.0,part_2,go,200.0,450.0,1.0,,,,,,,,,yellow,diamond
0.0,8.0,4.0,1.0,6.0,6.0,447.6586300002054,8.0,0.0,part_2,stop,200.0,450.0,3.0,,,,,,,,,white,hexagon
0.0,3.0,3.0,0.0,5.0,5.0,484.179733000019,8.0,0.0,part_2,go,200.0,400.0,1.0,,,,,,,,,blue,triangle
0.0,6.0,2.0,1.0,5.0,5.0,445.8222930002193,8.0,0.0,part_2,go,200.0,400.0,1.0,,,,,,,,,cyan,cross
0.0,2.0,2.0,0.0,6.0,6.0,596.4371319996644,8.0,0.0,part_2,go,200.0,400.0,1.0,,,,,,,,,yellow,diamond
0.0,6.0,2.0,1.0,6.0,6.0,507.4168999999529,8.0,0.0,part_2,stop,200.0,400.0,3.0,,,,,,,,,cyan,cross
0.0,5.0,1.0,1.0,6.0,0.0,0.0,8.0,0.0,part_2,stop,200.0,350.0,4.0,,,,,,,,,gray,I
0.0,2.0,2.0,0.0,5.0,5.0,418.766185000095,8.0,0.0,part_2,go,200.0,400.0,1.0,,,,,,,,,yellow,diamond
0.0,6.0,2.0,1.0,6.0,6.0,569.0909529998862,8.0,0.0,part_2,stop,200.0,400.0,3.0,,,,,,,,,cyan,cross
0.0,5.0,1.0,1.0,5.0,0.0,0.0,8.0,0.0,part_2,stop,200.0,350.0,4.0,,,,,,,,,gray,I
0.0,2.0,2.0,0.0,5.0,5.0,530.0924719999784,8.0,0.0,part_2,go,250.0,350.0,1.0,,,,,,,,,yellow,diamond
0.0,3.0,3.0,0.0,6.0,6.0,473.7052730001778,8.0,0.0,part_2,go,250.0,350.0,1.0,,,,,,,,,blue,triangle
0.0,1.0,1.0,0.0,6.0,6.0,408.1799390000924,8.0,0.0,part_2,go,250.0,350.0,1.0,,,,,,,,,magenta,circle
0.0,3.0,3.0,0.0,5.0,5.0,381.0971370003244,8.0,0.0,part_2,go,250.0,350.0,1.0,,,,,,,,,blue,triangle
0.0,3.0,3.0,0.0,6.0,6.0,428.859052000007,8.0,0.0,part_2,go,250.0,350.0,1.0,,,,,,,,,blue,triangle
0.0,6.0,2.0,1.0,5.0,5.0,484.9449920002371,8.0,0.0,part_2,go,250.0,350.0,1.0,,,,,,,,,cyan,cross
0.0,1.0,1.0,0.0,5.0,5.0,531.4102009997441,8.0,0.0,part_2,go,250.0,350.0,1.0,,,,,,,,,magenta,circle
0.0,8.0,4.0,1.0,6.0,5.0,1336.653658000159,8.0,0.0,part_2,go,250.0,350.0,2.0,,,,,,,,,white,hexagon
0.0,5.0,1.0,1.0,5.0,0.0,0.0,8.0,0.0,part_2,stop,250.0,350.0,4.0,,,,,,,,,gray,I
0.0,3.0,3.0,0.0,5.0,5.0,511.57908100003624,8.0,0.0,part_2,go,300.0,350.0,1.0,,,,,,,,,blue,triangle
0.0,6.0,2.0,1.0,5.0,5.0,435.9857110002849,8.0,0.0,part_2,stop,300.0,350.0,3.0,,,,,,,,,cyan,cross
0.0,1.0,1.0,0.0,5.0,5.0,494.5638479998706,8.0,0.0,part_2,go,250.0,350.0,1.0,,,,,,,,,magenta,circle
0.0,6.0,2.0,1.0,5.0,5.0,413.0226150000453,8.0,0.0,part_2,stop,250.0,350.0,3.0,,,,,,,,,cyan,cross
0.0,1.0,1.0,0.0,6.0,6.0,538.3569330001592,8.0,0.0,part_2,go,200.0,350.0,1.0,,,,,,,,,magenta,circle
0.0,5.0,1.0,1.0,5.0,0.0,0.0,8.0,0.0,part_2,stop,200.0,350.0,4.0,,,,,,,,,gray,I
0.0,5.0,1.0,1.0,7.0,3.0,3741.9206879994817,1.0,1.0,part_3,go,0.0,0.0,0.0,308.0,2.0,462.0,154.0,308.0,770.0,616.0,924.0,gray,I
0.0,4.0,4.0,0.0,7.0,4.0,4158.3237550003105,1.0,1.0,part_3,go,0.0,0.0,0.0,346.0,2.0,692.0,173.0,519.0,346.0,1038.0,865.0,orange,square
0.0,5.0,1.0,1.0,7.0,2.0,4075.0442559992734,1.0,1.0,part_3,go,0.0,0.0,0.0,346.0,2.0,173.0,346.0,692.0,1038.0,519.0,865.0,gray,I
0.0,8.0,4.0,1.0,7.0,6.0,3010.302068000783,1.0,1.0,part_3,go,0.0,0.0,0.0,865.0,5.0,346.0,1038.0,519.0,173.0,692.0,865.0,white,hexagon
0.0,3.0,3.0,0.0,7.0,2.0,4352.421976000187,1.0,1.0,part_3,go,0.0,0.0,0.0,960.0,5.0,768.0,960.0,1152.0,576.0,192.0,384.0,blue,triangle
0.0,8.0,4.0,1.0,7.0,2.0,4226.712933000272,1.0,1.0,part_3,go,0.0,0.0,0.0,810.0,6.0,270.0,810.0,675.0,405.0,135.0,540.0,white,hexagon
0.0,4.0,4.0,0.0,7.0,5.0,3317.88609799969,1.0,1.0,part_3,go,0.0,0.0,0.0,346.0,2.0,173.0,692.0,519.0,1038.0,346.0,865.0,orange,square
0.0,2.0,2.0,0.0,7.0,2.0,4868.123067000852,1.0,1.0,part_3,go,0.0,0.0,0.0,519.0,3.0,865.0,519.0,173.0,346.0,1038.0,692.0,yellow,diamond
0.0,3.0,3.0,0.0,7.0,6.0,3817.581166000309,1.0,1.0,part_3,go,0.0,0.0,0.0,924.0,6.0,770.0,308.0,154.0,462.0,616.0,924.0,blue,triangle
0.0,1.0,1.0,0.0,7.0,1.0,2642.814179999732,1.0,2.0,part_3,go,0.0,0.0,0.0,405.0,3.0,405.0,675.0,270.0,810.0,135.0,540.0,magenta,circle
0.0,5.0,1.0,1.0,7.0,3.0,4274.942720000581,1.0,1.0,part_3,go,0.0,0.0,0.0,519.0,3.0,692.0,1038.0,519.0,346.0,865.0,173.0,gray,I
0.0,3.0,3.0,0.0,7.0,3.0,3694.3521129996952,1.0,1.0,part_3,go,0.0,0.0,0.0,810.0,6.0,135.0,270.0,810.0,405.0,675.0,540.0,blue,triangle
0.0,7.0,3.0,1.0,7.0,5.0,2710.9173799999553,1.0,1.0,part_3,go,0.0,0.0,0.0,1038.0,6.0,865.0,692.0,346.0,519.0,1038.0,173.0,green,flipped triangle
0.0,2.0,2.0,0.0,7.0,1.0,2486.855070999809,1.0,1.0,part_3,go,0.0,0.0,0.0,116.0,1.0,116.0,696.0,580.0,464.0,348.0,232.0,yellow,diamond
0.0,6.0,2.0,1.0,7.0,5.0,4178.397040999698,1.0,1.0,part_3,go,0.0,0.0,0.0,464.0,4.0,696.0,580.0,348.0,232.0,464.0,116.0,cyan,cross
0.0,4.0,4.0,0.0,7.0,1.0,2830.3467929999897,1.0,1.0,part_3,go,0.0,0.0,0.0,675.0,5.0,675.0,405.0,135.0,810.0,270.0,540.0,orange,square
0.0,3.0,3.0,0.0,7.0,5.0,1316.5731590006544,1.0,1.0,part_3,go,0.0,0.0,0.0,173.0,1.0,519.0,346.0,865.0,1038.0,173.0,692.0,blue,triangle
0.0,6.0,2.0,1.0,7.0,2.0,1110.327835999669,1.0,1.0,part_3,go,0.0,0.0,0.0,1152.0,6.0,576.0,1152.0,192.0,384.0,960.0,768.0,cyan,cross
0.0,2.0,2.0,0.0,7.0,5.0,917.1413619997112,1.0,1.0,part_3,go,0.0,0.0,0.0,154.0,1.0,616.0,770.0,924.0,308.0,154.0,462.0,yellow,diamond
0.0,7.0,3.0,1.0,7.0,3.0,1083.051792000333,1.0,1.0,part_3,go,0.0,0.0,0.0,308.0,2.0,924.0,154.0,308.0,616.0,770.0,462.0,green,flipped triangle
0.0,6.0,2.0,1.0,7.0,5.0,731.1847329992816,2.0,1.0,part_3,go,0.0,0.0,0.0,519.0,3.0,173.0,346.0,1038.0,865.0,519.0,692.0,cyan,cross
0.0,7.0,3.0,1.0,7.0,4.0,1426.3481610005329,2.0,1.0,part_3,go,0.0,0.0,0.0,1038.0,6.0,865.0,173.0,346.0,1038.0,519.0,692.0,green,flipped triangle
0.0,4.0,4.0,0.0,7.0,1.0,4134.219133999977,2.0,1.0,part_3,go,0.0,0.0,0.0,770.0,5.0,770.0,924.0,616.0,308.0,154.0,462.0,orange,square
0.0,7.0,3.0,1.0,7.0,2.0,1796.9295499997315,2.0,1.0,part_3,go,0.0,0.0,0.0,135.0,1.0,270.0,135.0,810.0,540.0,675.0,405.0,green,flipped triangle
0.0,1.0,1.0,0.0,7.0,6.0,1863.1232969992195,2.0,1.0,part_3,go,0.0,0.0,0.0,405.0,3.0,135.0,540.0,270.0,675.0,810.0,405.0,magenta,circle
0.0,8.0,4.0,1.0,7.0,2.0,1633.01595700068,2.0,1.0,part_3,go,0.0,0.0,0.0,232.0,2.0,116.0,232.0,580.0,348.0,696.0,464.0,white,hexagon
0.0,8.0,4.0,1.0,7.0,5.0,853.0472490001557,2.0,1.0,part_3,go,0.0,0.0,0.0,308.0,2.0,616.0,154.0,770.0,462.0,308.0,924.0,white,hexagon
0.0,8.0,4.0,1.0,7.0,6.0,1092.334063000635,2.0,1.0,part_3,go,0.0,0.0,0.0,462.0,3.0,924.0,308.0,616.0,154.0,770.0,462.0,white,hexagon
0.0,1.0,1.0,0.0,7.0,2.0,870.5558439996821,2.0,1.0,part_3,go,0.0,0.0,0.0,768.0,4.0,960.0,768.0,192.0,384.0,1152.0,576.0,magenta,circle
0.0,1.0,1.0,0.0,7.0,4.0,1141.843205999976,2.0,1.0,part_3,go,0.0,0.0,0.0,308.0,2.0,462.0,154.0,924.0,308.0,770.0,616.0,magenta,circle
0.0,7.0,3.0,1.0,7.0,5.0,686.7902559997674,2.0,1.0,part_3,go,0.0,0.0,0.0,464.0,4.0,348.0,232.0,696.0,116.0,464.0,580.0,green,flipped triangle
0.0,6.0,2.0,1.0,7.0,3.0,730.213066000033,2.0,1.0,part_3,go,0.0,0.0,0.0,580.0,5.0,232.0,696.0,580.0,464.0,116.0,348.0,cyan,cross
0.0,3.0,3.0,0.0,7.0,2.0,1045.4305639996164,2.0,1.0,part_3,go,0.0,0.0,0.0,192.0,1.0,1152.0,192.0,576.0,384.0,960.0,768.0,blue,triangle
0.0,8.0,4.0,1.0,7.0,6.0,1423.6039009992965,2.0,1.0,part_3,go,0.0,0.0,0.0,696.0,6.0,232.0,580.0,116.0,348.0,464.0,696.0,white,hexagon
0.0,2.0,2.0,0.0,7.0,2.0,684.8830039998575,2.0,1.0,part_3,go,0.0,0.0,0.0,519.0,3.0,865.0,519.0,173.0,1038.0,346.0,692.0,yellow,diamond
0.0,7.0,3.0,1.0,7.0,2.0,1965.2234490004048,2.0,1.0,part_3,go,0.0,0.0,0.0,696.0,6.0,580.0,696.0,232.0,116.0,348.0,464.0,green,flipped triangle
0.0,2.0,2.0,0.0,7.0,5.0,953.175783000006,2.0,1.0,part_3,go,0.0,0.0,0.0,232.0,2.0,696.0,464.0,580.0,116.0,232.0,348.0,yellow,diamond
0.0,1.0,1.0,0.0,7.0,5.0,868.9895469997282,2.0,1.0,part_3,go,0.0,0.0,0.0,865.0,5.0,519.0,346.0,173.0,692.0,865.0,1038.0,magenta,circle
0.0,4.0,4.0,0.0,7.0,2.0,721.6414340000483,2.0,1.0,part_3,go,0.0,0.0,0.0,405.0,3.0,675.0,405.0,540.0,810.0,270.0,135.0,orange,square
0.0,3.0,3.0,0.0,7.0,3.0,693.1993389998752,2.0,1.0,part_3,go,0.0,0.0,0.0,580.0,5.0,696.0,348.0,580.0,232.0,116.0,464.0,blue,triangle
0.0,7.0,3.0,1.0,7.0,3.0,2114.5940120004525,3.0,1.0,part_3,go,0.0,0.0,0.0,924.0,6.0,462.0,154.0,924.0,616.0,770.0,308.0,green,flipped triangle
0.0,6.0,2.0,1.0,7.0,5.0,797.156941999674,3.0,1.0,part_3,go,0.0,0.0,0.0,616.0,4.0,924.0,462.0,154.0,308.0,616.0,770.0,cyan,cross
0.0,5.0,1.0,1.0,7.0,2.0,0.274150000223,3.0,1.0,part_3,go,0.0,0.0,0.0,308.0,2.0,462.0,308.0,154.0,924.0,616.0,770.0,gray,I
0.0,2.0,2.0,0.0,7.0,6.0,3104.363958000249,3.0,1.0,part_3,go,0.0,0.0,0.0,135.0,1.0,540.0,810.0,675.0,405.0,270.0,135.0,yellow,diamond
0.0,5.0,1.0,1.0,7.0,5.0,1454.4805599998654,3.0,1.0,part_3,go,0.0,0.0,0.0,768.0,4.0,1152.0,384.0,576.0,192.0,768.0,960.0,gray,I
0.0,5.0,1.0,1.0,7.0,3.0,656.5733050001654,3.0,1.0,part_3,go,0.0,0.0,0.0,540.0,4.0,675.0,405.0,540.0,135.0,810.0,270.0,gray,I
0.0,8.0,4.0,1.0,7.0,2.0,787.4258199999531,3.0,1.0,part_3,go,0.0,0.0,0.0,1152.0,6.0,576.0,1152.0,384.0,192.0,768.0,960.0,white,hexagon
0.0,1.0,1.0,0.0,7.0,5.0,731.2447989997963,3.0,1.0,part_3,go,0.0,0.0,0.0,462.0,3.0,616.0,154.0,924.0,770.0,462.0,308.0,magenta,circle
0.0,7.0,3.0,1.0,7.0,5.0,1614.5760030003655,3.0,1.0,part_3,go,0.0,0.0,0.0,1152.0,6.0,576.0,960.0,192.0,768.0,1152.0,384.0,green,flipped triangle
0.0,8.0,4.0,1.0,7.0,3.0,1602.1417149995614,3.0,1.0,part_3,go,0.0,0.0,0.0,270.0,2.0,135.0,540.0,270.0,810.0,405.0,675.0,white,hexagon
0.0,3.0,3.0,0.0,7.0,5.0,1183.7995619998765,3.0,1.0,part_3,go,0.0,0.0,0.0,580.0,5.0,348.0,464.0,696.0,116.0,580.0,232.0,blue,triangle
0.0,5.0,1.0,1.0,7.0,3.0,1000.1095580000765,3.0,1.0,part_3,go,0.0,0.0,0.0,580.0,5.0,232.0,464.0,580.0,348.0,696.0,116.0,gray,I
0.0,4.0,4.0,0.0,7.0,1.0,601.2550639998153,3.0,1.0,part_3,go,0.0,0.0,0.0,116.0,1.0,116.0,464.0,348.0,696.0,580.0,232.0,orange,square
0.0,5.0,1.0,1.0,7.0,6.0,1576.1665109994285,3.0,1.0,part_3,go,0.0,0.0,0.0,348.0,3.0,232.0,580.0,464.0,116.0,696.0,348.0,gray,I
0.0,2.0,2.0,0.0,7.0,2.0,881.2932920000094,3.0,1.0,part_3,go,0.0,0.0,0.0,540.0,4.0,675.0,540.0,270.0,135.0,810.0,405.0,yellow,diamond
0.0,7.0,3.0,1.0,7.0,4.0,1047.5456759995725,3.0,1.0,part_3,go,0.0,0.0,0.0,1152.0,6.0,960.0,192.0,384.0,1152.0,768.0,576.0,green,flipped triangle
0.0,6.0,2.0,1.0,7.0,5.0,1000.4394620000312,3.0,1.0,part_3,go,0.0,0.0,0.0,960.0,5.0,1152.0,768.0,576.0,384.0,960.0,192.0,cyan,cross
0.0,6.0,2.0,1.0,7.0,4.0,794.3172560007952,3.0,1.0,part_3,go,0.0,0.0,0.0,540.0,4.0,135.0,675.0,405.0,540.0,270.0,810.0,cyan,cross
0.0,1.0,1.0,0.0,7.0,2.0,933.9742310003204,3.0,1.0,part_3,go,0.0,0.0,0.0,192.0,1.0,768.0,192.0,960.0,1152.0,384.0,576.0,magenta,circle
0.0,8.0,4.0,1.0,7.0,6.0,1425.1757230003932,3.0,1.0,part_3,go,0.0,0.0,0.0,960.0,5.0,576.0,768.0,384.0,192.0,1152.0,960.0,white,hexagon
0.0,4.0,4.0,0.0,7.0,2.0,555.9930240005997,4.0,1.0,part_3,go,0.0,0.0,0.0,154.0,1.0,770.0,154.0,924.0,616.0,308.0,462.0,orange,square
0.0,6.0,2.0,1.0,7.0,6.0,472.5117179996232,4.0,1.0,part_3,go,0.0,0.0,0.0,462.0,3.0,154.0,308.0,616.0,924.0,770.0,462.0,cyan,cross
0.0,6.0,2.0,1.0,7.0,3.0,640.9287500000573,4.0,1.0,part_3,go,0.0,0.0,0.0,1038.0,6.0,346.0,692.0,1038.0,519.0,865.0,173.0,cyan,cross
0.0,6.0,2.0,1.0,7.0,1.0,1306.2290449997818,4.0,1.0,part_3,go,0.0,0.0,0.0,135.0,1.0,135.0,675.0,270.0,540.0,810.0,405.0,cyan,cross
0.0,3.0,3.0,0.0,7.0,5.0,647.0913110006222,4.0,1.0,part_3,go,0.0,0.0,0.0,346.0,2.0,865.0,173.0,692.0,1038.0,346.0,519.0,blue,triangle
0.0,4.0,4.0,0.0,7.0,4.0,493.2623380000223,4.0,1.0,part_3,go,0.0,0.0,0.0,696.0,6.0,580.0,348.0,464.0,696.0,232.0,116.0,orange,square
0.0,3.0,3.0,0.0,7.0,2.0,503.6711639995701,4.0,1.0,part_3,go,0.0,0.0,0.0,135.0,1.0,270.0,135.0,675.0,810.0,540.0,405.0,blue,triangle
0.0,7.0,3.0,1.0,7.0,5.0,3503.066776999731,4.0,1.0,part_3,go,0.0,0.0,0.0,810.0,6.0,270.0,675.0,540.0,135.0,810.0,405.0,green,flipped triangle
0.0,2.0,2.0,0.0,7.0,3.0,1481.5367789997254,4.0,1.0,part_3,go,0.0,0.0,0.0,960.0,5.0,384.0,1152.0,960.0,576.0,192.0,768.0,yellow,diamond
0.0,5.0,1.0,1.0,7.0,5.0,844.4729259999804,4.0,1.0,part_3,go,0.0,0.0,0.0,405.0,3.0,675.0,810.0,540.0,135.0,405.0,270.0,gray,I
0.0,4.0,4.0,0.0,7.0,1.0,695.7252310003241,4.0,1.0,part_3,go,0.0,0.0,0.0,192.0,1.0,192.0,576.0,960.0,1152.0,384.0,768.0,orange,square
0.0,3.0,3.0,0.0,7.0,5.0,853.4015959994576,4.0,1.0,part_3,go,0.0,0.0,0.0,616.0,4.0,924.0,770.0,154.0,308.0,616.0,462.0,blue,triangle
0.0,1.0,1.0,0.0,7.0,2.0,1132.765303999804,4.0,1.0,part_3,go,0.0,0.0,0.0,348.0,3.0,116.0,348.0,696.0,464.0,580.0,232.0,magenta,circle
0.0,1.0,1.0,0.0,7.0,5.0,1093.9701400002375,4.0,1.0,part_3,go,0.0,0.0,0.0,464.0,4.0,696.0,116.0,348.0,232.0,464.0,580.0,magenta,circle
0.0,1.0,1.0,0.0,7.0,6.0,798.8243139998303,4.0,1.0,part_3,go,0.0,0.0,0.0,346.0,2.0,1038.0,173.0,519.0,865.0,692.0,346.0,magenta,circle
0.0,4.0,4.0,0.0,7.0,2.0,668.5727529993528,4.0,1.0,part_3,go,0.0,0.0,0.0,768.0,4.0,576.0,768.0,960.0,192.0,384.0,1152.0,orange,square
0.0,2.0,2.0,0.0,7.0,5.0,418.8021439995282,4.0,1.0,part_3,go,0.0,0.0,0.0,154.0,1.0,616.0,770.0,462.0,924.0,154.0,308.0,yellow,diamond
0.0,2.0,2.0,0.0,7.0,3.0,610.7668300001023,4.0,1.0,part_3,go,0.0,0.0,0.0,960.0,5.0,768.0,192.0,960.0,384.0,1152.0,576.0,yellow,diamond
0.0,8.0,4.0,1.0,7.0,1.0,740.6709619999674,4.0,1.0,part_3,go,0.0,0.0,0.0,692.0,4.0,692.0,865.0,173.0,1038.0,346.0,519.0,white,hexagon
0.0,5.0,1.0,1.0,7.0,4.0,787.7256119991216,4.0,1.0,part_3,go,0.0,0.0,0.0,1152.0,6.0,576.0,192.0,768.0,1152.0,960.0,384.0,gray,I
