raw_reward_magnitude,stim_reward,stepwise_reward_magnitude,paired_with_stopping,stim_location,response,reaction_time,block,num_trial_presentations,which_phase,stop_signal_trial_type,left_SSD,right_SSD,accuracy,chosen_bidding_amount,chosen_bidding_level,possible_bid_1,possible_bid_2,possible_bid_3,possible_bid_4,possible_bid_5,possible_bid_6,color_text,shape_text
179.0,5.0,1.0,1.0,4.0,4.0,384.7377929999993,1.0,1.0,phase_1,,,,,,,,,,,,,magenta,triangle
1322.0,8.0,4.0,1.0,4.0,4.0,373.1470950000357,1.0,1.0,phase_1,,,,,,,,,,,,,gray,diamond
632.0,7.0,3.0,1.0,2.0,2.0,356.9538510000711,1.0,1.0,phase_1,,,,,,,,,,,,,cyan,flipped triangle
185.0,1.0,1.0,0.0,4.0,4.0,307.2764190000043,1.0,1.0,phase_1,,,,,,,,,,,,,yellow,cross
626.0,7.0,3.0,1.0,2.0,2.0,374.8001930000555,1.0,1.0,phase_1,,,,,,,,,,,,,cyan,flipped triangle
174.0,5.0,1.0,1.0,1.0,1.0,358.0651830000079,1.0,1.0,phase_1,,,,,,,,,,,,,magenta,triangle
169.0,5.0,1.0,1.0,1.0,1.0,382.8344550000793,1.0,1.0,phase_1,,,,,,,,,,,,,magenta,triangle
0.0,1.0,0.0,0.0,3.0,3.0,327.333709999948,1.0,1.0,phase_1,,,,,,,,,,,,,yellow,cross
657.0,7.0,3.0,1.0,2.0,2.0,317.8993359999822,1.0,1.0,phase_1,,,,,,,,,,,,,cyan,flipped triangle
656.0,7.0,3.0,1.0,3.0,3.0,364.0884889999825,1.0,2.0,phase_1,,,,,,,,,,,,,cyan,flipped triangle
636.0,7.0,3.0,1.0,4.0,4.0,345.2995609999334,1.0,1.0,phase_1,,,,,,,,,,,,,cyan,flipped triangle
665.0,3.0,3.0,0.0,4.0,4.0,325.8320229999754,1.0,1.0,phase_1,,,,,,,,,,,,,white,circle
161.0,1.0,1.0,0.0,1.0,1.0,372.8144289999591,1.0,1.0,phase_1,,,,,,,,,,,,,yellow,cross
0.0,4.0,0.0,0.0,4.0,4.0,326.8602050000027,1.0,1.0,phase_1,,,,,,,,,,,,,green,square
304.0,2.0,2.0,0.0,1.0,1.0,316.4831050000884,1.0,1.0,phase_1,,,,,,,,,,,,,blue,I
1283.0,8.0,4.0,1.0,3.0,3.0,336.2497159999975,1.0,1.0,phase_1,,,,,,,,,,,,,gray,diamond
674.0,7.0,3.0,1.0,4.0,4.0,308.3344299999453,1.0,1.0,phase_1,,,,,,,,,,,,,cyan,flipped triangle
178.0,1.0,1.0,0.0,4.0,4.0,288.8495729999931,1.0,1.0,phase_1,,,,,,,,,,,,,yellow,cross
0.0,4.0,0.0,0.0,2.0,2.0,354.8331520000829,1.0,1.0,phase_1,,,,,,,,,,,,,green,square
337.0,6.0,2.0,1.0,2.0,2.0,326.551376999987,1.0,1.0,phase_1,,,,,,,,,,,,,orange,hexagon
337.0,2.0,2.0,0.0,1.0,1.0,326.3841010000305,1.0,1.0,phase_1,,,,,,,,,,,,,blue,I
650.0,7.0,3.0,1.0,1.0,1.0,336.2295899999026,1.0,1.0,phase_1,,,,,,,,,,,,,cyan,flipped triangle
186.0,1.0,1.0,0.0,1.0,1.0,309.2764680000073,1.0,1.0,phase_1,,,,,,,,,,,,,yellow,cross
0.0,5.0,0.0,1.0,2.0,2.0,335.7377679999445,1.0,1.0,phase_1,,,,,,,,,,,,,magenta,triangle
662.0,7.0,3.0,1.0,2.0,2.0,346.7537989999982,1.0,1.0,phase_1,,,,,,,,,,,,,cyan,flipped triangle
311.0,6.0,2.0,1.0,2.0,2.0,326.1587480000116,1.0,1.0,phase_1,,,,,,,,,,,,,orange,hexagon
644.0,3.0,3.0,0.0,1.0,1.0,354.737311000008,1.0,1.0,phase_1,,,,,,,,,,,,,white,circle
662.0,3.0,3.0,0.0,2.0,2.0,327.195028999995,1.0,1.0,phase_1,,,,,,,,,,,,,white,circle
0.0,3.0,0.0,0.0,1.0,1.0,316.9152080000685,1.0,1.0,phase_1,,,,,,,,,,,,,white,circle
1315.0,8.0,4.0,1.0,2.0,2.0,337.2161610000148,1.0,1.0,phase_1,,,,,,,,,,,,,gray,diamond
636.0,7.0,3.0,1.0,3.0,3.0,391.7529109999123,1.0,1.0,phase_1,,,,,,,,,,,,,cyan,flipped triangle
1301.0,8.0,4.0,1.0,2.0,2.0,363.8427820000061,1.0,1.0,phase_1,,,,,,,,,,,,,gray,diamond
1309.0,8.0,4.0,1.0,1.0,1.0,346.1187809999728,1.0,1.0,phase_1,,,,,,,,,,,,,gray,diamond
0.0,3.0,0.0,0.0,3.0,3.0,345.6767620000391,1.0,1.0,phase_1,,,,,,,,,,,,,white,circle
1293.0,8.0,4.0,1.0,1.0,1.0,308.757356000001,1.0,1.0,phase_1,,,,,,,,,,,,,gray,diamond
311.0,2.0,2.0,0.0,3.0,3.0,381.6479849999723,1.0,1.0,phase_1,,,,,,,,,,,,,blue,I
1293.0,8.0,4.0,1.0,3.0,3.0,370.506459000012,1.0,1.0,phase_1,,,,,,,,,,,,,gray,diamond
138.0,5.0,1.0,1.0,2.0,2.0,327.0207139999002,1.0,1.0,phase_1,,,,,,,,,,,,,magenta,triangle
1283.0,8.0,4.0,1.0,1.0,1.0,325.9036410000817,1.0,1.0,phase_1,,,,,,,,,,,,,gray,diamond
0.0,8.0,0.0,1.0,1.0,1.0,308.3993389999477,1.0,1.0,phase_1,,,,,,,,,,,,,gray,diamond
326.0,2.0,2.0,0.0,2.0,2.0,317.565267999953,1.0,1.0,phase_1,,,,,,,,,,,,,blue,I
341.0,2.0,2.0,0.0,3.0,3.0,337.5630030000138,1.0,1.0,phase_1,,,,,,,,,,,,,blue,I
0.0,3.0,0.0,0.0,1.0,1.0,310.3188310000178,1.0,1.0,phase_1,,,,,,,,,,,,,white,circle
1283.0,4.0,4.0,0.0,4.0,4.0,327.5333249999903,1.0,1.0,phase_1,,,,,,,,,,,,,green,square
664.0,3.0,3.0,0.0,2.0,2.0,327.4121440000499,1.0,1.0,phase_1,,,,,,,,,,,,,white,circle
152.0,1.0,1.0,0.0,4.0,4.0,316.7113910000125,1.0,1.0,phase_1,,,,,,,,,,,,,yellow,cross
1317.0,8.0,4.0,1.0,2.0,2.0,335.8155380000198,1.0,1.0,phase_1,,,,,,,,,,,,,gray,diamond
320.0,6.0,2.0,1.0,3.0,3.0,410.6691889999183,1.0,1.0,phase_1,,,,,,,,,,,,,orange,hexagon
0.0,5.0,0.0,1.0,3.0,3.0,319.2174839999779,1.0,1.0,phase_1,,,,,,,,,,,,,magenta,triangle
0.0,7.0,0.0,1.0,1.0,1.0,317.482205000033,1.0,1.0,phase_1,,,,,,,,,,,,,cyan,flipped triangle
646.0,7.0,3.0,1.0,3.0,3.0,298.4777059999715,1.0,1.0,phase_1,,,,,,,,,,,,,cyan,flipped triangle
0.0,7.0,0.0,1.0,4.0,4.0,307.3771960000613,1.0,1.0,phase_1,,,,,,,,,,,,,cyan,flipped triangle
632.0,3.0,3.0,0.0,2.0,2.0,345.0799409999945,1.0,1.0,phase_1,,,,,,,,,,,,,white,circle
0.0,3.0,0.0,0.0,2.0,2.0,326.5327280000747,1.0,1.0,phase_1,,,,,,,,,,,,,white,circle
316.0,2.0,2.0,0.0,3.0,3.0,336.2926900000502,1.0,1.0,phase_1,,,,,,,,,,,,,blue,I
0.0,5.0,0.0,1.0,4.0,4.0,317.0072699999764,1.0,1.0,phase_1,,,,,,,,,,,,,magenta,triangle
318.0,6.0,2.0,1.0,3.0,3.0,318.2738830000744,1.0,1.0,phase_1,,,,,,,,,,,,,orange,hexagon
635.0,7.0,3.0,1.0,4.0,4.0,363.7213279999969,1.0,1.0,phase_1,,,,,,,,,,,,,cyan,flipped triangle
0.0,2.0,0.0,0.0,3.0,3.0,327.1659130000444,1.0,1.0,phase_1,,,,,,,,,,,,,blue,I
0.0,6.0,0.0,1.0,1.0,1.0,365.2832430000217,1.0,1.0,phase_1,,,,,,,,,,,,,orange,hexagon
304.0,6.0,2.0,1.0,1.0,1.0,365.4182000000219,1.0,1.0,phase_1,,,,,,,,,,,,,orange,hexagon
0.0,7.0,0.0,1.0,1.0,1.0,316.4303759999711,1.0,1.0,phase_1,,,,,,,,,,,,,cyan,flipped triangle
0.0,6.0,0.0,1.0,3.0,3.0,345.4786940000076,1.0,1.0,phase_1,,,,,,,,,,,,,orange,hexagon
650.0,3.0,3.0,0.0,3.0,3.0,346.9051699998999,1.0,1.0,phase_1,,,,,,,,,,,,,white,circle
0.0,5.0,0.0,1.0,1.0,1.0,336.388733999911,1.0,1.0,phase_1,,,,,,,,,,,,,magenta,triangle
305.0,2.0,2.0,0.0,1.0,1.0,355.2697869999974,1.0,1.0,phase_1,,,,,,,,,,,,,blue,I
183.0,1.0,1.0,0.0,4.0,4.0,337.9106089998913,1.0,1.0,phase_1,,,,,,,,,,,,,yellow,cross
138.0,1.0,1.0,0.0,3.0,3.0,335.7684300000301,1.0,1.0,phase_1,,,,,,,,,,,,,yellow,cross
0.0,3.0,0.0,0.0,1.0,1.0,345.4773010000735,1.0,1.0,phase_1,,,,,,,,,,,,,white,circle
646.0,3.0,3.0,0.0,3.0,3.0,279.610133999995,1.0,1.0,phase_1,,,,,,,,,,,,,white,circle
169.0,1.0,1.0,0.0,3.0,3.0,346.71000000003,1.0,1.0,phase_1,,,,,,,,,,,,,yellow,cross
648.0,7.0,3.0,1.0,3.0,3.0,318.0742710000004,1.0,1.0,phase_1,,,,,,,,,,,,,cyan,flipped triangle
672.0,3.0,3.0,0.0,3.0,3.0,327.1823070000437,1.0,1.0,phase_1,,,,,,,,,,,,,white,circle
1312.0,4.0,4.0,0.0,1.0,1.0,308.5499470000741,1.0,1.0,phase_1,,,,,,,,,,,,,green,square
164.0,1.0,1.0,0.0,2.0,2.0,345.5058509999844,1.0,1.0,phase_1,,,,,,,,,,,,,yellow,cross
664.0,7.0,3.0,1.0,1.0,1.0,326.9140410000091,1.0,1.0,phase_1,,,,,,,,,,,,,cyan,flipped triangle
653.0,3.0,3.0,0.0,1.0,1.0,308.8981509999939,1.0,1.0,phase_1,,,,,,,,,,,,,white,circle
1299.0,8.0,4.0,1.0,4.0,4.0,318.7271360000068,1.0,1.0,phase_1,,,,,,,,,,,,,gray,diamond
187.0,1.0,1.0,0.0,4.0,4.0,345.4712730000437,1.0,1.0,phase_1,,,,,,,,,,,,,yellow,cross
168.0,5.0,1.0,1.0,3.0,3.0,308.1056969999736,1.0,1.0,phase_1,,,,,,,,,,,,,magenta,triangle
0.0,4.0,0.0,0.0,1.0,1.0,336.2539199999901,1.0,1.0,phase_1,,,,,,,,,,,,,green,square
0.0,1.0,0.0,0.0,2.0,2.0,307.9515910001191,1.0,1.0,phase_1,,,,,,,,,,,,,yellow,cross
1320.0,4.0,4.0,0.0,2.0,2.0,336.3013279999904,1.0,1.0,phase_1,,,,,,,,,,,,,green,square
638.0,7.0,3.0,1.0,1.0,1.0,316.8681679999281,1.0,1.0,phase_1,,,,,,,,,,,,,cyan,flipped triangle
0.0,2.0,0.0,0.0,2.0,2.0,336.2067919999845,1.0,1.0,phase_1,,,,,,,,,,,,,blue,I
1276.0,8.0,4.0,1.0,4.0,4.0,382.3898130001453,1.0,1.0,phase_1,,,,,,,,,,,,,gray,diamond
1291.0,8.0,4.0,1.0,3.0,3.0,316.1690089998501,1.0,1.0,phase_1,,,,,,,,,,,,,gray,diamond
1315.0,4.0,4.0,0.0,2.0,2.0,298.2298150000133,1.0,1.0,phase_1,,,,,,,,,,,,,green,square
643.0,3.0,3.0,0.0,1.0,1.0,345.0618450001457,1.0,1.0,phase_1,,,,,,,,,,,,,white,circle
0.0,2.0,0.0,0.0,2.0,2.0,334.6835719999035,1.0,1.0,phase_1,,,,,,,,,,,,,blue,I
0.0,5.0,0.0,1.0,3.0,3.0,308.2377509999787,1.0,1.0,phase_1,,,,,,,,,,,,,magenta,triangle
0.0,2.0,0.0,0.0,4.0,4.0,308.0042439999033,1.0,1.0,phase_1,,,,,,,,,,,,,blue,I
310.0,2.0,2.0,0.0,4.0,4.0,364.7676719999708,1.0,1.0,phase_1,,,,,,,,,,,,,blue,I
1283.0,4.0,4.0,0.0,2.0,2.0,335.460982000086,1.0,1.0,phase_1,,,,,,,,,,,,,green,square
306.0,6.0,2.0,1.0,3.0,3.0,307.6432630000454,1.0,1.0,phase_1,,,,,,,,,,,,,orange,hexagon
149.0,5.0,1.0,1.0,1.0,1.0,335.6491090000872,1.0,1.0,phase_1,,,,,,,,,,,,,magenta,triangle
0.0,5.0,0.0,1.0,3.0,3.0,316.7756489999647,1.0,1.0,phase_1,,,,,,,,,,,,,magenta,triangle
0.0,2.0,0.0,0.0,4.0,4.0,316.0938429998623,1.0,1.0,phase_1,,,,,,,,,,,,,blue,I
181.0,1.0,1.0,0.0,1.0,1.0,326.4904659999956,1.0,1.0,phase_1,,,,,,,,,,,,,yellow,cross
1283.0,8.0,4.0,1.0,2.0,2.0,382.824285000197,1.0,1.0,phase_1,,,,,,,,,,,,,gray,diamond
185.0,5.0,1.0,1.0,3.0,3.0,373.4696460001032,2.0,1.0,phase_1,,,,,,,,,,,,,magenta,triangle
320.0,2.0,2.0,0.0,2.0,2.0,364.8921290000544,2.0,1.0,phase_1,,,,,,,,,,,,,blue,I
326.0,6.0,2.0,1.0,4.0,4.0,382.3521039998923,2.0,1.0,phase_1,,,,,,,,,,,,,orange,hexagon
662.0,7.0,3.0,1.0,2.0,2.0,345.9781459998794,2.0,1.0,phase_1,,,,,,,,,,,,,cyan,flipped triangle
328.0,6.0,2.0,1.0,1.0,1.0,326.1701609999363,2.0,1.0,phase_1,,,,,,,,,,,,,orange,hexagon
1297.0,4.0,4.0,0.0,3.0,3.0,335.4867680000097,2.0,1.0,phase_1,,,,,,,,,,,,,green,square
0.0,6.0,0.0,1.0,2.0,2.0,350.7853809999233,2.0,1.0,phase_1,,,,,,,,,,,,,orange,hexagon
0.0,8.0,0.0,1.0,2.0,2.0,354.6739970001908,2.0,1.0,phase_1,,,,,,,,,,,,,gray,diamond
1293.0,4.0,4.0,0.0,4.0,4.0,401.3488890000189,2.0,1.0,phase_1,,,,,,,,,,,,,green,square
1317.0,8.0,4.0,1.0,4.0,4.0,364.2460219998611,2.0,1.0,phase_1,,,,,,,,,,,,,gray,diamond
0.0,6.0,0.0,1.0,1.0,1.0,336.2978190000376,2.0,1.0,phase_1,,,,,,,,,,,,,orange,hexagon
0.0,8.0,0.0,1.0,3.0,3.0,335.551735999843,2.0,1.0,phase_1,,,,,,,,,,,,,gray,diamond
0.0,1.0,0.0,0.0,1.0,1.0,335.4207709999173,2.0,1.0,phase_1,,,,,,,,,,,,,yellow,cross
656.0,3.0,3.0,0.0,4.0,4.0,354.5308800000839,2.0,1.0,phase_1,,,,,,,,,,,,,white,circle
648.0,3.0,3.0,0.0,4.0,4.0,354.5790010000473,2.0,1.0,phase_1,,,,,,,,,,,,,white,circle
168.0,1.0,1.0,0.0,3.0,3.0,326.3309729998127,2.0,1.0,phase_1,,,,,,,,,,,,,yellow,cross
1290.0,8.0,4.0,1.0,3.0,3.0,345.917227999962,2.0,1.0,phase_1,,,,,,,,,,,,,gray,diamond
183.0,5.0,1.0,1.0,2.0,2.0,335.2806210000381,2.0,1.0,phase_1,,,,,,,,,,,,,magenta,triangle
0.0,3.0,0.0,0.0,1.0,1.0,334.3489330000011,2.0,1.0,phase_1,,,,,,,,,,,,,white,circle
149.0,1.0,1.0,0.0,4.0,4.0,344.4727490000332,2.0,1.0,phase_1,,,,,,,,,,,,,yellow,cross
655.0,3.0,3.0,0.0,3.0,3.0,325.6890369998473,2.0,1.0,phase_1,,,,,,,,,,,,,white,circle
660.0,7.0,3.0,1.0,4.0,4.0,345.4582250001294,2.0,1.0,phase_1,,,,,,,,,,,,,cyan,flipped triangle
308.0,2.0,2.0,0.0,1.0,1.0,325.9040450000157,2.0,1.0,phase_1,,,,,,,,,,,,,blue,I
643.0,7.0,3.0,1.0,3.0,3.0,298.3690890000616,2.0,1.0,phase_1,,,,,,,,,,,,,cyan,flipped triangle
0.0,5.0,0.0,1.0,3.0,3.0,335.5714980000357,2.0,1.0,phase_1,,,,,,,,,,,,,magenta,triangle
629.0,3.0,3.0,0.0,1.0,1.0,344.6635430000242,2.0,1.0,phase_1,,,,,,,,,,,,,white,circle
145.0,5.0,1.0,1.0,4.0,4.0,438.5399200000393,2.0,1.0,phase_1,,,,,,,,,,,,,magenta,triangle
672.0,7.0,3.0,1.0,1.0,1.0,326.8966109999383,2.0,1.0,phase_1,,,,,,,,,,,,,cyan,flipped triangle
644.0,7.0,3.0,1.0,1.0,1.0,317.4303409998629,2.0,1.0,phase_1,,,,,,,,,,,,,cyan,flipped triangle
1306.0,8.0,4.0,1.0,1.0,1.0,374.6557959998426,2.0,1.0,phase_1,,,,,,,,,,,,,gray,diamond
185.0,1.0,1.0,0.0,3.0,3.0,335.224030000063,2.0,1.0,phase_1,,,,,,,,,,,,,yellow,cross
137.0,5.0,1.0,1.0,1.0,1.0,337.5816329998997,2.0,1.0,phase_1,,,,,,,,,,,,,magenta,triangle
148.0,1.0,1.0,0.0,3.0,3.0,317.4875689999226,2.0,1.0,phase_1,,,,,,,,,,,,,yellow,cross
661.0,7.0,3.0,1.0,4.0,4.0,354.8104880001119,2.0,1.0,phase_1,,,,,,,,,,,,,cyan,flipped triangle
174.0,1.0,1.0,0.0,1.0,1.0,290.5306650000057,2.0,1.0,phase_1,,,,,,,,,,,,,yellow,cross
0.0,6.0,0.0,1.0,4.0,4.0,327.1655890000602,2.0,1.0,phase_1,,,,,,,,,,,,,orange,hexagon
652.0,3.0,3.0,0.0,4.0,4.0,355.2859110000099,2.0,1.0,phase_1,,,,,,,,,,,,,white,circle
144.0,5.0,1.0,1.0,4.0,4.0,328.5631180001473,2.0,1.0,phase_1,,,,,,,,,,,,,magenta,triangle
316.0,6.0,2.0,1.0,2.0,2.0,326.7962489999263,2.0,2.0,phase_1,,,,,,,,,,,,,orange,hexagon
1323.0,4.0,4.0,0.0,2.0,2.0,326.7262700001083,2.0,1.0,phase_1,,,,,,,,,,,,,green,square
0.0,5.0,0.0,1.0,4.0,4.0,402.0306360000631,2.0,1.0,phase_1,,,,,,,,,,,,,magenta,triangle
314.0,6.0,2.0,1.0,2.0,2.0,362.9297649999898,2.0,1.0,phase_1,,,,,,,,,,,,,orange,hexagon
156.0,5.0,1.0,1.0,1.0,1.0,438.6233189998165,2.0,1.0,phase_1,,,,,,,,,,,,,magenta,triangle
0.0,2.0,0.0,0.0,1.0,1.0,344.7269079999842,2.0,1.0,phase_1,,,,,,,,,,,,,blue,I
317.0,2.0,2.0,0.0,4.0,4.0,383.460328999945,2.0,1.0,phase_1,,,,,,,,,,,,,blue,I
648.0,3.0,3.0,0.0,1.0,1.0,345.6723490000968,2.0,1.0,phase_1,,,,,,,,,,,,,white,circle
638.0,3.0,3.0,0.0,2.0,2.0,335.5538099999648,2.0,1.0,phase_1,,,,,,,,,,,,,white,circle
1312.0,8.0,4.0,1.0,3.0,3.0,363.1033310000475,2.0,1.0,phase_1,,,,,,,,,,,,,gray,diamond
330.0,2.0,2.0,0.0,1.0,1.0,327.580578999914,2.0,1.0,phase_1,,,,,,,,,,,,,blue,I
148.0,5.0,1.0,1.0,1.0,1.0,327.8394100000241,2.0,1.0,phase_1,,,,,,,,,,,,,magenta,triangle
636.0,3.0,3.0,0.0,3.0,3.0,345.7503689999157,2.0,1.0,phase_1,,,,,,,,,,,,,white,circle
0.0,8.0,0.0,1.0,2.0,2.0,316.4637069999116,2.0,1.0,phase_1,,,,,,,,,,,,,gray,diamond
0.0,7.0,0.0,1.0,4.0,4.0,335.6530010000824,2.0,1.0,phase_1,,,,,,,,,,,,,cyan,flipped triangle
0.0,1.0,0.0,0.0,4.0,4.0,354.3515690000731,2.0,1.0,phase_1,,,,,,,,,,,,,yellow,cross
156.0,1.0,1.0,0.0,4.0,4.0,326.4532230000441,2.0,1.0,phase_1,,,,,,,,,,,,,yellow,cross
169.0,1.0,1.0,0.0,4.0,4.0,308.5169349999432,2.0,1.0,phase_1,,,,,,,,,,,,,yellow,cross
630.0,7.0,3.0,1.0,1.0,1.0,355.3029340000648,2.0,1.0,phase_1,,,,,,,,,,,,,cyan,flipped triangle
339.0,2.0,2.0,0.0,4.0,4.0,383.2425829998556,2.0,1.0,phase_1,,,,,,,,,,,,,blue,I
314.0,6.0,2.0,1.0,2.0,2.0,373.7877969999772,2.0,1.0,phase_1,,,,,,,,,,,,,orange,hexagon
1287.0,8.0,4.0,1.0,4.0,4.0,337.2433720001027,2.0,1.0,phase_1,,,,,,,,,,,,,gray,diamond
318.0,2.0,2.0,0.0,3.0,3.0,344.5159960001547,2.0,1.0,phase_1,,,,,,,,,,,,,blue,I
152.0,5.0,1.0,1.0,2.0,2.0,336.4049540000451,2.0,1.0,phase_1,,,,,,,,,,,,,magenta,triangle
0.0,7.0,0.0,1.0,1.0,1.0,318.2914720000553,2.0,1.0,phase_1,,,,,,,,,,,,,cyan,flipped triangle
668.0,7.0,3.0,1.0,2.0,2.0,327.2982460000548,2.0,1.0,phase_1,,,,,,,,,,,,,cyan,flipped triangle
1312.0,4.0,4.0,0.0,3.0,3.0,375.9129209997809,2.0,1.0,phase_1,,,,,,,,,,,,,green,square
1306.0,4.0,4.0,0.0,3.0,3.0,354.5380829998521,2.0,1.0,phase_1,,,,,,,,,,,,,green,square
0.0,8.0,0.0,1.0,3.0,3.0,325.9980949999317,2.0,1.0,phase_1,,,,,,,,,,,,,gray,diamond
626.0,3.0,3.0,0.0,3.0,3.0,328.1691570000475,2.0,1.0,phase_1,,,,,,,,,,,,,white,circle
149.0,1.0,1.0,0.0,1.0,1.0,317.8102120000403,2.0,1.0,phase_1,,,,,,,,,,,,,yellow,cross
1309.0,4.0,4.0,0.0,4.0,4.0,353.7899139998899,2.0,1.0,phase_1,,,,,,,,,,,,,green,square
316.0,2.0,2.0,0.0,1.0,1.0,299.8578669999006,2.0,1.0,phase_1,,,,,,,,,,,,,blue,I
0.0,6.0,0.0,1.0,1.0,1.0,326.3053140001375,2.0,1.0,phase_1,,,,,,,,,,,,,orange,hexagon
0.0,7.0,0.0,1.0,1.0,1.0,299.6983799998816,2.0,1.0,phase_1,,,,,,,,,,,,,cyan,flipped triangle
660.0,3.0,3.0,0.0,1.0,1.0,307.5489000000289,2.0,1.0,phase_1,,,,,,,,,,,,,white,circle
1291.0,4.0,4.0,0.0,1.0,1.0,317.9552259998672,2.0,1.0,phase_1,,,,,,,,,,,,,green,square
1281.0,4.0,4.0,0.0,3.0,3.0,326.7494049998731,2.0,1.0,phase_1,,,,,,,,,,,,,green,square
653.0,7.0,3.0,1.0,2.0,2.0,363.7815010001759,2.0,1.0,phase_1,,,,,,,,,,,,,cyan,flipped triangle
0.0,2.0,0.0,0.0,4.0,4.0,374.3858409998211,2.0,1.0,phase_1,,,,,,,,,,,,,blue,I
0.0,3.0,0.0,0.0,1.0,1.0,327.0104709999941,2.0,1.0,phase_1,,,,,,,,,,,,,white,circle
338.0,6.0,2.0,1.0,1.0,1.0,298.5188299999208,2.0,1.0,phase_1,,,,,,,,,,,,,orange,hexagon
657.0,3.0,3.0,0.0,2.0,2.0,373.1627800000296,2.0,1.0,phase_1,,,,,,,,,,,,,white,circle
1299.0,4.0,4.0,0.0,3.0,3.0,316.7379189999337,2.0,1.0,phase_1,,,,,,,,,,,,,green,square
1306.0,8.0,4.0,1.0,2.0,2.0,326.3229750000391,2.0,1.0,phase_1,,,,,,,,,,,,,gray,diamond
152.0,1.0,1.0,0.0,3.0,3.0,363.4899849998874,2.0,1.0,phase_1,,,,,,,,,,,,,yellow,cross
165.0,1.0,1.0,0.0,2.0,2.0,288.7551549999898,2.0,1.0,phase_1,,,,,,,,,,,,,yellow,cross
1283.0,4.0,4.0,0.0,1.0,1.0,335.8515659999739,2.0,1.0,phase_1,,,,,,,,,,,,,green,square
348.0,2.0,2.0,0.0,1.0,1.0,317.2015580000789,2.0,1.0,phase_1,,,,,,,,,,,,,blue,I
164.0,5.0,1.0,1.0,4.0,4.0,346.333346999927,2.0,1.0,phase_1,,,,,,,,,,,,,magenta,triangle
342.0,2.0,2.0,0.0,3.0,3.0,337.3938390000148,2.0,1.0,phase_1,,,,,,,,,,,,,blue,I
1283.0,4.0,4.0,0.0,3.0,3.0,354.2522909999661,2.0,1.0,phase_1,,,,,,,,,,,,,green,square
0.0,4.0,0.0,0.0,4.0,4.0,374.0046039999924,2.0,1.0,phase_1,,,,,,,,,,,,,green,square
326.0,2.0,2.0,0.0,4.0,4.0,326.9201010000415,2.0,1.0,phase_1,,,,,,,,,,,,,blue,I
187.0,5.0,1.0,1.0,3.0,3.0,318.3095969998248,2.0,1.0,phase_1,,,,,,,,,,,,,magenta,triangle
645.0,3.0,3.0,0.0,1.0,1.0,346.8474109999988,2.0,1.0,phase_1,,,,,,,,,,,,,white,circle
145.0,5.0,1.0,1.0,2.0,2.0,318.2851019998907,2.0,1.0,phase_1,,,,,,,,,,,,,magenta,triangle
0.0,1.0,0.0,0.0,2.0,2.0,363.2237950000672,2.0,1.0,phase_1,,,,,,,,,,,,,yellow,cross
162.0,5.0,1.0,1.0,2.0,2.0,297.9249620000246,2.0,1.0,phase_1,,,,,,,,,,,,,magenta,triangle
1283.0,4.0,4.0,0.0,4.0,4.0,326.3558080000166,2.0,2.0,phase_1,,,,,,,,,,,,,green,square
151.0,5.0,1.0,1.0,3.0,3.0,353.9784670001609,2.0,1.0,phase_1,,,,,,,,,,,,,magenta,triangle
0.0,6.0,0.0,1.0,1.0,1.0,372.6380660000359,2.0,1.0,phase_1,,,,,,,,,,,,,orange,hexagon
0.0,1.0,0.0,0.0,3.0,3.0,365.0947880000785,3.0,1.0,phase_1,,,,,,,,,,,,,yellow,cross
312.0,6.0,2.0,1.0,2.0,2.0,337.3751279998487,3.0,1.0,phase_1,,,,,,,,,,,,,orange,hexagon
0.0,4.0,0.0,0.0,1.0,1.0,383.4459960000913,3.0,1.0,phase_1,,,,,,,,,,,,,green,square
348.0,2.0,2.0,0.0,4.0,4.0,317.8129770001305,3.0,1.0,phase_1,,,,,,,,,,,,,blue,I
148.0,1.0,1.0,0.0,3.0,3.0,318.5653559999082,3.0,1.0,phase_1,,,,,,,,,,,,,yellow,cross
1302.0,8.0,4.0,1.0,3.0,3.0,335.9681960000671,3.0,1.0,phase_1,,,,,,,,,,,,,gray,diamond
148.0,5.0,1.0,1.0,3.0,3.0,345.7108469999639,3.0,1.0,phase_1,,,,,,,,,,,,,magenta,triangle
0.0,1.0,0.0,0.0,1.0,1.0,372.9425450001145,3.0,1.0,phase_1,,,,,,,,,,,,,yellow,cross
635.0,7.0,3.0,1.0,3.0,3.0,327.9512689998682,3.0,1.0,phase_1,,,,,,,,,,,,,cyan,flipped triangle
0.0,5.0,0.0,1.0,4.0,4.0,345.0453809998635,3.0,1.0,phase_1,,,,,,,,,,,,,magenta,triangle
1323.0,8.0,4.0,1.0,1.0,1.0,391.7441919998055,3.0,1.0,phase_1,,,,,,,,,,,,,gray,diamond
164.0,1.0,1.0,0.0,2.0,2.0,326.5574839999772,3.0,1.0,phase_1,,,,,,,,,,,,,yellow,cross
0.0,8.0,0.0,1.0,4.0,4.0,364.5420509999439,3.0,1.0,phase_1,,,,,,,,,,,,,gray,diamond
349.0,6.0,2.0,1.0,3.0,3.0,319.2176600000493,3.0,1.0,phase_1,,,,,,,,,,,,,orange,hexagon
1312.0,8.0,4.0,1.0,3.0,3.0,400.759182999991,3.0,1.0,phase_1,,,,,,,,,,,,,gray,diamond
0.0,3.0,0.0,0.0,3.0,3.0,327.5703009999233,3.0,1.0,phase_1,,,,,,,,,,,,,white,circle
657.0,3.0,3.0,0.0,1.0,1.0,316.6227320000416,3.0,1.0,phase_1,,,,,,,,,,,,,white,circle
0.0,6.0,0.0,1.0,2.0,2.0,335.9288310000465,3.0,1.0,phase_1,,,,,,,,,,,,,orange,hexagon
654.0,3.0,3.0,0.0,4.0,4.0,354.7746050001024,3.0,1.0,phase_1,,,,,,,,,,,,,white,circle
314.0,2.0,2.0,0.0,1.0,1.0,336.0066069999448,3.0,1.0,phase_1,,,,,,,,,,,,,blue,I
329.0,2.0,2.0,0.0,2.0,2.0,354.8852829999305,3.0,1.0,phase_1,,,,,,,,,,,,,blue,I
318.0,6.0,2.0,1.0,4.0,4.0,354.5008680000592,3.0,1.0,phase_1,,,,,,,,,,,,,orange,hexagon
160.0,1.0,1.0,0.0,2.0,2.0,336.5712900001654,3.0,1.0,phase_1,,,,,,,,,,,,,yellow,cross
307.0,2.0,2.0,0.0,3.0,3.0,355.1181929999529,3.0,1.0,phase_1,,,,,,,,,,,,,blue,I
1283.0,8.0,4.0,1.0,4.0,4.0,446.8118900001627,3.0,1.0,phase_1,,,,,,,,,,,,,gray,diamond
667.0,3.0,3.0,0.0,3.0,3.0,345.4242010000143,3.0,1.0,phase_1,,,,,,,,,,,,,white,circle
0.0,4.0,0.0,0.0,2.0,2.0,335.4970400000638,3.0,1.0,phase_1,,,,,,,,,,,,,green,square
640.0,7.0,3.0,1.0,4.0,4.0,363.9912150001692,3.0,1.0,phase_1,,,,,,,,,,,,,cyan,flipped triangle
0.0,3.0,0.0,0.0,4.0,4.0,373.6336890001439,3.0,1.0,phase_1,,,,,,,,,,,,,white,circle
322.0,2.0,2.0,0.0,2.0,2.0,448.90091100000967,3.0,1.0,phase_1,,,,,,,,,,,,,blue,I
338.0,2.0,2.0,0.0,3.0,3.0,327.1906330001002,3.0,1.0,phase_1,,,,,,,,,,,,,blue,I
1297.0,8.0,4.0,1.0,3.0,3.0,354.0502990001641,3.0,1.0,phase_1,,,,,,,,,,,,,gray,diamond
0.0,5.0,0.0,1.0,4.0,4.0,439.0711240000655,3.0,1.0,phase_1,,,,,,,,,,,,,magenta,triangle
1322.0,4.0,4.0,0.0,2.0,2.0,346.1067000000639,3.0,1.0,phase_1,,,,,,,,,,,,,green,square
1276.0,8.0,4.0,1.0,4.0,4.0,365.7046079999873,3.0,1.0,phase_1,,,,,,,,,,,,,gray,diamond
169.0,5.0,1.0,1.0,4.0,4.0,402.3565709999275,3.0,1.0,phase_1,,,,,,,,,,,,,magenta,triangle
330.0,6.0,2.0,1.0,2.0,2.0,346.9025940000847,3.0,1.0,phase_1,,,,,,,,,,,,,orange,hexagon
320.0,6.0,2.0,1.0,4.0,4.0,373.1791129998782,3.0,1.0,phase_1,,,,,,,,,,,,,orange,hexagon
165.0,5.0,1.0,1.0,2.0,2.0,317.9223710001224,3.0,1.0,phase_1,,,,,,,,,,,,,magenta,triangle
335.0,6.0,2.0,1.0,1.0,1.0,345.9923610000714,3.0,1.0,phase_1,,,,,,,,,,,,,orange,hexagon
1287.0,4.0,4.0,0.0,2.0,2.0,346.0449159999825,3.0,1.0,phase_1,,,,,,,,,,,,,green,square
1298.0,4.0,4.0,0.0,1.0,1.0,337.0919379999577,3.0,1.0,phase_1,,,,,,,,,,,,,green,square
322.0,6.0,2.0,1.0,3.0,3.0,383.1179589999465,3.0,1.0,phase_1,,,,,,,,,,,,,orange,hexagon
635.0,3.0,3.0,0.0,3.0,3.0,401.8245830000069,3.0,1.0,phase_1,,,,,,,,,,,,,white,circle
165.0,5.0,1.0,1.0,4.0,4.0,355.0714150001113,3.0,1.0,phase_1,,,,,,,,,,,,,magenta,triangle
177.0,5.0,1.0,1.0,2.0,2.0,337.0196270000178,3.0,1.0,phase_1,,,,,,,,,,,,,magenta,triangle
167.0,5.0,1.0,1.0,4.0,4.0,355.6812360000094,3.0,1.0,phase_1,,,,,,,,,,,,,magenta,triangle
1286.0,4.0,4.0,0.0,2.0,2.0,317.6786120000088,3.0,1.0,phase_1,,,,,,,,,,,,,green,square
1283.0,8.0,4.0,1.0,2.0,2.0,374.2070359999161,3.0,1.0,phase_1,,,,,,,,,,,,,gray,diamond
1313.0,4.0,4.0,0.0,2.0,2.0,317.7001369999743,3.0,1.0,phase_1,,,,,,,,,,,,,green,square
307.0,6.0,2.0,1.0,4.0,4.0,420.299808999971,3.0,1.0,phase_1,,,,,,,,,,,,,orange,hexagon
0.0,6.0,0.0,1.0,1.0,1.0,338.5292589998698,3.0,1.0,phase_1,,,,,,,,,,,,,orange,hexagon
167.0,1.0,1.0,0.0,4.0,4.0,345.4787640000631,3.0,1.0,phase_1,,,,,,,,,,,,,yellow,cross
161.0,5.0,1.0,1.0,2.0,2.0,317.6097359998948,3.0,1.0,phase_1,,,,,,,,,,,,,magenta,triangle
1290.0,4.0,4.0,0.0,1.0,1.0,317.3110159998487,3.0,1.0,phase_1,,,,,,,,,,,,,green,square
1323.0,4.0,4.0,0.0,4.0,4.0,346.733544000017,3.0,1.0,phase_1,,,,,,,,,,,,,green,square
317.0,6.0,2.0,1.0,3.0,3.0,400.9863950000181,3.0,1.0,phase_1,,,,,,,,,,,,,orange,hexagon
1315.0,8.0,4.0,1.0,4.0,4.0,345.6980690000364,3.0,1.0,phase_1,,,,,,,,,,,,,gray,diamond
0.0,1.0,0.0,0.0,2.0,2.0,327.2493519998534,3.0,1.0,phase_1,,,,,,,,,,,,,yellow,cross
648.0,7.0,3.0,1.0,2.0,2.0,317.7704839999933,3.0,1.0,phase_1,,,,,,,,,,,,,cyan,flipped triangle
636.0,3.0,3.0,0.0,2.0,2.0,317.1005750000404,3.0,1.0,phase_1,,,,,,,,,,,,,white,circle
164.0,5.0,1.0,1.0,1.0,1.0,456.6108139999869,3.0,1.0,phase_1,,,,,,,,,,,,,magenta,triangle
303.0,2.0,2.0,0.0,4.0,4.0,373.546382999848,3.0,1.0,phase_1,,,,,,,,,,,,,blue,I
186.0,5.0,1.0,1.0,3.0,3.0,325.7771000000957,3.0,1.0,phase_1,,,,,,,,,,,,,magenta,triangle
341.0,6.0,2.0,1.0,4.0,4.0,345.4365990000951,3.0,1.0,phase_1,,,,,,,,,,,,,orange,hexagon
329.0,6.0,2.0,1.0,1.0,1.0,402.2443660001045,3.0,1.0,phase_1,,,,,,,,,,,,,orange,hexagon
348.0,6.0,2.0,1.0,4.0,4.0,355.4081849999875,3.0,1.0,phase_1,,,,,,,,,,,,,orange,hexagon
143.0,5.0,1.0,1.0,3.0,3.0,289.7564310001144,3.0,1.0,phase_1,,,,,,,,,,,,,magenta,triangle
181.0,5.0,1.0,1.0,2.0,2.0,326.8627800000558,3.0,1.0,phase_1,,,,,,,,,,,,,magenta,triangle
666.0,7.0,3.0,1.0,3.0,3.0,345.8698239999194,3.0,1.0,phase_1,,,,,,,,,,,,,cyan,flipped triangle
342.0,6.0,2.0,1.0,3.0,3.0,346.067352000091,3.0,1.0,phase_1,,,,,,,,,,,,,orange,hexagon
1279.0,4.0,4.0,0.0,1.0,1.0,317.9420839999238,3.0,1.0,phase_1,,,,,,,,,,,,,green,square
1279.0,8.0,4.0,1.0,4.0,4.0,336.466246999862,3.0,1.0,phase_1,,,,,,,,,,,,,gray,diamond
666.0,3.0,3.0,0.0,4.0,4.0,381.6289449998749,3.0,1.0,phase_1,,,,,,,,,,,,,white,circle
329.0,6.0,2.0,1.0,1.0,1.0,344.5363240000461,3.0,1.0,phase_1,,,,,,,,,,,,,orange,hexagon
643.0,7.0,3.0,1.0,2.0,2.0,335.7664489999479,3.0,1.0,phase_1,,,,,,,,,,,,,cyan,flipped triangle
1286.0,8.0,4.0,1.0,3.0,3.0,326.5618819998508,3.0,1.0,phase_1,,,,,,,,,,,,,gray,diamond
326.0,6.0,2.0,1.0,3.0,3.0,336.782071000016,3.0,1.0,phase_1,,,,,,,,,,,,,orange,hexagon
662.0,3.0,3.0,0.0,4.0,4.0,345.9067530000084,3.0,1.0,phase_1,,,,,,,,,,,,,white,circle
310.0,6.0,2.0,1.0,2.0,2.0,364.39260299994197,3.0,1.0,phase_1,,,,,,,,,,,,,orange,hexagon
1281.0,8.0,4.0,1.0,1.0,1.0,345.7067199999528,3.0,1.0,phase_1,,,,,,,,,,,,,gray,diamond
0.0,7.0,0.0,1.0,4.0,4.0,363.1319570001778,3.0,1.0,phase_1,,,,,,,,,,,,,cyan,flipped triangle
0.0,7.0,0.0,1.0,1.0,1.0,353.6197870000706,3.0,1.0,phase_1,,,,,,,,,,,,,cyan,flipped triangle
347.0,6.0,2.0,1.0,4.0,4.0,354.4887230000313,3.0,1.0,phase_1,,,,,,,,,,,,,orange,hexagon
0.0,4.0,0.0,0.0,4.0,4.0,326.1097669999344,3.0,1.0,phase_1,,,,,,,,,,,,,green,square
335.0,2.0,2.0,0.0,2.0,2.0,353.7035140000171,3.0,1.0,phase_1,,,,,,,,,,,,,blue,I
140.0,1.0,1.0,0.0,1.0,1.0,335.3675440000643,3.0,1.0,phase_1,,,,,,,,,,,,,yellow,cross
1312.0,8.0,4.0,1.0,3.0,3.0,326.270888000181,3.0,1.0,phase_1,,,,,,,,,,,,,gray,diamond
329.0,2.0,2.0,0.0,4.0,4.0,363.5012220001954,3.0,1.0,phase_1,,,,,,,,,,,,,blue,I
185.0,5.0,1.0,1.0,3.0,3.0,373.5680209999827,3.0,1.0,phase_1,,,,,,,,,,,,,magenta,triangle
0.0,4.0,0.0,0.0,2.0,2.0,345.8621110000877,3.0,1.0,phase_1,,,,,,,,,,,,,green,square
635.0,3.0,3.0,0.0,1.0,1.0,327.2715210000569,3.0,1.0,phase_1,,,,,,,,,,,,,white,circle
0.0,4.0,0.0,0.0,3.0,3.0,332.429103000095,3.0,1.0,phase_1,,,,,,,,,,,,,green,square
316.0,6.0,2.0,1.0,3.0,3.0,382.6301110000258,3.0,1.0,phase_1,,,,,,,,,,,,,orange,hexagon
1276.0,4.0,4.0,0.0,3.0,3.0,299.2603200000303,3.0,1.0,phase_1,,,,,,,,,,,,,green,square
1306.0,4.0,4.0,0.0,4.0,4.0,392.2572900000887,3.0,2.0,phase_1,,,,,,,,,,,,,green,square
645.0,7.0,3.0,1.0,2.0,2.0,344.3261570000686,3.0,1.0,phase_1,,,,,,,,,,,,,cyan,flipped triangle
629.0,7.0,3.0,1.0,3.0,3.0,317.097829999966,3.0,1.0,phase_1,,,,,,,,,,,,,cyan,flipped triangle
314.0,2.0,2.0,0.0,1.0,1.0,410.0789770000119,3.0,1.0,phase_1,,,,,,,,,,,,,blue,I
145.0,1.0,1.0,0.0,3.0,3.0,327.3631269998986,3.0,1.0,phase_1,,,,,,,,,,,,,yellow,cross
668.0,7.0,3.0,1.0,1.0,1.0,623.1032569999115,4.0,1.0,phase_1,,,,,,,,,,,,,cyan,flipped triangle
626.0,3.0,3.0,0.0,2.0,2.0,374.5796109999446,4.0,1.0,phase_1,,,,,,,,,,,,,white,circle
1293.0,4.0,4.0,0.0,1.0,1.0,362.9081809999661,4.0,1.0,phase_1,,,,,,,,,,,,,green,square
652.0,7.0,3.0,1.0,3.0,3.0,343.9387170001282,4.0,1.0,phase_1,,,,,,,,,,,,,cyan,flipped triangle
162.0,1.0,1.0,0.0,1.0,1.0,353.6737130000347,4.0,1.0,phase_1,,,,,,,,,,,,,yellow,cross
165.0,1.0,1.0,0.0,3.0,3.0,327.0900029999666,4.0,1.0,phase_1,,,,,,,,,,,,,yellow,cross
165.0,5.0,1.0,1.0,4.0,4.0,373.7974650000524,4.0,1.0,phase_1,,,,,,,,,,,,,magenta,triangle
1276.0,4.0,4.0,0.0,3.0,3.0,354.6862249997957,4.0,1.0,phase_1,,,,,,,,,,,,,green,square
1312.0,4.0,4.0,0.0,2.0,2.0,317.0568740001727,4.0,1.0,phase_1,,,,,,,,,,,,,green,square
0.0,6.0,0.0,1.0,4.0,4.0,335.5235750000247,4.0,1.0,phase_1,,,,,,,,,,,,,orange,hexagon
665.0,7.0,3.0,1.0,4.0,4.0,370.8322600000429,4.0,1.0,phase_1,,,,,,,,,,,,,cyan,flipped triangle
348.0,2.0,2.0,0.0,4.0,4.0,364.7345370000039,4.0,1.0,phase_1,,,,,,,,,,,,,blue,I
655.0,7.0,3.0,1.0,1.0,1.0,373.5319059999256,4.0,1.0,phase_1,,,,,,,,,,,,,cyan,flipped triangle
0.0,2.0,0.0,0.0,2.0,2.0,363.2658200001515,4.0,1.0,phase_1,,,,,,,,,,,,,blue,I
333.0,2.0,2.0,0.0,2.0,2.0,363.7019059999602,4.0,1.0,phase_1,,,,,,,,,,,,,blue,I
175.0,5.0,1.0,1.0,2.0,2.0,353.7074100001973,4.0,1.0,phase_1,,,,,,,,,,,,,magenta,triangle
151.0,1.0,1.0,0.0,2.0,2.0,352.519501000188,4.0,1.0,phase_1,,,,,,,,,,,,,yellow,cross
0.0,3.0,0.0,0.0,3.0,3.0,419.7269890000825,4.0,1.0,phase_1,,,,,,,,,,,,,white,circle
654.0,7.0,3.0,1.0,4.0,4.0,363.3994940000775,4.0,1.0,phase_1,,,,,,,,,,,,,cyan,flipped triangle
305.0,6.0,2.0,1.0,1.0,1.0,344.4573970000419,4.0,1.0,phase_1,,,,,,,,,,,,,orange,hexagon
0.0,7.0,0.0,1.0,4.0,4.0,418.9806339998085,4.0,1.0,phase_1,,,,,,,,,,,,,cyan,flipped triangle
1287.0,8.0,4.0,1.0,4.0,4.0,335.1686900000459,4.0,1.0,phase_1,,,,,,,,,,,,,gray,diamond
640.0,3.0,3.0,0.0,4.0,4.0,364.0516030000071,4.0,1.0,phase_1,,,,,,,,,,,,,white,circle
1323.0,8.0,4.0,1.0,2.0,2.0,362.9693279999628,4.0,1.0,phase_1,,,,,,,,,,,,,gray,diamond
643.0,3.0,3.0,0.0,4.0,4.0,401.9743349999771,4.0,1.0,phase_1,,,,,,,,,,,,,white,circle
147.0,5.0,1.0,1.0,1.0,1.0,353.351461000102,4.0,1.0,phase_1,,,,,,,,,,,,,magenta,triangle
311.0,2.0,2.0,0.0,4.0,4.0,381.6731260001234,4.0,1.0,phase_1,,,,,,,,,,,,,blue,I
348.0,6.0,2.0,1.0,4.0,4.0,390.793148000057,4.0,1.0,phase_1,,,,,,,,,,,,,orange,hexagon
662.0,3.0,3.0,0.0,4.0,4.0,363.3533449999504,4.0,1.0,phase_1,,,,,,,,,,,,,white,circle
1317.0,4.0,4.0,0.0,1.0,1.0,373.6414310001237,4.0,1.0,phase_1,,,,,,,,,,,,,green,square
320.0,2.0,2.0,0.0,3.0,3.0,363.3049519999076,4.0,1.0,phase_1,,,,,,,,,,,,,blue,I
303.0,6.0,2.0,1.0,2.0,2.0,308.6904540000432,4.0,1.0,phase_1,,,,,,,,,,,,,orange,hexagon
178.0,5.0,1.0,1.0,3.0,3.0,336.5522990000045,4.0,1.0,phase_1,,,,,,,,,,,,,magenta,triangle
1287.0,4.0,4.0,0.0,3.0,3.0,354.2250569998941,4.0,1.0,phase_1,,,,,,,,,,,,,green,square
347.0,2.0,2.0,0.0,2.0,2.0,335.6830360000913,4.0,1.0,phase_1,,,,,,,,,,,,,blue,I
0.0,2.0,0.0,0.0,1.0,1.0,345.3361060001043,4.0,1.0,phase_1,,,,,,,,,,,,,blue,I
180.0,5.0,1.0,1.0,4.0,4.0,345.4298439999093,4.0,1.0,phase_1,,,,,,,,,,,,,magenta,triangle
308.0,6.0,2.0,1.0,1.0,1.0,356.9239809999089,4.0,1.0,phase_1,,,,,,,,,,,,,orange,hexagon
1306.0,8.0,4.0,1.0,2.0,2.0,345.4999699999916,4.0,1.0,phase_1,,,,,,,,,,,,,gray,diamond
1305.0,8.0,4.0,1.0,1.0,1.0,328.378640999972,4.0,1.0,phase_1,,,,,,,,,,,,,gray,diamond
1313.0,8.0,4.0,1.0,2.0,2.0,316.3022880000881,4.0,1.0,phase_1,,,,,,,,,,,,,gray,diamond
140.0,5.0,1.0,1.0,3.0,3.0,392.7737259998594,4.0,1.0,phase_1,,,,,,,,,,,,,magenta,triangle
143.0,1.0,1.0,0.0,1.0,1.0,354.883190999999,4.0,1.0,phase_1,,,,,,,,,,,,,yellow,cross
1292.0,8.0,4.0,1.0,1.0,1.0,355.5038350000359,4.0,1.0,phase_1,,,,,,,,,,,,,gray,diamond
657.0,7.0,3.0,1.0,1.0,1.0,326.9905560000552,4.0,1.0,phase_1,,,,,,,,,,,,,cyan,flipped triangle
343.0,6.0,2.0,1.0,4.0,4.0,391.4044299999659,4.0,1.0,phase_1,,,,,,,,,,,,,orange,hexagon
149.0,5.0,1.0,1.0,1.0,1.0,337.5265069998931,4.0,1.0,phase_1,,,,,,,,,,,,,magenta,triangle
625.0,7.0,3.0,1.0,4.0,4.0,384.524914999929,4.0,1.0,phase_1,,,,,,,,,,,,,cyan,flipped triangle
667.0,7.0,3.0,1.0,1.0,1.0,326.0454620001383,4.0,1.0,phase_1,,,,,,,,,,,,,cyan,flipped triangle
339.0,6.0,2.0,1.0,3.0,3.0,336.6234379998332,4.0,1.0,phase_1,,,,,,,,,,,,,orange,hexagon
1315.0,4.0,4.0,0.0,1.0,1.0,318.1731220001893,4.0,1.0,phase_1,,,,,,,,,,,,,green,square
0.0,7.0,0.0,1.0,2.0,2.0,327.2306740000203,4.0,1.0,phase_1,,,,,,,,,,,,,cyan,flipped triangle
1298.0,8.0,4.0,1.0,1.0,1.0,316.7659969999477,4.0,1.0,phase_1,,,,,,,,,,,,,gray,diamond
137.0,1.0,1.0,0.0,4.0,4.0,409.6101459999772,4.0,1.0,phase_1,,,,,,,,,,,,,yellow,cross
318.0,2.0,2.0,0.0,1.0,1.0,336.3611670001774,4.0,1.0,phase_1,,,,,,,,,,,,,blue,I
668.0,3.0,3.0,0.0,2.0,2.0,327.0814819998122,4.0,1.0,phase_1,,,,,,,,,,,,,white,circle
328.0,2.0,2.0,0.0,4.0,4.0,466.9402130002709,4.0,1.0,phase_1,,,,,,,,,,,,,blue,I
0.0,4.0,0.0,0.0,1.0,1.0,344.3877820000125,4.0,1.0,phase_1,,,,,,,,,,,,,green,square
625.0,3.0,3.0,0.0,2.0,2.0,364.030945000195,4.0,1.0,phase_1,,,,,,,,,,,,,white,circle
1314.0,4.0,4.0,0.0,2.0,2.0,325.4889630002253,4.0,1.0,phase_1,,,,,,,,,,,,,green,square
165.0,1.0,1.0,0.0,3.0,3.0,381.0860910002702,4.0,1.0,phase_1,,,,,,,,,,,,,yellow,cross
343.0,2.0,2.0,0.0,2.0,2.0,343.9734509997834,4.0,1.0,phase_1,,,,,,,,,,,,,blue,I
1317.0,4.0,4.0,0.0,1.0,1.0,325.391743000182,4.0,1.0,phase_1,,,,,,,,,,,,,green,square
0.0,1.0,0.0,0.0,1.0,1.0,353.9004439999189,4.0,1.0,phase_1,,,,,,,,,,,,,yellow,cross
0.0,8.0,0.0,1.0,4.0,4.0,334.8692399999891,4.0,1.0,phase_1,,,,,,,,,,,,,gray,diamond
180.0,1.0,1.0,0.0,1.0,1.0,344.6082659997955,4.0,1.0,phase_1,,,,,,,,,,,,,yellow,cross
1306.0,4.0,4.0,0.0,4.0,4.0,373.1257310000728,4.0,1.0,phase_1,,,,,,,,,,,,,green,square
0.0,8.0,0.0,1.0,4.0,4.0,363.4442880002098,4.0,1.0,phase_1,,,,,,,,,,,,,gray,diamond
306.0,2.0,2.0,0.0,2.0,2.0,334.4993190003151,4.0,1.0,phase_1,,,,,,,,,,,,,blue,I
674.0,3.0,3.0,0.0,3.0,3.0,327.0605419997991,4.0,1.0,phase_1,,,,,,,,,,,,,white,circle
152.0,5.0,1.0,1.0,1.0,1.0,335.52477000012,4.0,1.0,phase_1,,,,,,,,,,,,,magenta,triangle
1302.0,4.0,4.0,0.0,3.0,3.0,364.38099399993,4.0,1.0,phase_1,,,,,,,,,,,,,green,square
630.0,3.0,3.0,0.0,1.0,1.0,344.9444650000259,4.0,1.0,phase_1,,,,,,,,,,,,,white,circle
1305.0,4.0,4.0,0.0,4.0,4.0,363.5760469996967,4.0,1.0,phase_1,,,,,,,,,,,,,green,square
144.0,1.0,1.0,0.0,2.0,2.0,354.2876570004409,4.0,1.0,phase_1,,,,,,,,,,,,,yellow,cross
177.0,1.0,1.0,0.0,2.0,2.0,307.749340999635,4.0,1.0,phase_1,,,,,,,,,,,,,yellow,cross
147.0,1.0,1.0,0.0,2.0,2.0,307.3440139996819,4.0,1.0,phase_1,,,,,,,,,,,,,yellow,cross
311.0,6.0,2.0,1.0,1.0,1.0,428.6946590000298,4.0,1.0,phase_1,,,,,,,,,,,,,orange,hexagon
662.0,7.0,3.0,1.0,4.0,4.0,364.7522820001541,4.0,1.0,phase_1,,,,,,,,,,,,,cyan,flipped triangle
348.0,6.0,2.0,1.0,4.0,4.0,401.6660789998241,4.0,1.0,phase_1,,,,,,,,,,,,,orange,hexagon
1301.0,4.0,4.0,0.0,4.0,4.0,374.2395159997613,4.0,1.0,phase_1,,,,,,,,,,,,,green,square
333.0,6.0,2.0,1.0,2.0,2.0,337.2443139996903,4.0,1.0,phase_1,,,,,,,,,,,,,orange,hexagon
661.0,3.0,3.0,0.0,2.0,2.0,353.8691140001901,4.0,1.0,phase_1,,,,,,,,,,,,,white,circle
175.0,1.0,1.0,0.0,2.0,2.0,317.2093279999899,4.0,1.0,phase_1,,,,,,,,,,,,,yellow,cross
342.0,2.0,2.0,0.0,3.0,3.0,343.8472200000433,4.0,1.0,phase_1,,,,,,,,,,,,,blue,I
0.0,8.0,0.0,1.0,2.0,2.0,337.324623999848,4.0,1.0,phase_1,,,,,,,,,,,,,gray,diamond
626.0,7.0,3.0,1.0,3.0,3.0,307.9471490000287,4.0,1.0,phase_1,,,,,,,,,,,,,cyan,flipped triangle
0.0,8.0,0.0,1.0,2.0,2.0,289.7685540001475,4.0,1.0,phase_1,,,,,,,,,,,,,gray,diamond
1314.0,8.0,4.0,1.0,1.0,1.0,363.3457979999548,4.0,1.0,phase_1,,,,,,,,,,,,,gray,diamond
145.0,1.0,1.0,0.0,2.0,2.0,307.1213880002688,4.0,1.0,phase_1,,,,,,,,,,,,,yellow,cross
1320.0,8.0,4.0,1.0,2.0,2.0,335.2917779998279,4.0,1.0,phase_1,,,,,,,,,,,,,gray,diamond
179.0,1.0,1.0,0.0,1.0,1.0,317.3130310001397,4.0,1.0,phase_1,,,,,,,,,,,,,yellow,cross
312.0,2.0,2.0,0.0,2.0,2.0,326.4586049999707,4.0,1.0,phase_1,,,,,,,,,,,,,blue,I
0.0,1.0,0.0,0.0,1.0,1.0,307.4937999999747,4.0,1.0,phase_1,,,,,,,,,,,,,yellow,cross
668.0,3.0,3.0,0.0,3.0,3.0,363.681075000386,4.0,1.0,phase_1,,,,,,,,,,,,,white,circle
342.0,6.0,2.0,1.0,1.0,1.0,317.4822030000541,4.0,1.0,phase_1,,,,,,,,,,,,,orange,hexagon
1292.0,4.0,4.0,0.0,4.0,4.0,391.785327999969,4.0,1.0,phase_1,,,,,,,,,,,,,green,square
0.0,2.0,0.0,0.0,1.0,1.0,363.465523999821,4.0,1.0,phase_1,,,,,,,,,,,,,blue,I
349.0,2.0,2.0,0.0,3.0,3.0,336.6268909999235,4.0,1.0,phase_1,,,,,,,,,,,,,blue,I
160.0,5.0,1.0,1.0,4.0,4.0,346.6680730002736,4.0,1.0,phase_1,,,,,,,,,,,,,magenta,triangle
0.0,5.0,1.0,1.0,5.0,0.0,0.0,1.0,1.0,phase_2,stop,250.0,250.0,4.0,,,,,,,,,magenta,triangle
0.0,7.0,3.0,1.0,5.0,5.0,334.8901350000233,1.0,1.0,phase_2,stop,300.0,250.0,3.0,,,,,,,,,cyan,flipped triangle
0.0,2.0,2.0,0.0,6.0,6.0,328.9619039996978,1.0,1.0,phase_2,go,250.0,250.0,1.0,,,,,,,,,blue,I
0.0,7.0,3.0,1.0,6.0,6.0,439.3749639998532,1.0,1.0,phase_2,go,250.0,250.0,1.0,,,,,,,,,cyan,flipped triangle
0.0,6.0,2.0,1.0,5.0,5.0,291.2305120003111,1.0,1.0,phase_2,go,250.0,250.0,1.0,,,,,,,,,orange,hexagon
0.0,1.0,1.0,0.0,6.0,6.0,347.8502250000019,1.0,1.0,phase_2,go,250.0,250.0,1.0,,,,,,,,,yellow,cross
0.0,7.0,3.0,1.0,6.0,6.0,329.5044129999951,1.0,1.0,phase_2,stop,250.0,250.0,3.0,,,,,,,,,cyan,flipped triangle
0.0,8.0,4.0,1.0,6.0,6.0,280.5514010001388,1.0,1.0,phase_2,stop,250.0,200.0,3.0,,,,,,,,,gray,diamond
0.0,5.0,1.0,1.0,6.0,6.0,329.4084499998462,1.0,1.0,phase_2,go,250.0,150.0,1.0,,,,,,,,,magenta,triangle
0.0,7.0,3.0,1.0,6.0,6.0,320.4268079998655,1.0,1.0,phase_2,stop,250.0,150.0,3.0,,,,,,,,,cyan,flipped triangle
0.0,6.0,2.0,1.0,5.0,5.0,335.3335639999386,1.0,1.0,phase_2,stop,250.0,100.0,3.0,,,,,,,,,orange,hexagon
0.0,7.0,3.0,1.0,5.0,5.0,378.2406899999841,1.0,1.0,phase_2,stop,200.0,100.0,3.0,,,,,,,,,cyan,flipped triangle
0.0,2.0,2.0,0.0,6.0,6.0,712.4214090003989,1.0,1.0,phase_2,go,150.0,100.0,1.0,,,,,,,,,blue,I
0.0,4.0,4.0,0.0,6.0,6.0,403.725241000302,1.0,1.0,phase_2,go,150.0,100.0,1.0,,,,,,,,,green,square
0.0,4.0,4.0,0.0,5.0,5.0,571.5181669997946,1.0,1.0,phase_2,go,150.0,100.0,1.0,,,,,,,,,green,square
0.0,6.0,2.0,1.0,5.0,5.0,338.4722529999635,1.0,1.0,phase_2,go,150.0,100.0,1.0,,,,,,,,,orange,hexagon
0.0,6.0,2.0,1.0,5.0,5.0,303.9163270000244,1.0,1.0,phase_2,stop,150.0,100.0,3.0,,,,,,,,,orange,hexagon
0.0,1.0,1.0,0.0,6.0,6.0,225.3109859998403,1.0,1.0,phase_2,go,100.0,100.0,1.0,,,,,,,,,yellow,cross
0.0,6.0,2.0,1.0,5.0,5.0,375.9740990003593,1.0,1.0,phase_2,go,100.0,100.0,1.0,,,,,,,,,orange,hexagon
0.0,5.0,1.0,1.0,5.0,5.0,341.0087580000436,1.0,1.0,phase_2,stop,100.0,100.0,3.0,,,,,,,,,magenta,triangle
0.0,2.0,2.0,0.0,6.0,6.0,291.6312390002531,1.0,1.0,phase_2,go,50.0,100.0,1.0,,,,,,,,,blue,I
0.0,5.0,1.0,1.0,6.0,0.0,0.0,1.0,1.0,phase_2,stop,50.0,100.0,4.0,,,,,,,,,magenta,triangle
0.0,7.0,3.0,1.0,5.0,5.0,523.7011330000314,1.0,1.0,phase_2,go,50.0,150.0,1.0,,,,,,,,,cyan,flipped triangle
0.0,2.0,2.0,0.0,5.0,5.0,404.6588349997364,1.0,1.0,phase_2,go,50.0,150.0,1.0,,,,,,,,,blue,I
0.0,7.0,3.0,1.0,5.0,5.0,385.4134129996964,1.0,1.0,phase_2,go,50.0,150.0,1.0,,,,,,,,,cyan,flipped triangle
0.0,3.0,3.0,0.0,6.0,6.0,543.471521000356,1.0,1.0,phase_2,go,50.0,150.0,1.0,,,,,,,,,white,circle
0.0,8.0,4.0,1.0,5.0,0.0,0.0,1.0,1.0,phase_2,stop,50.0,150.0,4.0,,,,,,,,,gray,diamond
0.0,5.0,1.0,1.0,6.0,0.0,0.0,1.0,1.0,phase_2,stop,100.0,150.0,4.0,,,,,,,,,magenta,triangle
0.0,6.0,2.0,1.0,6.0,6.0,327.6458979999006,1.0,1.0,phase_2,go,100.0,200.0,1.0,,,,,,,,,orange,hexagon
0.0,8.0,4.0,1.0,6.0,6.0,311.2808750001932,1.0,1.0,phase_2,stop,100.0,200.0,3.0,,,,,,,,,gray,diamond
0.0,8.0,4.0,1.0,5.0,5.0,293.682045999958,1.0,1.0,phase_2,stop,100.0,150.0,3.0,,,,,,,,,gray,diamond
0.0,4.0,4.0,0.0,6.0,6.0,581.8441750002421,1.0,1.0,phase_2,go,50.0,150.0,1.0,,,,,,,,,green,square
0.0,4.0,4.0,0.0,6.0,6.0,309.9654320003537,1.0,1.0,phase_2,go,50.0,150.0,1.0,,,,,,,,,green,square
0.0,1.0,1.0,0.0,5.0,5.0,450.0162149997777,1.0,1.0,phase_2,go,50.0,150.0,1.0,,,,,,,,,yellow,cross
0.0,7.0,3.0,1.0,5.0,0.0,0.0,1.0,1.0,phase_2,stop,50.0,150.0,4.0,,,,,,,,,cyan,flipped triangle
0.0,6.0,2.0,1.0,5.0,5.0,346.9440210001266,1.0,1.0,phase_2,stop,100.0,150.0,3.0,,,,,,,,,orange,hexagon
0.0,3.0,3.0,0.0,5.0,5.0,564.3076119999932,2.0,1.0,phase_2,go,50.0,150.0,1.0,,,,,,,,,white,circle
0.0,2.0,2.0,0.0,6.0,6.0,449.8623049998969,2.0,1.0,phase_2,go,50.0,150.0,1.0,,,,,,,,,blue,I
0.0,5.0,1.0,1.0,5.0,5.0,242.0420580001518,2.0,1.0,phase_2,stop,50.0,150.0,3.0,,,,,,,,,magenta,triangle
0.0,3.0,3.0,0.0,6.0,6.0,413.7017370003377,2.0,1.0,phase_2,go,0.0,150.0,1.0,,,,,,,,,white,circle
0.0,8.0,4.0,1.0,6.0,6.0,319.5941119997769,2.0,1.0,phase_2,stop,0.0,150.0,3.0,,,,,,,,,gray,diamond
0.0,7.0,3.0,1.0,6.0,6.0,347.7685309999287,2.0,1.0,phase_2,stop,0.0,100.0,3.0,,,,,,,,,cyan,flipped triangle
0.0,1.0,1.0,0.0,6.0,6.0,374.2037580000215,2.0,1.0,phase_2,go,0.0,50.0,1.0,,,,,,,,,yellow,cross
0.0,8.0,4.0,1.0,5.0,5.0,337.7066279999781,2.0,1.0,phase_2,go,0.0,50.0,1.0,,,,,,,,,gray,diamond
0.0,3.0,3.0,0.0,6.0,6.0,404.4088349996855,2.0,1.0,phase_2,go,0.0,50.0,1.0,,,,,,,,,white,circle
0.0,2.0,2.0,0.0,6.0,6.0,338.3016349998797,2.0,1.0,phase_2,go,0.0,50.0,1.0,,,,,,,,,blue,I
0.0,1.0,1.0,0.0,6.0,6.0,331.3175019998198,2.0,1.0,phase_2,go,0.0,50.0,1.0,,,,,,,,,yellow,cross
0.0,3.0,3.0,0.0,5.0,5.0,292.0538349999333,2.0,1.0,phase_2,go,0.0,50.0,1.0,,,,,,,,,white,circle
0.0,8.0,4.0,1.0,6.0,0.0,0.0,2.0,1.0,phase_2,stop,0.0,50.0,4.0,,,,,,,,,gray,diamond
0.0,3.0,3.0,0.0,5.0,5.0,329.6126659997753,2.0,1.0,phase_2,go,0.0,100.0,1.0,,,,,,,,,white,circle
0.0,6.0,2.0,1.0,6.0,6.0,321.292104999884,2.0,1.0,phase_2,stop,0.0,100.0,3.0,,,,,,,,,orange,hexagon
0.0,4.0,4.0,0.0,6.0,6.0,333.7732169998162,2.0,1.0,phase_2,go,0.0,50.0,1.0,,,,,,,,,green,square
0.0,4.0,4.0,0.0,5.0,5.0,378.9928470000632,2.0,1.0,phase_2,go,0.0,50.0,1.0,,,,,,,,,green,square
0.0,2.0,2.0,0.0,5.0,5.0,380.2994390002823,2.0,1.0,phase_2,go,0.0,50.0,1.0,,,,,,,,,blue,I
0.0,6.0,2.0,1.0,5.0,0.0,0.0,2.0,1.0,phase_2,stop,0.0,50.0,4.0,,,,,,,,,orange,hexagon
0.0,4.0,4.0,0.0,5.0,5.0,612.7495430000636,2.0,1.0,phase_2,go,50.0,50.0,1.0,,,,,,,,,green,square
0.0,6.0,2.0,1.0,5.0,5.0,356.9361179997941,2.0,1.0,phase_2,go,50.0,50.0,1.0,,,,,,,,,orange,hexagon
0.0,7.0,3.0,1.0,5.0,0.0,0.0,2.0,1.0,phase_2,stop,50.0,50.0,4.0,,,,,,,,,cyan,flipped triangle
0.0,4.0,4.0,0.0,5.0,5.0,358.0636020001293,2.0,1.0,phase_2,go,100.0,50.0,1.0,,,,,,,,,green,square
0.0,1.0,1.0,0.0,5.0,5.0,362.125424000169,2.0,1.0,phase_2,go,100.0,50.0,1.0,,,,,,,,,yellow,cross
0.0,3.0,3.0,0.0,6.0,6.0,314.1170170001715,2.0,1.0,phase_2,go,100.0,50.0,1.0,,,,,,,,,white,circle
0.0,7.0,3.0,1.0,6.0,6.0,341.2192989999312,2.0,1.0,phase_2,stop,100.0,50.0,3.0,,,,,,,,,cyan,flipped triangle
0.0,7.0,3.0,1.0,5.0,0.0,0.0,2.0,1.0,phase_2,stop,100.0,0.0,4.0,,,,,,,,,cyan,flipped triangle
0.0,6.0,2.0,1.0,5.0,0.0,0.0,2.0,1.0,phase_2,stop,150.0,0.0,4.0,,,,,,,,,orange,hexagon
0.0,2.0,2.0,0.0,6.0,6.0,351.651961999778,2.0,1.0,phase_2,go,200.0,0.0,1.0,,,,,,,,,blue,I
0.0,2.0,2.0,0.0,5.0,5.0,552.7617980001196,2.0,1.0,phase_2,go,200.0,0.0,1.0,,,,,,,,,blue,I
0.0,5.0,1.0,1.0,6.0,6.0,470.2716720003081,2.0,1.0,phase_2,go,200.0,0.0,1.0,,,,,,,,,magenta,triangle
0.0,3.0,3.0,0.0,6.0,6.0,300.758622000103,2.0,1.0,phase_2,go,200.0,0.0,1.0,,,,,,,,,white,circle
0.0,5.0,1.0,1.0,5.0,5.0,310.0134619999153,2.0,1.0,phase_2,stop,200.0,0.0,3.0,,,,,,,,,magenta,triangle
0.0,2.0,2.0,0.0,5.0,5.0,370.5583060000208,2.0,1.0,phase_2,go,150.0,0.0,1.0,,,,,,,,,blue,I
0.0,2.0,2.0,0.0,5.0,5.0,361.7384350000066,2.0,1.0,phase_2,go,150.0,0.0,1.0,,,,,,,,,blue,I
0.0,8.0,4.0,1.0,6.0,0.0,0.0,2.0,1.0,phase_2,stop,150.0,0.0,4.0,,,,,,,,,gray,diamond
0.0,8.0,4.0,1.0,6.0,6.0,324.2906880000191,3.0,1.0,phase_2,stop,150.0,50.0,3.0,,,,,,,,,gray,diamond
0.0,4.0,4.0,0.0,6.0,6.0,403.5264350000034,3.0,1.0,phase_2,go,150.0,0.0,1.0,,,,,,,,,green,square
0.0,5.0,1.0,1.0,5.0,5.0,298.8245450001159,3.0,1.0,phase_2,stop,150.0,0.0,3.0,,,,,,,,,magenta,triangle
0.0,3.0,3.0,0.0,6.0,6.0,318.7703700000384,3.0,1.0,phase_2,go,100.0,0.0,1.0,,,,,,,,,white,circle
0.0,1.0,1.0,0.0,5.0,5.0,356.1459360003027,3.0,1.0,phase_2,go,100.0,0.0,1.0,,,,,,,,,yellow,cross
0.0,1.0,1.0,0.0,5.0,5.0,403.7502189999031,3.0,1.0,phase_2,go,100.0,0.0,1.0,,,,,,,,,yellow,cross
0.0,3.0,3.0,0.0,6.0,6.0,440.7673390001037,3.0,1.0,phase_2,go,100.0,0.0,1.0,,,,,,,,,white,circle
0.0,8.0,4.0,1.0,5.0,5.0,310.0438800001939,3.0,1.0,phase_2,go,100.0,0.0,1.0,,,,,,,,,gray,diamond
0.0,4.0,4.0,0.0,5.0,5.0,366.4855259999058,3.0,1.0,phase_2,go,100.0,0.0,1.0,,,,,,,,,green,square
0.0,5.0,1.0,1.0,5.0,5.0,309.4003599999269,3.0,1.0,phase_2,go,100.0,0.0,1.0,,,,,,,,,magenta,triangle
0.0,4.0,4.0,0.0,6.0,6.0,337.5084869999227,3.0,1.0,phase_2,go,100.0,0.0,1.0,,,,,,,,,green,square
0.0,2.0,2.0,0.0,6.0,6.0,337.0784680000724,3.0,1.0,phase_2,go,100.0,0.0,1.0,,,,,,,,,blue,I
0.0,7.0,3.0,1.0,6.0,0.0,0.0,3.0,1.0,phase_2,stop,100.0,0.0,4.0,,,,,,,,,cyan,flipped triangle
0.0,1.0,1.0,0.0,5.0,5.0,488.4250639997844,3.0,1.0,phase_2,go,100.0,50.0,1.0,,,,,,,,,yellow,cross
0.0,8.0,4.0,1.0,6.0,0.0,0.0,3.0,1.0,phase_2,stop,100.0,50.0,4.0,,,,,,,,,gray,diamond
0.0,3.0,3.0,0.0,6.0,6.0,413.1826199995885,3.0,1.0,phase_2,go,100.0,100.0,1.0,,,,,,,,,white,circle
0.0,7.0,3.0,1.0,6.0,0.0,0.0,3.0,1.0,phase_2,stop,100.0,100.0,4.0,,,,,,,,,cyan,flipped triangle
0.0,3.0,3.0,0.0,6.0,6.0,469.3048270000872,3.0,1.0,phase_2,go,100.0,150.0,1.0,,,,,,,,,white,circle
0.0,4.0,4.0,0.0,5.0,5.0,375.4503099999056,3.0,1.0,phase_2,go,100.0,150.0,1.0,,,,,,,,,green,square
0.0,3.0,3.0,0.0,6.0,6.0,431.3549270000294,3.0,1.0,phase_2,go,100.0,150.0,1.0,,,,,,,,,white,circle
0.0,2.0,2.0,0.0,6.0,6.0,319.5009410001148,3.0,1.0,phase_2,go,100.0,150.0,1.0,,,,,,,,,blue,I
0.0,8.0,4.0,1.0,5.0,5.0,347.3471689999314,3.0,1.0,phase_2,stop,100.0,150.0,3.0,,,,,,,,,gray,diamond
0.0,5.0,1.0,1.0,5.0,0.0,0.0,3.0,1.0,phase_2,stop,50.0,150.0,4.0,,,,,,,,,magenta,triangle
0.0,7.0,3.0,1.0,6.0,6.0,442.2061459999895,3.0,1.0,phase_2,stop,100.0,150.0,3.0,,,,,,,,,cyan,flipped triangle
0.0,1.0,1.0,0.0,5.0,5.0,412.9966579998836,3.0,1.0,phase_2,go,100.0,100.0,1.0,,,,,,,,,yellow,cross
0.0,1.0,1.0,0.0,5.0,5.0,451.1041810001188,3.0,1.0,phase_2,go,100.0,100.0,1.0,,,,,,,,,yellow,cross
0.0,7.0,3.0,1.0,6.0,0.0,0.0,3.0,1.0,phase_2,stop,100.0,100.0,4.0,,,,,,,,,cyan,flipped triangle
0.0,3.0,3.0,0.0,5.0,5.0,554.8998589997609,3.0,1.0,phase_2,go,100.0,150.0,1.0,,,,,,,,,white,circle
0.0,8.0,4.0,1.0,5.0,5.0,433.8721159997476,3.0,1.0,phase_2,go,100.0,150.0,1.0,,,,,,,,,gray,diamond
0.0,1.0,1.0,0.0,6.0,6.0,423.3448089999001,3.0,1.0,phase_2,go,100.0,150.0,1.0,,,,,,,,,yellow,cross
0.0,4.0,4.0,0.0,6.0,6.0,393.948163999994,3.0,1.0,phase_2,go,100.0,150.0,1.0,,,,,,,,,green,square
0.0,8.0,4.0,1.0,6.0,6.0,319.9810419996538,3.0,1.0,phase_2,go,100.0,150.0,1.0,,,,,,,,,gray,diamond
0.0,4.0,4.0,0.0,5.0,5.0,347.5274760003231,3.0,1.0,phase_2,go,100.0,150.0,1.0,,,,,,,,,green,square
0.0,3.0,3.0,0.0,6.0,6.0,348.5248409997439,3.0,1.0,phase_2,go,100.0,150.0,1.0,,,,,,,,,white,circle
0.0,3.0,3.0,0.0,5.0,5.0,308.7981809999292,3.0,1.0,phase_2,go,100.0,150.0,1.0,,,,,,,,,white,circle
0.0,8.0,4.0,1.0,6.0,6.0,295.0550580003437,3.0,1.0,phase_2,stop,100.0,150.0,3.0,,,,,,,,,gray,diamond
0.0,4.0,4.0,0.0,5.0,5.0,535.0082840000141,4.0,1.0,phase_2,go,100.0,100.0,1.0,,,,,,,,,green,square
0.0,7.0,3.0,1.0,5.0,0.0,0.0,4.0,1.0,phase_2,stop,100.0,100.0,4.0,,,,,,,,,cyan,flipped triangle
0.0,7.0,3.0,1.0,6.0,0.0,0.0,4.0,1.0,phase_2,stop,150.0,100.0,4.0,,,,,,,,,cyan,flipped triangle
0.0,4.0,4.0,0.0,6.0,6.0,385.768907000056,4.0,1.0,phase_2,go,150.0,150.0,1.0,,,,,,,,,green,square
0.0,1.0,1.0,0.0,6.0,6.0,376.43011199998,4.0,1.0,phase_2,go,150.0,150.0,1.0,,,,,,,,,yellow,cross
0.0,3.0,3.0,0.0,5.0,5.0,451.0235679999823,4.0,1.0,phase_2,go,150.0,150.0,1.0,,,,,,,,,white,circle
0.0,6.0,2.0,1.0,6.0,0.0,0.0,4.0,1.0,phase_2,stop,150.0,150.0,4.0,,,,,,,,,orange,hexagon
0.0,6.0,2.0,1.0,6.0,6.0,361.9288599998072,4.0,1.0,phase_2,stop,150.0,200.0,3.0,,,,,,,,,orange,hexagon
0.0,1.0,1.0,0.0,6.0,6.0,620.0262519996613,4.0,1.0,phase_2,go,150.0,150.0,1.0,,,,,,,,,yellow,cross
0.0,3.0,3.0,0.0,5.0,5.0,555.3065939998305,4.0,1.0,phase_2,go,150.0,150.0,1.0,,,,,,,,,white,circle
0.0,2.0,2.0,0.0,6.0,6.0,498.4073649998208,4.0,1.0,phase_2,go,150.0,150.0,1.0,,,,,,,,,blue,I
0.0,5.0,1.0,1.0,6.0,0.0,0.0,4.0,1.0,phase_2,stop,150.0,150.0,4.0,,,,,,,,,magenta,triangle
0.0,6.0,2.0,1.0,6.0,0.0,0.0,4.0,1.0,phase_2,stop,150.0,200.0,4.0,,,,,,,,,orange,hexagon
0.0,5.0,1.0,1.0,5.0,5.0,583.5403800001586,4.0,1.0,phase_2,go,150.0,250.0,1.0,,,,,,,,,magenta,triangle
0.0,2.0,2.0,0.0,5.0,5.0,469.1862930003481,4.0,1.0,phase_2,go,150.0,250.0,1.0,,,,,,,,,blue,I
0.0,3.0,3.0,0.0,6.0,6.0,619.3980950001787,4.0,1.0,phase_2,go,150.0,250.0,1.0,,,,,,,,,white,circle
0.0,6.0,2.0,1.0,6.0,0.0,0.0,4.0,1.0,phase_2,stop,150.0,250.0,4.0,,,,,,,,,orange,hexagon
0.0,7.0,3.0,1.0,5.0,5.0,394.1097909996642,4.0,1.0,phase_2,stop,150.0,300.0,3.0,,,,,,,,,cyan,flipped triangle
0.0,4.0,4.0,0.0,6.0,6.0,563.8123950002409,4.0,1.0,phase_2,go,100.0,300.0,1.0,,,,,,,,,green,square
0.0,7.0,3.0,1.0,5.0,0.0,0.0,4.0,1.0,phase_2,stop,100.0,300.0,4.0,,,,,,,,,cyan,flipped triangle
0.0,6.0,2.0,1.0,6.0,0.0,0.0,4.0,1.0,phase_2,stop,150.0,300.0,4.0,,,,,,,,,orange,hexagon
0.0,7.0,3.0,1.0,6.0,6.0,584.4702379999944,4.0,1.0,phase_2,go,150.0,350.0,1.0,,,,,,,,,cyan,flipped triangle
0.0,4.0,4.0,0.0,6.0,6.0,562.4746759999653,4.0,1.0,phase_2,go,150.0,350.0,1.0,,,,,,,,,green,square
0.0,8.0,4.0,1.0,6.0,6.0,491.9971839999562,4.0,1.0,phase_2,stop,150.0,350.0,3.0,,,,,,,,,gray,diamond
0.0,4.0,4.0,0.0,6.0,6.0,656.9666509999479,4.0,1.0,phase_2,go,150.0,300.0,1.0,,,,,,,,,green,square
0.0,1.0,1.0,0.0,5.0,5.0,675.884600000245,4.0,1.0,phase_2,go,150.0,300.0,1.0,,,,,,,,,yellow,cross
0.0,4.0,4.0,0.0,5.0,5.0,385.0745089998781,4.0,1.0,phase_2,go,150.0,300.0,1.0,,,,,,,,,green,square
0.0,6.0,2.0,1.0,5.0,0.0,0.0,4.0,1.0,phase_2,stop,150.0,300.0,4.0,,,,,,,,,orange,hexagon
0.0,3.0,3.0,0.0,6.0,6.0,498.7113189999945,4.0,1.0,phase_2,go,200.0,300.0,1.0,,,,,,,,,white,circle
0.0,6.0,2.0,1.0,6.0,6.0,535.7587720000083,4.0,1.0,phase_2,go,200.0,300.0,1.0,,,,,,,,,orange,hexagon
0.0,1.0,1.0,0.0,6.0,6.0,553.7800300003255,4.0,1.0,phase_2,go,200.0,300.0,1.0,,,,,,,,,yellow,cross
0.0,5.0,1.0,1.0,6.0,6.0,393.8061990002097,4.0,1.0,phase_2,stop,200.0,300.0,3.0,,,,,,,,,magenta,triangle
0.0,2.0,2.0,0.0,6.0,6.0,685.9628789998169,4.0,1.0,phase_2,go,200.0,250.0,1.0,,,,,,,,,blue,I
0.0,7.0,3.0,1.0,5.0,0.0,0.0,4.0,1.0,phase_2,stop,200.0,250.0,4.0,,,,,,,,,cyan,flipped triangle
0.0,2.0,2.0,0.0,5.0,5.0,676.430013999834,4.0,1.0,phase_2,go,250.0,250.0,1.0,,,,,,,,,blue,I
0.0,6.0,2.0,1.0,6.0,0.0,0.0,4.0,1.0,phase_2,stop,250.0,250.0,4.0,,,,,,,,,orange,hexagon
0.0,8.0,4.0,1.0,6.0,0.0,0.0,5.0,1.0,phase_2,stop,250.0,300.0,4.0,,,,,,,,,gray,diamond
0.0,5.0,1.0,1.0,6.0,6.0,432.9867620003824,5.0,1.0,phase_2,stop,250.0,350.0,3.0,,,,,,,,,magenta,triangle
0.0,2.0,2.0,0.0,5.0,5.0,516.6550260000804,5.0,1.0,phase_2,go,250.0,300.0,1.0,,,,,,,,,blue,I
0.0,4.0,4.0,0.0,5.0,5.0,337.5306130001263,5.0,1.0,phase_2,go,250.0,300.0,1.0,,,,,,,,,green,square
0.0,4.0,4.0,0.0,5.0,5.0,405.8886759999041,5.0,1.0,phase_2,go,250.0,300.0,1.0,,,,,,,,,green,square
0.0,2.0,2.0,0.0,6.0,6.0,453.35434000026,5.0,1.0,phase_2,go,250.0,300.0,1.0,,,,,,,,,blue,I
0.0,1.0,1.0,0.0,5.0,5.0,349.2884920001415,5.0,1.0,phase_2,go,250.0,300.0,1.0,,,,,,,,,yellow,cross
0.0,3.0,3.0,0.0,5.0,5.0,395.3068999999232,5.0,1.0,phase_2,go,250.0,300.0,1.0,,,,,,,,,white,circle
0.0,3.0,3.0,0.0,5.0,5.0,395.2234489997863,5.0,1.0,phase_2,go,250.0,300.0,1.0,,,,,,,,,white,circle
0.0,5.0,1.0,1.0,5.0,5.0,431.9727740003145,5.0,1.0,phase_2,stop,250.0,300.0,3.0,,,,,,,,,magenta,triangle
0.0,1.0,1.0,0.0,5.0,5.0,526.7433229996641,5.0,1.0,phase_2,go,200.0,300.0,1.0,,,,,,,,,yellow,cross
0.0,7.0,3.0,1.0,5.0,0.0,0.0,5.0,1.0,phase_2,stop,200.0,300.0,4.0,,,,,,,,,cyan,flipped triangle
0.0,2.0,2.0,0.0,5.0,5.0,741.4567159999024,5.0,1.0,phase_2,go,250.0,300.0,1.0,,,,,,,,,blue,I
0.0,5.0,1.0,1.0,5.0,0.0,0.0,5.0,1.0,phase_2,stop,250.0,300.0,4.0,,,,,,,,,magenta,triangle
0.0,2.0,2.0,0.0,6.0,6.0,593.382819999988,5.0,1.0,phase_2,go,300.0,300.0,1.0,,,,,,,,,blue,I
0.0,6.0,2.0,1.0,5.0,0.0,0.0,5.0,1.0,phase_2,stop,300.0,300.0,4.0,,,,,,,,,orange,hexagon
0.0,7.0,3.0,1.0,6.0,0.0,0.0,5.0,1.0,phase_2,stop,350.0,300.0,4.0,,,,,,,,,cyan,flipped triangle
0.0,8.0,4.0,1.0,6.0,0.0,0.0,5.0,1.0,phase_2,stop,350.0,350.0,4.0,,,,,,,,,gray,diamond
0.0,1.0,1.0,0.0,6.0,6.0,583.7354189998223,5.0,1.0,phase_2,go,350.0,400.0,1.0,,,,,,,,,yellow,cross
0.0,7.0,3.0,1.0,6.0,6.0,536.0682130003624,5.0,1.0,phase_2,stop,350.0,400.0,3.0,,,,,,,,,cyan,flipped triangle
0.0,2.0,2.0,0.0,5.0,5.0,469.6540429999913,5.0,1.0,phase_2,go,350.0,350.0,1.0,,,,,,,,,blue,I
0.0,8.0,4.0,1.0,6.0,0.0,0.0,5.0,1.0,phase_2,stop,350.0,350.0,4.0,,,,,,,,,gray,diamond
0.0,5.0,1.0,1.0,5.0,5.0,678.6049140000614,5.0,1.0,phase_2,go,350.0,400.0,1.0,,,,,,,,,magenta,triangle
0.0,6.0,2.0,1.0,6.0,6.0,514.074108999921,5.0,1.0,phase_2,stop,350.0,400.0,3.0,,,,,,,,,orange,hexagon
0.0,2.0,2.0,0.0,5.0,5.0,658.6294490002729,5.0,1.0,phase_2,go,350.0,350.0,1.0,,,,,,,,,blue,I
0.0,5.0,1.0,1.0,5.0,5.0,527.5914580001881,5.0,1.0,phase_2,stop,350.0,350.0,3.0,,,,,,,,,magenta,triangle
0.0,7.0,3.0,1.0,6.0,6.0,694.7144240002672,5.0,1.0,phase_2,go,300.0,350.0,1.0,,,,,,,,,cyan,flipped triangle
0.0,3.0,3.0,0.0,6.0,6.0,440.5882969999766,5.0,1.0,phase_2,go,300.0,350.0,1.0,,,,,,,,,white,circle
0.0,2.0,2.0,0.0,6.0,6.0,507.77329299990015,5.0,1.0,phase_2,go,300.0,350.0,1.0,,,,,,,,,blue,I
0.0,3.0,3.0,0.0,5.0,5.0,479.6827330001179,5.0,1.0,phase_2,go,300.0,350.0,1.0,,,,,,,,,white,circle
0.0,8.0,4.0,1.0,5.0,5.0,601.8539520000559,5.0,1.0,phase_2,go,300.0,350.0,1.0,,,,,,,,,gray,diamond
0.0,8.0,4.0,1.0,6.0,6.0,527.1343429999433,5.0,1.0,phase_2,stop,300.0,350.0,3.0,,,,,,,,,gray,diamond
0.0,5.0,1.0,1.0,6.0,0.0,0.0,5.0,1.0,phase_2,stop,300.0,300.0,4.0,,,,,,,,,magenta,triangle
0.0,1.0,1.0,0.0,5.0,5.0,423.3005940000112,5.0,1.0,phase_2,go,300.0,350.0,1.0,,,,,,,,,yellow,cross
0.0,1.0,1.0,0.0,6.0,6.0,573.4691720003866,5.0,1.0,phase_2,go,300.0,350.0,1.0,,,,,,,,,yellow,cross
0.0,5.0,1.0,1.0,6.0,0.0,0.0,5.0,1.0,phase_2,stop,300.0,350.0,4.0,,,,,,,,,magenta,triangle
0.0,2.0,2.0,0.0,5.0,5.0,470.5128240002523,6.0,1.0,phase_2,go,300.0,400.0,1.0,,,,,,,,,blue,I
0.0,8.0,4.0,1.0,5.0,0.0,0.0,6.0,1.0,phase_2,stop,300.0,400.0,4.0,,,,,,,,,gray,diamond
0.0,4.0,4.0,0.0,5.0,5.0,640.7790919997751,6.0,1.0,phase_2,go,350.0,400.0,1.0,,,,,,,,,green,square
0.0,3.0,3.0,0.0,5.0,5.0,574.0769280000677,6.0,1.0,phase_2,go,350.0,400.0,1.0,,,,,,,,,white,circle
0.0,4.0,4.0,0.0,5.0,5.0,507.06984699991153,6.0,1.0,phase_2,go,350.0,400.0,1.0,,,,,,,,,green,square
0.0,1.0,1.0,0.0,6.0,6.0,555.0344600001154,6.0,1.0,phase_2,go,350.0,400.0,1.0,,,,,,,,,yellow,cross
0.0,6.0,2.0,1.0,5.0,5.0,397.8086770002846,6.0,1.0,phase_2,stop,350.0,400.0,3.0,,,,,,,,,orange,hexagon
0.0,3.0,3.0,0.0,5.0,5.0,498.6627779999253,6.0,1.0,phase_2,go,300.0,400.0,1.0,,,,,,,,,white,circle
0.0,2.0,2.0,0.0,6.0,6.0,385.1303350002126,6.0,1.0,phase_2,go,300.0,400.0,1.0,,,,,,,,,blue,I
0.0,5.0,1.0,1.0,5.0,5.0,488.1057990000954,6.0,1.0,phase_2,go,300.0,400.0,1.0,,,,,,,,,magenta,triangle
0.0,4.0,4.0,0.0,5.0,5.0,365.7345009996788,6.0,1.0,phase_2,go,300.0,400.0,1.0,,,,,,,,,green,square
0.0,2.0,2.0,0.0,6.0,6.0,451.3378780002313,6.0,1.0,phase_2,go,300.0,400.0,1.0,,,,,,,,,blue,I
0.0,3.0,3.0,0.0,5.0,5.0,600.7951469996442,6.0,1.0,phase_2,go,300.0,400.0,1.0,,,,,,,,,white,circle
0.0,5.0,1.0,1.0,6.0,6.0,435.5706209998971,6.0,1.0,phase_2,stop,300.0,400.0,3.0,,,,,,,,,magenta,triangle
0.0,1.0,1.0,0.0,5.0,5.0,497.4028940000607,6.0,1.0,phase_2,go,300.0,350.0,1.0,,,,,,,,,yellow,cross
0.0,1.0,1.0,0.0,6.0,6.0,500.1319810003224,6.0,1.0,phase_2,go,300.0,350.0,1.0,,,,,,,,,yellow,cross
0.0,6.0,2.0,1.0,5.0,5.0,644.350877999841,6.0,1.0,phase_2,go,300.0,350.0,1.0,,,,,,,,,orange,hexagon
0.0,4.0,4.0,0.0,5.0,5.0,509.8730319996321,6.0,1.0,phase_2,go,300.0,350.0,1.0,,,,,,,,,green,square
0.0,2.0,2.0,0.0,6.0,6.0,416.6181209998285,6.0,1.0,phase_2,go,300.0,350.0,1.0,,,,,,,,,blue,I
0.0,2.0,2.0,0.0,5.0,5.0,349.5986369998718,6.0,1.0,phase_2,go,300.0,350.0,1.0,,,,,,,,,blue,I
0.0,8.0,4.0,1.0,6.0,6.0,330.4936859999543,6.0,1.0,phase_2,stop,300.0,350.0,3.0,,,,,,,,,gray,diamond
0.0,4.0,4.0,0.0,5.0,5.0,432.53383199999,6.0,1.0,phase_2,go,300.0,300.0,1.0,,,,,,,,,green,square
0.0,7.0,3.0,1.0,6.0,6.0,569.4176269998934,6.0,1.0,phase_2,go,300.0,300.0,1.0,,,,,,,,,cyan,flipped triangle
0.0,3.0,3.0,0.0,5.0,5.0,408.21020400017,6.0,1.0,phase_2,go,300.0,300.0,1.0,,,,,,,,,white,circle
0.0,5.0,1.0,1.0,5.0,5.0,395.6705370001145,6.0,1.0,phase_2,stop,300.0,300.0,3.0,,,,,,,,,magenta,triangle
0.0,4.0,4.0,0.0,5.0,5.0,513.8866190000044,6.0,1.0,phase_2,go,250.0,300.0,1.0,,,,,,,,,green,square
0.0,3.0,3.0,0.0,6.0,6.0,702.1040839999841,6.0,1.0,phase_2,go,250.0,300.0,1.0,,,,,,,,,white,circle
0.0,1.0,1.0,0.0,5.0,5.0,588.0866430002243,6.0,1.0,phase_2,go,250.0,300.0,1.0,,,,,,,,,yellow,cross
0.0,7.0,3.0,1.0,5.0,5.0,360.3401760001361,6.0,1.0,phase_2,stop,250.0,300.0,3.0,,,,,,,,,cyan,flipped triangle
0.0,1.0,1.0,0.0,5.0,5.0,387.8289620001851,6.0,1.0,phase_2,go,200.0,300.0,1.0,,,,,,,,,yellow,cross
0.0,4.0,4.0,0.0,6.0,6.0,492.3412640000606,6.0,1.0,phase_2,go,200.0,300.0,1.0,,,,,,,,,green,square
0.0,6.0,2.0,1.0,6.0,6.0,417.20548100011,6.0,1.0,phase_2,stop,200.0,300.0,3.0,,,,,,,,,orange,hexagon
0.0,2.0,2.0,0.0,5.0,5.0,416.9509680000374,6.0,1.0,phase_2,go,200.0,250.0,1.0,,,,,,,,,blue,I
0.0,7.0,3.0,1.0,6.0,6.0,365.1629159999174,6.0,1.0,phase_2,stop,200.0,250.0,3.0,,,,,,,,,cyan,flipped triangle
0.0,6.0,2.0,1.0,6.0,0.0,0.0,6.0,1.0,phase_2,stop,200.0,200.0,4.0,,,,,,,,,orange,hexagon
0.0,1.0,1.0,0.0,5.0,5.0,352.4786599996332,6.0,1.0,phase_2,go,200.0,250.0,1.0,,,,,,,,,yellow,cross
0.0,2.0,2.0,0.0,5.0,5.0,366.6430709999986,7.0,1.0,phase_2,go,200.0,250.0,1.0,,,,,,,,,blue,I
0.0,5.0,1.0,1.0,6.0,0.0,0.0,7.0,1.0,phase_2,stop,200.0,250.0,4.0,,,,,,,,,magenta,triangle
0.0,6.0,2.0,1.0,5.0,0.0,0.0,7.0,1.0,phase_2,stop,200.0,300.0,4.0,,,,,,,,,orange,hexagon
0.0,4.0,4.0,0.0,6.0,6.0,658.5920990000886,7.0,1.0,phase_2,go,250.0,300.0,1.0,,,,,,,,,green,square
0.0,4.0,4.0,0.0,5.0,5.0,471.1510570000428,7.0,1.0,phase_2,go,250.0,300.0,1.0,,,,,,,,,green,square
0.0,8.0,4.0,1.0,5.0,5.0,413.703419000285,7.0,1.0,phase_2,go,250.0,300.0,1.0,,,,,,,,,gray,diamond
0.0,5.0,1.0,1.0,6.0,6.0,490.2667670003211,7.0,1.0,phase_2,stop,250.0,300.0,3.0,,,,,,,,,magenta,triangle
0.0,3.0,3.0,0.0,5.0,5.0,553.8352829998985,7.0,1.0,phase_2,go,250.0,250.0,1.0,,,,,,,,,white,circle
0.0,6.0,2.0,1.0,5.0,0.0,0.0,7.0,1.0,phase_2,stop,250.0,250.0,4.0,,,,,,,,,orange,hexagon
0.0,7.0,3.0,1.0,5.0,0.0,0.0,7.0,1.0,phase_2,stop,300.0,250.0,4.0,,,,,,,,,cyan,flipped triangle
0.0,8.0,4.0,1.0,5.0,0.0,0.0,7.0,1.0,phase_2,stop,350.0,250.0,4.0,,,,,,,,,gray,diamond
0.0,5.0,1.0,1.0,5.0,5.0,556.0444770003414,7.0,1.0,phase_2,go,400.0,250.0,1.0,,,,,,,,,magenta,triangle
0.0,5.0,1.0,1.0,6.0,0.0,0.0,7.0,1.0,phase_2,stop,400.0,250.0,4.0,,,,,,,,,magenta,triangle
0.0,8.0,4.0,1.0,5.0,5.0,376.3849050001226,7.0,1.0,phase_2,stop,400.0,300.0,3.0,,,,,,,,,gray,diamond
0.0,1.0,1.0,0.0,6.0,6.0,791.0448439997708,7.0,1.0,phase_2,go,350.0,300.0,1.0,,,,,,,,,yellow,cross
0.0,5.0,1.0,1.0,6.0,6.0,790.2135100002852,7.0,1.0,phase_2,go,350.0,300.0,1.0,,,,,,,,,magenta,triangle
0.0,8.0,4.0,1.0,5.0,5.0,386.0000339996077,7.0,1.0,phase_2,go,350.0,300.0,1.0,,,,,,,,,gray,diamond
0.0,8.0,4.0,1.0,6.0,6.0,418.4584080003333,7.0,1.0,phase_2,stop,350.0,300.0,3.0,,,,,,,,,gray,diamond
0.0,6.0,2.0,1.0,6.0,6.0,546.2281099999018,7.0,1.0,phase_2,go,350.0,250.0,1.0,,,,,,,,,orange,hexagon
0.0,8.0,4.0,1.0,5.0,5.0,545.4006270001628,7.0,1.0,phase_2,go,350.0,250.0,1.0,,,,,,,,,gray,diamond
0.0,4.0,4.0,0.0,6.0,6.0,461.0744029996567,7.0,1.0,phase_2,go,350.0,250.0,1.0,,,,,,,,,green,square
0.0,6.0,2.0,1.0,5.0,5.0,463.648977000048,7.0,1.0,phase_2,stop,350.0,250.0,3.0,,,,,,,,,orange,hexagon
0.0,1.0,1.0,0.0,6.0,6.0,630.4340109995792,7.0,1.0,phase_2,go,300.0,250.0,1.0,,,,,,,,,yellow,cross
0.0,8.0,4.0,1.0,5.0,0.0,0.0,7.0,1.0,phase_2,stop,300.0,250.0,4.0,,,,,,,,,gray,diamond
0.0,8.0,4.0,1.0,5.0,0.0,0.0,7.0,1.0,phase_2,stop,350.0,250.0,4.0,,,,,,,,,gray,diamond
0.0,8.0,4.0,1.0,5.0,5.0,884.454764000111,7.0,1.0,phase_2,go,400.0,250.0,1.0,,,,,,,,,gray,diamond
0.0,7.0,3.0,1.0,6.0,6.0,565.3030819999003,7.0,1.0,phase_2,go,400.0,250.0,1.0,,,,,,,,,cyan,flipped triangle
0.0,7.0,3.0,1.0,5.0,5.0,489.8351080000793,7.0,1.0,phase_2,go,400.0,250.0,1.0,,,,,,,,,cyan,flipped triangle
0.0,1.0,1.0,0.0,5.0,5.0,479.3637080001645,7.0,1.0,phase_2,go,400.0,250.0,1.0,,,,,,,,,yellow,cross
0.0,3.0,3.0,0.0,5.0,5.0,444.9359589998494,7.0,1.0,phase_2,go,400.0,250.0,1.0,,,,,,,,,white,circle
0.0,4.0,4.0,0.0,6.0,6.0,489.9100959996758,7.0,1.0,phase_2,go,400.0,250.0,1.0,,,,,,,,,green,square
0.0,8.0,4.0,1.0,6.0,6.0,431.0041889998501,7.0,1.0,phase_2,stop,400.0,250.0,3.0,,,,,,,,,gray,diamond
0.0,5.0,1.0,1.0,5.0,5.0,650.2577419996669,7.0,1.0,phase_2,go,400.0,200.0,1.0,,,,,,,,,magenta,triangle
0.0,5.0,1.0,1.0,6.0,0.0,0.0,7.0,1.0,phase_2,stop,400.0,200.0,4.0,,,,,,,,,magenta,triangle
0.0,7.0,3.0,1.0,5.0,5.0,573.6954349999905,7.0,1.0,phase_2,stop,400.0,250.0,3.0,,,,,,,,,cyan,flipped triangle
0.0,6.0,2.0,1.0,5.0,0.0,0.0,7.0,1.0,phase_2,stop,350.0,250.0,4.0,,,,,,,,,orange,hexagon
0.0,3.0,3.0,0.0,6.0,6.0,348.5693689999607,8.0,1.0,phase_2,go,400.0,250.0,1.0,,,,,,,,,white,circle
0.0,7.0,3.0,1.0,5.0,5.0,578.3285640000031,8.0,1.0,phase_2,stop,400.0,250.0,3.0,,,,,,,,,cyan,flipped triangle
0.0,1.0,1.0,0.0,6.0,6.0,612.063661999855,8.0,1.0,phase_2,go,350.0,250.0,1.0,,,,,,,,,yellow,cross
0.0,6.0,2.0,1.0,6.0,0.0,0.0,8.0,1.0,phase_2,stop,350.0,250.0,4.0,,,,,,,,,orange,hexagon
0.0,6.0,2.0,1.0,6.0,0.0,0.0,8.0,1.0,phase_2,stop,350.0,300.0,4.0,,,,,,,,,orange,hexagon
0.0,7.0,3.0,1.0,6.0,6.0,537.8171190000103,8.0,1.0,phase_2,go,350.0,350.0,1.0,,,,,,,,,cyan,flipped triangle
0.0,1.0,1.0,0.0,5.0,5.0,537.2900039997148,8.0,1.0,phase_2,go,350.0,350.0,1.0,,,,,,,,,yellow,cross
0.0,1.0,1.0,0.0,6.0,6.0,592.790414999854,8.0,1.0,phase_2,go,350.0,350.0,1.0,,,,,,,,,yellow,cross
0.0,3.0,3.0,0.0,5.0,5.0,526.4997819999735,8.0,1.0,phase_2,go,350.0,350.0,1.0,,,,,,,,,white,circle
0.0,3.0,3.0,0.0,6.0,6.0,704.9066949998632,8.0,1.0,phase_2,go,350.0,350.0,1.0,,,,,,,,,white,circle
0.0,1.0,1.0,0.0,6.0,6.0,600.9396489998835,8.0,1.0,phase_2,go,350.0,350.0,1.0,,,,,,,,,yellow,cross
0.0,2.0,2.0,0.0,5.0,5.0,492.9272809999929,8.0,1.0,phase_2,go,350.0,350.0,1.0,,,,,,,,,blue,I
0.0,5.0,1.0,1.0,5.0,5.0,541.6280980002739,8.0,1.0,phase_2,stop,350.0,350.0,3.0,,,,,,,,,magenta,triangle
0.0,4.0,4.0,0.0,6.0,6.0,593.3473380000578,8.0,1.0,phase_2,go,300.0,350.0,1.0,,,,,,,,,green,square
0.0,4.0,4.0,0.0,6.0,6.0,612.054113999875,8.0,1.0,phase_2,go,300.0,350.0,1.0,,,,,,,,,green,square
0.0,7.0,3.0,1.0,5.0,0.0,0.0,8.0,1.0,phase_2,stop,300.0,350.0,4.0,,,,,,,,,cyan,flipped triangle
0.0,2.0,2.0,0.0,6.0,6.0,432.4606899999708,8.0,1.0,phase_2,go,350.0,350.0,1.0,,,,,,,,,blue,I
0.0,6.0,2.0,1.0,6.0,0.0,0.0,8.0,1.0,phase_2,stop,350.0,350.0,4.0,,,,,,,,,orange,hexagon
0.0,1.0,1.0,0.0,6.0,6.0,667.0061099998748,8.0,1.0,phase_2,go,350.0,400.0,1.0,,,,,,,,,yellow,cross
0.0,5.0,1.0,1.0,6.0,0.0,0.0,8.0,1.0,phase_2,stop,350.0,400.0,4.0,,,,,,,,,magenta,triangle
0.0,3.0,3.0,0.0,6.0,6.0,649.0612540001166,8.0,1.0,phase_2,go,350.0,450.0,1.0,,,,,,,,,white,circle
0.0,2.0,2.0,0.0,5.0,5.0,725.8345199998075,8.0,1.0,phase_2,go,350.0,450.0,1.0,,,,,,,,,blue,I
0.0,5.0,1.0,1.0,5.0,0.0,0.0,8.0,1.0,phase_2,stop,350.0,450.0,4.0,,,,,,,,,magenta,triangle
0.0,5.0,1.0,1.0,6.0,0.0,0.0,8.0,1.0,phase_2,stop,400.0,450.0,4.0,,,,,,,,,magenta,triangle
0.0,5.0,1.0,1.0,6.0,6.0,641.3865879999321,8.0,1.0,phase_2,stop,400.0,500.0,3.0,,,,,,,,,magenta,triangle
0.0,4.0,4.0,0.0,6.0,6.0,826.7225559998224,8.0,1.0,phase_2,go,400.0,450.0,1.0,,,,,,,,,green,square
0.0,2.0,2.0,0.0,6.0,6.0,741.9322060000013,8.0,1.0,phase_2,go,400.0,450.0,1.0,,,,,,,,,blue,I
0.0,6.0,2.0,1.0,6.0,6.0,752.5358719999531,8.0,1.0,phase_2,go,400.0,450.0,1.0,,,,,,,,,orange,hexagon
0.0,8.0,4.0,1.0,5.0,0.0,0.0,8.0,1.0,phase_2,stop,400.0,450.0,4.0,,,,,,,,,gray,diamond
0.0,1.0,1.0,0.0,5.0,5.0,714.7118570001112,8.0,1.0,phase_2,go,450.0,450.0,1.0,,,,,,,,,yellow,cross
0.0,6.0,2.0,1.0,5.0,0.0,0.0,8.0,1.0,phase_2,stop,450.0,450.0,4.0,,,,,,,,,orange,hexagon
0.0,2.0,2.0,0.0,5.0,5.0,602.9763629999252,8.0,1.0,phase_2,go,500.0,450.0,1.0,,,,,,,,,blue,I
0.0,3.0,3.0,0.0,5.0,5.0,535.9693139998853,8.0,1.0,phase_2,go,500.0,450.0,1.0,,,,,,,,,white,circle
0.0,8.0,4.0,1.0,5.0,5.0,648.1540479999239,8.0,1.0,phase_2,stop,500.0,450.0,3.0,,,,,,,,,gray,diamond
0.0,6.0,2.0,1.0,6.0,0.0,0.0,8.0,1.0,phase_2,stop,450.0,450.0,4.0,,,,,,,,,orange,hexagon
0.0,8.0,4.0,1.0,6.0,6.0,591.5203380000094,8.0,1.0,phase_2,stop,450.0,500.0,3.0,,,,,,,,,gray,diamond
0.0,4.0,4.0,0.0,7.0,3.0,2628.608711999732,1.0,2.0,phase_3,,,,,384.0,2.0,192.0,768.0,384.0,1152.0,576.0,960.0,green,square
0.0,1.0,1.0,0.0,7.0,4.0,1530.0106380000216,1.0,1.0,phase_3,,,,,232.0,2.0,696.0,464.0,580.0,232.0,348.0,116.0,yellow,cross
0.0,8.0,4.0,1.0,7.0,1.0,3708.9215850000974,1.0,1.0,phase_3,,,,,464.0,4.0,464.0,348.0,232.0,116.0,580.0,696.0,gray,diamond
0.0,7.0,3.0,1.0,7.0,6.0,3032.3321780006154,1.0,1.0,phase_3,,,,,173.0,1.0,692.0,865.0,1038.0,519.0,346.0,173.0,cyan,flipped triangle
0.0,6.0,2.0,1.0,7.0,5.0,2282.052732000011,1.0,1.0,phase_3,,,,,540.0,4.0,135.0,675.0,810.0,405.0,540.0,270.0,orange,hexagon
0.0,3.0,3.0,0.0,7.0,2.0,940.5170950003594,1.0,1.0,phase_3,,,,,865.0,5.0,1038.0,865.0,692.0,346.0,519.0,173.0,white,circle
0.0,7.0,3.0,1.0,7.0,6.0,1901.4255070005677,1.0,1.0,phase_3,,,,,464.0,4.0,696.0,580.0,232.0,348.0,116.0,464.0,cyan,flipped triangle
0.0,4.0,4.0,0.0,7.0,4.0,1921.734511000068,1.0,1.0,phase_3,,,,,1152.0,6.0,576.0,192.0,960.0,1152.0,768.0,384.0,green,square
0.0,1.0,1.0,0.0,7.0,4.0,1842.7752079996933,1.0,1.0,phase_3,,,,,960.0,5.0,384.0,1152.0,768.0,960.0,192.0,576.0,yellow,cross
0.0,4.0,4.0,0.0,7.0,1.0,1956.079934000627,1.0,1.0,phase_3,,,,,135.0,1.0,135.0,540.0,405.0,675.0,810.0,270.0,green,square
0.0,8.0,4.0,1.0,7.0,2.0,988.281189999725,1.0,1.0,phase_3,,,,,405.0,3.0,270.0,405.0,135.0,675.0,540.0,810.0,gray,diamond
0.0,2.0,2.0,0.0,7.0,3.0,558.7073920005423,1.0,1.0,phase_3,,,,,348.0,3.0,580.0,696.0,348.0,232.0,464.0,116.0,blue,I
0.0,4.0,4.0,0.0,7.0,4.0,0.2671230004125,1.0,1.0,phase_3,,,,,348.0,3.0,580.0,232.0,116.0,348.0,696.0,464.0,green,square
0.0,5.0,1.0,1.0,7.0,5.0,651.0815230003573,1.0,1.0,phase_3,,,,,462.0,3.0,308.0,154.0,616.0,770.0,462.0,924.0,magenta,triangle
0.0,8.0,4.0,1.0,7.0,6.0,745.1533220000783,1.0,1.0,phase_3,,,,,924.0,6.0,154.0,770.0,308.0,462.0,616.0,924.0,gray,diamond
0.0,1.0,1.0,0.0,7.0,2.0,1794.5652349999364,1.0,1.0,phase_3,,,,,173.0,1.0,865.0,173.0,692.0,346.0,1038.0,519.0,yellow,cross
0.0,6.0,2.0,1.0,7.0,4.0,1523.3681870004148,1.0,1.0,phase_3,,,,,580.0,5.0,464.0,232.0,116.0,580.0,696.0,348.0,orange,hexagon
0.0,4.0,4.0,0.0,7.0,2.0,1315.829655000016,1.0,1.0,phase_3,,,,,540.0,4.0,405.0,540.0,135.0,675.0,270.0,810.0,green,square
0.0,2.0,2.0,0.0,7.0,5.0,1043.908346000535,1.0,1.0,phase_3,,,,,464.0,4.0,580.0,696.0,348.0,232.0,464.0,116.0,blue,I
0.0,5.0,1.0,1.0,7.0,4.0,951.9950069998232,1.0,1.0,phase_3,,,,,232.0,2.0,348.0,580.0,116.0,232.0,464.0,696.0,magenta,triangle
0.0,7.0,3.0,1.0,7.0,5.0,756.3131610004348,2.0,1.0,phase_3,,,,,462.0,3.0,154.0,924.0,308.0,616.0,462.0,770.0,cyan,flipped triangle
0.0,6.0,2.0,1.0,7.0,5.0,2061.374042999887,2.0,1.0,phase_3,,,,,770.0,5.0,462.0,154.0,616.0,308.0,770.0,924.0,orange,hexagon
0.0,6.0,2.0,1.0,7.0,2.0,1718.662291000328,2.0,1.0,phase_3,,,,,1152.0,6.0,960.0,1152.0,192.0,576.0,384.0,768.0,orange,hexagon
0.0,5.0,1.0,1.0,7.0,3.0,2247.5917860001573,2.0,1.0,phase_3,,,,,192.0,1.0,960.0,384.0,192.0,576.0,768.0,1152.0,magenta,triangle
0.0,6.0,2.0,1.0,7.0,2.0,1838.2877880003437,2.0,1.0,phase_3,,,,,770.0,5.0,616.0,770.0,154.0,924.0,308.0,462.0,orange,hexagon
0.0,7.0,3.0,1.0,7.0,1.0,1763.1017710000378,2.0,1.0,phase_3,,,,,192.0,1.0,192.0,960.0,576.0,1152.0,768.0,384.0,cyan,flipped triangle
0.0,3.0,3.0,0.0,7.0,6.0,1333.073195999532,2.0,1.0,phase_3,,,,,116.0,1.0,464.0,696.0,348.0,580.0,232.0,116.0,white,circle
0.0,6.0,2.0,1.0,7.0,4.0,1447.578356000122,2.0,1.0,phase_3,,,,,1038.0,6.0,865.0,519.0,346.0,1038.0,173.0,692.0,orange,hexagon
0.0,4.0,4.0,0.0,7.0,2.0,1350.3212770001485,2.0,1.0,phase_3,,,,,462.0,3.0,770.0,462.0,616.0,924.0,154.0,308.0,green,square
0.0,3.0,3.0,0.0,7.0,2.0,1204.1122500004349,2.0,1.0,phase_3,,,,,116.0,1.0,696.0,116.0,232.0,580.0,464.0,348.0,white,circle
0.0,8.0,4.0,1.0,7.0,1.0,2024.1013670001848,2.0,1.0,phase_3,,,,,576.0,3.0,576.0,768.0,192.0,960.0,1152.0,384.0,gray,diamond
0.0,2.0,2.0,0.0,7.0,5.0,1612.3489229994448,2.0,1.0,phase_3,,,,,865.0,5.0,519.0,1038.0,346.0,173.0,865.0,692.0,blue,I
0.0,1.0,1.0,0.0,7.0,4.0,1644.9603099999877,2.0,1.0,phase_3,,,,,768.0,4.0,384.0,960.0,1152.0,768.0,576.0,192.0,yellow,cross
0.0,7.0,3.0,1.0,7.0,5.0,1409.6009130007587,2.0,1.0,phase_3,,,,,135.0,1.0,810.0,540.0,270.0,405.0,135.0,675.0,cyan,flipped triangle
0.0,8.0,4.0,1.0,7.0,2.0,1911.4079979999588,2.0,1.0,phase_3,,,,,173.0,1.0,519.0,173.0,692.0,1038.0,346.0,865.0,gray,diamond
0.0,5.0,1.0,1.0,7.0,6.0,1736.6924650004876,2.0,1.0,phase_3,,,,,232.0,2.0,580.0,696.0,348.0,116.0,464.0,232.0,magenta,triangle
0.0,2.0,2.0,0.0,7.0,5.0,1466.2267989997415,2.0,1.0,phase_3,,,,,576.0,3.0,384.0,192.0,1152.0,768.0,576.0,960.0,blue,I
0.0,4.0,4.0,0.0,7.0,5.0,1802.838122999674,2.0,1.0,phase_3,,,,,308.0,2.0,462.0,770.0,924.0,154.0,308.0,616.0,green,square
0.0,6.0,2.0,1.0,7.0,2.0,1026.6291530006129,2.0,1.0,phase_3,,,,,1038.0,6.0,346.0,1038.0,865.0,519.0,173.0,692.0,orange,hexagon
0.0,8.0,4.0,1.0,7.0,6.0,1355.150904999391,2.0,1.0,phase_3,,,,,519.0,3.0,692.0,865.0,173.0,1038.0,346.0,519.0,gray,diamond
0.0,2.0,2.0,0.0,7.0,6.0,2369.710992000364,3.0,1.0,phase_3,,,,,192.0,1.0,384.0,576.0,960.0,1152.0,768.0,192.0,blue,I
0.0,4.0,4.0,0.0,7.0,2.0,1092.276657000184,3.0,1.0,phase_3,,,,,173.0,1.0,519.0,173.0,1038.0,865.0,346.0,692.0,green,square
0.0,3.0,3.0,0.0,7.0,3.0,2052.729322000232,3.0,1.0,phase_3,,,,,192.0,1.0,960.0,384.0,192.0,576.0,768.0,1152.0,white,circle
0.0,3.0,3.0,0.0,7.0,6.0,1978.7084940007844,3.0,1.0,phase_3,,,,,192.0,1.0,1152.0,576.0,960.0,768.0,384.0,192.0,white,circle
0.0,5.0,1.0,1.0,7.0,4.0,2105.438929999764,3.0,1.0,phase_3,,,,,346.0,2.0,865.0,519.0,692.0,346.0,173.0,1038.0,magenta,triangle
0.0,5.0,1.0,1.0,7.0,4.0,2337.2250370002803,3.0,1.0,phase_3,,,,,540.0,4.0,270.0,810.0,675.0,540.0,405.0,135.0,magenta,triangle
0.0,3.0,3.0,0.0,7.0,6.0,1265.7544089997828,3.0,1.0,phase_3,,,,,173.0,1.0,1038.0,865.0,519.0,346.0,692.0,173.0,white,circle
0.0,6.0,2.0,1.0,7.0,6.0,1195.970214999761,3.0,1.0,phase_3,,,,,1152.0,6.0,960.0,192.0,384.0,576.0,768.0,1152.0,orange,hexagon
0.0,2.0,2.0,0.0,7.0,1.0,2062.214223999945,3.0,1.0,phase_3,,,,,270.0,2.0,270.0,540.0,135.0,810.0,675.0,405.0,blue,I
0.0,6.0,2.0,1.0,7.0,6.0,3200.77480100008,3.0,1.0,phase_3,,,,,675.0,5.0,405.0,270.0,810.0,540.0,135.0,675.0,orange,hexagon
0.0,7.0,3.0,1.0,7.0,6.0,2766.869876999408,3.0,1.0,phase_3,,,,,348.0,3.0,116.0,580.0,232.0,696.0,464.0,348.0,cyan,flipped triangle
0.0,8.0,4.0,1.0,7.0,2.0,2099.275235999812,3.0,1.0,phase_3,,,,,348.0,3.0,116.0,348.0,696.0,464.0,580.0,232.0,gray,diamond
0.0,2.0,2.0,0.0,7.0,2.0,1363.861953000196,3.0,1.0,phase_3,,,,,405.0,3.0,540.0,405.0,675.0,810.0,135.0,270.0,blue,I
0.0,1.0,1.0,0.0,7.0,4.0,1768.8274749998527,3.0,1.0,phase_3,,,,,580.0,5.0,232.0,464.0,348.0,580.0,116.0,696.0,yellow,cross
0.0,5.0,1.0,1.0,7.0,1.0,2292.8403109999635,3.0,1.0,phase_3,,,,,960.0,5.0,960.0,768.0,1152.0,384.0,576.0,192.0,magenta,triangle
0.0,7.0,3.0,1.0,7.0,5.0,1437.0749149993571,3.0,1.0,phase_3,,,,,770.0,5.0,616.0,462.0,154.0,924.0,770.0,308.0,cyan,flipped triangle
0.0,3.0,3.0,0.0,7.0,1.0,1896.9577349998872,3.0,1.0,phase_3,,,,,154.0,1.0,154.0,770.0,924.0,616.0,462.0,308.0,white,circle
0.0,4.0,4.0,0.0,7.0,5.0,1700.7830570000806,3.0,1.0,phase_3,,,,,346.0,2.0,865.0,692.0,173.0,519.0,346.0,1038.0,green,square
0.0,3.0,3.0,0.0,7.0,1.0,1456.8012579993592,3.0,1.0,phase_3,,,,,154.0,1.0,154.0,308.0,616.0,462.0,924.0,770.0,white,circle
0.0,8.0,4.0,1.0,7.0,6.0,1378.038008000658,3.0,1.0,phase_3,,,,,810.0,6.0,135.0,675.0,405.0,270.0,540.0,810.0,gray,diamond
0.0,1.0,1.0,0.0,7.0,5.0,1290.939148999314,4.0,1.0,phase_3,,,,,675.0,5.0,540.0,135.0,270.0,810.0,675.0,405.0,yellow,cross
0.0,1.0,1.0,0.0,7.0,3.0,2157.170370000131,4.0,1.0,phase_3,,,,,519.0,3.0,865.0,692.0,519.0,346.0,173.0,1038.0,yellow,cross
0.0,7.0,3.0,1.0,7.0,3.0,2354.131406000306,4.0,1.0,phase_3,,,,,384.0,2.0,768.0,192.0,384.0,960.0,1152.0,576.0,cyan,flipped triangle
0.0,3.0,3.0,0.0,7.0,1.0,1558.7805969998954,4.0,1.0,phase_3,,,,,135.0,1.0,135.0,675.0,540.0,405.0,270.0,810.0,white,circle
0.0,6.0,2.0,1.0,7.0,4.0,2311.697555000137,4.0,1.0,phase_3,,,,,696.0,6.0,464.0,232.0,348.0,696.0,580.0,116.0,orange,hexagon
0.0,8.0,4.0,1.0,7.0,2.0,2214.9297510004544,4.0,1.0,phase_3,,,,,924.0,6.0,154.0,924.0,308.0,616.0,462.0,770.0,gray,diamond
0.0,1.0,1.0,0.0,7.0,4.0,1903.2395760004877,4.0,1.0,phase_3,,,,,270.0,2.0,540.0,810.0,135.0,270.0,405.0,675.0,yellow,cross
0.0,4.0,4.0,0.0,7.0,5.0,1102.404741999635,4.0,1.0,phase_3,,,,,464.0,4.0,116.0,580.0,696.0,348.0,464.0,232.0,green,square
0.0,8.0,4.0,1.0,7.0,3.0,1354.8783440000989,4.0,1.0,phase_3,,,,,384.0,2.0,576.0,192.0,384.0,1152.0,768.0,960.0,gray,diamond
0.0,2.0,2.0,0.0,7.0,2.0,1006.662765999863,4.0,1.0,phase_3,,,,,519.0,3.0,1038.0,519.0,692.0,865.0,346.0,173.0,blue,I
0.0,5.0,1.0,1.0,7.0,5.0,1305.9596940001938,4.0,1.0,phase_3,,,,,462.0,3.0,770.0,616.0,308.0,154.0,462.0,924.0,magenta,triangle
0.0,5.0,1.0,1.0,7.0,5.0,1902.1901400001295,4.0,1.0,phase_3,,,,,270.0,2.0,405.0,135.0,675.0,540.0,270.0,810.0,magenta,triangle
0.0,1.0,1.0,0.0,7.0,4.0,1556.4963599999828,4.0,1.0,phase_3,,,,,462.0,3.0,616.0,308.0,924.0,462.0,154.0,770.0,yellow,cross
0.0,2.0,2.0,0.0,7.0,2.0,1060.04667399975,4.0,1.0,phase_3,,,,,308.0,2.0,462.0,308.0,770.0,154.0,924.0,616.0,blue,I
0.0,7.0,3.0,1.0,7.0,5.0,1052.051935000236,4.0,1.0,phase_3,,,,,135.0,1.0,405.0,270.0,540.0,810.0,135.0,675.0,cyan,flipped triangle
0.0,3.0,3.0,0.0,7.0,2.0,1296.87261700019,4.0,1.0,phase_3,,,,,135.0,1.0,405.0,135.0,540.0,675.0,270.0,810.0,white,circle
0.0,7.0,3.0,1.0,7.0,3.0,1043.7485190004736,4.0,1.0,phase_3,,,,,346.0,2.0,173.0,519.0,346.0,692.0,1038.0,865.0,cyan,flipped triangle
0.0,1.0,1.0,0.0,7.0,4.0,1017.7661190000435,4.0,1.0,phase_3,,,,,308.0,2.0,154.0,770.0,616.0,308.0,462.0,924.0,yellow,cross
0.0,5.0,1.0,1.0,7.0,6.0,801.85055200036,4.0,1.0,phase_3,,,,,346.0,2.0,865.0,1038.0,692.0,519.0,173.0,346.0,magenta,triangle
0.0,2.0,2.0,0.0,7.0,6.0,905.9629049997966,4.0,1.0,phase_3,,,,,308.0,2.0,924.0,154.0,770.0,462.0,616.0,308.0,blue,I
