raw_reward_magnitude,stim_reward,stepwise_reward_magnitude,paired_with_stopping,stim_location,response,reaction_time,block,num_trial_presentations,which_phase,stop_signal_trial_type,left_SSD,right_SSD,accuracy,chosen_bidding_amount,chosen_bidding_level,possible_bid_1,possible_bid_2,possible_bid_3,possible_bid_4,possible_bid_5,possible_bid_6,color_text,shape_text
0.0,7.0,0.0,1.0,3.0,3.0,432.8409940001165,1.0,1.0,phase_1,,,,,,,,,,,,,blue,circle
672.0,7.0,2.0,1.0,3.0,3.0,406.4631850001206,1.0,2.0,phase_1,,,,,,,,,,,,,blue,circle
659.0,3.0,2.0,0.0,2.0,2.0,545.6519499998649,1.0,1.0,phase_1,,,,,,,,,,,,,yellow,hexagon
182.0,1.0,0.5,0.0,1.0,1.0,442.4179899999672,1.0,1.0,phase_1,,,,,,,,,,,,,green,square
321.0,2.0,1.0,0.0,4.0,4.0,425.1985969999623,1.0,1.0,phase_1,,,,,,,,,,,,,white,triangle
325.0,2.0,1.0,0.0,1.0,1.0,396.2474310001198,1.0,1.0,phase_1,,,,,,,,,,,,,white,triangle
626.0,7.0,2.0,1.0,4.0,4.0,405.8852669998032,1.0,1.0,phase_1,,,,,,,,,,,,,blue,circle
646.0,7.0,2.0,1.0,1.0,1.0,377.9207149998456,1.0,1.0,phase_1,,,,,,,,,,,,,blue,circle
166.0,5.0,0.5,1.0,3.0,3.0,342.0394990000659,1.0,1.0,phase_1,,,,,,,,,,,,,orange,diamond
0.0,8.0,0.0,1.0,1.0,1.0,361.3724599999841,1.0,1.0,phase_1,,,,,,,,,,,,,cyan,I
0.0,8.0,0.0,1.0,2.0,2.0,396.509358000003,1.0,1.0,phase_1,,,,,,,,,,,,,cyan,I
345.0,2.0,1.0,0.0,1.0,1.0,471.017798000048,1.0,1.0,phase_1,,,,,,,,,,,,,white,triangle
1283.0,4.0,4.0,0.0,1.0,1.0,966.5967770001772,1.0,1.0,phase_1,,,,,,,,,,,,,gray,flipped triangle
307.0,2.0,1.0,0.0,3.0,3.0,387.5841169999603,1.0,1.0,phase_1,,,,,,,,,,,,,white,triangle
1287.0,8.0,4.0,1.0,1.0,1.0,470.0156239998705,1.0,1.0,phase_1,,,,,,,,,,,,,cyan,I
172.0,5.0,0.5,1.0,2.0,2.0,506.1066580001352,1.0,1.0,phase_1,,,,,,,,,,,,,orange,diamond
0.0,1.0,0.0,0.0,3.0,3.0,398.9458680000552,1.0,1.0,phase_1,,,,,,,,,,,,,green,square
1318.0,4.0,4.0,0.0,3.0,3.0,442.318301999876,1.0,1.0,phase_1,,,,,,,,,,,,,gray,flipped triangle
1282.0,4.0,4.0,0.0,2.0,2.0,525.4420279998158,1.0,1.0,phase_1,,,,,,,,,,,,,gray,flipped triangle
149.0,5.0,0.5,1.0,1.0,1.0,623.1437710000591,1.0,1.0,phase_1,,,,,,,,,,,,,orange,diamond
0.0,8.0,0.0,1.0,2.0,2.0,368.1548829999883,1.0,1.0,phase_1,,,,,,,,,,,,,cyan,I
0.0,3.0,0.0,0.0,4.0,4.0,597.3898969998572,1.0,1.0,phase_1,,,,,,,,,,,,,yellow,hexagon
138.0,5.0,0.5,1.0,4.0,4.0,441.7608500000369,1.0,1.0,phase_1,,,,,,,,,,,,,orange,diamond
147.0,1.0,0.5,0.0,1.0,1.0,459.9550929999623,1.0,3.0,phase_1,,,,,,,,,,,,,green,square
0.0,7.0,0.0,1.0,2.0,2.0,583.3249729998897,1.0,1.0,phase_1,,,,,,,,,,,,,blue,circle
315.0,6.0,1.0,1.0,2.0,2.0,683.0408859998442,1.0,1.0,phase_1,,,,,,,,,,,,,magenta,cross
0.0,4.0,0.0,0.0,1.0,1.0,515.98544400008,1.0,1.0,phase_1,,,,,,,,,,,,,gray,flipped triangle
1308.0,4.0,4.0,0.0,4.0,4.0,534.0672249999443,1.0,1.0,phase_1,,,,,,,,,,,,,gray,flipped triangle
0.0,6.0,0.0,1.0,3.0,3.0,346.7500720000771,1.0,1.0,phase_1,,,,,,,,,,,,,magenta,cross
137.0,5.0,0.5,1.0,3.0,3.0,551.5864639999108,1.0,1.0,phase_1,,,,,,,,,,,,,orange,diamond
336.0,2.0,1.0,0.0,4.0,4.0,350.6769260000055,1.0,1.0,phase_1,,,,,,,,,,,,,white,triangle
305.0,2.0,1.0,0.0,3.0,3.0,294.8835080001117,1.0,1.0,phase_1,,,,,,,,,,,,,white,triangle
0.0,6.0,0.0,1.0,2.0,2.0,314.3270210000537,1.0,1.0,phase_1,,,,,,,,,,,,,magenta,cross
319.0,6.0,1.0,1.0,3.0,3.0,369.2677180001738,1.0,1.0,phase_1,,,,,,,,,,,,,magenta,cross
345.0,2.0,1.0,0.0,2.0,2.0,435.5629290000706,1.0,1.0,phase_1,,,,,,,,,,,,,white,triangle
0.0,5.0,0.0,1.0,4.0,4.0,377.8870650000954,1.0,1.0,phase_1,,,,,,,,,,,,,orange,diamond
329.0,6.0,1.0,1.0,4.0,4.0,322.733271000061,1.0,1.0,phase_1,,,,,,,,,,,,,magenta,cross
321.0,6.0,1.0,1.0,2.0,2.0,286.3642099998742,1.0,1.0,phase_1,,,,,,,,,,,,,magenta,cross
0.0,2.0,0.0,0.0,3.0,3.0,258.9456059999975,1.0,1.0,phase_1,,,,,,,,,,,,,white,triangle
667.0,3.0,2.0,0.0,2.0,2.0,406.253611000011,1.0,1.0,phase_1,,,,,,,,,,,,,yellow,hexagon
177.0,5.0,0.5,1.0,1.0,1.0,517.1507120001024,1.0,1.0,phase_1,,,,,,,,,,,,,orange,diamond
169.0,5.0,0.5,1.0,3.0,3.0,571.0656699998253,1.0,1.0,phase_1,,,,,,,,,,,,,orange,diamond
0.0,2.0,0.0,0.0,1.0,1.0,341.3405190001413,1.0,1.0,phase_1,,,,,,,,,,,,,white,triangle
1283.0,8.0,4.0,1.0,3.0,3.0,240.1078230000166,1.0,1.0,phase_1,,,,,,,,,,,,,cyan,I
313.0,6.0,1.0,1.0,3.0,3.0,380.5252370000289,1.0,1.0,phase_1,,,,,,,,,,,,,magenta,cross
158.0,5.0,0.5,1.0,1.0,1.0,414.4447609999133,1.0,1.0,phase_1,,,,,,,,,,,,,orange,diamond
668.0,7.0,2.0,1.0,2.0,2.0,413.0119269998431,1.0,1.0,phase_1,,,,,,,,,,,,,blue,circle
1320.0,4.0,4.0,0.0,1.0,1.0,340.2809770000203,1.0,1.0,phase_1,,,,,,,,,,,,,gray,flipped triangle
169.0,1.0,0.5,0.0,3.0,3.0,367.6574940000137,1.0,1.0,phase_1,,,,,,,,,,,,,green,square
304.0,6.0,1.0,1.0,1.0,1.0,340.9570930000427,1.0,1.0,phase_1,,,,,,,,,,,,,magenta,cross
313.0,2.0,1.0,0.0,4.0,4.0,405.1431479999792,1.0,1.0,phase_1,,,,,,,,,,,,,white,triangle
653.0,3.0,2.0,0.0,1.0,1.0,367.4698339998485,1.0,1.0,phase_1,,,,,,,,,,,,,yellow,hexagon
319.0,2.0,1.0,0.0,1.0,1.0,451.521294000031,1.0,1.0,phase_1,,,,,,,,,,,,,white,triangle
316.0,6.0,1.0,1.0,3.0,3.0,441.176261999999,1.0,1.0,phase_1,,,,,,,,,,,,,magenta,cross
670.0,3.0,2.0,0.0,1.0,1.0,378.4660930000427,1.0,1.0,phase_1,,,,,,,,,,,,,yellow,hexagon
0.0,5.0,0.0,1.0,1.0,1.0,762.2905680000258,1.0,1.0,phase_1,,,,,,,,,,,,,orange,diamond
166.0,1.0,0.5,0.0,1.0,1.0,562.0935790000203,1.0,1.0,phase_1,,,,,,,,,,,,,green,square
149.0,5.0,0.5,1.0,1.0,1.0,782.5508999999329,1.0,1.0,phase_1,,,,,,,,,,,,,orange,diamond
642.0,7.0,2.0,1.0,4.0,4.0,323.74959699996,1.0,1.0,phase_1,,,,,,,,,,,,,blue,circle
1313.0,8.0,4.0,1.0,4.0,4.0,561.7710799999713,1.0,1.0,phase_1,,,,,,,,,,,,,cyan,I
325.0,2.0,1.0,0.0,2.0,2.0,349.0201259999139,1.0,1.0,phase_1,,,,,,,,,,,,,white,triangle
159.0,1.0,0.5,0.0,4.0,4.0,488.5603400000491,1.0,1.0,phase_1,,,,,,,,,,,,,green,square
0.0,3.0,0.0,0.0,1.0,1.0,303.8178950000656,1.0,2.0,phase_1,,,,,,,,,,,,,yellow,hexagon
672.0,3.0,2.0,0.0,1.0,1.0,478.4469729997909,1.0,1.0,phase_1,,,,,,,,,,,,,yellow,hexagon
152.0,5.0,0.5,1.0,1.0,1.0,452.2187200000189,1.0,1.0,phase_1,,,,,,,,,,,,,orange,diamond
163.0,1.0,0.5,0.0,2.0,2.0,395.8163299998887,1.0,1.0,phase_1,,,,,,,,,,,,,green,square
633.0,3.0,2.0,0.0,3.0,3.0,378.4366479999335,1.0,1.0,phase_1,,,,,,,,,,,,,yellow,hexagon
1296.0,8.0,4.0,1.0,2.0,2.0,322.6603949999571,1.0,1.0,phase_1,,,,,,,,,,,,,cyan,I
178.0,5.0,0.5,1.0,1.0,1.0,349.7435940000741,1.0,1.0,phase_1,,,,,,,,,,,,,orange,diamond
1323.0,8.0,4.0,1.0,3.0,3.0,314.4080239999312,1.0,1.0,phase_1,,,,,,,,,,,,,cyan,I
305.0,6.0,1.0,1.0,2.0,2.0,305.0029930000164,1.0,1.0,phase_1,,,,,,,,,,,,,magenta,cross
1308.0,8.0,4.0,1.0,2.0,2.0,323.4070779999456,1.0,1.0,phase_1,,,,,,,,,,,,,cyan,I
0.0,6.0,0.0,1.0,4.0,4.0,413.270447000059,1.0,1.0,phase_1,,,,,,,,,,,,,magenta,cross
313.0,2.0,1.0,0.0,3.0,3.0,469.2183720001139,1.0,1.0,phase_1,,,,,,,,,,,,,white,triangle
147.0,5.0,0.5,1.0,4.0,4.0,331.6437690000384,1.0,1.0,phase_1,,,,,,,,,,,,,orange,diamond
0.0,5.0,0.0,1.0,3.0,3.0,303.816936999965,1.0,1.0,phase_1,,,,,,,,,,,,,orange,diamond
0.0,7.0,0.0,1.0,3.0,3.0,285.5360839998866,1.0,1.0,phase_1,,,,,,,,,,,,,blue,circle
174.0,1.0,0.5,0.0,2.0,2.0,386.8179660000805,1.0,1.0,phase_1,,,,,,,,,,,,,green,square
1319.0,8.0,4.0,1.0,1.0,1.0,333.2648260000042,1.0,1.0,phase_1,,,,,,,,,,,,,cyan,I
0.0,3.0,0.0,0.0,3.0,3.0,249.6127239999168,1.0,1.0,phase_1,,,,,,,,,,,,,yellow,hexagon
177.0,1.0,0.5,0.0,1.0,1.0,525.5511779998869,1.0,1.0,phase_1,,,,,,,,,,,,,green,square
160.0,1.0,0.5,0.0,3.0,3.0,507.7471659999446,1.0,1.0,phase_1,,,,,,,,,,,,,green,square
168.0,1.0,0.5,0.0,3.0,3.0,616.2243500000386,1.0,1.0,phase_1,,,,,,,,,,,,,green,square
1292.0,4.0,4.0,0.0,4.0,4.0,312.6300239998727,1.0,1.0,phase_1,,,,,,,,,,,,,gray,flipped triangle
320.0,2.0,1.0,0.0,2.0,2.0,331.1208100001295,1.0,1.0,phase_1,,,,,,,,,,,,,white,triangle
1318.0,4.0,4.0,0.0,3.0,3.0,342.5557820000904,1.0,1.0,phase_1,,,,,,,,,,,,,gray,flipped triangle
187.0,1.0,0.5,0.0,4.0,4.0,312.6205050000408,1.0,1.0,phase_1,,,,,,,,,,,,,green,square
315.0,2.0,1.0,0.0,2.0,2.0,331.1379000001579,1.0,1.0,phase_1,,,,,,,,,,,,,white,triangle
632.0,7.0,2.0,1.0,2.0,2.0,451.125544000206,1.0,1.0,phase_1,,,,,,,,,,,,,blue,circle
0.0,4.0,0.0,0.0,3.0,3.0,369.2880880000757,1.0,1.0,phase_1,,,,,,,,,,,,,gray,flipped triangle
0.0,3.0,0.0,0.0,2.0,2.0,332.6559829999951,1.0,2.0,phase_1,,,,,,,,,,,,,yellow,hexagon
662.0,7.0,2.0,1.0,2.0,2.0,267.2461360000397,1.0,1.0,phase_1,,,,,,,,,,,,,blue,circle
325.0,6.0,1.0,1.0,3.0,3.0,387.4906080000073,1.0,2.0,phase_1,,,,,,,,,,,,,magenta,cross
1313.0,4.0,4.0,0.0,3.0,3.0,323.5092190000159,1.0,1.0,phase_1,,,,,,,,,,,,,gray,flipped triangle
147.0,1.0,0.5,0.0,4.0,4.0,376.7577410001195,1.0,1.0,phase_1,,,,,,,,,,,,,green,square
1292.0,8.0,4.0,1.0,4.0,4.0,333.0156990000432,1.0,2.0,phase_1,,,,,,,,,,,,,cyan,I
642.0,3.0,2.0,0.0,1.0,1.0,460.8513499999844,1.0,1.0,phase_1,,,,,,,,,,,,,yellow,hexagon
0.0,2.0,0.0,0.0,4.0,4.0,451.7782360001092,1.0,1.0,phase_1,,,,,,,,,,,,,white,triangle
313.0,2.0,1.0,0.0,4.0,4.0,378.8887729999715,1.0,1.0,phase_1,,,,,,,,,,,,,white,triangle
1308.0,8.0,4.0,1.0,1.0,1.0,360.4567510001288,1.0,1.0,phase_1,,,,,,,,,,,,,cyan,I
0.0,7.0,0.0,1.0,1.0,1.0,386.5228849999766,2.0,1.0,phase_1,,,,,,,,,,,,,blue,circle
1283.0,8.0,4.0,1.0,1.0,1.0,322.3001820001627,2.0,1.0,phase_1,,,,,,,,,,,,,cyan,I
0.0,5.0,0.0,1.0,3.0,3.0,310.6639580000774,2.0,1.0,phase_1,,,,,,,,,,,,,orange,diamond
149.0,1.0,0.5,0.0,2.0,2.0,286.8367999999464,2.0,1.0,phase_1,,,,,,,,,,,,,green,square
672.0,3.0,2.0,0.0,4.0,4.0,332.0192690000567,2.0,1.0,phase_1,,,,,,,,,,,,,yellow,hexagon
1318.0,8.0,4.0,1.0,3.0,3.0,239.9962029999187,2.0,1.0,phase_1,,,,,,,,,,,,,cyan,I
336.0,6.0,1.0,1.0,1.0,1.0,294.8146139999608,2.0,1.0,phase_1,,,,,,,,,,,,,magenta,cross
1283.0,4.0,4.0,0.0,3.0,3.0,358.140320999837,2.0,1.0,phase_1,,,,,,,,,,,,,gray,flipped triangle
163.0,1.0,0.5,0.0,2.0,2.0,312.5591489999806,2.0,1.0,phase_1,,,,,,,,,,,,,green,square
0.0,4.0,0.0,0.0,1.0,1.0,359.2463929999212,2.0,1.0,phase_1,,,,,,,,,,,,,gray,flipped triangle
0.0,1.0,0.0,0.0,3.0,3.0,294.8781210000106,2.0,1.0,phase_1,,,,,,,,,,,,,green,square
187.0,5.0,0.5,1.0,3.0,3.0,331.8745670001135,2.0,2.0,phase_1,,,,,,,,,,,,,orange,diamond
319.0,6.0,1.0,1.0,3.0,3.0,304.4634439997935,2.0,1.0,phase_1,,,,,,,,,,,,,magenta,cross
643.0,7.0,2.0,1.0,4.0,4.0,359.9281059998702,2.0,1.0,phase_1,,,,,,,,,,,,,blue,circle
0.0,2.0,0.0,0.0,1.0,1.0,599.3279919998713,2.0,1.0,phase_1,,,,,,,,,,,,,white,triangle
0.0,3.0,0.0,0.0,2.0,2.0,359.4970789999934,2.0,1.0,phase_1,,,,,,,,,,,,,yellow,hexagon
167.0,5.0,0.5,1.0,4.0,4.0,395.8724209999218,2.0,1.0,phase_1,,,,,,,,,,,,,orange,diamond
160.0,5.0,0.5,1.0,4.0,4.0,442.1686160001172,2.0,1.0,phase_1,,,,,,,,,,,,,orange,diamond
0.0,1.0,0.0,0.0,3.0,3.0,369.6033339999758,2.0,1.0,phase_1,,,,,,,,,,,,,green,square
305.0,2.0,1.0,0.0,3.0,3.0,470.8982720001131,2.0,1.0,phase_1,,,,,,,,,,,,,white,triangle
0.0,5.0,0.0,1.0,4.0,4.0,295.6639330000143,2.0,2.0,phase_1,,,,,,,,,,,,,orange,diamond
0.0,6.0,0.0,1.0,3.0,3.0,314.1524000000117,2.0,1.0,phase_1,,,,,,,,,,,,,magenta,cross
645.0,7.0,2.0,1.0,2.0,2.0,294.6857020001516,2.0,1.0,phase_1,,,,,,,,,,,,,blue,circle
627.0,3.0,2.0,0.0,2.0,2.0,331.2279159999889,2.0,1.0,phase_1,,,,,,,,,,,,,yellow,hexagon
643.0,7.0,2.0,1.0,4.0,4.0,332.1852359999866,2.0,1.0,phase_1,,,,,,,,,,,,,blue,circle
0.0,6.0,0.0,1.0,2.0,2.0,286.7382859999452,2.0,1.0,phase_1,,,,,,,,,,,,,magenta,cross
0.0,7.0,0.0,1.0,1.0,1.0,478.2235070001661,2.0,1.0,phase_1,,,,,,,,,,,,,blue,circle
330.0,6.0,1.0,1.0,3.0,3.0,331.8174370001543,2.0,1.0,phase_1,,,,,,,,,,,,,magenta,cross
180.0,1.0,0.5,0.0,2.0,2.0,358.6052230000405,2.0,1.0,phase_1,,,,,,,,,,,,,green,square
320.0,6.0,1.0,1.0,1.0,1.0,378.0806520001079,2.0,1.0,phase_1,,,,,,,,,,,,,magenta,cross
630.0,3.0,2.0,0.0,4.0,4.0,332.8562320000401,2.0,1.0,phase_1,,,,,,,,,,,,,yellow,hexagon
0.0,4.0,0.0,0.0,3.0,3.0,304.4883909999498,2.0,1.0,phase_1,,,,,,,,,,,,,gray,flipped triangle
332.0,2.0,1.0,0.0,4.0,4.0,689.0894709999884,2.0,1.0,phase_1,,,,,,,,,,,,,white,triangle
1325.0,8.0,4.0,1.0,2.0,2.0,496.7524600001525,2.0,1.0,phase_1,,,,,,,,,,,,,cyan,I
0.0,8.0,0.0,1.0,3.0,3.0,406.2371829998028,2.0,1.0,phase_1,,,,,,,,,,,,,cyan,I
316.0,2.0,1.0,0.0,1.0,1.0,386.9120229999225,2.0,2.0,phase_1,,,,,,,,,,,,,white,triangle
630.0,7.0,2.0,1.0,4.0,4.0,322.9408229999535,2.0,1.0,phase_1,,,,,,,,,,,,,blue,circle
334.0,2.0,1.0,0.0,3.0,3.0,341.1897490000228,2.0,1.0,phase_1,,,,,,,,,,,,,white,triangle
0.0,4.0,0.0,0.0,4.0,4.0,488.8808279999921,2.0,1.0,phase_1,,,,,,,,,,,,,gray,flipped triangle
347.0,6.0,1.0,1.0,4.0,4.0,359.6827850001318,2.0,1.0,phase_1,,,,,,,,,,,,,magenta,cross
643.0,3.0,2.0,0.0,3.0,3.0,368.9295180001863,2.0,1.0,phase_1,,,,,,,,,,,,,yellow,hexagon
0.0,7.0,0.0,1.0,2.0,2.0,736.6369399999257,2.0,1.0,phase_1,,,,,,,,,,,,,blue,circle
1309.0,8.0,4.0,1.0,2.0,2.0,477.6128199998766,2.0,1.0,phase_1,,,,,,,,,,,,,cyan,I
1323.0,8.0,4.0,1.0,4.0,4.0,395.7971889999498,2.0,1.0,phase_1,,,,,,,,,,,,,cyan,I
149.0,1.0,0.5,0.0,1.0,1.0,386.644828000044,2.0,1.0,phase_1,,,,,,,,,,,,,green,square
180.0,1.0,0.5,0.0,3.0,3.0,304.6533970000382,2.0,1.0,phase_1,,,,,,,,,,,,,green,square
1277.0,8.0,4.0,1.0,3.0,3.0,349.1733579999163,2.0,1.0,phase_1,,,,,,,,,,,,,cyan,I
0.0,3.0,0.0,0.0,3.0,3.0,368.3325960000729,2.0,1.0,phase_1,,,,,,,,,,,,,yellow,hexagon
1323.0,4.0,4.0,0.0,2.0,2.0,312.8155029999107,2.0,1.0,phase_1,,,,,,,,,,,,,gray,flipped triangle
154.0,5.0,0.5,1.0,2.0,2.0,331.237179000027,2.0,1.0,phase_1,,,,,,,,,,,,,orange,diamond
642.0,3.0,2.0,0.0,1.0,1.0,359.1280609998648,2.0,1.0,phase_1,,,,,,,,,,,,,yellow,hexagon
662.0,3.0,2.0,0.0,3.0,3.0,340.9482720001051,2.0,1.0,phase_1,,,,,,,,,,,,,yellow,hexagon
626.0,3.0,2.0,0.0,1.0,1.0,359.6223820002251,2.0,1.0,phase_1,,,,,,,,,,,,,yellow,hexagon
663.0,3.0,2.0,0.0,2.0,2.0,295.3832200000761,2.0,1.0,phase_1,,,,,,,,,,,,,yellow,hexagon
174.0,5.0,0.5,1.0,1.0,1.0,351.811939000072,2.0,1.0,phase_1,,,,,,,,,,,,,orange,diamond
308.0,2.0,1.0,0.0,2.0,2.0,388.0787520001831,2.0,2.0,phase_1,,,,,,,,,,,,,white,triangle
1283.0,4.0,4.0,0.0,1.0,1.0,341.7889320000995,2.0,1.0,phase_1,,,,,,,,,,,,,gray,flipped triangle
0.0,8.0,0.0,1.0,4.0,4.0,395.9577929999796,2.0,1.0,phase_1,,,,,,,,,,,,,cyan,I
152.0,5.0,0.5,1.0,1.0,1.0,330.9916640000665,2.0,1.0,phase_1,,,,,,,,,,,,,orange,diamond
1323.0,8.0,4.0,1.0,4.0,4.0,369.7429339999871,2.0,1.0,phase_1,,,,,,,,,,,,,cyan,I
343.0,2.0,1.0,0.0,2.0,2.0,322.1512970001186,2.0,1.0,phase_1,,,,,,,,,,,,,white,triangle
305.0,2.0,1.0,0.0,3.0,3.0,332.0036840000284,2.0,1.0,phase_1,,,,,,,,,,,,,white,triangle
343.0,2.0,1.0,0.0,3.0,3.0,351.4275009999892,2.0,1.0,phase_1,,,,,,,,,,,,,white,triangle
141.0,5.0,0.5,1.0,2.0,2.0,295.2236479998191,2.0,1.0,phase_1,,,,,,,,,,,,,orange,diamond
1295.0,8.0,4.0,1.0,4.0,4.0,351.8530310000187,2.0,1.0,phase_1,,,,,,,,,,,,,cyan,I
1277.0,4.0,4.0,0.0,4.0,4.0,516.97729600005,2.0,1.0,phase_1,,,,,,,,,,,,,gray,flipped triangle
0.0,1.0,0.0,0.0,2.0,2.0,323.3905169997797,2.0,1.0,phase_1,,,,,,,,,,,,,green,square
1308.0,4.0,4.0,0.0,3.0,3.0,397.5617520000014,2.0,1.0,phase_1,,,,,,,,,,,,,gray,flipped triangle
0.0,8.0,0.0,1.0,1.0,1.0,377.7002589999938,2.0,1.0,phase_1,,,,,,,,,,,,,cyan,I
178.0,1.0,0.5,0.0,4.0,4.0,444.1874749998078,2.0,1.0,phase_1,,,,,,,,,,,,,green,square
182.0,1.0,0.5,0.0,3.0,3.0,424.7675070000696,2.0,1.0,phase_1,,,,,,,,,,,,,green,square
656.0,3.0,2.0,0.0,4.0,4.0,387.6039130000208,2.0,1.0,phase_1,,,,,,,,,,,,,yellow,hexagon
336.0,6.0,1.0,1.0,4.0,4.0,341.5948530000605,2.0,1.0,phase_1,,,,,,,,,,,,,magenta,cross
1307.0,4.0,4.0,0.0,3.0,3.0,692.008235000003,2.0,1.0,phase_1,,,,,,,,,,,,,gray,flipped triangle
0.0,2.0,0.0,0.0,3.0,3.0,517.1908530001019,2.0,1.0,phase_1,,,,,,,,,,,,,white,triangle
0.0,7.0,0.0,1.0,2.0,2.0,656.0666609998407,2.0,1.0,phase_1,,,,,,,,,,,,,blue,circle
180.0,5.0,0.5,1.0,3.0,3.0,435.6235800000831,2.0,1.0,phase_1,,,,,,,,,,,,,orange,diamond
1305.0,4.0,4.0,0.0,1.0,1.0,767.6194759999362,2.0,1.0,phase_1,,,,,,,,,,,,,gray,flipped triangle
1283.0,8.0,4.0,1.0,1.0,1.0,654.7154219999811,2.0,1.0,phase_1,,,,,,,,,,,,,cyan,I
345.0,6.0,1.0,1.0,2.0,2.0,368.6889169998721,2.0,2.0,phase_1,,,,,,,,,,,,,magenta,cross
340.0,2.0,1.0,0.0,2.0,2.0,451.7441329999201,2.0,1.0,phase_1,,,,,,,,,,,,,white,triangle
1312.0,4.0,4.0,0.0,2.0,2.0,378.3861750000596,2.0,1.0,phase_1,,,,,,,,,,,,,gray,flipped triangle
0.0,4.0,0.0,0.0,3.0,3.0,404.770790999919,2.0,1.0,phase_1,,,,,,,,,,,,,gray,flipped triangle
1325.0,4.0,4.0,0.0,4.0,4.0,377.3765799999182,2.0,1.0,phase_1,,,,,,,,,,,,,gray,flipped triangle
1304.0,4.0,4.0,0.0,4.0,4.0,377.9833490000328,2.0,1.0,phase_1,,,,,,,,,,,,,gray,flipped triangle
653.0,3.0,2.0,0.0,3.0,3.0,382.009546999825,2.0,1.0,phase_1,,,,,,,,,,,,,yellow,hexagon
310.0,2.0,1.0,0.0,2.0,2.0,350.7812070001819,2.0,1.0,phase_1,,,,,,,,,,,,,white,triangle
1295.0,4.0,4.0,0.0,4.0,4.0,350.5203229999551,2.0,1.0,phase_1,,,,,,,,,,,,,gray,flipped triangle
140.0,5.0,0.5,1.0,1.0,1.0,379.676561999986,2.0,1.0,phase_1,,,,,,,,,,,,,orange,diamond
0.0,6.0,0.0,1.0,1.0,1.0,350.3890929998761,2.0,1.0,phase_1,,,,,,,,,,,,,magenta,cross
1317.0,8.0,4.0,1.0,2.0,2.0,363.9863289999994,2.0,1.0,phase_1,,,,,,,,,,,,,cyan,I
339.0,6.0,1.0,1.0,4.0,4.0,332.1504059999824,2.0,2.0,phase_1,,,,,,,,,,,,,magenta,cross
674.0,3.0,2.0,0.0,4.0,4.0,322.7351890000136,2.0,1.0,phase_1,,,,,,,,,,,,,yellow,hexagon
1309.0,4.0,4.0,0.0,3.0,3.0,756.6817770000398,2.0,1.0,phase_1,,,,,,,,,,,,,gray,flipped triangle
0.0,7.0,0.0,1.0,3.0,3.0,361.5791510001145,2.0,1.0,phase_1,,,,,,,,,,,,,blue,circle
1292.0,8.0,4.0,1.0,2.0,2.0,561.8825110000216,2.0,1.0,phase_1,,,,,,,,,,,,,cyan,I
0.0,1.0,0.0,0.0,3.0,3.0,471.0608390000743,2.0,1.0,phase_1,,,,,,,,,,,,,green,square
182.0,5.0,0.5,1.0,4.0,4.0,544.1031200000452,2.0,1.0,phase_1,,,,,,,,,,,,,orange,diamond
1286.0,4.0,4.0,0.0,2.0,2.0,323.471746999985,2.0,1.0,phase_1,,,,,,,,,,,,,gray,flipped triangle
154.0,1.0,0.5,0.0,4.0,4.0,453.9895749999232,2.0,1.0,phase_1,,,,,,,,,,,,,green,square
657.0,7.0,2.0,1.0,1.0,1.0,424.6808880000117,3.0,1.0,phase_1,,,,,,,,,,,,,blue,circle
0.0,4.0,0.0,0.0,1.0,1.0,445.6046259999766,3.0,1.0,phase_1,,,,,,,,,,,,,gray,flipped triangle
152.0,1.0,0.5,0.0,2.0,2.0,424.955245999854,3.0,1.0,phase_1,,,,,,,,,,,,,green,square
0.0,5.0,0.0,1.0,4.0,4.0,333.3834439999918,3.0,1.0,phase_1,,,,,,,,,,,,,orange,diamond
1308.0,4.0,4.0,0.0,1.0,1.0,379.2429459999766,3.0,1.0,phase_1,,,,,,,,,,,,,gray,flipped triangle
163.0,5.0,0.5,1.0,4.0,4.0,369.0611240001544,3.0,1.0,phase_1,,,,,,,,,,,,,orange,diamond
1283.0,8.0,4.0,1.0,4.0,4.0,371.5795269999944,3.0,1.0,phase_1,,,,,,,,,,,,,cyan,I
168.0,5.0,0.5,1.0,2.0,2.0,350.0310899999022,3.0,1.0,phase_1,,,,,,,,,,,,,orange,diamond
310.0,6.0,1.0,1.0,4.0,4.0,389.2656450000231,3.0,1.0,phase_1,,,,,,,,,,,,,magenta,cross
638.0,3.0,2.0,0.0,2.0,2.0,351.9977559999461,3.0,1.0,phase_1,,,,,,,,,,,,,yellow,hexagon
0.0,4.0,0.0,0.0,1.0,1.0,451.7887449999307,3.0,1.0,phase_1,,,,,,,,,,,,,gray,flipped triangle
334.0,6.0,1.0,1.0,1.0,1.0,378.44509200022,3.0,1.0,phase_1,,,,,,,,,,,,,magenta,cross
659.0,3.0,2.0,0.0,1.0,1.0,526.0757789999388,3.0,1.0,phase_1,,,,,,,,,,,,,yellow,hexagon
630.0,3.0,2.0,0.0,2.0,2.0,368.5882940001193,3.0,1.0,phase_1,,,,,,,,,,,,,yellow,hexagon
1296.0,4.0,4.0,0.0,1.0,1.0,387.6068070001111,3.0,1.0,phase_1,,,,,,,,,,,,,gray,flipped triangle
630.0,7.0,2.0,1.0,1.0,1.0,535.6222840000555,3.0,1.0,phase_1,,,,,,,,,,,,,blue,circle
152.0,1.0,0.5,0.0,1.0,1.0,344.4410310000876,3.0,1.0,phase_1,,,,,,,,,,,,,green,square
646.0,7.0,2.0,1.0,1.0,1.0,377.8040270001384,3.0,1.0,phase_1,,,,,,,,,,,,,blue,circle
642.0,7.0,2.0,1.0,4.0,4.0,435.3293019999,3.0,1.0,phase_1,,,,,,,,,,,,,blue,circle
0.0,6.0,0.0,1.0,4.0,4.0,370.1981199999409,3.0,1.0,phase_1,,,,,,,,,,,,,magenta,cross
159.0,5.0,0.5,1.0,3.0,3.0,387.3904300000959,3.0,1.0,phase_1,,,,,,,,,,,,,orange,diamond
627.0,7.0,2.0,1.0,3.0,3.0,397.5194610000017,3.0,1.0,phase_1,,,,,,,,,,,,,blue,circle
657.0,3.0,2.0,0.0,3.0,3.0,305.7140200000958,3.0,1.0,phase_1,,,,,,,,,,,,,yellow,hexagon
672.0,7.0,2.0,1.0,1.0,1.0,388.5977959998854,3.0,1.0,phase_1,,,,,,,,,,,,,blue,circle
664.0,7.0,2.0,1.0,4.0,4.0,315.0087639999128,3.0,1.0,phase_1,,,,,,,,,,,,,blue,circle
184.0,5.0,0.5,1.0,3.0,3.0,335.0072190000901,3.0,1.0,phase_1,,,,,,,,,,,,,orange,diamond
1307.0,8.0,4.0,1.0,1.0,1.0,377.3958720000792,3.0,1.0,phase_1,,,,,,,,,,,,,cyan,I
0.0,2.0,0.0,0.0,3.0,3.0,415.1545490001354,3.0,1.0,phase_1,,,,,,,,,,,,,white,triangle
0.0,8.0,0.0,1.0,1.0,1.0,434.3568969998159,3.0,1.0,phase_1,,,,,,,,,,,,,cyan,I
643.0,7.0,2.0,1.0,2.0,2.0,543.7777080001069,3.0,1.0,phase_1,,,,,,,,,,,,,blue,circle
638.0,7.0,2.0,1.0,1.0,1.0,572.4020930001643,3.0,1.0,phase_1,,,,,,,,,,,,,blue,circle
1301.0,8.0,4.0,1.0,4.0,4.0,507.1169139998801,3.0,1.0,phase_1,,,,,,,,,,,,,cyan,I
632.0,3.0,2.0,0.0,4.0,4.0,443.213870000136,3.0,1.0,phase_1,,,,,,,,,,,,,yellow,hexagon
0.0,3.0,0.0,0.0,3.0,3.0,369.8587129999851,3.0,1.0,phase_1,,,,,,,,,,,,,yellow,hexagon
0.0,4.0,0.0,0.0,1.0,1.0,443.2169719998455,3.0,1.0,phase_1,,,,,,,,,,,,,gray,flipped triangle
627.0,7.0,2.0,1.0,1.0,1.0,453.3930789998521,3.0,1.0,phase_1,,,,,,,,,,,,,blue,circle
182.0,5.0,0.5,1.0,4.0,4.0,333.5090509999645,3.0,1.0,phase_1,,,,,,,,,,,,,orange,diamond
138.0,1.0,0.5,0.0,4.0,4.0,434.5687400000315,3.0,1.0,phase_1,,,,,,,,,,,,,green,square
343.0,6.0,1.0,1.0,1.0,1.0,406.1042759999509,3.0,1.0,phase_1,,,,,,,,,,,,,magenta,cross
159.0,1.0,0.5,0.0,1.0,1.0,378.2684069999504,3.0,1.0,phase_1,,,,,,,,,,,,,green,square
646.0,3.0,2.0,0.0,3.0,3.0,333.1134990000919,3.0,1.0,phase_1,,,,,,,,,,,,,yellow,hexagon
664.0,7.0,2.0,1.0,3.0,3.0,369.5129449999967,3.0,1.0,phase_1,,,,,,,,,,,,,blue,circle
333.0,6.0,1.0,1.0,3.0,3.0,414.5811800001411,3.0,1.0,phase_1,,,,,,,,,,,,,magenta,cross
348.0,2.0,1.0,0.0,3.0,3.0,414.7003949999543,3.0,1.0,phase_1,,,,,,,,,,,,,white,triangle
660.0,3.0,2.0,0.0,1.0,1.0,620.2565139999479,3.0,1.0,phase_1,,,,,,,,,,,,,yellow,hexagon
314.0,6.0,1.0,1.0,2.0,2.0,580.8945969999968,3.0,1.0,phase_1,,,,,,,,,,,,,magenta,cross
1296.0,8.0,4.0,1.0,2.0,2.0,461.4625149999938,3.0,2.0,phase_1,,,,,,,,,,,,,cyan,I
1323.0,4.0,4.0,0.0,2.0,2.0,342.4398610000025,3.0,1.0,phase_1,,,,,,,,,,,,,gray,flipped triangle
1292.0,8.0,4.0,1.0,4.0,4.0,416.8594160000793,3.0,1.0,phase_1,,,,,,,,,,,,,cyan,I
667.0,7.0,2.0,1.0,1.0,1.0,406.1551170000257,3.0,1.0,phase_1,,,,,,,,,,,,,blue,circle
645.0,3.0,2.0,0.0,3.0,3.0,407.7263899998797,3.0,1.0,phase_1,,,,,,,,,,,,,yellow,hexagon
666.0,7.0,2.0,1.0,3.0,3.0,388.1858170000214,3.0,1.0,phase_1,,,,,,,,,,,,,blue,circle
137.0,1.0,0.5,0.0,1.0,1.0,389.0362540000751,3.0,1.0,phase_1,,,,,,,,,,,,,green,square
1282.0,8.0,4.0,1.0,3.0,3.0,319.1466869998294,3.0,1.0,phase_1,,,,,,,,,,,,,cyan,I
663.0,7.0,2.0,1.0,4.0,4.0,313.0203319999509,3.0,1.0,phase_1,,,,,,,,,,,,,blue,circle
659.0,7.0,2.0,1.0,3.0,3.0,312.9526349998741,3.0,1.0,phase_1,,,,,,,,,,,,,blue,circle
314.0,2.0,1.0,0.0,4.0,4.0,479.4446390001212,3.0,1.0,phase_1,,,,,,,,,,,,,white,triangle
0.0,7.0,0.0,1.0,4.0,4.0,360.4640169999129,3.0,1.0,phase_1,,,,,,,,,,,,,blue,circle
0.0,5.0,0.0,1.0,3.0,3.0,314.6830890000274,3.0,1.0,phase_1,,,,,,,,,,,,,orange,diamond
633.0,7.0,2.0,1.0,2.0,2.0,332.3895149999316,3.0,1.0,phase_1,,,,,,,,,,,,,blue,circle
637.0,3.0,2.0,0.0,4.0,4.0,323.9087590000054,3.0,1.0,phase_1,,,,,,,,,,,,,yellow,hexagon
173.0,5.0,0.5,1.0,3.0,3.0,407.7863259999503,3.0,1.0,phase_1,,,,,,,,,,,,,orange,diamond
159.0,5.0,0.5,1.0,1.0,1.0,553.5850329999903,3.0,1.0,phase_1,,,,,,,,,,,,,orange,diamond
653.0,7.0,2.0,1.0,3.0,3.0,326.124818000153,3.0,1.0,phase_1,,,,,,,,,,,,,blue,circle
1305.0,8.0,4.0,1.0,1.0,1.0,536.938020999969,3.0,1.0,phase_1,,,,,,,,,,,,,cyan,I
308.0,6.0,1.0,1.0,1.0,1.0,351.4515669999127,3.0,1.0,phase_1,,,,,,,,,,,,,magenta,cross
0.0,5.0,0.0,1.0,2.0,2.0,453.0990819998806,3.0,1.0,phase_1,,,,,,,,,,,,,orange,diamond
147.0,1.0,0.5,0.0,3.0,3.0,369.1549630000281,3.0,1.0,phase_1,,,,,,,,,,,,,green,square
0.0,2.0,0.0,0.0,4.0,4.0,469.9020190000738,3.0,1.0,phase_1,,,,,,,,,,,,,white,triangle
0.0,6.0,0.0,1.0,3.0,3.0,423.8818809999429,3.0,1.0,phase_1,,,,,,,,,,,,,magenta,cross
656.0,7.0,2.0,1.0,1.0,1.0,424.0154330000223,3.0,1.0,phase_1,,,,,,,,,,,,,blue,circle
646.0,3.0,2.0,0.0,2.0,2.0,369.065596999917,3.0,1.0,phase_1,,,,,,,,,,,,,yellow,hexagon
311.0,2.0,1.0,0.0,4.0,4.0,342.4065510000673,3.0,1.0,phase_1,,,,,,,,,,,,,white,triangle
146.0,1.0,0.5,0.0,3.0,3.0,351.076852999995,3.0,1.0,phase_1,,,,,,,,,,,,,green,square
164.0,5.0,0.5,1.0,4.0,4.0,527.0170100000087,3.0,1.0,phase_1,,,,,,,,,,,,,orange,diamond
1289.0,4.0,4.0,0.0,4.0,4.0,470.7116110000697,3.0,1.0,phase_1,,,,,,,,,,,,,gray,flipped triangle
1292.0,4.0,4.0,0.0,1.0,1.0,452.3494180000398,3.0,1.0,phase_1,,,,,,,,,,,,,gray,flipped triangle
141.0,1.0,0.5,0.0,4.0,4.0,378.7914489998911,3.0,1.0,phase_1,,,,,,,,,,,,,green,square
1291.0,8.0,4.0,1.0,3.0,3.0,323.9168350000909,3.0,1.0,phase_1,,,,,,,,,,,,,cyan,I
0.0,1.0,0.0,0.0,4.0,4.0,480.8626439998988,3.0,1.0,phase_1,,,,,,,,,,,,,green,square
0.0,8.0,0.0,1.0,2.0,2.0,497.5108109999837,3.0,1.0,phase_1,,,,,,,,,,,,,cyan,I
670.0,7.0,2.0,1.0,2.0,2.0,452.435725999976,3.0,1.0,phase_1,,,,,,,,,,,,,blue,circle
1277.0,8.0,4.0,1.0,2.0,2.0,571.8532299999879,3.0,1.0,phase_1,,,,,,,,,,,,,cyan,I
336.0,2.0,1.0,0.0,4.0,4.0,565.355198999896,3.0,1.0,phase_1,,,,,,,,,,,,,white,triangle
163.0,5.0,0.5,1.0,4.0,4.0,608.8022239998736,3.0,1.0,phase_1,,,,,,,,,,,,,orange,diamond
637.0,7.0,2.0,1.0,3.0,3.0,498.4959640000852,3.0,1.0,phase_1,,,,,,,,,,,,,blue,circle
184.0,1.0,0.5,0.0,2.0,2.0,360.8916870000485,3.0,1.0,phase_1,,,,,,,,,,,,,green,square
304.0,2.0,1.0,0.0,1.0,1.0,481.1058580003191,3.0,1.0,phase_1,,,,,,,,,,,,,white,triangle
340.0,6.0,1.0,1.0,1.0,1.0,423.601454999698,3.0,1.0,phase_1,,,,,,,,,,,,,magenta,cross
332.0,6.0,1.0,1.0,3.0,3.0,388.3674569997311,3.0,1.0,phase_1,,,,,,,,,,,,,magenta,cross
318.0,6.0,1.0,1.0,1.0,1.0,479.0807800000038,3.0,1.0,phase_1,,,,,,,,,,,,,magenta,cross
1296.0,4.0,4.0,0.0,2.0,2.0,434.9902959997962,3.0,1.0,phase_1,,,,,,,,,,,,,gray,flipped triangle
177.0,1.0,0.5,0.0,3.0,3.0,432.6549200000045,3.0,1.0,phase_1,,,,,,,,,,,,,green,square
336.0,6.0,1.0,1.0,3.0,3.0,460.0871399998141,3.0,1.0,phase_1,,,,,,,,,,,,,magenta,cross
1278.0,8.0,4.0,1.0,1.0,1.0,442.3184980000769,3.0,1.0,phase_1,,,,,,,,,,,,,cyan,I
311.0,6.0,1.0,1.0,2.0,2.0,386.9210170000769,3.0,1.0,phase_1,,,,,,,,,,,,,magenta,cross
0.0,1.0,0.0,0.0,3.0,3.0,414.8054769998452,3.0,1.0,phase_1,,,,,,,,,,,,,green,square
1283.0,4.0,4.0,0.0,2.0,2.0,395.6351840001844,3.0,1.0,phase_1,,,,,,,,,,,,,gray,flipped triangle
336.0,2.0,1.0,0.0,1.0,1.0,368.131027000345,3.0,1.0,phase_1,,,,,,,,,,,,,white,triangle
631.0,3.0,2.0,0.0,3.0,3.0,349.8128619999079,3.0,1.0,phase_1,,,,,,,,,,,,,yellow,hexagon
0.0,5.0,0.0,1.0,1.0,1.0,452.0707960000436,4.0,1.0,phase_1,,,,,,,,,,,,,orange,diamond
0.0,3.0,0.0,0.0,3.0,3.0,332.4857749998955,4.0,1.0,phase_1,,,,,,,,,,,,,yellow,hexagon
305.0,6.0,1.0,1.0,2.0,2.0,323.8777629999276,4.0,1.0,phase_1,,,,,,,,,,,,,magenta,cross
636.0,7.0,2.0,1.0,2.0,2.0,322.0996629997898,4.0,1.0,phase_1,,,,,,,,,,,,,blue,circle
645.0,7.0,2.0,1.0,3.0,3.0,388.1376780000209,4.0,1.0,phase_1,,,,,,,,,,,,,blue,circle
140.0,1.0,0.5,0.0,3.0,3.0,369.6987400003308,4.0,1.0,phase_1,,,,,,,,,,,,,green,square
0.0,5.0,0.0,1.0,2.0,2.0,433.8082980002582,4.0,1.0,phase_1,,,,,,,,,,,,,orange,diamond
645.0,3.0,2.0,0.0,2.0,2.0,323.4188350002114,4.0,1.0,phase_1,,,,,,,,,,,,,yellow,hexagon
329.0,2.0,1.0,0.0,3.0,3.0,295.3379579998909,4.0,1.0,phase_1,,,,,,,,,,,,,white,triangle
145.0,1.0,0.5,0.0,1.0,1.0,433.8571930002217,4.0,1.0,phase_1,,,,,,,,,,,,,green,square
627.0,3.0,2.0,0.0,4.0,4.0,396.6141210003115,4.0,1.0,phase_1,,,,,,,,,,,,,yellow,hexagon
1320.0,8.0,4.0,1.0,2.0,2.0,368.6160170000221,4.0,1.0,phase_1,,,,,,,,,,,,,cyan,I
313.0,6.0,1.0,1.0,1.0,1.0,341.0690850000719,4.0,1.0,phase_1,,,,,,,,,,,,,magenta,cross
659.0,7.0,2.0,1.0,3.0,3.0,313.6525350000738,4.0,1.0,phase_1,,,,,,,,,,,,,blue,circle
1292.0,4.0,4.0,0.0,2.0,2.0,378.199518999736,4.0,1.0,phase_1,,,,,,,,,,,,,gray,flipped triangle
1291.0,4.0,4.0,0.0,4.0,4.0,415.2462920001198,4.0,1.0,phase_1,,,,,,,,,,,,,gray,flipped triangle
325.0,6.0,1.0,1.0,4.0,4.0,378.2068990003608,4.0,1.0,phase_1,,,,,,,,,,,,,magenta,cross
313.0,6.0,1.0,1.0,2.0,2.0,396.5230560002055,4.0,1.0,phase_1,,,,,,,,,,,,,magenta,cross
333.0,2.0,1.0,0.0,1.0,1.0,358.3418089997394,4.0,1.0,phase_1,,,,,,,,,,,,,white,triangle
339.0,2.0,1.0,0.0,1.0,1.0,359.5914640000046,4.0,1.0,phase_1,,,,,,,,,,,,,white,triangle
146.0,5.0,0.5,1.0,2.0,2.0,414.2146660001344,4.0,1.0,phase_1,,,,,,,,,,,,,orange,diamond
653.0,7.0,2.0,1.0,4.0,4.0,515.5845839999529,4.0,1.0,phase_1,,,,,,,,,,,,,blue,circle
166.0,1.0,0.5,0.0,3.0,3.0,415.7922310000685,4.0,1.0,phase_1,,,,,,,,,,,,,green,square
1317.0,4.0,4.0,0.0,1.0,1.0,499.6518369998739,4.0,1.0,phase_1,,,,,,,,,,,,,gray,flipped triangle
1291.0,4.0,4.0,0.0,4.0,4.0,395.7709450000948,4.0,1.0,phase_1,,,,,,,,,,,,,gray,flipped triangle
1301.0,4.0,4.0,0.0,3.0,3.0,396.8722129998241,4.0,1.0,phase_1,,,,,,,,,,,,,gray,flipped triangle
0.0,6.0,0.0,1.0,4.0,4.0,413.6226489999899,4.0,1.0,phase_1,,,,,,,,,,,,,magenta,cross
0.0,8.0,0.0,1.0,3.0,3.0,378.05722800021607,4.0,1.0,phase_1,,,,,,,,,,,,,cyan,I
636.0,3.0,2.0,0.0,1.0,1.0,350.0334799996381,4.0,1.0,phase_1,,,,,,,,,,,,,yellow,hexagon
316.0,2.0,1.0,0.0,4.0,4.0,422.9999330000282,4.0,1.0,phase_1,,,,,,,,,,,,,white,triangle
1308.0,8.0,4.0,1.0,4.0,4.0,377.5720550002006,4.0,1.0,phase_1,,,,,,,,,,,,,cyan,I
633.0,7.0,2.0,1.0,1.0,1.0,478.6819099999775,4.0,1.0,phase_1,,,,,,,,,,,,,blue,circle
0.0,3.0,0.0,0.0,4.0,4.0,535.0768119997156,4.0,1.0,phase_1,,,,,,,,,,,,,yellow,hexagon
0.0,4.0,0.0,0.0,1.0,1.0,564.0745040000184,4.0,1.0,phase_1,,,,,,,,,,,,,gray,flipped triangle
154.0,5.0,0.5,1.0,3.0,3.0,496.7306050002662,4.0,1.0,phase_1,,,,,,,,,,,,,orange,diamond
176.0,1.0,0.5,0.0,2.0,2.0,552.5286429997323,4.0,1.0,phase_1,,,,,,,,,,,,,green,square
643.0,3.0,2.0,0.0,3.0,3.0,821.693114000027,4.0,1.0,phase_1,,,,,,,,,,,,,yellow,hexagon
673.0,3.0,2.0,0.0,2.0,2.0,387.2710670002561,4.0,2.0,phase_1,,,,,,,,,,,,,yellow,hexagon
348.0,6.0,1.0,1.0,2.0,2.0,328.4068879997903,4.0,1.0,phase_1,,,,,,,,,,,,,magenta,cross
340.0,6.0,1.0,1.0,1.0,1.0,407.6018370001293,4.0,1.0,phase_1,,,,,,,,,,,,,magenta,cross
307.0,6.0,1.0,1.0,4.0,4.0,390.0103870000748,4.0,1.0,phase_1,,,,,,,,,,,,,magenta,cross
666.0,3.0,2.0,0.0,3.0,3.0,324.2376489997696,4.0,1.0,phase_1,,,,,,,,,,,,,yellow,hexagon
0.0,7.0,0.0,1.0,4.0,4.0,423.6814589999085,4.0,1.0,phase_1,,,,,,,,,,,,,blue,circle
343.0,6.0,1.0,1.0,3.0,3.0,377.94057700011757,4.0,1.0,phase_1,,,,,,,,,,,,,magenta,cross
166.0,5.0,0.5,1.0,2.0,2.0,351.0354110003391,4.0,1.0,phase_1,,,,,,,,,,,,,orange,diamond
643.0,3.0,2.0,0.0,4.0,4.0,553.484269999899,4.0,1.0,phase_1,,,,,,,,,,,,,yellow,hexagon
347.0,2.0,1.0,0.0,1.0,1.0,351.2724330003038,4.0,1.0,phase_1,,,,,,,,,,,,,white,triangle
0.0,2.0,0.0,0.0,2.0,2.0,450.5887949999305,4.0,1.0,phase_1,,,,,,,,,,,,,white,triangle
305.0,6.0,1.0,1.0,4.0,4.0,368.3105889999751,4.0,1.0,phase_1,,,,,,,,,,,,,magenta,cross
660.0,7.0,2.0,1.0,2.0,2.0,436.9707310002013,4.0,1.0,phase_1,,,,,,,,,,,,,blue,circle
0.0,1.0,0.0,0.0,1.0,1.0,333.2386070001121,4.0,1.0,phase_1,,,,,,,,,,,,,green,square
340.0,2.0,1.0,0.0,1.0,1.0,352.7013610000722,4.0,1.0,phase_1,,,,,,,,,,,,,white,triangle
0.0,1.0,0.0,0.0,1.0,1.0,342.7349240000694,4.0,1.0,phase_1,,,,,,,,,,,,,green,square
1307.0,8.0,4.0,1.0,4.0,4.0,286.7066429998886,4.0,1.0,phase_1,,,,,,,,,,,,,cyan,I
319.0,2.0,1.0,0.0,2.0,2.0,389.8130170000513,4.0,1.0,phase_1,,,,,,,,,,,,,white,triangle
147.0,5.0,0.5,1.0,2.0,2.0,351.2153560000115,4.0,1.0,phase_1,,,,,,,,,,,,,orange,diamond
0.0,6.0,0.0,1.0,1.0,1.0,324.7017789999518,4.0,1.0,phase_1,,,,,,,,,,,,,magenta,cross
1318.0,8.0,4.0,1.0,1.0,1.0,377.9821269999956,4.0,1.0,phase_1,,,,,,,,,,,,,cyan,I
1312.0,8.0,4.0,1.0,2.0,2.0,295.6456140000227,4.0,1.0,phase_1,,,,,,,,,,,,,cyan,I
180.0,5.0,0.5,1.0,3.0,3.0,305.0494180001806,4.0,1.0,phase_1,,,,,,,,,,,,,orange,diamond
1289.0,8.0,4.0,1.0,1.0,1.0,470.2221739999004,4.0,1.0,phase_1,,,,,,,,,,,,,cyan,I
176.0,5.0,0.5,1.0,2.0,2.0,323.3838450000803,4.0,1.0,phase_1,,,,,,,,,,,,,orange,diamond
1291.0,8.0,4.0,1.0,3.0,3.0,471.1282349999237,4.0,1.0,phase_1,,,,,,,,,,,,,cyan,I
1298.0,8.0,4.0,1.0,3.0,3.0,443.2072829999924,4.0,1.0,phase_1,,,,,,,,,,,,,cyan,I
0.0,2.0,0.0,0.0,3.0,3.0,323.2685830002992,4.0,1.0,phase_1,,,,,,,,,,,,,white,triangle
633.0,3.0,2.0,0.0,4.0,4.0,415.4980490002344,4.0,1.0,phase_1,,,,,,,,,,,,,yellow,hexagon
674.0,7.0,2.0,1.0,3.0,3.0,381.1368420001599,4.0,1.0,phase_1,,,,,,,,,,,,,blue,circle
1277.0,4.0,4.0,0.0,2.0,2.0,377.6027769999928,4.0,1.0,phase_1,,,,,,,,,,,,,gray,flipped triangle
1307.0,4.0,4.0,0.0,1.0,1.0,517.1461640002235,4.0,1.0,phase_1,,,,,,,,,,,,,gray,flipped triangle
177.0,5.0,0.5,1.0,2.0,2.0,386.7187900000317,4.0,1.0,phase_1,,,,,,,,,,,,,orange,diamond
1298.0,4.0,4.0,0.0,3.0,3.0,359.8695360001329,4.0,1.0,phase_1,,,,,,,,,,,,,gray,flipped triangle
0.0,1.0,0.0,0.0,3.0,3.0,518.4425719999126,4.0,1.0,phase_1,,,,,,,,,,,,,green,square
673.0,7.0,2.0,1.0,4.0,4.0,462.2824970001602,4.0,1.0,phase_1,,,,,,,,,,,,,blue,circle
1304.0,8.0,4.0,1.0,3.0,3.0,340.9951339999679,4.0,1.0,phase_1,,,,,,,,,,,,,cyan,I
164.0,1.0,0.5,0.0,2.0,2.0,312.4752020003143,4.0,1.0,phase_1,,,,,,,,,,,,,green,square
1319.0,4.0,4.0,0.0,3.0,3.0,350.7967519999511,4.0,1.0,phase_1,,,,,,,,,,,,,gray,flipped triangle
322.0,2.0,1.0,0.0,3.0,3.0,388.5029850002865,4.0,1.0,phase_1,,,,,,,,,,,,,white,triangle
145.0,5.0,0.5,1.0,4.0,4.0,463.0417620001026,4.0,2.0,phase_1,,,,,,,,,,,,,orange,diamond
0.0,3.0,0.0,0.0,1.0,1.0,377.1261870001581,4.0,1.0,phase_1,,,,,,,,,,,,,yellow,hexagon
330.0,2.0,1.0,0.0,4.0,4.0,434.0814860001956,4.0,1.0,phase_1,,,,,,,,,,,,,white,triangle
1287.0,4.0,4.0,0.0,1.0,1.0,369.2905439997958,4.0,1.0,phase_1,,,,,,,,,,,,,gray,flipped triangle
1286.0,8.0,4.0,1.0,3.0,3.0,386.6446940000969,4.0,1.0,phase_1,,,,,,,,,,,,,cyan,I
167.0,1.0,0.5,0.0,2.0,2.0,321.902117999798,4.0,1.0,phase_1,,,,,,,,,,,,,green,square
345.0,6.0,1.0,1.0,4.0,4.0,463.4391640001922,4.0,1.0,phase_1,,,,,,,,,,,,,magenta,cross
322.0,6.0,1.0,1.0,4.0,4.0,323.3554859998548,4.0,1.0,phase_1,,,,,,,,,,,,,magenta,cross
631.0,7.0,2.0,1.0,2.0,2.0,303.9756660000421,4.0,1.0,phase_1,,,,,,,,,,,,,blue,circle
0.0,2.0,0.0,0.0,3.0,3.0,415.1939560001665,4.0,1.0,phase_1,,,,,,,,,,,,,white,triangle
173.0,1.0,0.5,0.0,1.0,1.0,406.9828560000132,4.0,1.0,phase_1,,,,,,,,,,,,,green,square
1278.0,4.0,4.0,0.0,2.0,2.0,360.0366129999202,4.0,1.0,phase_1,,,,,,,,,,,,,gray,flipped triangle
318.0,2.0,1.0,0.0,2.0,2.0,342.0134020002479,4.0,1.0,phase_1,,,,,,,,,,,,,white,triangle
316.0,6.0,1.0,1.0,2.0,2.0,323.2005380000373,4.0,1.0,phase_1,,,,,,,,,,,,,magenta,cross
172.0,1.0,0.5,0.0,4.0,4.0,395.6685359999028,4.0,2.0,phase_1,,,,,,,,,,,,,green,square
158.0,1.0,0.5,0.0,4.0,4.0,535.154564000095,4.0,1.0,phase_1,,,,,,,,,,,,,green,square
147.0,5.0,0.5,1.0,2.0,2.0,314.2687950003164,4.0,1.0,phase_1,,,,,,,,,,,,,orange,diamond
0.0,8.0,0.0,1.0,3.0,3.0,340.9321429999181,4.0,1.0,phase_1,,,,,,,,,,,,,cyan,I
668.0,3.0,2.0,0.0,2.0,2.0,322.9268989998672,4.0,1.0,phase_1,,,,,,,,,,,,,yellow,hexagon
664.0,3.0,2.0,0.0,1.0,1.0,368.6868760000834,4.0,1.0,phase_1,,,,,,,,,,,,,yellow,hexagon
664.0,3.0,2.0,0.0,4.0,4.0,368.1058219999613,4.0,1.0,phase_1,,,,,,,,,,,,,yellow,hexagon
154.0,1.0,0.5,0.0,4.0,4.0,589.8041139998895,4.0,1.0,phase_1,,,,,,,,,,,,,green,square
1323.0,4.0,4.0,0.0,4.0,4.0,359.8473140000351,4.0,1.0,phase_1,,,,,,,,,,,,,gray,flipped triangle
0.0,6.0,1.0,1.0,5.0,0.0,0.0,1.0,1.0,phase_2,stop,250.0,250.0,4.0,,,,,,,,,magenta,cross
0.0,4.0,4.0,0.0,5.0,0.0,0.0,1.0,1.0,phase_2,go,300.0,250.0,5.0,,,,,,,,,gray,flipped triangle
0.0,5.0,0.5,1.0,6.0,6.0,334.3622579996008,1.0,1.0,phase_2,stop,300.0,250.0,3.0,,,,,,,,,orange,diamond
0.0,6.0,1.0,1.0,5.0,5.0,349.6956789999785,1.0,1.0,phase_2,stop,300.0,200.0,3.0,,,,,,,,,magenta,cross
0.0,8.0,4.0,1.0,5.0,5.0,341.7584080002598,1.0,1.0,phase_2,stop,250.0,200.0,3.0,,,,,,,,,cyan,I
0.0,3.0,2.0,0.0,5.0,5.0,336.3369000003331,1.0,1.0,phase_2,go,200.0,200.0,1.0,,,,,,,,,yellow,hexagon
0.0,6.0,1.0,1.0,6.0,0.0,0.0,1.0,1.0,phase_2,stop,200.0,200.0,4.0,,,,,,,,,magenta,cross
0.0,7.0,2.0,1.0,5.0,0.0,0.0,1.0,1.0,phase_2,stop,200.0,250.0,4.0,,,,,,,,,blue,circle
0.0,6.0,1.0,1.0,6.0,0.0,0.0,1.0,1.0,phase_2,stop,250.0,250.0,4.0,,,,,,,,,magenta,cross
0.0,1.0,0.5,0.0,6.0,6.0,772.1078599997782,1.0,1.0,phase_2,go,250.0,300.0,1.0,,,,,,,,,green,square
0.0,1.0,0.5,0.0,5.0,5.0,555.052397000054,1.0,1.0,phase_2,go,250.0,300.0,1.0,,,,,,,,,green,square
0.0,6.0,1.0,1.0,6.0,6.0,436.0948670000653,1.0,1.0,phase_2,stop,250.0,300.0,3.0,,,,,,,,,magenta,cross
0.0,3.0,2.0,0.0,6.0,6.0,715.8420650002881,1.0,1.0,phase_2,go,250.0,250.0,1.0,,,,,,,,,yellow,hexagon
0.0,1.0,0.5,0.0,6.0,6.0,622.184672000003,1.0,1.0,phase_2,go,250.0,250.0,1.0,,,,,,,,,green,square
0.0,6.0,1.0,1.0,6.0,0.0,0.0,1.0,1.0,phase_2,stop,250.0,250.0,4.0,,,,,,,,,magenta,cross
0.0,3.0,2.0,0.0,6.0,6.0,547.1807860003537,1.0,1.0,phase_2,go,250.0,300.0,1.0,,,,,,,,,yellow,hexagon
0.0,5.0,0.5,1.0,5.0,5.0,363.3499779998601,1.0,1.0,phase_2,stop,250.0,300.0,3.0,,,,,,,,,orange,diamond
0.0,8.0,4.0,1.0,5.0,0.0,0.0,1.0,1.0,phase_2,stop,200.0,300.0,4.0,,,,,,,,,cyan,I
0.0,8.0,4.0,1.0,5.0,5.0,707.3426259998996,1.0,1.0,phase_2,go,250.0,300.0,1.0,,,,,,,,,cyan,I
0.0,5.0,0.5,1.0,6.0,0.0,0.0,1.0,1.0,phase_2,stop,250.0,300.0,4.0,,,,,,,,,orange,diamond
0.0,4.0,4.0,0.0,5.0,5.0,568.4722510000029,1.0,1.0,phase_2,go,250.0,350.0,1.0,,,,,,,,,gray,flipped triangle
0.0,7.0,2.0,1.0,5.0,0.0,0.0,1.0,1.0,phase_2,stop,250.0,350.0,4.0,,,,,,,,,blue,circle
0.0,1.0,0.5,0.0,5.0,5.0,936.6095509999468,1.0,1.0,phase_2,go,300.0,350.0,1.0,,,,,,,,,green,square
0.0,6.0,1.0,1.0,5.0,0.0,0.0,1.0,1.0,phase_2,stop,300.0,350.0,4.0,,,,,,,,,magenta,cross
0.0,8.0,4.0,1.0,5.0,5.0,651.0355329996855,1.0,1.0,phase_2,go,350.0,350.0,1.0,,,,,,,,,cyan,I
0.0,1.0,0.5,0.0,6.0,6.0,548.4362930001225,1.0,1.0,phase_2,go,350.0,350.0,1.0,,,,,,,,,green,square
0.0,4.0,4.0,0.0,6.0,6.0,352.4831780000568,1.0,1.0,phase_2,go,350.0,350.0,1.0,,,,,,,,,gray,flipped triangle
0.0,5.0,0.5,1.0,6.0,6.0,383.492995999859,1.0,1.0,phase_2,stop,350.0,350.0,3.0,,,,,,,,,orange,diamond
0.0,3.0,2.0,0.0,5.0,5.0,520.3057549997538,1.0,1.0,phase_2,go,350.0,300.0,1.0,,,,,,,,,yellow,hexagon
0.0,7.0,2.0,1.0,5.0,0.0,0.0,1.0,1.0,phase_2,stop,350.0,300.0,4.0,,,,,,,,,blue,circle
0.0,8.0,4.0,1.0,6.0,0.0,0.0,1.0,1.0,phase_2,stop,400.0,300.0,4.0,,,,,,,,,cyan,I
0.0,2.0,1.0,0.0,6.0,6.0,604.485437999756,1.0,1.0,phase_2,go,400.0,350.0,1.0,,,,,,,,,white,triangle
0.0,8.0,4.0,1.0,6.0,0.0,0.0,1.0,1.0,phase_2,stop,400.0,350.0,4.0,,,,,,,,,cyan,I
0.0,5.0,0.5,1.0,6.0,0.0,0.0,1.0,1.0,phase_2,stop,400.0,400.0,4.0,,,,,,,,,orange,diamond
0.0,6.0,1.0,1.0,6.0,0.0,0.0,1.0,1.0,phase_2,stop,400.0,450.0,4.0,,,,,,,,,magenta,cross
0.0,2.0,1.0,0.0,5.0,5.0,658.1851139999344,1.0,1.0,phase_2,go,400.0,500.0,1.0,,,,,,,,,white,triangle
0.0,2.0,1.0,0.0,6.0,6.0,735.4015239998262,2.0,1.0,phase_2,go,400.0,500.0,1.0,,,,,,,,,white,triangle
0.0,1.0,0.5,0.0,5.0,5.0,603.7679099999878,2.0,1.0,phase_2,go,400.0,500.0,1.0,,,,,,,,,green,square
0.0,1.0,0.5,0.0,5.0,5.0,679.1429340000832,2.0,1.0,phase_2,go,400.0,500.0,1.0,,,,,,,,,green,square
0.0,1.0,0.5,0.0,6.0,6.0,568.3280909997848,2.0,1.0,phase_2,go,400.0,500.0,1.0,,,,,,,,,green,square
0.0,5.0,0.5,1.0,5.0,5.0,528.8838460000989,2.0,1.0,phase_2,go,400.0,500.0,1.0,,,,,,,,,orange,diamond
0.0,3.0,2.0,0.0,6.0,6.0,495.5858280000029,2.0,1.0,phase_2,go,400.0,500.0,1.0,,,,,,,,,yellow,hexagon
0.0,3.0,2.0,0.0,5.0,5.0,557.3741050002354,2.0,1.0,phase_2,go,400.0,500.0,1.0,,,,,,,,,yellow,hexagon
0.0,8.0,4.0,1.0,6.0,0.0,0.0,2.0,1.0,phase_2,stop,400.0,500.0,4.0,,,,,,,,,cyan,I
0.0,3.0,2.0,0.0,5.0,5.0,755.942734999735,2.0,1.0,phase_2,go,400.0,550.0,1.0,,,,,,,,,yellow,hexagon
0.0,7.0,2.0,1.0,5.0,0.0,0.0,2.0,1.0,phase_2,stop,400.0,550.0,4.0,,,,,,,,,blue,circle
0.0,3.0,2.0,0.0,5.0,5.0,826.8061079998006,2.0,1.0,phase_2,go,450.0,550.0,1.0,,,,,,,,,yellow,hexagon
0.0,3.0,2.0,0.0,6.0,6.0,585.9910159997526,2.0,1.0,phase_2,go,450.0,550.0,1.0,,,,,,,,,yellow,hexagon
0.0,7.0,2.0,1.0,5.0,0.0,0.0,2.0,1.0,phase_2,stop,450.0,550.0,4.0,,,,,,,,,blue,circle
0.0,8.0,4.0,1.0,6.0,0.0,0.0,2.0,1.0,phase_2,stop,500.0,550.0,4.0,,,,,,,,,cyan,I
0.0,4.0,4.0,0.0,6.0,6.0,661.1194649999561,2.0,1.0,phase_2,go,500.0,600.0,1.0,,,,,,,,,gray,flipped triangle
0.0,3.0,2.0,0.0,6.0,6.0,334.9001649999081,2.0,1.0,phase_2,go,500.0,600.0,1.0,,,,,,,,,yellow,hexagon
0.0,8.0,4.0,1.0,6.0,6.0,699.3505749996984,2.0,1.0,phase_2,stop,500.0,600.0,3.0,,,,,,,,,cyan,I
0.0,1.0,0.5,0.0,5.0,5.0,705.5889590001243,2.0,1.0,phase_2,go,500.0,550.0,1.0,,,,,,,,,green,square
0.0,7.0,2.0,1.0,6.0,0.0,0.0,2.0,1.0,phase_2,stop,500.0,550.0,4.0,,,,,,,,,blue,circle
0.0,4.0,4.0,0.0,6.0,6.0,1052.5414689996069,2.0,1.0,phase_2,go,500.0,600.0,1.0,,,,,,,,,gray,flipped triangle
0.0,2.0,1.0,0.0,6.0,6.0,677.4039829997491,2.0,1.0,phase_2,go,500.0,600.0,1.0,,,,,,,,,white,triangle
0.0,8.0,4.0,1.0,5.0,0.0,0.0,2.0,1.0,phase_2,stop,500.0,600.0,4.0,,,,,,,,,cyan,I
0.0,5.0,0.5,1.0,5.0,0.0,0.0,2.0,1.0,phase_2,stop,550.0,600.0,4.0,,,,,,,,,orange,diamond
0.0,4.0,4.0,0.0,6.0,6.0,1170.774552000239,2.0,1.0,phase_2,go,600.0,600.0,1.0,,,,,,,,,gray,flipped triangle
0.0,2.0,1.0,0.0,5.0,5.0,733.2321740000225,2.0,1.0,phase_2,go,600.0,600.0,1.0,,,,,,,,,white,triangle
0.0,7.0,2.0,1.0,5.0,5.0,409.1930190002131,2.0,1.0,phase_2,stop,600.0,600.0,3.0,,,,,,,,,blue,circle
0.0,6.0,1.0,1.0,5.0,5.0,1273.3996199999638,2.0,1.0,phase_2,go,550.0,600.0,1.0,,,,,,,,,magenta,cross
0.0,4.0,4.0,0.0,6.0,6.0,669.0581540001403,2.0,1.0,phase_2,go,550.0,600.0,1.0,,,,,,,,,gray,flipped triangle
0.0,1.0,0.5,0.0,5.0,5.0,779.9211970000215,2.0,1.0,phase_2,go,550.0,600.0,1.0,,,,,,,,,green,square
0.0,2.0,1.0,0.0,6.0,6.0,790.2222769998843,2.0,1.0,phase_2,go,550.0,600.0,1.0,,,,,,,,,white,triangle
0.0,7.0,2.0,1.0,5.0,0.0,0.0,2.0,1.0,phase_2,stop,550.0,600.0,4.0,,,,,,,,,blue,circle
0.0,6.0,1.0,1.0,5.0,0.0,0.0,2.0,1.0,phase_2,stop,600.0,600.0,4.0,,,,,,,,,magenta,cross
0.0,6.0,1.0,1.0,5.0,5.0,816.9951680001759,2.0,1.0,phase_2,go,650.0,600.0,1.0,,,,,,,,,magenta,cross
0.0,4.0,4.0,0.0,5.0,5.0,901.3801490000332,2.0,1.0,phase_2,go,650.0,600.0,1.0,,,,,,,,,gray,flipped triangle
0.0,4.0,4.0,0.0,5.0,5.0,938.9307920000648,2.0,1.0,phase_2,go,650.0,600.0,1.0,,,,,,,,,gray,flipped triangle
0.0,5.0,0.5,1.0,6.0,6.0,818.0119559997365,2.0,1.0,phase_2,go,650.0,600.0,1.0,,,,,,,,,orange,diamond
0.0,6.0,1.0,1.0,5.0,5.0,522.1216599998115,3.0,1.0,phase_2,stop,650.0,600.0,3.0,,,,,,,,,magenta,cross
0.0,7.0,2.0,1.0,5.0,5.0,748.7859419998131,3.0,1.0,phase_2,stop,600.0,600.0,3.0,,,,,,,,,blue,circle
0.0,6.0,1.0,1.0,5.0,5.0,1207.7670650000982,3.0,1.0,phase_2,stop,550.0,600.0,3.0,,,,,,,,,magenta,cross
0.0,1.0,0.5,0.0,6.0,6.0,716.8008829999053,3.0,1.0,phase_2,go,500.0,600.0,1.0,,,,,,,,,green,square
0.0,7.0,2.0,1.0,6.0,6.0,645.7444980001128,3.0,1.0,phase_2,stop,500.0,600.0,3.0,,,,,,,,,blue,circle
0.0,6.0,1.0,1.0,6.0,0.0,0.0,3.0,1.0,phase_2,stop,500.0,550.0,4.0,,,,,,,,,magenta,cross
0.0,7.0,2.0,1.0,6.0,6.0,918.9333919998716,3.0,1.0,phase_2,go,500.0,600.0,1.0,,,,,,,,,blue,circle
0.0,6.0,1.0,1.0,6.0,0.0,0.0,3.0,1.0,phase_2,stop,500.0,600.0,4.0,,,,,,,,,magenta,cross
0.0,5.0,0.5,1.0,6.0,6.0,1023.386978000417,3.0,1.0,phase_2,go,500.0,650.0,1.0,,,,,,,,,orange,diamond
0.0,3.0,2.0,0.0,6.0,6.0,419.497384999886,3.0,1.0,phase_2,go,500.0,650.0,1.0,,,,,,,,,yellow,hexagon
0.0,6.0,1.0,1.0,5.0,5.0,966.315226000006,3.0,1.0,phase_2,go,500.0,650.0,1.0,,,,,,,,,magenta,cross
0.0,6.0,1.0,1.0,6.0,6.0,428.1088220000129,3.0,1.0,phase_2,stop,500.0,650.0,3.0,,,,,,,,,magenta,cross
0.0,3.0,2.0,0.0,6.0,6.0,1161.6718610002863,3.0,1.0,phase_2,go,500.0,600.0,1.0,,,,,,,,,yellow,hexagon
0.0,1.0,0.5,0.0,5.0,5.0,965.2652680001664,3.0,1.0,phase_2,go,500.0,600.0,1.0,,,,,,,,,green,square
0.0,7.0,2.0,1.0,6.0,0.0,0.0,3.0,1.0,phase_2,stop,500.0,600.0,4.0,,,,,,,,,blue,circle
0.0,7.0,2.0,1.0,6.0,6.0,808.472355000049,3.0,1.0,phase_2,go,500.0,650.0,1.0,,,,,,,,,blue,circle
0.0,1.0,0.5,0.0,5.0,5.0,863.8336170001821,3.0,1.0,phase_2,go,500.0,650.0,1.0,,,,,,,,,green,square
0.0,5.0,0.5,1.0,6.0,6.0,529.1886059999342,3.0,1.0,phase_2,stop,500.0,650.0,3.0,,,,,,,,,orange,diamond
0.0,5.0,0.5,1.0,6.0,0.0,0.0,3.0,1.0,phase_2,stop,500.0,600.0,4.0,,,,,,,,,orange,diamond
0.0,8.0,4.0,1.0,5.0,0.0,0.0,3.0,1.0,phase_2,stop,500.0,650.0,4.0,,,,,,,,,cyan,I
0.0,4.0,4.0,0.0,5.0,5.0,725.0081980000687,3.0,1.0,phase_2,go,550.0,650.0,1.0,,,,,,,,,gray,flipped triangle
0.0,4.0,4.0,0.0,5.0,6.0,723.7033930000507,3.0,1.0,phase_2,go,550.0,650.0,2.0,,,,,,,,,gray,flipped triangle
0.0,8.0,4.0,1.0,5.0,5.0,996.0944049998944,3.0,1.0,phase_2,go,550.0,650.0,1.0,,,,,,,,,cyan,I
0.0,8.0,4.0,1.0,6.0,6.0,751.5755079998598,3.0,1.0,phase_2,stop,550.0,650.0,3.0,,,,,,,,,cyan,I
0.0,8.0,4.0,1.0,5.0,5.0,967.5841709999986,3.0,1.0,phase_2,go,550.0,600.0,1.0,,,,,,,,,cyan,I
0.0,1.0,0.5,0.0,6.0,6.0,844.7213540002849,3.0,1.0,phase_2,go,550.0,600.0,1.0,,,,,,,,,green,square
0.0,1.0,0.5,0.0,6.0,6.0,818.911257000309,3.0,1.0,phase_2,go,550.0,600.0,1.0,,,,,,,,,green,square
0.0,2.0,1.0,0.0,6.0,6.0,826.7244870003196,3.0,1.0,phase_2,go,550.0,600.0,1.0,,,,,,,,,white,triangle
0.0,2.0,1.0,0.0,5.0,5.0,911.0729170001832,3.0,1.0,phase_2,go,550.0,600.0,1.0,,,,,,,,,white,triangle
0.0,2.0,1.0,0.0,5.0,5.0,881.1513030000242,3.0,1.0,phase_2,go,550.0,600.0,1.0,,,,,,,,,white,triangle
0.0,7.0,2.0,1.0,5.0,0.0,0.0,3.0,1.0,phase_2,stop,550.0,600.0,4.0,,,,,,,,,blue,circle
0.0,1.0,0.5,0.0,5.0,5.0,743.0998400000135,3.0,1.0,phase_2,go,600.0,600.0,1.0,,,,,,,,,green,square
0.0,2.0,1.0,0.0,6.0,6.0,687.4529919996348,3.0,1.0,phase_2,go,600.0,600.0,1.0,,,,,,,,,white,triangle
0.0,6.0,1.0,1.0,5.0,5.0,539.8142190001636,3.0,1.0,phase_2,go,600.0,600.0,1.0,,,,,,,,,magenta,cross
0.0,3.0,2.0,0.0,6.0,6.0,539.8321419997956,3.0,1.0,phase_2,go,600.0,600.0,1.0,,,,,,,,,yellow,hexagon
0.0,3.0,2.0,0.0,6.0,6.0,760.0383549997787,3.0,1.0,phase_2,go,600.0,600.0,1.0,,,,,,,,,yellow,hexagon
0.0,2.0,1.0,0.0,5.0,5.0,812.2104010003568,4.0,1.0,phase_2,go,600.0,600.0,1.0,,,,,,,,,white,triangle
0.0,7.0,2.0,1.0,6.0,0.0,0.0,4.0,1.0,phase_2,stop,600.0,600.0,4.0,,,,,,,,,blue,circle
0.0,4.0,4.0,0.0,5.0,5.0,800.599030000285,4.0,1.0,phase_2,go,600.0,650.0,1.0,,,,,,,,,gray,flipped triangle
0.0,5.0,0.5,1.0,5.0,5.0,587.0449359999839,4.0,1.0,phase_2,stop,600.0,650.0,3.0,,,,,,,,,orange,diamond
0.0,5.0,0.5,1.0,6.0,6.0,695.5277370002477,4.0,1.0,phase_2,stop,550.0,650.0,3.0,,,,,,,,,orange,diamond
0.0,4.0,4.0,0.0,6.0,6.0,1377.0883469996988,4.0,1.0,phase_2,go,550.0,600.0,1.0,,,,,,,,,gray,flipped triangle
0.0,3.0,2.0,0.0,5.0,5.0,764.8606860002474,4.0,1.0,phase_2,go,550.0,600.0,1.0,,,,,,,,,yellow,hexagon
0.0,3.0,2.0,0.0,5.0,5.0,1225.7878379996328,4.0,1.0,phase_2,go,550.0,600.0,1.0,,,,,,,,,yellow,hexagon
0.0,1.0,0.5,0.0,5.0,5.0,1116.2545709998994,4.0,1.0,phase_2,go,550.0,600.0,1.0,,,,,,,,,green,square
0.0,7.0,2.0,1.0,5.0,5.0,844.8603190004178,4.0,1.0,phase_2,go,550.0,600.0,1.0,,,,,,,,,blue,circle
0.0,8.0,4.0,1.0,5.0,0.0,0.0,4.0,1.0,phase_2,stop,550.0,600.0,4.0,,,,,,,,,cyan,I
0.0,6.0,1.0,1.0,5.0,0.0,0.0,4.0,1.0,phase_2,stop,600.0,600.0,4.0,,,,,,,,,magenta,cross
0.0,3.0,2.0,0.0,6.0,6.0,817.5085480002053,4.0,1.0,phase_2,go,650.0,600.0,1.0,,,,,,,,,yellow,hexagon
0.0,4.0,4.0,0.0,6.0,6.0,836.3823380000213,4.0,1.0,phase_2,go,650.0,600.0,1.0,,,,,,,,,gray,flipped triangle
0.0,8.0,4.0,1.0,6.0,0.0,0.0,4.0,1.0,phase_2,stop,650.0,600.0,4.0,,,,,,,,,cyan,I
0.0,8.0,4.0,1.0,6.0,6.0,686.2107829997512,4.0,1.0,phase_2,stop,650.0,650.0,3.0,,,,,,,,,cyan,I
0.0,8.0,4.0,1.0,6.0,0.0,0.0,4.0,1.0,phase_2,stop,650.0,600.0,4.0,,,,,,,,,cyan,I
0.0,4.0,4.0,0.0,5.0,5.0,1321.8018219999976,4.0,1.0,phase_2,go,650.0,650.0,1.0,,,,,,,,,gray,flipped triangle
0.0,2.0,1.0,0.0,6.0,6.0,836.137755999971,4.0,1.0,phase_2,go,650.0,650.0,1.0,,,,,,,,,white,triangle
0.0,6.0,1.0,1.0,6.0,0.0,0.0,4.0,1.0,phase_2,stop,650.0,650.0,4.0,,,,,,,,,magenta,cross
0.0,2.0,1.0,0.0,5.0,5.0,1088.737397999921,4.0,1.0,phase_2,go,650.0,700.0,1.0,,,,,,,,,white,triangle
0.0,8.0,4.0,1.0,6.0,6.0,735.4317119998086,4.0,1.0,phase_2,stop,650.0,700.0,3.0,,,,,,,,,cyan,I
0.0,4.0,4.0,0.0,6.0,0.0,0.0,4.0,1.0,phase_2,go,650.0,650.0,5.0,,,,,,,,,gray,flipped triangle
0.0,1.0,0.5,0.0,6.0,6.0,1424.3849550002778,4.0,1.0,phase_2,go,650.0,650.0,1.0,,,,,,,,,green,square
0.0,8.0,4.0,1.0,5.0,0.0,0.0,4.0,1.0,phase_2,stop,650.0,650.0,4.0,,,,,,,,,cyan,I
0.0,6.0,1.0,1.0,6.0,6.0,758.5541559997182,4.0,1.0,phase_2,stop,700.0,650.0,3.0,,,,,,,,,magenta,cross
0.0,3.0,2.0,0.0,6.0,6.0,1365.3074939998078,4.0,1.0,phase_2,go,700.0,600.0,1.0,,,,,,,,,yellow,hexagon
0.0,3.0,2.0,0.0,5.0,5.0,862.8462390001914,4.0,1.0,phase_2,go,700.0,600.0,1.0,,,,,,,,,yellow,hexagon
0.0,1.0,0.5,0.0,6.0,6.0,844.4715900000119,4.0,1.0,phase_2,go,700.0,600.0,1.0,,,,,,,,,green,square
0.0,5.0,0.5,1.0,6.0,0.0,0.0,4.0,1.0,phase_2,stop,700.0,600.0,4.0,,,,,,,,,orange,diamond
0.0,1.0,0.5,0.0,6.0,6.0,751.7810650001593,4.0,1.0,phase_2,go,700.0,650.0,1.0,,,,,,,,,green,square
0.0,3.0,2.0,0.0,6.0,6.0,825.4323730002397,4.0,1.0,phase_2,go,700.0,650.0,1.0,,,,,,,,,yellow,hexagon
0.0,4.0,4.0,0.0,5.0,5.0,807.7607549998902,4.0,1.0,phase_2,go,700.0,650.0,1.0,,,,,,,,,gray,flipped triangle
0.0,7.0,2.0,1.0,6.0,6.0,334.4438650001393,4.0,1.0,phase_2,stop,700.0,650.0,3.0,,,,,,,,,blue,circle
0.0,2.0,1.0,0.0,5.0,5.0,371.1223039999822,4.0,1.0,phase_2,go,700.0,600.0,1.0,,,,,,,,,white,triangle
0.0,7.0,2.0,1.0,5.0,5.0,854.686767000203,4.0,1.0,phase_2,go,700.0,600.0,1.0,,,,,,,,,blue,circle
0.0,1.0,0.5,0.0,5.0,5.0,417.5539240000034,5.0,1.0,phase_2,go,700.0,600.0,1.0,,,,,,,,,green,square
0.0,1.0,0.5,0.0,6.0,6.0,631.9799140001123,5.0,1.0,phase_2,go,700.0,600.0,1.0,,,,,,,,,green,square
0.0,2.0,1.0,0.0,6.0,6.0,838.6720079997758,5.0,1.0,phase_2,go,700.0,600.0,1.0,,,,,,,,,white,triangle
0.0,5.0,0.5,1.0,5.0,5.0,742.6955570003884,5.0,1.0,phase_2,stop,700.0,600.0,3.0,,,,,,,,,orange,diamond
0.0,6.0,1.0,1.0,6.0,0.0,0.0,5.0,1.0,phase_2,stop,650.0,600.0,4.0,,,,,,,,,magenta,cross
0.0,2.0,1.0,0.0,6.0,6.0,771.828868999819,5.0,1.0,phase_2,go,650.0,650.0,1.0,,,,,,,,,white,triangle
0.0,7.0,2.0,1.0,6.0,0.0,0.0,5.0,1.0,phase_2,stop,650.0,650.0,4.0,,,,,,,,,blue,circle
0.0,6.0,1.0,1.0,6.0,6.0,808.6272989999088,5.0,1.0,phase_2,go,650.0,700.0,1.0,,,,,,,,,magenta,cross
0.0,7.0,2.0,1.0,5.0,5.0,707.9304779999802,5.0,1.0,phase_2,go,650.0,700.0,1.0,,,,,,,,,blue,circle
0.0,8.0,4.0,1.0,6.0,0.0,0.0,5.0,1.0,phase_2,stop,650.0,700.0,4.0,,,,,,,,,cyan,I
0.0,4.0,4.0,0.0,6.0,6.0,935.786766000092,5.0,1.0,phase_2,go,650.0,750.0,1.0,,,,,,,,,gray,flipped triangle
0.0,7.0,2.0,1.0,6.0,6.0,629.8312829999304,5.0,1.0,phase_2,stop,650.0,750.0,3.0,,,,,,,,,blue,circle
0.0,8.0,4.0,1.0,5.0,5.0,529.8388459996204,5.0,1.0,phase_2,go,650.0,700.0,1.0,,,,,,,,,cyan,I
0.0,3.0,2.0,0.0,5.0,5.0,370.8318199996938,5.0,1.0,phase_2,go,650.0,700.0,1.0,,,,,,,,,yellow,hexagon
0.0,7.0,2.0,1.0,6.0,6.0,251.6973290003079,5.0,1.0,phase_2,go,650.0,700.0,1.0,,,,,,,,,blue,circle
0.0,5.0,0.5,1.0,6.0,6.0,298.1371800001398,5.0,1.0,phase_2,stop,650.0,700.0,3.0,,,,,,,,,orange,diamond
0.0,4.0,4.0,0.0,5.0,5.0,361.3547879999714,5.0,1.0,phase_2,go,650.0,650.0,1.0,,,,,,,,,gray,flipped triangle
0.0,8.0,4.0,1.0,6.0,6.0,687.1163789996899,5.0,1.0,phase_2,go,650.0,650.0,1.0,,,,,,,,,cyan,I
0.0,4.0,4.0,0.0,6.0,6.0,447.9269170001316,5.0,1.0,phase_2,go,650.0,650.0,1.0,,,,,,,,,gray,flipped triangle
0.0,4.0,4.0,0.0,6.0,6.0,342.9629249999379,5.0,1.0,phase_2,go,650.0,650.0,1.0,,,,,,,,,gray,flipped triangle
0.0,3.0,2.0,0.0,6.0,6.0,511.3746289998744,5.0,1.0,phase_2,go,650.0,650.0,1.0,,,,,,,,,yellow,hexagon
0.0,3.0,2.0,0.0,5.0,5.0,411.5860030001386,5.0,1.0,phase_2,go,650.0,650.0,1.0,,,,,,,,,yellow,hexagon
0.0,5.0,0.5,1.0,5.0,5.0,399.6888459996626,5.0,1.0,phase_2,stop,650.0,650.0,3.0,,,,,,,,,orange,diamond
0.0,1.0,0.5,0.0,5.0,5.0,446.3834749999478,5.0,1.0,phase_2,go,600.0,650.0,1.0,,,,,,,,,green,square
0.0,4.0,4.0,0.0,5.0,5.0,372.8529210002307,5.0,1.0,phase_2,go,600.0,650.0,1.0,,,,,,,,,gray,flipped triangle
0.0,5.0,0.5,1.0,6.0,6.0,672.5941719996626,5.0,1.0,phase_2,go,600.0,650.0,1.0,,,,,,,,,orange,diamond
0.0,8.0,4.0,1.0,5.0,5.0,380.3456780001397,5.0,1.0,phase_2,stop,600.0,650.0,3.0,,,,,,,,,cyan,I
0.0,4.0,4.0,0.0,6.0,6.0,353.5786040001767,5.0,1.0,phase_2,go,550.0,650.0,1.0,,,,,,,,,gray,flipped triangle
0.0,5.0,0.5,1.0,5.0,5.0,371.5443900000537,5.0,1.0,phase_2,stop,550.0,650.0,3.0,,,,,,,,,orange,diamond
0.0,2.0,1.0,0.0,5.0,5.0,849.0847459997894,5.0,1.0,phase_2,go,500.0,650.0,1.0,,,,,,,,,white,triangle
0.0,4.0,4.0,0.0,6.0,6.0,527.937331999965,5.0,1.0,phase_2,go,500.0,650.0,1.0,,,,,,,,,gray,flipped triangle
0.0,4.0,4.0,0.0,5.0,5.0,325.8180559996617,5.0,1.0,phase_2,go,500.0,650.0,1.0,,,,,,,,,gray,flipped triangle
0.0,5.0,0.5,1.0,5.0,5.0,423.0589080002573,5.0,1.0,phase_2,stop,500.0,650.0,3.0,,,,,,,,,orange,diamond
0.0,6.0,1.0,1.0,6.0,6.0,344.2341760001,5.0,1.0,phase_2,stop,450.0,650.0,3.0,,,,,,,,,magenta,cross
0.0,6.0,1.0,1.0,5.0,0.0,0.0,5.0,1.0,phase_2,stop,450.0,600.0,4.0,,,,,,,,,magenta,cross
0.0,4.0,4.0,0.0,6.0,6.0,784.7068899995975,5.0,1.0,phase_2,go,500.0,600.0,1.0,,,,,,,,,gray,flipped triangle
0.0,5.0,0.5,1.0,5.0,5.0,326.1058670000238,6.0,1.0,phase_2,stop,500.0,600.0,3.0,,,,,,,,,orange,diamond
0.0,2.0,1.0,0.0,6.0,6.0,336.292985,6.0,1.0,phase_2,go,450.0,600.0,1.0,,,,,,,,,white,triangle
0.0,2.0,1.0,0.0,5.0,5.0,486.2845779998679,6.0,1.0,phase_2,go,450.0,600.0,1.0,,,,,,,,,white,triangle
0.0,5.0,0.5,1.0,5.0,5.0,354.5868289997997,6.0,1.0,phase_2,go,450.0,600.0,1.0,,,,,,,,,orange,diamond
0.0,8.0,4.0,1.0,6.0,6.0,307.325812000272,6.0,1.0,phase_2,stop,450.0,600.0,3.0,,,,,,,,,cyan,I
0.0,5.0,0.5,1.0,5.0,5.0,503.2965069999591,6.0,1.0,phase_2,stop,450.0,550.0,3.0,,,,,,,,,orange,diamond
0.0,3.0,2.0,0.0,5.0,5.0,391.2258870000187,6.0,1.0,phase_2,go,400.0,550.0,1.0,,,,,,,,,yellow,hexagon
0.0,1.0,0.5,0.0,6.0,6.0,326.2571919999573,6.0,1.0,phase_2,go,400.0,550.0,1.0,,,,,,,,,green,square
0.0,7.0,2.0,1.0,5.0,5.0,577.9822029999195,6.0,1.0,phase_2,stop,400.0,550.0,3.0,,,,,,,,,blue,circle
0.0,7.0,2.0,1.0,5.0,5.0,488.6377210000319,6.0,1.0,phase_2,stop,350.0,550.0,3.0,,,,,,,,,blue,circle
0.0,1.0,0.5,0.0,6.0,6.0,678.6607459998777,6.0,1.0,phase_2,go,300.0,550.0,1.0,,,,,,,,,green,square
0.0,2.0,1.0,0.0,6.0,6.0,418.9556809997157,6.0,1.0,phase_2,go,300.0,550.0,1.0,,,,,,,,,white,triangle
0.0,8.0,4.0,1.0,6.0,6.0,679.4330540001283,6.0,1.0,phase_2,go,300.0,550.0,1.0,,,,,,,,,cyan,I
0.0,6.0,1.0,1.0,6.0,6.0,456.573273000231,6.0,1.0,phase_2,stop,300.0,550.0,3.0,,,,,,,,,magenta,cross
0.0,8.0,4.0,1.0,6.0,6.0,688.0992569999762,6.0,1.0,phase_2,go,300.0,500.0,1.0,,,,,,,,,cyan,I
0.0,6.0,1.0,1.0,5.0,5.0,417.3509030001696,6.0,1.0,phase_2,stop,300.0,500.0,3.0,,,,,,,,,magenta,cross
0.0,3.0,2.0,0.0,6.0,6.0,344.6965739999541,6.0,1.0,phase_2,go,250.0,500.0,1.0,,,,,,,,,yellow,hexagon
0.0,1.0,0.5,0.0,6.0,6.0,308.8358909999442,6.0,1.0,phase_2,go,250.0,500.0,1.0,,,,,,,,,green,square
0.0,1.0,0.5,0.0,5.0,5.0,382.3718669996196,6.0,1.0,phase_2,go,250.0,500.0,1.0,,,,,,,,,green,square
0.0,2.0,1.0,0.0,5.0,5.0,326.2080029999197,6.0,1.0,phase_2,go,250.0,500.0,1.0,,,,,,,,,white,triangle
0.0,4.0,4.0,0.0,5.0,5.0,781.6702049999549,6.0,1.0,phase_2,go,250.0,500.0,1.0,,,,,,,,,gray,flipped triangle
0.0,7.0,2.0,1.0,6.0,0.0,0.0,6.0,1.0,phase_2,stop,250.0,500.0,4.0,,,,,,,,,blue,circle
0.0,4.0,4.0,0.0,6.0,6.0,856.1047779999171,6.0,1.0,phase_2,go,250.0,550.0,1.0,,,,,,,,,gray,flipped triangle
0.0,8.0,4.0,1.0,5.0,0.0,0.0,6.0,1.0,phase_2,stop,250.0,550.0,4.0,,,,,,,,,cyan,I
0.0,2.0,1.0,0.0,5.0,5.0,797.5214130001405,6.0,1.0,phase_2,go,300.0,550.0,1.0,,,,,,,,,white,triangle
0.0,2.0,1.0,0.0,6.0,6.0,614.7968499999479,6.0,1.0,phase_2,go,300.0,550.0,1.0,,,,,,,,,white,triangle
0.0,1.0,0.5,0.0,6.0,6.0,475.3344609998748,6.0,1.0,phase_2,go,300.0,550.0,1.0,,,,,,,,,green,square
0.0,3.0,2.0,0.0,6.0,6.0,484.9813840000934,6.0,1.0,phase_2,go,300.0,550.0,1.0,,,,,,,,,yellow,hexagon
0.0,7.0,2.0,1.0,5.0,0.0,0.0,6.0,1.0,phase_2,stop,300.0,550.0,4.0,,,,,,,,,blue,circle
0.0,2.0,1.0,0.0,5.0,5.0,634.5605720002823,6.0,1.0,phase_2,go,350.0,550.0,1.0,,,,,,,,,white,triangle
0.0,4.0,4.0,0.0,6.0,6.0,520.4375130001608,6.0,1.0,phase_2,go,350.0,550.0,1.0,,,,,,,,,gray,flipped triangle
0.0,3.0,2.0,0.0,5.0,5.0,437.3518480001621,6.0,1.0,phase_2,go,350.0,550.0,1.0,,,,,,,,,yellow,hexagon
0.0,6.0,1.0,1.0,5.0,5.0,315.7698810000511,6.0,1.0,phase_2,stop,350.0,550.0,3.0,,,,,,,,,magenta,cross
0.0,5.0,0.5,1.0,5.0,5.0,677.9253810000228,6.0,1.0,phase_2,go,300.0,550.0,1.0,,,,,,,,,orange,diamond
0.0,6.0,1.0,1.0,6.0,6.0,325.859003000005,6.0,1.0,phase_2,stop,300.0,550.0,3.0,,,,,,,,,magenta,cross
0.0,3.0,2.0,0.0,5.0,5.0,557.5101860003997,6.0,1.0,phase_2,go,300.0,500.0,1.0,,,,,,,,,yellow,hexagon
0.0,5.0,0.5,1.0,6.0,6.0,362.7948650000689,7.0,1.0,phase_2,go,300.0,500.0,1.0,,,,,,,,,orange,diamond
0.0,7.0,2.0,1.0,6.0,6.0,493.9342350003244,7.0,1.0,phase_2,stop,300.0,500.0,3.0,,,,,,,,,blue,circle
0.0,4.0,4.0,0.0,5.0,5.0,595.6664400000591,7.0,1.0,phase_2,go,300.0,450.0,1.0,,,,,,,,,gray,flipped triangle
0.0,7.0,2.0,1.0,6.0,6.0,428.4996930000488,7.0,1.0,phase_2,stop,300.0,450.0,3.0,,,,,,,,,blue,circle
0.0,3.0,2.0,0.0,6.0,6.0,483.8018270002067,7.0,1.0,phase_2,go,300.0,400.0,1.0,,,,,,,,,yellow,hexagon
0.0,8.0,4.0,1.0,5.0,0.0,0.0,7.0,1.0,phase_2,stop,300.0,400.0,4.0,,,,,,,,,cyan,I
0.0,6.0,1.0,1.0,5.0,5.0,624.1398290003417,7.0,1.0,phase_2,go,350.0,400.0,1.0,,,,,,,,,magenta,cross
0.0,5.0,0.5,1.0,5.0,0.0,0.0,7.0,1.0,phase_2,stop,350.0,400.0,4.0,,,,,,,,,orange,diamond
0.0,1.0,0.5,0.0,5.0,5.0,593.8127320000604,7.0,1.0,phase_2,go,400.0,400.0,1.0,,,,,,,,,green,square
0.0,8.0,4.0,1.0,6.0,6.0,497.7679280000302,7.0,1.0,phase_2,stop,400.0,400.0,3.0,,,,,,,,,cyan,I
0.0,2.0,1.0,0.0,6.0,6.0,557.5997030000508,7.0,1.0,phase_2,go,400.0,350.0,1.0,,,,,,,,,white,triangle
0.0,2.0,1.0,0.0,5.0,5.0,513.8474979999046,7.0,1.0,phase_2,go,400.0,350.0,1.0,,,,,,,,,white,triangle
0.0,8.0,4.0,1.0,5.0,5.0,500.7154340000852,7.0,1.0,phase_2,stop,400.0,350.0,3.0,,,,,,,,,cyan,I
0.0,2.0,1.0,0.0,6.0,6.0,521.4457150000271,7.0,1.0,phase_2,go,350.0,350.0,1.0,,,,,,,,,white,triangle
0.0,5.0,0.5,1.0,6.0,6.0,396.335123999961,7.0,1.0,phase_2,stop,350.0,350.0,3.0,,,,,,,,,orange,diamond
0.0,4.0,4.0,0.0,6.0,6.0,782.3551650003537,7.0,1.0,phase_2,go,350.0,300.0,1.0,,,,,,,,,gray,flipped triangle
0.0,2.0,1.0,0.0,5.0,5.0,920.0122540000848,7.0,1.0,phase_2,go,350.0,300.0,1.0,,,,,,,,,white,triangle
0.0,4.0,4.0,0.0,6.0,6.0,575.9084410001378,7.0,1.0,phase_2,go,350.0,300.0,1.0,,,,,,,,,gray,flipped triangle
0.0,7.0,2.0,1.0,6.0,0.0,0.0,7.0,1.0,phase_2,stop,350.0,300.0,4.0,,,,,,,,,blue,circle
0.0,3.0,2.0,0.0,5.0,5.0,549.0200269996421,7.0,1.0,phase_2,go,350.0,350.0,1.0,,,,,,,,,yellow,hexagon
0.0,7.0,2.0,1.0,6.0,6.0,346.119574000113,7.0,1.0,phase_2,go,350.0,350.0,1.0,,,,,,,,,blue,circle
0.0,1.0,0.5,0.0,5.0,5.0,333.7726499999007,7.0,1.0,phase_2,go,350.0,350.0,1.0,,,,,,,,,green,square
0.0,2.0,1.0,0.0,6.0,6.0,465.2038580002227,7.0,1.0,phase_2,go,350.0,350.0,1.0,,,,,,,,,white,triangle
0.0,6.0,1.0,1.0,6.0,6.0,336.3881939999373,7.0,1.0,phase_2,go,350.0,350.0,1.0,,,,,,,,,magenta,cross
0.0,4.0,4.0,0.0,5.0,5.0,583.2576110001355,7.0,1.0,phase_2,go,350.0,350.0,1.0,,,,,,,,,gray,flipped triangle
0.0,3.0,2.0,0.0,5.0,5.0,373.2018750001771,7.0,1.0,phase_2,go,350.0,350.0,1.0,,,,,,,,,yellow,hexagon
0.0,4.0,4.0,0.0,5.0,5.0,370.8937869996589,7.0,1.0,phase_2,go,350.0,350.0,1.0,,,,,,,,,gray,flipped triangle
0.0,2.0,1.0,0.0,6.0,6.0,316.3825399997222,7.0,1.0,phase_2,go,350.0,350.0,1.0,,,,,,,,,white,triangle
0.0,5.0,0.5,1.0,6.0,6.0,404.3876609998733,7.0,1.0,phase_2,stop,350.0,350.0,3.0,,,,,,,,,orange,diamond
0.0,7.0,2.0,1.0,6.0,0.0,0.0,7.0,1.0,phase_2,stop,350.0,300.0,4.0,,,,,,,,,blue,circle
0.0,4.0,4.0,0.0,5.0,5.0,371.0358599996652,7.0,1.0,phase_2,go,350.0,350.0,1.0,,,,,,,,,gray,flipped triangle
0.0,6.0,1.0,1.0,6.0,6.0,297.6896480004143,7.0,1.0,phase_2,go,350.0,350.0,1.0,,,,,,,,,magenta,cross
0.0,6.0,1.0,1.0,5.0,0.0,0.0,7.0,1.0,phase_2,stop,350.0,350.0,4.0,,,,,,,,,magenta,cross
0.0,1.0,0.5,0.0,6.0,6.0,549.8730350000187,7.0,1.0,phase_2,go,400.0,350.0,1.0,,,,,,,,,green,square
0.0,5.0,0.5,1.0,5.0,5.0,613.7204960000417,7.0,1.0,phase_2,go,400.0,350.0,1.0,,,,,,,,,orange,diamond
0.0,6.0,1.0,1.0,5.0,5.0,434.0262480000092,7.0,1.0,phase_2,stop,400.0,350.0,3.0,,,,,,,,,magenta,cross
0.0,3.0,2.0,0.0,5.0,5.0,392.648551000093,8.0,1.0,phase_2,go,350.0,350.0,1.0,,,,,,,,,yellow,hexagon
0.0,8.0,4.0,1.0,6.0,6.0,382.0495409995601,8.0,1.0,phase_2,stop,350.0,350.0,3.0,,,,,,,,,cyan,I
0.0,5.0,0.5,1.0,6.0,0.0,0.0,8.0,1.0,phase_2,stop,350.0,300.0,4.0,,,,,,,,,orange,diamond
0.0,4.0,4.0,0.0,5.0,5.0,522.759885999676,8.0,1.0,phase_2,go,350.0,350.0,1.0,,,,,,,,,gray,flipped triangle
0.0,2.0,1.0,0.0,6.0,6.0,353.2670449999386,8.0,1.0,phase_2,go,350.0,350.0,1.0,,,,,,,,,white,triangle
0.0,6.0,1.0,1.0,6.0,6.0,521.7832700000145,8.0,1.0,phase_2,go,350.0,350.0,1.0,,,,,,,,,magenta,cross
0.0,5.0,0.5,1.0,6.0,6.0,382.5149009999222,8.0,1.0,phase_2,stop,350.0,350.0,3.0,,,,,,,,,orange,diamond
0.0,1.0,0.5,0.0,6.0,6.0,309.0318330000627,8.0,1.0,phase_2,go,350.0,300.0,1.0,,,,,,,,,green,square
0.0,7.0,2.0,1.0,6.0,6.0,354.9336129999574,8.0,1.0,phase_2,go,350.0,300.0,1.0,,,,,,,,,blue,circle
0.0,5.0,0.5,1.0,5.0,0.0,0.0,8.0,1.0,phase_2,stop,350.0,300.0,4.0,,,,,,,,,orange,diamond
0.0,3.0,2.0,0.0,6.0,6.0,261.096262999672,8.0,1.0,phase_2,go,400.0,300.0,1.0,,,,,,,,,yellow,hexagon
0.0,2.0,1.0,0.0,5.0,5.0,605.0569999997606,8.0,1.0,phase_2,go,400.0,300.0,1.0,,,,,,,,,white,triangle
0.0,1.0,0.5,0.0,5.0,5.0,419.0473059998112,8.0,1.0,phase_2,go,400.0,300.0,1.0,,,,,,,,,green,square
0.0,2.0,1.0,0.0,5.0,5.0,325.8110579999993,8.0,1.0,phase_2,go,400.0,300.0,1.0,,,,,,,,,white,triangle
0.0,8.0,4.0,1.0,5.0,5.0,381.1076780002622,8.0,1.0,phase_2,stop,400.0,300.0,3.0,,,,,,,,,cyan,I
0.0,2.0,1.0,0.0,5.0,5.0,670.3194820001954,8.0,1.0,phase_2,go,350.0,300.0,1.0,,,,,,,,,white,triangle
0.0,5.0,0.5,1.0,5.0,5.0,380.6896579999375,8.0,1.0,phase_2,stop,350.0,300.0,3.0,,,,,,,,,orange,diamond
0.0,6.0,1.0,1.0,5.0,0.0,0.0,8.0,1.0,phase_2,stop,300.0,300.0,4.0,,,,,,,,,magenta,cross
0.0,2.0,1.0,0.0,5.0,5.0,615.4643500003658,8.0,1.0,phase_2,go,350.0,300.0,1.0,,,,,,,,,white,triangle
0.0,7.0,2.0,1.0,6.0,0.0,0.0,8.0,1.0,phase_2,stop,350.0,300.0,4.0,,,,,,,,,blue,circle
0.0,8.0,4.0,1.0,6.0,0.0,0.0,8.0,1.0,phase_2,stop,350.0,350.0,4.0,,,,,,,,,cyan,I
0.0,8.0,4.0,1.0,5.0,5.0,558.5153450001599,8.0,1.0,phase_2,stop,350.0,400.0,3.0,,,,,,,,,cyan,I
0.0,3.0,2.0,0.0,6.0,6.0,473.8758539997434,8.0,1.0,phase_2,go,300.0,400.0,1.0,,,,,,,,,yellow,hexagon
0.0,5.0,0.5,1.0,5.0,0.0,0.0,8.0,1.0,phase_2,stop,300.0,400.0,4.0,,,,,,,,,orange,diamond
0.0,7.0,2.0,1.0,5.0,5.0,479.0665190002983,8.0,1.0,phase_2,stop,350.0,400.0,3.0,,,,,,,,,blue,circle
0.0,3.0,2.0,0.0,5.0,5.0,649.9335550006435,8.0,1.0,phase_2,go,300.0,400.0,1.0,,,,,,,,,yellow,hexagon
0.0,7.0,2.0,1.0,5.0,0.0,0.0,8.0,1.0,phase_2,go,300.0,400.0,5.0,,,,,,,,,blue,circle
0.0,8.0,4.0,1.0,5.0,5.0,655.3180629998678,8.0,1.0,phase_2,go,300.0,400.0,1.0,,,,,,,,,cyan,I
0.0,3.0,2.0,0.0,5.0,5.0,596.5584909999961,8.0,1.0,phase_2,go,300.0,400.0,1.0,,,,,,,,,yellow,hexagon
0.0,1.0,0.5,0.0,5.0,5.0,633.9914620002673,8.0,1.0,phase_2,go,300.0,400.0,1.0,,,,,,,,,green,square
0.0,1.0,0.5,0.0,6.0,6.0,324.4900899999265,8.0,1.0,phase_2,go,300.0,400.0,1.0,,,,,,,,,green,square
0.0,5.0,0.5,1.0,6.0,6.0,390.0919369998519,8.0,1.0,phase_2,go,300.0,400.0,1.0,,,,,,,,,orange,diamond
0.0,7.0,2.0,1.0,5.0,0.0,0.0,8.0,1.0,phase_2,stop,300.0,400.0,4.0,,,,,,,,,blue,circle
0.0,2.0,1.0,0.0,6.0,6.0,371.9116469992514,8.0,1.0,phase_2,go,350.0,400.0,1.0,,,,,,,,,white,triangle
0.0,5.0,0.5,1.0,5.0,5.0,433.5864510003375,8.0,1.0,phase_2,stop,350.0,400.0,3.0,,,,,,,,,orange,diamond
0.0,1.0,0.5,0.0,5.0,5.0,380.4405759992733,8.0,1.0,phase_2,go,300.0,400.0,1.0,,,,,,,,,green,square
0.0,5.0,0.5,1.0,7.0,4.0,2976.323146999676,1.0,2.0,phase_3,,,,,580.0,5.0,348.0,464.0,232.0,580.0,116.0,696.0,orange,diamond
0.0,5.0,0.5,1.0,7.0,2.0,4083.564018999823,1.0,1.0,phase_3,,,,,692.0,4.0,346.0,692.0,173.0,865.0,1038.0,519.0,orange,diamond
0.0,1.0,0.5,0.0,7.0,5.0,3743.386602000101,1.0,1.0,phase_3,,,,,464.0,4.0,580.0,116.0,348.0,696.0,464.0,232.0,green,square
0.0,4.0,4.0,0.0,7.0,3.0,3516.5893359999245,1.0,1.0,phase_3,,,,,810.0,6.0,675.0,405.0,810.0,135.0,540.0,270.0,gray,flipped triangle
0.0,2.0,1.0,0.0,7.0,4.0,2671.6356899996754,1.0,1.0,phase_3,,,,,135.0,1.0,405.0,540.0,675.0,135.0,270.0,810.0,white,triangle
0.0,2.0,1.0,0.0,7.0,1.0,2000.8679020002091,1.0,1.0,phase_3,,,,,540.0,4.0,540.0,270.0,405.0,810.0,135.0,675.0,white,triangle
0.0,6.0,1.0,1.0,7.0,6.0,3559.2242739994617,1.0,1.0,phase_3,,,,,232.0,2.0,696.0,348.0,116.0,464.0,580.0,232.0,magenta,cross
0.0,2.0,1.0,0.0,7.0,4.0,4267.259424999793,1.0,1.0,phase_3,,,,,462.0,3.0,154.0,924.0,770.0,462.0,308.0,616.0,white,triangle
0.0,6.0,1.0,1.0,7.0,2.0,2871.4160640001865,1.0,1.0,phase_3,,,,,768.0,4.0,576.0,768.0,960.0,192.0,1152.0,384.0,magenta,cross
0.0,3.0,2.0,0.0,7.0,1.0,1820.396854000137,1.0,1.0,phase_3,,,,,519.0,3.0,519.0,173.0,346.0,1038.0,865.0,692.0,yellow,hexagon
0.0,1.0,0.5,0.0,7.0,6.0,2616.608225000164,1.0,1.0,phase_3,,,,,154.0,1.0,924.0,616.0,308.0,462.0,770.0,154.0,green,square
0.0,5.0,0.5,1.0,7.0,3.0,3179.4663949995083,1.0,1.0,phase_3,,,,,308.0,2.0,154.0,462.0,308.0,616.0,924.0,770.0,orange,diamond
0.0,8.0,4.0,1.0,7.0,1.0,2019.206062000194,1.0,1.0,phase_3,,,,,464.0,4.0,464.0,696.0,116.0,580.0,232.0,348.0,cyan,I
0.0,7.0,2.0,1.0,7.0,5.0,2204.7832820007898,1.0,1.0,phase_3,,,,,154.0,1.0,924.0,770.0,462.0,616.0,154.0,308.0,blue,circle
0.0,1.0,0.5,0.0,7.0,2.0,3294.061769000109,1.0,1.0,phase_3,,,,,692.0,4.0,346.0,692.0,519.0,173.0,1038.0,865.0,green,square
0.0,7.0,2.0,1.0,7.0,4.0,2886.8141339999056,1.0,1.0,phase_3,,,,,540.0,4.0,810.0,405.0,135.0,540.0,270.0,675.0,blue,circle
0.0,8.0,4.0,1.0,7.0,5.0,1952.02065400008,1.0,1.0,phase_3,,,,,462.0,3.0,770.0,308.0,154.0,924.0,462.0,616.0,cyan,I
0.0,6.0,1.0,1.0,7.0,1.0,1814.398288999655,1.0,1.0,phase_3,,,,,308.0,2.0,308.0,616.0,770.0,154.0,924.0,462.0,magenta,cross
0.0,8.0,4.0,1.0,7.0,6.0,3269.798827999693,1.0,1.0,phase_3,,,,,519.0,3.0,1038.0,692.0,865.0,346.0,173.0,519.0,cyan,I
0.0,3.0,2.0,0.0,7.0,1.0,1822.5794320005664,1.0,1.0,phase_3,,,,,405.0,3.0,405.0,540.0,810.0,270.0,135.0,675.0,yellow,hexagon
0.0,7.0,2.0,1.0,7.0,6.0,2656.2671090005097,2.0,1.0,phase_3,,,,,173.0,1.0,865.0,692.0,346.0,519.0,1038.0,173.0,blue,circle
0.0,1.0,0.5,0.0,7.0,2.0,2611.4815439996164,2.0,1.0,phase_3,,,,,540.0,4.0,270.0,540.0,135.0,675.0,810.0,405.0,green,square
0.0,4.0,4.0,0.0,7.0,5.0,1361.7818170005194,2.0,1.0,phase_3,,,,,405.0,3.0,135.0,675.0,540.0,270.0,405.0,810.0,gray,flipped triangle
0.0,6.0,1.0,1.0,7.0,6.0,2681.617049999659,2.0,1.0,phase_3,,,,,405.0,3.0,540.0,270.0,810.0,675.0,135.0,405.0,magenta,cross
0.0,7.0,2.0,1.0,7.0,2.0,1992.8304840004785,2.0,1.0,phase_3,,,,,308.0,2.0,616.0,308.0,924.0,154.0,770.0,462.0,blue,circle
0.0,7.0,2.0,1.0,7.0,6.0,4181.766059000438,2.0,1.0,phase_3,,,,,696.0,6.0,116.0,232.0,580.0,348.0,464.0,696.0,blue,circle
0.0,6.0,1.0,1.0,7.0,3.0,2987.375047999194,2.0,1.0,phase_3,,,,,1038.0,6.0,692.0,519.0,1038.0,173.0,865.0,346.0,magenta,cross
0.0,3.0,2.0,0.0,7.0,3.0,2295.495433999349,2.0,1.0,phase_3,,,,,696.0,6.0,348.0,116.0,696.0,580.0,464.0,232.0,yellow,hexagon
0.0,8.0,4.0,1.0,7.0,5.0,2612.7580670008683,2.0,1.0,phase_3,,,,,810.0,6.0,675.0,405.0,270.0,540.0,810.0,135.0,cyan,I
0.0,6.0,1.0,1.0,7.0,6.0,2018.3149650001724,2.0,1.0,phase_3,,,,,384.0,2.0,1152.0,960.0,192.0,768.0,576.0,384.0,magenta,cross
0.0,7.0,2.0,1.0,7.0,1.0,1677.1259489996737,2.0,1.0,phase_3,,,,,135.0,1.0,135.0,270.0,675.0,405.0,540.0,810.0,blue,circle
0.0,4.0,4.0,0.0,7.0,6.0,3695.54363899988,2.0,1.0,phase_3,,,,,346.0,2.0,519.0,692.0,1038.0,865.0,173.0,346.0,gray,flipped triangle
0.0,1.0,0.5,0.0,7.0,2.0,1473.3851250002772,2.0,1.0,phase_3,,,,,576.0,3.0,768.0,576.0,960.0,192.0,1152.0,384.0,green,square
0.0,5.0,0.5,1.0,7.0,4.0,2295.384774000013,2.0,1.0,phase_3,,,,,232.0,2.0,464.0,696.0,348.0,232.0,116.0,580.0,orange,diamond
0.0,6.0,1.0,1.0,7.0,1.0,875.8644429999549,2.0,1.0,phase_3,,,,,675.0,5.0,675.0,540.0,405.0,135.0,810.0,270.0,magenta,cross
0.0,7.0,2.0,1.0,7.0,2.0,3676.321461000043,2.0,1.0,phase_3,,,,,768.0,4.0,576.0,768.0,384.0,1152.0,192.0,960.0,blue,circle
0.0,6.0,1.0,1.0,7.0,6.0,1998.3274979995256,2.0,2.0,phase_3,,,,,580.0,5.0,696.0,464.0,348.0,116.0,232.0,580.0,magenta,cross
0.0,4.0,4.0,0.0,7.0,5.0,1283.0661480002163,2.0,2.0,phase_3,,,,,960.0,5.0,768.0,1152.0,384.0,576.0,960.0,192.0,gray,flipped triangle
0.0,4.0,4.0,0.0,7.0,2.0,1503.529389000505,2.0,1.0,phase_3,,,,,462.0,3.0,616.0,462.0,924.0,308.0,154.0,770.0,gray,flipped triangle
0.0,8.0,4.0,1.0,7.0,5.0,905.1186710003094,2.0,1.0,phase_3,,,,,1152.0,6.0,960.0,192.0,576.0,768.0,1152.0,384.0,cyan,I
0.0,4.0,4.0,0.0,7.0,2.0,849.1385250008534,3.0,1.0,phase_3,,,,,462.0,3.0,616.0,462.0,770.0,924.0,154.0,308.0,gray,flipped triangle
0.0,3.0,2.0,0.0,7.0,6.0,1757.800426000358,3.0,1.0,phase_3,,,,,692.0,4.0,865.0,1038.0,346.0,173.0,519.0,692.0,yellow,hexagon
0.0,3.0,2.0,0.0,7.0,2.0,1823.9568259996304,3.0,1.0,phase_3,,,,,308.0,2.0,924.0,308.0,770.0,616.0,462.0,154.0,yellow,hexagon
0.0,4.0,4.0,0.0,7.0,1.0,2182.217976999709,3.0,1.0,phase_3,,,,,768.0,4.0,768.0,576.0,960.0,1152.0,384.0,192.0,gray,flipped triangle
0.0,7.0,2.0,1.0,7.0,5.0,1686.6762379995637,3.0,1.0,phase_3,,,,,580.0,5.0,116.0,696.0,348.0,464.0,580.0,232.0,blue,circle
0.0,2.0,1.0,0.0,7.0,1.0,2282.7254090007045,3.0,1.0,phase_3,,,,,519.0,3.0,519.0,865.0,173.0,346.0,692.0,1038.0,white,triangle
0.0,2.0,1.0,0.0,7.0,5.0,1296.8558940001458,3.0,1.0,phase_3,,,,,232.0,2.0,580.0,464.0,348.0,116.0,232.0,696.0,white,triangle
0.0,1.0,0.5,0.0,7.0,6.0,2591.780208000273,3.0,1.0,phase_3,,,,,1038.0,6.0,173.0,346.0,519.0,865.0,692.0,1038.0,green,square
0.0,3.0,2.0,0.0,7.0,1.0,2214.551374000621,3.0,1.0,phase_3,,,,,540.0,4.0,540.0,270.0,135.0,405.0,810.0,675.0,yellow,hexagon
0.0,7.0,2.0,1.0,7.0,6.0,2817.2855400007397,3.0,1.0,phase_3,,,,,384.0,2.0,960.0,1152.0,768.0,576.0,192.0,384.0,blue,circle
0.0,2.0,1.0,0.0,7.0,3.0,2169.596263999665,3.0,1.0,phase_3,,,,,770.0,5.0,462.0,154.0,770.0,924.0,308.0,616.0,white,triangle
0.0,6.0,1.0,1.0,7.0,5.0,1507.2441789998263,3.0,1.0,phase_3,,,,,462.0,3.0,308.0,616.0,154.0,924.0,462.0,770.0,magenta,cross
0.0,8.0,4.0,1.0,7.0,3.0,1843.5197850003533,3.0,1.0,phase_3,,,,,348.0,3.0,232.0,116.0,348.0,696.0,464.0,580.0,cyan,I
0.0,5.0,0.5,1.0,7.0,1.0,1116.9050429998606,3.0,1.0,phase_3,,,,,540.0,4.0,540.0,675.0,405.0,810.0,135.0,270.0,orange,diamond
0.0,2.0,1.0,0.0,7.0,1.0,2332.95748799992,3.0,1.0,phase_3,,,,,192.0,1.0,192.0,1152.0,576.0,768.0,384.0,960.0,white,triangle
0.0,8.0,4.0,1.0,7.0,5.0,1608.4854350001478,3.0,1.0,phase_3,,,,,173.0,1.0,346.0,1038.0,692.0,519.0,173.0,865.0,cyan,I
0.0,5.0,0.5,1.0,7.0,4.0,839.5719289992485,3.0,1.0,phase_3,,,,,192.0,1.0,1152.0,960.0,576.0,192.0,768.0,384.0,orange,diamond
0.0,1.0,0.5,0.0,7.0,2.0,945.1315229998728,3.0,1.0,phase_3,,,,,135.0,1.0,540.0,135.0,810.0,675.0,405.0,270.0,green,square
0.0,5.0,0.5,1.0,7.0,6.0,1541.1724639998283,3.0,1.0,phase_3,,,,,770.0,5.0,462.0,616.0,154.0,308.0,924.0,770.0,orange,diamond
0.0,8.0,4.0,1.0,7.0,1.0,1397.1863619999567,3.0,1.0,phase_3,,,,,405.0,3.0,405.0,270.0,675.0,135.0,810.0,540.0,cyan,I
0.0,4.0,4.0,0.0,7.0,5.0,1132.106589000614,4.0,1.0,phase_3,,,,,348.0,3.0,116.0,232.0,696.0,580.0,348.0,464.0,gray,flipped triangle
0.0,3.0,2.0,0.0,7.0,1.0,1398.2183910002275,4.0,1.0,phase_3,,,,,154.0,1.0,154.0,616.0,462.0,308.0,924.0,770.0,yellow,hexagon
0.0,1.0,0.5,0.0,7.0,5.0,1290.0267949999034,4.0,1.0,phase_3,,,,,308.0,2.0,770.0,616.0,924.0,462.0,308.0,154.0,green,square
0.0,5.0,0.5,1.0,7.0,1.0,1677.8615580005862,4.0,1.0,phase_3,,,,,173.0,1.0,173.0,1038.0,692.0,346.0,865.0,519.0,orange,diamond
0.0,4.0,4.0,0.0,7.0,6.0,2811.579528999573,4.0,1.0,phase_3,,,,,173.0,1.0,692.0,519.0,865.0,1038.0,346.0,173.0,gray,flipped triangle
0.0,7.0,2.0,1.0,7.0,6.0,1762.6281370003198,4.0,1.0,phase_3,,,,,519.0,3.0,173.0,692.0,865.0,346.0,1038.0,519.0,blue,circle
0.0,3.0,2.0,0.0,7.0,1.0,1557.0960869999908,4.0,1.0,phase_3,,,,,192.0,1.0,192.0,576.0,384.0,768.0,960.0,1152.0,yellow,hexagon
0.0,4.0,4.0,0.0,7.0,2.0,1461.049321000246,4.0,1.0,phase_3,,,,,232.0,2.0,464.0,232.0,348.0,696.0,580.0,116.0,gray,flipped triangle
0.0,6.0,1.0,1.0,7.0,6.0,1191.03115300004,4.0,1.0,phase_3,,,,,346.0,2.0,173.0,865.0,519.0,1038.0,692.0,346.0,magenta,cross
0.0,8.0,4.0,1.0,7.0,1.0,1724.5444019999925,4.0,1.0,phase_3,,,,,308.0,2.0,308.0,770.0,462.0,924.0,616.0,154.0,cyan,I
0.0,5.0,0.5,1.0,7.0,2.0,2275.6849649995274,4.0,1.0,phase_3,,,,,768.0,4.0,384.0,768.0,960.0,576.0,1152.0,192.0,orange,diamond
0.0,2.0,1.0,0.0,7.0,3.0,3098.764895000386,4.0,1.0,phase_3,,,,,576.0,3.0,960.0,192.0,576.0,768.0,384.0,1152.0,white,triangle
0.0,8.0,4.0,1.0,7.0,2.0,2888.563458000135,4.0,1.0,phase_3,,,,,768.0,4.0,576.0,768.0,1152.0,960.0,384.0,192.0,cyan,I
0.0,5.0,0.5,1.0,7.0,1.0,1918.780496999716,4.0,1.0,phase_3,,,,,135.0,1.0,135.0,270.0,540.0,405.0,810.0,675.0,orange,diamond
0.0,1.0,0.5,0.0,7.0,5.0,1668.0241270005354,4.0,1.0,phase_3,,,,,464.0,4.0,580.0,116.0,232.0,348.0,464.0,696.0,green,square
0.0,1.0,0.5,0.0,7.0,2.0,1372.435320000477,4.0,1.0,phase_3,,,,,384.0,2.0,768.0,384.0,960.0,576.0,192.0,1152.0,green,square
0.0,2.0,1.0,0.0,7.0,5.0,2162.5660930003505,4.0,1.0,phase_3,,,,,173.0,1.0,1038.0,346.0,692.0,519.0,173.0,865.0,white,triangle
0.0,3.0,2.0,0.0,7.0,1.0,1476.6747969997596,4.0,1.0,phase_3,,,,,192.0,1.0,192.0,576.0,384.0,768.0,960.0,1152.0,yellow,hexagon
0.0,2.0,1.0,0.0,7.0,5.0,1191.5353019994654,4.0,1.0,phase_3,,,,,232.0,2.0,464.0,696.0,580.0,116.0,232.0,348.0,white,triangle
0.0,3.0,2.0,0.0,7.0,4.0,1991.344916000344,4.0,1.0,phase_3,,,,,348.0,3.0,116.0,696.0,232.0,348.0,464.0,580.0,yellow,hexagon
