raw_reward_magnitude,stim_reward,stepwise_reward_magnitude,paired_with_stopping,stim_location,response,reaction_time,block,num_trial_presentations,which_phase,stop_signal_trial_type,left_SSD,right_SSD,accuracy,chosen_bidding_amount,chosen_bidding_level,possible_bid_1,possible_bid_2,possible_bid_3,possible_bid_4,possible_bid_5,possible_bid_6,color_text,shape_text
152.0,1.0,1.0,0.0,4.0,4.0,434.3096869999954,1.0,1.0,phase_1,,,,,,,,,,,,,orange,circle
1309.0,4.0,4.0,0.0,3.0,3.0,397.6582559999997,1.0,1.0,phase_1,,,,,,,,,,,,,blue,diamond
651.0,7.0,3.0,1.0,4.0,4.0,403.7296750000223,1.0,1.0,phase_1,,,,,,,,,,,,,gray,hexagon
659.0,7.0,3.0,1.0,4.0,4.0,366.7204450000554,1.0,1.0,phase_1,,,,,,,,,,,,,gray,hexagon
665.0,3.0,3.0,0.0,3.0,3.0,404.1813419999016,1.0,1.0,phase_1,,,,,,,,,,,,,cyan,cross
176.0,1.0,1.0,0.0,1.0,1.0,518.069080000032,1.0,1.0,phase_1,,,,,,,,,,,,,orange,circle
341.0,6.0,2.0,1.0,3.0,3.0,539.5950779999339,1.0,1.0,phase_1,,,,,,,,,,,,,white,flipped triangle
0.0,2.0,0.0,0.0,1.0,1.0,385.9097710000014,1.0,1.0,phase_1,,,,,,,,,,,,,green,triangle
141.0,1.0,1.0,0.0,4.0,4.0,385.0126270000373,1.0,1.0,phase_1,,,,,,,,,,,,,orange,circle
639.0,3.0,3.0,0.0,2.0,2.0,365.9355649999725,1.0,1.0,phase_1,,,,,,,,,,,,,cyan,cross
649.0,3.0,3.0,0.0,3.0,3.0,375.8422490000157,1.0,1.0,phase_1,,,,,,,,,,,,,cyan,cross
170.0,1.0,1.0,0.0,1.0,1.0,432.5372900000275,1.0,1.0,phase_1,,,,,,,,,,,,,orange,circle
0.0,2.0,0.0,0.0,2.0,2.0,375.5879970000251,1.0,1.0,phase_1,,,,,,,,,,,,,green,triangle
1277.0,4.0,4.0,0.0,3.0,3.0,404.6392619999324,1.0,1.0,phase_1,,,,,,,,,,,,,blue,diamond
657.0,3.0,3.0,0.0,1.0,1.0,479.625231,1.0,1.0,phase_1,,,,,,,,,,,,,cyan,cross
1305.0,8.0,4.0,1.0,2.0,2.0,405.1867950000769,1.0,1.0,phase_1,,,,,,,,,,,,,yellow,square
312.0,6.0,2.0,1.0,3.0,3.0,311.2040329999672,1.0,1.0,phase_1,,,,,,,,,,,,,white,flipped triangle
332.0,2.0,2.0,0.0,1.0,1.0,375.9692179999092,1.0,1.0,phase_1,,,,,,,,,,,,,green,triangle
314.0,2.0,2.0,0.0,4.0,4.0,358.5831850000431,1.0,1.0,phase_1,,,,,,,,,,,,,green,triangle
0.0,8.0,0.0,1.0,3.0,3.0,321.4678460000186,1.0,1.0,phase_1,,,,,,,,,,,,,yellow,square
306.0,2.0,2.0,0.0,2.0,2.0,342.2311829999671,1.0,1.0,phase_1,,,,,,,,,,,,,green,triangle
323.0,6.0,2.0,1.0,3.0,3.0,378.0231099999582,1.0,1.0,phase_1,,,,,,,,,,,,,white,flipped triangle
1301.0,8.0,4.0,1.0,4.0,4.0,405.3890779999847,1.0,1.0,phase_1,,,,,,,,,,,,,yellow,square
186.0,1.0,1.0,0.0,1.0,1.0,522.9957990000003,1.0,1.0,phase_1,,,,,,,,,,,,,orange,circle
0.0,3.0,0.0,0.0,4.0,4.0,445.0762980000036,1.0,1.0,phase_1,,,,,,,,,,,,,cyan,cross
186.0,5.0,1.0,1.0,4.0,4.0,372.3951800000122,1.0,1.0,phase_1,,,,,,,,,,,,,magenta,I
156.0,1.0,1.0,0.0,4.0,4.0,399.09873900001,1.0,1.0,phase_1,,,,,,,,,,,,,orange,circle
1295.0,4.0,4.0,0.0,3.0,3.0,412.8327319999698,1.0,1.0,phase_1,,,,,,,,,,,,,blue,diamond
659.0,7.0,3.0,1.0,3.0,3.0,377.6338150000811,1.0,1.0,phase_1,,,,,,,,,,,,,gray,hexagon
337.0,2.0,2.0,0.0,4.0,4.0,360.1418140000305,1.0,1.0,phase_1,,,,,,,,,,,,,green,triangle
643.0,3.0,3.0,0.0,4.0,4.0,396.0868460000029,1.0,1.0,phase_1,,,,,,,,,,,,,cyan,cross
330.0,6.0,2.0,1.0,2.0,2.0,510.91508900003646,1.0,1.0,phase_1,,,,,,,,,,,,,white,flipped triangle
670.0,7.0,3.0,1.0,1.0,1.0,478.5838120000107,1.0,1.0,phase_1,,,,,,,,,,,,,gray,hexagon
318.0,2.0,2.0,0.0,2.0,2.0,385.4623459999402,1.0,1.0,phase_1,,,,,,,,,,,,,green,triangle
1322.0,4.0,4.0,0.0,2.0,2.0,331.6372819999742,1.0,1.0,phase_1,,,,,,,,,,,,,blue,diamond
647.0,3.0,3.0,0.0,1.0,1.0,413.6119199999939,1.0,1.0,phase_1,,,,,,,,,,,,,cyan,cross
0.0,2.0,0.0,0.0,2.0,2.0,336.3210190000245,1.0,1.0,phase_1,,,,,,,,,,,,,green,triangle
323.0,2.0,2.0,0.0,3.0,3.0,475.2148540000007,1.0,1.0,phase_1,,,,,,,,,,,,,green,triangle
323.0,6.0,2.0,1.0,4.0,4.0,466.3621980000698,1.0,1.0,phase_1,,,,,,,,,,,,,white,flipped triangle
338.0,6.0,2.0,1.0,3.0,3.0,451.3589970000566,1.0,1.0,phase_1,,,,,,,,,,,,,white,flipped triangle
161.0,1.0,1.0,0.0,1.0,1.0,498.8886319999892,1.0,1.0,phase_1,,,,,,,,,,,,,orange,circle
187.0,1.0,1.0,0.0,2.0,2.0,331.9585130000178,1.0,1.0,phase_1,,,,,,,,,,,,,orange,circle
627.0,3.0,3.0,0.0,1.0,1.0,413.9855810000199,1.0,1.0,phase_1,,,,,,,,,,,,,cyan,cross
1314.0,8.0,4.0,1.0,2.0,2.0,377.1054249999679,1.0,1.0,phase_1,,,,,,,,,,,,,yellow,square
0.0,3.0,0.0,0.0,3.0,3.0,397.0889560000614,1.0,1.0,phase_1,,,,,,,,,,,,,cyan,cross
0.0,4.0,0.0,0.0,4.0,4.0,410.4338180000013,1.0,1.0,phase_1,,,,,,,,,,,,,blue,diamond
341.0,2.0,2.0,0.0,3.0,3.0,457.9292220000752,1.0,1.0,phase_1,,,,,,,,,,,,,green,triangle
0.0,7.0,0.0,1.0,2.0,2.0,321.8811490000917,1.0,1.0,phase_1,,,,,,,,,,,,,gray,hexagon
0.0,2.0,0.0,0.0,4.0,4.0,366.8599310000218,1.0,1.0,phase_1,,,,,,,,,,,,,green,triangle
0.0,4.0,0.0,0.0,3.0,3.0,379.4784630000549,1.0,1.0,phase_1,,,,,,,,,,,,,blue,diamond
0.0,8.0,0.0,1.0,1.0,1.0,530.1054879998901,1.0,1.0,phase_1,,,,,,,,,,,,,yellow,square
315.0,6.0,2.0,1.0,2.0,2.0,420.3779270000041,1.0,1.0,phase_1,,,,,,,,,,,,,white,flipped triangle
660.0,3.0,3.0,0.0,2.0,2.0,404.1662710000082,1.0,1.0,phase_1,,,,,,,,,,,,,cyan,cross
345.0,2.0,2.0,0.0,4.0,4.0,381.4083250000522,1.0,1.0,phase_1,,,,,,,,,,,,,green,triangle
0.0,4.0,0.0,0.0,2.0,2.0,399.7677240000712,1.0,1.0,phase_1,,,,,,,,,,,,,blue,diamond
0.0,4.0,0.0,0.0,1.0,1.0,487.1465989999706,1.0,2.0,phase_1,,,,,,,,,,,,,blue,diamond
326.0,2.0,2.0,0.0,2.0,2.0,410.4182449999598,1.0,1.0,phase_1,,,,,,,,,,,,,green,triangle
639.0,7.0,3.0,1.0,2.0,2.0,403.5380899999836,1.0,1.0,phase_1,,,,,,,,,,,,,gray,hexagon
140.0,1.0,1.0,0.0,3.0,3.0,368.2303169999841,1.0,1.0,phase_1,,,,,,,,,,,,,orange,circle
639.0,3.0,3.0,0.0,4.0,4.0,388.5665369999742,1.0,1.0,phase_1,,,,,,,,,,,,,cyan,cross
0.0,8.0,0.0,1.0,1.0,1.0,534.6095929999137,1.0,1.0,phase_1,,,,,,,,,,,,,yellow,square
310.0,2.0,2.0,0.0,3.0,3.0,401.7197279999891,1.0,1.0,phase_1,,,,,,,,,,,,,green,triangle
665.0,7.0,3.0,1.0,2.0,2.0,446.5056909999703,1.0,1.0,phase_1,,,,,,,,,,,,,gray,hexagon
652.0,3.0,3.0,0.0,4.0,4.0,392.3467329999539,1.0,1.0,phase_1,,,,,,,,,,,,,cyan,cross
343.0,2.0,2.0,0.0,4.0,4.0,439.8977060000106,1.0,1.0,phase_1,,,,,,,,,,,,,green,triangle
672.0,3.0,3.0,0.0,4.0,4.0,436.1151790000122,1.0,1.0,phase_1,,,,,,,,,,,,,cyan,cross
640.0,3.0,3.0,0.0,2.0,2.0,463.4923720000188,1.0,1.0,phase_1,,,,,,,,,,,,,cyan,cross
169.0,1.0,1.0,0.0,1.0,1.0,704.1382590000467,1.0,1.0,phase_1,,,,,,,,,,,,,orange,circle
301.0,2.0,2.0,0.0,3.0,3.0,466.9075709999788,1.0,1.0,phase_1,,,,,,,,,,,,,green,triangle
635.0,3.0,3.0,0.0,1.0,1.0,427.1936559999858,1.0,1.0,phase_1,,,,,,,,,,,,,cyan,cross
0.0,5.0,0.0,1.0,4.0,4.0,400.4594749999342,1.0,1.0,phase_1,,,,,,,,,,,,,magenta,I
674.0,3.0,3.0,0.0,3.0,3.0,437.7727569999479,1.0,1.0,phase_1,,,,,,,,,,,,,cyan,cross
345.0,6.0,2.0,1.0,2.0,2.0,538.9949689999867,1.0,1.0,phase_1,,,,,,,,,,,,,white,flipped triangle
344.0,6.0,2.0,1.0,2.0,2.0,390.5555169999388,1.0,1.0,phase_1,,,,,,,,,,,,,white,flipped triangle
169.0,5.0,1.0,1.0,2.0,2.0,380.0747589999673,1.0,1.0,phase_1,,,,,,,,,,,,,magenta,I
635.0,3.0,3.0,0.0,1.0,1.0,486.9898839999678,1.0,1.0,phase_1,,,,,,,,,,,,,cyan,cross
1320.0,4.0,4.0,0.0,2.0,2.0,370.3335930000548,1.0,1.0,phase_1,,,,,,,,,,,,,blue,diamond
0.0,7.0,0.0,1.0,3.0,3.0,399.5175939999171,1.0,1.0,phase_1,,,,,,,,,,,,,gray,hexagon
1313.0,4.0,4.0,0.0,1.0,1.0,382.4997619999521,1.0,1.0,phase_1,,,,,,,,,,,,,blue,diamond
0.0,6.0,0.0,1.0,4.0,4.0,529.6565359999477,1.0,1.0,phase_1,,,,,,,,,,,,,white,flipped triangle
173.0,5.0,1.0,1.0,4.0,4.0,416.7264000000159,1.0,1.0,phase_1,,,,,,,,,,,,,magenta,I
331.0,2.0,2.0,0.0,1.0,1.0,579.6728950000443,1.0,1.0,phase_1,,,,,,,,,,,,,green,triangle
157.0,1.0,1.0,0.0,1.0,1.0,547.7043209999692,1.0,1.0,phase_1,,,,,,,,,,,,,orange,circle
0.0,2.0,0.0,0.0,1.0,1.0,501.26847100000305,1.0,1.0,phase_1,,,,,,,,,,,,,green,triangle
1280.0,4.0,4.0,0.0,3.0,3.0,530.0130530000615,1.0,1.0,phase_1,,,,,,,,,,,,,blue,diamond
647.0,7.0,3.0,1.0,2.0,2.0,531.7467559999614,1.0,1.0,phase_1,,,,,,,,,,,,,gray,hexagon
163.0,1.0,1.0,0.0,4.0,4.0,469.0643309999132,1.0,1.0,phase_1,,,,,,,,,,,,,orange,circle
639.0,7.0,3.0,1.0,2.0,2.0,533.432011000059,1.0,1.0,phase_1,,,,,,,,,,,,,gray,hexagon
313.0,6.0,2.0,1.0,1.0,1.0,795.8649260000357,1.0,2.0,phase_1,,,,,,,,,,,,,white,flipped triangle
1322.0,4.0,4.0,0.0,1.0,1.0,420.1481329999978,1.0,1.0,phase_1,,,,,,,,,,,,,blue,diamond
1295.0,4.0,4.0,0.0,1.0,1.0,410.1044620000493,1.0,1.0,phase_1,,,,,,,,,,,,,blue,diamond
1289.0,4.0,4.0,0.0,4.0,4.0,400.6139419999499,1.0,1.0,phase_1,,,,,,,,,,,,,blue,diamond
144.0,5.0,1.0,1.0,1.0,1.0,480.0658189999467,1.0,1.0,phase_1,,,,,,,,,,,,,magenta,I
1316.0,8.0,4.0,1.0,4.0,4.0,497.5144729999101,1.0,1.0,phase_1,,,,,,,,,,,,,yellow,square
334.0,2.0,2.0,0.0,2.0,2.0,447.1048199999359,1.0,1.0,phase_1,,,,,,,,,,,,,green,triangle
0.0,5.0,0.0,1.0,2.0,2.0,440.0507540000262,1.0,1.0,phase_1,,,,,,,,,,,,,magenta,I
329.0,2.0,2.0,0.0,3.0,3.0,616.3899459999129,1.0,2.0,phase_1,,,,,,,,,,,,,green,triangle
630.0,3.0,3.0,0.0,3.0,3.0,533.198404000018,1.0,1.0,phase_1,,,,,,,,,,,,,cyan,cross
0.0,8.0,0.0,1.0,3.0,3.0,485.2985539999963,1.0,1.0,phase_1,,,,,,,,,,,,,yellow,square
318.0,6.0,2.0,1.0,3.0,3.0,388.6314579999634,1.0,1.0,phase_1,,,,,,,,,,,,,white,flipped triangle
0.0,6.0,0.0,1.0,2.0,2.0,591.3439720000042,2.0,1.0,phase_1,,,,,,,,,,,,,white,flipped triangle
146.0,1.0,1.0,0.0,3.0,3.0,334.7407180000346,2.0,1.0,phase_1,,,,,,,,,,,,,orange,circle
0.0,7.0,0.0,1.0,4.0,4.0,471.3429409999889,2.0,1.0,phase_1,,,,,,,,,,,,,gray,hexagon
0.0,7.0,0.0,1.0,2.0,2.0,397.0626909999737,2.0,1.0,phase_1,,,,,,,,,,,,,gray,hexagon
301.0,6.0,2.0,1.0,4.0,4.0,350.8386429999746,2.0,1.0,phase_1,,,,,,,,,,,,,white,flipped triangle
631.0,3.0,3.0,0.0,2.0,2.0,444.9357049999207,2.0,1.0,phase_1,,,,,,,,,,,,,cyan,cross
307.0,2.0,2.0,0.0,4.0,4.0,385.0332230000504,2.0,1.0,phase_1,,,,,,,,,,,,,green,triangle
0.0,1.0,0.0,0.0,1.0,1.0,425.429624000003,2.0,1.0,phase_1,,,,,,,,,,,,,orange,circle
157.0,5.0,1.0,1.0,2.0,2.0,444.990802999996,2.0,1.0,phase_1,,,,,,,,,,,,,magenta,I
669.0,3.0,3.0,0.0,4.0,4.0,360.3157420000116,2.0,1.0,phase_1,,,,,,,,,,,,,cyan,cross
0.0,8.0,0.0,1.0,3.0,3.0,425.9426359999452,2.0,1.0,phase_1,,,,,,,,,,,,,yellow,square
0.0,1.0,0.0,0.0,3.0,3.0,474.9366169999121,2.0,1.0,phase_1,,,,,,,,,,,,,orange,circle
636.0,7.0,3.0,1.0,2.0,2.0,447.6437300000953,2.0,1.0,phase_1,,,,,,,,,,,,,gray,hexagon
157.0,5.0,1.0,1.0,2.0,2.0,408.8208550000445,2.0,1.0,phase_1,,,,,,,,,,,,,magenta,I
342.0,6.0,2.0,1.0,4.0,4.0,400.9797569999591,2.0,1.0,phase_1,,,,,,,,,,,,,white,flipped triangle
176.0,5.0,1.0,1.0,3.0,3.0,436.0204810000141,2.0,1.0,phase_1,,,,,,,,,,,,,magenta,I
1309.0,8.0,4.0,1.0,1.0,1.0,427.0518509999874,2.0,1.0,phase_1,,,,,,,,,,,,,yellow,square
630.0,7.0,3.0,1.0,4.0,4.0,427.3201930000141,2.0,1.0,phase_1,,,,,,,,,,,,,gray,hexagon
626.0,3.0,3.0,0.0,4.0,4.0,500.545408999983,2.0,1.0,phase_1,,,,,,,,,,,,,cyan,cross
1299.0,4.0,4.0,0.0,4.0,4.0,463.8628489999519,2.0,1.0,phase_1,,,,,,,,,,,,,blue,diamond
0.0,3.0,0.0,0.0,2.0,2.0,532.8446959999837,2.0,1.0,phase_1,,,,,,,,,,,,,cyan,cross
1324.0,4.0,4.0,0.0,4.0,4.0,418.274725999936,2.0,1.0,phase_1,,,,,,,,,,,,,blue,diamond
1295.0,8.0,4.0,1.0,1.0,1.0,539.5511049999868,2.0,1.0,phase_1,,,,,,,,,,,,,yellow,square
1282.0,4.0,4.0,0.0,2.0,2.0,361.5779440000324,2.0,1.0,phase_1,,,,,,,,,,,,,blue,diamond
320.0,2.0,2.0,0.0,2.0,2.0,454.0782450000051,2.0,1.0,phase_1,,,,,,,,,,,,,green,triangle
348.0,6.0,2.0,1.0,1.0,1.0,512.6489500000844,2.0,1.0,phase_1,,,,,,,,,,,,,white,flipped triangle
346.0,6.0,2.0,1.0,4.0,4.0,457.7032770000642,2.0,1.0,phase_1,,,,,,,,,,,,,white,flipped triangle
1303.0,8.0,4.0,1.0,4.0,4.0,407.9083850000415,2.0,1.0,phase_1,,,,,,,,,,,,,yellow,square
0.0,5.0,0.0,1.0,3.0,3.0,595.9037760000001,2.0,1.0,phase_1,,,,,,,,,,,,,magenta,I
1306.0,8.0,4.0,1.0,4.0,4.0,472.2135760000583,2.0,1.0,phase_1,,,,,,,,,,,,,yellow,square
0.0,6.0,0.0,1.0,3.0,3.0,417.8243110000039,2.0,1.0,phase_1,,,,,,,,,,,,,white,flipped triangle
659.0,3.0,3.0,0.0,4.0,4.0,586.8198099999518,2.0,1.0,phase_1,,,,,,,,,,,,,cyan,cross
337.0,6.0,2.0,1.0,1.0,1.0,464.8069630000009,2.0,2.0,phase_1,,,,,,,,,,,,,white,flipped triangle
643.0,7.0,3.0,1.0,1.0,1.0,603.0372049999642,2.0,1.0,phase_1,,,,,,,,,,,,,gray,hexagon
326.0,6.0,2.0,1.0,3.0,3.0,489.4907230000171,2.0,1.0,phase_1,,,,,,,,,,,,,white,flipped triangle
1283.0,8.0,4.0,1.0,3.0,3.0,448.9945070000658,2.0,1.0,phase_1,,,,,,,,,,,,,yellow,square
649.0,7.0,3.0,1.0,1.0,1.0,489.5687969999471,2.0,1.0,phase_1,,,,,,,,,,,,,gray,hexagon
339.0,6.0,2.0,1.0,1.0,1.0,645.8328780000784,2.0,1.0,phase_1,,,,,,,,,,,,,white,flipped triangle
153.0,5.0,1.0,1.0,2.0,2.0,522.2966100000122,2.0,1.0,phase_1,,,,,,,,,,,,,magenta,I
0.0,7.0,0.0,1.0,1.0,1.0,576.3015459999679,2.0,1.0,phase_1,,,,,,,,,,,,,gray,hexagon
173.0,5.0,1.0,1.0,2.0,2.0,428.7963670000181,2.0,1.0,phase_1,,,,,,,,,,,,,magenta,I
0.0,5.0,0.0,1.0,3.0,3.0,434.948568999971,2.0,1.0,phase_1,,,,,,,,,,,,,magenta,I
142.0,5.0,1.0,1.0,1.0,1.0,598.2605899999953,2.0,1.0,phase_1,,,,,,,,,,,,,magenta,I
636.0,3.0,3.0,0.0,1.0,1.0,568.7531039999385,2.0,1.0,phase_1,,,,,,,,,,,,,cyan,cross
139.0,1.0,1.0,0.0,2.0,2.0,551.8921589999763,2.0,1.0,phase_1,,,,,,,,,,,,,orange,circle
302.0,2.0,2.0,0.0,4.0,4.0,494.3478989999903,2.0,1.0,phase_1,,,,,,,,,,,,,green,triangle
139.0,5.0,1.0,1.0,1.0,1.0,596.1812970000437,2.0,1.0,phase_1,,,,,,,,,,,,,magenta,I
0.0,3.0,0.0,0.0,1.0,1.0,380.8439880000378,2.0,1.0,phase_1,,,,,,,,,,,,,cyan,cross
170.0,5.0,1.0,1.0,3.0,3.0,521.7785080000112,2.0,1.0,phase_1,,,,,,,,,,,,,magenta,I
638.0,7.0,3.0,1.0,3.0,3.0,417.5819140000385,2.0,1.0,phase_1,,,,,,,,,,,,,gray,hexagon
0.0,6.0,0.0,1.0,4.0,4.0,494.3397760000607,2.0,1.0,phase_1,,,,,,,,,,,,,white,flipped triangle
1292.0,4.0,4.0,0.0,1.0,1.0,558.4705000001122,2.0,1.0,phase_1,,,,,,,,,,,,,blue,diamond
161.0,5.0,1.0,1.0,3.0,3.0,558.6428419999265,2.0,1.0,phase_1,,,,,,,,,,,,,magenta,I
656.0,3.0,3.0,0.0,4.0,4.0,437.7632859998357,2.0,1.0,phase_1,,,,,,,,,,,,,cyan,cross
0.0,1.0,0.0,0.0,1.0,1.0,532.8152829999908,2.0,1.0,phase_1,,,,,,,,,,,,,orange,circle
334.0,6.0,2.0,1.0,1.0,1.0,590.57312799996,2.0,1.0,phase_1,,,,,,,,,,,,,white,flipped triangle
0.0,1.0,0.0,0.0,1.0,1.0,455.6544409999787,2.0,1.0,phase_1,,,,,,,,,,,,,orange,circle
1276.0,8.0,4.0,1.0,3.0,3.0,506.66537200004313,2.0,1.0,phase_1,,,,,,,,,,,,,yellow,square
331.0,6.0,2.0,1.0,1.0,1.0,578.9377690000492,2.0,1.0,phase_1,,,,,,,,,,,,,white,flipped triangle
656.0,7.0,3.0,1.0,3.0,3.0,588.5832729998128,2.0,1.0,phase_1,,,,,,,,,,,,,gray,hexagon
1313.0,8.0,4.0,1.0,2.0,2.0,418.5223360000236,2.0,1.0,phase_1,,,,,,,,,,,,,yellow,square
300.0,2.0,2.0,0.0,1.0,1.0,478.3347980001053,2.0,1.0,phase_1,,,,,,,,,,,,,green,triangle
186.0,1.0,1.0,0.0,1.0,1.0,484.3227119999937,2.0,2.0,phase_1,,,,,,,,,,,,,orange,circle
1316.0,4.0,4.0,0.0,1.0,1.0,405.1689909999822,2.0,1.0,phase_1,,,,,,,,,,,,,blue,diamond
0.0,5.0,0.0,1.0,2.0,2.0,475.810908999847,2.0,1.0,phase_1,,,,,,,,,,,,,magenta,I
649.0,3.0,3.0,0.0,3.0,3.0,453.4163969999554,2.0,1.0,phase_1,,,,,,,,,,,,,cyan,cross
1315.0,4.0,4.0,0.0,4.0,4.0,447.8786870001841,2.0,1.0,phase_1,,,,,,,,,,,,,blue,diamond
0.0,6.0,0.0,1.0,3.0,3.0,452.4613870000848,2.0,1.0,phase_1,,,,,,,,,,,,,white,flipped triangle
0.0,1.0,0.0,0.0,4.0,4.0,499.6595189998061,2.0,1.0,phase_1,,,,,,,,,,,,,orange,circle
0.0,6.0,0.0,1.0,1.0,1.0,630.1602319999802,2.0,1.0,phase_1,,,,,,,,,,,,,white,flipped triangle
157.0,1.0,1.0,0.0,4.0,4.0,503.1958970000687,2.0,1.0,phase_1,,,,,,,,,,,,,orange,circle
1301.0,4.0,4.0,0.0,1.0,1.0,474.6203209999748,2.0,1.0,phase_1,,,,,,,,,,,,,blue,diamond
0.0,7.0,0.0,1.0,2.0,2.0,454.0108169999257,2.0,1.0,phase_1,,,,,,,,,,,,,gray,hexagon
178.0,1.0,1.0,0.0,2.0,2.0,501.84834299989234,2.0,1.0,phase_1,,,,,,,,,,,,,orange,circle
332.0,2.0,2.0,0.0,2.0,2.0,467.1199440001601,2.0,1.0,phase_1,,,,,,,,,,,,,green,triangle
0.0,6.0,0.0,1.0,1.0,1.0,682.0354880001105,2.0,1.0,phase_1,,,,,,,,,,,,,white,flipped triangle
674.0,7.0,3.0,1.0,2.0,2.0,542.1484999999393,2.0,1.0,phase_1,,,,,,,,,,,,,gray,hexagon
1320.0,8.0,4.0,1.0,4.0,4.0,489.6587630000795,2.0,1.0,phase_1,,,,,,,,,,,,,yellow,square
163.0,5.0,1.0,1.0,2.0,2.0,614.7317850000036,2.0,1.0,phase_1,,,,,,,,,,,,,magenta,I
634.0,7.0,3.0,1.0,3.0,3.0,472.9552989999774,2.0,1.0,phase_1,,,,,,,,,,,,,gray,hexagon
0.0,8.0,0.0,1.0,2.0,2.0,398.418718999892,2.0,1.0,phase_1,,,,,,,,,,,,,yellow,square
1310.0,4.0,4.0,0.0,2.0,2.0,398.230187000081,2.0,1.0,phase_1,,,,,,,,,,,,,blue,diamond
187.0,5.0,1.0,1.0,4.0,4.0,380.2027589999852,2.0,2.0,phase_1,,,,,,,,,,,,,magenta,I
1310.0,8.0,4.0,1.0,4.0,4.0,645.6242029998975,2.0,1.0,phase_1,,,,,,,,,,,,,yellow,square
313.0,2.0,2.0,0.0,3.0,3.0,683.6674930000299,2.0,1.0,phase_1,,,,,,,,,,,,,green,triangle
0.0,3.0,0.0,0.0,4.0,4.0,625.2557550001256,2.0,1.0,phase_1,,,,,,,,,,,,,cyan,cross
644.0,3.0,3.0,0.0,2.0,2.0,367.1880730000794,2.0,1.0,phase_1,,,,,,,,,,,,,cyan,cross
146.0,1.0,1.0,0.0,3.0,3.0,397.4494809999669,2.0,1.0,phase_1,,,,,,,,,,,,,orange,circle
312.0,2.0,2.0,0.0,2.0,2.0,484.6117360000335,2.0,1.0,phase_1,,,,,,,,,,,,,green,triangle
0.0,7.0,0.0,1.0,2.0,2.0,421.4821010000378,2.0,1.0,phase_1,,,,,,,,,,,,,gray,hexagon
180.0,1.0,1.0,0.0,3.0,3.0,395.5233930000759,2.0,1.0,phase_1,,,,,,,,,,,,,orange,circle
1315.0,8.0,4.0,1.0,2.0,2.0,454.693147999933,2.0,1.0,phase_1,,,,,,,,,,,,,yellow,square
1305.0,4.0,4.0,0.0,2.0,2.0,630.2290769999672,2.0,1.0,phase_1,,,,,,,,,,,,,blue,diamond
1277.0,8.0,4.0,1.0,2.0,2.0,425.428914999884,2.0,1.0,phase_1,,,,,,,,,,,,,yellow,square
1287.0,8.0,4.0,1.0,1.0,1.0,834.4264079998993,2.0,1.0,phase_1,,,,,,,,,,,,,yellow,square
1319.0,4.0,4.0,0.0,2.0,2.0,453.3414150000681,2.0,1.0,phase_1,,,,,,,,,,,,,blue,diamond
338.0,2.0,2.0,0.0,3.0,3.0,643.8748309999482,2.0,1.0,phase_1,,,,,,,,,,,,,green,triangle
0.0,1.0,0.0,0.0,4.0,4.0,477.7161239999259,2.0,1.0,phase_1,,,,,,,,,,,,,orange,circle
634.0,3.0,3.0,0.0,4.0,4.0,501.05974000007336,2.0,1.0,phase_1,,,,,,,,,,,,,cyan,cross
186.0,1.0,1.0,0.0,2.0,2.0,422.0135420000588,2.0,1.0,phase_1,,,,,,,,,,,,,orange,circle
156.0,5.0,1.0,1.0,4.0,4.0,438.6633690000963,3.0,1.0,phase_1,,,,,,,,,,,,,magenta,I
1280.0,8.0,4.0,1.0,4.0,4.0,371.4187020000281,3.0,1.0,phase_1,,,,,,,,,,,,,yellow,square
304.0,6.0,2.0,1.0,2.0,2.0,551.8978400000378,3.0,1.0,phase_1,,,,,,,,,,,,,white,flipped triangle
660.0,7.0,3.0,1.0,3.0,3.0,368.3434639999632,3.0,1.0,phase_1,,,,,,,,,,,,,gray,hexagon
0.0,3.0,0.0,0.0,1.0,1.0,473.0287609997958,3.0,1.0,phase_1,,,,,,,,,,,,,cyan,cross
1314.0,4.0,4.0,0.0,3.0,3.0,446.7213800000991,3.0,1.0,phase_1,,,,,,,,,,,,,blue,diamond
652.0,7.0,3.0,1.0,1.0,1.0,520.2267770000617,3.0,1.0,phase_1,,,,,,,,,,,,,gray,hexagon
323.0,2.0,2.0,0.0,3.0,3.0,391.9100549999257,3.0,1.0,phase_1,,,,,,,,,,,,,green,triangle
338.0,6.0,2.0,1.0,3.0,3.0,439.3012390000876,3.0,1.0,phase_1,,,,,,,,,,,,,white,flipped triangle
342.0,2.0,2.0,0.0,1.0,1.0,486.2095149999277,3.0,1.0,phase_1,,,,,,,,,,,,,green,triangle
187.0,1.0,1.0,0.0,1.0,1.0,471.6741039999306,3.0,1.0,phase_1,,,,,,,,,,,,,orange,circle
0.0,2.0,0.0,0.0,3.0,3.0,408.3437320000485,3.0,1.0,phase_1,,,,,,,,,,,,,green,triangle
630.0,7.0,3.0,1.0,4.0,4.0,515.8011860000897,3.0,1.0,phase_1,,,,,,,,,,,,,gray,hexagon
304.0,2.0,2.0,0.0,4.0,4.0,555.2175999998781,3.0,1.0,phase_1,,,,,,,,,,,,,green,triangle
149.0,1.0,1.0,0.0,3.0,3.0,522.9720429999816,3.0,1.0,phase_1,,,,,,,,,,,,,orange,circle
1309.0,8.0,4.0,1.0,2.0,2.0,413.9216969999779,3.0,1.0,phase_1,,,,,,,,,,,,,yellow,square
0.0,1.0,0.0,0.0,2.0,2.0,427.1577019999313,3.0,1.0,phase_1,,,,,,,,,,,,,orange,circle
664.0,7.0,3.0,1.0,3.0,3.0,416.0062899998138,3.0,1.0,phase_1,,,,,,,,,,,,,gray,hexagon
156.0,1.0,1.0,0.0,3.0,3.0,399.7073450000243,3.0,1.0,phase_1,,,,,,,,,,,,,orange,circle
152.0,1.0,1.0,0.0,2.0,2.0,399.8429780001515,3.0,1.0,phase_1,,,,,,,,,,,,,orange,circle
1278.0,8.0,4.0,1.0,2.0,2.0,399.0118159999838,3.0,1.0,phase_1,,,,,,,,,,,,,yellow,square
0.0,2.0,0.0,0.0,2.0,2.0,351.7381899998781,3.0,1.0,phase_1,,,,,,,,,,,,,green,triangle
657.0,7.0,3.0,1.0,1.0,1.0,696.7136929999924,3.0,1.0,phase_1,,,,,,,,,,,,,gray,hexagon
674.0,7.0,3.0,1.0,2.0,2.0,360.3076689998943,3.0,1.0,phase_1,,,,,,,,,,,,,gray,hexagon
182.0,5.0,1.0,1.0,3.0,3.0,514.2722060002143,3.0,1.0,phase_1,,,,,,,,,,,,,magenta,I
141.0,5.0,1.0,1.0,4.0,4.0,593.2805439999811,3.0,1.0,phase_1,,,,,,,,,,,,,magenta,I
301.0,2.0,2.0,0.0,2.0,2.0,381.9545269998343,3.0,1.0,phase_1,,,,,,,,,,,,,green,triangle
1287.0,4.0,4.0,0.0,4.0,4.0,361.1093729998629,3.0,1.0,phase_1,,,,,,,,,,,,,blue,diamond
344.0,2.0,2.0,0.0,2.0,2.0,344.1373840000779,3.0,1.0,phase_1,,,,,,,,,,,,,green,triangle
186.0,5.0,1.0,1.0,1.0,1.0,507.67226700008905,3.0,2.0,phase_1,,,,,,,,,,,,,magenta,I
1306.0,4.0,4.0,0.0,1.0,1.0,447.0858949998728,3.0,1.0,phase_1,,,,,,,,,,,,,blue,diamond
638.0,3.0,3.0,0.0,1.0,1.0,407.5114039999334,3.0,1.0,phase_1,,,,,,,,,,,,,cyan,cross
651.0,3.0,3.0,0.0,1.0,1.0,369.3679919999795,3.0,1.0,phase_1,,,,,,,,,,,,,cyan,cross
149.0,5.0,1.0,1.0,3.0,3.0,569.5693659999961,3.0,1.0,phase_1,,,,,,,,,,,,,magenta,I
1317.0,8.0,4.0,1.0,1.0,1.0,436.4806880000742,3.0,2.0,phase_1,,,,,,,,,,,,,yellow,square
140.0,5.0,1.0,1.0,2.0,2.0,429.7643769998558,3.0,1.0,phase_1,,,,,,,,,,,,,magenta,I
320.0,6.0,2.0,1.0,1.0,1.0,551.802017,3.0,1.0,phase_1,,,,,,,,,,,,,white,flipped triangle
635.0,7.0,3.0,1.0,2.0,2.0,498.0069799999,3.0,1.0,phase_1,,,,,,,,,,,,,gray,hexagon
652.0,7.0,3.0,1.0,4.0,4.0,588.9410910001516,3.0,1.0,phase_1,,,,,,,,,,,,,gray,hexagon
0.0,5.0,0.0,1.0,3.0,3.0,520.6076380000013,3.0,1.0,phase_1,,,,,,,,,,,,,magenta,I
0.0,4.0,0.0,0.0,1.0,1.0,514.4596800000727,3.0,1.0,phase_1,,,,,,,,,,,,,blue,diamond
182.0,1.0,1.0,0.0,3.0,3.0,409.5289790000151,3.0,1.0,phase_1,,,,,,,,,,,,,orange,circle
1306.0,8.0,4.0,1.0,3.0,3.0,436.139373999822,3.0,1.0,phase_1,,,,,,,,,,,,,yellow,square
348.0,2.0,2.0,0.0,1.0,1.0,474.9208589998943,3.0,1.0,phase_1,,,,,,,,,,,,,green,triangle
1295.0,4.0,4.0,0.0,1.0,1.0,436.1969650001356,3.0,1.0,phase_1,,,,,,,,,,,,,blue,diamond
1299.0,8.0,4.0,1.0,3.0,3.0,694.1958530001102,3.0,1.0,phase_1,,,,,,,,,,,,,yellow,square
664.0,3.0,3.0,0.0,3.0,3.0,409.286123999891,3.0,1.0,phase_1,,,,,,,,,,,,,cyan,cross
0.0,5.0,0.0,1.0,4.0,4.0,504.4422029998259,3.0,1.0,phase_1,,,,,,,,,,,,,magenta,I
330.0,2.0,2.0,0.0,1.0,1.0,396.29946799982457,3.0,1.0,phase_1,,,,,,,,,,,,,green,triangle
0.0,5.0,0.0,1.0,1.0,1.0,512.6221610000812,3.0,1.0,phase_1,,,,,,,,,,,,,magenta,I
138.0,5.0,1.0,1.0,2.0,2.0,475.0215829999433,3.0,1.0,phase_1,,,,,,,,,,,,,magenta,I
1311.0,8.0,4.0,1.0,3.0,3.0,484.3423509998956,3.0,1.0,phase_1,,,,,,,,,,,,,yellow,square
675.0,7.0,3.0,1.0,1.0,1.0,446.9787499999711,3.0,1.0,phase_1,,,,,,,,,,,,,gray,hexagon
181.0,1.0,1.0,0.0,2.0,2.0,458.8387700000567,3.0,1.0,phase_1,,,,,,,,,,,,,orange,circle
627.0,7.0,3.0,1.0,4.0,4.0,398.3338149998872,3.0,1.0,phase_1,,,,,,,,,,,,,gray,hexagon
0.0,4.0,0.0,0.0,2.0,2.0,410.4637439997987,3.0,1.0,phase_1,,,,,,,,,,,,,blue,diamond
669.0,7.0,3.0,1.0,4.0,4.0,446.2503090001064,3.0,1.0,phase_1,,,,,,,,,,,,,gray,hexagon
675.0,3.0,3.0,0.0,1.0,1.0,582.2847320000619,3.0,1.0,phase_1,,,,,,,,,,,,,cyan,cross
186.0,1.0,1.0,0.0,3.0,3.0,426.3434199999665,3.0,1.0,phase_1,,,,,,,,,,,,,orange,circle
1301.0,8.0,4.0,1.0,1.0,1.0,713.3216229999562,3.0,1.0,phase_1,,,,,,,,,,,,,yellow,square
153.0,1.0,1.0,0.0,4.0,4.0,614.8738780000258,3.0,1.0,phase_1,,,,,,,,,,,,,orange,circle
1289.0,8.0,4.0,1.0,1.0,1.0,475.8451550001155,3.0,1.0,phase_1,,,,,,,,,,,,,yellow,square
1283.0,4.0,4.0,0.0,3.0,3.0,419.6185180001066,3.0,1.0,phase_1,,,,,,,,,,,,,blue,diamond
1306.0,4.0,4.0,0.0,2.0,2.0,419.4056599999385,3.0,1.0,phase_1,,,,,,,,,,,,,blue,diamond
626.0,7.0,3.0,1.0,3.0,3.0,475.9862230000635,3.0,1.0,phase_1,,,,,,,,,,,,,gray,hexagon
1282.0,8.0,4.0,1.0,2.0,2.0,372.6866260001316,3.0,1.0,phase_1,,,,,,,,,,,,,yellow,square
1292.0,8.0,4.0,1.0,3.0,3.0,374.9056280000786,3.0,1.0,phase_1,,,,,,,,,,,,,yellow,square
186.0,5.0,1.0,1.0,3.0,3.0,605.7555429999866,3.0,1.0,phase_1,,,,,,,,,,,,,magenta,I
644.0,7.0,3.0,1.0,2.0,2.0,520.3297739999471,3.0,1.0,phase_1,,,,,,,,,,,,,gray,hexagon
0.0,1.0,0.0,0.0,1.0,1.0,616.7983259999801,3.0,1.0,phase_1,,,,,,,,,,,,,orange,circle
0.0,3.0,0.0,0.0,4.0,4.0,522.0972869999514,3.0,2.0,phase_1,,,,,,,,,,,,,cyan,cross
670.0,3.0,3.0,0.0,2.0,2.0,454.2642710000564,3.0,1.0,phase_1,,,,,,,,,,,,,cyan,cross
0.0,1.0,0.0,0.0,2.0,2.0,411.1118009998336,3.0,1.0,phase_1,,,,,,,,,,,,,orange,circle
0.0,4.0,0.0,0.0,2.0,2.0,371.0433260000627,3.0,1.0,phase_1,,,,,,,,,,,,,blue,diamond
152.0,5.0,1.0,1.0,1.0,1.0,562.2908779998852,3.0,1.0,phase_1,,,,,,,,,,,,,magenta,I
1287.0,4.0,4.0,0.0,2.0,2.0,378.6384330001056,3.0,1.0,phase_1,,,,,,,,,,,,,blue,diamond
307.0,6.0,2.0,1.0,4.0,4.0,500.3530409999257,3.0,1.0,phase_1,,,,,,,,,,,,,white,flipped triangle
0.0,5.0,0.0,1.0,4.0,4.0,748.7038430001576,3.0,1.0,phase_1,,,,,,,,,,,,,magenta,I
0.0,8.0,0.0,1.0,2.0,2.0,979.5967679999648,3.0,1.0,phase_1,,,,,,,,,,,,,yellow,square
317.0,2.0,2.0,0.0,3.0,3.0,514.8615869998139,3.0,1.0,phase_1,,,,,,,,,,,,,green,triangle
166.0,1.0,1.0,0.0,2.0,2.0,639.1219740000906,3.0,1.0,phase_1,,,,,,,,,,,,,orange,circle
0.0,8.0,0.0,1.0,1.0,1.0,633.6657259998901,3.0,1.0,phase_1,,,,,,,,,,,,,yellow,square
0.0,5.0,0.0,1.0,2.0,2.0,398.599374000014,3.0,1.0,phase_1,,,,,,,,,,,,,magenta,I
1317.0,4.0,4.0,0.0,1.0,1.0,568.0937309998626,3.0,1.0,phase_1,,,,,,,,,,,,,blue,diamond
0.0,3.0,0.0,0.0,3.0,3.0,410.5444680001255,3.0,1.0,phase_1,,,,,,,,,,,,,cyan,cross
301.0,6.0,2.0,1.0,3.0,3.0,428.7805890000982,3.0,1.0,phase_1,,,,,,,,,,,,,white,flipped triangle
147.0,1.0,1.0,0.0,4.0,4.0,650.771382999892,3.0,1.0,phase_1,,,,,,,,,,,,,orange,circle
187.0,5.0,1.0,1.0,1.0,1.0,778.2293630000368,3.0,1.0,phase_1,,,,,,,,,,,,,magenta,I
1278.0,4.0,4.0,0.0,4.0,4.0,426.134311999931,3.0,1.0,phase_1,,,,,,,,,,,,,blue,diamond
1303.0,4.0,4.0,0.0,3.0,3.0,496.2622549999196,3.0,1.0,phase_1,,,,,,,,,,,,,blue,diamond
1301.0,4.0,4.0,0.0,3.0,3.0,505.7427930000813,3.0,1.0,phase_1,,,,,,,,,,,,,blue,diamond
142.0,1.0,1.0,0.0,1.0,1.0,604.3786499999442,3.0,1.0,phase_1,,,,,,,,,,,,,orange,circle
332.0,6.0,2.0,1.0,4.0,4.0,447.4359289999938,3.0,1.0,phase_1,,,,,,,,,,,,,white,flipped triangle
0.0,4.0,0.0,0.0,1.0,1.0,664.720571999851,3.0,1.0,phase_1,,,,,,,,,,,,,blue,diamond
630.0,3.0,3.0,0.0,2.0,2.0,389.8860150000018,3.0,1.0,phase_1,,,,,,,,,,,,,cyan,cross
1276.0,4.0,4.0,0.0,2.0,2.0,379.1049530000236,3.0,1.0,phase_1,,,,,,,,,,,,,blue,diamond
0.0,7.0,0.0,1.0,4.0,4.0,487.4771749998672,3.0,1.0,phase_1,,,,,,,,,,,,,gray,hexagon
300.0,6.0,2.0,1.0,3.0,3.0,436.3129719999961,3.0,1.0,phase_1,,,,,,,,,,,,,white,flipped triangle
0.0,1.0,0.0,0.0,1.0,1.0,641.2190410001131,3.0,1.0,phase_1,,,,,,,,,,,,,orange,circle
1322.0,8.0,4.0,1.0,2.0,2.0,428.4125520000543,3.0,1.0,phase_1,,,,,,,,,,,,,yellow,square
0.0,6.0,0.0,1.0,4.0,4.0,516.3759280001159,4.0,1.0,phase_1,,,,,,,,,,,,,white,flipped triangle
669.0,3.0,3.0,0.0,2.0,2.0,451.5392570001495,4.0,1.0,phase_1,,,,,,,,,,,,,cyan,cross
157.0,5.0,1.0,1.0,1.0,1.0,523.5086410000349,4.0,1.0,phase_1,,,,,,,,,,,,,magenta,I
310.0,6.0,2.0,1.0,2.0,2.0,580.881368000064,4.0,1.0,phase_1,,,,,,,,,,,,,white,flipped triangle
332.0,6.0,2.0,1.0,1.0,1.0,478.3224779998818,4.0,1.0,phase_1,,,,,,,,,,,,,white,flipped triangle
186.0,5.0,1.0,1.0,3.0,3.0,546.8329849998099,4.0,1.0,phase_1,,,,,,,,,,,,,magenta,I
323.0,2.0,2.0,0.0,1.0,1.0,563.2593309999265,4.0,1.0,phase_1,,,,,,,,,,,,,green,triangle
674.0,3.0,3.0,0.0,1.0,1.0,487.2597159999259,4.0,1.0,phase_1,,,,,,,,,,,,,cyan,cross
0.0,7.0,0.0,1.0,4.0,4.0,378.5484189997987,4.0,1.0,phase_1,,,,,,,,,,,,,gray,hexagon
312.0,2.0,2.0,0.0,4.0,4.0,394.3557600000531,4.0,1.0,phase_1,,,,,,,,,,,,,green,triangle
181.0,1.0,1.0,0.0,2.0,2.0,434.0946770000755,4.0,1.0,phase_1,,,,,,,,,,,,,orange,circle
1289.0,8.0,4.0,1.0,4.0,4.0,430.5436180000015,4.0,1.0,phase_1,,,,,,,,,,,,,yellow,square
1279.0,4.0,4.0,0.0,2.0,2.0,503.08572399990226,4.0,1.0,phase_1,,,,,,,,,,,,,blue,diamond
337.0,2.0,2.0,0.0,3.0,3.0,882.8423219999877,4.0,1.0,phase_1,,,,,,,,,,,,,green,triangle
659.0,3.0,3.0,0.0,3.0,3.0,508.82921500010525,4.0,1.0,phase_1,,,,,,,,,,,,,cyan,cross
137.0,1.0,1.0,0.0,1.0,1.0,673.5919790000935,4.0,1.0,phase_1,,,,,,,,,,,,,orange,circle
1309.0,4.0,4.0,0.0,4.0,4.0,399.0287250001074,4.0,1.0,phase_1,,,,,,,,,,,,,blue,diamond
1322.0,8.0,4.0,1.0,3.0,3.0,653.4783159997914,4.0,1.0,phase_1,,,,,,,,,,,,,yellow,square
1287.0,8.0,4.0,1.0,2.0,2.0,799.2265959999258,4.0,1.0,phase_1,,,,,,,,,,,,,yellow,square
1287.0,4.0,4.0,0.0,4.0,4.0,491.1114279998401,4.0,1.0,phase_1,,,,,,,,,,,,,blue,diamond
329.0,6.0,2.0,1.0,2.0,2.0,817.0687770000313,4.0,1.0,phase_1,,,,,,,,,,,,,white,flipped triangle
0.0,7.0,0.0,1.0,3.0,3.0,542.6742849999755,4.0,1.0,phase_1,,,,,,,,,,,,,gray,hexagon
315.0,2.0,2.0,0.0,1.0,1.0,498.0546110000432,4.0,1.0,phase_1,,,,,,,,,,,,,green,triangle
664.0,3.0,3.0,0.0,3.0,3.0,543.6368849998416,4.0,1.0,phase_1,,,,,,,,,,,,,cyan,cross
173.0,1.0,1.0,0.0,3.0,3.0,515.5474690000119,4.0,1.0,phase_1,,,,,,,,,,,,,orange,circle
1298.0,4.0,4.0,0.0,3.0,3.0,469.6699690000514,4.0,1.0,phase_1,,,,,,,,,,,,,blue,diamond
317.0,6.0,2.0,1.0,2.0,2.0,599.0358589999687,4.0,1.0,phase_1,,,,,,,,,,,,,white,flipped triangle
0.0,6.0,0.0,1.0,3.0,3.0,475.7341330000599,4.0,1.0,phase_1,,,,,,,,,,,,,white,flipped triangle
1319.0,8.0,4.0,1.0,1.0,1.0,554.7936220000338,4.0,1.0,phase_1,,,,,,,,,,,,,yellow,square
665.0,7.0,3.0,1.0,1.0,1.0,749.0113690000726,4.0,1.0,phase_1,,,,,,,,,,,,,gray,hexagon
0.0,3.0,0.0,0.0,3.0,3.0,440.0392080001438,4.0,1.0,phase_1,,,,,,,,,,,,,cyan,cross
665.0,3.0,3.0,0.0,2.0,2.0,417.468301999861,4.0,1.0,phase_1,,,,,,,,,,,,,cyan,cross
152.0,5.0,1.0,1.0,2.0,2.0,382.5990180000644,4.0,1.0,phase_1,,,,,,,,,,,,,magenta,I
635.0,7.0,3.0,1.0,4.0,4.0,451.2796999999864,4.0,1.0,phase_1,,,,,,,,,,,,,gray,hexagon
1298.0,8.0,4.0,1.0,1.0,1.0,334.1149049999785,4.0,2.0,phase_1,,,,,,,,,,,,,yellow,square
156.0,5.0,1.0,1.0,2.0,2.0,593.0046720000064,4.0,1.0,phase_1,,,,,,,,,,,,,magenta,I
0.0,8.0,0.0,1.0,2.0,2.0,488.0840979999448,4.0,1.0,phase_1,,,,,,,,,,,,,yellow,square
635.0,3.0,3.0,0.0,3.0,3.0,452.9985819999638,4.0,1.0,phase_1,,,,,,,,,,,,,cyan,cross
0.0,2.0,0.0,0.0,4.0,4.0,512.9120230001263,4.0,1.0,phase_1,,,,,,,,,,,,,green,triangle
343.0,6.0,2.0,1.0,4.0,4.0,542.2505100000308,4.0,1.0,phase_1,,,,,,,,,,,,,white,flipped triangle
664.0,7.0,3.0,1.0,3.0,3.0,568.5513260000334,4.0,1.0,phase_1,,,,,,,,,,,,,gray,hexagon
323.0,6.0,2.0,1.0,2.0,2.0,538.7386419999984,4.0,1.0,phase_1,,,,,,,,,,,,,white,flipped triangle
647.0,7.0,3.0,1.0,3.0,3.0,632.6434470001914,4.0,1.0,phase_1,,,,,,,,,,,,,gray,hexagon
631.0,3.0,3.0,0.0,2.0,2.0,416.4622420000796,4.0,1.0,phase_1,,,,,,,,,,,,,cyan,cross
0.0,2.0,0.0,0.0,3.0,3.0,342.2694329999558,4.0,2.0,phase_1,,,,,,,,,,,,,green,triangle
1309.0,8.0,4.0,1.0,3.0,3.0,524.6291190001102,4.0,1.0,phase_1,,,,,,,,,,,,,yellow,square
306.0,6.0,2.0,1.0,1.0,1.0,899.154216999932,4.0,1.0,phase_1,,,,,,,,,,,,,white,flipped triangle
0.0,3.0,0.0,0.0,4.0,4.0,486.4152190000368,4.0,1.0,phase_1,,,,,,,,,,,,,cyan,cross
338.0,2.0,2.0,0.0,4.0,4.0,743.7963589998162,4.0,1.0,phase_1,,,,,,,,,,,,,green,triangle
146.0,5.0,1.0,1.0,4.0,4.0,514.2444079999677,4.0,1.0,phase_1,,,,,,,,,,,,,magenta,I
631.0,7.0,3.0,1.0,2.0,2.0,495.7532690000334,4.0,1.0,phase_1,,,,,,,,,,,,,gray,hexagon
161.0,5.0,1.0,1.0,3.0,3.0,445.8300969999982,4.0,1.0,phase_1,,,,,,,,,,,,,magenta,I
635.0,7.0,3.0,1.0,4.0,4.0,414.6243730001515,4.0,1.0,phase_1,,,,,,,,,,,,,gray,hexagon
631.0,7.0,3.0,1.0,3.0,3.0,467.7283829998941,4.0,1.0,phase_1,,,,,,,,,,,,,gray,hexagon
330.0,2.0,2.0,0.0,4.0,4.0,391.1838930000613,4.0,1.0,phase_1,,,,,,,,,,,,,green,triangle
312.0,6.0,2.0,1.0,1.0,1.0,316.9094219999806,4.0,2.0,phase_1,,,,,,,,,,,,,white,flipped triangle
337.0,6.0,2.0,1.0,4.0,4.0,545.2202179999404,4.0,1.0,phase_1,,,,,,,,,,,,,white,flipped triangle
669.0,7.0,3.0,1.0,4.0,4.0,557.0303840001998,4.0,1.0,phase_1,,,,,,,,,,,,,gray,hexagon
1295.0,8.0,4.0,1.0,4.0,4.0,591.462766999939,4.0,1.0,phase_1,,,,,,,,,,,,,yellow,square
137.0,5.0,1.0,1.0,3.0,3.0,733.6401760001081,4.0,1.0,phase_1,,,,,,,,,,,,,magenta,I
1311.0,4.0,4.0,0.0,3.0,3.0,426.735004999955,4.0,1.0,phase_1,,,,,,,,,,,,,blue,diamond
1324.0,8.0,4.0,1.0,1.0,1.0,581.1326010000357,4.0,1.0,phase_1,,,,,,,,,,,,,yellow,square
302.0,6.0,2.0,1.0,3.0,3.0,510.8936920000815,4.0,1.0,phase_1,,,,,,,,,,,,,white,flipped triangle
146.0,5.0,1.0,1.0,3.0,3.0,418.778489000033,4.0,1.0,phase_1,,,,,,,,,,,,,magenta,I
339.0,2.0,2.0,0.0,1.0,1.0,529.8310309999579,4.0,1.0,phase_1,,,,,,,,,,,,,green,triangle
0.0,4.0,0.0,0.0,3.0,3.0,766.2807750000411,4.0,1.0,phase_1,,,,,,,,,,,,,blue,diamond
173.0,1.0,1.0,0.0,2.0,2.0,613.6592069999551,4.0,1.0,phase_1,,,,,,,,,,,,,orange,circle
157.0,5.0,1.0,1.0,1.0,1.0,522.4813879999601,4.0,1.0,phase_1,,,,,,,,,,,,,magenta,I
314.0,6.0,2.0,1.0,4.0,4.0,398.9655840000523,4.0,1.0,phase_1,,,,,,,,,,,,,white,flipped triangle
672.0,7.0,3.0,1.0,1.0,1.0,576.964715000031,4.0,1.0,phase_1,,,,,,,,,,,,,gray,hexagon
161.0,1.0,1.0,0.0,4.0,4.0,444.750220999822,4.0,1.0,phase_1,,,,,,,,,,,,,orange,circle
0.0,8.0,0.0,1.0,2.0,2.0,579.7113669998453,4.0,1.0,phase_1,,,,,,,,,,,,,yellow,square
144.0,1.0,1.0,0.0,4.0,4.0,417.0604349999394,4.0,1.0,phase_1,,,,,,,,,,,,,orange,circle
330.0,6.0,2.0,1.0,4.0,4.0,492.7400089998173,4.0,1.0,phase_1,,,,,,,,,,,,,white,flipped triangle
1278.0,8.0,4.0,1.0,4.0,4.0,369.4113729998207,4.0,1.0,phase_1,,,,,,,,,,,,,yellow,square
640.0,7.0,3.0,1.0,1.0,1.0,834.3837279999207,4.0,1.0,phase_1,,,,,,,,,,,,,gray,hexagon
138.0,1.0,1.0,0.0,4.0,4.0,441.6863850001391,4.0,1.0,phase_1,,,,,,,,,,,,,orange,circle
346.0,2.0,2.0,0.0,2.0,2.0,574.8658560000877,4.0,1.0,phase_1,,,,,,,,,,,,,green,triangle
649.0,7.0,3.0,1.0,1.0,1.0,423.9916550000089,4.0,2.0,phase_1,,,,,,,,,,,,,gray,hexagon
180.0,5.0,1.0,1.0,4.0,4.0,462.0292439999502,4.0,1.0,phase_1,,,,,,,,,,,,,magenta,I
166.0,5.0,1.0,1.0,4.0,4.0,464.826726000183,4.0,1.0,phase_1,,,,,,,,,,,,,magenta,I
647.0,3.0,3.0,0.0,3.0,3.0,381.9033739998758,4.0,1.0,phase_1,,,,,,,,,,,,,cyan,cross
181.0,5.0,1.0,1.0,4.0,4.0,485.2454870001566,4.0,1.0,phase_1,,,,,,,,,,,,,magenta,I
1289.0,4.0,4.0,0.0,1.0,1.0,528.5727089999455,4.0,1.0,phase_1,,,,,,,,,,,,,blue,diamond
1278.0,4.0,4.0,0.0,4.0,4.0,529.3799350001791,4.0,1.0,phase_1,,,,,,,,,,,,,blue,diamond
1295.0,8.0,4.0,1.0,1.0,1.0,570.5780429998413,4.0,1.0,phase_1,,,,,,,,,,,,,yellow,square
338.0,2.0,2.0,0.0,1.0,1.0,518.3695040000202,4.0,1.0,phase_1,,,,,,,,,,,,,green,triangle
1287.0,8.0,4.0,1.0,3.0,3.0,462.7978850001,4.0,1.0,phase_1,,,,,,,,,,,,,yellow,square
147.0,5.0,1.0,1.0,1.0,1.0,512.7246179999929,4.0,1.0,phase_1,,,,,,,,,,,,,magenta,I
338.0,6.0,2.0,1.0,2.0,2.0,263.3348430001661,4.0,2.0,phase_1,,,,,,,,,,,,,white,flipped triangle
178.0,5.0,1.0,1.0,1.0,1.0,661.3971919998676,4.0,1.0,phase_1,,,,,,,,,,,,,magenta,I
0.0,6.0,0.0,1.0,3.0,3.0,578.8725249999516,4.0,1.0,phase_1,,,,,,,,,,,,,white,flipped triangle
652.0,3.0,3.0,0.0,4.0,4.0,617.1089300000858,4.0,1.0,phase_1,,,,,,,,,,,,,cyan,cross
1309.0,4.0,4.0,0.0,4.0,4.0,429.9386800000775,4.0,1.0,phase_1,,,,,,,,,,,,,blue,diamond
1279.0,8.0,4.0,1.0,3.0,3.0,411.1587960001088,4.0,2.0,phase_1,,,,,,,,,,,,,yellow,square
0.0,4.0,0.0,0.0,4.0,4.0,441.591937000112,4.0,1.0,phase_1,,,,,,,,,,,,,blue,diamond
157.0,1.0,1.0,0.0,3.0,3.0,462.561869999945,4.0,1.0,phase_1,,,,,,,,,,,,,orange,circle
0.0,2.0,0.0,0.0,3.0,3.0,651.7140239998298,4.0,1.0,phase_1,,,,,,,,,,,,,green,triangle
157.0,1.0,1.0,0.0,2.0,2.0,635.1835960001608,4.0,1.0,phase_1,,,,,,,,,,,,,orange,circle
181.0,5.0,1.0,1.0,4.0,4.0,932.5265329998728,4.0,1.0,phase_1,,,,,,,,,,,,,magenta,I
0.0,4.0,4.0,0.0,6.0,6.0,483.0664999999499,1.0,1.0,phase_2,go,250.0,250.0,1.0,,,,,,,,,blue,diamond
0.0,3.0,3.0,0.0,6.0,6.0,440.8467349999228,1.0,1.0,phase_2,go,250.0,250.0,1.0,,,,,,,,,cyan,cross
0.0,1.0,1.0,0.0,5.0,5.0,420.3004500000133,1.0,1.0,phase_2,go,250.0,250.0,1.0,,,,,,,,,orange,circle
0.0,4.0,4.0,0.0,5.0,5.0,379.6420640001088,1.0,1.0,phase_2,go,250.0,250.0,1.0,,,,,,,,,blue,diamond
0.0,4.0,4.0,0.0,5.0,5.0,362.2085299998616,1.0,1.0,phase_2,go,250.0,250.0,1.0,,,,,,,,,blue,diamond
0.0,8.0,4.0,1.0,5.0,0.0,0.0,1.0,1.0,phase_2,stop,250.0,250.0,4.0,,,,,,,,,yellow,square
0.0,1.0,1.0,0.0,6.0,6.0,419.273666999743,1.0,1.0,phase_2,go,300.0,250.0,1.0,,,,,,,,,orange,circle
0.0,3.0,3.0,0.0,5.0,5.0,448.3417540000118,1.0,1.0,phase_2,go,300.0,250.0,1.0,,,,,,,,,cyan,cross
0.0,6.0,2.0,1.0,5.0,5.0,387.3527730002024,1.0,1.0,phase_2,stop,300.0,250.0,3.0,,,,,,,,,white,flipped triangle
0.0,8.0,4.0,1.0,6.0,6.0,432.9095289999713,1.0,1.0,phase_2,stop,250.0,250.0,3.0,,,,,,,,,yellow,square
0.0,4.0,4.0,0.0,5.0,5.0,362.8244129999984,1.0,1.0,phase_2,go,250.0,200.0,1.0,,,,,,,,,blue,diamond
0.0,6.0,2.0,1.0,5.0,5.0,441.7384139997011,1.0,1.0,phase_2,stop,250.0,200.0,3.0,,,,,,,,,white,flipped triangle
0.0,5.0,1.0,1.0,6.0,0.0,0.0,1.0,1.0,phase_2,stop,200.0,200.0,4.0,,,,,,,,,magenta,I
0.0,1.0,1.0,0.0,5.0,5.0,670.5715500002043,1.0,1.0,phase_2,go,200.0,250.0,1.0,,,,,,,,,orange,circle
0.0,5.0,1.0,1.0,5.0,5.0,533.7513730000865,1.0,1.0,phase_2,go,200.0,250.0,1.0,,,,,,,,,magenta,I
0.0,2.0,2.0,0.0,6.0,6.0,420.1930790000006,1.0,1.0,phase_2,go,200.0,250.0,1.0,,,,,,,,,green,triangle
0.0,2.0,2.0,0.0,6.0,6.0,573.0524680002418,1.0,1.0,phase_2,go,200.0,250.0,1.0,,,,,,,,,green,triangle
0.0,7.0,3.0,1.0,6.0,0.0,0.0,1.0,1.0,phase_2,stop,200.0,250.0,4.0,,,,,,,,,gray,hexagon
0.0,4.0,4.0,0.0,5.0,5.0,515.2858659998856,1.0,1.0,phase_2,go,200.0,300.0,1.0,,,,,,,,,blue,diamond
0.0,7.0,3.0,1.0,5.0,0.0,0.0,1.0,1.0,phase_2,stop,200.0,300.0,4.0,,,,,,,,,gray,hexagon
0.0,8.0,4.0,1.0,5.0,0.0,0.0,1.0,1.0,phase_2,stop,250.0,300.0,4.0,,,,,,,,,yellow,square
0.0,4.0,4.0,0.0,6.0,6.0,479.9060059999647,1.0,1.0,phase_2,go,300.0,300.0,1.0,,,,,,,,,blue,diamond
0.0,7.0,3.0,1.0,6.0,0.0,0.0,1.0,1.0,phase_2,stop,300.0,300.0,4.0,,,,,,,,,gray,hexagon
0.0,5.0,1.0,1.0,6.0,6.0,670.3760209998109,1.0,1.0,phase_2,go,300.0,350.0,1.0,,,,,,,,,magenta,I
0.0,4.0,4.0,0.0,6.0,6.0,667.0600390002619,1.0,1.0,phase_2,go,300.0,350.0,1.0,,,,,,,,,blue,diamond
0.0,2.0,2.0,0.0,6.0,6.0,636.4942849995714,1.0,1.0,phase_2,go,300.0,350.0,1.0,,,,,,,,,green,triangle
0.0,6.0,2.0,1.0,6.0,6.0,440.6738430002406,1.0,1.0,phase_2,stop,300.0,350.0,3.0,,,,,,,,,white,flipped triangle
0.0,3.0,3.0,0.0,6.0,6.0,748.9227149999351,1.0,1.0,phase_2,go,300.0,300.0,1.0,,,,,,,,,cyan,cross
0.0,8.0,4.0,1.0,6.0,0.0,0.0,1.0,1.0,phase_2,stop,300.0,300.0,4.0,,,,,,,,,yellow,square
0.0,4.0,4.0,0.0,5.0,5.0,546.7804509999041,1.0,1.0,phase_2,go,300.0,350.0,1.0,,,,,,,,,blue,diamond
0.0,6.0,2.0,1.0,6.0,0.0,0.0,1.0,1.0,phase_2,stop,300.0,350.0,4.0,,,,,,,,,white,flipped triangle
0.0,8.0,4.0,1.0,5.0,5.0,740.2627579999717,1.0,1.0,phase_2,go,300.0,400.0,1.0,,,,,,,,,yellow,square
0.0,6.0,2.0,1.0,5.0,0.0,0.0,1.0,1.0,phase_2,stop,300.0,400.0,4.0,,,,,,,,,white,flipped triangle
0.0,5.0,1.0,1.0,6.0,0.0,0.0,1.0,1.0,phase_2,stop,350.0,400.0,4.0,,,,,,,,,magenta,I
0.0,1.0,1.0,0.0,6.0,6.0,665.4672670001673,1.0,1.0,phase_2,go,350.0,450.0,1.0,,,,,,,,,orange,circle
0.0,1.0,1.0,0.0,5.0,5.0,744.4504140003119,1.0,1.0,phase_2,go,350.0,450.0,1.0,,,,,,,,,orange,circle
0.0,1.0,1.0,0.0,5.0,5.0,573.5329950002779,2.0,1.0,phase_2,go,350.0,450.0,1.0,,,,,,,,,orange,circle
0.0,5.0,1.0,1.0,5.0,0.0,0.0,2.0,1.0,phase_2,stop,350.0,450.0,4.0,,,,,,,,,magenta,I
0.0,2.0,2.0,0.0,6.0,6.0,418.5124149998955,2.0,1.0,phase_2,go,400.0,450.0,1.0,,,,,,,,,green,triangle
0.0,3.0,3.0,0.0,5.0,5.0,439.2314739998255,2.0,1.0,phase_2,go,400.0,450.0,1.0,,,,,,,,,cyan,cross
0.0,6.0,2.0,1.0,6.0,6.0,443.4436679998725,2.0,1.0,phase_2,stop,400.0,450.0,3.0,,,,,,,,,white,flipped triangle
0.0,3.0,3.0,0.0,6.0,6.0,865.0928050001312,2.0,1.0,phase_2,go,400.0,400.0,1.0,,,,,,,,,cyan,cross
0.0,8.0,4.0,1.0,5.0,5.0,808.7614229998508,2.0,1.0,phase_2,go,400.0,400.0,1.0,,,,,,,,,yellow,square
0.0,1.0,1.0,0.0,6.0,6.0,379.8358690000896,2.0,1.0,phase_2,go,400.0,400.0,1.0,,,,,,,,,orange,circle
0.0,2.0,2.0,0.0,5.0,5.0,392.6884470001823,2.0,1.0,phase_2,go,400.0,400.0,1.0,,,,,,,,,green,triangle
0.0,7.0,3.0,1.0,6.0,6.0,353.3534890002556,2.0,1.0,phase_2,stop,400.0,400.0,3.0,,,,,,,,,gray,hexagon
0.0,8.0,4.0,1.0,6.0,0.0,0.0,2.0,1.0,phase_2,stop,400.0,350.0,4.0,,,,,,,,,yellow,square
0.0,6.0,2.0,1.0,5.0,5.0,815.3093020000597,2.0,1.0,phase_2,go,400.0,400.0,1.0,,,,,,,,,white,flipped triangle
0.0,7.0,3.0,1.0,5.0,5.0,513.9263880000726,2.0,1.0,phase_2,stop,400.0,400.0,3.0,,,,,,,,,gray,hexagon
0.0,4.0,4.0,0.0,6.0,6.0,872.740062000048,2.0,1.0,phase_2,go,350.0,400.0,1.0,,,,,,,,,blue,diamond
0.0,8.0,4.0,1.0,6.0,6.0,707.6716139999917,2.0,1.0,phase_2,go,350.0,400.0,1.0,,,,,,,,,yellow,square
0.0,7.0,3.0,1.0,5.0,0.0,0.0,2.0,1.0,phase_2,stop,350.0,400.0,4.0,,,,,,,,,gray,hexagon
0.0,1.0,1.0,0.0,6.0,6.0,609.4253329997628,2.0,1.0,phase_2,go,400.0,400.0,1.0,,,,,,,,,orange,circle
0.0,4.0,4.0,0.0,6.0,6.0,861.7990140000984,2.0,1.0,phase_2,go,400.0,400.0,1.0,,,,,,,,,blue,diamond
0.0,5.0,1.0,1.0,6.0,0.0,0.0,2.0,1.0,phase_2,stop,400.0,400.0,4.0,,,,,,,,,magenta,I
0.0,2.0,2.0,0.0,6.0,6.0,962.4493669998628,2.0,1.0,phase_2,go,400.0,450.0,1.0,,,,,,,,,green,triangle
0.0,2.0,2.0,0.0,5.0,5.0,952.6015900000856,2.0,1.0,phase_2,go,400.0,450.0,1.0,,,,,,,,,green,triangle
0.0,7.0,3.0,1.0,6.0,6.0,905.306348999602,2.0,1.0,phase_2,go,400.0,450.0,1.0,,,,,,,,,gray,hexagon
0.0,2.0,2.0,0.0,6.0,6.0,438.247906000015,2.0,1.0,phase_2,go,400.0,450.0,1.0,,,,,,,,,green,triangle
0.0,6.0,2.0,1.0,5.0,5.0,375.4054539999742,2.0,1.0,phase_2,go,400.0,450.0,1.0,,,,,,,,,white,flipped triangle
0.0,8.0,4.0,1.0,5.0,0.0,0.0,2.0,1.0,phase_2,stop,400.0,450.0,4.0,,,,,,,,,yellow,square
0.0,1.0,1.0,0.0,5.0,5.0,559.270237000419,2.0,1.0,phase_2,go,450.0,450.0,1.0,,,,,,,,,orange,circle
0.0,2.0,2.0,0.0,5.0,5.0,702.6656520001779,2.0,1.0,phase_2,go,450.0,450.0,1.0,,,,,,,,,green,triangle
0.0,5.0,1.0,1.0,5.0,0.0,0.0,2.0,1.0,phase_2,stop,450.0,450.0,4.0,,,,,,,,,magenta,I
0.0,7.0,3.0,1.0,6.0,0.0,0.0,2.0,1.0,phase_2,stop,500.0,450.0,4.0,,,,,,,,,gray,hexagon
0.0,3.0,3.0,0.0,6.0,6.0,849.9457989996699,2.0,1.0,phase_2,go,500.0,500.0,1.0,,,,,,,,,cyan,cross
0.0,2.0,2.0,0.0,5.0,5.0,651.0124169999472,2.0,1.0,phase_2,go,500.0,500.0,1.0,,,,,,,,,green,triangle
0.0,6.0,2.0,1.0,6.0,6.0,689.9788040000203,2.0,1.0,phase_2,stop,500.0,500.0,3.0,,,,,,,,,white,flipped triangle
0.0,6.0,2.0,1.0,6.0,0.0,0.0,2.0,1.0,phase_2,stop,500.0,450.0,4.0,,,,,,,,,white,flipped triangle
0.0,6.0,2.0,1.0,5.0,5.0,920.8167439996942,2.0,1.0,phase_2,go,500.0,500.0,1.0,,,,,,,,,white,flipped triangle
0.0,3.0,3.0,0.0,6.0,6.0,808.5266670000237,2.0,1.0,phase_2,go,500.0,500.0,1.0,,,,,,,,,cyan,cross
0.0,3.0,3.0,0.0,5.0,5.0,520.1357089999874,2.0,1.0,phase_2,go,500.0,500.0,1.0,,,,,,,,,cyan,cross
0.0,8.0,4.0,1.0,6.0,6.0,333.6758139998892,3.0,1.0,phase_2,stop,500.0,500.0,3.0,,,,,,,,,yellow,square
0.0,6.0,2.0,1.0,6.0,6.0,497.1375840000291,3.0,1.0,phase_2,stop,500.0,450.0,3.0,,,,,,,,,white,flipped triangle
0.0,5.0,1.0,1.0,5.0,5.0,389.5312810000177,3.0,1.0,phase_2,stop,500.0,400.0,3.0,,,,,,,,,magenta,I
0.0,4.0,4.0,0.0,6.0,6.0,447.8826979998302,3.0,1.0,phase_2,go,450.0,400.0,1.0,,,,,,,,,blue,diamond
0.0,3.0,3.0,0.0,5.0,5.0,333.6625609999828,3.0,1.0,phase_2,go,450.0,400.0,1.0,,,,,,,,,cyan,cross
0.0,7.0,3.0,1.0,5.0,5.0,418.7488200000189,3.0,1.0,phase_2,go,450.0,400.0,1.0,,,,,,,,,gray,hexagon
0.0,5.0,1.0,1.0,6.0,6.0,372.1641640004236,3.0,1.0,phase_2,stop,450.0,400.0,3.0,,,,,,,,,magenta,I
0.0,8.0,4.0,1.0,5.0,5.0,385.1260550000006,3.0,1.0,phase_2,stop,450.0,350.0,3.0,,,,,,,,,yellow,square
0.0,3.0,3.0,0.0,5.0,5.0,610.7038069999362,3.0,1.0,phase_2,go,400.0,350.0,1.0,,,,,,,,,cyan,cross
0.0,6.0,2.0,1.0,5.0,5.0,391.3142549999975,3.0,1.0,phase_2,stop,400.0,350.0,3.0,,,,,,,,,white,flipped triangle
0.0,8.0,4.0,1.0,6.0,0.0,0.0,3.0,1.0,phase_2,stop,350.0,350.0,4.0,,,,,,,,,yellow,square
0.0,8.0,4.0,1.0,6.0,6.0,550.2970369998366,3.0,1.0,phase_2,stop,350.0,400.0,3.0,,,,,,,,,yellow,square
0.0,1.0,1.0,0.0,6.0,6.0,646.8056549997527,3.0,1.0,phase_2,go,350.0,350.0,1.0,,,,,,,,,orange,circle
0.0,8.0,4.0,1.0,5.0,0.0,0.0,3.0,1.0,phase_2,stop,350.0,350.0,4.0,,,,,,,,,yellow,square
0.0,7.0,3.0,1.0,6.0,0.0,0.0,3.0,1.0,phase_2,stop,400.0,350.0,4.0,,,,,,,,,gray,hexagon
0.0,3.0,3.0,0.0,6.0,6.0,730.5122309999206,3.0,1.0,phase_2,go,400.0,400.0,1.0,,,,,,,,,cyan,cross
0.0,4.0,4.0,0.0,5.0,5.0,895.1040659999308,3.0,1.0,phase_2,go,400.0,400.0,1.0,,,,,,,,,blue,diamond
0.0,7.0,3.0,1.0,5.0,0.0,0.0,3.0,1.0,phase_2,stop,400.0,400.0,4.0,,,,,,,,,gray,hexagon
0.0,8.0,4.0,1.0,6.0,0.0,0.0,3.0,1.0,phase_2,stop,450.0,400.0,4.0,,,,,,,,,yellow,square
0.0,2.0,2.0,0.0,5.0,5.0,681.0694599998897,3.0,1.0,phase_2,go,450.0,450.0,1.0,,,,,,,,,green,triangle
0.0,7.0,3.0,1.0,5.0,5.0,732.2750379998979,3.0,1.0,phase_2,go,450.0,450.0,1.0,,,,,,,,,gray,hexagon
0.0,4.0,4.0,0.0,5.0,5.0,379.7553170002175,3.0,1.0,phase_2,go,450.0,450.0,1.0,,,,,,,,,blue,diamond
0.0,3.0,3.0,0.0,6.0,6.0,361.049458999787,3.0,1.0,phase_2,go,450.0,450.0,1.0,,,,,,,,,cyan,cross
0.0,7.0,3.0,1.0,6.0,6.0,491.9221770001059,3.0,1.0,phase_2,stop,450.0,450.0,3.0,,,,,,,,,gray,hexagon
0.0,1.0,1.0,0.0,6.0,6.0,936.129646000154,3.0,1.0,phase_2,go,450.0,400.0,1.0,,,,,,,,,orange,circle
0.0,3.0,3.0,0.0,5.0,5.0,588.8171730002796,3.0,1.0,phase_2,go,450.0,400.0,1.0,,,,,,,,,cyan,cross
0.0,3.0,3.0,0.0,6.0,6.0,437.6960989998224,3.0,1.0,phase_2,go,450.0,400.0,1.0,,,,,,,,,cyan,cross
0.0,7.0,3.0,1.0,6.0,6.0,447.4367889997666,3.0,1.0,phase_2,stop,450.0,400.0,3.0,,,,,,,,,gray,hexagon
0.0,4.0,4.0,0.0,6.0,6.0,542.2630040002332,3.0,1.0,phase_2,go,450.0,350.0,1.0,,,,,,,,,blue,diamond
0.0,7.0,3.0,1.0,6.0,0.0,0.0,3.0,1.0,phase_2,stop,450.0,350.0,4.0,,,,,,,,,gray,hexagon
0.0,1.0,1.0,0.0,6.0,6.0,662.8143540001474,3.0,1.0,phase_2,go,450.0,400.0,1.0,,,,,,,,,orange,circle
0.0,5.0,1.0,1.0,5.0,5.0,429.5282230000339,3.0,1.0,phase_2,stop,450.0,400.0,3.0,,,,,,,,,magenta,I
0.0,7.0,3.0,1.0,5.0,5.0,611.6612800001349,3.0,1.0,phase_2,go,400.0,400.0,1.0,,,,,,,,,gray,hexagon
0.0,6.0,2.0,1.0,6.0,6.0,510.79978600000686,3.0,1.0,phase_2,stop,400.0,400.0,3.0,,,,,,,,,white,flipped triangle
0.0,4.0,4.0,0.0,6.0,6.0,446.2681469999552,3.0,1.0,phase_2,go,400.0,350.0,1.0,,,,,,,,,blue,diamond
0.0,7.0,3.0,1.0,5.0,0.0,0.0,3.0,1.0,phase_2,stop,400.0,350.0,4.0,,,,,,,,,gray,hexagon
0.0,2.0,2.0,0.0,5.0,5.0,529.197228999692,4.0,1.0,phase_2,go,450.0,350.0,1.0,,,,,,,,,green,triangle
0.0,8.0,4.0,1.0,5.0,5.0,425.63733599990877,4.0,1.0,phase_2,stop,450.0,350.0,3.0,,,,,,,,,yellow,square
0.0,2.0,2.0,0.0,5.0,5.0,386.9001759999264,4.0,1.0,phase_2,go,400.0,350.0,1.0,,,,,,,,,green,triangle
0.0,4.0,4.0,0.0,6.0,6.0,416.9808510000621,4.0,1.0,phase_2,go,400.0,350.0,1.0,,,,,,,,,blue,diamond
0.0,1.0,1.0,0.0,6.0,6.0,369.7493360000408,4.0,1.0,phase_2,go,400.0,350.0,1.0,,,,,,,,,orange,circle
0.0,6.0,2.0,1.0,6.0,6.0,472.051712999928,4.0,1.0,phase_2,go,400.0,350.0,1.0,,,,,,,,,white,flipped triangle
0.0,6.0,2.0,1.0,6.0,6.0,478.4814739996363,4.0,1.0,phase_2,stop,400.0,350.0,3.0,,,,,,,,,white,flipped triangle
0.0,3.0,3.0,0.0,5.0,5.0,332.2078000001056,4.0,1.0,phase_2,go,400.0,300.0,1.0,,,,,,,,,cyan,cross
0.0,6.0,2.0,1.0,6.0,6.0,283.3255550003741,4.0,1.0,phase_2,go,400.0,300.0,1.0,,,,,,,,,white,flipped triangle
0.0,7.0,3.0,1.0,6.0,6.0,335.6932179999603,4.0,1.0,phase_2,stop,400.0,300.0,3.0,,,,,,,,,gray,hexagon
0.0,4.0,4.0,0.0,6.0,6.0,321.9496410001738,4.0,1.0,phase_2,go,400.0,250.0,1.0,,,,,,,,,blue,diamond
0.0,1.0,1.0,0.0,6.0,6.0,293.4334230003514,4.0,1.0,phase_2,go,400.0,250.0,1.0,,,,,,,,,orange,circle
0.0,5.0,1.0,1.0,5.0,5.0,369.474873999934,4.0,1.0,phase_2,stop,400.0,250.0,3.0,,,,,,,,,magenta,I
0.0,6.0,2.0,1.0,6.0,6.0,339.5879879999484,4.0,1.0,phase_2,stop,350.0,250.0,3.0,,,,,,,,,white,flipped triangle
0.0,4.0,4.0,0.0,5.0,5.0,425.4656359998989,4.0,1.0,phase_2,go,350.0,200.0,1.0,,,,,,,,,blue,diamond
0.0,4.0,4.0,0.0,6.0,6.0,387.1182019997832,4.0,1.0,phase_2,go,350.0,200.0,1.0,,,,,,,,,blue,diamond
0.0,4.0,4.0,0.0,5.0,5.0,406.9956289999936,4.0,1.0,phase_2,go,350.0,200.0,1.0,,,,,,,,,blue,diamond
0.0,5.0,1.0,1.0,6.0,6.0,322.3781259998759,4.0,1.0,phase_2,go,350.0,200.0,1.0,,,,,,,,,magenta,I
0.0,5.0,1.0,1.0,5.0,5.0,487.0750220002264,4.0,1.0,phase_2,stop,350.0,200.0,3.0,,,,,,,,,magenta,I
0.0,6.0,2.0,1.0,5.0,0.0,0.0,4.0,1.0,phase_2,stop,300.0,200.0,4.0,,,,,,,,,white,flipped triangle
0.0,7.0,3.0,1.0,6.0,6.0,530.8517150001535,4.0,1.0,phase_2,go,350.0,200.0,1.0,,,,,,,,,gray,hexagon
0.0,3.0,3.0,0.0,5.0,5.0,539.521749999949,4.0,1.0,phase_2,go,350.0,200.0,1.0,,,,,,,,,cyan,cross
0.0,1.0,1.0,0.0,5.0,5.0,359.9736689998281,4.0,1.0,phase_2,go,350.0,200.0,1.0,,,,,,,,,orange,circle
0.0,6.0,2.0,1.0,5.0,5.0,348.9145479998115,4.0,1.0,phase_2,stop,350.0,200.0,3.0,,,,,,,,,white,flipped triangle
0.0,1.0,1.0,0.0,5.0,5.0,682.7042410000104,4.0,1.0,phase_2,go,300.0,200.0,1.0,,,,,,,,,orange,circle
0.0,7.0,3.0,1.0,6.0,0.0,0.0,4.0,1.0,phase_2,stop,300.0,200.0,4.0,,,,,,,,,gray,hexagon
0.0,3.0,3.0,0.0,6.0,6.0,501.0738969999693,4.0,1.0,phase_2,go,300.0,250.0,1.0,,,,,,,,,cyan,cross
0.0,4.0,4.0,0.0,6.0,6.0,387.8329520002808,4.0,1.0,phase_2,go,300.0,250.0,1.0,,,,,,,,,blue,diamond
0.0,6.0,2.0,1.0,5.0,5.0,398.6848189997545,4.0,1.0,phase_2,go,300.0,250.0,1.0,,,,,,,,,white,flipped triangle
0.0,5.0,1.0,1.0,5.0,0.0,0.0,4.0,1.0,phase_2,stop,300.0,250.0,4.0,,,,,,,,,magenta,I
0.0,7.0,3.0,1.0,6.0,0.0,0.0,4.0,1.0,phase_2,stop,350.0,250.0,4.0,,,,,,,,,gray,hexagon
0.0,1.0,1.0,0.0,6.0,6.0,766.8911779996961,4.0,1.0,phase_2,go,350.0,300.0,1.0,,,,,,,,,orange,circle
0.0,2.0,2.0,0.0,5.0,5.0,444.2722999997386,4.0,1.0,phase_2,go,350.0,300.0,1.0,,,,,,,,,green,triangle
0.0,2.0,2.0,0.0,6.0,6.0,435.3851409996423,4.0,1.0,phase_2,go,350.0,300.0,1.0,,,,,,,,,green,triangle
0.0,3.0,3.0,0.0,6.0,6.0,408.9365309996537,4.0,1.0,phase_2,go,350.0,300.0,1.0,,,,,,,,,cyan,cross
0.0,8.0,4.0,1.0,5.0,0.0,0.0,4.0,1.0,phase_2,stop,350.0,300.0,4.0,,,,,,,,,yellow,square
0.0,3.0,3.0,0.0,5.0,5.0,549.6290659998522,5.0,1.0,phase_2,go,400.0,300.0,1.0,,,,,,,,,cyan,cross
0.0,8.0,4.0,1.0,6.0,6.0,437.3687489996882,5.0,1.0,phase_2,stop,400.0,300.0,3.0,,,,,,,,,yellow,square
0.0,3.0,3.0,0.0,5.0,5.0,578.0351160001374,5.0,1.0,phase_2,go,400.0,250.0,1.0,,,,,,,,,cyan,cross
0.0,6.0,2.0,1.0,6.0,6.0,303.9486279999437,5.0,1.0,phase_2,stop,400.0,250.0,3.0,,,,,,,,,white,flipped triangle
0.0,7.0,3.0,1.0,5.0,5.0,398.6599840000053,5.0,1.0,phase_2,go,400.0,200.0,1.0,,,,,,,,,gray,hexagon
0.0,3.0,3.0,0.0,6.0,6.0,351.019381000242,5.0,1.0,phase_2,go,400.0,200.0,1.0,,,,,,,,,cyan,cross
0.0,7.0,3.0,1.0,5.0,5.0,456.6178860000036,5.0,1.0,phase_2,stop,400.0,200.0,3.0,,,,,,,,,gray,hexagon
0.0,5.0,1.0,1.0,6.0,6.0,331.5503590001754,5.0,1.0,phase_2,stop,350.0,200.0,3.0,,,,,,,,,magenta,I
0.0,2.0,2.0,0.0,6.0,6.0,664.104683000005,5.0,1.0,phase_2,go,350.0,150.0,1.0,,,,,,,,,green,triangle
0.0,2.0,2.0,0.0,5.0,5.0,312.7378510002927,5.0,1.0,phase_2,go,350.0,150.0,1.0,,,,,,,,,green,triangle
0.0,5.0,1.0,1.0,6.0,6.0,416.337877999922,5.0,1.0,phase_2,stop,350.0,150.0,3.0,,,,,,,,,magenta,I
0.0,1.0,1.0,0.0,6.0,6.0,642.9346380000425,5.0,1.0,phase_2,go,350.0,100.0,1.0,,,,,,,,,orange,circle
0.0,1.0,1.0,0.0,6.0,6.0,550.1228660000379,5.0,1.0,phase_2,go,350.0,100.0,1.0,,,,,,,,,orange,circle
0.0,1.0,1.0,0.0,6.0,6.0,577.3514259999502,5.0,1.0,phase_2,go,350.0,100.0,1.0,,,,,,,,,orange,circle
0.0,5.0,1.0,1.0,6.0,0.0,0.0,5.0,1.0,phase_2,stop,350.0,100.0,4.0,,,,,,,,,magenta,I
0.0,1.0,1.0,0.0,5.0,5.0,540.528539999741,5.0,1.0,phase_2,go,350.0,150.0,1.0,,,,,,,,,orange,circle
0.0,7.0,3.0,1.0,5.0,5.0,471.504153999831,5.0,1.0,phase_2,stop,350.0,150.0,3.0,,,,,,,,,gray,hexagon
0.0,5.0,1.0,1.0,6.0,0.0,0.0,5.0,1.0,phase_2,stop,300.0,150.0,4.0,,,,,,,,,magenta,I
0.0,5.0,1.0,1.0,5.0,5.0,672.3661599999105,5.0,1.0,phase_2,go,300.0,200.0,1.0,,,,,,,,,magenta,I
0.0,2.0,2.0,0.0,6.0,6.0,408.2586690001335,5.0,1.0,phase_2,go,300.0,200.0,1.0,,,,,,,,,green,triangle
0.0,2.0,2.0,0.0,6.0,6.0,387.4539660000664,5.0,1.0,phase_2,go,300.0,200.0,1.0,,,,,,,,,green,triangle
0.0,8.0,4.0,1.0,6.0,0.0,0.0,5.0,1.0,phase_2,stop,300.0,200.0,4.0,,,,,,,,,yellow,square
0.0,5.0,1.0,1.0,5.0,0.0,0.0,5.0,1.0,phase_2,stop,300.0,250.0,4.0,,,,,,,,,magenta,I
0.0,6.0,2.0,1.0,5.0,0.0,0.0,5.0,1.0,phase_2,stop,350.0,250.0,4.0,,,,,,,,,white,flipped triangle
0.0,2.0,2.0,0.0,6.0,6.0,509.70384599986573,5.0,1.0,phase_2,go,400.0,250.0,1.0,,,,,,,,,green,triangle
0.0,2.0,2.0,0.0,6.0,6.0,680.931512999905,5.0,1.0,phase_2,go,400.0,250.0,1.0,,,,,,,,,green,triangle
0.0,5.0,1.0,1.0,6.0,0.0,0.0,5.0,1.0,phase_2,stop,400.0,250.0,4.0,,,,,,,,,magenta,I
0.0,8.0,4.0,1.0,6.0,6.0,860.448778999853,5.0,1.0,phase_2,go,400.0,300.0,1.0,,,,,,,,,yellow,square
0.0,2.0,2.0,0.0,5.0,5.0,979.705365999962,5.0,1.0,phase_2,go,400.0,300.0,1.0,,,,,,,,,green,triangle
0.0,1.0,1.0,0.0,6.0,6.0,529.5908389998658,5.0,1.0,phase_2,go,400.0,300.0,1.0,,,,,,,,,orange,circle
0.0,1.0,1.0,0.0,6.0,6.0,425.324086999808,5.0,1.0,phase_2,go,400.0,300.0,1.0,,,,,,,,,orange,circle
0.0,5.0,1.0,1.0,5.0,5.0,548.1754870002078,5.0,1.0,phase_2,stop,400.0,300.0,3.0,,,,,,,,,magenta,I
0.0,1.0,1.0,0.0,5.0,5.0,720.4627529999925,5.0,1.0,phase_2,go,350.0,300.0,1.0,,,,,,,,,orange,circle
0.0,4.0,4.0,0.0,5.0,5.0,455.6364580002991,5.0,1.0,phase_2,go,350.0,300.0,1.0,,,,,,,,,blue,diamond
0.0,8.0,4.0,1.0,6.0,0.0,0.0,5.0,1.0,phase_2,stop,350.0,300.0,4.0,,,,,,,,,yellow,square
0.0,8.0,4.0,1.0,5.0,0.0,0.0,5.0,1.0,phase_2,stop,350.0,350.0,4.0,,,,,,,,,yellow,square
0.0,1.0,1.0,0.0,5.0,5.0,492.441448000136,6.0,1.0,phase_2,go,400.0,350.0,1.0,,,,,,,,,orange,circle
0.0,8.0,4.0,1.0,6.0,6.0,330.7335399999829,6.0,1.0,phase_2,stop,400.0,350.0,3.0,,,,,,,,,yellow,square
0.0,7.0,3.0,1.0,6.0,6.0,385.0913420001234,6.0,1.0,phase_2,stop,400.0,300.0,3.0,,,,,,,,,gray,hexagon
0.0,4.0,4.0,0.0,5.0,5.0,472.221804000128,6.0,1.0,phase_2,go,400.0,250.0,1.0,,,,,,,,,blue,diamond
0.0,6.0,2.0,1.0,5.0,5.0,360.1149500000247,6.0,1.0,phase_2,stop,400.0,250.0,3.0,,,,,,,,,white,flipped triangle
0.0,3.0,3.0,0.0,5.0,5.0,379.538526000033,6.0,1.0,phase_2,go,350.0,250.0,1.0,,,,,,,,,cyan,cross
0.0,6.0,2.0,1.0,6.0,6.0,341.5880850002395,6.0,1.0,phase_2,go,350.0,250.0,1.0,,,,,,,,,white,flipped triangle
0.0,3.0,3.0,0.0,5.0,5.0,359.2016150000745,6.0,1.0,phase_2,go,350.0,250.0,1.0,,,,,,,,,cyan,cross
0.0,8.0,4.0,1.0,5.0,5.0,390.7428009997602,6.0,1.0,phase_2,stop,350.0,250.0,3.0,,,,,,,,,yellow,square
0.0,1.0,1.0,0.0,6.0,6.0,293.1626230001711,6.0,1.0,phase_2,go,300.0,250.0,1.0,,,,,,,,,orange,circle
0.0,4.0,4.0,0.0,5.0,5.0,284.8190979998435,6.0,1.0,phase_2,go,300.0,250.0,1.0,,,,,,,,,blue,diamond
0.0,8.0,4.0,1.0,6.0,6.0,531.8246550000367,6.0,1.0,phase_2,go,300.0,250.0,1.0,,,,,,,,,yellow,square
0.0,5.0,1.0,1.0,5.0,5.0,349.8197590001837,6.0,1.0,phase_2,go,300.0,250.0,1.0,,,,,,,,,magenta,I
0.0,3.0,3.0,0.0,6.0,6.0,454.9648140000499,6.0,1.0,phase_2,go,300.0,250.0,1.0,,,,,,,,,cyan,cross
0.0,7.0,3.0,1.0,6.0,6.0,394.9821590003921,6.0,1.0,phase_2,stop,300.0,250.0,3.0,,,,,,,,,gray,hexagon
0.0,7.0,3.0,1.0,6.0,0.0,0.0,6.0,1.0,phase_2,stop,300.0,200.0,4.0,,,,,,,,,gray,hexagon
0.0,2.0,2.0,0.0,5.0,5.0,444.0564310002628,6.0,1.0,phase_2,go,300.0,250.0,1.0,,,,,,,,,green,triangle
0.0,7.0,3.0,1.0,5.0,5.0,793.3855609999227,6.0,1.0,phase_2,go,300.0,250.0,1.0,,,,,,,,,gray,hexagon
0.0,6.0,2.0,1.0,6.0,0.0,0.0,6.0,1.0,phase_2,stop,300.0,250.0,4.0,,,,,,,,,white,flipped triangle
0.0,3.0,3.0,0.0,5.0,5.0,416.5779800000564,6.0,1.0,phase_2,go,300.0,300.0,1.0,,,,,,,,,cyan,cross
0.0,7.0,3.0,1.0,6.0,6.0,390.87898400021,6.0,1.0,phase_2,stop,300.0,300.0,3.0,,,,,,,,,gray,hexagon
0.0,5.0,1.0,1.0,5.0,5.0,871.4881040000364,6.0,1.0,phase_2,stop,300.0,250.0,3.0,,,,,,,,,magenta,I
0.0,3.0,3.0,0.0,6.0,6.0,604.8619820003296,6.0,1.0,phase_2,go,250.0,250.0,1.0,,,,,,,,,cyan,cross
0.0,2.0,2.0,0.0,6.0,6.0,710.2761900000587,6.0,1.0,phase_2,go,250.0,250.0,1.0,,,,,,,,,green,triangle
0.0,1.0,1.0,0.0,5.0,5.0,452.9945750000479,6.0,1.0,phase_2,go,250.0,250.0,1.0,,,,,,,,,orange,circle
0.0,1.0,1.0,0.0,5.0,5.0,465.6057430001965,6.0,1.0,phase_2,go,250.0,250.0,1.0,,,,,,,,,orange,circle
0.0,3.0,3.0,0.0,6.0,6.0,831.9663709999077,6.0,1.0,phase_2,go,250.0,250.0,1.0,,,,,,,,,cyan,cross
0.0,5.0,1.0,1.0,6.0,6.0,406.7813130000104,6.0,1.0,phase_2,go,250.0,250.0,1.0,,,,,,,,,magenta,I
0.0,1.0,1.0,0.0,6.0,6.0,378.7737210000159,6.0,1.0,phase_2,go,250.0,250.0,1.0,,,,,,,,,orange,circle
0.0,8.0,4.0,1.0,6.0,6.0,448.8348580002821,6.0,1.0,phase_2,stop,250.0,250.0,3.0,,,,,,,,,yellow,square
0.0,8.0,4.0,1.0,6.0,5.0,661.2786620003135,6.0,1.0,phase_2,go,250.0,200.0,2.0,,,,,,,,,yellow,square
0.0,4.0,4.0,0.0,6.0,6.0,689.9420690001534,6.0,1.0,phase_2,go,250.0,200.0,1.0,,,,,,,,,blue,diamond
0.0,8.0,4.0,1.0,6.0,0.0,0.0,6.0,1.0,phase_2,stop,250.0,200.0,4.0,,,,,,,,,yellow,square
0.0,1.0,1.0,0.0,5.0,5.0,463.4574020001309,6.0,1.0,phase_2,go,250.0,250.0,1.0,,,,,,,,,orange,circle
0.0,3.0,3.0,0.0,5.0,5.0,575.7602399999087,6.0,1.0,phase_2,go,250.0,250.0,1.0,,,,,,,,,cyan,cross
0.0,8.0,4.0,1.0,5.0,0.0,0.0,6.0,1.0,phase_2,stop,250.0,250.0,4.0,,,,,,,,,yellow,square
0.0,1.0,1.0,0.0,5.0,5.0,491.3838309998937,7.0,1.0,phase_2,go,300.0,250.0,1.0,,,,,,,,,orange,circle
0.0,5.0,1.0,1.0,5.0,5.0,348.8955389998409,7.0,1.0,phase_2,stop,300.0,250.0,3.0,,,,,,,,,magenta,I
0.0,8.0,4.0,1.0,5.0,0.0,0.0,7.0,1.0,phase_2,stop,250.0,250.0,4.0,,,,,,,,,yellow,square
0.0,7.0,3.0,1.0,5.0,0.0,0.0,7.0,1.0,phase_2,stop,300.0,250.0,4.0,,,,,,,,,gray,hexagon
0.0,2.0,2.0,0.0,5.0,5.0,400.0898640001651,7.0,1.0,phase_2,go,350.0,250.0,1.0,,,,,,,,,green,triangle
0.0,1.0,1.0,0.0,6.0,6.0,361.9967589997941,7.0,1.0,phase_2,go,350.0,250.0,1.0,,,,,,,,,orange,circle
0.0,2.0,2.0,0.0,5.0,5.0,331.6417709997949,7.0,1.0,phase_2,go,350.0,250.0,1.0,,,,,,,,,green,triangle
0.0,5.0,1.0,1.0,6.0,6.0,397.2885620000852,7.0,1.0,phase_2,go,350.0,250.0,1.0,,,,,,,,,magenta,I
0.0,5.0,1.0,1.0,5.0,6.0,491.8565039997702,7.0,1.0,phase_2,stop,350.0,250.0,3.0,,,,,,,,,magenta,I
0.0,3.0,3.0,0.0,6.0,6.0,577.6760040002955,7.0,1.0,phase_2,go,300.0,250.0,1.0,,,,,,,,,cyan,cross
0.0,4.0,4.0,0.0,5.0,5.0,635.2951029998621,7.0,1.0,phase_2,go,300.0,250.0,1.0,,,,,,,,,blue,diamond
0.0,7.0,3.0,1.0,5.0,5.0,391.8377200002396,7.0,1.0,phase_2,stop,300.0,250.0,3.0,,,,,,,,,gray,hexagon
0.0,4.0,4.0,0.0,5.0,5.0,586.7112760001874,7.0,1.0,phase_2,go,250.0,250.0,1.0,,,,,,,,,blue,diamond
0.0,2.0,2.0,0.0,5.0,5.0,360.6184539999049,7.0,1.0,phase_2,go,250.0,250.0,1.0,,,,,,,,,green,triangle
0.0,3.0,3.0,0.0,5.0,5.0,466.52422499983,7.0,1.0,phase_2,go,250.0,250.0,1.0,,,,,,,,,cyan,cross
0.0,5.0,1.0,1.0,6.0,0.0,0.0,7.0,1.0,phase_2,stop,250.0,250.0,4.0,,,,,,,,,magenta,I
0.0,3.0,3.0,0.0,5.0,5.0,446.6086749998794,7.0,1.0,phase_2,go,250.0,300.0,1.0,,,,,,,,,cyan,cross
0.0,4.0,4.0,0.0,6.0,6.0,447.9500029997325,7.0,1.0,phase_2,go,250.0,300.0,1.0,,,,,,,,,blue,diamond
0.0,5.0,1.0,1.0,6.0,6.0,463.3941450001657,7.0,1.0,phase_2,go,250.0,300.0,1.0,,,,,,,,,magenta,I
0.0,5.0,1.0,1.0,5.0,0.0,0.0,7.0,1.0,phase_2,stop,250.0,300.0,4.0,,,,,,,,,magenta,I
0.0,6.0,2.0,1.0,6.0,0.0,0.0,7.0,1.0,phase_2,stop,300.0,300.0,4.0,,,,,,,,,white,flipped triangle
0.0,1.0,1.0,0.0,5.0,5.0,340.6698759999926,7.0,1.0,phase_2,go,300.0,350.0,1.0,,,,,,,,,orange,circle
0.0,7.0,3.0,1.0,5.0,5.0,424.6942439999657,7.0,1.0,phase_2,stop,300.0,350.0,3.0,,,,,,,,,gray,hexagon
0.0,7.0,3.0,1.0,5.0,5.0,729.6466600000713,7.0,1.0,phase_2,go,250.0,350.0,1.0,,,,,,,,,gray,hexagon
0.0,4.0,4.0,0.0,5.0,5.0,284.4554220000646,7.0,1.0,phase_2,go,250.0,350.0,1.0,,,,,,,,,blue,diamond
0.0,1.0,1.0,0.0,5.0,5.0,331.6327329998785,7.0,1.0,phase_2,go,250.0,350.0,1.0,,,,,,,,,orange,circle
0.0,7.0,3.0,1.0,6.0,6.0,331.4041489998089,7.0,1.0,phase_2,go,250.0,350.0,1.0,,,,,,,,,gray,hexagon
0.0,6.0,2.0,1.0,5.0,5.0,299.5573819998753,7.0,1.0,phase_2,stop,250.0,350.0,3.0,,,,,,,,,white,flipped triangle
0.0,2.0,2.0,0.0,5.0,5.0,378.7834839999959,7.0,1.0,phase_2,go,200.0,350.0,1.0,,,,,,,,,green,triangle
0.0,4.0,4.0,0.0,5.0,5.0,444.591113000115,7.0,1.0,phase_2,go,200.0,350.0,1.0,,,,,,,,,blue,diamond
0.0,3.0,3.0,0.0,5.0,5.0,454.190337,7.0,1.0,phase_2,go,200.0,350.0,1.0,,,,,,,,,cyan,cross
0.0,7.0,3.0,1.0,5.0,5.0,743.6983600000531,7.0,1.0,phase_2,stop,200.0,350.0,3.0,,,,,,,,,gray,hexagon
0.0,5.0,1.0,1.0,5.0,5.0,501.43485600028725,7.0,1.0,phase_2,go,150.0,350.0,1.0,,,,,,,,,magenta,I
0.0,3.0,3.0,0.0,5.0,5.0,428.3182369999849,7.0,1.0,phase_2,go,150.0,350.0,1.0,,,,,,,,,cyan,cross
0.0,1.0,1.0,0.0,5.0,5.0,436.3204679998489,7.0,1.0,phase_2,go,150.0,350.0,1.0,,,,,,,,,orange,circle
0.0,4.0,4.0,0.0,6.0,6.0,380.547487000058,7.0,1.0,phase_2,go,150.0,350.0,1.0,,,,,,,,,blue,diamond
0.0,4.0,4.0,0.0,5.0,5.0,443.9879530000326,8.0,1.0,phase_2,go,150.0,350.0,1.0,,,,,,,,,blue,diamond
0.0,6.0,2.0,1.0,6.0,6.0,389.6198279999225,8.0,1.0,phase_2,stop,150.0,350.0,3.0,,,,,,,,,white,flipped triangle
0.0,6.0,2.0,1.0,5.0,0.0,0.0,8.0,1.0,phase_2,stop,150.0,300.0,4.0,,,,,,,,,white,flipped triangle
0.0,3.0,3.0,0.0,6.0,6.0,519.7580720000587,8.0,1.0,phase_2,go,200.0,300.0,1.0,,,,,,,,,cyan,cross
0.0,6.0,2.0,1.0,6.0,0.0,0.0,8.0,1.0,phase_2,stop,200.0,300.0,4.0,,,,,,,,,white,flipped triangle
0.0,5.0,1.0,1.0,6.0,0.0,0.0,8.0,1.0,phase_2,stop,200.0,350.0,4.0,,,,,,,,,magenta,I
0.0,3.0,3.0,0.0,6.0,6.0,632.1522100001857,8.0,1.0,phase_2,go,200.0,400.0,1.0,,,,,,,,,cyan,cross
0.0,4.0,4.0,0.0,6.0,6.0,1059.7175230000175,8.0,1.0,phase_2,go,200.0,400.0,1.0,,,,,,,,,blue,diamond
0.0,2.0,2.0,0.0,6.0,6.0,378.3105510001405,8.0,1.0,phase_2,go,200.0,400.0,1.0,,,,,,,,,green,triangle
0.0,2.0,2.0,0.0,6.0,6.0,323.5657589998482,8.0,1.0,phase_2,go,200.0,400.0,1.0,,,,,,,,,green,triangle
0.0,2.0,2.0,0.0,6.0,6.0,312.668462000147,8.0,1.0,phase_2,go,200.0,400.0,1.0,,,,,,,,,green,triangle
0.0,6.0,2.0,1.0,5.0,0.0,0.0,8.0,1.0,phase_2,stop,200.0,400.0,4.0,,,,,,,,,white,flipped triangle
0.0,8.0,4.0,1.0,5.0,0.0,0.0,8.0,1.0,phase_2,stop,250.0,400.0,4.0,,,,,,,,,yellow,square
0.0,6.0,2.0,1.0,6.0,6.0,350.3474959998129,8.0,1.0,phase_2,stop,300.0,400.0,3.0,,,,,,,,,white,flipped triangle
0.0,4.0,4.0,0.0,6.0,6.0,501.26107400001274,8.0,1.0,phase_2,go,300.0,350.0,1.0,,,,,,,,,blue,diamond
0.0,2.0,2.0,0.0,6.0,6.0,444.7412009999425,8.0,1.0,phase_2,go,300.0,350.0,1.0,,,,,,,,,green,triangle
0.0,6.0,2.0,1.0,5.0,5.0,388.4611039998162,8.0,1.0,phase_2,go,300.0,350.0,1.0,,,,,,,,,white,flipped triangle
0.0,6.0,2.0,1.0,5.0,5.0,332.7624039998227,8.0,1.0,phase_2,go,300.0,350.0,1.0,,,,,,,,,white,flipped triangle
0.0,4.0,4.0,0.0,6.0,6.0,369.1460699997151,8.0,1.0,phase_2,go,300.0,350.0,1.0,,,,,,,,,blue,diamond
0.0,8.0,4.0,1.0,5.0,5.0,367.5963730001967,8.0,1.0,phase_2,stop,300.0,350.0,3.0,,,,,,,,,yellow,square
0.0,4.0,4.0,0.0,5.0,5.0,415.9371880000435,8.0,1.0,phase_2,go,250.0,350.0,1.0,,,,,,,,,blue,diamond
0.0,8.0,4.0,1.0,5.0,5.0,586.7246620000515,8.0,1.0,phase_2,go,250.0,350.0,1.0,,,,,,,,,yellow,square
0.0,2.0,2.0,0.0,5.0,5.0,822.733242999675,8.0,1.0,phase_2,go,250.0,350.0,1.0,,,,,,,,,green,triangle
0.0,8.0,4.0,1.0,5.0,5.0,429.3028800002503,8.0,1.0,phase_2,go,250.0,350.0,1.0,,,,,,,,,yellow,square
0.0,5.0,1.0,1.0,6.0,6.0,383.5838119998698,8.0,1.0,phase_2,stop,250.0,350.0,3.0,,,,,,,,,magenta,I
0.0,5.0,1.0,1.0,5.0,0.0,0.0,8.0,1.0,phase_2,stop,250.0,300.0,4.0,,,,,,,,,magenta,I
0.0,3.0,3.0,0.0,6.0,6.0,378.8455279996015,8.0,1.0,phase_2,go,300.0,300.0,1.0,,,,,,,,,cyan,cross
0.0,5.0,1.0,1.0,6.0,0.0,0.0,8.0,1.0,phase_2,stop,300.0,300.0,4.0,,,,,,,,,magenta,I
0.0,2.0,2.0,0.0,6.0,6.0,577.7610410000307,8.0,1.0,phase_2,go,300.0,350.0,1.0,,,,,,,,,green,triangle
0.0,2.0,2.0,0.0,5.0,5.0,369.2752140000266,8.0,1.0,phase_2,go,300.0,350.0,1.0,,,,,,,,,green,triangle
0.0,1.0,1.0,0.0,5.0,5.0,378.7967739999658,8.0,1.0,phase_2,go,300.0,350.0,1.0,,,,,,,,,orange,circle
0.0,2.0,2.0,0.0,5.0,5.0,407.6781230000961,8.0,1.0,phase_2,go,300.0,350.0,1.0,,,,,,,,,green,triangle
0.0,8.0,4.0,1.0,5.0,5.0,479.5994599999176,8.0,1.0,phase_2,stop,300.0,350.0,3.0,,,,,,,,,yellow,square
0.0,8.0,4.0,1.0,6.0,6.0,360.5433950001497,8.0,1.0,phase_2,go,250.0,350.0,1.0,,,,,,,,,yellow,square
0.0,6.0,2.0,1.0,5.0,5.0,475.323039000159,8.0,1.0,phase_2,stop,250.0,350.0,3.0,,,,,,,,,white,flipped triangle
0.0,7.0,3.0,1.0,5.0,0.0,0.0,8.0,1.0,phase_2,stop,200.0,350.0,4.0,,,,,,,,,gray,hexagon
0.0,5.0,1.0,1.0,7.0,3.0,4216.095020000012,1.0,1.0,phase_3,,,,,384.0,2.0,576.0,192.0,384.0,1152.0,960.0,768.0,magenta,I
0.0,7.0,3.0,1.0,7.0,5.0,4516.645216000143,1.0,1.0,phase_3,,,,,384.0,2.0,768.0,960.0,1152.0,576.0,384.0,192.0,gray,hexagon
0.0,3.0,3.0,0.0,7.0,2.0,4294.229539000298,1.0,1.0,phase_3,,,,,384.0,2.0,576.0,384.0,192.0,768.0,960.0,1152.0,cyan,cross
0.0,2.0,2.0,0.0,7.0,4.0,2620.4862959998536,1.0,1.0,phase_3,,,,,692.0,4.0,1038.0,346.0,865.0,692.0,173.0,519.0,green,triangle
0.0,7.0,3.0,1.0,7.0,6.0,4587.955464000061,1.0,1.0,phase_3,,,,,405.0,3.0,675.0,540.0,135.0,270.0,810.0,405.0,gray,hexagon
0.0,8.0,4.0,1.0,7.0,5.0,1937.93301300002,1.0,1.0,phase_3,,,,,1152.0,6.0,960.0,576.0,192.0,768.0,1152.0,384.0,yellow,square
0.0,3.0,3.0,0.0,7.0,3.0,4397.310171999834,1.0,1.0,phase_3,,,,,696.0,6.0,232.0,116.0,696.0,580.0,348.0,464.0,cyan,cross
0.0,5.0,1.0,1.0,7.0,2.0,1024.4818320002196,1.0,2.0,phase_3,,,,,519.0,3.0,692.0,519.0,173.0,346.0,865.0,1038.0,magenta,I
0.0,8.0,4.0,1.0,7.0,1.0,2054.50109100002,1.0,1.0,phase_3,,,,,810.0,6.0,810.0,405.0,675.0,135.0,540.0,270.0,yellow,square
0.0,3.0,3.0,0.0,7.0,5.0,2679.400624000209,1.0,1.0,phase_3,,,,,519.0,3.0,692.0,346.0,865.0,1038.0,519.0,173.0,cyan,cross
0.0,7.0,3.0,1.0,7.0,3.0,2918.9494709999053,1.0,1.0,phase_3,,,,,580.0,5.0,116.0,696.0,580.0,348.0,232.0,464.0,gray,hexagon
0.0,2.0,2.0,0.0,7.0,4.0,2035.4124659997979,1.0,1.0,phase_3,,,,,346.0,2.0,173.0,519.0,692.0,346.0,865.0,1038.0,green,triangle
0.0,1.0,1.0,0.0,7.0,3.0,2737.071582000226,1.0,1.0,phase_3,,,,,519.0,3.0,865.0,346.0,519.0,173.0,1038.0,692.0,orange,circle
0.0,2.0,2.0,0.0,7.0,3.0,2270.875442000033,1.0,1.0,phase_3,,,,,616.0,4.0,924.0,308.0,616.0,462.0,154.0,770.0,green,triangle
0.0,8.0,4.0,1.0,7.0,1.0,1849.143647999881,1.0,1.0,phase_3,,,,,1152.0,6.0,1152.0,960.0,384.0,576.0,192.0,768.0,yellow,square
0.0,8.0,4.0,1.0,7.0,4.0,2087.4889199999416,1.0,1.0,phase_3,,,,,1038.0,6.0,346.0,865.0,519.0,1038.0,692.0,173.0,yellow,square
0.0,3.0,3.0,0.0,7.0,4.0,2738.8793280001664,1.0,1.0,phase_3,,,,,464.0,4.0,232.0,580.0,348.0,464.0,696.0,116.0,cyan,cross
0.0,6.0,2.0,1.0,7.0,6.0,2466.1685150003905,1.0,1.0,phase_3,,,,,384.0,2.0,1152.0,768.0,960.0,576.0,192.0,384.0,white,flipped triangle
0.0,1.0,1.0,0.0,7.0,3.0,2155.8266339998227,1.0,1.0,phase_3,,,,,346.0,2.0,173.0,865.0,346.0,1038.0,519.0,692.0,orange,circle
0.0,4.0,4.0,0.0,7.0,2.0,2052.4161739999727,1.0,1.0,phase_3,,,,,810.0,6.0,135.0,810.0,675.0,270.0,540.0,405.0,blue,diamond
0.0,4.0,4.0,0.0,7.0,3.0,1200.319281999782,2.0,1.0,phase_3,,,,,924.0,6.0,308.0,616.0,924.0,462.0,154.0,770.0,blue,diamond
0.0,1.0,1.0,0.0,7.0,2.0,2324.159835000046,2.0,1.0,phase_3,,,,,135.0,1.0,810.0,135.0,270.0,405.0,675.0,540.0,orange,circle
0.0,8.0,4.0,1.0,7.0,1.0,1955.5678320002696,2.0,1.0,phase_3,,,,,696.0,6.0,696.0,464.0,580.0,348.0,232.0,116.0,yellow,square
0.0,4.0,4.0,0.0,7.0,1.0,1040.498696999748,2.0,1.0,phase_3,,,,,770.0,5.0,770.0,308.0,924.0,154.0,616.0,462.0,blue,diamond
0.0,3.0,3.0,0.0,7.0,2.0,2790.692759999729,2.0,1.0,phase_3,,,,,462.0,3.0,154.0,462.0,770.0,924.0,308.0,616.0,cyan,cross
0.0,1.0,1.0,0.0,7.0,4.0,2311.447469000086,2.0,1.0,phase_3,,,,,348.0,3.0,580.0,232.0,116.0,348.0,464.0,696.0,orange,circle
0.0,5.0,1.0,1.0,7.0,4.0,2452.5539330006723,2.0,1.0,phase_3,,,,,462.0,3.0,924.0,308.0,616.0,462.0,770.0,154.0,magenta,I
0.0,2.0,2.0,0.0,7.0,2.0,2498.1960699997217,2.0,1.0,phase_3,,,,,616.0,4.0,770.0,616.0,462.0,924.0,154.0,308.0,green,triangle
0.0,1.0,1.0,0.0,7.0,3.0,2602.7484520000144,2.0,1.0,phase_3,,,,,270.0,2.0,135.0,675.0,270.0,405.0,540.0,810.0,orange,circle
0.0,4.0,4.0,0.0,7.0,4.0,2219.873160000134,2.0,1.0,phase_3,,,,,675.0,5.0,405.0,270.0,540.0,675.0,135.0,810.0,blue,diamond
0.0,3.0,3.0,0.0,7.0,3.0,2189.3218880004497,2.0,1.0,phase_3,,,,,616.0,4.0,462.0,770.0,616.0,154.0,924.0,308.0,cyan,cross
0.0,1.0,1.0,0.0,7.0,1.0,3227.5077379999857,2.0,1.0,phase_3,,,,,348.0,3.0,348.0,580.0,464.0,116.0,232.0,696.0,orange,circle
0.0,1.0,1.0,0.0,7.0,5.0,2390.267556000253,2.0,1.0,phase_3,,,,,462.0,3.0,308.0,154.0,616.0,770.0,462.0,924.0,orange,circle
0.0,6.0,2.0,1.0,7.0,2.0,2434.225439999864,2.0,1.0,phase_3,,,,,270.0,2.0,405.0,270.0,675.0,135.0,810.0,540.0,white,flipped triangle
0.0,7.0,3.0,1.0,7.0,2.0,2322.8022310004235,2.0,1.0,phase_3,,,,,462.0,3.0,154.0,462.0,924.0,308.0,770.0,616.0,gray,hexagon
0.0,4.0,4.0,0.0,7.0,3.0,2456.306582000252,2.0,1.0,phase_3,,,,,696.0,6.0,232.0,580.0,696.0,116.0,464.0,348.0,blue,diamond
0.0,3.0,3.0,0.0,7.0,2.0,2845.5758509999214,2.0,1.0,phase_3,,,,,675.0,5.0,135.0,675.0,810.0,270.0,405.0,540.0,cyan,cross
0.0,5.0,1.0,1.0,7.0,2.0,2246.039368999845,2.0,1.0,phase_3,,,,,462.0,3.0,616.0,462.0,770.0,154.0,924.0,308.0,magenta,I
0.0,7.0,3.0,1.0,7.0,6.0,1912.0549830004163,2.0,1.0,phase_3,,,,,270.0,2.0,405.0,810.0,135.0,540.0,675.0,270.0,gray,hexagon
0.0,4.0,4.0,0.0,7.0,4.0,1298.927074999483,2.0,1.0,phase_3,,,,,1038.0,6.0,346.0,519.0,692.0,1038.0,865.0,173.0,blue,diamond
0.0,1.0,1.0,0.0,7.0,2.0,1368.2716650000657,3.0,1.0,phase_3,,,,,192.0,1.0,768.0,192.0,384.0,576.0,960.0,1152.0,orange,circle
0.0,2.0,2.0,0.0,7.0,5.0,1690.1003829998444,3.0,1.0,phase_3,,,,,576.0,3.0,960.0,1152.0,768.0,192.0,576.0,384.0,green,triangle
0.0,2.0,2.0,0.0,7.0,5.0,1368.902361000437,3.0,1.0,phase_3,,,,,540.0,4.0,405.0,810.0,270.0,675.0,540.0,135.0,green,triangle
0.0,8.0,4.0,1.0,7.0,1.0,1060.3641640000203,3.0,1.0,phase_3,,,,,770.0,5.0,770.0,462.0,308.0,924.0,616.0,154.0,yellow,square
0.0,6.0,2.0,1.0,7.0,1.0,2184.934597999927,3.0,1.0,phase_3,,,,,384.0,2.0,384.0,192.0,768.0,1152.0,576.0,960.0,white,flipped triangle
0.0,2.0,2.0,0.0,7.0,3.0,1874.2921290004235,3.0,1.0,phase_3,,,,,696.0,6.0,464.0,116.0,696.0,580.0,348.0,232.0,green,triangle
0.0,7.0,3.0,1.0,7.0,4.0,3034.59842599932,3.0,1.0,phase_3,,,,,154.0,1.0,462.0,770.0,616.0,154.0,308.0,924.0,gray,hexagon
0.0,5.0,1.0,1.0,7.0,1.0,1752.974052999889,3.0,1.0,phase_3,,,,,270.0,2.0,270.0,675.0,405.0,540.0,135.0,810.0,magenta,I
0.0,6.0,2.0,1.0,7.0,5.0,2034.6760749998798,3.0,1.0,phase_3,,,,,464.0,4.0,116.0,232.0,348.0,580.0,464.0,696.0,white,flipped triangle
0.0,7.0,3.0,1.0,7.0,6.0,2015.5021800001123,3.0,1.0,phase_3,,,,,173.0,1.0,1038.0,692.0,865.0,519.0,346.0,173.0,gray,hexagon
0.0,5.0,1.0,1.0,7.0,3.0,2097.732196000834,3.0,1.0,phase_3,,,,,348.0,3.0,580.0,116.0,348.0,464.0,232.0,696.0,magenta,I
0.0,6.0,2.0,1.0,7.0,2.0,1468.6576590002005,3.0,1.0,phase_3,,,,,462.0,3.0,616.0,462.0,154.0,924.0,308.0,770.0,white,flipped triangle
0.0,6.0,2.0,1.0,7.0,2.0,0.24290800047310002,3.0,1.0,phase_3,,,,,865.0,5.0,346.0,865.0,1038.0,692.0,173.0,519.0,white,flipped triangle
0.0,2.0,2.0,0.0,7.0,2.0,2570.609995000268,3.0,1.0,phase_3,,,,,675.0,5.0,405.0,675.0,810.0,540.0,270.0,135.0,green,triangle
0.0,1.0,1.0,0.0,7.0,5.0,1955.0441740002495,3.0,1.0,phase_3,,,,,384.0,2.0,960.0,768.0,576.0,192.0,384.0,1152.0,orange,circle
0.0,7.0,3.0,1.0,7.0,1.0,2309.107084000061,3.0,1.0,phase_3,,,,,192.0,1.0,192.0,1152.0,768.0,960.0,576.0,384.0,gray,hexagon
0.0,5.0,1.0,1.0,7.0,5.0,2191.8513110003914,3.0,1.0,phase_3,,,,,270.0,2.0,810.0,675.0,540.0,135.0,270.0,405.0,magenta,I
0.0,8.0,4.0,1.0,7.0,2.0,2391.705644000467,3.0,1.0,phase_3,,,,,810.0,6.0,675.0,810.0,540.0,405.0,270.0,135.0,yellow,square
0.0,8.0,4.0,1.0,7.0,3.0,1143.266075999236,3.0,1.0,phase_3,,,,,865.0,5.0,173.0,346.0,865.0,519.0,1038.0,692.0,yellow,square
0.0,4.0,4.0,0.0,7.0,3.0,1199.3257270005415,3.0,1.0,phase_3,,,,,1152.0,6.0,576.0,384.0,1152.0,960.0,768.0,192.0,blue,diamond
0.0,4.0,4.0,0.0,7.0,5.0,1951.1901160003615,4.0,1.0,phase_3,,,,,116.0,1.0,232.0,348.0,580.0,696.0,116.0,464.0,blue,diamond
0.0,5.0,1.0,1.0,7.0,3.0,1932.286688000204,4.0,1.0,phase_3,,,,,173.0,1.0,692.0,865.0,173.0,346.0,519.0,1038.0,magenta,I
0.0,6.0,2.0,1.0,7.0,4.0,1414.6270489991366,4.0,1.0,phase_3,,,,,232.0,2.0,464.0,696.0,580.0,232.0,116.0,348.0,white,flipped triangle
0.0,6.0,2.0,1.0,7.0,1.0,1975.9007049997308,4.0,1.0,phase_3,,,,,346.0,2.0,346.0,173.0,692.0,519.0,1038.0,865.0,white,flipped triangle
0.0,3.0,3.0,0.0,7.0,2.0,2153.8165969996044,4.0,1.0,phase_3,,,,,576.0,3.0,960.0,576.0,192.0,1152.0,768.0,384.0,cyan,cross
0.0,7.0,3.0,1.0,7.0,1.0,1442.572564999864,4.0,1.0,phase_3,,,,,348.0,3.0,348.0,464.0,580.0,116.0,696.0,232.0,gray,hexagon
0.0,4.0,4.0,0.0,7.0,5.0,1791.114609000033,4.0,1.0,phase_3,,,,,1038.0,6.0,346.0,865.0,692.0,519.0,1038.0,173.0,blue,diamond
0.0,5.0,1.0,1.0,7.0,2.0,1359.496549999676,4.0,1.0,phase_3,,,,,384.0,2.0,1152.0,384.0,960.0,768.0,192.0,576.0,magenta,I
0.0,4.0,4.0,0.0,7.0,3.0,1406.3541129999066,4.0,1.0,phase_3,,,,,1152.0,6.0,960.0,576.0,1152.0,384.0,192.0,768.0,blue,diamond
0.0,3.0,3.0,0.0,7.0,5.0,2322.163603000263,4.0,1.0,phase_3,,,,,519.0,3.0,865.0,692.0,346.0,1038.0,519.0,173.0,cyan,cross
0.0,6.0,2.0,1.0,7.0,2.0,2121.531908000179,4.0,1.0,phase_3,,,,,405.0,3.0,675.0,405.0,810.0,540.0,135.0,270.0,white,flipped triangle
0.0,2.0,2.0,0.0,7.0,2.0,1866.1673590004284,4.0,1.0,phase_3,,,,,384.0,2.0,1152.0,384.0,192.0,768.0,960.0,576.0,green,triangle
0.0,8.0,4.0,1.0,7.0,3.0,1616.71091000062,4.0,1.0,phase_3,,,,,924.0,6.0,462.0,616.0,924.0,308.0,770.0,154.0,yellow,square
0.0,3.0,3.0,0.0,7.0,6.0,1967.4074630002,4.0,1.0,phase_3,,,,,405.0,3.0,810.0,675.0,270.0,135.0,540.0,405.0,cyan,cross
0.0,1.0,1.0,0.0,7.0,1.0,2710.205295999913,4.0,1.0,phase_3,,,,,154.0,1.0,154.0,770.0,308.0,616.0,462.0,924.0,orange,circle
0.0,6.0,2.0,1.0,7.0,6.0,1745.627753000008,4.0,1.0,phase_3,,,,,308.0,2.0,770.0,154.0,616.0,924.0,462.0,308.0,white,flipped triangle
0.0,7.0,3.0,1.0,7.0,2.0,2462.177878000148,4.0,1.0,phase_3,,,,,346.0,2.0,865.0,346.0,1038.0,519.0,692.0,173.0,gray,hexagon
0.0,5.0,1.0,1.0,7.0,1.0,1961.6334430002096,4.0,1.0,phase_3,,,,,464.0,4.0,464.0,232.0,116.0,348.0,696.0,580.0,magenta,I
0.0,2.0,2.0,0.0,7.0,2.0,2891.853440999512,4.0,1.0,phase_3,,,,,696.0,6.0,348.0,696.0,464.0,232.0,580.0,116.0,green,triangle
0.0,8.0,4.0,1.0,7.0,4.0,2013.433695000458,4.0,1.0,phase_3,,,,,580.0,5.0,348.0,232.0,696.0,580.0,116.0,464.0,yellow,square
