raw_reward_magnitude,stim_reward,stepwise_reward_magnitude,paired_with_stopping,stim_location,response,reaction_time,block,num_trial_presentations,which_phase,stop_signal_trial_type,left_SSD,right_SSD,accuracy,chosen_bidding_amount,chosen_bidding_level,possible_bid_1,possible_bid_2,possible_bid_3,possible_bid_4,possible_bid_5,possible_bid_6,color_text,shape_text
319.0,6.0,1.0,1.0,2.0,2.0,482.32374600002,1.0,1.0,phase_1,,,,,,,,,,,,,blue,square
0.0,8.0,0.0,1.0,4.0,4.0,276.9338580001204,1.0,1.0,phase_1,,,,,,,,,,,,,cyan,cross
161.0,1.0,0.5,0.0,1.0,1.0,342.12938499968,1.0,1.0,phase_1,,,,,,,,,,,,,magenta,hexagon
0.0,5.0,0.0,1.0,2.0,2.0,295.7435309999709,1.0,1.0,phase_1,,,,,,,,,,,,,yellow,triangle
670.0,7.0,2.0,1.0,3.0,3.0,361.170002000108,1.0,1.0,phase_1,,,,,,,,,,,,,orange,I
643.0,3.0,2.0,0.0,3.0,3.0,344.7326410000642,1.0,1.0,phase_1,,,,,,,,,,,,,white,flipped triangle
317.0,2.0,1.0,0.0,2.0,2.0,472.8390010000112,1.0,1.0,phase_1,,,,,,,,,,,,,gray,circle
172.0,1.0,0.5,0.0,3.0,3.0,352.354342000126,1.0,1.0,phase_1,,,,,,,,,,,,,magenta,hexagon
626.0,3.0,2.0,0.0,3.0,3.0,297.8220180002608,1.0,1.0,phase_1,,,,,,,,,,,,,white,flipped triangle
655.0,3.0,2.0,0.0,3.0,3.0,353.180650000013,1.0,1.0,phase_1,,,,,,,,,,,,,white,flipped triangle
337.0,2.0,1.0,0.0,4.0,4.0,278.7149189998672,1.0,1.0,phase_1,,,,,,,,,,,,,gray,circle
641.0,3.0,2.0,0.0,2.0,2.0,250.8810350000203,1.0,1.0,phase_1,,,,,,,,,,,,,white,flipped triangle
1294.0,4.0,4.0,0.0,1.0,1.0,462.7731619998485,1.0,2.0,phase_1,,,,,,,,,,,,,green,diamond
144.0,5.0,0.5,1.0,1.0,1.0,333.6621759999616,1.0,1.0,phase_1,,,,,,,,,,,,,yellow,triangle
0.0,4.0,0.0,0.0,1.0,1.0,289.5399129997713,1.0,1.0,phase_1,,,,,,,,,,,,,green,diamond
655.0,7.0,2.0,1.0,1.0,1.0,315.8487939999759,1.0,1.0,phase_1,,,,,,,,,,,,,orange,I
631.0,7.0,2.0,1.0,4.0,4.0,315.0648719997662,1.0,1.0,phase_1,,,,,,,,,,,,,orange,I
0.0,6.0,0.0,1.0,1.0,1.0,296.5996429998085,1.0,1.0,phase_1,,,,,,,,,,,,,blue,square
346.0,6.0,1.0,1.0,3.0,3.0,314.3371870000919,1.0,1.0,phase_1,,,,,,,,,,,,,blue,square
158.0,5.0,0.5,1.0,1.0,1.0,306.3107630000559,1.0,1.0,phase_1,,,,,,,,,,,,,yellow,triangle
664.0,3.0,2.0,0.0,3.0,3.0,361.1221169999226,1.0,1.0,phase_1,,,,,,,,,,,,,white,flipped triangle
631.0,7.0,2.0,1.0,3.0,3.0,342.6512529999854,1.0,1.0,phase_1,,,,,,,,,,,,,orange,I
0.0,2.0,0.0,0.0,2.0,2.0,286.3389429999188,1.0,2.0,phase_1,,,,,,,,,,,,,gray,circle
0.0,1.0,0.0,0.0,2.0,2.0,324.5285830003013,1.0,1.0,phase_1,,,,,,,,,,,,,magenta,hexagon
0.0,7.0,0.0,1.0,4.0,4.0,417.3989359996994,1.0,1.0,phase_1,,,,,,,,,,,,,orange,I
0.0,5.0,0.0,1.0,1.0,1.0,296.8073520000871,1.0,1.0,phase_1,,,,,,,,,,,,,yellow,triangle
640.0,7.0,2.0,1.0,3.0,3.0,279.0637309999511,1.0,1.0,phase_1,,,,,,,,,,,,,orange,I
331.0,2.0,1.0,0.0,1.0,1.0,399.5387380000466,1.0,1.0,phase_1,,,,,,,,,,,,,gray,circle
0.0,3.0,0.0,0.0,3.0,3.0,290.1975619997756,1.0,1.0,phase_1,,,,,,,,,,,,,white,flipped triangle
320.0,6.0,1.0,1.0,3.0,3.0,295.8330060000662,1.0,1.0,phase_1,,,,,,,,,,,,,blue,square
1303.0,8.0,4.0,1.0,4.0,4.0,351.6740300001402,1.0,1.0,phase_1,,,,,,,,,,,,,cyan,cross
1318.0,8.0,4.0,1.0,2.0,2.0,333.6548539996329,1.0,1.0,phase_1,,,,,,,,,,,,,cyan,cross
342.0,6.0,1.0,1.0,4.0,4.0,260.1965869998821,1.0,1.0,phase_1,,,,,,,,,,,,,blue,square
179.0,1.0,0.5,0.0,3.0,3.0,399.4050409996816,1.0,1.0,phase_1,,,,,,,,,,,,,magenta,hexagon
1323.0,4.0,4.0,0.0,2.0,2.0,334.879825000371,1.0,1.0,phase_1,,,,,,,,,,,,,green,diamond
0.0,6.0,0.0,1.0,4.0,4.0,336.99814900001,1.0,1.0,phase_1,,,,,,,,,,,,,blue,square
1308.0,4.0,4.0,0.0,4.0,4.0,324.575318999905,1.0,1.0,phase_1,,,,,,,,,,,,,green,diamond
1316.0,8.0,4.0,1.0,1.0,1.0,470.2655490000325,1.0,2.0,phase_1,,,,,,,,,,,,,cyan,cross
1307.0,8.0,4.0,1.0,3.0,3.0,361.8663219999689,1.0,1.0,phase_1,,,,,,,,,,,,,cyan,cross
633.0,7.0,2.0,1.0,1.0,1.0,352.1870449999369,1.0,1.0,phase_1,,,,,,,,,,,,,orange,I
326.0,2.0,1.0,0.0,2.0,2.0,379.5424260001709,1.0,1.0,phase_1,,,,,,,,,,,,,gray,circle
0.0,3.0,0.0,0.0,4.0,4.0,463.973046999854,1.0,1.0,phase_1,,,,,,,,,,,,,white,flipped triangle
1283.0,8.0,4.0,1.0,2.0,2.0,333.8627850002922,1.0,1.0,phase_1,,,,,,,,,,,,,cyan,cross
1291.0,8.0,4.0,1.0,2.0,2.0,362.2806019998279,1.0,1.0,phase_1,,,,,,,,,,,,,cyan,cross
674.0,7.0,2.0,1.0,3.0,3.0,324.5070540001507,1.0,2.0,phase_1,,,,,,,,,,,,,orange,I
347.0,6.0,1.0,1.0,1.0,1.0,371.0699379998914,1.0,1.0,phase_1,,,,,,,,,,,,,blue,square
180.0,1.0,0.5,0.0,4.0,4.0,444.7795040000528,1.0,1.0,phase_1,,,,,,,,,,,,,magenta,hexagon
0.0,1.0,0.0,0.0,4.0,4.0,398.3229049999863,1.0,1.0,phase_1,,,,,,,,,,,,,magenta,hexagon
0.0,8.0,0.0,1.0,2.0,2.0,398.4706579999511,1.0,1.0,phase_1,,,,,,,,,,,,,cyan,cross
639.0,7.0,2.0,1.0,4.0,4.0,398.3515790000638,1.0,1.0,phase_1,,,,,,,,,,,,,orange,I
173.0,1.0,0.5,0.0,3.0,3.0,325.5587859998741,1.0,1.0,phase_1,,,,,,,,,,,,,magenta,hexagon
349.0,2.0,1.0,0.0,2.0,2.0,370.7365320001372,1.0,1.0,phase_1,,,,,,,,,,,,,gray,circle
335.0,2.0,1.0,0.0,3.0,3.0,426.5435110000908,1.0,1.0,phase_1,,,,,,,,,,,,,gray,circle
0.0,3.0,0.0,0.0,2.0,2.0,343.8926559997526,1.0,1.0,phase_1,,,,,,,,,,,,,white,flipped triangle
304.0,6.0,1.0,1.0,4.0,4.0,306.4549079999779,1.0,1.0,phase_1,,,,,,,,,,,,,blue,square
1297.0,8.0,4.0,1.0,3.0,3.0,325.4420640000717,1.0,1.0,phase_1,,,,,,,,,,,,,cyan,cross
149.0,5.0,0.5,1.0,2.0,2.0,333.4427539998614,1.0,1.0,phase_1,,,,,,,,,,,,,yellow,triangle
1298.0,8.0,4.0,1.0,3.0,3.0,381.5342429998054,1.0,1.0,phase_1,,,,,,,,,,,,,cyan,cross
313.0,6.0,1.0,1.0,3.0,3.0,316.5148319999389,1.0,1.0,phase_1,,,,,,,,,,,,,blue,square
1314.0,8.0,4.0,1.0,3.0,3.0,299.4302269999025,1.0,1.0,phase_1,,,,,,,,,,,,,cyan,cross
0.0,8.0,0.0,1.0,2.0,2.0,325.3544680001141,1.0,1.0,phase_1,,,,,,,,,,,,,cyan,cross
662.0,3.0,2.0,0.0,4.0,4.0,334.6095160000004,1.0,1.0,phase_1,,,,,,,,,,,,,white,flipped triangle
341.0,6.0,1.0,1.0,3.0,3.0,315.7044919998952,1.0,1.0,phase_1,,,,,,,,,,,,,blue,square
647.0,7.0,2.0,1.0,1.0,1.0,353.9152069997726,1.0,1.0,phase_1,,,,,,,,,,,,,orange,I
1300.0,8.0,4.0,1.0,1.0,1.0,399.0915330000462,1.0,1.0,phase_1,,,,,,,,,,,,,cyan,cross
308.0,6.0,1.0,1.0,4.0,4.0,333.3889509999608,1.0,1.0,phase_1,,,,,,,,,,,,,blue,square
671.0,7.0,2.0,1.0,3.0,3.0,463.9017570002579,1.0,1.0,phase_1,,,,,,,,,,,,,orange,I
1308.0,8.0,4.0,1.0,4.0,4.0,372.9045039999619,1.0,1.0,phase_1,,,,,,,,,,,,,cyan,cross
674.0,3.0,2.0,0.0,1.0,1.0,361.0418730004312,1.0,1.0,phase_1,,,,,,,,,,,,,white,flipped triangle
0.0,1.0,0.0,0.0,3.0,3.0,370.8269500002643,1.0,1.0,phase_1,,,,,,,,,,,,,magenta,hexagon
308.0,2.0,1.0,0.0,3.0,3.0,342.8617139998096,1.0,1.0,phase_1,,,,,,,,,,,,,gray,circle
1319.0,4.0,4.0,0.0,4.0,4.0,360.8808489998409,1.0,1.0,phase_1,,,,,,,,,,,,,green,diamond
157.0,1.0,0.5,0.0,1.0,1.0,342.7963920003094,1.0,1.0,phase_1,,,,,,,,,,,,,magenta,hexagon
185.0,1.0,0.5,0.0,3.0,3.0,409.1729649999251,1.0,1.0,phase_1,,,,,,,,,,,,,magenta,hexagon
149.0,5.0,0.5,1.0,3.0,3.0,403.3425920001718,1.0,1.0,phase_1,,,,,,,,,,,,,yellow,triangle
627.0,3.0,2.0,0.0,1.0,1.0,390.1218400001198,1.0,1.0,phase_1,,,,,,,,,,,,,white,flipped triangle
1275.0,4.0,4.0,0.0,1.0,1.0,370.1370700000552,1.0,1.0,phase_1,,,,,,,,,,,,,green,diamond
301.0,6.0,1.0,1.0,2.0,2.0,298.2256610002878,1.0,1.0,phase_1,,,,,,,,,,,,,blue,square
0.0,6.0,0.0,1.0,3.0,3.0,277.6868500000091,1.0,1.0,phase_1,,,,,,,,,,,,,blue,square
148.0,5.0,0.5,1.0,1.0,1.0,371.3750029996845,1.0,1.0,phase_1,,,,,,,,,,,,,yellow,triangle
0.0,6.0,0.0,1.0,1.0,1.0,361.371199000132,1.0,1.0,phase_1,,,,,,,,,,,,,blue,square
643.0,7.0,2.0,1.0,3.0,3.0,324.4503460000487,1.0,1.0,phase_1,,,,,,,,,,,,,orange,I
331.0,6.0,1.0,1.0,1.0,1.0,388.6650450003799,1.0,1.0,phase_1,,,,,,,,,,,,,blue,square
149.0,1.0,0.5,0.0,3.0,3.0,277.9072650000671,1.0,1.0,phase_1,,,,,,,,,,,,,magenta,hexagon
0.0,3.0,0.0,0.0,1.0,1.0,426.9655470002362,1.0,1.0,phase_1,,,,,,,,,,,,,white,flipped triangle
313.0,6.0,1.0,1.0,2.0,2.0,333.6949240001559,1.0,1.0,phase_1,,,,,,,,,,,,,blue,square
1310.0,4.0,4.0,0.0,1.0,1.0,397.8283620003822,1.0,1.0,phase_1,,,,,,,,,,,,,green,diamond
641.0,3.0,2.0,0.0,1.0,1.0,334.1893100000561,1.0,1.0,phase_1,,,,,,,,,,,,,white,flipped triangle
349.0,6.0,1.0,1.0,1.0,1.0,305.8687220000138,1.0,1.0,phase_1,,,,,,,,,,,,,blue,square
671.0,3.0,2.0,0.0,3.0,3.0,399.0230019999217,1.0,1.0,phase_1,,,,,,,,,,,,,white,flipped triangle
656.0,3.0,2.0,0.0,2.0,2.0,332.8642199999194,1.0,1.0,phase_1,,,,,,,,,,,,,white,flipped triangle
0.0,2.0,0.0,0.0,3.0,3.0,332.6620160000857,1.0,2.0,phase_1,,,,,,,,,,,,,gray,circle
0.0,2.0,0.0,0.0,1.0,1.0,342.8603380002641,1.0,1.0,phase_1,,,,,,,,,,,,,gray,circle
301.0,2.0,1.0,0.0,1.0,1.0,363.1368770002154,1.0,1.0,phase_1,,,,,,,,,,,,,gray,circle
165.0,5.0,0.5,1.0,3.0,3.0,389.3042469999273,1.0,1.0,phase_1,,,,,,,,,,,,,yellow,triangle
301.0,6.0,1.0,1.0,4.0,4.0,509.28401000010126,1.0,1.0,phase_1,,,,,,,,,,,,,blue,square
1275.0,4.0,4.0,0.0,2.0,2.0,436.3076580002598,1.0,2.0,phase_1,,,,,,,,,,,,,green,diamond
1313.0,4.0,4.0,0.0,1.0,1.0,379.5100219999767,1.0,1.0,phase_1,,,,,,,,,,,,,green,diamond
649.0,7.0,2.0,1.0,1.0,1.0,398.0780869997034,1.0,1.0,phase_1,,,,,,,,,,,,,orange,I
0.0,7.0,0.0,1.0,1.0,1.0,370.6343000003471,1.0,1.0,phase_1,,,,,,,,,,,,,orange,I
0.0,1.0,0.0,0.0,4.0,4.0,381.5994049996334,2.0,1.0,phase_1,,,,,,,,,,,,,magenta,hexagon
328.0,6.0,1.0,1.0,1.0,1.0,361.8791290000445,2.0,1.0,phase_1,,,,,,,,,,,,,blue,square
331.0,6.0,1.0,1.0,2.0,2.0,389.1440819998024,2.0,1.0,phase_1,,,,,,,,,,,,,blue,square
0.0,8.0,0.0,1.0,4.0,4.0,342.3433850002766,2.0,1.0,phase_1,,,,,,,,,,,,,cyan,cross
1291.0,4.0,4.0,0.0,4.0,4.0,389.3473560001439,2.0,1.0,phase_1,,,,,,,,,,,,,green,diamond
172.0,5.0,0.5,1.0,3.0,3.0,407.9159299999446,2.0,1.0,phase_1,,,,,,,,,,,,,yellow,triangle
0.0,7.0,0.0,1.0,3.0,3.0,398.296991999814,2.0,1.0,phase_1,,,,,,,,,,,,,orange,I
627.0,7.0,2.0,1.0,4.0,4.0,398.8783999998304,2.0,2.0,phase_1,,,,,,,,,,,,,orange,I
1316.0,4.0,4.0,0.0,2.0,2.0,436.2888340001518,2.0,1.0,phase_1,,,,,,,,,,,,,green,diamond
658.0,7.0,2.0,1.0,1.0,1.0,381.6666210000221,2.0,1.0,phase_1,,,,,,,,,,,,,orange,I
173.0,5.0,0.5,1.0,2.0,2.0,371.1803900000632,2.0,1.0,phase_1,,,,,,,,,,,,,yellow,triangle
0.0,2.0,0.0,0.0,4.0,4.0,371.1294739996447,2.0,1.0,phase_1,,,,,,,,,,,,,gray,circle
1323.0,8.0,4.0,1.0,1.0,1.0,343.4126600000127,2.0,1.0,phase_1,,,,,,,,,,,,,cyan,cross
187.0,1.0,0.5,0.0,1.0,1.0,380.3278020000107,2.0,1.0,phase_1,,,,,,,,,,,,,magenta,hexagon
0.0,7.0,0.0,1.0,4.0,4.0,483.1642320000355,2.0,1.0,phase_1,,,,,,,,,,,,,orange,I
0.0,6.0,0.0,1.0,2.0,2.0,372.2066949999316,2.0,1.0,phase_1,,,,,,,,,,,,,blue,square
143.0,1.0,0.5,0.0,2.0,2.0,373.8186699997641,2.0,1.0,phase_1,,,,,,,,,,,,,magenta,hexagon
0.0,4.0,0.0,0.0,4.0,4.0,333.4049179998146,2.0,1.0,phase_1,,,,,,,,,,,,,green,diamond
157.0,1.0,0.5,0.0,4.0,4.0,334.6973780003281,2.0,1.0,phase_1,,,,,,,,,,,,,magenta,hexagon
651.0,3.0,2.0,0.0,1.0,1.0,314.7181520002959,2.0,1.0,phase_1,,,,,,,,,,,,,white,flipped triangle
675.0,3.0,2.0,0.0,2.0,2.0,398.4717599996656,2.0,1.0,phase_1,,,,,,,,,,,,,white,flipped triangle
304.0,2.0,1.0,0.0,2.0,2.0,436.0948110002027,2.0,1.0,phase_1,,,,,,,,,,,,,gray,circle
330.0,2.0,1.0,0.0,2.0,2.0,417.8680019999774,2.0,1.0,phase_1,,,,,,,,,,,,,gray,circle
668.0,3.0,2.0,0.0,1.0,1.0,446.5084089997617,2.0,2.0,phase_1,,,,,,,,,,,,,white,flipped triangle
1284.0,8.0,4.0,1.0,1.0,1.0,414.5910470001581,2.0,1.0,phase_1,,,,,,,,,,,,,cyan,cross
1317.0,4.0,4.0,0.0,4.0,4.0,332.9838220001875,2.0,1.0,phase_1,,,,,,,,,,,,,green,diamond
328.0,6.0,1.0,1.0,4.0,4.0,472.3375240000678,2.0,1.0,phase_1,,,,,,,,,,,,,blue,square
647.0,3.0,2.0,0.0,4.0,4.0,425.1408329996593,2.0,1.0,phase_1,,,,,,,,,,,,,white,flipped triangle
1317.0,4.0,4.0,0.0,4.0,4.0,389.2867370000203,2.0,1.0,phase_1,,,,,,,,,,,,,green,diamond
184.0,5.0,0.5,1.0,4.0,4.0,529.0563930002463,2.0,1.0,phase_1,,,,,,,,,,,,,yellow,triangle
180.0,5.0,0.5,1.0,2.0,2.0,417.2921969998242,2.0,1.0,phase_1,,,,,,,,,,,,,yellow,triangle
0.0,2.0,0.0,0.0,1.0,1.0,573.8319500001126,2.0,1.0,phase_1,,,,,,,,,,,,,gray,circle
342.0,6.0,1.0,1.0,2.0,2.0,499.9211109998214,2.0,1.0,phase_1,,,,,,,,,,,,,blue,square
320.0,2.0,1.0,0.0,4.0,4.0,362.1335779998844,2.0,1.0,phase_1,,,,,,,,,,,,,gray,circle
137.0,1.0,0.5,0.0,3.0,3.0,407.1912370000063,2.0,1.0,phase_1,,,,,,,,,,,,,magenta,hexagon
161.0,5.0,0.5,1.0,1.0,1.0,371.7243740002232,2.0,1.0,phase_1,,,,,,,,,,,,,yellow,triangle
320.0,2.0,1.0,0.0,1.0,1.0,389.8971270000402,2.0,1.0,phase_1,,,,,,,,,,,,,gray,circle
142.0,1.0,0.5,0.0,3.0,3.0,380.3197480001472,2.0,1.0,phase_1,,,,,,,,,,,,,magenta,hexagon
335.0,6.0,1.0,1.0,3.0,3.0,416.0964279999462,2.0,1.0,phase_1,,,,,,,,,,,,,blue,square
0.0,5.0,0.0,1.0,1.0,1.0,333.3841580001717,2.0,1.0,phase_1,,,,,,,,,,,,,yellow,triangle
1291.0,4.0,4.0,0.0,3.0,3.0,306.5890829998352,2.0,1.0,phase_1,,,,,,,,,,,,,green,diamond
1318.0,8.0,4.0,1.0,3.0,3.0,333.1282029998874,2.0,1.0,phase_1,,,,,,,,,,,,,cyan,cross
159.0,5.0,0.5,1.0,4.0,4.0,360.6766520001656,2.0,1.0,phase_1,,,,,,,,,,,,,yellow,triangle
0.0,6.0,0.0,1.0,3.0,3.0,343.0234840002413,2.0,1.0,phase_1,,,,,,,,,,,,,blue,square
173.0,1.0,0.5,0.0,4.0,4.0,333.9906360001805,2.0,1.0,phase_1,,,,,,,,,,,,,magenta,hexagon
157.0,5.0,0.5,1.0,2.0,2.0,315.7827579998411,2.0,1.0,phase_1,,,,,,,,,,,,,yellow,triangle
319.0,2.0,1.0,0.0,2.0,2.0,370.524309999837,2.0,1.0,phase_1,,,,,,,,,,,,,gray,circle
666.0,7.0,2.0,1.0,2.0,2.0,351.2052020000737,2.0,1.0,phase_1,,,,,,,,,,,,,orange,I
185.0,5.0,0.5,1.0,2.0,2.0,407.9571960000976,2.0,1.0,phase_1,,,,,,,,,,,,,yellow,triangle
0.0,5.0,0.0,1.0,1.0,1.0,343.3664930003033,2.0,1.0,phase_1,,,,,,,,,,,,,yellow,triangle
0.0,4.0,0.0,0.0,1.0,1.0,334.32583200010407,2.0,1.0,phase_1,,,,,,,,,,,,,green,diamond
664.0,3.0,2.0,0.0,1.0,1.0,352.9727290001574,2.0,1.0,phase_1,,,,,,,,,,,,,white,flipped triangle
651.0,7.0,2.0,1.0,2.0,2.0,435.5169690002185,2.0,2.0,phase_1,,,,,,,,,,,,,orange,I
170.0,1.0,0.5,0.0,4.0,4.0,500.5370879998736,2.0,1.0,phase_1,,,,,,,,,,,,,magenta,hexagon
636.0,7.0,2.0,1.0,1.0,1.0,343.6177319999842,2.0,1.0,phase_1,,,,,,,,,,,,,orange,I
143.0,5.0,0.5,1.0,3.0,3.0,316.9218049997653,2.0,1.0,phase_1,,,,,,,,,,,,,yellow,triangle
1317.0,8.0,4.0,1.0,3.0,3.0,344.6276220001891,2.0,1.0,phase_1,,,,,,,,,,,,,cyan,cross
155.0,5.0,0.5,1.0,4.0,4.0,381.0143450000396,2.0,1.0,phase_1,,,,,,,,,,,,,yellow,triangle
139.0,1.0,0.5,0.0,4.0,4.0,510.9882309998284,2.0,1.0,phase_1,,,,,,,,,,,,,magenta,hexagon
1301.0,8.0,4.0,1.0,4.0,4.0,398.8495049998164,2.0,1.0,phase_1,,,,,,,,,,,,,cyan,cross
1290.0,4.0,4.0,0.0,4.0,4.0,370.7837970000582,2.0,1.0,phase_1,,,,,,,,,,,,,green,diamond
331.0,6.0,1.0,1.0,3.0,3.0,306.4582790002532,2.0,1.0,phase_1,,,,,,,,,,,,,blue,square
632.0,3.0,2.0,0.0,3.0,3.0,353.0244329999732,2.0,1.0,phase_1,,,,,,,,,,,,,white,flipped triangle
662.0,7.0,2.0,1.0,4.0,4.0,325.008211000295,2.0,1.0,phase_1,,,,,,,,,,,,,orange,I
1278.0,8.0,4.0,1.0,1.0,1.0,566.004373999931,2.0,1.0,phase_1,,,,,,,,,,,,,cyan,cross
0.0,3.0,0.0,0.0,1.0,1.0,352.2318779996567,2.0,1.0,phase_1,,,,,,,,,,,,,white,flipped triangle
0.0,5.0,0.0,1.0,3.0,3.0,334.0289650000159,2.0,1.0,phase_1,,,,,,,,,,,,,yellow,triangle
1314.0,4.0,4.0,0.0,1.0,1.0,400.0123219998386,2.0,1.0,phase_1,,,,,,,,,,,,,green,diamond
1286.0,4.0,4.0,0.0,4.0,4.0,472.7910950000478,2.0,1.0,phase_1,,,,,,,,,,,,,green,diamond
1323.0,4.0,4.0,0.0,1.0,1.0,517.7544030002537,2.0,1.0,phase_1,,,,,,,,,,,,,green,diamond
0.0,7.0,0.0,1.0,1.0,1.0,416.9292149999819,2.0,1.0,phase_1,,,,,,,,,,,,,orange,I
326.0,6.0,1.0,1.0,3.0,3.0,316.1854799996035,2.0,1.0,phase_1,,,,,,,,,,,,,blue,square
0.0,6.0,0.0,1.0,1.0,1.0,361.3315389998206,2.0,1.0,phase_1,,,,,,,,,,,,,blue,square
631.0,3.0,2.0,0.0,2.0,2.0,426.3945190000413,2.0,1.0,phase_1,,,,,,,,,,,,,white,flipped triangle
1283.0,4.0,4.0,0.0,1.0,1.0,435.0308570001289,2.0,1.0,phase_1,,,,,,,,,,,,,green,diamond
627.0,3.0,2.0,0.0,1.0,1.0,388.9967750001233,2.0,1.0,phase_1,,,,,,,,,,,,,white,flipped triangle
0.0,8.0,0.0,1.0,2.0,2.0,371.491213000354,2.0,2.0,phase_1,,,,,,,,,,,,,cyan,cross
324.0,2.0,1.0,0.0,2.0,2.0,343.3494930000051,2.0,1.0,phase_1,,,,,,,,,,,,,gray,circle
148.0,1.0,0.5,0.0,4.0,4.0,452.8006380000988,2.0,1.0,phase_1,,,,,,,,,,,,,magenta,hexagon
641.0,7.0,2.0,1.0,2.0,2.0,343.5837490001177,2.0,1.0,phase_1,,,,,,,,,,,,,orange,I
632.0,7.0,2.0,1.0,4.0,4.0,399.3595350002579,2.0,1.0,phase_1,,,,,,,,,,,,,orange,I
1291.0,8.0,4.0,1.0,1.0,1.0,390.507467000134,2.0,1.0,phase_1,,,,,,,,,,,,,cyan,cross
633.0,3.0,2.0,0.0,4.0,4.0,510.46057199982897,2.0,1.0,phase_1,,,,,,,,,,,,,white,flipped triangle
1318.0,4.0,4.0,0.0,3.0,3.0,314.3943879999824,2.0,1.0,phase_1,,,,,,,,,,,,,green,diamond
1276.0,4.0,4.0,0.0,3.0,3.0,352.5267850000091,2.0,1.0,phase_1,,,,,,,,,,,,,green,diamond
137.0,5.0,0.5,1.0,4.0,4.0,398.9003440001397,2.0,1.0,phase_1,,,,,,,,,,,,,yellow,triangle
168.0,1.0,0.5,0.0,1.0,1.0,444.6283560000665,2.0,1.0,phase_1,,,,,,,,,,,,,magenta,hexagon
1313.0,8.0,4.0,1.0,3.0,3.0,343.728273999659,2.0,1.0,phase_1,,,,,,,,,,,,,cyan,cross
0.0,4.0,0.0,0.0,3.0,3.0,399.033430000145,2.0,1.0,phase_1,,,,,,,,,,,,,green,diamond
163.0,5.0,0.5,1.0,3.0,3.0,380.7501649998812,2.0,1.0,phase_1,,,,,,,,,,,,,yellow,triangle
1319.0,8.0,4.0,1.0,4.0,4.0,361.5254369997274,2.0,1.0,phase_1,,,,,,,,,,,,,cyan,cross
180.0,1.0,0.5,0.0,1.0,1.0,324.159661000067,2.0,1.0,phase_1,,,,,,,,,,,,,magenta,hexagon
184.0,1.0,0.5,0.0,2.0,2.0,370.3008089996729,2.0,2.0,phase_1,,,,,,,,,,,,,magenta,hexagon
627.0,7.0,2.0,1.0,2.0,2.0,417.675364000388,2.0,1.0,phase_1,,,,,,,,,,,,,orange,I
641.0,7.0,2.0,1.0,3.0,3.0,425.6428609996874,2.0,1.0,phase_1,,,,,,,,,,,,,orange,I
1318.0,4.0,4.0,0.0,3.0,3.0,332.6905109997824,2.0,1.0,phase_1,,,,,,,,,,,,,green,diamond
631.0,3.0,2.0,0.0,3.0,3.0,333.9601899997433,2.0,1.0,phase_1,,,,,,,,,,,,,white,flipped triangle
0.0,4.0,0.0,0.0,2.0,2.0,351.4045189999706,2.0,1.0,phase_1,,,,,,,,,,,,,green,diamond
313.0,2.0,1.0,0.0,1.0,1.0,417.0257340001626,2.0,1.0,phase_1,,,,,,,,,,,,,gray,circle
163.0,1.0,0.5,0.0,4.0,4.0,492.7668440000161,2.0,1.0,phase_1,,,,,,,,,,,,,magenta,hexagon
341.0,2.0,1.0,0.0,3.0,3.0,408.5394060002727,3.0,1.0,phase_1,,,,,,,,,,,,,gray,circle
158.0,1.0,0.5,0.0,2.0,2.0,392.6942810003311,3.0,1.0,phase_1,,,,,,,,,,,,,magenta,hexagon
668.0,7.0,2.0,1.0,3.0,3.0,325.0677400001223,3.0,1.0,phase_1,,,,,,,,,,,,,orange,I
313.0,2.0,1.0,0.0,4.0,4.0,344.0058050000516,3.0,1.0,phase_1,,,,,,,,,,,,,gray,circle
185.0,1.0,0.5,0.0,1.0,1.0,315.5149389999678,3.0,1.0,phase_1,,,,,,,,,,,,,magenta,hexagon
159.0,5.0,0.5,1.0,1.0,1.0,351.8703680001636,3.0,1.0,phase_1,,,,,,,,,,,,,yellow,triangle
675.0,7.0,2.0,1.0,2.0,2.0,454.9172619999808,3.0,1.0,phase_1,,,,,,,,,,,,,orange,I
322.0,6.0,1.0,1.0,2.0,2.0,381.0400439997465,3.0,1.0,phase_1,,,,,,,,,,,,,blue,square
1282.0,8.0,4.0,1.0,3.0,3.0,345.3089990002809,3.0,1.0,phase_1,,,,,,,,,,,,,cyan,cross
633.0,3.0,2.0,0.0,2.0,2.0,445.3882439997869,3.0,1.0,phase_1,,,,,,,,,,,,,white,flipped triangle
634.0,3.0,2.0,0.0,4.0,4.0,333.8524169998891,3.0,2.0,phase_1,,,,,,,,,,,,,white,flipped triangle
314.0,2.0,1.0,0.0,1.0,1.0,314.8217170000862,3.0,2.0,phase_1,,,,,,,,,,,,,gray,circle
1282.0,4.0,4.0,0.0,3.0,3.0,315.3187689999868,3.0,1.0,phase_1,,,,,,,,,,,,,green,diamond
150.0,1.0,0.5,0.0,2.0,2.0,296.5066550000301,3.0,1.0,phase_1,,,,,,,,,,,,,magenta,hexagon
317.0,2.0,1.0,0.0,3.0,3.0,333.1163019997802,3.0,1.0,phase_1,,,,,,,,,,,,,gray,circle
0.0,5.0,0.0,1.0,3.0,3.0,369.5374769999944,3.0,1.0,phase_1,,,,,,,,,,,,,yellow,triangle
1295.0,8.0,4.0,1.0,4.0,4.0,343.3048330002748,3.0,1.0,phase_1,,,,,,,,,,,,,cyan,cross
654.0,7.0,2.0,1.0,3.0,3.0,332.8965080004309,3.0,1.0,phase_1,,,,,,,,,,,,,orange,I
142.0,5.0,0.5,1.0,2.0,2.0,387.9886440004156,3.0,1.0,phase_1,,,,,,,,,,,,,yellow,triangle
664.0,7.0,2.0,1.0,2.0,2.0,369.1738640000039,3.0,1.0,phase_1,,,,,,,,,,,,,orange,I
670.0,3.0,2.0,0.0,4.0,4.0,370.6710090000342,3.0,1.0,phase_1,,,,,,,,,,,,,white,flipped triangle
1301.0,4.0,4.0,0.0,4.0,4.0,397.6737230000253,3.0,1.0,phase_1,,,,,,,,,,,,,green,diamond
0.0,2.0,0.0,0.0,3.0,3.0,333.4385819998715,3.0,1.0,phase_1,,,,,,,,,,,,,gray,circle
1286.0,8.0,4.0,1.0,4.0,4.0,370.5814350000764,3.0,1.0,phase_1,,,,,,,,,,,,,cyan,cross
626.0,7.0,2.0,1.0,2.0,2.0,333.5110159996475,3.0,1.0,phase_1,,,,,,,,,,,,,orange,I
317.0,6.0,1.0,1.0,2.0,2.0,369.7834150002563,3.0,1.0,phase_1,,,,,,,,,,,,,blue,square
0.0,7.0,0.0,1.0,2.0,2.0,352.464979999695,3.0,1.0,phase_1,,,,,,,,,,,,,orange,I
1317.0,8.0,4.0,1.0,1.0,1.0,507.92806300023585,3.0,1.0,phase_1,,,,,,,,,,,,,cyan,cross
1302.0,8.0,4.0,1.0,2.0,2.0,342.7328029997625,3.0,1.0,phase_1,,,,,,,,,,,,,cyan,cross
1295.0,8.0,4.0,1.0,4.0,4.0,416.7532609999398,3.0,2.0,phase_1,,,,,,,,,,,,,cyan,cross
301.0,2.0,1.0,0.0,3.0,3.0,332.9042860000299,3.0,1.0,phase_1,,,,,,,,,,,,,gray,circle
657.0,7.0,2.0,1.0,1.0,1.0,397.4116879999201,3.0,1.0,phase_1,,,,,,,,,,,,,orange,I
670.0,3.0,2.0,0.0,3.0,3.0,315.3113409998695,3.0,1.0,phase_1,,,,,,,,,,,,,white,flipped triangle
651.0,7.0,2.0,1.0,4.0,4.0,379.0356469999096,3.0,1.0,phase_1,,,,,,,,,,,,,orange,I
314.0,2.0,1.0,0.0,1.0,1.0,447.9686140002741,3.0,2.0,phase_1,,,,,,,,,,,,,gray,circle
0.0,1.0,0.0,0.0,2.0,2.0,344.1318139998657,3.0,1.0,phase_1,,,,,,,,,,,,,magenta,hexagon
342.0,2.0,1.0,0.0,3.0,3.0,416.5653660002135,3.0,1.0,phase_1,,,,,,,,,,,,,gray,circle
1324.0,4.0,4.0,0.0,2.0,2.0,371.812489000149,3.0,1.0,phase_1,,,,,,,,,,,,,green,diamond
173.0,5.0,0.5,1.0,1.0,1.0,407.1550129997376,3.0,1.0,phase_1,,,,,,,,,,,,,yellow,triangle
168.0,5.0,0.5,1.0,3.0,3.0,353.9344579999124,3.0,1.0,phase_1,,,,,,,,,,,,,yellow,triangle
636.0,3.0,2.0,0.0,1.0,1.0,352.4279640000713,3.0,1.0,phase_1,,,,,,,,,,,,,white,flipped triangle
668.0,3.0,2.0,0.0,2.0,2.0,361.8953420000252,3.0,1.0,phase_1,,,,,,,,,,,,,white,flipped triangle
0.0,2.0,0.0,0.0,2.0,2.0,360.5761660001008,3.0,1.0,phase_1,,,,,,,,,,,,,gray,circle
1297.0,4.0,4.0,0.0,4.0,4.0,351.1474599999928,3.0,1.0,phase_1,,,,,,,,,,,,,green,diamond
0.0,3.0,0.0,0.0,1.0,1.0,342.941724999946,3.0,1.0,phase_1,,,,,,,,,,,,,white,flipped triangle
0.0,6.0,0.0,1.0,4.0,4.0,306.1404109998875,3.0,3.0,phase_1,,,,,,,,,,,,,blue,square
301.0,2.0,1.0,0.0,4.0,4.0,417.9311699999744,3.0,1.0,phase_1,,,,,,,,,,,,,gray,circle
0.0,1.0,0.0,0.0,3.0,3.0,399.060234999979,3.0,1.0,phase_1,,,,,,,,,,,,,magenta,hexagon
1313.0,8.0,4.0,1.0,2.0,2.0,370.7642809999925,3.0,1.0,phase_1,,,,,,,,,,,,,cyan,cross
0.0,7.0,0.0,1.0,1.0,1.0,474.935091000134,3.0,1.0,phase_1,,,,,,,,,,,,,orange,I
0.0,1.0,0.0,0.0,2.0,2.0,380.9610939997583,3.0,1.0,phase_1,,,,,,,,,,,,,magenta,hexagon
0.0,8.0,0.0,1.0,3.0,3.0,317.3091379999277,3.0,1.0,phase_1,,,,,,,,,,,,,cyan,cross
1311.0,4.0,4.0,0.0,2.0,2.0,342.5193450002552,3.0,2.0,phase_1,,,,,,,,,,,,,green,diamond
1283.0,4.0,4.0,0.0,4.0,4.0,537.3192869997183,3.0,1.0,phase_1,,,,,,,,,,,,,green,diamond
153.0,5.0,0.5,1.0,2.0,2.0,343.0674150004051,3.0,1.0,phase_1,,,,,,,,,,,,,yellow,triangle
165.0,1.0,0.5,0.0,3.0,3.0,371.1179440001615,3.0,1.0,phase_1,,,,,,,,,,,,,magenta,hexagon
326.0,2.0,1.0,0.0,1.0,1.0,370.9232380001594,3.0,2.0,phase_1,,,,,,,,,,,,,gray,circle
338.0,2.0,1.0,0.0,2.0,2.0,454.6235100001468,3.0,1.0,phase_1,,,,,,,,,,,,,gray,circle
657.0,3.0,2.0,0.0,4.0,4.0,388.3637210001325,3.0,1.0,phase_1,,,,,,,,,,,,,white,flipped triangle
144.0,5.0,0.5,1.0,1.0,1.0,407.3482920002789,3.0,1.0,phase_1,,,,,,,,,,,,,yellow,triangle
1324.0,8.0,4.0,1.0,1.0,1.0,370.7470220001596,3.0,1.0,phase_1,,,,,,,,,,,,,cyan,cross
0.0,8.0,0.0,1.0,1.0,1.0,361.1961579999843,3.0,1.0,phase_1,,,,,,,,,,,,,cyan,cross
313.0,6.0,1.0,1.0,2.0,2.0,314.1767199999776,3.0,2.0,phase_1,,,,,,,,,,,,,blue,square
664.0,7.0,2.0,1.0,1.0,1.0,445.7220719996257,3.0,1.0,phase_1,,,,,,,,,,,,,orange,I
185.0,5.0,0.5,1.0,4.0,4.0,426.7202870000801,3.0,1.0,phase_1,,,,,,,,,,,,,yellow,triangle
187.0,5.0,0.5,1.0,3.0,3.0,307.6531930000783,3.0,1.0,phase_1,,,,,,,,,,,,,yellow,triangle
1276.0,8.0,4.0,1.0,2.0,2.0,380.7396369998059,3.0,1.0,phase_1,,,,,,,,,,,,,cyan,cross
169.0,5.0,0.5,1.0,3.0,3.0,427.1865999999136,3.0,1.0,phase_1,,,,,,,,,,,,,yellow,triangle
1276.0,8.0,4.0,1.0,1.0,1.0,435.5646839999281,3.0,1.0,phase_1,,,,,,,,,,,,,cyan,cross
326.0,6.0,1.0,1.0,4.0,4.0,509.9588019998009,3.0,1.0,phase_1,,,,,,,,,,,,,blue,square
322.0,2.0,1.0,0.0,3.0,3.0,409.277953000128,3.0,1.0,phase_1,,,,,,,,,,,,,gray,circle
313.0,2.0,1.0,0.0,4.0,4.0,427.5468719997661,3.0,1.0,phase_1,,,,,,,,,,,,,gray,circle
1278.0,4.0,4.0,0.0,1.0,1.0,353.7286270002369,3.0,1.0,phase_1,,,,,,,,,,,,,green,diamond
1294.0,8.0,4.0,1.0,4.0,4.0,372.6359779998347,3.0,1.0,phase_1,,,,,,,,,,,,,cyan,cross
0.0,5.0,0.0,1.0,3.0,3.0,342.9065609998361,3.0,1.0,phase_1,,,,,,,,,,,,,yellow,triangle
159.0,1.0,0.5,0.0,4.0,4.0,399.7679559997777,3.0,1.0,phase_1,,,,,,,,,,,,,magenta,hexagon
626.0,3.0,2.0,0.0,2.0,2.0,370.67147200014,3.0,1.0,phase_1,,,,,,,,,,,,,white,flipped triangle
0.0,8.0,0.0,1.0,3.0,3.0,344.3812020000223,3.0,1.0,phase_1,,,,,,,,,,,,,cyan,cross
0.0,5.0,0.0,1.0,4.0,4.0,325.3293749999102,3.0,1.0,phase_1,,,,,,,,,,,,,yellow,triangle
641.0,3.0,2.0,0.0,4.0,4.0,371.601542999997,3.0,1.0,phase_1,,,,,,,,,,,,,white,flipped triangle
640.0,3.0,2.0,0.0,2.0,2.0,528.552301000218,3.0,2.0,phase_1,,,,,,,,,,,,,white,flipped triangle
0.0,7.0,0.0,1.0,3.0,3.0,445.9217270000408,3.0,1.0,phase_1,,,,,,,,,,,,,orange,I
640.0,3.0,2.0,0.0,4.0,4.0,443.2392919998165,3.0,1.0,phase_1,,,,,,,,,,,,,white,flipped triangle
663.0,3.0,2.0,0.0,4.0,4.0,371.2094520001301,3.0,1.0,phase_1,,,,,,,,,,,,,white,flipped triangle
0.0,8.0,0.0,1.0,1.0,1.0,360.6454870000561,3.0,1.0,phase_1,,,,,,,,,,,,,cyan,cross
0.0,1.0,0.0,0.0,4.0,4.0,490.8811119998972,3.0,1.0,phase_1,,,,,,,,,,,,,magenta,hexagon
331.0,2.0,1.0,0.0,4.0,4.0,354.3245559999377,3.0,1.0,phase_1,,,,,,,,,,,,,gray,circle
651.0,3.0,2.0,0.0,2.0,2.0,388.1975399999646,3.0,1.0,phase_1,,,,,,,,,,,,,white,flipped triangle
328.0,2.0,1.0,0.0,3.0,3.0,426.9985169999017,3.0,1.0,phase_1,,,,,,,,,,,,,gray,circle
1310.0,8.0,4.0,1.0,2.0,2.0,388.577013000031,3.0,1.0,phase_1,,,,,,,,,,,,,cyan,cross
0.0,7.0,0.0,1.0,3.0,3.0,362.1530199998233,3.0,1.0,phase_1,,,,,,,,,,,,,orange,I
668.0,7.0,2.0,1.0,4.0,4.0,398.3915620001426,3.0,1.0,phase_1,,,,,,,,,,,,,orange,I
338.0,6.0,1.0,1.0,3.0,3.0,361.6904659997999,3.0,1.0,phase_1,,,,,,,,,,,,,blue,square
1311.0,8.0,4.0,1.0,1.0,1.0,333.8822000000618,3.0,1.0,phase_1,,,,,,,,,,,,,cyan,cross
1275.0,8.0,4.0,1.0,3.0,3.0,252.636151000388,3.0,1.0,phase_1,,,,,,,,,,,,,cyan,cross
338.0,2.0,1.0,0.0,1.0,1.0,325.6060869998691,3.0,1.0,phase_1,,,,,,,,,,,,,gray,circle
670.0,7.0,2.0,1.0,3.0,3.0,343.287231999966,3.0,1.0,phase_1,,,,,,,,,,,,,orange,I
640.0,7.0,2.0,1.0,1.0,1.0,381.7685489998439,3.0,1.0,phase_1,,,,,,,,,,,,,orange,I
1302.0,4.0,4.0,0.0,2.0,2.0,438.8353929998629,3.0,1.0,phase_1,,,,,,,,,,,,,green,diamond
0.0,6.0,0.0,1.0,1.0,1.0,427.2778560002734,3.0,1.0,phase_1,,,,,,,,,,,,,blue,square
182.0,5.0,0.5,1.0,3.0,3.0,315.6945599998835,4.0,1.0,phase_1,,,,,,,,,,,,,yellow,triangle
314.0,6.0,1.0,1.0,3.0,3.0,304.4971380004426,4.0,1.0,phase_1,,,,,,,,,,,,,blue,square
1282.0,4.0,4.0,0.0,2.0,2.0,351.5142910000577,4.0,1.0,phase_1,,,,,,,,,,,,,green,diamond
641.0,7.0,2.0,1.0,4.0,4.0,296.9081240003106,4.0,1.0,phase_1,,,,,,,,,,,,,orange,I
153.0,5.0,0.5,1.0,4.0,4.0,362.0035970002391,4.0,1.0,phase_1,,,,,,,,,,,,,yellow,triangle
1323.0,8.0,4.0,1.0,3.0,3.0,343.2296220003081,4.0,1.0,phase_1,,,,,,,,,,,,,cyan,cross
184.0,1.0,0.5,0.0,2.0,2.0,389.7107939997113,4.0,2.0,phase_1,,,,,,,,,,,,,magenta,hexagon
1323.0,8.0,4.0,1.0,2.0,2.0,390.3329899999335,4.0,1.0,phase_1,,,,,,,,,,,,,cyan,cross
639.0,3.0,2.0,0.0,2.0,2.0,417.1378060000279,4.0,1.0,phase_1,,,,,,,,,,,,,white,flipped triangle
0.0,3.0,0.0,0.0,3.0,3.0,454.8848130002625,4.0,1.0,phase_1,,,,,,,,,,,,,white,flipped triangle
1276.0,4.0,4.0,0.0,1.0,1.0,361.4762730003349,4.0,1.0,phase_1,,,,,,,,,,,,,green,diamond
157.0,5.0,0.5,1.0,2.0,2.0,444.9126320000687,4.0,1.0,phase_1,,,,,,,,,,,,,yellow,triangle
1323.0,4.0,4.0,0.0,3.0,3.0,325.1200439999593,4.0,1.0,phase_1,,,,,,,,,,,,,green,diamond
150.0,5.0,0.5,1.0,2.0,2.0,333.9619960001982,4.0,1.0,phase_1,,,,,,,,,,,,,yellow,triangle
337.0,6.0,1.0,1.0,2.0,2.0,315.8984769997914,4.0,1.0,phase_1,,,,,,,,,,,,,blue,square
331.0,2.0,1.0,0.0,2.0,2.0,352.7158229999259,4.0,1.0,phase_1,,,,,,,,,,,,,gray,circle
346.0,2.0,1.0,0.0,4.0,4.0,324.2525780001415,4.0,1.0,phase_1,,,,,,,,,,,,,gray,circle
0.0,5.0,0.0,1.0,1.0,1.0,326.9244289999733,4.0,1.0,phase_1,,,,,,,,,,,,,yellow,triangle
315.0,2.0,1.0,0.0,3.0,3.0,324.2819010001767,4.0,1.0,phase_1,,,,,,,,,,,,,gray,circle
184.0,5.0,0.5,1.0,1.0,1.0,363.0342800001926,4.0,1.0,phase_1,,,,,,,,,,,,,yellow,triangle
1298.0,4.0,4.0,0.0,3.0,3.0,316.2886410000283,4.0,1.0,phase_1,,,,,,,,,,,,,green,diamond
0.0,3.0,0.0,0.0,4.0,4.0,336.183314000209,4.0,1.0,phase_1,,,,,,,,,,,,,white,flipped triangle
170.0,1.0,0.5,0.0,1.0,1.0,363.2562289999441,4.0,1.0,phase_1,,,,,,,,,,,,,magenta,hexagon
654.0,3.0,2.0,0.0,4.0,4.0,381.2182810002014,4.0,1.0,phase_1,,,,,,,,,,,,,white,flipped triangle
338.0,6.0,1.0,1.0,3.0,3.0,344.069023999964,4.0,1.0,phase_1,,,,,,,,,,,,,blue,square
179.0,5.0,0.5,1.0,3.0,3.0,361.8947770000886,4.0,1.0,phase_1,,,,,,,,,,,,,yellow,triangle
0.0,7.0,0.0,1.0,4.0,4.0,398.6902250003368,4.0,1.0,phase_1,,,,,,,,,,,,,orange,I
649.0,3.0,2.0,0.0,1.0,1.0,352.1665680000296,4.0,1.0,phase_1,,,,,,,,,,,,,white,flipped triangle
153.0,1.0,0.5,0.0,4.0,4.0,316.3808200001767,4.0,1.0,phase_1,,,,,,,,,,,,,magenta,hexagon
324.0,6.0,1.0,1.0,1.0,1.0,352.8663460001553,4.0,1.0,phase_1,,,,,,,,,,,,,blue,square
170.0,5.0,0.5,1.0,4.0,4.0,528.640292000091,4.0,1.0,phase_1,,,,,,,,,,,,,yellow,triangle
1282.0,8.0,4.0,1.0,2.0,2.0,361.0171569998783,4.0,1.0,phase_1,,,,,,,,,,,,,cyan,cross
328.0,6.0,1.0,1.0,1.0,1.0,501.85261299975537,4.0,1.0,phase_1,,,,,,,,,,,,,blue,square
301.0,6.0,1.0,1.0,4.0,4.0,361.5165589999378,4.0,1.0,phase_1,,,,,,,,,,,,,blue,square
169.0,1.0,0.5,0.0,2.0,2.0,388.3599120003964,4.0,1.0,phase_1,,,,,,,,,,,,,magenta,hexagon
163.0,5.0,0.5,1.0,4.0,4.0,334.7937579997051,4.0,1.0,phase_1,,,,,,,,,,,,,yellow,triangle
326.0,2.0,1.0,0.0,2.0,2.0,361.8019519999507,4.0,1.0,phase_1,,,,,,,,,,,,,gray,circle
328.0,2.0,1.0,0.0,3.0,3.0,326.1002879999068,4.0,2.0,phase_1,,,,,,,,,,,,,gray,circle
1300.0,4.0,4.0,0.0,1.0,1.0,592.4278150000646,4.0,1.0,phase_1,,,,,,,,,,,,,green,diamond
0.0,3.0,0.0,0.0,4.0,4.0,388.8459980003063,4.0,1.0,phase_1,,,,,,,,,,,,,white,flipped triangle
0.0,2.0,0.0,0.0,1.0,1.0,361.4767379999648,4.0,1.0,phase_1,,,,,,,,,,,,,gray,circle
314.0,2.0,1.0,0.0,4.0,4.0,316.1621399999603,4.0,1.0,phase_1,,,,,,,,,,,,,gray,circle
0.0,4.0,0.0,0.0,2.0,2.0,399.3200570002955,4.0,1.0,phase_1,,,,,,,,,,,,,green,diamond
139.0,5.0,0.5,1.0,2.0,2.0,398.4393380001165,4.0,1.0,phase_1,,,,,,,,,,,,,yellow,triangle
0.0,5.0,0.0,1.0,4.0,4.0,352.811273000043,4.0,1.0,phase_1,,,,,,,,,,,,,yellow,triangle
0.0,4.0,0.0,0.0,2.0,2.0,352.43882199984,4.0,2.0,phase_1,,,,,,,,,,,,,green,diamond
666.0,3.0,2.0,0.0,3.0,3.0,324.8911529999532,4.0,1.0,phase_1,,,,,,,,,,,,,white,flipped triangle
180.0,5.0,0.5,1.0,1.0,1.0,362.1520700003202,4.0,1.0,phase_1,,,,,,,,,,,,,yellow,triangle
0.0,1.0,0.0,0.0,3.0,3.0,324.3533300001218,4.0,1.0,phase_1,,,,,,,,,,,,,magenta,hexagon
0.0,4.0,0.0,0.0,3.0,3.0,342.9946390001532,4.0,1.0,phase_1,,,,,,,,,,,,,green,diamond
315.0,6.0,1.0,1.0,4.0,4.0,0.24018999965840002,4.0,2.0,phase_1,,,,,,,,,,,,,blue,square
658.0,3.0,2.0,0.0,3.0,3.0,400.0600320000558,4.0,1.0,phase_1,,,,,,,,,,,,,white,flipped triangle
147.0,5.0,0.5,1.0,4.0,4.0,380.8922469997924,4.0,1.0,phase_1,,,,,,,,,,,,,yellow,triangle
347.0,2.0,1.0,0.0,4.0,4.0,362.1473529997274,4.0,1.0,phase_1,,,,,,,,,,,,,gray,circle
626.0,7.0,2.0,1.0,2.0,2.0,483.3255489998009,4.0,1.0,phase_1,,,,,,,,,,,,,orange,I
139.0,5.0,0.5,1.0,1.0,1.0,519.0794290001577,4.0,1.0,phase_1,,,,,,,,,,,,,yellow,triangle
1303.0,4.0,4.0,0.0,3.0,3.0,436.7422440000155,4.0,1.0,phase_1,,,,,,,,,,,,,green,diamond
342.0,2.0,1.0,0.0,1.0,1.0,435.2933730001496,4.0,1.0,phase_1,,,,,,,,,,,,,gray,circle
674.0,3.0,2.0,0.0,1.0,1.0,416.9815789996391,4.0,1.0,phase_1,,,,,,,,,,,,,white,flipped triangle
163.0,1.0,0.5,0.0,1.0,1.0,343.8355570001477,4.0,1.0,phase_1,,,,,,,,,,,,,magenta,hexagon
633.0,7.0,2.0,1.0,4.0,4.0,463.03791299988,4.0,1.0,phase_1,,,,,,,,,,,,,orange,I
1313.0,4.0,4.0,0.0,3.0,3.0,324.5671399999992,4.0,1.0,phase_1,,,,,,,,,,,,,green,diamond
0.0,1.0,0.0,0.0,4.0,4.0,484.2261799999505,4.0,1.0,phase_1,,,,,,,,,,,,,magenta,hexagon
0.0,2.0,0.0,0.0,2.0,2.0,418.0532569998831,4.0,1.0,phase_1,,,,,,,,,,,,,gray,circle
341.0,2.0,1.0,0.0,4.0,4.0,343.6045739999827,4.0,1.0,phase_1,,,,,,,,,,,,,gray,circle
634.0,7.0,2.0,1.0,2.0,2.0,529.908376000094,4.0,2.0,phase_1,,,,,,,,,,,,,orange,I
139.0,1.0,0.5,0.0,1.0,1.0,417.3106980001648,4.0,1.0,phase_1,,,,,,,,,,,,,magenta,hexagon
1307.0,4.0,4.0,0.0,2.0,2.0,427.1434900001623,4.0,1.0,phase_1,,,,,,,,,,,,,green,diamond
144.0,1.0,0.5,0.0,2.0,2.0,444.4680070000686,4.0,1.0,phase_1,,,,,,,,,,,,,magenta,hexagon
147.0,1.0,0.5,0.0,3.0,3.0,342.4187130003702,4.0,1.0,phase_1,,,,,,,,,,,,,magenta,hexagon
656.0,7.0,2.0,1.0,1.0,1.0,393.0139429999144,4.0,1.0,phase_1,,,,,,,,,,,,,orange,I
317.0,6.0,1.0,1.0,4.0,4.0,380.4591240000263,4.0,1.0,phase_1,,,,,,,,,,,,,blue,square
1290.0,8.0,4.0,1.0,4.0,4.0,353.817109999909,4.0,1.0,phase_1,,,,,,,,,,,,,cyan,cross
170.0,5.0,0.5,1.0,4.0,4.0,577.9478639997251,4.0,1.0,phase_1,,,,,,,,,,,,,yellow,triangle
0.0,4.0,0.0,0.0,4.0,4.0,417.0113529999071,4.0,1.0,phase_1,,,,,,,,,,,,,green,diamond
674.0,7.0,2.0,1.0,2.0,2.0,380.2117989998805,4.0,1.0,phase_1,,,,,,,,,,,,,orange,I
1275.0,8.0,4.0,1.0,2.0,2.0,389.3432190002386,4.0,1.0,phase_1,,,,,,,,,,,,,cyan,cross
0.0,2.0,0.0,0.0,2.0,2.0,407.8603129996736,4.0,1.0,phase_1,,,,,,,,,,,,,gray,circle
0.0,8.0,0.0,1.0,2.0,2.0,352.8278190001401,4.0,1.0,phase_1,,,,,,,,,,,,,cyan,cross
149.0,1.0,0.5,0.0,3.0,3.0,371.3195409995933,4.0,1.0,phase_1,,,,,,,,,,,,,magenta,hexagon
159.0,1.0,0.5,0.0,2.0,2.0,408.0388490001496,4.0,1.0,phase_1,,,,,,,,,,,,,magenta,hexagon
1295.0,4.0,4.0,0.0,2.0,2.0,370.7889679999425,4.0,1.0,phase_1,,,,,,,,,,,,,green,diamond
144.0,1.0,0.5,0.0,2.0,2.0,378.8068459998612,4.0,1.0,phase_1,,,,,,,,,,,,,magenta,hexagon
330.0,6.0,1.0,1.0,1.0,1.0,416.6510620002555,4.0,2.0,phase_1,,,,,,,,,,,,,blue,square
328.0,2.0,1.0,0.0,1.0,1.0,389.3156330000238,4.0,1.0,phase_1,,,,,,,,,,,,,gray,circle
153.0,1.0,0.5,0.0,1.0,1.0,370.2270929998121,4.0,1.0,phase_1,,,,,,,,,,,,,magenta,hexagon
341.0,6.0,1.0,1.0,4.0,4.0,416.6612119997808,4.0,1.0,phase_1,,,,,,,,,,,,,blue,square
1283.0,8.0,4.0,1.0,4.0,4.0,425.9557059999679,4.0,1.0,phase_1,,,,,,,,,,,,,cyan,cross
155.0,1.0,0.5,0.0,2.0,2.0,306.2805859999571,4.0,2.0,phase_1,,,,,,,,,,,,,magenta,hexagon
314.0,6.0,1.0,1.0,1.0,1.0,537.8274059999057,4.0,1.0,phase_1,,,,,,,,,,,,,blue,square
663.0,7.0,2.0,1.0,4.0,4.0,380.6930769997052,4.0,1.0,phase_1,,,,,,,,,,,,,orange,I
320.0,6.0,1.0,1.0,1.0,1.0,361.8070779998561,4.0,1.0,phase_1,,,,,,,,,,,,,blue,square
182.0,1.0,0.5,0.0,4.0,4.0,325.3839010003503,4.0,1.0,phase_1,,,,,,,,,,,,,magenta,hexagon
1295.0,4.0,4.0,0.0,3.0,3.0,352.5492109997685,4.0,1.0,phase_1,,,,,,,,,,,,,green,diamond
314.0,6.0,1.0,1.0,1.0,1.0,380.6760580000627,4.0,1.0,phase_1,,,,,,,,,,,,,blue,square
0.0,4.0,0.0,0.0,3.0,3.0,289.0888150000137,4.0,1.0,phase_1,,,,,,,,,,,,,green,diamond
0.0,6.0,0.0,1.0,2.0,2.0,370.7873660000587,4.0,1.0,phase_1,,,,,,,,,,,,,blue,square
1284.0,4.0,4.0,0.0,2.0,2.0,383.3941289999529,4.0,1.0,phase_1,,,,,,,,,,,,,green,diamond
0.0,3.0,0.0,0.0,3.0,3.0,318.5462980000011,4.0,1.0,phase_1,,,,,,,,,,,,,white,flipped triangle
326.0,6.0,1.0,1.0,2.0,2.0,390.2214409999942,4.0,1.0,phase_1,,,,,,,,,,,,,blue,square
0.0,4.0,4.0,0.0,6.0,6.0,344.4288050000068,1.0,1.0,phase_2,go,250.0,250.0,1.0,,,,,,,,,green,diamond
0.0,2.0,1.0,0.0,5.0,5.0,370.2557369997521,1.0,1.0,phase_2,go,250.0,250.0,1.0,,,,,,,,,gray,circle
0.0,7.0,2.0,1.0,6.0,0.0,0.0,1.0,1.0,phase_2,stop,250.0,250.0,4.0,,,,,,,,,orange,I
0.0,3.0,2.0,0.0,6.0,6.0,373.5862540002017,1.0,1.0,phase_2,go,250.0,300.0,1.0,,,,,,,,,white,flipped triangle
0.0,7.0,2.0,1.0,6.0,6.0,413.5315630001059,1.0,1.0,phase_2,stop,250.0,300.0,3.0,,,,,,,,,orange,I
0.0,6.0,1.0,1.0,6.0,0.0,0.0,1.0,1.0,phase_2,stop,250.0,250.0,4.0,,,,,,,,,blue,square
0.0,6.0,1.0,1.0,6.0,6.0,381.8876949999321,1.0,1.0,phase_2,go,250.0,300.0,1.0,,,,,,,,,blue,square
0.0,7.0,2.0,1.0,6.0,6.0,381.72563599982817,1.0,1.0,phase_2,go,250.0,300.0,1.0,,,,,,,,,orange,I
0.0,7.0,2.0,1.0,5.0,0.0,0.0,1.0,1.0,phase_2,stop,250.0,300.0,4.0,,,,,,,,,orange,I
0.0,3.0,2.0,0.0,6.0,6.0,623.3485129996552,1.0,1.0,phase_2,go,300.0,300.0,1.0,,,,,,,,,white,flipped triangle
0.0,8.0,4.0,1.0,5.0,5.0,615.1276860000507,1.0,1.0,phase_2,go,300.0,300.0,1.0,,,,,,,,,cyan,cross
0.0,1.0,0.5,0.0,6.0,6.0,307.3739950000345,1.0,1.0,phase_2,go,300.0,300.0,1.0,,,,,,,,,magenta,hexagon
0.0,1.0,0.5,0.0,5.0,5.0,597.4226139996972,1.0,1.0,phase_2,go,300.0,300.0,1.0,,,,,,,,,magenta,hexagon
0.0,3.0,2.0,0.0,5.0,5.0,670.6959539997115,1.0,1.0,phase_2,go,300.0,300.0,1.0,,,,,,,,,white,flipped triangle
0.0,8.0,4.0,1.0,6.0,6.0,766.6333659999509,1.0,1.0,phase_2,go,300.0,300.0,1.0,,,,,,,,,cyan,cross
0.0,7.0,2.0,1.0,5.0,5.0,393.4934359999715,1.0,1.0,phase_2,stop,300.0,300.0,3.0,,,,,,,,,orange,I
0.0,1.0,0.5,0.0,6.0,6.0,578.7710820000029,1.0,1.0,phase_2,go,250.0,300.0,1.0,,,,,,,,,magenta,hexagon
0.0,2.0,1.0,0.0,5.0,5.0,587.2623420000309,1.0,1.0,phase_2,go,250.0,300.0,1.0,,,,,,,,,gray,circle
0.0,6.0,1.0,1.0,6.0,6.0,360.5684680001104,1.0,1.0,phase_2,stop,250.0,300.0,3.0,,,,,,,,,blue,square
0.0,3.0,2.0,0.0,6.0,6.0,530.8883449997666,1.0,1.0,phase_2,go,250.0,250.0,1.0,,,,,,,,,white,flipped triangle
0.0,3.0,2.0,0.0,6.0,6.0,550.0480519999655,1.0,1.0,phase_2,go,250.0,250.0,1.0,,,,,,,,,white,flipped triangle
0.0,8.0,4.0,1.0,5.0,0.0,0.0,1.0,1.0,phase_2,stop,250.0,250.0,4.0,,,,,,,,,cyan,cross
0.0,2.0,1.0,0.0,5.0,5.0,418.9488379997783,1.0,1.0,phase_2,go,300.0,250.0,1.0,,,,,,,,,gray,circle
0.0,3.0,2.0,0.0,5.0,5.0,298.9361220002138,1.0,1.0,phase_2,go,300.0,250.0,1.0,,,,,,,,,white,flipped triangle
0.0,3.0,2.0,0.0,5.0,5.0,390.7988470000418,1.0,1.0,phase_2,go,300.0,250.0,1.0,,,,,,,,,white,flipped triangle
0.0,4.0,4.0,0.0,5.0,5.0,391.4962439998817,1.0,1.0,phase_2,go,300.0,250.0,1.0,,,,,,,,,green,diamond
0.0,3.0,2.0,0.0,5.0,5.0,670.5531590000646,1.0,1.0,phase_2,go,300.0,250.0,1.0,,,,,,,,,white,flipped triangle
0.0,7.0,2.0,1.0,5.0,5.0,677.7053850000812,1.0,1.0,phase_2,go,300.0,250.0,1.0,,,,,,,,,orange,I
0.0,4.0,4.0,0.0,6.0,6.0,657.7633319998313,1.0,1.0,phase_2,go,300.0,250.0,1.0,,,,,,,,,green,diamond
0.0,3.0,2.0,0.0,6.0,6.0,629.8644620001141,1.0,1.0,phase_2,go,300.0,250.0,1.0,,,,,,,,,white,flipped triangle
0.0,1.0,0.5,0.0,6.0,6.0,306.7759059999844,1.0,1.0,phase_2,go,300.0,250.0,1.0,,,,,,,,,magenta,hexagon
0.0,6.0,1.0,1.0,6.0,0.0,0.0,1.0,1.0,phase_2,stop,300.0,250.0,4.0,,,,,,,,,blue,square
0.0,7.0,2.0,1.0,5.0,0.0,0.0,1.0,1.0,phase_2,stop,300.0,300.0,4.0,,,,,,,,,orange,I
0.0,2.0,1.0,0.0,6.0,6.0,690.6866659996922,1.0,1.0,phase_2,go,350.0,300.0,1.0,,,,,,,,,gray,circle
0.0,1.0,0.5,0.0,6.0,6.0,706.4438380002684,1.0,1.0,phase_2,go,350.0,300.0,1.0,,,,,,,,,magenta,hexagon
0.0,8.0,4.0,1.0,5.0,0.0,0.0,1.0,1.0,phase_2,stop,350.0,300.0,4.0,,,,,,,,,cyan,cross
0.0,7.0,2.0,1.0,5.0,5.0,409.382144999654,2.0,1.0,phase_2,go,400.0,300.0,1.0,,,,,,,,,orange,I
0.0,8.0,4.0,1.0,6.0,6.0,351.9255220003288,2.0,1.0,phase_2,stop,400.0,300.0,3.0,,,,,,,,,cyan,cross
0.0,3.0,2.0,0.0,6.0,6.0,307.5095260001035,2.0,1.0,phase_2,go,400.0,250.0,1.0,,,,,,,,,white,flipped triangle
0.0,1.0,0.5,0.0,5.0,5.0,476.5517310001996,2.0,1.0,phase_2,go,400.0,250.0,1.0,,,,,,,,,magenta,hexagon
0.0,8.0,4.0,1.0,5.0,5.0,381.6183640001327,2.0,1.0,phase_2,stop,400.0,250.0,3.0,,,,,,,,,cyan,cross
0.0,6.0,1.0,1.0,6.0,6.0,365.0727099998221,2.0,1.0,phase_2,stop,350.0,250.0,3.0,,,,,,,,,blue,square
0.0,2.0,1.0,0.0,5.0,5.0,512.1865270002672,2.0,1.0,phase_2,go,350.0,200.0,1.0,,,,,,,,,gray,circle
0.0,5.0,0.5,1.0,5.0,5.0,512.4834369999007,2.0,1.0,phase_2,stop,350.0,200.0,3.0,,,,,,,,,yellow,triangle
0.0,7.0,2.0,1.0,6.0,0.0,0.0,2.0,1.0,phase_2,stop,300.0,200.0,4.0,,,,,,,,,orange,I
0.0,8.0,4.0,1.0,5.0,0.0,0.0,2.0,1.0,phase_2,stop,300.0,250.0,4.0,,,,,,,,,cyan,cross
0.0,2.0,1.0,0.0,6.0,6.0,569.3513910000547,2.0,1.0,phase_2,go,350.0,250.0,1.0,,,,,,,,,gray,circle
0.0,6.0,1.0,1.0,5.0,0.0,0.0,2.0,1.0,phase_2,stop,350.0,250.0,4.0,,,,,,,,,blue,square
0.0,5.0,0.5,1.0,6.0,0.0,0.0,2.0,1.0,phase_2,stop,400.0,250.0,4.0,,,,,,,,,yellow,triangle
0.0,6.0,1.0,1.0,6.0,0.0,0.0,2.0,1.0,phase_2,stop,400.0,300.0,4.0,,,,,,,,,blue,square
0.0,4.0,4.0,0.0,5.0,5.0,652.95065600003,2.0,1.0,phase_2,go,400.0,350.0,1.0,,,,,,,,,green,diamond
0.0,8.0,4.0,1.0,5.0,5.0,512.0769280001696,2.0,1.0,phase_2,stop,400.0,350.0,3.0,,,,,,,,,cyan,cross
0.0,6.0,1.0,1.0,5.0,0.0,0.0,2.0,1.0,phase_2,stop,350.0,350.0,4.0,,,,,,,,,blue,square
0.0,3.0,2.0,0.0,6.0,6.0,752.0928100002493,2.0,1.0,phase_2,go,400.0,350.0,1.0,,,,,,,,,white,flipped triangle
0.0,3.0,2.0,0.0,5.0,5.0,625.6236599997465,2.0,1.0,phase_2,go,400.0,350.0,1.0,,,,,,,,,white,flipped triangle
0.0,1.0,0.5,0.0,5.0,5.0,559.5250910000686,2.0,1.0,phase_2,go,400.0,350.0,1.0,,,,,,,,,magenta,hexagon
0.0,4.0,4.0,0.0,6.0,6.0,419.7074120002071,2.0,1.0,phase_2,go,400.0,350.0,1.0,,,,,,,,,green,diamond
0.0,7.0,2.0,1.0,5.0,5.0,552.6036020000902,2.0,1.0,phase_2,stop,400.0,350.0,3.0,,,,,,,,,orange,I
0.0,8.0,4.0,1.0,5.0,5.0,753.5938050000368,2.0,1.0,phase_2,go,350.0,350.0,1.0,,,,,,,,,cyan,cross
0.0,1.0,0.5,0.0,6.0,6.0,279.498316000172,2.0,1.0,phase_2,go,350.0,350.0,1.0,,,,,,,,,magenta,hexagon
0.0,5.0,0.5,1.0,6.0,0.0,0.0,2.0,1.0,phase_2,stop,350.0,350.0,4.0,,,,,,,,,yellow,triangle
0.0,6.0,1.0,1.0,5.0,0.0,0.0,2.0,1.0,phase_2,stop,350.0,400.0,4.0,,,,,,,,,blue,square
0.0,1.0,0.5,0.0,6.0,6.0,781.7673889999242,2.0,1.0,phase_2,go,400.0,400.0,1.0,,,,,,,,,magenta,hexagon
0.0,8.0,4.0,1.0,6.0,0.0,0.0,2.0,1.0,phase_2,stop,400.0,400.0,4.0,,,,,,,,,cyan,cross
0.0,8.0,4.0,1.0,5.0,0.0,0.0,2.0,1.0,phase_2,stop,400.0,450.0,4.0,,,,,,,,,cyan,cross
0.0,8.0,4.0,1.0,6.0,0.0,0.0,2.0,1.0,phase_2,stop,450.0,450.0,4.0,,,,,,,,,cyan,cross
0.0,7.0,2.0,1.0,6.0,6.0,489.1416410000602,2.0,1.0,phase_2,go,450.0,500.0,1.0,,,,,,,,,orange,I
0.0,6.0,1.0,1.0,6.0,6.0,681.828183000107,2.0,1.0,phase_2,go,450.0,500.0,1.0,,,,,,,,,blue,square
0.0,6.0,1.0,1.0,6.0,6.0,447.3700070002451,2.0,1.0,phase_2,stop,450.0,500.0,3.0,,,,,,,,,blue,square
0.0,6.0,1.0,1.0,6.0,6.0,709.3941729999642,2.0,1.0,phase_2,go,450.0,450.0,1.0,,,,,,,,,blue,square
0.0,2.0,1.0,0.0,6.0,6.0,521.3716130001558,2.0,1.0,phase_2,go,450.0,450.0,1.0,,,,,,,,,gray,circle
0.0,7.0,2.0,1.0,6.0,6.0,363.7089769999875,2.0,1.0,phase_2,stop,450.0,450.0,3.0,,,,,,,,,orange,I
0.0,4.0,4.0,0.0,6.0,6.0,410.7995260001189,3.0,1.0,phase_2,go,450.0,400.0,1.0,,,,,,,,,green,diamond
0.0,1.0,0.5,0.0,6.0,6.0,290.0074460003452,3.0,1.0,phase_2,go,450.0,400.0,1.0,,,,,,,,,magenta,hexagon
0.0,3.0,2.0,0.0,6.0,6.0,372.3591600000873,3.0,1.0,phase_2,go,450.0,400.0,1.0,,,,,,,,,white,flipped triangle
0.0,3.0,2.0,0.0,6.0,6.0,419.9011319997225,3.0,1.0,phase_2,go,450.0,400.0,1.0,,,,,,,,,white,flipped triangle
0.0,8.0,4.0,1.0,6.0,0.0,0.0,3.0,1.0,phase_2,stop,450.0,400.0,4.0,,,,,,,,,cyan,cross
0.0,5.0,0.5,1.0,5.0,5.0,637.2168600000805,3.0,1.0,phase_2,stop,450.0,450.0,3.0,,,,,,,,,yellow,triangle
0.0,6.0,1.0,1.0,5.0,5.0,706.7951930002891,3.0,1.0,phase_2,go,400.0,450.0,1.0,,,,,,,,,blue,square
0.0,2.0,1.0,0.0,6.0,6.0,642.1755239998674,3.0,1.0,phase_2,go,400.0,450.0,1.0,,,,,,,,,gray,circle
0.0,6.0,1.0,1.0,5.0,5.0,588.1017730007443,3.0,1.0,phase_2,go,400.0,450.0,1.0,,,,,,,,,blue,square
0.0,8.0,4.0,1.0,5.0,5.0,549.7771539994574,3.0,1.0,phase_2,go,400.0,450.0,1.0,,,,,,,,,cyan,cross
0.0,4.0,4.0,0.0,5.0,5.0,670.3507940001145,3.0,1.0,phase_2,go,400.0,450.0,1.0,,,,,,,,,green,diamond
0.0,2.0,1.0,0.0,6.0,6.0,336.9969189998301,3.0,1.0,phase_2,go,400.0,450.0,1.0,,,,,,,,,gray,circle
0.0,3.0,2.0,0.0,6.0,6.0,344.2134420001821,3.0,1.0,phase_2,go,400.0,450.0,1.0,,,,,,,,,white,flipped triangle
0.0,7.0,2.0,1.0,6.0,6.0,439.1579579996687,3.0,1.0,phase_2,stop,400.0,450.0,3.0,,,,,,,,,orange,I
0.0,1.0,0.5,0.0,5.0,5.0,782.3502040000676,3.0,1.0,phase_2,go,400.0,400.0,1.0,,,,,,,,,magenta,hexagon
0.0,3.0,2.0,0.0,5.0,5.0,607.9163150006934,3.0,1.0,phase_2,go,400.0,400.0,1.0,,,,,,,,,white,flipped triangle
0.0,5.0,0.5,1.0,5.0,0.0,0.0,3.0,1.0,phase_2,stop,400.0,400.0,4.0,,,,,,,,,yellow,triangle
0.0,8.0,4.0,1.0,6.0,6.0,372.7836779999052,3.0,1.0,phase_2,stop,450.0,400.0,3.0,,,,,,,,,cyan,cross
0.0,2.0,1.0,0.0,5.0,5.0,318.9426630005982,3.0,1.0,phase_2,go,450.0,350.0,1.0,,,,,,,,,gray,circle
0.0,1.0,0.5,0.0,5.0,5.0,476.7374180000843,3.0,1.0,phase_2,go,450.0,350.0,1.0,,,,,,,,,magenta,hexagon
0.0,7.0,2.0,1.0,5.0,5.0,410.5110509999576,3.0,1.0,phase_2,stop,450.0,350.0,3.0,,,,,,,,,orange,I
0.0,5.0,0.5,1.0,6.0,0.0,0.0,3.0,1.0,phase_2,stop,400.0,350.0,4.0,,,,,,,,,yellow,triangle
0.0,3.0,2.0,0.0,5.0,5.0,615.299332000177,3.0,1.0,phase_2,go,400.0,400.0,1.0,,,,,,,,,white,flipped triangle
0.0,7.0,2.0,1.0,6.0,6.0,411.4924020004764,3.0,1.0,phase_2,go,400.0,400.0,1.0,,,,,,,,,orange,I
0.0,4.0,4.0,0.0,5.0,5.0,786.2419109997063,3.0,1.0,phase_2,go,400.0,400.0,1.0,,,,,,,,,green,diamond
0.0,8.0,4.0,1.0,6.0,6.0,364.5860260003246,3.0,1.0,phase_2,stop,400.0,400.0,3.0,,,,,,,,,cyan,cross
0.0,5.0,0.5,1.0,5.0,5.0,598.3774159994937,3.0,1.0,phase_2,go,400.0,350.0,1.0,,,,,,,,,yellow,triangle
0.0,6.0,1.0,1.0,5.0,0.0,0.0,3.0,1.0,phase_2,stop,400.0,350.0,4.0,,,,,,,,,blue,square
0.0,8.0,4.0,1.0,5.0,5.0,489.1642800002955,3.0,1.0,phase_2,stop,450.0,350.0,3.0,,,,,,,,,cyan,cross
0.0,8.0,4.0,1.0,6.0,6.0,388.5468910002601,3.0,1.0,phase_2,stop,400.0,350.0,3.0,,,,,,,,,cyan,cross
0.0,2.0,1.0,0.0,6.0,6.0,611.623951999718,3.0,1.0,phase_2,go,400.0,300.0,1.0,,,,,,,,,gray,circle
0.0,1.0,0.5,0.0,5.0,5.0,355.6625259998327,3.0,1.0,phase_2,go,400.0,300.0,1.0,,,,,,,,,magenta,hexagon
0.0,5.0,0.5,1.0,5.0,5.0,354.664070000581,3.0,1.0,phase_2,stop,400.0,300.0,3.0,,,,,,,,,yellow,triangle
0.0,6.0,1.0,1.0,5.0,5.0,849.1337340001337,3.0,1.0,phase_2,go,350.0,300.0,1.0,,,,,,,,,blue,square
0.0,1.0,0.5,0.0,6.0,6.0,690.2259560001767,3.0,1.0,phase_2,go,350.0,300.0,1.0,,,,,,,,,magenta,hexagon
0.0,2.0,1.0,0.0,5.0,5.0,643.985955000062,3.0,1.0,phase_2,go,350.0,300.0,1.0,,,,,,,,,gray,circle
0.0,1.0,0.5,0.0,6.0,6.0,374.6396919996186,4.0,1.0,phase_2,go,350.0,300.0,1.0,,,,,,,,,magenta,hexagon
0.0,1.0,0.5,0.0,6.0,6.0,487.5924520001717,4.0,1.0,phase_2,go,350.0,300.0,1.0,,,,,,,,,magenta,hexagon
0.0,7.0,2.0,1.0,5.0,5.0,395.6765140001153,4.0,1.0,phase_2,stop,350.0,300.0,3.0,,,,,,,,,orange,I
0.0,8.0,4.0,1.0,5.0,5.0,588.2325299999138,4.0,1.0,phase_2,go,300.0,300.0,1.0,,,,,,,,,cyan,cross
0.0,8.0,4.0,1.0,5.0,5.0,540.357335000408,4.0,1.0,phase_2,go,300.0,300.0,1.0,,,,,,,,,cyan,cross
0.0,4.0,4.0,0.0,5.0,5.0,328.1490500003201,4.0,1.0,phase_2,go,300.0,300.0,1.0,,,,,,,,,green,diamond
0.0,4.0,4.0,0.0,6.0,6.0,641.7776749995028,4.0,1.0,phase_2,go,300.0,300.0,1.0,,,,,,,,,green,diamond
0.0,5.0,0.5,1.0,5.0,0.0,0.0,4.0,1.0,phase_2,stop,300.0,300.0,4.0,,,,,,,,,yellow,triangle
0.0,8.0,4.0,1.0,5.0,0.0,0.0,4.0,1.0,phase_2,stop,350.0,300.0,4.0,,,,,,,,,cyan,cross
0.0,2.0,1.0,0.0,5.0,5.0,623.2978509997338,4.0,1.0,phase_2,go,400.0,300.0,1.0,,,,,,,,,gray,circle
0.0,4.0,4.0,0.0,5.0,5.0,690.3007949995299,4.0,1.0,phase_2,go,400.0,300.0,1.0,,,,,,,,,green,diamond
0.0,6.0,1.0,1.0,6.0,0.0,0.0,4.0,1.0,phase_2,stop,400.0,300.0,4.0,,,,,,,,,blue,square
0.0,7.0,2.0,1.0,6.0,0.0,0.0,4.0,1.0,phase_2,stop,400.0,350.0,4.0,,,,,,,,,orange,I
0.0,5.0,0.5,1.0,5.0,5.0,553.5364769993976,4.0,1.0,phase_2,stop,400.0,400.0,3.0,,,,,,,,,yellow,triangle
0.0,2.0,1.0,0.0,6.0,6.0,652.1934330003205,4.0,1.0,phase_2,go,350.0,400.0,1.0,,,,,,,,,gray,circle
0.0,5.0,0.5,1.0,6.0,6.0,362.3850710000624,4.0,1.0,phase_2,stop,350.0,400.0,3.0,,,,,,,,,yellow,triangle
0.0,7.0,2.0,1.0,5.0,0.0,0.0,4.0,1.0,phase_2,stop,350.0,350.0,4.0,,,,,,,,,orange,I
0.0,3.0,2.0,0.0,5.0,5.0,1305.9433469998112,4.0,1.0,phase_2,go,400.0,350.0,1.0,,,,,,,,,white,flipped triangle
0.0,2.0,1.0,0.0,5.0,5.0,411.6485360000297,4.0,1.0,phase_2,go,400.0,350.0,1.0,,,,,,,,,gray,circle
0.0,1.0,0.5,0.0,5.0,5.0,363.0784550005046,4.0,1.0,phase_2,go,400.0,350.0,1.0,,,,,,,,,magenta,hexagon
0.0,6.0,1.0,1.0,6.0,6.0,308.5441659995922,4.0,1.0,phase_2,stop,400.0,350.0,3.0,,,,,,,,,blue,square
0.0,4.0,4.0,0.0,5.0,5.0,335.5046910000965,4.0,1.0,phase_2,go,400.0,300.0,1.0,,,,,,,,,green,diamond
0.0,6.0,1.0,1.0,5.0,5.0,501.9197929996153,4.0,1.0,phase_2,stop,400.0,300.0,3.0,,,,,,,,,blue,square
0.0,5.0,0.5,1.0,6.0,0.0,0.0,4.0,1.0,phase_2,stop,350.0,300.0,4.0,,,,,,,,,yellow,triangle
0.0,3.0,2.0,0.0,5.0,5.0,680.4312959993695,4.0,1.0,phase_2,go,350.0,350.0,1.0,,,,,,,,,white,flipped triangle
0.0,5.0,0.5,1.0,5.0,5.0,366.0998060004203,4.0,1.0,phase_2,go,350.0,350.0,1.0,,,,,,,,,yellow,triangle
0.0,5.0,0.5,1.0,6.0,0.0,0.0,4.0,1.0,phase_2,stop,350.0,350.0,4.0,,,,,,,,,yellow,triangle
0.0,6.0,1.0,1.0,6.0,0.0,0.0,4.0,1.0,phase_2,stop,350.0,400.0,4.0,,,,,,,,,blue,square
0.0,2.0,1.0,0.0,5.0,5.0,512.1913909997602,4.0,1.0,phase_2,go,350.0,450.0,1.0,,,,,,,,,gray,circle
0.0,8.0,4.0,1.0,5.0,0.0,0.0,4.0,1.0,phase_2,stop,350.0,450.0,4.0,,,,,,,,,cyan,cross
0.0,5.0,0.5,1.0,6.0,0.0,0.0,4.0,1.0,phase_2,stop,400.0,450.0,4.0,,,,,,,,,yellow,triangle
0.0,3.0,2.0,0.0,5.0,5.0,597.7875420003329,4.0,1.0,phase_2,go,400.0,500.0,1.0,,,,,,,,,white,flipped triangle
0.0,5.0,0.5,1.0,6.0,0.0,0.0,4.0,1.0,phase_2,stop,400.0,500.0,4.0,,,,,,,,,yellow,triangle
0.0,2.0,1.0,0.0,6.0,6.0,660.5226869996841,4.0,1.0,phase_2,go,400.0,550.0,1.0,,,,,,,,,gray,circle
0.0,5.0,0.5,1.0,6.0,6.0,586.709060999965,4.0,1.0,phase_2,go,400.0,550.0,1.0,,,,,,,,,yellow,triangle
0.0,4.0,4.0,0.0,6.0,6.0,831.6764029996193,4.0,1.0,phase_2,go,400.0,550.0,1.0,,,,,,,,,green,diamond
0.0,6.0,1.0,1.0,5.0,5.0,440.983846000563,5.0,1.0,phase_2,stop,400.0,550.0,3.0,,,,,,,,,blue,square
0.0,4.0,4.0,0.0,6.0,6.0,559.2643180007144,5.0,1.0,phase_2,go,350.0,550.0,1.0,,,,,,,,,green,diamond
0.0,2.0,1.0,0.0,5.0,5.0,606.3460979994488,5.0,1.0,phase_2,go,350.0,550.0,1.0,,,,,,,,,gray,circle
0.0,4.0,4.0,0.0,5.0,5.0,660.6923360004657,5.0,1.0,phase_2,go,350.0,550.0,1.0,,,,,,,,,green,diamond
0.0,8.0,4.0,1.0,6.0,6.0,624.3158279994532,5.0,1.0,phase_2,stop,350.0,550.0,3.0,,,,,,,,,cyan,cross
0.0,6.0,1.0,1.0,6.0,0.0,0.0,5.0,1.0,phase_2,stop,350.0,500.0,4.0,,,,,,,,,blue,square
0.0,3.0,2.0,0.0,6.0,6.0,642.9449539991765,5.0,1.0,phase_2,go,350.0,550.0,1.0,,,,,,,,,white,flipped triangle
0.0,7.0,2.0,1.0,6.0,6.0,726.5068230008183,5.0,1.0,phase_2,stop,350.0,550.0,3.0,,,,,,,,,orange,I
0.0,4.0,4.0,0.0,6.0,6.0,781.0215440003958,5.0,1.0,phase_2,go,350.0,500.0,1.0,,,,,,,,,green,diamond
0.0,4.0,4.0,0.0,5.0,5.0,763.2298469998204,5.0,1.0,phase_2,go,350.0,500.0,1.0,,,,,,,,,green,diamond
0.0,5.0,0.5,1.0,6.0,6.0,691.4256919999389,5.0,1.0,phase_2,stop,350.0,500.0,3.0,,,,,,,,,yellow,triangle
0.0,3.0,2.0,0.0,5.0,5.0,838.4309659995779,5.0,1.0,phase_2,go,350.0,450.0,1.0,,,,,,,,,white,flipped triangle
0.0,1.0,0.5,0.0,5.0,5.0,631.5876220005521,5.0,1.0,phase_2,go,350.0,450.0,1.0,,,,,,,,,magenta,hexagon
0.0,7.0,2.0,1.0,5.0,0.0,0.0,5.0,1.0,phase_2,stop,350.0,450.0,4.0,,,,,,,,,orange,I
0.0,3.0,2.0,0.0,5.0,5.0,755.5099259998315,5.0,1.0,phase_2,go,400.0,450.0,1.0,,,,,,,,,white,flipped triangle
0.0,3.0,2.0,0.0,6.0,6.0,428.7791389997437,5.0,1.0,phase_2,go,400.0,450.0,1.0,,,,,,,,,white,flipped triangle
0.0,1.0,0.5,0.0,6.0,6.0,779.1642880001746,5.0,1.0,phase_2,go,400.0,450.0,1.0,,,,,,,,,magenta,hexagon
0.0,7.0,2.0,1.0,5.0,0.0,0.0,5.0,1.0,phase_2,stop,400.0,450.0,4.0,,,,,,,,,orange,I
0.0,6.0,1.0,1.0,6.0,0.0,0.0,5.0,1.0,phase_2,stop,450.0,450.0,4.0,,,,,,,,,blue,square
0.0,7.0,2.0,1.0,5.0,5.0,746.2922799995795,5.0,1.0,phase_2,go,450.0,500.0,1.0,,,,,,,,,orange,I
0.0,7.0,2.0,1.0,6.0,6.0,678.6473389993262,5.0,1.0,phase_2,go,450.0,500.0,1.0,,,,,,,,,orange,I
0.0,2.0,1.0,0.0,5.0,5.0,699.7238799995102,5.0,1.0,phase_2,go,450.0,500.0,1.0,,,,,,,,,gray,circle
0.0,4.0,4.0,0.0,6.0,6.0,755.4764619999332,5.0,1.0,phase_2,go,450.0,500.0,1.0,,,,,,,,,green,diamond
0.0,5.0,0.5,1.0,6.0,6.0,389.2054739999366,5.0,1.0,phase_2,go,450.0,500.0,1.0,,,,,,,,,yellow,triangle
0.0,7.0,2.0,1.0,5.0,5.0,776.8601300003866,5.0,1.0,phase_2,go,450.0,500.0,1.0,,,,,,,,,orange,I
0.0,5.0,0.5,1.0,5.0,5.0,375.1640609998503,5.0,1.0,phase_2,stop,450.0,500.0,3.0,,,,,,,,,yellow,triangle
0.0,4.0,4.0,0.0,5.0,5.0,642.7366919997439,5.0,1.0,phase_2,go,400.0,500.0,1.0,,,,,,,,,green,diamond
0.0,1.0,0.5,0.0,5.0,5.0,753.8385130001188,5.0,1.0,phase_2,go,400.0,500.0,1.0,,,,,,,,,magenta,hexagon
0.0,4.0,4.0,0.0,6.0,6.0,810.7923369998389,5.0,1.0,phase_2,go,400.0,500.0,1.0,,,,,,,,,green,diamond
0.0,8.0,4.0,1.0,6.0,0.0,0.0,5.0,1.0,phase_2,stop,400.0,500.0,4.0,,,,,,,,,cyan,cross
0.0,6.0,1.0,1.0,6.0,6.0,736.9578199995885,5.0,1.0,phase_2,go,400.0,550.0,1.0,,,,,,,,,blue,square
0.0,2.0,1.0,0.0,5.0,5.0,755.3906439998173,5.0,1.0,phase_2,go,400.0,550.0,1.0,,,,,,,,,gray,circle
0.0,8.0,4.0,1.0,5.0,0.0,0.0,5.0,1.0,phase_2,stop,400.0,550.0,4.0,,,,,,,,,cyan,cross
0.0,5.0,0.5,1.0,5.0,5.0,800.0318979993608,5.0,1.0,phase_2,go,450.0,550.0,1.0,,,,,,,,,yellow,triangle
0.0,8.0,4.0,1.0,6.0,0.0,0.0,5.0,1.0,phase_2,stop,450.0,550.0,4.0,,,,,,,,,cyan,cross
0.0,7.0,2.0,1.0,6.0,6.0,749.3812820002859,5.0,1.0,phase_2,stop,450.0,600.0,3.0,,,,,,,,,orange,I
0.0,1.0,0.5,0.0,6.0,6.0,347.5752510003076,6.0,1.0,phase_2,go,450.0,550.0,1.0,,,,,,,,,magenta,hexagon
0.0,1.0,0.5,0.0,5.0,5.0,476.6521980000107,6.0,1.0,phase_2,go,450.0,550.0,1.0,,,,,,,,,magenta,hexagon
0.0,4.0,4.0,0.0,6.0,6.0,662.642405999577,6.0,1.0,phase_2,go,450.0,550.0,1.0,,,,,,,,,green,diamond
0.0,6.0,1.0,1.0,6.0,6.0,632.6149790002091,6.0,1.0,phase_2,go,450.0,550.0,1.0,,,,,,,,,blue,square
0.0,8.0,4.0,1.0,5.0,0.0,0.0,6.0,1.0,phase_2,stop,450.0,550.0,4.0,,,,,,,,,cyan,cross
0.0,4.0,4.0,0.0,6.0,6.0,729.4338300007439,6.0,1.0,phase_2,go,500.0,550.0,1.0,,,,,,,,,green,diamond
0.0,5.0,0.5,1.0,6.0,6.0,587.8050989995245,6.0,1.0,phase_2,stop,500.0,550.0,3.0,,,,,,,,,yellow,triangle
0.0,1.0,0.5,0.0,5.0,5.0,737.1968620000189,6.0,1.0,phase_2,go,500.0,500.0,1.0,,,,,,,,,magenta,hexagon
0.0,1.0,0.5,0.0,5.0,5.0,754.7402170002897,6.0,1.0,phase_2,go,500.0,500.0,1.0,,,,,,,,,magenta,hexagon
0.0,3.0,2.0,0.0,6.0,6.0,709.9609589995453,6.0,1.0,phase_2,go,500.0,500.0,1.0,,,,,,,,,white,flipped triangle
0.0,3.0,2.0,0.0,5.0,5.0,614.6671530004824,6.0,1.0,phase_2,go,500.0,500.0,1.0,,,,,,,,,white,flipped triangle
0.0,4.0,4.0,0.0,5.0,5.0,727.1652110002833,6.0,1.0,phase_2,go,500.0,500.0,1.0,,,,,,,,,green,diamond
0.0,7.0,2.0,1.0,6.0,6.0,733.2017039998391,6.0,1.0,phase_2,stop,500.0,500.0,3.0,,,,,,,,,orange,I
0.0,6.0,1.0,1.0,5.0,5.0,653.7756030002129,6.0,1.0,phase_2,go,500.0,450.0,1.0,,,,,,,,,blue,square
0.0,7.0,2.0,1.0,6.0,0.0,0.0,6.0,1.0,phase_2,stop,500.0,450.0,4.0,,,,,,,,,orange,I
0.0,6.0,1.0,1.0,5.0,5.0,669.1510700002254,6.0,1.0,phase_2,stop,500.0,500.0,3.0,,,,,,,,,blue,square
0.0,5.0,0.5,1.0,5.0,5.0,776.4308539999547,6.0,1.0,phase_2,go,450.0,500.0,1.0,,,,,,,,,yellow,triangle
0.0,3.0,2.0,0.0,6.0,6.0,774.9035909992017,6.0,1.0,phase_2,go,450.0,500.0,1.0,,,,,,,,,white,flipped triangle
0.0,5.0,0.5,1.0,6.0,6.0,731.039342999793,6.0,1.0,phase_2,stop,450.0,500.0,3.0,,,,,,,,,yellow,triangle
0.0,2.0,1.0,0.0,6.0,6.0,691.1343579995446,6.0,1.0,phase_2,go,450.0,450.0,1.0,,,,,,,,,gray,circle
0.0,5.0,0.5,1.0,5.0,5.0,335.9704229997078,6.0,1.0,phase_2,stop,450.0,450.0,3.0,,,,,,,,,yellow,triangle
0.0,8.0,4.0,1.0,6.0,6.0,692.4434800002928,6.0,1.0,phase_2,stop,400.0,450.0,3.0,,,,,,,,,cyan,cross
0.0,5.0,0.5,1.0,6.0,0.0,0.0,6.0,1.0,phase_2,stop,400.0,400.0,4.0,,,,,,,,,yellow,triangle
0.0,3.0,2.0,0.0,6.0,6.0,747.2521330000745,6.0,1.0,phase_2,go,400.0,450.0,1.0,,,,,,,,,white,flipped triangle
0.0,6.0,1.0,1.0,5.0,0.0,0.0,6.0,1.0,phase_2,stop,400.0,450.0,4.0,,,,,,,,,blue,square
0.0,3.0,2.0,0.0,5.0,5.0,681.1965429997144,6.0,1.0,phase_2,go,450.0,450.0,1.0,,,,,,,,,white,flipped triangle
0.0,2.0,1.0,0.0,6.0,6.0,792.4713309994331,6.0,1.0,phase_2,go,450.0,450.0,1.0,,,,,,,,,gray,circle
0.0,5.0,0.5,1.0,6.0,6.0,728.8328249996994,6.0,1.0,phase_2,go,450.0,450.0,1.0,,,,,,,,,yellow,triangle
0.0,3.0,2.0,0.0,6.0,6.0,744.9777390002055,6.0,1.0,phase_2,go,450.0,450.0,1.0,,,,,,,,,white,flipped triangle
0.0,8.0,4.0,1.0,6.0,0.0,0.0,6.0,1.0,phase_2,stop,450.0,450.0,4.0,,,,,,,,,cyan,cross
0.0,6.0,1.0,1.0,5.0,0.0,0.0,6.0,1.0,phase_2,stop,450.0,500.0,4.0,,,,,,,,,blue,square
0.0,2.0,1.0,0.0,6.0,6.0,747.7342590000262,6.0,1.0,phase_2,go,500.0,500.0,1.0,,,,,,,,,gray,circle
0.0,1.0,0.5,0.0,6.0,6.0,728.7753549999252,6.0,1.0,phase_2,go,500.0,500.0,1.0,,,,,,,,,magenta,hexagon
0.0,5.0,0.5,1.0,5.0,5.0,637.1113799996238,6.0,1.0,phase_2,stop,500.0,500.0,3.0,,,,,,,,,yellow,triangle
0.0,3.0,2.0,0.0,5.0,5.0,411.0365590004221,6.0,1.0,phase_2,go,450.0,500.0,1.0,,,,,,,,,white,flipped triangle
0.0,2.0,1.0,0.0,6.0,6.0,307.5425839997479,6.0,1.0,phase_2,go,450.0,500.0,1.0,,,,,,,,,gray,circle
0.0,6.0,1.0,1.0,5.0,5.0,513.6518760000399,7.0,1.0,phase_2,stop,450.0,500.0,3.0,,,,,,,,,blue,square
0.0,2.0,1.0,0.0,6.0,6.0,410.8732720005719,7.0,1.0,phase_2,go,400.0,500.0,1.0,,,,,,,,,gray,circle
0.0,3.0,2.0,0.0,5.0,5.0,549.9838310006453,7.0,1.0,phase_2,go,400.0,500.0,1.0,,,,,,,,,white,flipped triangle
0.0,6.0,1.0,1.0,5.0,5.0,580.5316940004559,7.0,1.0,phase_2,stop,400.0,500.0,3.0,,,,,,,,,blue,square
0.0,5.0,0.5,1.0,6.0,6.0,393.6934860003021,7.0,1.0,phase_2,go,350.0,500.0,1.0,,,,,,,,,yellow,triangle
0.0,5.0,0.5,1.0,6.0,0.0,0.0,7.0,1.0,phase_2,stop,350.0,500.0,4.0,,,,,,,,,yellow,triangle
0.0,6.0,1.0,1.0,6.0,0.0,0.0,7.0,1.0,phase_2,stop,350.0,550.0,4.0,,,,,,,,,blue,square
0.0,3.0,2.0,0.0,5.0,5.0,364.361965000171,7.0,1.0,phase_2,go,350.0,600.0,1.0,,,,,,,,,white,flipped triangle
0.0,4.0,4.0,0.0,6.0,6.0,336.3811380004335,7.0,1.0,phase_2,go,350.0,600.0,1.0,,,,,,,,,green,diamond
0.0,4.0,4.0,0.0,6.0,6.0,346.0249740001018,7.0,1.0,phase_2,go,350.0,600.0,1.0,,,,,,,,,green,diamond
0.0,8.0,4.0,1.0,6.0,6.0,776.9538969996574,7.0,1.0,phase_2,go,350.0,600.0,1.0,,,,,,,,,cyan,cross
0.0,6.0,1.0,1.0,5.0,0.0,0.0,7.0,1.0,phase_2,stop,350.0,600.0,4.0,,,,,,,,,blue,square
0.0,2.0,1.0,0.0,5.0,5.0,659.192123000139,7.0,1.0,phase_2,go,400.0,600.0,1.0,,,,,,,,,gray,circle
0.0,7.0,2.0,1.0,5.0,5.0,492.1810969999569,7.0,1.0,phase_2,stop,400.0,600.0,3.0,,,,,,,,,orange,I
0.0,2.0,1.0,0.0,5.0,5.0,677.3262289998456,7.0,1.0,phase_2,go,350.0,600.0,1.0,,,,,,,,,gray,circle
0.0,2.0,1.0,0.0,6.0,6.0,533.9068719995339,7.0,1.0,phase_2,go,350.0,600.0,1.0,,,,,,,,,gray,circle
0.0,8.0,4.0,1.0,5.0,5.0,617.2712730003695,7.0,1.0,phase_2,go,350.0,600.0,1.0,,,,,,,,,cyan,cross
0.0,7.0,2.0,1.0,5.0,0.0,0.0,7.0,1.0,phase_2,stop,350.0,600.0,4.0,,,,,,,,,orange,I
0.0,3.0,2.0,0.0,6.0,6.0,565.8703230001265,7.0,1.0,phase_2,go,400.0,600.0,1.0,,,,,,,,,white,flipped triangle
0.0,7.0,2.0,1.0,5.0,0.0,0.0,7.0,1.0,phase_2,stop,400.0,600.0,4.0,,,,,,,,,orange,I
0.0,2.0,1.0,0.0,5.0,5.0,673.9965789993221,7.0,1.0,phase_2,go,450.0,600.0,1.0,,,,,,,,,gray,circle
0.0,8.0,4.0,1.0,6.0,6.0,703.3918910001375,7.0,1.0,phase_2,stop,450.0,600.0,3.0,,,,,,,,,cyan,cross
0.0,7.0,2.0,1.0,5.0,5.0,363.2511139994676,7.0,1.0,phase_2,stop,450.0,550.0,3.0,,,,,,,,,orange,I
0.0,1.0,0.5,0.0,5.0,5.0,674.3171600001006,7.0,1.0,phase_2,go,400.0,550.0,1.0,,,,,,,,,magenta,hexagon
0.0,4.0,4.0,0.0,5.0,5.0,521.9772070004183,7.0,1.0,phase_2,go,400.0,550.0,1.0,,,,,,,,,green,diamond
0.0,7.0,2.0,1.0,6.0,6.0,399.705169000299,7.0,1.0,phase_2,stop,400.0,550.0,3.0,,,,,,,,,orange,I
0.0,8.0,4.0,1.0,6.0,6.0,799.4895120000365,7.0,1.0,phase_2,go,400.0,500.0,1.0,,,,,,,,,cyan,cross
0.0,1.0,0.5,0.0,5.0,5.0,623.0454779997672,7.0,1.0,phase_2,go,400.0,500.0,1.0,,,,,,,,,magenta,hexagon
0.0,7.0,2.0,1.0,5.0,0.0,0.0,7.0,1.0,phase_2,stop,400.0,500.0,4.0,,,,,,,,,orange,I
0.0,3.0,2.0,0.0,5.0,5.0,760.9937030001674,7.0,1.0,phase_2,go,450.0,500.0,1.0,,,,,,,,,white,flipped triangle
0.0,6.0,1.0,1.0,6.0,0.0,0.0,7.0,1.0,phase_2,stop,450.0,500.0,4.0,,,,,,,,,blue,square
0.0,1.0,0.5,0.0,6.0,6.0,594.3585400000302,7.0,1.0,phase_2,go,450.0,550.0,1.0,,,,,,,,,magenta,hexagon
0.0,2.0,1.0,0.0,6.0,6.0,707.6358360000086,7.0,1.0,phase_2,go,450.0,550.0,1.0,,,,,,,,,gray,circle
0.0,5.0,0.5,1.0,5.0,0.0,0.0,7.0,1.0,phase_2,stop,450.0,550.0,4.0,,,,,,,,,yellow,triangle
0.0,4.0,4.0,0.0,5.0,5.0,650.0168450002093,7.0,1.0,phase_2,go,500.0,550.0,1.0,,,,,,,,,green,diamond
0.0,2.0,1.0,0.0,5.0,5.0,375.0439120003648,7.0,1.0,phase_2,go,500.0,550.0,1.0,,,,,,,,,gray,circle
0.0,1.0,0.5,0.0,6.0,6.0,307.5563160000456,8.0,1.0,phase_2,go,500.0,550.0,1.0,,,,,,,,,magenta,hexagon
0.0,1.0,0.5,0.0,6.0,6.0,605.5750699997589,8.0,1.0,phase_2,go,500.0,550.0,1.0,,,,,,,,,magenta,hexagon
0.0,1.0,0.5,0.0,5.0,5.0,507.34094600011304,8.0,1.0,phase_2,go,500.0,550.0,1.0,,,,,,,,,magenta,hexagon
0.0,7.0,2.0,1.0,6.0,6.0,601.4137180000034,8.0,1.0,phase_2,stop,500.0,550.0,3.0,,,,,,,,,orange,I
0.0,2.0,1.0,0.0,5.0,5.0,670.1826959997561,8.0,1.0,phase_2,go,500.0,500.0,1.0,,,,,,,,,gray,circle
0.0,8.0,4.0,1.0,6.0,6.0,548.6430559994915,8.0,1.0,phase_2,stop,500.0,500.0,3.0,,,,,,,,,cyan,cross
0.0,2.0,1.0,0.0,6.0,6.0,436.3946129997202,8.0,1.0,phase_2,go,500.0,450.0,1.0,,,,,,,,,gray,circle
0.0,4.0,4.0,0.0,5.0,5.0,502.5341259997731,8.0,1.0,phase_2,go,500.0,450.0,1.0,,,,,,,,,green,diamond
0.0,2.0,1.0,0.0,5.0,5.0,439.1811380000945,8.0,1.0,phase_2,go,500.0,450.0,1.0,,,,,,,,,gray,circle
0.0,1.0,0.5,0.0,6.0,6.0,550.476247000006,8.0,1.0,phase_2,go,500.0,450.0,1.0,,,,,,,,,magenta,hexagon
0.0,4.0,4.0,0.0,6.0,6.0,644.0867680003066,8.0,1.0,phase_2,go,500.0,450.0,1.0,,,,,,,,,green,diamond
0.0,4.0,4.0,0.0,6.0,6.0,419.312044000435,8.0,1.0,phase_2,go,500.0,450.0,1.0,,,,,,,,,green,diamond
0.0,4.0,4.0,0.0,5.0,5.0,737.9376729995784,8.0,1.0,phase_2,go,500.0,450.0,1.0,,,,,,,,,green,diamond
0.0,8.0,4.0,1.0,5.0,0.0,0.0,8.0,1.0,phase_2,stop,500.0,450.0,4.0,,,,,,,,,cyan,cross
0.0,4.0,4.0,0.0,6.0,6.0,363.7911719997646,8.0,1.0,phase_2,go,550.0,450.0,1.0,,,,,,,,,green,diamond
0.0,6.0,1.0,1.0,5.0,5.0,334.7759279995443,8.0,1.0,phase_2,stop,550.0,450.0,3.0,,,,,,,,,blue,square
0.0,6.0,1.0,1.0,5.0,5.0,748.6799609996524,8.0,1.0,phase_2,stop,500.0,450.0,3.0,,,,,,,,,blue,square
0.0,5.0,0.5,1.0,6.0,6.0,490.1311700004953,8.0,1.0,phase_2,go,450.0,450.0,1.0,,,,,,,,,yellow,triangle
0.0,4.0,4.0,0.0,5.0,5.0,604.7383029999764,8.0,1.0,phase_2,go,450.0,450.0,1.0,,,,,,,,,green,diamond
0.0,4.0,4.0,0.0,6.0,6.0,516.6363340003954,8.0,1.0,phase_2,go,450.0,450.0,1.0,,,,,,,,,green,diamond
0.0,5.0,0.5,1.0,5.0,5.0,509.5397109998885,8.0,1.0,phase_2,stop,450.0,450.0,3.0,,,,,,,,,yellow,triangle
0.0,5.0,0.5,1.0,5.0,0.0,0.0,8.0,1.0,phase_2,stop,400.0,450.0,4.0,,,,,,,,,yellow,triangle
0.0,2.0,1.0,0.0,6.0,6.0,722.0215280003686,8.0,1.0,phase_2,go,450.0,450.0,1.0,,,,,,,,,gray,circle
0.0,1.0,0.5,0.0,6.0,6.0,481.2481509998179,8.0,1.0,phase_2,go,450.0,450.0,1.0,,,,,,,,,magenta,hexagon
0.0,5.0,0.5,1.0,5.0,5.0,664.9457949997668,8.0,1.0,phase_2,stop,450.0,450.0,3.0,,,,,,,,,yellow,triangle
0.0,1.0,0.5,0.0,5.0,5.0,811.8397970001752,8.0,1.0,phase_2,go,400.0,450.0,1.0,,,,,,,,,magenta,hexagon
0.0,8.0,4.0,1.0,6.0,6.0,497.1657579999373,8.0,1.0,phase_2,stop,400.0,450.0,3.0,,,,,,,,,cyan,cross
0.0,1.0,0.5,0.0,5.0,5.0,734.2299389993059,8.0,1.0,phase_2,go,400.0,400.0,1.0,,,,,,,,,magenta,hexagon
0.0,7.0,2.0,1.0,6.0,6.0,576.884013000381,8.0,1.0,phase_2,go,400.0,400.0,1.0,,,,,,,,,orange,I
0.0,4.0,4.0,0.0,5.0,5.0,783.1879679997655,8.0,1.0,phase_2,go,400.0,400.0,1.0,,,,,,,,,green,diamond
0.0,4.0,4.0,0.0,5.0,5.0,761.0415089993694,8.0,1.0,phase_2,go,400.0,400.0,1.0,,,,,,,,,green,diamond
0.0,1.0,0.5,0.0,5.0,5.0,344.7019169998384,8.0,1.0,phase_2,go,400.0,400.0,1.0,,,,,,,,,magenta,hexagon
0.0,7.0,2.0,1.0,6.0,6.0,611.5477200000896,8.0,1.0,phase_2,stop,400.0,400.0,3.0,,,,,,,,,orange,I
0.0,5.0,0.5,1.0,5.0,5.0,435.6483459996525,8.0,1.0,phase_2,stop,400.0,350.0,3.0,,,,,,,,,yellow,triangle
0.0,3.0,2.0,0.0,6.0,6.0,438.5135620004803,8.0,1.0,phase_2,go,350.0,350.0,1.0,,,,,,,,,white,flipped triangle
0.0,2.0,1.0,0.0,6.0,6.0,392.2002809995319,8.0,1.0,phase_2,go,350.0,350.0,1.0,,,,,,,,,gray,circle
0.0,2.0,1.0,0.0,7.0,5.0,790.7040919999417,1.0,1.0,phase_3,,,,,865.0,5.0,346.0,692.0,519.0,173.0,865.0,1038.0,gray,circle
0.0,5.0,0.5,1.0,7.0,2.0,1788.1706910002322,1.0,1.0,phase_3,,,,,692.0,4.0,865.0,692.0,173.0,346.0,519.0,1038.0,yellow,triangle
0.0,7.0,2.0,1.0,7.0,3.0,1202.4057059998086,1.0,1.0,phase_3,,,,,924.0,6.0,770.0,308.0,924.0,616.0,462.0,154.0,orange,I
0.0,2.0,1.0,0.0,7.0,4.0,1099.6207090001917,1.0,1.0,phase_3,,,,,576.0,3.0,768.0,384.0,960.0,576.0,1152.0,192.0,gray,circle
0.0,5.0,0.5,1.0,7.0,1.0,595.8515550000811,1.0,1.0,phase_3,,,,,348.0,3.0,348.0,696.0,232.0,580.0,116.0,464.0,yellow,triangle
0.0,2.0,1.0,0.0,7.0,4.0,1629.5990420003363,1.0,1.0,phase_3,,,,,616.0,4.0,308.0,462.0,770.0,616.0,924.0,154.0,gray,circle
0.0,3.0,2.0,0.0,7.0,1.0,1369.85777999962,1.0,1.0,phase_3,,,,,270.0,2.0,270.0,810.0,675.0,540.0,405.0,135.0,white,flipped triangle
0.0,8.0,4.0,1.0,7.0,2.0,1235.6342729999596,1.0,1.0,phase_3,,,,,924.0,6.0,308.0,924.0,462.0,770.0,616.0,154.0,cyan,cross
0.0,8.0,4.0,1.0,7.0,5.0,1473.7860409995849,1.0,1.0,phase_3,,,,,768.0,4.0,384.0,960.0,576.0,1152.0,768.0,192.0,cyan,cross
0.0,2.0,1.0,0.0,7.0,1.0,982.974691999516,1.0,1.0,phase_3,,,,,270.0,2.0,270.0,810.0,540.0,405.0,135.0,675.0,gray,circle
0.0,5.0,0.5,1.0,7.0,4.0,1555.416592000256,1.0,1.0,phase_3,,,,,405.0,3.0,540.0,270.0,135.0,405.0,675.0,810.0,yellow,triangle
0.0,4.0,4.0,0.0,7.0,6.0,1094.1378649995386,1.0,1.0,phase_3,,,,,960.0,5.0,192.0,768.0,576.0,384.0,1152.0,960.0,green,diamond
0.0,8.0,4.0,1.0,7.0,3.0,750.453853000181,1.0,1.0,phase_3,,,,,1038.0,6.0,519.0,346.0,1038.0,692.0,865.0,173.0,cyan,cross
0.0,4.0,4.0,0.0,7.0,5.0,1337.1666509992792,1.0,1.0,phase_3,,,,,865.0,5.0,346.0,173.0,519.0,692.0,865.0,1038.0,green,diamond
0.0,4.0,4.0,0.0,7.0,3.0,1408.2993639995038,1.0,1.0,phase_3,,,,,960.0,5.0,768.0,576.0,960.0,1152.0,192.0,384.0,green,diamond
0.0,5.0,0.5,1.0,7.0,5.0,1518.5856640000566,1.0,1.0,phase_3,,,,,192.0,1.0,768.0,384.0,576.0,1152.0,192.0,960.0,yellow,triangle
0.0,3.0,2.0,0.0,7.0,5.0,1875.0404599995816,1.0,1.0,phase_3,,,,,464.0,4.0,348.0,232.0,696.0,116.0,464.0,580.0,white,flipped triangle
0.0,1.0,0.5,0.0,7.0,3.0,1805.740343999787,1.0,1.0,phase_3,,,,,768.0,4.0,576.0,1152.0,768.0,192.0,960.0,384.0,magenta,hexagon
0.0,1.0,0.5,0.0,7.0,4.0,1474.2889139997717,1.0,1.0,phase_3,,,,,696.0,6.0,116.0,464.0,232.0,696.0,348.0,580.0,magenta,hexagon
0.0,6.0,1.0,1.0,7.0,2.0,259.4906619997346,1.0,1.0,phase_3,,,,,924.0,6.0,462.0,924.0,770.0,308.0,616.0,154.0,blue,square
0.0,2.0,1.0,0.0,7.0,5.0,554.0989379996972,2.0,1.0,phase_3,,,,,173.0,1.0,692.0,346.0,1038.0,865.0,173.0,519.0,gray,circle
0.0,4.0,4.0,0.0,7.0,6.0,1372.2702129998652,2.0,1.0,phase_3,,,,,810.0,6.0,675.0,540.0,270.0,405.0,135.0,810.0,green,diamond
0.0,8.0,4.0,1.0,7.0,3.0,1461.172291999901,2.0,1.0,phase_3,,,,,810.0,6.0,135.0,540.0,810.0,675.0,270.0,405.0,cyan,cross
0.0,5.0,0.5,1.0,7.0,5.0,1046.321025999532,2.0,1.0,phase_3,,,,,960.0,5.0,768.0,576.0,1152.0,192.0,960.0,384.0,yellow,triangle
0.0,6.0,1.0,1.0,7.0,1.0,582.4684090002847,2.0,1.0,phase_3,,,,,405.0,3.0,405.0,135.0,810.0,675.0,540.0,270.0,blue,square
0.0,7.0,2.0,1.0,7.0,6.0,1312.927177000347,2.0,1.0,phase_3,,,,,768.0,4.0,960.0,384.0,192.0,576.0,1152.0,768.0,orange,I
0.0,7.0,2.0,1.0,7.0,6.0,841.2570430000414,2.0,1.0,phase_3,,,,,692.0,4.0,519.0,865.0,346.0,173.0,1038.0,692.0,orange,I
0.0,5.0,0.5,1.0,7.0,2.0,619.4387560008181,2.0,1.0,phase_3,,,,,270.0,2.0,675.0,270.0,540.0,810.0,135.0,405.0,yellow,triangle
0.0,5.0,0.5,1.0,7.0,6.0,1848.933303999729,2.0,1.0,phase_3,,,,,308.0,2.0,462.0,770.0,616.0,154.0,924.0,308.0,yellow,triangle
0.0,1.0,0.5,0.0,7.0,5.0,1515.140087999498,2.0,1.0,phase_3,,,,,576.0,3.0,1152.0,192.0,768.0,960.0,576.0,384.0,magenta,hexagon
0.0,3.0,2.0,0.0,7.0,1.0,509.05492099991534,2.0,1.0,phase_3,,,,,308.0,2.0,308.0,924.0,616.0,154.0,462.0,770.0,white,flipped triangle
0.0,2.0,1.0,0.0,7.0,1.0,565.0803290000113,2.0,1.0,phase_3,,,,,348.0,3.0,348.0,464.0,116.0,696.0,580.0,232.0,gray,circle
0.0,3.0,2.0,0.0,7.0,3.0,1401.6213540007811,2.0,1.0,phase_3,,,,,348.0,3.0,116.0,580.0,348.0,232.0,696.0,464.0,white,flipped triangle
0.0,3.0,2.0,0.0,7.0,6.0,1706.5779370004748,2.0,1.0,phase_3,,,,,405.0,3.0,540.0,675.0,135.0,810.0,270.0,405.0,white,flipped triangle
0.0,6.0,1.0,1.0,7.0,5.0,1000.7907999997769,2.0,1.0,phase_3,,,,,346.0,2.0,865.0,692.0,1038.0,519.0,346.0,173.0,blue,square
0.0,6.0,1.0,1.0,7.0,4.0,953.8505759992404,2.0,1.0,phase_3,,,,,576.0,3.0,960.0,384.0,1152.0,576.0,192.0,768.0,blue,square
0.0,1.0,0.5,0.0,7.0,4.0,1353.994043000057,2.0,1.0,phase_3,,,,,675.0,5.0,810.0,540.0,405.0,675.0,135.0,270.0,magenta,hexagon
0.0,7.0,2.0,1.0,7.0,2.0,1184.5520719998603,2.0,1.0,phase_3,,,,,675.0,5.0,270.0,675.0,810.0,540.0,405.0,135.0,orange,I
0.0,2.0,1.0,0.0,7.0,4.0,836.0499560003518,2.0,1.0,phase_3,,,,,1152.0,6.0,768.0,576.0,192.0,1152.0,960.0,384.0,gray,circle
0.0,6.0,1.0,1.0,7.0,1.0,954.4846899998448,2.0,1.0,phase_3,,,,,270.0,2.0,270.0,675.0,135.0,810.0,405.0,540.0,blue,square
0.0,8.0,4.0,1.0,7.0,1.0,1092.0440899999448,3.0,1.0,phase_3,,,,,232.0,2.0,232.0,348.0,580.0,116.0,696.0,464.0,cyan,cross
0.0,1.0,0.5,0.0,7.0,2.0,1579.1929040005923,3.0,1.0,phase_3,,,,,308.0,2.0,616.0,308.0,154.0,462.0,924.0,770.0,magenta,hexagon
0.0,4.0,4.0,0.0,7.0,3.0,1128.4533320003902,3.0,1.0,phase_3,,,,,519.0,3.0,692.0,346.0,519.0,1038.0,173.0,865.0,green,diamond
0.0,4.0,4.0,0.0,7.0,5.0,567.1538699998564,3.0,1.0,phase_3,,,,,154.0,1.0,462.0,616.0,770.0,924.0,154.0,308.0,green,diamond
0.0,3.0,2.0,0.0,7.0,2.0,352.0311789998231,3.0,1.0,phase_3,,,,,1152.0,6.0,768.0,1152.0,960.0,384.0,576.0,192.0,white,flipped triangle
0.0,3.0,2.0,0.0,7.0,1.0,906.8973999992522,3.0,1.0,phase_3,,,,,692.0,4.0,692.0,1038.0,173.0,346.0,519.0,865.0,white,flipped triangle
0.0,8.0,4.0,1.0,7.0,6.0,494.1796760003853,3.0,1.0,phase_3,,,,,865.0,5.0,1038.0,519.0,173.0,692.0,346.0,865.0,cyan,cross
0.0,2.0,1.0,0.0,7.0,6.0,1157.700577000469,3.0,1.0,phase_3,,,,,580.0,5.0,696.0,116.0,348.0,464.0,232.0,580.0,gray,circle
0.0,1.0,0.5,0.0,7.0,2.0,1277.2726900002451,3.0,1.0,phase_3,,,,,696.0,6.0,348.0,696.0,464.0,580.0,232.0,116.0,magenta,hexagon
0.0,8.0,4.0,1.0,7.0,6.0,1332.8799609998896,3.0,1.0,phase_3,,,,,960.0,5.0,768.0,1152.0,384.0,192.0,576.0,960.0,cyan,cross
0.0,4.0,4.0,0.0,7.0,3.0,1425.342164999165,3.0,1.0,phase_3,,,,,616.0,4.0,308.0,462.0,616.0,770.0,154.0,924.0,green,diamond
0.0,3.0,2.0,0.0,7.0,4.0,985.4646759995376,3.0,1.0,phase_3,,,,,960.0,5.0,384.0,192.0,1152.0,960.0,768.0,576.0,white,flipped triangle
0.0,6.0,1.0,1.0,7.0,4.0,915.0649219991463,3.0,1.0,phase_3,,,,,464.0,4.0,348.0,580.0,116.0,464.0,232.0,696.0,blue,square
0.0,4.0,4.0,0.0,7.0,6.0,1251.562610000292,3.0,1.0,phase_3,,,,,580.0,5.0,232.0,348.0,464.0,116.0,696.0,580.0,green,diamond
0.0,2.0,1.0,0.0,7.0,3.0,2311.906035999528,3.0,1.0,phase_3,,,,,308.0,2.0,616.0,462.0,308.0,924.0,154.0,770.0,gray,circle
0.0,4.0,4.0,0.0,7.0,2.0,1324.2588890007028,3.0,1.0,phase_3,,,,,135.0,1.0,270.0,135.0,810.0,675.0,405.0,540.0,green,diamond
0.0,1.0,0.5,0.0,7.0,1.0,1840.1273259996744,3.0,1.0,phase_3,,,,,810.0,6.0,810.0,270.0,405.0,540.0,135.0,675.0,magenta,hexagon
0.0,7.0,2.0,1.0,7.0,1.0,1267.1497490000547,3.0,1.0,phase_3,,,,,1038.0,6.0,1038.0,519.0,865.0,346.0,173.0,692.0,orange,I
0.0,8.0,4.0,1.0,7.0,5.0,1545.5903279998893,3.0,1.0,phase_3,,,,,675.0,5.0,810.0,405.0,540.0,270.0,675.0,135.0,cyan,cross
0.0,6.0,1.0,1.0,7.0,5.0,1627.87023600049,3.0,1.0,phase_3,,,,,173.0,1.0,1038.0,865.0,692.0,346.0,173.0,519.0,blue,square
0.0,7.0,2.0,1.0,7.0,3.0,1203.350094999223,4.0,1.0,phase_3,,,,,348.0,3.0,580.0,116.0,348.0,464.0,232.0,696.0,orange,I
0.0,5.0,0.5,1.0,7.0,6.0,1273.6444250003842,4.0,1.0,phase_3,,,,,232.0,2.0,580.0,464.0,348.0,116.0,696.0,232.0,yellow,triangle
0.0,7.0,2.0,1.0,7.0,1.0,1427.0994730004531,4.0,1.0,phase_3,,,,,462.0,3.0,462.0,770.0,308.0,924.0,616.0,154.0,orange,I
0.0,6.0,1.0,1.0,7.0,3.0,1121.204518999548,4.0,1.0,phase_3,,,,,770.0,5.0,154.0,616.0,770.0,462.0,924.0,308.0,blue,square
0.0,8.0,4.0,1.0,7.0,4.0,2098.437573999945,4.0,1.0,phase_3,,,,,348.0,3.0,580.0,232.0,696.0,348.0,464.0,116.0,cyan,cross
0.0,3.0,2.0,0.0,7.0,2.0,1180.8974799996577,4.0,1.0,phase_3,,,,,519.0,3.0,865.0,519.0,1038.0,692.0,173.0,346.0,white,flipped triangle
0.0,1.0,0.5,0.0,7.0,6.0,873.8673349998862,4.0,1.0,phase_3,,,,,865.0,5.0,1038.0,692.0,173.0,346.0,519.0,865.0,magenta,hexagon
0.0,7.0,2.0,1.0,7.0,2.0,686.1611180002001,4.0,1.0,phase_3,,,,,232.0,2.0,116.0,232.0,464.0,696.0,348.0,580.0,orange,I
0.0,3.0,2.0,0.0,7.0,5.0,462.8209460006474,4.0,1.0,phase_3,,,,,924.0,6.0,462.0,308.0,154.0,616.0,924.0,770.0,white,flipped triangle
0.0,6.0,1.0,1.0,7.0,3.0,1382.32148500083,4.0,1.0,phase_3,,,,,116.0,1.0,232.0,580.0,116.0,348.0,464.0,696.0,blue,square
0.0,1.0,0.5,0.0,7.0,2.0,679.2607170000338,4.0,1.0,phase_3,,,,,1038.0,6.0,346.0,1038.0,173.0,865.0,692.0,519.0,magenta,hexagon
0.0,6.0,1.0,1.0,7.0,4.0,608.4205879997171,4.0,1.0,phase_3,,,,,576.0,3.0,384.0,1152.0,960.0,576.0,768.0,192.0,blue,square
0.0,5.0,0.5,1.0,7.0,2.0,555.8155159997114,4.0,1.0,phase_3,,,,,154.0,1.0,924.0,154.0,462.0,616.0,308.0,770.0,yellow,triangle
0.0,7.0,2.0,1.0,7.0,6.0,1175.0002420003511,4.0,1.0,phase_3,,,,,384.0,2.0,960.0,576.0,768.0,1152.0,192.0,384.0,orange,I
0.0,2.0,1.0,0.0,7.0,1.0,1147.0111170001474,4.0,1.0,phase_3,,,,,810.0,6.0,810.0,675.0,135.0,405.0,270.0,540.0,gray,circle
0.0,8.0,4.0,1.0,7.0,3.0,1401.979375000337,4.0,1.0,phase_3,,,,,924.0,6.0,462.0,770.0,924.0,154.0,616.0,308.0,cyan,cross
0.0,1.0,0.5,0.0,7.0,1.0,1333.7820090000605,4.0,1.0,phase_3,,,,,924.0,6.0,924.0,616.0,462.0,154.0,308.0,770.0,magenta,hexagon
0.0,7.0,2.0,1.0,7.0,3.0,1101.612659999773,4.0,1.0,phase_3,,,,,135.0,1.0,270.0,405.0,135.0,675.0,540.0,810.0,orange,I
0.0,4.0,4.0,0.0,7.0,5.0,1315.6343759992524,4.0,1.0,phase_3,,,,,696.0,6.0,464.0,580.0,232.0,116.0,696.0,348.0,green,diamond
0.0,5.0,0.5,1.0,7.0,6.0,1825.568103000478,4.0,1.0,phase_3,,,,,346.0,2.0,519.0,692.0,173.0,1038.0,865.0,346.0,yellow,triangle
