raw_reward_magnitude,stim_reward,stepwise_reward_magnitude,paired_with_stopping,stim_location,response,reaction_time,block,num_trial_presentations,which_phase,stop_signal_trial_type,left_SSD,right_SSD,accuracy,chosen_bidding_amount,chosen_bidding_level,possible_bid_1,possible_bid_2,possible_bid_3,possible_bid_4,possible_bid_5,possible_bid_6,color_text,shape_text
659.0,3.0,3.0,0.0,3.0,3.0,602.6160379997236,1.0,1.0,phase_1,,,,,,,,,,,,,cyan,flipped triangle
324.0,2.0,2.0,0.0,2.0,2.0,533.8723489999211,1.0,1.0,phase_1,,,,,,,,,,,,,blue,circle
151.0,5.0,1.0,1.0,4.0,4.0,489.2088359997615,1.0,2.0,phase_1,,,,,,,,,,,,,magenta,hexagon
1279.0,8.0,4.0,1.0,2.0,2.0,517.3234429998956,1.0,1.0,phase_1,,,,,,,,,,,,,orange,triangle
184.0,1.0,1.0,0.0,2.0,2.0,518.8777109997318,1.0,1.0,phase_1,,,,,,,,,,,,,green,cross
674.0,7.0,3.0,1.0,4.0,4.0,563.4891640002024,1.0,1.0,phase_1,,,,,,,,,,,,,white,I
1324.0,4.0,4.0,0.0,2.0,2.0,380.1575669999693,1.0,1.0,phase_1,,,,,,,,,,,,,gray,square
0.0,3.0,0.0,0.0,3.0,3.0,453.0768190002163,1.0,1.0,phase_1,,,,,,,,,,,,,cyan,flipped triangle
652.0,7.0,3.0,1.0,4.0,4.0,418.056025000169,1.0,2.0,phase_1,,,,,,,,,,,,,white,I
336.0,2.0,2.0,0.0,3.0,3.0,373.1090720002612,1.0,1.0,phase_1,,,,,,,,,,,,,blue,circle
0.0,8.0,0.0,1.0,1.0,1.0,612.5548539998817,1.0,1.0,phase_1,,,,,,,,,,,,,orange,triangle
140.0,1.0,1.0,0.0,4.0,4.0,398.2411110000612,1.0,1.0,phase_1,,,,,,,,,,,,,green,cross
0.0,3.0,0.0,0.0,2.0,2.0,321.4813310000863,1.0,1.0,phase_1,,,,,,,,,,,,,cyan,flipped triangle
158.0,5.0,1.0,1.0,2.0,2.0,342.9056709996985,1.0,1.0,phase_1,,,,,,,,,,,,,magenta,hexagon
155.0,5.0,1.0,1.0,4.0,4.0,417.0712869999988,1.0,1.0,phase_1,,,,,,,,,,,,,magenta,hexagon
182.0,5.0,1.0,1.0,4.0,4.0,352.1879949998947,1.0,1.0,phase_1,,,,,,,,,,,,,magenta,hexagon
1315.0,8.0,4.0,1.0,4.0,4.0,334.1934270001729,1.0,1.0,phase_1,,,,,,,,,,,,,orange,triangle
314.0,6.0,2.0,1.0,4.0,4.0,398.8287009997293,1.0,1.0,phase_1,,,,,,,,,,,,,yellow,diamond
670.0,7.0,3.0,1.0,1.0,1.0,501.2062089999745,1.0,1.0,phase_1,,,,,,,,,,,,,white,I
652.0,3.0,3.0,0.0,2.0,2.0,425.8503759997438,1.0,1.0,phase_1,,,,,,,,,,,,,cyan,flipped triangle
649.0,7.0,3.0,1.0,1.0,1.0,453.5078959997918,1.0,1.0,phase_1,,,,,,,,,,,,,white,I
641.0,3.0,3.0,0.0,1.0,1.0,527.1001090000027,1.0,1.0,phase_1,,,,,,,,,,,,,cyan,flipped triangle
329.0,6.0,2.0,1.0,1.0,1.0,361.5674819998276,1.0,1.0,phase_1,,,,,,,,,,,,,yellow,diamond
0.0,7.0,0.0,1.0,3.0,3.0,463.8041439998233,1.0,1.0,phase_1,,,,,,,,,,,,,white,I
336.0,2.0,2.0,0.0,4.0,4.0,333.6055800000395,1.0,1.0,phase_1,,,,,,,,,,,,,blue,circle
0.0,2.0,0.0,0.0,2.0,2.0,407.6084280000032,1.0,1.0,phase_1,,,,,,,,,,,,,blue,circle
342.0,2.0,2.0,0.0,4.0,4.0,491.4956659999916,1.0,1.0,phase_1,,,,,,,,,,,,,blue,circle
329.0,2.0,2.0,0.0,1.0,1.0,611.2151130000711,1.0,1.0,phase_1,,,,,,,,,,,,,blue,circle
634.0,3.0,3.0,0.0,4.0,4.0,527.2546340002009,1.0,1.0,phase_1,,,,,,,,,,,,,cyan,flipped triangle
1287.0,8.0,4.0,1.0,1.0,1.0,519.1145450003205,1.0,1.0,phase_1,,,,,,,,,,,,,orange,triangle
0.0,7.0,0.0,1.0,1.0,1.0,482.4050990000614,1.0,1.0,phase_1,,,,,,,,,,,,,white,I
653.0,7.0,3.0,1.0,4.0,4.0,582.8058540000711,1.0,1.0,phase_1,,,,,,,,,,,,,white,I
312.0,2.0,2.0,0.0,2.0,2.0,415.1833229998374,1.0,1.0,phase_1,,,,,,,,,,,,,blue,circle
340.0,6.0,2.0,1.0,3.0,3.0,407.5046200000543,1.0,1.0,phase_1,,,,,,,,,,,,,yellow,diamond
300.0,2.0,2.0,0.0,2.0,2.0,397.3222989998248,1.0,1.0,phase_1,,,,,,,,,,,,,blue,circle
318.0,6.0,2.0,1.0,2.0,2.0,351.5183580002485,1.0,1.0,phase_1,,,,,,,,,,,,,yellow,diamond
0.0,8.0,0.0,1.0,3.0,3.0,453.4261629996763,1.0,1.0,phase_1,,,,,,,,,,,,,orange,triangle
634.0,7.0,3.0,1.0,3.0,3.0,407.3348619999706,1.0,1.0,phase_1,,,,,,,,,,,,,white,I
329.0,2.0,2.0,0.0,4.0,4.0,444.3471300000965,1.0,1.0,phase_1,,,,,,,,,,,,,blue,circle
308.0,2.0,2.0,0.0,2.0,2.0,424.7985890001473,1.0,2.0,phase_1,,,,,,,,,,,,,blue,circle
0.0,3.0,0.0,0.0,4.0,4.0,546.6452770001524,1.0,1.0,phase_1,,,,,,,,,,,,,cyan,flipped triangle
1300.0,4.0,4.0,0.0,4.0,4.0,565.5047569998715,1.0,1.0,phase_1,,,,,,,,,,,,,gray,square
0.0,1.0,0.0,0.0,4.0,4.0,499.2001059999893,1.0,1.0,phase_1,,,,,,,,,,,,,green,cross
144.0,5.0,1.0,1.0,1.0,1.0,387.5856300001032,1.0,2.0,phase_1,,,,,,,,,,,,,magenta,hexagon
164.0,1.0,1.0,0.0,4.0,4.0,453.4828299997571,1.0,1.0,phase_1,,,,,,,,,,,,,green,cross
1313.0,4.0,4.0,0.0,2.0,2.0,381.526668999868,1.0,1.0,phase_1,,,,,,,,,,,,,gray,square
182.0,1.0,1.0,0.0,3.0,3.0,438.5568889997557,1.0,1.0,phase_1,,,,,,,,,,,,,green,cross
0.0,4.0,0.0,0.0,1.0,1.0,388.6694819998411,1.0,1.0,phase_1,,,,,,,,,,,,,gray,square
1307.0,8.0,4.0,1.0,2.0,2.0,436.2540310003169,1.0,1.0,phase_1,,,,,,,,,,,,,orange,triangle
1287.0,8.0,4.0,1.0,4.0,4.0,547.9384320001373,1.0,1.0,phase_1,,,,,,,,,,,,,orange,triangle
0.0,1.0,0.0,0.0,1.0,1.0,324.9057309999443,1.0,1.0,phase_1,,,,,,,,,,,,,green,cross
625.0,3.0,3.0,0.0,2.0,2.0,408.1247690000964,1.0,1.0,phase_1,,,,,,,,,,,,,cyan,flipped triangle
162.0,1.0,1.0,0.0,1.0,1.0,390.2195509999728,1.0,1.0,phase_1,,,,,,,,,,,,,green,cross
626.0,7.0,3.0,1.0,1.0,1.0,398.2308990002821,1.0,1.0,phase_1,,,,,,,,,,,,,white,I
1297.0,4.0,4.0,0.0,2.0,2.0,407.9145220002829,1.0,1.0,phase_1,,,,,,,,,,,,,gray,square
157.0,5.0,1.0,1.0,4.0,4.0,443.7254970002868,1.0,1.0,phase_1,,,,,,,,,,,,,magenta,hexagon
0.0,4.0,0.0,0.0,1.0,1.0,537.6112750000175,1.0,1.0,phase_1,,,,,,,,,,,,,gray,square
155.0,1.0,1.0,0.0,3.0,3.0,491.9332979998216,1.0,1.0,phase_1,,,,,,,,,,,,,green,cross
1312.0,4.0,4.0,0.0,2.0,2.0,499.9546549997831,1.0,1.0,phase_1,,,,,,,,,,,,,gray,square
319.0,6.0,2.0,1.0,4.0,4.0,577.1300380001776,1.0,1.0,phase_1,,,,,,,,,,,,,yellow,diamond
172.0,1.0,1.0,0.0,4.0,4.0,549.8368680000567,1.0,1.0,phase_1,,,,,,,,,,,,,green,cross
0.0,2.0,0.0,0.0,1.0,1.0,435.5239809997329,1.0,1.0,phase_1,,,,,,,,,,,,,blue,circle
0.0,1.0,0.0,0.0,3.0,3.0,408.6026479999418,1.0,1.0,phase_1,,,,,,,,,,,,,green,cross
1279.0,8.0,4.0,1.0,3.0,3.0,508.9454690000821,1.0,1.0,phase_1,,,,,,,,,,,,,orange,triangle
668.0,7.0,3.0,1.0,2.0,2.0,416.2642920000508,1.0,1.0,phase_1,,,,,,,,,,,,,white,I
642.0,3.0,3.0,0.0,1.0,1.0,361.9140350001544,1.0,1.0,phase_1,,,,,,,,,,,,,cyan,flipped triangle
306.0,2.0,2.0,0.0,1.0,1.0,390.8254600000873,1.0,1.0,phase_1,,,,,,,,,,,,,blue,circle
1298.0,4.0,4.0,0.0,3.0,3.0,454.2883180001809,1.0,1.0,phase_1,,,,,,,,,,,,,gray,square
318.0,2.0,2.0,0.0,2.0,2.0,565.7774070000414,1.0,1.0,phase_1,,,,,,,,,,,,,blue,circle
165.0,1.0,1.0,0.0,4.0,4.0,545.6133010002304,1.0,1.0,phase_1,,,,,,,,,,,,,green,cross
156.0,1.0,1.0,0.0,3.0,3.0,481.6085749998819,1.0,1.0,phase_1,,,,,,,,,,,,,green,cross
0.0,5.0,0.0,1.0,2.0,2.0,462.1222629998556,1.0,1.0,phase_1,,,,,,,,,,,,,magenta,hexagon
148.0,5.0,1.0,1.0,3.0,3.0,388.046870999915,1.0,1.0,phase_1,,,,,,,,,,,,,magenta,hexagon
304.0,2.0,2.0,0.0,3.0,3.0,444.8325830003341,1.0,1.0,phase_1,,,,,,,,,,,,,blue,circle
0.0,2.0,0.0,0.0,3.0,3.0,389.0786790002494,1.0,1.0,phase_1,,,,,,,,,,,,,blue,circle
179.0,1.0,1.0,0.0,2.0,2.0,526.5207630000077,1.0,1.0,phase_1,,,,,,,,,,,,,green,cross
0.0,3.0,0.0,0.0,4.0,4.0,686.5790140000172,1.0,1.0,phase_1,,,,,,,,,,,,,cyan,flipped triangle
0.0,7.0,0.0,1.0,2.0,2.0,582.5233040000057,1.0,1.0,phase_1,,,,,,,,,,,,,white,I
0.0,6.0,0.0,1.0,3.0,3.0,434.9329540000326,1.0,1.0,phase_1,,,,,,,,,,,,,yellow,diamond
0.0,3.0,0.0,0.0,1.0,1.0,481.4788339999722,1.0,1.0,phase_1,,,,,,,,,,,,,cyan,flipped triangle
0.0,3.0,0.0,0.0,2.0,2.0,410.1567520001481,1.0,1.0,phase_1,,,,,,,,,,,,,cyan,flipped triangle
657.0,7.0,3.0,1.0,4.0,4.0,361.2977170000704,1.0,1.0,phase_1,,,,,,,,,,,,,white,I
1309.0,8.0,4.0,1.0,4.0,4.0,462.4094190003234,1.0,1.0,phase_1,,,,,,,,,,,,,orange,triangle
330.0,6.0,2.0,1.0,4.0,4.0,498.9509889996952,1.0,1.0,phase_1,,,,,,,,,,,,,yellow,diamond
639.0,7.0,3.0,1.0,3.0,3.0,406.4567250002255,1.0,1.0,phase_1,,,,,,,,,,,,,white,I
1279.0,4.0,4.0,0.0,2.0,2.0,453.9259540001694,1.0,1.0,phase_1,,,,,,,,,,,,,gray,square
0.0,8.0,0.0,1.0,3.0,3.0,416.8975509996926,1.0,1.0,phase_1,,,,,,,,,,,,,orange,triangle
303.0,6.0,2.0,1.0,2.0,2.0,500.29114099970684,1.0,1.0,phase_1,,,,,,,,,,,,,yellow,diamond
634.0,7.0,3.0,1.0,2.0,2.0,492.4437589997978,1.0,1.0,phase_1,,,,,,,,,,,,,white,I
0.0,6.0,0.0,1.0,3.0,3.0,361.582387999988,1.0,1.0,phase_1,,,,,,,,,,,,,yellow,diamond
322.0,2.0,2.0,0.0,4.0,4.0,372.2236749999865,1.0,1.0,phase_1,,,,,,,,,,,,,blue,circle
1295.0,8.0,4.0,1.0,3.0,3.0,509.66270200024155,1.0,1.0,phase_1,,,,,,,,,,,,,orange,triangle
1287.0,4.0,4.0,0.0,4.0,4.0,387.8145190001305,1.0,1.0,phase_1,,,,,,,,,,,,,gray,square
164.0,5.0,1.0,1.0,1.0,1.0,370.493758000066,1.0,1.0,phase_1,,,,,,,,,,,,,magenta,hexagon
169.0,5.0,1.0,1.0,3.0,3.0,427.2504269997625,1.0,2.0,phase_1,,,,,,,,,,,,,magenta,hexagon
1282.0,4.0,4.0,0.0,3.0,3.0,400.4699719998825,1.0,1.0,phase_1,,,,,,,,,,,,,gray,square
318.0,2.0,2.0,0.0,2.0,2.0,805.8617329998015,1.0,1.0,phase_1,,,,,,,,,,,,,blue,circle
626.0,7.0,3.0,1.0,2.0,2.0,519.9906439997903,1.0,1.0,phase_1,,,,,,,,,,,,,white,I
642.0,7.0,3.0,1.0,2.0,2.0,463.8147719997505,1.0,1.0,phase_1,,,,,,,,,,,,,white,I
349.0,6.0,2.0,1.0,4.0,4.0,716.0590230000707,1.0,1.0,phase_1,,,,,,,,,,,,,yellow,diamond
639.0,7.0,3.0,1.0,3.0,3.0,446.0064730001249,2.0,1.0,phase_1,,,,,,,,,,,,,white,I
639.0,3.0,3.0,0.0,4.0,4.0,362.4682060003579,2.0,1.0,phase_1,,,,,,,,,,,,,cyan,flipped triangle
329.0,6.0,2.0,1.0,2.0,2.0,824.0045819998159,2.0,2.0,phase_1,,,,,,,,,,,,,yellow,diamond
1300.0,8.0,4.0,1.0,1.0,1.0,545.6573920000665,2.0,1.0,phase_1,,,,,,,,,,,,,orange,triangle
0.0,1.0,0.0,0.0,3.0,3.0,351.8146870001146,2.0,1.0,phase_1,,,,,,,,,,,,,green,cross
0.0,7.0,0.0,1.0,3.0,3.0,510.08257300009063,2.0,1.0,phase_1,,,,,,,,,,,,,white,I
1315.0,8.0,4.0,1.0,3.0,3.0,489.8171959998763,2.0,1.0,phase_1,,,,,,,,,,,,,orange,triangle
1277.0,4.0,4.0,0.0,3.0,3.0,415.7261539999126,2.0,1.0,phase_1,,,,,,,,,,,,,gray,square
0.0,8.0,0.0,1.0,3.0,3.0,435.6603709998126,2.0,1.0,phase_1,,,,,,,,,,,,,orange,triangle
170.0,5.0,1.0,1.0,2.0,2.0,453.6680630003502,2.0,1.0,phase_1,,,,,,,,,,,,,magenta,hexagon
332.0,2.0,2.0,0.0,1.0,1.0,536.6586539998934,2.0,1.0,phase_1,,,,,,,,,,,,,blue,circle
331.0,2.0,2.0,0.0,3.0,3.0,416.3628860001154,2.0,1.0,phase_1,,,,,,,,,,,,,blue,circle
187.0,1.0,1.0,0.0,2.0,2.0,526.2918410003294,2.0,1.0,phase_1,,,,,,,,,,,,,green,cross
0.0,4.0,0.0,0.0,2.0,2.0,452.5706239996907,2.0,1.0,phase_1,,,,,,,,,,,,,gray,square
180.0,1.0,1.0,0.0,1.0,1.0,499.5373090000612,2.0,1.0,phase_1,,,,,,,,,,,,,green,cross
0.0,2.0,0.0,0.0,1.0,1.0,573.5026769998512,2.0,1.0,phase_1,,,,,,,,,,,,,blue,circle
0.0,5.0,0.0,1.0,3.0,3.0,795.2732009998726,2.0,1.0,phase_1,,,,,,,,,,,,,magenta,hexagon
675.0,3.0,3.0,0.0,1.0,1.0,703.8422629998422,2.0,1.0,phase_1,,,,,,,,,,,,,cyan,flipped triangle
1319.0,4.0,4.0,0.0,2.0,2.0,444.1475319999881,2.0,1.0,phase_1,,,,,,,,,,,,,gray,square
320.0,2.0,2.0,0.0,4.0,4.0,463.2489969999369,2.0,1.0,phase_1,,,,,,,,,,,,,blue,circle
649.0,3.0,3.0,0.0,3.0,3.0,481.0573670001759,2.0,1.0,phase_1,,,,,,,,,,,,,cyan,flipped triangle
1278.0,8.0,4.0,1.0,2.0,2.0,674.6470690000024,2.0,1.0,phase_1,,,,,,,,,,,,,orange,triangle
317.0,6.0,2.0,1.0,1.0,1.0,730.6664500001716,2.0,1.0,phase_1,,,,,,,,,,,,,yellow,diamond
175.0,5.0,1.0,1.0,1.0,1.0,507.95166299985794,2.0,1.0,phase_1,,,,,,,,,,,,,magenta,hexagon
317.0,2.0,2.0,0.0,1.0,1.0,591.9933959999071,2.0,1.0,phase_1,,,,,,,,,,,,,blue,circle
667.0,7.0,3.0,1.0,1.0,1.0,415.5126209998343,2.0,1.0,phase_1,,,,,,,,,,,,,white,I
1312.0,8.0,4.0,1.0,2.0,2.0,434.1414900000018,2.0,1.0,phase_1,,,,,,,,,,,,,orange,triangle
1295.0,8.0,4.0,1.0,1.0,1.0,352.006540000275,2.0,1.0,phase_1,,,,,,,,,,,,,orange,triangle
347.0,6.0,2.0,1.0,1.0,1.0,324.1715720000684,2.0,1.0,phase_1,,,,,,,,,,,,,yellow,diamond
182.0,5.0,1.0,1.0,4.0,4.0,527.6555250002275,2.0,1.0,phase_1,,,,,,,,,,,,,magenta,hexagon
669.0,7.0,3.0,1.0,2.0,2.0,490.0738309997905,2.0,1.0,phase_1,,,,,,,,,,,,,white,I
1310.0,8.0,4.0,1.0,2.0,2.0,452.7668599998833,2.0,1.0,phase_1,,,,,,,,,,,,,orange,triangle
1314.0,8.0,4.0,1.0,1.0,1.0,389.9565460001213,2.0,1.0,phase_1,,,,,,,,,,,,,orange,triangle
336.0,6.0,2.0,1.0,1.0,1.0,388.9833969997198,2.0,1.0,phase_1,,,,,,,,,,,,,yellow,diamond
1306.0,8.0,4.0,1.0,2.0,2.0,362.2682140003235,2.0,1.0,phase_1,,,,,,,,,,,,,orange,triangle
649.0,3.0,3.0,0.0,2.0,2.0,518.3220590001838,2.0,1.0,phase_1,,,,,,,,,,,,,cyan,flipped triangle
150.0,5.0,1.0,1.0,4.0,4.0,548.1340239998644,2.0,1.0,phase_1,,,,,,,,,,,,,magenta,hexagon
1312.0,8.0,4.0,1.0,2.0,2.0,372.2772360001727,2.0,1.0,phase_1,,,,,,,,,,,,,orange,triangle
667.0,3.0,3.0,0.0,2.0,2.0,436.0311349996664,2.0,1.0,phase_1,,,,,,,,,,,,,cyan,flipped triangle
328.0,6.0,2.0,1.0,1.0,1.0,335.401900999841,2.0,1.0,phase_1,,,,,,,,,,,,,yellow,diamond
625.0,7.0,3.0,1.0,2.0,2.0,684.1535160001513,2.0,1.0,phase_1,,,,,,,,,,,,,white,I
663.0,3.0,3.0,0.0,4.0,4.0,554.3416180003078,2.0,1.0,phase_1,,,,,,,,,,,,,cyan,flipped triangle
0.0,5.0,0.0,1.0,1.0,1.0,591.7759260000821,2.0,1.0,phase_1,,,,,,,,,,,,,magenta,hexagon
1277.0,8.0,4.0,1.0,3.0,3.0,583.0262509998647,2.0,1.0,phase_1,,,,,,,,,,,,,orange,triangle
328.0,2.0,2.0,0.0,2.0,2.0,424.7943639998084,2.0,1.0,phase_1,,,,,,,,,,,,,blue,circle
0.0,6.0,0.0,1.0,4.0,4.0,361.5082370001801,2.0,1.0,phase_1,,,,,,,,,,,,,yellow,diamond
319.0,2.0,2.0,0.0,1.0,1.0,434.5896220002032,2.0,1.0,phase_1,,,,,,,,,,,,,blue,circle
329.0,2.0,2.0,0.0,4.0,4.0,480.6365780000305,2.0,1.0,phase_1,,,,,,,,,,,,,blue,circle
0.0,7.0,0.0,1.0,1.0,1.0,676.123811999787,2.0,1.0,phase_1,,,,,,,,,,,,,white,I
1303.0,8.0,4.0,1.0,4.0,4.0,425.2977149999424,2.0,1.0,phase_1,,,,,,,,,,,,,orange,triangle
0.0,3.0,0.0,0.0,1.0,1.0,573.8499730000512,2.0,1.0,phase_1,,,,,,,,,,,,,cyan,flipped triangle
632.0,7.0,3.0,1.0,3.0,3.0,444.1256099999009,2.0,1.0,phase_1,,,,,,,,,,,,,white,I
0.0,4.0,0.0,0.0,3.0,3.0,499.3675900000198,2.0,1.0,phase_1,,,,,,,,,,,,,gray,square
148.0,1.0,1.0,0.0,1.0,1.0,500.61346400025286,2.0,1.0,phase_1,,,,,,,,,,,,,green,cross
0.0,1.0,0.0,0.0,1.0,1.0,481.8186010002137,2.0,1.0,phase_1,,,,,,,,,,,,,green,cross
1277.0,4.0,4.0,0.0,1.0,1.0,490.5349529999512,2.0,1.0,phase_1,,,,,,,,,,,,,gray,square
0.0,4.0,0.0,0.0,2.0,2.0,443.9223429999401,2.0,1.0,phase_1,,,,,,,,,,,,,gray,square
0.0,4.0,0.0,0.0,3.0,3.0,389.7463670000434,2.0,1.0,phase_1,,,,,,,,,,,,,gray,square
332.0,6.0,2.0,1.0,2.0,2.0,535.6900110000424,2.0,1.0,phase_1,,,,,,,,,,,,,yellow,diamond
1298.0,4.0,4.0,0.0,4.0,4.0,527.9973799997606,2.0,1.0,phase_1,,,,,,,,,,,,,gray,square
329.0,6.0,2.0,1.0,1.0,1.0,610.4256530002203,2.0,1.0,phase_1,,,,,,,,,,,,,yellow,diamond
1323.0,4.0,4.0,0.0,1.0,1.0,480.6664519996957,2.0,1.0,phase_1,,,,,,,,,,,,,gray,square
649.0,7.0,3.0,1.0,4.0,4.0,564.1641890001665,2.0,1.0,phase_1,,,,,,,,,,,,,white,I
347.0,6.0,2.0,1.0,4.0,4.0,601.7889439999635,2.0,1.0,phase_1,,,,,,,,,,,,,yellow,diamond
671.0,3.0,3.0,0.0,1.0,1.0,455.573030999858,2.0,1.0,phase_1,,,,,,,,,,,,,cyan,flipped triangle
1303.0,4.0,4.0,0.0,2.0,2.0,425.6031419999999,2.0,1.0,phase_1,,,,,,,,,,,,,gray,square
179.0,5.0,1.0,1.0,1.0,1.0,509.5742789999349,2.0,1.0,phase_1,,,,,,,,,,,,,magenta,hexagon
674.0,7.0,3.0,1.0,3.0,3.0,398.9965840000877,2.0,1.0,phase_1,,,,,,,,,,,,,white,I
156.0,5.0,1.0,1.0,2.0,2.0,499.9295180000445,2.0,1.0,phase_1,,,,,,,,,,,,,magenta,hexagon
158.0,1.0,1.0,0.0,4.0,4.0,563.721557000008,2.0,1.0,phase_1,,,,,,,,,,,,,green,cross
1291.0,8.0,4.0,1.0,2.0,2.0,434.4398309999633,2.0,1.0,phase_1,,,,,,,,,,,,,orange,triangle
169.0,5.0,1.0,1.0,2.0,2.0,601.1243110001487,2.0,1.0,phase_1,,,,,,,,,,,,,magenta,hexagon
331.0,6.0,2.0,1.0,3.0,3.0,490.0173669998366,2.0,1.0,phase_1,,,,,,,,,,,,,yellow,diamond
1303.0,4.0,4.0,0.0,3.0,3.0,537.2591859995737,2.0,1.0,phase_1,,,,,,,,,,,,,gray,square
1315.0,4.0,4.0,0.0,2.0,2.0,508.4430360002443,2.0,1.0,phase_1,,,,,,,,,,,,,gray,square
158.0,5.0,1.0,1.0,1.0,1.0,721.517101000245,2.0,1.0,phase_1,,,,,,,,,,,,,magenta,hexagon
141.0,1.0,1.0,0.0,3.0,3.0,480.3028209998956,2.0,1.0,phase_1,,,,,,,,,,,,,green,cross
0.0,8.0,0.0,1.0,3.0,3.0,415.7415719996606,2.0,1.0,phase_1,,,,,,,,,,,,,orange,triangle
670.0,3.0,3.0,0.0,1.0,1.0,462.3566609998306,2.0,1.0,phase_1,,,,,,,,,,,,,cyan,flipped triangle
158.0,1.0,1.0,0.0,1.0,1.0,510.1775059997635,2.0,1.0,phase_1,,,,,,,,,,,,,green,cross
0.0,6.0,0.0,1.0,1.0,1.0,462.4158409997108,2.0,1.0,phase_1,,,,,,,,,,,,,yellow,diamond
1314.0,4.0,4.0,0.0,1.0,1.0,387.3925120001331,2.0,1.0,phase_1,,,,,,,,,,,,,gray,square
0.0,6.0,0.0,1.0,4.0,4.0,482.3040299997956,2.0,1.0,phase_1,,,,,,,,,,,,,yellow,diamond
1282.0,8.0,4.0,1.0,4.0,4.0,674.420776000261,2.0,1.0,phase_1,,,,,,,,,,,,,orange,triangle
629.0,7.0,3.0,1.0,2.0,2.0,600.6171270000777,2.0,1.0,phase_1,,,,,,,,,,,,,white,I
347.0,2.0,2.0,0.0,3.0,3.0,379.1595540001253,2.0,1.0,phase_1,,,,,,,,,,,,,blue,circle
1297.0,8.0,4.0,1.0,3.0,3.0,480.52689799988,2.0,1.0,phase_1,,,,,,,,,,,,,orange,triangle
187.0,5.0,1.0,1.0,3.0,3.0,453.1364409999696,2.0,1.0,phase_1,,,,,,,,,,,,,magenta,hexagon
0.0,7.0,0.0,1.0,3.0,3.0,407.0764580001196,2.0,1.0,phase_1,,,,,,,,,,,,,white,I
314.0,2.0,2.0,0.0,3.0,3.0,426.147624999885,2.0,1.0,phase_1,,,,,,,,,,,,,blue,circle
184.0,5.0,1.0,1.0,4.0,4.0,627.2646180000265,2.0,1.0,phase_1,,,,,,,,,,,,,magenta,hexagon
156.0,1.0,1.0,0.0,4.0,4.0,481.3306119999652,2.0,1.0,phase_1,,,,,,,,,,,,,green,cross
318.0,6.0,2.0,1.0,3.0,3.0,427.2661699997115,2.0,1.0,phase_1,,,,,,,,,,,,,yellow,diamond
176.0,1.0,1.0,0.0,4.0,4.0,389.3724429999565,2.0,1.0,phase_1,,,,,,,,,,,,,green,cross
146.0,5.0,1.0,1.0,3.0,3.0,388.3302200001708,2.0,1.0,phase_1,,,,,,,,,,,,,magenta,hexagon
671.0,7.0,3.0,1.0,3.0,3.0,416.4708839998639,2.0,1.0,phase_1,,,,,,,,,,,,,white,I
1306.0,4.0,4.0,0.0,2.0,2.0,435.2988919999916,2.0,1.0,phase_1,,,,,,,,,,,,,gray,square
1307.0,4.0,4.0,0.0,4.0,4.0,379.5555950000562,2.0,1.0,phase_1,,,,,,,,,,,,,gray,square
305.0,2.0,2.0,0.0,4.0,4.0,507.0833979998497,2.0,1.0,phase_1,,,,,,,,,,,,,blue,circle
1319.0,8.0,4.0,1.0,3.0,3.0,416.5297889999237,2.0,1.0,phase_1,,,,,,,,,,,,,orange,triangle
1282.0,8.0,4.0,1.0,3.0,3.0,527.6885940002103,3.0,1.0,phase_1,,,,,,,,,,,,,orange,triangle
341.0,6.0,2.0,1.0,2.0,2.0,370.2005510003801,3.0,1.0,phase_1,,,,,,,,,,,,,yellow,diamond
330.0,2.0,2.0,0.0,3.0,3.0,470.850691999658,3.0,1.0,phase_1,,,,,,,,,,,,,blue,circle
184.0,1.0,1.0,0.0,3.0,3.0,352.1076219999486,3.0,1.0,phase_1,,,,,,,,,,,,,green,cross
1293.0,8.0,4.0,1.0,2.0,2.0,406.149373000062,3.0,1.0,phase_1,,,,,,,,,,,,,orange,triangle
149.0,5.0,1.0,1.0,3.0,3.0,491.3465030003863,3.0,1.0,phase_1,,,,,,,,,,,,,magenta,hexagon
318.0,6.0,2.0,1.0,3.0,3.0,471.1323120000088,3.0,1.0,phase_1,,,,,,,,,,,,,yellow,diamond
0.0,6.0,0.0,1.0,4.0,4.0,507.9196450001291,3.0,1.0,phase_1,,,,,,,,,,,,,yellow,diamond
327.0,6.0,2.0,1.0,3.0,3.0,389.2260879997593,3.0,1.0,phase_1,,,,,,,,,,,,,yellow,diamond
0.0,6.0,0.0,1.0,4.0,4.0,407.5642200000402,3.0,1.0,phase_1,,,,,,,,,,,,,yellow,diamond
646.0,7.0,3.0,1.0,4.0,4.0,538.2756049998534,3.0,1.0,phase_1,,,,,,,,,,,,,white,I
173.0,5.0,1.0,1.0,4.0,4.0,389.4031159998121,3.0,1.0,phase_1,,,,,,,,,,,,,magenta,hexagon
329.0,6.0,2.0,1.0,2.0,2.0,473.3283689997734,3.0,1.0,phase_1,,,,,,,,,,,,,yellow,diamond
180.0,5.0,1.0,1.0,2.0,2.0,666.8704860003345,3.0,1.0,phase_1,,,,,,,,,,,,,magenta,hexagon
1307.0,4.0,4.0,0.0,3.0,3.0,481.1879720000434,3.0,1.0,phase_1,,,,,,,,,,,,,gray,square
146.0,1.0,1.0,0.0,1.0,1.0,452.9997969998476,3.0,1.0,phase_1,,,,,,,,,,,,,green,cross
342.0,6.0,2.0,1.0,4.0,4.0,480.783068999699,3.0,1.0,phase_1,,,,,,,,,,,,,yellow,diamond
659.0,7.0,3.0,1.0,3.0,3.0,530.5806909996136,3.0,1.0,phase_1,,,,,,,,,,,,,white,I
1319.0,4.0,4.0,0.0,4.0,4.0,482.108831000005,3.0,1.0,phase_1,,,,,,,,,,,,,gray,square
1283.0,8.0,4.0,1.0,1.0,1.0,517.9697680000572,3.0,1.0,phase_1,,,,,,,,,,,,,orange,triangle
1312.0,4.0,4.0,0.0,1.0,1.0,509.08439800014094,3.0,1.0,phase_1,,,,,,,,,,,,,gray,square
346.0,2.0,2.0,0.0,1.0,1.0,463.3273269996607,3.0,1.0,phase_1,,,,,,,,,,,,,blue,circle
641.0,7.0,3.0,1.0,4.0,4.0,556.0733399997844,3.0,1.0,phase_1,,,,,,,,,,,,,white,I
162.0,1.0,1.0,0.0,3.0,3.0,463.5241619998851,3.0,1.0,phase_1,,,,,,,,,,,,,green,cross
163.0,5.0,1.0,1.0,4.0,4.0,705.0469050000174,3.0,1.0,phase_1,,,,,,,,,,,,,magenta,hexagon
674.0,3.0,3.0,0.0,3.0,3.0,521.9599060001201,3.0,1.0,phase_1,,,,,,,,,,,,,cyan,flipped triangle
303.0,2.0,2.0,0.0,3.0,3.0,564.5965600001546,3.0,1.0,phase_1,,,,,,,,,,,,,blue,circle
0.0,5.0,0.0,1.0,2.0,2.0,454.5334889999139,3.0,1.0,phase_1,,,,,,,,,,,,,magenta,hexagon
322.0,6.0,2.0,1.0,3.0,3.0,501.4278529997682,3.0,1.0,phase_1,,,,,,,,,,,,,yellow,diamond
0.0,2.0,0.0,0.0,4.0,4.0,379.751350999868,3.0,1.0,phase_1,,,,,,,,,,,,,blue,circle
346.0,6.0,2.0,1.0,2.0,2.0,538.1803499999478,3.0,1.0,phase_1,,,,,,,,,,,,,yellow,diamond
0.0,8.0,0.0,1.0,3.0,3.0,446.231995999824,3.0,1.0,phase_1,,,,,,,,,,,,,orange,triangle
1315.0,4.0,4.0,0.0,1.0,1.0,492.3104409999723,3.0,1.0,phase_1,,,,,,,,,,,,,gray,square
667.0,7.0,3.0,1.0,1.0,1.0,871.9473709998056,3.0,1.0,phase_1,,,,,,,,,,,,,white,I
182.0,1.0,1.0,0.0,2.0,2.0,388.995469999827,3.0,1.0,phase_1,,,,,,,,,,,,,green,cross
349.0,2.0,2.0,0.0,3.0,3.0,463.4728379996886,3.0,1.0,phase_1,,,,,,,,,,,,,blue,circle
0.0,7.0,0.0,1.0,3.0,3.0,426.8151710002712,3.0,1.0,phase_1,,,,,,,,,,,,,white,I
331.0,6.0,2.0,1.0,3.0,3.0,379.4412329998522,3.0,1.0,phase_1,,,,,,,,,,,,,yellow,diamond
336.0,6.0,2.0,1.0,1.0,1.0,555.9523780002564,3.0,1.0,phase_1,,,,,,,,,,,,,yellow,diamond
149.0,1.0,1.0,0.0,1.0,1.0,648.0373740000687,3.0,1.0,phase_1,,,,,,,,,,,,,green,cross
633.0,3.0,3.0,0.0,4.0,4.0,408.0062960001669,3.0,3.0,phase_1,,,,,,,,,,,,,cyan,flipped triangle
0.0,3.0,0.0,0.0,2.0,2.0,852.2472220001873,3.0,1.0,phase_1,,,,,,,,,,,,,cyan,flipped triangle
331.0,2.0,2.0,0.0,3.0,3.0,592.8755609998007,3.0,1.0,phase_1,,,,,,,,,,,,,blue,circle
162.0,5.0,1.0,1.0,4.0,4.0,407.5547759998699,3.0,1.0,phase_1,,,,,,,,,,,,,magenta,hexagon
148.0,5.0,1.0,1.0,2.0,2.0,547.187914999995,3.0,1.0,phase_1,,,,,,,,,,,,,magenta,hexagon
654.0,7.0,3.0,1.0,1.0,1.0,535.0971599996228,3.0,1.0,phase_1,,,,,,,,,,,,,white,I
168.0,5.0,1.0,1.0,2.0,2.0,462.8346760000568,3.0,1.0,phase_1,,,,,,,,,,,,,magenta,hexagon
631.0,3.0,3.0,0.0,3.0,3.0,536.4740629997868,3.0,1.0,phase_1,,,,,,,,,,,,,cyan,flipped triangle
1304.0,8.0,4.0,1.0,1.0,1.0,444.4442029998754,3.0,1.0,phase_1,,,,,,,,,,,,,orange,triangle
176.0,5.0,1.0,1.0,2.0,2.0,564.8852589997659,3.0,1.0,phase_1,,,,,,,,,,,,,magenta,hexagon
320.0,6.0,2.0,1.0,2.0,2.0,443.9491209996049,3.0,1.0,phase_1,,,,,,,,,,,,,yellow,diamond
0.0,4.0,0.0,0.0,2.0,2.0,406.9137780002165,3.0,1.0,phase_1,,,,,,,,,,,,,gray,square
638.0,7.0,3.0,1.0,4.0,4.0,563.771762000215,3.0,1.0,phase_1,,,,,,,,,,,,,white,I
312.0,6.0,2.0,1.0,3.0,3.0,564.0450050000254,3.0,1.0,phase_1,,,,,,,,,,,,,yellow,diamond
162.0,1.0,1.0,0.0,1.0,1.0,591.4702000000034,3.0,1.0,phase_1,,,,,,,,,,,,,green,cross
1295.0,4.0,4.0,0.0,2.0,2.0,351.339279000058,3.0,1.0,phase_1,,,,,,,,,,,,,gray,square
314.0,2.0,2.0,0.0,2.0,2.0,500.36455899999055,3.0,1.0,phase_1,,,,,,,,,,,,,blue,circle
1323.0,8.0,4.0,1.0,1.0,1.0,481.2740450001911,3.0,1.0,phase_1,,,,,,,,,,,,,orange,triangle
1308.0,4.0,4.0,0.0,4.0,4.0,518.1435449999299,3.0,1.0,phase_1,,,,,,,,,,,,,gray,square
1307.0,8.0,4.0,1.0,4.0,4.0,490.1791859997502,3.0,1.0,phase_1,,,,,,,,,,,,,orange,triangle
0.0,6.0,0.0,1.0,1.0,1.0,463.9261100001022,3.0,1.0,phase_1,,,,,,,,,,,,,yellow,diamond
150.0,1.0,1.0,0.0,1.0,1.0,489.9021480000556,3.0,1.0,phase_1,,,,,,,,,,,,,green,cross
0.0,7.0,0.0,1.0,4.0,4.0,378.3603860001676,3.0,1.0,phase_1,,,,,,,,,,,,,white,I
0.0,6.0,0.0,1.0,1.0,1.0,406.6689729997961,3.0,1.0,phase_1,,,,,,,,,,,,,yellow,diamond
645.0,7.0,3.0,1.0,4.0,4.0,313.6890820001099,3.0,1.0,phase_1,,,,,,,,,,,,,white,I
0.0,1.0,0.0,0.0,3.0,3.0,518.4439989998282,3.0,1.0,phase_1,,,,,,,,,,,,,green,cross
667.0,7.0,3.0,1.0,2.0,2.0,361.5249899999071,3.0,1.0,phase_1,,,,,,,,,,,,,white,I
169.0,1.0,1.0,0.0,2.0,2.0,435.3309829998579,3.0,1.0,phase_1,,,,,,,,,,,,,green,cross
162.0,5.0,1.0,1.0,2.0,2.0,342.2275950001676,3.0,1.0,phase_1,,,,,,,,,,,,,magenta,hexagon
324.0,6.0,2.0,1.0,2.0,2.0,471.9678070000555,3.0,1.0,phase_1,,,,,,,,,,,,,yellow,diamond
1313.0,8.0,4.0,1.0,3.0,3.0,546.2375110000721,3.0,1.0,phase_1,,,,,,,,,,,,,orange,triangle
151.0,1.0,1.0,0.0,2.0,2.0,453.45115400004937,3.0,1.0,phase_1,,,,,,,,,,,,,green,cross
306.0,6.0,2.0,1.0,1.0,1.0,416.2782789999255,3.0,1.0,phase_1,,,,,,,,,,,,,yellow,diamond
1308.0,8.0,4.0,1.0,4.0,4.0,445.9249310002633,3.0,1.0,phase_1,,,,,,,,,,,,,orange,triangle
314.0,6.0,2.0,1.0,3.0,3.0,333.958358000018,3.0,1.0,phase_1,,,,,,,,,,,,,yellow,diamond
668.0,3.0,3.0,0.0,2.0,2.0,582.6568450002014,3.0,2.0,phase_1,,,,,,,,,,,,,cyan,flipped triangle
143.0,5.0,1.0,1.0,2.0,2.0,362.0624739996856,3.0,1.0,phase_1,,,,,,,,,,,,,magenta,hexagon
168.0,1.0,1.0,0.0,2.0,2.0,410.182875999908,3.0,1.0,phase_1,,,,,,,,,,,,,green,cross
626.0,3.0,3.0,0.0,4.0,4.0,465.7987059999868,3.0,1.0,phase_1,,,,,,,,,,,,,cyan,flipped triangle
341.0,2.0,2.0,0.0,2.0,2.0,354.1747600002054,3.0,1.0,phase_1,,,,,,,,,,,,,blue,circle
0.0,1.0,0.0,0.0,2.0,2.0,352.7048910000303,3.0,1.0,phase_1,,,,,,,,,,,,,green,cross
163.0,1.0,1.0,0.0,1.0,1.0,527.8125220002039,3.0,1.0,phase_1,,,,,,,,,,,,,green,cross
672.0,3.0,3.0,0.0,4.0,4.0,417.230396999912,3.0,1.0,phase_1,,,,,,,,,,,,,cyan,flipped triangle
331.0,2.0,2.0,0.0,1.0,1.0,565.2505660000315,3.0,1.0,phase_1,,,,,,,,,,,,,blue,circle
635.0,3.0,3.0,0.0,2.0,2.0,325.0850720000926,3.0,1.0,phase_1,,,,,,,,,,,,,cyan,flipped triangle
1278.0,4.0,4.0,0.0,1.0,1.0,473.341290999997,3.0,1.0,phase_1,,,,,,,,,,,,,gray,square
1282.0,4.0,4.0,0.0,1.0,1.0,444.62323999960057,3.0,1.0,phase_1,,,,,,,,,,,,,gray,square
0.0,7.0,0.0,1.0,2.0,2.0,379.5246670001688,3.0,1.0,phase_1,,,,,,,,,,,,,white,I
0.0,1.0,0.0,0.0,2.0,2.0,454.231085000174,3.0,1.0,phase_1,,,,,,,,,,,,,green,cross
313.0,2.0,2.0,0.0,2.0,2.0,631.9375779999064,3.0,1.0,phase_1,,,,,,,,,,,,,blue,circle
305.0,6.0,2.0,1.0,4.0,4.0,557.4384840001585,3.0,1.0,phase_1,,,,,,,,,,,,,yellow,diamond
0.0,5.0,0.0,1.0,4.0,4.0,445.5202819999613,3.0,1.0,phase_1,,,,,,,,,,,,,magenta,hexagon
0.0,8.0,0.0,1.0,4.0,4.0,597.6615279996622,3.0,1.0,phase_1,,,,,,,,,,,,,orange,triangle
625.0,3.0,3.0,0.0,1.0,1.0,510.17341100032354,3.0,1.0,phase_1,,,,,,,,,,,,,cyan,flipped triangle
1283.0,4.0,4.0,0.0,3.0,3.0,465.8341669996844,3.0,1.0,phase_1,,,,,,,,,,,,,gray,square
0.0,1.0,0.0,0.0,2.0,2.0,446.622201000082,3.0,1.0,phase_1,,,,,,,,,,,,,green,cross
669.0,3.0,3.0,0.0,1.0,1.0,463.827503000175,3.0,1.0,phase_1,,,,,,,,,,,,,cyan,flipped triangle
0.0,6.0,0.0,1.0,2.0,2.0,379.7362830000566,3.0,1.0,phase_1,,,,,,,,,,,,,yellow,diamond
1298.0,8.0,4.0,1.0,3.0,3.0,380.3857820003031,3.0,1.0,phase_1,,,,,,,,,,,,,orange,triangle
0.0,4.0,0.0,0.0,1.0,1.0,579.4980670002587,3.0,1.0,phase_1,,,,,,,,,,,,,gray,square
667.0,3.0,3.0,0.0,4.0,4.0,656.4833399997951,4.0,1.0,phase_1,,,,,,,,,,,,,cyan,flipped triangle
1277.0,8.0,4.0,1.0,1.0,1.0,379.9679070002639,4.0,1.0,phase_1,,,,,,,,,,,,,orange,triangle
659.0,3.0,3.0,0.0,2.0,2.0,361.8562609999571,4.0,1.0,phase_1,,,,,,,,,,,,,cyan,flipped triangle
657.0,3.0,3.0,0.0,3.0,3.0,332.7031459998579,4.0,1.0,phase_1,,,,,,,,,,,,,cyan,flipped triangle
1289.0,8.0,4.0,1.0,4.0,4.0,761.2583280001672,4.0,2.0,phase_1,,,,,,,,,,,,,orange,triangle
662.0,7.0,3.0,1.0,1.0,1.0,582.0442770000227,4.0,1.0,phase_1,,,,,,,,,,,,,white,I
634.0,3.0,3.0,0.0,3.0,3.0,611.0178779999842,4.0,1.0,phase_1,,,,,,,,,,,,,cyan,flipped triangle
340.0,2.0,2.0,0.0,1.0,1.0,491.4083239996216,4.0,1.0,phase_1,,,,,,,,,,,,,blue,circle
0.0,8.0,0.0,1.0,1.0,1.0,538.2815660000233,4.0,1.0,phase_1,,,,,,,,,,,,,orange,triangle
1295.0,4.0,4.0,0.0,3.0,3.0,426.9930820000809,4.0,1.0,phase_1,,,,,,,,,,,,,gray,square
148.0,1.0,1.0,0.0,2.0,2.0,379.4847379999737,4.0,1.0,phase_1,,,,,,,,,,,,,green,cross
667.0,3.0,3.0,0.0,2.0,2.0,592.5694830002612,4.0,1.0,phase_1,,,,,,,,,,,,,cyan,flipped triangle
0.0,4.0,0.0,0.0,2.0,2.0,417.2960720002265,4.0,1.0,phase_1,,,,,,,,,,,,,gray,square
0.0,5.0,0.0,1.0,4.0,4.0,660.21426899988,4.0,1.0,phase_1,,,,,,,,,,,,,magenta,hexagon
0.0,1.0,0.0,0.0,1.0,1.0,758.1972029997814,4.0,1.0,phase_1,,,,,,,,,,,,,green,cross
1289.0,4.0,4.0,0.0,4.0,4.0,784.9505199997111,4.0,1.0,phase_1,,,,,,,,,,,,,gray,square
175.0,1.0,1.0,0.0,3.0,3.0,492.0967900002324,4.0,1.0,phase_1,,,,,,,,,,,,,green,cross
663.0,7.0,3.0,1.0,3.0,3.0,398.7406890000784,4.0,1.0,phase_1,,,,,,,,,,,,,white,I
330.0,2.0,2.0,0.0,3.0,3.0,418.0570240000634,4.0,1.0,phase_1,,,,,,,,,,,,,blue,circle
0.0,2.0,0.0,0.0,2.0,2.0,398.4608350001508,4.0,1.0,phase_1,,,,,,,,,,,,,blue,circle
304.0,6.0,2.0,1.0,3.0,3.0,388.7362730001769,4.0,1.0,phase_1,,,,,,,,,,,,,yellow,diamond
313.0,6.0,2.0,1.0,1.0,1.0,389.3434689998685,4.0,1.0,phase_1,,,,,,,,,,,,,yellow,diamond
141.0,5.0,1.0,1.0,3.0,3.0,444.8090930000035,4.0,1.0,phase_1,,,,,,,,,,,,,magenta,hexagon
0.0,4.0,0.0,0.0,2.0,2.0,427.6918850000584,4.0,1.0,phase_1,,,,,,,,,,,,,gray,square
653.0,3.0,3.0,0.0,2.0,2.0,408.4662919999573,4.0,1.0,phase_1,,,,,,,,,,,,,cyan,flipped triangle
654.0,3.0,3.0,0.0,1.0,1.0,389.1036209997764,4.0,1.0,phase_1,,,,,,,,,,,,,cyan,flipped triangle
674.0,3.0,3.0,0.0,4.0,4.0,444.0831719998641,4.0,1.0,phase_1,,,,,,,,,,,,,cyan,flipped triangle
626.0,3.0,3.0,0.0,3.0,3.0,408.6133030000383,4.0,1.0,phase_1,,,,,,,,,,,,,cyan,flipped triangle
662.0,3.0,3.0,0.0,3.0,3.0,389.3798340000103,4.0,2.0,phase_1,,,,,,,,,,,,,cyan,flipped triangle
173.0,1.0,1.0,0.0,2.0,2.0,482.3048799999014,4.0,1.0,phase_1,,,,,,,,,,,,,green,cross
142.0,5.0,1.0,1.0,1.0,1.0,509.10385099996347,4.0,1.0,phase_1,,,,,,,,,,,,,magenta,hexagon
0.0,3.0,0.0,0.0,1.0,1.0,492.1878549998837,4.0,1.0,phase_1,,,,,,,,,,,,,cyan,flipped triangle
171.0,1.0,1.0,0.0,3.0,3.0,426.8431760001476,4.0,1.0,phase_1,,,,,,,,,,,,,green,cross
1303.0,8.0,4.0,1.0,3.0,3.0,426.8571109996628,4.0,1.0,phase_1,,,,,,,,,,,,,orange,triangle
1298.0,8.0,4.0,1.0,4.0,4.0,436.6828399997757,4.0,1.0,phase_1,,,,,,,,,,,,,orange,triangle
629.0,3.0,3.0,0.0,3.0,3.0,526.5495419998842,4.0,1.0,phase_1,,,,,,,,,,,,,cyan,flipped triangle
1312.0,4.0,4.0,0.0,1.0,1.0,795.2758400001585,4.0,1.0,phase_1,,,,,,,,,,,,,gray,square
675.0,7.0,3.0,1.0,4.0,4.0,603.036780000366,4.0,1.0,phase_1,,,,,,,,,,,,,white,I
1324.0,8.0,4.0,1.0,4.0,4.0,875.3697600000123,4.0,1.0,phase_1,,,,,,,,,,,,,orange,triangle
659.0,7.0,3.0,1.0,1.0,1.0,362.3341290003736,4.0,1.0,phase_1,,,,,,,,,,,,,white,I
625.0,7.0,3.0,1.0,3.0,3.0,408.1398839998655,4.0,1.0,phase_1,,,,,,,,,,,,,white,I
318.0,2.0,2.0,0.0,4.0,4.0,593.4996709997904,4.0,1.0,phase_1,,,,,,,,,,,,,blue,circle
638.0,3.0,3.0,0.0,1.0,1.0,389.8138700001254,4.0,1.0,phase_1,,,,,,,,,,,,,cyan,flipped triangle
1309.0,4.0,4.0,0.0,4.0,4.0,527.7917199996409,4.0,1.0,phase_1,,,,,,,,,,,,,gray,square
142.0,1.0,1.0,0.0,3.0,3.0,490.3431100001398,4.0,1.0,phase_1,,,,,,,,,,,,,green,cross
329.0,2.0,2.0,0.0,4.0,4.0,518.6441010000635,4.0,1.0,phase_1,,,,,,,,,,,,,blue,circle
300.0,6.0,2.0,1.0,1.0,1.0,370.1042990001042,4.0,1.0,phase_1,,,,,,,,,,,,,yellow,diamond
308.0,6.0,2.0,1.0,4.0,4.0,564.6782170001643,4.0,1.0,phase_1,,,,,,,,,,,,,yellow,diamond
0.0,2.0,0.0,0.0,1.0,1.0,407.3782969999229,4.0,1.0,phase_1,,,,,,,,,,,,,blue,circle
331.0,6.0,2.0,1.0,4.0,4.0,352.7030049999666,4.0,1.0,phase_1,,,,,,,,,,,,,yellow,diamond
169.0,1.0,1.0,0.0,3.0,3.0,639.293619,4.0,1.0,phase_1,,,,,,,,,,,,,green,cross
1310.0,4.0,4.0,0.0,1.0,1.0,418.1583629997476,4.0,1.0,phase_1,,,,,,,,,,,,,gray,square
144.0,1.0,1.0,0.0,4.0,4.0,315.4858969996894,4.0,1.0,phase_1,,,,,,,,,,,,,green,cross
315.0,2.0,2.0,0.0,4.0,4.0,463.7815109999792,4.0,1.0,phase_1,,,,,,,,,,,,,blue,circle
140.0,5.0,1.0,1.0,1.0,1.0,352.2009520002029,4.0,1.0,phase_1,,,,,,,,,,,,,magenta,hexagon
327.0,2.0,2.0,0.0,1.0,1.0,389.3503429999327,4.0,1.0,phase_1,,,,,,,,,,,,,blue,circle
1279.0,4.0,4.0,0.0,4.0,4.0,565.757018000113,4.0,1.0,phase_1,,,,,,,,,,,,,gray,square
1298.0,8.0,4.0,1.0,2.0,2.0,408.39056599998,4.0,1.0,phase_1,,,,,,,,,,,,,orange,triangle
0.0,5.0,0.0,1.0,2.0,2.0,500.15917000018817,4.0,1.0,phase_1,,,,,,,,,,,,,magenta,hexagon
330.0,6.0,2.0,1.0,4.0,4.0,462.6144979997661,4.0,1.0,phase_1,,,,,,,,,,,,,yellow,diamond
1319.0,8.0,4.0,1.0,1.0,1.0,381.13415299994807,4.0,1.0,phase_1,,,,,,,,,,,,,orange,triangle
0.0,5.0,0.0,1.0,2.0,2.0,352.9177969999182,4.0,1.0,phase_1,,,,,,,,,,,,,magenta,hexagon
645.0,3.0,3.0,0.0,4.0,4.0,437.0975560000261,4.0,1.0,phase_1,,,,,,,,,,,,,cyan,flipped triangle
629.0,7.0,3.0,1.0,1.0,1.0,417.872202000126,4.0,1.0,phase_1,,,,,,,,,,,,,white,I
165.0,5.0,1.0,1.0,1.0,1.0,584.2443370002002,4.0,1.0,phase_1,,,,,,,,,,,,,magenta,hexagon
632.0,3.0,3.0,0.0,3.0,3.0,380.2942030001759,4.0,1.0,phase_1,,,,,,,,,,,,,cyan,flipped triangle
0.0,8.0,0.0,1.0,2.0,2.0,537.0608450002692,4.0,1.0,phase_1,,,,,,,,,,,,,orange,triangle
162.0,5.0,1.0,1.0,3.0,3.0,427.6740229997813,4.0,1.0,phase_1,,,,,,,,,,,,,magenta,hexagon
1287.0,4.0,4.0,0.0,1.0,1.0,511.9231650000984,4.0,2.0,phase_1,,,,,,,,,,,,,gray,square
646.0,3.0,3.0,0.0,4.0,4.0,535.2196650001133,4.0,1.0,phase_1,,,,,,,,,,,,,cyan,flipped triangle
171.0,5.0,1.0,1.0,1.0,1.0,572.8546910004297,4.0,1.0,phase_1,,,,,,,,,,,,,magenta,hexagon
0.0,5.0,0.0,1.0,3.0,3.0,455.1665019998836,4.0,1.0,phase_1,,,,,,,,,,,,,magenta,hexagon
184.0,5.0,1.0,1.0,3.0,3.0,489.7630559999015,4.0,1.0,phase_1,,,,,,,,,,,,,magenta,hexagon
347.0,2.0,2.0,0.0,1.0,1.0,471.9059620001644,4.0,1.0,phase_1,,,,,,,,,,,,,blue,circle
170.0,1.0,1.0,0.0,4.0,4.0,452.9308500000297,4.0,1.0,phase_1,,,,,,,,,,,,,green,cross
1304.0,4.0,4.0,0.0,3.0,3.0,443.8583500000277,4.0,1.0,phase_1,,,,,,,,,,,,,gray,square
172.0,5.0,1.0,1.0,3.0,3.0,489.8545930000182,4.0,1.0,phase_1,,,,,,,,,,,,,magenta,hexagon
0.0,8.0,0.0,1.0,2.0,2.0,379.8411769998893,4.0,1.0,phase_1,,,,,,,,,,,,,orange,triangle
0.0,5.0,0.0,1.0,3.0,3.0,453.2304240001394,4.0,1.0,phase_1,,,,,,,,,,,,,magenta,hexagon
1293.0,4.0,4.0,0.0,4.0,4.0,545.5467970000427,4.0,1.0,phase_1,,,,,,,,,,,,,gray,square
0.0,2.0,0.0,0.0,4.0,4.0,536.474311999882,4.0,1.0,phase_1,,,,,,,,,,,,,blue,circle
0.0,2.0,0.0,0.0,3.0,3.0,472.4748489998092,4.0,1.0,phase_1,,,,,,,,,,,,,blue,circle
1291.0,4.0,4.0,0.0,3.0,3.0,453.5128429997712,4.0,1.0,phase_1,,,,,,,,,,,,,gray,square
156.0,5.0,1.0,1.0,3.0,3.0,387.4692340000365,4.0,1.0,phase_1,,,,,,,,,,,,,magenta,hexagon
141.0,1.0,1.0,0.0,4.0,4.0,403.3512360001623,4.0,1.0,phase_1,,,,,,,,,,,,,green,cross
0.0,2.0,0.0,0.0,3.0,3.0,360.8924150003076,4.0,1.0,phase_1,,,,,,,,,,,,,blue,circle
635.0,7.0,3.0,1.0,2.0,2.0,636.8798210000932,4.0,1.0,phase_1,,,,,,,,,,,,,white,I
141.0,5.0,1.0,1.0,1.0,1.0,508.24406199990335,4.0,1.0,phase_1,,,,,,,,,,,,,magenta,hexagon
0.0,3.0,0.0,0.0,1.0,1.0,423.8905269999122,4.0,1.0,phase_1,,,,,,,,,,,,,cyan,flipped triangle
143.0,1.0,1.0,0.0,2.0,2.0,398.8719710000623,4.0,2.0,phase_1,,,,,,,,,,,,,green,cross
1298.0,4.0,4.0,0.0,3.0,3.0,409.1431320002812,4.0,1.0,phase_1,,,,,,,,,,,,,gray,square
1312.0,8.0,4.0,1.0,1.0,1.0,501.79428999990705,4.0,1.0,phase_1,,,,,,,,,,,,,orange,triangle
631.0,7.0,3.0,1.0,2.0,2.0,443.5869939998156,4.0,1.0,phase_1,,,,,,,,,,,,,white,I
633.0,7.0,3.0,1.0,1.0,1.0,592.2466409997469,4.0,1.0,phase_1,,,,,,,,,,,,,white,I
315.0,6.0,2.0,1.0,2.0,2.0,443.9238300001307,4.0,1.0,phase_1,,,,,,,,,,,,,yellow,diamond
639.0,3.0,3.0,0.0,2.0,2.0,351.9520969998666,4.0,1.0,phase_1,,,,,,,,,,,,,cyan,flipped triangle
0.0,7.0,0.0,1.0,3.0,3.0,388.9156570003251,4.0,1.0,phase_1,,,,,,,,,,,,,white,I
157.0,1.0,1.0,0.0,1.0,1.0,601.8066299998281,4.0,1.0,phase_1,,,,,,,,,,,,,green,cross
672.0,7.0,3.0,1.0,3.0,3.0,462.8538390002177,4.0,1.0,phase_1,,,,,,,,,,,,,white,I
629.0,3.0,3.0,0.0,1.0,1.0,443.5165469999447,4.0,1.0,phase_1,,,,,,,,,,,,,cyan,flipped triangle
0.0,5.0,1.0,1.0,6.0,0.0,0.0,1.0,1.0,phase_2,stop,250.0,250.0,4.0,,,,,,,,,magenta,hexagon
0.0,1.0,1.0,0.0,5.0,5.0,625.7633029999852,1.0,1.0,phase_2,go,250.0,300.0,1.0,,,,,,,,,green,cross
0.0,4.0,4.0,0.0,6.0,6.0,438.3594010000706,1.0,1.0,phase_2,go,250.0,300.0,1.0,,,,,,,,,gray,square
0.0,7.0,3.0,1.0,6.0,0.0,0.0,1.0,1.0,phase_2,stop,250.0,300.0,4.0,,,,,,,,,white,I
0.0,1.0,1.0,0.0,5.0,5.0,493.7238120000984,1.0,1.0,phase_2,go,250.0,350.0,1.0,,,,,,,,,green,cross
0.0,8.0,4.0,1.0,5.0,0.0,0.0,1.0,1.0,phase_2,stop,250.0,350.0,4.0,,,,,,,,,orange,triangle
0.0,1.0,1.0,0.0,5.0,5.0,643.6550859998533,1.0,1.0,phase_2,go,300.0,350.0,1.0,,,,,,,,,green,cross
0.0,8.0,4.0,1.0,6.0,0.0,0.0,1.0,1.0,phase_2,stop,300.0,350.0,4.0,,,,,,,,,orange,triangle
0.0,4.0,4.0,0.0,5.0,5.0,818.9825979998204,1.0,1.0,phase_2,go,300.0,400.0,1.0,,,,,,,,,gray,square
0.0,4.0,4.0,0.0,6.0,6.0,969.2584820004412,1.0,1.0,phase_2,go,300.0,400.0,1.0,,,,,,,,,gray,square
0.0,2.0,2.0,0.0,5.0,5.0,745.8094940002411,1.0,1.0,phase_2,go,300.0,400.0,1.0,,,,,,,,,blue,circle
0.0,6.0,2.0,1.0,5.0,0.0,0.0,1.0,1.0,phase_2,stop,300.0,400.0,4.0,,,,,,,,,yellow,diamond
0.0,6.0,2.0,1.0,5.0,5.0,719.6674960005112,1.0,1.0,phase_2,go,350.0,400.0,1.0,,,,,,,,,yellow,diamond
0.0,4.0,4.0,0.0,5.0,5.0,812.4414040003103,1.0,1.0,phase_2,go,350.0,400.0,1.0,,,,,,,,,gray,square
0.0,5.0,1.0,1.0,5.0,5.0,501.69032699977834,1.0,1.0,phase_2,stop,350.0,400.0,3.0,,,,,,,,,magenta,hexagon
0.0,8.0,4.0,1.0,5.0,0.0,0.0,1.0,1.0,phase_2,stop,300.0,400.0,4.0,,,,,,,,,orange,triangle
0.0,3.0,3.0,0.0,6.0,6.0,876.6033359997891,1.0,1.0,phase_2,go,350.0,400.0,1.0,,,,,,,,,cyan,flipped triangle
0.0,7.0,3.0,1.0,6.0,6.0,680.6691740002861,1.0,1.0,phase_2,go,350.0,400.0,1.0,,,,,,,,,white,I
0.0,6.0,2.0,1.0,6.0,6.0,881.5832370000862,1.0,1.0,phase_2,go,350.0,400.0,1.0,,,,,,,,,yellow,diamond
0.0,2.0,2.0,0.0,6.0,6.0,777.1880229993258,1.0,1.0,phase_2,go,350.0,400.0,1.0,,,,,,,,,blue,circle
0.0,8.0,4.0,1.0,5.0,0.0,0.0,1.0,1.0,phase_2,stop,350.0,400.0,4.0,,,,,,,,,orange,triangle
0.0,2.0,2.0,0.0,6.0,6.0,656.1858519999078,1.0,1.0,phase_2,go,400.0,400.0,1.0,,,,,,,,,blue,circle
0.0,2.0,2.0,0.0,5.0,5.0,729.489127999841,1.0,1.0,phase_2,go,400.0,400.0,1.0,,,,,,,,,blue,circle
0.0,2.0,2.0,0.0,6.0,6.0,900.0682949999828,1.0,1.0,phase_2,go,400.0,400.0,1.0,,,,,,,,,blue,circle
0.0,3.0,3.0,0.0,6.0,6.0,550.7736210001895,1.0,1.0,phase_2,go,400.0,400.0,1.0,,,,,,,,,cyan,flipped triangle
0.0,1.0,1.0,0.0,5.0,5.0,821.3218279997818,1.0,1.0,phase_2,go,400.0,400.0,1.0,,,,,,,,,green,cross
0.0,2.0,2.0,0.0,5.0,5.0,830.752429000313,1.0,1.0,phase_2,go,400.0,400.0,1.0,,,,,,,,,blue,circle
0.0,6.0,2.0,1.0,6.0,0.0,0.0,1.0,1.0,phase_2,stop,400.0,400.0,4.0,,,,,,,,,yellow,diamond
0.0,6.0,2.0,1.0,6.0,6.0,624.5296160004727,1.0,1.0,phase_2,go,400.0,450.0,1.0,,,,,,,,,yellow,diamond
0.0,7.0,3.0,1.0,6.0,6.0,677.3868730006143,1.0,1.0,phase_2,go,400.0,450.0,1.0,,,,,,,,,white,I
0.0,7.0,3.0,1.0,5.0,5.0,821.9673270004932,1.0,1.0,phase_2,go,400.0,450.0,1.0,,,,,,,,,white,I
0.0,1.0,1.0,0.0,6.0,6.0,990.3064430000086,1.0,1.0,phase_2,go,400.0,450.0,1.0,,,,,,,,,green,cross
0.0,2.0,2.0,0.0,6.0,6.0,746.609179999723,1.0,1.0,phase_2,go,400.0,450.0,1.0,,,,,,,,,blue,circle
0.0,7.0,3.0,1.0,5.0,0.0,0.0,1.0,1.0,phase_2,stop,400.0,450.0,4.0,,,,,,,,,white,I
0.0,7.0,3.0,1.0,5.0,0.0,0.0,1.0,1.0,phase_2,stop,450.0,450.0,4.0,,,,,,,,,white,I
0.0,6.0,2.0,1.0,6.0,6.0,524.2126590001135,1.0,1.0,phase_2,go,500.0,450.0,1.0,,,,,,,,,yellow,diamond
0.0,5.0,1.0,1.0,5.0,5.0,364.8610280006323,2.0,1.0,phase_2,stop,500.0,450.0,3.0,,,,,,,,,magenta,hexagon
0.0,8.0,4.0,1.0,6.0,6.0,372.2063909999633,2.0,1.0,phase_2,stop,450.0,450.0,3.0,,,,,,,,,orange,triangle
0.0,4.0,4.0,0.0,5.0,5.0,651.5675919999921,2.0,1.0,phase_2,go,450.0,400.0,1.0,,,,,,,,,gray,square
0.0,8.0,4.0,1.0,6.0,0.0,0.0,2.0,1.0,phase_2,stop,450.0,400.0,4.0,,,,,,,,,orange,triangle
0.0,5.0,1.0,1.0,5.0,5.0,736.1891270002161,2.0,1.0,phase_2,go,450.0,450.0,1.0,,,,,,,,,magenta,hexagon
0.0,6.0,2.0,1.0,6.0,0.0,0.0,2.0,1.0,phase_2,stop,450.0,450.0,4.0,,,,,,,,,yellow,diamond
0.0,1.0,1.0,0.0,6.0,6.0,774.093370000628,2.0,1.0,phase_2,go,450.0,500.0,1.0,,,,,,,,,green,cross
0.0,2.0,2.0,0.0,6.0,6.0,781.4258040007189,2.0,1.0,phase_2,go,450.0,500.0,1.0,,,,,,,,,blue,circle
0.0,7.0,3.0,1.0,5.0,5.0,522.1501550004177,2.0,1.0,phase_2,go,450.0,500.0,1.0,,,,,,,,,white,I
0.0,2.0,2.0,0.0,6.0,6.0,421.101617000204,2.0,1.0,phase_2,go,450.0,500.0,1.0,,,,,,,,,blue,circle
0.0,2.0,2.0,0.0,6.0,6.0,400.9525589999612,2.0,1.0,phase_2,go,450.0,500.0,1.0,,,,,,,,,blue,circle
0.0,6.0,2.0,1.0,5.0,0.0,0.0,2.0,1.0,phase_2,stop,450.0,500.0,4.0,,,,,,,,,yellow,diamond
0.0,4.0,4.0,0.0,6.0,6.0,521.7805749998661,2.0,1.0,phase_2,go,500.0,500.0,1.0,,,,,,,,,gray,square
0.0,1.0,1.0,0.0,6.0,6.0,374.7507120006048,2.0,1.0,phase_2,go,500.0,500.0,1.0,,,,,,,,,green,cross
0.0,4.0,4.0,0.0,6.0,6.0,485.7356740003524,2.0,1.0,phase_2,go,500.0,500.0,1.0,,,,,,,,,gray,square
0.0,8.0,4.0,1.0,5.0,0.0,0.0,2.0,1.0,phase_2,stop,500.0,500.0,4.0,,,,,,,,,orange,triangle
0.0,7.0,3.0,1.0,6.0,6.0,536.7314609993628,2.0,1.0,phase_2,stop,550.0,500.0,3.0,,,,,,,,,white,I
0.0,3.0,3.0,0.0,6.0,6.0,699.2665260004287,2.0,1.0,phase_2,go,550.0,450.0,1.0,,,,,,,,,cyan,flipped triangle
0.0,7.0,3.0,1.0,6.0,0.0,0.0,2.0,1.0,phase_2,stop,550.0,450.0,4.0,,,,,,,,,white,I
0.0,5.0,1.0,1.0,6.0,6.0,901.8831109997336,2.0,1.0,phase_2,go,550.0,500.0,1.0,,,,,,,,,magenta,hexagon
0.0,6.0,2.0,1.0,5.0,5.0,710.5601269995532,2.0,1.0,phase_2,stop,550.0,500.0,3.0,,,,,,,,,yellow,diamond
0.0,7.0,3.0,1.0,5.0,0.0,0.0,2.0,1.0,phase_2,stop,500.0,500.0,4.0,,,,,,,,,white,I
0.0,3.0,3.0,0.0,5.0,5.0,1147.5627990002977,2.0,1.0,phase_2,go,550.0,500.0,1.0,,,,,,,,,cyan,flipped triangle
0.0,7.0,3.0,1.0,6.0,6.0,335.7689619997472,2.0,1.0,phase_2,stop,550.0,500.0,3.0,,,,,,,,,white,I
0.0,5.0,1.0,1.0,6.0,0.0,0.0,2.0,1.0,phase_2,stop,550.0,450.0,4.0,,,,,,,,,magenta,hexagon
0.0,1.0,1.0,0.0,5.0,5.0,681.2701009994271,2.0,1.0,phase_2,go,550.0,500.0,1.0,,,,,,,,,green,cross
0.0,3.0,3.0,0.0,5.0,5.0,818.3535610005492,2.0,1.0,phase_2,go,550.0,500.0,1.0,,,,,,,,,cyan,flipped triangle
0.0,6.0,2.0,1.0,5.0,5.0,662.6082470002075,2.0,1.0,phase_2,go,550.0,500.0,1.0,,,,,,,,,yellow,diamond
0.0,6.0,2.0,1.0,6.0,6.0,411.1028060005992,2.0,1.0,phase_2,stop,550.0,500.0,3.0,,,,,,,,,yellow,diamond
0.0,2.0,2.0,0.0,5.0,0.0,0.0,2.0,1.0,phase_2,go,550.0,450.0,5.0,,,,,,,,,blue,circle
0.0,4.0,4.0,0.0,5.0,5.0,438.5478889998921,2.0,1.0,phase_2,go,550.0,450.0,1.0,,,,,,,,,gray,square
0.0,2.0,2.0,0.0,5.0,5.0,764.5759020006153,2.0,1.0,phase_2,go,550.0,450.0,1.0,,,,,,,,,blue,circle
0.0,5.0,1.0,1.0,6.0,6.0,866.0043840000071,2.0,1.0,phase_2,go,550.0,450.0,1.0,,,,,,,,,magenta,hexagon
0.0,4.0,4.0,0.0,6.0,6.0,437.8105619998678,2.0,1.0,phase_2,go,550.0,450.0,1.0,,,,,,,,,gray,square
0.0,5.0,1.0,1.0,5.0,5.0,648.0869180004447,2.0,1.0,phase_2,stop,550.0,450.0,3.0,,,,,,,,,magenta,hexagon
0.0,2.0,2.0,0.0,5.0,5.0,679.1570659997888,2.0,1.0,phase_2,go,500.0,450.0,1.0,,,,,,,,,blue,circle
0.0,1.0,1.0,0.0,6.0,6.0,793.8020359997608,3.0,1.0,phase_2,go,500.0,450.0,1.0,,,,,,,,,green,cross
0.0,3.0,3.0,0.0,6.0,6.0,541.9266650005738,3.0,1.0,phase_2,go,500.0,450.0,1.0,,,,,,,,,cyan,flipped triangle
0.0,1.0,1.0,0.0,6.0,6.0,457.5457930004631,3.0,1.0,phase_2,go,500.0,450.0,1.0,,,,,,,,,green,cross
0.0,1.0,1.0,0.0,5.0,5.0,588.7940699994942,3.0,1.0,phase_2,go,500.0,450.0,1.0,,,,,,,,,green,cross
0.0,7.0,3.0,1.0,5.0,5.0,486.8176179998045,3.0,1.0,phase_2,go,500.0,450.0,1.0,,,,,,,,,white,I
0.0,7.0,3.0,1.0,6.0,6.0,670.9063680000327,3.0,1.0,phase_2,go,500.0,450.0,1.0,,,,,,,,,white,I
0.0,3.0,3.0,0.0,6.0,6.0,449.7730909997699,3.0,1.0,phase_2,go,500.0,450.0,1.0,,,,,,,,,cyan,flipped triangle
0.0,8.0,4.0,1.0,5.0,5.0,411.2416289999601,3.0,1.0,phase_2,stop,500.0,450.0,3.0,,,,,,,,,orange,triangle
0.0,1.0,1.0,0.0,5.0,5.0,578.663090000191,3.0,1.0,phase_2,go,450.0,450.0,1.0,,,,,,,,,green,cross
0.0,3.0,3.0,0.0,5.0,5.0,655.9274360006384,3.0,1.0,phase_2,go,450.0,450.0,1.0,,,,,,,,,cyan,flipped triangle
0.0,6.0,2.0,1.0,5.0,5.0,504.92479799959256,3.0,1.0,phase_2,go,450.0,450.0,1.0,,,,,,,,,yellow,diamond
0.0,1.0,1.0,0.0,6.0,6.0,775.0682329997289,3.0,1.0,phase_2,go,450.0,450.0,1.0,,,,,,,,,green,cross
0.0,3.0,3.0,0.0,5.0,5.0,655.4453349999676,3.0,1.0,phase_2,go,450.0,450.0,1.0,,,,,,,,,cyan,flipped triangle
0.0,2.0,2.0,0.0,5.0,5.0,476.2932389994603,3.0,1.0,phase_2,go,450.0,450.0,1.0,,,,,,,,,blue,circle
0.0,7.0,3.0,1.0,5.0,5.0,421.9125409999833,3.0,1.0,phase_2,stop,450.0,450.0,3.0,,,,,,,,,white,I
0.0,4.0,4.0,0.0,6.0,6.0,782.9599090000556,3.0,1.0,phase_2,go,400.0,450.0,1.0,,,,,,,,,gray,square
0.0,3.0,3.0,0.0,5.0,5.0,1040.326119999918,3.0,1.0,phase_2,go,400.0,450.0,1.0,,,,,,,,,cyan,flipped triangle
0.0,8.0,4.0,1.0,5.0,0.0,0.0,3.0,1.0,phase_2,stop,400.0,450.0,4.0,,,,,,,,,orange,triangle
0.0,3.0,3.0,0.0,5.0,0.0,0.0,3.0,1.0,phase_2,go,450.0,450.0,5.0,,,,,,,,,cyan,flipped triangle
0.0,6.0,2.0,1.0,5.0,5.0,560.174545999871,3.0,1.0,phase_2,stop,450.0,450.0,3.0,,,,,,,,,yellow,diamond
0.0,6.0,2.0,1.0,6.0,6.0,343.9592149998134,3.0,1.0,phase_2,stop,400.0,450.0,3.0,,,,,,,,,yellow,diamond
0.0,1.0,1.0,0.0,6.0,6.0,669.6912050001629,3.0,1.0,phase_2,go,400.0,400.0,1.0,,,,,,,,,green,cross
0.0,1.0,1.0,0.0,5.0,5.0,719.0882599998076,3.0,1.0,phase_2,go,400.0,400.0,1.0,,,,,,,,,green,cross
0.0,7.0,3.0,1.0,5.0,0.0,0.0,3.0,1.0,phase_2,stop,400.0,400.0,4.0,,,,,,,,,white,I
0.0,4.0,4.0,0.0,5.0,5.0,733.6237830004393,3.0,1.0,phase_2,go,450.0,400.0,1.0,,,,,,,,,gray,square
0.0,8.0,4.0,1.0,6.0,6.0,604.704622999634,3.0,1.0,phase_2,go,450.0,400.0,1.0,,,,,,,,,orange,triangle
0.0,3.0,3.0,0.0,5.0,5.0,737.989471000219,3.0,1.0,phase_2,go,450.0,400.0,1.0,,,,,,,,,cyan,flipped triangle
0.0,2.0,2.0,0.0,6.0,6.0,494.3977750008343,3.0,1.0,phase_2,go,450.0,400.0,1.0,,,,,,,,,blue,circle
0.0,1.0,1.0,0.0,5.0,5.0,778.5854090006978,3.0,1.0,phase_2,go,450.0,400.0,1.0,,,,,,,,,green,cross
0.0,3.0,3.0,0.0,5.0,5.0,511.3268850000168,3.0,1.0,phase_2,go,450.0,400.0,1.0,,,,,,,,,cyan,flipped triangle
0.0,5.0,1.0,1.0,5.0,0.0,0.0,3.0,1.0,phase_2,stop,450.0,400.0,4.0,,,,,,,,,magenta,hexagon
0.0,5.0,1.0,1.0,6.0,0.0,0.0,3.0,1.0,phase_2,stop,500.0,400.0,4.0,,,,,,,,,magenta,hexagon
0.0,4.0,4.0,0.0,5.0,5.0,700.1557660005346,3.0,1.0,phase_2,go,500.0,450.0,1.0,,,,,,,,,gray,square
0.0,3.0,3.0,0.0,5.0,5.0,699.61592799973,3.0,1.0,phase_2,go,500.0,450.0,1.0,,,,,,,,,cyan,flipped triangle
0.0,4.0,4.0,0.0,6.0,6.0,876.5135920002649,3.0,1.0,phase_2,go,500.0,450.0,1.0,,,,,,,,,gray,square
0.0,6.0,2.0,1.0,5.0,0.0,0.0,3.0,1.0,phase_2,stop,500.0,450.0,4.0,,,,,,,,,yellow,diamond
0.0,5.0,1.0,1.0,5.0,5.0,1136.3556409996818,4.0,1.0,phase_2,go,550.0,450.0,1.0,,,,,,,,,magenta,hexagon
0.0,4.0,4.0,0.0,6.0,6.0,652.666321999277,4.0,1.0,phase_2,go,550.0,450.0,1.0,,,,,,,,,gray,square
0.0,3.0,3.0,0.0,5.0,5.0,644.3759979993047,4.0,1.0,phase_2,go,550.0,450.0,1.0,,,,,,,,,cyan,flipped triangle
0.0,7.0,3.0,1.0,6.0,6.0,412.9421729994647,4.0,1.0,phase_2,stop,550.0,450.0,3.0,,,,,,,,,white,I
0.0,2.0,2.0,0.0,6.0,6.0,696.6953199998898,4.0,1.0,phase_2,go,550.0,400.0,1.0,,,,,,,,,blue,circle
0.0,8.0,4.0,1.0,6.0,6.0,377.2286839994194,4.0,1.0,phase_2,stop,550.0,400.0,3.0,,,,,,,,,orange,triangle
0.0,7.0,3.0,1.0,6.0,0.0,0.0,4.0,1.0,phase_2,stop,550.0,350.0,4.0,,,,,,,,,white,I
0.0,8.0,4.0,1.0,5.0,5.0,618.7141279997377,4.0,1.0,phase_2,go,550.0,400.0,1.0,,,,,,,,,orange,triangle
0.0,3.0,3.0,0.0,6.0,6.0,704.9782489993959,4.0,1.0,phase_2,go,550.0,400.0,1.0,,,,,,,,,cyan,flipped triangle
0.0,8.0,4.0,1.0,6.0,0.0,0.0,4.0,1.0,phase_2,stop,550.0,400.0,4.0,,,,,,,,,orange,triangle
0.0,4.0,4.0,0.0,6.0,6.0,859.9645320000491,4.0,1.0,phase_2,go,550.0,450.0,1.0,,,,,,,,,gray,square
0.0,2.0,2.0,0.0,5.0,5.0,629.8523589994147,4.0,1.0,phase_2,go,550.0,450.0,1.0,,,,,,,,,blue,circle
0.0,8.0,4.0,1.0,5.0,0.0,0.0,4.0,1.0,phase_2,stop,550.0,450.0,4.0,,,,,,,,,orange,triangle
0.0,6.0,2.0,1.0,5.0,0.0,0.0,4.0,1.0,phase_2,stop,600.0,450.0,4.0,,,,,,,,,yellow,diamond
0.0,2.0,2.0,0.0,5.0,5.0,667.3907829999735,4.0,1.0,phase_2,go,650.0,450.0,1.0,,,,,,,,,blue,circle
0.0,3.0,3.0,0.0,5.0,5.0,1111.2789019998672,4.0,1.0,phase_2,go,650.0,450.0,1.0,,,,,,,,,cyan,flipped triangle
0.0,4.0,4.0,0.0,5.0,0.0,0.0,4.0,1.0,phase_2,go,650.0,450.0,5.0,,,,,,,,,gray,square
0.0,7.0,3.0,1.0,5.0,5.0,690.1596629995765,4.0,1.0,phase_2,go,650.0,450.0,1.0,,,,,,,,,white,I
0.0,6.0,2.0,1.0,5.0,0.0,0.0,4.0,1.0,phase_2,stop,650.0,450.0,4.0,,,,,,,,,yellow,diamond
0.0,5.0,1.0,1.0,6.0,6.0,370.3246880004371,4.0,1.0,phase_2,stop,700.0,450.0,3.0,,,,,,,,,magenta,hexagon
0.0,8.0,4.0,1.0,6.0,0.0,0.0,4.0,1.0,phase_2,stop,700.0,400.0,4.0,,,,,,,,,orange,triangle
0.0,4.0,4.0,0.0,5.0,5.0,787.2566619998906,4.0,1.0,phase_2,go,700.0,450.0,1.0,,,,,,,,,gray,square
0.0,7.0,3.0,1.0,5.0,5.0,649.3245530000422,4.0,1.0,phase_2,stop,700.0,450.0,3.0,,,,,,,,,white,I
0.0,3.0,3.0,0.0,5.0,5.0,938.0147400006535,4.0,1.0,phase_2,go,650.0,450.0,1.0,,,,,,,,,cyan,flipped triangle
0.0,7.0,3.0,1.0,5.0,5.0,783.7236660006965,4.0,1.0,phase_2,stop,650.0,450.0,3.0,,,,,,,,,white,I
0.0,1.0,1.0,0.0,6.0,6.0,750.3819519997705,4.0,1.0,phase_2,go,600.0,450.0,1.0,,,,,,,,,green,cross
0.0,8.0,4.0,1.0,5.0,5.0,763.8767680000456,4.0,1.0,phase_2,go,600.0,450.0,1.0,,,,,,,,,orange,triangle
0.0,8.0,4.0,1.0,6.0,6.0,432.5924550003037,4.0,1.0,phase_2,stop,600.0,450.0,3.0,,,,,,,,,orange,triangle
0.0,6.0,2.0,1.0,5.0,0.0,0.0,4.0,1.0,phase_2,stop,600.0,400.0,4.0,,,,,,,,,yellow,diamond
0.0,4.0,4.0,0.0,5.0,0.0,0.0,4.0,1.0,phase_2,go,650.0,400.0,5.0,,,,,,,,,gray,square
0.0,7.0,3.0,1.0,5.0,0.0,0.0,4.0,1.0,phase_2,stop,650.0,400.0,4.0,,,,,,,,,white,I
0.0,2.0,2.0,0.0,5.0,5.0,722.6094659999944,4.0,1.0,phase_2,go,700.0,400.0,1.0,,,,,,,,,blue,circle
0.0,6.0,2.0,1.0,5.0,0.0,0.0,4.0,1.0,phase_2,stop,700.0,400.0,4.0,,,,,,,,,yellow,diamond
0.0,3.0,3.0,0.0,5.0,5.0,912.626962000104,4.0,1.0,phase_2,go,750.0,400.0,1.0,,,,,,,,,cyan,flipped triangle
0.0,8.0,4.0,1.0,5.0,0.0,0.0,4.0,1.0,phase_2,stop,750.0,400.0,4.0,,,,,,,,,orange,triangle
0.0,8.0,4.0,1.0,5.0,0.0,0.0,4.0,1.0,phase_2,stop,800.0,400.0,4.0,,,,,,,,,orange,triangle
0.0,2.0,2.0,0.0,6.0,6.0,531.9861570005742,5.0,1.0,phase_2,go,850.0,400.0,1.0,,,,,,,,,blue,circle
0.0,2.0,2.0,0.0,6.0,6.0,502.90729500011366,5.0,1.0,phase_2,go,850.0,400.0,1.0,,,,,,,,,blue,circle
0.0,5.0,1.0,1.0,6.0,0.0,0.0,5.0,1.0,phase_2,stop,850.0,400.0,4.0,,,,,,,,,magenta,hexagon
0.0,5.0,1.0,1.0,5.0,5.0,614.6885110001676,5.0,1.0,phase_2,stop,850.0,450.0,3.0,,,,,,,,,magenta,hexagon
0.0,8.0,4.0,1.0,5.0,5.0,987.263381000048,5.0,1.0,phase_2,go,800.0,450.0,1.0,,,,,,,,,orange,triangle
0.0,4.0,4.0,0.0,5.0,5.0,923.9814649999972,5.0,1.0,phase_2,go,800.0,450.0,1.0,,,,,,,,,gray,square
0.0,5.0,1.0,1.0,5.0,5.0,904.0096440003254,5.0,1.0,phase_2,stop,800.0,450.0,3.0,,,,,,,,,magenta,hexagon
0.0,5.0,1.0,1.0,6.0,0.0,0.0,5.0,1.0,phase_2,stop,750.0,450.0,4.0,,,,,,,,,magenta,hexagon
0.0,7.0,3.0,1.0,5.0,5.0,790.1844519992665,5.0,1.0,phase_2,stop,750.0,500.0,3.0,,,,,,,,,white,I
0.0,5.0,1.0,1.0,5.0,5.0,1219.4892520001304,5.0,1.0,phase_2,go,700.0,500.0,1.0,,,,,,,,,magenta,hexagon
0.0,4.0,4.0,0.0,5.0,5.0,1051.8134929998268,5.0,1.0,phase_2,go,700.0,500.0,1.0,,,,,,,,,gray,square
0.0,1.0,1.0,0.0,5.0,5.0,904.8697759999412,5.0,1.0,phase_2,go,700.0,500.0,1.0,,,,,,,,,green,cross
0.0,7.0,3.0,1.0,5.0,0.0,0.0,5.0,1.0,phase_2,stop,700.0,500.0,4.0,,,,,,,,,white,I
0.0,2.0,2.0,0.0,6.0,6.0,941.1835710006926,5.0,1.0,phase_2,go,750.0,500.0,1.0,,,,,,,,,blue,circle
0.0,5.0,1.0,1.0,5.0,5.0,901.7398730002242,5.0,1.0,phase_2,stop,750.0,500.0,3.0,,,,,,,,,magenta,hexagon
0.0,3.0,3.0,0.0,6.0,6.0,977.6763580002809,5.0,1.0,phase_2,go,700.0,500.0,1.0,,,,,,,,,cyan,flipped triangle
0.0,5.0,1.0,1.0,6.0,0.0,0.0,5.0,1.0,phase_2,stop,700.0,500.0,4.0,,,,,,,,,magenta,hexagon
0.0,5.0,1.0,1.0,6.0,0.0,0.0,5.0,1.0,phase_2,stop,700.0,550.0,4.0,,,,,,,,,magenta,hexagon
0.0,6.0,2.0,1.0,6.0,6.0,651.803631999428,5.0,1.0,phase_2,stop,700.0,600.0,3.0,,,,,,,,,yellow,diamond
0.0,3.0,3.0,0.0,5.0,5.0,885.6955370001742,5.0,1.0,phase_2,go,700.0,550.0,1.0,,,,,,,,,cyan,flipped triangle
0.0,4.0,4.0,0.0,5.0,5.0,987.8227859999242,5.0,1.0,phase_2,go,700.0,550.0,1.0,,,,,,,,,gray,square
0.0,1.0,1.0,0.0,5.0,5.0,763.368249999985,5.0,1.0,phase_2,go,700.0,550.0,1.0,,,,,,,,,green,cross
0.0,1.0,1.0,0.0,6.0,6.0,623.4596619997319,5.0,1.0,phase_2,go,700.0,550.0,1.0,,,,,,,,,green,cross
0.0,3.0,3.0,0.0,6.0,6.0,457.1072140006436,5.0,1.0,phase_2,go,700.0,550.0,1.0,,,,,,,,,cyan,flipped triangle
0.0,6.0,2.0,1.0,6.0,0.0,0.0,5.0,1.0,phase_2,stop,700.0,550.0,4.0,,,,,,,,,yellow,diamond
0.0,5.0,1.0,1.0,6.0,0.0,0.0,5.0,1.0,phase_2,go,700.0,600.0,5.0,,,,,,,,,magenta,hexagon
0.0,6.0,2.0,1.0,6.0,0.0,0.0,5.0,1.0,phase_2,stop,700.0,600.0,4.0,,,,,,,,,yellow,diamond
0.0,8.0,4.0,1.0,6.0,6.0,690.801527000076,5.0,1.0,phase_2,stop,700.0,650.0,3.0,,,,,,,,,orange,triangle
0.0,1.0,1.0,0.0,6.0,6.0,999.1646969992872,5.0,1.0,phase_2,go,700.0,600.0,1.0,,,,,,,,,green,cross
0.0,8.0,4.0,1.0,6.0,6.0,373.3661599999323,5.0,1.0,phase_2,stop,700.0,600.0,3.0,,,,,,,,,orange,triangle
0.0,1.0,1.0,0.0,6.0,6.0,831.6897929998959,5.0,1.0,phase_2,go,700.0,550.0,1.0,,,,,,,,,green,cross
0.0,7.0,3.0,1.0,6.0,0.0,0.0,5.0,1.0,phase_2,stop,700.0,550.0,4.0,,,,,,,,,white,I
0.0,4.0,4.0,0.0,5.0,5.0,913.44951299925,5.0,1.0,phase_2,go,700.0,600.0,1.0,,,,,,,,,gray,square
0.0,8.0,4.0,1.0,6.0,0.0,0.0,5.0,1.0,phase_2,stop,700.0,600.0,4.0,,,,,,,,,orange,triangle
0.0,8.0,4.0,1.0,6.0,0.0,0.0,5.0,1.0,phase_2,stop,700.0,650.0,4.0,,,,,,,,,orange,triangle
0.0,4.0,4.0,0.0,6.0,0.0,0.0,5.0,1.0,phase_2,go,700.0,700.0,5.0,,,,,,,,,gray,square
0.0,3.0,3.0,0.0,6.0,6.0,597.2179880000112,6.0,1.0,phase_2,go,700.0,700.0,1.0,,,,,,,,,cyan,flipped triangle
0.0,4.0,4.0,0.0,5.0,5.0,356.2429399999018,6.0,1.0,phase_2,go,700.0,700.0,1.0,,,,,,,,,gray,square
0.0,2.0,2.0,0.0,6.0,6.0,608.6783060000016,6.0,1.0,phase_2,go,700.0,700.0,1.0,,,,,,,,,blue,circle
0.0,2.0,2.0,0.0,6.0,6.0,430.4836020000948,6.0,1.0,phase_2,go,700.0,700.0,1.0,,,,,,,,,blue,circle
0.0,8.0,4.0,1.0,5.0,5.0,662.139615000342,6.0,1.0,phase_2,stop,700.0,700.0,3.0,,,,,,,,,orange,triangle
0.0,1.0,1.0,0.0,5.0,5.0,775.0015790006728,6.0,1.0,phase_2,go,650.0,700.0,1.0,,,,,,,,,green,cross
0.0,5.0,1.0,1.0,5.0,0.0,0.0,6.0,1.0,phase_2,stop,650.0,700.0,4.0,,,,,,,,,magenta,hexagon
0.0,1.0,1.0,0.0,6.0,6.0,756.2692100000277,6.0,1.0,phase_2,go,700.0,700.0,1.0,,,,,,,,,green,cross
0.0,8.0,4.0,1.0,5.0,5.0,1180.357031999847,6.0,1.0,phase_2,go,700.0,700.0,1.0,,,,,,,,,orange,triangle
0.0,8.0,4.0,1.0,5.0,0.0,0.0,6.0,1.0,phase_2,stop,700.0,700.0,4.0,,,,,,,,,orange,triangle
0.0,1.0,1.0,0.0,5.0,5.0,1185.3561930001888,6.0,1.0,phase_2,go,750.0,700.0,1.0,,,,,,,,,green,cross
0.0,7.0,3.0,1.0,6.0,0.0,0.0,6.0,1.0,phase_2,stop,750.0,700.0,4.0,,,,,,,,,white,I
0.0,2.0,2.0,0.0,5.0,5.0,1279.8537990001932,6.0,1.0,phase_2,go,750.0,750.0,1.0,,,,,,,,,blue,circle
0.0,4.0,4.0,0.0,6.0,6.0,1465.6656300003306,6.0,1.0,phase_2,go,750.0,750.0,1.0,,,,,,,,,gray,square
0.0,7.0,3.0,1.0,6.0,6.0,446.8994620001467,6.0,1.0,phase_2,stop,750.0,750.0,3.0,,,,,,,,,white,I
0.0,3.0,3.0,0.0,6.0,6.0,699.4325770001524,6.0,1.0,phase_2,go,750.0,700.0,1.0,,,,,,,,,cyan,flipped triangle
0.0,8.0,4.0,1.0,6.0,6.0,910.0833239999702,6.0,1.0,phase_2,stop,750.0,700.0,3.0,,,,,,,,,orange,triangle
0.0,6.0,2.0,1.0,6.0,0.0,0.0,6.0,1.0,phase_2,stop,750.0,650.0,4.0,,,,,,,,,yellow,diamond
0.0,2.0,2.0,0.0,5.0,5.0,653.1811900003959,6.0,1.0,phase_2,go,750.0,700.0,1.0,,,,,,,,,blue,circle
0.0,3.0,3.0,0.0,5.0,5.0,719.5579290000751,6.0,1.0,phase_2,go,750.0,700.0,1.0,,,,,,,,,cyan,flipped triangle
0.0,1.0,1.0,0.0,6.0,6.0,1099.2190329998266,6.0,1.0,phase_2,go,750.0,700.0,1.0,,,,,,,,,green,cross
0.0,2.0,2.0,0.0,6.0,6.0,1084.6648249998907,6.0,1.0,phase_2,go,750.0,700.0,1.0,,,,,,,,,blue,circle
0.0,4.0,4.0,0.0,6.0,6.0,1304.3937800002825,6.0,1.0,phase_2,go,750.0,700.0,1.0,,,,,,,,,gray,square
0.0,5.0,1.0,1.0,6.0,6.0,735.9381040005246,6.0,1.0,phase_2,stop,750.0,700.0,3.0,,,,,,,,,magenta,hexagon
0.0,6.0,2.0,1.0,5.0,5.0,854.0409870001895,6.0,1.0,phase_2,stop,750.0,650.0,3.0,,,,,,,,,yellow,diamond
0.0,1.0,1.0,0.0,5.0,5.0,1063.0314970003385,6.0,1.0,phase_2,go,700.0,650.0,1.0,,,,,,,,,green,cross
0.0,7.0,3.0,1.0,6.0,0.0,0.0,6.0,1.0,phase_2,stop,700.0,650.0,4.0,,,,,,,,,white,I
0.0,2.0,2.0,0.0,6.0,6.0,957.5111120002476,6.0,1.0,phase_2,go,700.0,700.0,1.0,,,,,,,,,blue,circle
0.0,3.0,3.0,0.0,6.0,6.0,1201.7593390000911,6.0,1.0,phase_2,go,700.0,700.0,1.0,,,,,,,,,cyan,flipped triangle
0.0,2.0,2.0,0.0,6.0,6.0,894.8436509999738,6.0,1.0,phase_2,go,700.0,700.0,1.0,,,,,,,,,blue,circle
0.0,6.0,2.0,1.0,5.0,0.0,0.0,6.0,1.0,phase_2,stop,700.0,700.0,4.0,,,,,,,,,yellow,diamond
0.0,5.0,1.0,1.0,5.0,5.0,1229.9565209996215,6.0,1.0,phase_2,go,750.0,700.0,1.0,,,,,,,,,magenta,hexagon
0.0,3.0,3.0,0.0,6.0,6.0,978.4982880000824,6.0,1.0,phase_2,go,750.0,700.0,1.0,,,,,,,,,cyan,flipped triangle
0.0,7.0,3.0,1.0,6.0,6.0,578.0659980000564,6.0,1.0,phase_2,go,750.0,700.0,1.0,,,,,,,,,white,I
0.0,2.0,2.0,0.0,5.0,5.0,848.6621689999083,6.0,1.0,phase_2,go,750.0,700.0,1.0,,,,,,,,,blue,circle
0.0,5.0,1.0,1.0,6.0,6.0,839.8669150001297,6.0,1.0,phase_2,stop,750.0,700.0,3.0,,,,,,,,,magenta,hexagon
0.0,5.0,1.0,1.0,5.0,5.0,419.575383000847,7.0,1.0,phase_2,go,750.0,650.0,1.0,,,,,,,,,magenta,hexagon
0.0,2.0,2.0,0.0,5.0,5.0,515.787411999554,7.0,1.0,phase_2,go,750.0,650.0,1.0,,,,,,,,,blue,circle
0.0,2.0,2.0,0.0,5.0,5.0,437.2057410000707,7.0,1.0,phase_2,go,750.0,650.0,1.0,,,,,,,,,blue,circle
0.0,3.0,3.0,0.0,5.0,5.0,747.6189239996529,7.0,1.0,phase_2,go,750.0,650.0,1.0,,,,,,,,,cyan,flipped triangle
0.0,1.0,1.0,0.0,6.0,6.0,892.8301670002838,7.0,1.0,phase_2,go,750.0,650.0,1.0,,,,,,,,,green,cross
0.0,8.0,4.0,1.0,6.0,6.0,671.8828060002124,7.0,1.0,phase_2,go,750.0,650.0,1.0,,,,,,,,,orange,triangle
0.0,3.0,3.0,0.0,5.0,5.0,784.2530020006961,7.0,1.0,phase_2,go,750.0,650.0,1.0,,,,,,,,,cyan,flipped triangle
0.0,6.0,2.0,1.0,6.0,0.0,0.0,7.0,1.0,phase_2,stop,750.0,650.0,4.0,,,,,,,,,yellow,diamond
0.0,6.0,2.0,1.0,6.0,6.0,932.8633859995534,7.0,1.0,phase_2,go,750.0,700.0,1.0,,,,,,,,,yellow,diamond
0.0,5.0,1.0,1.0,6.0,0.0,0.0,7.0,1.0,phase_2,stop,750.0,700.0,4.0,,,,,,,,,magenta,hexagon
0.0,7.0,3.0,1.0,5.0,0.0,0.0,7.0,1.0,phase_2,stop,750.0,750.0,4.0,,,,,,,,,white,I
0.0,7.0,3.0,1.0,6.0,0.0,0.0,7.0,1.0,phase_2,stop,800.0,750.0,4.0,,,,,,,,,white,I
0.0,4.0,4.0,0.0,6.0,6.0,1032.756292999693,7.0,1.0,phase_2,go,800.0,800.0,1.0,,,,,,,,,gray,square
0.0,6.0,2.0,1.0,5.0,0.0,0.0,7.0,1.0,phase_2,stop,800.0,800.0,4.0,,,,,,,,,yellow,diamond
0.0,4.0,4.0,0.0,6.0,6.0,1328.7817230002474,7.0,1.0,phase_2,go,850.0,800.0,1.0,,,,,,,,,gray,square
0.0,2.0,2.0,0.0,5.0,5.0,1117.6592530000562,7.0,1.0,phase_2,go,850.0,800.0,1.0,,,,,,,,,blue,circle
0.0,4.0,4.0,0.0,5.0,5.0,893.221490000542,7.0,1.0,phase_2,go,850.0,800.0,1.0,,,,,,,,,gray,square
0.0,6.0,2.0,1.0,6.0,0.0,0.0,7.0,1.0,phase_2,stop,850.0,800.0,4.0,,,,,,,,,yellow,diamond
0.0,4.0,4.0,0.0,5.0,5.0,1118.596991999766,7.0,1.0,phase_2,go,850.0,850.0,1.0,,,,,,,,,gray,square
0.0,6.0,2.0,1.0,6.0,0.0,0.0,7.0,1.0,phase_2,stop,850.0,850.0,4.0,,,,,,,,,yellow,diamond
0.0,1.0,1.0,0.0,5.0,5.0,841.9114670005001,7.0,1.0,phase_2,go,850.0,900.0,1.0,,,,,,,,,green,cross
0.0,7.0,3.0,1.0,6.0,6.0,401.4846820000457,7.0,1.0,phase_2,stop,850.0,900.0,3.0,,,,,,,,,white,I
0.0,8.0,4.0,1.0,5.0,0.0,0.0,7.0,1.0,phase_2,stop,850.0,850.0,4.0,,,,,,,,,orange,triangle
0.0,3.0,3.0,0.0,6.0,6.0,875.6981689994063,7.0,1.0,phase_2,go,900.0,850.0,1.0,,,,,,,,,cyan,flipped triangle
0.0,4.0,4.0,0.0,6.0,6.0,1100.1873599998362,7.0,1.0,phase_2,go,900.0,850.0,1.0,,,,,,,,,gray,square
0.0,6.0,2.0,1.0,5.0,0.0,0.0,7.0,1.0,phase_2,stop,900.0,850.0,4.0,,,,,,,,,yellow,diamond
0.0,2.0,2.0,0.0,5.0,5.0,1249.8359410001283,7.0,1.0,phase_2,go,950.0,850.0,1.0,,,,,,,,,blue,circle
0.0,7.0,3.0,1.0,5.0,5.0,915.0061179998374,7.0,1.0,phase_2,stop,950.0,850.0,3.0,,,,,,,,,white,I
0.0,6.0,2.0,1.0,5.0,5.0,1127.5218340006177,7.0,1.0,phase_2,go,900.0,850.0,1.0,,,,,,,,,yellow,diamond
0.0,1.0,1.0,0.0,5.0,0.0,0.0,7.0,1.0,phase_2,go,900.0,850.0,5.0,,,,,,,,,green,cross
0.0,8.0,4.0,1.0,6.0,6.0,410.95295300056017,7.0,1.0,phase_2,go,900.0,850.0,1.0,,,,,,,,,orange,triangle
0.0,2.0,2.0,0.0,6.0,6.0,1499.6040460000586,7.0,1.0,phase_2,go,900.0,850.0,1.0,,,,,,,,,blue,circle
0.0,7.0,3.0,1.0,6.0,6.0,886.8905750005069,7.0,1.0,phase_2,stop,900.0,850.0,3.0,,,,,,,,,white,I
0.0,5.0,1.0,1.0,5.0,0.0,0.0,7.0,1.0,phase_2,stop,900.0,800.0,4.0,,,,,,,,,magenta,hexagon
0.0,8.0,4.0,1.0,5.0,5.0,999.6884900001533,7.0,1.0,phase_2,stop,950.0,800.0,3.0,,,,,,,,,orange,triangle
0.0,4.0,4.0,0.0,6.0,6.0,1034.3974899997193,7.0,1.0,phase_2,go,900.0,800.0,1.0,,,,,,,,,gray,square
0.0,8.0,4.0,1.0,6.0,6.0,596.9267199998285,8.0,1.0,phase_2,stop,900.0,800.0,3.0,,,,,,,,,orange,triangle
0.0,3.0,3.0,0.0,6.0,6.0,727.7885829998922,8.0,1.0,phase_2,go,900.0,750.0,1.0,,,,,,,,,cyan,flipped triangle
0.0,7.0,3.0,1.0,5.0,5.0,954.2630910000298,8.0,1.0,phase_2,stop,900.0,750.0,3.0,,,,,,,,,white,I
0.0,8.0,4.0,1.0,5.0,5.0,921.303624999382,8.0,1.0,phase_2,stop,850.0,750.0,3.0,,,,,,,,,orange,triangle
0.0,1.0,1.0,0.0,6.0,6.0,849.6832310001992,8.0,1.0,phase_2,go,800.0,750.0,1.0,,,,,,,,,green,cross
0.0,5.0,1.0,1.0,6.0,6.0,866.2857479994273,8.0,1.0,phase_2,stop,800.0,750.0,3.0,,,,,,,,,magenta,hexagon
0.0,1.0,1.0,0.0,6.0,6.0,1025.212033000571,8.0,1.0,phase_2,go,800.0,700.0,1.0,,,,,,,,,green,cross
0.0,5.0,1.0,1.0,5.0,5.0,1101.2710459999653,8.0,1.0,phase_2,go,800.0,700.0,1.0,,,,,,,,,magenta,hexagon
0.0,6.0,2.0,1.0,6.0,0.0,0.0,8.0,1.0,phase_2,stop,800.0,700.0,4.0,,,,,,,,,yellow,diamond
0.0,3.0,3.0,0.0,6.0,6.0,1229.7984269998778,8.0,1.0,phase_2,go,800.0,750.0,1.0,,,,,,,,,cyan,flipped triangle
0.0,5.0,1.0,1.0,6.0,6.0,873.4501870003442,8.0,1.0,phase_2,stop,800.0,750.0,3.0,,,,,,,,,magenta,hexagon
0.0,6.0,2.0,1.0,5.0,0.0,0.0,8.0,1.0,phase_2,stop,800.0,700.0,4.0,,,,,,,,,yellow,diamond
0.0,6.0,2.0,1.0,6.0,0.0,0.0,8.0,1.0,phase_2,go,850.0,700.0,5.0,,,,,,,,,yellow,diamond
0.0,8.0,4.0,1.0,6.0,6.0,924.9682600002416,8.0,1.0,phase_2,go,850.0,700.0,1.0,,,,,,,,,orange,triangle
0.0,8.0,4.0,1.0,6.0,6.0,1184.0482240004349,8.0,1.0,phase_2,go,850.0,700.0,1.0,,,,,,,,,orange,triangle
0.0,3.0,3.0,0.0,5.0,5.0,884.9607379997906,8.0,1.0,phase_2,go,850.0,700.0,1.0,,,,,,,,,cyan,flipped triangle
0.0,7.0,3.0,1.0,5.0,5.0,753.092492000178,8.0,1.0,phase_2,go,850.0,700.0,1.0,,,,,,,,,white,I
0.0,2.0,2.0,0.0,5.0,5.0,839.6242029994028,8.0,1.0,phase_2,go,850.0,700.0,1.0,,,,,,,,,blue,circle
0.0,1.0,1.0,0.0,6.0,6.0,929.0598890002002,8.0,1.0,phase_2,go,850.0,700.0,1.0,,,,,,,,,green,cross
0.0,7.0,3.0,1.0,6.0,0.0,0.0,8.0,1.0,phase_2,stop,850.0,700.0,4.0,,,,,,,,,white,I
0.0,5.0,1.0,1.0,5.0,5.0,653.1107290002183,8.0,1.0,phase_2,stop,850.0,750.0,3.0,,,,,,,,,magenta,hexagon
0.0,4.0,4.0,0.0,5.0,5.0,1034.3574869993972,8.0,1.0,phase_2,go,800.0,750.0,1.0,,,,,,,,,gray,square
0.0,1.0,1.0,0.0,5.0,5.0,853.226848000304,8.0,1.0,phase_2,go,800.0,750.0,1.0,,,,,,,,,green,cross
0.0,5.0,1.0,1.0,6.0,6.0,800.1617039999473,8.0,1.0,phase_2,stop,800.0,750.0,3.0,,,,,,,,,magenta,hexagon
0.0,5.0,1.0,1.0,6.0,0.0,0.0,8.0,1.0,phase_2,stop,800.0,700.0,4.0,,,,,,,,,magenta,hexagon
0.0,5.0,1.0,1.0,5.0,0.0,0.0,8.0,1.0,phase_2,stop,800.0,750.0,4.0,,,,,,,,,magenta,hexagon
0.0,3.0,3.0,0.0,6.0,6.0,958.4149909996996,8.0,1.0,phase_2,go,850.0,750.0,1.0,,,,,,,,,cyan,flipped triangle
0.0,5.0,1.0,1.0,5.0,5.0,901.5051330006828,8.0,1.0,phase_2,stop,850.0,750.0,3.0,,,,,,,,,magenta,hexagon
0.0,4.0,4.0,0.0,6.0,6.0,929.1750180000236,8.0,1.0,phase_2,go,800.0,750.0,1.0,,,,,,,,,gray,square
0.0,4.0,4.0,0.0,5.0,5.0,1131.023828999787,8.0,1.0,phase_2,go,800.0,750.0,1.0,,,,,,,,,gray,square
0.0,6.0,2.0,1.0,6.0,6.0,700.7504739995056,8.0,1.0,phase_2,stop,800.0,750.0,3.0,,,,,,,,,yellow,diamond
0.0,3.0,3.0,0.0,6.0,6.0,1054.138587000125,8.0,1.0,phase_2,go,800.0,700.0,1.0,,,,,,,,,cyan,flipped triangle
0.0,3.0,3.0,0.0,6.0,6.0,857.1397539999452,8.0,1.0,phase_2,go,800.0,700.0,1.0,,,,,,,,,cyan,flipped triangle
0.0,1.0,1.0,0.0,5.0,5.0,718.4954180002023,8.0,1.0,phase_2,go,800.0,700.0,1.0,,,,,,,,,green,cross
0.0,1.0,1.0,0.0,6.0,6.0,773.9186759999939,8.0,1.0,phase_2,go,800.0,700.0,1.0,,,,,,,,,green,cross
0.0,4.0,4.0,0.0,6.0,0.0,0.0,8.0,1.0,phase_2,go,800.0,700.0,5.0,,,,,,,,,gray,square
0.0,6.0,2.0,1.0,7.0,3.0,0.5513100004463,1.0,1.0,phase_3,,,,,696.0,6.0,464.0,580.0,696.0,232.0,348.0,116.0,yellow,diamond
0.0,8.0,4.0,1.0,7.0,2.0,0.3641319999587,1.0,1.0,phase_3,,,,,154.0,1.0,770.0,154.0,462.0,616.0,308.0,924.0,orange,triangle
0.0,6.0,2.0,1.0,7.0,3.0,2682.6858929998707,1.0,1.0,phase_3,,,,,692.0,4.0,865.0,519.0,692.0,1038.0,346.0,173.0,yellow,diamond
0.0,1.0,1.0,0.0,7.0,4.0,890.6705150002381,1.0,1.0,phase_3,,,,,540.0,4.0,135.0,675.0,810.0,540.0,270.0,405.0,green,cross
0.0,7.0,3.0,1.0,7.0,5.0,474.3544419998216,1.0,1.0,phase_3,,,,,348.0,3.0,232.0,464.0,580.0,696.0,348.0,116.0,white,I
0.0,5.0,1.0,1.0,7.0,6.0,3167.399566999848,1.0,1.0,phase_3,,,,,1152.0,6.0,384.0,768.0,576.0,192.0,960.0,1152.0,magenta,hexagon
0.0,1.0,1.0,0.0,7.0,2.0,412.3015780005516,1.0,1.0,phase_3,,,,,232.0,2.0,696.0,232.0,348.0,580.0,464.0,116.0,green,cross
0.0,7.0,3.0,1.0,7.0,5.0,9.952245000022199,1.0,1.0,phase_3,,,,,173.0,1.0,692.0,1038.0,519.0,346.0,173.0,865.0,white,I
0.0,5.0,1.0,1.0,7.0,6.0,361.7974669996329,1.0,1.0,phase_3,,,,,675.0,5.0,810.0,405.0,270.0,540.0,135.0,675.0,magenta,hexagon
0.0,1.0,1.0,0.0,7.0,3.0,0.195622999854,1.0,1.0,phase_3,,,,,384.0,2.0,192.0,768.0,384.0,1152.0,576.0,960.0,green,cross
0.0,6.0,2.0,1.0,7.0,3.0,2390.9747739999148,1.0,1.0,phase_3,,,,,308.0,2.0,462.0,154.0,308.0,770.0,924.0,616.0,yellow,diamond
0.0,5.0,1.0,1.0,7.0,6.0,0.2618559992697,1.0,1.0,phase_3,,,,,462.0,3.0,770.0,924.0,308.0,154.0,616.0,462.0,magenta,hexagon
0.0,1.0,1.0,0.0,7.0,3.0,1858.2887820002725,1.0,1.0,phase_3,,,,,308.0,2.0,770.0,924.0,308.0,462.0,154.0,616.0,green,cross
0.0,2.0,2.0,0.0,7.0,1.0,0.25292499958590003,1.0,1.0,phase_3,,,,,696.0,6.0,696.0,116.0,232.0,464.0,348.0,580.0,blue,circle
0.0,7.0,3.0,1.0,7.0,5.0,0.2316740001333,1.0,1.0,phase_3,,,,,768.0,4.0,1152.0,192.0,576.0,960.0,768.0,384.0,white,I
0.0,7.0,3.0,1.0,7.0,5.0,0.2951090000351,1.0,1.0,phase_3,,,,,692.0,4.0,346.0,519.0,865.0,173.0,692.0,1038.0,white,I
0.0,1.0,1.0,0.0,7.0,4.0,0.2618810003696,1.0,1.0,phase_3,,,,,173.0,1.0,865.0,519.0,692.0,173.0,1038.0,346.0,green,cross
0.0,8.0,4.0,1.0,7.0,3.0,102.33955700005019,1.0,1.0,phase_3,,,,,384.0,2.0,192.0,768.0,384.0,960.0,576.0,1152.0,orange,triangle
0.0,4.0,4.0,0.0,7.0,2.0,288.2437950001986,1.0,1.0,phase_3,,,,,1038.0,6.0,346.0,1038.0,173.0,865.0,692.0,519.0,gray,square
0.0,5.0,1.0,1.0,7.0,6.0,703.6086019998038,1.0,1.0,phase_3,,,,,696.0,6.0,464.0,116.0,232.0,580.0,348.0,696.0,magenta,hexagon
0.0,4.0,4.0,0.0,7.0,2.0,314.91902899961127,2.0,1.0,phase_3,,,,,154.0,1.0,616.0,154.0,770.0,924.0,462.0,308.0,gray,square
0.0,2.0,2.0,0.0,7.0,1.0,1142.3045270003058,2.0,1.0,phase_3,,,,,924.0,6.0,924.0,308.0,462.0,770.0,154.0,616.0,blue,circle
0.0,7.0,3.0,1.0,7.0,5.0,396.8861439998363,2.0,1.0,phase_3,,,,,616.0,4.0,770.0,154.0,924.0,308.0,616.0,462.0,white,I
0.0,6.0,2.0,1.0,7.0,3.0,138.7279760001547,2.0,1.0,phase_3,,,,,173.0,1.0,1038.0,346.0,173.0,865.0,692.0,519.0,yellow,diamond
0.0,2.0,2.0,0.0,7.0,1.0,0.2851939998436,2.0,1.0,phase_3,,,,,270.0,2.0,270.0,135.0,675.0,405.0,810.0,540.0,blue,circle
0.0,7.0,3.0,1.0,7.0,5.0,0.2704670005186,2.0,1.0,phase_3,,,,,924.0,6.0,616.0,770.0,154.0,308.0,924.0,462.0,white,I
0.0,3.0,3.0,0.0,7.0,3.0,248.5766079998939,2.0,1.0,phase_3,,,,,580.0,5.0,348.0,116.0,580.0,464.0,232.0,696.0,cyan,flipped triangle
0.0,5.0,1.0,1.0,7.0,6.0,525.7623420002346,2.0,1.0,phase_3,,,,,346.0,2.0,1038.0,519.0,173.0,865.0,692.0,346.0,magenta,hexagon
0.0,7.0,3.0,1.0,7.0,5.0,1212.7566770004703,2.0,1.0,phase_3,,,,,675.0,5.0,270.0,810.0,135.0,405.0,675.0,540.0,white,I
0.0,8.0,4.0,1.0,7.0,3.0,749.6322770002735,2.0,1.0,phase_3,,,,,348.0,3.0,232.0,116.0,348.0,696.0,464.0,580.0,orange,triangle
0.0,4.0,4.0,0.0,7.0,2.0,1054.5192190002126,2.0,1.0,phase_3,,,,,232.0,2.0,348.0,232.0,116.0,696.0,580.0,464.0,gray,square
0.0,3.0,3.0,0.0,7.0,3.0,1256.328670000585,2.0,1.0,phase_3,,,,,810.0,6.0,270.0,405.0,810.0,540.0,135.0,675.0,cyan,flipped triangle
0.0,4.0,4.0,0.0,7.0,4.0,3657.2798950001015,2.0,1.0,phase_3,,,,,540.0,4.0,270.0,135.0,675.0,540.0,405.0,810.0,gray,square
0.0,3.0,3.0,0.0,7.0,4.0,4361.331843999324,2.0,1.0,phase_3,,,,,270.0,2.0,675.0,540.0,405.0,270.0,135.0,810.0,cyan,flipped triangle
0.0,8.0,4.0,1.0,7.0,1.0,4835.634240000218,2.0,1.0,phase_3,,,,,675.0,5.0,675.0,540.0,270.0,405.0,135.0,810.0,orange,triangle
0.0,1.0,1.0,0.0,7.0,3.0,2712.4992749995727,2.0,1.0,phase_3,,,,,232.0,2.0,580.0,464.0,232.0,116.0,348.0,696.0,green,cross
0.0,2.0,2.0,0.0,7.0,2.0,2415.8224789998712,2.0,1.0,phase_3,,,,,1038.0,6.0,692.0,1038.0,519.0,865.0,173.0,346.0,blue,circle
0.0,1.0,1.0,0.0,7.0,3.0,3909.217650999381,2.0,1.0,phase_3,,,,,616.0,4.0,154.0,924.0,616.0,770.0,308.0,462.0,green,cross
0.0,5.0,1.0,1.0,7.0,1.0,377.347421000195,2.0,2.0,phase_3,,,,,346.0,2.0,346.0,692.0,865.0,519.0,1038.0,173.0,magenta,hexagon
0.0,3.0,3.0,0.0,7.0,4.0,3120.744132999789,2.0,1.0,phase_3,,,,,1038.0,6.0,865.0,173.0,346.0,1038.0,692.0,519.0,cyan,flipped triangle
0.0,7.0,3.0,1.0,7.0,1.0,2564.0608619996783,3.0,1.0,phase_3,,,,,192.0,1.0,192.0,1152.0,384.0,576.0,768.0,960.0,white,I
0.0,3.0,3.0,0.0,7.0,3.0,2315.873759000169,3.0,1.0,phase_3,,,,,116.0,1.0,232.0,464.0,116.0,348.0,696.0,580.0,cyan,flipped triangle
0.0,4.0,4.0,0.0,7.0,6.0,2278.1298019999667,3.0,1.0,phase_3,,,,,810.0,6.0,675.0,540.0,405.0,270.0,135.0,810.0,gray,square
0.0,7.0,3.0,1.0,7.0,3.0,3877.926422000201,3.0,1.0,phase_3,,,,,270.0,2.0,405.0,540.0,270.0,135.0,675.0,810.0,white,I
0.0,4.0,4.0,0.0,7.0,2.0,2577.434214999812,3.0,1.0,phase_3,,,,,865.0,5.0,1038.0,865.0,173.0,692.0,519.0,346.0,gray,square
0.0,5.0,1.0,1.0,7.0,4.0,2074.9574820001726,3.0,1.0,phase_3,,,,,960.0,5.0,576.0,768.0,1152.0,960.0,192.0,384.0,magenta,hexagon
0.0,1.0,1.0,0.0,7.0,3.0,1514.5084559999304,3.0,1.0,phase_3,,,,,384.0,2.0,768.0,960.0,384.0,1152.0,576.0,192.0,green,cross
0.0,3.0,3.0,0.0,7.0,3.0,3572.566508999444,3.0,1.0,phase_3,,,,,462.0,3.0,924.0,308.0,462.0,154.0,770.0,616.0,cyan,flipped triangle
0.0,6.0,2.0,1.0,7.0,3.0,1726.8021310001131,3.0,1.0,phase_3,,,,,810.0,6.0,675.0,135.0,810.0,405.0,270.0,540.0,yellow,diamond
0.0,2.0,2.0,0.0,7.0,4.0,1117.4324290004731,3.0,1.0,phase_3,,,,,405.0,3.0,675.0,135.0,810.0,405.0,540.0,270.0,blue,circle
0.0,4.0,4.0,0.0,7.0,3.0,1392.936706999535,3.0,1.0,phase_3,,,,,770.0,5.0,924.0,462.0,770.0,308.0,154.0,616.0,gray,square
0.0,4.0,4.0,0.0,7.0,3.0,701.6288940003506,3.0,1.0,phase_3,,,,,960.0,5.0,576.0,384.0,960.0,1152.0,192.0,768.0,gray,square
0.0,2.0,2.0,0.0,7.0,4.0,371.446135000042,3.0,1.0,phase_3,,,,,384.0,2.0,768.0,576.0,192.0,384.0,1152.0,960.0,blue,circle
0.0,6.0,2.0,1.0,7.0,4.0,387.455143999432,3.0,1.0,phase_3,,,,,768.0,4.0,192.0,1152.0,576.0,768.0,384.0,960.0,yellow,diamond
0.0,2.0,2.0,0.0,7.0,5.0,0.2664230005393,3.0,1.0,phase_3,,,,,770.0,5.0,308.0,154.0,462.0,924.0,770.0,616.0,blue,circle
0.0,6.0,2.0,1.0,7.0,2.0,1334.7721970003477,3.0,1.0,phase_3,,,,,770.0,5.0,924.0,770.0,616.0,462.0,154.0,308.0,yellow,diamond
0.0,5.0,1.0,1.0,7.0,3.0,4573.868575999768,3.0,1.0,phase_3,,,,,810.0,6.0,540.0,675.0,810.0,270.0,135.0,405.0,magenta,hexagon
0.0,8.0,4.0,1.0,7.0,5.0,1003.3977200000663,3.0,1.0,phase_3,,,,,348.0,3.0,232.0,696.0,580.0,464.0,348.0,116.0,orange,triangle
0.0,5.0,1.0,1.0,7.0,5.0,296.5705309998157,3.0,1.0,phase_3,,,,,348.0,3.0,464.0,116.0,232.0,696.0,348.0,580.0,magenta,hexagon
0.0,6.0,2.0,1.0,7.0,4.0,674.9191389999396,3.0,1.0,phase_3,,,,,464.0,4.0,580.0,696.0,232.0,464.0,116.0,348.0,yellow,diamond
0.0,8.0,4.0,1.0,7.0,1.0,3687.932386999819,4.0,1.0,phase_3,,,,,576.0,3.0,576.0,192.0,960.0,384.0,768.0,1152.0,orange,triangle
0.0,6.0,2.0,1.0,7.0,3.0,2500.7476079999838,4.0,1.0,phase_3,,,,,960.0,5.0,384.0,1152.0,960.0,768.0,576.0,192.0,yellow,diamond
0.0,3.0,3.0,0.0,7.0,1.0,2725.872912000341,4.0,1.0,phase_3,,,,,346.0,2.0,346.0,173.0,865.0,692.0,519.0,1038.0,cyan,flipped triangle
0.0,2.0,2.0,0.0,7.0,1.0,3184.805539000081,4.0,1.0,phase_3,,,,,1152.0,6.0,1152.0,576.0,960.0,384.0,768.0,192.0,blue,circle
0.0,1.0,1.0,0.0,7.0,5.0,1505.4793930003143,4.0,1.0,phase_3,,,,,173.0,1.0,1038.0,692.0,346.0,865.0,173.0,519.0,green,cross
0.0,5.0,1.0,1.0,7.0,3.0,2005.5322039997918,4.0,1.0,phase_3,,,,,462.0,3.0,770.0,616.0,462.0,154.0,924.0,308.0,magenta,hexagon
0.0,2.0,2.0,0.0,7.0,5.0,4472.108257999935,4.0,1.0,phase_3,,,,,696.0,6.0,464.0,348.0,116.0,580.0,696.0,232.0,blue,circle
0.0,8.0,4.0,1.0,7.0,2.0,4173.8621709992,4.0,1.0,phase_3,,,,,346.0,2.0,865.0,346.0,1038.0,173.0,692.0,519.0,orange,triangle
0.0,3.0,3.0,0.0,7.0,6.0,3678.0288899999514,4.0,1.0,phase_3,,,,,1152.0,6.0,384.0,576.0,768.0,192.0,960.0,1152.0,cyan,flipped triangle
0.0,1.0,1.0,0.0,7.0,2.0,3418.062361000011,4.0,1.0,phase_3,,,,,405.0,3.0,810.0,405.0,675.0,270.0,135.0,540.0,green,cross
0.0,7.0,3.0,1.0,7.0,6.0,2973.3098779997817,4.0,1.0,phase_3,,,,,580.0,5.0,116.0,348.0,464.0,696.0,232.0,580.0,white,I
0.0,4.0,4.0,0.0,7.0,2.0,2041.452780000327,4.0,1.0,phase_3,,,,,580.0,5.0,696.0,580.0,116.0,464.0,348.0,232.0,gray,square
0.0,6.0,2.0,1.0,7.0,5.0,4009.412276999683,4.0,1.0,phase_3,,,,,540.0,4.0,405.0,810.0,270.0,675.0,540.0,135.0,yellow,diamond
0.0,8.0,4.0,1.0,7.0,4.0,2536.7180859993823,4.0,1.0,phase_3,,,,,675.0,5.0,270.0,135.0,405.0,675.0,810.0,540.0,orange,triangle
0.0,8.0,4.0,1.0,7.0,5.0,4148.202585000036,4.0,1.0,phase_3,,,,,770.0,5.0,616.0,462.0,924.0,154.0,770.0,308.0,orange,triangle
0.0,4.0,4.0,0.0,7.0,6.0,1966.2232539994875,4.0,1.0,phase_3,,,,,1152.0,6.0,384.0,960.0,192.0,768.0,576.0,1152.0,gray,square
0.0,2.0,2.0,0.0,7.0,4.0,868.5947859994485,4.0,1.0,phase_3,,,,,173.0,1.0,692.0,519.0,865.0,173.0,1038.0,346.0,blue,circle
0.0,3.0,3.0,0.0,7.0,6.0,2007.5660809998226,4.0,1.0,phase_3,,,,,770.0,5.0,308.0,924.0,462.0,616.0,154.0,770.0,cyan,flipped triangle
0.0,8.0,4.0,1.0,7.0,4.0,3841.485257999921,4.0,1.0,phase_3,,,,,692.0,4.0,865.0,1038.0,173.0,692.0,519.0,346.0,orange,triangle
0.0,3.0,3.0,0.0,7.0,4.0,501.1946059994443,4.0,1.0,phase_3,,,,,192.0,1.0,1152.0,576.0,384.0,192.0,960.0,768.0,cyan,flipped triangle
