raw_reward_magnitude,stim_reward,stepwise_reward_magnitude,paired_with_stopping,stim_location,response,reaction_time,block,num_trial_presentations,which_phase,stop_signal_trial_type,left_SSD,right_SSD,accuracy,chosen_bidding_amount,chosen_bidding_level,possible_bid_1,possible_bid_2,possible_bid_3,possible_bid_4,possible_bid_5,possible_bid_6,color_text,shape_text
0.0,3.0,0.0,0.0,1.0,1.0,436.0402719999001,1.0,1.0,phase_1,,,,,,,,,,,,,orange,triangle
304.0,6.0,1.0,1.0,1.0,1.0,390.621425000063,1.0,1.0,phase_1,,,,,,,,,,,,,gray,I
1302.0,4.0,4.0,0.0,3.0,3.0,464.5725469999888,1.0,1.0,phase_1,,,,,,,,,,,,,white,cross
1313.0,4.0,4.0,0.0,1.0,1.0,455.1550819999193,1.0,1.0,phase_1,,,,,,,,,,,,,white,cross
160.0,1.0,0.5,0.0,4.0,4.0,358.343332000004,1.0,1.0,phase_1,,,,,,,,,,,,,green,square
0.0,4.0,0.0,0.0,3.0,3.0,406.2037979999786,1.0,1.0,phase_1,,,,,,,,,,,,,white,cross
317.0,2.0,1.0,0.0,4.0,4.0,368.9860380000027,1.0,2.0,phase_1,,,,,,,,,,,,,magenta,flipped triangle
1319.0,8.0,4.0,1.0,2.0,2.0,368.5365349999756,1.0,1.0,phase_1,,,,,,,,,,,,,blue,hexagon
663.0,3.0,2.0,0.0,1.0,1.0,435.1915959998678,1.0,1.0,phase_1,,,,,,,,,,,,,orange,triangle
1314.0,4.0,4.0,0.0,4.0,4.0,331.4386649999505,1.0,1.0,phase_1,,,,,,,,,,,,,white,cross
647.0,7.0,2.0,1.0,3.0,3.0,368.8491880000129,1.0,1.0,phase_1,,,,,,,,,,,,,cyan,circle
0.0,3.0,0.0,0.0,3.0,3.0,368.0768750000425,1.0,1.0,phase_1,,,,,,,,,,,,,orange,triangle
1284.0,4.0,4.0,0.0,4.0,4.0,379.0370149999944,1.0,1.0,phase_1,,,,,,,,,,,,,white,cross
317.0,2.0,1.0,0.0,2.0,2.0,405.8891049999147,1.0,1.0,phase_1,,,,,,,,,,,,,magenta,flipped triangle
1313.0,4.0,4.0,0.0,3.0,3.0,369.7258820000115,1.0,1.0,phase_1,,,,,,,,,,,,,white,cross
310.0,6.0,1.0,1.0,3.0,3.0,369.2030079998858,1.0,1.0,phase_1,,,,,,,,,,,,,gray,I
1293.0,4.0,4.0,0.0,3.0,3.0,340.167744999917,1.0,1.0,phase_1,,,,,,,,,,,,,white,cross
163.0,5.0,0.5,1.0,3.0,3.0,331.1886940000477,1.0,1.0,phase_1,,,,,,,,,,,,,yellow,diamond
146.0,1.0,0.5,0.0,1.0,1.0,321.3711089999833,1.0,1.0,phase_1,,,,,,,,,,,,,green,square
182.0,5.0,0.5,1.0,4.0,4.0,340.0054759999875,1.0,1.0,phase_1,,,,,,,,,,,,,yellow,diamond
1321.0,4.0,4.0,0.0,2.0,2.0,359.325895999973,1.0,1.0,phase_1,,,,,,,,,,,,,white,cross
628.0,3.0,2.0,0.0,1.0,1.0,369.9765579999621,1.0,2.0,phase_1,,,,,,,,,,,,,orange,triangle
172.0,5.0,0.5,1.0,3.0,3.0,322.5744119999945,1.0,1.0,phase_1,,,,,,,,,,,,,yellow,diamond
322.0,6.0,1.0,1.0,4.0,4.0,359.7131679998711,1.0,1.0,phase_1,,,,,,,,,,,,,gray,I
1277.0,4.0,4.0,0.0,1.0,1.0,331.2347290000161,1.0,1.0,phase_1,,,,,,,,,,,,,white,cross
326.0,6.0,1.0,1.0,2.0,2.0,387.8351179998844,1.0,1.0,phase_1,,,,,,,,,,,,,gray,I
0.0,5.0,0.0,1.0,1.0,1.0,341.5780379998523,1.0,1.0,phase_1,,,,,,,,,,,,,yellow,diamond
1299.0,4.0,4.0,0.0,4.0,4.0,324.2411100000026,1.0,1.0,phase_1,,,,,,,,,,,,,white,cross
666.0,7.0,2.0,1.0,3.0,3.0,359.7310769998785,1.0,1.0,phase_1,,,,,,,,,,,,,cyan,circle
310.0,2.0,1.0,0.0,1.0,1.0,360.1004600000124,1.0,1.0,phase_1,,,,,,,,,,,,,magenta,flipped triangle
1317.0,4.0,4.0,0.0,4.0,4.0,308.4743729998536,1.0,1.0,phase_1,,,,,,,,,,,,,white,cross
313.0,2.0,1.0,0.0,1.0,1.0,330.3935950000323,1.0,1.0,phase_1,,,,,,,,,,,,,magenta,flipped triangle
0.0,4.0,0.0,0.0,4.0,4.0,349.728425999956,1.0,1.0,phase_1,,,,,,,,,,,,,white,cross
1280.0,4.0,4.0,0.0,2.0,2.0,368.5081999999511,1.0,1.0,phase_1,,,,,,,,,,,,,white,cross
158.0,1.0,0.5,0.0,1.0,1.0,387.4742040000001,1.0,1.0,phase_1,,,,,,,,,,,,,green,square
0.0,6.0,0.0,1.0,1.0,1.0,330.7869339998888,1.0,1.0,phase_1,,,,,,,,,,,,,gray,I
667.0,3.0,2.0,0.0,3.0,3.0,415.7437909998407,1.0,1.0,phase_1,,,,,,,,,,,,,orange,triangle
1291.0,8.0,4.0,1.0,1.0,1.0,339.4937410000693,1.0,1.0,phase_1,,,,,,,,,,,,,blue,hexagon
157.0,1.0,0.5,0.0,2.0,2.0,359.6322449998297,1.0,1.0,phase_1,,,,,,,,,,,,,green,square
660.0,3.0,2.0,0.0,4.0,4.0,310.9885199999098,1.0,1.0,phase_1,,,,,,,,,,,,,orange,triangle
656.0,3.0,2.0,0.0,2.0,2.0,368.316767999886,1.0,1.0,phase_1,,,,,,,,,,,,,orange,triangle
0.0,1.0,0.0,0.0,2.0,2.0,377.4637209999127,1.0,1.0,phase_1,,,,,,,,,,,,,green,square
649.0,7.0,2.0,1.0,1.0,1.0,311.2333080000553,1.0,1.0,phase_1,,,,,,,,,,,,,cyan,circle
313.0,6.0,1.0,1.0,4.0,4.0,340.6170290002137,1.0,1.0,phase_1,,,,,,,,,,,,,gray,I
329.0,2.0,1.0,0.0,1.0,1.0,340.5486440001368,1.0,1.0,phase_1,,,,,,,,,,,,,magenta,flipped triangle
177.0,1.0,0.5,0.0,2.0,2.0,339.2610619998777,1.0,1.0,phase_1,,,,,,,,,,,,,green,square
1302.0,8.0,4.0,1.0,4.0,4.0,321.1115120000158,1.0,1.0,phase_1,,,,,,,,,,,,,blue,hexagon
151.0,1.0,0.5,0.0,4.0,4.0,387.8992529998868,1.0,1.0,phase_1,,,,,,,,,,,,,green,square
0.0,4.0,0.0,0.0,3.0,3.0,340.025869999863,1.0,1.0,phase_1,,,,,,,,,,,,,white,cross
1316.0,8.0,4.0,1.0,4.0,4.0,378.3422999999857,1.0,1.0,phase_1,,,,,,,,,,,,,blue,hexagon
302.0,6.0,1.0,1.0,2.0,2.0,358.8839559999996,1.0,1.0,phase_1,,,,,,,,,,,,,gray,I
151.0,1.0,0.5,0.0,1.0,1.0,312.2313269998358,1.0,1.0,phase_1,,,,,,,,,,,,,green,square
0.0,2.0,0.0,0.0,4.0,4.0,359.3118179999237,1.0,1.0,phase_1,,,,,,,,,,,,,magenta,flipped triangle
1299.0,8.0,4.0,1.0,2.0,2.0,348.8401399999929,1.0,1.0,phase_1,,,,,,,,,,,,,blue,hexagon
168.0,1.0,0.5,0.0,4.0,4.0,340.1260499999807,1.0,1.0,phase_1,,,,,,,,,,,,,green,square
648.0,7.0,2.0,1.0,3.0,3.0,349.164281999947,1.0,1.0,phase_1,,,,,,,,,,,,,cyan,circle
304.0,2.0,1.0,0.0,2.0,2.0,405.6728519999524,1.0,1.0,phase_1,,,,,,,,,,,,,magenta,flipped triangle
0.0,8.0,0.0,1.0,1.0,1.0,368.7791899999411,1.0,2.0,phase_1,,,,,,,,,,,,,blue,hexagon
636.0,3.0,2.0,0.0,2.0,2.0,358.540664999964,1.0,1.0,phase_1,,,,,,,,,,,,,orange,triangle
647.0,3.0,2.0,0.0,3.0,3.0,349.0740139998252,1.0,1.0,phase_1,,,,,,,,,,,,,orange,triangle
0.0,7.0,0.0,1.0,3.0,3.0,398.7931620001745,1.0,1.0,phase_1,,,,,,,,,,,,,cyan,circle
183.0,5.0,0.5,1.0,3.0,3.0,387.0974750000187,1.0,3.0,phase_1,,,,,,,,,,,,,yellow,diamond
1280.0,8.0,4.0,1.0,2.0,2.0,330.5186020002111,1.0,1.0,phase_1,,,,,,,,,,,,,blue,hexagon
665.0,3.0,2.0,0.0,4.0,4.0,460.1762620000045,1.0,1.0,phase_1,,,,,,,,,,,,,orange,triangle
1314.0,4.0,4.0,0.0,4.0,4.0,357.1613760000218,1.0,1.0,phase_1,,,,,,,,,,,,,white,cross
1277.0,8.0,4.0,1.0,3.0,3.0,329.8663079999642,1.0,1.0,phase_1,,,,,,,,,,,,,blue,hexagon
0.0,2.0,0.0,0.0,4.0,4.0,301.9351249999999,1.0,1.0,phase_1,,,,,,,,,,,,,magenta,flipped triangle
0.0,6.0,0.0,1.0,3.0,3.0,349.0741219998199,1.0,1.0,phase_1,,,,,,,,,,,,,gray,I
176.0,1.0,0.5,0.0,1.0,1.0,310.1403739999568,1.0,1.0,phase_1,,,,,,,,,,,,,green,square
0.0,4.0,0.0,0.0,1.0,1.0,310.9249389999604,1.0,2.0,phase_1,,,,,,,,,,,,,white,cross
166.0,5.0,0.5,1.0,4.0,4.0,320.8523359999162,1.0,1.0,phase_1,,,,,,,,,,,,,yellow,diamond
155.0,1.0,0.5,0.0,2.0,2.0,340.1016769998932,1.0,1.0,phase_1,,,,,,,,,,,,,green,square
0.0,3.0,0.0,0.0,3.0,3.0,303.0915110000478,1.0,1.0,phase_1,,,,,,,,,,,,,orange,triangle
0.0,4.0,0.0,0.0,2.0,2.0,320.4968400000325,1.0,1.0,phase_1,,,,,,,,,,,,,white,cross
1324.0,4.0,4.0,0.0,1.0,1.0,359.4190329999946,1.0,1.0,phase_1,,,,,,,,,,,,,white,cross
1324.0,8.0,4.0,1.0,4.0,4.0,264.7381379999842,1.0,1.0,phase_1,,,,,,,,,,,,,blue,hexagon
632.0,7.0,2.0,1.0,4.0,4.0,350.248085000203,1.0,1.0,phase_1,,,,,,,,,,,,,cyan,circle
660.0,7.0,2.0,1.0,1.0,1.0,331.2168880001991,1.0,1.0,phase_1,,,,,,,,,,,,,cyan,circle
672.0,7.0,2.0,1.0,2.0,2.0,359.1426049999882,1.0,1.0,phase_1,,,,,,,,,,,,,cyan,circle
1306.0,4.0,4.0,0.0,2.0,2.0,321.8021959999078,1.0,1.0,phase_1,,,,,,,,,,,,,white,cross
1291.0,8.0,4.0,1.0,2.0,2.0,360.0650190001033,1.0,1.0,phase_1,,,,,,,,,,,,,blue,hexagon
339.0,6.0,1.0,1.0,2.0,2.0,369.4914769998831,1.0,1.0,phase_1,,,,,,,,,,,,,gray,I
152.0,1.0,0.5,0.0,4.0,4.0,501.10305099997277,1.0,1.0,phase_1,,,,,,,,,,,,,green,square
0.0,1.0,0.0,0.0,3.0,3.0,397.4137870000049,1.0,1.0,phase_1,,,,,,,,,,,,,green,square
183.0,1.0,0.5,0.0,3.0,3.0,387.6998199998525,1.0,1.0,phase_1,,,,,,,,,,,,,green,square
329.0,6.0,1.0,1.0,3.0,3.0,360.0691000001461,1.0,1.0,phase_1,,,,,,,,,,,,,gray,I
673.0,3.0,2.0,0.0,2.0,2.0,387.3123670000495,1.0,1.0,phase_1,,,,,,,,,,,,,orange,triangle
650.0,3.0,2.0,0.0,4.0,4.0,329.9543519999588,1.0,1.0,phase_1,,,,,,,,,,,,,orange,triangle
0.0,6.0,0.0,1.0,2.0,2.0,358.9796500000375,1.0,1.0,phase_1,,,,,,,,,,,,,gray,I
330.0,2.0,1.0,0.0,1.0,1.0,415.7751200000348,1.0,1.0,phase_1,,,,,,,,,,,,,magenta,flipped triangle
303.0,2.0,1.0,0.0,3.0,3.0,490.92649000021987,1.0,2.0,phase_1,,,,,,,,,,,,,magenta,flipped triangle
311.0,6.0,1.0,1.0,2.0,2.0,443.412502000001,1.0,1.0,phase_1,,,,,,,,,,,,,gray,I
157.0,1.0,0.5,0.0,1.0,1.0,349.1792719999012,1.0,1.0,phase_1,,,,,,,,,,,,,green,square
1312.0,4.0,4.0,0.0,3.0,3.0,415.314010999964,1.0,1.0,phase_1,,,,,,,,,,,,,white,cross
643.0,3.0,2.0,0.0,3.0,3.0,386.1731949998557,1.0,1.0,phase_1,,,,,,,,,,,,,orange,triangle
345.0,2.0,1.0,0.0,4.0,4.0,331.2107869999181,1.0,1.0,phase_1,,,,,,,,,,,,,magenta,flipped triangle
0.0,1.0,0.0,0.0,4.0,4.0,341.2764860001971,1.0,2.0,phase_1,,,,,,,,,,,,,green,square
0.0,7.0,0.0,1.0,1.0,1.0,330.0532720002138,1.0,2.0,phase_1,,,,,,,,,,,,,cyan,circle
1305.0,8.0,4.0,1.0,3.0,3.0,377.4287759999879,1.0,1.0,phase_1,,,,,,,,,,,,,blue,hexagon
0.0,4.0,0.0,0.0,1.0,1.0,387.3133470001448,1.0,1.0,phase_1,,,,,,,,,,,,,white,cross
186.0,5.0,0.5,1.0,3.0,3.0,360.6619909999153,2.0,1.0,phase_1,,,,,,,,,,,,,yellow,diamond
152.0,5.0,0.5,1.0,1.0,1.0,388.4886020000522,2.0,1.0,phase_1,,,,,,,,,,,,,yellow,diamond
675.0,7.0,2.0,1.0,4.0,4.0,312.9308819998186,2.0,1.0,phase_1,,,,,,,,,,,,,cyan,circle
668.0,7.0,2.0,1.0,2.0,2.0,322.336001000167,2.0,1.0,phase_1,,,,,,,,,,,,,cyan,circle
1281.0,4.0,4.0,0.0,4.0,4.0,313.3829009998408,2.0,1.0,phase_1,,,,,,,,,,,,,white,cross
0.0,3.0,0.0,0.0,2.0,2.0,312.5382359999094,2.0,1.0,phase_1,,,,,,,,,,,,,orange,triangle
0.0,3.0,0.0,0.0,4.0,4.0,304.2452569998204,2.0,1.0,phase_1,,,,,,,,,,,,,orange,triangle
635.0,3.0,2.0,0.0,3.0,3.0,323.2343370000308,2.0,1.0,phase_1,,,,,,,,,,,,,orange,triangle
1296.0,8.0,4.0,1.0,4.0,4.0,245.3104090000124,2.0,1.0,phase_1,,,,,,,,,,,,,blue,hexagon
336.0,2.0,1.0,0.0,4.0,4.0,294.4272159998036,2.0,1.0,phase_1,,,,,,,,,,,,,magenta,flipped triangle
309.0,2.0,1.0,0.0,3.0,3.0,331.7486900000403,2.0,1.0,phase_1,,,,,,,,,,,,,magenta,flipped triangle
0.0,5.0,0.0,1.0,1.0,1.0,445.0306569999611,2.0,1.0,phase_1,,,,,,,,,,,,,yellow,diamond
303.0,6.0,1.0,1.0,1.0,1.0,417.5337009999111,2.0,1.0,phase_1,,,,,,,,,,,,,gray,I
0.0,2.0,0.0,0.0,3.0,3.0,293.7922490000346,2.0,1.0,phase_1,,,,,,,,,,,,,magenta,flipped triangle
141.0,5.0,0.5,1.0,2.0,2.0,340.2913390000321,2.0,1.0,phase_1,,,,,,,,,,,,,yellow,diamond
343.0,2.0,1.0,0.0,1.0,1.0,303.1648260000565,2.0,1.0,phase_1,,,,,,,,,,,,,magenta,flipped triangle
0.0,8.0,0.0,1.0,4.0,4.0,331.0576609999316,2.0,1.0,phase_1,,,,,,,,,,,,,blue,hexagon
635.0,3.0,2.0,0.0,1.0,1.0,321.560872999953,2.0,1.0,phase_1,,,,,,,,,,,,,orange,triangle
336.0,6.0,1.0,1.0,4.0,4.0,370.0828329999694,2.0,1.0,phase_1,,,,,,,,,,,,,gray,I
0.0,1.0,0.0,0.0,2.0,2.0,349.750270999948,2.0,1.0,phase_1,,,,,,,,,,,,,green,square
1281.0,8.0,4.0,1.0,1.0,1.0,351.9481480000195,2.0,1.0,phase_1,,,,,,,,,,,,,blue,hexagon
1320.0,8.0,4.0,1.0,2.0,2.0,351.4617869998346,2.0,1.0,phase_1,,,,,,,,,,,,,blue,hexagon
142.0,5.0,0.5,1.0,4.0,4.0,340.1331780000873,2.0,1.0,phase_1,,,,,,,,,,,,,yellow,diamond
0.0,7.0,0.0,1.0,2.0,2.0,341.0665339999923,2.0,1.0,phase_1,,,,,,,,,,,,,cyan,circle
1302.0,4.0,4.0,0.0,4.0,4.0,329.2289689998142,2.0,1.0,phase_1,,,,,,,,,,,,,white,cross
319.0,6.0,1.0,1.0,1.0,1.0,332.9780730000493,2.0,1.0,phase_1,,,,,,,,,,,,,gray,I
162.0,1.0,0.5,0.0,3.0,3.0,331.5566849998959,2.0,1.0,phase_1,,,,,,,,,,,,,green,square
1312.0,8.0,4.0,1.0,4.0,4.0,293.5965229999056,2.0,1.0,phase_1,,,,,,,,,,,,,blue,hexagon
643.0,3.0,2.0,0.0,1.0,1.0,320.7204109999111,2.0,1.0,phase_1,,,,,,,,,,,,,orange,triangle
181.0,1.0,0.5,0.0,3.0,3.0,350.5920200000219,2.0,1.0,phase_1,,,,,,,,,,,,,green,square
315.0,6.0,1.0,1.0,1.0,1.0,416.901032999931,2.0,1.0,phase_1,,,,,,,,,,,,,gray,I
1302.0,8.0,4.0,1.0,3.0,3.0,405.6649310000466,2.0,1.0,phase_1,,,,,,,,,,,,,blue,hexagon
643.0,7.0,2.0,1.0,3.0,3.0,406.6442089999782,2.0,1.0,phase_1,,,,,,,,,,,,,cyan,circle
647.0,7.0,2.0,1.0,1.0,1.0,358.9478490000601,2.0,1.0,phase_1,,,,,,,,,,,,,cyan,circle
642.0,3.0,2.0,0.0,2.0,2.0,464.1976380000869,2.0,1.0,phase_1,,,,,,,,,,,,,orange,triangle
153.0,1.0,0.5,0.0,1.0,1.0,294.0087679999124,2.0,1.0,phase_1,,,,,,,,,,,,,green,square
1305.0,4.0,4.0,0.0,1.0,1.0,378.8616279998678,2.0,1.0,phase_1,,,,,,,,,,,,,white,cross
185.0,5.0,0.5,1.0,2.0,2.0,877.4173919998702,2.0,1.0,phase_1,,,,,,,,,,,,,yellow,diamond
342.0,2.0,1.0,0.0,4.0,4.0,329.8245920000227,2.0,2.0,phase_1,,,,,,,,,,,,,magenta,flipped triangle
0.0,2.0,0.0,0.0,1.0,1.0,283.3942889999434,2.0,1.0,phase_1,,,,,,,,,,,,,magenta,flipped triangle
163.0,1.0,0.5,0.0,2.0,2.0,358.2692429999952,2.0,1.0,phase_1,,,,,,,,,,,,,green,square
1298.0,8.0,4.0,1.0,1.0,1.0,377.6134269999147,2.0,1.0,phase_1,,,,,,,,,,,,,blue,hexagon
158.0,5.0,0.5,1.0,4.0,4.0,282.3976690001473,2.0,1.0,phase_1,,,,,,,,,,,,,yellow,diamond
1286.0,8.0,4.0,1.0,1.0,1.0,301.9597429999976,2.0,1.0,phase_1,,,,,,,,,,,,,blue,hexagon
315.0,2.0,1.0,0.0,3.0,3.0,359.2720270000882,2.0,1.0,phase_1,,,,,,,,,,,,,magenta,flipped triangle
1316.0,4.0,4.0,0.0,2.0,2.0,361.4129430000048,2.0,1.0,phase_1,,,,,,,,,,,,,white,cross
1319.0,4.0,4.0,0.0,3.0,3.0,348.9365779998934,2.0,1.0,phase_1,,,,,,,,,,,,,white,cross
0.0,7.0,0.0,1.0,2.0,2.0,330.9038180000243,2.0,2.0,phase_1,,,,,,,,,,,,,cyan,circle
0.0,3.0,0.0,0.0,2.0,2.0,348.8000350000675,2.0,1.0,phase_1,,,,,,,,,,,,,orange,triangle
1288.0,8.0,4.0,1.0,3.0,3.0,359.8064089999297,2.0,1.0,phase_1,,,,,,,,,,,,,blue,hexagon
1305.0,4.0,4.0,0.0,1.0,1.0,358.9983709998705,2.0,1.0,phase_1,,,,,,,,,,,,,white,cross
303.0,2.0,1.0,0.0,2.0,2.0,331.0225999998692,2.0,1.0,phase_1,,,,,,,,,,,,,magenta,flipped triangle
141.0,1.0,0.5,0.0,2.0,2.0,341.263551999873,2.0,1.0,phase_1,,,,,,,,,,,,,green,square
0.0,1.0,0.0,0.0,1.0,1.0,341.1729039999045,2.0,1.0,phase_1,,,,,,,,,,,,,green,square
307.0,6.0,1.0,1.0,4.0,4.0,435.4493739999725,2.0,1.0,phase_1,,,,,,,,,,,,,gray,I
160.0,5.0,0.5,1.0,2.0,2.0,369.4694460000391,2.0,1.0,phase_1,,,,,,,,,,,,,yellow,diamond
0.0,1.0,0.0,0.0,1.0,1.0,312.0384859998921,2.0,1.0,phase_1,,,,,,,,,,,,,green,square
345.0,6.0,1.0,1.0,1.0,1.0,480.8124989999669,2.0,1.0,phase_1,,,,,,,,,,,,,gray,I
0.0,7.0,0.0,1.0,2.0,2.0,378.5737069999868,2.0,1.0,phase_1,,,,,,,,,,,,,cyan,circle
638.0,7.0,2.0,1.0,3.0,3.0,378.1332270000348,2.0,1.0,phase_1,,,,,,,,,,,,,cyan,circle
0.0,6.0,0.0,1.0,2.0,2.0,510.0423009998849,2.0,1.0,phase_1,,,,,,,,,,,,,gray,I
0.0,5.0,0.0,1.0,1.0,1.0,340.4498610000246,2.0,1.0,phase_1,,,,,,,,,,,,,yellow,diamond
656.0,3.0,2.0,0.0,3.0,3.0,331.8152809999901,2.0,1.0,phase_1,,,,,,,,,,,,,orange,triangle
1291.0,4.0,4.0,0.0,3.0,3.0,378.8011340000139,2.0,1.0,phase_1,,,,,,,,,,,,,white,cross
145.0,1.0,0.5,0.0,1.0,1.0,340.7062910000604,2.0,1.0,phase_1,,,,,,,,,,,,,green,square
322.0,2.0,1.0,0.0,3.0,3.0,321.7147759999079,2.0,1.0,phase_1,,,,,,,,,,,,,magenta,flipped triangle
1292.0,8.0,4.0,1.0,1.0,1.0,367.8565730001537,2.0,1.0,phase_1,,,,,,,,,,,,,blue,hexagon
142.0,5.0,0.5,1.0,1.0,1.0,378.1337769999027,2.0,1.0,phase_1,,,,,,,,,,,,,yellow,diamond
1306.0,8.0,4.0,1.0,4.0,4.0,396.8490780000593,2.0,2.0,phase_1,,,,,,,,,,,,,blue,hexagon
1286.0,4.0,4.0,0.0,2.0,2.0,454.1375889998562,2.0,1.0,phase_1,,,,,,,,,,,,,white,cross
159.0,5.0,0.5,1.0,2.0,2.0,405.7528870000624,2.0,1.0,phase_1,,,,,,,,,,,,,yellow,diamond
673.0,7.0,2.0,1.0,3.0,3.0,415.4268130000673,2.0,1.0,phase_1,,,,,,,,,,,,,cyan,circle
0.0,3.0,0.0,0.0,4.0,4.0,482.0461460001297,2.0,1.0,phase_1,,,,,,,,,,,,,orange,triangle
0.0,8.0,0.0,1.0,2.0,2.0,359.3694510000205,2.0,1.0,phase_1,,,,,,,,,,,,,blue,hexagon
632.0,3.0,2.0,0.0,3.0,3.0,369.0352500000244,2.0,1.0,phase_1,,,,,,,,,,,,,orange,triangle
162.0,5.0,0.5,1.0,1.0,1.0,369.2399130000012,2.0,1.0,phase_1,,,,,,,,,,,,,yellow,diamond
172.0,5.0,0.5,1.0,2.0,2.0,395.8798619999015,2.0,1.0,phase_1,,,,,,,,,,,,,yellow,diamond
166.0,1.0,0.5,0.0,3.0,3.0,378.1908109999676,2.0,1.0,phase_1,,,,,,,,,,,,,green,square
168.0,5.0,0.5,1.0,1.0,1.0,283.6088430001382,2.0,1.0,phase_1,,,,,,,,,,,,,yellow,diamond
329.0,6.0,1.0,1.0,4.0,4.0,415.7143689999429,2.0,1.0,phase_1,,,,,,,,,,,,,gray,I
309.0,6.0,1.0,1.0,2.0,2.0,303.3747790000234,2.0,1.0,phase_1,,,,,,,,,,,,,gray,I
1281.0,8.0,4.0,1.0,4.0,4.0,387.0742920000793,2.0,2.0,phase_1,,,,,,,,,,,,,blue,hexagon
163.0,1.0,0.5,0.0,1.0,1.0,330.768548999913,2.0,1.0,phase_1,,,,,,,,,,,,,green,square
169.0,1.0,0.5,0.0,2.0,2.0,302.1377229999871,2.0,1.0,phase_1,,,,,,,,,,,,,green,square
302.0,2.0,1.0,0.0,3.0,3.0,265.7691050001176,2.0,1.0,phase_1,,,,,,,,,,,,,magenta,flipped triangle
673.0,7.0,2.0,1.0,1.0,1.0,387.4236999999993,2.0,1.0,phase_1,,,,,,,,,,,,,cyan,circle
1291.0,4.0,4.0,0.0,2.0,2.0,312.6140880001458,2.0,1.0,phase_1,,,,,,,,,,,,,white,cross
172.0,1.0,0.5,0.0,4.0,4.0,293.8423989999137,2.0,1.0,phase_1,,,,,,,,,,,,,green,square
157.0,5.0,0.5,1.0,1.0,1.0,320.9280940000099,2.0,1.0,phase_1,,,,,,,,,,,,,yellow,diamond
645.0,3.0,2.0,0.0,1.0,1.0,302.1439350000037,2.0,1.0,phase_1,,,,,,,,,,,,,orange,triangle
169.0,5.0,0.5,1.0,2.0,2.0,283.7325740001688,2.0,1.0,phase_1,,,,,,,,,,,,,yellow,diamond
649.0,7.0,2.0,1.0,1.0,1.0,245.896675999802,2.0,1.0,phase_1,,,,,,,,,,,,,cyan,circle
665.0,7.0,2.0,1.0,4.0,4.0,245.8472120001715,2.0,1.0,phase_1,,,,,,,,,,,,,cyan,circle
639.0,3.0,2.0,0.0,1.0,1.0,254.7713540000131,2.0,1.0,phase_1,,,,,,,,,,,,,orange,triangle
333.0,2.0,1.0,0.0,1.0,1.0,331.1367889998564,2.0,1.0,phase_1,,,,,,,,,,,,,magenta,flipped triangle
656.0,7.0,2.0,1.0,1.0,1.0,321.2200400000711,2.0,1.0,phase_1,,,,,,,,,,,,,cyan,circle
349.0,2.0,1.0,0.0,4.0,4.0,275.4658240000935,2.0,1.0,phase_1,,,,,,,,,,,,,magenta,flipped triangle
1279.0,4.0,4.0,0.0,4.0,4.0,330.461108999998,2.0,1.0,phase_1,,,,,,,,,,,,,white,cross
1292.0,4.0,4.0,0.0,1.0,1.0,321.1658930001704,2.0,1.0,phase_1,,,,,,,,,,,,,white,cross
309.0,2.0,1.0,0.0,2.0,2.0,368.0109219999394,2.0,1.0,phase_1,,,,,,,,,,,,,magenta,flipped triangle
626.0,7.0,2.0,1.0,4.0,4.0,444.7087999999439,3.0,1.0,phase_1,,,,,,,,,,,,,cyan,circle
318.0,2.0,1.0,0.0,3.0,3.0,387.8047849998438,3.0,1.0,phase_1,,,,,,,,,,,,,magenta,flipped triangle
1300.0,4.0,4.0,0.0,1.0,1.0,397.6923320001333,3.0,1.0,phase_1,,,,,,,,,,,,,white,cross
154.0,5.0,0.5,1.0,4.0,4.0,303.6759700000857,3.0,1.0,phase_1,,,,,,,,,,,,,yellow,diamond
331.0,6.0,1.0,1.0,4.0,4.0,303.166555999951,3.0,1.0,phase_1,,,,,,,,,,,,,gray,I
176.0,5.0,0.5,1.0,1.0,1.0,368.7250050002149,3.0,1.0,phase_1,,,,,,,,,,,,,yellow,diamond
1321.0,8.0,4.0,1.0,3.0,3.0,454.5221430000765,3.0,2.0,phase_1,,,,,,,,,,,,,blue,hexagon
315.0,2.0,1.0,0.0,2.0,2.0,358.1524480000553,3.0,1.0,phase_1,,,,,,,,,,,,,magenta,flipped triangle
1284.0,8.0,4.0,1.0,3.0,3.0,301.7290489999595,3.0,1.0,phase_1,,,,,,,,,,,,,blue,hexagon
1294.0,8.0,4.0,1.0,2.0,2.0,358.4761650001837,3.0,1.0,phase_1,,,,,,,,,,,,,blue,hexagon
0.0,8.0,0.0,1.0,1.0,1.0,331.0211900000013,3.0,1.0,phase_1,,,,,,,,,,,,,blue,hexagon
184.0,5.0,0.5,1.0,1.0,1.0,369.1578599998593,3.0,1.0,phase_1,,,,,,,,,,,,,yellow,diamond
649.0,3.0,2.0,0.0,1.0,1.0,395.5120529999476,3.0,1.0,phase_1,,,,,,,,,,,,,orange,triangle
632.0,3.0,2.0,0.0,2.0,2.0,330.7769430000462,3.0,1.0,phase_1,,,,,,,,,,,,,orange,triangle
303.0,6.0,1.0,1.0,2.0,2.0,368.1792140000652,3.0,1.0,phase_1,,,,,,,,,,,,,gray,I
650.0,3.0,2.0,0.0,4.0,4.0,359.489344999929,3.0,1.0,phase_1,,,,,,,,,,,,,orange,triangle
1301.0,4.0,4.0,0.0,2.0,2.0,330.6489130000045,3.0,1.0,phase_1,,,,,,,,,,,,,white,cross
335.0,6.0,1.0,1.0,4.0,4.0,332.5484770000457,3.0,1.0,phase_1,,,,,,,,,,,,,gray,I
628.0,7.0,2.0,1.0,4.0,4.0,510.26373699983196,3.0,2.0,phase_1,,,,,,,,,,,,,cyan,circle
1281.0,8.0,4.0,1.0,2.0,2.0,342.3435109998536,3.0,1.0,phase_1,,,,,,,,,,,,,blue,hexagon
1298.0,4.0,4.0,0.0,4.0,4.0,313.6724930000127,3.0,1.0,phase_1,,,,,,,,,,,,,white,cross
626.0,3.0,2.0,0.0,3.0,3.0,340.0473030001194,3.0,1.0,phase_1,,,,,,,,,,,,,orange,triangle
151.0,5.0,0.5,1.0,3.0,3.0,398.057136000034,3.0,1.0,phase_1,,,,,,,,,,,,,yellow,diamond
347.0,6.0,1.0,1.0,2.0,2.0,378.2783749998089,3.0,1.0,phase_1,,,,,,,,,,,,,gray,I
1288.0,4.0,4.0,0.0,1.0,1.0,405.8824920000461,3.0,1.0,phase_1,,,,,,,,,,,,,white,cross
666.0,3.0,2.0,0.0,1.0,1.0,359.1746540000713,3.0,1.0,phase_1,,,,,,,,,,,,,orange,triangle
673.0,3.0,2.0,0.0,3.0,3.0,396.413104999965,3.0,1.0,phase_1,,,,,,,,,,,,,orange,triangle
667.0,7.0,2.0,1.0,2.0,2.0,378.6189729999023,3.0,1.0,phase_1,,,,,,,,,,,,,cyan,circle
650.0,7.0,2.0,1.0,2.0,2.0,378.1571070001064,3.0,1.0,phase_1,,,,,,,,,,,,,cyan,circle
656.0,7.0,2.0,1.0,4.0,4.0,359.4437440001456,3.0,1.0,phase_1,,,,,,,,,,,,,cyan,circle
1317.0,8.0,4.0,1.0,4.0,4.0,361.2551839999014,3.0,1.0,phase_1,,,,,,,,,,,,,blue,hexagon
649.0,3.0,2.0,0.0,3.0,3.0,406.4618320001045,3.0,1.0,phase_1,,,,,,,,,,,,,orange,triangle
172.0,1.0,0.5,0.0,3.0,3.0,377.4854939999841,3.0,1.0,phase_1,,,,,,,,,,,,,green,square
169.0,5.0,0.5,1.0,4.0,4.0,397.4590630000421,3.0,1.0,phase_1,,,,,,,,,,,,,yellow,diamond
645.0,3.0,2.0,0.0,2.0,2.0,350.0742810001611,3.0,1.0,phase_1,,,,,,,,,,,,,orange,triangle
157.0,5.0,0.5,1.0,1.0,1.0,670.5852739999045,3.0,1.0,phase_1,,,,,,,,,,,,,yellow,diamond
630.0,3.0,2.0,0.0,4.0,4.0,529.0816640001594,3.0,1.0,phase_1,,,,,,,,,,,,,orange,triangle
1285.0,8.0,4.0,1.0,2.0,2.0,376.7588819998764,3.0,1.0,phase_1,,,,,,,,,,,,,blue,hexagon
0.0,8.0,0.0,1.0,4.0,4.0,443.6848400000599,3.0,1.0,phase_1,,,,,,,,,,,,,blue,hexagon
329.0,2.0,1.0,0.0,1.0,1.0,415.2283389998956,3.0,1.0,phase_1,,,,,,,,,,,,,magenta,flipped triangle
0.0,5.0,0.0,1.0,3.0,3.0,349.9611270001423,3.0,1.0,phase_1,,,,,,,,,,,,,yellow,diamond
645.0,7.0,2.0,1.0,4.0,4.0,376.9894960000783,3.0,1.0,phase_1,,,,,,,,,,,,,cyan,circle
339.0,2.0,1.0,0.0,2.0,2.0,339.6198239997829,3.0,1.0,phase_1,,,,,,,,,,,,,magenta,flipped triangle
343.0,6.0,1.0,1.0,1.0,1.0,339.1277800001262,3.0,1.0,phase_1,,,,,,,,,,,,,gray,I
163.0,5.0,0.5,1.0,4.0,4.0,283.7434450000273,3.0,1.0,phase_1,,,,,,,,,,,,,yellow,diamond
647.0,3.0,2.0,0.0,2.0,2.0,339.5330529999683,3.0,1.0,phase_1,,,,,,,,,,,,,orange,triangle
1305.0,8.0,4.0,1.0,3.0,3.0,434.5282360000055,3.0,1.0,phase_1,,,,,,,,,,,,,blue,hexagon
1300.0,8.0,4.0,1.0,3.0,3.0,385.8437720000438,3.0,1.0,phase_1,,,,,,,,,,,,,blue,hexagon
144.0,1.0,0.5,0.0,4.0,4.0,310.5496759999369,3.0,1.0,phase_1,,,,,,,,,,,,,green,square
643.0,7.0,2.0,1.0,2.0,2.0,433.6611250000715,3.0,1.0,phase_1,,,,,,,,,,,,,cyan,circle
0.0,7.0,0.0,1.0,1.0,1.0,368.0843460001597,3.0,1.0,phase_1,,,,,,,,,,,,,cyan,circle
0.0,8.0,0.0,1.0,3.0,3.0,377.6822259999335,3.0,1.0,phase_1,,,,,,,,,,,,,blue,hexagon
144.0,5.0,0.5,1.0,2.0,2.0,339.8467500001061,3.0,1.0,phase_1,,,,,,,,,,,,,yellow,diamond
322.0,2.0,1.0,0.0,4.0,4.0,443.4125870000116,3.0,1.0,phase_1,,,,,,,,,,,,,magenta,flipped triangle
350.0,6.0,1.0,1.0,3.0,3.0,342.8281359999801,3.0,2.0,phase_1,,,,,,,,,,,,,gray,I
159.0,1.0,0.5,0.0,2.0,2.0,368.10111900013,3.0,1.0,phase_1,,,,,,,,,,,,,green,square
342.0,6.0,1.0,1.0,4.0,4.0,330.36521300005,3.0,1.0,phase_1,,,,,,,,,,,,,gray,I
338.0,2.0,1.0,0.0,4.0,4.0,349.3874660000529,3.0,1.0,phase_1,,,,,,,,,,,,,magenta,flipped triangle
0.0,2.0,0.0,0.0,1.0,1.0,368.6318779998601,3.0,1.0,phase_1,,,,,,,,,,,,,magenta,flipped triangle
1293.0,8.0,4.0,1.0,1.0,1.0,358.7804020000931,3.0,1.0,phase_1,,,,,,,,,,,,,blue,hexagon
0.0,8.0,0.0,1.0,4.0,4.0,368.070593000084,3.0,2.0,phase_1,,,,,,,,,,,,,blue,hexagon
635.0,7.0,2.0,1.0,2.0,2.0,369.0160500000274,3.0,3.0,phase_1,,,,,,,,,,,,,cyan,circle
158.0,5.0,0.5,1.0,2.0,2.0,397.5918590001583,3.0,1.0,phase_1,,,,,,,,,,,,,yellow,diamond
326.0,2.0,1.0,0.0,4.0,4.0,339.9098649999814,3.0,1.0,phase_1,,,,,,,,,,,,,magenta,flipped triangle
651.0,3.0,2.0,0.0,2.0,2.0,405.7488910000302,3.0,1.0,phase_1,,,,,,,,,,,,,orange,triangle
1298.0,8.0,4.0,1.0,2.0,2.0,453.0396679999739,3.0,1.0,phase_1,,,,,,,,,,,,,blue,hexagon
636.0,7.0,2.0,1.0,4.0,4.0,414.9715879998439,3.0,1.0,phase_1,,,,,,,,,,,,,cyan,circle
1279.0,8.0,4.0,1.0,3.0,3.0,471.9738389999293,3.0,1.0,phase_1,,,,,,,,,,,,,blue,hexagon
0.0,8.0,0.0,1.0,3.0,3.0,415.5336829999214,3.0,1.0,phase_1,,,,,,,,,,,,,blue,hexagon
0.0,7.0,0.0,1.0,1.0,1.0,481.9679310000992,3.0,1.0,phase_1,,,,,,,,,,,,,cyan,circle
158.0,1.0,0.5,0.0,4.0,4.0,350.935513999957,3.0,1.0,phase_1,,,,,,,,,,,,,green,square
0.0,7.0,0.0,1.0,2.0,2.0,330.2663370000118,3.0,1.0,phase_1,,,,,,,,,,,,,cyan,circle
635.0,7.0,2.0,1.0,1.0,1.0,434.7300920001089,3.0,1.0,phase_1,,,,,,,,,,,,,cyan,circle
664.0,7.0,2.0,1.0,4.0,4.0,303.252577999956,3.0,1.0,phase_1,,,,,,,,,,,,,cyan,circle
1296.0,4.0,4.0,0.0,4.0,4.0,350.2370460000747,3.0,1.0,phase_1,,,,,,,,,,,,,white,cross
142.0,1.0,0.5,0.0,3.0,3.0,359.3996659999448,3.0,1.0,phase_1,,,,,,,,,,,,,green,square
169.0,1.0,0.5,0.0,4.0,4.0,367.9868939998414,3.0,1.0,phase_1,,,,,,,,,,,,,green,square
666.0,3.0,2.0,0.0,2.0,2.0,359.6210709999923,3.0,1.0,phase_1,,,,,,,,,,,,,orange,triangle
650.0,7.0,2.0,1.0,3.0,3.0,321.31174200003437,3.0,1.0,phase_1,,,,,,,,,,,,,cyan,circle
0.0,3.0,0.0,0.0,2.0,2.0,377.914396000051,3.0,1.0,phase_1,,,,,,,,,,,,,orange,triangle
0.0,4.0,0.0,0.0,4.0,4.0,331.502983000064,3.0,1.0,phase_1,,,,,,,,,,,,,white,cross
322.0,6.0,1.0,1.0,1.0,1.0,396.8455429999267,3.0,1.0,phase_1,,,,,,,,,,,,,gray,I
1294.0,4.0,4.0,0.0,3.0,3.0,388.2587489999878,3.0,1.0,phase_1,,,,,,,,,,,,,white,cross
172.0,1.0,0.5,0.0,2.0,2.0,425.4996879999453,3.0,1.0,phase_1,,,,,,,,,,,,,green,square
0.0,8.0,0.0,1.0,3.0,3.0,415.0671610000245,3.0,1.0,phase_1,,,,,,,,,,,,,blue,hexagon
1320.0,4.0,4.0,0.0,1.0,1.0,416.1510899998575,3.0,1.0,phase_1,,,,,,,,,,,,,white,cross
0.0,4.0,0.0,0.0,2.0,2.0,463.0629409998619,3.0,1.0,phase_1,,,,,,,,,,,,,white,cross
630.0,7.0,2.0,1.0,4.0,4.0,340.3152399998816,3.0,1.0,phase_1,,,,,,,,,,,,,cyan,circle
1301.0,8.0,4.0,1.0,3.0,3.0,350.6855390000964,3.0,1.0,phase_1,,,,,,,,,,,,,blue,hexagon
0.0,5.0,0.0,1.0,4.0,4.0,350.2774290000161,3.0,1.0,phase_1,,,,,,,,,,,,,yellow,diamond
629.0,3.0,2.0,0.0,1.0,1.0,341.8175990000236,3.0,1.0,phase_1,,,,,,,,,,,,,orange,triangle
0.0,7.0,0.0,1.0,2.0,2.0,361.5084630000638,3.0,1.0,phase_1,,,,,,,,,,,,,cyan,circle
672.0,3.0,2.0,0.0,2.0,2.0,370.2849229998719,3.0,1.0,phase_1,,,,,,,,,,,,,orange,triangle
319.0,2.0,1.0,0.0,2.0,2.0,407.0326900000509,3.0,1.0,phase_1,,,,,,,,,,,,,magenta,flipped triangle
347.0,2.0,1.0,0.0,2.0,2.0,406.2426750001577,3.0,1.0,phase_1,,,,,,,,,,,,,magenta,flipped triangle
182.0,1.0,0.5,0.0,2.0,2.0,396.20575500021,3.0,1.0,phase_1,,,,,,,,,,,,,green,square
0.0,2.0,0.0,0.0,3.0,3.0,396.9593940000777,3.0,1.0,phase_1,,,,,,,,,,,,,magenta,flipped triangle
639.0,7.0,2.0,1.0,2.0,2.0,358.1908539999858,3.0,1.0,phase_1,,,,,,,,,,,,,cyan,circle
1279.0,8.0,4.0,1.0,4.0,4.0,444.3363039999894,3.0,2.0,phase_1,,,,,,,,,,,,,blue,hexagon
0.0,6.0,0.0,1.0,4.0,4.0,442.5913640002363,3.0,1.0,phase_1,,,,,,,,,,,,,gray,I
181.0,5.0,0.5,1.0,1.0,1.0,330.5358679999699,4.0,1.0,phase_1,,,,,,,,,,,,,yellow,diamond
664.0,3.0,2.0,0.0,4.0,4.0,320.5832759999794,4.0,1.0,phase_1,,,,,,,,,,,,,orange,triangle
668.0,3.0,2.0,0.0,4.0,4.0,330.6104309999682,4.0,1.0,phase_1,,,,,,,,,,,,,orange,triangle
309.0,6.0,1.0,1.0,3.0,3.0,350.0651940003081,4.0,1.0,phase_1,,,,,,,,,,,,,gray,I
160.0,5.0,0.5,1.0,2.0,2.0,594.389461999981,4.0,2.0,phase_1,,,,,,,,,,,,,yellow,diamond
151.0,5.0,0.5,1.0,3.0,3.0,340.3201539999827,4.0,1.0,phase_1,,,,,,,,,,,,,yellow,diamond
345.0,2.0,1.0,0.0,1.0,1.0,368.0348869997942,4.0,1.0,phase_1,,,,,,,,,,,,,magenta,flipped triangle
0.0,7.0,0.0,1.0,4.0,4.0,274.243603999821,4.0,1.0,phase_1,,,,,,,,,,,,,cyan,circle
322.0,6.0,1.0,1.0,3.0,3.0,302.6646100001926,4.0,1.0,phase_1,,,,,,,,,,,,,gray,I
137.0,5.0,0.5,1.0,2.0,2.0,358.6490090001462,4.0,1.0,phase_1,,,,,,,,,,,,,yellow,diamond
0.0,2.0,0.0,0.0,1.0,1.0,321.1823430001459,4.0,1.0,phase_1,,,,,,,,,,,,,magenta,flipped triangle
307.0,2.0,1.0,0.0,4.0,4.0,321.0476879999078,4.0,1.0,phase_1,,,,,,,,,,,,,magenta,flipped triangle
142.0,1.0,0.5,0.0,1.0,1.0,321.7034129997955,4.0,1.0,phase_1,,,,,,,,,,,,,green,square
632.0,7.0,2.0,1.0,2.0,2.0,341.0928779999267,4.0,1.0,phase_1,,,,,,,,,,,,,cyan,circle
154.0,1.0,0.5,0.0,2.0,2.0,341.6621860001214,4.0,2.0,phase_1,,,,,,,,,,,,,green,square
0.0,5.0,0.0,1.0,4.0,4.0,331.1957609998899,4.0,1.0,phase_1,,,,,,,,,,,,,yellow,diamond
0.0,6.0,0.0,1.0,3.0,3.0,377.1807459997944,4.0,1.0,phase_1,,,,,,,,,,,,,gray,I
0.0,6.0,0.0,1.0,1.0,1.0,396.3404559999617,4.0,1.0,phase_1,,,,,,,,,,,,,gray,I
0.0,4.0,0.0,0.0,1.0,1.0,387.4384170003395,4.0,1.0,phase_1,,,,,,,,,,,,,white,cross
663.0,7.0,2.0,1.0,1.0,1.0,369.2219050003587,4.0,1.0,phase_1,,,,,,,,,,,,,cyan,circle
160.0,1.0,0.5,0.0,1.0,1.0,397.5779389998024,4.0,1.0,phase_1,,,,,,,,,,,,,green,square
0.0,5.0,0.0,1.0,1.0,1.0,370.4026489999705,4.0,1.0,phase_1,,,,,,,,,,,,,yellow,diamond
0.0,6.0,0.0,1.0,1.0,1.0,330.1775929999166,4.0,1.0,phase_1,,,,,,,,,,,,,gray,I
0.0,4.0,0.0,0.0,3.0,3.0,388.4970019998945,4.0,1.0,phase_1,,,,,,,,,,,,,white,cross
322.0,6.0,1.0,1.0,2.0,2.0,399.736061999647,4.0,1.0,phase_1,,,,,,,,,,,,,gray,I
0.0,6.0,0.0,1.0,1.0,1.0,388.2956000002195,4.0,1.0,phase_1,,,,,,,,,,,,,gray,I
184.0,1.0,0.5,0.0,4.0,4.0,359.9226589999489,4.0,1.0,phase_1,,,,,,,,,,,,,green,square
0.0,2.0,0.0,0.0,4.0,4.0,405.8174029996735,4.0,1.0,phase_1,,,,,,,,,,,,,magenta,flipped triangle
0.0,1.0,0.0,0.0,1.0,1.0,425.0970429998233,4.0,1.0,phase_1,,,,,,,,,,,,,green,square
645.0,7.0,2.0,1.0,2.0,2.0,388.2508110000344,4.0,1.0,phase_1,,,,,,,,,,,,,cyan,circle
177.0,5.0,0.5,1.0,4.0,4.0,340.5438660001891,4.0,1.0,phase_1,,,,,,,,,,,,,yellow,diamond
631.0,3.0,2.0,0.0,4.0,4.0,388.7488310001572,4.0,1.0,phase_1,,,,,,,,,,,,,orange,triangle
675.0,3.0,2.0,0.0,4.0,4.0,378.6948399997527,4.0,1.0,phase_1,,,,,,,,,,,,,orange,triangle
672.0,3.0,2.0,0.0,4.0,4.0,369.3418269999711,4.0,1.0,phase_1,,,,,,,,,,,,,orange,triangle
347.0,6.0,1.0,1.0,2.0,2.0,454.7123110000939,4.0,1.0,phase_1,,,,,,,,,,,,,gray,I
1281.0,4.0,4.0,0.0,3.0,3.0,481.8973890000961,4.0,1.0,phase_1,,,,,,,,,,,,,white,cross
0.0,1.0,0.0,0.0,4.0,4.0,359.7512370001823,4.0,1.0,phase_1,,,,,,,,,,,,,green,square
666.0,7.0,2.0,1.0,1.0,1.0,387.6149810002971,4.0,1.0,phase_1,,,,,,,,,,,,,cyan,circle
0.0,8.0,0.0,1.0,3.0,3.0,472.4628310000298,4.0,1.0,phase_1,,,,,,,,,,,,,blue,hexagon
345.0,6.0,1.0,1.0,3.0,3.0,360.9023520002665,4.0,1.0,phase_1,,,,,,,,,,,,,gray,I
335.0,2.0,1.0,0.0,2.0,2.0,331.0759750002034,4.0,1.0,phase_1,,,,,,,,,,,,,magenta,flipped triangle
338.0,6.0,1.0,1.0,1.0,1.0,340.4511469998397,4.0,1.0,phase_1,,,,,,,,,,,,,gray,I
322.0,2.0,1.0,0.0,3.0,3.0,313.5885450001296,4.0,1.0,phase_1,,,,,,,,,,,,,magenta,flipped triangle
172.0,5.0,0.5,1.0,1.0,1.0,331.7511159998503,4.0,1.0,phase_1,,,,,,,,,,,,,yellow,diamond
0.0,1.0,0.0,0.0,3.0,3.0,331.0416780000196,4.0,1.0,phase_1,,,,,,,,,,,,,green,square
631.0,7.0,2.0,1.0,3.0,3.0,368.7761340001998,4.0,1.0,phase_1,,,,,,,,,,,,,cyan,circle
1314.0,8.0,4.0,1.0,2.0,2.0,786.4243240001088,4.0,1.0,phase_1,,,,,,,,,,,,,blue,hexagon
315.0,6.0,1.0,1.0,1.0,1.0,586.4605649999248,4.0,1.0,phase_1,,,,,,,,,,,,,gray,I
186.0,1.0,0.5,0.0,3.0,3.0,361.1441240000204,4.0,1.0,phase_1,,,,,,,,,,,,,green,square
168.0,1.0,0.5,0.0,3.0,3.0,359.398777000024,4.0,1.0,phase_1,,,,,,,,,,,,,green,square
346.0,2.0,1.0,0.0,3.0,3.0,463.1031029998667,4.0,1.0,phase_1,,,,,,,,,,,,,magenta,flipped triangle
638.0,3.0,2.0,0.0,1.0,1.0,463.1783810000343,4.0,1.0,phase_1,,,,,,,,,,,,,orange,triangle
168.0,5.0,0.5,1.0,3.0,3.0,349.7262860000774,4.0,1.0,phase_1,,,,,,,,,,,,,yellow,diamond
1313.0,8.0,4.0,1.0,1.0,1.0,528.518761000214,4.0,1.0,phase_1,,,,,,,,,,,,,blue,hexagon
0.0,3.0,0.0,0.0,3.0,3.0,406.2325540003257,4.0,1.0,phase_1,,,,,,,,,,,,,orange,triangle
0.0,6.0,0.0,1.0,2.0,2.0,424.1627159999552,4.0,1.0,phase_1,,,,,,,,,,,,,gray,I
1312.0,4.0,4.0,0.0,1.0,1.0,491.6932229998565,4.0,1.0,phase_1,,,,,,,,,,,,,white,cross
1316.0,8.0,4.0,1.0,4.0,4.0,774.872618000245,4.0,1.0,phase_1,,,,,,,,,,,,,blue,hexagon
0.0,5.0,0.0,1.0,1.0,1.0,443.6705620000793,4.0,1.0,phase_1,,,,,,,,,,,,,yellow,diamond
318.0,6.0,1.0,1.0,3.0,3.0,425.3698039997289,4.0,1.0,phase_1,,,,,,,,,,,,,gray,I
185.0,1.0,0.5,0.0,4.0,4.0,444.4148239999776,4.0,2.0,phase_1,,,,,,,,,,,,,green,square
1281.0,4.0,4.0,0.0,3.0,3.0,358.9908429999013,4.0,1.0,phase_1,,,,,,,,,,,,,white,cross
330.0,6.0,1.0,1.0,3.0,3.0,368.991398000162,4.0,1.0,phase_1,,,,,,,,,,,,,gray,I
155.0,5.0,0.5,1.0,4.0,4.0,415.3139340000962,4.0,1.0,phase_1,,,,,,,,,,,,,yellow,diamond
648.0,3.0,2.0,0.0,3.0,3.0,329.785111000092,4.0,1.0,phase_1,,,,,,,,,,,,,orange,triangle
350.0,2.0,1.0,0.0,1.0,1.0,474.8222670000359,4.0,1.0,phase_1,,,,,,,,,,,,,magenta,flipped triangle
672.0,7.0,2.0,1.0,3.0,3.0,378.8457369996649,4.0,1.0,phase_1,,,,,,,,,,,,,cyan,circle
150.0,5.0,0.5,1.0,3.0,3.0,398.1603990000621,4.0,1.0,phase_1,,,,,,,,,,,,,yellow,diamond
333.0,6.0,1.0,1.0,4.0,4.0,463.7915379998958,4.0,1.0,phase_1,,,,,,,,,,,,,gray,I
153.0,5.0,0.5,1.0,4.0,4.0,398.0067540001073,4.0,1.0,phase_1,,,,,,,,,,,,,yellow,diamond
137.0,1.0,0.5,0.0,3.0,3.0,350.0265030002083,4.0,1.0,phase_1,,,,,,,,,,,,,green,square
317.0,6.0,1.0,1.0,2.0,2.0,406.6947269998309,4.0,1.0,phase_1,,,,,,,,,,,,,gray,I
1285.0,4.0,4.0,0.0,2.0,2.0,793.1764370000565,4.0,1.0,phase_1,,,,,,,,,,,,,white,cross
331.0,2.0,1.0,0.0,2.0,2.0,388.4542910000164,4.0,1.0,phase_1,,,,,,,,,,,,,magenta,flipped triangle
146.0,5.0,0.5,1.0,3.0,3.0,341.9363089997205,4.0,1.0,phase_1,,,,,,,,,,,,,yellow,diamond
318.0,2.0,1.0,0.0,1.0,1.0,463.8753589997577,4.0,1.0,phase_1,,,,,,,,,,,,,magenta,flipped triangle
1313.0,8.0,4.0,1.0,1.0,1.0,400.9888719997434,4.0,2.0,phase_1,,,,,,,,,,,,,blue,hexagon
1279.0,4.0,4.0,0.0,3.0,3.0,331.5645550001136,4.0,1.0,phase_1,,,,,,,,,,,,,white,cross
0.0,1.0,0.0,0.0,1.0,1.0,349.4345030003387,4.0,1.0,phase_1,,,,,,,,,,,,,green,square
346.0,6.0,1.0,1.0,3.0,3.0,377.9999910002516,4.0,1.0,phase_1,,,,,,,,,,,,,gray,I
651.0,7.0,2.0,1.0,1.0,1.0,340.3047709998645,4.0,1.0,phase_1,,,,,,,,,,,,,cyan,circle
629.0,7.0,2.0,1.0,2.0,2.0,424.886250000327,4.0,1.0,phase_1,,,,,,,,,,,,,cyan,circle
642.0,7.0,2.0,1.0,3.0,3.0,407.0032929998888,4.0,1.0,phase_1,,,,,,,,,,,,,cyan,circle
1316.0,4.0,4.0,0.0,2.0,2.0,406.044440000187,4.0,1.0,phase_1,,,,,,,,,,,,,white,cross
0.0,5.0,0.0,1.0,1.0,1.0,377.8090850000808,4.0,1.0,phase_1,,,,,,,,,,,,,yellow,diamond
0.0,5.0,0.0,1.0,4.0,4.0,362.9473660002986,4.0,1.0,phase_1,,,,,,,,,,,,,yellow,diamond
317.0,6.0,1.0,1.0,3.0,3.0,415.7828309998876,4.0,1.0,phase_1,,,,,,,,,,,,,gray,I
1312.0,8.0,4.0,1.0,1.0,1.0,454.026261999843,4.0,1.0,phase_1,,,,,,,,,,,,,blue,hexagon
0.0,3.0,0.0,0.0,1.0,1.0,529.5192500002486,4.0,1.0,phase_1,,,,,,,,,,,,,orange,triangle
322.0,2.0,1.0,0.0,3.0,3.0,451.8474229998901,4.0,1.0,phase_1,,,,,,,,,,,,,magenta,flipped triangle
349.0,6.0,1.0,1.0,1.0,1.0,358.5424459997739,4.0,1.0,phase_1,,,,,,,,,,,,,gray,I
1298.0,4.0,4.0,0.0,2.0,2.0,406.2308100001246,4.0,1.0,phase_1,,,,,,,,,,,,,white,cross
347.0,2.0,1.0,0.0,3.0,3.0,368.2867130000886,4.0,1.0,phase_1,,,,,,,,,,,,,magenta,flipped triangle
311.0,2.0,1.0,0.0,4.0,4.0,343.2149190002747,4.0,1.0,phase_1,,,,,,,,,,,,,magenta,flipped triangle
145.0,5.0,0.5,1.0,3.0,3.0,331.5167820001079,4.0,1.0,phase_1,,,,,,,,,,,,,yellow,diamond
0.0,2.0,0.0,0.0,2.0,2.0,386.4947430001848,4.0,1.0,phase_1,,,,,,,,,,,,,magenta,flipped triangle
318.0,6.0,1.0,1.0,4.0,4.0,359.1361859998869,4.0,1.0,phase_1,,,,,,,,,,,,,gray,I
150.0,1.0,0.5,0.0,3.0,3.0,329.8543010000685,4.0,1.0,phase_1,,,,,,,,,,,,,green,square
0.0,2.0,0.0,0.0,4.0,4.0,351.8646120000994,4.0,1.0,phase_1,,,,,,,,,,,,,magenta,flipped triangle
1314.0,8.0,4.0,1.0,1.0,1.0,414.3932940000923,4.0,1.0,phase_1,,,,,,,,,,,,,blue,hexagon
0.0,5.0,0.5,1.0,5.0,0.0,0.0,1.0,1.0,phase_2,stop,250.0,250.0,4.0,,,,,,,,,yellow,diamond
0.0,8.0,4.0,1.0,6.0,6.0,359.337319000133,1.0,1.0,phase_2,stop,300.0,250.0,3.0,,,,,,,,,blue,hexagon
0.0,6.0,1.0,1.0,5.0,5.0,421.5525679996972,1.0,1.0,phase_2,stop,300.0,200.0,3.0,,,,,,,,,gray,I
0.0,5.0,0.5,1.0,5.0,5.0,467.4373859998013,1.0,1.0,phase_2,go,250.0,200.0,1.0,,,,,,,,,yellow,diamond
0.0,8.0,4.0,1.0,5.0,0.0,0.0,1.0,1.0,phase_2,stop,250.0,200.0,4.0,,,,,,,,,blue,hexagon
0.0,1.0,0.5,0.0,5.0,5.0,514.2844930001047,1.0,1.0,phase_2,go,300.0,200.0,1.0,,,,,,,,,green,square
0.0,6.0,1.0,1.0,5.0,0.0,0.0,1.0,1.0,phase_2,stop,300.0,200.0,4.0,,,,,,,,,gray,I
0.0,6.0,1.0,1.0,5.0,5.0,452.8028280001308,1.0,1.0,phase_2,stop,350.0,200.0,3.0,,,,,,,,,gray,I
0.0,6.0,1.0,1.0,5.0,0.0,0.0,1.0,1.0,phase_2,stop,300.0,200.0,4.0,,,,,,,,,gray,I
0.0,3.0,2.0,0.0,5.0,5.0,646.0142360001555,1.0,1.0,phase_2,go,350.0,200.0,1.0,,,,,,,,,orange,triangle
0.0,3.0,2.0,0.0,6.0,6.0,580.1963350004371,1.0,1.0,phase_2,go,350.0,200.0,1.0,,,,,,,,,orange,triangle
0.0,3.0,2.0,0.0,6.0,6.0,609.7647169999618,1.0,1.0,phase_2,go,350.0,200.0,1.0,,,,,,,,,orange,triangle
0.0,4.0,4.0,0.0,5.0,5.0,505.13223200005086,1.0,1.0,phase_2,go,350.0,200.0,1.0,,,,,,,,,white,cross
0.0,6.0,1.0,1.0,5.0,0.0,0.0,1.0,1.0,phase_2,stop,350.0,200.0,4.0,,,,,,,,,gray,I
0.0,2.0,1.0,0.0,5.0,5.0,665.5171560000781,1.0,1.0,phase_2,go,400.0,200.0,1.0,,,,,,,,,magenta,flipped triangle
0.0,6.0,1.0,1.0,6.0,6.0,745.7590269996217,1.0,1.0,phase_2,go,400.0,200.0,1.0,,,,,,,,,gray,I
0.0,6.0,1.0,1.0,5.0,0.0,0.0,1.0,1.0,phase_2,stop,400.0,200.0,4.0,,,,,,,,,gray,I
0.0,1.0,0.5,0.0,6.0,6.0,819.8247769996669,1.0,1.0,phase_2,go,450.0,200.0,1.0,,,,,,,,,green,square
0.0,1.0,0.5,0.0,5.0,5.0,714.2706260001432,1.0,1.0,phase_2,go,450.0,200.0,1.0,,,,,,,,,green,square
0.0,3.0,2.0,0.0,5.0,5.0,809.6524380002847,1.0,1.0,phase_2,go,450.0,200.0,1.0,,,,,,,,,orange,triangle
0.0,2.0,1.0,0.0,5.0,5.0,437.3970599999666,1.0,1.0,phase_2,go,450.0,200.0,1.0,,,,,,,,,magenta,flipped triangle
0.0,7.0,2.0,1.0,5.0,5.0,448.0364940000072,1.0,1.0,phase_2,stop,450.0,200.0,3.0,,,,,,,,,cyan,circle
0.0,7.0,2.0,1.0,6.0,0.0,0.0,1.0,1.0,phase_2,stop,400.0,200.0,4.0,,,,,,,,,cyan,circle
0.0,1.0,0.5,0.0,5.0,5.0,750.9948950000762,1.0,1.0,phase_2,go,400.0,250.0,1.0,,,,,,,,,green,square
0.0,4.0,4.0,0.0,6.0,6.0,884.7678380002435,1.0,1.0,phase_2,go,400.0,250.0,1.0,,,,,,,,,white,cross
0.0,1.0,0.5,0.0,5.0,5.0,646.4894420000746,1.0,1.0,phase_2,go,400.0,250.0,1.0,,,,,,,,,green,square
0.0,1.0,0.5,0.0,6.0,6.0,761.4254579998487,1.0,1.0,phase_2,go,400.0,250.0,1.0,,,,,,,,,green,square
0.0,6.0,1.0,1.0,5.0,0.0,0.0,1.0,1.0,phase_2,stop,400.0,250.0,4.0,,,,,,,,,gray,I
0.0,4.0,4.0,0.0,5.0,5.0,761.2527749997753,1.0,1.0,phase_2,go,450.0,250.0,1.0,,,,,,,,,white,cross
0.0,3.0,2.0,0.0,5.0,5.0,921.8077720001928,1.0,1.0,phase_2,go,450.0,250.0,1.0,,,,,,,,,orange,triangle
0.0,3.0,2.0,0.0,5.0,5.0,847.1429300002455,1.0,1.0,phase_2,go,450.0,250.0,1.0,,,,,,,,,orange,triangle
0.0,5.0,0.5,1.0,6.0,6.0,770.1738879995901,1.0,1.0,phase_2,go,450.0,250.0,1.0,,,,,,,,,yellow,diamond
0.0,5.0,0.5,1.0,5.0,5.0,751.5521179998359,1.0,1.0,phase_2,go,450.0,250.0,1.0,,,,,,,,,yellow,diamond
0.0,2.0,1.0,0.0,6.0,6.0,763.4472770000684,1.0,1.0,phase_2,go,450.0,250.0,1.0,,,,,,,,,magenta,flipped triangle
0.0,5.0,0.5,1.0,5.0,0.0,0.0,1.0,1.0,phase_2,stop,450.0,250.0,4.0,,,,,,,,,yellow,diamond
0.0,7.0,2.0,1.0,5.0,5.0,681.6548689998854,1.0,1.0,phase_2,stop,500.0,250.0,3.0,,,,,,,,,cyan,circle
0.0,3.0,2.0,0.0,6.0,6.0,931.5076999996564,2.0,1.0,phase_2,go,450.0,250.0,1.0,,,,,,,,,orange,triangle
0.0,8.0,4.0,1.0,6.0,0.0,0.0,2.0,1.0,phase_2,stop,450.0,250.0,4.0,,,,,,,,,blue,hexagon
0.0,6.0,1.0,1.0,5.0,5.0,618.3701780000774,2.0,1.0,phase_2,stop,450.0,300.0,3.0,,,,,,,,,gray,I
0.0,4.0,4.0,0.0,5.0,5.0,571.8532289997711,2.0,1.0,phase_2,go,400.0,300.0,1.0,,,,,,,,,white,cross
0.0,5.0,0.5,1.0,5.0,0.0,0.0,2.0,1.0,phase_2,stop,400.0,300.0,4.0,,,,,,,,,yellow,diamond
0.0,2.0,1.0,0.0,5.0,5.0,629.7529230000691,2.0,1.0,phase_2,go,450.0,300.0,1.0,,,,,,,,,magenta,flipped triangle
0.0,5.0,0.5,1.0,6.0,6.0,477.417148999848,2.0,1.0,phase_2,go,450.0,300.0,1.0,,,,,,,,,yellow,diamond
0.0,8.0,4.0,1.0,6.0,0.0,0.0,2.0,1.0,phase_2,stop,450.0,300.0,4.0,,,,,,,,,blue,hexagon
0.0,7.0,2.0,1.0,5.0,5.0,466.3752309998017,2.0,1.0,phase_2,go,450.0,350.0,1.0,,,,,,,,,cyan,circle
0.0,2.0,1.0,0.0,5.0,5.0,495.3336179996768,2.0,1.0,phase_2,go,450.0,350.0,1.0,,,,,,,,,magenta,flipped triangle
0.0,2.0,1.0,0.0,6.0,6.0,618.5508010003105,2.0,1.0,phase_2,go,450.0,350.0,1.0,,,,,,,,,magenta,flipped triangle
0.0,7.0,2.0,1.0,6.0,0.0,0.0,2.0,1.0,phase_2,stop,450.0,350.0,4.0,,,,,,,,,cyan,circle
0.0,1.0,0.5,0.0,6.0,6.0,447.1604149998711,2.0,1.0,phase_2,go,450.0,400.0,1.0,,,,,,,,,green,square
0.0,6.0,1.0,1.0,6.0,0.0,0.0,2.0,1.0,phase_2,stop,450.0,400.0,4.0,,,,,,,,,gray,I
0.0,3.0,2.0,0.0,5.0,5.0,646.9094959998074,2.0,1.0,phase_2,go,450.0,450.0,1.0,,,,,,,,,orange,triangle
0.0,1.0,0.5,0.0,6.0,6.0,836.6994660000273,2.0,1.0,phase_2,go,450.0,450.0,1.0,,,,,,,,,green,square
0.0,8.0,4.0,1.0,5.0,5.0,722.6106419998359,2.0,1.0,phase_2,go,450.0,450.0,1.0,,,,,,,,,blue,hexagon
0.0,1.0,0.5,0.0,5.0,5.0,618.9317930002289,2.0,1.0,phase_2,go,450.0,450.0,1.0,,,,,,,,,green,square
0.0,8.0,4.0,1.0,5.0,5.0,713.1100139999944,2.0,1.0,phase_2,go,450.0,450.0,1.0,,,,,,,,,blue,hexagon
0.0,5.0,0.5,1.0,6.0,0.0,0.0,2.0,1.0,phase_2,stop,450.0,450.0,4.0,,,,,,,,,yellow,diamond
0.0,4.0,4.0,0.0,5.0,5.0,504.2256019996785,2.0,1.0,phase_2,go,450.0,500.0,1.0,,,,,,,,,white,cross
0.0,1.0,0.5,0.0,6.0,6.0,352.6697410002271,2.0,1.0,phase_2,go,450.0,500.0,1.0,,,,,,,,,green,square
0.0,5.0,0.5,1.0,5.0,5.0,551.1104369998066,2.0,1.0,phase_2,stop,450.0,500.0,3.0,,,,,,,,,yellow,diamond
0.0,7.0,2.0,1.0,6.0,6.0,750.1891100000648,2.0,1.0,phase_2,go,400.0,500.0,1.0,,,,,,,,,cyan,circle
0.0,6.0,1.0,1.0,6.0,0.0,0.0,2.0,1.0,phase_2,stop,400.0,500.0,4.0,,,,,,,,,gray,I
0.0,2.0,1.0,0.0,6.0,6.0,675.0350150000486,2.0,1.0,phase_2,go,400.0,550.0,1.0,,,,,,,,,magenta,flipped triangle
0.0,7.0,2.0,1.0,5.0,0.0,0.0,2.0,1.0,phase_2,stop,400.0,550.0,4.0,,,,,,,,,cyan,circle
0.0,8.0,4.0,1.0,6.0,6.0,617.3220780001429,2.0,1.0,phase_2,stop,450.0,550.0,3.0,,,,,,,,,blue,hexagon
0.0,8.0,4.0,1.0,5.0,0.0,0.0,2.0,1.0,phase_2,stop,450.0,500.0,4.0,,,,,,,,,blue,hexagon
0.0,3.0,2.0,0.0,5.0,5.0,579.8438940000779,2.0,1.0,phase_2,go,500.0,500.0,1.0,,,,,,,,,orange,triangle
0.0,6.0,1.0,1.0,5.0,5.0,1027.4533010001503,2.0,1.0,phase_2,go,500.0,500.0,1.0,,,,,,,,,gray,I
0.0,4.0,4.0,0.0,5.0,5.0,731.2080960000458,2.0,1.0,phase_2,go,500.0,500.0,1.0,,,,,,,,,white,cross
0.0,3.0,2.0,0.0,5.0,5.0,657.6028620002035,2.0,1.0,phase_2,go,500.0,500.0,1.0,,,,,,,,,orange,triangle
0.0,7.0,2.0,1.0,5.0,0.0,0.0,2.0,1.0,phase_2,stop,500.0,500.0,4.0,,,,,,,,,cyan,circle
0.0,8.0,4.0,1.0,5.0,5.0,725.5385319999732,2.0,1.0,phase_2,stop,550.0,500.0,3.0,,,,,,,,,blue,hexagon
0.0,6.0,1.0,1.0,5.0,0.0,0.0,2.0,1.0,phase_2,stop,500.0,500.0,4.0,,,,,,,,,gray,I
0.0,3.0,2.0,0.0,5.0,5.0,361.4635979997729,3.0,1.0,phase_2,go,550.0,500.0,1.0,,,,,,,,,orange,triangle
0.0,3.0,2.0,0.0,6.0,6.0,664.9226750000707,3.0,1.0,phase_2,go,550.0,500.0,1.0,,,,,,,,,orange,triangle
0.0,3.0,2.0,0.0,6.0,6.0,722.831559000042,3.0,1.0,phase_2,go,550.0,500.0,1.0,,,,,,,,,orange,triangle
0.0,7.0,2.0,1.0,6.0,0.0,0.0,3.0,1.0,phase_2,stop,550.0,500.0,4.0,,,,,,,,,cyan,circle
0.0,8.0,4.0,1.0,5.0,5.0,729.4411210000362,3.0,1.0,phase_2,stop,550.0,550.0,3.0,,,,,,,,,blue,hexagon
0.0,3.0,2.0,0.0,5.0,5.0,628.0385149998438,3.0,1.0,phase_2,go,500.0,550.0,1.0,,,,,,,,,orange,triangle
0.0,4.0,4.0,0.0,6.0,6.0,827.7262290002909,3.0,1.0,phase_2,go,500.0,550.0,1.0,,,,,,,,,white,cross
0.0,2.0,1.0,0.0,5.0,5.0,713.1069099996239,3.0,1.0,phase_2,go,500.0,550.0,1.0,,,,,,,,,magenta,flipped triangle
0.0,6.0,1.0,1.0,6.0,6.0,553.1090070003302,3.0,1.0,phase_2,go,500.0,550.0,1.0,,,,,,,,,gray,I
0.0,7.0,2.0,1.0,5.0,5.0,636.8105859996831,3.0,1.0,phase_2,stop,500.0,550.0,3.0,,,,,,,,,cyan,circle
0.0,8.0,4.0,1.0,5.0,0.0,0.0,3.0,1.0,phase_2,stop,450.0,550.0,4.0,,,,,,,,,blue,hexagon
0.0,2.0,1.0,0.0,5.0,5.0,685.5654480000339,3.0,1.0,phase_2,go,500.0,550.0,1.0,,,,,,,,,magenta,flipped triangle
0.0,4.0,4.0,0.0,6.0,6.0,762.2005029998036,3.0,1.0,phase_2,go,500.0,550.0,1.0,,,,,,,,,white,cross
0.0,8.0,4.0,1.0,6.0,6.0,717.8422470001351,3.0,1.0,phase_2,stop,500.0,550.0,3.0,,,,,,,,,blue,hexagon
0.0,8.0,4.0,1.0,6.0,0.0,0.0,3.0,1.0,phase_2,stop,500.0,500.0,4.0,,,,,,,,,blue,hexagon
0.0,4.0,4.0,0.0,5.0,5.0,741.5179019999414,3.0,1.0,phase_2,go,500.0,550.0,1.0,,,,,,,,,white,cross
0.0,4.0,4.0,0.0,6.0,6.0,770.4734790004295,3.0,1.0,phase_2,go,500.0,550.0,1.0,,,,,,,,,white,cross
0.0,7.0,2.0,1.0,5.0,0.0,0.0,3.0,1.0,phase_2,stop,500.0,550.0,4.0,,,,,,,,,cyan,circle
0.0,8.0,4.0,1.0,6.0,6.0,352.4683139999069,3.0,1.0,phase_2,stop,550.0,550.0,3.0,,,,,,,,,blue,hexagon
0.0,5.0,0.5,1.0,6.0,6.0,598.4982529998888,3.0,1.0,phase_2,go,550.0,500.0,1.0,,,,,,,,,yellow,diamond
0.0,5.0,0.5,1.0,5.0,0.0,0.0,3.0,1.0,phase_2,stop,550.0,500.0,4.0,,,,,,,,,yellow,diamond
0.0,2.0,1.0,0.0,6.0,6.0,400.1763159999427,3.0,1.0,phase_2,go,600.0,500.0,1.0,,,,,,,,,magenta,flipped triangle
0.0,7.0,2.0,1.0,6.0,6.0,390.3809989997171,3.0,1.0,phase_2,stop,600.0,500.0,3.0,,,,,,,,,cyan,circle
0.0,1.0,0.5,0.0,6.0,6.0,770.641933999741,3.0,1.0,phase_2,go,600.0,450.0,1.0,,,,,,,,,green,square
0.0,4.0,4.0,0.0,6.0,6.0,591.633998999896,3.0,1.0,phase_2,go,600.0,450.0,1.0,,,,,,,,,white,cross
0.0,7.0,2.0,1.0,6.0,0.0,0.0,3.0,1.0,phase_2,stop,600.0,450.0,4.0,,,,,,,,,cyan,circle
0.0,8.0,4.0,1.0,5.0,5.0,770.8345719997851,3.0,1.0,phase_2,stop,600.0,500.0,3.0,,,,,,,,,blue,hexagon
0.0,4.0,4.0,0.0,5.0,5.0,666.522318999796,3.0,1.0,phase_2,go,550.0,500.0,1.0,,,,,,,,,white,cross
0.0,7.0,2.0,1.0,5.0,0.0,0.0,3.0,1.0,phase_2,stop,550.0,500.0,4.0,,,,,,,,,cyan,circle
0.0,8.0,4.0,1.0,5.0,5.0,1020.3292979999787,3.0,1.0,phase_2,go,600.0,500.0,1.0,,,,,,,,,blue,hexagon
0.0,2.0,1.0,0.0,6.0,6.0,696.1692470003982,3.0,1.0,phase_2,go,600.0,500.0,1.0,,,,,,,,,magenta,flipped triangle
0.0,5.0,0.5,1.0,6.0,6.0,590.1676180001232,3.0,1.0,phase_2,go,600.0,500.0,1.0,,,,,,,,,yellow,diamond
0.0,4.0,4.0,0.0,6.0,6.0,877.0591759998752,3.0,1.0,phase_2,go,600.0,500.0,1.0,,,,,,,,,white,cross
0.0,2.0,1.0,0.0,6.0,6.0,925.9179149999,3.0,1.0,phase_2,go,600.0,500.0,1.0,,,,,,,,,magenta,flipped triangle
0.0,8.0,4.0,1.0,6.0,0.0,0.0,3.0,1.0,phase_2,stop,600.0,500.0,4.0,,,,,,,,,blue,hexagon
0.0,2.0,1.0,0.0,6.0,6.0,667.2599429998627,3.0,1.0,phase_2,go,600.0,550.0,1.0,,,,,,,,,magenta,flipped triangle
0.0,1.0,0.5,0.0,6.0,6.0,468.1643099997927,4.0,1.0,phase_2,go,600.0,550.0,1.0,,,,,,,,,green,square
0.0,6.0,1.0,1.0,5.0,5.0,942.469052999968,4.0,1.0,phase_2,go,600.0,550.0,1.0,,,,,,,,,gray,I
0.0,3.0,2.0,0.0,6.0,6.0,544.7675379996326,4.0,1.0,phase_2,go,600.0,550.0,1.0,,,,,,,,,orange,triangle
0.0,3.0,2.0,0.0,5.0,5.0,457.695620999857,4.0,1.0,phase_2,go,600.0,550.0,1.0,,,,,,,,,orange,triangle
0.0,2.0,1.0,0.0,6.0,6.0,628.2549610000387,4.0,1.0,phase_2,go,600.0,550.0,1.0,,,,,,,,,magenta,flipped triangle
0.0,1.0,0.5,0.0,5.0,5.0,390.6895189998067,4.0,1.0,phase_2,go,600.0,550.0,1.0,,,,,,,,,green,square
0.0,3.0,2.0,0.0,6.0,6.0,381.5750429998843,4.0,1.0,phase_2,go,600.0,550.0,1.0,,,,,,,,,orange,triangle
0.0,1.0,0.5,0.0,6.0,6.0,400.6051930000467,4.0,1.0,phase_2,go,600.0,550.0,1.0,,,,,,,,,green,square
0.0,5.0,0.5,1.0,6.0,6.0,381.4568960001452,4.0,1.0,phase_2,stop,600.0,550.0,3.0,,,,,,,,,yellow,diamond
0.0,4.0,4.0,0.0,6.0,6.0,324.2988550000518,4.0,1.0,phase_2,go,600.0,500.0,1.0,,,,,,,,,white,cross
0.0,7.0,2.0,1.0,5.0,5.0,756.140478999896,4.0,1.0,phase_2,stop,600.0,500.0,3.0,,,,,,,,,cyan,circle
0.0,5.0,0.5,1.0,5.0,5.0,400.2481170000465,4.0,1.0,phase_2,stop,550.0,500.0,3.0,,,,,,,,,yellow,diamond
0.0,7.0,2.0,1.0,5.0,5.0,1016.4589500000147,4.0,1.0,phase_2,go,500.0,500.0,1.0,,,,,,,,,cyan,circle
0.0,6.0,1.0,1.0,6.0,6.0,514.4341320001331,4.0,1.0,phase_2,go,500.0,500.0,1.0,,,,,,,,,gray,I
0.0,3.0,2.0,0.0,5.0,5.0,495.1895230001355,4.0,1.0,phase_2,go,500.0,500.0,1.0,,,,,,,,,orange,triangle
0.0,5.0,0.5,1.0,5.0,0.0,0.0,4.0,1.0,phase_2,stop,500.0,500.0,4.0,,,,,,,,,yellow,diamond
0.0,1.0,0.5,0.0,5.0,5.0,495.6646900000123,4.0,1.0,phase_2,go,550.0,500.0,1.0,,,,,,,,,green,square
0.0,6.0,1.0,1.0,6.0,6.0,419.1877789999125,4.0,1.0,phase_2,go,550.0,500.0,1.0,,,,,,,,,gray,I
0.0,5.0,0.5,1.0,5.0,5.0,438.5880460004046,4.0,1.0,phase_2,stop,550.0,500.0,3.0,,,,,,,,,yellow,diamond
0.0,3.0,2.0,0.0,6.0,6.0,457.1433770001931,4.0,1.0,phase_2,go,500.0,500.0,1.0,,,,,,,,,orange,triangle
0.0,5.0,0.5,1.0,6.0,0.0,0.0,4.0,1.0,phase_2,stop,500.0,500.0,4.0,,,,,,,,,yellow,diamond
0.0,4.0,4.0,0.0,6.0,6.0,447.9557519998707,4.0,1.0,phase_2,go,500.0,550.0,1.0,,,,,,,,,white,cross
0.0,2.0,1.0,0.0,5.0,5.0,580.5204670000421,4.0,1.0,phase_2,go,500.0,550.0,1.0,,,,,,,,,magenta,flipped triangle
0.0,4.0,4.0,0.0,5.0,5.0,429.9160749997099,4.0,1.0,phase_2,go,500.0,550.0,1.0,,,,,,,,,white,cross
0.0,4.0,4.0,0.0,5.0,5.0,419.2982010004016,4.0,1.0,phase_2,go,500.0,550.0,1.0,,,,,,,,,white,cross
0.0,2.0,1.0,0.0,6.0,6.0,524.501870000222,4.0,1.0,phase_2,go,500.0,550.0,1.0,,,,,,,,,magenta,flipped triangle
0.0,1.0,0.5,0.0,5.0,5.0,466.2322969998058,4.0,1.0,phase_2,go,500.0,550.0,1.0,,,,,,,,,green,square
0.0,7.0,2.0,1.0,6.0,0.0,0.0,4.0,1.0,phase_2,stop,500.0,550.0,4.0,,,,,,,,,cyan,circle
0.0,4.0,4.0,0.0,5.0,5.0,962.6694920002592,4.0,1.0,phase_2,go,500.0,600.0,1.0,,,,,,,,,white,cross
0.0,1.0,0.5,0.0,5.0,5.0,564.2480169999544,4.0,1.0,phase_2,go,500.0,600.0,1.0,,,,,,,,,green,square
0.0,7.0,2.0,1.0,6.0,6.0,1077.5813310001467,4.0,1.0,phase_2,go,500.0,600.0,1.0,,,,,,,,,cyan,circle
0.0,4.0,4.0,0.0,6.0,6.0,401.8693570001233,4.0,1.0,phase_2,go,500.0,600.0,1.0,,,,,,,,,white,cross
0.0,3.0,2.0,0.0,5.0,5.0,525.3007089995663,4.0,1.0,phase_2,go,500.0,600.0,1.0,,,,,,,,,orange,triangle
0.0,2.0,1.0,0.0,5.0,5.0,515.2767889999268,4.0,1.0,phase_2,go,500.0,600.0,1.0,,,,,,,,,magenta,flipped triangle
0.0,4.0,4.0,0.0,6.0,6.0,486.1008140001104,4.0,1.0,phase_2,go,500.0,600.0,1.0,,,,,,,,,white,cross
0.0,7.0,2.0,1.0,5.0,0.0,0.0,4.0,1.0,phase_2,stop,500.0,600.0,4.0,,,,,,,,,cyan,circle
0.0,5.0,0.5,1.0,6.0,6.0,763.117154000156,5.0,1.0,phase_2,stop,550.0,600.0,3.0,,,,,,,,,yellow,diamond
0.0,7.0,2.0,1.0,5.0,5.0,709.6617090001018,5.0,1.0,phase_2,stop,550.0,550.0,3.0,,,,,,,,,cyan,circle
0.0,1.0,0.5,0.0,5.0,5.0,581.227143000433,5.0,1.0,phase_2,go,500.0,550.0,1.0,,,,,,,,,green,square
0.0,8.0,4.0,1.0,5.0,5.0,456.3385719998223,5.0,1.0,phase_2,stop,500.0,550.0,3.0,,,,,,,,,blue,hexagon
0.0,1.0,0.5,0.0,5.0,5.0,515.4732060000242,5.0,1.0,phase_2,go,450.0,550.0,1.0,,,,,,,,,green,square
0.0,4.0,4.0,0.0,6.0,6.0,570.0456640001903,5.0,1.0,phase_2,go,450.0,550.0,1.0,,,,,,,,,white,cross
0.0,1.0,0.5,0.0,6.0,6.0,646.3721009999972,5.0,1.0,phase_2,go,450.0,550.0,1.0,,,,,,,,,green,square
0.0,2.0,1.0,0.0,5.0,5.0,600.3244049998102,5.0,1.0,phase_2,go,450.0,550.0,1.0,,,,,,,,,magenta,flipped triangle
0.0,4.0,4.0,0.0,5.0,5.0,469.9629880001339,5.0,1.0,phase_2,go,450.0,550.0,1.0,,,,,,,,,white,cross
0.0,8.0,4.0,1.0,6.0,0.0,0.0,5.0,1.0,phase_2,stop,450.0,550.0,4.0,,,,,,,,,blue,hexagon
0.0,4.0,4.0,0.0,6.0,6.0,476.5383809999548,5.0,1.0,phase_2,go,450.0,600.0,1.0,,,,,,,,,white,cross
0.0,8.0,4.0,1.0,5.0,0.0,0.0,5.0,1.0,phase_2,stop,450.0,600.0,4.0,,,,,,,,,blue,hexagon
0.0,3.0,2.0,0.0,5.0,5.0,494.7242109997205,5.0,1.0,phase_2,go,500.0,600.0,1.0,,,,,,,,,orange,triangle
0.0,8.0,4.0,1.0,5.0,0.0,0.0,5.0,1.0,phase_2,stop,500.0,600.0,4.0,,,,,,,,,blue,hexagon
0.0,4.0,4.0,0.0,5.0,5.0,420.7859959997222,5.0,1.0,phase_2,go,550.0,600.0,1.0,,,,,,,,,white,cross
0.0,6.0,1.0,1.0,5.0,5.0,533.843600000182,5.0,1.0,phase_2,stop,550.0,600.0,3.0,,,,,,,,,gray,I
0.0,2.0,1.0,0.0,5.0,5.0,533.0394719999276,5.0,1.0,phase_2,go,500.0,600.0,1.0,,,,,,,,,magenta,flipped triangle
0.0,7.0,2.0,1.0,6.0,6.0,1123.8904749998255,5.0,1.0,phase_2,go,500.0,600.0,1.0,,,,,,,,,cyan,circle
0.0,2.0,1.0,0.0,6.0,6.0,523.2065449999936,5.0,1.0,phase_2,go,500.0,600.0,1.0,,,,,,,,,magenta,flipped triangle
0.0,5.0,0.5,1.0,6.0,6.0,1153.4049229999257,5.0,1.0,phase_2,go,500.0,600.0,1.0,,,,,,,,,yellow,diamond
0.0,5.0,0.5,1.0,6.0,0.0,0.0,5.0,1.0,phase_2,stop,500.0,600.0,4.0,,,,,,,,,yellow,diamond
0.0,8.0,4.0,1.0,6.0,0.0,0.0,5.0,1.0,phase_2,stop,500.0,650.0,4.0,,,,,,,,,blue,hexagon
0.0,7.0,2.0,1.0,6.0,6.0,866.7589199999384,5.0,1.0,phase_2,go,500.0,700.0,1.0,,,,,,,,,cyan,circle
0.0,1.0,0.5,0.0,6.0,6.0,553.3269429997745,5.0,1.0,phase_2,go,500.0,700.0,1.0,,,,,,,,,green,square
0.0,5.0,0.5,1.0,6.0,0.0,0.0,5.0,1.0,phase_2,stop,500.0,700.0,4.0,,,,,,,,,yellow,diamond
0.0,3.0,2.0,0.0,5.0,5.0,560.7103319998714,5.0,1.0,phase_2,go,500.0,750.0,1.0,,,,,,,,,orange,triangle
0.0,1.0,0.5,0.0,5.0,5.0,487.3542229997838,5.0,1.0,phase_2,go,500.0,750.0,1.0,,,,,,,,,green,square
0.0,4.0,4.0,0.0,6.0,6.0,476.9036960001358,5.0,1.0,phase_2,go,500.0,750.0,1.0,,,,,,,,,white,cross
0.0,6.0,1.0,1.0,6.0,6.0,1008.9242440003543,5.0,1.0,phase_2,go,500.0,750.0,1.0,,,,,,,,,gray,I
0.0,7.0,2.0,1.0,5.0,0.0,0.0,5.0,1.0,phase_2,stop,500.0,750.0,4.0,,,,,,,,,cyan,circle
0.0,6.0,1.0,1.0,6.0,6.0,476.12324900001107,5.0,1.0,phase_2,stop,550.0,750.0,3.0,,,,,,,,,gray,I
0.0,4.0,4.0,0.0,5.0,5.0,780.16351999986,5.0,1.0,phase_2,go,550.0,700.0,1.0,,,,,,,,,white,cross
0.0,1.0,0.5,0.0,6.0,6.0,686.7599960000916,5.0,1.0,phase_2,go,550.0,700.0,1.0,,,,,,,,,green,square
0.0,3.0,2.0,0.0,5.0,5.0,675.8215699996981,5.0,1.0,phase_2,go,550.0,700.0,1.0,,,,,,,,,orange,triangle
0.0,4.0,4.0,0.0,5.0,5.0,742.9638029998387,5.0,1.0,phase_2,go,550.0,700.0,1.0,,,,,,,,,white,cross
0.0,5.0,0.5,1.0,5.0,5.0,1037.9061620001266,5.0,1.0,phase_2,go,550.0,700.0,1.0,,,,,,,,,yellow,diamond
0.0,3.0,2.0,0.0,5.0,5.0,505.5956440000955,6.0,1.0,phase_2,go,550.0,700.0,1.0,,,,,,,,,orange,triangle
0.0,6.0,1.0,1.0,6.0,6.0,589.7326899998916,6.0,1.0,phase_2,stop,550.0,700.0,3.0,,,,,,,,,gray,I
0.0,8.0,4.0,1.0,6.0,6.0,714.2294160003075,6.0,1.0,phase_2,go,550.0,650.0,1.0,,,,,,,,,blue,hexagon
0.0,8.0,4.0,1.0,6.0,6.0,1301.6472159997647,6.0,1.0,phase_2,go,550.0,650.0,1.0,,,,,,,,,blue,hexagon
0.0,6.0,1.0,1.0,6.0,6.0,571.0278130000006,6.0,1.0,phase_2,stop,550.0,650.0,3.0,,,,,,,,,gray,I
0.0,2.0,1.0,0.0,5.0,5.0,827.6689490003264,6.0,1.0,phase_2,go,550.0,600.0,1.0,,,,,,,,,magenta,flipped triangle
0.0,6.0,1.0,1.0,6.0,0.0,0.0,6.0,1.0,phase_2,stop,550.0,600.0,4.0,,,,,,,,,gray,I
0.0,6.0,1.0,1.0,5.0,5.0,456.6377999999531,6.0,1.0,phase_2,stop,550.0,650.0,3.0,,,,,,,,,gray,I
0.0,8.0,4.0,1.0,5.0,0.0,0.0,6.0,1.0,phase_2,stop,500.0,650.0,4.0,,,,,,,,,blue,hexagon
0.0,1.0,0.5,0.0,5.0,5.0,580.4435879999801,6.0,1.0,phase_2,go,550.0,650.0,1.0,,,,,,,,,green,square
0.0,2.0,1.0,0.0,5.0,5.0,428.51747099985,6.0,1.0,phase_2,go,550.0,650.0,1.0,,,,,,,,,magenta,flipped triangle
0.0,6.0,1.0,1.0,5.0,5.0,437.2361900000214,6.0,1.0,phase_2,stop,550.0,650.0,3.0,,,,,,,,,gray,I
0.0,5.0,0.5,1.0,5.0,0.0,0.0,6.0,1.0,phase_2,stop,500.0,650.0,4.0,,,,,,,,,yellow,diamond
0.0,2.0,1.0,0.0,6.0,6.0,399.4082170002002,6.0,1.0,phase_2,go,550.0,650.0,1.0,,,,,,,,,magenta,flipped triangle
0.0,3.0,2.0,0.0,6.0,6.0,554.2156900000919,6.0,1.0,phase_2,go,550.0,650.0,1.0,,,,,,,,,orange,triangle
0.0,8.0,4.0,1.0,5.0,0.0,0.0,6.0,1.0,phase_2,stop,550.0,650.0,4.0,,,,,,,,,blue,hexagon
0.0,6.0,1.0,1.0,5.0,5.0,1065.1822340000765,6.0,1.0,phase_2,go,600.0,650.0,1.0,,,,,,,,,gray,I
0.0,7.0,2.0,1.0,6.0,0.0,0.0,6.0,1.0,phase_2,stop,600.0,650.0,4.0,,,,,,,,,cyan,circle
0.0,5.0,0.5,1.0,5.0,0.0,0.0,6.0,1.0,phase_2,stop,600.0,700.0,4.0,,,,,,,,,yellow,diamond
0.0,5.0,0.5,1.0,6.0,0.0,0.0,6.0,1.0,phase_2,stop,650.0,700.0,4.0,,,,,,,,,yellow,diamond
0.0,4.0,4.0,0.0,6.0,6.0,571.8783699999221,6.0,1.0,phase_2,go,650.0,750.0,1.0,,,,,,,,,white,cross
0.0,5.0,0.5,1.0,6.0,0.0,0.0,6.0,1.0,phase_2,stop,650.0,750.0,4.0,,,,,,,,,yellow,diamond
0.0,1.0,0.5,0.0,6.0,6.0,533.9428129996122,6.0,1.0,phase_2,go,650.0,800.0,1.0,,,,,,,,,green,square
0.0,2.0,1.0,0.0,6.0,6.0,418.5596990000704,6.0,1.0,phase_2,go,650.0,800.0,1.0,,,,,,,,,magenta,flipped triangle
0.0,2.0,1.0,0.0,5.0,5.0,447.9588439999133,6.0,1.0,phase_2,go,650.0,800.0,1.0,,,,,,,,,magenta,flipped triangle
0.0,7.0,2.0,1.0,6.0,6.0,447.463025000161,6.0,1.0,phase_2,stop,650.0,800.0,3.0,,,,,,,,,cyan,circle
0.0,6.0,1.0,1.0,6.0,6.0,675.3839379998681,6.0,1.0,phase_2,stop,650.0,750.0,3.0,,,,,,,,,gray,I
0.0,3.0,2.0,0.0,6.0,6.0,561.8923669999276,6.0,1.0,phase_2,go,650.0,700.0,1.0,,,,,,,,,orange,triangle
0.0,3.0,2.0,0.0,6.0,6.0,447.1350869998787,6.0,1.0,phase_2,go,650.0,700.0,1.0,,,,,,,,,orange,triangle
0.0,2.0,1.0,0.0,5.0,5.0,447.8464189996884,6.0,1.0,phase_2,go,650.0,700.0,1.0,,,,,,,,,magenta,flipped triangle
0.0,8.0,4.0,1.0,6.0,0.0,0.0,6.0,1.0,phase_2,stop,650.0,700.0,4.0,,,,,,,,,blue,hexagon
0.0,2.0,1.0,0.0,6.0,6.0,399.6603380001033,6.0,1.0,phase_2,go,650.0,750.0,1.0,,,,,,,,,magenta,flipped triangle
0.0,7.0,2.0,1.0,6.0,6.0,1158.756449000066,6.0,1.0,phase_2,go,650.0,750.0,1.0,,,,,,,,,cyan,circle
0.0,6.0,1.0,1.0,5.0,0.0,0.0,6.0,1.0,phase_2,stop,650.0,750.0,4.0,,,,,,,,,gray,I
0.0,1.0,0.5,0.0,6.0,6.0,417.4521509999067,6.0,1.0,phase_2,go,700.0,750.0,1.0,,,,,,,,,green,square
0.0,7.0,2.0,1.0,5.0,5.0,446.5345929997966,6.0,1.0,phase_2,stop,700.0,750.0,3.0,,,,,,,,,cyan,circle
0.0,1.0,0.5,0.0,6.0,6.0,447.0087509998848,7.0,1.0,phase_2,go,650.0,750.0,1.0,,,,,,,,,green,square
0.0,7.0,2.0,1.0,5.0,0.0,0.0,7.0,1.0,phase_2,stop,650.0,750.0,4.0,,,,,,,,,cyan,circle
0.0,5.0,0.5,1.0,6.0,0.0,0.0,7.0,1.0,phase_2,stop,700.0,750.0,4.0,,,,,,,,,yellow,diamond
0.0,5.0,0.5,1.0,5.0,0.0,0.0,7.0,1.0,phase_2,stop,700.0,800.0,4.0,,,,,,,,,yellow,diamond
0.0,4.0,4.0,0.0,5.0,5.0,590.4641420002008,7.0,1.0,phase_2,go,750.0,800.0,1.0,,,,,,,,,white,cross
0.0,4.0,4.0,0.0,5.0,5.0,429.599233999852,7.0,1.0,phase_2,go,750.0,800.0,1.0,,,,,,,,,white,cross
0.0,6.0,1.0,1.0,6.0,0.0,0.0,7.0,1.0,phase_2,stop,750.0,800.0,4.0,,,,,,,,,gray,I
0.0,4.0,4.0,0.0,5.0,5.0,411.1366389997783,7.0,1.0,phase_2,go,750.0,850.0,1.0,,,,,,,,,white,cross
0.0,4.0,4.0,0.0,6.0,6.0,400.4821809999157,7.0,1.0,phase_2,go,750.0,850.0,1.0,,,,,,,,,white,cross
0.0,7.0,2.0,1.0,6.0,6.0,913.516418999734,7.0,1.0,phase_2,go,750.0,850.0,1.0,,,,,,,,,cyan,circle
0.0,1.0,0.5,0.0,5.0,5.0,524.0691829999378,7.0,1.0,phase_2,go,750.0,850.0,1.0,,,,,,,,,green,square
0.0,5.0,0.5,1.0,5.0,0.0,0.0,7.0,1.0,phase_2,stop,750.0,850.0,4.0,,,,,,,,,yellow,diamond
0.0,6.0,1.0,1.0,6.0,0.0,0.0,7.0,1.0,phase_2,stop,800.0,850.0,4.0,,,,,,,,,gray,I
0.0,4.0,4.0,0.0,6.0,6.0,600.8485809998092,7.0,1.0,phase_2,go,800.0,900.0,1.0,,,,,,,,,white,cross
0.0,3.0,2.0,0.0,6.0,6.0,383.0995879998227,7.0,1.0,phase_2,go,800.0,900.0,1.0,,,,,,,,,orange,triangle
0.0,2.0,1.0,0.0,6.0,6.0,617.3021490003521,7.0,1.0,phase_2,go,800.0,900.0,1.0,,,,,,,,,magenta,flipped triangle
0.0,7.0,2.0,1.0,6.0,0.0,0.0,7.0,1.0,phase_2,stop,800.0,900.0,4.0,,,,,,,,,cyan,circle
0.0,2.0,1.0,0.0,6.0,6.0,475.661460000083,7.0,1.0,phase_2,go,800.0,950.0,1.0,,,,,,,,,magenta,flipped triangle
0.0,6.0,1.0,1.0,6.0,0.0,0.0,7.0,1.0,phase_2,stop,800.0,950.0,4.0,,,,,,,,,gray,I
0.0,4.0,4.0,0.0,6.0,6.0,427.47007700018,7.0,1.0,phase_2,go,800.0,1000.0,1.0,,,,,,,,,white,cross
0.0,6.0,1.0,1.0,6.0,6.0,618.203339000047,7.0,1.0,phase_2,stop,800.0,1000.0,3.0,,,,,,,,,gray,I
0.0,7.0,2.0,1.0,5.0,0.0,0.0,7.0,1.0,phase_2,stop,800.0,950.0,4.0,,,,,,,,,cyan,circle
0.0,5.0,0.5,1.0,5.0,0.0,0.0,7.0,1.0,phase_2,stop,850.0,950.0,4.0,,,,,,,,,yellow,diamond
0.0,1.0,0.5,0.0,5.0,5.0,483.9690650001103,7.0,1.0,phase_2,go,900.0,950.0,1.0,,,,,,,,,green,square
0.0,2.0,1.0,0.0,6.0,6.0,496.3769549999597,7.0,1.0,phase_2,go,900.0,950.0,1.0,,,,,,,,,magenta,flipped triangle
0.0,8.0,4.0,1.0,6.0,0.0,0.0,7.0,1.0,phase_2,stop,900.0,950.0,4.0,,,,,,,,,blue,hexagon
0.0,5.0,0.5,1.0,6.0,0.0,0.0,7.0,1.0,phase_2,stop,900.0,1000.0,4.0,,,,,,,,,yellow,diamond
0.0,2.0,1.0,0.0,5.0,5.0,389.6716120002566,7.0,1.0,phase_2,go,900.0,1050.0,1.0,,,,,,,,,magenta,flipped triangle
0.0,2.0,1.0,0.0,6.0,6.0,515.7273529998747,7.0,1.0,phase_2,go,900.0,1050.0,1.0,,,,,,,,,magenta,flipped triangle
0.0,5.0,0.5,1.0,6.0,0.0,0.0,7.0,1.0,phase_2,stop,900.0,1050.0,4.0,,,,,,,,,yellow,diamond
0.0,8.0,4.0,1.0,5.0,5.0,1351.6496760003065,7.0,1.0,phase_2,go,900.0,1100.0,1.0,,,,,,,,,blue,hexagon
0.0,3.0,2.0,0.0,6.0,6.0,541.8010789999244,7.0,1.0,phase_2,go,900.0,1100.0,1.0,,,,,,,,,orange,triangle
0.0,7.0,2.0,1.0,6.0,6.0,438.0309360003593,7.0,1.0,phase_2,stop,900.0,1100.0,3.0,,,,,,,,,cyan,circle
0.0,7.0,2.0,1.0,6.0,6.0,1224.9576099998194,7.0,1.0,phase_2,stop,900.0,1050.0,3.0,,,,,,,,,cyan,circle
0.0,8.0,4.0,1.0,6.0,0.0,0.0,7.0,1.0,phase_2,go,900.0,1000.0,5.0,,,,,,,,,blue,hexagon
0.0,8.0,4.0,1.0,6.0,6.0,574.0450490002331,7.0,1.0,phase_2,stop,900.0,1000.0,3.0,,,,,,,,,blue,hexagon
0.0,7.0,2.0,1.0,5.0,0.0,0.0,8.0,1.0,phase_2,stop,900.0,950.0,4.0,,,,,,,,,cyan,circle
0.0,3.0,2.0,0.0,6.0,6.0,371.2812160001704,8.0,1.0,phase_2,go,950.0,950.0,1.0,,,,,,,,,orange,triangle
0.0,6.0,1.0,1.0,6.0,0.0,0.0,8.0,1.0,phase_2,stop,950.0,950.0,4.0,,,,,,,,,gray,I
0.0,8.0,4.0,1.0,6.0,6.0,1354.2312370000218,8.0,1.0,phase_2,go,950.0,1000.0,1.0,,,,,,,,,blue,hexagon
0.0,1.0,0.5,0.0,6.0,6.0,562.8137930002595,8.0,1.0,phase_2,go,950.0,1000.0,1.0,,,,,,,,,green,square
0.0,5.0,0.5,1.0,6.0,6.0,1194.7464830000172,8.0,1.0,phase_2,stop,950.0,1000.0,3.0,,,,,,,,,yellow,diamond
0.0,1.0,0.5,0.0,5.0,5.0,554.1790649999712,8.0,1.0,phase_2,go,950.0,950.0,1.0,,,,,,,,,green,square
0.0,2.0,1.0,0.0,5.0,5.0,458.4488489999785,8.0,1.0,phase_2,go,950.0,950.0,1.0,,,,,,,,,magenta,flipped triangle
0.0,8.0,4.0,1.0,5.0,5.0,1086.8175720002,8.0,1.0,phase_2,go,950.0,950.0,1.0,,,,,,,,,blue,hexagon
0.0,3.0,2.0,0.0,6.0,6.0,504.73695100026816,8.0,1.0,phase_2,go,950.0,950.0,1.0,,,,,,,,,orange,triangle
0.0,8.0,4.0,1.0,6.0,6.0,1110.7624090000172,8.0,1.0,phase_2,stop,950.0,950.0,3.0,,,,,,,,,blue,hexagon
0.0,3.0,2.0,0.0,5.0,5.0,534.122090999972,8.0,1.0,phase_2,go,950.0,900.0,1.0,,,,,,,,,orange,triangle
0.0,5.0,0.5,1.0,5.0,5.0,1315.7534739998482,8.0,1.0,phase_2,go,950.0,900.0,1.0,,,,,,,,,yellow,diamond
0.0,7.0,2.0,1.0,6.0,6.0,1191.2140599997656,8.0,1.0,phase_2,go,950.0,900.0,1.0,,,,,,,,,cyan,circle
0.0,1.0,0.5,0.0,6.0,6.0,563.0822699999953,8.0,1.0,phase_2,go,950.0,900.0,1.0,,,,,,,,,green,square
0.0,5.0,0.5,1.0,6.0,0.0,0.0,8.0,1.0,phase_2,stop,950.0,900.0,4.0,,,,,,,,,yellow,diamond
0.0,1.0,0.5,0.0,6.0,6.0,544.0949610001553,8.0,1.0,phase_2,go,950.0,950.0,1.0,,,,,,,,,green,square
0.0,2.0,1.0,0.0,5.0,5.0,478.0385969997951,8.0,1.0,phase_2,go,950.0,950.0,1.0,,,,,,,,,magenta,flipped triangle
0.0,1.0,0.5,0.0,6.0,6.0,581.8682839999383,8.0,1.0,phase_2,go,950.0,950.0,1.0,,,,,,,,,green,square
0.0,4.0,4.0,0.0,6.0,6.0,478.1262229998901,8.0,1.0,phase_2,go,950.0,950.0,1.0,,,,,,,,,white,cross
0.0,1.0,0.5,0.0,5.0,5.0,516.4713479998682,8.0,1.0,phase_2,go,950.0,950.0,1.0,,,,,,,,,green,square
0.0,2.0,1.0,0.0,6.0,6.0,372.7484490000279,8.0,1.0,phase_2,go,950.0,950.0,1.0,,,,,,,,,magenta,flipped triangle
0.0,2.0,1.0,0.0,5.0,5.0,392.3250550001285,8.0,1.0,phase_2,go,950.0,950.0,1.0,,,,,,,,,magenta,flipped triangle
0.0,6.0,1.0,1.0,5.0,0.0,0.0,8.0,1.0,phase_2,stop,950.0,950.0,4.0,,,,,,,,,gray,I
0.0,6.0,1.0,1.0,5.0,5.0,1352.3599650002325,8.0,1.0,phase_2,go,1000.0,950.0,1.0,,,,,,,,,gray,I
0.0,8.0,4.0,1.0,5.0,0.0,0.0,8.0,1.0,phase_2,stop,1000.0,950.0,4.0,,,,,,,,,blue,hexagon
0.0,3.0,2.0,0.0,6.0,6.0,657.9172169999765,8.0,1.0,phase_2,go,1050.0,950.0,1.0,,,,,,,,,orange,triangle
0.0,3.0,2.0,0.0,5.0,5.0,590.3862079999271,8.0,1.0,phase_2,go,1050.0,950.0,1.0,,,,,,,,,orange,triangle
0.0,4.0,4.0,0.0,5.0,5.0,610.2022459999716,8.0,1.0,phase_2,go,1050.0,950.0,1.0,,,,,,,,,white,cross
0.0,1.0,0.5,0.0,5.0,5.0,504.5401230004245,8.0,1.0,phase_2,go,1050.0,950.0,1.0,,,,,,,,,green,square
0.0,7.0,2.0,1.0,5.0,0.0,0.0,8.0,1.0,phase_2,stop,1050.0,950.0,4.0,,,,,,,,,cyan,circle
0.0,3.0,2.0,0.0,6.0,6.0,439.0454100002898,8.0,1.0,phase_2,go,1100.0,950.0,1.0,,,,,,,,,orange,triangle
0.0,5.0,0.5,1.0,5.0,5.0,1276.7768940002495,8.0,1.0,phase_2,stop,1100.0,950.0,3.0,,,,,,,,,yellow,diamond
0.0,3.0,2.0,0.0,6.0,6.0,515.4331300000194,8.0,1.0,phase_2,go,1050.0,950.0,1.0,,,,,,,,,orange,triangle
0.0,8.0,4.0,1.0,5.0,0.0,0.0,8.0,1.0,phase_2,stop,1050.0,950.0,4.0,,,,,,,,,blue,hexagon
0.0,6.0,1.0,1.0,6.0,0.0,0.0,8.0,1.0,phase_2,stop,1100.0,950.0,4.0,,,,,,,,,gray,I
0.0,6.0,1.0,1.0,7.0,2.0,2152.757746000134,1.0,1.0,phase_3,,,,,405.0,3.0,135.0,405.0,540.0,810.0,675.0,270.0,gray,I
0.0,2.0,1.0,0.0,7.0,4.0,3718.542238999362,1.0,1.0,phase_3,,,,,768.0,4.0,960.0,192.0,1152.0,768.0,384.0,576.0,magenta,flipped triangle
0.0,1.0,0.5,0.0,7.0,4.0,2541.7694600000686,1.0,1.0,phase_3,,,,,346.0,2.0,1038.0,173.0,692.0,346.0,865.0,519.0,green,square
0.0,1.0,0.5,0.0,7.0,1.0,1325.0130980004542,1.0,1.0,phase_3,,,,,154.0,1.0,154.0,616.0,924.0,770.0,462.0,308.0,green,square
0.0,7.0,2.0,1.0,7.0,4.0,2929.9110310003016,1.0,1.0,phase_3,,,,,810.0,6.0,135.0,270.0,675.0,810.0,540.0,405.0,cyan,circle
0.0,7.0,2.0,1.0,7.0,6.0,4084.317930999532,1.0,1.0,phase_3,,,,,960.0,5.0,192.0,768.0,1152.0,384.0,576.0,960.0,cyan,circle
0.0,6.0,1.0,1.0,7.0,2.0,4820.247543999358,1.0,1.0,phase_3,,,,,1038.0,6.0,865.0,1038.0,173.0,519.0,692.0,346.0,gray,I
0.0,3.0,2.0,0.0,7.0,2.0,3012.568723000186,1.0,1.0,phase_3,,,,,135.0,1.0,810.0,135.0,270.0,675.0,540.0,405.0,orange,triangle
0.0,5.0,0.5,1.0,7.0,5.0,1597.270657000081,1.0,1.0,phase_3,,,,,696.0,6.0,464.0,580.0,232.0,348.0,696.0,116.0,yellow,diamond
0.0,2.0,1.0,0.0,7.0,1.0,2191.3919630005694,1.0,1.0,phase_3,,,,,270.0,2.0,270.0,675.0,135.0,810.0,405.0,540.0,magenta,flipped triangle
0.0,1.0,0.5,0.0,7.0,4.0,2534.951732999616,1.0,1.0,phase_3,,,,,464.0,4.0,696.0,232.0,348.0,464.0,580.0,116.0,green,square
0.0,3.0,2.0,0.0,7.0,1.0,3830.223975000081,1.0,1.0,phase_3,,,,,135.0,1.0,135.0,405.0,540.0,810.0,675.0,270.0,orange,triangle
0.0,3.0,2.0,0.0,7.0,4.0,3914.896735000184,1.0,1.0,phase_3,,,,,116.0,1.0,580.0,348.0,696.0,116.0,464.0,232.0,orange,triangle
0.0,3.0,2.0,0.0,7.0,5.0,2324.46773600077,1.0,1.0,phase_3,,,,,192.0,1.0,384.0,768.0,1152.0,960.0,192.0,576.0,orange,triangle
0.0,5.0,0.5,1.0,7.0,3.0,1854.6529479999665,1.0,1.0,phase_3,,,,,464.0,4.0,580.0,116.0,464.0,696.0,232.0,348.0,yellow,diamond
0.0,6.0,1.0,1.0,7.0,5.0,2170.259762000569,1.0,1.0,phase_3,,,,,924.0,6.0,308.0,154.0,616.0,462.0,924.0,770.0,gray,I
0.0,4.0,4.0,0.0,7.0,1.0,2785.9774900007324,1.0,1.0,phase_3,,,,,770.0,5.0,770.0,616.0,462.0,308.0,154.0,924.0,white,cross
0.0,8.0,4.0,1.0,7.0,3.0,1647.0122609998723,1.0,1.0,phase_3,,,,,1038.0,6.0,692.0,519.0,1038.0,865.0,173.0,346.0,blue,hexagon
0.0,8.0,4.0,1.0,7.0,1.0,3249.390879999737,1.0,1.0,phase_3,,,,,924.0,6.0,924.0,308.0,770.0,616.0,462.0,154.0,blue,hexagon
0.0,3.0,2.0,0.0,7.0,5.0,1258.7571680005567,1.0,1.0,phase_3,,,,,154.0,1.0,308.0,770.0,616.0,462.0,154.0,924.0,orange,triangle
0.0,7.0,2.0,1.0,7.0,6.0,1888.862230000086,2.0,1.0,phase_3,,,,,924.0,6.0,616.0,154.0,770.0,462.0,308.0,924.0,cyan,circle
0.0,5.0,0.5,1.0,7.0,2.0,3392.0423669997035,2.0,1.0,phase_3,,,,,462.0,3.0,616.0,462.0,154.0,308.0,924.0,770.0,yellow,diamond
0.0,7.0,2.0,1.0,7.0,2.0,1615.7864150000023,2.0,1.0,phase_3,,,,,924.0,6.0,616.0,924.0,308.0,770.0,462.0,154.0,cyan,circle
0.0,4.0,4.0,0.0,7.0,1.0,2003.1712830004835,2.0,1.0,phase_3,,,,,768.0,4.0,768.0,1152.0,576.0,384.0,960.0,192.0,white,cross
0.0,2.0,1.0,0.0,7.0,1.0,2774.7142770003848,2.0,1.0,phase_3,,,,,346.0,2.0,346.0,173.0,692.0,1038.0,519.0,865.0,magenta,flipped triangle
0.0,3.0,2.0,0.0,7.0,3.0,1568.610264000199,2.0,1.0,phase_3,,,,,116.0,1.0,348.0,232.0,116.0,464.0,580.0,696.0,orange,triangle
0.0,1.0,0.5,0.0,7.0,5.0,3827.0428079995327,2.0,1.0,phase_3,,,,,384.0,2.0,576.0,960.0,192.0,1152.0,384.0,768.0,green,square
0.0,2.0,1.0,0.0,7.0,5.0,2372.749696000028,2.0,1.0,phase_3,,,,,346.0,2.0,692.0,173.0,865.0,1038.0,346.0,519.0,magenta,flipped triangle
0.0,8.0,4.0,1.0,7.0,1.0,1737.5173619993802,2.0,1.0,phase_3,,,,,1152.0,6.0,1152.0,576.0,192.0,384.0,768.0,960.0,blue,hexagon
0.0,7.0,2.0,1.0,7.0,4.0,3496.4298490003785,2.0,1.0,phase_3,,,,,865.0,5.0,519.0,173.0,692.0,865.0,346.0,1038.0,cyan,circle
0.0,4.0,4.0,0.0,7.0,1.0,4402.540705999854,2.0,1.0,phase_3,,,,,675.0,5.0,675.0,540.0,270.0,810.0,405.0,135.0,white,cross
0.0,3.0,2.0,0.0,7.0,1.0,1740.2532480000446,2.0,1.0,phase_3,,,,,192.0,1.0,192.0,1152.0,960.0,576.0,384.0,768.0,orange,triangle
0.0,8.0,4.0,1.0,7.0,2.0,2354.7398079999766,2.0,1.0,phase_3,,,,,924.0,6.0,770.0,924.0,154.0,462.0,308.0,616.0,blue,hexagon
0.0,4.0,4.0,0.0,7.0,4.0,2580.653199000153,2.0,1.0,phase_3,,,,,616.0,4.0,462.0,924.0,770.0,616.0,154.0,308.0,white,cross
0.0,8.0,4.0,1.0,7.0,6.0,720.6381700007114,2.0,2.0,phase_3,,,,,865.0,5.0,346.0,692.0,1038.0,519.0,173.0,865.0,blue,hexagon
0.0,8.0,4.0,1.0,7.0,2.0,2294.2470019997927,2.0,1.0,phase_3,,,,,960.0,5.0,768.0,960.0,576.0,1152.0,192.0,384.0,blue,hexagon
0.0,8.0,4.0,1.0,7.0,5.0,2762.6111750005293,2.0,1.0,phase_3,,,,,696.0,6.0,580.0,464.0,116.0,348.0,696.0,232.0,blue,hexagon
0.0,2.0,1.0,0.0,7.0,6.0,3124.512798000069,2.0,1.0,phase_3,,,,,270.0,2.0,810.0,405.0,135.0,675.0,540.0,270.0,magenta,flipped triangle
0.0,1.0,0.5,0.0,7.0,3.0,3344.436744000632,2.0,1.0,phase_3,,,,,346.0,2.0,692.0,865.0,346.0,173.0,519.0,1038.0,green,square
0.0,6.0,1.0,1.0,7.0,6.0,2640.6977200003894,2.0,1.0,phase_3,,,,,1038.0,6.0,865.0,173.0,519.0,346.0,692.0,1038.0,gray,I
0.0,1.0,0.5,0.0,7.0,5.0,2096.787094999854,3.0,1.0,phase_3,,,,,462.0,3.0,924.0,770.0,154.0,308.0,462.0,616.0,green,square
0.0,3.0,2.0,0.0,7.0,2.0,1569.0229539995926,3.0,1.0,phase_3,,,,,173.0,1.0,346.0,173.0,692.0,1038.0,519.0,865.0,orange,triangle
0.0,4.0,4.0,0.0,7.0,5.0,2408.2384530001946,3.0,1.0,phase_3,,,,,675.0,5.0,270.0,810.0,540.0,405.0,675.0,135.0,white,cross
0.0,7.0,2.0,1.0,7.0,4.0,2740.6603029994585,3.0,1.0,phase_3,,,,,696.0,6.0,116.0,464.0,232.0,696.0,348.0,580.0,cyan,circle
0.0,7.0,2.0,1.0,7.0,5.0,3358.189094999944,3.0,1.0,phase_3,,,,,960.0,5.0,192.0,768.0,384.0,1152.0,960.0,576.0,cyan,circle
0.0,5.0,0.5,1.0,7.0,6.0,1927.875370000038,3.0,1.0,phase_3,,,,,462.0,3.0,616.0,308.0,154.0,770.0,924.0,462.0,yellow,diamond
0.0,7.0,2.0,1.0,7.0,1.0,2597.0906929997,3.0,1.0,phase_3,,,,,696.0,6.0,696.0,116.0,232.0,580.0,464.0,348.0,cyan,circle
0.0,6.0,1.0,1.0,7.0,1.0,4463.7348149999525,3.0,1.0,phase_3,,,,,580.0,5.0,580.0,232.0,464.0,696.0,348.0,116.0,gray,I
0.0,4.0,4.0,0.0,7.0,1.0,1353.059895000115,3.0,1.0,phase_3,,,,,1038.0,6.0,1038.0,865.0,173.0,692.0,519.0,346.0,white,cross
0.0,2.0,1.0,0.0,7.0,1.0,1020.4602509993492,3.0,1.0,phase_3,,,,,464.0,4.0,464.0,232.0,348.0,696.0,580.0,116.0,magenta,flipped triangle
0.0,7.0,2.0,1.0,7.0,1.0,1766.5206330002547,3.0,1.0,phase_3,,,,,675.0,5.0,675.0,135.0,270.0,405.0,540.0,810.0,cyan,circle
0.0,5.0,0.5,1.0,7.0,6.0,2716.767393999362,3.0,1.0,phase_3,,,,,384.0,2.0,576.0,768.0,960.0,192.0,1152.0,384.0,yellow,diamond
0.0,6.0,1.0,1.0,7.0,2.0,4701.825174000078,3.0,1.0,phase_3,,,,,960.0,5.0,384.0,960.0,1152.0,576.0,192.0,768.0,gray,I
0.0,4.0,4.0,0.0,7.0,3.0,1532.3392450000028,3.0,1.0,phase_3,,,,,696.0,6.0,348.0,580.0,696.0,232.0,116.0,464.0,white,cross
0.0,1.0,0.5,0.0,7.0,5.0,3650.089224999647,3.0,1.0,phase_3,,,,,540.0,4.0,135.0,675.0,405.0,270.0,540.0,810.0,green,square
0.0,2.0,1.0,0.0,7.0,1.0,4151.153385000725,3.0,1.0,phase_3,,,,,154.0,1.0,154.0,308.0,924.0,616.0,462.0,770.0,magenta,flipped triangle
0.0,2.0,1.0,0.0,7.0,6.0,4641.220435999458,3.0,1.0,phase_3,,,,,348.0,3.0,116.0,464.0,232.0,696.0,580.0,348.0,magenta,flipped triangle
0.0,6.0,1.0,1.0,7.0,5.0,4978.67874900021,3.0,1.0,phase_3,,,,,675.0,5.0,270.0,135.0,540.0,810.0,675.0,405.0,gray,I
0.0,5.0,0.5,1.0,7.0,2.0,3897.033358999579,3.0,1.0,phase_3,,,,,576.0,3.0,384.0,576.0,960.0,192.0,768.0,1152.0,yellow,diamond
0.0,1.0,0.5,0.0,7.0,5.0,2550.995341000089,3.0,1.0,phase_3,,,,,384.0,2.0,192.0,1152.0,768.0,960.0,384.0,576.0,green,square
0.0,6.0,1.0,1.0,7.0,6.0,2428.5440200001176,4.0,1.0,phase_3,,,,,1152.0,6.0,960.0,192.0,384.0,768.0,576.0,1152.0,gray,I
0.0,8.0,4.0,1.0,7.0,2.0,3237.7961530000903,4.0,1.0,phase_3,,,,,540.0,4.0,135.0,540.0,810.0,405.0,675.0,270.0,blue,hexagon
0.0,4.0,4.0,0.0,7.0,3.0,1345.1491530004205,4.0,1.0,phase_3,,,,,696.0,6.0,580.0,464.0,696.0,348.0,116.0,232.0,white,cross
0.0,7.0,2.0,1.0,7.0,1.0,3507.272668000041,4.0,1.0,phase_3,,,,,519.0,3.0,519.0,692.0,173.0,1038.0,346.0,865.0,cyan,circle
0.0,2.0,1.0,0.0,7.0,4.0,3349.6035099997243,4.0,1.0,phase_3,,,,,576.0,3.0,1152.0,768.0,192.0,576.0,384.0,960.0,magenta,flipped triangle
0.0,8.0,4.0,1.0,7.0,1.0,2342.127315999278,4.0,1.0,phase_3,,,,,540.0,4.0,540.0,675.0,135.0,270.0,810.0,405.0,blue,hexagon
0.0,4.0,4.0,0.0,7.0,4.0,3143.776705000164,4.0,1.0,phase_3,,,,,1152.0,6.0,960.0,384.0,192.0,1152.0,768.0,576.0,white,cross
0.0,1.0,0.5,0.0,7.0,6.0,3470.25794900037,4.0,1.0,phase_3,,,,,405.0,3.0,270.0,810.0,540.0,675.0,135.0,405.0,green,square
0.0,1.0,0.5,0.0,7.0,3.0,4102.598931999637,4.0,1.0,phase_3,,,,,580.0,5.0,232.0,696.0,580.0,348.0,464.0,116.0,green,square
0.0,3.0,2.0,0.0,7.0,1.0,3090.265926000029,4.0,1.0,phase_3,,,,,154.0,1.0,154.0,770.0,308.0,616.0,924.0,462.0,orange,triangle
0.0,6.0,1.0,1.0,7.0,1.0,4340.404381999178,4.0,1.0,phase_3,,,,,308.0,2.0,308.0,770.0,462.0,924.0,616.0,154.0,gray,I
0.0,5.0,0.5,1.0,7.0,5.0,3756.5868410001713,4.0,1.0,phase_3,,,,,692.0,4.0,173.0,865.0,1038.0,519.0,692.0,346.0,yellow,diamond
0.0,5.0,0.5,1.0,7.0,3.0,2079.1801380000834,4.0,1.0,phase_3,,,,,675.0,5.0,270.0,540.0,675.0,810.0,135.0,405.0,yellow,diamond
0.0,5.0,0.5,1.0,7.0,1.0,1160.0322029999006,4.0,1.0,phase_3,,,,,692.0,4.0,692.0,173.0,346.0,519.0,865.0,1038.0,yellow,diamond
0.0,4.0,4.0,0.0,7.0,2.0,2578.077271999973,4.0,1.0,phase_3,,,,,692.0,4.0,1038.0,692.0,519.0,346.0,865.0,173.0,white,cross
0.0,5.0,0.5,1.0,7.0,4.0,2241.462307000802,4.0,1.0,phase_3,,,,,540.0,4.0,135.0,810.0,405.0,540.0,270.0,675.0,yellow,diamond
0.0,8.0,4.0,1.0,7.0,3.0,3393.253993000144,4.0,1.0,phase_3,,,,,696.0,6.0,348.0,116.0,696.0,580.0,232.0,464.0,blue,hexagon
0.0,2.0,1.0,0.0,7.0,5.0,3149.308856000061,4.0,1.0,phase_3,,,,,308.0,2.0,770.0,924.0,462.0,616.0,308.0,154.0,magenta,flipped triangle
0.0,3.0,2.0,0.0,7.0,5.0,3527.252108000539,4.0,1.0,phase_3,,,,,1038.0,6.0,519.0,346.0,173.0,692.0,1038.0,865.0,orange,triangle
0.0,6.0,1.0,1.0,7.0,3.0,3802.77536199992,4.0,1.0,phase_3,,,,,696.0,6.0,580.0,116.0,696.0,348.0,232.0,464.0,gray,I
