raw_reward_magnitude,stim_reward,stepwise_reward_magnitude,paired_with_stopping,quadrant,response,reaction_time,block,num_trial_presentations,which_part,stop_signal_trial_type,left_SSD,right_SSD,accuracy,chosen_bidding_amount,chosen_bidding_level,possible_bid_1,possible_bid_2,possible_bid_3,possible_bid_4,possible_bid_5,possible_bid_6,color_text,shape_text
166.0,1.0,1.0,0.0,2.0,2.0,713.5425750000195,1.0,1.0,part_1,,,,,,,,,,,,,white,I
1308.0,8.0,4.0,1.0,1.0,1.0,500.235975999999,1.0,1.0,part_1,,,,,,,,,,,,,yellow,cross
182.0,5.0,1.0,1.0,4.0,4.0,392.0233759999973,1.0,1.0,part_1,,,,,,,,,,,,,blue,circle
151.0,1.0,1.0,0.0,2.0,2.0,451.1519369999632,1.0,1.0,part_1,,,,,,,,,,,,,white,I
1281.0,8.0,4.0,1.0,4.0,4.0,361.893589000033,1.0,1.0,part_1,,,,,,,,,,,,,yellow,cross
308.0,2.0,2.0,0.0,3.0,3.0,287.1973259999549,1.0,1.0,part_1,,,,,,,,,,,,,orange,flipped triangle
651.0,7.0,3.0,1.0,2.0,2.0,472.4864599999137,1.0,1.0,part_1,,,,,,,,,,,,,green,square
0.0,6.0,0.0,1.0,3.0,3.0,324.0208920000214,1.0,1.0,part_1,,,,,,,,,,,,,magenta,diamond
1308.0,4.0,4.0,0.0,1.0,1.0,323.2641229999444,1.0,1.0,part_1,,,,,,,,,,,,,gray,hexagon
673.0,7.0,3.0,1.0,4.0,4.0,314.7967870000911,1.0,1.0,part_1,,,,,,,,,,,,,green,square
142.0,1.0,1.0,0.0,4.0,4.0,388.6665359999597,1.0,1.0,part_1,,,,,,,,,,,,,white,I
0.0,4.0,0.0,0.0,2.0,2.0,610.2879699999448,1.0,2.0,part_1,,,,,,,,,,,,,gray,hexagon
0.0,2.0,0.0,0.0,3.0,3.0,397.2112820000575,1.0,1.0,part_1,,,,,,,,,,,,,orange,flipped triangle
0.0,4.0,0.0,0.0,3.0,3.0,444.9437140000327,1.0,1.0,part_1,,,,,,,,,,,,,gray,hexagon
345.0,2.0,2.0,0.0,1.0,1.0,453.0237309999165,1.0,1.0,part_1,,,,,,,,,,,,,orange,flipped triangle
332.0,2.0,2.0,0.0,4.0,4.0,398.4552020000365,1.0,1.0,part_1,,,,,,,,,,,,,orange,flipped triangle
170.0,1.0,1.0,0.0,3.0,3.0,536.3915369999859,1.0,1.0,part_1,,,,,,,,,,,,,white,I
321.0,6.0,2.0,1.0,3.0,3.0,406.943812999998,1.0,1.0,part_1,,,,,,,,,,,,,magenta,diamond
1289.0,8.0,4.0,1.0,1.0,1.0,383.3023299999922,1.0,1.0,part_1,,,,,,,,,,,,,yellow,cross
0.0,6.0,0.0,1.0,3.0,3.0,434.564544000068,1.0,1.0,part_1,,,,,,,,,,,,,magenta,diamond
303.0,6.0,2.0,1.0,3.0,3.0,426.512807999984,1.0,1.0,part_1,,,,,,,,,,,,,magenta,diamond
180.0,5.0,1.0,1.0,3.0,3.0,398.8591529999894,1.0,1.0,part_1,,,,,,,,,,,,,blue,circle
0.0,5.0,0.0,1.0,4.0,4.0,425.0320130000773,1.0,1.0,part_1,,,,,,,,,,,,,blue,circle
0.0,2.0,0.0,0.0,3.0,3.0,368.7898850000692,1.0,1.0,part_1,,,,,,,,,,,,,orange,flipped triangle
644.0,7.0,3.0,1.0,3.0,3.0,322.0482030000084,1.0,1.0,part_1,,,,,,,,,,,,,green,square
314.0,6.0,2.0,1.0,2.0,2.0,426.9633900000826,1.0,1.0,part_1,,,,,,,,,,,,,magenta,diamond
1312.0,8.0,4.0,1.0,3.0,3.0,425.9192260000191,1.0,1.0,part_1,,,,,,,,,,,,,yellow,cross
175.0,5.0,1.0,1.0,2.0,2.0,375.3150539999978,1.0,3.0,part_1,,,,,,,,,,,,,blue,circle
0.0,7.0,0.0,1.0,2.0,2.0,340.9135750000587,1.0,1.0,part_1,,,,,,,,,,,,,green,square
650.0,7.0,3.0,1.0,1.0,1.0,489.5791290000488,1.0,1.0,part_1,,,,,,,,,,,,,green,square
0.0,6.0,0.0,1.0,1.0,1.0,425.9452210000063,1.0,1.0,part_1,,,,,,,,,,,,,magenta,diamond
159.0,5.0,1.0,1.0,3.0,3.0,389.0428949999887,1.0,1.0,part_1,,,,,,,,,,,,,blue,circle
0.0,3.0,0.0,0.0,1.0,1.0,517.3589280000215,1.0,1.0,part_1,,,,,,,,,,,,,cyan,triangle
1308.0,4.0,4.0,0.0,1.0,1.0,725.4361429999108,1.0,1.0,part_1,,,,,,,,,,,,,gray,hexagon
309.0,2.0,2.0,0.0,4.0,4.0,396.8574760000365,1.0,1.0,part_1,,,,,,,,,,,,,orange,flipped triangle
1301.0,4.0,4.0,0.0,3.0,3.0,414.697320000073,1.0,1.0,part_1,,,,,,,,,,,,,gray,hexagon
1299.0,8.0,4.0,1.0,2.0,2.0,340.618706999976,1.0,1.0,part_1,,,,,,,,,,,,,yellow,cross
303.0,2.0,2.0,0.0,1.0,1.0,386.2788180000507,1.0,1.0,part_1,,,,,,,,,,,,,orange,flipped triangle
1310.0,8.0,4.0,1.0,4.0,4.0,480.2198179999095,1.0,1.0,part_1,,,,,,,,,,,,,yellow,cross
0.0,7.0,0.0,1.0,4.0,4.0,433.3174820000067,1.0,1.0,part_1,,,,,,,,,,,,,green,square
0.0,7.0,0.0,1.0,4.0,4.0,415.6650420000005,1.0,1.0,part_1,,,,,,,,,,,,,green,square
336.0,6.0,2.0,1.0,1.0,1.0,351.709504999917,1.0,1.0,part_1,,,,,,,,,,,,,magenta,diamond
675.0,3.0,3.0,0.0,1.0,1.0,443.266871999981,1.0,1.0,part_1,,,,,,,,,,,,,cyan,triangle
0.0,4.0,0.0,0.0,4.0,4.0,480.0574690000303,1.0,1.0,part_1,,,,,,,,,,,,,gray,hexagon
0.0,2.0,0.0,0.0,2.0,2.0,453.2773099999758,1.0,1.0,part_1,,,,,,,,,,,,,orange,flipped triangle
675.0,7.0,3.0,1.0,4.0,4.0,397.017652000045,1.0,1.0,part_1,,,,,,,,,,,,,green,square
1294.0,4.0,4.0,0.0,1.0,1.0,360.5877759999885,1.0,1.0,part_1,,,,,,,,,,,,,gray,hexagon
0.0,7.0,0.0,1.0,4.0,4.0,351.7585740000868,1.0,1.0,part_1,,,,,,,,,,,,,green,square
346.0,6.0,2.0,1.0,4.0,4.0,442.6573839999719,1.0,1.0,part_1,,,,,,,,,,,,,magenta,diamond
1308.0,4.0,4.0,0.0,3.0,3.0,461.4925559999392,1.0,1.0,part_1,,,,,,,,,,,,,gray,hexagon
166.0,5.0,1.0,1.0,1.0,1.0,405.9441869999318,1.0,1.0,part_1,,,,,,,,,,,,,blue,circle
345.0,6.0,2.0,1.0,4.0,4.0,377.9848699999775,1.0,1.0,part_1,,,,,,,,,,,,,magenta,diamond
0.0,1.0,0.0,0.0,2.0,2.0,537.1045389999836,1.0,1.0,part_1,,,,,,,,,,,,,white,I
334.0,6.0,2.0,1.0,2.0,2.0,378.8740219999909,1.0,1.0,part_1,,,,,,,,,,,,,magenta,diamond
651.0,3.0,3.0,0.0,4.0,4.0,406.4715089999708,1.0,1.0,part_1,,,,,,,,,,,,,cyan,triangle
640.0,7.0,3.0,1.0,4.0,4.0,397.2517390000121,1.0,1.0,part_1,,,,,,,,,,,,,green,square
348.0,6.0,2.0,1.0,4.0,4.0,360.64670199994,1.0,1.0,part_1,,,,,,,,,,,,,magenta,diamond
0.0,8.0,0.0,1.0,2.0,2.0,453.0706860000464,1.0,1.0,part_1,,,,,,,,,,,,,yellow,cross
669.0,7.0,3.0,1.0,2.0,2.0,481.7175640000641,1.0,1.0,part_1,,,,,,,,,,,,,green,square
309.0,6.0,2.0,1.0,3.0,3.0,416.5941760001033,1.0,1.0,part_1,,,,,,,,,,,,,magenta,diamond
1310.0,4.0,4.0,0.0,1.0,1.0,480.9216899999455,1.0,1.0,part_1,,,,,,,,,,,,,gray,hexagon
0.0,5.0,0.0,1.0,3.0,3.0,435.2542070000709,1.0,1.0,part_1,,,,,,,,,,,,,blue,circle
320.0,6.0,2.0,1.0,3.0,3.0,388.2115789999716,1.0,1.0,part_1,,,,,,,,,,,,,magenta,diamond
170.0,5.0,1.0,1.0,3.0,3.0,345.4330519999757,1.0,1.0,part_1,,,,,,,,,,,,,blue,circle
1293.0,4.0,4.0,0.0,3.0,3.0,332.8834160000724,1.0,1.0,part_1,,,,,,,,,,,,,gray,hexagon
1289.0,4.0,4.0,0.0,2.0,2.0,526.2136570000848,1.0,1.0,part_1,,,,,,,,,,,,,gray,hexagon
1309.0,4.0,4.0,0.0,1.0,1.0,555.0379099998963,1.0,1.0,part_1,,,,,,,,,,,,,gray,hexagon
1290.0,8.0,4.0,1.0,1.0,1.0,415.4731080000147,1.0,1.0,part_1,,,,,,,,,,,,,yellow,cross
176.0,1.0,1.0,0.0,1.0,1.0,398.2442249999849,1.0,1.0,part_1,,,,,,,,,,,,,white,I
313.0,6.0,2.0,1.0,4.0,4.0,489.8452959999986,1.0,1.0,part_1,,,,,,,,,,,,,magenta,diamond
662.0,7.0,3.0,1.0,3.0,3.0,555.9641039999406,1.0,1.0,part_1,,,,,,,,,,,,,green,square
1324.0,8.0,4.0,1.0,3.0,3.0,415.2826670000422,1.0,1.0,part_1,,,,,,,,,,,,,yellow,cross
0.0,2.0,0.0,0.0,3.0,3.0,379.6940279999035,1.0,1.0,part_1,,,,,,,,,,,,,orange,flipped triangle
183.0,1.0,1.0,0.0,1.0,1.0,416.4130259999865,1.0,1.0,part_1,,,,,,,,,,,,,white,I
1279.0,8.0,4.0,1.0,4.0,4.0,353.3826630000476,1.0,1.0,part_1,,,,,,,,,,,,,yellow,cross
0.0,3.0,0.0,0.0,1.0,1.0,388.9132449999124,1.0,1.0,part_1,,,,,,,,,,,,,cyan,triangle
647.0,7.0,3.0,1.0,3.0,3.0,389.0916029999971,1.0,1.0,part_1,,,,,,,,,,,,,green,square
0.0,8.0,0.0,1.0,2.0,2.0,535.6223229999841,1.0,1.0,part_1,,,,,,,,,,,,,yellow,cross
626.0,3.0,3.0,0.0,2.0,2.0,526.4427559999376,1.0,1.0,part_1,,,,,,,,,,,,,cyan,triangle
0.0,6.0,0.0,1.0,2.0,2.0,517.959411999982,1.0,1.0,part_1,,,,,,,,,,,,,magenta,diamond
307.0,2.0,2.0,0.0,2.0,2.0,463.5501530000283,1.0,1.0,part_1,,,,,,,,,,,,,orange,flipped triangle
1299.0,8.0,4.0,1.0,1.0,1.0,583.1796490000443,1.0,1.0,part_1,,,,,,,,,,,,,yellow,cross
668.0,3.0,3.0,0.0,3.0,3.0,600.7969249999405,1.0,1.0,part_1,,,,,,,,,,,,,cyan,triangle
348.0,2.0,2.0,0.0,1.0,1.0,479.8629900000151,1.0,1.0,part_1,,,,,,,,,,,,,orange,flipped triangle
321.0,2.0,2.0,0.0,3.0,3.0,417.6247760000251,1.0,1.0,part_1,,,,,,,,,,,,,orange,flipped triangle
0.0,1.0,0.0,0.0,4.0,4.0,435.3016170000501,1.0,1.0,part_1,,,,,,,,,,,,,white,I
1310.0,8.0,4.0,1.0,1.0,1.0,325.3212480000229,1.0,1.0,part_1,,,,,,,,,,,,,yellow,cross
1278.0,8.0,4.0,1.0,2.0,2.0,466.2376610000365,1.0,1.0,part_1,,,,,,,,,,,,,yellow,cross
644.0,7.0,3.0,1.0,1.0,1.0,416.1845710000307,1.0,1.0,part_1,,,,,,,,,,,,,green,square
0.0,3.0,0.0,0.0,4.0,4.0,361.4836890000106,1.0,1.0,part_1,,,,,,,,,,,,,cyan,triangle
1322.0,4.0,4.0,0.0,4.0,4.0,406.893986,1.0,1.0,part_1,,,,,,,,,,,,,gray,hexagon
1300.0,4.0,4.0,0.0,1.0,1.0,444.1493489999857,1.0,1.0,part_1,,,,,,,,,,,,,gray,hexagon
0.0,2.0,0.0,0.0,1.0,1.0,398.0557349999571,1.0,1.0,part_1,,,,,,,,,,,,,orange,flipped triangle
1281.0,8.0,4.0,1.0,3.0,3.0,387.8651309998986,1.0,1.0,part_1,,,,,,,,,,,,,yellow,cross
344.0,6.0,2.0,1.0,4.0,4.0,341.2547159999803,1.0,2.0,part_1,,,,,,,,,,,,,magenta,diamond
646.0,7.0,3.0,1.0,2.0,2.0,566.2563779999346,1.0,1.0,part_1,,,,,,,,,,,,,green,square
142.0,5.0,1.0,1.0,1.0,1.0,507.66701699990335,1.0,1.0,part_1,,,,,,,,,,,,,blue,circle
647.0,7.0,3.0,1.0,2.0,2.0,397.7867870000864,1.0,1.0,part_1,,,,,,,,,,,,,green,square
1290.0,4.0,4.0,0.0,3.0,3.0,380.2558989999625,1.0,1.0,part_1,,,,,,,,,,,,,gray,hexagon
633.0,3.0,3.0,0.0,2.0,2.0,397.2999339999887,1.0,1.0,part_1,,,,,,,,,,,,,cyan,triangle
0.0,5.0,0.0,1.0,3.0,3.0,453.2178449999264,2.0,1.0,part_1,,,,,,,,,,,,,blue,circle
176.0,1.0,1.0,0.0,3.0,3.0,398.2551619999412,2.0,1.0,part_1,,,,,,,,,,,,,white,I
150.0,5.0,1.0,1.0,1.0,1.0,399.380734000033,2.0,1.0,part_1,,,,,,,,,,,,,blue,circle
311.0,6.0,2.0,1.0,2.0,2.0,536.7435359999035,2.0,1.0,part_1,,,,,,,,,,,,,magenta,diamond
343.0,2.0,2.0,0.0,2.0,2.0,352.6841959999274,2.0,1.0,part_1,,,,,,,,,,,,,orange,flipped triangle
0.0,3.0,0.0,0.0,2.0,2.0,402.0344979999208,2.0,1.0,part_1,,,,,,,,,,,,,cyan,triangle
1312.0,8.0,4.0,1.0,1.0,1.0,461.9793150000078,2.0,1.0,part_1,,,,,,,,,,,,,yellow,cross
310.0,2.0,2.0,0.0,2.0,2.0,370.585427999913,2.0,1.0,part_1,,,,,,,,,,,,,orange,flipped triangle
0.0,3.0,0.0,0.0,4.0,4.0,443.1821059999947,2.0,1.0,part_1,,,,,,,,,,,,,cyan,triangle
0.0,5.0,0.0,1.0,1.0,1.0,426.8139030000384,2.0,1.0,part_1,,,,,,,,,,,,,blue,circle
1281.0,8.0,4.0,1.0,3.0,3.0,370.1078830001734,2.0,1.0,part_1,,,,,,,,,,,,,yellow,cross
0.0,2.0,0.0,0.0,3.0,3.0,333.053499000016,2.0,1.0,part_1,,,,,,,,,,,,,orange,flipped triangle
0.0,7.0,0.0,1.0,4.0,4.0,379.4709839999086,2.0,1.0,part_1,,,,,,,,,,,,,green,square
1310.0,4.0,4.0,0.0,2.0,2.0,555.4035630000271,2.0,1.0,part_1,,,,,,,,,,,,,gray,hexagon
348.0,2.0,2.0,0.0,1.0,1.0,342.9060070000105,2.0,1.0,part_1,,,,,,,,,,,,,orange,flipped triangle
1310.0,8.0,4.0,1.0,4.0,4.0,342.5081049999789,2.0,1.0,part_1,,,,,,,,,,,,,yellow,cross
159.0,1.0,1.0,0.0,2.0,2.0,425.8035229997858,2.0,1.0,part_1,,,,,,,,,,,,,white,I
1324.0,4.0,4.0,0.0,4.0,4.0,471.53179600013567,2.0,1.0,part_1,,,,,,,,,,,,,gray,hexagon
309.0,2.0,2.0,0.0,4.0,4.0,398.1613480000305,2.0,1.0,part_1,,,,,,,,,,,,,orange,flipped triangle
144.0,1.0,1.0,0.0,1.0,1.0,350.6396739999218,2.0,1.0,part_1,,,,,,,,,,,,,white,I
155.0,5.0,1.0,1.0,4.0,4.0,397.6640949999819,2.0,1.0,part_1,,,,,,,,,,,,,blue,circle
170.0,5.0,1.0,1.0,2.0,2.0,537.4140269998406,2.0,1.0,part_1,,,,,,,,,,,,,blue,circle
628.0,3.0,3.0,0.0,4.0,4.0,379.593972000066,2.0,1.0,part_1,,,,,,,,,,,,,cyan,triangle
654.0,3.0,3.0,0.0,4.0,4.0,352.2202120000202,2.0,1.0,part_1,,,,,,,,,,,,,cyan,triangle
316.0,2.0,2.0,0.0,3.0,3.0,371.4318260001619,2.0,1.0,part_1,,,,,,,,,,,,,orange,flipped triangle
0.0,1.0,0.0,0.0,4.0,4.0,343.0346520001421,2.0,1.0,part_1,,,,,,,,,,,,,white,I
0.0,3.0,0.0,0.0,1.0,1.0,351.8883520000599,2.0,1.0,part_1,,,,,,,,,,,,,cyan,triangle
303.0,2.0,2.0,0.0,4.0,4.0,379.7046509998836,2.0,1.0,part_1,,,,,,,,,,,,,orange,flipped triangle
1312.0,4.0,4.0,0.0,3.0,3.0,332.6725399999759,2.0,1.0,part_1,,,,,,,,,,,,,gray,hexagon
666.0,7.0,3.0,1.0,3.0,3.0,295.9125339998536,2.0,1.0,part_1,,,,,,,,,,,,,green,square
635.0,3.0,3.0,0.0,4.0,4.0,435.5202340000232,2.0,1.0,part_1,,,,,,,,,,,,,cyan,triangle
0.0,1.0,0.0,0.0,1.0,1.0,360.1992460000929,2.0,1.0,part_1,,,,,,,,,,,,,white,I
625.0,7.0,3.0,1.0,1.0,1.0,434.2480269999669,2.0,1.0,part_1,,,,,,,,,,,,,green,square
1301.0,8.0,4.0,1.0,1.0,1.0,407.3422930000561,2.0,1.0,part_1,,,,,,,,,,,,,yellow,cross
0.0,5.0,0.0,1.0,1.0,1.0,406.5749960000175,2.0,1.0,part_1,,,,,,,,,,,,,blue,circle
182.0,1.0,1.0,0.0,4.0,4.0,351.1299260001124,2.0,1.0,part_1,,,,,,,,,,,,,white,I
642.0,7.0,3.0,1.0,3.0,3.0,331.6398080000908,2.0,1.0,part_1,,,,,,,,,,,,,green,square
633.0,3.0,3.0,0.0,3.0,3.0,359.8783850000018,2.0,1.0,part_1,,,,,,,,,,,,,cyan,triangle
334.0,2.0,2.0,0.0,2.0,2.0,490.9111590000066,2.0,1.0,part_1,,,,,,,,,,,,,orange,flipped triangle
1315.0,4.0,4.0,0.0,2.0,2.0,398.3302720000665,2.0,1.0,part_1,,,,,,,,,,,,,gray,hexagon
635.0,7.0,3.0,1.0,4.0,4.0,389.4471419998808,2.0,1.0,part_1,,,,,,,,,,,,,green,square
159.0,5.0,1.0,1.0,1.0,1.0,379.5398230001865,2.0,1.0,part_1,,,,,,,,,,,,,blue,circle
144.0,1.0,1.0,0.0,3.0,3.0,332.7755889999935,2.0,1.0,part_1,,,,,,,,,,,,,white,I
302.0,6.0,2.0,1.0,1.0,1.0,484.0539660001468,2.0,1.0,part_1,,,,,,,,,,,,,magenta,diamond
1299.0,4.0,4.0,0.0,1.0,1.0,526.5803689999302,2.0,1.0,part_1,,,,,,,,,,,,,gray,hexagon
1285.0,4.0,4.0,0.0,4.0,4.0,408.2574260000911,2.0,1.0,part_1,,,,,,,,,,,,,gray,hexagon
309.0,2.0,2.0,0.0,3.0,3.0,351.7669969999133,2.0,1.0,part_1,,,,,,,,,,,,,orange,flipped triangle
335.0,6.0,2.0,1.0,2.0,2.0,454.096778000121,2.0,1.0,part_1,,,,,,,,,,,,,magenta,diamond
655.0,7.0,3.0,1.0,1.0,1.0,408.5379760001615,2.0,1.0,part_1,,,,,,,,,,,,,green,square
152.0,1.0,1.0,0.0,1.0,1.0,407.4129769999217,2.0,1.0,part_1,,,,,,,,,,,,,white,I
1308.0,8.0,4.0,1.0,3.0,3.0,352.8870829998141,2.0,1.0,part_1,,,,,,,,,,,,,yellow,cross
674.0,3.0,3.0,0.0,3.0,3.0,380.7247239999469,2.0,1.0,part_1,,,,,,,,,,,,,cyan,triangle
343.0,6.0,2.0,1.0,2.0,2.0,416.8529180001314,2.0,1.0,part_1,,,,,,,,,,,,,magenta,diamond
647.0,3.0,3.0,0.0,1.0,1.0,445.4111800000646,2.0,1.0,part_1,,,,,,,,,,,,,cyan,triangle
642.0,3.0,3.0,0.0,1.0,1.0,443.5316270000839,2.0,1.0,part_1,,,,,,,,,,,,,cyan,triangle
311.0,2.0,2.0,0.0,2.0,2.0,528.1479230000059,2.0,1.0,part_1,,,,,,,,,,,,,orange,flipped triangle
1308.0,4.0,4.0,0.0,4.0,4.0,406.5758830001869,2.0,1.0,part_1,,,,,,,,,,,,,gray,hexagon
149.0,5.0,1.0,1.0,2.0,2.0,435.3940669998337,2.0,1.0,part_1,,,,,,,,,,,,,blue,circle
0.0,5.0,0.0,1.0,4.0,4.0,500.78390499993475,2.0,1.0,part_1,,,,,,,,,,,,,blue,circle
310.0,6.0,2.0,1.0,1.0,1.0,416.2984849999702,2.0,1.0,part_1,,,,,,,,,,,,,magenta,diamond
0.0,4.0,0.0,0.0,2.0,2.0,471.1293899999873,2.0,1.0,part_1,,,,,,,,,,,,,gray,hexagon
157.0,1.0,1.0,0.0,4.0,4.0,416.3211830000364,2.0,1.0,part_1,,,,,,,,,,,,,white,I
1281.0,4.0,4.0,0.0,2.0,2.0,470.4040310000437,2.0,1.0,part_1,,,,,,,,,,,,,gray,hexagon
628.0,7.0,3.0,1.0,2.0,2.0,426.7737330001182,2.0,1.0,part_1,,,,,,,,,,,,,green,square
1319.0,4.0,4.0,0.0,2.0,2.0,361.2380749998465,2.0,1.0,part_1,,,,,,,,,,,,,gray,hexagon
176.0,5.0,1.0,1.0,4.0,4.0,722.3352400001204,2.0,1.0,part_1,,,,,,,,,,,,,blue,circle
176.0,1.0,1.0,0.0,3.0,3.0,554.1677799999434,2.0,1.0,part_1,,,,,,,,,,,,,white,I
142.0,5.0,1.0,1.0,4.0,4.0,434.0557799998805,2.0,1.0,part_1,,,,,,,,,,,,,blue,circle
155.0,5.0,1.0,1.0,1.0,1.0,341.4257479998923,2.0,1.0,part_1,,,,,,,,,,,,,blue,circle
1306.0,4.0,4.0,0.0,2.0,2.0,388.2206880000467,2.0,1.0,part_1,,,,,,,,,,,,,gray,hexagon
0.0,2.0,0.0,0.0,1.0,1.0,462.8124160001334,2.0,1.0,part_1,,,,,,,,,,,,,orange,flipped triangle
626.0,7.0,3.0,1.0,2.0,2.0,436.0852899999372,2.0,1.0,part_1,,,,,,,,,,,,,green,square
0.0,4.0,0.0,0.0,1.0,1.0,361.1395200000515,2.0,1.0,part_1,,,,,,,,,,,,,gray,hexagon
0.0,2.0,0.0,0.0,3.0,3.0,362.3683270000128,2.0,1.0,part_1,,,,,,,,,,,,,orange,flipped triangle
0.0,4.0,0.0,0.0,1.0,1.0,416.4358479999919,2.0,1.0,part_1,,,,,,,,,,,,,gray,hexagon
1300.0,8.0,4.0,1.0,1.0,1.0,416.6408499997942,2.0,1.0,part_1,,,,,,,,,,,,,yellow,cross
335.0,2.0,2.0,0.0,1.0,1.0,396.8483640001068,2.0,1.0,part_1,,,,,,,,,,,,,orange,flipped triangle
1279.0,4.0,4.0,0.0,4.0,4.0,389.3704650001837,2.0,1.0,part_1,,,,,,,,,,,,,gray,hexagon
179.0,1.0,1.0,0.0,4.0,4.0,482.1360959999765,2.0,1.0,part_1,,,,,,,,,,,,,white,I
337.0,2.0,2.0,0.0,1.0,1.0,360.704424000005,2.0,1.0,part_1,,,,,,,,,,,,,orange,flipped triangle
1323.0,4.0,4.0,0.0,2.0,2.0,657.6381499999115,2.0,1.0,part_1,,,,,,,,,,,,,gray,hexagon
313.0,2.0,2.0,0.0,1.0,1.0,379.6730379999644,2.0,1.0,part_1,,,,,,,,,,,,,orange,flipped triangle
667.0,3.0,3.0,0.0,1.0,1.0,462.4404559999675,2.0,1.0,part_1,,,,,,,,,,,,,cyan,triangle
644.0,3.0,3.0,0.0,4.0,4.0,482.0292740000695,2.0,1.0,part_1,,,,,,,,,,,,,cyan,triangle
0.0,2.0,0.0,0.0,2.0,2.0,545.5651340000713,2.0,1.0,part_1,,,,,,,,,,,,,orange,flipped triangle
153.0,1.0,1.0,0.0,3.0,3.0,443.9148379999551,2.0,1.0,part_1,,,,,,,,,,,,,white,I
667.0,7.0,3.0,1.0,4.0,4.0,425.8353269999588,2.0,1.0,part_1,,,,,,,,,,,,,green,square
0.0,1.0,0.0,0.0,2.0,2.0,397.9028220001055,2.0,1.0,part_1,,,,,,,,,,,,,white,I
652.0,3.0,3.0,0.0,3.0,3.0,361.4237100000537,2.0,1.0,part_1,,,,,,,,,,,,,cyan,triangle
635.0,7.0,3.0,1.0,3.0,3.0,380.5928179999682,2.0,1.0,part_1,,,,,,,,,,,,,green,square
325.0,6.0,2.0,1.0,4.0,4.0,417.7382789998773,2.0,1.0,part_1,,,,,,,,,,,,,magenta,diamond
176.0,5.0,1.0,1.0,4.0,4.0,379.7577000000274,2.0,1.0,part_1,,,,,,,,,,,,,blue,circle
186.0,1.0,1.0,0.0,1.0,1.0,435.1929249999102,2.0,1.0,part_1,,,,,,,,,,,,,white,I
1308.0,8.0,4.0,1.0,3.0,3.0,361.2281860000621,2.0,1.0,part_1,,,,,,,,,,,,,yellow,cross
1286.0,4.0,4.0,0.0,2.0,2.0,481.7470170000888,2.0,1.0,part_1,,,,,,,,,,,,,gray,hexagon
654.0,7.0,3.0,1.0,1.0,1.0,444.2987439999797,2.0,1.0,part_1,,,,,,,,,,,,,green,square
0.0,8.0,0.0,1.0,2.0,2.0,415.50420700014,2.0,1.0,part_1,,,,,,,,,,,,,yellow,cross
162.0,1.0,1.0,0.0,2.0,2.0,424.8172400000385,2.0,1.0,part_1,,,,,,,,,,,,,white,I
1318.0,8.0,4.0,1.0,2.0,2.0,388.5449310000695,2.0,1.0,part_1,,,,,,,,,,,,,yellow,cross
1322.0,8.0,4.0,1.0,2.0,2.0,500.81616300008136,2.0,1.0,part_1,,,,,,,,,,,,,yellow,cross
316.0,6.0,2.0,1.0,4.0,4.0,344.6001949998845,3.0,1.0,part_1,,,,,,,,,,,,,magenta,diamond
346.0,2.0,2.0,0.0,3.0,3.0,352.4403709998296,3.0,1.0,part_1,,,,,,,,,,,,,orange,flipped triangle
657.0,3.0,3.0,0.0,4.0,4.0,344.7683290000896,3.0,1.0,part_1,,,,,,,,,,,,,cyan,triangle
157.0,5.0,1.0,1.0,3.0,3.0,371.551547999843,3.0,1.0,part_1,,,,,,,,,,,,,blue,circle
0.0,5.0,0.0,1.0,3.0,3.0,296.980873999928,3.0,1.0,part_1,,,,,,,,,,,,,blue,circle
1308.0,8.0,4.0,1.0,4.0,4.0,371.1908469999798,3.0,1.0,part_1,,,,,,,,,,,,,yellow,cross
632.0,3.0,3.0,0.0,3.0,3.0,305.9334330000638,3.0,1.0,part_1,,,,,,,,,,,,,cyan,triangle
180.0,1.0,1.0,0.0,2.0,2.0,435.1943309998205,3.0,1.0,part_1,,,,,,,,,,,,,white,I
1290.0,8.0,4.0,1.0,1.0,1.0,369.4993599999634,3.0,1.0,part_1,,,,,,,,,,,,,yellow,cross
159.0,5.0,1.0,1.0,2.0,2.0,546.1404459999812,3.0,1.0,part_1,,,,,,,,,,,,,blue,circle
1281.0,4.0,4.0,0.0,1.0,1.0,600.3648639998573,3.0,1.0,part_1,,,,,,,,,,,,,gray,hexagon
170.0,1.0,1.0,0.0,3.0,3.0,398.7277030000768,3.0,1.0,part_1,,,,,,,,,,,,,white,I
0.0,7.0,0.0,1.0,2.0,2.0,472.6554710000528,3.0,1.0,part_1,,,,,,,,,,,,,green,square
179.0,5.0,1.0,1.0,3.0,3.0,381.2755409999226,3.0,1.0,part_1,,,,,,,,,,,,,blue,circle
315.0,6.0,2.0,1.0,3.0,3.0,407.7709770001547,3.0,1.0,part_1,,,,,,,,,,,,,magenta,diamond
1319.0,8.0,4.0,1.0,3.0,3.0,611.477763000039,3.0,1.0,part_1,,,,,,,,,,,,,yellow,cross
303.0,6.0,2.0,1.0,1.0,1.0,574.5358080000642,3.0,1.0,part_1,,,,,,,,,,,,,magenta,diamond
1275.0,8.0,4.0,1.0,2.0,2.0,557.0253820001199,3.0,1.0,part_1,,,,,,,,,,,,,yellow,cross
347.0,6.0,2.0,1.0,2.0,2.0,374.7177230000034,3.0,1.0,part_1,,,,,,,,,,,,,magenta,diamond
655.0,3.0,3.0,0.0,2.0,2.0,454.4646069998634,3.0,1.0,part_1,,,,,,,,,,,,,cyan,triangle
172.0,5.0,1.0,1.0,1.0,1.0,388.0475560001741,3.0,1.0,part_1,,,,,,,,,,,,,blue,circle
302.0,2.0,2.0,0.0,4.0,4.0,333.8337359998604,3.0,1.0,part_1,,,,,,,,,,,,,orange,flipped triangle
0.0,8.0,0.0,1.0,4.0,4.0,407.4003739999625,3.0,1.0,part_1,,,,,,,,,,,,,yellow,cross
155.0,1.0,1.0,0.0,3.0,3.0,407.1854540000004,3.0,1.0,part_1,,,,,,,,,,,,,white,I
152.0,5.0,1.0,1.0,4.0,4.0,370.4345930000272,3.0,1.0,part_1,,,,,,,,,,,,,blue,circle
0.0,7.0,0.0,1.0,1.0,1.0,426.1958530000811,3.0,1.0,part_1,,,,,,,,,,,,,green,square
0.0,8.0,0.0,1.0,2.0,2.0,528.4721979999176,3.0,1.0,part_1,,,,,,,,,,,,,yellow,cross
0.0,6.0,0.0,1.0,4.0,4.0,287.5296139998227,3.0,1.0,part_1,,,,,,,,,,,,,magenta,diamond
182.0,5.0,1.0,1.0,4.0,4.0,315.0024720000601,3.0,1.0,part_1,,,,,,,,,,,,,blue,circle
144.0,5.0,1.0,1.0,3.0,3.0,295.9529090001069,3.0,1.0,part_1,,,,,,,,,,,,,blue,circle
138.0,1.0,1.0,0.0,4.0,4.0,371.6665320000629,3.0,1.0,part_1,,,,,,,,,,,,,white,I
171.0,1.0,1.0,0.0,4.0,4.0,360.9728339999947,3.0,1.0,part_1,,,,,,,,,,,,,white,I
336.0,2.0,2.0,0.0,3.0,3.0,343.1622460000199,3.0,1.0,part_1,,,,,,,,,,,,,orange,flipped triangle
1286.0,8.0,4.0,1.0,4.0,4.0,343.445802999895,3.0,1.0,part_1,,,,,,,,,,,,,yellow,cross
321.0,6.0,2.0,1.0,3.0,3.0,333.3080410000093,3.0,1.0,part_1,,,,,,,,,,,,,magenta,diamond
1318.0,4.0,4.0,0.0,4.0,4.0,352.1610139998756,3.0,1.0,part_1,,,,,,,,,,,,,gray,hexagon
0.0,1.0,0.0,0.0,3.0,3.0,379.581016000202,3.0,1.0,part_1,,,,,,,,,,,,,white,I
1315.0,8.0,4.0,1.0,1.0,1.0,564.1469670001698,3.0,1.0,part_1,,,,,,,,,,,,,yellow,cross
0.0,1.0,0.0,0.0,4.0,4.0,362.1104270000614,3.0,1.0,part_1,,,,,,,,,,,,,white,I
339.0,2.0,2.0,0.0,2.0,2.0,480.0649129999783,3.0,1.0,part_1,,,,,,,,,,,,,orange,flipped triangle
666.0,3.0,3.0,0.0,2.0,2.0,351.9211810000797,3.0,1.0,part_1,,,,,,,,,,,,,cyan,triangle
1279.0,4.0,4.0,0.0,3.0,3.0,314.0959579998252,3.0,1.0,part_1,,,,,,,,,,,,,gray,hexagon
646.0,3.0,3.0,0.0,1.0,1.0,323.0334190000121,3.0,1.0,part_1,,,,,,,,,,,,,cyan,triangle
155.0,1.0,1.0,0.0,2.0,2.0,370.5849519999447,3.0,1.0,part_1,,,,,,,,,,,,,white,I
159.0,1.0,1.0,0.0,3.0,3.0,304.555511999979,3.0,1.0,part_1,,,,,,,,,,,,,white,I
167.0,1.0,1.0,0.0,4.0,4.0,332.7448920001643,3.0,1.0,part_1,,,,,,,,,,,,,white,I
152.0,1.0,1.0,0.0,4.0,4.0,444.5143360001111,3.0,1.0,part_1,,,,,,,,,,,,,white,I
347.0,2.0,2.0,0.0,1.0,1.0,435.2212819999295,3.0,1.0,part_1,,,,,,,,,,,,,orange,flipped triangle
1278.0,4.0,4.0,0.0,1.0,1.0,517.8599679998115,3.0,1.0,part_1,,,,,,,,,,,,,gray,hexagon
142.0,1.0,1.0,0.0,3.0,3.0,398.1704329999047,3.0,1.0,part_1,,,,,,,,,,,,,white,I
0.0,3.0,0.0,0.0,4.0,4.0,388.4998640000958,3.0,1.0,part_1,,,,,,,,,,,,,cyan,triangle
1275.0,4.0,4.0,0.0,2.0,2.0,480.7514310000442,3.0,1.0,part_1,,,,,,,,,,,,,gray,hexagon
657.0,7.0,3.0,1.0,2.0,2.0,342.3712620001424,3.0,1.0,part_1,,,,,,,,,,,,,green,square
0.0,1.0,0.0,0.0,4.0,4.0,379.2385440001453,3.0,1.0,part_1,,,,,,,,,,,,,white,I
0.0,8.0,0.0,1.0,2.0,2.0,342.5181349998638,3.0,1.0,part_1,,,,,,,,,,,,,yellow,cross
317.0,2.0,2.0,0.0,2.0,2.0,526.7210270001215,3.0,1.0,part_1,,,,,,,,,,,,,orange,flipped triangle
627.0,3.0,3.0,0.0,3.0,3.0,445.3907509998771,3.0,1.0,part_1,,,,,,,,,,,,,cyan,triangle
348.0,6.0,2.0,1.0,4.0,4.0,526.5402219999942,3.0,1.0,part_1,,,,,,,,,,,,,magenta,diamond
0.0,8.0,0.0,1.0,1.0,1.0,368.7848380000105,3.0,1.0,part_1,,,,,,,,,,,,,yellow,cross
1287.0,4.0,4.0,0.0,4.0,4.0,397.5234460001502,3.0,1.0,part_1,,,,,,,,,,,,,gray,hexagon
669.0,3.0,3.0,0.0,2.0,2.0,416.2906580002072,3.0,1.0,part_1,,,,,,,,,,,,,cyan,triangle
186.0,5.0,1.0,1.0,1.0,1.0,438.8962949999495,3.0,1.0,part_1,,,,,,,,,,,,,blue,circle
141.0,1.0,1.0,0.0,3.0,3.0,334.1631200000847,3.0,1.0,part_1,,,,,,,,,,,,,white,I
144.0,5.0,1.0,1.0,2.0,2.0,424.8286609999923,3.0,1.0,part_1,,,,,,,,,,,,,blue,circle
0.0,7.0,0.0,1.0,1.0,1.0,582.1347159999277,3.0,1.0,part_1,,,,,,,,,,,,,green,square
0.0,5.0,0.0,1.0,1.0,1.0,405.3985969999303,3.0,2.0,part_1,,,,,,,,,,,,,blue,circle
0.0,1.0,0.0,0.0,2.0,2.0,546.2864140001784,3.0,1.0,part_1,,,,,,,,,,,,,white,I
152.0,5.0,1.0,1.0,3.0,3.0,444.2765280000458,3.0,1.0,part_1,,,,,,,,,,,,,blue,circle
345.0,6.0,2.0,1.0,4.0,4.0,434.1478060000554,3.0,1.0,part_1,,,,,,,,,,,,,magenta,diamond
1323.0,8.0,4.0,1.0,2.0,2.0,388.3144320000156,3.0,1.0,part_1,,,,,,,,,,,,,yellow,cross
644.0,3.0,3.0,0.0,1.0,1.0,332.1033329998499,3.0,1.0,part_1,,,,,,,,,,,,,cyan,triangle
650.0,3.0,3.0,0.0,4.0,4.0,415.6851059999553,3.0,1.0,part_1,,,,,,,,,,,,,cyan,triangle
150.0,1.0,1.0,0.0,4.0,4.0,535.0173490000998,3.0,1.0,part_1,,,,,,,,,,,,,white,I
655.0,7.0,3.0,1.0,1.0,1.0,462.3653169999215,3.0,1.0,part_1,,,,,,,,,,,,,green,square
311.0,6.0,2.0,1.0,1.0,1.0,397.1530060000532,3.0,1.0,part_1,,,,,,,,,,,,,magenta,diamond
0.0,5.0,0.0,1.0,1.0,1.0,369.9772750001102,3.0,1.0,part_1,,,,,,,,,,,,,blue,circle
138.0,1.0,1.0,0.0,1.0,1.0,351.3359270000364,3.0,1.0,part_1,,,,,,,,,,,,,white,I
0.0,4.0,0.0,0.0,3.0,3.0,387.8274900000633,3.0,1.0,part_1,,,,,,,,,,,,,gray,hexagon
0.0,4.0,0.0,0.0,2.0,2.0,702.5276660001509,3.0,1.0,part_1,,,,,,,,,,,,,gray,hexagon
337.0,6.0,2.0,1.0,1.0,1.0,426.0895649999838,3.0,1.0,part_1,,,,,,,,,,,,,magenta,diamond
172.0,1.0,1.0,0.0,2.0,2.0,425.703318999922,3.0,1.0,part_1,,,,,,,,,,,,,white,I
0.0,6.0,0.0,1.0,4.0,4.0,444.1561369999363,3.0,1.0,part_1,,,,,,,,,,,,,magenta,diamond
182.0,1.0,1.0,0.0,2.0,2.0,461.2448549999044,3.0,1.0,part_1,,,,,,,,,,,,,white,I
330.0,6.0,2.0,1.0,4.0,4.0,368.7652240000716,3.0,1.0,part_1,,,,,,,,,,,,,magenta,diamond
344.0,2.0,2.0,0.0,1.0,1.0,407.0342259999506,3.0,1.0,part_1,,,,,,,,,,,,,orange,flipped triangle
1324.0,8.0,4.0,1.0,3.0,3.0,388.2076309998865,3.0,1.0,part_1,,,,,,,,,,,,,yellow,cross
0.0,1.0,0.0,0.0,4.0,4.0,313.4710019999147,3.0,1.0,part_1,,,,,,,,,,,,,white,I
167.0,5.0,1.0,1.0,2.0,2.0,442.9985889998988,3.0,1.0,part_1,,,,,,,,,,,,,blue,circle
149.0,1.0,1.0,0.0,1.0,1.0,407.0153980001123,3.0,1.0,part_1,,,,,,,,,,,,,white,I
151.0,5.0,1.0,1.0,3.0,3.0,352.264722999962,3.0,1.0,part_1,,,,,,,,,,,,,blue,circle
0.0,3.0,0.0,0.0,4.0,4.0,350.6999630001246,3.0,1.0,part_1,,,,,,,,,,,,,cyan,triangle
663.0,7.0,3.0,1.0,3.0,3.0,435.7436609998331,3.0,1.0,part_1,,,,,,,,,,,,,green,square
640.0,3.0,3.0,0.0,2.0,2.0,525.7936479999898,3.0,1.0,part_1,,,,,,,,,,,,,cyan,triangle
0.0,8.0,0.0,1.0,3.0,3.0,387.8521619999446,3.0,1.0,part_1,,,,,,,,,,,,,yellow,cross
315.0,2.0,2.0,0.0,4.0,4.0,387.7256780001517,3.0,1.0,part_1,,,,,,,,,,,,,orange,flipped triangle
652.0,7.0,3.0,1.0,1.0,1.0,332.6813870000933,3.0,1.0,part_1,,,,,,,,,,,,,green,square
311.0,2.0,2.0,0.0,3.0,3.0,323.4457930000189,3.0,1.0,part_1,,,,,,,,,,,,,orange,flipped triangle
138.0,5.0,1.0,1.0,1.0,1.0,360.2242389999901,3.0,1.0,part_1,,,,,,,,,,,,,blue,circle
344.0,6.0,2.0,1.0,1.0,1.0,361.1638410000068,3.0,1.0,part_1,,,,,,,,,,,,,magenta,diamond
0.0,8.0,0.0,1.0,4.0,4.0,387.967529999969,3.0,1.0,part_1,,,,,,,,,,,,,yellow,cross
1294.0,8.0,4.0,1.0,4.0,4.0,343.1812589999481,4.0,1.0,part_1,,,,,,,,,,,,,yellow,cross
647.0,3.0,3.0,0.0,4.0,4.0,352.6235989997985,4.0,1.0,part_1,,,,,,,,,,,,,cyan,triangle
633.0,7.0,3.0,1.0,3.0,3.0,401.2083410000286,4.0,1.0,part_1,,,,,,,,,,,,,green,square
667.0,7.0,3.0,1.0,1.0,1.0,316.0735639999075,4.0,1.0,part_1,,,,,,,,,,,,,green,square
0.0,2.0,0.0,0.0,1.0,1.0,354.2416780001076,4.0,1.0,part_1,,,,,,,,,,,,,orange,flipped triangle
0.0,5.0,0.0,1.0,4.0,4.0,434.7573289999218,4.0,1.0,part_1,,,,,,,,,,,,,blue,circle
1293.0,8.0,4.0,1.0,2.0,2.0,499.1740649998064,4.0,1.0,part_1,,,,,,,,,,,,,yellow,cross
635.0,3.0,3.0,0.0,2.0,2.0,556.6515230000277,4.0,1.0,part_1,,,,,,,,,,,,,cyan,triangle
664.0,3.0,3.0,0.0,4.0,4.0,407.4151419999907,4.0,1.0,part_1,,,,,,,,,,,,,cyan,triangle
335.0,6.0,2.0,1.0,2.0,2.0,545.6183639998926,4.0,1.0,part_1,,,,,,,,,,,,,magenta,diamond
1284.0,8.0,4.0,1.0,4.0,4.0,425.6763159999082,4.0,1.0,part_1,,,,,,,,,,,,,yellow,cross
325.0,2.0,2.0,0.0,2.0,2.0,434.8041210000701,4.0,1.0,part_1,,,,,,,,,,,,,orange,flipped triangle
179.0,1.0,1.0,0.0,4.0,4.0,325.0775510000494,4.0,1.0,part_1,,,,,,,,,,,,,white,I
673.0,3.0,3.0,0.0,2.0,2.0,295.8950500001265,4.0,1.0,part_1,,,,,,,,,,,,,cyan,triangle
162.0,5.0,1.0,1.0,2.0,2.0,352.320956000085,4.0,1.0,part_1,,,,,,,,,,,,,blue,circle
138.0,5.0,1.0,1.0,3.0,3.0,481.328731000076,4.0,1.0,part_1,,,,,,,,,,,,,blue,circle
635.0,7.0,3.0,1.0,1.0,1.0,471.7681399999947,4.0,1.0,part_1,,,,,,,,,,,,,green,square
1287.0,8.0,4.0,1.0,4.0,4.0,379.6674239999902,4.0,1.0,part_1,,,,,,,,,,,,,yellow,cross
307.0,6.0,2.0,1.0,1.0,1.0,305.5729390000579,4.0,1.0,part_1,,,,,,,,,,,,,magenta,diamond
0.0,7.0,0.0,1.0,4.0,4.0,481.4599919998272,4.0,1.0,part_1,,,,,,,,,,,,,green,square
1285.0,8.0,4.0,1.0,2.0,2.0,536.7425399999775,4.0,1.0,part_1,,,,,,,,,,,,,yellow,cross
159.0,1.0,1.0,0.0,1.0,1.0,416.00012899994,4.0,1.0,part_1,,,,,,,,,,,,,white,I
321.0,2.0,2.0,0.0,4.0,4.0,315.8595309998873,4.0,1.0,part_1,,,,,,,,,,,,,orange,flipped triangle
663.0,3.0,3.0,0.0,1.0,1.0,444.4191119998777,4.0,1.0,part_1,,,,,,,,,,,,,cyan,triangle
633.0,7.0,3.0,1.0,4.0,4.0,406.3282880001679,4.0,1.0,part_1,,,,,,,,,,,,,green,square
627.0,7.0,3.0,1.0,4.0,4.0,398.0685259998608,4.0,1.0,part_1,,,,,,,,,,,,,green,square
1306.0,8.0,4.0,1.0,2.0,2.0,512.8112939999028,4.0,1.0,part_1,,,,,,,,,,,,,yellow,cross
669.0,3.0,3.0,0.0,4.0,4.0,546.0463970000546,4.0,1.0,part_1,,,,,,,,,,,,,cyan,triangle
1295.0,4.0,4.0,0.0,3.0,3.0,443.5019319998901,4.0,1.0,part_1,,,,,,,,,,,,,gray,hexagon
670.0,7.0,3.0,1.0,2.0,2.0,599.4190979999985,4.0,1.0,part_1,,,,,,,,,,,,,green,square
1299.0,4.0,4.0,0.0,3.0,3.0,407.7597170000899,4.0,1.0,part_1,,,,,,,,,,,,,gray,hexagon
301.0,2.0,2.0,0.0,1.0,1.0,342.5037960000736,4.0,1.0,part_1,,,,,,,,,,,,,orange,flipped triangle
670.0,3.0,3.0,0.0,1.0,1.0,452.6668660000723,4.0,1.0,part_1,,,,,,,,,,,,,cyan,triangle
1284.0,4.0,4.0,0.0,4.0,4.0,480.66035000010737,4.0,1.0,part_1,,,,,,,,,,,,,gray,hexagon
1309.0,8.0,4.0,1.0,4.0,4.0,514.4641489998776,4.0,1.0,part_1,,,,,,,,,,,,,yellow,cross
1290.0,4.0,4.0,0.0,3.0,3.0,407.9028989999642,4.0,1.0,part_1,,,,,,,,,,,,,gray,hexagon
171.0,5.0,1.0,1.0,4.0,4.0,406.3707230000091,4.0,1.0,part_1,,,,,,,,,,,,,blue,circle
1296.0,4.0,4.0,0.0,4.0,4.0,363.4334590001344,4.0,1.0,part_1,,,,,,,,,,,,,gray,hexagon
0.0,7.0,0.0,1.0,2.0,2.0,610.9939650000342,4.0,1.0,part_1,,,,,,,,,,,,,green,square
330.0,2.0,2.0,0.0,4.0,4.0,617.2321479998573,4.0,1.0,part_1,,,,,,,,,,,,,orange,flipped triangle
1312.0,4.0,4.0,0.0,3.0,3.0,388.1512879997899,4.0,1.0,part_1,,,,,,,,,,,,,gray,hexagon
1281.0,4.0,4.0,0.0,4.0,4.0,368.7394839998887,4.0,1.0,part_1,,,,,,,,,,,,,gray,hexagon
1296.0,8.0,4.0,1.0,3.0,3.0,379.0954139999485,4.0,1.0,part_1,,,,,,,,,,,,,yellow,cross
625.0,3.0,3.0,0.0,2.0,2.0,416.391486999828,4.0,1.0,part_1,,,,,,,,,,,,,cyan,triangle
636.0,3.0,3.0,0.0,3.0,3.0,427.5359040000239,4.0,1.0,part_1,,,,,,,,,,,,,cyan,triangle
314.0,2.0,2.0,0.0,4.0,4.0,387.7236019998236,4.0,2.0,part_1,,,,,,,,,,,,,orange,flipped triangle
344.0,2.0,2.0,0.0,3.0,3.0,370.3852189998997,4.0,1.0,part_1,,,,,,,,,,,,,orange,flipped triangle
0.0,6.0,0.0,1.0,1.0,1.0,340.9246969999913,4.0,1.0,part_1,,,,,,,,,,,,,magenta,diamond
655.0,3.0,3.0,0.0,3.0,3.0,314.4223879999117,4.0,1.0,part_1,,,,,,,,,,,,,cyan,triangle
0.0,3.0,0.0,0.0,4.0,4.0,380.5239529999653,4.0,1.0,part_1,,,,,,,,,,,,,cyan,triangle
0.0,4.0,0.0,0.0,3.0,3.0,342.383572000017,4.0,1.0,part_1,,,,,,,,,,,,,gray,hexagon
0.0,6.0,0.0,1.0,2.0,2.0,481.7235839998375,4.0,1.0,part_1,,,,,,,,,,,,,magenta,diamond
343.0,2.0,2.0,0.0,2.0,2.0,434.7461810000368,4.0,1.0,part_1,,,,,,,,,,,,,orange,flipped triangle
636.0,7.0,3.0,1.0,4.0,4.0,397.8873369999292,4.0,1.0,part_1,,,,,,,,,,,,,green,square
667.0,3.0,3.0,0.0,3.0,3.0,352.4678949997906,4.0,1.0,part_1,,,,,,,,,,,,,cyan,triangle
343.0,6.0,2.0,1.0,3.0,3.0,341.4806920000046,4.0,1.0,part_1,,,,,,,,,,,,,magenta,diamond
342.0,2.0,2.0,0.0,4.0,4.0,388.3981070000573,4.0,1.0,part_1,,,,,,,,,,,,,orange,flipped triangle
632.0,7.0,3.0,1.0,2.0,2.0,686.7956639998738,4.0,1.0,part_1,,,,,,,,,,,,,green,square
1324.0,4.0,4.0,0.0,1.0,1.0,406.6865350000626,4.0,1.0,part_1,,,,,,,,,,,,,gray,hexagon
179.0,5.0,1.0,1.0,2.0,2.0,481.7647689999376,4.0,1.0,part_1,,,,,,,,,,,,,blue,circle
630.0,7.0,3.0,1.0,4.0,4.0,380.614863999881,4.0,2.0,part_1,,,,,,,,,,,,,green,square
1279.0,8.0,4.0,1.0,3.0,3.0,434.153920999961,4.0,1.0,part_1,,,,,,,,,,,,,yellow,cross
669.0,7.0,3.0,1.0,3.0,3.0,350.6663890000254,4.0,1.0,part_1,,,,,,,,,,,,,green,square
0.0,6.0,0.0,1.0,3.0,3.0,424.1685940000934,4.0,1.0,part_1,,,,,,,,,,,,,magenta,diamond
141.0,5.0,1.0,1.0,4.0,4.0,361.1328419999609,4.0,1.0,part_1,,,,,,,,,,,,,blue,circle
317.0,6.0,2.0,1.0,2.0,2.0,517.040672000121,4.0,1.0,part_1,,,,,,,,,,,,,magenta,diamond
309.0,6.0,2.0,1.0,3.0,3.0,443.9896100000169,4.0,1.0,part_1,,,,,,,,,,,,,magenta,diamond
335.0,2.0,2.0,0.0,2.0,2.0,471.0474829998929,4.0,1.0,part_1,,,,,,,,,,,,,orange,flipped triangle
153.0,5.0,1.0,1.0,2.0,2.0,612.3542769998949,4.0,1.0,part_1,,,,,,,,,,,,,blue,circle
152.0,5.0,1.0,1.0,4.0,4.0,369.6124690000033,4.0,1.0,part_1,,,,,,,,,,,,,blue,circle
674.0,7.0,3.0,1.0,3.0,3.0,436.0509769999225,4.0,1.0,part_1,,,,,,,,,,,,,green,square
142.0,5.0,1.0,1.0,1.0,1.0,720.4401599999528,4.0,1.0,part_1,,,,,,,,,,,,,blue,circle
345.0,2.0,2.0,0.0,3.0,3.0,443.5729560000254,4.0,1.0,part_1,,,,,,,,,,,,,orange,flipped triangle
662.0,3.0,3.0,0.0,3.0,3.0,360.8717630002047,4.0,1.0,part_1,,,,,,,,,,,,,cyan,triangle
183.0,5.0,1.0,1.0,2.0,2.0,388.7302440000439,4.0,1.0,part_1,,,,,,,,,,,,,blue,circle
668.0,7.0,3.0,1.0,4.0,4.0,407.6724959998046,4.0,1.0,part_1,,,,,,,,,,,,,green,square
0.0,4.0,0.0,0.0,2.0,2.0,572.085614000116,4.0,1.0,part_1,,,,,,,,,,,,,gray,hexagon
339.0,6.0,2.0,1.0,1.0,1.0,545.1159039998856,4.0,1.0,part_1,,,,,,,,,,,,,magenta,diamond
176.0,5.0,1.0,1.0,3.0,3.0,618.833511000048,4.0,1.0,part_1,,,,,,,,,,,,,blue,circle
663.0,3.0,3.0,0.0,1.0,1.0,682.89917900006,4.0,1.0,part_1,,,,,,,,,,,,,cyan,triangle
663.0,7.0,3.0,1.0,2.0,2.0,442.4080989999766,4.0,1.0,part_1,,,,,,,,,,,,,green,square
179.0,5.0,1.0,1.0,1.0,1.0,526.537185000052,4.0,1.0,part_1,,,,,,,,,,,,,blue,circle
664.0,7.0,3.0,1.0,1.0,1.0,611.8952550000358,4.0,1.0,part_1,,,,,,,,,,,,,green,square
0.0,8.0,0.0,1.0,3.0,3.0,398.5800489999747,4.0,1.0,part_1,,,,,,,,,,,,,yellow,cross
630.0,3.0,3.0,0.0,1.0,1.0,506.6061779998563,4.0,1.0,part_1,,,,,,,,,,,,,cyan,triangle
152.0,1.0,1.0,0.0,1.0,1.0,507.6910790000966,4.0,1.0,part_1,,,,,,,,,,,,,white,I
0.0,3.0,0.0,0.0,1.0,1.0,443.0217859999175,4.0,1.0,part_1,,,,,,,,,,,,,cyan,triangle
175.0,1.0,1.0,0.0,2.0,2.0,525.9237279999525,4.0,1.0,part_1,,,,,,,,,,,,,white,I
0.0,6.0,0.0,1.0,3.0,3.0,455.6813009999132,4.0,1.0,part_1,,,,,,,,,,,,,magenta,diamond
342.0,6.0,2.0,1.0,3.0,3.0,490.6743550000101,4.0,1.0,part_1,,,,,,,,,,,,,magenta,diamond
320.0,2.0,2.0,0.0,3.0,3.0,433.7049779999233,4.0,1.0,part_1,,,,,,,,,,,,,orange,flipped triangle
332.0,6.0,2.0,1.0,2.0,2.0,424.502283000038,4.0,1.0,part_1,,,,,,,,,,,,,magenta,diamond
309.0,6.0,2.0,1.0,1.0,1.0,443.6355360001016,4.0,1.0,part_1,,,,,,,,,,,,,magenta,diamond
142.0,1.0,1.0,0.0,2.0,2.0,516.951878999862,4.0,1.0,part_1,,,,,,,,,,,,,white,I
308.0,6.0,2.0,1.0,3.0,3.0,491.0765329998412,4.0,1.0,part_1,,,,,,,,,,,,,magenta,diamond
1310.0,4.0,4.0,0.0,2.0,2.0,471.3004240002192,4.0,1.0,part_1,,,,,,,,,,,,,gray,hexagon
179.0,1.0,1.0,0.0,1.0,1.0,526.9913240001642,4.0,1.0,part_1,,,,,,,,,,,,,white,I
635.0,3.0,3.0,0.0,2.0,2.0,416.6540700000496,4.0,1.0,part_1,,,,,,,,,,,,,cyan,triangle
1295.0,8.0,4.0,1.0,2.0,2.0,553.9588750000348,4.0,1.0,part_1,,,,,,,,,,,,,yellow,cross
301.0,6.0,2.0,1.0,2.0,2.0,379.4442829998843,4.0,1.0,part_1,,,,,,,,,,,,,magenta,diamond
0.0,7.0,3.0,1.0,6.0,0.0,0.0,1.0,0.0,part_2,stop,250.0,250.0,4.0,,,,,,,,,green,square
0.0,5.0,1.0,1.0,6.0,6.0,651.7111319999458,1.0,0.0,part_2,go,250.0,300.0,1.0,,,,,,,,,blue,circle
0.0,7.0,3.0,1.0,6.0,0.0,0.0,1.0,0.0,part_2,stop,250.0,300.0,4.0,,,,,,,,,green,square
0.0,7.0,3.0,1.0,6.0,6.0,740.7262909996462,1.0,0.0,part_2,go,250.0,350.0,1.0,,,,,,,,,green,square
0.0,8.0,4.0,1.0,5.0,0.0,0.0,1.0,0.0,part_2,stop,250.0,350.0,4.0,,,,,,,,,yellow,cross
0.0,4.0,4.0,0.0,5.0,5.0,858.2552719999512,1.0,0.0,part_2,go,300.0,350.0,1.0,,,,,,,,,gray,hexagon
0.0,8.0,4.0,1.0,6.0,0.0,0.0,1.0,0.0,part_2,stop,300.0,350.0,4.0,,,,,,,,,yellow,cross
0.0,3.0,3.0,0.0,5.0,5.0,837.0446079998146,1.0,0.0,part_2,go,300.0,400.0,1.0,,,,,,,,,cyan,triangle
0.0,7.0,3.0,1.0,6.0,0.0,0.0,1.0,0.0,part_2,stop,300.0,400.0,4.0,,,,,,,,,green,square
0.0,4.0,4.0,0.0,5.0,5.0,841.1973960000978,1.0,0.0,part_2,go,300.0,450.0,1.0,,,,,,,,,gray,hexagon
0.0,6.0,2.0,1.0,5.0,0.0,0.0,1.0,0.0,part_2,stop,300.0,450.0,4.0,,,,,,,,,magenta,diamond
0.0,2.0,2.0,0.0,6.0,6.0,868.8235380000151,1.0,0.0,part_2,go,350.0,450.0,1.0,,,,,,,,,orange,flipped triangle
0.0,5.0,1.0,1.0,6.0,0.0,0.0,1.0,0.0,part_2,stop,350.0,450.0,4.0,,,,,,,,,blue,circle
0.0,2.0,2.0,0.0,6.0,6.0,750.1944099999491,1.0,0.0,part_2,go,350.0,500.0,1.0,,,,,,,,,orange,flipped triangle
0.0,6.0,2.0,1.0,6.0,0.0,0.0,1.0,0.0,part_2,stop,350.0,500.0,4.0,,,,,,,,,magenta,diamond
0.0,3.0,3.0,0.0,6.0,6.0,914.8204910002278,1.0,0.0,part_2,go,350.0,550.0,1.0,,,,,,,,,cyan,triangle
0.0,3.0,3.0,0.0,6.0,6.0,833.454623000307,1.0,0.0,part_2,go,350.0,550.0,1.0,,,,,,,,,cyan,triangle
0.0,7.0,3.0,1.0,5.0,0.0,0.0,1.0,0.0,part_2,stop,350.0,550.0,4.0,,,,,,,,,green,square
0.0,5.0,1.0,1.0,6.0,0.0,0.0,1.0,0.0,part_2,stop,400.0,550.0,4.0,,,,,,,,,blue,circle
0.0,2.0,2.0,0.0,6.0,6.0,765.0103699997999,1.0,0.0,part_2,go,400.0,600.0,1.0,,,,,,,,,orange,flipped triangle
0.0,5.0,1.0,1.0,5.0,0.0,0.0,1.0,0.0,part_2,stop,400.0,600.0,4.0,,,,,,,,,blue,circle
0.0,2.0,2.0,0.0,6.0,6.0,785.0394649999544,1.0,0.0,part_2,go,450.0,600.0,1.0,,,,,,,,,orange,flipped triangle
0.0,5.0,1.0,1.0,5.0,0.0,0.0,1.0,0.0,part_2,stop,450.0,600.0,4.0,,,,,,,,,blue,circle
0.0,5.0,1.0,1.0,6.0,6.0,657.2948500001985,1.0,0.0,part_2,stop,500.0,600.0,3.0,,,,,,,,,blue,circle
0.0,2.0,2.0,0.0,6.0,6.0,855.0215559998833,1.0,0.0,part_2,go,500.0,550.0,1.0,,,,,,,,,orange,flipped triangle
0.0,3.0,3.0,0.0,5.0,5.0,1131.978221999816,1.0,0.0,part_2,go,500.0,550.0,1.0,,,,,,,,,cyan,triangle
0.0,1.0,1.0,0.0,6.0,6.0,829.6093959997961,1.0,0.0,part_2,go,500.0,550.0,1.0,,,,,,,,,white,I
0.0,1.0,1.0,0.0,5.0,5.0,1059.2089890001262,1.0,0.0,part_2,go,500.0,550.0,1.0,,,,,,,,,white,I
0.0,2.0,2.0,0.0,5.0,5.0,1006.020916000125,1.0,0.0,part_2,go,500.0,550.0,1.0,,,,,,,,,orange,flipped triangle
0.0,2.0,2.0,0.0,6.0,6.0,1013.596953999695,1.0,0.0,part_2,go,500.0,550.0,1.0,,,,,,,,,orange,flipped triangle
0.0,5.0,1.0,1.0,6.0,0.0,0.0,1.0,0.0,part_2,stop,500.0,550.0,4.0,,,,,,,,,blue,circle
0.0,5.0,1.0,1.0,5.0,0.0,0.0,1.0,0.0,part_2,stop,500.0,600.0,4.0,,,,,,,,,blue,circle
0.0,7.0,3.0,1.0,5.0,5.0,884.5826550000311,1.0,0.0,part_2,go,550.0,600.0,1.0,,,,,,,,,green,square
0.0,1.0,1.0,0.0,5.0,5.0,821.4446580000185,1.0,0.0,part_2,go,550.0,600.0,1.0,,,,,,,,,white,I
0.0,8.0,4.0,1.0,5.0,5.0,883.4137639996698,1.0,0.0,part_2,go,550.0,600.0,1.0,,,,,,,,,yellow,cross
0.0,6.0,2.0,1.0,6.0,0.0,0.0,1.0,0.0,part_2,stop,550.0,600.0,4.0,,,,,,,,,magenta,diamond
0.0,4.0,4.0,0.0,6.0,6.0,1033.7874889996783,2.0,0.0,part_2,go,550.0,650.0,1.0,,,,,,,,,gray,hexagon
0.0,3.0,3.0,0.0,6.0,6.0,793.7587859996711,2.0,0.0,part_2,go,550.0,650.0,1.0,,,,,,,,,cyan,triangle
0.0,7.0,3.0,1.0,6.0,6.0,831.2427719997686,2.0,0.0,part_2,stop,550.0,650.0,3.0,,,,,,,,,green,square
0.0,4.0,4.0,0.0,6.0,6.0,1215.281406000031,2.0,0.0,part_2,go,550.0,600.0,1.0,,,,,,,,,gray,hexagon
0.0,6.0,2.0,1.0,5.0,0.0,0.0,2.0,0.0,part_2,stop,550.0,600.0,4.0,,,,,,,,,magenta,diamond
0.0,8.0,4.0,1.0,6.0,0.0,0.0,2.0,0.0,part_2,stop,600.0,600.0,4.0,,,,,,,,,yellow,cross
0.0,2.0,2.0,0.0,5.0,5.0,857.6110389999485,2.0,0.0,part_2,go,600.0,650.0,1.0,,,,,,,,,orange,flipped triangle
0.0,6.0,2.0,1.0,5.0,0.0,0.0,2.0,0.0,part_2,stop,600.0,650.0,4.0,,,,,,,,,magenta,diamond
0.0,4.0,4.0,0.0,6.0,6.0,986.413335999714,2.0,0.0,part_2,go,650.0,650.0,1.0,,,,,,,,,gray,hexagon
0.0,3.0,3.0,0.0,5.0,5.0,950.6208610000612,2.0,0.0,part_2,go,650.0,650.0,1.0,,,,,,,,,cyan,triangle
0.0,3.0,3.0,0.0,5.0,5.0,877.5649459998931,2.0,0.0,part_2,go,650.0,650.0,1.0,,,,,,,,,cyan,triangle
0.0,2.0,2.0,0.0,6.0,6.0,867.285893999906,2.0,0.0,part_2,go,650.0,650.0,1.0,,,,,,,,,orange,flipped triangle
0.0,8.0,4.0,1.0,6.0,0.0,0.0,2.0,0.0,part_2,stop,650.0,650.0,4.0,,,,,,,,,yellow,cross
0.0,2.0,2.0,0.0,5.0,5.0,995.0638810000784,2.0,0.0,part_2,go,650.0,700.0,1.0,,,,,,,,,orange,flipped triangle
0.0,5.0,1.0,1.0,6.0,6.0,890.2909250000448,2.0,0.0,part_2,stop,650.0,700.0,3.0,,,,,,,,,blue,circle
0.0,3.0,3.0,0.0,6.0,6.0,1282.1811260000686,2.0,0.0,part_2,go,650.0,650.0,1.0,,,,,,,,,cyan,triangle
0.0,8.0,4.0,1.0,5.0,0.0,0.0,2.0,0.0,part_2,stop,650.0,650.0,4.0,,,,,,,,,yellow,cross
0.0,4.0,4.0,0.0,5.0,5.0,876.837875000092,2.0,0.0,part_2,go,700.0,650.0,1.0,,,,,,,,,gray,hexagon
0.0,5.0,1.0,1.0,6.0,6.0,942.09309200005,2.0,0.0,part_2,go,700.0,650.0,1.0,,,,,,,,,blue,circle
0.0,3.0,3.0,0.0,6.0,6.0,894.4676860000982,2.0,0.0,part_2,go,700.0,650.0,1.0,,,,,,,,,cyan,triangle
0.0,7.0,3.0,1.0,5.0,5.0,810.6134829999974,2.0,0.0,part_2,go,700.0,650.0,1.0,,,,,,,,,green,square
0.0,1.0,1.0,0.0,5.0,5.0,931.9684250003776,2.0,0.0,part_2,go,700.0,650.0,1.0,,,,,,,,,white,I
0.0,5.0,1.0,1.0,5.0,5.0,824.377166999966,2.0,0.0,part_2,stop,700.0,650.0,3.0,,,,,,,,,blue,circle
0.0,5.0,1.0,1.0,5.0,0.0,0.0,2.0,0.0,part_2,stop,650.0,650.0,4.0,,,,,,,,,blue,circle
0.0,1.0,1.0,0.0,6.0,6.0,940.7836260002114,2.0,0.0,part_2,go,700.0,650.0,1.0,,,,,,,,,white,I
0.0,6.0,2.0,1.0,5.0,5.0,1078.920822999862,2.0,0.0,part_2,go,700.0,650.0,1.0,,,,,,,,,magenta,diamond
0.0,3.0,3.0,0.0,5.0,5.0,884.6974620000765,2.0,0.0,part_2,go,700.0,650.0,1.0,,,,,,,,,cyan,triangle
0.0,7.0,3.0,1.0,5.0,0.0,0.0,2.0,0.0,part_2,stop,700.0,650.0,4.0,,,,,,,,,green,square
0.0,3.0,3.0,0.0,6.0,6.0,877.4785539999357,2.0,0.0,part_2,go,750.0,650.0,1.0,,,,,,,,,cyan,triangle
0.0,1.0,1.0,0.0,6.0,6.0,1099.8754170000211,2.0,0.0,part_2,go,750.0,650.0,1.0,,,,,,,,,white,I
0.0,1.0,1.0,0.0,5.0,5.0,1096.3961739998922,2.0,0.0,part_2,go,750.0,650.0,1.0,,,,,,,,,white,I
0.0,7.0,3.0,1.0,6.0,6.0,725.0029460001315,2.0,0.0,part_2,stop,750.0,650.0,3.0,,,,,,,,,green,square
0.0,2.0,2.0,0.0,6.0,6.0,1078.9946719996806,2.0,0.0,part_2,go,750.0,600.0,1.0,,,,,,,,,orange,flipped triangle
0.0,3.0,3.0,0.0,5.0,5.0,1032.934310999735,2.0,0.0,part_2,go,750.0,600.0,1.0,,,,,,,,,cyan,triangle
0.0,8.0,4.0,1.0,6.0,6.0,986.6290310001204,2.0,0.0,part_2,go,750.0,600.0,1.0,,,,,,,,,yellow,cross
0.0,6.0,2.0,1.0,5.0,5.0,968.9341070002228,2.0,0.0,part_2,go,750.0,600.0,1.0,,,,,,,,,magenta,diamond
0.0,2.0,2.0,0.0,5.0,5.0,518.1453860000147,3.0,0.0,part_2,go,750.0,600.0,1.0,,,,,,,,,orange,flipped triangle
0.0,5.0,1.0,1.0,6.0,6.0,1325.310644000183,3.0,0.0,part_2,stop,750.0,600.0,3.0,,,,,,,,,blue,circle
0.0,3.0,3.0,0.0,5.0,5.0,820.9747729997616,3.0,0.0,part_2,go,750.0,550.0,1.0,,,,,,,,,cyan,triangle
0.0,7.0,3.0,1.0,5.0,0.0,0.0,3.0,0.0,part_2,stop,750.0,550.0,4.0,,,,,,,,,green,square
0.0,7.0,3.0,1.0,6.0,6.0,1154.1013150003891,3.0,0.0,part_2,go,800.0,550.0,1.0,,,,,,,,,green,square
0.0,2.0,2.0,0.0,6.0,6.0,1198.6607929998172,3.0,0.0,part_2,go,800.0,550.0,1.0,,,,,,,,,orange,flipped triangle
0.0,7.0,3.0,1.0,6.0,0.0,0.0,3.0,0.0,part_2,stop,800.0,550.0,4.0,,,,,,,,,green,square
0.0,6.0,2.0,1.0,5.0,0.0,0.0,3.0,0.0,part_2,stop,800.0,600.0,4.0,,,,,,,,,magenta,diamond
0.0,7.0,3.0,1.0,5.0,5.0,1033.9176259999476,3.0,0.0,part_2,go,850.0,600.0,1.0,,,,,,,,,green,square
0.0,8.0,4.0,1.0,6.0,0.0,0.0,3.0,0.0,part_2,stop,850.0,600.0,4.0,,,,,,,,,yellow,cross
0.0,6.0,2.0,1.0,6.0,0.0,0.0,3.0,0.0,part_2,stop,850.0,650.0,4.0,,,,,,,,,magenta,diamond
0.0,1.0,1.0,0.0,5.0,5.0,747.2365950002313,3.0,0.0,part_2,go,850.0,700.0,1.0,,,,,,,,,white,I
0.0,1.0,1.0,0.0,5.0,5.0,867.8228639996632,3.0,0.0,part_2,go,850.0,700.0,1.0,,,,,,,,,white,I
0.0,2.0,2.0,0.0,6.0,6.0,877.6920929999505,3.0,0.0,part_2,go,850.0,700.0,1.0,,,,,,,,,orange,flipped triangle
0.0,4.0,4.0,0.0,5.0,5.0,811.0054900002979,3.0,0.0,part_2,go,850.0,700.0,1.0,,,,,,,,,gray,hexagon
0.0,6.0,2.0,1.0,6.0,6.0,847.5126299999829,3.0,0.0,part_2,stop,850.0,700.0,3.0,,,,,,,,,magenta,diamond
0.0,1.0,1.0,0.0,6.0,6.0,1017.0690600002672,3.0,0.0,part_2,go,850.0,650.0,1.0,,,,,,,,,white,I
0.0,5.0,1.0,1.0,5.0,5.0,892.5773260002643,3.0,0.0,part_2,stop,850.0,650.0,3.0,,,,,,,,,blue,circle
0.0,4.0,4.0,0.0,6.0,6.0,1156.500880999829,3.0,0.0,part_2,go,800.0,650.0,1.0,,,,,,,,,gray,hexagon
0.0,6.0,2.0,1.0,5.0,5.0,1032.9271049999988,3.0,0.0,part_2,go,800.0,650.0,1.0,,,,,,,,,magenta,diamond
0.0,1.0,1.0,0.0,5.0,5.0,1182.3415130002104,3.0,0.0,part_2,go,800.0,650.0,1.0,,,,,,,,,white,I
0.0,5.0,1.0,1.0,6.0,6.0,840.0278419999267,3.0,0.0,part_2,stop,800.0,650.0,3.0,,,,,,,,,blue,circle
0.0,2.0,2.0,0.0,5.0,5.0,1079.7159640001155,3.0,0.0,part_2,go,800.0,600.0,1.0,,,,,,,,,orange,flipped triangle
0.0,5.0,1.0,1.0,6.0,6.0,958.7845100004416,3.0,0.0,part_2,go,800.0,600.0,1.0,,,,,,,,,blue,circle
0.0,4.0,4.0,0.0,5.0,5.0,709.9619979999261,3.0,0.0,part_2,go,800.0,600.0,1.0,,,,,,,,,gray,hexagon
0.0,4.0,4.0,0.0,6.0,6.0,868.4313890003068,3.0,0.0,part_2,go,800.0,600.0,1.0,,,,,,,,,gray,hexagon
0.0,1.0,1.0,0.0,5.0,5.0,884.0458099998614,3.0,0.0,part_2,go,800.0,600.0,1.0,,,,,,,,,white,I
0.0,4.0,4.0,0.0,6.0,6.0,822.421888000008,3.0,0.0,part_2,go,800.0,600.0,1.0,,,,,,,,,gray,hexagon
0.0,6.0,2.0,1.0,6.0,0.0,0.0,3.0,0.0,part_2,stop,800.0,600.0,4.0,,,,,,,,,magenta,diamond
0.0,6.0,2.0,1.0,5.0,5.0,830.9283379999215,3.0,0.0,part_2,go,800.0,650.0,1.0,,,,,,,,,magenta,diamond
0.0,3.0,3.0,0.0,5.0,5.0,774.0456769997763,3.0,0.0,part_2,go,800.0,650.0,1.0,,,,,,,,,cyan,triangle
0.0,6.0,2.0,1.0,6.0,6.0,852.1736460002103,3.0,0.0,part_2,stop,800.0,650.0,3.0,,,,,,,,,magenta,diamond
0.0,2.0,2.0,0.0,5.0,5.0,847.6279749997957,3.0,0.0,part_2,go,800.0,600.0,1.0,,,,,,,,,orange,flipped triangle
0.0,2.0,2.0,0.0,5.0,5.0,847.9251140001907,3.0,0.0,part_2,go,800.0,600.0,1.0,,,,,,,,,orange,flipped triangle
0.0,6.0,2.0,1.0,6.0,0.0,0.0,3.0,0.0,part_2,stop,800.0,600.0,4.0,,,,,,,,,magenta,diamond
0.0,1.0,1.0,0.0,6.0,6.0,1096.5444599996772,3.0,0.0,part_2,go,800.0,650.0,1.0,,,,,,,,,white,I
0.0,5.0,1.0,1.0,5.0,5.0,1088.4728719997838,4.0,0.0,part_2,go,800.0,650.0,1.0,,,,,,,,,blue,circle
0.0,8.0,4.0,1.0,5.0,5.0,831.39740300021,4.0,0.0,part_2,go,800.0,650.0,1.0,,,,,,,,,yellow,cross
0.0,5.0,1.0,1.0,5.0,5.0,719.0416360003837,4.0,0.0,part_2,stop,800.0,650.0,3.0,,,,,,,,,blue,circle
0.0,5.0,1.0,1.0,5.0,5.0,882.5295920000826,4.0,0.0,part_2,stop,750.0,650.0,3.0,,,,,,,,,blue,circle
0.0,3.0,3.0,0.0,6.0,6.0,884.7341929999857,4.0,0.0,part_2,go,700.0,650.0,1.0,,,,,,,,,cyan,triangle
0.0,4.0,4.0,0.0,6.0,6.0,849.9396600000182,4.0,0.0,part_2,go,700.0,650.0,1.0,,,,,,,,,gray,hexagon
0.0,8.0,4.0,1.0,6.0,0.0,0.0,4.0,0.0,part_2,stop,700.0,650.0,4.0,,,,,,,,,yellow,cross
0.0,6.0,2.0,1.0,6.0,6.0,799.9483779999537,4.0,0.0,part_2,stop,700.0,700.0,3.0,,,,,,,,,magenta,diamond
0.0,1.0,1.0,0.0,6.0,6.0,664.6003500000006,4.0,0.0,part_2,go,700.0,650.0,1.0,,,,,,,,,white,I
0.0,8.0,4.0,1.0,5.0,5.0,863.0000060002203,4.0,0.0,part_2,stop,700.0,650.0,3.0,,,,,,,,,yellow,cross
0.0,8.0,4.0,1.0,6.0,0.0,0.0,4.0,0.0,part_2,stop,650.0,650.0,4.0,,,,,,,,,yellow,cross
0.0,1.0,1.0,0.0,5.0,5.0,960.6148989996656,4.0,0.0,part_2,go,650.0,700.0,1.0,,,,,,,,,white,I
0.0,5.0,1.0,1.0,5.0,0.0,0.0,4.0,0.0,part_2,stop,650.0,700.0,4.0,,,,,,,,,blue,circle
0.0,7.0,3.0,1.0,5.0,5.0,878.5566439996728,4.0,0.0,part_2,go,700.0,700.0,1.0,,,,,,,,,green,square
0.0,5.0,1.0,1.0,6.0,6.0,903.442699000152,4.0,0.0,part_2,go,700.0,700.0,1.0,,,,,,,,,blue,circle
0.0,1.0,1.0,0.0,6.0,6.0,1069.9694999998428,4.0,0.0,part_2,go,700.0,700.0,1.0,,,,,,,,,white,I
0.0,7.0,3.0,1.0,6.0,0.0,0.0,4.0,0.0,part_2,stop,700.0,700.0,4.0,,,,,,,,,green,square
0.0,4.0,4.0,0.0,6.0,6.0,1024.7108899998238,4.0,0.0,part_2,go,700.0,750.0,1.0,,,,,,,,,gray,hexagon
0.0,4.0,4.0,0.0,5.0,5.0,1087.7538940003433,4.0,0.0,part_2,go,700.0,750.0,1.0,,,,,,,,,gray,hexagon
0.0,5.0,1.0,1.0,6.0,6.0,857.0179779999307,4.0,0.0,part_2,stop,700.0,750.0,3.0,,,,,,,,,blue,circle
0.0,8.0,4.0,1.0,6.0,6.0,757.3669500002325,4.0,0.0,part_2,stop,700.0,700.0,3.0,,,,,,,,,yellow,cross
0.0,2.0,2.0,0.0,5.0,5.0,839.5334380002168,4.0,0.0,part_2,go,700.0,650.0,1.0,,,,,,,,,orange,flipped triangle
0.0,4.0,4.0,0.0,6.0,6.0,692.0370640000328,4.0,0.0,part_2,go,700.0,650.0,1.0,,,,,,,,,gray,hexagon
0.0,2.0,2.0,0.0,6.0,6.0,828.8898840000911,4.0,0.0,part_2,go,700.0,650.0,1.0,,,,,,,,,orange,flipped triangle
0.0,1.0,1.0,0.0,5.0,5.0,370.1625280000371,4.0,0.0,part_2,go,700.0,650.0,1.0,,,,,,,,,white,I
0.0,8.0,4.0,1.0,5.0,5.0,701.4742660003321,4.0,0.0,part_2,go,700.0,650.0,1.0,,,,,,,,,yellow,cross
0.0,1.0,1.0,0.0,5.0,5.0,793.6980650001715,4.0,0.0,part_2,go,700.0,650.0,1.0,,,,,,,,,white,I
0.0,1.0,1.0,0.0,6.0,6.0,676.6406820001976,4.0,0.0,part_2,go,700.0,650.0,1.0,,,,,,,,,white,I
0.0,2.0,2.0,0.0,5.0,5.0,941.2044189998596,4.0,0.0,part_2,go,700.0,650.0,1.0,,,,,,,,,orange,flipped triangle
0.0,5.0,1.0,1.0,5.0,5.0,876.0670669998945,4.0,0.0,part_2,stop,700.0,650.0,3.0,,,,,,,,,blue,circle
0.0,5.0,1.0,1.0,6.0,6.0,267.8072499998052,4.0,0.0,part_2,go,650.0,650.0,1.0,,,,,,,,,blue,circle
0.0,6.0,2.0,1.0,6.0,6.0,784.3262669998694,4.0,0.0,part_2,stop,650.0,650.0,3.0,,,,,,,,,magenta,diamond
0.0,1.0,1.0,0.0,5.0,5.0,1048.271012999976,4.0,0.0,part_2,go,650.0,600.0,1.0,,,,,,,,,white,I
0.0,2.0,2.0,0.0,5.0,5.0,913.1386969997948,4.0,0.0,part_2,go,650.0,600.0,1.0,,,,,,,,,orange,flipped triangle
0.0,7.0,3.0,1.0,6.0,6.0,773.5481709996748,4.0,0.0,part_2,stop,650.0,600.0,3.0,,,,,,,,,green,square
0.0,2.0,2.0,0.0,6.0,6.0,865.0251829999434,4.0,0.0,part_2,go,650.0,550.0,1.0,,,,,,,,,orange,flipped triangle
0.0,8.0,4.0,1.0,6.0,0.0,0.0,5.0,0.0,part_2,stop,650.0,550.0,4.0,,,,,,,,,yellow,cross
0.0,4.0,4.0,0.0,5.0,5.0,839.3998520000423,5.0,0.0,part_2,go,650.0,600.0,1.0,,,,,,,,,gray,hexagon
0.0,1.0,1.0,0.0,5.0,5.0,784.9518610000814,5.0,0.0,part_2,go,650.0,600.0,1.0,,,,,,,,,white,I
0.0,2.0,2.0,0.0,5.0,5.0,829.0886949998821,5.0,0.0,part_2,go,650.0,600.0,1.0,,,,,,,,,orange,flipped triangle
0.0,6.0,2.0,1.0,5.0,5.0,1031.8710309998096,5.0,0.0,part_2,go,650.0,600.0,1.0,,,,,,,,,magenta,diamond
0.0,6.0,2.0,1.0,5.0,5.0,803.6048569997547,5.0,0.0,part_2,go,650.0,600.0,1.0,,,,,,,,,magenta,diamond
0.0,3.0,3.0,0.0,5.0,5.0,1014.8795699997208,5.0,0.0,part_2,go,650.0,600.0,1.0,,,,,,,,,cyan,triangle
0.0,1.0,1.0,0.0,6.0,6.0,839.3777269998282,5.0,0.0,part_2,go,650.0,600.0,1.0,,,,,,,,,white,I
0.0,8.0,4.0,1.0,5.0,5.0,797.9680909998024,5.0,0.0,part_2,stop,650.0,600.0,3.0,,,,,,,,,yellow,cross
0.0,4.0,4.0,0.0,6.0,6.0,766.3522540001395,5.0,0.0,part_2,go,600.0,600.0,1.0,,,,,,,,,gray,hexagon
0.0,6.0,2.0,1.0,6.0,6.0,507.264142999702,5.0,0.0,part_2,stop,600.0,600.0,3.0,,,,,,,,,magenta,diamond
0.0,5.0,1.0,1.0,5.0,5.0,785.7695580000836,5.0,0.0,part_2,stop,600.0,550.0,3.0,,,,,,,,,blue,circle
0.0,7.0,3.0,1.0,5.0,0.0,0.0,5.0,0.0,part_2,stop,550.0,550.0,4.0,,,,,,,,,green,square
0.0,1.0,1.0,0.0,6.0,6.0,905.1143410001714,5.0,0.0,part_2,go,600.0,550.0,1.0,,,,,,,,,white,I
0.0,8.0,4.0,1.0,5.0,5.0,751.5051349996611,5.0,0.0,part_2,stop,600.0,550.0,3.0,,,,,,,,,yellow,cross
0.0,2.0,2.0,0.0,5.0,5.0,1134.503863000191,5.0,0.0,part_2,go,550.0,550.0,1.0,,,,,,,,,orange,flipped triangle
0.0,1.0,1.0,0.0,6.0,6.0,902.4845889998688,5.0,0.0,part_2,go,550.0,550.0,1.0,,,,,,,,,white,I
0.0,1.0,1.0,0.0,6.0,6.0,932.5822559999324,5.0,0.0,part_2,go,550.0,550.0,1.0,,,,,,,,,white,I
0.0,3.0,3.0,0.0,5.0,5.0,957.2288059998756,5.0,0.0,part_2,go,550.0,550.0,1.0,,,,,,,,,cyan,triangle
0.0,1.0,1.0,0.0,5.0,5.0,847.5181600001633,5.0,0.0,part_2,go,550.0,550.0,1.0,,,,,,,,,white,I
0.0,6.0,2.0,1.0,6.0,0.0,0.0,5.0,0.0,part_2,stop,550.0,550.0,4.0,,,,,,,,,magenta,diamond
0.0,7.0,3.0,1.0,5.0,5.0,1023.2687679999799,5.0,0.0,part_2,go,550.0,600.0,1.0,,,,,,,,,green,square
0.0,2.0,2.0,0.0,6.0,6.0,848.1577940001443,5.0,0.0,part_2,go,550.0,600.0,1.0,,,,,,,,,orange,flipped triangle
0.0,6.0,2.0,1.0,6.0,6.0,765.4842970000573,5.0,0.0,part_2,stop,550.0,600.0,3.0,,,,,,,,,magenta,diamond
0.0,5.0,1.0,1.0,5.0,0.0,0.0,5.0,0.0,part_2,stop,550.0,550.0,4.0,,,,,,,,,blue,circle
0.0,3.0,3.0,0.0,5.0,5.0,1170.0822169996172,5.0,0.0,part_2,go,600.0,550.0,1.0,,,,,,,,,cyan,triangle
0.0,1.0,1.0,0.0,6.0,6.0,811.2969180001528,5.0,0.0,part_2,go,600.0,550.0,1.0,,,,,,,,,white,I
0.0,1.0,1.0,0.0,5.0,5.0,1033.8078600002518,5.0,0.0,part_2,go,600.0,550.0,1.0,,,,,,,,,white,I
0.0,1.0,1.0,0.0,5.0,5.0,950.0471679998554,5.0,0.0,part_2,go,600.0,550.0,1.0,,,,,,,,,white,I
0.0,4.0,4.0,0.0,5.0,5.0,1107.5125349998416,5.0,0.0,part_2,go,600.0,550.0,1.0,,,,,,,,,gray,hexagon
0.0,7.0,3.0,1.0,5.0,5.0,939.9116839999806,5.0,0.0,part_2,go,600.0,550.0,1.0,,,,,,,,,green,square
0.0,3.0,3.0,0.0,6.0,6.0,1089.2065230000298,5.0,0.0,part_2,go,600.0,550.0,1.0,,,,,,,,,cyan,triangle
0.0,6.0,2.0,1.0,6.0,0.0,0.0,5.0,0.0,part_2,stop,600.0,550.0,4.0,,,,,,,,,magenta,diamond
0.0,4.0,4.0,0.0,5.0,5.0,802.4766079997789,5.0,0.0,part_2,go,600.0,600.0,1.0,,,,,,,,,gray,hexagon
0.0,2.0,2.0,0.0,6.0,6.0,823.1917100001738,5.0,0.0,part_2,go,600.0,600.0,1.0,,,,,,,,,orange,flipped triangle
0.0,6.0,2.0,1.0,6.0,6.0,733.7005219997081,5.0,0.0,part_2,stop,600.0,600.0,3.0,,,,,,,,,magenta,diamond
0.0,3.0,3.0,0.0,6.0,6.0,747.9314839997642,6.0,0.0,part_2,go,600.0,550.0,1.0,,,,,,,,,cyan,triangle
0.0,4.0,4.0,0.0,5.0,5.0,405.8127909997893,6.0,0.0,part_2,go,600.0,550.0,1.0,,,,,,,,,gray,hexagon
0.0,8.0,4.0,1.0,6.0,6.0,592.0811610003511,6.0,0.0,part_2,stop,600.0,550.0,3.0,,,,,,,,,yellow,cross
0.0,1.0,1.0,0.0,6.0,6.0,903.6319159999948,6.0,0.0,part_2,go,600.0,500.0,1.0,,,,,,,,,white,I
0.0,7.0,3.0,1.0,5.0,5.0,673.9114150000205,6.0,0.0,part_2,stop,600.0,500.0,3.0,,,,,,,,,green,square
0.0,4.0,4.0,0.0,6.0,6.0,821.9301379999706,6.0,0.0,part_2,go,550.0,500.0,1.0,,,,,,,,,gray,hexagon
0.0,8.0,4.0,1.0,5.0,5.0,803.3313060000182,6.0,0.0,part_2,go,550.0,500.0,1.0,,,,,,,,,yellow,cross
0.0,7.0,3.0,1.0,5.0,5.0,508.21964800024944,6.0,0.0,part_2,stop,550.0,500.0,3.0,,,,,,,,,green,square
0.0,2.0,2.0,0.0,5.0,5.0,802.3938359997373,6.0,0.0,part_2,go,500.0,500.0,1.0,,,,,,,,,orange,flipped triangle
0.0,4.0,4.0,0.0,6.0,6.0,887.8863149998324,6.0,0.0,part_2,go,500.0,500.0,1.0,,,,,,,,,gray,hexagon
0.0,3.0,3.0,0.0,5.0,5.0,821.0099030002311,6.0,0.0,part_2,go,500.0,500.0,1.0,,,,,,,,,cyan,triangle
0.0,4.0,4.0,0.0,5.0,5.0,899.3433149998964,6.0,0.0,part_2,go,500.0,500.0,1.0,,,,,,,,,gray,hexagon
0.0,8.0,4.0,1.0,5.0,5.0,638.0567610003709,6.0,0.0,part_2,stop,500.0,500.0,3.0,,,,,,,,,yellow,cross
0.0,6.0,2.0,1.0,6.0,6.0,351.5794559998539,6.0,0.0,part_2,stop,450.0,500.0,3.0,,,,,,,,,magenta,diamond
0.0,3.0,3.0,0.0,6.0,6.0,710.0168259999009,6.0,0.0,part_2,go,450.0,450.0,1.0,,,,,,,,,cyan,triangle
0.0,7.0,3.0,1.0,6.0,6.0,575.7768359999318,6.0,0.0,part_2,stop,450.0,450.0,3.0,,,,,,,,,green,square
0.0,4.0,4.0,0.0,5.0,5.0,691.6196430001946,6.0,0.0,part_2,go,450.0,400.0,1.0,,,,,,,,,gray,hexagon
0.0,3.0,3.0,0.0,6.0,6.0,396.6836569998122,6.0,0.0,part_2,go,450.0,400.0,1.0,,,,,,,,,cyan,triangle
0.0,8.0,4.0,1.0,6.0,6.0,333.8500090003435,6.0,0.0,part_2,stop,450.0,400.0,3.0,,,,,,,,,yellow,cross
0.0,4.0,4.0,0.0,5.0,5.0,637.5200229999791,6.0,0.0,part_2,go,450.0,350.0,1.0,,,,,,,,,gray,hexagon
0.0,5.0,1.0,1.0,5.0,5.0,423.8610459997289,6.0,0.0,part_2,go,450.0,350.0,1.0,,,,,,,,,blue,circle
0.0,6.0,2.0,1.0,5.0,0.0,0.0,6.0,0.0,part_2,stop,450.0,350.0,4.0,,,,,,,,,magenta,diamond
0.0,3.0,3.0,0.0,6.0,6.0,912.4031119999928,6.0,0.0,part_2,go,500.0,350.0,1.0,,,,,,,,,cyan,triangle
0.0,2.0,2.0,0.0,5.0,5.0,434.3084239999371,6.0,0.0,part_2,go,500.0,350.0,1.0,,,,,,,,,orange,flipped triangle
0.0,1.0,1.0,0.0,6.0,6.0,461.5447710002627,6.0,0.0,part_2,go,500.0,350.0,1.0,,,,,,,,,white,I
0.0,7.0,3.0,1.0,6.0,0.0,0.0,6.0,0.0,part_2,stop,500.0,350.0,4.0,,,,,,,,,green,square
0.0,7.0,3.0,1.0,6.0,0.0,0.0,6.0,0.0,part_2,stop,500.0,400.0,4.0,,,,,,,,,green,square
0.0,5.0,1.0,1.0,5.0,5.0,803.4535140000116,6.0,0.0,part_2,go,500.0,450.0,1.0,,,,,,,,,blue,circle
0.0,8.0,4.0,1.0,6.0,0.0,0.0,6.0,0.0,part_2,stop,500.0,450.0,4.0,,,,,,,,,yellow,cross
0.0,4.0,4.0,0.0,6.0,6.0,746.955527999944,6.0,0.0,part_2,go,500.0,500.0,1.0,,,,,,,,,gray,hexagon
0.0,2.0,2.0,0.0,5.0,5.0,736.0810509999283,6.0,0.0,part_2,go,500.0,500.0,1.0,,,,,,,,,orange,flipped triangle
0.0,8.0,4.0,1.0,6.0,6.0,876.795795000362,6.0,0.0,part_2,go,500.0,500.0,1.0,,,,,,,,,yellow,cross
0.0,2.0,2.0,0.0,5.0,5.0,341.0446329999104,6.0,0.0,part_2,go,500.0,500.0,1.0,,,,,,,,,orange,flipped triangle
0.0,4.0,4.0,0.0,6.0,6.0,414.9527430004127,6.0,0.0,part_2,go,500.0,500.0,1.0,,,,,,,,,gray,hexagon
0.0,1.0,1.0,0.0,6.0,6.0,747.7163049998126,6.0,0.0,part_2,go,500.0,500.0,1.0,,,,,,,,,white,I
0.0,5.0,1.0,1.0,5.0,0.0,0.0,6.0,0.0,part_2,stop,500.0,500.0,4.0,,,,,,,,,blue,circle
0.0,8.0,4.0,1.0,5.0,0.0,0.0,7.0,0.0,part_2,stop,550.0,500.0,4.0,,,,,,,,,yellow,cross
0.0,8.0,4.0,1.0,5.0,5.0,734.3537040001138,7.0,0.0,part_2,stop,600.0,500.0,3.0,,,,,,,,,yellow,cross
0.0,3.0,3.0,0.0,5.0,5.0,826.3133939999534,7.0,0.0,part_2,go,550.0,500.0,1.0,,,,,,,,,cyan,triangle
0.0,2.0,2.0,0.0,6.0,6.0,688.5288600001331,7.0,0.0,part_2,go,550.0,500.0,1.0,,,,,,,,,orange,flipped triangle
0.0,5.0,1.0,1.0,6.0,6.0,623.5351529999207,7.0,0.0,part_2,stop,550.0,500.0,3.0,,,,,,,,,blue,circle
0.0,6.0,2.0,1.0,5.0,5.0,666.6240720001042,7.0,0.0,part_2,stop,550.0,450.0,3.0,,,,,,,,,magenta,diamond
0.0,4.0,4.0,0.0,6.0,6.0,993.4463529998538,7.0,0.0,part_2,go,500.0,450.0,1.0,,,,,,,,,gray,hexagon
0.0,8.0,4.0,1.0,5.0,0.0,0.0,7.0,0.0,part_2,stop,500.0,450.0,4.0,,,,,,,,,yellow,cross
0.0,6.0,2.0,1.0,5.0,5.0,585.108658000081,7.0,0.0,part_2,go,550.0,450.0,1.0,,,,,,,,,magenta,diamond
0.0,7.0,3.0,1.0,5.0,0.0,0.0,7.0,0.0,part_2,stop,550.0,450.0,4.0,,,,,,,,,green,square
0.0,7.0,3.0,1.0,6.0,0.0,0.0,7.0,0.0,part_2,stop,600.0,450.0,4.0,,,,,,,,,green,square
0.0,4.0,4.0,0.0,6.0,6.0,808.9075779998893,7.0,0.0,part_2,go,600.0,500.0,1.0,,,,,,,,,gray,hexagon
0.0,1.0,1.0,0.0,5.0,5.0,787.7645119997396,7.0,0.0,part_2,go,600.0,500.0,1.0,,,,,,,,,white,I
0.0,3.0,3.0,0.0,5.0,5.0,703.4765929997775,7.0,0.0,part_2,go,600.0,500.0,1.0,,,,,,,,,cyan,triangle
0.0,3.0,3.0,0.0,5.0,5.0,732.5836830000299,7.0,0.0,part_2,go,600.0,500.0,1.0,,,,,,,,,cyan,triangle
0.0,8.0,4.0,1.0,5.0,5.0,733.4922150002967,7.0,0.0,part_2,stop,600.0,500.0,3.0,,,,,,,,,yellow,cross
0.0,1.0,1.0,0.0,6.0,6.0,650.5983189999824,7.0,0.0,part_2,go,550.0,500.0,1.0,,,,,,,,,white,I
0.0,1.0,1.0,0.0,6.0,6.0,472.676796000087,7.0,0.0,part_2,go,550.0,500.0,1.0,,,,,,,,,white,I
0.0,2.0,2.0,0.0,6.0,6.0,742.378701999769,7.0,0.0,part_2,go,550.0,500.0,1.0,,,,,,,,,orange,flipped triangle
0.0,7.0,3.0,1.0,6.0,6.0,550.052197000241,7.0,0.0,part_2,stop,550.0,500.0,3.0,,,,,,,,,green,square
0.0,5.0,1.0,1.0,6.0,6.0,489.7689919998811,7.0,0.0,part_2,stop,550.0,450.0,3.0,,,,,,,,,blue,circle
0.0,8.0,4.0,1.0,6.0,6.0,721.9604669999171,7.0,0.0,part_2,go,550.0,400.0,1.0,,,,,,,,,yellow,cross
0.0,6.0,2.0,1.0,5.0,0.0,0.0,7.0,0.0,part_2,stop,550.0,400.0,4.0,,,,,,,,,magenta,diamond
0.0,4.0,4.0,0.0,5.0,5.0,455.6001480000304,7.0,0.0,part_2,go,600.0,400.0,1.0,,,,,,,,,gray,hexagon
0.0,3.0,3.0,0.0,5.0,5.0,722.3393829999623,7.0,0.0,part_2,go,600.0,400.0,1.0,,,,,,,,,cyan,triangle
0.0,8.0,4.0,1.0,5.0,0.0,0.0,7.0,0.0,part_2,stop,600.0,400.0,4.0,,,,,,,,,yellow,cross
0.0,3.0,3.0,0.0,6.0,6.0,537.9982700001165,7.0,0.0,part_2,go,650.0,400.0,1.0,,,,,,,,,cyan,triangle
0.0,8.0,4.0,1.0,5.0,5.0,642.2695930000373,7.0,0.0,part_2,stop,650.0,400.0,3.0,,,,,,,,,yellow,cross
0.0,5.0,1.0,1.0,6.0,0.0,0.0,7.0,0.0,part_2,stop,600.0,400.0,4.0,,,,,,,,,blue,circle
0.0,8.0,4.0,1.0,6.0,0.0,0.0,7.0,0.0,part_2,stop,600.0,450.0,4.0,,,,,,,,,yellow,cross
0.0,4.0,4.0,0.0,5.0,5.0,732.0259329999317,7.0,0.0,part_2,go,600.0,500.0,1.0,,,,,,,,,gray,hexagon
0.0,7.0,3.0,1.0,5.0,0.0,0.0,7.0,0.0,part_2,stop,600.0,500.0,4.0,,,,,,,,,green,square
0.0,6.0,2.0,1.0,5.0,0.0,0.0,7.0,0.0,part_2,stop,650.0,500.0,4.0,,,,,,,,,magenta,diamond
0.0,8.0,4.0,1.0,6.0,6.0,814.7023149999768,7.0,0.0,part_2,go,700.0,500.0,1.0,,,,,,,,,yellow,cross
0.0,2.0,2.0,0.0,6.0,6.0,778.9144439998381,7.0,0.0,part_2,go,700.0,500.0,1.0,,,,,,,,,orange,flipped triangle
0.0,6.0,2.0,1.0,6.0,6.0,779.2558789997202,7.0,0.0,part_2,go,700.0,500.0,1.0,,,,,,,,,magenta,diamond
0.0,7.0,3.0,1.0,5.0,5.0,651.5695899997809,8.0,0.0,part_2,stop,700.0,500.0,3.0,,,,,,,,,green,square
0.0,4.0,4.0,0.0,6.0,6.0,575.4871760000242,8.0,0.0,part_2,go,650.0,500.0,1.0,,,,,,,,,gray,hexagon
0.0,7.0,3.0,1.0,5.0,5.0,754.1350470000907,8.0,0.0,part_2,stop,650.0,500.0,3.0,,,,,,,,,green,square
0.0,3.0,3.0,0.0,6.0,6.0,816.7752730000757,8.0,0.0,part_2,go,600.0,500.0,1.0,,,,,,,,,cyan,triangle
0.0,6.0,2.0,1.0,6.0,6.0,704.3136490001416,8.0,0.0,part_2,stop,600.0,500.0,3.0,,,,,,,,,magenta,diamond
0.0,8.0,4.0,1.0,6.0,0.0,0.0,8.0,0.0,part_2,stop,600.0,450.0,4.0,,,,,,,,,yellow,cross
0.0,8.0,4.0,1.0,5.0,0.0,0.0,8.0,0.0,part_2,stop,600.0,500.0,4.0,,,,,,,,,yellow,cross
0.0,3.0,3.0,0.0,6.0,6.0,584.1897820000668,8.0,0.0,part_2,go,650.0,500.0,1.0,,,,,,,,,cyan,triangle
0.0,4.0,4.0,0.0,5.0,5.0,782.5782370000525,8.0,0.0,part_2,go,650.0,500.0,1.0,,,,,,,,,gray,hexagon
0.0,6.0,2.0,1.0,5.0,5.0,758.8163400000667,8.0,0.0,part_2,stop,650.0,500.0,3.0,,,,,,,,,magenta,diamond
0.0,5.0,1.0,1.0,5.0,5.0,714.780688999781,8.0,0.0,part_2,go,600.0,500.0,1.0,,,,,,,,,blue,circle
0.0,8.0,4.0,1.0,5.0,5.0,797.3667740002384,8.0,0.0,part_2,go,600.0,500.0,1.0,,,,,,,,,yellow,cross
0.0,5.0,1.0,1.0,6.0,0.0,0.0,8.0,0.0,part_2,stop,600.0,500.0,4.0,,,,,,,,,blue,circle
0.0,3.0,3.0,0.0,6.0,6.0,546.6797160001988,8.0,0.0,part_2,go,600.0,550.0,1.0,,,,,,,,,cyan,triangle
0.0,3.0,3.0,0.0,5.0,5.0,753.9914869998938,8.0,0.0,part_2,go,600.0,550.0,1.0,,,,,,,,,cyan,triangle
0.0,2.0,2.0,0.0,6.0,6.0,756.877773999804,8.0,0.0,part_2,go,600.0,550.0,1.0,,,,,,,,,orange,flipped triangle
0.0,6.0,2.0,1.0,5.0,5.0,500.4168020000179,8.0,0.0,part_2,go,600.0,550.0,1.0,,,,,,,,,magenta,diamond
0.0,4.0,4.0,0.0,5.0,5.0,864.4086540002718,8.0,0.0,part_2,go,600.0,550.0,1.0,,,,,,,,,gray,hexagon
0.0,5.0,1.0,1.0,5.0,0.0,0.0,8.0,0.0,part_2,stop,600.0,550.0,4.0,,,,,,,,,blue,circle
0.0,3.0,3.0,0.0,5.0,5.0,796.5708829997311,8.0,0.0,part_2,go,650.0,550.0,1.0,,,,,,,,,cyan,triangle
0.0,5.0,1.0,1.0,6.0,6.0,750.9921579999173,8.0,0.0,part_2,stop,650.0,550.0,3.0,,,,,,,,,blue,circle
0.0,7.0,3.0,1.0,6.0,0.0,0.0,8.0,0.0,part_2,stop,650.0,500.0,4.0,,,,,,,,,green,square
0.0,3.0,3.0,0.0,6.0,6.0,719.2718390001573,8.0,0.0,part_2,go,650.0,550.0,1.0,,,,,,,,,cyan,triangle
0.0,6.0,2.0,1.0,6.0,6.0,749.1131669999049,8.0,0.0,part_2,stop,650.0,550.0,3.0,,,,,,,,,magenta,diamond
0.0,7.0,3.0,1.0,5.0,5.0,713.178434999918,8.0,0.0,part_2,stop,650.0,500.0,3.0,,,,,,,,,green,square
0.0,2.0,2.0,0.0,5.0,5.0,790.1198489998933,8.0,0.0,part_2,go,600.0,500.0,1.0,,,,,,,,,orange,flipped triangle
0.0,4.0,4.0,0.0,5.0,5.0,825.7595969998874,8.0,0.0,part_2,go,600.0,500.0,1.0,,,,,,,,,gray,hexagon
0.0,4.0,4.0,0.0,6.0,6.0,891.6482969998469,8.0,0.0,part_2,go,600.0,500.0,1.0,,,,,,,,,gray,hexagon
0.0,3.0,3.0,0.0,6.0,6.0,928.3938899998248,8.0,0.0,part_2,go,600.0,500.0,1.0,,,,,,,,,cyan,triangle
0.0,1.0,1.0,0.0,5.0,5.0,741.2957450001159,8.0,0.0,part_2,go,600.0,500.0,1.0,,,,,,,,,white,I
0.0,7.0,3.0,1.0,6.0,6.0,749.9768430002405,8.0,0.0,part_2,go,600.0,500.0,1.0,,,,,,,,,green,square
0.0,7.0,3.0,1.0,6.0,0.0,0.0,8.0,0.0,part_2,stop,600.0,500.0,4.0,,,,,,,,,green,square
0.0,8.0,4.0,1.0,6.0,0.0,0.0,8.0,0.0,part_2,stop,600.0,550.0,4.0,,,,,,,,,yellow,cross
0.0,2.0,2.0,0.0,5.0,5.0,739.635867999823,8.0,0.0,part_2,go,600.0,600.0,1.0,,,,,,,,,orange,flipped triangle
0.0,7.0,3.0,1.0,5.0,0.0,0.0,8.0,0.0,part_2,stop,600.0,600.0,4.0,,,,,,,,,green,square
0.0,6.0,2.0,1.0,5.0,0.0,0.0,8.0,0.0,part_2,stop,650.0,600.0,4.0,,,,,,,,,magenta,diamond
0.0,3.0,3.0,0.0,7.0,1.0,2843.1910250001242,1.0,1.0,part_3,go,0.0,0.0,0.0,770.0,5.0,770.0,462.0,308.0,154.0,924.0,616.0,cyan,triangle
0.0,2.0,2.0,0.0,7.0,3.0,2596.276947000206,1.0,1.0,part_3,go,0.0,0.0,0.0,692.0,4.0,519.0,1038.0,692.0,173.0,346.0,865.0,orange,flipped triangle
0.0,5.0,1.0,1.0,7.0,4.0,4268.271412000104,1.0,1.0,part_3,go,0.0,0.0,0.0,692.0,4.0,519.0,346.0,865.0,692.0,173.0,1038.0,blue,circle
0.0,5.0,1.0,1.0,7.0,4.0,1944.7324829998252,1.0,1.0,part_3,go,0.0,0.0,0.0,810.0,6.0,135.0,405.0,675.0,810.0,540.0,270.0,blue,circle
0.0,8.0,4.0,1.0,7.0,5.0,3168.1044880001537,1.0,1.0,part_3,go,0.0,0.0,0.0,924.0,6.0,462.0,770.0,154.0,308.0,924.0,616.0,yellow,cross
0.0,2.0,2.0,0.0,7.0,2.0,2350.31139099965,1.0,1.0,part_3,go,0.0,0.0,0.0,768.0,4.0,384.0,768.0,192.0,960.0,1152.0,576.0,orange,flipped triangle
0.0,1.0,1.0,0.0,7.0,4.0,2569.9004469997817,1.0,1.0,part_3,go,0.0,0.0,0.0,519.0,3.0,1038.0,692.0,865.0,519.0,173.0,346.0,white,I
0.0,1.0,1.0,0.0,7.0,3.0,1128.102151999883,1.0,2.0,part_3,go,0.0,0.0,0.0,580.0,5.0,116.0,696.0,580.0,232.0,348.0,464.0,white,I
0.0,6.0,2.0,1.0,7.0,1.0,2093.1919250001556,1.0,1.0,part_3,go,0.0,0.0,0.0,675.0,5.0,675.0,810.0,135.0,405.0,270.0,540.0,magenta,diamond
0.0,8.0,4.0,1.0,7.0,1.0,1205.8562910001456,1.0,1.0,part_3,go,0.0,0.0,0.0,692.0,4.0,692.0,519.0,865.0,1038.0,346.0,173.0,yellow,cross
0.0,3.0,3.0,0.0,7.0,4.0,1674.8391599999195,1.0,1.0,part_3,go,0.0,0.0,0.0,696.0,6.0,232.0,464.0,116.0,696.0,348.0,580.0,cyan,triangle
0.0,5.0,1.0,1.0,7.0,1.0,2668.3095630000935,1.0,1.0,part_3,go,0.0,0.0,0.0,576.0,3.0,576.0,768.0,1152.0,960.0,192.0,384.0,blue,circle
0.0,8.0,4.0,1.0,7.0,3.0,2269.7076180002114,1.0,1.0,part_3,go,0.0,0.0,0.0,580.0,5.0,348.0,696.0,580.0,116.0,464.0,232.0,yellow,cross
0.0,6.0,2.0,1.0,7.0,5.0,2196.669681000003,1.0,1.0,part_3,go,0.0,0.0,0.0,696.0,6.0,464.0,580.0,348.0,116.0,696.0,232.0,magenta,diamond
0.0,2.0,2.0,0.0,7.0,2.0,2011.3024219999716,1.0,1.0,part_3,go,0.0,0.0,0.0,810.0,6.0,675.0,810.0,135.0,540.0,270.0,405.0,orange,flipped triangle
0.0,5.0,1.0,1.0,7.0,4.0,1847.6905940001416,1.0,1.0,part_3,go,0.0,0.0,0.0,770.0,5.0,616.0,924.0,154.0,770.0,308.0,462.0,blue,circle
0.0,5.0,1.0,1.0,7.0,5.0,3094.046803999845,1.0,1.0,part_3,go,0.0,0.0,0.0,675.0,5.0,540.0,405.0,810.0,135.0,675.0,270.0,blue,circle
0.0,6.0,2.0,1.0,7.0,6.0,2555.760020999969,1.0,1.0,part_3,go,0.0,0.0,0.0,519.0,3.0,1038.0,692.0,346.0,865.0,173.0,519.0,magenta,diamond
0.0,1.0,1.0,0.0,7.0,1.0,2468.183897000017,1.0,1.0,part_3,go,0.0,0.0,0.0,692.0,4.0,692.0,865.0,173.0,1038.0,519.0,346.0,white,I
0.0,6.0,2.0,1.0,7.0,6.0,2085.782151999865,1.0,1.0,part_3,go,0.0,0.0,0.0,616.0,4.0,308.0,154.0,462.0,924.0,770.0,616.0,magenta,diamond
0.0,3.0,3.0,0.0,7.0,2.0,2528.242216000308,2.0,1.0,part_3,go,0.0,0.0,0.0,692.0,4.0,865.0,692.0,1038.0,346.0,173.0,519.0,cyan,triangle
0.0,4.0,4.0,0.0,7.0,3.0,1508.7513869998477,2.0,1.0,part_3,go,0.0,0.0,0.0,616.0,4.0,308.0,924.0,616.0,462.0,770.0,154.0,gray,hexagon
0.0,2.0,2.0,0.0,7.0,5.0,2432.9749140001695,2.0,1.0,part_3,go,0.0,0.0,0.0,810.0,6.0,405.0,540.0,675.0,270.0,810.0,135.0,orange,flipped triangle
0.0,8.0,4.0,1.0,7.0,3.0,2585.0285359997542,2.0,1.0,part_3,go,0.0,0.0,0.0,696.0,6.0,464.0,116.0,696.0,580.0,232.0,348.0,yellow,cross
0.0,4.0,4.0,0.0,7.0,4.0,1733.2855149998068,2.0,1.0,part_3,go,0.0,0.0,0.0,692.0,4.0,173.0,1038.0,519.0,692.0,346.0,865.0,gray,hexagon
0.0,1.0,1.0,0.0,7.0,4.0,2196.2538759999006,2.0,1.0,part_3,go,0.0,0.0,0.0,696.0,6.0,580.0,232.0,348.0,696.0,464.0,116.0,white,I
0.0,4.0,4.0,0.0,7.0,6.0,1457.200305999777,2.0,1.0,part_3,go,0.0,0.0,0.0,580.0,5.0,464.0,348.0,232.0,696.0,116.0,580.0,gray,hexagon
0.0,7.0,3.0,1.0,7.0,5.0,1779.861715000152,2.0,1.0,part_3,go,0.0,0.0,0.0,865.0,5.0,692.0,519.0,1038.0,346.0,865.0,173.0,green,square
0.0,3.0,3.0,0.0,7.0,2.0,1442.3486270002286,2.0,1.0,part_3,go,0.0,0.0,0.0,770.0,5.0,616.0,770.0,308.0,462.0,924.0,154.0,cyan,triangle
0.0,7.0,3.0,1.0,7.0,5.0,1540.525893999984,2.0,1.0,part_3,go,0.0,0.0,0.0,696.0,6.0,464.0,348.0,580.0,232.0,696.0,116.0,green,square
0.0,2.0,2.0,0.0,7.0,5.0,1556.630332000168,2.0,1.0,part_3,go,0.0,0.0,0.0,924.0,6.0,154.0,616.0,770.0,462.0,924.0,308.0,orange,flipped triangle
0.0,2.0,2.0,0.0,7.0,5.0,1981.2966709996545,2.0,1.0,part_3,go,0.0,0.0,0.0,865.0,5.0,173.0,346.0,692.0,1038.0,865.0,519.0,orange,flipped triangle
0.0,6.0,2.0,1.0,7.0,2.0,1814.3017100001089,2.0,1.0,part_3,go,0.0,0.0,0.0,865.0,5.0,346.0,865.0,519.0,1038.0,692.0,173.0,magenta,diamond
0.0,3.0,3.0,0.0,7.0,5.0,1493.8915849998011,2.0,1.0,part_3,go,0.0,0.0,0.0,675.0,5.0,810.0,135.0,540.0,405.0,675.0,270.0,cyan,triangle
0.0,1.0,1.0,0.0,7.0,2.0,2190.3204790005475,2.0,1.0,part_3,go,0.0,0.0,0.0,770.0,5.0,616.0,770.0,462.0,924.0,308.0,154.0,white,I
0.0,6.0,2.0,1.0,7.0,2.0,1622.74006700045,2.0,1.0,part_3,go,0.0,0.0,0.0,696.0,6.0,116.0,696.0,464.0,580.0,348.0,232.0,magenta,diamond
0.0,5.0,1.0,1.0,7.0,6.0,3161.560610000379,2.0,1.0,part_3,go,0.0,0.0,0.0,696.0,6.0,464.0,580.0,348.0,232.0,116.0,696.0,blue,circle
0.0,4.0,4.0,0.0,7.0,2.0,3521.693916000004,2.0,1.0,part_3,go,0.0,0.0,0.0,675.0,5.0,135.0,675.0,405.0,540.0,270.0,810.0,gray,hexagon
0.0,3.0,3.0,0.0,7.0,6.0,1732.662198000071,2.0,1.0,part_3,go,0.0,0.0,0.0,348.0,3.0,464.0,116.0,696.0,232.0,580.0,348.0,cyan,triangle
0.0,7.0,3.0,1.0,7.0,3.0,2631.7667980001715,2.0,1.0,part_3,go,0.0,0.0,0.0,770.0,5.0,308.0,154.0,770.0,616.0,924.0,462.0,green,square
0.0,6.0,2.0,1.0,7.0,3.0,2167.6245150001705,3.0,1.0,part_3,go,0.0,0.0,0.0,768.0,4.0,1152.0,192.0,768.0,384.0,960.0,576.0,magenta,diamond
0.0,1.0,1.0,0.0,7.0,2.0,1593.3852660000412,3.0,1.0,part_3,go,0.0,0.0,0.0,960.0,5.0,768.0,960.0,576.0,384.0,192.0,1152.0,white,I
0.0,1.0,1.0,0.0,7.0,5.0,1218.8049500000488,3.0,1.0,part_3,go,0.0,0.0,0.0,810.0,6.0,675.0,540.0,405.0,270.0,810.0,135.0,white,I
0.0,4.0,4.0,0.0,7.0,6.0,1320.826243000738,3.0,1.0,part_3,go,0.0,0.0,0.0,768.0,4.0,192.0,960.0,576.0,1152.0,384.0,768.0,gray,hexagon
0.0,4.0,4.0,0.0,7.0,5.0,1883.228634000261,3.0,1.0,part_3,go,0.0,0.0,0.0,616.0,4.0,308.0,462.0,770.0,924.0,616.0,154.0,gray,hexagon
0.0,5.0,1.0,1.0,7.0,5.0,2044.101571000283,3.0,1.0,part_3,go,0.0,0.0,0.0,696.0,6.0,232.0,348.0,116.0,464.0,696.0,580.0,blue,circle
0.0,7.0,3.0,1.0,7.0,5.0,1848.8703980001449,3.0,1.0,part_3,go,0.0,0.0,0.0,692.0,4.0,173.0,346.0,519.0,865.0,692.0,1038.0,green,square
0.0,2.0,2.0,0.0,7.0,4.0,2284.974777999196,3.0,1.0,part_3,go,0.0,0.0,0.0,696.0,6.0,348.0,232.0,116.0,696.0,464.0,580.0,orange,flipped triangle
0.0,1.0,1.0,0.0,7.0,2.0,1538.3538090000002,3.0,1.0,part_3,go,0.0,0.0,0.0,616.0,4.0,154.0,616.0,924.0,308.0,770.0,462.0,white,I
0.0,7.0,3.0,1.0,7.0,5.0,1409.12744400066,3.0,1.0,part_3,go,0.0,0.0,0.0,675.0,5.0,540.0,405.0,810.0,135.0,675.0,270.0,green,square
0.0,3.0,3.0,0.0,7.0,4.0,2002.3212799997054,3.0,1.0,part_3,go,0.0,0.0,0.0,675.0,5.0,270.0,135.0,405.0,675.0,810.0,540.0,cyan,triangle
0.0,4.0,4.0,0.0,7.0,5.0,1473.5549659999378,3.0,1.0,part_3,go,0.0,0.0,0.0,696.0,6.0,348.0,232.0,464.0,580.0,696.0,116.0,gray,hexagon
0.0,5.0,1.0,1.0,7.0,4.0,2087.000327000169,3.0,1.0,part_3,go,0.0,0.0,0.0,865.0,5.0,519.0,346.0,692.0,865.0,173.0,1038.0,blue,circle
0.0,2.0,2.0,0.0,7.0,4.0,1033.3215110003948,3.0,1.0,part_3,go,0.0,0.0,0.0,768.0,4.0,960.0,1152.0,384.0,768.0,576.0,192.0,orange,flipped triangle
0.0,3.0,3.0,0.0,7.0,2.0,1683.2004249999954,3.0,1.0,part_3,go,0.0,0.0,0.0,576.0,3.0,384.0,576.0,192.0,960.0,1152.0,768.0,cyan,triangle
0.0,8.0,4.0,1.0,7.0,2.0,1999.4685080000636,3.0,1.0,part_3,go,0.0,0.0,0.0,540.0,4.0,675.0,540.0,135.0,810.0,405.0,270.0,yellow,cross
0.0,7.0,3.0,1.0,7.0,4.0,1322.2958450005535,3.0,1.0,part_3,go,0.0,0.0,0.0,810.0,6.0,675.0,405.0,135.0,810.0,540.0,270.0,green,square
0.0,8.0,4.0,1.0,7.0,5.0,1737.9654699998357,3.0,1.0,part_3,go,0.0,0.0,0.0,770.0,5.0,462.0,154.0,924.0,616.0,770.0,308.0,yellow,cross
0.0,7.0,3.0,1.0,7.0,2.0,2150.095794999288,3.0,1.0,part_3,go,0.0,0.0,0.0,192.0,1.0,1152.0,192.0,576.0,768.0,384.0,960.0,green,square
0.0,8.0,4.0,1.0,7.0,5.0,1721.9702349993895,3.0,1.0,part_3,go,0.0,0.0,0.0,675.0,5.0,270.0,810.0,135.0,405.0,675.0,540.0,yellow,cross
0.0,6.0,2.0,1.0,7.0,1.0,3143.508517000555,4.0,1.0,part_3,go,0.0,0.0,0.0,810.0,6.0,810.0,405.0,675.0,270.0,135.0,540.0,magenta,diamond
0.0,7.0,3.0,1.0,7.0,4.0,1464.1006739993827,4.0,1.0,part_3,go,0.0,0.0,0.0,696.0,6.0,116.0,464.0,580.0,696.0,348.0,232.0,green,square
0.0,8.0,4.0,1.0,7.0,2.0,2911.7737889991986,4.0,1.0,part_3,go,0.0,0.0,0.0,1152.0,6.0,768.0,1152.0,960.0,576.0,192.0,384.0,yellow,cross
0.0,6.0,2.0,1.0,7.0,1.0,858.4086249993561,4.0,1.0,part_3,go,0.0,0.0,0.0,770.0,5.0,770.0,616.0,462.0,924.0,154.0,308.0,magenta,diamond
0.0,7.0,3.0,1.0,7.0,4.0,1021.6273900005035,4.0,1.0,part_3,go,0.0,0.0,0.0,770.0,5.0,924.0,154.0,616.0,770.0,462.0,308.0,green,square
0.0,3.0,3.0,0.0,7.0,4.0,2761.642495999695,4.0,1.0,part_3,go,0.0,0.0,0.0,692.0,4.0,519.0,1038.0,346.0,692.0,173.0,865.0,cyan,triangle
0.0,5.0,1.0,1.0,7.0,2.0,1660.3468089997475,4.0,1.0,part_3,go,0.0,0.0,0.0,770.0,5.0,924.0,770.0,308.0,154.0,462.0,616.0,blue,circle
0.0,2.0,2.0,0.0,7.0,5.0,1871.7364690000975,4.0,1.0,part_3,go,0.0,0.0,0.0,616.0,4.0,308.0,924.0,770.0,462.0,616.0,154.0,orange,flipped triangle
0.0,8.0,4.0,1.0,7.0,4.0,1436.1064750000878,4.0,1.0,part_3,go,0.0,0.0,0.0,960.0,5.0,192.0,576.0,1152.0,960.0,768.0,384.0,yellow,cross
0.0,5.0,1.0,1.0,7.0,4.0,1877.5244460002796,4.0,1.0,part_3,go,0.0,0.0,0.0,960.0,5.0,576.0,768.0,1152.0,960.0,384.0,192.0,blue,circle
0.0,1.0,1.0,0.0,7.0,5.0,2476.7021400002704,4.0,1.0,part_3,go,0.0,0.0,0.0,768.0,4.0,960.0,576.0,192.0,1152.0,768.0,384.0,white,I
0.0,4.0,4.0,0.0,7.0,1.0,2364.9302550002176,4.0,1.0,part_3,go,0.0,0.0,0.0,675.0,5.0,675.0,810.0,405.0,540.0,270.0,135.0,gray,hexagon
0.0,3.0,3.0,0.0,7.0,6.0,2489.911074000702,4.0,1.0,part_3,go,0.0,0.0,0.0,768.0,4.0,384.0,192.0,576.0,1152.0,960.0,768.0,cyan,triangle
0.0,4.0,4.0,0.0,7.0,5.0,1498.8116909999007,4.0,1.0,part_3,go,0.0,0.0,0.0,692.0,4.0,173.0,346.0,1038.0,519.0,692.0,865.0,gray,hexagon
0.0,4.0,4.0,0.0,7.0,1.0,2594.045377999464,4.0,1.0,part_3,go,0.0,0.0,0.0,576.0,3.0,576.0,192.0,960.0,384.0,768.0,1152.0,gray,hexagon
0.0,2.0,2.0,0.0,7.0,5.0,1881.1544489999503,4.0,1.0,part_3,go,0.0,0.0,0.0,580.0,5.0,696.0,348.0,116.0,464.0,580.0,232.0,orange,flipped triangle
0.0,6.0,2.0,1.0,7.0,3.0,2047.0068659997196,4.0,1.0,part_3,go,0.0,0.0,0.0,768.0,4.0,1152.0,576.0,768.0,384.0,192.0,960.0,magenta,diamond
0.0,7.0,3.0,1.0,7.0,1.0,1428.9195869996547,4.0,1.0,part_3,go,0.0,0.0,0.0,1152.0,6.0,1152.0,960.0,384.0,576.0,192.0,768.0,green,square
0.0,8.0,4.0,1.0,7.0,2.0,2053.74987399955,4.0,1.0,part_3,go,0.0,0.0,0.0,692.0,4.0,519.0,692.0,865.0,346.0,173.0,1038.0,yellow,cross
0.0,1.0,1.0,0.0,7.0,5.0,2135.313859999769,4.0,1.0,part_3,go,0.0,0.0,0.0,675.0,5.0,135.0,540.0,270.0,405.0,675.0,810.0,white,I
