raw_reward_magnitude,stim_reward,stepwise_reward_magnitude,paired_with_stopping,stim_location,response,reaction_time,block,num_trial_presentations,which_phase,stop_signal_trial_type,left_SSD,right_SSD,accuracy,chosen_bidding_amount,chosen_bidding_level,possible_bid_1,possible_bid_2,possible_bid_3,possible_bid_4,possible_bid_5,possible_bid_6,color_text,shape_text
152.0,1.0,0.5,0.0,4.0,4.0,675.6124790000513,1.0,1.0,phase_1,,,,,,,,,,,,,gray,circle
1323.0,4.0,4.0,0.0,4.0,4.0,526.078224999992,1.0,1.0,phase_1,,,,,,,,,,,,,white,flipped triangle
309.0,2.0,1.0,0.0,3.0,3.0,456.2649770000462,1.0,1.0,phase_1,,,,,,,,,,,,,magenta,diamond
181.0,5.0,0.5,1.0,1.0,1.0,444.688616999997,1.0,1.0,phase_1,,,,,,,,,,,,,orange,cross
162.0,1.0,0.5,0.0,4.0,4.0,490.6026459999566,1.0,1.0,phase_1,,,,,,,,,,,,,gray,circle
1298.0,4.0,4.0,0.0,2.0,2.0,379.8318669998934,1.0,1.0,phase_1,,,,,,,,,,,,,white,flipped triangle
0.0,8.0,0.0,1.0,3.0,3.0,438.8828329999796,1.0,1.0,phase_1,,,,,,,,,,,,,green,I
0.0,6.0,0.0,1.0,1.0,1.0,389.0650179999966,1.0,1.0,phase_1,,,,,,,,,,,,,yellow,square
1306.0,8.0,4.0,1.0,4.0,4.0,425.7375920000186,1.0,1.0,phase_1,,,,,,,,,,,,,green,I
670.0,7.0,2.0,1.0,4.0,4.0,397.8185009999606,1.0,1.0,phase_1,,,,,,,,,,,,,blue,hexagon
1301.0,4.0,4.0,0.0,4.0,4.0,370.7068530000015,1.0,1.0,phase_1,,,,,,,,,,,,,white,flipped triangle
659.0,3.0,2.0,0.0,3.0,3.0,327.3122749999402,1.0,1.0,phase_1,,,,,,,,,,,,,cyan,triangle
1298.0,4.0,4.0,0.0,4.0,4.0,370.7713869999907,1.0,1.0,phase_1,,,,,,,,,,,,,white,flipped triangle
0.0,7.0,0.0,1.0,4.0,4.0,360.4187099999762,1.0,1.0,phase_1,,,,,,,,,,,,,blue,hexagon
149.0,5.0,0.5,1.0,4.0,4.0,435.9083530000589,1.0,1.0,phase_1,,,,,,,,,,,,,orange,cross
1286.0,4.0,4.0,0.0,3.0,3.0,313.8960779999706,1.0,1.0,phase_1,,,,,,,,,,,,,white,flipped triangle
185.0,5.0,0.5,1.0,3.0,3.0,388.0960740000319,1.0,1.0,phase_1,,,,,,,,,,,,,orange,cross
164.0,5.0,0.5,1.0,2.0,2.0,433.7169480000966,1.0,1.0,phase_1,,,,,,,,,,,,,orange,cross
1299.0,4.0,4.0,0.0,3.0,3.0,352.4972890000981,1.0,1.0,phase_1,,,,,,,,,,,,,white,flipped triangle
150.0,5.0,0.5,1.0,1.0,1.0,296.4406520000011,1.0,1.0,phase_1,,,,,,,,,,,,,orange,cross
312.0,6.0,1.0,1.0,2.0,2.0,378.946572000018,1.0,1.0,phase_1,,,,,,,,,,,,,yellow,square
339.0,2.0,1.0,0.0,3.0,3.0,370.4267929999787,1.0,1.0,phase_1,,,,,,,,,,,,,magenta,diamond
649.0,7.0,2.0,1.0,3.0,3.0,379.5038340000474,1.0,1.0,phase_1,,,,,,,,,,,,,blue,hexagon
633.0,3.0,2.0,0.0,1.0,1.0,424.6932880000713,1.0,1.0,phase_1,,,,,,,,,,,,,cyan,triangle
0.0,2.0,0.0,0.0,2.0,2.0,352.0440060000283,1.0,1.0,phase_1,,,,,,,,,,,,,magenta,diamond
627.0,7.0,2.0,1.0,2.0,2.0,369.1646400000081,1.0,1.0,phase_1,,,,,,,,,,,,,blue,hexagon
326.0,6.0,1.0,1.0,4.0,4.0,922.1573879999596,1.0,1.0,phase_1,,,,,,,,,,,,,yellow,square
1291.0,8.0,4.0,1.0,1.0,1.0,535.7832760000747,1.0,1.0,phase_1,,,,,,,,,,,,,green,I
626.0,7.0,2.0,1.0,1.0,1.0,444.8663600001055,1.0,1.0,phase_1,,,,,,,,,,,,,blue,hexagon
317.0,2.0,1.0,0.0,2.0,2.0,343.1865160000598,1.0,1.0,phase_1,,,,,,,,,,,,,magenta,diamond
176.0,1.0,0.5,0.0,1.0,1.0,425.4739689999951,1.0,1.0,phase_1,,,,,,,,,,,,,gray,circle
0.0,6.0,0.0,1.0,3.0,3.0,479.6250159999999,1.0,1.0,phase_1,,,,,,,,,,,,,yellow,square
185.0,5.0,0.5,1.0,2.0,2.0,481.2698980001642,1.0,1.0,phase_1,,,,,,,,,,,,,orange,cross
1308.0,4.0,4.0,0.0,1.0,1.0,359.8900459999186,1.0,1.0,phase_1,,,,,,,,,,,,,white,flipped triangle
1310.0,4.0,4.0,0.0,3.0,3.0,409.1898910000964,1.0,1.0,phase_1,,,,,,,,,,,,,white,flipped triangle
317.0,6.0,1.0,1.0,2.0,2.0,408.0597970000781,1.0,1.0,phase_1,,,,,,,,,,,,,yellow,square
0.0,6.0,0.0,1.0,3.0,3.0,407.3910039999191,1.0,1.0,phase_1,,,,,,,,,,,,,yellow,square
1284.0,8.0,4.0,1.0,4.0,4.0,433.685806999847,1.0,1.0,phase_1,,,,,,,,,,,,,green,I
151.0,5.0,0.5,1.0,1.0,1.0,360.2812340000128,1.0,1.0,phase_1,,,,,,,,,,,,,orange,cross
1316.0,4.0,4.0,0.0,2.0,2.0,387.81341899994,1.0,1.0,phase_1,,,,,,,,,,,,,white,flipped triangle
164.0,1.0,0.5,0.0,3.0,3.0,333.2484899999599,1.0,1.0,phase_1,,,,,,,,,,,,,gray,circle
340.0,6.0,1.0,1.0,4.0,4.0,433.5677639999176,1.0,1.0,phase_1,,,,,,,,,,,,,yellow,square
140.0,1.0,0.5,0.0,1.0,1.0,433.544442000084,1.0,1.0,phase_1,,,,,,,,,,,,,gray,circle
319.0,6.0,1.0,1.0,4.0,4.0,442.470706999984,1.0,1.0,phase_1,,,,,,,,,,,,,yellow,square
636.0,7.0,2.0,1.0,3.0,3.0,370.3366929998992,1.0,1.0,phase_1,,,,,,,,,,,,,blue,hexagon
634.0,7.0,2.0,1.0,1.0,1.0,396.892052999874,1.0,1.0,phase_1,,,,,,,,,,,,,blue,hexagon
1287.0,8.0,4.0,1.0,1.0,1.0,441.779557000018,1.0,1.0,phase_1,,,,,,,,,,,,,green,I
314.0,2.0,1.0,0.0,2.0,2.0,415.9565550000934,1.0,1.0,phase_1,,,,,,,,,,,,,magenta,diamond
668.0,3.0,2.0,0.0,3.0,3.0,489.7395139998934,1.0,1.0,phase_1,,,,,,,,,,,,,cyan,triangle
340.0,2.0,1.0,0.0,1.0,1.0,424.5833919999313,1.0,1.0,phase_1,,,,,,,,,,,,,magenta,diamond
0.0,2.0,0.0,0.0,3.0,3.0,388.6036789999707,1.0,1.0,phase_1,,,,,,,,,,,,,magenta,diamond
0.0,6.0,0.0,1.0,1.0,1.0,646.9603180000831,1.0,1.0,phase_1,,,,,,,,,,,,,yellow,square
150.0,5.0,0.5,1.0,3.0,3.0,342.6772989998881,1.0,1.0,phase_1,,,,,,,,,,,,,orange,cross
144.0,1.0,0.5,0.0,2.0,2.0,463.1577909999578,1.0,1.0,phase_1,,,,,,,,,,,,,gray,circle
634.0,7.0,2.0,1.0,4.0,4.0,385.379284999999,1.0,1.0,phase_1,,,,,,,,,,,,,blue,hexagon
167.0,1.0,0.5,0.0,3.0,3.0,353.1228179999743,1.0,1.0,phase_1,,,,,,,,,,,,,gray,circle
1288.0,4.0,4.0,0.0,1.0,1.0,334.006183999918,1.0,1.0,phase_1,,,,,,,,,,,,,white,flipped triangle
307.0,6.0,1.0,1.0,2.0,2.0,343.8511950000702,1.0,1.0,phase_1,,,,,,,,,,,,,yellow,square
0.0,7.0,0.0,1.0,1.0,1.0,389.0242029999626,1.0,1.0,phase_1,,,,,,,,,,,,,blue,hexagon
0.0,5.0,0.0,1.0,2.0,2.0,434.4367490000422,1.0,1.0,phase_1,,,,,,,,,,,,,orange,cross
0.0,5.0,0.0,1.0,1.0,1.0,489.2635910000535,1.0,1.0,phase_1,,,,,,,,,,,,,orange,cross
343.0,2.0,1.0,0.0,1.0,1.0,389.5304579998537,1.0,1.0,phase_1,,,,,,,,,,,,,magenta,diamond
634.0,3.0,2.0,0.0,4.0,4.0,443.9568319999125,1.0,1.0,phase_1,,,,,,,,,,,,,cyan,triangle
314.0,2.0,1.0,0.0,1.0,1.0,498.8313609999295,1.0,1.0,phase_1,,,,,,,,,,,,,magenta,diamond
343.0,2.0,1.0,0.0,4.0,4.0,534.801927999979,1.0,1.0,phase_1,,,,,,,,,,,,,magenta,diamond
1310.0,8.0,4.0,1.0,3.0,3.0,398.9865190001183,1.0,1.0,phase_1,,,,,,,,,,,,,green,I
324.0,6.0,1.0,1.0,2.0,2.0,418.4068229999411,1.0,1.0,phase_1,,,,,,,,,,,,,yellow,square
0.0,5.0,0.0,1.0,4.0,4.0,379.2503390000092,1.0,1.0,phase_1,,,,,,,,,,,,,orange,cross
337.0,2.0,1.0,0.0,1.0,1.0,454.8792369998864,1.0,1.0,phase_1,,,,,,,,,,,,,magenta,diamond
650.0,3.0,2.0,0.0,3.0,3.0,323.5195140000542,1.0,1.0,phase_1,,,,,,,,,,,,,cyan,triangle
1324.0,4.0,4.0,0.0,2.0,2.0,555.7485899998937,1.0,1.0,phase_1,,,,,,,,,,,,,white,flipped triangle
0.0,7.0,0.0,1.0,4.0,4.0,425.6466859999364,1.0,1.0,phase_1,,,,,,,,,,,,,blue,hexagon
0.0,2.0,0.0,0.0,2.0,2.0,359.7878709999804,1.0,1.0,phase_1,,,,,,,,,,,,,magenta,diamond
159.0,1.0,0.5,0.0,3.0,3.0,359.5521579998149,1.0,1.0,phase_1,,,,,,,,,,,,,gray,circle
143.0,1.0,0.5,0.0,4.0,4.0,323.4773679998852,1.0,1.0,phase_1,,,,,,,,,,,,,gray,circle
673.0,7.0,2.0,1.0,4.0,4.0,435.3625940000256,1.0,1.0,phase_1,,,,,,,,,,,,,blue,hexagon
0.0,3.0,0.0,0.0,3.0,3.0,323.8499839999349,1.0,1.0,phase_1,,,,,,,,,,,,,cyan,triangle
644.0,7.0,2.0,1.0,3.0,3.0,323.8849669999126,1.0,1.0,phase_1,,,,,,,,,,,,,blue,hexagon
151.0,1.0,0.5,0.0,3.0,3.0,351.797402000102,1.0,1.0,phase_1,,,,,,,,,,,,,gray,circle
141.0,1.0,0.5,0.0,2.0,2.0,557.9130119999718,1.0,2.0,phase_1,,,,,,,,,,,,,gray,circle
657.0,3.0,2.0,0.0,4.0,4.0,545.9112409998852,1.0,1.0,phase_1,,,,,,,,,,,,,cyan,triangle
1284.0,4.0,4.0,0.0,2.0,2.0,435.3505149999819,1.0,1.0,phase_1,,,,,,,,,,,,,white,flipped triangle
0.0,4.0,0.0,0.0,2.0,2.0,443.2726600000478,1.0,1.0,phase_1,,,,,,,,,,,,,white,flipped triangle
177.0,5.0,0.5,1.0,4.0,4.0,480.8358139998745,1.0,1.0,phase_1,,,,,,,,,,,,,orange,cross
1280.0,8.0,4.0,1.0,2.0,2.0,425.416628999983,1.0,1.0,phase_1,,,,,,,,,,,,,green,I
346.0,6.0,1.0,1.0,1.0,1.0,572.8292940000301,1.0,1.0,phase_1,,,,,,,,,,,,,yellow,square
149.0,1.0,0.5,0.0,3.0,3.0,488.7348620000011,1.0,1.0,phase_1,,,,,,,,,,,,,gray,circle
150.0,1.0,0.5,0.0,3.0,3.0,518.2608500001606,1.0,1.0,phase_1,,,,,,,,,,,,,gray,circle
180.0,5.0,0.5,1.0,4.0,4.0,499.0810019999117,1.0,1.0,phase_1,,,,,,,,,,,,,orange,cross
1325.0,8.0,4.0,1.0,2.0,2.0,480.5140700000265,1.0,1.0,phase_1,,,,,,,,,,,,,green,I
1324.0,8.0,4.0,1.0,3.0,3.0,479.8937200000637,1.0,1.0,phase_1,,,,,,,,,,,,,green,I
305.0,6.0,1.0,1.0,4.0,4.0,461.1312709998856,1.0,1.0,phase_1,,,,,,,,,,,,,yellow,square
0.0,3.0,0.0,0.0,3.0,3.0,361.2190070000451,1.0,1.0,phase_1,,,,,,,,,,,,,cyan,triangle
333.0,6.0,1.0,1.0,3.0,3.0,407.5162300000556,1.0,1.0,phase_1,,,,,,,,,,,,,yellow,square
1302.0,8.0,4.0,1.0,1.0,1.0,444.1091469998355,1.0,1.0,phase_1,,,,,,,,,,,,,green,I
658.0,3.0,2.0,0.0,2.0,2.0,398.3682880000287,1.0,1.0,phase_1,,,,,,,,,,,,,cyan,triangle
633.0,3.0,2.0,0.0,3.0,3.0,488.6486180000702,1.0,1.0,phase_1,,,,,,,,,,,,,cyan,triangle
0.0,4.0,0.0,0.0,2.0,2.0,684.1632189998563,1.0,1.0,phase_1,,,,,,,,,,,,,white,flipped triangle
0.0,8.0,0.0,1.0,2.0,2.0,480.6714839999131,1.0,1.0,phase_1,,,,,,,,,,,,,green,I
0.0,6.0,0.0,1.0,4.0,4.0,377.6300210001864,1.0,1.0,phase_1,,,,,,,,,,,,,yellow,square
185.0,1.0,0.5,0.0,4.0,4.0,555.016415000182,2.0,1.0,phase_1,,,,,,,,,,,,,gray,circle
674.0,7.0,2.0,1.0,3.0,3.0,388.3543049998934,2.0,1.0,phase_1,,,,,,,,,,,,,blue,hexagon
1293.0,8.0,4.0,1.0,2.0,2.0,471.0497349999514,2.0,1.0,phase_1,,,,,,,,,,,,,green,I
666.0,7.0,2.0,1.0,3.0,3.0,332.0823560000008,2.0,1.0,phase_1,,,,,,,,,,,,,blue,hexagon
316.0,2.0,1.0,0.0,3.0,3.0,435.3306040000007,2.0,1.0,phase_1,,,,,,,,,,,,,magenta,diamond
168.0,5.0,0.5,1.0,4.0,4.0,526.5555400001176,2.0,1.0,phase_1,,,,,,,,,,,,,orange,cross
0.0,4.0,0.0,0.0,4.0,4.0,526.516089000097,2.0,1.0,phase_1,,,,,,,,,,,,,white,flipped triangle
1281.0,8.0,4.0,1.0,2.0,2.0,489.8012339999695,2.0,1.0,phase_1,,,,,,,,,,,,,green,I
648.0,3.0,2.0,0.0,2.0,2.0,471.6409049999583,2.0,1.0,phase_1,,,,,,,,,,,,,cyan,triangle
187.0,5.0,0.5,1.0,3.0,3.0,360.574139999926,2.0,1.0,phase_1,,,,,,,,,,,,,orange,cross
1288.0,8.0,4.0,1.0,3.0,3.0,370.6294579999394,2.0,1.0,phase_1,,,,,,,,,,,,,green,I
0.0,4.0,0.0,0.0,2.0,2.0,490.5871939999997,2.0,1.0,phase_1,,,,,,,,,,,,,white,flipped triangle
1303.0,4.0,4.0,0.0,4.0,4.0,313.8936010000179,2.0,1.0,phase_1,,,,,,,,,,,,,white,flipped triangle
0.0,7.0,0.0,1.0,3.0,3.0,342.4786550001499,2.0,1.0,phase_1,,,,,,,,,,,,,blue,hexagon
1320.0,4.0,4.0,0.0,3.0,3.0,378.6682469999505,2.0,1.0,phase_1,,,,,,,,,,,,,white,flipped triangle
1323.0,8.0,4.0,1.0,1.0,1.0,397.9097589999583,2.0,1.0,phase_1,,,,,,,,,,,,,green,I
0.0,8.0,0.0,1.0,4.0,4.0,323.5585659999742,2.0,1.0,phase_1,,,,,,,,,,,,,green,I
648.0,7.0,2.0,1.0,3.0,3.0,463.0621879998671,2.0,1.0,phase_1,,,,,,,,,,,,,blue,hexagon
0.0,8.0,0.0,1.0,2.0,2.0,545.032787000082,2.0,1.0,phase_1,,,,,,,,,,,,,green,I
0.0,8.0,0.0,1.0,1.0,1.0,489.5438660000764,2.0,1.0,phase_1,,,,,,,,,,,,,green,I
1295.0,4.0,4.0,0.0,3.0,3.0,342.2629570000026,2.0,1.0,phase_1,,,,,,,,,,,,,white,flipped triangle
662.0,3.0,2.0,0.0,2.0,2.0,444.2594449999433,2.0,1.0,phase_1,,,,,,,,,,,,,cyan,triangle
185.0,1.0,0.5,0.0,1.0,1.0,489.7737379999398,2.0,1.0,phase_1,,,,,,,,,,,,,gray,circle
311.0,2.0,1.0,0.0,2.0,2.0,451.7207930000495,2.0,1.0,phase_1,,,,,,,,,,,,,magenta,diamond
0.0,6.0,0.0,1.0,2.0,2.0,489.6013860000039,2.0,1.0,phase_1,,,,,,,,,,,,,yellow,square
159.0,5.0,0.5,1.0,4.0,4.0,616.4772899999207,2.0,1.0,phase_1,,,,,,,,,,,,,orange,cross
1291.0,4.0,4.0,0.0,3.0,3.0,433.527396000045,2.0,1.0,phase_1,,,,,,,,,,,,,white,flipped triangle
670.0,7.0,2.0,1.0,2.0,2.0,489.3447429999469,2.0,1.0,phase_1,,,,,,,,,,,,,blue,hexagon
187.0,1.0,0.5,0.0,1.0,1.0,711.4708149999842,2.0,1.0,phase_1,,,,,,,,,,,,,gray,circle
314.0,6.0,1.0,1.0,3.0,3.0,535.9295609998753,2.0,1.0,phase_1,,,,,,,,,,,,,yellow,square
301.0,6.0,1.0,1.0,2.0,2.0,545.2939689998857,2.0,1.0,phase_1,,,,,,,,,,,,,yellow,square
308.0,6.0,1.0,1.0,4.0,4.0,305.4483290000007,2.0,1.0,phase_1,,,,,,,,,,,,,yellow,square
1286.0,8.0,4.0,1.0,2.0,2.0,435.1573510000435,2.0,1.0,phase_1,,,,,,,,,,,,,green,I
1278.0,8.0,4.0,1.0,4.0,4.0,526.5295740000511,2.0,1.0,phase_1,,,,,,,,,,,,,green,I
1288.0,4.0,4.0,0.0,1.0,1.0,563.0813420000322,2.0,1.0,phase_1,,,,,,,,,,,,,white,flipped triangle
638.0,7.0,2.0,1.0,2.0,2.0,388.1704949999403,2.0,1.0,phase_1,,,,,,,,,,,,,blue,hexagon
1292.0,4.0,4.0,0.0,3.0,3.0,536.0034010000163,2.0,1.0,phase_1,,,,,,,,,,,,,white,flipped triangle
180.0,1.0,0.5,0.0,3.0,3.0,480.4499140000189,2.0,1.0,phase_1,,,,,,,,,,,,,gray,circle
144.0,5.0,0.5,1.0,2.0,2.0,470.343750000211,2.0,1.0,phase_1,,,,,,,,,,,,,orange,cross
659.0,3.0,2.0,0.0,2.0,2.0,378.6808250001741,2.0,1.0,phase_1,,,,,,,,,,,,,cyan,triangle
663.0,7.0,2.0,1.0,2.0,2.0,416.8363849998968,2.0,1.0,phase_1,,,,,,,,,,,,,blue,hexagon
0.0,2.0,0.0,0.0,2.0,2.0,434.5208049999201,2.0,1.0,phase_1,,,,,,,,,,,,,magenta,diamond
145.0,1.0,0.5,0.0,2.0,2.0,405.4877730000044,2.0,1.0,phase_1,,,,,,,,,,,,,gray,circle
647.0,7.0,2.0,1.0,2.0,2.0,387.5815889998648,2.0,1.0,phase_1,,,,,,,,,,,,,blue,hexagon
646.0,3.0,2.0,0.0,3.0,3.0,572.1524109999336,2.0,2.0,phase_1,,,,,,,,,,,,,cyan,triangle
146.0,5.0,0.5,1.0,2.0,2.0,518.1295160000445,2.0,1.0,phase_1,,,,,,,,,,,,,orange,cross
0.0,5.0,0.0,1.0,2.0,2.0,433.9166170000226,2.0,1.0,phase_1,,,,,,,,,,,,,orange,cross
349.0,2.0,1.0,0.0,3.0,3.0,435.4652179999903,2.0,1.0,phase_1,,,,,,,,,,,,,magenta,diamond
174.0,5.0,0.5,1.0,2.0,2.0,479.9358929999471,2.0,1.0,phase_1,,,,,,,,,,,,,orange,cross
153.0,1.0,0.5,0.0,1.0,1.0,696.1074430000735,2.0,1.0,phase_1,,,,,,,,,,,,,gray,circle
152.0,5.0,0.5,1.0,3.0,3.0,380.0530999999409,2.0,1.0,phase_1,,,,,,,,,,,,,orange,cross
0.0,7.0,0.0,1.0,4.0,4.0,674.5014040000115,2.0,1.0,phase_1,,,,,,,,,,,,,blue,hexagon
0.0,6.0,0.0,1.0,3.0,3.0,370.0044549998438,2.0,1.0,phase_1,,,,,,,,,,,,,yellow,square
305.0,2.0,1.0,0.0,2.0,2.0,583.4752129999288,2.0,1.0,phase_1,,,,,,,,,,,,,magenta,diamond
0.0,2.0,0.0,0.0,1.0,1.0,573.2447909999792,2.0,1.0,phase_1,,,,,,,,,,,,,magenta,diamond
0.0,6.0,0.0,1.0,2.0,2.0,649.2702670000199,2.0,1.0,phase_1,,,,,,,,,,,,,yellow,square
0.0,2.0,0.0,0.0,2.0,2.0,453.5852770000019,2.0,1.0,phase_1,,,,,,,,,,,,,magenta,diamond
668.0,7.0,2.0,1.0,3.0,3.0,352.868214999944,2.0,1.0,phase_1,,,,,,,,,,,,,blue,hexagon
349.0,2.0,1.0,0.0,1.0,1.0,628.8359999998647,2.0,1.0,phase_1,,,,,,,,,,,,,magenta,diamond
657.0,7.0,2.0,1.0,2.0,2.0,389.7018309999112,2.0,1.0,phase_1,,,,,,,,,,,,,blue,hexagon
141.0,1.0,0.5,0.0,2.0,2.0,518.5064520001106,2.0,1.0,phase_1,,,,,,,,,,,,,gray,circle
1278.0,4.0,4.0,0.0,4.0,4.0,593.5652159998881,2.0,1.0,phase_1,,,,,,,,,,,,,white,flipped triangle
1309.0,8.0,4.0,1.0,4.0,4.0,536.8730590000723,2.0,1.0,phase_1,,,,,,,,,,,,,green,I
328.0,6.0,1.0,1.0,3.0,3.0,426.8745330000456,2.0,1.0,phase_1,,,,,,,,,,,,,yellow,square
0.0,1.0,0.0,0.0,3.0,3.0,408.2458249999945,2.0,1.0,phase_1,,,,,,,,,,,,,gray,circle
341.0,6.0,1.0,1.0,3.0,3.0,316.0031899999467,2.0,1.0,phase_1,,,,,,,,,,,,,yellow,square
348.0,6.0,1.0,1.0,1.0,1.0,481.04627099996827,2.0,1.0,phase_1,,,,,,,,,,,,,yellow,square
302.0,6.0,1.0,1.0,3.0,3.0,352.0340149998446,2.0,1.0,phase_1,,,,,,,,,,,,,yellow,square
670.0,7.0,2.0,1.0,3.0,3.0,353.4218960000999,2.0,1.0,phase_1,,,,,,,,,,,,,blue,hexagon
1324.0,4.0,4.0,0.0,2.0,2.0,500.47579400006725,2.0,1.0,phase_1,,,,,,,,,,,,,white,flipped triangle
1296.0,4.0,4.0,0.0,3.0,3.0,509.212357000024,2.0,1.0,phase_1,,,,,,,,,,,,,white,flipped triangle
0.0,3.0,0.0,0.0,2.0,2.0,581.6156020000562,2.0,1.0,phase_1,,,,,,,,,,,,,cyan,triangle
326.0,2.0,1.0,0.0,4.0,4.0,388.713757000005,2.0,1.0,phase_1,,,,,,,,,,,,,magenta,diamond
0.0,5.0,0.0,1.0,4.0,4.0,691.723316000207,2.0,1.0,phase_1,,,,,,,,,,,,,orange,cross
309.0,6.0,1.0,1.0,2.0,2.0,489.3850440000733,2.0,1.0,phase_1,,,,,,,,,,,,,yellow,square
0.0,1.0,0.0,0.0,2.0,2.0,480.760453999892,2.0,1.0,phase_1,,,,,,,,,,,,,gray,circle
309.0,6.0,1.0,1.0,3.0,3.0,464.0597879999859,2.0,1.0,phase_1,,,,,,,,,,,,,yellow,square
150.0,1.0,0.5,0.0,2.0,2.0,622.5390099998549,2.0,1.0,phase_1,,,,,,,,,,,,,gray,circle
636.0,3.0,2.0,0.0,1.0,1.0,806.1754789998758,2.0,1.0,phase_1,,,,,,,,,,,,,cyan,triangle
643.0,7.0,2.0,1.0,4.0,4.0,621.8944629999896,2.0,1.0,phase_1,,,,,,,,,,,,,blue,hexagon
649.0,3.0,2.0,0.0,2.0,2.0,444.2994049998106,2.0,1.0,phase_1,,,,,,,,,,,,,cyan,triangle
0.0,8.0,0.0,1.0,4.0,4.0,500.2036660000613,2.0,1.0,phase_1,,,,,,,,,,,,,green,I
1280.0,4.0,4.0,0.0,2.0,2.0,528.0529770000157,2.0,1.0,phase_1,,,,,,,,,,,,,white,flipped triangle
670.0,3.0,2.0,0.0,1.0,1.0,444.5303799998328,2.0,1.0,phase_1,,,,,,,,,,,,,cyan,triangle
629.0,7.0,2.0,1.0,1.0,1.0,451.3411589998668,2.0,1.0,phase_1,,,,,,,,,,,,,blue,hexagon
1324.0,8.0,4.0,1.0,3.0,3.0,406.7465310001807,2.0,1.0,phase_1,,,,,,,,,,,,,green,I
173.0,5.0,0.5,1.0,3.0,3.0,378.7259079999785,2.0,1.0,phase_1,,,,,,,,,,,,,orange,cross
643.0,3.0,2.0,0.0,4.0,4.0,574.1819509999004,2.0,1.0,phase_1,,,,,,,,,,,,,cyan,triangle
333.0,2.0,1.0,0.0,2.0,2.0,471.4510500000415,2.0,1.0,phase_1,,,,,,,,,,,,,magenta,diamond
319.0,2.0,1.0,0.0,3.0,3.0,461.4956400000665,2.0,1.0,phase_1,,,,,,,,,,,,,magenta,diamond
0.0,3.0,0.0,0.0,4.0,4.0,555.2421659999709,2.0,1.0,phase_1,,,,,,,,,,,,,cyan,triangle
0.0,2.0,0.0,0.0,4.0,4.0,509.24004599983164,2.0,1.0,phase_1,,,,,,,,,,,,,magenta,diamond
627.0,3.0,2.0,0.0,4.0,4.0,498.5204370000247,2.0,1.0,phase_1,,,,,,,,,,,,,cyan,triangle
1283.0,8.0,4.0,1.0,4.0,4.0,425.7348199998887,2.0,1.0,phase_1,,,,,,,,,,,,,green,I
337.0,6.0,1.0,1.0,4.0,4.0,590.690117000122,2.0,1.0,phase_1,,,,,,,,,,,,,yellow,square
673.0,3.0,2.0,0.0,1.0,1.0,574.3166679999376,2.0,1.0,phase_1,,,,,,,,,,,,,cyan,triangle
301.0,6.0,1.0,1.0,3.0,3.0,527.6482960000521,2.0,1.0,phase_1,,,,,,,,,,,,,yellow,square
0.0,7.0,0.0,1.0,3.0,3.0,379.7785609999664,2.0,1.0,phase_1,,,,,,,,,,,,,blue,hexagon
301.0,2.0,1.0,0.0,4.0,4.0,507.66108399989207,2.0,1.0,phase_1,,,,,,,,,,,,,magenta,diamond
662.0,7.0,2.0,1.0,3.0,3.0,351.6460250000364,2.0,1.0,phase_1,,,,,,,,,,,,,blue,hexagon
0.0,2.0,0.0,0.0,3.0,3.0,415.6348590001926,3.0,1.0,phase_1,,,,,,,,,,,,,magenta,diamond
0.0,5.0,0.0,1.0,4.0,4.0,369.8304699998971,3.0,1.0,phase_1,,,,,,,,,,,,,orange,cross
149.0,5.0,0.5,1.0,3.0,3.0,342.1310619999076,3.0,1.0,phase_1,,,,,,,,,,,,,orange,cross
1321.0,4.0,4.0,0.0,2.0,2.0,536.2945920001039,3.0,1.0,phase_1,,,,,,,,,,,,,white,flipped triangle
1279.0,8.0,4.0,1.0,3.0,3.0,620.431956999937,3.0,1.0,phase_1,,,,,,,,,,,,,green,I
1321.0,8.0,4.0,1.0,3.0,3.0,435.4517520000627,3.0,1.0,phase_1,,,,,,,,,,,,,green,I
632.0,3.0,2.0,0.0,2.0,2.0,426.8719449999025,3.0,1.0,phase_1,,,,,,,,,,,,,cyan,triangle
332.0,6.0,1.0,1.0,1.0,1.0,666.0005319999982,3.0,1.0,phase_1,,,,,,,,,,,,,yellow,square
0.0,3.0,0.0,0.0,2.0,2.0,786.1244260000149,3.0,1.0,phase_1,,,,,,,,,,,,,cyan,triangle
1316.0,8.0,4.0,1.0,2.0,2.0,620.6851860001734,3.0,1.0,phase_1,,,,,,,,,,,,,green,I
0.0,4.0,0.0,0.0,3.0,3.0,415.9431390000918,3.0,1.0,phase_1,,,,,,,,,,,,,white,flipped triangle
0.0,3.0,0.0,0.0,4.0,4.0,371.9084730000759,3.0,1.0,phase_1,,,,,,,,,,,,,cyan,triangle
183.0,1.0,0.5,0.0,1.0,1.0,758.3666680000078,3.0,1.0,phase_1,,,,,,,,,,,,,gray,circle
664.0,3.0,2.0,0.0,3.0,3.0,480.2183169999807,3.0,1.0,phase_1,,,,,,,,,,,,,cyan,triangle
0.0,4.0,0.0,0.0,4.0,4.0,722.2487890001048,3.0,1.0,phase_1,,,,,,,,,,,,,white,flipped triangle
168.0,5.0,0.5,1.0,4.0,4.0,535.6495389999054,3.0,1.0,phase_1,,,,,,,,,,,,,orange,cross
0.0,4.0,0.0,0.0,3.0,3.0,544.3354969997927,3.0,1.0,phase_1,,,,,,,,,,,,,white,flipped triangle
308.0,2.0,1.0,0.0,4.0,4.0,452.2796329999892,3.0,1.0,phase_1,,,,,,,,,,,,,magenta,diamond
0.0,3.0,0.0,0.0,3.0,3.0,378.5614410001017,3.0,1.0,phase_1,,,,,,,,,,,,,cyan,triangle
347.0,2.0,1.0,0.0,2.0,2.0,553.9277039999888,3.0,1.0,phase_1,,,,,,,,,,,,,magenta,diamond
1281.0,4.0,4.0,0.0,3.0,3.0,416.7411129999436,3.0,1.0,phase_1,,,,,,,,,,,,,white,flipped triangle
171.0,1.0,0.5,0.0,1.0,1.0,352.0072690000688,3.0,1.0,phase_1,,,,,,,,,,,,,gray,circle
657.0,3.0,2.0,0.0,1.0,1.0,518.193452000105,3.0,1.0,phase_1,,,,,,,,,,,,,cyan,triangle
176.0,1.0,0.5,0.0,2.0,2.0,655.938001000095,3.0,1.0,phase_1,,,,,,,,,,,,,gray,circle
1319.0,8.0,4.0,1.0,4.0,4.0,757.4284330000864,3.0,1.0,phase_1,,,,,,,,,,,,,green,I
1299.0,8.0,4.0,1.0,3.0,3.0,351.4901220000865,3.0,1.0,phase_1,,,,,,,,,,,,,green,I
324.0,6.0,1.0,1.0,1.0,1.0,489.2275479999171,3.0,1.0,phase_1,,,,,,,,,,,,,yellow,square
1287.0,4.0,4.0,0.0,4.0,4.0,573.8154789999044,3.0,1.0,phase_1,,,,,,,,,,,,,white,flipped triangle
640.0,7.0,2.0,1.0,4.0,4.0,600.789371000019,3.0,1.0,phase_1,,,,,,,,,,,,,blue,hexagon
626.0,3.0,2.0,0.0,1.0,1.0,683.9076629998999,3.0,1.0,phase_1,,,,,,,,,,,,,cyan,triangle
175.0,5.0,0.5,1.0,1.0,1.0,545.6158740000774,3.0,1.0,phase_1,,,,,,,,,,,,,orange,cross
152.0,5.0,0.5,1.0,3.0,3.0,379.0489339999112,3.0,1.0,phase_1,,,,,,,,,,,,,orange,cross
0.0,7.0,0.0,1.0,2.0,2.0,609.1132260000904,3.0,1.0,phase_1,,,,,,,,,,,,,blue,hexagon
328.0,2.0,1.0,0.0,1.0,1.0,498.8449039999523,3.0,1.0,phase_1,,,,,,,,,,,,,magenta,diamond
183.0,5.0,0.5,1.0,1.0,1.0,545.0726550000127,3.0,1.0,phase_1,,,,,,,,,,,,,orange,cross
158.0,1.0,0.5,0.0,3.0,3.0,598.1588770000599,3.0,1.0,phase_1,,,,,,,,,,,,,gray,circle
659.0,7.0,2.0,1.0,1.0,1.0,552.9131079999843,3.0,1.0,phase_1,,,,,,,,,,,,,blue,hexagon
1316.0,4.0,4.0,0.0,1.0,1.0,490.7502250000561,3.0,1.0,phase_1,,,,,,,,,,,,,white,flipped triangle
633.0,7.0,2.0,1.0,2.0,2.0,488.9701430001878,3.0,1.0,phase_1,,,,,,,,,,,,,blue,hexagon
317.0,6.0,1.0,1.0,1.0,1.0,443.8681709998491,3.0,1.0,phase_1,,,,,,,,,,,,,yellow,square
642.0,3.0,2.0,0.0,1.0,1.0,443.1072330000916,3.0,1.0,phase_1,,,,,,,,,,,,,cyan,triangle
324.0,2.0,1.0,0.0,3.0,3.0,427.1588520000478,3.0,1.0,phase_1,,,,,,,,,,,,,magenta,diamond
1306.0,4.0,4.0,0.0,1.0,1.0,396.5469110000867,3.0,1.0,phase_1,,,,,,,,,,,,,white,flipped triangle
1288.0,8.0,4.0,1.0,4.0,4.0,609.2057379999005,3.0,1.0,phase_1,,,,,,,,,,,,,green,I
0.0,6.0,0.0,1.0,4.0,4.0,490.2031350000015,3.0,1.0,phase_1,,,,,,,,,,,,,yellow,square
339.0,6.0,1.0,1.0,2.0,2.0,443.4321510000245,3.0,2.0,phase_1,,,,,,,,,,,,,yellow,square
1314.0,4.0,4.0,0.0,1.0,1.0,442.6918649999152,3.0,1.0,phase_1,,,,,,,,,,,,,white,flipped triangle
0.0,1.0,0.0,0.0,3.0,3.0,434.638294999786,3.0,1.0,phase_1,,,,,,,,,,,,,gray,circle
341.0,2.0,1.0,0.0,1.0,1.0,491.6524080001636,3.0,1.0,phase_1,,,,,,,,,,,,,magenta,diamond
1278.0,8.0,4.0,1.0,1.0,1.0,489.3388590000995,3.0,1.0,phase_1,,,,,,,,,,,,,green,I
658.0,7.0,2.0,1.0,1.0,1.0,461.8901129999813,3.0,1.0,phase_1,,,,,,,,,,,,,blue,hexagon
1296.0,8.0,4.0,1.0,1.0,1.0,407.8243980000025,3.0,1.0,phase_1,,,,,,,,,,,,,green,I
1303.0,8.0,4.0,1.0,2.0,2.0,720.4277569999249,3.0,1.0,phase_1,,,,,,,,,,,,,green,I
150.0,1.0,0.5,0.0,2.0,2.0,480.5389279999872,3.0,1.0,phase_1,,,,,,,,,,,,,gray,circle
0.0,1.0,0.0,0.0,3.0,3.0,527.6099919999524,3.0,1.0,phase_1,,,,,,,,,,,,,gray,circle
314.0,6.0,1.0,1.0,1.0,1.0,462.4468480001269,3.0,1.0,phase_1,,,,,,,,,,,,,yellow,square
301.0,2.0,1.0,0.0,4.0,4.0,424.9371240000528,3.0,1.0,phase_1,,,,,,,,,,,,,magenta,diamond
1290.0,4.0,4.0,0.0,4.0,4.0,580.4786520000107,3.0,1.0,phase_1,,,,,,,,,,,,,white,flipped triangle
1314.0,8.0,4.0,1.0,4.0,4.0,453.3985610000854,3.0,1.0,phase_1,,,,,,,,,,,,,green,I
143.0,5.0,0.5,1.0,4.0,4.0,583.2565989999239,3.0,1.0,phase_1,,,,,,,,,,,,,orange,cross
0.0,8.0,0.0,1.0,2.0,2.0,748.9992890000394,3.0,1.0,phase_1,,,,,,,,,,,,,green,I
674.0,3.0,2.0,0.0,4.0,4.0,546.2454639998668,3.0,1.0,phase_1,,,,,,,,,,,,,cyan,triangle
341.0,6.0,1.0,1.0,3.0,3.0,444.7813040001165,3.0,1.0,phase_1,,,,,,,,,,,,,yellow,square
1290.0,8.0,4.0,1.0,3.0,3.0,509.0937209999993,3.0,1.0,phase_1,,,,,,,,,,,,,green,I
664.0,3.0,2.0,0.0,4.0,4.0,526.4427090000936,3.0,1.0,phase_1,,,,,,,,,,,,,cyan,triangle
175.0,1.0,0.5,0.0,4.0,4.0,665.3765030000613,3.0,1.0,phase_1,,,,,,,,,,,,,gray,circle
317.0,2.0,1.0,0.0,1.0,1.0,406.3143099999706,3.0,1.0,phase_1,,,,,,,,,,,,,magenta,diamond
1292.0,8.0,4.0,1.0,4.0,4.0,601.7663959999027,3.0,1.0,phase_1,,,,,,,,,,,,,green,I
173.0,1.0,0.5,0.0,4.0,4.0,702.2374259997832,3.0,1.0,phase_1,,,,,,,,,,,,,gray,circle
1302.0,4.0,4.0,0.0,3.0,3.0,387.7371159999256,3.0,1.0,phase_1,,,,,,,,,,,,,white,flipped triangle
309.0,2.0,1.0,0.0,4.0,4.0,665.7691660000182,3.0,1.0,phase_1,,,,,,,,,,,,,magenta,diamond
0.0,2.0,0.0,0.0,4.0,4.0,370.4479590001028,3.0,1.0,phase_1,,,,,,,,,,,,,magenta,diamond
302.0,2.0,1.0,0.0,2.0,2.0,944.482981000192,3.0,1.0,phase_1,,,,,,,,,,,,,magenta,diamond
141.0,5.0,0.5,1.0,2.0,2.0,397.8941970001415,3.0,1.0,phase_1,,,,,,,,,,,,,orange,cross
0.0,4.0,0.0,0.0,3.0,3.0,388.9928779999536,3.0,1.0,phase_1,,,,,,,,,,,,,white,flipped triangle
0.0,4.0,0.0,0.0,3.0,3.0,334.856845999866,3.0,1.0,phase_1,,,,,,,,,,,,,white,flipped triangle
659.0,7.0,2.0,1.0,3.0,3.0,323.7816060000114,3.0,1.0,phase_1,,,,,,,,,,,,,blue,hexagon
177.0,1.0,0.5,0.0,1.0,1.0,425.5785600000763,3.0,1.0,phase_1,,,,,,,,,,,,,gray,circle
341.0,2.0,1.0,0.0,2.0,2.0,483.9259970001421,3.0,1.0,phase_1,,,,,,,,,,,,,magenta,diamond
666.0,3.0,2.0,0.0,3.0,3.0,379.1848450000543,3.0,1.0,phase_1,,,,,,,,,,,,,cyan,triangle
656.0,3.0,2.0,0.0,2.0,2.0,434.6165120000478,3.0,1.0,phase_1,,,,,,,,,,,,,cyan,triangle
171.0,1.0,0.5,0.0,2.0,2.0,463.4737500000483,3.0,1.0,phase_1,,,,,,,,,,,,,gray,circle
349.0,6.0,1.0,1.0,4.0,4.0,406.3645939997968,3.0,1.0,phase_1,,,,,,,,,,,,,yellow,square
1308.0,8.0,4.0,1.0,3.0,3.0,730.678313999988,3.0,1.0,phase_1,,,,,,,,,,,,,green,I
1283.0,4.0,4.0,0.0,4.0,4.0,619.5405290000053,3.0,1.0,phase_1,,,,,,,,,,,,,white,flipped triangle
1293.0,4.0,4.0,0.0,4.0,4.0,473.3629239999573,3.0,1.0,phase_1,,,,,,,,,,,,,white,flipped triangle
157.0,5.0,0.5,1.0,3.0,3.0,583.5842220001268,3.0,1.0,phase_1,,,,,,,,,,,,,orange,cross
327.0,6.0,1.0,1.0,1.0,1.0,609.2787990000943,3.0,1.0,phase_1,,,,,,,,,,,,,yellow,square
1319.0,4.0,4.0,0.0,2.0,2.0,509.2040470001393,3.0,1.0,phase_1,,,,,,,,,,,,,white,flipped triangle
0.0,7.0,0.0,1.0,3.0,3.0,453.6655800000062,3.0,1.0,phase_1,,,,,,,,,,,,,blue,hexagon
318.0,6.0,1.0,1.0,1.0,1.0,508.1497500000296,3.0,1.0,phase_1,,,,,,,,,,,,,yellow,square
168.0,1.0,0.5,0.0,3.0,3.0,490.5923300000268,3.0,1.0,phase_1,,,,,,,,,,,,,gray,circle
171.0,5.0,0.5,1.0,2.0,2.0,545.7025629998498,3.0,1.0,phase_1,,,,,,,,,,,,,orange,cross
174.0,1.0,0.5,0.0,1.0,1.0,489.4701440000517,3.0,1.0,phase_1,,,,,,,,,,,,,gray,circle
0.0,1.0,0.0,0.0,3.0,3.0,444.0741139999318,3.0,1.0,phase_1,,,,,,,,,,,,,gray,circle
314.0,2.0,1.0,0.0,1.0,1.0,593.2270389998848,3.0,1.0,phase_1,,,,,,,,,,,,,magenta,diamond
158.0,5.0,0.5,1.0,1.0,1.0,471.4735879999807,3.0,1.0,phase_1,,,,,,,,,,,,,orange,cross
638.0,3.0,2.0,0.0,1.0,1.0,619.7680640000272,3.0,1.0,phase_1,,,,,,,,,,,,,cyan,triangle
627.0,7.0,2.0,1.0,1.0,1.0,675.656576999927,3.0,1.0,phase_1,,,,,,,,,,,,,blue,hexagon
0.0,7.0,0.0,1.0,2.0,2.0,637.7680599998712,3.0,1.0,phase_1,,,,,,,,,,,,,blue,hexagon
1320.0,8.0,4.0,1.0,2.0,2.0,406.3501429998268,4.0,1.0,phase_1,,,,,,,,,,,,,green,I
168.0,1.0,0.5,0.0,4.0,4.0,462.2409920000336,4.0,1.0,phase_1,,,,,,,,,,,,,gray,circle
634.0,3.0,2.0,0.0,3.0,3.0,831.837417000088,4.0,1.0,phase_1,,,,,,,,,,,,,cyan,triangle
638.0,3.0,2.0,0.0,4.0,4.0,645.3136530001302,4.0,1.0,phase_1,,,,,,,,,,,,,cyan,triangle
324.0,2.0,1.0,0.0,3.0,3.0,351.6716510000606,4.0,1.0,phase_1,,,,,,,,,,,,,magenta,diamond
0.0,5.0,0.0,1.0,2.0,2.0,470.7574770000065,4.0,1.0,phase_1,,,,,,,,,,,,,orange,cross
0.0,3.0,0.0,0.0,4.0,4.0,657.6063940001404,4.0,1.0,phase_1,,,,,,,,,,,,,cyan,triangle
642.0,7.0,2.0,1.0,2.0,2.0,480.6230890001188,4.0,2.0,phase_1,,,,,,,,,,,,,blue,hexagon
316.0,6.0,1.0,1.0,3.0,3.0,655.7230710000113,4.0,1.0,phase_1,,,,,,,,,,,,,yellow,square
348.0,2.0,1.0,0.0,4.0,4.0,517.1084040000551,4.0,1.0,phase_1,,,,,,,,,,,,,magenta,diamond
640.0,3.0,2.0,0.0,2.0,2.0,498.8807909999195,4.0,1.0,phase_1,,,,,,,,,,,,,cyan,triangle
327.0,2.0,1.0,0.0,2.0,2.0,452.5035589999788,4.0,1.0,phase_1,,,,,,,,,,,,,magenta,diamond
311.0,6.0,1.0,1.0,3.0,3.0,508.3997560000171,4.0,1.0,phase_1,,,,,,,,,,,,,yellow,square
176.0,5.0,0.5,1.0,4.0,4.0,398.2448439999189,4.0,1.0,phase_1,,,,,,,,,,,,,orange,cross
0.0,3.0,0.0,0.0,2.0,2.0,544.1865069999494,4.0,1.0,phase_1,,,,,,,,,,,,,cyan,triangle
647.0,3.0,2.0,0.0,4.0,4.0,408.5202840001329,4.0,1.0,phase_1,,,,,,,,,,,,,cyan,triangle
664.0,7.0,2.0,1.0,4.0,4.0,481.0191259998646,4.0,1.0,phase_1,,,,,,,,,,,,,blue,hexagon
0.0,5.0,0.0,1.0,1.0,1.0,537.0934309999029,4.0,1.0,phase_1,,,,,,,,,,,,,orange,cross
157.0,1.0,0.5,0.0,2.0,2.0,555.9004970000387,4.0,1.0,phase_1,,,,,,,,,,,,,gray,circle
670.0,3.0,2.0,0.0,4.0,4.0,546.7223079999712,4.0,1.0,phase_1,,,,,,,,,,,,,cyan,triangle
646.0,7.0,2.0,1.0,4.0,4.0,407.2122659999877,4.0,1.0,phase_1,,,,,,,,,,,,,blue,hexagon
1298.0,8.0,4.0,1.0,2.0,2.0,388.5782590000417,4.0,1.0,phase_1,,,,,,,,,,,,,green,I
657.0,7.0,2.0,1.0,2.0,2.0,509.37635099990075,4.0,1.0,phase_1,,,,,,,,,,,,,blue,hexagon
0.0,1.0,0.0,0.0,4.0,4.0,464.2844640000021,4.0,1.0,phase_1,,,,,,,,,,,,,gray,circle
338.0,6.0,1.0,1.0,2.0,2.0,425.5161569999472,4.0,1.0,phase_1,,,,,,,,,,,,,yellow,square
333.0,2.0,1.0,0.0,3.0,3.0,492.3430690000714,4.0,1.0,phase_1,,,,,,,,,,,,,magenta,diamond
0.0,8.0,0.0,1.0,2.0,2.0,638.3773080001447,4.0,2.0,phase_1,,,,,,,,,,,,,green,I
176.0,5.0,0.5,1.0,1.0,1.0,526.8062239999836,4.0,1.0,phase_1,,,,,,,,,,,,,orange,cross
644.0,3.0,2.0,0.0,2.0,2.0,554.5698260000336,4.0,1.0,phase_1,,,,,,,,,,,,,cyan,triangle
163.0,5.0,0.5,1.0,1.0,1.0,545.3060739998818,4.0,1.0,phase_1,,,,,,,,,,,,,orange,cross
629.0,3.0,2.0,0.0,1.0,1.0,593.1953379999868,4.0,1.0,phase_1,,,,,,,,,,,,,cyan,triangle
663.0,3.0,2.0,0.0,3.0,3.0,591.8485989998317,4.0,1.0,phase_1,,,,,,,,,,,,,cyan,triangle
1300.0,8.0,4.0,1.0,2.0,2.0,498.8790349998453,4.0,1.0,phase_1,,,,,,,,,,,,,green,I
1300.0,4.0,4.0,0.0,2.0,2.0,462.7220390000275,4.0,1.0,phase_1,,,,,,,,,,,,,white,flipped triangle
664.0,7.0,2.0,1.0,1.0,1.0,732.1982070000104,4.0,1.0,phase_1,,,,,,,,,,,,,blue,hexagon
1303.0,8.0,4.0,1.0,3.0,3.0,380.3092659998128,4.0,1.0,phase_1,,,,,,,,,,,,,green,I
627.0,3.0,2.0,0.0,2.0,2.0,582.3646129999815,4.0,1.0,phase_1,,,,,,,,,,,,,cyan,triangle
656.0,7.0,2.0,1.0,4.0,4.0,527.2649200001069,4.0,1.0,phase_1,,,,,,,,,,,,,blue,hexagon
1299.0,8.0,4.0,1.0,1.0,1.0,565.5054119999932,4.0,1.0,phase_1,,,,,,,,,,,,,green,I
167.0,5.0,0.5,1.0,4.0,4.0,436.1233859999629,4.0,1.0,phase_1,,,,,,,,,,,,,orange,cross
0.0,2.0,0.0,0.0,3.0,3.0,388.3046110001942,4.0,1.0,phase_1,,,,,,,,,,,,,magenta,diamond
343.0,6.0,1.0,1.0,1.0,1.0,444.9008259998663,4.0,1.0,phase_1,,,,,,,,,,,,,yellow,square
633.0,7.0,2.0,1.0,1.0,1.0,425.9952009999779,4.0,1.0,phase_1,,,,,,,,,,,,,blue,hexagon
150.0,5.0,0.5,1.0,2.0,2.0,427.695144999916,4.0,1.0,phase_1,,,,,,,,,,,,,orange,cross
343.0,6.0,1.0,1.0,1.0,1.0,407.9901249999693,4.0,1.0,phase_1,,,,,,,,,,,,,yellow,square
0.0,5.0,0.0,1.0,4.0,4.0,463.2951509997838,4.0,1.0,phase_1,,,,,,,,,,,,,orange,cross
310.0,6.0,1.0,1.0,2.0,2.0,584.3184560001191,4.0,1.0,phase_1,,,,,,,,,,,,,yellow,square
646.0,3.0,2.0,0.0,3.0,3.0,480.6936060003863,4.0,1.0,phase_1,,,,,,,,,,,,,cyan,triangle
318.0,2.0,1.0,0.0,1.0,1.0,610.1385530000698,4.0,1.0,phase_1,,,,,,,,,,,,,magenta,diamond
670.0,3.0,2.0,0.0,4.0,4.0,593.8277570003265,4.0,1.0,phase_1,,,,,,,,,,,,,cyan,triangle
347.0,6.0,1.0,1.0,4.0,4.0,555.9366620000219,4.0,1.0,phase_1,,,,,,,,,,,,,yellow,square
654.0,7.0,2.0,1.0,1.0,1.0,509.3912820002515,4.0,1.0,phase_1,,,,,,,,,,,,,blue,hexagon
1298.0,8.0,4.0,1.0,1.0,1.0,444.1892380000354,4.0,1.0,phase_1,,,,,,,,,,,,,green,I
181.0,1.0,0.5,0.0,4.0,4.0,592.173764999643,4.0,1.0,phase_1,,,,,,,,,,,,,gray,circle
1316.0,8.0,4.0,1.0,1.0,1.0,466.963029999988,4.0,1.0,phase_1,,,,,,,,,,,,,green,I
0.0,4.0,0.0,0.0,4.0,4.0,417.2954710002159,4.0,1.0,phase_1,,,,,,,,,,,,,white,flipped triangle
638.0,7.0,2.0,1.0,1.0,1.0,499.7838460003549,4.0,1.0,phase_1,,,,,,,,,,,,,blue,hexagon
145.0,5.0,0.5,1.0,1.0,1.0,621.1221700000351,4.0,1.0,phase_1,,,,,,,,,,,,,orange,cross
312.0,2.0,1.0,0.0,4.0,4.0,526.7547399998875,4.0,1.0,phase_1,,,,,,,,,,,,,magenta,diamond
153.0,5.0,0.5,1.0,2.0,2.0,434.3937560001905,4.0,1.0,phase_1,,,,,,,,,,,,,orange,cross
0.0,3.0,0.0,0.0,2.0,2.0,443.3512149998933,4.0,1.0,phase_1,,,,,,,,,,,,,cyan,triangle
1309.0,4.0,4.0,0.0,1.0,1.0,571.042887999738,4.0,1.0,phase_1,,,,,,,,,,,,,white,flipped triangle
177.0,1.0,0.5,0.0,3.0,3.0,757.7733490002174,4.0,1.0,phase_1,,,,,,,,,,,,,gray,circle
177.0,5.0,0.5,1.0,2.0,2.0,481.6016419999869,4.0,1.0,phase_1,,,,,,,,,,,,,orange,cross
0.0,1.0,0.0,0.0,2.0,2.0,461.8118329999561,4.0,1.0,phase_1,,,,,,,,,,,,,gray,circle
146.0,1.0,0.5,0.0,4.0,4.0,397.928777999823,4.0,1.0,phase_1,,,,,,,,,,,,,gray,circle
141.0,5.0,0.5,1.0,3.0,3.0,461.7788149998887,4.0,1.0,phase_1,,,,,,,,,,,,,orange,cross
632.0,7.0,2.0,1.0,4.0,4.0,610.1493959999971,4.0,1.0,phase_1,,,,,,,,,,,,,blue,hexagon
0.0,7.0,0.0,1.0,1.0,1.0,584.0999040001407,4.0,1.0,phase_1,,,,,,,,,,,,,blue,hexagon
1303.0,4.0,4.0,0.0,1.0,1.0,776.0372839998126,4.0,1.0,phase_1,,,,,,,,,,,,,white,flipped triangle
654.0,3.0,2.0,0.0,1.0,1.0,498.7526659997456,4.0,1.0,phase_1,,,,,,,,,,,,,cyan,triangle
650.0,7.0,2.0,1.0,4.0,4.0,556.3554579998709,4.0,1.0,phase_1,,,,,,,,,,,,,blue,hexagon
310.0,2.0,1.0,0.0,3.0,3.0,406.6367469999932,4.0,1.0,phase_1,,,,,,,,,,,,,magenta,diamond
0.0,8.0,0.0,1.0,2.0,2.0,491.782535999846,4.0,1.0,phase_1,,,,,,,,,,,,,green,I
0.0,6.0,0.0,1.0,3.0,3.0,628.6361190000207,4.0,1.0,phase_1,,,,,,,,,,,,,yellow,square
163.0,1.0,0.5,0.0,4.0,4.0,572.9672870002105,4.0,1.0,phase_1,,,,,,,,,,,,,gray,circle
346.0,2.0,1.0,0.0,4.0,4.0,444.6706130001985,4.0,1.0,phase_1,,,,,,,,,,,,,magenta,diamond
338.0,2.0,1.0,0.0,2.0,2.0,803.2015890003095,4.0,1.0,phase_1,,,,,,,,,,,,,magenta,diamond
0.0,1.0,0.0,0.0,4.0,4.0,719.1914149998411,4.0,1.0,phase_1,,,,,,,,,,,,,gray,circle
0.0,5.0,0.0,1.0,1.0,1.0,553.9385219999531,4.0,1.0,phase_1,,,,,,,,,,,,,orange,cross
307.0,2.0,1.0,0.0,4.0,4.0,479.7569740003382,4.0,1.0,phase_1,,,,,,,,,,,,,magenta,diamond
149.0,1.0,0.5,0.0,2.0,2.0,831.2534340002458,4.0,1.0,phase_1,,,,,,,,,,,,,gray,circle
314.0,6.0,1.0,1.0,4.0,4.0,527.1160620000046,4.0,1.0,phase_1,,,,,,,,,,,,,yellow,square
0.0,8.0,0.0,1.0,2.0,2.0,526.2258650000149,4.0,1.0,phase_1,,,,,,,,,,,,,green,I
1295.0,8.0,4.0,1.0,4.0,4.0,471.6970869999386,4.0,1.0,phase_1,,,,,,,,,,,,,green,I
1325.0,4.0,4.0,0.0,4.0,4.0,444.2446530001689,4.0,1.0,phase_1,,,,,,,,,,,,,white,flipped triangle
332.0,2.0,1.0,0.0,3.0,3.0,435.0521179999305,4.0,1.0,phase_1,,,,,,,,,,,,,magenta,diamond
0.0,1.0,0.0,0.0,2.0,2.0,473.1133299997054,4.0,1.0,phase_1,,,,,,,,,,,,,gray,circle
646.0,7.0,2.0,1.0,2.0,2.0,398.0919090004136,4.0,1.0,phase_1,,,,,,,,,,,,,blue,hexagon
162.0,5.0,0.5,1.0,4.0,4.0,462.07441200022,4.0,1.0,phase_1,,,,,,,,,,,,,orange,cross
171.0,5.0,0.5,1.0,3.0,3.0,443.0048780000106,4.0,1.0,phase_1,,,,,,,,,,,,,orange,cross
0.0,1.0,0.0,0.0,3.0,3.0,453.1912739998915,4.0,1.0,phase_1,,,,,,,,,,,,,gray,circle
1301.0,8.0,4.0,1.0,1.0,1.0,711.8947750000189,4.0,1.0,phase_1,,,,,,,,,,,,,green,I
140.0,5.0,0.5,1.0,1.0,1.0,508.1822629999806,4.0,1.0,phase_1,,,,,,,,,,,,,orange,cross
1299.0,4.0,4.0,0.0,2.0,2.0,535.7561999999234,4.0,1.0,phase_1,,,,,,,,,,,,,white,flipped triangle
349.0,6.0,1.0,1.0,2.0,2.0,416.0848699998496,4.0,1.0,phase_1,,,,,,,,,,,,,yellow,square
333.0,6.0,1.0,1.0,4.0,4.0,664.7818299998107,4.0,1.0,phase_1,,,,,,,,,,,,,yellow,square
1278.0,4.0,4.0,0.0,1.0,1.0,665.013849999923,4.0,1.0,phase_1,,,,,,,,,,,,,white,flipped triangle
152.0,1.0,0.5,0.0,1.0,1.0,739.872177000052,4.0,1.0,phase_1,,,,,,,,,,,,,gray,circle
1279.0,4.0,4.0,0.0,1.0,1.0,388.2863469998483,4.0,1.0,phase_1,,,,,,,,,,,,,white,flipped triangle
0.0,3.0,2.0,0.0,5.0,5.0,547.9347300001791,1.0,1.0,phase_2,go,250.0,250.0,1.0,,,,,,,,,cyan,triangle
0.0,5.0,0.5,1.0,5.0,5.0,695.86603200014,1.0,1.0,phase_2,stop,250.0,250.0,3.0,,,,,,,,,orange,cross
0.0,5.0,0.5,1.0,5.0,5.0,827.4983109999994,1.0,1.0,phase_2,go,200.0,250.0,1.0,,,,,,,,,orange,cross
0.0,6.0,1.0,1.0,6.0,6.0,305.1785739999104,1.0,1.0,phase_2,stop,200.0,250.0,3.0,,,,,,,,,yellow,square
0.0,6.0,1.0,1.0,6.0,6.0,408.6151340002288,1.0,1.0,phase_2,go,200.0,200.0,1.0,,,,,,,,,yellow,square
0.0,6.0,1.0,1.0,6.0,6.0,438.7102249997952,1.0,1.0,phase_2,stop,200.0,200.0,3.0,,,,,,,,,yellow,square
0.0,5.0,0.5,1.0,5.0,0.0,0.0,1.0,1.0,phase_2,stop,200.0,150.0,4.0,,,,,,,,,orange,cross
0.0,7.0,2.0,1.0,5.0,0.0,0.0,1.0,1.0,phase_2,stop,250.0,150.0,4.0,,,,,,,,,blue,hexagon
0.0,3.0,2.0,0.0,5.0,5.0,732.0503089999875,1.0,1.0,phase_2,go,300.0,150.0,1.0,,,,,,,,,cyan,triangle
0.0,8.0,4.0,1.0,6.0,6.0,366.3309409998874,1.0,1.0,phase_2,stop,300.0,150.0,3.0,,,,,,,,,green,I
0.0,7.0,2.0,1.0,6.0,6.0,537.7220730001682,1.0,1.0,phase_2,go,300.0,100.0,1.0,,,,,,,,,blue,hexagon
0.0,1.0,0.5,0.0,6.0,6.0,528.763458999947,1.0,1.0,phase_2,go,300.0,100.0,1.0,,,,,,,,,gray,circle
0.0,8.0,4.0,1.0,6.0,6.0,299.3220550001751,1.0,1.0,phase_2,stop,300.0,100.0,3.0,,,,,,,,,green,I
0.0,8.0,4.0,1.0,5.0,5.0,343.5873549997268,1.0,1.0,phase_2,stop,300.0,50.0,3.0,,,,,,,,,green,I
0.0,3.0,2.0,0.0,6.0,6.0,437.4334549997911,1.0,1.0,phase_2,go,250.0,50.0,1.0,,,,,,,,,cyan,triangle
0.0,8.0,4.0,1.0,5.0,5.0,447.072315999776,1.0,1.0,phase_2,go,250.0,50.0,1.0,,,,,,,,,green,I
0.0,4.0,4.0,0.0,6.0,6.0,363.3424279996688,1.0,1.0,phase_2,go,250.0,50.0,1.0,,,,,,,,,white,flipped triangle
0.0,5.0,0.5,1.0,5.0,5.0,401.9754650003051,1.0,1.0,phase_2,go,250.0,50.0,1.0,,,,,,,,,orange,cross
0.0,2.0,1.0,0.0,6.0,6.0,288.8549200001762,1.0,1.0,phase_2,go,250.0,50.0,1.0,,,,,,,,,magenta,diamond
0.0,1.0,0.5,0.0,5.0,5.0,347.5133360002473,1.0,1.0,phase_2,go,250.0,50.0,1.0,,,,,,,,,gray,circle
0.0,6.0,1.0,1.0,6.0,6.0,278.9666699995905,1.0,1.0,phase_2,stop,250.0,50.0,3.0,,,,,,,,,yellow,square
0.0,5.0,0.5,1.0,5.0,5.0,450.8524510001734,1.0,1.0,phase_2,stop,250.0,0.0,3.0,,,,,,,,,orange,cross
0.0,8.0,4.0,1.0,5.0,5.0,437.7866119998543,1.0,1.0,phase_2,go,200.0,0.0,1.0,,,,,,,,,green,I
0.0,8.0,4.0,1.0,5.0,5.0,400.0615229997493,1.0,1.0,phase_2,stop,200.0,0.0,3.0,,,,,,,,,green,I
0.0,8.0,4.0,1.0,5.0,5.0,576.2374999999338,1.0,1.0,phase_2,go,150.0,0.0,1.0,,,,,,,,,green,I
0.0,6.0,1.0,1.0,6.0,0.0,0.0,1.0,1.0,phase_2,stop,150.0,0.0,4.0,,,,,,,,,yellow,square
0.0,5.0,0.5,1.0,6.0,6.0,588.2904940003755,1.0,1.0,phase_2,stop,150.0,50.0,3.0,,,,,,,,,orange,cross
0.0,8.0,4.0,1.0,5.0,0.0,0.0,1.0,1.0,phase_2,stop,150.0,0.0,4.0,,,,,,,,,green,I
0.0,3.0,2.0,0.0,6.0,6.0,474.4832289998157,1.0,1.0,phase_2,go,200.0,0.0,1.0,,,,,,,,,cyan,triangle
0.0,7.0,2.0,1.0,6.0,0.0,0.0,1.0,1.0,phase_2,stop,200.0,0.0,4.0,,,,,,,,,blue,hexagon
0.0,7.0,2.0,1.0,6.0,0.0,0.0,1.0,1.0,phase_2,stop,200.0,50.0,4.0,,,,,,,,,blue,hexagon
0.0,4.0,4.0,0.0,6.0,6.0,558.429631999843,1.0,1.0,phase_2,go,200.0,100.0,1.0,,,,,,,,,white,flipped triangle
0.0,4.0,4.0,0.0,5.0,5.0,428.5558579999815,1.0,1.0,phase_2,go,200.0,100.0,1.0,,,,,,,,,white,flipped triangle
0.0,4.0,4.0,0.0,5.0,5.0,473.3931920000032,1.0,1.0,phase_2,go,200.0,100.0,1.0,,,,,,,,,white,flipped triangle
0.0,5.0,0.5,1.0,5.0,5.0,429.3634069999825,1.0,1.0,phase_2,stop,200.0,100.0,3.0,,,,,,,,,orange,cross
0.0,2.0,1.0,0.0,5.0,5.0,668.9298320002308,1.0,1.0,phase_2,go,150.0,100.0,1.0,,,,,,,,,magenta,diamond
0.0,4.0,4.0,0.0,6.0,6.0,529.4928839998647,2.0,1.0,phase_2,go,150.0,100.0,1.0,,,,,,,,,white,flipped triangle
0.0,3.0,2.0,0.0,5.0,5.0,521.5493820001029,2.0,1.0,phase_2,go,150.0,100.0,1.0,,,,,,,,,cyan,triangle
0.0,6.0,1.0,1.0,5.0,0.0,0.0,2.0,1.0,phase_2,stop,150.0,100.0,4.0,,,,,,,,,yellow,square
0.0,2.0,1.0,0.0,5.0,5.0,512.7085740000439,2.0,1.0,phase_2,go,200.0,100.0,1.0,,,,,,,,,magenta,diamond
0.0,5.0,0.5,1.0,6.0,0.0,0.0,2.0,1.0,phase_2,stop,200.0,100.0,4.0,,,,,,,,,orange,cross
0.0,7.0,2.0,1.0,5.0,5.0,423.09067399992267,2.0,1.0,phase_2,stop,200.0,150.0,3.0,,,,,,,,,blue,hexagon
0.0,4.0,4.0,0.0,5.0,5.0,548.4017080002559,2.0,1.0,phase_2,go,150.0,150.0,1.0,,,,,,,,,white,flipped triangle
0.0,7.0,2.0,1.0,6.0,6.0,485.2148790000683,2.0,1.0,phase_2,go,150.0,150.0,1.0,,,,,,,,,blue,hexagon
0.0,6.0,1.0,1.0,5.0,0.0,0.0,2.0,1.0,phase_2,stop,150.0,150.0,4.0,,,,,,,,,yellow,square
0.0,8.0,4.0,1.0,6.0,6.0,502.4365629997192,2.0,1.0,phase_2,go,200.0,150.0,1.0,,,,,,,,,green,I
0.0,8.0,4.0,1.0,5.0,5.0,395.5125289999159,2.0,1.0,phase_2,stop,200.0,150.0,3.0,,,,,,,,,green,I
0.0,8.0,4.0,1.0,5.0,5.0,540.0195430001986,2.0,1.0,phase_2,go,150.0,150.0,1.0,,,,,,,,,green,I
0.0,4.0,4.0,0.0,5.0,5.0,528.8553149998734,2.0,1.0,phase_2,go,150.0,150.0,1.0,,,,,,,,,white,flipped triangle
0.0,3.0,2.0,0.0,6.0,6.0,519.6722850000697,2.0,1.0,phase_2,go,150.0,150.0,1.0,,,,,,,,,cyan,triangle
0.0,3.0,2.0,0.0,6.0,6.0,520.9174679998796,2.0,1.0,phase_2,go,150.0,150.0,1.0,,,,,,,,,cyan,triangle
0.0,1.0,0.5,0.0,6.0,6.0,445.0001739996878,2.0,1.0,phase_2,go,150.0,150.0,1.0,,,,,,,,,gray,circle
0.0,5.0,0.5,1.0,6.0,6.0,384.3336150002869,2.0,1.0,phase_2,stop,150.0,150.0,3.0,,,,,,,,,orange,cross
0.0,2.0,1.0,0.0,6.0,6.0,547.4762979997649,2.0,1.0,phase_2,go,150.0,100.0,1.0,,,,,,,,,magenta,diamond
0.0,1.0,0.5,0.0,6.0,6.0,520.7088080001085,2.0,1.0,phase_2,go,150.0,100.0,1.0,,,,,,,,,gray,circle
0.0,6.0,1.0,1.0,6.0,6.0,354.2194460001155,2.0,1.0,phase_2,stop,150.0,100.0,3.0,,,,,,,,,yellow,square
0.0,4.0,4.0,0.0,5.0,5.0,511.9954450001387,2.0,1.0,phase_2,go,150.0,50.0,1.0,,,,,,,,,white,flipped triangle
0.0,5.0,0.5,1.0,6.0,0.0,0.0,2.0,1.0,phase_2,stop,150.0,50.0,4.0,,,,,,,,,orange,cross
0.0,4.0,4.0,0.0,5.0,5.0,491.454536999754,2.0,1.0,phase_2,go,150.0,100.0,1.0,,,,,,,,,white,flipped triangle
0.0,8.0,4.0,1.0,6.0,0.0,0.0,2.0,1.0,phase_2,stop,150.0,100.0,4.0,,,,,,,,,green,I
0.0,2.0,1.0,0.0,5.0,5.0,445.5052759999489,2.0,1.0,phase_2,go,150.0,150.0,1.0,,,,,,,,,magenta,diamond
0.0,7.0,2.0,1.0,5.0,0.0,0.0,2.0,1.0,phase_2,stop,150.0,150.0,4.0,,,,,,,,,blue,hexagon
0.0,6.0,1.0,1.0,6.0,0.0,0.0,2.0,1.0,phase_2,stop,200.0,150.0,4.0,,,,,,,,,yellow,square
0.0,3.0,2.0,0.0,5.0,5.0,455.9400349999123,2.0,1.0,phase_2,go,200.0,200.0,1.0,,,,,,,,,cyan,triangle
0.0,4.0,4.0,0.0,6.0,6.0,465.9551489999103,2.0,1.0,phase_2,go,200.0,200.0,1.0,,,,,,,,,white,flipped triangle
0.0,2.0,1.0,0.0,6.0,6.0,500.8424769998783,2.0,1.0,phase_2,go,200.0,200.0,1.0,,,,,,,,,magenta,diamond
0.0,8.0,4.0,1.0,6.0,0.0,0.0,2.0,1.0,phase_2,stop,200.0,200.0,4.0,,,,,,,,,green,I
0.0,6.0,1.0,1.0,5.0,5.0,557.3333269999239,2.0,1.0,phase_2,go,200.0,250.0,1.0,,,,,,,,,yellow,square
0.0,6.0,1.0,1.0,5.0,0.0,0.0,2.0,1.0,phase_2,stop,200.0,250.0,4.0,,,,,,,,,yellow,square
0.0,4.0,4.0,0.0,5.0,5.0,558.3237260002534,2.0,1.0,phase_2,go,250.0,250.0,1.0,,,,,,,,,white,flipped triangle
0.0,5.0,0.5,1.0,5.0,0.0,0.0,2.0,1.0,phase_2,stop,250.0,250.0,4.0,,,,,,,,,orange,cross
0.0,5.0,0.5,1.0,5.0,5.0,659.8950200000218,2.0,1.0,phase_2,go,300.0,250.0,1.0,,,,,,,,,orange,cross
0.0,4.0,4.0,0.0,5.0,5.0,762.7801270000418,3.0,1.0,phase_2,go,300.0,250.0,1.0,,,,,,,,,white,flipped triangle
0.0,8.0,4.0,1.0,6.0,0.0,0.0,3.0,1.0,phase_2,stop,300.0,250.0,4.0,,,,,,,,,green,I
0.0,3.0,2.0,0.0,6.0,6.0,605.4573390001678,3.0,1.0,phase_2,go,300.0,300.0,1.0,,,,,,,,,cyan,triangle
0.0,5.0,0.5,1.0,5.0,5.0,430.0487740001699,3.0,1.0,phase_2,go,300.0,300.0,1.0,,,,,,,,,orange,cross
0.0,6.0,1.0,1.0,5.0,0.0,0.0,3.0,1.0,phase_2,stop,300.0,300.0,4.0,,,,,,,,,yellow,square
0.0,7.0,2.0,1.0,6.0,0.0,0.0,3.0,1.0,phase_2,stop,350.0,300.0,4.0,,,,,,,,,blue,hexagon
0.0,6.0,1.0,1.0,6.0,6.0,474.2271449999862,3.0,1.0,phase_2,go,350.0,350.0,1.0,,,,,,,,,yellow,square
0.0,4.0,4.0,0.0,6.0,6.0,577.768825000021,3.0,1.0,phase_2,go,350.0,350.0,1.0,,,,,,,,,white,flipped triangle
0.0,1.0,0.5,0.0,5.0,5.0,586.5362380000079,3.0,1.0,phase_2,go,350.0,350.0,1.0,,,,,,,,,gray,circle
0.0,6.0,1.0,1.0,5.0,0.0,0.0,3.0,1.0,phase_2,stop,350.0,350.0,4.0,,,,,,,,,yellow,square
0.0,7.0,2.0,1.0,5.0,5.0,512.4977770001351,3.0,1.0,phase_2,stop,400.0,350.0,3.0,,,,,,,,,blue,hexagon
0.0,2.0,1.0,0.0,5.0,5.0,658.8502640001934,3.0,1.0,phase_2,go,350.0,350.0,1.0,,,,,,,,,magenta,diamond
0.0,3.0,2.0,0.0,6.0,6.0,594.948370000111,3.0,1.0,phase_2,go,350.0,350.0,1.0,,,,,,,,,cyan,triangle
0.0,4.0,4.0,0.0,6.0,6.0,595.3721330001827,3.0,1.0,phase_2,go,350.0,350.0,1.0,,,,,,,,,white,flipped triangle
0.0,2.0,1.0,0.0,6.0,6.0,344.6956909997425,3.0,1.0,phase_2,go,350.0,350.0,1.0,,,,,,,,,magenta,diamond
0.0,1.0,0.5,0.0,5.0,5.0,420.7271380000748,3.0,1.0,phase_2,go,350.0,350.0,1.0,,,,,,,,,gray,circle
0.0,7.0,2.0,1.0,5.0,5.0,534.7455040000568,3.0,1.0,phase_2,stop,350.0,350.0,3.0,,,,,,,,,blue,hexagon
0.0,4.0,4.0,0.0,6.0,6.0,354.1799149998041,3.0,1.0,phase_2,go,300.0,350.0,1.0,,,,,,,,,white,flipped triangle
0.0,1.0,0.5,0.0,6.0,6.0,548.9403619999393,3.0,1.0,phase_2,go,300.0,350.0,1.0,,,,,,,,,gray,circle
0.0,1.0,0.5,0.0,6.0,6.0,520.7391740000276,3.0,1.0,phase_2,go,300.0,350.0,1.0,,,,,,,,,gray,circle
0.0,8.0,4.0,1.0,6.0,6.0,449.2297510000753,3.0,1.0,phase_2,stop,300.0,350.0,3.0,,,,,,,,,green,I
0.0,6.0,1.0,1.0,6.0,6.0,435.47197900034,3.0,1.0,phase_2,stop,300.0,300.0,3.0,,,,,,,,,yellow,square
0.0,4.0,4.0,0.0,6.0,6.0,705.743911999889,3.0,1.0,phase_2,go,300.0,250.0,1.0,,,,,,,,,white,flipped triangle
0.0,4.0,4.0,0.0,5.0,5.0,511.7652469998575,3.0,1.0,phase_2,go,300.0,250.0,1.0,,,,,,,,,white,flipped triangle
0.0,7.0,2.0,1.0,5.0,0.0,0.0,3.0,1.0,phase_2,stop,300.0,250.0,4.0,,,,,,,,,blue,hexagon
0.0,1.0,0.5,0.0,5.0,5.0,594.7455170003195,3.0,1.0,phase_2,go,350.0,250.0,1.0,,,,,,,,,gray,circle
0.0,6.0,1.0,1.0,5.0,5.0,454.337821000081,3.0,1.0,phase_2,stop,350.0,250.0,3.0,,,,,,,,,yellow,square
0.0,7.0,2.0,1.0,5.0,0.0,0.0,3.0,1.0,phase_2,stop,300.0,250.0,4.0,,,,,,,,,blue,hexagon
0.0,4.0,4.0,0.0,6.0,6.0,559.4437300001118,3.0,1.0,phase_2,go,350.0,250.0,1.0,,,,,,,,,white,flipped triangle
0.0,2.0,1.0,0.0,6.0,6.0,584.8556020000615,3.0,1.0,phase_2,go,350.0,250.0,1.0,,,,,,,,,magenta,diamond
0.0,4.0,4.0,0.0,6.0,6.0,559.0501279998534,3.0,1.0,phase_2,go,350.0,250.0,1.0,,,,,,,,,white,flipped triangle
0.0,7.0,2.0,1.0,5.0,5.0,511.40340899974035,3.0,1.0,phase_2,stop,350.0,250.0,3.0,,,,,,,,,blue,hexagon
0.0,8.0,4.0,1.0,6.0,6.0,477.9782059999888,3.0,1.0,phase_2,stop,300.0,250.0,3.0,,,,,,,,,green,I
0.0,4.0,4.0,0.0,6.0,6.0,733.5667279999143,3.0,1.0,phase_2,go,300.0,200.0,1.0,,,,,,,,,white,flipped triangle
0.0,1.0,0.5,0.0,5.0,5.0,515.1711250000517,3.0,1.0,phase_2,go,300.0,200.0,1.0,,,,,,,,,gray,circle
0.0,2.0,1.0,0.0,5.0,5.0,467.0820639998965,3.0,1.0,phase_2,go,300.0,200.0,1.0,,,,,,,,,magenta,diamond
0.0,4.0,4.0,0.0,6.0,6.0,848.7432749998334,4.0,1.0,phase_2,go,300.0,200.0,1.0,,,,,,,,,white,flipped triangle
0.0,2.0,1.0,0.0,5.0,5.0,717.6223439996647,4.0,1.0,phase_2,go,300.0,200.0,1.0,,,,,,,,,magenta,diamond
0.0,6.0,1.0,1.0,6.0,0.0,0.0,4.0,1.0,phase_2,stop,300.0,200.0,4.0,,,,,,,,,yellow,square
0.0,5.0,0.5,1.0,6.0,6.0,653.2364680001592,4.0,1.0,phase_2,go,300.0,250.0,1.0,,,,,,,,,orange,cross
0.0,8.0,4.0,1.0,6.0,0.0,0.0,4.0,1.0,phase_2,stop,300.0,250.0,4.0,,,,,,,,,green,I
0.0,7.0,2.0,1.0,6.0,0.0,0.0,4.0,1.0,phase_2,stop,300.0,300.0,4.0,,,,,,,,,blue,hexagon
0.0,7.0,2.0,1.0,6.0,6.0,654.9604490001002,4.0,1.0,phase_2,go,300.0,350.0,1.0,,,,,,,,,blue,hexagon
0.0,6.0,1.0,1.0,6.0,6.0,617.9008680001061,4.0,1.0,phase_2,stop,300.0,350.0,3.0,,,,,,,,,yellow,square
0.0,4.0,4.0,0.0,6.0,6.0,615.4752339998595,4.0,1.0,phase_2,go,300.0,300.0,1.0,,,,,,,,,white,flipped triangle
0.0,8.0,4.0,1.0,6.0,6.0,485.8714530000725,4.0,1.0,phase_2,stop,300.0,300.0,3.0,,,,,,,,,green,I
0.0,5.0,0.5,1.0,6.0,0.0,0.0,4.0,1.0,phase_2,stop,300.0,250.0,4.0,,,,,,,,,orange,cross
0.0,7.0,2.0,1.0,5.0,0.0,0.0,4.0,1.0,phase_2,stop,300.0,300.0,4.0,,,,,,,,,blue,hexagon
0.0,3.0,2.0,0.0,5.0,5.0,605.241825000121,4.0,1.0,phase_2,go,350.0,300.0,1.0,,,,,,,,,cyan,triangle
0.0,7.0,2.0,1.0,6.0,6.0,561.8931260000863,4.0,1.0,phase_2,go,350.0,300.0,1.0,,,,,,,,,blue,hexagon
0.0,5.0,0.5,1.0,6.0,6.0,361.1184080000384,4.0,1.0,phase_2,stop,350.0,300.0,3.0,,,,,,,,,orange,cross
0.0,4.0,4.0,0.0,5.0,5.0,551.2650370001211,4.0,1.0,phase_2,go,350.0,250.0,1.0,,,,,,,,,white,flipped triangle
0.0,5.0,0.5,1.0,5.0,5.0,411.3088270000844,4.0,1.0,phase_2,stop,350.0,250.0,3.0,,,,,,,,,orange,cross
0.0,7.0,2.0,1.0,5.0,5.0,427.288752000095,4.0,1.0,phase_2,stop,300.0,250.0,3.0,,,,,,,,,blue,hexagon
0.0,5.0,0.5,1.0,6.0,6.0,477.5313680002,4.0,1.0,phase_2,stop,250.0,250.0,3.0,,,,,,,,,orange,cross
0.0,4.0,4.0,0.0,6.0,6.0,605.7560109998121,4.0,1.0,phase_2,go,250.0,200.0,1.0,,,,,,,,,white,flipped triangle
0.0,3.0,2.0,0.0,5.0,5.0,587.9702729998826,4.0,1.0,phase_2,go,250.0,200.0,1.0,,,,,,,,,cyan,triangle
0.0,8.0,4.0,1.0,5.0,0.0,0.0,4.0,1.0,phase_2,stop,250.0,200.0,4.0,,,,,,,,,green,I
0.0,5.0,0.5,1.0,5.0,5.0,699.676257000192,4.0,1.0,phase_2,go,300.0,200.0,1.0,,,,,,,,,orange,cross
0.0,1.0,0.5,0.0,5.0,5.0,680.356963000122,4.0,1.0,phase_2,go,300.0,200.0,1.0,,,,,,,,,gray,circle
0.0,6.0,1.0,1.0,5.0,5.0,424.1793350001899,4.0,1.0,phase_2,stop,300.0,200.0,3.0,,,,,,,,,yellow,square
0.0,6.0,1.0,1.0,5.0,0.0,0.0,4.0,1.0,phase_2,stop,250.0,200.0,4.0,,,,,,,,,yellow,square
0.0,1.0,0.5,0.0,6.0,6.0,606.2949689999186,4.0,1.0,phase_2,go,300.0,200.0,1.0,,,,,,,,,gray,circle
0.0,7.0,2.0,1.0,5.0,5.0,580.0533189999442,4.0,1.0,phase_2,go,300.0,200.0,1.0,,,,,,,,,blue,hexagon
0.0,5.0,0.5,1.0,5.0,5.0,423.2372169999507,4.0,1.0,phase_2,stop,300.0,200.0,3.0,,,,,,,,,orange,cross
0.0,8.0,4.0,1.0,5.0,5.0,499.1738359999544,4.0,1.0,phase_2,stop,250.0,200.0,3.0,,,,,,,,,green,I
0.0,1.0,0.5,0.0,5.0,5.0,568.6476890000449,4.0,1.0,phase_2,go,200.0,200.0,1.0,,,,,,,,,gray,circle
0.0,1.0,0.5,0.0,6.0,6.0,578.6509889999252,4.0,1.0,phase_2,go,200.0,200.0,1.0,,,,,,,,,gray,circle
0.0,2.0,1.0,0.0,6.0,6.0,570.6203099998675,4.0,1.0,phase_2,go,200.0,200.0,1.0,,,,,,,,,magenta,diamond
0.0,7.0,2.0,1.0,6.0,0.0,0.0,4.0,1.0,phase_2,stop,200.0,200.0,4.0,,,,,,,,,blue,hexagon
0.0,1.0,0.5,0.0,6.0,6.0,569.9407880001672,4.0,1.0,phase_2,go,200.0,250.0,1.0,,,,,,,,,gray,circle
0.0,1.0,0.5,0.0,5.0,5.0,577.5723669999024,4.0,1.0,phase_2,go,200.0,250.0,1.0,,,,,,,,,gray,circle
0.0,3.0,2.0,0.0,6.0,6.0,755.8444179999242,5.0,1.0,phase_2,go,200.0,250.0,1.0,,,,,,,,,cyan,triangle
0.0,8.0,4.0,1.0,6.0,0.0,0.0,5.0,1.0,phase_2,stop,200.0,250.0,4.0,,,,,,,,,green,I
0.0,3.0,2.0,0.0,6.0,6.0,588.1671219999589,5.0,1.0,phase_2,go,200.0,300.0,1.0,,,,,,,,,cyan,triangle
0.0,8.0,4.0,1.0,5.0,0.0,0.0,5.0,1.0,phase_2,stop,200.0,300.0,4.0,,,,,,,,,green,I
0.0,3.0,2.0,0.0,5.0,5.0,504.2931430002682,5.0,1.0,phase_2,go,250.0,300.0,1.0,,,,,,,,,cyan,triangle
0.0,7.0,2.0,1.0,6.0,6.0,514.3106979999175,5.0,1.0,phase_2,stop,250.0,300.0,3.0,,,,,,,,,blue,hexagon
0.0,5.0,0.5,1.0,5.0,0.0,0.0,5.0,1.0,phase_2,stop,250.0,250.0,4.0,,,,,,,,,orange,cross
0.0,3.0,2.0,0.0,5.0,5.0,634.3646850000368,5.0,1.0,phase_2,go,300.0,250.0,1.0,,,,,,,,,cyan,triangle
0.0,5.0,0.5,1.0,6.0,0.0,0.0,5.0,1.0,phase_2,stop,300.0,250.0,4.0,,,,,,,,,orange,cross
0.0,7.0,2.0,1.0,6.0,6.0,606.1292500003219,5.0,1.0,phase_2,go,300.0,300.0,1.0,,,,,,,,,blue,hexagon
0.0,5.0,0.5,1.0,6.0,6.0,498.1941579999329,5.0,1.0,phase_2,stop,300.0,300.0,3.0,,,,,,,,,orange,cross
0.0,2.0,1.0,0.0,5.0,5.0,533.9245560003292,5.0,1.0,phase_2,go,300.0,250.0,1.0,,,,,,,,,magenta,diamond
0.0,1.0,0.5,0.0,6.0,6.0,539.99666899972,5.0,1.0,phase_2,go,300.0,250.0,1.0,,,,,,,,,gray,circle
0.0,3.0,2.0,0.0,5.0,5.0,626.6589620004197,5.0,1.0,phase_2,go,300.0,250.0,1.0,,,,,,,,,cyan,triangle
0.0,6.0,1.0,1.0,5.0,5.0,839.0688709996539,5.0,1.0,phase_2,go,300.0,250.0,1.0,,,,,,,,,yellow,square
0.0,8.0,4.0,1.0,6.0,6.0,377.6760700002342,5.0,1.0,phase_2,stop,300.0,250.0,3.0,,,,,,,,,green,I
0.0,2.0,1.0,0.0,5.0,5.0,540.1056109999445,5.0,1.0,phase_2,go,300.0,200.0,1.0,,,,,,,,,magenta,diamond
0.0,7.0,2.0,1.0,6.0,6.0,478.8426850000178,5.0,1.0,phase_2,stop,300.0,200.0,3.0,,,,,,,,,blue,hexagon
0.0,1.0,0.5,0.0,6.0,6.0,476.9218520000322,5.0,1.0,phase_2,go,300.0,150.0,1.0,,,,,,,,,gray,circle
0.0,6.0,1.0,1.0,5.0,5.0,495.4377979997844,5.0,1.0,phase_2,stop,300.0,150.0,3.0,,,,,,,,,yellow,square
0.0,2.0,1.0,0.0,6.0,6.0,532.5015459998212,5.0,1.0,phase_2,go,250.0,150.0,1.0,,,,,,,,,magenta,diamond
0.0,1.0,0.5,0.0,5.0,5.0,558.2628950000981,5.0,1.0,phase_2,go,250.0,150.0,1.0,,,,,,,,,gray,circle
0.0,8.0,4.0,1.0,6.0,6.0,363.269837000189,5.0,1.0,phase_2,stop,250.0,150.0,3.0,,,,,,,,,green,I
0.0,3.0,2.0,0.0,6.0,6.0,710.1373830000739,5.0,1.0,phase_2,go,250.0,100.0,1.0,,,,,,,,,cyan,triangle
0.0,2.0,1.0,0.0,5.0,5.0,598.0647899996256,5.0,1.0,phase_2,go,250.0,100.0,1.0,,,,,,,,,magenta,diamond
0.0,3.0,2.0,0.0,6.0,6.0,672.7484889997868,5.0,1.0,phase_2,go,250.0,100.0,1.0,,,,,,,,,cyan,triangle
0.0,7.0,2.0,1.0,6.0,6.0,420.0177630000326,5.0,1.0,phase_2,go,250.0,100.0,1.0,,,,,,,,,blue,hexagon
0.0,6.0,1.0,1.0,6.0,6.0,626.9038479999836,5.0,1.0,phase_2,go,250.0,100.0,1.0,,,,,,,,,yellow,square
0.0,8.0,4.0,1.0,5.0,5.0,451.9494500000292,5.0,1.0,phase_2,stop,250.0,100.0,3.0,,,,,,,,,green,I
0.0,5.0,0.5,1.0,5.0,5.0,551.2778769998476,5.0,1.0,phase_2,go,200.0,100.0,1.0,,,,,,,,,orange,cross
0.0,4.0,4.0,0.0,5.0,5.0,568.45030400018,5.0,1.0,phase_2,go,200.0,100.0,1.0,,,,,,,,,white,flipped triangle
0.0,3.0,2.0,0.0,6.0,6.0,514.6364469997025,5.0,1.0,phase_2,go,200.0,100.0,1.0,,,,,,,,,cyan,triangle
0.0,7.0,2.0,1.0,5.0,0.0,0.0,5.0,1.0,phase_2,stop,200.0,100.0,4.0,,,,,,,,,blue,hexagon
0.0,2.0,1.0,0.0,5.0,5.0,608.2609320001211,5.0,1.0,phase_2,go,250.0,100.0,1.0,,,,,,,,,magenta,diamond
0.0,5.0,0.5,1.0,6.0,6.0,710.8943389998785,5.0,1.0,phase_2,go,250.0,100.0,1.0,,,,,,,,,orange,cross
0.0,3.0,2.0,0.0,6.0,6.0,699.9453990001712,5.0,1.0,phase_2,go,250.0,100.0,1.0,,,,,,,,,cyan,triangle
0.0,1.0,0.5,0.0,6.0,6.0,653.9819709996664,6.0,1.0,phase_2,go,250.0,100.0,1.0,,,,,,,,,gray,circle
0.0,8.0,4.0,1.0,5.0,0.0,0.0,6.0,1.0,phase_2,stop,250.0,100.0,4.0,,,,,,,,,green,I
0.0,1.0,0.5,0.0,5.0,5.0,484.9090370003068,6.0,1.0,phase_2,go,300.0,100.0,1.0,,,,,,,,,gray,circle
0.0,7.0,2.0,1.0,5.0,0.0,0.0,6.0,1.0,phase_2,stop,300.0,100.0,4.0,,,,,,,,,blue,hexagon
0.0,6.0,1.0,1.0,5.0,5.0,551.5663440000935,6.0,1.0,phase_2,go,350.0,100.0,1.0,,,,,,,,,yellow,square
0.0,3.0,2.0,0.0,6.0,6.0,532.4597509998057,6.0,1.0,phase_2,go,350.0,100.0,1.0,,,,,,,,,cyan,triangle
0.0,5.0,0.5,1.0,5.0,5.0,631.9150819999777,6.0,1.0,phase_2,stop,350.0,100.0,3.0,,,,,,,,,orange,cross
0.0,6.0,1.0,1.0,5.0,0.0,0.0,6.0,1.0,phase_2,stop,300.0,100.0,4.0,,,,,,,,,yellow,square
0.0,3.0,2.0,0.0,5.0,5.0,615.5601289997321,6.0,1.0,phase_2,go,350.0,100.0,1.0,,,,,,,,,cyan,triangle
0.0,8.0,4.0,1.0,5.0,0.0,0.0,6.0,1.0,phase_2,stop,350.0,100.0,4.0,,,,,,,,,green,I
0.0,2.0,1.0,0.0,6.0,6.0,521.3193810000121,6.0,1.0,phase_2,go,400.0,100.0,1.0,,,,,,,,,magenta,diamond
0.0,3.0,2.0,0.0,5.0,5.0,550.2801880002153,6.0,1.0,phase_2,go,400.0,100.0,1.0,,,,,,,,,cyan,triangle
0.0,1.0,0.5,0.0,6.0,6.0,495.5730229999062,6.0,1.0,phase_2,go,400.0,100.0,1.0,,,,,,,,,gray,circle
0.0,3.0,2.0,0.0,6.0,6.0,616.5699200000745,6.0,1.0,phase_2,go,400.0,100.0,1.0,,,,,,,,,cyan,triangle
0.0,1.0,0.5,0.0,5.0,5.0,512.9782510002769,6.0,1.0,phase_2,go,400.0,100.0,1.0,,,,,,,,,gray,circle
0.0,8.0,4.0,1.0,6.0,0.0,0.0,6.0,1.0,phase_2,stop,400.0,100.0,4.0,,,,,,,,,green,I
0.0,8.0,4.0,1.0,6.0,0.0,0.0,6.0,1.0,phase_2,stop,400.0,150.0,4.0,,,,,,,,,green,I
0.0,1.0,0.5,0.0,5.0,5.0,596.5286720002041,6.0,1.0,phase_2,go,400.0,200.0,1.0,,,,,,,,,gray,circle
0.0,6.0,1.0,1.0,6.0,6.0,788.3727029998226,6.0,1.0,phase_2,stop,400.0,200.0,3.0,,,,,,,,,yellow,square
0.0,2.0,1.0,0.0,6.0,6.0,595.0611240000399,6.0,1.0,phase_2,go,400.0,150.0,1.0,,,,,,,,,magenta,diamond
0.0,2.0,1.0,0.0,6.0,6.0,569.487965999997,6.0,1.0,phase_2,go,400.0,150.0,1.0,,,,,,,,,magenta,diamond
0.0,4.0,4.0,0.0,6.0,6.0,625.9959889998754,6.0,1.0,phase_2,go,400.0,150.0,1.0,,,,,,,,,white,flipped triangle
0.0,1.0,0.5,0.0,6.0,6.0,445.348112999909,6.0,1.0,phase_2,go,400.0,150.0,1.0,,,,,,,,,gray,circle
0.0,8.0,4.0,1.0,6.0,6.0,801.4404589998776,6.0,1.0,phase_2,go,400.0,150.0,1.0,,,,,,,,,green,I
0.0,2.0,1.0,0.0,6.0,6.0,569.6232979998967,6.0,1.0,phase_2,go,400.0,150.0,1.0,,,,,,,,,magenta,diamond
0.0,8.0,4.0,1.0,5.0,5.0,814.3146679999518,6.0,1.0,phase_2,stop,400.0,150.0,3.0,,,,,,,,,green,I
0.0,4.0,4.0,0.0,5.0,5.0,550.3477329998532,6.0,1.0,phase_2,go,350.0,150.0,1.0,,,,,,,,,white,flipped triangle
0.0,5.0,0.5,1.0,5.0,0.0,0.0,6.0,1.0,phase_2,stop,350.0,150.0,4.0,,,,,,,,,orange,cross
0.0,6.0,1.0,1.0,5.0,5.0,653.8117380000585,6.0,1.0,phase_2,go,400.0,150.0,1.0,,,,,,,,,yellow,square
0.0,8.0,4.0,1.0,5.0,0.0,0.0,6.0,1.0,phase_2,stop,400.0,150.0,4.0,,,,,,,,,green,I
0.0,7.0,2.0,1.0,5.0,0.0,0.0,6.0,1.0,phase_2,stop,450.0,150.0,4.0,,,,,,,,,blue,hexagon
0.0,5.0,0.5,1.0,6.0,0.0,0.0,6.0,1.0,phase_2,stop,500.0,150.0,4.0,,,,,,,,,orange,cross
0.0,2.0,1.0,0.0,5.0,5.0,625.9053899998435,6.0,1.0,phase_2,go,500.0,200.0,1.0,,,,,,,,,magenta,diamond
0.0,5.0,0.5,1.0,5.0,0.0,0.0,6.0,1.0,phase_2,stop,500.0,200.0,4.0,,,,,,,,,orange,cross
0.0,6.0,1.0,1.0,6.0,0.0,0.0,6.0,1.0,phase_2,stop,550.0,200.0,4.0,,,,,,,,,yellow,square
0.0,6.0,1.0,1.0,6.0,0.0,0.0,6.0,1.0,phase_2,stop,550.0,250.0,4.0,,,,,,,,,yellow,square
0.0,2.0,1.0,0.0,6.0,6.0,809.8410390002755,7.0,1.0,phase_2,go,550.0,300.0,1.0,,,,,,,,,magenta,diamond
0.0,7.0,2.0,1.0,6.0,0.0,0.0,7.0,1.0,phase_2,stop,550.0,300.0,4.0,,,,,,,,,blue,hexagon
0.0,3.0,2.0,0.0,6.0,6.0,716.8328249999831,7.0,1.0,phase_2,go,550.0,350.0,1.0,,,,,,,,,cyan,triangle
0.0,6.0,1.0,1.0,5.0,5.0,801.2870960001237,7.0,1.0,phase_2,go,550.0,350.0,1.0,,,,,,,,,yellow,square
0.0,6.0,1.0,1.0,6.0,6.0,530.4671240000971,7.0,1.0,phase_2,stop,550.0,350.0,3.0,,,,,,,,,yellow,square
0.0,7.0,2.0,1.0,5.0,5.0,548.2519809997939,7.0,1.0,phase_2,stop,550.0,300.0,3.0,,,,,,,,,blue,hexagon
0.0,6.0,1.0,1.0,5.0,0.0,0.0,7.0,1.0,phase_2,stop,500.0,300.0,4.0,,,,,,,,,yellow,square
0.0,3.0,2.0,0.0,6.0,6.0,596.0179050002807,7.0,1.0,phase_2,go,550.0,300.0,1.0,,,,,,,,,cyan,triangle
0.0,5.0,0.5,1.0,6.0,0.0,0.0,7.0,1.0,phase_2,stop,550.0,300.0,4.0,,,,,,,,,orange,cross
0.0,8.0,4.0,1.0,6.0,6.0,862.5001999998858,7.0,1.0,phase_2,go,550.0,350.0,1.0,,,,,,,,,green,I
0.0,3.0,2.0,0.0,6.0,6.0,595.7254189997911,7.0,1.0,phase_2,go,550.0,350.0,1.0,,,,,,,,,cyan,triangle
0.0,4.0,4.0,0.0,6.0,6.0,603.7374849997832,7.0,1.0,phase_2,go,550.0,350.0,1.0,,,,,,,,,white,flipped triangle
0.0,7.0,2.0,1.0,5.0,0.0,0.0,7.0,1.0,phase_2,stop,550.0,350.0,4.0,,,,,,,,,blue,hexagon
0.0,1.0,0.5,0.0,5.0,5.0,538.8200890001826,7.0,1.0,phase_2,go,600.0,350.0,1.0,,,,,,,,,gray,circle
0.0,3.0,2.0,0.0,5.0,5.0,750.5573389998972,7.0,1.0,phase_2,go,600.0,350.0,1.0,,,,,,,,,cyan,triangle
0.0,7.0,2.0,1.0,6.0,0.0,0.0,7.0,1.0,phase_2,stop,600.0,350.0,4.0,,,,,,,,,blue,hexagon
0.0,1.0,0.5,0.0,5.0,5.0,594.3565859997761,7.0,1.0,phase_2,go,600.0,400.0,1.0,,,,,,,,,gray,circle
0.0,3.0,2.0,0.0,6.0,6.0,732.7199549999932,7.0,1.0,phase_2,go,600.0,400.0,1.0,,,,,,,,,cyan,triangle
0.0,3.0,2.0,0.0,5.0,5.0,511.9927880000432,7.0,1.0,phase_2,go,600.0,400.0,1.0,,,,,,,,,cyan,triangle
0.0,7.0,2.0,1.0,6.0,0.0,0.0,7.0,1.0,phase_2,stop,600.0,400.0,4.0,,,,,,,,,blue,hexagon
0.0,1.0,0.5,0.0,6.0,6.0,520.5996400000004,7.0,1.0,phase_2,go,600.0,450.0,1.0,,,,,,,,,gray,circle
0.0,1.0,0.5,0.0,6.0,6.0,520.1550100000532,7.0,1.0,phase_2,go,600.0,450.0,1.0,,,,,,,,,gray,circle
0.0,2.0,1.0,0.0,5.0,5.0,881.9993839997551,7.0,1.0,phase_2,go,600.0,450.0,1.0,,,,,,,,,magenta,diamond
0.0,5.0,0.5,1.0,6.0,6.0,755.2525940000123,7.0,1.0,phase_2,stop,600.0,450.0,3.0,,,,,,,,,orange,cross
0.0,1.0,0.5,0.0,5.0,5.0,481.0860800002956,7.0,1.0,phase_2,go,600.0,400.0,1.0,,,,,,,,,gray,circle
0.0,3.0,2.0,0.0,5.0,5.0,725.4317050001191,7.0,1.0,phase_2,go,600.0,400.0,1.0,,,,,,,,,cyan,triangle
0.0,7.0,2.0,1.0,6.0,6.0,826.3947239997833,7.0,1.0,phase_2,go,600.0,400.0,1.0,,,,,,,,,blue,hexagon
0.0,1.0,0.5,0.0,5.0,5.0,547.5232799999503,7.0,1.0,phase_2,go,600.0,400.0,1.0,,,,,,,,,gray,circle
0.0,1.0,0.5,0.0,6.0,6.0,352.6398710000649,7.0,1.0,phase_2,go,600.0,400.0,1.0,,,,,,,,,gray,circle
0.0,2.0,1.0,0.0,6.0,6.0,566.7950699998983,7.0,1.0,phase_2,go,600.0,400.0,1.0,,,,,,,,,magenta,diamond
0.0,2.0,1.0,0.0,6.0,6.0,436.2698459999592,7.0,1.0,phase_2,go,600.0,400.0,1.0,,,,,,,,,magenta,diamond
0.0,4.0,4.0,0.0,5.0,5.0,416.9403010000678,7.0,1.0,phase_2,go,600.0,400.0,1.0,,,,,,,,,white,flipped triangle
0.0,6.0,1.0,1.0,5.0,5.0,695.9626780003418,7.0,1.0,phase_2,stop,600.0,400.0,3.0,,,,,,,,,yellow,square
0.0,5.0,0.5,1.0,5.0,0.0,0.0,7.0,1.0,phase_2,stop,550.0,400.0,4.0,,,,,,,,,orange,cross
0.0,2.0,1.0,0.0,6.0,6.0,445.8356660002209,7.0,1.0,phase_2,go,600.0,400.0,1.0,,,,,,,,,magenta,diamond
0.0,1.0,0.5,0.0,5.0,5.0,501.2036760003866,7.0,1.0,phase_2,go,600.0,400.0,1.0,,,,,,,,,gray,circle
0.0,5.0,0.5,1.0,6.0,0.0,0.0,8.0,1.0,phase_2,stop,600.0,400.0,4.0,,,,,,,,,orange,cross
0.0,2.0,1.0,0.0,5.0,5.0,546.3089139998374,8.0,1.0,phase_2,go,600.0,450.0,1.0,,,,,,,,,magenta,diamond
0.0,7.0,2.0,1.0,5.0,0.0,0.0,8.0,1.0,phase_2,stop,600.0,450.0,4.0,,,,,,,,,blue,hexagon
0.0,2.0,1.0,0.0,5.0,5.0,418.3008599998175,8.0,1.0,phase_2,go,650.0,450.0,1.0,,,,,,,,,magenta,diamond
0.0,4.0,4.0,0.0,5.0,5.0,399.4284670002344,8.0,1.0,phase_2,go,650.0,450.0,1.0,,,,,,,,,white,flipped triangle
0.0,5.0,0.5,1.0,6.0,6.0,398.4916109998266,8.0,1.0,phase_2,go,650.0,450.0,1.0,,,,,,,,,orange,cross
0.0,8.0,4.0,1.0,6.0,6.0,372.6750830001037,8.0,1.0,phase_2,stop,650.0,450.0,3.0,,,,,,,,,green,I
0.0,2.0,1.0,0.0,5.0,5.0,325.0217700001485,8.0,1.0,phase_2,go,650.0,400.0,1.0,,,,,,,,,magenta,diamond
0.0,4.0,4.0,0.0,5.0,5.0,482.2411079999256,8.0,1.0,phase_2,go,650.0,400.0,1.0,,,,,,,,,white,flipped triangle
0.0,6.0,1.0,1.0,6.0,6.0,306.8222490001062,8.0,1.0,phase_2,go,650.0,400.0,1.0,,,,,,,,,yellow,square
0.0,2.0,1.0,0.0,6.0,6.0,316.0522729999684,8.0,1.0,phase_2,go,650.0,400.0,1.0,,,,,,,,,magenta,diamond
0.0,6.0,1.0,1.0,5.0,5.0,389.6037869999418,8.0,1.0,phase_2,stop,650.0,400.0,3.0,,,,,,,,,yellow,square
0.0,4.0,4.0,0.0,6.0,6.0,427.7583630000663,8.0,1.0,phase_2,go,600.0,400.0,1.0,,,,,,,,,white,flipped triangle
0.0,2.0,1.0,0.0,5.0,5.0,623.5712310003692,8.0,1.0,phase_2,go,600.0,400.0,1.0,,,,,,,,,magenta,diamond
0.0,2.0,1.0,0.0,5.0,5.0,501.8709329997364,8.0,1.0,phase_2,go,600.0,400.0,1.0,,,,,,,,,magenta,diamond
0.0,1.0,0.5,0.0,5.0,5.0,528.6716579998938,8.0,1.0,phase_2,go,600.0,400.0,1.0,,,,,,,,,gray,circle
0.0,3.0,2.0,0.0,5.0,5.0,519.9769840000954,8.0,1.0,phase_2,go,600.0,400.0,1.0,,,,,,,,,cyan,triangle
0.0,5.0,0.5,1.0,6.0,6.0,381.350447999921,8.0,1.0,phase_2,stop,600.0,400.0,3.0,,,,,,,,,orange,cross
0.0,8.0,4.0,1.0,5.0,5.0,704.8460720002367,8.0,1.0,phase_2,go,600.0,350.0,1.0,,,,,,,,,green,I
0.0,2.0,1.0,0.0,6.0,6.0,500.9676960003162,8.0,1.0,phase_2,go,600.0,350.0,1.0,,,,,,,,,magenta,diamond
0.0,6.0,1.0,1.0,6.0,6.0,495.7469619998846,8.0,1.0,phase_2,stop,600.0,350.0,3.0,,,,,,,,,yellow,square
0.0,3.0,2.0,0.0,5.0,5.0,456.0549430002538,8.0,1.0,phase_2,go,600.0,300.0,1.0,,,,,,,,,cyan,triangle
0.0,7.0,2.0,1.0,6.0,6.0,881.9790859997738,8.0,1.0,phase_2,go,600.0,300.0,1.0,,,,,,,,,blue,hexagon
0.0,8.0,4.0,1.0,5.0,5.0,593.8532820000546,8.0,1.0,phase_2,go,600.0,300.0,1.0,,,,,,,,,green,I
0.0,4.0,4.0,0.0,5.0,5.0,408.001255000272,8.0,1.0,phase_2,go,600.0,300.0,1.0,,,,,,,,,white,flipped triangle
0.0,5.0,0.5,1.0,6.0,6.0,334.0144580001833,8.0,1.0,phase_2,stop,600.0,300.0,3.0,,,,,,,,,orange,cross
0.0,7.0,2.0,1.0,5.0,5.0,501.5411320000567,8.0,1.0,phase_2,stop,600.0,250.0,3.0,,,,,,,,,blue,hexagon
0.0,3.0,2.0,0.0,5.0,5.0,510.4291210000156,8.0,1.0,phase_2,go,550.0,250.0,1.0,,,,,,,,,cyan,triangle
0.0,3.0,2.0,0.0,5.0,5.0,388.9312320002318,8.0,1.0,phase_2,go,550.0,250.0,1.0,,,,,,,,,cyan,triangle
0.0,4.0,4.0,0.0,6.0,6.0,464.0167050001764,8.0,1.0,phase_2,go,550.0,250.0,1.0,,,,,,,,,white,flipped triangle
0.0,4.0,4.0,0.0,5.0,5.0,390.7992240001476,8.0,1.0,phase_2,go,550.0,250.0,1.0,,,,,,,,,white,flipped triangle
0.0,2.0,1.0,0.0,6.0,6.0,511.8757639997966,8.0,1.0,phase_2,go,550.0,250.0,1.0,,,,,,,,,magenta,diamond
0.0,4.0,4.0,0.0,5.0,5.0,351.9161300000633,8.0,1.0,phase_2,go,550.0,250.0,1.0,,,,,,,,,white,flipped triangle
0.0,1.0,0.5,0.0,6.0,6.0,445.7056020000891,8.0,1.0,phase_2,go,550.0,250.0,1.0,,,,,,,,,gray,circle
0.0,1.0,0.5,0.0,6.0,6.0,400.2508660000785,8.0,1.0,phase_2,go,550.0,250.0,1.0,,,,,,,,,gray,circle
0.0,2.0,1.0,0.0,5.0,5.0,390.6576680001308,8.0,1.0,phase_2,go,550.0,250.0,1.0,,,,,,,,,magenta,diamond
0.0,1.0,0.5,0.0,7.0,4.0,1129.3558890001805,1.0,2.0,phase_3,,,,,384.0,2.0,768.0,960.0,192.0,384.0,576.0,1152.0,gray,circle
0.0,3.0,2.0,0.0,7.0,3.0,4006.75610899998,1.0,1.0,phase_3,,,,,692.0,4.0,519.0,173.0,692.0,346.0,1038.0,865.0,cyan,triangle
0.0,8.0,4.0,1.0,7.0,2.0,4624.634091000189,1.0,1.0,phase_3,,,,,462.0,3.0,616.0,462.0,770.0,308.0,924.0,154.0,green,I
0.0,3.0,2.0,0.0,7.0,5.0,2969.7781969998687,1.0,2.0,phase_3,,,,,232.0,2.0,580.0,696.0,116.0,464.0,232.0,348.0,cyan,triangle
0.0,6.0,1.0,1.0,7.0,2.0,4538.814764999643,1.0,1.0,phase_3,,,,,384.0,2.0,576.0,384.0,192.0,1152.0,768.0,960.0,yellow,square
0.0,8.0,4.0,1.0,7.0,4.0,3087.7961920000416,1.0,1.0,phase_3,,,,,865.0,5.0,173.0,692.0,346.0,865.0,519.0,1038.0,green,I
0.0,5.0,0.5,1.0,7.0,2.0,3352.3814800000764,1.0,1.0,phase_3,,,,,1152.0,6.0,960.0,1152.0,192.0,576.0,768.0,384.0,orange,cross
0.0,7.0,2.0,1.0,7.0,6.0,2732.698685999821,1.0,1.0,phase_3,,,,,692.0,4.0,1038.0,519.0,346.0,173.0,865.0,692.0,blue,hexagon
0.0,4.0,4.0,0.0,7.0,6.0,2594.934543999898,1.0,1.0,phase_3,,,,,519.0,3.0,346.0,1038.0,173.0,865.0,692.0,519.0,white,flipped triangle
0.0,7.0,2.0,1.0,7.0,2.0,2612.2370760003832,1.0,1.0,phase_3,,,,,696.0,6.0,464.0,696.0,232.0,348.0,580.0,116.0,blue,hexagon
0.0,8.0,4.0,1.0,7.0,3.0,3198.850691000189,1.0,1.0,phase_3,,,,,348.0,3.0,696.0,116.0,348.0,232.0,464.0,580.0,green,I
0.0,8.0,4.0,1.0,7.0,5.0,2034.9641289999454,1.0,1.0,phase_3,,,,,405.0,3.0,675.0,540.0,135.0,810.0,405.0,270.0,green,I
0.0,8.0,4.0,1.0,7.0,5.0,2143.811064999681,1.0,1.0,phase_3,,,,,924.0,6.0,308.0,154.0,462.0,616.0,924.0,770.0,green,I
0.0,5.0,0.5,1.0,7.0,6.0,3681.999104999704,1.0,1.0,phase_3,,,,,464.0,4.0,696.0,348.0,116.0,580.0,232.0,464.0,orange,cross
0.0,2.0,1.0,0.0,7.0,5.0,2430.48227700001,1.0,1.0,phase_3,,,,,348.0,3.0,696.0,464.0,580.0,232.0,348.0,116.0,magenta,diamond
0.0,1.0,0.5,0.0,7.0,1.0,1824.748744000317,1.0,1.0,phase_3,,,,,154.0,1.0,154.0,462.0,924.0,308.0,770.0,616.0,gray,circle
0.0,6.0,1.0,1.0,7.0,3.0,4820.738837000135,1.0,1.0,phase_3,,,,,580.0,5.0,232.0,696.0,580.0,116.0,464.0,348.0,yellow,square
0.0,3.0,2.0,0.0,7.0,4.0,3493.1565890001366,1.0,1.0,phase_3,,,,,768.0,4.0,192.0,960.0,384.0,768.0,576.0,1152.0,cyan,triangle
0.0,8.0,4.0,1.0,7.0,3.0,2971.6900230000647,1.0,1.0,phase_3,,,,,696.0,6.0,464.0,580.0,696.0,232.0,116.0,348.0,green,I
0.0,5.0,0.5,1.0,7.0,1.0,3258.9530669997657,1.0,1.0,phase_3,,,,,135.0,1.0,135.0,405.0,810.0,270.0,540.0,675.0,orange,cross
0.0,5.0,0.5,1.0,7.0,2.0,1486.8784360000973,2.0,2.0,phase_3,,,,,173.0,1.0,865.0,173.0,692.0,1038.0,346.0,519.0,orange,cross
0.0,5.0,0.5,1.0,7.0,4.0,4211.690065999846,2.0,1.0,phase_3,,,,,576.0,3.0,1152.0,192.0,768.0,576.0,384.0,960.0,orange,cross
0.0,7.0,2.0,1.0,7.0,4.0,1983.2574350002687,2.0,1.0,phase_3,,,,,405.0,3.0,540.0,675.0,270.0,405.0,135.0,810.0,blue,hexagon
0.0,3.0,2.0,0.0,7.0,3.0,1514.9304419996952,2.0,1.0,phase_3,,,,,576.0,3.0,192.0,1152.0,576.0,768.0,960.0,384.0,cyan,triangle
0.0,1.0,0.5,0.0,7.0,5.0,2073.2311940000727,2.0,1.0,phase_3,,,,,116.0,1.0,580.0,232.0,348.0,464.0,116.0,696.0,gray,circle
0.0,4.0,4.0,0.0,7.0,2.0,3054.5490729996345,2.0,1.0,phase_3,,,,,580.0,5.0,464.0,580.0,232.0,348.0,696.0,116.0,white,flipped triangle
0.0,4.0,4.0,0.0,7.0,3.0,1510.013754999818,2.0,1.0,phase_3,,,,,675.0,5.0,270.0,405.0,675.0,810.0,135.0,540.0,white,flipped triangle
0.0,5.0,0.5,1.0,7.0,4.0,1802.4790549998213,2.0,1.0,phase_3,,,,,770.0,5.0,616.0,462.0,924.0,770.0,308.0,154.0,orange,cross
0.0,1.0,0.5,0.0,7.0,3.0,1858.198418999564,2.0,1.0,phase_3,,,,,116.0,1.0,232.0,348.0,116.0,580.0,696.0,464.0,gray,circle
0.0,2.0,1.0,0.0,7.0,6.0,3772.645135999937,2.0,1.0,phase_3,,,,,580.0,5.0,348.0,232.0,464.0,696.0,116.0,580.0,magenta,diamond
0.0,5.0,0.5,1.0,7.0,4.0,3541.8559990002905,2.0,1.0,phase_3,,,,,865.0,5.0,1038.0,519.0,173.0,865.0,346.0,692.0,orange,cross
0.0,8.0,4.0,1.0,7.0,1.0,1747.3983520003458,2.0,1.0,phase_3,,,,,519.0,3.0,519.0,346.0,173.0,1038.0,865.0,692.0,green,I
0.0,2.0,1.0,0.0,7.0,3.0,3759.136646000115,2.0,1.0,phase_3,,,,,135.0,1.0,270.0,810.0,135.0,405.0,675.0,540.0,magenta,diamond
0.0,3.0,2.0,0.0,7.0,5.0,2985.916884999824,2.0,1.0,phase_3,,,,,308.0,2.0,462.0,616.0,154.0,924.0,308.0,770.0,cyan,triangle
0.0,3.0,2.0,0.0,7.0,6.0,3775.483071999588,2.0,1.0,phase_3,,,,,232.0,2.0,116.0,696.0,464.0,348.0,580.0,232.0,cyan,triangle
0.0,6.0,1.0,1.0,7.0,2.0,2286.7054160005864,2.0,1.0,phase_3,,,,,348.0,3.0,464.0,348.0,580.0,232.0,696.0,116.0,yellow,square
0.0,7.0,2.0,1.0,7.0,2.0,3176.6048660001616,2.0,1.0,phase_3,,,,,540.0,4.0,675.0,540.0,270.0,135.0,405.0,810.0,blue,hexagon
0.0,4.0,4.0,0.0,7.0,4.0,1909.893760000159,2.0,1.0,phase_3,,,,,692.0,4.0,865.0,519.0,173.0,692.0,1038.0,346.0,white,flipped triangle
0.0,4.0,4.0,0.0,7.0,5.0,3045.0417320007546,2.0,1.0,phase_3,,,,,462.0,3.0,154.0,308.0,770.0,616.0,462.0,924.0,white,flipped triangle
0.0,3.0,2.0,0.0,7.0,1.0,3503.9513190004072,2.0,1.0,phase_3,,,,,675.0,5.0,675.0,540.0,270.0,135.0,810.0,405.0,cyan,triangle
0.0,2.0,1.0,0.0,7.0,3.0,1825.442854000357,3.0,1.0,phase_3,,,,,154.0,1.0,924.0,462.0,154.0,770.0,308.0,616.0,magenta,diamond
0.0,4.0,4.0,0.0,7.0,1.0,2987.830678999672,3.0,1.0,phase_3,,,,,308.0,2.0,308.0,462.0,770.0,924.0,616.0,154.0,white,flipped triangle
0.0,8.0,4.0,1.0,7.0,3.0,1812.0860720000564,3.0,1.0,phase_3,,,,,270.0,2.0,135.0,810.0,270.0,405.0,675.0,540.0,green,I
0.0,7.0,2.0,1.0,7.0,3.0,1986.426247000054,3.0,1.0,phase_3,,,,,346.0,2.0,865.0,692.0,346.0,1038.0,519.0,173.0,blue,hexagon
0.0,8.0,4.0,1.0,7.0,4.0,4158.020682000824,3.0,1.0,phase_3,,,,,576.0,3.0,192.0,960.0,1152.0,576.0,768.0,384.0,green,I
0.0,8.0,4.0,1.0,7.0,6.0,4178.922140000395,3.0,1.0,phase_3,,,,,576.0,3.0,1152.0,192.0,384.0,768.0,960.0,576.0,green,I
0.0,4.0,4.0,0.0,7.0,3.0,3362.90378800004,3.0,1.0,phase_3,,,,,675.0,5.0,810.0,540.0,675.0,270.0,135.0,405.0,white,flipped triangle
0.0,3.0,2.0,0.0,7.0,5.0,2430.868714999633,3.0,1.0,phase_3,,,,,519.0,3.0,692.0,865.0,173.0,346.0,519.0,1038.0,cyan,triangle
0.0,6.0,1.0,1.0,7.0,5.0,1738.434227999278,3.0,1.0,phase_3,,,,,675.0,5.0,135.0,540.0,810.0,405.0,675.0,270.0,yellow,square
0.0,1.0,0.5,0.0,7.0,5.0,2045.8727200002613,3.0,1.0,phase_3,,,,,865.0,5.0,1038.0,692.0,346.0,519.0,865.0,173.0,gray,circle
0.0,5.0,0.5,1.0,7.0,3.0,1486.9706859999496,3.0,1.0,phase_3,,,,,810.0,6.0,135.0,405.0,810.0,540.0,675.0,270.0,orange,cross
0.0,5.0,0.5,1.0,7.0,2.0,2192.837351999515,3.0,1.0,phase_3,,,,,924.0,6.0,616.0,924.0,770.0,462.0,308.0,154.0,orange,cross
0.0,7.0,2.0,1.0,7.0,1.0,2790.209388999756,3.0,1.0,phase_3,,,,,116.0,1.0,116.0,348.0,580.0,696.0,464.0,232.0,blue,hexagon
0.0,6.0,1.0,1.0,7.0,4.0,2190.80933999976,3.0,1.0,phase_3,,,,,270.0,2.0,810.0,675.0,540.0,270.0,405.0,135.0,yellow,square
0.0,6.0,1.0,1.0,7.0,6.0,3409.725909000372,3.0,1.0,phase_3,,,,,346.0,2.0,519.0,1038.0,173.0,865.0,692.0,346.0,yellow,square
0.0,1.0,0.5,0.0,7.0,2.0,1718.3430320001207,3.0,1.0,phase_3,,,,,135.0,1.0,810.0,135.0,540.0,405.0,675.0,270.0,gray,circle
0.0,7.0,2.0,1.0,7.0,1.0,3915.5520390004313,3.0,1.0,phase_3,,,,,462.0,3.0,462.0,770.0,154.0,924.0,308.0,616.0,blue,hexagon
0.0,6.0,1.0,1.0,7.0,5.0,2697.6053250000405,3.0,1.0,phase_3,,,,,576.0,3.0,768.0,384.0,192.0,1152.0,576.0,960.0,yellow,square
0.0,2.0,1.0,0.0,7.0,6.0,2606.528747000084,3.0,1.0,phase_3,,,,,519.0,3.0,346.0,1038.0,865.0,173.0,692.0,519.0,magenta,diamond
0.0,3.0,2.0,0.0,7.0,6.0,3608.453144000123,3.0,1.0,phase_3,,,,,540.0,4.0,405.0,135.0,810.0,675.0,270.0,540.0,cyan,triangle
0.0,1.0,0.5,0.0,7.0,6.0,3360.354644999461,4.0,1.0,phase_3,,,,,135.0,1.0,270.0,810.0,540.0,405.0,675.0,135.0,gray,circle
0.0,2.0,1.0,0.0,7.0,3.0,4251.57487999968,4.0,1.0,phase_3,,,,,384.0,2.0,1152.0,768.0,384.0,576.0,960.0,192.0,magenta,diamond
0.0,4.0,4.0,0.0,7.0,2.0,3350.490160000845,4.0,1.0,phase_3,,,,,576.0,3.0,960.0,576.0,768.0,192.0,1152.0,384.0,white,flipped triangle
0.0,4.0,4.0,0.0,7.0,3.0,3622.116998999445,4.0,1.0,phase_3,,,,,768.0,4.0,384.0,192.0,768.0,576.0,1152.0,960.0,white,flipped triangle
0.0,7.0,2.0,1.0,7.0,4.0,1580.606431999513,4.0,1.0,phase_3,,,,,770.0,5.0,616.0,308.0,154.0,770.0,924.0,462.0,blue,hexagon
0.0,6.0,1.0,1.0,7.0,6.0,2088.0664460000844,4.0,1.0,phase_3,,,,,865.0,5.0,173.0,1038.0,692.0,346.0,519.0,865.0,yellow,square
0.0,4.0,4.0,0.0,7.0,2.0,3887.677772999268,4.0,1.0,phase_3,,,,,116.0,1.0,464.0,116.0,580.0,232.0,696.0,348.0,white,flipped triangle
0.0,1.0,0.5,0.0,7.0,2.0,2080.6147009998317,4.0,1.0,phase_3,,,,,346.0,2.0,1038.0,346.0,865.0,692.0,519.0,173.0,gray,circle
0.0,2.0,1.0,0.0,7.0,3.0,1887.1474300003683,4.0,1.0,phase_3,,,,,519.0,3.0,346.0,173.0,519.0,865.0,1038.0,692.0,magenta,diamond
0.0,1.0,0.5,0.0,7.0,3.0,1600.832961999913,4.0,1.0,phase_3,,,,,616.0,4.0,154.0,770.0,616.0,924.0,308.0,462.0,gray,circle
0.0,6.0,1.0,1.0,7.0,4.0,2317.0702449997407,4.0,1.0,phase_3,,,,,770.0,5.0,308.0,924.0,462.0,770.0,154.0,616.0,yellow,square
0.0,2.0,1.0,0.0,7.0,5.0,2149.934471999586,4.0,1.0,phase_3,,,,,576.0,3.0,192.0,384.0,768.0,960.0,576.0,1152.0,magenta,diamond
0.0,1.0,0.5,0.0,7.0,1.0,3236.8105129999094,4.0,1.0,phase_3,,,,,768.0,4.0,768.0,1152.0,192.0,576.0,960.0,384.0,gray,circle
0.0,3.0,2.0,0.0,7.0,4.0,1729.8103260000062,4.0,1.0,phase_3,,,,,308.0,2.0,924.0,616.0,154.0,308.0,770.0,462.0,cyan,triangle
0.0,5.0,0.5,1.0,7.0,6.0,2752.278353000293,4.0,1.0,phase_3,,,,,116.0,1.0,348.0,696.0,464.0,232.0,580.0,116.0,orange,cross
0.0,2.0,1.0,0.0,7.0,6.0,2303.784304000146,4.0,1.0,phase_3,,,,,308.0,2.0,924.0,770.0,616.0,462.0,154.0,308.0,magenta,diamond
0.0,6.0,1.0,1.0,7.0,4.0,1339.528436999899,4.0,1.0,phase_3,,,,,462.0,3.0,924.0,154.0,770.0,462.0,308.0,616.0,yellow,square
0.0,7.0,2.0,1.0,7.0,3.0,1680.8882690002065,4.0,1.0,phase_3,,,,,576.0,3.0,192.0,960.0,576.0,768.0,384.0,1152.0,blue,hexagon
0.0,2.0,1.0,0.0,7.0,5.0,1974.5017830000504,4.0,1.0,phase_3,,,,,675.0,5.0,810.0,270.0,540.0,405.0,675.0,135.0,magenta,diamond
0.0,7.0,2.0,1.0,7.0,6.0,4903.145135999694,4.0,1.0,phase_3,,,,,576.0,3.0,384.0,960.0,768.0,192.0,1152.0,576.0,blue,hexagon
