raw_reward_magnitude,stim_reward,stepwise_reward_magnitude,paired_with_stopping,quadrant,response,reaction_time,block,num_trial_presentations,which_part,stop_signal_trial_type,left_SSD,right_SSD,accuracy,chosen_bidding_amount,chosen_bidding_level,possible_bid_1,possible_bid_2,possible_bid_3,possible_bid_4,possible_bid_5,possible_bid_6,color_text,shape_text
662.0,3.0,3.0,0.0,4.0,4.0,586.5564239998093,1.0,1.0,part_1,,,,,,,,,,,,,cyan,I
1280.0,4.0,4.0,0.0,4.0,4.0,549.6038030000818,1.0,1.0,part_1,,,,,,,,,,,,,green,hexagon
0.0,5.0,0.0,1.0,3.0,3.0,484.8178910001479,1.0,1.0,part_1,,,,,,,,,,,,,orange,cross
179.0,5.0,1.0,1.0,1.0,1.0,641.5297620001184,1.0,1.0,part_1,,,,,,,,,,,,,orange,cross
306.0,6.0,2.0,1.0,3.0,3.0,428.6841630000708,1.0,1.0,part_1,,,,,,,,,,,,,yellow,square
1285.0,4.0,4.0,0.0,3.0,3.0,847.7641260001292,1.0,2.0,part_1,,,,,,,,,,,,,green,hexagon
641.0,7.0,3.0,1.0,3.0,3.0,707.4301389998254,1.0,1.0,part_1,,,,,,,,,,,,,white,flipped triangle
184.0,1.0,1.0,0.0,4.0,4.0,466.920914000184,1.0,1.0,part_1,,,,,,,,,,,,,gray,triangle
0.0,6.0,0.0,1.0,3.0,3.0,502.9776590004076,1.0,1.0,part_1,,,,,,,,,,,,,yellow,square
165.0,5.0,1.0,1.0,4.0,4.0,595.4124170002615,1.0,1.0,part_1,,,,,,,,,,,,,orange,cross
1277.0,8.0,4.0,1.0,3.0,3.0,540.4707350003264,1.0,1.0,part_1,,,,,,,,,,,,,blue,diamond
175.0,5.0,1.0,1.0,3.0,3.0,475.3382670000974,1.0,1.0,part_1,,,,,,,,,,,,,orange,cross
651.0,7.0,3.0,1.0,2.0,2.0,837.3328249999759,1.0,1.0,part_1,,,,,,,,,,,,,white,flipped triangle
325.0,2.0,2.0,0.0,2.0,2.0,642.4180569997588,1.0,1.0,part_1,,,,,,,,,,,,,magenta,circle
166.0,1.0,1.0,0.0,2.0,2.0,567.2032460001901,1.0,1.0,part_1,,,,,,,,,,,,,gray,triangle
631.0,3.0,3.0,0.0,1.0,1.0,624.8216410003806,1.0,1.0,part_1,,,,,,,,,,,,,cyan,I
302.0,6.0,2.0,1.0,4.0,4.0,503.0750780001654,1.0,1.0,part_1,,,,,,,,,,,,,yellow,square
654.0,7.0,3.0,1.0,3.0,3.0,363.5585480001282,1.0,1.0,part_1,,,,,,,,,,,,,white,flipped triangle
659.0,3.0,3.0,0.0,4.0,4.0,465.84439600019317,1.0,1.0,part_1,,,,,,,,,,,,,cyan,I
0.0,5.0,0.0,1.0,2.0,2.0,522.2842539997146,1.0,1.0,part_1,,,,,,,,,,,,,orange,cross
165.0,1.0,1.0,0.0,1.0,1.0,919.4367119998788,1.0,1.0,part_1,,,,,,,,,,,,,gray,triangle
666.0,7.0,3.0,1.0,1.0,1.0,614.3934770002488,1.0,1.0,part_1,,,,,,,,,,,,,white,flipped triangle
0.0,8.0,0.0,1.0,3.0,3.0,390.6488229999922,1.0,1.0,part_1,,,,,,,,,,,,,blue,diamond
163.0,1.0,1.0,0.0,1.0,1.0,547.3444969998127,1.0,1.0,part_1,,,,,,,,,,,,,gray,triangle
1325.0,4.0,4.0,0.0,1.0,1.0,762.7577019998171,1.0,1.0,part_1,,,,,,,,,,,,,green,hexagon
0.0,3.0,0.0,0.0,4.0,4.0,446.6276590001143,1.0,1.0,part_1,,,,,,,,,,,,,cyan,I
158.0,1.0,1.0,0.0,3.0,3.0,446.6875440002695,1.0,1.0,part_1,,,,,,,,,,,,,gray,triangle
182.0,5.0,1.0,1.0,4.0,4.0,474.67933300004,1.0,1.0,part_1,,,,,,,,,,,,,orange,cross
1314.0,8.0,4.0,1.0,1.0,1.0,417.7520620000905,1.0,1.0,part_1,,,,,,,,,,,,,blue,diamond
0.0,2.0,0.0,0.0,1.0,1.0,595.5328289996942,1.0,1.0,part_1,,,,,,,,,,,,,magenta,circle
666.0,3.0,3.0,0.0,4.0,4.0,521.370270999796,1.0,1.0,part_1,,,,,,,,,,,,,cyan,I
180.0,5.0,1.0,1.0,2.0,2.0,475.1892839999527,1.0,1.0,part_1,,,,,,,,,,,,,orange,cross
344.0,2.0,2.0,0.0,1.0,1.0,493.4155220003049,1.0,1.0,part_1,,,,,,,,,,,,,magenta,circle
150.0,1.0,1.0,0.0,3.0,3.0,437.7577390000624,1.0,1.0,part_1,,,,,,,,,,,,,gray,triangle
345.0,6.0,2.0,1.0,4.0,4.0,465.1146930000323,1.0,1.0,part_1,,,,,,,,,,,,,yellow,square
150.0,5.0,1.0,1.0,4.0,4.0,475.439008000194,1.0,1.0,part_1,,,,,,,,,,,,,orange,cross
626.0,7.0,3.0,1.0,3.0,3.0,456.057329000032,1.0,1.0,part_1,,,,,,,,,,,,,white,flipped triangle
0.0,1.0,0.0,0.0,3.0,3.0,419.8455929999909,1.0,1.0,part_1,,,,,,,,,,,,,gray,triangle
0.0,7.0,0.0,1.0,1.0,1.0,465.4417760002616,1.0,1.0,part_1,,,,,,,,,,,,,white,flipped triangle
151.0,5.0,1.0,1.0,2.0,2.0,466.6699319996041,1.0,1.0,part_1,,,,,,,,,,,,,orange,cross
1284.0,4.0,4.0,0.0,4.0,4.0,448.3211570000094,1.0,1.0,part_1,,,,,,,,,,,,,green,hexagon
0.0,3.0,0.0,0.0,2.0,2.0,466.4137830000072,1.0,1.0,part_1,,,,,,,,,,,,,cyan,I
319.0,6.0,2.0,1.0,2.0,2.0,419.3046309997044,1.0,1.0,part_1,,,,,,,,,,,,,yellow,square
1298.0,4.0,4.0,0.0,2.0,2.0,466.411318000155,1.0,1.0,part_1,,,,,,,,,,,,,green,hexagon
344.0,6.0,2.0,1.0,3.0,3.0,514.1498399998454,1.0,1.0,part_1,,,,,,,,,,,,,yellow,square
1293.0,8.0,4.0,1.0,2.0,2.0,428.2801509998535,1.0,1.0,part_1,,,,,,,,,,,,,blue,diamond
1314.0,8.0,4.0,1.0,4.0,4.0,586.4160629998878,1.0,1.0,part_1,,,,,,,,,,,,,blue,diamond
673.0,3.0,3.0,0.0,3.0,3.0,455.5893060000926,1.0,1.0,part_1,,,,,,,,,,,,,cyan,I
644.0,3.0,3.0,0.0,4.0,4.0,502.9291150003701,1.0,1.0,part_1,,,,,,,,,,,,,cyan,I
0.0,2.0,0.0,0.0,3.0,3.0,511.9652259995746,1.0,1.0,part_1,,,,,,,,,,,,,magenta,circle
169.0,1.0,1.0,0.0,4.0,4.0,865.461686999879,1.0,1.0,part_1,,,,,,,,,,,,,gray,triangle
1307.0,4.0,4.0,0.0,3.0,3.0,456.4751990001241,1.0,1.0,part_1,,,,,,,,,,,,,green,hexagon
1292.0,8.0,4.0,1.0,3.0,3.0,390.221277999899,1.0,1.0,part_1,,,,,,,,,,,,,blue,diamond
153.0,1.0,1.0,0.0,2.0,2.0,548.6855959998138,1.0,1.0,part_1,,,,,,,,,,,,,gray,triangle
0.0,2.0,0.0,0.0,1.0,1.0,531.9069229999513,1.0,1.0,part_1,,,,,,,,,,,,,magenta,circle
153.0,5.0,1.0,1.0,3.0,3.0,335.8107489998474,1.0,1.0,part_1,,,,,,,,,,,,,orange,cross
1277.0,4.0,4.0,0.0,4.0,4.0,364.8036340000544,1.0,1.0,part_1,,,,,,,,,,,,,green,hexagon
330.0,2.0,2.0,0.0,4.0,4.0,520.4484389996651,1.0,1.0,part_1,,,,,,,,,,,,,magenta,circle
667.0,3.0,3.0,0.0,1.0,1.0,615.1191559997642,1.0,1.0,part_1,,,,,,,,,,,,,cyan,I
185.0,5.0,1.0,1.0,2.0,2.0,558.5783209999136,1.0,1.0,part_1,,,,,,,,,,,,,orange,cross
1283.0,4.0,4.0,0.0,3.0,3.0,334.4859949997953,1.0,1.0,part_1,,,,,,,,,,,,,green,hexagon
634.0,3.0,3.0,0.0,4.0,4.0,448.4048510003049,1.0,1.0,part_1,,,,,,,,,,,,,cyan,I
159.0,1.0,1.0,0.0,4.0,4.0,484.2060390001279,1.0,1.0,part_1,,,,,,,,,,,,,gray,triangle
1322.0,4.0,4.0,0.0,2.0,2.0,447.8246499998022,1.0,1.0,part_1,,,,,,,,,,,,,green,hexagon
314.0,6.0,2.0,1.0,2.0,2.0,465.8737650001967,1.0,1.0,part_1,,,,,,,,,,,,,yellow,square
151.0,1.0,1.0,0.0,4.0,4.0,521.7420349999884,1.0,1.0,part_1,,,,,,,,,,,,,gray,triangle
162.0,1.0,1.0,0.0,3.0,3.0,429.1899820000253,1.0,1.0,part_1,,,,,,,,,,,,,gray,triangle
0.0,7.0,0.0,1.0,4.0,4.0,565.7787710001685,1.0,1.0,part_1,,,,,,,,,,,,,white,flipped triangle
1316.0,8.0,4.0,1.0,2.0,2.0,540.3153920001387,1.0,1.0,part_1,,,,,,,,,,,,,blue,diamond
330.0,6.0,2.0,1.0,4.0,4.0,522.7258009999787,1.0,1.0,part_1,,,,,,,,,,,,,yellow,square
346.0,6.0,2.0,1.0,2.0,2.0,604.7812500000873,1.0,1.0,part_1,,,,,,,,,,,,,yellow,square
182.0,1.0,1.0,0.0,3.0,3.0,559.5620809999673,1.0,1.0,part_1,,,,,,,,,,,,,gray,triangle
663.0,3.0,3.0,0.0,3.0,3.0,644.2012460001934,1.0,1.0,part_1,,,,,,,,,,,,,cyan,I
1313.0,8.0,4.0,1.0,3.0,3.0,475.2009639996686,1.0,1.0,part_1,,,,,,,,,,,,,blue,diamond
150.0,1.0,1.0,0.0,4.0,4.0,559.103239000251,1.0,1.0,part_1,,,,,,,,,,,,,gray,triangle
142.0,1.0,1.0,0.0,4.0,4.0,375.4486210000323,1.0,1.0,part_1,,,,,,,,,,,,,gray,triangle
0.0,2.0,0.0,0.0,2.0,2.0,400.7951570001751,1.0,2.0,part_1,,,,,,,,,,,,,magenta,circle
0.0,2.0,0.0,0.0,2.0,2.0,597.7361059999566,1.0,1.0,part_1,,,,,,,,,,,,,magenta,circle
177.0,1.0,1.0,0.0,2.0,2.0,400.7424339997669,1.0,1.0,part_1,,,,,,,,,,,,,gray,triangle
638.0,7.0,3.0,1.0,1.0,1.0,532.9380510002011,1.0,1.0,part_1,,,,,,,,,,,,,white,flipped triangle
0.0,1.0,0.0,0.0,3.0,3.0,605.8501069996964,1.0,1.0,part_1,,,,,,,,,,,,,gray,triangle
340.0,6.0,2.0,1.0,2.0,2.0,709.0925829998014,1.0,1.0,part_1,,,,,,,,,,,,,yellow,square
171.0,1.0,1.0,0.0,2.0,2.0,513.1969849999223,1.0,1.0,part_1,,,,,,,,,,,,,gray,triangle
1312.0,8.0,4.0,1.0,1.0,1.0,559.0318950003166,1.0,1.0,part_1,,,,,,,,,,,,,blue,diamond
626.0,3.0,3.0,0.0,2.0,2.0,373.6935700003414,1.0,1.0,part_1,,,,,,,,,,,,,cyan,I
320.0,2.0,2.0,0.0,1.0,1.0,456.5751339996495,1.0,1.0,part_1,,,,,,,,,,,,,magenta,circle
0.0,8.0,0.0,1.0,2.0,2.0,428.8374479997401,1.0,1.0,part_1,,,,,,,,,,,,,blue,diamond
0.0,5.0,0.0,1.0,1.0,1.0,373.1935740001972,1.0,1.0,part_1,,,,,,,,,,,,,orange,cross
663.0,3.0,3.0,0.0,1.0,1.0,577.11137699971,1.0,1.0,part_1,,,,,,,,,,,,,cyan,I
1293.0,4.0,4.0,0.0,2.0,2.0,420.1250860000982,1.0,1.0,part_1,,,,,,,,,,,,,green,hexagon
650.0,3.0,3.0,0.0,2.0,2.0,418.9985190000698,1.0,1.0,part_1,,,,,,,,,,,,,cyan,I
179.0,1.0,1.0,0.0,2.0,2.0,374.1056130002107,1.0,1.0,part_1,,,,,,,,,,,,,gray,triangle
0.0,6.0,0.0,1.0,2.0,2.0,418.7326700002813,1.0,1.0,part_1,,,,,,,,,,,,,yellow,square
1288.0,8.0,4.0,1.0,3.0,3.0,474.1688379999687,1.0,1.0,part_1,,,,,,,,,,,,,blue,diamond
347.0,2.0,2.0,0.0,2.0,2.0,449.2001059998074,1.0,1.0,part_1,,,,,,,,,,,,,magenta,circle
1317.0,4.0,4.0,0.0,3.0,3.0,437.449106999793,1.0,1.0,part_1,,,,,,,,,,,,,green,hexagon
1288.0,4.0,4.0,0.0,1.0,1.0,577.3000680001132,1.0,1.0,part_1,,,,,,,,,,,,,green,hexagon
1308.0,8.0,4.0,1.0,1.0,1.0,549.8793920000935,1.0,1.0,part_1,,,,,,,,,,,,,blue,diamond
319.0,2.0,2.0,0.0,4.0,4.0,502.5719879999997,1.0,2.0,part_1,,,,,,,,,,,,,magenta,circle
1277.0,8.0,4.0,1.0,1.0,1.0,633.3799499998349,1.0,1.0,part_1,,,,,,,,,,,,,blue,diamond
175.0,1.0,1.0,0.0,1.0,1.0,595.9025830002247,2.0,1.0,part_1,,,,,,,,,,,,,gray,triangle
0.0,8.0,0.0,1.0,1.0,1.0,532.3127369997565,2.0,1.0,part_1,,,,,,,,,,,,,blue,diamond
626.0,7.0,3.0,1.0,1.0,1.0,633.3708050001405,2.0,1.0,part_1,,,,,,,,,,,,,white,flipped triangle
639.0,7.0,3.0,1.0,4.0,4.0,662.208162999832,2.0,1.0,part_1,,,,,,,,,,,,,white,flipped triangle
1307.0,4.0,4.0,0.0,4.0,4.0,578.4282159997929,2.0,1.0,part_1,,,,,,,,,,,,,green,hexagon
138.0,5.0,1.0,1.0,3.0,3.0,522.158811999816,2.0,1.0,part_1,,,,,,,,,,,,,orange,cross
1325.0,8.0,4.0,1.0,4.0,4.0,514.4351169997208,2.0,1.0,part_1,,,,,,,,,,,,,blue,diamond
319.0,6.0,2.0,1.0,3.0,3.0,513.3686240001225,2.0,1.0,part_1,,,,,,,,,,,,,yellow,square
312.0,6.0,2.0,1.0,1.0,1.0,475.4977790003067,2.0,1.0,part_1,,,,,,,,,,,,,yellow,square
0.0,4.0,0.0,0.0,1.0,1.0,586.9381709999288,2.0,1.0,part_1,,,,,,,,,,,,,green,hexagon
304.0,6.0,2.0,1.0,3.0,3.0,475.5395410002165,2.0,1.0,part_1,,,,,,,,,,,,,yellow,square
1298.0,8.0,4.0,1.0,2.0,2.0,551.676395999948,2.0,1.0,part_1,,,,,,,,,,,,,blue,diamond
158.0,5.0,1.0,1.0,1.0,1.0,957.8196020001996,2.0,1.0,part_1,,,,,,,,,,,,,orange,cross
0.0,4.0,0.0,0.0,3.0,3.0,486.7931559997487,2.0,1.0,part_1,,,,,,,,,,,,,green,hexagon
1301.0,8.0,4.0,1.0,1.0,1.0,587.585303999731,2.0,1.0,part_1,,,,,,,,,,,,,blue,diamond
1322.0,8.0,4.0,1.0,2.0,2.0,808.8257920003343,2.0,2.0,part_1,,,,,,,,,,,,,blue,diamond
1319.0,8.0,4.0,1.0,1.0,1.0,448.1389709999348,2.0,1.0,part_1,,,,,,,,,,,,,blue,diamond
160.0,1.0,1.0,0.0,3.0,3.0,467.0272449998265,2.0,1.0,part_1,,,,,,,,,,,,,gray,triangle
343.0,6.0,2.0,1.0,4.0,4.0,551.3967680003589,2.0,1.0,part_1,,,,,,,,,,,,,yellow,square
0.0,8.0,0.0,1.0,2.0,2.0,502.7791449997494,2.0,1.0,part_1,,,,,,,,,,,,,blue,diamond
1282.0,4.0,4.0,0.0,3.0,3.0,904.5023240000774,2.0,1.0,part_1,,,,,,,,,,,,,green,hexagon
138.0,5.0,1.0,1.0,2.0,2.0,875.5927619999966,2.0,1.0,part_1,,,,,,,,,,,,,orange,cross
161.0,1.0,1.0,0.0,1.0,1.0,783.2385779997821,2.0,1.0,part_1,,,,,,,,,,,,,gray,triangle
183.0,1.0,1.0,0.0,1.0,1.0,569.0326859999004,2.0,1.0,part_1,,,,,,,,,,,,,gray,triangle
0.0,2.0,0.0,0.0,4.0,4.0,588.5393119997389,2.0,1.0,part_1,,,,,,,,,,,,,magenta,circle
0.0,7.0,0.0,1.0,2.0,2.0,476.2773389998074,2.0,1.0,part_1,,,,,,,,,,,,,white,flipped triangle
666.0,3.0,3.0,0.0,2.0,2.0,399.1985100001329,2.0,1.0,part_1,,,,,,,,,,,,,cyan,I
0.0,7.0,0.0,1.0,4.0,4.0,446.6038549999211,2.0,1.0,part_1,,,,,,,,,,,,,white,flipped triangle
0.0,1.0,0.0,0.0,2.0,2.0,512.8792560003603,2.0,1.0,part_1,,,,,,,,,,,,,gray,triangle
0.0,1.0,0.0,0.0,4.0,4.0,501.732770000217,2.0,1.0,part_1,,,,,,,,,,,,,gray,triangle
1320.0,4.0,4.0,0.0,4.0,4.0,531.4205169997877,2.0,1.0,part_1,,,,,,,,,,,,,green,hexagon
1287.0,8.0,4.0,1.0,2.0,2.0,594.8567740001636,2.0,1.0,part_1,,,,,,,,,,,,,blue,diamond
1320.0,8.0,4.0,1.0,4.0,4.0,707.14161900014,2.0,1.0,part_1,,,,,,,,,,,,,blue,diamond
0.0,4.0,0.0,0.0,3.0,3.0,708.304570999644,2.0,1.0,part_1,,,,,,,,,,,,,green,hexagon
328.0,2.0,2.0,0.0,2.0,2.0,568.8975410002968,2.0,1.0,part_1,,,,,,,,,,,,,magenta,circle
651.0,7.0,3.0,1.0,4.0,4.0,447.2933079996437,2.0,1.0,part_1,,,,,,,,,,,,,white,flipped triangle
654.0,3.0,3.0,0.0,3.0,3.0,512.1696969999903,2.0,1.0,part_1,,,,,,,,,,,,,cyan,I
161.0,5.0,1.0,1.0,2.0,2.0,381.0606340002778,2.0,1.0,part_1,,,,,,,,,,,,,orange,cross
641.0,3.0,3.0,0.0,4.0,4.0,689.154206999774,2.0,1.0,part_1,,,,,,,,,,,,,cyan,I
663.0,7.0,3.0,1.0,1.0,1.0,391.9028159998561,2.0,1.0,part_1,,,,,,,,,,,,,white,flipped triangle
0.0,7.0,0.0,1.0,4.0,4.0,474.1381560002082,2.0,1.0,part_1,,,,,,,,,,,,,white,flipped triangle
177.0,5.0,1.0,1.0,4.0,4.0,498.2071750000614,2.0,1.0,part_1,,,,,,,,,,,,,orange,cross
0.0,8.0,0.0,1.0,1.0,1.0,568.1561950000287,2.0,1.0,part_1,,,,,,,,,,,,,blue,diamond
1319.0,4.0,4.0,0.0,4.0,4.0,513.2600540000567,2.0,1.0,part_1,,,,,,,,,,,,,green,hexagon
150.0,1.0,1.0,0.0,2.0,2.0,449.0334800002529,2.0,1.0,part_1,,,,,,,,,,,,,gray,triangle
140.0,1.0,1.0,0.0,1.0,1.0,530.2655110003798,2.0,1.0,part_1,,,,,,,,,,,,,gray,triangle
673.0,7.0,3.0,1.0,1.0,1.0,447.9493829999228,2.0,1.0,part_1,,,,,,,,,,,,,white,flipped triangle
644.0,7.0,3.0,1.0,3.0,3.0,381.8112560002191,2.0,1.0,part_1,,,,,,,,,,,,,white,flipped triangle
0.0,3.0,0.0,0.0,4.0,4.0,474.2271770001025,2.0,1.0,part_1,,,,,,,,,,,,,cyan,I
140.0,5.0,1.0,1.0,2.0,2.0,354.7350339999866,2.0,1.0,part_1,,,,,,,,,,,,,orange,cross
1301.0,4.0,4.0,0.0,3.0,3.0,504.52053900016836,2.0,1.0,part_1,,,,,,,,,,,,,green,hexagon
166.0,5.0,1.0,1.0,1.0,1.0,492.9864189998625,2.0,1.0,part_1,,,,,,,,,,,,,orange,cross
338.0,6.0,2.0,1.0,3.0,3.0,354.3320669996319,2.0,1.0,part_1,,,,,,,,,,,,,yellow,square
138.0,1.0,1.0,0.0,4.0,4.0,839.1593460000877,2.0,1.0,part_1,,,,,,,,,,,,,gray,triangle
347.0,6.0,2.0,1.0,4.0,4.0,484.2405080003118,2.0,1.0,part_1,,,,,,,,,,,,,yellow,square
1280.0,8.0,4.0,1.0,4.0,4.0,567.6935850001428,2.0,1.0,part_1,,,,,,,,,,,,,blue,diamond
0.0,1.0,0.0,0.0,4.0,4.0,614.2599110003175,2.0,1.0,part_1,,,,,,,,,,,,,gray,triangle
0.0,3.0,0.0,0.0,3.0,3.0,504.0552079999543,2.0,1.0,part_1,,,,,,,,,,,,,cyan,I
649.0,7.0,3.0,1.0,1.0,1.0,493.8355770000271,2.0,1.0,part_1,,,,,,,,,,,,,white,flipped triangle
319.0,6.0,2.0,1.0,2.0,2.0,511.84438300015245,2.0,1.0,part_1,,,,,,,,,,,,,yellow,square
0.0,7.0,0.0,1.0,3.0,3.0,493.2753820003199,2.0,1.0,part_1,,,,,,,,,,,,,white,flipped triangle
644.0,7.0,3.0,1.0,4.0,4.0,483.595183000034,2.0,1.0,part_1,,,,,,,,,,,,,white,flipped triangle
640.0,7.0,3.0,1.0,3.0,3.0,530.7505529999617,2.0,1.0,part_1,,,,,,,,,,,,,white,flipped triangle
1298.0,4.0,4.0,0.0,1.0,1.0,456.9145020000178,2.0,1.0,part_1,,,,,,,,,,,,,green,hexagon
0.0,4.0,0.0,0.0,1.0,1.0,576.1220130002584,2.0,1.0,part_1,,,,,,,,,,,,,green,hexagon
304.0,6.0,2.0,1.0,3.0,3.0,837.4138889998903,2.0,2.0,part_1,,,,,,,,,,,,,yellow,square
652.0,3.0,3.0,0.0,4.0,4.0,465.7099730002301,2.0,1.0,part_1,,,,,,,,,,,,,cyan,I
310.0,2.0,2.0,0.0,3.0,3.0,410.4718869998578,2.0,1.0,part_1,,,,,,,,,,,,,magenta,circle
634.0,3.0,3.0,0.0,2.0,2.0,373.0741360000138,2.0,1.0,part_1,,,,,,,,,,,,,cyan,I
338.0,6.0,2.0,1.0,1.0,1.0,456.6307680001955,2.0,1.0,part_1,,,,,,,,,,,,,yellow,square
173.0,1.0,1.0,0.0,1.0,1.0,557.7033059998939,2.0,1.0,part_1,,,,,,,,,,,,,gray,triangle
1321.0,4.0,4.0,0.0,2.0,2.0,316.490039999735,2.0,1.0,part_1,,,,,,,,,,,,,green,hexagon
0.0,4.0,0.0,0.0,1.0,1.0,550.3910590000487,2.0,2.0,part_1,,,,,,,,,,,,,green,hexagon
0.0,3.0,0.0,0.0,1.0,1.0,428.6764379999113,2.0,1.0,part_1,,,,,,,,,,,,,cyan,I
141.0,1.0,1.0,0.0,3.0,3.0,511.8169009997473,2.0,1.0,part_1,,,,,,,,,,,,,gray,triangle
0.0,3.0,0.0,0.0,1.0,1.0,446.4270020002914,2.0,1.0,part_1,,,,,,,,,,,,,cyan,I
0.0,6.0,0.0,1.0,3.0,3.0,475.2906840003561,2.0,1.0,part_1,,,,,,,,,,,,,yellow,square
170.0,1.0,1.0,0.0,3.0,3.0,391.6392880000785,2.0,1.0,part_1,,,,,,,,,,,,,gray,triangle
0.0,8.0,0.0,1.0,4.0,4.0,540.4043070002444,2.0,1.0,part_1,,,,,,,,,,,,,blue,diamond
650.0,7.0,3.0,1.0,2.0,2.0,428.6947890000192,2.0,1.0,part_1,,,,,,,,,,,,,white,flipped triangle
1283.0,8.0,4.0,1.0,3.0,3.0,381.0044500000913,2.0,1.0,part_1,,,,,,,,,,,,,blue,diamond
660.0,7.0,3.0,1.0,2.0,2.0,596.937890999925,2.0,1.0,part_1,,,,,,,,,,,,,white,flipped triangle
651.0,3.0,3.0,0.0,3.0,3.0,409.6200229996611,2.0,1.0,part_1,,,,,,,,,,,,,cyan,I
156.0,1.0,1.0,0.0,2.0,2.0,446.7107749997012,2.0,1.0,part_1,,,,,,,,,,,,,gray,triangle
1320.0,8.0,4.0,1.0,3.0,3.0,401.6990670002087,2.0,1.0,part_1,,,,,,,,,,,,,blue,diamond
652.0,7.0,3.0,1.0,2.0,2.0,464.5089860000553,2.0,1.0,part_1,,,,,,,,,,,,,white,flipped triangle
173.0,5.0,1.0,1.0,1.0,1.0,929.8211769996668,2.0,1.0,part_1,,,,,,,,,,,,,orange,cross
159.0,5.0,1.0,1.0,2.0,2.0,446.4198430000579,2.0,1.0,part_1,,,,,,,,,,,,,orange,cross
170.0,1.0,1.0,0.0,4.0,4.0,419.6570080002857,2.0,1.0,part_1,,,,,,,,,,,,,gray,triangle
1322.0,8.0,4.0,1.0,3.0,3.0,466.3730539996322,2.0,1.0,part_1,,,,,,,,,,,,,blue,diamond
0.0,4.0,0.0,0.0,4.0,4.0,625.525707000179,2.0,1.0,part_1,,,,,,,,,,,,,green,hexagon
0.0,2.0,0.0,0.0,4.0,4.0,512.7546419998907,2.0,1.0,part_1,,,,,,,,,,,,,magenta,circle
673.0,7.0,3.0,1.0,4.0,4.0,446.3231019999512,2.0,1.0,part_1,,,,,,,,,,,,,white,flipped triangle
1305.0,4.0,4.0,0.0,3.0,3.0,576.5177719999883,2.0,1.0,part_1,,,,,,,,,,,,,green,hexagon
0.0,4.0,0.0,0.0,1.0,1.0,476.1692080001012,2.0,1.0,part_1,,,,,,,,,,,,,green,hexagon
302.0,2.0,2.0,0.0,3.0,3.0,438.3086339998954,2.0,1.0,part_1,,,,,,,,,,,,,magenta,circle
162.0,5.0,1.0,1.0,3.0,3.0,541.5689139999813,2.0,1.0,part_1,,,,,,,,,,,,,orange,cross
635.0,3.0,3.0,0.0,2.0,2.0,568.2217520002268,2.0,1.0,part_1,,,,,,,,,,,,,cyan,I
185.0,1.0,1.0,0.0,1.0,1.0,754.186251000192,2.0,1.0,part_1,,,,,,,,,,,,,gray,triangle
305.0,2.0,2.0,0.0,3.0,3.0,520.6450769996991,2.0,1.0,part_1,,,,,,,,,,,,,magenta,circle
655.0,3.0,3.0,0.0,3.0,3.0,448.7685720000627,3.0,1.0,part_1,,,,,,,,,,,,,cyan,I
177.0,5.0,1.0,1.0,3.0,3.0,409.8653649998596,3.0,1.0,part_1,,,,,,,,,,,,,orange,cross
312.0,2.0,2.0,0.0,2.0,2.0,466.1358040002596,3.0,2.0,part_1,,,,,,,,,,,,,magenta,circle
652.0,7.0,3.0,1.0,2.0,2.0,407.0767349999187,3.0,1.0,part_1,,,,,,,,,,,,,white,flipped triangle
310.0,6.0,2.0,1.0,1.0,1.0,390.5608459999712,3.0,1.0,part_1,,,,,,,,,,,,,yellow,square
1321.0,8.0,4.0,1.0,4.0,4.0,493.4623859999192,3.0,1.0,part_1,,,,,,,,,,,,,blue,diamond
0.0,6.0,0.0,1.0,1.0,1.0,531.4031429998067,3.0,1.0,part_1,,,,,,,,,,,,,yellow,square
150.0,5.0,1.0,1.0,1.0,1.0,474.6890999999777,3.0,1.0,part_1,,,,,,,,,,,,,orange,cross
0.0,6.0,0.0,1.0,3.0,3.0,550.1746300001287,3.0,1.0,part_1,,,,,,,,,,,,,yellow,square
669.0,3.0,3.0,0.0,3.0,3.0,521.6273510000065,3.0,1.0,part_1,,,,,,,,,,,,,cyan,I
1295.0,4.0,4.0,0.0,4.0,4.0,670.3244039999845,3.0,1.0,part_1,,,,,,,,,,,,,green,hexagon
666.0,7.0,3.0,1.0,2.0,2.0,456.6212820000146,3.0,1.0,part_1,,,,,,,,,,,,,white,flipped triangle
156.0,5.0,1.0,1.0,1.0,1.0,428.3774139998968,3.0,1.0,part_1,,,,,,,,,,,,,orange,cross
1287.0,8.0,4.0,1.0,3.0,3.0,539.9034450001636,3.0,1.0,part_1,,,,,,,,,,,,,blue,diamond
641.0,7.0,3.0,1.0,4.0,4.0,447.0980689998214,3.0,1.0,part_1,,,,,,,,,,,,,white,flipped triangle
0.0,2.0,0.0,0.0,3.0,3.0,400.8184959998289,3.0,1.0,part_1,,,,,,,,,,,,,magenta,circle
328.0,2.0,2.0,0.0,1.0,1.0,486.329853999905,3.0,1.0,part_1,,,,,,,,,,,,,magenta,circle
160.0,5.0,1.0,1.0,2.0,2.0,373.2669029996032,3.0,2.0,part_1,,,,,,,,,,,,,orange,cross
346.0,2.0,2.0,0.0,4.0,4.0,541.2156510001296,3.0,1.0,part_1,,,,,,,,,,,,,magenta,circle
667.0,7.0,3.0,1.0,3.0,3.0,363.9804819999881,3.0,1.0,part_1,,,,,,,,,,,,,white,flipped triangle
651.0,3.0,3.0,0.0,2.0,2.0,336.1794699999336,3.0,1.0,part_1,,,,,,,,,,,,,cyan,I
649.0,3.0,3.0,0.0,1.0,1.0,410.9322030003568,3.0,1.0,part_1,,,,,,,,,,,,,cyan,I
0.0,4.0,0.0,0.0,4.0,4.0,438.2411560000037,3.0,1.0,part_1,,,,,,,,,,,,,green,hexagon
632.0,7.0,3.0,1.0,1.0,1.0,438.9102260001891,3.0,1.0,part_1,,,,,,,,,,,,,white,flipped triangle
0.0,1.0,0.0,0.0,3.0,3.0,474.8805929998525,3.0,1.0,part_1,,,,,,,,,,,,,gray,triangle
634.0,7.0,3.0,1.0,1.0,1.0,439.8236060001181,3.0,1.0,part_1,,,,,,,,,,,,,white,flipped triangle
0.0,8.0,0.0,1.0,4.0,4.0,513.8540200000534,3.0,1.0,part_1,,,,,,,,,,,,,blue,diamond
1276.0,8.0,4.0,1.0,2.0,2.0,541.6522460000124,3.0,1.0,part_1,,,,,,,,,,,,,blue,diamond
320.0,2.0,2.0,0.0,4.0,4.0,522.4854330003836,3.0,1.0,part_1,,,,,,,,,,,,,magenta,circle
1276.0,8.0,4.0,1.0,4.0,4.0,514.3020949999482,3.0,1.0,part_1,,,,,,,,,,,,,blue,diamond
649.0,3.0,3.0,0.0,3.0,3.0,439.0789389999554,3.0,1.0,part_1,,,,,,,,,,,,,cyan,I
184.0,5.0,1.0,1.0,3.0,3.0,456.4879220001785,3.0,1.0,part_1,,,,,,,,,,,,,orange,cross
0.0,2.0,0.0,0.0,4.0,4.0,514.002623000124,3.0,1.0,part_1,,,,,,,,,,,,,magenta,circle
669.0,7.0,3.0,1.0,1.0,1.0,503.02712699976837,3.0,1.0,part_1,,,,,,,,,,,,,white,flipped triangle
305.0,2.0,2.0,0.0,1.0,1.0,475.3825149996373,3.0,1.0,part_1,,,,,,,,,,,,,magenta,circle
345.0,2.0,2.0,0.0,2.0,2.0,449.2812150001555,3.0,1.0,part_1,,,,,,,,,,,,,magenta,circle
138.0,1.0,1.0,0.0,1.0,1.0,577.5442320000366,3.0,1.0,part_1,,,,,,,,,,,,,gray,triangle
340.0,2.0,2.0,0.0,1.0,1.0,559.0766310001527,3.0,1.0,part_1,,,,,,,,,,,,,magenta,circle
305.0,6.0,2.0,1.0,2.0,2.0,605.213072999959,3.0,1.0,part_1,,,,,,,,,,,,,yellow,square
1277.0,8.0,4.0,1.0,1.0,1.0,494.7389129997646,3.0,1.0,part_1,,,,,,,,,,,,,blue,diamond
1276.0,4.0,4.0,0.0,2.0,2.0,522.0770989999437,3.0,1.0,part_1,,,,,,,,,,,,,green,hexagon
655.0,7.0,3.0,1.0,2.0,2.0,557.862593000209,3.0,1.0,part_1,,,,,,,,,,,,,white,flipped triangle
330.0,2.0,2.0,0.0,4.0,4.0,512.3547979997056,3.0,1.0,part_1,,,,,,,,,,,,,magenta,circle
641.0,3.0,3.0,0.0,2.0,2.0,468.0547009998008,3.0,1.0,part_1,,,,,,,,,,,,,cyan,I
1276.0,8.0,4.0,1.0,2.0,2.0,448.8053400000353,3.0,1.0,part_1,,,,,,,,,,,,,blue,diamond
1277.0,4.0,4.0,0.0,4.0,4.0,652.4107770001137,3.0,1.0,part_1,,,,,,,,,,,,,green,hexagon
1303.0,8.0,4.0,1.0,2.0,2.0,512.6396620003106,3.0,1.0,part_1,,,,,,,,,,,,,blue,diamond
345.0,2.0,2.0,0.0,3.0,3.0,606.8744549997973,3.0,1.0,part_1,,,,,,,,,,,,,magenta,circle
345.0,6.0,2.0,1.0,3.0,3.0,428.2882859997698,3.0,1.0,part_1,,,,,,,,,,,,,yellow,square
0.0,3.0,0.0,0.0,2.0,2.0,485.2341420000812,3.0,1.0,part_1,,,,,,,,,,,,,cyan,I
329.0,6.0,2.0,1.0,1.0,1.0,587.2190159998354,3.0,1.0,part_1,,,,,,,,,,,,,yellow,square
0.0,5.0,0.0,1.0,2.0,2.0,440.1130410001315,3.0,1.0,part_1,,,,,,,,,,,,,orange,cross
656.0,3.0,3.0,0.0,2.0,2.0,465.1279709996743,3.0,1.0,part_1,,,,,,,,,,,,,cyan,I
330.0,2.0,2.0,0.0,3.0,3.0,447.7690890003032,3.0,1.0,part_1,,,,,,,,,,,,,magenta,circle
302.0,6.0,2.0,1.0,4.0,4.0,661.8574560002344,3.0,1.0,part_1,,,,,,,,,,,,,yellow,square
170.0,5.0,1.0,1.0,1.0,1.0,606.4692690001721,3.0,1.0,part_1,,,,,,,,,,,,,orange,cross
651.0,7.0,3.0,1.0,2.0,2.0,400.671052999769,3.0,1.0,part_1,,,,,,,,,,,,,white,flipped triangle
1295.0,8.0,4.0,1.0,3.0,3.0,654.5629960000952,3.0,1.0,part_1,,,,,,,,,,,,,blue,diamond
177.0,1.0,1.0,0.0,3.0,3.0,438.9009610003995,3.0,1.0,part_1,,,,,,,,,,,,,gray,triangle
1314.0,4.0,4.0,0.0,3.0,3.0,409.9929970002449,3.0,1.0,part_1,,,,,,,,,,,,,green,hexagon
0.0,6.0,0.0,1.0,3.0,3.0,447.5630360002469,3.0,1.0,part_1,,,,,,,,,,,,,yellow,square
338.0,2.0,2.0,0.0,4.0,4.0,745.8203950000097,3.0,1.0,part_1,,,,,,,,,,,,,magenta,circle
666.0,7.0,3.0,1.0,3.0,3.0,542.2659219998422,3.0,1.0,part_1,,,,,,,,,,,,,white,flipped triangle
338.0,6.0,2.0,1.0,1.0,1.0,627.1912719998909,3.0,1.0,part_1,,,,,,,,,,,,,yellow,square
0.0,1.0,0.0,0.0,4.0,4.0,580.0718210002742,3.0,1.0,part_1,,,,,,,,,,,,,gray,triangle
1316.0,4.0,4.0,0.0,2.0,2.0,540.8726320001733,3.0,1.0,part_1,,,,,,,,,,,,,green,hexagon
0.0,5.0,0.0,1.0,4.0,4.0,577.4068020000414,3.0,1.0,part_1,,,,,,,,,,,,,orange,cross
340.0,6.0,2.0,1.0,4.0,4.0,494.314581999788,3.0,1.0,part_1,,,,,,,,,,,,,yellow,square
1282.0,8.0,4.0,1.0,2.0,2.0,448.2879889997093,3.0,1.0,part_1,,,,,,,,,,,,,blue,diamond
0.0,7.0,0.0,1.0,4.0,4.0,643.5944330000893,3.0,1.0,part_1,,,,,,,,,,,,,white,flipped triangle
330.0,6.0,2.0,1.0,2.0,2.0,651.952256000186,3.0,1.0,part_1,,,,,,,,,,,,,yellow,square
634.0,7.0,3.0,1.0,3.0,3.0,410.3969130001133,3.0,1.0,part_1,,,,,,,,,,,,,white,flipped triangle
0.0,6.0,0.0,1.0,4.0,4.0,448.0625040000632,3.0,1.0,part_1,,,,,,,,,,,,,yellow,square
1314.0,4.0,4.0,0.0,2.0,2.0,596.9818720000148,3.0,1.0,part_1,,,,,,,,,,,,,green,hexagon
304.0,2.0,2.0,0.0,2.0,2.0,522.2861880001801,3.0,1.0,part_1,,,,,,,,,,,,,magenta,circle
328.0,6.0,2.0,1.0,4.0,4.0,959.9877089999608,3.0,1.0,part_1,,,,,,,,,,,,,yellow,square
635.0,7.0,3.0,1.0,4.0,4.0,866.3304410001729,3.0,1.0,part_1,,,,,,,,,,,,,white,flipped triangle
1323.0,8.0,4.0,1.0,4.0,4.0,755.3253750002114,3.0,1.0,part_1,,,,,,,,,,,,,blue,diamond
652.0,3.0,3.0,0.0,1.0,1.0,446.8444750000344,3.0,2.0,part_1,,,,,,,,,,,,,cyan,I
159.0,5.0,1.0,1.0,1.0,1.0,401.1822620000203,3.0,1.0,part_1,,,,,,,,,,,,,orange,cross
673.0,3.0,3.0,0.0,4.0,4.0,522.2192830001404,3.0,1.0,part_1,,,,,,,,,,,,,cyan,I
180.0,1.0,1.0,0.0,4.0,4.0,449.2777810000916,3.0,1.0,part_1,,,,,,,,,,,,,gray,triangle
159.0,1.0,1.0,0.0,2.0,2.0,438.030764999894,3.0,1.0,part_1,,,,,,,,,,,,,gray,triangle
328.0,2.0,2.0,0.0,2.0,2.0,438.1244619999052,3.0,1.0,part_1,,,,,,,,,,,,,magenta,circle
0.0,6.0,0.0,1.0,1.0,1.0,364.1646860000946,3.0,1.0,part_1,,,,,,,,,,,,,yellow,square
172.0,5.0,1.0,1.0,1.0,1.0,785.7666780000727,3.0,1.0,part_1,,,,,,,,,,,,,orange,cross
160.0,1.0,1.0,0.0,4.0,4.0,488.7793470002179,3.0,1.0,part_1,,,,,,,,,,,,,gray,triangle
310.0,6.0,2.0,1.0,2.0,2.0,385.9666019998258,3.0,1.0,part_1,,,,,,,,,,,,,yellow,square
156.0,1.0,1.0,0.0,3.0,3.0,421.5669730001536,3.0,1.0,part_1,,,,,,,,,,,,,gray,triangle
0.0,5.0,0.0,1.0,1.0,1.0,364.136432000123,3.0,1.0,part_1,,,,,,,,,,,,,orange,cross
320.0,6.0,2.0,1.0,1.0,1.0,392.3939359997348,3.0,1.0,part_1,,,,,,,,,,,,,yellow,square
0.0,5.0,0.0,1.0,1.0,1.0,419.2632150002282,3.0,1.0,part_1,,,,,,,,,,,,,orange,cross
631.0,7.0,3.0,1.0,1.0,1.0,392.2334260000752,3.0,1.0,part_1,,,,,,,,,,,,,white,flipped triangle
319.0,2.0,2.0,0.0,1.0,1.0,392.0706809999501,3.0,1.0,part_1,,,,,,,,,,,,,magenta,circle
311.0,2.0,2.0,0.0,4.0,4.0,447.1528990002298,3.0,1.0,part_1,,,,,,,,,,,,,magenta,circle
659.0,7.0,3.0,1.0,2.0,2.0,494.692565999685,3.0,1.0,part_1,,,,,,,,,,,,,white,flipped triangle
168.0,1.0,1.0,0.0,2.0,2.0,447.7421569999933,3.0,1.0,part_1,,,,,,,,,,,,,gray,triangle
1302.0,4.0,4.0,0.0,4.0,4.0,803.8976759999059,3.0,1.0,part_1,,,,,,,,,,,,,green,hexagon
150.0,5.0,1.0,1.0,1.0,1.0,882.2049739997055,3.0,1.0,part_1,,,,,,,,,,,,,orange,cross
325.0,6.0,2.0,1.0,3.0,3.0,466.2798749996,3.0,1.0,part_1,,,,,,,,,,,,,yellow,square
150.0,1.0,1.0,0.0,2.0,2.0,429.8242569998365,4.0,1.0,part_1,,,,,,,,,,,,,gray,triangle
0.0,8.0,0.0,1.0,2.0,2.0,521.3297299997066,4.0,1.0,part_1,,,,,,,,,,,,,blue,diamond
1307.0,8.0,4.0,1.0,4.0,4.0,949.1145409997443,4.0,1.0,part_1,,,,,,,,,,,,,blue,diamond
1313.0,4.0,4.0,0.0,3.0,3.0,430.0326369998402,4.0,2.0,part_1,,,,,,,,,,,,,green,hexagon
338.0,2.0,2.0,0.0,3.0,3.0,410.6845969999995,4.0,1.0,part_1,,,,,,,,,,,,,magenta,circle
183.0,5.0,1.0,1.0,4.0,4.0,400.9040149999237,4.0,1.0,part_1,,,,,,,,,,,,,orange,cross
639.0,3.0,3.0,0.0,1.0,1.0,446.4187339999625,4.0,1.0,part_1,,,,,,,,,,,,,cyan,I
662.0,7.0,3.0,1.0,4.0,4.0,465.6073460000698,4.0,1.0,part_1,,,,,,,,,,,,,white,flipped triangle
647.0,3.0,3.0,0.0,1.0,1.0,641.9672540000647,4.0,1.0,part_1,,,,,,,,,,,,,cyan,I
1276.0,4.0,4.0,0.0,1.0,1.0,466.1996830000134,4.0,1.0,part_1,,,,,,,,,,,,,green,hexagon
306.0,2.0,2.0,0.0,1.0,1.0,423.2405050001944,4.0,1.0,part_1,,,,,,,,,,,,,magenta,circle
0.0,4.0,0.0,0.0,4.0,4.0,438.6837170000035,4.0,1.0,part_1,,,,,,,,,,,,,green,hexagon
1285.0,8.0,4.0,1.0,1.0,1.0,521.4581239997642,4.0,1.0,part_1,,,,,,,,,,,,,blue,diamond
170.0,5.0,1.0,1.0,4.0,4.0,450.6779409998671,4.0,1.0,part_1,,,,,,,,,,,,,orange,cross
150.0,5.0,1.0,1.0,4.0,4.0,455.5025100003149,4.0,1.0,part_1,,,,,,,,,,,,,orange,cross
311.0,6.0,2.0,1.0,1.0,1.0,474.7237009996752,4.0,1.0,part_1,,,,,,,,,,,,,yellow,square
0.0,7.0,0.0,1.0,2.0,2.0,485.7833549999668,4.0,1.0,part_1,,,,,,,,,,,,,white,flipped triangle
0.0,1.0,0.0,0.0,4.0,4.0,390.1639430000614,4.0,1.0,part_1,,,,,,,,,,,,,gray,triangle
1303.0,4.0,4.0,0.0,2.0,2.0,418.4524990000682,4.0,1.0,part_1,,,,,,,,,,,,,green,hexagon
0.0,6.0,0.0,1.0,1.0,1.0,428.7655699999959,4.0,1.0,part_1,,,,,,,,,,,,,yellow,square
0.0,7.0,0.0,1.0,1.0,1.0,400.0213740000617,4.0,1.0,part_1,,,,,,,,,,,,,white,flipped triangle
0.0,1.0,0.0,0.0,2.0,2.0,391.9061209999199,4.0,2.0,part_1,,,,,,,,,,,,,gray,triangle
0.0,8.0,0.0,1.0,2.0,2.0,382.7391990002979,4.0,1.0,part_1,,,,,,,,,,,,,blue,diamond
1312.0,4.0,4.0,0.0,1.0,1.0,438.6157180001646,4.0,1.0,part_1,,,,,,,,,,,,,green,hexagon
168.0,5.0,1.0,1.0,3.0,3.0,474.9852689997169,4.0,1.0,part_1,,,,,,,,,,,,,orange,cross
347.0,6.0,2.0,1.0,2.0,2.0,447.8054169999268,4.0,1.0,part_1,,,,,,,,,,,,,yellow,square
1287.0,4.0,4.0,0.0,3.0,3.0,475.5702969996491,4.0,1.0,part_1,,,,,,,,,,,,,green,hexagon
169.0,5.0,1.0,1.0,3.0,3.0,466.7713469998489,4.0,1.0,part_1,,,,,,,,,,,,,orange,cross
347.0,2.0,2.0,0.0,4.0,4.0,559.1141600002629,4.0,1.0,part_1,,,,,,,,,,,,,magenta,circle
0.0,7.0,0.0,1.0,3.0,3.0,455.7884549999471,4.0,1.0,part_1,,,,,,,,,,,,,white,flipped triangle
0.0,4.0,0.0,0.0,1.0,1.0,568.0312419999609,4.0,1.0,part_1,,,,,,,,,,,,,green,hexagon
660.0,3.0,3.0,0.0,2.0,2.0,595.6183180001062,4.0,1.0,part_1,,,,,,,,,,,,,cyan,I
1305.0,8.0,4.0,1.0,4.0,4.0,493.0277630001001,4.0,1.0,part_1,,,,,,,,,,,,,blue,diamond
0.0,3.0,0.0,0.0,2.0,2.0,474.8995509999076,4.0,1.0,part_1,,,,,,,,,,,,,cyan,I
656.0,7.0,3.0,1.0,2.0,2.0,643.998924999778,4.0,1.0,part_1,,,,,,,,,,,,,white,flipped triangle
0.0,6.0,0.0,1.0,3.0,3.0,466.4975309997317,4.0,1.0,part_1,,,,,,,,,,,,,yellow,square
627.0,3.0,3.0,0.0,3.0,3.0,392.0445310000104,4.0,1.0,part_1,,,,,,,,,,,,,cyan,I
1302.0,8.0,4.0,1.0,3.0,3.0,410.6932620002226,4.0,1.0,part_1,,,,,,,,,,,,,blue,diamond
330.0,6.0,2.0,1.0,2.0,2.0,381.0184240001035,4.0,1.0,part_1,,,,,,,,,,,,,yellow,square
328.0,6.0,2.0,1.0,4.0,4.0,531.4086900002621,4.0,1.0,part_1,,,,,,,,,,,,,yellow,square
0.0,8.0,0.0,1.0,3.0,3.0,484.4128949998776,4.0,1.0,part_1,,,,,,,,,,,,,blue,diamond
649.0,7.0,3.0,1.0,3.0,3.0,437.7692170000955,4.0,1.0,part_1,,,,,,,,,,,,,white,flipped triangle
1320.0,4.0,4.0,0.0,1.0,1.0,540.4991870000231,4.0,1.0,part_1,,,,,,,,,,,,,green,hexagon
627.0,7.0,3.0,1.0,4.0,4.0,485.1374849999956,4.0,1.0,part_1,,,,,,,,,,,,,white,flipped triangle
347.0,2.0,2.0,0.0,3.0,3.0,474.9365689999649,4.0,1.0,part_1,,,,,,,,,,,,,magenta,circle
141.0,5.0,1.0,1.0,3.0,3.0,502.87110499994014,4.0,1.0,part_1,,,,,,,,,,,,,orange,cross
661.0,7.0,3.0,1.0,3.0,3.0,344.3185320002158,4.0,1.0,part_1,,,,,,,,,,,,,white,flipped triangle
661.0,3.0,3.0,0.0,1.0,1.0,475.673671000095,4.0,1.0,part_1,,,,,,,,,,,,,cyan,I
301.0,2.0,2.0,0.0,2.0,2.0,596.0513290001472,4.0,1.0,part_1,,,,,,,,,,,,,magenta,circle
651.0,3.0,3.0,0.0,2.0,2.0,410.4312660001596,4.0,1.0,part_1,,,,,,,,,,,,,cyan,I
0.0,3.0,0.0,0.0,4.0,4.0,855.6024269996669,4.0,1.0,part_1,,,,,,,,,,,,,cyan,I
310.0,2.0,2.0,0.0,4.0,4.0,660.8685450000849,4.0,1.0,part_1,,,,,,,,,,,,,magenta,circle
632.0,3.0,3.0,0.0,1.0,1.0,520.8174280001003,4.0,1.0,part_1,,,,,,,,,,,,,cyan,I
304.0,2.0,2.0,0.0,1.0,1.0,428.3514559997456,4.0,1.0,part_1,,,,,,,,,,,,,magenta,circle
302.0,2.0,2.0,0.0,3.0,3.0,352.8401640000993,4.0,1.0,part_1,,,,,,,,,,,,,magenta,circle
332.0,2.0,2.0,0.0,3.0,3.0,337.2173410002688,4.0,1.0,part_1,,,,,,,,,,,,,magenta,circle
329.0,2.0,2.0,0.0,2.0,2.0,456.3071870002204,4.0,1.0,part_1,,,,,,,,,,,,,magenta,circle
1277.0,4.0,4.0,0.0,2.0,2.0,856.9884449998426,4.0,1.0,part_1,,,,,,,,,,,,,green,hexagon
0.0,1.0,0.0,0.0,3.0,3.0,438.013704000241,4.0,1.0,part_1,,,,,,,,,,,,,gray,triangle
343.0,2.0,2.0,0.0,3.0,3.0,457.0744409998042,4.0,1.0,part_1,,,,,,,,,,,,,magenta,circle
1292.0,4.0,4.0,0.0,1.0,1.0,492.8477779999412,4.0,2.0,part_1,,,,,,,,,,,,,green,hexagon
1276.0,4.0,4.0,0.0,1.0,1.0,569.3740960000468,4.0,1.0,part_1,,,,,,,,,,,,,green,hexagon
0.0,3.0,0.0,0.0,3.0,3.0,494.191580000006,4.0,1.0,part_1,,,,,,,,,,,,,cyan,I
163.0,5.0,1.0,1.0,2.0,2.0,447.1543380000184,4.0,1.0,part_1,,,,,,,,,,,,,orange,cross
172.0,1.0,1.0,0.0,3.0,3.0,381.9181580001896,4.0,1.0,part_1,,,,,,,,,,,,,gray,triangle
328.0,6.0,2.0,1.0,3.0,3.0,382.4912810000569,4.0,1.0,part_1,,,,,,,,,,,,,yellow,square
1317.0,8.0,4.0,1.0,4.0,4.0,438.739171999714,4.0,1.0,part_1,,,,,,,,,,,,,blue,diamond
0.0,5.0,0.0,1.0,3.0,3.0,475.7031869999082,4.0,1.0,part_1,,,,,,,,,,,,,orange,cross
338.0,2.0,2.0,0.0,1.0,1.0,549.9130150001292,4.0,1.0,part_1,,,,,,,,,,,,,magenta,circle
0.0,5.0,0.0,1.0,1.0,1.0,477.5352019996717,4.0,1.0,part_1,,,,,,,,,,,,,orange,cross
319.0,2.0,2.0,0.0,1.0,1.0,410.8359950000704,4.0,1.0,part_1,,,,,,,,,,,,,magenta,circle
647.0,7.0,3.0,1.0,4.0,4.0,560.6998190000922,4.0,1.0,part_1,,,,,,,,,,,,,white,flipped triangle
1287.0,4.0,4.0,0.0,1.0,1.0,484.3622719999985,4.0,1.0,part_1,,,,,,,,,,,,,green,hexagon
151.0,1.0,1.0,0.0,1.0,1.0,474.9589650000416,4.0,1.0,part_1,,,,,,,,,,,,,gray,triangle
347.0,6.0,2.0,1.0,1.0,1.0,474.5983049997448,4.0,1.0,part_1,,,,,,,,,,,,,yellow,square
151.0,5.0,1.0,1.0,3.0,3.0,512.6729640001031,4.0,1.0,part_1,,,,,,,,,,,,,orange,cross
314.0,2.0,2.0,0.0,4.0,4.0,494.3612870001743,4.0,1.0,part_1,,,,,,,,,,,,,magenta,circle
320.0,6.0,2.0,1.0,4.0,4.0,400.1619730001948,4.0,1.0,part_1,,,,,,,,,,,,,yellow,square
626.0,3.0,3.0,0.0,4.0,4.0,467.1384399998715,4.0,1.0,part_1,,,,,,,,,,,,,cyan,I
142.0,5.0,1.0,1.0,2.0,2.0,559.8850770002173,4.0,1.0,part_1,,,,,,,,,,,,,orange,cross
160.0,5.0,1.0,1.0,4.0,4.0,521.5899029999491,4.0,1.0,part_1,,,,,,,,,,,,,orange,cross
1308.0,4.0,4.0,0.0,4.0,4.0,512.7757069999461,4.0,1.0,part_1,,,,,,,,,,,,,green,hexagon
663.0,7.0,3.0,1.0,4.0,4.0,448.6488399998052,4.0,1.0,part_1,,,,,,,,,,,,,white,flipped triangle
156.0,5.0,1.0,1.0,4.0,4.0,363.5580760001176,4.0,1.0,part_1,,,,,,,,,,,,,orange,cross
644.0,3.0,3.0,0.0,3.0,3.0,513.2800019996466,4.0,1.0,part_1,,,,,,,,,,,,,cyan,I
0.0,5.0,0.0,1.0,3.0,3.0,364.3816610001522,4.0,1.0,part_1,,,,,,,,,,,,,orange,cross
301.0,6.0,2.0,1.0,1.0,1.0,418.5351310002261,4.0,1.0,part_1,,,,,,,,,,,,,yellow,square
1322.0,4.0,4.0,0.0,2.0,2.0,437.2505250003087,4.0,1.0,part_1,,,,,,,,,,,,,green,hexagon
1323.0,4.0,4.0,0.0,1.0,1.0,483.8700180002888,4.0,1.0,part_1,,,,,,,,,,,,,green,hexagon
332.0,6.0,2.0,1.0,3.0,3.0,401.1408830001528,4.0,1.0,part_1,,,,,,,,,,,,,yellow,square
171.0,5.0,1.0,1.0,4.0,4.0,495.606940000016,4.0,1.0,part_1,,,,,,,,,,,,,orange,cross
0.0,2.0,0.0,0.0,1.0,1.0,604.7323909997431,4.0,1.0,part_1,,,,,,,,,,,,,magenta,circle
640.0,3.0,3.0,0.0,3.0,3.0,476.3655339997967,4.0,1.0,part_1,,,,,,,,,,,,,cyan,I
340.0,2.0,2.0,0.0,2.0,2.0,476.0383180000644,4.0,1.0,part_1,,,,,,,,,,,,,magenta,circle
1284.0,8.0,4.0,1.0,1.0,1.0,541.0348639998119,4.0,1.0,part_1,,,,,,,,,,,,,blue,diamond
305.0,6.0,2.0,1.0,1.0,1.0,864.6505380002054,4.0,1.0,part_1,,,,,,,,,,,,,yellow,square
666.0,3.0,3.0,0.0,4.0,4.0,875.0705900001776,4.0,1.0,part_1,,,,,,,,,,,,,cyan,I
1298.0,8.0,4.0,1.0,1.0,1.0,875.5293570002323,4.0,1.0,part_1,,,,,,,,,,,,,blue,diamond
638.0,3.0,3.0,0.0,1.0,1.0,931.1677949999648,4.0,1.0,part_1,,,,,,,,,,,,,cyan,I
1307.0,8.0,4.0,1.0,2.0,2.0,468.3196820001285,4.0,2.0,part_1,,,,,,,,,,,,,blue,diamond
0.0,6.0,2.0,1.0,6.0,0.0,0.0,1.0,0.0,part_2,stop,250.0,250.0,4.0,,,,,,,,,yellow,square
0.0,4.0,4.0,0.0,5.0,5.0,534.7810920002303,1.0,0.0,part_2,go,250.0,300.0,1.0,,,,,,,,,green,hexagon
0.0,1.0,1.0,0.0,6.0,6.0,507.9683980002301,1.0,0.0,part_2,go,250.0,300.0,1.0,,,,,,,,,gray,triangle
0.0,6.0,2.0,1.0,5.0,0.0,0.0,1.0,0.0,part_2,stop,250.0,300.0,4.0,,,,,,,,,yellow,square
0.0,2.0,2.0,0.0,5.0,5.0,525.6788090000555,1.0,0.0,part_2,go,300.0,300.0,1.0,,,,,,,,,magenta,circle
0.0,1.0,1.0,0.0,5.0,5.0,516.7553720002616,1.0,0.0,part_2,go,300.0,300.0,1.0,,,,,,,,,gray,triangle
0.0,4.0,4.0,0.0,6.0,6.0,403.1740870004796,1.0,0.0,part_2,go,300.0,300.0,1.0,,,,,,,,,green,hexagon
0.0,6.0,2.0,1.0,5.0,5.0,474.9436190004417,1.0,0.0,part_2,stop,300.0,300.0,3.0,,,,,,,,,yellow,square
0.0,6.0,2.0,1.0,5.0,0.0,0.0,1.0,0.0,part_2,stop,250.0,300.0,4.0,,,,,,,,,yellow,square
0.0,7.0,3.0,1.0,5.0,5.0,626.6556359996684,1.0,0.0,part_2,go,300.0,300.0,1.0,,,,,,,,,white,flipped triangle
0.0,3.0,3.0,0.0,5.0,5.0,619.7546080002212,1.0,0.0,part_2,go,300.0,300.0,1.0,,,,,,,,,cyan,I
0.0,2.0,2.0,0.0,6.0,6.0,462.3177630001009,1.0,0.0,part_2,go,300.0,300.0,1.0,,,,,,,,,magenta,circle
0.0,8.0,4.0,1.0,6.0,0.0,0.0,1.0,0.0,part_2,stop,300.0,300.0,4.0,,,,,,,,,blue,diamond
0.0,8.0,4.0,1.0,5.0,0.0,0.0,1.0,0.0,part_2,stop,300.0,350.0,4.0,,,,,,,,,blue,diamond
0.0,5.0,1.0,1.0,5.0,0.0,0.0,1.0,0.0,part_2,stop,350.0,350.0,4.0,,,,,,,,,orange,cross
0.0,6.0,2.0,1.0,5.0,0.0,0.0,1.0,0.0,part_2,go,400.0,350.0,5.0,,,,,,,,,yellow,square
0.0,6.0,2.0,1.0,6.0,0.0,0.0,1.0,0.0,part_2,stop,400.0,350.0,4.0,,,,,,,,,yellow,square
0.0,7.0,3.0,1.0,5.0,0.0,0.0,1.0,0.0,part_2,stop,400.0,400.0,4.0,,,,,,,,,white,flipped triangle
0.0,2.0,2.0,0.0,6.0,6.0,613.3195329994123,1.0,0.0,part_2,go,450.0,400.0,1.0,,,,,,,,,magenta,circle
0.0,8.0,4.0,1.0,6.0,6.0,578.682530000151,1.0,0.0,part_2,stop,450.0,400.0,3.0,,,,,,,,,blue,diamond
0.0,2.0,2.0,0.0,6.0,6.0,813.8533000001189,1.0,0.0,part_2,go,450.0,350.0,1.0,,,,,,,,,magenta,circle
0.0,3.0,3.0,0.0,6.0,6.0,840.9970829998201,1.0,0.0,part_2,go,450.0,350.0,1.0,,,,,,,,,cyan,I
0.0,2.0,2.0,0.0,6.0,6.0,504.9751970000216,1.0,0.0,part_2,go,450.0,350.0,1.0,,,,,,,,,magenta,circle
0.0,6.0,2.0,1.0,6.0,0.0,0.0,1.0,0.0,part_2,stop,450.0,350.0,4.0,,,,,,,,,yellow,square
0.0,6.0,2.0,1.0,5.0,5.0,1358.0355499998404,1.0,0.0,part_2,go,450.0,400.0,1.0,,,,,,,,,yellow,square
0.0,5.0,1.0,1.0,5.0,0.0,0.0,1.0,0.0,part_2,go,450.0,400.0,5.0,,,,,,,,,orange,cross
0.0,3.0,3.0,0.0,6.0,6.0,898.2085389998247,1.0,0.0,part_2,go,450.0,400.0,1.0,,,,,,,,,cyan,I
0.0,4.0,4.0,0.0,6.0,6.0,479.6906459996535,1.0,0.0,part_2,go,450.0,400.0,1.0,,,,,,,,,green,hexagon
0.0,6.0,2.0,1.0,5.0,0.0,0.0,1.0,0.0,part_2,stop,450.0,400.0,4.0,,,,,,,,,yellow,square
0.0,7.0,3.0,1.0,6.0,6.0,544.449916999838,1.0,0.0,part_2,stop,500.0,400.0,3.0,,,,,,,,,white,flipped triangle
0.0,7.0,3.0,1.0,5.0,0.0,0.0,1.0,0.0,part_2,stop,500.0,350.0,4.0,,,,,,,,,white,flipped triangle
0.0,2.0,2.0,0.0,5.0,5.0,607.5949469995976,1.0,0.0,part_2,go,550.0,350.0,1.0,,,,,,,,,magenta,circle
0.0,8.0,4.0,1.0,6.0,0.0,0.0,1.0,0.0,part_2,stop,550.0,350.0,4.0,,,,,,,,,blue,diamond
0.0,5.0,1.0,1.0,5.0,5.0,614.6695150000596,1.0,0.0,part_2,stop,550.0,400.0,3.0,,,,,,,,,orange,cross
0.0,1.0,1.0,0.0,6.0,6.0,693.0924939997567,1.0,0.0,part_2,go,500.0,400.0,1.0,,,,,,,,,gray,triangle
0.0,4.0,4.0,0.0,6.0,6.0,890.446291000444,1.0,0.0,part_2,go,500.0,400.0,1.0,,,,,,,,,green,hexagon
0.0,1.0,1.0,0.0,5.0,5.0,777.8210890000992,2.0,0.0,part_2,go,500.0,400.0,1.0,,,,,,,,,gray,triangle
0.0,2.0,2.0,0.0,5.0,5.0,412.2294759999931,2.0,0.0,part_2,go,500.0,400.0,1.0,,,,,,,,,magenta,circle
0.0,5.0,1.0,1.0,5.0,5.0,404.1473280003629,2.0,0.0,part_2,stop,500.0,400.0,3.0,,,,,,,,,orange,cross
0.0,5.0,1.0,1.0,5.0,0.0,0.0,2.0,0.0,part_2,stop,450.0,400.0,4.0,,,,,,,,,orange,cross
0.0,6.0,2.0,1.0,5.0,0.0,0.0,2.0,0.0,part_2,stop,500.0,400.0,4.0,,,,,,,,,yellow,square
0.0,4.0,4.0,0.0,6.0,6.0,720.7867209999677,2.0,0.0,part_2,go,550.0,400.0,1.0,,,,,,,,,green,hexagon
0.0,7.0,3.0,1.0,5.0,0.0,0.0,2.0,0.0,part_2,stop,550.0,400.0,4.0,,,,,,,,,white,flipped triangle
0.0,1.0,1.0,0.0,6.0,6.0,570.4264300002251,2.0,0.0,part_2,go,600.0,400.0,1.0,,,,,,,,,gray,triangle
0.0,3.0,3.0,0.0,6.0,6.0,486.4917129998503,2.0,0.0,part_2,go,600.0,400.0,1.0,,,,,,,,,cyan,I
0.0,7.0,3.0,1.0,6.0,6.0,485.8828000005815,2.0,0.0,part_2,stop,600.0,400.0,3.0,,,,,,,,,white,flipped triangle
0.0,8.0,4.0,1.0,6.0,0.0,0.0,2.0,0.0,part_2,stop,600.0,350.0,4.0,,,,,,,,,blue,diamond
0.0,6.0,2.0,1.0,6.0,0.0,0.0,2.0,0.0,part_2,go,600.0,400.0,5.0,,,,,,,,,yellow,square
0.0,7.0,3.0,1.0,5.0,0.0,0.0,2.0,0.0,part_2,go,600.0,400.0,5.0,,,,,,,,,white,flipped triangle
0.0,8.0,4.0,1.0,6.0,6.0,759.5647739999549,2.0,0.0,part_2,stop,600.0,400.0,3.0,,,,,,,,,blue,diamond
0.0,4.0,4.0,0.0,6.0,6.0,637.5299719993563,2.0,0.0,part_2,go,600.0,350.0,1.0,,,,,,,,,green,hexagon
0.0,1.0,1.0,0.0,6.0,6.0,497.7648430003683,2.0,0.0,part_2,go,600.0,350.0,1.0,,,,,,,,,gray,triangle
0.0,7.0,3.0,1.0,6.0,6.0,440.1612210003804,2.0,0.0,part_2,stop,600.0,350.0,3.0,,,,,,,,,white,flipped triangle
0.0,4.0,4.0,0.0,5.0,5.0,589.5514309995633,2.0,0.0,part_2,go,600.0,300.0,1.0,,,,,,,,,green,hexagon
0.0,4.0,4.0,0.0,6.0,6.0,1068.541150000783,2.0,0.0,part_2,go,600.0,300.0,1.0,,,,,,,,,green,hexagon
0.0,5.0,1.0,1.0,6.0,0.0,0.0,2.0,0.0,part_2,stop,600.0,300.0,4.0,,,,,,,,,orange,cross
0.0,2.0,2.0,0.0,6.0,6.0,546.1522479999985,2.0,0.0,part_2,go,600.0,350.0,1.0,,,,,,,,,magenta,circle
0.0,3.0,3.0,0.0,6.0,6.0,531.7947300000014,2.0,0.0,part_2,go,600.0,350.0,1.0,,,,,,,,,cyan,I
0.0,4.0,4.0,0.0,6.0,6.0,637.7410229997622,2.0,0.0,part_2,go,600.0,350.0,1.0,,,,,,,,,green,hexagon
0.0,6.0,2.0,1.0,5.0,0.0,0.0,2.0,0.0,part_2,go,600.0,350.0,5.0,,,,,,,,,yellow,square
0.0,3.0,3.0,0.0,5.0,5.0,580.8651850002207,2.0,0.0,part_2,go,600.0,350.0,1.0,,,,,,,,,cyan,I
0.0,1.0,1.0,0.0,5.0,5.0,563.3462239993605,2.0,0.0,part_2,go,600.0,350.0,1.0,,,,,,,,,gray,triangle
0.0,1.0,1.0,0.0,5.0,5.0,450.9820149996812,2.0,0.0,part_2,go,600.0,350.0,1.0,,,,,,,,,gray,triangle
0.0,8.0,4.0,1.0,5.0,5.0,705.339252000158,2.0,0.0,part_2,stop,600.0,350.0,3.0,,,,,,,,,blue,diamond
0.0,4.0,4.0,0.0,5.0,5.0,768.4709040004236,2.0,0.0,part_2,go,550.0,350.0,1.0,,,,,,,,,green,hexagon
0.0,5.0,1.0,1.0,5.0,5.0,536.7834409998977,2.0,0.0,part_2,go,550.0,350.0,1.0,,,,,,,,,orange,cross
0.0,6.0,2.0,1.0,5.0,0.0,0.0,2.0,0.0,part_2,stop,550.0,350.0,4.0,,,,,,,,,yellow,square
0.0,6.0,2.0,1.0,5.0,0.0,0.0,2.0,0.0,part_2,stop,600.0,350.0,4.0,,,,,,,,,yellow,square
0.0,1.0,1.0,0.0,5.0,5.0,619.1497629997684,2.0,0.0,part_2,go,650.0,350.0,1.0,,,,,,,,,gray,triangle
0.0,5.0,1.0,1.0,6.0,6.0,463.9216909999959,2.0,0.0,part_2,stop,650.0,350.0,3.0,,,,,,,,,orange,cross
0.0,2.0,2.0,0.0,6.0,6.0,739.1794780005512,2.0,0.0,part_2,go,650.0,300.0,1.0,,,,,,,,,magenta,circle
0.0,8.0,4.0,1.0,6.0,0.0,0.0,2.0,0.0,part_2,stop,650.0,300.0,4.0,,,,,,,,,blue,diamond
0.0,5.0,1.0,1.0,5.0,5.0,730.4495990001669,3.0,0.0,part_2,stop,650.0,350.0,3.0,,,,,,,,,orange,cross
0.0,2.0,2.0,0.0,6.0,6.0,459.6035059994392,3.0,0.0,part_2,go,600.0,350.0,1.0,,,,,,,,,magenta,circle
0.0,1.0,1.0,0.0,6.0,6.0,470.0180340005317,3.0,0.0,part_2,go,600.0,350.0,1.0,,,,,,,,,gray,triangle
0.0,3.0,3.0,0.0,6.0,6.0,422.729032999996,3.0,0.0,part_2,go,600.0,350.0,1.0,,,,,,,,,cyan,I
0.0,8.0,4.0,1.0,6.0,0.0,0.0,3.0,0.0,part_2,stop,600.0,350.0,4.0,,,,,,,,,blue,diamond
0.0,1.0,1.0,0.0,6.0,6.0,581.5865690001374,3.0,0.0,part_2,go,600.0,400.0,1.0,,,,,,,,,gray,triangle
0.0,7.0,3.0,1.0,5.0,0.0,0.0,3.0,0.0,part_2,stop,600.0,400.0,4.0,,,,,,,,,white,flipped triangle
0.0,1.0,1.0,0.0,5.0,5.0,527.3237270002937,3.0,0.0,part_2,go,650.0,400.0,1.0,,,,,,,,,gray,triangle
0.0,4.0,4.0,0.0,5.0,5.0,864.4484780006678,3.0,0.0,part_2,go,650.0,400.0,1.0,,,,,,,,,green,hexagon
0.0,6.0,2.0,1.0,6.0,0.0,0.0,3.0,0.0,part_2,stop,650.0,400.0,4.0,,,,,,,,,yellow,square
0.0,1.0,1.0,0.0,5.0,5.0,516.7114389996641,3.0,0.0,part_2,go,650.0,450.0,1.0,,,,,,,,,gray,triangle
0.0,3.0,3.0,0.0,6.0,6.0,479.0860989996872,3.0,0.0,part_2,go,650.0,450.0,1.0,,,,,,,,,cyan,I
0.0,7.0,3.0,1.0,6.0,0.0,0.0,3.0,0.0,part_2,stop,650.0,450.0,4.0,,,,,,,,,white,flipped triangle
0.0,6.0,2.0,1.0,6.0,0.0,0.0,3.0,0.0,part_2,stop,650.0,500.0,4.0,,,,,,,,,yellow,square
0.0,1.0,1.0,0.0,5.0,5.0,554.8439260001032,3.0,0.0,part_2,go,650.0,550.0,1.0,,,,,,,,,gray,triangle
0.0,7.0,3.0,1.0,5.0,0.0,0.0,3.0,0.0,part_2,stop,650.0,550.0,4.0,,,,,,,,,white,flipped triangle
0.0,1.0,1.0,0.0,5.0,5.0,610.1049580001927,3.0,0.0,part_2,go,700.0,550.0,1.0,,,,,,,,,gray,triangle
0.0,4.0,4.0,0.0,6.0,6.0,637.7418250003757,3.0,0.0,part_2,go,700.0,550.0,1.0,,,,,,,,,green,hexagon
0.0,8.0,4.0,1.0,5.0,0.0,0.0,3.0,0.0,part_2,stop,700.0,550.0,4.0,,,,,,,,,blue,diamond
0.0,2.0,2.0,0.0,5.0,5.0,506.7346630003158,3.0,0.0,part_2,go,750.0,550.0,1.0,,,,,,,,,magenta,circle
0.0,5.0,1.0,1.0,6.0,6.0,459.1868699999395,3.0,0.0,part_2,stop,750.0,550.0,3.0,,,,,,,,,orange,cross
0.0,7.0,3.0,1.0,6.0,0.0,0.0,3.0,0.0,part_2,stop,750.0,500.0,4.0,,,,,,,,,white,flipped triangle
0.0,2.0,2.0,0.0,6.0,6.0,459.0076759996009,3.0,0.0,part_2,go,750.0,550.0,1.0,,,,,,,,,magenta,circle
0.0,2.0,2.0,0.0,5.0,5.0,496.4512110000214,3.0,0.0,part_2,go,750.0,550.0,1.0,,,,,,,,,magenta,circle
0.0,6.0,2.0,1.0,6.0,0.0,0.0,3.0,0.0,part_2,go,750.0,550.0,5.0,,,,,,,,,yellow,square
0.0,3.0,3.0,0.0,6.0,6.0,534.7196559996519,3.0,0.0,part_2,go,750.0,550.0,1.0,,,,,,,,,cyan,I
0.0,5.0,1.0,1.0,5.0,5.0,449.9214419993222,3.0,0.0,part_2,stop,750.0,550.0,3.0,,,,,,,,,orange,cross
0.0,4.0,4.0,0.0,6.0,6.0,740.8110400001533,3.0,0.0,part_2,go,700.0,550.0,1.0,,,,,,,,,green,hexagon
0.0,7.0,3.0,1.0,6.0,0.0,0.0,3.0,0.0,part_2,go,700.0,550.0,5.0,,,,,,,,,white,flipped triangle
0.0,8.0,4.0,1.0,6.0,6.0,1483.8559600002554,3.0,0.0,part_2,go,700.0,550.0,1.0,,,,,,,,,blue,diamond
0.0,8.0,4.0,1.0,5.0,0.0,0.0,3.0,0.0,part_2,stop,700.0,550.0,4.0,,,,,,,,,blue,diamond
0.0,2.0,2.0,0.0,5.0,5.0,552.3661130000619,3.0,0.0,part_2,go,750.0,550.0,1.0,,,,,,,,,magenta,circle
0.0,2.0,2.0,0.0,5.0,5.0,507.15362499977346,3.0,0.0,part_2,go,750.0,550.0,1.0,,,,,,,,,magenta,circle
0.0,5.0,1.0,1.0,5.0,0.0,0.0,3.0,0.0,part_2,stop,750.0,550.0,4.0,,,,,,,,,orange,cross
0.0,5.0,1.0,1.0,5.0,5.0,1469.35681100058,3.0,0.0,part_2,go,800.0,550.0,1.0,,,,,,,,,orange,cross
0.0,1.0,1.0,0.0,6.0,6.0,618.7201950006056,3.0,0.0,part_2,go,800.0,550.0,1.0,,,,,,,,,gray,triangle
0.0,8.0,4.0,1.0,5.0,0.0,0.0,4.0,0.0,part_2,go,800.0,550.0,5.0,,,,,,,,,blue,diamond
0.0,8.0,4.0,1.0,5.0,5.0,605.8480589999817,4.0,0.0,part_2,go,800.0,550.0,1.0,,,,,,,,,blue,diamond
0.0,5.0,1.0,1.0,5.0,0.0,0.0,4.0,0.0,part_2,go,800.0,550.0,5.0,,,,,,,,,orange,cross
0.0,3.0,3.0,0.0,5.0,5.0,588.4833989994149,4.0,0.0,part_2,go,800.0,550.0,1.0,,,,,,,,,cyan,I
0.0,2.0,2.0,0.0,6.0,6.0,449.478693999481,4.0,0.0,part_2,go,800.0,550.0,1.0,,,,,,,,,magenta,circle
0.0,8.0,4.0,1.0,5.0,0.0,0.0,4.0,0.0,part_2,stop,800.0,550.0,4.0,,,,,,,,,blue,diamond
0.0,4.0,4.0,0.0,6.0,6.0,523.9037449991883,4.0,0.0,part_2,go,850.0,550.0,1.0,,,,,,,,,green,hexagon
0.0,4.0,4.0,0.0,6.0,6.0,402.5514850000036,4.0,0.0,part_2,go,850.0,550.0,1.0,,,,,,,,,green,hexagon
0.0,7.0,3.0,1.0,5.0,0.0,0.0,4.0,0.0,part_2,stop,850.0,550.0,4.0,,,,,,,,,white,flipped triangle
0.0,1.0,1.0,0.0,5.0,5.0,552.7107979996799,4.0,0.0,part_2,go,900.0,550.0,1.0,,,,,,,,,gray,triangle
0.0,3.0,3.0,0.0,5.0,5.0,457.2819599998183,4.0,0.0,part_2,go,900.0,550.0,1.0,,,,,,,,,cyan,I
0.0,5.0,1.0,1.0,6.0,6.0,495.1101389997348,4.0,0.0,part_2,go,900.0,550.0,1.0,,,,,,,,,orange,cross
0.0,1.0,1.0,0.0,5.0,5.0,514.7004870004821,4.0,0.0,part_2,go,900.0,550.0,1.0,,,,,,,,,gray,triangle
0.0,2.0,2.0,0.0,6.0,6.0,523.5772369996994,4.0,0.0,part_2,go,900.0,550.0,1.0,,,,,,,,,magenta,circle
0.0,7.0,3.0,1.0,6.0,0.0,0.0,4.0,0.0,part_2,stop,900.0,550.0,4.0,,,,,,,,,white,flipped triangle
0.0,8.0,4.0,1.0,5.0,0.0,0.0,4.0,0.0,part_2,stop,900.0,600.0,4.0,,,,,,,,,blue,diamond
0.0,4.0,4.0,0.0,5.0,5.0,636.8625430004613,4.0,0.0,part_2,go,950.0,600.0,1.0,,,,,,,,,green,hexagon
0.0,3.0,3.0,0.0,5.0,5.0,619.2337999991651,4.0,0.0,part_2,go,950.0,600.0,1.0,,,,,,,,,cyan,I
0.0,4.0,4.0,0.0,6.0,6.0,439.0148680004131,4.0,0.0,part_2,go,950.0,600.0,1.0,,,,,,,,,green,hexagon
0.0,5.0,1.0,1.0,6.0,6.0,450.5662540004778,4.0,0.0,part_2,stop,950.0,600.0,3.0,,,,,,,,,orange,cross
0.0,5.0,1.0,1.0,6.0,0.0,0.0,4.0,0.0,part_2,go,950.0,550.0,5.0,,,,,,,,,orange,cross
0.0,2.0,2.0,0.0,5.0,5.0,487.5338410001859,4.0,0.0,part_2,go,950.0,550.0,1.0,,,,,,,,,magenta,circle
0.0,7.0,3.0,1.0,5.0,0.0,0.0,4.0,0.0,part_2,stop,950.0,550.0,4.0,,,,,,,,,white,flipped triangle
0.0,4.0,4.0,0.0,5.0,5.0,476.4944989992727,4.0,0.0,part_2,go,1000.0,550.0,1.0,,,,,,,,,green,hexagon
0.0,2.0,2.0,0.0,5.0,5.0,468.1536210000558,4.0,0.0,part_2,go,1000.0,550.0,1.0,,,,,,,,,magenta,circle
0.0,7.0,3.0,1.0,5.0,0.0,0.0,4.0,0.0,part_2,stop,1000.0,550.0,4.0,,,,,,,,,white,flipped triangle
0.0,2.0,2.0,0.0,6.0,6.0,449.0190930000608,4.0,0.0,part_2,go,1050.0,550.0,1.0,,,,,,,,,magenta,circle
0.0,7.0,3.0,1.0,6.0,0.0,0.0,4.0,0.0,part_2,stop,1050.0,550.0,4.0,,,,,,,,,white,flipped triangle
0.0,2.0,2.0,0.0,5.0,5.0,420.3763049999907,4.0,0.0,part_2,go,1050.0,600.0,1.0,,,,,,,,,magenta,circle
0.0,6.0,2.0,1.0,6.0,0.0,0.0,4.0,0.0,part_2,stop,1050.0,600.0,4.0,,,,,,,,,yellow,square
0.0,2.0,2.0,0.0,5.0,5.0,589.049131000138,4.0,0.0,part_2,go,1050.0,650.0,1.0,,,,,,,,,magenta,circle
0.0,7.0,3.0,1.0,6.0,6.0,430.6562500005384,4.0,0.0,part_2,go,1050.0,650.0,1.0,,,,,,,,,white,flipped triangle
0.0,4.0,4.0,0.0,6.0,6.0,526.3132740001311,4.0,0.0,part_2,go,1050.0,650.0,1.0,,,,,,,,,green,hexagon
0.0,5.0,1.0,1.0,6.0,6.0,1462.8427860006925,4.0,0.0,part_2,go,1050.0,650.0,1.0,,,,,,,,,orange,cross
0.0,6.0,2.0,1.0,5.0,0.0,0.0,4.0,0.0,part_2,stop,1050.0,650.0,4.0,,,,,,,,,yellow,square
0.0,5.0,1.0,1.0,6.0,6.0,534.3134949998785,4.0,0.0,part_2,stop,1100.0,650.0,3.0,,,,,,,,,orange,cross
0.0,1.0,1.0,0.0,6.0,6.0,1374.7694610001415,5.0,0.0,part_2,go,1100.0,600.0,1.0,,,,,,,,,gray,triangle
0.0,3.0,3.0,0.0,5.0,5.0,420.1987460000964,5.0,0.0,part_2,go,1100.0,600.0,1.0,,,,,,,,,cyan,I
0.0,3.0,3.0,0.0,5.0,5.0,421.8631100002312,5.0,0.0,part_2,go,1100.0,600.0,1.0,,,,,,,,,cyan,I
0.0,1.0,1.0,0.0,5.0,5.0,475.4374230005851,5.0,0.0,part_2,go,1100.0,600.0,1.0,,,,,,,,,gray,triangle
0.0,4.0,4.0,0.0,5.0,5.0,505.55225199968845,5.0,0.0,part_2,go,1100.0,600.0,1.0,,,,,,,,,green,hexagon
0.0,8.0,4.0,1.0,6.0,6.0,634.1978660002496,5.0,0.0,part_2,stop,1100.0,600.0,3.0,,,,,,,,,blue,diamond
0.0,8.0,4.0,1.0,6.0,0.0,0.0,5.0,0.0,part_2,stop,1100.0,550.0,4.0,,,,,,,,,blue,diamond
0.0,5.0,1.0,1.0,6.0,6.0,638.340751999749,5.0,0.0,part_2,go,1100.0,600.0,1.0,,,,,,,,,orange,cross
0.0,7.0,3.0,1.0,6.0,0.0,0.0,5.0,0.0,part_2,stop,1100.0,600.0,4.0,,,,,,,,,white,flipped triangle
0.0,4.0,4.0,0.0,6.0,6.0,915.4013670004132,5.0,0.0,part_2,go,1100.0,650.0,1.0,,,,,,,,,green,hexagon
0.0,3.0,3.0,0.0,6.0,6.0,448.4387420006896,5.0,0.0,part_2,go,1100.0,650.0,1.0,,,,,,,,,cyan,I
0.0,7.0,3.0,1.0,6.0,0.0,0.0,5.0,0.0,part_2,stop,1100.0,650.0,4.0,,,,,,,,,white,flipped triangle
0.0,7.0,3.0,1.0,6.0,0.0,0.0,5.0,0.0,part_2,stop,1100.0,700.0,4.0,,,,,,,,,white,flipped triangle
0.0,5.0,1.0,1.0,6.0,0.0,0.0,5.0,0.0,part_2,stop,1100.0,750.0,4.0,,,,,,,,,orange,cross
0.0,3.0,3.0,0.0,5.0,5.0,476.2427140003638,5.0,0.0,part_2,go,1100.0,800.0,1.0,,,,,,,,,cyan,I
0.0,2.0,2.0,0.0,6.0,6.0,720.2508729997135,5.0,0.0,part_2,go,1100.0,800.0,1.0,,,,,,,,,magenta,circle
0.0,5.0,1.0,1.0,5.0,5.0,458.322610000323,5.0,0.0,part_2,stop,1100.0,800.0,3.0,,,,,,,,,orange,cross
0.0,1.0,1.0,0.0,6.0,6.0,673.01536100058,5.0,0.0,part_2,go,1050.0,800.0,1.0,,,,,,,,,gray,triangle
0.0,7.0,3.0,1.0,5.0,0.0,0.0,5.0,0.0,part_2,go,1050.0,800.0,5.0,,,,,,,,,white,flipped triangle
0.0,8.0,4.0,1.0,6.0,6.0,1467.1621999996205,5.0,0.0,part_2,go,1050.0,800.0,1.0,,,,,,,,,blue,diamond
0.0,6.0,2.0,1.0,6.0,0.0,0.0,5.0,0.0,part_2,stop,1050.0,800.0,4.0,,,,,,,,,yellow,square
0.0,7.0,3.0,1.0,5.0,0.0,0.0,5.0,0.0,part_2,stop,1050.0,850.0,4.0,,,,,,,,,white,flipped triangle
0.0,2.0,2.0,0.0,6.0,6.0,561.6216790003818,5.0,0.0,part_2,go,1100.0,850.0,1.0,,,,,,,,,magenta,circle
0.0,3.0,3.0,0.0,5.0,5.0,496.1768629991638,5.0,0.0,part_2,go,1100.0,850.0,1.0,,,,,,,,,cyan,I
0.0,5.0,1.0,1.0,6.0,6.0,1016.1823819998972,5.0,0.0,part_2,stop,1100.0,850.0,3.0,,,,,,,,,orange,cross
0.0,8.0,4.0,1.0,5.0,0.0,0.0,5.0,0.0,part_2,stop,1100.0,800.0,4.0,,,,,,,,,blue,diamond
0.0,4.0,4.0,0.0,5.0,5.0,702.1683589991881,5.0,0.0,part_2,go,1150.0,800.0,1.0,,,,,,,,,green,hexagon
0.0,3.0,3.0,0.0,6.0,6.0,525.3361350005434,5.0,0.0,part_2,go,1150.0,800.0,1.0,,,,,,,,,cyan,I
0.0,1.0,1.0,0.0,6.0,6.0,551.5771919999679,5.0,0.0,part_2,go,1150.0,800.0,1.0,,,,,,,,,gray,triangle
0.0,4.0,4.0,0.0,6.0,6.0,524.3509720003203,5.0,0.0,part_2,go,1150.0,800.0,1.0,,,,,,,,,green,hexagon
0.0,6.0,2.0,1.0,6.0,0.0,0.0,5.0,0.0,part_2,stop,1150.0,800.0,4.0,,,,,,,,,yellow,square
0.0,5.0,1.0,1.0,6.0,0.0,0.0,5.0,0.0,part_2,stop,1150.0,850.0,4.0,,,,,,,,,orange,cross
0.0,3.0,3.0,0.0,6.0,6.0,673.4992659994532,5.0,0.0,part_2,go,1150.0,900.0,1.0,,,,,,,,,cyan,I
0.0,8.0,4.0,1.0,5.0,0.0,0.0,5.0,0.0,part_2,stop,1150.0,900.0,4.0,,,,,,,,,blue,diamond
0.0,3.0,3.0,0.0,6.0,6.0,542.9048509995482,5.0,0.0,part_2,go,1200.0,900.0,1.0,,,,,,,,,cyan,I
0.0,3.0,3.0,0.0,6.0,6.0,522.7030959995318,5.0,0.0,part_2,go,1200.0,900.0,1.0,,,,,,,,,cyan,I
0.0,5.0,1.0,1.0,5.0,0.0,0.0,6.0,0.0,part_2,stop,1200.0,900.0,4.0,,,,,,,,,orange,cross
0.0,4.0,4.0,0.0,5.0,5.0,600.2694959997825,6.0,0.0,part_2,go,1250.0,900.0,1.0,,,,,,,,,green,hexagon
0.0,1.0,1.0,0.0,6.0,6.0,1013.8197669994042,6.0,0.0,part_2,go,1250.0,900.0,1.0,,,,,,,,,gray,triangle
0.0,4.0,4.0,0.0,5.0,5.0,750.2374109999437,6.0,0.0,part_2,go,1250.0,900.0,1.0,,,,,,,,,green,hexagon
0.0,1.0,1.0,0.0,6.0,6.0,525.188364999849,6.0,0.0,part_2,go,1250.0,900.0,1.0,,,,,,,,,gray,triangle
0.0,8.0,4.0,1.0,5.0,5.0,442.8154990000621,6.0,0.0,part_2,go,1250.0,900.0,1.0,,,,,,,,,blue,diamond
0.0,5.0,1.0,1.0,6.0,0.0,0.0,6.0,0.0,part_2,stop,1250.0,900.0,4.0,,,,,,,,,orange,cross
0.0,4.0,4.0,0.0,5.0,5.0,581.3905390004948,6.0,0.0,part_2,go,1250.0,950.0,1.0,,,,,,,,,green,hexagon
0.0,1.0,1.0,0.0,5.0,5.0,505.65185499999643,6.0,0.0,part_2,go,1250.0,950.0,1.0,,,,,,,,,gray,triangle
0.0,2.0,2.0,0.0,5.0,5.0,582.830610000201,6.0,0.0,part_2,go,1250.0,950.0,1.0,,,,,,,,,magenta,circle
0.0,4.0,4.0,0.0,5.0,5.0,768.0767790006939,6.0,0.0,part_2,go,1250.0,950.0,1.0,,,,,,,,,green,hexagon
0.0,2.0,2.0,0.0,6.0,6.0,524.4002649997128,6.0,0.0,part_2,go,1250.0,950.0,1.0,,,,,,,,,magenta,circle
0.0,5.0,1.0,1.0,6.0,0.0,0.0,6.0,0.0,part_2,stop,1250.0,950.0,4.0,,,,,,,,,orange,cross
0.0,5.0,1.0,1.0,5.0,0.0,0.0,6.0,0.0,part_2,stop,1250.0,1000.0,4.0,,,,,,,,,orange,cross
0.0,3.0,3.0,0.0,5.0,5.0,664.9433869997665,6.0,0.0,part_2,go,1300.0,1000.0,1.0,,,,,,,,,cyan,I
0.0,1.0,1.0,0.0,6.0,6.0,571.0125969999353,6.0,0.0,part_2,go,1300.0,1000.0,1.0,,,,,,,,,gray,triangle
0.0,3.0,3.0,0.0,5.0,5.0,600.1574429992615,6.0,0.0,part_2,go,1300.0,1000.0,1.0,,,,,,,,,cyan,I
0.0,1.0,1.0,0.0,5.0,5.0,562.9086119997737,6.0,0.0,part_2,go,1300.0,1000.0,1.0,,,,,,,,,gray,triangle
0.0,6.0,2.0,1.0,6.0,6.0,496.7124000004332,6.0,0.0,part_2,stop,1300.0,1000.0,3.0,,,,,,,,,yellow,square
0.0,6.0,2.0,1.0,5.0,5.0,1348.7209579998307,6.0,0.0,part_2,stop,1300.0,950.0,3.0,,,,,,,,,yellow,square
0.0,7.0,3.0,1.0,6.0,6.0,983.1650050000462,6.0,0.0,part_2,stop,1250.0,950.0,3.0,,,,,,,,,white,flipped triangle
0.0,3.0,3.0,0.0,6.0,6.0,666.1711120004838,6.0,0.0,part_2,go,1250.0,900.0,1.0,,,,,,,,,cyan,I
0.0,7.0,3.0,1.0,5.0,0.0,0.0,6.0,0.0,part_2,stop,1250.0,900.0,4.0,,,,,,,,,white,flipped triangle
0.0,7.0,3.0,1.0,5.0,0.0,0.0,6.0,0.0,part_2,stop,1300.0,900.0,4.0,,,,,,,,,white,flipped triangle
0.0,4.0,4.0,0.0,6.0,6.0,575.6666769993899,6.0,0.0,part_2,go,1350.0,900.0,1.0,,,,,,,,,green,hexagon
0.0,7.0,3.0,1.0,6.0,0.0,0.0,6.0,0.0,part_2,go,1350.0,900.0,5.0,,,,,,,,,white,flipped triangle
0.0,6.0,2.0,1.0,5.0,0.0,0.0,6.0,0.0,part_2,go,1350.0,900.0,5.0,,,,,,,,,yellow,square
0.0,3.0,3.0,0.0,6.0,6.0,553.3200969994141,6.0,0.0,part_2,go,1350.0,900.0,1.0,,,,,,,,,cyan,I
0.0,6.0,2.0,1.0,6.0,6.0,580.1508119993741,6.0,0.0,part_2,go,1350.0,900.0,1.0,,,,,,,,,yellow,square
0.0,7.0,3.0,1.0,5.0,5.0,1104.8196720003034,6.0,0.0,part_2,go,1350.0,900.0,1.0,,,,,,,,,white,flipped triangle
0.0,8.0,4.0,1.0,5.0,5.0,1253.8785200003986,6.0,0.0,part_2,stop,1350.0,900.0,3.0,,,,,,,,,blue,diamond
0.0,5.0,1.0,1.0,6.0,0.0,0.0,6.0,0.0,part_2,stop,1300.0,900.0,4.0,,,,,,,,,orange,cross
0.0,5.0,1.0,1.0,5.0,0.0,0.0,6.0,0.0,part_2,go,1300.0,950.0,5.0,,,,,,,,,orange,cross
0.0,8.0,4.0,1.0,6.0,6.0,477.2142070005429,6.0,0.0,part_2,stop,1300.0,950.0,3.0,,,,,,,,,blue,diamond
0.0,1.0,1.0,0.0,5.0,5.0,580.0338649996775,6.0,0.0,part_2,go,1300.0,900.0,1.0,,,,,,,,,gray,triangle
0.0,3.0,3.0,0.0,5.0,5.0,570.7536509999045,6.0,0.0,part_2,go,1300.0,900.0,1.0,,,,,,,,,cyan,I
0.0,8.0,4.0,1.0,5.0,0.0,0.0,7.0,0.0,part_2,stop,1300.0,900.0,4.0,,,,,,,,,blue,diamond
0.0,7.0,3.0,1.0,6.0,0.0,0.0,7.0,0.0,part_2,go,1350.0,900.0,5.0,,,,,,,,,white,flipped triangle
0.0,1.0,1.0,0.0,5.0,5.0,564.0769720002936,7.0,0.0,part_2,go,1350.0,900.0,1.0,,,,,,,,,gray,triangle
0.0,7.0,3.0,1.0,5.0,0.0,0.0,7.0,0.0,part_2,stop,1350.0,900.0,4.0,,,,,,,,,white,flipped triangle
0.0,2.0,2.0,0.0,5.0,5.0,551.32685999979,7.0,0.0,part_2,go,1400.0,900.0,1.0,,,,,,,,,magenta,circle
0.0,8.0,4.0,1.0,6.0,0.0,0.0,7.0,0.0,part_2,stop,1400.0,900.0,4.0,,,,,,,,,blue,diamond
0.0,1.0,1.0,0.0,5.0,5.0,571.1912360002316,7.0,0.0,part_2,go,1400.0,950.0,1.0,,,,,,,,,gray,triangle
0.0,7.0,3.0,1.0,6.0,0.0,0.0,7.0,0.0,part_2,stop,1400.0,950.0,4.0,,,,,,,,,white,flipped triangle
0.0,3.0,3.0,0.0,5.0,5.0,525.1328550002654,7.0,0.0,part_2,go,1400.0,1000.0,1.0,,,,,,,,,cyan,I
0.0,4.0,4.0,0.0,5.0,5.0,495.8296790000531,7.0,0.0,part_2,go,1400.0,1000.0,1.0,,,,,,,,,green,hexagon
0.0,1.0,1.0,0.0,6.0,6.0,571.818649999841,7.0,0.0,part_2,go,1400.0,1000.0,1.0,,,,,,,,,gray,triangle
0.0,7.0,3.0,1.0,6.0,0.0,0.0,7.0,0.0,part_2,stop,1400.0,1000.0,4.0,,,,,,,,,white,flipped triangle
0.0,1.0,1.0,0.0,6.0,6.0,645.4160249995766,7.0,0.0,part_2,go,1400.0,1050.0,1.0,,,,,,,,,gray,triangle
0.0,3.0,3.0,0.0,5.0,5.0,1021.9518879994212,7.0,0.0,part_2,go,1400.0,1050.0,1.0,,,,,,,,,cyan,I
0.0,1.0,1.0,0.0,5.0,5.0,449.2774219997955,7.0,0.0,part_2,go,1400.0,1050.0,1.0,,,,,,,,,gray,triangle
0.0,3.0,3.0,0.0,6.0,6.0,580.158336999375,7.0,0.0,part_2,go,1400.0,1050.0,1.0,,,,,,,,,cyan,I
0.0,6.0,2.0,1.0,5.0,5.0,1262.4841030001337,7.0,0.0,part_2,stop,1400.0,1050.0,3.0,,,,,,,,,yellow,square
0.0,3.0,3.0,0.0,5.0,5.0,496.5252949996284,7.0,0.0,part_2,go,1350.0,1050.0,1.0,,,,,,,,,cyan,I
0.0,6.0,2.0,1.0,6.0,0.0,0.0,7.0,0.0,part_2,stop,1350.0,1050.0,4.0,,,,,,,,,yellow,square
0.0,2.0,2.0,0.0,5.0,5.0,524.3894329996692,7.0,0.0,part_2,go,1350.0,1100.0,1.0,,,,,,,,,magenta,circle
0.0,1.0,1.0,0.0,6.0,6.0,394.7837339992475,7.0,0.0,part_2,go,1350.0,1100.0,1.0,,,,,,,,,gray,triangle
0.0,8.0,4.0,1.0,6.0,6.0,872.0428059996266,7.0,0.0,part_2,go,1350.0,1100.0,1.0,,,,,,,,,blue,diamond
0.0,6.0,2.0,1.0,6.0,0.0,0.0,7.0,0.0,part_2,stop,1350.0,1100.0,4.0,,,,,,,,,yellow,square
0.0,8.0,4.0,1.0,5.0,5.0,423.2009110000945,7.0,0.0,part_2,stop,1350.0,1150.0,3.0,,,,,,,,,blue,diamond
0.0,8.0,4.0,1.0,6.0,0.0,0.0,7.0,0.0,part_2,stop,1300.0,1150.0,4.0,,,,,,,,,blue,diamond
0.0,3.0,3.0,0.0,5.0,5.0,553.6534850007229,7.0,0.0,part_2,go,1300.0,1200.0,1.0,,,,,,,,,cyan,I
0.0,2.0,2.0,0.0,6.0,6.0,486.8370419999337,7.0,0.0,part_2,go,1300.0,1200.0,1.0,,,,,,,,,magenta,circle
0.0,2.0,2.0,0.0,6.0,6.0,599.1196389995821,7.0,0.0,part_2,go,1300.0,1200.0,1.0,,,,,,,,,magenta,circle
0.0,6.0,2.0,1.0,6.0,0.0,0.0,7.0,0.0,part_2,stop,1300.0,1200.0,4.0,,,,,,,,,yellow,square
0.0,6.0,2.0,1.0,6.0,0.0,0.0,7.0,0.0,part_2,stop,1300.0,1250.0,4.0,,,,,,,,,yellow,square
0.0,4.0,4.0,0.0,5.0,5.0,534.6171959999992,7.0,0.0,part_2,go,1300.0,1300.0,1.0,,,,,,,,,green,hexagon
0.0,4.0,4.0,0.0,6.0,6.0,516.9347259998176,7.0,0.0,part_2,go,1300.0,1300.0,1.0,,,,,,,,,green,hexagon
0.0,2.0,2.0,0.0,6.0,6.0,478.2075899993288,7.0,0.0,part_2,go,1300.0,1300.0,1.0,,,,,,,,,magenta,circle
0.0,8.0,4.0,1.0,5.0,5.0,1031.744126000376,7.0,0.0,part_2,stop,1300.0,1300.0,3.0,,,,,,,,,blue,diamond
0.0,5.0,1.0,1.0,5.0,5.0,720.8182069998657,7.0,0.0,part_2,stop,1250.0,1300.0,3.0,,,,,,,,,orange,cross
0.0,3.0,3.0,0.0,6.0,6.0,451.6174910004338,7.0,0.0,part_2,go,1200.0,1300.0,1.0,,,,,,,,,cyan,I
0.0,5.0,1.0,1.0,5.0,5.0,552.663840000605,8.0,0.0,part_2,stop,1200.0,1300.0,3.0,,,,,,,,,orange,cross
0.0,6.0,2.0,1.0,6.0,0.0,0.0,8.0,0.0,part_2,go,1150.0,1300.0,5.0,,,,,,,,,yellow,square
0.0,7.0,3.0,1.0,5.0,5.0,499.3160579997493,8.0,0.0,part_2,stop,1150.0,1300.0,3.0,,,,,,,,,white,flipped triangle
0.0,2.0,2.0,0.0,5.0,5.0,571.8490439994639,8.0,0.0,part_2,go,1100.0,1300.0,1.0,,,,,,,,,magenta,circle
0.0,8.0,4.0,1.0,6.0,6.0,524.6778780001478,8.0,0.0,part_2,go,1100.0,1300.0,1.0,,,,,,,,,blue,diamond
0.0,8.0,4.0,1.0,5.0,5.0,1229.5487640003555,8.0,0.0,part_2,go,1100.0,1300.0,1.0,,,,,,,,,blue,diamond
0.0,1.0,1.0,0.0,6.0,6.0,627.0260940000298,8.0,0.0,part_2,go,1100.0,1300.0,1.0,,,,,,,,,gray,triangle
0.0,3.0,3.0,0.0,6.0,6.0,448.9319519998389,8.0,0.0,part_2,go,1100.0,1300.0,1.0,,,,,,,,,cyan,I
0.0,2.0,2.0,0.0,5.0,5.0,569.8598640001364,8.0,0.0,part_2,go,1100.0,1300.0,1.0,,,,,,,,,magenta,circle
0.0,6.0,2.0,1.0,5.0,0.0,0.0,8.0,0.0,part_2,stop,1100.0,1300.0,4.0,,,,,,,,,yellow,square
0.0,5.0,1.0,1.0,6.0,6.0,552.8225349999047,8.0,0.0,part_2,stop,1150.0,1300.0,3.0,,,,,,,,,orange,cross
0.0,6.0,2.0,1.0,6.0,6.0,1297.4801419995856,8.0,0.0,part_2,stop,1150.0,1250.0,3.0,,,,,,,,,yellow,square
0.0,2.0,2.0,0.0,6.0,6.0,589.5878900000753,8.0,0.0,part_2,go,1150.0,1200.0,1.0,,,,,,,,,magenta,circle
0.0,3.0,3.0,0.0,5.0,5.0,505.1068389993816,8.0,0.0,part_2,go,1150.0,1200.0,1.0,,,,,,,,,cyan,I
0.0,3.0,3.0,0.0,6.0,6.0,487.9980499999874,8.0,0.0,part_2,go,1150.0,1200.0,1.0,,,,,,,,,cyan,I
0.0,6.0,2.0,1.0,5.0,0.0,0.0,8.0,0.0,part_2,stop,1150.0,1200.0,4.0,,,,,,,,,yellow,square
0.0,4.0,4.0,0.0,6.0,6.0,555.1537210003517,8.0,0.0,part_2,go,1200.0,1200.0,1.0,,,,,,,,,green,hexagon
0.0,1.0,1.0,0.0,6.0,6.0,553.7528889999521,8.0,0.0,part_2,go,1200.0,1200.0,1.0,,,,,,,,,gray,triangle
0.0,4.0,4.0,0.0,5.0,5.0,533.7241649995121,8.0,0.0,part_2,go,1200.0,1200.0,1.0,,,,,,,,,green,hexagon
0.0,2.0,2.0,0.0,5.0,5.0,442.5533410003481,8.0,0.0,part_2,go,1200.0,1200.0,1.0,,,,,,,,,magenta,circle
0.0,3.0,3.0,0.0,5.0,5.0,525.5919040000663,8.0,0.0,part_2,go,1200.0,1200.0,1.0,,,,,,,,,cyan,I
0.0,8.0,4.0,1.0,5.0,5.0,1450.496822999412,8.0,0.0,part_2,go,1200.0,1200.0,1.0,,,,,,,,,blue,diamond
0.0,4.0,4.0,0.0,5.0,5.0,581.2214659999881,8.0,0.0,part_2,go,1200.0,1200.0,1.0,,,,,,,,,green,hexagon
0.0,6.0,2.0,1.0,5.0,5.0,412.3507779995634,8.0,0.0,part_2,go,1200.0,1200.0,1.0,,,,,,,,,yellow,square
0.0,7.0,3.0,1.0,6.0,6.0,515.5766699999731,8.0,0.0,part_2,go,1200.0,1200.0,1.0,,,,,,,,,white,flipped triangle
0.0,6.0,2.0,1.0,5.0,0.0,0.0,8.0,0.0,part_2,stop,1200.0,1200.0,4.0,,,,,,,,,yellow,square
0.0,7.0,3.0,1.0,5.0,0.0,0.0,8.0,0.0,part_2,stop,1250.0,1200.0,4.0,,,,,,,,,white,flipped triangle
0.0,8.0,4.0,1.0,5.0,0.0,0.0,8.0,0.0,part_2,stop,1300.0,1200.0,4.0,,,,,,,,,blue,diamond
0.0,4.0,4.0,0.0,5.0,5.0,778.4883120002632,8.0,0.0,part_2,go,1350.0,1200.0,1.0,,,,,,,,,green,hexagon
0.0,5.0,1.0,1.0,5.0,0.0,0.0,8.0,0.0,part_2,stop,1350.0,1200.0,4.0,,,,,,,,,orange,cross
0.0,5.0,1.0,1.0,6.0,0.0,0.0,8.0,0.0,part_2,stop,1400.0,1200.0,4.0,,,,,,,,,orange,cross
0.0,4.0,4.0,0.0,5.0,5.0,776.8400699997073,8.0,0.0,part_2,go,1400.0,1250.0,1.0,,,,,,,,,green,hexagon
0.0,8.0,4.0,1.0,6.0,0.0,0.0,8.0,0.0,part_2,stop,1400.0,1250.0,4.0,,,,,,,,,blue,diamond
0.0,2.0,2.0,0.0,5.0,5.0,778.0009590005648,8.0,0.0,part_2,go,1400.0,1300.0,1.0,,,,,,,,,magenta,circle
0.0,8.0,4.0,1.0,6.0,0.0,0.0,8.0,0.0,part_2,stop,1400.0,1300.0,4.0,,,,,,,,,blue,diamond
0.0,5.0,1.0,1.0,6.0,0.0,0.0,8.0,0.0,part_2,stop,1400.0,1350.0,4.0,,,,,,,,,orange,cross
0.0,3.0,3.0,0.0,7.0,3.0,1636.429068000325,1.0,2.0,part_3,go,0.0,0.0,0.0,580.0,5.0,116.0,696.0,580.0,464.0,348.0,232.0,cyan,I
0.0,6.0,2.0,1.0,7.0,6.0,1913.9759639992917,1.0,1.0,part_3,go,0.0,0.0,0.0,1152.0,6.0,768.0,192.0,384.0,576.0,960.0,1152.0,yellow,square
0.0,5.0,1.0,1.0,7.0,4.0,2612.681617999442,1.0,1.0,part_3,go,0.0,0.0,0.0,116.0,1.0,464.0,348.0,580.0,116.0,232.0,696.0,orange,cross
0.0,7.0,3.0,1.0,7.0,1.0,2239.847832999658,1.0,1.0,part_3,go,0.0,0.0,0.0,692.0,4.0,692.0,519.0,865.0,346.0,1038.0,173.0,white,flipped triangle
0.0,2.0,2.0,0.0,7.0,2.0,2316.1544879994835,1.0,1.0,part_3,go,0.0,0.0,0.0,308.0,2.0,462.0,308.0,154.0,770.0,924.0,616.0,magenta,circle
0.0,2.0,2.0,0.0,7.0,5.0,2406.844754999838,1.0,1.0,part_3,go,0.0,0.0,0.0,346.0,2.0,519.0,1038.0,173.0,865.0,346.0,692.0,magenta,circle
0.0,1.0,1.0,0.0,7.0,3.0,1390.7175180002014,1.0,1.0,part_3,go,0.0,0.0,0.0,154.0,1.0,616.0,770.0,154.0,308.0,462.0,924.0,gray,triangle
0.0,7.0,3.0,1.0,7.0,1.0,1786.5123710007538,1.0,1.0,part_3,go,0.0,0.0,0.0,768.0,4.0,768.0,384.0,192.0,576.0,1152.0,960.0,white,flipped triangle
0.0,2.0,2.0,0.0,7.0,3.0,2586.404032000246,1.0,1.0,part_3,go,0.0,0.0,0.0,540.0,4.0,675.0,810.0,540.0,135.0,270.0,405.0,magenta,circle
0.0,1.0,1.0,0.0,7.0,4.0,1370.929667999917,1.0,1.0,part_3,go,0.0,0.0,0.0,173.0,1.0,865.0,519.0,692.0,173.0,346.0,1038.0,gray,triangle
0.0,2.0,2.0,0.0,7.0,1.0,2541.765494000174,1.0,1.0,part_3,go,0.0,0.0,0.0,770.0,5.0,770.0,924.0,462.0,154.0,308.0,616.0,magenta,circle
0.0,3.0,3.0,0.0,7.0,1.0,2181.8070409999564,1.0,1.0,part_3,go,0.0,0.0,0.0,924.0,6.0,924.0,154.0,308.0,770.0,462.0,616.0,cyan,I
0.0,6.0,2.0,1.0,7.0,2.0,2934.795932999805,1.0,1.0,part_3,go,0.0,0.0,0.0,810.0,6.0,405.0,810.0,675.0,135.0,540.0,270.0,yellow,square
0.0,3.0,3.0,0.0,7.0,5.0,2663.912244999665,1.0,1.0,part_3,go,0.0,0.0,0.0,768.0,4.0,192.0,1152.0,960.0,576.0,768.0,384.0,cyan,I
0.0,2.0,2.0,0.0,7.0,3.0,2328.420625000035,1.0,1.0,part_3,go,0.0,0.0,0.0,540.0,4.0,270.0,135.0,540.0,675.0,810.0,405.0,magenta,circle
0.0,8.0,4.0,1.0,7.0,5.0,1594.226606999655,1.0,1.0,part_3,go,0.0,0.0,0.0,348.0,3.0,464.0,232.0,696.0,116.0,348.0,580.0,blue,diamond
0.0,4.0,4.0,0.0,7.0,2.0,1594.3848039996735,1.0,1.0,part_3,go,0.0,0.0,0.0,1038.0,6.0,692.0,1038.0,865.0,173.0,346.0,519.0,green,hexagon
0.0,6.0,2.0,1.0,7.0,3.0,1258.1678650003596,1.0,1.0,part_3,go,0.0,0.0,0.0,1152.0,6.0,576.0,960.0,1152.0,768.0,192.0,384.0,yellow,square
0.0,2.0,2.0,0.0,7.0,6.0,1888.7331480000285,1.0,1.0,part_3,go,0.0,0.0,0.0,696.0,6.0,464.0,580.0,232.0,348.0,116.0,696.0,magenta,circle
0.0,3.0,3.0,0.0,7.0,1.0,1543.948996999461,1.0,1.0,part_3,go,0.0,0.0,0.0,770.0,5.0,770.0,308.0,462.0,924.0,616.0,154.0,cyan,I
0.0,3.0,3.0,0.0,7.0,4.0,1393.3690650001154,2.0,1.0,part_3,go,0.0,0.0,0.0,405.0,3.0,270.0,540.0,675.0,405.0,810.0,135.0,cyan,I
0.0,1.0,1.0,0.0,7.0,2.0,1274.826898000356,2.0,1.0,part_3,go,0.0,0.0,0.0,192.0,1.0,768.0,192.0,576.0,960.0,384.0,1152.0,gray,triangle
0.0,1.0,1.0,0.0,7.0,1.0,1190.9227539999847,2.0,1.0,part_3,go,0.0,0.0,0.0,192.0,1.0,192.0,960.0,576.0,1152.0,384.0,768.0,gray,triangle
0.0,7.0,3.0,1.0,7.0,3.0,1350.1530919993456,2.0,1.0,part_3,go,0.0,0.0,0.0,770.0,5.0,308.0,462.0,770.0,616.0,154.0,924.0,white,flipped triangle
0.0,6.0,2.0,1.0,7.0,1.0,2110.62730499998,2.0,1.0,part_3,go,0.0,0.0,0.0,924.0,6.0,924.0,616.0,770.0,154.0,462.0,308.0,yellow,square
0.0,1.0,1.0,0.0,7.0,2.0,1172.508017999462,2.0,1.0,part_3,go,0.0,0.0,0.0,135.0,1.0,810.0,135.0,270.0,540.0,405.0,675.0,gray,triangle
0.0,5.0,1.0,1.0,7.0,6.0,1903.689450999991,2.0,1.0,part_3,go,0.0,0.0,0.0,405.0,3.0,135.0,675.0,540.0,810.0,270.0,405.0,orange,cross
0.0,4.0,4.0,0.0,7.0,6.0,1880.054291000306,2.0,1.0,part_3,go,0.0,0.0,0.0,135.0,1.0,810.0,675.0,405.0,540.0,270.0,135.0,green,hexagon
0.0,3.0,3.0,0.0,7.0,2.0,2121.537535999778,2.0,1.0,part_3,go,0.0,0.0,0.0,576.0,3.0,1152.0,576.0,192.0,384.0,768.0,960.0,cyan,I
0.0,4.0,4.0,0.0,7.0,3.0,2573.474976999933,2.0,1.0,part_3,go,0.0,0.0,0.0,696.0,6.0,464.0,232.0,696.0,580.0,348.0,116.0,green,hexagon
0.0,7.0,3.0,1.0,7.0,5.0,2137.233336000463,2.0,1.0,part_3,go,0.0,0.0,0.0,540.0,4.0,405.0,810.0,135.0,270.0,540.0,675.0,white,flipped triangle
0.0,7.0,3.0,1.0,7.0,2.0,2548.2941059999575,2.0,1.0,part_3,go,0.0,0.0,0.0,768.0,4.0,576.0,768.0,1152.0,960.0,384.0,192.0,white,flipped triangle
0.0,6.0,2.0,1.0,7.0,4.0,2879.5411999999487,2.0,1.0,part_3,go,0.0,0.0,0.0,116.0,1.0,580.0,348.0,696.0,116.0,232.0,464.0,yellow,square
0.0,4.0,4.0,0.0,7.0,5.0,1793.0412079995222,2.0,1.0,part_3,go,0.0,0.0,0.0,1038.0,6.0,346.0,519.0,692.0,865.0,1038.0,173.0,green,hexagon
0.0,8.0,4.0,1.0,7.0,2.0,1600.563045999479,2.0,1.0,part_3,go,0.0,0.0,0.0,1038.0,6.0,519.0,1038.0,173.0,346.0,865.0,692.0,blue,diamond
0.0,1.0,1.0,0.0,7.0,3.0,1583.4176500002286,2.0,1.0,part_3,go,0.0,0.0,0.0,116.0,1.0,348.0,464.0,116.0,580.0,232.0,696.0,gray,triangle
0.0,6.0,2.0,1.0,7.0,2.0,1955.4181539997444,2.0,1.0,part_3,go,0.0,0.0,0.0,924.0,6.0,154.0,924.0,770.0,462.0,616.0,308.0,yellow,square
0.0,3.0,3.0,0.0,7.0,5.0,1434.7784660003526,2.0,1.0,part_3,go,0.0,0.0,0.0,346.0,2.0,173.0,865.0,519.0,692.0,346.0,1038.0,cyan,I
0.0,7.0,3.0,1.0,7.0,3.0,1823.9401360006011,2.0,1.0,part_3,go,0.0,0.0,0.0,232.0,2.0,348.0,116.0,232.0,580.0,696.0,464.0,white,flipped triangle
0.0,5.0,1.0,1.0,7.0,2.0,1738.8535720001528,2.0,1.0,part_3,go,0.0,0.0,0.0,308.0,2.0,616.0,308.0,462.0,154.0,770.0,924.0,orange,cross
0.0,7.0,3.0,1.0,7.0,4.0,1321.4271349997944,3.0,1.0,part_3,go,0.0,0.0,0.0,308.0,2.0,924.0,770.0,462.0,308.0,154.0,616.0,white,flipped triangle
0.0,8.0,4.0,1.0,7.0,1.0,1106.8482900000165,3.0,1.0,part_3,go,0.0,0.0,0.0,1038.0,6.0,1038.0,346.0,865.0,519.0,692.0,173.0,blue,diamond
0.0,7.0,3.0,1.0,7.0,6.0,1032.672997999725,3.0,1.0,part_3,go,0.0,0.0,0.0,348.0,3.0,232.0,696.0,580.0,464.0,116.0,348.0,white,flipped triangle
0.0,6.0,2.0,1.0,7.0,3.0,2067.4342110005455,3.0,1.0,part_3,go,0.0,0.0,0.0,810.0,6.0,540.0,135.0,810.0,675.0,405.0,270.0,yellow,square
0.0,3.0,3.0,0.0,7.0,4.0,1463.5902500003797,3.0,1.0,part_3,go,0.0,0.0,0.0,348.0,3.0,232.0,116.0,580.0,348.0,696.0,464.0,cyan,I
0.0,5.0,1.0,1.0,7.0,3.0,1005.4024549999667,3.0,1.0,part_3,go,0.0,0.0,0.0,810.0,6.0,270.0,135.0,810.0,540.0,675.0,405.0,orange,cross
0.0,4.0,4.0,0.0,7.0,2.0,1105.576451000161,3.0,1.0,part_3,go,0.0,0.0,0.0,810.0,6.0,540.0,810.0,405.0,135.0,675.0,270.0,green,hexagon
0.0,5.0,1.0,1.0,7.0,4.0,1636.2158429992633,3.0,1.0,part_3,go,0.0,0.0,0.0,692.0,4.0,1038.0,173.0,519.0,692.0,865.0,346.0,orange,cross
0.0,1.0,1.0,0.0,7.0,3.0,958.6909440004092,3.0,1.0,part_3,go,0.0,0.0,0.0,154.0,1.0,616.0,462.0,154.0,770.0,308.0,924.0,gray,triangle
0.0,7.0,3.0,1.0,7.0,5.0,1389.0389660000435,3.0,1.0,part_3,go,0.0,0.0,0.0,405.0,3.0,540.0,810.0,270.0,135.0,405.0,675.0,white,flipped triangle
0.0,6.0,2.0,1.0,7.0,1.0,1771.8068370004405,3.0,1.0,part_3,go,0.0,0.0,0.0,1038.0,6.0,1038.0,519.0,692.0,173.0,346.0,865.0,yellow,square
0.0,2.0,2.0,0.0,7.0,1.0,1496.0911719999783,3.0,1.0,part_3,go,0.0,0.0,0.0,580.0,5.0,580.0,696.0,464.0,116.0,232.0,348.0,magenta,circle
0.0,8.0,4.0,1.0,7.0,3.0,906.0109090005426,3.0,1.0,part_3,go,0.0,0.0,0.0,1152.0,6.0,192.0,768.0,1152.0,576.0,384.0,960.0,blue,diamond
0.0,5.0,1.0,1.0,7.0,5.0,1447.693772999628,3.0,1.0,part_3,go,0.0,0.0,0.0,464.0,4.0,696.0,232.0,580.0,348.0,464.0,116.0,orange,cross
0.0,1.0,1.0,0.0,7.0,2.0,856.889102000423,3.0,1.0,part_3,go,0.0,0.0,0.0,173.0,1.0,519.0,173.0,346.0,692.0,1038.0,865.0,gray,triangle
0.0,6.0,2.0,1.0,7.0,6.0,3653.4937050000735,3.0,1.0,part_3,go,0.0,0.0,0.0,696.0,6.0,232.0,580.0,348.0,116.0,464.0,696.0,yellow,square
0.0,8.0,4.0,1.0,7.0,6.0,2437.159279000298,3.0,1.0,part_3,go,0.0,0.0,0.0,135.0,1.0,270.0,675.0,540.0,405.0,810.0,135.0,blue,diamond
0.0,3.0,3.0,0.0,7.0,1.0,1765.9294530003535,3.0,1.0,part_3,go,0.0,0.0,0.0,865.0,5.0,865.0,346.0,1038.0,173.0,692.0,519.0,cyan,I
0.0,2.0,2.0,0.0,7.0,1.0,1371.8578119996891,3.0,1.0,part_3,go,0.0,0.0,0.0,692.0,4.0,692.0,346.0,173.0,1038.0,519.0,865.0,magenta,circle
0.0,4.0,4.0,0.0,7.0,2.0,1576.1870169999384,3.0,1.0,part_3,go,0.0,0.0,0.0,770.0,5.0,462.0,770.0,616.0,924.0,154.0,308.0,green,hexagon
0.0,4.0,4.0,0.0,7.0,3.0,1064.6248379998724,4.0,1.0,part_3,go,0.0,0.0,0.0,616.0,4.0,924.0,308.0,616.0,154.0,462.0,770.0,green,hexagon
0.0,8.0,4.0,1.0,7.0,3.0,1227.239654999721,4.0,1.0,part_3,go,0.0,0.0,0.0,960.0,5.0,192.0,768.0,960.0,384.0,1152.0,576.0,blue,diamond
0.0,4.0,4.0,0.0,7.0,3.0,1337.907443000404,4.0,1.0,part_3,go,0.0,0.0,0.0,960.0,5.0,192.0,576.0,960.0,768.0,384.0,1152.0,green,hexagon
0.0,2.0,2.0,0.0,7.0,3.0,1712.7117950003594,4.0,1.0,part_3,go,0.0,0.0,0.0,384.0,2.0,960.0,1152.0,384.0,768.0,576.0,192.0,magenta,circle
0.0,5.0,1.0,1.0,7.0,5.0,1814.6848409996892,4.0,1.0,part_3,go,0.0,0.0,0.0,519.0,3.0,1038.0,346.0,692.0,865.0,519.0,173.0,orange,cross
0.0,3.0,3.0,0.0,7.0,1.0,1391.2036700003227,4.0,1.0,part_3,go,0.0,0.0,0.0,405.0,3.0,405.0,135.0,675.0,270.0,540.0,810.0,cyan,I
0.0,8.0,4.0,1.0,7.0,2.0,1633.0205649992422,4.0,1.0,part_3,go,0.0,0.0,0.0,770.0,5.0,308.0,770.0,616.0,462.0,924.0,154.0,blue,diamond
0.0,1.0,1.0,0.0,7.0,4.0,1994.9949439997,4.0,1.0,part_3,go,0.0,0.0,0.0,580.0,5.0,696.0,348.0,464.0,580.0,116.0,232.0,gray,triangle
0.0,5.0,1.0,1.0,7.0,2.0,1799.7279400005937,4.0,1.0,part_3,go,0.0,0.0,0.0,616.0,4.0,462.0,616.0,924.0,308.0,154.0,770.0,orange,cross
0.0,7.0,3.0,1.0,7.0,4.0,1590.265541000008,4.0,1.0,part_3,go,0.0,0.0,0.0,519.0,3.0,173.0,865.0,1038.0,519.0,692.0,346.0,white,flipped triangle
0.0,4.0,4.0,0.0,7.0,4.0,1135.1055129998713,4.0,1.0,part_3,go,0.0,0.0,0.0,960.0,5.0,192.0,384.0,1152.0,960.0,576.0,768.0,green,hexagon
0.0,5.0,1.0,1.0,7.0,3.0,1676.6041999999288,4.0,1.0,part_3,go,0.0,0.0,0.0,384.0,2.0,768.0,960.0,384.0,576.0,192.0,1152.0,orange,cross
0.0,8.0,4.0,1.0,7.0,6.0,2103.28580300029,4.0,1.0,part_3,go,0.0,0.0,0.0,696.0,6.0,464.0,116.0,580.0,348.0,232.0,696.0,blue,diamond
0.0,5.0,1.0,1.0,7.0,5.0,1701.0721469996497,4.0,1.0,part_3,go,0.0,0.0,0.0,192.0,1.0,960.0,1152.0,768.0,576.0,192.0,384.0,orange,cross
0.0,4.0,4.0,0.0,7.0,4.0,2547.222463000253,4.0,1.0,part_3,go,0.0,0.0,0.0,696.0,6.0,464.0,348.0,116.0,696.0,580.0,232.0,green,hexagon
0.0,8.0,4.0,1.0,7.0,4.0,1204.8285820001183,4.0,1.0,part_3,go,0.0,0.0,0.0,810.0,6.0,405.0,675.0,540.0,810.0,270.0,135.0,blue,diamond
0.0,8.0,4.0,1.0,7.0,1.0,1773.8549609994152,4.0,1.0,part_3,go,0.0,0.0,0.0,924.0,6.0,924.0,462.0,154.0,616.0,308.0,770.0,blue,diamond
0.0,1.0,1.0,0.0,7.0,4.0,1086.668703000214,4.0,1.0,part_3,go,0.0,0.0,0.0,135.0,1.0,810.0,270.0,675.0,135.0,540.0,405.0,gray,triangle
0.0,6.0,2.0,1.0,7.0,6.0,1100.7548679999672,4.0,1.0,part_3,go,0.0,0.0,0.0,1038.0,6.0,519.0,865.0,346.0,692.0,173.0,1038.0,yellow,square
0.0,2.0,2.0,0.0,7.0,6.0,1055.6165480002164,4.0,1.0,part_3,go,0.0,0.0,0.0,1152.0,6.0,768.0,960.0,192.0,384.0,576.0,1152.0,magenta,circle
