raw_reward_magnitude,stim_reward,stepwise_reward_magnitude,paired_with_stopping,quadrant,response,reaction_time,block,num_trial_presentations,which_part,stop_signal_trial_type,left_SSD,right_SSD,accuracy,chosen_bidding_amount,chosen_bidding_level,possible_bid_1,possible_bid_2,possible_bid_3,possible_bid_4,possible_bid_5,possible_bid_6,color_text,shape_text
635.0,3.0,3.0,0.0,2.0,2.0,503.5162410003977,1.0,2.0,part_1,,,,,,,,,,,,,white,square
0.0,3.0,0.0,0.0,3.0,3.0,538.4598840009858,1.0,1.0,part_1,,,,,,,,,,,,,white,square
303.0,6.0,2.0,1.0,3.0,3.0,747.5218360013969,1.0,1.0,part_1,,,,,,,,,,,,,magenta,I
320.0,2.0,2.0,0.0,4.0,4.0,827.3416100000759,1.0,1.0,part_1,,,,,,,,,,,,,blue,flipped triangle
1276.0,8.0,4.0,1.0,3.0,3.0,532.1519419994729,1.0,1.0,part_1,,,,,,,,,,,,,green,circle
187.0,1.0,1.0,0.0,4.0,4.0,560.0638149990118,1.0,1.0,part_1,,,,,,,,,,,,,yellow,cross
178.0,1.0,1.0,0.0,4.0,4.0,464.0078719985467,1.0,1.0,part_1,,,,,,,,,,,,,yellow,cross
1279.0,8.0,4.0,1.0,2.0,2.0,691.3494760010508,1.0,1.0,part_1,,,,,,,,,,,,,green,circle
0.0,8.0,0.0,1.0,2.0,2.0,410.6849700001476,1.0,1.0,part_1,,,,,,,,,,,,,green,circle
1287.0,8.0,4.0,1.0,2.0,2.0,380.5016520000208,1.0,1.0,part_1,,,,,,,,,,,,,green,circle
1304.0,4.0,4.0,0.0,2.0,2.0,487.3661149995314,1.0,1.0,part_1,,,,,,,,,,,,,gray,hexagon
1320.0,8.0,4.0,1.0,4.0,4.0,455.5609769995499,1.0,1.0,part_1,,,,,,,,,,,,,green,circle
345.0,6.0,2.0,1.0,2.0,2.0,389.9107489996822,1.0,1.0,part_1,,,,,,,,,,,,,magenta,I
640.0,7.0,3.0,1.0,2.0,2.0,422.9858670005342,1.0,1.0,part_1,,,,,,,,,,,,,cyan,diamond
300.0,2.0,2.0,0.0,4.0,4.0,419.4568130005791,1.0,1.0,part_1,,,,,,,,,,,,,blue,flipped triangle
0.0,4.0,0.0,0.0,2.0,2.0,359.733844999937,1.0,1.0,part_1,,,,,,,,,,,,,gray,hexagon
627.0,7.0,3.0,1.0,4.0,4.0,365.4408130005322,1.0,1.0,part_1,,,,,,,,,,,,,cyan,diamond
625.0,7.0,3.0,1.0,2.0,2.0,404.9743169998692,1.0,1.0,part_1,,,,,,,,,,,,,cyan,diamond
179.0,1.0,1.0,0.0,3.0,3.0,717.4882180006534,1.0,1.0,part_1,,,,,,,,,,,,,yellow,cross
1310.0,8.0,4.0,1.0,1.0,1.0,782.8864029997931,1.0,1.0,part_1,,,,,,,,,,,,,green,circle
344.0,2.0,2.0,0.0,1.0,1.0,355.5911559997184,1.0,1.0,part_1,,,,,,,,,,,,,blue,flipped triangle
153.0,1.0,1.0,0.0,2.0,2.0,494.8686289990291,1.0,1.0,part_1,,,,,,,,,,,,,yellow,cross
337.0,6.0,2.0,1.0,2.0,2.0,355.4944070001511,1.0,1.0,part_1,,,,,,,,,,,,,magenta,I
0.0,7.0,0.0,1.0,1.0,1.0,374.2751059999136,1.0,1.0,part_1,,,,,,,,,,,,,cyan,diamond
322.0,2.0,2.0,0.0,4.0,4.0,540.4215839989774,1.0,1.0,part_1,,,,,,,,,,,,,blue,flipped triangle
148.0,1.0,1.0,0.0,3.0,3.0,456.439543999295,1.0,1.0,part_1,,,,,,,,,,,,,yellow,cross
162.0,5.0,1.0,1.0,2.0,2.0,436.8972199990821,1.0,1.0,part_1,,,,,,,,,,,,,orange,triangle
148.0,5.0,1.0,1.0,3.0,3.0,456.4469229990209,1.0,1.0,part_1,,,,,,,,,,,,,orange,triangle
1324.0,4.0,4.0,0.0,2.0,2.0,707.1890079987497,1.0,1.0,part_1,,,,,,,,,,,,,gray,hexagon
0.0,7.0,0.0,1.0,3.0,3.0,408.9343409996218,1.0,1.0,part_1,,,,,,,,,,,,,cyan,diamond
644.0,3.0,3.0,0.0,2.0,2.0,363.9988760005508,1.0,1.0,part_1,,,,,,,,,,,,,white,square
310.0,2.0,2.0,0.0,4.0,4.0,484.8401060007745,1.0,1.0,part_1,,,,,,,,,,,,,blue,flipped triangle
0.0,6.0,0.0,1.0,4.0,4.0,391.8252459989162,1.0,1.0,part_1,,,,,,,,,,,,,magenta,I
318.0,2.0,2.0,0.0,3.0,3.0,419.7691820008913,1.0,1.0,part_1,,,,,,,,,,,,,blue,flipped triangle
664.0,3.0,3.0,0.0,2.0,2.0,512.8039459996216,1.0,1.0,part_1,,,,,,,,,,,,,white,square
662.0,7.0,3.0,1.0,3.0,3.0,409.0248079992307,1.0,2.0,part_1,,,,,,,,,,,,,cyan,diamond
334.0,2.0,2.0,0.0,3.0,3.0,447.9379790009261,1.0,1.0,part_1,,,,,,,,,,,,,blue,flipped triangle
1292.0,4.0,4.0,0.0,1.0,1.0,875.2435410006001,1.0,1.0,part_1,,,,,,,,,,,,,gray,hexagon
341.0,2.0,2.0,0.0,3.0,3.0,429.9200909990759,1.0,1.0,part_1,,,,,,,,,,,,,blue,flipped triangle
337.0,2.0,2.0,0.0,3.0,3.0,429.0433639998809,1.0,1.0,part_1,,,,,,,,,,,,,blue,flipped triangle
178.0,5.0,1.0,1.0,2.0,2.0,716.86789100022,1.0,1.0,part_1,,,,,,,,,,,,,orange,triangle
160.0,5.0,1.0,1.0,3.0,3.0,523.3302780015947,1.0,1.0,part_1,,,,,,,,,,,,,orange,triangle
1304.0,8.0,4.0,1.0,2.0,2.0,392.3521719989367,1.0,1.0,part_1,,,,,,,,,,,,,green,circle
349.0,2.0,2.0,0.0,1.0,1.0,550.6069620005292,1.0,1.0,part_1,,,,,,,,,,,,,blue,flipped triangle
658.0,3.0,3.0,0.0,3.0,3.0,393.3185169989883,1.0,1.0,part_1,,,,,,,,,,,,,white,square
0.0,7.0,0.0,1.0,4.0,4.0,475.6235449985979,1.0,1.0,part_1,,,,,,,,,,,,,cyan,diamond
329.0,2.0,2.0,0.0,2.0,2.0,616.6285479994258,1.0,1.0,part_1,,,,,,,,,,,,,blue,flipped triangle
1285.0,4.0,4.0,0.0,4.0,4.0,411.814578999838,1.0,1.0,part_1,,,,,,,,,,,,,gray,hexagon
154.0,5.0,1.0,1.0,4.0,4.0,566.8384650016378,1.0,1.0,part_1,,,,,,,,,,,,,orange,triangle
659.0,3.0,3.0,0.0,2.0,2.0,364.8892590008472,1.0,1.0,part_1,,,,,,,,,,,,,white,square
1316.0,4.0,4.0,0.0,1.0,1.0,512.9589250009303,1.0,2.0,part_1,,,,,,,,,,,,,gray,hexagon
305.0,6.0,2.0,1.0,3.0,3.0,438.7287219997233,1.0,1.0,part_1,,,,,,,,,,,,,magenta,I
626.0,7.0,3.0,1.0,3.0,3.0,606.1420900005032,1.0,1.0,part_1,,,,,,,,,,,,,cyan,diamond
344.0,6.0,2.0,1.0,2.0,2.0,680.4682870006218,1.0,1.0,part_1,,,,,,,,,,,,,magenta,I
139.0,1.0,1.0,0.0,2.0,2.0,530.2078799995797,1.0,1.0,part_1,,,,,,,,,,,,,yellow,cross
1304.0,8.0,4.0,1.0,2.0,2.0,327.9097150007146,1.0,1.0,part_1,,,,,,,,,,,,,green,circle
327.0,2.0,2.0,0.0,1.0,1.0,678.8143510002556,1.0,1.0,part_1,,,,,,,,,,,,,blue,flipped triangle
334.0,6.0,2.0,1.0,2.0,2.0,428.1237760005751,1.0,1.0,part_1,,,,,,,,,,,,,magenta,I
1282.0,4.0,4.0,0.0,3.0,3.0,482.792202001292,1.0,1.0,part_1,,,,,,,,,,,,,gray,hexagon
160.0,1.0,1.0,0.0,3.0,3.0,447.729289999188,1.0,1.0,part_1,,,,,,,,,,,,,yellow,cross
186.0,5.0,1.0,1.0,4.0,4.0,624.8035400003573,1.0,1.0,part_1,,,,,,,,,,,,,orange,triangle
0.0,6.0,0.0,1.0,3.0,3.0,482.0579280003585,1.0,1.0,part_1,,,,,,,,,,,,,magenta,I
140.0,5.0,1.0,1.0,2.0,2.0,452.226524001162,1.0,1.0,part_1,,,,,,,,,,,,,orange,triangle
653.0,7.0,3.0,1.0,2.0,2.0,382.6819890000479,1.0,1.0,part_1,,,,,,,,,,,,,cyan,diamond
1304.0,8.0,4.0,1.0,4.0,4.0,615.0837080003839,1.0,1.0,part_1,,,,,,,,,,,,,green,circle
318.0,6.0,2.0,1.0,2.0,2.0,400.7184729998698,1.0,1.0,part_1,,,,,,,,,,,,,magenta,I
660.0,3.0,3.0,0.0,1.0,1.0,653.0715730004886,1.0,1.0,part_1,,,,,,,,,,,,,white,square
0.0,5.0,0.0,1.0,3.0,3.0,641.3579809996008,1.0,1.0,part_1,,,,,,,,,,,,,orange,triangle
179.0,1.0,1.0,0.0,4.0,4.0,754.9408480008424,1.0,1.0,part_1,,,,,,,,,,,,,yellow,cross
0.0,1.0,0.0,0.0,4.0,4.0,595.6241630010481,1.0,1.0,part_1,,,,,,,,,,,,,yellow,cross
0.0,7.0,0.0,1.0,1.0,1.0,568.1623580003361,1.0,1.0,part_1,,,,,,,,,,,,,cyan,diamond
674.0,7.0,3.0,1.0,4.0,4.0,616.9935350008018,1.0,1.0,part_1,,,,,,,,,,,,,cyan,diamond
0.0,1.0,0.0,0.0,3.0,3.0,543.750431999797,1.0,1.0,part_1,,,,,,,,,,,,,yellow,cross
174.0,5.0,1.0,1.0,2.0,2.0,512.004521999188,1.0,1.0,part_1,,,,,,,,,,,,,orange,triangle
0.0,8.0,0.0,1.0,2.0,2.0,503.27503100015747,1.0,1.0,part_1,,,,,,,,,,,,,green,circle
0.0,2.0,0.0,0.0,4.0,4.0,491.8220899999141,1.0,1.0,part_1,,,,,,,,,,,,,blue,flipped triangle
0.0,6.0,0.0,1.0,4.0,4.0,427.5819119993684,1.0,1.0,part_1,,,,,,,,,,,,,magenta,I
0.0,1.0,0.0,0.0,3.0,3.0,606.5968899984,1.0,1.0,part_1,,,,,,,,,,,,,yellow,cross
1324.0,8.0,4.0,1.0,2.0,2.0,664.0280160008842,1.0,1.0,part_1,,,,,,,,,,,,,green,circle
176.0,5.0,1.0,1.0,2.0,2.0,432.174636000127,1.0,1.0,part_1,,,,,,,,,,,,,orange,triangle
660.0,7.0,3.0,1.0,3.0,3.0,355.01154800113,1.0,1.0,part_1,,,,,,,,,,,,,cyan,diamond
625.0,3.0,3.0,0.0,2.0,2.0,584.2227850007475,1.0,1.0,part_1,,,,,,,,,,,,,white,square
644.0,7.0,3.0,1.0,1.0,1.0,418.7781560012809,1.0,2.0,part_1,,,,,,,,,,,,,cyan,diamond
642.0,7.0,3.0,1.0,2.0,2.0,779.3863080005394,1.0,1.0,part_1,,,,,,,,,,,,,cyan,diamond
147.0,1.0,1.0,0.0,4.0,4.0,391.2859239990212,1.0,2.0,part_1,,,,,,,,,,,,,yellow,cross
304.0,2.0,2.0,0.0,4.0,4.0,334.2833289989357,1.0,1.0,part_1,,,,,,,,,,,,,blue,flipped triangle
166.0,5.0,1.0,1.0,3.0,3.0,407.912849999775,1.0,1.0,part_1,,,,,,,,,,,,,orange,triangle
0.0,5.0,0.0,1.0,1.0,1.0,641.8230860017502,1.0,1.0,part_1,,,,,,,,,,,,,orange,triangle
0.0,8.0,0.0,1.0,2.0,2.0,595.6984180011204,1.0,1.0,part_1,,,,,,,,,,,,,green,circle
1299.0,8.0,4.0,1.0,3.0,3.0,455.8309110016125,1.0,1.0,part_1,,,,,,,,,,,,,green,circle
0.0,7.0,0.0,1.0,3.0,3.0,325.4807190005522,1.0,1.0,part_1,,,,,,,,,,,,,cyan,diamond
1299.0,8.0,4.0,1.0,1.0,1.0,454.1859000000841,1.0,1.0,part_1,,,,,,,,,,,,,green,circle
661.0,7.0,3.0,1.0,3.0,3.0,360.733331001029,1.0,1.0,part_1,,,,,,,,,,,,,cyan,diamond
627.0,3.0,3.0,0.0,2.0,2.0,400.2579560001322,1.0,1.0,part_1,,,,,,,,,,,,,white,square
0.0,6.0,0.0,1.0,4.0,4.0,780.7279930002551,1.0,1.0,part_1,,,,,,,,,,,,,magenta,I
319.0,6.0,2.0,1.0,3.0,3.0,420.0810580005054,1.0,1.0,part_1,,,,,,,,,,,,,magenta,I
303.0,2.0,2.0,0.0,4.0,4.0,409.4006680006714,1.0,1.0,part_1,,,,,,,,,,,,,blue,flipped triangle
143.0,1.0,1.0,0.0,1.0,1.0,474.4569260001299,1.0,1.0,part_1,,,,,,,,,,,,,yellow,cross
0.0,5.0,0.0,1.0,1.0,1.0,464.6254319995933,1.0,1.0,part_1,,,,,,,,,,,,,orange,triangle
349.0,6.0,2.0,1.0,2.0,2.0,436.5375739998853,1.0,1.0,part_1,,,,,,,,,,,,,magenta,I
320.0,6.0,2.0,1.0,3.0,3.0,556.4256140005455,2.0,1.0,part_1,,,,,,,,,,,,,magenta,I
0.0,3.0,0.0,0.0,3.0,3.0,379.9934399994527,2.0,1.0,part_1,,,,,,,,,,,,,white,square
0.0,8.0,0.0,1.0,3.0,3.0,363.6995670003671,2.0,1.0,part_1,,,,,,,,,,,,,green,circle
1280.0,4.0,4.0,0.0,1.0,1.0,418.7328560001333,2.0,1.0,part_1,,,,,,,,,,,,,gray,hexagon
307.0,6.0,2.0,1.0,1.0,1.0,418.2908760012651,2.0,1.0,part_1,,,,,,,,,,,,,magenta,I
673.0,3.0,3.0,0.0,1.0,1.0,344.4450690003577,2.0,1.0,part_1,,,,,,,,,,,,,white,square
306.0,6.0,2.0,1.0,2.0,2.0,687.2227870007919,2.0,1.0,part_1,,,,,,,,,,,,,magenta,I
0.0,1.0,0.0,0.0,3.0,3.0,446.6489550013648,2.0,1.0,part_1,,,,,,,,,,,,,yellow,cross
1287.0,4.0,4.0,0.0,3.0,3.0,325.2924419994087,2.0,1.0,part_1,,,,,,,,,,,,,gray,hexagon
655.0,3.0,3.0,0.0,1.0,1.0,391.5179340001486,2.0,1.0,part_1,,,,,,,,,,,,,white,square
145.0,1.0,1.0,0.0,1.0,1.0,407.9481450007733,2.0,1.0,part_1,,,,,,,,,,,,,yellow,cross
1291.0,8.0,4.0,1.0,1.0,1.0,391.6105329990387,2.0,1.0,part_1,,,,,,,,,,,,,green,circle
0.0,1.0,0.0,0.0,1.0,1.0,297.7577370002109,2.0,1.0,part_1,,,,,,,,,,,,,yellow,cross
0.0,2.0,0.0,0.0,3.0,3.0,409.3007909996231,2.0,1.0,part_1,,,,,,,,,,,,,blue,flipped triangle
337.0,6.0,2.0,1.0,4.0,4.0,621.6015919999336,2.0,2.0,part_1,,,,,,,,,,,,,magenta,I
0.0,2.0,0.0,0.0,3.0,3.0,530.0234499991348,2.0,1.0,part_1,,,,,,,,,,,,,blue,flipped triangle
626.0,3.0,3.0,0.0,4.0,4.0,613.7347639996733,2.0,1.0,part_1,,,,,,,,,,,,,white,square
655.0,7.0,3.0,1.0,4.0,4.0,335.2420680002979,2.0,1.0,part_1,,,,,,,,,,,,,cyan,diamond
148.0,1.0,1.0,0.0,2.0,2.0,697.7207369982352,2.0,4.0,part_1,,,,,,,,,,,,,yellow,cross
659.0,3.0,3.0,0.0,3.0,3.0,446.1685200003558,2.0,1.0,part_1,,,,,,,,,,,,,white,square
1314.0,8.0,4.0,1.0,3.0,3.0,334.35213499979,2.0,1.0,part_1,,,,,,,,,,,,,green,circle
1291.0,8.0,4.0,1.0,1.0,1.0,710.1935379996576,2.0,1.0,part_1,,,,,,,,,,,,,green,circle
137.0,1.0,1.0,0.0,3.0,3.0,503.7233530001686,2.0,1.0,part_1,,,,,,,,,,,,,yellow,cross
168.0,5.0,1.0,1.0,2.0,2.0,559.0465980003501,2.0,1.0,part_1,,,,,,,,,,,,,orange,triangle
187.0,5.0,1.0,1.0,4.0,4.0,596.0868049987766,2.0,1.0,part_1,,,,,,,,,,,,,orange,triangle
0.0,1.0,0.0,0.0,4.0,4.0,363.3126810000249,2.0,1.0,part_1,,,,,,,,,,,,,yellow,cross
0.0,3.0,0.0,0.0,3.0,3.0,456.6913569997268,2.0,1.0,part_1,,,,,,,,,,,,,white,square
339.0,6.0,2.0,1.0,4.0,4.0,503.5219530000177,2.0,1.0,part_1,,,,,,,,,,,,,magenta,I
324.0,6.0,2.0,1.0,1.0,1.0,495.5787600010808,2.0,1.0,part_1,,,,,,,,,,,,,magenta,I
633.0,7.0,3.0,1.0,4.0,4.0,430.0900700000056,2.0,1.0,part_1,,,,,,,,,,,,,cyan,diamond
137.0,5.0,1.0,1.0,1.0,1.0,598.620053000559,2.0,1.0,part_1,,,,,,,,,,,,,orange,triangle
0.0,8.0,0.0,1.0,4.0,4.0,336.9161639984668,2.0,1.0,part_1,,,,,,,,,,,,,green,circle
348.0,6.0,2.0,1.0,1.0,1.0,289.4546930001525,2.0,1.0,part_1,,,,,,,,,,,,,magenta,I
143.0,5.0,1.0,1.0,4.0,4.0,486.1062210002274,2.0,1.0,part_1,,,,,,,,,,,,,orange,triangle
341.0,2.0,2.0,0.0,2.0,2.0,523.3425899987196,2.0,2.0,part_1,,,,,,,,,,,,,blue,flipped triangle
139.0,5.0,1.0,1.0,3.0,3.0,751.3343919999897,2.0,1.0,part_1,,,,,,,,,,,,,orange,triangle
336.0,6.0,2.0,1.0,1.0,1.0,519.0943899997364,2.0,1.0,part_1,,,,,,,,,,,,,magenta,I
1282.0,8.0,4.0,1.0,3.0,3.0,436.8951770011335,2.0,1.0,part_1,,,,,,,,,,,,,green,circle
1306.0,4.0,4.0,0.0,3.0,3.0,391.6647189998912,2.0,1.0,part_1,,,,,,,,,,,,,gray,hexagon
0.0,3.0,0.0,0.0,4.0,4.0,740.3879949997645,2.0,1.0,part_1,,,,,,,,,,,,,white,square
0.0,5.0,0.0,1.0,4.0,4.0,355.7679209989146,2.0,1.0,part_1,,,,,,,,,,,,,orange,triangle
1306.0,8.0,4.0,1.0,2.0,2.0,325.4294959988328,2.0,3.0,part_1,,,,,,,,,,,,,green,circle
655.0,3.0,3.0,0.0,3.0,3.0,430.0733869986288,2.0,1.0,part_1,,,,,,,,,,,,,white,square
168.0,1.0,1.0,0.0,1.0,1.0,818.7365359990508,2.0,1.0,part_1,,,,,,,,,,,,,yellow,cross
674.0,7.0,3.0,1.0,3.0,3.0,428.6947360014892,2.0,1.0,part_1,,,,,,,,,,,,,cyan,diamond
181.0,1.0,1.0,0.0,2.0,2.0,419.5797180000227,2.0,1.0,part_1,,,,,,,,,,,,,yellow,cross
168.0,1.0,1.0,0.0,2.0,2.0,344.6201200003997,2.0,1.0,part_1,,,,,,,,,,,,,yellow,cross
1313.0,8.0,4.0,1.0,4.0,4.0,456.1176879997219,2.0,1.0,part_1,,,,,,,,,,,,,green,circle
169.0,5.0,1.0,1.0,1.0,1.0,418.1790120001096,2.0,1.0,part_1,,,,,,,,,,,,,orange,triangle
179.0,5.0,1.0,1.0,4.0,4.0,558.4859320006217,2.0,1.0,part_1,,,,,,,,,,,,,orange,triangle
176.0,1.0,1.0,0.0,4.0,4.0,448.928830001023,2.0,1.0,part_1,,,,,,,,,,,,,yellow,cross
0.0,4.0,0.0,0.0,3.0,3.0,577.1279680011503,2.0,1.0,part_1,,,,,,,,,,,,,gray,hexagon
627.0,7.0,3.0,1.0,3.0,3.0,521.5785920008784,2.0,1.0,part_1,,,,,,,,,,,,,cyan,diamond
148.0,5.0,1.0,1.0,4.0,4.0,390.7467539993376,2.0,1.0,part_1,,,,,,,,,,,,,orange,triangle
182.0,1.0,1.0,0.0,3.0,3.0,418.0314029999863,2.0,1.0,part_1,,,,,,,,,,,,,yellow,cross
1276.0,4.0,4.0,0.0,1.0,1.0,587.798599000962,2.0,1.0,part_1,,,,,,,,,,,,,gray,hexagon
310.0,6.0,2.0,1.0,3.0,3.0,361.9771209996543,2.0,1.0,part_1,,,,,,,,,,,,,magenta,I
1309.0,8.0,4.0,1.0,4.0,4.0,678.4113510002499,2.0,1.0,part_1,,,,,,,,,,,,,green,circle
1316.0,8.0,4.0,1.0,2.0,2.0,400.4283230005967,2.0,1.0,part_1,,,,,,,,,,,,,green,circle
329.0,6.0,2.0,1.0,1.0,1.0,493.0978160009545,2.0,1.0,part_1,,,,,,,,,,,,,magenta,I
1304.0,4.0,4.0,0.0,2.0,2.0,772.5214709989814,2.0,1.0,part_1,,,,,,,,,,,,,gray,hexagon
639.0,3.0,3.0,0.0,4.0,4.0,557.3128160012857,2.0,1.0,part_1,,,,,,,,,,,,,white,square
0.0,2.0,0.0,0.0,1.0,1.0,456.8184809995728,2.0,1.0,part_1,,,,,,,,,,,,,blue,flipped triangle
639.0,7.0,3.0,1.0,2.0,2.0,446.8928499991307,2.0,1.0,part_1,,,,,,,,,,,,,cyan,diamond
179.0,5.0,1.0,1.0,3.0,3.0,483.8925690000906,2.0,1.0,part_1,,,,,,,,,,,,,orange,triangle
182.0,5.0,1.0,1.0,3.0,3.0,363.1770219999453,2.0,1.0,part_1,,,,,,,,,,,,,orange,triangle
1319.0,8.0,4.0,1.0,4.0,4.0,399.7257970004284,2.0,1.0,part_1,,,,,,,,,,,,,green,circle
300.0,6.0,2.0,1.0,4.0,4.0,317.6047960005235,2.0,1.0,part_1,,,,,,,,,,,,,magenta,I
1316.0,4.0,4.0,0.0,3.0,3.0,362.5124049995065,2.0,1.0,part_1,,,,,,,,,,,,,gray,hexagon
0.0,5.0,0.0,1.0,4.0,4.0,327.0575129990902,2.0,1.0,part_1,,,,,,,,,,,,,orange,triangle
1319.0,4.0,4.0,0.0,1.0,1.0,398.755058999086,2.0,2.0,part_1,,,,,,,,,,,,,gray,hexagon
1312.0,8.0,4.0,1.0,4.0,4.0,483.4745709995331,2.0,1.0,part_1,,,,,,,,,,,,,green,circle
322.0,2.0,2.0,0.0,4.0,4.0,501.44761000046856,2.0,1.0,part_1,,,,,,,,,,,,,blue,flipped triangle
173.0,5.0,1.0,1.0,1.0,1.0,530.4683169997588,2.0,1.0,part_1,,,,,,,,,,,,,orange,triangle
1279.0,4.0,4.0,0.0,2.0,2.0,603.4147959999245,2.0,1.0,part_1,,,,,,,,,,,,,gray,hexagon
0.0,8.0,0.0,1.0,2.0,2.0,379.9772989987104,2.0,1.0,part_1,,,,,,,,,,,,,green,circle
158.0,5.0,1.0,1.0,1.0,1.0,797.9062049998902,2.0,1.0,part_1,,,,,,,,,,,,,orange,triangle
1277.0,4.0,4.0,0.0,1.0,1.0,463.1601330002013,2.0,1.0,part_1,,,,,,,,,,,,,gray,hexagon
342.0,6.0,2.0,1.0,4.0,4.0,613.9596979992348,2.0,1.0,part_1,,,,,,,,,,,,,magenta,I
166.0,1.0,1.0,0.0,3.0,3.0,769.4877009998891,2.0,1.0,part_1,,,,,,,,,,,,,yellow,cross
629.0,7.0,3.0,1.0,2.0,2.0,446.888927001055,2.0,1.0,part_1,,,,,,,,,,,,,cyan,diamond
673.0,7.0,3.0,1.0,1.0,1.0,482.8036250000878,2.0,1.0,part_1,,,,,,,,,,,,,cyan,diamond
669.0,3.0,3.0,0.0,2.0,2.0,482.358920000479,2.0,1.0,part_1,,,,,,,,,,,,,white,square
145.0,5.0,1.0,1.0,2.0,2.0,363.0042129989306,2.0,1.0,part_1,,,,,,,,,,,,,orange,triangle
0.0,4.0,0.0,0.0,4.0,4.0,482.8436949992465,2.0,1.0,part_1,,,,,,,,,,,,,gray,hexagon
342.0,2.0,2.0,0.0,1.0,1.0,501.18734600073367,2.0,1.0,part_1,,,,,,,,,,,,,blue,flipped triangle
0.0,7.0,0.0,1.0,2.0,2.0,447.1158219985227,2.0,1.0,part_1,,,,,,,,,,,,,cyan,diamond
0.0,2.0,0.0,0.0,1.0,1.0,604.7915409999405,2.0,1.0,part_1,,,,,,,,,,,,,blue,flipped triangle
1279.0,8.0,4.0,1.0,1.0,1.0,435.5975099988427,2.0,1.0,part_1,,,,,,,,,,,,,green,circle
181.0,5.0,1.0,1.0,1.0,1.0,363.4630769993237,2.0,1.0,part_1,,,,,,,,,,,,,orange,triangle
172.0,5.0,1.0,1.0,4.0,4.0,540.4502729998057,2.0,1.0,part_1,,,,,,,,,,,,,orange,triangle
186.0,1.0,1.0,0.0,3.0,3.0,381.8560099989554,2.0,1.0,part_1,,,,,,,,,,,,,yellow,cross
1323.0,4.0,4.0,0.0,4.0,4.0,512.0168140001624,2.0,1.0,part_1,,,,,,,,,,,,,gray,hexagon
1308.0,4.0,4.0,0.0,1.0,1.0,419.5885499993892,2.0,1.0,part_1,,,,,,,,,,,,,gray,hexagon
671.0,7.0,3.0,1.0,3.0,3.0,390.5239470004744,2.0,1.0,part_1,,,,,,,,,,,,,cyan,diamond
348.0,2.0,2.0,0.0,4.0,4.0,454.8620440000377,2.0,1.0,part_1,,,,,,,,,,,,,blue,flipped triangle
0.0,7.0,0.0,1.0,3.0,3.0,390.2183919999515,2.0,1.0,part_1,,,,,,,,,,,,,cyan,diamond
640.0,3.0,3.0,0.0,4.0,4.0,398.7876450009935,2.0,1.0,part_1,,,,,,,,,,,,,white,square
169.0,1.0,1.0,0.0,1.0,1.0,536.8029379988002,2.0,1.0,part_1,,,,,,,,,,,,,yellow,cross
341.0,6.0,2.0,1.0,1.0,1.0,444.6827529991424,2.0,1.0,part_1,,,,,,,,,,,,,magenta,I
1292.0,4.0,4.0,0.0,4.0,4.0,492.1408950012846,3.0,1.0,part_1,,,,,,,,,,,,,gray,hexagon
320.0,6.0,2.0,1.0,4.0,4.0,380.4606100002274,3.0,1.0,part_1,,,,,,,,,,,,,magenta,I
1286.0,8.0,4.0,1.0,2.0,2.0,399.6998050006368,3.0,1.0,part_1,,,,,,,,,,,,,green,circle
0.0,4.0,0.0,0.0,3.0,3.0,353.336936001142,3.0,1.0,part_1,,,,,,,,,,,,,gray,hexagon
305.0,2.0,2.0,0.0,1.0,1.0,417.7748599995539,3.0,1.0,part_1,,,,,,,,,,,,,blue,flipped triangle
652.0,7.0,3.0,1.0,1.0,1.0,371.8528280005557,3.0,1.0,part_1,,,,,,,,,,,,,cyan,diamond
162.0,1.0,1.0,0.0,2.0,2.0,491.0140769989084,3.0,1.0,part_1,,,,,,,,,,,,,yellow,cross
1324.0,4.0,4.0,0.0,1.0,1.0,361.4822639992781,3.0,1.0,part_1,,,,,,,,,,,,,gray,hexagon
1320.0,4.0,4.0,0.0,2.0,2.0,278.8101850001112,3.0,1.0,part_1,,,,,,,,,,,,,gray,hexagon
1286.0,4.0,4.0,0.0,4.0,4.0,556.9731079995108,3.0,1.0,part_1,,,,,,,,,,,,,gray,hexagon
324.0,2.0,2.0,0.0,3.0,3.0,315.6263939999917,3.0,1.0,part_1,,,,,,,,,,,,,blue,flipped triangle
633.0,3.0,3.0,0.0,1.0,1.0,585.131640000327,3.0,1.0,part_1,,,,,,,,,,,,,white,square
655.0,7.0,3.0,1.0,4.0,4.0,623.1292920001579,3.0,1.0,part_1,,,,,,,,,,,,,cyan,diamond
140.0,1.0,1.0,0.0,2.0,2.0,604.0363920001255,3.0,1.0,part_1,,,,,,,,,,,,,yellow,cross
664.0,7.0,3.0,1.0,3.0,3.0,325.3718960004335,3.0,1.0,part_1,,,,,,,,,,,,,cyan,diamond
322.0,6.0,2.0,1.0,4.0,4.0,464.2816750001657,3.0,1.0,part_1,,,,,,,,,,,,,magenta,I
1279.0,4.0,4.0,0.0,2.0,2.0,354.1978070006735,3.0,1.0,part_1,,,,,,,,,,,,,gray,hexagon
653.0,7.0,3.0,1.0,1.0,1.0,427.5746570001502,3.0,1.0,part_1,,,,,,,,,,,,,cyan,diamond
153.0,1.0,1.0,0.0,1.0,1.0,389.4289700001536,3.0,1.0,part_1,,,,,,,,,,,,,yellow,cross
0.0,3.0,0.0,0.0,3.0,3.0,406.6820129992265,3.0,1.0,part_1,,,,,,,,,,,,,white,square
1279.0,8.0,4.0,1.0,3.0,3.0,603.6847840005066,3.0,1.0,part_1,,,,,,,,,,,,,green,circle
1287.0,4.0,4.0,0.0,3.0,3.0,278.7988809996022,3.0,1.0,part_1,,,,,,,,,,,,,gray,hexagon
341.0,2.0,2.0,0.0,2.0,2.0,333.7884789998497,3.0,2.0,part_1,,,,,,,,,,,,,blue,flipped triangle
660.0,7.0,3.0,1.0,2.0,2.0,325.7632010008819,3.0,1.0,part_1,,,,,,,,,,,,,cyan,diamond
648.0,3.0,3.0,0.0,3.0,3.0,419.1142569998192,3.0,1.0,part_1,,,,,,,,,,,,,white,square
322.0,6.0,2.0,1.0,1.0,1.0,408.3230199994432,3.0,1.0,part_1,,,,,,,,,,,,,magenta,I
304.0,2.0,2.0,0.0,1.0,1.0,316.1804779992962,3.0,1.0,part_1,,,,,,,,,,,,,blue,flipped triangle
0.0,7.0,0.0,1.0,2.0,2.0,342.3106850004842,3.0,2.0,part_1,,,,,,,,,,,,,cyan,diamond
0.0,2.0,0.0,0.0,1.0,1.0,723.1849790005072,3.0,1.0,part_1,,,,,,,,,,,,,blue,flipped triangle
1279.0,4.0,4.0,0.0,4.0,4.0,519.9736909999046,3.0,1.0,part_1,,,,,,,,,,,,,gray,hexagon
316.0,2.0,2.0,0.0,4.0,4.0,379.9650169985398,3.0,1.0,part_1,,,,,,,,,,,,,blue,flipped triangle
1291.0,4.0,4.0,0.0,4.0,4.0,398.7506030007353,3.0,1.0,part_1,,,,,,,,,,,,,gray,hexagon
339.0,2.0,2.0,0.0,2.0,2.0,640.5646830007754,3.0,1.0,part_1,,,,,,,,,,,,,blue,flipped triangle
1313.0,4.0,4.0,0.0,3.0,3.0,316.9177990002936,3.0,1.0,part_1,,,,,,,,,,,,,gray,hexagon
1314.0,4.0,4.0,0.0,2.0,2.0,297.7815199992619,3.0,1.0,part_1,,,,,,,,,,,,,gray,hexagon
1280.0,8.0,4.0,1.0,4.0,4.0,705.7072070001595,3.0,1.0,part_1,,,,,,,,,,,,,green,circle
0.0,5.0,0.0,1.0,1.0,1.0,409.105777998775,3.0,1.0,part_1,,,,,,,,,,,,,orange,triangle
345.0,2.0,2.0,0.0,3.0,3.0,427.4382289986533,3.0,1.0,part_1,,,,,,,,,,,,,blue,flipped triangle
666.0,7.0,3.0,1.0,4.0,4.0,446.1365659990406,3.0,1.0,part_1,,,,,,,,,,,,,cyan,diamond
337.0,2.0,2.0,0.0,4.0,4.0,492.1885909989214,3.0,1.0,part_1,,,,,,,,,,,,,blue,flipped triangle
638.0,3.0,3.0,0.0,1.0,1.0,519.772997000473,3.0,1.0,part_1,,,,,,,,,,,,,white,square
0.0,3.0,0.0,0.0,2.0,2.0,334.21700100007,3.0,2.0,part_1,,,,,,,,,,,,,white,square
1299.0,8.0,4.0,1.0,1.0,1.0,566.6759670002648,3.0,1.0,part_1,,,,,,,,,,,,,green,circle
329.0,2.0,2.0,0.0,3.0,3.0,695.9942230005254,3.0,1.0,part_1,,,,,,,,,,,,,blue,flipped triangle
629.0,3.0,3.0,0.0,3.0,3.0,426.987362001455,3.0,1.0,part_1,,,,,,,,,,,,,white,square
0.0,4.0,0.0,0.0,2.0,2.0,418.9992530009476,3.0,1.0,part_1,,,,,,,,,,,,,gray,hexagon
327.0,6.0,2.0,1.0,4.0,4.0,484.0179479997459,3.0,1.0,part_1,,,,,,,,,,,,,magenta,I
1299.0,4.0,4.0,0.0,4.0,4.0,595.441931998721,3.0,1.0,part_1,,,,,,,,,,,,,gray,hexagon
659.0,7.0,3.0,1.0,1.0,1.0,585.9913090007467,3.0,1.0,part_1,,,,,,,,,,,,,cyan,diamond
1322.0,8.0,4.0,1.0,4.0,4.0,558.3260510011314,3.0,1.0,part_1,,,,,,,,,,,,,green,circle
337.0,2.0,2.0,0.0,1.0,1.0,353.7421979999635,3.0,1.0,part_1,,,,,,,,,,,,,blue,flipped triangle
176.0,1.0,1.0,0.0,4.0,4.0,530.1565419995313,3.0,1.0,part_1,,,,,,,,,,,,,yellow,cross
176.0,5.0,1.0,1.0,4.0,4.0,437.056927001322,3.0,1.0,part_1,,,,,,,,,,,,,orange,triangle
0.0,5.0,0.0,1.0,2.0,2.0,407.2872380002081,3.0,2.0,part_1,,,,,,,,,,,,,orange,triangle
0.0,8.0,0.0,1.0,4.0,4.0,504.0947800007416,3.0,1.0,part_1,,,,,,,,,,,,,green,circle
0.0,3.0,0.0,0.0,1.0,1.0,686.494984998717,3.0,1.0,part_1,,,,,,,,,,,,,white,square
336.0,2.0,2.0,0.0,3.0,3.0,494.3944879996707,3.0,1.0,part_1,,,,,,,,,,,,,blue,flipped triangle
671.0,3.0,3.0,0.0,2.0,2.0,372.4927940002089,3.0,1.0,part_1,,,,,,,,,,,,,white,square
167.0,1.0,1.0,0.0,2.0,2.0,352.5062930002605,3.0,1.0,part_1,,,,,,,,,,,,,yellow,cross
1309.0,4.0,4.0,0.0,1.0,1.0,695.7721889993991,3.0,1.0,part_1,,,,,,,,,,,,,gray,hexagon
342.0,6.0,2.0,1.0,3.0,3.0,698.6503209991497,3.0,1.0,part_1,,,,,,,,,,,,,magenta,I
0.0,6.0,0.0,1.0,2.0,2.0,456.2401099992712,3.0,1.0,part_1,,,,,,,,,,,,,magenta,I
634.0,7.0,3.0,1.0,2.0,2.0,549.0722650010866,3.0,1.0,part_1,,,,,,,,,,,,,cyan,diamond
167.0,5.0,1.0,1.0,1.0,1.0,677.368201999343,3.0,1.0,part_1,,,,,,,,,,,,,orange,triangle
671.0,3.0,3.0,0.0,2.0,2.0,447.6366700000653,3.0,1.0,part_1,,,,,,,,,,,,,white,square
0.0,6.0,0.0,1.0,4.0,4.0,510.6393030000618,3.0,1.0,part_1,,,,,,,,,,,,,magenta,I
319.0,2.0,2.0,0.0,1.0,1.0,455.4339639998943,3.0,1.0,part_1,,,,,,,,,,,,,blue,flipped triangle
1285.0,4.0,4.0,0.0,3.0,3.0,362.1465050000552,3.0,1.0,part_1,,,,,,,,,,,,,gray,hexagon
1319.0,4.0,4.0,0.0,3.0,3.0,381.6674970003078,3.0,1.0,part_1,,,,,,,,,,,,,gray,hexagon
642.0,3.0,3.0,0.0,2.0,2.0,389.9085199991532,3.0,1.0,part_1,,,,,,,,,,,,,white,square
1308.0,8.0,4.0,1.0,3.0,3.0,418.2126180003251,3.0,1.0,part_1,,,,,,,,,,,,,green,circle
674.0,3.0,3.0,0.0,1.0,1.0,398.633107999558,3.0,1.0,part_1,,,,,,,,,,,,,white,square
316.0,6.0,2.0,1.0,1.0,1.0,512.4858119997953,3.0,1.0,part_1,,,,,,,,,,,,,magenta,I
1277.0,8.0,4.0,1.0,3.0,3.0,381.3573150000593,3.0,1.0,part_1,,,,,,,,,,,,,green,circle
665.0,3.0,3.0,0.0,3.0,3.0,354.7093089982809,3.0,1.0,part_1,,,,,,,,,,,,,white,square
1285.0,8.0,4.0,1.0,4.0,4.0,569.8643989999255,3.0,1.0,part_1,,,,,,,,,,,,,green,circle
0.0,7.0,0.0,1.0,4.0,4.0,400.7297119987925,3.0,1.0,part_1,,,,,,,,,,,,,cyan,diamond
1286.0,8.0,4.0,1.0,2.0,2.0,389.549645000443,3.0,2.0,part_1,,,,,,,,,,,,,green,circle
0.0,6.0,0.0,1.0,3.0,3.0,417.5910119993204,3.0,1.0,part_1,,,,,,,,,,,,,magenta,I
0.0,1.0,0.0,0.0,2.0,2.0,539.5550029988954,3.0,1.0,part_1,,,,,,,,,,,,,yellow,cross
652.0,3.0,3.0,0.0,1.0,1.0,695.3829499998392,3.0,1.0,part_1,,,,,,,,,,,,,white,square
670.0,7.0,3.0,1.0,1.0,1.0,417.0516400008637,3.0,1.0,part_1,,,,,,,,,,,,,cyan,diamond
156.0,1.0,1.0,0.0,4.0,4.0,629.8325050011044,3.0,1.0,part_1,,,,,,,,,,,,,yellow,cross
666.0,3.0,3.0,0.0,4.0,4.0,388.8579369995568,3.0,1.0,part_1,,,,,,,,,,,,,white,square
1319.0,8.0,4.0,1.0,1.0,1.0,455.528657999821,3.0,1.0,part_1,,,,,,,,,,,,,green,circle
0.0,6.0,0.0,1.0,3.0,3.0,426.5786859996296,3.0,1.0,part_1,,,,,,,,,,,,,magenta,I
168.0,1.0,1.0,0.0,4.0,4.0,475.4155400005402,3.0,1.0,part_1,,,,,,,,,,,,,yellow,cross
156.0,5.0,1.0,1.0,1.0,1.0,723.1410020012845,3.0,1.0,part_1,,,,,,,,,,,,,orange,triangle
0.0,5.0,0.0,1.0,3.0,3.0,436.5507519996754,3.0,1.0,part_1,,,,,,,,,,,,,orange,triangle
631.0,3.0,3.0,0.0,4.0,4.0,650.5235719996563,3.0,1.0,part_1,,,,,,,,,,,,,white,square
649.0,7.0,3.0,1.0,1.0,1.0,565.8646209994913,3.0,1.0,part_1,,,,,,,,,,,,,cyan,diamond
1312.0,4.0,4.0,0.0,3.0,3.0,362.2810969991406,3.0,1.0,part_1,,,,,,,,,,,,,gray,hexagon
1292.0,8.0,4.0,1.0,1.0,1.0,900.9714779986098,3.0,1.0,part_1,,,,,,,,,,,,,green,circle
145.0,1.0,1.0,0.0,3.0,3.0,390.504900000451,3.0,1.0,part_1,,,,,,,,,,,,,yellow,cross
155.0,1.0,1.0,0.0,3.0,3.0,372.1177099996566,3.0,1.0,part_1,,,,,,,,,,,,,yellow,cross
1292.0,8.0,4.0,1.0,2.0,2.0,390.0422460010304,3.0,1.0,part_1,,,,,,,,,,,,,green,circle
661.0,3.0,3.0,0.0,4.0,4.0,630.8235980013706,3.0,1.0,part_1,,,,,,,,,,,,,white,square
660.0,3.0,3.0,0.0,3.0,3.0,397.8532689998246,3.0,1.0,part_1,,,,,,,,,,,,,white,square
0.0,8.0,0.0,1.0,2.0,2.0,557.0510149991605,3.0,1.0,part_1,,,,,,,,,,,,,green,circle
322.0,6.0,2.0,1.0,2.0,2.0,306.5459009994811,3.0,1.0,part_1,,,,,,,,,,,,,magenta,I
325.0,2.0,2.0,0.0,2.0,2.0,389.2597270005353,4.0,1.0,part_1,,,,,,,,,,,,,blue,flipped triangle
1299.0,4.0,4.0,0.0,3.0,3.0,399.3707160007034,4.0,1.0,part_1,,,,,,,,,,,,,gray,hexagon
0.0,8.0,0.0,1.0,4.0,4.0,519.1299920006713,4.0,1.0,part_1,,,,,,,,,,,,,green,circle
144.0,1.0,1.0,0.0,1.0,1.0,529.3823690008139,4.0,1.0,part_1,,,,,,,,,,,,,yellow,cross
325.0,6.0,2.0,1.0,4.0,4.0,491.161658999772,4.0,1.0,part_1,,,,,,,,,,,,,magenta,I
341.0,6.0,2.0,1.0,2.0,2.0,564.5171619999019,4.0,1.0,part_1,,,,,,,,,,,,,magenta,I
1296.0,4.0,4.0,0.0,1.0,1.0,445.2949540009285,4.0,1.0,part_1,,,,,,,,,,,,,gray,hexagon
627.0,3.0,3.0,0.0,3.0,3.0,334.1595959991537,4.0,1.0,part_1,,,,,,,,,,,,,white,square
1324.0,8.0,4.0,1.0,3.0,3.0,454.8535139983869,4.0,1.0,part_1,,,,,,,,,,,,,green,circle
337.0,6.0,2.0,1.0,2.0,2.0,323.4145450005599,4.0,1.0,part_1,,,,,,,,,,,,,magenta,I
0.0,6.0,0.0,1.0,1.0,1.0,445.9874570002284,4.0,1.0,part_1,,,,,,,,,,,,,magenta,I
0.0,3.0,0.0,0.0,3.0,3.0,436.8740480003907,4.0,1.0,part_1,,,,,,,,,,,,,white,square
0.0,1.0,0.0,0.0,2.0,2.0,371.75925900010037,4.0,1.0,part_1,,,,,,,,,,,,,yellow,cross
145.0,5.0,1.0,1.0,4.0,4.0,306.9288229999074,4.0,1.0,part_1,,,,,,,,,,,,,orange,triangle
634.0,3.0,3.0,0.0,4.0,4.0,454.6769730004598,4.0,1.0,part_1,,,,,,,,,,,,,white,square
315.0,6.0,2.0,1.0,1.0,1.0,356.0456369996245,4.0,1.0,part_1,,,,,,,,,,,,,magenta,I
177.0,5.0,1.0,1.0,2.0,2.0,325.3308580005978,4.0,1.0,part_1,,,,,,,,,,,,,orange,triangle
0.0,5.0,0.0,1.0,3.0,3.0,390.6204979994072,4.0,1.0,part_1,,,,,,,,,,,,,orange,triangle
630.0,3.0,3.0,0.0,4.0,4.0,463.5169009998208,4.0,1.0,part_1,,,,,,,,,,,,,white,square
144.0,5.0,1.0,1.0,3.0,3.0,380.6817699987732,4.0,1.0,part_1,,,,,,,,,,,,,orange,triangle
0.0,1.0,0.0,0.0,1.0,1.0,616.5043830005743,4.0,1.0,part_1,,,,,,,,,,,,,yellow,cross
143.0,5.0,1.0,1.0,3.0,3.0,416.0039169983065,4.0,1.0,part_1,,,,,,,,,,,,,orange,triangle
0.0,1.0,0.0,0.0,1.0,1.0,445.7787560004362,4.0,1.0,part_1,,,,,,,,,,,,,yellow,cross
320.0,2.0,2.0,0.0,2.0,2.0,361.5375280005537,4.0,1.0,part_1,,,,,,,,,,,,,blue,flipped triangle
168.0,5.0,1.0,1.0,4.0,4.0,529.6212800003559,4.0,2.0,part_1,,,,,,,,,,,,,orange,triangle
0.0,3.0,0.0,0.0,2.0,2.0,586.3466279988643,4.0,1.0,part_1,,,,,,,,,,,,,white,square
0.0,2.0,0.0,0.0,2.0,2.0,427.6580459991237,4.0,1.0,part_1,,,,,,,,,,,,,blue,flipped triangle
311.0,6.0,2.0,1.0,3.0,3.0,361.7580339996493,4.0,1.0,part_1,,,,,,,,,,,,,magenta,I
630.0,7.0,3.0,1.0,4.0,4.0,426.6972099994746,4.0,1.0,part_1,,,,,,,,,,,,,cyan,diamond
0.0,2.0,0.0,0.0,1.0,1.0,622.814587000903,4.0,1.0,part_1,,,,,,,,,,,,,blue,flipped triangle
653.0,3.0,3.0,0.0,4.0,4.0,520.0550789995759,4.0,1.0,part_1,,,,,,,,,,,,,white,square
665.0,7.0,3.0,1.0,3.0,3.0,418.6090090006473,4.0,1.0,part_1,,,,,,,,,,,,,cyan,diamond
1287.0,8.0,4.0,1.0,1.0,1.0,744.2370640001172,4.0,1.0,part_1,,,,,,,,,,,,,green,circle
167.0,5.0,1.0,1.0,1.0,1.0,454.038859999855,4.0,1.0,part_1,,,,,,,,,,,,,orange,triangle
147.0,5.0,1.0,1.0,1.0,1.0,427.2695740000927,4.0,1.0,part_1,,,,,,,,,,,,,orange,triangle
330.0,2.0,2.0,0.0,3.0,3.0,408.0121140013943,4.0,1.0,part_1,,,,,,,,,,,,,blue,flipped triangle
150.0,1.0,1.0,0.0,4.0,4.0,492.6607979996333,4.0,1.0,part_1,,,,,,,,,,,,,yellow,cross
177.0,1.0,1.0,0.0,3.0,3.0,435.4369889988447,4.0,1.0,part_1,,,,,,,,,,,,,yellow,cross
1310.0,4.0,4.0,0.0,2.0,2.0,465.2817620008136,4.0,1.0,part_1,,,,,,,,,,,,,gray,hexagon
0.0,2.0,0.0,0.0,2.0,2.0,715.6361069992272,4.0,1.0,part_1,,,,,,,,,,,,,blue,flipped triangle
662.0,3.0,3.0,0.0,3.0,3.0,356.74488100085,4.0,1.0,part_1,,,,,,,,,,,,,white,square
304.0,6.0,2.0,1.0,3.0,3.0,345.8444669995515,4.0,1.0,part_1,,,,,,,,,,,,,magenta,I
308.0,2.0,2.0,0.0,1.0,1.0,454.6776360002695,4.0,1.0,part_1,,,,,,,,,,,,,blue,flipped triangle
0.0,8.0,0.0,1.0,1.0,1.0,390.3515539986983,4.0,1.0,part_1,,,,,,,,,,,,,green,circle
341.0,6.0,2.0,1.0,4.0,4.0,528.4944710001582,4.0,1.0,part_1,,,,,,,,,,,,,magenta,I
0.0,6.0,0.0,1.0,2.0,2.0,343.8603159993363,4.0,1.0,part_1,,,,,,,,,,,,,magenta,I
0.0,5.0,0.0,1.0,3.0,3.0,352.0043550015543,4.0,1.0,part_1,,,,,,,,,,,,,orange,triangle
0.0,4.0,0.0,0.0,3.0,3.0,325.2520920013921,4.0,1.0,part_1,,,,,,,,,,,,,gray,hexagon
659.0,7.0,3.0,1.0,2.0,2.0,482.7149409993581,4.0,1.0,part_1,,,,,,,,,,,,,cyan,diamond
1285.0,8.0,4.0,1.0,1.0,1.0,363.7049869994371,4.0,1.0,part_1,,,,,,,,,,,,,green,circle
173.0,1.0,1.0,0.0,4.0,4.0,522.3233359993174,4.0,1.0,part_1,,,,,,,,,,,,,yellow,cross
0.0,4.0,0.0,0.0,2.0,2.0,362.4244510010612,4.0,1.0,part_1,,,,,,,,,,,,,gray,hexagon
638.0,7.0,3.0,1.0,4.0,4.0,602.4157749998267,4.0,1.0,part_1,,,,,,,,,,,,,cyan,diamond
1291.0,4.0,4.0,0.0,2.0,2.0,529.2277560001821,4.0,1.0,part_1,,,,,,,,,,,,,gray,hexagon
167.0,1.0,1.0,0.0,2.0,2.0,463.5104009994393,4.0,1.0,part_1,,,,,,,,,,,,,yellow,cross
1296.0,8.0,4.0,1.0,4.0,4.0,473.8627469996572,4.0,1.0,part_1,,,,,,,,,,,,,green,circle
1316.0,8.0,4.0,1.0,3.0,3.0,473.6644050008181,4.0,1.0,part_1,,,,,,,,,,,,,green,circle
304.0,6.0,2.0,1.0,3.0,3.0,371.251189000759,4.0,1.0,part_1,,,,,,,,,,,,,magenta,I
168.0,5.0,1.0,1.0,3.0,3.0,362.4385450002592,4.0,1.0,part_1,,,,,,,,,,,,,orange,triangle
322.0,2.0,2.0,0.0,2.0,2.0,436.0498940004618,4.0,1.0,part_1,,,,,,,,,,,,,blue,flipped triangle
649.0,3.0,3.0,0.0,4.0,4.0,417.7482889990642,4.0,1.0,part_1,,,,,,,,,,,,,white,square
153.0,5.0,1.0,1.0,1.0,1.0,473.6259069995867,4.0,1.0,part_1,,,,,,,,,,,,,orange,triangle
0.0,4.0,0.0,0.0,2.0,2.0,464.6376389991928,4.0,1.0,part_1,,,,,,,,,,,,,gray,hexagon
1322.0,4.0,4.0,0.0,4.0,4.0,407.7666190005402,4.0,1.0,part_1,,,,,,,,,,,,,gray,hexagon
172.0,1.0,1.0,0.0,1.0,1.0,454.4259659996896,4.0,1.0,part_1,,,,,,,,,,,,,yellow,cross
648.0,7.0,3.0,1.0,4.0,4.0,484.0773849991819,4.0,1.0,part_1,,,,,,,,,,,,,cyan,diamond
0.0,7.0,0.0,1.0,2.0,2.0,325.0804819999757,4.0,1.0,part_1,,,,,,,,,,,,,cyan,diamond
653.0,3.0,3.0,0.0,1.0,1.0,501.6323630006809,4.0,1.0,part_1,,,,,,,,,,,,,white,square
674.0,3.0,3.0,0.0,3.0,3.0,362.65272700075,4.0,1.0,part_1,,,,,,,,,,,,,white,square
308.0,6.0,2.0,1.0,3.0,3.0,427.469308999207,4.0,1.0,part_1,,,,,,,,,,,,,magenta,I
311.0,2.0,2.0,0.0,1.0,1.0,520.3326219998416,4.0,1.0,part_1,,,,,,,,,,,,,blue,flipped triangle
329.0,6.0,2.0,1.0,4.0,4.0,427.4719080003706,4.0,1.0,part_1,,,,,,,,,,,,,magenta,I
143.0,1.0,1.0,0.0,1.0,1.0,615.5845770008455,4.0,1.0,part_1,,,,,,,,,,,,,yellow,cross
1286.0,4.0,4.0,0.0,2.0,2.0,659.4639129998541,4.0,1.0,part_1,,,,,,,,,,,,,gray,hexagon
635.0,3.0,3.0,0.0,1.0,1.0,436.9866860015463,4.0,1.0,part_1,,,,,,,,,,,,,white,square
1299.0,4.0,4.0,0.0,4.0,4.0,390.3828900001826,4.0,1.0,part_1,,,,,,,,,,,,,gray,hexagon
631.0,7.0,3.0,1.0,1.0,1.0,687.5919060003071,4.0,1.0,part_1,,,,,,,,,,,,,cyan,diamond
0.0,4.0,0.0,0.0,3.0,3.0,446.1100790013006,4.0,1.0,part_1,,,,,,,,,,,,,gray,hexagon
155.0,5.0,1.0,1.0,2.0,2.0,352.3984479998034,4.0,1.0,part_1,,,,,,,,,,,,,orange,triangle
342.0,2.0,2.0,0.0,2.0,2.0,333.8258750009117,4.0,1.0,part_1,,,,,,,,,,,,,blue,flipped triangle
158.0,1.0,1.0,0.0,1.0,1.0,416.7388570003822,4.0,1.0,part_1,,,,,,,,,,,,,yellow,cross
0.0,3.0,0.0,0.0,2.0,2.0,324.2565330001525,4.0,1.0,part_1,,,,,,,,,,,,,white,square
635.0,7.0,3.0,1.0,3.0,3.0,370.3867749991332,4.0,1.0,part_1,,,,,,,,,,,,,cyan,diamond
306.0,2.0,2.0,0.0,2.0,2.0,397.9270180007006,4.0,1.0,part_1,,,,,,,,,,,,,blue,flipped triangle
150.0,5.0,1.0,1.0,3.0,3.0,315.3504319998319,4.0,1.0,part_1,,,,,,,,,,,,,orange,triangle
174.0,1.0,1.0,0.0,2.0,2.0,361.3614650003001,4.0,1.0,part_1,,,,,,,,,,,,,yellow,cross
153.0,5.0,1.0,1.0,2.0,2.0,342.3525899997912,4.0,1.0,part_1,,,,,,,,,,,,,orange,triangle
154.0,1.0,1.0,0.0,1.0,1.0,418.3186999998725,4.0,1.0,part_1,,,,,,,,,,,,,yellow,cross
670.0,3.0,3.0,0.0,1.0,1.0,446.4873420001822,4.0,1.0,part_1,,,,,,,,,,,,,white,square
0.0,4.0,0.0,0.0,1.0,1.0,315.5555899993487,4.0,1.0,part_1,,,,,,,,,,,,,gray,hexagon
658.0,7.0,3.0,1.0,4.0,4.0,491.2428020015795,4.0,1.0,part_1,,,,,,,,,,,,,cyan,diamond
0.0,2.0,0.0,0.0,3.0,3.0,436.7085220001172,4.0,1.0,part_1,,,,,,,,,,,,,blue,flipped triangle
307.0,2.0,2.0,0.0,2.0,2.0,296.4140620006219,4.0,1.0,part_1,,,,,,,,,,,,,blue,flipped triangle
635.0,7.0,3.0,1.0,2.0,2.0,362.4758450005174,4.0,1.0,part_1,,,,,,,,,,,,,cyan,diamond
1304.0,4.0,4.0,0.0,4.0,4.0,586.3862540008995,4.0,1.0,part_1,,,,,,,,,,,,,gray,hexagon
330.0,6.0,2.0,1.0,1.0,1.0,437.4557549999736,4.0,1.0,part_1,,,,,,,,,,,,,magenta,I
671.0,7.0,3.0,1.0,1.0,1.0,362.3332349998236,4.0,1.0,part_1,,,,,,,,,,,,,cyan,diamond
315.0,2.0,2.0,0.0,3.0,3.0,473.1534179991286,4.0,1.0,part_1,,,,,,,,,,,,,blue,flipped triangle
1323.0,8.0,4.0,1.0,3.0,3.0,325.9361469990836,4.0,1.0,part_1,,,,,,,,,,,,,green,circle
669.0,7.0,3.0,1.0,1.0,1.0,437.09243199919,4.0,1.0,part_1,,,,,,,,,,,,,cyan,diamond
0.0,4.0,4.0,0.0,6.0,6.0,649.4575729993812,1.0,0.0,part_2,go,250.0,250.0,1.0,,,,,,,,,gray,hexagon
0.0,7.0,3.0,1.0,5.0,0.0,0.0,1.0,0.0,part_2,stop,250.0,250.0,4.0,,,,,,,,,cyan,diamond
0.0,3.0,3.0,0.0,5.0,5.0,664.4934560008551,1.0,0.0,part_2,go,300.0,250.0,1.0,,,,,,,,,white,square
0.0,5.0,1.0,1.0,6.0,6.0,311.393626001518,1.0,0.0,part_2,stop,300.0,250.0,3.0,,,,,,,,,orange,triangle
0.0,3.0,3.0,0.0,5.0,5.0,916.5830120000464,1.0,0.0,part_2,go,300.0,200.0,1.0,,,,,,,,,white,square
0.0,7.0,3.0,1.0,5.0,0.0,0.0,1.0,0.0,part_2,stop,300.0,200.0,4.0,,,,,,,,,cyan,diamond
0.0,4.0,4.0,0.0,5.0,5.0,917.1772760000748,1.0,0.0,part_2,go,350.0,200.0,1.0,,,,,,,,,gray,hexagon
0.0,2.0,2.0,0.0,5.0,5.0,901.6793640003016,1.0,0.0,part_2,go,350.0,200.0,1.0,,,,,,,,,blue,flipped triangle
0.0,5.0,1.0,1.0,6.0,0.0,0.0,1.0,0.0,part_2,stop,350.0,200.0,4.0,,,,,,,,,orange,triangle
0.0,1.0,1.0,0.0,6.0,6.0,917.8844770012802,1.0,0.0,part_2,go,350.0,250.0,1.0,,,,,,,,,yellow,cross
0.0,4.0,4.0,0.0,6.0,6.0,849.6211450001283,1.0,0.0,part_2,go,350.0,250.0,1.0,,,,,,,,,gray,hexagon
0.0,6.0,2.0,1.0,5.0,5.0,927.550501000951,1.0,0.0,part_2,go,350.0,250.0,1.0,,,,,,,,,magenta,I
0.0,5.0,1.0,1.0,6.0,0.0,0.0,1.0,0.0,part_2,stop,350.0,250.0,4.0,,,,,,,,,orange,triangle
0.0,5.0,1.0,1.0,5.0,5.0,829.9853349999466,1.0,0.0,part_2,go,350.0,300.0,1.0,,,,,,,,,orange,triangle
0.0,4.0,4.0,0.0,5.0,5.0,803.9425850001862,1.0,0.0,part_2,go,350.0,300.0,1.0,,,,,,,,,gray,hexagon
0.0,2.0,2.0,0.0,6.0,6.0,701.0709850001149,1.0,0.0,part_2,go,350.0,300.0,1.0,,,,,,,,,blue,flipped triangle
0.0,8.0,4.0,1.0,6.0,0.0,0.0,1.0,0.0,part_2,stop,350.0,300.0,4.0,,,,,,,,,green,circle
0.0,4.0,4.0,0.0,5.0,5.0,769.7747500005789,1.0,0.0,part_2,go,350.0,350.0,1.0,,,,,,,,,gray,hexagon
0.0,8.0,4.0,1.0,5.0,0.0,0.0,1.0,0.0,part_2,stop,350.0,350.0,4.0,,,,,,,,,green,circle
0.0,7.0,3.0,1.0,5.0,0.0,0.0,1.0,0.0,part_2,stop,400.0,350.0,4.0,,,,,,,,,cyan,diamond
0.0,7.0,3.0,1.0,6.0,0.0,0.0,1.0,0.0,part_2,stop,450.0,350.0,4.0,,,,,,,,,cyan,diamond
0.0,1.0,1.0,0.0,6.0,6.0,814.7246160006034,1.0,0.0,part_2,go,450.0,400.0,1.0,,,,,,,,,yellow,cross
0.0,1.0,1.0,0.0,6.0,6.0,1105.6003819994658,1.0,0.0,part_2,go,450.0,400.0,1.0,,,,,,,,,yellow,cross
0.0,5.0,1.0,1.0,5.0,0.0,0.0,1.0,0.0,part_2,stop,450.0,400.0,4.0,,,,,,,,,orange,triangle
0.0,2.0,2.0,0.0,6.0,6.0,952.78959999996,1.0,0.0,part_2,go,500.0,400.0,1.0,,,,,,,,,blue,flipped triangle
0.0,7.0,3.0,1.0,6.0,0.0,0.0,1.0,0.0,part_2,stop,500.0,400.0,4.0,,,,,,,,,cyan,diamond
0.0,6.0,2.0,1.0,6.0,0.0,0.0,1.0,0.0,part_2,stop,500.0,450.0,4.0,,,,,,,,,magenta,I
0.0,3.0,3.0,0.0,6.0,6.0,738.4480359996815,1.0,0.0,part_2,go,500.0,500.0,1.0,,,,,,,,,white,square
0.0,5.0,1.0,1.0,5.0,5.0,1084.9131400009355,1.0,0.0,part_2,go,500.0,500.0,1.0,,,,,,,,,orange,triangle
0.0,1.0,1.0,0.0,6.0,6.0,1013.4733509985381,1.0,0.0,part_2,go,500.0,500.0,1.0,,,,,,,,,yellow,cross
0.0,7.0,3.0,1.0,5.0,0.0,0.0,1.0,0.0,part_2,stop,500.0,500.0,4.0,,,,,,,,,cyan,diamond
0.0,2.0,2.0,0.0,5.0,5.0,943.6803339995096,1.0,0.0,part_2,go,550.0,500.0,1.0,,,,,,,,,blue,flipped triangle
0.0,8.0,4.0,1.0,6.0,6.0,709.3388800003595,1.0,0.0,part_2,stop,550.0,500.0,3.0,,,,,,,,,green,circle
0.0,5.0,1.0,1.0,5.0,5.0,917.281317000743,1.0,0.0,part_2,go,550.0,450.0,1.0,,,,,,,,,orange,triangle
0.0,6.0,2.0,1.0,6.0,0.0,0.0,1.0,0.0,part_2,stop,550.0,450.0,4.0,,,,,,,,,magenta,I
0.0,1.0,1.0,0.0,5.0,5.0,786.2537639994116,1.0,0.0,part_2,go,550.0,500.0,1.0,,,,,,,,,yellow,cross
0.0,2.0,2.0,0.0,6.0,6.0,431.2532290005038,2.0,0.0,part_2,go,550.0,500.0,1.0,,,,,,,,,blue,flipped triangle
0.0,5.0,1.0,1.0,5.0,5.0,604.8025529998995,2.0,0.0,part_2,stop,550.0,500.0,3.0,,,,,,,,,orange,triangle
0.0,8.0,4.0,1.0,5.0,5.0,643.3516189990769,2.0,0.0,part_2,go,500.0,500.0,1.0,,,,,,,,,green,circle
0.0,1.0,1.0,0.0,5.0,5.0,934.3434969996453,2.0,0.0,part_2,go,500.0,500.0,1.0,,,,,,,,,yellow,cross
0.0,2.0,2.0,0.0,5.0,5.0,683.3554509994428,2.0,0.0,part_2,go,500.0,500.0,1.0,,,,,,,,,blue,flipped triangle
0.0,2.0,2.0,0.0,6.0,6.0,972.5515059999452,2.0,0.0,part_2,go,500.0,500.0,1.0,,,,,,,,,blue,flipped triangle
0.0,2.0,2.0,0.0,5.0,5.0,763.081738999972,2.0,0.0,part_2,go,500.0,500.0,1.0,,,,,,,,,blue,flipped triangle
0.0,1.0,1.0,0.0,5.0,5.0,944.2091040000378,2.0,0.0,part_2,go,500.0,500.0,1.0,,,,,,,,,yellow,cross
0.0,5.0,1.0,1.0,5.0,0.0,0.0,2.0,0.0,part_2,stop,500.0,500.0,4.0,,,,,,,,,orange,triangle
0.0,8.0,4.0,1.0,6.0,6.0,438.4154520012089,2.0,0.0,part_2,go,550.0,500.0,1.0,,,,,,,,,green,circle
0.0,5.0,1.0,1.0,6.0,6.0,318.093191999651,2.0,0.0,part_2,stop,550.0,500.0,3.0,,,,,,,,,orange,triangle
0.0,7.0,3.0,1.0,5.0,0.0,0.0,2.0,0.0,part_2,stop,550.0,450.0,4.0,,,,,,,,,cyan,diamond
0.0,7.0,3.0,1.0,5.0,5.0,992.9078360000858,2.0,0.0,part_2,go,600.0,450.0,1.0,,,,,,,,,cyan,diamond
0.0,4.0,4.0,0.0,6.0,6.0,895.7128199999715,2.0,0.0,part_2,go,600.0,450.0,1.0,,,,,,,,,gray,hexagon
0.0,1.0,1.0,0.0,6.0,6.0,1074.5380979988113,2.0,0.0,part_2,go,600.0,450.0,1.0,,,,,,,,,yellow,cross
0.0,4.0,4.0,0.0,5.0,5.0,802.9458700002579,2.0,0.0,part_2,go,600.0,450.0,1.0,,,,,,,,,gray,hexagon
0.0,4.0,4.0,0.0,5.0,5.0,1028.148721999969,2.0,0.0,part_2,go,600.0,450.0,1.0,,,,,,,,,gray,hexagon
0.0,6.0,2.0,1.0,5.0,5.0,401.8506599986722,2.0,0.0,part_2,stop,600.0,450.0,3.0,,,,,,,,,magenta,I
0.0,3.0,3.0,0.0,5.0,5.0,868.4999580000294,2.0,0.0,part_2,go,550.0,450.0,1.0,,,,,,,,,white,square
0.0,1.0,1.0,0.0,6.0,6.0,916.727025,2.0,0.0,part_2,go,550.0,450.0,1.0,,,,,,,,,yellow,cross
0.0,7.0,3.0,1.0,6.0,6.0,1056.980717999977,2.0,0.0,part_2,go,550.0,450.0,1.0,,,,,,,,,cyan,diamond
0.0,5.0,1.0,1.0,6.0,0.0,0.0,2.0,0.0,part_2,stop,550.0,450.0,4.0,,,,,,,,,orange,triangle
0.0,2.0,2.0,0.0,6.0,6.0,883.0923120003717,2.0,0.0,part_2,go,550.0,500.0,1.0,,,,,,,,,blue,flipped triangle
0.0,4.0,4.0,0.0,5.0,5.0,1159.5235570002842,2.0,0.0,part_2,go,550.0,500.0,1.0,,,,,,,,,gray,hexagon
0.0,5.0,1.0,1.0,6.0,6.0,412.8293909998319,2.0,0.0,part_2,go,550.0,500.0,1.0,,,,,,,,,orange,triangle
0.0,3.0,3.0,0.0,5.0,5.0,814.2237279989786,2.0,0.0,part_2,go,550.0,500.0,1.0,,,,,,,,,white,square
0.0,7.0,3.0,1.0,5.0,5.0,685.9028700000636,2.0,0.0,part_2,stop,550.0,500.0,3.0,,,,,,,,,cyan,diamond
0.0,3.0,3.0,0.0,5.0,5.0,726.5483649989619,2.0,0.0,part_2,go,500.0,500.0,1.0,,,,,,,,,white,square
0.0,1.0,1.0,0.0,5.0,5.0,971.3861480013292,2.0,0.0,part_2,go,500.0,500.0,1.0,,,,,,,,,yellow,cross
0.0,5.0,1.0,1.0,6.0,0.0,0.0,2.0,0.0,part_2,stop,500.0,500.0,4.0,,,,,,,,,orange,triangle
0.0,8.0,4.0,1.0,5.0,0.0,0.0,2.0,0.0,part_2,stop,500.0,550.0,4.0,,,,,,,,,green,circle
0.0,2.0,2.0,0.0,6.0,6.0,783.9710289990762,2.0,0.0,part_2,go,550.0,550.0,1.0,,,,,,,,,blue,flipped triangle
0.0,5.0,1.0,1.0,6.0,0.0,0.0,2.0,0.0,part_2,stop,550.0,550.0,4.0,,,,,,,,,orange,triangle
0.0,6.0,2.0,1.0,5.0,0.0,0.0,2.0,0.0,part_2,stop,550.0,600.0,4.0,,,,,,,,,magenta,I
0.0,2.0,2.0,0.0,6.0,6.0,754.6463270009554,2.0,0.0,part_2,go,600.0,600.0,1.0,,,,,,,,,blue,flipped triangle
0.0,4.0,4.0,0.0,5.0,5.0,860.753939999995,2.0,0.0,part_2,go,600.0,600.0,1.0,,,,,,,,,gray,hexagon
0.0,2.0,2.0,0.0,6.0,0.0,0.0,3.0,0.0,part_2,go,600.0,600.0,5.0,,,,,,,,,blue,flipped triangle
0.0,6.0,2.0,1.0,6.0,6.0,1045.877054999437,3.0,0.0,part_2,go,600.0,600.0,1.0,,,,,,,,,magenta,I
0.0,3.0,3.0,0.0,5.0,5.0,1250.5281760004436,3.0,0.0,part_2,go,600.0,600.0,1.0,,,,,,,,,white,square
0.0,3.0,3.0,0.0,5.0,5.0,708.5983449997002,3.0,0.0,part_2,go,600.0,600.0,1.0,,,,,,,,,white,square
0.0,5.0,1.0,1.0,5.0,5.0,693.7276040007418,3.0,0.0,part_2,stop,600.0,600.0,3.0,,,,,,,,,orange,triangle
0.0,2.0,2.0,0.0,5.0,5.0,1241.5068360005534,3.0,0.0,part_2,go,550.0,600.0,1.0,,,,,,,,,blue,flipped triangle
0.0,7.0,3.0,1.0,5.0,0.0,0.0,3.0,0.0,part_2,stop,550.0,600.0,4.0,,,,,,,,,cyan,diamond
0.0,1.0,1.0,0.0,5.0,5.0,889.9150319994078,3.0,0.0,part_2,go,600.0,600.0,1.0,,,,,,,,,yellow,cross
0.0,6.0,2.0,1.0,6.0,6.0,754.7965409994504,3.0,0.0,part_2,stop,600.0,600.0,3.0,,,,,,,,,magenta,I
0.0,1.0,1.0,0.0,5.0,5.0,839.5737030004966,3.0,0.0,part_2,go,600.0,550.0,1.0,,,,,,,,,yellow,cross
0.0,8.0,4.0,1.0,6.0,6.0,722.1564510000462,3.0,0.0,part_2,stop,600.0,550.0,3.0,,,,,,,,,green,circle
0.0,8.0,4.0,1.0,6.0,6.0,766.8795070003398,3.0,0.0,part_2,go,600.0,500.0,1.0,,,,,,,,,green,circle
0.0,3.0,3.0,0.0,6.0,6.0,1204.952415999287,3.0,0.0,part_2,go,600.0,500.0,1.0,,,,,,,,,white,square
0.0,7.0,3.0,1.0,6.0,6.0,1301.8948240005557,3.0,0.0,part_2,go,600.0,500.0,1.0,,,,,,,,,cyan,diamond
0.0,5.0,1.0,1.0,5.0,0.0,0.0,3.0,0.0,part_2,stop,600.0,500.0,4.0,,,,,,,,,orange,triangle
0.0,7.0,3.0,1.0,5.0,0.0,0.0,3.0,0.0,part_2,stop,650.0,500.0,4.0,,,,,,,,,cyan,diamond
0.0,4.0,4.0,0.0,6.0,6.0,643.4546760010562,3.0,0.0,part_2,go,700.0,500.0,1.0,,,,,,,,,gray,hexagon
0.0,5.0,1.0,1.0,5.0,5.0,987.5114819988084,3.0,0.0,part_2,go,700.0,500.0,1.0,,,,,,,,,orange,triangle
0.0,2.0,2.0,0.0,6.0,6.0,1055.4484550011691,3.0,0.0,part_2,go,700.0,500.0,1.0,,,,,,,,,blue,flipped triangle
0.0,3.0,3.0,0.0,5.0,5.0,755.2119490010227,3.0,0.0,part_2,go,700.0,500.0,1.0,,,,,,,,,white,square
0.0,7.0,3.0,1.0,6.0,6.0,876.9489410005917,3.0,0.0,part_2,go,700.0,500.0,1.0,,,,,,,,,cyan,diamond
0.0,6.0,2.0,1.0,6.0,6.0,657.3750819989073,3.0,0.0,part_2,stop,700.0,500.0,3.0,,,,,,,,,magenta,I
0.0,5.0,1.0,1.0,6.0,0.0,0.0,3.0,0.0,part_2,stop,700.0,450.0,4.0,,,,,,,,,orange,triangle
0.0,4.0,4.0,0.0,6.0,6.0,730.3915360007522,3.0,0.0,part_2,go,700.0,500.0,1.0,,,,,,,,,gray,hexagon
0.0,8.0,4.0,1.0,6.0,0.0,0.0,3.0,0.0,part_2,stop,700.0,500.0,4.0,,,,,,,,,green,circle
0.0,7.0,3.0,1.0,6.0,0.0,0.0,3.0,0.0,part_2,stop,700.0,550.0,4.0,,,,,,,,,cyan,diamond
0.0,1.0,1.0,0.0,5.0,5.0,1019.1566770008649,3.0,0.0,part_2,go,700.0,600.0,1.0,,,,,,,,,yellow,cross
0.0,5.0,1.0,1.0,6.0,0.0,0.0,3.0,0.0,part_2,stop,700.0,600.0,4.0,,,,,,,,,orange,triangle
0.0,7.0,3.0,1.0,5.0,0.0,0.0,3.0,0.0,part_2,stop,700.0,650.0,4.0,,,,,,,,,cyan,diamond
0.0,3.0,3.0,0.0,6.0,6.0,645.8263950007677,3.0,0.0,part_2,go,750.0,650.0,1.0,,,,,,,,,white,square
0.0,1.0,1.0,0.0,5.0,5.0,916.6462260000116,3.0,0.0,part_2,go,750.0,650.0,1.0,,,,,,,,,yellow,cross
0.0,1.0,1.0,0.0,6.0,6.0,1195.0494539996726,3.0,0.0,part_2,go,750.0,650.0,1.0,,,,,,,,,yellow,cross
0.0,8.0,4.0,1.0,5.0,5.0,854.4134959993244,3.0,0.0,part_2,stop,750.0,650.0,3.0,,,,,,,,,green,circle
0.0,3.0,3.0,0.0,6.0,6.0,1121.66148399956,3.0,0.0,part_2,go,700.0,650.0,1.0,,,,,,,,,white,square
0.0,1.0,1.0,0.0,5.0,5.0,868.6773419995006,3.0,0.0,part_2,go,700.0,650.0,1.0,,,,,,,,,yellow,cross
0.0,3.0,3.0,0.0,5.0,5.0,806.1513529992226,3.0,0.0,part_2,go,700.0,650.0,1.0,,,,,,,,,white,square
0.0,5.0,1.0,1.0,5.0,0.0,0.0,4.0,0.0,part_2,go,700.0,650.0,5.0,,,,,,,,,orange,triangle
0.0,1.0,1.0,0.0,5.0,5.0,869.863969999642,4.0,0.0,part_2,go,700.0,650.0,1.0,,,,,,,,,yellow,cross
0.0,7.0,3.0,1.0,5.0,5.0,366.0981690009066,4.0,0.0,part_2,stop,700.0,650.0,3.0,,,,,,,,,cyan,diamond
0.0,4.0,4.0,0.0,5.0,5.0,728.0364660000487,4.0,0.0,part_2,go,650.0,650.0,1.0,,,,,,,,,gray,hexagon
0.0,1.0,1.0,0.0,5.0,5.0,317.5193459992442,4.0,0.0,part_2,go,650.0,650.0,1.0,,,,,,,,,yellow,cross
0.0,4.0,4.0,0.0,6.0,6.0,757.4496630004433,4.0,0.0,part_2,go,650.0,650.0,1.0,,,,,,,,,gray,hexagon
0.0,1.0,1.0,0.0,6.0,6.0,737.8573339992727,4.0,0.0,part_2,go,650.0,650.0,1.0,,,,,,,,,yellow,cross
0.0,8.0,4.0,1.0,5.0,5.0,364.2919550002261,4.0,0.0,part_2,stop,650.0,650.0,3.0,,,,,,,,,green,circle
0.0,7.0,3.0,1.0,6.0,0.0,0.0,4.0,0.0,part_2,stop,600.0,650.0,4.0,,,,,,,,,cyan,diamond
0.0,2.0,2.0,0.0,5.0,5.0,719.4727709993458,4.0,0.0,part_2,go,600.0,700.0,1.0,,,,,,,,,blue,flipped triangle
0.0,2.0,2.0,0.0,6.0,6.0,907.4301929995272,4.0,0.0,part_2,go,600.0,700.0,1.0,,,,,,,,,blue,flipped triangle
0.0,6.0,2.0,1.0,6.0,6.0,953.602513000078,4.0,0.0,part_2,go,600.0,700.0,1.0,,,,,,,,,magenta,I
0.0,7.0,3.0,1.0,6.0,6.0,1084.4994489998498,4.0,0.0,part_2,go,600.0,700.0,1.0,,,,,,,,,cyan,diamond
0.0,8.0,4.0,1.0,6.0,6.0,608.5004369997478,4.0,0.0,part_2,go,600.0,700.0,1.0,,,,,,,,,green,circle
0.0,8.0,4.0,1.0,6.0,6.0,328.2663299996784,4.0,0.0,part_2,stop,600.0,700.0,3.0,,,,,,,,,green,circle
0.0,2.0,2.0,0.0,6.0,6.0,1237.6973980008188,4.0,0.0,part_2,go,600.0,650.0,1.0,,,,,,,,,blue,flipped triangle
0.0,5.0,1.0,1.0,5.0,0.0,0.0,4.0,0.0,part_2,stop,600.0,650.0,4.0,,,,,,,,,orange,triangle
0.0,5.0,1.0,1.0,5.0,0.0,0.0,4.0,0.0,part_2,stop,650.0,650.0,4.0,,,,,,,,,orange,triangle
0.0,8.0,4.0,1.0,5.0,5.0,1000.5493619992194,4.0,0.0,part_2,go,700.0,650.0,1.0,,,,,,,,,green,circle
0.0,7.0,3.0,1.0,5.0,5.0,761.9409290000476,4.0,0.0,part_2,stop,700.0,650.0,3.0,,,,,,,,,cyan,diamond
0.0,6.0,2.0,1.0,6.0,0.0,0.0,4.0,0.0,part_2,stop,650.0,650.0,4.0,,,,,,,,,magenta,I
0.0,3.0,3.0,0.0,5.0,5.0,1178.4043879997623,4.0,0.0,part_2,go,650.0,700.0,1.0,,,,,,,,,white,square
0.0,4.0,4.0,0.0,5.0,5.0,1037.6310029987508,4.0,0.0,part_2,go,650.0,700.0,1.0,,,,,,,,,gray,hexagon
0.0,6.0,2.0,1.0,5.0,0.0,0.0,4.0,0.0,part_2,stop,650.0,700.0,4.0,,,,,,,,,magenta,I
0.0,7.0,3.0,1.0,5.0,5.0,844.2338390013902,4.0,0.0,part_2,stop,700.0,700.0,3.0,,,,,,,,,cyan,diamond
0.0,8.0,4.0,1.0,5.0,5.0,1206.18923100119,4.0,0.0,part_2,go,650.0,700.0,1.0,,,,,,,,,green,circle
0.0,3.0,3.0,0.0,5.0,5.0,832.223890000023,4.0,0.0,part_2,go,650.0,700.0,1.0,,,,,,,,,white,square
0.0,1.0,1.0,0.0,5.0,5.0,924.893133000296,4.0,0.0,part_2,go,650.0,700.0,1.0,,,,,,,,,yellow,cross
0.0,7.0,3.0,1.0,5.0,5.0,802.8126000008342,4.0,0.0,part_2,stop,650.0,700.0,3.0,,,,,,,,,cyan,diamond
0.0,6.0,2.0,1.0,6.0,0.0,0.0,4.0,0.0,part_2,stop,600.0,700.0,4.0,,,,,,,,,magenta,I
0.0,4.0,4.0,0.0,6.0,6.0,956.132556000739,4.0,0.0,part_2,go,600.0,750.0,1.0,,,,,,,,,gray,hexagon
0.0,1.0,1.0,0.0,6.0,6.0,1149.8013620002894,4.0,0.0,part_2,go,600.0,750.0,1.0,,,,,,,,,yellow,cross
0.0,3.0,3.0,0.0,6.0,6.0,719.7718590014119,4.0,0.0,part_2,go,600.0,750.0,1.0,,,,,,,,,white,square
0.0,6.0,2.0,1.0,5.0,0.0,0.0,4.0,0.0,part_2,stop,600.0,750.0,4.0,,,,,,,,,magenta,I
0.0,6.0,2.0,1.0,6.0,0.0,0.0,4.0,0.0,part_2,stop,650.0,750.0,4.0,,,,,,,,,magenta,I
0.0,2.0,2.0,0.0,5.0,5.0,972.4019739987853,4.0,0.0,part_2,go,650.0,800.0,1.0,,,,,,,,,blue,flipped triangle
0.0,1.0,1.0,0.0,6.0,6.0,887.189776998639,5.0,0.0,part_2,go,650.0,800.0,1.0,,,,,,,,,yellow,cross
0.0,6.0,2.0,1.0,5.0,0.0,0.0,5.0,0.0,part_2,stop,650.0,800.0,4.0,,,,,,,,,magenta,I
0.0,3.0,3.0,0.0,5.0,5.0,901.3758660003076,5.0,0.0,part_2,go,700.0,800.0,1.0,,,,,,,,,white,square
0.0,5.0,1.0,1.0,5.0,5.0,1077.5426889995288,5.0,0.0,part_2,go,700.0,800.0,1.0,,,,,,,,,orange,triangle
0.0,3.0,3.0,0.0,6.0,6.0,654.8721310009569,5.0,0.0,part_2,go,700.0,800.0,1.0,,,,,,,,,white,square
0.0,1.0,1.0,0.0,5.0,5.0,824.3277279998438,5.0,0.0,part_2,go,700.0,800.0,1.0,,,,,,,,,yellow,cross
0.0,6.0,2.0,1.0,5.0,5.0,945.257858000332,5.0,0.0,part_2,go,700.0,800.0,1.0,,,,,,,,,magenta,I
0.0,4.0,4.0,0.0,5.0,5.0,722.0006990010006,5.0,0.0,part_2,go,700.0,800.0,1.0,,,,,,,,,gray,hexagon
0.0,3.0,3.0,0.0,6.0,6.0,793.4738579988334,5.0,0.0,part_2,go,700.0,800.0,1.0,,,,,,,,,white,square
0.0,3.0,3.0,0.0,5.0,5.0,877.704967999307,5.0,0.0,part_2,go,700.0,800.0,1.0,,,,,,,,,white,square
0.0,5.0,1.0,1.0,6.0,6.0,879.4494379999378,5.0,0.0,part_2,stop,700.0,800.0,3.0,,,,,,,,,orange,triangle
0.0,5.0,1.0,1.0,6.0,6.0,796.9813909985533,5.0,0.0,part_2,stop,700.0,750.0,3.0,,,,,,,,,orange,triangle
0.0,4.0,4.0,0.0,6.0,6.0,988.3818830003293,5.0,0.0,part_2,go,700.0,700.0,1.0,,,,,,,,,gray,hexagon
0.0,2.0,2.0,0.0,5.0,5.0,875.5902409993723,5.0,0.0,part_2,go,700.0,700.0,1.0,,,,,,,,,blue,flipped triangle
0.0,7.0,3.0,1.0,6.0,0.0,0.0,5.0,0.0,part_2,stop,700.0,700.0,4.0,,,,,,,,,cyan,diamond
0.0,8.0,4.0,1.0,5.0,5.0,893.3717510008137,5.0,0.0,part_2,stop,700.0,750.0,3.0,,,,,,,,,green,circle
0.0,8.0,4.0,1.0,6.0,6.0,917.586661000314,5.0,0.0,part_2,stop,650.0,750.0,3.0,,,,,,,,,green,circle
0.0,1.0,1.0,0.0,5.0,5.0,1308.6722299995015,5.0,0.0,part_2,go,650.0,700.0,1.0,,,,,,,,,yellow,cross
0.0,5.0,1.0,1.0,5.0,0.0,0.0,5.0,0.0,part_2,stop,650.0,700.0,4.0,,,,,,,,,orange,triangle
0.0,1.0,1.0,0.0,6.0,6.0,1198.8661980012694,5.0,0.0,part_2,go,700.0,700.0,1.0,,,,,,,,,yellow,cross
0.0,4.0,4.0,0.0,5.0,5.0,917.654720000428,5.0,0.0,part_2,go,700.0,700.0,1.0,,,,,,,,,gray,hexagon
0.0,1.0,1.0,0.0,5.0,5.0,831.4497669998673,5.0,0.0,part_2,go,700.0,700.0,1.0,,,,,,,,,yellow,cross
0.0,8.0,4.0,1.0,6.0,0.0,0.0,5.0,0.0,part_2,stop,700.0,700.0,4.0,,,,,,,,,green,circle
0.0,2.0,2.0,0.0,6.0,6.0,996.5156960006424,5.0,0.0,part_2,go,700.0,750.0,1.0,,,,,,,,,blue,flipped triangle
0.0,7.0,3.0,1.0,6.0,0.0,0.0,5.0,0.0,part_2,stop,700.0,750.0,4.0,,,,,,,,,cyan,diamond
0.0,4.0,4.0,0.0,5.0,5.0,1039.3125099999452,5.0,0.0,part_2,go,700.0,800.0,1.0,,,,,,,,,gray,hexagon
0.0,7.0,3.0,1.0,6.0,0.0,0.0,5.0,0.0,part_2,stop,700.0,800.0,4.0,,,,,,,,,cyan,diamond
0.0,8.0,4.0,1.0,5.0,0.0,0.0,5.0,0.0,part_2,stop,700.0,850.0,4.0,,,,,,,,,green,circle
0.0,6.0,2.0,1.0,6.0,6.0,973.9633930003038,5.0,0.0,part_2,go,750.0,850.0,1.0,,,,,,,,,magenta,I
0.0,8.0,4.0,1.0,5.0,0.0,0.0,5.0,0.0,part_2,stop,750.0,850.0,4.0,,,,,,,,,green,circle
0.0,2.0,2.0,0.0,5.0,5.0,1150.4331699998147,5.0,0.0,part_2,go,800.0,850.0,1.0,,,,,,,,,blue,flipped triangle
0.0,6.0,2.0,1.0,6.0,0.0,0.0,5.0,0.0,part_2,stop,800.0,850.0,4.0,,,,,,,,,magenta,I
0.0,3.0,3.0,0.0,6.0,6.0,1083.388657998512,5.0,0.0,part_2,go,800.0,900.0,1.0,,,,,,,,,white,square
0.0,5.0,1.0,1.0,6.0,6.0,1043.7759819997154,5.0,0.0,part_2,stop,800.0,900.0,3.0,,,,,,,,,orange,triangle
0.0,3.0,3.0,0.0,6.0,0.0,0.0,5.0,0.0,part_2,go,800.0,850.0,5.0,,,,,,,,,white,square
0.0,4.0,4.0,0.0,6.0,6.0,1431.9282090000345,5.0,0.0,part_2,go,800.0,850.0,1.0,,,,,,,,,gray,hexagon
0.0,5.0,1.0,1.0,5.0,0.0,0.0,6.0,0.0,part_2,go,800.0,850.0,5.0,,,,,,,,,orange,triangle
0.0,3.0,3.0,0.0,6.0,6.0,580.9473299996171,6.0,0.0,part_2,go,800.0,850.0,1.0,,,,,,,,,white,square
0.0,6.0,2.0,1.0,6.0,6.0,392.561315000421,6.0,0.0,part_2,stop,800.0,850.0,3.0,,,,,,,,,magenta,I
0.0,2.0,2.0,0.0,5.0,5.0,1002.5016759991561,6.0,0.0,part_2,go,800.0,800.0,1.0,,,,,,,,,blue,flipped triangle
0.0,1.0,1.0,0.0,6.0,6.0,645.1579449985729,6.0,0.0,part_2,go,800.0,800.0,1.0,,,,,,,,,yellow,cross
0.0,7.0,3.0,1.0,5.0,5.0,757.0009169994592,6.0,0.0,part_2,stop,800.0,800.0,3.0,,,,,,,,,cyan,diamond
0.0,5.0,1.0,1.0,6.0,0.0,0.0,6.0,0.0,part_2,stop,750.0,800.0,4.0,,,,,,,,,orange,triangle
0.0,2.0,2.0,0.0,5.0,5.0,1122.6480650002486,6.0,0.0,part_2,go,750.0,850.0,1.0,,,,,,,,,blue,flipped triangle
0.0,5.0,1.0,1.0,5.0,5.0,881.2457919993903,6.0,0.0,part_2,stop,750.0,850.0,3.0,,,,,,,,,orange,triangle
0.0,2.0,2.0,0.0,5.0,5.0,823.6228400000982,6.0,0.0,part_2,go,700.0,850.0,1.0,,,,,,,,,blue,flipped triangle
0.0,2.0,2.0,0.0,6.0,6.0,991.4025270009006,6.0,0.0,part_2,go,700.0,850.0,1.0,,,,,,,,,blue,flipped triangle
0.0,2.0,2.0,0.0,5.0,5.0,1105.4734129993449,6.0,0.0,part_2,go,700.0,850.0,1.0,,,,,,,,,blue,flipped triangle
0.0,6.0,2.0,1.0,6.0,6.0,429.0347459991608,6.0,0.0,part_2,stop,700.0,850.0,3.0,,,,,,,,,magenta,I
0.0,6.0,2.0,1.0,5.0,5.0,421.5071290000196,6.0,0.0,part_2,stop,700.0,800.0,3.0,,,,,,,,,magenta,I
0.0,3.0,3.0,0.0,6.0,6.0,938.0853820002812,6.0,0.0,part_2,go,650.0,800.0,1.0,,,,,,,,,white,square
0.0,3.0,3.0,0.0,5.0,5.0,1264.7356199995556,6.0,0.0,part_2,go,650.0,800.0,1.0,,,,,,,,,white,square
0.0,8.0,4.0,1.0,6.0,0.0,0.0,6.0,0.0,part_2,stop,650.0,800.0,4.0,,,,,,,,,green,circle
0.0,8.0,4.0,1.0,6.0,6.0,907.334997000362,6.0,0.0,part_2,stop,650.0,850.0,3.0,,,,,,,,,green,circle
0.0,5.0,1.0,1.0,5.0,0.0,0.0,6.0,0.0,part_2,stop,650.0,800.0,4.0,,,,,,,,,orange,triangle
0.0,1.0,1.0,0.0,6.0,6.0,870.1673690011376,6.0,0.0,part_2,go,700.0,800.0,1.0,,,,,,,,,yellow,cross
0.0,1.0,1.0,0.0,6.0,6.0,1096.1028130004706,6.0,0.0,part_2,go,700.0,800.0,1.0,,,,,,,,,yellow,cross
0.0,5.0,1.0,1.0,5.0,0.0,0.0,6.0,0.0,part_2,stop,700.0,800.0,4.0,,,,,,,,,orange,triangle
0.0,4.0,4.0,0.0,5.0,5.0,1001.0545050008659,6.0,0.0,part_2,go,750.0,800.0,1.0,,,,,,,,,gray,hexagon
0.0,6.0,2.0,1.0,5.0,0.0,0.0,6.0,0.0,part_2,stop,750.0,800.0,4.0,,,,,,,,,magenta,I
0.0,1.0,1.0,0.0,6.0,6.0,844.1992520001804,6.0,0.0,part_2,go,800.0,800.0,1.0,,,,,,,,,yellow,cross
0.0,4.0,4.0,0.0,5.0,5.0,829.366175999894,6.0,0.0,part_2,go,800.0,800.0,1.0,,,,,,,,,gray,hexagon
0.0,2.0,2.0,0.0,6.0,6.0,964.504447998479,6.0,0.0,part_2,go,800.0,800.0,1.0,,,,,,,,,blue,flipped triangle
0.0,4.0,4.0,0.0,5.0,5.0,1130.1797999985863,6.0,0.0,part_2,go,800.0,800.0,1.0,,,,,,,,,gray,hexagon
0.0,8.0,4.0,1.0,6.0,6.0,847.3972539995884,6.0,0.0,part_2,go,800.0,800.0,1.0,,,,,,,,,green,circle
0.0,8.0,4.0,1.0,5.0,5.0,365.8643319995462,6.0,0.0,part_2,stop,800.0,800.0,3.0,,,,,,,,,green,circle
0.0,2.0,2.0,0.0,5.0,5.0,1254.7591219990863,6.0,0.0,part_2,go,750.0,800.0,1.0,,,,,,,,,blue,flipped triangle
0.0,4.0,4.0,0.0,5.0,5.0,1000.476721999803,6.0,0.0,part_2,go,750.0,800.0,1.0,,,,,,,,,gray,hexagon
0.0,8.0,4.0,1.0,5.0,5.0,411.7479279993858,6.0,0.0,part_2,stop,750.0,800.0,3.0,,,,,,,,,green,circle
0.0,6.0,2.0,1.0,5.0,5.0,1092.211926001255,6.0,0.0,part_2,go,700.0,800.0,1.0,,,,,,,,,magenta,I
0.0,6.0,2.0,1.0,6.0,0.0,0.0,6.0,0.0,part_2,stop,700.0,800.0,4.0,,,,,,,,,magenta,I
0.0,7.0,3.0,1.0,6.0,6.0,1028.2781370005978,6.0,0.0,part_2,stop,700.0,850.0,3.0,,,,,,,,,cyan,diamond
0.0,3.0,3.0,0.0,6.0,6.0,1049.618384000496,7.0,0.0,part_2,go,700.0,800.0,1.0,,,,,,,,,white,square
0.0,2.0,2.0,0.0,6.0,6.0,937.6969350014406,7.0,0.0,part_2,go,700.0,800.0,1.0,,,,,,,,,blue,flipped triangle
0.0,4.0,4.0,0.0,6.0,6.0,843.4168479998334,7.0,0.0,part_2,go,700.0,800.0,1.0,,,,,,,,,gray,hexagon
0.0,3.0,3.0,0.0,6.0,6.0,762.2968279993074,7.0,0.0,part_2,go,700.0,800.0,1.0,,,,,,,,,white,square
0.0,6.0,2.0,1.0,5.0,5.0,886.4642799999274,7.0,0.0,part_2,stop,700.0,800.0,3.0,,,,,,,,,magenta,I
0.0,7.0,3.0,1.0,5.0,0.0,0.0,7.0,0.0,part_2,stop,650.0,800.0,4.0,,,,,,,,,cyan,diamond
0.0,4.0,4.0,0.0,6.0,6.0,797.0529089998308,7.0,0.0,part_2,go,700.0,800.0,1.0,,,,,,,,,gray,hexagon
0.0,8.0,4.0,1.0,6.0,6.0,889.8960850001458,7.0,0.0,part_2,stop,700.0,800.0,3.0,,,,,,,,,green,circle
0.0,6.0,2.0,1.0,5.0,5.0,882.1636520005995,7.0,0.0,part_2,stop,700.0,750.0,3.0,,,,,,,,,magenta,I
0.0,3.0,3.0,0.0,5.0,5.0,1338.956841000254,7.0,0.0,part_2,go,650.0,750.0,1.0,,,,,,,,,white,square
0.0,2.0,2.0,0.0,5.0,5.0,1024.3840380007896,7.0,0.0,part_2,go,650.0,750.0,1.0,,,,,,,,,blue,flipped triangle
0.0,4.0,4.0,0.0,6.0,6.0,962.4435719997564,7.0,0.0,part_2,go,650.0,750.0,1.0,,,,,,,,,gray,hexagon
0.0,3.0,3.0,0.0,5.0,5.0,1039.2324380009086,7.0,0.0,part_2,go,650.0,750.0,1.0,,,,,,,,,white,square
0.0,8.0,4.0,1.0,5.0,0.0,0.0,7.0,0.0,part_2,stop,650.0,750.0,4.0,,,,,,,,,green,circle
0.0,3.0,3.0,0.0,6.0,6.0,872.2242540006846,7.0,0.0,part_2,go,700.0,750.0,1.0,,,,,,,,,white,square
0.0,3.0,3.0,0.0,5.0,5.0,1160.6688589999976,7.0,0.0,part_2,go,700.0,750.0,1.0,,,,,,,,,white,square
0.0,2.0,2.0,0.0,6.0,6.0,991.7056760004924,7.0,0.0,part_2,go,700.0,750.0,1.0,,,,,,,,,blue,flipped triangle
0.0,8.0,4.0,1.0,5.0,5.0,1102.457710001545,7.0,0.0,part_2,go,700.0,750.0,1.0,,,,,,,,,green,circle
0.0,7.0,3.0,1.0,6.0,6.0,458.0959040013113,7.0,0.0,part_2,stop,700.0,750.0,3.0,,,,,,,,,cyan,diamond
0.0,8.0,4.0,1.0,5.0,0.0,0.0,7.0,0.0,part_2,stop,700.0,700.0,4.0,,,,,,,,,green,circle
0.0,1.0,1.0,0.0,6.0,6.0,864.859647999765,7.0,0.0,part_2,go,750.0,700.0,1.0,,,,,,,,,yellow,cross
0.0,6.0,2.0,1.0,5.0,0.0,0.0,7.0,0.0,part_2,stop,750.0,700.0,4.0,,,,,,,,,magenta,I
0.0,5.0,1.0,1.0,6.0,6.0,945.309565999196,7.0,0.0,part_2,go,800.0,700.0,1.0,,,,,,,,,orange,triangle
0.0,7.0,3.0,1.0,6.0,6.0,825.5110180016345,7.0,0.0,part_2,stop,800.0,700.0,3.0,,,,,,,,,cyan,diamond
0.0,6.0,2.0,1.0,5.0,0.0,0.0,7.0,0.0,part_2,stop,800.0,650.0,4.0,,,,,,,,,magenta,I
0.0,2.0,2.0,0.0,6.0,6.0,1347.0711629997822,7.0,0.0,part_2,go,850.0,650.0,1.0,,,,,,,,,blue,flipped triangle
0.0,8.0,4.0,1.0,5.0,0.0,0.0,7.0,0.0,part_2,stop,850.0,650.0,4.0,,,,,,,,,green,circle
0.0,1.0,1.0,0.0,5.0,5.0,1246.8444789992643,7.0,0.0,part_2,go,900.0,650.0,1.0,,,,,,,,,yellow,cross
0.0,8.0,4.0,1.0,6.0,0.0,0.0,7.0,0.0,part_2,stop,900.0,650.0,4.0,,,,,,,,,green,circle
0.0,6.0,2.0,1.0,5.0,5.0,741.9683100015391,7.0,0.0,part_2,stop,900.0,700.0,3.0,,,,,,,,,magenta,I
0.0,8.0,4.0,1.0,6.0,0.0,0.0,7.0,0.0,part_2,stop,850.0,700.0,4.0,,,,,,,,,green,circle
0.0,3.0,3.0,0.0,6.0,6.0,750.5747459999839,7.0,0.0,part_2,go,850.0,750.0,1.0,,,,,,,,,white,square
0.0,4.0,4.0,0.0,5.0,5.0,870.5181109999103,7.0,0.0,part_2,go,850.0,750.0,1.0,,,,,,,,,gray,hexagon
0.0,7.0,3.0,1.0,5.0,5.0,870.3008430002228,7.0,0.0,part_2,go,850.0,750.0,1.0,,,,,,,,,cyan,diamond
0.0,7.0,3.0,1.0,6.0,6.0,861.3576159987133,7.0,0.0,part_2,go,850.0,750.0,1.0,,,,,,,,,cyan,diamond
0.0,3.0,3.0,0.0,5.0,5.0,806.9321830007539,7.0,0.0,part_2,go,850.0,750.0,1.0,,,,,,,,,white,square
0.0,4.0,4.0,0.0,6.0,6.0,883.5868109999865,8.0,0.0,part_2,go,850.0,750.0,1.0,,,,,,,,,gray,hexagon
0.0,2.0,2.0,0.0,5.0,5.0,881.6096579994337,8.0,0.0,part_2,go,850.0,750.0,1.0,,,,,,,,,blue,flipped triangle
0.0,7.0,3.0,1.0,6.0,6.0,684.8051920005673,8.0,0.0,part_2,stop,850.0,750.0,3.0,,,,,,,,,cyan,diamond
0.0,1.0,1.0,0.0,6.0,6.0,833.0026290004753,8.0,0.0,part_2,go,850.0,700.0,1.0,,,,,,,,,yellow,cross
0.0,6.0,2.0,1.0,6.0,6.0,786.7719420009962,8.0,0.0,part_2,go,850.0,700.0,1.0,,,,,,,,,magenta,I
0.0,1.0,1.0,0.0,5.0,5.0,741.0940750014561,8.0,0.0,part_2,go,850.0,700.0,1.0,,,,,,,,,yellow,cross
0.0,6.0,2.0,1.0,5.0,5.0,675.1172039985249,8.0,0.0,part_2,stop,850.0,700.0,3.0,,,,,,,,,magenta,I
0.0,3.0,3.0,0.0,6.0,6.0,610.2799150012288,8.0,0.0,part_2,go,800.0,700.0,1.0,,,,,,,,,white,square
0.0,8.0,4.0,1.0,6.0,6.0,815.936041999521,8.0,0.0,part_2,stop,800.0,700.0,3.0,,,,,,,,,green,circle
0.0,4.0,4.0,0.0,6.0,6.0,1208.8251240002137,8.0,0.0,part_2,go,800.0,650.0,1.0,,,,,,,,,gray,hexagon
0.0,6.0,2.0,1.0,6.0,0.0,0.0,8.0,0.0,part_2,stop,800.0,650.0,4.0,,,,,,,,,magenta,I
0.0,3.0,3.0,0.0,6.0,6.0,1107.041201001266,8.0,0.0,part_2,go,800.0,700.0,1.0,,,,,,,,,white,square
0.0,8.0,4.0,1.0,5.0,5.0,1163.728503999664,8.0,0.0,part_2,go,800.0,700.0,1.0,,,,,,,,,green,circle
0.0,2.0,2.0,0.0,5.0,5.0,1173.680305999369,8.0,0.0,part_2,go,800.0,700.0,1.0,,,,,,,,,blue,flipped triangle
0.0,6.0,2.0,1.0,5.0,0.0,0.0,8.0,0.0,part_2,stop,800.0,700.0,4.0,,,,,,,,,magenta,I
0.0,3.0,3.0,0.0,6.0,6.0,609.6065589990758,8.0,0.0,part_2,go,850.0,700.0,1.0,,,,,,,,,white,square
0.0,4.0,4.0,0.0,6.0,6.0,1153.5614960012026,8.0,0.0,part_2,go,850.0,700.0,1.0,,,,,,,,,gray,hexagon
0.0,8.0,4.0,1.0,5.0,5.0,974.3822079999518,8.0,0.0,part_2,stop,850.0,700.0,3.0,,,,,,,,,green,circle
0.0,4.0,4.0,0.0,6.0,6.0,1296.0876939996524,8.0,0.0,part_2,go,800.0,700.0,1.0,,,,,,,,,gray,hexagon
0.0,5.0,1.0,1.0,6.0,0.0,0.0,8.0,0.0,part_2,stop,800.0,700.0,4.0,,,,,,,,,orange,triangle
0.0,5.0,1.0,1.0,6.0,0.0,0.0,8.0,0.0,part_2,stop,800.0,750.0,4.0,,,,,,,,,orange,triangle
0.0,5.0,1.0,1.0,6.0,0.0,0.0,8.0,0.0,part_2,stop,800.0,800.0,4.0,,,,,,,,,orange,triangle
0.0,4.0,4.0,0.0,6.0,6.0,665.7242239998595,8.0,0.0,part_2,go,800.0,850.0,1.0,,,,,,,,,gray,hexagon
0.0,1.0,1.0,0.0,6.0,6.0,919.7788010005752,8.0,0.0,part_2,go,800.0,850.0,1.0,,,,,,,,,yellow,cross
0.0,7.0,3.0,1.0,6.0,6.0,1239.9128839988407,8.0,0.0,part_2,go,800.0,850.0,1.0,,,,,,,,,cyan,diamond
0.0,6.0,2.0,1.0,6.0,6.0,423.3251480000035,8.0,0.0,part_2,go,800.0,850.0,1.0,,,,,,,,,magenta,I
0.0,7.0,3.0,1.0,5.0,5.0,853.2136320009158,8.0,0.0,part_2,go,800.0,850.0,1.0,,,,,,,,,cyan,diamond
0.0,4.0,4.0,0.0,6.0,6.0,703.6445789999561,8.0,0.0,part_2,go,800.0,850.0,1.0,,,,,,,,,gray,hexagon
0.0,6.0,2.0,1.0,6.0,6.0,723.108180998679,8.0,0.0,part_2,go,800.0,850.0,1.0,,,,,,,,,magenta,I
0.0,1.0,1.0,0.0,5.0,5.0,714.7740899999917,8.0,0.0,part_2,go,800.0,850.0,1.0,,,,,,,,,yellow,cross
0.0,8.0,4.0,1.0,6.0,6.0,647.6438009995036,8.0,0.0,part_2,stop,800.0,850.0,3.0,,,,,,,,,green,circle
0.0,2.0,2.0,0.0,5.0,5.0,778.4017199992377,8.0,0.0,part_2,go,800.0,800.0,1.0,,,,,,,,,blue,flipped triangle
0.0,2.0,2.0,0.0,6.0,6.0,888.6219819996768,8.0,0.0,part_2,go,800.0,800.0,1.0,,,,,,,,,blue,flipped triangle
0.0,7.0,3.0,1.0,6.0,6.0,843.3439290001843,8.0,0.0,part_2,stop,800.0,800.0,3.0,,,,,,,,,cyan,diamond
0.0,4.0,4.0,0.0,5.0,5.0,1058.266920999813,8.0,0.0,part_2,go,800.0,750.0,1.0,,,,,,,,,gray,hexagon
0.0,6.0,2.0,1.0,5.0,5.0,778.194907001307,8.0,0.0,part_2,stop,800.0,750.0,3.0,,,,,,,,,magenta,I
0.0,2.0,2.0,0.0,7.0,3.0,4347.167341000386,1.0,1.0,part_3,go,0.0,0.0,0.0,696.0,6.0,232.0,580.0,696.0,348.0,464.0,116.0,blue,flipped triangle
0.0,4.0,4.0,0.0,7.0,4.0,2493.5274029994616,1.0,1.0,part_3,go,0.0,0.0,0.0,692.0,4.0,519.0,173.0,865.0,692.0,1038.0,346.0,gray,hexagon
0.0,3.0,3.0,0.0,7.0,5.0,1693.9298510005756,1.0,1.0,part_3,go,0.0,0.0,0.0,692.0,4.0,346.0,865.0,519.0,173.0,692.0,1038.0,white,square
0.0,2.0,2.0,0.0,7.0,2.0,3403.790273001505,1.0,1.0,part_3,go,0.0,0.0,0.0,770.0,5.0,308.0,770.0,924.0,462.0,616.0,154.0,blue,flipped triangle
0.0,6.0,2.0,1.0,7.0,2.0,1753.640897000878,1.0,1.0,part_3,go,0.0,0.0,0.0,540.0,4.0,405.0,540.0,810.0,675.0,135.0,270.0,magenta,I
0.0,3.0,3.0,0.0,7.0,1.0,3483.019837998654,1.0,1.0,part_3,go,0.0,0.0,0.0,540.0,4.0,540.0,675.0,810.0,270.0,135.0,405.0,white,square
0.0,5.0,1.0,1.0,7.0,4.0,1853.1586400004016,1.0,1.0,part_3,go,0.0,0.0,0.0,1038.0,6.0,865.0,692.0,519.0,1038.0,173.0,346.0,orange,triangle
0.0,7.0,3.0,1.0,7.0,5.0,1774.2861659990012,1.0,1.0,part_3,go,0.0,0.0,0.0,770.0,5.0,462.0,154.0,616.0,308.0,770.0,924.0,cyan,diamond
0.0,1.0,1.0,0.0,7.0,4.0,1393.91518299999,1.0,1.0,part_3,go,0.0,0.0,0.0,1152.0,6.0,960.0,192.0,576.0,1152.0,384.0,768.0,yellow,cross
0.0,5.0,1.0,1.0,7.0,3.0,1903.8280209988443,1.0,1.0,part_3,go,0.0,0.0,0.0,696.0,6.0,116.0,232.0,696.0,464.0,580.0,348.0,orange,triangle
0.0,6.0,2.0,1.0,7.0,5.0,1298.078493000503,1.0,1.0,part_3,go,0.0,0.0,0.0,616.0,4.0,924.0,462.0,154.0,770.0,616.0,308.0,magenta,I
0.0,3.0,3.0,0.0,7.0,4.0,1170.5742070007543,1.0,1.0,part_3,go,0.0,0.0,0.0,770.0,5.0,616.0,462.0,154.0,770.0,308.0,924.0,white,square
0.0,7.0,3.0,1.0,7.0,5.0,1749.181539000347,1.0,1.0,part_3,go,0.0,0.0,0.0,810.0,6.0,405.0,675.0,135.0,270.0,810.0,540.0,cyan,diamond
0.0,7.0,3.0,1.0,7.0,5.0,893.161293999583,1.0,1.0,part_3,go,0.0,0.0,0.0,865.0,5.0,519.0,346.0,1038.0,692.0,865.0,173.0,cyan,diamond
0.0,8.0,4.0,1.0,7.0,5.0,845.2593369984243,1.0,1.0,part_3,go,0.0,0.0,0.0,768.0,4.0,960.0,576.0,1152.0,192.0,768.0,384.0,green,circle
0.0,3.0,3.0,0.0,7.0,3.0,2172.2092390009493,1.0,1.0,part_3,go,0.0,0.0,0.0,696.0,6.0,580.0,232.0,696.0,348.0,464.0,116.0,white,square
0.0,8.0,4.0,1.0,7.0,2.0,1990.6823450000957,1.0,1.0,part_3,go,0.0,0.0,0.0,696.0,6.0,580.0,696.0,464.0,232.0,116.0,348.0,green,circle
0.0,8.0,4.0,1.0,7.0,2.0,1809.7121249993504,1.0,1.0,part_3,go,0.0,0.0,0.0,675.0,5.0,540.0,675.0,270.0,405.0,810.0,135.0,green,circle
0.0,6.0,2.0,1.0,7.0,3.0,1463.7101299995263,1.0,1.0,part_3,go,0.0,0.0,0.0,768.0,4.0,960.0,192.0,768.0,384.0,576.0,1152.0,magenta,I
0.0,3.0,3.0,0.0,7.0,5.0,1791.3985210016108,1.0,1.0,part_3,go,0.0,0.0,0.0,865.0,5.0,519.0,692.0,346.0,1038.0,865.0,173.0,white,square
0.0,6.0,2.0,1.0,7.0,2.0,2467.6392990004388,2.0,1.0,part_3,go,0.0,0.0,0.0,924.0,6.0,154.0,924.0,308.0,462.0,616.0,770.0,magenta,I
0.0,1.0,1.0,0.0,7.0,4.0,1186.7672970001877,2.0,1.0,part_3,go,0.0,0.0,0.0,519.0,3.0,692.0,1038.0,173.0,519.0,865.0,346.0,yellow,cross
0.0,7.0,3.0,1.0,7.0,5.0,1187.8226320004617,2.0,1.0,part_3,go,0.0,0.0,0.0,616.0,4.0,462.0,308.0,924.0,154.0,616.0,770.0,cyan,diamond
0.0,2.0,2.0,0.0,7.0,2.0,1235.905575000288,2.0,1.0,part_3,go,0.0,0.0,0.0,770.0,5.0,462.0,770.0,616.0,924.0,154.0,308.0,blue,flipped triangle
0.0,1.0,1.0,0.0,7.0,4.0,2104.237343999557,2.0,1.0,part_3,go,0.0,0.0,0.0,580.0,5.0,232.0,696.0,116.0,580.0,464.0,348.0,yellow,cross
0.0,2.0,2.0,0.0,7.0,3.0,1198.6320550004166,2.0,1.0,part_3,go,0.0,0.0,0.0,810.0,6.0,135.0,675.0,810.0,270.0,540.0,405.0,blue,flipped triangle
0.0,1.0,1.0,0.0,7.0,4.0,1818.8172099999065,2.0,1.0,part_3,go,0.0,0.0,0.0,1152.0,6.0,576.0,960.0,192.0,1152.0,384.0,768.0,yellow,cross
0.0,3.0,3.0,0.0,7.0,4.0,1067.4336770007358,2.0,1.0,part_3,go,0.0,0.0,0.0,576.0,3.0,384.0,768.0,192.0,576.0,1152.0,960.0,white,square
0.0,7.0,3.0,1.0,7.0,4.0,2364.5073330008017,2.0,1.0,part_3,go,0.0,0.0,0.0,768.0,4.0,960.0,1152.0,192.0,768.0,384.0,576.0,cyan,diamond
0.0,2.0,2.0,0.0,7.0,4.0,1021.068762998766,2.0,1.0,part_3,go,0.0,0.0,0.0,768.0,4.0,384.0,960.0,576.0,768.0,192.0,1152.0,blue,flipped triangle
0.0,6.0,2.0,1.0,7.0,4.0,937.6175500001408,2.0,1.0,part_3,go,0.0,0.0,0.0,1038.0,6.0,346.0,519.0,692.0,1038.0,173.0,865.0,magenta,I
0.0,4.0,4.0,0.0,7.0,4.0,567.7421199998207,2.0,1.0,part_3,go,0.0,0.0,0.0,865.0,5.0,173.0,692.0,1038.0,865.0,346.0,519.0,gray,hexagon
0.0,8.0,4.0,1.0,7.0,4.0,1040.764653998849,2.0,1.0,part_3,go,0.0,0.0,0.0,865.0,5.0,346.0,692.0,1038.0,865.0,519.0,173.0,green,circle
0.0,4.0,4.0,0.0,7.0,5.0,1801.5983469995265,2.0,1.0,part_3,go,0.0,0.0,0.0,960.0,5.0,576.0,192.0,768.0,384.0,960.0,1152.0,gray,hexagon
0.0,5.0,1.0,1.0,7.0,3.0,1367.3165180007345,2.0,1.0,part_3,go,0.0,0.0,0.0,810.0,6.0,540.0,135.0,810.0,405.0,675.0,270.0,orange,triangle
0.0,5.0,1.0,1.0,7.0,4.0,1469.595394999487,2.0,1.0,part_3,go,0.0,0.0,0.0,770.0,5.0,154.0,924.0,308.0,770.0,462.0,616.0,orange,triangle
0.0,2.0,2.0,0.0,7.0,5.0,1214.1126159986015,2.0,1.0,part_3,go,0.0,0.0,0.0,1038.0,6.0,519.0,173.0,692.0,346.0,1038.0,865.0,blue,flipped triangle
0.0,3.0,3.0,0.0,7.0,2.0,2492.3432739997224,2.0,1.0,part_3,go,0.0,0.0,0.0,810.0,6.0,540.0,810.0,135.0,270.0,675.0,405.0,white,square
0.0,4.0,4.0,0.0,7.0,5.0,1663.811787000668,2.0,1.0,part_3,go,0.0,0.0,0.0,770.0,5.0,924.0,154.0,308.0,462.0,770.0,616.0,gray,hexagon
0.0,5.0,1.0,1.0,7.0,5.0,1467.3541939991992,2.0,1.0,part_3,go,0.0,0.0,0.0,1152.0,6.0,768.0,192.0,384.0,576.0,1152.0,960.0,orange,triangle
0.0,7.0,3.0,1.0,7.0,4.0,1458.8620619997528,3.0,1.0,part_3,go,0.0,0.0,0.0,580.0,5.0,348.0,696.0,232.0,580.0,464.0,116.0,cyan,diamond
0.0,7.0,3.0,1.0,7.0,4.0,818.3510250000836,3.0,1.0,part_3,go,0.0,0.0,0.0,576.0,3.0,768.0,192.0,960.0,576.0,1152.0,384.0,cyan,diamond
0.0,4.0,4.0,0.0,7.0,1.0,2318.301014998724,3.0,1.0,part_3,go,0.0,0.0,0.0,616.0,4.0,616.0,924.0,308.0,154.0,462.0,770.0,gray,hexagon
0.0,3.0,3.0,0.0,7.0,4.0,708.0650520001655,3.0,1.0,part_3,go,0.0,0.0,0.0,768.0,4.0,1152.0,960.0,576.0,768.0,192.0,384.0,white,square
0.0,5.0,1.0,1.0,7.0,1.0,2786.841066999841,3.0,1.0,part_3,go,0.0,0.0,0.0,768.0,4.0,768.0,1152.0,384.0,192.0,960.0,576.0,orange,triangle
0.0,7.0,3.0,1.0,7.0,4.0,1332.0662939986505,3.0,1.0,part_3,go,0.0,0.0,0.0,1038.0,6.0,865.0,346.0,692.0,1038.0,173.0,519.0,cyan,diamond
0.0,2.0,2.0,0.0,7.0,6.0,1050.0562400011404,3.0,1.0,part_3,go,0.0,0.0,0.0,696.0,6.0,116.0,580.0,348.0,232.0,464.0,696.0,blue,flipped triangle
0.0,7.0,3.0,1.0,7.0,3.0,2848.1634429990663,3.0,1.0,part_3,go,0.0,0.0,0.0,580.0,5.0,464.0,232.0,580.0,116.0,348.0,696.0,cyan,diamond
0.0,6.0,2.0,1.0,7.0,6.0,1306.750814999759,3.0,1.0,part_3,go,0.0,0.0,0.0,768.0,4.0,384.0,1152.0,960.0,576.0,192.0,768.0,magenta,I
0.0,6.0,2.0,1.0,7.0,5.0,1226.068027999645,3.0,1.0,part_3,go,0.0,0.0,0.0,675.0,5.0,405.0,540.0,810.0,270.0,675.0,135.0,magenta,I
0.0,5.0,1.0,1.0,7.0,1.0,1664.4156829988788,3.0,1.0,part_3,go,0.0,0.0,0.0,865.0,5.0,865.0,173.0,692.0,1038.0,346.0,519.0,orange,triangle
0.0,1.0,1.0,0.0,7.0,5.0,1254.408512000737,3.0,1.0,part_3,go,0.0,0.0,0.0,810.0,6.0,675.0,135.0,540.0,405.0,810.0,270.0,yellow,cross
0.0,8.0,4.0,1.0,7.0,6.0,1050.9314680002717,3.0,1.0,part_3,go,0.0,0.0,0.0,192.0,1.0,576.0,960.0,1152.0,768.0,384.0,192.0,green,circle
0.0,8.0,4.0,1.0,7.0,4.0,1549.4457130007504,3.0,1.0,part_3,go,0.0,0.0,0.0,770.0,5.0,308.0,924.0,154.0,770.0,616.0,462.0,green,circle
0.0,8.0,4.0,1.0,7.0,4.0,792.3925260001852,3.0,1.0,part_3,go,0.0,0.0,0.0,519.0,3.0,1038.0,173.0,346.0,519.0,865.0,692.0,green,circle
0.0,4.0,4.0,0.0,7.0,5.0,995.5806210000446,3.0,1.0,part_3,go,0.0,0.0,0.0,580.0,5.0,464.0,116.0,348.0,232.0,580.0,696.0,gray,hexagon
0.0,6.0,2.0,1.0,7.0,4.0,1307.018826000785,3.0,1.0,part_3,go,0.0,0.0,0.0,696.0,6.0,348.0,116.0,580.0,696.0,232.0,464.0,magenta,I
0.0,6.0,2.0,1.0,7.0,1.0,1171.42040500039,3.0,1.0,part_3,go,0.0,0.0,0.0,1038.0,6.0,1038.0,519.0,865.0,346.0,173.0,692.0,magenta,I
0.0,5.0,1.0,1.0,7.0,6.0,678.6601529984182,3.0,1.0,part_3,go,0.0,0.0,0.0,580.0,5.0,116.0,348.0,232.0,696.0,464.0,580.0,orange,triangle
0.0,3.0,3.0,0.0,7.0,1.0,1444.7301770014749,3.0,1.0,part_3,go,0.0,0.0,0.0,696.0,6.0,696.0,232.0,464.0,580.0,116.0,348.0,white,square
0.0,8.0,4.0,1.0,7.0,5.0,1414.309183999649,4.0,1.0,part_3,go,0.0,0.0,0.0,616.0,4.0,154.0,308.0,924.0,770.0,616.0,462.0,green,circle
0.0,7.0,3.0,1.0,7.0,4.0,1442.8004230012448,4.0,1.0,part_3,go,0.0,0.0,0.0,810.0,6.0,135.0,540.0,270.0,810.0,405.0,675.0,cyan,diamond
0.0,1.0,1.0,0.0,7.0,5.0,1051.2192450005386,4.0,1.0,part_3,go,0.0,0.0,0.0,770.0,5.0,616.0,462.0,924.0,308.0,770.0,154.0,yellow,cross
0.0,1.0,1.0,0.0,7.0,6.0,1958.695850998993,4.0,1.0,part_3,go,0.0,0.0,0.0,173.0,1.0,346.0,519.0,692.0,1038.0,865.0,173.0,yellow,cross
0.0,1.0,1.0,0.0,7.0,1.0,1553.3488740002213,4.0,1.0,part_3,go,0.0,0.0,0.0,616.0,4.0,616.0,770.0,154.0,924.0,308.0,462.0,yellow,cross
0.0,8.0,4.0,1.0,7.0,3.0,1919.43023299973,4.0,1.0,part_3,go,0.0,0.0,0.0,696.0,6.0,464.0,232.0,696.0,580.0,348.0,116.0,green,circle
0.0,2.0,2.0,0.0,7.0,6.0,1637.0231040000365,4.0,1.0,part_3,go,0.0,0.0,0.0,960.0,5.0,768.0,576.0,192.0,1152.0,384.0,960.0,blue,flipped triangle
0.0,4.0,4.0,0.0,7.0,5.0,1475.9911469991494,4.0,1.0,part_3,go,0.0,0.0,0.0,768.0,4.0,1152.0,192.0,960.0,384.0,768.0,576.0,gray,hexagon
0.0,5.0,1.0,1.0,7.0,5.0,937.4659059994884,4.0,1.0,part_3,go,0.0,0.0,0.0,154.0,1.0,308.0,616.0,924.0,770.0,154.0,462.0,orange,triangle
0.0,2.0,2.0,0.0,7.0,4.0,707.2455369998352,4.0,1.0,part_3,go,0.0,0.0,0.0,540.0,4.0,135.0,675.0,405.0,540.0,810.0,270.0,blue,flipped triangle
0.0,4.0,4.0,0.0,7.0,5.0,1182.42286199893,4.0,1.0,part_3,go,0.0,0.0,0.0,675.0,5.0,540.0,810.0,405.0,135.0,675.0,270.0,gray,hexagon
0.0,6.0,2.0,1.0,7.0,5.0,1257.3866750008165,4.0,1.0,part_3,go,0.0,0.0,0.0,580.0,5.0,464.0,116.0,232.0,348.0,580.0,696.0,magenta,I
0.0,4.0,4.0,0.0,7.0,1.0,1243.7930980013334,4.0,1.0,part_3,go,0.0,0.0,0.0,405.0,3.0,405.0,270.0,675.0,135.0,540.0,810.0,gray,hexagon
0.0,1.0,1.0,0.0,7.0,1.0,539.1182500006835,4.0,1.0,part_3,go,0.0,0.0,0.0,696.0,6.0,696.0,580.0,464.0,348.0,116.0,232.0,yellow,cross
0.0,2.0,2.0,0.0,7.0,3.0,1894.4766069998875,4.0,1.0,part_3,go,0.0,0.0,0.0,865.0,5.0,1038.0,173.0,865.0,692.0,519.0,346.0,blue,flipped triangle
0.0,3.0,3.0,0.0,7.0,1.0,799.2591700003686,4.0,1.0,part_3,go,0.0,0.0,0.0,924.0,6.0,924.0,770.0,308.0,616.0,462.0,154.0,white,square
0.0,5.0,1.0,1.0,7.0,2.0,1430.6380580001132,4.0,1.0,part_3,go,0.0,0.0,0.0,540.0,4.0,135.0,540.0,675.0,810.0,270.0,405.0,orange,triangle
0.0,1.0,1.0,0.0,7.0,1.0,2751.8123099998775,4.0,1.0,part_3,go,0.0,0.0,0.0,540.0,4.0,540.0,675.0,810.0,270.0,135.0,405.0,yellow,cross
0.0,8.0,4.0,1.0,7.0,6.0,729.1669259993796,4.0,1.0,part_3,go,0.0,0.0,0.0,810.0,6.0,405.0,270.0,540.0,675.0,135.0,810.0,green,circle
0.0,4.0,4.0,0.0,7.0,1.0,1155.250949001129,4.0,1.0,part_3,go,0.0,0.0,0.0,696.0,6.0,696.0,116.0,580.0,232.0,464.0,348.0,gray,hexagon
