raw_reward_magnitude,stim_reward,stepwise_reward_magnitude,paired_with_stopping,stim_location,response,reaction_time,block,num_trial_presentations,which_phase,stop_signal_trial_type,left_SSD,right_SSD,accuracy,chosen_bidding_amount,chosen_bidding_level,possible_bid_1,possible_bid_2,possible_bid_3,possible_bid_4,possible_bid_5,possible_bid_6,color_text,shape_text
636.0,3.0,3.0,0.0,1.0,1.0,365.659284000003,1.0,1.0,phase_1,,,,,,,,,,,,,blue,circle
156.0,5.0,1.0,1.0,3.0,3.0,478.4873930000231,1.0,1.0,phase_1,,,,,,,,,,,,,orange,cross
164.0,1.0,1.0,0.0,2.0,2.0,460.5052610002076,1.0,1.0,phase_1,,,,,,,,,,,,,green,triangle
1299.0,8.0,4.0,1.0,3.0,3.0,457.2172549999322,1.0,1.0,phase_1,,,,,,,,,,,,,white,flipped triangle
1306.0,4.0,4.0,0.0,2.0,2.0,627.7443079998193,1.0,1.0,phase_1,,,,,,,,,,,,,yellow,diamond
184.0,5.0,1.0,1.0,4.0,4.0,338.2783700001255,1.0,1.0,phase_1,,,,,,,,,,,,,orange,cross
328.0,2.0,2.0,0.0,4.0,4.0,366.2955810000312,1.0,1.0,phase_1,,,,,,,,,,,,,cyan,I
0.0,3.0,0.0,0.0,2.0,2.0,422.4267149998013,1.0,1.0,phase_1,,,,,,,,,,,,,blue,circle
1283.0,8.0,4.0,1.0,1.0,1.0,461.0014279999177,1.0,1.0,phase_1,,,,,,,,,,,,,white,flipped triangle
343.0,2.0,2.0,0.0,2.0,2.0,524.9568009999166,1.0,1.0,phase_1,,,,,,,,,,,,,cyan,I
1290.0,4.0,4.0,0.0,1.0,1.0,318.8733469999079,1.0,1.0,phase_1,,,,,,,,,,,,,yellow,diamond
320.0,2.0,2.0,0.0,1.0,1.0,368.1261700000959,1.0,1.0,phase_1,,,,,,,,,,,,,cyan,I
0.0,2.0,0.0,0.0,4.0,4.0,441.1361300001317,1.0,1.0,phase_1,,,,,,,,,,,,,cyan,I
309.0,2.0,2.0,0.0,3.0,3.0,444.6740609998869,1.0,1.0,phase_1,,,,,,,,,,,,,cyan,I
323.0,2.0,2.0,0.0,4.0,4.0,319.7056489998431,1.0,1.0,phase_1,,,,,,,,,,,,,cyan,I
666.0,3.0,3.0,0.0,1.0,1.0,347.8665939999246,1.0,1.0,phase_1,,,,,,,,,,,,,blue,circle
666.0,3.0,3.0,0.0,1.0,1.0,335.0330369999028,1.0,1.0,phase_1,,,,,,,,,,,,,blue,circle
339.0,2.0,2.0,0.0,3.0,3.0,370.2504810000846,1.0,1.0,phase_1,,,,,,,,,,,,,cyan,I
186.0,5.0,1.0,1.0,3.0,3.0,415.9537099999397,1.0,1.0,phase_1,,,,,,,,,,,,,orange,cross
138.0,5.0,1.0,1.0,2.0,2.0,349.1199620000316,1.0,1.0,phase_1,,,,,,,,,,,,,orange,cross
1286.0,8.0,4.0,1.0,4.0,4.0,405.2638179998666,1.0,1.0,phase_1,,,,,,,,,,,,,white,flipped triangle
156.0,1.0,1.0,0.0,4.0,4.0,367.2129609999501,1.0,1.0,phase_1,,,,,,,,,,,,,green,triangle
0.0,4.0,0.0,0.0,4.0,4.0,366.3452810001217,1.0,1.0,phase_1,,,,,,,,,,,,,yellow,diamond
323.0,6.0,2.0,1.0,1.0,1.0,339.8769220000304,1.0,1.0,phase_1,,,,,,,,,,,,,gray,square
0.0,8.0,0.0,1.0,2.0,2.0,328.5517950000667,1.0,1.0,phase_1,,,,,,,,,,,,,white,flipped triangle
669.0,3.0,3.0,0.0,2.0,2.0,395.3206730000147,1.0,1.0,phase_1,,,,,,,,,,,,,blue,circle
172.0,1.0,1.0,0.0,3.0,3.0,328.8764219998938,1.0,1.0,phase_1,,,,,,,,,,,,,green,triangle
137.0,1.0,1.0,0.0,2.0,2.0,449.1509239999232,1.0,1.0,phase_1,,,,,,,,,,,,,green,triangle
0.0,6.0,0.0,1.0,1.0,1.0,449.584909999885,1.0,1.0,phase_1,,,,,,,,,,,,,gray,square
0.0,2.0,0.0,0.0,2.0,2.0,308.1899220001105,1.0,1.0,phase_1,,,,,,,,,,,,,cyan,I
648.0,7.0,3.0,1.0,3.0,3.0,385.0601699998606,1.0,1.0,phase_1,,,,,,,,,,,,,magenta,hexagon
0.0,3.0,0.0,0.0,2.0,2.0,477.6745709998522,1.0,1.0,phase_1,,,,,,,,,,,,,blue,circle
1323.0,8.0,4.0,1.0,1.0,1.0,335.6344930000432,1.0,1.0,phase_1,,,,,,,,,,,,,white,flipped triangle
0.0,6.0,0.0,1.0,1.0,1.0,327.9368500000146,1.0,1.0,phase_1,,,,,,,,,,,,,gray,square
302.0,2.0,2.0,0.0,3.0,3.0,422.4305770001137,1.0,1.0,phase_1,,,,,,,,,,,,,cyan,I
165.0,5.0,1.0,1.0,2.0,2.0,394.8849420000897,1.0,1.0,phase_1,,,,,,,,,,,,,orange,cross
0.0,6.0,0.0,1.0,4.0,4.0,282.4124769999798,1.0,1.0,phase_1,,,,,,,,,,,,,gray,square
179.0,1.0,1.0,0.0,4.0,4.0,365.2262450000307,1.0,1.0,phase_1,,,,,,,,,,,,,green,triangle
672.0,7.0,3.0,1.0,2.0,2.0,374.846916000024,1.0,1.0,phase_1,,,,,,,,,,,,,magenta,hexagon
1321.0,4.0,4.0,0.0,2.0,2.0,326.6806590002034,1.0,1.0,phase_1,,,,,,,,,,,,,yellow,diamond
628.0,3.0,3.0,0.0,4.0,4.0,488.4406319999925,1.0,1.0,phase_1,,,,,,,,,,,,,blue,circle
152.0,1.0,1.0,0.0,4.0,4.0,366.1278619999848,1.0,1.0,phase_1,,,,,,,,,,,,,green,triangle
335.0,6.0,2.0,1.0,1.0,1.0,350.1097339999433,1.0,2.0,phase_1,,,,,,,,,,,,,gray,square
0.0,6.0,0.0,1.0,4.0,4.0,421.9240640002226,1.0,1.0,phase_1,,,,,,,,,,,,,gray,square
0.0,7.0,0.0,1.0,1.0,1.0,310.3004160000182,1.0,1.0,phase_1,,,,,,,,,,,,,magenta,hexagon
1292.0,4.0,4.0,0.0,2.0,2.0,359.1958459999205,1.0,1.0,phase_1,,,,,,,,,,,,,yellow,diamond
659.0,7.0,3.0,1.0,1.0,1.0,366.4768749999894,1.0,1.0,phase_1,,,,,,,,,,,,,magenta,hexagon
177.0,1.0,1.0,0.0,4.0,4.0,337.0565829998213,1.0,1.0,phase_1,,,,,,,,,,,,,green,triangle
0.0,8.0,0.0,1.0,1.0,1.0,262.111164000089,1.0,1.0,phase_1,,,,,,,,,,,,,white,flipped triangle
312.0,6.0,2.0,1.0,2.0,2.0,290.329832999987,1.0,1.0,phase_1,,,,,,,,,,,,,gray,square
1307.0,4.0,4.0,0.0,4.0,4.0,309.7001580001688,1.0,1.0,phase_1,,,,,,,,,,,,,yellow,diamond
660.0,7.0,3.0,1.0,2.0,2.0,365.5839139998988,1.0,1.0,phase_1,,,,,,,,,,,,,magenta,hexagon
0.0,8.0,0.0,1.0,1.0,1.0,562.11325199979,1.0,1.0,phase_1,,,,,,,,,,,,,white,flipped triangle
315.0,6.0,2.0,1.0,3.0,3.0,319.0646769999148,1.0,1.0,phase_1,,,,,,,,,,,,,gray,square
147.0,1.0,1.0,0.0,1.0,1.0,310.1981199999954,1.0,1.0,phase_1,,,,,,,,,,,,,green,triangle
326.0,6.0,2.0,1.0,3.0,3.0,403.8920339999094,1.0,1.0,phase_1,,,,,,,,,,,,,gray,square
648.0,3.0,3.0,0.0,4.0,4.0,384.3974630001412,1.0,1.0,phase_1,,,,,,,,,,,,,blue,circle
329.0,2.0,2.0,0.0,3.0,3.0,395.0134929998512,1.0,1.0,phase_1,,,,,,,,,,,,,cyan,I
643.0,7.0,3.0,1.0,2.0,2.0,356.715000999884,1.0,2.0,phase_1,,,,,,,,,,,,,magenta,hexagon
152.0,1.0,1.0,0.0,4.0,4.0,340.005906999977,1.0,1.0,phase_1,,,,,,,,,,,,,green,triangle
1292.0,8.0,4.0,1.0,3.0,3.0,685.223237999935,1.0,1.0,phase_1,,,,,,,,,,,,,white,flipped triangle
645.0,3.0,3.0,0.0,1.0,1.0,319.3195369999557,1.0,1.0,phase_1,,,,,,,,,,,,,blue,circle
179.0,5.0,1.0,1.0,2.0,2.0,404.3636869998863,1.0,1.0,phase_1,,,,,,,,,,,,,orange,cross
324.0,2.0,2.0,0.0,1.0,1.0,393.6705650000931,1.0,1.0,phase_1,,,,,,,,,,,,,cyan,I
0.0,5.0,0.0,1.0,1.0,1.0,394.425222999871,1.0,1.0,phase_1,,,,,,,,,,,,,orange,cross
302.0,6.0,2.0,1.0,1.0,1.0,319.6628179998697,1.0,1.0,phase_1,,,,,,,,,,,,,gray,square
309.0,2.0,2.0,0.0,3.0,3.0,597.470648999888,1.0,1.0,phase_1,,,,,,,,,,,,,cyan,I
1290.0,4.0,4.0,0.0,3.0,3.0,401.4046520001102,1.0,1.0,phase_1,,,,,,,,,,,,,yellow,diamond
1319.0,8.0,4.0,1.0,3.0,3.0,376.3912320000599,1.0,1.0,phase_1,,,,,,,,,,,,,white,flipped triangle
309.0,6.0,2.0,1.0,4.0,4.0,440.1787729998432,1.0,1.0,phase_1,,,,,,,,,,,,,gray,square
1303.0,8.0,4.0,1.0,4.0,4.0,440.0861230001283,1.0,1.0,phase_1,,,,,,,,,,,,,white,flipped triangle
328.0,6.0,2.0,1.0,3.0,3.0,485.5499780001082,1.0,1.0,phase_1,,,,,,,,,,,,,gray,square
0.0,8.0,0.0,1.0,3.0,3.0,364.7961149999901,1.0,1.0,phase_1,,,,,,,,,,,,,white,flipped triangle
348.0,6.0,2.0,1.0,3.0,3.0,346.1960390000058,1.0,1.0,phase_1,,,,,,,,,,,,,gray,square
628.0,7.0,3.0,1.0,1.0,1.0,308.9890580001793,1.0,1.0,phase_1,,,,,,,,,,,,,magenta,hexagon
1290.0,4.0,4.0,0.0,1.0,1.0,347.2539439999309,1.0,1.0,phase_1,,,,,,,,,,,,,yellow,diamond
177.0,5.0,1.0,1.0,4.0,4.0,309.0088119997745,1.0,1.0,phase_1,,,,,,,,,,,,,orange,cross
1281.0,4.0,4.0,0.0,4.0,4.0,384.9879229996986,1.0,1.0,phase_1,,,,,,,,,,,,,yellow,diamond
654.0,7.0,3.0,1.0,4.0,4.0,336.2616499998694,1.0,1.0,phase_1,,,,,,,,,,,,,magenta,hexagon
0.0,2.0,0.0,0.0,2.0,2.0,542.3178259998167,1.0,1.0,phase_1,,,,,,,,,,,,,cyan,I
0.0,1.0,0.0,0.0,3.0,3.0,309.6112220000577,1.0,1.0,phase_1,,,,,,,,,,,,,green,triangle
0.0,2.0,0.0,0.0,3.0,3.0,319.6057059999475,1.0,1.0,phase_1,,,,,,,,,,,,,cyan,I
0.0,4.0,0.0,0.0,4.0,4.0,355.6446820002747,1.0,1.0,phase_1,,,,,,,,,,,,,yellow,diamond
1310.0,8.0,4.0,1.0,1.0,1.0,309.5719799998733,1.0,1.0,phase_1,,,,,,,,,,,,,white,flipped triangle
638.0,3.0,3.0,0.0,3.0,3.0,402.3255829997652,1.0,1.0,phase_1,,,,,,,,,,,,,blue,circle
0.0,5.0,0.0,1.0,1.0,1.0,326.8762420002531,1.0,1.0,phase_1,,,,,,,,,,,,,orange,cross
151.0,1.0,1.0,0.0,1.0,1.0,355.3459610002392,1.0,1.0,phase_1,,,,,,,,,,,,,green,triangle
0.0,3.0,0.0,0.0,3.0,3.0,383.5100729997975,1.0,1.0,phase_1,,,,,,,,,,,,,blue,circle
179.0,5.0,1.0,1.0,4.0,4.0,327.1535540002332,1.0,1.0,phase_1,,,,,,,,,,,,,orange,cross
308.0,6.0,2.0,1.0,2.0,2.0,430.2287660002548,1.0,1.0,phase_1,,,,,,,,,,,,,gray,square
341.0,2.0,2.0,0.0,2.0,2.0,392.6394110003457,1.0,1.0,phase_1,,,,,,,,,,,,,cyan,I
0.0,4.0,0.0,0.0,2.0,2.0,430.8270870001252,1.0,1.0,phase_1,,,,,,,,,,,,,yellow,diamond
176.0,5.0,1.0,1.0,2.0,2.0,337.139813000249,1.0,1.0,phase_1,,,,,,,,,,,,,orange,cross
349.0,2.0,2.0,0.0,4.0,4.0,336.5054220003003,1.0,1.0,phase_1,,,,,,,,,,,,,cyan,I
1314.0,8.0,4.0,1.0,3.0,3.0,337.3254050002288,1.0,1.0,phase_1,,,,,,,,,,,,,white,flipped triangle
1284.0,4.0,4.0,0.0,4.0,4.0,458.0619379999007,1.0,1.0,phase_1,,,,,,,,,,,,,yellow,diamond
0.0,4.0,0.0,0.0,3.0,3.0,382.572011999855,1.0,1.0,phase_1,,,,,,,,,,,,,yellow,diamond
648.0,3.0,3.0,0.0,4.0,4.0,356.5939609998168,1.0,1.0,phase_1,,,,,,,,,,,,,blue,circle
167.0,5.0,1.0,1.0,4.0,4.0,364.7514899998896,1.0,1.0,phase_1,,,,,,,,,,,,,orange,cross
146.0,5.0,1.0,1.0,3.0,3.0,402.202994000163,1.0,1.0,phase_1,,,,,,,,,,,,,orange,cross
1306.0,8.0,4.0,1.0,2.0,2.0,497.9809249998652,2.0,1.0,phase_1,,,,,,,,,,,,,white,flipped triangle
316.0,6.0,2.0,1.0,4.0,4.0,300.1687390001279,2.0,1.0,phase_1,,,,,,,,,,,,,gray,square
0.0,1.0,0.0,0.0,1.0,1.0,290.8503490002658,2.0,1.0,phase_1,,,,,,,,,,,,,green,triangle
1319.0,8.0,4.0,1.0,2.0,2.0,295.0866179999138,2.0,1.0,phase_1,,,,,,,,,,,,,white,flipped triangle
163.0,5.0,1.0,1.0,1.0,1.0,272.9717990000608,2.0,1.0,phase_1,,,,,,,,,,,,,orange,cross
1294.0,8.0,4.0,1.0,2.0,2.0,355.2004940002007,2.0,1.0,phase_1,,,,,,,,,,,,,white,flipped triangle
0.0,1.0,0.0,0.0,4.0,4.0,403.2711380000364,2.0,1.0,phase_1,,,,,,,,,,,,,green,triangle
659.0,7.0,3.0,1.0,2.0,2.0,318.2090700001936,2.0,1.0,phase_1,,,,,,,,,,,,,magenta,hexagon
1277.0,8.0,4.0,1.0,3.0,3.0,337.5814159999208,2.0,1.0,phase_1,,,,,,,,,,,,,white,flipped triangle
1321.0,4.0,4.0,0.0,2.0,2.0,356.7580760000055,2.0,1.0,phase_1,,,,,,,,,,,,,yellow,diamond
0.0,1.0,0.0,0.0,4.0,4.0,290.8797300001424,2.0,1.0,phase_1,,,,,,,,,,,,,green,triangle
0.0,2.0,0.0,0.0,2.0,2.0,271.7928930001108,2.0,1.0,phase_1,,,,,,,,,,,,,cyan,I
0.0,4.0,0.0,0.0,3.0,3.0,309.4088200000442,2.0,1.0,phase_1,,,,,,,,,,,,,yellow,diamond
628.0,7.0,3.0,1.0,3.0,3.0,321.0923400001775,2.0,1.0,phase_1,,,,,,,,,,,,,magenta,hexagon
314.0,6.0,2.0,1.0,3.0,3.0,376.4004069998918,2.0,1.0,phase_1,,,,,,,,,,,,,gray,square
0.0,6.0,0.0,1.0,3.0,3.0,328.790447999836,2.0,1.0,phase_1,,,,,,,,,,,,,gray,square
648.0,7.0,3.0,1.0,1.0,1.0,422.6951500004361,2.0,1.0,phase_1,,,,,,,,,,,,,magenta,hexagon
0.0,4.0,0.0,0.0,4.0,4.0,384.8146249997626,2.0,1.0,phase_1,,,,,,,,,,,,,yellow,diamond
0.0,8.0,0.0,1.0,3.0,3.0,365.2020989998163,2.0,1.0,phase_1,,,,,,,,,,,,,white,flipped triangle
636.0,7.0,3.0,1.0,2.0,2.0,325.9668290002082,2.0,2.0,phase_1,,,,,,,,,,,,,magenta,hexagon
326.0,2.0,2.0,0.0,1.0,1.0,374.7985929999231,2.0,1.0,phase_1,,,,,,,,,,,,,cyan,I
146.0,1.0,1.0,0.0,4.0,4.0,348.2870289999482,2.0,1.0,phase_1,,,,,,,,,,,,,green,triangle
643.0,3.0,3.0,0.0,1.0,1.0,393.2450500001323,2.0,1.0,phase_1,,,,,,,,,,,,,blue,circle
1323.0,4.0,4.0,0.0,4.0,4.0,412.1570610000162,2.0,1.0,phase_1,,,,,,,,,,,,,yellow,diamond
1293.0,8.0,4.0,1.0,2.0,2.0,383.7061720000747,2.0,1.0,phase_1,,,,,,,,,,,,,white,flipped triangle
660.0,3.0,3.0,0.0,1.0,1.0,452.5850649997665,2.0,1.0,phase_1,,,,,,,,,,,,,blue,circle
180.0,1.0,1.0,0.0,4.0,4.0,319.079079000403,2.0,1.0,phase_1,,,,,,,,,,,,,green,triangle
164.0,5.0,1.0,1.0,2.0,2.0,384.1495930000747,2.0,1.0,phase_1,,,,,,,,,,,,,orange,cross
645.0,7.0,3.0,1.0,1.0,1.0,272.234975000174,2.0,1.0,phase_1,,,,,,,,,,,,,magenta,hexagon
671.0,7.0,3.0,1.0,4.0,4.0,384.9334850001469,2.0,1.0,phase_1,,,,,,,,,,,,,magenta,hexagon
0.0,3.0,0.0,0.0,4.0,4.0,384.6740349999891,2.0,1.0,phase_1,,,,,,,,,,,,,blue,circle
0.0,1.0,0.0,0.0,1.0,1.0,347.6545249995979,2.0,1.0,phase_1,,,,,,,,,,,,,green,triangle
1296.0,4.0,4.0,0.0,3.0,3.0,403.4654150000278,2.0,1.0,phase_1,,,,,,,,,,,,,yellow,diamond
654.0,3.0,3.0,0.0,4.0,4.0,309.2654110000694,2.0,1.0,phase_1,,,,,,,,,,,,,blue,circle
0.0,3.0,0.0,0.0,1.0,1.0,392.8347129999565,2.0,1.0,phase_1,,,,,,,,,,,,,blue,circle
1321.0,8.0,4.0,1.0,2.0,2.0,386.1136370001077,2.0,1.0,phase_1,,,,,,,,,,,,,white,flipped triangle
138.0,1.0,1.0,0.0,2.0,2.0,298.640601000443,2.0,1.0,phase_1,,,,,,,,,,,,,green,triangle
643.0,3.0,3.0,0.0,1.0,1.0,431.8003859998498,2.0,1.0,phase_1,,,,,,,,,,,,,blue,circle
332.0,2.0,2.0,0.0,2.0,2.0,337.9510340000706,2.0,1.0,phase_1,,,,,,,,,,,,,cyan,I
656.0,3.0,3.0,0.0,2.0,2.0,365.1185469998381,2.0,1.0,phase_1,,,,,,,,,,,,,blue,circle
0.0,4.0,0.0,0.0,2.0,2.0,365.445821999856,2.0,1.0,phase_1,,,,,,,,,,,,,yellow,diamond
180.0,5.0,1.0,1.0,4.0,4.0,374.0457440003411,2.0,1.0,phase_1,,,,,,,,,,,,,orange,cross
656.0,7.0,3.0,1.0,3.0,3.0,401.6665630001625,2.0,1.0,phase_1,,,,,,,,,,,,,magenta,hexagon
153.0,1.0,1.0,0.0,3.0,3.0,373.448425999868,2.0,1.0,phase_1,,,,,,,,,,,,,green,triangle
344.0,2.0,2.0,0.0,4.0,4.0,310.0928549997661,2.0,1.0,phase_1,,,,,,,,,,,,,cyan,I
1289.0,8.0,4.0,1.0,4.0,4.0,374.3983090002984,2.0,1.0,phase_1,,,,,,,,,,,,,white,flipped triangle
173.0,1.0,1.0,0.0,1.0,1.0,329.2483370000809,2.0,3.0,phase_1,,,,,,,,,,,,,green,triangle
170.0,5.0,1.0,1.0,1.0,1.0,337.7180489997045,2.0,1.0,phase_1,,,,,,,,,,,,,orange,cross
672.0,3.0,3.0,0.0,1.0,1.0,338.0597640002634,2.0,1.0,phase_1,,,,,,,,,,,,,blue,circle
0.0,7.0,0.0,1.0,3.0,3.0,544.4252870001947,2.0,1.0,phase_1,,,,,,,,,,,,,magenta,hexagon
323.0,2.0,2.0,0.0,3.0,3.0,422.0206249997318,2.0,1.0,phase_1,,,,,,,,,,,,,cyan,I
674.0,7.0,3.0,1.0,3.0,3.0,366.6281929999968,2.0,1.0,phase_1,,,,,,,,,,,,,magenta,hexagon
346.0,6.0,2.0,1.0,1.0,1.0,366.6389049999452,2.0,1.0,phase_1,,,,,,,,,,,,,gray,square
648.0,7.0,3.0,1.0,4.0,4.0,270.4974369999036,2.0,1.0,phase_1,,,,,,,,,,,,,magenta,hexagon
642.0,3.0,3.0,0.0,2.0,2.0,310.2820259996406,2.0,1.0,phase_1,,,,,,,,,,,,,blue,circle
349.0,6.0,2.0,1.0,3.0,3.0,300.3673460002574,2.0,1.0,phase_1,,,,,,,,,,,,,gray,square
160.0,5.0,1.0,1.0,1.0,1.0,261.957958000039,2.0,1.0,phase_1,,,,,,,,,,,,,orange,cross
170.0,1.0,1.0,0.0,2.0,2.0,346.9420199999149,2.0,1.0,phase_1,,,,,,,,,,,,,green,triangle
171.0,5.0,1.0,1.0,3.0,3.0,329.5362090002527,2.0,1.0,phase_1,,,,,,,,,,,,,orange,cross
312.0,2.0,2.0,0.0,1.0,1.0,253.24292200002668,2.0,1.0,phase_1,,,,,,,,,,,,,cyan,I
335.0,6.0,2.0,1.0,2.0,2.0,337.4087389997839,2.0,1.0,phase_1,,,,,,,,,,,,,gray,square
662.0,7.0,3.0,1.0,2.0,2.0,356.8332360000568,2.0,1.0,phase_1,,,,,,,,,,,,,magenta,hexagon
324.0,2.0,2.0,0.0,1.0,1.0,374.5601649998207,2.0,2.0,phase_1,,,,,,,,,,,,,cyan,I
1277.0,4.0,4.0,0.0,1.0,1.0,364.9079510000774,2.0,1.0,phase_1,,,,,,,,,,,,,yellow,diamond
638.0,7.0,3.0,1.0,4.0,4.0,515.3843670000242,2.0,1.0,phase_1,,,,,,,,,,,,,magenta,hexagon
661.0,3.0,3.0,0.0,3.0,3.0,412.700918000155,2.0,1.0,phase_1,,,,,,,,,,,,,blue,circle
660.0,3.0,3.0,0.0,2.0,2.0,291.9354000000567,2.0,1.0,phase_1,,,,,,,,,,,,,blue,circle
1289.0,8.0,4.0,1.0,1.0,1.0,300.3855079996356,2.0,1.0,phase_1,,,,,,,,,,,,,white,flipped triangle
1311.0,4.0,4.0,0.0,2.0,2.0,356.8622069997218,2.0,1.0,phase_1,,,,,,,,,,,,,yellow,diamond
1283.0,4.0,4.0,0.0,1.0,1.0,281.5623090000372,2.0,1.0,phase_1,,,,,,,,,,,,,yellow,diamond
666.0,3.0,3.0,0.0,3.0,3.0,392.4649559999125,2.0,1.0,phase_1,,,,,,,,,,,,,blue,circle
0.0,5.0,0.0,1.0,4.0,4.0,347.8079440001238,2.0,1.0,phase_1,,,,,,,,,,,,,orange,cross
0.0,8.0,0.0,1.0,2.0,2.0,383.6638859997947,2.0,1.0,phase_1,,,,,,,,,,,,,white,flipped triangle
629.0,3.0,3.0,0.0,3.0,3.0,392.8122160000384,2.0,1.0,phase_1,,,,,,,,,,,,,blue,circle
1299.0,4.0,4.0,0.0,2.0,2.0,327.1995539998897,2.0,1.0,phase_1,,,,,,,,,,,,,yellow,diamond
142.0,5.0,1.0,1.0,2.0,2.0,328.6048710001523,2.0,1.0,phase_1,,,,,,,,,,,,,orange,cross
642.0,7.0,3.0,1.0,3.0,3.0,412.0924939998076,2.0,1.0,phase_1,,,,,,,,,,,,,magenta,hexagon
0.0,1.0,0.0,0.0,1.0,1.0,346.2426850001066,2.0,1.0,phase_1,,,,,,,,,,,,,green,triangle
1299.0,4.0,4.0,0.0,3.0,3.0,421.2193849998584,2.0,1.0,phase_1,,,,,,,,,,,,,yellow,diamond
0.0,3.0,0.0,0.0,1.0,1.0,411.009765000017,2.0,1.0,phase_1,,,,,,,,,,,,,blue,circle
173.0,5.0,1.0,1.0,1.0,1.0,401.8933870002001,2.0,1.0,phase_1,,,,,,,,,,,,,orange,cross
1303.0,4.0,4.0,0.0,3.0,3.0,438.537608000388,2.0,1.0,phase_1,,,,,,,,,,,,,yellow,diamond
173.0,5.0,1.0,1.0,2.0,2.0,336.4039799998863,2.0,1.0,phase_1,,,,,,,,,,,,,orange,cross
629.0,3.0,3.0,0.0,4.0,4.0,317.7521419997902,2.0,1.0,phase_1,,,,,,,,,,,,,blue,circle
306.0,2.0,2.0,0.0,3.0,3.0,355.3314320001846,2.0,1.0,phase_1,,,,,,,,,,,,,cyan,I
0.0,3.0,0.0,0.0,2.0,2.0,317.5706249999166,2.0,1.0,phase_1,,,,,,,,,,,,,blue,circle
153.0,5.0,1.0,1.0,2.0,2.0,374.4160019996343,2.0,1.0,phase_1,,,,,,,,,,,,,orange,cross
666.0,7.0,3.0,1.0,2.0,2.0,347.8099149997433,2.0,1.0,phase_1,,,,,,,,,,,,,magenta,hexagon
315.0,2.0,2.0,0.0,1.0,1.0,365.2895320001335,2.0,2.0,phase_1,,,,,,,,,,,,,cyan,I
1290.0,8.0,4.0,1.0,3.0,3.0,430.4214849998971,2.0,1.0,phase_1,,,,,,,,,,,,,white,flipped triangle
172.0,5.0,1.0,1.0,1.0,1.0,587.9695809999248,2.0,1.0,phase_1,,,,,,,,,,,,,orange,cross
142.0,1.0,1.0,0.0,3.0,3.0,374.6998540000277,2.0,1.0,phase_1,,,,,,,,,,,,,green,triangle
1308.0,4.0,4.0,0.0,1.0,1.0,346.4393279996329,2.0,1.0,phase_1,,,,,,,,,,,,,yellow,diamond
1321.0,8.0,4.0,1.0,3.0,3.0,431.4661260000321,2.0,1.0,phase_1,,,,,,,,,,,,,white,flipped triangle
1299.0,8.0,4.0,1.0,1.0,1.0,712.289864000013,2.0,1.0,phase_1,,,,,,,,,,,,,white,flipped triangle
177.0,1.0,1.0,0.0,4.0,4.0,393.9370819998657,2.0,1.0,phase_1,,,,,,,,,,,,,green,triangle
1294.0,4.0,4.0,0.0,3.0,3.0,337.5260799998614,2.0,1.0,phase_1,,,,,,,,,,,,,yellow,diamond
346.0,2.0,2.0,0.0,4.0,4.0,392.3440790003951,2.0,1.0,phase_1,,,,,,,,,,,,,cyan,I
660.0,7.0,3.0,1.0,4.0,4.0,441.3690119999955,2.0,1.0,phase_1,,,,,,,,,,,,,magenta,hexagon
650.0,3.0,3.0,0.0,1.0,1.0,365.937402000327,2.0,1.0,phase_1,,,,,,,,,,,,,blue,circle
306.0,6.0,2.0,1.0,1.0,1.0,365.5090830002336,3.0,1.0,phase_1,,,,,,,,,,,,,gray,square
1289.0,4.0,4.0,0.0,1.0,1.0,280.5934509997314,3.0,1.0,phase_1,,,,,,,,,,,,,yellow,diamond
0.0,2.0,0.0,0.0,2.0,2.0,571.1427750002258,3.0,1.0,phase_1,,,,,,,,,,,,,cyan,I
318.0,2.0,2.0,0.0,2.0,2.0,337.367218000054,3.0,1.0,phase_1,,,,,,,,,,,,,cyan,I
0.0,2.0,0.0,0.0,1.0,1.0,319.2256940001243,3.0,1.0,phase_1,,,,,,,,,,,,,cyan,I
1312.0,8.0,4.0,1.0,4.0,4.0,636.3631280000845,3.0,1.0,phase_1,,,,,,,,,,,,,white,flipped triangle
666.0,7.0,3.0,1.0,4.0,4.0,450.1482750001742,3.0,1.0,phase_1,,,,,,,,,,,,,magenta,hexagon
648.0,3.0,3.0,0.0,4.0,4.0,421.8023749999702,3.0,1.0,phase_1,,,,,,,,,,,,,blue,circle
628.0,3.0,3.0,0.0,2.0,2.0,356.5734099997826,3.0,1.0,phase_1,,,,,,,,,,,,,blue,circle
1287.0,4.0,4.0,0.0,3.0,3.0,626.5291159998014,3.0,1.0,phase_1,,,,,,,,,,,,,yellow,diamond
662.0,3.0,3.0,0.0,2.0,2.0,504.87998099970355,3.0,1.0,phase_1,,,,,,,,,,,,,blue,circle
179.0,1.0,1.0,0.0,1.0,1.0,290.9559880004053,3.0,1.0,phase_1,,,,,,,,,,,,,green,triangle
335.0,2.0,2.0,0.0,2.0,2.0,308.9574250002442,3.0,1.0,phase_1,,,,,,,,,,,,,cyan,I
333.0,2.0,2.0,0.0,4.0,4.0,348.4366090001458,3.0,1.0,phase_1,,,,,,,,,,,,,cyan,I
0.0,7.0,0.0,1.0,3.0,3.0,328.5615660001895,3.0,1.0,phase_1,,,,,,,,,,,,,magenta,hexagon
328.0,6.0,2.0,1.0,2.0,2.0,271.6141450000577,3.0,1.0,phase_1,,,,,,,,,,,,,gray,square
631.0,3.0,3.0,0.0,3.0,3.0,439.0579619998789,3.0,1.0,phase_1,,,,,,,,,,,,,blue,circle
1279.0,4.0,4.0,0.0,1.0,1.0,262.4741419999736,3.0,1.0,phase_1,,,,,,,,,,,,,yellow,diamond
156.0,5.0,1.0,1.0,1.0,1.0,402.9969719999826,3.0,1.0,phase_1,,,,,,,,,,,,,orange,cross
671.0,3.0,3.0,0.0,2.0,2.0,524.7194520002267,3.0,2.0,phase_1,,,,,,,,,,,,,blue,circle
152.0,5.0,1.0,1.0,1.0,1.0,337.1497869998165,3.0,1.0,phase_1,,,,,,,,,,,,,orange,cross
147.0,5.0,1.0,1.0,1.0,1.0,365.3272529995774,3.0,1.0,phase_1,,,,,,,,,,,,,orange,cross
0.0,8.0,0.0,1.0,4.0,4.0,544.5493450001777,3.0,1.0,phase_1,,,,,,,,,,,,,white,flipped triangle
1319.0,4.0,4.0,0.0,2.0,2.0,337.9856079995988,3.0,1.0,phase_1,,,,,,,,,,,,,yellow,diamond
152.0,5.0,1.0,1.0,4.0,4.0,506.3062610001907,3.0,1.0,phase_1,,,,,,,,,,,,,orange,cross
0.0,2.0,0.0,0.0,4.0,4.0,411.6086310000355,3.0,1.0,phase_1,,,,,,,,,,,,,cyan,I
329.0,6.0,2.0,1.0,4.0,4.0,402.8997169998547,3.0,1.0,phase_1,,,,,,,,,,,,,gray,square
0.0,7.0,0.0,1.0,2.0,2.0,300.1593170001797,3.0,1.0,phase_1,,,,,,,,,,,,,magenta,hexagon
650.0,7.0,3.0,1.0,1.0,1.0,355.4312010001013,3.0,1.0,phase_1,,,,,,,,,,,,,magenta,hexagon
0.0,7.0,0.0,1.0,4.0,4.0,393.0072210000617,3.0,1.0,phase_1,,,,,,,,,,,,,magenta,hexagon
628.0,3.0,3.0,0.0,4.0,4.0,430.3396210002574,3.0,1.0,phase_1,,,,,,,,,,,,,blue,circle
659.0,3.0,3.0,0.0,3.0,3.0,515.4064440002912,3.0,1.0,phase_1,,,,,,,,,,,,,blue,circle
146.0,5.0,1.0,1.0,2.0,2.0,356.1864240000432,3.0,1.0,phase_1,,,,,,,,,,,,,orange,cross
0.0,5.0,0.0,1.0,3.0,3.0,438.7809950003429,3.0,1.0,phase_1,,,,,,,,,,,,,orange,cross
346.0,2.0,2.0,0.0,4.0,4.0,411.8093720003344,3.0,1.0,phase_1,,,,,,,,,,,,,cyan,I
1303.0,8.0,4.0,1.0,3.0,3.0,402.8564919999553,3.0,1.0,phase_1,,,,,,,,,,,,,white,flipped triangle
1314.0,4.0,4.0,0.0,2.0,2.0,308.445367999866,3.0,1.0,phase_1,,,,,,,,,,,,,yellow,diamond
0.0,3.0,0.0,0.0,4.0,4.0,403.1632559999707,3.0,1.0,phase_1,,,,,,,,,,,,,blue,circle
629.0,7.0,3.0,1.0,1.0,1.0,299.8428790001526,3.0,1.0,phase_1,,,,,,,,,,,,,magenta,hexagon
1312.0,4.0,4.0,0.0,1.0,1.0,309.8253729999669,3.0,1.0,phase_1,,,,,,,,,,,,,yellow,diamond
1283.0,4.0,4.0,0.0,2.0,2.0,281.5465970002151,3.0,1.0,phase_1,,,,,,,,,,,,,yellow,diamond
146.0,1.0,1.0,0.0,2.0,2.0,327.6548919998276,3.0,1.0,phase_1,,,,,,,,,,,,,green,triangle
661.0,7.0,3.0,1.0,2.0,2.0,299.2682100002639,3.0,1.0,phase_1,,,,,,,,,,,,,magenta,hexagon
300.0,2.0,2.0,0.0,2.0,2.0,318.5471100000541,3.0,1.0,phase_1,,,,,,,,,,,,,cyan,I
343.0,6.0,2.0,1.0,1.0,1.0,403.4296710001399,3.0,1.0,phase_1,,,,,,,,,,,,,gray,square
1281.0,8.0,4.0,1.0,4.0,4.0,338.5224519997791,3.0,1.0,phase_1,,,,,,,,,,,,,white,flipped triangle
156.0,1.0,1.0,0.0,1.0,1.0,432.3095670001748,3.0,1.0,phase_1,,,,,,,,,,,,,green,triangle
344.0,6.0,2.0,1.0,2.0,2.0,243.4888729999329,3.0,1.0,phase_1,,,,,,,,,,,,,gray,square
166.0,1.0,1.0,0.0,2.0,2.0,355.111190000116,3.0,1.0,phase_1,,,,,,,,,,,,,green,triangle
0.0,6.0,0.0,1.0,2.0,2.0,366.1951469998712,3.0,1.0,phase_1,,,,,,,,,,,,,gray,square
151.0,5.0,1.0,1.0,4.0,4.0,347.3789219997343,3.0,1.0,phase_1,,,,,,,,,,,,,orange,cross
1307.0,8.0,4.0,1.0,4.0,4.0,524.0258359999643,3.0,2.0,phase_1,,,,,,,,,,,,,white,flipped triangle
170.0,1.0,1.0,0.0,3.0,3.0,432.1515419997013,3.0,2.0,phase_1,,,,,,,,,,,,,green,triangle
346.0,6.0,2.0,1.0,2.0,2.0,310.0050520001787,3.0,1.0,phase_1,,,,,,,,,,,,,gray,square
674.0,3.0,3.0,0.0,1.0,1.0,317.3218080000879,3.0,1.0,phase_1,,,,,,,,,,,,,blue,circle
0.0,8.0,0.0,1.0,2.0,2.0,327.7928619995691,3.0,1.0,phase_1,,,,,,,,,,,,,white,flipped triangle
314.0,6.0,2.0,1.0,2.0,2.0,346.8144260000372,3.0,1.0,phase_1,,,,,,,,,,,,,gray,square
328.0,2.0,2.0,0.0,1.0,1.0,664.5020040000418,3.0,1.0,phase_1,,,,,,,,,,,,,cyan,I
0.0,1.0,0.0,0.0,4.0,4.0,339.4025679999686,3.0,1.0,phase_1,,,,,,,,,,,,,green,triangle
1303.0,8.0,4.0,1.0,2.0,2.0,262.4486990002879,3.0,1.0,phase_1,,,,,,,,,,,,,white,flipped triangle
628.0,7.0,3.0,1.0,3.0,3.0,347.3200450002878,3.0,1.0,phase_1,,,,,,,,,,,,,magenta,hexagon
0.0,5.0,0.0,1.0,4.0,4.0,383.9697200000955,3.0,1.0,phase_1,,,,,,,,,,,,,orange,cross
333.0,2.0,2.0,0.0,1.0,1.0,355.3006320003078,3.0,1.0,phase_1,,,,,,,,,,,,,cyan,I
651.0,7.0,3.0,1.0,3.0,3.0,505.8077769999727,3.0,1.0,phase_1,,,,,,,,,,,,,magenta,hexagon
186.0,5.0,1.0,1.0,4.0,4.0,411.2882719996378,3.0,1.0,phase_1,,,,,,,,,,,,,orange,cross
158.0,1.0,1.0,0.0,2.0,2.0,431.2913300000218,3.0,1.0,phase_1,,,,,,,,,,,,,green,triangle
318.0,2.0,2.0,0.0,2.0,2.0,364.4889649999641,3.0,1.0,phase_1,,,,,,,,,,,,,cyan,I
345.0,2.0,2.0,0.0,2.0,2.0,338.2576429999062,3.0,1.0,phase_1,,,,,,,,,,,,,cyan,I
648.0,7.0,3.0,1.0,3.0,3.0,506.34125800024776,3.0,1.0,phase_1,,,,,,,,,,,,,magenta,hexagon
169.0,5.0,1.0,1.0,3.0,3.0,440.5336489999172,3.0,1.0,phase_1,,,,,,,,,,,,,orange,cross
180.0,5.0,1.0,1.0,1.0,1.0,440.6913689999783,3.0,1.0,phase_1,,,,,,,,,,,,,orange,cross
0.0,1.0,0.0,0.0,4.0,4.0,365.0322599996798,3.0,1.0,phase_1,,,,,,,,,,,,,green,triangle
1287.0,8.0,4.0,1.0,2.0,2.0,300.7233749999614,3.0,1.0,phase_1,,,,,,,,,,,,,white,flipped triangle
312.0,2.0,2.0,0.0,2.0,2.0,710.8147049998479,3.0,1.0,phase_1,,,,,,,,,,,,,cyan,I
1323.0,4.0,4.0,0.0,3.0,3.0,525.2924989999883,3.0,1.0,phase_1,,,,,,,,,,,,,yellow,diamond
651.0,3.0,3.0,0.0,3.0,3.0,393.8637010001002,3.0,1.0,phase_1,,,,,,,,,,,,,blue,circle
1293.0,4.0,4.0,0.0,4.0,4.0,367.3256749998472,3.0,1.0,phase_1,,,,,,,,,,,,,yellow,diamond
637.0,3.0,3.0,0.0,2.0,2.0,394.5339759998205,3.0,1.0,phase_1,,,,,,,,,,,,,blue,circle
1290.0,8.0,4.0,1.0,1.0,1.0,413.1033680000655,3.0,1.0,phase_1,,,,,,,,,,,,,white,flipped triangle
137.0,5.0,1.0,1.0,1.0,1.0,366.5206219998254,3.0,1.0,phase_1,,,,,,,,,,,,,orange,cross
659.0,3.0,3.0,0.0,2.0,2.0,346.9678809997276,3.0,1.0,phase_1,,,,,,,,,,,,,blue,circle
1296.0,8.0,4.0,1.0,2.0,2.0,402.6316690001295,3.0,1.0,phase_1,,,,,,,,,,,,,white,flipped triangle
315.0,6.0,2.0,1.0,2.0,2.0,486.9820359999721,3.0,1.0,phase_1,,,,,,,,,,,,,gray,square
1292.0,4.0,4.0,0.0,1.0,1.0,392.4908069998309,3.0,1.0,phase_1,,,,,,,,,,,,,yellow,diamond
1319.0,4.0,4.0,0.0,3.0,3.0,468.5229249998883,3.0,1.0,phase_1,,,,,,,,,,,,,yellow,diamond
166.0,5.0,1.0,1.0,4.0,4.0,402.727245999813,3.0,1.0,phase_1,,,,,,,,,,,,,orange,cross
167.0,1.0,1.0,0.0,4.0,4.0,525.1444850000553,3.0,1.0,phase_1,,,,,,,,,,,,,green,triangle
323.0,6.0,2.0,1.0,2.0,2.0,375.2746079999269,3.0,1.0,phase_1,,,,,,,,,,,,,gray,square
158.0,5.0,1.0,1.0,3.0,3.0,384.0745229999811,3.0,1.0,phase_1,,,,,,,,,,,,,orange,cross
348.0,2.0,2.0,0.0,1.0,1.0,309.9804640000911,3.0,2.0,phase_1,,,,,,,,,,,,,cyan,I
0.0,7.0,0.0,1.0,1.0,1.0,357.1955259999413,3.0,1.0,phase_1,,,,,,,,,,,,,magenta,hexagon
173.0,1.0,1.0,0.0,3.0,3.0,431.9307989999288,3.0,1.0,phase_1,,,,,,,,,,,,,green,triangle
0.0,7.0,0.0,1.0,1.0,1.0,532.9530980002346,3.0,1.0,phase_1,,,,,,,,,,,,,magenta,hexagon
671.0,7.0,3.0,1.0,3.0,3.0,318.9905750000434,3.0,1.0,phase_1,,,,,,,,,,,,,magenta,hexagon
0.0,1.0,0.0,0.0,3.0,3.0,357.9556479999155,3.0,1.0,phase_1,,,,,,,,,,,,,green,triangle
315.0,2.0,2.0,0.0,3.0,3.0,346.7601160000413,3.0,1.0,phase_1,,,,,,,,,,,,,cyan,I
0.0,4.0,0.0,0.0,4.0,4.0,366.3787680002315,3.0,1.0,phase_1,,,,,,,,,,,,,yellow,diamond
1286.0,4.0,4.0,0.0,2.0,2.0,384.2718500000046,3.0,1.0,phase_1,,,,,,,,,,,,,yellow,diamond
643.0,7.0,3.0,1.0,1.0,1.0,347.3609610000494,3.0,1.0,phase_1,,,,,,,,,,,,,magenta,hexagon
0.0,6.0,0.0,1.0,1.0,1.0,385.1150629998301,3.0,1.0,phase_1,,,,,,,,,,,,,gray,square
671.0,7.0,3.0,1.0,3.0,3.0,469.2240429999401,4.0,1.0,phase_1,,,,,,,,,,,,,magenta,hexagon
184.0,1.0,1.0,0.0,4.0,4.0,367.0308470000236,4.0,1.0,phase_1,,,,,,,,,,,,,green,triangle
333.0,6.0,2.0,1.0,2.0,2.0,347.9225679998308,4.0,1.0,phase_1,,,,,,,,,,,,,gray,square
171.0,1.0,1.0,0.0,2.0,2.0,299.2842840003504,4.0,1.0,phase_1,,,,,,,,,,,,,green,triangle
1310.0,4.0,4.0,0.0,4.0,4.0,609.3711710000207,4.0,1.0,phase_1,,,,,,,,,,,,,yellow,diamond
0.0,6.0,0.0,1.0,2.0,2.0,310.2377390000583,4.0,1.0,phase_1,,,,,,,,,,,,,gray,square
1303.0,4.0,4.0,0.0,3.0,3.0,338.4008689999973,4.0,1.0,phase_1,,,,,,,,,,,,,yellow,diamond
1303.0,4.0,4.0,0.0,4.0,4.0,377.1636469996338,4.0,1.0,phase_1,,,,,,,,,,,,,yellow,diamond
335.0,2.0,2.0,0.0,3.0,3.0,384.3001589998494,4.0,1.0,phase_1,,,,,,,,,,,,,cyan,I
0.0,5.0,0.0,1.0,1.0,1.0,403.4380909997708,4.0,1.0,phase_1,,,,,,,,,,,,,orange,cross
142.0,1.0,1.0,0.0,1.0,1.0,346.6831430000638,4.0,1.0,phase_1,,,,,,,,,,,,,green,triangle
165.0,1.0,1.0,0.0,1.0,1.0,375.3595940002014,4.0,1.0,phase_1,,,,,,,,,,,,,green,triangle
0.0,7.0,0.0,1.0,1.0,1.0,478.8651250000839,4.0,1.0,phase_1,,,,,,,,,,,,,magenta,hexagon
1279.0,8.0,4.0,1.0,3.0,3.0,403.9002170002277,4.0,1.0,phase_1,,,,,,,,,,,,,white,flipped triangle
1319.0,4.0,4.0,0.0,4.0,4.0,395.0488710001991,4.0,1.0,phase_1,,,,,,,,,,,,,yellow,diamond
1307.0,8.0,4.0,1.0,2.0,2.0,385.6736999996428,4.0,1.0,phase_1,,,,,,,,,,,,,white,flipped triangle
334.0,6.0,2.0,1.0,3.0,3.0,327.8572570002325,4.0,1.0,phase_1,,,,,,,,,,,,,gray,square
629.0,7.0,3.0,1.0,4.0,4.0,414.0968940000675,4.0,1.0,phase_1,,,,,,,,,,,,,magenta,hexagon
339.0,6.0,2.0,1.0,4.0,4.0,375.9418750000804,4.0,1.0,phase_1,,,,,,,,,,,,,gray,square
0.0,5.0,0.0,1.0,4.0,4.0,347.778783999729,4.0,1.0,phase_1,,,,,,,,,,,,,orange,cross
1283.0,8.0,4.0,1.0,1.0,1.0,413.7900269997772,4.0,1.0,phase_1,,,,,,,,,,,,,white,flipped triangle
633.0,3.0,3.0,0.0,3.0,3.0,420.3451700000187,4.0,1.0,phase_1,,,,,,,,,,,,,blue,circle
666.0,7.0,3.0,1.0,4.0,4.0,384.4828340002095,4.0,1.0,phase_1,,,,,,,,,,,,,magenta,hexagon
137.0,5.0,1.0,1.0,2.0,2.0,394.5870269999432,4.0,1.0,phase_1,,,,,,,,,,,,,orange,cross
151.0,5.0,1.0,1.0,4.0,4.0,392.2067050002624,4.0,1.0,phase_1,,,,,,,,,,,,,orange,cross
177.0,5.0,1.0,1.0,3.0,3.0,385.2934599999571,4.0,1.0,phase_1,,,,,,,,,,,,,orange,cross
341.0,6.0,2.0,1.0,4.0,4.0,339.7029099996871,4.0,1.0,phase_1,,,,,,,,,,,,,gray,square
140.0,5.0,1.0,1.0,3.0,3.0,262.6090759999897,4.0,1.0,phase_1,,,,,,,,,,,,,orange,cross
1279.0,4.0,4.0,0.0,3.0,3.0,319.9320670000816,4.0,1.0,phase_1,,,,,,,,,,,,,yellow,diamond
671.0,3.0,3.0,0.0,4.0,4.0,338.0649890000313,4.0,1.0,phase_1,,,,,,,,,,,,,blue,circle
332.0,6.0,2.0,1.0,1.0,1.0,450.2229390000138,4.0,1.0,phase_1,,,,,,,,,,,,,gray,square
0.0,8.0,0.0,1.0,1.0,1.0,441.3667980002174,4.0,1.0,phase_1,,,,,,,,,,,,,white,flipped triangle
333.0,6.0,2.0,1.0,3.0,3.0,310.3639769997244,4.0,1.0,phase_1,,,,,,,,,,,,,gray,square
1312.0,8.0,4.0,1.0,2.0,2.0,309.7398309996606,4.0,1.0,phase_1,,,,,,,,,,,,,white,flipped triangle
0.0,4.0,0.0,0.0,3.0,3.0,421.6736210000817,4.0,1.0,phase_1,,,,,,,,,,,,,yellow,diamond
318.0,6.0,2.0,1.0,4.0,4.0,420.7935370000086,4.0,1.0,phase_1,,,,,,,,,,,,,gray,square
669.0,7.0,3.0,1.0,4.0,4.0,366.2968429998727,4.0,1.0,phase_1,,,,,,,,,,,,,magenta,hexagon
651.0,7.0,3.0,1.0,2.0,2.0,310.3764390002652,4.0,1.0,phase_1,,,,,,,,,,,,,magenta,hexagon
186.0,1.0,1.0,0.0,2.0,2.0,301.3468789999933,4.0,1.0,phase_1,,,,,,,,,,,,,green,triangle
0.0,6.0,0.0,1.0,4.0,4.0,394.2325759999221,4.0,1.0,phase_1,,,,,,,,,,,,,gray,square
320.0,6.0,2.0,1.0,4.0,4.0,366.1587550000149,4.0,1.0,phase_1,,,,,,,,,,,,,gray,square
324.0,6.0,2.0,1.0,4.0,4.0,347.8911440001866,4.0,1.0,phase_1,,,,,,,,,,,,,gray,square
314.0,2.0,2.0,0.0,4.0,4.0,404.1344150000441,4.0,1.0,phase_1,,,,,,,,,,,,,cyan,I
170.0,5.0,1.0,1.0,3.0,3.0,328.8378390002435,4.0,1.0,phase_1,,,,,,,,,,,,,orange,cross
300.0,6.0,2.0,1.0,1.0,1.0,281.2478110004122,4.0,2.0,phase_1,,,,,,,,,,,,,gray,square
0.0,5.0,0.0,1.0,1.0,1.0,394.7969569999259,4.0,1.0,phase_1,,,,,,,,,,,,,orange,cross
312.0,2.0,2.0,0.0,2.0,2.0,348.3514230001674,4.0,1.0,phase_1,,,,,,,,,,,,,cyan,I
637.0,7.0,3.0,1.0,1.0,1.0,395.4266989999269,4.0,1.0,phase_1,,,,,,,,,,,,,magenta,hexagon
0.0,2.0,0.0,0.0,3.0,3.0,347.2193510001489,4.0,1.0,phase_1,,,,,,,,,,,,,cyan,I
308.0,2.0,2.0,0.0,3.0,3.0,404.0178929999456,4.0,1.0,phase_1,,,,,,,,,,,,,cyan,I
636.0,3.0,3.0,0.0,4.0,4.0,357.1773230000872,4.0,1.0,phase_1,,,,,,,,,,,,,blue,circle
1290.0,8.0,4.0,1.0,3.0,3.0,347.6528500000313,4.0,1.0,phase_1,,,,,,,,,,,,,white,flipped triangle
0.0,6.0,0.0,1.0,4.0,4.0,440.4537209998125,4.0,1.0,phase_1,,,,,,,,,,,,,gray,square
1312.0,4.0,4.0,0.0,4.0,4.0,365.9235459999763,4.0,1.0,phase_1,,,,,,,,,,,,,yellow,diamond
324.0,6.0,2.0,1.0,4.0,4.0,375.948311999764,4.0,1.0,phase_1,,,,,,,,,,,,,gray,square
0.0,5.0,0.0,1.0,3.0,3.0,338.6536630000591,4.0,1.0,phase_1,,,,,,,,,,,,,orange,cross
0.0,7.0,0.0,1.0,3.0,3.0,367.0661380001547,4.0,1.0,phase_1,,,,,,,,,,,,,magenta,hexagon
1292.0,8.0,4.0,1.0,1.0,1.0,579.690514000049,4.0,1.0,phase_1,,,,,,,,,,,,,white,flipped triangle
1308.0,8.0,4.0,1.0,4.0,4.0,430.7055700001001,4.0,1.0,phase_1,,,,,,,,,,,,,white,flipped triangle
312.0,6.0,2.0,1.0,3.0,3.0,348.3972240001094,4.0,1.0,phase_1,,,,,,,,,,,,,gray,square
0.0,2.0,0.0,0.0,4.0,4.0,440.4282190002959,4.0,1.0,phase_1,,,,,,,,,,,,,cyan,I
140.0,1.0,1.0,0.0,3.0,3.0,439.8009390001789,4.0,1.0,phase_1,,,,,,,,,,,,,green,triangle
1311.0,8.0,4.0,1.0,4.0,4.0,402.1874650002246,4.0,1.0,phase_1,,,,,,,,,,,,,white,flipped triangle
312.0,6.0,2.0,1.0,3.0,3.0,355.789463000292,4.0,1.0,phase_1,,,,,,,,,,,,,gray,square
151.0,1.0,1.0,0.0,3.0,3.0,327.2102200003246,4.0,1.0,phase_1,,,,,,,,,,,,,green,triangle
0.0,5.0,0.0,1.0,2.0,2.0,347.1407259999068,4.0,1.0,phase_1,,,,,,,,,,,,,orange,cross
169.0,1.0,1.0,0.0,2.0,2.0,356.5564579998863,4.0,1.0,phase_1,,,,,,,,,,,,,green,triangle
631.0,7.0,3.0,1.0,1.0,1.0,467.6272109995807,4.0,2.0,phase_1,,,,,,,,,,,,,magenta,hexagon
1284.0,8.0,4.0,1.0,1.0,1.0,375.1532730002509,4.0,1.0,phase_1,,,,,,,,,,,,,white,flipped triangle
0.0,4.0,0.0,0.0,2.0,2.0,337.3332249998384,4.0,1.0,phase_1,,,,,,,,,,,,,yellow,diamond
1323.0,8.0,4.0,1.0,4.0,4.0,422.3048670000935,4.0,1.0,phase_1,,,,,,,,,,,,,white,flipped triangle
1279.0,8.0,4.0,1.0,4.0,4.0,422.7164280000579,4.0,1.0,phase_1,,,,,,,,,,,,,white,flipped triangle
651.0,3.0,3.0,0.0,4.0,4.0,430.9532770002988,4.0,1.0,phase_1,,,,,,,,,,,,,blue,circle
643.0,7.0,3.0,1.0,4.0,4.0,364.8585549999552,4.0,1.0,phase_1,,,,,,,,,,,,,magenta,hexagon
180.0,1.0,1.0,0.0,1.0,1.0,347.1073249997971,4.0,1.0,phase_1,,,,,,,,,,,,,green,triangle
176.0,1.0,1.0,0.0,3.0,3.0,477.0623560002605,4.0,1.0,phase_1,,,,,,,,,,,,,green,triangle
314.0,2.0,2.0,0.0,1.0,1.0,478.23191199995557,4.0,1.0,phase_1,,,,,,,,,,,,,cyan,I
0.0,8.0,0.0,1.0,3.0,3.0,329.326046999995,4.0,1.0,phase_1,,,,,,,,,,,,,white,flipped triangle
1289.0,4.0,4.0,0.0,1.0,1.0,357.047717000114,4.0,1.0,phase_1,,,,,,,,,,,,,yellow,diamond
0.0,1.0,0.0,0.0,1.0,1.0,384.3864730001769,4.0,1.0,phase_1,,,,,,,,,,,,,green,triangle
345.0,6.0,2.0,1.0,4.0,4.0,412.0783379999011,4.0,1.0,phase_1,,,,,,,,,,,,,gray,square
1319.0,8.0,4.0,1.0,1.0,1.0,290.1352189996942,4.0,1.0,phase_1,,,,,,,,,,,,,white,flipped triangle
318.0,6.0,2.0,1.0,1.0,1.0,346.1139569999432,4.0,1.0,phase_1,,,,,,,,,,,,,gray,square
0.0,3.0,0.0,0.0,4.0,4.0,449.4299550001415,4.0,1.0,phase_1,,,,,,,,,,,,,blue,circle
309.0,6.0,2.0,1.0,1.0,1.0,319.0183059996343,4.0,1.0,phase_1,,,,,,,,,,,,,gray,square
163.0,1.0,1.0,0.0,3.0,3.0,373.4901510001691,4.0,1.0,phase_1,,,,,,,,,,,,,green,triangle
186.0,1.0,1.0,0.0,1.0,1.0,448.3870049998586,4.0,1.0,phase_1,,,,,,,,,,,,,green,triangle
160.0,1.0,1.0,0.0,3.0,3.0,347.4807769998733,4.0,1.0,phase_1,,,,,,,,,,,,,green,triangle
334.0,2.0,2.0,0.0,4.0,4.0,393.5504010000841,4.0,1.0,phase_1,,,,,,,,,,,,,cyan,I
0.0,7.0,0.0,1.0,4.0,4.0,394.8295670002153,4.0,1.0,phase_1,,,,,,,,,,,,,magenta,hexagon
142.0,5.0,1.0,1.0,3.0,3.0,374.5097340001848,4.0,1.0,phase_1,,,,,,,,,,,,,orange,cross
648.0,3.0,3.0,0.0,3.0,3.0,403.8106549996882,4.0,1.0,phase_1,,,,,,,,,,,,,blue,circle
137.0,1.0,1.0,0.0,1.0,1.0,336.5992400003961,4.0,1.0,phase_1,,,,,,,,,,,,,green,triangle
671.0,3.0,3.0,0.0,3.0,3.0,410.7497890004197,4.0,1.0,phase_1,,,,,,,,,,,,,blue,circle
0.0,3.0,0.0,0.0,2.0,2.0,366.3826440001685,4.0,2.0,phase_1,,,,,,,,,,,,,blue,circle
633.0,7.0,3.0,1.0,1.0,1.0,398.100721999981,4.0,1.0,phase_1,,,,,,,,,,,,,magenta,hexagon
316.0,2.0,2.0,0.0,4.0,4.0,450.5737519998547,4.0,1.0,phase_1,,,,,,,,,,,,,cyan,I
643.0,3.0,3.0,0.0,2.0,2.0,412.504502000047,4.0,1.0,phase_1,,,,,,,,,,,,,blue,circle
636.0,7.0,3.0,1.0,2.0,2.0,365.3178160002426,4.0,1.0,phase_1,,,,,,,,,,,,,magenta,hexagon
1307.0,4.0,4.0,0.0,4.0,4.0,431.4624459998413,4.0,1.0,phase_1,,,,,,,,,,,,,yellow,diamond
0.0,3.0,3.0,0.0,6.0,6.0,340.203350000138,1.0,1.0,phase_2,go,250.0,250.0,1.0,,,,,,,,,blue,circle
0.0,1.0,1.0,0.0,5.0,5.0,376.030419000017,1.0,1.0,phase_2,go,250.0,250.0,1.0,,,,,,,,,green,triangle
0.0,1.0,1.0,0.0,6.0,6.0,356.4158220001445,1.0,1.0,phase_2,go,250.0,250.0,1.0,,,,,,,,,green,triangle
0.0,1.0,1.0,0.0,6.0,6.0,329.2724390003059,1.0,1.0,phase_2,go,250.0,250.0,1.0,,,,,,,,,green,triangle
0.0,3.0,3.0,0.0,6.0,6.0,460.3713100000277,1.0,1.0,phase_2,go,250.0,250.0,1.0,,,,,,,,,blue,circle
0.0,3.0,3.0,0.0,6.0,6.0,367.9760989998613,1.0,1.0,phase_2,go,250.0,250.0,1.0,,,,,,,,,blue,circle
0.0,2.0,2.0,0.0,5.0,5.0,319.0983640001832,1.0,1.0,phase_2,go,250.0,250.0,1.0,,,,,,,,,cyan,I
0.0,1.0,1.0,0.0,6.0,6.0,281.2859770001523,1.0,1.0,phase_2,go,250.0,250.0,1.0,,,,,,,,,green,triangle
0.0,1.0,1.0,0.0,5.0,5.0,309.874377000142,1.0,1.0,phase_2,go,250.0,250.0,1.0,,,,,,,,,green,triangle
0.0,6.0,2.0,1.0,6.0,0.0,0.0,1.0,1.0,phase_2,stop,250.0,250.0,4.0,,,,,,,,,gray,square
0.0,2.0,2.0,0.0,6.0,6.0,379.1428399999859,1.0,1.0,phase_2,go,250.0,300.0,1.0,,,,,,,,,cyan,I
0.0,5.0,1.0,1.0,6.0,6.0,424.5057449998057,1.0,1.0,phase_2,go,250.0,300.0,1.0,,,,,,,,,orange,cross
0.0,1.0,1.0,0.0,6.0,6.0,330.2316350000183,1.0,1.0,phase_2,go,250.0,300.0,1.0,,,,,,,,,green,triangle
0.0,4.0,4.0,0.0,5.0,5.0,312.6321459999417,1.0,1.0,phase_2,go,250.0,300.0,1.0,,,,,,,,,yellow,diamond
0.0,8.0,4.0,1.0,5.0,5.0,395.7681209999464,1.0,1.0,phase_2,stop,250.0,300.0,3.0,,,,,,,,,white,flipped triangle
0.0,7.0,3.0,1.0,6.0,6.0,293.0615959999159,1.0,1.0,phase_2,go,200.0,300.0,1.0,,,,,,,,,magenta,hexagon
0.0,2.0,2.0,0.0,6.0,6.0,321.3839250001911,1.0,1.0,phase_2,go,200.0,300.0,1.0,,,,,,,,,cyan,I
0.0,6.0,2.0,1.0,5.0,0.0,0.0,1.0,1.0,phase_2,stop,200.0,300.0,4.0,,,,,,,,,gray,square
0.0,4.0,4.0,0.0,5.0,5.0,548.915443000169,1.0,1.0,phase_2,go,250.0,300.0,1.0,,,,,,,,,yellow,diamond
0.0,7.0,3.0,1.0,6.0,6.0,454.5470550001482,1.0,1.0,phase_2,go,250.0,300.0,1.0,,,,,,,,,magenta,hexagon
0.0,1.0,1.0,0.0,5.0,5.0,416.534608999882,1.0,1.0,phase_2,go,250.0,300.0,1.0,,,,,,,,,green,triangle
0.0,7.0,3.0,1.0,6.0,6.0,465.6573299998854,1.0,1.0,phase_2,stop,250.0,300.0,3.0,,,,,,,,,magenta,hexagon
0.0,4.0,4.0,0.0,6.0,6.0,632.5198409999757,1.0,1.0,phase_2,go,250.0,250.0,1.0,,,,,,,,,yellow,diamond
0.0,1.0,1.0,0.0,5.0,5.0,367.6405180003712,1.0,1.0,phase_2,go,250.0,250.0,1.0,,,,,,,,,green,triangle
0.0,2.0,2.0,0.0,6.0,6.0,423.5997979999411,1.0,1.0,phase_2,go,250.0,250.0,1.0,,,,,,,,,cyan,I
0.0,5.0,1.0,1.0,6.0,0.0,0.0,1.0,1.0,phase_2,stop,250.0,250.0,4.0,,,,,,,,,orange,cross
0.0,6.0,2.0,1.0,6.0,0.0,0.0,1.0,1.0,phase_2,stop,250.0,300.0,4.0,,,,,,,,,gray,square
0.0,7.0,3.0,1.0,6.0,6.0,500.0617410000814,1.0,1.0,phase_2,stop,250.0,350.0,3.0,,,,,,,,,magenta,hexagon
0.0,7.0,3.0,1.0,5.0,5.0,567.0989879999979,1.0,1.0,phase_2,go,250.0,300.0,1.0,,,,,,,,,magenta,hexagon
0.0,4.0,4.0,0.0,5.0,5.0,755.0973729998987,1.0,1.0,phase_2,go,250.0,300.0,1.0,,,,,,,,,yellow,diamond
0.0,8.0,4.0,1.0,6.0,0.0,0.0,1.0,1.0,phase_2,stop,250.0,300.0,4.0,,,,,,,,,white,flipped triangle
0.0,4.0,4.0,0.0,5.0,5.0,654.0562199998021,1.0,1.0,phase_2,go,250.0,350.0,1.0,,,,,,,,,yellow,diamond
0.0,3.0,3.0,0.0,5.0,5.0,651.5502359998209,1.0,1.0,phase_2,go,250.0,350.0,1.0,,,,,,,,,blue,circle
0.0,5.0,1.0,1.0,5.0,0.0,0.0,1.0,1.0,phase_2,stop,250.0,350.0,4.0,,,,,,,,,orange,cross
0.0,4.0,4.0,0.0,6.0,6.0,556.7047650001768,1.0,1.0,phase_2,go,300.0,350.0,1.0,,,,,,,,,yellow,diamond
0.0,5.0,1.0,1.0,6.0,6.0,405.8780489999662,1.0,1.0,phase_2,stop,300.0,350.0,3.0,,,,,,,,,orange,cross
0.0,4.0,4.0,0.0,6.0,6.0,508.370738999929,2.0,1.0,phase_2,go,300.0,300.0,1.0,,,,,,,,,yellow,diamond
0.0,6.0,2.0,1.0,6.0,6.0,459.5171239998308,2.0,1.0,phase_2,stop,300.0,300.0,3.0,,,,,,,,,gray,square
0.0,6.0,2.0,1.0,5.0,0.0,0.0,2.0,1.0,phase_2,stop,300.0,250.0,4.0,,,,,,,,,gray,square
0.0,6.0,2.0,1.0,6.0,6.0,443.9889169998423,2.0,1.0,phase_2,go,350.0,250.0,1.0,,,,,,,,,gray,square
0.0,4.0,4.0,0.0,5.0,5.0,678.6253840000427,2.0,1.0,phase_2,go,350.0,250.0,1.0,,,,,,,,,yellow,diamond
0.0,8.0,4.0,1.0,6.0,0.0,0.0,2.0,1.0,phase_2,stop,350.0,250.0,4.0,,,,,,,,,white,flipped triangle
0.0,3.0,3.0,0.0,6.0,6.0,765.1879740001277,2.0,1.0,phase_2,go,350.0,300.0,1.0,,,,,,,,,blue,circle
0.0,2.0,2.0,0.0,6.0,6.0,660.690736000106,2.0,1.0,phase_2,go,350.0,300.0,1.0,,,,,,,,,cyan,I
0.0,1.0,1.0,0.0,5.0,5.0,642.7674159999697,2.0,1.0,phase_2,go,350.0,300.0,1.0,,,,,,,,,green,triangle
0.0,3.0,3.0,0.0,6.0,6.0,424.5081240001127,2.0,1.0,phase_2,go,350.0,300.0,1.0,,,,,,,,,blue,circle
0.0,5.0,1.0,1.0,6.0,0.0,0.0,2.0,1.0,phase_2,stop,350.0,300.0,4.0,,,,,,,,,orange,cross
0.0,8.0,4.0,1.0,6.0,0.0,0.0,2.0,1.0,phase_2,stop,350.0,350.0,4.0,,,,,,,,,white,flipped triangle
0.0,7.0,3.0,1.0,6.0,6.0,669.7533329997896,2.0,1.0,phase_2,go,350.0,400.0,1.0,,,,,,,,,magenta,hexagon
0.0,6.0,2.0,1.0,6.0,6.0,736.4890480002941,2.0,1.0,phase_2,go,350.0,400.0,1.0,,,,,,,,,gray,square
0.0,8.0,4.0,1.0,5.0,5.0,660.3583959999924,2.0,1.0,phase_2,go,350.0,400.0,1.0,,,,,,,,,white,flipped triangle
0.0,6.0,2.0,1.0,5.0,5.0,442.9879949998394,2.0,1.0,phase_2,stop,350.0,400.0,3.0,,,,,,,,,gray,square
0.0,4.0,4.0,0.0,6.0,6.0,452.6241220000884,2.0,1.0,phase_2,go,300.0,400.0,1.0,,,,,,,,,yellow,diamond
0.0,4.0,4.0,0.0,6.0,6.0,651.8162289999054,2.0,1.0,phase_2,go,300.0,400.0,1.0,,,,,,,,,yellow,diamond
0.0,2.0,2.0,0.0,5.0,5.0,329.9659340000289,2.0,1.0,phase_2,go,300.0,400.0,1.0,,,,,,,,,cyan,I
0.0,4.0,4.0,0.0,5.0,5.0,503.01256299962915,2.0,1.0,phase_2,go,300.0,400.0,1.0,,,,,,,,,yellow,diamond
0.0,2.0,2.0,0.0,5.0,5.0,462.7647389997946,2.0,1.0,phase_2,go,300.0,400.0,1.0,,,,,,,,,cyan,I
0.0,3.0,3.0,0.0,5.0,5.0,510.26987099976395,2.0,1.0,phase_2,go,300.0,400.0,1.0,,,,,,,,,blue,circle
0.0,6.0,2.0,1.0,6.0,0.0,0.0,2.0,1.0,phase_2,stop,300.0,400.0,4.0,,,,,,,,,gray,square
0.0,5.0,1.0,1.0,5.0,5.0,508.5056309999345,2.0,1.0,phase_2,stop,300.0,450.0,3.0,,,,,,,,,orange,cross
0.0,1.0,1.0,0.0,6.0,6.0,603.7410200001432,2.0,1.0,phase_2,go,250.0,450.0,1.0,,,,,,,,,green,triangle
0.0,5.0,1.0,1.0,6.0,0.0,0.0,2.0,1.0,phase_2,stop,250.0,450.0,4.0,,,,,,,,,orange,cross
0.0,7.0,3.0,1.0,5.0,5.0,624.1460159999406,2.0,1.0,phase_2,go,250.0,500.0,1.0,,,,,,,,,magenta,hexagon
0.0,3.0,3.0,0.0,5.0,5.0,471.8314550000286,2.0,1.0,phase_2,go,250.0,500.0,1.0,,,,,,,,,blue,circle
0.0,8.0,4.0,1.0,6.0,6.0,543.2693759998983,2.0,1.0,phase_2,stop,250.0,500.0,3.0,,,,,,,,,white,flipped triangle
0.0,5.0,1.0,1.0,6.0,0.0,0.0,2.0,1.0,phase_2,stop,250.0,450.0,4.0,,,,,,,,,orange,cross
0.0,3.0,3.0,0.0,6.0,6.0,687.7712089999477,2.0,1.0,phase_2,go,250.0,500.0,1.0,,,,,,,,,blue,circle
0.0,5.0,1.0,1.0,6.0,0.0,0.0,2.0,1.0,phase_2,stop,250.0,500.0,4.0,,,,,,,,,orange,cross
0.0,3.0,3.0,0.0,6.0,6.0,716.3406059999033,2.0,1.0,phase_2,go,250.0,550.0,1.0,,,,,,,,,blue,circle
0.0,5.0,1.0,1.0,5.0,0.0,0.0,2.0,1.0,phase_2,stop,250.0,550.0,4.0,,,,,,,,,orange,cross
0.0,5.0,1.0,1.0,6.0,6.0,754.396596999868,2.0,1.0,phase_2,stop,300.0,550.0,3.0,,,,,,,,,orange,cross
0.0,2.0,2.0,0.0,5.0,5.0,763.3345589997589,2.0,1.0,phase_2,go,300.0,500.0,1.0,,,,,,,,,cyan,I
0.0,6.0,2.0,1.0,6.0,6.0,602.5580830000763,3.0,1.0,phase_2,stop,300.0,500.0,3.0,,,,,,,,,gray,square
0.0,8.0,4.0,1.0,5.0,0.0,0.0,3.0,1.0,phase_2,stop,300.0,450.0,4.0,,,,,,,,,white,flipped triangle
0.0,1.0,1.0,0.0,5.0,5.0,726.6994980000163,3.0,1.0,phase_2,go,350.0,450.0,1.0,,,,,,,,,green,triangle
0.0,5.0,1.0,1.0,5.0,5.0,526.6177600001356,3.0,1.0,phase_2,go,350.0,450.0,1.0,,,,,,,,,orange,cross
0.0,5.0,1.0,1.0,5.0,0.0,0.0,3.0,1.0,phase_2,stop,350.0,450.0,4.0,,,,,,,,,orange,cross
0.0,2.0,2.0,0.0,5.0,5.0,573.8648030001059,3.0,1.0,phase_2,go,400.0,450.0,1.0,,,,,,,,,cyan,I
0.0,8.0,4.0,1.0,5.0,5.0,502.6702390000537,3.0,1.0,phase_2,stop,400.0,450.0,3.0,,,,,,,,,white,flipped triangle
0.0,4.0,4.0,0.0,6.0,6.0,331.8673160001708,3.0,1.0,phase_2,go,350.0,450.0,1.0,,,,,,,,,yellow,diamond
0.0,6.0,2.0,1.0,5.0,5.0,358.9260200001263,3.0,1.0,phase_2,go,350.0,450.0,1.0,,,,,,,,,gray,square
0.0,3.0,3.0,0.0,6.0,6.0,631.1455009999918,3.0,1.0,phase_2,go,350.0,450.0,1.0,,,,,,,,,blue,circle
0.0,6.0,2.0,1.0,5.0,0.0,0.0,3.0,1.0,phase_2,stop,350.0,450.0,4.0,,,,,,,,,gray,square
0.0,5.0,1.0,1.0,5.0,0.0,0.0,3.0,1.0,phase_2,stop,400.0,450.0,4.0,,,,,,,,,orange,cross
0.0,7.0,3.0,1.0,5.0,5.0,582.042816000012,3.0,1.0,phase_2,stop,450.0,450.0,3.0,,,,,,,,,magenta,hexagon
0.0,4.0,4.0,0.0,6.0,6.0,725.5717259999983,3.0,1.0,phase_2,go,400.0,450.0,1.0,,,,,,,,,yellow,diamond
0.0,4.0,4.0,0.0,6.0,6.0,762.5578570000471,3.0,1.0,phase_2,go,400.0,450.0,1.0,,,,,,,,,yellow,diamond
0.0,3.0,3.0,0.0,5.0,5.0,754.0279859999828,3.0,1.0,phase_2,go,400.0,450.0,1.0,,,,,,,,,blue,circle
0.0,7.0,3.0,1.0,6.0,6.0,647.285761999683,3.0,1.0,phase_2,stop,400.0,450.0,3.0,,,,,,,,,magenta,hexagon
0.0,6.0,2.0,1.0,5.0,0.0,0.0,3.0,1.0,phase_2,stop,400.0,400.0,4.0,,,,,,,,,gray,square
0.0,8.0,4.0,1.0,6.0,0.0,0.0,3.0,1.0,phase_2,stop,450.0,400.0,4.0,,,,,,,,,white,flipped triangle
0.0,2.0,2.0,0.0,6.0,6.0,783.5511309999674,3.0,1.0,phase_2,go,450.0,450.0,1.0,,,,,,,,,cyan,I
0.0,5.0,1.0,1.0,5.0,5.0,745.7062869998481,3.0,1.0,phase_2,go,450.0,450.0,1.0,,,,,,,,,orange,cross
0.0,3.0,3.0,0.0,6.0,6.0,793.1408210001791,3.0,1.0,phase_2,go,450.0,450.0,1.0,,,,,,,,,blue,circle
0.0,4.0,4.0,0.0,5.0,5.0,503.9956949999578,3.0,1.0,phase_2,go,450.0,450.0,1.0,,,,,,,,,yellow,diamond
0.0,3.0,3.0,0.0,6.0,6.0,425.624883999717,3.0,1.0,phase_2,go,450.0,450.0,1.0,,,,,,,,,blue,circle
0.0,7.0,3.0,1.0,5.0,5.0,509.4773269997859,3.0,1.0,phase_2,stop,450.0,450.0,3.0,,,,,,,,,magenta,hexagon
0.0,3.0,3.0,0.0,5.0,5.0,566.023130999838,3.0,1.0,phase_2,go,400.0,450.0,1.0,,,,,,,,,blue,circle
0.0,2.0,2.0,0.0,5.0,5.0,555.7897459998458,3.0,1.0,phase_2,go,400.0,450.0,1.0,,,,,,,,,cyan,I
0.0,8.0,4.0,1.0,6.0,6.0,746.6288799996619,3.0,1.0,phase_2,go,400.0,450.0,1.0,,,,,,,,,white,flipped triangle
0.0,5.0,1.0,1.0,5.0,5.0,499.9737920002189,3.0,1.0,phase_2,go,400.0,450.0,1.0,,,,,,,,,orange,cross
0.0,2.0,2.0,0.0,6.0,6.0,462.7003499999773,3.0,1.0,phase_2,go,400.0,450.0,1.0,,,,,,,,,cyan,I
0.0,7.0,3.0,1.0,6.0,6.0,632.5882340001954,3.0,1.0,phase_2,stop,400.0,450.0,3.0,,,,,,,,,magenta,hexagon
0.0,3.0,3.0,0.0,5.0,5.0,650.9052549999979,3.0,1.0,phase_2,go,400.0,400.0,1.0,,,,,,,,,blue,circle
0.0,6.0,2.0,1.0,5.0,5.0,550.9070470002371,3.0,1.0,phase_2,stop,400.0,400.0,3.0,,,,,,,,,gray,square
0.0,3.0,3.0,0.0,5.0,5.0,398.8550689996373,3.0,1.0,phase_2,go,350.0,400.0,1.0,,,,,,,,,blue,circle
0.0,2.0,2.0,0.0,5.0,5.0,737.3296310001933,3.0,1.0,phase_2,go,350.0,400.0,1.0,,,,,,,,,cyan,I
0.0,7.0,3.0,1.0,6.0,6.0,557.8586440001345,3.0,1.0,phase_2,stop,350.0,400.0,3.0,,,,,,,,,magenta,hexagon
0.0,7.0,3.0,1.0,6.0,6.0,389.7499070003505,4.0,1.0,phase_2,stop,350.0,350.0,3.0,,,,,,,,,magenta,hexagon
0.0,3.0,3.0,0.0,6.0,6.0,617.3348759998589,4.0,1.0,phase_2,go,350.0,300.0,1.0,,,,,,,,,blue,circle
0.0,5.0,1.0,1.0,6.0,0.0,0.0,4.0,1.0,phase_2,stop,350.0,300.0,4.0,,,,,,,,,orange,cross
0.0,4.0,4.0,0.0,5.0,5.0,407.4080899999899,4.0,1.0,phase_2,go,350.0,350.0,1.0,,,,,,,,,yellow,diamond
0.0,2.0,2.0,0.0,6.0,6.0,586.3795949999258,4.0,1.0,phase_2,go,350.0,350.0,1.0,,,,,,,,,cyan,I
0.0,4.0,4.0,0.0,6.0,6.0,435.2860539997891,4.0,1.0,phase_2,go,350.0,350.0,1.0,,,,,,,,,yellow,diamond
0.0,2.0,2.0,0.0,5.0,5.0,548.0848229999538,4.0,1.0,phase_2,go,350.0,350.0,1.0,,,,,,,,,cyan,I
0.0,3.0,3.0,0.0,5.0,5.0,634.2517210000551,4.0,1.0,phase_2,go,350.0,350.0,1.0,,,,,,,,,blue,circle
0.0,6.0,2.0,1.0,5.0,0.0,0.0,4.0,1.0,phase_2,stop,350.0,350.0,4.0,,,,,,,,,gray,square
0.0,3.0,3.0,0.0,5.0,5.0,540.7915010000579,4.0,1.0,phase_2,go,400.0,350.0,1.0,,,,,,,,,blue,circle
0.0,4.0,4.0,0.0,6.0,6.0,596.1590900001283,4.0,1.0,phase_2,go,400.0,350.0,1.0,,,,,,,,,yellow,diamond
0.0,5.0,1.0,1.0,5.0,5.0,615.3904810003041,4.0,1.0,phase_2,stop,400.0,350.0,3.0,,,,,,,,,orange,cross
0.0,7.0,3.0,1.0,5.0,0.0,0.0,4.0,1.0,phase_2,stop,350.0,350.0,4.0,,,,,,,,,magenta,hexagon
0.0,5.0,1.0,1.0,6.0,0.0,0.0,4.0,1.0,phase_2,stop,400.0,350.0,4.0,,,,,,,,,orange,cross
0.0,4.0,4.0,0.0,5.0,5.0,652.326850999998,4.0,1.0,phase_2,go,400.0,400.0,1.0,,,,,,,,,yellow,diamond
0.0,2.0,2.0,0.0,5.0,5.0,594.911029999821,4.0,1.0,phase_2,go,400.0,400.0,1.0,,,,,,,,,cyan,I
0.0,7.0,3.0,1.0,5.0,0.0,0.0,4.0,1.0,phase_2,stop,400.0,400.0,4.0,,,,,,,,,magenta,hexagon
0.0,6.0,2.0,1.0,6.0,6.0,717.2865700003968,4.0,1.0,phase_2,go,450.0,400.0,1.0,,,,,,,,,gray,square
0.0,8.0,4.0,1.0,6.0,6.0,730.3028060000543,4.0,1.0,phase_2,go,450.0,400.0,1.0,,,,,,,,,white,flipped triangle
0.0,5.0,1.0,1.0,6.0,0.0,0.0,4.0,1.0,phase_2,stop,450.0,400.0,4.0,,,,,,,,,orange,cross
0.0,7.0,3.0,1.0,5.0,5.0,636.4980939997622,4.0,1.0,phase_2,stop,450.0,450.0,3.0,,,,,,,,,magenta,hexagon
0.0,5.0,1.0,1.0,5.0,5.0,794.597000000067,4.0,1.0,phase_2,go,400.0,450.0,1.0,,,,,,,,,orange,cross
0.0,3.0,3.0,0.0,6.0,6.0,597.8416740003922,4.0,1.0,phase_2,go,400.0,450.0,1.0,,,,,,,,,blue,circle
0.0,8.0,4.0,1.0,6.0,0.0,0.0,4.0,1.0,phase_2,stop,400.0,450.0,4.0,,,,,,,,,white,flipped triangle
0.0,8.0,4.0,1.0,6.0,0.0,0.0,4.0,1.0,phase_2,stop,400.0,500.0,4.0,,,,,,,,,white,flipped triangle
0.0,4.0,4.0,0.0,5.0,5.0,671.6255480000655,4.0,1.0,phase_2,go,400.0,550.0,1.0,,,,,,,,,yellow,diamond
0.0,1.0,1.0,0.0,6.0,6.0,652.652653000132,4.0,1.0,phase_2,go,400.0,550.0,1.0,,,,,,,,,green,triangle
0.0,6.0,2.0,1.0,5.0,5.0,465.5802269999185,4.0,1.0,phase_2,stop,400.0,550.0,3.0,,,,,,,,,gray,square
0.0,6.0,2.0,1.0,6.0,6.0,736.577467999723,4.0,1.0,phase_2,stop,350.0,550.0,3.0,,,,,,,,,gray,square
0.0,2.0,2.0,0.0,6.0,6.0,785.4582960003427,4.0,1.0,phase_2,go,350.0,500.0,1.0,,,,,,,,,cyan,I
0.0,4.0,4.0,0.0,5.0,5.0,718.2907649998924,4.0,1.0,phase_2,go,350.0,500.0,1.0,,,,,,,,,yellow,diamond
0.0,7.0,3.0,1.0,5.0,5.0,672.6233370000045,4.0,1.0,phase_2,go,350.0,500.0,1.0,,,,,,,,,magenta,hexagon
0.0,8.0,4.0,1.0,5.0,0.0,0.0,4.0,1.0,phase_2,stop,350.0,500.0,4.0,,,,,,,,,white,flipped triangle
0.0,6.0,2.0,1.0,5.0,0.0,0.0,4.0,1.0,phase_2,stop,400.0,500.0,4.0,,,,,,,,,gray,square
0.0,2.0,2.0,0.0,5.0,5.0,918.1151239999964,4.0,1.0,phase_2,go,450.0,500.0,1.0,,,,,,,,,cyan,I
0.0,1.0,1.0,0.0,6.0,6.0,684.813688000304,4.0,1.0,phase_2,go,450.0,500.0,1.0,,,,,,,,,green,triangle
0.0,2.0,2.0,0.0,6.0,6.0,427.0705509998151,5.0,1.0,phase_2,go,450.0,500.0,1.0,,,,,,,,,cyan,I
0.0,1.0,1.0,0.0,6.0,6.0,359.7193299997343,5.0,1.0,phase_2,go,450.0,500.0,1.0,,,,,,,,,green,triangle
0.0,8.0,4.0,1.0,5.0,5.0,560.5439920000208,5.0,1.0,phase_2,stop,450.0,500.0,3.0,,,,,,,,,white,flipped triangle
0.0,4.0,4.0,0.0,5.0,5.0,767.0102570000381,5.0,1.0,phase_2,go,400.0,500.0,1.0,,,,,,,,,yellow,diamond
0.0,2.0,2.0,0.0,6.0,6.0,758.2106009999734,5.0,1.0,phase_2,go,400.0,500.0,1.0,,,,,,,,,cyan,I
0.0,1.0,1.0,0.0,6.0,6.0,473.9912049999475,5.0,1.0,phase_2,go,400.0,500.0,1.0,,,,,,,,,green,triangle
0.0,4.0,4.0,0.0,5.0,5.0,636.1860140000317,5.0,1.0,phase_2,go,400.0,500.0,1.0,,,,,,,,,yellow,diamond
0.0,8.0,4.0,1.0,5.0,5.0,700.4449189998923,5.0,1.0,phase_2,go,400.0,500.0,1.0,,,,,,,,,white,flipped triangle
0.0,3.0,3.0,0.0,5.0,5.0,633.8369639997836,5.0,1.0,phase_2,go,400.0,500.0,1.0,,,,,,,,,blue,circle
0.0,5.0,1.0,1.0,5.0,0.0,0.0,5.0,1.0,phase_2,stop,400.0,500.0,4.0,,,,,,,,,orange,cross
0.0,7.0,3.0,1.0,5.0,0.0,0.0,5.0,1.0,phase_2,stop,450.0,500.0,4.0,,,,,,,,,magenta,hexagon
0.0,4.0,4.0,0.0,6.0,6.0,529.986368000209,5.0,1.0,phase_2,go,500.0,500.0,1.0,,,,,,,,,yellow,diamond
0.0,8.0,4.0,1.0,5.0,5.0,617.0533169997725,5.0,1.0,phase_2,go,500.0,500.0,1.0,,,,,,,,,white,flipped triangle
0.0,2.0,2.0,0.0,6.0,6.0,550.8792599998742,5.0,1.0,phase_2,go,500.0,500.0,1.0,,,,,,,,,cyan,I
0.0,1.0,1.0,0.0,5.0,5.0,584.8212130003958,5.0,1.0,phase_2,go,500.0,500.0,1.0,,,,,,,,,green,triangle
0.0,5.0,1.0,1.0,6.0,6.0,683.7569490003261,5.0,1.0,phase_2,stop,500.0,500.0,3.0,,,,,,,,,orange,cross
0.0,1.0,1.0,0.0,5.0,5.0,501.5918050003165,5.0,1.0,phase_2,go,500.0,450.0,1.0,,,,,,,,,green,triangle
0.0,3.0,3.0,0.0,5.0,5.0,672.6130359998024,5.0,1.0,phase_2,go,500.0,450.0,1.0,,,,,,,,,blue,circle
0.0,4.0,4.0,0.0,5.0,5.0,540.1996360001249,5.0,1.0,phase_2,go,500.0,450.0,1.0,,,,,,,,,yellow,diamond
0.0,3.0,3.0,0.0,5.0,5.0,540.4017620003287,5.0,1.0,phase_2,go,500.0,450.0,1.0,,,,,,,,,blue,circle
0.0,2.0,2.0,0.0,6.0,6.0,810.8648420002282,5.0,1.0,phase_2,go,500.0,450.0,1.0,,,,,,,,,cyan,I
0.0,5.0,1.0,1.0,6.0,0.0,0.0,5.0,1.0,phase_2,stop,500.0,450.0,4.0,,,,,,,,,orange,cross
0.0,4.0,4.0,0.0,5.0,5.0,674.1746920006335,5.0,1.0,phase_2,go,500.0,500.0,1.0,,,,,,,,,yellow,diamond
0.0,6.0,2.0,1.0,6.0,6.0,574.1167280002628,5.0,1.0,phase_2,stop,500.0,500.0,3.0,,,,,,,,,gray,square
0.0,7.0,3.0,1.0,6.0,6.0,653.1263819997548,5.0,1.0,phase_2,stop,500.0,450.0,3.0,,,,,,,,,magenta,hexagon
0.0,4.0,4.0,0.0,6.0,6.0,926.6717580003389,5.0,1.0,phase_2,go,500.0,400.0,1.0,,,,,,,,,yellow,diamond
0.0,5.0,1.0,1.0,5.0,5.0,823.4620650000579,5.0,1.0,phase_2,go,500.0,400.0,1.0,,,,,,,,,orange,cross
0.0,3.0,3.0,0.0,6.0,6.0,578.3273900005952,5.0,1.0,phase_2,go,500.0,400.0,1.0,,,,,,,,,blue,circle
0.0,8.0,4.0,1.0,5.0,5.0,378.6803700004384,5.0,1.0,phase_2,stop,500.0,400.0,3.0,,,,,,,,,white,flipped triangle
0.0,2.0,2.0,0.0,6.0,6.0,388.9053149996471,5.0,1.0,phase_2,go,450.0,400.0,1.0,,,,,,,,,cyan,I
0.0,7.0,3.0,1.0,5.0,5.0,623.1142189999446,5.0,1.0,phase_2,stop,450.0,400.0,3.0,,,,,,,,,magenta,hexagon
0.0,8.0,4.0,1.0,5.0,0.0,0.0,5.0,1.0,phase_2,stop,400.0,400.0,4.0,,,,,,,,,white,flipped triangle
0.0,3.0,3.0,0.0,6.0,6.0,674.1001899999901,5.0,1.0,phase_2,go,450.0,400.0,1.0,,,,,,,,,blue,circle
0.0,6.0,2.0,1.0,6.0,0.0,0.0,5.0,1.0,phase_2,stop,450.0,400.0,4.0,,,,,,,,,gray,square
0.0,8.0,4.0,1.0,5.0,0.0,0.0,5.0,1.0,phase_2,stop,450.0,450.0,4.0,,,,,,,,,white,flipped triangle
0.0,5.0,1.0,1.0,5.0,5.0,883.3570750002764,5.0,1.0,phase_2,go,500.0,450.0,1.0,,,,,,,,,orange,cross
0.0,1.0,1.0,0.0,6.0,6.0,360.7428499999514,6.0,1.0,phase_2,go,500.0,450.0,1.0,,,,,,,,,green,triangle
0.0,4.0,4.0,0.0,6.0,6.0,661.3333960003729,6.0,1.0,phase_2,go,500.0,450.0,1.0,,,,,,,,,yellow,diamond
0.0,6.0,2.0,1.0,6.0,6.0,700.6657029996859,6.0,1.0,phase_2,go,500.0,450.0,1.0,,,,,,,,,gray,square
0.0,6.0,2.0,1.0,6.0,6.0,660.0999019992742,6.0,1.0,phase_2,stop,500.0,450.0,3.0,,,,,,,,,gray,square
0.0,3.0,3.0,0.0,5.0,5.0,491.288295999766,6.0,1.0,phase_2,go,500.0,400.0,1.0,,,,,,,,,blue,circle
0.0,1.0,1.0,0.0,5.0,5.0,716.5717540001424,6.0,1.0,phase_2,go,500.0,400.0,1.0,,,,,,,,,green,triangle
0.0,2.0,2.0,0.0,6.0,6.0,455.0243599996975,6.0,1.0,phase_2,go,500.0,400.0,1.0,,,,,,,,,cyan,I
0.0,3.0,3.0,0.0,5.0,5.0,615.1124630005143,6.0,1.0,phase_2,go,500.0,400.0,1.0,,,,,,,,,blue,circle
0.0,7.0,3.0,1.0,6.0,0.0,0.0,6.0,1.0,phase_2,stop,500.0,400.0,4.0,,,,,,,,,magenta,hexagon
0.0,6.0,2.0,1.0,5.0,5.0,604.9974550005572,6.0,1.0,phase_2,go,500.0,450.0,1.0,,,,,,,,,gray,square
0.0,8.0,4.0,1.0,6.0,6.0,378.545032999682,6.0,1.0,phase_2,go,500.0,450.0,1.0,,,,,,,,,white,flipped triangle
0.0,3.0,3.0,0.0,5.0,5.0,663.8700850007808,6.0,1.0,phase_2,go,500.0,450.0,1.0,,,,,,,,,blue,circle
0.0,6.0,2.0,1.0,5.0,5.0,610.755202999826,6.0,1.0,phase_2,stop,500.0,450.0,3.0,,,,,,,,,gray,square
0.0,5.0,1.0,1.0,5.0,5.0,636.2406130001546,6.0,1.0,phase_2,go,450.0,450.0,1.0,,,,,,,,,orange,cross
0.0,2.0,2.0,0.0,6.0,6.0,606.0547430006409,6.0,1.0,phase_2,go,450.0,450.0,1.0,,,,,,,,,cyan,I
0.0,5.0,1.0,1.0,6.0,0.0,0.0,6.0,1.0,phase_2,stop,450.0,450.0,4.0,,,,,,,,,orange,cross
0.0,7.0,3.0,1.0,6.0,6.0,670.120262000637,6.0,1.0,phase_2,stop,450.0,500.0,3.0,,,,,,,,,magenta,hexagon
0.0,7.0,3.0,1.0,5.0,5.0,613.370181999926,6.0,1.0,phase_2,stop,450.0,450.0,3.0,,,,,,,,,magenta,hexagon
0.0,1.0,1.0,0.0,5.0,5.0,563.6177020005562,6.0,1.0,phase_2,go,400.0,450.0,1.0,,,,,,,,,green,triangle
0.0,1.0,1.0,0.0,6.0,6.0,720.0857010002437,6.0,1.0,phase_2,go,400.0,450.0,1.0,,,,,,,,,green,triangle
0.0,3.0,3.0,0.0,6.0,6.0,661.5123709998443,6.0,1.0,phase_2,go,400.0,450.0,1.0,,,,,,,,,blue,circle
0.0,1.0,1.0,0.0,5.0,5.0,624.2025980000108,6.0,1.0,phase_2,go,400.0,450.0,1.0,,,,,,,,,green,triangle
0.0,8.0,4.0,1.0,5.0,0.0,0.0,6.0,1.0,phase_2,stop,400.0,450.0,4.0,,,,,,,,,white,flipped triangle
0.0,1.0,1.0,0.0,6.0,6.0,718.7917579994973,6.0,1.0,phase_2,go,450.0,450.0,1.0,,,,,,,,,green,triangle
0.0,8.0,4.0,1.0,5.0,0.0,0.0,6.0,1.0,phase_2,stop,450.0,450.0,4.0,,,,,,,,,white,flipped triangle
0.0,8.0,4.0,1.0,6.0,6.0,612.4073430000863,6.0,1.0,phase_2,stop,500.0,450.0,3.0,,,,,,,,,white,flipped triangle
0.0,8.0,4.0,1.0,6.0,0.0,0.0,6.0,1.0,phase_2,stop,500.0,400.0,4.0,,,,,,,,,white,flipped triangle
0.0,2.0,2.0,0.0,6.0,6.0,690.8042420000129,6.0,1.0,phase_2,go,500.0,450.0,1.0,,,,,,,,,cyan,I
0.0,3.0,3.0,0.0,6.0,6.0,737.4932500006253,6.0,1.0,phase_2,go,500.0,450.0,1.0,,,,,,,,,blue,circle
0.0,8.0,4.0,1.0,6.0,0.0,0.0,6.0,1.0,phase_2,stop,500.0,450.0,4.0,,,,,,,,,white,flipped triangle
0.0,1.0,1.0,0.0,5.0,5.0,726.5204109999104,6.0,1.0,phase_2,go,500.0,500.0,1.0,,,,,,,,,green,triangle
0.0,6.0,2.0,1.0,5.0,0.0,0.0,6.0,1.0,phase_2,stop,500.0,500.0,4.0,,,,,,,,,gray,square
0.0,1.0,1.0,0.0,6.0,6.0,689.1988260003927,6.0,1.0,phase_2,go,550.0,500.0,1.0,,,,,,,,,green,triangle
0.0,7.0,3.0,1.0,6.0,6.0,673.2461010005863,6.0,1.0,phase_2,stop,550.0,500.0,3.0,,,,,,,,,magenta,hexagon
0.0,4.0,4.0,0.0,6.0,6.0,728.9902880002046,6.0,1.0,phase_2,go,550.0,450.0,1.0,,,,,,,,,yellow,diamond
0.0,4.0,4.0,0.0,6.0,6.0,807.480088000375,6.0,1.0,phase_2,go,550.0,450.0,1.0,,,,,,,,,yellow,diamond
0.0,3.0,3.0,0.0,5.0,5.0,565.408061999733,7.0,1.0,phase_2,go,550.0,450.0,1.0,,,,,,,,,blue,circle
0.0,1.0,1.0,0.0,5.0,5.0,379.2061589992954,7.0,1.0,phase_2,go,550.0,450.0,1.0,,,,,,,,,green,triangle
0.0,4.0,4.0,0.0,5.0,5.0,595.3678010000658,7.0,1.0,phase_2,go,550.0,450.0,1.0,,,,,,,,,yellow,diamond
0.0,6.0,2.0,1.0,5.0,5.0,710.7832310002777,7.0,1.0,phase_2,stop,550.0,450.0,3.0,,,,,,,,,gray,square
0.0,6.0,2.0,1.0,6.0,6.0,638.5198079997281,7.0,1.0,phase_2,stop,500.0,450.0,3.0,,,,,,,,,gray,square
0.0,5.0,1.0,1.0,5.0,5.0,534.8148200000651,7.0,1.0,phase_2,stop,500.0,400.0,3.0,,,,,,,,,orange,cross
0.0,1.0,1.0,0.0,5.0,5.0,783.2157029997688,7.0,1.0,phase_2,go,450.0,400.0,1.0,,,,,,,,,green,triangle
0.0,2.0,2.0,0.0,5.0,5.0,688.7876370001322,7.0,1.0,phase_2,go,450.0,400.0,1.0,,,,,,,,,cyan,I
0.0,1.0,1.0,0.0,5.0,5.0,673.3458140006405,7.0,1.0,phase_2,go,450.0,400.0,1.0,,,,,,,,,green,triangle
0.0,1.0,1.0,0.0,6.0,6.0,793.28863200044,7.0,1.0,phase_2,go,450.0,400.0,1.0,,,,,,,,,green,triangle
0.0,4.0,4.0,0.0,6.0,6.0,661.7697789997692,7.0,1.0,phase_2,go,450.0,400.0,1.0,,,,,,,,,yellow,diamond
0.0,6.0,2.0,1.0,5.0,5.0,601.7609580003409,7.0,1.0,phase_2,stop,450.0,400.0,3.0,,,,,,,,,gray,square
0.0,2.0,2.0,0.0,5.0,5.0,605.5428829995435,7.0,1.0,phase_2,go,400.0,400.0,1.0,,,,,,,,,cyan,I
0.0,4.0,4.0,0.0,6.0,6.0,701.1678379994919,7.0,1.0,phase_2,go,400.0,400.0,1.0,,,,,,,,,yellow,diamond
0.0,8.0,4.0,1.0,5.0,5.0,804.2229490001773,7.0,1.0,phase_2,go,400.0,400.0,1.0,,,,,,,,,white,flipped triangle
0.0,8.0,4.0,1.0,6.0,6.0,783.2128230002127,7.0,1.0,phase_2,go,400.0,400.0,1.0,,,,,,,,,white,flipped triangle
0.0,3.0,3.0,0.0,5.0,5.0,528.1562509999276,7.0,1.0,phase_2,go,400.0,400.0,1.0,,,,,,,,,blue,circle
0.0,2.0,2.0,0.0,5.0,5.0,587.1448440002496,7.0,1.0,phase_2,go,400.0,400.0,1.0,,,,,,,,,cyan,I
0.0,7.0,3.0,1.0,5.0,0.0,0.0,7.0,1.0,phase_2,stop,400.0,400.0,4.0,,,,,,,,,magenta,hexagon
0.0,5.0,1.0,1.0,5.0,0.0,0.0,7.0,1.0,phase_2,stop,450.0,400.0,4.0,,,,,,,,,orange,cross
0.0,1.0,1.0,0.0,5.0,5.0,716.9322480003757,7.0,1.0,phase_2,go,500.0,400.0,1.0,,,,,,,,,green,triangle
0.0,5.0,1.0,1.0,5.0,0.0,0.0,7.0,1.0,phase_2,stop,500.0,400.0,4.0,,,,,,,,,orange,cross
0.0,5.0,1.0,1.0,6.0,0.0,0.0,7.0,1.0,phase_2,stop,550.0,400.0,4.0,,,,,,,,,orange,cross
0.0,6.0,2.0,1.0,6.0,6.0,697.319771000366,7.0,1.0,phase_2,go,550.0,450.0,1.0,,,,,,,,,gray,square
0.0,7.0,3.0,1.0,6.0,6.0,606.5440930005934,7.0,1.0,phase_2,stop,550.0,450.0,3.0,,,,,,,,,magenta,hexagon
0.0,8.0,4.0,1.0,6.0,0.0,0.0,7.0,1.0,phase_2,stop,550.0,400.0,4.0,,,,,,,,,white,flipped triangle
0.0,1.0,1.0,0.0,6.0,6.0,821.4409009997325,7.0,1.0,phase_2,go,550.0,450.0,1.0,,,,,,,,,green,triangle
0.0,7.0,3.0,1.0,5.0,5.0,739.2934740000783,7.0,1.0,phase_2,stop,550.0,450.0,3.0,,,,,,,,,magenta,hexagon
0.0,5.0,1.0,1.0,5.0,0.0,0.0,7.0,1.0,phase_2,stop,500.0,450.0,4.0,,,,,,,,,orange,cross
0.0,7.0,3.0,1.0,5.0,5.0,745.5156019996139,7.0,1.0,phase_2,stop,550.0,450.0,3.0,,,,,,,,,magenta,hexagon
0.0,1.0,1.0,0.0,6.0,6.0,792.9951480000454,7.0,1.0,phase_2,go,500.0,450.0,1.0,,,,,,,,,green,triangle
0.0,3.0,3.0,0.0,6.0,6.0,729.194206000102,7.0,1.0,phase_2,go,500.0,450.0,1.0,,,,,,,,,blue,circle
0.0,6.0,2.0,1.0,5.0,5.0,933.8467309999032,7.0,1.0,phase_2,go,500.0,450.0,1.0,,,,,,,,,gray,square
0.0,7.0,3.0,1.0,5.0,0.0,0.0,7.0,1.0,phase_2,stop,500.0,450.0,4.0,,,,,,,,,magenta,hexagon
0.0,1.0,1.0,0.0,6.0,6.0,829.9686059999658,7.0,1.0,phase_2,go,550.0,450.0,1.0,,,,,,,,,green,triangle
0.0,2.0,2.0,0.0,6.0,6.0,697.0204279996324,7.0,1.0,phase_2,go,550.0,450.0,1.0,,,,,,,,,cyan,I
0.0,3.0,3.0,0.0,5.0,5.0,444.556786999783,8.0,1.0,phase_2,go,550.0,450.0,1.0,,,,,,,,,blue,circle
0.0,2.0,2.0,0.0,5.0,5.0,632.4423490004847,8.0,1.0,phase_2,go,550.0,450.0,1.0,,,,,,,,,cyan,I
0.0,6.0,2.0,1.0,6.0,6.0,622.0810909999273,8.0,1.0,phase_2,stop,550.0,450.0,3.0,,,,,,,,,gray,square
0.0,5.0,1.0,1.0,6.0,0.0,0.0,8.0,1.0,phase_2,stop,550.0,400.0,4.0,,,,,,,,,orange,cross
0.0,4.0,4.0,0.0,6.0,6.0,861.0187240001324,8.0,1.0,phase_2,go,550.0,450.0,1.0,,,,,,,,,yellow,diamond
0.0,4.0,4.0,0.0,5.0,5.0,653.2753459996457,8.0,1.0,phase_2,go,550.0,450.0,1.0,,,,,,,,,yellow,diamond
0.0,2.0,2.0,0.0,5.0,5.0,407.3011069995118,8.0,1.0,phase_2,go,550.0,450.0,1.0,,,,,,,,,cyan,I
0.0,7.0,3.0,1.0,6.0,0.0,0.0,8.0,1.0,phase_2,stop,550.0,450.0,4.0,,,,,,,,,magenta,hexagon
0.0,8.0,4.0,1.0,6.0,6.0,699.9929710000288,8.0,1.0,phase_2,stop,550.0,500.0,3.0,,,,,,,,,white,flipped triangle
0.0,2.0,2.0,0.0,5.0,5.0,264.8151670000516,8.0,1.0,phase_2,go,550.0,450.0,1.0,,,,,,,,,cyan,I
0.0,8.0,4.0,1.0,5.0,5.0,671.3523149992398,8.0,1.0,phase_2,stop,550.0,450.0,3.0,,,,,,,,,white,flipped triangle
0.0,1.0,1.0,0.0,6.0,6.0,453.990091000378,8.0,1.0,phase_2,go,500.0,450.0,1.0,,,,,,,,,green,triangle
0.0,5.0,1.0,1.0,6.0,0.0,0.0,8.0,1.0,phase_2,stop,500.0,450.0,4.0,,,,,,,,,orange,cross
0.0,8.0,4.0,1.0,6.0,0.0,0.0,8.0,1.0,phase_2,stop,500.0,500.0,4.0,,,,,,,,,white,flipped triangle
0.0,7.0,3.0,1.0,6.0,0.0,0.0,8.0,1.0,phase_2,stop,500.0,550.0,4.0,,,,,,,,,magenta,hexagon
0.0,1.0,1.0,0.0,5.0,5.0,776.1780809996708,8.0,1.0,phase_2,go,500.0,600.0,1.0,,,,,,,,,green,triangle
0.0,1.0,1.0,0.0,5.0,5.0,1033.9697959998375,8.0,1.0,phase_2,go,500.0,600.0,1.0,,,,,,,,,green,triangle
0.0,8.0,4.0,1.0,5.0,5.0,642.3413369993796,8.0,1.0,phase_2,stop,500.0,600.0,3.0,,,,,,,,,white,flipped triangle
0.0,2.0,2.0,0.0,6.0,6.0,650.9796950003874,8.0,1.0,phase_2,go,450.0,600.0,1.0,,,,,,,,,cyan,I
0.0,7.0,3.0,1.0,5.0,0.0,0.0,8.0,1.0,phase_2,stop,450.0,600.0,4.0,,,,,,,,,magenta,hexagon
0.0,4.0,4.0,0.0,5.0,5.0,831.2673190002897,8.0,1.0,phase_2,go,500.0,600.0,1.0,,,,,,,,,yellow,diamond
0.0,5.0,1.0,1.0,6.0,6.0,699.5423809994463,8.0,1.0,phase_2,go,500.0,600.0,1.0,,,,,,,,,orange,cross
0.0,7.0,3.0,1.0,5.0,5.0,387.3930919999111,8.0,1.0,phase_2,go,500.0,600.0,1.0,,,,,,,,,magenta,hexagon
0.0,6.0,2.0,1.0,6.0,6.0,596.0830120002356,8.0,1.0,phase_2,go,500.0,600.0,1.0,,,,,,,,,gray,square
0.0,8.0,4.0,1.0,5.0,5.0,397.0155420001902,8.0,1.0,phase_2,go,500.0,600.0,1.0,,,,,,,,,white,flipped triangle
0.0,6.0,2.0,1.0,5.0,5.0,647.939383999983,8.0,1.0,phase_2,stop,500.0,600.0,3.0,,,,,,,,,gray,square
0.0,7.0,3.0,1.0,5.0,0.0,0.0,8.0,1.0,phase_2,stop,450.0,600.0,4.0,,,,,,,,,magenta,hexagon
0.0,6.0,2.0,1.0,5.0,0.0,0.0,8.0,1.0,phase_2,stop,500.0,600.0,4.0,,,,,,,,,gray,square
0.0,2.0,2.0,0.0,5.0,5.0,612.2957849993327,8.0,1.0,phase_2,go,550.0,600.0,1.0,,,,,,,,,cyan,I
0.0,7.0,3.0,1.0,6.0,6.0,415.6076880008186,8.0,1.0,phase_2,go,550.0,600.0,1.0,,,,,,,,,magenta,hexagon
0.0,2.0,2.0,0.0,5.0,5.0,499.6026139997411,8.0,1.0,phase_2,go,550.0,600.0,1.0,,,,,,,,,cyan,I
0.0,3.0,3.0,0.0,6.0,6.0,633.2614340008149,8.0,1.0,phase_2,go,550.0,600.0,1.0,,,,,,,,,blue,circle
0.0,7.0,3.0,1.0,6.0,6.0,951.8327590003536,8.0,1.0,phase_2,go,550.0,600.0,1.0,,,,,,,,,magenta,hexagon
0.0,8.0,4.0,1.0,6.0,6.0,770.07361699998,8.0,1.0,phase_2,stop,550.0,600.0,3.0,,,,,,,,,white,flipped triangle
0.0,6.0,2.0,1.0,6.0,0.0,0.0,8.0,1.0,phase_2,stop,550.0,550.0,4.0,,,,,,,,,gray,square
0.0,8.0,4.0,1.0,5.0,0.0,0.0,8.0,1.0,phase_2,stop,550.0,600.0,4.0,,,,,,,,,white,flipped triangle
0.0,4.0,4.0,0.0,7.0,2.0,4309.788132999529,1.0,1.0,phase_3,,,,,616.0,4.0,308.0,616.0,770.0,154.0,924.0,462.0,yellow,diamond
0.0,8.0,4.0,1.0,7.0,6.0,4010.343995999392,1.0,1.0,phase_3,,,,,232.0,2.0,580.0,464.0,696.0,348.0,116.0,232.0,white,flipped triangle
0.0,7.0,3.0,1.0,7.0,4.0,1209.1410570001244,1.0,2.0,phase_3,,,,,540.0,4.0,810.0,270.0,675.0,540.0,135.0,405.0,magenta,hexagon
0.0,1.0,1.0,0.0,7.0,2.0,1435.8637590003127,1.0,1.0,phase_3,,,,,232.0,2.0,116.0,232.0,348.0,696.0,580.0,464.0,green,triangle
0.0,1.0,1.0,0.0,7.0,5.0,2011.6789439998684,1.0,1.0,phase_3,,,,,270.0,2.0,405.0,675.0,135.0,540.0,270.0,810.0,green,triangle
0.0,6.0,2.0,1.0,7.0,6.0,2794.947235000109,1.0,1.0,phase_3,,,,,540.0,4.0,135.0,810.0,270.0,675.0,405.0,540.0,gray,square
0.0,7.0,3.0,1.0,7.0,1.0,2877.673058000255,1.0,1.0,phase_3,,,,,576.0,3.0,576.0,768.0,960.0,1152.0,384.0,192.0,magenta,hexagon
0.0,3.0,3.0,0.0,7.0,2.0,3782.829765000315,1.0,1.0,phase_3,,,,,192.0,1.0,1152.0,192.0,960.0,576.0,768.0,384.0,blue,circle
0.0,5.0,1.0,1.0,7.0,5.0,2141.16219799962,1.0,1.0,phase_3,,,,,346.0,2.0,173.0,865.0,519.0,692.0,346.0,1038.0,orange,cross
0.0,7.0,3.0,1.0,7.0,3.0,3545.3233750004074,1.0,1.0,phase_3,,,,,116.0,1.0,464.0,580.0,116.0,348.0,232.0,696.0,magenta,hexagon
0.0,3.0,3.0,0.0,7.0,6.0,4099.768353999934,1.0,1.0,phase_3,,,,,346.0,2.0,865.0,692.0,519.0,1038.0,173.0,346.0,blue,circle
0.0,5.0,1.0,1.0,7.0,5.0,2573.306594999849,1.0,1.0,phase_3,,,,,464.0,4.0,116.0,580.0,696.0,232.0,464.0,348.0,orange,cross
0.0,1.0,1.0,0.0,7.0,1.0,1905.6419980006467,1.0,1.0,phase_3,,,,,696.0,6.0,696.0,348.0,116.0,232.0,580.0,464.0,green,triangle
0.0,1.0,1.0,0.0,7.0,4.0,2810.374665999916,1.0,1.0,phase_3,,,,,308.0,2.0,462.0,154.0,770.0,308.0,924.0,616.0,green,triangle
0.0,4.0,4.0,0.0,7.0,3.0,2544.99649599984,1.0,1.0,phase_3,,,,,692.0,4.0,865.0,346.0,692.0,173.0,519.0,1038.0,yellow,diamond
0.0,4.0,4.0,0.0,7.0,4.0,3396.093262999784,1.0,1.0,phase_3,,,,,696.0,6.0,116.0,232.0,580.0,696.0,464.0,348.0,yellow,diamond
0.0,5.0,1.0,1.0,7.0,5.0,2749.7902389995943,1.0,1.0,phase_3,,,,,770.0,5.0,154.0,924.0,616.0,308.0,770.0,462.0,orange,cross
0.0,5.0,1.0,1.0,7.0,2.0,1971.3322009993133,1.0,1.0,phase_3,,,,,576.0,3.0,960.0,576.0,384.0,768.0,1152.0,192.0,orange,cross
0.0,7.0,3.0,1.0,7.0,6.0,2319.2263629998706,1.0,1.0,phase_3,,,,,405.0,3.0,540.0,270.0,675.0,135.0,810.0,405.0,magenta,hexagon
0.0,6.0,2.0,1.0,7.0,1.0,1824.1869149997,1.0,1.0,phase_3,,,,,519.0,3.0,519.0,692.0,346.0,173.0,865.0,1038.0,gray,square
0.0,2.0,2.0,0.0,7.0,6.0,1799.3189999997412,2.0,1.0,phase_3,,,,,1152.0,6.0,192.0,768.0,960.0,576.0,384.0,1152.0,cyan,I
0.0,1.0,1.0,0.0,7.0,4.0,1294.2348890001083,2.0,1.0,phase_3,,,,,270.0,2.0,135.0,810.0,405.0,270.0,675.0,540.0,green,triangle
0.0,8.0,4.0,1.0,7.0,1.0,866.2782020001032,2.0,1.0,phase_3,,,,,405.0,3.0,405.0,135.0,810.0,675.0,270.0,540.0,white,flipped triangle
0.0,2.0,2.0,0.0,7.0,5.0,2647.654262999822,2.0,1.0,phase_3,,,,,696.0,6.0,348.0,580.0,232.0,116.0,696.0,464.0,cyan,I
0.0,8.0,4.0,1.0,7.0,6.0,1919.235839999601,2.0,1.0,phase_3,,,,,192.0,1.0,576.0,960.0,1152.0,768.0,384.0,192.0,white,flipped triangle
0.0,8.0,4.0,1.0,7.0,1.0,2478.3500710000226,2.0,1.0,phase_3,,,,,616.0,4.0,616.0,308.0,924.0,154.0,770.0,462.0,white,flipped triangle
0.0,3.0,3.0,0.0,7.0,6.0,3184.426435000205,2.0,1.0,phase_3,,,,,464.0,4.0,580.0,232.0,116.0,696.0,348.0,464.0,blue,circle
0.0,2.0,2.0,0.0,7.0,1.0,2873.8504610000746,2.0,1.0,phase_3,,,,,405.0,3.0,405.0,135.0,540.0,810.0,675.0,270.0,cyan,I
0.0,7.0,3.0,1.0,7.0,6.0,2611.774224999863,2.0,1.0,phase_3,,,,,692.0,4.0,519.0,865.0,1038.0,173.0,346.0,692.0,magenta,hexagon
0.0,6.0,2.0,1.0,7.0,5.0,2631.2793539991617,2.0,1.0,phase_3,,,,,770.0,5.0,924.0,308.0,462.0,154.0,770.0,616.0,gray,square
0.0,4.0,4.0,0.0,7.0,2.0,3279.1701060004925,2.0,1.0,phase_3,,,,,616.0,4.0,462.0,616.0,308.0,770.0,154.0,924.0,yellow,diamond
0.0,6.0,2.0,1.0,7.0,6.0,1882.4369670001036,2.0,1.0,phase_3,,,,,192.0,1.0,384.0,768.0,576.0,960.0,1152.0,192.0,gray,square
0.0,2.0,2.0,0.0,7.0,6.0,1772.9264320005311,2.0,1.0,phase_3,,,,,1038.0,6.0,173.0,519.0,346.0,692.0,865.0,1038.0,cyan,I
0.0,4.0,4.0,0.0,7.0,5.0,1985.96987000019,2.0,1.0,phase_3,,,,,580.0,5.0,696.0,464.0,348.0,116.0,580.0,232.0,yellow,diamond
0.0,3.0,3.0,0.0,7.0,2.0,2778.477689999818,2.0,1.0,phase_3,,,,,519.0,3.0,173.0,519.0,865.0,692.0,346.0,1038.0,blue,circle
0.0,4.0,4.0,0.0,7.0,5.0,1829.591124999752,2.0,1.0,phase_3,,,,,346.0,2.0,692.0,173.0,1038.0,519.0,346.0,865.0,yellow,diamond
0.0,5.0,1.0,1.0,7.0,2.0,2351.637630999903,2.0,1.0,phase_3,,,,,692.0,4.0,346.0,692.0,519.0,173.0,865.0,1038.0,orange,cross
0.0,2.0,2.0,0.0,7.0,5.0,2475.06728999997,2.0,1.0,phase_3,,,,,696.0,6.0,116.0,232.0,348.0,580.0,696.0,464.0,cyan,I
0.0,6.0,2.0,1.0,7.0,6.0,1949.010067999552,2.0,1.0,phase_3,,,,,464.0,4.0,116.0,580.0,232.0,348.0,696.0,464.0,gray,square
0.0,4.0,4.0,0.0,7.0,1.0,2020.5074189998413,2.0,1.0,phase_3,,,,,576.0,3.0,576.0,384.0,1152.0,192.0,960.0,768.0,yellow,diamond
0.0,7.0,3.0,1.0,7.0,4.0,1649.828558000081,3.0,1.0,phase_3,,,,,924.0,6.0,462.0,616.0,308.0,924.0,154.0,770.0,magenta,hexagon
0.0,1.0,1.0,0.0,7.0,2.0,1373.0301920004422,3.0,1.0,phase_3,,,,,865.0,5.0,519.0,865.0,1038.0,173.0,692.0,346.0,green,triangle
0.0,1.0,1.0,0.0,7.0,2.0,1731.2615889995868,3.0,1.0,phase_3,,,,,616.0,4.0,770.0,616.0,308.0,154.0,462.0,924.0,green,triangle
0.0,2.0,2.0,0.0,7.0,2.0,1919.5008430006053,3.0,1.0,phase_3,,,,,924.0,6.0,616.0,924.0,770.0,154.0,462.0,308.0,cyan,I
0.0,8.0,4.0,1.0,7.0,5.0,1428.6306390004029,3.0,1.0,phase_3,,,,,154.0,1.0,308.0,462.0,616.0,924.0,154.0,770.0,white,flipped triangle
0.0,6.0,2.0,1.0,7.0,1.0,2610.28857600013,3.0,1.0,phase_3,,,,,154.0,1.0,154.0,308.0,924.0,770.0,462.0,616.0,gray,square
0.0,6.0,2.0,1.0,7.0,1.0,1715.3262430001632,3.0,1.0,phase_3,,,,,173.0,1.0,173.0,865.0,1038.0,346.0,519.0,692.0,gray,square
0.0,8.0,4.0,1.0,7.0,5.0,1627.5832580004137,3.0,1.0,phase_3,,,,,173.0,1.0,865.0,346.0,519.0,692.0,173.0,1038.0,white,flipped triangle
0.0,7.0,3.0,1.0,7.0,4.0,2409.947660999933,3.0,1.0,phase_3,,,,,464.0,4.0,696.0,348.0,116.0,464.0,232.0,580.0,magenta,hexagon
0.0,3.0,3.0,0.0,7.0,4.0,1583.700000000135,3.0,1.0,phase_3,,,,,232.0,2.0,696.0,580.0,348.0,232.0,464.0,116.0,blue,circle
0.0,5.0,1.0,1.0,7.0,2.0,2608.439026999804,3.0,1.0,phase_3,,,,,540.0,4.0,270.0,540.0,675.0,405.0,810.0,135.0,orange,cross
0.0,4.0,4.0,0.0,7.0,4.0,2649.7042820001298,3.0,1.0,phase_3,,,,,384.0,2.0,192.0,960.0,1152.0,384.0,576.0,768.0,yellow,diamond
0.0,5.0,1.0,1.0,7.0,6.0,1656.9922819999192,3.0,1.0,phase_3,,,,,384.0,2.0,960.0,576.0,768.0,1152.0,192.0,384.0,orange,cross
0.0,3.0,3.0,0.0,7.0,5.0,3027.1357170004194,3.0,1.0,phase_3,,,,,308.0,2.0,924.0,154.0,770.0,616.0,308.0,462.0,blue,circle
0.0,8.0,4.0,1.0,7.0,3.0,1251.8653429997355,3.0,1.0,phase_3,,,,,135.0,1.0,270.0,675.0,135.0,540.0,810.0,405.0,white,flipped triangle
0.0,5.0,1.0,1.0,7.0,4.0,2184.077894999973,3.0,1.0,phase_3,,,,,405.0,3.0,270.0,675.0,810.0,405.0,135.0,540.0,orange,cross
0.0,5.0,1.0,1.0,7.0,1.0,2183.821956999964,3.0,1.0,phase_3,,,,,462.0,3.0,462.0,154.0,924.0,308.0,616.0,770.0,orange,cross
0.0,3.0,3.0,0.0,7.0,4.0,1722.50283700032,3.0,1.0,phase_3,,,,,308.0,2.0,154.0,770.0,462.0,308.0,616.0,924.0,blue,circle
0.0,2.0,2.0,0.0,7.0,5.0,2394.825139000204,3.0,1.0,phase_3,,,,,924.0,6.0,462.0,770.0,308.0,616.0,924.0,154.0,cyan,I
0.0,8.0,4.0,1.0,7.0,4.0,1778.4185880000225,3.0,1.0,phase_3,,,,,173.0,1.0,1038.0,865.0,519.0,173.0,346.0,692.0,white,flipped triangle
0.0,7.0,3.0,1.0,7.0,5.0,1591.3432719999037,4.0,1.0,phase_3,,,,,308.0,2.0,924.0,462.0,616.0,154.0,308.0,770.0,magenta,hexagon
0.0,3.0,3.0,0.0,7.0,1.0,1916.581527000744,4.0,1.0,phase_3,,,,,270.0,2.0,270.0,135.0,540.0,405.0,810.0,675.0,blue,circle
0.0,3.0,3.0,0.0,7.0,3.0,2627.243960000669,4.0,1.0,phase_3,,,,,384.0,2.0,576.0,960.0,384.0,192.0,768.0,1152.0,blue,circle
0.0,5.0,1.0,1.0,7.0,1.0,2056.9624210002075,4.0,1.0,phase_3,,,,,464.0,4.0,464.0,232.0,116.0,348.0,580.0,696.0,orange,cross
0.0,8.0,4.0,1.0,7.0,3.0,1620.8950170002936,4.0,1.0,phase_3,,,,,232.0,2.0,116.0,696.0,232.0,464.0,348.0,580.0,white,flipped triangle
0.0,6.0,2.0,1.0,7.0,1.0,1831.150759000593,4.0,1.0,phase_3,,,,,192.0,1.0,192.0,768.0,384.0,960.0,576.0,1152.0,gray,square
0.0,4.0,4.0,0.0,7.0,5.0,1687.1243460000187,4.0,1.0,phase_3,,,,,270.0,2.0,675.0,540.0,135.0,810.0,270.0,405.0,yellow,diamond
0.0,3.0,3.0,0.0,7.0,6.0,2722.591007000119,4.0,1.0,phase_3,,,,,270.0,2.0,675.0,405.0,135.0,540.0,810.0,270.0,blue,circle
0.0,6.0,2.0,1.0,7.0,6.0,1660.0125080003636,4.0,1.0,phase_3,,,,,135.0,1.0,675.0,810.0,540.0,405.0,270.0,135.0,gray,square
0.0,1.0,1.0,0.0,7.0,4.0,1892.8095519995625,4.0,1.0,phase_3,,,,,576.0,3.0,960.0,384.0,1152.0,576.0,192.0,768.0,green,triangle
0.0,1.0,1.0,0.0,7.0,3.0,1585.077310000088,4.0,1.0,phase_3,,,,,576.0,3.0,768.0,1152.0,576.0,384.0,960.0,192.0,green,triangle
0.0,2.0,2.0,0.0,7.0,5.0,1717.606225000054,4.0,1.0,phase_3,,,,,1038.0,6.0,865.0,346.0,519.0,173.0,1038.0,692.0,cyan,I
0.0,7.0,3.0,1.0,7.0,5.0,2206.3146899999992,4.0,1.0,phase_3,,,,,576.0,3.0,1152.0,960.0,768.0,192.0,576.0,384.0,magenta,hexagon
0.0,2.0,2.0,0.0,7.0,3.0,2533.5514850003165,4.0,1.0,phase_3,,,,,675.0,5.0,135.0,540.0,675.0,270.0,405.0,810.0,cyan,I
0.0,2.0,2.0,0.0,7.0,4.0,2212.7358710004046,4.0,1.0,phase_3,,,,,768.0,4.0,960.0,1152.0,192.0,768.0,576.0,384.0,cyan,I
0.0,4.0,4.0,0.0,7.0,3.0,3362.427805000152,4.0,1.0,phase_3,,,,,540.0,4.0,675.0,270.0,540.0,135.0,405.0,810.0,yellow,diamond
0.0,6.0,2.0,1.0,7.0,6.0,1676.7991010001424,4.0,1.0,phase_3,,,,,116.0,1.0,464.0,232.0,580.0,696.0,348.0,116.0,gray,square
0.0,7.0,3.0,1.0,7.0,5.0,1579.5932480004922,4.0,1.0,phase_3,,,,,346.0,2.0,1038.0,519.0,692.0,865.0,346.0,173.0,magenta,hexagon
0.0,8.0,4.0,1.0,7.0,2.0,1994.961926000542,4.0,1.0,phase_3,,,,,192.0,1.0,384.0,192.0,576.0,1152.0,960.0,768.0,white,flipped triangle
0.0,1.0,1.0,0.0,7.0,2.0,1456.3221609996615,4.0,1.0,phase_3,,,,,173.0,1.0,692.0,173.0,519.0,1038.0,865.0,346.0,green,triangle
