raw_reward_magnitude,stim_reward,stepwise_reward_magnitude,paired_with_stopping,quadrant,response,reaction_time,block,num_trial_presentations,which_part,stop_signal_trial_type,left_SSD,right_SSD,accuracy,chosen_bidding_amount,chosen_bidding_level,possible_bid_1,possible_bid_2,possible_bid_3,possible_bid_4,possible_bid_5,possible_bid_6,color_text,shape_text
1324.0,8.0,4.0,1.0,4.0,4.0,461.61361299982667,1.0,1.0,part_1,,,,,,,,,,,,,white,hexagon
0.0,4.0,0.0,0.0,2.0,2.0,445.1791589999629,1.0,1.0,part_1,,,,,,,,,,,,,orange,square
0.0,6.0,0.0,1.0,1.0,1.0,507.176988999845,1.0,1.0,part_1,,,,,,,,,,,,,cyan,cross
0.0,1.0,0.0,0.0,1.0,1.0,426.3850070001354,1.0,1.0,part_1,,,,,,,,,,,,,magenta,circle
656.0,3.0,3.0,0.0,1.0,1.0,573.2532669999273,1.0,1.0,part_1,,,,,,,,,,,,,blue,triangle
322.0,6.0,2.0,1.0,1.0,1.0,462.0038779999049,1.0,1.0,part_1,,,,,,,,,,,,,cyan,cross
144.0,5.0,1.0,1.0,4.0,4.0,380.8357640000395,1.0,1.0,part_1,,,,,,,,,,,,,gray,I
0.0,8.0,0.0,1.0,1.0,1.0,442.3995520000972,1.0,1.0,part_1,,,,,,,,,,,,,white,hexagon
1312.0,4.0,4.0,0.0,3.0,3.0,371.9072260000757,1.0,1.0,part_1,,,,,,,,,,,,,orange,square
179.0,5.0,1.0,1.0,1.0,1.0,445.1298159999624,1.0,1.0,part_1,,,,,,,,,,,,,gray,I
0.0,8.0,0.0,1.0,4.0,4.0,388.4149949999482,1.0,1.0,part_1,,,,,,,,,,,,,white,hexagon
0.0,1.0,0.0,0.0,1.0,1.0,369.728903999885,1.0,1.0,part_1,,,,,,,,,,,,,magenta,circle
0.0,5.0,0.0,1.0,1.0,1.0,347.8156240000771,1.0,1.0,part_1,,,,,,,,,,,,,gray,I
314.0,2.0,2.0,0.0,2.0,2.0,351.9619339999735,1.0,1.0,part_1,,,,,,,,,,,,,yellow,diamond
317.0,2.0,2.0,0.0,4.0,4.0,361.7991379999239,1.0,1.0,part_1,,,,,,,,,,,,,yellow,diamond
317.0,6.0,2.0,1.0,4.0,4.0,334.7423459999845,1.0,1.0,part_1,,,,,,,,,,,,,cyan,cross
656.0,7.0,3.0,1.0,3.0,3.0,306.9975979999526,1.0,1.0,part_1,,,,,,,,,,,,,green,flipped triangle
0.0,5.0,0.0,1.0,3.0,3.0,315.7564610000918,1.0,1.0,part_1,,,,,,,,,,,,,gray,I
0.0,5.0,0.0,1.0,1.0,1.0,351.5573849999782,1.0,1.0,part_1,,,,,,,,,,,,,gray,I
322.0,2.0,2.0,0.0,2.0,2.0,433.6793859999943,1.0,2.0,part_1,,,,,,,,,,,,,yellow,diamond
1324.0,8.0,4.0,1.0,4.0,4.0,452.4912310000673,1.0,1.0,part_1,,,,,,,,,,,,,white,hexagon
656.0,3.0,3.0,0.0,1.0,1.0,387.6214060001075,1.0,1.0,part_1,,,,,,,,,,,,,blue,triangle
164.0,5.0,1.0,1.0,1.0,1.0,379.9880070000654,1.0,1.0,part_1,,,,,,,,,,,,,gray,I
1302.0,8.0,4.0,1.0,3.0,3.0,342.6979369999117,1.0,1.0,part_1,,,,,,,,,,,,,white,hexagon
0.0,5.0,0.0,1.0,4.0,4.0,370.3039009999429,1.0,1.0,part_1,,,,,,,,,,,,,gray,I
643.0,3.0,3.0,0.0,2.0,2.0,332.51775299982,1.0,2.0,part_1,,,,,,,,,,,,,blue,triangle
1323.0,4.0,4.0,0.0,3.0,3.0,406.8485360000977,1.0,1.0,part_1,,,,,,,,,,,,,orange,square
642.0,3.0,3.0,0.0,4.0,4.0,379.0681689999928,1.0,1.0,part_1,,,,,,,,,,,,,blue,triangle
0.0,3.0,0.0,0.0,4.0,4.0,417.0971680000548,1.0,1.0,part_1,,,,,,,,,,,,,blue,triangle
159.0,5.0,1.0,1.0,3.0,3.0,370.7401480000953,1.0,1.0,part_1,,,,,,,,,,,,,gray,I
626.0,3.0,3.0,0.0,3.0,3.0,343.051044999811,1.0,1.0,part_1,,,,,,,,,,,,,blue,triangle
657.0,3.0,3.0,0.0,4.0,4.0,397.7096119999714,1.0,1.0,part_1,,,,,,,,,,,,,blue,triangle
174.0,5.0,1.0,1.0,1.0,1.0,399.0983549999782,1.0,1.0,part_1,,,,,,,,,,,,,gray,I
345.0,6.0,2.0,1.0,4.0,4.0,362.0566829999916,1.0,1.0,part_1,,,,,,,,,,,,,cyan,cross
307.0,6.0,2.0,1.0,3.0,3.0,323.6509869998372,1.0,1.0,part_1,,,,,,,,,,,,,cyan,cross
146.0,1.0,1.0,0.0,1.0,1.0,546.3401140000315,1.0,1.0,part_1,,,,,,,,,,,,,magenta,circle
1279.0,8.0,4.0,1.0,4.0,4.0,361.3816100000804,1.0,1.0,part_1,,,,,,,,,,,,,white,hexagon
0.0,4.0,0.0,0.0,3.0,3.0,454.7896699998546,1.0,1.0,part_1,,,,,,,,,,,,,orange,square
316.0,2.0,2.0,0.0,2.0,2.0,445.1046459998906,1.0,1.0,part_1,,,,,,,,,,,,,yellow,diamond
1297.0,4.0,4.0,0.0,4.0,4.0,351.816011999972,1.0,1.0,part_1,,,,,,,,,,,,,orange,square
653.0,3.0,3.0,0.0,4.0,4.0,325.1839300000938,1.0,1.0,part_1,,,,,,,,,,,,,blue,triangle
1323.0,4.0,4.0,0.0,2.0,2.0,388.5816280001108,1.0,1.0,part_1,,,,,,,,,,,,,orange,square
0.0,5.0,0.0,1.0,1.0,1.0,471.5048349999051,1.0,1.0,part_1,,,,,,,,,,,,,gray,I
140.0,1.0,1.0,0.0,1.0,1.0,526.6425499999059,1.0,1.0,part_1,,,,,,,,,,,,,magenta,circle
310.0,6.0,2.0,1.0,1.0,1.0,471.1040820000107,1.0,1.0,part_1,,,,,,,,,,,,,cyan,cross
0.0,5.0,0.0,1.0,2.0,2.0,462.48555200008917,1.0,1.0,part_1,,,,,,,,,,,,,gray,I
0.0,4.0,0.0,0.0,1.0,1.0,361.0386630000448,1.0,1.0,part_1,,,,,,,,,,,,,orange,square
325.0,2.0,2.0,0.0,1.0,1.0,371.8858499998987,1.0,1.0,part_1,,,,,,,,,,,,,yellow,diamond
0.0,1.0,0.0,0.0,2.0,2.0,451.9872040000336,1.0,1.0,part_1,,,,,,,,,,,,,magenta,circle
319.0,2.0,2.0,0.0,1.0,1.0,304.679133000036,1.0,1.0,part_1,,,,,,,,,,,,,yellow,diamond
326.0,6.0,2.0,1.0,3.0,3.0,360.9258189999309,1.0,1.0,part_1,,,,,,,,,,,,,cyan,cross
1311.0,8.0,4.0,1.0,1.0,1.0,398.0444270000589,1.0,1.0,part_1,,,,,,,,,,,,,white,hexagon
339.0,2.0,2.0,0.0,3.0,3.0,295.7712350000747,1.0,1.0,part_1,,,,,,,,,,,,,yellow,diamond
657.0,3.0,3.0,0.0,2.0,2.0,472.6239009999062,1.0,1.0,part_1,,,,,,,,,,,,,blue,triangle
348.0,2.0,2.0,0.0,2.0,2.0,340.5171399999744,1.0,1.0,part_1,,,,,,,,,,,,,yellow,diamond
0.0,7.0,0.0,1.0,2.0,2.0,407.3724979998587,1.0,1.0,part_1,,,,,,,,,,,,,green,flipped triangle
0.0,4.0,0.0,0.0,3.0,3.0,351.908676999983,1.0,1.0,part_1,,,,,,,,,,,,,orange,square
146.0,1.0,1.0,0.0,3.0,3.0,398.8985220000813,1.0,1.0,part_1,,,,,,,,,,,,,magenta,circle
187.0,5.0,1.0,1.0,3.0,3.0,296.4965379999285,1.0,1.0,part_1,,,,,,,,,,,,,gray,I
657.0,7.0,3.0,1.0,1.0,1.0,378.3219729998563,1.0,1.0,part_1,,,,,,,,,,,,,green,flipped triangle
1300.0,4.0,4.0,0.0,1.0,1.0,417.2268110000914,1.0,1.0,part_1,,,,,,,,,,,,,orange,square
629.0,7.0,3.0,1.0,2.0,2.0,351.8682219998936,1.0,1.0,part_1,,,,,,,,,,,,,green,flipped triangle
1279.0,4.0,4.0,0.0,4.0,4.0,369.5969210000385,1.0,2.0,part_1,,,,,,,,,,,,,orange,square
1312.0,8.0,4.0,1.0,3.0,3.0,423.4795340000801,1.0,1.0,part_1,,,,,,,,,,,,,white,hexagon
137.0,1.0,1.0,0.0,4.0,4.0,433.6764859999675,1.0,1.0,part_1,,,,,,,,,,,,,magenta,circle
1299.0,8.0,4.0,1.0,3.0,3.0,436.6746579999017,1.0,1.0,part_1,,,,,,,,,,,,,white,hexagon
176.0,5.0,1.0,1.0,4.0,4.0,506.76651100002346,1.0,1.0,part_1,,,,,,,,,,,,,gray,I
320.0,2.0,2.0,0.0,1.0,1.0,460.9546770000179,1.0,1.0,part_1,,,,,,,,,,,,,yellow,diamond
667.0,7.0,3.0,1.0,1.0,1.0,379.8256910001782,1.0,1.0,part_1,,,,,,,,,,,,,green,flipped triangle
1296.0,4.0,4.0,0.0,1.0,1.0,435.285039999826,1.0,1.0,part_1,,,,,,,,,,,,,orange,square
665.0,7.0,3.0,1.0,4.0,4.0,369.0963139999894,1.0,1.0,part_1,,,,,,,,,,,,,green,flipped triangle
323.0,6.0,2.0,1.0,1.0,1.0,342.4440080000295,1.0,1.0,part_1,,,,,,,,,,,,,cyan,cross
645.0,3.0,3.0,0.0,4.0,4.0,333.7790880000284,1.0,1.0,part_1,,,,,,,,,,,,,blue,triangle
0.0,4.0,0.0,0.0,4.0,4.0,351.1882159998549,1.0,1.0,part_1,,,,,,,,,,,,,orange,square
661.0,3.0,3.0,0.0,3.0,3.0,554.5936729999994,1.0,1.0,part_1,,,,,,,,,,,,,blue,triangle
630.0,7.0,3.0,1.0,2.0,2.0,748.6893109999073,1.0,1.0,part_1,,,,,,,,,,,,,green,flipped triangle
1312.0,8.0,4.0,1.0,1.0,1.0,702.9156670000702,1.0,1.0,part_1,,,,,,,,,,,,,white,hexagon
672.0,3.0,3.0,0.0,1.0,1.0,629.6008560000246,1.0,1.0,part_1,,,,,,,,,,,,,blue,triangle
1317.0,4.0,4.0,0.0,4.0,4.0,730.8660730000156,1.0,1.0,part_1,,,,,,,,,,,,,orange,square
0.0,8.0,0.0,1.0,3.0,3.0,565.6968759999472,1.0,1.0,part_1,,,,,,,,,,,,,white,hexagon
0.0,7.0,0.0,1.0,3.0,3.0,536.7434739998771,1.0,2.0,part_1,,,,,,,,,,,,,green,flipped triangle
336.0,2.0,2.0,0.0,4.0,4.0,555.0653059999604,1.0,1.0,part_1,,,,,,,,,,,,,yellow,diamond
344.0,2.0,2.0,0.0,1.0,1.0,693.9233479999984,1.0,1.0,part_1,,,,,,,,,,,,,yellow,diamond
150.0,5.0,1.0,1.0,3.0,3.0,673.7990819999595,1.0,1.0,part_1,,,,,,,,,,,,,gray,I
176.0,1.0,1.0,0.0,2.0,2.0,693.7540349999836,1.0,1.0,part_1,,,,,,,,,,,,,magenta,circle
1324.0,4.0,4.0,0.0,4.0,4.0,720.7883220000895,1.0,1.0,part_1,,,,,,,,,,,,,orange,square
169.0,1.0,1.0,0.0,3.0,3.0,673.6895499998354,1.0,1.0,part_1,,,,,,,,,,,,,magenta,circle
674.0,7.0,3.0,1.0,1.0,1.0,444.143372000326,1.0,1.0,part_1,,,,,,,,,,,,,green,flipped triangle
1315.0,8.0,4.0,1.0,2.0,2.0,508.8306749998992,1.0,1.0,part_1,,,,,,,,,,,,,white,hexagon
1323.0,8.0,4.0,1.0,1.0,1.0,813.3786759999566,1.0,1.0,part_1,,,,,,,,,,,,,white,hexagon
163.0,5.0,1.0,1.0,2.0,2.0,544.3459759999314,1.0,1.0,part_1,,,,,,,,,,,,,gray,I
0.0,7.0,0.0,1.0,1.0,1.0,517.9370830001062,1.0,1.0,part_1,,,,,,,,,,,,,green,flipped triangle
169.0,5.0,1.0,1.0,4.0,4.0,536.5201399999933,1.0,1.0,part_1,,,,,,,,,,,,,gray,I
1309.0,4.0,4.0,0.0,2.0,2.0,470.2152390000265,1.0,1.0,part_1,,,,,,,,,,,,,orange,square
0.0,2.0,0.0,0.0,2.0,2.0,378.7106869999661,1.0,1.0,part_1,,,,,,,,,,,,,yellow,diamond
348.0,6.0,2.0,1.0,4.0,4.0,452.6741300001049,1.0,1.0,part_1,,,,,,,,,,,,,cyan,cross
648.0,3.0,3.0,0.0,2.0,2.0,397.7727940000477,1.0,1.0,part_1,,,,,,,,,,,,,blue,triangle
164.0,1.0,1.0,0.0,3.0,3.0,442.6012769999943,1.0,1.0,part_1,,,,,,,,,,,,,magenta,circle
167.0,5.0,1.0,1.0,2.0,2.0,434.0263039998717,1.0,1.0,part_1,,,,,,,,,,,,,gray,I
0.0,1.0,0.0,0.0,3.0,3.0,712.4753520001832,1.0,1.0,part_1,,,,,,,,,,,,,magenta,circle
332.0,2.0,2.0,0.0,4.0,4.0,527.3257819999344,2.0,1.0,part_1,,,,,,,,,,,,,yellow,diamond
1290.0,4.0,4.0,0.0,4.0,4.0,361.4802560000498,2.0,1.0,part_1,,,,,,,,,,,,,orange,square
137.0,5.0,1.0,1.0,4.0,4.0,435.2932920000967,2.0,1.0,part_1,,,,,,,,,,,,,gray,I
0.0,7.0,0.0,1.0,1.0,1.0,545.4972640000051,2.0,1.0,part_1,,,,,,,,,,,,,green,flipped triangle
0.0,4.0,0.0,0.0,1.0,1.0,730.5702170001496,2.0,1.0,part_1,,,,,,,,,,,,,orange,square
0.0,4.0,0.0,0.0,2.0,2.0,785.9636199996203,2.0,1.0,part_1,,,,,,,,,,,,,orange,square
665.0,3.0,3.0,0.0,1.0,1.0,858.7516030002007,2.0,1.0,part_1,,,,,,,,,,,,,blue,triangle
166.0,5.0,1.0,1.0,4.0,4.0,748.6126130002049,2.0,1.0,part_1,,,,,,,,,,,,,gray,I
317.0,6.0,2.0,1.0,4.0,4.0,897.1591640001861,2.0,1.0,part_1,,,,,,,,,,,,,cyan,cross
320.0,6.0,2.0,1.0,4.0,4.0,813.8090990000819,2.0,1.0,part_1,,,,,,,,,,,,,cyan,cross
154.0,5.0,1.0,1.0,4.0,4.0,396.9036329999653,2.0,1.0,part_1,,,,,,,,,,,,,gray,I
167.0,1.0,1.0,0.0,1.0,1.0,443.7544319998778,2.0,1.0,part_1,,,,,,,,,,,,,magenta,circle
0.0,3.0,0.0,0.0,4.0,4.0,461.5383679997649,2.0,1.0,part_1,,,,,,,,,,,,,blue,triangle
183.0,5.0,1.0,1.0,2.0,2.0,498.8165029999436,2.0,1.0,part_1,,,,,,,,,,,,,gray,I
0.0,2.0,0.0,0.0,2.0,2.0,490.615015000003,2.0,1.0,part_1,,,,,,,,,,,,,yellow,diamond
0.0,2.0,0.0,0.0,2.0,2.0,333.4510720001162,2.0,1.0,part_1,,,,,,,,,,,,,yellow,diamond
674.0,3.0,3.0,0.0,4.0,4.0,794.6360290002303,2.0,1.0,part_1,,,,,,,,,,,,,blue,triangle
1300.0,8.0,4.0,1.0,1.0,1.0,406.6336199998659,2.0,1.0,part_1,,,,,,,,,,,,,white,hexagon
629.0,3.0,3.0,0.0,3.0,3.0,379.1291769998679,2.0,2.0,part_1,,,,,,,,,,,,,blue,triangle
1296.0,8.0,4.0,1.0,2.0,2.0,492.0879830001468,2.0,1.0,part_1,,,,,,,,,,,,,white,hexagon
1280.0,8.0,4.0,1.0,4.0,4.0,388.7602509998942,2.0,1.0,part_1,,,,,,,,,,,,,white,hexagon
645.0,7.0,3.0,1.0,3.0,3.0,573.7509539999337,2.0,1.0,part_1,,,,,,,,,,,,,green,flipped triangle
0.0,6.0,0.0,1.0,2.0,2.0,516.4732709999953,2.0,1.0,part_1,,,,,,,,,,,,,cyan,cross
1317.0,8.0,4.0,1.0,4.0,4.0,454.1189310002664,2.0,1.0,part_1,,,,,,,,,,,,,white,hexagon
0.0,7.0,0.0,1.0,4.0,4.0,418.4785069996906,2.0,1.0,part_1,,,,,,,,,,,,,green,flipped triangle
1309.0,8.0,4.0,1.0,1.0,1.0,685.7850050000707,2.0,1.0,part_1,,,,,,,,,,,,,white,hexagon
317.0,2.0,2.0,0.0,1.0,1.0,518.5634090003077,2.0,2.0,part_1,,,,,,,,,,,,,yellow,diamond
155.0,5.0,1.0,1.0,1.0,1.0,563.2712029996583,2.0,1.0,part_1,,,,,,,,,,,,,gray,I
345.0,2.0,2.0,0.0,4.0,4.0,407.2926500002722,2.0,1.0,part_1,,,,,,,,,,,,,yellow,diamond
315.0,2.0,2.0,0.0,2.0,2.0,489.3987860000379,2.0,1.0,part_1,,,,,,,,,,,,,yellow,diamond
306.0,6.0,2.0,1.0,2.0,2.0,508.60938499999975,2.0,1.0,part_1,,,,,,,,,,,,,cyan,cross
339.0,6.0,2.0,1.0,3.0,3.0,443.97827199964007,2.0,1.0,part_1,,,,,,,,,,,,,cyan,cross
0.0,5.0,0.0,1.0,4.0,4.0,444.5812590001878,2.0,1.0,part_1,,,,,,,,,,,,,gray,I
1275.0,4.0,4.0,0.0,1.0,1.0,546.1705610000536,2.0,1.0,part_1,,,,,,,,,,,,,orange,square
305.0,6.0,2.0,1.0,2.0,2.0,517.8279900001144,2.0,1.0,part_1,,,,,,,,,,,,,cyan,cross
650.0,7.0,3.0,1.0,1.0,1.0,378.3345650003866,2.0,1.0,part_1,,,,,,,,,,,,,green,flipped triangle
639.0,3.0,3.0,0.0,3.0,3.0,397.3325989995828,2.0,1.0,part_1,,,,,,,,,,,,,blue,triangle
176.0,1.0,1.0,0.0,2.0,2.0,480.852059999961,2.0,1.0,part_1,,,,,,,,,,,,,magenta,circle
667.0,3.0,3.0,0.0,3.0,3.0,499.5564779997039,2.0,1.0,part_1,,,,,,,,,,,,,blue,triangle
0.0,7.0,0.0,1.0,2.0,2.0,480.9104320002006,2.0,1.0,part_1,,,,,,,,,,,,,green,flipped triangle
0.0,1.0,0.0,0.0,4.0,4.0,424.7228119997999,2.0,1.0,part_1,,,,,,,,,,,,,magenta,circle
0.0,2.0,0.0,0.0,2.0,2.0,435.8991059998516,2.0,1.0,part_1,,,,,,,,,,,,,yellow,diamond
310.0,6.0,2.0,1.0,3.0,3.0,445.0182389996371,2.0,1.0,part_1,,,,,,,,,,,,,cyan,cross
330.0,6.0,2.0,1.0,1.0,1.0,564.603686999817,2.0,1.0,part_1,,,,,,,,,,,,,cyan,cross
186.0,5.0,1.0,1.0,1.0,1.0,573.5050399998727,2.0,1.0,part_1,,,,,,,,,,,,,gray,I
177.0,5.0,1.0,1.0,3.0,3.0,860.6888509998498,2.0,1.0,part_1,,,,,,,,,,,,,gray,I
159.0,1.0,1.0,0.0,3.0,3.0,820.3413239998554,2.0,1.0,part_1,,,,,,,,,,,,,magenta,circle
332.0,6.0,2.0,1.0,4.0,4.0,923.1848399999762,2.0,2.0,part_1,,,,,,,,,,,,,cyan,cross
319.0,6.0,2.0,1.0,4.0,4.0,461.8936010001562,2.0,1.0,part_1,,,,,,,,,,,,,cyan,cross
657.0,3.0,3.0,0.0,2.0,2.0,904.3755689999672,2.0,1.0,part_1,,,,,,,,,,,,,blue,triangle
1277.0,8.0,4.0,1.0,3.0,3.0,628.3084140000028,2.0,1.0,part_1,,,,,,,,,,,,,white,hexagon
344.0,6.0,2.0,1.0,2.0,2.0,442.5923439998769,2.0,1.0,part_1,,,,,,,,,,,,,cyan,cross
0.0,1.0,0.0,0.0,4.0,4.0,470.6016969998927,2.0,1.0,part_1,,,,,,,,,,,,,magenta,circle
656.0,7.0,3.0,1.0,1.0,1.0,599.9400380001134,2.0,1.0,part_1,,,,,,,,,,,,,green,flipped triangle
669.0,7.0,3.0,1.0,4.0,4.0,527.102388000003,2.0,1.0,part_1,,,,,,,,,,,,,green,flipped triangle
181.0,1.0,1.0,0.0,2.0,2.0,443.5598979998758,2.0,1.0,part_1,,,,,,,,,,,,,magenta,circle
1323.0,4.0,4.0,0.0,2.0,2.0,350.566813000114,2.0,1.0,part_1,,,,,,,,,,,,,orange,square
301.0,2.0,2.0,0.0,2.0,2.0,332.7558880000651,2.0,1.0,part_1,,,,,,,,,,,,,yellow,diamond
348.0,2.0,2.0,0.0,1.0,1.0,527.4209499998506,2.0,1.0,part_1,,,,,,,,,,,,,yellow,diamond
635.0,7.0,3.0,1.0,4.0,4.0,499.5149220003441,2.0,1.0,part_1,,,,,,,,,,,,,green,flipped triangle
155.0,1.0,1.0,0.0,4.0,4.0,591.3509759998306,2.0,1.0,part_1,,,,,,,,,,,,,magenta,circle
336.0,6.0,2.0,1.0,2.0,2.0,553.6976350003897,2.0,1.0,part_1,,,,,,,,,,,,,cyan,cross
146.0,5.0,1.0,1.0,2.0,2.0,479.3390670001827,2.0,1.0,part_1,,,,,,,,,,,,,gray,I
328.0,6.0,2.0,1.0,3.0,3.0,498.1601589997808,2.0,1.0,part_1,,,,,,,,,,,,,cyan,cross
181.0,5.0,1.0,1.0,1.0,1.0,571.7327309998836,2.0,1.0,part_1,,,,,,,,,,,,,gray,I
674.0,7.0,3.0,1.0,2.0,2.0,443.8393890000043,2.0,1.0,part_1,,,,,,,,,,,,,green,flipped triangle
142.0,5.0,1.0,1.0,3.0,3.0,527.27912499995,2.0,1.0,part_1,,,,,,,,,,,,,gray,I
655.0,3.0,3.0,0.0,1.0,1.0,553.9518390000921,2.0,1.0,part_1,,,,,,,,,,,,,blue,triangle
176.0,5.0,1.0,1.0,1.0,1.0,451.77869500003,2.0,1.0,part_1,,,,,,,,,,,,,gray,I
142.0,1.0,1.0,0.0,4.0,4.0,472.1733989999848,2.0,1.0,part_1,,,,,,,,,,,,,magenta,circle
0.0,3.0,0.0,0.0,3.0,3.0,488.4127840000474,2.0,1.0,part_1,,,,,,,,,,,,,blue,triangle
662.0,7.0,3.0,1.0,2.0,2.0,461.2358240001413,2.0,1.0,part_1,,,,,,,,,,,,,green,flipped triangle
328.0,6.0,2.0,1.0,4.0,4.0,416.2911950002126,2.0,1.0,part_1,,,,,,,,,,,,,cyan,cross
1281.0,4.0,4.0,0.0,4.0,4.0,481.7887180001889,2.0,1.0,part_1,,,,,,,,,,,,,orange,square
1294.0,4.0,4.0,0.0,1.0,1.0,535.4950569999346,2.0,1.0,part_1,,,,,,,,,,,,,orange,square
144.0,1.0,1.0,0.0,4.0,4.0,406.7755420001049,2.0,1.0,part_1,,,,,,,,,,,,,magenta,circle
1281.0,8.0,4.0,1.0,4.0,4.0,506.9922050001878,2.0,1.0,part_1,,,,,,,,,,,,,white,hexagon
1295.0,8.0,4.0,1.0,4.0,4.0,388.2835320000595,2.0,1.0,part_1,,,,,,,,,,,,,white,hexagon
0.0,8.0,0.0,1.0,3.0,3.0,369.7798560001502,2.0,1.0,part_1,,,,,,,,,,,,,white,hexagon
0.0,8.0,0.0,1.0,3.0,3.0,387.7113190001182,2.0,1.0,part_1,,,,,,,,,,,,,white,hexagon
1323.0,8.0,4.0,1.0,2.0,2.0,488.674004999666,2.0,1.0,part_1,,,,,,,,,,,,,white,hexagon
179.0,1.0,1.0,0.0,4.0,4.0,416.1496369997621,2.0,1.0,part_1,,,,,,,,,,,,,magenta,circle
336.0,2.0,2.0,0.0,3.0,3.0,416.5676749998965,2.0,1.0,part_1,,,,,,,,,,,,,yellow,diamond
154.0,1.0,1.0,0.0,1.0,1.0,531.0837819997687,2.0,1.0,part_1,,,,,,,,,,,,,magenta,circle
178.0,1.0,1.0,0.0,2.0,2.0,474.6746820001135,2.0,1.0,part_1,,,,,,,,,,,,,magenta,circle
318.0,2.0,2.0,0.0,3.0,3.0,379.5119599999452,2.0,1.0,part_1,,,,,,,,,,,,,yellow,diamond
639.0,7.0,3.0,1.0,4.0,4.0,446.7411400000856,2.0,1.0,part_1,,,,,,,,,,,,,green,flipped triangle
142.0,5.0,1.0,1.0,2.0,2.0,443.7005680001675,2.0,1.0,part_1,,,,,,,,,,,,,gray,I
1280.0,4.0,4.0,0.0,4.0,4.0,416.5234130000499,2.0,1.0,part_1,,,,,,,,,,,,,orange,square
661.0,7.0,3.0,1.0,1.0,1.0,489.6379020001404,2.0,1.0,part_1,,,,,,,,,,,,,green,flipped triangle
0.0,6.0,0.0,1.0,4.0,4.0,389.6121569996467,2.0,1.0,part_1,,,,,,,,,,,,,cyan,cross
140.0,5.0,1.0,1.0,2.0,2.0,353.319692000241,2.0,1.0,part_1,,,,,,,,,,,,,gray,I
0.0,8.0,0.0,1.0,3.0,3.0,388.1418739997571,2.0,1.0,part_1,,,,,,,,,,,,,white,hexagon
179.0,5.0,1.0,1.0,2.0,2.0,481.1402600003021,2.0,1.0,part_1,,,,,,,,,,,,,gray,I
1295.0,4.0,4.0,0.0,2.0,2.0,359.843777000151,2.0,1.0,part_1,,,,,,,,,,,,,orange,square
337.0,2.0,2.0,0.0,4.0,4.0,342.0599400001265,2.0,1.0,part_1,,,,,,,,,,,,,yellow,diamond
648.0,7.0,3.0,1.0,3.0,3.0,442.3290609997821,2.0,1.0,part_1,,,,,,,,,,,,,green,flipped triangle
0.0,3.0,0.0,0.0,4.0,4.0,398.4513620002872,2.0,1.0,part_1,,,,,,,,,,,,,blue,triangle
1312.0,4.0,4.0,0.0,2.0,2.0,350.336162000076,2.0,1.0,part_1,,,,,,,,,,,,,orange,square
318.0,6.0,2.0,1.0,2.0,2.0,369.8368880000089,2.0,1.0,part_1,,,,,,,,,,,,,cyan,cross
1295.0,8.0,4.0,1.0,1.0,1.0,443.921132000014,3.0,1.0,part_1,,,,,,,,,,,,,white,hexagon
646.0,3.0,3.0,0.0,4.0,4.0,406.9361619999654,3.0,1.0,part_1,,,,,,,,,,,,,blue,triangle
635.0,3.0,3.0,0.0,2.0,2.0,361.5390099998876,3.0,1.0,part_1,,,,,,,,,,,,,blue,triangle
147.0,1.0,1.0,0.0,2.0,2.0,425.735560999783,3.0,1.0,part_1,,,,,,,,,,,,,magenta,circle
650.0,3.0,3.0,0.0,2.0,2.0,342.3341419997996,3.0,1.0,part_1,,,,,,,,,,,,,blue,triangle
632.0,7.0,3.0,1.0,2.0,2.0,343.2229489999372,3.0,1.0,part_1,,,,,,,,,,,,,green,flipped triangle
0.0,3.0,0.0,0.0,4.0,4.0,443.7986009997985,3.0,1.0,part_1,,,,,,,,,,,,,blue,triangle
1302.0,8.0,4.0,1.0,2.0,2.0,527.5555059997714,3.0,1.0,part_1,,,,,,,,,,,,,white,hexagon
336.0,6.0,2.0,1.0,1.0,1.0,527.1503670001039,3.0,1.0,part_1,,,,,,,,,,,,,cyan,cross
1323.0,8.0,4.0,1.0,4.0,4.0,591.3399559999561,3.0,1.0,part_1,,,,,,,,,,,,,white,hexagon
642.0,7.0,3.0,1.0,2.0,2.0,461.2624870001127,3.0,1.0,part_1,,,,,,,,,,,,,green,flipped triangle
639.0,7.0,3.0,1.0,4.0,4.0,498.2951820002199,3.0,1.0,part_1,,,,,,,,,,,,,green,flipped triangle
139.0,1.0,1.0,0.0,1.0,1.0,508.09682799990696,3.0,1.0,part_1,,,,,,,,,,,,,magenta,circle
665.0,3.0,3.0,0.0,3.0,3.0,443.6513669998021,3.0,2.0,part_1,,,,,,,,,,,,,blue,triangle
144.0,5.0,1.0,1.0,3.0,3.0,379.8848139999791,3.0,1.0,part_1,,,,,,,,,,,,,gray,I
335.0,6.0,2.0,1.0,4.0,4.0,535.0233049998678,3.0,1.0,part_1,,,,,,,,,,,,,cyan,cross
303.0,2.0,2.0,0.0,3.0,3.0,444.0346340002179,3.0,1.0,part_1,,,,,,,,,,,,,yellow,diamond
0.0,8.0,0.0,1.0,2.0,2.0,582.0031070002187,3.0,1.0,part_1,,,,,,,,,,,,,white,hexagon
333.0,2.0,2.0,0.0,1.0,1.0,490.7882129996324,3.0,1.0,part_1,,,,,,,,,,,,,yellow,diamond
0.0,4.0,0.0,0.0,2.0,2.0,527.5943960000404,3.0,1.0,part_1,,,,,,,,,,,,,orange,square
178.0,5.0,1.0,1.0,3.0,3.0,490.161186000023,3.0,1.0,part_1,,,,,,,,,,,,,gray,I
661.0,3.0,3.0,0.0,1.0,1.0,450.7500029999391,3.0,1.0,part_1,,,,,,,,,,,,,blue,triangle
160.0,5.0,1.0,1.0,1.0,1.0,416.7666240000471,3.0,1.0,part_1,,,,,,,,,,,,,gray,I
328.0,2.0,2.0,0.0,1.0,1.0,416.113647000202,3.0,1.0,part_1,,,,,,,,,,,,,yellow,diamond
1278.0,8.0,4.0,1.0,2.0,2.0,517.008290999911,3.0,1.0,part_1,,,,,,,,,,,,,white,hexagon
674.0,3.0,3.0,0.0,1.0,1.0,460.0130609996995,3.0,1.0,part_1,,,,,,,,,,,,,blue,triangle
665.0,7.0,3.0,1.0,3.0,3.0,793.7675019998096,3.0,1.0,part_1,,,,,,,,,,,,,green,flipped triangle
633.0,3.0,3.0,0.0,4.0,4.0,471.8254079998587,3.0,1.0,part_1,,,,,,,,,,,,,blue,triangle
341.0,2.0,2.0,0.0,3.0,3.0,618.9851839999392,3.0,1.0,part_1,,,,,,,,,,,,,yellow,diamond
147.0,5.0,1.0,1.0,4.0,4.0,397.4725999996735,3.0,1.0,part_1,,,,,,,,,,,,,gray,I
1307.0,4.0,4.0,0.0,1.0,1.0,535.3369109998312,3.0,1.0,part_1,,,,,,,,,,,,,orange,square
1278.0,4.0,4.0,0.0,2.0,2.0,527.3536039999271,3.0,1.0,part_1,,,,,,,,,,,,,orange,square
0.0,2.0,0.0,0.0,4.0,4.0,471.5792000001784,3.0,1.0,part_1,,,,,,,,,,,,,yellow,diamond
1296.0,4.0,4.0,0.0,2.0,2.0,536.417788000108,3.0,1.0,part_1,,,,,,,,,,,,,orange,square
1280.0,8.0,4.0,1.0,1.0,1.0,627.2480009997707,3.0,1.0,part_1,,,,,,,,,,,,,white,hexagon
0.0,8.0,0.0,1.0,3.0,3.0,418.1680310002775,3.0,1.0,part_1,,,,,,,,,,,,,white,hexagon
645.0,7.0,3.0,1.0,1.0,1.0,453.0662470001516,3.0,1.0,part_1,,,,,,,,,,,,,green,flipped triangle
656.0,3.0,3.0,0.0,3.0,3.0,425.5690009999853,3.0,1.0,part_1,,,,,,,,,,,,,blue,triangle
139.0,5.0,1.0,1.0,4.0,4.0,490.5901950000952,3.0,1.0,part_1,,,,,,,,,,,,,gray,I
653.0,7.0,3.0,1.0,4.0,4.0,498.2297990000006,3.0,1.0,part_1,,,,,,,,,,,,,green,flipped triangle
0.0,6.0,0.0,1.0,3.0,3.0,424.0698670000711,3.0,1.0,part_1,,,,,,,,,,,,,cyan,cross
137.0,5.0,1.0,1.0,4.0,4.0,434.9837849999858,3.0,1.0,part_1,,,,,,,,,,,,,gray,I
177.0,1.0,1.0,0.0,1.0,1.0,556.6205270001774,3.0,1.0,part_1,,,,,,,,,,,,,magenta,circle
661.0,7.0,3.0,1.0,2.0,2.0,620.1686109998263,3.0,1.0,part_1,,,,,,,,,,,,,green,flipped triangle
1294.0,4.0,4.0,0.0,1.0,1.0,581.6012279997267,3.0,1.0,part_1,,,,,,,,,,,,,orange,square
0.0,6.0,0.0,1.0,3.0,3.0,554.8721949999162,3.0,1.0,part_1,,,,,,,,,,,,,cyan,cross
0.0,1.0,0.0,0.0,3.0,3.0,488.4448129996599,3.0,1.0,part_1,,,,,,,,,,,,,magenta,circle
0.0,5.0,0.0,1.0,1.0,1.0,600.038831999882,3.0,1.0,part_1,,,,,,,,,,,,,gray,I
642.0,3.0,3.0,0.0,3.0,3.0,488.4663349998845,3.0,1.0,part_1,,,,,,,,,,,,,blue,triangle
1287.0,8.0,4.0,1.0,1.0,1.0,544.5624389999466,3.0,1.0,part_1,,,,,,,,,,,,,white,hexagon
320.0,2.0,2.0,0.0,2.0,2.0,415.1670209998883,3.0,1.0,part_1,,,,,,,,,,,,,yellow,diamond
1297.0,8.0,4.0,1.0,3.0,3.0,451.7607329999009,3.0,1.0,part_1,,,,,,,,,,,,,white,hexagon
343.0,2.0,2.0,0.0,1.0,1.0,452.5828279997768,3.0,1.0,part_1,,,,,,,,,,,,,yellow,diamond
335.0,2.0,2.0,0.0,3.0,3.0,387.9796750002242,3.0,1.0,part_1,,,,,,,,,,,,,yellow,diamond
1294.0,8.0,4.0,1.0,3.0,3.0,341.6066419999879,3.0,1.0,part_1,,,,,,,,,,,,,white,hexagon
0.0,4.0,0.0,0.0,4.0,4.0,684.4816820002961,3.0,1.0,part_1,,,,,,,,,,,,,orange,square
1310.0,8.0,4.0,1.0,3.0,3.0,406.7530830002397,3.0,1.0,part_1,,,,,,,,,,,,,white,hexagon
322.0,2.0,2.0,0.0,3.0,3.0,325.3957680003623,3.0,1.0,part_1,,,,,,,,,,,,,yellow,diamond
1290.0,8.0,4.0,1.0,4.0,4.0,498.9335070004017,3.0,1.0,part_1,,,,,,,,,,,,,white,hexagon
1287.0,4.0,4.0,0.0,1.0,1.0,423.909599000126,3.0,1.0,part_1,,,,,,,,,,,,,orange,square
662.0,3.0,3.0,0.0,4.0,4.0,434.6020510001835,3.0,1.0,part_1,,,,,,,,,,,,,blue,triangle
160.0,1.0,1.0,0.0,4.0,4.0,444.128130000081,3.0,1.0,part_1,,,,,,,,,,,,,magenta,circle
343.0,6.0,2.0,1.0,3.0,3.0,360.2715099996203,3.0,1.0,part_1,,,,,,,,,,,,,cyan,cross
307.0,2.0,2.0,0.0,3.0,3.0,452.9255949996695,3.0,1.0,part_1,,,,,,,,,,,,,yellow,diamond
184.0,5.0,1.0,1.0,2.0,2.0,729.4044790000953,3.0,1.0,part_1,,,,,,,,,,,,,gray,I
656.0,7.0,3.0,1.0,4.0,4.0,563.3032780001486,3.0,1.0,part_1,,,,,,,,,,,,,green,flipped triangle
0.0,3.0,0.0,0.0,2.0,2.0,590.9454760003428,3.0,1.0,part_1,,,,,,,,,,,,,blue,triangle
669.0,3.0,3.0,0.0,2.0,2.0,415.6988969998565,3.0,1.0,part_1,,,,,,,,,,,,,blue,triangle
632.0,3.0,3.0,0.0,2.0,2.0,480.9732260000601,3.0,1.0,part_1,,,,,,,,,,,,,blue,triangle
0.0,2.0,0.0,0.0,2.0,2.0,342.8903960002571,3.0,1.0,part_1,,,,,,,,,,,,,yellow,diamond
633.0,7.0,3.0,1.0,4.0,4.0,435.5766310000035,3.0,1.0,part_1,,,,,,,,,,,,,green,flipped triangle
146.0,5.0,1.0,1.0,3.0,3.0,463.6539849998371,3.0,1.0,part_1,,,,,,,,,,,,,gray,I
1311.0,8.0,4.0,1.0,2.0,2.0,453.464606000125,3.0,1.0,part_1,,,,,,,,,,,,,white,hexagon
303.0,6.0,2.0,1.0,2.0,2.0,526.2393269999848,3.0,1.0,part_1,,,,,,,,,,,,,cyan,cross
348.0,6.0,2.0,1.0,1.0,1.0,444.260457999917,3.0,1.0,part_1,,,,,,,,,,,,,cyan,cross
1288.0,4.0,4.0,0.0,3.0,3.0,480.9842899999239,3.0,1.0,part_1,,,,,,,,,,,,,orange,square
301.0,6.0,2.0,1.0,1.0,1.0,516.8371780000598,3.0,1.0,part_1,,,,,,,,,,,,,cyan,cross
0.0,1.0,0.0,0.0,4.0,4.0,416.6278820002844,3.0,1.0,part_1,,,,,,,,,,,,,magenta,circle
1287.0,8.0,4.0,1.0,1.0,1.0,525.9693800003333,3.0,1.0,part_1,,,,,,,,,,,,,white,hexagon
1288.0,8.0,4.0,1.0,2.0,2.0,499.2268879996118,3.0,1.0,part_1,,,,,,,,,,,,,white,hexagon
1310.0,4.0,4.0,0.0,2.0,2.0,370.3581360000498,3.0,1.0,part_1,,,,,,,,,,,,,orange,square
0.0,3.0,0.0,0.0,1.0,1.0,406.075969000085,3.0,1.0,part_1,,,,,,,,,,,,,blue,triangle
633.0,3.0,3.0,0.0,1.0,1.0,490.8493180000732,3.0,1.0,part_1,,,,,,,,,,,,,blue,triangle
0.0,1.0,0.0,0.0,4.0,4.0,564.7210369997993,3.0,1.0,part_1,,,,,,,,,,,,,magenta,circle
305.0,2.0,2.0,0.0,2.0,2.0,379.2148150000685,3.0,1.0,part_1,,,,,,,,,,,,,yellow,diamond
0.0,6.0,0.0,1.0,1.0,1.0,536.2292180002441,3.0,1.0,part_1,,,,,,,,,,,,,cyan,cross
187.0,1.0,1.0,0.0,3.0,3.0,508.3469410001271,3.0,1.0,part_1,,,,,,,,,,,,,magenta,circle
314.0,6.0,2.0,1.0,3.0,3.0,553.8236739998865,3.0,1.0,part_1,,,,,,,,,,,,,cyan,cross
1324.0,4.0,4.0,0.0,3.0,3.0,434.6753999998327,3.0,1.0,part_1,,,,,,,,,,,,,orange,square
0.0,5.0,0.0,1.0,1.0,1.0,552.5174110002808,3.0,1.0,part_1,,,,,,,,,,,,,gray,I
642.0,7.0,3.0,1.0,1.0,1.0,544.5463760001985,3.0,1.0,part_1,,,,,,,,,,,,,green,flipped triangle
339.0,6.0,2.0,1.0,3.0,3.0,405.4451619999781,3.0,1.0,part_1,,,,,,,,,,,,,cyan,cross
0.0,2.0,0.0,0.0,1.0,1.0,563.1058880003366,3.0,1.0,part_1,,,,,,,,,,,,,yellow,diamond
147.0,1.0,1.0,0.0,1.0,1.0,580.4681099998561,3.0,1.0,part_1,,,,,,,,,,,,,magenta,circle
168.0,5.0,1.0,1.0,1.0,1.0,580.415812999945,3.0,1.0,part_1,,,,,,,,,,,,,gray,I
330.0,2.0,2.0,0.0,3.0,3.0,406.1166900000899,3.0,1.0,part_1,,,,,,,,,,,,,yellow,diamond
160.0,1.0,1.0,0.0,2.0,2.0,609.8732049999853,3.0,1.0,part_1,,,,,,,,,,,,,magenta,circle
1295.0,4.0,4.0,0.0,3.0,3.0,340.6794150000678,3.0,1.0,part_1,,,,,,,,,,,,,orange,square
1280.0,4.0,4.0,0.0,1.0,1.0,536.1327270002221,3.0,1.0,part_1,,,,,,,,,,,,,orange,square
0.0,5.0,0.0,1.0,1.0,1.0,445.3560619999734,3.0,1.0,part_1,,,,,,,,,,,,,gray,I
0.0,6.0,0.0,1.0,3.0,3.0,480.7849329999953,4.0,1.0,part_1,,,,,,,,,,,,,cyan,cross
1315.0,4.0,4.0,0.0,4.0,4.0,509.72248300013234,4.0,1.0,part_1,,,,,,,,,,,,,orange,square
625.0,3.0,3.0,0.0,2.0,2.0,704.1611680001552,4.0,1.0,part_1,,,,,,,,,,,,,blue,triangle
169.0,5.0,1.0,1.0,3.0,3.0,508.2758520002244,4.0,1.0,part_1,,,,,,,,,,,,,gray,I
155.0,5.0,1.0,1.0,4.0,4.0,491.5502789999664,4.0,1.0,part_1,,,,,,,,,,,,,gray,I
302.0,6.0,2.0,1.0,1.0,1.0,562.7477839998392,4.0,1.0,part_1,,,,,,,,,,,,,cyan,cross
674.0,3.0,3.0,0.0,1.0,1.0,628.155496999625,4.0,1.0,part_1,,,,,,,,,,,,,blue,triangle
0.0,6.0,0.0,1.0,4.0,4.0,416.112086999874,4.0,1.0,part_1,,,,,,,,,,,,,cyan,cross
1307.0,8.0,4.0,1.0,2.0,2.0,627.1523850000449,4.0,1.0,part_1,,,,,,,,,,,,,white,hexagon
1324.0,8.0,4.0,1.0,2.0,2.0,471.3425619997906,4.0,1.0,part_1,,,,,,,,,,,,,white,hexagon
1284.0,8.0,4.0,1.0,3.0,3.0,600.986832000217,4.0,1.0,part_1,,,,,,,,,,,,,white,hexagon
320.0,6.0,2.0,1.0,1.0,1.0,573.2360359997983,4.0,1.0,part_1,,,,,,,,,,,,,cyan,cross
328.0,2.0,2.0,0.0,4.0,4.0,463.6059210001804,4.0,1.0,part_1,,,,,,,,,,,,,yellow,diamond
341.0,6.0,2.0,1.0,1.0,1.0,571.9406749999507,4.0,1.0,part_1,,,,,,,,,,,,,cyan,cross
347.0,2.0,2.0,0.0,2.0,2.0,417.6846630002728,4.0,1.0,part_1,,,,,,,,,,,,,yellow,diamond
310.0,2.0,2.0,0.0,4.0,4.0,600.9957880000911,4.0,1.0,part_1,,,,,,,,,,,,,yellow,diamond
674.0,7.0,3.0,1.0,3.0,3.0,444.517076000011,4.0,1.0,part_1,,,,,,,,,,,,,green,flipped triangle
169.0,1.0,1.0,0.0,4.0,4.0,500.91405300008773,4.0,1.0,part_1,,,,,,,,,,,,,magenta,circle
0.0,8.0,0.0,1.0,2.0,2.0,407.3578699999416,4.0,1.0,part_1,,,,,,,,,,,,,white,hexagon
1277.0,4.0,4.0,0.0,4.0,4.0,508.8639349996811,4.0,1.0,part_1,,,,,,,,,,,,,orange,square
183.0,1.0,1.0,0.0,3.0,3.0,481.0769529999561,4.0,1.0,part_1,,,,,,,,,,,,,magenta,circle
339.0,2.0,2.0,0.0,4.0,4.0,489.857056999881,4.0,1.0,part_1,,,,,,,,,,,,,yellow,diamond
651.0,3.0,3.0,0.0,4.0,4.0,480.8993030001147,4.0,1.0,part_1,,,,,,,,,,,,,blue,triangle
137.0,1.0,1.0,0.0,3.0,3.0,398.9385259997107,4.0,1.0,part_1,,,,,,,,,,,,,magenta,circle
169.0,5.0,1.0,1.0,1.0,1.0,462.6492289999078,4.0,1.0,part_1,,,,,,,,,,,,,gray,I
0.0,7.0,0.0,1.0,3.0,3.0,454.3506459999662,4.0,1.0,part_1,,,,,,,,,,,,,green,flipped triangle
0.0,3.0,0.0,0.0,2.0,2.0,545.6801649997942,4.0,1.0,part_1,,,,,,,,,,,,,blue,triangle
183.0,5.0,1.0,1.0,2.0,2.0,389.6048389997304,4.0,1.0,part_1,,,,,,,,,,,,,gray,I
169.0,1.0,1.0,0.0,3.0,3.0,481.0291969997706,4.0,1.0,part_1,,,,,,,,,,,,,magenta,circle
0.0,6.0,0.0,1.0,1.0,1.0,472.4514270001236,4.0,1.0,part_1,,,,,,,,,,,,,cyan,cross
184.0,1.0,1.0,0.0,3.0,3.0,388.7335989998064,4.0,1.0,part_1,,,,,,,,,,,,,magenta,circle
642.0,7.0,3.0,1.0,3.0,3.0,361.9785820001198,4.0,1.0,part_1,,,,,,,,,,,,,green,flipped triangle
655.0,7.0,3.0,1.0,3.0,3.0,342.6311630000782,4.0,1.0,part_1,,,,,,,,,,,,,green,flipped triangle
163.0,1.0,1.0,0.0,1.0,1.0,563.6718480000127,4.0,1.0,part_1,,,,,,,,,,,,,magenta,circle
322.0,6.0,2.0,1.0,2.0,2.0,489.7098709998317,4.0,1.0,part_1,,,,,,,,,,,,,cyan,cross
323.0,2.0,2.0,0.0,1.0,1.0,545.1693239997439,4.0,1.0,part_1,,,,,,,,,,,,,yellow,diamond
144.0,1.0,1.0,0.0,2.0,2.0,407.2079010002198,4.0,1.0,part_1,,,,,,,,,,,,,magenta,circle
0.0,1.0,0.0,0.0,4.0,4.0,454.7000739999021,4.0,1.0,part_1,,,,,,,,,,,,,magenta,circle
166.0,1.0,1.0,0.0,4.0,4.0,529.064080000353,4.0,1.0,part_1,,,,,,,,,,,,,magenta,circle
1300.0,8.0,4.0,1.0,3.0,3.0,408.4056300002885,4.0,1.0,part_1,,,,,,,,,,,,,white,hexagon
315.0,6.0,2.0,1.0,2.0,2.0,554.5511940003962,4.0,1.0,part_1,,,,,,,,,,,,,cyan,cross
147.0,5.0,1.0,1.0,3.0,3.0,454.0129410002009,4.0,1.0,part_1,,,,,,,,,,,,,gray,I
302.0,2.0,2.0,0.0,3.0,3.0,424.2473659996904,4.0,1.0,part_1,,,,,,,,,,,,,yellow,diamond
0.0,7.0,0.0,1.0,1.0,1.0,645.9712189998754,4.0,1.0,part_1,,,,,,,,,,,,,green,flipped triangle
657.0,7.0,3.0,1.0,3.0,3.0,398.5967429998709,4.0,1.0,part_1,,,,,,,,,,,,,green,flipped triangle
0.0,6.0,0.0,1.0,1.0,1.0,499.5399770000404,4.0,1.0,part_1,,,,,,,,,,,,,cyan,cross
1296.0,8.0,4.0,1.0,4.0,4.0,416.7399110001497,4.0,1.0,part_1,,,,,,,,,,,,,white,hexagon
310.0,2.0,2.0,0.0,2.0,2.0,370.0569550001091,4.0,1.0,part_1,,,,,,,,,,,,,yellow,diamond
183.0,1.0,1.0,0.0,1.0,1.0,378.7255799998092,4.0,1.0,part_1,,,,,,,,,,,,,magenta,circle
179.0,1.0,1.0,0.0,2.0,2.0,323.1607699999586,4.0,1.0,part_1,,,,,,,,,,,,,magenta,circle
1275.0,8.0,4.0,1.0,3.0,3.0,387.9113130001315,4.0,1.0,part_1,,,,,,,,,,,,,white,hexagon
0.0,7.0,0.0,1.0,1.0,1.0,471.2079859996265,4.0,1.0,part_1,,,,,,,,,,,,,green,flipped triangle
1284.0,4.0,4.0,0.0,3.0,3.0,749.7238740002103,4.0,1.0,part_1,,,,,,,,,,,,,orange,square
626.0,7.0,3.0,1.0,2.0,2.0,593.7877689998459,4.0,1.0,part_1,,,,,,,,,,,,,green,flipped triangle
639.0,3.0,3.0,0.0,3.0,3.0,398.2099509998988,4.0,1.0,part_1,,,,,,,,,,,,,blue,triangle
632.0,3.0,3.0,0.0,4.0,4.0,388.8243280002825,4.0,1.0,part_1,,,,,,,,,,,,,blue,triangle
142.0,1.0,1.0,0.0,2.0,2.0,537.8711530001965,4.0,1.0,part_1,,,,,,,,,,,,,magenta,circle
651.0,7.0,3.0,1.0,1.0,1.0,675.7342669998252,4.0,1.0,part_1,,,,,,,,,,,,,green,flipped triangle
0.0,2.0,0.0,0.0,1.0,1.0,389.0949550000186,4.0,1.0,part_1,,,,,,,,,,,,,yellow,diamond
646.0,7.0,3.0,1.0,3.0,3.0,564.7156059999361,4.0,1.0,part_1,,,,,,,,,,,,,green,flipped triangle
160.0,5.0,1.0,1.0,2.0,2.0,555.2899809999872,4.0,1.0,part_1,,,,,,,,,,,,,gray,I
630.0,3.0,3.0,0.0,3.0,3.0,471.9679330000872,4.0,1.0,part_1,,,,,,,,,,,,,blue,triangle
150.0,1.0,1.0,0.0,4.0,4.0,444.3607580001298,4.0,1.0,part_1,,,,,,,,,,,,,magenta,circle
168.0,1.0,1.0,0.0,1.0,1.0,674.1143730000658,4.0,1.0,part_1,,,,,,,,,,,,,magenta,circle
0.0,2.0,0.0,0.0,3.0,3.0,610.5306119998204,4.0,1.0,part_1,,,,,,,,,,,,,yellow,diamond
0.0,8.0,0.0,1.0,4.0,4.0,481.3675410000542,4.0,1.0,part_1,,,,,,,,,,,,,white,hexagon
325.0,6.0,2.0,1.0,4.0,4.0,472.2145340001589,4.0,1.0,part_1,,,,,,,,,,,,,cyan,cross
347.0,6.0,2.0,1.0,2.0,2.0,530.5691739999929,4.0,1.0,part_1,,,,,,,,,,,,,cyan,cross
1302.0,4.0,4.0,0.0,3.0,3.0,392.7015799999935,4.0,1.0,part_1,,,,,,,,,,,,,orange,square
1280.0,4.0,4.0,0.0,4.0,4.0,499.7431719998531,4.0,1.0,part_1,,,,,,,,,,,,,orange,square
1299.0,4.0,4.0,0.0,1.0,1.0,535.414989000401,4.0,1.0,part_1,,,,,,,,,,,,,orange,square
1294.0,8.0,4.0,1.0,2.0,2.0,370.8431380000547,4.0,1.0,part_1,,,,,,,,,,,,,white,hexagon
657.0,7.0,3.0,1.0,2.0,2.0,378.8757030001761,4.0,1.0,part_1,,,,,,,,,,,,,green,flipped triangle
625.0,7.0,3.0,1.0,4.0,4.0,387.9660070001591,4.0,1.0,part_1,,,,,,,,,,,,,green,flipped triangle
333.0,6.0,2.0,1.0,3.0,3.0,506.94869300014034,4.0,1.0,part_1,,,,,,,,,,,,,cyan,cross
1280.0,8.0,4.0,1.0,1.0,1.0,534.5676189999722,4.0,1.0,part_1,,,,,,,,,,,,,white,hexagon
1302.0,4.0,4.0,0.0,3.0,3.0,461.2859269996079,4.0,1.0,part_1,,,,,,,,,,,,,orange,square
186.0,1.0,1.0,0.0,2.0,2.0,557.199314999707,4.0,1.0,part_1,,,,,,,,,,,,,magenta,circle
643.0,7.0,3.0,1.0,2.0,2.0,435.7379389998641,4.0,1.0,part_1,,,,,,,,,,,,,green,flipped triangle
0.0,4.0,0.0,0.0,3.0,3.0,380.9448530000736,4.0,1.0,part_1,,,,,,,,,,,,,orange,square
645.0,3.0,3.0,0.0,2.0,2.0,610.6201150000743,4.0,1.0,part_1,,,,,,,,,,,,,blue,triangle
326.0,2.0,2.0,0.0,4.0,4.0,582.553407999967,4.0,1.0,part_1,,,,,,,,,,,,,yellow,diamond
306.0,2.0,2.0,0.0,4.0,4.0,463.8715099999899,4.0,2.0,part_1,,,,,,,,,,,,,yellow,diamond
633.0,7.0,3.0,1.0,3.0,3.0,471.187319999899,4.0,1.0,part_1,,,,,,,,,,,,,green,flipped triangle
1311.0,4.0,4.0,0.0,1.0,1.0,831.9976749999114,4.0,1.0,part_1,,,,,,,,,,,,,orange,square
0.0,7.0,0.0,1.0,2.0,2.0,388.0397940001785,4.0,1.0,part_1,,,,,,,,,,,,,green,flipped triangle
155.0,1.0,1.0,0.0,3.0,3.0,397.8557120003643,4.0,1.0,part_1,,,,,,,,,,,,,magenta,circle
632.0,7.0,3.0,1.0,4.0,4.0,417.1320089999426,4.0,1.0,part_1,,,,,,,,,,,,,green,flipped triangle
1287.0,4.0,4.0,0.0,3.0,3.0,342.858501000137,4.0,1.0,part_1,,,,,,,,,,,,,orange,square
0.0,3.0,0.0,0.0,4.0,4.0,387.946157999977,4.0,1.0,part_1,,,,,,,,,,,,,blue,triangle
316.0,6.0,2.0,1.0,3.0,3.0,396.4484670000274,4.0,1.0,part_1,,,,,,,,,,,,,cyan,cross
642.0,3.0,3.0,0.0,1.0,1.0,617.2531840002193,4.0,1.0,part_1,,,,,,,,,,,,,blue,triangle
0.0,3.0,0.0,0.0,2.0,2.0,407.0852069999091,4.0,1.0,part_1,,,,,,,,,,,,,blue,triangle
337.0,6.0,2.0,1.0,2.0,2.0,388.0615349999061,4.0,1.0,part_1,,,,,,,,,,,,,cyan,cross
0.0,2.0,0.0,0.0,3.0,3.0,451.46759499994,4.0,1.0,part_1,,,,,,,,,,,,,yellow,diamond
174.0,1.0,1.0,0.0,4.0,4.0,397.2352549999414,4.0,1.0,part_1,,,,,,,,,,,,,magenta,circle
1300.0,4.0,4.0,0.0,3.0,3.0,536.6486410002835,4.0,1.0,part_1,,,,,,,,,,,,,orange,square
672.0,7.0,3.0,1.0,1.0,1.0,508.49341100001766,4.0,1.0,part_1,,,,,,,,,,,,,green,flipped triangle
1324.0,4.0,4.0,0.0,2.0,2.0,369.4429299998774,4.0,1.0,part_1,,,,,,,,,,,,,orange,square
1311.0,4.0,4.0,0.0,2.0,2.0,444.5423769998342,4.0,1.0,part_1,,,,,,,,,,,,,orange,square
0.0,1.0,1.0,0.0,5.0,5.0,361.8654720003178,1.0,0.0,part_2,go,250.0,250.0,1.0,,,,,,,,,magenta,circle
0.0,8.0,4.0,1.0,5.0,5.0,620.9255140001915,1.0,0.0,part_2,stop,250.0,250.0,3.0,,,,,,,,,white,hexagon
0.0,2.0,2.0,0.0,6.0,6.0,373.9726230000997,1.0,0.0,part_2,go,200.0,250.0,1.0,,,,,,,,,yellow,diamond
0.0,5.0,1.0,1.0,6.0,0.0,0.0,1.0,0.0,part_2,stop,200.0,250.0,4.0,,,,,,,,,gray,I
0.0,6.0,2.0,1.0,6.0,0.0,0.0,1.0,0.0,part_2,stop,200.0,300.0,4.0,,,,,,,,,cyan,cross
0.0,3.0,3.0,0.0,5.0,5.0,819.7654909999983,1.0,0.0,part_2,go,200.0,350.0,1.0,,,,,,,,,blue,triangle
0.0,5.0,1.0,1.0,6.0,6.0,428.9558150003358,1.0,0.0,part_2,stop,200.0,350.0,3.0,,,,,,,,,gray,I
0.0,5.0,1.0,1.0,5.0,0.0,0.0,1.0,0.0,part_2,stop,200.0,300.0,4.0,,,,,,,,,gray,I
0.0,1.0,1.0,0.0,6.0,6.0,679.7945070002243,1.0,0.0,part_2,go,250.0,300.0,1.0,,,,,,,,,magenta,circle
0.0,7.0,3.0,1.0,5.0,0.0,0.0,1.0,0.0,part_2,stop,250.0,300.0,4.0,,,,,,,,,green,flipped triangle
0.0,5.0,1.0,1.0,6.0,6.0,624.2686529999446,1.0,0.0,part_2,go,300.0,300.0,1.0,,,,,,,,,gray,I
0.0,8.0,4.0,1.0,6.0,0.0,0.0,1.0,0.0,part_2,stop,300.0,300.0,4.0,,,,,,,,,white,hexagon
0.0,7.0,3.0,1.0,6.0,0.0,0.0,1.0,0.0,part_2,stop,300.0,350.0,4.0,,,,,,,,,green,flipped triangle
0.0,8.0,4.0,1.0,6.0,0.0,0.0,1.0,0.0,part_2,stop,300.0,400.0,4.0,,,,,,,,,white,hexagon
0.0,1.0,1.0,0.0,5.0,5.0,696.1455599998772,1.0,0.0,part_2,go,300.0,450.0,1.0,,,,,,,,,magenta,circle
0.0,2.0,2.0,0.0,6.0,6.0,717.174845000045,1.0,0.0,part_2,go,300.0,450.0,1.0,,,,,,,,,yellow,diamond
0.0,4.0,4.0,0.0,6.0,6.0,550.5683690003025,1.0,0.0,part_2,go,300.0,450.0,1.0,,,,,,,,,orange,square
0.0,5.0,1.0,1.0,6.0,6.0,448.8465730000825,1.0,0.0,part_2,stop,300.0,450.0,3.0,,,,,,,,,gray,I
0.0,5.0,1.0,1.0,6.0,0.0,0.0,1.0,0.0,part_2,stop,300.0,400.0,4.0,,,,,,,,,gray,I
0.0,2.0,2.0,0.0,5.0,5.0,774.3907419999232,1.0,0.0,part_2,go,300.0,450.0,1.0,,,,,,,,,yellow,diamond
0.0,5.0,1.0,1.0,6.0,6.0,779.8192459999882,1.0,0.0,part_2,go,300.0,450.0,1.0,,,,,,,,,gray,I
0.0,7.0,3.0,1.0,6.0,0.0,0.0,1.0,0.0,part_2,stop,300.0,450.0,4.0,,,,,,,,,green,flipped triangle
0.0,5.0,1.0,1.0,5.0,0.0,0.0,1.0,0.0,part_2,stop,300.0,500.0,4.0,,,,,,,,,gray,I
0.0,4.0,4.0,0.0,5.0,5.0,354.4168049998006,1.0,0.0,part_2,go,350.0,500.0,1.0,,,,,,,,,orange,square
0.0,1.0,1.0,0.0,6.0,6.0,780.334264999965,1.0,0.0,part_2,go,350.0,500.0,1.0,,,,,,,,,magenta,circle
0.0,7.0,3.0,1.0,5.0,0.0,0.0,1.0,0.0,part_2,stop,350.0,500.0,4.0,,,,,,,,,green,flipped triangle
0.0,7.0,3.0,1.0,5.0,0.0,0.0,1.0,0.0,part_2,stop,400.0,500.0,4.0,,,,,,,,,green,flipped triangle
0.0,3.0,3.0,0.0,5.0,5.0,401.175344999956,1.0,0.0,part_2,go,450.0,500.0,1.0,,,,,,,,,blue,triangle
0.0,4.0,4.0,0.0,6.0,6.0,680.5845489998319,1.0,0.0,part_2,go,450.0,500.0,1.0,,,,,,,,,orange,square
0.0,4.0,4.0,0.0,6.0,6.0,392.9413949999798,1.0,0.0,part_2,go,450.0,500.0,1.0,,,,,,,,,orange,square
0.0,1.0,1.0,0.0,5.0,5.0,745.176691999859,1.0,0.0,part_2,go,450.0,500.0,1.0,,,,,,,,,magenta,circle
0.0,7.0,3.0,1.0,6.0,6.0,409.9872719998529,1.0,0.0,part_2,go,450.0,500.0,1.0,,,,,,,,,green,flipped triangle
0.0,8.0,4.0,1.0,5.0,5.0,390.7708729998376,1.0,0.0,part_2,go,450.0,500.0,1.0,,,,,,,,,white,hexagon
0.0,4.0,4.0,0.0,5.0,5.0,494.7470030001568,1.0,0.0,part_2,go,450.0,500.0,1.0,,,,,,,,,orange,square
0.0,6.0,2.0,1.0,6.0,6.0,597.12884999999,1.0,0.0,part_2,stop,450.0,500.0,3.0,,,,,,,,,cyan,cross
0.0,1.0,1.0,0.0,6.0,6.0,623.7076439997509,1.0,0.0,part_2,go,450.0,450.0,1.0,,,,,,,,,magenta,circle
0.0,2.0,2.0,0.0,6.0,6.0,354.5475119999537,2.0,0.0,part_2,go,450.0,450.0,1.0,,,,,,,,,yellow,diamond
0.0,1.0,1.0,0.0,5.0,5.0,904.5268889999534,2.0,0.0,part_2,go,450.0,450.0,1.0,,,,,,,,,magenta,circle
0.0,8.0,4.0,1.0,6.0,6.0,701.2767190003615,2.0,0.0,part_2,stop,450.0,450.0,3.0,,,,,,,,,white,hexagon
0.0,8.0,4.0,1.0,5.0,0.0,0.0,2.0,0.0,part_2,stop,450.0,400.0,4.0,,,,,,,,,white,hexagon
0.0,4.0,4.0,0.0,6.0,6.0,644.3802929998128,2.0,0.0,part_2,go,500.0,400.0,1.0,,,,,,,,,orange,square
0.0,4.0,4.0,0.0,5.0,5.0,791.0624390001431,2.0,0.0,part_2,go,500.0,400.0,1.0,,,,,,,,,orange,square
0.0,2.0,2.0,0.0,5.0,5.0,755.9803939998346,2.0,0.0,part_2,go,500.0,400.0,1.0,,,,,,,,,yellow,diamond
0.0,4.0,4.0,0.0,5.0,5.0,569.3056550003348,2.0,0.0,part_2,go,500.0,400.0,1.0,,,,,,,,,orange,square
0.0,1.0,1.0,0.0,5.0,5.0,391.6134380001494,2.0,0.0,part_2,go,500.0,400.0,1.0,,,,,,,,,magenta,circle
0.0,7.0,3.0,1.0,5.0,5.0,353.4770519995618,2.0,0.0,part_2,go,500.0,400.0,1.0,,,,,,,,,green,flipped triangle
0.0,7.0,3.0,1.0,5.0,5.0,353.8645230000838,2.0,0.0,part_2,stop,500.0,400.0,3.0,,,,,,,,,green,flipped triangle
0.0,5.0,1.0,1.0,5.0,5.0,466.3851690002047,2.0,0.0,part_2,go,450.0,400.0,1.0,,,,,,,,,gray,I
0.0,8.0,4.0,1.0,6.0,0.0,0.0,2.0,0.0,part_2,stop,450.0,400.0,4.0,,,,,,,,,white,hexagon
0.0,2.0,2.0,0.0,5.0,5.0,921.3504039998952,2.0,0.0,part_2,go,450.0,450.0,1.0,,,,,,,,,yellow,diamond
0.0,6.0,2.0,1.0,6.0,0.0,0.0,2.0,0.0,part_2,stop,450.0,450.0,4.0,,,,,,,,,cyan,cross
0.0,5.0,1.0,1.0,6.0,0.0,0.0,2.0,0.0,part_2,stop,450.0,500.0,4.0,,,,,,,,,gray,I
0.0,3.0,3.0,0.0,5.0,5.0,813.0980149999232,2.0,0.0,part_2,go,450.0,550.0,1.0,,,,,,,,,blue,triangle
0.0,1.0,1.0,0.0,6.0,6.0,884.2787059998045,2.0,0.0,part_2,go,450.0,550.0,1.0,,,,,,,,,magenta,circle
0.0,8.0,4.0,1.0,6.0,0.0,0.0,2.0,0.0,part_2,stop,450.0,550.0,4.0,,,,,,,,,white,hexagon
0.0,1.0,1.0,0.0,5.0,5.0,745.6931930000792,2.0,0.0,part_2,go,450.0,600.0,1.0,,,,,,,,,magenta,circle
0.0,2.0,2.0,0.0,5.0,5.0,866.3531830002285,2.0,0.0,part_2,go,450.0,600.0,1.0,,,,,,,,,yellow,diamond
0.0,7.0,3.0,1.0,6.0,6.0,736.8094550001842,2.0,0.0,part_2,stop,450.0,600.0,3.0,,,,,,,,,green,flipped triangle
0.0,7.0,3.0,1.0,6.0,0.0,0.0,2.0,0.0,part_2,stop,450.0,550.0,4.0,,,,,,,,,green,flipped triangle
0.0,1.0,1.0,0.0,6.0,6.0,915.4354329998567,2.0,0.0,part_2,go,450.0,600.0,1.0,,,,,,,,,magenta,circle
0.0,7.0,3.0,1.0,6.0,0.0,0.0,2.0,0.0,part_2,stop,450.0,600.0,4.0,,,,,,,,,green,flipped triangle
0.0,2.0,2.0,0.0,6.0,6.0,963.6849309999888,2.0,0.0,part_2,go,450.0,650.0,1.0,,,,,,,,,yellow,diamond
0.0,6.0,2.0,1.0,6.0,0.0,0.0,2.0,0.0,part_2,stop,450.0,650.0,4.0,,,,,,,,,cyan,cross
0.0,6.0,2.0,1.0,6.0,6.0,1034.6445119998862,2.0,0.0,part_2,go,450.0,700.0,1.0,,,,,,,,,cyan,cross
0.0,2.0,2.0,0.0,5.0,5.0,977.9145110001082,2.0,0.0,part_2,go,450.0,700.0,1.0,,,,,,,,,yellow,diamond
0.0,6.0,2.0,1.0,5.0,0.0,0.0,2.0,0.0,part_2,stop,450.0,700.0,4.0,,,,,,,,,cyan,cross
0.0,3.0,3.0,0.0,6.0,6.0,697.4899780002488,2.0,0.0,part_2,go,500.0,700.0,1.0,,,,,,,,,blue,triangle
0.0,6.0,2.0,1.0,6.0,0.0,0.0,2.0,0.0,part_2,stop,500.0,700.0,4.0,,,,,,,,,cyan,cross
0.0,3.0,3.0,0.0,5.0,5.0,931.2692319999768,2.0,0.0,part_2,go,500.0,750.0,1.0,,,,,,,,,blue,triangle
0.0,5.0,1.0,1.0,5.0,5.0,1107.6024820004022,2.0,0.0,part_2,go,500.0,750.0,1.0,,,,,,,,,gray,I
0.0,2.0,2.0,0.0,6.0,6.0,1041.7754560003232,2.0,0.0,part_2,go,500.0,750.0,1.0,,,,,,,,,yellow,diamond
0.0,6.0,2.0,1.0,5.0,0.0,0.0,2.0,0.0,part_2,stop,500.0,750.0,4.0,,,,,,,,,cyan,cross
0.0,7.0,3.0,1.0,5.0,5.0,455.0154290000137,3.0,0.0,part_2,stop,550.0,750.0,3.0,,,,,,,,,green,flipped triangle
0.0,3.0,3.0,0.0,6.0,6.0,1031.692318000296,3.0,0.0,part_2,go,500.0,750.0,1.0,,,,,,,,,blue,triangle
0.0,5.0,1.0,1.0,5.0,0.0,0.0,3.0,0.0,part_2,stop,500.0,750.0,4.0,,,,,,,,,gray,I
0.0,5.0,1.0,1.0,6.0,0.0,0.0,3.0,0.0,part_2,stop,550.0,750.0,4.0,,,,,,,,,gray,I
0.0,5.0,1.0,1.0,5.0,0.0,0.0,3.0,0.0,part_2,stop,550.0,800.0,4.0,,,,,,,,,gray,I
0.0,2.0,2.0,0.0,6.0,6.0,1267.8562430000966,3.0,0.0,part_2,go,600.0,800.0,1.0,,,,,,,,,yellow,diamond
0.0,2.0,2.0,0.0,5.0,5.0,1044.976983000197,3.0,0.0,part_2,go,600.0,800.0,1.0,,,,,,,,,yellow,diamond
0.0,4.0,4.0,0.0,6.0,6.0,914.2432669996196,3.0,0.0,part_2,go,600.0,800.0,1.0,,,,,,,,,orange,square
0.0,1.0,1.0,0.0,6.0,6.0,1024.375748000239,3.0,0.0,part_2,go,600.0,800.0,1.0,,,,,,,,,magenta,circle
0.0,4.0,4.0,0.0,5.0,5.0,828.317361000245,3.0,0.0,part_2,go,600.0,800.0,1.0,,,,,,,,,orange,square
0.0,3.0,3.0,0.0,5.0,5.0,755.82399599989,3.0,0.0,part_2,go,600.0,800.0,1.0,,,,,,,,,blue,triangle
0.0,2.0,2.0,0.0,6.0,6.0,821.9125809996513,3.0,0.0,part_2,go,600.0,800.0,1.0,,,,,,,,,yellow,diamond
0.0,5.0,1.0,1.0,6.0,6.0,699.4527760002711,3.0,0.0,part_2,go,600.0,800.0,1.0,,,,,,,,,gray,I
0.0,4.0,4.0,0.0,6.0,6.0,317.8617220000888,3.0,0.0,part_2,go,600.0,800.0,1.0,,,,,,,,,orange,square
0.0,6.0,2.0,1.0,6.0,6.0,867.9288479997922,3.0,0.0,part_2,stop,600.0,800.0,3.0,,,,,,,,,cyan,cross
0.0,3.0,3.0,0.0,6.0,6.0,781.9559130002744,3.0,0.0,part_2,go,600.0,750.0,1.0,,,,,,,,,blue,triangle
0.0,4.0,4.0,0.0,5.0,5.0,795.5657590000556,3.0,0.0,part_2,go,600.0,750.0,1.0,,,,,,,,,orange,square
0.0,3.0,3.0,0.0,6.0,6.0,485.9309959997517,3.0,0.0,part_2,go,600.0,750.0,1.0,,,,,,,,,blue,triangle
0.0,2.0,2.0,0.0,5.0,5.0,346.2584270000661,3.0,0.0,part_2,go,600.0,750.0,1.0,,,,,,,,,yellow,diamond
0.0,4.0,4.0,0.0,5.0,5.0,735.3989939997518,3.0,0.0,part_2,go,600.0,750.0,1.0,,,,,,,,,orange,square
0.0,3.0,3.0,0.0,6.0,6.0,466.8203470000662,3.0,0.0,part_2,go,600.0,750.0,1.0,,,,,,,,,blue,triangle
0.0,5.0,1.0,1.0,6.0,6.0,457.5055860000248,3.0,0.0,part_2,stop,600.0,750.0,3.0,,,,,,,,,gray,I
0.0,5.0,1.0,1.0,5.0,5.0,437.7154200001314,3.0,0.0,part_2,stop,600.0,700.0,3.0,,,,,,,,,gray,I
0.0,2.0,2.0,0.0,5.0,5.0,885.9785279996686,3.0,0.0,part_2,go,550.0,700.0,1.0,,,,,,,,,yellow,diamond
0.0,7.0,3.0,1.0,5.0,5.0,1118.4310339999683,3.0,0.0,part_2,go,550.0,700.0,1.0,,,,,,,,,green,flipped triangle
0.0,4.0,4.0,0.0,5.0,5.0,744.2025459999968,3.0,0.0,part_2,go,550.0,700.0,1.0,,,,,,,,,orange,square
0.0,3.0,3.0,0.0,5.0,5.0,680.5085030000555,3.0,0.0,part_2,go,550.0,700.0,1.0,,,,,,,,,blue,triangle
0.0,2.0,2.0,0.0,5.0,5.0,670.5816030003007,3.0,0.0,part_2,go,550.0,700.0,1.0,,,,,,,,,yellow,diamond
0.0,1.0,1.0,0.0,5.0,5.0,484.3441120001444,3.0,0.0,part_2,go,550.0,700.0,1.0,,,,,,,,,magenta,circle
0.0,7.0,3.0,1.0,6.0,6.0,785.8763549998002,3.0,0.0,part_2,stop,550.0,700.0,3.0,,,,,,,,,green,flipped triangle
0.0,3.0,3.0,0.0,6.0,6.0,857.9295209997326,3.0,0.0,part_2,go,550.0,650.0,1.0,,,,,,,,,blue,triangle
0.0,1.0,1.0,0.0,6.0,6.0,670.4246999997849,3.0,0.0,part_2,go,550.0,650.0,1.0,,,,,,,,,magenta,circle
0.0,1.0,1.0,0.0,5.0,5.0,613.7743089998366,3.0,0.0,part_2,go,550.0,650.0,1.0,,,,,,,,,magenta,circle
0.0,5.0,1.0,1.0,5.0,5.0,672.7173479998783,3.0,0.0,part_2,stop,550.0,650.0,3.0,,,,,,,,,gray,I
0.0,4.0,4.0,0.0,6.0,6.0,624.5364999999765,3.0,0.0,part_2,go,500.0,650.0,1.0,,,,,,,,,orange,square
0.0,1.0,1.0,0.0,6.0,6.0,402.5556980000147,3.0,0.0,part_2,go,500.0,650.0,1.0,,,,,,,,,magenta,circle
0.0,4.0,4.0,0.0,5.0,5.0,476.0527790003834,4.0,0.0,part_2,go,500.0,650.0,1.0,,,,,,,,,orange,square
0.0,4.0,4.0,0.0,6.0,6.0,840.5608869998105,4.0,0.0,part_2,go,500.0,650.0,1.0,,,,,,,,,orange,square
0.0,1.0,1.0,0.0,6.0,6.0,380.5203160000019,4.0,0.0,part_2,go,500.0,650.0,1.0,,,,,,,,,magenta,circle
0.0,7.0,3.0,1.0,6.0,6.0,557.7823930002523,4.0,0.0,part_2,stop,500.0,650.0,3.0,,,,,,,,,green,flipped triangle
0.0,3.0,3.0,0.0,5.0,5.0,372.856640000009,4.0,0.0,part_2,go,500.0,600.0,1.0,,,,,,,,,blue,triangle
0.0,7.0,3.0,1.0,6.0,6.0,829.0698220002923,4.0,0.0,part_2,go,500.0,600.0,1.0,,,,,,,,,green,flipped triangle
0.0,8.0,4.0,1.0,5.0,0.0,0.0,4.0,0.0,part_2,stop,500.0,600.0,4.0,,,,,,,,,white,hexagon
0.0,5.0,1.0,1.0,5.0,0.0,0.0,4.0,0.0,part_2,stop,550.0,600.0,4.0,,,,,,,,,gray,I
0.0,2.0,2.0,0.0,5.0,5.0,836.1278649999804,4.0,0.0,part_2,go,600.0,600.0,1.0,,,,,,,,,yellow,diamond
0.0,8.0,4.0,1.0,6.0,6.0,863.1398909997188,4.0,0.0,part_2,go,600.0,600.0,1.0,,,,,,,,,white,hexagon
0.0,5.0,1.0,1.0,6.0,0.0,0.0,4.0,0.0,part_2,stop,600.0,600.0,4.0,,,,,,,,,gray,I
0.0,7.0,3.0,1.0,6.0,6.0,722.0289070000945,4.0,0.0,part_2,stop,600.0,650.0,3.0,,,,,,,,,green,flipped triangle
0.0,3.0,3.0,0.0,5.0,5.0,967.9298979999658,4.0,0.0,part_2,go,600.0,600.0,1.0,,,,,,,,,blue,triangle
0.0,8.0,4.0,1.0,5.0,5.0,951.1810980002338,4.0,0.0,part_2,go,600.0,600.0,1.0,,,,,,,,,white,hexagon
0.0,8.0,4.0,1.0,5.0,5.0,749.1297709998435,4.0,0.0,part_2,stop,600.0,600.0,3.0,,,,,,,,,white,hexagon
0.0,2.0,2.0,0.0,6.0,6.0,1079.6424119998846,4.0,0.0,part_2,go,550.0,600.0,1.0,,,,,,,,,yellow,diamond
0.0,6.0,2.0,1.0,5.0,0.0,0.0,4.0,0.0,part_2,stop,550.0,600.0,4.0,,,,,,,,,cyan,cross
0.0,5.0,1.0,1.0,5.0,5.0,712.7994520001266,4.0,0.0,part_2,stop,600.0,600.0,3.0,,,,,,,,,gray,I
0.0,4.0,4.0,0.0,6.0,6.0,928.9496500000496,4.0,0.0,part_2,go,550.0,600.0,1.0,,,,,,,,,orange,square
0.0,5.0,1.0,1.0,5.0,0.0,0.0,4.0,0.0,part_2,stop,550.0,600.0,4.0,,,,,,,,,gray,I
0.0,8.0,4.0,1.0,6.0,0.0,0.0,4.0,0.0,part_2,stop,600.0,600.0,4.0,,,,,,,,,white,hexagon
0.0,1.0,1.0,0.0,6.0,6.0,819.1011989997605,4.0,0.0,part_2,go,600.0,650.0,1.0,,,,,,,,,magenta,circle
0.0,2.0,2.0,0.0,6.0,6.0,912.5691570002346,4.0,0.0,part_2,go,600.0,650.0,1.0,,,,,,,,,yellow,diamond
0.0,6.0,2.0,1.0,6.0,0.0,0.0,4.0,0.0,part_2,stop,600.0,650.0,4.0,,,,,,,,,cyan,cross
0.0,3.0,3.0,0.0,5.0,5.0,910.3485169998748,4.0,0.0,part_2,go,600.0,700.0,1.0,,,,,,,,,blue,triangle
0.0,2.0,2.0,0.0,6.0,6.0,1024.8403720001988,4.0,0.0,part_2,go,600.0,700.0,1.0,,,,,,,,,yellow,diamond
0.0,1.0,1.0,0.0,5.0,5.0,1071.763455999644,4.0,0.0,part_2,go,600.0,700.0,1.0,,,,,,,,,magenta,circle
0.0,6.0,2.0,1.0,5.0,5.0,1286.6547050002737,4.0,0.0,part_2,go,600.0,700.0,1.0,,,,,,,,,cyan,cross
0.0,7.0,3.0,1.0,5.0,0.0,0.0,4.0,0.0,part_2,stop,600.0,700.0,4.0,,,,,,,,,green,flipped triangle
0.0,4.0,4.0,0.0,5.0,5.0,409.257407000041,4.0,0.0,part_2,go,650.0,700.0,1.0,,,,,,,,,orange,square
0.0,3.0,3.0,0.0,6.0,6.0,622.4871300000814,4.0,0.0,part_2,go,650.0,700.0,1.0,,,,,,,,,blue,triangle
0.0,4.0,4.0,0.0,6.0,6.0,974.8118050001722,4.0,0.0,part_2,go,650.0,700.0,1.0,,,,,,,,,orange,square
0.0,3.0,3.0,0.0,6.0,6.0,539.9733729996115,4.0,0.0,part_2,go,650.0,700.0,1.0,,,,,,,,,blue,triangle
0.0,7.0,3.0,1.0,5.0,0.0,0.0,4.0,0.0,part_2,stop,650.0,700.0,4.0,,,,,,,,,green,flipped triangle
0.0,6.0,2.0,1.0,6.0,0.0,0.0,4.0,0.0,part_2,stop,700.0,700.0,4.0,,,,,,,,,cyan,cross
0.0,4.0,4.0,0.0,5.0,5.0,1183.8121830001,4.0,0.0,part_2,go,700.0,750.0,1.0,,,,,,,,,orange,square
0.0,5.0,1.0,1.0,5.0,5.0,456.2809129997731,5.0,0.0,part_2,stop,700.0,750.0,3.0,,,,,,,,,gray,I
0.0,6.0,2.0,1.0,5.0,0.0,0.0,5.0,0.0,part_2,stop,650.0,750.0,4.0,,,,,,,,,cyan,cross
0.0,1.0,1.0,0.0,5.0,5.0,847.1235529996193,5.0,0.0,part_2,go,700.0,750.0,1.0,,,,,,,,,magenta,circle
0.0,3.0,3.0,0.0,6.0,6.0,596.4922620000834,5.0,0.0,part_2,go,700.0,750.0,1.0,,,,,,,,,blue,triangle
0.0,8.0,4.0,1.0,5.0,0.0,0.0,5.0,0.0,part_2,stop,700.0,750.0,4.0,,,,,,,,,white,hexagon
0.0,8.0,4.0,1.0,5.0,0.0,0.0,5.0,0.0,part_2,stop,750.0,750.0,4.0,,,,,,,,,white,hexagon
0.0,7.0,3.0,1.0,6.0,6.0,1294.4784589999472,5.0,0.0,part_2,go,800.0,750.0,1.0,,,,,,,,,green,flipped triangle
0.0,3.0,3.0,0.0,5.0,5.0,919.0045100003772,5.0,0.0,part_2,go,800.0,750.0,1.0,,,,,,,,,blue,triangle
0.0,4.0,4.0,0.0,5.0,5.0,465.098393000062,5.0,0.0,part_2,go,800.0,750.0,1.0,,,,,,,,,orange,square
0.0,3.0,3.0,0.0,6.0,6.0,400.8368929999051,5.0,0.0,part_2,go,800.0,750.0,1.0,,,,,,,,,blue,triangle
0.0,3.0,3.0,0.0,5.0,5.0,409.4931380000162,5.0,0.0,part_2,go,800.0,750.0,1.0,,,,,,,,,blue,triangle
0.0,6.0,2.0,1.0,5.0,5.0,418.3226720001585,5.0,0.0,part_2,stop,800.0,750.0,3.0,,,,,,,,,cyan,cross
0.0,2.0,2.0,0.0,6.0,6.0,521.291440999903,5.0,0.0,part_2,go,750.0,750.0,1.0,,,,,,,,,yellow,diamond
0.0,8.0,4.0,1.0,6.0,6.0,633.7945619998209,5.0,0.0,part_2,go,750.0,750.0,1.0,,,,,,,,,white,hexagon
0.0,4.0,4.0,0.0,6.0,6.0,557.7038549999997,5.0,0.0,part_2,go,750.0,750.0,1.0,,,,,,,,,orange,square
0.0,6.0,2.0,1.0,6.0,0.0,0.0,5.0,0.0,part_2,stop,750.0,750.0,4.0,,,,,,,,,cyan,cross
0.0,8.0,4.0,1.0,5.0,5.0,818.473819999781,5.0,0.0,part_2,stop,750.0,800.0,3.0,,,,,,,,,white,hexagon
0.0,3.0,3.0,0.0,6.0,6.0,400.9099790000618,5.0,0.0,part_2,go,700.0,800.0,1.0,,,,,,,,,blue,triangle
0.0,7.0,3.0,1.0,6.0,6.0,940.139475000251,5.0,0.0,part_2,stop,700.0,800.0,3.0,,,,,,,,,green,flipped triangle
0.0,4.0,4.0,0.0,6.0,6.0,827.2493320000649,5.0,0.0,part_2,go,700.0,750.0,1.0,,,,,,,,,orange,square
0.0,6.0,2.0,1.0,5.0,0.0,0.0,5.0,0.0,part_2,stop,700.0,750.0,4.0,,,,,,,,,cyan,cross
0.0,7.0,3.0,1.0,5.0,0.0,0.0,5.0,0.0,part_2,stop,750.0,750.0,4.0,,,,,,,,,green,flipped triangle
0.0,3.0,3.0,0.0,5.0,5.0,511.3717340000221,5.0,0.0,part_2,go,800.0,750.0,1.0,,,,,,,,,blue,triangle
0.0,6.0,2.0,1.0,5.0,0.0,0.0,5.0,0.0,part_2,stop,800.0,750.0,4.0,,,,,,,,,cyan,cross
0.0,8.0,4.0,1.0,5.0,0.0,0.0,5.0,0.0,part_2,stop,850.0,750.0,4.0,,,,,,,,,white,hexagon
0.0,6.0,2.0,1.0,5.0,0.0,0.0,5.0,0.0,part_2,go,900.0,750.0,5.0,,,,,,,,,cyan,cross
0.0,1.0,1.0,0.0,5.0,5.0,626.381021999805,5.0,0.0,part_2,go,900.0,750.0,1.0,,,,,,,,,magenta,circle
0.0,3.0,3.0,0.0,6.0,6.0,465.11610700054,5.0,0.0,part_2,go,900.0,750.0,1.0,,,,,,,,,blue,triangle
0.0,4.0,4.0,0.0,5.0,5.0,559.6570439993229,5.0,0.0,part_2,go,900.0,750.0,1.0,,,,,,,,,orange,square
0.0,5.0,1.0,1.0,6.0,6.0,818.5075000001234,5.0,0.0,part_2,go,900.0,750.0,1.0,,,,,,,,,gray,I
0.0,6.0,2.0,1.0,5.0,5.0,1181.9649859999115,5.0,0.0,part_2,go,900.0,750.0,1.0,,,,,,,,,cyan,cross
0.0,8.0,4.0,1.0,5.0,5.0,956.6564700007802,5.0,0.0,part_2,stop,900.0,750.0,3.0,,,,,,,,,white,hexagon
0.0,4.0,4.0,0.0,5.0,5.0,578.6177780000799,5.0,0.0,part_2,go,850.0,750.0,1.0,,,,,,,,,orange,square
0.0,1.0,1.0,0.0,5.0,5.0,560.3561979996812,5.0,0.0,part_2,go,850.0,750.0,1.0,,,,,,,,,magenta,circle
0.0,3.0,3.0,0.0,6.0,6.0,466.1271790000683,5.0,0.0,part_2,go,850.0,750.0,1.0,,,,,,,,,blue,triangle
0.0,5.0,1.0,1.0,6.0,6.0,792.6681190001545,5.0,0.0,part_2,stop,850.0,750.0,3.0,,,,,,,,,gray,I
0.0,4.0,4.0,0.0,6.0,6.0,608.8034750000588,6.0,0.0,part_2,go,850.0,700.0,1.0,,,,,,,,,orange,square
0.0,8.0,4.0,1.0,5.0,0.0,0.0,6.0,0.0,part_2,stop,850.0,700.0,4.0,,,,,,,,,white,hexagon
0.0,8.0,4.0,1.0,5.0,0.0,0.0,6.0,0.0,part_2,stop,900.0,700.0,4.0,,,,,,,,,white,hexagon
0.0,3.0,3.0,0.0,6.0,6.0,345.4290959998616,6.0,0.0,part_2,go,950.0,700.0,1.0,,,,,,,,,blue,triangle
0.0,1.0,1.0,0.0,5.0,5.0,475.4957889999787,6.0,0.0,part_2,go,950.0,700.0,1.0,,,,,,,,,magenta,circle
0.0,2.0,2.0,0.0,6.0,6.0,690.1718139997683,6.0,0.0,part_2,go,950.0,700.0,1.0,,,,,,,,,yellow,diamond
0.0,3.0,3.0,0.0,5.0,5.0,612.6206969993291,6.0,0.0,part_2,go,950.0,700.0,1.0,,,,,,,,,blue,triangle
0.0,2.0,2.0,0.0,6.0,6.0,345.0858239993977,6.0,0.0,part_2,go,950.0,700.0,1.0,,,,,,,,,yellow,diamond
0.0,1.0,1.0,0.0,5.0,5.0,457.8538240002672,6.0,0.0,part_2,go,950.0,700.0,1.0,,,,,,,,,magenta,circle
0.0,4.0,4.0,0.0,5.0,5.0,447.6798489995417,6.0,0.0,part_2,go,950.0,700.0,1.0,,,,,,,,,orange,square
0.0,1.0,1.0,0.0,6.0,6.0,429.2724160004582,6.0,0.0,part_2,go,950.0,700.0,1.0,,,,,,,,,magenta,circle
0.0,7.0,3.0,1.0,6.0,6.0,438.0122349994053,6.0,0.0,part_2,stop,950.0,700.0,3.0,,,,,,,,,green,flipped triangle
0.0,8.0,4.0,1.0,6.0,0.0,0.0,6.0,0.0,part_2,stop,950.0,650.0,4.0,,,,,,,,,white,hexagon
0.0,6.0,2.0,1.0,5.0,5.0,1444.2793459993482,6.0,0.0,part_2,go,950.0,700.0,1.0,,,,,,,,,cyan,cross
0.0,6.0,2.0,1.0,6.0,6.0,1096.2516439994945,6.0,0.0,part_2,go,950.0,700.0,1.0,,,,,,,,,cyan,cross
0.0,4.0,4.0,0.0,5.0,5.0,390.7868049991521,6.0,0.0,part_2,go,950.0,700.0,1.0,,,,,,,,,orange,square
0.0,1.0,1.0,0.0,5.0,5.0,483.6063459997604,6.0,0.0,part_2,go,950.0,700.0,1.0,,,,,,,,,magenta,circle
0.0,5.0,1.0,1.0,5.0,0.0,0.0,6.0,0.0,part_2,stop,950.0,700.0,4.0,,,,,,,,,gray,I
0.0,1.0,1.0,0.0,6.0,6.0,691.0218500006522,6.0,0.0,part_2,go,1000.0,700.0,1.0,,,,,,,,,magenta,circle
0.0,8.0,4.0,1.0,6.0,0.0,0.0,6.0,0.0,part_2,stop,1000.0,700.0,4.0,,,,,,,,,white,hexagon
0.0,6.0,2.0,1.0,5.0,5.0,1073.1251779998274,6.0,0.0,part_2,go,1000.0,750.0,1.0,,,,,,,,,cyan,cross
0.0,3.0,3.0,0.0,5.0,5.0,625.8340149997821,6.0,0.0,part_2,go,1000.0,750.0,1.0,,,,,,,,,blue,triangle
0.0,7.0,3.0,1.0,5.0,5.0,1145.8131090003008,6.0,0.0,part_2,stop,1000.0,750.0,3.0,,,,,,,,,green,flipped triangle
0.0,7.0,3.0,1.0,5.0,0.0,0.0,6.0,0.0,part_2,stop,950.0,750.0,4.0,,,,,,,,,green,flipped triangle
0.0,7.0,3.0,1.0,6.0,0.0,0.0,6.0,0.0,part_2,stop,1000.0,750.0,4.0,,,,,,,,,green,flipped triangle
0.0,3.0,3.0,0.0,6.0,6.0,631.8906110000171,6.0,0.0,part_2,go,1000.0,800.0,1.0,,,,,,,,,blue,triangle
0.0,5.0,1.0,1.0,6.0,0.0,0.0,6.0,0.0,part_2,stop,1000.0,800.0,4.0,,,,,,,,,gray,I
0.0,5.0,1.0,1.0,6.0,6.0,1467.8687260002334,6.0,0.0,part_2,go,1000.0,850.0,1.0,,,,,,,,,gray,I
0.0,7.0,3.0,1.0,5.0,0.0,0.0,6.0,0.0,part_2,stop,1000.0,850.0,4.0,,,,,,,,,green,flipped triangle
0.0,8.0,4.0,1.0,6.0,6.0,1406.5254569995886,6.0,0.0,part_2,go,1050.0,850.0,1.0,,,,,,,,,white,hexagon
0.0,2.0,2.0,0.0,5.0,5.0,566.9586889998754,6.0,0.0,part_2,go,1050.0,850.0,1.0,,,,,,,,,yellow,diamond
0.0,5.0,1.0,1.0,5.0,5.0,1118.567649000397,6.0,0.0,part_2,stop,1050.0,850.0,3.0,,,,,,,,,gray,I
0.0,7.0,3.0,1.0,5.0,0.0,0.0,6.0,0.0,part_2,go,1000.0,850.0,5.0,,,,,,,,,green,flipped triangle
0.0,1.0,1.0,0.0,6.0,6.0,429.6154730000125,6.0,0.0,part_2,go,1000.0,850.0,1.0,,,,,,,,,magenta,circle
0.0,2.0,2.0,0.0,5.0,5.0,466.1709779993543,6.0,0.0,part_2,go,1000.0,850.0,1.0,,,,,,,,,yellow,diamond
0.0,2.0,2.0,0.0,6.0,6.0,401.7520790002891,6.0,0.0,part_2,go,1000.0,850.0,1.0,,,,,,,,,yellow,diamond
0.0,1.0,1.0,0.0,6.0,6.0,485.3223939999225,7.0,0.0,part_2,go,1000.0,850.0,1.0,,,,,,,,,magenta,circle
0.0,5.0,1.0,1.0,6.0,0.0,0.0,7.0,0.0,part_2,stop,1000.0,850.0,4.0,,,,,,,,,gray,I
0.0,2.0,2.0,0.0,6.0,6.0,446.5791779994106,7.0,0.0,part_2,go,1000.0,900.0,1.0,,,,,,,,,yellow,diamond
0.0,6.0,2.0,1.0,5.0,5.0,866.296551999767,7.0,0.0,part_2,stop,1000.0,900.0,3.0,,,,,,,,,cyan,cross
0.0,4.0,4.0,0.0,5.0,5.0,475.8286350006528,7.0,0.0,part_2,go,950.0,900.0,1.0,,,,,,,,,orange,square
0.0,7.0,3.0,1.0,5.0,0.0,0.0,7.0,0.0,part_2,stop,950.0,900.0,4.0,,,,,,,,,green,flipped triangle
0.0,5.0,1.0,1.0,5.0,0.0,0.0,7.0,0.0,part_2,stop,1000.0,900.0,4.0,,,,,,,,,gray,I
0.0,8.0,4.0,1.0,6.0,0.0,0.0,7.0,0.0,part_2,stop,1050.0,900.0,4.0,,,,,,,,,white,hexagon
0.0,3.0,3.0,0.0,6.0,6.0,464.8452950004866,7.0,0.0,part_2,go,1050.0,950.0,1.0,,,,,,,,,blue,triangle
0.0,7.0,3.0,1.0,6.0,0.0,0.0,7.0,0.0,part_2,stop,1050.0,950.0,4.0,,,,,,,,,green,flipped triangle
0.0,8.0,4.0,1.0,6.0,0.0,0.0,7.0,0.0,part_2,stop,1050.0,1000.0,4.0,,,,,,,,,white,hexagon
0.0,7.0,3.0,1.0,6.0,6.0,1440.5107729999145,7.0,0.0,part_2,go,1050.0,1050.0,1.0,,,,,,,,,green,flipped triangle
0.0,7.0,3.0,1.0,6.0,6.0,1168.1938500005344,7.0,0.0,part_2,stop,1050.0,1050.0,3.0,,,,,,,,,green,flipped triangle
0.0,4.0,4.0,0.0,6.0,6.0,465.285096000116,7.0,0.0,part_2,go,1050.0,1000.0,1.0,,,,,,,,,orange,square
0.0,3.0,3.0,0.0,5.0,5.0,344.6641900000031,7.0,0.0,part_2,go,1050.0,1000.0,1.0,,,,,,,,,blue,triangle
0.0,3.0,3.0,0.0,5.0,5.0,371.3446639994799,7.0,0.0,part_2,go,1050.0,1000.0,1.0,,,,,,,,,blue,triangle
0.0,5.0,1.0,1.0,5.0,0.0,0.0,7.0,0.0,part_2,stop,1050.0,1000.0,4.0,,,,,,,,,gray,I
0.0,1.0,1.0,0.0,6.0,6.0,362.3653630002081,7.0,0.0,part_2,go,1100.0,1000.0,1.0,,,,,,,,,magenta,circle
0.0,8.0,4.0,1.0,6.0,6.0,1200.9293789997173,7.0,0.0,part_2,go,1100.0,1000.0,1.0,,,,,,,,,white,hexagon
0.0,1.0,1.0,0.0,5.0,5.0,492.7286499996626,7.0,0.0,part_2,go,1100.0,1000.0,1.0,,,,,,,,,magenta,circle
0.0,2.0,2.0,0.0,5.0,5.0,484.3112089993155,7.0,0.0,part_2,go,1100.0,1000.0,1.0,,,,,,,,,yellow,diamond
0.0,6.0,2.0,1.0,5.0,5.0,1211.4227970005231,7.0,0.0,part_2,stop,1100.0,1000.0,3.0,,,,,,,,,cyan,cross
0.0,4.0,4.0,0.0,6.0,6.0,447.4839630001952,7.0,0.0,part_2,go,1050.0,1000.0,1.0,,,,,,,,,orange,square
0.0,4.0,4.0,0.0,6.0,6.0,371.3792170001397,7.0,0.0,part_2,go,1050.0,1000.0,1.0,,,,,,,,,orange,square
0.0,6.0,2.0,1.0,6.0,0.0,0.0,7.0,0.0,part_2,stop,1050.0,1000.0,4.0,,,,,,,,,cyan,cross
0.0,5.0,1.0,1.0,6.0,0.0,0.0,7.0,0.0,part_2,stop,1050.0,1050.0,4.0,,,,,,,,,gray,I
0.0,6.0,2.0,1.0,6.0,0.0,0.0,7.0,0.0,part_2,stop,1050.0,1100.0,4.0,,,,,,,,,cyan,cross
0.0,2.0,2.0,0.0,5.0,5.0,380.6917140000223,7.0,0.0,part_2,go,1050.0,1150.0,1.0,,,,,,,,,yellow,diamond
0.0,2.0,2.0,0.0,6.0,6.0,362.0333759999994,7.0,0.0,part_2,go,1050.0,1150.0,1.0,,,,,,,,,yellow,diamond
0.0,7.0,3.0,1.0,5.0,0.0,0.0,7.0,0.0,part_2,stop,1050.0,1150.0,4.0,,,,,,,,,green,flipped triangle
0.0,4.0,4.0,0.0,5.0,5.0,390.7162560008146,7.0,0.0,part_2,go,1100.0,1150.0,1.0,,,,,,,,,orange,square
0.0,6.0,2.0,1.0,6.0,0.0,0.0,7.0,0.0,part_2,stop,1100.0,1150.0,4.0,,,,,,,,,cyan,cross
0.0,4.0,4.0,0.0,6.0,6.0,464.8536529994089,7.0,0.0,part_2,go,1100.0,1200.0,1.0,,,,,,,,,orange,square
0.0,8.0,4.0,1.0,5.0,0.0,0.0,7.0,0.0,part_2,stop,1100.0,1200.0,4.0,,,,,,,,,white,hexagon
0.0,6.0,2.0,1.0,6.0,0.0,0.0,7.0,0.0,part_2,stop,1150.0,1200.0,4.0,,,,,,,,,cyan,cross
0.0,4.0,4.0,0.0,6.0,6.0,519.7352810000666,7.0,0.0,part_2,go,1150.0,1250.0,1.0,,,,,,,,,orange,square
0.0,6.0,2.0,1.0,5.0,0.0,0.0,8.0,0.0,part_2,stop,1150.0,1250.0,4.0,,,,,,,,,cyan,cross
0.0,3.0,3.0,0.0,5.0,5.0,606.0257839999394,8.0,0.0,part_2,go,1200.0,1250.0,1.0,,,,,,,,,blue,triangle
0.0,1.0,1.0,0.0,5.0,5.0,486.8990900004064,8.0,0.0,part_2,go,1200.0,1250.0,1.0,,,,,,,,,magenta,circle
0.0,6.0,2.0,1.0,5.0,5.0,1284.725251999589,8.0,0.0,part_2,go,1200.0,1250.0,1.0,,,,,,,,,cyan,cross
0.0,1.0,1.0,0.0,6.0,6.0,428.0440920001638,8.0,0.0,part_2,go,1200.0,1250.0,1.0,,,,,,,,,magenta,circle
0.0,2.0,2.0,0.0,5.0,5.0,389.9825120006426,8.0,0.0,part_2,go,1200.0,1250.0,1.0,,,,,,,,,yellow,diamond
0.0,2.0,2.0,0.0,5.0,5.0,372.5400570001511,8.0,0.0,part_2,go,1200.0,1250.0,1.0,,,,,,,,,yellow,diamond
0.0,6.0,2.0,1.0,6.0,6.0,1161.6858999996111,8.0,0.0,part_2,stop,1200.0,1250.0,3.0,,,,,,,,,cyan,cross
0.0,7.0,3.0,1.0,6.0,0.0,0.0,8.0,0.0,part_2,go,1200.0,1200.0,5.0,,,,,,,,,green,flipped triangle
0.0,8.0,4.0,1.0,5.0,0.0,0.0,8.0,0.0,part_2,stop,1200.0,1200.0,4.0,,,,,,,,,white,hexagon
0.0,5.0,1.0,1.0,5.0,0.0,0.0,8.0,0.0,part_2,stop,1250.0,1200.0,4.0,,,,,,,,,gray,I
0.0,7.0,3.0,1.0,5.0,0.0,0.0,8.0,0.0,part_2,stop,1300.0,1200.0,4.0,,,,,,,,,green,flipped triangle
0.0,2.0,2.0,0.0,6.0,6.0,510.8004149997214,8.0,0.0,part_2,go,1350.0,1200.0,1.0,,,,,,,,,yellow,diamond
0.0,3.0,3.0,0.0,6.0,6.0,363.9180390000547,8.0,0.0,part_2,go,1350.0,1200.0,1.0,,,,,,,,,blue,triangle
0.0,2.0,2.0,0.0,5.0,5.0,381.0400540005503,8.0,0.0,part_2,go,1350.0,1200.0,1.0,,,,,,,,,yellow,diamond
0.0,8.0,4.0,1.0,5.0,0.0,0.0,8.0,0.0,part_2,stop,1350.0,1200.0,4.0,,,,,,,,,white,hexagon
0.0,3.0,3.0,0.0,5.0,5.0,476.3448869998683,8.0,0.0,part_2,go,1400.0,1200.0,1.0,,,,,,,,,blue,triangle
0.0,6.0,2.0,1.0,5.0,0.0,0.0,8.0,0.0,part_2,stop,1400.0,1200.0,4.0,,,,,,,,,cyan,cross
0.0,6.0,2.0,1.0,6.0,0.0,0.0,8.0,0.0,part_2,go,1450.0,1200.0,5.0,,,,,,,,,cyan,cross
0.0,8.0,4.0,1.0,5.0,0.0,0.0,8.0,0.0,part_2,stop,1450.0,1200.0,4.0,,,,,,,,,white,hexagon
0.0,6.0,2.0,1.0,5.0,0.0,0.0,8.0,0.0,part_2,stop,1500.0,1200.0,4.0,,,,,,,,,cyan,cross
0.0,6.0,2.0,1.0,6.0,0.0,0.0,8.0,0.0,part_2,stop,1550.0,1200.0,4.0,,,,,,,,,cyan,cross
0.0,7.0,3.0,1.0,5.0,0.0,0.0,8.0,0.0,part_2,go,1550.0,1250.0,5.0,,,,,,,,,green,flipped triangle
0.0,5.0,1.0,1.0,5.0,0.0,0.0,8.0,0.0,part_2,go,1550.0,1250.0,5.0,,,,,,,,,gray,I
0.0,1.0,1.0,0.0,5.0,5.0,391.3133180003569,8.0,0.0,part_2,go,1550.0,1250.0,1.0,,,,,,,,,magenta,circle
0.0,1.0,1.0,0.0,6.0,6.0,437.5510370000484,8.0,0.0,part_2,go,1550.0,1250.0,1.0,,,,,,,,,magenta,circle
0.0,3.0,3.0,0.0,6.0,6.0,428.1928549999065,8.0,0.0,part_2,go,1550.0,1250.0,1.0,,,,,,,,,blue,triangle
0.0,8.0,4.0,1.0,5.0,0.0,0.0,8.0,0.0,part_2,go,1550.0,1250.0,5.0,,,,,,,,,white,hexagon
0.0,2.0,2.0,0.0,6.0,6.0,559.2117480000525,8.0,0.0,part_2,go,1550.0,1250.0,1.0,,,,,,,,,yellow,diamond
0.0,1.0,1.0,0.0,6.0,6.0,363.3092770005532,8.0,0.0,part_2,go,1550.0,1250.0,1.0,,,,,,,,,magenta,circle
0.0,8.0,4.0,1.0,6.0,6.0,641.7504490000283,8.0,0.0,part_2,stop,1550.0,1250.0,3.0,,,,,,,,,white,hexagon
0.0,5.0,1.0,1.0,6.0,0.0,0.0,8.0,0.0,part_2,go,1550.0,1200.0,5.0,,,,,,,,,gray,I
0.0,8.0,4.0,1.0,6.0,0.0,0.0,8.0,0.0,part_2,go,1550.0,1200.0,5.0,,,,,,,,,white,hexagon
0.0,2.0,2.0,0.0,5.0,5.0,420.0191420004557,8.0,0.0,part_2,go,1550.0,1200.0,1.0,,,,,,,,,yellow,diamond
0.0,8.0,4.0,1.0,6.0,6.0,1137.2631479998745,8.0,0.0,part_2,go,1550.0,1200.0,1.0,,,,,,,,,white,hexagon
0.0,8.0,4.0,1.0,6.0,6.0,522.3084919998655,8.0,0.0,part_2,stop,1550.0,1200.0,3.0,,,,,,,,,white,hexagon
0.0,5.0,1.0,1.0,7.0,3.0,4636.936342999434,1.0,1.0,part_3,go,0.0,0.0,0.0,405.0,3.0,270.0,540.0,405.0,675.0,810.0,135.0,gray,I
0.0,8.0,4.0,1.0,7.0,6.0,2053.6285790003603,1.0,2.0,part_3,go,0.0,0.0,0.0,576.0,3.0,960.0,1152.0,768.0,192.0,384.0,576.0,white,hexagon
0.0,7.0,3.0,1.0,7.0,4.0,3611.3161120001682,1.0,1.0,part_3,go,0.0,0.0,0.0,192.0,1.0,768.0,960.0,384.0,192.0,576.0,1152.0,green,flipped triangle
0.0,5.0,1.0,1.0,7.0,5.0,2346.736458000123,1.0,1.0,part_3,go,0.0,0.0,0.0,405.0,3.0,135.0,270.0,810.0,540.0,405.0,675.0,gray,I
0.0,4.0,4.0,0.0,7.0,3.0,3055.862282999442,1.0,1.0,part_3,go,0.0,0.0,0.0,960.0,5.0,384.0,192.0,960.0,1152.0,768.0,576.0,orange,square
0.0,5.0,1.0,1.0,7.0,2.0,2423.0163990005167,1.0,1.0,part_3,go,0.0,0.0,0.0,464.0,4.0,116.0,464.0,580.0,232.0,696.0,348.0,gray,I
0.0,5.0,1.0,1.0,7.0,5.0,2440.524503999768,1.0,1.0,part_3,go,0.0,0.0,0.0,232.0,2.0,696.0,580.0,116.0,348.0,232.0,464.0,gray,I
0.0,1.0,1.0,0.0,7.0,3.0,2223.4563160000107,1.0,1.0,part_3,go,0.0,0.0,0.0,580.0,5.0,696.0,348.0,580.0,232.0,464.0,116.0,magenta,circle
0.0,3.0,3.0,0.0,7.0,2.0,2210.822420999648,1.0,1.0,part_3,go,0.0,0.0,0.0,696.0,6.0,116.0,696.0,232.0,464.0,580.0,348.0,blue,triangle
0.0,1.0,1.0,0.0,7.0,2.0,2112.6111619996664,1.0,1.0,part_3,go,0.0,0.0,0.0,768.0,4.0,192.0,768.0,1152.0,960.0,384.0,576.0,magenta,circle
0.0,8.0,4.0,1.0,7.0,3.0,1715.9761770008115,1.0,1.0,part_3,go,0.0,0.0,0.0,173.0,1.0,865.0,346.0,173.0,1038.0,692.0,519.0,white,hexagon
0.0,4.0,4.0,0.0,7.0,1.0,2048.027760999503,1.0,1.0,part_3,go,0.0,0.0,0.0,519.0,3.0,519.0,173.0,865.0,1038.0,692.0,346.0,orange,square
0.0,8.0,4.0,1.0,7.0,3.0,1502.030026000284,1.0,1.0,part_3,go,0.0,0.0,0.0,540.0,4.0,675.0,135.0,540.0,405.0,270.0,810.0,white,hexagon
0.0,3.0,3.0,0.0,7.0,6.0,2923.867182000322,1.0,1.0,part_3,go,0.0,0.0,0.0,768.0,4.0,576.0,1152.0,192.0,960.0,384.0,768.0,blue,triangle
0.0,8.0,4.0,1.0,7.0,5.0,1312.6321479994658,1.0,1.0,part_3,go,0.0,0.0,0.0,576.0,3.0,384.0,768.0,192.0,1152.0,576.0,960.0,white,hexagon
0.0,1.0,1.0,0.0,7.0,2.0,1537.1207460002552,1.0,1.0,part_3,go,0.0,0.0,0.0,405.0,3.0,270.0,405.0,810.0,675.0,135.0,540.0,magenta,circle
0.0,2.0,2.0,0.0,7.0,6.0,2148.607166000147,1.0,1.0,part_3,go,0.0,0.0,0.0,519.0,3.0,173.0,1038.0,865.0,692.0,346.0,519.0,yellow,diamond
0.0,5.0,1.0,1.0,7.0,5.0,1839.255908999803,1.0,1.0,part_3,go,0.0,0.0,0.0,462.0,3.0,154.0,770.0,308.0,616.0,462.0,924.0,gray,I
0.0,4.0,4.0,0.0,7.0,2.0,1390.5000779996044,1.0,1.0,part_3,go,0.0,0.0,0.0,675.0,5.0,135.0,675.0,405.0,540.0,810.0,270.0,orange,square
0.0,6.0,2.0,1.0,7.0,2.0,1511.7057659999773,1.0,1.0,part_3,go,0.0,0.0,0.0,696.0,6.0,232.0,696.0,580.0,348.0,116.0,464.0,cyan,cross
0.0,8.0,4.0,1.0,7.0,6.0,1473.527686000125,2.0,1.0,part_3,go,0.0,0.0,0.0,770.0,5.0,924.0,616.0,308.0,154.0,462.0,770.0,white,hexagon
0.0,3.0,3.0,0.0,7.0,4.0,1853.517259,2.0,1.0,part_3,go,0.0,0.0,0.0,692.0,4.0,173.0,865.0,519.0,692.0,346.0,1038.0,blue,triangle
0.0,1.0,1.0,0.0,7.0,2.0,1967.2892369999315,2.0,1.0,part_3,go,0.0,0.0,0.0,675.0,5.0,540.0,675.0,135.0,405.0,270.0,810.0,magenta,circle
0.0,3.0,3.0,0.0,7.0,4.0,1521.9162829998822,2.0,1.0,part_3,go,0.0,0.0,0.0,924.0,6.0,616.0,770.0,154.0,924.0,462.0,308.0,blue,triangle
0.0,2.0,2.0,0.0,7.0,1.0,2177.8375280000546,2.0,1.0,part_3,go,0.0,0.0,0.0,519.0,3.0,519.0,173.0,346.0,865.0,692.0,1038.0,yellow,diamond
0.0,5.0,1.0,1.0,7.0,2.0,2147.5350640002944,2.0,1.0,part_3,go,0.0,0.0,0.0,346.0,2.0,519.0,346.0,173.0,692.0,1038.0,865.0,gray,I
0.0,7.0,3.0,1.0,7.0,6.0,1805.99723099931,2.0,1.0,part_3,go,0.0,0.0,0.0,770.0,5.0,462.0,154.0,616.0,308.0,924.0,770.0,green,flipped triangle
0.0,8.0,4.0,1.0,7.0,1.0,2460.428467999918,2.0,1.0,part_3,go,0.0,0.0,0.0,346.0,2.0,346.0,692.0,173.0,519.0,865.0,1038.0,white,hexagon
0.0,4.0,4.0,0.0,7.0,2.0,1500.2698259995668,2.0,1.0,part_3,go,0.0,0.0,0.0,616.0,4.0,924.0,616.0,308.0,770.0,462.0,154.0,orange,square
0.0,7.0,3.0,1.0,7.0,5.0,1425.246505999894,2.0,1.0,part_3,go,0.0,0.0,0.0,580.0,5.0,232.0,464.0,348.0,116.0,580.0,696.0,green,flipped triangle
0.0,3.0,3.0,0.0,7.0,3.0,1271.863365000172,2.0,1.0,part_3,go,0.0,0.0,0.0,675.0,5.0,270.0,405.0,675.0,810.0,135.0,540.0,blue,triangle
0.0,1.0,1.0,0.0,7.0,3.0,1443.5376940000424,2.0,1.0,part_3,go,0.0,0.0,0.0,768.0,4.0,192.0,576.0,768.0,384.0,1152.0,960.0,magenta,circle
0.0,4.0,4.0,0.0,7.0,3.0,1326.7522409996673,2.0,1.0,part_3,go,0.0,0.0,0.0,960.0,5.0,576.0,192.0,960.0,1152.0,384.0,768.0,orange,square
0.0,2.0,2.0,0.0,7.0,5.0,2260.412331000225,2.0,1.0,part_3,go,0.0,0.0,0.0,960.0,5.0,768.0,576.0,384.0,192.0,960.0,1152.0,yellow,diamond
0.0,2.0,2.0,0.0,7.0,4.0,1668.6991320002562,2.0,1.0,part_3,go,0.0,0.0,0.0,770.0,5.0,924.0,308.0,616.0,770.0,154.0,462.0,yellow,diamond
0.0,7.0,3.0,1.0,7.0,6.0,1869.9388140003064,2.0,1.0,part_3,go,0.0,0.0,0.0,810.0,6.0,675.0,135.0,270.0,405.0,540.0,810.0,green,flipped triangle
0.0,6.0,2.0,1.0,7.0,2.0,1187.6325769999312,2.0,1.0,part_3,go,0.0,0.0,0.0,384.0,2.0,576.0,384.0,960.0,1152.0,768.0,192.0,cyan,cross
0.0,4.0,4.0,0.0,7.0,5.0,1759.8105289998784,2.0,1.0,part_3,go,0.0,0.0,0.0,770.0,5.0,154.0,308.0,616.0,462.0,770.0,924.0,orange,square
0.0,7.0,3.0,1.0,7.0,4.0,1251.9899889994122,2.0,1.0,part_3,go,0.0,0.0,0.0,519.0,3.0,865.0,173.0,1038.0,519.0,692.0,346.0,green,flipped triangle
0.0,7.0,3.0,1.0,7.0,4.0,1214.4569030006096,2.0,1.0,part_3,go,0.0,0.0,0.0,692.0,4.0,865.0,1038.0,173.0,692.0,519.0,346.0,green,flipped triangle
0.0,1.0,1.0,0.0,7.0,5.0,1512.1300649998377,3.0,1.0,part_3,go,0.0,0.0,0.0,580.0,5.0,696.0,116.0,232.0,464.0,580.0,348.0,magenta,circle
0.0,3.0,3.0,0.0,7.0,1.0,1416.3347040002918,3.0,1.0,part_3,go,0.0,0.0,0.0,865.0,5.0,865.0,519.0,692.0,346.0,1038.0,173.0,blue,triangle
0.0,3.0,3.0,0.0,7.0,4.0,1870.496366000225,3.0,1.0,part_3,go,0.0,0.0,0.0,696.0,6.0,348.0,580.0,116.0,696.0,232.0,464.0,blue,triangle
0.0,2.0,2.0,0.0,7.0,2.0,1351.03858399998,3.0,1.0,part_3,go,0.0,0.0,0.0,810.0,6.0,675.0,810.0,270.0,135.0,540.0,405.0,yellow,diamond
0.0,7.0,3.0,1.0,7.0,4.0,1803.2924420003835,3.0,1.0,part_3,go,0.0,0.0,0.0,405.0,3.0,810.0,135.0,675.0,405.0,270.0,540.0,green,flipped triangle
0.0,4.0,4.0,0.0,7.0,5.0,1351.7797819995394,3.0,1.0,part_3,go,0.0,0.0,0.0,580.0,5.0,464.0,116.0,232.0,696.0,580.0,348.0,orange,square
0.0,2.0,2.0,0.0,7.0,1.0,1589.077325999824,3.0,1.0,part_3,go,0.0,0.0,0.0,675.0,5.0,675.0,810.0,405.0,270.0,540.0,135.0,yellow,diamond
0.0,6.0,2.0,1.0,7.0,2.0,1407.7156710000054,3.0,1.0,part_3,go,0.0,0.0,0.0,346.0,2.0,865.0,346.0,1038.0,519.0,692.0,173.0,cyan,cross
0.0,6.0,2.0,1.0,7.0,4.0,1871.9138340002248,3.0,1.0,part_3,go,0.0,0.0,0.0,540.0,4.0,810.0,405.0,135.0,540.0,675.0,270.0,cyan,cross
0.0,1.0,1.0,0.0,7.0,3.0,1361.6608160000396,3.0,1.0,part_3,go,0.0,0.0,0.0,692.0,4.0,865.0,519.0,692.0,346.0,1038.0,173.0,magenta,circle
0.0,7.0,3.0,1.0,7.0,3.0,1251.6433350001537,3.0,1.0,part_3,go,0.0,0.0,0.0,308.0,2.0,154.0,616.0,308.0,770.0,924.0,462.0,green,flipped triangle
0.0,5.0,1.0,1.0,7.0,4.0,1372.8289569999106,3.0,1.0,part_3,go,0.0,0.0,0.0,960.0,5.0,576.0,192.0,1152.0,960.0,384.0,768.0,gray,I
0.0,2.0,2.0,0.0,7.0,5.0,1465.8102379999036,3.0,1.0,part_3,go,0.0,0.0,0.0,348.0,3.0,232.0,116.0,464.0,696.0,348.0,580.0,yellow,diamond
0.0,6.0,2.0,1.0,7.0,2.0,1243.5989980003797,3.0,1.0,part_3,go,0.0,0.0,0.0,770.0,5.0,924.0,770.0,154.0,308.0,616.0,462.0,cyan,cross
0.0,2.0,2.0,0.0,7.0,5.0,1936.5252640000108,3.0,1.0,part_3,go,0.0,0.0,0.0,576.0,3.0,768.0,960.0,384.0,1152.0,576.0,192.0,yellow,diamond
0.0,5.0,1.0,1.0,7.0,3.0,1510.766304999379,3.0,1.0,part_3,go,0.0,0.0,0.0,616.0,4.0,462.0,924.0,616.0,154.0,770.0,308.0,gray,I
0.0,4.0,4.0,0.0,7.0,2.0,1452.718743999867,3.0,1.0,part_3,go,0.0,0.0,0.0,692.0,4.0,346.0,692.0,173.0,519.0,1038.0,865.0,orange,square
0.0,2.0,2.0,0.0,7.0,6.0,1618.3255550004103,3.0,1.0,part_3,go,0.0,0.0,0.0,580.0,5.0,464.0,348.0,116.0,696.0,232.0,580.0,yellow,diamond
0.0,8.0,4.0,1.0,7.0,3.0,1213.552133000121,3.0,1.0,part_3,go,0.0,0.0,0.0,810.0,6.0,270.0,540.0,810.0,675.0,135.0,405.0,white,hexagon
0.0,4.0,4.0,0.0,7.0,3.0,1867.47711299995,3.0,1.0,part_3,go,0.0,0.0,0.0,696.0,6.0,464.0,348.0,696.0,580.0,116.0,232.0,orange,square
0.0,1.0,1.0,0.0,7.0,6.0,1414.397452999765,4.0,1.0,part_3,go,0.0,0.0,0.0,924.0,6.0,462.0,770.0,308.0,154.0,616.0,924.0,magenta,circle
0.0,2.0,2.0,0.0,7.0,3.0,1221.8777230000342,4.0,1.0,part_3,go,0.0,0.0,0.0,616.0,4.0,308.0,154.0,616.0,924.0,462.0,770.0,yellow,diamond
0.0,3.0,3.0,0.0,7.0,2.0,1388.644233999912,4.0,1.0,part_3,go,0.0,0.0,0.0,770.0,5.0,616.0,770.0,462.0,924.0,154.0,308.0,blue,triangle
0.0,3.0,3.0,0.0,7.0,5.0,1479.9322939998092,4.0,1.0,part_3,go,0.0,0.0,0.0,810.0,6.0,405.0,135.0,675.0,270.0,810.0,540.0,blue,triangle
0.0,5.0,1.0,1.0,7.0,2.0,1204.6015400001124,4.0,1.0,part_3,go,0.0,0.0,0.0,1038.0,6.0,173.0,1038.0,865.0,519.0,346.0,692.0,gray,I
0.0,6.0,2.0,1.0,7.0,4.0,1267.2039509998283,4.0,1.0,part_3,go,0.0,0.0,0.0,464.0,4.0,232.0,116.0,348.0,464.0,580.0,696.0,cyan,cross
0.0,8.0,4.0,1.0,7.0,2.0,1358.8156790001449,4.0,1.0,part_3,go,0.0,0.0,0.0,308.0,2.0,462.0,308.0,616.0,770.0,924.0,154.0,white,hexagon
0.0,1.0,1.0,0.0,7.0,1.0,1564.3483110006855,4.0,1.0,part_3,go,0.0,0.0,0.0,865.0,5.0,865.0,173.0,519.0,346.0,1038.0,692.0,magenta,circle
0.0,4.0,4.0,0.0,7.0,5.0,1551.6896350000025,4.0,1.0,part_3,go,0.0,0.0,0.0,675.0,5.0,135.0,810.0,405.0,540.0,675.0,270.0,orange,square
0.0,8.0,4.0,1.0,7.0,4.0,1480.0952140003574,4.0,1.0,part_3,go,0.0,0.0,0.0,348.0,3.0,116.0,464.0,232.0,348.0,580.0,696.0,white,hexagon
0.0,6.0,2.0,1.0,7.0,3.0,1387.5496239998029,4.0,1.0,part_3,go,0.0,0.0,0.0,865.0,5.0,173.0,519.0,865.0,692.0,346.0,1038.0,cyan,cross
0.0,3.0,3.0,0.0,7.0,6.0,2393.744445000266,4.0,1.0,part_3,go,0.0,0.0,0.0,960.0,5.0,384.0,768.0,192.0,576.0,1152.0,960.0,blue,triangle
0.0,1.0,1.0,0.0,7.0,5.0,2483.462598000187,4.0,1.0,part_3,go,0.0,0.0,0.0,462.0,3.0,770.0,924.0,308.0,154.0,462.0,616.0,magenta,circle
0.0,7.0,3.0,1.0,7.0,5.0,2157.786023999506,4.0,1.0,part_3,go,0.0,0.0,0.0,384.0,2.0,960.0,1152.0,576.0,192.0,384.0,768.0,green,flipped triangle
0.0,6.0,2.0,1.0,7.0,6.0,1934.4480629997631,4.0,1.0,part_3,go,0.0,0.0,0.0,308.0,2.0,462.0,924.0,616.0,770.0,154.0,308.0,cyan,cross
0.0,5.0,1.0,1.0,7.0,4.0,3496.5783910001846,4.0,1.0,part_3,go,0.0,0.0,0.0,384.0,2.0,576.0,960.0,192.0,384.0,768.0,1152.0,gray,I
0.0,6.0,2.0,1.0,7.0,6.0,2608.399164999355,4.0,1.0,part_3,go,0.0,0.0,0.0,270.0,2.0,540.0,135.0,810.0,405.0,675.0,270.0,cyan,cross
0.0,6.0,2.0,1.0,7.0,3.0,2185.015789999852,4.0,1.0,part_3,go,0.0,0.0,0.0,960.0,5.0,768.0,576.0,960.0,192.0,1152.0,384.0,cyan,cross
0.0,8.0,4.0,1.0,7.0,5.0,1425.7703780003794,4.0,1.0,part_3,go,0.0,0.0,0.0,580.0,5.0,696.0,116.0,348.0,232.0,580.0,464.0,white,hexagon
0.0,7.0,3.0,1.0,7.0,6.0,1546.1570200004644,4.0,1.0,part_3,go,0.0,0.0,0.0,580.0,5.0,348.0,232.0,464.0,116.0,696.0,580.0,green,flipped triangle
