raw_reward_magnitude,stim_reward,stepwise_reward_magnitude,paired_with_stopping,quadrant,response,reaction_time,block,num_trial_presentations,which_part,stop_signal_trial_type,left_SSD,right_SSD,accuracy,chosen_bidding_amount,chosen_bidding_level,possible_bid_1,possible_bid_2,possible_bid_3,possible_bid_4,possible_bid_5,possible_bid_6,color_text,shape_text
1300.0,4.0,4.0,0.0,1.0,1.0,304.1320509996694,1.0,1.0,part_1,,,,,,,,,,,,,green,square
1293.0,4.0,4.0,0.0,1.0,1.0,387.919452999995,1.0,1.0,part_1,,,,,,,,,,,,,green,square
653.0,7.0,3.0,1.0,3.0,3.0,387.3595340000975,1.0,1.0,part_1,,,,,,,,,,,,,yellow,hexagon
171.0,1.0,1.0,0.0,1.0,1.0,402.4119799996697,1.0,1.0,part_1,,,,,,,,,,,,,gray,cross
149.0,5.0,1.0,1.0,3.0,3.0,323.1965899999522,1.0,1.0,part_1,,,,,,,,,,,,,magenta,flipped triangle
627.0,3.0,3.0,0.0,4.0,4.0,370.057547000215,1.0,1.0,part_1,,,,,,,,,,,,,cyan,I
1291.0,8.0,4.0,1.0,4.0,4.0,352.183309999873,1.0,1.0,part_1,,,,,,,,,,,,,blue,diamond
0.0,3.0,0.0,0.0,4.0,4.0,313.9575040004274,1.0,1.0,part_1,,,,,,,,,,,,,cyan,I
1284.0,4.0,4.0,0.0,2.0,2.0,286.6714840001805,1.0,1.0,part_1,,,,,,,,,,,,,green,square
156.0,5.0,1.0,1.0,4.0,4.0,296.8078559997593,1.0,1.0,part_1,,,,,,,,,,,,,magenta,flipped triangle
1278.0,4.0,4.0,0.0,4.0,4.0,389.3276419998983,1.0,1.0,part_1,,,,,,,,,,,,,green,square
661.0,3.0,3.0,0.0,3.0,3.0,323.0271089996677,1.0,1.0,part_1,,,,,,,,,,,,,cyan,I
303.0,2.0,2.0,0.0,1.0,1.0,286.4956670000538,1.0,1.0,part_1,,,,,,,,,,,,,white,triangle
165.0,5.0,1.0,1.0,1.0,1.0,415.169569000227,1.0,1.0,part_1,,,,,,,,,,,,,magenta,flipped triangle
181.0,1.0,1.0,0.0,3.0,3.0,352.0435089999409,1.0,1.0,part_1,,,,,,,,,,,,,gray,cross
159.0,1.0,1.0,0.0,3.0,3.0,388.1290919998719,1.0,2.0,part_1,,,,,,,,,,,,,gray,cross
330.0,6.0,2.0,1.0,3.0,3.0,388.8006780002797,1.0,1.0,part_1,,,,,,,,,,,,,orange,circle
0.0,6.0,0.0,1.0,3.0,3.0,397.8659740000694,1.0,1.0,part_1,,,,,,,,,,,,,orange,circle
1319.0,4.0,4.0,0.0,2.0,2.0,370.0179719999141,1.0,1.0,part_1,,,,,,,,,,,,,green,square
184.0,1.0,1.0,0.0,2.0,2.0,342.9135639999003,1.0,1.0,part_1,,,,,,,,,,,,,gray,cross
311.0,2.0,2.0,0.0,3.0,3.0,315.5943880001359,1.0,1.0,part_1,,,,,,,,,,,,,white,triangle
1282.0,8.0,4.0,1.0,1.0,1.0,389.67949400012,1.0,1.0,part_1,,,,,,,,,,,,,blue,diamond
335.0,2.0,2.0,0.0,3.0,3.0,286.3040249999358,1.0,1.0,part_1,,,,,,,,,,,,,white,triangle
1278.0,8.0,4.0,1.0,1.0,1.0,333.1284109999615,1.0,1.0,part_1,,,,,,,,,,,,,blue,diamond
1303.0,8.0,4.0,1.0,1.0,1.0,380.3033310000501,1.0,1.0,part_1,,,,,,,,,,,,,blue,diamond
1308.0,4.0,4.0,0.0,4.0,4.0,305.4022680003072,1.0,1.0,part_1,,,,,,,,,,,,,green,square
320.0,6.0,2.0,1.0,3.0,3.0,333.1621439997434,1.0,1.0,part_1,,,,,,,,,,,,,orange,circle
1298.0,4.0,4.0,0.0,1.0,1.0,297.1115479999753,1.0,1.0,part_1,,,,,,,,,,,,,green,square
0.0,7.0,0.0,1.0,1.0,1.0,341.9966700002987,1.0,1.0,part_1,,,,,,,,,,,,,yellow,hexagon
1303.0,8.0,4.0,1.0,2.0,2.0,397.5706199998967,1.0,1.0,part_1,,,,,,,,,,,,,blue,diamond
0.0,1.0,0.0,0.0,3.0,3.0,388.9984870002081,1.0,1.0,part_1,,,,,,,,,,,,,gray,cross
653.0,3.0,3.0,0.0,2.0,2.0,416.4939470001627,1.0,1.0,part_1,,,,,,,,,,,,,cyan,I
1282.0,4.0,4.0,0.0,3.0,3.0,444.1737749998538,1.0,1.0,part_1,,,,,,,,,,,,,green,square
1304.0,8.0,4.0,1.0,4.0,4.0,287.9549049998786,1.0,1.0,part_1,,,,,,,,,,,,,blue,diamond
162.0,5.0,1.0,1.0,3.0,3.0,361.0275099999853,1.0,1.0,part_1,,,,,,,,,,,,,magenta,flipped triangle
1308.0,8.0,4.0,1.0,4.0,4.0,352.291058999981,1.0,1.0,part_1,,,,,,,,,,,,,blue,diamond
651.0,7.0,3.0,1.0,4.0,4.0,360.8361719998356,1.0,1.0,part_1,,,,,,,,,,,,,yellow,hexagon
673.0,7.0,3.0,1.0,4.0,4.0,333.1011079999371,1.0,1.0,part_1,,,,,,,,,,,,,yellow,hexagon
672.0,7.0,3.0,1.0,3.0,3.0,388.9973650002503,1.0,1.0,part_1,,,,,,,,,,,,,yellow,hexagon
311.0,6.0,2.0,1.0,4.0,4.0,379.2955839999195,1.0,1.0,part_1,,,,,,,,,,,,,orange,circle
0.0,6.0,0.0,1.0,1.0,1.0,379.0993550001076,1.0,1.0,part_1,,,,,,,,,,,,,orange,circle
145.0,5.0,1.0,1.0,4.0,4.0,381.1587119998876,1.0,1.0,part_1,,,,,,,,,,,,,magenta,flipped triangle
0.0,5.0,0.0,1.0,2.0,2.0,351.0036040001978,1.0,1.0,part_1,,,,,,,,,,,,,magenta,flipped triangle
172.0,1.0,1.0,0.0,3.0,3.0,352.6248019998093,1.0,1.0,part_1,,,,,,,,,,,,,gray,cross
0.0,6.0,0.0,1.0,1.0,1.0,407.837931999893,1.0,1.0,part_1,,,,,,,,,,,,,orange,circle
155.0,5.0,1.0,1.0,3.0,3.0,387.7126810002664,1.0,1.0,part_1,,,,,,,,,,,,,magenta,flipped triangle
1313.0,8.0,4.0,1.0,4.0,4.0,378.0010750001565,1.0,1.0,part_1,,,,,,,,,,,,,blue,diamond
658.0,3.0,3.0,0.0,4.0,4.0,360.8423750001748,1.0,1.0,part_1,,,,,,,,,,,,,cyan,I
1310.0,4.0,4.0,0.0,4.0,4.0,351.2123010000323,1.0,1.0,part_1,,,,,,,,,,,,,green,square
306.0,6.0,2.0,1.0,2.0,2.0,415.7715639998969,1.0,1.0,part_1,,,,,,,,,,,,,orange,circle
344.0,2.0,2.0,0.0,2.0,2.0,452.6074430000335,1.0,1.0,part_1,,,,,,,,,,,,,white,triangle
644.0,3.0,3.0,0.0,4.0,4.0,359.473036000054,1.0,1.0,part_1,,,,,,,,,,,,,cyan,I
0.0,4.0,0.0,0.0,1.0,1.0,305.409784999938,1.0,1.0,part_1,,,,,,,,,,,,,green,square
152.0,5.0,1.0,1.0,1.0,1.0,369.1871930000161,1.0,1.0,part_1,,,,,,,,,,,,,magenta,flipped triangle
630.0,7.0,3.0,1.0,1.0,1.0,343.5008419996848,1.0,1.0,part_1,,,,,,,,,,,,,yellow,hexagon
1313.0,4.0,4.0,0.0,2.0,2.0,362.2693779998371,1.0,1.0,part_1,,,,,,,,,,,,,green,square
171.0,5.0,1.0,1.0,4.0,4.0,324.9556800001301,1.0,1.0,part_1,,,,,,,,,,,,,magenta,flipped triangle
674.0,7.0,3.0,1.0,4.0,4.0,407.5167649998548,1.0,1.0,part_1,,,,,,,,,,,,,yellow,hexagon
0.0,3.0,0.0,0.0,3.0,3.0,360.8228309999504,1.0,1.0,part_1,,,,,,,,,,,,,cyan,I
327.0,2.0,2.0,0.0,3.0,3.0,435.0908940000408,1.0,1.0,part_1,,,,,,,,,,,,,white,triangle
654.0,3.0,3.0,0.0,4.0,4.0,351.4528099999552,1.0,1.0,part_1,,,,,,,,,,,,,cyan,I
666.0,3.0,3.0,0.0,2.0,2.0,406.833555999583,1.0,1.0,part_1,,,,,,,,,,,,,cyan,I
1324.0,8.0,4.0,1.0,2.0,2.0,399.5569069998055,1.0,1.0,part_1,,,,,,,,,,,,,blue,diamond
324.0,2.0,2.0,0.0,3.0,3.0,369.0133289996993,1.0,1.0,part_1,,,,,,,,,,,,,white,triangle
337.0,6.0,2.0,1.0,1.0,1.0,369.495970999651,1.0,1.0,part_1,,,,,,,,,,,,,orange,circle
341.0,6.0,2.0,1.0,2.0,2.0,333.2013160002134,1.0,1.0,part_1,,,,,,,,,,,,,orange,circle
1288.0,8.0,4.0,1.0,3.0,3.0,387.8916470002878,1.0,1.0,part_1,,,,,,,,,,,,,blue,diamond
646.0,7.0,3.0,1.0,2.0,2.0,358.3512529999098,1.0,1.0,part_1,,,,,,,,,,,,,yellow,hexagon
639.0,3.0,3.0,0.0,2.0,2.0,388.8726489999499,1.0,1.0,part_1,,,,,,,,,,,,,cyan,I
165.0,5.0,1.0,1.0,1.0,1.0,472.3200739999811,1.0,1.0,part_1,,,,,,,,,,,,,magenta,flipped triangle
339.0,2.0,2.0,0.0,1.0,1.0,462.6916459997119,1.0,1.0,part_1,,,,,,,,,,,,,white,triangle
654.0,7.0,3.0,1.0,2.0,2.0,397.860763999688,1.0,1.0,part_1,,,,,,,,,,,,,yellow,hexagon
631.0,3.0,3.0,0.0,2.0,2.0,425.7451930002389,1.0,1.0,part_1,,,,,,,,,,,,,cyan,I
162.0,1.0,1.0,0.0,2.0,2.0,349.5559210000465,1.0,1.0,part_1,,,,,,,,,,,,,gray,cross
1309.0,8.0,4.0,1.0,3.0,3.0,443.7790740003038,1.0,1.0,part_1,,,,,,,,,,,,,blue,diamond
1290.0,4.0,4.0,0.0,3.0,3.0,417.9671409997354,1.0,1.0,part_1,,,,,,,,,,,,,green,square
302.0,2.0,2.0,0.0,3.0,3.0,415.0356850000207,1.0,1.0,part_1,,,,,,,,,,,,,white,triangle
0.0,2.0,0.0,0.0,2.0,2.0,442.2916280000208,1.0,1.0,part_1,,,,,,,,,,,,,white,triangle
1298.0,8.0,4.0,1.0,2.0,2.0,368.4793100001116,1.0,1.0,part_1,,,,,,,,,,,,,blue,diamond
666.0,7.0,3.0,1.0,3.0,3.0,498.5277460000361,1.0,1.0,part_1,,,,,,,,,,,,,yellow,hexagon
1303.0,4.0,4.0,0.0,3.0,3.0,480.1019660003476,1.0,1.0,part_1,,,,,,,,,,,,,green,square
138.0,1.0,1.0,0.0,2.0,2.0,507.41471699984686,1.0,1.0,part_1,,,,,,,,,,,,,gray,cross
1317.0,8.0,4.0,1.0,2.0,2.0,526.8511260001105,1.0,1.0,part_1,,,,,,,,,,,,,blue,diamond
347.0,2.0,2.0,0.0,1.0,1.0,378.6786979999306,1.0,1.0,part_1,,,,,,,,,,,,,white,triangle
1300.0,4.0,4.0,0.0,4.0,4.0,507.27093799969225,1.0,1.0,part_1,,,,,,,,,,,,,green,square
327.0,2.0,2.0,0.0,2.0,2.0,313.2881850001467,1.0,1.0,part_1,,,,,,,,,,,,,white,triangle
657.0,7.0,3.0,1.0,3.0,3.0,341.7779470000823,1.0,1.0,part_1,,,,,,,,,,,,,yellow,hexagon
185.0,1.0,1.0,0.0,1.0,1.0,359.2865629998414,1.0,1.0,part_1,,,,,,,,,,,,,gray,cross
0.0,1.0,0.0,0.0,1.0,1.0,341.2296849996892,1.0,1.0,part_1,,,,,,,,,,,,,gray,cross
140.0,1.0,1.0,0.0,1.0,1.0,341.3108230001853,1.0,1.0,part_1,,,,,,,,,,,,,gray,cross
138.0,5.0,1.0,1.0,3.0,3.0,435.87311400006,1.0,1.0,part_1,,,,,,,,,,,,,magenta,flipped triangle
0.0,7.0,0.0,1.0,4.0,4.0,418.3725089997097,1.0,1.0,part_1,,,,,,,,,,,,,yellow,hexagon
628.0,3.0,3.0,0.0,4.0,4.0,406.0625619999882,1.0,1.0,part_1,,,,,,,,,,,,,cyan,I
665.0,3.0,3.0,0.0,2.0,2.0,434.3646790002822,1.0,1.0,part_1,,,,,,,,,,,,,cyan,I
165.0,1.0,1.0,0.0,1.0,1.0,368.826006999825,1.0,1.0,part_1,,,,,,,,,,,,,gray,cross
1293.0,8.0,4.0,1.0,2.0,2.0,405.7500230001096,1.0,1.0,part_1,,,,,,,,,,,,,blue,diamond
166.0,5.0,1.0,1.0,3.0,3.0,516.7376790000162,1.0,1.0,part_1,,,,,,,,,,,,,magenta,flipped triangle
324.0,6.0,2.0,1.0,1.0,1.0,351.5957249996972,1.0,1.0,part_1,,,,,,,,,,,,,orange,circle
339.0,6.0,2.0,1.0,3.0,3.0,488.7019299999338,1.0,1.0,part_1,,,,,,,,,,,,,orange,circle
1276.0,8.0,4.0,1.0,4.0,4.0,490.0837979998869,1.0,1.0,part_1,,,,,,,,,,,,,blue,diamond
0.0,1.0,0.0,0.0,4.0,4.0,370.4405309999856,2.0,1.0,part_1,,,,,,,,,,,,,gray,cross
144.0,1.0,1.0,0.0,2.0,2.0,333.346204999998,2.0,1.0,part_1,,,,,,,,,,,,,gray,cross
645.0,3.0,3.0,0.0,3.0,3.0,370.2846030000728,2.0,1.0,part_1,,,,,,,,,,,,,cyan,I
165.0,1.0,1.0,0.0,1.0,1.0,388.5299610001311,2.0,1.0,part_1,,,,,,,,,,,,,gray,cross
143.0,1.0,1.0,0.0,4.0,4.0,323.3020400002715,2.0,1.0,part_1,,,,,,,,,,,,,gray,cross
341.0,6.0,2.0,1.0,2.0,2.0,406.9145009998465,2.0,1.0,part_1,,,,,,,,,,,,,orange,circle
0.0,3.0,0.0,0.0,4.0,4.0,360.1062909997381,2.0,1.0,part_1,,,,,,,,,,,,,cyan,I
313.0,2.0,2.0,0.0,1.0,1.0,389.0747320001537,2.0,1.0,part_1,,,,,,,,,,,,,white,triangle
171.0,1.0,1.0,0.0,2.0,2.0,351.8426599998747,2.0,1.0,part_1,,,,,,,,,,,,,gray,cross
0.0,6.0,0.0,1.0,4.0,4.0,397.6914809995833,2.0,1.0,part_1,,,,,,,,,,,,,orange,circle
657.0,3.0,3.0,0.0,3.0,3.0,333.5768299998563,2.0,1.0,part_1,,,,,,,,,,,,,cyan,I
172.0,5.0,1.0,1.0,4.0,4.0,351.3231549995907,2.0,1.0,part_1,,,,,,,,,,,,,magenta,flipped triangle
334.0,6.0,2.0,1.0,1.0,1.0,314.8162479997154,2.0,1.0,part_1,,,,,,,,,,,,,orange,circle
0.0,2.0,0.0,0.0,4.0,4.0,414.9260680001134,2.0,1.0,part_1,,,,,,,,,,,,,white,triangle
183.0,1.0,1.0,0.0,3.0,3.0,333.0012040000838,2.0,1.0,part_1,,,,,,,,,,,,,gray,cross
155.0,5.0,1.0,1.0,3.0,3.0,379.3054539996774,2.0,1.0,part_1,,,,,,,,,,,,,magenta,flipped triangle
1303.0,4.0,4.0,0.0,1.0,1.0,379.7100910001063,2.0,2.0,part_1,,,,,,,,,,,,,green,square
654.0,7.0,3.0,1.0,3.0,3.0,435.2610539999659,2.0,1.0,part_1,,,,,,,,,,,,,yellow,hexagon
337.0,2.0,2.0,0.0,2.0,2.0,352.1119080000972,2.0,1.0,part_1,,,,,,,,,,,,,white,triangle
0.0,8.0,0.0,1.0,4.0,4.0,387.9150980001213,2.0,1.0,part_1,,,,,,,,,,,,,blue,diamond
636.0,7.0,3.0,1.0,2.0,2.0,359.8528610000358,2.0,1.0,part_1,,,,,,,,,,,,,yellow,hexagon
0.0,3.0,0.0,0.0,2.0,2.0,377.7590710001277,2.0,1.0,part_1,,,,,,,,,,,,,cyan,I
185.0,5.0,1.0,1.0,2.0,2.0,341.3843090002046,2.0,1.0,part_1,,,,,,,,,,,,,magenta,flipped triangle
1308.0,8.0,4.0,1.0,3.0,3.0,369.9927840002601,2.0,1.0,part_1,,,,,,,,,,,,,blue,diamond
648.0,7.0,3.0,1.0,1.0,1.0,331.924163000167,2.0,1.0,part_1,,,,,,,,,,,,,yellow,hexagon
0.0,5.0,0.0,1.0,2.0,2.0,304.852498999935,2.0,1.0,part_1,,,,,,,,,,,,,magenta,flipped triangle
0.0,2.0,0.0,0.0,1.0,1.0,312.4583710000479,2.0,1.0,part_1,,,,,,,,,,,,,white,triangle
658.0,7.0,3.0,1.0,2.0,2.0,375.7872520000092,2.0,1.0,part_1,,,,,,,,,,,,,yellow,hexagon
1313.0,4.0,4.0,0.0,2.0,2.0,498.7938770000255,2.0,1.0,part_1,,,,,,,,,,,,,green,square
330.0,2.0,2.0,0.0,2.0,2.0,377.7769410003202,2.0,1.0,part_1,,,,,,,,,,,,,white,triangle
155.0,1.0,1.0,0.0,3.0,3.0,387.3828840000897,2.0,1.0,part_1,,,,,,,,,,,,,gray,cross
1284.0,8.0,4.0,1.0,4.0,4.0,386.8946719999258,2.0,1.0,part_1,,,,,,,,,,,,,blue,diamond
639.0,7.0,3.0,1.0,1.0,1.0,350.2187899998716,2.0,1.0,part_1,,,,,,,,,,,,,yellow,hexagon
345.0,6.0,2.0,1.0,4.0,4.0,360.066235999966,2.0,1.0,part_1,,,,,,,,,,,,,orange,circle
183.0,5.0,1.0,1.0,2.0,2.0,322.1714920000522,2.0,1.0,part_1,,,,,,,,,,,,,magenta,flipped triangle
143.0,5.0,1.0,1.0,1.0,1.0,424.4339360002414,2.0,1.0,part_1,,,,,,,,,,,,,magenta,flipped triangle
0.0,7.0,0.0,1.0,3.0,3.0,461.732455999936,2.0,1.0,part_1,,,,,,,,,,,,,yellow,hexagon
0.0,8.0,0.0,1.0,3.0,3.0,368.6191159999907,2.0,1.0,part_1,,,,,,,,,,,,,blue,diamond
348.0,2.0,2.0,0.0,4.0,4.0,377.0686900002147,2.0,1.0,part_1,,,,,,,,,,,,,white,triangle
672.0,7.0,3.0,1.0,4.0,4.0,396.3264899998648,2.0,1.0,part_1,,,,,,,,,,,,,yellow,hexagon
343.0,6.0,2.0,1.0,4.0,4.0,389.6251649998703,2.0,1.0,part_1,,,,,,,,,,,,,orange,circle
310.0,2.0,2.0,0.0,3.0,3.0,396.3171940004031,2.0,1.0,part_1,,,,,,,,,,,,,white,triangle
0.0,7.0,0.0,1.0,4.0,4.0,359.3438480002078,2.0,1.0,part_1,,,,,,,,,,,,,yellow,hexagon
0.0,7.0,0.0,1.0,2.0,2.0,544.2269719997057,2.0,1.0,part_1,,,,,,,,,,,,,yellow,hexagon
300.0,2.0,2.0,0.0,3.0,3.0,378.4540440001365,2.0,1.0,part_1,,,,,,,,,,,,,white,triangle
1299.0,8.0,4.0,1.0,3.0,3.0,323.4739709996574,2.0,1.0,part_1,,,,,,,,,,,,,blue,diamond
341.0,2.0,2.0,0.0,4.0,4.0,407.0664330001818,2.0,1.0,part_1,,,,,,,,,,,,,white,triangle
655.0,7.0,3.0,1.0,4.0,4.0,433.4971670000414,2.0,1.0,part_1,,,,,,,,,,,,,yellow,hexagon
140.0,5.0,1.0,1.0,1.0,1.0,368.5907939998287,2.0,1.0,part_1,,,,,,,,,,,,,magenta,flipped triangle
0.0,4.0,0.0,0.0,2.0,2.0,396.291863999977,2.0,1.0,part_1,,,,,,,,,,,,,green,square
305.0,2.0,2.0,0.0,4.0,4.0,370.6968749997941,2.0,1.0,part_1,,,,,,,,,,,,,white,triangle
0.0,2.0,0.0,0.0,3.0,3.0,360.8442540003125,2.0,1.0,part_1,,,,,,,,,,,,,white,triangle
1276.0,4.0,4.0,0.0,4.0,4.0,360.0667630003045,2.0,1.0,part_1,,,,,,,,,,,,,green,square
341.0,2.0,2.0,0.0,4.0,4.0,378.8086499998826,2.0,1.0,part_1,,,,,,,,,,,,,white,triangle
0.0,5.0,0.0,1.0,1.0,1.0,416.2040659998638,2.0,1.0,part_1,,,,,,,,,,,,,magenta,flipped triangle
177.0,5.0,1.0,1.0,2.0,2.0,499.4194789996982,2.0,1.0,part_1,,,,,,,,,,,,,magenta,flipped triangle
1302.0,8.0,4.0,1.0,1.0,1.0,405.1002109999899,2.0,1.0,part_1,,,,,,,,,,,,,blue,diamond
0.0,8.0,0.0,1.0,2.0,2.0,414.2323209998722,2.0,1.0,part_1,,,,,,,,,,,,,blue,diamond
149.0,1.0,1.0,0.0,2.0,2.0,434.233777999907,2.0,1.0,part_1,,,,,,,,,,,,,gray,cross
172.0,1.0,1.0,0.0,1.0,1.0,426.1500160000651,2.0,1.0,part_1,,,,,,,,,,,,,gray,cross
668.0,3.0,3.0,0.0,1.0,1.0,341.538003000096,2.0,1.0,part_1,,,,,,,,,,,,,cyan,I
655.0,7.0,3.0,1.0,1.0,1.0,359.9147660002018,2.0,1.0,part_1,,,,,,,,,,,,,yellow,hexagon
182.0,1.0,1.0,0.0,4.0,4.0,470.5458649996217,2.0,1.0,part_1,,,,,,,,,,,,,gray,cross
0.0,5.0,0.0,1.0,1.0,1.0,397.3560599997654,2.0,1.0,part_1,,,,,,,,,,,,,magenta,flipped triangle
0.0,8.0,0.0,1.0,3.0,3.0,359.9648149997847,2.0,1.0,part_1,,,,,,,,,,,,,blue,diamond
0.0,3.0,0.0,0.0,1.0,1.0,472.6811290001933,2.0,1.0,part_1,,,,,,,,,,,,,cyan,I
656.0,3.0,3.0,0.0,3.0,3.0,452.9737009997916,2.0,1.0,part_1,,,,,,,,,,,,,cyan,I
172.0,5.0,1.0,1.0,3.0,3.0,461.0861239998485,2.0,1.0,part_1,,,,,,,,,,,,,magenta,flipped triangle
646.0,3.0,3.0,0.0,1.0,1.0,461.0737510001854,2.0,1.0,part_1,,,,,,,,,,,,,cyan,I
306.0,2.0,2.0,0.0,1.0,1.0,396.9349730000431,2.0,1.0,part_1,,,,,,,,,,,,,white,triangle
325.0,6.0,2.0,1.0,4.0,4.0,462.2212630001741,2.0,1.0,part_1,,,,,,,,,,,,,orange,circle
655.0,3.0,3.0,0.0,4.0,4.0,350.6496320001133,2.0,1.0,part_1,,,,,,,,,,,,,cyan,I
144.0,5.0,1.0,1.0,4.0,4.0,369.7968299998138,2.0,1.0,part_1,,,,,,,,,,,,,magenta,flipped triangle
1290.0,8.0,4.0,1.0,3.0,3.0,360.4325639998933,2.0,1.0,part_1,,,,,,,,,,,,,blue,diamond
156.0,1.0,1.0,0.0,4.0,4.0,488.4154790001958,2.0,1.0,part_1,,,,,,,,,,,,,gray,cross
1305.0,8.0,4.0,1.0,1.0,1.0,442.7039979996152,2.0,1.0,part_1,,,,,,,,,,,,,blue,diamond
161.0,5.0,1.0,1.0,2.0,2.0,332.5042240003313,2.0,1.0,part_1,,,,,,,,,,,,,magenta,flipped triangle
0.0,3.0,0.0,0.0,4.0,4.0,580.9782370001813,2.0,1.0,part_1,,,,,,,,,,,,,cyan,I
179.0,1.0,1.0,0.0,1.0,1.0,406.9727160003822,2.0,1.0,part_1,,,,,,,,,,,,,gray,cross
304.0,2.0,2.0,0.0,2.0,2.0,396.8767540000044,2.0,1.0,part_1,,,,,,,,,,,,,white,triangle
637.0,3.0,3.0,0.0,1.0,1.0,351.3643500000398,2.0,1.0,part_1,,,,,,,,,,,,,cyan,I
0.0,8.0,0.0,1.0,4.0,4.0,359.8239220000323,2.0,1.0,part_1,,,,,,,,,,,,,blue,diamond
1280.0,8.0,4.0,1.0,3.0,3.0,554.1617180001595,2.0,1.0,part_1,,,,,,,,,,,,,blue,diamond
633.0,7.0,3.0,1.0,4.0,4.0,452.6880349999373,2.0,1.0,part_1,,,,,,,,,,,,,yellow,hexagon
1310.0,8.0,4.0,1.0,2.0,2.0,414.4052330002523,2.0,1.0,part_1,,,,,,,,,,,,,blue,diamond
1310.0,8.0,4.0,1.0,4.0,4.0,424.202047000108,2.0,1.0,part_1,,,,,,,,,,,,,blue,diamond
628.0,7.0,3.0,1.0,3.0,3.0,341.971872999693,2.0,1.0,part_1,,,,,,,,,,,,,yellow,hexagon
1324.0,4.0,4.0,0.0,2.0,2.0,479.0847180001947,2.0,1.0,part_1,,,,,,,,,,,,,green,square
1323.0,4.0,4.0,0.0,1.0,1.0,415.026332999787,2.0,1.0,part_1,,,,,,,,,,,,,green,square
655.0,3.0,3.0,0.0,4.0,4.0,407.1571500003301,2.0,1.0,part_1,,,,,,,,,,,,,cyan,I
637.0,7.0,3.0,1.0,1.0,1.0,443.190568999853,2.0,1.0,part_1,,,,,,,,,,,,,yellow,hexagon
672.0,3.0,3.0,0.0,1.0,1.0,441.7261449998477,2.0,1.0,part_1,,,,,,,,,,,,,cyan,I
345.0,2.0,2.0,0.0,2.0,2.0,507.3896369999602,2.0,1.0,part_1,,,,,,,,,,,,,white,triangle
1313.0,8.0,4.0,1.0,2.0,2.0,462.4504319999687,2.0,1.0,part_1,,,,,,,,,,,,,blue,diamond
138.0,5.0,1.0,1.0,4.0,4.0,461.0500620001403,2.0,1.0,part_1,,,,,,,,,,,,,magenta,flipped triangle
631.0,3.0,3.0,0.0,3.0,3.0,369.779600000129,2.0,1.0,part_1,,,,,,,,,,,,,cyan,I
0.0,3.0,0.0,0.0,4.0,4.0,546.8870180002341,2.0,1.0,part_1,,,,,,,,,,,,,cyan,I
642.0,7.0,3.0,1.0,2.0,2.0,342.2472709999056,2.0,1.0,part_1,,,,,,,,,,,,,yellow,hexagon
305.0,6.0,2.0,1.0,4.0,4.0,436.1259919996882,2.0,1.0,part_1,,,,,,,,,,,,,orange,circle
1276.0,8.0,4.0,1.0,4.0,4.0,388.0804790001093,2.0,1.0,part_1,,,,,,,,,,,,,blue,diamond
1276.0,4.0,4.0,0.0,1.0,1.0,351.9120180003483,3.0,1.0,part_1,,,,,,,,,,,,,green,square
0.0,7.0,0.0,1.0,2.0,2.0,371.1517520000598,3.0,1.0,part_1,,,,,,,,,,,,,yellow,hexagon
171.0,1.0,1.0,0.0,4.0,4.0,312.8690130001814,3.0,1.0,part_1,,,,,,,,,,,,,gray,cross
147.0,1.0,1.0,0.0,2.0,2.0,324.1119449999132,3.0,1.0,part_1,,,,,,,,,,,,,gray,cross
0.0,6.0,0.0,1.0,3.0,3.0,433.7737529999685,3.0,3.0,part_1,,,,,,,,,,,,,orange,circle
1278.0,8.0,4.0,1.0,1.0,1.0,423.8461529998858,3.0,1.0,part_1,,,,,,,,,,,,,blue,diamond
348.0,6.0,2.0,1.0,1.0,1.0,414.4143329999679,3.0,1.0,part_1,,,,,,,,,,,,,orange,circle
1321.0,4.0,4.0,0.0,1.0,1.0,443.5760950000258,3.0,1.0,part_1,,,,,,,,,,,,,green,square
0.0,4.0,0.0,0.0,1.0,1.0,339.6575179999672,3.0,1.0,part_1,,,,,,,,,,,,,green,square
0.0,1.0,0.0,0.0,3.0,3.0,312.4993910000739,3.0,1.0,part_1,,,,,,,,,,,,,gray,cross
143.0,5.0,1.0,1.0,3.0,3.0,349.6961129999363,3.0,1.0,part_1,,,,,,,,,,,,,magenta,flipped triangle
346.0,6.0,2.0,1.0,1.0,1.0,388.9073179998377,3.0,1.0,part_1,,,,,,,,,,,,,orange,circle
1291.0,4.0,4.0,0.0,4.0,4.0,424.8744080000506,3.0,1.0,part_1,,,,,,,,,,,,,green,square
665.0,7.0,3.0,1.0,1.0,1.0,359.5335999998497,3.0,1.0,part_1,,,,,,,,,,,,,yellow,hexagon
0.0,4.0,0.0,0.0,1.0,1.0,368.5271809999904,3.0,1.0,part_1,,,,,,,,,,,,,green,square
633.0,3.0,3.0,0.0,3.0,3.0,462.3949110000467,3.0,1.0,part_1,,,,,,,,,,,,,cyan,I
0.0,8.0,0.0,1.0,1.0,1.0,314.0016090001154,3.0,1.0,part_1,,,,,,,,,,,,,blue,diamond
0.0,4.0,0.0,0.0,1.0,1.0,406.1921580000671,3.0,1.0,part_1,,,,,,,,,,,,,green,square
138.0,1.0,1.0,0.0,4.0,4.0,498.1638520002889,3.0,1.0,part_1,,,,,,,,,,,,,gray,cross
316.0,6.0,2.0,1.0,1.0,1.0,425.8935149996432,3.0,1.0,part_1,,,,,,,,,,,,,orange,circle
313.0,6.0,2.0,1.0,1.0,1.0,313.4102750000238,3.0,1.0,part_1,,,,,,,,,,,,,orange,circle
1276.0,4.0,4.0,0.0,4.0,4.0,452.8359319997435,3.0,1.0,part_1,,,,,,,,,,,,,green,square
648.0,3.0,3.0,0.0,2.0,2.0,322.745914999814,3.0,1.0,part_1,,,,,,,,,,,,,cyan,I
627.0,7.0,3.0,1.0,1.0,1.0,332.2642460002498,3.0,1.0,part_1,,,,,,,,,,,,,yellow,hexagon
314.0,6.0,2.0,1.0,2.0,2.0,350.7464220001566,3.0,1.0,part_1,,,,,,,,,,,,,orange,circle
177.0,1.0,1.0,0.0,1.0,1.0,331.4949030000207,3.0,1.0,part_1,,,,,,,,,,,,,gray,cross
0.0,5.0,0.0,1.0,2.0,2.0,395.3897010001128,3.0,1.0,part_1,,,,,,,,,,,,,magenta,flipped triangle
1318.0,8.0,4.0,1.0,1.0,1.0,276.5454250002221,3.0,1.0,part_1,,,,,,,,,,,,,blue,diamond
0.0,2.0,0.0,0.0,4.0,4.0,406.930839999859,3.0,1.0,part_1,,,,,,,,,,,,,white,triangle
0.0,2.0,0.0,0.0,3.0,3.0,304.0778019999379,3.0,1.0,part_1,,,,,,,,,,,,,white,triangle
159.0,1.0,1.0,0.0,2.0,2.0,377.557926999998,3.0,1.0,part_1,,,,,,,,,,,,,gray,cross
1288.0,8.0,4.0,1.0,3.0,3.0,359.5862389997819,3.0,1.0,part_1,,,,,,,,,,,,,blue,diamond
314.0,2.0,2.0,0.0,4.0,4.0,340.4317909999008,3.0,1.0,part_1,,,,,,,,,,,,,white,triangle
348.0,6.0,2.0,1.0,4.0,4.0,488.1453550001424,3.0,1.0,part_1,,,,,,,,,,,,,orange,circle
645.0,7.0,3.0,1.0,2.0,2.0,332.1047100002943,3.0,1.0,part_1,,,,,,,,,,,,,yellow,hexagon
1280.0,4.0,4.0,0.0,4.0,4.0,331.7127290001735,3.0,1.0,part_1,,,,,,,,,,,,,green,square
308.0,2.0,2.0,0.0,4.0,4.0,378.7140770000405,3.0,1.0,part_1,,,,,,,,,,,,,white,triangle
673.0,3.0,3.0,0.0,4.0,4.0,405.8038130001478,3.0,1.0,part_1,,,,,,,,,,,,,cyan,I
0.0,8.0,0.0,1.0,1.0,1.0,313.9081019999139,3.0,1.0,part_1,,,,,,,,,,,,,blue,diamond
325.0,2.0,2.0,0.0,2.0,2.0,470.9014309996746,3.0,1.0,part_1,,,,,,,,,,,,,white,triangle
628.0,7.0,3.0,1.0,4.0,4.0,451.8168209997384,3.0,1.0,part_1,,,,,,,,,,,,,yellow,hexagon
314.0,2.0,2.0,0.0,1.0,1.0,286.6790309999487,3.0,1.0,part_1,,,,,,,,,,,,,white,triangle
145.0,1.0,1.0,0.0,4.0,4.0,397.3811969999588,3.0,1.0,part_1,,,,,,,,,,,,,gray,cross
628.0,3.0,3.0,0.0,2.0,2.0,313.6673610001708,3.0,1.0,part_1,,,,,,,,,,,,,cyan,I
160.0,1.0,1.0,0.0,3.0,3.0,388.6609179999141,3.0,1.0,part_1,,,,,,,,,,,,,gray,cross
171.0,5.0,1.0,1.0,2.0,2.0,378.2586399997854,3.0,1.0,part_1,,,,,,,,,,,,,magenta,flipped triangle
314.0,6.0,2.0,1.0,2.0,2.0,323.7453990000176,3.0,1.0,part_1,,,,,,,,,,,,,orange,circle
0.0,7.0,0.0,1.0,4.0,4.0,323.2266009999875,3.0,1.0,part_1,,,,,,,,,,,,,yellow,hexagon
326.0,6.0,2.0,1.0,1.0,1.0,296.002540000245,3.0,1.0,part_1,,,,,,,,,,,,,orange,circle
300.0,6.0,2.0,1.0,1.0,1.0,343.3462829998461,3.0,1.0,part_1,,,,,,,,,,,,,orange,circle
339.0,6.0,2.0,1.0,3.0,3.0,303.7958160002745,3.0,1.0,part_1,,,,,,,,,,,,,orange,circle
187.0,1.0,1.0,0.0,2.0,2.0,351.5572690002955,3.0,1.0,part_1,,,,,,,,,,,,,gray,cross
169.0,1.0,1.0,0.0,2.0,2.0,333.441514000242,3.0,1.0,part_1,,,,,,,,,,,,,gray,cross
654.0,3.0,3.0,0.0,4.0,4.0,480.1328080002349,3.0,1.0,part_1,,,,,,,,,,,,,cyan,I
0.0,4.0,0.0,0.0,2.0,2.0,341.260420999788,3.0,1.0,part_1,,,,,,,,,,,,,green,square
306.0,6.0,2.0,1.0,2.0,2.0,314.0668340001866,3.0,1.0,part_1,,,,,,,,,,,,,orange,circle
0.0,1.0,0.0,0.0,2.0,2.0,323.9679530001922,3.0,1.0,part_1,,,,,,,,,,,,,gray,cross
629.0,3.0,3.0,0.0,3.0,3.0,378.4672669999054,3.0,1.0,part_1,,,,,,,,,,,,,cyan,I
308.0,6.0,2.0,1.0,1.0,1.0,295.7072569997763,3.0,1.0,part_1,,,,,,,,,,,,,orange,circle
0.0,5.0,0.0,1.0,3.0,3.0,352.4823080001624,3.0,1.0,part_1,,,,,,,,,,,,,magenta,flipped triangle
331.0,2.0,2.0,0.0,2.0,2.0,286.2859189999653,3.0,1.0,part_1,,,,,,,,,,,,,white,triangle
0.0,3.0,0.0,0.0,3.0,3.0,470.5290709998735,3.0,1.0,part_1,,,,,,,,,,,,,cyan,I
0.0,2.0,0.0,0.0,1.0,1.0,396.6006159998869,3.0,1.0,part_1,,,,,,,,,,,,,white,triangle
0.0,2.0,0.0,0.0,4.0,4.0,378.4099240001524,3.0,1.0,part_1,,,,,,,,,,,,,white,triangle
303.0,6.0,2.0,1.0,2.0,2.0,359.0718039999956,3.0,1.0,part_1,,,,,,,,,,,,,orange,circle
302.0,6.0,2.0,1.0,4.0,4.0,479.8582369999167,3.0,1.0,part_1,,,,,,,,,,,,,orange,circle
1300.0,8.0,4.0,1.0,2.0,2.0,350.6906210000124,3.0,1.0,part_1,,,,,,,,,,,,,blue,diamond
1277.0,8.0,4.0,1.0,2.0,2.0,386.6219669998827,3.0,1.0,part_1,,,,,,,,,,,,,blue,diamond
306.0,2.0,2.0,0.0,4.0,4.0,378.3536319997438,3.0,1.0,part_1,,,,,,,,,,,,,white,triangle
631.0,7.0,3.0,1.0,3.0,3.0,332.0900620001339,3.0,1.0,part_1,,,,,,,,,,,,,yellow,hexagon
638.0,3.0,3.0,0.0,3.0,3.0,415.265329000249,3.0,1.0,part_1,,,,,,,,,,,,,cyan,I
347.0,6.0,2.0,1.0,4.0,4.0,425.0596689998929,3.0,1.0,part_1,,,,,,,,,,,,,orange,circle
664.0,3.0,3.0,0.0,3.0,3.0,285.5452720000357,3.0,1.0,part_1,,,,,,,,,,,,,cyan,I
0.0,7.0,0.0,1.0,3.0,3.0,460.5906679998952,3.0,1.0,part_1,,,,,,,,,,,,,yellow,hexagon
327.0,6.0,2.0,1.0,4.0,4.0,323.3539590000873,3.0,1.0,part_1,,,,,,,,,,,,,orange,circle
0.0,6.0,0.0,1.0,2.0,2.0,266.7456249996576,3.0,1.0,part_1,,,,,,,,,,,,,orange,circle
316.0,2.0,2.0,0.0,3.0,3.0,286.1996689998705,3.0,1.0,part_1,,,,,,,,,,,,,white,triangle
160.0,5.0,1.0,1.0,2.0,2.0,405.1076190003186,3.0,1.0,part_1,,,,,,,,,,,,,magenta,flipped triangle
174.0,1.0,1.0,0.0,4.0,4.0,397.3380489996998,3.0,1.0,part_1,,,,,,,,,,,,,gray,cross
672.0,3.0,3.0,0.0,1.0,1.0,368.5903370001142,3.0,1.0,part_1,,,,,,,,,,,,,cyan,I
651.0,3.0,3.0,0.0,2.0,2.0,368.7691329996596,3.0,1.0,part_1,,,,,,,,,,,,,cyan,I
326.0,2.0,2.0,0.0,1.0,1.0,359.7755149999102,3.0,1.0,part_1,,,,,,,,,,,,,white,triangle
1300.0,8.0,4.0,1.0,3.0,3.0,360.1199260001522,3.0,1.0,part_1,,,,,,,,,,,,,blue,diamond
138.0,5.0,1.0,1.0,1.0,1.0,442.603464000058,3.0,1.0,part_1,,,,,,,,,,,,,magenta,flipped triangle
664.0,7.0,3.0,1.0,2.0,2.0,295.2233620003426,3.0,1.0,part_1,,,,,,,,,,,,,yellow,hexagon
662.0,7.0,3.0,1.0,3.0,3.0,488.143633999698,3.0,1.0,part_1,,,,,,,,,,,,,yellow,hexagon
149.0,1.0,1.0,0.0,1.0,1.0,414.8347350001131,3.0,1.0,part_1,,,,,,,,,,,,,gray,cross
179.0,5.0,1.0,1.0,4.0,4.0,396.6776879997269,3.0,1.0,part_1,,,,,,,,,,,,,magenta,flipped triangle
310.0,6.0,2.0,1.0,4.0,4.0,396.9724690000475,3.0,1.0,part_1,,,,,,,,,,,,,orange,circle
631.0,7.0,3.0,1.0,2.0,2.0,340.4661029999261,3.0,1.0,part_1,,,,,,,,,,,,,yellow,hexagon
1323.0,8.0,4.0,1.0,1.0,1.0,295.2931800000442,3.0,1.0,part_1,,,,,,,,,,,,,blue,diamond
0.0,1.0,0.0,0.0,1.0,1.0,372.1079349998035,3.0,1.0,part_1,,,,,,,,,,,,,gray,cross
339.0,2.0,2.0,0.0,1.0,1.0,341.8951379999271,3.0,1.0,part_1,,,,,,,,,,,,,white,triangle
155.0,1.0,1.0,0.0,4.0,4.0,461.980517000029,3.0,1.0,part_1,,,,,,,,,,,,,gray,cross
1288.0,4.0,4.0,0.0,2.0,2.0,294.0726150000046,3.0,1.0,part_1,,,,,,,,,,,,,green,square
630.0,3.0,3.0,0.0,1.0,1.0,310.2172409999184,3.0,1.0,part_1,,,,,,,,,,,,,cyan,I
666.0,3.0,3.0,0.0,3.0,3.0,525.8984759998384,3.0,2.0,part_1,,,,,,,,,,,,,cyan,I
326.0,2.0,2.0,0.0,1.0,1.0,368.6678710000706,3.0,1.0,part_1,,,,,,,,,,,,,white,triangle
674.0,3.0,3.0,0.0,4.0,4.0,452.9748600002676,3.0,1.0,part_1,,,,,,,,,,,,,cyan,I
1277.0,4.0,4.0,0.0,2.0,2.0,332.2547510001641,3.0,1.0,part_1,,,,,,,,,,,,,green,square
187.0,5.0,1.0,1.0,3.0,3.0,472.5181550002162,4.0,1.0,part_1,,,,,,,,,,,,,magenta,flipped triangle
0.0,2.0,0.0,0.0,2.0,2.0,415.1332380001804,4.0,1.0,part_1,,,,,,,,,,,,,white,triangle
1308.0,4.0,4.0,0.0,1.0,1.0,304.0409499999441,4.0,1.0,part_1,,,,,,,,,,,,,green,square
161.0,1.0,1.0,0.0,3.0,3.0,415.2799220000815,4.0,1.0,part_1,,,,,,,,,,,,,gray,cross
0.0,1.0,0.0,0.0,2.0,2.0,316.1137249999228,4.0,1.0,part_1,,,,,,,,,,,,,gray,cross
1321.0,8.0,4.0,1.0,3.0,3.0,359.8809000000074,4.0,1.0,part_1,,,,,,,,,,,,,blue,diamond
0.0,6.0,0.0,1.0,1.0,1.0,332.6273600000604,4.0,1.0,part_1,,,,,,,,,,,,,orange,circle
1294.0,4.0,4.0,0.0,1.0,1.0,276.695011999891,4.0,1.0,part_1,,,,,,,,,,,,,green,square
346.0,2.0,2.0,0.0,2.0,2.0,359.2896630002542,4.0,1.0,part_1,,,,,,,,,,,,,white,triangle
0.0,3.0,0.0,0.0,3.0,3.0,363.7856919999649,4.0,1.0,part_1,,,,,,,,,,,,,cyan,I
644.0,7.0,3.0,1.0,4.0,4.0,388.4526209999421,4.0,1.0,part_1,,,,,,,,,,,,,yellow,hexagon
0.0,3.0,0.0,0.0,1.0,1.0,324.8925339999005,4.0,1.0,part_1,,,,,,,,,,,,,cyan,I
629.0,7.0,3.0,1.0,3.0,3.0,359.1705440003352,4.0,1.0,part_1,,,,,,,,,,,,,yellow,hexagon
0.0,5.0,0.0,1.0,3.0,3.0,360.010446999695,4.0,1.0,part_1,,,,,,,,,,,,,magenta,flipped triangle
648.0,7.0,3.0,1.0,3.0,3.0,406.4804350000486,4.0,1.0,part_1,,,,,,,,,,,,,yellow,hexagon
316.0,2.0,2.0,0.0,4.0,4.0,369.3562600001314,4.0,1.0,part_1,,,,,,,,,,,,,white,triangle
1288.0,4.0,4.0,0.0,2.0,2.0,341.7137309997997,4.0,1.0,part_1,,,,,,,,,,,,,green,square
1302.0,4.0,4.0,0.0,1.0,1.0,285.4233470002327,4.0,1.0,part_1,,,,,,,,,,,,,green,square
304.0,6.0,2.0,1.0,3.0,3.0,387.2381169999244,4.0,1.0,part_1,,,,,,,,,,,,,orange,circle
636.0,3.0,3.0,0.0,1.0,1.0,386.9799929998407,4.0,1.0,part_1,,,,,,,,,,,,,cyan,I
152.0,1.0,1.0,0.0,3.0,3.0,351.5838739999708,4.0,1.0,part_1,,,,,,,,,,,,,gray,cross
159.0,5.0,1.0,1.0,1.0,1.0,333.9693740003895,4.0,1.0,part_1,,,,,,,,,,,,,magenta,flipped triangle
0.0,1.0,0.0,0.0,3.0,3.0,359.9355129999821,4.0,1.0,part_1,,,,,,,,,,,,,gray,cross
0.0,8.0,0.0,1.0,4.0,4.0,460.8299970000189,4.0,1.0,part_1,,,,,,,,,,,,,blue,diamond
0.0,1.0,0.0,0.0,4.0,4.0,397.1349150001515,4.0,1.0,part_1,,,,,,,,,,,,,gray,cross
0.0,7.0,0.0,1.0,3.0,3.0,369.1861890001746,4.0,1.0,part_1,,,,,,,,,,,,,yellow,hexagon
320.0,2.0,2.0,0.0,3.0,3.0,379.52579100010547,4.0,1.0,part_1,,,,,,,,,,,,,white,triangle
343.0,2.0,2.0,0.0,4.0,4.0,387.4640940002791,4.0,1.0,part_1,,,,,,,,,,,,,white,triangle
171.0,1.0,1.0,0.0,4.0,4.0,350.9420740001587,4.0,1.0,part_1,,,,,,,,,,,,,gray,cross
0.0,6.0,0.0,1.0,4.0,4.0,387.4529929998971,4.0,1.0,part_1,,,,,,,,,,,,,orange,circle
327.0,6.0,2.0,1.0,2.0,2.0,396.3588259998687,4.0,1.0,part_1,,,,,,,,,,,,,orange,circle
0.0,1.0,0.0,0.0,1.0,1.0,315.2895799998987,4.0,1.0,part_1,,,,,,,,,,,,,gray,cross
147.0,5.0,1.0,1.0,4.0,4.0,350.6721959997776,4.0,1.0,part_1,,,,,,,,,,,,,magenta,flipped triangle
332.0,2.0,2.0,0.0,3.0,3.0,404.921077000381,4.0,1.0,part_1,,,,,,,,,,,,,white,triangle
1318.0,4.0,4.0,0.0,3.0,3.0,415.5869969999912,4.0,1.0,part_1,,,,,,,,,,,,,green,square
0.0,8.0,0.0,1.0,3.0,3.0,415.3370849999191,4.0,1.0,part_1,,,,,,,,,,,,,blue,diamond
181.0,5.0,1.0,1.0,4.0,4.0,360.1213679999091,4.0,1.0,part_1,,,,,,,,,,,,,magenta,flipped triangle
1309.0,4.0,4.0,0.0,3.0,3.0,349.9901159998444,4.0,1.0,part_1,,,,,,,,,,,,,green,square
661.0,7.0,3.0,1.0,4.0,4.0,424.5886689996041,4.0,1.0,part_1,,,,,,,,,,,,,yellow,hexagon
326.0,6.0,2.0,1.0,2.0,2.0,453.4837470000639,4.0,1.0,part_1,,,,,,,,,,,,,orange,circle
1278.0,4.0,4.0,0.0,3.0,3.0,397.852696999962,4.0,1.0,part_1,,,,,,,,,,,,,green,square
0.0,4.0,0.0,0.0,2.0,2.0,489.815851000003,4.0,1.0,part_1,,,,,,,,,,,,,green,square
0.0,5.0,0.0,1.0,2.0,2.0,424.9305879998246,4.0,1.0,part_1,,,,,,,,,,,,,magenta,flipped triangle
182.0,5.0,1.0,1.0,2.0,2.0,396.07952000005747,4.0,1.0,part_1,,,,,,,,,,,,,magenta,flipped triangle
1276.0,8.0,4.0,1.0,1.0,1.0,332.6530929998625,4.0,1.0,part_1,,,,,,,,,,,,,blue,diamond
1310.0,4.0,4.0,0.0,2.0,2.0,452.6767839997774,4.0,1.0,part_1,,,,,,,,,,,,,green,square
0.0,5.0,0.0,1.0,3.0,3.0,406.8938290001824,4.0,1.0,part_1,,,,,,,,,,,,,magenta,flipped triangle
149.0,5.0,1.0,1.0,1.0,1.0,406.2213110000812,4.0,1.0,part_1,,,,,,,,,,,,,magenta,flipped triangle
335.0,6.0,2.0,1.0,3.0,3.0,433.7092229998234,4.0,1.0,part_1,,,,,,,,,,,,,orange,circle
642.0,3.0,3.0,0.0,2.0,2.0,488.3038010002565,4.0,1.0,part_1,,,,,,,,,,,,,cyan,I
143.0,1.0,1.0,0.0,1.0,1.0,359.8442450002039,4.0,1.0,part_1,,,,,,,,,,,,,gray,cross
662.0,3.0,3.0,0.0,1.0,1.0,360.4714099997181,4.0,1.0,part_1,,,,,,,,,,,,,cyan,I
1310.0,8.0,4.0,1.0,1.0,1.0,313.4029999996528,4.0,1.0,part_1,,,,,,,,,,,,,blue,diamond
666.0,7.0,3.0,1.0,2.0,2.0,370.9519949998139,4.0,1.0,part_1,,,,,,,,,,,,,yellow,hexagon
656.0,7.0,3.0,1.0,1.0,1.0,396.4935550002337,4.0,1.0,part_1,,,,,,,,,,,,,yellow,hexagon
659.0,3.0,3.0,0.0,1.0,1.0,342.8153099998781,4.0,1.0,part_1,,,,,,,,,,,,,cyan,I
138.0,1.0,1.0,0.0,4.0,4.0,317.1733509998375,4.0,2.0,part_1,,,,,,,,,,,,,gray,cross
0.0,6.0,0.0,1.0,3.0,3.0,432.0127139999385,4.0,1.0,part_1,,,,,,,,,,,,,orange,circle
648.0,3.0,3.0,0.0,2.0,2.0,407.6198230000045,4.0,1.0,part_1,,,,,,,,,,,,,cyan,I
638.0,7.0,3.0,1.0,1.0,1.0,296.435167999789,4.0,1.0,part_1,,,,,,,,,,,,,yellow,hexagon
171.0,5.0,1.0,1.0,3.0,3.0,333.7857229998917,4.0,1.0,part_1,,,,,,,,,,,,,magenta,flipped triangle
1317.0,4.0,4.0,0.0,4.0,4.0,351.2174600000435,4.0,1.0,part_1,,,,,,,,,,,,,green,square
344.0,6.0,2.0,1.0,3.0,3.0,295.2236950000042,4.0,1.0,part_1,,,,,,,,,,,,,orange,circle
334.0,2.0,2.0,0.0,4.0,4.0,378.56010600035,4.0,1.0,part_1,,,,,,,,,,,,,white,triangle
668.0,7.0,3.0,1.0,2.0,2.0,379.2823599997064,4.0,1.0,part_1,,,,,,,,,,,,,yellow,hexagon
322.0,2.0,2.0,0.0,2.0,2.0,396.4138520000233,4.0,1.0,part_1,,,,,,,,,,,,,white,triangle
0.0,2.0,0.0,0.0,3.0,3.0,397.4037190000672,4.0,1.0,part_1,,,,,,,,,,,,,white,triangle
180.0,1.0,1.0,0.0,3.0,3.0,341.4846020000368,4.0,1.0,part_1,,,,,,,,,,,,,gray,cross
659.0,7.0,3.0,1.0,4.0,4.0,415.2693409996573,4.0,1.0,part_1,,,,,,,,,,,,,yellow,hexagon
316.0,6.0,2.0,1.0,2.0,2.0,369.2621709997183,4.0,1.0,part_1,,,,,,,,,,,,,orange,circle
633.0,3.0,3.0,0.0,1.0,1.0,351.3775579999674,4.0,1.0,part_1,,,,,,,,,,,,,cyan,I
1304.0,4.0,4.0,0.0,3.0,3.0,415.3773349999028,4.0,1.0,part_1,,,,,,,,,,,,,green,square
1298.0,4.0,4.0,0.0,3.0,3.0,368.84030300007,4.0,1.0,part_1,,,,,,,,,,,,,green,square
332.0,6.0,2.0,1.0,3.0,3.0,369.9266049998186,4.0,1.0,part_1,,,,,,,,,,,,,orange,circle
1319.0,8.0,4.0,1.0,2.0,2.0,350.8519160000105,4.0,1.0,part_1,,,,,,,,,,,,,blue,diamond
171.0,5.0,1.0,1.0,2.0,2.0,425.7033000003503,4.0,1.0,part_1,,,,,,,,,,,,,magenta,flipped triangle
348.0,2.0,2.0,0.0,1.0,1.0,397.8379469999709,4.0,1.0,part_1,,,,,,,,,,,,,white,triangle
633.0,7.0,3.0,1.0,1.0,1.0,378.5520350002116,4.0,1.0,part_1,,,,,,,,,,,,,yellow,hexagon
0.0,5.0,0.0,1.0,1.0,1.0,414.8705130000962,4.0,1.0,part_1,,,,,,,,,,,,,magenta,flipped triangle
180.0,5.0,1.0,1.0,1.0,1.0,359.8831360000076,4.0,1.0,part_1,,,,,,,,,,,,,magenta,flipped triangle
0.0,7.0,0.0,1.0,4.0,4.0,479.3189310003072,4.0,1.0,part_1,,,,,,,,,,,,,yellow,hexagon
0.0,8.0,0.0,1.0,4.0,4.0,387.8670909998618,4.0,1.0,part_1,,,,,,,,,,,,,blue,diamond
0.0,6.0,0.0,1.0,3.0,3.0,443.3359939998809,4.0,1.0,part_1,,,,,,,,,,,,,orange,circle
0.0,4.0,0.0,0.0,1.0,1.0,361.5097199999582,4.0,1.0,part_1,,,,,,,,,,,,,green,square
0.0,4.0,0.0,0.0,1.0,1.0,341.9686180000099,4.0,1.0,part_1,,,,,,,,,,,,,green,square
1299.0,4.0,4.0,0.0,4.0,4.0,360.099382000044,4.0,1.0,part_1,,,,,,,,,,,,,green,square
1310.0,4.0,4.0,0.0,3.0,3.0,378.0985370003691,4.0,1.0,part_1,,,,,,,,,,,,,green,square
159.0,5.0,1.0,1.0,1.0,1.0,379.039025000111,4.0,1.0,part_1,,,,,,,,,,,,,magenta,flipped triangle
1322.0,4.0,4.0,0.0,2.0,2.0,322.6859460000923,4.0,2.0,part_1,,,,,,,,,,,,,green,square
1298.0,8.0,4.0,1.0,4.0,4.0,388.651612999638,4.0,1.0,part_1,,,,,,,,,,,,,blue,diamond
322.0,6.0,2.0,1.0,3.0,3.0,341.6863399997965,4.0,1.0,part_1,,,,,,,,,,,,,orange,circle
166.0,1.0,1.0,0.0,3.0,3.0,351.9471920003525,4.0,1.0,part_1,,,,,,,,,,,,,gray,cross
0.0,4.0,0.0,0.0,2.0,2.0,349.9389979997431,4.0,1.0,part_1,,,,,,,,,,,,,green,square
174.0,5.0,1.0,1.0,4.0,4.0,434.078750000026,4.0,1.0,part_1,,,,,,,,,,,,,magenta,flipped triangle
331.0,6.0,2.0,1.0,3.0,3.0,434.5710490001693,4.0,1.0,part_1,,,,,,,,,,,,,orange,circle
1305.0,4.0,4.0,0.0,3.0,3.0,407.9256400000304,4.0,1.0,part_1,,,,,,,,,,,,,green,square
1294.0,8.0,4.0,1.0,3.0,3.0,341.1672009997346,4.0,1.0,part_1,,,,,,,,,,,,,blue,diamond
169.0,5.0,1.0,1.0,2.0,2.0,323.3544700001403,4.0,1.0,part_1,,,,,,,,,,,,,magenta,flipped triangle
1322.0,8.0,4.0,1.0,4.0,4.0,433.1153510001968,4.0,1.0,part_1,,,,,,,,,,,,,blue,diamond
184.0,5.0,1.0,1.0,2.0,2.0,342.2151009999652,4.0,1.0,part_1,,,,,,,,,,,,,magenta,flipped triangle
0.0,3.0,3.0,0.0,6.0,6.0,351.0845099999642,1.0,0.0,part_2,go,250.0,250.0,1.0,,,,,,,,,cyan,I
0.0,2.0,2.0,0.0,5.0,5.0,333.0537530000583,1.0,0.0,part_2,go,250.0,250.0,1.0,,,,,,,,,white,triangle
0.0,6.0,2.0,1.0,5.0,0.0,0.0,1.0,0.0,part_2,stop,250.0,250.0,4.0,,,,,,,,,orange,circle
0.0,5.0,1.0,1.0,5.0,5.0,632.1650509999017,1.0,0.0,part_2,go,300.0,250.0,1.0,,,,,,,,,magenta,flipped triangle
0.0,7.0,3.0,1.0,5.0,5.0,360.8433600002172,1.0,0.0,part_2,stop,300.0,250.0,3.0,,,,,,,,,yellow,hexagon
0.0,2.0,2.0,0.0,5.0,5.0,595.4968529995313,1.0,0.0,part_2,go,250.0,250.0,1.0,,,,,,,,,white,triangle
0.0,6.0,2.0,1.0,6.0,6.0,297.2148820008442,1.0,0.0,part_2,go,250.0,250.0,1.0,,,,,,,,,orange,circle
0.0,2.0,2.0,0.0,5.0,5.0,483.5901790002026,1.0,0.0,part_2,go,250.0,250.0,1.0,,,,,,,,,white,triangle
0.0,3.0,3.0,0.0,6.0,6.0,448.4992130001046,1.0,0.0,part_2,go,250.0,250.0,1.0,,,,,,,,,cyan,I
0.0,4.0,4.0,0.0,5.0,5.0,435.6269889995019,1.0,0.0,part_2,go,250.0,250.0,1.0,,,,,,,,,green,square
0.0,5.0,1.0,1.0,6.0,6.0,415.5858570002237,1.0,0.0,part_2,stop,250.0,250.0,3.0,,,,,,,,,magenta,flipped triangle
0.0,1.0,1.0,0.0,6.0,6.0,661.3707739998063,1.0,0.0,part_2,go,250.0,200.0,1.0,,,,,,,,,gray,cross
0.0,7.0,3.0,1.0,6.0,0.0,0.0,1.0,0.0,part_2,stop,250.0,200.0,4.0,,,,,,,,,yellow,hexagon
0.0,1.0,1.0,0.0,6.0,6.0,603.5559980000471,1.0,0.0,part_2,go,250.0,250.0,1.0,,,,,,,,,gray,cross
0.0,2.0,2.0,0.0,6.0,6.0,827.6596420000715,1.0,0.0,part_2,go,250.0,250.0,1.0,,,,,,,,,white,triangle
0.0,8.0,4.0,1.0,5.0,5.0,585.3120149995448,1.0,0.0,part_2,go,250.0,250.0,1.0,,,,,,,,,blue,diamond
0.0,1.0,1.0,0.0,5.0,5.0,456.5812310002002,1.0,0.0,part_2,go,250.0,250.0,1.0,,,,,,,,,gray,cross
0.0,6.0,2.0,1.0,6.0,6.0,511.7875070000082,1.0,0.0,part_2,go,250.0,250.0,1.0,,,,,,,,,orange,circle
0.0,5.0,1.0,1.0,5.0,0.0,0.0,1.0,0.0,part_2,stop,250.0,250.0,4.0,,,,,,,,,magenta,flipped triangle
0.0,6.0,2.0,1.0,6.0,6.0,477.8658759996688,1.0,0.0,part_2,stop,300.0,250.0,3.0,,,,,,,,,orange,circle
0.0,3.0,3.0,0.0,5.0,5.0,857.0997599999828,1.0,0.0,part_2,go,300.0,200.0,1.0,,,,,,,,,cyan,I
0.0,4.0,4.0,0.0,6.0,6.0,1117.5003079997623,1.0,0.0,part_2,go,300.0,200.0,1.0,,,,,,,,,green,square
0.0,1.0,1.0,0.0,5.0,5.0,1265.907031000097,1.0,0.0,part_2,go,300.0,200.0,1.0,,,,,,,,,gray,cross
0.0,7.0,3.0,1.0,5.0,0.0,0.0,1.0,0.0,part_2,stop,300.0,200.0,4.0,,,,,,,,,yellow,hexagon
0.0,4.0,4.0,0.0,6.0,6.0,835.4214350001712,1.0,0.0,part_2,go,350.0,200.0,1.0,,,,,,,,,green,square
0.0,5.0,1.0,1.0,6.0,0.0,0.0,1.0,0.0,part_2,stop,350.0,200.0,4.0,,,,,,,,,magenta,flipped triangle
0.0,4.0,4.0,0.0,6.0,6.0,790.2740360004827,1.0,0.0,part_2,go,350.0,250.0,1.0,,,,,,,,,green,square
0.0,8.0,4.0,1.0,5.0,5.0,459.8163279997607,1.0,0.0,part_2,stop,350.0,250.0,3.0,,,,,,,,,blue,diamond
0.0,7.0,3.0,1.0,6.0,0.0,0.0,1.0,0.0,part_2,stop,300.0,250.0,4.0,,,,,,,,,yellow,hexagon
0.0,1.0,1.0,0.0,6.0,6.0,706.4868889992795,1.0,0.0,part_2,go,300.0,300.0,1.0,,,,,,,,,gray,cross
0.0,1.0,1.0,0.0,5.0,5.0,808.0921470000249,1.0,0.0,part_2,go,300.0,300.0,1.0,,,,,,,,,gray,cross
0.0,8.0,4.0,1.0,5.0,0.0,0.0,1.0,0.0,part_2,stop,300.0,300.0,4.0,,,,,,,,,blue,diamond
0.0,2.0,2.0,0.0,5.0,5.0,769.1285020000578,1.0,0.0,part_2,go,350.0,300.0,1.0,,,,,,,,,white,triangle
0.0,2.0,2.0,0.0,6.0,6.0,966.6331549997268,1.0,0.0,part_2,go,350.0,300.0,1.0,,,,,,,,,white,triangle
0.0,8.0,4.0,1.0,6.0,0.0,0.0,1.0,0.0,part_2,stop,350.0,300.0,4.0,,,,,,,,,blue,diamond
0.0,5.0,1.0,1.0,5.0,5.0,678.178358999503,1.0,0.0,part_2,go,350.0,350.0,1.0,,,,,,,,,magenta,flipped triangle
0.0,1.0,1.0,0.0,5.0,5.0,837.3616220005715,2.0,0.0,part_2,go,350.0,350.0,1.0,,,,,,,,,gray,cross
0.0,3.0,3.0,0.0,5.0,5.0,400.0824649992864,2.0,0.0,part_2,go,350.0,350.0,1.0,,,,,,,,,cyan,I
0.0,1.0,1.0,0.0,6.0,6.0,307.3449359999358,2.0,0.0,part_2,go,350.0,350.0,1.0,,,,,,,,,gray,cross
0.0,8.0,4.0,1.0,6.0,6.0,326.5189840003586,2.0,0.0,part_2,stop,350.0,350.0,3.0,,,,,,,,,blue,diamond
0.0,6.0,2.0,1.0,5.0,5.0,437.9435479995663,2.0,0.0,part_2,stop,350.0,300.0,3.0,,,,,,,,,orange,circle
0.0,4.0,4.0,0.0,5.0,5.0,485.5568229995697,2.0,0.0,part_2,go,300.0,300.0,1.0,,,,,,,,,green,square
0.0,5.0,1.0,1.0,5.0,5.0,467.6879329999792,2.0,0.0,part_2,stop,300.0,300.0,3.0,,,,,,,,,magenta,flipped triangle
0.0,7.0,3.0,1.0,6.0,6.0,670.3089870006806,2.0,0.0,part_2,go,250.0,300.0,1.0,,,,,,,,,yellow,hexagon
0.0,2.0,2.0,0.0,5.0,5.0,659.7051789995021,2.0,0.0,part_2,go,250.0,300.0,1.0,,,,,,,,,white,triangle
0.0,7.0,3.0,1.0,5.0,0.0,0.0,2.0,0.0,part_2,stop,250.0,300.0,4.0,,,,,,,,,yellow,hexagon
0.0,3.0,3.0,0.0,5.0,5.0,679.2256319995431,2.0,0.0,part_2,go,300.0,300.0,1.0,,,,,,,,,cyan,I
0.0,1.0,1.0,0.0,5.0,5.0,653.125732999797,2.0,0.0,part_2,go,300.0,300.0,1.0,,,,,,,,,gray,cross
0.0,5.0,1.0,1.0,6.0,6.0,423.0881310004406,2.0,0.0,part_2,stop,300.0,300.0,3.0,,,,,,,,,magenta,flipped triangle
0.0,3.0,3.0,0.0,6.0,6.0,642.6887540001189,2.0,0.0,part_2,go,300.0,250.0,1.0,,,,,,,,,cyan,I
0.0,7.0,3.0,1.0,6.0,0.0,0.0,2.0,0.0,part_2,stop,300.0,250.0,4.0,,,,,,,,,yellow,hexagon
0.0,6.0,2.0,1.0,6.0,0.0,0.0,2.0,0.0,part_2,stop,300.0,300.0,4.0,,,,,,,,,orange,circle
0.0,6.0,2.0,1.0,5.0,5.0,384.7807769998326,2.0,0.0,part_2,stop,300.0,350.0,3.0,,,,,,,,,orange,circle
0.0,4.0,4.0,0.0,5.0,5.0,622.704700000213,2.0,0.0,part_2,go,250.0,350.0,1.0,,,,,,,,,green,square
0.0,3.0,3.0,0.0,5.0,5.0,986.0131410005124,2.0,0.0,part_2,go,250.0,350.0,1.0,,,,,,,,,cyan,I
0.0,5.0,1.0,1.0,6.0,6.0,977.7669120003338,2.0,0.0,part_2,go,250.0,350.0,1.0,,,,,,,,,magenta,flipped triangle
0.0,2.0,2.0,0.0,5.0,5.0,455.7196910000129,2.0,0.0,part_2,go,250.0,350.0,1.0,,,,,,,,,white,triangle
0.0,5.0,1.0,1.0,5.0,0.0,0.0,2.0,0.0,part_2,stop,250.0,350.0,4.0,,,,,,,,,magenta,flipped triangle
0.0,2.0,2.0,0.0,6.0,6.0,761.2033369996425,2.0,0.0,part_2,go,300.0,350.0,1.0,,,,,,,,,white,triangle
0.0,6.0,2.0,1.0,5.0,0.0,0.0,2.0,0.0,part_2,stop,300.0,350.0,4.0,,,,,,,,,orange,circle
0.0,6.0,2.0,1.0,5.0,0.0,0.0,2.0,0.0,part_2,stop,350.0,350.0,4.0,,,,,,,,,orange,circle
0.0,4.0,4.0,0.0,6.0,6.0,463.5962570000629,2.0,0.0,part_2,go,400.0,350.0,1.0,,,,,,,,,green,square
0.0,2.0,2.0,0.0,6.0,6.0,520.8749210005408,2.0,0.0,part_2,go,400.0,350.0,1.0,,,,,,,,,white,triangle
0.0,4.0,4.0,0.0,6.0,6.0,557.8031019995251,2.0,0.0,part_2,go,400.0,350.0,1.0,,,,,,,,,green,square
0.0,2.0,2.0,0.0,6.0,6.0,465.7077329993626,2.0,0.0,part_2,go,400.0,350.0,1.0,,,,,,,,,white,triangle
0.0,1.0,1.0,0.0,6.0,6.0,484.89485600021,2.0,0.0,part_2,go,400.0,350.0,1.0,,,,,,,,,gray,cross
0.0,4.0,4.0,0.0,5.0,5.0,696.3788949997252,2.0,0.0,part_2,go,400.0,350.0,1.0,,,,,,,,,green,square
0.0,3.0,3.0,0.0,6.0,6.0,334.32675499989267,2.0,0.0,part_2,go,400.0,350.0,1.0,,,,,,,,,cyan,I
0.0,8.0,4.0,1.0,6.0,6.0,500.67027600016445,2.0,0.0,part_2,stop,400.0,350.0,3.0,,,,,,,,,blue,diamond
0.0,7.0,3.0,1.0,6.0,0.0,0.0,2.0,0.0,part_2,stop,400.0,300.0,4.0,,,,,,,,,yellow,hexagon
0.0,5.0,1.0,1.0,5.0,0.0,0.0,2.0,0.0,part_2,stop,400.0,350.0,4.0,,,,,,,,,magenta,flipped triangle
0.0,2.0,2.0,0.0,5.0,5.0,714.5205269998769,2.0,0.0,part_2,go,450.0,350.0,1.0,,,,,,,,,white,triangle
0.0,8.0,4.0,1.0,5.0,5.0,789.8727800002234,3.0,0.0,part_2,go,450.0,350.0,1.0,,,,,,,,,blue,diamond
0.0,8.0,4.0,1.0,5.0,5.0,372.9269490004299,3.0,0.0,part_2,go,450.0,350.0,1.0,,,,,,,,,blue,diamond
0.0,2.0,2.0,0.0,5.0,5.0,335.6554649999452,3.0,0.0,part_2,go,450.0,350.0,1.0,,,,,,,,,white,triangle
0.0,5.0,1.0,1.0,6.0,6.0,278.7323490001654,3.0,0.0,part_2,stop,450.0,350.0,3.0,,,,,,,,,magenta,flipped triangle
0.0,4.0,4.0,0.0,6.0,6.0,559.2340390003301,3.0,0.0,part_2,go,450.0,300.0,1.0,,,,,,,,,green,square
0.0,8.0,4.0,1.0,6.0,6.0,390.6372310002552,3.0,0.0,part_2,stop,450.0,300.0,3.0,,,,,,,,,blue,diamond
0.0,6.0,2.0,1.0,5.0,5.0,575.9398750005857,3.0,0.0,part_2,stop,450.0,250.0,3.0,,,,,,,,,orange,circle
0.0,3.0,3.0,0.0,5.0,5.0,709.3218110003363,3.0,0.0,part_2,go,400.0,250.0,1.0,,,,,,,,,cyan,I
0.0,4.0,4.0,0.0,6.0,6.0,698.3456329999171,3.0,0.0,part_2,go,400.0,250.0,1.0,,,,,,,,,green,square
0.0,6.0,2.0,1.0,5.0,5.0,447.8052569993451,3.0,0.0,part_2,stop,400.0,250.0,3.0,,,,,,,,,orange,circle
0.0,4.0,4.0,0.0,6.0,6.0,624.4034479996117,3.0,0.0,part_2,go,350.0,250.0,1.0,,,,,,,,,green,square
0.0,4.0,4.0,0.0,5.0,5.0,326.0172669997701,3.0,0.0,part_2,go,350.0,250.0,1.0,,,,,,,,,green,square
0.0,6.0,2.0,1.0,6.0,0.0,0.0,3.0,0.0,part_2,stop,350.0,250.0,4.0,,,,,,,,,orange,circle
0.0,7.0,3.0,1.0,5.0,0.0,0.0,3.0,0.0,part_2,stop,350.0,300.0,4.0,,,,,,,,,yellow,hexagon
0.0,2.0,2.0,0.0,5.0,5.0,614.3998710003871,3.0,0.0,part_2,go,400.0,300.0,1.0,,,,,,,,,white,triangle
0.0,5.0,1.0,1.0,5.0,0.0,0.0,3.0,0.0,part_2,stop,400.0,300.0,4.0,,,,,,,,,magenta,flipped triangle
0.0,6.0,2.0,1.0,6.0,6.0,570.2051779999238,3.0,0.0,part_2,go,450.0,300.0,1.0,,,,,,,,,orange,circle
0.0,6.0,2.0,1.0,6.0,6.0,529.4826859999375,3.0,0.0,part_2,go,450.0,300.0,1.0,,,,,,,,,orange,circle
0.0,8.0,4.0,1.0,6.0,0.0,0.0,3.0,0.0,part_2,stop,450.0,300.0,4.0,,,,,,,,,blue,diamond
0.0,8.0,4.0,1.0,6.0,0.0,0.0,3.0,0.0,part_2,stop,450.0,350.0,4.0,,,,,,,,,blue,diamond
0.0,1.0,1.0,0.0,5.0,5.0,763.0842280004799,3.0,0.0,part_2,go,450.0,400.0,1.0,,,,,,,,,gray,cross
0.0,1.0,1.0,0.0,6.0,6.0,788.7436029996024,3.0,0.0,part_2,go,450.0,400.0,1.0,,,,,,,,,gray,cross
0.0,5.0,1.0,1.0,6.0,6.0,466.5095970003676,3.0,0.0,part_2,go,450.0,400.0,1.0,,,,,,,,,magenta,flipped triangle
0.0,3.0,3.0,0.0,5.0,5.0,398.7299569998868,3.0,0.0,part_2,go,450.0,400.0,1.0,,,,,,,,,cyan,I
0.0,1.0,1.0,0.0,5.0,5.0,531.9031520002682,3.0,0.0,part_2,go,450.0,400.0,1.0,,,,,,,,,gray,cross
0.0,2.0,2.0,0.0,6.0,6.0,363.5755069999504,3.0,0.0,part_2,go,450.0,400.0,1.0,,,,,,,,,white,triangle
0.0,6.0,2.0,1.0,6.0,6.0,370.7289879994278,3.0,0.0,part_2,stop,450.0,400.0,3.0,,,,,,,,,orange,circle
0.0,4.0,4.0,0.0,5.0,5.0,732.8109789996233,3.0,0.0,part_2,go,450.0,350.0,1.0,,,,,,,,,green,square
0.0,8.0,4.0,1.0,6.0,0.0,0.0,3.0,0.0,part_2,stop,450.0,350.0,4.0,,,,,,,,,blue,diamond
0.0,7.0,3.0,1.0,6.0,0.0,0.0,3.0,0.0,part_2,stop,450.0,400.0,4.0,,,,,,,,,yellow,hexagon
0.0,2.0,2.0,0.0,5.0,5.0,491.767826000796,3.0,0.0,part_2,go,450.0,450.0,1.0,,,,,,,,,white,triangle
0.0,2.0,2.0,0.0,5.0,5.0,447.6103039996815,3.0,0.0,part_2,go,450.0,450.0,1.0,,,,,,,,,white,triangle
0.0,2.0,2.0,0.0,6.0,6.0,668.9299809995646,3.0,0.0,part_2,go,450.0,450.0,1.0,,,,,,,,,white,triangle
0.0,7.0,3.0,1.0,6.0,6.0,554.4198600000527,3.0,0.0,part_2,stop,450.0,450.0,3.0,,,,,,,,,yellow,hexagon
0.0,7.0,3.0,1.0,5.0,0.0,0.0,3.0,0.0,part_2,stop,450.0,400.0,4.0,,,,,,,,,yellow,hexagon
0.0,2.0,2.0,0.0,5.0,5.0,808.6340010004278,3.0,0.0,part_2,go,500.0,400.0,1.0,,,,,,,,,white,triangle
0.0,6.0,2.0,1.0,6.0,0.0,0.0,4.0,0.0,part_2,stop,500.0,400.0,4.0,,,,,,,,,orange,circle
0.0,1.0,1.0,0.0,6.0,6.0,565.7202129996222,4.0,0.0,part_2,go,500.0,450.0,1.0,,,,,,,,,gray,cross
0.0,5.0,1.0,1.0,6.0,0.0,0.0,4.0,0.0,part_2,stop,500.0,450.0,4.0,,,,,,,,,magenta,flipped triangle
0.0,5.0,1.0,1.0,6.0,6.0,745.5142279995925,4.0,0.0,part_2,go,500.0,500.0,1.0,,,,,,,,,magenta,flipped triangle
0.0,8.0,4.0,1.0,5.0,5.0,549.3530789999568,4.0,0.0,part_2,stop,500.0,500.0,3.0,,,,,,,,,blue,diamond
0.0,7.0,3.0,1.0,6.0,0.0,0.0,4.0,0.0,part_2,stop,450.0,500.0,4.0,,,,,,,,,yellow,hexagon
0.0,1.0,1.0,0.0,6.0,6.0,624.2378950000784,4.0,0.0,part_2,go,450.0,550.0,1.0,,,,,,,,,gray,cross
0.0,8.0,4.0,1.0,6.0,6.0,374.3990520006264,4.0,0.0,part_2,stop,450.0,550.0,3.0,,,,,,,,,blue,diamond
0.0,5.0,1.0,1.0,6.0,6.0,599.8914289993991,4.0,0.0,part_2,stop,450.0,500.0,3.0,,,,,,,,,magenta,flipped triangle
0.0,7.0,3.0,1.0,5.0,0.0,0.0,4.0,0.0,part_2,stop,450.0,450.0,4.0,,,,,,,,,yellow,hexagon
0.0,3.0,3.0,0.0,6.0,6.0,446.4887159992941,4.0,0.0,part_2,go,500.0,450.0,1.0,,,,,,,,,cyan,I
0.0,1.0,1.0,0.0,6.0,6.0,768.7812780004606,4.0,0.0,part_2,go,500.0,450.0,1.0,,,,,,,,,gray,cross
0.0,3.0,3.0,0.0,6.0,6.0,426.583087999461,4.0,0.0,part_2,go,500.0,450.0,1.0,,,,,,,,,cyan,I
0.0,4.0,4.0,0.0,6.0,6.0,455.8117760007008,4.0,0.0,part_2,go,500.0,450.0,1.0,,,,,,,,,green,square
0.0,2.0,2.0,0.0,6.0,6.0,372.6384299998244,4.0,0.0,part_2,go,500.0,450.0,1.0,,,,,,,,,white,triangle
0.0,8.0,4.0,1.0,5.0,5.0,390.2012410007955,4.0,0.0,part_2,stop,500.0,450.0,3.0,,,,,,,,,blue,diamond
0.0,5.0,1.0,1.0,5.0,0.0,0.0,4.0,0.0,part_2,stop,450.0,450.0,4.0,,,,,,,,,magenta,flipped triangle
0.0,7.0,3.0,1.0,6.0,0.0,0.0,4.0,0.0,part_2,stop,500.0,450.0,4.0,,,,,,,,,yellow,hexagon
0.0,3.0,3.0,0.0,5.0,5.0,808.5969579997254,4.0,0.0,part_2,go,500.0,500.0,1.0,,,,,,,,,cyan,I
0.0,3.0,3.0,0.0,6.0,6.0,399.3941179996909,4.0,0.0,part_2,go,500.0,500.0,1.0,,,,,,,,,cyan,I
0.0,6.0,2.0,1.0,5.0,5.0,627.2661180000796,4.0,0.0,part_2,stop,500.0,500.0,3.0,,,,,,,,,orange,circle
0.0,2.0,2.0,0.0,5.0,5.0,696.6739889994642,4.0,0.0,part_2,go,450.0,500.0,1.0,,,,,,,,,white,triangle
0.0,6.0,2.0,1.0,6.0,6.0,372.2229570003037,4.0,0.0,part_2,stop,450.0,500.0,3.0,,,,,,,,,orange,circle
0.0,6.0,2.0,1.0,6.0,0.0,0.0,4.0,0.0,part_2,stop,450.0,450.0,4.0,,,,,,,,,orange,circle
0.0,2.0,2.0,0.0,5.0,5.0,661.1166379998394,4.0,0.0,part_2,go,450.0,500.0,1.0,,,,,,,,,white,triangle
0.0,7.0,3.0,1.0,5.0,5.0,608.6464280006112,4.0,0.0,part_2,stop,450.0,500.0,3.0,,,,,,,,,yellow,hexagon
0.0,4.0,4.0,0.0,6.0,6.0,603.6528009999529,4.0,0.0,part_2,go,400.0,500.0,1.0,,,,,,,,,green,square
0.0,6.0,2.0,1.0,5.0,0.0,0.0,4.0,0.0,part_2,stop,400.0,500.0,4.0,,,,,,,,,orange,circle
0.0,7.0,3.0,1.0,5.0,0.0,0.0,4.0,0.0,part_2,stop,450.0,500.0,4.0,,,,,,,,,yellow,hexagon
0.0,2.0,2.0,0.0,6.0,6.0,595.5716240005131,4.0,0.0,part_2,go,500.0,500.0,1.0,,,,,,,,,white,triangle
0.0,2.0,2.0,0.0,6.0,6.0,723.3703739993871,4.0,0.0,part_2,go,500.0,500.0,1.0,,,,,,,,,white,triangle
0.0,7.0,3.0,1.0,6.0,0.0,0.0,4.0,0.0,part_2,stop,500.0,500.0,4.0,,,,,,,,,yellow,hexagon
0.0,5.0,1.0,1.0,6.0,6.0,672.3755169996366,4.0,0.0,part_2,stop,500.0,550.0,3.0,,,,,,,,,magenta,flipped triangle
0.0,3.0,3.0,0.0,5.0,5.0,723.252341999796,4.0,0.0,part_2,go,500.0,500.0,1.0,,,,,,,,,cyan,I
0.0,6.0,2.0,1.0,6.0,0.0,0.0,4.0,0.0,part_2,stop,500.0,500.0,4.0,,,,,,,,,orange,circle
0.0,1.0,1.0,0.0,5.0,5.0,854.0203680004197,4.0,0.0,part_2,go,500.0,550.0,1.0,,,,,,,,,gray,cross
0.0,1.0,1.0,0.0,6.0,6.0,789.3783920007991,5.0,0.0,part_2,go,500.0,550.0,1.0,,,,,,,,,gray,cross
0.0,3.0,3.0,0.0,6.0,6.0,371.1259420006172,5.0,0.0,part_2,go,500.0,550.0,1.0,,,,,,,,,cyan,I
0.0,6.0,2.0,1.0,6.0,6.0,588.1165179998789,5.0,0.0,part_2,stop,500.0,550.0,3.0,,,,,,,,,orange,circle
0.0,6.0,2.0,1.0,5.0,5.0,727.1503310003027,5.0,0.0,part_2,go,500.0,500.0,1.0,,,,,,,,,orange,circle
0.0,3.0,3.0,0.0,6.0,6.0,696.0565019999194,5.0,0.0,part_2,go,500.0,500.0,1.0,,,,,,,,,cyan,I
0.0,4.0,4.0,0.0,5.0,5.0,362.5380539997422,5.0,0.0,part_2,go,500.0,500.0,1.0,,,,,,,,,green,square
0.0,4.0,4.0,0.0,5.0,5.0,420.1787720003267,5.0,0.0,part_2,go,500.0,500.0,1.0,,,,,,,,,green,square
0.0,5.0,1.0,1.0,5.0,5.0,346.0593250001693,5.0,0.0,part_2,go,500.0,500.0,1.0,,,,,,,,,magenta,flipped triangle
0.0,8.0,4.0,1.0,5.0,5.0,344.942028999867,5.0,0.0,part_2,go,500.0,500.0,1.0,,,,,,,,,blue,diamond
0.0,2.0,2.0,0.0,5.0,5.0,327.1798890000355,5.0,0.0,part_2,go,500.0,500.0,1.0,,,,,,,,,white,triangle
0.0,1.0,1.0,0.0,5.0,5.0,326.5590689998134,5.0,0.0,part_2,go,500.0,500.0,1.0,,,,,,,,,gray,cross
0.0,3.0,3.0,0.0,5.0,5.0,336.3893030000326,5.0,0.0,part_2,go,500.0,500.0,1.0,,,,,,,,,cyan,I
0.0,6.0,2.0,1.0,5.0,5.0,542.6823010002408,5.0,0.0,part_2,stop,500.0,500.0,3.0,,,,,,,,,orange,circle
0.0,4.0,4.0,0.0,6.0,6.0,816.295065000304,5.0,0.0,part_2,go,450.0,500.0,1.0,,,,,,,,,green,square
0.0,5.0,1.0,1.0,5.0,5.0,344.8145519996615,5.0,0.0,part_2,stop,450.0,500.0,3.0,,,,,,,,,magenta,flipped triangle
0.0,7.0,3.0,1.0,5.0,5.0,854.0418520005915,5.0,0.0,part_2,go,400.0,500.0,1.0,,,,,,,,,yellow,hexagon
0.0,8.0,4.0,1.0,5.0,5.0,537.8951439997763,5.0,0.0,part_2,stop,400.0,500.0,3.0,,,,,,,,,blue,diamond
0.0,2.0,2.0,0.0,6.0,6.0,1146.4917989997048,5.0,0.0,part_2,go,350.0,500.0,1.0,,,,,,,,,white,triangle
0.0,1.0,1.0,0.0,5.0,5.0,1057.860878000611,5.0,0.0,part_2,go,350.0,500.0,1.0,,,,,,,,,gray,cross
0.0,5.0,1.0,1.0,5.0,5.0,509.8739659997591,5.0,0.0,part_2,stop,350.0,500.0,3.0,,,,,,,,,magenta,flipped triangle
0.0,3.0,3.0,0.0,5.0,5.0,753.3319390004181,5.0,0.0,part_2,go,300.0,500.0,1.0,,,,,,,,,cyan,I
0.0,3.0,3.0,0.0,5.0,5.0,438.4861010003078,5.0,0.0,part_2,go,300.0,500.0,1.0,,,,,,,,,cyan,I
0.0,4.0,4.0,0.0,5.0,5.0,576.6721529998904,5.0,0.0,part_2,go,300.0,500.0,1.0,,,,,,,,,green,square
0.0,4.0,4.0,0.0,5.0,5.0,373.0093480007781,5.0,0.0,part_2,go,300.0,500.0,1.0,,,,,,,,,green,square
0.0,5.0,1.0,1.0,6.0,6.0,373.1337520002853,5.0,0.0,part_2,stop,300.0,500.0,3.0,,,,,,,,,magenta,flipped triangle
0.0,5.0,1.0,1.0,5.0,5.0,706.5580729995418,5.0,0.0,part_2,go,300.0,450.0,1.0,,,,,,,,,magenta,flipped triangle
0.0,8.0,4.0,1.0,5.0,0.0,0.0,5.0,0.0,part_2,stop,300.0,450.0,4.0,,,,,,,,,blue,diamond
0.0,2.0,2.0,0.0,6.0,6.0,716.5786160003336,5.0,0.0,part_2,go,350.0,450.0,1.0,,,,,,,,,white,triangle
0.0,5.0,1.0,1.0,6.0,6.0,409.688439999627,5.0,0.0,part_2,stop,350.0,450.0,3.0,,,,,,,,,magenta,flipped triangle
0.0,5.0,1.0,1.0,6.0,6.0,611.2605880007322,5.0,0.0,part_2,stop,350.0,400.0,3.0,,,,,,,,,magenta,flipped triangle
0.0,8.0,4.0,1.0,6.0,6.0,724.1631960005179,5.0,0.0,part_2,go,350.0,350.0,1.0,,,,,,,,,blue,diamond
0.0,7.0,3.0,1.0,5.0,5.0,409.7760169997855,5.0,0.0,part_2,stop,350.0,350.0,3.0,,,,,,,,,yellow,hexagon
0.0,2.0,2.0,0.0,6.0,6.0,994.3711240002812,5.0,0.0,part_2,go,300.0,350.0,1.0,,,,,,,,,white,triangle
0.0,4.0,4.0,0.0,5.0,5.0,577.4752280003668,5.0,0.0,part_2,go,300.0,350.0,1.0,,,,,,,,,green,square
0.0,4.0,4.0,0.0,6.0,6.0,372.8417560005255,5.0,0.0,part_2,go,300.0,350.0,1.0,,,,,,,,,green,square
0.0,4.0,4.0,0.0,5.0,5.0,688.5343090007154,5.0,0.0,part_2,go,300.0,350.0,1.0,,,,,,,,,green,square
0.0,3.0,3.0,0.0,5.0,5.0,605.8931370007485,6.0,0.0,part_2,go,300.0,350.0,1.0,,,,,,,,,cyan,I
0.0,1.0,1.0,0.0,6.0,6.0,364.0376129997094,6.0,0.0,part_2,go,300.0,350.0,1.0,,,,,,,,,gray,cross
0.0,8.0,4.0,1.0,5.0,5.0,346.1340300000302,6.0,0.0,part_2,go,300.0,350.0,1.0,,,,,,,,,blue,diamond
0.0,2.0,2.0,0.0,5.0,5.0,401.159330000155,6.0,0.0,part_2,go,300.0,350.0,1.0,,,,,,,,,white,triangle
0.0,1.0,1.0,0.0,6.0,6.0,288.5288240004229,6.0,0.0,part_2,go,300.0,350.0,1.0,,,,,,,,,gray,cross
0.0,5.0,1.0,1.0,5.0,5.0,349.4000970003981,6.0,0.0,part_2,stop,300.0,350.0,3.0,,,,,,,,,magenta,flipped triangle
0.0,8.0,4.0,1.0,6.0,6.0,446.2647189993731,6.0,0.0,part_2,go,250.0,350.0,1.0,,,,,,,,,blue,diamond
0.0,3.0,3.0,0.0,6.0,6.0,475.5725400000301,6.0,0.0,part_2,go,250.0,350.0,1.0,,,,,,,,,cyan,I
0.0,8.0,4.0,1.0,6.0,6.0,385.6529819995558,6.0,0.0,part_2,stop,250.0,350.0,3.0,,,,,,,,,blue,diamond
0.0,6.0,2.0,1.0,5.0,0.0,0.0,6.0,0.0,part_2,stop,250.0,300.0,4.0,,,,,,,,,orange,circle
0.0,6.0,2.0,1.0,6.0,6.0,681.0508799999297,6.0,0.0,part_2,go,300.0,300.0,1.0,,,,,,,,,orange,circle
0.0,1.0,1.0,0.0,5.0,5.0,846.1078380005347,6.0,0.0,part_2,go,300.0,300.0,1.0,,,,,,,,,gray,cross
0.0,4.0,4.0,0.0,5.0,5.0,688.9190949996191,6.0,0.0,part_2,go,300.0,300.0,1.0,,,,,,,,,green,square
0.0,7.0,3.0,1.0,5.0,5.0,335.8294560002832,6.0,0.0,part_2,go,300.0,300.0,1.0,,,,,,,,,yellow,hexagon
0.0,2.0,2.0,0.0,6.0,6.0,325.6683059998977,6.0,0.0,part_2,go,300.0,300.0,1.0,,,,,,,,,white,triangle
0.0,6.0,2.0,1.0,5.0,5.0,389.8966409997229,6.0,0.0,part_2,stop,300.0,300.0,3.0,,,,,,,,,orange,circle
0.0,2.0,2.0,0.0,6.0,6.0,690.184792000764,6.0,0.0,part_2,go,250.0,300.0,1.0,,,,,,,,,white,triangle
0.0,7.0,3.0,1.0,6.0,0.0,0.0,6.0,0.0,part_2,stop,250.0,300.0,4.0,,,,,,,,,yellow,hexagon
0.0,1.0,1.0,0.0,5.0,5.0,447.753530999762,6.0,0.0,part_2,go,250.0,350.0,1.0,,,,,,,,,gray,cross
0.0,7.0,3.0,1.0,6.0,6.0,433.0177749998256,6.0,0.0,part_2,stop,250.0,350.0,3.0,,,,,,,,,yellow,hexagon
0.0,7.0,3.0,1.0,5.0,0.0,0.0,6.0,0.0,part_2,stop,250.0,300.0,4.0,,,,,,,,,yellow,hexagon
0.0,5.0,1.0,1.0,5.0,0.0,0.0,6.0,0.0,part_2,stop,300.0,300.0,4.0,,,,,,,,,magenta,flipped triangle
0.0,4.0,4.0,0.0,6.0,6.0,364.064252999924,6.0,0.0,part_2,go,350.0,300.0,1.0,,,,,,,,,green,square
0.0,5.0,1.0,1.0,5.0,5.0,690.8816109998952,6.0,0.0,part_2,go,350.0,300.0,1.0,,,,,,,,,magenta,flipped triangle
0.0,2.0,2.0,0.0,6.0,6.0,393.9603240005453,6.0,0.0,part_2,go,350.0,300.0,1.0,,,,,,,,,white,triangle
0.0,8.0,4.0,1.0,5.0,5.0,388.2466200002454,6.0,0.0,part_2,stop,350.0,300.0,3.0,,,,,,,,,blue,diamond
0.0,3.0,3.0,0.0,5.0,5.0,736.8651390006562,6.0,0.0,part_2,go,300.0,300.0,1.0,,,,,,,,,cyan,I
0.0,1.0,1.0,0.0,6.0,6.0,532.4476539999523,6.0,0.0,part_2,go,300.0,300.0,1.0,,,,,,,,,gray,cross
0.0,1.0,1.0,0.0,5.0,5.0,393.5704549994625,6.0,0.0,part_2,go,300.0,300.0,1.0,,,,,,,,,gray,cross
0.0,5.0,1.0,1.0,5.0,5.0,364.4897949998267,6.0,0.0,part_2,stop,300.0,300.0,3.0,,,,,,,,,magenta,flipped triangle
0.0,7.0,3.0,1.0,6.0,6.0,531.7153880005208,6.0,0.0,part_2,go,250.0,300.0,1.0,,,,,,,,,yellow,hexagon
0.0,1.0,1.0,0.0,6.0,6.0,666.2662810003894,6.0,0.0,part_2,go,250.0,300.0,1.0,,,,,,,,,gray,cross
0.0,5.0,1.0,1.0,5.0,5.0,904.9705349998476,6.0,0.0,part_2,stop,250.0,300.0,3.0,,,,,,,,,magenta,flipped triangle
0.0,6.0,2.0,1.0,5.0,5.0,720.0651759994798,6.0,0.0,part_2,go,200.0,300.0,1.0,,,,,,,,,orange,circle
0.0,2.0,2.0,0.0,5.0,5.0,636.126771999443,6.0,0.0,part_2,go,200.0,300.0,1.0,,,,,,,,,white,triangle
0.0,4.0,4.0,0.0,5.0,5.0,813.0452590003188,6.0,0.0,part_2,go,200.0,300.0,1.0,,,,,,,,,green,square
0.0,1.0,1.0,0.0,5.0,5.0,706.5092419998109,7.0,0.0,part_2,go,200.0,300.0,1.0,,,,,,,,,gray,cross
0.0,3.0,3.0,0.0,5.0,5.0,483.8403479998305,7.0,0.0,part_2,go,200.0,300.0,1.0,,,,,,,,,cyan,I
0.0,6.0,2.0,1.0,6.0,6.0,389.3941420001283,7.0,0.0,part_2,stop,200.0,300.0,3.0,,,,,,,,,orange,circle
0.0,8.0,4.0,1.0,6.0,6.0,661.0733489997074,7.0,0.0,part_2,go,200.0,250.0,1.0,,,,,,,,,blue,diamond
0.0,6.0,2.0,1.0,6.0,6.0,428.430531000231,7.0,0.0,part_2,go,200.0,250.0,1.0,,,,,,,,,orange,circle
0.0,5.0,1.0,1.0,5.0,0.0,0.0,7.0,0.0,part_2,stop,200.0,250.0,4.0,,,,,,,,,magenta,flipped triangle
0.0,7.0,3.0,1.0,5.0,5.0,641.4971680005692,7.0,0.0,part_2,go,250.0,250.0,1.0,,,,,,,,,yellow,hexagon
0.0,2.0,2.0,0.0,6.0,6.0,576.848381999298,7.0,0.0,part_2,go,250.0,250.0,1.0,,,,,,,,,white,triangle
0.0,1.0,1.0,0.0,6.0,6.0,455.3894660002697,7.0,0.0,part_2,go,250.0,250.0,1.0,,,,,,,,,gray,cross
0.0,7.0,3.0,1.0,6.0,6.0,373.656110000411,7.0,0.0,part_2,stop,250.0,250.0,3.0,,,,,,,,,yellow,hexagon
0.0,8.0,4.0,1.0,6.0,6.0,783.5049579998667,7.0,0.0,part_2,stop,250.0,200.0,3.0,,,,,,,,,blue,diamond
0.0,7.0,3.0,1.0,5.0,0.0,0.0,7.0,0.0,part_2,stop,250.0,150.0,4.0,,,,,,,,,yellow,hexagon
0.0,3.0,3.0,0.0,5.0,5.0,584.8599640003158,7.0,0.0,part_2,go,300.0,150.0,1.0,,,,,,,,,cyan,I
0.0,1.0,1.0,0.0,5.0,5.0,567.6794169994537,7.0,0.0,part_2,go,300.0,150.0,1.0,,,,,,,,,gray,cross
0.0,7.0,3.0,1.0,5.0,5.0,566.5365519998886,7.0,0.0,part_2,go,300.0,150.0,1.0,,,,,,,,,yellow,hexagon
0.0,5.0,1.0,1.0,6.0,0.0,0.0,7.0,0.0,part_2,stop,300.0,150.0,4.0,,,,,,,,,magenta,flipped triangle
0.0,1.0,1.0,0.0,6.0,6.0,660.6830540004012,7.0,0.0,part_2,go,300.0,200.0,1.0,,,,,,,,,gray,cross
0.0,3.0,3.0,0.0,6.0,6.0,604.6604789999037,7.0,0.0,part_2,go,300.0,200.0,1.0,,,,,,,,,cyan,I
0.0,8.0,4.0,1.0,5.0,0.0,0.0,7.0,0.0,part_2,stop,300.0,200.0,4.0,,,,,,,,,blue,diamond
0.0,3.0,3.0,0.0,6.0,6.0,734.8774540005252,7.0,0.0,part_2,go,350.0,200.0,1.0,,,,,,,,,cyan,I
0.0,1.0,1.0,0.0,6.0,6.0,648.9427850001448,7.0,0.0,part_2,go,350.0,200.0,1.0,,,,,,,,,gray,cross
0.0,7.0,3.0,1.0,5.0,5.0,696.3548160001665,7.0,0.0,part_2,go,350.0,200.0,1.0,,,,,,,,,yellow,hexagon
0.0,3.0,3.0,0.0,6.0,6.0,511.7323969998324,7.0,0.0,part_2,go,350.0,200.0,1.0,,,,,,,,,cyan,I
0.0,4.0,4.0,0.0,6.0,6.0,446.8799070000386,7.0,0.0,part_2,go,350.0,200.0,1.0,,,,,,,,,green,square
0.0,4.0,4.0,0.0,6.0,6.0,436.2929090002581,7.0,0.0,part_2,go,350.0,200.0,1.0,,,,,,,,,green,square
0.0,8.0,4.0,1.0,6.0,6.0,394.0761690000727,7.0,0.0,part_2,stop,350.0,200.0,3.0,,,,,,,,,blue,diamond
0.0,3.0,3.0,0.0,6.0,6.0,706.8730869996216,7.0,0.0,part_2,go,350.0,150.0,1.0,,,,,,,,,cyan,I
0.0,3.0,3.0,0.0,5.0,5.0,690.3343829999358,7.0,0.0,part_2,go,350.0,150.0,1.0,,,,,,,,,cyan,I
0.0,5.0,1.0,1.0,6.0,6.0,439.2970690005313,7.0,0.0,part_2,go,350.0,150.0,1.0,,,,,,,,,magenta,flipped triangle
0.0,5.0,1.0,1.0,6.0,0.0,0.0,7.0,0.0,part_2,stop,350.0,150.0,4.0,,,,,,,,,magenta,flipped triangle
0.0,3.0,3.0,0.0,6.0,6.0,669.5744260005085,7.0,0.0,part_2,go,350.0,200.0,1.0,,,,,,,,,cyan,I
0.0,2.0,2.0,0.0,6.0,6.0,428.6009770003147,7.0,0.0,part_2,go,350.0,200.0,1.0,,,,,,,,,white,triangle
0.0,6.0,2.0,1.0,6.0,0.0,0.0,7.0,0.0,part_2,stop,350.0,200.0,4.0,,,,,,,,,orange,circle
0.0,1.0,1.0,0.0,6.0,6.0,1040.684804999728,7.0,0.0,part_2,go,350.0,250.0,1.0,,,,,,,,,gray,cross
0.0,4.0,4.0,0.0,5.0,5.0,882.3030730000028,7.0,0.0,part_2,go,350.0,250.0,1.0,,,,,,,,,green,square
0.0,7.0,3.0,1.0,6.0,6.0,401.0506389995498,7.0,0.0,part_2,go,350.0,250.0,1.0,,,,,,,,,yellow,hexagon
0.0,8.0,4.0,1.0,6.0,0.0,0.0,8.0,0.0,part_2,stop,350.0,250.0,4.0,,,,,,,,,blue,diamond
0.0,6.0,2.0,1.0,6.0,6.0,520.9505450002325,8.0,0.0,part_2,go,350.0,300.0,1.0,,,,,,,,,orange,circle
0.0,8.0,4.0,1.0,5.0,5.0,413.477549000163,8.0,0.0,part_2,stop,350.0,300.0,3.0,,,,,,,,,blue,diamond
0.0,8.0,4.0,1.0,6.0,0.0,0.0,8.0,0.0,part_2,stop,300.0,300.0,4.0,,,,,,,,,blue,diamond
0.0,1.0,1.0,0.0,5.0,5.0,604.3388269999923,8.0,0.0,part_2,go,300.0,350.0,1.0,,,,,,,,,gray,cross
0.0,8.0,4.0,1.0,5.0,5.0,377.9100189995006,8.0,0.0,part_2,stop,300.0,350.0,3.0,,,,,,,,,blue,diamond
0.0,3.0,3.0,0.0,6.0,6.0,847.9686719992969,8.0,0.0,part_2,go,250.0,350.0,1.0,,,,,,,,,cyan,I
0.0,4.0,4.0,0.0,5.0,5.0,529.0307400000529,8.0,0.0,part_2,go,250.0,350.0,1.0,,,,,,,,,green,square
0.0,4.0,4.0,0.0,5.0,5.0,372.5517259999833,8.0,0.0,part_2,go,250.0,350.0,1.0,,,,,,,,,green,square
0.0,6.0,2.0,1.0,5.0,0.0,0.0,8.0,0.0,part_2,stop,250.0,350.0,4.0,,,,,,,,,orange,circle
0.0,6.0,2.0,1.0,5.0,0.0,0.0,8.0,0.0,part_2,stop,300.0,350.0,4.0,,,,,,,,,orange,circle
0.0,5.0,1.0,1.0,6.0,0.0,0.0,8.0,0.0,part_2,stop,350.0,350.0,4.0,,,,,,,,,magenta,flipped triangle
0.0,4.0,4.0,0.0,5.0,5.0,791.3606729998719,8.0,0.0,part_2,go,350.0,400.0,1.0,,,,,,,,,green,square
0.0,4.0,4.0,0.0,6.0,6.0,708.0124279991651,8.0,0.0,part_2,go,350.0,400.0,1.0,,,,,,,,,green,square
0.0,7.0,3.0,1.0,5.0,5.0,389.4808889999694,8.0,0.0,part_2,stop,350.0,400.0,3.0,,,,,,,,,yellow,hexagon
0.0,3.0,3.0,0.0,5.0,5.0,743.7347349996344,8.0,0.0,part_2,go,300.0,400.0,1.0,,,,,,,,,cyan,I
0.0,3.0,3.0,0.0,6.0,6.0,593.5999809998975,8.0,0.0,part_2,go,300.0,400.0,1.0,,,,,,,,,cyan,I
0.0,6.0,2.0,1.0,5.0,0.0,0.0,8.0,0.0,part_2,stop,300.0,400.0,4.0,,,,,,,,,orange,circle
0.0,8.0,4.0,1.0,5.0,0.0,0.0,8.0,0.0,part_2,stop,350.0,400.0,4.0,,,,,,,,,blue,diamond
0.0,7.0,3.0,1.0,6.0,6.0,574.9933860006422,8.0,0.0,part_2,stop,400.0,400.0,3.0,,,,,,,,,yellow,hexagon
0.0,2.0,2.0,0.0,5.0,5.0,880.757924000136,8.0,0.0,part_2,go,400.0,350.0,1.0,,,,,,,,,white,triangle
0.0,7.0,3.0,1.0,6.0,6.0,735.4857299997093,8.0,0.0,part_2,go,400.0,350.0,1.0,,,,,,,,,yellow,hexagon
0.0,7.0,3.0,1.0,5.0,5.0,468.8440890004131,8.0,0.0,part_2,stop,400.0,350.0,3.0,,,,,,,,,yellow,hexagon
0.0,3.0,3.0,0.0,5.0,5.0,936.579272999552,8.0,0.0,part_2,go,350.0,350.0,1.0,,,,,,,,,cyan,I
0.0,4.0,4.0,0.0,6.0,6.0,639.5740350008055,8.0,0.0,part_2,go,350.0,350.0,1.0,,,,,,,,,green,square
0.0,1.0,1.0,0.0,5.0,5.0,660.1958049996028,8.0,0.0,part_2,go,350.0,350.0,1.0,,,,,,,,,gray,cross
0.0,3.0,3.0,0.0,6.0,6.0,921.2406970000302,8.0,0.0,part_2,go,350.0,350.0,1.0,,,,,,,,,cyan,I
0.0,6.0,2.0,1.0,5.0,0.0,0.0,8.0,0.0,part_2,stop,350.0,350.0,4.0,,,,,,,,,orange,circle
0.0,4.0,4.0,0.0,6.0,6.0,604.0939459999208,8.0,0.0,part_2,go,400.0,350.0,1.0,,,,,,,,,green,square
0.0,1.0,1.0,0.0,5.0,5.0,781.5163900004336,8.0,0.0,part_2,go,400.0,350.0,1.0,,,,,,,,,gray,cross
0.0,8.0,4.0,1.0,5.0,5.0,451.0971980007525,8.0,0.0,part_2,stop,400.0,350.0,3.0,,,,,,,,,blue,diamond
0.0,7.0,3.0,1.0,6.0,0.0,0.0,8.0,0.0,part_2,stop,350.0,350.0,4.0,,,,,,,,,yellow,hexagon
0.0,8.0,4.0,1.0,5.0,0.0,0.0,8.0,0.0,part_2,stop,350.0,400.0,4.0,,,,,,,,,blue,diamond
0.0,8.0,4.0,1.0,6.0,6.0,752.7370079997127,8.0,0.0,part_2,go,400.0,400.0,1.0,,,,,,,,,blue,diamond
0.0,5.0,1.0,1.0,6.0,0.0,0.0,8.0,0.0,part_2,stop,400.0,400.0,4.0,,,,,,,,,magenta,flipped triangle
0.0,8.0,4.0,1.0,6.0,0.0,0.0,8.0,0.0,part_2,stop,400.0,450.0,4.0,,,,,,,,,blue,diamond
0.0,6.0,2.0,1.0,7.0,6.0,3715.119163000054,1.0,1.0,part_3,go,0.0,0.0,0.0,768.0,4.0,960.0,576.0,1152.0,192.0,384.0,768.0,orange,circle
0.0,2.0,2.0,0.0,7.0,4.0,2955.316837999817,1.0,1.0,part_3,go,0.0,0.0,0.0,696.0,6.0,116.0,464.0,232.0,696.0,348.0,580.0,white,triangle
0.0,7.0,3.0,1.0,7.0,3.0,4622.973632000139,1.0,1.0,part_3,go,0.0,0.0,0.0,770.0,5.0,462.0,154.0,770.0,924.0,308.0,616.0,yellow,hexagon
0.0,4.0,4.0,0.0,7.0,4.0,3724.0044589998433,1.0,1.0,part_3,go,0.0,0.0,0.0,580.0,5.0,696.0,464.0,232.0,580.0,348.0,116.0,green,square
0.0,3.0,3.0,0.0,7.0,3.0,2934.837174000677,1.0,1.0,part_3,go,0.0,0.0,0.0,1038.0,6.0,346.0,865.0,1038.0,692.0,519.0,173.0,cyan,I
0.0,5.0,1.0,1.0,7.0,3.0,3836.7811469997832,1.0,1.0,part_3,go,0.0,0.0,0.0,1152.0,6.0,192.0,768.0,1152.0,960.0,384.0,576.0,magenta,flipped triangle
0.0,3.0,3.0,0.0,7.0,2.0,3311.9150219999938,1.0,1.0,part_3,go,0.0,0.0,0.0,675.0,5.0,135.0,675.0,270.0,405.0,810.0,540.0,cyan,I
0.0,3.0,3.0,0.0,7.0,1.0,2181.3797039994824,1.0,1.0,part_3,go,0.0,0.0,0.0,616.0,4.0,616.0,308.0,462.0,924.0,154.0,770.0,cyan,I
0.0,8.0,4.0,1.0,7.0,4.0,4745.214405000297,1.0,1.0,part_3,go,0.0,0.0,0.0,580.0,5.0,348.0,232.0,464.0,580.0,696.0,116.0,blue,diamond
0.0,1.0,1.0,0.0,7.0,4.0,4133.463821999612,1.0,1.0,part_3,go,0.0,0.0,0.0,865.0,5.0,519.0,346.0,1038.0,865.0,173.0,692.0,gray,cross
0.0,1.0,1.0,0.0,7.0,3.0,4153.741652999997,1.0,1.0,part_3,go,0.0,0.0,0.0,960.0,5.0,768.0,1152.0,960.0,576.0,384.0,192.0,gray,cross
0.0,8.0,4.0,1.0,7.0,3.0,3425.277321000067,1.0,1.0,part_3,go,0.0,0.0,0.0,768.0,4.0,192.0,384.0,768.0,960.0,576.0,1152.0,blue,diamond
0.0,5.0,1.0,1.0,7.0,5.0,3907.9857789993184,1.0,1.0,part_3,go,0.0,0.0,0.0,810.0,6.0,270.0,405.0,675.0,135.0,810.0,540.0,magenta,flipped triangle
0.0,3.0,3.0,0.0,7.0,4.0,3531.4185219995124,1.0,1.0,part_3,go,0.0,0.0,0.0,580.0,5.0,464.0,116.0,696.0,580.0,232.0,348.0,cyan,I
0.0,6.0,2.0,1.0,7.0,5.0,2822.142703999816,1.0,1.0,part_3,go,0.0,0.0,0.0,1038.0,6.0,692.0,173.0,865.0,346.0,1038.0,519.0,orange,circle
0.0,2.0,2.0,0.0,7.0,2.0,4489.705515999958,1.0,1.0,part_3,go,0.0,0.0,0.0,960.0,5.0,576.0,960.0,192.0,768.0,1152.0,384.0,white,triangle
0.0,6.0,2.0,1.0,7.0,1.0,2792.465561999961,1.0,1.0,part_3,go,0.0,0.0,0.0,770.0,5.0,770.0,462.0,308.0,154.0,616.0,924.0,orange,circle
0.0,4.0,4.0,0.0,7.0,3.0,4038.197406999643,1.0,1.0,part_3,go,0.0,0.0,0.0,865.0,5.0,173.0,346.0,865.0,519.0,692.0,1038.0,green,square
0.0,4.0,4.0,0.0,7.0,1.0,2666.5342410005906,1.0,1.0,part_3,go,0.0,0.0,0.0,924.0,6.0,924.0,616.0,770.0,462.0,308.0,154.0,green,square
0.0,8.0,4.0,1.0,7.0,3.0,2401.9210759997804,1.0,1.0,part_3,go,0.0,0.0,0.0,675.0,5.0,270.0,540.0,675.0,810.0,135.0,405.0,blue,diamond
0.0,1.0,1.0,0.0,7.0,4.0,2459.1443099998287,2.0,1.0,part_3,go,0.0,0.0,0.0,675.0,5.0,135.0,405.0,540.0,675.0,810.0,270.0,gray,cross
0.0,6.0,2.0,1.0,7.0,2.0,3308.723376000671,2.0,1.0,part_3,go,0.0,0.0,0.0,960.0,5.0,192.0,960.0,576.0,768.0,384.0,1152.0,orange,circle
0.0,7.0,3.0,1.0,7.0,2.0,2562.2247580004114,2.0,1.0,part_3,go,0.0,0.0,0.0,1152.0,6.0,768.0,1152.0,960.0,576.0,384.0,192.0,yellow,hexagon
0.0,2.0,2.0,0.0,7.0,5.0,2477.31195400047,2.0,1.0,part_3,go,0.0,0.0,0.0,1038.0,6.0,865.0,173.0,692.0,346.0,1038.0,519.0,white,triangle
0.0,7.0,3.0,1.0,7.0,6.0,3325.3642540003057,2.0,1.0,part_3,go,0.0,0.0,0.0,616.0,4.0,308.0,462.0,770.0,154.0,924.0,616.0,yellow,hexagon
0.0,7.0,3.0,1.0,7.0,5.0,2829.9987559994406,2.0,1.0,part_3,go,0.0,0.0,0.0,696.0,6.0,580.0,116.0,464.0,348.0,696.0,232.0,yellow,hexagon
0.0,1.0,1.0,0.0,7.0,5.0,3960.614738000004,2.0,1.0,part_3,go,0.0,0.0,0.0,580.0,5.0,232.0,116.0,696.0,348.0,580.0,464.0,gray,cross
0.0,8.0,4.0,1.0,7.0,1.0,3533.070275000682,2.0,1.0,part_3,go,0.0,0.0,0.0,768.0,4.0,768.0,1152.0,384.0,576.0,960.0,192.0,blue,diamond
0.0,4.0,4.0,0.0,7.0,6.0,1395.602057999895,2.0,1.0,part_3,go,0.0,0.0,0.0,675.0,5.0,810.0,540.0,405.0,270.0,135.0,675.0,green,square
0.0,1.0,1.0,0.0,7.0,5.0,1918.410670999947,2.0,1.0,part_3,go,0.0,0.0,0.0,865.0,5.0,519.0,692.0,346.0,1038.0,865.0,173.0,gray,cross
0.0,5.0,1.0,1.0,7.0,2.0,3395.065265999619,2.0,1.0,part_3,go,0.0,0.0,0.0,348.0,3.0,696.0,348.0,580.0,116.0,232.0,464.0,magenta,flipped triangle
0.0,2.0,2.0,0.0,7.0,6.0,4717.9271149998385,2.0,1.0,part_3,go,0.0,0.0,0.0,692.0,4.0,1038.0,346.0,865.0,519.0,173.0,692.0,white,triangle
0.0,6.0,2.0,1.0,7.0,6.0,3420.927723999739,2.0,1.0,part_3,go,0.0,0.0,0.0,580.0,5.0,464.0,696.0,116.0,348.0,232.0,580.0,orange,circle
0.0,7.0,3.0,1.0,7.0,3.0,1950.441717999638,2.0,1.0,part_3,go,0.0,0.0,0.0,580.0,5.0,464.0,696.0,580.0,116.0,232.0,348.0,yellow,hexagon
0.0,6.0,2.0,1.0,7.0,2.0,4141.79355899978,2.0,1.0,part_3,go,0.0,0.0,0.0,810.0,6.0,540.0,810.0,135.0,270.0,405.0,675.0,orange,circle
0.0,6.0,2.0,1.0,7.0,5.0,2569.323531000009,2.0,1.0,part_3,go,0.0,0.0,0.0,865.0,5.0,346.0,173.0,1038.0,692.0,865.0,519.0,orange,circle
0.0,4.0,4.0,0.0,7.0,2.0,2881.854144000499,2.0,1.0,part_3,go,0.0,0.0,0.0,616.0,4.0,924.0,616.0,462.0,308.0,154.0,770.0,green,square
0.0,4.0,4.0,0.0,7.0,4.0,3649.348442999326,2.0,1.0,part_3,go,0.0,0.0,0.0,810.0,6.0,540.0,405.0,135.0,810.0,675.0,270.0,green,square
0.0,5.0,1.0,1.0,7.0,6.0,2526.575222000247,2.0,1.0,part_3,go,0.0,0.0,0.0,616.0,4.0,770.0,924.0,308.0,462.0,154.0,616.0,magenta,flipped triangle
0.0,8.0,4.0,1.0,7.0,1.0,1817.445257000145,2.0,1.0,part_3,go,0.0,0.0,0.0,924.0,6.0,924.0,154.0,462.0,616.0,308.0,770.0,blue,diamond
0.0,2.0,2.0,0.0,7.0,2.0,3253.908030000275,3.0,1.0,part_3,go,0.0,0.0,0.0,696.0,6.0,116.0,696.0,580.0,232.0,464.0,348.0,white,triangle
0.0,5.0,1.0,1.0,7.0,4.0,3417.5371310002447,3.0,1.0,part_3,go,0.0,0.0,0.0,865.0,5.0,173.0,1038.0,692.0,865.0,519.0,346.0,magenta,flipped triangle
0.0,8.0,4.0,1.0,7.0,1.0,1570.5814000002647,3.0,1.0,part_3,go,0.0,0.0,0.0,1038.0,6.0,1038.0,346.0,865.0,692.0,519.0,173.0,blue,diamond
0.0,5.0,1.0,1.0,7.0,1.0,3132.8628170003867,3.0,1.0,part_3,go,0.0,0.0,0.0,865.0,5.0,865.0,173.0,346.0,519.0,1038.0,692.0,magenta,flipped triangle
0.0,1.0,1.0,0.0,7.0,1.0,2036.5057039998646,3.0,1.0,part_3,go,0.0,0.0,0.0,960.0,5.0,960.0,192.0,1152.0,576.0,768.0,384.0,gray,cross
0.0,6.0,2.0,1.0,7.0,6.0,2064.2377560006935,3.0,1.0,part_3,go,0.0,0.0,0.0,580.0,5.0,348.0,232.0,696.0,464.0,116.0,580.0,orange,circle
0.0,7.0,3.0,1.0,7.0,2.0,3063.954272999581,3.0,1.0,part_3,go,0.0,0.0,0.0,1038.0,6.0,173.0,1038.0,692.0,519.0,346.0,865.0,yellow,hexagon
0.0,3.0,3.0,0.0,7.0,4.0,4921.385491000365,3.0,1.0,part_3,go,0.0,0.0,0.0,580.0,5.0,116.0,464.0,348.0,580.0,232.0,696.0,cyan,I
0.0,2.0,2.0,0.0,7.0,4.0,3535.704676000023,3.0,1.0,part_3,go,0.0,0.0,0.0,770.0,5.0,154.0,616.0,462.0,770.0,308.0,924.0,white,triangle
0.0,5.0,1.0,1.0,7.0,2.0,3058.6148329994103,3.0,1.0,part_3,go,0.0,0.0,0.0,810.0,6.0,540.0,810.0,675.0,270.0,135.0,405.0,magenta,flipped triangle
0.0,2.0,2.0,0.0,7.0,6.0,1685.9815799998614,3.0,1.0,part_3,go,0.0,0.0,0.0,960.0,5.0,1152.0,192.0,768.0,576.0,384.0,960.0,white,triangle
0.0,3.0,3.0,0.0,7.0,1.0,3871.3213179999,3.0,1.0,part_3,go,0.0,0.0,0.0,1038.0,6.0,1038.0,692.0,865.0,173.0,346.0,519.0,cyan,I
0.0,5.0,1.0,1.0,7.0,3.0,3758.161554000253,3.0,1.0,part_3,go,0.0,0.0,0.0,960.0,5.0,1152.0,192.0,960.0,768.0,576.0,384.0,magenta,flipped triangle
0.0,1.0,1.0,0.0,7.0,5.0,3224.4906699997955,3.0,1.0,part_3,go,0.0,0.0,0.0,540.0,4.0,135.0,675.0,405.0,270.0,540.0,810.0,gray,cross
0.0,2.0,2.0,0.0,7.0,2.0,4224.215084000207,3.0,1.0,part_3,go,0.0,0.0,0.0,675.0,5.0,810.0,675.0,540.0,135.0,270.0,405.0,white,triangle
0.0,4.0,4.0,0.0,7.0,5.0,2251.9794899999397,3.0,1.0,part_3,go,0.0,0.0,0.0,960.0,5.0,1152.0,384.0,768.0,576.0,960.0,192.0,green,square
0.0,8.0,4.0,1.0,7.0,2.0,3088.142192000305,3.0,1.0,part_3,go,0.0,0.0,0.0,692.0,4.0,519.0,692.0,865.0,173.0,1038.0,346.0,blue,diamond
0.0,8.0,4.0,1.0,7.0,2.0,2895.883591000711,3.0,1.0,part_3,go,0.0,0.0,0.0,810.0,6.0,405.0,810.0,270.0,540.0,135.0,675.0,blue,diamond
0.0,2.0,2.0,0.0,7.0,4.0,2650.4686690004746,3.0,1.0,part_3,go,0.0,0.0,0.0,675.0,5.0,810.0,540.0,405.0,675.0,270.0,135.0,white,triangle
0.0,2.0,2.0,0.0,7.0,1.0,2376.6310119999616,3.0,1.0,part_3,go,0.0,0.0,0.0,770.0,5.0,770.0,924.0,154.0,462.0,308.0,616.0,white,triangle
0.0,7.0,3.0,1.0,7.0,5.0,3273.2095640003536,4.0,1.0,part_3,go,0.0,0.0,0.0,519.0,3.0,865.0,173.0,346.0,1038.0,519.0,692.0,yellow,hexagon
0.0,8.0,4.0,1.0,7.0,6.0,2319.6504909992655,4.0,1.0,part_3,go,0.0,0.0,0.0,770.0,5.0,616.0,462.0,308.0,924.0,154.0,770.0,blue,diamond
0.0,6.0,2.0,1.0,7.0,1.0,3033.522770999298,4.0,1.0,part_3,go,0.0,0.0,0.0,770.0,5.0,770.0,924.0,462.0,308.0,154.0,616.0,orange,circle
0.0,1.0,1.0,0.0,7.0,2.0,4740.428844000235,4.0,1.0,part_3,go,0.0,0.0,0.0,696.0,6.0,232.0,696.0,464.0,348.0,580.0,116.0,gray,cross
0.0,4.0,4.0,0.0,7.0,1.0,2019.9555090002832,4.0,1.0,part_3,go,0.0,0.0,0.0,960.0,5.0,960.0,768.0,1152.0,192.0,384.0,576.0,green,square
0.0,1.0,1.0,0.0,7.0,5.0,3733.314715999768,4.0,1.0,part_3,go,0.0,0.0,0.0,924.0,6.0,616.0,154.0,462.0,308.0,924.0,770.0,gray,cross
0.0,4.0,4.0,0.0,7.0,2.0,3175.5235250002443,4.0,1.0,part_3,go,0.0,0.0,0.0,696.0,6.0,464.0,696.0,116.0,348.0,232.0,580.0,green,square
0.0,4.0,4.0,0.0,7.0,4.0,2785.5012640002315,4.0,1.0,part_3,go,0.0,0.0,0.0,1038.0,6.0,173.0,692.0,865.0,1038.0,519.0,346.0,green,square
0.0,3.0,3.0,0.0,7.0,2.0,2350.66682499928,4.0,1.0,part_3,go,0.0,0.0,0.0,768.0,4.0,192.0,768.0,960.0,576.0,1152.0,384.0,cyan,I
0.0,3.0,3.0,0.0,7.0,3.0,2572.2442369997225,4.0,1.0,part_3,go,0.0,0.0,0.0,675.0,5.0,135.0,270.0,675.0,405.0,810.0,540.0,cyan,I
0.0,7.0,3.0,1.0,7.0,5.0,1906.6573579993928,4.0,1.0,part_3,go,0.0,0.0,0.0,810.0,6.0,135.0,675.0,540.0,270.0,810.0,405.0,yellow,hexagon
0.0,5.0,1.0,1.0,7.0,1.0,2535.220447000029,4.0,1.0,part_3,go,0.0,0.0,0.0,924.0,6.0,924.0,308.0,616.0,154.0,462.0,770.0,magenta,flipped triangle
0.0,8.0,4.0,1.0,7.0,5.0,1643.3036100006575,4.0,1.0,part_3,go,0.0,0.0,0.0,696.0,6.0,464.0,116.0,348.0,580.0,696.0,232.0,blue,diamond
0.0,7.0,3.0,1.0,7.0,5.0,2076.6317240004355,4.0,1.0,part_3,go,0.0,0.0,0.0,810.0,6.0,270.0,405.0,675.0,135.0,810.0,540.0,yellow,hexagon
0.0,3.0,3.0,0.0,7.0,5.0,4855.100515000231,4.0,1.0,part_3,go,0.0,0.0,0.0,770.0,5.0,308.0,462.0,616.0,154.0,770.0,924.0,cyan,I
0.0,7.0,3.0,1.0,7.0,2.0,2025.1581330003319,4.0,1.0,part_3,go,0.0,0.0,0.0,1152.0,6.0,768.0,1152.0,576.0,960.0,192.0,384.0,yellow,hexagon
0.0,5.0,1.0,1.0,7.0,3.0,3152.0716790000733,4.0,1.0,part_3,go,0.0,0.0,0.0,696.0,6.0,232.0,116.0,696.0,348.0,580.0,464.0,magenta,flipped triangle
0.0,1.0,1.0,0.0,7.0,3.0,4070.943785000054,4.0,1.0,part_3,go,0.0,0.0,0.0,770.0,5.0,616.0,924.0,770.0,154.0,308.0,462.0,gray,cross
0.0,6.0,2.0,1.0,7.0,1.0,3562.952170999779,4.0,1.0,part_3,go,0.0,0.0,0.0,675.0,5.0,675.0,540.0,270.0,135.0,405.0,810.0,orange,circle
0.0,3.0,3.0,0.0,7.0,6.0,3180.958457999622,4.0,1.0,part_3,go,0.0,0.0,0.0,960.0,5.0,1152.0,384.0,576.0,192.0,768.0,960.0,cyan,I
