raw_reward_magnitude,stim_reward,stepwise_reward_magnitude,paired_with_stopping,stim_location,response,reaction_time,block,num_trial_presentations,which_phase,stop_signal_trial_type,left_SSD,right_SSD,accuracy,chosen_bidding_amount,chosen_bidding_level,possible_bid_1,possible_bid_2,possible_bid_3,possible_bid_4,possible_bid_5,possible_bid_6,color_text,shape_text
1281.0,4.0,4.0,0.0,1.0,1.0,517.5121880001825,1.0,1.0,phase_1,,,,,,,,,,,,,cyan,triangle
181.0,1.0,0.5,0.0,1.0,1.0,454.0853020007489,1.0,1.0,phase_1,,,,,,,,,,,,,white,hexagon
1296.0,8.0,4.0,1.0,2.0,2.0,351.1402149997593,1.0,1.0,phase_1,,,,,,,,,,,,,green,diamond
0.0,1.0,0.0,0.0,1.0,1.0,361.5112319994296,1.0,1.0,phase_1,,,,,,,,,,,,,white,hexagon
143.0,5.0,0.5,1.0,4.0,4.0,359.8706689999744,1.0,1.0,phase_1,,,,,,,,,,,,,orange,circle
155.0,5.0,0.5,1.0,1.0,1.0,370.9416980000242,1.0,1.0,phase_1,,,,,,,,,,,,,orange,circle
146.0,1.0,0.5,0.0,3.0,3.0,398.1673700000101,1.0,1.0,phase_1,,,,,,,,,,,,,white,hexagon
626.0,3.0,2.0,0.0,1.0,1.0,341.3810459996966,1.0,1.0,phase_1,,,,,,,,,,,,,gray,flipped triangle
148.0,5.0,0.5,1.0,3.0,3.0,360.5492790002245,1.0,1.0,phase_1,,,,,,,,,,,,,orange,circle
139.0,1.0,0.5,0.0,3.0,3.0,359.4120359994122,1.0,1.0,phase_1,,,,,,,,,,,,,white,hexagon
0.0,3.0,0.0,0.0,2.0,2.0,387.2675450002134,1.0,2.0,phase_1,,,,,,,,,,,,,gray,flipped triangle
0.0,8.0,0.0,1.0,4.0,4.0,323.0979729996761,1.0,1.0,phase_1,,,,,,,,,,,,,green,diamond
1290.0,8.0,4.0,1.0,4.0,4.0,379.6814400002404,1.0,1.0,phase_1,,,,,,,,,,,,,green,diamond
339.0,6.0,1.0,1.0,1.0,1.0,359.9381479998556,1.0,1.0,phase_1,,,,,,,,,,,,,magenta,I
0.0,6.0,0.0,1.0,2.0,2.0,414.2862929993498,1.0,1.0,phase_1,,,,,,,,,,,,,magenta,I
1295.0,4.0,4.0,0.0,4.0,4.0,351.6720429997804,1.0,1.0,phase_1,,,,,,,,,,,,,cyan,triangle
1319.0,4.0,4.0,0.0,2.0,2.0,370.28891499994637,1.0,1.0,phase_1,,,,,,,,,,,,,cyan,triangle
184.0,1.0,0.5,0.0,2.0,2.0,360.3030220001528,1.0,1.0,phase_1,,,,,,,,,,,,,white,hexagon
172.0,5.0,0.5,1.0,3.0,3.0,388.2863130002079,1.0,1.0,phase_1,,,,,,,,,,,,,orange,circle
181.0,1.0,0.5,0.0,4.0,4.0,370.5752160003612,1.0,1.0,phase_1,,,,,,,,,,,,,white,hexagon
161.0,1.0,0.5,0.0,4.0,4.0,397.0433969998339,1.0,1.0,phase_1,,,,,,,,,,,,,white,hexagon
1292.0,8.0,4.0,1.0,3.0,3.0,341.5970460000608,1.0,1.0,phase_1,,,,,,,,,,,,,green,diamond
672.0,7.0,2.0,1.0,4.0,4.0,369.0604639996309,1.0,1.0,phase_1,,,,,,,,,,,,,yellow,square
0.0,2.0,0.0,0.0,4.0,4.0,361.0731590006253,1.0,1.0,phase_1,,,,,,,,,,,,,blue,cross
346.0,2.0,1.0,0.0,2.0,2.0,387.809073000426,1.0,1.0,phase_1,,,,,,,,,,,,,blue,cross
338.0,2.0,1.0,0.0,4.0,4.0,378.4453780008334,1.0,1.0,phase_1,,,,,,,,,,,,,blue,cross
628.0,3.0,2.0,0.0,3.0,3.0,369.7761479998007,1.0,1.0,phase_1,,,,,,,,,,,,,gray,flipped triangle
1316.0,4.0,4.0,0.0,2.0,2.0,389.023423999788,1.0,1.0,phase_1,,,,,,,,,,,,,cyan,triangle
307.0,2.0,1.0,0.0,3.0,3.0,370.4690189997563,1.0,1.0,phase_1,,,,,,,,,,,,,blue,cross
667.0,7.0,2.0,1.0,1.0,1.0,368.7177970004995,1.0,1.0,phase_1,,,,,,,,,,,,,yellow,square
632.0,7.0,2.0,1.0,1.0,1.0,482.5983350001479,1.0,1.0,phase_1,,,,,,,,,,,,,yellow,square
0.0,3.0,0.0,0.0,4.0,4.0,417.0184699996753,1.0,1.0,phase_1,,,,,,,,,,,,,gray,flipped triangle
1286.0,4.0,4.0,0.0,3.0,3.0,453.2172050003282,1.0,1.0,phase_1,,,,,,,,,,,,,cyan,triangle
172.0,1.0,0.5,0.0,3.0,3.0,388.8470000001689,1.0,1.0,phase_1,,,,,,,,,,,,,white,hexagon
320.0,2.0,1.0,0.0,2.0,2.0,351.3241410000773,1.0,1.0,phase_1,,,,,,,,,,,,,blue,cross
158.0,1.0,0.5,0.0,4.0,4.0,352.017488000456,1.0,1.0,phase_1,,,,,,,,,,,,,white,hexagon
148.0,1.0,0.5,0.0,1.0,1.0,388.4773260006113,1.0,1.0,phase_1,,,,,,,,,,,,,white,hexagon
631.0,7.0,2.0,1.0,3.0,3.0,369.2494099996111,1.0,1.0,phase_1,,,,,,,,,,,,,yellow,square
301.0,2.0,1.0,0.0,2.0,2.0,406.6549150002174,1.0,1.0,phase_1,,,,,,,,,,,,,blue,cross
0.0,4.0,0.0,0.0,1.0,1.0,424.2120489998342,1.0,1.0,phase_1,,,,,,,,,,,,,cyan,triangle
626.0,7.0,2.0,1.0,3.0,3.0,388.7421210001776,1.0,1.0,phase_1,,,,,,,,,,,,,yellow,square
671.0,7.0,2.0,1.0,2.0,2.0,461.8575730000884,1.0,1.0,phase_1,,,,,,,,,,,,,yellow,square
141.0,1.0,0.5,0.0,3.0,3.0,406.7854590002753,1.0,1.0,phase_1,,,,,,,,,,,,,white,hexagon
1320.0,4.0,4.0,0.0,3.0,3.0,414.909164999699,1.0,1.0,phase_1,,,,,,,,,,,,,cyan,triangle
1279.0,8.0,4.0,1.0,3.0,3.0,350.8116869998048,1.0,1.0,phase_1,,,,,,,,,,,,,green,diamond
0.0,7.0,0.0,1.0,4.0,4.0,453.4495950001656,1.0,1.0,phase_1,,,,,,,,,,,,,yellow,square
149.0,1.0,0.5,0.0,2.0,2.0,472.0545569998648,1.0,1.0,phase_1,,,,,,,,,,,,,white,hexagon
0.0,2.0,0.0,0.0,1.0,1.0,397.6339900000312,1.0,1.0,phase_1,,,,,,,,,,,,,blue,cross
325.0,2.0,1.0,0.0,3.0,3.0,370.5623870000636,1.0,1.0,phase_1,,,,,,,,,,,,,blue,cross
146.0,5.0,0.5,1.0,4.0,4.0,397.106509999503,1.0,1.0,phase_1,,,,,,,,,,,,,orange,circle
645.0,3.0,2.0,0.0,3.0,3.0,296.5523750008287,1.0,1.0,phase_1,,,,,,,,,,,,,gray,flipped triangle
344.0,2.0,1.0,0.0,4.0,4.0,361.3723270000264,1.0,1.0,phase_1,,,,,,,,,,,,,blue,cross
348.0,2.0,1.0,0.0,4.0,4.0,324.0079369998057,1.0,1.0,phase_1,,,,,,,,,,,,,blue,cross
314.0,2.0,1.0,0.0,3.0,3.0,360.6291460000648,1.0,1.0,phase_1,,,,,,,,,,,,,blue,cross
1313.0,4.0,4.0,0.0,4.0,4.0,369.6551860002728,1.0,1.0,phase_1,,,,,,,,,,,,,cyan,triangle
329.0,6.0,1.0,1.0,1.0,1.0,360.9396789997845,1.0,1.0,phase_1,,,,,,,,,,,,,magenta,I
1276.0,8.0,4.0,1.0,4.0,4.0,324.3261369998436,1.0,1.0,phase_1,,,,,,,,,,,,,green,diamond
308.0,2.0,1.0,0.0,1.0,1.0,399.341994999304,1.0,1.0,phase_1,,,,,,,,,,,,,blue,cross
0.0,6.0,0.0,1.0,1.0,1.0,370.8768509995934,1.0,2.0,phase_1,,,,,,,,,,,,,magenta,I
672.0,7.0,2.0,1.0,1.0,1.0,360.1186919995598,1.0,1.0,phase_1,,,,,,,,,,,,,yellow,square
187.0,5.0,0.5,1.0,2.0,2.0,397.1383100006278,1.0,1.0,phase_1,,,,,,,,,,,,,orange,circle
0.0,3.0,0.0,0.0,2.0,2.0,341.2921529998129,1.0,1.0,phase_1,,,,,,,,,,,,,gray,flipped triangle
0.0,6.0,0.0,1.0,2.0,2.0,368.8859049998427,1.0,1.0,phase_1,,,,,,,,,,,,,magenta,I
0.0,7.0,0.0,1.0,2.0,2.0,387.8466559999651,1.0,1.0,phase_1,,,,,,,,,,,,,yellow,square
157.0,5.0,0.5,1.0,2.0,2.0,460.8705450000343,1.0,1.0,phase_1,,,,,,,,,,,,,orange,circle
1316.0,8.0,4.0,1.0,4.0,4.0,452.473567999732,1.0,1.0,phase_1,,,,,,,,,,,,,green,diamond
177.0,1.0,0.5,0.0,2.0,2.0,344.6760269998776,1.0,1.0,phase_1,,,,,,,,,,,,,white,hexagon
180.0,5.0,0.5,1.0,4.0,4.0,368.9776179999171,1.0,1.0,phase_1,,,,,,,,,,,,,orange,circle
0.0,2.0,0.0,0.0,2.0,2.0,406.0790809999162,1.0,1.0,phase_1,,,,,,,,,,,,,blue,cross
1287.0,8.0,4.0,1.0,1.0,1.0,389.756712000235,1.0,1.0,phase_1,,,,,,,,,,,,,green,diamond
1283.0,4.0,4.0,0.0,1.0,1.0,359.8756339997635,1.0,1.0,phase_1,,,,,,,,,,,,,cyan,triangle
672.0,3.0,2.0,0.0,3.0,3.0,379.5481380002456,1.0,1.0,phase_1,,,,,,,,,,,,,gray,flipped triangle
339.0,2.0,1.0,0.0,2.0,2.0,360.7728990000396,1.0,1.0,phase_1,,,,,,,,,,,,,blue,cross
0.0,6.0,0.0,1.0,4.0,4.0,573.0093490001309,1.0,1.0,phase_1,,,,,,,,,,,,,magenta,I
0.0,2.0,0.0,0.0,3.0,3.0,361.0342600004514,1.0,1.0,phase_1,,,,,,,,,,,,,blue,cross
1281.0,8.0,4.0,1.0,3.0,3.0,332.9002760001458,1.0,1.0,phase_1,,,,,,,,,,,,,green,diamond
158.0,1.0,0.5,0.0,2.0,2.0,361.4060660001996,1.0,1.0,phase_1,,,,,,,,,,,,,white,hexagon
344.0,6.0,1.0,1.0,3.0,3.0,406.3203329997122,1.0,1.0,phase_1,,,,,,,,,,,,,magenta,I
0.0,2.0,0.0,0.0,1.0,1.0,361.3089379996381,1.0,1.0,phase_1,,,,,,,,,,,,,blue,cross
633.0,3.0,2.0,0.0,4.0,4.0,360.7813070002521,1.0,1.0,phase_1,,,,,,,,,,,,,gray,flipped triangle
187.0,1.0,0.5,0.0,2.0,2.0,323.8794959997904,1.0,1.0,phase_1,,,,,,,,,,,,,white,hexagon
315.0,2.0,1.0,0.0,2.0,2.0,333.9399699998466,1.0,1.0,phase_1,,,,,,,,,,,,,blue,cross
0.0,2.0,0.0,0.0,3.0,3.0,277.1550779998506,1.0,1.0,phase_1,,,,,,,,,,,,,blue,cross
1315.0,8.0,4.0,1.0,2.0,2.0,352.3394670000925,1.0,1.0,phase_1,,,,,,,,,,,,,green,diamond
0.0,1.0,0.0,0.0,4.0,4.0,324.2759879994992,1.0,1.0,phase_1,,,,,,,,,,,,,white,hexagon
0.0,1.0,0.0,0.0,3.0,3.0,322.6045769997654,1.0,1.0,phase_1,,,,,,,,,,,,,white,hexagon
0.0,5.0,0.0,1.0,1.0,1.0,332.6767690004999,1.0,1.0,phase_1,,,,,,,,,,,,,orange,circle
1290.0,4.0,4.0,0.0,2.0,2.0,342.1132020002915,1.0,1.0,phase_1,,,,,,,,,,,,,cyan,triangle
640.0,7.0,2.0,1.0,1.0,1.0,350.7494450004742,1.0,2.0,phase_1,,,,,,,,,,,,,yellow,square
0.0,7.0,0.0,1.0,2.0,2.0,341.9410009992134,1.0,1.0,phase_1,,,,,,,,,,,,,yellow,square
1318.0,8.0,4.0,1.0,2.0,2.0,314.0929399996821,1.0,1.0,phase_1,,,,,,,,,,,,,green,diamond
0.0,8.0,0.0,1.0,1.0,1.0,378.4927079996123,1.0,1.0,phase_1,,,,,,,,,,,,,green,diamond
664.0,3.0,2.0,0.0,1.0,1.0,313.615461000154,1.0,1.0,phase_1,,,,,,,,,,,,,gray,flipped triangle
347.0,2.0,1.0,0.0,4.0,4.0,369.3375510001715,1.0,1.0,phase_1,,,,,,,,,,,,,blue,cross
630.0,7.0,2.0,1.0,4.0,4.0,369.4890500000838,1.0,1.0,phase_1,,,,,,,,,,,,,yellow,square
0.0,3.0,0.0,0.0,1.0,1.0,323.3731090003857,1.0,1.0,phase_1,,,,,,,,,,,,,gray,flipped triangle
1304.0,4.0,4.0,0.0,2.0,2.0,322.9227829997398,1.0,1.0,phase_1,,,,,,,,,,,,,cyan,triangle
1287.0,4.0,4.0,0.0,3.0,3.0,322.778377000759,1.0,1.0,phase_1,,,,,,,,,,,,,cyan,triangle
0.0,8.0,0.0,1.0,3.0,3.0,323.6778270002105,1.0,1.0,phase_1,,,,,,,,,,,,,green,diamond
661.0,7.0,2.0,1.0,4.0,4.0,359.9558129999423,1.0,1.0,phase_1,,,,,,,,,,,,,yellow,square
0.0,1.0,0.0,0.0,4.0,4.0,384.848000000602,2.0,1.0,phase_1,,,,,,,,,,,,,white,hexagon
0.0,8.0,0.0,1.0,2.0,2.0,332.2361640002782,2.0,1.0,phase_1,,,,,,,,,,,,,green,diamond
1293.0,8.0,4.0,1.0,2.0,2.0,375.532676000148,2.0,1.0,phase_1,,,,,,,,,,,,,green,diamond
0.0,8.0,0.0,1.0,2.0,2.0,311.1297010000271,2.0,1.0,phase_1,,,,,,,,,,,,,green,diamond
0.0,1.0,0.0,0.0,1.0,1.0,385.6107000001429,2.0,1.0,phase_1,,,,,,,,,,,,,white,hexagon
333.0,6.0,1.0,1.0,4.0,4.0,347.2408600000563,2.0,1.0,phase_1,,,,,,,,,,,,,magenta,I
184.0,5.0,0.5,1.0,3.0,3.0,322.5411259991233,2.0,1.0,phase_1,,,,,,,,,,,,,orange,circle
1314.0,4.0,4.0,0.0,1.0,1.0,332.6157659994351,2.0,2.0,phase_1,,,,,,,,,,,,,cyan,triangle
348.0,2.0,1.0,0.0,1.0,1.0,451.7735380004524,2.0,1.0,phase_1,,,,,,,,,,,,,blue,cross
1282.0,4.0,4.0,0.0,4.0,4.0,609.3864859994937,2.0,1.0,phase_1,,,,,,,,,,,,,cyan,triangle
141.0,5.0,0.5,1.0,4.0,4.0,391.3922100000491,2.0,1.0,phase_1,,,,,,,,,,,,,orange,circle
322.0,6.0,1.0,1.0,2.0,2.0,370.5395610004416,2.0,1.0,phase_1,,,,,,,,,,,,,magenta,I
314.0,6.0,1.0,1.0,4.0,4.0,350.6015290004143,2.0,1.0,phase_1,,,,,,,,,,,,,magenta,I
170.0,1.0,0.5,0.0,3.0,3.0,360.8421450007881,2.0,1.0,phase_1,,,,,,,,,,,,,white,hexagon
628.0,7.0,2.0,1.0,2.0,2.0,360.2563599997666,2.0,1.0,phase_1,,,,,,,,,,,,,yellow,square
650.0,7.0,2.0,1.0,2.0,2.0,378.6061250011698,2.0,1.0,phase_1,,,,,,,,,,,,,yellow,square
1281.0,4.0,4.0,0.0,3.0,3.0,371.1695990004955,2.0,1.0,phase_1,,,,,,,,,,,,,cyan,triangle
1276.0,4.0,4.0,0.0,1.0,1.0,379.4362780008669,2.0,1.0,phase_1,,,,,,,,,,,,,cyan,triangle
0.0,4.0,0.0,0.0,3.0,3.0,369.4468549983867,2.0,1.0,phase_1,,,,,,,,,,,,,cyan,triangle
628.0,7.0,2.0,1.0,3.0,3.0,361.3789600003656,2.0,1.0,phase_1,,,,,,,,,,,,,yellow,square
1287.0,4.0,4.0,0.0,4.0,4.0,406.6179340006783,2.0,1.0,phase_1,,,,,,,,,,,,,cyan,triangle
0.0,4.0,0.0,0.0,1.0,1.0,371.4147620012227,2.0,1.0,phase_1,,,,,,,,,,,,,cyan,triangle
333.0,2.0,1.0,0.0,2.0,2.0,360.6470170016109,2.0,1.0,phase_1,,,,,,,,,,,,,blue,cross
1313.0,8.0,4.0,1.0,4.0,4.0,360.7503139992332,2.0,1.0,phase_1,,,,,,,,,,,,,green,diamond
139.0,1.0,0.5,0.0,1.0,1.0,405.9971019996737,2.0,1.0,phase_1,,,,,,,,,,,,,white,hexagon
666.0,7.0,2.0,1.0,4.0,4.0,332.6274520004517,2.0,1.0,phase_1,,,,,,,,,,,,,yellow,square
657.0,7.0,2.0,1.0,1.0,1.0,848.8135089992284,2.0,1.0,phase_1,,,,,,,,,,,,,yellow,square
304.0,6.0,1.0,1.0,3.0,3.0,907.470119998834,2.0,1.0,phase_1,,,,,,,,,,,,,magenta,I
1283.0,8.0,4.0,1.0,1.0,1.0,451.7103689995565,2.0,1.0,phase_1,,,,,,,,,,,,,green,diamond
1292.0,4.0,4.0,0.0,3.0,3.0,332.1848479990876,2.0,1.0,phase_1,,,,,,,,,,,,,cyan,triangle
181.0,5.0,0.5,1.0,2.0,2.0,434.0225889991416,2.0,1.0,phase_1,,,,,,,,,,,,,orange,circle
339.0,2.0,1.0,0.0,4.0,4.0,842.7476739998383,2.0,1.0,phase_1,,,,,,,,,,,,,blue,cross
143.0,1.0,0.5,0.0,4.0,4.0,887.1184910003649,2.0,1.0,phase_1,,,,,,,,,,,,,white,hexagon
1323.0,8.0,4.0,1.0,1.0,1.0,360.4069009998056,2.0,1.0,phase_1,,,,,,,,,,,,,green,diamond
0.0,4.0,0.0,0.0,2.0,2.0,313.9039879988559,2.0,1.0,phase_1,,,,,,,,,,,,,cyan,triangle
1314.0,4.0,4.0,0.0,3.0,3.0,323.6513680003554,2.0,1.0,phase_1,,,,,,,,,,,,,cyan,triangle
181.0,5.0,0.5,1.0,2.0,2.0,351.9945570005802,2.0,1.0,phase_1,,,,,,,,,,,,,orange,circle
0.0,3.0,0.0,0.0,1.0,1.0,359.4172289995185,2.0,1.0,phase_1,,,,,,,,,,,,,gray,flipped triangle
320.0,6.0,1.0,1.0,4.0,4.0,343.1579309999506,2.0,1.0,phase_1,,,,,,,,,,,,,magenta,I
170.0,5.0,0.5,1.0,2.0,2.0,461.8092100008653,2.0,1.0,phase_1,,,,,,,,,,,,,orange,circle
324.0,6.0,1.0,1.0,2.0,2.0,370.0055379995319,2.0,1.0,phase_1,,,,,,,,,,,,,magenta,I
157.0,1.0,0.5,0.0,2.0,2.0,369.9193709999235,2.0,1.0,phase_1,,,,,,,,,,,,,white,hexagon
139.0,5.0,0.5,1.0,4.0,4.0,472.4952710002981,2.0,1.0,phase_1,,,,,,,,,,,,,orange,circle
158.0,5.0,0.5,1.0,3.0,3.0,370.4423509989283,2.0,1.0,phase_1,,,,,,,,,,,,,orange,circle
173.0,5.0,0.5,1.0,4.0,4.0,351.8667320004169,2.0,1.0,phase_1,,,,,,,,,,,,,orange,circle
144.0,1.0,0.5,0.0,2.0,2.0,423.9962259998719,2.0,1.0,phase_1,,,,,,,,,,,,,white,hexagon
321.0,6.0,1.0,1.0,3.0,3.0,627.6829950002139,2.0,1.0,phase_1,,,,,,,,,,,,,magenta,I
660.0,7.0,2.0,1.0,4.0,4.0,907.3334639997483,2.0,1.0,phase_1,,,,,,,,,,,,,yellow,square
0.0,1.0,0.0,0.0,4.0,4.0,746.84883000009,2.0,1.0,phase_1,,,,,,,,,,,,,white,hexagon
335.0,6.0,1.0,1.0,2.0,2.0,895.7542879998073,2.0,1.0,phase_1,,,,,,,,,,,,,magenta,I
640.0,3.0,2.0,0.0,2.0,2.0,666.374327000085,2.0,2.0,phase_1,,,,,,,,,,,,,gray,flipped triangle
666.0,3.0,2.0,0.0,2.0,2.0,648.2659180001065,2.0,1.0,phase_1,,,,,,,,,,,,,gray,flipped triangle
331.0,6.0,1.0,1.0,4.0,4.0,693.9470209999854,2.0,1.0,phase_1,,,,,,,,,,,,,magenta,I
316.0,6.0,1.0,1.0,1.0,1.0,738.4244300010323,2.0,1.0,phase_1,,,,,,,,,,,,,magenta,I
0.0,4.0,0.0,0.0,2.0,2.0,700.7248359986988,2.0,1.0,phase_1,,,,,,,,,,,,,cyan,triangle
0.0,5.0,0.0,1.0,3.0,3.0,701.4625589999923,2.0,1.0,phase_1,,,,,,,,,,,,,orange,circle
314.0,6.0,1.0,1.0,4.0,4.0,915.4316670010304,2.0,1.0,phase_1,,,,,,,,,,,,,magenta,I
303.0,2.0,1.0,0.0,4.0,4.0,914.2953329992451,2.0,1.0,phase_1,,,,,,,,,,,,,blue,cross
1277.0,4.0,4.0,0.0,4.0,4.0,943.0986839997786,2.0,1.0,phase_1,,,,,,,,,,,,,cyan,triangle
1296.0,4.0,4.0,0.0,3.0,3.0,812.1259620002093,2.0,1.0,phase_1,,,,,,,,,,,,,cyan,triangle
658.0,3.0,2.0,0.0,3.0,3.0,895.5630569998903,2.0,2.0,phase_1,,,,,,,,,,,,,gray,flipped triangle
342.0,2.0,1.0,0.0,1.0,1.0,590.0677490008093,2.0,1.0,phase_1,,,,,,,,,,,,,blue,cross
0.0,7.0,0.0,1.0,3.0,3.0,655.9680339996703,2.0,1.0,phase_1,,,,,,,,,,,,,yellow,square
1277.0,8.0,4.0,1.0,1.0,1.0,711.9191780002438,2.0,1.0,phase_1,,,,,,,,,,,,,green,diamond
655.0,3.0,2.0,0.0,1.0,1.0,728.4154580011091,2.0,1.0,phase_1,,,,,,,,,,,,,gray,flipped triangle
0.0,2.0,0.0,0.0,1.0,1.0,499.0704729989375,2.0,2.0,phase_1,,,,,,,,,,,,,blue,cross
165.0,5.0,0.5,1.0,2.0,2.0,600.4792650001036,2.0,1.0,phase_1,,,,,,,,,,,,,orange,circle
0.0,8.0,0.0,1.0,2.0,2.0,747.0511930005159,2.0,1.0,phase_1,,,,,,,,,,,,,green,diamond
328.0,6.0,1.0,1.0,3.0,3.0,748.8065289999213,2.0,1.0,phase_1,,,,,,,,,,,,,magenta,I
640.0,7.0,2.0,1.0,1.0,1.0,598.5913849999633,2.0,1.0,phase_1,,,,,,,,,,,,,yellow,square
1325.0,4.0,4.0,0.0,3.0,3.0,664.5676410007582,2.0,1.0,phase_1,,,,,,,,,,,,,cyan,triangle
303.0,2.0,1.0,0.0,4.0,4.0,323.1335019991093,2.0,2.0,phase_1,,,,,,,,,,,,,blue,cross
175.0,1.0,0.5,0.0,4.0,4.0,645.5300340003305,2.0,1.0,phase_1,,,,,,,,,,,,,white,hexagon
635.0,7.0,2.0,1.0,3.0,3.0,801.9514850002452,2.0,1.0,phase_1,,,,,,,,,,,,,yellow,square
0.0,5.0,0.0,1.0,2.0,2.0,812.2537489998649,2.0,1.0,phase_1,,,,,,,,,,,,,orange,circle
138.0,5.0,0.5,1.0,1.0,1.0,775.0098369997431,2.0,1.0,phase_1,,,,,,,,,,,,,orange,circle
0.0,2.0,0.0,0.0,4.0,4.0,709.3708009997499,2.0,1.0,phase_1,,,,,,,,,,,,,blue,cross
348.0,6.0,1.0,1.0,1.0,1.0,544.6300490002614,2.0,1.0,phase_1,,,,,,,,,,,,,magenta,I
669.0,7.0,2.0,1.0,4.0,4.0,470.2617729999474,2.0,1.0,phase_1,,,,,,,,,,,,,yellow,square
643.0,3.0,2.0,0.0,3.0,3.0,636.8220250005834,2.0,1.0,phase_1,,,,,,,,,,,,,gray,flipped triangle
1294.0,4.0,4.0,0.0,2.0,2.0,563.5763340014819,2.0,1.0,phase_1,,,,,,,,,,,,,cyan,triangle
1304.0,4.0,4.0,0.0,2.0,2.0,599.4090130006953,2.0,1.0,phase_1,,,,,,,,,,,,,cyan,triangle
324.0,6.0,1.0,1.0,1.0,1.0,665.6397330007167,2.0,1.0,phase_1,,,,,,,,,,,,,magenta,I
165.0,1.0,0.5,0.0,3.0,3.0,518.7737959986407,2.0,1.0,phase_1,,,,,,,,,,,,,white,hexagon
316.0,2.0,1.0,0.0,1.0,1.0,526.1099440012913,2.0,1.0,phase_1,,,,,,,,,,,,,blue,cross
303.0,6.0,1.0,1.0,4.0,4.0,572.2311190002074,2.0,1.0,phase_1,,,,,,,,,,,,,magenta,I
646.0,3.0,2.0,0.0,4.0,4.0,599.2079099996772,2.0,1.0,phase_1,,,,,,,,,,,,,gray,flipped triangle
153.0,5.0,0.5,1.0,2.0,2.0,471.3112049994379,2.0,1.0,phase_1,,,,,,,,,,,,,orange,circle
631.0,3.0,2.0,0.0,2.0,2.0,581.0709790002875,2.0,1.0,phase_1,,,,,,,,,,,,,gray,flipped triangle
651.0,7.0,2.0,1.0,3.0,3.0,499.5505300012155,2.0,1.0,phase_1,,,,,,,,,,,,,yellow,square
635.0,7.0,2.0,1.0,2.0,2.0,535.0418990001344,2.0,1.0,phase_1,,,,,,,,,,,,,yellow,square
673.0,7.0,2.0,1.0,2.0,2.0,626.1706599998433,2.0,1.0,phase_1,,,,,,,,,,,,,yellow,square
645.0,7.0,2.0,1.0,1.0,1.0,581.2930390002293,2.0,1.0,phase_1,,,,,,,,,,,,,yellow,square
343.0,6.0,1.0,1.0,1.0,1.0,786.1688989996765,2.0,1.0,phase_1,,,,,,,,,,,,,magenta,I
0.0,3.0,0.0,0.0,4.0,4.0,664.9075740006083,2.0,1.0,phase_1,,,,,,,,,,,,,gray,flipped triangle
138.0,1.0,0.5,0.0,4.0,4.0,583.9246510004159,2.0,1.0,phase_1,,,,,,,,,,,,,white,hexagon
666.0,7.0,2.0,1.0,1.0,1.0,607.7825519987528,2.0,1.0,phase_1,,,,,,,,,,,,,yellow,square
1294.0,8.0,4.0,1.0,3.0,3.0,638.8975720001326,2.0,1.0,phase_1,,,,,,,,,,,,,green,diamond
176.0,5.0,0.5,1.0,1.0,1.0,424.7156219989847,2.0,1.0,phase_1,,,,,,,,,,,,,orange,circle
0.0,4.0,0.0,0.0,3.0,3.0,563.869698000417,2.0,1.0,phase_1,,,,,,,,,,,,,cyan,triangle
1301.0,8.0,4.0,1.0,2.0,2.0,463.3717199994862,3.0,1.0,phase_1,,,,,,,,,,,,,green,diamond
315.0,6.0,1.0,1.0,3.0,3.0,645.0120870013052,3.0,1.0,phase_1,,,,,,,,,,,,,magenta,I
0.0,6.0,0.0,1.0,3.0,3.0,682.8749759988568,3.0,1.0,phase_1,,,,,,,,,,,,,magenta,I
314.0,2.0,1.0,0.0,3.0,3.0,711.8214430010994,3.0,1.0,phase_1,,,,,,,,,,,,,blue,cross
308.0,6.0,1.0,1.0,2.0,2.0,554.5222400014609,3.0,1.0,phase_1,,,,,,,,,,,,,magenta,I
184.0,5.0,0.5,1.0,4.0,4.0,378.0010099999344,3.0,1.0,phase_1,,,,,,,,,,,,,orange,circle
0.0,3.0,0.0,0.0,1.0,1.0,627.8636459992413,3.0,1.0,phase_1,,,,,,,,,,,,,gray,flipped triangle
170.0,5.0,0.5,1.0,3.0,3.0,683.937205998518,3.0,1.0,phase_1,,,,,,,,,,,,,orange,circle
0.0,4.0,0.0,0.0,2.0,2.0,450.7214950008347,3.0,1.0,phase_1,,,,,,,,,,,,,cyan,triangle
182.0,1.0,0.5,0.0,2.0,2.0,509.33208799870044,3.0,1.0,phase_1,,,,,,,,,,,,,white,hexagon
346.0,6.0,1.0,1.0,2.0,2.0,388.0876369985344,3.0,1.0,phase_1,,,,,,,,,,,,,magenta,I
631.0,7.0,2.0,1.0,3.0,3.0,435.0534910008719,3.0,1.0,phase_1,,,,,,,,,,,,,yellow,square
628.0,3.0,2.0,0.0,1.0,1.0,405.5560500000865,3.0,1.0,phase_1,,,,,,,,,,,,,gray,flipped triangle
651.0,3.0,2.0,0.0,2.0,2.0,360.3101380012958,3.0,1.0,phase_1,,,,,,,,,,,,,gray,flipped triangle
644.0,3.0,2.0,0.0,3.0,3.0,396.6953280014422,3.0,1.0,phase_1,,,,,,,,,,,,,gray,flipped triangle
1290.0,8.0,4.0,1.0,3.0,3.0,360.4453019997891,3.0,1.0,phase_1,,,,,,,,,,,,,green,diamond
657.0,3.0,2.0,0.0,2.0,2.0,509.70961100028944,3.0,1.0,phase_1,,,,,,,,,,,,,gray,flipped triangle
348.0,6.0,1.0,1.0,1.0,1.0,369.944903999567,3.0,1.0,phase_1,,,,,,,,,,,,,magenta,I
1275.0,8.0,4.0,1.0,4.0,4.0,389.0832929992029,3.0,1.0,phase_1,,,,,,,,,,,,,green,diamond
170.0,1.0,0.5,0.0,3.0,3.0,471.0231499993824,3.0,1.0,phase_1,,,,,,,,,,,,,white,hexagon
151.0,5.0,0.5,1.0,3.0,3.0,720.0606529986544,3.0,1.0,phase_1,,,,,,,,,,,,,orange,circle
0.0,6.0,0.0,1.0,1.0,1.0,582.7044429988746,3.0,1.0,phase_1,,,,,,,,,,,,,magenta,I
640.0,7.0,2.0,1.0,4.0,4.0,648.4726190010406,3.0,1.0,phase_1,,,,,,,,,,,,,yellow,square
0.0,3.0,0.0,0.0,2.0,2.0,603.5317900004884,3.0,1.0,phase_1,,,,,,,,,,,,,gray,flipped triangle
1299.0,8.0,4.0,1.0,1.0,1.0,665.8937190004508,3.0,1.0,phase_1,,,,,,,,,,,,,green,diamond
1309.0,4.0,4.0,0.0,1.0,1.0,710.5224800016003,3.0,1.0,phase_1,,,,,,,,,,,,,cyan,triangle
635.0,3.0,2.0,0.0,1.0,1.0,872.9626459989959,3.0,1.0,phase_1,,,,,,,,,,,,,gray,flipped triangle
145.0,1.0,0.5,0.0,3.0,3.0,612.9037860009703,3.0,1.0,phase_1,,,,,,,,,,,,,white,hexagon
337.0,2.0,1.0,0.0,4.0,4.0,629.3669830010913,3.0,1.0,phase_1,,,,,,,,,,,,,blue,cross
347.0,6.0,1.0,1.0,2.0,2.0,553.9139869997598,3.0,1.0,phase_1,,,,,,,,,,,,,magenta,I
180.0,1.0,0.5,0.0,1.0,1.0,636.696915000357,3.0,1.0,phase_1,,,,,,,,,,,,,white,hexagon
632.0,3.0,2.0,0.0,3.0,3.0,360.5753629999526,3.0,1.0,phase_1,,,,,,,,,,,,,gray,flipped triangle
1318.0,4.0,4.0,0.0,3.0,3.0,794.7676709991356,3.0,1.0,phase_1,,,,,,,,,,,,,cyan,triangle
0.0,6.0,0.0,1.0,2.0,2.0,678.5252360004961,3.0,1.0,phase_1,,,,,,,,,,,,,magenta,I
1322.0,4.0,4.0,0.0,4.0,4.0,582.2821620004106,3.0,1.0,phase_1,,,,,,,,,,,,,cyan,triangle
307.0,6.0,1.0,1.0,2.0,2.0,675.4611409996869,3.0,1.0,phase_1,,,,,,,,,,,,,magenta,I
1321.0,8.0,4.0,1.0,4.0,4.0,545.5854530009674,3.0,1.0,phase_1,,,,,,,,,,,,,green,diamond
0.0,5.0,0.0,1.0,2.0,2.0,722.3923660003493,3.0,1.0,phase_1,,,,,,,,,,,,,orange,circle
635.0,3.0,2.0,0.0,1.0,1.0,729.1685459986184,3.0,1.0,phase_1,,,,,,,,,,,,,gray,flipped triangle
0.0,2.0,0.0,0.0,1.0,1.0,722.642419001204,3.0,1.0,phase_1,,,,,,,,,,,,,blue,cross
0.0,4.0,0.0,0.0,1.0,1.0,794.3593130003137,3.0,1.0,phase_1,,,,,,,,,,,,,cyan,triangle
185.0,1.0,0.5,0.0,4.0,4.0,536.011956000948,3.0,1.0,phase_1,,,,,,,,,,,,,white,hexagon
305.0,6.0,1.0,1.0,3.0,3.0,621.9654289998289,3.0,1.0,phase_1,,,,,,,,,,,,,magenta,I
655.0,7.0,2.0,1.0,3.0,3.0,680.4820140005177,3.0,1.0,phase_1,,,,,,,,,,,,,yellow,square
173.0,1.0,0.5,0.0,1.0,1.0,778.0687060003402,3.0,1.0,phase_1,,,,,,,,,,,,,white,hexagon
322.0,2.0,1.0,0.0,3.0,3.0,557.7171919994726,3.0,1.0,phase_1,,,,,,,,,,,,,blue,cross
1281.0,8.0,4.0,1.0,3.0,3.0,787.316441999792,3.0,1.0,phase_1,,,,,,,,,,,,,green,diamond
0.0,8.0,0.0,1.0,3.0,3.0,682.5706860017817,3.0,1.0,phase_1,,,,,,,,,,,,,green,diamond
656.0,3.0,2.0,0.0,4.0,4.0,536.2678649998998,3.0,1.0,phase_1,,,,,,,,,,,,,gray,flipped triangle
312.0,6.0,1.0,1.0,4.0,4.0,832.6930999992328,3.0,1.0,phase_1,,,,,,,,,,,,,magenta,I
1314.0,8.0,4.0,1.0,1.0,1.0,658.8919000005262,3.0,1.0,phase_1,,,,,,,,,,,,,green,diamond
0.0,4.0,0.0,0.0,1.0,1.0,480.9369880003942,3.0,2.0,phase_1,,,,,,,,,,,,,cyan,triangle
182.0,5.0,0.5,1.0,1.0,1.0,563.1487450009445,3.0,1.0,phase_1,,,,,,,,,,,,,orange,circle
1286.0,8.0,4.0,1.0,4.0,4.0,443.7236979993031,3.0,1.0,phase_1,,,,,,,,,,,,,green,diamond
155.0,1.0,0.5,0.0,1.0,1.0,443.9857460001803,3.0,1.0,phase_1,,,,,,,,,,,,,white,hexagon
0.0,5.0,0.0,1.0,4.0,4.0,536.5970270013349,3.0,1.0,phase_1,,,,,,,,,,,,,orange,circle
640.0,3.0,2.0,0.0,4.0,4.0,452.9966099999001,3.0,1.0,phase_1,,,,,,,,,,,,,gray,flipped triangle
1323.0,4.0,4.0,0.0,4.0,4.0,648.3524739996938,3.0,1.0,phase_1,,,,,,,,,,,,,cyan,triangle
0.0,5.0,0.0,1.0,2.0,2.0,555.5267080017074,3.0,1.0,phase_1,,,,,,,,,,,,,orange,circle
348.0,6.0,1.0,1.0,2.0,2.0,775.9200399996189,3.0,1.0,phase_1,,,,,,,,,,,,,magenta,I
1305.0,8.0,4.0,1.0,1.0,1.0,635.6128099996567,3.0,1.0,phase_1,,,,,,,,,,,,,green,diamond
1286.0,8.0,4.0,1.0,2.0,2.0,617.3577199988358,3.0,1.0,phase_1,,,,,,,,,,,,,green,diamond
650.0,3.0,2.0,0.0,1.0,1.0,739.1021889998228,3.0,1.0,phase_1,,,,,,,,,,,,,gray,flipped triangle
643.0,7.0,2.0,1.0,2.0,2.0,536.2424469985854,3.0,1.0,phase_1,,,,,,,,,,,,,yellow,square
176.0,5.0,0.5,1.0,1.0,1.0,747.510182998667,3.0,1.0,phase_1,,,,,,,,,,,,,orange,circle
657.0,3.0,2.0,0.0,3.0,3.0,601.0849080012122,3.0,1.0,phase_1,,,,,,,,,,,,,gray,flipped triangle
161.0,5.0,0.5,1.0,3.0,3.0,655.4311620002409,3.0,1.0,phase_1,,,,,,,,,,,,,orange,circle
1287.0,8.0,4.0,1.0,1.0,1.0,591.1621630002628,3.0,1.0,phase_1,,,,,,,,,,,,,green,diamond
316.0,2.0,1.0,0.0,1.0,1.0,748.1249080010457,3.0,1.0,phase_1,,,,,,,,,,,,,blue,cross
0.0,7.0,0.0,1.0,2.0,2.0,718.5877699994307,3.0,1.0,phase_1,,,,,,,,,,,,,yellow,square
1305.0,4.0,4.0,0.0,2.0,2.0,746.3141990010627,3.0,1.0,phase_1,,,,,,,,,,,,,cyan,triangle
0.0,1.0,0.0,0.0,1.0,1.0,663.7165910015028,3.0,1.0,phase_1,,,,,,,,,,,,,white,hexagon
168.0,5.0,0.5,1.0,2.0,2.0,691.9909309999639,3.0,1.0,phase_1,,,,,,,,,,,,,orange,circle
0.0,7.0,0.0,1.0,2.0,2.0,728.8164660003531,3.0,1.0,phase_1,,,,,,,,,,,,,yellow,square
158.0,5.0,0.5,1.0,1.0,1.0,655.6442880009854,3.0,1.0,phase_1,,,,,,,,,,,,,orange,circle
337.0,6.0,1.0,1.0,2.0,2.0,738.2935490004456,3.0,1.0,phase_1,,,,,,,,,,,,,magenta,I
144.0,5.0,0.5,1.0,4.0,4.0,599.8855069992715,3.0,1.0,phase_1,,,,,,,,,,,,,orange,circle
184.0,1.0,0.5,0.0,2.0,2.0,609.3607689999772,3.0,1.0,phase_1,,,,,,,,,,,,,white,hexagon
1282.0,8.0,4.0,1.0,2.0,2.0,637.8280039989477,3.0,1.0,phase_1,,,,,,,,,,,,,green,diamond
165.0,5.0,0.5,1.0,3.0,3.0,719.6659250002995,3.0,1.0,phase_1,,,,,,,,,,,,,orange,circle
145.0,5.0,0.5,1.0,2.0,2.0,628.8680190009472,3.0,1.0,phase_1,,,,,,,,,,,,,orange,circle
0.0,2.0,0.0,0.0,2.0,2.0,831.6232449997187,3.0,1.0,phase_1,,,,,,,,,,,,,blue,cross
176.0,1.0,0.5,0.0,4.0,4.0,727.9160529997171,3.0,1.0,phase_1,,,,,,,,,,,,,white,hexagon
1290.0,8.0,4.0,1.0,2.0,2.0,645.1520560003701,3.0,1.0,phase_1,,,,,,,,,,,,,green,diamond
1315.0,4.0,4.0,0.0,1.0,1.0,717.0637469989742,3.0,1.0,phase_1,,,,,,,,,,,,,cyan,triangle
0.0,7.0,0.0,1.0,3.0,3.0,600.0507899989316,3.0,1.0,phase_1,,,,,,,,,,,,,yellow,square
308.0,2.0,1.0,0.0,4.0,4.0,636.7897210002411,3.0,1.0,phase_1,,,,,,,,,,,,,blue,cross
653.0,7.0,2.0,1.0,1.0,1.0,701.6680390006513,3.0,1.0,phase_1,,,,,,,,,,,,,yellow,square
1286.0,4.0,4.0,0.0,3.0,3.0,526.308266000342,3.0,1.0,phase_1,,,,,,,,,,,,,cyan,triangle
339.0,6.0,1.0,1.0,4.0,4.0,767.1764820006501,3.0,1.0,phase_1,,,,,,,,,,,,,magenta,I
671.0,3.0,2.0,0.0,1.0,1.0,424.4576459987002,3.0,1.0,phase_1,,,,,,,,,,,,,gray,flipped triangle
0.0,7.0,0.0,1.0,4.0,4.0,719.0949679988989,3.0,1.0,phase_1,,,,,,,,,,,,,yellow,square
305.0,2.0,1.0,0.0,3.0,3.0,582.3543359983887,3.0,1.0,phase_1,,,,,,,,,,,,,blue,cross
141.0,1.0,0.5,0.0,4.0,4.0,451.8674099999771,3.0,1.0,phase_1,,,,,,,,,,,,,white,hexagon
657.0,7.0,2.0,1.0,4.0,4.0,692.5004389995593,3.0,1.0,phase_1,,,,,,,,,,,,,yellow,square
644.0,7.0,2.0,1.0,2.0,2.0,517.5583830005053,3.0,2.0,phase_1,,,,,,,,,,,,,yellow,square
667.0,3.0,2.0,0.0,4.0,4.0,775.142374999632,3.0,1.0,phase_1,,,,,,,,,,,,,gray,flipped triangle
174.0,1.0,0.5,0.0,3.0,3.0,682.9060390009545,3.0,1.0,phase_1,,,,,,,,,,,,,white,hexagon
337.0,2.0,1.0,0.0,1.0,1.0,730.7840379999107,3.0,1.0,phase_1,,,,,,,,,,,,,blue,cross
149.0,5.0,0.5,1.0,2.0,2.0,785.1987020003435,3.0,1.0,phase_1,,,,,,,,,,,,,orange,circle
331.0,2.0,1.0,0.0,4.0,4.0,424.918954999157,4.0,1.0,phase_1,,,,,,,,,,,,,blue,cross
1279.0,4.0,4.0,0.0,2.0,2.0,517.8292470009183,4.0,1.0,phase_1,,,,,,,,,,,,,cyan,triangle
185.0,5.0,0.5,1.0,1.0,1.0,545.4845290005323,4.0,1.0,phase_1,,,,,,,,,,,,,orange,circle
174.0,5.0,0.5,1.0,1.0,1.0,461.455348000527,4.0,1.0,phase_1,,,,,,,,,,,,,orange,circle
0.0,6.0,0.0,1.0,4.0,4.0,498.0417209990264,4.0,1.0,phase_1,,,,,,,,,,,,,magenta,I
168.0,1.0,0.5,0.0,1.0,1.0,507.080366000082,4.0,1.0,phase_1,,,,,,,,,,,,,white,hexagon
630.0,3.0,2.0,0.0,4.0,4.0,534.532219000539,4.0,1.0,phase_1,,,,,,,,,,,,,gray,flipped triangle
329.0,2.0,1.0,0.0,1.0,1.0,515.4734839998127,4.0,1.0,phase_1,,,,,,,,,,,,,blue,cross
332.0,6.0,1.0,1.0,4.0,4.0,562.1487560001697,4.0,1.0,phase_1,,,,,,,,,,,,,magenta,I
343.0,2.0,1.0,0.0,2.0,2.0,478.9084069998353,4.0,1.0,phase_1,,,,,,,,,,,,,blue,cross
304.0,2.0,1.0,0.0,3.0,3.0,387.3950309989595,4.0,1.0,phase_1,,,,,,,,,,,,,blue,cross
0.0,3.0,0.0,0.0,4.0,4.0,607.787939001355,4.0,1.0,phase_1,,,,,,,,,,,,,gray,flipped triangle
1295.0,8.0,4.0,1.0,4.0,4.0,443.104336000033,4.0,1.0,phase_1,,,,,,,,,,,,,green,diamond
342.0,6.0,1.0,1.0,1.0,1.0,618.0666639993433,4.0,1.0,phase_1,,,,,,,,,,,,,magenta,I
0.0,6.0,0.0,1.0,1.0,1.0,702.3140159999457,4.0,1.0,phase_1,,,,,,,,,,,,,magenta,I
0.0,8.0,0.0,1.0,2.0,2.0,553.1266809994122,4.0,1.0,phase_1,,,,,,,,,,,,,green,diamond
139.0,5.0,0.5,1.0,4.0,4.0,683.2205919999979,4.0,1.0,phase_1,,,,,,,,,,,,,orange,circle
1293.0,4.0,4.0,0.0,4.0,4.0,711.1099169997033,4.0,1.0,phase_1,,,,,,,,,,,,,cyan,triangle
645.0,3.0,2.0,0.0,2.0,2.0,714.46669100078,4.0,1.0,phase_1,,,,,,,,,,,,,gray,flipped triangle
153.0,1.0,0.5,0.0,3.0,3.0,695.0015549991804,4.0,1.0,phase_1,,,,,,,,,,,,,white,hexagon
653.0,3.0,2.0,0.0,1.0,1.0,618.4412759994302,4.0,1.0,phase_1,,,,,,,,,,,,,gray,flipped triangle
1323.0,4.0,4.0,0.0,1.0,1.0,610.2494979986659,4.0,1.0,phase_1,,,,,,,,,,,,,cyan,triangle
316.0,6.0,1.0,1.0,4.0,4.0,591.6042179997021,4.0,1.0,phase_1,,,,,,,,,,,,,magenta,I
670.0,3.0,2.0,0.0,4.0,4.0,711.1478009992425,4.0,1.0,phase_1,,,,,,,,,,,,,gray,flipped triangle
0.0,5.0,0.0,1.0,3.0,3.0,554.1492809988995,4.0,1.0,phase_1,,,,,,,,,,,,,orange,circle
0.0,3.0,0.0,0.0,4.0,4.0,728.2915039995714,4.0,1.0,phase_1,,,,,,,,,,,,,gray,flipped triangle
1275.0,4.0,4.0,0.0,2.0,2.0,525.6270259997109,4.0,1.0,phase_1,,,,,,,,,,,,,cyan,triangle
672.0,3.0,2.0,0.0,3.0,3.0,711.7226249993109,4.0,1.0,phase_1,,,,,,,,,,,,,gray,flipped triangle
303.0,6.0,1.0,1.0,3.0,3.0,774.0713100010908,4.0,1.0,phase_1,,,,,,,,,,,,,magenta,I
0.0,5.0,0.0,1.0,2.0,2.0,802.0839290002186,4.0,1.0,phase_1,,,,,,,,,,,,,orange,circle
651.0,7.0,2.0,1.0,2.0,2.0,791.2273379988619,4.0,1.0,phase_1,,,,,,,,,,,,,yellow,square
165.0,1.0,0.5,0.0,2.0,2.0,460.8845410002686,4.0,2.0,phase_1,,,,,,,,,,,,,white,hexagon
1314.0,8.0,4.0,1.0,2.0,2.0,572.1877600008156,4.0,1.0,phase_1,,,,,,,,,,,,,green,diamond
1309.0,8.0,4.0,1.0,1.0,1.0,441.8615600006887,4.0,1.0,phase_1,,,,,,,,,,,,,green,diamond
660.0,3.0,2.0,0.0,4.0,4.0,590.4786640003294,4.0,1.0,phase_1,,,,,,,,,,,,,gray,flipped triangle
1321.0,4.0,4.0,0.0,4.0,4.0,728.7685600003897,4.0,1.0,phase_1,,,,,,,,,,,,,cyan,triangle
324.0,2.0,1.0,0.0,3.0,3.0,693.8523610006087,4.0,1.0,phase_1,,,,,,,,,,,,,blue,cross
651.0,3.0,2.0,0.0,4.0,4.0,461.1078010002529,4.0,1.0,phase_1,,,,,,,,,,,,,gray,flipped triangle
670.0,7.0,2.0,1.0,4.0,4.0,435.304435000944,4.0,1.0,phase_1,,,,,,,,,,,,,yellow,square
1320.0,4.0,4.0,0.0,2.0,2.0,508.3914160004497,4.0,1.0,phase_1,,,,,,,,,,,,,cyan,triangle
328.0,2.0,1.0,0.0,2.0,2.0,470.4005549992871,4.0,1.0,phase_1,,,,,,,,,,,,,blue,cross
0.0,7.0,0.0,1.0,2.0,2.0,526.5633979997801,4.0,1.0,phase_1,,,,,,,,,,,,,yellow,square
656.0,7.0,2.0,1.0,3.0,3.0,481.7717500009166,4.0,1.0,phase_1,,,,,,,,,,,,,yellow,square
664.0,7.0,2.0,1.0,3.0,3.0,664.3670000012207,4.0,1.0,phase_1,,,,,,,,,,,,,yellow,square
306.0,2.0,1.0,0.0,3.0,3.0,720.9962519991677,4.0,1.0,phase_1,,,,,,,,,,,,,blue,cross
1304.0,8.0,4.0,1.0,1.0,1.0,581.759389000581,4.0,1.0,phase_1,,,,,,,,,,,,,green,diamond
155.0,1.0,0.5,0.0,1.0,1.0,663.5368930001277,4.0,1.0,phase_1,,,,,,,,,,,,,white,hexagon
324.0,2.0,1.0,0.0,2.0,2.0,639.119187999313,4.0,1.0,phase_1,,,,,,,,,,,,,blue,cross
0.0,7.0,0.0,1.0,1.0,1.0,683.1314990013198,4.0,1.0,phase_1,,,,,,,,,,,,,yellow,square
177.0,5.0,0.5,1.0,4.0,4.0,650.4892900011328,4.0,1.0,phase_1,,,,,,,,,,,,,orange,circle
335.0,2.0,1.0,0.0,1.0,1.0,611.5201590000652,4.0,1.0,phase_1,,,,,,,,,,,,,blue,cross
673.0,3.0,2.0,0.0,2.0,2.0,424.4835169993166,4.0,1.0,phase_1,,,,,,,,,,,,,gray,flipped triangle
312.0,2.0,1.0,0.0,3.0,3.0,654.9367490006262,4.0,1.0,phase_1,,,,,,,,,,,,,blue,cross
1320.0,8.0,4.0,1.0,3.0,3.0,535.5202280006779,4.0,1.0,phase_1,,,,,,,,,,,,,green,diamond
332.0,2.0,1.0,0.0,2.0,2.0,526.6616720000457,4.0,1.0,phase_1,,,,,,,,,,,,,blue,cross
1323.0,8.0,4.0,1.0,3.0,3.0,406.8763179984671,4.0,1.0,phase_1,,,,,,,,,,,,,green,diamond
1299.0,4.0,4.0,0.0,4.0,4.0,542.9098330005218,4.0,1.0,phase_1,,,,,,,,,,,,,cyan,triangle
175.0,5.0,0.5,1.0,1.0,1.0,442.5734440010274,4.0,1.0,phase_1,,,,,,,,,,,,,orange,circle
1322.0,8.0,4.0,1.0,4.0,4.0,554.5160729998315,4.0,1.0,phase_1,,,,,,,,,,,,,green,diamond
321.0,2.0,1.0,0.0,1.0,1.0,612.873824999042,4.0,1.0,phase_1,,,,,,,,,,,,,blue,cross
338.0,6.0,1.0,1.0,3.0,3.0,553.718506000223,4.0,1.0,phase_1,,,,,,,,,,,,,magenta,I
141.0,5.0,0.5,1.0,1.0,1.0,480.9173799985728,4.0,1.0,phase_1,,,,,,,,,,,,,orange,circle
633.0,7.0,2.0,1.0,1.0,1.0,414.7325190006086,4.0,1.0,phase_1,,,,,,,,,,,,,yellow,square
631.0,3.0,2.0,0.0,3.0,3.0,397.2549099999014,4.0,1.0,phase_1,,,,,,,,,,,,,gray,flipped triangle
1290.0,4.0,4.0,0.0,1.0,1.0,525.6839220000984,4.0,1.0,phase_1,,,,,,,,,,,,,cyan,triangle
0.0,5.0,0.0,1.0,3.0,3.0,508.7176550005097,4.0,1.0,phase_1,,,,,,,,,,,,,orange,circle
0.0,8.0,0.0,1.0,3.0,3.0,479.9454399999376,4.0,1.0,phase_1,,,,,,,,,,,,,green,diamond
0.0,5.0,0.0,1.0,2.0,2.0,491.0016459998587,4.0,1.0,phase_1,,,,,,,,,,,,,orange,circle
306.0,6.0,1.0,1.0,1.0,1.0,728.8108459997602,4.0,1.0,phase_1,,,,,,,,,,,,,magenta,I
661.0,3.0,2.0,0.0,1.0,1.0,405.3414110003359,4.0,1.0,phase_1,,,,,,,,,,,,,gray,flipped triangle
0.0,6.0,0.0,1.0,2.0,2.0,444.5758539986855,4.0,1.0,phase_1,,,,,,,,,,,,,magenta,I
337.0,6.0,1.0,1.0,3.0,3.0,387.9750639989652,4.0,1.0,phase_1,,,,,,,,,,,,,magenta,I
1290.0,4.0,4.0,0.0,1.0,1.0,398.2101439996768,4.0,1.0,phase_1,,,,,,,,,,,,,cyan,triangle
176.0,1.0,0.5,0.0,1.0,1.0,554.5065849983075,4.0,1.0,phase_1,,,,,,,,,,,,,white,hexagon
643.0,7.0,2.0,1.0,3.0,3.0,359.6596869992936,4.0,1.0,phase_1,,,,,,,,,,,,,yellow,square
1301.0,4.0,4.0,0.0,1.0,1.0,452.5921490003384,4.0,1.0,phase_1,,,,,,,,,,,,,cyan,triangle
645.0,7.0,2.0,1.0,2.0,2.0,449.8975349997636,4.0,1.0,phase_1,,,,,,,,,,,,,yellow,square
1304.0,8.0,4.0,1.0,2.0,2.0,416.1278199990192,4.0,1.0,phase_1,,,,,,,,,,,,,green,diamond
348.0,2.0,1.0,0.0,1.0,1.0,534.1922370007524,4.0,1.0,phase_1,,,,,,,,,,,,,blue,cross
0.0,1.0,0.0,0.0,2.0,2.0,400.0478079997265,4.0,1.0,phase_1,,,,,,,,,,,,,white,hexagon
669.0,3.0,2.0,0.0,2.0,2.0,462.6998890016693,4.0,1.0,phase_1,,,,,,,,,,,,,gray,flipped triangle
640.0,3.0,2.0,0.0,4.0,4.0,489.1511330006324,4.0,1.0,phase_1,,,,,,,,,,,,,gray,flipped triangle
0.0,1.0,0.0,0.0,3.0,3.0,544.3022129984456,4.0,1.0,phase_1,,,,,,,,,,,,,white,hexagon
138.0,1.0,0.5,0.0,1.0,1.0,590.429422998568,4.0,1.0,phase_1,,,,,,,,,,,,,white,hexagon
301.0,6.0,1.0,1.0,3.0,3.0,498.2757809993927,4.0,1.0,phase_1,,,,,,,,,,,,,magenta,I
138.0,5.0,0.5,1.0,3.0,3.0,581.2043080004514,4.0,1.0,phase_1,,,,,,,,,,,,,orange,circle
151.0,1.0,0.5,0.0,4.0,4.0,424.1226020003523,4.0,1.0,phase_1,,,,,,,,,,,,,white,hexagon
325.0,6.0,1.0,1.0,2.0,2.0,405.8348300004581,4.0,1.0,phase_1,,,,,,,,,,,,,magenta,I
1325.0,8.0,4.0,1.0,3.0,3.0,406.9961189998139,4.0,1.0,phase_1,,,,,,,,,,,,,green,diamond
1319.0,8.0,4.0,1.0,4.0,4.0,388.2890539989603,4.0,1.0,phase_1,,,,,,,,,,,,,green,diamond
646.0,7.0,2.0,1.0,2.0,2.0,647.4308390006627,4.0,1.0,phase_1,,,,,,,,,,,,,yellow,square
658.0,7.0,2.0,1.0,4.0,4.0,580.0540420004836,4.0,1.0,phase_1,,,,,,,,,,,,,yellow,square
643.0,3.0,2.0,0.0,2.0,2.0,506.67776499903994,4.0,1.0,phase_1,,,,,,,,,,,,,gray,flipped triangle
0.0,1.0,0.0,0.0,2.0,2.0,444.686630000433,4.0,1.0,phase_1,,,,,,,,,,,,,white,hexagon
0.0,4.0,0.0,0.0,1.0,1.0,528.3359040004143,4.0,1.0,phase_1,,,,,,,,,,,,,cyan,triangle
155.0,5.0,0.5,1.0,3.0,3.0,518.5004340000887,4.0,1.0,phase_1,,,,,,,,,,,,,orange,circle
1320.0,8.0,4.0,1.0,3.0,3.0,489.660825998726,4.0,1.0,phase_1,,,,,,,,,,,,,green,diamond
0.0,8.0,0.0,1.0,1.0,1.0,526.1931489985727,4.0,1.0,phase_1,,,,,,,,,,,,,green,diamond
666.0,3.0,2.0,0.0,2.0,2.0,644.7288970011869,4.0,1.0,phase_1,,,,,,,,,,,,,gray,flipped triangle
308.0,6.0,1.0,1.0,1.0,1.0,571.9441969995387,4.0,1.0,phase_1,,,,,,,,,,,,,magenta,I
0.0,7.0,2.0,1.0,6.0,6.0,777.252617999693,1.0,1.0,phase_2,stop,250.0,250.0,3.0,,,,,,,,,yellow,square
0.0,7.0,2.0,1.0,6.0,6.0,839.6589909989416,1.0,1.0,phase_2,go,250.0,200.0,1.0,,,,,,,,,yellow,square
0.0,4.0,4.0,0.0,6.0,6.0,1154.5495690006646,1.0,1.0,phase_2,go,250.0,200.0,1.0,,,,,,,,,cyan,triangle
0.0,4.0,4.0,0.0,5.0,5.0,1054.0187820006397,1.0,1.0,phase_2,go,250.0,200.0,1.0,,,,,,,,,cyan,triangle
0.0,8.0,4.0,1.0,5.0,0.0,0.0,1.0,1.0,phase_2,stop,250.0,200.0,4.0,,,,,,,,,green,diamond
0.0,8.0,4.0,1.0,5.0,0.0,0.0,1.0,1.0,phase_2,stop,300.0,200.0,4.0,,,,,,,,,green,diamond
0.0,4.0,4.0,0.0,6.0,6.0,1006.1986920009076,1.0,1.0,phase_2,go,350.0,200.0,1.0,,,,,,,,,cyan,triangle
0.0,7.0,2.0,1.0,5.0,0.0,0.0,1.0,1.0,phase_2,stop,350.0,200.0,4.0,,,,,,,,,yellow,square
0.0,1.0,0.5,0.0,5.0,5.0,1096.678871999757,1.0,1.0,phase_2,go,400.0,200.0,1.0,,,,,,,,,white,hexagon
0.0,1.0,0.5,0.0,5.0,5.0,1197.2564839998086,1.0,1.0,phase_2,go,400.0,200.0,1.0,,,,,,,,,white,hexagon
0.0,3.0,2.0,0.0,5.0,5.0,1417.2654970006988,1.0,1.0,phase_2,go,400.0,200.0,1.0,,,,,,,,,gray,flipped triangle
0.0,1.0,0.5,0.0,6.0,6.0,1258.989781001219,1.0,1.0,phase_2,go,400.0,200.0,1.0,,,,,,,,,white,hexagon
0.0,1.0,0.5,0.0,6.0,6.0,1283.1434509989776,1.0,1.0,phase_2,go,400.0,200.0,1.0,,,,,,,,,white,hexagon
0.0,5.0,0.5,1.0,5.0,5.0,1065.432798999609,1.0,1.0,phase_2,go,400.0,200.0,1.0,,,,,,,,,orange,circle
0.0,7.0,2.0,1.0,6.0,6.0,1181.3416249988222,1.0,1.0,phase_2,go,400.0,200.0,1.0,,,,,,,,,yellow,square
0.0,2.0,1.0,0.0,5.0,5.0,1088.382535999699,1.0,1.0,phase_2,go,400.0,200.0,1.0,,,,,,,,,blue,cross
0.0,7.0,2.0,1.0,5.0,0.0,0.0,1.0,1.0,phase_2,stop,400.0,200.0,4.0,,,,,,,,,yellow,square
0.0,7.0,2.0,1.0,5.0,0.0,0.0,1.0,1.0,phase_2,stop,450.0,200.0,4.0,,,,,,,,,yellow,square
0.0,2.0,1.0,0.0,5.0,5.0,923.3213899988186,1.0,1.0,phase_2,go,500.0,200.0,1.0,,,,,,,,,blue,cross
0.0,3.0,2.0,0.0,5.0,5.0,1275.51059399957,1.0,1.0,phase_2,go,500.0,200.0,1.0,,,,,,,,,gray,flipped triangle
0.0,4.0,4.0,0.0,5.0,5.0,1239.524435999556,1.0,1.0,phase_2,go,500.0,200.0,1.0,,,,,,,,,cyan,triangle
0.0,3.0,2.0,0.0,5.0,5.0,1341.8502599997737,1.0,1.0,phase_2,go,500.0,200.0,1.0,,,,,,,,,gray,flipped triangle
0.0,5.0,0.5,1.0,5.0,0.0,0.0,1.0,1.0,phase_2,stop,500.0,200.0,4.0,,,,,,,,,orange,circle
0.0,5.0,0.5,1.0,6.0,0.0,0.0,1.0,1.0,phase_2,stop,550.0,200.0,4.0,,,,,,,,,orange,circle
0.0,2.0,1.0,0.0,5.0,5.0,790.4224630001409,1.0,1.0,phase_2,go,550.0,250.0,1.0,,,,,,,,,blue,cross
0.0,3.0,2.0,0.0,5.0,5.0,985.2864169988608,1.0,1.0,phase_2,go,550.0,250.0,1.0,,,,,,,,,gray,flipped triangle
0.0,6.0,1.0,1.0,5.0,0.0,0.0,1.0,1.0,phase_2,stop,550.0,250.0,4.0,,,,,,,,,magenta,I
0.0,8.0,4.0,1.0,6.0,0.0,0.0,1.0,1.0,phase_2,stop,600.0,250.0,4.0,,,,,,,,,green,diamond
0.0,2.0,1.0,0.0,6.0,6.0,1087.40263800064,1.0,1.0,phase_2,go,600.0,300.0,1.0,,,,,,,,,blue,cross
0.0,4.0,4.0,0.0,6.0,6.0,1219.957481000165,1.0,1.0,phase_2,go,600.0,300.0,1.0,,,,,,,,,cyan,triangle
0.0,4.0,4.0,0.0,5.0,5.0,1145.4785170008108,1.0,1.0,phase_2,go,600.0,300.0,1.0,,,,,,,,,cyan,triangle
0.0,3.0,2.0,0.0,5.0,5.0,949.188504999256,1.0,1.0,phase_2,go,600.0,300.0,1.0,,,,,,,,,gray,flipped triangle
0.0,8.0,4.0,1.0,5.0,0.0,0.0,1.0,1.0,phase_2,stop,600.0,300.0,4.0,,,,,,,,,green,diamond
0.0,2.0,1.0,0.0,6.0,6.0,1146.086534999995,1.0,1.0,phase_2,go,650.0,300.0,1.0,,,,,,,,,blue,cross
0.0,2.0,1.0,0.0,6.0,6.0,1330.3892599997198,1.0,1.0,phase_2,go,650.0,300.0,1.0,,,,,,,,,blue,cross
0.0,4.0,4.0,0.0,5.0,5.0,1217.8571980002744,1.0,1.0,phase_2,go,650.0,300.0,1.0,,,,,,,,,cyan,triangle
0.0,6.0,1.0,1.0,6.0,6.0,508.38681800087215,2.0,1.0,phase_2,stop,650.0,300.0,3.0,,,,,,,,,magenta,I
0.0,6.0,1.0,1.0,5.0,0.0,0.0,2.0,1.0,phase_2,stop,650.0,250.0,4.0,,,,,,,,,magenta,I
0.0,2.0,1.0,0.0,5.0,5.0,1117.4778399999925,2.0,1.0,phase_2,go,700.0,250.0,1.0,,,,,,,,,blue,cross
0.0,7.0,2.0,1.0,5.0,5.0,1162.7277870011312,2.0,1.0,phase_2,go,700.0,250.0,1.0,,,,,,,,,yellow,square
0.0,7.0,2.0,1.0,5.0,0.0,0.0,2.0,1.0,phase_2,stop,700.0,250.0,4.0,,,,,,,,,yellow,square
0.0,5.0,0.5,1.0,6.0,0.0,0.0,2.0,1.0,phase_2,stop,750.0,250.0,4.0,,,,,,,,,orange,circle
0.0,1.0,0.5,0.0,5.0,5.0,995.6321440004104,2.0,1.0,phase_2,go,750.0,300.0,1.0,,,,,,,,,white,hexagon
0.0,8.0,4.0,1.0,5.0,5.0,1180.6270180004503,2.0,1.0,phase_2,go,750.0,300.0,1.0,,,,,,,,,green,diamond
0.0,4.0,4.0,0.0,6.0,6.0,1293.3941949995642,2.0,1.0,phase_2,go,750.0,300.0,1.0,,,,,,,,,cyan,triangle
0.0,5.0,0.5,1.0,5.0,0.0,0.0,2.0,1.0,phase_2,stop,750.0,300.0,4.0,,,,,,,,,orange,circle
0.0,5.0,0.5,1.0,6.0,6.0,961.797015999764,2.0,1.0,phase_2,go,800.0,300.0,1.0,,,,,,,,,orange,circle
0.0,5.0,0.5,1.0,5.0,0.0,0.0,2.0,1.0,phase_2,stop,800.0,300.0,4.0,,,,,,,,,orange,circle
0.0,2.0,1.0,0.0,5.0,5.0,1068.1666809996386,2.0,1.0,phase_2,go,850.0,300.0,1.0,,,,,,,,,blue,cross
0.0,3.0,2.0,0.0,5.0,5.0,1041.0352529997908,2.0,1.0,phase_2,go,850.0,300.0,1.0,,,,,,,,,gray,flipped triangle
0.0,3.0,2.0,0.0,6.0,6.0,1061.7772830009926,2.0,1.0,phase_2,go,850.0,300.0,1.0,,,,,,,,,gray,flipped triangle
0.0,5.0,0.5,1.0,5.0,5.0,1135.5658579996089,2.0,1.0,phase_2,go,850.0,300.0,1.0,,,,,,,,,orange,circle
0.0,1.0,0.5,0.0,6.0,6.0,1206.4000650007074,2.0,1.0,phase_2,go,850.0,300.0,1.0,,,,,,,,,white,hexagon
0.0,1.0,0.5,0.0,6.0,6.0,1214.6022799988714,2.0,1.0,phase_2,go,850.0,300.0,1.0,,,,,,,,,white,hexagon
0.0,5.0,0.5,1.0,6.0,6.0,1192.1848600013618,2.0,1.0,phase_2,go,850.0,300.0,1.0,,,,,,,,,orange,circle
0.0,8.0,4.0,1.0,5.0,5.0,956.2148040004104,2.0,1.0,phase_2,stop,850.0,300.0,3.0,,,,,,,,,green,diamond
0.0,8.0,4.0,1.0,6.0,0.0,0.0,2.0,1.0,phase_2,stop,800.0,300.0,4.0,,,,,,,,,green,diamond
0.0,8.0,4.0,1.0,5.0,5.0,986.050282001088,2.0,1.0,phase_2,stop,800.0,350.0,3.0,,,,,,,,,green,diamond
0.0,2.0,1.0,0.0,6.0,6.0,1096.3498819983215,2.0,1.0,phase_2,go,750.0,350.0,1.0,,,,,,,,,blue,cross
0.0,2.0,1.0,0.0,5.0,0.0,0.0,2.0,1.0,phase_2,go,750.0,350.0,5.0,,,,,,,,,blue,cross
0.0,2.0,1.0,0.0,5.0,5.0,1116.1505769996438,2.0,1.0,phase_2,go,750.0,350.0,1.0,,,,,,,,,blue,cross
0.0,6.0,1.0,1.0,6.0,0.0,0.0,2.0,1.0,phase_2,stop,750.0,350.0,4.0,,,,,,,,,magenta,I
0.0,7.0,2.0,1.0,5.0,5.0,930.7687460004672,2.0,1.0,phase_2,go,750.0,400.0,1.0,,,,,,,,,yellow,square
0.0,3.0,2.0,0.0,5.0,5.0,1141.7292670012102,2.0,1.0,phase_2,go,750.0,400.0,1.0,,,,,,,,,gray,flipped triangle
0.0,2.0,1.0,0.0,6.0,6.0,1162.686848998419,2.0,1.0,phase_2,go,750.0,400.0,1.0,,,,,,,,,blue,cross
0.0,3.0,2.0,0.0,6.0,6.0,1105.4988710002362,2.0,1.0,phase_2,go,750.0,400.0,1.0,,,,,,,,,gray,flipped triangle
0.0,8.0,4.0,1.0,5.0,0.0,0.0,2.0,1.0,phase_2,stop,750.0,400.0,4.0,,,,,,,,,green,diamond
0.0,4.0,4.0,0.0,5.0,5.0,1456.8270159998065,2.0,1.0,phase_2,go,800.0,400.0,1.0,,,,,,,,,cyan,triangle
0.0,4.0,4.0,0.0,5.0,5.0,1123.7481009993644,2.0,1.0,phase_2,go,800.0,400.0,1.0,,,,,,,,,cyan,triangle
0.0,6.0,1.0,1.0,5.0,0.0,0.0,2.0,1.0,phase_2,stop,800.0,400.0,4.0,,,,,,,,,magenta,I
0.0,7.0,2.0,1.0,6.0,0.0,0.0,2.0,1.0,phase_2,stop,850.0,400.0,4.0,,,,,,,,,yellow,square
0.0,7.0,2.0,1.0,5.0,0.0,0.0,2.0,1.0,phase_2,stop,850.0,450.0,4.0,,,,,,,,,yellow,square
0.0,2.0,1.0,0.0,5.0,5.0,1217.583364001257,3.0,1.0,phase_2,go,900.0,450.0,1.0,,,,,,,,,blue,cross
0.0,8.0,4.0,1.0,5.0,0.0,0.0,3.0,1.0,phase_2,stop,900.0,450.0,4.0,,,,,,,,,green,diamond
0.0,2.0,1.0,0.0,6.0,6.0,1049.8103049994825,3.0,1.0,phase_2,go,950.0,450.0,1.0,,,,,,,,,blue,cross
0.0,8.0,4.0,1.0,5.0,5.0,1457.7269319997868,3.0,1.0,phase_2,go,950.0,450.0,1.0,,,,,,,,,green,diamond
0.0,8.0,4.0,1.0,6.0,6.0,1273.3399890003056,3.0,1.0,phase_2,go,950.0,450.0,1.0,,,,,,,,,green,diamond
0.0,8.0,4.0,1.0,5.0,0.0,0.0,3.0,1.0,phase_2,stop,950.0,450.0,4.0,,,,,,,,,green,diamond
0.0,6.0,1.0,1.0,5.0,5.0,1169.1491740002675,3.0,1.0,phase_2,stop,1000.0,450.0,3.0,,,,,,,,,magenta,I
0.0,6.0,1.0,1.0,6.0,0.0,0.0,3.0,1.0,phase_2,stop,950.0,450.0,4.0,,,,,,,,,magenta,I
0.0,6.0,1.0,1.0,5.0,5.0,1144.308787999762,3.0,1.0,phase_2,go,950.0,500.0,1.0,,,,,,,,,magenta,I
0.0,8.0,4.0,1.0,6.0,0.0,0.0,3.0,1.0,phase_2,stop,950.0,500.0,4.0,,,,,,,,,green,diamond
0.0,2.0,1.0,0.0,5.0,5.0,1039.0896549997706,3.0,1.0,phase_2,go,950.0,550.0,1.0,,,,,,,,,blue,cross
0.0,3.0,2.0,0.0,6.0,6.0,1080.7643790012662,3.0,1.0,phase_2,go,950.0,550.0,1.0,,,,,,,,,gray,flipped triangle
0.0,8.0,4.0,1.0,6.0,0.0,0.0,3.0,1.0,phase_2,stop,950.0,550.0,4.0,,,,,,,,,green,diamond
0.0,8.0,4.0,1.0,6.0,0.0,0.0,3.0,1.0,phase_2,stop,950.0,600.0,4.0,,,,,,,,,green,diamond
0.0,2.0,1.0,0.0,5.0,5.0,1079.8061830009829,3.0,1.0,phase_2,go,950.0,650.0,1.0,,,,,,,,,blue,cross
0.0,1.0,0.5,0.0,5.0,5.0,1354.292512000029,3.0,1.0,phase_2,go,950.0,650.0,1.0,,,,,,,,,white,hexagon
0.0,7.0,2.0,1.0,5.0,0.0,0.0,3.0,1.0,phase_2,stop,950.0,650.0,4.0,,,,,,,,,yellow,square
0.0,7.0,2.0,1.0,6.0,0.0,0.0,3.0,1.0,phase_2,stop,1000.0,650.0,4.0,,,,,,,,,yellow,square
0.0,3.0,2.0,0.0,5.0,5.0,1080.2731459989443,3.0,1.0,phase_2,go,1000.0,700.0,1.0,,,,,,,,,gray,flipped triangle
0.0,8.0,4.0,1.0,5.0,0.0,0.0,3.0,1.0,phase_2,stop,1000.0,700.0,4.0,,,,,,,,,green,diamond
0.0,3.0,2.0,0.0,5.0,5.0,1034.8273710005742,3.0,1.0,phase_2,go,1050.0,700.0,1.0,,,,,,,,,gray,flipped triangle
0.0,7.0,2.0,1.0,5.0,5.0,1217.5096709997888,3.0,1.0,phase_2,stop,1050.0,700.0,3.0,,,,,,,,,yellow,square
0.0,6.0,1.0,1.0,5.0,5.0,1275.2094930001476,3.0,1.0,phase_2,go,1000.0,700.0,1.0,,,,,,,,,magenta,I
0.0,7.0,2.0,1.0,6.0,0.0,0.0,3.0,1.0,phase_2,stop,1000.0,700.0,4.0,,,,,,,,,yellow,square
0.0,8.0,4.0,1.0,5.0,0.0,0.0,3.0,1.0,phase_2,stop,1000.0,750.0,4.0,,,,,,,,,green,diamond
0.0,3.0,2.0,0.0,6.0,6.0,1347.575064000921,3.0,1.0,phase_2,go,1050.0,750.0,1.0,,,,,,,,,gray,flipped triangle
0.0,8.0,4.0,1.0,6.0,0.0,0.0,3.0,1.0,phase_2,stop,1050.0,750.0,4.0,,,,,,,,,green,diamond
0.0,4.0,4.0,0.0,5.0,5.0,1205.6484509994334,3.0,1.0,phase_2,go,1050.0,800.0,1.0,,,,,,,,,cyan,triangle
0.0,6.0,1.0,1.0,5.0,0.0,0.0,3.0,1.0,phase_2,stop,1050.0,800.0,4.0,,,,,,,,,magenta,I
0.0,1.0,0.5,0.0,6.0,6.0,1292.122131000724,3.0,1.0,phase_2,go,1100.0,800.0,1.0,,,,,,,,,white,hexagon
0.0,8.0,4.0,1.0,6.0,0.0,0.0,3.0,1.0,phase_2,stop,1100.0,800.0,4.0,,,,,,,,,green,diamond
0.0,5.0,0.5,1.0,5.0,0.0,0.0,3.0,1.0,phase_2,go,1100.0,850.0,5.0,,,,,,,,,orange,circle
0.0,2.0,1.0,0.0,5.0,5.0,1496.516261000579,3.0,1.0,phase_2,go,1100.0,850.0,1.0,,,,,,,,,blue,cross
0.0,2.0,1.0,0.0,6.0,6.0,1096.7217460001848,3.0,1.0,phase_2,go,1100.0,850.0,1.0,,,,,,,,,blue,cross
0.0,3.0,2.0,0.0,5.0,5.0,1180.9239480007818,3.0,1.0,phase_2,go,1100.0,850.0,1.0,,,,,,,,,gray,flipped triangle
0.0,3.0,2.0,0.0,5.0,5.0,633.0557340006635,3.0,1.0,phase_2,go,1100.0,850.0,1.0,,,,,,,,,gray,flipped triangle
0.0,5.0,0.5,1.0,5.0,5.0,409.0772469990043,4.0,1.0,phase_2,stop,1100.0,850.0,3.0,,,,,,,,,orange,circle
0.0,2.0,1.0,0.0,6.0,6.0,1077.9230179996375,4.0,1.0,phase_2,go,1050.0,850.0,1.0,,,,,,,,,blue,cross
0.0,4.0,4.0,0.0,5.0,5.0,586.9492199999513,4.0,1.0,phase_2,go,1050.0,850.0,1.0,,,,,,,,,cyan,triangle
0.0,7.0,2.0,1.0,6.0,0.0,0.0,4.0,1.0,phase_2,stop,1050.0,850.0,4.0,,,,,,,,,yellow,square
0.0,5.0,0.5,1.0,6.0,6.0,1105.7497729998431,4.0,1.0,phase_2,stop,1050.0,900.0,3.0,,,,,,,,,orange,circle
0.0,1.0,0.5,0.0,5.0,5.0,899.0162909994979,4.0,1.0,phase_2,go,1050.0,850.0,1.0,,,,,,,,,white,hexagon
0.0,7.0,2.0,1.0,5.0,5.0,1087.3598010002752,4.0,1.0,phase_2,stop,1050.0,850.0,3.0,,,,,,,,,yellow,square
0.0,8.0,4.0,1.0,6.0,6.0,1328.6019410006702,4.0,1.0,phase_2,go,1000.0,850.0,1.0,,,,,,,,,green,diamond
0.0,3.0,2.0,0.0,6.0,6.0,1184.3284310016315,4.0,1.0,phase_2,go,1000.0,850.0,1.0,,,,,,,,,gray,flipped triangle
0.0,4.0,4.0,0.0,6.0,6.0,1272.0181290005712,4.0,1.0,phase_2,go,1000.0,850.0,1.0,,,,,,,,,cyan,triangle
0.0,5.0,0.5,1.0,5.0,0.0,0.0,4.0,1.0,phase_2,go,1000.0,850.0,5.0,,,,,,,,,orange,circle
0.0,2.0,1.0,0.0,5.0,5.0,1058.8858270002677,4.0,1.0,phase_2,go,1000.0,850.0,1.0,,,,,,,,,blue,cross
0.0,7.0,2.0,1.0,6.0,0.0,0.0,4.0,1.0,phase_2,stop,1000.0,850.0,4.0,,,,,,,,,yellow,square
0.0,5.0,0.5,1.0,6.0,0.0,0.0,4.0,1.0,phase_2,stop,1000.0,900.0,4.0,,,,,,,,,orange,circle
0.0,7.0,2.0,1.0,6.0,0.0,0.0,4.0,1.0,phase_2,stop,1000.0,950.0,4.0,,,,,,,,,yellow,square
0.0,4.0,4.0,0.0,6.0,6.0,1160.889015998691,4.0,1.0,phase_2,go,1000.0,1000.0,1.0,,,,,,,,,cyan,triangle
0.0,7.0,2.0,1.0,6.0,0.0,0.0,4.0,1.0,phase_2,stop,1000.0,1000.0,4.0,,,,,,,,,yellow,square
0.0,1.0,0.5,0.0,5.0,5.0,1373.9131870006531,4.0,1.0,phase_2,go,1000.0,1050.0,1.0,,,,,,,,,white,hexagon
0.0,1.0,0.5,0.0,5.0,5.0,1078.3521100001965,4.0,1.0,phase_2,go,1000.0,1050.0,1.0,,,,,,,,,white,hexagon
0.0,2.0,1.0,0.0,5.0,5.0,1133.211525000661,4.0,1.0,phase_2,go,1000.0,1050.0,1.0,,,,,,,,,blue,cross
0.0,1.0,0.5,0.0,6.0,6.0,1012.0261129995924,4.0,1.0,phase_2,go,1000.0,1050.0,1.0,,,,,,,,,white,hexagon
0.0,5.0,0.5,1.0,6.0,6.0,964.9148009993952,4.0,1.0,phase_2,go,1000.0,1050.0,1.0,,,,,,,,,orange,circle
0.0,5.0,0.5,1.0,6.0,6.0,965.3658540009928,4.0,1.0,phase_2,stop,1000.0,1050.0,3.0,,,,,,,,,orange,circle
0.0,8.0,4.0,1.0,5.0,5.0,826.9428900002822,4.0,1.0,phase_2,go,1000.0,1000.0,1.0,,,,,,,,,green,diamond
0.0,1.0,0.5,0.0,6.0,6.0,946.8156069997348,4.0,1.0,phase_2,go,1000.0,1000.0,1.0,,,,,,,,,white,hexagon
0.0,7.0,2.0,1.0,6.0,6.0,529.8331149988371,4.0,1.0,phase_2,stop,1000.0,1000.0,3.0,,,,,,,,,yellow,square
0.0,4.0,4.0,0.0,6.0,6.0,976.2617760006832,4.0,1.0,phase_2,go,1000.0,950.0,1.0,,,,,,,,,cyan,triangle
0.0,3.0,2.0,0.0,5.0,5.0,882.3331429994141,4.0,1.0,phase_2,go,1000.0,950.0,1.0,,,,,,,,,gray,flipped triangle
0.0,3.0,2.0,0.0,6.0,6.0,1374.7224580001784,4.0,1.0,phase_2,go,1000.0,950.0,1.0,,,,,,,,,gray,flipped triangle
0.0,3.0,2.0,0.0,5.0,5.0,1457.3677000007592,4.0,1.0,phase_2,go,1000.0,950.0,1.0,,,,,,,,,gray,flipped triangle
0.0,5.0,0.5,1.0,6.0,6.0,845.2463609992265,4.0,1.0,phase_2,stop,1000.0,950.0,3.0,,,,,,,,,orange,circle
0.0,3.0,2.0,0.0,5.0,5.0,1069.1989449987886,4.0,1.0,phase_2,go,1000.0,900.0,1.0,,,,,,,,,gray,flipped triangle
0.0,3.0,2.0,0.0,6.0,6.0,844.7049639999022,4.0,1.0,phase_2,go,1000.0,900.0,1.0,,,,,,,,,gray,flipped triangle
0.0,8.0,4.0,1.0,5.0,5.0,973.6695699994016,4.0,1.0,phase_2,stop,1000.0,900.0,3.0,,,,,,,,,green,diamond
0.0,6.0,1.0,1.0,5.0,0.0,0.0,4.0,1.0,phase_2,stop,950.0,900.0,4.0,,,,,,,,,magenta,I
0.0,1.0,0.5,0.0,5.0,5.0,1124.2610400004196,4.0,1.0,phase_2,go,1000.0,900.0,1.0,,,,,,,,,white,hexagon
0.0,8.0,4.0,1.0,6.0,0.0,0.0,5.0,1.0,phase_2,stop,1000.0,900.0,4.0,,,,,,,,,green,diamond
0.0,8.0,4.0,1.0,6.0,6.0,985.033681999994,5.0,1.0,phase_2,stop,1000.0,950.0,3.0,,,,,,,,,green,diamond
0.0,5.0,0.5,1.0,5.0,5.0,919.7138360013925,5.0,1.0,phase_2,go,1000.0,900.0,1.0,,,,,,,,,orange,circle
0.0,5.0,0.5,1.0,5.0,0.0,0.0,5.0,1.0,phase_2,stop,1000.0,900.0,4.0,,,,,,,,,orange,circle
0.0,7.0,2.0,1.0,5.0,5.0,1468.5958139998547,5.0,1.0,phase_2,go,1050.0,900.0,1.0,,,,,,,,,yellow,square
0.0,3.0,2.0,0.0,6.0,6.0,1061.078937000275,5.0,1.0,phase_2,go,1050.0,900.0,1.0,,,,,,,,,gray,flipped triangle
0.0,5.0,0.5,1.0,6.0,0.0,0.0,5.0,1.0,phase_2,stop,1050.0,900.0,4.0,,,,,,,,,orange,circle
0.0,3.0,2.0,0.0,6.0,6.0,1170.703866000622,5.0,1.0,phase_2,go,1050.0,950.0,1.0,,,,,,,,,gray,flipped triangle
0.0,4.0,4.0,0.0,6.0,6.0,1135.6016380013898,5.0,1.0,phase_2,go,1050.0,950.0,1.0,,,,,,,,,cyan,triangle
0.0,2.0,1.0,0.0,5.0,5.0,1097.7526570004557,5.0,1.0,phase_2,go,1050.0,950.0,1.0,,,,,,,,,blue,cross
0.0,4.0,4.0,0.0,5.0,5.0,1321.0931659996277,5.0,1.0,phase_2,go,1050.0,950.0,1.0,,,,,,,,,cyan,triangle
0.0,4.0,4.0,0.0,5.0,0.0,0.0,5.0,1.0,phase_2,go,1050.0,950.0,5.0,,,,,,,,,cyan,triangle
0.0,5.0,0.5,1.0,5.0,5.0,1094.3752900002437,5.0,1.0,phase_2,stop,1050.0,950.0,3.0,,,,,,,,,orange,circle
0.0,1.0,0.5,0.0,5.0,5.0,828.1385159989441,5.0,1.0,phase_2,go,1000.0,950.0,1.0,,,,,,,,,white,hexagon
0.0,4.0,4.0,0.0,5.0,5.0,761.3656320008886,5.0,1.0,phase_2,go,1000.0,950.0,1.0,,,,,,,,,cyan,triangle
0.0,1.0,0.5,0.0,6.0,6.0,567.3543159991823,5.0,1.0,phase_2,go,1000.0,950.0,1.0,,,,,,,,,white,hexagon
0.0,6.0,1.0,1.0,6.0,6.0,679.0580300003057,5.0,1.0,phase_2,stop,1000.0,950.0,3.0,,,,,,,,,magenta,I
0.0,1.0,0.5,0.0,6.0,6.0,1357.962737998605,5.0,1.0,phase_2,go,1000.0,900.0,1.0,,,,,,,,,white,hexagon
0.0,7.0,2.0,1.0,6.0,0.0,0.0,5.0,1.0,phase_2,stop,1000.0,900.0,4.0,,,,,,,,,yellow,square
0.0,4.0,4.0,0.0,5.0,5.0,910.8956630007016,5.0,1.0,phase_2,go,1000.0,950.0,1.0,,,,,,,,,cyan,triangle
0.0,8.0,4.0,1.0,6.0,6.0,903.7516329990468,5.0,1.0,phase_2,go,1000.0,950.0,1.0,,,,,,,,,green,diamond
0.0,4.0,4.0,0.0,5.0,5.0,1141.7629699990357,5.0,1.0,phase_2,go,1000.0,950.0,1.0,,,,,,,,,cyan,triangle
0.0,8.0,4.0,1.0,5.0,5.0,1126.3277710004331,5.0,1.0,phase_2,stop,1000.0,950.0,3.0,,,,,,,,,green,diamond
0.0,5.0,0.5,1.0,6.0,6.0,818.2855240011122,5.0,1.0,phase_2,go,950.0,950.0,1.0,,,,,,,,,orange,circle
0.0,3.0,2.0,0.0,6.0,6.0,933.3722080009466,5.0,1.0,phase_2,go,950.0,950.0,1.0,,,,,,,,,gray,flipped triangle
0.0,5.0,0.5,1.0,5.0,5.0,802.958997001042,5.0,1.0,phase_2,stop,950.0,950.0,3.0,,,,,,,,,orange,circle
0.0,6.0,1.0,1.0,6.0,6.0,1015.4101759999321,5.0,1.0,phase_2,go,900.0,950.0,1.0,,,,,,,,,magenta,I
0.0,6.0,1.0,1.0,6.0,0.0,0.0,5.0,1.0,phase_2,stop,900.0,950.0,4.0,,,,,,,,,magenta,I
0.0,5.0,0.5,1.0,6.0,6.0,670.1419969995186,5.0,1.0,phase_2,stop,900.0,1000.0,3.0,,,,,,,,,orange,circle
0.0,2.0,1.0,0.0,6.0,6.0,1122.9694029989332,5.0,1.0,phase_2,go,900.0,950.0,1.0,,,,,,,,,blue,cross
0.0,7.0,2.0,1.0,6.0,6.0,1226.4101800010394,5.0,1.0,phase_2,go,900.0,950.0,1.0,,,,,,,,,yellow,square
0.0,3.0,2.0,0.0,6.0,6.0,1040.000469000006,5.0,1.0,phase_2,go,900.0,950.0,1.0,,,,,,,,,gray,flipped triangle
0.0,6.0,1.0,1.0,5.0,5.0,1245.0903780008955,5.0,1.0,phase_2,go,900.0,950.0,1.0,,,,,,,,,magenta,I
0.0,3.0,2.0,0.0,6.0,6.0,1068.7093300002743,5.0,1.0,phase_2,go,900.0,950.0,1.0,,,,,,,,,gray,flipped triangle
0.0,1.0,0.5,0.0,5.0,5.0,1237.1991300005902,5.0,1.0,phase_2,go,900.0,950.0,1.0,,,,,,,,,white,hexagon
0.0,4.0,4.0,0.0,5.0,5.0,1076.0309409997717,5.0,1.0,phase_2,go,900.0,950.0,1.0,,,,,,,,,cyan,triangle
0.0,5.0,0.5,1.0,5.0,0.0,0.0,6.0,1.0,phase_2,stop,900.0,950.0,4.0,,,,,,,,,orange,circle
0.0,6.0,1.0,1.0,6.0,6.0,883.2293790001131,6.0,1.0,phase_2,stop,950.0,950.0,3.0,,,,,,,,,magenta,I
0.0,1.0,0.5,0.0,6.0,6.0,965.816565998466,6.0,1.0,phase_2,go,950.0,900.0,1.0,,,,,,,,,white,hexagon
0.0,5.0,0.5,1.0,6.0,0.0,0.0,6.0,1.0,phase_2,stop,950.0,900.0,4.0,,,,,,,,,orange,circle
0.0,2.0,1.0,0.0,5.0,5.0,1143.3331450007245,6.0,1.0,phase_2,go,950.0,950.0,1.0,,,,,,,,,blue,cross
0.0,6.0,1.0,1.0,6.0,6.0,1133.7808490006864,6.0,1.0,phase_2,go,950.0,950.0,1.0,,,,,,,,,magenta,I
0.0,8.0,4.0,1.0,6.0,6.0,1057.0186329987337,6.0,1.0,phase_2,stop,950.0,950.0,3.0,,,,,,,,,green,diamond
0.0,7.0,2.0,1.0,5.0,0.0,0.0,6.0,1.0,phase_2,stop,950.0,900.0,4.0,,,,,,,,,yellow,square
0.0,4.0,4.0,0.0,6.0,6.0,978.248794999672,6.0,1.0,phase_2,go,1000.0,900.0,1.0,,,,,,,,,cyan,triangle
0.0,5.0,0.5,1.0,6.0,0.0,0.0,6.0,1.0,phase_2,stop,1000.0,900.0,4.0,,,,,,,,,orange,circle
0.0,5.0,0.5,1.0,6.0,0.0,0.0,6.0,1.0,phase_2,stop,1000.0,950.0,4.0,,,,,,,,,orange,circle
0.0,1.0,0.5,0.0,5.0,5.0,1173.7774909997825,6.0,1.0,phase_2,go,1000.0,1000.0,1.0,,,,,,,,,white,hexagon
0.0,7.0,2.0,1.0,6.0,0.0,0.0,6.0,1.0,phase_2,stop,1000.0,1000.0,4.0,,,,,,,,,yellow,square
0.0,3.0,2.0,0.0,6.0,6.0,1133.9328750000277,6.0,1.0,phase_2,go,1000.0,1050.0,1.0,,,,,,,,,gray,flipped triangle
0.0,7.0,2.0,1.0,5.0,0.0,0.0,6.0,1.0,phase_2,stop,1000.0,1050.0,4.0,,,,,,,,,yellow,square
0.0,6.0,1.0,1.0,5.0,0.0,0.0,6.0,1.0,phase_2,stop,1050.0,1050.0,4.0,,,,,,,,,magenta,I
0.0,4.0,4.0,0.0,6.0,6.0,1356.985952001196,6.0,1.0,phase_2,go,1100.0,1050.0,1.0,,,,,,,,,cyan,triangle
0.0,5.0,0.5,1.0,5.0,0.0,0.0,6.0,1.0,phase_2,stop,1100.0,1050.0,4.0,,,,,,,,,orange,circle
0.0,8.0,4.0,1.0,5.0,5.0,1085.653417998401,6.0,1.0,phase_2,stop,1150.0,1050.0,3.0,,,,,,,,,green,diamond
0.0,3.0,2.0,0.0,6.0,6.0,1282.404300000053,6.0,1.0,phase_2,go,1100.0,1050.0,1.0,,,,,,,,,gray,flipped triangle
0.0,2.0,1.0,0.0,5.0,0.0,0.0,6.0,1.0,phase_2,go,1100.0,1050.0,5.0,,,,,,,,,blue,cross
0.0,1.0,0.5,0.0,6.0,0.0,0.0,6.0,1.0,phase_2,go,1100.0,1050.0,5.0,,,,,,,,,white,hexagon
0.0,6.0,1.0,1.0,6.0,6.0,1240.6366850009365,6.0,1.0,phase_2,stop,1100.0,1050.0,3.0,,,,,,,,,magenta,I
0.0,2.0,1.0,0.0,6.0,6.0,854.2439979992196,6.0,1.0,phase_2,go,1100.0,1000.0,1.0,,,,,,,,,blue,cross
0.0,6.0,1.0,1.0,6.0,6.0,1155.6144999995013,6.0,1.0,phase_2,stop,1100.0,1000.0,3.0,,,,,,,,,magenta,I
0.0,5.0,0.5,1.0,5.0,0.0,0.0,6.0,1.0,phase_2,stop,1100.0,950.0,4.0,,,,,,,,,orange,circle
0.0,4.0,4.0,0.0,5.0,5.0,1164.0782310005306,6.0,1.0,phase_2,go,1150.0,950.0,1.0,,,,,,,,,cyan,triangle
0.0,4.0,4.0,0.0,5.0,5.0,1266.3113539983897,6.0,1.0,phase_2,go,1150.0,950.0,1.0,,,,,,,,,cyan,triangle
0.0,5.0,0.5,1.0,5.0,0.0,0.0,6.0,1.0,phase_2,stop,1150.0,950.0,4.0,,,,,,,,,orange,circle
0.0,6.0,1.0,1.0,5.0,0.0,0.0,6.0,1.0,phase_2,stop,1200.0,950.0,4.0,,,,,,,,,magenta,I
0.0,1.0,0.5,0.0,6.0,6.0,1115.8962760000577,6.0,1.0,phase_2,go,1250.0,950.0,1.0,,,,,,,,,white,hexagon
0.0,7.0,2.0,1.0,5.0,5.0,1171.3173460011603,6.0,1.0,phase_2,stop,1250.0,950.0,3.0,,,,,,,,,yellow,square
0.0,3.0,2.0,0.0,5.0,5.0,1115.04326999966,6.0,1.0,phase_2,go,1200.0,950.0,1.0,,,,,,,,,gray,flipped triangle
0.0,1.0,0.5,0.0,5.0,5.0,1328.499829998691,6.0,1.0,phase_2,go,1200.0,950.0,1.0,,,,,,,,,white,hexagon
0.0,5.0,0.5,1.0,6.0,0.0,0.0,6.0,1.0,phase_2,stop,1200.0,950.0,4.0,,,,,,,,,orange,circle
0.0,4.0,4.0,0.0,6.0,6.0,1244.9488259990176,6.0,1.0,phase_2,go,1200.0,1000.0,1.0,,,,,,,,,cyan,triangle
0.0,4.0,4.0,0.0,6.0,6.0,1415.0713290000567,7.0,1.0,phase_2,go,1200.0,1000.0,1.0,,,,,,,,,cyan,triangle
0.0,1.0,0.5,0.0,6.0,0.0,0.0,7.0,1.0,phase_2,go,1200.0,1000.0,5.0,,,,,,,,,white,hexagon
0.0,3.0,2.0,0.0,5.0,5.0,1219.2450239999744,7.0,1.0,phase_2,go,1200.0,1000.0,1.0,,,,,,,,,gray,flipped triangle
0.0,2.0,1.0,0.0,6.0,6.0,902.3557180007627,7.0,1.0,phase_2,go,1200.0,1000.0,1.0,,,,,,,,,blue,cross
0.0,6.0,1.0,1.0,5.0,5.0,1030.687564998516,7.0,1.0,phase_2,stop,1200.0,1000.0,3.0,,,,,,,,,magenta,I
0.0,2.0,1.0,0.0,6.0,6.0,1450.416295998366,7.0,1.0,phase_2,go,1150.0,1000.0,1.0,,,,,,,,,blue,cross
0.0,2.0,1.0,0.0,6.0,6.0,1031.0489510011394,7.0,1.0,phase_2,go,1150.0,1000.0,1.0,,,,,,,,,blue,cross
0.0,4.0,4.0,0.0,5.0,5.0,780.577727000491,7.0,1.0,phase_2,go,1150.0,1000.0,1.0,,,,,,,,,cyan,triangle
0.0,6.0,1.0,1.0,6.0,6.0,907.5991059999068,7.0,1.0,phase_2,stop,1150.0,1000.0,3.0,,,,,,,,,magenta,I
0.0,7.0,2.0,1.0,6.0,6.0,1074.8138889994152,7.0,1.0,phase_2,stop,1150.0,950.0,3.0,,,,,,,,,yellow,square
0.0,6.0,1.0,1.0,5.0,5.0,1014.200745999915,7.0,1.0,phase_2,stop,1150.0,900.0,3.0,,,,,,,,,magenta,I
0.0,8.0,4.0,1.0,6.0,6.0,884.6514360011497,7.0,1.0,phase_2,go,1100.0,900.0,1.0,,,,,,,,,green,diamond
0.0,7.0,2.0,1.0,5.0,5.0,992.4362860001564,7.0,1.0,phase_2,go,1100.0,900.0,1.0,,,,,,,,,yellow,square
0.0,8.0,4.0,1.0,5.0,5.0,1096.5808800010564,7.0,1.0,phase_2,go,1100.0,900.0,1.0,,,,,,,,,green,diamond
0.0,2.0,1.0,0.0,5.0,5.0,1254.2703020008048,7.0,1.0,phase_2,go,1100.0,900.0,1.0,,,,,,,,,blue,cross
0.0,3.0,2.0,0.0,5.0,5.0,1432.1339879988957,7.0,1.0,phase_2,go,1100.0,900.0,1.0,,,,,,,,,gray,flipped triangle
0.0,7.0,2.0,1.0,5.0,0.0,0.0,7.0,1.0,phase_2,stop,1100.0,900.0,4.0,,,,,,,,,yellow,square
0.0,1.0,0.5,0.0,5.0,5.0,1430.3734069999336,7.0,1.0,phase_2,go,1150.0,900.0,1.0,,,,,,,,,white,hexagon
0.0,6.0,1.0,1.0,6.0,0.0,0.0,7.0,1.0,phase_2,stop,1150.0,900.0,4.0,,,,,,,,,magenta,I
0.0,6.0,1.0,1.0,6.0,6.0,1131.9693149998784,7.0,1.0,phase_2,stop,1150.0,950.0,3.0,,,,,,,,,magenta,I
0.0,3.0,2.0,0.0,6.0,6.0,1173.9986909997242,7.0,1.0,phase_2,go,1150.0,900.0,1.0,,,,,,,,,gray,flipped triangle
0.0,8.0,4.0,1.0,5.0,0.0,0.0,7.0,1.0,phase_2,stop,1150.0,900.0,4.0,,,,,,,,,green,diamond
0.0,4.0,4.0,0.0,6.0,6.0,1134.2808890003653,7.0,1.0,phase_2,go,1200.0,900.0,1.0,,,,,,,,,cyan,triangle
0.0,4.0,4.0,0.0,6.0,6.0,1396.191367000938,7.0,1.0,phase_2,go,1200.0,900.0,1.0,,,,,,,,,cyan,triangle
0.0,8.0,4.0,1.0,6.0,0.0,0.0,7.0,1.0,phase_2,go,1200.0,900.0,5.0,,,,,,,,,green,diamond
0.0,1.0,0.5,0.0,6.0,6.0,1430.8490049988905,7.0,1.0,phase_2,go,1200.0,900.0,1.0,,,,,,,,,white,hexagon
0.0,2.0,1.0,0.0,6.0,6.0,1386.0848420008551,7.0,1.0,phase_2,go,1200.0,900.0,1.0,,,,,,,,,blue,cross
0.0,3.0,2.0,0.0,6.0,6.0,1087.288400000034,7.0,1.0,phase_2,go,1200.0,900.0,1.0,,,,,,,,,gray,flipped triangle
0.0,7.0,2.0,1.0,6.0,6.0,1293.7303060007252,7.0,1.0,phase_2,go,1200.0,900.0,1.0,,,,,,,,,yellow,square
0.0,8.0,4.0,1.0,6.0,6.0,1014.3527830005039,7.0,1.0,phase_2,stop,1200.0,900.0,3.0,,,,,,,,,green,diamond
0.0,5.0,0.5,1.0,6.0,0.0,0.0,7.0,1.0,phase_2,stop,1200.0,850.0,4.0,,,,,,,,,orange,circle
0.0,4.0,4.0,0.0,6.0,6.0,800.6623649998801,7.0,1.0,phase_2,go,1200.0,900.0,1.0,,,,,,,,,cyan,triangle
0.0,2.0,1.0,0.0,6.0,6.0,1005.5344439988405,7.0,1.0,phase_2,go,1200.0,900.0,1.0,,,,,,,,,blue,cross
0.0,6.0,1.0,1.0,5.0,5.0,1144.831128000078,7.0,1.0,phase_2,go,1200.0,900.0,1.0,,,,,,,,,magenta,I
0.0,1.0,0.5,0.0,5.0,5.0,579.4229309994989,7.0,1.0,phase_2,go,1200.0,900.0,1.0,,,,,,,,,white,hexagon
0.0,1.0,0.5,0.0,5.0,5.0,994.6118910011136,7.0,1.0,phase_2,go,1200.0,900.0,1.0,,,,,,,,,white,hexagon
0.0,1.0,0.5,0.0,5.0,5.0,615.6486250001763,8.0,1.0,phase_2,go,1200.0,900.0,1.0,,,,,,,,,white,hexagon
0.0,6.0,1.0,1.0,6.0,6.0,1107.1206060005352,8.0,1.0,phase_2,go,1200.0,900.0,1.0,,,,,,,,,magenta,I
0.0,7.0,2.0,1.0,5.0,0.0,0.0,8.0,1.0,phase_2,stop,1200.0,900.0,4.0,,,,,,,,,yellow,square
0.0,2.0,1.0,0.0,5.0,5.0,1257.3804339990602,8.0,1.0,phase_2,go,1250.0,900.0,1.0,,,,,,,,,blue,cross
0.0,5.0,0.5,1.0,5.0,5.0,1428.09300800036,8.0,1.0,phase_2,stop,1250.0,900.0,3.0,,,,,,,,,orange,circle
0.0,3.0,2.0,0.0,5.0,0.0,0.0,8.0,1.0,phase_2,go,1200.0,900.0,5.0,,,,,,,,,gray,flipped triangle
0.0,7.0,2.0,1.0,6.0,0.0,0.0,8.0,1.0,phase_2,stop,1200.0,900.0,4.0,,,,,,,,,yellow,square
0.0,3.0,2.0,0.0,6.0,6.0,1151.5479299996514,8.0,1.0,phase_2,go,1200.0,950.0,1.0,,,,,,,,,gray,flipped triangle
0.0,1.0,0.5,0.0,6.0,6.0,1051.5078860007634,8.0,1.0,phase_2,go,1200.0,950.0,1.0,,,,,,,,,white,hexagon
0.0,2.0,1.0,0.0,6.0,6.0,1083.553110000139,8.0,1.0,phase_2,go,1200.0,950.0,1.0,,,,,,,,,blue,cross
0.0,2.0,1.0,0.0,6.0,6.0,1227.0584409998264,8.0,1.0,phase_2,go,1200.0,950.0,1.0,,,,,,,,,blue,cross
0.0,1.0,0.5,0.0,6.0,6.0,1301.351395999518,8.0,1.0,phase_2,go,1200.0,950.0,1.0,,,,,,,,,white,hexagon
0.0,1.0,0.5,0.0,6.0,6.0,1310.176273000252,8.0,1.0,phase_2,go,1200.0,950.0,1.0,,,,,,,,,white,hexagon
0.0,4.0,4.0,0.0,5.0,5.0,1317.9683159996785,8.0,1.0,phase_2,go,1200.0,950.0,1.0,,,,,,,,,cyan,triangle
0.0,7.0,2.0,1.0,5.0,5.0,1311.4771029995609,8.0,1.0,phase_2,stop,1200.0,950.0,3.0,,,,,,,,,yellow,square
0.0,4.0,4.0,0.0,6.0,6.0,1115.5765370003792,8.0,1.0,phase_2,go,1150.0,950.0,1.0,,,,,,,,,cyan,triangle
0.0,6.0,1.0,1.0,6.0,0.0,0.0,8.0,1.0,phase_2,stop,1150.0,950.0,4.0,,,,,,,,,magenta,I
0.0,6.0,1.0,1.0,6.0,0.0,0.0,8.0,1.0,phase_2,stop,1150.0,1000.0,4.0,,,,,,,,,magenta,I
0.0,1.0,0.5,0.0,5.0,5.0,1458.1943439989118,8.0,1.0,phase_2,go,1150.0,1050.0,1.0,,,,,,,,,white,hexagon
0.0,6.0,1.0,1.0,5.0,0.0,0.0,8.0,1.0,phase_2,stop,1150.0,1050.0,4.0,,,,,,,,,magenta,I
0.0,2.0,1.0,0.0,6.0,6.0,1339.8596480001288,8.0,1.0,phase_2,go,1200.0,1050.0,1.0,,,,,,,,,blue,cross
0.0,4.0,4.0,0.0,6.0,6.0,1431.5829089991894,8.0,1.0,phase_2,go,1200.0,1050.0,1.0,,,,,,,,,cyan,triangle
0.0,8.0,4.0,1.0,6.0,0.0,0.0,8.0,1.0,phase_2,stop,1200.0,1050.0,4.0,,,,,,,,,green,diamond
0.0,3.0,2.0,0.0,6.0,0.0,0.0,8.0,1.0,phase_2,go,1200.0,1100.0,5.0,,,,,,,,,gray,flipped triangle
0.0,6.0,1.0,1.0,6.0,0.0,0.0,8.0,1.0,phase_2,go,1200.0,1100.0,5.0,,,,,,,,,magenta,I
0.0,6.0,1.0,1.0,5.0,5.0,1246.0388090003107,8.0,1.0,phase_2,stop,1200.0,1100.0,3.0,,,,,,,,,magenta,I
0.0,5.0,0.5,1.0,5.0,5.0,948.9663580006892,8.0,1.0,phase_2,stop,1150.0,1100.0,3.0,,,,,,,,,orange,circle
0.0,5.0,0.5,1.0,6.0,6.0,820.1865949995408,8.0,1.0,phase_2,stop,1100.0,1100.0,3.0,,,,,,,,,orange,circle
0.0,4.0,4.0,0.0,6.0,6.0,947.13616899935,8.0,1.0,phase_2,go,1100.0,1050.0,1.0,,,,,,,,,cyan,triangle
0.0,6.0,1.0,1.0,5.0,5.0,819.8432770004729,8.0,1.0,phase_2,stop,1100.0,1050.0,3.0,,,,,,,,,magenta,I
0.0,7.0,2.0,1.0,6.0,6.0,1190.7241660010186,8.0,1.0,phase_2,go,1050.0,1050.0,1.0,,,,,,,,,yellow,square
0.0,1.0,0.5,0.0,5.0,5.0,1097.832538000148,8.0,1.0,phase_2,go,1050.0,1050.0,1.0,,,,,,,,,white,hexagon
0.0,6.0,1.0,1.0,6.0,6.0,948.6028770006668,8.0,1.0,phase_2,go,1050.0,1050.0,1.0,,,,,,,,,magenta,I
0.0,6.0,1.0,1.0,5.0,5.0,983.918421999988,8.0,1.0,phase_2,stop,1050.0,1050.0,3.0,,,,,,,,,magenta,I
0.0,8.0,4.0,1.0,6.0,6.0,930.3085240007932,8.0,1.0,phase_2,stop,1000.0,1050.0,3.0,,,,,,,,,green,diamond
0.0,1.0,0.5,0.0,6.0,6.0,1024.0295929997956,8.0,1.0,phase_2,go,1000.0,1000.0,1.0,,,,,,,,,white,hexagon
0.0,5.0,0.5,1.0,7.0,4.0,3427.002314001584,1.0,1.0,phase_3,,,,,116.0,1.0,232.0,464.0,580.0,116.0,348.0,696.0,orange,circle
0.0,7.0,2.0,1.0,7.0,3.0,4238.772835999043,1.0,1.0,phase_3,,,,,462.0,3.0,616.0,924.0,462.0,770.0,308.0,154.0,yellow,square
0.0,4.0,4.0,0.0,7.0,2.0,1711.5622059991438,1.0,2.0,phase_3,,,,,696.0,6.0,580.0,696.0,232.0,116.0,464.0,348.0,cyan,triangle
0.0,1.0,0.5,0.0,7.0,6.0,3521.566011999312,1.0,1.0,phase_3,,,,,270.0,2.0,540.0,405.0,135.0,810.0,675.0,270.0,white,hexagon
0.0,3.0,2.0,0.0,7.0,1.0,2293.970602999252,1.0,1.0,phase_3,,,,,405.0,3.0,405.0,810.0,135.0,540.0,270.0,675.0,gray,flipped triangle
0.0,8.0,4.0,1.0,7.0,3.0,2669.9129230000835,1.0,1.0,phase_3,,,,,770.0,5.0,308.0,462.0,770.0,616.0,154.0,924.0,green,diamond
0.0,4.0,4.0,0.0,7.0,1.0,2401.1133309995785,1.0,1.0,phase_3,,,,,960.0,5.0,960.0,576.0,192.0,1152.0,384.0,768.0,cyan,triangle
0.0,4.0,4.0,0.0,7.0,4.0,2535.1576289995137,1.0,1.0,phase_3,,,,,1038.0,6.0,865.0,173.0,346.0,1038.0,692.0,519.0,cyan,triangle
0.0,1.0,0.5,0.0,7.0,2.0,1894.867396000336,1.0,1.0,phase_3,,,,,675.0,5.0,135.0,675.0,540.0,810.0,270.0,405.0,white,hexagon
0.0,1.0,0.5,0.0,7.0,1.0,1949.2372599997907,1.0,1.0,phase_3,,,,,519.0,3.0,519.0,173.0,865.0,346.0,692.0,1038.0,white,hexagon
0.0,7.0,2.0,1.0,7.0,5.0,2566.36762099879,1.0,1.0,phase_3,,,,,692.0,4.0,346.0,519.0,1038.0,173.0,692.0,865.0,yellow,square
0.0,4.0,4.0,0.0,7.0,4.0,2209.015153999644,1.0,1.0,phase_3,,,,,1038.0,6.0,346.0,692.0,173.0,1038.0,519.0,865.0,cyan,triangle
0.0,5.0,0.5,1.0,7.0,2.0,1608.832595000422,1.0,1.0,phase_3,,,,,154.0,1.0,616.0,154.0,924.0,462.0,770.0,308.0,orange,circle
0.0,3.0,2.0,0.0,7.0,1.0,3376.0166700012637,1.0,1.0,phase_3,,,,,462.0,3.0,462.0,924.0,154.0,308.0,770.0,616.0,gray,flipped triangle
0.0,3.0,2.0,0.0,7.0,1.0,1955.9137809992533,1.0,1.0,phase_3,,,,,462.0,3.0,462.0,770.0,616.0,154.0,924.0,308.0,gray,flipped triangle
0.0,8.0,4.0,1.0,7.0,5.0,2277.50381900114,1.0,1.0,phase_3,,,,,810.0,6.0,135.0,540.0,270.0,675.0,810.0,405.0,green,diamond
0.0,6.0,1.0,1.0,7.0,2.0,3239.578401999097,1.0,1.0,phase_3,,,,,308.0,2.0,462.0,308.0,924.0,770.0,154.0,616.0,magenta,I
0.0,2.0,1.0,0.0,7.0,2.0,1805.6799769983627,1.0,1.0,phase_3,,,,,464.0,4.0,232.0,464.0,348.0,116.0,696.0,580.0,blue,cross
0.0,2.0,1.0,0.0,7.0,4.0,3088.366243999189,1.0,1.0,phase_3,,,,,346.0,2.0,519.0,173.0,865.0,346.0,692.0,1038.0,blue,cross
0.0,6.0,1.0,1.0,7.0,3.0,1715.6838540013268,1.0,1.0,phase_3,,,,,270.0,2.0,675.0,810.0,270.0,135.0,540.0,405.0,magenta,I
0.0,6.0,1.0,1.0,7.0,4.0,1513.6901250007213,2.0,1.0,phase_3,,,,,464.0,4.0,232.0,116.0,580.0,464.0,348.0,696.0,magenta,I
0.0,2.0,1.0,0.0,7.0,6.0,2211.323073999665,2.0,1.0,phase_3,,,,,616.0,4.0,924.0,154.0,770.0,462.0,308.0,616.0,blue,cross
0.0,5.0,0.5,1.0,7.0,4.0,2473.6847589992976,2.0,1.0,phase_3,,,,,173.0,1.0,865.0,346.0,519.0,173.0,692.0,1038.0,orange,circle
0.0,5.0,0.5,1.0,7.0,2.0,1601.3254059998872,2.0,1.0,phase_3,,,,,270.0,2.0,810.0,270.0,540.0,405.0,675.0,135.0,orange,circle
0.0,2.0,1.0,0.0,7.0,2.0,2287.845032000405,2.0,1.0,phase_3,,,,,384.0,2.0,960.0,384.0,192.0,576.0,768.0,1152.0,blue,cross
0.0,3.0,2.0,0.0,7.0,6.0,3405.421721001403,2.0,1.0,phase_3,,,,,692.0,4.0,519.0,346.0,1038.0,173.0,865.0,692.0,gray,flipped triangle
0.0,3.0,2.0,0.0,7.0,1.0,1929.1410530004212,2.0,1.0,phase_3,,,,,576.0,3.0,576.0,192.0,768.0,960.0,1152.0,384.0,gray,flipped triangle
0.0,1.0,0.5,0.0,7.0,2.0,1402.1451009994053,2.0,1.0,phase_3,,,,,348.0,3.0,464.0,348.0,580.0,232.0,696.0,116.0,white,hexagon
0.0,1.0,0.5,0.0,7.0,2.0,1656.256244999895,2.0,1.0,phase_3,,,,,464.0,4.0,696.0,464.0,580.0,348.0,232.0,116.0,white,hexagon
0.0,5.0,0.5,1.0,7.0,4.0,1711.5554909996715,2.0,1.0,phase_3,,,,,232.0,2.0,696.0,580.0,464.0,232.0,348.0,116.0,orange,circle
0.0,8.0,4.0,1.0,7.0,6.0,1551.692973000172,2.0,1.0,phase_3,,,,,1152.0,6.0,768.0,384.0,192.0,576.0,960.0,1152.0,green,diamond
0.0,4.0,4.0,0.0,7.0,1.0,1930.9729199994763,2.0,1.0,phase_3,,,,,770.0,5.0,770.0,924.0,308.0,154.0,616.0,462.0,cyan,triangle
0.0,8.0,4.0,1.0,7.0,6.0,1945.66440699964,2.0,1.0,phase_3,,,,,810.0,6.0,135.0,270.0,675.0,540.0,405.0,810.0,green,diamond
0.0,5.0,0.5,1.0,7.0,6.0,2275.4861079993134,2.0,1.0,phase_3,,,,,384.0,2.0,576.0,192.0,768.0,960.0,1152.0,384.0,orange,circle
0.0,5.0,0.5,1.0,7.0,5.0,1906.497500000114,2.0,1.0,phase_3,,,,,270.0,2.0,675.0,540.0,135.0,810.0,270.0,405.0,orange,circle
0.0,6.0,1.0,1.0,7.0,6.0,2637.8743889999896,2.0,1.0,phase_3,,,,,384.0,2.0,768.0,192.0,960.0,576.0,1152.0,384.0,magenta,I
0.0,3.0,2.0,0.0,7.0,5.0,1826.7305200006376,2.0,1.0,phase_3,,,,,580.0,5.0,348.0,464.0,696.0,116.0,580.0,232.0,gray,flipped triangle
0.0,1.0,0.5,0.0,7.0,1.0,1797.0083780001005,2.0,1.0,phase_3,,,,,346.0,2.0,346.0,865.0,1038.0,519.0,173.0,692.0,white,hexagon
0.0,2.0,1.0,0.0,7.0,4.0,1366.19667100058,2.0,1.0,phase_3,,,,,116.0,1.0,232.0,696.0,348.0,116.0,580.0,464.0,blue,cross
0.0,7.0,2.0,1.0,7.0,5.0,2333.844933000364,2.0,1.0,phase_3,,,,,462.0,3.0,308.0,924.0,770.0,154.0,462.0,616.0,yellow,square
0.0,2.0,1.0,0.0,7.0,1.0,2060.122307999336,3.0,1.0,phase_3,,,,,384.0,2.0,384.0,1152.0,192.0,768.0,960.0,576.0,blue,cross
0.0,6.0,1.0,1.0,7.0,1.0,1354.0532070001063,3.0,1.0,phase_3,,,,,462.0,3.0,462.0,616.0,770.0,154.0,308.0,924.0,magenta,I
0.0,2.0,1.0,0.0,7.0,2.0,2227.774283999679,3.0,1.0,phase_3,,,,,405.0,3.0,540.0,405.0,810.0,135.0,270.0,675.0,blue,cross
0.0,2.0,1.0,0.0,7.0,4.0,3311.682647001362,3.0,1.0,phase_3,,,,,346.0,2.0,519.0,173.0,1038.0,346.0,692.0,865.0,blue,cross
0.0,7.0,2.0,1.0,7.0,4.0,913.8577100002294,3.0,1.0,phase_3,,,,,405.0,3.0,135.0,540.0,810.0,405.0,270.0,675.0,yellow,square
0.0,8.0,4.0,1.0,7.0,1.0,1811.7877059994496,3.0,1.0,phase_3,,,,,696.0,6.0,696.0,116.0,464.0,580.0,348.0,232.0,green,diamond
0.0,7.0,2.0,1.0,7.0,5.0,2979.105847000028,3.0,1.0,phase_3,,,,,384.0,2.0,576.0,192.0,768.0,1152.0,384.0,960.0,yellow,square
0.0,4.0,4.0,0.0,7.0,1.0,2720.8036560004984,3.0,1.0,phase_3,,,,,770.0,5.0,770.0,154.0,462.0,924.0,308.0,616.0,cyan,triangle
0.0,6.0,1.0,1.0,7.0,4.0,2931.645650000064,3.0,1.0,phase_3,,,,,192.0,1.0,1152.0,384.0,768.0,192.0,576.0,960.0,magenta,I
0.0,4.0,4.0,0.0,7.0,1.0,1566.518551999252,3.0,1.0,phase_3,,,,,810.0,6.0,810.0,675.0,405.0,540.0,135.0,270.0,cyan,triangle
0.0,1.0,0.5,0.0,7.0,2.0,2103.259788000287,3.0,1.0,phase_3,,,,,384.0,2.0,960.0,384.0,768.0,1152.0,192.0,576.0,white,hexagon
0.0,4.0,4.0,0.0,7.0,4.0,3313.9381290002348,3.0,1.0,phase_3,,,,,696.0,6.0,464.0,116.0,580.0,696.0,232.0,348.0,cyan,triangle
0.0,2.0,1.0,0.0,7.0,3.0,2600.8451279994915,3.0,1.0,phase_3,,,,,462.0,3.0,154.0,770.0,462.0,616.0,308.0,924.0,blue,cross
0.0,7.0,2.0,1.0,7.0,6.0,2306.2735840012465,3.0,1.0,phase_3,,,,,384.0,2.0,576.0,192.0,768.0,960.0,1152.0,384.0,yellow,square
0.0,5.0,0.5,1.0,7.0,3.0,1475.6354710007145,3.0,1.0,phase_3,,,,,192.0,1.0,768.0,960.0,192.0,576.0,1152.0,384.0,orange,circle
0.0,8.0,4.0,1.0,7.0,2.0,2663.0583070000284,3.0,1.0,phase_3,,,,,924.0,6.0,770.0,924.0,308.0,154.0,616.0,462.0,green,diamond
0.0,4.0,4.0,0.0,7.0,4.0,1799.1775700011203,3.0,1.0,phase_3,,,,,810.0,6.0,270.0,675.0,540.0,810.0,135.0,405.0,cyan,triangle
0.0,7.0,2.0,1.0,7.0,2.0,858.2540229999722,3.0,1.0,phase_3,,,,,464.0,4.0,696.0,464.0,232.0,580.0,116.0,348.0,yellow,square
0.0,2.0,1.0,0.0,7.0,6.0,2754.4063389996154,3.0,1.0,phase_3,,,,,540.0,4.0,810.0,405.0,135.0,270.0,675.0,540.0,blue,cross
0.0,6.0,1.0,1.0,7.0,4.0,1570.4106760003924,3.0,1.0,phase_3,,,,,270.0,2.0,675.0,540.0,135.0,270.0,810.0,405.0,magenta,I
0.0,6.0,1.0,1.0,7.0,1.0,2379.253842000253,4.0,1.0,phase_3,,,,,346.0,2.0,346.0,692.0,1038.0,865.0,173.0,519.0,magenta,I
0.0,7.0,2.0,1.0,7.0,6.0,2361.6611889992782,4.0,1.0,phase_3,,,,,346.0,2.0,865.0,173.0,519.0,692.0,1038.0,346.0,yellow,square
0.0,3.0,2.0,0.0,7.0,3.0,3468.822328000897,4.0,1.0,phase_3,,,,,519.0,3.0,692.0,1038.0,519.0,865.0,173.0,346.0,gray,flipped triangle
0.0,5.0,0.5,1.0,7.0,2.0,1759.6019730008263,4.0,1.0,phase_3,,,,,154.0,1.0,770.0,154.0,308.0,462.0,924.0,616.0,orange,circle
0.0,1.0,0.5,0.0,7.0,4.0,1996.267563999936,4.0,1.0,phase_3,,,,,462.0,3.0,308.0,924.0,770.0,462.0,616.0,154.0,white,hexagon
0.0,8.0,4.0,1.0,7.0,6.0,2359.168461000081,4.0,1.0,phase_3,,,,,696.0,6.0,116.0,232.0,348.0,580.0,464.0,696.0,green,diamond
0.0,1.0,0.5,0.0,7.0,1.0,1596.9298590007384,4.0,1.0,phase_3,,,,,384.0,2.0,384.0,768.0,960.0,576.0,1152.0,192.0,white,hexagon
0.0,4.0,4.0,0.0,7.0,5.0,2162.048471000162,4.0,1.0,phase_3,,,,,1152.0,6.0,768.0,960.0,576.0,384.0,1152.0,192.0,cyan,triangle
0.0,6.0,1.0,1.0,7.0,2.0,2595.494241000779,4.0,1.0,phase_3,,,,,346.0,2.0,173.0,346.0,692.0,865.0,519.0,1038.0,magenta,I
0.0,3.0,2.0,0.0,7.0,3.0,2242.528424001648,4.0,1.0,phase_3,,,,,576.0,3.0,960.0,192.0,576.0,384.0,768.0,1152.0,gray,flipped triangle
0.0,8.0,4.0,1.0,7.0,6.0,1226.1884330000612,4.0,1.0,phase_3,,,,,1038.0,6.0,692.0,173.0,865.0,346.0,519.0,1038.0,green,diamond
0.0,8.0,4.0,1.0,7.0,3.0,1901.3391570006208,4.0,1.0,phase_3,,,,,1152.0,6.0,192.0,960.0,1152.0,768.0,576.0,384.0,green,diamond
0.0,3.0,2.0,0.0,7.0,4.0,2695.8577589994093,4.0,1.0,phase_3,,,,,405.0,3.0,135.0,270.0,810.0,405.0,675.0,540.0,gray,flipped triangle
0.0,3.0,2.0,0.0,7.0,6.0,1191.7122310005652,4.0,1.0,phase_3,,,,,580.0,5.0,696.0,116.0,232.0,348.0,464.0,580.0,gray,flipped triangle
0.0,6.0,1.0,1.0,7.0,2.0,2014.4281920001958,4.0,1.0,phase_3,,,,,348.0,3.0,464.0,348.0,580.0,116.0,696.0,232.0,magenta,I
0.0,7.0,2.0,1.0,7.0,3.0,1938.938708999558,4.0,1.0,phase_3,,,,,540.0,4.0,675.0,135.0,540.0,270.0,405.0,810.0,yellow,square
0.0,1.0,0.5,0.0,7.0,2.0,1411.8043130001752,4.0,1.0,phase_3,,,,,462.0,3.0,770.0,462.0,154.0,924.0,616.0,308.0,white,hexagon
0.0,5.0,0.5,1.0,7.0,3.0,1163.755564000894,4.0,1.0,phase_3,,,,,173.0,1.0,346.0,1038.0,173.0,692.0,519.0,865.0,orange,circle
0.0,7.0,2.0,1.0,7.0,2.0,2323.051679000855,4.0,1.0,phase_3,,,,,464.0,4.0,580.0,464.0,348.0,696.0,232.0,116.0,yellow,square
0.0,8.0,4.0,1.0,7.0,3.0,895.4989350004325,4.0,1.0,phase_3,,,,,346.0,2.0,865.0,173.0,346.0,1038.0,519.0,692.0,green,diamond
