raw_reward_magnitude,stim_reward,stepwise_reward_magnitude,paired_with_stopping,stim_location,response,reaction_time,block,num_trial_presentations,which_phase,stop_signal_trial_type,left_SSD,right_SSD,accuracy,chosen_bidding_amount,chosen_bidding_level,possible_bid_1,possible_bid_2,possible_bid_3,possible_bid_4,possible_bid_5,possible_bid_6,color_text,shape_text
153.0,1.0,0.5,0.0,1.0,1.0,546.7188390000501,1.0,1.0,phase_1,,,,,,,,,,,,,cyan,I
1302.0,8.0,4.0,1.0,2.0,2.0,500.6890759999578,1.0,1.0,phase_1,,,,,,,,,,,,,white,circle
626.0,7.0,2.0,1.0,3.0,3.0,474.3285450000485,1.0,1.0,phase_1,,,,,,,,,,,,,yellow,triangle
1318.0,8.0,4.0,1.0,3.0,3.0,435.274454000023,1.0,1.0,phase_1,,,,,,,,,,,,,white,circle
0.0,1.0,0.0,0.0,4.0,4.0,507.87231900005736,1.0,1.0,phase_1,,,,,,,,,,,,,cyan,I
1282.0,4.0,4.0,0.0,2.0,2.0,805.5220510000254,1.0,1.0,phase_1,,,,,,,,,,,,,blue,square
321.0,2.0,1.0,0.0,1.0,1.0,443.9369910001005,1.0,1.0,phase_1,,,,,,,,,,,,,magenta,hexagon
1283.0,8.0,4.0,1.0,1.0,1.0,410.4575750000094,1.0,1.0,phase_1,,,,,,,,,,,,,white,circle
645.0,7.0,2.0,1.0,2.0,2.0,444.2017889999761,1.0,1.0,phase_1,,,,,,,,,,,,,yellow,triangle
160.0,5.0,0.5,1.0,1.0,1.0,425.1782050000656,1.0,1.0,phase_1,,,,,,,,,,,,,orange,diamond
0.0,3.0,0.0,0.0,3.0,3.0,565.3076249999458,1.0,1.0,phase_1,,,,,,,,,,,,,gray,cross
644.0,7.0,2.0,1.0,2.0,2.0,489.7900929998968,1.0,1.0,phase_1,,,,,,,,,,,,,yellow,triangle
343.0,6.0,1.0,1.0,3.0,3.0,500.5184999999983,1.0,1.0,phase_1,,,,,,,,,,,,,green,flipped triangle
152.0,5.0,0.5,1.0,1.0,1.0,408.475683000006,1.0,1.0,phase_1,,,,,,,,,,,,,orange,diamond
0.0,6.0,0.0,1.0,3.0,3.0,567.2447630000761,1.0,1.0,phase_1,,,,,,,,,,,,,green,flipped triangle
349.0,2.0,1.0,0.0,3.0,3.0,454.6889880000435,1.0,1.0,phase_1,,,,,,,,,,,,,magenta,hexagon
656.0,3.0,2.0,0.0,1.0,1.0,478.3413419999078,1.0,1.0,phase_1,,,,,,,,,,,,,gray,cross
642.0,3.0,2.0,0.0,3.0,3.0,380.2332730000444,1.0,1.0,phase_1,,,,,,,,,,,,,gray,cross
633.0,7.0,2.0,1.0,3.0,3.0,333.7160859999812,1.0,1.0,phase_1,,,,,,,,,,,,,yellow,triangle
1323.0,4.0,4.0,0.0,2.0,2.0,473.6709359999622,1.0,1.0,phase_1,,,,,,,,,,,,,blue,square
342.0,6.0,1.0,1.0,1.0,1.0,398.1632070000387,1.0,1.0,phase_1,,,,,,,,,,,,,green,flipped triangle
1305.0,4.0,4.0,0.0,4.0,4.0,550.4926840000053,1.0,1.0,phase_1,,,,,,,,,,,,,blue,square
175.0,5.0,0.5,1.0,1.0,1.0,590.3547450000133,1.0,1.0,phase_1,,,,,,,,,,,,,orange,diamond
658.0,3.0,2.0,0.0,3.0,3.0,344.9316679999583,1.0,1.0,phase_1,,,,,,,,,,,,,gray,cross
1305.0,8.0,4.0,1.0,1.0,1.0,429.8007020000796,1.0,1.0,phase_1,,,,,,,,,,,,,white,circle
332.0,6.0,1.0,1.0,3.0,3.0,323.250079000104,1.0,1.0,phase_1,,,,,,,,,,,,,green,flipped triangle
1305.0,4.0,4.0,0.0,1.0,1.0,368.5290890000487,1.0,1.0,phase_1,,,,,,,,,,,,,blue,square
157.0,5.0,0.5,1.0,4.0,4.0,540.4519730000175,1.0,1.0,phase_1,,,,,,,,,,,,,orange,diamond
302.0,6.0,1.0,1.0,2.0,2.0,470.8655939999744,1.0,1.0,phase_1,,,,,,,,,,,,,green,flipped triangle
0.0,2.0,0.0,0.0,3.0,3.0,381.0531550000178,1.0,1.0,phase_1,,,,,,,,,,,,,magenta,hexagon
335.0,2.0,1.0,0.0,4.0,4.0,380.3032580000263,1.0,1.0,phase_1,,,,,,,,,,,,,magenta,hexagon
667.0,3.0,2.0,0.0,2.0,2.0,427.0460899999762,1.0,1.0,phase_1,,,,,,,,,,,,,gray,cross
0.0,7.0,0.0,1.0,2.0,2.0,446.2879119998888,1.0,1.0,phase_1,,,,,,,,,,,,,yellow,triangle
310.0,2.0,1.0,0.0,2.0,2.0,404.2066359999126,1.0,1.0,phase_1,,,,,,,,,,,,,magenta,hexagon
1295.0,8.0,4.0,1.0,1.0,1.0,714.0785180000648,1.0,1.0,phase_1,,,,,,,,,,,,,white,circle
323.0,2.0,1.0,0.0,3.0,3.0,473.8680959999328,1.0,1.0,phase_1,,,,,,,,,,,,,magenta,hexagon
310.0,6.0,1.0,1.0,1.0,1.0,558.6585439999681,1.0,1.0,phase_1,,,,,,,,,,,,,green,flipped triangle
336.0,6.0,1.0,1.0,1.0,1.0,416.3170079999645,1.0,1.0,phase_1,,,,,,,,,,,,,green,flipped triangle
1287.0,8.0,4.0,1.0,3.0,3.0,371.2309940000295,1.0,1.0,phase_1,,,,,,,,,,,,,white,circle
141.0,5.0,0.5,1.0,4.0,4.0,398.4432350000588,1.0,1.0,phase_1,,,,,,,,,,,,,orange,diamond
332.0,2.0,1.0,0.0,2.0,2.0,388.3544829999437,1.0,1.0,phase_1,,,,,,,,,,,,,magenta,hexagon
1302.0,8.0,4.0,1.0,2.0,2.0,435.6001049999349,1.0,1.0,phase_1,,,,,,,,,,,,,white,circle
330.0,2.0,1.0,0.0,1.0,1.0,361.1724380000396,1.0,1.0,phase_1,,,,,,,,,,,,,magenta,hexagon
0.0,5.0,0.0,1.0,3.0,3.0,519.6007009999448,1.0,1.0,phase_1,,,,,,,,,,,,,orange,diamond
657.0,3.0,2.0,0.0,2.0,2.0,344.1990620000297,1.0,1.0,phase_1,,,,,,,,,,,,,gray,cross
652.0,3.0,2.0,0.0,2.0,2.0,390.2142430000594,1.0,1.0,phase_1,,,,,,,,,,,,,gray,cross
1313.0,8.0,4.0,1.0,4.0,4.0,362.0411389999844,1.0,1.0,phase_1,,,,,,,,,,,,,white,circle
0.0,3.0,0.0,0.0,4.0,4.0,361.0130779999281,1.0,1.0,phase_1,,,,,,,,,,,,,gray,cross
635.0,7.0,2.0,1.0,1.0,1.0,417.3398240000097,1.0,1.0,phase_1,,,,,,,,,,,,,yellow,triangle
1311.0,4.0,4.0,0.0,1.0,1.0,425.2293609999924,1.0,1.0,phase_1,,,,,,,,,,,,,blue,square
0.0,8.0,0.0,1.0,1.0,1.0,416.5871589999597,1.0,1.0,phase_1,,,,,,,,,,,,,white,circle
326.0,2.0,1.0,0.0,2.0,2.0,374.5526000000154,1.0,1.0,phase_1,,,,,,,,,,,,,magenta,hexagon
0.0,8.0,0.0,1.0,2.0,2.0,397.1714390000898,1.0,1.0,phase_1,,,,,,,,,,,,,white,circle
140.0,1.0,0.5,0.0,4.0,4.0,435.489840999935,1.0,1.0,phase_1,,,,,,,,,,,,,cyan,I
155.0,5.0,0.5,1.0,2.0,2.0,318.0458939999653,1.0,1.0,phase_1,,,,,,,,,,,,,orange,diamond
175.0,1.0,0.5,0.0,3.0,3.0,360.5973369999447,1.0,1.0,phase_1,,,,,,,,,,,,,cyan,I
671.0,7.0,2.0,1.0,2.0,2.0,444.5419190000166,1.0,1.0,phase_1,,,,,,,,,,,,,yellow,triangle
0.0,6.0,0.0,1.0,1.0,1.0,379.971343999955,1.0,1.0,phase_1,,,,,,,,,,,,,green,flipped triangle
1276.0,4.0,4.0,0.0,3.0,3.0,444.2687599999999,1.0,1.0,phase_1,,,,,,,,,,,,,blue,square
0.0,7.0,0.0,1.0,1.0,1.0,416.3671489999387,1.0,1.0,phase_1,,,,,,,,,,,,,yellow,triangle
319.0,6.0,1.0,1.0,1.0,1.0,379.1404779999539,1.0,1.0,phase_1,,,,,,,,,,,,,green,flipped triangle
1323.0,8.0,4.0,1.0,2.0,2.0,406.8826709999484,1.0,1.0,phase_1,,,,,,,,,,,,,white,circle
663.0,3.0,2.0,0.0,2.0,2.0,481.4567510001097,1.0,1.0,phase_1,,,,,,,,,,,,,gray,cross
1298.0,4.0,4.0,0.0,2.0,2.0,369.6908859999439,1.0,1.0,phase_1,,,,,,,,,,,,,blue,square
633.0,3.0,2.0,0.0,4.0,4.0,508.13975000005485,1.0,1.0,phase_1,,,,,,,,,,,,,gray,cross
152.0,5.0,0.5,1.0,3.0,3.0,481.3813989999289,1.0,1.0,phase_1,,,,,,,,,,,,,orange,diamond
335.0,2.0,1.0,0.0,2.0,2.0,343.525404999923,1.0,1.0,phase_1,,,,,,,,,,,,,magenta,hexagon
0.0,7.0,0.0,1.0,1.0,1.0,388.7635800000453,1.0,1.0,phase_1,,,,,,,,,,,,,yellow,triangle
0.0,5.0,0.0,1.0,4.0,4.0,333.0266960000472,1.0,1.0,phase_1,,,,,,,,,,,,,orange,diamond
669.0,7.0,2.0,1.0,2.0,2.0,379.299264999986,1.0,1.0,phase_1,,,,,,,,,,,,,yellow,triangle
1291.0,4.0,4.0,0.0,2.0,2.0,379.2420730000003,1.0,1.0,phase_1,,,,,,,,,,,,,blue,square
1309.0,4.0,4.0,0.0,1.0,1.0,409.2979370000194,1.0,1.0,phase_1,,,,,,,,,,,,,blue,square
1313.0,4.0,4.0,0.0,3.0,3.0,379.7375839999404,1.0,1.0,phase_1,,,,,,,,,,,,,blue,square
163.0,1.0,0.5,0.0,4.0,4.0,436.9874459999892,1.0,1.0,phase_1,,,,,,,,,,,,,cyan,I
141.0,1.0,0.5,0.0,3.0,3.0,435.833754999976,1.0,1.0,phase_1,,,,,,,,,,,,,cyan,I
307.0,2.0,1.0,0.0,4.0,4.0,408.4680039999284,1.0,1.0,phase_1,,,,,,,,,,,,,magenta,hexagon
334.0,6.0,1.0,1.0,2.0,2.0,388.8383009999643,1.0,1.0,phase_1,,,,,,,,,,,,,green,flipped triangle
152.0,1.0,0.5,0.0,1.0,1.0,379.6606460000475,1.0,1.0,phase_1,,,,,,,,,,,,,cyan,I
1300.0,4.0,4.0,0.0,1.0,1.0,426.9224100000883,1.0,1.0,phase_1,,,,,,,,,,,,,blue,square
178.0,5.0,0.5,1.0,4.0,4.0,508.5583880000968,1.0,1.0,phase_1,,,,,,,,,,,,,orange,diamond
170.0,5.0,0.5,1.0,2.0,2.0,387.9757309999831,1.0,1.0,phase_1,,,,,,,,,,,,,orange,diamond
0.0,6.0,0.0,1.0,3.0,3.0,453.6155579999104,1.0,1.0,phase_1,,,,,,,,,,,,,green,flipped triangle
304.0,2.0,1.0,0.0,1.0,1.0,453.5185970000839,1.0,1.0,phase_1,,,,,,,,,,,,,magenta,hexagon
663.0,3.0,2.0,0.0,1.0,1.0,536.3348120000637,1.0,1.0,phase_1,,,,,,,,,,,,,gray,cross
1324.0,4.0,4.0,0.0,3.0,3.0,527.7477689999159,1.0,1.0,phase_1,,,,,,,,,,,,,blue,square
0.0,3.0,0.0,0.0,3.0,3.0,424.8728939999182,1.0,1.0,phase_1,,,,,,,,,,,,,gray,cross
1284.0,8.0,4.0,1.0,4.0,4.0,424.8207819999834,1.0,1.0,phase_1,,,,,,,,,,,,,white,circle
144.0,5.0,0.5,1.0,3.0,3.0,480.7529109999677,1.0,1.0,phase_1,,,,,,,,,,,,,orange,diamond
0.0,7.0,0.0,1.0,2.0,2.0,444.9511190000521,1.0,1.0,phase_1,,,,,,,,,,,,,yellow,triangle
1283.0,8.0,4.0,1.0,3.0,3.0,415.6569840000657,1.0,1.0,phase_1,,,,,,,,,,,,,white,circle
181.0,1.0,0.5,0.0,4.0,4.0,434.4560639999599,1.0,1.0,phase_1,,,,,,,,,,,,,cyan,I
181.0,5.0,0.5,1.0,1.0,1.0,452.7562560000433,1.0,1.0,phase_1,,,,,,,,,,,,,orange,diamond
646.0,3.0,2.0,0.0,2.0,2.0,434.3700879999232,1.0,1.0,phase_1,,,,,,,,,,,,,gray,cross
0.0,8.0,0.0,1.0,2.0,2.0,425.26498299992,1.0,1.0,phase_1,,,,,,,,,,,,,white,circle
155.0,1.0,0.5,0.0,4.0,4.0,444.8728529999926,1.0,1.0,phase_1,,,,,,,,,,,,,cyan,I
186.0,5.0,0.5,1.0,3.0,3.0,463.4552580000672,1.0,1.0,phase_1,,,,,,,,,,,,,orange,diamond
0.0,1.0,0.0,0.0,1.0,1.0,537.7506490000314,1.0,1.0,phase_1,,,,,,,,,,,,,cyan,I
1305.0,8.0,4.0,1.0,2.0,2.0,547.3268130000406,1.0,1.0,phase_1,,,,,,,,,,,,,white,circle
302.0,2.0,1.0,0.0,2.0,2.0,369.8130349999928,1.0,1.0,phase_1,,,,,,,,,,,,,magenta,hexagon
181.0,5.0,0.5,1.0,2.0,2.0,333.735731000047,1.0,1.0,phase_1,,,,,,,,,,,,,orange,diamond
152.0,1.0,0.5,0.0,3.0,3.0,574.2418700000371,2.0,1.0,phase_1,,,,,,,,,,,,,cyan,I
0.0,4.0,0.0,0.0,3.0,3.0,444.7435890000406,2.0,1.0,phase_1,,,,,,,,,,,,,blue,square
1291.0,8.0,4.0,1.0,3.0,3.0,407.1090240000785,2.0,1.0,phase_1,,,,,,,,,,,,,white,circle
651.0,3.0,2.0,0.0,1.0,1.0,667.3464750000448,2.0,1.0,phase_1,,,,,,,,,,,,,gray,cross
303.0,2.0,1.0,0.0,1.0,1.0,369.5199400000319,2.0,1.0,phase_1,,,,,,,,,,,,,magenta,hexagon
157.0,5.0,0.5,1.0,2.0,2.0,537.0963679999932,2.0,1.0,phase_1,,,,,,,,,,,,,orange,diamond
340.0,2.0,1.0,0.0,3.0,3.0,417.5891080000156,2.0,1.0,phase_1,,,,,,,,,,,,,magenta,hexagon
0.0,3.0,0.0,0.0,2.0,2.0,407.4945290000187,2.0,1.0,phase_1,,,,,,,,,,,,,gray,cross
185.0,5.0,0.5,1.0,2.0,2.0,361.9331639999927,2.0,1.0,phase_1,,,,,,,,,,,,,orange,diamond
0.0,8.0,0.0,1.0,1.0,1.0,417.5564250000434,2.0,1.0,phase_1,,,,,,,,,,,,,white,circle
634.0,3.0,2.0,0.0,2.0,2.0,389.0647419999595,2.0,1.0,phase_1,,,,,,,,,,,,,gray,cross
0.0,7.0,0.0,1.0,1.0,1.0,361.0350229999994,2.0,1.0,phase_1,,,,,,,,,,,,,yellow,triangle
340.0,6.0,1.0,1.0,3.0,3.0,491.5629710000075,2.0,1.0,phase_1,,,,,,,,,,,,,green,flipped triangle
151.0,1.0,0.5,0.0,2.0,2.0,407.8737099999898,2.0,1.0,phase_1,,,,,,,,,,,,,cyan,I
1307.0,8.0,4.0,1.0,4.0,4.0,427.7882360000831,2.0,1.0,phase_1,,,,,,,,,,,,,white,circle
1282.0,8.0,4.0,1.0,2.0,2.0,388.9746570000625,2.0,1.0,phase_1,,,,,,,,,,,,,white,circle
349.0,6.0,1.0,1.0,2.0,2.0,371.4351829999032,2.0,1.0,phase_1,,,,,,,,,,,,,green,flipped triangle
651.0,7.0,2.0,1.0,4.0,4.0,370.6210370000917,2.0,1.0,phase_1,,,,,,,,,,,,,yellow,triangle
187.0,5.0,0.5,1.0,4.0,4.0,436.523935000082,2.0,1.0,phase_1,,,,,,,,,,,,,orange,diamond
321.0,6.0,1.0,1.0,2.0,2.0,370.7531659999858,2.0,1.0,phase_1,,,,,,,,,,,,,green,flipped triangle
350.0,6.0,1.0,1.0,2.0,2.0,416.367613000034,2.0,1.0,phase_1,,,,,,,,,,,,,green,flipped triangle
174.0,1.0,0.5,0.0,2.0,2.0,417.2557499999811,2.0,1.0,phase_1,,,,,,,,,,,,,cyan,I
673.0,7.0,2.0,1.0,2.0,2.0,427.3521150000761,2.0,1.0,phase_1,,,,,,,,,,,,,yellow,triangle
0.0,6.0,0.0,1.0,3.0,3.0,380.1907769999388,2.0,1.0,phase_1,,,,,,,,,,,,,green,flipped triangle
0.0,1.0,0.0,0.0,1.0,1.0,416.2220069999875,2.0,1.0,phase_1,,,,,,,,,,,,,cyan,I
148.0,1.0,0.5,0.0,2.0,2.0,453.4508909999886,2.0,1.0,phase_1,,,,,,,,,,,,,cyan,I
646.0,7.0,2.0,1.0,4.0,4.0,389.5793599999706,2.0,1.0,phase_1,,,,,,,,,,,,,yellow,triangle
0.0,6.0,0.0,1.0,1.0,1.0,582.7826539999705,2.0,1.0,phase_1,,,,,,,,,,,,,green,flipped triangle
638.0,3.0,2.0,0.0,1.0,1.0,370.2373560000751,2.0,1.0,phase_1,,,,,,,,,,,,,gray,cross
638.0,7.0,2.0,1.0,4.0,4.0,334.0403629998718,2.0,1.0,phase_1,,,,,,,,,,,,,yellow,triangle
346.0,2.0,1.0,0.0,4.0,4.0,361.6124949999175,2.0,1.0,phase_1,,,,,,,,,,,,,magenta,hexagon
634.0,7.0,2.0,1.0,3.0,3.0,471.4399140000296,2.0,2.0,phase_1,,,,,,,,,,,,,yellow,triangle
661.0,7.0,2.0,1.0,4.0,4.0,388.4902849999889,2.0,1.0,phase_1,,,,,,,,,,,,,yellow,triangle
669.0,7.0,2.0,1.0,2.0,2.0,418.1000129999574,2.0,1.0,phase_1,,,,,,,,,,,,,yellow,triangle
669.0,3.0,2.0,0.0,4.0,4.0,471.758877999946,2.0,1.0,phase_1,,,,,,,,,,,,,gray,cross
655.0,7.0,2.0,1.0,4.0,4.0,434.4965699999648,2.0,1.0,phase_1,,,,,,,,,,,,,yellow,triangle
0.0,7.0,0.0,1.0,2.0,2.0,536.8304260000514,2.0,1.0,phase_1,,,,,,,,,,,,,yellow,triangle
187.0,1.0,0.5,0.0,2.0,2.0,462.495127000011,2.0,1.0,phase_1,,,,,,,,,,,,,cyan,I
0.0,6.0,0.0,1.0,3.0,3.0,528.4229450001021,2.0,1.0,phase_1,,,,,,,,,,,,,green,flipped triangle
161.0,1.0,0.5,0.0,3.0,3.0,463.7896350000119,2.0,1.0,phase_1,,,,,,,,,,,,,cyan,I
663.0,7.0,2.0,1.0,4.0,4.0,380.3427699999702,2.0,1.0,phase_1,,,,,,,,,,,,,yellow,triangle
1309.0,8.0,4.0,1.0,1.0,1.0,482.3433079998267,2.0,1.0,phase_1,,,,,,,,,,,,,white,circle
667.0,7.0,2.0,1.0,3.0,3.0,480.8449150000342,2.0,1.0,phase_1,,,,,,,,,,,,,yellow,triangle
1284.0,4.0,4.0,0.0,2.0,2.0,499.8646049998569,2.0,1.0,phase_1,,,,,,,,,,,,,blue,square
626.0,3.0,2.0,0.0,4.0,4.0,379.3515489999208,2.0,1.0,phase_1,,,,,,,,,,,,,gray,cross
1289.0,8.0,4.0,1.0,4.0,4.0,419.10291399995,2.0,1.0,phase_1,,,,,,,,,,,,,white,circle
151.0,5.0,0.5,1.0,3.0,3.0,555.46097499996,2.0,1.0,phase_1,,,,,,,,,,,,,orange,diamond
0.0,8.0,0.0,1.0,1.0,1.0,575.2127159998963,2.0,1.0,phase_1,,,,,,,,,,,,,white,circle
0.0,5.0,0.0,1.0,3.0,3.0,407.7683919999799,2.0,1.0,phase_1,,,,,,,,,,,,,orange,diamond
0.0,1.0,0.0,0.0,4.0,4.0,390.2807330000541,2.0,1.0,phase_1,,,,,,,,,,,,,cyan,I
345.0,6.0,1.0,1.0,4.0,4.0,372.2059340000214,2.0,1.0,phase_1,,,,,,,,,,,,,green,flipped triangle
656.0,7.0,2.0,1.0,4.0,4.0,397.9450459999043,2.0,1.0,phase_1,,,,,,,,,,,,,yellow,triangle
346.0,6.0,1.0,1.0,4.0,4.0,408.095196999966,2.0,1.0,phase_1,,,,,,,,,,,,,green,flipped triangle
0.0,5.0,0.0,1.0,4.0,4.0,410.1994160000686,2.0,1.0,phase_1,,,,,,,,,,,,,orange,diamond
178.0,1.0,0.5,0.0,4.0,4.0,361.6411969999262,2.0,1.0,phase_1,,,,,,,,,,,,,cyan,I
1302.0,4.0,4.0,0.0,4.0,4.0,363.5629540001446,2.0,1.0,phase_1,,,,,,,,,,,,,blue,square
160.0,1.0,0.5,0.0,4.0,4.0,409.0407839998988,2.0,1.0,phase_1,,,,,,,,,,,,,cyan,I
0.0,2.0,0.0,0.0,1.0,1.0,538.4034880000854,2.0,1.0,phase_1,,,,,,,,,,,,,magenta,hexagon
663.0,7.0,2.0,1.0,1.0,1.0,399.2053679999117,2.0,1.0,phase_1,,,,,,,,,,,,,yellow,triangle
641.0,3.0,2.0,0.0,2.0,2.0,463.1396760000825,2.0,1.0,phase_1,,,,,,,,,,,,,gray,cross
313.0,2.0,1.0,0.0,1.0,1.0,427.6609769999595,2.0,1.0,phase_1,,,,,,,,,,,,,magenta,hexagon
313.0,6.0,1.0,1.0,3.0,3.0,390.3383259998918,2.0,1.0,phase_1,,,,,,,,,,,,,green,flipped triangle
153.0,5.0,0.5,1.0,2.0,2.0,445.1611969998339,2.0,1.0,phase_1,,,,,,,,,,,,,orange,diamond
1316.0,8.0,4.0,1.0,2.0,2.0,445.6901799999286,2.0,1.0,phase_1,,,,,,,,,,,,,white,circle
629.0,3.0,2.0,0.0,4.0,4.0,371.3011700001516,2.0,1.0,phase_1,,,,,,,,,,,,,gray,cross
663.0,7.0,2.0,1.0,2.0,2.0,509.805599999936,2.0,1.0,phase_1,,,,,,,,,,,,,yellow,triangle
0.0,6.0,0.0,1.0,1.0,1.0,575.6867340001008,2.0,1.0,phase_1,,,,,,,,,,,,,green,flipped triangle
0.0,2.0,0.0,0.0,1.0,1.0,446.5472310000677,2.0,1.0,phase_1,,,,,,,,,,,,,magenta,hexagon
1317.0,8.0,4.0,1.0,1.0,1.0,398.6067369999091,2.0,1.0,phase_1,,,,,,,,,,,,,white,circle
332.0,2.0,1.0,0.0,4.0,4.0,342.5577660000272,2.0,1.0,phase_1,,,,,,,,,,,,,magenta,hexagon
144.0,1.0,0.5,0.0,2.0,2.0,472.8678870001204,2.0,1.0,phase_1,,,,,,,,,,,,,cyan,I
0.0,2.0,0.0,0.0,2.0,2.0,388.8734899999235,2.0,1.0,phase_1,,,,,,,,,,,,,magenta,hexagon
141.0,1.0,0.5,0.0,1.0,1.0,510.52232200004255,2.0,1.0,phase_1,,,,,,,,,,,,,cyan,I
665.0,7.0,2.0,1.0,3.0,3.0,761.8598070000644,2.0,1.0,phase_1,,,,,,,,,,,,,yellow,triangle
0.0,3.0,0.0,0.0,3.0,3.0,555.9920099999545,2.0,1.0,phase_1,,,,,,,,,,,,,gray,cross
1305.0,8.0,4.0,1.0,2.0,2.0,473.679329000106,2.0,1.0,phase_1,,,,,,,,,,,,,white,circle
321.0,6.0,1.0,1.0,2.0,2.0,593.192259000034,2.0,1.0,phase_1,,,,,,,,,,,,,green,flipped triangle
0.0,8.0,0.0,1.0,3.0,3.0,454.4652350000433,2.0,1.0,phase_1,,,,,,,,,,,,,white,circle
1300.0,8.0,4.0,1.0,1.0,1.0,417.8991119999864,2.0,1.0,phase_1,,,,,,,,,,,,,white,circle
663.0,3.0,2.0,0.0,3.0,3.0,518.9082449999205,2.0,1.0,phase_1,,,,,,,,,,,,,gray,cross
326.0,6.0,1.0,1.0,1.0,1.0,417.3269390000769,2.0,1.0,phase_1,,,,,,,,,,,,,green,flipped triangle
639.0,7.0,2.0,1.0,4.0,4.0,407.2854000000916,2.0,1.0,phase_1,,,,,,,,,,,,,yellow,triangle
638.0,7.0,2.0,1.0,3.0,3.0,490.5840880001051,2.0,1.0,phase_1,,,,,,,,,,,,,yellow,triangle
157.0,5.0,0.5,1.0,3.0,3.0,444.5725200000652,2.0,1.0,phase_1,,,,,,,,,,,,,orange,diamond
186.0,1.0,0.5,0.0,2.0,2.0,407.4338359998819,2.0,1.0,phase_1,,,,,,,,,,,,,cyan,I
338.0,2.0,1.0,0.0,2.0,2.0,454.4398170000931,2.0,1.0,phase_1,,,,,,,,,,,,,magenta,hexagon
328.0,6.0,1.0,1.0,1.0,1.0,463.3581210000557,2.0,1.0,phase_1,,,,,,,,,,,,,green,flipped triangle
0.0,1.0,0.0,0.0,2.0,2.0,522.5829029998295,2.0,1.0,phase_1,,,,,,,,,,,,,cyan,I
165.0,1.0,0.5,0.0,1.0,1.0,602.93380600001,2.0,1.0,phase_1,,,,,,,,,,,,,cyan,I
1297.0,4.0,4.0,0.0,2.0,2.0,454.2888729999959,2.0,1.0,phase_1,,,,,,,,,,,,,blue,square
302.0,2.0,1.0,0.0,2.0,2.0,510.3682349999872,2.0,1.0,phase_1,,,,,,,,,,,,,magenta,hexagon
171.0,5.0,0.5,1.0,1.0,1.0,453.7602729999435,2.0,1.0,phase_1,,,,,,,,,,,,,orange,diamond
1301.0,4.0,4.0,0.0,4.0,4.0,408.1525739998142,2.0,1.0,phase_1,,,,,,,,,,,,,blue,square
155.0,5.0,0.5,1.0,2.0,2.0,482.4926080000296,2.0,1.0,phase_1,,,,,,,,,,,,,orange,diamond
641.0,7.0,2.0,1.0,1.0,1.0,463.9728959998592,2.0,1.0,phase_1,,,,,,,,,,,,,yellow,triangle
0.0,1.0,0.0,0.0,4.0,4.0,425.8376000000226,2.0,1.0,phase_1,,,,,,,,,,,,,cyan,I
139.0,1.0,0.5,0.0,4.0,4.0,509.8551809999208,2.0,1.0,phase_1,,,,,,,,,,,,,cyan,I
174.0,5.0,0.5,1.0,3.0,3.0,445.0807529999565,2.0,1.0,phase_1,,,,,,,,,,,,,orange,diamond
1295.0,8.0,4.0,1.0,3.0,3.0,685.5748149998817,2.0,1.0,phase_1,,,,,,,,,,,,,white,circle
157.0,1.0,0.5,0.0,1.0,1.0,462.7888650002205,2.0,1.0,phase_1,,,,,,,,,,,,,cyan,I
151.0,1.0,0.5,0.0,3.0,3.0,482.0165020000786,3.0,1.0,phase_1,,,,,,,,,,,,,cyan,I
314.0,6.0,1.0,1.0,4.0,4.0,454.7259280000162,3.0,1.0,phase_1,,,,,,,,,,,,,green,flipped triangle
318.0,6.0,1.0,1.0,2.0,2.0,455.1977139999508,3.0,1.0,phase_1,,,,,,,,,,,,,green,flipped triangle
327.0,2.0,1.0,0.0,4.0,4.0,398.7551699999585,3.0,1.0,phase_1,,,,,,,,,,,,,magenta,hexagon
639.0,3.0,2.0,0.0,4.0,4.0,398.6500179998984,3.0,1.0,phase_1,,,,,,,,,,,,,gray,cross
0.0,4.0,0.0,0.0,3.0,3.0,389.5085029998881,3.0,1.0,phase_1,,,,,,,,,,,,,blue,square
318.0,2.0,1.0,0.0,2.0,2.0,417.2172250000585,3.0,1.0,phase_1,,,,,,,,,,,,,magenta,hexagon
0.0,6.0,0.0,1.0,4.0,4.0,437.0515499999783,3.0,1.0,phase_1,,,,,,,,,,,,,green,flipped triangle
1324.0,4.0,4.0,0.0,3.0,3.0,408.6703450000186,3.0,1.0,phase_1,,,,,,,,,,,,,blue,square
0.0,2.0,0.0,0.0,3.0,3.0,399.2739210000309,3.0,1.0,phase_1,,,,,,,,,,,,,magenta,hexagon
171.0,1.0,0.5,0.0,4.0,4.0,444.6023919999788,3.0,1.0,phase_1,,,,,,,,,,,,,cyan,I
339.0,2.0,1.0,0.0,3.0,3.0,521.4674890000879,3.0,1.0,phase_1,,,,,,,,,,,,,magenta,hexagon
334.0,6.0,1.0,1.0,4.0,4.0,380.8675680002125,3.0,1.0,phase_1,,,,,,,,,,,,,green,flipped triangle
0.0,5.0,0.0,1.0,4.0,4.0,398.4702689999722,3.0,1.0,phase_1,,,,,,,,,,,,,orange,diamond
304.0,6.0,1.0,1.0,2.0,2.0,482.4165050001738,3.0,1.0,phase_1,,,,,,,,,,,,,green,flipped triangle
151.0,5.0,0.5,1.0,4.0,4.0,427.8990920001888,3.0,1.0,phase_1,,,,,,,,,,,,,orange,diamond
655.0,7.0,2.0,1.0,1.0,1.0,503.98214200004077,3.0,1.0,phase_1,,,,,,,,,,,,,yellow,triangle
309.0,2.0,1.0,0.0,1.0,1.0,455.0625409999611,3.0,1.0,phase_1,,,,,,,,,,,,,magenta,hexagon
1324.0,8.0,4.0,1.0,4.0,4.0,428.1066720000126,3.0,1.0,phase_1,,,,,,,,,,,,,white,circle
1315.0,4.0,4.0,0.0,3.0,3.0,390.5822750000425,3.0,1.0,phase_1,,,,,,,,,,,,,blue,square
658.0,7.0,2.0,1.0,3.0,3.0,418.0646419999902,3.0,1.0,phase_1,,,,,,,,,,,,,yellow,triangle
0.0,4.0,0.0,0.0,1.0,1.0,427.7207570000882,3.0,1.0,phase_1,,,,,,,,,,,,,blue,square
167.0,5.0,0.5,1.0,4.0,4.0,388.5823299999629,3.0,1.0,phase_1,,,,,,,,,,,,,orange,diamond
1307.0,4.0,4.0,0.0,4.0,4.0,426.0397900000043,3.0,1.0,phase_1,,,,,,,,,,,,,blue,square
0.0,3.0,0.0,0.0,3.0,3.0,426.6245039998466,3.0,1.0,phase_1,,,,,,,,,,,,,gray,cross
301.0,2.0,1.0,0.0,3.0,3.0,400.5548650000037,3.0,1.0,phase_1,,,,,,,,,,,,,magenta,hexagon
343.0,2.0,1.0,0.0,1.0,1.0,537.5952609999786,3.0,1.0,phase_1,,,,,,,,,,,,,magenta,hexagon
1324.0,4.0,4.0,0.0,1.0,1.0,389.9560140000631,3.0,1.0,phase_1,,,,,,,,,,,,,blue,square
344.0,6.0,1.0,1.0,3.0,3.0,381.3761979999981,3.0,1.0,phase_1,,,,,,,,,,,,,green,flipped triangle
0.0,1.0,0.0,0.0,3.0,3.0,418.9609569998538,3.0,1.0,phase_1,,,,,,,,,,,,,cyan,I
1297.0,8.0,4.0,1.0,4.0,4.0,399.0477530001044,3.0,1.0,phase_1,,,,,,,,,,,,,white,circle
1316.0,4.0,4.0,0.0,2.0,2.0,704.4021480000993,3.0,1.0,phase_1,,,,,,,,,,,,,blue,square
0.0,8.0,0.0,1.0,1.0,1.0,511.0146340000483,3.0,1.0,phase_1,,,,,,,,,,,,,white,circle
310.0,2.0,1.0,0.0,3.0,3.0,483.8513140000486,3.0,1.0,phase_1,,,,,,,,,,,,,magenta,hexagon
151.0,5.0,0.5,1.0,3.0,3.0,400.479864999852,3.0,1.0,phase_1,,,,,,,,,,,,,orange,diamond
163.0,1.0,0.5,0.0,4.0,4.0,418.4543240000948,3.0,1.0,phase_1,,,,,,,,,,,,,cyan,I
671.0,3.0,2.0,0.0,3.0,3.0,490.945462000127,3.0,1.0,phase_1,,,,,,,,,,,,,gray,cross
1285.0,4.0,4.0,0.0,1.0,1.0,417.4211600000035,3.0,1.0,phase_1,,,,,,,,,,,,,blue,square
1277.0,4.0,4.0,0.0,4.0,4.0,372.1770230001766,3.0,1.0,phase_1,,,,,,,,,,,,,blue,square
334.0,2.0,1.0,0.0,4.0,4.0,362.2288199999275,3.0,1.0,phase_1,,,,,,,,,,,,,magenta,hexagon
314.0,2.0,1.0,0.0,2.0,2.0,502.29424500003006,3.0,1.0,phase_1,,,,,,,,,,,,,magenta,hexagon
655.0,3.0,2.0,0.0,1.0,1.0,389.8710339999525,3.0,1.0,phase_1,,,,,,,,,,,,,gray,cross
639.0,7.0,2.0,1.0,3.0,3.0,390.4300359999979,3.0,1.0,phase_1,,,,,,,,,,,,,yellow,triangle
148.0,5.0,0.5,1.0,2.0,2.0,464.4812770000044,3.0,1.0,phase_1,,,,,,,,,,,,,orange,diamond
657.0,7.0,2.0,1.0,2.0,2.0,538.5696679998091,3.0,1.0,phase_1,,,,,,,,,,,,,yellow,triangle
1305.0,4.0,4.0,0.0,4.0,4.0,371.0323899999821,3.0,1.0,phase_1,,,,,,,,,,,,,blue,square
661.0,3.0,2.0,0.0,4.0,4.0,372.0021110000289,3.0,1.0,phase_1,,,,,,,,,,,,,gray,cross
178.0,1.0,0.5,0.0,3.0,3.0,371.37652900014467,3.0,1.0,phase_1,,,,,,,,,,,,,cyan,I
141.0,5.0,0.5,1.0,2.0,2.0,398.7079210000956,3.0,1.0,phase_1,,,,,,,,,,,,,orange,diamond
301.0,6.0,1.0,1.0,2.0,2.0,400.3172990001076,3.0,1.0,phase_1,,,,,,,,,,,,,green,flipped triangle
652.0,7.0,2.0,1.0,4.0,4.0,398.7854479998987,3.0,1.0,phase_1,,,,,,,,,,,,,yellow,triangle
0.0,7.0,0.0,1.0,4.0,4.0,361.7132100000617,3.0,1.0,phase_1,,,,,,,,,,,,,yellow,triangle
0.0,3.0,0.0,0.0,4.0,4.0,398.6154670001269,3.0,1.0,phase_1,,,,,,,,,,,,,gray,cross
335.0,6.0,1.0,1.0,1.0,1.0,409.6687119999842,3.0,1.0,phase_1,,,,,,,,,,,,,green,flipped triangle
139.0,5.0,0.5,1.0,1.0,1.0,407.3555990000841,3.0,1.0,phase_1,,,,,,,,,,,,,orange,diamond
645.0,7.0,2.0,1.0,1.0,1.0,379.619176999995,3.0,1.0,phase_1,,,,,,,,,,,,,yellow,triangle
1275.0,8.0,4.0,1.0,1.0,1.0,406.2635509999381,3.0,1.0,phase_1,,,,,,,,,,,,,white,circle
1291.0,8.0,4.0,1.0,4.0,4.0,371.7509259997769,3.0,1.0,phase_1,,,,,,,,,,,,,white,circle
1276.0,8.0,4.0,1.0,3.0,3.0,371.0913730001266,3.0,1.0,phase_1,,,,,,,,,,,,,white,circle
141.0,5.0,0.5,1.0,4.0,4.0,352.6562899999135,3.0,1.0,phase_1,,,,,,,,,,,,,orange,diamond
327.0,6.0,1.0,1.0,4.0,4.0,343.33622100007227,3.0,1.0,phase_1,,,,,,,,,,,,,green,flipped triangle
0.0,5.0,0.0,1.0,4.0,4.0,371.785784000167,3.0,1.0,phase_1,,,,,,,,,,,,,orange,diamond
1298.0,8.0,4.0,1.0,3.0,3.0,416.5352859999984,3.0,1.0,phase_1,,,,,,,,,,,,,white,circle
1308.0,4.0,4.0,0.0,1.0,1.0,638.3543330000521,3.0,1.0,phase_1,,,,,,,,,,,,,blue,square
1275.0,4.0,4.0,0.0,4.0,4.0,631.4347079999152,3.0,1.0,phase_1,,,,,,,,,,,,,blue,square
309.0,6.0,1.0,1.0,4.0,4.0,462.9181990001143,3.0,1.0,phase_1,,,,,,,,,,,,,green,flipped triangle
673.0,3.0,2.0,0.0,3.0,3.0,408.6832929999673,3.0,1.0,phase_1,,,,,,,,,,,,,gray,cross
178.0,5.0,0.5,1.0,1.0,1.0,518.9462149999144,3.0,1.0,phase_1,,,,,,,,,,,,,orange,diamond
668.0,3.0,2.0,0.0,2.0,2.0,481.3586210000267,3.0,1.0,phase_1,,,,,,,,,,,,,gray,cross
1317.0,4.0,4.0,0.0,2.0,2.0,445.1736250000522,3.0,1.0,phase_1,,,,,,,,,,,,,blue,square
335.0,6.0,1.0,1.0,4.0,4.0,371.2629310000466,3.0,1.0,phase_1,,,,,,,,,,,,,green,flipped triangle
164.0,1.0,0.5,0.0,1.0,1.0,472.7685670000028,3.0,1.0,phase_1,,,,,,,,,,,,,cyan,I
338.0,6.0,1.0,1.0,4.0,4.0,416.2352129999362,3.0,1.0,phase_1,,,,,,,,,,,,,green,flipped triangle
323.0,6.0,1.0,1.0,2.0,2.0,444.7950559999754,3.0,1.0,phase_1,,,,,,,,,,,,,green,flipped triangle
319.0,2.0,1.0,0.0,3.0,3.0,408.1536499998037,3.0,1.0,phase_1,,,,,,,,,,,,,magenta,hexagon
641.0,7.0,2.0,1.0,2.0,2.0,400.1936170000135,3.0,1.0,phase_1,,,,,,,,,,,,,yellow,triangle
303.0,6.0,1.0,1.0,1.0,1.0,456.2754260000474,3.0,1.0,phase_1,,,,,,,,,,,,,green,flipped triangle
635.0,3.0,2.0,0.0,1.0,1.0,445.6853350000074,3.0,1.0,phase_1,,,,,,,,,,,,,gray,cross
163.0,5.0,0.5,1.0,1.0,1.0,408.3145039999181,3.0,1.0,phase_1,,,,,,,,,,,,,orange,diamond
1277.0,4.0,4.0,0.0,2.0,2.0,518.643941999926,3.0,1.0,phase_1,,,,,,,,,,,,,blue,square
141.0,1.0,0.5,0.0,2.0,2.0,435.2454250001756,3.0,1.0,phase_1,,,,,,,,,,,,,cyan,I
0.0,5.0,0.0,1.0,3.0,3.0,409.5078289999492,3.0,1.0,phase_1,,,,,,,,,,,,,orange,diamond
652.0,3.0,2.0,0.0,3.0,3.0,455.7332320000569,3.0,1.0,phase_1,,,,,,,,,,,,,gray,cross
342.0,2.0,1.0,0.0,3.0,3.0,474.528945999964,3.0,1.0,phase_1,,,,,,,,,,,,,magenta,hexagon
164.0,5.0,0.5,1.0,1.0,1.0,482.7101339999444,3.0,1.0,phase_1,,,,,,,,,,,,,orange,diamond
1277.0,8.0,4.0,1.0,1.0,1.0,464.1377200000534,3.0,1.0,phase_1,,,,,,,,,,,,,white,circle
1278.0,8.0,4.0,1.0,1.0,1.0,362.5506220000716,3.0,1.0,phase_1,,,,,,,,,,,,,white,circle
1324.0,8.0,4.0,1.0,2.0,2.0,436.1638610000682,3.0,1.0,phase_1,,,,,,,,,,,,,white,circle
641.0,3.0,2.0,0.0,3.0,3.0,509.29877299995496,3.0,1.0,phase_1,,,,,,,,,,,,,gray,cross
627.0,3.0,2.0,0.0,3.0,3.0,603.4572749999825,3.0,2.0,phase_1,,,,,,,,,,,,,gray,cross
1309.0,4.0,4.0,0.0,1.0,1.0,508.7990260001334,3.0,1.0,phase_1,,,,,,,,,,,,,blue,square
1295.0,4.0,4.0,0.0,1.0,1.0,489.6717019998959,3.0,1.0,phase_1,,,,,,,,,,,,,blue,square
1301.0,8.0,4.0,1.0,1.0,1.0,461.3863550000587,3.0,1.0,phase_1,,,,,,,,,,,,,white,circle
639.0,3.0,2.0,0.0,1.0,1.0,425.4904209999495,3.0,1.0,phase_1,,,,,,,,,,,,,gray,cross
169.0,1.0,0.5,0.0,1.0,1.0,527.0273159999306,3.0,1.0,phase_1,,,,,,,,,,,,,cyan,I
0.0,3.0,0.0,0.0,2.0,2.0,601.9935330000408,3.0,1.0,phase_1,,,,,,,,,,,,,gray,cross
627.0,7.0,2.0,1.0,2.0,2.0,452.8813879999234,3.0,1.0,phase_1,,,,,,,,,,,,,yellow,triangle
652.0,3.0,2.0,0.0,2.0,2.0,434.9850220000917,3.0,1.0,phase_1,,,,,,,,,,,,,gray,cross
0.0,4.0,0.0,0.0,2.0,2.0,471.7450640000606,3.0,1.0,phase_1,,,,,,,,,,,,,blue,square
161.0,5.0,0.5,1.0,3.0,3.0,509.2911660001391,3.0,1.0,phase_1,,,,,,,,,,,,,orange,diamond
339.0,6.0,1.0,1.0,3.0,3.0,546.351783000091,4.0,1.0,phase_1,,,,,,,,,,,,,green,flipped triangle
350.0,2.0,1.0,0.0,1.0,1.0,638.7639619999845,4.0,1.0,phase_1,,,,,,,,,,,,,magenta,hexagon
0.0,2.0,0.0,0.0,2.0,2.0,647.6410249999844,4.0,1.0,phase_1,,,,,,,,,,,,,magenta,hexagon
328.0,2.0,1.0,0.0,2.0,2.0,455.1761580000857,4.0,1.0,phase_1,,,,,,,,,,,,,magenta,hexagon
145.0,1.0,0.5,0.0,3.0,3.0,445.6184139999095,4.0,1.0,phase_1,,,,,,,,,,,,,cyan,I
170.0,1.0,0.5,0.0,1.0,1.0,482.7034450001974,4.0,1.0,phase_1,,,,,,,,,,,,,cyan,I
185.0,5.0,0.5,1.0,4.0,4.0,501.41488500003106,4.0,1.0,phase_1,,,,,,,,,,,,,orange,diamond
1318.0,4.0,4.0,0.0,3.0,3.0,409.8613140001816,4.0,1.0,phase_1,,,,,,,,,,,,,blue,square
0.0,8.0,0.0,1.0,1.0,1.0,445.6857259999651,4.0,1.0,phase_1,,,,,,,,,,,,,white,circle
310.0,6.0,1.0,1.0,3.0,3.0,427.4307819998739,4.0,1.0,phase_1,,,,,,,,,,,,,green,flipped triangle
0.0,5.0,0.0,1.0,3.0,3.0,398.3177069999328,4.0,1.0,phase_1,,,,,,,,,,,,,orange,diamond
330.0,6.0,1.0,1.0,4.0,4.0,418.2559409998703,4.0,1.0,phase_1,,,,,,,,,,,,,green,flipped triangle
644.0,3.0,2.0,0.0,4.0,4.0,398.0194669998127,4.0,1.0,phase_1,,,,,,,,,,,,,gray,cross
638.0,3.0,2.0,0.0,2.0,2.0,584.3771340000785,4.0,1.0,phase_1,,,,,,,,,,,,,gray,cross
0.0,1.0,0.0,0.0,4.0,4.0,472.9577879998032,4.0,1.0,phase_1,,,,,,,,,,,,,cyan,I
1324.0,8.0,4.0,1.0,3.0,3.0,416.7769499999849,4.0,1.0,phase_1,,,,,,,,,,,,,white,circle
0.0,1.0,0.0,0.0,2.0,2.0,500.39654700003666,4.0,1.0,phase_1,,,,,,,,,,,,,cyan,I
316.0,2.0,1.0,0.0,4.0,4.0,426.7369149999922,4.0,1.0,phase_1,,,,,,,,,,,,,magenta,hexagon
663.0,7.0,2.0,1.0,1.0,1.0,501.01462299994637,4.0,1.0,phase_1,,,,,,,,,,,,,yellow,triangle
163.0,5.0,0.5,1.0,4.0,4.0,537.2246449999238,4.0,1.0,phase_1,,,,,,,,,,,,,orange,diamond
1291.0,4.0,4.0,0.0,3.0,3.0,417.7213660000234,4.0,1.0,phase_1,,,,,,,,,,,,,blue,square
1283.0,4.0,4.0,0.0,3.0,3.0,546.2081410000792,4.0,1.0,phase_1,,,,,,,,,,,,,blue,square
316.0,6.0,1.0,1.0,3.0,3.0,444.4608879998668,4.0,1.0,phase_1,,,,,,,,,,,,,green,flipped triangle
1278.0,4.0,4.0,0.0,3.0,3.0,434.6277570000438,4.0,1.0,phase_1,,,,,,,,,,,,,blue,square
0.0,6.0,0.0,1.0,2.0,2.0,518.6665119999816,4.0,1.0,phase_1,,,,,,,,,,,,,green,flipped triangle
1311.0,8.0,4.0,1.0,4.0,4.0,407.3174249999738,4.0,1.0,phase_1,,,,,,,,,,,,,white,circle
0.0,2.0,0.0,0.0,4.0,4.0,416.6715999999724,4.0,1.0,phase_1,,,,,,,,,,,,,magenta,hexagon
0.0,2.0,0.0,0.0,3.0,3.0,379.4720559999405,4.0,1.0,phase_1,,,,,,,,,,,,,magenta,hexagon
0.0,7.0,0.0,1.0,3.0,3.0,360.8566550001342,4.0,1.0,phase_1,,,,,,,,,,,,,yellow,triangle
626.0,7.0,2.0,1.0,1.0,1.0,528.1596929999068,4.0,1.0,phase_1,,,,,,,,,,,,,yellow,triangle
1309.0,8.0,4.0,1.0,2.0,2.0,483.1694530000732,4.0,1.0,phase_1,,,,,,,,,,,,,white,circle
0.0,6.0,0.0,1.0,1.0,1.0,576.6719779999221,4.0,1.0,phase_1,,,,,,,,,,,,,green,flipped triangle
0.0,8.0,0.0,1.0,2.0,2.0,453.8533270001608,4.0,1.0,phase_1,,,,,,,,,,,,,white,circle
1283.0,4.0,4.0,0.0,1.0,1.0,425.9136729999682,4.0,1.0,phase_1,,,,,,,,,,,,,blue,square
0.0,3.0,0.0,0.0,1.0,1.0,565.6192310000279,4.0,1.0,phase_1,,,,,,,,,,,,,gray,cross
165.0,5.0,0.5,1.0,4.0,4.0,408.9032560000305,4.0,1.0,phase_1,,,,,,,,,,,,,orange,diamond
0.0,4.0,0.0,0.0,4.0,4.0,480.6435509999573,4.0,1.0,phase_1,,,,,,,,,,,,,blue,square
321.0,2.0,1.0,0.0,1.0,1.0,444.6486740000637,4.0,1.0,phase_1,,,,,,,,,,,,,magenta,hexagon
155.0,1.0,0.5,0.0,3.0,3.0,480.690260000074,4.0,1.0,phase_1,,,,,,,,,,,,,cyan,I
668.0,7.0,2.0,1.0,4.0,4.0,435.0935719999143,4.0,1.0,phase_1,,,,,,,,,,,,,yellow,triangle
0.0,4.0,0.0,0.0,1.0,1.0,407.5943220000226,4.0,1.0,phase_1,,,,,,,,,,,,,blue,square
345.0,2.0,1.0,0.0,4.0,4.0,454.5940230000269,4.0,1.0,phase_1,,,,,,,,,,,,,magenta,hexagon
185.0,1.0,0.5,0.0,2.0,2.0,564.3950619999032,4.0,1.0,phase_1,,,,,,,,,,,,,cyan,I
157.0,1.0,0.5,0.0,2.0,2.0,444.1706400000385,4.0,1.0,phase_1,,,,,,,,,,,,,cyan,I
181.0,1.0,0.5,0.0,2.0,2.0,444.414186999893,4.0,1.0,phase_1,,,,,,,,,,,,,cyan,I
1315.0,8.0,4.0,1.0,3.0,3.0,426.3341609998861,4.0,1.0,phase_1,,,,,,,,,,,,,white,circle
336.0,2.0,1.0,0.0,3.0,3.0,472.4001199999748,4.0,1.0,phase_1,,,,,,,,,,,,,magenta,hexagon
1277.0,8.0,4.0,1.0,4.0,4.0,408.1985420000364,4.0,1.0,phase_1,,,,,,,,,,,,,white,circle
151.0,1.0,0.5,0.0,3.0,3.0,490.7512400000087,4.0,1.0,phase_1,,,,,,,,,,,,,cyan,I
1302.0,4.0,4.0,0.0,2.0,2.0,508.4375999999793,4.0,1.0,phase_1,,,,,,,,,,,,,blue,square
669.0,3.0,2.0,0.0,1.0,1.0,491.5072019998661,4.0,1.0,phase_1,,,,,,,,,,,,,gray,cross
0.0,1.0,0.0,0.0,4.0,4.0,527.9363230001763,4.0,2.0,phase_1,,,,,,,,,,,,,cyan,I
0.0,5.0,0.0,1.0,1.0,1.0,454.0158350000638,4.0,1.0,phase_1,,,,,,,,,,,,,orange,diamond
169.0,5.0,0.5,1.0,2.0,2.0,545.8267310000338,4.0,1.0,phase_1,,,,,,,,,,,,,orange,diamond
332.0,6.0,1.0,1.0,1.0,1.0,518.4715030000007,4.0,1.0,phase_1,,,,,,,,,,,,,green,flipped triangle
169.0,5.0,0.5,1.0,3.0,3.0,538.1833450001068,4.0,1.0,phase_1,,,,,,,,,,,,,orange,diamond
648.0,3.0,2.0,0.0,1.0,1.0,611.7091829999026,4.0,1.0,phase_1,,,,,,,,,,,,,gray,cross
1289.0,4.0,4.0,0.0,3.0,3.0,501.0012679999818,4.0,1.0,phase_1,,,,,,,,,,,,,blue,square
652.0,7.0,2.0,1.0,3.0,3.0,445.6847609999386,4.0,1.0,phase_1,,,,,,,,,,,,,yellow,triangle
0.0,7.0,0.0,1.0,3.0,3.0,426.6854850000072,4.0,1.0,phase_1,,,,,,,,,,,,,yellow,triangle
1302.0,4.0,4.0,0.0,4.0,4.0,445.5957530001342,4.0,1.0,phase_1,,,,,,,,,,,,,blue,square
169.0,1.0,0.5,0.0,4.0,4.0,539.1450270001314,4.0,1.0,phase_1,,,,,,,,,,,,,cyan,I
665.0,3.0,2.0,0.0,4.0,4.0,399.2330799999308,4.0,1.0,phase_1,,,,,,,,,,,,,gray,cross
334.0,2.0,1.0,0.0,1.0,1.0,538.407399000107,4.0,1.0,phase_1,,,,,,,,,,,,,magenta,hexagon
303.0,2.0,1.0,0.0,4.0,4.0,408.1405869999344,4.0,1.0,phase_1,,,,,,,,,,,,,magenta,hexagon
629.0,7.0,2.0,1.0,3.0,3.0,390.306172999999,4.0,1.0,phase_1,,,,,,,,,,,,,yellow,triangle
310.0,6.0,1.0,1.0,4.0,4.0,455.5075780001516,4.0,1.0,phase_1,,,,,,,,,,,,,green,flipped triangle
1302.0,8.0,4.0,1.0,2.0,2.0,546.399369000028,4.0,1.0,phase_1,,,,,,,,,,,,,white,circle
1285.0,8.0,4.0,1.0,3.0,3.0,444.9953710000045,4.0,1.0,phase_1,,,,,,,,,,,,,white,circle
0.0,2.0,0.0,0.0,1.0,1.0,463.3440959999007,4.0,1.0,phase_1,,,,,,,,,,,,,magenta,hexagon
1287.0,4.0,4.0,0.0,4.0,4.0,427.7503499999966,4.0,1.0,phase_1,,,,,,,,,,,,,blue,square
655.0,3.0,2.0,0.0,3.0,3.0,408.0609780000941,4.0,1.0,phase_1,,,,,,,,,,,,,gray,cross
0.0,4.0,0.0,0.0,4.0,4.0,381.3601029999063,4.0,1.0,phase_1,,,,,,,,,,,,,blue,square
648.0,7.0,2.0,1.0,1.0,1.0,483.5730209999838,4.0,1.0,phase_1,,,,,,,,,,,,,yellow,triangle
626.0,3.0,2.0,0.0,3.0,3.0,464.1287379999994,4.0,1.0,phase_1,,,,,,,,,,,,,gray,cross
302.0,6.0,1.0,1.0,3.0,3.0,410.1790330000767,4.0,1.0,phase_1,,,,,,,,,,,,,green,flipped triangle
167.0,1.0,0.5,0.0,1.0,1.0,436.3199750000603,4.0,1.0,phase_1,,,,,,,,,,,,,cyan,I
0.0,8.0,0.0,1.0,4.0,4.0,464.1300729999784,4.0,1.0,phase_1,,,,,,,,,,,,,white,circle
145.0,5.0,0.5,1.0,1.0,1.0,463.6187309999968,4.0,1.0,phase_1,,,,,,,,,,,,,orange,diamond
0.0,4.0,0.0,0.0,3.0,3.0,418.8679320000119,4.0,1.0,phase_1,,,,,,,,,,,,,blue,square
1295.0,4.0,4.0,0.0,4.0,4.0,408.0176089998986,4.0,1.0,phase_1,,,,,,,,,,,,,blue,square
0.0,7.0,0.0,1.0,2.0,2.0,500.52773799984607,4.0,1.0,phase_1,,,,,,,,,,,,,yellow,triangle
0.0,5.0,0.0,1.0,3.0,3.0,379.7854179999831,4.0,1.0,phase_1,,,,,,,,,,,,,orange,diamond
0.0,4.0,0.0,0.0,4.0,4.0,398.5008600000128,4.0,1.0,phase_1,,,,,,,,,,,,,blue,square
645.0,3.0,2.0,0.0,4.0,4.0,399.9683780000396,4.0,1.0,phase_1,,,,,,,,,,,,,gray,cross
303.0,6.0,1.0,1.0,3.0,3.0,413.6172309999892,4.0,1.0,phase_1,,,,,,,,,,,,,green,flipped triangle
652.0,7.0,2.0,1.0,1.0,1.0,473.7786740001866,4.0,1.0,phase_1,,,,,,,,,,,,,yellow,triangle
645.0,3.0,2.0,0.0,4.0,4.0,416.8350469999495,4.0,1.0,phase_1,,,,,,,,,,,,,gray,cross
344.0,2.0,1.0,0.0,4.0,4.0,390.2243069999258,4.0,1.0,phase_1,,,,,,,,,,,,,magenta,hexagon
1308.0,8.0,4.0,1.0,4.0,4.0,389.6117280000908,4.0,1.0,phase_1,,,,,,,,,,,,,white,circle
0.0,3.0,0.0,0.0,3.0,3.0,441.3060250001308,4.0,1.0,phase_1,,,,,,,,,,,,,gray,cross
310.0,2.0,1.0,0.0,3.0,3.0,417.142044000002,4.0,1.0,phase_1,,,,,,,,,,,,,magenta,hexagon
0.0,2.0,0.0,0.0,4.0,4.0,408.4086380000826,4.0,1.0,phase_1,,,,,,,,,,,,,magenta,hexagon
157.0,1.0,0.5,0.0,1.0,1.0,537.6187169999866,4.0,1.0,phase_1,,,,,,,,,,,,,cyan,I
0.0,4.0,0.0,0.0,2.0,2.0,760.1330079999116,4.0,2.0,phase_1,,,,,,,,,,,,,blue,square
140.0,5.0,0.5,1.0,3.0,3.0,509.5829900001263,4.0,1.0,phase_1,,,,,,,,,,,,,orange,diamond
642.0,7.0,2.0,1.0,1.0,1.0,573.5882760000095,4.0,1.0,phase_1,,,,,,,,,,,,,yellow,triangle
663.0,3.0,2.0,0.0,1.0,1.0,564.4184459999906,4.0,1.0,phase_1,,,,,,,,,,,,,gray,cross
185.0,1.0,0.5,0.0,3.0,3.0,510.8554460000505,4.0,1.0,phase_1,,,,,,,,,,,,,cyan,I
307.0,6.0,1.0,1.0,1.0,1.0,408.6711249999553,4.0,1.0,phase_1,,,,,,,,,,,,,green,flipped triangle
0.0,2.0,1.0,0.0,5.0,5.0,659.403889000032,1.0,1.0,phase_2,go,250.0,250.0,1.0,,,,,,,,,magenta,hexagon
0.0,3.0,2.0,0.0,6.0,6.0,620.4966730001615,1.0,1.0,phase_2,go,250.0,250.0,1.0,,,,,,,,,gray,cross
0.0,4.0,4.0,0.0,6.0,6.0,1278.1963269999324,1.0,1.0,phase_2,go,250.0,250.0,1.0,,,,,,,,,blue,square
0.0,1.0,0.5,0.0,5.0,5.0,722.4400299999161,1.0,1.0,phase_2,go,250.0,250.0,1.0,,,,,,,,,cyan,I
0.0,5.0,0.5,1.0,6.0,6.0,870.4548650000561,1.0,1.0,phase_2,go,250.0,250.0,1.0,,,,,,,,,orange,diamond
0.0,7.0,2.0,1.0,6.0,6.0,618.5542610000994,1.0,1.0,phase_2,stop,250.0,250.0,3.0,,,,,,,,,yellow,triangle
0.0,7.0,2.0,1.0,6.0,0.0,0.0,1.0,1.0,phase_2,stop,250.0,200.0,4.0,,,,,,,,,yellow,triangle
0.0,4.0,4.0,0.0,5.0,5.0,1238.2382700000107,1.0,1.0,phase_2,go,250.0,250.0,1.0,,,,,,,,,blue,square
0.0,3.0,2.0,0.0,6.0,6.0,699.1000400000758,1.0,1.0,phase_2,go,250.0,250.0,1.0,,,,,,,,,gray,cross
0.0,7.0,2.0,1.0,5.0,0.0,0.0,1.0,1.0,phase_2,stop,250.0,250.0,4.0,,,,,,,,,yellow,triangle
0.0,6.0,1.0,1.0,5.0,0.0,0.0,1.0,1.0,phase_2,stop,300.0,250.0,4.0,,,,,,,,,green,flipped triangle
0.0,8.0,4.0,1.0,5.0,0.0,0.0,1.0,1.0,phase_2,stop,350.0,250.0,4.0,,,,,,,,,white,circle
0.0,6.0,1.0,1.0,5.0,5.0,877.4025779998738,1.0,1.0,phase_2,go,400.0,250.0,1.0,,,,,,,,,green,flipped triangle
0.0,1.0,0.5,0.0,5.0,5.0,773.3295620000717,1.0,1.0,phase_2,go,400.0,250.0,1.0,,,,,,,,,cyan,I
0.0,8.0,4.0,1.0,6.0,6.0,970.5024280001452,1.0,1.0,phase_2,go,400.0,250.0,1.0,,,,,,,,,white,circle
0.0,4.0,4.0,0.0,6.0,6.0,897.4855310000294,1.0,1.0,phase_2,go,400.0,250.0,1.0,,,,,,,,,blue,square
0.0,7.0,2.0,1.0,5.0,5.0,859.2629889999444,1.0,1.0,phase_2,go,400.0,250.0,1.0,,,,,,,,,yellow,triangle
0.0,7.0,2.0,1.0,6.0,0.0,0.0,1.0,1.0,phase_2,stop,400.0,250.0,4.0,,,,,,,,,yellow,triangle
0.0,4.0,4.0,0.0,5.0,5.0,774.5329730000776,1.0,1.0,phase_2,go,400.0,300.0,1.0,,,,,,,,,blue,square
0.0,4.0,4.0,0.0,6.0,6.0,886.6656180000518,1.0,1.0,phase_2,go,400.0,300.0,1.0,,,,,,,,,blue,square
0.0,5.0,0.5,1.0,6.0,0.0,0.0,1.0,1.0,phase_2,stop,400.0,300.0,4.0,,,,,,,,,orange,diamond
0.0,4.0,4.0,0.0,5.0,5.0,772.6581420001821,1.0,1.0,phase_2,go,400.0,350.0,1.0,,,,,,,,,blue,square
0.0,8.0,4.0,1.0,6.0,6.0,820.8611980001024,1.0,1.0,phase_2,go,400.0,350.0,1.0,,,,,,,,,white,circle
0.0,5.0,0.5,1.0,5.0,5.0,989.7392739999304,1.0,1.0,phase_2,go,400.0,350.0,1.0,,,,,,,,,orange,diamond
0.0,6.0,1.0,1.0,5.0,0.0,0.0,1.0,1.0,phase_2,stop,400.0,350.0,4.0,,,,,,,,,green,flipped triangle
0.0,3.0,2.0,0.0,5.0,5.0,744.7671380000429,1.0,1.0,phase_2,go,450.0,350.0,1.0,,,,,,,,,gray,cross
0.0,5.0,0.5,1.0,5.0,0.0,0.0,1.0,1.0,phase_2,stop,450.0,350.0,4.0,,,,,,,,,orange,diamond
0.0,6.0,1.0,1.0,6.0,0.0,0.0,1.0,1.0,phase_2,stop,500.0,350.0,4.0,,,,,,,,,green,flipped triangle
0.0,6.0,1.0,1.0,6.0,6.0,923.6126480000166,1.0,1.0,phase_2,go,500.0,400.0,1.0,,,,,,,,,green,flipped triangle
0.0,5.0,0.5,1.0,5.0,5.0,1015.9338889998253,1.0,1.0,phase_2,go,500.0,400.0,1.0,,,,,,,,,orange,diamond
0.0,8.0,4.0,1.0,5.0,0.0,0.0,1.0,1.0,phase_2,stop,500.0,400.0,4.0,,,,,,,,,white,circle
0.0,5.0,0.5,1.0,6.0,6.0,875.0084130001596,1.0,1.0,phase_2,go,550.0,400.0,1.0,,,,,,,,,orange,diamond
0.0,1.0,0.5,0.0,6.0,6.0,1182.8718080000726,1.0,1.0,phase_2,go,550.0,400.0,1.0,,,,,,,,,cyan,I
0.0,7.0,2.0,1.0,6.0,0.0,0.0,1.0,1.0,phase_2,stop,550.0,400.0,4.0,,,,,,,,,yellow,triangle
0.0,4.0,4.0,0.0,6.0,6.0,924.206015999971,1.0,1.0,phase_2,go,550.0,450.0,1.0,,,,,,,,,blue,square
0.0,5.0,0.5,1.0,6.0,0.0,0.0,1.0,1.0,phase_2,stop,550.0,450.0,4.0,,,,,,,,,orange,diamond
0.0,8.0,4.0,1.0,5.0,5.0,542.5923959996908,2.0,1.0,phase_2,stop,550.0,500.0,3.0,,,,,,,,,white,circle
0.0,2.0,1.0,0.0,5.0,5.0,662.1345759999713,2.0,1.0,phase_2,go,500.0,500.0,1.0,,,,,,,,,magenta,hexagon
0.0,8.0,4.0,1.0,6.0,0.0,0.0,2.0,1.0,phase_2,stop,500.0,500.0,4.0,,,,,,,,,white,circle
0.0,2.0,1.0,0.0,5.0,5.0,607.1833010000773,2.0,1.0,phase_2,go,500.0,550.0,1.0,,,,,,,,,magenta,hexagon
0.0,7.0,2.0,1.0,5.0,0.0,0.0,2.0,1.0,phase_2,stop,500.0,550.0,4.0,,,,,,,,,yellow,triangle
0.0,7.0,2.0,1.0,5.0,0.0,0.0,2.0,1.0,phase_2,stop,550.0,550.0,4.0,,,,,,,,,yellow,triangle
0.0,6.0,1.0,1.0,6.0,6.0,758.5235670003385,2.0,1.0,phase_2,go,600.0,550.0,1.0,,,,,,,,,green,flipped triangle
0.0,1.0,0.5,0.0,5.0,5.0,784.0632699999333,2.0,1.0,phase_2,go,600.0,550.0,1.0,,,,,,,,,cyan,I
0.0,2.0,1.0,0.0,6.0,6.0,729.3003360000512,2.0,1.0,phase_2,go,600.0,550.0,1.0,,,,,,,,,magenta,hexagon
0.0,2.0,1.0,0.0,6.0,6.0,1080.578460000197,2.0,1.0,phase_2,go,600.0,550.0,1.0,,,,,,,,,magenta,hexagon
0.0,6.0,1.0,1.0,6.0,0.0,0.0,2.0,1.0,phase_2,stop,600.0,550.0,4.0,,,,,,,,,green,flipped triangle
0.0,2.0,1.0,0.0,5.0,5.0,877.6277030001438,2.0,1.0,phase_2,go,600.0,600.0,1.0,,,,,,,,,magenta,hexagon
0.0,1.0,0.5,0.0,6.0,6.0,598.2407729998158,2.0,1.0,phase_2,go,600.0,600.0,1.0,,,,,,,,,cyan,I
0.0,6.0,1.0,1.0,6.0,6.0,718.1925310001134,2.0,1.0,phase_2,stop,600.0,600.0,3.0,,,,,,,,,green,flipped triangle
0.0,5.0,0.5,1.0,5.0,5.0,797.0779100000982,2.0,1.0,phase_2,stop,600.0,550.0,3.0,,,,,,,,,orange,diamond
0.0,7.0,2.0,1.0,6.0,6.0,811.9321150002179,2.0,1.0,phase_2,go,550.0,550.0,1.0,,,,,,,,,yellow,triangle
0.0,5.0,0.5,1.0,5.0,0.0,0.0,2.0,1.0,phase_2,stop,550.0,550.0,4.0,,,,,,,,,orange,diamond
0.0,3.0,2.0,0.0,6.0,6.0,571.2349330001416,2.0,1.0,phase_2,go,600.0,550.0,1.0,,,,,,,,,gray,cross
0.0,2.0,1.0,0.0,6.0,6.0,1054.5741300002192,2.0,1.0,phase_2,go,600.0,550.0,1.0,,,,,,,,,magenta,hexagon
0.0,7.0,2.0,1.0,6.0,0.0,0.0,2.0,1.0,phase_2,stop,600.0,550.0,4.0,,,,,,,,,yellow,triangle
0.0,1.0,0.5,0.0,6.0,6.0,1224.4404199996095,2.0,1.0,phase_2,go,600.0,600.0,1.0,,,,,,,,,cyan,I
0.0,1.0,0.5,0.0,6.0,6.0,1141.3275469999462,2.0,1.0,phase_2,go,600.0,600.0,1.0,,,,,,,,,cyan,I
0.0,6.0,1.0,1.0,6.0,0.0,0.0,2.0,1.0,phase_2,stop,600.0,600.0,4.0,,,,,,,,,green,flipped triangle
0.0,6.0,1.0,1.0,5.0,0.0,0.0,2.0,1.0,phase_2,stop,600.0,650.0,4.0,,,,,,,,,green,flipped triangle
0.0,2.0,1.0,0.0,6.0,6.0,570.2591700000994,2.0,1.0,phase_2,go,650.0,650.0,1.0,,,,,,,,,magenta,hexagon
0.0,5.0,0.5,1.0,6.0,6.0,703.2626629998049,2.0,1.0,phase_2,stop,650.0,650.0,3.0,,,,,,,,,orange,diamond
0.0,6.0,1.0,1.0,5.0,0.0,0.0,2.0,1.0,phase_2,stop,650.0,600.0,4.0,,,,,,,,,green,flipped triangle
0.0,5.0,0.5,1.0,5.0,5.0,512.0682449996821,2.0,1.0,phase_2,stop,700.0,600.0,3.0,,,,,,,,,orange,diamond
0.0,2.0,1.0,0.0,5.0,5.0,950.6128520001766,2.0,1.0,phase_2,go,650.0,600.0,1.0,,,,,,,,,magenta,hexagon
0.0,1.0,0.5,0.0,5.0,5.0,1223.3264910000798,2.0,1.0,phase_2,go,650.0,600.0,1.0,,,,,,,,,cyan,I
0.0,8.0,4.0,1.0,5.0,0.0,0.0,2.0,1.0,phase_2,stop,650.0,600.0,4.0,,,,,,,,,white,circle
0.0,5.0,0.5,1.0,5.0,5.0,566.4909819997774,2.0,1.0,phase_2,stop,700.0,600.0,3.0,,,,,,,,,orange,diamond
0.0,2.0,1.0,0.0,6.0,6.0,811.8352290002804,2.0,1.0,phase_2,go,650.0,600.0,1.0,,,,,,,,,magenta,hexagon
0.0,2.0,1.0,0.0,5.0,5.0,924.1789480001898,2.0,1.0,phase_2,go,650.0,600.0,1.0,,,,,,,,,magenta,hexagon
0.0,4.0,4.0,0.0,5.0,5.0,428.2652789997883,2.0,1.0,phase_2,go,650.0,600.0,1.0,,,,,,,,,blue,square
0.0,8.0,4.0,1.0,5.0,5.0,438.2100450002326,2.0,1.0,phase_2,stop,650.0,600.0,3.0,,,,,,,,,white,circle
0.0,7.0,2.0,1.0,5.0,5.0,774.5103360002759,3.0,1.0,phase_2,stop,600.0,600.0,3.0,,,,,,,,,yellow,triangle
0.0,4.0,4.0,0.0,6.0,6.0,896.1826299996574,3.0,1.0,phase_2,go,550.0,600.0,1.0,,,,,,,,,blue,square
0.0,6.0,1.0,1.0,6.0,0.0,0.0,3.0,1.0,phase_2,stop,550.0,600.0,4.0,,,,,,,,,green,flipped triangle
0.0,6.0,1.0,1.0,5.0,0.0,0.0,3.0,1.0,phase_2,stop,550.0,650.0,4.0,,,,,,,,,green,flipped triangle
0.0,7.0,2.0,1.0,5.0,0.0,0.0,3.0,1.0,phase_2,stop,600.0,650.0,4.0,,,,,,,,,yellow,triangle
0.0,1.0,0.5,0.0,5.0,5.0,1129.21911300009,3.0,1.0,phase_2,go,650.0,650.0,1.0,,,,,,,,,cyan,I
0.0,1.0,0.5,0.0,6.0,6.0,1044.1912939995746,3.0,1.0,phase_2,go,650.0,650.0,1.0,,,,,,,,,cyan,I
0.0,8.0,4.0,1.0,5.0,0.0,0.0,3.0,1.0,phase_2,stop,650.0,650.0,4.0,,,,,,,,,white,circle
0.0,1.0,0.5,0.0,6.0,6.0,1139.8772749998898,3.0,1.0,phase_2,go,700.0,650.0,1.0,,,,,,,,,cyan,I
0.0,6.0,1.0,1.0,5.0,5.0,1110.7234930000232,3.0,1.0,phase_2,go,700.0,650.0,1.0,,,,,,,,,green,flipped triangle
0.0,5.0,0.5,1.0,6.0,6.0,978.6402619997716,3.0,1.0,phase_2,go,700.0,650.0,1.0,,,,,,,,,orange,diamond
0.0,3.0,2.0,0.0,5.0,5.0,1148.8344940003117,3.0,1.0,phase_2,go,700.0,650.0,1.0,,,,,,,,,gray,cross
0.0,3.0,2.0,0.0,5.0,5.0,1194.135489999553,3.0,1.0,phase_2,go,700.0,650.0,1.0,,,,,,,,,gray,cross
0.0,1.0,0.5,0.0,6.0,6.0,904.8220669997136,3.0,1.0,phase_2,go,700.0,650.0,1.0,,,,,,,,,cyan,I
0.0,8.0,4.0,1.0,6.0,0.0,0.0,3.0,1.0,phase_2,stop,700.0,650.0,4.0,,,,,,,,,white,circle
0.0,1.0,0.5,0.0,5.0,5.0,847.187526000198,3.0,1.0,phase_2,go,700.0,700.0,1.0,,,,,,,,,cyan,I
0.0,8.0,4.0,1.0,6.0,6.0,887.5793180000073,3.0,1.0,phase_2,stop,700.0,700.0,3.0,,,,,,,,,white,circle
0.0,8.0,4.0,1.0,6.0,0.0,0.0,3.0,1.0,phase_2,stop,700.0,650.0,4.0,,,,,,,,,white,circle
0.0,3.0,2.0,0.0,5.0,0.0,0.0,3.0,1.0,phase_2,go,700.0,700.0,5.0,,,,,,,,,gray,cross
0.0,4.0,4.0,0.0,5.0,5.0,485.109005999675,3.0,1.0,phase_2,go,700.0,700.0,1.0,,,,,,,,,blue,square
0.0,7.0,2.0,1.0,5.0,0.0,0.0,3.0,1.0,phase_2,stop,700.0,700.0,4.0,,,,,,,,,yellow,triangle
0.0,7.0,2.0,1.0,5.0,5.0,1162.605732999964,3.0,1.0,phase_2,go,750.0,700.0,1.0,,,,,,,,,yellow,triangle
0.0,2.0,1.0,0.0,6.0,6.0,1212.7562780001426,3.0,1.0,phase_2,go,750.0,700.0,1.0,,,,,,,,,magenta,hexagon
0.0,4.0,4.0,0.0,6.0,6.0,1062.311944999692,3.0,1.0,phase_2,go,750.0,700.0,1.0,,,,,,,,,blue,square
0.0,1.0,0.5,0.0,6.0,6.0,1115.149339999789,3.0,1.0,phase_2,go,750.0,700.0,1.0,,,,,,,,,cyan,I
0.0,2.0,1.0,0.0,6.0,6.0,1110.610964999978,3.0,1.0,phase_2,go,750.0,700.0,1.0,,,,,,,,,magenta,hexagon
0.0,6.0,1.0,1.0,5.0,0.0,0.0,3.0,1.0,phase_2,stop,750.0,700.0,4.0,,,,,,,,,green,flipped triangle
0.0,3.0,2.0,0.0,5.0,0.0,0.0,3.0,1.0,phase_2,go,800.0,700.0,5.0,,,,,,,,,gray,cross
0.0,1.0,0.5,0.0,6.0,6.0,1053.1607789998816,3.0,1.0,phase_2,go,800.0,700.0,1.0,,,,,,,,,cyan,I
0.0,8.0,4.0,1.0,5.0,5.0,784.3945720001102,3.0,1.0,phase_2,go,800.0,700.0,1.0,,,,,,,,,white,circle
0.0,7.0,2.0,1.0,5.0,5.0,401.0148659999686,3.0,1.0,phase_2,stop,800.0,700.0,3.0,,,,,,,,,yellow,triangle
0.0,2.0,1.0,0.0,6.0,6.0,1147.0180549999895,3.0,1.0,phase_2,go,750.0,700.0,1.0,,,,,,,,,magenta,hexagon
0.0,5.0,0.5,1.0,6.0,6.0,865.2841100001751,3.0,1.0,phase_2,stop,750.0,700.0,3.0,,,,,,,,,orange,diamond
0.0,3.0,2.0,0.0,5.0,5.0,1336.1371529999817,3.0,1.0,phase_2,go,750.0,650.0,1.0,,,,,,,,,gray,cross
0.0,6.0,1.0,1.0,6.0,0.0,0.0,3.0,1.0,phase_2,stop,750.0,650.0,4.0,,,,,,,,,green,flipped triangle
0.0,6.0,1.0,1.0,5.0,5.0,978.486261999933,3.0,1.0,phase_2,go,750.0,700.0,1.0,,,,,,,,,green,flipped triangle
0.0,7.0,2.0,1.0,5.0,5.0,914.970836000066,4.0,1.0,phase_2,go,750.0,700.0,1.0,,,,,,,,,yellow,triangle
0.0,6.0,1.0,1.0,6.0,6.0,1071.1929250001049,4.0,1.0,phase_2,go,750.0,700.0,1.0,,,,,,,,,green,flipped triangle
0.0,7.0,2.0,1.0,6.0,6.0,1121.7071529999885,4.0,1.0,phase_2,go,750.0,700.0,1.0,,,,,,,,,yellow,triangle
0.0,5.0,0.5,1.0,6.0,0.0,0.0,4.0,1.0,phase_2,stop,750.0,700.0,4.0,,,,,,,,,orange,diamond
0.0,5.0,0.5,1.0,5.0,5.0,882.9545519997737,4.0,1.0,phase_2,stop,750.0,750.0,3.0,,,,,,,,,orange,diamond
0.0,5.0,0.5,1.0,6.0,0.0,0.0,4.0,1.0,phase_2,stop,700.0,750.0,4.0,,,,,,,,,orange,diamond
0.0,7.0,2.0,1.0,6.0,6.0,1368.4205689996816,4.0,1.0,phase_2,go,700.0,800.0,1.0,,,,,,,,,yellow,triangle
0.0,8.0,4.0,1.0,5.0,0.0,0.0,4.0,1.0,phase_2,stop,700.0,800.0,4.0,,,,,,,,,white,circle
0.0,2.0,1.0,0.0,5.0,5.0,1199.8679289999927,4.0,1.0,phase_2,go,750.0,800.0,1.0,,,,,,,,,magenta,hexagon
0.0,5.0,0.5,1.0,5.0,0.0,0.0,4.0,1.0,phase_2,stop,750.0,800.0,4.0,,,,,,,,,orange,diamond
0.0,8.0,4.0,1.0,5.0,0.0,0.0,4.0,1.0,phase_2,stop,800.0,800.0,4.0,,,,,,,,,white,circle
0.0,4.0,4.0,0.0,5.0,5.0,1486.6806730001372,4.0,1.0,phase_2,go,850.0,800.0,1.0,,,,,,,,,blue,square
0.0,7.0,2.0,1.0,6.0,6.0,903.9589019998856,4.0,1.0,phase_2,stop,850.0,800.0,3.0,,,,,,,,,yellow,triangle
0.0,3.0,2.0,0.0,6.0,0.0,0.0,4.0,1.0,phase_2,go,850.0,750.0,5.0,,,,,,,,,gray,cross
0.0,2.0,1.0,0.0,5.0,5.0,559.9861110003985,4.0,1.0,phase_2,go,850.0,750.0,1.0,,,,,,,,,magenta,hexagon
0.0,5.0,0.5,1.0,6.0,0.0,0.0,4.0,1.0,phase_2,stop,850.0,750.0,4.0,,,,,,,,,orange,diamond
0.0,8.0,4.0,1.0,6.0,0.0,0.0,4.0,1.0,phase_2,stop,850.0,800.0,4.0,,,,,,,,,white,circle
0.0,6.0,1.0,1.0,5.0,0.0,0.0,4.0,1.0,phase_2,stop,850.0,850.0,4.0,,,,,,,,,green,flipped triangle
0.0,3.0,2.0,0.0,6.0,6.0,1429.1286040001978,4.0,1.0,phase_2,go,900.0,850.0,1.0,,,,,,,,,gray,cross
0.0,6.0,1.0,1.0,6.0,0.0,0.0,4.0,1.0,phase_2,stop,900.0,850.0,4.0,,,,,,,,,green,flipped triangle
0.0,3.0,2.0,0.0,6.0,6.0,1418.8481129999673,4.0,1.0,phase_2,go,900.0,900.0,1.0,,,,,,,,,gray,cross
0.0,2.0,1.0,0.0,6.0,6.0,1278.532183000152,4.0,1.0,phase_2,go,900.0,900.0,1.0,,,,,,,,,magenta,hexagon
0.0,8.0,4.0,1.0,5.0,0.0,0.0,4.0,1.0,phase_2,stop,900.0,900.0,4.0,,,,,,,,,white,circle
0.0,5.0,0.5,1.0,6.0,0.0,0.0,4.0,1.0,phase_2,stop,950.0,900.0,4.0,,,,,,,,,orange,diamond
0.0,7.0,2.0,1.0,6.0,6.0,876.2641880002775,4.0,1.0,phase_2,stop,950.0,950.0,3.0,,,,,,,,,yellow,triangle
0.0,8.0,4.0,1.0,5.0,5.0,812.565043000177,4.0,1.0,phase_2,go,950.0,900.0,1.0,,,,,,,,,white,circle
0.0,7.0,2.0,1.0,6.0,0.0,0.0,4.0,1.0,phase_2,stop,950.0,900.0,4.0,,,,,,,,,yellow,triangle
0.0,2.0,1.0,0.0,5.0,5.0,1144.363134999821,4.0,1.0,phase_2,go,950.0,950.0,1.0,,,,,,,,,magenta,hexagon
0.0,6.0,1.0,1.0,6.0,0.0,0.0,4.0,1.0,phase_2,stop,950.0,950.0,4.0,,,,,,,,,green,flipped triangle
0.0,4.0,4.0,0.0,6.0,0.0,0.0,4.0,1.0,phase_2,go,950.0,1000.0,5.0,,,,,,,,,blue,square
0.0,2.0,1.0,0.0,6.0,6.0,945.1122689997646,4.0,1.0,phase_2,go,950.0,1000.0,1.0,,,,,,,,,magenta,hexagon
0.0,1.0,0.5,0.0,5.0,5.0,485.4920789998687,4.0,1.0,phase_2,go,950.0,1000.0,1.0,,,,,,,,,cyan,I
0.0,6.0,1.0,1.0,6.0,0.0,0.0,4.0,1.0,phase_2,stop,950.0,1000.0,4.0,,,,,,,,,green,flipped triangle
0.0,4.0,4.0,0.0,6.0,6.0,803.351408999788,4.0,1.0,phase_2,go,950.0,1050.0,1.0,,,,,,,,,blue,square
0.0,2.0,1.0,0.0,6.0,6.0,401.4491860002636,4.0,1.0,phase_2,go,950.0,1050.0,1.0,,,,,,,,,magenta,hexagon
0.0,2.0,1.0,0.0,6.0,6.0,364.8983570001292,4.0,1.0,phase_2,go,950.0,1050.0,1.0,,,,,,,,,magenta,hexagon
0.0,8.0,4.0,1.0,6.0,6.0,1101.3084049995996,5.0,1.0,phase_2,stop,950.0,1050.0,3.0,,,,,,,,,white,circle
0.0,5.0,0.5,1.0,5.0,5.0,410.6062079999901,5.0,1.0,phase_2,stop,950.0,1000.0,3.0,,,,,,,,,orange,diamond
0.0,4.0,4.0,0.0,6.0,6.0,448.5839559997657,5.0,1.0,phase_2,go,900.0,1000.0,1.0,,,,,,,,,blue,square
0.0,3.0,2.0,0.0,6.0,6.0,690.5178480001268,5.0,1.0,phase_2,go,900.0,1000.0,1.0,,,,,,,,,gray,cross
0.0,7.0,2.0,1.0,6.0,6.0,383.5418369999388,5.0,1.0,phase_2,stop,900.0,1000.0,3.0,,,,,,,,,yellow,triangle
0.0,3.0,2.0,0.0,5.0,5.0,383.5196889999679,5.0,1.0,phase_2,go,900.0,950.0,1.0,,,,,,,,,gray,cross
0.0,3.0,2.0,0.0,6.0,6.0,1092.115541000112,5.0,1.0,phase_2,go,900.0,950.0,1.0,,,,,,,,,gray,cross
0.0,5.0,0.5,1.0,6.0,6.0,764.8060540000188,5.0,1.0,phase_2,stop,900.0,950.0,3.0,,,,,,,,,orange,diamond
0.0,2.0,1.0,0.0,6.0,6.0,597.9819369999859,5.0,1.0,phase_2,go,900.0,900.0,1.0,,,,,,,,,magenta,hexagon
0.0,4.0,4.0,0.0,6.0,6.0,1184.5773999998528,5.0,1.0,phase_2,go,900.0,900.0,1.0,,,,,,,,,blue,square
0.0,3.0,2.0,0.0,5.0,5.0,995.8857719998376,5.0,1.0,phase_2,go,900.0,900.0,1.0,,,,,,,,,gray,cross
0.0,4.0,4.0,0.0,6.0,6.0,1164.699851000023,5.0,1.0,phase_2,go,900.0,900.0,1.0,,,,,,,,,blue,square
0.0,5.0,0.5,1.0,6.0,0.0,0.0,5.0,1.0,phase_2,stop,900.0,900.0,4.0,,,,,,,,,orange,diamond
0.0,8.0,4.0,1.0,6.0,0.0,0.0,5.0,1.0,phase_2,stop,900.0,950.0,4.0,,,,,,,,,white,circle
0.0,6.0,1.0,1.0,5.0,0.0,0.0,5.0,1.0,phase_2,stop,900.0,1000.0,4.0,,,,,,,,,green,flipped triangle
0.0,3.0,2.0,0.0,5.0,5.0,1303.2699469999898,5.0,1.0,phase_2,go,950.0,1000.0,1.0,,,,,,,,,gray,cross
0.0,6.0,1.0,1.0,5.0,5.0,559.6390379996592,5.0,1.0,phase_2,stop,950.0,1000.0,3.0,,,,,,,,,green,flipped triangle
0.0,3.0,2.0,0.0,6.0,6.0,513.026278000325,5.0,1.0,phase_2,go,900.0,1000.0,1.0,,,,,,,,,gray,cross
0.0,7.0,2.0,1.0,5.0,5.0,718.9559389998976,5.0,1.0,phase_2,stop,900.0,1000.0,3.0,,,,,,,,,yellow,triangle
0.0,3.0,2.0,0.0,6.0,6.0,672.7842109999074,5.0,1.0,phase_2,go,850.0,1000.0,1.0,,,,,,,,,gray,cross
0.0,6.0,1.0,1.0,6.0,6.0,689.4964120001532,5.0,1.0,phase_2,stop,850.0,1000.0,3.0,,,,,,,,,green,flipped triangle
0.0,3.0,2.0,0.0,6.0,6.0,522.9841730001681,5.0,1.0,phase_2,go,850.0,950.0,1.0,,,,,,,,,gray,cross
0.0,7.0,2.0,1.0,6.0,6.0,410.9963010000683,5.0,1.0,phase_2,stop,850.0,950.0,3.0,,,,,,,,,yellow,triangle
0.0,2.0,1.0,0.0,5.0,5.0,382.4293030002081,5.0,1.0,phase_2,go,850.0,900.0,1.0,,,,,,,,,magenta,hexagon
0.0,5.0,0.5,1.0,6.0,6.0,437.4576390000584,5.0,1.0,phase_2,stop,850.0,900.0,3.0,,,,,,,,,orange,diamond
0.0,6.0,1.0,1.0,5.0,5.0,775.5190150000999,5.0,1.0,phase_2,stop,850.0,850.0,3.0,,,,,,,,,green,flipped triangle
0.0,4.0,4.0,0.0,5.0,5.0,522.4313839999013,5.0,1.0,phase_2,go,800.0,850.0,1.0,,,,,,,,,blue,square
0.0,4.0,4.0,0.0,6.0,6.0,839.6886919999815,5.0,1.0,phase_2,go,800.0,850.0,1.0,,,,,,,,,blue,square
0.0,7.0,2.0,1.0,5.0,5.0,457.2798359999979,5.0,1.0,phase_2,stop,800.0,850.0,3.0,,,,,,,,,yellow,triangle
0.0,8.0,4.0,1.0,5.0,5.0,531.9563449997986,5.0,1.0,phase_2,stop,750.0,850.0,3.0,,,,,,,,,white,circle
0.0,1.0,0.5,0.0,6.0,6.0,326.1089610000454,5.0,1.0,phase_2,go,700.0,850.0,1.0,,,,,,,,,cyan,I
0.0,7.0,2.0,1.0,5.0,5.0,541.0316779998539,5.0,1.0,phase_2,stop,700.0,850.0,3.0,,,,,,,,,yellow,triangle
0.0,5.0,0.5,1.0,5.0,0.0,0.0,5.0,1.0,phase_2,stop,650.0,850.0,4.0,,,,,,,,,orange,diamond
0.0,5.0,0.5,1.0,6.0,0.0,0.0,5.0,1.0,phase_2,stop,700.0,850.0,4.0,,,,,,,,,orange,diamond
0.0,4.0,4.0,0.0,6.0,6.0,1201.6189030000533,5.0,1.0,phase_2,go,700.0,900.0,1.0,,,,,,,,,blue,square
0.0,3.0,2.0,0.0,5.0,5.0,1363.7132809999457,5.0,1.0,phase_2,go,700.0,900.0,1.0,,,,,,,,,gray,cross
0.0,3.0,2.0,0.0,5.0,5.0,516.3790709998466,6.0,1.0,phase_2,go,700.0,900.0,1.0,,,,,,,,,gray,cross
0.0,5.0,0.5,1.0,5.0,0.0,0.0,6.0,1.0,phase_2,stop,700.0,900.0,4.0,,,,,,,,,orange,diamond
0.0,2.0,1.0,0.0,5.0,5.0,1035.4069320001145,6.0,1.0,phase_2,go,750.0,900.0,1.0,,,,,,,,,magenta,hexagon
0.0,6.0,1.0,1.0,5.0,5.0,1122.1188229997097,6.0,1.0,phase_2,go,750.0,900.0,1.0,,,,,,,,,green,flipped triangle
0.0,3.0,2.0,0.0,6.0,6.0,822.4479450000217,6.0,1.0,phase_2,go,750.0,900.0,1.0,,,,,,,,,gray,cross
0.0,1.0,0.5,0.0,5.0,5.0,1042.9770250002548,6.0,1.0,phase_2,go,750.0,900.0,1.0,,,,,,,,,cyan,I
0.0,7.0,2.0,1.0,5.0,5.0,1222.7253820001351,6.0,1.0,phase_2,go,750.0,900.0,1.0,,,,,,,,,yellow,triangle
0.0,4.0,4.0,0.0,5.0,5.0,1045.419135999964,6.0,1.0,phase_2,go,750.0,900.0,1.0,,,,,,,,,blue,square
0.0,1.0,0.5,0.0,6.0,6.0,1205.5979679998927,6.0,1.0,phase_2,go,750.0,900.0,1.0,,,,,,,,,cyan,I
0.0,8.0,4.0,1.0,5.0,0.0,0.0,6.0,1.0,phase_2,stop,750.0,900.0,4.0,,,,,,,,,white,circle
0.0,2.0,1.0,0.0,6.0,6.0,1313.796110000112,6.0,1.0,phase_2,go,800.0,900.0,1.0,,,,,,,,,magenta,hexagon
0.0,1.0,0.5,0.0,6.0,6.0,1322.59433299987,6.0,1.0,phase_2,go,800.0,900.0,1.0,,,,,,,,,cyan,I
0.0,2.0,1.0,0.0,5.0,5.0,1163.1235579998247,6.0,1.0,phase_2,go,800.0,900.0,1.0,,,,,,,,,magenta,hexagon
0.0,8.0,4.0,1.0,5.0,5.0,1071.1007509999035,6.0,1.0,phase_2,go,800.0,900.0,1.0,,,,,,,,,white,circle
0.0,6.0,1.0,1.0,5.0,0.0,0.0,6.0,1.0,phase_2,stop,800.0,900.0,4.0,,,,,,,,,green,flipped triangle
0.0,3.0,2.0,0.0,5.0,5.0,1052.8404659999069,6.0,1.0,phase_2,go,850.0,900.0,1.0,,,,,,,,,gray,cross
0.0,7.0,2.0,1.0,5.0,0.0,0.0,6.0,1.0,phase_2,stop,850.0,900.0,4.0,,,,,,,,,yellow,triangle
0.0,4.0,4.0,0.0,5.0,5.0,1230.9457630003635,6.0,1.0,phase_2,go,900.0,900.0,1.0,,,,,,,,,blue,square
0.0,3.0,2.0,0.0,6.0,6.0,994.2721259999416,6.0,1.0,phase_2,go,900.0,900.0,1.0,,,,,,,,,gray,cross
0.0,4.0,4.0,0.0,6.0,6.0,726.4663779997136,6.0,1.0,phase_2,go,900.0,900.0,1.0,,,,,,,,,blue,square
0.0,4.0,4.0,0.0,5.0,5.0,744.7769340001287,6.0,1.0,phase_2,go,900.0,900.0,1.0,,,,,,,,,blue,square
0.0,5.0,0.5,1.0,5.0,5.0,1159.9485960000493,6.0,1.0,phase_2,go,900.0,900.0,1.0,,,,,,,,,orange,diamond
0.0,6.0,1.0,1.0,6.0,6.0,801.65620400021,6.0,1.0,phase_2,go,900.0,900.0,1.0,,,,,,,,,green,flipped triangle
0.0,3.0,2.0,0.0,6.0,6.0,1239.1640760001792,6.0,1.0,phase_2,go,900.0,900.0,1.0,,,,,,,,,gray,cross
0.0,2.0,1.0,0.0,5.0,5.0,1007.5772430000145,6.0,1.0,phase_2,go,900.0,900.0,1.0,,,,,,,,,magenta,hexagon
0.0,8.0,4.0,1.0,6.0,6.0,1058.1460899998092,6.0,1.0,phase_2,stop,900.0,900.0,3.0,,,,,,,,,white,circle
0.0,3.0,2.0,0.0,5.0,5.0,605.9630139998262,6.0,1.0,phase_2,go,900.0,850.0,1.0,,,,,,,,,gray,cross
0.0,3.0,2.0,0.0,6.0,6.0,1360.7664169999223,6.0,1.0,phase_2,go,900.0,850.0,1.0,,,,,,,,,gray,cross
0.0,5.0,0.5,1.0,6.0,6.0,1193.657338000321,6.0,1.0,phase_2,go,900.0,850.0,1.0,,,,,,,,,orange,diamond
0.0,4.0,4.0,0.0,6.0,6.0,839.5506219999334,6.0,1.0,phase_2,go,900.0,850.0,1.0,,,,,,,,,blue,square
0.0,8.0,4.0,1.0,6.0,0.0,0.0,6.0,1.0,phase_2,stop,900.0,850.0,4.0,,,,,,,,,white,circle
0.0,5.0,0.5,1.0,5.0,5.0,783.9272169999276,6.0,1.0,phase_2,go,900.0,900.0,1.0,,,,,,,,,orange,diamond
0.0,8.0,4.0,1.0,5.0,5.0,634.4505289998779,6.0,1.0,phase_2,stop,900.0,900.0,3.0,,,,,,,,,white,circle
0.0,8.0,4.0,1.0,5.0,5.0,690.2413640000304,6.0,1.0,phase_2,stop,850.0,900.0,3.0,,,,,,,,,white,circle
0.0,1.0,0.5,0.0,5.0,5.0,559.7730680001405,6.0,1.0,phase_2,go,800.0,900.0,1.0,,,,,,,,,cyan,I
0.0,5.0,0.5,1.0,6.0,6.0,579.5459159999155,6.0,1.0,phase_2,stop,800.0,900.0,3.0,,,,,,,,,orange,diamond
0.0,1.0,0.5,0.0,5.0,5.0,511.98915900022257,7.0,1.0,phase_2,go,800.0,850.0,1.0,,,,,,,,,cyan,I
0.0,2.0,1.0,0.0,6.0,6.0,1317.2171239998534,7.0,1.0,phase_2,go,800.0,850.0,1.0,,,,,,,,,magenta,hexagon
0.0,4.0,4.0,0.0,5.0,5.0,1196.4789410003505,7.0,1.0,phase_2,go,800.0,850.0,1.0,,,,,,,,,blue,square
0.0,6.0,1.0,1.0,5.0,0.0,0.0,7.0,1.0,phase_2,stop,800.0,850.0,4.0,,,,,,,,,green,flipped triangle
0.0,3.0,2.0,0.0,5.0,5.0,1007.7629030001845,7.0,1.0,phase_2,go,850.0,850.0,1.0,,,,,,,,,gray,cross
0.0,8.0,4.0,1.0,6.0,6.0,1132.861815000069,7.0,1.0,phase_2,go,850.0,850.0,1.0,,,,,,,,,white,circle
0.0,1.0,0.5,0.0,6.0,6.0,1046.283135000067,7.0,1.0,phase_2,go,850.0,850.0,1.0,,,,,,,,,cyan,I
0.0,6.0,1.0,1.0,5.0,0.0,0.0,7.0,1.0,phase_2,stop,850.0,850.0,4.0,,,,,,,,,green,flipped triangle
0.0,8.0,4.0,1.0,5.0,5.0,859.8829500001557,7.0,1.0,phase_2,go,900.0,850.0,1.0,,,,,,,,,white,circle
0.0,7.0,2.0,1.0,6.0,0.0,0.0,7.0,1.0,phase_2,stop,900.0,850.0,4.0,,,,,,,,,yellow,triangle
0.0,8.0,4.0,1.0,6.0,6.0,844.205761000012,7.0,1.0,phase_2,stop,900.0,900.0,3.0,,,,,,,,,white,circle
0.0,8.0,4.0,1.0,6.0,6.0,964.5026899997902,7.0,1.0,phase_2,go,900.0,850.0,1.0,,,,,,,,,white,circle
0.0,4.0,4.0,0.0,5.0,5.0,699.8630990001402,7.0,1.0,phase_2,go,900.0,850.0,1.0,,,,,,,,,blue,square
0.0,6.0,1.0,1.0,5.0,5.0,1493.8363799997203,7.0,1.0,phase_2,go,900.0,850.0,1.0,,,,,,,,,green,flipped triangle
0.0,5.0,0.5,1.0,5.0,0.0,0.0,7.0,1.0,phase_2,stop,900.0,850.0,4.0,,,,,,,,,orange,diamond
0.0,1.0,0.5,0.0,6.0,0.0,0.0,7.0,1.0,phase_2,go,950.0,850.0,5.0,,,,,,,,,cyan,I
0.0,3.0,2.0,0.0,5.0,5.0,570.1491670001815,7.0,1.0,phase_2,go,950.0,850.0,1.0,,,,,,,,,gray,cross
0.0,7.0,2.0,1.0,5.0,5.0,1148.3099349998156,7.0,1.0,phase_2,go,950.0,850.0,1.0,,,,,,,,,yellow,triangle
0.0,2.0,1.0,0.0,5.0,5.0,1083.8824140000725,7.0,1.0,phase_2,go,950.0,850.0,1.0,,,,,,,,,magenta,hexagon
0.0,4.0,4.0,0.0,5.0,5.0,1120.9238940000432,7.0,1.0,phase_2,go,950.0,850.0,1.0,,,,,,,,,blue,square
0.0,8.0,4.0,1.0,6.0,0.0,0.0,7.0,1.0,phase_2,stop,950.0,850.0,4.0,,,,,,,,,white,circle
0.0,4.0,4.0,0.0,5.0,5.0,933.799037999961,7.0,1.0,phase_2,go,950.0,900.0,1.0,,,,,,,,,blue,square
0.0,7.0,2.0,1.0,6.0,0.0,0.0,7.0,1.0,phase_2,stop,950.0,900.0,4.0,,,,,,,,,yellow,triangle
0.0,1.0,0.5,0.0,5.0,5.0,877.4706659996809,7.0,1.0,phase_2,go,950.0,950.0,1.0,,,,,,,,,cyan,I
0.0,6.0,1.0,1.0,6.0,0.0,0.0,7.0,1.0,phase_2,stop,950.0,950.0,4.0,,,,,,,,,green,flipped triangle
0.0,6.0,1.0,1.0,6.0,6.0,1047.5832629999786,7.0,1.0,phase_2,stop,950.0,1000.0,3.0,,,,,,,,,green,flipped triangle
0.0,1.0,0.5,0.0,6.0,6.0,645.2496259998952,7.0,1.0,phase_2,go,950.0,950.0,1.0,,,,,,,,,cyan,I
0.0,5.0,0.5,1.0,5.0,0.0,0.0,7.0,1.0,phase_2,stop,950.0,950.0,4.0,,,,,,,,,orange,diamond
0.0,1.0,0.5,0.0,5.0,5.0,764.7663249999823,7.0,1.0,phase_2,go,1000.0,950.0,1.0,,,,,,,,,cyan,I
0.0,3.0,2.0,0.0,6.0,6.0,1409.2001149997486,7.0,1.0,phase_2,go,1000.0,950.0,1.0,,,,,,,,,gray,cross
0.0,4.0,4.0,0.0,5.0,5.0,718.9093639999555,7.0,1.0,phase_2,go,1000.0,950.0,1.0,,,,,,,,,blue,square
0.0,5.0,0.5,1.0,5.0,0.0,0.0,7.0,1.0,phase_2,stop,1000.0,950.0,4.0,,,,,,,,,orange,diamond
0.0,1.0,0.5,0.0,5.0,5.0,1034.354276999693,7.0,1.0,phase_2,go,1050.0,950.0,1.0,,,,,,,,,cyan,I
0.0,7.0,2.0,1.0,6.0,6.0,1149.3922489999022,7.0,1.0,phase_2,go,1050.0,950.0,1.0,,,,,,,,,yellow,triangle
0.0,7.0,2.0,1.0,5.0,0.0,0.0,7.0,1.0,phase_2,stop,1050.0,950.0,4.0,,,,,,,,,yellow,triangle
0.0,5.0,0.5,1.0,5.0,5.0,1134.9748860002364,7.0,1.0,phase_2,stop,1100.0,950.0,3.0,,,,,,,,,orange,diamond
0.0,4.0,4.0,0.0,6.0,6.0,1106.0988369999905,8.0,1.0,phase_2,go,1050.0,950.0,1.0,,,,,,,,,blue,square
0.0,2.0,1.0,0.0,6.0,6.0,1227.3298139998587,8.0,1.0,phase_2,go,1050.0,950.0,1.0,,,,,,,,,magenta,hexagon
0.0,1.0,0.5,0.0,5.0,5.0,1149.612325000362,8.0,1.0,phase_2,go,1050.0,950.0,1.0,,,,,,,,,cyan,I
0.0,1.0,0.5,0.0,5.0,5.0,1185.4165039999316,8.0,1.0,phase_2,go,1050.0,950.0,1.0,,,,,,,,,cyan,I
0.0,7.0,2.0,1.0,6.0,6.0,1100.378584999817,8.0,1.0,phase_2,stop,1050.0,950.0,3.0,,,,,,,,,yellow,triangle
0.0,2.0,1.0,0.0,5.0,5.0,1217.9938309996032,8.0,1.0,phase_2,go,1050.0,900.0,1.0,,,,,,,,,magenta,hexagon
0.0,2.0,1.0,0.0,5.0,5.0,1259.558410000409,8.0,1.0,phase_2,go,1050.0,900.0,1.0,,,,,,,,,magenta,hexagon
0.0,1.0,0.5,0.0,5.0,5.0,1188.7901479999528,8.0,1.0,phase_2,go,1050.0,900.0,1.0,,,,,,,,,cyan,I
0.0,3.0,2.0,0.0,6.0,6.0,1208.721916999821,8.0,1.0,phase_2,go,1050.0,900.0,1.0,,,,,,,,,gray,cross
0.0,7.0,2.0,1.0,6.0,0.0,0.0,8.0,1.0,phase_2,stop,1050.0,900.0,4.0,,,,,,,,,yellow,triangle
0.0,1.0,0.5,0.0,6.0,6.0,984.0345910001816,8.0,1.0,phase_2,go,1050.0,950.0,1.0,,,,,,,,,cyan,I
0.0,8.0,4.0,1.0,6.0,6.0,1107.2103020001125,8.0,1.0,phase_2,stop,1050.0,950.0,3.0,,,,,,,,,white,circle
0.0,3.0,2.0,0.0,5.0,5.0,976.0712409997724,8.0,1.0,phase_2,go,1050.0,900.0,1.0,,,,,,,,,gray,cross
0.0,1.0,0.5,0.0,5.0,5.0,1408.5697969999271,8.0,1.0,phase_2,go,1050.0,900.0,1.0,,,,,,,,,cyan,I
0.0,4.0,4.0,0.0,5.0,0.0,0.0,8.0,1.0,phase_2,go,1050.0,900.0,5.0,,,,,,,,,blue,square
0.0,6.0,1.0,1.0,6.0,6.0,488.2455810002284,8.0,1.0,phase_2,stop,1050.0,900.0,3.0,,,,,,,,,green,flipped triangle
0.0,7.0,2.0,1.0,5.0,5.0,488.2959079995999,8.0,1.0,phase_2,stop,1050.0,850.0,3.0,,,,,,,,,yellow,triangle
0.0,4.0,4.0,0.0,6.0,6.0,337.6417300000867,8.0,1.0,phase_2,go,1000.0,850.0,1.0,,,,,,,,,blue,square
0.0,2.0,1.0,0.0,5.0,5.0,376.4365679999173,8.0,1.0,phase_2,go,1000.0,850.0,1.0,,,,,,,,,magenta,hexagon
0.0,5.0,0.5,1.0,6.0,6.0,704.8653910001121,8.0,1.0,phase_2,go,1000.0,850.0,1.0,,,,,,,,,orange,diamond
0.0,8.0,4.0,1.0,6.0,6.0,514.0364089998002,8.0,1.0,phase_2,stop,1000.0,850.0,3.0,,,,,,,,,white,circle
0.0,2.0,1.0,0.0,5.0,5.0,358.7217750000491,8.0,1.0,phase_2,go,1000.0,800.0,1.0,,,,,,,,,magenta,hexagon
0.0,1.0,0.5,0.0,6.0,6.0,326.4848939998046,8.0,1.0,phase_2,go,1000.0,800.0,1.0,,,,,,,,,cyan,I
0.0,2.0,1.0,0.0,6.0,6.0,413.8272679997499,8.0,1.0,phase_2,go,1000.0,800.0,1.0,,,,,,,,,magenta,hexagon
0.0,4.0,4.0,0.0,6.0,6.0,359.4369849997747,8.0,1.0,phase_2,go,1000.0,800.0,1.0,,,,,,,,,blue,square
0.0,3.0,2.0,0.0,6.0,6.0,377.4111909997373,8.0,1.0,phase_2,go,1000.0,800.0,1.0,,,,,,,,,gray,cross
0.0,8.0,4.0,1.0,5.0,5.0,364.5680579998043,8.0,1.0,phase_2,go,1000.0,800.0,1.0,,,,,,,,,white,circle
0.0,3.0,2.0,0.0,5.0,5.0,382.9992539999693,8.0,1.0,phase_2,go,1000.0,800.0,1.0,,,,,,,,,gray,cross
0.0,1.0,0.5,0.0,5.0,5.0,409.9436989999958,8.0,1.0,phase_2,go,1000.0,800.0,1.0,,,,,,,,,cyan,I
0.0,6.0,1.0,1.0,6.0,0.0,0.0,8.0,1.0,phase_2,stop,1000.0,800.0,4.0,,,,,,,,,green,flipped triangle
0.0,4.0,4.0,0.0,5.0,5.0,1456.083108999792,8.0,1.0,phase_2,go,1000.0,850.0,1.0,,,,,,,,,blue,square
0.0,2.0,1.0,0.0,6.0,0.0,0.0,8.0,1.0,phase_2,go,1000.0,850.0,5.0,,,,,,,,,magenta,hexagon
0.0,3.0,2.0,0.0,5.0,5.0,583.604651999849,8.0,1.0,phase_2,go,1000.0,850.0,1.0,,,,,,,,,gray,cross
0.0,4.0,4.0,0.0,5.0,5.0,1141.676033999829,8.0,1.0,phase_2,go,1000.0,850.0,1.0,,,,,,,,,blue,square
0.0,1.0,0.5,0.0,6.0,6.0,971.1033730000054,8.0,1.0,phase_2,go,1000.0,850.0,1.0,,,,,,,,,cyan,I
0.0,8.0,4.0,1.0,6.0,6.0,374.726630999703,8.0,1.0,phase_2,stop,1000.0,850.0,3.0,,,,,,,,,white,circle
0.0,8.0,4.0,1.0,7.0,1.0,2167.802595000012,1.0,2.0,phase_3,,,,,675.0,5.0,675.0,270.0,405.0,135.0,540.0,810.0,white,circle
0.0,1.0,0.5,0.0,7.0,4.0,4108.012397000039,1.0,1.0,phase_3,,,,,1152.0,6.0,384.0,576.0,960.0,1152.0,768.0,192.0,cyan,I
0.0,4.0,4.0,0.0,7.0,2.0,4031.024623000121,1.0,1.0,phase_3,,,,,696.0,6.0,348.0,696.0,232.0,464.0,580.0,116.0,blue,square
0.0,2.0,1.0,0.0,7.0,1.0,3551.910365999902,1.0,1.0,phase_3,,,,,960.0,5.0,960.0,384.0,1152.0,768.0,576.0,192.0,magenta,hexagon
0.0,5.0,0.5,1.0,7.0,6.0,2999.3486670000493,1.0,1.0,phase_3,,,,,576.0,3.0,768.0,1152.0,960.0,384.0,192.0,576.0,orange,diamond
0.0,7.0,2.0,1.0,7.0,2.0,3446.1576980002064,1.0,1.0,phase_3,,,,,616.0,4.0,924.0,616.0,462.0,154.0,770.0,308.0,yellow,triangle
0.0,5.0,0.5,1.0,7.0,1.0,2728.817104999962,1.0,1.0,phase_3,,,,,519.0,3.0,519.0,692.0,1038.0,346.0,173.0,865.0,orange,diamond
0.0,5.0,0.5,1.0,7.0,5.0,2780.244249000134,1.0,1.0,phase_3,,,,,1152.0,6.0,192.0,960.0,768.0,384.0,1152.0,576.0,orange,diamond
0.0,1.0,0.5,0.0,7.0,3.0,2948.5159079999903,1.0,1.0,phase_3,,,,,519.0,3.0,173.0,346.0,519.0,692.0,865.0,1038.0,cyan,I
0.0,2.0,1.0,0.0,7.0,4.0,3313.410573000056,1.0,1.0,phase_3,,,,,692.0,4.0,1038.0,519.0,173.0,692.0,346.0,865.0,magenta,hexagon
0.0,8.0,4.0,1.0,7.0,3.0,3626.041842999712,1.0,1.0,phase_3,,,,,462.0,3.0,924.0,616.0,462.0,308.0,154.0,770.0,white,circle
0.0,2.0,1.0,0.0,7.0,3.0,2789.8252100003447,1.0,1.0,phase_3,,,,,405.0,3.0,675.0,810.0,405.0,135.0,270.0,540.0,magenta,hexagon
0.0,7.0,2.0,1.0,7.0,3.0,3158.9470429998983,1.0,1.0,phase_3,,,,,768.0,4.0,960.0,576.0,768.0,192.0,1152.0,384.0,yellow,triangle
0.0,2.0,1.0,0.0,7.0,3.0,2787.1080219997566,1.0,1.0,phase_3,,,,,462.0,3.0,770.0,924.0,462.0,616.0,308.0,154.0,magenta,hexagon
0.0,4.0,4.0,0.0,7.0,2.0,3096.503758999916,1.0,1.0,phase_3,,,,,768.0,4.0,576.0,768.0,1152.0,192.0,384.0,960.0,blue,square
0.0,2.0,1.0,0.0,7.0,4.0,4063.9300359998742,1.0,1.0,phase_3,,,,,576.0,3.0,384.0,1152.0,960.0,576.0,192.0,768.0,magenta,hexagon
0.0,8.0,4.0,1.0,7.0,2.0,3217.1562630001063,1.0,1.0,phase_3,,,,,405.0,3.0,675.0,405.0,540.0,135.0,270.0,810.0,white,circle
0.0,8.0,4.0,1.0,7.0,1.0,3000.0432369997725,1.0,1.0,phase_3,,,,,519.0,3.0,519.0,865.0,173.0,346.0,692.0,1038.0,white,circle
0.0,3.0,2.0,0.0,7.0,4.0,3512.8622229999564,1.0,1.0,phase_3,,,,,770.0,5.0,154.0,462.0,924.0,770.0,308.0,616.0,gray,cross
0.0,6.0,1.0,1.0,7.0,3.0,2638.618686999962,1.0,1.0,phase_3,,,,,462.0,3.0,770.0,308.0,462.0,616.0,924.0,154.0,green,flipped triangle
0.0,6.0,1.0,1.0,7.0,3.0,2925.795317999928,2.0,1.0,phase_3,,,,,462.0,3.0,154.0,616.0,462.0,924.0,308.0,770.0,green,flipped triangle
0.0,8.0,4.0,1.0,7.0,2.0,3284.57037599992,2.0,1.0,phase_3,,,,,865.0,5.0,173.0,865.0,1038.0,519.0,346.0,692.0,white,circle
0.0,3.0,2.0,0.0,7.0,6.0,1656.394683000144,2.0,2.0,phase_3,,,,,810.0,6.0,270.0,405.0,675.0,540.0,135.0,810.0,gray,cross
0.0,2.0,1.0,0.0,7.0,2.0,2114.288426999792,2.0,1.0,phase_3,,,,,1038.0,6.0,346.0,1038.0,865.0,173.0,692.0,519.0,magenta,hexagon
0.0,3.0,2.0,0.0,7.0,4.0,3155.7444079999186,2.0,1.0,phase_3,,,,,865.0,5.0,692.0,173.0,519.0,865.0,1038.0,346.0,gray,cross
0.0,6.0,1.0,1.0,7.0,3.0,2436.7622449999544,2.0,1.0,phase_3,,,,,810.0,6.0,135.0,405.0,810.0,270.0,540.0,675.0,green,flipped triangle
0.0,1.0,0.5,0.0,7.0,4.0,2614.7158170001603,2.0,1.0,phase_3,,,,,348.0,3.0,696.0,232.0,464.0,348.0,116.0,580.0,cyan,I
0.0,1.0,0.5,0.0,7.0,2.0,3502.17431100009,2.0,1.0,phase_3,,,,,1152.0,6.0,384.0,1152.0,960.0,576.0,768.0,192.0,cyan,I
0.0,4.0,4.0,0.0,7.0,1.0,2760.266107999996,2.0,1.0,phase_3,,,,,865.0,5.0,865.0,173.0,1038.0,692.0,346.0,519.0,blue,square
0.0,1.0,0.5,0.0,7.0,5.0,2054.882563999854,2.0,1.0,phase_3,,,,,770.0,5.0,924.0,462.0,616.0,154.0,770.0,308.0,cyan,I
0.0,4.0,4.0,0.0,7.0,4.0,3544.773048000025,2.0,1.0,phase_3,,,,,464.0,4.0,116.0,348.0,696.0,464.0,580.0,232.0,blue,square
0.0,1.0,0.5,0.0,7.0,3.0,3602.032180000151,2.0,1.0,phase_3,,,,,675.0,5.0,810.0,270.0,675.0,405.0,135.0,540.0,cyan,I
0.0,4.0,4.0,0.0,7.0,1.0,3268.3894960000544,2.0,1.0,phase_3,,,,,865.0,5.0,865.0,1038.0,519.0,173.0,346.0,692.0,blue,square
0.0,5.0,0.5,1.0,7.0,4.0,1749.9270369999067,2.0,1.0,phase_3,,,,,675.0,5.0,270.0,405.0,810.0,675.0,135.0,540.0,orange,diamond
0.0,3.0,2.0,0.0,7.0,2.0,2988.620455000273,2.0,1.0,phase_3,,,,,576.0,3.0,384.0,576.0,192.0,960.0,1152.0,768.0,gray,cross
0.0,5.0,0.5,1.0,7.0,4.0,2498.2219220000843,2.0,1.0,phase_3,,,,,924.0,6.0,308.0,770.0,462.0,924.0,154.0,616.0,orange,diamond
0.0,8.0,4.0,1.0,7.0,3.0,2605.691812999794,2.0,1.0,phase_3,,,,,960.0,5.0,768.0,576.0,960.0,1152.0,384.0,192.0,white,circle
0.0,3.0,2.0,0.0,7.0,6.0,2617.799329999798,2.0,1.0,phase_3,,,,,462.0,3.0,154.0,924.0,770.0,308.0,616.0,462.0,gray,cross
0.0,7.0,2.0,1.0,7.0,3.0,2445.8983669997,2.0,1.0,phase_3,,,,,232.0,2.0,116.0,696.0,232.0,580.0,348.0,464.0,yellow,triangle
0.0,3.0,2.0,0.0,7.0,4.0,3390.936410999984,2.0,1.0,phase_3,,,,,232.0,2.0,116.0,464.0,580.0,232.0,348.0,696.0,gray,cross
0.0,2.0,1.0,0.0,7.0,3.0,2417.623996999737,3.0,1.0,phase_3,,,,,540.0,4.0,405.0,810.0,540.0,270.0,675.0,135.0,magenta,hexagon
0.0,2.0,1.0,0.0,7.0,4.0,2300.644451999688,3.0,1.0,phase_3,,,,,770.0,5.0,924.0,154.0,462.0,770.0,308.0,616.0,magenta,hexagon
0.0,3.0,2.0,0.0,7.0,5.0,2532.8061730001536,3.0,1.0,phase_3,,,,,1038.0,6.0,519.0,865.0,173.0,346.0,1038.0,692.0,gray,cross
0.0,4.0,4.0,0.0,7.0,2.0,2610.1218149997294,3.0,1.0,phase_3,,,,,770.0,5.0,308.0,770.0,154.0,924.0,462.0,616.0,blue,square
0.0,7.0,2.0,1.0,7.0,5.0,3620.7244430001992,3.0,1.0,phase_3,,,,,810.0,6.0,540.0,405.0,675.0,135.0,810.0,270.0,yellow,triangle
0.0,6.0,1.0,1.0,7.0,6.0,2416.703748000145,3.0,1.0,phase_3,,,,,1152.0,6.0,768.0,384.0,960.0,576.0,192.0,1152.0,green,flipped triangle
0.0,8.0,4.0,1.0,7.0,5.0,3775.623085000007,3.0,1.0,phase_3,,,,,348.0,3.0,116.0,232.0,696.0,580.0,348.0,464.0,white,circle
0.0,6.0,1.0,1.0,7.0,3.0,2834.325378999893,3.0,1.0,phase_3,,,,,692.0,4.0,519.0,173.0,692.0,346.0,865.0,1038.0,green,flipped triangle
0.0,7.0,2.0,1.0,7.0,6.0,4217.829067999901,3.0,1.0,phase_3,,,,,865.0,5.0,346.0,692.0,1038.0,173.0,519.0,865.0,yellow,triangle
0.0,3.0,2.0,0.0,7.0,3.0,2926.84771400036,3.0,1.0,phase_3,,,,,810.0,6.0,405.0,675.0,810.0,540.0,270.0,135.0,gray,cross
0.0,3.0,2.0,0.0,7.0,6.0,2455.732078999972,3.0,1.0,phase_3,,,,,580.0,5.0,696.0,232.0,464.0,116.0,348.0,580.0,gray,cross
0.0,6.0,1.0,1.0,7.0,6.0,3407.4415510003746,3.0,1.0,phase_3,,,,,696.0,6.0,232.0,116.0,464.0,580.0,348.0,696.0,green,flipped triangle
0.0,8.0,4.0,1.0,7.0,6.0,3150.500294000267,3.0,1.0,phase_3,,,,,924.0,6.0,154.0,770.0,462.0,616.0,308.0,924.0,white,circle
0.0,8.0,4.0,1.0,7.0,1.0,2414.116465999996,3.0,1.0,phase_3,,,,,768.0,4.0,768.0,576.0,384.0,192.0,1152.0,960.0,white,circle
0.0,5.0,0.5,1.0,7.0,2.0,2734.118707000107,3.0,1.0,phase_3,,,,,464.0,4.0,232.0,464.0,696.0,580.0,348.0,116.0,orange,diamond
0.0,6.0,1.0,1.0,7.0,4.0,2089.7146930001327,3.0,1.0,phase_3,,,,,540.0,4.0,270.0,135.0,810.0,540.0,405.0,675.0,green,flipped triangle
0.0,6.0,1.0,1.0,7.0,4.0,1949.085513999762,3.0,1.0,phase_3,,,,,580.0,5.0,116.0,696.0,232.0,580.0,464.0,348.0,green,flipped triangle
0.0,4.0,4.0,0.0,7.0,5.0,2785.016029999952,3.0,1.0,phase_3,,,,,924.0,6.0,616.0,462.0,308.0,770.0,924.0,154.0,blue,square
0.0,5.0,0.5,1.0,7.0,6.0,2511.4350810004,3.0,1.0,phase_3,,,,,519.0,3.0,865.0,346.0,1038.0,173.0,692.0,519.0,orange,diamond
0.0,4.0,4.0,0.0,7.0,4.0,4190.860747999977,3.0,1.0,phase_3,,,,,384.0,2.0,192.0,1152.0,768.0,384.0,960.0,576.0,blue,square
0.0,6.0,1.0,1.0,7.0,3.0,3410.575928000071,4.0,1.0,phase_3,,,,,692.0,4.0,519.0,1038.0,692.0,173.0,346.0,865.0,green,flipped triangle
0.0,7.0,2.0,1.0,7.0,6.0,2089.110455000082,4.0,1.0,phase_3,,,,,692.0,4.0,346.0,173.0,1038.0,865.0,519.0,692.0,yellow,triangle
0.0,5.0,0.5,1.0,7.0,4.0,1702.5374529998771,4.0,1.0,phase_3,,,,,308.0,2.0,924.0,616.0,462.0,308.0,154.0,770.0,orange,diamond
0.0,6.0,1.0,1.0,7.0,4.0,2075.5021029999625,4.0,1.0,phase_3,,,,,576.0,3.0,1152.0,768.0,960.0,576.0,192.0,384.0,green,flipped triangle
0.0,3.0,2.0,0.0,7.0,6.0,2512.1885309999925,4.0,1.0,phase_3,,,,,1152.0,6.0,768.0,576.0,192.0,960.0,384.0,1152.0,gray,cross
0.0,7.0,2.0,1.0,7.0,4.0,2220.925820000048,4.0,1.0,phase_3,,,,,540.0,4.0,405.0,270.0,135.0,540.0,810.0,675.0,yellow,triangle
0.0,4.0,4.0,0.0,7.0,5.0,1464.4791740001892,4.0,1.0,phase_3,,,,,675.0,5.0,810.0,540.0,270.0,405.0,675.0,135.0,blue,square
0.0,2.0,1.0,0.0,7.0,6.0,1713.009128000067,4.0,1.0,phase_3,,,,,464.0,4.0,116.0,696.0,232.0,580.0,348.0,464.0,magenta,hexagon
0.0,7.0,2.0,1.0,7.0,2.0,3912.503436999941,4.0,1.0,phase_3,,,,,616.0,4.0,154.0,616.0,924.0,770.0,462.0,308.0,yellow,triangle
0.0,8.0,4.0,1.0,7.0,1.0,2302.84889099994,4.0,1.0,phase_3,,,,,696.0,6.0,696.0,348.0,232.0,116.0,464.0,580.0,white,circle
0.0,5.0,0.5,1.0,7.0,6.0,2059.946122999918,4.0,1.0,phase_3,,,,,675.0,5.0,810.0,540.0,405.0,135.0,270.0,675.0,orange,diamond
0.0,4.0,4.0,0.0,7.0,4.0,1401.433695000378,4.0,1.0,phase_3,,,,,405.0,3.0,810.0,270.0,135.0,405.0,675.0,540.0,blue,square
0.0,1.0,0.5,0.0,7.0,5.0,2478.159692999725,4.0,1.0,phase_3,,,,,865.0,5.0,692.0,173.0,519.0,1038.0,865.0,346.0,cyan,I
0.0,1.0,0.5,0.0,7.0,4.0,1440.6055310000738,4.0,1.0,phase_3,,,,,270.0,2.0,675.0,405.0,540.0,270.0,135.0,810.0,cyan,I
0.0,2.0,1.0,0.0,7.0,6.0,2029.443046000324,4.0,1.0,phase_3,,,,,580.0,5.0,696.0,116.0,464.0,348.0,232.0,580.0,magenta,hexagon
0.0,1.0,0.5,0.0,7.0,2.0,2777.351504000308,4.0,1.0,phase_3,,,,,116.0,1.0,464.0,116.0,232.0,696.0,348.0,580.0,cyan,I
0.0,7.0,2.0,1.0,7.0,6.0,1922.1303249996708,4.0,1.0,phase_3,,,,,580.0,5.0,696.0,464.0,116.0,232.0,348.0,580.0,yellow,triangle
0.0,5.0,0.5,1.0,7.0,3.0,2033.7918440000067,4.0,1.0,phase_3,,,,,696.0,6.0,348.0,464.0,696.0,232.0,580.0,116.0,orange,diamond
0.0,1.0,0.5,0.0,7.0,6.0,2439.9226030000136,4.0,1.0,phase_3,,,,,616.0,4.0,154.0,462.0,770.0,308.0,924.0,616.0,cyan,I
0.0,7.0,2.0,1.0,7.0,6.0,3045.9105989998534,4.0,1.0,phase_3,,,,,768.0,4.0,576.0,1152.0,384.0,192.0,960.0,768.0,yellow,triangle
