raw_reward_magnitude,stim_reward,stepwise_reward_magnitude,paired_with_stopping,stim_location,response,reaction_time,block,num_trial_presentations,which_phase,stop_signal_trial_type,left_SSD,right_SSD,accuracy,chosen_bidding_amount,chosen_bidding_level,possible_bid_1,possible_bid_2,possible_bid_3,possible_bid_4,possible_bid_5,possible_bid_6,color_text,shape_text
647.0,7.0,3.0,1.0,3.0,3.0,451.5328549998685,1.0,1.0,phase_1,,,,,,,,,,,,,yellow,circle
178.0,5.0,1.0,1.0,3.0,3.0,444.0649919999941,1.0,1.0,phase_1,,,,,,,,,,,,,white,square
637.0,7.0,3.0,1.0,2.0,2.0,424.4980160001432,1.0,1.0,phase_1,,,,,,,,,,,,,yellow,circle
1303.0,4.0,4.0,0.0,4.0,4.0,333.2845380000435,1.0,1.0,phase_1,,,,,,,,,,,,,gray,I
0.0,5.0,0.0,1.0,3.0,3.0,342.51268100001647,1.0,1.0,phase_1,,,,,,,,,,,,,white,square
0.0,2.0,0.0,0.0,2.0,2.0,370.6719270001031,1.0,1.0,phase_1,,,,,,,,,,,,,blue,hexagon
1283.0,8.0,4.0,1.0,3.0,3.0,361.1932999999681,1.0,1.0,phase_1,,,,,,,,,,,,,orange,cross
671.0,3.0,3.0,0.0,2.0,2.0,324.5344890001433,1.0,1.0,phase_1,,,,,,,,,,,,,magenta,triangle
1321.0,4.0,4.0,0.0,2.0,2.0,481.7631260000325,1.0,1.0,phase_1,,,,,,,,,,,,,gray,I
1315.0,4.0,4.0,0.0,3.0,3.0,390.0105929999427,1.0,1.0,phase_1,,,,,,,,,,,,,gray,I
0.0,5.0,0.0,1.0,4.0,4.0,463.8131289998455,1.0,1.0,phase_1,,,,,,,,,,,,,white,square
0.0,2.0,0.0,0.0,3.0,3.0,380.5708859999868,1.0,1.0,phase_1,,,,,,,,,,,,,blue,hexagon
0.0,8.0,0.0,1.0,4.0,4.0,370.2549199999794,1.0,1.0,phase_1,,,,,,,,,,,,,orange,cross
0.0,6.0,0.0,1.0,1.0,1.0,370.6032699999468,1.0,1.0,phase_1,,,,,,,,,,,,,cyan,diamond
143.0,5.0,1.0,1.0,3.0,3.0,324.2018030000508,1.0,1.0,phase_1,,,,,,,,,,,,,white,square
1319.0,4.0,4.0,0.0,4.0,4.0,389.9280159998852,1.0,1.0,phase_1,,,,,,,,,,,,,gray,I
672.0,7.0,3.0,1.0,2.0,2.0,351.7762690000836,1.0,1.0,phase_1,,,,,,,,,,,,,yellow,circle
0.0,6.0,0.0,1.0,2.0,2.0,387.9536260001259,1.0,1.0,phase_1,,,,,,,,,,,,,cyan,diamond
307.0,6.0,2.0,1.0,4.0,4.0,334.0319710000585,1.0,1.0,phase_1,,,,,,,,,,,,,cyan,diamond
647.0,3.0,3.0,0.0,3.0,3.0,334.534443999928,1.0,1.0,phase_1,,,,,,,,,,,,,magenta,triangle
643.0,7.0,3.0,1.0,2.0,2.0,416.1845090000042,1.0,1.0,phase_1,,,,,,,,,,,,,yellow,circle
626.0,3.0,3.0,0.0,1.0,1.0,444.0613159999884,1.0,1.0,phase_1,,,,,,,,,,,,,magenta,triangle
0.0,6.0,0.0,1.0,2.0,2.0,335.3231450000749,1.0,1.0,phase_1,,,,,,,,,,,,,cyan,diamond
1290.0,4.0,4.0,0.0,3.0,3.0,388.6793280000802,1.0,1.0,phase_1,,,,,,,,,,,,,gray,I
643.0,7.0,3.0,1.0,4.0,4.0,324.0363729998989,1.0,1.0,phase_1,,,,,,,,,,,,,yellow,circle
653.0,7.0,3.0,1.0,4.0,4.0,354.5832500001324,1.0,1.0,phase_1,,,,,,,,,,,,,yellow,circle
0.0,5.0,0.0,1.0,4.0,4.0,334.1831949999232,1.0,1.0,phase_1,,,,,,,,,,,,,white,square
143.0,1.0,1.0,0.0,2.0,2.0,389.6713480000926,1.0,1.0,phase_1,,,,,,,,,,,,,green,flipped triangle
0.0,1.0,0.0,0.0,1.0,1.0,361.9986930000323,1.0,1.0,phase_1,,,,,,,,,,,,,green,flipped triangle
144.0,5.0,1.0,1.0,1.0,1.0,398.8647180001408,1.0,1.0,phase_1,,,,,,,,,,,,,white,square
1286.0,8.0,4.0,1.0,4.0,4.0,415.7599430000118,1.0,1.0,phase_1,,,,,,,,,,,,,orange,cross
0.0,7.0,0.0,1.0,4.0,4.0,399.3286889999581,1.0,1.0,phase_1,,,,,,,,,,,,,yellow,circle
1287.0,8.0,4.0,1.0,1.0,1.0,332.9337669999859,1.0,1.0,phase_1,,,,,,,,,,,,,orange,cross
1281.0,4.0,4.0,0.0,4.0,4.0,351.5321470001709,1.0,1.0,phase_1,,,,,,,,,,,,,gray,I
311.0,6.0,2.0,1.0,3.0,3.0,296.309729000086,1.0,1.0,phase_1,,,,,,,,,,,,,cyan,diamond
148.0,5.0,1.0,1.0,1.0,1.0,563.9426749999075,1.0,2.0,phase_1,,,,,,,,,,,,,white,square
163.0,5.0,1.0,1.0,2.0,2.0,416.3021019999178,1.0,1.0,phase_1,,,,,,,,,,,,,white,square
0.0,4.0,0.0,0.0,4.0,4.0,406.6770299998552,1.0,1.0,phase_1,,,,,,,,,,,,,gray,I
311.0,2.0,2.0,0.0,4.0,4.0,362.1226459999889,1.0,1.0,phase_1,,,,,,,,,,,,,blue,hexagon
150.0,5.0,1.0,1.0,3.0,3.0,408.6143530000754,1.0,1.0,phase_1,,,,,,,,,,,,,white,square
319.0,2.0,2.0,0.0,4.0,4.0,369.6139450000828,1.0,1.0,phase_1,,,,,,,,,,,,,blue,hexagon
0.0,7.0,0.0,1.0,3.0,3.0,360.0613309999971,1.0,1.0,phase_1,,,,,,,,,,,,,yellow,circle
178.0,5.0,1.0,1.0,4.0,4.0,351.7465789998368,1.0,1.0,phase_1,,,,,,,,,,,,,white,square
1281.0,4.0,4.0,0.0,3.0,3.0,352.8814020000936,1.0,1.0,phase_1,,,,,,,,,,,,,gray,I
348.0,2.0,2.0,0.0,2.0,2.0,381.2101490000259,1.0,1.0,phase_1,,,,,,,,,,,,,blue,hexagon
649.0,7.0,3.0,1.0,4.0,4.0,407.952774000023,1.0,1.0,phase_1,,,,,,,,,,,,,yellow,circle
160.0,1.0,1.0,0.0,1.0,1.0,489.8154129998602,1.0,1.0,phase_1,,,,,,,,,,,,,green,flipped triangle
0.0,4.0,0.0,0.0,3.0,3.0,350.1666390000082,1.0,1.0,phase_1,,,,,,,,,,,,,gray,I
167.0,1.0,1.0,0.0,2.0,2.0,388.6694119998992,1.0,1.0,phase_1,,,,,,,,,,,,,green,flipped triangle
144.0,5.0,1.0,1.0,4.0,4.0,331.5094879999378,1.0,1.0,phase_1,,,,,,,,,,,,,white,square
645.0,7.0,3.0,1.0,3.0,3.0,543.6407019999479,1.0,1.0,phase_1,,,,,,,,,,,,,yellow,circle
649.0,3.0,3.0,0.0,2.0,2.0,351.5009000000191,1.0,1.0,phase_1,,,,,,,,,,,,,magenta,triangle
168.0,5.0,1.0,1.0,4.0,4.0,351.3415909999366,1.0,1.0,phase_1,,,,,,,,,,,,,white,square
630.0,7.0,3.0,1.0,3.0,3.0,388.4390420000727,1.0,1.0,phase_1,,,,,,,,,,,,,yellow,circle
174.0,1.0,1.0,0.0,1.0,1.0,351.2173240001175,1.0,1.0,phase_1,,,,,,,,,,,,,green,flipped triangle
0.0,5.0,0.0,1.0,3.0,3.0,324.4538189999275,1.0,1.0,phase_1,,,,,,,,,,,,,white,square
163.0,1.0,1.0,0.0,1.0,1.0,387.017250999861,1.0,2.0,phase_1,,,,,,,,,,,,,green,flipped triangle
1286.0,4.0,4.0,0.0,2.0,2.0,379.0675400000509,1.0,1.0,phase_1,,,,,,,,,,,,,gray,I
302.0,2.0,2.0,0.0,1.0,1.0,712.1237860001202,1.0,1.0,phase_1,,,,,,,,,,,,,blue,hexagon
674.0,7.0,3.0,1.0,2.0,2.0,489.9599920001947,1.0,1.0,phase_1,,,,,,,,,,,,,yellow,circle
0.0,2.0,0.0,0.0,2.0,2.0,350.3928220000034,1.0,1.0,phase_1,,,,,,,,,,,,,blue,hexagon
0.0,6.0,0.0,1.0,3.0,3.0,387.627115999976,1.0,1.0,phase_1,,,,,,,,,,,,,cyan,diamond
187.0,1.0,1.0,0.0,3.0,3.0,371.3248169999588,1.0,1.0,phase_1,,,,,,,,,,,,,green,flipped triangle
144.0,1.0,1.0,0.0,4.0,4.0,361.261610000156,1.0,1.0,phase_1,,,,,,,,,,,,,green,flipped triangle
340.0,2.0,2.0,0.0,3.0,3.0,379.3376460000672,1.0,1.0,phase_1,,,,,,,,,,,,,blue,hexagon
653.0,3.0,3.0,0.0,4.0,4.0,415.8336430000418,1.0,1.0,phase_1,,,,,,,,,,,,,magenta,triangle
0.0,3.0,0.0,0.0,3.0,3.0,341.7331799998919,1.0,1.0,phase_1,,,,,,,,,,,,,magenta,triangle
672.0,3.0,3.0,0.0,2.0,2.0,432.3334619998604,1.0,1.0,phase_1,,,,,,,,,,,,,magenta,triangle
643.0,3.0,3.0,0.0,2.0,2.0,378.3349409998209,1.0,1.0,phase_1,,,,,,,,,,,,,magenta,triangle
663.0,3.0,3.0,0.0,3.0,3.0,498.1874139998581,1.0,1.0,phase_1,,,,,,,,,,,,,magenta,triangle
1307.0,4.0,4.0,0.0,1.0,1.0,572.9990039999393,1.0,1.0,phase_1,,,,,,,,,,,,,gray,I
0.0,4.0,0.0,0.0,1.0,1.0,498.6219190000156,1.0,1.0,phase_1,,,,,,,,,,,,,gray,I
633.0,3.0,3.0,0.0,1.0,1.0,406.3967820000016,1.0,1.0,phase_1,,,,,,,,,,,,,magenta,triangle
671.0,7.0,3.0,1.0,4.0,4.0,443.3300819998749,1.0,1.0,phase_1,,,,,,,,,,,,,yellow,circle
642.0,3.0,3.0,0.0,2.0,2.0,535.9062649999942,1.0,1.0,phase_1,,,,,,,,,,,,,magenta,triangle
1319.0,8.0,4.0,1.0,2.0,2.0,379.0628850001667,1.0,1.0,phase_1,,,,,,,,,,,,,orange,cross
343.0,2.0,2.0,0.0,2.0,2.0,306.3579790000403,1.0,1.0,phase_1,,,,,,,,,,,,,blue,hexagon
1292.0,4.0,4.0,0.0,2.0,2.0,342.9748470000504,1.0,1.0,phase_1,,,,,,,,,,,,,gray,I
303.0,6.0,2.0,1.0,4.0,4.0,407.5901809999322,1.0,1.0,phase_1,,,,,,,,,,,,,cyan,diamond
1278.0,4.0,4.0,0.0,4.0,4.0,454.9419019999732,1.0,1.0,phase_1,,,,,,,,,,,,,gray,I
643.0,3.0,3.0,0.0,1.0,1.0,397.6127490000181,1.0,1.0,phase_1,,,,,,,,,,,,,magenta,triangle
0.0,2.0,0.0,0.0,3.0,3.0,376.60431900008,1.0,1.0,phase_1,,,,,,,,,,,,,blue,hexagon
0.0,7.0,0.0,1.0,1.0,1.0,517.4606590001076,1.0,1.0,phase_1,,,,,,,,,,,,,yellow,circle
643.0,3.0,3.0,0.0,3.0,3.0,379.0613080000184,1.0,1.0,phase_1,,,,,,,,,,,,,magenta,triangle
1320.0,4.0,4.0,0.0,4.0,4.0,470.9598689998984,1.0,1.0,phase_1,,,,,,,,,,,,,gray,I
0.0,4.0,0.0,0.0,1.0,1.0,443.5922510001546,1.0,1.0,phase_1,,,,,,,,,,,,,gray,I
168.0,5.0,1.0,1.0,1.0,1.0,343.1067409999286,1.0,1.0,phase_1,,,,,,,,,,,,,white,square
657.0,7.0,3.0,1.0,3.0,3.0,361.1377049999191,1.0,1.0,phase_1,,,,,,,,,,,,,yellow,circle
1320.0,8.0,4.0,1.0,2.0,2.0,480.5312279997906,1.0,1.0,phase_1,,,,,,,,,,,,,orange,cross
1323.0,8.0,4.0,1.0,2.0,2.0,415.2531370000361,1.0,1.0,phase_1,,,,,,,,,,,,,orange,cross
175.0,5.0,1.0,1.0,1.0,1.0,424.940708999884,1.0,1.0,phase_1,,,,,,,,,,,,,white,square
1302.0,8.0,4.0,1.0,2.0,2.0,370.4845039999327,1.0,2.0,phase_1,,,,,,,,,,,,,orange,cross
150.0,1.0,1.0,0.0,4.0,4.0,388.7356640000234,1.0,1.0,phase_1,,,,,,,,,,,,,green,flipped triangle
1302.0,4.0,4.0,0.0,1.0,1.0,351.7220399999132,1.0,1.0,phase_1,,,,,,,,,,,,,gray,I
1290.0,8.0,4.0,1.0,3.0,3.0,491.0688330000994,1.0,1.0,phase_1,,,,,,,,,,,,,orange,cross
149.0,1.0,1.0,0.0,2.0,2.0,388.6886480001976,1.0,1.0,phase_1,,,,,,,,,,,,,green,flipped triangle
340.0,6.0,2.0,1.0,1.0,1.0,396.5776899999582,1.0,1.0,phase_1,,,,,,,,,,,,,cyan,diamond
332.0,6.0,2.0,1.0,2.0,2.0,388.5692730000301,1.0,1.0,phase_1,,,,,,,,,,,,,cyan,diamond
166.0,5.0,1.0,1.0,2.0,2.0,387.767034000035,1.0,1.0,phase_1,,,,,,,,,,,,,white,square
663.0,7.0,3.0,1.0,2.0,2.0,351.5577030000258,1.0,1.0,phase_1,,,,,,,,,,,,,yellow,circle
630.0,3.0,3.0,0.0,4.0,4.0,425.5569130000367,2.0,1.0,phase_1,,,,,,,,,,,,,magenta,triangle
658.0,7.0,3.0,1.0,3.0,3.0,417.0707619998666,2.0,1.0,phase_1,,,,,,,,,,,,,yellow,circle
147.0,1.0,1.0,0.0,2.0,2.0,343.0932000001121,2.0,1.0,phase_1,,,,,,,,,,,,,green,flipped triangle
154.0,5.0,1.0,1.0,4.0,4.0,315.9611920000316,2.0,1.0,phase_1,,,,,,,,,,,,,white,square
1289.0,4.0,4.0,0.0,4.0,4.0,361.7782159999478,2.0,1.0,phase_1,,,,,,,,,,,,,gray,I
650.0,7.0,3.0,1.0,3.0,3.0,343.1068500001402,2.0,1.0,phase_1,,,,,,,,,,,,,yellow,circle
637.0,7.0,3.0,1.0,3.0,3.0,426.7213499999798,2.0,1.0,phase_1,,,,,,,,,,,,,yellow,circle
651.0,7.0,3.0,1.0,3.0,3.0,334.3884380001327,2.0,1.0,phase_1,,,,,,,,,,,,,yellow,circle
0.0,1.0,0.0,0.0,4.0,4.0,369.8918219999996,2.0,1.0,phase_1,,,,,,,,,,,,,green,flipped triangle
314.0,2.0,2.0,0.0,2.0,2.0,416.8191179999212,2.0,1.0,phase_1,,,,,,,,,,,,,blue,hexagon
167.0,1.0,1.0,0.0,2.0,2.0,397.9469939999944,2.0,1.0,phase_1,,,,,,,,,,,,,green,flipped triangle
1312.0,4.0,4.0,0.0,1.0,1.0,646.8009630000324,2.0,1.0,phase_1,,,,,,,,,,,,,gray,I
308.0,2.0,2.0,0.0,4.0,4.0,434.8637070002041,2.0,1.0,phase_1,,,,,,,,,,,,,blue,hexagon
158.0,5.0,1.0,1.0,2.0,2.0,445.2928040000188,2.0,1.0,phase_1,,,,,,,,,,,,,white,square
1307.0,8.0,4.0,1.0,3.0,3.0,379.8150160000659,2.0,1.0,phase_1,,,,,,,,,,,,,orange,cross
641.0,7.0,3.0,1.0,1.0,1.0,526.1417560000154,2.0,1.0,phase_1,,,,,,,,,,,,,yellow,circle
148.0,1.0,1.0,0.0,3.0,3.0,370.8881200000178,2.0,1.0,phase_1,,,,,,,,,,,,,green,flipped triangle
659.0,7.0,3.0,1.0,1.0,1.0,400.214410999979,2.0,1.0,phase_1,,,,,,,,,,,,,yellow,circle
147.0,5.0,1.0,1.0,3.0,3.0,407.5973009998961,2.0,1.0,phase_1,,,,,,,,,,,,,white,square
650.0,3.0,3.0,0.0,4.0,4.0,453.9594549999037,2.0,1.0,phase_1,,,,,,,,,,,,,magenta,triangle
310.0,6.0,2.0,1.0,4.0,4.0,370.1689170000009,2.0,1.0,phase_1,,,,,,,,,,,,,cyan,diamond
0.0,1.0,0.0,0.0,4.0,4.0,371.5887460000431,2.0,1.0,phase_1,,,,,,,,,,,,,green,flipped triangle
315.0,6.0,2.0,1.0,4.0,4.0,369.8649769999065,2.0,1.0,phase_1,,,,,,,,,,,,,cyan,diamond
0.0,2.0,0.0,0.0,1.0,1.0,350.8819450000828,2.0,1.0,phase_1,,,,,,,,,,,,,blue,hexagon
650.0,7.0,3.0,1.0,1.0,1.0,398.6340260000816,2.0,1.0,phase_1,,,,,,,,,,,,,yellow,circle
1281.0,8.0,4.0,1.0,3.0,3.0,351.313977000018,2.0,1.0,phase_1,,,,,,,,,,,,,orange,cross
343.0,2.0,2.0,0.0,3.0,3.0,396.6717079999853,2.0,1.0,phase_1,,,,,,,,,,,,,blue,hexagon
302.0,6.0,2.0,1.0,4.0,4.0,380.0462710000829,2.0,1.0,phase_1,,,,,,,,,,,,,cyan,diamond
626.0,7.0,3.0,1.0,2.0,2.0,377.9490340000393,2.0,1.0,phase_1,,,,,,,,,,,,,yellow,circle
309.0,6.0,2.0,1.0,2.0,2.0,369.7555329999886,2.0,1.0,phase_1,,,,,,,,,,,,,cyan,diamond
1293.0,8.0,4.0,1.0,1.0,1.0,472.0679590000145,2.0,1.0,phase_1,,,,,,,,,,,,,orange,cross
137.0,5.0,1.0,1.0,4.0,4.0,350.577623999925,2.0,1.0,phase_1,,,,,,,,,,,,,white,square
0.0,5.0,0.0,1.0,2.0,2.0,369.3452249999609,2.0,1.0,phase_1,,,,,,,,,,,,,white,square
329.0,6.0,2.0,1.0,3.0,3.0,360.0014730000112,2.0,1.0,phase_1,,,,,,,,,,,,,cyan,diamond
646.0,7.0,3.0,1.0,2.0,2.0,369.1052040001068,2.0,1.0,phase_1,,,,,,,,,,,,,yellow,circle
153.0,1.0,1.0,0.0,4.0,4.0,333.4705209999811,2.0,1.0,phase_1,,,,,,,,,,,,,green,flipped triangle
1309.0,8.0,4.0,1.0,4.0,4.0,397.2229640000932,2.0,1.0,phase_1,,,,,,,,,,,,,orange,cross
314.0,6.0,2.0,1.0,2.0,2.0,323.2468490000428,2.0,1.0,phase_1,,,,,,,,,,,,,cyan,diamond
0.0,8.0,0.0,1.0,3.0,3.0,378.6278769998716,2.0,1.0,phase_1,,,,,,,,,,,,,orange,cross
0.0,4.0,0.0,0.0,3.0,3.0,406.133028999875,2.0,1.0,phase_1,,,,,,,,,,,,,gray,I
301.0,2.0,2.0,0.0,3.0,3.0,351.0789530000693,2.0,1.0,phase_1,,,,,,,,,,,,,blue,hexagon
347.0,2.0,2.0,0.0,1.0,1.0,454.1946469998947,2.0,2.0,phase_1,,,,,,,,,,,,,blue,hexagon
333.0,6.0,2.0,1.0,4.0,4.0,389.4706930000211,2.0,1.0,phase_1,,,,,,,,,,,,,cyan,diamond
167.0,5.0,1.0,1.0,1.0,1.0,422.6919580000867,2.0,1.0,phase_1,,,,,,,,,,,,,white,square
320.0,6.0,2.0,1.0,1.0,1.0,378.5345799999504,2.0,1.0,phase_1,,,,,,,,,,,,,cyan,diamond
177.0,5.0,1.0,1.0,4.0,4.0,388.6802409999745,2.0,1.0,phase_1,,,,,,,,,,,,,white,square
672.0,3.0,3.0,0.0,3.0,3.0,360.0876450000214,2.0,1.0,phase_1,,,,,,,,,,,,,magenta,triangle
157.0,5.0,1.0,1.0,3.0,3.0,342.3327210000479,2.0,1.0,phase_1,,,,,,,,,,,,,white,square
332.0,2.0,2.0,0.0,4.0,4.0,406.2005359999148,2.0,1.0,phase_1,,,,,,,,,,,,,blue,hexagon
348.0,6.0,2.0,1.0,3.0,3.0,332.7572800001235,2.0,1.0,phase_1,,,,,,,,,,,,,cyan,diamond
666.0,3.0,3.0,0.0,4.0,4.0,351.0451739998643,2.0,1.0,phase_1,,,,,,,,,,,,,magenta,triangle
1293.0,4.0,4.0,0.0,1.0,1.0,554.7850830000698,2.0,1.0,phase_1,,,,,,,,,,,,,gray,I
180.0,1.0,1.0,0.0,3.0,3.0,480.6951800001116,2.0,1.0,phase_1,,,,,,,,,,,,,green,flipped triangle
675.0,3.0,3.0,0.0,3.0,3.0,546.0136329998022,2.0,1.0,phase_1,,,,,,,,,,,,,magenta,triangle
321.0,2.0,2.0,0.0,1.0,1.0,527.0528130001821,2.0,1.0,phase_1,,,,,,,,,,,,,blue,hexagon
170.0,5.0,1.0,1.0,4.0,4.0,461.3766390000364,2.0,1.0,phase_1,,,,,,,,,,,,,white,square
1310.0,8.0,4.0,1.0,3.0,3.0,360.0723580000249,2.0,1.0,phase_1,,,,,,,,,,,,,orange,cross
345.0,2.0,2.0,0.0,2.0,2.0,416.1287169999923,2.0,1.0,phase_1,,,,,,,,,,,,,blue,hexagon
1292.0,8.0,4.0,1.0,4.0,4.0,424.5172580001508,2.0,1.0,phase_1,,,,,,,,,,,,,orange,cross
637.0,3.0,3.0,0.0,1.0,1.0,351.0064900001453,2.0,1.0,phase_1,,,,,,,,,,,,,magenta,triangle
153.0,5.0,1.0,1.0,2.0,2.0,341.9358930000271,2.0,1.0,phase_1,,,,,,,,,,,,,white,square
0.0,4.0,0.0,0.0,3.0,3.0,379.2300299999169,2.0,1.0,phase_1,,,,,,,,,,,,,gray,I
331.0,2.0,2.0,0.0,1.0,1.0,423.9122160001898,2.0,1.0,phase_1,,,,,,,,,,,,,blue,hexagon
1308.0,4.0,4.0,0.0,2.0,2.0,363.7199390000205,2.0,1.0,phase_1,,,,,,,,,,,,,gray,I
156.0,5.0,1.0,1.0,2.0,2.0,360.1241169999412,2.0,1.0,phase_1,,,,,,,,,,,,,white,square
0.0,1.0,0.0,0.0,2.0,2.0,314.7996899999725,2.0,1.0,phase_1,,,,,,,,,,,,,green,flipped triangle
1300.0,4.0,4.0,0.0,3.0,3.0,378.2873390000532,2.0,1.0,phase_1,,,,,,,,,,,,,gray,I
341.0,6.0,2.0,1.0,3.0,3.0,397.5560339999902,2.0,1.0,phase_1,,,,,,,,,,,,,cyan,diamond
650.0,3.0,3.0,0.0,3.0,3.0,387.8868500000862,2.0,1.0,phase_1,,,,,,,,,,,,,magenta,triangle
0.0,8.0,0.0,1.0,4.0,4.0,415.4067140000279,2.0,1.0,phase_1,,,,,,,,,,,,,orange,cross
1298.0,8.0,4.0,1.0,1.0,1.0,369.9135649999334,2.0,1.0,phase_1,,,,,,,,,,,,,orange,cross
1295.0,8.0,4.0,1.0,2.0,2.0,397.1918390000155,2.0,1.0,phase_1,,,,,,,,,,,,,orange,cross
1309.0,4.0,4.0,0.0,4.0,4.0,314.696713000103,2.0,1.0,phase_1,,,,,,,,,,,,,gray,I
310.0,2.0,2.0,0.0,1.0,1.0,434.7567380000328,2.0,1.0,phase_1,,,,,,,,,,,,,blue,hexagon
660.0,7.0,3.0,1.0,4.0,4.0,388.0606089999219,2.0,1.0,phase_1,,,,,,,,,,,,,yellow,circle
317.0,2.0,2.0,0.0,2.0,2.0,424.4459020001159,2.0,1.0,phase_1,,,,,,,,,,,,,blue,hexagon
348.0,2.0,2.0,0.0,3.0,3.0,370.8638880000308,2.0,1.0,phase_1,,,,,,,,,,,,,blue,hexagon
149.0,5.0,1.0,1.0,3.0,3.0,480.156475000058,2.0,1.0,phase_1,,,,,,,,,,,,,white,square
0.0,5.0,0.0,1.0,1.0,1.0,387.2929110000314,2.0,1.0,phase_1,,,,,,,,,,,,,white,square
180.0,5.0,1.0,1.0,2.0,2.0,332.9467559999557,2.0,1.0,phase_1,,,,,,,,,,,,,white,square
0.0,2.0,0.0,0.0,2.0,2.0,443.9256030000251,2.0,1.0,phase_1,,,,,,,,,,,,,blue,hexagon
646.0,3.0,3.0,0.0,3.0,3.0,322.095033000096,2.0,1.0,phase_1,,,,,,,,,,,,,magenta,triangle
326.0,6.0,2.0,1.0,4.0,4.0,361.7159820000779,2.0,1.0,phase_1,,,,,,,,,,,,,cyan,diamond
1308.0,8.0,4.0,1.0,4.0,4.0,453.1381460001284,2.0,1.0,phase_1,,,,,,,,,,,,,orange,cross
332.0,2.0,2.0,0.0,2.0,2.0,332.8297520001797,2.0,1.0,phase_1,,,,,,,,,,,,,blue,hexagon
0.0,8.0,0.0,1.0,3.0,3.0,378.4059339998293,2.0,1.0,phase_1,,,,,,,,,,,,,orange,cross
1315.0,8.0,4.0,1.0,4.0,4.0,388.5252509999191,2.0,1.0,phase_1,,,,,,,,,,,,,orange,cross
141.0,1.0,1.0,0.0,1.0,1.0,361.3847249998798,2.0,1.0,phase_1,,,,,,,,,,,,,green,flipped triangle
314.0,6.0,2.0,1.0,4.0,4.0,361.2686450001092,2.0,1.0,phase_1,,,,,,,,,,,,,cyan,diamond
1282.0,8.0,4.0,1.0,4.0,4.0,378.0544619999091,2.0,1.0,phase_1,,,,,,,,,,,,,orange,cross
333.0,2.0,2.0,0.0,4.0,4.0,341.7527449998943,2.0,1.0,phase_1,,,,,,,,,,,,,blue,hexagon
1278.0,8.0,4.0,1.0,4.0,4.0,423.9786629998434,2.0,1.0,phase_1,,,,,,,,,,,,,orange,cross
320.0,2.0,2.0,0.0,2.0,2.0,387.5984829999197,2.0,1.0,phase_1,,,,,,,,,,,,,blue,hexagon
1278.0,8.0,4.0,1.0,4.0,4.0,378.7289740000688,2.0,1.0,phase_1,,,,,,,,,,,,,orange,cross
1311.0,4.0,4.0,0.0,3.0,3.0,332.2366550000879,2.0,1.0,phase_1,,,,,,,,,,,,,gray,I
1299.0,8.0,4.0,1.0,2.0,2.0,360.6033830001252,2.0,1.0,phase_1,,,,,,,,,,,,,orange,cross
642.0,7.0,3.0,1.0,4.0,4.0,369.6107850000771,2.0,1.0,phase_1,,,,,,,,,,,,,yellow,circle
327.0,2.0,2.0,0.0,4.0,4.0,434.3045160001111,2.0,1.0,phase_1,,,,,,,,,,,,,blue,hexagon
163.0,1.0,1.0,0.0,4.0,4.0,433.9411670000572,2.0,1.0,phase_1,,,,,,,,,,,,,green,flipped triangle
0.0,7.0,0.0,1.0,2.0,2.0,340.8931850001409,2.0,1.0,phase_1,,,,,,,,,,,,,yellow,circle
0.0,5.0,0.0,1.0,1.0,1.0,711.1514599998827,3.0,1.0,phase_1,,,,,,,,,,,,,white,square
1286.0,4.0,4.0,0.0,1.0,1.0,397.9822989999775,3.0,1.0,phase_1,,,,,,,,,,,,,gray,I
309.0,2.0,2.0,0.0,1.0,1.0,343.8952000001336,3.0,1.0,phase_1,,,,,,,,,,,,,blue,hexagon
183.0,1.0,1.0,0.0,4.0,4.0,434.170702999836,3.0,1.0,phase_1,,,,,,,,,,,,,green,flipped triangle
1308.0,4.0,4.0,0.0,3.0,3.0,388.66219800002,3.0,1.0,phase_1,,,,,,,,,,,,,gray,I
0.0,2.0,0.0,0.0,1.0,1.0,378.9125509997575,3.0,1.0,phase_1,,,,,,,,,,,,,blue,hexagon
0.0,3.0,0.0,0.0,3.0,3.0,433.9984690000165,3.0,1.0,phase_1,,,,,,,,,,,,,magenta,triangle
1282.0,4.0,4.0,0.0,1.0,1.0,397.79061299987,3.0,1.0,phase_1,,,,,,,,,,,,,gray,I
1296.0,8.0,4.0,1.0,1.0,1.0,377.9633290000674,3.0,1.0,phase_1,,,,,,,,,,,,,orange,cross
318.0,2.0,2.0,0.0,1.0,1.0,389.0247519998411,3.0,1.0,phase_1,,,,,,,,,,,,,blue,hexagon
0.0,3.0,0.0,0.0,2.0,2.0,480.5278240000916,3.0,1.0,phase_1,,,,,,,,,,,,,magenta,triangle
148.0,1.0,1.0,0.0,3.0,3.0,370.1097480002318,3.0,1.0,phase_1,,,,,,,,,,,,,green,flipped triangle
1321.0,8.0,4.0,1.0,4.0,4.0,323.8857900000766,3.0,1.0,phase_1,,,,,,,,,,,,,orange,cross
1281.0,8.0,4.0,1.0,1.0,1.0,351.0384719998001,3.0,1.0,phase_1,,,,,,,,,,,,,orange,cross
141.0,5.0,1.0,1.0,1.0,1.0,415.39720999981,3.0,1.0,phase_1,,,,,,,,,,,,,white,square
0.0,5.0,0.0,1.0,3.0,3.0,360.3664160000335,3.0,1.0,phase_1,,,,,,,,,,,,,white,square
343.0,6.0,2.0,1.0,3.0,3.0,350.0998449999315,3.0,1.0,phase_1,,,,,,,,,,,,,cyan,diamond
0.0,4.0,0.0,0.0,3.0,3.0,314.335820999986,3.0,1.0,phase_1,,,,,,,,,,,,,gray,I
178.0,1.0,1.0,0.0,2.0,2.0,452.7724419999686,3.0,1.0,phase_1,,,,,,,,,,,,,green,flipped triangle
674.0,3.0,3.0,0.0,1.0,1.0,490.4425300001094,3.0,1.0,phase_1,,,,,,,,,,,,,magenta,triangle
148.0,5.0,1.0,1.0,2.0,2.0,387.83583500026,3.0,1.0,phase_1,,,,,,,,,,,,,white,square
1319.0,4.0,4.0,0.0,2.0,2.0,368.9624590001585,3.0,1.0,phase_1,,,,,,,,,,,,,gray,I
0.0,7.0,0.0,1.0,3.0,3.0,351.7815320001318,3.0,1.0,phase_1,,,,,,,,,,,,,yellow,circle
159.0,5.0,1.0,1.0,3.0,3.0,369.6956100002353,3.0,1.0,phase_1,,,,,,,,,,,,,white,square
1289.0,8.0,4.0,1.0,3.0,3.0,398.3707029997276,3.0,1.0,phase_1,,,,,,,,,,,,,orange,cross
636.0,7.0,3.0,1.0,1.0,1.0,398.3948000000055,3.0,1.0,phase_1,,,,,,,,,,,,,yellow,circle
0.0,1.0,0.0,0.0,1.0,1.0,406.9083710000996,3.0,1.0,phase_1,,,,,,,,,,,,,green,flipped triangle
327.0,6.0,2.0,1.0,3.0,3.0,407.9006699998899,3.0,1.0,phase_1,,,,,,,,,,,,,cyan,diamond
0.0,2.0,0.0,0.0,4.0,4.0,434.3358490000355,3.0,1.0,phase_1,,,,,,,,,,,,,blue,hexagon
0.0,3.0,0.0,0.0,3.0,3.0,370.176519999859,3.0,1.0,phase_1,,,,,,,,,,,,,magenta,triangle
0.0,4.0,0.0,0.0,1.0,1.0,499.6191180002824,3.0,1.0,phase_1,,,,,,,,,,,,,gray,I
137.0,1.0,1.0,0.0,1.0,1.0,417.7430409999942,3.0,1.0,phase_1,,,,,,,,,,,,,green,flipped triangle
187.0,5.0,1.0,1.0,2.0,2.0,359.8273720003817,3.0,1.0,phase_1,,,,,,,,,,,,,white,square
0.0,1.0,0.0,0.0,3.0,3.0,378.7964180000926,3.0,1.0,phase_1,,,,,,,,,,,,,green,flipped triangle
329.0,2.0,2.0,0.0,4.0,4.0,434.300936999989,3.0,1.0,phase_1,,,,,,,,,,,,,blue,hexagon
344.0,2.0,2.0,0.0,4.0,4.0,425.9989749998567,3.0,1.0,phase_1,,,,,,,,,,,,,blue,hexagon
0.0,7.0,0.0,1.0,2.0,2.0,359.9285909999707,3.0,1.0,phase_1,,,,,,,,,,,,,yellow,circle
174.0,5.0,1.0,1.0,3.0,3.0,352.3513889999776,3.0,1.0,phase_1,,,,,,,,,,,,,white,square
0.0,6.0,0.0,1.0,2.0,2.0,350.2951430000394,3.0,1.0,phase_1,,,,,,,,,,,,,cyan,diamond
0.0,1.0,0.0,0.0,4.0,4.0,306.4711629999692,3.0,1.0,phase_1,,,,,,,,,,,,,green,flipped triangle
0.0,8.0,0.0,1.0,3.0,3.0,415.956794000067,3.0,1.0,phase_1,,,,,,,,,,,,,orange,cross
318.0,6.0,2.0,1.0,1.0,1.0,353.2877269999517,3.0,1.0,phase_1,,,,,,,,,,,,,cyan,diamond
657.0,3.0,3.0,0.0,4.0,4.0,519.5253009997032,3.0,1.0,phase_1,,,,,,,,,,,,,magenta,triangle
626.0,3.0,3.0,0.0,2.0,2.0,378.8500290002048,3.0,1.0,phase_1,,,,,,,,,,,,,magenta,triangle
314.0,2.0,2.0,0.0,4.0,4.0,452.0585990003383,3.0,1.0,phase_1,,,,,,,,,,,,,blue,hexagon
331.0,6.0,2.0,1.0,2.0,2.0,360.2069569997184,3.0,1.0,phase_1,,,,,,,,,,,,,cyan,diamond
144.0,1.0,1.0,0.0,4.0,4.0,379.2477580000195,3.0,1.0,phase_1,,,,,,,,,,,,,green,flipped triangle
1300.0,8.0,4.0,1.0,1.0,1.0,396.9332930000746,3.0,1.0,phase_1,,,,,,,,,,,,,orange,cross
345.0,6.0,2.0,1.0,2.0,2.0,332.484316999853,3.0,1.0,phase_1,,,,,,,,,,,,,cyan,diamond
1299.0,8.0,4.0,1.0,3.0,3.0,343.3012860000417,3.0,1.0,phase_1,,,,,,,,,,,,,orange,cross
0.0,8.0,0.0,1.0,4.0,4.0,370.5682280001383,3.0,1.0,phase_1,,,,,,,,,,,,,orange,cross
1312.0,8.0,4.0,1.0,3.0,3.0,352.0366620000459,3.0,1.0,phase_1,,,,,,,,,,,,,orange,cross
0.0,7.0,0.0,1.0,2.0,2.0,333.0956709996826,3.0,1.0,phase_1,,,,,,,,,,,,,yellow,circle
326.0,2.0,2.0,0.0,2.0,2.0,342.8503289997024,3.0,1.0,phase_1,,,,,,,,,,,,,blue,hexagon
314.0,2.0,2.0,0.0,3.0,3.0,341.9881209997584,3.0,1.0,phase_1,,,,,,,,,,,,,blue,hexagon
153.0,1.0,1.0,0.0,4.0,4.0,351.2092460000531,3.0,1.0,phase_1,,,,,,,,,,,,,green,flipped triangle
646.0,3.0,3.0,0.0,2.0,2.0,341.9810729997152,3.0,1.0,phase_1,,,,,,,,,,,,,magenta,triangle
157.0,1.0,1.0,0.0,3.0,3.0,313.8042699997641,3.0,1.0,phase_1,,,,,,,,,,,,,green,flipped triangle
0.0,7.0,0.0,1.0,3.0,3.0,362.0550699997693,3.0,1.0,phase_1,,,,,,,,,,,,,yellow,circle
167.0,5.0,1.0,1.0,2.0,2.0,370.8662690000892,3.0,1.0,phase_1,,,,,,,,,,,,,white,square
327.0,2.0,2.0,0.0,3.0,3.0,342.6607310002509,3.0,1.0,phase_1,,,,,,,,,,,,,blue,hexagon
321.0,6.0,2.0,1.0,1.0,1.0,415.8661149999716,3.0,2.0,phase_1,,,,,,,,,,,,,cyan,diamond
0.0,6.0,0.0,1.0,4.0,4.0,406.1178040001323,3.0,1.0,phase_1,,,,,,,,,,,,,cyan,diamond
153.0,5.0,1.0,1.0,1.0,1.0,397.5734540003941,3.0,1.0,phase_1,,,,,,,,,,,,,white,square
163.0,1.0,1.0,0.0,1.0,1.0,370.6476359998305,3.0,1.0,phase_1,,,,,,,,,,,,,green,flipped triangle
668.0,3.0,3.0,0.0,1.0,1.0,323.9961450003648,3.0,1.0,phase_1,,,,,,,,,,,,,magenta,triangle
154.0,1.0,1.0,0.0,1.0,1.0,361.0645150001801,3.0,1.0,phase_1,,,,,,,,,,,,,green,flipped triangle
1283.0,4.0,4.0,0.0,3.0,3.0,406.1553299998195,3.0,1.0,phase_1,,,,,,,,,,,,,gray,I
175.0,1.0,1.0,0.0,2.0,2.0,389.4927460000872,3.0,1.0,phase_1,,,,,,,,,,,,,green,flipped triangle
630.0,3.0,3.0,0.0,4.0,4.0,499.4256340000902,3.0,1.0,phase_1,,,,,,,,,,,,,magenta,triangle
663.0,3.0,3.0,0.0,4.0,4.0,517.2728689999531,3.0,1.0,phase_1,,,,,,,,,,,,,magenta,triangle
317.0,6.0,2.0,1.0,1.0,1.0,360.5539679997491,3.0,1.0,phase_1,,,,,,,,,,,,,cyan,diamond
183.0,5.0,1.0,1.0,3.0,3.0,398.6679109998476,3.0,1.0,phase_1,,,,,,,,,,,,,white,square
170.0,1.0,1.0,0.0,4.0,4.0,360.7556679999106,3.0,1.0,phase_1,,,,,,,,,,,,,green,flipped triangle
1296.0,4.0,4.0,0.0,3.0,3.0,332.4711809996188,3.0,1.0,phase_1,,,,,,,,,,,,,gray,I
341.0,2.0,2.0,0.0,3.0,3.0,397.9781910002202,3.0,1.0,phase_1,,,,,,,,,,,,,blue,hexagon
327.0,6.0,2.0,1.0,4.0,4.0,370.7471930001702,3.0,1.0,phase_1,,,,,,,,,,,,,cyan,diamond
302.0,6.0,2.0,1.0,1.0,1.0,672.825419000219,3.0,1.0,phase_1,,,,,,,,,,,,,cyan,diamond
1295.0,4.0,4.0,0.0,4.0,4.0,416.8694909999431,3.0,1.0,phase_1,,,,,,,,,,,,,gray,I
657.0,3.0,3.0,0.0,3.0,3.0,351.0886330000176,3.0,1.0,phase_1,,,,,,,,,,,,,magenta,triangle
0.0,4.0,0.0,0.0,2.0,2.0,628.3984540000347,3.0,1.0,phase_1,,,,,,,,,,,,,gray,I
154.0,5.0,1.0,1.0,4.0,4.0,454.2685769997661,3.0,1.0,phase_1,,,,,,,,,,,,,white,square
651.0,3.0,3.0,0.0,3.0,3.0,323.580612999649,3.0,1.0,phase_1,,,,,,,,,,,,,magenta,triangle
335.0,2.0,2.0,0.0,4.0,4.0,369.5187510002142,3.0,1.0,phase_1,,,,,,,,,,,,,blue,hexagon
0.0,1.0,0.0,0.0,2.0,2.0,360.1135220001197,3.0,1.0,phase_1,,,,,,,,,,,,,green,flipped triangle
0.0,7.0,0.0,1.0,1.0,1.0,415.36756899995447,3.0,1.0,phase_1,,,,,,,,,,,,,yellow,circle
323.0,6.0,2.0,1.0,2.0,2.0,397.0859280002514,3.0,1.0,phase_1,,,,,,,,,,,,,cyan,diamond
0.0,5.0,0.0,1.0,4.0,4.0,359.8744270002498,3.0,1.0,phase_1,,,,,,,,,,,,,white,square
0.0,5.0,0.0,1.0,4.0,4.0,433.2393400000001,3.0,1.0,phase_1,,,,,,,,,,,,,white,square
0.0,1.0,0.0,0.0,4.0,4.0,451.9144010000673,3.0,1.0,phase_1,,,,,,,,,,,,,green,flipped triangle
179.0,5.0,1.0,1.0,1.0,1.0,442.8101600001355,3.0,1.0,phase_1,,,,,,,,,,,,,white,square
0.0,3.0,0.0,0.0,3.0,3.0,424.8018759999468,3.0,1.0,phase_1,,,,,,,,,,,,,magenta,triangle
0.0,7.0,0.0,1.0,3.0,3.0,406.2652419997903,3.0,1.0,phase_1,,,,,,,,,,,,,yellow,circle
344.0,6.0,2.0,1.0,4.0,4.0,426.313342999947,3.0,1.0,phase_1,,,,,,,,,,,,,cyan,diamond
159.0,1.0,1.0,0.0,2.0,2.0,408.8645589999942,3.0,1.0,phase_1,,,,,,,,,,,,,green,flipped triangle
0.0,3.0,0.0,0.0,1.0,1.0,425.1533149999886,3.0,1.0,phase_1,,,,,,,,,,,,,magenta,triangle
0.0,8.0,0.0,1.0,2.0,2.0,332.8345800000534,3.0,1.0,phase_1,,,,,,,,,,,,,orange,cross
0.0,4.0,0.0,0.0,2.0,2.0,323.5083660001692,3.0,1.0,phase_1,,,,,,,,,,,,,gray,I
156.0,1.0,1.0,0.0,4.0,4.0,434.8338709996824,3.0,1.0,phase_1,,,,,,,,,,,,,green,flipped triangle
335.0,6.0,2.0,1.0,1.0,1.0,555.4950469995674,3.0,1.0,phase_1,,,,,,,,,,,,,cyan,diamond
343.0,6.0,2.0,1.0,3.0,3.0,407.4453620000895,4.0,1.0,phase_1,,,,,,,,,,,,,cyan,diamond
0.0,3.0,0.0,0.0,1.0,1.0,435.927418999654,4.0,1.0,phase_1,,,,,,,,,,,,,magenta,triangle
0.0,6.0,0.0,1.0,4.0,4.0,490.8489839999674,4.0,2.0,phase_1,,,,,,,,,,,,,cyan,diamond
172.0,5.0,1.0,1.0,1.0,1.0,445.8436559998517,4.0,1.0,phase_1,,,,,,,,,,,,,white,square
1323.0,4.0,4.0,0.0,2.0,2.0,371.8245830000342,4.0,1.0,phase_1,,,,,,,,,,,,,gray,I
1303.0,8.0,4.0,1.0,1.0,1.0,426.9659930000671,4.0,1.0,phase_1,,,,,,,,,,,,,orange,cross
0.0,6.0,0.0,1.0,2.0,2.0,332.9896489999555,4.0,1.0,phase_1,,,,,,,,,,,,,cyan,diamond
308.0,6.0,2.0,1.0,2.0,2.0,323.8083180003741,4.0,1.0,phase_1,,,,,,,,,,,,,cyan,diamond
302.0,2.0,2.0,0.0,3.0,3.0,353.6221620001925,4.0,1.0,phase_1,,,,,,,,,,,,,blue,hexagon
660.0,3.0,3.0,0.0,4.0,4.0,382.8002909999668,4.0,1.0,phase_1,,,,,,,,,,,,,magenta,triangle
163.0,5.0,1.0,1.0,4.0,4.0,389.4170220000887,4.0,1.0,phase_1,,,,,,,,,,,,,white,square
1286.0,8.0,4.0,1.0,2.0,2.0,378.5948640002061,4.0,1.0,phase_1,,,,,,,,,,,,,orange,cross
0.0,2.0,0.0,0.0,1.0,1.0,388.2179249999353,4.0,1.0,phase_1,,,,,,,,,,,,,blue,hexagon
1308.0,4.0,4.0,0.0,1.0,1.0,482.1873030000461,4.0,1.0,phase_1,,,,,,,,,,,,,gray,I
179.0,1.0,1.0,0.0,3.0,3.0,314.652776999992,4.0,1.0,phase_1,,,,,,,,,,,,,green,flipped triangle
0.0,8.0,0.0,1.0,1.0,1.0,352.7727189998586,4.0,1.0,phase_1,,,,,,,,,,,,,orange,cross
663.0,7.0,3.0,1.0,1.0,1.0,350.8105949999844,4.0,1.0,phase_1,,,,,,,,,,,,,yellow,circle
643.0,7.0,3.0,1.0,1.0,1.0,325.8137200000419,4.0,1.0,phase_1,,,,,,,,,,,,,yellow,circle
666.0,7.0,3.0,1.0,4.0,4.0,456.0155160002068,4.0,1.0,phase_1,,,,,,,,,,,,,yellow,circle
647.0,3.0,3.0,0.0,2.0,2.0,352.9272210003,4.0,1.0,phase_1,,,,,,,,,,,,,magenta,triangle
1324.0,8.0,4.0,1.0,3.0,3.0,324.398624999958,4.0,1.0,phase_1,,,,,,,,,,,,,orange,cross
187.0,1.0,1.0,0.0,4.0,4.0,361.4393759999075,4.0,1.0,phase_1,,,,,,,,,,,,,green,flipped triangle
643.0,3.0,3.0,0.0,2.0,2.0,353.4190179998404,4.0,1.0,phase_1,,,,,,,,,,,,,magenta,triangle
675.0,7.0,3.0,1.0,3.0,3.0,346.233428999767,4.0,1.0,phase_1,,,,,,,,,,,,,yellow,circle
347.0,6.0,2.0,1.0,1.0,1.0,333.8707050002085,4.0,1.0,phase_1,,,,,,,,,,,,,cyan,diamond
340.0,2.0,2.0,0.0,2.0,2.0,353.5741350001444,4.0,1.0,phase_1,,,,,,,,,,,,,blue,hexagon
1287.0,4.0,4.0,0.0,3.0,3.0,352.4183900003663,4.0,1.0,phase_1,,,,,,,,,,,,,gray,I
0.0,3.0,0.0,0.0,1.0,1.0,343.3823069999562,4.0,1.0,phase_1,,,,,,,,,,,,,magenta,triangle
163.0,5.0,1.0,1.0,3.0,3.0,342.561157000091,4.0,1.0,phase_1,,,,,,,,,,,,,white,square
307.0,2.0,2.0,0.0,3.0,3.0,341.8505760000698,4.0,1.0,phase_1,,,,,,,,,,,,,blue,hexagon
657.0,7.0,3.0,1.0,2.0,2.0,333.0451699998775,4.0,1.0,phase_1,,,,,,,,,,,,,yellow,circle
0.0,6.0,0.0,1.0,3.0,3.0,296.522554999683,4.0,1.0,phase_1,,,,,,,,,,,,,cyan,diamond
315.0,2.0,2.0,0.0,1.0,1.0,351.9187689998944,4.0,1.0,phase_1,,,,,,,,,,,,,blue,hexagon
313.0,6.0,2.0,1.0,1.0,1.0,507.1003540001584,4.0,1.0,phase_1,,,,,,,,,,,,,cyan,diamond
1311.0,8.0,4.0,1.0,1.0,1.0,381.6248559996893,4.0,1.0,phase_1,,,,,,,,,,,,,orange,cross
0.0,8.0,0.0,1.0,1.0,1.0,306.9012339997243,4.0,1.0,phase_1,,,,,,,,,,,,,orange,cross
663.0,3.0,3.0,0.0,1.0,1.0,325.447035000252,4.0,1.0,phase_1,,,,,,,,,,,,,magenta,triangle
1279.0,8.0,4.0,1.0,1.0,1.0,352.112562000002,4.0,1.0,phase_1,,,,,,,,,,,,,orange,cross
166.0,1.0,1.0,0.0,2.0,2.0,371.5986110000813,4.0,1.0,phase_1,,,,,,,,,,,,,green,flipped triangle
0.0,3.0,0.0,0.0,1.0,1.0,324.6843659999285,4.0,1.0,phase_1,,,,,,,,,,,,,magenta,triangle
177.0,1.0,1.0,0.0,3.0,3.0,353.2255280001664,4.0,1.0,phase_1,,,,,,,,,,,,,green,flipped triangle
178.0,1.0,1.0,0.0,1.0,1.0,333.1918720000431,4.0,1.0,phase_1,,,,,,,,,,,,,green,flipped triangle
1299.0,4.0,4.0,0.0,2.0,2.0,408.7664779999613,4.0,1.0,phase_1,,,,,,,,,,,,,gray,I
658.0,3.0,3.0,0.0,4.0,4.0,490.8997380002802,4.0,1.0,phase_1,,,,,,,,,,,,,magenta,triangle
154.0,1.0,1.0,0.0,2.0,2.0,390.2866959997482,4.0,1.0,phase_1,,,,,,,,,,,,,green,flipped triangle
1310.0,4.0,4.0,0.0,4.0,4.0,492.2720720001052,4.0,1.0,phase_1,,,,,,,,,,,,,gray,I
1298.0,4.0,4.0,0.0,2.0,2.0,362.7679020000869,4.0,1.0,phase_1,,,,,,,,,,,,,gray,I
668.0,7.0,3.0,1.0,1.0,1.0,333.8578270004291,4.0,1.0,phase_1,,,,,,,,,,,,,yellow,circle
348.0,6.0,2.0,1.0,3.0,3.0,323.8498679997974,4.0,1.0,phase_1,,,,,,,,,,,,,cyan,diamond
301.0,6.0,2.0,1.0,3.0,3.0,379.5050339999761,4.0,1.0,phase_1,,,,,,,,,,,,,cyan,diamond
1289.0,8.0,4.0,1.0,4.0,4.0,380.2576440002667,4.0,1.0,phase_1,,,,,,,,,,,,,orange,cross
0.0,1.0,0.0,0.0,2.0,2.0,380.9694239998862,4.0,1.0,phase_1,,,,,,,,,,,,,green,flipped triangle
626.0,7.0,3.0,1.0,3.0,3.0,324.2056969997975,4.0,1.0,phase_1,,,,,,,,,,,,,yellow,circle
334.0,2.0,2.0,0.0,1.0,1.0,352.1685139999135,4.0,1.0,phase_1,,,,,,,,,,,,,blue,hexagon
1299.0,4.0,4.0,0.0,3.0,3.0,333.1614890003038,4.0,1.0,phase_1,,,,,,,,,,,,,gray,I
168.0,1.0,1.0,0.0,3.0,3.0,371.3943259999723,4.0,1.0,phase_1,,,,,,,,,,,,,green,flipped triangle
314.0,6.0,2.0,1.0,2.0,2.0,344.0134180000314,4.0,1.0,phase_1,,,,,,,,,,,,,cyan,diamond
1282.0,4.0,4.0,0.0,1.0,1.0,371.5281879999565,4.0,1.0,phase_1,,,,,,,,,,,,,gray,I
0.0,3.0,0.0,0.0,3.0,3.0,315.5171019998306,4.0,1.0,phase_1,,,,,,,,,,,,,magenta,triangle
633.0,7.0,3.0,1.0,4.0,4.0,381.5178479999304,4.0,1.0,phase_1,,,,,,,,,,,,,yellow,circle
334.0,6.0,2.0,1.0,3.0,3.0,324.0324739999778,4.0,1.0,phase_1,,,,,,,,,,,,,cyan,diamond
1324.0,4.0,4.0,0.0,1.0,1.0,371.7184519996408,4.0,1.0,phase_1,,,,,,,,,,,,,gray,I
0.0,8.0,0.0,1.0,3.0,3.0,324.1964169997118,4.0,1.0,phase_1,,,,,,,,,,,,,orange,cross
0.0,2.0,0.0,0.0,1.0,1.0,343.7171420000595,4.0,1.0,phase_1,,,,,,,,,,,,,blue,hexagon
175.0,1.0,1.0,0.0,1.0,1.0,380.3533149998657,4.0,1.0,phase_1,,,,,,,,,,,,,green,flipped triangle
672.0,7.0,3.0,1.0,2.0,2.0,333.8191809998534,4.0,1.0,phase_1,,,,,,,,,,,,,yellow,circle
626.0,3.0,3.0,0.0,4.0,4.0,415.4547820003245,4.0,2.0,phase_1,,,,,,,,,,,,,magenta,triangle
1319.0,8.0,4.0,1.0,2.0,2.0,451.6586689996984,4.0,1.0,phase_1,,,,,,,,,,,,,orange,cross
1289.0,4.0,4.0,0.0,4.0,4.0,341.9471980000708,4.0,1.0,phase_1,,,,,,,,,,,,,gray,I
645.0,3.0,3.0,0.0,1.0,1.0,424.5474780000222,4.0,1.0,phase_1,,,,,,,,,,,,,magenta,triangle
1278.0,4.0,4.0,0.0,1.0,1.0,387.8486569997221,4.0,1.0,phase_1,,,,,,,,,,,,,gray,I
0.0,6.0,0.0,1.0,4.0,4.0,360.8710759999667,4.0,1.0,phase_1,,,,,,,,,,,,,cyan,diamond
1282.0,8.0,4.0,1.0,3.0,3.0,370.6547219999265,4.0,1.0,phase_1,,,,,,,,,,,,,orange,cross
332.0,6.0,2.0,1.0,1.0,1.0,388.2889579999755,4.0,1.0,phase_1,,,,,,,,,,,,,cyan,diamond
1324.0,4.0,4.0,0.0,2.0,2.0,407.18834900008,4.0,1.0,phase_1,,,,,,,,,,,,,gray,I
313.0,2.0,2.0,0.0,1.0,1.0,361.399682999945,4.0,1.0,phase_1,,,,,,,,,,,,,blue,hexagon
319.0,6.0,2.0,1.0,2.0,2.0,389.2516790001536,4.0,1.0,phase_1,,,,,,,,,,,,,cyan,diamond
663.0,7.0,3.0,1.0,2.0,2.0,397.6854659999844,4.0,1.0,phase_1,,,,,,,,,,,,,yellow,circle
1324.0,8.0,4.0,1.0,2.0,2.0,360.8283580001625,4.0,1.0,phase_1,,,,,,,,,,,,,orange,cross
1308.0,8.0,4.0,1.0,2.0,2.0,325.0313590001497,4.0,1.0,phase_1,,,,,,,,,,,,,orange,cross
168.0,1.0,1.0,0.0,3.0,3.0,433.3466690000023,4.0,1.0,phase_1,,,,,,,,,,,,,green,flipped triangle
160.0,5.0,1.0,1.0,1.0,1.0,490.3590260000783,4.0,1.0,phase_1,,,,,,,,,,,,,white,square
637.0,3.0,3.0,0.0,1.0,1.0,378.71041399967,4.0,1.0,phase_1,,,,,,,,,,,,,magenta,triangle
158.0,1.0,1.0,0.0,3.0,3.0,350.5670250001458,4.0,1.0,phase_1,,,,,,,,,,,,,green,flipped triangle
187.0,5.0,1.0,1.0,4.0,4.0,352.9810089999046,4.0,1.0,phase_1,,,,,,,,,,,,,white,square
641.0,3.0,3.0,0.0,3.0,3.0,334.4356079996942,4.0,1.0,phase_1,,,,,,,,,,,,,magenta,triangle
303.0,2.0,2.0,0.0,2.0,2.0,332.6127139998789,4.0,1.0,phase_1,,,,,,,,,,,,,blue,hexagon
626.0,7.0,3.0,1.0,4.0,4.0,379.0333210004064,4.0,1.0,phase_1,,,,,,,,,,,,,yellow,circle
630.0,7.0,3.0,1.0,1.0,1.0,369.3564239997613,4.0,1.0,phase_1,,,,,,,,,,,,,yellow,circle
646.0,7.0,3.0,1.0,4.0,4.0,350.7161409997934,4.0,1.0,phase_1,,,,,,,,,,,,,yellow,circle
1279.0,4.0,4.0,0.0,2.0,2.0,462.4374400000306,4.0,1.0,phase_1,,,,,,,,,,,,,gray,I
643.0,7.0,3.0,1.0,1.0,1.0,389.0341750002335,4.0,1.0,phase_1,,,,,,,,,,,,,yellow,circle
1308.0,8.0,4.0,1.0,1.0,1.0,434.7019580000051,4.0,1.0,phase_1,,,,,,,,,,,,,orange,cross
172.0,1.0,1.0,0.0,1.0,1.0,370.9939209998083,4.0,1.0,phase_1,,,,,,,,,,,,,green,flipped triangle
175.0,5.0,1.0,1.0,2.0,2.0,425.376099999994,4.0,1.0,phase_1,,,,,,,,,,,,,white,square
647.0,7.0,3.0,1.0,1.0,1.0,407.354832999772,4.0,1.0,phase_1,,,,,,,,,,,,,yellow,circle
323.0,2.0,2.0,0.0,3.0,3.0,490.2331160001267,4.0,1.0,phase_1,,,,,,,,,,,,,blue,hexagon
636.0,3.0,3.0,0.0,2.0,2.0,379.9832310000965,4.0,1.0,phase_1,,,,,,,,,,,,,magenta,triangle
340.0,6.0,2.0,1.0,2.0,2.0,306.8806649998805,4.0,1.0,phase_1,,,,,,,,,,,,,cyan,diamond
659.0,3.0,3.0,0.0,1.0,1.0,371.3910120000037,4.0,2.0,phase_1,,,,,,,,,,,,,magenta,triangle
0.0,6.0,2.0,1.0,5.0,0.0,0.0,1.0,1.0,phase_2,stop,250.0,250.0,4.0,,,,,,,,,cyan,diamond
0.0,3.0,3.0,0.0,6.0,6.0,326.1794860000009,1.0,1.0,phase_2,go,300.0,250.0,1.0,,,,,,,,,magenta,triangle
0.0,8.0,4.0,1.0,6.0,6.0,342.0502610001676,1.0,1.0,phase_2,stop,300.0,250.0,3.0,,,,,,,,,orange,cross
0.0,5.0,1.0,1.0,5.0,5.0,384.7378489999755,1.0,1.0,phase_2,stop,300.0,200.0,3.0,,,,,,,,,white,square
0.0,3.0,3.0,0.0,6.0,6.0,484.1422660001626,1.0,1.0,phase_2,go,250.0,200.0,1.0,,,,,,,,,magenta,triangle
0.0,1.0,1.0,0.0,5.0,5.0,566.9526699998642,1.0,1.0,phase_2,go,250.0,200.0,1.0,,,,,,,,,green,flipped triangle
0.0,3.0,3.0,0.0,5.0,5.0,746.4880190000258,1.0,1.0,phase_2,go,250.0,200.0,1.0,,,,,,,,,magenta,triangle
0.0,3.0,3.0,0.0,5.0,5.0,624.5688629996948,1.0,1.0,phase_2,go,250.0,200.0,1.0,,,,,,,,,magenta,triangle
0.0,3.0,3.0,0.0,6.0,6.0,381.2373559999287,1.0,1.0,phase_2,go,250.0,200.0,1.0,,,,,,,,,magenta,triangle
0.0,5.0,1.0,1.0,5.0,5.0,383.2941300001948,1.0,1.0,phase_2,stop,250.0,200.0,3.0,,,,,,,,,white,square
0.0,1.0,1.0,0.0,6.0,6.0,347.9021129996908,1.0,1.0,phase_2,go,200.0,200.0,1.0,,,,,,,,,green,flipped triangle
0.0,3.0,3.0,0.0,5.0,5.0,447.4644080000871,1.0,1.0,phase_2,go,200.0,200.0,1.0,,,,,,,,,magenta,triangle
0.0,5.0,1.0,1.0,5.0,5.0,718.2036620001782,1.0,1.0,phase_2,stop,200.0,200.0,3.0,,,,,,,,,white,square
0.0,7.0,3.0,1.0,5.0,0.0,0.0,1.0,1.0,phase_2,stop,150.0,200.0,4.0,,,,,,,,,yellow,circle
0.0,3.0,3.0,0.0,6.0,6.0,353.8909470003091,1.0,1.0,phase_2,go,200.0,200.0,1.0,,,,,,,,,magenta,triangle
0.0,8.0,4.0,1.0,5.0,5.0,662.3093050002353,1.0,1.0,phase_2,go,200.0,200.0,1.0,,,,,,,,,orange,cross
0.0,5.0,1.0,1.0,5.0,0.0,0.0,1.0,1.0,phase_2,stop,200.0,200.0,4.0,,,,,,,,,white,square
0.0,8.0,4.0,1.0,6.0,0.0,0.0,1.0,1.0,phase_2,stop,250.0,200.0,4.0,,,,,,,,,orange,cross
0.0,2.0,2.0,0.0,6.0,6.0,549.4124490001013,1.0,1.0,phase_2,go,250.0,250.0,1.0,,,,,,,,,blue,hexagon
0.0,3.0,3.0,0.0,5.0,5.0,532.367147000059,1.0,1.0,phase_2,go,250.0,250.0,1.0,,,,,,,,,magenta,triangle
0.0,5.0,1.0,1.0,5.0,5.0,605.9292690001712,1.0,1.0,phase_2,go,250.0,250.0,1.0,,,,,,,,,white,square
0.0,6.0,2.0,1.0,5.0,5.0,587.193617000139,1.0,1.0,phase_2,go,250.0,250.0,1.0,,,,,,,,,cyan,diamond
0.0,5.0,1.0,1.0,6.0,0.0,0.0,1.0,1.0,phase_2,stop,250.0,250.0,4.0,,,,,,,,,white,square
0.0,7.0,3.0,1.0,6.0,0.0,0.0,1.0,1.0,phase_2,stop,250.0,300.0,4.0,,,,,,,,,yellow,circle
0.0,1.0,1.0,0.0,6.0,6.0,623.6945760001618,1.0,1.0,phase_2,go,250.0,350.0,1.0,,,,,,,,,green,flipped triangle
0.0,6.0,2.0,1.0,5.0,0.0,0.0,1.0,1.0,phase_2,stop,250.0,350.0,4.0,,,,,,,,,cyan,diamond
0.0,7.0,3.0,1.0,6.0,0.0,0.0,1.0,1.0,phase_2,stop,300.0,350.0,4.0,,,,,,,,,yellow,circle
0.0,4.0,4.0,0.0,6.0,6.0,539.4256839999798,1.0,1.0,phase_2,go,300.0,400.0,1.0,,,,,,,,,gray,I
0.0,1.0,1.0,0.0,5.0,5.0,660.7839000002969,1.0,1.0,phase_2,go,300.0,400.0,1.0,,,,,,,,,green,flipped triangle
0.0,5.0,1.0,1.0,5.0,0.0,0.0,1.0,1.0,phase_2,stop,300.0,400.0,4.0,,,,,,,,,white,square
0.0,3.0,3.0,0.0,5.0,5.0,547.7660510000533,1.0,1.0,phase_2,go,350.0,400.0,1.0,,,,,,,,,magenta,triangle
0.0,2.0,2.0,0.0,5.0,5.0,502.31744299981074,1.0,1.0,phase_2,go,350.0,400.0,1.0,,,,,,,,,blue,hexagon
0.0,7.0,3.0,1.0,5.0,0.0,0.0,1.0,1.0,phase_2,stop,350.0,400.0,4.0,,,,,,,,,yellow,circle
0.0,4.0,4.0,0.0,6.0,6.0,371.8703669997012,1.0,1.0,phase_2,go,400.0,400.0,1.0,,,,,,,,,gray,I
0.0,1.0,1.0,0.0,5.0,5.0,586.3450209999428,1.0,1.0,phase_2,go,400.0,400.0,1.0,,,,,,,,,green,flipped triangle
0.0,5.0,1.0,1.0,6.0,0.0,0.0,1.0,1.0,phase_2,stop,400.0,400.0,4.0,,,,,,,,,white,square
0.0,3.0,3.0,0.0,6.0,6.0,640.0864930001262,2.0,1.0,phase_2,go,400.0,450.0,1.0,,,,,,,,,magenta,triangle
0.0,8.0,4.0,1.0,5.0,5.0,744.0080000001217,2.0,1.0,phase_2,go,400.0,450.0,1.0,,,,,,,,,orange,cross
0.0,3.0,3.0,0.0,5.0,5.0,549.5970939996369,2.0,1.0,phase_2,go,400.0,450.0,1.0,,,,,,,,,magenta,triangle
0.0,6.0,2.0,1.0,5.0,5.0,530.4814539999825,2.0,1.0,phase_2,stop,400.0,450.0,3.0,,,,,,,,,cyan,diamond
0.0,4.0,4.0,0.0,5.0,5.0,549.3683149998105,2.0,1.0,phase_2,go,350.0,450.0,1.0,,,,,,,,,gray,I
0.0,7.0,3.0,1.0,5.0,5.0,471.4075840001896,2.0,1.0,phase_2,stop,350.0,450.0,3.0,,,,,,,,,yellow,circle
0.0,8.0,4.0,1.0,6.0,6.0,474.1855739998755,2.0,1.0,phase_2,go,300.0,450.0,1.0,,,,,,,,,orange,cross
0.0,7.0,3.0,1.0,6.0,6.0,623.7552370002959,2.0,1.0,phase_2,go,300.0,450.0,1.0,,,,,,,,,yellow,circle
0.0,7.0,3.0,1.0,6.0,6.0,503.0475240000669,2.0,1.0,phase_2,stop,300.0,450.0,3.0,,,,,,,,,yellow,circle
0.0,5.0,1.0,1.0,6.0,6.0,514.7815939999418,2.0,1.0,phase_2,stop,300.0,400.0,3.0,,,,,,,,,white,square
0.0,8.0,4.0,1.0,5.0,0.0,0.0,2.0,1.0,phase_2,stop,300.0,350.0,4.0,,,,,,,,,orange,cross
0.0,3.0,3.0,0.0,6.0,6.0,550.2192079998167,2.0,1.0,phase_2,go,350.0,350.0,1.0,,,,,,,,,magenta,triangle
0.0,4.0,4.0,0.0,6.0,6.0,529.1846909999549,2.0,1.0,phase_2,go,350.0,350.0,1.0,,,,,,,,,gray,I
0.0,8.0,4.0,1.0,6.0,0.0,0.0,2.0,1.0,phase_2,stop,350.0,350.0,4.0,,,,,,,,,orange,cross
0.0,7.0,3.0,1.0,6.0,0.0,0.0,2.0,1.0,phase_2,stop,350.0,400.0,4.0,,,,,,,,,yellow,circle
0.0,5.0,1.0,1.0,6.0,0.0,0.0,2.0,1.0,phase_2,stop,350.0,450.0,4.0,,,,,,,,,white,square
0.0,4.0,4.0,0.0,5.0,5.0,659.9451150000277,2.0,1.0,phase_2,go,350.0,500.0,1.0,,,,,,,,,gray,I
0.0,8.0,4.0,1.0,6.0,0.0,0.0,2.0,1.0,phase_2,stop,350.0,500.0,4.0,,,,,,,,,orange,cross
0.0,5.0,1.0,1.0,5.0,0.0,0.0,2.0,1.0,phase_2,stop,350.0,550.0,4.0,,,,,,,,,white,square
0.0,2.0,2.0,0.0,5.0,5.0,753.1235169999491,2.0,1.0,phase_2,go,400.0,550.0,1.0,,,,,,,,,blue,hexagon
0.0,4.0,4.0,0.0,6.0,6.0,1199.875049000184,2.0,1.0,phase_2,go,400.0,550.0,1.0,,,,,,,,,gray,I
0.0,8.0,4.0,1.0,5.0,0.0,0.0,2.0,1.0,phase_2,stop,400.0,550.0,4.0,,,,,,,,,orange,cross
0.0,6.0,2.0,1.0,6.0,6.0,598.9602319996266,2.0,1.0,phase_2,stop,450.0,550.0,3.0,,,,,,,,,cyan,diamond
0.0,6.0,2.0,1.0,6.0,6.0,872.6136669997686,2.0,1.0,phase_2,go,450.0,500.0,1.0,,,,,,,,,cyan,diamond
0.0,1.0,1.0,0.0,5.0,5.0,838.1667339999694,2.0,1.0,phase_2,go,450.0,500.0,1.0,,,,,,,,,green,flipped triangle
0.0,6.0,2.0,1.0,5.0,0.0,0.0,2.0,1.0,phase_2,stop,450.0,500.0,4.0,,,,,,,,,cyan,diamond
0.0,8.0,4.0,1.0,6.0,0.0,0.0,2.0,1.0,phase_2,stop,500.0,500.0,4.0,,,,,,,,,orange,cross
0.0,7.0,3.0,1.0,5.0,5.0,679.211870999552,2.0,1.0,phase_2,stop,500.0,550.0,3.0,,,,,,,,,yellow,circle
0.0,6.0,2.0,1.0,6.0,6.0,830.2966460000789,2.0,1.0,phase_2,go,450.0,550.0,1.0,,,,,,,,,cyan,diamond
0.0,4.0,4.0,0.0,6.0,6.0,844.7866550000072,2.0,1.0,phase_2,go,450.0,550.0,1.0,,,,,,,,,gray,I
0.0,2.0,2.0,0.0,5.0,5.0,623.7721339998643,2.0,1.0,phase_2,go,450.0,550.0,1.0,,,,,,,,,blue,hexagon
0.0,6.0,2.0,1.0,6.0,6.0,675.977924000108,2.0,1.0,phase_2,stop,450.0,550.0,3.0,,,,,,,,,cyan,diamond
0.0,6.0,2.0,1.0,5.0,5.0,512.9334969997217,2.0,1.0,phase_2,stop,450.0,500.0,3.0,,,,,,,,,cyan,diamond
0.0,5.0,1.0,1.0,6.0,0.0,0.0,2.0,1.0,phase_2,stop,400.0,500.0,4.0,,,,,,,,,white,square
0.0,5.0,1.0,1.0,5.0,5.0,642.0844190001844,2.0,1.0,phase_2,go,400.0,550.0,1.0,,,,,,,,,white,square
0.0,8.0,4.0,1.0,5.0,0.0,0.0,2.0,1.0,phase_2,stop,400.0,550.0,4.0,,,,,,,,,orange,cross
0.0,8.0,4.0,1.0,5.0,0.0,0.0,3.0,1.0,phase_2,stop,450.0,550.0,4.0,,,,,,,,,orange,cross
0.0,5.0,1.0,1.0,5.0,5.0,623.7485599999673,3.0,1.0,phase_2,stop,500.0,550.0,3.0,,,,,,,,,white,square
0.0,7.0,3.0,1.0,6.0,6.0,475.6679930001155,3.0,1.0,phase_2,go,450.0,550.0,1.0,,,,,,,,,yellow,circle
0.0,7.0,3.0,1.0,5.0,5.0,580.5637700000261,3.0,1.0,phase_2,stop,450.0,550.0,3.0,,,,,,,,,yellow,circle
0.0,5.0,1.0,1.0,5.0,5.0,460.9467390000645,3.0,1.0,phase_2,stop,400.0,550.0,3.0,,,,,,,,,white,square
0.0,4.0,4.0,0.0,5.0,5.0,595.2411469997969,3.0,1.0,phase_2,go,350.0,550.0,1.0,,,,,,,,,gray,I
0.0,7.0,3.0,1.0,5.0,5.0,424.9383540000053,3.0,1.0,phase_2,stop,350.0,550.0,3.0,,,,,,,,,yellow,circle
0.0,3.0,3.0,0.0,5.0,5.0,474.9611229999573,3.0,1.0,phase_2,go,300.0,550.0,1.0,,,,,,,,,magenta,triangle
0.0,6.0,2.0,1.0,6.0,6.0,447.8408069999204,3.0,1.0,phase_2,go,300.0,550.0,1.0,,,,,,,,,cyan,diamond
0.0,7.0,3.0,1.0,6.0,6.0,419.5099769999615,3.0,1.0,phase_2,go,300.0,550.0,1.0,,,,,,,,,yellow,circle
0.0,8.0,4.0,1.0,6.0,6.0,475.5962540002656,3.0,1.0,phase_2,stop,300.0,550.0,3.0,,,,,,,,,orange,cross
0.0,8.0,4.0,1.0,5.0,5.0,270.5363009999928,3.0,1.0,phase_2,stop,300.0,500.0,3.0,,,,,,,,,orange,cross
0.0,5.0,1.0,1.0,5.0,5.0,269.8945689999164,3.0,1.0,phase_2,go,250.0,500.0,1.0,,,,,,,,,white,square
0.0,2.0,2.0,0.0,6.0,6.0,242.1973140003501,3.0,1.0,phase_2,go,250.0,500.0,1.0,,,,,,,,,blue,hexagon
0.0,6.0,2.0,1.0,6.0,6.0,281.3084269996579,3.0,1.0,phase_2,go,250.0,500.0,1.0,,,,,,,,,cyan,diamond
0.0,4.0,4.0,0.0,6.0,6.0,261.1660090001351,3.0,1.0,phase_2,go,250.0,500.0,1.0,,,,,,,,,gray,I
0.0,2.0,2.0,0.0,6.0,6.0,262.263804000213,3.0,1.0,phase_2,go,250.0,500.0,1.0,,,,,,,,,blue,hexagon
0.0,6.0,2.0,1.0,6.0,6.0,281.1091819999092,3.0,1.0,phase_2,stop,250.0,500.0,3.0,,,,,,,,,cyan,diamond
0.0,5.0,1.0,1.0,5.0,5.0,325.1964020000741,3.0,1.0,phase_2,go,250.0,450.0,1.0,,,,,,,,,white,square
0.0,5.0,1.0,1.0,6.0,6.0,289.4422909998866,3.0,1.0,phase_2,stop,250.0,450.0,3.0,,,,,,,,,white,square
0.0,2.0,2.0,0.0,6.0,6.0,261.1682070000825,3.0,1.0,phase_2,go,250.0,400.0,1.0,,,,,,,,,blue,hexagon
0.0,8.0,4.0,1.0,5.0,5.0,325.8918649999032,3.0,1.0,phase_2,go,250.0,400.0,1.0,,,,,,,,,orange,cross
0.0,2.0,2.0,0.0,5.0,5.0,298.5967620002157,3.0,1.0,phase_2,go,250.0,400.0,1.0,,,,,,,,,blue,hexagon
0.0,7.0,3.0,1.0,5.0,5.0,252.95794800013027,3.0,1.0,phase_2,go,250.0,400.0,1.0,,,,,,,,,yellow,circle
0.0,6.0,2.0,1.0,6.0,6.0,326.417106000008,3.0,1.0,phase_2,stop,250.0,400.0,3.0,,,,,,,,,cyan,diamond
0.0,8.0,4.0,1.0,5.0,5.0,251.7404769996574,3.0,1.0,phase_2,go,250.0,350.0,1.0,,,,,,,,,orange,cross
0.0,2.0,2.0,0.0,6.0,6.0,316.0679990000972,3.0,1.0,phase_2,go,250.0,350.0,1.0,,,,,,,,,blue,hexagon
0.0,5.0,1.0,1.0,5.0,5.0,291.7431379996742,3.0,1.0,phase_2,stop,250.0,350.0,3.0,,,,,,,,,white,square
0.0,2.0,2.0,0.0,6.0,6.0,309.270620999996,3.0,1.0,phase_2,go,200.0,350.0,1.0,,,,,,,,,blue,hexagon
0.0,6.0,2.0,1.0,6.0,6.0,336.1886499997126,3.0,1.0,phase_2,go,200.0,350.0,1.0,,,,,,,,,cyan,diamond
0.0,4.0,4.0,0.0,6.0,6.0,353.5896389998925,3.0,1.0,phase_2,go,200.0,350.0,1.0,,,,,,,,,gray,I
0.0,4.0,4.0,0.0,5.0,5.0,356.5806370002065,3.0,1.0,phase_2,go,200.0,350.0,1.0,,,,,,,,,gray,I
0.0,5.0,1.0,1.0,6.0,6.0,299.2443220000496,3.0,1.0,phase_2,go,200.0,350.0,1.0,,,,,,,,,white,square
0.0,1.0,1.0,0.0,5.0,5.0,298.9891420002095,3.0,1.0,phase_2,go,200.0,350.0,1.0,,,,,,,,,green,flipped triangle
0.0,2.0,2.0,0.0,6.0,6.0,336.8750459999319,3.0,1.0,phase_2,go,200.0,350.0,1.0,,,,,,,,,blue,hexagon
0.0,5.0,1.0,1.0,6.0,6.0,325.8105640002213,3.0,1.0,phase_2,stop,200.0,350.0,3.0,,,,,,,,,white,square
0.0,1.0,1.0,0.0,5.0,5.0,392.1252680001998,4.0,1.0,phase_2,go,200.0,300.0,1.0,,,,,,,,,green,flipped triangle
0.0,2.0,2.0,0.0,6.0,6.0,410.509973000444,4.0,1.0,phase_2,go,200.0,300.0,1.0,,,,,,,,,blue,hexagon
0.0,7.0,3.0,1.0,6.0,0.0,0.0,4.0,1.0,phase_2,stop,200.0,300.0,4.0,,,,,,,,,yellow,circle
0.0,4.0,4.0,0.0,6.0,6.0,353.6891450003168,4.0,1.0,phase_2,go,200.0,350.0,1.0,,,,,,,,,gray,I
0.0,3.0,3.0,0.0,5.0,5.0,559.5650899999782,4.0,1.0,phase_2,go,200.0,350.0,1.0,,,,,,,,,magenta,triangle
0.0,7.0,3.0,1.0,5.0,5.0,348.532174000411,4.0,1.0,phase_2,stop,200.0,350.0,3.0,,,,,,,,,yellow,circle
0.0,8.0,4.0,1.0,6.0,0.0,0.0,4.0,1.0,phase_2,stop,150.0,350.0,4.0,,,,,,,,,orange,cross
0.0,8.0,4.0,1.0,5.0,0.0,0.0,4.0,1.0,phase_2,stop,150.0,400.0,4.0,,,,,,,,,orange,cross
0.0,3.0,3.0,0.0,5.0,5.0,400.905643000442,4.0,1.0,phase_2,go,200.0,400.0,1.0,,,,,,,,,magenta,triangle
0.0,3.0,3.0,0.0,6.0,6.0,512.2348189997865,4.0,1.0,phase_2,go,200.0,400.0,1.0,,,,,,,,,magenta,triangle
0.0,4.0,4.0,0.0,5.0,5.0,687.8734689998964,4.0,1.0,phase_2,go,200.0,400.0,1.0,,,,,,,,,gray,I
0.0,4.0,4.0,0.0,5.0,5.0,641.9127399999525,4.0,1.0,phase_2,go,200.0,400.0,1.0,,,,,,,,,gray,I
0.0,4.0,4.0,0.0,6.0,6.0,596.272153999962,4.0,1.0,phase_2,go,200.0,400.0,1.0,,,,,,,,,gray,I
0.0,8.0,4.0,1.0,6.0,6.0,317.1329450001394,4.0,1.0,phase_2,go,200.0,400.0,1.0,,,,,,,,,orange,cross
0.0,5.0,1.0,1.0,6.0,6.0,446.6924769999423,4.0,1.0,phase_2,stop,200.0,400.0,3.0,,,,,,,,,white,square
0.0,1.0,1.0,0.0,5.0,5.0,523.1996969996544,4.0,1.0,phase_2,go,200.0,350.0,1.0,,,,,,,,,green,flipped triangle
0.0,4.0,4.0,0.0,6.0,6.0,558.8245429999006,4.0,1.0,phase_2,go,200.0,350.0,1.0,,,,,,,,,gray,I
0.0,5.0,1.0,1.0,5.0,0.0,0.0,4.0,1.0,phase_2,stop,200.0,350.0,4.0,,,,,,,,,white,square
0.0,4.0,4.0,0.0,6.0,6.0,308.9546880000853,4.0,1.0,phase_2,go,250.0,350.0,1.0,,,,,,,,,gray,I
0.0,7.0,3.0,1.0,6.0,6.0,518.3588999998392,4.0,1.0,phase_2,stop,250.0,350.0,3.0,,,,,,,,,yellow,circle
0.0,7.0,3.0,1.0,6.0,0.0,0.0,4.0,1.0,phase_2,stop,250.0,300.0,4.0,,,,,,,,,yellow,circle
0.0,1.0,1.0,0.0,5.0,5.0,485.2536240000518,4.0,1.0,phase_2,go,250.0,350.0,1.0,,,,,,,,,green,flipped triangle
0.0,3.0,3.0,0.0,6.0,6.0,595.0976740000442,4.0,1.0,phase_2,go,250.0,350.0,1.0,,,,,,,,,magenta,triangle
0.0,4.0,4.0,0.0,5.0,5.0,391.3873960000273,4.0,1.0,phase_2,go,250.0,350.0,1.0,,,,,,,,,gray,I
0.0,6.0,2.0,1.0,5.0,0.0,0.0,4.0,1.0,phase_2,stop,250.0,350.0,4.0,,,,,,,,,cyan,diamond
0.0,2.0,2.0,0.0,5.0,5.0,352.4179379996894,4.0,1.0,phase_2,go,300.0,350.0,1.0,,,,,,,,,blue,hexagon
0.0,1.0,1.0,0.0,6.0,6.0,558.0710830004136,4.0,1.0,phase_2,go,300.0,350.0,1.0,,,,,,,,,green,flipped triangle
0.0,2.0,2.0,0.0,5.0,5.0,652.8129630000876,4.0,1.0,phase_2,go,300.0,350.0,1.0,,,,,,,,,blue,hexagon
0.0,8.0,4.0,1.0,5.0,0.0,0.0,4.0,1.0,phase_2,stop,300.0,350.0,4.0,,,,,,,,,orange,cross
0.0,7.0,3.0,1.0,5.0,5.0,308.6392340001112,4.0,1.0,phase_2,stop,350.0,350.0,3.0,,,,,,,,,yellow,circle
0.0,7.0,3.0,1.0,6.0,0.0,0.0,4.0,1.0,phase_2,stop,300.0,350.0,4.0,,,,,,,,,yellow,circle
0.0,2.0,2.0,0.0,6.0,6.0,558.7636479999674,4.0,1.0,phase_2,go,300.0,400.0,1.0,,,,,,,,,blue,hexagon
0.0,8.0,4.0,1.0,5.0,5.0,559.8589660003199,4.0,1.0,phase_2,go,300.0,400.0,1.0,,,,,,,,,orange,cross
0.0,2.0,2.0,0.0,6.0,6.0,643.7465479998536,4.0,1.0,phase_2,go,300.0,400.0,1.0,,,,,,,,,blue,hexagon
0.0,4.0,4.0,0.0,5.0,5.0,634.7090489998664,4.0,1.0,phase_2,go,300.0,400.0,1.0,,,,,,,,,gray,I
0.0,7.0,3.0,1.0,6.0,6.0,345.2717590002976,4.0,1.0,phase_2,stop,300.0,400.0,3.0,,,,,,,,,yellow,circle
0.0,5.0,1.0,1.0,5.0,5.0,780.6992929999979,5.0,1.0,phase_2,go,300.0,350.0,1.0,,,,,,,,,white,square
0.0,6.0,2.0,1.0,5.0,0.0,0.0,5.0,1.0,phase_2,stop,300.0,350.0,4.0,,,,,,,,,cyan,diamond
0.0,2.0,2.0,0.0,6.0,6.0,438.7465980003071,5.0,1.0,phase_2,go,350.0,350.0,1.0,,,,,,,,,blue,hexagon
0.0,6.0,2.0,1.0,5.0,0.0,0.0,5.0,1.0,phase_2,stop,350.0,350.0,4.0,,,,,,,,,cyan,diamond
0.0,4.0,4.0,0.0,6.0,6.0,447.0013440000002,5.0,1.0,phase_2,go,400.0,350.0,1.0,,,,,,,,,gray,I
0.0,6.0,2.0,1.0,5.0,5.0,614.6163270000216,5.0,1.0,phase_2,go,400.0,350.0,1.0,,,,,,,,,cyan,diamond
0.0,2.0,2.0,0.0,6.0,6.0,606.0074189999796,5.0,1.0,phase_2,go,400.0,350.0,1.0,,,,,,,,,blue,hexagon
0.0,3.0,3.0,0.0,6.0,6.0,427.5613810000322,5.0,1.0,phase_2,go,400.0,350.0,1.0,,,,,,,,,magenta,triangle
0.0,2.0,2.0,0.0,6.0,6.0,418.8603019997572,5.0,1.0,phase_2,go,400.0,350.0,1.0,,,,,,,,,blue,hexagon
0.0,6.0,2.0,1.0,5.0,5.0,593.957957999919,5.0,1.0,phase_2,stop,400.0,350.0,3.0,,,,,,,,,cyan,diamond
0.0,3.0,3.0,0.0,5.0,5.0,690.2468210000734,5.0,1.0,phase_2,go,350.0,350.0,1.0,,,,,,,,,magenta,triangle
0.0,1.0,1.0,0.0,6.0,6.0,520.867544000339,5.0,1.0,phase_2,go,350.0,350.0,1.0,,,,,,,,,green,flipped triangle
0.0,4.0,4.0,0.0,5.0,5.0,568.0688530001134,5.0,1.0,phase_2,go,350.0,350.0,1.0,,,,,,,,,gray,I
0.0,5.0,1.0,1.0,6.0,6.0,428.2984189999297,5.0,1.0,phase_2,stop,350.0,350.0,3.0,,,,,,,,,white,square
0.0,4.0,4.0,0.0,6.0,6.0,549.5516440000756,5.0,1.0,phase_2,go,350.0,300.0,1.0,,,,,,,,,gray,I
0.0,7.0,3.0,1.0,6.0,0.0,0.0,5.0,1.0,phase_2,stop,350.0,300.0,4.0,,,,,,,,,yellow,circle
0.0,3.0,3.0,0.0,6.0,6.0,418.9516270002968,5.0,1.0,phase_2,go,350.0,350.0,1.0,,,,,,,,,magenta,triangle
0.0,5.0,1.0,1.0,6.0,6.0,736.112816000059,5.0,1.0,phase_2,go,350.0,350.0,1.0,,,,,,,,,white,square
0.0,7.0,3.0,1.0,6.0,0.0,0.0,5.0,1.0,phase_2,stop,350.0,350.0,4.0,,,,,,,,,yellow,circle
0.0,7.0,3.0,1.0,5.0,5.0,446.9492930002161,5.0,1.0,phase_2,go,350.0,400.0,1.0,,,,,,,,,yellow,circle
0.0,3.0,3.0,0.0,5.0,5.0,699.1243560000839,5.0,1.0,phase_2,go,350.0,400.0,1.0,,,,,,,,,magenta,triangle
0.0,8.0,4.0,1.0,6.0,6.0,530.1016950002122,5.0,1.0,phase_2,go,350.0,400.0,1.0,,,,,,,,,orange,cross
0.0,8.0,4.0,1.0,5.0,5.0,420.8900860003268,5.0,1.0,phase_2,stop,350.0,400.0,3.0,,,,,,,,,orange,cross
0.0,2.0,2.0,0.0,6.0,6.0,448.1481869997878,5.0,1.0,phase_2,go,300.0,400.0,1.0,,,,,,,,,blue,hexagon
0.0,1.0,1.0,0.0,6.0,6.0,419.6335410001666,5.0,1.0,phase_2,go,300.0,400.0,1.0,,,,,,,,,green,flipped triangle
0.0,3.0,3.0,0.0,5.0,5.0,623.1619380000666,5.0,1.0,phase_2,go,300.0,400.0,1.0,,,,,,,,,magenta,triangle
0.0,4.0,4.0,0.0,5.0,5.0,640.1643610001884,5.0,1.0,phase_2,go,300.0,400.0,1.0,,,,,,,,,gray,I
0.0,2.0,2.0,0.0,5.0,5.0,660.9859780000988,5.0,1.0,phase_2,go,300.0,400.0,1.0,,,,,,,,,blue,hexagon
0.0,1.0,1.0,0.0,6.0,6.0,679.739327000334,5.0,1.0,phase_2,go,300.0,400.0,1.0,,,,,,,,,green,flipped triangle
0.0,5.0,1.0,1.0,6.0,6.0,525.0924039996789,5.0,1.0,phase_2,stop,300.0,400.0,3.0,,,,,,,,,white,square
0.0,1.0,1.0,0.0,6.0,6.0,621.9315580001421,5.0,1.0,phase_2,go,300.0,350.0,1.0,,,,,,,,,green,flipped triangle
0.0,1.0,1.0,0.0,6.0,6.0,473.8654539996787,5.0,1.0,phase_2,go,300.0,350.0,1.0,,,,,,,,,green,flipped triangle
0.0,7.0,3.0,1.0,5.0,0.0,0.0,5.0,1.0,phase_2,stop,300.0,350.0,4.0,,,,,,,,,yellow,circle
0.0,5.0,1.0,1.0,6.0,0.0,0.0,5.0,1.0,phase_2,stop,350.0,350.0,4.0,,,,,,,,,white,square
0.0,2.0,2.0,0.0,5.0,5.0,718.4344430002056,5.0,1.0,phase_2,go,350.0,400.0,1.0,,,,,,,,,blue,hexagon
0.0,2.0,2.0,0.0,5.0,5.0,568.5257829995862,5.0,1.0,phase_2,go,350.0,400.0,1.0,,,,,,,,,blue,hexagon
0.0,1.0,1.0,0.0,6.0,6.0,560.9739849996913,6.0,1.0,phase_2,go,350.0,400.0,1.0,,,,,,,,,green,flipped triangle
0.0,4.0,4.0,0.0,6.0,6.0,680.800409999847,6.0,1.0,phase_2,go,350.0,400.0,1.0,,,,,,,,,gray,I
0.0,4.0,4.0,0.0,5.0,5.0,512.5302930000544,6.0,1.0,phase_2,go,350.0,400.0,1.0,,,,,,,,,gray,I
0.0,5.0,1.0,1.0,6.0,6.0,453.0454380001174,6.0,1.0,phase_2,stop,350.0,400.0,3.0,,,,,,,,,white,square
0.0,3.0,3.0,0.0,6.0,6.0,493.8182450000568,6.0,1.0,phase_2,go,350.0,350.0,1.0,,,,,,,,,magenta,triangle
0.0,8.0,4.0,1.0,5.0,0.0,0.0,6.0,1.0,phase_2,stop,350.0,350.0,4.0,,,,,,,,,orange,cross
0.0,8.0,4.0,1.0,5.0,5.0,527.1116160001839,6.0,1.0,phase_2,stop,400.0,350.0,3.0,,,,,,,,,orange,cross
0.0,6.0,2.0,1.0,6.0,0.0,0.0,6.0,1.0,phase_2,stop,350.0,350.0,4.0,,,,,,,,,cyan,diamond
0.0,3.0,3.0,0.0,5.0,5.0,577.088017999813,6.0,1.0,phase_2,go,350.0,400.0,1.0,,,,,,,,,magenta,triangle
0.0,1.0,1.0,0.0,5.0,5.0,680.1839179997842,6.0,1.0,phase_2,go,350.0,400.0,1.0,,,,,,,,,green,flipped triangle
0.0,6.0,2.0,1.0,6.0,0.0,0.0,6.0,1.0,phase_2,stop,350.0,400.0,4.0,,,,,,,,,cyan,diamond
0.0,1.0,1.0,0.0,5.0,5.0,607.0128220003426,6.0,1.0,phase_2,go,350.0,450.0,1.0,,,,,,,,,green,flipped triangle
0.0,6.0,2.0,1.0,6.0,0.0,0.0,6.0,1.0,phase_2,stop,350.0,450.0,4.0,,,,,,,,,cyan,diamond
0.0,3.0,3.0,0.0,5.0,5.0,726.761016999717,6.0,1.0,phase_2,go,350.0,500.0,1.0,,,,,,,,,magenta,triangle
0.0,8.0,4.0,1.0,6.0,0.0,0.0,6.0,1.0,phase_2,stop,350.0,500.0,4.0,,,,,,,,,orange,cross
0.0,8.0,4.0,1.0,5.0,0.0,0.0,6.0,1.0,phase_2,stop,350.0,550.0,4.0,,,,,,,,,orange,cross
0.0,3.0,3.0,0.0,5.0,5.0,800.0417640000705,6.0,1.0,phase_2,go,400.0,550.0,1.0,,,,,,,,,magenta,triangle
0.0,8.0,4.0,1.0,6.0,0.0,0.0,6.0,1.0,phase_2,stop,400.0,550.0,4.0,,,,,,,,,orange,cross
0.0,6.0,2.0,1.0,5.0,0.0,0.0,6.0,1.0,phase_2,stop,400.0,600.0,4.0,,,,,,,,,cyan,diamond
0.0,6.0,2.0,1.0,5.0,0.0,0.0,6.0,1.0,phase_2,stop,450.0,600.0,4.0,,,,,,,,,cyan,diamond
0.0,6.0,2.0,1.0,5.0,5.0,928.4582469999804,6.0,1.0,phase_2,go,500.0,600.0,1.0,,,,,,,,,cyan,diamond
0.0,3.0,3.0,0.0,5.0,5.0,948.6915889997364,6.0,1.0,phase_2,go,500.0,600.0,1.0,,,,,,,,,magenta,triangle
0.0,1.0,1.0,0.0,5.0,5.0,728.8271460001852,6.0,1.0,phase_2,go,500.0,600.0,1.0,,,,,,,,,green,flipped triangle
0.0,2.0,2.0,0.0,5.0,5.0,809.7807139997713,6.0,1.0,phase_2,go,500.0,600.0,1.0,,,,,,,,,blue,hexagon
0.0,2.0,2.0,0.0,5.0,5.0,885.8700350001527,6.0,1.0,phase_2,go,500.0,600.0,1.0,,,,,,,,,blue,hexagon
0.0,8.0,4.0,1.0,6.0,0.0,0.0,6.0,1.0,phase_2,stop,500.0,600.0,4.0,,,,,,,,,orange,cross
0.0,3.0,3.0,0.0,6.0,6.0,1053.2456979999552,6.0,1.0,phase_2,go,500.0,650.0,1.0,,,,,,,,,magenta,triangle
0.0,6.0,2.0,1.0,5.0,0.0,0.0,6.0,1.0,phase_2,stop,500.0,650.0,4.0,,,,,,,,,cyan,diamond
0.0,4.0,4.0,0.0,5.0,5.0,810.0823209997543,6.0,1.0,phase_2,go,550.0,650.0,1.0,,,,,,,,,gray,I
0.0,1.0,1.0,0.0,5.0,5.0,1054.0099589998135,6.0,1.0,phase_2,go,550.0,650.0,1.0,,,,,,,,,green,flipped triangle
0.0,5.0,1.0,1.0,5.0,0.0,0.0,6.0,1.0,phase_2,stop,550.0,650.0,4.0,,,,,,,,,white,square
0.0,1.0,1.0,0.0,6.0,6.0,912.1480459998564,6.0,1.0,phase_2,go,600.0,650.0,1.0,,,,,,,,,green,flipped triangle
0.0,3.0,3.0,0.0,6.0,6.0,958.5184499997011,6.0,1.0,phase_2,go,600.0,650.0,1.0,,,,,,,,,magenta,triangle
0.0,1.0,1.0,0.0,6.0,6.0,930.6384840001556,6.0,1.0,phase_2,go,600.0,650.0,1.0,,,,,,,,,green,flipped triangle
0.0,8.0,4.0,1.0,6.0,0.0,0.0,6.0,1.0,phase_2,stop,600.0,650.0,4.0,,,,,,,,,orange,cross
0.0,7.0,3.0,1.0,5.0,5.0,410.3548059997592,6.0,1.0,phase_2,stop,600.0,700.0,3.0,,,,,,,,,yellow,circle
0.0,4.0,4.0,0.0,6.0,6.0,623.4546539999428,7.0,1.0,phase_2,go,550.0,700.0,1.0,,,,,,,,,gray,I
0.0,1.0,1.0,0.0,5.0,5.0,538.0389499996454,7.0,1.0,phase_2,go,550.0,700.0,1.0,,,,,,,,,green,flipped triangle
0.0,7.0,3.0,1.0,5.0,5.0,446.7716479998671,7.0,1.0,phase_2,stop,550.0,700.0,3.0,,,,,,,,,yellow,circle
0.0,4.0,4.0,0.0,5.0,5.0,540.6141870003012,7.0,1.0,phase_2,go,500.0,700.0,1.0,,,,,,,,,gray,I
0.0,1.0,1.0,0.0,6.0,6.0,438.0958410001767,7.0,1.0,phase_2,go,500.0,700.0,1.0,,,,,,,,,green,flipped triangle
0.0,1.0,1.0,0.0,6.0,6.0,800.202569999783,7.0,1.0,phase_2,go,500.0,700.0,1.0,,,,,,,,,green,flipped triangle
0.0,6.0,2.0,1.0,6.0,6.0,742.1638460000395,7.0,1.0,phase_2,stop,500.0,700.0,3.0,,,,,,,,,cyan,diamond
0.0,7.0,3.0,1.0,5.0,0.0,0.0,7.0,1.0,phase_2,stop,500.0,650.0,4.0,,,,,,,,,yellow,circle
0.0,4.0,4.0,0.0,5.0,5.0,557.5125020000087,7.0,1.0,phase_2,go,550.0,650.0,1.0,,,,,,,,,gray,I
0.0,5.0,1.0,1.0,6.0,6.0,761.2962719999814,7.0,1.0,phase_2,stop,550.0,650.0,3.0,,,,,,,,,white,square
0.0,3.0,3.0,0.0,6.0,6.0,838.6260530000982,7.0,1.0,phase_2,go,550.0,600.0,1.0,,,,,,,,,magenta,triangle
0.0,1.0,1.0,0.0,6.0,6.0,997.9884859999402,7.0,1.0,phase_2,go,550.0,600.0,1.0,,,,,,,,,green,flipped triangle
0.0,5.0,1.0,1.0,5.0,5.0,1069.333936000021,7.0,1.0,phase_2,go,550.0,600.0,1.0,,,,,,,,,white,square
0.0,1.0,1.0,0.0,5.0,5.0,782.9598900002566,7.0,1.0,phase_2,go,550.0,600.0,1.0,,,,,,,,,green,flipped triangle
0.0,6.0,2.0,1.0,6.0,0.0,0.0,7.0,1.0,phase_2,stop,550.0,600.0,4.0,,,,,,,,,cyan,diamond
0.0,1.0,1.0,0.0,6.0,6.0,876.9474079999782,7.0,1.0,phase_2,go,550.0,650.0,1.0,,,,,,,,,green,flipped triangle
0.0,7.0,3.0,1.0,5.0,5.0,855.9933159999673,7.0,1.0,phase_2,go,550.0,650.0,1.0,,,,,,,,,yellow,circle
0.0,7.0,3.0,1.0,6.0,0.0,0.0,7.0,1.0,phase_2,stop,550.0,650.0,4.0,,,,,,,,,yellow,circle
0.0,2.0,2.0,0.0,5.0,5.0,550.3702119999616,7.0,1.0,phase_2,go,550.0,700.0,1.0,,,,,,,,,blue,hexagon
0.0,6.0,2.0,1.0,5.0,5.0,846.3364320000437,7.0,1.0,phase_2,go,550.0,700.0,1.0,,,,,,,,,cyan,diamond
0.0,8.0,4.0,1.0,5.0,5.0,882.6901990000806,7.0,1.0,phase_2,go,550.0,700.0,1.0,,,,,,,,,orange,cross
0.0,1.0,1.0,0.0,5.0,5.0,743.4566100000666,7.0,1.0,phase_2,go,550.0,700.0,1.0,,,,,,,,,green,flipped triangle
0.0,7.0,3.0,1.0,5.0,5.0,712.211199000194,7.0,1.0,phase_2,stop,550.0,700.0,3.0,,,,,,,,,yellow,circle
0.0,4.0,4.0,0.0,5.0,5.0,875.5395729999691,7.0,1.0,phase_2,go,500.0,700.0,1.0,,,,,,,,,gray,I
0.0,8.0,4.0,1.0,6.0,6.0,698.8412750001771,7.0,1.0,phase_2,stop,500.0,700.0,3.0,,,,,,,,,orange,cross
0.0,6.0,2.0,1.0,6.0,0.0,0.0,7.0,1.0,phase_2,stop,500.0,650.0,4.0,,,,,,,,,cyan,diamond
0.0,4.0,4.0,0.0,6.0,6.0,865.0959639999201,7.0,1.0,phase_2,go,500.0,700.0,1.0,,,,,,,,,gray,I
0.0,3.0,3.0,0.0,6.0,6.0,817.7848840000479,7.0,1.0,phase_2,go,500.0,700.0,1.0,,,,,,,,,magenta,triangle
0.0,2.0,2.0,0.0,5.0,5.0,1133.400009999605,7.0,1.0,phase_2,go,500.0,700.0,1.0,,,,,,,,,blue,hexagon
0.0,6.0,2.0,1.0,6.0,0.0,0.0,7.0,1.0,phase_2,stop,500.0,700.0,4.0,,,,,,,,,cyan,diamond
0.0,8.0,4.0,1.0,6.0,6.0,633.4203649998926,7.0,1.0,phase_2,stop,500.0,750.0,3.0,,,,,,,,,orange,cross
0.0,3.0,3.0,0.0,5.0,5.0,892.6289999999426,7.0,1.0,phase_2,go,500.0,700.0,1.0,,,,,,,,,magenta,triangle
0.0,8.0,4.0,1.0,5.0,0.0,0.0,7.0,1.0,phase_2,stop,500.0,700.0,4.0,,,,,,,,,orange,cross
0.0,7.0,3.0,1.0,6.0,6.0,858.2666320003227,7.0,1.0,phase_2,stop,550.0,700.0,3.0,,,,,,,,,yellow,circle
0.0,7.0,3.0,1.0,6.0,6.0,1060.7386350002344,7.0,1.0,phase_2,go,550.0,650.0,1.0,,,,,,,,,yellow,circle
0.0,2.0,2.0,0.0,5.0,5.0,1079.6231320000516,7.0,1.0,phase_2,go,550.0,650.0,1.0,,,,,,,,,blue,hexagon
0.0,4.0,4.0,0.0,5.0,5.0,838.3059729999331,8.0,1.0,phase_2,go,550.0,650.0,1.0,,,,,,,,,gray,I
0.0,3.0,3.0,0.0,6.0,6.0,1053.8326450000568,8.0,1.0,phase_2,go,550.0,650.0,1.0,,,,,,,,,magenta,triangle
0.0,1.0,1.0,0.0,6.0,6.0,985.7272069998544,8.0,1.0,phase_2,go,550.0,650.0,1.0,,,,,,,,,green,flipped triangle
0.0,6.0,2.0,1.0,5.0,5.0,520.8404869999868,8.0,1.0,phase_2,stop,550.0,650.0,3.0,,,,,,,,,cyan,diamond
0.0,2.0,2.0,0.0,5.0,5.0,586.7285290000837,8.0,1.0,phase_2,go,500.0,650.0,1.0,,,,,,,,,blue,hexagon
0.0,4.0,4.0,0.0,6.0,6.0,409.4012840000687,8.0,1.0,phase_2,go,500.0,650.0,1.0,,,,,,,,,gray,I
0.0,3.0,3.0,0.0,6.0,6.0,671.2878619996445,8.0,1.0,phase_2,go,500.0,650.0,1.0,,,,,,,,,magenta,triangle
0.0,2.0,2.0,0.0,5.0,5.0,548.2284560002881,8.0,1.0,phase_2,go,500.0,650.0,1.0,,,,,,,,,blue,hexagon
0.0,6.0,2.0,1.0,6.0,6.0,362.7483489999576,8.0,1.0,phase_2,stop,500.0,650.0,3.0,,,,,,,,,cyan,diamond
0.0,1.0,1.0,0.0,5.0,5.0,782.2326609998527,8.0,1.0,phase_2,go,500.0,600.0,1.0,,,,,,,,,green,flipped triangle
0.0,3.0,3.0,0.0,6.0,6.0,624.2473930001324,8.0,1.0,phase_2,go,500.0,600.0,1.0,,,,,,,,,magenta,triangle
0.0,4.0,4.0,0.0,5.0,5.0,661.7825059997813,8.0,1.0,phase_2,go,500.0,600.0,1.0,,,,,,,,,gray,I
0.0,2.0,2.0,0.0,6.0,6.0,697.968094999851,8.0,1.0,phase_2,go,500.0,600.0,1.0,,,,,,,,,blue,hexagon
0.0,7.0,3.0,1.0,5.0,5.0,612.7019099999416,8.0,1.0,phase_2,stop,500.0,600.0,3.0,,,,,,,,,yellow,circle
0.0,1.0,1.0,0.0,5.0,5.0,661.4859950000209,8.0,1.0,phase_2,go,450.0,600.0,1.0,,,,,,,,,green,flipped triangle
0.0,5.0,1.0,1.0,5.0,0.0,0.0,8.0,1.0,phase_2,stop,450.0,600.0,4.0,,,,,,,,,white,square
0.0,1.0,1.0,0.0,6.0,6.0,726.1292260000118,8.0,1.0,phase_2,go,500.0,600.0,1.0,,,,,,,,,green,flipped triangle
0.0,3.0,3.0,0.0,5.0,5.0,691.304752999713,8.0,1.0,phase_2,go,500.0,600.0,1.0,,,,,,,,,magenta,triangle
0.0,6.0,2.0,1.0,6.0,6.0,467.2287009998399,8.0,1.0,phase_2,stop,500.0,600.0,3.0,,,,,,,,,cyan,diamond
0.0,2.0,2.0,0.0,6.0,6.0,812.5694360001035,8.0,1.0,phase_2,go,500.0,550.0,1.0,,,,,,,,,blue,hexagon
0.0,8.0,4.0,1.0,6.0,0.0,0.0,8.0,1.0,phase_2,stop,500.0,550.0,4.0,,,,,,,,,orange,cross
0.0,5.0,1.0,1.0,6.0,6.0,746.3987999999517,8.0,1.0,phase_2,stop,500.0,600.0,3.0,,,,,,,,,white,square
0.0,2.0,2.0,0.0,5.0,5.0,754.0053550001176,8.0,1.0,phase_2,go,500.0,550.0,1.0,,,,,,,,,blue,hexagon
0.0,2.0,2.0,0.0,6.0,6.0,911.013407000155,8.0,1.0,phase_2,go,500.0,550.0,1.0,,,,,,,,,blue,hexagon
0.0,6.0,2.0,1.0,5.0,0.0,0.0,8.0,1.0,phase_2,stop,500.0,550.0,4.0,,,,,,,,,cyan,diamond
0.0,8.0,4.0,1.0,6.0,6.0,486.2864749998152,8.0,1.0,phase_2,stop,550.0,550.0,3.0,,,,,,,,,orange,cross
0.0,2.0,2.0,0.0,5.0,5.0,829.8540850000791,8.0,1.0,phase_2,go,550.0,500.0,1.0,,,,,,,,,blue,hexagon
0.0,7.0,3.0,1.0,6.0,6.0,893.6024110003018,8.0,1.0,phase_2,go,550.0,500.0,1.0,,,,,,,,,yellow,circle
0.0,1.0,1.0,0.0,5.0,5.0,790.6195579998894,8.0,1.0,phase_2,go,550.0,500.0,1.0,,,,,,,,,green,flipped triangle
0.0,7.0,3.0,1.0,5.0,5.0,710.0194879999435,8.0,1.0,phase_2,go,550.0,500.0,1.0,,,,,,,,,yellow,circle
0.0,4.0,4.0,0.0,6.0,6.0,784.233587000017,8.0,1.0,phase_2,go,550.0,500.0,1.0,,,,,,,,,gray,I
0.0,1.0,1.0,0.0,6.0,6.0,726.1528670001098,8.0,1.0,phase_2,go,550.0,500.0,1.0,,,,,,,,,green,flipped triangle
0.0,4.0,4.0,0.0,5.0,5.0,811.7683440000292,8.0,1.0,phase_2,go,550.0,500.0,1.0,,,,,,,,,gray,I
0.0,5.0,1.0,1.0,6.0,0.0,0.0,8.0,1.0,phase_2,stop,550.0,500.0,4.0,,,,,,,,,white,square
0.0,5.0,1.0,1.0,6.0,6.0,802.4312870002177,8.0,1.0,phase_2,go,550.0,550.0,1.0,,,,,,,,,white,square
0.0,2.0,2.0,0.0,6.0,6.0,780.2266499998041,8.0,1.0,phase_2,go,550.0,550.0,1.0,,,,,,,,,blue,hexagon
0.0,8.0,4.0,1.0,7.0,2.0,1606.842893999783,1.0,2.0,phase_3,,,,,346.0,2.0,519.0,346.0,173.0,865.0,1038.0,692.0,orange,cross
0.0,7.0,3.0,1.0,7.0,2.0,2806.72880200018,1.0,1.0,phase_3,,,,,462.0,3.0,770.0,462.0,616.0,154.0,924.0,308.0,yellow,circle
0.0,2.0,2.0,0.0,7.0,3.0,2371.170042999438,1.0,1.0,phase_3,,,,,768.0,4.0,192.0,576.0,768.0,384.0,960.0,1152.0,blue,hexagon
0.0,8.0,4.0,1.0,7.0,3.0,1443.369569999959,1.0,1.0,phase_3,,,,,346.0,2.0,519.0,692.0,346.0,1038.0,173.0,865.0,orange,cross
0.0,1.0,1.0,0.0,7.0,2.0,2106.479430000036,1.0,1.0,phase_3,,,,,576.0,3.0,768.0,576.0,384.0,960.0,1152.0,192.0,green,flipped triangle
0.0,7.0,3.0,1.0,7.0,4.0,2197.377149000204,1.0,1.0,phase_3,,,,,405.0,3.0,540.0,135.0,270.0,405.0,675.0,810.0,yellow,circle
0.0,5.0,1.0,1.0,7.0,4.0,2352.2890149997693,1.0,1.0,phase_3,,,,,405.0,3.0,810.0,135.0,675.0,405.0,540.0,270.0,white,square
0.0,8.0,4.0,1.0,7.0,5.0,2701.656899000227,1.0,1.0,phase_3,,,,,308.0,2.0,462.0,154.0,770.0,924.0,308.0,616.0,orange,cross
0.0,7.0,3.0,1.0,7.0,6.0,1376.66887100022,1.0,1.0,phase_3,,,,,768.0,4.0,1152.0,960.0,576.0,384.0,192.0,768.0,yellow,circle
0.0,3.0,3.0,0.0,7.0,1.0,1329.2823439996937,1.0,1.0,phase_3,,,,,270.0,2.0,270.0,540.0,810.0,405.0,135.0,675.0,magenta,triangle
0.0,4.0,4.0,0.0,7.0,4.0,1405.7914169998185,1.0,1.0,phase_3,,,,,675.0,5.0,405.0,270.0,540.0,675.0,135.0,810.0,gray,I
0.0,8.0,4.0,1.0,7.0,2.0,1222.187051000219,1.0,1.0,phase_3,,,,,348.0,3.0,696.0,348.0,116.0,464.0,232.0,580.0,orange,cross
0.0,7.0,3.0,1.0,7.0,5.0,1099.1255070002808,1.0,1.0,phase_3,,,,,308.0,2.0,154.0,462.0,616.0,924.0,308.0,770.0,yellow,circle
0.0,7.0,3.0,1.0,7.0,3.0,1063.405115999558,1.0,1.0,phase_3,,,,,192.0,1.0,384.0,960.0,192.0,576.0,768.0,1152.0,yellow,circle
0.0,4.0,4.0,0.0,7.0,4.0,887.8186849997292,1.0,1.0,phase_3,,,,,348.0,3.0,580.0,232.0,696.0,348.0,116.0,464.0,gray,I
0.0,5.0,1.0,1.0,7.0,5.0,1826.5637840004276,1.0,1.0,phase_3,,,,,154.0,1.0,616.0,462.0,770.0,308.0,154.0,924.0,white,square
0.0,3.0,3.0,0.0,7.0,4.0,1591.019612999844,1.0,1.0,phase_3,,,,,308.0,2.0,462.0,770.0,616.0,308.0,924.0,154.0,magenta,triangle
0.0,5.0,1.0,1.0,7.0,3.0,2075.489029000892,1.0,1.0,phase_3,,,,,384.0,2.0,1152.0,960.0,384.0,576.0,192.0,768.0,white,square
0.0,1.0,1.0,0.0,7.0,5.0,1349.434910999662,1.0,1.0,phase_3,,,,,346.0,2.0,173.0,519.0,1038.0,692.0,346.0,865.0,green,flipped triangle
0.0,5.0,1.0,1.0,7.0,3.0,923.399626999526,1.0,1.0,phase_3,,,,,348.0,3.0,116.0,696.0,348.0,232.0,464.0,580.0,white,square
0.0,6.0,2.0,1.0,7.0,4.0,1117.4704640006894,2.0,1.0,phase_3,,,,,173.0,1.0,692.0,519.0,865.0,173.0,346.0,1038.0,cyan,diamond
0.0,1.0,1.0,0.0,7.0,4.0,1299.5514849999379,2.0,1.0,phase_3,,,,,768.0,4.0,960.0,576.0,192.0,768.0,384.0,1152.0,green,flipped triangle
0.0,7.0,3.0,1.0,7.0,4.0,1959.910336000576,2.0,1.0,phase_3,,,,,346.0,2.0,519.0,173.0,1038.0,346.0,865.0,692.0,yellow,circle
0.0,4.0,4.0,0.0,7.0,1.0,2070.5346489994554,2.0,1.0,phase_3,,,,,346.0,2.0,346.0,865.0,1038.0,692.0,519.0,173.0,gray,I
0.0,4.0,4.0,0.0,7.0,5.0,1189.729081999758,2.0,1.0,phase_3,,,,,675.0,5.0,135.0,540.0,270.0,810.0,675.0,405.0,gray,I
0.0,6.0,2.0,1.0,7.0,5.0,1021.1637100001101,2.0,1.0,phase_3,,,,,616.0,4.0,770.0,154.0,924.0,462.0,616.0,308.0,cyan,diamond
0.0,5.0,1.0,1.0,7.0,3.0,1835.437114999877,2.0,1.0,phase_3,,,,,519.0,3.0,692.0,346.0,519.0,1038.0,173.0,865.0,white,square
0.0,2.0,2.0,0.0,7.0,5.0,1675.8796499998423,2.0,1.0,phase_3,,,,,865.0,5.0,1038.0,173.0,692.0,346.0,865.0,519.0,blue,hexagon
0.0,1.0,1.0,0.0,7.0,4.0,1844.0439810001408,2.0,1.0,phase_3,,,,,675.0,5.0,810.0,135.0,405.0,675.0,540.0,270.0,green,flipped triangle
0.0,3.0,3.0,0.0,7.0,3.0,1649.5973930004766,2.0,1.0,phase_3,,,,,384.0,2.0,576.0,768.0,384.0,1152.0,960.0,192.0,magenta,triangle
0.0,6.0,2.0,1.0,7.0,5.0,1848.3261299998048,2.0,1.0,phase_3,,,,,464.0,4.0,696.0,232.0,348.0,116.0,464.0,580.0,cyan,diamond
0.0,8.0,4.0,1.0,7.0,5.0,1107.153288000518,2.0,1.0,phase_3,,,,,576.0,3.0,1152.0,768.0,960.0,384.0,576.0,192.0,orange,cross
0.0,4.0,4.0,0.0,7.0,4.0,1419.6281180002188,2.0,1.0,phase_3,,,,,576.0,3.0,768.0,1152.0,960.0,576.0,384.0,192.0,gray,I
0.0,6.0,2.0,1.0,7.0,5.0,1107.7922500007844,2.0,1.0,phase_3,,,,,810.0,6.0,270.0,135.0,675.0,405.0,810.0,540.0,cyan,diamond
0.0,1.0,1.0,0.0,7.0,4.0,784.0281720000348,2.0,1.0,phase_3,,,,,580.0,5.0,232.0,348.0,696.0,580.0,116.0,464.0,green,flipped triangle
0.0,1.0,1.0,0.0,7.0,5.0,838.1818670004577,2.0,1.0,phase_3,,,,,116.0,1.0,696.0,580.0,464.0,348.0,116.0,232.0,green,flipped triangle
0.0,8.0,4.0,1.0,7.0,4.0,738.3868710003298,2.0,1.0,phase_3,,,,,810.0,6.0,675.0,540.0,405.0,810.0,135.0,270.0,orange,cross
0.0,2.0,2.0,0.0,7.0,5.0,664.3615090006278,2.0,1.0,phase_3,,,,,464.0,4.0,580.0,348.0,232.0,696.0,464.0,116.0,blue,hexagon
0.0,2.0,2.0,0.0,7.0,4.0,466.3723699995898,2.0,1.0,phase_3,,,,,770.0,5.0,154.0,924.0,308.0,770.0,616.0,462.0,blue,hexagon
0.0,6.0,2.0,1.0,7.0,3.0,1152.097502000288,2.0,1.0,phase_3,,,,,348.0,3.0,116.0,464.0,348.0,580.0,696.0,232.0,cyan,diamond
0.0,4.0,4.0,0.0,7.0,4.0,934.8944439998376,3.0,1.0,phase_3,,,,,770.0,5.0,924.0,308.0,462.0,770.0,616.0,154.0,gray,I
0.0,4.0,4.0,0.0,7.0,3.0,943.8172539994412,3.0,1.0,phase_3,,,,,173.0,1.0,692.0,865.0,173.0,1038.0,346.0,519.0,gray,I
0.0,4.0,4.0,0.0,7.0,5.0,388.2720640003754,3.0,1.0,phase_3,,,,,576.0,3.0,1152.0,768.0,960.0,384.0,576.0,192.0,gray,I
0.0,3.0,3.0,0.0,7.0,4.0,360.596878999786,3.0,1.0,phase_3,,,,,540.0,4.0,810.0,135.0,270.0,540.0,675.0,405.0,magenta,triangle
0.0,8.0,4.0,1.0,7.0,5.0,1410.43465400071,3.0,1.0,phase_3,,,,,464.0,4.0,580.0,696.0,232.0,348.0,464.0,116.0,orange,cross
0.0,7.0,3.0,1.0,7.0,2.0,2076.397686999371,3.0,1.0,phase_3,,,,,405.0,3.0,810.0,405.0,135.0,675.0,270.0,540.0,yellow,circle
0.0,7.0,3.0,1.0,7.0,4.0,1024.4675330004611,3.0,1.0,phase_3,,,,,580.0,5.0,348.0,232.0,464.0,580.0,116.0,696.0,yellow,circle
0.0,2.0,2.0,0.0,7.0,4.0,1572.5573259996963,3.0,1.0,phase_3,,,,,462.0,3.0,770.0,154.0,308.0,462.0,616.0,924.0,blue,hexagon
0.0,2.0,2.0,0.0,7.0,2.0,553.6412330002349,3.0,1.0,phase_3,,,,,1152.0,6.0,768.0,1152.0,192.0,576.0,960.0,384.0,blue,hexagon
0.0,3.0,3.0,0.0,7.0,5.0,1244.737394999902,3.0,1.0,phase_3,,,,,580.0,5.0,348.0,232.0,696.0,116.0,580.0,464.0,magenta,triangle
0.0,2.0,2.0,0.0,7.0,2.0,1633.4488029997374,3.0,1.0,phase_3,,,,,540.0,4.0,810.0,540.0,675.0,135.0,270.0,405.0,blue,hexagon
0.0,2.0,2.0,0.0,7.0,5.0,851.8343470004766,3.0,1.0,phase_3,,,,,405.0,3.0,135.0,810.0,540.0,270.0,405.0,675.0,blue,hexagon
0.0,3.0,3.0,0.0,7.0,1.0,848.9830280004753,3.0,1.0,phase_3,,,,,580.0,5.0,580.0,348.0,464.0,116.0,696.0,232.0,magenta,triangle
0.0,6.0,2.0,1.0,7.0,5.0,756.5215559998251,3.0,1.0,phase_3,,,,,384.0,2.0,768.0,576.0,192.0,1152.0,384.0,960.0,cyan,diamond
0.0,5.0,1.0,1.0,7.0,3.0,1225.3299730000435,3.0,1.0,phase_3,,,,,519.0,3.0,865.0,692.0,519.0,1038.0,346.0,173.0,white,square
0.0,3.0,3.0,0.0,7.0,5.0,747.4217339995448,3.0,1.0,phase_3,,,,,768.0,4.0,192.0,384.0,1152.0,960.0,768.0,576.0,magenta,triangle
0.0,7.0,3.0,1.0,7.0,5.0,876.4516220007863,3.0,1.0,phase_3,,,,,1038.0,6.0,346.0,692.0,173.0,865.0,1038.0,519.0,yellow,circle
0.0,3.0,3.0,0.0,7.0,2.0,895.3916939999544,3.0,1.0,phase_3,,,,,692.0,4.0,346.0,692.0,1038.0,519.0,173.0,865.0,magenta,triangle
0.0,8.0,4.0,1.0,7.0,5.0,535.2372779998404,3.0,1.0,phase_3,,,,,810.0,6.0,405.0,540.0,270.0,675.0,810.0,135.0,orange,cross
0.0,5.0,1.0,1.0,7.0,4.0,1237.2094860002107,3.0,1.0,phase_3,,,,,270.0,2.0,405.0,675.0,135.0,270.0,540.0,810.0,white,square
0.0,2.0,2.0,0.0,7.0,4.0,646.4044759995886,4.0,1.0,phase_3,,,,,519.0,3.0,865.0,1038.0,346.0,519.0,173.0,692.0,blue,hexagon
0.0,1.0,1.0,0.0,7.0,3.0,637.4166999994486,4.0,1.0,phase_3,,,,,308.0,2.0,770.0,616.0,308.0,924.0,154.0,462.0,green,flipped triangle
0.0,2.0,2.0,0.0,7.0,5.0,525.1959319994057,4.0,1.0,phase_3,,,,,232.0,2.0,464.0,696.0,116.0,348.0,232.0,580.0,blue,hexagon
0.0,4.0,4.0,0.0,7.0,5.0,2401.8942279999465,4.0,1.0,phase_3,,,,,464.0,4.0,348.0,232.0,696.0,116.0,464.0,580.0,gray,I
0.0,6.0,2.0,1.0,7.0,1.0,1365.8761939996111,4.0,1.0,phase_3,,,,,540.0,4.0,540.0,135.0,270.0,405.0,675.0,810.0,cyan,diamond
0.0,5.0,1.0,1.0,7.0,2.0,2155.859061999763,4.0,1.0,phase_3,,,,,462.0,3.0,308.0,462.0,770.0,924.0,154.0,616.0,white,square
0.0,6.0,2.0,1.0,7.0,5.0,1426.4297050003734,4.0,1.0,phase_3,,,,,768.0,4.0,576.0,960.0,192.0,384.0,768.0,1152.0,cyan,diamond
0.0,4.0,4.0,0.0,7.0,4.0,1085.804566000661,4.0,1.0,phase_3,,,,,462.0,3.0,924.0,616.0,308.0,462.0,154.0,770.0,gray,I
0.0,5.0,1.0,1.0,7.0,3.0,1236.9103529999848,4.0,1.0,phase_3,,,,,464.0,4.0,580.0,116.0,464.0,348.0,696.0,232.0,white,square
0.0,1.0,1.0,0.0,7.0,5.0,784.2105019999508,4.0,1.0,phase_3,,,,,308.0,2.0,462.0,770.0,924.0,154.0,308.0,616.0,green,flipped triangle
0.0,6.0,2.0,1.0,7.0,1.0,849.3987700003345,4.0,1.0,phase_3,,,,,308.0,2.0,308.0,616.0,770.0,154.0,924.0,462.0,cyan,diamond
0.0,1.0,1.0,0.0,7.0,4.0,434.1625999995813,4.0,1.0,phase_3,,,,,405.0,3.0,675.0,135.0,810.0,405.0,540.0,270.0,green,flipped triangle
0.0,5.0,1.0,1.0,7.0,5.0,444.5441719999508,4.0,1.0,phase_3,,,,,192.0,1.0,576.0,1152.0,768.0,384.0,192.0,960.0,white,square
0.0,8.0,4.0,1.0,7.0,1.0,784.7674770000594,4.0,1.0,phase_3,,,,,616.0,4.0,616.0,308.0,770.0,462.0,924.0,154.0,orange,cross
0.0,6.0,2.0,1.0,7.0,2.0,645.8988799995495,4.0,1.0,phase_3,,,,,173.0,1.0,1038.0,173.0,692.0,519.0,346.0,865.0,cyan,diamond
0.0,1.0,1.0,0.0,7.0,4.0,517.7709099998538,4.0,1.0,phase_3,,,,,346.0,2.0,519.0,692.0,173.0,346.0,1038.0,865.0,green,flipped triangle
0.0,7.0,3.0,1.0,7.0,3.0,526.2217419995068,4.0,1.0,phase_3,,,,,232.0,2.0,580.0,116.0,232.0,348.0,696.0,464.0,yellow,circle
0.0,3.0,3.0,0.0,7.0,5.0,971.1599040001602,4.0,1.0,phase_3,,,,,462.0,3.0,924.0,308.0,616.0,154.0,462.0,770.0,magenta,triangle
0.0,3.0,3.0,0.0,7.0,5.0,746.688589999394,4.0,1.0,phase_3,,,,,865.0,5.0,692.0,346.0,519.0,1038.0,865.0,173.0,magenta,triangle
0.0,8.0,4.0,1.0,7.0,2.0,1973.05971699916,4.0,1.0,phase_3,,,,,192.0,1.0,384.0,192.0,1152.0,768.0,576.0,960.0,orange,cross
