raw_reward_magnitude,stim_reward,stepwise_reward_magnitude,paired_with_stopping,stim_location,response,reaction_time,block,num_trial_presentations,which_phase,stop_signal_trial_type,left_SSD,right_SSD,accuracy,chosen_bidding_amount,chosen_bidding_level,possible_bid_1,possible_bid_2,possible_bid_3,possible_bid_4,possible_bid_5,possible_bid_6,color_text,shape_text
341.0,6.0,1.0,1.0,4.0,4.0,543.7908980001112,1.0,1.0,phase_1,,,,,,,,,,,,,green,cross
337.0,6.0,1.0,1.0,2.0,2.0,951.5570749999824,1.0,1.0,phase_1,,,,,,,,,,,,,green,cross
316.0,6.0,1.0,1.0,3.0,3.0,593.6423339999237,1.0,1.0,phase_1,,,,,,,,,,,,,green,cross
334.0,2.0,1.0,0.0,1.0,1.0,823.1644590000542,1.0,1.0,phase_1,,,,,,,,,,,,,cyan,flipped triangle
0.0,8.0,0.0,1.0,1.0,1.0,517.4287260000483,1.0,1.0,phase_1,,,,,,,,,,,,,yellow,square
0.0,4.0,0.0,0.0,4.0,4.0,498.126172999946,1.0,1.0,phase_1,,,,,,,,,,,,,white,circle
333.0,2.0,1.0,0.0,2.0,2.0,573.5310549999895,1.0,1.0,phase_1,,,,,,,,,,,,,cyan,flipped triangle
153.0,5.0,0.5,1.0,4.0,4.0,398.7817710000172,1.0,1.0,phase_1,,,,,,,,,,,,,orange,triangle
147.0,1.0,0.5,0.0,2.0,2.0,904.1574599999648,1.0,1.0,phase_1,,,,,,,,,,,,,blue,hexagon
0.0,2.0,0.0,0.0,1.0,1.0,425.0457910000023,1.0,1.0,phase_1,,,,,,,,,,,,,cyan,flipped triangle
146.0,1.0,0.5,0.0,3.0,3.0,463.4108750000223,1.0,1.0,phase_1,,,,,,,,,,,,,blue,hexagon
150.0,1.0,0.5,0.0,2.0,2.0,435.1830049999989,1.0,1.0,phase_1,,,,,,,,,,,,,blue,hexagon
155.0,1.0,0.5,0.0,2.0,2.0,488.8570960000606,1.0,1.0,phase_1,,,,,,,,,,,,,blue,hexagon
1281.0,8.0,4.0,1.0,4.0,4.0,434.1447900000048,1.0,1.0,phase_1,,,,,,,,,,,,,yellow,square
322.0,6.0,1.0,1.0,4.0,4.0,445.2082799999743,1.0,1.0,phase_1,,,,,,,,,,,,,green,cross
1302.0,8.0,4.0,1.0,3.0,3.0,442.7839720000293,1.0,1.0,phase_1,,,,,,,,,,,,,yellow,square
1283.0,4.0,4.0,0.0,3.0,3.0,342.6214109999819,1.0,1.0,phase_1,,,,,,,,,,,,,white,circle
0.0,2.0,0.0,0.0,3.0,3.0,453.0060450000519,1.0,1.0,phase_1,,,,,,,,,,,,,cyan,flipped triangle
658.0,7.0,2.0,1.0,1.0,1.0,444.5908789999748,1.0,1.0,phase_1,,,,,,,,,,,,,gray,diamond
0.0,3.0,0.0,0.0,2.0,2.0,489.4810189999816,1.0,1.0,phase_1,,,,,,,,,,,,,magenta,I
177.0,5.0,0.5,1.0,2.0,2.0,415.9297860001061,1.0,1.0,phase_1,,,,,,,,,,,,,orange,triangle
176.0,5.0,0.5,1.0,1.0,1.0,443.2456040000261,1.0,1.0,phase_1,,,,,,,,,,,,,orange,triangle
164.0,1.0,0.5,0.0,1.0,1.0,406.6657810000151,1.0,1.0,phase_1,,,,,,,,,,,,,blue,hexagon
648.0,7.0,2.0,1.0,3.0,3.0,471.2248079999881,1.0,1.0,phase_1,,,,,,,,,,,,,gray,diamond
0.0,4.0,0.0,0.0,3.0,3.0,489.9881869999944,1.0,1.0,phase_1,,,,,,,,,,,,,white,circle
1303.0,4.0,4.0,0.0,3.0,3.0,452.358950999951,1.0,1.0,phase_1,,,,,,,,,,,,,white,circle
0.0,6.0,0.0,1.0,1.0,1.0,334.1168989999232,1.0,1.0,phase_1,,,,,,,,,,,,,green,cross
137.0,5.0,0.5,1.0,1.0,1.0,390.9744860000046,1.0,1.0,phase_1,,,,,,,,,,,,,orange,triangle
137.0,1.0,0.5,0.0,2.0,2.0,484.1246269999146,1.0,1.0,phase_1,,,,,,,,,,,,,blue,hexagon
0.0,1.0,0.0,0.0,1.0,1.0,425.7162580000795,1.0,1.0,phase_1,,,,,,,,,,,,,blue,hexagon
162.0,5.0,0.5,1.0,2.0,2.0,453.2563100000288,1.0,1.0,phase_1,,,,,,,,,,,,,orange,triangle
1276.0,8.0,4.0,1.0,4.0,4.0,499.2366190000439,1.0,1.0,phase_1,,,,,,,,,,,,,yellow,square
147.0,5.0,0.5,1.0,3.0,3.0,407.456207999985,1.0,1.0,phase_1,,,,,,,,,,,,,orange,triangle
317.0,6.0,1.0,1.0,1.0,1.0,315.106390999972,1.0,1.0,phase_1,,,,,,,,,,,,,green,cross
667.0,7.0,2.0,1.0,1.0,1.0,407.1225080000431,1.0,1.0,phase_1,,,,,,,,,,,,,gray,diamond
675.0,3.0,2.0,0.0,1.0,1.0,333.3307289999538,1.0,1.0,phase_1,,,,,,,,,,,,,magenta,I
179.0,1.0,0.5,0.0,4.0,4.0,433.8510409999117,1.0,2.0,phase_1,,,,,,,,,,,,,blue,hexagon
669.0,3.0,2.0,0.0,1.0,1.0,499.1597829999818,1.0,1.0,phase_1,,,,,,,,,,,,,magenta,I
346.0,6.0,1.0,1.0,3.0,3.0,435.8779240000103,1.0,1.0,phase_1,,,,,,,,,,,,,green,cross
0.0,4.0,0.0,0.0,1.0,1.0,600.7519080000066,1.0,1.0,phase_1,,,,,,,,,,,,,white,circle
1275.0,8.0,4.0,1.0,4.0,4.0,452.533915999993,1.0,1.0,phase_1,,,,,,,,,,,,,yellow,square
628.0,3.0,2.0,0.0,4.0,4.0,472.265311000001,1.0,1.0,phase_1,,,,,,,,,,,,,magenta,I
147.0,1.0,0.5,0.0,4.0,4.0,425.7863190000535,1.0,1.0,phase_1,,,,,,,,,,,,,blue,hexagon
341.0,6.0,1.0,1.0,3.0,3.0,480.1096280000365,1.0,1.0,phase_1,,,,,,,,,,,,,green,cross
0.0,3.0,0.0,0.0,2.0,2.0,498.9801729999499,1.0,1.0,phase_1,,,,,,,,,,,,,magenta,I
308.0,6.0,1.0,1.0,2.0,2.0,398.3884689999968,1.0,1.0,phase_1,,,,,,,,,,,,,green,cross
0.0,1.0,0.0,0.0,2.0,2.0,388.4995749999689,1.0,1.0,phase_1,,,,,,,,,,,,,blue,hexagon
661.0,7.0,2.0,1.0,2.0,2.0,462.4473750000106,1.0,1.0,phase_1,,,,,,,,,,,,,gray,diamond
1300.0,4.0,4.0,0.0,2.0,2.0,491.1314199999879,1.0,1.0,phase_1,,,,,,,,,,,,,white,circle
653.0,3.0,2.0,0.0,3.0,3.0,434.4117140000207,1.0,1.0,phase_1,,,,,,,,,,,,,magenta,I
1283.0,8.0,4.0,1.0,2.0,2.0,415.6840070000953,1.0,1.0,phase_1,,,,,,,,,,,,,yellow,square
1316.0,8.0,4.0,1.0,1.0,1.0,342.0995349999884,1.0,1.0,phase_1,,,,,,,,,,,,,yellow,square
185.0,5.0,0.5,1.0,3.0,3.0,490.1814060000333,1.0,1.0,phase_1,,,,,,,,,,,,,orange,triangle
157.0,5.0,0.5,1.0,3.0,3.0,426.0577029999695,1.0,1.0,phase_1,,,,,,,,,,,,,orange,triangle
1324.0,4.0,4.0,0.0,1.0,1.0,315.7739160000119,1.0,1.0,phase_1,,,,,,,,,,,,,white,circle
325.0,6.0,1.0,1.0,1.0,1.0,397.1365270000433,1.0,1.0,phase_1,,,,,,,,,,,,,green,cross
171.0,5.0,0.5,1.0,4.0,4.0,415.0199460000294,1.0,1.0,phase_1,,,,,,,,,,,,,orange,triangle
304.0,6.0,1.0,1.0,2.0,2.0,419.385573999989,1.0,1.0,phase_1,,,,,,,,,,,,,green,cross
323.0,6.0,1.0,1.0,3.0,3.0,470.2845120000347,1.0,1.0,phase_1,,,,,,,,,,,,,green,cross
145.0,1.0,0.5,0.0,2.0,2.0,434.4460750000962,1.0,1.0,phase_1,,,,,,,,,,,,,blue,hexagon
0.0,6.0,0.0,1.0,4.0,4.0,372.7596530000028,1.0,1.0,phase_1,,,,,,,,,,,,,green,cross
648.0,3.0,2.0,0.0,4.0,4.0,387.1528540000781,1.0,1.0,phase_1,,,,,,,,,,,,,magenta,I
331.0,2.0,1.0,0.0,3.0,3.0,433.9194539999198,1.0,1.0,phase_1,,,,,,,,,,,,,cyan,flipped triangle
185.0,1.0,0.5,0.0,3.0,3.0,491.3474789999554,1.0,1.0,phase_1,,,,,,,,,,,,,blue,hexagon
141.0,5.0,0.5,1.0,3.0,3.0,462.3175240000137,1.0,1.0,phase_1,,,,,,,,,,,,,orange,triangle
349.0,2.0,1.0,0.0,1.0,1.0,286.97416600005,1.0,2.0,phase_1,,,,,,,,,,,,,cyan,flipped triangle
0.0,1.0,0.0,0.0,3.0,3.0,508.074468000018,1.0,1.0,phase_1,,,,,,,,,,,,,blue,hexagon
308.0,2.0,1.0,0.0,3.0,3.0,471.7980579999903,1.0,1.0,phase_1,,,,,,,,,,,,,cyan,flipped triangle
341.0,2.0,1.0,0.0,1.0,1.0,419.7139340000149,1.0,1.0,phase_1,,,,,,,,,,,,,cyan,flipped triangle
341.0,2.0,1.0,0.0,2.0,2.0,805.2543149999565,1.0,1.0,phase_1,,,,,,,,,,,,,cyan,flipped triangle
668.0,7.0,2.0,1.0,3.0,3.0,360.4085010000517,1.0,1.0,phase_1,,,,,,,,,,,,,gray,diamond
334.0,6.0,1.0,1.0,2.0,2.0,471.3193210000099,1.0,1.0,phase_1,,,,,,,,,,,,,green,cross
652.0,7.0,2.0,1.0,1.0,1.0,410.3365270000267,1.0,1.0,phase_1,,,,,,,,,,,,,gray,diamond
657.0,7.0,2.0,1.0,4.0,4.0,601.1130880000337,1.0,1.0,phase_1,,,,,,,,,,,,,gray,diamond
308.0,2.0,1.0,0.0,4.0,4.0,573.7324020000187,1.0,1.0,phase_1,,,,,,,,,,,,,cyan,flipped triangle
0.0,6.0,0.0,1.0,4.0,4.0,433.7766119999742,1.0,1.0,phase_1,,,,,,,,,,,,,green,cross
0.0,4.0,0.0,0.0,4.0,4.0,444.4515629999159,1.0,1.0,phase_1,,,,,,,,,,,,,white,circle
1312.0,4.0,4.0,0.0,1.0,1.0,268.4265990000085,1.0,2.0,phase_1,,,,,,,,,,,,,white,circle
172.0,1.0,0.5,0.0,4.0,4.0,546.3633100000607,1.0,1.0,phase_1,,,,,,,,,,,,,blue,hexagon
334.0,6.0,1.0,1.0,4.0,4.0,472.7649439998913,1.0,1.0,phase_1,,,,,,,,,,,,,green,cross
1297.0,4.0,4.0,0.0,2.0,2.0,685.077041999989,1.0,1.0,phase_1,,,,,,,,,,,,,white,circle
1309.0,4.0,4.0,0.0,4.0,4.0,501.7953159999706,1.0,1.0,phase_1,,,,,,,,,,,,,white,circle
0.0,2.0,0.0,0.0,3.0,3.0,520.5986739999844,1.0,1.0,phase_1,,,,,,,,,,,,,cyan,flipped triangle
1299.0,8.0,4.0,1.0,1.0,1.0,739.1851730000099,1.0,1.0,phase_1,,,,,,,,,,,,,yellow,square
187.0,5.0,0.5,1.0,1.0,1.0,518.6045909999848,1.0,1.0,phase_1,,,,,,,,,,,,,orange,triangle
663.0,7.0,2.0,1.0,1.0,1.0,480.6836179999436,1.0,1.0,phase_1,,,,,,,,,,,,,gray,diamond
661.0,7.0,2.0,1.0,2.0,2.0,499.4744340000352,1.0,1.0,phase_1,,,,,,,,,,,,,gray,diamond
643.0,3.0,2.0,0.0,3.0,3.0,446.0978079999904,1.0,1.0,phase_1,,,,,,,,,,,,,magenta,I
0.0,8.0,0.0,1.0,3.0,3.0,527.3832799999809,1.0,1.0,phase_1,,,,,,,,,,,,,yellow,square
0.0,6.0,0.0,1.0,3.0,3.0,342.1853879999617,1.0,1.0,phase_1,,,,,,,,,,,,,green,cross
663.0,3.0,2.0,0.0,3.0,3.0,527.7179739999838,1.0,1.0,phase_1,,,,,,,,,,,,,magenta,I
674.0,3.0,2.0,0.0,2.0,2.0,388.8145150000355,1.0,1.0,phase_1,,,,,,,,,,,,,magenta,I
143.0,5.0,0.5,1.0,4.0,4.0,472.1746539999003,1.0,1.0,phase_1,,,,,,,,,,,,,orange,triangle
174.0,5.0,0.5,1.0,1.0,1.0,486.275237999962,1.0,1.0,phase_1,,,,,,,,,,,,,orange,triangle
657.0,3.0,2.0,0.0,4.0,4.0,491.1283459999822,1.0,1.0,phase_1,,,,,,,,,,,,,magenta,I
652.0,3.0,2.0,0.0,3.0,3.0,433.044676999998,1.0,1.0,phase_1,,,,,,,,,,,,,magenta,I
0.0,3.0,0.0,0.0,2.0,2.0,470.9092589999955,1.0,1.0,phase_1,,,,,,,,,,,,,magenta,I
0.0,7.0,0.0,1.0,2.0,2.0,397.7088670000057,1.0,1.0,phase_1,,,,,,,,,,,,,gray,diamond
667.0,3.0,2.0,0.0,2.0,2.0,452.8638289999662,1.0,1.0,phase_1,,,,,,,,,,,,,magenta,I
174.0,1.0,0.5,0.0,3.0,3.0,406.9921880000038,1.0,1.0,phase_1,,,,,,,,,,,,,blue,hexagon
0.0,4.0,0.0,0.0,3.0,3.0,444.3235699999377,2.0,1.0,phase_1,,,,,,,,,,,,,white,circle
0.0,5.0,0.0,1.0,1.0,1.0,703.1088300000192,2.0,1.0,phase_1,,,,,,,,,,,,,orange,triangle
626.0,7.0,2.0,1.0,3.0,3.0,399.1780589999507,2.0,1.0,phase_1,,,,,,,,,,,,,gray,diamond
138.0,1.0,0.5,0.0,1.0,1.0,520.2802559999782,2.0,1.0,phase_1,,,,,,,,,,,,,blue,hexagon
1303.0,4.0,4.0,0.0,1.0,1.0,417.2106119999625,2.0,1.0,phase_1,,,,,,,,,,,,,white,circle
304.0,2.0,1.0,0.0,2.0,2.0,620.2680889999783,2.0,1.0,phase_1,,,,,,,,,,,,,cyan,flipped triangle
673.0,7.0,2.0,1.0,3.0,3.0,490.1103769999508,2.0,1.0,phase_1,,,,,,,,,,,,,gray,diamond
333.0,2.0,1.0,0.0,2.0,2.0,480.0552030000062,2.0,1.0,phase_1,,,,,,,,,,,,,cyan,flipped triangle
0.0,4.0,0.0,0.0,1.0,1.0,528.5635479999655,2.0,1.0,phase_1,,,,,,,,,,,,,white,circle
648.0,3.0,2.0,0.0,4.0,4.0,397.8026569999429,2.0,1.0,phase_1,,,,,,,,,,,,,magenta,I
0.0,4.0,0.0,0.0,2.0,2.0,361.0323649999145,2.0,1.0,phase_1,,,,,,,,,,,,,white,circle
346.0,6.0,1.0,1.0,1.0,1.0,295.2984689999312,2.0,1.0,phase_1,,,,,,,,,,,,,green,cross
648.0,7.0,2.0,1.0,2.0,2.0,323.5076029999391,2.0,1.0,phase_1,,,,,,,,,,,,,gray,diamond
1312.0,8.0,4.0,1.0,1.0,1.0,370.5969659999937,2.0,1.0,phase_1,,,,,,,,,,,,,yellow,square
139.0,5.0,0.5,1.0,4.0,4.0,435.8626029998049,2.0,1.0,phase_1,,,,,,,,,,,,,orange,triangle
176.0,5.0,0.5,1.0,4.0,4.0,478.8224960000207,2.0,1.0,phase_1,,,,,,,,,,,,,orange,triangle
626.0,3.0,2.0,0.0,1.0,1.0,435.7912660000238,2.0,1.0,phase_1,,,,,,,,,,,,,magenta,I
1321.0,8.0,4.0,1.0,2.0,2.0,352.4390350000885,2.0,1.0,phase_1,,,,,,,,,,,,,yellow,square
304.0,2.0,1.0,0.0,3.0,3.0,505.12643499996557,2.0,1.0,phase_1,,,,,,,,,,,,,cyan,flipped triangle
643.0,7.0,2.0,1.0,1.0,1.0,336.4113580000776,2.0,1.0,phase_1,,,,,,,,,,,,,gray,diamond
626.0,3.0,2.0,0.0,4.0,4.0,407.9421829999319,2.0,1.0,phase_1,,,,,,,,,,,,,magenta,I
655.0,3.0,2.0,0.0,1.0,1.0,461.5549780000947,2.0,1.0,phase_1,,,,,,,,,,,,,magenta,I
0.0,8.0,0.0,1.0,1.0,1.0,342.6156230000288,2.0,1.0,phase_1,,,,,,,,,,,,,yellow,square
0.0,2.0,0.0,0.0,4.0,4.0,406.9540929999675,2.0,1.0,phase_1,,,,,,,,,,,,,cyan,flipped triangle
0.0,7.0,0.0,1.0,2.0,2.0,360.6542009999884,2.0,1.0,phase_1,,,,,,,,,,,,,gray,diamond
0.0,5.0,0.0,1.0,4.0,4.0,399.1371020001679,2.0,1.0,phase_1,,,,,,,,,,,,,orange,triangle
0.0,2.0,0.0,0.0,2.0,2.0,384.3842189999122,2.0,1.0,phase_1,,,,,,,,,,,,,cyan,flipped triangle
626.0,3.0,2.0,0.0,1.0,1.0,362.3474150001584,2.0,1.0,phase_1,,,,,,,,,,,,,magenta,I
333.0,6.0,1.0,1.0,3.0,3.0,369.7368869998172,2.0,1.0,phase_1,,,,,,,,,,,,,green,cross
331.0,6.0,1.0,1.0,2.0,2.0,481.9179210001039,2.0,1.0,phase_1,,,,,,,,,,,,,green,cross
145.0,5.0,0.5,1.0,3.0,3.0,421.0526710000977,2.0,1.0,phase_1,,,,,,,,,,,,,orange,triangle
327.0,2.0,1.0,0.0,2.0,2.0,414.8189780000848,2.0,1.0,phase_1,,,,,,,,,,,,,cyan,flipped triangle
0.0,2.0,0.0,0.0,4.0,4.0,309.9694770000951,2.0,2.0,phase_1,,,,,,,,,,,,,cyan,flipped triangle
0.0,7.0,0.0,1.0,3.0,3.0,603.6855090001154,2.0,1.0,phase_1,,,,,,,,,,,,,gray,diamond
157.0,1.0,0.5,0.0,1.0,1.0,388.3757439998589,2.0,1.0,phase_1,,,,,,,,,,,,,blue,hexagon
168.0,1.0,0.5,0.0,3.0,3.0,499.4869240001662,2.0,1.0,phase_1,,,,,,,,,,,,,blue,hexagon
180.0,1.0,0.5,0.0,4.0,4.0,620.2451330000258,2.0,1.0,phase_1,,,,,,,,,,,,,blue,hexagon
325.0,2.0,1.0,0.0,4.0,4.0,481.9795769999473,2.0,1.0,phase_1,,,,,,,,,,,,,cyan,flipped triangle
141.0,1.0,0.5,0.0,3.0,3.0,416.1751789999925,2.0,1.0,phase_1,,,,,,,,,,,,,blue,hexagon
1281.0,4.0,4.0,0.0,4.0,4.0,388.2183059999988,2.0,1.0,phase_1,,,,,,,,,,,,,white,circle
330.0,2.0,1.0,0.0,4.0,4.0,445.9820390000004,2.0,1.0,phase_1,,,,,,,,,,,,,cyan,flipped triangle
0.0,3.0,0.0,0.0,4.0,4.0,387.9993089999516,2.0,1.0,phase_1,,,,,,,,,,,,,magenta,I
334.0,6.0,1.0,1.0,1.0,1.0,509.1593820000071,2.0,1.0,phase_1,,,,,,,,,,,,,green,cross
653.0,7.0,2.0,1.0,4.0,4.0,444.0755020000324,2.0,1.0,phase_1,,,,,,,,,,,,,gray,diamond
316.0,6.0,1.0,1.0,4.0,4.0,417.3625319999701,2.0,1.0,phase_1,,,,,,,,,,,,,green,cross
349.0,2.0,1.0,0.0,2.0,2.0,389.8017950000394,2.0,1.0,phase_1,,,,,,,,,,,,,cyan,flipped triangle
0.0,4.0,0.0,0.0,4.0,4.0,435.4465510000409,2.0,1.0,phase_1,,,,,,,,,,,,,white,circle
1313.0,4.0,4.0,0.0,1.0,1.0,379.7454900000048,2.0,1.0,phase_1,,,,,,,,,,,,,white,circle
147.0,5.0,0.5,1.0,2.0,2.0,453.4554540000499,2.0,1.0,phase_1,,,,,,,,,,,,,orange,triangle
1308.0,8.0,4.0,1.0,2.0,2.0,445.1226589999351,2.0,1.0,phase_1,,,,,,,,,,,,,yellow,square
0.0,3.0,0.0,0.0,3.0,3.0,481.0344150000674,2.0,1.0,phase_1,,,,,,,,,,,,,magenta,I
0.0,6.0,0.0,1.0,4.0,4.0,454.6560259998387,2.0,1.0,phase_1,,,,,,,,,,,,,green,cross
319.0,6.0,1.0,1.0,4.0,4.0,489.813273999971,2.0,1.0,phase_1,,,,,,,,,,,,,green,cross
0.0,8.0,0.0,1.0,1.0,1.0,407.1722610001416,2.0,1.0,phase_1,,,,,,,,,,,,,yellow,square
164.0,5.0,0.5,1.0,3.0,3.0,434.63521700005,2.0,1.0,phase_1,,,,,,,,,,,,,orange,triangle
0.0,1.0,0.0,0.0,4.0,4.0,453.0597610000768,2.0,1.0,phase_1,,,,,,,,,,,,,blue,hexagon
313.0,6.0,1.0,1.0,3.0,3.0,397.7316999998947,2.0,1.0,phase_1,,,,,,,,,,,,,green,cross
0.0,8.0,0.0,1.0,4.0,4.0,470.9526039998764,2.0,1.0,phase_1,,,,,,,,,,,,,yellow,square
333.0,6.0,1.0,1.0,1.0,1.0,627.0726929999455,2.0,1.0,phase_1,,,,,,,,,,,,,green,cross
652.0,3.0,2.0,0.0,1.0,1.0,508.02494300000944,2.0,1.0,phase_1,,,,,,,,,,,,,magenta,I
178.0,5.0,0.5,1.0,4.0,4.0,433.5985410000376,2.0,1.0,phase_1,,,,,,,,,,,,,orange,triangle
639.0,7.0,2.0,1.0,3.0,3.0,471.6417199999796,2.0,1.0,phase_1,,,,,,,,,,,,,gray,diamond
176.0,1.0,0.5,0.0,3.0,3.0,592.8768450000916,2.0,1.0,phase_1,,,,,,,,,,,,,blue,hexagon
316.0,2.0,1.0,0.0,1.0,1.0,563.8404200001332,2.0,1.0,phase_1,,,,,,,,,,,,,cyan,flipped triangle
176.0,1.0,0.5,0.0,4.0,4.0,481.0172310001235,2.0,1.0,phase_1,,,,,,,,,,,,,blue,hexagon
1311.0,8.0,4.0,1.0,3.0,3.0,508.3635260000392,2.0,1.0,phase_1,,,,,,,,,,,,,yellow,square
1309.0,8.0,4.0,1.0,1.0,1.0,488.8213189999533,2.0,1.0,phase_1,,,,,,,,,,,,,yellow,square
1297.0,8.0,4.0,1.0,3.0,3.0,415.7301279999501,2.0,1.0,phase_1,,,,,,,,,,,,,yellow,square
183.0,1.0,0.5,0.0,3.0,3.0,481.18389199999,2.0,1.0,phase_1,,,,,,,,,,,,,blue,hexagon
1292.0,4.0,4.0,0.0,1.0,1.0,444.0937520000716,2.0,1.0,phase_1,,,,,,,,,,,,,white,circle
1319.0,8.0,4.0,1.0,3.0,3.0,378.7764559999687,2.0,1.0,phase_1,,,,,,,,,,,,,yellow,square
0.0,3.0,0.0,0.0,2.0,2.0,434.4894000000749,2.0,1.0,phase_1,,,,,,,,,,,,,magenta,I
0.0,7.0,0.0,1.0,2.0,2.0,398.4210829999028,2.0,1.0,phase_1,,,,,,,,,,,,,gray,diamond
0.0,5.0,0.0,1.0,1.0,1.0,388.7103449999358,2.0,1.0,phase_1,,,,,,,,,,,,,orange,triangle
673.0,3.0,2.0,0.0,1.0,1.0,408.0176190000202,2.0,1.0,phase_1,,,,,,,,,,,,,magenta,I
143.0,5.0,0.5,1.0,2.0,2.0,481.8856909998885,2.0,1.0,phase_1,,,,,,,,,,,,,orange,triangle
1278.0,8.0,4.0,1.0,2.0,2.0,423.8215329999093,2.0,1.0,phase_1,,,,,,,,,,,,,yellow,square
649.0,7.0,2.0,1.0,4.0,4.0,435.8205240000643,2.0,1.0,phase_1,,,,,,,,,,,,,gray,diamond
655.0,7.0,2.0,1.0,2.0,2.0,425.6768569998712,2.0,1.0,phase_1,,,,,,,,,,,,,gray,diamond
1310.0,8.0,4.0,1.0,2.0,2.0,397.2005989999161,2.0,1.0,phase_1,,,,,,,,,,,,,yellow,square
179.0,5.0,0.5,1.0,3.0,3.0,579.3209660000684,2.0,1.0,phase_1,,,,,,,,,,,,,orange,triangle
0.0,4.0,0.0,0.0,2.0,2.0,370.1414290001139,2.0,1.0,phase_1,,,,,,,,,,,,,white,circle
337.0,6.0,1.0,1.0,1.0,1.0,396.8298219999724,2.0,1.0,phase_1,,,,,,,,,,,,,green,cross
307.0,6.0,1.0,1.0,1.0,1.0,396.6206469999633,2.0,1.0,phase_1,,,,,,,,,,,,,green,cross
330.0,6.0,1.0,1.0,2.0,2.0,406.9137029998728,2.0,1.0,phase_1,,,,,,,,,,,,,green,cross
632.0,3.0,2.0,0.0,1.0,1.0,517.1835159999318,2.0,1.0,phase_1,,,,,,,,,,,,,magenta,I
658.0,3.0,2.0,0.0,1.0,1.0,443.1696399999509,2.0,1.0,phase_1,,,,,,,,,,,,,magenta,I
146.0,5.0,0.5,1.0,2.0,2.0,443.5326339998937,2.0,1.0,phase_1,,,,,,,,,,,,,orange,triangle
675.0,7.0,2.0,1.0,1.0,1.0,388.4326059999239,2.0,1.0,phase_1,,,,,,,,,,,,,gray,diamond
153.0,1.0,0.5,0.0,4.0,4.0,507.0745179998539,2.0,1.0,phase_1,,,,,,,,,,,,,blue,hexagon
1319.0,4.0,4.0,0.0,2.0,2.0,397.127595000029,2.0,1.0,phase_1,,,,,,,,,,,,,white,circle
184.0,5.0,0.5,1.0,4.0,4.0,535.9249680000175,2.0,1.0,phase_1,,,,,,,,,,,,,orange,triangle
669.0,7.0,2.0,1.0,2.0,2.0,406.0208700000203,2.0,1.0,phase_1,,,,,,,,,,,,,gray,diamond
1299.0,4.0,4.0,0.0,3.0,3.0,433.7089829998604,2.0,1.0,phase_1,,,,,,,,,,,,,white,circle
647.0,3.0,2.0,0.0,3.0,3.0,479.202025999939,2.0,1.0,phase_1,,,,,,,,,,,,,magenta,I
154.0,1.0,0.5,0.0,2.0,2.0,386.4313690000927,2.0,1.0,phase_1,,,,,,,,,,,,,blue,hexagon
315.0,2.0,1.0,0.0,1.0,1.0,423.8321389998418,2.0,1.0,phase_1,,,,,,,,,,,,,cyan,flipped triangle
655.0,7.0,2.0,1.0,1.0,1.0,397.2938190001969,2.0,1.0,phase_1,,,,,,,,,,,,,gray,diamond
302.0,2.0,1.0,0.0,2.0,2.0,499.466165000058,2.0,1.0,phase_1,,,,,,,,,,,,,cyan,flipped triangle
138.0,5.0,0.5,1.0,1.0,1.0,441.2362479999956,2.0,1.0,phase_1,,,,,,,,,,,,,orange,triangle
651.0,7.0,2.0,1.0,2.0,2.0,407.7526469998247,3.0,1.0,phase_1,,,,,,,,,,,,,gray,diamond
0.0,1.0,0.0,0.0,4.0,4.0,407.0031109999945,3.0,1.0,phase_1,,,,,,,,,,,,,blue,hexagon
1303.0,8.0,4.0,1.0,2.0,2.0,332.9039610000563,3.0,1.0,phase_1,,,,,,,,,,,,,yellow,square
1303.0,8.0,4.0,1.0,3.0,3.0,389.1784459999599,3.0,1.0,phase_1,,,,,,,,,,,,,yellow,square
1304.0,4.0,4.0,0.0,2.0,2.0,369.4880769999145,3.0,1.0,phase_1,,,,,,,,,,,,,white,circle
0.0,1.0,0.0,0.0,4.0,4.0,350.6410850000065,3.0,1.0,phase_1,,,,,,,,,,,,,blue,hexagon
0.0,3.0,0.0,0.0,4.0,4.0,424.9627419999342,3.0,1.0,phase_1,,,,,,,,,,,,,magenta,I
0.0,6.0,0.0,1.0,1.0,1.0,342.596063999963,3.0,1.0,phase_1,,,,,,,,,,,,,green,cross
1324.0,8.0,4.0,1.0,2.0,2.0,387.2734130000026,3.0,1.0,phase_1,,,,,,,,,,,,,yellow,square
322.0,2.0,1.0,0.0,3.0,3.0,351.0844850000012,3.0,1.0,phase_1,,,,,,,,,,,,,cyan,flipped triangle
316.0,2.0,1.0,0.0,4.0,4.0,370.1172319999841,3.0,1.0,phase_1,,,,,,,,,,,,,cyan,flipped triangle
1294.0,8.0,4.0,1.0,2.0,2.0,350.7327549998535,3.0,1.0,phase_1,,,,,,,,,,,,,yellow,square
141.0,1.0,0.5,0.0,3.0,3.0,399.2147680000926,3.0,1.0,phase_1,,,,,,,,,,,,,blue,hexagon
660.0,3.0,2.0,0.0,2.0,2.0,433.8021819999085,3.0,1.0,phase_1,,,,,,,,,,,,,magenta,I
1311.0,4.0,4.0,0.0,3.0,3.0,425.2037490000475,3.0,1.0,phase_1,,,,,,,,,,,,,white,circle
631.0,7.0,2.0,1.0,3.0,3.0,491.744257999926,3.0,1.0,phase_1,,,,,,,,,,,,,gray,diamond
1312.0,8.0,4.0,1.0,1.0,1.0,416.3045559998863,3.0,1.0,phase_1,,,,,,,,,,,,,yellow,square
1286.0,8.0,4.0,1.0,4.0,4.0,526.1894870000106,3.0,1.0,phase_1,,,,,,,,,,,,,yellow,square
0.0,6.0,0.0,1.0,3.0,3.0,443.650123999987,3.0,1.0,phase_1,,,,,,,,,,,,,green,cross
339.0,2.0,1.0,0.0,4.0,4.0,445.0674960000924,3.0,1.0,phase_1,,,,,,,,,,,,,cyan,flipped triangle
0.0,6.0,0.0,1.0,2.0,2.0,480.9705679999752,3.0,1.0,phase_1,,,,,,,,,,,,,green,cross
0.0,3.0,0.0,0.0,3.0,3.0,360.5219529999885,3.0,1.0,phase_1,,,,,,,,,,,,,magenta,I
0.0,8.0,0.0,1.0,2.0,2.0,397.6892919999955,3.0,1.0,phase_1,,,,,,,,,,,,,yellow,square
1298.0,8.0,4.0,1.0,4.0,4.0,414.6595170000182,3.0,1.0,phase_1,,,,,,,,,,,,,yellow,square
1321.0,4.0,4.0,0.0,3.0,3.0,361.4973210001153,3.0,1.0,phase_1,,,,,,,,,,,,,white,circle
1292.0,8.0,4.0,1.0,4.0,4.0,489.4191470000351,3.0,1.0,phase_1,,,,,,,,,,,,,yellow,square
172.0,5.0,0.5,1.0,2.0,2.0,314.3217270001059,3.0,1.0,phase_1,,,,,,,,,,,,,orange,triangle
171.0,1.0,0.5,0.0,1.0,1.0,416.2248590000672,3.0,1.0,phase_1,,,,,,,,,,,,,blue,hexagon
327.0,6.0,1.0,1.0,2.0,2.0,361.0423700001774,3.0,1.0,phase_1,,,,,,,,,,,,,green,cross
311.0,2.0,1.0,0.0,4.0,4.0,378.2170960000712,3.0,1.0,phase_1,,,,,,,,,,,,,cyan,flipped triangle
0.0,5.0,0.0,1.0,3.0,3.0,370.242011000073,3.0,1.0,phase_1,,,,,,,,,,,,,orange,triangle
0.0,3.0,0.0,0.0,2.0,2.0,378.9996139998948,3.0,1.0,phase_1,,,,,,,,,,,,,magenta,I
1286.0,4.0,4.0,0.0,4.0,4.0,443.5988689999703,3.0,1.0,phase_1,,,,,,,,,,,,,white,circle
141.0,5.0,0.5,1.0,1.0,1.0,331.4767619999657,3.0,2.0,phase_1,,,,,,,,,,,,,orange,triangle
1319.0,8.0,4.0,1.0,1.0,1.0,629.7494039999947,3.0,1.0,phase_1,,,,,,,,,,,,,yellow,square
633.0,3.0,2.0,0.0,2.0,2.0,547.336734000055,3.0,1.0,phase_1,,,,,,,,,,,,,magenta,I
1276.0,4.0,4.0,0.0,4.0,4.0,489.375070000051,3.0,1.0,phase_1,,,,,,,,,,,,,white,circle
0.0,5.0,0.0,1.0,4.0,4.0,611.6962339999645,3.0,1.0,phase_1,,,,,,,,,,,,,orange,triangle
341.0,6.0,1.0,1.0,4.0,4.0,536.2376519999543,3.0,1.0,phase_1,,,,,,,,,,,,,green,cross
1288.0,8.0,4.0,1.0,3.0,3.0,659.495533000154,3.0,1.0,phase_1,,,,,,,,,,,,,yellow,square
308.0,6.0,1.0,1.0,1.0,1.0,462.7807689998917,3.0,1.0,phase_1,,,,,,,,,,,,,green,cross
171.0,5.0,0.5,1.0,4.0,4.0,452.7809189999061,3.0,1.0,phase_1,,,,,,,,,,,,,orange,triangle
650.0,3.0,2.0,0.0,2.0,2.0,424.2720329998519,3.0,1.0,phase_1,,,,,,,,,,,,,magenta,I
0.0,5.0,0.0,1.0,4.0,4.0,425.5846290000136,3.0,1.0,phase_1,,,,,,,,,,,,,orange,triangle
633.0,3.0,2.0,0.0,4.0,4.0,481.35801300009,3.0,1.0,phase_1,,,,,,,,,,,,,magenta,I
313.0,2.0,1.0,0.0,2.0,2.0,444.8905670001295,3.0,1.0,phase_1,,,,,,,,,,,,,cyan,flipped triangle
150.0,5.0,0.5,1.0,4.0,4.0,426.3269000000491,3.0,1.0,phase_1,,,,,,,,,,,,,orange,triangle
305.0,2.0,1.0,0.0,4.0,4.0,471.9066659999953,3.0,1.0,phase_1,,,,,,,,,,,,,cyan,flipped triangle
143.0,1.0,0.5,0.0,4.0,4.0,426.4841909998722,3.0,1.0,phase_1,,,,,,,,,,,,,blue,hexagon
1310.0,4.0,4.0,0.0,2.0,2.0,466.0243459998128,3.0,1.0,phase_1,,,,,,,,,,,,,white,circle
667.0,7.0,2.0,1.0,4.0,4.0,563.9088730001731,3.0,1.0,phase_1,,,,,,,,,,,,,gray,diamond
171.0,1.0,0.5,0.0,2.0,2.0,574.5842640001229,3.0,1.0,phase_1,,,,,,,,,,,,,blue,hexagon
629.0,7.0,2.0,1.0,2.0,2.0,453.5392870000123,3.0,1.0,phase_1,,,,,,,,,,,,,gray,diamond
337.0,2.0,1.0,0.0,1.0,1.0,444.1394059999766,3.0,1.0,phase_1,,,,,,,,,,,,,cyan,flipped triangle
337.0,2.0,1.0,0.0,2.0,2.0,405.6059090000872,3.0,1.0,phase_1,,,,,,,,,,,,,cyan,flipped triangle
0.0,1.0,0.0,0.0,2.0,2.0,425.5220290001489,3.0,1.0,phase_1,,,,,,,,,,,,,blue,hexagon
660.0,7.0,2.0,1.0,3.0,3.0,500.3250030001709,3.0,1.0,phase_1,,,,,,,,,,,,,gray,diamond
633.0,7.0,2.0,1.0,3.0,3.0,397.1988590001274,3.0,1.0,phase_1,,,,,,,,,,,,,gray,diamond
346.0,2.0,1.0,0.0,4.0,4.0,517.9680989999724,3.0,1.0,phase_1,,,,,,,,,,,,,cyan,flipped triangle
634.0,3.0,2.0,0.0,2.0,2.0,500.2743630000168,3.0,1.0,phase_1,,,,,,,,,,,,,magenta,I
651.0,3.0,2.0,0.0,3.0,3.0,424.9138159998438,3.0,1.0,phase_1,,,,,,,,,,,,,magenta,I
1316.0,4.0,4.0,0.0,4.0,4.0,443.5097139999016,3.0,1.0,phase_1,,,,,,,,,,,,,white,circle
1291.0,8.0,4.0,1.0,3.0,3.0,416.883000000098,3.0,1.0,phase_1,,,,,,,,,,,,,yellow,square
0.0,5.0,0.0,1.0,4.0,4.0,388.7256069999694,3.0,1.0,phase_1,,,,,,,,,,,,,orange,triangle
0.0,1.0,0.0,0.0,3.0,3.0,454.4392759999027,3.0,1.0,phase_1,,,,,,,,,,,,,blue,hexagon
302.0,6.0,1.0,1.0,2.0,2.0,411.2129119998826,3.0,1.0,phase_1,,,,,,,,,,,,,green,cross
628.0,7.0,2.0,1.0,1.0,1.0,370.5860140000823,3.0,1.0,phase_1,,,,,,,,,,,,,gray,diamond
164.0,1.0,0.5,0.0,2.0,2.0,426.5446059998794,3.0,1.0,phase_1,,,,,,,,,,,,,blue,hexagon
304.0,6.0,1.0,1.0,1.0,1.0,480.8701299998574,3.0,1.0,phase_1,,,,,,,,,,,,,green,cross
317.0,2.0,1.0,0.0,3.0,3.0,529.3102200000703,3.0,1.0,phase_1,,,,,,,,,,,,,cyan,flipped triangle
0.0,1.0,0.0,0.0,4.0,4.0,480.4953280001882,3.0,1.0,phase_1,,,,,,,,,,,,,blue,hexagon
1308.0,4.0,4.0,0.0,3.0,3.0,378.8601480000579,3.0,1.0,phase_1,,,,,,,,,,,,,white,circle
170.0,1.0,0.5,0.0,2.0,2.0,390.109129999928,3.0,1.0,phase_1,,,,,,,,,,,,,blue,hexagon
0.0,8.0,0.0,1.0,3.0,3.0,500.755270000127,3.0,1.0,phase_1,,,,,,,,,,,,,yellow,square
1303.0,4.0,4.0,0.0,2.0,2.0,398.8211089999822,3.0,1.0,phase_1,,,,,,,,,,,,,white,circle
672.0,3.0,2.0,0.0,4.0,4.0,554.481535999912,3.0,1.0,phase_1,,,,,,,,,,,,,magenta,I
674.0,7.0,2.0,1.0,3.0,3.0,379.8821339998994,3.0,1.0,phase_1,,,,,,,,,,,,,gray,diamond
661.0,3.0,2.0,0.0,2.0,2.0,527.3089339998478,3.0,1.0,phase_1,,,,,,,,,,,,,magenta,I
323.0,6.0,1.0,1.0,3.0,3.0,519.4039410000642,3.0,1.0,phase_1,,,,,,,,,,,,,green,cross
0.0,8.0,0.0,1.0,1.0,1.0,491.1932180000349,3.0,1.0,phase_1,,,,,,,,,,,,,yellow,square
319.0,2.0,1.0,0.0,3.0,3.0,426.1081110000759,3.0,1.0,phase_1,,,,,,,,,,,,,cyan,flipped triangle
668.0,3.0,2.0,0.0,4.0,4.0,407.4829379999301,3.0,1.0,phase_1,,,,,,,,,,,,,magenta,I
655.0,3.0,2.0,0.0,3.0,3.0,370.193104000009,3.0,1.0,phase_1,,,,,,,,,,,,,magenta,I
327.0,6.0,1.0,1.0,3.0,3.0,388.1297589998667,3.0,1.0,phase_1,,,,,,,,,,,,,green,cross
326.0,2.0,1.0,0.0,3.0,3.0,472.6259080000545,3.0,1.0,phase_1,,,,,,,,,,,,,cyan,flipped triangle
1312.0,4.0,4.0,0.0,3.0,3.0,455.3968230000009,3.0,1.0,phase_1,,,,,,,,,,,,,white,circle
672.0,7.0,2.0,1.0,2.0,2.0,453.3119039999747,3.0,1.0,phase_1,,,,,,,,,,,,,gray,diamond
1278.0,4.0,4.0,0.0,2.0,2.0,407.0409999999356,3.0,1.0,phase_1,,,,,,,,,,,,,white,circle
168.0,5.0,0.5,1.0,4.0,4.0,732.2128989999328,3.0,1.0,phase_1,,,,,,,,,,,,,orange,triangle
673.0,7.0,2.0,1.0,4.0,4.0,526.7739590001383,3.0,1.0,phase_1,,,,,,,,,,,,,gray,diamond
339.0,6.0,1.0,1.0,4.0,4.0,490.5025550001483,3.0,1.0,phase_1,,,,,,,,,,,,,green,cross
0.0,8.0,0.0,1.0,1.0,1.0,406.8726750001588,3.0,1.0,phase_1,,,,,,,,,,,,,yellow,square
156.0,5.0,0.5,1.0,1.0,1.0,462.9540570001609,3.0,1.0,phase_1,,,,,,,,,,,,,orange,triangle
0.0,7.0,0.0,1.0,4.0,4.0,620.9783150000021,3.0,1.0,phase_1,,,,,,,,,,,,,gray,diamond
626.0,7.0,2.0,1.0,4.0,4.0,462.6939209999818,3.0,1.0,phase_1,,,,,,,,,,,,,gray,diamond
315.0,6.0,1.0,1.0,4.0,4.0,452.8089309999359,3.0,1.0,phase_1,,,,,,,,,,,,,green,cross
334.0,2.0,1.0,0.0,3.0,3.0,473.0385719999503,3.0,1.0,phase_1,,,,,,,,,,,,,cyan,flipped triangle
638.0,7.0,2.0,1.0,4.0,4.0,425.4913920001399,3.0,1.0,phase_1,,,,,,,,,,,,,gray,diamond
1301.0,8.0,4.0,1.0,1.0,1.0,417.7590690001125,3.0,1.0,phase_1,,,,,,,,,,,,,yellow,square
1276.0,8.0,4.0,1.0,4.0,4.0,462.8753590000087,3.0,1.0,phase_1,,,,,,,,,,,,,yellow,square
627.0,7.0,2.0,1.0,4.0,4.0,444.8027739999816,4.0,1.0,phase_1,,,,,,,,,,,,,gray,diamond
626.0,7.0,2.0,1.0,2.0,2.0,489.0073670001129,4.0,1.0,phase_1,,,,,,,,,,,,,gray,diamond
631.0,3.0,2.0,0.0,2.0,2.0,528.3837220001715,4.0,1.0,phase_1,,,,,,,,,,,,,magenta,I
187.0,1.0,0.5,0.0,1.0,1.0,454.029809000076,4.0,1.0,phase_1,,,,,,,,,,,,,blue,hexagon
633.0,7.0,2.0,1.0,4.0,4.0,519.4317790001151,4.0,1.0,phase_1,,,,,,,,,,,,,gray,diamond
0.0,7.0,0.0,1.0,2.0,2.0,425.142285999982,4.0,1.0,phase_1,,,,,,,,,,,,,gray,diamond
183.0,5.0,0.5,1.0,1.0,1.0,426.527630999999,4.0,1.0,phase_1,,,,,,,,,,,,,orange,triangle
305.0,6.0,1.0,1.0,1.0,1.0,407.6022699998702,4.0,1.0,phase_1,,,,,,,,,,,,,green,cross
147.0,1.0,0.5,0.0,4.0,4.0,407.5410810000903,4.0,1.0,phase_1,,,,,,,,,,,,,blue,hexagon
0.0,3.0,0.0,0.0,2.0,2.0,389.8777289998634,4.0,1.0,phase_1,,,,,,,,,,,,,magenta,I
180.0,5.0,0.5,1.0,3.0,3.0,527.1812250000494,4.0,1.0,phase_1,,,,,,,,,,,,,orange,triangle
143.0,1.0,0.5,0.0,4.0,4.0,472.963074000063,4.0,1.0,phase_1,,,,,,,,,,,,,blue,hexagon
349.0,6.0,1.0,1.0,3.0,3.0,582.6375690000987,4.0,1.0,phase_1,,,,,,,,,,,,,green,cross
1303.0,8.0,4.0,1.0,3.0,3.0,470.5088610000985,4.0,1.0,phase_1,,,,,,,,,,,,,yellow,square
0.0,5.0,0.0,1.0,3.0,3.0,491.2556540000423,4.0,1.0,phase_1,,,,,,,,,,,,,orange,triangle
1300.0,8.0,4.0,1.0,4.0,4.0,371.5293569998721,4.0,1.0,phase_1,,,,,,,,,,,,,yellow,square
1294.0,4.0,4.0,0.0,2.0,2.0,435.8119580001585,4.0,1.0,phase_1,,,,,,,,,,,,,white,circle
0.0,7.0,0.0,1.0,4.0,4.0,379.3063740001798,4.0,1.0,phase_1,,,,,,,,,,,,,gray,diamond
154.0,5.0,0.5,1.0,1.0,1.0,416.9552429998475,4.0,1.0,phase_1,,,,,,,,,,,,,orange,triangle
0.0,2.0,0.0,0.0,4.0,4.0,416.8506930000148,4.0,1.0,phase_1,,,,,,,,,,,,,cyan,flipped triangle
177.0,5.0,0.5,1.0,3.0,3.0,424.8079429999052,4.0,1.0,phase_1,,,,,,,,,,,,,orange,triangle
147.0,5.0,0.5,1.0,1.0,1.0,545.6767370001216,4.0,1.0,phase_1,,,,,,,,,,,,,orange,triangle
639.0,3.0,2.0,0.0,4.0,4.0,446.0284169999795,4.0,1.0,phase_1,,,,,,,,,,,,,magenta,I
179.0,1.0,0.5,0.0,4.0,4.0,565.9303270001601,4.0,1.0,phase_1,,,,,,,,,,,,,blue,hexagon
177.0,1.0,0.5,0.0,1.0,1.0,591.6853700000502,4.0,1.0,phase_1,,,,,,,,,,,,,blue,hexagon
164.0,5.0,0.5,1.0,3.0,3.0,905.1083919998746,4.0,1.0,phase_1,,,,,,,,,,,,,orange,triangle
0.0,5.0,0.0,1.0,3.0,3.0,528.3004920001986,4.0,1.0,phase_1,,,,,,,,,,,,,orange,triangle
1285.0,4.0,4.0,0.0,1.0,1.0,554.3883540001389,4.0,1.0,phase_1,,,,,,,,,,,,,white,circle
1298.0,8.0,4.0,1.0,2.0,2.0,462.4224479998702,4.0,1.0,phase_1,,,,,,,,,,,,,yellow,square
304.0,2.0,1.0,0.0,2.0,2.0,426.1132030001135,4.0,1.0,phase_1,,,,,,,,,,,,,cyan,flipped triangle
1276.0,4.0,4.0,0.0,1.0,1.0,398.5234609999679,4.0,1.0,phase_1,,,,,,,,,,,,,white,circle
178.0,1.0,0.5,0.0,2.0,2.0,378.4897599998658,4.0,1.0,phase_1,,,,,,,,,,,,,blue,hexagon
162.0,1.0,0.5,0.0,1.0,1.0,370.2022479999414,4.0,2.0,phase_1,,,,,,,,,,,,,blue,hexagon
650.0,7.0,2.0,1.0,1.0,1.0,416.8872600000668,4.0,1.0,phase_1,,,,,,,,,,,,,gray,diamond
144.0,1.0,0.5,0.0,3.0,3.0,445.4682670000238,4.0,1.0,phase_1,,,,,,,,,,,,,blue,hexagon
1313.0,8.0,4.0,1.0,3.0,3.0,482.0394490000126,4.0,1.0,phase_1,,,,,,,,,,,,,yellow,square
0.0,2.0,0.0,0.0,3.0,3.0,443.1552290000127,4.0,1.0,phase_1,,,,,,,,,,,,,cyan,flipped triangle
334.0,2.0,1.0,0.0,3.0,3.0,452.8107060000366,4.0,1.0,phase_1,,,,,,,,,,,,,cyan,flipped triangle
649.0,3.0,2.0,0.0,4.0,4.0,545.1997820000543,4.0,1.0,phase_1,,,,,,,,,,,,,magenta,I
1283.0,8.0,4.0,1.0,4.0,4.0,463.863412000137,4.0,1.0,phase_1,,,,,,,,,,,,,yellow,square
0.0,6.0,0.0,1.0,1.0,1.0,471.7092949999824,4.0,1.0,phase_1,,,,,,,,,,,,,green,cross
323.0,2.0,1.0,0.0,4.0,4.0,435.0319539998963,4.0,1.0,phase_1,,,,,,,,,,,,,cyan,flipped triangle
156.0,1.0,0.5,0.0,1.0,1.0,415.9044160001031,4.0,1.0,phase_1,,,,,,,,,,,,,blue,hexagon
629.0,3.0,2.0,0.0,3.0,3.0,444.4258089999948,4.0,1.0,phase_1,,,,,,,,,,,,,magenta,I
0.0,7.0,0.0,1.0,1.0,1.0,453.2893800001147,4.0,1.0,phase_1,,,,,,,,,,,,,gray,diamond
304.0,6.0,1.0,1.0,2.0,2.0,482.1453829999882,4.0,1.0,phase_1,,,,,,,,,,,,,green,cross
673.0,3.0,2.0,0.0,3.0,3.0,463.4817549999752,4.0,1.0,phase_1,,,,,,,,,,,,,magenta,I
341.0,2.0,1.0,0.0,1.0,1.0,381.6472140001679,4.0,1.0,phase_1,,,,,,,,,,,,,cyan,flipped triangle
0.0,2.0,0.0,0.0,3.0,3.0,391.2855229998513,4.0,1.0,phase_1,,,,,,,,,,,,,cyan,flipped triangle
1301.0,4.0,4.0,0.0,3.0,3.0,388.510000999986,4.0,1.0,phase_1,,,,,,,,,,,,,white,circle
1311.0,4.0,4.0,0.0,2.0,2.0,436.5092589998767,4.0,1.0,phase_1,,,,,,,,,,,,,white,circle
638.0,3.0,2.0,0.0,1.0,1.0,436.2105679999786,4.0,1.0,phase_1,,,,,,,,,,,,,magenta,I
1291.0,4.0,4.0,0.0,4.0,4.0,416.2938580000173,4.0,1.0,phase_1,,,,,,,,,,,,,white,circle
177.0,1.0,0.5,0.0,1.0,1.0,443.794372999946,4.0,1.0,phase_1,,,,,,,,,,,,,blue,hexagon
1288.0,4.0,4.0,0.0,1.0,1.0,398.2705949999854,4.0,1.0,phase_1,,,,,,,,,,,,,white,circle
634.0,7.0,2.0,1.0,2.0,2.0,425.7394569999633,4.0,1.0,phase_1,,,,,,,,,,,,,gray,diamond
1306.0,8.0,4.0,1.0,2.0,2.0,398.5564209999666,4.0,1.0,phase_1,,,,,,,,,,,,,yellow,square
311.0,6.0,1.0,1.0,2.0,2.0,420.6541080000079,4.0,1.0,phase_1,,,,,,,,,,,,,green,cross
1319.0,4.0,4.0,0.0,1.0,1.0,417.0331439997881,4.0,1.0,phase_1,,,,,,,,,,,,,white,circle
0.0,5.0,0.0,1.0,2.0,2.0,453.5768940002072,4.0,1.0,phase_1,,,,,,,,,,,,,orange,triangle
627.0,3.0,2.0,0.0,3.0,3.0,811.466696000025,4.0,1.0,phase_1,,,,,,,,,,,,,magenta,I
323.0,2.0,1.0,0.0,3.0,3.0,517.8167919998486,4.0,1.0,phase_1,,,,,,,,,,,,,cyan,flipped triangle
1283.0,4.0,4.0,0.0,3.0,3.0,490.1796970000305,4.0,1.0,phase_1,,,,,,,,,,,,,white,circle
632.0,7.0,2.0,1.0,4.0,4.0,315.09553900014,4.0,2.0,phase_1,,,,,,,,,,,,,gray,diamond
1302.0,4.0,4.0,0.0,4.0,4.0,572.8275419999136,4.0,1.0,phase_1,,,,,,,,,,,,,white,circle
0.0,4.0,0.0,0.0,3.0,3.0,454.7293610000906,4.0,1.0,phase_1,,,,,,,,,,,,,white,circle
139.0,1.0,0.5,0.0,3.0,3.0,464.1137269998125,4.0,1.0,phase_1,,,,,,,,,,,,,blue,hexagon
144.0,5.0,0.5,1.0,2.0,2.0,626.7715989999942,4.0,1.0,phase_1,,,,,,,,,,,,,orange,triangle
340.0,6.0,1.0,1.0,4.0,4.0,471.5877249998357,4.0,1.0,phase_1,,,,,,,,,,,,,green,cross
1275.0,4.0,4.0,0.0,4.0,4.0,535.53061599996,4.0,1.0,phase_1,,,,,,,,,,,,,white,circle
1298.0,4.0,4.0,0.0,1.0,1.0,573.144333999835,4.0,1.0,phase_1,,,,,,,,,,,,,white,circle
1285.0,8.0,4.0,1.0,1.0,1.0,443.1164339998759,4.0,1.0,phase_1,,,,,,,,,,,,,yellow,square
307.0,2.0,1.0,0.0,1.0,1.0,382.6982080001926,4.0,1.0,phase_1,,,,,,,,,,,,,cyan,flipped triangle
0.0,1.0,0.0,0.0,3.0,3.0,333.0741770000713,4.0,1.0,phase_1,,,,,,,,,,,,,blue,hexagon
0.0,7.0,0.0,1.0,4.0,4.0,471.6265649999513,4.0,1.0,phase_1,,,,,,,,,,,,,gray,diamond
1315.0,8.0,4.0,1.0,1.0,1.0,424.5345829999678,4.0,1.0,phase_1,,,,,,,,,,,,,yellow,square
184.0,1.0,0.5,0.0,1.0,1.0,422.7202519998627,4.0,1.0,phase_1,,,,,,,,,,,,,blue,hexagon
155.0,5.0,0.5,1.0,2.0,2.0,544.9171039999783,4.0,1.0,phase_1,,,,,,,,,,,,,orange,triangle
170.0,5.0,0.5,1.0,2.0,2.0,389.3390769999314,4.0,1.0,phase_1,,,,,,,,,,,,,orange,triangle
1304.0,8.0,4.0,1.0,3.0,3.0,389.0466240000023,4.0,1.0,phase_1,,,,,,,,,,,,,yellow,square
1311.0,8.0,4.0,1.0,4.0,4.0,583.4504140000263,4.0,1.0,phase_1,,,,,,,,,,,,,yellow,square
0.0,2.0,0.0,0.0,4.0,4.0,452.8809660000661,4.0,1.0,phase_1,,,,,,,,,,,,,cyan,flipped triangle
1315.0,4.0,4.0,0.0,2.0,2.0,351.3119130000177,4.0,1.0,phase_1,,,,,,,,,,,,,white,circle
326.0,6.0,1.0,1.0,3.0,3.0,435.9754260001409,4.0,1.0,phase_1,,,,,,,,,,,,,green,cross
349.0,6.0,1.0,1.0,4.0,4.0,452.8608390000954,4.0,1.0,phase_1,,,,,,,,,,,,,green,cross
652.0,7.0,2.0,1.0,3.0,3.0,389.0763080000852,4.0,1.0,phase_1,,,,,,,,,,,,,gray,diamond
1294.0,4.0,4.0,0.0,4.0,4.0,444.5457520000673,4.0,1.0,phase_1,,,,,,,,,,,,,white,circle
327.0,2.0,1.0,0.0,1.0,1.0,691.779753999981,4.0,1.0,phase_1,,,,,,,,,,,,,cyan,flipped triangle
661.0,3.0,2.0,0.0,2.0,2.0,563.6292819999653,4.0,1.0,phase_1,,,,,,,,,,,,,magenta,I
1294.0,8.0,4.0,1.0,1.0,1.0,572.547694999912,4.0,1.0,phase_1,,,,,,,,,,,,,yellow,square
647.0,7.0,2.0,1.0,1.0,1.0,526.3834779998433,4.0,1.0,phase_1,,,,,,,,,,,,,gray,diamond
0.0,7.0,0.0,1.0,3.0,3.0,490.553428000112,4.0,1.0,phase_1,,,,,,,,,,,,,gray,diamond
340.0,2.0,1.0,0.0,1.0,1.0,408.28535799983,4.0,1.0,phase_1,,,,,,,,,,,,,cyan,flipped triangle
667.0,3.0,2.0,0.0,2.0,2.0,452.6404090001961,4.0,1.0,phase_1,,,,,,,,,,,,,magenta,I
1298.0,4.0,4.0,0.0,3.0,3.0,389.3925239999589,4.0,1.0,phase_1,,,,,,,,,,,,,white,circle
346.0,2.0,1.0,0.0,4.0,4.0,508.00283699982174,4.0,1.0,phase_1,,,,,,,,,,,,,cyan,flipped triangle
0.0,6.0,0.0,1.0,1.0,1.0,462.5387009998576,4.0,1.0,phase_1,,,,,,,,,,,,,green,cross
1306.0,4.0,4.0,0.0,4.0,4.0,444.4686940000792,4.0,1.0,phase_1,,,,,,,,,,,,,white,circle
0.0,8.0,0.0,1.0,2.0,2.0,453.4321220000947,4.0,1.0,phase_1,,,,,,,,,,,,,yellow,square
179.0,5.0,0.5,1.0,2.0,2.0,444.2664980001609,4.0,1.0,phase_1,,,,,,,,,,,,,orange,triangle
0.0,7.0,2.0,1.0,5.0,0.0,0.0,1.0,1.0,phase_2,stop,250.0,250.0,4.0,,,,,,,,,gray,diamond
0.0,7.0,2.0,1.0,6.0,0.0,0.0,1.0,1.0,phase_2,stop,300.0,250.0,4.0,,,,,,,,,gray,diamond
0.0,2.0,1.0,0.0,5.0,5.0,511.2165030000142,1.0,1.0,phase_2,go,300.0,300.0,1.0,,,,,,,,,cyan,flipped triangle
0.0,3.0,2.0,0.0,5.0,5.0,810.3699480002433,1.0,1.0,phase_2,go,300.0,300.0,1.0,,,,,,,,,magenta,I
0.0,7.0,2.0,1.0,6.0,0.0,0.0,1.0,1.0,phase_2,stop,300.0,300.0,4.0,,,,,,,,,gray,diamond
0.0,2.0,1.0,0.0,6.0,6.0,781.728404000205,1.0,1.0,phase_2,go,300.0,350.0,1.0,,,,,,,,,cyan,flipped triangle
0.0,2.0,1.0,0.0,5.0,5.0,847.4068229998011,1.0,1.0,phase_2,go,300.0,350.0,1.0,,,,,,,,,cyan,flipped triangle
0.0,6.0,1.0,1.0,5.0,0.0,0.0,1.0,1.0,phase_2,stop,300.0,350.0,4.0,,,,,,,,,green,cross
0.0,7.0,2.0,1.0,6.0,0.0,0.0,1.0,1.0,phase_2,stop,350.0,350.0,4.0,,,,,,,,,gray,diamond
0.0,2.0,1.0,0.0,6.0,6.0,754.6289849997265,1.0,1.0,phase_2,go,350.0,400.0,1.0,,,,,,,,,cyan,flipped triangle
0.0,7.0,2.0,1.0,6.0,0.0,0.0,1.0,1.0,phase_2,stop,350.0,400.0,4.0,,,,,,,,,gray,diamond
0.0,1.0,0.5,0.0,6.0,6.0,870.8356740003182,1.0,1.0,phase_2,go,350.0,450.0,1.0,,,,,,,,,blue,hexagon
0.0,4.0,4.0,0.0,5.0,5.0,885.4354320001221,1.0,1.0,phase_2,go,350.0,450.0,1.0,,,,,,,,,white,circle
0.0,2.0,1.0,0.0,6.0,6.0,1117.6703060000364,1.0,1.0,phase_2,go,350.0,450.0,1.0,,,,,,,,,cyan,flipped triangle
0.0,2.0,1.0,0.0,6.0,6.0,597.1499819997916,1.0,1.0,phase_2,go,350.0,450.0,1.0,,,,,,,,,cyan,flipped triangle
0.0,5.0,0.5,1.0,5.0,0.0,0.0,1.0,1.0,phase_2,stop,350.0,450.0,4.0,,,,,,,,,orange,triangle
0.0,3.0,2.0,0.0,6.0,6.0,802.8932329998497,1.0,1.0,phase_2,go,400.0,450.0,1.0,,,,,,,,,magenta,I
0.0,7.0,2.0,1.0,5.0,0.0,0.0,1.0,1.0,phase_2,stop,400.0,450.0,4.0,,,,,,,,,gray,diamond
0.0,8.0,4.0,1.0,5.0,0.0,0.0,1.0,1.0,phase_2,stop,450.0,450.0,4.0,,,,,,,,,yellow,square
0.0,7.0,2.0,1.0,6.0,0.0,0.0,1.0,1.0,phase_2,stop,500.0,450.0,4.0,,,,,,,,,gray,diamond
0.0,1.0,0.5,0.0,5.0,5.0,809.9009239999759,1.0,1.0,phase_2,go,500.0,500.0,1.0,,,,,,,,,blue,hexagon
0.0,8.0,4.0,1.0,6.0,0.0,0.0,1.0,1.0,phase_2,stop,500.0,500.0,4.0,,,,,,,,,yellow,square
0.0,8.0,4.0,1.0,5.0,0.0,0.0,1.0,1.0,phase_2,stop,500.0,550.0,4.0,,,,,,,,,yellow,square
0.0,1.0,0.5,0.0,5.0,5.0,899.5435070000894,1.0,1.0,phase_2,go,550.0,550.0,1.0,,,,,,,,,blue,hexagon
0.0,1.0,0.5,0.0,5.0,5.0,1191.0943670000051,1.0,1.0,phase_2,go,550.0,550.0,1.0,,,,,,,,,blue,hexagon
0.0,5.0,0.5,1.0,5.0,5.0,1294.5967669998026,1.0,1.0,phase_2,go,550.0,550.0,1.0,,,,,,,,,orange,triangle
0.0,7.0,2.0,1.0,6.0,0.0,0.0,1.0,1.0,phase_2,stop,550.0,550.0,4.0,,,,,,,,,gray,diamond
0.0,4.0,4.0,0.0,6.0,6.0,1199.1177210002206,1.0,1.0,phase_2,go,550.0,600.0,1.0,,,,,,,,,white,circle
0.0,4.0,4.0,0.0,6.0,6.0,1070.41671900015,1.0,1.0,phase_2,go,550.0,600.0,1.0,,,,,,,,,white,circle
0.0,7.0,2.0,1.0,6.0,0.0,0.0,1.0,1.0,phase_2,stop,550.0,600.0,4.0,,,,,,,,,gray,diamond
0.0,3.0,2.0,0.0,6.0,6.0,1042.482027999995,1.0,1.0,phase_2,go,550.0,650.0,1.0,,,,,,,,,magenta,I
0.0,3.0,2.0,0.0,5.0,5.0,1077.5815550000516,1.0,1.0,phase_2,go,550.0,650.0,1.0,,,,,,,,,magenta,I
0.0,8.0,4.0,1.0,6.0,0.0,0.0,1.0,1.0,phase_2,stop,550.0,650.0,4.0,,,,,,,,,yellow,square
0.0,8.0,4.0,1.0,6.0,0.0,0.0,1.0,1.0,phase_2,stop,550.0,700.0,4.0,,,,,,,,,yellow,square
0.0,4.0,4.0,0.0,6.0,6.0,1023.5090109999874,1.0,1.0,phase_2,go,550.0,750.0,1.0,,,,,,,,,white,circle
0.0,4.0,4.0,0.0,6.0,6.0,1421.7292409998663,1.0,1.0,phase_2,go,550.0,750.0,1.0,,,,,,,,,white,circle
0.0,3.0,2.0,0.0,5.0,5.0,476.1271550000856,2.0,1.0,phase_2,go,550.0,750.0,1.0,,,,,,,,,magenta,I
0.0,6.0,1.0,1.0,6.0,6.0,892.0175779999227,2.0,1.0,phase_2,stop,550.0,750.0,3.0,,,,,,,,,green,cross
0.0,3.0,2.0,0.0,6.0,0.0,0.0,2.0,1.0,phase_2,go,550.0,700.0,5.0,,,,,,,,,magenta,I
0.0,3.0,2.0,0.0,6.0,6.0,401.4767579997169,2.0,1.0,phase_2,go,550.0,700.0,1.0,,,,,,,,,magenta,I
0.0,2.0,1.0,0.0,6.0,6.0,742.6916869999332,2.0,1.0,phase_2,go,550.0,700.0,1.0,,,,,,,,,cyan,flipped triangle
0.0,2.0,1.0,0.0,6.0,6.0,511.8316500002038,2.0,1.0,phase_2,go,550.0,700.0,1.0,,,,,,,,,cyan,flipped triangle
0.0,6.0,1.0,1.0,6.0,6.0,759.2752719997407,2.0,1.0,phase_2,stop,550.0,700.0,3.0,,,,,,,,,green,cross
0.0,5.0,0.5,1.0,5.0,0.0,0.0,2.0,1.0,phase_2,stop,550.0,650.0,4.0,,,,,,,,,orange,triangle
0.0,7.0,2.0,1.0,5.0,5.0,634.9916710000798,2.0,1.0,phase_2,stop,600.0,650.0,3.0,,,,,,,,,gray,diamond
0.0,1.0,0.5,0.0,6.0,6.0,994.9596649998966,2.0,1.0,phase_2,go,550.0,650.0,1.0,,,,,,,,,blue,hexagon
0.0,4.0,4.0,0.0,6.0,6.0,1347.8357829999368,2.0,1.0,phase_2,go,550.0,650.0,1.0,,,,,,,,,white,circle
0.0,4.0,4.0,0.0,6.0,6.0,1174.4172590001654,2.0,1.0,phase_2,go,550.0,650.0,1.0,,,,,,,,,white,circle
0.0,3.0,2.0,0.0,6.0,6.0,1080.885598999885,2.0,1.0,phase_2,go,550.0,650.0,1.0,,,,,,,,,magenta,I
0.0,8.0,4.0,1.0,6.0,0.0,0.0,2.0,1.0,phase_2,stop,550.0,650.0,4.0,,,,,,,,,yellow,square
0.0,7.0,2.0,1.0,5.0,0.0,0.0,2.0,1.0,phase_2,stop,550.0,700.0,4.0,,,,,,,,,gray,diamond
0.0,3.0,2.0,0.0,5.0,5.0,1005.7950020000137,2.0,1.0,phase_2,go,600.0,700.0,1.0,,,,,,,,,magenta,I
0.0,4.0,4.0,0.0,6.0,6.0,894.1932509997059,2.0,1.0,phase_2,go,600.0,700.0,1.0,,,,,,,,,white,circle
0.0,2.0,1.0,0.0,5.0,5.0,1276.1603970002398,2.0,1.0,phase_2,go,600.0,700.0,1.0,,,,,,,,,cyan,flipped triangle
0.0,2.0,1.0,0.0,6.0,6.0,893.1075989999044,2.0,1.0,phase_2,go,600.0,700.0,1.0,,,,,,,,,cyan,flipped triangle
0.0,3.0,2.0,0.0,5.0,5.0,1042.70069300037,2.0,1.0,phase_2,go,600.0,700.0,1.0,,,,,,,,,magenta,I
0.0,5.0,0.5,1.0,6.0,0.0,0.0,2.0,1.0,phase_2,stop,600.0,700.0,4.0,,,,,,,,,orange,triangle
0.0,3.0,2.0,0.0,6.0,6.0,1042.1815240001706,2.0,1.0,phase_2,go,600.0,750.0,1.0,,,,,,,,,magenta,I
0.0,6.0,1.0,1.0,5.0,0.0,0.0,2.0,1.0,phase_2,stop,600.0,750.0,4.0,,,,,,,,,green,cross
0.0,8.0,4.0,1.0,5.0,0.0,0.0,2.0,1.0,phase_2,stop,650.0,750.0,4.0,,,,,,,,,yellow,square
0.0,8.0,4.0,1.0,5.0,0.0,0.0,2.0,1.0,phase_2,stop,700.0,750.0,4.0,,,,,,,,,yellow,square
0.0,4.0,4.0,0.0,5.0,5.0,912.5229600003876,2.0,1.0,phase_2,go,750.0,750.0,1.0,,,,,,,,,white,circle
0.0,3.0,2.0,0.0,5.0,5.0,1226.725118000104,2.0,1.0,phase_2,go,750.0,750.0,1.0,,,,,,,,,magenta,I
0.0,2.0,1.0,0.0,5.0,5.0,1117.2192429999086,2.0,1.0,phase_2,go,750.0,750.0,1.0,,,,,,,,,cyan,flipped triangle
0.0,2.0,1.0,0.0,6.0,6.0,1433.7358230000063,2.0,1.0,phase_2,go,750.0,750.0,1.0,,,,,,,,,cyan,flipped triangle
0.0,5.0,0.5,1.0,6.0,0.0,0.0,2.0,1.0,phase_2,stop,750.0,750.0,4.0,,,,,,,,,orange,triangle
0.0,1.0,0.5,0.0,6.0,0.0,0.0,2.0,1.0,phase_2,go,750.0,800.0,5.0,,,,,,,,,blue,hexagon
0.0,6.0,1.0,1.0,5.0,5.0,448.329709999598,2.0,1.0,phase_2,stop,750.0,800.0,3.0,,,,,,,,,green,cross
0.0,2.0,1.0,0.0,5.0,5.0,1208.8259000001926,2.0,1.0,phase_2,go,700.0,800.0,1.0,,,,,,,,,cyan,flipped triangle
0.0,3.0,2.0,0.0,5.0,5.0,457.0544389998758,2.0,1.0,phase_2,go,700.0,800.0,1.0,,,,,,,,,magenta,I
0.0,4.0,4.0,0.0,5.0,5.0,816.1193320001985,2.0,1.0,phase_2,go,700.0,800.0,1.0,,,,,,,,,white,circle
0.0,8.0,4.0,1.0,5.0,0.0,0.0,2.0,1.0,phase_2,stop,700.0,800.0,4.0,,,,,,,,,yellow,square
0.0,3.0,2.0,0.0,5.0,5.0,1203.3405950000997,3.0,1.0,phase_2,go,750.0,800.0,1.0,,,,,,,,,magenta,I
0.0,1.0,0.5,0.0,6.0,6.0,1293.8936470000044,3.0,1.0,phase_2,go,750.0,800.0,1.0,,,,,,,,,blue,hexagon
0.0,6.0,1.0,1.0,6.0,0.0,0.0,3.0,1.0,phase_2,stop,750.0,800.0,4.0,,,,,,,,,green,cross
0.0,5.0,0.5,1.0,5.0,0.0,0.0,3.0,1.0,phase_2,stop,750.0,850.0,4.0,,,,,,,,,orange,triangle
0.0,4.0,4.0,0.0,5.0,5.0,819.8468929999763,3.0,1.0,phase_2,go,800.0,850.0,1.0,,,,,,,,,white,circle
0.0,4.0,4.0,0.0,6.0,6.0,1145.633851999719,3.0,1.0,phase_2,go,800.0,850.0,1.0,,,,,,,,,white,circle
0.0,4.0,4.0,0.0,6.0,6.0,1285.7073269997272,3.0,1.0,phase_2,go,800.0,850.0,1.0,,,,,,,,,white,circle
0.0,7.0,2.0,1.0,5.0,0.0,0.0,3.0,1.0,phase_2,stop,800.0,850.0,4.0,,,,,,,,,gray,diamond
0.0,4.0,4.0,0.0,5.0,5.0,903.5026700003071,3.0,1.0,phase_2,go,850.0,850.0,1.0,,,,,,,,,white,circle
0.0,8.0,4.0,1.0,6.0,0.0,0.0,3.0,1.0,phase_2,stop,850.0,850.0,4.0,,,,,,,,,yellow,square
0.0,8.0,4.0,1.0,5.0,5.0,1041.043796999929,3.0,1.0,phase_2,go,850.0,900.0,1.0,,,,,,,,,yellow,square
0.0,6.0,1.0,1.0,6.0,6.0,464.8044059999847,3.0,1.0,phase_2,go,850.0,900.0,1.0,,,,,,,,,green,cross
0.0,6.0,1.0,1.0,6.0,6.0,391.1004829997182,3.0,1.0,phase_2,stop,850.0,900.0,3.0,,,,,,,,,green,cross
0.0,7.0,2.0,1.0,5.0,0.0,0.0,3.0,1.0,phase_2,stop,850.0,850.0,4.0,,,,,,,,,gray,diamond
0.0,2.0,1.0,0.0,6.0,6.0,736.3779740003338,3.0,1.0,phase_2,go,900.0,850.0,1.0,,,,,,,,,cyan,flipped triangle
0.0,2.0,1.0,0.0,6.0,6.0,855.2815329999248,3.0,1.0,phase_2,go,900.0,850.0,1.0,,,,,,,,,cyan,flipped triangle
0.0,5.0,0.5,1.0,5.0,5.0,735.7053669998095,3.0,1.0,phase_2,stop,900.0,850.0,3.0,,,,,,,,,orange,triangle
0.0,7.0,2.0,1.0,5.0,0.0,0.0,3.0,1.0,phase_2,stop,850.0,850.0,4.0,,,,,,,,,gray,diamond
0.0,4.0,4.0,0.0,6.0,6.0,1179.2082890001438,3.0,1.0,phase_2,go,900.0,850.0,1.0,,,,,,,,,white,circle
0.0,8.0,4.0,1.0,6.0,0.0,0.0,3.0,1.0,phase_2,stop,900.0,850.0,4.0,,,,,,,,,yellow,square
0.0,2.0,1.0,0.0,5.0,5.0,1461.360904999765,3.0,1.0,phase_2,go,900.0,900.0,1.0,,,,,,,,,cyan,flipped triangle
0.0,8.0,4.0,1.0,5.0,0.0,0.0,3.0,1.0,phase_2,stop,900.0,900.0,4.0,,,,,,,,,yellow,square
0.0,1.0,0.5,0.0,5.0,0.0,0.0,3.0,1.0,phase_2,go,950.0,900.0,5.0,,,,,,,,,blue,hexagon
0.0,7.0,2.0,1.0,6.0,0.0,0.0,3.0,1.0,phase_2,stop,950.0,900.0,4.0,,,,,,,,,gray,diamond
0.0,5.0,0.5,1.0,6.0,0.0,0.0,3.0,1.0,phase_2,stop,950.0,950.0,4.0,,,,,,,,,orange,triangle
0.0,5.0,0.5,1.0,6.0,0.0,0.0,3.0,1.0,phase_2,stop,950.0,1000.0,4.0,,,,,,,,,orange,triangle
0.0,7.0,2.0,1.0,6.0,6.0,1058.8657580001382,3.0,1.0,phase_2,go,950.0,1050.0,1.0,,,,,,,,,gray,diamond
0.0,1.0,0.5,0.0,6.0,6.0,1133.7811570001577,3.0,1.0,phase_2,go,950.0,1050.0,1.0,,,,,,,,,blue,hexagon
0.0,4.0,4.0,0.0,5.0,5.0,1135.963078000259,3.0,1.0,phase_2,go,950.0,1050.0,1.0,,,,,,,,,white,circle
0.0,1.0,0.5,0.0,6.0,0.0,0.0,3.0,1.0,phase_2,go,950.0,1050.0,5.0,,,,,,,,,blue,hexagon
0.0,1.0,0.5,0.0,6.0,6.0,381.5134569999827,3.0,1.0,phase_2,go,950.0,1050.0,1.0,,,,,,,,,blue,hexagon
0.0,4.0,4.0,0.0,5.0,5.0,420.179355000073,3.0,1.0,phase_2,go,950.0,1050.0,1.0,,,,,,,,,white,circle
0.0,6.0,1.0,1.0,5.0,5.0,532.039597000221,3.0,1.0,phase_2,stop,950.0,1050.0,3.0,,,,,,,,,green,cross
0.0,6.0,1.0,1.0,5.0,0.0,0.0,3.0,1.0,phase_2,stop,900.0,1050.0,4.0,,,,,,,,,green,cross
0.0,1.0,0.5,0.0,5.0,5.0,1024.7530749998075,3.0,1.0,phase_2,go,950.0,1050.0,1.0,,,,,,,,,blue,hexagon
0.0,7.0,2.0,1.0,5.0,5.0,828.8774800003011,3.0,1.0,phase_2,stop,950.0,1050.0,3.0,,,,,,,,,gray,diamond
0.0,7.0,2.0,1.0,5.0,0.0,0.0,4.0,1.0,phase_2,stop,900.0,1050.0,4.0,,,,,,,,,gray,diamond
0.0,1.0,0.5,0.0,6.0,6.0,1183.7383289998795,4.0,1.0,phase_2,go,950.0,1050.0,1.0,,,,,,,,,blue,hexagon
0.0,2.0,1.0,0.0,5.0,5.0,1398.1336880001436,4.0,1.0,phase_2,go,950.0,1050.0,1.0,,,,,,,,,cyan,flipped triangle
0.0,7.0,2.0,1.0,6.0,0.0,0.0,4.0,1.0,phase_2,stop,950.0,1050.0,4.0,,,,,,,,,gray,diamond
0.0,3.0,2.0,0.0,6.0,0.0,0.0,4.0,1.0,phase_2,go,950.0,1100.0,5.0,,,,,,,,,magenta,I
0.0,8.0,4.0,1.0,6.0,6.0,325.8983280002212,4.0,1.0,phase_2,go,950.0,1100.0,1.0,,,,,,,,,yellow,square
0.0,6.0,1.0,1.0,6.0,6.0,412.6251669999874,4.0,1.0,phase_2,go,950.0,1100.0,1.0,,,,,,,,,green,cross
0.0,2.0,1.0,0.0,5.0,5.0,391.6339299998981,4.0,1.0,phase_2,go,950.0,1100.0,1.0,,,,,,,,,cyan,flipped triangle
0.0,2.0,1.0,0.0,5.0,5.0,869.2866739997953,4.0,1.0,phase_2,go,950.0,1100.0,1.0,,,,,,,,,cyan,flipped triangle
0.0,6.0,1.0,1.0,6.0,6.0,1091.2293629999112,4.0,1.0,phase_2,go,950.0,1100.0,1.0,,,,,,,,,green,cross
0.0,6.0,1.0,1.0,5.0,5.0,993.6637549999432,4.0,1.0,phase_2,stop,950.0,1100.0,3.0,,,,,,,,,green,cross
0.0,8.0,4.0,1.0,6.0,6.0,1221.5523429999848,4.0,1.0,phase_2,go,900.0,1100.0,1.0,,,,,,,,,yellow,square
0.0,1.0,0.5,0.0,6.0,6.0,1111.0035900001094,4.0,1.0,phase_2,go,900.0,1100.0,1.0,,,,,,,,,blue,hexagon
0.0,1.0,0.5,0.0,5.0,5.0,1117.7025540000614,4.0,1.0,phase_2,go,900.0,1100.0,1.0,,,,,,,,,blue,hexagon
0.0,5.0,0.5,1.0,6.0,6.0,1060.8496599998034,4.0,1.0,phase_2,stop,900.0,1100.0,3.0,,,,,,,,,orange,triangle
0.0,7.0,2.0,1.0,5.0,5.0,848.0402879999929,4.0,1.0,phase_2,stop,900.0,1050.0,3.0,,,,,,,,,gray,diamond
0.0,2.0,1.0,0.0,5.0,5.0,922.4288300001716,4.0,1.0,phase_2,go,850.0,1050.0,1.0,,,,,,,,,cyan,flipped triangle
0.0,5.0,0.5,1.0,6.0,6.0,817.2860679997029,4.0,1.0,phase_2,go,850.0,1050.0,1.0,,,,,,,,,orange,triangle
0.0,8.0,4.0,1.0,6.0,6.0,855.7994560001134,4.0,1.0,phase_2,stop,850.0,1050.0,3.0,,,,,,,,,yellow,square
0.0,5.0,0.5,1.0,5.0,0.0,0.0,4.0,1.0,phase_2,stop,850.0,1000.0,4.0,,,,,,,,,orange,triangle
0.0,1.0,0.5,0.0,6.0,6.0,1294.8242699999355,4.0,1.0,phase_2,go,900.0,1000.0,1.0,,,,,,,,,blue,hexagon
0.0,4.0,4.0,0.0,6.0,6.0,697.9641150001044,4.0,1.0,phase_2,go,900.0,1000.0,1.0,,,,,,,,,white,circle
0.0,3.0,2.0,0.0,5.0,5.0,784.5777150000686,4.0,1.0,phase_2,go,900.0,1000.0,1.0,,,,,,,,,magenta,I
0.0,5.0,0.5,1.0,5.0,5.0,813.9356070000758,4.0,1.0,phase_2,stop,900.0,1000.0,3.0,,,,,,,,,orange,triangle
0.0,6.0,1.0,1.0,6.0,6.0,1136.346845999924,4.0,1.0,phase_2,stop,850.0,1000.0,3.0,,,,,,,,,green,cross
0.0,1.0,0.5,0.0,5.0,0.0,0.0,4.0,1.0,phase_2,go,850.0,950.0,5.0,,,,,,,,,blue,hexagon
0.0,5.0,0.5,1.0,5.0,5.0,683.5418599998775,4.0,1.0,phase_2,go,850.0,950.0,1.0,,,,,,,,,orange,triangle
0.0,4.0,4.0,0.0,5.0,5.0,1379.8931659998743,4.0,1.0,phase_2,go,850.0,950.0,1.0,,,,,,,,,white,circle
0.0,2.0,1.0,0.0,5.0,5.0,392.1244729999671,4.0,1.0,phase_2,go,850.0,950.0,1.0,,,,,,,,,cyan,flipped triangle
0.0,6.0,1.0,1.0,6.0,6.0,614.8602170001141,4.0,1.0,phase_2,stop,850.0,950.0,3.0,,,,,,,,,green,cross
0.0,8.0,4.0,1.0,6.0,6.0,757.4686439998004,4.0,1.0,phase_2,stop,850.0,900.0,3.0,,,,,,,,,yellow,square
0.0,4.0,4.0,0.0,5.0,5.0,953.4394259999316,4.0,1.0,phase_2,go,850.0,850.0,1.0,,,,,,,,,white,circle
0.0,4.0,4.0,0.0,5.0,5.0,1007.1519130001434,4.0,1.0,phase_2,go,850.0,850.0,1.0,,,,,,,,,white,circle
0.0,6.0,1.0,1.0,5.0,5.0,529.9764189999223,4.0,1.0,phase_2,stop,850.0,850.0,3.0,,,,,,,,,green,cross
0.0,1.0,0.5,0.0,6.0,0.0,0.0,4.0,1.0,phase_2,go,800.0,850.0,5.0,,,,,,,,,blue,hexagon
0.0,6.0,1.0,1.0,6.0,6.0,373.9652550002574,4.0,1.0,phase_2,stop,800.0,850.0,3.0,,,,,,,,,green,cross
0.0,2.0,1.0,0.0,6.0,6.0,1061.5037879997544,5.0,1.0,phase_2,go,800.0,800.0,1.0,,,,,,,,,cyan,flipped triangle
0.0,8.0,4.0,1.0,5.0,0.0,0.0,5.0,1.0,phase_2,stop,800.0,800.0,4.0,,,,,,,,,yellow,square
0.0,5.0,0.5,1.0,5.0,5.0,967.111646000376,5.0,1.0,phase_2,go,850.0,800.0,1.0,,,,,,,,,orange,triangle
0.0,3.0,2.0,0.0,6.0,0.0,0.0,5.0,1.0,phase_2,go,850.0,800.0,5.0,,,,,,,,,magenta,I
0.0,5.0,0.5,1.0,6.0,6.0,838.4367019998535,5.0,1.0,phase_2,go,850.0,800.0,1.0,,,,,,,,,orange,triangle
0.0,5.0,0.5,1.0,5.0,0.0,0.0,5.0,1.0,phase_2,stop,850.0,800.0,4.0,,,,,,,,,orange,triangle
0.0,1.0,0.5,0.0,5.0,5.0,1461.3384550002593,5.0,1.0,phase_2,go,900.0,800.0,1.0,,,,,,,,,blue,hexagon
0.0,7.0,2.0,1.0,5.0,0.0,0.0,5.0,1.0,phase_2,stop,900.0,800.0,4.0,,,,,,,,,gray,diamond
0.0,1.0,0.5,0.0,5.0,5.0,1291.3009889998648,5.0,1.0,phase_2,go,950.0,800.0,1.0,,,,,,,,,blue,hexagon
0.0,6.0,1.0,1.0,6.0,0.0,0.0,5.0,1.0,phase_2,stop,950.0,800.0,4.0,,,,,,,,,green,cross
0.0,8.0,4.0,1.0,5.0,5.0,1041.2251719999404,5.0,1.0,phase_2,go,950.0,850.0,1.0,,,,,,,,,yellow,square
0.0,7.0,2.0,1.0,5.0,0.0,0.0,5.0,1.0,phase_2,stop,950.0,850.0,4.0,,,,,,,,,gray,diamond
0.0,1.0,0.5,0.0,5.0,0.0,0.0,5.0,1.0,phase_2,go,1000.0,850.0,5.0,,,,,,,,,blue,hexagon
0.0,6.0,1.0,1.0,5.0,5.0,940.9403999998176,5.0,1.0,phase_2,stop,1000.0,850.0,3.0,,,,,,,,,green,cross
0.0,4.0,4.0,0.0,5.0,5.0,1295.59515200026,5.0,1.0,phase_2,go,950.0,850.0,1.0,,,,,,,,,white,circle
0.0,3.0,2.0,0.0,6.0,6.0,1058.9777449999929,5.0,1.0,phase_2,go,950.0,850.0,1.0,,,,,,,,,magenta,I
0.0,4.0,4.0,0.0,5.0,5.0,530.1162460000342,5.0,1.0,phase_2,go,950.0,850.0,1.0,,,,,,,,,white,circle
0.0,1.0,0.5,0.0,6.0,6.0,986.0743439999168,5.0,1.0,phase_2,go,950.0,850.0,1.0,,,,,,,,,blue,hexagon
0.0,1.0,0.5,0.0,5.0,5.0,1421.2828600002467,5.0,1.0,phase_2,go,950.0,850.0,1.0,,,,,,,,,blue,hexagon
0.0,6.0,1.0,1.0,5.0,0.0,0.0,5.0,1.0,phase_2,stop,950.0,850.0,4.0,,,,,,,,,green,cross
0.0,2.0,1.0,0.0,6.0,6.0,1143.232420999993,5.0,1.0,phase_2,go,1000.0,850.0,1.0,,,,,,,,,cyan,flipped triangle
0.0,1.0,0.5,0.0,6.0,6.0,1281.6919970000529,5.0,1.0,phase_2,go,1000.0,850.0,1.0,,,,,,,,,blue,hexagon
0.0,5.0,0.5,1.0,6.0,6.0,1171.0405899998475,5.0,1.0,phase_2,go,1000.0,850.0,1.0,,,,,,,,,orange,triangle
0.0,3.0,2.0,0.0,5.0,5.0,957.5420920000396,5.0,1.0,phase_2,go,1000.0,850.0,1.0,,,,,,,,,magenta,I
0.0,1.0,0.5,0.0,5.0,5.0,1256.6047690002051,5.0,1.0,phase_2,go,1000.0,850.0,1.0,,,,,,,,,blue,hexagon
0.0,5.0,0.5,1.0,6.0,6.0,1351.81809300002,5.0,1.0,phase_2,go,1000.0,850.0,1.0,,,,,,,,,orange,triangle
0.0,5.0,0.5,1.0,6.0,0.0,0.0,5.0,1.0,phase_2,stop,1000.0,850.0,4.0,,,,,,,,,orange,triangle
0.0,3.0,2.0,0.0,5.0,5.0,446.9721149998804,5.0,1.0,phase_2,go,1000.0,900.0,1.0,,,,,,,,,magenta,I
0.0,3.0,2.0,0.0,6.0,6.0,976.3668000000508,5.0,1.0,phase_2,go,1000.0,900.0,1.0,,,,,,,,,magenta,I
0.0,3.0,2.0,0.0,6.0,6.0,1288.2798430000548,5.0,1.0,phase_2,go,1000.0,900.0,1.0,,,,,,,,,magenta,I
0.0,6.0,1.0,1.0,5.0,0.0,0.0,5.0,1.0,phase_2,stop,1000.0,900.0,4.0,,,,,,,,,green,cross
0.0,6.0,1.0,1.0,6.0,6.0,1036.858809000023,5.0,1.0,phase_2,stop,1050.0,900.0,3.0,,,,,,,,,green,cross
0.0,1.0,0.5,0.0,5.0,5.0,1173.2404140002473,5.0,1.0,phase_2,go,1050.0,850.0,1.0,,,,,,,,,blue,hexagon
0.0,8.0,4.0,1.0,6.0,0.0,0.0,5.0,1.0,phase_2,stop,1050.0,850.0,4.0,,,,,,,,,yellow,square
0.0,5.0,0.5,1.0,6.0,6.0,977.8810910001994,5.0,1.0,phase_2,stop,1050.0,900.0,3.0,,,,,,,,,orange,triangle
0.0,3.0,2.0,0.0,5.0,5.0,1144.6808939999755,5.0,1.0,phase_2,go,1050.0,850.0,1.0,,,,,,,,,magenta,I
0.0,8.0,4.0,1.0,5.0,5.0,1058.2382810002855,6.0,1.0,phase_2,go,1050.0,850.0,1.0,,,,,,,,,yellow,square
0.0,8.0,4.0,1.0,6.0,6.0,984.3119890001616,6.0,1.0,phase_2,go,1050.0,850.0,1.0,,,,,,,,,yellow,square
0.0,5.0,0.5,1.0,5.0,0.0,0.0,6.0,1.0,phase_2,stop,1050.0,850.0,4.0,,,,,,,,,orange,triangle
0.0,4.0,4.0,0.0,6.0,6.0,493.8874889999169,6.0,1.0,phase_2,go,1100.0,850.0,1.0,,,,,,,,,white,circle
0.0,2.0,1.0,0.0,5.0,5.0,1264.7700970001097,6.0,1.0,phase_2,go,1100.0,850.0,1.0,,,,,,,,,cyan,flipped triangle
0.0,5.0,0.5,1.0,6.0,6.0,790.998682999998,6.0,1.0,phase_2,stop,1100.0,850.0,3.0,,,,,,,,,orange,triangle
0.0,3.0,2.0,0.0,6.0,6.0,1173.0597650002892,6.0,1.0,phase_2,go,1100.0,800.0,1.0,,,,,,,,,magenta,I
0.0,8.0,4.0,1.0,6.0,0.0,0.0,6.0,1.0,phase_2,stop,1100.0,800.0,4.0,,,,,,,,,yellow,square
0.0,4.0,4.0,0.0,5.0,5.0,976.4573980000932,6.0,1.0,phase_2,go,1100.0,850.0,1.0,,,,,,,,,white,circle
0.0,7.0,2.0,1.0,6.0,6.0,1338.893108999855,6.0,1.0,phase_2,go,1100.0,850.0,1.0,,,,,,,,,gray,diamond
0.0,8.0,4.0,1.0,5.0,0.0,0.0,6.0,1.0,phase_2,stop,1100.0,850.0,4.0,,,,,,,,,yellow,square
0.0,7.0,2.0,1.0,5.0,5.0,1161.9477950002874,6.0,1.0,phase_2,go,1150.0,850.0,1.0,,,,,,,,,gray,diamond
0.0,4.0,4.0,0.0,5.0,5.0,1327.744444000018,6.0,1.0,phase_2,go,1150.0,850.0,1.0,,,,,,,,,white,circle
0.0,8.0,4.0,1.0,6.0,0.0,0.0,6.0,1.0,phase_2,stop,1150.0,850.0,4.0,,,,,,,,,yellow,square
0.0,4.0,4.0,0.0,5.0,5.0,1061.424155000168,6.0,1.0,phase_2,go,1150.0,900.0,1.0,,,,,,,,,white,circle
0.0,6.0,1.0,1.0,5.0,0.0,0.0,6.0,1.0,phase_2,go,1150.0,900.0,5.0,,,,,,,,,green,cross
0.0,6.0,1.0,1.0,5.0,5.0,334.6462260001317,6.0,1.0,phase_2,stop,1150.0,900.0,3.0,,,,,,,,,green,cross
0.0,5.0,0.5,1.0,6.0,6.0,864.398428000186,6.0,1.0,phase_2,stop,1100.0,900.0,3.0,,,,,,,,,orange,triangle
0.0,8.0,4.0,1.0,6.0,0.0,0.0,6.0,1.0,phase_2,stop,1100.0,850.0,4.0,,,,,,,,,yellow,square
0.0,1.0,0.5,0.0,5.0,5.0,1237.0110040001236,6.0,1.0,phase_2,go,1100.0,900.0,1.0,,,,,,,,,blue,hexagon
0.0,4.0,4.0,0.0,5.0,5.0,1033.0817889998798,6.0,1.0,phase_2,go,1100.0,900.0,1.0,,,,,,,,,white,circle
0.0,2.0,1.0,0.0,5.0,5.0,1282.2452020000128,6.0,1.0,phase_2,go,1100.0,900.0,1.0,,,,,,,,,cyan,flipped triangle
0.0,8.0,4.0,1.0,6.0,6.0,1088.0523749997335,6.0,1.0,phase_2,go,1100.0,900.0,1.0,,,,,,,,,yellow,square
0.0,3.0,2.0,0.0,5.0,5.0,1247.346251000181,6.0,1.0,phase_2,go,1100.0,900.0,1.0,,,,,,,,,magenta,I
0.0,4.0,4.0,0.0,6.0,6.0,1359.2327299998033,6.0,1.0,phase_2,go,1100.0,900.0,1.0,,,,,,,,,white,circle
0.0,3.0,2.0,0.0,6.0,6.0,1310.055643999931,6.0,1.0,phase_2,go,1100.0,900.0,1.0,,,,,,,,,magenta,I
0.0,8.0,4.0,1.0,6.0,0.0,0.0,6.0,1.0,phase_2,go,1100.0,900.0,5.0,,,,,,,,,yellow,square
0.0,2.0,1.0,0.0,5.0,5.0,1220.2358519998595,6.0,1.0,phase_2,go,1100.0,900.0,1.0,,,,,,,,,cyan,flipped triangle
0.0,5.0,0.5,1.0,5.0,5.0,1149.2454120002549,6.0,1.0,phase_2,stop,1100.0,900.0,3.0,,,,,,,,,orange,triangle
0.0,4.0,4.0,0.0,6.0,0.0,0.0,6.0,1.0,phase_2,go,1050.0,900.0,5.0,,,,,,,,,white,circle
0.0,5.0,0.5,1.0,6.0,0.0,0.0,6.0,1.0,phase_2,stop,1050.0,900.0,4.0,,,,,,,,,orange,triangle
0.0,1.0,0.5,0.0,6.0,6.0,951.7717419998916,6.0,1.0,phase_2,go,1050.0,950.0,1.0,,,,,,,,,blue,hexagon
0.0,3.0,2.0,0.0,6.0,6.0,1246.5881789999005,6.0,1.0,phase_2,go,1050.0,950.0,1.0,,,,,,,,,magenta,I
0.0,3.0,2.0,0.0,5.0,5.0,1475.9538190000967,6.0,1.0,phase_2,go,1050.0,950.0,1.0,,,,,,,,,magenta,I
0.0,1.0,0.5,0.0,5.0,5.0,673.0724809999629,6.0,1.0,phase_2,go,1050.0,950.0,1.0,,,,,,,,,blue,hexagon
0.0,7.0,2.0,1.0,5.0,5.0,1081.0307229999123,6.0,1.0,phase_2,stop,1050.0,950.0,3.0,,,,,,,,,gray,diamond
0.0,2.0,1.0,0.0,6.0,6.0,456.3761800000065,7.0,1.0,phase_2,go,1000.0,950.0,1.0,,,,,,,,,cyan,flipped triangle
0.0,2.0,1.0,0.0,6.0,6.0,343.1922120003037,7.0,1.0,phase_2,go,1000.0,950.0,1.0,,,,,,,,,cyan,flipped triangle
0.0,6.0,1.0,1.0,5.0,5.0,657.9839880000691,7.0,1.0,phase_2,stop,1000.0,950.0,3.0,,,,,,,,,green,cross
0.0,3.0,2.0,0.0,6.0,6.0,1142.9284400001052,7.0,1.0,phase_2,go,950.0,950.0,1.0,,,,,,,,,magenta,I
0.0,1.0,0.5,0.0,5.0,5.0,851.9428609997703,7.0,1.0,phase_2,go,950.0,950.0,1.0,,,,,,,,,blue,hexagon
0.0,2.0,1.0,0.0,5.0,5.0,968.2212190000428,7.0,1.0,phase_2,go,950.0,950.0,1.0,,,,,,,,,cyan,flipped triangle
0.0,4.0,4.0,0.0,6.0,6.0,723.4805699999924,7.0,1.0,phase_2,go,950.0,950.0,1.0,,,,,,,,,white,circle
0.0,6.0,1.0,1.0,5.0,5.0,1013.4490930004176,7.0,1.0,phase_2,stop,950.0,950.0,3.0,,,,,,,,,green,cross
0.0,3.0,2.0,0.0,6.0,6.0,1106.0533580002812,7.0,1.0,phase_2,go,900.0,950.0,1.0,,,,,,,,,magenta,I
0.0,6.0,1.0,1.0,6.0,6.0,1263.854738000191,7.0,1.0,phase_2,go,900.0,950.0,1.0,,,,,,,,,green,cross
0.0,3.0,2.0,0.0,5.0,5.0,1057.304282000132,7.0,1.0,phase_2,go,900.0,950.0,1.0,,,,,,,,,magenta,I
0.0,2.0,1.0,0.0,6.0,6.0,1080.1346220000596,7.0,1.0,phase_2,go,900.0,950.0,1.0,,,,,,,,,cyan,flipped triangle
0.0,7.0,2.0,1.0,6.0,6.0,1215.7888909996473,7.0,1.0,phase_2,go,900.0,950.0,1.0,,,,,,,,,gray,diamond
0.0,7.0,2.0,1.0,6.0,6.0,1099.154192000242,7.0,1.0,phase_2,stop,900.0,950.0,3.0,,,,,,,,,gray,diamond
0.0,6.0,1.0,1.0,5.0,5.0,935.9744399998816,7.0,1.0,phase_2,stop,900.0,900.0,3.0,,,,,,,,,green,cross
0.0,3.0,2.0,0.0,5.0,5.0,1338.9081360001,7.0,1.0,phase_2,go,850.0,900.0,1.0,,,,,,,,,magenta,I
0.0,1.0,0.5,0.0,6.0,6.0,1353.90810600029,7.0,1.0,phase_2,go,850.0,900.0,1.0,,,,,,,,,blue,hexagon
0.0,7.0,2.0,1.0,6.0,0.0,0.0,7.0,1.0,phase_2,stop,850.0,900.0,4.0,,,,,,,,,gray,diamond
0.0,7.0,2.0,1.0,6.0,0.0,0.0,7.0,1.0,phase_2,stop,850.0,950.0,4.0,,,,,,,,,gray,diamond
0.0,2.0,1.0,0.0,6.0,6.0,853.1792980002137,7.0,1.0,phase_2,go,850.0,1000.0,1.0,,,,,,,,,cyan,flipped triangle
0.0,8.0,4.0,1.0,6.0,6.0,1065.9735700000963,7.0,1.0,phase_2,stop,850.0,1000.0,3.0,,,,,,,,,yellow,square
0.0,3.0,2.0,0.0,6.0,6.0,1101.773157000025,7.0,1.0,phase_2,go,850.0,950.0,1.0,,,,,,,,,magenta,I
0.0,6.0,1.0,1.0,5.0,5.0,1179.0114400000675,7.0,1.0,phase_2,go,850.0,950.0,1.0,,,,,,,,,green,cross
0.0,3.0,2.0,0.0,5.0,5.0,1094.3664269998408,7.0,1.0,phase_2,go,850.0,950.0,1.0,,,,,,,,,magenta,I
0.0,3.0,2.0,0.0,6.0,6.0,1383.8709060000838,7.0,1.0,phase_2,go,850.0,950.0,1.0,,,,,,,,,magenta,I
0.0,7.0,2.0,1.0,5.0,5.0,1300.5202429999372,7.0,1.0,phase_2,go,850.0,950.0,1.0,,,,,,,,,gray,diamond
0.0,4.0,4.0,0.0,6.0,6.0,1396.3115690003178,7.0,1.0,phase_2,go,850.0,950.0,1.0,,,,,,,,,white,circle
0.0,4.0,4.0,0.0,6.0,6.0,1181.8734859998583,7.0,1.0,phase_2,go,850.0,950.0,1.0,,,,,,,,,white,circle
0.0,1.0,0.5,0.0,5.0,5.0,1196.066385999984,7.0,1.0,phase_2,go,850.0,950.0,1.0,,,,,,,,,blue,hexagon
0.0,8.0,4.0,1.0,5.0,0.0,0.0,7.0,1.0,phase_2,stop,850.0,950.0,4.0,,,,,,,,,yellow,square
0.0,8.0,4.0,1.0,5.0,0.0,0.0,7.0,1.0,phase_2,stop,900.0,950.0,4.0,,,,,,,,,yellow,square
0.0,5.0,0.5,1.0,6.0,6.0,1068.2143950002685,7.0,1.0,phase_2,go,950.0,950.0,1.0,,,,,,,,,orange,triangle
0.0,5.0,0.5,1.0,6.0,0.0,0.0,7.0,1.0,phase_2,stop,950.0,950.0,4.0,,,,,,,,,orange,triangle
0.0,8.0,4.0,1.0,5.0,5.0,1209.71502600014,7.0,1.0,phase_2,go,950.0,1000.0,1.0,,,,,,,,,yellow,square
0.0,5.0,0.5,1.0,5.0,0.0,0.0,7.0,1.0,phase_2,stop,950.0,1000.0,4.0,,,,,,,,,orange,triangle
0.0,6.0,1.0,1.0,6.0,6.0,432.4568909996742,7.0,1.0,phase_2,go,1000.0,1000.0,1.0,,,,,,,,,green,cross
0.0,4.0,4.0,0.0,5.0,5.0,884.9848849999944,8.0,1.0,phase_2,go,1000.0,1000.0,1.0,,,,,,,,,white,circle
0.0,5.0,0.5,1.0,5.0,5.0,874.8142670001471,8.0,1.0,phase_2,stop,1000.0,1000.0,3.0,,,,,,,,,orange,triangle
0.0,2.0,1.0,0.0,5.0,5.0,1136.7999340000097,8.0,1.0,phase_2,go,950.0,1000.0,1.0,,,,,,,,,cyan,flipped triangle
0.0,4.0,4.0,0.0,5.0,5.0,986.6282309999406,8.0,1.0,phase_2,go,950.0,1000.0,1.0,,,,,,,,,white,circle
0.0,1.0,0.5,0.0,5.0,5.0,1274.28837799971,8.0,1.0,phase_2,go,950.0,1000.0,1.0,,,,,,,,,blue,hexagon
0.0,7.0,2.0,1.0,5.0,0.0,0.0,8.0,1.0,phase_2,stop,950.0,1000.0,4.0,,,,,,,,,gray,diamond
0.0,5.0,0.5,1.0,5.0,0.0,0.0,8.0,1.0,phase_2,stop,1000.0,1000.0,4.0,,,,,,,,,orange,triangle
0.0,6.0,1.0,1.0,6.0,6.0,1356.9830929995987,8.0,1.0,phase_2,go,1050.0,1000.0,1.0,,,,,,,,,green,cross
0.0,8.0,4.0,1.0,5.0,5.0,1192.0796189997418,8.0,1.0,phase_2,stop,1050.0,1000.0,3.0,,,,,,,,,yellow,square
0.0,6.0,1.0,1.0,6.0,0.0,0.0,8.0,1.0,phase_2,stop,1000.0,1000.0,4.0,,,,,,,,,green,cross
0.0,5.0,0.5,1.0,6.0,0.0,0.0,8.0,1.0,phase_2,stop,1000.0,1050.0,4.0,,,,,,,,,orange,triangle
0.0,7.0,2.0,1.0,5.0,5.0,1218.0791360001422,8.0,1.0,phase_2,go,1000.0,1100.0,1.0,,,,,,,,,gray,diamond
0.0,6.0,1.0,1.0,6.0,6.0,1412.4691189999794,8.0,1.0,phase_2,go,1000.0,1100.0,1.0,,,,,,,,,green,cross
0.0,7.0,2.0,1.0,6.0,0.0,0.0,8.0,1.0,phase_2,stop,1000.0,1100.0,4.0,,,,,,,,,gray,diamond
0.0,4.0,4.0,0.0,6.0,0.0,0.0,8.0,1.0,phase_2,go,1000.0,1150.0,5.0,,,,,,,,,white,circle
0.0,2.0,1.0,0.0,6.0,6.0,951.1543880003046,8.0,1.0,phase_2,go,1000.0,1150.0,1.0,,,,,,,,,cyan,flipped triangle
0.0,5.0,0.5,1.0,5.0,5.0,1324.5561500002625,8.0,1.0,phase_2,go,1000.0,1150.0,1.0,,,,,,,,,orange,triangle
0.0,1.0,0.5,0.0,6.0,6.0,1212.2097880001093,8.0,1.0,phase_2,go,1000.0,1150.0,1.0,,,,,,,,,blue,hexagon
0.0,1.0,0.5,0.0,6.0,6.0,1109.2274190000353,8.0,1.0,phase_2,go,1000.0,1150.0,1.0,,,,,,,,,blue,hexagon
0.0,6.0,1.0,1.0,6.0,6.0,1201.8652500000826,8.0,1.0,phase_2,stop,1000.0,1150.0,3.0,,,,,,,,,green,cross
0.0,7.0,2.0,1.0,5.0,5.0,561.807902000055,8.0,1.0,phase_2,go,1000.0,1100.0,1.0,,,,,,,,,gray,diamond
0.0,8.0,4.0,1.0,5.0,5.0,963.7666930002524,8.0,1.0,phase_2,stop,1000.0,1100.0,3.0,,,,,,,,,yellow,square
0.0,7.0,2.0,1.0,6.0,6.0,646.2323999999171,8.0,1.0,phase_2,go,950.0,1100.0,1.0,,,,,,,,,gray,diamond
0.0,5.0,0.5,1.0,5.0,5.0,998.7788399998864,8.0,1.0,phase_2,stop,950.0,1100.0,3.0,,,,,,,,,orange,triangle
0.0,2.0,1.0,0.0,5.0,5.0,1053.3797830003095,8.0,1.0,phase_2,go,900.0,1100.0,1.0,,,,,,,,,cyan,flipped triangle
0.0,2.0,1.0,0.0,6.0,6.0,1135.1169409999784,8.0,1.0,phase_2,go,900.0,1100.0,1.0,,,,,,,,,cyan,flipped triangle
0.0,7.0,2.0,1.0,6.0,6.0,745.680769000046,8.0,1.0,phase_2,go,900.0,1100.0,1.0,,,,,,,,,gray,diamond
0.0,1.0,0.5,0.0,6.0,6.0,1229.4362589996126,8.0,1.0,phase_2,go,900.0,1100.0,1.0,,,,,,,,,blue,hexagon
0.0,6.0,1.0,1.0,5.0,0.0,0.0,8.0,1.0,phase_2,stop,900.0,1100.0,4.0,,,,,,,,,green,cross
0.0,8.0,4.0,1.0,5.0,0.0,0.0,8.0,1.0,phase_2,stop,950.0,1100.0,4.0,,,,,,,,,yellow,square
0.0,2.0,1.0,0.0,5.0,5.0,1115.2425290001702,8.0,1.0,phase_2,go,1000.0,1100.0,1.0,,,,,,,,,cyan,flipped triangle
0.0,6.0,1.0,1.0,5.0,0.0,0.0,8.0,1.0,phase_2,stop,1000.0,1100.0,4.0,,,,,,,,,green,cross
0.0,3.0,2.0,0.0,5.0,5.0,1041.8870880002942,8.0,1.0,phase_2,go,1050.0,1100.0,1.0,,,,,,,,,magenta,I
0.0,5.0,0.5,1.0,5.0,0.0,0.0,8.0,1.0,phase_2,stop,1050.0,1100.0,4.0,,,,,,,,,orange,triangle
0.0,8.0,4.0,1.0,5.0,0.0,0.0,8.0,1.0,phase_2,stop,1100.0,1100.0,4.0,,,,,,,,,yellow,square
0.0,5.0,0.5,1.0,6.0,0.0,0.0,8.0,1.0,phase_2,stop,1150.0,1100.0,4.0,,,,,,,,,orange,triangle
0.0,1.0,0.5,0.0,7.0,3.0,4953.6353779999445,1.0,1.0,phase_3,,,,,348.0,3.0,232.0,580.0,348.0,696.0,116.0,464.0,blue,hexagon
0.0,1.0,0.5,0.0,7.0,4.0,2656.190312000035,1.0,1.0,phase_3,,,,,462.0,3.0,308.0,770.0,154.0,462.0,616.0,924.0,blue,hexagon
0.0,6.0,1.0,1.0,7.0,5.0,1883.49992700023,1.0,1.0,phase_3,,,,,270.0,2.0,810.0,540.0,135.0,675.0,270.0,405.0,green,cross
0.0,1.0,0.5,0.0,7.0,4.0,1613.5929580000266,1.0,1.0,phase_3,,,,,405.0,3.0,675.0,135.0,270.0,405.0,810.0,540.0,blue,hexagon
0.0,7.0,2.0,1.0,7.0,1.0,3167.5047339999765,1.0,1.0,phase_3,,,,,770.0,5.0,770.0,462.0,154.0,308.0,616.0,924.0,gray,diamond
0.0,2.0,1.0,0.0,7.0,4.0,3052.514880999752,1.0,1.0,phase_3,,,,,924.0,6.0,462.0,616.0,308.0,924.0,154.0,770.0,cyan,flipped triangle
0.0,1.0,0.5,0.0,7.0,4.0,3326.0647910001358,1.0,1.0,phase_3,,,,,576.0,3.0,192.0,384.0,1152.0,576.0,960.0,768.0,blue,hexagon
0.0,8.0,4.0,1.0,7.0,5.0,2604.50473300034,1.0,1.0,phase_3,,,,,692.0,4.0,346.0,1038.0,519.0,173.0,692.0,865.0,yellow,square
0.0,2.0,1.0,0.0,7.0,2.0,3249.6355439998297,1.0,1.0,phase_3,,,,,696.0,6.0,232.0,696.0,116.0,464.0,580.0,348.0,cyan,flipped triangle
0.0,6.0,1.0,1.0,7.0,3.0,3154.084439000144,1.0,1.0,phase_3,,,,,540.0,4.0,810.0,270.0,540.0,135.0,675.0,405.0,green,cross
0.0,4.0,4.0,0.0,7.0,6.0,1578.6379460000717,1.0,1.0,phase_3,,,,,696.0,6.0,580.0,116.0,232.0,348.0,464.0,696.0,white,circle
0.0,8.0,4.0,1.0,7.0,5.0,1652.1257150002384,1.0,1.0,phase_3,,,,,865.0,5.0,346.0,692.0,173.0,519.0,865.0,1038.0,yellow,square
0.0,5.0,0.5,1.0,7.0,2.0,1424.114260999886,1.0,1.0,phase_3,,,,,580.0,5.0,348.0,580.0,232.0,116.0,696.0,464.0,orange,triangle
0.0,5.0,0.5,1.0,7.0,1.0,3767.161677000331,1.0,1.0,phase_3,,,,,1038.0,6.0,1038.0,865.0,173.0,692.0,346.0,519.0,orange,triangle
0.0,3.0,2.0,0.0,7.0,5.0,1588.9867420000885,1.0,1.0,phase_3,,,,,1152.0,6.0,192.0,576.0,768.0,960.0,1152.0,384.0,magenta,I
0.0,8.0,4.0,1.0,7.0,2.0,1680.0100579998798,1.0,1.0,phase_3,,,,,580.0,5.0,464.0,580.0,348.0,696.0,232.0,116.0,yellow,square
0.0,8.0,4.0,1.0,7.0,3.0,1381.9154730003902,1.0,1.0,phase_3,,,,,580.0,5.0,232.0,464.0,580.0,116.0,348.0,696.0,yellow,square
0.0,2.0,1.0,0.0,7.0,4.0,1323.184934999972,1.0,1.0,phase_3,,,,,675.0,5.0,270.0,810.0,540.0,675.0,135.0,405.0,cyan,flipped triangle
0.0,7.0,2.0,1.0,7.0,3.0,1322.7674559998377,1.0,1.0,phase_3,,,,,580.0,5.0,464.0,232.0,580.0,348.0,116.0,696.0,gray,diamond
0.0,6.0,1.0,1.0,7.0,6.0,1307.9379800001334,1.0,1.0,phase_3,,,,,770.0,5.0,616.0,924.0,154.0,462.0,308.0,770.0,green,cross
0.0,3.0,2.0,0.0,7.0,4.0,1328.4139769998546,2.0,1.0,phase_3,,,,,464.0,4.0,580.0,348.0,232.0,464.0,696.0,116.0,magenta,I
0.0,7.0,2.0,1.0,7.0,2.0,1439.7523550001097,2.0,1.0,phase_3,,,,,675.0,5.0,405.0,675.0,540.0,135.0,810.0,270.0,gray,diamond
0.0,4.0,4.0,0.0,7.0,4.0,1156.802749000235,2.0,1.0,phase_3,,,,,810.0,6.0,135.0,675.0,540.0,810.0,270.0,405.0,white,circle
0.0,1.0,0.5,0.0,7.0,1.0,1891.1399730000085,2.0,1.0,phase_3,,,,,1152.0,6.0,1152.0,192.0,768.0,960.0,384.0,576.0,blue,hexagon
0.0,6.0,1.0,1.0,7.0,2.0,1752.9107939999449,2.0,1.0,phase_3,,,,,768.0,4.0,192.0,768.0,1152.0,960.0,384.0,576.0,green,cross
0.0,2.0,1.0,0.0,7.0,4.0,1116.933924000023,2.0,1.0,phase_3,,,,,1152.0,6.0,960.0,576.0,384.0,1152.0,192.0,768.0,cyan,flipped triangle
0.0,3.0,2.0,0.0,7.0,3.0,1543.0235349999748,2.0,1.0,phase_3,,,,,270.0,2.0,135.0,810.0,270.0,675.0,540.0,405.0,magenta,I
0.0,4.0,4.0,0.0,7.0,4.0,2193.760798999847,2.0,1.0,phase_3,,,,,768.0,4.0,960.0,192.0,1152.0,768.0,384.0,576.0,white,circle
0.0,7.0,2.0,1.0,7.0,2.0,1597.4836550003602,2.0,1.0,phase_3,,,,,519.0,3.0,346.0,519.0,1038.0,173.0,865.0,692.0,gray,diamond
0.0,8.0,4.0,1.0,7.0,5.0,1301.233850999779,2.0,1.0,phase_3,,,,,924.0,6.0,616.0,462.0,154.0,308.0,924.0,770.0,yellow,square
0.0,2.0,1.0,0.0,7.0,4.0,1228.3602299999077,2.0,1.0,phase_3,,,,,960.0,5.0,1152.0,768.0,576.0,960.0,384.0,192.0,cyan,flipped triangle
0.0,2.0,1.0,0.0,7.0,2.0,1532.1621829998548,2.0,1.0,phase_3,,,,,135.0,1.0,540.0,135.0,675.0,405.0,270.0,810.0,cyan,flipped triangle
0.0,8.0,4.0,1.0,7.0,5.0,1558.9288480000505,2.0,1.0,phase_3,,,,,308.0,2.0,924.0,770.0,462.0,154.0,308.0,616.0,yellow,square
0.0,2.0,1.0,0.0,7.0,3.0,1144.869956999628,2.0,1.0,phase_3,,,,,616.0,4.0,154.0,308.0,616.0,924.0,462.0,770.0,cyan,flipped triangle
0.0,4.0,4.0,0.0,7.0,2.0,1843.3353529999292,2.0,1.0,phase_3,,,,,692.0,4.0,1038.0,692.0,346.0,865.0,519.0,173.0,white,circle
0.0,8.0,4.0,1.0,7.0,5.0,1817.274462999649,2.0,1.0,phase_3,,,,,675.0,5.0,270.0,810.0,540.0,135.0,675.0,405.0,yellow,square
0.0,8.0,4.0,1.0,7.0,4.0,1479.6973480001725,2.0,1.0,phase_3,,,,,576.0,3.0,1152.0,192.0,384.0,576.0,960.0,768.0,yellow,square
0.0,4.0,4.0,0.0,7.0,2.0,1704.066722999869,2.0,1.0,phase_3,,,,,616.0,4.0,154.0,616.0,462.0,770.0,924.0,308.0,white,circle
0.0,1.0,0.5,0.0,7.0,5.0,1285.795754999981,2.0,1.0,phase_3,,,,,519.0,3.0,173.0,692.0,1038.0,346.0,519.0,865.0,blue,hexagon
0.0,7.0,2.0,1.0,7.0,3.0,1480.7745170001,2.0,1.0,phase_3,,,,,865.0,5.0,1038.0,692.0,865.0,519.0,346.0,173.0,gray,diamond
0.0,8.0,4.0,1.0,7.0,4.0,1182.014547000108,3.0,1.0,phase_3,,,,,675.0,5.0,540.0,405.0,810.0,675.0,135.0,270.0,yellow,square
0.0,3.0,2.0,0.0,7.0,2.0,1682.2867690007115,3.0,1.0,phase_3,,,,,770.0,5.0,154.0,770.0,308.0,462.0,616.0,924.0,magenta,I
0.0,4.0,4.0,0.0,7.0,4.0,1867.1222650000343,3.0,1.0,phase_3,,,,,192.0,1.0,768.0,576.0,960.0,192.0,1152.0,384.0,white,circle
0.0,2.0,1.0,0.0,7.0,3.0,1226.48857600052,3.0,1.0,phase_3,,,,,692.0,4.0,173.0,346.0,692.0,519.0,1038.0,865.0,cyan,flipped triangle
0.0,5.0,0.5,1.0,7.0,5.0,1303.3230109995202,3.0,1.0,phase_3,,,,,696.0,6.0,580.0,232.0,348.0,116.0,696.0,464.0,orange,triangle
0.0,4.0,4.0,0.0,7.0,4.0,1179.6490799997628,3.0,1.0,phase_3,,,,,675.0,5.0,270.0,810.0,540.0,675.0,405.0,135.0,white,circle
0.0,7.0,2.0,1.0,7.0,4.0,967.6014450005824,3.0,1.0,phase_3,,,,,348.0,3.0,232.0,464.0,696.0,348.0,116.0,580.0,gray,diamond
0.0,3.0,2.0,0.0,7.0,3.0,1206.5606189999016,3.0,1.0,phase_3,,,,,960.0,5.0,1152.0,576.0,960.0,768.0,192.0,384.0,magenta,I
0.0,2.0,1.0,0.0,7.0,3.0,1521.5451849999226,3.0,1.0,phase_3,,,,,692.0,4.0,1038.0,865.0,692.0,346.0,519.0,173.0,cyan,flipped triangle
0.0,6.0,1.0,1.0,7.0,3.0,1514.7262059999775,3.0,1.0,phase_3,,,,,768.0,4.0,1152.0,384.0,768.0,192.0,576.0,960.0,green,cross
0.0,4.0,4.0,0.0,7.0,5.0,1365.1346799997557,3.0,1.0,phase_3,,,,,696.0,6.0,116.0,232.0,348.0,580.0,696.0,464.0,white,circle
0.0,1.0,0.5,0.0,7.0,2.0,1565.1441190002515,3.0,1.0,phase_3,,,,,810.0,6.0,135.0,810.0,675.0,405.0,270.0,540.0,blue,hexagon
0.0,6.0,1.0,1.0,7.0,3.0,1528.9105500005462,3.0,1.0,phase_3,,,,,696.0,6.0,348.0,464.0,696.0,116.0,232.0,580.0,green,cross
0.0,6.0,1.0,1.0,7.0,3.0,2149.979290000374,3.0,1.0,phase_3,,,,,308.0,2.0,770.0,462.0,308.0,154.0,924.0,616.0,green,cross
0.0,5.0,0.5,1.0,7.0,5.0,1868.723094000416,3.0,1.0,phase_3,,,,,1152.0,6.0,960.0,768.0,384.0,192.0,1152.0,576.0,orange,triangle
0.0,6.0,1.0,1.0,7.0,4.0,1664.087410999855,3.0,1.0,phase_3,,,,,692.0,4.0,519.0,346.0,173.0,692.0,865.0,1038.0,green,cross
0.0,6.0,1.0,1.0,7.0,2.0,1307.1648020004432,3.0,1.0,phase_3,,,,,696.0,6.0,116.0,696.0,348.0,232.0,464.0,580.0,green,cross
0.0,3.0,2.0,0.0,7.0,5.0,1329.5370450005066,3.0,1.0,phase_3,,,,,692.0,4.0,865.0,1038.0,519.0,346.0,692.0,173.0,magenta,I
0.0,3.0,2.0,0.0,7.0,4.0,1456.7710520004766,3.0,1.0,phase_3,,,,,810.0,6.0,675.0,135.0,270.0,810.0,540.0,405.0,magenta,I
0.0,3.0,2.0,0.0,7.0,2.0,1301.7569849998836,3.0,1.0,phase_3,,,,,770.0,5.0,616.0,770.0,462.0,308.0,154.0,924.0,magenta,I
0.0,4.0,4.0,0.0,7.0,4.0,1014.7617579996222,4.0,1.0,phase_3,,,,,173.0,1.0,1038.0,692.0,346.0,173.0,519.0,865.0,white,circle
0.0,6.0,1.0,1.0,7.0,1.0,1147.6477010000965,4.0,1.0,phase_3,,,,,865.0,5.0,865.0,346.0,1038.0,519.0,692.0,173.0,green,cross
0.0,1.0,0.5,0.0,7.0,2.0,1891.9694460000755,4.0,1.0,phase_3,,,,,616.0,4.0,770.0,616.0,154.0,308.0,462.0,924.0,blue,hexagon
0.0,3.0,2.0,0.0,7.0,4.0,1154.1781389996686,4.0,1.0,phase_3,,,,,232.0,2.0,696.0,116.0,348.0,232.0,580.0,464.0,magenta,I
0.0,2.0,1.0,0.0,7.0,5.0,941.7243920006512,4.0,1.0,phase_3,,,,,696.0,6.0,348.0,116.0,232.0,580.0,696.0,464.0,cyan,flipped triangle
0.0,7.0,2.0,1.0,7.0,3.0,1202.0508249997874,4.0,1.0,phase_3,,,,,616.0,4.0,770.0,308.0,616.0,154.0,924.0,462.0,gray,diamond
0.0,1.0,0.5,0.0,7.0,4.0,1107.1182719997523,4.0,1.0,phase_3,,,,,692.0,4.0,865.0,1038.0,519.0,692.0,173.0,346.0,blue,hexagon
0.0,8.0,4.0,1.0,7.0,3.0,1831.8747679995795,4.0,1.0,phase_3,,,,,960.0,5.0,576.0,768.0,960.0,384.0,1152.0,192.0,yellow,square
0.0,5.0,0.5,1.0,7.0,2.0,1239.7651219998806,4.0,1.0,phase_3,,,,,675.0,5.0,540.0,675.0,135.0,270.0,405.0,810.0,orange,triangle
0.0,1.0,0.5,0.0,7.0,3.0,1339.2871840005682,4.0,1.0,phase_3,,,,,580.0,5.0,116.0,464.0,580.0,232.0,348.0,696.0,blue,hexagon
0.0,5.0,0.5,1.0,7.0,3.0,1089.029701999607,4.0,1.0,phase_3,,,,,616.0,4.0,924.0,770.0,616.0,462.0,154.0,308.0,orange,triangle
0.0,3.0,2.0,0.0,7.0,5.0,1367.0520149998993,4.0,1.0,phase_3,,,,,519.0,3.0,1038.0,173.0,865.0,346.0,519.0,692.0,magenta,I
0.0,5.0,0.5,1.0,7.0,2.0,1164.0556429993012,4.0,1.0,phase_3,,,,,768.0,4.0,576.0,768.0,192.0,960.0,384.0,1152.0,orange,triangle
0.0,4.0,4.0,0.0,7.0,4.0,1117.1411240002271,4.0,1.0,phase_3,,,,,616.0,4.0,924.0,154.0,308.0,616.0,462.0,770.0,white,circle
0.0,7.0,2.0,1.0,7.0,3.0,1383.6988330003803,4.0,1.0,phase_3,,,,,1152.0,6.0,384.0,576.0,1152.0,960.0,768.0,192.0,gray,diamond
0.0,5.0,0.5,1.0,7.0,5.0,938.7520109994512,4.0,1.0,phase_3,,,,,540.0,4.0,405.0,135.0,270.0,675.0,540.0,810.0,orange,triangle
0.0,5.0,0.5,1.0,7.0,6.0,1073.4236309999687,4.0,1.0,phase_3,,,,,770.0,5.0,462.0,616.0,308.0,924.0,154.0,770.0,orange,triangle
0.0,5.0,0.5,1.0,7.0,4.0,970.8895229996416,4.0,1.0,phase_3,,,,,865.0,5.0,346.0,692.0,1038.0,865.0,519.0,173.0,orange,triangle
0.0,7.0,2.0,1.0,7.0,5.0,996.6663300001528,4.0,1.0,phase_3,,,,,1152.0,6.0,384.0,576.0,960.0,192.0,1152.0,768.0,gray,diamond
0.0,7.0,2.0,1.0,7.0,2.0,1033.933220000108,4.0,1.0,phase_3,,,,,540.0,4.0,810.0,540.0,675.0,405.0,270.0,135.0,gray,diamond
