raw_reward_magnitude,stim_reward,stepwise_reward_magnitude,paired_with_stopping,stim_location,response,reaction_time,block,num_trial_presentations,which_phase,stop_signal_trial_type,left_SSD,right_SSD,accuracy,chosen_bidding_amount,chosen_bidding_level,possible_bid_1,possible_bid_2,possible_bid_3,possible_bid_4,possible_bid_5,possible_bid_6,color_text,shape_text
1286.0,4.0,4.0,0.0,1.0,1.0,408.8562270001148,1.0,1.0,phase_1,,,,,,,,,,,,,green,hexagon
652.0,3.0,2.0,0.0,2.0,2.0,316.8903419998514,1.0,1.0,phase_1,,,,,,,,,,,,,white,diamond
327.0,6.0,1.0,1.0,1.0,1.0,371.2601069998982,1.0,1.0,phase_1,,,,,,,,,,,,,magenta,square
0.0,7.0,0.0,1.0,2.0,2.0,297.4627639998743,1.0,1.0,phase_1,,,,,,,,,,,,,yellow,triangle
668.0,3.0,2.0,0.0,2.0,2.0,371.2795199999164,1.0,1.0,phase_1,,,,,,,,,,,,,white,diamond
1281.0,4.0,4.0,0.0,1.0,1.0,370.6842110000252,1.0,1.0,phase_1,,,,,,,,,,,,,green,hexagon
333.0,2.0,1.0,0.0,2.0,2.0,306.0928810000405,1.0,1.0,phase_1,,,,,,,,,,,,,blue,flipped triangle
0.0,1.0,0.0,0.0,3.0,3.0,352.0226550001553,1.0,1.0,phase_1,,,,,,,,,,,,,cyan,circle
0.0,5.0,0.0,1.0,3.0,3.0,306.312453000146,1.0,1.0,phase_1,,,,,,,,,,,,,orange,I
1293.0,4.0,4.0,0.0,1.0,1.0,306.4461159999609,1.0,1.0,phase_1,,,,,,,,,,,,,green,hexagon
175.0,5.0,0.5,1.0,3.0,3.0,297.1329540000624,1.0,1.0,phase_1,,,,,,,,,,,,,orange,I
0.0,7.0,0.0,1.0,1.0,1.0,269.6778419999646,1.0,1.0,phase_1,,,,,,,,,,,,,yellow,triangle
626.0,3.0,2.0,0.0,1.0,1.0,371.5386730000318,1.0,1.0,phase_1,,,,,,,,,,,,,white,diamond
0.0,4.0,0.0,0.0,3.0,3.0,343.4000299998843,1.0,1.0,phase_1,,,,,,,,,,,,,green,hexagon
654.0,3.0,2.0,0.0,3.0,3.0,371.3294870001391,1.0,1.0,phase_1,,,,,,,,,,,,,white,diamond
180.0,5.0,0.5,1.0,3.0,3.0,333.6944979998861,1.0,1.0,phase_1,,,,,,,,,,,,,orange,I
653.0,3.0,2.0,0.0,2.0,2.0,315.6216300001233,1.0,1.0,phase_1,,,,,,,,,,,,,white,diamond
0.0,6.0,0.0,1.0,1.0,1.0,398.7118840000221,1.0,1.0,phase_1,,,,,,,,,,,,,magenta,square
0.0,1.0,0.0,0.0,2.0,2.0,297.6392850000593,1.0,1.0,phase_1,,,,,,,,,,,,,cyan,circle
341.0,6.0,1.0,1.0,2.0,2.0,454.1269510000347,1.0,1.0,phase_1,,,,,,,,,,,,,magenta,square
669.0,3.0,2.0,0.0,3.0,3.0,352.7297050000015,1.0,1.0,phase_1,,,,,,,,,,,,,white,diamond
0.0,8.0,0.0,1.0,1.0,1.0,287.2990349999327,1.0,1.0,phase_1,,,,,,,,,,,,,gray,cross
319.0,6.0,1.0,1.0,3.0,3.0,306.4823899999283,1.0,1.0,phase_1,,,,,,,,,,,,,magenta,square
1279.0,4.0,4.0,0.0,2.0,2.0,296.471363999899,1.0,1.0,phase_1,,,,,,,,,,,,,green,hexagon
674.0,7.0,2.0,1.0,4.0,4.0,307.4813749999521,1.0,1.0,phase_1,,,,,,,,,,,,,yellow,triangle
307.0,6.0,1.0,1.0,3.0,3.0,297.4085829998785,1.0,1.0,phase_1,,,,,,,,,,,,,magenta,square
154.0,1.0,0.5,0.0,2.0,2.0,260.7341479999832,1.0,1.0,phase_1,,,,,,,,,,,,,cyan,circle
1299.0,8.0,4.0,1.0,3.0,3.0,352.0935779999945,1.0,1.0,phase_1,,,,,,,,,,,,,gray,cross
1315.0,8.0,4.0,1.0,4.0,4.0,315.3129219999755,1.0,1.0,phase_1,,,,,,,,,,,,,gray,cross
317.0,6.0,1.0,1.0,2.0,2.0,287.9424830000516,1.0,1.0,phase_1,,,,,,,,,,,,,magenta,square
0.0,1.0,0.0,0.0,3.0,3.0,315.7662779999555,1.0,1.0,phase_1,,,,,,,,,,,,,cyan,circle
1290.0,4.0,4.0,0.0,3.0,3.0,344.5022089999838,1.0,1.0,phase_1,,,,,,,,,,,,,green,hexagon
168.0,1.0,0.5,0.0,4.0,4.0,306.2188609999339,1.0,1.0,phase_1,,,,,,,,,,,,,cyan,circle
1303.0,4.0,4.0,0.0,4.0,4.0,315.4042230000868,1.0,1.0,phase_1,,,,,,,,,,,,,green,hexagon
348.0,2.0,1.0,0.0,4.0,4.0,342.7622950000568,1.0,1.0,phase_1,,,,,,,,,,,,,blue,flipped triangle
159.0,5.0,0.5,1.0,4.0,4.0,271.0342609998406,1.0,1.0,phase_1,,,,,,,,,,,,,orange,I
0.0,6.0,0.0,1.0,2.0,2.0,342.5400950000039,1.0,1.0,phase_1,,,,,,,,,,,,,magenta,square
178.0,1.0,0.5,0.0,4.0,4.0,286.9977590000871,1.0,1.0,phase_1,,,,,,,,,,,,,cyan,circle
1295.0,8.0,4.0,1.0,2.0,2.0,315.4839960000117,1.0,1.0,phase_1,,,,,,,,,,,,,gray,cross
0.0,4.0,0.0,0.0,1.0,1.0,287.0622600000843,1.0,1.0,phase_1,,,,,,,,,,,,,green,hexagon
332.0,6.0,1.0,1.0,1.0,1.0,315.9265419999428,1.0,1.0,phase_1,,,,,,,,,,,,,magenta,square
1307.0,8.0,4.0,1.0,1.0,1.0,334.4604479998452,1.0,1.0,phase_1,,,,,,,,,,,,,gray,cross
152.0,1.0,0.5,0.0,4.0,4.0,297.2279030000209,1.0,1.0,phase_1,,,,,,,,,,,,,cyan,circle
313.0,6.0,1.0,1.0,1.0,1.0,279.0430840000226,1.0,1.0,phase_1,,,,,,,,,,,,,magenta,square
320.0,6.0,1.0,1.0,1.0,1.0,288.0275790000723,1.0,1.0,phase_1,,,,,,,,,,,,,magenta,square
0.0,1.0,0.0,0.0,1.0,1.0,287.6817259998461,1.0,1.0,phase_1,,,,,,,,,,,,,cyan,circle
1288.0,8.0,4.0,1.0,2.0,2.0,435.4164469998522,1.0,1.0,phase_1,,,,,,,,,,,,,gray,cross
1318.0,8.0,4.0,1.0,4.0,4.0,269.1532200001347,1.0,1.0,phase_1,,,,,,,,,,,,,gray,cross
631.0,7.0,2.0,1.0,4.0,4.0,278.7745799998902,1.0,1.0,phase_1,,,,,,,,,,,,,yellow,triangle
174.0,1.0,0.5,0.0,4.0,4.0,296.6392339999402,1.0,1.0,phase_1,,,,,,,,,,,,,cyan,circle
315.0,2.0,1.0,0.0,1.0,1.0,288.8232909999715,1.0,1.0,phase_1,,,,,,,,,,,,,blue,flipped triangle
348.0,6.0,1.0,1.0,2.0,2.0,278.7522390001413,1.0,1.0,phase_1,,,,,,,,,,,,,magenta,square
161.0,1.0,0.5,0.0,3.0,3.0,324.4296410000515,1.0,1.0,phase_1,,,,,,,,,,,,,cyan,circle
1277.0,4.0,4.0,0.0,3.0,3.0,333.9669320000666,1.0,1.0,phase_1,,,,,,,,,,,,,green,hexagon
0.0,5.0,0.0,1.0,3.0,3.0,315.7128709999597,1.0,1.0,phase_1,,,,,,,,,,,,,orange,I
0.0,6.0,0.0,1.0,2.0,2.0,287.639616999968,1.0,1.0,phase_1,,,,,,,,,,,,,magenta,square
1290.0,8.0,4.0,1.0,3.0,3.0,325.0706769999851,1.0,1.0,phase_1,,,,,,,,,,,,,gray,cross
317.0,2.0,1.0,0.0,4.0,4.0,316.7576799999096,1.0,1.0,phase_1,,,,,,,,,,,,,blue,flipped triangle
341.0,2.0,1.0,0.0,3.0,3.0,352.8292959999817,1.0,1.0,phase_1,,,,,,,,,,,,,blue,flipped triangle
172.0,5.0,0.5,1.0,4.0,4.0,305.9773609998046,1.0,1.0,phase_1,,,,,,,,,,,,,orange,I
150.0,1.0,0.5,0.0,1.0,1.0,389.7170500001721,1.0,1.0,phase_1,,,,,,,,,,,,,cyan,circle
1290.0,4.0,4.0,0.0,3.0,3.0,352.5697289999243,1.0,1.0,phase_1,,,,,,,,,,,,,green,hexagon
0.0,3.0,0.0,0.0,4.0,4.0,278.2045779999862,1.0,1.0,phase_1,,,,,,,,,,,,,white,diamond
327.0,2.0,1.0,0.0,1.0,1.0,287.7121579999766,1.0,1.0,phase_1,,,,,,,,,,,,,blue,flipped triangle
343.0,6.0,1.0,1.0,1.0,1.0,287.0943119999083,1.0,1.0,phase_1,,,,,,,,,,,,,magenta,square
1275.0,8.0,4.0,1.0,3.0,3.0,324.4608649999918,1.0,1.0,phase_1,,,,,,,,,,,,,gray,cross
1288.0,4.0,4.0,0.0,4.0,4.0,251.0127450000254,1.0,1.0,phase_1,,,,,,,,,,,,,green,hexagon
168.0,1.0,0.5,0.0,1.0,1.0,240.6637630001569,1.0,1.0,phase_1,,,,,,,,,,,,,cyan,circle
341.0,6.0,1.0,1.0,4.0,4.0,297.3490689998925,1.0,1.0,phase_1,,,,,,,,,,,,,magenta,square
184.0,1.0,0.5,0.0,3.0,3.0,381.8238779999774,1.0,1.0,phase_1,,,,,,,,,,,,,cyan,circle
155.0,1.0,0.5,0.0,2.0,2.0,315.6699700000445,1.0,1.0,phase_1,,,,,,,,,,,,,cyan,circle
0.0,4.0,0.0,0.0,2.0,2.0,278.4088990001692,1.0,1.0,phase_1,,,,,,,,,,,,,green,hexagon
1286.0,8.0,4.0,1.0,3.0,3.0,343.4406839999155,1.0,1.0,phase_1,,,,,,,,,,,,,gray,cross
1324.0,8.0,4.0,1.0,3.0,3.0,343.8622879998547,1.0,1.0,phase_1,,,,,,,,,,,,,gray,cross
0.0,7.0,0.0,1.0,3.0,3.0,325.8458479999717,1.0,1.0,phase_1,,,,,,,,,,,,,yellow,triangle
154.0,5.0,0.5,1.0,2.0,2.0,297.3451049999767,1.0,1.0,phase_1,,,,,,,,,,,,,orange,I
1308.0,4.0,4.0,0.0,4.0,4.0,325.3955010000027,1.0,1.0,phase_1,,,,,,,,,,,,,green,hexagon
158.0,1.0,0.5,0.0,1.0,1.0,390.3574979999575,1.0,1.0,phase_1,,,,,,,,,,,,,cyan,circle
339.0,6.0,1.0,1.0,3.0,3.0,315.984028999992,1.0,1.0,phase_1,,,,,,,,,,,,,magenta,square
0.0,6.0,0.0,1.0,1.0,1.0,324.4810059998144,1.0,1.0,phase_1,,,,,,,,,,,,,magenta,square
311.0,6.0,1.0,1.0,1.0,1.0,317.0372570000381,1.0,1.0,phase_1,,,,,,,,,,,,,magenta,square
1285.0,8.0,4.0,1.0,4.0,4.0,326.4500469999802,1.0,1.0,phase_1,,,,,,,,,,,,,gray,cross
149.0,1.0,0.5,0.0,3.0,3.0,365.0277079998432,1.0,1.0,phase_1,,,,,,,,,,,,,cyan,circle
149.0,5.0,0.5,1.0,2.0,2.0,288.6194980001164,1.0,1.0,phase_1,,,,,,,,,,,,,orange,I
674.0,3.0,2.0,0.0,4.0,4.0,316.1607059998914,1.0,1.0,phase_1,,,,,,,,,,,,,white,diamond
328.0,2.0,1.0,0.0,4.0,4.0,379.7398859999248,1.0,1.0,phase_1,,,,,,,,,,,,,blue,flipped triangle
315.0,6.0,1.0,1.0,2.0,2.0,352.2658389999833,1.0,1.0,phase_1,,,,,,,,,,,,,magenta,square
319.0,2.0,1.0,0.0,4.0,4.0,399.1372620000675,1.0,1.0,phase_1,,,,,,,,,,,,,blue,flipped triangle
1315.0,8.0,4.0,1.0,1.0,1.0,287.182692999977,1.0,1.0,phase_1,,,,,,,,,,,,,gray,cross
0.0,4.0,0.0,0.0,1.0,1.0,307.0020679999743,1.0,1.0,phase_1,,,,,,,,,,,,,green,hexagon
329.0,6.0,1.0,1.0,4.0,4.0,463.2811049998508,1.0,1.0,phase_1,,,,,,,,,,,,,magenta,square
0.0,6.0,0.0,1.0,1.0,1.0,390.4122019998794,1.0,1.0,phase_1,,,,,,,,,,,,,magenta,square
175.0,1.0,0.5,0.0,1.0,1.0,504.20749399995657,1.0,1.0,phase_1,,,,,,,,,,,,,cyan,circle
184.0,5.0,0.5,1.0,4.0,4.0,343.5602039999139,1.0,1.0,phase_1,,,,,,,,,,,,,orange,I
179.0,5.0,0.5,1.0,3.0,3.0,333.9660169999661,1.0,1.0,phase_1,,,,,,,,,,,,,orange,I
171.0,1.0,0.5,0.0,2.0,2.0,360.7240760002241,1.0,1.0,phase_1,,,,,,,,,,,,,cyan,circle
0.0,3.0,0.0,0.0,1.0,1.0,315.9155170001213,1.0,1.0,phase_1,,,,,,,,,,,,,white,diamond
0.0,7.0,0.0,1.0,3.0,3.0,315.0621770000725,1.0,1.0,phase_1,,,,,,,,,,,,,yellow,triangle
1317.0,4.0,4.0,0.0,4.0,4.0,262.7465399998527,1.0,1.0,phase_1,,,,,,,,,,,,,green,hexagon
1305.0,8.0,4.0,1.0,1.0,1.0,268.2596499998908,1.0,1.0,phase_1,,,,,,,,,,,,,gray,cross
0.0,3.0,0.0,0.0,1.0,1.0,501.3804389998313,2.0,1.0,phase_1,,,,,,,,,,,,,white,diamond
1290.0,8.0,4.0,1.0,4.0,4.0,344.4997480000893,2.0,1.0,phase_1,,,,,,,,,,,,,gray,cross
659.0,3.0,2.0,0.0,2.0,2.0,261.5469639999901,2.0,1.0,phase_1,,,,,,,,,,,,,white,diamond
183.0,1.0,0.5,0.0,3.0,3.0,343.4587550000287,2.0,1.0,phase_1,,,,,,,,,,,,,cyan,circle
638.0,3.0,2.0,0.0,1.0,1.0,279.7478799998316,2.0,1.0,phase_1,,,,,,,,,,,,,white,diamond
1281.0,4.0,4.0,0.0,1.0,1.0,353.6292569999659,2.0,1.0,phase_1,,,,,,,,,,,,,green,hexagon
668.0,7.0,2.0,1.0,4.0,4.0,409.0468099998361,2.0,1.0,phase_1,,,,,,,,,,,,,yellow,triangle
1277.0,8.0,4.0,1.0,3.0,3.0,381.7225510001663,2.0,1.0,phase_1,,,,,,,,,,,,,gray,cross
309.0,6.0,1.0,1.0,4.0,4.0,313.4345920000214,2.0,1.0,phase_1,,,,,,,,,,,,,magenta,square
149.0,1.0,0.5,0.0,1.0,1.0,232.7926980001393,2.0,1.0,phase_1,,,,,,,,,,,,,cyan,circle
168.0,5.0,0.5,1.0,2.0,2.0,280.0614579998637,2.0,1.0,phase_1,,,,,,,,,,,,,orange,I
348.0,2.0,1.0,0.0,3.0,3.0,316.6189040000517,2.0,1.0,phase_1,,,,,,,,,,,,,blue,flipped triangle
176.0,1.0,0.5,0.0,1.0,1.0,353.7677389999771,2.0,1.0,phase_1,,,,,,,,,,,,,cyan,circle
332.0,2.0,1.0,0.0,1.0,1.0,334.1737289999855,2.0,1.0,phase_1,,,,,,,,,,,,,blue,flipped triangle
1324.0,4.0,4.0,0.0,4.0,4.0,269.4714409999506,2.0,1.0,phase_1,,,,,,,,,,,,,green,hexagon
0.0,8.0,0.0,1.0,2.0,2.0,334.6970820000479,2.0,1.0,phase_1,,,,,,,,,,,,,gray,cross
168.0,5.0,0.5,1.0,1.0,1.0,344.3436929999279,2.0,1.0,phase_1,,,,,,,,,,,,,orange,I
1310.0,4.0,4.0,0.0,3.0,3.0,336.4348389998213,2.0,1.0,phase_1,,,,,,,,,,,,,green,hexagon
0.0,3.0,0.0,0.0,3.0,3.0,354.6097949999875,2.0,1.0,phase_1,,,,,,,,,,,,,white,diamond
649.0,7.0,2.0,1.0,4.0,4.0,287.230665999914,2.0,1.0,phase_1,,,,,,,,,,,,,yellow,triangle
315.0,6.0,1.0,1.0,1.0,1.0,259.9369819999992,2.0,1.0,phase_1,,,,,,,,,,,,,magenta,square
1307.0,4.0,4.0,0.0,1.0,1.0,334.195346000115,2.0,1.0,phase_1,,,,,,,,,,,,,green,hexagon
660.0,3.0,2.0,0.0,4.0,4.0,399.8482370000147,2.0,1.0,phase_1,,,,,,,,,,,,,white,diamond
316.0,6.0,1.0,1.0,1.0,1.0,334.8543360000349,2.0,1.0,phase_1,,,,,,,,,,,,,magenta,square
0.0,3.0,0.0,0.0,4.0,4.0,324.981310999874,2.0,1.0,phase_1,,,,,,,,,,,,,white,diamond
652.0,7.0,2.0,1.0,1.0,1.0,279.2376150000564,2.0,1.0,phase_1,,,,,,,,,,,,,yellow,triangle
1324.0,4.0,4.0,0.0,4.0,4.0,294.3841800001792,2.0,1.0,phase_1,,,,,,,,,,,,,green,hexagon
1299.0,4.0,4.0,0.0,4.0,4.0,279.741703999889,2.0,1.0,phase_1,,,,,,,,,,,,,green,hexagon
174.0,5.0,0.5,1.0,2.0,2.0,400.5140120000305,2.0,1.0,phase_1,,,,,,,,,,,,,orange,I
660.0,7.0,2.0,1.0,3.0,3.0,288.0579150000812,2.0,1.0,phase_1,,,,,,,,,,,,,yellow,triangle
138.0,5.0,0.5,1.0,1.0,1.0,307.36508200016027,2.0,1.0,phase_1,,,,,,,,,,,,,orange,I
0.0,2.0,0.0,0.0,2.0,2.0,334.7603569998227,2.0,1.0,phase_1,,,,,,,,,,,,,blue,flipped triangle
0.0,3.0,0.0,0.0,2.0,2.0,306.6294759998982,2.0,1.0,phase_1,,,,,,,,,,,,,white,diamond
140.0,5.0,0.5,1.0,4.0,4.0,288.4887379998417,2.0,1.0,phase_1,,,,,,,,,,,,,orange,I
1323.0,4.0,4.0,0.0,4.0,4.0,344.7433589999491,2.0,1.0,phase_1,,,,,,,,,,,,,green,hexagon
0.0,4.0,0.0,0.0,3.0,3.0,335.4090709999582,2.0,1.0,phase_1,,,,,,,,,,,,,green,hexagon
0.0,2.0,0.0,0.0,1.0,1.0,352.6412790001814,2.0,2.0,phase_1,,,,,,,,,,,,,blue,flipped triangle
139.0,5.0,0.5,1.0,3.0,3.0,343.6484759999985,2.0,1.0,phase_1,,,,,,,,,,,,,orange,I
634.0,7.0,2.0,1.0,1.0,1.0,306.6191949999393,2.0,1.0,phase_1,,,,,,,,,,,,,yellow,triangle
646.0,3.0,2.0,0.0,3.0,3.0,334.0569970000615,2.0,1.0,phase_1,,,,,,,,,,,,,white,diamond
1283.0,4.0,4.0,0.0,2.0,2.0,343.4964609998587,2.0,1.0,phase_1,,,,,,,,,,,,,green,hexagon
0.0,7.0,0.0,1.0,4.0,4.0,270.4090510001151,2.0,1.0,phase_1,,,,,,,,,,,,,yellow,triangle
0.0,7.0,0.0,1.0,3.0,3.0,353.5127530001318,2.0,1.0,phase_1,,,,,,,,,,,,,yellow,triangle
348.0,6.0,1.0,1.0,2.0,2.0,305.0442650001059,2.0,1.0,phase_1,,,,,,,,,,,,,magenta,square
335.0,2.0,1.0,0.0,4.0,4.0,352.9398839998521,2.0,1.0,phase_1,,,,,,,,,,,,,blue,flipped triangle
649.0,3.0,2.0,0.0,2.0,2.0,324.2605600000843,2.0,1.0,phase_1,,,,,,,,,,,,,white,diamond
1279.0,8.0,4.0,1.0,2.0,2.0,314.6731080000791,2.0,1.0,phase_1,,,,,,,,,,,,,gray,cross
1297.0,8.0,4.0,1.0,1.0,1.0,304.6500109999215,2.0,1.0,phase_1,,,,,,,,,,,,,gray,cross
0.0,7.0,0.0,1.0,4.0,4.0,297.7728930000012,2.0,1.0,phase_1,,,,,,,,,,,,,yellow,triangle
1323.0,8.0,4.0,1.0,1.0,1.0,333.8181329997951,2.0,1.0,phase_1,,,,,,,,,,,,,gray,cross
322.0,2.0,1.0,0.0,4.0,4.0,370.3751599998668,2.0,1.0,phase_1,,,,,,,,,,,,,blue,flipped triangle
0.0,8.0,0.0,1.0,3.0,3.0,333.8870489999408,2.0,1.0,phase_1,,,,,,,,,,,,,gray,cross
634.0,3.0,2.0,0.0,4.0,4.0,277.8069130001768,2.0,1.0,phase_1,,,,,,,,,,,,,white,diamond
0.0,2.0,0.0,0.0,1.0,1.0,306.3319220000267,2.0,1.0,phase_1,,,,,,,,,,,,,blue,flipped triangle
0.0,5.0,0.0,1.0,1.0,1.0,388.9637780000612,2.0,1.0,phase_1,,,,,,,,,,,,,orange,I
1323.0,8.0,4.0,1.0,4.0,4.0,316.0616299999219,2.0,1.0,phase_1,,,,,,,,,,,,,gray,cross
155.0,5.0,0.5,1.0,4.0,4.0,398.9882309999757,2.0,1.0,phase_1,,,,,,,,,,,,,orange,I
179.0,1.0,0.5,0.0,3.0,3.0,390.266666999878,2.0,1.0,phase_1,,,,,,,,,,,,,cyan,circle
158.0,5.0,0.5,1.0,1.0,1.0,411.6079700002046,2.0,2.0,phase_1,,,,,,,,,,,,,orange,I
177.0,1.0,0.5,0.0,4.0,4.0,362.2979530000521,2.0,1.0,phase_1,,,,,,,,,,,,,cyan,circle
650.0,3.0,2.0,0.0,3.0,3.0,361.3230760001897,2.0,1.0,phase_1,,,,,,,,,,,,,white,diamond
319.0,2.0,1.0,0.0,3.0,3.0,306.6399389999787,2.0,1.0,phase_1,,,,,,,,,,,,,blue,flipped triangle
171.0,5.0,0.5,1.0,2.0,2.0,390.4463889998624,2.0,1.0,phase_1,,,,,,,,,,,,,orange,I
301.0,2.0,1.0,0.0,4.0,4.0,306.7458180000812,2.0,1.0,phase_1,,,,,,,,,,,,,blue,flipped triangle
631.0,3.0,2.0,0.0,4.0,4.0,362.0723989999987,2.0,1.0,phase_1,,,,,,,,,,,,,white,diamond
337.0,2.0,1.0,0.0,1.0,1.0,380.3194510001049,2.0,1.0,phase_1,,,,,,,,,,,,,blue,flipped triangle
0.0,6.0,0.0,1.0,3.0,3.0,333.8813830000617,2.0,1.0,phase_1,,,,,,,,,,,,,magenta,square
0.0,2.0,0.0,0.0,1.0,1.0,352.1383380002589,2.0,2.0,phase_1,,,,,,,,,,,,,blue,flipped triangle
645.0,7.0,2.0,1.0,1.0,1.0,343.1230109999887,2.0,1.0,phase_1,,,,,,,,,,,,,yellow,triangle
301.0,6.0,1.0,1.0,2.0,2.0,324.9383820002549,2.0,1.0,phase_1,,,,,,,,,,,,,magenta,square
0.0,1.0,0.0,0.0,1.0,1.0,362.1069480000187,2.0,1.0,phase_1,,,,,,,,,,,,,cyan,circle
668.0,7.0,2.0,1.0,2.0,2.0,452.8892319999613,2.0,2.0,phase_1,,,,,,,,,,,,,yellow,triangle
0.0,8.0,0.0,1.0,4.0,4.0,592.9564829998526,2.0,1.0,phase_1,,,,,,,,,,,,,gray,cross
146.0,1.0,0.5,0.0,2.0,2.0,343.8796270002058,2.0,1.0,phase_1,,,,,,,,,,,,,cyan,circle
1319.0,4.0,4.0,0.0,4.0,4.0,380.7580279999456,2.0,1.0,phase_1,,,,,,,,,,,,,green,hexagon
625.0,7.0,2.0,1.0,1.0,1.0,426.9146219999129,2.0,1.0,phase_1,,,,,,,,,,,,,yellow,triangle
160.0,1.0,0.5,0.0,2.0,2.0,287.3496140000497,2.0,1.0,phase_1,,,,,,,,,,,,,cyan,circle
310.0,2.0,1.0,0.0,2.0,2.0,345.0067290000334,2.0,1.0,phase_1,,,,,,,,,,,,,blue,flipped triangle
0.0,5.0,0.0,1.0,4.0,4.0,333.3317319998059,2.0,1.0,phase_1,,,,,,,,,,,,,orange,I
307.0,2.0,1.0,0.0,2.0,2.0,398.8575349999337,2.0,1.0,phase_1,,,,,,,,,,,,,blue,flipped triangle
1314.0,4.0,4.0,0.0,2.0,2.0,325.1164510002127,2.0,1.0,phase_1,,,,,,,,,,,,,green,hexagon
650.0,7.0,2.0,1.0,4.0,4.0,288.2298079998691,2.0,1.0,phase_1,,,,,,,,,,,,,yellow,triangle
330.0,2.0,1.0,0.0,2.0,2.0,269.6630569998888,2.0,1.0,phase_1,,,,,,,,,,,,,blue,flipped triangle
645.0,3.0,2.0,0.0,2.0,2.0,371.2052430000767,2.0,1.0,phase_1,,,,,,,,,,,,,white,diamond
343.0,2.0,1.0,0.0,1.0,1.0,305.5789549998735,2.0,1.0,phase_1,,,,,,,,,,,,,blue,flipped triangle
634.0,7.0,2.0,1.0,2.0,2.0,353.7351459999627,2.0,1.0,phase_1,,,,,,,,,,,,,yellow,triangle
178.0,5.0,0.5,1.0,1.0,1.0,288.342917999671,2.0,1.0,phase_1,,,,,,,,,,,,,orange,I
656.0,7.0,2.0,1.0,3.0,3.0,352.9955859999063,2.0,1.0,phase_1,,,,,,,,,,,,,yellow,triangle
646.0,7.0,2.0,1.0,3.0,3.0,315.8402530002604,2.0,1.0,phase_1,,,,,,,,,,,,,yellow,triangle
1281.0,8.0,4.0,1.0,4.0,4.0,315.9053389999826,2.0,1.0,phase_1,,,,,,,,,,,,,gray,cross
1324.0,8.0,4.0,1.0,3.0,3.0,361.2475279996943,2.0,1.0,phase_1,,,,,,,,,,,,,gray,cross
185.0,5.0,0.5,1.0,1.0,1.0,398.3217820000391,2.0,1.0,phase_1,,,,,,,,,,,,,orange,I
1317.0,4.0,4.0,0.0,1.0,1.0,362.1308650003811,2.0,1.0,phase_1,,,,,,,,,,,,,green,hexagon
671.0,3.0,2.0,0.0,1.0,1.0,351.899443000093,2.0,1.0,phase_1,,,,,,,,,,,,,white,diamond
672.0,3.0,2.0,0.0,1.0,1.0,325.3580579998925,2.0,1.0,phase_1,,,,,,,,,,,,,white,diamond
304.0,2.0,1.0,0.0,3.0,3.0,399.1789759998028,2.0,1.0,phase_1,,,,,,,,,,,,,blue,flipped triangle
1307.0,8.0,4.0,1.0,1.0,1.0,326.3623379998535,2.0,1.0,phase_1,,,,,,,,,,,,,gray,cross
0.0,2.0,0.0,0.0,4.0,4.0,362.1497179997277,2.0,1.0,phase_1,,,,,,,,,,,,,blue,flipped triangle
653.0,7.0,2.0,1.0,2.0,2.0,287.4926979998236,2.0,1.0,phase_1,,,,,,,,,,,,,yellow,triangle
172.0,1.0,0.5,0.0,2.0,2.0,324.0903099999741,2.0,1.0,phase_1,,,,,,,,,,,,,cyan,circle
308.0,2.0,1.0,0.0,4.0,4.0,480.9469420001733,3.0,1.0,phase_1,,,,,,,,,,,,,blue,flipped triangle
1305.0,4.0,4.0,0.0,3.0,3.0,342.860383000243,3.0,1.0,phase_1,,,,,,,,,,,,,green,hexagon
642.0,3.0,2.0,0.0,1.0,1.0,296.3335730000835,3.0,1.0,phase_1,,,,,,,,,,,,,white,diamond
168.0,5.0,0.5,1.0,4.0,4.0,334.4363429996519,3.0,1.0,phase_1,,,,,,,,,,,,,orange,I
139.0,1.0,0.5,0.0,2.0,2.0,362.0902269999533,3.0,1.0,phase_1,,,,,,,,,,,,,cyan,circle
1292.0,8.0,4.0,1.0,2.0,2.0,306.1544500001218,3.0,1.0,phase_1,,,,,,,,,,,,,gray,cross
153.0,1.0,0.5,0.0,3.0,3.0,288.4082750001653,3.0,1.0,phase_1,,,,,,,,,,,,,cyan,circle
160.0,5.0,0.5,1.0,1.0,1.0,297.6176769998346,3.0,1.0,phase_1,,,,,,,,,,,,,orange,I
176.0,5.0,0.5,1.0,1.0,1.0,407.4014809998516,3.0,1.0,phase_1,,,,,,,,,,,,,orange,I
159.0,1.0,0.5,0.0,4.0,4.0,315.8551120000084,3.0,1.0,phase_1,,,,,,,,,,,,,cyan,circle
1282.0,8.0,4.0,1.0,2.0,2.0,316.6548589997546,3.0,1.0,phase_1,,,,,,,,,,,,,gray,cross
659.0,7.0,2.0,1.0,3.0,3.0,269.2728339998211,3.0,1.0,phase_1,,,,,,,,,,,,,yellow,triangle
637.0,3.0,2.0,0.0,2.0,2.0,287.7841029999217,3.0,1.0,phase_1,,,,,,,,,,,,,white,diamond
669.0,3.0,2.0,0.0,3.0,3.0,278.3640869997725,3.0,1.0,phase_1,,,,,,,,,,,,,white,diamond
0.0,4.0,0.0,0.0,3.0,3.0,343.9981659998921,3.0,1.0,phase_1,,,,,,,,,,,,,green,hexagon
1281.0,8.0,4.0,1.0,4.0,4.0,306.6438820001167,3.0,1.0,phase_1,,,,,,,,,,,,,gray,cross
1315.0,4.0,4.0,0.0,2.0,2.0,426.1064669999541,3.0,1.0,phase_1,,,,,,,,,,,,,green,hexagon
670.0,7.0,2.0,1.0,2.0,2.0,343.408981000266,3.0,1.0,phase_1,,,,,,,,,,,,,yellow,triangle
307.0,6.0,1.0,1.0,3.0,3.0,353.1831430000238,3.0,1.0,phase_1,,,,,,,,,,,,,magenta,square
337.0,2.0,1.0,0.0,2.0,2.0,398.5273070002222,3.0,1.0,phase_1,,,,,,,,,,,,,blue,flipped triangle
669.0,7.0,2.0,1.0,4.0,4.0,344.1447049999624,3.0,1.0,phase_1,,,,,,,,,,,,,yellow,triangle
660.0,3.0,2.0,0.0,1.0,1.0,482.039961999817,3.0,1.0,phase_1,,,,,,,,,,,,,white,diamond
0.0,2.0,0.0,0.0,4.0,4.0,409.2752360002123,3.0,1.0,phase_1,,,,,,,,,,,,,blue,flipped triangle
1301.0,8.0,4.0,1.0,3.0,3.0,445.3708949999964,3.0,1.0,phase_1,,,,,,,,,,,,,gray,cross
315.0,2.0,1.0,0.0,1.0,1.0,417.8168399998867,3.0,1.0,phase_1,,,,,,,,,,,,,blue,flipped triangle
149.0,5.0,0.5,1.0,4.0,4.0,418.2129880000502,3.0,1.0,phase_1,,,,,,,,,,,,,orange,I
319.0,6.0,1.0,1.0,3.0,3.0,355.5359890001455,3.0,1.0,phase_1,,,,,,,,,,,,,magenta,square
658.0,3.0,2.0,0.0,3.0,3.0,342.9285839997646,3.0,1.0,phase_1,,,,,,,,,,,,,white,diamond
1292.0,4.0,4.0,0.0,3.0,3.0,325.5788639999082,3.0,1.0,phase_1,,,,,,,,,,,,,green,hexagon
322.0,6.0,1.0,1.0,4.0,4.0,428.0808270000307,3.0,1.0,phase_1,,,,,,,,,,,,,magenta,square
635.0,7.0,2.0,1.0,2.0,2.0,408.9499570000043,3.0,1.0,phase_1,,,,,,,,,,,,,yellow,triangle
627.0,7.0,2.0,1.0,1.0,1.0,483.0601649996424,3.0,1.0,phase_1,,,,,,,,,,,,,yellow,triangle
0.0,8.0,0.0,1.0,4.0,4.0,287.7219380002316,3.0,1.0,phase_1,,,,,,,,,,,,,gray,cross
161.0,5.0,0.5,1.0,2.0,2.0,306.7067910001242,3.0,1.0,phase_1,,,,,,,,,,,,,orange,I
175.0,5.0,0.5,1.0,3.0,3.0,296.7343969999092,3.0,1.0,phase_1,,,,,,,,,,,,,orange,I
654.0,3.0,2.0,0.0,3.0,3.0,463.5845469997548,3.0,1.0,phase_1,,,,,,,,,,,,,white,diamond
631.0,3.0,2.0,0.0,4.0,4.0,360.5403199999273,3.0,1.0,phase_1,,,,,,,,,,,,,white,diamond
185.0,1.0,0.5,0.0,1.0,1.0,343.4975619998113,3.0,1.0,phase_1,,,,,,,,,,,,,cyan,circle
0.0,4.0,0.0,0.0,2.0,2.0,304.646355999921,3.0,1.0,phase_1,,,,,,,,,,,,,green,hexagon
638.0,7.0,2.0,1.0,2.0,2.0,278.2907549999436,3.0,1.0,phase_1,,,,,,,,,,,,,yellow,triangle
0.0,8.0,0.0,1.0,2.0,2.0,306.5732639997804,3.0,1.0,phase_1,,,,,,,,,,,,,gray,cross
1310.0,8.0,4.0,1.0,4.0,4.0,426.5162840001721,3.0,2.0,phase_1,,,,,,,,,,,,,gray,cross
339.0,2.0,1.0,0.0,2.0,2.0,419.0845749999425,3.0,1.0,phase_1,,,,,,,,,,,,,blue,flipped triangle
668.0,3.0,2.0,0.0,2.0,2.0,406.7058139999062,3.0,1.0,phase_1,,,,,,,,,,,,,white,diamond
630.0,7.0,2.0,1.0,4.0,4.0,362.359467999795,3.0,1.0,phase_1,,,,,,,,,,,,,yellow,triangle
629.0,3.0,2.0,0.0,3.0,3.0,399.4670679999217,3.0,1.0,phase_1,,,,,,,,,,,,,white,diamond
1277.0,8.0,4.0,1.0,1.0,1.0,490.309969000009,3.0,1.0,phase_1,,,,,,,,,,,,,gray,cross
656.0,3.0,2.0,0.0,1.0,1.0,407.6086499999292,3.0,1.0,phase_1,,,,,,,,,,,,,white,diamond
0.0,3.0,0.0,0.0,3.0,3.0,362.2092359996713,3.0,1.0,phase_1,,,,,,,,,,,,,white,diamond
0.0,1.0,0.0,0.0,1.0,1.0,352.535312999862,3.0,1.0,phase_1,,,,,,,,,,,,,cyan,circle
141.0,5.0,0.5,1.0,3.0,3.0,306.5681170000971,3.0,1.0,phase_1,,,,,,,,,,,,,orange,I
654.0,7.0,2.0,1.0,3.0,3.0,371.6318960000535,3.0,1.0,phase_1,,,,,,,,,,,,,yellow,triangle
1283.0,8.0,4.0,1.0,2.0,2.0,269.7644449999643,3.0,1.0,phase_1,,,,,,,,,,,,,gray,cross
337.0,6.0,1.0,1.0,4.0,4.0,306.1413160003212,3.0,1.0,phase_1,,,,,,,,,,,,,magenta,square
143.0,1.0,0.5,0.0,2.0,2.0,361.8505200001891,3.0,1.0,phase_1,,,,,,,,,,,,,cyan,circle
348.0,6.0,1.0,1.0,2.0,2.0,371.5248139997129,3.0,1.0,phase_1,,,,,,,,,,,,,magenta,square
0.0,8.0,0.0,1.0,3.0,3.0,380.5971699998736,3.0,1.0,phase_1,,,,,,,,,,,,,gray,cross
153.0,5.0,0.5,1.0,2.0,2.0,343.6357820000921,3.0,1.0,phase_1,,,,,,,,,,,,,orange,I
300.0,6.0,1.0,1.0,2.0,2.0,324.8540509998747,3.0,1.0,phase_1,,,,,,,,,,,,,magenta,square
671.0,3.0,2.0,0.0,2.0,2.0,306.5181709998796,3.0,1.0,phase_1,,,,,,,,,,,,,white,diamond
672.0,7.0,2.0,1.0,3.0,3.0,324.0729929998451,3.0,1.0,phase_1,,,,,,,,,,,,,yellow,triangle
671.0,7.0,2.0,1.0,1.0,1.0,343.0745959999512,3.0,1.0,phase_1,,,,,,,,,,,,,yellow,triangle
310.0,2.0,1.0,0.0,1.0,1.0,493.8468539999121,3.0,1.0,phase_1,,,,,,,,,,,,,blue,flipped triangle
167.0,1.0,0.5,0.0,1.0,1.0,315.6405580002683,3.0,1.0,phase_1,,,,,,,,,,,,,cyan,circle
337.0,6.0,1.0,1.0,3.0,3.0,343.7948350001534,3.0,1.0,phase_1,,,,,,,,,,,,,magenta,square
176.0,5.0,0.5,1.0,3.0,3.0,370.6483830001161,3.0,1.0,phase_1,,,,,,,,,,,,,orange,I
152.0,5.0,0.5,1.0,3.0,3.0,304.6473740000692,3.0,1.0,phase_1,,,,,,,,,,,,,orange,I
659.0,3.0,2.0,0.0,4.0,4.0,332.697785000164,3.0,1.0,phase_1,,,,,,,,,,,,,white,diamond
310.0,6.0,1.0,1.0,4.0,4.0,407.2819680000066,3.0,1.0,phase_1,,,,,,,,,,,,,magenta,square
0.0,8.0,0.0,1.0,3.0,3.0,306.9980889999897,3.0,1.0,phase_1,,,,,,,,,,,,,gray,cross
181.0,1.0,0.5,0.0,4.0,4.0,371.6750779999529,3.0,1.0,phase_1,,,,,,,,,,,,,cyan,circle
336.0,2.0,1.0,0.0,3.0,3.0,362.3570859999745,3.0,1.0,phase_1,,,,,,,,,,,,,blue,flipped triangle
0.0,5.0,0.0,1.0,4.0,4.0,281.3148700001875,3.0,1.0,phase_1,,,,,,,,,,,,,orange,I
313.0,2.0,1.0,0.0,2.0,2.0,380.0378850000925,3.0,1.0,phase_1,,,,,,,,,,,,,blue,flipped triangle
1293.0,8.0,4.0,1.0,2.0,2.0,315.0563250001141,3.0,1.0,phase_1,,,,,,,,,,,,,gray,cross
1318.0,4.0,4.0,0.0,4.0,4.0,324.4158299999071,3.0,1.0,phase_1,,,,,,,,,,,,,green,hexagon
671.0,7.0,2.0,1.0,1.0,1.0,287.0396829998753,3.0,1.0,phase_1,,,,,,,,,,,,,yellow,triangle
669.0,7.0,2.0,1.0,4.0,4.0,297.8832759999932,3.0,1.0,phase_1,,,,,,,,,,,,,yellow,triangle
1312.0,8.0,4.0,1.0,4.0,4.0,324.5675590001156,3.0,1.0,phase_1,,,,,,,,,,,,,gray,cross
300.0,2.0,1.0,0.0,3.0,3.0,324.6769170000334,3.0,1.0,phase_1,,,,,,,,,,,,,blue,flipped triangle
166.0,1.0,0.5,0.0,2.0,2.0,334.3556549998538,3.0,1.0,phase_1,,,,,,,,,,,,,cyan,circle
143.0,5.0,0.5,1.0,4.0,4.0,343.2219199999053,3.0,1.0,phase_1,,,,,,,,,,,,,orange,I
1282.0,4.0,4.0,0.0,2.0,2.0,306.1421880001944,3.0,1.0,phase_1,,,,,,,,,,,,,green,hexagon
175.0,1.0,0.5,0.0,4.0,4.0,352.7115810002215,3.0,1.0,phase_1,,,,,,,,,,,,,cyan,circle
348.0,2.0,1.0,0.0,1.0,1.0,343.8431280001168,3.0,1.0,phase_1,,,,,,,,,,,,,blue,flipped triangle
140.0,1.0,0.5,0.0,3.0,3.0,333.9526879999539,3.0,1.0,phase_1,,,,,,,,,,,,,cyan,circle
630.0,3.0,2.0,0.0,4.0,4.0,353.7133439999707,3.0,1.0,phase_1,,,,,,,,,,,,,white,diamond
150.0,5.0,0.5,1.0,1.0,1.0,345.0336360001529,3.0,1.0,phase_1,,,,,,,,,,,,,orange,I
1308.0,8.0,4.0,1.0,3.0,3.0,390.886281999883,3.0,1.0,phase_1,,,,,,,,,,,,,gray,cross
138.0,5.0,0.5,1.0,1.0,1.0,501.803189000384,3.0,1.0,phase_1,,,,,,,,,,,,,orange,I
0.0,2.0,0.0,0.0,4.0,4.0,333.6844790001123,3.0,1.0,phase_1,,,,,,,,,,,,,blue,flipped triangle
0.0,3.0,0.0,0.0,2.0,2.0,343.2339809996847,3.0,1.0,phase_1,,,,,,,,,,,,,white,diamond
138.0,1.0,0.5,0.0,3.0,3.0,361.9027350000579,3.0,1.0,phase_1,,,,,,,,,,,,,cyan,circle
308.0,6.0,1.0,1.0,1.0,1.0,342.1313490002831,3.0,1.0,phase_1,,,,,,,,,,,,,magenta,square
658.0,7.0,2.0,1.0,1.0,1.0,334.4093759997122,3.0,1.0,phase_1,,,,,,,,,,,,,yellow,triangle
654.0,7.0,2.0,1.0,4.0,4.0,298.0100590002621,3.0,1.0,phase_1,,,,,,,,,,,,,yellow,triangle
634.0,3.0,2.0,0.0,1.0,1.0,370.3657779997229,3.0,1.0,phase_1,,,,,,,,,,,,,white,diamond
1277.0,4.0,4.0,0.0,2.0,2.0,333.1609619999653,3.0,1.0,phase_1,,,,,,,,,,,,,green,hexagon
635.0,3.0,2.0,0.0,3.0,3.0,288.2891949998338,3.0,1.0,phase_1,,,,,,,,,,,,,white,diamond
1276.0,4.0,4.0,0.0,2.0,2.0,324.4224099998973,3.0,1.0,phase_1,,,,,,,,,,,,,green,hexagon
180.0,1.0,0.5,0.0,2.0,2.0,158.4913169999708,4.0,3.0,phase_1,,,,,,,,,,,,,cyan,circle
333.0,6.0,1.0,1.0,1.0,1.0,380.6806519996826,4.0,1.0,phase_1,,,,,,,,,,,,,magenta,square
1297.0,4.0,4.0,0.0,1.0,1.0,288.3821549999084,4.0,1.0,phase_1,,,,,,,,,,,,,green,hexagon
1301.0,4.0,4.0,0.0,3.0,3.0,306.8880490000083,4.0,1.0,phase_1,,,,,,,,,,,,,green,hexagon
335.0,6.0,1.0,1.0,4.0,4.0,289.6434109998154,4.0,1.0,phase_1,,,,,,,,,,,,,magenta,square
0.0,7.0,0.0,1.0,4.0,4.0,279.6300990003146,4.0,1.0,phase_1,,,,,,,,,,,,,yellow,triangle
310.0,6.0,1.0,1.0,4.0,4.0,279.8114119996171,4.0,1.0,phase_1,,,,,,,,,,,,,magenta,square
316.0,2.0,1.0,0.0,3.0,3.0,279.1178990000844,4.0,1.0,phase_1,,,,,,,,,,,,,blue,flipped triangle
1312.0,4.0,4.0,0.0,1.0,1.0,386.0741919997963,4.0,1.0,phase_1,,,,,,,,,,,,,green,hexagon
670.0,3.0,2.0,0.0,4.0,4.0,325.5450829997244,4.0,1.0,phase_1,,,,,,,,,,,,,white,diamond
625.0,3.0,2.0,0.0,4.0,4.0,269.8663520000082,4.0,1.0,phase_1,,,,,,,,,,,,,white,diamond
166.0,5.0,0.5,1.0,2.0,2.0,371.6926679999233,4.0,1.0,phase_1,,,,,,,,,,,,,orange,I
341.0,2.0,1.0,0.0,3.0,3.0,318.1052029999591,4.0,1.0,phase_1,,,,,,,,,,,,,blue,flipped triangle
642.0,7.0,2.0,1.0,3.0,3.0,342.87789099971627,4.0,1.0,phase_1,,,,,,,,,,,,,yellow,triangle
0.0,3.0,0.0,0.0,2.0,2.0,305.8712710003419,4.0,1.0,phase_1,,,,,,,,,,,,,white,diamond
143.0,5.0,0.5,1.0,4.0,4.0,278.054167999926,4.0,1.0,phase_1,,,,,,,,,,,,,orange,I
1315.0,4.0,4.0,0.0,3.0,3.0,353.0885219997799,4.0,1.0,phase_1,,,,,,,,,,,,,green,hexagon
320.0,2.0,1.0,0.0,3.0,3.0,342.8785359997164,4.0,1.0,phase_1,,,,,,,,,,,,,blue,flipped triangle
138.0,1.0,0.5,0.0,4.0,4.0,380.9624460000123,4.0,1.0,phase_1,,,,,,,,,,,,,cyan,circle
629.0,7.0,2.0,1.0,2.0,2.0,306.1122789999899,4.0,1.0,phase_1,,,,,,,,,,,,,yellow,triangle
143.0,1.0,0.5,0.0,4.0,4.0,324.4014400002015,4.0,1.0,phase_1,,,,,,,,,,,,,cyan,circle
0.0,4.0,0.0,0.0,2.0,2.0,324.9767309998788,4.0,1.0,phase_1,,,,,,,,,,,,,green,hexagon
0.0,6.0,0.0,1.0,3.0,3.0,346.4359110002988,4.0,1.0,phase_1,,,,,,,,,,,,,magenta,square
658.0,3.0,2.0,0.0,1.0,1.0,334.1277219997209,4.0,1.0,phase_1,,,,,,,,,,,,,white,diamond
0.0,6.0,0.0,1.0,2.0,2.0,344.1637920000175,4.0,1.0,phase_1,,,,,,,,,,,,,magenta,square
629.0,7.0,2.0,1.0,3.0,3.0,361.4322140001604,4.0,1.0,phase_1,,,,,,,,,,,,,yellow,triangle
330.0,6.0,1.0,1.0,3.0,3.0,417.5760319999426,4.0,1.0,phase_1,,,,,,,,,,,,,magenta,square
0.0,1.0,0.0,0.0,2.0,2.0,352.527371999713,4.0,1.0,phase_1,,,,,,,,,,,,,cyan,circle
329.0,6.0,1.0,1.0,4.0,4.0,324.4675619998816,4.0,1.0,phase_1,,,,,,,,,,,,,magenta,square
626.0,7.0,2.0,1.0,2.0,2.0,343.0035060000591,4.0,1.0,phase_1,,,,,,,,,,,,,yellow,triangle
0.0,6.0,0.0,1.0,4.0,4.0,362.3589070002708,4.0,1.0,phase_1,,,,,,,,,,,,,magenta,square
0.0,5.0,0.0,1.0,3.0,3.0,352.2201480000149,4.0,1.0,phase_1,,,,,,,,,,,,,orange,I
167.0,5.0,0.5,1.0,3.0,3.0,334.5327900001393,4.0,1.0,phase_1,,,,,,,,,,,,,orange,I
1319.0,8.0,4.0,1.0,2.0,2.0,380.1545020000958,4.0,1.0,phase_1,,,,,,,,,,,,,gray,cross
642.0,3.0,2.0,0.0,4.0,4.0,362.6057649998984,4.0,1.0,phase_1,,,,,,,,,,,,,white,diamond
637.0,7.0,2.0,1.0,4.0,4.0,372.4088720000509,4.0,1.0,phase_1,,,,,,,,,,,,,yellow,triangle
1323.0,4.0,4.0,0.0,2.0,2.0,307.1061569999074,4.0,1.0,phase_1,,,,,,,,,,,,,green,hexagon
311.0,2.0,1.0,0.0,1.0,1.0,408.3701669997026,4.0,1.0,phase_1,,,,,,,,,,,,,blue,flipped triangle
141.0,1.0,0.5,0.0,1.0,1.0,361.895793000258,4.0,1.0,phase_1,,,,,,,,,,,,,cyan,circle
336.0,6.0,1.0,1.0,3.0,3.0,335.2019619997008,4.0,1.0,phase_1,,,,,,,,,,,,,magenta,square
307.0,2.0,1.0,0.0,2.0,2.0,380.8856700002252,4.0,1.0,phase_1,,,,,,,,,,,,,blue,flipped triangle
0.0,5.0,0.0,1.0,4.0,4.0,307.3837440001625,4.0,1.0,phase_1,,,,,,,,,,,,,orange,I
329.0,2.0,1.0,0.0,2.0,2.0,278.3650870001111,4.0,1.0,phase_1,,,,,,,,,,,,,blue,flipped triangle
1317.0,8.0,4.0,1.0,1.0,1.0,305.9949230000711,4.0,1.0,phase_1,,,,,,,,,,,,,gray,cross
318.0,6.0,1.0,1.0,4.0,4.0,409.3783309999708,4.0,1.0,phase_1,,,,,,,,,,,,,magenta,square
1303.0,8.0,4.0,1.0,1.0,1.0,344.4417539999449,4.0,1.0,phase_1,,,,,,,,,,,,,gray,cross
155.0,5.0,0.5,1.0,1.0,1.0,391.3235780000832,4.0,1.0,phase_1,,,,,,,,,,,,,orange,I
658.0,7.0,2.0,1.0,1.0,1.0,306.538351999734,4.0,1.0,phase_1,,,,,,,,,,,,,yellow,triangle
1285.0,4.0,4.0,0.0,1.0,1.0,316.4533869999104,4.0,1.0,phase_1,,,,,,,,,,,,,green,hexagon
1314.0,8.0,4.0,1.0,4.0,4.0,370.1238009998633,4.0,2.0,phase_1,,,,,,,,,,,,,gray,cross
0.0,2.0,0.0,0.0,1.0,1.0,333.7167360000421,4.0,1.0,phase_1,,,,,,,,,,,,,blue,flipped triangle
0.0,7.0,0.0,1.0,3.0,3.0,382.2130730000026,4.0,1.0,phase_1,,,,,,,,,,,,,yellow,triangle
309.0,2.0,1.0,0.0,4.0,4.0,362.4754869997559,4.0,1.0,phase_1,,,,,,,,,,,,,blue,flipped triangle
146.0,5.0,0.5,1.0,3.0,3.0,335.7807279999178,4.0,1.0,phase_1,,,,,,,,,,,,,orange,I
1317.0,8.0,4.0,1.0,2.0,2.0,306.7440569998325,4.0,1.0,phase_1,,,,,,,,,,,,,gray,cross
1275.0,4.0,4.0,0.0,3.0,3.0,361.94598900010527,4.0,1.0,phase_1,,,,,,,,,,,,,green,hexagon
629.0,3.0,2.0,0.0,3.0,3.0,372.1193689998472,4.0,1.0,phase_1,,,,,,,,,,,,,white,diamond
1295.0,4.0,4.0,0.0,2.0,2.0,343.6486790001254,4.0,1.0,phase_1,,,,,,,,,,,,,green,hexagon
177.0,5.0,0.5,1.0,2.0,2.0,353.9807219999602,4.0,1.0,phase_1,,,,,,,,,,,,,orange,I
659.0,7.0,2.0,1.0,3.0,3.0,435.5436530004226,4.0,1.0,phase_1,,,,,,,,,,,,,yellow,triangle
0.0,7.0,0.0,1.0,3.0,3.0,352.9684589998396,4.0,1.0,phase_1,,,,,,,,,,,,,yellow,triangle
642.0,7.0,2.0,1.0,3.0,3.0,640.417253999658,4.0,1.0,phase_1,,,,,,,,,,,,,yellow,triangle
0.0,1.0,0.0,0.0,4.0,4.0,668.6590119998073,4.0,1.0,phase_1,,,,,,,,,,,,,cyan,circle
348.0,6.0,1.0,1.0,2.0,2.0,502.2554699999091,4.0,1.0,phase_1,,,,,,,,,,,,,magenta,square
0.0,1.0,0.0,0.0,4.0,4.0,344.5902860003116,4.0,1.0,phase_1,,,,,,,,,,,,,cyan,circle
183.0,5.0,0.5,1.0,2.0,2.0,817.8645289999622,4.0,1.0,phase_1,,,,,,,,,,,,,orange,I
0.0,4.0,0.0,0.0,2.0,2.0,631.5085859996543,4.0,1.0,phase_1,,,,,,,,,,,,,green,hexagon
176.0,1.0,0.5,0.0,3.0,3.0,385.3037589997257,4.0,1.0,phase_1,,,,,,,,,,,,,cyan,circle
631.0,7.0,2.0,1.0,2.0,2.0,492.1445850000054,4.0,1.0,phase_1,,,,,,,,,,,,,yellow,triangle
664.0,3.0,2.0,0.0,1.0,1.0,509.9439780001376,4.0,1.0,phase_1,,,,,,,,,,,,,white,diamond
348.0,2.0,1.0,0.0,1.0,1.0,443.2153809998453,4.0,1.0,phase_1,,,,,,,,,,,,,blue,flipped triangle
181.0,5.0,0.5,1.0,4.0,4.0,588.2046800002172,4.0,1.0,phase_1,,,,,,,,,,,,,orange,I
1276.0,8.0,4.0,1.0,2.0,2.0,363.876471000367,4.0,1.0,phase_1,,,,,,,,,,,,,gray,cross
1299.0,8.0,4.0,1.0,1.0,1.0,383.6312670000552,4.0,1.0,phase_1,,,,,,,,,,,,,gray,cross
660.0,7.0,2.0,1.0,2.0,2.0,416.9482170000265,4.0,1.0,phase_1,,,,,,,,,,,,,yellow,triangle
1299.0,4.0,4.0,0.0,2.0,2.0,307.4683220002043,4.0,1.0,phase_1,,,,,,,,,,,,,green,hexagon
0.0,8.0,0.0,1.0,3.0,3.0,630.4670509998687,4.0,1.0,phase_1,,,,,,,,,,,,,gray,cross
0.0,5.0,0.0,1.0,2.0,2.0,437.8863460001412,4.0,1.0,phase_1,,,,,,,,,,,,,orange,I
0.0,8.0,0.0,1.0,1.0,1.0,316.4035760000843,4.0,1.0,phase_1,,,,,,,,,,,,,gray,cross
1300.0,8.0,4.0,1.0,3.0,3.0,370.9798690001662,4.0,1.0,phase_1,,,,,,,,,,,,,gray,cross
341.0,2.0,1.0,0.0,3.0,3.0,353.5354130003725,4.0,1.0,phase_1,,,,,,,,,,,,,blue,flipped triangle
0.0,5.0,0.0,1.0,3.0,3.0,353.224611999849,4.0,1.0,phase_1,,,,,,,,,,,,,orange,I
627.0,3.0,2.0,0.0,2.0,2.0,436.2794809999286,4.0,1.0,phase_1,,,,,,,,,,,,,white,diamond
0.0,2.0,0.0,0.0,2.0,2.0,361.7120449998765,4.0,1.0,phase_1,,,,,,,,,,,,,blue,flipped triangle
304.0,6.0,1.0,1.0,3.0,3.0,324.585522000234,4.0,1.0,phase_1,,,,,,,,,,,,,magenta,square
0.0,4.0,0.0,0.0,4.0,4.0,354.0137660002074,4.0,1.0,phase_1,,,,,,,,,,,,,green,hexagon
0.0,2.0,0.0,0.0,4.0,4.0,316.2009640000178,4.0,1.0,phase_1,,,,,,,,,,,,,blue,flipped triangle
0.0,1.0,0.0,0.0,1.0,1.0,381.5789870000117,4.0,1.0,phase_1,,,,,,,,,,,,,cyan,circle
0.0,6.0,0.0,1.0,3.0,3.0,335.673560000032,4.0,1.0,phase_1,,,,,,,,,,,,,magenta,square
329.0,2.0,1.0,0.0,2.0,2.0,288.5306419998414,4.0,1.0,phase_1,,,,,,,,,,,,,blue,flipped triangle
168.0,1.0,0.5,0.0,1.0,1.0,336.6851020000467,4.0,1.0,phase_1,,,,,,,,,,,,,cyan,circle
0.0,3.0,0.0,0.0,3.0,3.0,343.9840740002182,4.0,1.0,phase_1,,,,,,,,,,,,,white,diamond
328.0,6.0,1.0,1.0,3.0,3.0,334.48180200002747,4.0,1.0,phase_1,,,,,,,,,,,,,magenta,square
0.0,5.0,0.0,1.0,4.0,4.0,334.7492140001122,4.0,1.0,phase_1,,,,,,,,,,,,,orange,I
341.0,6.0,1.0,1.0,2.0,2.0,315.5723350000698,4.0,1.0,phase_1,,,,,,,,,,,,,magenta,square
318.0,2.0,1.0,0.0,4.0,4.0,314.9910389997785,4.0,1.0,phase_1,,,,,,,,,,,,,blue,flipped triangle
664.0,7.0,2.0,1.0,1.0,1.0,398.1133600000248,4.0,1.0,phase_1,,,,,,,,,,,,,yellow,triangle
1307.0,4.0,4.0,0.0,3.0,3.0,334.032359000048,4.0,1.0,phase_1,,,,,,,,,,,,,green,hexagon
155.0,1.0,0.5,0.0,3.0,3.0,350.9340919999886,4.0,1.0,phase_1,,,,,,,,,,,,,cyan,circle
1300.0,4.0,4.0,0.0,1.0,1.0,361.4181810003174,4.0,1.0,phase_1,,,,,,,,,,,,,green,hexagon
0.0,7.0,2.0,1.0,5.0,0.0,0.0,1.0,1.0,phase_2,stop,250.0,250.0,4.0,,,,,,,,,yellow,triangle
0.0,2.0,1.0,0.0,6.0,6.0,335.3717850000066,1.0,1.0,phase_2,go,300.0,250.0,1.0,,,,,,,,,blue,flipped triangle
0.0,7.0,2.0,1.0,6.0,6.0,308.3175159999882,1.0,1.0,phase_2,go,300.0,250.0,1.0,,,,,,,,,yellow,triangle
0.0,6.0,1.0,1.0,6.0,6.0,351.6640259999803,1.0,1.0,phase_2,stop,300.0,250.0,3.0,,,,,,,,,magenta,square
0.0,6.0,1.0,1.0,5.0,5.0,348.7172150003061,1.0,1.0,phase_2,stop,300.0,200.0,3.0,,,,,,,,,magenta,square
0.0,7.0,2.0,1.0,5.0,5.0,390.7122939999681,1.0,1.0,phase_2,go,250.0,200.0,1.0,,,,,,,,,yellow,triangle
0.0,6.0,1.0,1.0,5.0,5.0,323.8947329996335,1.0,1.0,phase_2,stop,250.0,200.0,3.0,,,,,,,,,magenta,square
0.0,2.0,1.0,0.0,5.0,5.0,298.1154799999785,1.0,1.0,phase_2,go,200.0,200.0,1.0,,,,,,,,,blue,flipped triangle
0.0,7.0,2.0,1.0,5.0,5.0,297.1145860001343,1.0,1.0,phase_2,stop,200.0,200.0,3.0,,,,,,,,,yellow,triangle
0.0,4.0,4.0,0.0,5.0,5.0,335.136543000317,1.0,1.0,phase_2,go,150.0,200.0,1.0,,,,,,,,,green,hexagon
0.0,6.0,1.0,1.0,6.0,6.0,381.6237629998795,1.0,1.0,phase_2,go,150.0,200.0,1.0,,,,,,,,,magenta,square
0.0,6.0,1.0,1.0,6.0,6.0,437.6622559998395,1.0,1.0,phase_2,go,150.0,200.0,1.0,,,,,,,,,magenta,square
0.0,6.0,1.0,1.0,6.0,6.0,382.5688900001296,1.0,1.0,phase_2,stop,150.0,200.0,3.0,,,,,,,,,magenta,square
0.0,4.0,4.0,0.0,5.0,5.0,363.5599989997899,1.0,1.0,phase_2,go,150.0,150.0,1.0,,,,,,,,,green,hexagon
0.0,6.0,1.0,1.0,6.0,0.0,0.0,1.0,1.0,phase_2,stop,150.0,150.0,4.0,,,,,,,,,magenta,square
0.0,2.0,1.0,0.0,6.0,6.0,326.5958530000716,1.0,1.0,phase_2,go,150.0,200.0,1.0,,,,,,,,,blue,flipped triangle
0.0,3.0,2.0,0.0,6.0,6.0,427.8200510002534,1.0,1.0,phase_2,go,150.0,200.0,1.0,,,,,,,,,white,diamond
0.0,1.0,0.5,0.0,6.0,6.0,669.6554710001692,1.0,1.0,phase_2,go,150.0,200.0,1.0,,,,,,,,,cyan,circle
0.0,8.0,4.0,1.0,6.0,6.0,336.2257210001189,1.0,1.0,phase_2,go,150.0,200.0,1.0,,,,,,,,,gray,cross
0.0,8.0,4.0,1.0,5.0,0.0,0.0,1.0,1.0,phase_2,stop,150.0,200.0,4.0,,,,,,,,,gray,cross
0.0,3.0,2.0,0.0,5.0,5.0,392.4527590002071,1.0,1.0,phase_2,go,200.0,200.0,1.0,,,,,,,,,white,diamond
0.0,4.0,4.0,0.0,5.0,5.0,297.213489999649,1.0,1.0,phase_2,go,200.0,200.0,1.0,,,,,,,,,green,hexagon
0.0,2.0,1.0,0.0,6.0,6.0,308.2067109999116,1.0,1.0,phase_2,go,200.0,200.0,1.0,,,,,,,,,blue,flipped triangle
0.0,2.0,1.0,0.0,5.0,5.0,317.1100620002107,1.0,1.0,phase_2,go,200.0,200.0,1.0,,,,,,,,,blue,flipped triangle
0.0,6.0,1.0,1.0,6.0,6.0,285.1826880000772,1.0,1.0,phase_2,stop,200.0,200.0,3.0,,,,,,,,,magenta,square
0.0,1.0,0.5,0.0,6.0,6.0,419.4128139997701,1.0,1.0,phase_2,go,200.0,150.0,1.0,,,,,,,,,cyan,circle
0.0,1.0,0.5,0.0,6.0,6.0,355.3434870000274,1.0,1.0,phase_2,go,200.0,150.0,1.0,,,,,,,,,cyan,circle
0.0,1.0,0.5,0.0,5.0,5.0,642.3819709998497,1.0,1.0,phase_2,go,200.0,150.0,1.0,,,,,,,,,cyan,circle
0.0,8.0,4.0,1.0,5.0,0.0,0.0,1.0,1.0,phase_2,stop,200.0,150.0,4.0,,,,,,,,,gray,cross
0.0,2.0,1.0,0.0,6.0,6.0,411.1228290003055,1.0,1.0,phase_2,go,250.0,150.0,1.0,,,,,,,,,blue,flipped triangle
0.0,1.0,0.5,0.0,6.0,6.0,316.8118620001223,1.0,1.0,phase_2,go,250.0,150.0,1.0,,,,,,,,,cyan,circle
0.0,2.0,1.0,0.0,6.0,6.0,410.1573010002539,1.0,1.0,phase_2,go,250.0,150.0,1.0,,,,,,,,,blue,flipped triangle
0.0,5.0,0.5,1.0,5.0,0.0,0.0,1.0,1.0,phase_2,stop,250.0,150.0,4.0,,,,,,,,,orange,I
0.0,2.0,1.0,0.0,5.0,5.0,326.5605179999511,1.0,1.0,phase_2,go,300.0,150.0,1.0,,,,,,,,,blue,flipped triangle
0.0,8.0,4.0,1.0,5.0,5.0,361.8602659998942,1.0,1.0,phase_2,stop,300.0,150.0,3.0,,,,,,,,,gray,cross
0.0,8.0,4.0,1.0,6.0,6.0,308.0556989998513,1.0,1.0,phase_2,go,250.0,150.0,1.0,,,,,,,,,gray,cross
0.0,5.0,0.5,1.0,6.0,0.0,0.0,2.0,1.0,phase_2,stop,250.0,150.0,4.0,,,,,,,,,orange,I
0.0,1.0,0.5,0.0,5.0,5.0,411.7405220004002,2.0,1.0,phase_2,go,250.0,200.0,1.0,,,,,,,,,cyan,circle
0.0,1.0,0.5,0.0,5.0,5.0,307.8959069998745,2.0,1.0,phase_2,go,250.0,200.0,1.0,,,,,,,,,cyan,circle
0.0,6.0,1.0,1.0,6.0,6.0,281.2559419999161,2.0,1.0,phase_2,go,250.0,200.0,1.0,,,,,,,,,magenta,square
0.0,3.0,2.0,0.0,5.0,5.0,279.9873260000822,2.0,1.0,phase_2,go,250.0,200.0,1.0,,,,,,,,,white,diamond
0.0,7.0,2.0,1.0,5.0,5.0,307.4916720001965,2.0,1.0,phase_2,stop,250.0,200.0,3.0,,,,,,,,,yellow,triangle
0.0,2.0,1.0,0.0,5.0,5.0,382.2266719998879,2.0,1.0,phase_2,go,200.0,200.0,1.0,,,,,,,,,blue,flipped triangle
0.0,5.0,0.5,1.0,6.0,6.0,252.4926859996412,2.0,1.0,phase_2,go,200.0,200.0,1.0,,,,,,,,,orange,I
0.0,8.0,4.0,1.0,6.0,6.0,288.1790909996198,2.0,1.0,phase_2,stop,200.0,200.0,3.0,,,,,,,,,gray,cross
0.0,5.0,0.5,1.0,6.0,0.0,0.0,2.0,1.0,phase_2,stop,200.0,150.0,4.0,,,,,,,,,orange,I
0.0,2.0,1.0,0.0,6.0,6.0,337.3414819998288,2.0,1.0,phase_2,go,200.0,200.0,1.0,,,,,,,,,blue,flipped triangle
0.0,8.0,4.0,1.0,6.0,6.0,319.7906800000964,2.0,1.0,phase_2,stop,200.0,200.0,3.0,,,,,,,,,gray,cross
0.0,4.0,4.0,0.0,5.0,5.0,353.2374050000726,2.0,1.0,phase_2,go,200.0,150.0,1.0,,,,,,,,,green,hexagon
0.0,2.0,1.0,0.0,5.0,5.0,467.3075119999339,2.0,1.0,phase_2,go,200.0,150.0,1.0,,,,,,,,,blue,flipped triangle
0.0,6.0,1.0,1.0,5.0,0.0,0.0,2.0,1.0,phase_2,stop,200.0,150.0,4.0,,,,,,,,,magenta,square
0.0,5.0,0.5,1.0,5.0,5.0,404.3459280001116,2.0,1.0,phase_2,stop,250.0,150.0,3.0,,,,,,,,,orange,I
0.0,6.0,1.0,1.0,5.0,0.0,0.0,2.0,1.0,phase_2,stop,200.0,150.0,4.0,,,,,,,,,magenta,square
0.0,4.0,4.0,0.0,5.0,5.0,886.4044990000366,2.0,1.0,phase_2,go,250.0,150.0,1.0,,,,,,,,,green,hexagon
0.0,4.0,4.0,0.0,6.0,6.0,561.718934000055,2.0,1.0,phase_2,go,250.0,150.0,1.0,,,,,,,,,green,hexagon
0.0,7.0,2.0,1.0,5.0,0.0,0.0,2.0,1.0,phase_2,stop,250.0,150.0,4.0,,,,,,,,,yellow,triangle
0.0,5.0,0.5,1.0,5.0,0.0,0.0,2.0,1.0,phase_2,stop,300.0,150.0,4.0,,,,,,,,,orange,I
0.0,4.0,4.0,0.0,5.0,5.0,634.230043000116,2.0,1.0,phase_2,go,350.0,150.0,1.0,,,,,,,,,green,hexagon
0.0,7.0,2.0,1.0,6.0,6.0,349.7303409999404,2.0,1.0,phase_2,stop,350.0,150.0,3.0,,,,,,,,,yellow,triangle
0.0,1.0,0.5,0.0,6.0,6.0,427.9603740001221,2.0,1.0,phase_2,go,350.0,100.0,1.0,,,,,,,,,cyan,circle
0.0,4.0,4.0,0.0,5.0,5.0,289.6606770000289,2.0,1.0,phase_2,go,350.0,100.0,1.0,,,,,,,,,green,hexagon
0.0,5.0,0.5,1.0,5.0,5.0,272.2040749999905,2.0,1.0,phase_2,stop,350.0,100.0,3.0,,,,,,,,,orange,I
0.0,5.0,0.5,1.0,5.0,0.0,0.0,2.0,1.0,phase_2,stop,300.0,100.0,4.0,,,,,,,,,orange,I
0.0,2.0,1.0,0.0,6.0,6.0,316.9796269999096,2.0,1.0,phase_2,go,350.0,100.0,1.0,,,,,,,,,blue,flipped triangle
0.0,3.0,2.0,0.0,5.0,5.0,466.0475929999847,2.0,1.0,phase_2,go,350.0,100.0,1.0,,,,,,,,,white,diamond
0.0,6.0,1.0,1.0,6.0,0.0,0.0,2.0,1.0,phase_2,stop,350.0,100.0,4.0,,,,,,,,,magenta,square
0.0,6.0,1.0,1.0,5.0,0.0,0.0,2.0,1.0,phase_2,stop,350.0,150.0,4.0,,,,,,,,,magenta,square
0.0,7.0,2.0,1.0,6.0,6.0,321.921009000107,2.0,1.0,phase_2,stop,400.0,150.0,3.0,,,,,,,,,yellow,triangle
0.0,4.0,4.0,0.0,6.0,6.0,520.6993179999699,2.0,1.0,phase_2,go,400.0,100.0,1.0,,,,,,,,,green,hexagon
0.0,8.0,4.0,1.0,5.0,5.0,344.3537610000931,2.0,1.0,phase_2,stop,400.0,100.0,3.0,,,,,,,,,gray,cross
0.0,1.0,0.5,0.0,6.0,6.0,362.8888640000696,2.0,1.0,phase_2,go,350.0,100.0,1.0,,,,,,,,,cyan,circle
0.0,8.0,4.0,1.0,5.0,5.0,308.2702649999191,2.0,1.0,phase_2,stop,350.0,100.0,3.0,,,,,,,,,gray,cross
0.0,6.0,1.0,1.0,6.0,6.0,536.022676000357,3.0,1.0,phase_2,stop,300.0,100.0,3.0,,,,,,,,,magenta,square
0.0,6.0,1.0,1.0,5.0,5.0,338.1844780001302,3.0,1.0,phase_2,stop,300.0,50.0,3.0,,,,,,,,,magenta,square
0.0,6.0,1.0,1.0,5.0,5.0,421.033757999794,3.0,1.0,phase_2,go,250.0,50.0,1.0,,,,,,,,,magenta,square
0.0,5.0,0.5,1.0,5.0,0.0,0.0,3.0,1.0,phase_2,stop,250.0,50.0,4.0,,,,,,,,,orange,I
0.0,1.0,0.5,0.0,6.0,6.0,597.8216039998188,3.0,1.0,phase_2,go,300.0,50.0,1.0,,,,,,,,,cyan,circle
0.0,8.0,4.0,1.0,6.0,0.0,0.0,3.0,1.0,phase_2,stop,300.0,50.0,4.0,,,,,,,,,gray,cross
0.0,5.0,0.5,1.0,6.0,6.0,409.832426000321,3.0,1.0,phase_2,go,300.0,100.0,1.0,,,,,,,,,orange,I
0.0,1.0,0.5,0.0,6.0,6.0,430.8540000001812,3.0,1.0,phase_2,go,300.0,100.0,1.0,,,,,,,,,cyan,circle
0.0,4.0,4.0,0.0,6.0,6.0,523.9039030002459,3.0,1.0,phase_2,go,300.0,100.0,1.0,,,,,,,,,green,hexagon
0.0,1.0,0.5,0.0,5.0,5.0,495.5523349999566,3.0,1.0,phase_2,go,300.0,100.0,1.0,,,,,,,,,cyan,circle
0.0,3.0,2.0,0.0,6.0,6.0,402.406668000367,3.0,1.0,phase_2,go,300.0,100.0,1.0,,,,,,,,,white,diamond
0.0,2.0,1.0,0.0,5.0,5.0,551.0308409998288,3.0,1.0,phase_2,go,300.0,100.0,1.0,,,,,,,,,blue,flipped triangle
0.0,6.0,1.0,1.0,5.0,5.0,354.6161970002686,3.0,1.0,phase_2,stop,300.0,100.0,3.0,,,,,,,,,magenta,square
0.0,2.0,1.0,0.0,6.0,6.0,345.1273119999314,3.0,1.0,phase_2,go,250.0,100.0,1.0,,,,,,,,,blue,flipped triangle
0.0,1.0,0.5,0.0,6.0,6.0,485.7366119999824,3.0,1.0,phase_2,go,250.0,100.0,1.0,,,,,,,,,cyan,circle
0.0,5.0,0.5,1.0,6.0,0.0,0.0,3.0,1.0,phase_2,stop,250.0,100.0,4.0,,,,,,,,,orange,I
0.0,6.0,1.0,1.0,6.0,0.0,0.0,3.0,1.0,phase_2,stop,250.0,150.0,4.0,,,,,,,,,magenta,square
0.0,5.0,0.5,1.0,6.0,0.0,0.0,3.0,1.0,phase_2,stop,250.0,200.0,4.0,,,,,,,,,orange,I
0.0,4.0,4.0,0.0,6.0,6.0,476.094699999976,3.0,1.0,phase_2,go,250.0,250.0,1.0,,,,,,,,,green,hexagon
0.0,6.0,1.0,1.0,5.0,0.0,0.0,3.0,1.0,phase_2,stop,250.0,250.0,4.0,,,,,,,,,magenta,square
0.0,1.0,0.5,0.0,6.0,6.0,373.2265529997676,3.0,1.0,phase_2,go,300.0,250.0,1.0,,,,,,,,,cyan,circle
0.0,7.0,2.0,1.0,5.0,5.0,263.3641679999527,3.0,1.0,phase_2,stop,300.0,250.0,3.0,,,,,,,,,yellow,triangle
0.0,7.0,2.0,1.0,6.0,0.0,0.0,3.0,1.0,phase_2,stop,250.0,250.0,4.0,,,,,,,,,yellow,triangle
0.0,4.0,4.0,0.0,5.0,5.0,504.1320850000375,3.0,1.0,phase_2,go,250.0,300.0,1.0,,,,,,,,,green,hexagon
0.0,7.0,2.0,1.0,5.0,0.0,0.0,3.0,1.0,phase_2,stop,250.0,300.0,4.0,,,,,,,,,yellow,triangle
0.0,8.0,4.0,1.0,5.0,5.0,430.1974149998386,3.0,1.0,phase_2,stop,300.0,300.0,3.0,,,,,,,,,gray,cross
0.0,5.0,0.5,1.0,5.0,0.0,0.0,3.0,1.0,phase_2,stop,250.0,300.0,4.0,,,,,,,,,orange,I
0.0,4.0,4.0,0.0,6.0,6.0,484.7051090000605,3.0,1.0,phase_2,go,300.0,300.0,1.0,,,,,,,,,green,hexagon
0.0,4.0,4.0,0.0,5.0,5.0,514.278774000104,3.0,1.0,phase_2,go,300.0,300.0,1.0,,,,,,,,,green,hexagon
0.0,4.0,4.0,0.0,5.0,5.0,382.8921039998931,3.0,1.0,phase_2,go,300.0,300.0,1.0,,,,,,,,,green,hexagon
0.0,2.0,1.0,0.0,6.0,6.0,672.4994770002013,3.0,1.0,phase_2,go,300.0,300.0,1.0,,,,,,,,,blue,flipped triangle
0.0,3.0,2.0,0.0,5.0,5.0,504.8844210000425,3.0,1.0,phase_2,go,300.0,300.0,1.0,,,,,,,,,white,diamond
0.0,6.0,1.0,1.0,6.0,0.0,0.0,3.0,1.0,phase_2,stop,300.0,300.0,4.0,,,,,,,,,magenta,square
0.0,7.0,2.0,1.0,6.0,6.0,561.7616250001447,3.0,1.0,phase_2,go,300.0,350.0,1.0,,,,,,,,,yellow,triangle
0.0,1.0,0.5,0.0,5.0,5.0,587.3643390000325,3.0,1.0,phase_2,go,300.0,350.0,1.0,,,,,,,,,cyan,circle
0.0,8.0,4.0,1.0,6.0,0.0,0.0,3.0,1.0,phase_2,stop,300.0,350.0,4.0,,,,,,,,,gray,cross
0.0,1.0,0.5,0.0,5.0,5.0,318.1291680002687,4.0,1.0,phase_2,go,300.0,400.0,1.0,,,,,,,,,cyan,circle
0.0,5.0,0.5,1.0,6.0,6.0,261.9292809999933,4.0,1.0,phase_2,stop,300.0,400.0,3.0,,,,,,,,,orange,I
0.0,2.0,1.0,0.0,5.0,5.0,410.8459659996697,4.0,1.0,phase_2,go,300.0,350.0,1.0,,,,,,,,,blue,flipped triangle
0.0,5.0,0.5,1.0,6.0,6.0,289.6137610000551,4.0,1.0,phase_2,stop,300.0,350.0,3.0,,,,,,,,,orange,I
0.0,8.0,4.0,1.0,6.0,6.0,352.9094260002239,4.0,1.0,phase_2,stop,300.0,300.0,3.0,,,,,,,,,gray,cross
0.0,3.0,2.0,0.0,6.0,6.0,439.2222589999619,4.0,1.0,phase_2,go,300.0,250.0,1.0,,,,,,,,,white,diamond
0.0,2.0,1.0,0.0,5.0,5.0,263.4897210000417,4.0,1.0,phase_2,go,300.0,250.0,1.0,,,,,,,,,blue,flipped triangle
0.0,2.0,1.0,0.0,5.0,5.0,281.236970000009,4.0,1.0,phase_2,go,300.0,250.0,1.0,,,,,,,,,blue,flipped triangle
0.0,4.0,4.0,0.0,6.0,6.0,262.2248479997324,4.0,1.0,phase_2,go,300.0,250.0,1.0,,,,,,,,,green,hexagon
0.0,5.0,0.5,1.0,5.0,5.0,353.4997299998395,4.0,1.0,phase_2,stop,300.0,250.0,3.0,,,,,,,,,orange,I
0.0,1.0,0.5,0.0,5.0,5.0,328.2949060003375,4.0,1.0,phase_2,go,250.0,250.0,1.0,,,,,,,,,cyan,circle
0.0,8.0,4.0,1.0,5.0,5.0,357.0797040001707,4.0,1.0,phase_2,stop,250.0,250.0,3.0,,,,,,,,,gray,cross
0.0,6.0,1.0,1.0,5.0,0.0,0.0,4.0,1.0,phase_2,stop,200.0,250.0,4.0,,,,,,,,,magenta,square
0.0,8.0,4.0,1.0,5.0,0.0,0.0,4.0,1.0,phase_2,stop,250.0,250.0,4.0,,,,,,,,,gray,cross
0.0,6.0,1.0,1.0,5.0,5.0,347.7315569998609,4.0,1.0,phase_2,go,300.0,250.0,1.0,,,,,,,,,magenta,square
0.0,1.0,0.5,0.0,6.0,6.0,299.4971439998153,4.0,1.0,phase_2,go,300.0,250.0,1.0,,,,,,,,,cyan,circle
0.0,8.0,4.0,1.0,5.0,5.0,346.2020609999854,4.0,1.0,phase_2,go,300.0,250.0,1.0,,,,,,,,,gray,cross
0.0,3.0,2.0,0.0,5.0,5.0,552.6478609999685,4.0,1.0,phase_2,go,300.0,250.0,1.0,,,,,,,,,white,diamond
0.0,2.0,1.0,0.0,6.0,6.0,673.0920739996691,4.0,1.0,phase_2,go,300.0,250.0,1.0,,,,,,,,,blue,flipped triangle
0.0,4.0,4.0,0.0,5.0,5.0,288.9537540004312,4.0,1.0,phase_2,go,300.0,250.0,1.0,,,,,,,,,green,hexagon
0.0,5.0,0.5,1.0,6.0,0.0,0.0,4.0,1.0,phase_2,stop,300.0,250.0,4.0,,,,,,,,,orange,I
0.0,7.0,2.0,1.0,5.0,5.0,424.4943310000053,4.0,1.0,phase_2,stop,300.0,300.0,3.0,,,,,,,,,yellow,triangle
0.0,3.0,2.0,0.0,6.0,6.0,800.8251680003013,4.0,1.0,phase_2,go,250.0,300.0,1.0,,,,,,,,,white,diamond
0.0,4.0,4.0,0.0,6.0,6.0,522.5109020002492,4.0,1.0,phase_2,go,250.0,300.0,1.0,,,,,,,,,green,hexagon
0.0,4.0,4.0,0.0,6.0,6.0,568.5373470000741,4.0,1.0,phase_2,go,250.0,300.0,1.0,,,,,,,,,green,hexagon
0.0,6.0,1.0,1.0,6.0,6.0,743.2298250000713,4.0,1.0,phase_2,go,250.0,300.0,1.0,,,,,,,,,magenta,square
0.0,5.0,0.5,1.0,6.0,6.0,336.4807070001916,4.0,1.0,phase_2,stop,250.0,300.0,3.0,,,,,,,,,orange,I
0.0,1.0,0.5,0.0,6.0,6.0,383.98469200001267,4.0,1.0,phase_2,go,250.0,250.0,1.0,,,,,,,,,cyan,circle
0.0,1.0,0.5,0.0,5.0,5.0,447.5081590003356,4.0,1.0,phase_2,go,250.0,250.0,1.0,,,,,,,,,cyan,circle
0.0,8.0,4.0,1.0,6.0,0.0,0.0,4.0,1.0,phase_2,stop,250.0,250.0,4.0,,,,,,,,,gray,cross
0.0,2.0,1.0,0.0,6.0,6.0,588.7233630000992,4.0,1.0,phase_2,go,250.0,300.0,1.0,,,,,,,,,blue,flipped triangle
0.0,3.0,2.0,0.0,5.0,5.0,289.2345010000099,4.0,1.0,phase_2,go,250.0,300.0,1.0,,,,,,,,,white,diamond
0.0,6.0,1.0,1.0,6.0,0.0,0.0,4.0,1.0,phase_2,stop,250.0,300.0,4.0,,,,,,,,,magenta,square
0.0,1.0,0.5,0.0,6.0,6.0,419.5123139998031,4.0,1.0,phase_2,go,250.0,350.0,1.0,,,,,,,,,cyan,circle
0.0,4.0,4.0,0.0,6.0,6.0,485.7101970001167,4.0,1.0,phase_2,go,250.0,350.0,1.0,,,,,,,,,green,hexagon
0.0,6.0,1.0,1.0,6.0,6.0,551.8252299998494,4.0,1.0,phase_2,go,250.0,350.0,1.0,,,,,,,,,magenta,square
0.0,5.0,0.5,1.0,5.0,5.0,437.6949570000761,5.0,1.0,phase_2,stop,250.0,350.0,3.0,,,,,,,,,orange,I
0.0,3.0,2.0,0.0,5.0,5.0,543.8199209997947,5.0,1.0,phase_2,go,200.0,350.0,1.0,,,,,,,,,white,diamond
0.0,1.0,0.5,0.0,5.0,5.0,457.6330149998284,5.0,1.0,phase_2,go,200.0,350.0,1.0,,,,,,,,,cyan,circle
0.0,6.0,1.0,1.0,6.0,6.0,393.8511950000247,5.0,1.0,phase_2,go,200.0,350.0,1.0,,,,,,,,,magenta,square
0.0,3.0,2.0,0.0,6.0,6.0,299.415252000017,5.0,1.0,phase_2,go,200.0,350.0,1.0,,,,,,,,,white,diamond
0.0,7.0,2.0,1.0,6.0,6.0,484.6196399998916,5.0,1.0,phase_2,stop,200.0,350.0,3.0,,,,,,,,,yellow,triangle
0.0,8.0,4.0,1.0,6.0,0.0,0.0,5.0,1.0,phase_2,stop,200.0,300.0,4.0,,,,,,,,,gray,cross
0.0,4.0,4.0,0.0,5.0,5.0,504.9811920002867,5.0,1.0,phase_2,go,200.0,350.0,1.0,,,,,,,,,green,hexagon
0.0,3.0,2.0,0.0,6.0,6.0,730.1112380000632,5.0,1.0,phase_2,go,200.0,350.0,1.0,,,,,,,,,white,diamond
0.0,3.0,2.0,0.0,6.0,6.0,561.2932340000043,5.0,1.0,phase_2,go,200.0,350.0,1.0,,,,,,,,,white,diamond
0.0,7.0,2.0,1.0,5.0,5.0,403.2517539999389,5.0,1.0,phase_2,go,200.0,350.0,1.0,,,,,,,,,yellow,triangle
0.0,5.0,0.5,1.0,5.0,5.0,639.0209669998512,5.0,1.0,phase_2,go,200.0,350.0,1.0,,,,,,,,,orange,I
0.0,5.0,0.5,1.0,5.0,5.0,337.7626280002914,5.0,1.0,phase_2,go,200.0,350.0,1.0,,,,,,,,,orange,I
0.0,7.0,2.0,1.0,6.0,6.0,400.9509659999821,5.0,1.0,phase_2,stop,200.0,350.0,3.0,,,,,,,,,yellow,triangle
0.0,1.0,0.5,0.0,6.0,6.0,556.7010889999437,5.0,1.0,phase_2,go,200.0,300.0,1.0,,,,,,,,,cyan,circle
0.0,8.0,4.0,1.0,5.0,0.0,0.0,5.0,1.0,phase_2,stop,200.0,300.0,4.0,,,,,,,,,gray,cross
0.0,4.0,4.0,0.0,5.0,5.0,431.5973759998996,5.0,1.0,phase_2,go,250.0,300.0,1.0,,,,,,,,,green,hexagon
0.0,1.0,0.5,0.0,5.0,5.0,477.0341169996754,5.0,1.0,phase_2,go,250.0,300.0,1.0,,,,,,,,,cyan,circle
0.0,6.0,1.0,1.0,5.0,0.0,0.0,5.0,1.0,phase_2,stop,250.0,300.0,4.0,,,,,,,,,magenta,square
0.0,2.0,1.0,0.0,5.0,5.0,579.5769490000566,5.0,1.0,phase_2,go,300.0,300.0,1.0,,,,,,,,,blue,flipped triangle
0.0,1.0,0.5,0.0,5.0,5.0,628.2423360003122,5.0,1.0,phase_2,go,300.0,300.0,1.0,,,,,,,,,cyan,circle
0.0,6.0,1.0,1.0,5.0,5.0,757.9794469997978,5.0,1.0,phase_2,go,300.0,300.0,1.0,,,,,,,,,magenta,square
0.0,1.0,0.5,0.0,6.0,6.0,694.1678079997473,5.0,1.0,phase_2,go,300.0,300.0,1.0,,,,,,,,,cyan,circle
0.0,8.0,4.0,1.0,5.0,0.0,0.0,5.0,1.0,phase_2,stop,300.0,300.0,4.0,,,,,,,,,gray,cross
0.0,5.0,0.5,1.0,5.0,0.0,0.0,5.0,1.0,phase_2,stop,350.0,300.0,4.0,,,,,,,,,orange,I
0.0,3.0,2.0,0.0,6.0,6.0,682.7976669997042,5.0,1.0,phase_2,go,400.0,300.0,1.0,,,,,,,,,white,diamond
0.0,8.0,4.0,1.0,5.0,0.0,0.0,5.0,1.0,phase_2,stop,400.0,300.0,4.0,,,,,,,,,gray,cross
0.0,1.0,0.5,0.0,5.0,5.0,648.224191999816,5.0,1.0,phase_2,go,450.0,300.0,1.0,,,,,,,,,cyan,circle
0.0,2.0,1.0,0.0,5.0,5.0,843.5794540000643,5.0,1.0,phase_2,go,450.0,300.0,1.0,,,,,,,,,blue,flipped triangle
0.0,3.0,2.0,0.0,6.0,6.0,667.1046420001403,5.0,1.0,phase_2,go,450.0,300.0,1.0,,,,,,,,,white,diamond
0.0,6.0,1.0,1.0,6.0,0.0,0.0,5.0,1.0,phase_2,stop,450.0,300.0,4.0,,,,,,,,,magenta,square
0.0,7.0,2.0,1.0,5.0,5.0,384.2971100002614,5.0,1.0,phase_2,go,450.0,350.0,1.0,,,,,,,,,yellow,triangle
0.0,4.0,4.0,0.0,6.0,6.0,607.6736909999454,5.0,1.0,phase_2,go,450.0,350.0,1.0,,,,,,,,,green,hexagon
0.0,3.0,2.0,0.0,5.0,5.0,534.1884839999693,5.0,1.0,phase_2,go,450.0,350.0,1.0,,,,,,,,,white,diamond
0.0,8.0,4.0,1.0,6.0,0.0,0.0,5.0,1.0,phase_2,stop,450.0,350.0,4.0,,,,,,,,,gray,cross
0.0,6.0,1.0,1.0,5.0,5.0,509.4490120000046,5.0,1.0,phase_2,stop,450.0,400.0,3.0,,,,,,,,,magenta,square
0.0,3.0,2.0,0.0,6.0,6.0,439.9340850000044,6.0,1.0,phase_2,go,400.0,400.0,1.0,,,,,,,,,white,diamond
0.0,8.0,4.0,1.0,6.0,6.0,581.8532610001057,6.0,1.0,phase_2,stop,400.0,400.0,3.0,,,,,,,,,gray,cross
0.0,5.0,0.5,1.0,6.0,6.0,513.5395960001006,6.0,1.0,phase_2,go,400.0,350.0,1.0,,,,,,,,,orange,I
0.0,3.0,2.0,0.0,6.0,6.0,478.3791089998885,6.0,1.0,phase_2,go,400.0,350.0,1.0,,,,,,,,,white,diamond
0.0,8.0,4.0,1.0,6.0,0.0,0.0,6.0,1.0,phase_2,stop,400.0,350.0,4.0,,,,,,,,,gray,cross
0.0,8.0,4.0,1.0,5.0,5.0,571.0470169997279,6.0,1.0,phase_2,stop,400.0,400.0,3.0,,,,,,,,,gray,cross
0.0,1.0,0.5,0.0,5.0,5.0,531.610548000117,6.0,1.0,phase_2,go,350.0,400.0,1.0,,,,,,,,,cyan,circle
0.0,2.0,1.0,0.0,6.0,6.0,664.3393550002656,6.0,1.0,phase_2,go,350.0,400.0,1.0,,,,,,,,,blue,flipped triangle
0.0,4.0,4.0,0.0,5.0,5.0,578.7110559999746,6.0,1.0,phase_2,go,350.0,400.0,1.0,,,,,,,,,green,hexagon
0.0,5.0,0.5,1.0,6.0,6.0,664.0156710000156,6.0,1.0,phase_2,go,350.0,400.0,1.0,,,,,,,,,orange,I
0.0,7.0,2.0,1.0,6.0,0.0,0.0,6.0,1.0,phase_2,stop,350.0,400.0,4.0,,,,,,,,,yellow,triangle
0.0,4.0,4.0,0.0,6.0,6.0,552.3140260002037,6.0,1.0,phase_2,go,350.0,450.0,1.0,,,,,,,,,green,hexagon
0.0,1.0,0.5,0.0,6.0,6.0,438.6261529998592,6.0,1.0,phase_2,go,350.0,450.0,1.0,,,,,,,,,cyan,circle
0.0,3.0,2.0,0.0,5.0,5.0,616.388557999926,6.0,1.0,phase_2,go,350.0,450.0,1.0,,,,,,,,,white,diamond
0.0,2.0,1.0,0.0,5.0,5.0,372.0895480000763,6.0,1.0,phase_2,go,350.0,450.0,1.0,,,,,,,,,blue,flipped triangle
0.0,4.0,4.0,0.0,6.0,6.0,476.9550549999621,6.0,1.0,phase_2,go,350.0,450.0,1.0,,,,,,,,,green,hexagon
0.0,3.0,2.0,0.0,6.0,6.0,569.4615630000044,6.0,1.0,phase_2,go,350.0,450.0,1.0,,,,,,,,,white,diamond
0.0,1.0,0.5,0.0,6.0,6.0,504.01278600020305,6.0,1.0,phase_2,go,350.0,450.0,1.0,,,,,,,,,cyan,circle
0.0,8.0,4.0,1.0,5.0,5.0,698.4411379999074,6.0,1.0,phase_2,go,350.0,450.0,1.0,,,,,,,,,gray,cross
0.0,5.0,0.5,1.0,6.0,6.0,499.4644030002746,6.0,1.0,phase_2,stop,350.0,450.0,3.0,,,,,,,,,orange,I
0.0,2.0,1.0,0.0,5.0,5.0,429.81994999991,6.0,1.0,phase_2,go,350.0,400.0,1.0,,,,,,,,,blue,flipped triangle
0.0,3.0,2.0,0.0,5.0,5.0,457.8544940000029,6.0,1.0,phase_2,go,350.0,400.0,1.0,,,,,,,,,white,diamond
0.0,6.0,1.0,1.0,5.0,5.0,337.7627339996252,6.0,1.0,phase_2,stop,350.0,400.0,3.0,,,,,,,,,magenta,square
0.0,2.0,1.0,0.0,6.0,6.0,411.5644210000937,6.0,1.0,phase_2,go,300.0,400.0,1.0,,,,,,,,,blue,flipped triangle
0.0,5.0,0.5,1.0,6.0,6.0,447.1149279997917,6.0,1.0,phase_2,stop,300.0,400.0,3.0,,,,,,,,,orange,I
0.0,1.0,0.5,0.0,5.0,5.0,345.7755849999557,6.0,1.0,phase_2,go,300.0,350.0,1.0,,,,,,,,,cyan,circle
0.0,7.0,2.0,1.0,5.0,5.0,402.1540660000937,6.0,1.0,phase_2,stop,300.0,350.0,3.0,,,,,,,,,yellow,triangle
0.0,3.0,2.0,0.0,6.0,6.0,625.7814420000614,6.0,1.0,phase_2,go,250.0,350.0,1.0,,,,,,,,,white,diamond
0.0,6.0,1.0,1.0,6.0,0.0,0.0,6.0,1.0,phase_2,stop,250.0,350.0,4.0,,,,,,,,,magenta,square
0.0,2.0,1.0,0.0,6.0,6.0,597.9272449999371,6.0,1.0,phase_2,go,250.0,400.0,1.0,,,,,,,,,blue,flipped triangle
0.0,3.0,2.0,0.0,6.0,6.0,748.7052500000573,6.0,1.0,phase_2,go,250.0,400.0,1.0,,,,,,,,,white,diamond
0.0,7.0,2.0,1.0,5.0,0.0,0.0,6.0,1.0,phase_2,stop,250.0,400.0,4.0,,,,,,,,,yellow,triangle
0.0,7.0,2.0,1.0,6.0,6.0,578.9840899997216,6.0,1.0,phase_2,stop,300.0,400.0,3.0,,,,,,,,,yellow,triangle
0.0,3.0,2.0,0.0,6.0,6.0,551.0849689999304,6.0,1.0,phase_2,go,300.0,350.0,1.0,,,,,,,,,white,diamond
0.0,2.0,1.0,0.0,5.0,5.0,363.6938459999328,6.0,1.0,phase_2,go,300.0,350.0,1.0,,,,,,,,,blue,flipped triangle
0.0,8.0,4.0,1.0,6.0,6.0,604.8715560000346,6.0,1.0,phase_2,go,300.0,350.0,1.0,,,,,,,,,gray,cross
0.0,7.0,2.0,1.0,6.0,6.0,383.3845089998249,7.0,1.0,phase_2,stop,300.0,350.0,3.0,,,,,,,,,yellow,triangle
0.0,6.0,1.0,1.0,5.0,5.0,399.3018080000183,7.0,1.0,phase_2,stop,300.0,300.0,3.0,,,,,,,,,magenta,square
0.0,3.0,2.0,0.0,5.0,5.0,410.3260209999462,7.0,1.0,phase_2,go,250.0,300.0,1.0,,,,,,,,,white,diamond
0.0,3.0,2.0,0.0,5.0,5.0,345.5733270002383,7.0,1.0,phase_2,go,250.0,300.0,1.0,,,,,,,,,white,diamond
0.0,2.0,1.0,0.0,6.0,6.0,308.6710679999669,7.0,1.0,phase_2,go,250.0,300.0,1.0,,,,,,,,,blue,flipped triangle
0.0,4.0,4.0,0.0,5.0,5.0,484.8537160000887,7.0,1.0,phase_2,go,250.0,300.0,1.0,,,,,,,,,green,hexagon
0.0,8.0,4.0,1.0,5.0,0.0,0.0,7.0,1.0,phase_2,stop,250.0,300.0,4.0,,,,,,,,,gray,cross
0.0,7.0,2.0,1.0,5.0,5.0,354.2643189998671,7.0,1.0,phase_2,stop,300.0,300.0,3.0,,,,,,,,,yellow,triangle
0.0,8.0,4.0,1.0,5.0,0.0,0.0,7.0,1.0,phase_2,stop,250.0,300.0,4.0,,,,,,,,,gray,cross
0.0,1.0,0.5,0.0,5.0,5.0,559.251932999814,7.0,1.0,phase_2,go,300.0,300.0,1.0,,,,,,,,,cyan,circle
0.0,2.0,1.0,0.0,6.0,6.0,393.5554499998943,7.0,1.0,phase_2,go,300.0,300.0,1.0,,,,,,,,,blue,flipped triangle
0.0,4.0,4.0,0.0,5.0,5.0,466.7448629998034,7.0,1.0,phase_2,go,300.0,300.0,1.0,,,,,,,,,green,hexagon
0.0,7.0,2.0,1.0,6.0,6.0,651.7148240000097,7.0,1.0,phase_2,go,300.0,300.0,1.0,,,,,,,,,yellow,triangle
0.0,4.0,4.0,0.0,6.0,6.0,440.2532109997992,7.0,1.0,phase_2,go,300.0,300.0,1.0,,,,,,,,,green,hexagon
0.0,6.0,1.0,1.0,5.0,0.0,0.0,7.0,1.0,phase_2,stop,300.0,300.0,4.0,,,,,,,,,magenta,square
0.0,5.0,0.5,1.0,6.0,0.0,0.0,7.0,1.0,phase_2,stop,350.0,300.0,4.0,,,,,,,,,orange,I
0.0,7.0,2.0,1.0,5.0,5.0,568.380869000066,7.0,1.0,phase_2,go,350.0,350.0,1.0,,,,,,,,,yellow,triangle
0.0,5.0,0.5,1.0,5.0,5.0,573.4311420001177,7.0,1.0,phase_2,go,350.0,350.0,1.0,,,,,,,,,orange,I
0.0,4.0,4.0,0.0,6.0,6.0,578.4195390006062,7.0,1.0,phase_2,go,350.0,350.0,1.0,,,,,,,,,green,hexagon
0.0,4.0,4.0,0.0,6.0,6.0,591.9575380003153,7.0,1.0,phase_2,go,350.0,350.0,1.0,,,,,,,,,green,hexagon
0.0,8.0,4.0,1.0,5.0,5.0,673.4327300000587,7.0,1.0,phase_2,go,350.0,350.0,1.0,,,,,,,,,gray,cross
0.0,5.0,0.5,1.0,6.0,0.0,0.0,7.0,1.0,phase_2,stop,350.0,350.0,4.0,,,,,,,,,orange,I
0.0,4.0,4.0,0.0,5.0,5.0,544.4012840007417,7.0,1.0,phase_2,go,350.0,400.0,1.0,,,,,,,,,green,hexagon
0.0,6.0,1.0,1.0,6.0,0.0,0.0,7.0,1.0,phase_2,stop,350.0,400.0,4.0,,,,,,,,,magenta,square
0.0,2.0,1.0,0.0,6.0,6.0,656.1936210000567,7.0,1.0,phase_2,go,350.0,450.0,1.0,,,,,,,,,blue,flipped triangle
0.0,2.0,1.0,0.0,5.0,5.0,699.7319279998919,7.0,1.0,phase_2,go,350.0,450.0,1.0,,,,,,,,,blue,flipped triangle
0.0,8.0,4.0,1.0,6.0,6.0,738.1462840003223,7.0,1.0,phase_2,go,350.0,450.0,1.0,,,,,,,,,gray,cross
0.0,5.0,0.5,1.0,5.0,5.0,731.4929710000797,7.0,1.0,phase_2,go,350.0,450.0,1.0,,,,,,,,,orange,I
0.0,3.0,2.0,0.0,5.0,5.0,737.016809999659,7.0,1.0,phase_2,go,350.0,450.0,1.0,,,,,,,,,white,diamond
0.0,4.0,4.0,0.0,6.0,6.0,665.4212289995485,7.0,1.0,phase_2,go,350.0,450.0,1.0,,,,,,,,,green,hexagon
0.0,3.0,2.0,0.0,6.0,6.0,689.662245999898,7.0,1.0,phase_2,go,350.0,450.0,1.0,,,,,,,,,white,diamond
0.0,5.0,0.5,1.0,5.0,0.0,0.0,7.0,1.0,phase_2,stop,350.0,450.0,4.0,,,,,,,,,orange,I
0.0,2.0,1.0,0.0,5.0,5.0,532.8526260000217,7.0,1.0,phase_2,go,400.0,450.0,1.0,,,,,,,,,blue,flipped triangle
0.0,8.0,4.0,1.0,6.0,6.0,671.0560000001351,7.0,1.0,phase_2,go,400.0,450.0,1.0,,,,,,,,,gray,cross
0.0,3.0,2.0,0.0,6.0,6.0,708.1541440002184,7.0,1.0,phase_2,go,400.0,450.0,1.0,,,,,,,,,white,diamond
0.0,5.0,0.5,1.0,5.0,0.0,0.0,7.0,1.0,phase_2,stop,400.0,450.0,4.0,,,,,,,,,orange,I
0.0,2.0,1.0,0.0,5.0,5.0,364.59477399967,8.0,1.0,phase_2,go,450.0,450.0,1.0,,,,,,,,,blue,flipped triangle
0.0,7.0,2.0,1.0,6.0,6.0,391.3922479996472,8.0,1.0,phase_2,stop,450.0,450.0,3.0,,,,,,,,,yellow,triangle
0.0,8.0,4.0,1.0,5.0,5.0,345.122459999402,8.0,1.0,phase_2,stop,450.0,400.0,3.0,,,,,,,,,gray,cross
0.0,7.0,2.0,1.0,6.0,6.0,468.390203999661,8.0,1.0,phase_2,stop,400.0,400.0,3.0,,,,,,,,,yellow,triangle
0.0,3.0,2.0,0.0,5.0,5.0,485.412670000187,8.0,1.0,phase_2,go,400.0,350.0,1.0,,,,,,,,,white,diamond
0.0,7.0,2.0,1.0,6.0,0.0,0.0,8.0,1.0,phase_2,stop,400.0,350.0,4.0,,,,,,,,,yellow,triangle
0.0,3.0,2.0,0.0,5.0,5.0,497.8261940004813,8.0,1.0,phase_2,go,400.0,400.0,1.0,,,,,,,,,white,diamond
0.0,1.0,0.5,0.0,5.0,5.0,495.0305219999791,8.0,1.0,phase_2,go,400.0,400.0,1.0,,,,,,,,,cyan,circle
0.0,8.0,4.0,1.0,6.0,0.0,0.0,8.0,1.0,phase_2,stop,400.0,400.0,4.0,,,,,,,,,gray,cross
0.0,7.0,2.0,1.0,5.0,0.0,0.0,8.0,1.0,phase_2,stop,400.0,450.0,4.0,,,,,,,,,yellow,triangle
0.0,5.0,0.5,1.0,5.0,0.0,0.0,8.0,1.0,phase_2,stop,450.0,450.0,4.0,,,,,,,,,orange,I
0.0,5.0,0.5,1.0,6.0,6.0,746.3102279998566,8.0,1.0,phase_2,go,500.0,450.0,1.0,,,,,,,,,orange,I
0.0,7.0,2.0,1.0,5.0,0.0,0.0,8.0,1.0,phase_2,stop,500.0,450.0,4.0,,,,,,,,,yellow,triangle
0.0,3.0,2.0,0.0,6.0,6.0,896.2155650006025,8.0,1.0,phase_2,go,550.0,450.0,1.0,,,,,,,,,white,diamond
0.0,8.0,4.0,1.0,6.0,6.0,790.6499529999564,8.0,1.0,phase_2,go,550.0,450.0,1.0,,,,,,,,,gray,cross
0.0,7.0,2.0,1.0,6.0,6.0,718.9350339995144,8.0,1.0,phase_2,go,550.0,450.0,1.0,,,,,,,,,yellow,triangle
0.0,4.0,4.0,0.0,6.0,6.0,634.8901820001629,8.0,1.0,phase_2,go,550.0,450.0,1.0,,,,,,,,,green,hexagon
0.0,2.0,1.0,0.0,5.0,5.0,642.072829999961,8.0,1.0,phase_2,go,550.0,450.0,1.0,,,,,,,,,blue,flipped triangle
0.0,1.0,0.5,0.0,5.0,5.0,447.2346729999117,8.0,1.0,phase_2,go,550.0,450.0,1.0,,,,,,,,,cyan,circle
0.0,1.0,0.5,0.0,6.0,6.0,579.9501589999636,8.0,1.0,phase_2,go,550.0,450.0,1.0,,,,,,,,,cyan,circle
0.0,1.0,0.5,0.0,5.0,5.0,491.6326419997858,8.0,1.0,phase_2,go,550.0,450.0,1.0,,,,,,,,,cyan,circle
0.0,7.0,2.0,1.0,6.0,0.0,0.0,8.0,1.0,phase_2,stop,550.0,450.0,4.0,,,,,,,,,yellow,triangle
0.0,2.0,1.0,0.0,6.0,6.0,550.1862720002464,8.0,1.0,phase_2,go,550.0,500.0,1.0,,,,,,,,,blue,flipped triangle
0.0,4.0,4.0,0.0,5.0,5.0,570.4137120001178,8.0,1.0,phase_2,go,550.0,500.0,1.0,,,,,,,,,green,hexagon
0.0,8.0,4.0,1.0,6.0,0.0,0.0,8.0,1.0,phase_2,stop,550.0,500.0,4.0,,,,,,,,,gray,cross
0.0,7.0,2.0,1.0,5.0,5.0,632.7051680000295,8.0,1.0,phase_2,go,550.0,550.0,1.0,,,,,,,,,yellow,triangle
0.0,3.0,2.0,0.0,5.0,5.0,568.7158709997675,8.0,1.0,phase_2,go,550.0,550.0,1.0,,,,,,,,,white,diamond
0.0,3.0,2.0,0.0,5.0,5.0,465.6519720001597,8.0,1.0,phase_2,go,550.0,550.0,1.0,,,,,,,,,white,diamond
0.0,7.0,2.0,1.0,6.0,6.0,714.4436260005023,8.0,1.0,phase_2,stop,550.0,550.0,3.0,,,,,,,,,yellow,triangle
0.0,7.0,2.0,1.0,6.0,0.0,0.0,8.0,1.0,phase_2,stop,550.0,500.0,4.0,,,,,,,,,yellow,triangle
0.0,7.0,2.0,1.0,5.0,0.0,0.0,8.0,1.0,phase_2,stop,550.0,550.0,4.0,,,,,,,,,yellow,triangle
0.0,4.0,4.0,0.0,6.0,6.0,606.0540569997102,8.0,1.0,phase_2,go,600.0,550.0,1.0,,,,,,,,,green,hexagon
0.0,5.0,0.5,1.0,5.0,0.0,0.0,8.0,1.0,phase_2,stop,600.0,550.0,4.0,,,,,,,,,orange,I
0.0,5.0,0.5,1.0,6.0,0.0,0.0,8.0,1.0,phase_2,stop,650.0,550.0,4.0,,,,,,,,,orange,I
0.0,3.0,2.0,0.0,5.0,5.0,542.8467290003027,8.0,1.0,phase_2,go,650.0,600.0,1.0,,,,,,,,,white,diamond
0.0,6.0,1.0,1.0,5.0,5.0,738.2175350003308,8.0,1.0,phase_2,stop,650.0,600.0,3.0,,,,,,,,,magenta,square
0.0,3.0,2.0,0.0,7.0,4.0,1345.4669719994854,1.0,2.0,phase_3,,,,,519.0,3.0,865.0,173.0,692.0,519.0,1038.0,346.0,white,diamond
0.0,2.0,1.0,0.0,7.0,4.0,2711.3815659995453,1.0,1.0,phase_3,,,,,692.0,4.0,519.0,173.0,1038.0,692.0,346.0,865.0,blue,flipped triangle
0.0,4.0,4.0,0.0,7.0,6.0,2170.7960149997234,1.0,1.0,phase_3,,,,,616.0,4.0,770.0,924.0,462.0,154.0,308.0,616.0,green,hexagon
0.0,8.0,4.0,1.0,7.0,3.0,2500.240975000452,1.0,1.0,phase_3,,,,,865.0,5.0,519.0,692.0,865.0,1038.0,346.0,173.0,gray,cross
0.0,3.0,2.0,0.0,7.0,2.0,2584.3418499998734,1.0,1.0,phase_3,,,,,768.0,4.0,960.0,768.0,1152.0,576.0,384.0,192.0,white,diamond
0.0,7.0,2.0,1.0,7.0,5.0,2256.019517999448,1.0,1.0,phase_3,,,,,960.0,5.0,768.0,1152.0,384.0,192.0,960.0,576.0,yellow,triangle
0.0,1.0,0.5,0.0,7.0,5.0,1403.648704999796,1.0,1.0,phase_3,,,,,810.0,6.0,135.0,405.0,675.0,540.0,810.0,270.0,cyan,circle
0.0,7.0,2.0,1.0,7.0,2.0,2767.199548999997,1.0,1.0,phase_3,,,,,696.0,6.0,116.0,696.0,232.0,348.0,580.0,464.0,yellow,triangle
0.0,5.0,0.5,1.0,7.0,5.0,1981.226800000513,1.0,1.0,phase_3,,,,,675.0,5.0,270.0,540.0,810.0,405.0,675.0,135.0,orange,I
0.0,4.0,4.0,0.0,7.0,2.0,2045.926752000014,1.0,1.0,phase_3,,,,,810.0,6.0,405.0,810.0,270.0,675.0,540.0,135.0,green,hexagon
0.0,1.0,0.5,0.0,7.0,2.0,2698.8776139996844,1.0,1.0,phase_3,,,,,865.0,5.0,346.0,865.0,1038.0,519.0,692.0,173.0,cyan,circle
0.0,3.0,2.0,0.0,7.0,5.0,1739.9715970004763,1.0,1.0,phase_3,,,,,675.0,5.0,270.0,135.0,810.0,405.0,675.0,540.0,white,diamond
0.0,8.0,4.0,1.0,7.0,4.0,1486.61138100033,1.0,1.0,phase_3,,,,,675.0,5.0,540.0,135.0,270.0,675.0,810.0,405.0,gray,cross
0.0,1.0,0.5,0.0,7.0,5.0,2024.4037610000305,1.0,1.0,phase_3,,,,,770.0,5.0,154.0,924.0,616.0,308.0,770.0,462.0,cyan,circle
0.0,2.0,1.0,0.0,7.0,6.0,2073.6641570001666,1.0,1.0,phase_3,,,,,768.0,4.0,960.0,384.0,1152.0,192.0,576.0,768.0,blue,flipped triangle
0.0,5.0,0.5,1.0,7.0,1.0,3094.6707610000885,1.0,1.0,phase_3,,,,,768.0,4.0,768.0,960.0,384.0,1152.0,576.0,192.0,orange,I
0.0,4.0,4.0,0.0,7.0,2.0,3043.2952959999966,1.0,1.0,phase_3,,,,,768.0,4.0,1152.0,768.0,384.0,960.0,192.0,576.0,green,hexagon
0.0,6.0,1.0,1.0,7.0,2.0,1233.9769250002064,1.0,1.0,phase_3,,,,,770.0,5.0,924.0,770.0,462.0,616.0,154.0,308.0,magenta,square
0.0,4.0,4.0,0.0,7.0,4.0,2217.7517970003464,1.0,1.0,phase_3,,,,,696.0,6.0,116.0,348.0,232.0,696.0,580.0,464.0,green,hexagon
0.0,5.0,0.5,1.0,7.0,6.0,2618.0453820006733,1.0,1.0,phase_3,,,,,865.0,5.0,346.0,692.0,173.0,519.0,1038.0,865.0,orange,I
0.0,3.0,2.0,0.0,7.0,6.0,1988.8237790000856,2.0,1.0,phase_3,,,,,770.0,5.0,616.0,924.0,154.0,308.0,462.0,770.0,white,diamond
0.0,3.0,2.0,0.0,7.0,6.0,2081.9935280005666,2.0,1.0,phase_3,,,,,865.0,5.0,346.0,1038.0,173.0,692.0,519.0,865.0,white,diamond
0.0,7.0,2.0,1.0,7.0,4.0,1309.1573720002998,2.0,1.0,phase_3,,,,,768.0,4.0,576.0,192.0,960.0,768.0,384.0,1152.0,yellow,triangle
0.0,2.0,1.0,0.0,7.0,2.0,1979.2643209993912,2.0,1.0,phase_3,,,,,810.0,6.0,270.0,810.0,135.0,405.0,675.0,540.0,blue,flipped triangle
0.0,2.0,1.0,0.0,7.0,2.0,2227.0015640006022,2.0,1.0,phase_3,,,,,696.0,6.0,116.0,696.0,348.0,580.0,232.0,464.0,blue,flipped triangle
0.0,6.0,1.0,1.0,7.0,3.0,1917.215391999889,2.0,1.0,phase_3,,,,,675.0,5.0,810.0,270.0,675.0,405.0,135.0,540.0,magenta,square
0.0,8.0,4.0,1.0,7.0,3.0,929.6022919997996,2.0,1.0,phase_3,,,,,770.0,5.0,616.0,308.0,770.0,154.0,462.0,924.0,gray,cross
0.0,8.0,4.0,1.0,7.0,6.0,1178.057756999806,2.0,1.0,phase_3,,,,,770.0,5.0,462.0,924.0,308.0,616.0,154.0,770.0,gray,cross
0.0,4.0,4.0,0.0,7.0,4.0,882.7720179997414,2.0,1.0,phase_3,,,,,810.0,6.0,405.0,540.0,270.0,810.0,675.0,135.0,green,hexagon
0.0,7.0,2.0,1.0,7.0,5.0,1982.1164579998367,2.0,1.0,phase_3,,,,,865.0,5.0,346.0,519.0,173.0,692.0,865.0,1038.0,yellow,triangle
0.0,7.0,2.0,1.0,7.0,5.0,1042.1852939998644,2.0,1.0,phase_3,,,,,810.0,6.0,540.0,675.0,135.0,405.0,810.0,270.0,yellow,triangle
0.0,3.0,2.0,0.0,7.0,3.0,2185.0348680000025,2.0,1.0,phase_3,,,,,768.0,4.0,960.0,1152.0,768.0,192.0,576.0,384.0,white,diamond
0.0,2.0,1.0,0.0,7.0,3.0,818.8973139995142,2.0,1.0,phase_3,,,,,770.0,5.0,154.0,308.0,770.0,924.0,462.0,616.0,blue,flipped triangle
0.0,2.0,1.0,0.0,7.0,2.0,1946.9929719998615,2.0,1.0,phase_3,,,,,865.0,5.0,692.0,865.0,519.0,173.0,1038.0,346.0,blue,flipped triangle
0.0,5.0,0.5,1.0,7.0,5.0,1800.0395330000174,2.0,1.0,phase_3,,,,,770.0,5.0,154.0,616.0,924.0,308.0,770.0,462.0,orange,I
0.0,4.0,4.0,0.0,7.0,6.0,1734.08081100024,2.0,1.0,phase_3,,,,,770.0,5.0,616.0,924.0,308.0,462.0,154.0,770.0,green,hexagon
0.0,8.0,4.0,1.0,7.0,4.0,2195.5359549992863,2.0,1.0,phase_3,,,,,675.0,5.0,810.0,540.0,135.0,675.0,270.0,405.0,gray,cross
0.0,1.0,0.5,0.0,7.0,6.0,2252.6344699999754,2.0,1.0,phase_3,,,,,768.0,4.0,960.0,576.0,192.0,1152.0,384.0,768.0,cyan,circle
0.0,7.0,2.0,1.0,7.0,3.0,1458.6644459996023,2.0,1.0,phase_3,,,,,924.0,6.0,462.0,770.0,924.0,616.0,308.0,154.0,yellow,triangle
0.0,5.0,0.5,1.0,7.0,3.0,2700.403169999845,2.0,1.0,phase_3,,,,,675.0,5.0,810.0,135.0,675.0,540.0,405.0,270.0,orange,I
0.0,5.0,0.5,1.0,7.0,6.0,1652.0365630003653,3.0,1.0,phase_3,,,,,696.0,6.0,464.0,116.0,232.0,348.0,580.0,696.0,orange,I
0.0,6.0,1.0,1.0,7.0,4.0,1642.773744999431,3.0,1.0,phase_3,,,,,768.0,4.0,576.0,192.0,384.0,768.0,960.0,1152.0,magenta,square
0.0,4.0,4.0,0.0,7.0,3.0,1458.702877000178,3.0,1.0,phase_3,,,,,768.0,4.0,1152.0,576.0,768.0,384.0,192.0,960.0,green,hexagon
0.0,4.0,4.0,0.0,7.0,3.0,716.3567729994611,3.0,1.0,phase_3,,,,,696.0,6.0,348.0,232.0,696.0,464.0,580.0,116.0,green,hexagon
0.0,1.0,0.5,0.0,7.0,5.0,1079.297313999632,3.0,1.0,phase_3,,,,,696.0,6.0,464.0,348.0,116.0,580.0,696.0,232.0,cyan,circle
0.0,3.0,2.0,0.0,7.0,5.0,1774.6846170002757,3.0,1.0,phase_3,,,,,675.0,5.0,135.0,810.0,270.0,540.0,675.0,405.0,white,diamond
0.0,8.0,4.0,1.0,7.0,2.0,2312.2524769996744,3.0,1.0,phase_3,,,,,696.0,6.0,232.0,696.0,116.0,464.0,580.0,348.0,gray,cross
0.0,7.0,2.0,1.0,7.0,4.0,1143.2600890002504,3.0,1.0,phase_3,,,,,865.0,5.0,1038.0,519.0,173.0,865.0,346.0,692.0,yellow,triangle
0.0,6.0,1.0,1.0,7.0,2.0,2413.4539739998218,3.0,1.0,phase_3,,,,,696.0,6.0,232.0,696.0,348.0,116.0,464.0,580.0,magenta,square
0.0,6.0,1.0,1.0,7.0,5.0,1722.80805399987,3.0,1.0,phase_3,,,,,865.0,5.0,346.0,519.0,1038.0,173.0,865.0,692.0,magenta,square
0.0,2.0,1.0,0.0,7.0,5.0,1142.6765349997368,3.0,1.0,phase_3,,,,,960.0,5.0,192.0,768.0,576.0,1152.0,960.0,384.0,blue,flipped triangle
0.0,3.0,2.0,0.0,7.0,1.0,1341.667218999646,3.0,1.0,phase_3,,,,,696.0,6.0,696.0,348.0,580.0,116.0,464.0,232.0,white,diamond
0.0,3.0,2.0,0.0,7.0,2.0,1011.4428650003902,3.0,1.0,phase_3,,,,,696.0,6.0,348.0,696.0,580.0,464.0,116.0,232.0,white,diamond
0.0,7.0,2.0,1.0,7.0,4.0,918.1179419992986,3.0,1.0,phase_3,,,,,770.0,5.0,308.0,462.0,616.0,770.0,154.0,924.0,yellow,triangle
0.0,1.0,0.5,0.0,7.0,4.0,735.1238430001104,3.0,1.0,phase_3,,,,,768.0,4.0,1152.0,576.0,192.0,768.0,960.0,384.0,cyan,circle
0.0,6.0,1.0,1.0,7.0,3.0,2041.0927090006226,3.0,1.0,phase_3,,,,,675.0,5.0,810.0,135.0,675.0,270.0,540.0,405.0,magenta,square
0.0,8.0,4.0,1.0,7.0,5.0,1321.206792999874,3.0,1.0,phase_3,,,,,768.0,4.0,192.0,384.0,576.0,960.0,768.0,1152.0,gray,cross
0.0,8.0,4.0,1.0,7.0,4.0,743.5060269999667,3.0,1.0,phase_3,,,,,768.0,4.0,576.0,960.0,192.0,768.0,1152.0,384.0,gray,cross
0.0,7.0,2.0,1.0,7.0,4.0,649.9885160001213,3.0,1.0,phase_3,,,,,696.0,6.0,232.0,116.0,348.0,696.0,464.0,580.0,yellow,triangle
0.0,6.0,1.0,1.0,7.0,2.0,1319.733367000481,3.0,1.0,phase_3,,,,,770.0,5.0,924.0,770.0,308.0,462.0,616.0,154.0,magenta,square
0.0,2.0,1.0,0.0,7.0,5.0,1152.6550179996775,4.0,1.0,phase_3,,,,,810.0,6.0,405.0,540.0,675.0,135.0,810.0,270.0,blue,flipped triangle
0.0,2.0,1.0,0.0,7.0,3.0,1149.5923929996934,4.0,1.0,phase_3,,,,,770.0,5.0,616.0,924.0,770.0,462.0,154.0,308.0,blue,flipped triangle
0.0,3.0,2.0,0.0,7.0,4.0,687.1098159999747,4.0,1.0,phase_3,,,,,770.0,5.0,462.0,924.0,154.0,770.0,308.0,616.0,white,diamond
0.0,1.0,0.5,0.0,7.0,5.0,1243.246896000528,4.0,1.0,phase_3,,,,,696.0,6.0,348.0,116.0,580.0,232.0,696.0,464.0,cyan,circle
0.0,8.0,4.0,1.0,7.0,2.0,2959.028220999244,4.0,1.0,phase_3,,,,,865.0,5.0,692.0,865.0,346.0,1038.0,519.0,173.0,gray,cross
0.0,1.0,0.5,0.0,7.0,5.0,909.8336530005326,4.0,1.0,phase_3,,,,,770.0,5.0,462.0,924.0,616.0,154.0,770.0,308.0,cyan,circle
0.0,5.0,0.5,1.0,7.0,5.0,1290.6094419995495,4.0,1.0,phase_3,,,,,865.0,5.0,346.0,692.0,1038.0,519.0,865.0,173.0,orange,I
0.0,4.0,4.0,0.0,7.0,3.0,2456.748456999776,4.0,1.0,phase_3,,,,,865.0,5.0,519.0,692.0,865.0,1038.0,346.0,173.0,green,hexagon
0.0,7.0,2.0,1.0,7.0,5.0,1142.010990000017,4.0,1.0,phase_3,,,,,810.0,6.0,270.0,135.0,675.0,405.0,810.0,540.0,yellow,triangle
0.0,6.0,1.0,1.0,7.0,1.0,1773.3401049999884,4.0,1.0,phase_3,,,,,696.0,6.0,696.0,348.0,464.0,580.0,116.0,232.0,magenta,square
0.0,1.0,0.5,0.0,7.0,5.0,1206.306380000569,4.0,1.0,phase_3,,,,,865.0,5.0,173.0,346.0,692.0,1038.0,865.0,519.0,cyan,circle
0.0,2.0,1.0,0.0,7.0,4.0,1770.6019289998949,4.0,1.0,phase_3,,,,,696.0,6.0,464.0,232.0,580.0,696.0,348.0,116.0,blue,flipped triangle
0.0,4.0,4.0,0.0,7.0,3.0,1096.841821000453,4.0,1.0,phase_3,,,,,865.0,5.0,1038.0,519.0,865.0,173.0,692.0,346.0,green,hexagon
0.0,5.0,0.5,1.0,7.0,6.0,1533.198903000084,4.0,1.0,phase_3,,,,,768.0,4.0,1152.0,192.0,960.0,384.0,576.0,768.0,orange,I
0.0,5.0,0.5,1.0,7.0,5.0,1814.2867040005517,4.0,1.0,phase_3,,,,,696.0,6.0,348.0,580.0,116.0,232.0,696.0,464.0,orange,I
0.0,6.0,1.0,1.0,7.0,2.0,2383.9871509999284,4.0,1.0,phase_3,,,,,865.0,5.0,173.0,865.0,346.0,1038.0,519.0,692.0,magenta,square
0.0,8.0,4.0,1.0,7.0,2.0,1162.7272000005178,4.0,1.0,phase_3,,,,,696.0,6.0,464.0,696.0,580.0,232.0,348.0,116.0,gray,cross
0.0,1.0,0.5,0.0,7.0,5.0,1737.0042460006516,4.0,1.0,phase_3,,,,,810.0,6.0,135.0,270.0,540.0,405.0,810.0,675.0,cyan,circle
0.0,5.0,0.5,1.0,7.0,5.0,1045.4791659994953,4.0,1.0,phase_3,,,,,770.0,5.0,154.0,462.0,924.0,308.0,770.0,616.0,orange,I
0.0,6.0,1.0,1.0,7.0,1.0,1791.0977840001578,4.0,1.0,phase_3,,,,,768.0,4.0,768.0,384.0,1152.0,576.0,192.0,960.0,magenta,square
