raw_reward_magnitude,stim_reward,stepwise_reward_magnitude,paired_with_stopping,stim_location,response,reaction_time,block,num_trial_presentations,which_phase,stop_signal_trial_type,left_SSD,right_SSD,accuracy,chosen_bidding_amount,chosen_bidding_level,possible_bid_1,possible_bid_2,possible_bid_3,possible_bid_4,possible_bid_5,possible_bid_6,color_text,shape_text
0.0,2.0,0.0,0.0,3.0,3.0,440.4464860000416,1.0,1.0,phase_1,,,,,,,,,,,,,cyan,cross
1322.0,4.0,4.0,0.0,1.0,1.0,500.33362800002124,1.0,2.0,phase_1,,,,,,,,,,,,,gray,I
344.0,6.0,2.0,1.0,4.0,4.0,432.1061360000158,1.0,1.0,phase_1,,,,,,,,,,,,,blue,flipped triangle
327.0,6.0,2.0,1.0,2.0,2.0,347.5226809999867,1.0,1.0,phase_1,,,,,,,,,,,,,blue,flipped triangle
673.0,7.0,3.0,1.0,4.0,4.0,302.2199020000471,1.0,1.0,phase_1,,,,,,,,,,,,,orange,square
672.0,3.0,3.0,0.0,2.0,2.0,420.6883120000384,1.0,2.0,phase_1,,,,,,,,,,,,,yellow,hexagon
659.0,3.0,3.0,0.0,3.0,3.0,308.4595180000633,1.0,1.0,phase_1,,,,,,,,,,,,,yellow,hexagon
0.0,4.0,0.0,0.0,2.0,2.0,471.5273040000056,1.0,1.0,phase_1,,,,,,,,,,,,,gray,I
309.0,2.0,2.0,0.0,1.0,1.0,307.9452129999254,1.0,2.0,phase_1,,,,,,,,,,,,,cyan,cross
1308.0,4.0,4.0,0.0,2.0,2.0,357.5573739999527,1.0,1.0,phase_1,,,,,,,,,,,,,gray,I
1294.0,8.0,4.0,1.0,2.0,2.0,396.1290480000343,1.0,1.0,phase_1,,,,,,,,,,,,,magenta,diamond
1277.0,4.0,4.0,0.0,3.0,3.0,303.3888600000409,1.0,1.0,phase_1,,,,,,,,,,,,,gray,I
150.0,1.0,1.0,0.0,1.0,1.0,324.1917990000047,1.0,1.0,phase_1,,,,,,,,,,,,,green,triangle
0.0,3.0,0.0,0.0,1.0,1.0,309.8958099999436,1.0,1.0,phase_1,,,,,,,,,,,,,yellow,hexagon
144.0,5.0,1.0,1.0,2.0,2.0,333.5947010000382,1.0,1.0,phase_1,,,,,,,,,,,,,white,circle
672.0,7.0,3.0,1.0,4.0,4.0,433.5957630000848,1.0,2.0,phase_1,,,,,,,,,,,,,orange,square
140.0,1.0,1.0,0.0,1.0,1.0,321.5057260000549,1.0,1.0,phase_1,,,,,,,,,,,,,green,triangle
1284.0,8.0,4.0,1.0,2.0,2.0,317.9196810000348,1.0,1.0,phase_1,,,,,,,,,,,,,magenta,diamond
1302.0,4.0,4.0,0.0,3.0,3.0,316.9561920000205,1.0,1.0,phase_1,,,,,,,,,,,,,gray,I
1306.0,4.0,4.0,0.0,4.0,4.0,288.9941339999495,1.0,1.0,phase_1,,,,,,,,,,,,,gray,I
1280.0,8.0,4.0,1.0,4.0,4.0,357.141863000038,1.0,1.0,phase_1,,,,,,,,,,,,,magenta,diamond
640.0,7.0,3.0,1.0,1.0,1.0,337.0768359999374,1.0,1.0,phase_1,,,,,,,,,,,,,orange,square
0.0,5.0,0.0,1.0,4.0,4.0,339.0376099999912,1.0,1.0,phase_1,,,,,,,,,,,,,white,circle
0.0,2.0,0.0,0.0,1.0,1.0,345.4589449999048,1.0,1.0,phase_1,,,,,,,,,,,,,cyan,cross
0.0,3.0,0.0,0.0,4.0,4.0,364.1104880000512,1.0,1.0,phase_1,,,,,,,,,,,,,yellow,hexagon
315.0,6.0,2.0,1.0,3.0,3.0,347.1329239999932,1.0,1.0,phase_1,,,,,,,,,,,,,blue,flipped triangle
335.0,6.0,2.0,1.0,3.0,3.0,326.1573539999745,1.0,1.0,phase_1,,,,,,,,,,,,,blue,flipped triangle
1319.0,8.0,4.0,1.0,3.0,3.0,314.128471999993,1.0,1.0,phase_1,,,,,,,,,,,,,magenta,diamond
1319.0,8.0,4.0,1.0,4.0,4.0,357.0517450000352,1.0,1.0,phase_1,,,,,,,,,,,,,magenta,diamond
0.0,5.0,0.0,1.0,1.0,1.0,369.0601690000221,1.0,1.0,phase_1,,,,,,,,,,,,,white,circle
333.0,6.0,2.0,1.0,4.0,4.0,349.4633390000672,1.0,1.0,phase_1,,,,,,,,,,,,,blue,flipped triangle
150.0,5.0,1.0,1.0,3.0,3.0,320.1021820000278,1.0,1.0,phase_1,,,,,,,,,,,,,white,circle
0.0,6.0,0.0,1.0,2.0,2.0,340.026641999998,1.0,2.0,phase_1,,,,,,,,,,,,,blue,flipped triangle
185.0,5.0,1.0,1.0,4.0,4.0,424.0088330000162,1.0,1.0,phase_1,,,,,,,,,,,,,white,circle
0.0,7.0,0.0,1.0,3.0,3.0,311.8238109999538,1.0,1.0,phase_1,,,,,,,,,,,,,orange,square
1277.0,8.0,4.0,1.0,2.0,2.0,295.9052890000748,1.0,1.0,phase_1,,,,,,,,,,,,,magenta,diamond
628.0,3.0,3.0,0.0,1.0,1.0,356.2083229999189,1.0,1.0,phase_1,,,,,,,,,,,,,yellow,hexagon
0.0,4.0,0.0,0.0,1.0,1.0,432.8091539999832,1.0,1.0,phase_1,,,,,,,,,,,,,gray,I
647.0,7.0,3.0,1.0,3.0,3.0,371.975271999986,1.0,1.0,phase_1,,,,,,,,,,,,,orange,square
660.0,7.0,3.0,1.0,1.0,1.0,345.9704160000001,1.0,1.0,phase_1,,,,,,,,,,,,,orange,square
304.0,2.0,2.0,0.0,3.0,3.0,287.8140779999967,1.0,1.0,phase_1,,,,,,,,,,,,,cyan,cross
143.0,1.0,1.0,0.0,1.0,1.0,366.74854799991857,1.0,1.0,phase_1,,,,,,,,,,,,,green,triangle
658.0,7.0,3.0,1.0,1.0,1.0,316.3250920000564,1.0,1.0,phase_1,,,,,,,,,,,,,orange,square
649.0,7.0,3.0,1.0,1.0,1.0,326.5832490000093,1.0,1.0,phase_1,,,,,,,,,,,,,orange,square
185.0,5.0,1.0,1.0,4.0,4.0,329.9963530000696,1.0,1.0,phase_1,,,,,,,,,,,,,white,circle
1308.0,4.0,4.0,0.0,2.0,2.0,336.7314719999967,1.0,1.0,phase_1,,,,,,,,,,,,,gray,I
344.0,2.0,2.0,0.0,3.0,3.0,287.3115889999553,1.0,1.0,phase_1,,,,,,,,,,,,,cyan,cross
166.0,1.0,1.0,0.0,3.0,3.0,338.9083440000604,1.0,1.0,phase_1,,,,,,,,,,,,,green,triangle
667.0,3.0,3.0,0.0,1.0,1.0,303.3095279999998,1.0,1.0,phase_1,,,,,,,,,,,,,yellow,hexagon
167.0,5.0,1.0,1.0,4.0,4.0,276.186710999923,1.0,1.0,phase_1,,,,,,,,,,,,,white,circle
0.0,6.0,0.0,1.0,1.0,1.0,430.6350759999304,1.0,1.0,phase_1,,,,,,,,,,,,,blue,flipped triangle
0.0,8.0,0.0,1.0,2.0,2.0,356.1044399999673,1.0,1.0,phase_1,,,,,,,,,,,,,magenta,diamond
327.0,2.0,2.0,0.0,1.0,1.0,417.5493220000135,1.0,1.0,phase_1,,,,,,,,,,,,,cyan,cross
345.0,6.0,2.0,1.0,3.0,3.0,299.6908500000472,1.0,1.0,phase_1,,,,,,,,,,,,,blue,flipped triangle
658.0,7.0,3.0,1.0,3.0,3.0,345.3182130000414,1.0,1.0,phase_1,,,,,,,,,,,,,orange,square
0.0,4.0,0.0,0.0,3.0,3.0,335.0543110000217,1.0,1.0,phase_1,,,,,,,,,,,,,gray,I
671.0,7.0,3.0,1.0,1.0,1.0,340.4764520000753,1.0,1.0,phase_1,,,,,,,,,,,,,orange,square
345.0,2.0,2.0,0.0,2.0,2.0,355.5156720000241,1.0,1.0,phase_1,,,,,,,,,,,,,cyan,cross
648.0,7.0,3.0,1.0,2.0,2.0,327.9263749999472,1.0,1.0,phase_1,,,,,,,,,,,,,orange,square
339.0,2.0,2.0,0.0,3.0,3.0,403.8417799999934,1.0,1.0,phase_1,,,,,,,,,,,,,cyan,cross
649.0,3.0,3.0,0.0,4.0,4.0,310.0073540000494,1.0,1.0,phase_1,,,,,,,,,,,,,yellow,hexagon
0.0,6.0,0.0,1.0,2.0,2.0,312.4588370000083,1.0,1.0,phase_1,,,,,,,,,,,,,blue,flipped triangle
0.0,3.0,0.0,0.0,2.0,2.0,342.1705180001027,1.0,1.0,phase_1,,,,,,,,,,,,,yellow,hexagon
157.0,1.0,1.0,0.0,4.0,4.0,299.3337300000576,1.0,1.0,phase_1,,,,,,,,,,,,,green,triangle
1299.0,8.0,4.0,1.0,1.0,1.0,362.3341339999797,1.0,1.0,phase_1,,,,,,,,,,,,,magenta,diamond
0.0,2.0,0.0,0.0,2.0,2.0,318.7053460000015,1.0,1.0,phase_1,,,,,,,,,,,,,cyan,cross
167.0,1.0,1.0,0.0,4.0,4.0,295.5003270000134,1.0,1.0,phase_1,,,,,,,,,,,,,green,triangle
1308.0,8.0,4.0,1.0,1.0,1.0,325.2035000000433,1.0,1.0,phase_1,,,,,,,,,,,,,magenta,diamond
1295.0,4.0,4.0,0.0,3.0,3.0,370.845939999981,1.0,1.0,phase_1,,,,,,,,,,,,,gray,I
0.0,6.0,0.0,1.0,3.0,3.0,311.1684080000714,1.0,1.0,phase_1,,,,,,,,,,,,,blue,flipped triangle
631.0,3.0,3.0,0.0,3.0,3.0,300.1324860000522,1.0,1.0,phase_1,,,,,,,,,,,,,yellow,hexagon
656.0,3.0,3.0,0.0,4.0,4.0,329.9854750000577,1.0,1.0,phase_1,,,,,,,,,,,,,yellow,hexagon
185.0,5.0,1.0,1.0,1.0,1.0,260.4515939999601,1.0,1.0,phase_1,,,,,,,,,,,,,white,circle
304.0,6.0,2.0,1.0,1.0,1.0,317.3895659999743,1.0,1.0,phase_1,,,,,,,,,,,,,blue,flipped triangle
0.0,5.0,0.0,1.0,1.0,1.0,308.1625089999988,1.0,1.0,phase_1,,,,,,,,,,,,,white,circle
636.0,3.0,3.0,0.0,3.0,3.0,310.7444979999627,1.0,1.0,phase_1,,,,,,,,,,,,,yellow,hexagon
316.0,6.0,2.0,1.0,2.0,2.0,332.0015490000969,1.0,1.0,phase_1,,,,,,,,,,,,,blue,flipped triangle
1277.0,4.0,4.0,0.0,2.0,2.0,348.0867049999006,1.0,2.0,phase_1,,,,,,,,,,,,,gray,I
310.0,6.0,2.0,1.0,3.0,3.0,356.1127430000397,1.0,1.0,phase_1,,,,,,,,,,,,,blue,flipped triangle
0.0,6.0,0.0,1.0,3.0,3.0,318.4277889999976,1.0,1.0,phase_1,,,,,,,,,,,,,blue,flipped triangle
1325.0,8.0,4.0,1.0,3.0,3.0,327.3647199999914,1.0,1.0,phase_1,,,,,,,,,,,,,magenta,diamond
0.0,2.0,0.0,0.0,3.0,3.0,318.4134150000091,1.0,1.0,phase_1,,,,,,,,,,,,,cyan,cross
302.0,2.0,2.0,0.0,1.0,1.0,364.1732099999899,1.0,1.0,phase_1,,,,,,,,,,,,,cyan,cross
1320.0,8.0,4.0,1.0,2.0,2.0,374.5941959999754,1.0,1.0,phase_1,,,,,,,,,,,,,magenta,diamond
639.0,3.0,3.0,0.0,1.0,1.0,357.2677570000451,1.0,1.0,phase_1,,,,,,,,,,,,,yellow,hexagon
1316.0,8.0,4.0,1.0,3.0,3.0,299.2608750000727,1.0,1.0,phase_1,,,,,,,,,,,,,magenta,diamond
181.0,1.0,1.0,0.0,4.0,4.0,291.1295960000188,1.0,1.0,phase_1,,,,,,,,,,,,,green,triangle
627.0,3.0,3.0,0.0,1.0,1.0,367.4034430000574,1.0,1.0,phase_1,,,,,,,,,,,,,yellow,hexagon
1294.0,4.0,4.0,0.0,2.0,2.0,324.1914029999861,1.0,1.0,phase_1,,,,,,,,,,,,,gray,I
166.0,5.0,1.0,1.0,3.0,3.0,280.959644999939,1.0,1.0,phase_1,,,,,,,,,,,,,white,circle
1319.0,8.0,4.0,1.0,1.0,1.0,355.0603080000201,1.0,1.0,phase_1,,,,,,,,,,,,,magenta,diamond
137.0,1.0,1.0,0.0,1.0,1.0,346.1761730000035,1.0,1.0,phase_1,,,,,,,,,,,,,green,triangle
170.0,1.0,1.0,0.0,3.0,3.0,336.8194489999041,1.0,1.0,phase_1,,,,,,,,,,,,,green,triangle
1319.0,4.0,4.0,0.0,1.0,1.0,317.3080819999541,1.0,1.0,phase_1,,,,,,,,,,,,,gray,I
626.0,3.0,3.0,0.0,3.0,3.0,337.1413580000535,1.0,1.0,phase_1,,,,,,,,,,,,,yellow,hexagon
1319.0,4.0,4.0,0.0,4.0,4.0,318.887702999973,1.0,1.0,phase_1,,,,,,,,,,,,,gray,I
1308.0,8.0,4.0,1.0,1.0,1.0,347.044705999906,1.0,1.0,phase_1,,,,,,,,,,,,,magenta,diamond
321.0,2.0,2.0,0.0,3.0,3.0,289.9449050000839,1.0,1.0,phase_1,,,,,,,,,,,,,cyan,cross
1304.0,8.0,4.0,1.0,3.0,3.0,348.08629300005117,1.0,1.0,phase_1,,,,,,,,,,,,,magenta,diamond
177.0,5.0,1.0,1.0,1.0,1.0,320.0018649999947,1.0,1.0,phase_1,,,,,,,,,,,,,white,circle
0.0,3.0,0.0,0.0,2.0,2.0,498.6886219999178,2.0,1.0,phase_1,,,,,,,,,,,,,yellow,hexagon
640.0,3.0,3.0,0.0,2.0,2.0,311.3281680000455,2.0,1.0,phase_1,,,,,,,,,,,,,yellow,hexagon
145.0,5.0,1.0,1.0,1.0,1.0,329.6902760000648,2.0,1.0,phase_1,,,,,,,,,,,,,white,circle
662.0,7.0,3.0,1.0,2.0,2.0,393.1119299998045,2.0,1.0,phase_1,,,,,,,,,,,,,orange,square
335.0,2.0,2.0,0.0,3.0,3.0,312.0907040001839,2.0,1.0,phase_1,,,,,,,,,,,,,cyan,cross
0.0,5.0,0.0,1.0,1.0,1.0,282.2282849999737,2.0,1.0,phase_1,,,,,,,,,,,,,white,circle
150.0,1.0,1.0,0.0,4.0,4.0,326.2166540000635,2.0,1.0,phase_1,,,,,,,,,,,,,green,triangle
0.0,4.0,0.0,0.0,4.0,4.0,296.4342719999422,2.0,1.0,phase_1,,,,,,,,,,,,,gray,I
0.0,4.0,0.0,0.0,4.0,4.0,331.6424619999907,2.0,1.0,phase_1,,,,,,,,,,,,,gray,I
178.0,5.0,1.0,1.0,3.0,3.0,286.3670230001389,2.0,1.0,phase_1,,,,,,,,,,,,,white,circle
1315.0,4.0,4.0,0.0,3.0,3.0,301.4938999999685,2.0,1.0,phase_1,,,,,,,,,,,,,gray,I
321.0,6.0,2.0,1.0,4.0,4.0,263.0258710000817,2.0,1.0,phase_1,,,,,,,,,,,,,blue,flipped triangle
177.0,1.0,1.0,0.0,1.0,1.0,273.0339000002004,2.0,1.0,phase_1,,,,,,,,,,,,,green,triangle
0.0,8.0,0.0,1.0,2.0,2.0,313.4055499999704,2.0,1.0,phase_1,,,,,,,,,,,,,magenta,diamond
1299.0,4.0,4.0,0.0,3.0,3.0,293.4695720000491,2.0,1.0,phase_1,,,,,,,,,,,,,gray,I
1300.0,8.0,4.0,1.0,3.0,3.0,320.3599539999686,2.0,1.0,phase_1,,,,,,,,,,,,,magenta,diamond
1306.0,8.0,4.0,1.0,3.0,3.0,309.2969859999357,2.0,1.0,phase_1,,,,,,,,,,,,,magenta,diamond
348.0,6.0,2.0,1.0,1.0,1.0,328.797712000096,2.0,1.0,phase_1,,,,,,,,,,,,,blue,flipped triangle
331.0,6.0,2.0,1.0,4.0,4.0,328.6548050000419,2.0,1.0,phase_1,,,,,,,,,,,,,blue,flipped triangle
345.0,2.0,2.0,0.0,2.0,2.0,321.7424980000487,2.0,2.0,phase_1,,,,,,,,,,,,,cyan,cross
162.0,1.0,1.0,0.0,3.0,3.0,355.3420449998157,2.0,1.0,phase_1,,,,,,,,,,,,,green,triangle
158.0,5.0,1.0,1.0,2.0,2.0,309.1198189999886,2.0,2.0,phase_1,,,,,,,,,,,,,white,circle
639.0,7.0,3.0,1.0,3.0,3.0,328.1862549999914,2.0,1.0,phase_1,,,,,,,,,,,,,orange,square
342.0,6.0,2.0,1.0,2.0,2.0,384.3974950000302,2.0,1.0,phase_1,,,,,,,,,,,,,blue,flipped triangle
0.0,1.0,0.0,0.0,1.0,1.0,364.5896040000025,2.0,1.0,phase_1,,,,,,,,,,,,,green,triangle
183.0,5.0,1.0,1.0,4.0,4.0,308.5820010001043,2.0,1.0,phase_1,,,,,,,,,,,,,white,circle
0.0,6.0,0.0,1.0,4.0,4.0,375.9317169999576,2.0,1.0,phase_1,,,,,,,,,,,,,blue,flipped triangle
636.0,7.0,3.0,1.0,4.0,4.0,384.4218450001335,2.0,1.0,phase_1,,,,,,,,,,,,,orange,square
667.0,7.0,3.0,1.0,2.0,2.0,431.1349849999715,2.0,1.0,phase_1,,,,,,,,,,,,,orange,square
662.0,7.0,3.0,1.0,2.0,2.0,473.9408349998939,2.0,1.0,phase_1,,,,,,,,,,,,,orange,square
0.0,4.0,0.0,0.0,1.0,1.0,510.8121890000348,2.0,1.0,phase_1,,,,,,,,,,,,,gray,I
334.0,6.0,2.0,1.0,1.0,1.0,348.2004410000172,2.0,1.0,phase_1,,,,,,,,,,,,,blue,flipped triangle
1284.0,8.0,4.0,1.0,4.0,4.0,287.9865489999247,2.0,1.0,phase_1,,,,,,,,,,,,,magenta,diamond
167.0,1.0,1.0,0.0,3.0,3.0,326.8844029998945,2.0,1.0,phase_1,,,,,,,,,,,,,green,triangle
319.0,6.0,2.0,1.0,4.0,4.0,337.9365879998204,2.0,1.0,phase_1,,,,,,,,,,,,,blue,flipped triangle
643.0,7.0,3.0,1.0,2.0,2.0,353.793794000012,2.0,1.0,phase_1,,,,,,,,,,,,,orange,square
156.0,5.0,1.0,1.0,2.0,2.0,392.2686509999948,2.0,1.0,phase_1,,,,,,,,,,,,,white,circle
156.0,1.0,1.0,0.0,2.0,2.0,372.0383899999433,2.0,1.0,phase_1,,,,,,,,,,,,,green,triangle
644.0,3.0,3.0,0.0,3.0,3.0,334.952076999798,2.0,1.0,phase_1,,,,,,,,,,,,,yellow,hexagon
667.0,7.0,3.0,1.0,2.0,2.0,344.5067679999738,2.0,1.0,phase_1,,,,,,,,,,,,,orange,square
667.0,3.0,3.0,0.0,2.0,2.0,365.3341770000224,2.0,1.0,phase_1,,,,,,,,,,,,,yellow,hexagon
1289.0,8.0,4.0,1.0,1.0,1.0,442.8346499998952,2.0,1.0,phase_1,,,,,,,,,,,,,magenta,diamond
1279.0,8.0,4.0,1.0,1.0,1.0,326.5865500000018,2.0,1.0,phase_1,,,,,,,,,,,,,magenta,diamond
185.0,1.0,1.0,0.0,4.0,4.0,324.2689930000324,2.0,1.0,phase_1,,,,,,,,,,,,,green,triangle
307.0,6.0,2.0,1.0,3.0,3.0,330.6420719998186,2.0,1.0,phase_1,,,,,,,,,,,,,blue,flipped triangle
315.0,2.0,2.0,0.0,2.0,2.0,343.3845260001362,2.0,1.0,phase_1,,,,,,,,,,,,,cyan,cross
170.0,5.0,1.0,1.0,2.0,2.0,355.4007190000448,2.0,1.0,phase_1,,,,,,,,,,,,,white,circle
344.0,6.0,2.0,1.0,2.0,2.0,356.3546640000368,2.0,1.0,phase_1,,,,,,,,,,,,,blue,flipped triangle
646.0,3.0,3.0,0.0,3.0,3.0,356.6172119999464,2.0,1.0,phase_1,,,,,,,,,,,,,yellow,hexagon
0.0,1.0,0.0,0.0,2.0,2.0,354.7366190000502,2.0,1.0,phase_1,,,,,,,,,,,,,green,triangle
1320.0,4.0,4.0,0.0,1.0,1.0,298.5945560001255,2.0,1.0,phase_1,,,,,,,,,,,,,gray,I
643.0,3.0,3.0,0.0,2.0,2.0,348.9386659998672,2.0,1.0,phase_1,,,,,,,,,,,,,yellow,hexagon
308.0,2.0,2.0,0.0,4.0,4.0,333.3517399998982,2.0,1.0,phase_1,,,,,,,,,,,,,cyan,cross
161.0,1.0,1.0,0.0,4.0,4.0,393.9723050000339,2.0,1.0,phase_1,,,,,,,,,,,,,green,triangle
1280.0,4.0,4.0,0.0,1.0,1.0,337.009197000043,2.0,1.0,phase_1,,,,,,,,,,,,,gray,I
0.0,1.0,0.0,0.0,3.0,3.0,308.3090629997969,2.0,1.0,phase_1,,,,,,,,,,,,,green,triangle
1284.0,4.0,4.0,0.0,1.0,1.0,337.2232560000157,2.0,1.0,phase_1,,,,,,,,,,,,,gray,I
147.0,1.0,1.0,0.0,3.0,3.0,345.4459609999958,2.0,1.0,phase_1,,,,,,,,,,,,,green,triangle
659.0,7.0,3.0,1.0,3.0,3.0,318.6979309998605,2.0,1.0,phase_1,,,,,,,,,,,,,orange,square
168.0,1.0,1.0,0.0,3.0,3.0,307.3755679999976,2.0,1.0,phase_1,,,,,,,,,,,,,green,triangle
187.0,5.0,1.0,1.0,4.0,4.0,327.6157199998124,2.0,1.0,phase_1,,,,,,,,,,,,,white,circle
0.0,7.0,0.0,1.0,3.0,3.0,263.9803629999733,2.0,1.0,phase_1,,,,,,,,,,,,,orange,square
311.0,2.0,2.0,0.0,3.0,3.0,309.0906020001966,2.0,1.0,phase_1,,,,,,,,,,,,,cyan,cross
331.0,6.0,2.0,1.0,1.0,1.0,399.0998350000154,2.0,1.0,phase_1,,,,,,,,,,,,,blue,flipped triangle
316.0,2.0,2.0,0.0,2.0,2.0,287.0980879999933,2.0,1.0,phase_1,,,,,,,,,,,,,cyan,cross
1308.0,4.0,4.0,0.0,4.0,4.0,342.8674669999054,2.0,1.0,phase_1,,,,,,,,,,,,,gray,I
634.0,3.0,3.0,0.0,2.0,2.0,324.6930230000089,2.0,1.0,phase_1,,,,,,,,,,,,,yellow,hexagon
669.0,3.0,3.0,0.0,4.0,4.0,342.6580650000232,2.0,1.0,phase_1,,,,,,,,,,,,,yellow,hexagon
1296.0,8.0,4.0,1.0,4.0,4.0,333.2037220000075,2.0,1.0,phase_1,,,,,,,,,,,,,magenta,diamond
1296.0,4.0,4.0,0.0,3.0,3.0,325.1928370000314,2.0,1.0,phase_1,,,,,,,,,,,,,gray,I
1281.0,4.0,4.0,0.0,4.0,4.0,342.5576380000166,2.0,1.0,phase_1,,,,,,,,,,,,,gray,I
142.0,1.0,1.0,0.0,2.0,2.0,316.2590040001305,2.0,1.0,phase_1,,,,,,,,,,,,,green,triangle
138.0,1.0,1.0,0.0,1.0,1.0,317.1757909999542,2.0,1.0,phase_1,,,,,,,,,,,,,green,triangle
1315.0,8.0,4.0,1.0,1.0,1.0,315.3372389999731,2.0,1.0,phase_1,,,,,,,,,,,,,magenta,diamond
1279.0,4.0,4.0,0.0,2.0,2.0,297.5710249997974,2.0,2.0,phase_1,,,,,,,,,,,,,gray,I
0.0,8.0,0.0,1.0,4.0,4.0,401.2850740000431,2.0,1.0,phase_1,,,,,,,,,,,,,magenta,diamond
348.0,2.0,2.0,0.0,1.0,1.0,454.6289100001104,2.0,1.0,phase_1,,,,,,,,,,,,,cyan,cross
646.0,7.0,3.0,1.0,2.0,2.0,354.2031039999074,2.0,1.0,phase_1,,,,,,,,,,,,,orange,square
0.0,7.0,0.0,1.0,2.0,2.0,426.6467989998546,2.0,1.0,phase_1,,,,,,,,,,,,,orange,square
185.0,1.0,1.0,0.0,1.0,1.0,435.681182000053,2.0,1.0,phase_1,,,,,,,,,,,,,green,triangle
0.0,6.0,0.0,1.0,1.0,1.0,333.9244710000457,2.0,1.0,phase_1,,,,,,,,,,,,,blue,flipped triangle
1308.0,4.0,4.0,0.0,2.0,2.0,297.6938949998384,2.0,2.0,phase_1,,,,,,,,,,,,,gray,I
150.0,5.0,1.0,1.0,1.0,1.0,371.0883569999623,2.0,1.0,phase_1,,,,,,,,,,,,,white,circle
0.0,8.0,0.0,1.0,4.0,4.0,343.872225000041,2.0,1.0,phase_1,,,,,,,,,,,,,magenta,diamond
0.0,7.0,0.0,1.0,3.0,3.0,370.9854319999977,2.0,1.0,phase_1,,,,,,,,,,,,,orange,square
151.0,1.0,1.0,0.0,2.0,2.0,399.0876539999135,2.0,1.0,phase_1,,,,,,,,,,,,,green,triangle
141.0,5.0,1.0,1.0,2.0,2.0,372.2672219998912,2.0,1.0,phase_1,,,,,,,,,,,,,white,circle
633.0,7.0,3.0,1.0,1.0,1.0,325.4850110001825,2.0,1.0,phase_1,,,,,,,,,,,,,orange,square
334.0,2.0,2.0,0.0,4.0,4.0,382.6669459999721,2.0,1.0,phase_1,,,,,,,,,,,,,cyan,cross
324.0,2.0,2.0,0.0,1.0,1.0,306.7950229999496,2.0,1.0,phase_1,,,,,,,,,,,,,cyan,cross
0.0,1.0,0.0,0.0,2.0,2.0,381.4073959999859,2.0,1.0,phase_1,,,,,,,,,,,,,green,triangle
145.0,1.0,1.0,0.0,3.0,3.0,427.1245280001494,2.0,1.0,phase_1,,,,,,,,,,,,,green,triangle
350.0,6.0,2.0,1.0,4.0,4.0,316.622352999957,2.0,1.0,phase_1,,,,,,,,,,,,,blue,flipped triangle
1305.0,8.0,4.0,1.0,3.0,3.0,299.4299609999871,2.0,1.0,phase_1,,,,,,,,,,,,,magenta,diamond
1281.0,8.0,4.0,1.0,2.0,2.0,389.4396440000491,2.0,1.0,phase_1,,,,,,,,,,,,,magenta,diamond
633.0,3.0,3.0,0.0,3.0,3.0,325.01480000019,2.0,1.0,phase_1,,,,,,,,,,,,,yellow,hexagon
334.0,6.0,2.0,1.0,3.0,3.0,362.4621910000769,2.0,1.0,phase_1,,,,,,,,,,,,,blue,flipped triangle
1279.0,8.0,4.0,1.0,2.0,2.0,297.9122809999808,2.0,1.0,phase_1,,,,,,,,,,,,,magenta,diamond
658.0,3.0,3.0,0.0,3.0,3.0,334.4521829999394,2.0,1.0,phase_1,,,,,,,,,,,,,yellow,hexagon
0.0,7.0,0.0,1.0,4.0,4.0,364.0065029999277,2.0,1.0,phase_1,,,,,,,,,,,,,orange,square
664.0,7.0,3.0,1.0,3.0,3.0,391.4440460000605,3.0,1.0,phase_1,,,,,,,,,,,,,orange,square
147.0,5.0,1.0,1.0,2.0,2.0,381.7131060000065,3.0,1.0,phase_1,,,,,,,,,,,,,white,circle
304.0,6.0,2.0,1.0,1.0,1.0,400.7843709998724,3.0,1.0,phase_1,,,,,,,,,,,,,blue,flipped triangle
342.0,2.0,2.0,0.0,2.0,2.0,316.8207050000546,3.0,1.0,phase_1,,,,,,,,,,,,,cyan,cross
0.0,5.0,0.0,1.0,1.0,1.0,325.4993210000521,3.0,1.0,phase_1,,,,,,,,,,,,,white,circle
0.0,1.0,0.0,0.0,2.0,2.0,270.1441619999514,3.0,1.0,phase_1,,,,,,,,,,,,,green,triangle
344.0,2.0,2.0,0.0,1.0,1.0,279.2238489998908,3.0,1.0,phase_1,,,,,,,,,,,,,cyan,cross
1284.0,4.0,4.0,0.0,1.0,1.0,334.3947849998585,3.0,1.0,phase_1,,,,,,,,,,,,,gray,I
1304.0,8.0,4.0,1.0,2.0,2.0,316.6129740000087,3.0,1.0,phase_1,,,,,,,,,,,,,magenta,diamond
0.0,5.0,0.0,1.0,2.0,2.0,316.5020339999955,3.0,1.0,phase_1,,,,,,,,,,,,,white,circle
0.0,1.0,0.0,0.0,1.0,1.0,270.3295109999999,3.0,1.0,phase_1,,,,,,,,,,,,,green,triangle
0.0,7.0,0.0,1.0,2.0,2.0,288.3817650001674,3.0,1.0,phase_1,,,,,,,,,,,,,orange,square
662.0,3.0,3.0,0.0,2.0,2.0,335.5660019999504,3.0,1.0,phase_1,,,,,,,,,,,,,yellow,hexagon
181.0,5.0,1.0,1.0,1.0,1.0,299.0052000000105,3.0,1.0,phase_1,,,,,,,,,,,,,white,circle
0.0,8.0,0.0,1.0,3.0,3.0,344.8141639998994,3.0,1.0,phase_1,,,,,,,,,,,,,magenta,diamond
304.0,2.0,2.0,0.0,1.0,1.0,335.1261899999826,3.0,1.0,phase_1,,,,,,,,,,,,,cyan,cross
172.0,5.0,1.0,1.0,4.0,4.0,328.0040980000649,3.0,1.0,phase_1,,,,,,,,,,,,,white,circle
664.0,3.0,3.0,0.0,1.0,1.0,288.8267540001834,3.0,1.0,phase_1,,,,,,,,,,,,,yellow,hexagon
627.0,7.0,3.0,1.0,1.0,1.0,328.3751179999399,3.0,1.0,phase_1,,,,,,,,,,,,,orange,square
162.0,1.0,1.0,0.0,1.0,1.0,345.1911660001769,3.0,1.0,phase_1,,,,,,,,,,,,,green,triangle
0.0,7.0,0.0,1.0,3.0,3.0,306.6291430000092,3.0,1.0,phase_1,,,,,,,,,,,,,orange,square
178.0,5.0,1.0,1.0,3.0,3.0,329.1479179999896,3.0,1.0,phase_1,,,,,,,,,,,,,white,circle
172.0,1.0,1.0,0.0,1.0,1.0,287.9112119999263,3.0,1.0,phase_1,,,,,,,,,,,,,green,triangle
628.0,7.0,3.0,1.0,2.0,2.0,353.2299910000347,3.0,1.0,phase_1,,,,,,,,,,,,,orange,square
167.0,5.0,1.0,1.0,3.0,3.0,287.9368270000668,3.0,1.0,phase_1,,,,,,,,,,,,,white,circle
668.0,7.0,3.0,1.0,1.0,1.0,401.5039939999951,3.0,1.0,phase_1,,,,,,,,,,,,,orange,square
673.0,3.0,3.0,0.0,4.0,4.0,297.9213470000559,3.0,1.0,phase_1,,,,,,,,,,,,,yellow,hexagon
307.0,2.0,2.0,0.0,2.0,2.0,307.63332499986967,3.0,1.0,phase_1,,,,,,,,,,,,,cyan,cross
640.0,3.0,3.0,0.0,1.0,1.0,335.8251089998703,3.0,1.0,phase_1,,,,,,,,,,,,,yellow,hexagon
0.0,1.0,0.0,0.0,3.0,3.0,325.5824309999298,3.0,1.0,phase_1,,,,,,,,,,,,,green,triangle
652.0,7.0,3.0,1.0,3.0,3.0,344.4108959999994,3.0,1.0,phase_1,,,,,,,,,,,,,orange,square
0.0,6.0,0.0,1.0,1.0,1.0,335.3576689999045,3.0,1.0,phase_1,,,,,,,,,,,,,blue,flipped triangle
0.0,2.0,0.0,0.0,4.0,4.0,354.247211000029,3.0,1.0,phase_1,,,,,,,,,,,,,cyan,cross
337.0,2.0,2.0,0.0,4.0,4.0,372.7186760002041,3.0,1.0,phase_1,,,,,,,,,,,,,cyan,cross
629.0,7.0,3.0,1.0,4.0,4.0,371.2701589997778,3.0,1.0,phase_1,,,,,,,,,,,,,orange,square
0.0,4.0,0.0,0.0,1.0,1.0,363.1860039999992,3.0,1.0,phase_1,,,,,,,,,,,,,gray,I
309.0,6.0,2.0,1.0,2.0,2.0,372.4279329999262,3.0,1.0,phase_1,,,,,,,,,,,,,blue,flipped triangle
0.0,1.0,0.0,0.0,1.0,1.0,437.8226720000384,3.0,1.0,phase_1,,,,,,,,,,,,,green,triangle
671.0,3.0,3.0,0.0,1.0,1.0,362.6729690001866,3.0,1.0,phase_1,,,,,,,,,,,,,yellow,hexagon
319.0,2.0,2.0,0.0,3.0,3.0,325.4241479999109,3.0,1.0,phase_1,,,,,,,,,,,,,cyan,cross
0.0,4.0,0.0,0.0,1.0,1.0,306.7903179999121,3.0,1.0,phase_1,,,,,,,,,,,,,gray,I
0.0,2.0,0.0,0.0,4.0,4.0,364.5360900000014,3.0,1.0,phase_1,,,,,,,,,,,,,cyan,cross
0.0,7.0,0.0,1.0,3.0,3.0,335.589832000096,3.0,1.0,phase_1,,,,,,,,,,,,,orange,square
317.0,6.0,2.0,1.0,2.0,2.0,298.4155359999931,3.0,2.0,phase_1,,,,,,,,,,,,,blue,flipped triangle
667.0,7.0,3.0,1.0,4.0,4.0,391.8432390000816,3.0,1.0,phase_1,,,,,,,,,,,,,orange,square
345.0,6.0,2.0,1.0,1.0,1.0,380.6431579998843,3.0,1.0,phase_1,,,,,,,,,,,,,blue,flipped triangle
1308.0,8.0,4.0,1.0,3.0,3.0,325.5178179999802,3.0,1.0,phase_1,,,,,,,,,,,,,magenta,diamond
158.0,1.0,1.0,0.0,3.0,3.0,372.0661129998461,3.0,1.0,phase_1,,,,,,,,,,,,,green,triangle
0.0,2.0,0.0,0.0,2.0,2.0,372.2108350000326,3.0,1.0,phase_1,,,,,,,,,,,,,cyan,cross
323.0,6.0,2.0,1.0,1.0,1.0,390.8905960001902,3.0,1.0,phase_1,,,,,,,,,,,,,blue,flipped triangle
339.0,6.0,2.0,1.0,3.0,3.0,326.1177440001575,3.0,1.0,phase_1,,,,,,,,,,,,,blue,flipped triangle
1304.0,4.0,4.0,0.0,3.0,3.0,316.9052819998796,3.0,1.0,phase_1,,,,,,,,,,,,,gray,I
663.0,3.0,3.0,0.0,4.0,4.0,372.511108000026,3.0,1.0,phase_1,,,,,,,,,,,,,yellow,hexagon
667.0,3.0,3.0,0.0,2.0,2.0,324.9158739999984,3.0,1.0,phase_1,,,,,,,,,,,,,yellow,hexagon
152.0,1.0,1.0,0.0,4.0,4.0,372.4991030001092,3.0,1.0,phase_1,,,,,,,,,,,,,green,triangle
0.0,3.0,0.0,0.0,3.0,3.0,372.4801939999906,3.0,1.0,phase_1,,,,,,,,,,,,,yellow,hexagon
1294.0,8.0,4.0,1.0,3.0,3.0,325.2662939999027,3.0,1.0,phase_1,,,,,,,,,,,,,magenta,diamond
337.0,6.0,2.0,1.0,3.0,3.0,326.2984719999622,3.0,1.0,phase_1,,,,,,,,,,,,,blue,flipped triangle
172.0,5.0,1.0,1.0,4.0,4.0,418.5693539998283,3.0,1.0,phase_1,,,,,,,,,,,,,white,circle
185.0,1.0,1.0,0.0,2.0,2.0,335.8413619998828,3.0,1.0,phase_1,,,,,,,,,,,,,green,triangle
331.0,2.0,2.0,0.0,4.0,4.0,362.1028370000658,3.0,1.0,phase_1,,,,,,,,,,,,,cyan,cross
1279.0,4.0,4.0,0.0,2.0,2.0,372.0294400000057,3.0,1.0,phase_1,,,,,,,,,,,,,gray,I
319.0,2.0,2.0,0.0,4.0,4.0,344.3550899999081,3.0,1.0,phase_1,,,,,,,,,,,,,cyan,cross
322.0,2.0,2.0,0.0,2.0,2.0,326.5016279999599,3.0,1.0,phase_1,,,,,,,,,,,,,cyan,cross
1324.0,4.0,4.0,0.0,4.0,4.0,325.5378500000461,3.0,1.0,phase_1,,,,,,,,,,,,,gray,I
178.0,1.0,1.0,0.0,3.0,3.0,344.1669699998329,3.0,1.0,phase_1,,,,,,,,,,,,,green,triangle
324.0,6.0,2.0,1.0,2.0,2.0,343.8970869999593,3.0,1.0,phase_1,,,,,,,,,,,,,blue,flipped triangle
1304.0,4.0,4.0,0.0,2.0,2.0,382.3989850000089,3.0,1.0,phase_1,,,,,,,,,,,,,gray,I
317.0,2.0,2.0,0.0,2.0,2.0,353.9361190000818,3.0,1.0,phase_1,,,,,,,,,,,,,cyan,cross
187.0,1.0,1.0,0.0,2.0,2.0,325.5477100001371,3.0,1.0,phase_1,,,,,,,,,,,,,green,triangle
1300.0,4.0,4.0,0.0,1.0,1.0,241.3632410000445,3.0,2.0,phase_1,,,,,,,,,,,,,gray,I
150.0,1.0,1.0,0.0,3.0,3.0,381.8153360000451,3.0,1.0,phase_1,,,,,,,,,,,,,green,triangle
339.0,6.0,2.0,1.0,1.0,1.0,363.3342999999058,3.0,1.0,phase_1,,,,,,,,,,,,,blue,flipped triangle
0.0,5.0,0.0,1.0,2.0,2.0,371.7827189998388,3.0,1.0,phase_1,,,,,,,,,,,,,white,circle
0.0,4.0,0.0,0.0,1.0,1.0,398.4142489998703,3.0,1.0,phase_1,,,,,,,,,,,,,gray,I
311.0,6.0,2.0,1.0,1.0,1.0,428.8226659998599,3.0,1.0,phase_1,,,,,,,,,,,,,blue,flipped triangle
1294.0,4.0,4.0,0.0,1.0,1.0,352.7250889999322,3.0,1.0,phase_1,,,,,,,,,,,,,gray,I
0.0,7.0,0.0,1.0,2.0,2.0,352.0931820000896,3.0,1.0,phase_1,,,,,,,,,,,,,orange,square
1286.0,4.0,4.0,0.0,3.0,3.0,335.3916549999667,3.0,1.0,phase_1,,,,,,,,,,,,,gray,I
647.0,3.0,3.0,0.0,3.0,3.0,334.9321939999754,3.0,1.0,phase_1,,,,,,,,,,,,,yellow,hexagon
643.0,3.0,3.0,0.0,4.0,4.0,317.0204969999304,3.0,2.0,phase_1,,,,,,,,,,,,,yellow,hexagon
0.0,8.0,0.0,1.0,4.0,4.0,390.6832170000598,3.0,1.0,phase_1,,,,,,,,,,,,,magenta,diamond
333.0,2.0,2.0,0.0,3.0,3.0,279.81151400013,3.0,2.0,phase_1,,,,,,,,,,,,,cyan,cross
182.0,5.0,1.0,1.0,2.0,2.0,363.533236999956,3.0,1.0,phase_1,,,,,,,,,,,,,white,circle
1313.0,4.0,4.0,0.0,2.0,2.0,417.7764519999982,3.0,1.0,phase_1,,,,,,,,,,,,,gray,I
1281.0,8.0,4.0,1.0,4.0,4.0,445.242349999944,3.0,1.0,phase_1,,,,,,,,,,,,,magenta,diamond
344.0,6.0,2.0,1.0,2.0,2.0,427.1882739999455,3.0,1.0,phase_1,,,,,,,,,,,,,blue,flipped triangle
182.0,1.0,1.0,0.0,4.0,4.0,474.5187050000368,3.0,1.0,phase_1,,,,,,,,,,,,,green,triangle
0.0,8.0,0.0,1.0,4.0,4.0,362.5117779999982,3.0,1.0,phase_1,,,,,,,,,,,,,magenta,diamond
144.0,1.0,1.0,0.0,4.0,4.0,345.8956649999436,3.0,1.0,phase_1,,,,,,,,,,,,,green,triangle
658.0,3.0,3.0,0.0,1.0,1.0,334.438351000017,3.0,1.0,phase_1,,,,,,,,,,,,,yellow,hexagon
1308.0,8.0,4.0,1.0,3.0,3.0,352.582282999947,3.0,1.0,phase_1,,,,,,,,,,,,,magenta,diamond
334.0,2.0,2.0,0.0,3.0,3.0,325.7717859999047,3.0,1.0,phase_1,,,,,,,,,,,,,cyan,cross
1286.0,8.0,4.0,1.0,2.0,2.0,491.6594789999635,3.0,1.0,phase_1,,,,,,,,,,,,,magenta,diamond
308.0,6.0,2.0,1.0,1.0,1.0,354.0659960001449,3.0,2.0,phase_1,,,,,,,,,,,,,blue,flipped triangle
0.0,3.0,0.0,0.0,1.0,1.0,427.2906290000264,3.0,1.0,phase_1,,,,,,,,,,,,,yellow,hexagon
660.0,3.0,3.0,0.0,1.0,1.0,353.5268999999061,3.0,1.0,phase_1,,,,,,,,,,,,,yellow,hexagon
0.0,5.0,0.0,1.0,3.0,3.0,371.0200179998537,3.0,1.0,phase_1,,,,,,,,,,,,,white,circle
165.0,1.0,1.0,0.0,4.0,4.0,390.8465269998942,3.0,2.0,phase_1,,,,,,,,,,,,,green,triangle
151.0,5.0,1.0,1.0,3.0,3.0,373.5092229999281,3.0,1.0,phase_1,,,,,,,,,,,,,white,circle
150.0,5.0,1.0,1.0,2.0,2.0,565.556153999978,4.0,1.0,phase_1,,,,,,,,,,,,,white,circle
0.0,5.0,0.0,1.0,2.0,2.0,343.897269000081,4.0,1.0,phase_1,,,,,,,,,,,,,white,circle
165.0,5.0,1.0,1.0,1.0,1.0,410.7607930000085,4.0,1.0,phase_1,,,,,,,,,,,,,white,circle
1287.0,4.0,4.0,0.0,4.0,4.0,335.8682159998807,4.0,1.0,phase_1,,,,,,,,,,,,,gray,I
1279.0,4.0,4.0,0.0,2.0,2.0,410.1754529999653,4.0,1.0,phase_1,,,,,,,,,,,,,gray,I
331.0,2.0,2.0,0.0,1.0,1.0,400.5134779999935,4.0,1.0,phase_1,,,,,,,,,,,,,cyan,cross
0.0,8.0,0.0,1.0,1.0,1.0,343.9045740001347,4.0,1.0,phase_1,,,,,,,,,,,,,magenta,diamond
1286.0,8.0,4.0,1.0,4.0,4.0,464.5364870000321,4.0,1.0,phase_1,,,,,,,,,,,,,magenta,diamond
323.0,2.0,2.0,0.0,1.0,1.0,372.0352450000064,4.0,1.0,phase_1,,,,,,,,,,,,,cyan,cross
1281.0,4.0,4.0,0.0,4.0,4.0,401.1290290000033,4.0,1.0,phase_1,,,,,,,,,,,,,gray,I
161.0,5.0,1.0,1.0,1.0,1.0,381.1587879999933,4.0,1.0,phase_1,,,,,,,,,,,,,white,circle
631.0,7.0,3.0,1.0,3.0,3.0,353.3426510000481,4.0,1.0,phase_1,,,,,,,,,,,,,orange,square
183.0,1.0,1.0,0.0,2.0,2.0,454.74335800008697,4.0,1.0,phase_1,,,,,,,,,,,,,green,triangle
138.0,1.0,1.0,0.0,2.0,2.0,438.4172780000881,4.0,1.0,phase_1,,,,,,,,,,,,,green,triangle
639.0,7.0,3.0,1.0,1.0,1.0,334.2098069999792,4.0,1.0,phase_1,,,,,,,,,,,,,orange,square
1325.0,4.0,4.0,0.0,4.0,4.0,362.4597210000502,4.0,1.0,phase_1,,,,,,,,,,,,,gray,I
650.0,3.0,3.0,0.0,4.0,4.0,409.081776999983,4.0,1.0,phase_1,,,,,,,,,,,,,yellow,hexagon
0.0,1.0,0.0,0.0,4.0,4.0,390.3089939999518,4.0,1.0,phase_1,,,,,,,,,,,,,green,triangle
0.0,6.0,0.0,1.0,2.0,2.0,436.9935289998921,4.0,1.0,phase_1,,,,,,,,,,,,,blue,flipped triangle
626.0,7.0,3.0,1.0,2.0,2.0,381.2000069999612,4.0,1.0,phase_1,,,,,,,,,,,,,orange,square
168.0,5.0,1.0,1.0,1.0,1.0,381.7133449999801,4.0,1.0,phase_1,,,,,,,,,,,,,white,circle
350.0,2.0,2.0,0.0,4.0,4.0,353.9317069999015,4.0,1.0,phase_1,,,,,,,,,,,,,cyan,cross
0.0,1.0,0.0,0.0,2.0,2.0,450.8354469999176,4.0,1.0,phase_1,,,,,,,,,,,,,green,triangle
1279.0,8.0,4.0,1.0,1.0,1.0,345.4153440000027,4.0,1.0,phase_1,,,,,,,,,,,,,magenta,diamond
0.0,8.0,0.0,1.0,2.0,2.0,427.8966710000986,4.0,1.0,phase_1,,,,,,,,,,,,,magenta,diamond
1313.0,8.0,4.0,1.0,1.0,1.0,307.0603209998808,4.0,1.0,phase_1,,,,,,,,,,,,,magenta,diamond
336.0,6.0,2.0,1.0,3.0,3.0,400.2582740001799,4.0,1.0,phase_1,,,,,,,,,,,,,blue,flipped triangle
178.0,1.0,1.0,0.0,2.0,2.0,577.0963579998352,4.0,1.0,phase_1,,,,,,,,,,,,,green,triangle
300.0,2.0,2.0,0.0,3.0,3.0,382.6435299999957,4.0,1.0,phase_1,,,,,,,,,,,,,cyan,cross
143.0,5.0,1.0,1.0,3.0,3.0,381.2636580000799,4.0,1.0,phase_1,,,,,,,,,,,,,white,circle
656.0,7.0,3.0,1.0,3.0,3.0,362.7852170000096,4.0,1.0,phase_1,,,,,,,,,,,,,orange,square
138.0,5.0,1.0,1.0,2.0,2.0,465.5946889999995,4.0,1.0,phase_1,,,,,,,,,,,,,white,circle
1316.0,4.0,4.0,0.0,3.0,3.0,437.4095030000262,4.0,1.0,phase_1,,,,,,,,,,,,,gray,I
0.0,5.0,0.0,1.0,4.0,4.0,365.1557640000646,4.0,1.0,phase_1,,,,,,,,,,,,,white,circle
310.0,2.0,2.0,0.0,4.0,4.0,407.6839720000862,4.0,1.0,phase_1,,,,,,,,,,,,,cyan,cross
140.0,5.0,1.0,1.0,4.0,4.0,363.4092659999623,4.0,1.0,phase_1,,,,,,,,,,,,,white,circle
336.0,2.0,2.0,0.0,4.0,4.0,418.8126579999789,4.0,1.0,phase_1,,,,,,,,,,,,,cyan,cross
640.0,7.0,3.0,1.0,2.0,2.0,436.9322270001703,4.0,1.0,phase_1,,,,,,,,,,,,,orange,square
339.0,2.0,2.0,0.0,2.0,2.0,326.4687410000988,4.0,1.0,phase_1,,,,,,,,,,,,,cyan,cross
0.0,3.0,0.0,0.0,3.0,3.0,344.123503999981,4.0,1.0,phase_1,,,,,,,,,,,,,yellow,hexagon
0.0,7.0,0.0,1.0,3.0,3.0,398.4731929999725,4.0,1.0,phase_1,,,,,,,,,,,,,orange,square
172.0,1.0,1.0,0.0,2.0,2.0,455.6556770000952,4.0,1.0,phase_1,,,,,,,,,,,,,green,triangle
152.0,5.0,1.0,1.0,1.0,1.0,464.0272569999979,4.0,1.0,phase_1,,,,,,,,,,,,,white,circle
300.0,6.0,2.0,1.0,4.0,4.0,436.9856289999916,4.0,1.0,phase_1,,,,,,,,,,,,,blue,flipped triangle
302.0,6.0,2.0,1.0,4.0,4.0,372.3268819999248,4.0,1.0,phase_1,,,,,,,,,,,,,blue,flipped triangle
634.0,7.0,3.0,1.0,4.0,4.0,363.2685319998927,4.0,1.0,phase_1,,,,,,,,,,,,,orange,square
671.0,3.0,3.0,0.0,2.0,2.0,429.6866729998783,4.0,1.0,phase_1,,,,,,,,,,,,,yellow,hexagon
1313.0,8.0,4.0,1.0,2.0,2.0,334.672006999881,4.0,1.0,phase_1,,,,,,,,,,,,,magenta,diamond
648.0,3.0,3.0,0.0,1.0,1.0,391.2315200000194,4.0,1.0,phase_1,,,,,,,,,,,,,yellow,hexagon
310.0,6.0,2.0,1.0,4.0,4.0,408.678153999972,4.0,1.0,phase_1,,,,,,,,,,,,,blue,flipped triangle
180.0,5.0,1.0,1.0,2.0,2.0,372.9213960000379,4.0,1.0,phase_1,,,,,,,,,,,,,white,circle
162.0,5.0,1.0,1.0,4.0,4.0,410.2975839998635,4.0,1.0,phase_1,,,,,,,,,,,,,white,circle
650.0,7.0,3.0,1.0,4.0,4.0,371.3761450001129,4.0,1.0,phase_1,,,,,,,,,,,,,orange,square
1286.0,4.0,4.0,0.0,3.0,3.0,334.9369439999918,4.0,1.0,phase_1,,,,,,,,,,,,,gray,I
644.0,7.0,3.0,1.0,4.0,4.0,371.95640799996,4.0,1.0,phase_1,,,,,,,,,,,,,orange,square
1287.0,8.0,4.0,1.0,4.0,4.0,372.4427250001554,4.0,1.0,phase_1,,,,,,,,,,,,,magenta,diamond
0.0,3.0,0.0,0.0,2.0,2.0,371.3105659999201,4.0,1.0,phase_1,,,,,,,,,,,,,yellow,hexagon
1322.0,8.0,4.0,1.0,1.0,1.0,372.6524530000006,4.0,1.0,phase_1,,,,,,,,,,,,,magenta,diamond
652.0,3.0,3.0,0.0,2.0,2.0,268.7993700001243,4.0,2.0,phase_1,,,,,,,,,,,,,yellow,hexagon
157.0,5.0,1.0,1.0,4.0,4.0,427.4040949999289,4.0,1.0,phase_1,,,,,,,,,,,,,white,circle
663.0,7.0,3.0,1.0,3.0,3.0,445.3061570000045,4.0,1.0,phase_1,,,,,,,,,,,,,orange,square
1313.0,4.0,4.0,0.0,4.0,4.0,427.3130120000132,4.0,1.0,phase_1,,,,,,,,,,,,,gray,I
327.0,6.0,2.0,1.0,4.0,4.0,483.4550769999168,4.0,1.0,phase_1,,,,,,,,,,,,,blue,flipped triangle
1319.0,4.0,4.0,0.0,1.0,1.0,426.7929719999301,4.0,1.0,phase_1,,,,,,,,,,,,,gray,I
1295.0,8.0,4.0,1.0,4.0,4.0,399.0864469999451,4.0,1.0,phase_1,,,,,,,,,,,,,magenta,diamond
310.0,2.0,2.0,0.0,2.0,2.0,417.7205219998541,4.0,1.0,phase_1,,,,,,,,,,,,,cyan,cross
0.0,2.0,0.0,0.0,2.0,2.0,352.2201440000572,4.0,1.0,phase_1,,,,,,,,,,,,,cyan,cross
639.0,3.0,3.0,0.0,2.0,2.0,361.9768040000508,4.0,1.0,phase_1,,,,,,,,,,,,,yellow,hexagon
662.0,3.0,3.0,0.0,3.0,3.0,305.9148680001726,4.0,1.0,phase_1,,,,,,,,,,,,,yellow,hexagon
0.0,3.0,0.0,0.0,1.0,1.0,353.7273070000992,4.0,1.0,phase_1,,,,,,,,,,,,,yellow,hexagon
668.0,3.0,3.0,0.0,4.0,4.0,260.4618309999296,4.0,1.0,phase_1,,,,,,,,,,,,,yellow,hexagon
0.0,6.0,0.0,1.0,3.0,3.0,324.5729960001426,4.0,1.0,phase_1,,,,,,,,,,,,,blue,flipped triangle
0.0,8.0,0.0,1.0,4.0,4.0,361.6805050000948,4.0,1.0,phase_1,,,,,,,,,,,,,magenta,diamond
137.0,5.0,1.0,1.0,3.0,3.0,334.2396959999405,4.0,1.0,phase_1,,,,,,,,,,,,,white,circle
327.0,2.0,2.0,0.0,4.0,4.0,296.8151459999717,4.0,1.0,phase_1,,,,,,,,,,,,,cyan,cross
162.0,5.0,1.0,1.0,1.0,1.0,335.4595220000647,4.0,1.0,phase_1,,,,,,,,,,,,,white,circle
1324.0,8.0,4.0,1.0,2.0,2.0,325.1434149999568,4.0,1.0,phase_1,,,,,,,,,,,,,magenta,diamond
322.0,6.0,2.0,1.0,2.0,2.0,388.725678000128,4.0,1.0,phase_1,,,,,,,,,,,,,blue,flipped triangle
138.0,5.0,1.0,1.0,3.0,3.0,380.2561309998964,4.0,1.0,phase_1,,,,,,,,,,,,,white,circle
671.0,7.0,3.0,1.0,4.0,4.0,335.19292699998,4.0,1.0,phase_1,,,,,,,,,,,,,orange,square
643.0,7.0,3.0,1.0,4.0,4.0,372.059937999893,4.0,1.0,phase_1,,,,,,,,,,,,,orange,square
0.0,2.0,0.0,0.0,4.0,4.0,379.7474509999574,4.0,1.0,phase_1,,,,,,,,,,,,,cyan,cross
141.0,1.0,1.0,0.0,1.0,1.0,342.5089760003175,4.0,1.0,phase_1,,,,,,,,,,,,,green,triangle
180.0,1.0,1.0,0.0,2.0,2.0,380.7417120001446,4.0,1.0,phase_1,,,,,,,,,,,,,green,triangle
1302.0,8.0,4.0,1.0,4.0,4.0,360.6683279999743,4.0,1.0,phase_1,,,,,,,,,,,,,magenta,diamond
310.0,6.0,2.0,1.0,3.0,3.0,370.8912560000499,4.0,1.0,phase_1,,,,,,,,,,,,,blue,flipped triangle
0.0,3.0,0.0,0.0,4.0,4.0,446.4371989997744,4.0,1.0,phase_1,,,,,,,,,,,,,yellow,hexagon
626.0,7.0,3.0,1.0,1.0,1.0,547.6072569999815,4.0,1.0,phase_1,,,,,,,,,,,,,orange,square
0.0,4.0,0.0,0.0,4.0,4.0,351.4680099997349,4.0,1.0,phase_1,,,,,,,,,,,,,gray,I
1277.0,8.0,4.0,1.0,4.0,4.0,400.3777980001359,4.0,1.0,phase_1,,,,,,,,,,,,,magenta,diamond
626.0,3.0,3.0,0.0,4.0,4.0,370.6967960001748,4.0,1.0,phase_1,,,,,,,,,,,,,yellow,hexagon
319.0,6.0,2.0,1.0,2.0,2.0,398.873821000052,4.0,1.0,phase_1,,,,,,,,,,,,,blue,flipped triangle
344.0,2.0,2.0,0.0,4.0,4.0,343.0185239999446,4.0,1.0,phase_1,,,,,,,,,,,,,cyan,cross
1305.0,4.0,4.0,0.0,4.0,4.0,399.2915899998479,4.0,1.0,phase_1,,,,,,,,,,,,,gray,I
1289.0,4.0,4.0,0.0,1.0,1.0,539.2855250001958,4.0,1.0,phase_1,,,,,,,,,,,,,gray,I
142.0,5.0,1.0,1.0,3.0,3.0,362.9121620001569,4.0,1.0,phase_1,,,,,,,,,,,,,white,circle
0.0,2.0,0.0,0.0,2.0,2.0,342.4745459997211,4.0,1.0,phase_1,,,,,,,,,,,,,cyan,cross
669.0,7.0,3.0,1.0,3.0,3.0,408.3959750000758,4.0,1.0,phase_1,,,,,,,,,,,,,orange,square
310.0,2.0,2.0,0.0,1.0,1.0,371.777338999891,4.0,1.0,phase_1,,,,,,,,,,,,,cyan,cross
629.0,3.0,3.0,0.0,4.0,4.0,354.1386659999261,4.0,1.0,phase_1,,,,,,,,,,,,,yellow,hexagon
0.0,4.0,4.0,0.0,6.0,6.0,430.2338060001602,1.0,1.0,phase_2,go,250.0,250.0,1.0,,,,,,,,,gray,I
0.0,6.0,2.0,1.0,6.0,0.0,0.0,1.0,1.0,phase_2,stop,250.0,250.0,4.0,,,,,,,,,blue,flipped triangle
0.0,3.0,3.0,0.0,6.0,6.0,331.7485099996702,1.0,1.0,phase_2,go,250.0,300.0,1.0,,,,,,,,,yellow,hexagon
0.0,1.0,1.0,0.0,6.0,6.0,309.1740400000162,1.0,1.0,phase_2,go,250.0,300.0,1.0,,,,,,,,,green,triangle
0.0,2.0,2.0,0.0,5.0,5.0,337.1885560000009,1.0,1.0,phase_2,go,250.0,300.0,1.0,,,,,,,,,cyan,cross
0.0,7.0,3.0,1.0,5.0,5.0,340.5499420000524,1.0,1.0,phase_2,stop,250.0,300.0,3.0,,,,,,,,,orange,square
0.0,7.0,3.0,1.0,5.0,5.0,384.6139039997069,1.0,1.0,phase_2,stop,200.0,300.0,3.0,,,,,,,,,orange,square
0.0,7.0,3.0,1.0,6.0,6.0,278.4678300004088,1.0,1.0,phase_2,stop,150.0,300.0,3.0,,,,,,,,,orange,square
0.0,8.0,4.0,1.0,6.0,6.0,335.9273710002526,1.0,1.0,phase_2,go,150.0,250.0,1.0,,,,,,,,,magenta,diamond
0.0,1.0,1.0,0.0,5.0,5.0,348.9137379997373,1.0,1.0,phase_2,go,150.0,250.0,1.0,,,,,,,,,green,triangle
0.0,2.0,2.0,0.0,6.0,6.0,355.208679000043,1.0,1.0,phase_2,go,150.0,250.0,1.0,,,,,,,,,cyan,cross
0.0,3.0,3.0,0.0,6.0,6.0,328.6214909999216,1.0,1.0,phase_2,go,150.0,250.0,1.0,,,,,,,,,yellow,hexagon
0.0,6.0,2.0,1.0,5.0,5.0,286.699007000152,1.0,1.0,phase_2,stop,150.0,250.0,3.0,,,,,,,,,blue,flipped triangle
0.0,5.0,1.0,1.0,5.0,5.0,506.674245999875,1.0,1.0,phase_2,stop,100.0,250.0,3.0,,,,,,,,,white,circle
0.0,8.0,4.0,1.0,6.0,6.0,305.1467219997903,1.0,1.0,phase_2,stop,50.0,250.0,3.0,,,,,,,,,magenta,diamond
0.0,1.0,1.0,0.0,5.0,5.0,271.7072659997939,1.0,1.0,phase_2,go,50.0,200.0,1.0,,,,,,,,,green,triangle
0.0,1.0,1.0,0.0,5.0,5.0,366.199048999988,1.0,1.0,phase_2,go,50.0,200.0,1.0,,,,,,,,,green,triangle
0.0,4.0,4.0,0.0,6.0,6.0,337.8442960001848,1.0,1.0,phase_2,go,50.0,200.0,1.0,,,,,,,,,gray,I
0.0,6.0,2.0,1.0,6.0,6.0,349.9569030000202,1.0,1.0,phase_2,stop,50.0,200.0,3.0,,,,,,,,,blue,flipped triangle
0.0,2.0,2.0,0.0,6.0,6.0,551.8231119999655,1.0,1.0,phase_2,go,50.0,150.0,1.0,,,,,,,,,cyan,cross
0.0,1.0,1.0,0.0,5.0,5.0,383.325897999839,1.0,1.0,phase_2,go,50.0,150.0,1.0,,,,,,,,,green,triangle
0.0,5.0,1.0,1.0,6.0,6.0,514.3433729999742,1.0,1.0,phase_2,go,50.0,150.0,1.0,,,,,,,,,white,circle
0.0,8.0,4.0,1.0,6.0,6.0,402.7191929999389,1.0,1.0,phase_2,go,50.0,150.0,1.0,,,,,,,,,magenta,diamond
0.0,3.0,3.0,0.0,5.0,5.0,317.8626860003533,1.0,1.0,phase_2,go,50.0,150.0,1.0,,,,,,,,,yellow,hexagon
0.0,1.0,1.0,0.0,6.0,6.0,281.2514480001482,1.0,1.0,phase_2,go,50.0,150.0,1.0,,,,,,,,,green,triangle
0.0,7.0,3.0,1.0,5.0,0.0,0.0,1.0,1.0,phase_2,stop,50.0,150.0,4.0,,,,,,,,,orange,square
0.0,6.0,2.0,1.0,5.0,0.0,0.0,1.0,1.0,phase_2,stop,100.0,150.0,4.0,,,,,,,,,blue,flipped triangle
0.0,2.0,2.0,0.0,6.0,6.0,308.8500580001891,1.0,1.0,phase_2,go,150.0,150.0,1.0,,,,,,,,,cyan,cross
0.0,1.0,1.0,0.0,6.0,6.0,318.080049999935,1.0,1.0,phase_2,go,150.0,150.0,1.0,,,,,,,,,green,triangle
0.0,2.0,2.0,0.0,5.0,5.0,411.5242359998774,1.0,1.0,phase_2,go,150.0,150.0,1.0,,,,,,,,,cyan,cross
0.0,2.0,2.0,0.0,6.0,6.0,355.1517380001314,1.0,1.0,phase_2,go,150.0,150.0,1.0,,,,,,,,,cyan,cross
0.0,5.0,1.0,1.0,6.0,0.0,0.0,1.0,1.0,phase_2,stop,150.0,150.0,4.0,,,,,,,,,white,circle
0.0,5.0,1.0,1.0,5.0,0.0,0.0,1.0,1.0,phase_2,stop,150.0,200.0,4.0,,,,,,,,,white,circle
0.0,6.0,2.0,1.0,5.0,5.0,333.7790959999438,1.0,1.0,phase_2,stop,200.0,200.0,3.0,,,,,,,,,blue,flipped triangle
0.0,2.0,2.0,0.0,6.0,6.0,366.3827379996291,1.0,1.0,phase_2,go,150.0,200.0,1.0,,,,,,,,,cyan,cross
0.0,7.0,3.0,1.0,5.0,0.0,0.0,1.0,1.0,phase_2,stop,150.0,200.0,4.0,,,,,,,,,orange,square
0.0,8.0,4.0,1.0,6.0,6.0,314.1896840002118,2.0,1.0,phase_2,stop,200.0,200.0,3.0,,,,,,,,,magenta,diamond
0.0,4.0,4.0,0.0,6.0,6.0,347.8112200000396,2.0,1.0,phase_2,go,200.0,150.0,1.0,,,,,,,,,gray,I
0.0,4.0,4.0,0.0,6.0,6.0,365.4805000001033,2.0,1.0,phase_2,go,200.0,150.0,1.0,,,,,,,,,gray,I
0.0,6.0,2.0,1.0,5.0,5.0,323.6560870000176,2.0,1.0,phase_2,stop,200.0,150.0,3.0,,,,,,,,,blue,flipped triangle
0.0,5.0,1.0,1.0,6.0,0.0,0.0,2.0,1.0,phase_2,stop,150.0,150.0,4.0,,,,,,,,,white,circle
0.0,7.0,3.0,1.0,6.0,6.0,329.087920999882,2.0,1.0,phase_2,go,150.0,200.0,1.0,,,,,,,,,orange,square
0.0,6.0,2.0,1.0,6.0,6.0,329.6684649999406,2.0,1.0,phase_2,stop,150.0,200.0,3.0,,,,,,,,,blue,flipped triangle
0.0,2.0,2.0,0.0,5.0,5.0,460.3113590001157,2.0,1.0,phase_2,go,150.0,150.0,1.0,,,,,,,,,cyan,cross
0.0,6.0,2.0,1.0,5.0,5.0,366.6016820002369,2.0,1.0,phase_2,go,150.0,150.0,1.0,,,,,,,,,blue,flipped triangle
0.0,5.0,1.0,1.0,5.0,5.0,337.9935600000863,2.0,1.0,phase_2,stop,150.0,150.0,3.0,,,,,,,,,white,circle
0.0,3.0,3.0,0.0,6.0,6.0,411.6986330000145,2.0,1.0,phase_2,go,100.0,150.0,1.0,,,,,,,,,yellow,hexagon
0.0,3.0,3.0,0.0,6.0,6.0,478.1970300000466,2.0,1.0,phase_2,go,100.0,150.0,1.0,,,,,,,,,yellow,hexagon
0.0,3.0,3.0,0.0,5.0,5.0,346.2850920000164,2.0,1.0,phase_2,go,100.0,150.0,1.0,,,,,,,,,yellow,hexagon
0.0,8.0,4.0,1.0,6.0,6.0,269.0248120002252,2.0,1.0,phase_2,stop,100.0,150.0,3.0,,,,,,,,,magenta,diamond
0.0,4.0,4.0,0.0,5.0,5.0,356.7101369999363,2.0,1.0,phase_2,go,100.0,100.0,1.0,,,,,,,,,gray,I
0.0,5.0,1.0,1.0,6.0,0.0,0.0,2.0,1.0,phase_2,stop,100.0,100.0,4.0,,,,,,,,,white,circle
0.0,8.0,4.0,1.0,5.0,5.0,337.6859070003775,2.0,1.0,phase_2,go,100.0,150.0,1.0,,,,,,,,,magenta,diamond
0.0,3.0,3.0,0.0,5.0,5.0,326.3620549996631,2.0,1.0,phase_2,go,100.0,150.0,1.0,,,,,,,,,yellow,hexagon
0.0,6.0,2.0,1.0,6.0,6.0,337.68700300015547,2.0,1.0,phase_2,go,100.0,150.0,1.0,,,,,,,,,blue,flipped triangle
0.0,5.0,1.0,1.0,6.0,6.0,368.5937069999454,2.0,1.0,phase_2,stop,100.0,150.0,3.0,,,,,,,,,white,circle
0.0,5.0,1.0,1.0,5.0,5.0,449.5009199999913,2.0,1.0,phase_2,go,100.0,100.0,1.0,,,,,,,,,white,circle
0.0,6.0,2.0,1.0,6.0,0.0,0.0,2.0,1.0,phase_2,stop,100.0,100.0,4.0,,,,,,,,,blue,flipped triangle
0.0,8.0,4.0,1.0,5.0,5.0,393.1546359999629,2.0,1.0,phase_2,go,100.0,150.0,1.0,,,,,,,,,magenta,diamond
0.0,1.0,1.0,0.0,6.0,6.0,354.9978579999333,2.0,1.0,phase_2,go,100.0,150.0,1.0,,,,,,,,,green,triangle
0.0,4.0,4.0,0.0,5.0,5.0,364.5827390000704,2.0,1.0,phase_2,go,100.0,150.0,1.0,,,,,,,,,gray,I
0.0,7.0,3.0,1.0,5.0,0.0,0.0,2.0,1.0,phase_2,stop,100.0,150.0,4.0,,,,,,,,,orange,square
0.0,2.0,2.0,0.0,6.0,6.0,383.7834240002848,2.0,1.0,phase_2,go,150.0,150.0,1.0,,,,,,,,,cyan,cross
0.0,5.0,1.0,1.0,5.0,0.0,0.0,2.0,1.0,phase_2,stop,150.0,150.0,4.0,,,,,,,,,white,circle
0.0,5.0,1.0,1.0,6.0,0.0,0.0,2.0,1.0,phase_2,stop,200.0,150.0,4.0,,,,,,,,,white,circle
0.0,2.0,2.0,0.0,6.0,6.0,421.5184230001796,2.0,1.0,phase_2,go,200.0,200.0,1.0,,,,,,,,,cyan,cross
0.0,7.0,3.0,1.0,6.0,6.0,347.7119090002816,2.0,1.0,phase_2,stop,200.0,200.0,3.0,,,,,,,,,orange,square
0.0,1.0,1.0,0.0,6.0,6.0,544.318215000203,2.0,1.0,phase_2,go,200.0,150.0,1.0,,,,,,,,,green,triangle
0.0,7.0,3.0,1.0,5.0,0.0,0.0,2.0,1.0,phase_2,stop,200.0,150.0,4.0,,,,,,,,,orange,square
0.0,6.0,2.0,1.0,6.0,6.0,357.5648969999747,2.0,1.0,phase_2,go,250.0,150.0,1.0,,,,,,,,,blue,flipped triangle
0.0,8.0,4.0,1.0,6.0,0.0,0.0,2.0,1.0,phase_2,stop,250.0,150.0,4.0,,,,,,,,,magenta,diamond
0.0,7.0,3.0,1.0,6.0,6.0,367.621101000168,2.0,1.0,phase_2,stop,250.0,200.0,3.0,,,,,,,,,orange,square
0.0,8.0,4.0,1.0,6.0,0.0,0.0,3.0,1.0,phase_2,stop,250.0,150.0,4.0,,,,,,,,,magenta,diamond
0.0,1.0,1.0,0.0,5.0,5.0,365.4276060001393,3.0,1.0,phase_2,go,250.0,200.0,1.0,,,,,,,,,green,triangle
0.0,2.0,2.0,0.0,5.0,5.0,374.3686699999671,3.0,1.0,phase_2,go,250.0,200.0,1.0,,,,,,,,,cyan,cross
0.0,6.0,2.0,1.0,5.0,5.0,361.4631539999209,3.0,1.0,phase_2,stop,250.0,200.0,3.0,,,,,,,,,blue,flipped triangle
0.0,4.0,4.0,0.0,5.0,5.0,429.7830809996412,3.0,1.0,phase_2,go,200.0,200.0,1.0,,,,,,,,,gray,I
0.0,8.0,4.0,1.0,6.0,6.0,355.9187020000536,3.0,1.0,phase_2,stop,200.0,200.0,3.0,,,,,,,,,magenta,diamond
0.0,3.0,3.0,0.0,5.0,5.0,458.2472179999968,3.0,1.0,phase_2,go,200.0,150.0,1.0,,,,,,,,,yellow,hexagon
0.0,3.0,3.0,0.0,5.0,5.0,309.7409310003058,3.0,1.0,phase_2,go,200.0,150.0,1.0,,,,,,,,,yellow,hexagon
0.0,2.0,2.0,0.0,6.0,6.0,338.0970249995698,3.0,1.0,phase_2,go,200.0,150.0,1.0,,,,,,,,,cyan,cross
0.0,1.0,1.0,0.0,5.0,5.0,439.074858999902,3.0,1.0,phase_2,go,200.0,150.0,1.0,,,,,,,,,green,triangle
0.0,4.0,4.0,0.0,6.0,6.0,356.4154599998801,3.0,1.0,phase_2,go,200.0,150.0,1.0,,,,,,,,,gray,I
0.0,1.0,1.0,0.0,5.0,5.0,392.731585999627,3.0,1.0,phase_2,go,200.0,150.0,1.0,,,,,,,,,green,triangle
0.0,1.0,1.0,0.0,5.0,5.0,477.2980279999501,3.0,1.0,phase_2,go,200.0,150.0,1.0,,,,,,,,,green,triangle
0.0,5.0,1.0,1.0,6.0,6.0,338.3996689999549,3.0,1.0,phase_2,go,200.0,150.0,1.0,,,,,,,,,white,circle
0.0,1.0,1.0,0.0,5.0,5.0,338.0164129998775,3.0,1.0,phase_2,go,200.0,150.0,1.0,,,,,,,,,green,triangle
0.0,8.0,4.0,1.0,5.0,0.0,0.0,3.0,1.0,phase_2,stop,200.0,150.0,4.0,,,,,,,,,magenta,diamond
0.0,7.0,3.0,1.0,5.0,5.0,388.3393380001507,3.0,1.0,phase_2,stop,250.0,150.0,3.0,,,,,,,,,orange,square
0.0,8.0,4.0,1.0,6.0,6.0,374.5433489998504,3.0,1.0,phase_2,go,200.0,150.0,1.0,,,,,,,,,magenta,diamond
0.0,8.0,4.0,1.0,6.0,0.0,0.0,3.0,1.0,phase_2,stop,200.0,150.0,4.0,,,,,,,,,magenta,diamond
0.0,7.0,3.0,1.0,6.0,6.0,365.6553669998175,3.0,1.0,phase_2,stop,200.0,200.0,3.0,,,,,,,,,orange,square
0.0,4.0,4.0,0.0,5.0,5.0,570.5990310002562,3.0,1.0,phase_2,go,200.0,150.0,1.0,,,,,,,,,gray,I
0.0,1.0,1.0,0.0,6.0,6.0,402.1076899998661,3.0,1.0,phase_2,go,200.0,150.0,1.0,,,,,,,,,green,triangle
0.0,5.0,1.0,1.0,6.0,0.0,0.0,3.0,1.0,phase_2,stop,200.0,150.0,4.0,,,,,,,,,white,circle
0.0,6.0,2.0,1.0,5.0,5.0,374.6322619999773,3.0,1.0,phase_2,go,200.0,200.0,1.0,,,,,,,,,blue,flipped triangle
0.0,7.0,3.0,1.0,6.0,0.0,0.0,3.0,1.0,phase_2,stop,200.0,200.0,4.0,,,,,,,,,orange,square
0.0,4.0,4.0,0.0,5.0,5.0,413.077309000073,3.0,1.0,phase_2,go,200.0,250.0,1.0,,,,,,,,,gray,I
0.0,4.0,4.0,0.0,5.0,5.0,449.6204629999738,3.0,1.0,phase_2,go,200.0,250.0,1.0,,,,,,,,,gray,I
0.0,1.0,1.0,0.0,6.0,6.0,423.3417059999738,3.0,1.0,phase_2,go,200.0,250.0,1.0,,,,,,,,,green,triangle
0.0,8.0,4.0,1.0,5.0,0.0,0.0,3.0,1.0,phase_2,stop,200.0,250.0,4.0,,,,,,,,,magenta,diamond
0.0,6.0,2.0,1.0,6.0,6.0,402.9578859999674,3.0,1.0,phase_2,go,250.0,250.0,1.0,,,,,,,,,blue,flipped triangle
0.0,1.0,1.0,0.0,6.0,6.0,421.2841020002997,3.0,1.0,phase_2,go,250.0,250.0,1.0,,,,,,,,,green,triangle
0.0,7.0,3.0,1.0,6.0,0.0,0.0,3.0,1.0,phase_2,stop,250.0,250.0,4.0,,,,,,,,,orange,square
0.0,2.0,2.0,0.0,5.0,5.0,346.988233999582,3.0,1.0,phase_2,go,250.0,300.0,1.0,,,,,,,,,cyan,cross
0.0,5.0,1.0,1.0,5.0,5.0,570.9433870001703,3.0,1.0,phase_2,go,250.0,300.0,1.0,,,,,,,,,white,circle
0.0,7.0,3.0,1.0,5.0,5.0,330.6956840001476,3.0,1.0,phase_2,stop,250.0,300.0,3.0,,,,,,,,,orange,square
0.0,4.0,4.0,0.0,5.0,5.0,440.55587899993037,3.0,1.0,phase_2,go,200.0,300.0,1.0,,,,,,,,,gray,I
0.0,5.0,1.0,1.0,6.0,6.0,411.5217839998877,4.0,1.0,phase_2,stop,200.0,300.0,3.0,,,,,,,,,white,circle
0.0,6.0,2.0,1.0,6.0,6.0,319.973359999949,4.0,1.0,phase_2,stop,200.0,250.0,3.0,,,,,,,,,blue,flipped triangle
0.0,3.0,3.0,0.0,6.0,6.0,366.4287780002269,4.0,1.0,phase_2,go,200.0,200.0,1.0,,,,,,,,,yellow,hexagon
0.0,8.0,4.0,1.0,5.0,5.0,394.5539340002142,4.0,1.0,phase_2,stop,200.0,200.0,3.0,,,,,,,,,magenta,diamond
0.0,8.0,4.0,1.0,6.0,6.0,458.5951579997527,4.0,1.0,phase_2,go,150.0,200.0,1.0,,,,,,,,,magenta,diamond
0.0,7.0,3.0,1.0,6.0,0.0,0.0,4.0,1.0,phase_2,stop,150.0,200.0,4.0,,,,,,,,,orange,square
0.0,4.0,4.0,0.0,6.0,6.0,375.6784829997741,4.0,1.0,phase_2,go,150.0,250.0,1.0,,,,,,,,,gray,I
0.0,5.0,1.0,1.0,5.0,0.0,0.0,4.0,1.0,phase_2,stop,150.0,250.0,4.0,,,,,,,,,white,circle
0.0,7.0,3.0,1.0,5.0,0.0,0.0,4.0,1.0,phase_2,stop,200.0,250.0,4.0,,,,,,,,,orange,square
0.0,3.0,3.0,0.0,5.0,5.0,590.2662349999446,4.0,1.0,phase_2,go,250.0,250.0,1.0,,,,,,,,,yellow,hexagon
0.0,2.0,2.0,0.0,5.0,5.0,478.4433149998222,4.0,1.0,phase_2,go,250.0,250.0,1.0,,,,,,,,,cyan,cross
0.0,5.0,1.0,1.0,6.0,6.0,355.9252390000438,4.0,1.0,phase_2,go,250.0,250.0,1.0,,,,,,,,,white,circle
0.0,7.0,3.0,1.0,6.0,0.0,0.0,4.0,1.0,phase_2,stop,250.0,250.0,4.0,,,,,,,,,orange,square
0.0,8.0,4.0,1.0,6.0,6.0,496.2816540000858,4.0,1.0,phase_2,stop,250.0,300.0,3.0,,,,,,,,,magenta,diamond
0.0,1.0,1.0,0.0,5.0,5.0,449.0892019998682,4.0,1.0,phase_2,go,250.0,250.0,1.0,,,,,,,,,green,triangle
0.0,5.0,1.0,1.0,5.0,0.0,0.0,4.0,1.0,phase_2,stop,250.0,250.0,4.0,,,,,,,,,white,circle
0.0,6.0,2.0,1.0,6.0,0.0,0.0,4.0,1.0,phase_2,stop,300.0,250.0,4.0,,,,,,,,,blue,flipped triangle
0.0,4.0,4.0,0.0,5.0,5.0,309.5779010000115,4.0,1.0,phase_2,go,300.0,300.0,1.0,,,,,,,,,gray,I
0.0,5.0,1.0,1.0,6.0,0.0,0.0,4.0,1.0,phase_2,stop,300.0,300.0,4.0,,,,,,,,,white,circle
0.0,5.0,1.0,1.0,6.0,6.0,507.2895349999271,4.0,1.0,phase_2,stop,300.0,350.0,3.0,,,,,,,,,white,circle
0.0,4.0,4.0,0.0,6.0,6.0,514.7078420000071,4.0,1.0,phase_2,go,300.0,300.0,1.0,,,,,,,,,gray,I
0.0,2.0,2.0,0.0,6.0,6.0,617.4667369996314,4.0,1.0,phase_2,go,300.0,300.0,1.0,,,,,,,,,cyan,cross
0.0,1.0,1.0,0.0,6.0,6.0,449.1907079996053,4.0,1.0,phase_2,go,300.0,300.0,1.0,,,,,,,,,green,triangle
0.0,4.0,4.0,0.0,6.0,6.0,422.258223999961,4.0,1.0,phase_2,go,300.0,300.0,1.0,,,,,,,,,gray,I
0.0,6.0,2.0,1.0,5.0,5.0,434.5954440000241,4.0,1.0,phase_2,stop,300.0,300.0,3.0,,,,,,,,,blue,flipped triangle
0.0,3.0,3.0,0.0,5.0,5.0,450.5897640001421,4.0,1.0,phase_2,go,250.0,300.0,1.0,,,,,,,,,yellow,hexagon
0.0,3.0,3.0,0.0,6.0,6.0,516.1950579999939,4.0,1.0,phase_2,go,250.0,300.0,1.0,,,,,,,,,yellow,hexagon
0.0,2.0,2.0,0.0,5.0,5.0,430.1418929999272,4.0,1.0,phase_2,go,250.0,300.0,1.0,,,,,,,,,cyan,cross
0.0,2.0,2.0,0.0,5.0,5.0,354.8472010002115,4.0,1.0,phase_2,go,250.0,300.0,1.0,,,,,,,,,cyan,cross
0.0,6.0,2.0,1.0,5.0,0.0,0.0,4.0,1.0,phase_2,stop,250.0,300.0,4.0,,,,,,,,,blue,flipped triangle
0.0,1.0,1.0,0.0,5.0,5.0,364.7627079999438,4.0,1.0,phase_2,go,300.0,300.0,1.0,,,,,,,,,green,triangle
0.0,2.0,2.0,0.0,5.0,5.0,429.6084259999588,4.0,1.0,phase_2,go,300.0,300.0,1.0,,,,,,,,,cyan,cross
0.0,2.0,2.0,0.0,5.0,5.0,430.2466190001723,4.0,1.0,phase_2,go,300.0,300.0,1.0,,,,,,,,,cyan,cross
0.0,6.0,2.0,1.0,5.0,0.0,0.0,4.0,1.0,phase_2,stop,300.0,300.0,4.0,,,,,,,,,blue,flipped triangle
0.0,7.0,3.0,1.0,6.0,6.0,514.385506999588,4.0,1.0,phase_2,stop,350.0,300.0,3.0,,,,,,,,,orange,square
0.0,2.0,2.0,0.0,5.0,5.0,466.3056150002376,4.0,1.0,phase_2,go,350.0,250.0,1.0,,,,,,,,,cyan,cross
0.0,2.0,2.0,0.0,6.0,6.0,421.2674540003718,5.0,1.0,phase_2,go,350.0,250.0,1.0,,,,,,,,,cyan,cross
0.0,2.0,2.0,0.0,6.0,6.0,485.8041870002125,5.0,1.0,phase_2,go,350.0,250.0,1.0,,,,,,,,,cyan,cross
0.0,4.0,4.0,0.0,5.0,5.0,468.8879969999107,5.0,1.0,phase_2,go,350.0,250.0,1.0,,,,,,,,,gray,I
0.0,3.0,3.0,0.0,5.0,5.0,433.3862869998484,5.0,1.0,phase_2,go,350.0,250.0,1.0,,,,,,,,,yellow,hexagon
0.0,5.0,1.0,1.0,6.0,6.0,347.2028930000306,5.0,1.0,phase_2,go,350.0,250.0,1.0,,,,,,,,,white,circle
0.0,8.0,4.0,1.0,5.0,5.0,431.8570270002055,5.0,1.0,phase_2,stop,350.0,250.0,3.0,,,,,,,,,magenta,diamond
0.0,1.0,1.0,0.0,6.0,6.0,542.6382379996539,5.0,1.0,phase_2,go,300.0,250.0,1.0,,,,,,,,,green,triangle
0.0,4.0,4.0,0.0,5.0,5.0,384.8202929998479,5.0,1.0,phase_2,go,300.0,250.0,1.0,,,,,,,,,gray,I
0.0,5.0,1.0,1.0,5.0,0.0,0.0,5.0,1.0,phase_2,stop,300.0,250.0,4.0,,,,,,,,,white,circle
0.0,7.0,3.0,1.0,6.0,6.0,321.0142739999355,5.0,1.0,phase_2,stop,350.0,250.0,3.0,,,,,,,,,orange,square
0.0,2.0,2.0,0.0,5.0,5.0,430.1825910001753,5.0,1.0,phase_2,go,350.0,200.0,1.0,,,,,,,,,cyan,cross
0.0,8.0,4.0,1.0,5.0,5.0,466.8293839999933,5.0,1.0,phase_2,stop,350.0,200.0,3.0,,,,,,,,,magenta,diamond
0.0,6.0,2.0,1.0,5.0,5.0,393.563852999705,5.0,1.0,phase_2,go,300.0,200.0,1.0,,,,,,,,,blue,flipped triangle
0.0,8.0,4.0,1.0,6.0,0.0,0.0,5.0,1.0,phase_2,stop,300.0,200.0,4.0,,,,,,,,,magenta,diamond
0.0,6.0,2.0,1.0,6.0,0.0,0.0,5.0,1.0,phase_2,stop,300.0,250.0,4.0,,,,,,,,,blue,flipped triangle
0.0,2.0,2.0,0.0,5.0,5.0,317.9380550000132,5.0,1.0,phase_2,go,300.0,300.0,1.0,,,,,,,,,cyan,cross
0.0,4.0,4.0,0.0,6.0,6.0,393.0713489999107,5.0,1.0,phase_2,go,300.0,300.0,1.0,,,,,,,,,gray,I
0.0,1.0,1.0,0.0,6.0,6.0,524.9347809999563,5.0,1.0,phase_2,go,300.0,300.0,1.0,,,,,,,,,green,triangle
0.0,3.0,3.0,0.0,6.0,6.0,347.0910020000701,5.0,1.0,phase_2,go,300.0,300.0,1.0,,,,,,,,,yellow,hexagon
0.0,8.0,4.0,1.0,5.0,5.0,505.2790820000155,5.0,1.0,phase_2,go,300.0,300.0,1.0,,,,,,,,,magenta,diamond
0.0,2.0,2.0,0.0,6.0,6.0,300.2633789997162,5.0,1.0,phase_2,go,300.0,300.0,1.0,,,,,,,,,cyan,cross
0.0,7.0,3.0,1.0,6.0,6.0,351.8117510002412,5.0,1.0,phase_2,stop,300.0,300.0,3.0,,,,,,,,,orange,square
0.0,6.0,2.0,1.0,6.0,0.0,0.0,5.0,1.0,phase_2,stop,300.0,250.0,4.0,,,,,,,,,blue,flipped triangle
0.0,2.0,2.0,0.0,6.0,6.0,514.5827409996855,5.0,1.0,phase_2,go,300.0,300.0,1.0,,,,,,,,,cyan,cross
0.0,4.0,4.0,0.0,5.0,5.0,469.8409610000453,5.0,1.0,phase_2,go,300.0,300.0,1.0,,,,,,,,,gray,I
0.0,4.0,4.0,0.0,6.0,6.0,523.6751659999754,5.0,1.0,phase_2,go,300.0,300.0,1.0,,,,,,,,,gray,I
0.0,1.0,1.0,0.0,6.0,6.0,441.596854999716,5.0,1.0,phase_2,go,300.0,300.0,1.0,,,,,,,,,green,triangle
0.0,6.0,2.0,1.0,5.0,5.0,413.3884670000043,5.0,1.0,phase_2,stop,300.0,300.0,3.0,,,,,,,,,blue,flipped triangle
0.0,4.0,4.0,0.0,6.0,6.0,485.7340349999504,5.0,1.0,phase_2,go,250.0,300.0,1.0,,,,,,,,,gray,I
0.0,5.0,1.0,1.0,5.0,5.0,411.2520419998873,5.0,1.0,phase_2,go,250.0,300.0,1.0,,,,,,,,,white,circle
0.0,1.0,1.0,0.0,6.0,6.0,384.2018249997636,5.0,1.0,phase_2,go,250.0,300.0,1.0,,,,,,,,,green,triangle
0.0,1.0,1.0,0.0,5.0,5.0,553.5689150001417,5.0,1.0,phase_2,go,250.0,300.0,1.0,,,,,,,,,green,triangle
0.0,2.0,2.0,0.0,5.0,5.0,401.9593170000917,5.0,1.0,phase_2,go,250.0,300.0,1.0,,,,,,,,,cyan,cross
0.0,8.0,4.0,1.0,6.0,6.0,447.8625209999336,5.0,1.0,phase_2,stop,250.0,300.0,3.0,,,,,,,,,magenta,diamond
0.0,3.0,3.0,0.0,6.0,6.0,515.8001390000209,5.0,1.0,phase_2,go,250.0,250.0,1.0,,,,,,,,,yellow,hexagon
0.0,3.0,3.0,0.0,6.0,6.0,355.9888499999033,5.0,1.0,phase_2,go,250.0,250.0,1.0,,,,,,,,,yellow,hexagon
0.0,6.0,2.0,1.0,6.0,6.0,309.463740999945,6.0,1.0,phase_2,go,250.0,250.0,1.0,,,,,,,,,blue,flipped triangle
0.0,6.0,2.0,1.0,5.0,5.0,357.9064169998673,6.0,1.0,phase_2,stop,250.0,250.0,3.0,,,,,,,,,blue,flipped triangle
0.0,3.0,3.0,0.0,6.0,6.0,373.7787349996324,6.0,1.0,phase_2,go,200.0,250.0,1.0,,,,,,,,,yellow,hexagon
0.0,2.0,2.0,0.0,6.0,6.0,459.271544999865,6.0,1.0,phase_2,go,200.0,250.0,1.0,,,,,,,,,cyan,cross
0.0,4.0,4.0,0.0,5.0,5.0,354.9659949999295,6.0,1.0,phase_2,go,200.0,250.0,1.0,,,,,,,,,gray,I
0.0,4.0,4.0,0.0,5.0,5.0,376.376627999889,6.0,1.0,phase_2,go,200.0,250.0,1.0,,,,,,,,,gray,I
0.0,3.0,3.0,0.0,5.0,5.0,320.1538109997273,6.0,1.0,phase_2,go,200.0,250.0,1.0,,,,,,,,,yellow,hexagon
0.0,7.0,3.0,1.0,5.0,5.0,456.9388099998832,6.0,1.0,phase_2,go,200.0,250.0,1.0,,,,,,,,,orange,square
0.0,3.0,3.0,0.0,5.0,5.0,465.9432340004059,6.0,1.0,phase_2,go,200.0,250.0,1.0,,,,,,,,,yellow,hexagon
0.0,3.0,3.0,0.0,5.0,5.0,375.144621000345,6.0,1.0,phase_2,go,200.0,250.0,1.0,,,,,,,,,yellow,hexagon
0.0,5.0,1.0,1.0,5.0,0.0,0.0,6.0,1.0,phase_2,stop,200.0,250.0,4.0,,,,,,,,,white,circle
0.0,4.0,4.0,0.0,6.0,6.0,439.9395420000473,6.0,1.0,phase_2,go,250.0,250.0,1.0,,,,,,,,,gray,I
0.0,5.0,1.0,1.0,6.0,6.0,422.2060489996693,6.0,1.0,phase_2,stop,250.0,250.0,3.0,,,,,,,,,white,circle
0.0,7.0,3.0,1.0,5.0,5.0,516.592811999999,6.0,1.0,phase_2,go,250.0,200.0,1.0,,,,,,,,,orange,square
0.0,3.0,3.0,0.0,5.0,5.0,394.1848570002548,6.0,1.0,phase_2,go,250.0,200.0,1.0,,,,,,,,,yellow,hexagon
0.0,6.0,2.0,1.0,5.0,0.0,0.0,6.0,1.0,phase_2,stop,250.0,200.0,4.0,,,,,,,,,blue,flipped triangle
0.0,2.0,2.0,0.0,5.0,5.0,431.945412999994,6.0,1.0,phase_2,go,300.0,200.0,1.0,,,,,,,,,cyan,cross
0.0,8.0,4.0,1.0,5.0,5.0,431.9133740000325,6.0,1.0,phase_2,stop,300.0,200.0,3.0,,,,,,,,,magenta,diamond
0.0,3.0,3.0,0.0,6.0,6.0,479.394616999798,6.0,1.0,phase_2,go,250.0,200.0,1.0,,,,,,,,,yellow,hexagon
0.0,8.0,4.0,1.0,5.0,0.0,0.0,6.0,1.0,phase_2,stop,250.0,200.0,4.0,,,,,,,,,magenta,diamond
0.0,4.0,4.0,0.0,5.0,5.0,496.3071320003109,6.0,1.0,phase_2,go,300.0,200.0,1.0,,,,,,,,,gray,I
0.0,5.0,1.0,1.0,5.0,5.0,407.6628009997876,6.0,1.0,phase_2,stop,300.0,200.0,3.0,,,,,,,,,white,circle
0.0,4.0,4.0,0.0,6.0,6.0,459.8963920002461,6.0,1.0,phase_2,go,250.0,200.0,1.0,,,,,,,,,gray,I
0.0,6.0,2.0,1.0,5.0,0.0,0.0,6.0,1.0,phase_2,stop,250.0,200.0,4.0,,,,,,,,,blue,flipped triangle
0.0,2.0,2.0,0.0,5.0,5.0,458.5769889999938,6.0,1.0,phase_2,go,300.0,200.0,1.0,,,,,,,,,cyan,cross
0.0,8.0,4.0,1.0,6.0,0.0,0.0,6.0,1.0,phase_2,stop,300.0,200.0,4.0,,,,,,,,,magenta,diamond
0.0,3.0,3.0,0.0,6.0,6.0,507.2534169999017,6.0,1.0,phase_2,go,300.0,250.0,1.0,,,,,,,,,yellow,hexagon
0.0,1.0,1.0,0.0,5.0,5.0,488.0963579998933,6.0,1.0,phase_2,go,300.0,250.0,1.0,,,,,,,,,green,triangle
0.0,7.0,3.0,1.0,6.0,6.0,376.0607140002321,6.0,1.0,phase_2,go,300.0,250.0,1.0,,,,,,,,,orange,square
0.0,7.0,3.0,1.0,5.0,0.0,0.0,6.0,1.0,phase_2,stop,300.0,250.0,4.0,,,,,,,,,orange,square
0.0,6.0,2.0,1.0,5.0,5.0,477.2412049997001,6.0,1.0,phase_2,stop,350.0,250.0,3.0,,,,,,,,,blue,flipped triangle
0.0,8.0,4.0,1.0,6.0,6.0,449.5679209999252,6.0,1.0,phase_2,go,300.0,250.0,1.0,,,,,,,,,magenta,diamond
0.0,6.0,2.0,1.0,6.0,6.0,491.0903509999116,6.0,1.0,phase_2,go,300.0,250.0,1.0,,,,,,,,,blue,flipped triangle
0.0,3.0,3.0,0.0,6.0,6.0,553.2924329995694,6.0,1.0,phase_2,go,300.0,250.0,1.0,,,,,,,,,yellow,hexagon
0.0,2.0,2.0,0.0,5.0,5.0,394.2346290000387,6.0,1.0,phase_2,go,300.0,250.0,1.0,,,,,,,,,cyan,cross
0.0,5.0,1.0,1.0,5.0,5.0,414.7637129999566,6.0,1.0,phase_2,go,300.0,250.0,1.0,,,,,,,,,white,circle
0.0,8.0,4.0,1.0,5.0,5.0,349.2724990001079,7.0,1.0,phase_2,stop,300.0,250.0,3.0,,,,,,,,,magenta,diamond
0.0,6.0,2.0,1.0,6.0,6.0,533.19195999984,7.0,1.0,phase_2,go,250.0,250.0,1.0,,,,,,,,,blue,flipped triangle
0.0,3.0,3.0,0.0,6.0,6.0,450.5326610001248,7.0,1.0,phase_2,go,250.0,250.0,1.0,,,,,,,,,yellow,hexagon
0.0,2.0,2.0,0.0,6.0,6.0,375.1987079999708,7.0,1.0,phase_2,go,250.0,250.0,1.0,,,,,,,,,cyan,cross
0.0,4.0,4.0,0.0,6.0,6.0,375.8348369997293,7.0,1.0,phase_2,go,250.0,250.0,1.0,,,,,,,,,gray,I
0.0,6.0,2.0,1.0,6.0,0.0,0.0,7.0,1.0,phase_2,stop,250.0,250.0,4.0,,,,,,,,,blue,flipped triangle
0.0,5.0,1.0,1.0,5.0,5.0,331.6482089999226,7.0,1.0,phase_2,stop,250.0,300.0,3.0,,,,,,,,,white,circle
0.0,3.0,3.0,0.0,5.0,5.0,478.8179130000571,7.0,1.0,phase_2,go,200.0,300.0,1.0,,,,,,,,,yellow,hexagon
0.0,5.0,1.0,1.0,6.0,6.0,441.4094029998523,7.0,1.0,phase_2,stop,200.0,300.0,3.0,,,,,,,,,white,circle
0.0,2.0,2.0,0.0,6.0,6.0,515.6193799998618,7.0,1.0,phase_2,go,200.0,250.0,1.0,,,,,,,,,cyan,cross
0.0,4.0,4.0,0.0,5.0,5.0,457.2614970002178,7.0,1.0,phase_2,go,200.0,250.0,1.0,,,,,,,,,gray,I
0.0,7.0,3.0,1.0,6.0,0.0,0.0,7.0,1.0,phase_2,stop,200.0,250.0,4.0,,,,,,,,,orange,square
0.0,8.0,4.0,1.0,5.0,0.0,0.0,7.0,1.0,phase_2,stop,200.0,300.0,4.0,,,,,,,,,magenta,diamond
0.0,5.0,1.0,1.0,5.0,5.0,426.1023030003343,7.0,1.0,phase_2,stop,250.0,300.0,3.0,,,,,,,,,white,circle
0.0,4.0,4.0,0.0,5.0,5.0,572.3230429998694,7.0,1.0,phase_2,go,200.0,300.0,1.0,,,,,,,,,gray,I
0.0,1.0,1.0,0.0,6.0,6.0,609.0143170004012,7.0,1.0,phase_2,go,200.0,300.0,1.0,,,,,,,,,green,triangle
0.0,3.0,3.0,0.0,5.0,5.0,385.5343249997531,7.0,1.0,phase_2,go,200.0,300.0,1.0,,,,,,,,,yellow,hexagon
0.0,8.0,4.0,1.0,5.0,0.0,0.0,7.0,1.0,phase_2,stop,200.0,300.0,4.0,,,,,,,,,magenta,diamond
0.0,1.0,1.0,0.0,6.0,6.0,497.6424259998566,7.0,1.0,phase_2,go,250.0,300.0,1.0,,,,,,,,,green,triangle
0.0,4.0,4.0,0.0,6.0,6.0,374.7228689999247,7.0,1.0,phase_2,go,250.0,300.0,1.0,,,,,,,,,gray,I
0.0,5.0,1.0,1.0,6.0,0.0,0.0,7.0,1.0,phase_2,stop,250.0,300.0,4.0,,,,,,,,,white,circle
0.0,4.0,4.0,0.0,5.0,5.0,366.2925240000731,7.0,1.0,phase_2,go,250.0,350.0,1.0,,,,,,,,,gray,I
0.0,1.0,1.0,0.0,5.0,5.0,507.04307300020446,7.0,1.0,phase_2,go,250.0,350.0,1.0,,,,,,,,,green,triangle
0.0,8.0,4.0,1.0,5.0,5.0,580.2892710003107,7.0,1.0,phase_2,go,250.0,350.0,1.0,,,,,,,,,magenta,diamond
0.0,3.0,3.0,0.0,5.0,5.0,319.1808219999075,7.0,1.0,phase_2,go,250.0,350.0,1.0,,,,,,,,,yellow,hexagon
0.0,1.0,1.0,0.0,5.0,5.0,290.7309329998497,7.0,1.0,phase_2,go,250.0,350.0,1.0,,,,,,,,,green,triangle
0.0,4.0,4.0,0.0,6.0,6.0,431.1687340000389,7.0,1.0,phase_2,go,250.0,350.0,1.0,,,,,,,,,gray,I
0.0,7.0,3.0,1.0,5.0,5.0,375.7447360003425,7.0,1.0,phase_2,go,250.0,350.0,1.0,,,,,,,,,orange,square
0.0,6.0,2.0,1.0,5.0,5.0,340.7589470002676,7.0,1.0,phase_2,stop,250.0,350.0,3.0,,,,,,,,,blue,flipped triangle
0.0,7.0,3.0,1.0,6.0,6.0,420.7958160000089,7.0,1.0,phase_2,stop,200.0,350.0,3.0,,,,,,,,,orange,square
0.0,3.0,3.0,0.0,6.0,6.0,545.4238409997743,7.0,1.0,phase_2,go,200.0,300.0,1.0,,,,,,,,,yellow,hexagon
0.0,5.0,1.0,1.0,5.0,5.0,431.1198469999908,7.0,1.0,phase_2,go,200.0,300.0,1.0,,,,,,,,,white,circle
0.0,7.0,3.0,1.0,5.0,5.0,489.4509389996528,7.0,1.0,phase_2,go,200.0,300.0,1.0,,,,,,,,,orange,square
0.0,7.0,3.0,1.0,6.0,6.0,478.7220899997919,7.0,1.0,phase_2,go,200.0,300.0,1.0,,,,,,,,,orange,square
0.0,8.0,4.0,1.0,5.0,0.0,0.0,7.0,1.0,phase_2,stop,200.0,300.0,4.0,,,,,,,,,magenta,diamond
0.0,1.0,1.0,0.0,6.0,6.0,394.1698940002425,7.0,1.0,phase_2,go,250.0,300.0,1.0,,,,,,,,,green,triangle
0.0,7.0,3.0,1.0,5.0,5.0,358.5943029997906,8.0,1.0,phase_2,stop,250.0,300.0,3.0,,,,,,,,,orange,square
0.0,6.0,2.0,1.0,6.0,6.0,396.431592999761,8.0,1.0,phase_2,stop,200.0,300.0,3.0,,,,,,,,,blue,flipped triangle
0.0,3.0,3.0,0.0,5.0,5.0,319.3854380001539,8.0,1.0,phase_2,go,200.0,250.0,1.0,,,,,,,,,yellow,hexagon
0.0,7.0,3.0,1.0,6.0,6.0,497.0583439999245,8.0,1.0,phase_2,go,200.0,250.0,1.0,,,,,,,,,orange,square
0.0,6.0,2.0,1.0,6.0,0.0,0.0,8.0,1.0,phase_2,stop,200.0,250.0,4.0,,,,,,,,,blue,flipped triangle
0.0,4.0,4.0,0.0,6.0,6.0,543.181130999983,8.0,1.0,phase_2,go,200.0,300.0,1.0,,,,,,,,,gray,I
0.0,5.0,1.0,1.0,5.0,5.0,335.6490609999127,8.0,1.0,phase_2,stop,200.0,300.0,3.0,,,,,,,,,white,circle
0.0,2.0,2.0,0.0,6.0,6.0,468.1297619999895,8.0,1.0,phase_2,go,150.0,300.0,1.0,,,,,,,,,cyan,cross
0.0,2.0,2.0,0.0,6.0,6.0,412.7433599996948,8.0,1.0,phase_2,go,150.0,300.0,1.0,,,,,,,,,cyan,cross
0.0,7.0,3.0,1.0,5.0,0.0,0.0,8.0,1.0,phase_2,stop,150.0,300.0,4.0,,,,,,,,,orange,square
0.0,8.0,4.0,1.0,6.0,6.0,386.4162099998793,8.0,1.0,phase_2,stop,200.0,300.0,3.0,,,,,,,,,magenta,diamond
0.0,3.0,3.0,0.0,6.0,6.0,463.70735399978,8.0,1.0,phase_2,go,200.0,250.0,1.0,,,,,,,,,yellow,hexagon
0.0,1.0,1.0,0.0,6.0,6.0,487.4781840003379,8.0,1.0,phase_2,go,200.0,250.0,1.0,,,,,,,,,green,triangle
0.0,6.0,2.0,1.0,6.0,6.0,367.1719769999981,8.0,1.0,phase_2,stop,200.0,250.0,3.0,,,,,,,,,blue,flipped triangle
0.0,8.0,4.0,1.0,6.0,0.0,0.0,8.0,1.0,phase_2,stop,200.0,200.0,4.0,,,,,,,,,magenta,diamond
0.0,1.0,1.0,0.0,5.0,5.0,458.531863999724,8.0,1.0,phase_2,go,200.0,250.0,1.0,,,,,,,,,green,triangle
0.0,7.0,3.0,1.0,6.0,0.0,0.0,8.0,1.0,phase_2,stop,200.0,250.0,4.0,,,,,,,,,orange,square
0.0,4.0,4.0,0.0,6.0,6.0,412.8497900001093,8.0,1.0,phase_2,go,200.0,300.0,1.0,,,,,,,,,gray,I
0.0,1.0,1.0,0.0,5.0,5.0,394.8250039998129,8.0,1.0,phase_2,go,200.0,300.0,1.0,,,,,,,,,green,triangle
0.0,7.0,3.0,1.0,5.0,5.0,506.38436099961837,8.0,1.0,phase_2,go,200.0,300.0,1.0,,,,,,,,,orange,square
0.0,8.0,4.0,1.0,5.0,0.0,0.0,8.0,1.0,phase_2,stop,200.0,300.0,4.0,,,,,,,,,magenta,diamond
0.0,3.0,3.0,0.0,6.0,6.0,366.2842449998607,8.0,1.0,phase_2,go,250.0,300.0,1.0,,,,,,,,,yellow,hexagon
0.0,5.0,1.0,1.0,6.0,6.0,469.6369240000422,8.0,1.0,phase_2,stop,250.0,300.0,3.0,,,,,,,,,white,circle
0.0,1.0,1.0,0.0,6.0,6.0,579.0015600000515,8.0,1.0,phase_2,go,250.0,250.0,1.0,,,,,,,,,green,triangle
0.0,8.0,4.0,1.0,5.0,0.0,0.0,8.0,1.0,phase_2,stop,250.0,250.0,4.0,,,,,,,,,magenta,diamond
0.0,3.0,3.0,0.0,6.0,6.0,499.0517610003735,8.0,1.0,phase_2,go,300.0,250.0,1.0,,,,,,,,,yellow,hexagon
0.0,8.0,4.0,1.0,5.0,0.0,0.0,8.0,1.0,phase_2,stop,300.0,250.0,4.0,,,,,,,,,magenta,diamond
0.0,3.0,3.0,0.0,5.0,5.0,469.3802760002654,8.0,1.0,phase_2,go,350.0,250.0,1.0,,,,,,,,,yellow,hexagon
0.0,5.0,1.0,1.0,6.0,0.0,0.0,8.0,1.0,phase_2,stop,350.0,250.0,4.0,,,,,,,,,white,circle
0.0,5.0,1.0,1.0,5.0,5.0,573.5779510000611,8.0,1.0,phase_2,stop,350.0,300.0,3.0,,,,,,,,,white,circle
0.0,7.0,3.0,1.0,5.0,0.0,0.0,8.0,1.0,phase_2,stop,300.0,300.0,4.0,,,,,,,,,orange,square
0.0,3.0,3.0,0.0,5.0,5.0,561.9537579996177,8.0,1.0,phase_2,go,350.0,300.0,1.0,,,,,,,,,yellow,hexagon
0.0,6.0,2.0,1.0,5.0,5.0,496.146422000038,8.0,1.0,phase_2,stop,350.0,300.0,3.0,,,,,,,,,blue,flipped triangle
0.0,1.0,1.0,0.0,5.0,5.0,543.5606819996792,8.0,1.0,phase_2,go,300.0,300.0,1.0,,,,,,,,,green,triangle
0.0,2.0,2.0,0.0,5.0,5.0,439.7391449997485,8.0,1.0,phase_2,go,300.0,300.0,1.0,,,,,,,,,cyan,cross
0.0,4.0,4.0,0.0,5.0,5.0,487.0681620000141,8.0,1.0,phase_2,go,300.0,300.0,1.0,,,,,,,,,gray,I
0.0,7.0,3.0,1.0,7.0,4.0,613.74897099995,1.0,2.0,phase_3,,,,,464.0,4.0,348.0,580.0,116.0,464.0,232.0,696.0,orange,square
0.0,5.0,1.0,1.0,7.0,2.0,2462.729869999748,1.0,1.0,phase_3,,,,,675.0,5.0,810.0,675.0,405.0,135.0,540.0,270.0,white,circle
0.0,3.0,3.0,0.0,7.0,1.0,4000.557074000426,1.0,1.0,phase_3,,,,,616.0,4.0,616.0,770.0,924.0,154.0,308.0,462.0,yellow,hexagon
0.0,3.0,3.0,0.0,7.0,4.0,2782.535168999857,1.0,1.0,phase_3,,,,,580.0,5.0,464.0,696.0,232.0,580.0,348.0,116.0,yellow,hexagon
0.0,7.0,3.0,1.0,7.0,5.0,3142.2842899992247,1.0,1.0,phase_3,,,,,810.0,6.0,675.0,405.0,270.0,540.0,810.0,135.0,orange,square
0.0,4.0,4.0,0.0,7.0,4.0,3816.058370000064,1.0,1.0,phase_3,,,,,768.0,4.0,192.0,384.0,576.0,768.0,960.0,1152.0,gray,I
0.0,4.0,4.0,0.0,7.0,2.0,2412.63133999928,1.0,1.0,phase_3,,,,,540.0,4.0,810.0,540.0,675.0,270.0,135.0,405.0,gray,I
0.0,4.0,4.0,0.0,7.0,5.0,3867.311277000226,1.0,1.0,phase_3,,,,,348.0,3.0,232.0,696.0,116.0,464.0,348.0,580.0,gray,I
0.0,3.0,3.0,0.0,7.0,1.0,4550.257364000572,1.0,1.0,phase_3,,,,,519.0,3.0,519.0,1038.0,346.0,692.0,865.0,173.0,yellow,hexagon
0.0,8.0,4.0,1.0,7.0,5.0,2944.759721999617,1.0,1.0,phase_3,,,,,960.0,5.0,192.0,384.0,1152.0,768.0,960.0,576.0,magenta,diamond
0.0,2.0,2.0,0.0,7.0,3.0,2101.13322000052,1.0,1.0,phase_3,,,,,865.0,5.0,692.0,1038.0,865.0,519.0,346.0,173.0,cyan,cross
0.0,8.0,4.0,1.0,7.0,1.0,2430.8111700001973,1.0,1.0,phase_3,,,,,616.0,4.0,616.0,770.0,154.0,462.0,924.0,308.0,magenta,diamond
0.0,2.0,2.0,0.0,7.0,5.0,2731.778022999606,1.0,1.0,phase_3,,,,,616.0,4.0,308.0,924.0,462.0,154.0,616.0,770.0,cyan,cross
0.0,6.0,2.0,1.0,7.0,4.0,2451.309410999784,1.0,1.0,phase_3,,,,,770.0,5.0,462.0,616.0,154.0,770.0,924.0,308.0,blue,flipped triangle
0.0,8.0,4.0,1.0,7.0,1.0,2691.100476000429,1.0,1.0,phase_3,,,,,1038.0,6.0,1038.0,519.0,346.0,173.0,865.0,692.0,magenta,diamond
0.0,2.0,2.0,0.0,7.0,5.0,2950.67982799992,1.0,1.0,phase_3,,,,,865.0,5.0,173.0,1038.0,519.0,692.0,865.0,346.0,cyan,cross
0.0,8.0,4.0,1.0,7.0,2.0,3161.835885000073,1.0,1.0,phase_3,,,,,580.0,5.0,116.0,580.0,232.0,464.0,696.0,348.0,magenta,diamond
0.0,8.0,4.0,1.0,7.0,1.0,2973.958814999605,1.0,1.0,phase_3,,,,,924.0,6.0,924.0,770.0,616.0,154.0,462.0,308.0,magenta,diamond
0.0,3.0,3.0,0.0,7.0,6.0,2695.500718000403,1.0,1.0,phase_3,,,,,865.0,5.0,346.0,692.0,519.0,173.0,1038.0,865.0,yellow,hexagon
0.0,3.0,3.0,0.0,7.0,2.0,3864.726212000278,1.0,1.0,phase_3,,,,,540.0,4.0,270.0,540.0,405.0,810.0,675.0,135.0,yellow,hexagon
0.0,1.0,1.0,0.0,7.0,6.0,2853.8697960002537,2.0,1.0,phase_3,,,,,960.0,5.0,576.0,384.0,768.0,192.0,1152.0,960.0,green,triangle
0.0,7.0,3.0,1.0,7.0,5.0,2958.2144079995487,2.0,1.0,phase_3,,,,,768.0,4.0,192.0,960.0,384.0,1152.0,768.0,576.0,orange,square
0.0,5.0,1.0,1.0,7.0,1.0,3725.54993599988,2.0,1.0,phase_3,,,,,232.0,2.0,232.0,348.0,696.0,464.0,580.0,116.0,white,circle
0.0,7.0,3.0,1.0,7.0,2.0,2418.207028999859,2.0,1.0,phase_3,,,,,692.0,4.0,173.0,692.0,1038.0,519.0,346.0,865.0,orange,square
0.0,3.0,3.0,0.0,7.0,3.0,3691.2771039997097,2.0,1.0,phase_3,,,,,576.0,3.0,384.0,1152.0,576.0,960.0,192.0,768.0,yellow,hexagon
0.0,7.0,3.0,1.0,7.0,4.0,2246.375809999336,2.0,1.0,phase_3,,,,,580.0,5.0,232.0,116.0,348.0,580.0,696.0,464.0,orange,square
0.0,6.0,2.0,1.0,7.0,4.0,2473.3679520004443,2.0,1.0,phase_3,,,,,770.0,5.0,462.0,154.0,308.0,770.0,616.0,924.0,blue,flipped triangle
0.0,7.0,3.0,1.0,7.0,1.0,1986.1593690002337,2.0,1.0,phase_3,,,,,692.0,4.0,692.0,519.0,1038.0,865.0,346.0,173.0,orange,square
0.0,4.0,4.0,0.0,7.0,6.0,3443.396917999962,2.0,1.0,phase_3,,,,,464.0,4.0,232.0,348.0,116.0,580.0,696.0,464.0,gray,I
0.0,8.0,4.0,1.0,7.0,3.0,3652.6774409994687,2.0,1.0,phase_3,,,,,464.0,4.0,116.0,232.0,464.0,696.0,580.0,348.0,magenta,diamond
0.0,8.0,4.0,1.0,7.0,3.0,2056.5559229999053,2.0,1.0,phase_3,,,,,810.0,6.0,540.0,405.0,810.0,270.0,135.0,675.0,magenta,diamond
0.0,1.0,1.0,0.0,7.0,1.0,1851.3020220007093,2.0,1.0,phase_3,,,,,616.0,4.0,616.0,924.0,770.0,308.0,462.0,154.0,green,triangle
0.0,2.0,2.0,0.0,7.0,6.0,3028.0871209997717,2.0,1.0,phase_3,,,,,675.0,5.0,135.0,810.0,405.0,540.0,270.0,675.0,cyan,cross
0.0,7.0,3.0,1.0,7.0,1.0,2895.3514149998227,2.0,1.0,phase_3,,,,,675.0,5.0,675.0,270.0,810.0,540.0,135.0,405.0,orange,square
0.0,5.0,1.0,1.0,7.0,2.0,3214.1881360003026,2.0,1.0,phase_3,,,,,960.0,5.0,384.0,960.0,1152.0,768.0,192.0,576.0,white,circle
0.0,2.0,2.0,0.0,7.0,3.0,3125.8671499999764,2.0,1.0,phase_3,,,,,405.0,3.0,270.0,810.0,405.0,135.0,675.0,540.0,cyan,cross
0.0,6.0,2.0,1.0,7.0,3.0,3648.6370290003833,2.0,1.0,phase_3,,,,,464.0,4.0,696.0,116.0,464.0,580.0,232.0,348.0,blue,flipped triangle
0.0,6.0,2.0,1.0,7.0,3.0,1953.029109000454,2.0,1.0,phase_3,,,,,768.0,4.0,576.0,960.0,768.0,384.0,1152.0,192.0,blue,flipped triangle
0.0,7.0,3.0,1.0,7.0,1.0,2682.518201999301,2.0,1.0,phase_3,,,,,770.0,5.0,770.0,616.0,924.0,462.0,154.0,308.0,orange,square
0.0,7.0,3.0,1.0,7.0,5.0,2780.074022999542,2.0,1.0,phase_3,,,,,616.0,4.0,924.0,308.0,462.0,154.0,616.0,770.0,orange,square
0.0,3.0,3.0,0.0,7.0,1.0,2725.642076999975,3.0,1.0,phase_3,,,,,616.0,4.0,616.0,924.0,770.0,308.0,462.0,154.0,yellow,hexagon
0.0,3.0,3.0,0.0,7.0,1.0,2983.8194060002934,3.0,1.0,phase_3,,,,,580.0,5.0,580.0,464.0,348.0,232.0,696.0,116.0,yellow,hexagon
0.0,3.0,3.0,0.0,7.0,6.0,2892.3865549995758,3.0,1.0,phase_3,,,,,1152.0,6.0,960.0,768.0,192.0,384.0,576.0,1152.0,yellow,hexagon
0.0,2.0,2.0,0.0,7.0,4.0,2340.082719999373,3.0,1.0,phase_3,,,,,232.0,2.0,348.0,580.0,696.0,232.0,116.0,464.0,cyan,cross
0.0,1.0,1.0,0.0,7.0,5.0,2256.6817440001614,3.0,1.0,phase_3,,,,,576.0,3.0,768.0,960.0,1152.0,384.0,576.0,192.0,green,triangle
0.0,6.0,2.0,1.0,7.0,5.0,2810.892853999576,3.0,1.0,phase_3,,,,,692.0,4.0,173.0,519.0,865.0,346.0,692.0,1038.0,blue,flipped triangle
0.0,2.0,2.0,0.0,7.0,1.0,2064.2487200002506,3.0,1.0,phase_3,,,,,696.0,6.0,696.0,580.0,116.0,464.0,232.0,348.0,cyan,cross
0.0,5.0,1.0,1.0,7.0,2.0,2235.379022000416,3.0,1.0,phase_3,,,,,348.0,3.0,580.0,348.0,232.0,116.0,696.0,464.0,white,circle
0.0,5.0,1.0,1.0,7.0,6.0,2561.8944990001182,3.0,1.0,phase_3,,,,,865.0,5.0,346.0,519.0,173.0,1038.0,692.0,865.0,white,circle
0.0,8.0,4.0,1.0,7.0,6.0,2546.0748289997355,3.0,1.0,phase_3,,,,,675.0,5.0,540.0,135.0,810.0,270.0,405.0,675.0,magenta,diamond
0.0,1.0,1.0,0.0,7.0,2.0,2862.7148330006094,3.0,1.0,phase_3,,,,,116.0,1.0,232.0,116.0,464.0,348.0,580.0,696.0,green,triangle
0.0,1.0,1.0,0.0,7.0,5.0,3048.2603730006304,3.0,1.0,phase_3,,,,,696.0,6.0,348.0,232.0,116.0,464.0,696.0,580.0,green,triangle
0.0,8.0,4.0,1.0,7.0,1.0,1498.1445070006885,3.0,1.0,phase_3,,,,,384.0,2.0,384.0,960.0,192.0,576.0,768.0,1152.0,magenta,diamond
0.0,4.0,4.0,0.0,7.0,4.0,3689.925106999908,3.0,1.0,phase_3,,,,,865.0,5.0,692.0,346.0,173.0,865.0,1038.0,519.0,gray,I
0.0,5.0,1.0,1.0,7.0,6.0,2652.592813999945,3.0,1.0,phase_3,,,,,576.0,3.0,384.0,768.0,960.0,192.0,1152.0,576.0,white,circle
0.0,1.0,1.0,0.0,7.0,1.0,1976.388125000085,3.0,1.0,phase_3,,,,,810.0,6.0,810.0,270.0,405.0,675.0,135.0,540.0,green,triangle
0.0,4.0,4.0,0.0,7.0,2.0,1419.2309029995158,3.0,1.0,phase_3,,,,,692.0,4.0,346.0,692.0,1038.0,173.0,865.0,519.0,gray,I
0.0,6.0,2.0,1.0,7.0,2.0,1814.6630849996652,3.0,1.0,phase_3,,,,,810.0,6.0,540.0,810.0,135.0,270.0,405.0,675.0,blue,flipped triangle
0.0,5.0,1.0,1.0,7.0,4.0,2708.284391000234,3.0,1.0,phase_3,,,,,770.0,5.0,308.0,462.0,154.0,770.0,616.0,924.0,white,circle
0.0,4.0,4.0,0.0,7.0,2.0,2645.4983610001364,3.0,1.0,phase_3,,,,,308.0,2.0,462.0,308.0,616.0,770.0,154.0,924.0,gray,I
0.0,6.0,2.0,1.0,7.0,2.0,2676.931248999608,4.0,1.0,phase_3,,,,,540.0,4.0,675.0,540.0,810.0,270.0,405.0,135.0,blue,flipped triangle
0.0,4.0,4.0,0.0,7.0,4.0,2344.6035249999118,4.0,1.0,phase_3,,,,,462.0,3.0,308.0,924.0,770.0,462.0,154.0,616.0,gray,I
0.0,5.0,1.0,1.0,7.0,2.0,2165.8832369994343,4.0,1.0,phase_3,,,,,1038.0,6.0,865.0,1038.0,519.0,173.0,346.0,692.0,white,circle
0.0,4.0,4.0,0.0,7.0,6.0,3713.665602999754,4.0,1.0,phase_3,,,,,960.0,5.0,768.0,192.0,1152.0,384.0,576.0,960.0,gray,I
0.0,1.0,1.0,0.0,7.0,2.0,3055.252825000025,4.0,1.0,phase_3,,,,,810.0,6.0,675.0,810.0,540.0,135.0,405.0,270.0,green,triangle
0.0,5.0,1.0,1.0,7.0,1.0,1839.8832349994336,4.0,1.0,phase_3,,,,,462.0,3.0,462.0,924.0,154.0,770.0,616.0,308.0,white,circle
0.0,8.0,4.0,1.0,7.0,6.0,2379.337405000115,4.0,1.0,phase_3,,,,,1038.0,6.0,865.0,173.0,692.0,346.0,519.0,1038.0,magenta,diamond
0.0,2.0,2.0,0.0,7.0,4.0,3882.811045999915,4.0,1.0,phase_3,,,,,576.0,3.0,1152.0,192.0,384.0,576.0,960.0,768.0,cyan,cross
0.0,6.0,2.0,1.0,7.0,3.0,2735.076562999893,4.0,1.0,phase_3,,,,,580.0,5.0,232.0,116.0,580.0,464.0,348.0,696.0,blue,flipped triangle
0.0,1.0,1.0,0.0,7.0,3.0,4330.242021999766,4.0,1.0,phase_3,,,,,770.0,5.0,154.0,616.0,770.0,924.0,462.0,308.0,green,triangle
0.0,6.0,2.0,1.0,7.0,4.0,3250.847545000397,4.0,1.0,phase_3,,,,,865.0,5.0,692.0,173.0,346.0,865.0,519.0,1038.0,blue,flipped triangle
0.0,2.0,2.0,0.0,7.0,3.0,1836.4355170006093,4.0,1.0,phase_3,,,,,1152.0,6.0,192.0,384.0,1152.0,576.0,960.0,768.0,cyan,cross
0.0,5.0,1.0,1.0,7.0,1.0,2665.6835809999397,4.0,1.0,phase_3,,,,,405.0,3.0,405.0,270.0,135.0,540.0,810.0,675.0,white,circle
0.0,1.0,1.0,0.0,7.0,4.0,3229.799734000153,4.0,1.0,phase_3,,,,,865.0,5.0,173.0,1038.0,519.0,865.0,346.0,692.0,green,triangle
0.0,3.0,3.0,0.0,7.0,5.0,3022.97182699931,4.0,1.0,phase_3,,,,,675.0,5.0,810.0,270.0,135.0,540.0,675.0,405.0,yellow,hexagon
0.0,4.0,4.0,0.0,7.0,4.0,1741.511403000004,4.0,1.0,phase_3,,,,,135.0,1.0,540.0,405.0,810.0,135.0,270.0,675.0,gray,I
0.0,7.0,3.0,1.0,7.0,1.0,2218.410484999368,4.0,1.0,phase_3,,,,,768.0,4.0,768.0,192.0,1152.0,960.0,576.0,384.0,orange,square
0.0,1.0,1.0,0.0,7.0,4.0,2604.9510160000864,4.0,1.0,phase_3,,,,,1038.0,6.0,173.0,519.0,346.0,1038.0,692.0,865.0,green,triangle
0.0,2.0,2.0,0.0,7.0,6.0,2185.518213999785,4.0,1.0,phase_3,,,,,616.0,4.0,154.0,924.0,770.0,308.0,462.0,616.0,cyan,cross
0.0,6.0,2.0,1.0,7.0,2.0,1717.301736999616,4.0,1.0,phase_3,,,,,384.0,2.0,576.0,384.0,192.0,1152.0,768.0,960.0,blue,flipped triangle
