raw_reward_magnitude,stim_reward,stepwise_reward_magnitude,paired_with_stopping,stim_location,response,reaction_time,block,num_trial_presentations,which_phase,stop_signal_trial_type,left_SSD,right_SSD,accuracy,chosen_bidding_amount,chosen_bidding_level,possible_bid_1,possible_bid_2,possible_bid_3,possible_bid_4,possible_bid_5,possible_bid_6,color_text,shape_text
1289.0,4.0,4.0,0.0,2.0,2.0,764.872670000841,1.0,1.0,phase_1,,,,,,,,,,,,,cyan,circle
166.0,1.0,0.5,0.0,4.0,4.0,578.850149999198,1.0,1.0,phase_1,,,,,,,,,,,,,green,I
669.0,7.0,2.0,1.0,3.0,3.0,543.1430530006764,1.0,1.0,phase_1,,,,,,,,,,,,,blue,flipped triangle
328.0,6.0,1.0,1.0,3.0,3.0,482.1180970011482,1.0,1.0,phase_1,,,,,,,,,,,,,white,cross
340.0,6.0,1.0,1.0,2.0,2.0,605.1774789993942,1.0,1.0,phase_1,,,,,,,,,,,,,white,cross
0.0,2.0,0.0,0.0,1.0,1.0,377.2272860005614,1.0,3.0,phase_1,,,,,,,,,,,,,orange,square
1280.0,4.0,4.0,0.0,1.0,1.0,713.6961430005613,1.0,1.0,phase_1,,,,,,,,,,,,,cyan,circle
1315.0,4.0,4.0,0.0,1.0,1.0,394.9964269995689,1.0,1.0,phase_1,,,,,,,,,,,,,cyan,circle
173.0,1.0,0.5,0.0,2.0,2.0,742.6212770005804,1.0,1.0,phase_1,,,,,,,,,,,,,green,I
324.0,2.0,1.0,0.0,3.0,3.0,498.5237299988512,1.0,1.0,phase_1,,,,,,,,,,,,,orange,square
154.0,5.0,0.5,1.0,2.0,2.0,565.8578900001885,1.0,1.0,phase_1,,,,,,,,,,,,,yellow,triangle
166.0,1.0,0.5,0.0,4.0,4.0,601.5030739999929,1.0,1.0,phase_1,,,,,,,,,,,,,green,I
149.0,1.0,0.5,0.0,3.0,3.0,384.4329040002776,1.0,1.0,phase_1,,,,,,,,,,,,,green,I
151.0,1.0,0.5,0.0,1.0,1.0,677.1028180010035,1.0,1.0,phase_1,,,,,,,,,,,,,green,I
145.0,1.0,0.5,0.0,3.0,3.0,357.9565639993234,1.0,1.0,phase_1,,,,,,,,,,,,,green,I
632.0,3.0,2.0,0.0,1.0,1.0,667.0252419989993,1.0,1.0,phase_1,,,,,,,,,,,,,magenta,hexagon
0.0,4.0,0.0,0.0,3.0,3.0,397.0655129996885,1.0,1.0,phase_1,,,,,,,,,,,,,cyan,circle
147.0,5.0,0.5,1.0,1.0,1.0,660.5688820000069,1.0,1.0,phase_1,,,,,,,,,,,,,yellow,triangle
1305.0,8.0,4.0,1.0,3.0,3.0,359.2624499997328,1.0,1.0,phase_1,,,,,,,,,,,,,gray,diamond
307.0,2.0,1.0,0.0,3.0,3.0,478.3995320012764,1.0,1.0,phase_1,,,,,,,,,,,,,orange,square
314.0,2.0,1.0,0.0,1.0,1.0,661.767558000065,1.0,1.0,phase_1,,,,,,,,,,,,,orange,square
308.0,6.0,1.0,1.0,3.0,3.0,302.9691480005567,1.0,1.0,phase_1,,,,,,,,,,,,,white,cross
1316.0,4.0,4.0,0.0,1.0,1.0,707.6244310010225,1.0,1.0,phase_1,,,,,,,,,,,,,cyan,circle
313.0,6.0,1.0,1.0,1.0,1.0,538.8538240003982,1.0,1.0,phase_1,,,,,,,,,,,,,white,cross
644.0,3.0,2.0,0.0,4.0,4.0,518.998235998879,1.0,1.0,phase_1,,,,,,,,,,,,,magenta,hexagon
343.0,6.0,1.0,1.0,3.0,3.0,584.3426899991755,1.0,1.0,phase_1,,,,,,,,,,,,,white,cross
156.0,5.0,0.5,1.0,3.0,3.0,451.726340001187,1.0,1.0,phase_1,,,,,,,,,,,,,yellow,triangle
0.0,8.0,0.0,1.0,4.0,4.0,736.7631170000095,1.0,1.0,phase_1,,,,,,,,,,,,,gray,diamond
0.0,7.0,0.0,1.0,2.0,2.0,433.944448001057,1.0,2.0,phase_1,,,,,,,,,,,,,blue,flipped triangle
1306.0,8.0,4.0,1.0,4.0,4.0,491.1480849987129,1.0,1.0,phase_1,,,,,,,,,,,,,gray,diamond
302.0,2.0,1.0,0.0,4.0,4.0,460.960114000045,1.0,1.0,phase_1,,,,,,,,,,,,,orange,square
0.0,1.0,0.0,0.0,2.0,2.0,244.5001589985622,1.0,2.0,phase_1,,,,,,,,,,,,,green,I
1292.0,4.0,4.0,0.0,4.0,4.0,415.1043290003144,1.0,1.0,phase_1,,,,,,,,,,,,,cyan,circle
1322.0,8.0,4.0,1.0,3.0,3.0,424.4705509991036,1.0,1.0,phase_1,,,,,,,,,,,,,gray,diamond
1294.0,8.0,4.0,1.0,3.0,3.0,473.1003310007509,1.0,1.0,phase_1,,,,,,,,,,,,,gray,diamond
643.0,7.0,2.0,1.0,4.0,4.0,463.5580140002275,1.0,1.0,phase_1,,,,,,,,,,,,,blue,flipped triangle
323.0,2.0,1.0,0.0,2.0,2.0,791.8991389997245,1.0,1.0,phase_1,,,,,,,,,,,,,orange,square
300.0,2.0,1.0,0.0,1.0,1.0,659.4844629998988,1.0,1.0,phase_1,,,,,,,,,,,,,orange,square
0.0,5.0,0.0,1.0,2.0,2.0,763.3403769996221,1.0,1.0,phase_1,,,,,,,,,,,,,yellow,triangle
0.0,6.0,0.0,1.0,4.0,4.0,358.4956239992607,1.0,1.0,phase_1,,,,,,,,,,,,,white,cross
0.0,5.0,0.0,1.0,4.0,4.0,482.0077490003314,1.0,1.0,phase_1,,,,,,,,,,,,,yellow,triangle
662.0,7.0,2.0,1.0,2.0,2.0,764.4249299992225,1.0,1.0,phase_1,,,,,,,,,,,,,blue,flipped triangle
665.0,3.0,2.0,0.0,3.0,3.0,594.5924739990005,1.0,1.0,phase_1,,,,,,,,,,,,,magenta,hexagon
177.0,5.0,0.5,1.0,3.0,3.0,387.5746150006307,1.0,1.0,phase_1,,,,,,,,,,,,,yellow,triangle
1278.0,8.0,4.0,1.0,4.0,4.0,491.098726999553,1.0,1.0,phase_1,,,,,,,,,,,,,gray,diamond
0.0,4.0,0.0,0.0,2.0,2.0,773.9293180002278,1.0,1.0,phase_1,,,,,,,,,,,,,cyan,circle
1309.0,8.0,4.0,1.0,2.0,2.0,529.6174030008842,1.0,1.0,phase_1,,,,,,,,,,,,,gray,diamond
154.0,1.0,0.5,0.0,2.0,2.0,452.5599829994462,1.0,1.0,phase_1,,,,,,,,,,,,,green,I
345.0,6.0,1.0,1.0,2.0,2.0,662.0840080013295,1.0,1.0,phase_1,,,,,,,,,,,,,white,cross
157.0,1.0,0.5,0.0,4.0,4.0,623.2146769998508,1.0,1.0,phase_1,,,,,,,,,,,,,green,I
0.0,3.0,0.0,0.0,4.0,4.0,442.6940960001957,1.0,1.0,phase_1,,,,,,,,,,,,,magenta,hexagon
315.0,6.0,1.0,1.0,2.0,2.0,425.7082069998432,1.0,1.0,phase_1,,,,,,,,,,,,,white,cross
0.0,5.0,0.0,1.0,1.0,1.0,255.90559199918061,1.0,2.0,phase_1,,,,,,,,,,,,,yellow,triangle
0.0,1.0,0.0,0.0,4.0,4.0,460.6320240000059,1.0,1.0,phase_1,,,,,,,,,,,,,green,I
168.0,1.0,0.5,0.0,3.0,3.0,508.9535099996283,1.0,1.0,phase_1,,,,,,,,,,,,,green,I
330.0,2.0,1.0,0.0,2.0,2.0,775.9771130004083,1.0,1.0,phase_1,,,,,,,,,,,,,orange,square
181.0,1.0,0.5,0.0,3.0,3.0,509.1458649985725,1.0,1.0,phase_1,,,,,,,,,,,,,green,I
172.0,1.0,0.5,0.0,3.0,3.0,367.1719430003577,1.0,1.0,phase_1,,,,,,,,,,,,,green,I
0.0,8.0,0.0,1.0,4.0,4.0,527.1487560003152,1.0,1.0,phase_1,,,,,,,,,,,,,gray,diamond
0.0,7.0,0.0,1.0,4.0,4.0,460.1199549997545,1.0,1.0,phase_1,,,,,,,,,,,,,blue,flipped triangle
0.0,2.0,0.0,0.0,1.0,1.0,781.3162010006636,1.0,1.0,phase_1,,,,,,,,,,,,,orange,square
1309.0,4.0,4.0,0.0,4.0,4.0,535.6880899998941,1.0,1.0,phase_1,,,,,,,,,,,,,cyan,circle
187.0,1.0,0.5,0.0,1.0,1.0,330.5012929995428,1.0,2.0,phase_1,,,,,,,,,,,,,green,I
637.0,3.0,2.0,0.0,3.0,3.0,632.6493519991345,1.0,1.0,phase_1,,,,,,,,,,,,,magenta,hexagon
326.0,2.0,1.0,0.0,4.0,4.0,538.1175769998663,1.0,1.0,phase_1,,,,,,,,,,,,,orange,square
1292.0,8.0,4.0,1.0,3.0,3.0,509.0659239995148,1.0,1.0,phase_1,,,,,,,,,,,,,gray,diamond
172.0,1.0,0.5,0.0,3.0,3.0,691.2362170005508,1.0,1.0,phase_1,,,,,,,,,,,,,green,I
1276.0,4.0,4.0,0.0,1.0,1.0,254.6893519993318,1.0,2.0,phase_1,,,,,,,,,,,,,cyan,circle
337.0,6.0,1.0,1.0,2.0,2.0,671.6168130005826,1.0,1.0,phase_1,,,,,,,,,,,,,white,cross
0.0,2.0,0.0,0.0,4.0,4.0,377.1998610009177,1.0,1.0,phase_1,,,,,,,,,,,,,orange,square
345.0,2.0,1.0,0.0,3.0,3.0,442.0860149984946,1.0,1.0,phase_1,,,,,,,,,,,,,orange,square
146.0,1.0,0.5,0.0,4.0,4.0,725.3254179995565,1.0,1.0,phase_1,,,,,,,,,,,,,green,I
1316.0,8.0,4.0,1.0,3.0,3.0,490.1064419991598,1.0,1.0,phase_1,,,,,,,,,,,,,gray,diamond
0.0,1.0,0.0,0.0,1.0,1.0,303.330831000494,1.0,2.0,phase_1,,,,,,,,,,,,,green,I
642.0,7.0,2.0,1.0,1.0,1.0,820.0384710016806,1.0,1.0,phase_1,,,,,,,,,,,,,blue,flipped triangle
649.0,3.0,2.0,0.0,4.0,4.0,600.8743559996219,1.0,1.0,phase_1,,,,,,,,,,,,,magenta,hexagon
1287.0,4.0,4.0,0.0,4.0,4.0,583.8252140001714,1.0,1.0,phase_1,,,,,,,,,,,,,cyan,circle
1292.0,8.0,4.0,1.0,2.0,2.0,320.7757500003936,1.0,3.0,phase_1,,,,,,,,,,,,,gray,diamond
1293.0,8.0,4.0,1.0,1.0,1.0,709.6084090007935,1.0,1.0,phase_1,,,,,,,,,,,,,gray,diamond
0.0,8.0,0.0,1.0,1.0,1.0,634.945632000381,1.0,1.0,phase_1,,,,,,,,,,,,,gray,diamond
1293.0,4.0,4.0,0.0,4.0,4.0,597.9335409992927,1.0,1.0,phase_1,,,,,,,,,,,,,cyan,circle
668.0,3.0,2.0,0.0,2.0,2.0,557.3958990007668,1.0,1.0,phase_1,,,,,,,,,,,,,magenta,hexagon
0.0,8.0,0.0,1.0,3.0,3.0,435.8869019997655,1.0,1.0,phase_1,,,,,,,,,,,,,gray,diamond
663.0,7.0,2.0,1.0,4.0,4.0,877.6511079995544,1.0,1.0,phase_1,,,,,,,,,,,,,blue,flipped triangle
0.0,7.0,0.0,1.0,3.0,3.0,765.0599600001442,1.0,1.0,phase_1,,,,,,,,,,,,,blue,flipped triangle
637.0,7.0,2.0,1.0,1.0,1.0,924.027868999474,1.0,1.0,phase_1,,,,,,,,,,,,,blue,flipped triangle
1314.0,4.0,4.0,0.0,3.0,3.0,531.8009840011655,1.0,1.0,phase_1,,,,,,,,,,,,,cyan,circle
314.0,6.0,1.0,1.0,2.0,2.0,682.1456150009908,1.0,1.0,phase_1,,,,,,,,,,,,,white,cross
341.0,6.0,1.0,1.0,3.0,3.0,501.3920250003139,1.0,1.0,phase_1,,,,,,,,,,,,,white,cross
1301.0,8.0,4.0,1.0,2.0,2.0,651.4287979989604,1.0,1.0,phase_1,,,,,,,,,,,,,gray,diamond
339.0,6.0,1.0,1.0,2.0,2.0,623.8989519988536,1.0,1.0,phase_1,,,,,,,,,,,,,white,cross
345.0,2.0,1.0,0.0,1.0,1.0,633.3537259997684,1.0,1.0,phase_1,,,,,,,,,,,,,orange,square
639.0,3.0,2.0,0.0,2.0,2.0,208.1031380002969,1.0,2.0,phase_1,,,,,,,,,,,,,magenta,hexagon
157.0,5.0,0.5,1.0,4.0,4.0,407.2723839999526,1.0,2.0,phase_1,,,,,,,,,,,,,yellow,triangle
1309.0,8.0,4.0,1.0,3.0,3.0,548.3192199990299,1.0,1.0,phase_1,,,,,,,,,,,,,gray,diamond
645.0,3.0,2.0,0.0,4.0,4.0,658.5505590010143,1.0,1.0,phase_1,,,,,,,,,,,,,magenta,hexagon
672.0,7.0,2.0,1.0,2.0,2.0,603.8088019995485,1.0,1.0,phase_1,,,,,,,,,,,,,blue,flipped triangle
0.0,8.0,0.0,1.0,3.0,3.0,528.0042729991692,1.0,1.0,phase_1,,,,,,,,,,,,,gray,diamond
1313.0,4.0,4.0,0.0,1.0,1.0,595.2466510007071,1.0,1.0,phase_1,,,,,,,,,,,,,cyan,circle
187.0,5.0,0.5,1.0,1.0,1.0,509.26276499922096,1.0,1.0,phase_1,,,,,,,,,,,,,yellow,triangle
0.0,5.0,0.0,1.0,3.0,3.0,501.12686600004963,2.0,1.0,phase_1,,,,,,,,,,,,,yellow,triangle
311.0,6.0,1.0,1.0,1.0,1.0,669.2921719986771,2.0,1.0,phase_1,,,,,,,,,,,,,white,cross
313.0,2.0,1.0,0.0,1.0,1.0,593.589599000552,2.0,1.0,phase_1,,,,,,,,,,,,,orange,square
342.0,6.0,1.0,1.0,4.0,4.0,801.3183980001486,2.0,1.0,phase_1,,,,,,,,,,,,,white,cross
185.0,5.0,0.5,1.0,2.0,2.0,685.8518419994653,2.0,1.0,phase_1,,,,,,,,,,,,,yellow,triangle
1300.0,4.0,4.0,0.0,2.0,2.0,649.0918009985762,2.0,1.0,phase_1,,,,,,,,,,,,,cyan,circle
329.0,2.0,1.0,0.0,2.0,2.0,405.9517160003452,2.0,1.0,phase_1,,,,,,,,,,,,,orange,square
1308.0,4.0,4.0,0.0,4.0,4.0,414.2460900002334,2.0,2.0,phase_1,,,,,,,,,,,,,cyan,circle
652.0,7.0,2.0,1.0,1.0,1.0,791.4855129984062,2.0,1.0,phase_1,,,,,,,,,,,,,blue,flipped triangle
0.0,3.0,0.0,0.0,2.0,2.0,452.648536000197,2.0,1.0,phase_1,,,,,,,,,,,,,magenta,hexagon
650.0,3.0,2.0,0.0,3.0,3.0,493.2243319999543,2.0,1.0,phase_1,,,,,,,,,,,,,magenta,hexagon
0.0,2.0,0.0,0.0,1.0,1.0,603.0406930003664,2.0,1.0,phase_1,,,,,,,,,,,,,orange,square
345.0,6.0,1.0,1.0,1.0,1.0,481.0807499998191,2.0,1.0,phase_1,,,,,,,,,,,,,white,cross
0.0,3.0,0.0,0.0,3.0,3.0,143.4545409993006,2.0,2.0,phase_1,,,,,,,,,,,,,magenta,hexagon
306.0,6.0,1.0,1.0,4.0,4.0,517.7103950009041,2.0,1.0,phase_1,,,,,,,,,,,,,white,cross
652.0,3.0,2.0,0.0,3.0,3.0,412.9507269990426,2.0,1.0,phase_1,,,,,,,,,,,,,magenta,hexagon
149.0,5.0,0.5,1.0,4.0,4.0,461.2287380005,2.0,1.0,phase_1,,,,,,,,,,,,,yellow,triangle
171.0,1.0,0.5,0.0,1.0,1.0,669.6601919993554,2.0,1.0,phase_1,,,,,,,,,,,,,green,I
323.0,6.0,1.0,1.0,4.0,4.0,575.6442130004871,2.0,1.0,phase_1,,,,,,,,,,,,,white,cross
1305.0,8.0,4.0,1.0,3.0,3.0,471.68584100109,2.0,1.0,phase_1,,,,,,,,,,,,,gray,diamond
0.0,4.0,0.0,0.0,4.0,4.0,498.3035470013419,2.0,1.0,phase_1,,,,,,,,,,,,,cyan,circle
645.0,3.0,2.0,0.0,3.0,3.0,594.7428119998222,2.0,1.0,phase_1,,,,,,,,,,,,,magenta,hexagon
177.0,1.0,0.5,0.0,4.0,4.0,424.1291179987456,2.0,1.0,phase_1,,,,,,,,,,,,,green,I
148.0,1.0,0.5,0.0,2.0,2.0,828.1626259995392,2.0,1.0,phase_1,,,,,,,,,,,,,green,I
1312.0,8.0,4.0,1.0,1.0,1.0,554.546097999264,2.0,1.0,phase_1,,,,,,,,,,,,,gray,diamond
1314.0,4.0,4.0,0.0,3.0,3.0,405.7388539986277,2.0,1.0,phase_1,,,,,,,,,,,,,cyan,circle
306.0,2.0,1.0,0.0,2.0,2.0,244.7605990000738,2.0,2.0,phase_1,,,,,,,,,,,,,orange,square
1305.0,4.0,4.0,0.0,3.0,3.0,460.8455779998621,2.0,1.0,phase_1,,,,,,,,,,,,,cyan,circle
346.0,2.0,1.0,0.0,4.0,4.0,614.6367830006056,2.0,1.0,phase_1,,,,,,,,,,,,,orange,square
0.0,3.0,0.0,0.0,4.0,4.0,442.9440269996121,2.0,1.0,phase_1,,,,,,,,,,,,,magenta,hexagon
1311.0,8.0,4.0,1.0,4.0,4.0,443.5406089996832,2.0,1.0,phase_1,,,,,,,,,,,,,gray,diamond
643.0,3.0,2.0,0.0,2.0,2.0,407.3960300011094,2.0,2.0,phase_1,,,,,,,,,,,,,magenta,hexagon
1312.0,4.0,4.0,0.0,4.0,4.0,500.97480400108907,2.0,1.0,phase_1,,,,,,,,,,,,,cyan,circle
642.0,3.0,2.0,0.0,2.0,2.0,783.7611489994742,2.0,1.0,phase_1,,,,,,,,,,,,,magenta,hexagon
659.0,7.0,2.0,1.0,3.0,3.0,436.257014000148,2.0,1.0,phase_1,,,,,,,,,,,,,blue,flipped triangle
670.0,7.0,2.0,1.0,1.0,1.0,785.9936240001844,2.0,1.0,phase_1,,,,,,,,,,,,,blue,flipped triangle
0.0,5.0,0.0,1.0,3.0,3.0,576.0141060000024,2.0,1.0,phase_1,,,,,,,,,,,,,yellow,triangle
628.0,3.0,2.0,0.0,2.0,2.0,283.4652309993544,2.0,2.0,phase_1,,,,,,,,,,,,,magenta,hexagon
1313.0,8.0,4.0,1.0,1.0,1.0,469.9880059997667,2.0,2.0,phase_1,,,,,,,,,,,,,gray,diamond
1283.0,4.0,4.0,0.0,2.0,2.0,471.6354930005764,2.0,1.0,phase_1,,,,,,,,,,,,,cyan,circle
319.0,6.0,1.0,1.0,3.0,3.0,446.2272820001089,2.0,1.0,phase_1,,,,,,,,,,,,,white,cross
318.0,2.0,1.0,0.0,1.0,1.0,669.3399800005864,2.0,1.0,phase_1,,,,,,,,,,,,,orange,square
1288.0,4.0,4.0,0.0,2.0,2.0,575.2954939998745,2.0,1.0,phase_1,,,,,,,,,,,,,cyan,circle
180.0,1.0,0.5,0.0,2.0,2.0,558.3126580004318,2.0,1.0,phase_1,,,,,,,,,,,,,green,I
173.0,5.0,0.5,1.0,4.0,4.0,557.5767890004499,2.0,1.0,phase_1,,,,,,,,,,,,,yellow,triangle
308.0,2.0,1.0,0.0,1.0,1.0,764.8929080005473,2.0,1.0,phase_1,,,,,,,,,,,,,orange,square
668.0,3.0,2.0,0.0,1.0,1.0,644.8820860005071,2.0,1.0,phase_1,,,,,,,,,,,,,magenta,hexagon
168.0,1.0,0.5,0.0,2.0,2.0,501.3875469994673,2.0,1.0,phase_1,,,,,,,,,,,,,green,I
661.0,7.0,2.0,1.0,1.0,1.0,531.0726850002538,2.0,1.0,phase_1,,,,,,,,,,,,,blue,flipped triangle
0.0,7.0,0.0,1.0,4.0,4.0,691.6230850001739,2.0,1.0,phase_1,,,,,,,,,,,,,blue,flipped triangle
661.0,3.0,2.0,0.0,4.0,4.0,473.3775730001071,2.0,1.0,phase_1,,,,,,,,,,,,,magenta,hexagon
1308.0,8.0,4.0,1.0,4.0,4.0,566.9879359993502,2.0,1.0,phase_1,,,,,,,,,,,,,gray,diamond
148.0,5.0,0.5,1.0,3.0,3.0,292.6028259989834,2.0,2.0,phase_1,,,,,,,,,,,,,yellow,triangle
626.0,3.0,2.0,0.0,3.0,3.0,462.448330999905,2.0,1.0,phase_1,,,,,,,,,,,,,magenta,hexagon
185.0,1.0,0.5,0.0,1.0,1.0,804.5964110006025,2.0,1.0,phase_1,,,,,,,,,,,,,green,I
670.0,3.0,2.0,0.0,4.0,4.0,349.5813450008427,2.0,2.0,phase_1,,,,,,,,,,,,,magenta,hexagon
0.0,2.0,0.0,0.0,1.0,1.0,616.5637899994181,2.0,1.0,phase_1,,,,,,,,,,,,,orange,square
171.0,5.0,0.5,1.0,3.0,3.0,548.7103089999437,2.0,1.0,phase_1,,,,,,,,,,,,,yellow,triangle
644.0,7.0,2.0,1.0,4.0,4.0,586.9120950010256,2.0,1.0,phase_1,,,,,,,,,,,,,blue,flipped triangle
187.0,5.0,0.5,1.0,3.0,3.0,568.8044179987628,2.0,1.0,phase_1,,,,,,,,,,,,,yellow,triangle
0.0,3.0,0.0,0.0,2.0,2.0,530.9821809987625,2.0,1.0,phase_1,,,,,,,,,,,,,magenta,hexagon
337.0,2.0,1.0,0.0,3.0,3.0,464.0768519984704,2.0,1.0,phase_1,,,,,,,,,,,,,orange,square
1309.0,4.0,4.0,0.0,1.0,1.0,303.5787250009889,2.0,2.0,phase_1,,,,,,,,,,,,,cyan,circle
1280.0,8.0,4.0,1.0,3.0,3.0,435.0213960005931,2.0,1.0,phase_1,,,,,,,,,,,,,gray,diamond
165.0,5.0,0.5,1.0,1.0,1.0,774.9942619993817,2.0,1.0,phase_1,,,,,,,,,,,,,yellow,triangle
1289.0,8.0,4.0,1.0,2.0,2.0,225.857557999916,2.0,2.0,phase_1,,,,,,,,,,,,,gray,diamond
637.0,3.0,2.0,0.0,3.0,3.0,512.2125899997627,2.0,1.0,phase_1,,,,,,,,,,,,,magenta,hexagon
319.0,2.0,1.0,0.0,3.0,3.0,472.8723250009352,2.0,1.0,phase_1,,,,,,,,,,,,,orange,square
185.0,1.0,0.5,0.0,4.0,4.0,500.11157099834236,2.0,1.0,phase_1,,,,,,,,,,,,,green,I
662.0,3.0,2.0,0.0,1.0,1.0,340.7139440005267,2.0,2.0,phase_1,,,,,,,,,,,,,magenta,hexagon
314.0,6.0,1.0,1.0,3.0,3.0,491.7372170002636,2.0,1.0,phase_1,,,,,,,,,,,,,white,cross
673.0,3.0,2.0,0.0,2.0,2.0,527.7472050001961,2.0,2.0,phase_1,,,,,,,,,,,,,magenta,hexagon
302.0,6.0,1.0,1.0,3.0,3.0,492.3511710003367,2.0,1.0,phase_1,,,,,,,,,,,,,white,cross
328.0,2.0,1.0,0.0,1.0,1.0,632.5795609991474,2.0,1.0,phase_1,,,,,,,,,,,,,orange,square
632.0,7.0,2.0,1.0,2.0,2.0,907.3262399997476,2.0,1.0,phase_1,,,,,,,,,,,,,blue,flipped triangle
159.0,1.0,0.5,0.0,1.0,1.0,727.4220529998274,2.0,1.0,phase_1,,,,,,,,,,,,,green,I
628.0,7.0,2.0,1.0,1.0,1.0,500.760827000704,2.0,1.0,phase_1,,,,,,,,,,,,,blue,flipped triangle
137.0,1.0,0.5,0.0,3.0,3.0,537.077255999975,2.0,1.0,phase_1,,,,,,,,,,,,,green,I
0.0,4.0,0.0,0.0,3.0,3.0,509.011386999191,2.0,1.0,phase_1,,,,,,,,,,,,,cyan,circle
660.0,7.0,2.0,1.0,4.0,4.0,511.71142699968186,2.0,1.0,phase_1,,,,,,,,,,,,,blue,flipped triangle
648.0,3.0,2.0,0.0,1.0,1.0,716.049455000757,2.0,1.0,phase_1,,,,,,,,,,,,,magenta,hexagon
1292.0,4.0,4.0,0.0,4.0,4.0,577.5814019998506,2.0,1.0,phase_1,,,,,,,,,,,,,cyan,circle
0.0,1.0,0.0,0.0,4.0,4.0,869.6143809993373,2.0,1.0,phase_1,,,,,,,,,,,,,green,I
343.0,6.0,1.0,1.0,4.0,4.0,480.4165440000361,2.0,1.0,phase_1,,,,,,,,,,,,,white,cross
1299.0,8.0,4.0,1.0,1.0,1.0,548.3836369985511,2.0,1.0,phase_1,,,,,,,,,,,,,gray,diamond
1303.0,4.0,4.0,0.0,1.0,1.0,349.2065730006288,2.0,2.0,phase_1,,,,,,,,,,,,,cyan,circle
661.0,3.0,2.0,0.0,1.0,1.0,660.1922520003427,2.0,1.0,phase_1,,,,,,,,,,,,,magenta,hexagon
180.0,5.0,0.5,1.0,2.0,2.0,585.3998479997244,2.0,1.0,phase_1,,,,,,,,,,,,,yellow,triangle
0.0,4.0,0.0,0.0,4.0,4.0,528.1832410000789,2.0,1.0,phase_1,,,,,,,,,,,,,cyan,circle
339.0,2.0,1.0,0.0,1.0,1.0,509.07299100072123,2.0,1.0,phase_1,,,,,,,,,,,,,orange,square
138.0,5.0,0.5,1.0,2.0,2.0,623.3712370012654,2.0,1.0,phase_1,,,,,,,,,,,,,yellow,triangle
328.0,6.0,1.0,1.0,1.0,1.0,595.7159350000438,2.0,1.0,phase_1,,,,,,,,,,,,,white,cross
661.0,7.0,2.0,1.0,4.0,4.0,501.09196300036274,2.0,1.0,phase_1,,,,,,,,,,,,,blue,flipped triangle
147.0,1.0,0.5,0.0,1.0,1.0,444.2096069997205,2.0,2.0,phase_1,,,,,,,,,,,,,green,I
148.0,1.0,0.5,0.0,2.0,2.0,387.8228180001315,2.0,1.0,phase_1,,,,,,,,,,,,,green,I
660.0,3.0,2.0,0.0,1.0,1.0,605.2686189996166,2.0,1.0,phase_1,,,,,,,,,,,,,magenta,hexagon
148.0,5.0,0.5,1.0,2.0,2.0,540.186131000155,2.0,1.0,phase_1,,,,,,,,,,,,,yellow,triangle
1281.0,8.0,4.0,1.0,3.0,3.0,502.536890000556,2.0,1.0,phase_1,,,,,,,,,,,,,gray,diamond
348.0,2.0,1.0,0.0,3.0,3.0,821.8762770011381,2.0,1.0,phase_1,,,,,,,,,,,,,orange,square
1299.0,8.0,4.0,1.0,4.0,4.0,577.2294189991953,2.0,1.0,phase_1,,,,,,,,,,,,,gray,diamond
307.0,6.0,1.0,1.0,4.0,4.0,480.866206000428,3.0,1.0,phase_1,,,,,,,,,,,,,white,cross
138.0,1.0,0.5,0.0,1.0,1.0,925.654939001106,3.0,1.0,phase_1,,,,,,,,,,,,,green,I
151.0,5.0,0.5,1.0,2.0,2.0,651.9135589987854,3.0,1.0,phase_1,,,,,,,,,,,,,yellow,triangle
1281.0,4.0,4.0,0.0,1.0,1.0,764.4634440002847,3.0,1.0,phase_1,,,,,,,,,,,,,cyan,circle
0.0,1.0,0.0,0.0,3.0,3.0,425.9706980010378,3.0,2.0,phase_1,,,,,,,,,,,,,green,I
168.0,5.0,0.5,1.0,1.0,1.0,670.7492409987026,3.0,1.0,phase_1,,,,,,,,,,,,,yellow,triangle
656.0,3.0,2.0,0.0,2.0,2.0,671.776115999819,3.0,1.0,phase_1,,,,,,,,,,,,,magenta,hexagon
0.0,8.0,0.0,1.0,3.0,3.0,937.5507830009157,3.0,1.0,phase_1,,,,,,,,,,,,,gray,diamond
0.0,6.0,0.0,1.0,3.0,3.0,597.0717750005861,3.0,1.0,phase_1,,,,,,,,,,,,,white,cross
138.0,1.0,0.5,0.0,2.0,2.0,566.2474740001926,3.0,1.0,phase_1,,,,,,,,,,,,,green,I
0.0,4.0,0.0,0.0,4.0,4.0,483.04650800128,3.0,1.0,phase_1,,,,,,,,,,,,,cyan,circle
1276.0,8.0,4.0,1.0,1.0,1.0,482.9319760010548,3.0,1.0,phase_1,,,,,,,,,,,,,gray,diamond
318.0,6.0,1.0,1.0,1.0,1.0,941.991384001085,3.0,1.0,phase_1,,,,,,,,,,,,,white,cross
632.0,3.0,2.0,0.0,1.0,1.0,416.7554060004477,3.0,2.0,phase_1,,,,,,,,,,,,,magenta,hexagon
172.0,5.0,0.5,1.0,1.0,1.0,551.3280470004247,3.0,1.0,phase_1,,,,,,,,,,,,,yellow,triangle
341.0,2.0,1.0,0.0,2.0,2.0,737.2479729983752,3.0,1.0,phase_1,,,,,,,,,,,,,orange,square
1299.0,4.0,4.0,0.0,3.0,3.0,729.367520998494,3.0,1.0,phase_1,,,,,,,,,,,,,cyan,circle
324.0,2.0,1.0,0.0,3.0,3.0,501.0554000000411,3.0,1.0,phase_1,,,,,,,,,,,,,orange,square
137.0,5.0,0.5,1.0,4.0,4.0,379.2279129993403,3.0,2.0,phase_1,,,,,,,,,,,,,yellow,triangle
665.0,7.0,2.0,1.0,4.0,4.0,425.0251009998465,3.0,1.0,phase_1,,,,,,,,,,,,,blue,flipped triangle
338.0,2.0,1.0,0.0,4.0,4.0,452.3608460003743,3.0,1.0,phase_1,,,,,,,,,,,,,orange,square
0.0,2.0,0.0,0.0,1.0,1.0,680.730398000378,3.0,1.0,phase_1,,,,,,,,,,,,,orange,square
1314.0,8.0,4.0,1.0,2.0,2.0,613.7643450001633,3.0,1.0,phase_1,,,,,,,,,,,,,gray,diamond
306.0,2.0,1.0,0.0,4.0,4.0,528.4057539993228,3.0,1.0,phase_1,,,,,,,,,,,,,orange,square
1315.0,4.0,4.0,0.0,4.0,4.0,635.2823149991309,3.0,1.0,phase_1,,,,,,,,,,,,,cyan,circle
0.0,4.0,0.0,0.0,4.0,4.0,512.2503160000633,3.0,1.0,phase_1,,,,,,,,,,,,,cyan,circle
0.0,6.0,0.0,1.0,3.0,3.0,812.5378860004275,3.0,1.0,phase_1,,,,,,,,,,,,,white,cross
1321.0,4.0,4.0,0.0,2.0,2.0,493.9299269990442,3.0,1.0,phase_1,,,,,,,,,,,,,cyan,circle
1315.0,8.0,4.0,1.0,4.0,4.0,482.1492880000733,3.0,1.0,phase_1,,,,,,,,,,,,,gray,diamond
138.0,5.0,0.5,1.0,2.0,2.0,585.3225259997998,3.0,1.0,phase_1,,,,,,,,,,,,,yellow,triangle
181.0,5.0,0.5,1.0,2.0,2.0,499.3200520002574,3.0,1.0,phase_1,,,,,,,,,,,,,yellow,triangle
0.0,5.0,0.0,1.0,4.0,4.0,442.8849099986109,3.0,1.0,phase_1,,,,,,,,,,,,,yellow,triangle
321.0,2.0,1.0,0.0,3.0,3.0,350.3668039993499,3.0,2.0,phase_1,,,,,,,,,,,,,orange,square
0.0,4.0,0.0,0.0,1.0,1.0,944.3202049988032,3.0,1.0,phase_1,,,,,,,,,,,,,cyan,circle
1303.0,8.0,4.0,1.0,2.0,2.0,541.4589970005181,3.0,1.0,phase_1,,,,,,,,,,,,,gray,diamond
0.0,2.0,0.0,0.0,1.0,1.0,727.7371240015782,3.0,1.0,phase_1,,,,,,,,,,,,,orange,square
0.0,3.0,0.0,0.0,2.0,2.0,603.9437299987185,3.0,1.0,phase_1,,,,,,,,,,,,,magenta,hexagon
172.0,1.0,0.5,0.0,2.0,2.0,526.9027190006454,3.0,1.0,phase_1,,,,,,,,,,,,,green,I
172.0,5.0,0.5,1.0,3.0,3.0,491.5729209988058,3.0,1.0,phase_1,,,,,,,,,,,,,yellow,triangle
669.0,3.0,2.0,0.0,3.0,3.0,283.8578330010932,3.0,2.0,phase_1,,,,,,,,,,,,,magenta,hexagon
141.0,5.0,0.5,1.0,1.0,1.0,709.1489230006118,3.0,1.0,phase_1,,,,,,,,,,,,,yellow,triangle
0.0,7.0,0.0,1.0,3.0,3.0,474.5313399998849,3.0,1.0,phase_1,,,,,,,,,,,,,blue,flipped triangle
1299.0,4.0,4.0,0.0,2.0,2.0,585.914405000949,3.0,1.0,phase_1,,,,,,,,,,,,,cyan,circle
343.0,2.0,1.0,0.0,3.0,3.0,518.7075759986328,3.0,1.0,phase_1,,,,,,,,,,,,,orange,square
0.0,2.0,0.0,0.0,4.0,4.0,284.574548000819,3.0,2.0,phase_1,,,,,,,,,,,,,orange,square
663.0,7.0,2.0,1.0,2.0,2.0,591.2547019997874,3.0,1.0,phase_1,,,,,,,,,,,,,blue,flipped triangle
141.0,1.0,0.5,0.0,4.0,4.0,999.923649000266,3.0,1.0,phase_1,,,,,,,,,,,,,green,I
173.0,1.0,0.5,0.0,2.0,2.0,696.9745009992039,3.0,1.0,phase_1,,,,,,,,,,,,,green,I
673.0,7.0,2.0,1.0,1.0,1.0,719.5050359987363,3.0,1.0,phase_1,,,,,,,,,,,,,blue,flipped triangle
165.0,1.0,0.5,0.0,3.0,3.0,566.2988830008544,3.0,1.0,phase_1,,,,,,,,,,,,,green,I
0.0,6.0,0.0,1.0,2.0,2.0,630.0707079990389,3.0,1.0,phase_1,,,,,,,,,,,,,white,cross
1312.0,4.0,4.0,0.0,3.0,3.0,660.4419030009012,3.0,1.0,phase_1,,,,,,,,,,,,,cyan,circle
0.0,6.0,0.0,1.0,3.0,3.0,512.0838300008472,3.0,1.0,phase_1,,,,,,,,,,,,,white,cross
672.0,3.0,2.0,0.0,2.0,2.0,737.6272439996683,3.0,1.0,phase_1,,,,,,,,,,,,,magenta,hexagon
0.0,6.0,0.0,1.0,4.0,4.0,584.6503140001005,3.0,1.0,phase_1,,,,,,,,,,,,,white,cross
1300.0,8.0,4.0,1.0,4.0,4.0,555.7332900007168,3.0,1.0,phase_1,,,,,,,,,,,,,gray,diamond
1322.0,4.0,4.0,0.0,1.0,1.0,696.5200239992555,3.0,1.0,phase_1,,,,,,,,,,,,,cyan,circle
1301.0,4.0,4.0,0.0,2.0,2.0,723.7834819989075,3.0,1.0,phase_1,,,,,,,,,,,,,cyan,circle
326.0,6.0,1.0,1.0,1.0,1.0,599.1590899993753,3.0,1.0,phase_1,,,,,,,,,,,,,white,cross
1300.0,4.0,4.0,0.0,3.0,3.0,915.487927999493,3.0,1.0,phase_1,,,,,,,,,,,,,cyan,circle
632.0,7.0,2.0,1.0,2.0,2.0,622.5923340007284,3.0,1.0,phase_1,,,,,,,,,,,,,blue,flipped triangle
319.0,2.0,1.0,0.0,2.0,2.0,602.8459320004913,3.0,1.0,phase_1,,,,,,,,,,,,,orange,square
0.0,2.0,0.0,0.0,1.0,1.0,508.6850459993002,3.0,1.0,phase_1,,,,,,,,,,,,,orange,square
0.0,1.0,0.0,0.0,1.0,1.0,585.6685899998411,3.0,1.0,phase_1,,,,,,,,,,,,,green,I
1283.0,8.0,4.0,1.0,2.0,2.0,586.4269680005236,3.0,1.0,phase_1,,,,,,,,,,,,,gray,diamond
328.0,2.0,1.0,0.0,4.0,4.0,690.327405998687,3.0,1.0,phase_1,,,,,,,,,,,,,orange,square
1299.0,4.0,4.0,0.0,2.0,2.0,473.7257300002966,3.0,1.0,phase_1,,,,,,,,,,,,,cyan,circle
324.0,6.0,1.0,1.0,2.0,2.0,756.0595970007853,3.0,1.0,phase_1,,,,,,,,,,,,,white,cross
668.0,7.0,2.0,1.0,3.0,3.0,435.6318659993121,3.0,1.0,phase_1,,,,,,,,,,,,,blue,flipped triangle
157.0,1.0,0.5,0.0,3.0,3.0,556.7762730006507,3.0,1.0,phase_1,,,,,,,,,,,,,green,I
306.0,6.0,1.0,1.0,2.0,2.0,537.7607950013044,3.0,1.0,phase_1,,,,,,,,,,,,,white,cross
631.0,7.0,2.0,1.0,3.0,3.0,557.3198740003136,3.0,1.0,phase_1,,,,,,,,,,,,,blue,flipped triangle
319.0,6.0,1.0,1.0,1.0,1.0,604.0092270013702,3.0,2.0,phase_1,,,,,,,,,,,,,white,cross
641.0,7.0,2.0,1.0,4.0,4.0,577.3436509989551,3.0,1.0,phase_1,,,,,,,,,,,,,blue,flipped triangle
660.0,3.0,2.0,0.0,3.0,3.0,521.7993419992126,3.0,1.0,phase_1,,,,,,,,,,,,,magenta,hexagon
159.0,5.0,0.5,1.0,1.0,1.0,727.2712379999575,3.0,1.0,phase_1,,,,,,,,,,,,,yellow,triangle
658.0,3.0,2.0,0.0,1.0,1.0,717.1720059996005,3.0,1.0,phase_1,,,,,,,,,,,,,magenta,hexagon
322.0,2.0,1.0,0.0,4.0,4.0,546.4228750006441,3.0,1.0,phase_1,,,,,,,,,,,,,orange,square
321.0,6.0,1.0,1.0,1.0,1.0,443.6749970009259,3.0,2.0,phase_1,,,,,,,,,,,,,white,cross
164.0,5.0,0.5,1.0,1.0,1.0,499.7490700006892,3.0,1.0,phase_1,,,,,,,,,,,,,yellow,triangle
0.0,8.0,0.0,1.0,1.0,1.0,463.9482780003163,3.0,1.0,phase_1,,,,,,,,,,,,,gray,diamond
645.0,7.0,2.0,1.0,3.0,3.0,538.7280459999602,3.0,1.0,phase_1,,,,,,,,,,,,,blue,flipped triangle
172.0,5.0,0.5,1.0,4.0,4.0,943.5681070008286,3.0,1.0,phase_1,,,,,,,,,,,,,yellow,triangle
0.0,5.0,0.0,1.0,2.0,2.0,265.2330629989592,3.0,2.0,phase_1,,,,,,,,,,,,,yellow,triangle
1312.0,8.0,4.0,1.0,2.0,2.0,330.8301750003011,3.0,1.0,phase_1,,,,,,,,,,,,,gray,diamond
663.0,3.0,2.0,0.0,4.0,4.0,586.1940949998825,3.0,1.0,phase_1,,,,,,,,,,,,,magenta,hexagon
314.0,2.0,1.0,0.0,2.0,2.0,528.9802780007449,3.0,1.0,phase_1,,,,,,,,,,,,,orange,square
338.0,6.0,1.0,1.0,3.0,3.0,595.0660629987397,3.0,1.0,phase_1,,,,,,,,,,,,,white,cross
0.0,2.0,0.0,0.0,3.0,3.0,481.6104879992053,3.0,1.0,phase_1,,,,,,,,,,,,,orange,square
1314.0,8.0,4.0,1.0,1.0,1.0,631.778139000744,3.0,1.0,phase_1,,,,,,,,,,,,,gray,diamond
631.0,7.0,2.0,1.0,3.0,3.0,725.4935269993439,3.0,1.0,phase_1,,,,,,,,,,,,,blue,flipped triangle
169.0,5.0,0.5,1.0,4.0,4.0,857.8048470008071,3.0,1.0,phase_1,,,,,,,,,,,,,yellow,triangle
329.0,6.0,1.0,1.0,3.0,3.0,793.9675159996114,3.0,1.0,phase_1,,,,,,,,,,,,,white,cross
634.0,3.0,2.0,0.0,2.0,2.0,566.1873669996567,3.0,1.0,phase_1,,,,,,,,,,,,,magenta,hexagon
634.0,7.0,2.0,1.0,1.0,1.0,774.1189429998485,3.0,1.0,phase_1,,,,,,,,,,,,,blue,flipped triangle
343.0,2.0,1.0,0.0,4.0,4.0,539.5747190013935,3.0,1.0,phase_1,,,,,,,,,,,,,orange,square
0.0,3.0,0.0,0.0,2.0,2.0,387.0906570009538,3.0,2.0,phase_1,,,,,,,,,,,,,magenta,hexagon
1294.0,4.0,4.0,0.0,3.0,3.0,508.6244340000121,3.0,1.0,phase_1,,,,,,,,,,,,,cyan,circle
0.0,4.0,0.0,0.0,2.0,2.0,697.1159479999187,3.0,1.0,phase_1,,,,,,,,,,,,,cyan,circle
1277.0,4.0,4.0,0.0,2.0,2.0,510.9509129997605,3.0,1.0,phase_1,,,,,,,,,,,,,cyan,circle
660.0,7.0,2.0,1.0,4.0,4.0,322.6917369993316,4.0,2.0,phase_1,,,,,,,,,,,,,blue,flipped triangle
658.0,7.0,2.0,1.0,3.0,3.0,511.0582719989907,4.0,1.0,phase_1,,,,,,,,,,,,,blue,flipped triangle
650.0,3.0,2.0,0.0,1.0,1.0,735.9248989996559,4.0,1.0,phase_1,,,,,,,,,,,,,magenta,hexagon
1306.0,4.0,4.0,0.0,3.0,3.0,518.696256000112,4.0,1.0,phase_1,,,,,,,,,,,,,cyan,circle
1292.0,8.0,4.0,1.0,4.0,4.0,615.6267210008082,4.0,1.0,phase_1,,,,,,,,,,,,,gray,diamond
333.0,6.0,1.0,1.0,1.0,1.0,765.31500999954,4.0,1.0,phase_1,,,,,,,,,,,,,white,cross
324.0,6.0,1.0,1.0,2.0,2.0,728.4117149993108,4.0,1.0,phase_1,,,,,,,,,,,,,white,cross
173.0,5.0,0.5,1.0,3.0,3.0,677.8835069999332,4.0,1.0,phase_1,,,,,,,,,,,,,yellow,triangle
171.0,1.0,0.5,0.0,1.0,1.0,680.9645150005963,4.0,1.0,phase_1,,,,,,,,,,,,,green,I
1283.0,8.0,4.0,1.0,2.0,2.0,550.2352229996177,4.0,1.0,phase_1,,,,,,,,,,,,,gray,diamond
663.0,3.0,2.0,0.0,1.0,1.0,671.0973360004573,4.0,1.0,phase_1,,,,,,,,,,,,,magenta,hexagon
1287.0,8.0,4.0,1.0,1.0,1.0,557.9528309990565,4.0,1.0,phase_1,,,,,,,,,,,,,gray,diamond
322.0,6.0,1.0,1.0,3.0,3.0,263.2974360003572,4.0,2.0,phase_1,,,,,,,,,,,,,white,cross
311.0,2.0,1.0,0.0,4.0,4.0,528.2875880002393,4.0,1.0,phase_1,,,,,,,,,,,,,orange,square
1278.0,4.0,4.0,0.0,3.0,3.0,801.9571439999709,4.0,1.0,phase_1,,,,,,,,,,,,,cyan,circle
0.0,6.0,0.0,1.0,1.0,1.0,491.1380889989232,4.0,1.0,phase_1,,,,,,,,,,,,,white,cross
315.0,2.0,1.0,0.0,1.0,1.0,606.0570280005777,4.0,2.0,phase_1,,,,,,,,,,,,,orange,square
346.0,6.0,1.0,1.0,4.0,4.0,512.3710809984914,4.0,1.0,phase_1,,,,,,,,,,,,,white,cross
166.0,5.0,0.5,1.0,4.0,4.0,453.1031279984745,4.0,1.0,phase_1,,,,,,,,,,,,,yellow,triangle
300.0,6.0,1.0,1.0,4.0,4.0,443.8686180001241,4.0,1.0,phase_1,,,,,,,,,,,,,white,cross
185.0,5.0,0.5,1.0,1.0,1.0,567.7659220000351,4.0,1.0,phase_1,,,,,,,,,,,,,yellow,triangle
154.0,5.0,0.5,1.0,1.0,1.0,765.2773259997048,4.0,1.0,phase_1,,,,,,,,,,,,,yellow,triangle
348.0,6.0,1.0,1.0,4.0,4.0,652.7913350000745,4.0,1.0,phase_1,,,,,,,,,,,,,white,cross
318.0,6.0,1.0,1.0,4.0,4.0,407.1268369989411,4.0,1.0,phase_1,,,,,,,,,,,,,white,cross
645.0,7.0,2.0,1.0,4.0,4.0,548.1568760005757,4.0,1.0,phase_1,,,,,,,,,,,,,blue,flipped triangle
651.0,3.0,2.0,0.0,3.0,3.0,377.1923360000073,4.0,2.0,phase_1,,,,,,,,,,,,,magenta,hexagon
639.0,7.0,2.0,1.0,3.0,3.0,517.4843080003484,4.0,1.0,phase_1,,,,,,,,,,,,,blue,flipped triangle
629.0,7.0,2.0,1.0,1.0,1.0,866.8036029994255,4.0,1.0,phase_1,,,,,,,,,,,,,blue,flipped triangle
320.0,2.0,1.0,0.0,2.0,2.0,471.4961850004329,4.0,1.0,phase_1,,,,,,,,,,,,,orange,square
157.0,5.0,0.5,1.0,4.0,4.0,556.8969569994806,4.0,1.0,phase_1,,,,,,,,,,,,,yellow,triangle
1296.0,8.0,4.0,1.0,1.0,1.0,603.8582070013945,4.0,1.0,phase_1,,,,,,,,,,,,,gray,diamond
0.0,4.0,0.0,0.0,1.0,1.0,820.6648590003169,4.0,1.0,phase_1,,,,,,,,,,,,,cyan,circle
168.0,5.0,0.5,1.0,4.0,4.0,471.9736329989246,4.0,1.0,phase_1,,,,,,,,,,,,,yellow,triangle
0.0,8.0,0.0,1.0,4.0,4.0,539.1593089989328,4.0,1.0,phase_1,,,,,,,,,,,,,gray,diamond
650.0,7.0,2.0,1.0,2.0,2.0,798.8943319996906,4.0,1.0,phase_1,,,,,,,,,,,,,blue,flipped triangle
649.0,7.0,2.0,1.0,2.0,2.0,547.5601830003143,4.0,1.0,phase_1,,,,,,,,,,,,,blue,flipped triangle
146.0,5.0,0.5,1.0,3.0,3.0,519.8873469998944,4.0,1.0,phase_1,,,,,,,,,,,,,yellow,triangle
0.0,1.0,0.0,0.0,4.0,4.0,520.3109590001986,4.0,1.0,phase_1,,,,,,,,,,,,,green,I
0.0,6.0,0.0,1.0,4.0,4.0,471.975824000765,4.0,1.0,phase_1,,,,,,,,,,,,,white,cross
0.0,5.0,0.0,1.0,3.0,3.0,887.7630450006109,4.0,1.0,phase_1,,,,,,,,,,,,,yellow,triangle
169.0,1.0,0.5,0.0,3.0,3.0,446.5026729994861,4.0,1.0,phase_1,,,,,,,,,,,,,green,I
629.0,3.0,2.0,0.0,4.0,4.0,424.6025030006422,4.0,1.0,phase_1,,,,,,,,,,,,,magenta,hexagon
187.0,1.0,0.5,0.0,2.0,2.0,510.28991599923756,4.0,1.0,phase_1,,,,,,,,,,,,,green,I
340.0,2.0,1.0,0.0,2.0,2.0,623.551470998791,4.0,1.0,phase_1,,,,,,,,,,,,,orange,square
0.0,7.0,0.0,1.0,4.0,4.0,837.6544769998873,4.0,1.0,phase_1,,,,,,,,,,,,,blue,flipped triangle
0.0,3.0,0.0,0.0,3.0,3.0,500.4152850015089,4.0,1.0,phase_1,,,,,,,,,,,,,magenta,hexagon
0.0,1.0,0.0,0.0,3.0,3.0,471.6014480000012,4.0,1.0,phase_1,,,,,,,,,,,,,green,I
318.0,2.0,1.0,0.0,2.0,2.0,511.93005999994057,4.0,1.0,phase_1,,,,,,,,,,,,,orange,square
648.0,7.0,2.0,1.0,1.0,1.0,502.1743119996245,4.0,1.0,phase_1,,,,,,,,,,,,,blue,flipped triangle
154.0,1.0,0.5,0.0,4.0,4.0,612.4685350005166,4.0,1.0,phase_1,,,,,,,,,,,,,green,I
1288.0,8.0,4.0,1.0,1.0,1.0,294.4538080009806,4.0,2.0,phase_1,,,,,,,,,,,,,gray,diamond
651.0,7.0,2.0,1.0,3.0,3.0,529.4272569990426,4.0,1.0,phase_1,,,,,,,,,,,,,blue,flipped triangle
1300.0,8.0,4.0,1.0,1.0,1.0,819.8287240011268,4.0,1.0,phase_1,,,,,,,,,,,,,gray,diamond
146.0,5.0,0.5,1.0,3.0,3.0,650.9482569999818,4.0,1.0,phase_1,,,,,,,,,,,,,yellow,triangle
1277.0,8.0,4.0,1.0,4.0,4.0,452.7202630015381,4.0,1.0,phase_1,,,,,,,,,,,,,gray,diamond
164.0,1.0,0.5,0.0,4.0,4.0,481.4463259990589,4.0,1.0,phase_1,,,,,,,,,,,,,green,I
650.0,7.0,2.0,1.0,3.0,3.0,490.5913270013116,4.0,1.0,phase_1,,,,,,,,,,,,,blue,flipped triangle
1283.0,4.0,4.0,0.0,2.0,2.0,557.4938699992344,4.0,1.0,phase_1,,,,,,,,,,,,,cyan,circle
0.0,5.0,0.0,1.0,2.0,2.0,603.4506150008383,4.0,1.0,phase_1,,,,,,,,,,,,,yellow,triangle
330.0,6.0,1.0,1.0,4.0,4.0,471.2763980005547,4.0,1.0,phase_1,,,,,,,,,,,,,white,cross
171.0,5.0,0.5,1.0,2.0,2.0,603.4936510004627,4.0,1.0,phase_1,,,,,,,,,,,,,yellow,triangle
0.0,7.0,0.0,1.0,2.0,2.0,610.2594869989844,4.0,1.0,phase_1,,,,,,,,,,,,,blue,flipped triangle
145.0,5.0,0.5,1.0,4.0,4.0,424.6634890005225,4.0,1.0,phase_1,,,,,,,,,,,,,yellow,triangle
0.0,7.0,0.0,1.0,2.0,2.0,443.7496579994331,4.0,1.0,phase_1,,,,,,,,,,,,,blue,flipped triangle
1305.0,4.0,4.0,0.0,4.0,4.0,461.56348799922847,4.0,1.0,phase_1,,,,,,,,,,,,,cyan,circle
168.0,1.0,0.5,0.0,4.0,4.0,425.5048329996498,4.0,1.0,phase_1,,,,,,,,,,,,,green,I
0.0,7.0,0.0,1.0,2.0,2.0,507.8371059989877,4.0,1.0,phase_1,,,,,,,,,,,,,blue,flipped triangle
641.0,3.0,2.0,0.0,4.0,4.0,472.5134070013155,4.0,1.0,phase_1,,,,,,,,,,,,,magenta,hexagon
0.0,6.0,0.0,1.0,4.0,4.0,518.1402109992632,4.0,1.0,phase_1,,,,,,,,,,,,,white,cross
1299.0,8.0,4.0,1.0,2.0,2.0,633.3019180001429,4.0,1.0,phase_1,,,,,,,,,,,,,gray,diamond
631.0,3.0,2.0,0.0,4.0,4.0,529.442745999404,4.0,1.0,phase_1,,,,,,,,,,,,,magenta,hexagon
1321.0,8.0,4.0,1.0,4.0,4.0,490.3839429989602,4.0,1.0,phase_1,,,,,,,,,,,,,gray,diamond
168.0,5.0,0.5,1.0,3.0,3.0,556.8198609998944,4.0,1.0,phase_1,,,,,,,,,,,,,yellow,triangle
0.0,3.0,0.0,0.0,2.0,2.0,623.8251069989929,4.0,1.0,phase_1,,,,,,,,,,,,,magenta,hexagon
626.0,7.0,2.0,1.0,2.0,2.0,661.1366750003072,4.0,1.0,phase_1,,,,,,,,,,,,,blue,flipped triangle
659.0,3.0,2.0,0.0,2.0,2.0,463.1999649991485,4.0,1.0,phase_1,,,,,,,,,,,,,magenta,hexagon
301.0,2.0,1.0,0.0,3.0,3.0,549.4849419992534,4.0,1.0,phase_1,,,,,,,,,,,,,orange,square
301.0,6.0,1.0,1.0,2.0,2.0,491.8473910001921,4.0,1.0,phase_1,,,,,,,,,,,,,white,cross
333.0,2.0,1.0,0.0,1.0,1.0,691.8019479999202,4.0,1.0,phase_1,,,,,,,,,,,,,orange,square
156.0,1.0,0.5,0.0,1.0,1.0,520.0485720015422,4.0,1.0,phase_1,,,,,,,,,,,,,green,I
656.0,7.0,2.0,1.0,4.0,4.0,500.69581500065397,4.0,1.0,phase_1,,,,,,,,,,,,,blue,flipped triangle
0.0,3.0,0.0,0.0,1.0,1.0,556.4266260007571,4.0,1.0,phase_1,,,,,,,,,,,,,magenta,hexagon
1296.0,4.0,4.0,0.0,3.0,3.0,613.1263329989451,4.0,1.0,phase_1,,,,,,,,,,,,,cyan,circle
0.0,1.0,0.0,0.0,1.0,1.0,575.0699439995515,4.0,1.0,phase_1,,,,,,,,,,,,,green,I
0.0,1.0,0.0,0.0,2.0,2.0,593.5727619998943,4.0,1.0,phase_1,,,,,,,,,,,,,green,I
1292.0,4.0,4.0,0.0,4.0,4.0,500.939641999139,4.0,1.0,phase_1,,,,,,,,,,,,,cyan,circle
166.0,5.0,0.5,1.0,2.0,2.0,518.7326880004548,4.0,1.0,phase_1,,,,,,,,,,,,,yellow,triangle
1311.0,4.0,4.0,0.0,1.0,1.0,809.6790149993467,4.0,1.0,phase_1,,,,,,,,,,,,,cyan,circle
631.0,3.0,2.0,0.0,4.0,4.0,453.6380600002303,4.0,1.0,phase_1,,,,,,,,,,,,,magenta,hexagon
0.0,6.0,0.0,1.0,2.0,2.0,528.1664369995269,4.0,1.0,phase_1,,,,,,,,,,,,,white,cross
0.0,7.0,0.0,1.0,4.0,4.0,501.666332998866,4.0,1.0,phase_1,,,,,,,,,,,,,blue,flipped triangle
637.0,7.0,2.0,1.0,2.0,2.0,541.8418110002676,4.0,1.0,phase_1,,,,,,,,,,,,,blue,flipped triangle
0.0,5.0,0.0,1.0,2.0,2.0,549.1087239988701,4.0,1.0,phase_1,,,,,,,,,,,,,yellow,triangle
0.0,8.0,0.0,1.0,3.0,3.0,436.4165090009919,4.0,1.0,phase_1,,,,,,,,,,,,,gray,diamond
1315.0,8.0,4.0,1.0,3.0,3.0,491.4768749986251,4.0,1.0,phase_1,,,,,,,,,,,,,gray,diamond
146.0,1.0,0.5,0.0,1.0,1.0,559.5414619983785,4.0,1.0,phase_1,,,,,,,,,,,,,green,I
342.0,2.0,1.0,0.0,4.0,4.0,463.88208999997,4.0,1.0,phase_1,,,,,,,,,,,,,orange,square
320.0,6.0,1.0,1.0,1.0,1.0,561.4847649994772,4.0,1.0,phase_1,,,,,,,,,,,,,white,cross
668.0,7.0,2.0,1.0,2.0,2.0,548.2411590000993,4.0,1.0,phase_1,,,,,,,,,,,,,blue,flipped triangle
0.0,8.0,0.0,1.0,4.0,4.0,568.3593949997885,4.0,1.0,phase_1,,,,,,,,,,,,,gray,diamond
0.0,1.0,0.5,0.0,6.0,6.0,623.1945060008002,1.0,1.0,phase_2,go,250.0,250.0,1.0,,,,,,,,,green,I
0.0,5.0,0.5,1.0,5.0,5.0,574.9455919994944,1.0,1.0,phase_2,go,250.0,250.0,1.0,,,,,,,,,yellow,triangle
0.0,6.0,1.0,1.0,6.0,6.0,624.0337929993984,1.0,1.0,phase_2,stop,250.0,250.0,3.0,,,,,,,,,white,cross
0.0,3.0,2.0,0.0,5.0,5.0,667.2803630008275,1.0,1.0,phase_2,go,250.0,200.0,1.0,,,,,,,,,magenta,hexagon
0.0,1.0,0.5,0.0,5.0,5.0,561.9459139998071,1.0,1.0,phase_2,go,250.0,200.0,1.0,,,,,,,,,green,I
0.0,2.0,1.0,0.0,6.0,6.0,504.67385099909734,1.0,1.0,phase_2,go,250.0,200.0,1.0,,,,,,,,,orange,square
0.0,6.0,1.0,1.0,5.0,0.0,0.0,1.0,1.0,phase_2,stop,250.0,200.0,4.0,,,,,,,,,white,cross
0.0,8.0,4.0,1.0,5.0,0.0,0.0,1.0,1.0,phase_2,stop,300.0,200.0,4.0,,,,,,,,,gray,diamond
0.0,1.0,0.5,0.0,5.0,5.0,702.471725999203,1.0,1.0,phase_2,go,350.0,200.0,1.0,,,,,,,,,green,I
0.0,3.0,2.0,0.0,5.0,5.0,609.9171610003395,1.0,1.0,phase_2,go,350.0,200.0,1.0,,,,,,,,,magenta,hexagon
0.0,8.0,4.0,1.0,5.0,0.0,0.0,1.0,1.0,phase_2,stop,350.0,200.0,4.0,,,,,,,,,gray,diamond
0.0,3.0,2.0,0.0,6.0,6.0,495.5597359985404,1.0,1.0,phase_2,go,400.0,200.0,1.0,,,,,,,,,magenta,hexagon
0.0,8.0,4.0,1.0,5.0,0.0,0.0,1.0,1.0,phase_2,go,400.0,200.0,5.0,,,,,,,,,gray,diamond
0.0,3.0,2.0,0.0,6.0,6.0,577.6730359993962,1.0,1.0,phase_2,go,400.0,200.0,1.0,,,,,,,,,magenta,hexagon
0.0,3.0,2.0,0.0,5.0,5.0,607.8677639998205,1.0,1.0,phase_2,go,400.0,200.0,1.0,,,,,,,,,magenta,hexagon
0.0,7.0,2.0,1.0,5.0,5.0,513.022112998442,1.0,1.0,phase_2,stop,400.0,200.0,3.0,,,,,,,,,blue,flipped triangle
0.0,2.0,1.0,0.0,5.0,5.0,730.8199489998515,1.0,1.0,phase_2,go,350.0,200.0,1.0,,,,,,,,,orange,square
0.0,3.0,2.0,0.0,6.0,6.0,398.7295819988503,1.0,1.0,phase_2,go,350.0,200.0,1.0,,,,,,,,,magenta,hexagon
0.0,8.0,4.0,1.0,6.0,0.0,0.0,1.0,1.0,phase_2,go,350.0,200.0,5.0,,,,,,,,,gray,diamond
0.0,8.0,4.0,1.0,6.0,0.0,0.0,1.0,1.0,phase_2,stop,350.0,200.0,4.0,,,,,,,,,gray,diamond
0.0,2.0,1.0,0.0,5.0,5.0,522.1489899995504,1.0,1.0,phase_2,go,350.0,250.0,1.0,,,,,,,,,orange,square
0.0,7.0,2.0,1.0,5.0,5.0,455.6941509999888,1.0,1.0,phase_2,stop,350.0,250.0,3.0,,,,,,,,,blue,flipped triangle
0.0,4.0,4.0,0.0,5.0,5.0,558.574413000315,1.0,1.0,phase_2,go,300.0,250.0,1.0,,,,,,,,,cyan,circle
0.0,7.0,2.0,1.0,6.0,0.0,0.0,1.0,1.0,phase_2,stop,300.0,250.0,4.0,,,,,,,,,blue,flipped triangle
0.0,8.0,4.0,1.0,5.0,5.0,625.6353210010275,1.0,1.0,phase_2,go,300.0,300.0,1.0,,,,,,,,,gray,diamond
0.0,3.0,2.0,0.0,6.0,6.0,466.8896010007302,1.0,1.0,phase_2,go,300.0,300.0,1.0,,,,,,,,,magenta,hexagon
0.0,7.0,2.0,1.0,6.0,0.0,0.0,1.0,1.0,phase_2,stop,300.0,300.0,4.0,,,,,,,,,blue,flipped triangle
0.0,6.0,1.0,1.0,6.0,0.0,0.0,1.0,1.0,phase_2,stop,300.0,350.0,4.0,,,,,,,,,white,cross
0.0,5.0,0.5,1.0,6.0,6.0,498.0975329999637,1.0,1.0,phase_2,stop,300.0,400.0,3.0,,,,,,,,,yellow,triangle
0.0,1.0,0.5,0.0,5.0,5.0,508.5291880004661,1.0,1.0,phase_2,go,300.0,350.0,1.0,,,,,,,,,green,I
0.0,5.0,0.5,1.0,6.0,6.0,540.6129460006923,1.0,1.0,phase_2,stop,300.0,350.0,3.0,,,,,,,,,yellow,triangle
0.0,2.0,1.0,0.0,5.0,5.0,484.4065160013997,1.0,1.0,phase_2,go,300.0,300.0,1.0,,,,,,,,,orange,square
0.0,1.0,0.5,0.0,6.0,6.0,540.4946640010166,1.0,1.0,phase_2,go,300.0,300.0,1.0,,,,,,,,,green,I
0.0,6.0,1.0,1.0,5.0,0.0,0.0,1.0,1.0,phase_2,stop,300.0,300.0,4.0,,,,,,,,,white,cross
0.0,4.0,4.0,0.0,6.0,6.0,836.0310880016186,1.0,1.0,phase_2,go,350.0,300.0,1.0,,,,,,,,,cyan,circle
0.0,1.0,0.5,0.0,5.0,5.0,484.6759020001627,1.0,1.0,phase_2,go,350.0,300.0,1.0,,,,,,,,,green,I
0.0,2.0,1.0,0.0,6.0,6.0,551.6380829994887,2.0,1.0,phase_2,go,350.0,300.0,1.0,,,,,,,,,orange,square
0.0,3.0,2.0,0.0,5.0,5.0,446.3640860012674,2.0,1.0,phase_2,go,350.0,300.0,1.0,,,,,,,,,magenta,hexagon
0.0,4.0,4.0,0.0,6.0,6.0,493.1857000010495,2.0,1.0,phase_2,go,350.0,300.0,1.0,,,,,,,,,cyan,circle
0.0,5.0,0.5,1.0,5.0,5.0,404.0351769999688,2.0,1.0,phase_2,stop,350.0,300.0,3.0,,,,,,,,,yellow,triangle
0.0,1.0,0.5,0.0,5.0,5.0,693.5836610009574,2.0,1.0,phase_2,go,300.0,300.0,1.0,,,,,,,,,green,I
0.0,5.0,0.5,1.0,5.0,0.0,0.0,2.0,1.0,phase_2,stop,300.0,300.0,4.0,,,,,,,,,yellow,triangle
0.0,4.0,4.0,0.0,6.0,6.0,513.1887730003655,2.0,1.0,phase_2,go,350.0,300.0,1.0,,,,,,,,,cyan,circle
0.0,4.0,4.0,0.0,6.0,6.0,456.2151549998816,2.0,1.0,phase_2,go,350.0,300.0,1.0,,,,,,,,,cyan,circle
0.0,7.0,2.0,1.0,6.0,0.0,0.0,2.0,1.0,phase_2,stop,350.0,300.0,4.0,,,,,,,,,blue,flipped triangle
0.0,3.0,2.0,0.0,6.0,6.0,512.3693739988084,2.0,1.0,phase_2,go,350.0,350.0,1.0,,,,,,,,,magenta,hexagon
0.0,6.0,1.0,1.0,6.0,0.0,0.0,2.0,1.0,phase_2,stop,350.0,350.0,4.0,,,,,,,,,white,cross
0.0,7.0,2.0,1.0,5.0,0.0,0.0,2.0,1.0,phase_2,stop,350.0,400.0,4.0,,,,,,,,,blue,flipped triangle
0.0,2.0,1.0,0.0,5.0,5.0,579.4386770012352,2.0,1.0,phase_2,go,400.0,400.0,1.0,,,,,,,,,orange,square
0.0,8.0,4.0,1.0,6.0,0.0,0.0,2.0,1.0,phase_2,stop,400.0,400.0,4.0,,,,,,,,,gray,diamond
0.0,5.0,0.5,1.0,5.0,5.0,542.5193589999253,2.0,1.0,phase_2,stop,400.0,450.0,3.0,,,,,,,,,yellow,triangle
0.0,8.0,4.0,1.0,6.0,6.0,499.9501029997191,2.0,1.0,phase_2,stop,350.0,450.0,3.0,,,,,,,,,gray,diamond
0.0,4.0,4.0,0.0,6.0,6.0,579.3463299996802,2.0,1.0,phase_2,go,350.0,400.0,1.0,,,,,,,,,cyan,circle
0.0,7.0,2.0,1.0,5.0,0.0,0.0,2.0,1.0,phase_2,go,350.0,400.0,5.0,,,,,,,,,blue,flipped triangle
0.0,2.0,1.0,0.0,6.0,6.0,680.6959309997183,2.0,1.0,phase_2,go,350.0,400.0,1.0,,,,,,,,,orange,square
0.0,6.0,1.0,1.0,5.0,5.0,437.4094699996931,2.0,1.0,phase_2,stop,350.0,400.0,3.0,,,,,,,,,white,cross
0.0,2.0,1.0,0.0,5.0,5.0,645.7147620003525,2.0,1.0,phase_2,go,300.0,400.0,1.0,,,,,,,,,orange,square
0.0,6.0,1.0,1.0,6.0,0.0,0.0,2.0,1.0,phase_2,stop,300.0,400.0,4.0,,,,,,,,,white,cross
0.0,5.0,0.5,1.0,6.0,6.0,548.4649129994068,2.0,1.0,phase_2,stop,300.0,450.0,3.0,,,,,,,,,yellow,triangle
0.0,3.0,2.0,0.0,5.0,5.0,673.0652789992746,2.0,1.0,phase_2,go,300.0,400.0,1.0,,,,,,,,,magenta,hexagon
0.0,4.0,4.0,0.0,6.0,6.0,529.9919259996386,2.0,1.0,phase_2,go,300.0,400.0,1.0,,,,,,,,,cyan,circle
0.0,8.0,4.0,1.0,6.0,0.0,0.0,2.0,1.0,phase_2,stop,300.0,400.0,4.0,,,,,,,,,gray,diamond
0.0,1.0,0.5,0.0,6.0,6.0,551.0022950002167,2.0,1.0,phase_2,go,300.0,450.0,1.0,,,,,,,,,green,I
0.0,3.0,2.0,0.0,6.0,6.0,702.087361998565,2.0,1.0,phase_2,go,300.0,450.0,1.0,,,,,,,,,magenta,hexagon
0.0,5.0,0.5,1.0,6.0,0.0,0.0,2.0,1.0,phase_2,stop,300.0,450.0,4.0,,,,,,,,,yellow,triangle
0.0,7.0,2.0,1.0,5.0,0.0,0.0,2.0,1.0,phase_2,stop,300.0,500.0,4.0,,,,,,,,,blue,flipped triangle
0.0,3.0,2.0,0.0,5.0,5.0,522.8379400014092,2.0,1.0,phase_2,go,350.0,500.0,1.0,,,,,,,,,magenta,hexagon
0.0,2.0,1.0,0.0,5.0,5.0,776.2528729999758,2.0,1.0,phase_2,go,350.0,500.0,1.0,,,,,,,,,orange,square
0.0,4.0,4.0,0.0,5.0,5.0,473.9014359984139,2.0,1.0,phase_2,go,350.0,500.0,1.0,,,,,,,,,cyan,circle
0.0,8.0,4.0,1.0,6.0,0.0,0.0,2.0,1.0,phase_2,stop,350.0,500.0,4.0,,,,,,,,,gray,diamond
0.0,5.0,0.5,1.0,6.0,0.0,0.0,2.0,1.0,phase_2,stop,350.0,550.0,4.0,,,,,,,,,yellow,triangle
0.0,6.0,1.0,1.0,5.0,0.0,0.0,2.0,1.0,phase_2,stop,350.0,600.0,4.0,,,,,,,,,white,cross
0.0,7.0,2.0,1.0,6.0,0.0,0.0,3.0,1.0,phase_2,go,400.0,600.0,5.0,,,,,,,,,blue,flipped triangle
0.0,5.0,0.5,1.0,5.0,0.0,0.0,3.0,1.0,phase_2,stop,400.0,600.0,4.0,,,,,,,,,yellow,triangle
0.0,2.0,1.0,0.0,6.0,6.0,722.1858779994363,3.0,1.0,phase_2,go,450.0,600.0,1.0,,,,,,,,,orange,square
0.0,7.0,2.0,1.0,5.0,0.0,0.0,3.0,1.0,phase_2,stop,450.0,600.0,4.0,,,,,,,,,blue,flipped triangle
0.0,5.0,0.5,1.0,5.0,0.0,0.0,3.0,1.0,phase_2,stop,500.0,600.0,4.0,,,,,,,,,yellow,triangle
0.0,1.0,0.5,0.0,6.0,6.0,504.71502800064627,3.0,1.0,phase_2,go,550.0,600.0,1.0,,,,,,,,,green,I
0.0,5.0,0.5,1.0,6.0,0.0,0.0,3.0,1.0,phase_2,go,550.0,600.0,5.0,,,,,,,,,yellow,triangle
0.0,4.0,4.0,0.0,5.0,5.0,505.50775000010617,3.0,1.0,phase_2,go,550.0,600.0,1.0,,,,,,,,,cyan,circle
0.0,7.0,2.0,1.0,5.0,0.0,0.0,3.0,1.0,phase_2,stop,550.0,600.0,4.0,,,,,,,,,blue,flipped triangle
0.0,1.0,0.5,0.0,6.0,6.0,464.0644440005417,3.0,1.0,phase_2,go,600.0,600.0,1.0,,,,,,,,,green,I
0.0,1.0,0.5,0.0,6.0,6.0,465.3731560010783,3.0,1.0,phase_2,go,600.0,600.0,1.0,,,,,,,,,green,I
0.0,2.0,1.0,0.0,6.0,6.0,445.5774930011102,3.0,1.0,phase_2,go,600.0,600.0,1.0,,,,,,,,,orange,square
0.0,8.0,4.0,1.0,5.0,0.0,0.0,3.0,1.0,phase_2,stop,600.0,600.0,4.0,,,,,,,,,gray,diamond
0.0,6.0,1.0,1.0,6.0,0.0,0.0,3.0,1.0,phase_2,stop,650.0,600.0,4.0,,,,,,,,,white,cross
0.0,1.0,0.5,0.0,5.0,5.0,646.23419399868,3.0,1.0,phase_2,go,650.0,650.0,1.0,,,,,,,,,green,I
0.0,4.0,4.0,0.0,6.0,6.0,494.4496609987254,3.0,1.0,phase_2,go,650.0,650.0,1.0,,,,,,,,,cyan,circle
0.0,5.0,0.5,1.0,6.0,0.0,0.0,3.0,1.0,phase_2,stop,650.0,650.0,4.0,,,,,,,,,yellow,triangle
0.0,4.0,4.0,0.0,6.0,6.0,464.6105450010509,3.0,1.0,phase_2,go,650.0,700.0,1.0,,,,,,,,,cyan,circle
0.0,4.0,4.0,0.0,6.0,6.0,398.6926919988036,3.0,1.0,phase_2,go,650.0,700.0,1.0,,,,,,,,,cyan,circle
0.0,3.0,2.0,0.0,5.0,5.0,523.6202659998526,3.0,1.0,phase_2,go,650.0,700.0,1.0,,,,,,,,,magenta,hexagon
0.0,3.0,2.0,0.0,6.0,6.0,467.9021709998778,3.0,1.0,phase_2,go,650.0,700.0,1.0,,,,,,,,,magenta,hexagon
0.0,6.0,1.0,1.0,6.0,0.0,0.0,3.0,1.0,phase_2,stop,650.0,700.0,4.0,,,,,,,,,white,cross
0.0,2.0,1.0,0.0,5.0,5.0,768.1062729989208,3.0,1.0,phase_2,go,650.0,750.0,1.0,,,,,,,,,orange,square
0.0,3.0,2.0,0.0,6.0,6.0,616.9614020000154,3.0,1.0,phase_2,go,650.0,750.0,1.0,,,,,,,,,magenta,hexagon
0.0,4.0,4.0,0.0,5.0,5.0,722.4698790014372,3.0,1.0,phase_2,go,650.0,750.0,1.0,,,,,,,,,cyan,circle
0.0,1.0,0.5,0.0,6.0,6.0,559.8463420010376,3.0,1.0,phase_2,go,650.0,750.0,1.0,,,,,,,,,green,I
0.0,3.0,2.0,0.0,6.0,6.0,427.7759530014009,3.0,1.0,phase_2,go,650.0,750.0,1.0,,,,,,,,,magenta,hexagon
0.0,7.0,2.0,1.0,5.0,0.0,0.0,3.0,1.0,phase_2,stop,650.0,750.0,4.0,,,,,,,,,blue,flipped triangle
0.0,2.0,1.0,0.0,6.0,6.0,541.0905130011088,3.0,1.0,phase_2,go,700.0,750.0,1.0,,,,,,,,,orange,square
0.0,5.0,0.5,1.0,5.0,0.0,0.0,3.0,1.0,phase_2,stop,700.0,750.0,4.0,,,,,,,,,yellow,triangle
0.0,5.0,0.5,1.0,5.0,0.0,0.0,3.0,1.0,phase_2,go,750.0,750.0,5.0,,,,,,,,,yellow,triangle
0.0,7.0,2.0,1.0,6.0,0.0,0.0,3.0,1.0,phase_2,stop,750.0,750.0,4.0,,,,,,,,,blue,flipped triangle
0.0,8.0,4.0,1.0,6.0,0.0,0.0,3.0,1.0,phase_2,stop,750.0,800.0,4.0,,,,,,,,,gray,diamond
0.0,5.0,0.5,1.0,5.0,0.0,0.0,3.0,1.0,phase_2,stop,750.0,850.0,4.0,,,,,,,,,yellow,triangle
0.0,4.0,4.0,0.0,5.0,5.0,531.3037890009582,3.0,1.0,phase_2,go,800.0,850.0,1.0,,,,,,,,,cyan,circle
0.0,4.0,4.0,0.0,6.0,6.0,787.6000470005238,3.0,1.0,phase_2,go,800.0,850.0,1.0,,,,,,,,,cyan,circle
0.0,1.0,0.5,0.0,5.0,5.0,524.9762820003525,4.0,1.0,phase_2,go,800.0,850.0,1.0,,,,,,,,,green,I
0.0,6.0,1.0,1.0,6.0,0.0,0.0,4.0,1.0,phase_2,go,800.0,850.0,5.0,,,,,,,,,white,cross
0.0,5.0,0.5,1.0,5.0,0.0,0.0,4.0,1.0,phase_2,stop,800.0,850.0,4.0,,,,,,,,,yellow,triangle
0.0,1.0,0.5,0.0,5.0,5.0,599.737180999,4.0,1.0,phase_2,go,850.0,850.0,1.0,,,,,,,,,green,I
0.0,7.0,2.0,1.0,6.0,0.0,0.0,4.0,1.0,phase_2,go,850.0,850.0,5.0,,,,,,,,,blue,flipped triangle
0.0,3.0,2.0,0.0,5.0,5.0,788.8083039997582,4.0,1.0,phase_2,go,850.0,850.0,1.0,,,,,,,,,magenta,hexagon
0.0,1.0,0.5,0.0,6.0,6.0,560.7027620008012,4.0,1.0,phase_2,go,850.0,850.0,1.0,,,,,,,,,green,I
0.0,3.0,2.0,0.0,6.0,6.0,541.2091270009114,4.0,1.0,phase_2,go,850.0,850.0,1.0,,,,,,,,,magenta,hexagon
0.0,6.0,1.0,1.0,6.0,0.0,0.0,4.0,1.0,phase_2,stop,850.0,850.0,4.0,,,,,,,,,white,cross
0.0,3.0,2.0,0.0,5.0,5.0,607.3784069994872,4.0,1.0,phase_2,go,850.0,900.0,1.0,,,,,,,,,magenta,hexagon
0.0,2.0,1.0,0.0,6.0,6.0,568.8537759997416,4.0,1.0,phase_2,go,850.0,900.0,1.0,,,,,,,,,orange,square
0.0,5.0,0.5,1.0,6.0,6.0,436.7826529996819,4.0,1.0,phase_2,go,850.0,900.0,1.0,,,,,,,,,yellow,triangle
0.0,3.0,2.0,0.0,5.0,5.0,427.3232940013258,4.0,1.0,phase_2,go,850.0,900.0,1.0,,,,,,,,,magenta,hexagon
0.0,6.0,1.0,1.0,5.0,0.0,0.0,4.0,1.0,phase_2,go,850.0,900.0,5.0,,,,,,,,,white,cross
0.0,8.0,4.0,1.0,5.0,0.0,0.0,4.0,1.0,phase_2,go,850.0,900.0,5.0,,,,,,,,,gray,diamond
0.0,8.0,4.0,1.0,5.0,5.0,562.1803260000888,4.0,1.0,phase_2,go,850.0,900.0,1.0,,,,,,,,,gray,diamond
0.0,7.0,2.0,1.0,6.0,6.0,769.5674589995178,4.0,1.0,phase_2,stop,850.0,900.0,3.0,,,,,,,,,blue,flipped triangle
0.0,5.0,0.5,1.0,6.0,6.0,1224.3188070006,4.0,1.0,phase_2,go,850.0,850.0,1.0,,,,,,,,,yellow,triangle
0.0,2.0,1.0,0.0,5.0,5.0,503.026549000424,4.0,1.0,phase_2,go,850.0,850.0,1.0,,,,,,,,,orange,square
0.0,3.0,2.0,0.0,5.0,5.0,495.3717929984123,4.0,1.0,phase_2,go,850.0,850.0,1.0,,,,,,,,,magenta,hexagon
0.0,7.0,2.0,1.0,5.0,5.0,437.3344310006359,4.0,1.0,phase_2,go,850.0,850.0,1.0,,,,,,,,,blue,flipped triangle
0.0,1.0,0.5,0.0,5.0,5.0,456.1157210009696,4.0,1.0,phase_2,go,850.0,850.0,1.0,,,,,,,,,green,I
0.0,8.0,4.0,1.0,5.0,5.0,770.2574899994943,4.0,1.0,phase_2,stop,850.0,850.0,3.0,,,,,,,,,gray,diamond
0.0,6.0,1.0,1.0,6.0,0.0,0.0,4.0,1.0,phase_2,go,800.0,850.0,5.0,,,,,,,,,white,cross
0.0,3.0,2.0,0.0,5.0,5.0,600.2264789985929,4.0,1.0,phase_2,go,800.0,850.0,1.0,,,,,,,,,magenta,hexagon
0.0,6.0,1.0,1.0,5.0,0.0,0.0,4.0,1.0,phase_2,stop,800.0,850.0,4.0,,,,,,,,,white,cross
0.0,8.0,4.0,1.0,5.0,0.0,0.0,4.0,1.0,phase_2,stop,850.0,850.0,4.0,,,,,,,,,gray,diamond
0.0,4.0,4.0,0.0,5.0,5.0,590.0695780001115,4.0,1.0,phase_2,go,900.0,850.0,1.0,,,,,,,,,cyan,circle
0.0,4.0,4.0,0.0,6.0,6.0,493.8714629988681,4.0,1.0,phase_2,go,900.0,850.0,1.0,,,,,,,,,cyan,circle
0.0,3.0,2.0,0.0,5.0,5.0,390.737440000521,4.0,1.0,phase_2,go,900.0,850.0,1.0,,,,,,,,,magenta,hexagon
0.0,4.0,4.0,0.0,5.0,5.0,427.8694429995084,4.0,1.0,phase_2,go,900.0,850.0,1.0,,,,,,,,,cyan,circle
0.0,3.0,2.0,0.0,6.0,6.0,476.5080100005434,4.0,1.0,phase_2,go,900.0,850.0,1.0,,,,,,,,,magenta,hexagon
0.0,3.0,2.0,0.0,6.0,6.0,456.675247000021,4.0,1.0,phase_2,go,900.0,850.0,1.0,,,,,,,,,magenta,hexagon
0.0,8.0,4.0,1.0,5.0,0.0,0.0,4.0,1.0,phase_2,stop,900.0,850.0,4.0,,,,,,,,,gray,diamond
0.0,7.0,2.0,1.0,6.0,0.0,0.0,4.0,1.0,phase_2,stop,950.0,850.0,4.0,,,,,,,,,blue,flipped triangle
0.0,8.0,4.0,1.0,6.0,6.0,865.695604999928,4.0,1.0,phase_2,go,950.0,900.0,1.0,,,,,,,,,gray,diamond
0.0,6.0,1.0,1.0,6.0,0.0,0.0,5.0,1.0,phase_2,stop,950.0,900.0,4.0,,,,,,,,,white,cross
0.0,8.0,4.0,1.0,6.0,6.0,713.6447630000475,5.0,1.0,phase_2,stop,950.0,950.0,3.0,,,,,,,,,gray,diamond
0.0,2.0,1.0,0.0,5.0,5.0,570.4499170005874,5.0,1.0,phase_2,go,950.0,900.0,1.0,,,,,,,,,orange,square
0.0,2.0,1.0,0.0,6.0,6.0,514.0259110012266,5.0,1.0,phase_2,go,950.0,900.0,1.0,,,,,,,,,orange,square
0.0,1.0,0.5,0.0,6.0,6.0,419.3939069991756,5.0,1.0,phase_2,go,950.0,900.0,1.0,,,,,,,,,green,I
0.0,2.0,1.0,0.0,5.0,5.0,647.787571999288,5.0,1.0,phase_2,go,950.0,900.0,1.0,,,,,,,,,orange,square
0.0,1.0,0.5,0.0,6.0,6.0,391.3000640004611,5.0,1.0,phase_2,go,950.0,900.0,1.0,,,,,,,,,green,I
0.0,5.0,0.5,1.0,5.0,5.0,437.7831669989973,5.0,1.0,phase_2,stop,950.0,900.0,3.0,,,,,,,,,yellow,triangle
0.0,5.0,0.5,1.0,6.0,0.0,0.0,5.0,1.0,phase_2,go,900.0,900.0,5.0,,,,,,,,,yellow,triangle
0.0,7.0,2.0,1.0,6.0,0.0,0.0,5.0,1.0,phase_2,stop,900.0,900.0,4.0,,,,,,,,,blue,flipped triangle
0.0,5.0,0.5,1.0,5.0,0.0,0.0,5.0,1.0,phase_2,stop,900.0,950.0,4.0,,,,,,,,,yellow,triangle
0.0,3.0,2.0,0.0,5.0,5.0,610.9876319987961,5.0,1.0,phase_2,go,950.0,950.0,1.0,,,,,,,,,magenta,hexagon
0.0,6.0,1.0,1.0,5.0,0.0,0.0,5.0,1.0,phase_2,stop,950.0,950.0,4.0,,,,,,,,,white,cross
0.0,5.0,0.5,1.0,6.0,0.0,0.0,5.0,1.0,phase_2,stop,1000.0,950.0,4.0,,,,,,,,,yellow,triangle
0.0,5.0,0.5,1.0,6.0,0.0,0.0,5.0,1.0,phase_2,stop,1000.0,1000.0,4.0,,,,,,,,,yellow,triangle
0.0,4.0,4.0,0.0,5.0,5.0,657.9823720003333,5.0,1.0,phase_2,go,1000.0,1050.0,1.0,,,,,,,,,cyan,circle
0.0,2.0,1.0,0.0,6.0,6.0,609.4834729992726,5.0,1.0,phase_2,go,1000.0,1050.0,1.0,,,,,,,,,orange,square
0.0,7.0,2.0,1.0,5.0,0.0,0.0,5.0,1.0,phase_2,stop,1000.0,1050.0,4.0,,,,,,,,,blue,flipped triangle
0.0,2.0,1.0,0.0,6.0,6.0,562.3794219991396,5.0,1.0,phase_2,go,1050.0,1050.0,1.0,,,,,,,,,orange,square
0.0,1.0,0.5,0.0,6.0,6.0,590.4706149995036,5.0,1.0,phase_2,go,1050.0,1050.0,1.0,,,,,,,,,green,I
0.0,1.0,0.5,0.0,5.0,5.0,627.7641050000966,5.0,1.0,phase_2,go,1050.0,1050.0,1.0,,,,,,,,,green,I
0.0,7.0,2.0,1.0,6.0,6.0,380.8916959987982,5.0,1.0,phase_2,stop,1050.0,1050.0,3.0,,,,,,,,,blue,flipped triangle
0.0,5.0,0.5,1.0,6.0,0.0,0.0,5.0,1.0,phase_2,stop,1050.0,1000.0,4.0,,,,,,,,,yellow,triangle
0.0,6.0,1.0,1.0,6.0,0.0,0.0,5.0,1.0,phase_2,go,1050.0,1050.0,5.0,,,,,,,,,white,cross
0.0,6.0,1.0,1.0,6.0,0.0,0.0,5.0,1.0,phase_2,stop,1050.0,1050.0,4.0,,,,,,,,,white,cross
0.0,7.0,2.0,1.0,5.0,0.0,0.0,5.0,1.0,phase_2,stop,1050.0,1100.0,4.0,,,,,,,,,blue,flipped triangle
0.0,1.0,0.5,0.0,5.0,5.0,620.7302379989414,5.0,1.0,phase_2,go,1100.0,1100.0,1.0,,,,,,,,,green,I
0.0,6.0,1.0,1.0,5.0,0.0,0.0,5.0,1.0,phase_2,go,1100.0,1100.0,5.0,,,,,,,,,white,cross
0.0,7.0,2.0,1.0,5.0,0.0,0.0,5.0,1.0,phase_2,stop,1100.0,1100.0,4.0,,,,,,,,,blue,flipped triangle
0.0,4.0,4.0,0.0,6.0,6.0,505.5990639993979,5.0,1.0,phase_2,go,1150.0,1100.0,1.0,,,,,,,,,cyan,circle
0.0,2.0,1.0,0.0,5.0,5.0,1282.4711129997013,5.0,1.0,phase_2,go,1150.0,1100.0,1.0,,,,,,,,,orange,square
0.0,6.0,1.0,1.0,5.0,0.0,0.0,5.0,1.0,phase_2,stop,1150.0,1100.0,4.0,,,,,,,,,white,cross
0.0,2.0,1.0,0.0,6.0,6.0,531.6949980006029,5.0,1.0,phase_2,go,1200.0,1100.0,1.0,,,,,,,,,orange,square
0.0,5.0,0.5,1.0,6.0,0.0,0.0,5.0,1.0,phase_2,stop,1200.0,1100.0,4.0,,,,,,,,,yellow,triangle
0.0,8.0,4.0,1.0,5.0,5.0,969.8253349997684,5.0,1.0,phase_2,stop,1200.0,1150.0,3.0,,,,,,,,,gray,diamond
0.0,4.0,4.0,0.0,5.0,5.0,610.5797290001647,5.0,1.0,phase_2,go,1150.0,1150.0,1.0,,,,,,,,,cyan,circle
0.0,8.0,4.0,1.0,6.0,0.0,0.0,6.0,1.0,phase_2,go,1150.0,1150.0,5.0,,,,,,,,,gray,diamond
0.0,6.0,1.0,1.0,5.0,0.0,0.0,6.0,1.0,phase_2,stop,1150.0,1150.0,4.0,,,,,,,,,white,cross
0.0,3.0,2.0,0.0,5.0,5.0,591.2075549986184,6.0,1.0,phase_2,go,1200.0,1150.0,1.0,,,,,,,,,magenta,hexagon
0.0,4.0,4.0,0.0,6.0,6.0,446.4240179986518,6.0,1.0,phase_2,go,1200.0,1150.0,1.0,,,,,,,,,cyan,circle
0.0,5.0,0.5,1.0,5.0,5.0,522.3081359999924,6.0,1.0,phase_2,go,1200.0,1150.0,1.0,,,,,,,,,yellow,triangle
0.0,4.0,4.0,0.0,5.0,5.0,767.3849500006327,6.0,1.0,phase_2,go,1200.0,1150.0,1.0,,,,,,,,,cyan,circle
0.0,1.0,0.5,0.0,5.0,5.0,511.16849900063244,6.0,1.0,phase_2,go,1200.0,1150.0,1.0,,,,,,,,,green,I
0.0,7.0,2.0,1.0,6.0,0.0,0.0,6.0,1.0,phase_2,stop,1200.0,1150.0,4.0,,,,,,,,,blue,flipped triangle
0.0,5.0,0.5,1.0,6.0,0.0,0.0,6.0,1.0,phase_2,go,1200.0,1200.0,5.0,,,,,,,,,yellow,triangle
0.0,6.0,1.0,1.0,5.0,0.0,0.0,6.0,1.0,phase_2,stop,1200.0,1200.0,4.0,,,,,,,,,white,cross
0.0,1.0,0.5,0.0,5.0,5.0,665.5048390002776,6.0,1.0,phase_2,go,1250.0,1200.0,1.0,,,,,,,,,green,I
0.0,5.0,0.5,1.0,5.0,0.0,0.0,6.0,1.0,phase_2,stop,1250.0,1200.0,4.0,,,,,,,,,yellow,triangle
0.0,5.0,0.5,1.0,5.0,0.0,0.0,6.0,1.0,phase_2,stop,1300.0,1200.0,4.0,,,,,,,,,yellow,triangle
0.0,8.0,4.0,1.0,6.0,6.0,626.9922760002373,6.0,1.0,phase_2,stop,1350.0,1200.0,3.0,,,,,,,,,gray,diamond
0.0,1.0,0.5,0.0,5.0,5.0,683.8593910015334,6.0,1.0,phase_2,go,1350.0,1150.0,1.0,,,,,,,,,green,I
0.0,7.0,2.0,1.0,5.0,0.0,0.0,6.0,1.0,phase_2,stop,1350.0,1150.0,4.0,,,,,,,,,blue,flipped triangle
0.0,2.0,1.0,0.0,6.0,6.0,704.2948020007316,6.0,1.0,phase_2,go,1400.0,1150.0,1.0,,,,,,,,,orange,square
0.0,8.0,4.0,1.0,5.0,0.0,0.0,6.0,1.0,phase_2,go,1400.0,1150.0,5.0,,,,,,,,,gray,diamond
0.0,7.0,2.0,1.0,5.0,0.0,0.0,6.0,1.0,phase_2,stop,1400.0,1150.0,4.0,,,,,,,,,blue,flipped triangle
0.0,4.0,4.0,0.0,5.0,5.0,732.9619689990068,6.0,1.0,phase_2,go,1450.0,1150.0,1.0,,,,,,,,,cyan,circle
0.0,4.0,4.0,0.0,5.0,5.0,503.4802070003934,6.0,1.0,phase_2,go,1450.0,1150.0,1.0,,,,,,,,,cyan,circle
0.0,8.0,4.0,1.0,5.0,0.0,0.0,6.0,1.0,phase_2,stop,1450.0,1150.0,4.0,,,,,,,,,gray,diamond
0.0,3.0,2.0,0.0,5.0,5.0,1147.1822040002737,6.0,1.0,phase_2,go,1500.0,1150.0,1.0,,,,,,,,,magenta,hexagon
0.0,6.0,1.0,1.0,5.0,0.0,0.0,6.0,1.0,phase_2,stop,1500.0,1150.0,4.0,,,,,,,,,white,cross
0.0,6.0,1.0,1.0,5.0,0.0,0.0,6.0,1.0,phase_2,stop,1550.0,1150.0,4.0,,,,,,,,,white,cross
0.0,2.0,1.0,0.0,6.0,6.0,569.1959249998035,6.0,1.0,phase_2,go,1600.0,1150.0,1.0,,,,,,,,,orange,square
0.0,2.0,1.0,0.0,6.0,6.0,523.0527910007368,6.0,1.0,phase_2,go,1600.0,1150.0,1.0,,,,,,,,,orange,square
0.0,6.0,1.0,1.0,5.0,0.0,0.0,6.0,1.0,phase_2,stop,1600.0,1150.0,4.0,,,,,,,,,white,cross
0.0,2.0,1.0,0.0,5.0,5.0,598.4102909987996,6.0,1.0,phase_2,go,1650.0,1150.0,1.0,,,,,,,,,orange,square
0.0,2.0,1.0,0.0,6.0,6.0,407.871873001568,6.0,1.0,phase_2,go,1650.0,1150.0,1.0,,,,,,,,,orange,square
0.0,6.0,1.0,1.0,6.0,0.0,0.0,6.0,1.0,phase_2,stop,1650.0,1150.0,4.0,,,,,,,,,white,cross
0.0,7.0,2.0,1.0,5.0,0.0,0.0,6.0,1.0,phase_2,go,1650.0,1200.0,5.0,,,,,,,,,blue,flipped triangle
0.0,6.0,1.0,1.0,6.0,0.0,0.0,6.0,1.0,phase_2,stop,1650.0,1200.0,4.0,,,,,,,,,white,cross
0.0,7.0,2.0,1.0,6.0,0.0,0.0,6.0,1.0,phase_2,stop,1650.0,1250.0,4.0,,,,,,,,,blue,flipped triangle
0.0,1.0,0.5,0.0,5.0,5.0,597.6906050000252,6.0,1.0,phase_2,go,1650.0,1300.0,1.0,,,,,,,,,green,I
0.0,1.0,0.5,0.0,5.0,5.0,521.9940549995954,6.0,1.0,phase_2,go,1650.0,1300.0,1.0,,,,,,,,,green,I
0.0,2.0,1.0,0.0,5.0,5.0,551.0845570006495,7.0,1.0,phase_2,go,1650.0,1300.0,1.0,,,,,,,,,orange,square
0.0,4.0,4.0,0.0,6.0,6.0,590.1024820013845,7.0,1.0,phase_2,go,1650.0,1300.0,1.0,,,,,,,,,cyan,circle
0.0,4.0,4.0,0.0,5.0,5.0,399.1905790007877,7.0,1.0,phase_2,go,1650.0,1300.0,1.0,,,,,,,,,cyan,circle
0.0,8.0,4.0,1.0,6.0,0.0,0.0,7.0,1.0,phase_2,stop,1650.0,1300.0,4.0,,,,,,,,,gray,diamond
0.0,3.0,2.0,0.0,6.0,6.0,656.1454930015316,7.0,1.0,phase_2,go,1650.0,1350.0,1.0,,,,,,,,,magenta,hexagon
0.0,8.0,4.0,1.0,5.0,0.0,0.0,7.0,1.0,phase_2,stop,1650.0,1350.0,4.0,,,,,,,,,gray,diamond
0.0,4.0,4.0,0.0,6.0,6.0,523.333408000326,7.0,1.0,phase_2,go,1700.0,1350.0,1.0,,,,,,,,,cyan,circle
0.0,1.0,0.5,0.0,6.0,6.0,476.2809789990569,7.0,1.0,phase_2,go,1700.0,1350.0,1.0,,,,,,,,,green,I
0.0,4.0,4.0,0.0,6.0,6.0,530.9464130004926,7.0,1.0,phase_2,go,1700.0,1350.0,1.0,,,,,,,,,cyan,circle
0.0,4.0,4.0,0.0,6.0,6.0,362.2664930007886,7.0,1.0,phase_2,go,1700.0,1350.0,1.0,,,,,,,,,cyan,circle
0.0,1.0,0.5,0.0,6.0,6.0,494.6892999996635,7.0,1.0,phase_2,go,1700.0,1350.0,1.0,,,,,,,,,green,I
0.0,1.0,0.5,0.0,6.0,6.0,360.94408200006,7.0,1.0,phase_2,go,1700.0,1350.0,1.0,,,,,,,,,green,I
0.0,3.0,2.0,0.0,6.0,6.0,599.6496390016546,7.0,1.0,phase_2,go,1700.0,1350.0,1.0,,,,,,,,,magenta,hexagon
0.0,6.0,1.0,1.0,6.0,0.0,0.0,7.0,1.0,phase_2,stop,1700.0,1350.0,4.0,,,,,,,,,white,cross
0.0,7.0,2.0,1.0,6.0,0.0,0.0,7.0,1.0,phase_2,stop,1700.0,1400.0,4.0,,,,,,,,,blue,flipped triangle
0.0,1.0,0.5,0.0,6.0,6.0,579.6935989983467,7.0,1.0,phase_2,go,1700.0,1450.0,1.0,,,,,,,,,green,I
0.0,8.0,4.0,1.0,6.0,0.0,0.0,7.0,1.0,phase_2,stop,1700.0,1450.0,4.0,,,,,,,,,gray,diamond
0.0,5.0,0.5,1.0,5.0,0.0,0.0,7.0,1.0,phase_2,go,1700.0,1500.0,5.0,,,,,,,,,yellow,triangle
0.0,5.0,0.5,1.0,5.0,0.0,0.0,7.0,1.0,phase_2,stop,1700.0,1500.0,4.0,,,,,,,,,yellow,triangle
0.0,7.0,2.0,1.0,6.0,0.0,0.0,7.0,1.0,phase_2,go,1750.0,1500.0,5.0,,,,,,,,,blue,flipped triangle
0.0,5.0,0.5,1.0,6.0,0.0,0.0,7.0,1.0,phase_2,stop,1750.0,1500.0,4.0,,,,,,,,,yellow,triangle
0.0,7.0,2.0,1.0,5.0,0.0,0.0,7.0,1.0,phase_2,stop,1750.0,1550.0,4.0,,,,,,,,,blue,flipped triangle
0.0,7.0,2.0,1.0,6.0,0.0,0.0,7.0,1.0,phase_2,stop,1800.0,1550.0,4.0,,,,,,,,,blue,flipped triangle
0.0,3.0,2.0,0.0,6.0,6.0,674.585284999921,7.0,1.0,phase_2,go,1800.0,1600.0,1.0,,,,,,,,,magenta,hexagon
0.0,3.0,2.0,0.0,5.0,5.0,646.2241769986576,7.0,1.0,phase_2,go,1800.0,1600.0,1.0,,,,,,,,,magenta,hexagon
0.0,1.0,0.5,0.0,6.0,6.0,512.0823500001279,7.0,1.0,phase_2,go,1800.0,1600.0,1.0,,,,,,,,,green,I
0.0,6.0,1.0,1.0,5.0,0.0,0.0,7.0,1.0,phase_2,go,1800.0,1600.0,5.0,,,,,,,,,white,cross
0.0,6.0,1.0,1.0,5.0,0.0,0.0,7.0,1.0,phase_2,go,1800.0,1600.0,5.0,,,,,,,,,white,cross
0.0,7.0,2.0,1.0,6.0,0.0,0.0,7.0,1.0,phase_2,go,1800.0,1600.0,5.0,,,,,,,,,blue,flipped triangle
0.0,8.0,4.0,1.0,6.0,0.0,0.0,7.0,1.0,phase_2,stop,1800.0,1600.0,4.0,,,,,,,,,gray,diamond
0.0,8.0,4.0,1.0,6.0,0.0,0.0,7.0,1.0,phase_2,stop,1800.0,1650.0,4.0,,,,,,,,,gray,diamond
0.0,2.0,1.0,0.0,5.0,5.0,675.7453299996996,7.0,1.0,phase_2,go,1800.0,1700.0,1.0,,,,,,,,,orange,square
0.0,4.0,4.0,0.0,6.0,6.0,809.0814450006292,7.0,1.0,phase_2,go,1800.0,1700.0,1.0,,,,,,,,,cyan,circle
0.0,6.0,1.0,1.0,5.0,0.0,0.0,7.0,1.0,phase_2,stop,1800.0,1700.0,4.0,,,,,,,,,white,cross
0.0,2.0,1.0,0.0,5.0,5.0,1188.489554999251,7.0,1.0,phase_2,go,1850.0,1700.0,1.0,,,,,,,,,orange,square
0.0,5.0,0.5,1.0,5.0,5.0,419.1269550010474,7.0,1.0,phase_2,stop,1850.0,1700.0,3.0,,,,,,,,,yellow,triangle
0.0,1.0,0.5,0.0,6.0,6.0,465.9765129999869,8.0,1.0,phase_2,go,1800.0,1700.0,1.0,,,,,,,,,green,I
0.0,6.0,1.0,1.0,6.0,0.0,0.0,8.0,1.0,phase_2,go,1800.0,1700.0,5.0,,,,,,,,,white,cross
0.0,8.0,4.0,1.0,6.0,0.0,0.0,8.0,1.0,phase_2,stop,1800.0,1700.0,4.0,,,,,,,,,gray,diamond
0.0,3.0,2.0,0.0,6.0,6.0,901.8672960010008,8.0,1.0,phase_2,go,1800.0,1750.0,1.0,,,,,,,,,magenta,hexagon
0.0,6.0,1.0,1.0,6.0,0.0,0.0,8.0,1.0,phase_2,stop,1800.0,1750.0,4.0,,,,,,,,,white,cross
0.0,1.0,0.5,0.0,5.0,5.0,665.4805630005285,8.0,1.0,phase_2,go,1800.0,1800.0,1.0,,,,,,,,,green,I
0.0,8.0,4.0,1.0,5.0,0.0,0.0,8.0,1.0,phase_2,go,1800.0,1800.0,5.0,,,,,,,,,gray,diamond
0.0,4.0,4.0,0.0,5.0,5.0,579.0898560007918,8.0,1.0,phase_2,go,1800.0,1800.0,1.0,,,,,,,,,cyan,circle
0.0,7.0,2.0,1.0,6.0,0.0,0.0,8.0,1.0,phase_2,go,1800.0,1800.0,5.0,,,,,,,,,blue,flipped triangle
0.0,2.0,1.0,0.0,5.0,5.0,542.0920289998321,8.0,1.0,phase_2,go,1800.0,1800.0,1.0,,,,,,,,,orange,square
0.0,7.0,2.0,1.0,5.0,0.0,0.0,8.0,1.0,phase_2,go,1800.0,1800.0,5.0,,,,,,,,,blue,flipped triangle
0.0,6.0,1.0,1.0,6.0,0.0,0.0,8.0,1.0,phase_2,go,1800.0,1800.0,5.0,,,,,,,,,white,cross
0.0,8.0,4.0,1.0,6.0,0.0,0.0,8.0,1.0,phase_2,stop,1800.0,1800.0,4.0,,,,,,,,,gray,diamond
0.0,2.0,1.0,0.0,6.0,6.0,685.1529439991282,8.0,1.0,phase_2,go,1800.0,1850.0,1.0,,,,,,,,,orange,square
0.0,8.0,4.0,1.0,6.0,0.0,0.0,8.0,1.0,phase_2,stop,1800.0,1850.0,4.0,,,,,,,,,gray,diamond
0.0,2.0,1.0,0.0,5.0,5.0,637.6174019987957,8.0,1.0,phase_2,go,1800.0,1900.0,1.0,,,,,,,,,orange,square
0.0,3.0,2.0,0.0,6.0,6.0,675.5343479999283,8.0,1.0,phase_2,go,1800.0,1900.0,1.0,,,,,,,,,magenta,hexagon
0.0,8.0,4.0,1.0,5.0,0.0,0.0,8.0,1.0,phase_2,stop,1800.0,1900.0,4.0,,,,,,,,,gray,diamond
0.0,8.0,4.0,1.0,5.0,0.0,0.0,8.0,1.0,phase_2,stop,1850.0,1900.0,4.0,,,,,,,,,gray,diamond
0.0,3.0,2.0,0.0,5.0,5.0,781.2083449989586,8.0,1.0,phase_2,go,1900.0,1900.0,1.0,,,,,,,,,magenta,hexagon
0.0,4.0,4.0,0.0,5.0,5.0,522.1687089997431,8.0,1.0,phase_2,go,1900.0,1900.0,1.0,,,,,,,,,cyan,circle
0.0,4.0,4.0,0.0,5.0,5.0,571.3718979986879,8.0,1.0,phase_2,go,1900.0,1900.0,1.0,,,,,,,,,cyan,circle
0.0,5.0,0.5,1.0,6.0,0.0,0.0,8.0,1.0,phase_2,stop,1900.0,1900.0,4.0,,,,,,,,,yellow,triangle
0.0,5.0,0.5,1.0,6.0,0.0,0.0,8.0,1.0,phase_2,stop,1900.0,1950.0,4.0,,,,,,,,,yellow,triangle
0.0,4.0,4.0,0.0,5.0,5.0,733.2333239992295,8.0,1.0,phase_2,go,1900.0,2000.0,1.0,,,,,,,,,cyan,circle
0.0,8.0,4.0,1.0,5.0,0.0,0.0,8.0,1.0,phase_2,stop,1900.0,2000.0,4.0,,,,,,,,,gray,diamond
0.0,6.0,1.0,1.0,5.0,0.0,0.0,8.0,1.0,phase_2,stop,1950.0,2000.0,4.0,,,,,,,,,white,cross
0.0,7.0,2.0,1.0,6.0,0.0,0.0,8.0,1.0,phase_2,stop,2000.0,2000.0,4.0,,,,,,,,,blue,flipped triangle
0.0,2.0,1.0,0.0,6.0,6.0,559.8296959997242,8.0,1.0,phase_2,go,2000.0,2050.0,1.0,,,,,,,,,orange,square
0.0,1.0,0.5,0.0,6.0,6.0,551.785858000585,8.0,1.0,phase_2,go,2000.0,2050.0,1.0,,,,,,,,,green,I
0.0,7.0,2.0,1.0,5.0,0.0,0.0,8.0,1.0,phase_2,stop,2000.0,2050.0,4.0,,,,,,,,,blue,flipped triangle
0.0,3.0,2.0,0.0,6.0,6.0,639.2412440000044,8.0,1.0,phase_2,go,2050.0,2050.0,1.0,,,,,,,,,magenta,hexagon
0.0,1.0,0.5,0.0,5.0,5.0,673.5073489999195,8.0,1.0,phase_2,go,2050.0,2050.0,1.0,,,,,,,,,green,I
0.0,2.0,1.0,0.0,6.0,6.0,512.9690560006566,8.0,1.0,phase_2,go,2050.0,2050.0,1.0,,,,,,,,,orange,square
0.0,4.0,4.0,0.0,5.0,5.0,389.6684030005417,8.0,1.0,phase_2,go,2050.0,2050.0,1.0,,,,,,,,,cyan,circle
0.0,2.0,1.0,0.0,5.0,5.0,503.4112479988835,8.0,1.0,phase_2,go,2050.0,2050.0,1.0,,,,,,,,,orange,square
0.0,2.0,1.0,0.0,7.0,2.0,4299.67948400008,1.0,1.0,phase_3,,,,,692.0,4.0,346.0,692.0,173.0,1038.0,865.0,519.0,orange,square
0.0,6.0,1.0,1.0,7.0,2.0,4323.014687000978,1.0,1.0,phase_3,,,,,384.0,2.0,768.0,384.0,1152.0,960.0,576.0,192.0,white,cross
0.0,4.0,4.0,0.0,7.0,4.0,1751.3479629997164,1.0,2.0,phase_3,,,,,696.0,6.0,348.0,580.0,464.0,696.0,116.0,232.0,cyan,circle
0.0,2.0,1.0,0.0,7.0,6.0,3880.825909000123,1.0,1.0,phase_3,,,,,696.0,6.0,464.0,116.0,580.0,232.0,348.0,696.0,orange,square
0.0,1.0,0.5,0.0,7.0,3.0,1900.377058998856,1.0,1.0,phase_3,,,,,173.0,1.0,1038.0,346.0,173.0,519.0,865.0,692.0,green,I
0.0,1.0,0.5,0.0,7.0,3.0,1187.8011360004166,1.0,1.0,phase_3,,,,,192.0,1.0,768.0,576.0,192.0,1152.0,384.0,960.0,green,I
0.0,4.0,4.0,0.0,7.0,3.0,1663.4409510006662,1.0,1.0,phase_3,,,,,924.0,6.0,308.0,462.0,924.0,154.0,616.0,770.0,cyan,circle
0.0,5.0,0.5,1.0,7.0,1.0,3599.223951001477,1.0,1.0,phase_3,,,,,270.0,2.0,270.0,135.0,405.0,675.0,810.0,540.0,yellow,triangle
0.0,8.0,4.0,1.0,7.0,5.0,2506.0414769995987,1.0,1.0,phase_3,,,,,696.0,6.0,348.0,464.0,580.0,116.0,696.0,232.0,gray,diamond
0.0,8.0,4.0,1.0,7.0,2.0,2327.4841839993314,1.0,1.0,phase_3,,,,,810.0,6.0,270.0,810.0,405.0,135.0,540.0,675.0,gray,diamond
0.0,5.0,0.5,1.0,7.0,3.0,1619.522388000405,1.0,1.0,phase_3,,,,,348.0,3.0,464.0,232.0,348.0,580.0,116.0,696.0,yellow,triangle
0.0,3.0,2.0,0.0,7.0,1.0,3142.770053998902,1.0,1.0,phase_3,,,,,576.0,3.0,576.0,768.0,960.0,192.0,1152.0,384.0,magenta,hexagon
0.0,1.0,0.5,0.0,7.0,3.0,1997.1812769999813,1.0,1.0,phase_3,,,,,308.0,2.0,770.0,154.0,308.0,462.0,924.0,616.0,green,I
0.0,1.0,0.5,0.0,7.0,4.0,2194.933108999976,1.0,1.0,phase_3,,,,,346.0,2.0,1038.0,692.0,865.0,346.0,173.0,519.0,green,I
0.0,6.0,1.0,1.0,7.0,1.0,1817.5435470002408,1.0,1.0,phase_3,,,,,154.0,1.0,154.0,924.0,616.0,308.0,770.0,462.0,white,cross
0.0,6.0,1.0,1.0,7.0,4.0,1575.3741669996089,1.0,1.0,phase_3,,,,,116.0,1.0,348.0,232.0,580.0,116.0,464.0,696.0,white,cross
0.0,3.0,2.0,0.0,7.0,4.0,1541.3216349988943,1.0,1.0,phase_3,,,,,696.0,6.0,464.0,580.0,348.0,696.0,232.0,116.0,magenta,hexagon
0.0,2.0,1.0,0.0,7.0,5.0,1170.6973050004308,1.0,2.0,phase_3,,,,,580.0,5.0,348.0,232.0,116.0,696.0,580.0,464.0,orange,square
0.0,1.0,0.5,0.0,7.0,2.0,2453.415100999337,1.0,1.0,phase_3,,,,,116.0,1.0,464.0,116.0,580.0,696.0,232.0,348.0,green,I
0.0,8.0,4.0,1.0,7.0,3.0,3054.209850000916,1.0,1.0,phase_3,,,,,696.0,6.0,464.0,348.0,696.0,232.0,580.0,116.0,gray,diamond
0.0,3.0,2.0,0.0,7.0,1.0,2969.6532620000653,2.0,1.0,phase_3,,,,,616.0,4.0,616.0,770.0,924.0,154.0,308.0,462.0,magenta,hexagon
0.0,6.0,1.0,1.0,7.0,3.0,1416.0217999997258,2.0,1.0,phase_3,,,,,116.0,1.0,348.0,580.0,116.0,464.0,232.0,696.0,white,cross
0.0,3.0,2.0,0.0,7.0,4.0,2945.78916700084,2.0,1.0,phase_3,,,,,580.0,5.0,348.0,464.0,232.0,580.0,696.0,116.0,magenta,hexagon
0.0,8.0,4.0,1.0,7.0,6.0,3135.2659320000384,2.0,1.0,phase_3,,,,,810.0,6.0,135.0,270.0,405.0,675.0,540.0,810.0,gray,diamond
0.0,5.0,0.5,1.0,7.0,4.0,2773.130986999604,2.0,1.0,phase_3,,,,,308.0,2.0,770.0,924.0,154.0,308.0,616.0,462.0,yellow,triangle
0.0,2.0,1.0,0.0,7.0,5.0,2897.6906570005667,2.0,1.0,phase_3,,,,,519.0,3.0,173.0,692.0,865.0,346.0,519.0,1038.0,orange,square
0.0,8.0,4.0,1.0,7.0,2.0,1874.180085000262,2.0,1.0,phase_3,,,,,1038.0,6.0,692.0,1038.0,346.0,173.0,865.0,519.0,gray,diamond
0.0,4.0,4.0,0.0,7.0,5.0,2952.2494800003187,2.0,1.0,phase_3,,,,,696.0,6.0,232.0,580.0,348.0,464.0,696.0,116.0,cyan,circle
0.0,8.0,4.0,1.0,7.0,2.0,2388.80391299972,2.0,1.0,phase_3,,,,,924.0,6.0,770.0,924.0,308.0,462.0,616.0,154.0,gray,diamond
0.0,3.0,2.0,0.0,7.0,1.0,2775.4683769999247,2.0,1.0,phase_3,,,,,519.0,3.0,519.0,1038.0,346.0,865.0,692.0,173.0,magenta,hexagon
0.0,1.0,0.5,0.0,7.0,6.0,2432.103905000986,2.0,1.0,phase_3,,,,,154.0,1.0,616.0,308.0,924.0,770.0,462.0,154.0,green,I
0.0,6.0,1.0,1.0,7.0,6.0,1160.153430999344,2.0,1.0,phase_3,,,,,135.0,1.0,540.0,270.0,810.0,675.0,405.0,135.0,white,cross
0.0,7.0,2.0,1.0,7.0,6.0,3292.016839999633,2.0,1.0,phase_3,,,,,384.0,2.0,768.0,1152.0,960.0,576.0,192.0,384.0,blue,flipped triangle
0.0,5.0,0.5,1.0,7.0,5.0,2228.438426998764,2.0,1.0,phase_3,,,,,270.0,2.0,135.0,810.0,540.0,405.0,270.0,675.0,yellow,triangle
0.0,4.0,4.0,0.0,7.0,5.0,1629.2971669990948,2.0,1.0,phase_3,,,,,1152.0,6.0,384.0,768.0,192.0,960.0,1152.0,576.0,cyan,circle
0.0,8.0,4.0,1.0,7.0,4.0,1393.3190440002363,2.0,1.0,phase_3,,,,,1038.0,6.0,519.0,865.0,173.0,1038.0,346.0,692.0,gray,diamond
0.0,3.0,2.0,0.0,7.0,3.0,3714.356975999181,2.0,1.0,phase_3,,,,,692.0,4.0,519.0,346.0,692.0,173.0,865.0,1038.0,magenta,hexagon
0.0,4.0,4.0,0.0,7.0,5.0,1970.2890640000987,2.0,1.0,phase_3,,,,,810.0,6.0,675.0,540.0,270.0,405.0,810.0,135.0,cyan,circle
0.0,6.0,1.0,1.0,7.0,1.0,1913.2471040011296,2.0,1.0,phase_3,,,,,173.0,1.0,173.0,519.0,865.0,346.0,692.0,1038.0,white,cross
0.0,8.0,4.0,1.0,7.0,4.0,1506.9058349999978,2.0,1.0,phase_3,,,,,1152.0,6.0,384.0,768.0,576.0,1152.0,960.0,192.0,gray,diamond
0.0,2.0,1.0,0.0,7.0,2.0,3367.493875000946,3.0,1.0,phase_3,,,,,675.0,5.0,540.0,675.0,135.0,270.0,810.0,405.0,orange,square
0.0,2.0,1.0,0.0,7.0,1.0,2249.2149340014294,3.0,1.0,phase_3,,,,,616.0,4.0,616.0,770.0,924.0,462.0,308.0,154.0,orange,square
0.0,7.0,2.0,1.0,7.0,4.0,2523.000826999123,3.0,1.0,phase_3,,,,,346.0,2.0,865.0,1038.0,692.0,346.0,519.0,173.0,blue,flipped triangle
0.0,2.0,1.0,0.0,7.0,4.0,2406.695268000476,3.0,1.0,phase_3,,,,,616.0,4.0,308.0,924.0,770.0,616.0,462.0,154.0,orange,square
0.0,7.0,2.0,1.0,7.0,5.0,2859.60513900136,3.0,1.0,phase_3,,,,,270.0,2.0,540.0,675.0,135.0,405.0,270.0,810.0,blue,flipped triangle
0.0,1.0,0.5,0.0,7.0,4.0,2099.5357379997586,3.0,1.0,phase_3,,,,,192.0,1.0,960.0,768.0,1152.0,192.0,384.0,576.0,green,I
0.0,6.0,1.0,1.0,7.0,1.0,2000.2220130008936,3.0,1.0,phase_3,,,,,154.0,1.0,154.0,924.0,462.0,616.0,770.0,308.0,white,cross
0.0,1.0,0.5,0.0,7.0,6.0,2502.498159999959,3.0,1.0,phase_3,,,,,270.0,2.0,540.0,675.0,810.0,135.0,405.0,270.0,green,I
0.0,5.0,0.5,1.0,7.0,1.0,2888.7725370004773,3.0,1.0,phase_3,,,,,384.0,2.0,384.0,1152.0,192.0,960.0,768.0,576.0,yellow,triangle
0.0,6.0,1.0,1.0,7.0,6.0,2101.9611000010627,3.0,1.0,phase_3,,,,,192.0,1.0,768.0,1152.0,960.0,384.0,576.0,192.0,white,cross
0.0,2.0,1.0,0.0,7.0,6.0,2910.583193999628,3.0,2.0,phase_3,,,,,576.0,3.0,768.0,960.0,1152.0,192.0,384.0,576.0,orange,square
0.0,3.0,2.0,0.0,7.0,2.0,4428.030295001008,3.0,1.0,phase_3,,,,,576.0,3.0,384.0,576.0,192.0,1152.0,768.0,960.0,magenta,hexagon
0.0,4.0,4.0,0.0,7.0,3.0,2515.496690000873,3.0,1.0,phase_3,,,,,810.0,6.0,135.0,270.0,810.0,675.0,540.0,405.0,cyan,circle
0.0,6.0,1.0,1.0,7.0,5.0,3158.6583810003503,3.0,1.0,phase_3,,,,,270.0,2.0,675.0,810.0,540.0,135.0,270.0,405.0,white,cross
0.0,5.0,0.5,1.0,7.0,4.0,1438.5697550005716,3.0,1.0,phase_3,,,,,308.0,2.0,154.0,616.0,770.0,308.0,462.0,924.0,yellow,triangle
0.0,3.0,2.0,0.0,7.0,3.0,2030.4870769996342,3.0,1.0,phase_3,,,,,675.0,5.0,540.0,405.0,675.0,135.0,810.0,270.0,magenta,hexagon
0.0,8.0,4.0,1.0,7.0,2.0,2059.7077750007884,3.0,1.0,phase_3,,,,,924.0,6.0,154.0,924.0,616.0,462.0,308.0,770.0,gray,diamond
0.0,3.0,2.0,0.0,7.0,1.0,1923.8789769988216,3.0,1.0,phase_3,,,,,616.0,4.0,616.0,154.0,770.0,308.0,462.0,924.0,magenta,hexagon
0.0,4.0,4.0,0.0,7.0,5.0,2204.330712000228,3.0,1.0,phase_3,,,,,1152.0,6.0,960.0,192.0,384.0,768.0,1152.0,576.0,cyan,circle
0.0,4.0,4.0,0.0,7.0,6.0,1978.2296759985911,3.0,1.0,phase_3,,,,,1038.0,6.0,346.0,173.0,692.0,519.0,865.0,1038.0,cyan,circle
0.0,5.0,0.5,1.0,7.0,6.0,3210.2479969998967,4.0,1.0,phase_3,,,,,348.0,3.0,696.0,464.0,580.0,116.0,232.0,348.0,yellow,triangle
0.0,6.0,1.0,1.0,7.0,5.0,2681.969342000229,4.0,1.0,phase_3,,,,,173.0,1.0,346.0,865.0,692.0,1038.0,173.0,519.0,white,cross
0.0,2.0,1.0,0.0,7.0,2.0,3195.7295760003035,4.0,1.0,phase_3,,,,,540.0,4.0,270.0,540.0,810.0,405.0,675.0,135.0,orange,square
0.0,4.0,4.0,0.0,7.0,6.0,2275.483412999165,4.0,1.0,phase_3,,,,,1038.0,6.0,692.0,173.0,865.0,346.0,519.0,1038.0,cyan,circle
0.0,1.0,0.5,0.0,7.0,1.0,3782.553046999965,4.0,1.0,phase_3,,,,,348.0,3.0,348.0,464.0,580.0,232.0,696.0,116.0,green,I
0.0,5.0,0.5,1.0,7.0,3.0,3099.7591980012658,4.0,1.0,phase_3,,,,,346.0,2.0,1038.0,692.0,346.0,173.0,865.0,519.0,yellow,triangle
0.0,5.0,0.5,1.0,7.0,2.0,4831.139148998773,4.0,1.0,phase_3,,,,,384.0,2.0,192.0,384.0,768.0,1152.0,960.0,576.0,yellow,triangle
0.0,1.0,0.5,0.0,7.0,3.0,2926.275084000736,4.0,1.0,phase_3,,,,,135.0,1.0,405.0,270.0,135.0,810.0,675.0,540.0,green,I
0.0,4.0,4.0,0.0,7.0,3.0,3307.522109000274,4.0,1.0,phase_3,,,,,770.0,5.0,616.0,308.0,770.0,462.0,924.0,154.0,cyan,circle
0.0,7.0,2.0,1.0,7.0,6.0,2278.8690340003086,4.0,1.0,phase_3,,,,,308.0,2.0,616.0,770.0,924.0,154.0,462.0,308.0,blue,flipped triangle
0.0,7.0,2.0,1.0,7.0,2.0,3905.1503490009054,4.0,1.0,phase_3,,,,,348.0,3.0,696.0,348.0,232.0,580.0,464.0,116.0,blue,flipped triangle
0.0,5.0,0.5,1.0,7.0,2.0,3450.639508999302,4.0,1.0,phase_3,,,,,346.0,2.0,1038.0,346.0,173.0,692.0,865.0,519.0,yellow,triangle
0.0,7.0,2.0,1.0,7.0,4.0,1632.0024510005169,4.0,1.0,phase_3,,,,,308.0,2.0,462.0,154.0,616.0,308.0,924.0,770.0,blue,flipped triangle
0.0,2.0,1.0,0.0,7.0,5.0,3557.7467599996453,4.0,1.0,phase_3,,,,,576.0,3.0,192.0,1152.0,384.0,768.0,576.0,960.0,orange,square
0.0,3.0,2.0,0.0,7.0,6.0,2928.7107500003917,4.0,1.0,phase_3,,,,,540.0,4.0,135.0,405.0,675.0,270.0,810.0,540.0,magenta,hexagon
0.0,7.0,2.0,1.0,7.0,4.0,4608.384074999776,4.0,1.0,phase_3,,,,,346.0,2.0,692.0,865.0,173.0,346.0,1038.0,519.0,blue,flipped triangle
0.0,8.0,4.0,1.0,7.0,5.0,1476.485594001133,4.0,1.0,phase_3,,,,,1152.0,6.0,960.0,384.0,576.0,768.0,1152.0,192.0,gray,diamond
0.0,7.0,2.0,1.0,7.0,1.0,2263.4505610003544,4.0,1.0,phase_3,,,,,270.0,2.0,270.0,405.0,540.0,810.0,135.0,675.0,blue,flipped triangle
0.0,7.0,2.0,1.0,7.0,3.0,2789.2373089998728,4.0,1.0,phase_3,,,,,348.0,3.0,580.0,116.0,348.0,696.0,464.0,232.0,blue,flipped triangle
0.0,7.0,2.0,1.0,7.0,2.0,3591.881092001131,4.0,1.0,phase_3,,,,,384.0,2.0,960.0,384.0,576.0,1152.0,192.0,768.0,blue,flipped triangle
