raw_reward_magnitude,stim_reward,stepwise_reward_magnitude,paired_with_stopping,stim_location,response,reaction_time,block,num_trial_presentations,which_phase,stop_signal_trial_type,left_SSD,right_SSD,accuracy,chosen_bidding_amount,chosen_bidding_level,possible_bid_1,possible_bid_2,possible_bid_3,possible_bid_4,possible_bid_5,possible_bid_6,color_text,shape_text
328.0,6.0,2.0,1.0,1.0,1.0,578.2875869999771,1.0,1.0,phase_1,,,,,,,,,,,,,orange,square
1276.0,4.0,4.0,0.0,2.0,2.0,569.0730480000639,1.0,1.0,phase_1,,,,,,,,,,,,,cyan,triangle
169.0,1.0,1.0,0.0,4.0,4.0,444.3272659996182,1.0,1.0,phase_1,,,,,,,,,,,,,yellow,flipped triangle
342.0,6.0,2.0,1.0,2.0,2.0,607.4085529999138,1.0,1.0,phase_1,,,,,,,,,,,,,orange,square
331.0,6.0,2.0,1.0,4.0,4.0,430.512649999855,1.0,1.0,phase_1,,,,,,,,,,,,,orange,square
347.0,2.0,2.0,0.0,4.0,4.0,471.2566560001505,1.0,1.0,phase_1,,,,,,,,,,,,,magenta,diamond
333.0,6.0,2.0,1.0,3.0,3.0,380.6233779996546,1.0,1.0,phase_1,,,,,,,,,,,,,orange,square
628.0,3.0,3.0,0.0,4.0,4.0,415.0195160000294,1.0,1.0,phase_1,,,,,,,,,,,,,gray,I
657.0,7.0,3.0,1.0,3.0,3.0,294.8284660001263,1.0,1.0,phase_1,,,,,,,,,,,,,green,cross
1319.0,4.0,4.0,0.0,4.0,4.0,320.2787489999537,1.0,1.0,phase_1,,,,,,,,,,,,,cyan,triangle
170.0,5.0,1.0,1.0,4.0,4.0,508.20800000019517,1.0,1.0,phase_1,,,,,,,,,,,,,white,hexagon
651.0,7.0,3.0,1.0,2.0,2.0,765.5506790001709,1.0,1.0,phase_1,,,,,,,,,,,,,green,cross
169.0,1.0,1.0,0.0,3.0,3.0,304.5689579998907,1.0,1.0,phase_1,,,,,,,,,,,,,yellow,flipped triangle
153.0,5.0,1.0,1.0,3.0,3.0,377.9760539996459,1.0,1.0,phase_1,,,,,,,,,,,,,white,hexagon
1320.0,8.0,4.0,1.0,1.0,1.0,469.6029390001968,1.0,1.0,phase_1,,,,,,,,,,,,,blue,circle
666.0,7.0,3.0,1.0,3.0,3.0,394.7679040002185,1.0,1.0,phase_1,,,,,,,,,,,,,green,cross
164.0,5.0,1.0,1.0,1.0,1.0,543.7361079998482,1.0,1.0,phase_1,,,,,,,,,,,,,white,hexagon
0.0,1.0,0.0,0.0,4.0,4.0,405.7624189999842,1.0,1.0,phase_1,,,,,,,,,,,,,yellow,flipped triangle
305.0,2.0,2.0,0.0,3.0,3.0,313.8862159999007,1.0,1.0,phase_1,,,,,,,,,,,,,magenta,diamond
0.0,7.0,0.0,1.0,4.0,4.0,350.2626079998663,1.0,1.0,phase_1,,,,,,,,,,,,,green,cross
1303.0,4.0,4.0,0.0,3.0,3.0,377.8271060000406,1.0,1.0,phase_1,,,,,,,,,,,,,cyan,triangle
313.0,2.0,2.0,0.0,1.0,1.0,571.4845869997589,1.0,1.0,phase_1,,,,,,,,,,,,,magenta,diamond
0.0,1.0,0.0,0.0,1.0,1.0,562.6763820000633,1.0,2.0,phase_1,,,,,,,,,,,,,yellow,flipped triangle
153.0,1.0,1.0,0.0,2.0,2.0,636.359875999915,1.0,1.0,phase_1,,,,,,,,,,,,,yellow,flipped triangle
638.0,7.0,3.0,1.0,2.0,2.0,774.0490729997873,1.0,1.0,phase_1,,,,,,,,,,,,,green,cross
1305.0,8.0,4.0,1.0,4.0,4.0,583.0369989998871,1.0,1.0,phase_1,,,,,,,,,,,,,blue,circle
339.0,6.0,2.0,1.0,3.0,3.0,701.5099979998922,1.0,1.0,phase_1,,,,,,,,,,,,,orange,square
628.0,3.0,3.0,0.0,1.0,1.0,709.5678200003022,1.0,1.0,phase_1,,,,,,,,,,,,,gray,I
168.0,5.0,1.0,1.0,1.0,1.0,473.5962649997418,1.0,1.0,phase_1,,,,,,,,,,,,,white,hexagon
0.0,8.0,0.0,1.0,4.0,4.0,526.068959999975,1.0,1.0,phase_1,,,,,,,,,,,,,blue,circle
180.0,1.0,1.0,0.0,4.0,4.0,342.061305000243,1.0,1.0,phase_1,,,,,,,,,,,,,yellow,flipped triangle
171.0,5.0,1.0,1.0,4.0,4.0,349.6415650001836,1.0,1.0,phase_1,,,,,,,,,,,,,white,hexagon
181.0,1.0,1.0,0.0,4.0,4.0,286.8250129999978,1.0,1.0,phase_1,,,,,,,,,,,,,yellow,flipped triangle
1283.0,8.0,4.0,1.0,1.0,1.0,471.2537529999281,1.0,1.0,phase_1,,,,,,,,,,,,,blue,circle
0.0,5.0,0.0,1.0,2.0,2.0,756.0679369998979,1.0,1.0,phase_1,,,,,,,,,,,,,white,hexagon
337.0,2.0,2.0,0.0,2.0,2.0,341.3046159998885,1.0,1.0,phase_1,,,,,,,,,,,,,magenta,diamond
307.0,6.0,2.0,1.0,2.0,2.0,360.0759979999566,1.0,1.0,phase_1,,,,,,,,,,,,,orange,square
145.0,5.0,1.0,1.0,1.0,1.0,507.9821089998404,1.0,1.0,phase_1,,,,,,,,,,,,,white,hexagon
0.0,6.0,0.0,1.0,4.0,4.0,462.4560850002126,1.0,1.0,phase_1,,,,,,,,,,,,,orange,square
0.0,5.0,0.0,1.0,3.0,3.0,277.1667030001481,1.0,1.0,phase_1,,,,,,,,,,,,,white,hexagon
1311.0,4.0,4.0,0.0,4.0,4.0,388.2219280003482,1.0,1.0,phase_1,,,,,,,,,,,,,cyan,triangle
0.0,5.0,0.0,1.0,2.0,2.0,452.3516289996223,1.0,1.0,phase_1,,,,,,,,,,,,,white,hexagon
175.0,5.0,1.0,1.0,2.0,2.0,369.5485329999428,1.0,1.0,phase_1,,,,,,,,,,,,,white,hexagon
323.0,2.0,2.0,0.0,1.0,1.0,461.1409469998762,1.0,1.0,phase_1,,,,,,,,,,,,,magenta,diamond
333.0,2.0,2.0,0.0,2.0,2.0,637.1175070003119,1.0,1.0,phase_1,,,,,,,,,,,,,magenta,diamond
169.0,5.0,1.0,1.0,2.0,2.0,471.4669549998689,1.0,1.0,phase_1,,,,,,,,,,,,,white,hexagon
161.0,1.0,1.0,0.0,1.0,1.0,442.0790040003339,1.0,1.0,phase_1,,,,,,,,,,,,,yellow,flipped triangle
668.0,7.0,3.0,1.0,1.0,1.0,405.0721309999971,1.0,1.0,phase_1,,,,,,,,,,,,,green,cross
657.0,3.0,3.0,0.0,2.0,2.0,609.0041970001039,1.0,1.0,phase_1,,,,,,,,,,,,,gray,I
1320.0,4.0,4.0,0.0,2.0,2.0,442.1020519998819,1.0,1.0,phase_1,,,,,,,,,,,,,cyan,triangle
0.0,2.0,0.0,0.0,4.0,4.0,349.8028610001711,1.0,2.0,phase_1,,,,,,,,,,,,,magenta,diamond
345.0,6.0,2.0,1.0,2.0,2.0,461.1667969998052,1.0,2.0,phase_1,,,,,,,,,,,,,orange,square
339.0,2.0,2.0,0.0,1.0,1.0,451.2936010000885,1.0,1.0,phase_1,,,,,,,,,,,,,magenta,diamond
629.0,7.0,3.0,1.0,4.0,4.0,396.5982909999184,1.0,1.0,phase_1,,,,,,,,,,,,,green,cross
180.0,5.0,1.0,1.0,4.0,4.0,442.9465079997499,1.0,1.0,phase_1,,,,,,,,,,,,,white,hexagon
662.0,3.0,3.0,0.0,2.0,2.0,619.5422890000373,1.0,1.0,phase_1,,,,,,,,,,,,,gray,I
1286.0,4.0,4.0,0.0,1.0,1.0,322.7176209998106,1.0,1.0,phase_1,,,,,,,,,,,,,cyan,triangle
1300.0,8.0,4.0,1.0,2.0,2.0,314.1624979998596,1.0,1.0,phase_1,,,,,,,,,,,,,blue,circle
1294.0,8.0,4.0,1.0,1.0,1.0,332.2317020001719,1.0,1.0,phase_1,,,,,,,,,,,,,blue,circle
138.0,5.0,1.0,1.0,4.0,4.0,444.2577929999061,1.0,1.0,phase_1,,,,,,,,,,,,,white,hexagon
651.0,3.0,3.0,0.0,3.0,3.0,397.004743999787,1.0,1.0,phase_1,,,,,,,,,,,,,gray,I
1325.0,8.0,4.0,1.0,3.0,3.0,387.1795439999914,1.0,1.0,phase_1,,,,,,,,,,,,,blue,circle
313.0,2.0,2.0,0.0,3.0,3.0,489.7658009999759,1.0,1.0,phase_1,,,,,,,,,,,,,magenta,diamond
184.0,5.0,1.0,1.0,4.0,4.0,397.8888550000192,1.0,1.0,phase_1,,,,,,,,,,,,,white,hexagon
1289.0,8.0,4.0,1.0,2.0,2.0,488.8743009996688,1.0,1.0,phase_1,,,,,,,,,,,,,blue,circle
1299.0,8.0,4.0,1.0,4.0,4.0,416.064328000175,1.0,1.0,phase_1,,,,,,,,,,,,,blue,circle
0.0,5.0,0.0,1.0,2.0,2.0,398.6379799998758,1.0,2.0,phase_1,,,,,,,,,,,,,white,hexagon
640.0,7.0,3.0,1.0,4.0,4.0,479.3031119997977,1.0,2.0,phase_1,,,,,,,,,,,,,green,cross
672.0,3.0,3.0,0.0,2.0,2.0,368.3034589998897,1.0,2.0,phase_1,,,,,,,,,,,,,gray,I
646.0,3.0,3.0,0.0,4.0,4.0,608.3444840000993,1.0,1.0,phase_1,,,,,,,,,,,,,gray,I
641.0,7.0,3.0,1.0,1.0,1.0,406.4238149999255,1.0,1.0,phase_1,,,,,,,,,,,,,green,cross
335.0,6.0,2.0,1.0,2.0,2.0,451.1810429999059,1.0,1.0,phase_1,,,,,,,,,,,,,orange,square
342.0,2.0,2.0,0.0,4.0,4.0,407.8352470000936,1.0,1.0,phase_1,,,,,,,,,,,,,magenta,diamond
319.0,2.0,2.0,0.0,2.0,2.0,562.886103999972,1.0,1.0,phase_1,,,,,,,,,,,,,magenta,diamond
155.0,5.0,1.0,1.0,1.0,1.0,579.8918020000201,1.0,1.0,phase_1,,,,,,,,,,,,,white,hexagon
1278.0,8.0,4.0,1.0,1.0,1.0,571.2070459999268,1.0,1.0,phase_1,,,,,,,,,,,,,blue,circle
0.0,1.0,0.0,0.0,4.0,4.0,561.6601910001009,1.0,1.0,phase_1,,,,,,,,,,,,,yellow,flipped triangle
1323.0,8.0,4.0,1.0,4.0,4.0,516.0174819998247,1.0,1.0,phase_1,,,,,,,,,,,,,blue,circle
175.0,1.0,1.0,0.0,1.0,1.0,646.9388559999061,1.0,1.0,phase_1,,,,,,,,,,,,,yellow,flipped triangle
0.0,8.0,0.0,1.0,4.0,4.0,489.3268949999765,1.0,1.0,phase_1,,,,,,,,,,,,,blue,circle
319.0,6.0,2.0,1.0,3.0,3.0,783.3839549998629,1.0,1.0,phase_1,,,,,,,,,,,,,orange,square
0.0,4.0,0.0,0.0,4.0,4.0,617.3309460000382,1.0,1.0,phase_1,,,,,,,,,,,,,cyan,triangle
1307.0,4.0,4.0,0.0,4.0,4.0,425.2364399999351,1.0,1.0,phase_1,,,,,,,,,,,,,cyan,triangle
303.0,2.0,2.0,0.0,3.0,3.0,516.5941999998722,1.0,1.0,phase_1,,,,,,,,,,,,,magenta,diamond
141.0,1.0,1.0,0.0,2.0,2.0,671.7375029998038,1.0,1.0,phase_1,,,,,,,,,,,,,yellow,flipped triangle
349.0,2.0,2.0,0.0,3.0,3.0,497.4801939997633,1.0,1.0,phase_1,,,,,,,,,,,,,magenta,diamond
302.0,2.0,2.0,0.0,2.0,2.0,747.1003769996969,1.0,5.0,phase_1,,,,,,,,,,,,,magenta,diamond
0.0,1.0,0.0,0.0,3.0,3.0,525.9816369998589,1.0,1.0,phase_1,,,,,,,,,,,,,yellow,flipped triangle
662.0,3.0,3.0,0.0,1.0,1.0,738.6735240002054,1.0,1.0,phase_1,,,,,,,,,,,,,gray,I
161.0,5.0,1.0,1.0,1.0,1.0,432.9664420001791,1.0,1.0,phase_1,,,,,,,,,,,,,white,hexagon
0.0,3.0,0.0,0.0,4.0,4.0,471.7278090001855,1.0,1.0,phase_1,,,,,,,,,,,,,gray,I
0.0,1.0,0.0,0.0,4.0,4.0,315.0324359999104,1.0,1.0,phase_1,,,,,,,,,,,,,yellow,flipped triangle
0.0,2.0,0.0,0.0,2.0,2.0,591.1650980001468,1.0,1.0,phase_1,,,,,,,,,,,,,magenta,diamond
1311.0,8.0,4.0,1.0,1.0,1.0,442.6337360000616,1.0,1.0,phase_1,,,,,,,,,,,,,blue,circle
0.0,4.0,0.0,0.0,3.0,3.0,619.3372520001503,1.0,1.0,phase_1,,,,,,,,,,,,,cyan,triangle
0.0,5.0,0.0,1.0,1.0,1.0,406.1816319999707,1.0,1.0,phase_1,,,,,,,,,,,,,white,hexagon
675.0,3.0,3.0,0.0,3.0,3.0,294.9167659999148,1.0,1.0,phase_1,,,,,,,,,,,,,gray,I
675.0,7.0,3.0,1.0,4.0,4.0,433.568545000071,1.0,1.0,phase_1,,,,,,,,,,,,,green,cross
1286.0,8.0,4.0,1.0,4.0,4.0,303.7969690003592,1.0,1.0,phase_1,,,,,,,,,,,,,blue,circle
0.0,7.0,0.0,1.0,1.0,1.0,498.4358540000357,1.0,1.0,phase_1,,,,,,,,,,,,,green,cross
0.0,5.0,0.0,1.0,1.0,1.0,708.7930040001993,2.0,1.0,phase_1,,,,,,,,,,,,,white,hexagon
302.0,2.0,2.0,0.0,2.0,2.0,341.6638149997197,2.0,1.0,phase_1,,,,,,,,,,,,,magenta,diamond
0.0,5.0,0.0,1.0,3.0,3.0,350.0983910003015,2.0,1.0,phase_1,,,,,,,,,,,,,white,hexagon
321.0,6.0,2.0,1.0,1.0,1.0,570.9114619999127,2.0,1.0,phase_1,,,,,,,,,,,,,orange,square
0.0,6.0,0.0,1.0,4.0,4.0,496.3117699999202,2.0,1.0,phase_1,,,,,,,,,,,,,orange,square
323.0,2.0,2.0,0.0,1.0,1.0,644.4027479997203,2.0,1.0,phase_1,,,,,,,,,,,,,magenta,diamond
1295.0,8.0,4.0,1.0,3.0,3.0,444.6188609999808,2.0,1.0,phase_1,,,,,,,,,,,,,blue,circle
0.0,4.0,0.0,0.0,2.0,2.0,413.3856680000463,2.0,1.0,phase_1,,,,,,,,,,,,,cyan,triangle
632.0,3.0,3.0,0.0,2.0,2.0,561.1530920000405,2.0,1.0,phase_1,,,,,,,,,,,,,gray,I
0.0,1.0,0.0,0.0,4.0,4.0,330.9310869999535,2.0,1.0,phase_1,,,,,,,,,,,,,yellow,flipped triangle
149.0,1.0,1.0,0.0,1.0,1.0,793.4106300003805,2.0,1.0,phase_1,,,,,,,,,,,,,yellow,flipped triangle
1324.0,8.0,4.0,1.0,3.0,3.0,562.9870899997513,2.0,1.0,phase_1,,,,,,,,,,,,,blue,circle
184.0,1.0,1.0,0.0,4.0,4.0,515.096898000138,2.0,1.0,phase_1,,,,,,,,,,,,,yellow,flipped triangle
633.0,7.0,3.0,1.0,3.0,3.0,590.1580439999634,2.0,1.0,phase_1,,,,,,,,,,,,,green,cross
179.0,1.0,1.0,0.0,2.0,2.0,315.3652519999923,2.0,2.0,phase_1,,,,,,,,,,,,,yellow,flipped triangle
638.0,7.0,3.0,1.0,2.0,2.0,682.6883650001037,2.0,1.0,phase_1,,,,,,,,,,,,,green,cross
651.0,7.0,3.0,1.0,3.0,3.0,451.8881650001276,2.0,1.0,phase_1,,,,,,,,,,,,,green,cross
1324.0,8.0,4.0,1.0,2.0,2.0,341.0806599999887,2.0,1.0,phase_1,,,,,,,,,,,,,blue,circle
648.0,7.0,3.0,1.0,4.0,4.0,571.1016280001786,2.0,1.0,phase_1,,,,,,,,,,,,,green,cross
1278.0,4.0,4.0,0.0,1.0,1.0,370.1284730000225,2.0,1.0,phase_1,,,,,,,,,,,,,cyan,triangle
1318.0,8.0,4.0,1.0,1.0,1.0,692.3693000003368,2.0,1.0,phase_1,,,,,,,,,,,,,blue,circle
0.0,8.0,0.0,1.0,3.0,3.0,415.2804670002297,2.0,1.0,phase_1,,,,,,,,,,,,,blue,circle
649.0,7.0,3.0,1.0,2.0,2.0,553.674509999837,2.0,1.0,phase_1,,,,,,,,,,,,,green,cross
1320.0,4.0,4.0,0.0,4.0,4.0,368.3015950000481,2.0,1.0,phase_1,,,,,,,,,,,,,cyan,triangle
155.0,1.0,1.0,0.0,2.0,2.0,441.975912000089,2.0,1.0,phase_1,,,,,,,,,,,,,yellow,flipped triangle
323.0,6.0,2.0,1.0,3.0,3.0,434.3386790001204,2.0,1.0,phase_1,,,,,,,,,,,,,orange,square
0.0,6.0,0.0,1.0,4.0,4.0,562.8054660000998,2.0,1.0,phase_1,,,,,,,,,,,,,orange,square
1306.0,4.0,4.0,0.0,1.0,1.0,525.2768579998701,2.0,1.0,phase_1,,,,,,,,,,,,,cyan,triangle
320.0,6.0,2.0,1.0,4.0,4.0,534.0629709999121,2.0,1.0,phase_1,,,,,,,,,,,,,orange,square
0.0,4.0,0.0,0.0,3.0,3.0,360.5557539999608,2.0,1.0,phase_1,,,,,,,,,,,,,cyan,triangle
340.0,2.0,2.0,0.0,4.0,4.0,369.322572999863,2.0,1.0,phase_1,,,,,,,,,,,,,magenta,diamond
1285.0,4.0,4.0,0.0,4.0,4.0,387.0994699996117,2.0,1.0,phase_1,,,,,,,,,,,,,cyan,triangle
651.0,3.0,3.0,0.0,4.0,4.0,369.6693159999995,2.0,1.0,phase_1,,,,,,,,,,,,,gray,I
148.0,5.0,1.0,1.0,1.0,1.0,591.8829189999997,2.0,1.0,phase_1,,,,,,,,,,,,,white,hexagon
323.0,6.0,2.0,1.0,2.0,2.0,754.5966890002092,2.0,1.0,phase_1,,,,,,,,,,,,,orange,square
174.0,5.0,1.0,1.0,2.0,2.0,618.0834790002336,2.0,1.0,phase_1,,,,,,,,,,,,,white,hexagon
658.0,3.0,3.0,0.0,3.0,3.0,597.7105550000488,2.0,1.0,phase_1,,,,,,,,,,,,,gray,I
348.0,2.0,2.0,0.0,2.0,2.0,811.4058269998168,2.0,1.0,phase_1,,,,,,,,,,,,,magenta,diamond
175.0,5.0,1.0,1.0,4.0,4.0,523.2137829998464,2.0,1.0,phase_1,,,,,,,,,,,,,white,hexagon
0.0,7.0,0.0,1.0,3.0,3.0,800.3365650001797,2.0,1.0,phase_1,,,,,,,,,,,,,green,cross
648.0,3.0,3.0,0.0,1.0,1.0,507.50731800008,2.0,1.0,phase_1,,,,,,,,,,,,,gray,I
642.0,7.0,3.0,1.0,3.0,3.0,397.8765179999755,2.0,1.0,phase_1,,,,,,,,,,,,,green,cross
152.0,1.0,1.0,0.0,1.0,1.0,754.7818749999351,2.0,1.0,phase_1,,,,,,,,,,,,,yellow,flipped triangle
1283.0,4.0,4.0,0.0,2.0,2.0,477.3578059998726,2.0,2.0,phase_1,,,,,,,,,,,,,cyan,triangle
1301.0,4.0,4.0,0.0,1.0,1.0,452.4329700002454,2.0,1.0,phase_1,,,,,,,,,,,,,cyan,triangle
169.0,5.0,1.0,1.0,1.0,1.0,451.2954130000253,2.0,1.0,phase_1,,,,,,,,,,,,,white,hexagon
142.0,5.0,1.0,1.0,2.0,2.0,423.400625999875,2.0,1.0,phase_1,,,,,,,,,,,,,white,hexagon
348.0,6.0,2.0,1.0,3.0,3.0,636.2731330000315,2.0,1.0,phase_1,,,,,,,,,,,,,orange,square
0.0,6.0,0.0,1.0,2.0,2.0,803.4248389999448,2.0,2.0,phase_1,,,,,,,,,,,,,orange,square
1297.0,4.0,4.0,0.0,2.0,2.0,479.8460730003171,2.0,1.0,phase_1,,,,,,,,,,,,,cyan,triangle
655.0,3.0,3.0,0.0,4.0,4.0,637.5809770001979,2.0,1.0,phase_1,,,,,,,,,,,,,gray,I
662.0,7.0,3.0,1.0,1.0,1.0,416.118679000192,2.0,1.0,phase_1,,,,,,,,,,,,,green,cross
0.0,7.0,0.0,1.0,3.0,3.0,553.395367000121,2.0,1.0,phase_1,,,,,,,,,,,,,green,cross
0.0,1.0,0.0,0.0,3.0,3.0,460.6386739997106,2.0,1.0,phase_1,,,,,,,,,,,,,yellow,flipped triangle
1301.0,8.0,4.0,1.0,3.0,3.0,387.9203030001008,2.0,1.0,phase_1,,,,,,,,,,,,,blue,circle
668.0,7.0,3.0,1.0,4.0,4.0,646.5733070003807,2.0,1.0,phase_1,,,,,,,,,,,,,green,cross
343.0,2.0,2.0,0.0,3.0,3.0,335.9781180001846,2.0,1.0,phase_1,,,,,,,,,,,,,magenta,diamond
638.0,3.0,3.0,0.0,3.0,3.0,544.1472279999289,2.0,1.0,phase_1,,,,,,,,,,,,,gray,I
142.0,1.0,1.0,0.0,1.0,1.0,601.7082619996472,2.0,1.0,phase_1,,,,,,,,,,,,,yellow,flipped triangle
138.0,1.0,1.0,0.0,4.0,4.0,432.7498479997302,2.0,1.0,phase_1,,,,,,,,,,,,,yellow,flipped triangle
1290.0,4.0,4.0,0.0,1.0,1.0,498.4713109997756,2.0,2.0,phase_1,,,,,,,,,,,,,cyan,triangle
0.0,2.0,0.0,0.0,1.0,1.0,395.8172449997619,2.0,1.0,phase_1,,,,,,,,,,,,,magenta,diamond
150.0,1.0,1.0,0.0,1.0,1.0,434.895675000007,2.0,1.0,phase_1,,,,,,,,,,,,,yellow,flipped triangle
1289.0,8.0,4.0,1.0,3.0,3.0,746.7472329999509,2.0,1.0,phase_1,,,,,,,,,,,,,blue,circle
320.0,2.0,2.0,0.0,1.0,1.0,579.6884589999536,2.0,1.0,phase_1,,,,,,,,,,,,,magenta,diamond
648.0,7.0,3.0,1.0,1.0,1.0,424.4755060003626,2.0,1.0,phase_1,,,,,,,,,,,,,green,cross
0.0,2.0,0.0,0.0,2.0,2.0,664.011992000269,2.0,1.0,phase_1,,,,,,,,,,,,,magenta,diamond
140.0,5.0,1.0,1.0,4.0,4.0,535.2701159999924,2.0,1.0,phase_1,,,,,,,,,,,,,white,hexagon
1292.0,8.0,4.0,1.0,4.0,4.0,534.566027999972,2.0,1.0,phase_1,,,,,,,,,,,,,blue,circle
159.0,1.0,1.0,0.0,4.0,4.0,370.3853520000848,2.0,1.0,phase_1,,,,,,,,,,,,,yellow,flipped triangle
638.0,3.0,3.0,0.0,4.0,4.0,277.37240899978127,2.0,1.0,phase_1,,,,,,,,,,,,,gray,I
1289.0,4.0,4.0,0.0,3.0,3.0,387.4456369999279,2.0,1.0,phase_1,,,,,,,,,,,,,cyan,triangle
329.0,6.0,2.0,1.0,1.0,1.0,488.3748710003601,2.0,1.0,phase_1,,,,,,,,,,,,,orange,square
301.0,6.0,2.0,1.0,2.0,2.0,358.6741760000222,2.0,1.0,phase_1,,,,,,,,,,,,,orange,square
310.0,6.0,2.0,1.0,3.0,3.0,425.8260490000793,2.0,1.0,phase_1,,,,,,,,,,,,,orange,square
343.0,6.0,2.0,1.0,1.0,1.0,736.4574739999625,2.0,1.0,phase_1,,,,,,,,,,,,,orange,square
346.0,2.0,2.0,0.0,3.0,3.0,406.2340509999558,2.0,1.0,phase_1,,,,,,,,,,,,,magenta,diamond
666.0,7.0,3.0,1.0,2.0,2.0,617.5185930001135,2.0,1.0,phase_1,,,,,,,,,,,,,green,cross
655.0,7.0,3.0,1.0,3.0,3.0,432.8546940000706,2.0,1.0,phase_1,,,,,,,,,,,,,green,cross
1306.0,8.0,4.0,1.0,2.0,2.0,755.5342480000036,2.0,1.0,phase_1,,,,,,,,,,,,,blue,circle
186.0,5.0,1.0,1.0,4.0,4.0,544.7587590001604,2.0,1.0,phase_1,,,,,,,,,,,,,white,hexagon
670.0,3.0,3.0,0.0,1.0,1.0,535.4301250004028,2.0,1.0,phase_1,,,,,,,,,,,,,gray,I
0.0,6.0,0.0,1.0,4.0,4.0,643.7906320002185,2.0,1.0,phase_1,,,,,,,,,,,,,orange,square
668.0,3.0,3.0,0.0,2.0,2.0,533.9626670001962,2.0,1.0,phase_1,,,,,,,,,,,,,gray,I
664.0,7.0,3.0,1.0,2.0,2.0,395.7835339997473,2.0,1.0,phase_1,,,,,,,,,,,,,green,cross
631.0,7.0,3.0,1.0,2.0,2.0,406.0453659999439,2.0,1.0,phase_1,,,,,,,,,,,,,green,cross
313.0,6.0,2.0,1.0,3.0,3.0,396.0472539997681,2.0,1.0,phase_1,,,,,,,,,,,,,orange,square
1277.0,4.0,4.0,0.0,4.0,4.0,350.2168959998926,2.0,2.0,phase_1,,,,,,,,,,,,,cyan,triangle
668.0,7.0,3.0,1.0,3.0,3.0,461.4572000000407,2.0,1.0,phase_1,,,,,,,,,,,,,green,cross
316.0,2.0,2.0,0.0,3.0,3.0,462.8026639998097,2.0,1.0,phase_1,,,,,,,,,,,,,magenta,diamond
152.0,5.0,1.0,1.0,3.0,3.0,487.9073629999766,2.0,1.0,phase_1,,,,,,,,,,,,,white,hexagon
323.0,6.0,2.0,1.0,4.0,4.0,480.8900319999338,2.0,1.0,phase_1,,,,,,,,,,,,,orange,square
164.0,1.0,1.0,0.0,2.0,2.0,562.5690030001351,2.0,1.0,phase_1,,,,,,,,,,,,,yellow,flipped triangle
666.0,3.0,3.0,0.0,2.0,2.0,433.2564340002136,2.0,1.0,phase_1,,,,,,,,,,,,,gray,I
1309.0,4.0,4.0,0.0,3.0,3.0,627.4356020003324,2.0,1.0,phase_1,,,,,,,,,,,,,cyan,triangle
331.0,2.0,2.0,0.0,2.0,2.0,452.2815250002168,2.0,1.0,phase_1,,,,,,,,,,,,,magenta,diamond
1302.0,4.0,4.0,0.0,4.0,4.0,646.1292209996827,2.0,1.0,phase_1,,,,,,,,,,,,,cyan,triangle
1300.0,4.0,4.0,0.0,1.0,1.0,562.2113399999762,2.0,1.0,phase_1,,,,,,,,,,,,,cyan,triangle
323.0,2.0,2.0,0.0,4.0,4.0,525.890222000271,2.0,1.0,phase_1,,,,,,,,,,,,,magenta,diamond
1276.0,8.0,4.0,1.0,1.0,1.0,618.0054540000128,2.0,1.0,phase_1,,,,,,,,,,,,,blue,circle
1301.0,8.0,4.0,1.0,3.0,3.0,663.2798559999173,3.0,1.0,phase_1,,,,,,,,,,,,,blue,circle
302.0,6.0,2.0,1.0,4.0,4.0,519.5511629999601,3.0,1.0,phase_1,,,,,,,,,,,,,orange,square
0.0,1.0,0.0,0.0,2.0,2.0,535.6335129999934,3.0,1.0,phase_1,,,,,,,,,,,,,yellow,flipped triangle
647.0,7.0,3.0,1.0,4.0,4.0,470.9876060001079,3.0,1.0,phase_1,,,,,,,,,,,,,green,cross
1299.0,4.0,4.0,0.0,2.0,2.0,665.4849629999262,3.0,1.0,phase_1,,,,,,,,,,,,,cyan,triangle
153.0,1.0,1.0,0.0,3.0,3.0,541.9147019997581,3.0,1.0,phase_1,,,,,,,,,,,,,yellow,flipped triangle
629.0,3.0,3.0,0.0,3.0,3.0,545.7371219999914,3.0,1.0,phase_1,,,,,,,,,,,,,gray,I
306.0,2.0,2.0,0.0,3.0,3.0,527.3442260004231,3.0,1.0,phase_1,,,,,,,,,,,,,magenta,diamond
631.0,7.0,3.0,1.0,3.0,3.0,332.4690549998195,3.0,1.0,phase_1,,,,,,,,,,,,,green,cross
1318.0,4.0,4.0,0.0,2.0,2.0,599.5223630002329,3.0,2.0,phase_1,,,,,,,,,,,,,cyan,triangle
1282.0,8.0,4.0,1.0,2.0,2.0,551.9194210000933,3.0,1.0,phase_1,,,,,,,,,,,,,blue,circle
672.0,7.0,3.0,1.0,1.0,1.0,665.0435209999159,3.0,1.0,phase_1,,,,,,,,,,,,,green,cross
159.0,5.0,1.0,1.0,3.0,3.0,582.1850590000395,3.0,1.0,phase_1,,,,,,,,,,,,,white,hexagon
1302.0,8.0,4.0,1.0,2.0,2.0,646.390851000433,3.0,1.0,phase_1,,,,,,,,,,,,,blue,circle
628.0,7.0,3.0,1.0,4.0,4.0,443.9965980000124,3.0,1.0,phase_1,,,,,,,,,,,,,green,cross
162.0,1.0,1.0,0.0,1.0,1.0,498.6204500000895,3.0,1.0,phase_1,,,,,,,,,,,,,yellow,flipped triangle
0.0,6.0,0.0,1.0,4.0,4.0,486.7656050000732,3.0,1.0,phase_1,,,,,,,,,,,,,orange,square
1276.0,4.0,4.0,0.0,4.0,4.0,387.7820220000103,3.0,1.0,phase_1,,,,,,,,,,,,,cyan,triangle
308.0,2.0,2.0,0.0,2.0,2.0,545.6502340002771,3.0,1.0,phase_1,,,,,,,,,,,,,magenta,diamond
186.0,1.0,1.0,0.0,1.0,1.0,368.9191129997198,3.0,1.0,phase_1,,,,,,,,,,,,,yellow,flipped triangle
651.0,3.0,3.0,0.0,1.0,1.0,525.835810999979,3.0,1.0,phase_1,,,,,,,,,,,,,gray,I
331.0,6.0,2.0,1.0,4.0,4.0,523.9728480000849,3.0,1.0,phase_1,,,,,,,,,,,,,orange,square
1320.0,8.0,4.0,1.0,4.0,4.0,417.0041490001495,3.0,1.0,phase_1,,,,,,,,,,,,,blue,circle
1294.0,8.0,4.0,1.0,1.0,1.0,591.0112859996843,3.0,1.0,phase_1,,,,,,,,,,,,,blue,circle
1319.0,4.0,4.0,0.0,3.0,3.0,478.576117999637,3.0,1.0,phase_1,,,,,,,,,,,,,cyan,triangle
1319.0,8.0,4.0,1.0,3.0,3.0,388.5455469999215,3.0,1.0,phase_1,,,,,,,,,,,,,blue,circle
0.0,3.0,0.0,0.0,4.0,4.0,471.5684590000819,3.0,1.0,phase_1,,,,,,,,,,,,,gray,I
145.0,1.0,1.0,0.0,3.0,3.0,747.5395629999184,3.0,1.0,phase_1,,,,,,,,,,,,,yellow,flipped triangle
1295.0,8.0,4.0,1.0,4.0,4.0,535.0007909996748,3.0,1.0,phase_1,,,,,,,,,,,,,blue,circle
1295.0,4.0,4.0,0.0,3.0,3.0,406.068414999936,3.0,1.0,phase_1,,,,,,,,,,,,,cyan,triangle
171.0,1.0,1.0,0.0,1.0,1.0,507.699128999775,3.0,1.0,phase_1,,,,,,,,,,,,,yellow,flipped triangle
1276.0,8.0,4.0,1.0,1.0,1.0,277.8855739998107,3.0,2.0,phase_1,,,,,,,,,,,,,blue,circle
160.0,1.0,1.0,0.0,2.0,2.0,573.0570350001472,3.0,1.0,phase_1,,,,,,,,,,,,,yellow,flipped triangle
642.0,3.0,3.0,0.0,1.0,1.0,537.6363129998936,3.0,1.0,phase_1,,,,,,,,,,,,,gray,I
150.0,5.0,1.0,1.0,2.0,2.0,618.0534280001666,3.0,1.0,phase_1,,,,,,,,,,,,,white,hexagon
640.0,3.0,3.0,0.0,4.0,4.0,609.3751190001058,3.0,1.0,phase_1,,,,,,,,,,,,,gray,I
336.0,2.0,2.0,0.0,3.0,3.0,564.0831720002097,3.0,1.0,phase_1,,,,,,,,,,,,,magenta,diamond
0.0,6.0,0.0,1.0,4.0,4.0,711.615570000049,3.0,1.0,phase_1,,,,,,,,,,,,,orange,square
1320.0,4.0,4.0,0.0,2.0,2.0,664.1156549999323,3.0,1.0,phase_1,,,,,,,,,,,,,cyan,triangle
308.0,6.0,2.0,1.0,2.0,2.0,924.7632900001008,3.0,1.0,phase_1,,,,,,,,,,,,,orange,square
1292.0,4.0,4.0,0.0,1.0,1.0,581.6574589998709,3.0,1.0,phase_1,,,,,,,,,,,,,cyan,triangle
0.0,4.0,0.0,0.0,1.0,1.0,499.8763560001862,3.0,1.0,phase_1,,,,,,,,,,,,,cyan,triangle
0.0,7.0,0.0,1.0,4.0,4.0,803.2901940000556,3.0,1.0,phase_1,,,,,,,,,,,,,green,cross
1285.0,8.0,4.0,1.0,4.0,4.0,544.6647759999905,3.0,1.0,phase_1,,,,,,,,,,,,,blue,circle
1307.0,8.0,4.0,1.0,3.0,3.0,628.0378110000129,3.0,1.0,phase_1,,,,,,,,,,,,,blue,circle
174.0,1.0,1.0,0.0,4.0,4.0,409.461925999949,3.0,1.0,phase_1,,,,,,,,,,,,,yellow,flipped triangle
153.0,5.0,1.0,1.0,3.0,3.0,453.1498920000558,3.0,1.0,phase_1,,,,,,,,,,,,,white,hexagon
636.0,7.0,3.0,1.0,2.0,2.0,489.8741420001897,3.0,1.0,phase_1,,,,,,,,,,,,,green,cross
0.0,2.0,0.0,0.0,1.0,1.0,423.3492710000064,3.0,1.0,phase_1,,,,,,,,,,,,,magenta,diamond
657.0,7.0,3.0,1.0,1.0,1.0,545.4657740001494,3.0,1.0,phase_1,,,,,,,,,,,,,green,cross
0.0,4.0,0.0,0.0,4.0,4.0,516.5687219996471,3.0,1.0,phase_1,,,,,,,,,,,,,cyan,triangle
328.0,2.0,2.0,0.0,1.0,1.0,405.0483779997194,3.0,1.0,phase_1,,,,,,,,,,,,,magenta,diamond
140.0,1.0,1.0,0.0,1.0,1.0,498.3355740000661,3.0,1.0,phase_1,,,,,,,,,,,,,yellow,flipped triangle
169.0,5.0,1.0,1.0,3.0,3.0,654.1370310001184,3.0,1.0,phase_1,,,,,,,,,,,,,white,hexagon
347.0,6.0,2.0,1.0,3.0,3.0,461.1434349999399,3.0,1.0,phase_1,,,,,,,,,,,,,orange,square
1286.0,4.0,4.0,0.0,1.0,1.0,719.2206249997071,3.0,1.0,phase_1,,,,,,,,,,,,,cyan,triangle
307.0,2.0,2.0,0.0,4.0,4.0,610.1887099998748,3.0,1.0,phase_1,,,,,,,,,,,,,magenta,diamond
1295.0,4.0,4.0,0.0,2.0,2.0,359.1829869997127,3.0,2.0,phase_1,,,,,,,,,,,,,cyan,triangle
639.0,3.0,3.0,0.0,3.0,3.0,562.4388950000139,3.0,1.0,phase_1,,,,,,,,,,,,,gray,I
0.0,8.0,0.0,1.0,2.0,2.0,434.6319100000073,3.0,1.0,phase_1,,,,,,,,,,,,,blue,circle
302.0,6.0,2.0,1.0,1.0,1.0,600.5709969999771,3.0,1.0,phase_1,,,,,,,,,,,,,orange,square
0.0,2.0,0.0,0.0,3.0,3.0,369.5012119997045,3.0,1.0,phase_1,,,,,,,,,,,,,magenta,diamond
314.0,6.0,2.0,1.0,4.0,4.0,571.5450160000728,3.0,1.0,phase_1,,,,,,,,,,,,,orange,square
668.0,3.0,3.0,0.0,2.0,2.0,572.6795229998061,3.0,1.0,phase_1,,,,,,,,,,,,,gray,I
0.0,2.0,0.0,0.0,3.0,3.0,481.2913030000345,3.0,1.0,phase_1,,,,,,,,,,,,,magenta,diamond
1297.0,8.0,4.0,1.0,3.0,3.0,619.8005190003641,3.0,1.0,phase_1,,,,,,,,,,,,,blue,circle
0.0,8.0,0.0,1.0,3.0,3.0,397.617629999786,3.0,1.0,phase_1,,,,,,,,,,,,,blue,circle
185.0,5.0,1.0,1.0,3.0,3.0,406.6032769997036,3.0,1.0,phase_1,,,,,,,,,,,,,white,hexagon
180.0,1.0,1.0,0.0,2.0,2.0,683.0641650003599,3.0,1.0,phase_1,,,,,,,,,,,,,yellow,flipped triangle
0.0,7.0,0.0,1.0,2.0,2.0,534.6907890002512,3.0,1.0,phase_1,,,,,,,,,,,,,green,cross
1325.0,4.0,4.0,0.0,2.0,2.0,526.0977009997987,3.0,1.0,phase_1,,,,,,,,,,,,,cyan,triangle
0.0,8.0,0.0,1.0,2.0,2.0,342.908467000143,3.0,1.0,phase_1,,,,,,,,,,,,,blue,circle
639.0,7.0,3.0,1.0,1.0,1.0,361.2386069999047,3.0,1.0,phase_1,,,,,,,,,,,,,green,cross
186.0,5.0,1.0,1.0,2.0,2.0,424.1464799997629,3.0,1.0,phase_1,,,,,,,,,,,,,white,hexagon
1301.0,4.0,4.0,0.0,4.0,4.0,572.3322389999339,3.0,1.0,phase_1,,,,,,,,,,,,,cyan,triangle
180.0,5.0,1.0,1.0,3.0,3.0,405.5930690001332,3.0,1.0,phase_1,,,,,,,,,,,,,white,hexagon
306.0,6.0,2.0,1.0,1.0,1.0,415.9952650002196,3.0,1.0,phase_1,,,,,,,,,,,,,orange,square
308.0,6.0,2.0,1.0,3.0,3.0,941.7645470002752,3.0,1.0,phase_1,,,,,,,,,,,,,orange,square
651.0,7.0,3.0,1.0,1.0,1.0,341.5717779998886,3.0,2.0,phase_1,,,,,,,,,,,,,green,cross
150.0,5.0,1.0,1.0,2.0,2.0,406.1060049998559,3.0,1.0,phase_1,,,,,,,,,,,,,white,hexagon
668.0,3.0,3.0,0.0,3.0,3.0,398.2621209997887,3.0,1.0,phase_1,,,,,,,,,,,,,gray,I
149.0,5.0,1.0,1.0,1.0,1.0,516.2275170000612,3.0,1.0,phase_1,,,,,,,,,,,,,white,hexagon
632.0,7.0,3.0,1.0,3.0,3.0,470.427772000221,3.0,1.0,phase_1,,,,,,,,,,,,,green,cross
185.0,1.0,1.0,0.0,2.0,2.0,949.8779030000152,3.0,1.0,phase_1,,,,,,,,,,,,,yellow,flipped triangle
162.0,5.0,1.0,1.0,2.0,2.0,571.9854100002522,3.0,1.0,phase_1,,,,,,,,,,,,,white,hexagon
1324.0,4.0,4.0,0.0,1.0,1.0,645.3481460002877,3.0,1.0,phase_1,,,,,,,,,,,,,cyan,triangle
320.0,2.0,2.0,0.0,2.0,2.0,535.4097989998081,3.0,1.0,phase_1,,,,,,,,,,,,,magenta,diamond
0.0,5.0,0.0,1.0,2.0,2.0,617.8562410000268,3.0,1.0,phase_1,,,,,,,,,,,,,white,hexagon
0.0,4.0,0.0,0.0,3.0,3.0,637.053523999839,3.0,1.0,phase_1,,,,,,,,,,,,,cyan,triangle
648.0,3.0,3.0,0.0,1.0,1.0,755.8600469997145,3.0,1.0,phase_1,,,,,,,,,,,,,gray,I
141.0,5.0,1.0,1.0,3.0,3.0,625.2681799996935,3.0,1.0,phase_1,,,,,,,,,,,,,white,hexagon
170.0,1.0,1.0,0.0,4.0,4.0,673.7187019998601,3.0,1.0,phase_1,,,,,,,,,,,,,yellow,flipped triangle
1290.0,8.0,4.0,1.0,2.0,2.0,388.5265430003528,3.0,1.0,phase_1,,,,,,,,,,,,,blue,circle
636.0,3.0,3.0,0.0,2.0,2.0,470.3294189998814,3.0,1.0,phase_1,,,,,,,,,,,,,gray,I
166.0,5.0,1.0,1.0,1.0,1.0,680.16081199994,3.0,1.0,phase_1,,,,,,,,,,,,,white,hexagon
0.0,3.0,0.0,0.0,4.0,4.0,644.5703590002267,3.0,1.0,phase_1,,,,,,,,,,,,,gray,I
140.0,1.0,1.0,0.0,4.0,4.0,416.0247520003395,3.0,1.0,phase_1,,,,,,,,,,,,,yellow,flipped triangle
150.0,1.0,1.0,0.0,3.0,3.0,340.3154669999821,3.0,1.0,phase_1,,,,,,,,,,,,,yellow,flipped triangle
1297.0,4.0,4.0,0.0,4.0,4.0,304.3361639997783,3.0,1.0,phase_1,,,,,,,,,,,,,cyan,triangle
0.0,2.0,0.0,0.0,3.0,3.0,332.0703250001315,3.0,1.0,phase_1,,,,,,,,,,,,,magenta,diamond
310.0,2.0,2.0,0.0,4.0,4.0,271.0151010001027,4.0,2.0,phase_1,,,,,,,,,,,,,magenta,diamond
0.0,6.0,0.0,1.0,1.0,1.0,552.911401000074,4.0,1.0,phase_1,,,,,,,,,,,,,orange,square
0.0,4.0,0.0,0.0,2.0,2.0,553.2664930001374,4.0,1.0,phase_1,,,,,,,,,,,,,cyan,triangle
316.0,6.0,2.0,1.0,2.0,2.0,589.8351270002422,4.0,1.0,phase_1,,,,,,,,,,,,,orange,square
168.0,1.0,1.0,0.0,4.0,4.0,434.1039179998915,4.0,1.0,phase_1,,,,,,,,,,,,,yellow,flipped triangle
174.0,5.0,1.0,1.0,2.0,2.0,627.6790270003403,4.0,1.0,phase_1,,,,,,,,,,,,,white,hexagon
337.0,6.0,2.0,1.0,1.0,1.0,579.69365200006,4.0,1.0,phase_1,,,,,,,,,,,,,orange,square
349.0,2.0,2.0,0.0,1.0,1.0,615.8852570001727,4.0,1.0,phase_1,,,,,,,,,,,,,magenta,diamond
0.0,3.0,0.0,0.0,4.0,4.0,472.0507270003509,4.0,1.0,phase_1,,,,,,,,,,,,,gray,I
139.0,5.0,1.0,1.0,3.0,3.0,387.8219339999305,4.0,1.0,phase_1,,,,,,,,,,,,,white,hexagon
1282.0,4.0,4.0,0.0,3.0,3.0,322.8768899998613,4.0,1.0,phase_1,,,,,,,,,,,,,cyan,triangle
1294.0,4.0,4.0,0.0,3.0,3.0,286.1464980001074,4.0,1.0,phase_1,,,,,,,,,,,,,cyan,triangle
0.0,3.0,0.0,0.0,1.0,1.0,322.072941999977,4.0,2.0,phase_1,,,,,,,,,,,,,gray,I
636.0,7.0,3.0,1.0,1.0,1.0,359.5398899997235,4.0,1.0,phase_1,,,,,,,,,,,,,green,cross
0.0,7.0,0.0,1.0,2.0,2.0,368.2787160000771,4.0,1.0,phase_1,,,,,,,,,,,,,green,cross
668.0,3.0,3.0,0.0,1.0,1.0,717.5975360000848,4.0,1.0,phase_1,,,,,,,,,,,,,gray,I
137.0,5.0,1.0,1.0,4.0,4.0,508.27194700013933,4.0,1.0,phase_1,,,,,,,,,,,,,white,hexagon
169.0,1.0,1.0,0.0,3.0,3.0,405.6414199999381,4.0,1.0,phase_1,,,,,,,,,,,,,yellow,flipped triangle
1289.0,4.0,4.0,0.0,1.0,1.0,470.7121030000962,4.0,1.0,phase_1,,,,,,,,,,,,,cyan,triangle
657.0,3.0,3.0,0.0,4.0,4.0,553.0816160003269,4.0,1.0,phase_1,,,,,,,,,,,,,gray,I
628.0,7.0,3.0,1.0,1.0,1.0,709.6179039999697,4.0,1.0,phase_1,,,,,,,,,,,,,green,cross
647.0,3.0,3.0,0.0,3.0,3.0,443.0756490000931,4.0,1.0,phase_1,,,,,,,,,,,,,gray,I
329.0,2.0,2.0,0.0,4.0,4.0,617.3245340000904,4.0,1.0,phase_1,,,,,,,,,,,,,magenta,diamond
345.0,2.0,2.0,0.0,1.0,1.0,561.5452770002776,4.0,1.0,phase_1,,,,,,,,,,,,,magenta,diamond
631.0,3.0,3.0,0.0,1.0,1.0,600.0431140000728,4.0,1.0,phase_1,,,,,,,,,,,,,gray,I
1297.0,8.0,4.0,1.0,2.0,2.0,498.0837560001419,4.0,1.0,phase_1,,,,,,,,,,,,,blue,circle
139.0,1.0,1.0,0.0,3.0,3.0,663.8812499995765,4.0,1.0,phase_1,,,,,,,,,,,,,yellow,flipped triangle
668.0,7.0,3.0,1.0,4.0,4.0,461.5477689999352,4.0,1.0,phase_1,,,,,,,,,,,,,green,cross
331.0,2.0,2.0,0.0,2.0,2.0,497.8397659997426,4.0,1.0,phase_1,,,,,,,,,,,,,magenta,diamond
644.0,7.0,3.0,1.0,2.0,2.0,773.1866369999807,4.0,1.0,phase_1,,,,,,,,,,,,,green,cross
148.0,1.0,1.0,0.0,2.0,2.0,433.5094010002649,4.0,1.0,phase_1,,,,,,,,,,,,,yellow,flipped triangle
1324.0,4.0,4.0,0.0,2.0,2.0,414.378876000228,4.0,1.0,phase_1,,,,,,,,,,,,,cyan,triangle
1319.0,8.0,4.0,1.0,2.0,2.0,469.9541980003232,4.0,1.0,phase_1,,,,,,,,,,,,,blue,circle
336.0,6.0,2.0,1.0,2.0,2.0,414.0616409999893,4.0,1.0,phase_1,,,,,,,,,,,,,orange,square
181.0,5.0,1.0,1.0,4.0,4.0,526.0099580000315,4.0,1.0,phase_1,,,,,,,,,,,,,white,hexagon
1309.0,8.0,4.0,1.0,1.0,1.0,475.48595499984,4.0,1.0,phase_1,,,,,,,,,,,,,blue,circle
314.0,2.0,2.0,0.0,1.0,1.0,590.8242629998313,4.0,1.0,phase_1,,,,,,,,,,,,,magenta,diamond
137.0,1.0,1.0,0.0,3.0,3.0,626.7623779999667,4.0,1.0,phase_1,,,,,,,,,,,,,yellow,flipped triangle
1277.0,8.0,4.0,1.0,3.0,3.0,425.0422230006734,4.0,1.0,phase_1,,,,,,,,,,,,,blue,circle
166.0,1.0,1.0,0.0,2.0,2.0,719.050843000332,4.0,1.0,phase_1,,,,,,,,,,,,,yellow,flipped triangle
175.0,1.0,1.0,0.0,3.0,3.0,554.2631849993995,4.0,1.0,phase_1,,,,,,,,,,,,,yellow,flipped triangle
301.0,2.0,2.0,0.0,1.0,1.0,468.7239029999546,4.0,1.0,phase_1,,,,,,,,,,,,,magenta,diamond
313.0,6.0,2.0,1.0,4.0,4.0,406.4865340005781,4.0,1.0,phase_1,,,,,,,,,,,,,orange,square
305.0,6.0,2.0,1.0,4.0,4.0,414.0652219994081,4.0,1.0,phase_1,,,,,,,,,,,,,orange,square
0.0,7.0,0.0,1.0,1.0,1.0,727.5499269999273,4.0,1.0,phase_1,,,,,,,,,,,,,green,cross
308.0,2.0,2.0,0.0,3.0,3.0,590.0599440001315,4.0,1.0,phase_1,,,,,,,,,,,,,magenta,diamond
670.0,7.0,3.0,1.0,3.0,3.0,570.8030249998046,4.0,1.0,phase_1,,,,,,,,,,,,,green,cross
0.0,5.0,0.0,1.0,4.0,4.0,397.126500000013,4.0,1.0,phase_1,,,,,,,,,,,,,white,hexagon
0.0,7.0,0.0,1.0,1.0,1.0,617.9888320002647,4.0,1.0,phase_1,,,,,,,,,,,,,green,cross
0.0,3.0,0.0,0.0,2.0,2.0,443.3248209998055,4.0,1.0,phase_1,,,,,,,,,,,,,gray,I
662.0,7.0,3.0,1.0,2.0,2.0,589.8761720000039,4.0,1.0,phase_1,,,,,,,,,,,,,green,cross
0.0,7.0,0.0,1.0,4.0,4.0,581.8735109996851,4.0,1.0,phase_1,,,,,,,,,,,,,green,cross
0.0,1.0,0.0,0.0,1.0,1.0,618.3616059997803,4.0,1.0,phase_1,,,,,,,,,,,,,yellow,flipped triangle
0.0,8.0,0.0,1.0,3.0,3.0,737.5350510001226,4.0,1.0,phase_1,,,,,,,,,,,,,blue,circle
1323.0,4.0,4.0,0.0,3.0,3.0,563.1684179998047,4.0,1.0,phase_1,,,,,,,,,,,,,cyan,triangle
349.0,6.0,2.0,1.0,2.0,2.0,525.3829220000625,4.0,1.0,phase_1,,,,,,,,,,,,,orange,square
0.0,3.0,0.0,0.0,2.0,2.0,681.7769899998893,4.0,1.0,phase_1,,,,,,,,,,,,,gray,I
631.0,3.0,3.0,0.0,4.0,4.0,480.2911890001269,4.0,1.0,phase_1,,,,,,,,,,,,,gray,I
0.0,3.0,0.0,0.0,4.0,4.0,452.2341640004015,4.0,1.0,phase_1,,,,,,,,,,,,,gray,I
160.0,5.0,1.0,1.0,3.0,3.0,378.1822529999772,4.0,1.0,phase_1,,,,,,,,,,,,,white,hexagon
335.0,2.0,2.0,0.0,4.0,4.0,341.3578649997362,4.0,1.0,phase_1,,,,,,,,,,,,,magenta,diamond
0.0,4.0,0.0,0.0,3.0,3.0,304.8536409996814,4.0,1.0,phase_1,,,,,,,,,,,,,cyan,triangle
0.0,5.0,0.0,1.0,3.0,3.0,525.1356970002234,4.0,1.0,phase_1,,,,,,,,,,,,,white,hexagon
179.0,5.0,1.0,1.0,1.0,1.0,635.277841000061,4.0,1.0,phase_1,,,,,,,,,,,,,white,hexagon
140.0,5.0,1.0,1.0,2.0,2.0,379.5108299991625,4.0,1.0,phase_1,,,,,,,,,,,,,white,hexagon
0.0,2.0,0.0,0.0,1.0,1.0,423.5768730004565,4.0,1.0,phase_1,,,,,,,,,,,,,magenta,diamond
0.0,1.0,0.0,0.0,4.0,4.0,488.395823999781,4.0,1.0,phase_1,,,,,,,,,,,,,yellow,flipped triangle
633.0,3.0,3.0,0.0,4.0,4.0,387.4403179997898,4.0,1.0,phase_1,,,,,,,,,,,,,gray,I
1286.0,8.0,4.0,1.0,4.0,4.0,423.7097049999647,4.0,1.0,phase_1,,,,,,,,,,,,,blue,circle
666.0,3.0,3.0,0.0,2.0,2.0,681.9494649998887,4.0,1.0,phase_1,,,,,,,,,,,,,gray,I
0.0,3.0,0.0,0.0,2.0,2.0,617.6442440000756,4.0,1.0,phase_1,,,,,,,,,,,,,gray,I
186.0,1.0,1.0,0.0,3.0,3.0,471.0932660000253,4.0,1.0,phase_1,,,,,,,,,,,,,yellow,flipped triangle
641.0,3.0,3.0,0.0,1.0,1.0,340.7994110002619,4.0,2.0,phase_1,,,,,,,,,,,,,gray,I
0.0,3.0,0.0,0.0,3.0,3.0,398.2571569995343,4.0,1.0,phase_1,,,,,,,,,,,,,gray,I
174.0,1.0,1.0,0.0,3.0,3.0,341.6726800005563,4.0,1.0,phase_1,,,,,,,,,,,,,yellow,flipped triangle
0.0,8.0,0.0,1.0,1.0,1.0,646.0655069995482,4.0,1.0,phase_1,,,,,,,,,,,,,blue,circle
0.0,4.0,0.0,0.0,4.0,4.0,379.4903039997734,4.0,1.0,phase_1,,,,,,,,,,,,,cyan,triangle
344.0,6.0,2.0,1.0,3.0,3.0,434.6085229999517,4.0,1.0,phase_1,,,,,,,,,,,,,orange,square
664.0,3.0,3.0,0.0,3.0,3.0,444.5518769998671,4.0,1.0,phase_1,,,,,,,,,,,,,gray,I
0.0,2.0,0.0,0.0,2.0,2.0,527.3183950002931,4.0,1.0,phase_1,,,,,,,,,,,,,magenta,diamond
303.0,6.0,2.0,1.0,4.0,4.0,556.4237529997627,4.0,1.0,phase_1,,,,,,,,,,,,,orange,square
344.0,2.0,2.0,0.0,4.0,4.0,499.0347349994408,4.0,1.0,phase_1,,,,,,,,,,,,,magenta,diamond
649.0,3.0,3.0,0.0,2.0,2.0,543.4616910006298,4.0,1.0,phase_1,,,,,,,,,,,,,gray,I
1305.0,4.0,4.0,0.0,3.0,3.0,985.8366290000048,4.0,1.0,phase_1,,,,,,,,,,,,,cyan,triangle
320.0,6.0,2.0,1.0,4.0,4.0,405.1553929994043,4.0,1.0,phase_1,,,,,,,,,,,,,orange,square
646.0,7.0,3.0,1.0,4.0,4.0,423.8998190003258,4.0,1.0,phase_1,,,,,,,,,,,,,green,cross
636.0,3.0,3.0,0.0,3.0,3.0,489.5849920003456,4.0,1.0,phase_1,,,,,,,,,,,,,gray,I
321.0,2.0,2.0,0.0,4.0,4.0,480.1608289999421,4.0,1.0,phase_1,,,,,,,,,,,,,magenta,diamond
349.0,6.0,2.0,1.0,1.0,1.0,627.8121779996582,4.0,1.0,phase_1,,,,,,,,,,,,,orange,square
0.0,6.0,0.0,1.0,1.0,1.0,303.8811839996924,4.0,2.0,phase_1,,,,,,,,,,,,,orange,square
0.0,8.0,0.0,1.0,4.0,4.0,498.6979509994853,4.0,1.0,phase_1,,,,,,,,,,,,,blue,circle
0.0,8.0,0.0,1.0,1.0,1.0,333.2392760003131,4.0,1.0,phase_1,,,,,,,,,,,,,blue,circle
658.0,7.0,3.0,1.0,4.0,4.0,360.0250240006062,4.0,1.0,phase_1,,,,,,,,,,,,,green,cross
1294.0,4.0,4.0,0.0,3.0,3.0,738.6051299999963,4.0,1.0,phase_1,,,,,,,,,,,,,cyan,triangle
340.0,6.0,2.0,1.0,1.0,1.0,654.8527670001931,4.0,1.0,phase_1,,,,,,,,,,,,,orange,square
1303.0,8.0,4.0,1.0,2.0,2.0,636.6369639999903,4.0,1.0,phase_1,,,,,,,,,,,,,blue,circle
0.0,6.0,0.0,1.0,2.0,2.0,525.40063700053,4.0,1.0,phase_1,,,,,,,,,,,,,orange,square
1320.0,8.0,4.0,1.0,4.0,4.0,387.6338720001513,4.0,1.0,phase_1,,,,,,,,,,,,,blue,circle
644.0,3.0,3.0,0.0,4.0,4.0,424.8948200001905,4.0,1.0,phase_1,,,,,,,,,,,,,gray,I
346.0,6.0,2.0,1.0,1.0,1.0,599.3269450000298,4.0,1.0,phase_1,,,,,,,,,,,,,orange,square
0.0,4.0,4.0,0.0,6.0,6.0,471.606222000446,1.0,1.0,phase_2,go,250.0,250.0,1.0,,,,,,,,,cyan,triangle
0.0,2.0,2.0,0.0,5.0,5.0,637.3506559993984,1.0,1.0,phase_2,go,250.0,250.0,1.0,,,,,,,,,magenta,diamond
0.0,1.0,1.0,0.0,5.0,5.0,389.615710999351,1.0,1.0,phase_2,go,250.0,250.0,1.0,,,,,,,,,yellow,flipped triangle
0.0,6.0,2.0,1.0,6.0,0.0,0.0,1.0,1.0,phase_2,stop,250.0,250.0,4.0,,,,,,,,,orange,square
0.0,2.0,2.0,0.0,5.0,5.0,862.7314140003364,1.0,1.0,phase_2,go,250.0,300.0,1.0,,,,,,,,,magenta,diamond
0.0,1.0,1.0,0.0,5.0,5.0,1066.7929649998769,1.0,1.0,phase_2,go,250.0,300.0,1.0,,,,,,,,,yellow,flipped triangle
0.0,6.0,2.0,1.0,5.0,5.0,416.9822080002632,1.0,1.0,phase_2,go,250.0,300.0,1.0,,,,,,,,,orange,square
0.0,1.0,1.0,0.0,5.0,5.0,686.8260339997505,1.0,1.0,phase_2,go,250.0,300.0,1.0,,,,,,,,,yellow,flipped triangle
0.0,1.0,1.0,0.0,6.0,6.0,752.6445769999555,1.0,1.0,phase_2,go,250.0,300.0,1.0,,,,,,,,,yellow,flipped triangle
0.0,3.0,3.0,0.0,5.0,5.0,436.8685110002843,1.0,1.0,phase_2,go,250.0,300.0,1.0,,,,,,,,,gray,I
0.0,2.0,2.0,0.0,6.0,6.0,353.9302939998379,1.0,1.0,phase_2,go,250.0,300.0,1.0,,,,,,,,,magenta,diamond
0.0,2.0,2.0,0.0,6.0,6.0,826.6592380005022,1.0,1.0,phase_2,go,250.0,300.0,1.0,,,,,,,,,magenta,diamond
0.0,5.0,1.0,1.0,6.0,0.0,0.0,1.0,1.0,phase_2,stop,250.0,300.0,4.0,,,,,,,,,white,hexagon
0.0,1.0,1.0,0.0,5.0,5.0,445.8026689999315,1.0,1.0,phase_2,go,250.0,350.0,1.0,,,,,,,,,yellow,flipped triangle
0.0,5.0,1.0,1.0,5.0,5.0,945.3060449995974,1.0,1.0,phase_2,go,250.0,350.0,1.0,,,,,,,,,white,hexagon
0.0,1.0,1.0,0.0,5.0,5.0,797.9659840002569,1.0,1.0,phase_2,go,250.0,350.0,1.0,,,,,,,,,yellow,flipped triangle
0.0,1.0,1.0,0.0,6.0,6.0,426.890319999984,1.0,1.0,phase_2,go,250.0,350.0,1.0,,,,,,,,,yellow,flipped triangle
0.0,4.0,4.0,0.0,6.0,6.0,1003.8668030001645,1.0,1.0,phase_2,go,250.0,350.0,1.0,,,,,,,,,cyan,triangle
0.0,7.0,3.0,1.0,6.0,6.0,1339.120551000633,1.0,1.0,phase_2,go,250.0,350.0,1.0,,,,,,,,,green,cross
0.0,2.0,2.0,0.0,6.0,6.0,473.6274999995657,1.0,1.0,phase_2,go,250.0,350.0,1.0,,,,,,,,,magenta,diamond
0.0,3.0,3.0,0.0,5.0,5.0,937.8267599995525,1.0,1.0,phase_2,go,250.0,350.0,1.0,,,,,,,,,gray,I
0.0,6.0,2.0,1.0,6.0,0.0,0.0,1.0,1.0,phase_2,stop,250.0,350.0,4.0,,,,,,,,,orange,square
0.0,8.0,4.0,1.0,5.0,5.0,418.2268930007922,1.0,1.0,phase_2,go,250.0,400.0,1.0,,,,,,,,,blue,circle
0.0,2.0,2.0,0.0,5.0,5.0,929.982129000564,1.0,1.0,phase_2,go,250.0,400.0,1.0,,,,,,,,,magenta,diamond
0.0,3.0,3.0,0.0,5.0,5.0,668.9796559994647,1.0,1.0,phase_2,go,250.0,400.0,1.0,,,,,,,,,gray,I
0.0,2.0,2.0,0.0,5.0,5.0,660.9844610002256,1.0,1.0,phase_2,go,250.0,400.0,1.0,,,,,,,,,magenta,diamond
0.0,3.0,3.0,0.0,5.0,5.0,697.6889100005792,1.0,1.0,phase_2,go,250.0,400.0,1.0,,,,,,,,,gray,I
0.0,5.0,1.0,1.0,5.0,5.0,474.3517429997155,1.0,1.0,phase_2,go,250.0,400.0,1.0,,,,,,,,,white,hexagon
0.0,6.0,2.0,1.0,6.0,6.0,518.8672110007246,1.0,1.0,phase_2,stop,250.0,400.0,3.0,,,,,,,,,orange,square
0.0,5.0,1.0,1.0,6.0,6.0,808.7928659997488,1.0,1.0,phase_2,go,250.0,350.0,1.0,,,,,,,,,white,hexagon
0.0,4.0,4.0,0.0,6.0,6.0,863.3041020002565,1.0,1.0,phase_2,go,250.0,350.0,1.0,,,,,,,,,cyan,triangle
0.0,2.0,2.0,0.0,5.0,5.0,706.2071890004518,1.0,1.0,phase_2,go,250.0,350.0,1.0,,,,,,,,,magenta,diamond
0.0,7.0,3.0,1.0,5.0,0.0,0.0,1.0,1.0,phase_2,stop,250.0,350.0,4.0,,,,,,,,,green,cross
0.0,7.0,3.0,1.0,5.0,5.0,688.2233839996843,1.0,1.0,phase_2,go,300.0,350.0,1.0,,,,,,,,,green,cross
0.0,2.0,2.0,0.0,6.0,6.0,1263.8430119995974,1.0,1.0,phase_2,go,300.0,350.0,1.0,,,,,,,,,magenta,diamond
0.0,3.0,3.0,0.0,6.0,6.0,705.9528560002946,1.0,1.0,phase_2,go,300.0,350.0,1.0,,,,,,,,,gray,I
0.0,4.0,4.0,0.0,5.0,5.0,279.0773770002488,2.0,1.0,phase_2,go,300.0,350.0,1.0,,,,,,,,,cyan,triangle
0.0,6.0,2.0,1.0,5.0,5.0,338.0399830002716,2.0,1.0,phase_2,stop,300.0,350.0,3.0,,,,,,,,,orange,square
0.0,3.0,3.0,0.0,6.0,6.0,400.5811120005091,2.0,1.0,phase_2,go,250.0,350.0,1.0,,,,,,,,,gray,I
0.0,7.0,3.0,1.0,5.0,0.0,0.0,2.0,1.0,phase_2,stop,250.0,350.0,4.0,,,,,,,,,green,cross
0.0,5.0,1.0,1.0,5.0,0.0,0.0,2.0,1.0,phase_2,stop,300.0,350.0,4.0,,,,,,,,,white,hexagon
0.0,3.0,3.0,0.0,5.0,5.0,639.7446589999163,2.0,1.0,phase_2,go,350.0,350.0,1.0,,,,,,,,,gray,I
0.0,8.0,4.0,1.0,6.0,6.0,378.5063980003542,2.0,1.0,phase_2,stop,350.0,350.0,3.0,,,,,,,,,blue,circle
0.0,8.0,4.0,1.0,5.0,5.0,499.2963769991547,2.0,1.0,phase_2,stop,350.0,300.0,3.0,,,,,,,,,blue,circle
0.0,7.0,3.0,1.0,5.0,0.0,0.0,2.0,1.0,phase_2,stop,300.0,300.0,4.0,,,,,,,,,green,cross
0.0,3.0,3.0,0.0,5.0,5.0,845.0269790000675,2.0,1.0,phase_2,go,350.0,300.0,1.0,,,,,,,,,gray,I
0.0,8.0,4.0,1.0,6.0,0.0,0.0,2.0,1.0,phase_2,stop,350.0,300.0,4.0,,,,,,,,,blue,circle
0.0,4.0,4.0,0.0,5.0,5.0,594.4446100002097,2.0,1.0,phase_2,go,350.0,350.0,1.0,,,,,,,,,cyan,triangle
0.0,3.0,3.0,0.0,6.0,6.0,770.8645349994185,2.0,1.0,phase_2,go,350.0,350.0,1.0,,,,,,,,,gray,I
0.0,7.0,3.0,1.0,6.0,6.0,411.4854590006871,2.0,1.0,phase_2,stop,350.0,350.0,3.0,,,,,,,,,green,cross
0.0,1.0,1.0,0.0,5.0,5.0,743.604549000338,2.0,1.0,phase_2,go,350.0,300.0,1.0,,,,,,,,,yellow,flipped triangle
0.0,3.0,3.0,0.0,5.0,5.0,576.3640209997902,2.0,1.0,phase_2,go,350.0,300.0,1.0,,,,,,,,,gray,I
0.0,8.0,4.0,1.0,5.0,0.0,0.0,2.0,1.0,phase_2,stop,350.0,300.0,4.0,,,,,,,,,blue,circle
0.0,4.0,4.0,0.0,5.0,5.0,595.7735030006006,2.0,1.0,phase_2,go,400.0,300.0,1.0,,,,,,,,,cyan,triangle
0.0,1.0,1.0,0.0,5.0,5.0,428.6693129997729,2.0,1.0,phase_2,go,400.0,300.0,1.0,,,,,,,,,yellow,flipped triangle
0.0,5.0,1.0,1.0,6.0,6.0,550.8573460001571,2.0,1.0,phase_2,stop,400.0,300.0,3.0,,,,,,,,,white,hexagon
0.0,2.0,2.0,0.0,5.0,5.0,594.3749719999687,2.0,1.0,phase_2,go,400.0,250.0,1.0,,,,,,,,,magenta,diamond
0.0,8.0,4.0,1.0,5.0,0.0,0.0,2.0,1.0,phase_2,stop,400.0,250.0,4.0,,,,,,,,,blue,circle
0.0,4.0,4.0,0.0,5.0,5.0,436.6903740001362,2.0,1.0,phase_2,go,450.0,250.0,1.0,,,,,,,,,cyan,triangle
0.0,4.0,4.0,0.0,6.0,6.0,595.5616629998985,2.0,1.0,phase_2,go,450.0,250.0,1.0,,,,,,,,,cyan,triangle
0.0,1.0,1.0,0.0,6.0,6.0,521.344943999793,2.0,1.0,phase_2,go,450.0,250.0,1.0,,,,,,,,,yellow,flipped triangle
0.0,7.0,3.0,1.0,5.0,5.0,498.1110720000288,2.0,1.0,phase_2,stop,450.0,250.0,3.0,,,,,,,,,green,cross
0.0,4.0,4.0,0.0,5.0,5.0,729.8584950003715,2.0,1.0,phase_2,go,400.0,250.0,1.0,,,,,,,,,cyan,triangle
0.0,2.0,2.0,0.0,5.0,5.0,631.7270270001245,2.0,1.0,phase_2,go,400.0,250.0,1.0,,,,,,,,,magenta,diamond
0.0,4.0,4.0,0.0,6.0,6.0,734.3731030005074,2.0,1.0,phase_2,go,400.0,250.0,1.0,,,,,,,,,cyan,triangle
0.0,5.0,1.0,1.0,6.0,0.0,0.0,2.0,1.0,phase_2,stop,400.0,250.0,4.0,,,,,,,,,white,hexagon
0.0,8.0,4.0,1.0,5.0,5.0,576.9538760005162,2.0,1.0,phase_2,go,400.0,300.0,1.0,,,,,,,,,blue,circle
0.0,7.0,3.0,1.0,6.0,0.0,0.0,2.0,1.0,phase_2,stop,400.0,300.0,4.0,,,,,,,,,green,cross
0.0,7.0,3.0,1.0,5.0,5.0,381.2256990004243,2.0,1.0,phase_2,stop,400.0,350.0,3.0,,,,,,,,,green,cross
0.0,3.0,3.0,0.0,5.0,5.0,1145.071899999493,2.0,1.0,phase_2,go,350.0,350.0,1.0,,,,,,,,,gray,I
0.0,2.0,2.0,0.0,5.0,5.0,604.1712500000358,2.0,1.0,phase_2,go,350.0,350.0,1.0,,,,,,,,,magenta,diamond
0.0,8.0,4.0,1.0,5.0,5.0,566.3345659995684,2.0,1.0,phase_2,stop,350.0,350.0,3.0,,,,,,,,,blue,circle
0.0,5.0,1.0,1.0,6.0,6.0,436.6123879999577,3.0,1.0,phase_2,stop,300.0,350.0,3.0,,,,,,,,,white,hexagon
0.0,7.0,3.0,1.0,5.0,0.0,0.0,3.0,1.0,phase_2,stop,300.0,300.0,4.0,,,,,,,,,green,cross
0.0,4.0,4.0,0.0,5.0,5.0,650.9875570000077,3.0,1.0,phase_2,go,350.0,300.0,1.0,,,,,,,,,cyan,triangle
0.0,5.0,1.0,1.0,6.0,0.0,0.0,3.0,1.0,phase_2,stop,350.0,300.0,4.0,,,,,,,,,white,hexagon
0.0,8.0,4.0,1.0,6.0,6.0,566.2117889996807,3.0,1.0,phase_2,go,350.0,350.0,1.0,,,,,,,,,blue,circle
0.0,7.0,3.0,1.0,6.0,0.0,0.0,3.0,1.0,phase_2,stop,350.0,350.0,4.0,,,,,,,,,green,cross
0.0,3.0,3.0,0.0,6.0,6.0,578.865118000067,3.0,1.0,phase_2,go,350.0,400.0,1.0,,,,,,,,,gray,I
0.0,5.0,1.0,1.0,6.0,0.0,0.0,3.0,1.0,phase_2,stop,350.0,400.0,4.0,,,,,,,,,white,hexagon
0.0,6.0,2.0,1.0,6.0,6.0,633.1580410005699,3.0,1.0,phase_2,go,350.0,450.0,1.0,,,,,,,,,orange,square
0.0,4.0,4.0,0.0,5.0,5.0,474.1187889994762,3.0,1.0,phase_2,go,350.0,450.0,1.0,,,,,,,,,cyan,triangle
0.0,5.0,1.0,1.0,6.0,6.0,612.222187000043,3.0,1.0,phase_2,go,350.0,450.0,1.0,,,,,,,,,white,hexagon
0.0,6.0,2.0,1.0,5.0,5.0,528.7465540004632,3.0,1.0,phase_2,stop,350.0,450.0,3.0,,,,,,,,,orange,square
0.0,2.0,2.0,0.0,5.0,5.0,706.5504579995832,3.0,1.0,phase_2,go,300.0,450.0,1.0,,,,,,,,,magenta,diamond
0.0,4.0,4.0,0.0,5.0,5.0,455.5297420001807,3.0,1.0,phase_2,go,300.0,450.0,1.0,,,,,,,,,cyan,triangle
0.0,2.0,2.0,0.0,5.0,5.0,436.8429870000909,3.0,1.0,phase_2,go,300.0,450.0,1.0,,,,,,,,,magenta,diamond
0.0,3.0,3.0,0.0,6.0,6.0,446.3095129995054,3.0,1.0,phase_2,go,300.0,450.0,1.0,,,,,,,,,gray,I
0.0,5.0,1.0,1.0,5.0,5.0,633.3742990000246,3.0,1.0,phase_2,go,300.0,450.0,1.0,,,,,,,,,white,hexagon
0.0,6.0,2.0,1.0,6.0,6.0,317.2563110001647,3.0,1.0,phase_2,stop,300.0,450.0,3.0,,,,,,,,,orange,square
0.0,1.0,1.0,0.0,5.0,5.0,546.805616999336,3.0,1.0,phase_2,go,300.0,400.0,1.0,,,,,,,,,yellow,flipped triangle
0.0,5.0,1.0,1.0,5.0,0.0,0.0,3.0,1.0,phase_2,stop,300.0,400.0,4.0,,,,,,,,,white,hexagon
0.0,6.0,2.0,1.0,5.0,5.0,552.3194200004582,3.0,1.0,phase_2,stop,350.0,400.0,3.0,,,,,,,,,orange,square
0.0,1.0,1.0,0.0,6.0,6.0,649.15033699981,3.0,1.0,phase_2,go,300.0,400.0,1.0,,,,,,,,,yellow,flipped triangle
0.0,5.0,1.0,1.0,6.0,0.0,0.0,3.0,1.0,phase_2,stop,300.0,400.0,4.0,,,,,,,,,white,hexagon
0.0,2.0,2.0,0.0,5.0,5.0,641.0744549993979,3.0,1.0,phase_2,go,300.0,450.0,1.0,,,,,,,,,magenta,diamond
0.0,6.0,2.0,1.0,6.0,0.0,0.0,3.0,1.0,phase_2,stop,300.0,450.0,4.0,,,,,,,,,orange,square
0.0,7.0,3.0,1.0,6.0,6.0,703.8816870008304,3.0,1.0,phase_2,stop,300.0,500.0,3.0,,,,,,,,,green,cross
0.0,2.0,2.0,0.0,6.0,6.0,836.0623749995284,3.0,1.0,phase_2,go,300.0,450.0,1.0,,,,,,,,,magenta,diamond
0.0,6.0,2.0,1.0,6.0,0.0,0.0,3.0,1.0,phase_2,stop,300.0,450.0,4.0,,,,,,,,,orange,square
0.0,3.0,3.0,0.0,5.0,5.0,622.3155739999129,3.0,1.0,phase_2,go,300.0,500.0,1.0,,,,,,,,,gray,I
0.0,2.0,2.0,0.0,6.0,6.0,780.0279909997698,3.0,1.0,phase_2,go,300.0,500.0,1.0,,,,,,,,,magenta,diamond
0.0,5.0,1.0,1.0,5.0,0.0,0.0,3.0,1.0,phase_2,stop,300.0,500.0,4.0,,,,,,,,,white,hexagon
0.0,2.0,2.0,0.0,6.0,6.0,1023.678020999796,3.0,1.0,phase_2,go,350.0,500.0,1.0,,,,,,,,,magenta,diamond
0.0,4.0,4.0,0.0,5.0,5.0,633.6935509998511,3.0,1.0,phase_2,go,350.0,500.0,1.0,,,,,,,,,cyan,triangle
0.0,4.0,4.0,0.0,6.0,6.0,540.5840399998851,3.0,1.0,phase_2,go,350.0,500.0,1.0,,,,,,,,,cyan,triangle
0.0,4.0,4.0,0.0,5.0,5.0,614.3117969995728,3.0,1.0,phase_2,go,350.0,500.0,1.0,,,,,,,,,cyan,triangle
0.0,2.0,2.0,0.0,6.0,6.0,826.0052429995994,3.0,1.0,phase_2,go,350.0,500.0,1.0,,,,,,,,,magenta,diamond
0.0,6.0,2.0,1.0,6.0,6.0,316.4364130007016,4.0,1.0,phase_2,stop,350.0,500.0,3.0,,,,,,,,,orange,square
0.0,2.0,2.0,0.0,5.0,5.0,561.0189660001197,4.0,1.0,phase_2,go,350.0,450.0,1.0,,,,,,,,,magenta,diamond
0.0,7.0,3.0,1.0,6.0,6.0,354.4399439997505,4.0,1.0,phase_2,stop,350.0,450.0,3.0,,,,,,,,,green,cross
0.0,2.0,2.0,0.0,6.0,6.0,679.5205430007627,4.0,1.0,phase_2,go,350.0,400.0,1.0,,,,,,,,,magenta,diamond
0.0,1.0,1.0,0.0,6.0,6.0,502.78061799963325,4.0,1.0,phase_2,go,350.0,400.0,1.0,,,,,,,,,yellow,flipped triangle
0.0,6.0,2.0,1.0,5.0,0.0,0.0,4.0,1.0,phase_2,stop,350.0,400.0,4.0,,,,,,,,,orange,square
0.0,1.0,1.0,0.0,6.0,6.0,632.3035279992837,4.0,1.0,phase_2,go,400.0,400.0,1.0,,,,,,,,,yellow,flipped triangle
0.0,1.0,1.0,0.0,6.0,6.0,372.7166409998972,4.0,1.0,phase_2,go,400.0,400.0,1.0,,,,,,,,,yellow,flipped triangle
0.0,6.0,2.0,1.0,6.0,6.0,473.9615590005996,4.0,1.0,phase_2,stop,400.0,400.0,3.0,,,,,,,,,orange,square
0.0,3.0,3.0,0.0,5.0,5.0,685.963131999415,4.0,1.0,phase_2,go,400.0,350.0,1.0,,,,,,,,,gray,I
0.0,5.0,1.0,1.0,6.0,0.0,0.0,4.0,1.0,phase_2,stop,400.0,350.0,4.0,,,,,,,,,white,hexagon
0.0,3.0,3.0,0.0,5.0,5.0,650.1371229996948,4.0,1.0,phase_2,go,400.0,400.0,1.0,,,,,,,,,gray,I
0.0,4.0,4.0,0.0,6.0,6.0,743.422991999978,4.0,1.0,phase_2,go,400.0,400.0,1.0,,,,,,,,,cyan,triangle
0.0,6.0,2.0,1.0,5.0,5.0,296.7411919998994,4.0,1.0,phase_2,stop,400.0,400.0,3.0,,,,,,,,,orange,square
0.0,1.0,1.0,0.0,5.0,5.0,708.6545129996011,4.0,1.0,phase_2,go,350.0,400.0,1.0,,,,,,,,,yellow,flipped triangle
0.0,2.0,2.0,0.0,6.0,6.0,705.5752249998477,4.0,1.0,phase_2,go,350.0,400.0,1.0,,,,,,,,,magenta,diamond
0.0,8.0,4.0,1.0,6.0,6.0,587.5492109998959,4.0,1.0,phase_2,stop,350.0,400.0,3.0,,,,,,,,,blue,circle
0.0,3.0,3.0,0.0,6.0,6.0,715.9339229992838,4.0,1.0,phase_2,go,350.0,350.0,1.0,,,,,,,,,gray,I
0.0,6.0,2.0,1.0,5.0,5.0,400.7627660002981,4.0,1.0,phase_2,go,350.0,350.0,1.0,,,,,,,,,orange,square
0.0,2.0,2.0,0.0,5.0,5.0,668.2513720006682,4.0,1.0,phase_2,go,350.0,350.0,1.0,,,,,,,,,magenta,diamond
0.0,5.0,1.0,1.0,5.0,5.0,660.1847980000457,4.0,1.0,phase_2,go,350.0,350.0,1.0,,,,,,,,,white,hexagon
0.0,8.0,4.0,1.0,5.0,5.0,529.5680620001804,4.0,1.0,phase_2,stop,350.0,350.0,3.0,,,,,,,,,blue,circle
0.0,4.0,4.0,0.0,5.0,5.0,835.6717489996299,4.0,1.0,phase_2,go,300.0,350.0,1.0,,,,,,,,,cyan,triangle
0.0,2.0,2.0,0.0,5.0,5.0,818.6817999994673,4.0,1.0,phase_2,go,300.0,350.0,1.0,,,,,,,,,magenta,diamond
0.0,7.0,3.0,1.0,5.0,0.0,0.0,4.0,1.0,phase_2,stop,300.0,350.0,4.0,,,,,,,,,green,cross
0.0,4.0,4.0,0.0,5.0,5.0,686.5196270000524,4.0,1.0,phase_2,go,350.0,350.0,1.0,,,,,,,,,cyan,triangle
0.0,3.0,3.0,0.0,6.0,6.0,586.2953380001272,4.0,1.0,phase_2,go,350.0,350.0,1.0,,,,,,,,,gray,I
0.0,5.0,1.0,1.0,6.0,6.0,420.23515100027,4.0,1.0,phase_2,stop,350.0,350.0,3.0,,,,,,,,,white,hexagon
0.0,3.0,3.0,0.0,6.0,6.0,891.781297000307,4.0,1.0,phase_2,go,350.0,300.0,1.0,,,,,,,,,gray,I
0.0,3.0,3.0,0.0,5.0,5.0,363.194647000455,4.0,1.0,phase_2,go,350.0,300.0,1.0,,,,,,,,,gray,I
0.0,6.0,2.0,1.0,6.0,0.0,0.0,4.0,1.0,phase_2,stop,350.0,300.0,4.0,,,,,,,,,orange,square
0.0,7.0,3.0,1.0,5.0,5.0,687.8239120005674,4.0,1.0,phase_2,go,350.0,350.0,1.0,,,,,,,,,green,cross
0.0,8.0,4.0,1.0,6.0,0.0,0.0,4.0,1.0,phase_2,stop,350.0,350.0,4.0,,,,,,,,,blue,circle
0.0,7.0,3.0,1.0,5.0,0.0,0.0,4.0,1.0,phase_2,stop,350.0,400.0,4.0,,,,,,,,,green,cross
0.0,2.0,2.0,0.0,6.0,6.0,763.7901930002045,4.0,1.0,phase_2,go,400.0,400.0,1.0,,,,,,,,,magenta,diamond
0.0,4.0,4.0,0.0,6.0,6.0,639.7327960003167,4.0,1.0,phase_2,go,400.0,400.0,1.0,,,,,,,,,cyan,triangle
0.0,8.0,4.0,1.0,5.0,5.0,539.8635000001377,5.0,1.0,phase_2,go,400.0,400.0,1.0,,,,,,,,,blue,circle
0.0,8.0,4.0,1.0,6.0,6.0,392.5228940006491,5.0,1.0,phase_2,stop,400.0,400.0,3.0,,,,,,,,,blue,circle
0.0,4.0,4.0,0.0,6.0,6.0,687.3353720002342,5.0,1.0,phase_2,go,400.0,350.0,1.0,,,,,,,,,cyan,triangle
0.0,7.0,3.0,1.0,5.0,0.0,0.0,5.0,1.0,phase_2,stop,400.0,350.0,4.0,,,,,,,,,green,cross
0.0,5.0,1.0,1.0,5.0,0.0,0.0,5.0,1.0,phase_2,stop,450.0,350.0,4.0,,,,,,,,,white,hexagon
0.0,1.0,1.0,0.0,6.0,6.0,737.0049580003979,5.0,1.0,phase_2,go,500.0,350.0,1.0,,,,,,,,,yellow,flipped triangle
0.0,5.0,1.0,1.0,6.0,0.0,0.0,5.0,1.0,phase_2,stop,500.0,350.0,4.0,,,,,,,,,white,hexagon
0.0,3.0,3.0,0.0,6.0,6.0,716.9413530000384,5.0,1.0,phase_2,go,500.0,400.0,1.0,,,,,,,,,gray,I
0.0,3.0,3.0,0.0,5.0,5.0,810.9138979998534,5.0,1.0,phase_2,go,500.0,400.0,1.0,,,,,,,,,gray,I
0.0,1.0,1.0,0.0,6.0,6.0,696.466858000349,5.0,1.0,phase_2,go,500.0,400.0,1.0,,,,,,,,,yellow,flipped triangle
0.0,6.0,2.0,1.0,5.0,5.0,633.7122360000649,5.0,1.0,phase_2,stop,500.0,400.0,3.0,,,,,,,,,orange,square
0.0,8.0,4.0,1.0,6.0,0.0,0.0,5.0,1.0,phase_2,stop,450.0,400.0,4.0,,,,,,,,,blue,circle
0.0,4.0,4.0,0.0,6.0,6.0,808.3258820006449,5.0,1.0,phase_2,go,450.0,450.0,1.0,,,,,,,,,cyan,triangle
0.0,8.0,4.0,1.0,5.0,0.0,0.0,5.0,1.0,phase_2,stop,450.0,450.0,4.0,,,,,,,,,blue,circle
0.0,8.0,4.0,1.0,5.0,5.0,697.6702029996886,5.0,1.0,phase_2,go,500.0,450.0,1.0,,,,,,,,,blue,circle
0.0,1.0,1.0,0.0,6.0,6.0,597.3639430003459,5.0,1.0,phase_2,go,500.0,450.0,1.0,,,,,,,,,yellow,flipped triangle
0.0,8.0,4.0,1.0,6.0,6.0,707.2043139996822,5.0,1.0,phase_2,go,500.0,450.0,1.0,,,,,,,,,blue,circle
0.0,2.0,2.0,0.0,5.0,5.0,548.9513580005223,5.0,1.0,phase_2,go,500.0,450.0,1.0,,,,,,,,,magenta,diamond
0.0,8.0,4.0,1.0,5.0,5.0,409.3080720003854,5.0,1.0,phase_2,stop,500.0,450.0,3.0,,,,,,,,,blue,circle
0.0,3.0,3.0,0.0,6.0,6.0,863.2379970003967,5.0,1.0,phase_2,go,450.0,450.0,1.0,,,,,,,,,gray,I
0.0,7.0,3.0,1.0,5.0,0.0,0.0,5.0,1.0,phase_2,stop,450.0,450.0,4.0,,,,,,,,,green,cross
0.0,5.0,1.0,1.0,5.0,0.0,0.0,5.0,1.0,phase_2,stop,500.0,450.0,4.0,,,,,,,,,white,hexagon
0.0,5.0,1.0,1.0,6.0,0.0,0.0,5.0,1.0,phase_2,stop,550.0,450.0,4.0,,,,,,,,,white,hexagon
0.0,1.0,1.0,0.0,6.0,6.0,668.8286120006524,5.0,1.0,phase_2,go,550.0,500.0,1.0,,,,,,,,,yellow,flipped triangle
0.0,2.0,2.0,0.0,6.0,6.0,770.4590939993068,5.0,1.0,phase_2,go,550.0,500.0,1.0,,,,,,,,,magenta,diamond
0.0,8.0,4.0,1.0,5.0,5.0,465.9448849997716,5.0,1.0,phase_2,go,550.0,500.0,1.0,,,,,,,,,blue,circle
0.0,1.0,1.0,0.0,6.0,6.0,706.1954050004715,5.0,1.0,phase_2,go,550.0,500.0,1.0,,,,,,,,,yellow,flipped triangle
0.0,8.0,4.0,1.0,5.0,5.0,438.0390799997258,5.0,1.0,phase_2,stop,550.0,500.0,3.0,,,,,,,,,blue,circle
0.0,6.0,2.0,1.0,6.0,6.0,714.2086769999878,5.0,1.0,phase_2,go,500.0,500.0,1.0,,,,,,,,,orange,square
0.0,5.0,1.0,1.0,6.0,6.0,719.0269339998849,5.0,1.0,phase_2,stop,500.0,500.0,3.0,,,,,,,,,white,hexagon
0.0,8.0,4.0,1.0,6.0,0.0,0.0,5.0,1.0,phase_2,stop,500.0,450.0,4.0,,,,,,,,,blue,circle
0.0,2.0,2.0,0.0,5.0,5.0,568.1332869999096,5.0,1.0,phase_2,go,500.0,500.0,1.0,,,,,,,,,magenta,diamond
0.0,7.0,3.0,1.0,6.0,6.0,912.2525500006304,5.0,1.0,phase_2,go,500.0,500.0,1.0,,,,,,,,,green,cross
0.0,1.0,1.0,0.0,5.0,5.0,726.6001959997084,5.0,1.0,phase_2,go,500.0,500.0,1.0,,,,,,,,,yellow,flipped triangle
0.0,6.0,2.0,1.0,6.0,6.0,724.2422760000409,5.0,1.0,phase_2,stop,500.0,500.0,3.0,,,,,,,,,orange,square
0.0,6.0,2.0,1.0,6.0,0.0,0.0,5.0,1.0,phase_2,stop,500.0,450.0,4.0,,,,,,,,,orange,square
0.0,2.0,2.0,0.0,6.0,6.0,352.394563999951,6.0,1.0,phase_2,go,500.0,500.0,1.0,,,,,,,,,magenta,diamond
0.0,3.0,3.0,0.0,6.0,6.0,353.7744639997981,6.0,1.0,phase_2,go,500.0,500.0,1.0,,,,,,,,,gray,I
0.0,4.0,4.0,0.0,5.0,5.0,334.995111000353,6.0,1.0,phase_2,go,500.0,500.0,1.0,,,,,,,,,cyan,triangle
0.0,8.0,4.0,1.0,5.0,5.0,352.5582629999917,6.0,1.0,phase_2,stop,500.0,500.0,3.0,,,,,,,,,blue,circle
0.0,1.0,1.0,0.0,5.0,5.0,354.2932529999234,6.0,1.0,phase_2,go,450.0,500.0,1.0,,,,,,,,,yellow,flipped triangle
0.0,6.0,2.0,1.0,5.0,5.0,345.0192379996224,6.0,1.0,phase_2,go,450.0,500.0,1.0,,,,,,,,,orange,square
0.0,4.0,4.0,0.0,6.0,6.0,326.8967260000863,6.0,1.0,phase_2,go,450.0,500.0,1.0,,,,,,,,,cyan,triangle
0.0,5.0,1.0,1.0,6.0,6.0,380.6741870002952,6.0,1.0,phase_2,stop,450.0,500.0,3.0,,,,,,,,,white,hexagon
0.0,4.0,4.0,0.0,5.0,5.0,354.9593779998758,6.0,1.0,phase_2,go,450.0,450.0,1.0,,,,,,,,,cyan,triangle
0.0,6.0,2.0,1.0,5.0,5.0,513.9233579993743,6.0,1.0,phase_2,go,450.0,450.0,1.0,,,,,,,,,orange,square
0.0,5.0,1.0,1.0,6.0,6.0,564.8097209996195,6.0,1.0,phase_2,stop,450.0,450.0,3.0,,,,,,,,,white,hexagon
0.0,5.0,1.0,1.0,5.0,5.0,401.0617330004606,6.0,1.0,phase_2,go,450.0,400.0,1.0,,,,,,,,,white,hexagon
0.0,2.0,2.0,0.0,5.0,5.0,643.4381799999755,6.0,1.0,phase_2,go,450.0,400.0,1.0,,,,,,,,,magenta,diamond
0.0,7.0,3.0,1.0,5.0,5.0,549.2377549999219,6.0,1.0,phase_2,go,450.0,400.0,1.0,,,,,,,,,green,cross
0.0,5.0,1.0,1.0,5.0,5.0,343.8061560000278,6.0,1.0,phase_2,stop,450.0,400.0,3.0,,,,,,,,,white,hexagon
0.0,6.0,2.0,1.0,5.0,0.0,0.0,6.0,1.0,phase_2,stop,400.0,400.0,4.0,,,,,,,,,orange,square
0.0,3.0,3.0,0.0,6.0,6.0,402.157325999724,6.0,1.0,phase_2,go,450.0,400.0,1.0,,,,,,,,,gray,I
0.0,7.0,3.0,1.0,6.0,0.0,0.0,6.0,1.0,phase_2,stop,450.0,400.0,4.0,,,,,,,,,green,cross
0.0,5.0,1.0,1.0,6.0,6.0,652.0153060000666,6.0,1.0,phase_2,stop,450.0,450.0,3.0,,,,,,,,,white,hexagon
0.0,1.0,1.0,0.0,5.0,5.0,437.5673029999234,6.0,1.0,phase_2,go,450.0,400.0,1.0,,,,,,,,,yellow,flipped triangle
0.0,4.0,4.0,0.0,6.0,6.0,801.3616469997942,6.0,1.0,phase_2,go,450.0,400.0,1.0,,,,,,,,,cyan,triangle
0.0,7.0,3.0,1.0,5.0,0.0,0.0,6.0,1.0,phase_2,stop,450.0,400.0,4.0,,,,,,,,,green,cross
0.0,8.0,4.0,1.0,6.0,0.0,0.0,6.0,1.0,phase_2,stop,500.0,400.0,4.0,,,,,,,,,blue,circle
0.0,7.0,3.0,1.0,6.0,6.0,951.2339480006632,6.0,1.0,phase_2,go,500.0,450.0,1.0,,,,,,,,,green,cross
0.0,4.0,4.0,0.0,5.0,5.0,622.7978309998434,6.0,1.0,phase_2,go,500.0,450.0,1.0,,,,,,,,,cyan,triangle
0.0,7.0,3.0,1.0,5.0,5.0,447.8044570005295,6.0,1.0,phase_2,go,500.0,450.0,1.0,,,,,,,,,green,cross
0.0,8.0,4.0,1.0,6.0,6.0,605.3076710004461,6.0,1.0,phase_2,go,500.0,450.0,1.0,,,,,,,,,blue,circle
0.0,6.0,2.0,1.0,6.0,6.0,429.1727100007847,6.0,1.0,phase_2,go,500.0,450.0,1.0,,,,,,,,,orange,square
0.0,3.0,3.0,0.0,6.0,6.0,475.1987970003029,6.0,1.0,phase_2,go,500.0,450.0,1.0,,,,,,,,,gray,I
0.0,7.0,3.0,1.0,6.0,6.0,373.0390120008451,6.0,1.0,phase_2,stop,500.0,450.0,3.0,,,,,,,,,green,cross
0.0,8.0,4.0,1.0,6.0,0.0,0.0,6.0,1.0,phase_2,stop,500.0,400.0,4.0,,,,,,,,,blue,circle
0.0,8.0,4.0,1.0,6.0,0.0,0.0,6.0,1.0,phase_2,stop,500.0,450.0,4.0,,,,,,,,,blue,circle
0.0,3.0,3.0,0.0,5.0,5.0,429.4941009993636,6.0,1.0,phase_2,go,500.0,500.0,1.0,,,,,,,,,gray,I
0.0,2.0,2.0,0.0,6.0,6.0,820.0819980002052,6.0,1.0,phase_2,go,500.0,500.0,1.0,,,,,,,,,magenta,diamond
0.0,4.0,4.0,0.0,5.0,5.0,454.7715859998789,6.0,1.0,phase_2,go,500.0,500.0,1.0,,,,,,,,,cyan,triangle
0.0,2.0,2.0,0.0,6.0,6.0,615.2983880001557,6.0,1.0,phase_2,go,500.0,500.0,1.0,,,,,,,,,magenta,diamond
0.0,8.0,4.0,1.0,6.0,6.0,242.9930349999267,7.0,1.0,phase_2,stop,500.0,500.0,3.0,,,,,,,,,blue,circle
0.0,7.0,3.0,1.0,5.0,5.0,381.0663739996016,7.0,1.0,phase_2,stop,500.0,450.0,3.0,,,,,,,,,green,cross
0.0,5.0,1.0,1.0,6.0,6.0,516.9610000002649,7.0,1.0,phase_2,stop,450.0,450.0,3.0,,,,,,,,,white,hexagon
0.0,3.0,3.0,0.0,5.0,5.0,706.5933350004343,7.0,1.0,phase_2,go,450.0,400.0,1.0,,,,,,,,,gray,I
0.0,5.0,1.0,1.0,5.0,5.0,391.9126729997515,7.0,1.0,phase_2,stop,450.0,400.0,3.0,,,,,,,,,white,hexagon
0.0,3.0,3.0,0.0,5.0,5.0,743.0925120006577,7.0,1.0,phase_2,go,400.0,400.0,1.0,,,,,,,,,gray,I
0.0,7.0,3.0,1.0,5.0,0.0,0.0,7.0,1.0,phase_2,stop,400.0,400.0,4.0,,,,,,,,,green,cross
0.0,2.0,2.0,0.0,6.0,6.0,659.3825039999501,7.0,1.0,phase_2,go,450.0,400.0,1.0,,,,,,,,,magenta,diamond
0.0,7.0,3.0,1.0,6.0,6.0,363.5526989992286,7.0,1.0,phase_2,go,450.0,400.0,1.0,,,,,,,,,green,cross
0.0,8.0,4.0,1.0,5.0,5.0,335.7295689993407,7.0,1.0,phase_2,stop,450.0,400.0,3.0,,,,,,,,,blue,circle
0.0,4.0,4.0,0.0,6.0,6.0,633.5510210001303,7.0,1.0,phase_2,go,400.0,400.0,1.0,,,,,,,,,cyan,triangle
0.0,6.0,2.0,1.0,5.0,5.0,488.9561139998477,7.0,1.0,phase_2,stop,400.0,400.0,3.0,,,,,,,,,orange,square
0.0,6.0,2.0,1.0,5.0,0.0,0.0,7.0,1.0,phase_2,stop,350.0,400.0,4.0,,,,,,,,,orange,square
0.0,6.0,2.0,1.0,6.0,0.0,0.0,7.0,1.0,phase_2,stop,400.0,400.0,4.0,,,,,,,,,orange,square
0.0,2.0,2.0,0.0,5.0,5.0,717.1172119997209,7.0,1.0,phase_2,go,400.0,450.0,1.0,,,,,,,,,magenta,diamond
0.0,4.0,4.0,0.0,6.0,6.0,569.8270640004921,7.0,1.0,phase_2,go,400.0,450.0,1.0,,,,,,,,,cyan,triangle
0.0,4.0,4.0,0.0,6.0,6.0,418.4778700000606,7.0,1.0,phase_2,go,400.0,450.0,1.0,,,,,,,,,cyan,triangle
0.0,8.0,4.0,1.0,5.0,5.0,444.3033640000067,7.0,1.0,phase_2,stop,400.0,450.0,3.0,,,,,,,,,blue,circle
0.0,5.0,1.0,1.0,5.0,0.0,0.0,7.0,1.0,phase_2,stop,350.0,450.0,4.0,,,,,,,,,white,hexagon
0.0,6.0,2.0,1.0,6.0,6.0,592.2005510001327,7.0,1.0,phase_2,stop,400.0,450.0,3.0,,,,,,,,,orange,square
0.0,4.0,4.0,0.0,5.0,5.0,613.7545649999083,7.0,1.0,phase_2,go,400.0,400.0,1.0,,,,,,,,,cyan,triangle
0.0,8.0,4.0,1.0,6.0,0.0,0.0,7.0,1.0,phase_2,stop,400.0,400.0,4.0,,,,,,,,,blue,circle
0.0,3.0,3.0,0.0,6.0,6.0,840.1419100000567,7.0,1.0,phase_2,go,400.0,450.0,1.0,,,,,,,,,gray,I
0.0,3.0,3.0,0.0,5.0,5.0,761.8718309995529,7.0,1.0,phase_2,go,400.0,450.0,1.0,,,,,,,,,gray,I
0.0,1.0,1.0,0.0,5.0,5.0,727.6257779994921,7.0,1.0,phase_2,go,400.0,450.0,1.0,,,,,,,,,yellow,flipped triangle
0.0,1.0,1.0,0.0,6.0,6.0,275.8172270005161,7.0,1.0,phase_2,go,400.0,450.0,1.0,,,,,,,,,yellow,flipped triangle
0.0,8.0,4.0,1.0,5.0,5.0,538.0860320001375,7.0,1.0,phase_2,stop,400.0,450.0,3.0,,,,,,,,,blue,circle
0.0,3.0,3.0,0.0,6.0,6.0,547.3878779994266,7.0,1.0,phase_2,go,350.0,450.0,1.0,,,,,,,,,gray,I
0.0,2.0,2.0,0.0,6.0,6.0,483.9216579994172,7.0,1.0,phase_2,go,350.0,450.0,1.0,,,,,,,,,magenta,diamond
0.0,7.0,3.0,1.0,6.0,6.0,301.6968680003629,7.0,1.0,phase_2,go,350.0,450.0,1.0,,,,,,,,,green,cross
0.0,6.0,2.0,1.0,6.0,6.0,391.6030860000319,7.0,1.0,phase_2,stop,350.0,450.0,3.0,,,,,,,,,orange,square
0.0,3.0,3.0,0.0,6.0,6.0,696.9786370000293,7.0,1.0,phase_2,go,350.0,400.0,1.0,,,,,,,,,gray,I
0.0,3.0,3.0,0.0,6.0,6.0,689.0237719999277,7.0,1.0,phase_2,go,350.0,400.0,1.0,,,,,,,,,gray,I
0.0,8.0,4.0,1.0,6.0,6.0,335.86277699942,7.0,1.0,phase_2,stop,350.0,400.0,3.0,,,,,,,,,blue,circle
0.0,8.0,4.0,1.0,6.0,0.0,0.0,7.0,1.0,phase_2,stop,350.0,350.0,4.0,,,,,,,,,blue,circle
0.0,8.0,4.0,1.0,6.0,6.0,733.7491979997139,7.0,1.0,phase_2,go,350.0,400.0,1.0,,,,,,,,,blue,circle
0.0,5.0,1.0,1.0,5.0,5.0,270.2734180002153,8.0,1.0,phase_2,stop,350.0,400.0,3.0,,,,,,,,,white,hexagon
0.0,1.0,1.0,0.0,6.0,6.0,382.6850079994983,8.0,1.0,phase_2,go,300.0,400.0,1.0,,,,,,,,,yellow,flipped triangle
0.0,7.0,3.0,1.0,6.0,6.0,380.5812169994169,8.0,1.0,phase_2,stop,300.0,400.0,3.0,,,,,,,,,green,cross
0.0,2.0,2.0,0.0,6.0,6.0,856.1572970002089,8.0,1.0,phase_2,go,300.0,350.0,1.0,,,,,,,,,magenta,diamond
0.0,1.0,1.0,0.0,5.0,5.0,567.1098830007395,8.0,1.0,phase_2,go,300.0,350.0,1.0,,,,,,,,,yellow,flipped triangle
0.0,6.0,2.0,1.0,5.0,5.0,366.9529660000989,8.0,1.0,phase_2,stop,300.0,350.0,3.0,,,,,,,,,orange,square
0.0,6.0,2.0,1.0,6.0,6.0,503.47123600022314,8.0,1.0,phase_2,go,250.0,350.0,1.0,,,,,,,,,orange,square
0.0,1.0,1.0,0.0,5.0,5.0,668.8793759994951,8.0,1.0,phase_2,go,250.0,350.0,1.0,,,,,,,,,yellow,flipped triangle
0.0,1.0,1.0,0.0,6.0,6.0,391.3993409996692,8.0,1.0,phase_2,go,250.0,350.0,1.0,,,,,,,,,yellow,flipped triangle
0.0,4.0,4.0,0.0,6.0,6.0,401.9093229999271,8.0,1.0,phase_2,go,250.0,350.0,1.0,,,,,,,,,cyan,triangle
0.0,5.0,1.0,1.0,5.0,5.0,372.359719999622,8.0,1.0,phase_2,stop,250.0,350.0,3.0,,,,,,,,,white,hexagon
0.0,7.0,3.0,1.0,6.0,6.0,287.738007000371,8.0,1.0,phase_2,stop,200.0,350.0,3.0,,,,,,,,,green,cross
0.0,1.0,1.0,0.0,6.0,6.0,372.9980729995077,8.0,1.0,phase_2,go,200.0,300.0,1.0,,,,,,,,,yellow,flipped triangle
0.0,5.0,1.0,1.0,5.0,5.0,400.1966699997865,8.0,1.0,phase_2,go,200.0,300.0,1.0,,,,,,,,,white,hexagon
0.0,6.0,2.0,1.0,5.0,5.0,661.420229000214,8.0,1.0,phase_2,go,200.0,300.0,1.0,,,,,,,,,orange,square
0.0,6.0,2.0,1.0,5.0,0.0,0.0,8.0,1.0,phase_2,stop,200.0,300.0,4.0,,,,,,,,,orange,square
0.0,1.0,1.0,0.0,6.0,6.0,362.3818269998082,8.0,1.0,phase_2,go,250.0,300.0,1.0,,,,,,,,,yellow,flipped triangle
0.0,7.0,3.0,1.0,5.0,0.0,0.0,8.0,1.0,phase_2,stop,250.0,300.0,4.0,,,,,,,,,green,cross
0.0,4.0,4.0,0.0,6.0,6.0,641.3861510000061,8.0,1.0,phase_2,go,300.0,300.0,1.0,,,,,,,,,cyan,triangle
0.0,5.0,1.0,1.0,5.0,0.0,0.0,8.0,1.0,phase_2,stop,300.0,300.0,4.0,,,,,,,,,white,hexagon
0.0,3.0,3.0,0.0,5.0,5.0,691.120432000389,8.0,1.0,phase_2,go,350.0,300.0,1.0,,,,,,,,,gray,I
0.0,3.0,3.0,0.0,6.0,6.0,381.100002000494,8.0,1.0,phase_2,go,350.0,300.0,1.0,,,,,,,,,gray,I
0.0,6.0,2.0,1.0,5.0,0.0,0.0,8.0,1.0,phase_2,stop,350.0,300.0,4.0,,,,,,,,,orange,square
0.0,5.0,1.0,1.0,5.0,5.0,647.9399950003426,8.0,1.0,phase_2,go,400.0,300.0,1.0,,,,,,,,,white,hexagon
0.0,1.0,1.0,0.0,5.0,5.0,651.1835290002637,8.0,1.0,phase_2,go,400.0,300.0,1.0,,,,,,,,,yellow,flipped triangle
0.0,7.0,3.0,1.0,6.0,6.0,455.2342719998705,8.0,1.0,phase_2,stop,400.0,300.0,3.0,,,,,,,,,green,cross
0.0,1.0,1.0,0.0,5.0,5.0,438.6208830001123,8.0,1.0,phase_2,go,400.0,250.0,1.0,,,,,,,,,yellow,flipped triangle
0.0,6.0,2.0,1.0,5.0,0.0,0.0,8.0,1.0,phase_2,stop,400.0,250.0,4.0,,,,,,,,,orange,square
0.0,8.0,4.0,1.0,5.0,0.0,0.0,8.0,1.0,phase_2,stop,450.0,250.0,4.0,,,,,,,,,blue,circle
0.0,7.0,3.0,1.0,6.0,0.0,0.0,8.0,1.0,phase_2,stop,500.0,250.0,4.0,,,,,,,,,green,cross
0.0,4.0,4.0,0.0,5.0,5.0,511.6587120000986,8.0,1.0,phase_2,go,500.0,300.0,1.0,,,,,,,,,cyan,triangle
0.0,1.0,1.0,0.0,5.0,5.0,615.1542640000116,8.0,1.0,phase_2,go,500.0,300.0,1.0,,,,,,,,,yellow,flipped triangle
0.0,7.0,3.0,1.0,6.0,6.0,502.2479420003947,8.0,1.0,phase_2,stop,500.0,300.0,3.0,,,,,,,,,green,cross
0.0,4.0,4.0,0.0,6.0,6.0,671.3654059994951,8.0,1.0,phase_2,go,500.0,250.0,1.0,,,,,,,,,cyan,triangle
0.0,7.0,3.0,1.0,6.0,0.0,0.0,8.0,1.0,phase_2,stop,500.0,250.0,4.0,,,,,,,,,green,cross
0.0,1.0,1.0,0.0,6.0,6.0,614.0967510000337,8.0,1.0,phase_2,go,500.0,300.0,1.0,,,,,,,,,yellow,flipped triangle
0.0,8.0,4.0,1.0,7.0,5.0,4467.372946000069,1.0,1.0,phase_3,,,,,865.0,5.0,519.0,692.0,173.0,1038.0,865.0,346.0,blue,circle
0.0,5.0,1.0,1.0,7.0,4.0,2097.9992410002524,1.0,1.0,phase_3,,,,,346.0,2.0,519.0,865.0,173.0,346.0,1038.0,692.0,white,hexagon
0.0,7.0,3.0,1.0,7.0,1.0,1481.0324039999614,1.0,1.0,phase_3,,,,,308.0,2.0,308.0,462.0,770.0,616.0,924.0,154.0,green,cross
0.0,8.0,4.0,1.0,7.0,5.0,3282.764780999969,1.0,1.0,phase_3,,,,,865.0,5.0,173.0,519.0,346.0,692.0,865.0,1038.0,blue,circle
0.0,1.0,1.0,0.0,7.0,6.0,1650.1142619999882,1.0,1.0,phase_3,,,,,464.0,4.0,348.0,580.0,232.0,116.0,696.0,464.0,yellow,flipped triangle
0.0,2.0,2.0,0.0,7.0,5.0,4730.681815000025,1.0,1.0,phase_3,,,,,768.0,4.0,1152.0,960.0,192.0,384.0,768.0,576.0,magenta,diamond
0.0,5.0,1.0,1.0,7.0,6.0,880.3953659999024,1.0,1.0,phase_3,,,,,675.0,5.0,540.0,810.0,135.0,270.0,405.0,675.0,white,hexagon
0.0,2.0,2.0,0.0,7.0,1.0,1861.0710579996519,1.0,1.0,phase_3,,,,,540.0,4.0,540.0,675.0,405.0,810.0,135.0,270.0,magenta,diamond
0.0,7.0,3.0,1.0,7.0,1.0,719.5452050000313,1.0,1.0,phase_3,,,,,348.0,3.0,348.0,232.0,116.0,696.0,580.0,464.0,green,cross
0.0,8.0,4.0,1.0,7.0,2.0,865.2518309991137,1.0,1.0,phase_3,,,,,768.0,4.0,576.0,768.0,1152.0,384.0,960.0,192.0,blue,circle
0.0,1.0,1.0,0.0,7.0,5.0,2735.9529440000188,1.0,1.0,phase_3,,,,,692.0,4.0,1038.0,519.0,346.0,173.0,692.0,865.0,yellow,flipped triangle
0.0,7.0,3.0,1.0,7.0,4.0,764.6965449994241,1.0,1.0,phase_3,,,,,405.0,3.0,675.0,540.0,135.0,405.0,270.0,810.0,green,cross
0.0,6.0,2.0,1.0,7.0,3.0,1729.870602000119,1.0,1.0,phase_3,,,,,405.0,3.0,270.0,810.0,405.0,675.0,540.0,135.0,orange,square
0.0,7.0,3.0,1.0,7.0,2.0,2567.4809259999165,1.0,1.0,phase_3,,,,,810.0,6.0,540.0,810.0,675.0,135.0,270.0,405.0,green,cross
0.0,4.0,4.0,0.0,7.0,1.0,3181.142378999539,1.0,1.0,phase_3,,,,,924.0,6.0,924.0,308.0,154.0,616.0,462.0,770.0,cyan,triangle
0.0,3.0,3.0,0.0,7.0,2.0,2758.6826510005267,1.0,1.0,phase_3,,,,,192.0,1.0,576.0,192.0,384.0,768.0,1152.0,960.0,gray,I
0.0,1.0,1.0,0.0,7.0,4.0,1842.889016999834,1.0,1.0,phase_3,,,,,192.0,1.0,960.0,576.0,384.0,192.0,768.0,1152.0,yellow,flipped triangle
0.0,6.0,2.0,1.0,7.0,6.0,3886.566784000024,1.0,1.0,phase_3,,,,,770.0,5.0,924.0,616.0,154.0,462.0,308.0,770.0,orange,square
0.0,1.0,1.0,0.0,7.0,4.0,1972.7645060002037,1.0,1.0,phase_3,,,,,135.0,1.0,540.0,810.0,675.0,135.0,405.0,270.0,yellow,flipped triangle
0.0,5.0,1.0,1.0,7.0,2.0,4981.817412000055,1.0,1.0,phase_3,,,,,308.0,2.0,924.0,308.0,616.0,154.0,462.0,770.0,white,hexagon
0.0,5.0,1.0,1.0,7.0,4.0,1777.1081350001623,2.0,1.0,phase_3,,,,,696.0,6.0,464.0,580.0,348.0,696.0,116.0,232.0,white,hexagon
0.0,8.0,4.0,1.0,7.0,5.0,763.628071000312,2.0,1.0,phase_3,,,,,540.0,4.0,405.0,135.0,810.0,675.0,540.0,270.0,blue,circle
0.0,6.0,2.0,1.0,7.0,1.0,2663.7694210003247,2.0,1.0,phase_3,,,,,770.0,5.0,770.0,924.0,616.0,462.0,308.0,154.0,orange,square
0.0,6.0,2.0,1.0,7.0,5.0,957.7980949998164,2.0,1.0,phase_3,,,,,1038.0,6.0,865.0,692.0,519.0,173.0,1038.0,346.0,orange,square
0.0,1.0,1.0,0.0,7.0,2.0,2989.7969869998637,2.0,1.0,phase_3,,,,,270.0,2.0,810.0,270.0,675.0,405.0,135.0,540.0,yellow,flipped triangle
0.0,6.0,2.0,1.0,7.0,5.0,1585.873551000077,2.0,1.0,phase_3,,,,,348.0,3.0,580.0,116.0,232.0,464.0,348.0,696.0,orange,square
0.0,6.0,2.0,1.0,7.0,5.0,794.2410149998977,2.0,1.0,phase_3,,,,,464.0,4.0,696.0,232.0,348.0,116.0,464.0,580.0,orange,square
0.0,3.0,3.0,0.0,7.0,1.0,1370.799362000071,2.0,1.0,phase_3,,,,,270.0,2.0,270.0,405.0,810.0,540.0,675.0,135.0,gray,I
0.0,8.0,4.0,1.0,7.0,5.0,2956.300032999934,2.0,1.0,phase_3,,,,,768.0,4.0,576.0,384.0,1152.0,960.0,768.0,192.0,blue,circle
0.0,5.0,1.0,1.0,7.0,1.0,1290.5239020001318,2.0,1.0,phase_3,,,,,348.0,3.0,348.0,232.0,580.0,464.0,696.0,116.0,white,hexagon
0.0,7.0,3.0,1.0,7.0,2.0,3174.4932149995293,2.0,1.0,phase_3,,,,,173.0,1.0,865.0,173.0,519.0,692.0,1038.0,346.0,green,cross
0.0,4.0,4.0,0.0,7.0,4.0,1406.8386299995836,2.0,1.0,phase_3,,,,,1038.0,6.0,519.0,346.0,692.0,1038.0,173.0,865.0,cyan,triangle
0.0,2.0,2.0,0.0,7.0,6.0,1465.1235020000968,2.0,1.0,phase_3,,,,,865.0,5.0,346.0,519.0,692.0,1038.0,173.0,865.0,magenta,diamond
0.0,6.0,2.0,1.0,7.0,2.0,1573.9903940002478,2.0,1.0,phase_3,,,,,384.0,2.0,960.0,384.0,192.0,576.0,1152.0,768.0,orange,square
0.0,4.0,4.0,0.0,7.0,2.0,1638.7107820000892,2.0,1.0,phase_3,,,,,810.0,6.0,675.0,810.0,135.0,540.0,270.0,405.0,cyan,triangle
0.0,5.0,1.0,1.0,7.0,5.0,2270.558811999763,2.0,1.0,phase_3,,,,,384.0,2.0,1152.0,576.0,768.0,960.0,384.0,192.0,white,hexagon
0.0,4.0,4.0,0.0,7.0,2.0,3399.094640999465,2.0,1.0,phase_3,,,,,580.0,5.0,464.0,580.0,348.0,232.0,116.0,696.0,cyan,triangle
0.0,5.0,1.0,1.0,7.0,6.0,2106.141891000334,2.0,1.0,phase_3,,,,,960.0,5.0,384.0,576.0,768.0,192.0,1152.0,960.0,white,hexagon
0.0,2.0,2.0,0.0,7.0,1.0,1283.161887999995,2.0,1.0,phase_3,,,,,540.0,4.0,540.0,135.0,675.0,270.0,810.0,405.0,magenta,diamond
0.0,1.0,1.0,0.0,7.0,1.0,2352.73048199997,2.0,1.0,phase_3,,,,,192.0,1.0,192.0,768.0,576.0,1152.0,960.0,384.0,yellow,flipped triangle
0.0,3.0,3.0,0.0,7.0,6.0,617.2392970001965,3.0,1.0,phase_3,,,,,616.0,4.0,770.0,154.0,462.0,308.0,924.0,616.0,gray,I
0.0,4.0,4.0,0.0,7.0,1.0,470.0185940000665,3.0,1.0,phase_3,,,,,675.0,5.0,675.0,270.0,810.0,540.0,135.0,405.0,cyan,triangle
0.0,4.0,4.0,0.0,7.0,5.0,414.0411289999974,3.0,1.0,phase_3,,,,,768.0,4.0,576.0,384.0,1152.0,192.0,768.0,960.0,cyan,triangle
0.0,8.0,4.0,1.0,7.0,2.0,405.108392999864,3.0,1.0,phase_3,,,,,308.0,2.0,924.0,308.0,616.0,770.0,154.0,462.0,blue,circle
0.0,3.0,3.0,0.0,7.0,4.0,341.4262960004635,3.0,1.0,phase_3,,,,,154.0,1.0,308.0,616.0,462.0,154.0,924.0,770.0,gray,I
0.0,7.0,3.0,1.0,7.0,3.0,369.4009410000944,3.0,1.0,phase_3,,,,,960.0,5.0,1152.0,576.0,960.0,384.0,768.0,192.0,green,cross
0.0,4.0,4.0,0.0,7.0,5.0,1325.0197820007088,3.0,1.0,phase_3,,,,,770.0,5.0,462.0,616.0,924.0,154.0,770.0,308.0,cyan,triangle
0.0,6.0,2.0,1.0,7.0,2.0,608.0892680001853,3.0,1.0,phase_3,,,,,192.0,1.0,384.0,192.0,1152.0,768.0,960.0,576.0,orange,square
0.0,4.0,4.0,0.0,7.0,6.0,377.6071190004586,3.0,1.0,phase_3,,,,,768.0,4.0,192.0,576.0,1152.0,960.0,384.0,768.0,cyan,triangle
0.0,1.0,1.0,0.0,7.0,1.0,350.1374150000629,3.0,1.0,phase_3,,,,,580.0,5.0,580.0,696.0,232.0,116.0,464.0,348.0,yellow,flipped triangle
0.0,4.0,4.0,0.0,7.0,3.0,1278.3057920005376,3.0,1.0,phase_3,,,,,865.0,5.0,346.0,173.0,865.0,692.0,519.0,1038.0,cyan,triangle
0.0,5.0,1.0,1.0,7.0,3.0,958.860138000091,3.0,1.0,phase_3,,,,,154.0,1.0,462.0,616.0,154.0,770.0,924.0,308.0,white,hexagon
0.0,3.0,3.0,0.0,7.0,4.0,681.5965919995506,3.0,1.0,phase_3,,,,,464.0,4.0,232.0,580.0,348.0,464.0,116.0,696.0,gray,I
0.0,7.0,3.0,1.0,7.0,4.0,672.7245060001223,3.0,1.0,phase_3,,,,,519.0,3.0,692.0,865.0,173.0,519.0,1038.0,346.0,green,cross
0.0,2.0,2.0,0.0,7.0,6.0,434.6072180005649,3.0,1.0,phase_3,,,,,580.0,5.0,232.0,116.0,348.0,464.0,696.0,580.0,magenta,diamond
0.0,8.0,4.0,1.0,7.0,1.0,277.3564780000015,3.0,1.0,phase_3,,,,,616.0,4.0,616.0,770.0,154.0,462.0,308.0,924.0,blue,circle
0.0,2.0,2.0,0.0,7.0,5.0,757.0652149997841,3.0,1.0,phase_3,,,,,154.0,1.0,924.0,770.0,308.0,462.0,154.0,616.0,magenta,diamond
0.0,1.0,1.0,0.0,7.0,2.0,517.4796809997133,3.0,1.0,phase_3,,,,,924.0,6.0,770.0,924.0,308.0,616.0,154.0,462.0,yellow,flipped triangle
0.0,7.0,3.0,1.0,7.0,4.0,3135.367786999268,3.0,1.0,phase_3,,,,,464.0,4.0,580.0,116.0,348.0,464.0,232.0,696.0,green,cross
0.0,4.0,4.0,0.0,7.0,3.0,1345.294599999761,3.0,1.0,phase_3,,,,,696.0,6.0,580.0,232.0,696.0,348.0,116.0,464.0,cyan,triangle
0.0,8.0,4.0,1.0,7.0,5.0,1071.7977410004096,4.0,1.0,phase_3,,,,,232.0,2.0,580.0,696.0,116.0,464.0,232.0,348.0,blue,circle
0.0,2.0,2.0,0.0,7.0,5.0,739.6309330006261,4.0,1.0,phase_3,,,,,192.0,1.0,384.0,576.0,960.0,1152.0,192.0,768.0,magenta,diamond
0.0,1.0,1.0,0.0,7.0,4.0,989.7166490000018,4.0,1.0,phase_3,,,,,173.0,1.0,1038.0,346.0,865.0,173.0,692.0,519.0,yellow,flipped triangle
0.0,3.0,3.0,0.0,7.0,5.0,719.7088379998604,4.0,1.0,phase_3,,,,,116.0,1.0,580.0,348.0,696.0,464.0,116.0,232.0,gray,I
0.0,2.0,2.0,0.0,7.0,2.0,591.1017079997691,4.0,1.0,phase_3,,,,,865.0,5.0,346.0,865.0,692.0,519.0,1038.0,173.0,magenta,diamond
0.0,2.0,2.0,0.0,7.0,5.0,1053.8600749996476,4.0,1.0,phase_3,,,,,696.0,6.0,348.0,580.0,464.0,116.0,696.0,232.0,magenta,diamond
0.0,3.0,3.0,0.0,7.0,4.0,795.2601369997865,4.0,1.0,phase_3,,,,,270.0,2.0,540.0,135.0,810.0,270.0,405.0,675.0,gray,I
0.0,5.0,1.0,1.0,7.0,1.0,1222.9601059998458,4.0,1.0,phase_3,,,,,675.0,5.0,675.0,405.0,540.0,810.0,270.0,135.0,white,hexagon
0.0,3.0,3.0,0.0,7.0,6.0,1854.2654899993067,4.0,1.0,phase_3,,,,,173.0,1.0,519.0,692.0,1038.0,346.0,865.0,173.0,gray,I
0.0,3.0,3.0,0.0,7.0,5.0,849.8175899994749,4.0,1.0,phase_3,,,,,173.0,1.0,1038.0,865.0,519.0,692.0,173.0,346.0,gray,I
0.0,8.0,4.0,1.0,7.0,5.0,1107.6472229997307,4.0,1.0,phase_3,,,,,135.0,1.0,405.0,270.0,540.0,675.0,135.0,810.0,blue,circle
0.0,3.0,3.0,0.0,7.0,2.0,1649.611316000119,4.0,1.0,phase_3,,,,,384.0,2.0,960.0,384.0,576.0,1152.0,192.0,768.0,gray,I
0.0,8.0,4.0,1.0,7.0,6.0,1466.62835799998,4.0,1.0,phase_3,,,,,232.0,2.0,696.0,580.0,348.0,116.0,464.0,232.0,blue,circle
0.0,6.0,2.0,1.0,7.0,4.0,1118.9174799992545,4.0,1.0,phase_3,,,,,270.0,2.0,540.0,810.0,405.0,270.0,675.0,135.0,orange,square
0.0,7.0,3.0,1.0,7.0,2.0,1247.5097889991955,4.0,1.0,phase_3,,,,,192.0,1.0,1152.0,192.0,960.0,384.0,768.0,576.0,green,cross
0.0,6.0,2.0,1.0,7.0,5.0,1296.558045999518,4.0,1.0,phase_3,,,,,173.0,1.0,1038.0,692.0,346.0,865.0,173.0,519.0,orange,square
0.0,5.0,1.0,1.0,7.0,3.0,1193.3300499995312,4.0,1.0,phase_3,,,,,865.0,5.0,1038.0,692.0,865.0,346.0,519.0,173.0,white,hexagon
0.0,2.0,2.0,0.0,7.0,6.0,1467.0760139997585,4.0,1.0,phase_3,,,,,616.0,4.0,462.0,924.0,154.0,770.0,308.0,616.0,magenta,diamond
0.0,1.0,1.0,0.0,7.0,1.0,489.7743980000086,4.0,1.0,phase_3,,,,,770.0,5.0,770.0,462.0,616.0,924.0,308.0,154.0,yellow,flipped triangle
0.0,7.0,3.0,1.0,7.0,6.0,646.1112639999556,4.0,1.0,phase_3,,,,,616.0,4.0,462.0,308.0,924.0,770.0,154.0,616.0,green,cross
