raw_reward_magnitude,stim_reward,stepwise_reward_magnitude,paired_with_stopping,quadrant,response,reaction_time,block,num_trial_presentations,which_part,stop_signal_trial_type,left_SSD,right_SSD,accuracy,chosen_bidding_amount,chosen_bidding_level,possible_bid_1,possible_bid_2,possible_bid_3,possible_bid_4,possible_bid_5,possible_bid_6,color_text,shape_text
1314.0,4.0,4.0,0.0,1.0,1.0,492.5724559998343,1.0,1.0,part_1,,,,,,,,,,,,,blue,triangle
1314.0,8.0,4.0,1.0,3.0,3.0,302.6251040000716,1.0,1.0,part_1,,,,,,,,,,,,,orange,diamond
0.0,7.0,0.0,1.0,3.0,3.0,358.7800529999185,1.0,2.0,part_1,,,,,,,,,,,,,magenta,square
1279.0,8.0,4.0,1.0,4.0,4.0,292.7974650001488,1.0,1.0,part_1,,,,,,,,,,,,,orange,diamond
0.0,6.0,0.0,1.0,3.0,3.0,330.8089160000236,1.0,1.0,part_1,,,,,,,,,,,,,green,flipped triangle
0.0,6.0,0.0,1.0,4.0,4.0,357.6260229997388,1.0,1.0,part_1,,,,,,,,,,,,,green,flipped triangle
670.0,7.0,3.0,1.0,1.0,1.0,359.5117380000374,1.0,1.0,part_1,,,,,,,,,,,,,magenta,square
1309.0,8.0,4.0,1.0,3.0,3.0,302.2085220000008,1.0,1.0,part_1,,,,,,,,,,,,,orange,diamond
0.0,3.0,0.0,0.0,1.0,1.0,443.683749000229,1.0,1.0,part_1,,,,,,,,,,,,,yellow,circle
157.0,1.0,1.0,0.0,1.0,1.0,473.5346869997556,1.0,1.0,part_1,,,,,,,,,,,,,gray,I
187.0,1.0,1.0,0.0,1.0,1.0,378.9518409998891,1.0,1.0,part_1,,,,,,,,,,,,,gray,I
305.0,6.0,2.0,1.0,2.0,2.0,323.4784369997214,1.0,1.0,part_1,,,,,,,,,,,,,green,flipped triangle
1286.0,4.0,4.0,0.0,2.0,2.0,322.8485270001329,1.0,1.0,part_1,,,,,,,,,,,,,blue,triangle
321.0,6.0,2.0,1.0,2.0,2.0,312.3526429999401,1.0,1.0,part_1,,,,,,,,,,,,,green,flipped triangle
1313.0,8.0,4.0,1.0,3.0,3.0,274.4390800003202,1.0,1.0,part_1,,,,,,,,,,,,,orange,diamond
303.0,2.0,2.0,0.0,4.0,4.0,352.0313750000241,1.0,1.0,part_1,,,,,,,,,,,,,cyan,cross
0.0,3.0,0.0,0.0,3.0,3.0,342.315786999734,1.0,1.0,part_1,,,,,,,,,,,,,yellow,circle
310.0,2.0,2.0,0.0,3.0,3.0,285.0322399999641,1.0,1.0,part_1,,,,,,,,,,,,,cyan,cross
0.0,3.0,0.0,0.0,3.0,3.0,274.3335130003288,1.0,1.0,part_1,,,,,,,,,,,,,yellow,circle
321.0,6.0,2.0,1.0,4.0,4.0,311.7035270001906,1.0,1.0,part_1,,,,,,,,,,,,,green,flipped triangle
301.0,6.0,2.0,1.0,3.0,3.0,313.4420350002074,1.0,1.0,part_1,,,,,,,,,,,,,green,flipped triangle
1277.0,4.0,4.0,0.0,4.0,4.0,255.90919900014342,1.0,1.0,part_1,,,,,,,,,,,,,blue,triangle
631.0,7.0,3.0,1.0,3.0,3.0,247.4198610002531,1.0,1.0,part_1,,,,,,,,,,,,,magenta,square
642.0,7.0,3.0,1.0,4.0,4.0,426.3907189997553,1.0,1.0,part_1,,,,,,,,,,,,,magenta,square
1323.0,4.0,4.0,0.0,4.0,4.0,266.439605999949,1.0,1.0,part_1,,,,,,,,,,,,,blue,triangle
342.0,6.0,2.0,1.0,1.0,1.0,322.5319109997144,1.0,1.0,part_1,,,,,,,,,,,,,green,flipped triangle
177.0,5.0,1.0,1.0,2.0,2.0,312.9239820000293,1.0,1.0,part_1,,,,,,,,,,,,,white,hexagon
348.0,6.0,2.0,1.0,3.0,3.0,311.7441449999205,1.0,1.0,part_1,,,,,,,,,,,,,green,flipped triangle
1284.0,8.0,4.0,1.0,1.0,1.0,416.3944819997596,1.0,1.0,part_1,,,,,,,,,,,,,orange,diamond
177.0,1.0,1.0,0.0,4.0,4.0,351.2315640000452,1.0,1.0,part_1,,,,,,,,,,,,,gray,I
0.0,4.0,0.0,0.0,4.0,4.0,341.7213740003717,1.0,1.0,part_1,,,,,,,,,,,,,blue,triangle
314.0,6.0,2.0,1.0,4.0,4.0,293.7328969996997,1.0,1.0,part_1,,,,,,,,,,,,,green,flipped triangle
636.0,7.0,3.0,1.0,4.0,4.0,236.2692659999083,1.0,1.0,part_1,,,,,,,,,,,,,magenta,square
0.0,2.0,0.0,0.0,3.0,3.0,294.0581190000557,1.0,1.0,part_1,,,,,,,,,,,,,cyan,cross
648.0,7.0,3.0,1.0,4.0,4.0,285.2443649999259,1.0,1.0,part_1,,,,,,,,,,,,,magenta,square
329.0,2.0,2.0,0.0,4.0,4.0,285.9048810000786,1.0,1.0,part_1,,,,,,,,,,,,,cyan,cross
310.0,2.0,2.0,0.0,1.0,1.0,370.1626860001852,1.0,1.0,part_1,,,,,,,,,,,,,cyan,cross
0.0,8.0,0.0,1.0,3.0,3.0,275.0120430000606,1.0,1.0,part_1,,,,,,,,,,,,,orange,diamond
634.0,7.0,3.0,1.0,3.0,3.0,321.5649650001069,1.0,1.0,part_1,,,,,,,,,,,,,magenta,square
337.0,2.0,2.0,0.0,3.0,3.0,302.5112779996561,1.0,1.0,part_1,,,,,,,,,,,,,cyan,cross
157.0,5.0,1.0,1.0,2.0,2.0,341.1456629996792,1.0,2.0,part_1,,,,,,,,,,,,,white,hexagon
674.0,7.0,3.0,1.0,3.0,3.0,275.0936689999435,1.0,1.0,part_1,,,,,,,,,,,,,magenta,square
309.0,2.0,2.0,0.0,4.0,4.0,331.6501719996267,1.0,1.0,part_1,,,,,,,,,,,,,cyan,cross
162.0,1.0,1.0,0.0,2.0,2.0,340.5904780001947,1.0,1.0,part_1,,,,,,,,,,,,,gray,I
187.0,5.0,1.0,1.0,1.0,1.0,387.9766810000546,1.0,1.0,part_1,,,,,,,,,,,,,white,hexagon
337.0,6.0,2.0,1.0,3.0,3.0,339.83258499984,1.0,1.0,part_1,,,,,,,,,,,,,green,flipped triangle
167.0,1.0,1.0,0.0,1.0,1.0,397.0655170001009,1.0,1.0,part_1,,,,,,,,,,,,,gray,I
1294.0,4.0,4.0,0.0,2.0,2.0,331.0255950000282,1.0,1.0,part_1,,,,,,,,,,,,,blue,triangle
314.0,2.0,2.0,0.0,3.0,3.0,311.5772620003554,1.0,1.0,part_1,,,,,,,,,,,,,cyan,cross
343.0,6.0,2.0,1.0,2.0,2.0,332.2528799999418,1.0,1.0,part_1,,,,,,,,,,,,,green,flipped triangle
154.0,1.0,1.0,0.0,3.0,3.0,284.276274000149,1.0,1.0,part_1,,,,,,,,,,,,,gray,I
154.0,5.0,1.0,1.0,1.0,1.0,396.3830060001783,1.0,1.0,part_1,,,,,,,,,,,,,white,hexagon
317.0,6.0,2.0,1.0,1.0,1.0,348.8603429996146,1.0,1.0,part_1,,,,,,,,,,,,,green,flipped triangle
157.0,1.0,1.0,0.0,3.0,3.0,286.219476000042,1.0,1.0,part_1,,,,,,,,,,,,,gray,I
0.0,3.0,0.0,0.0,1.0,1.0,254.5488240002669,1.0,1.0,part_1,,,,,,,,,,,,,yellow,circle
148.0,5.0,1.0,1.0,4.0,4.0,282.8148690000489,1.0,1.0,part_1,,,,,,,,,,,,,white,hexagon
1294.0,8.0,4.0,1.0,4.0,4.0,358.7177439999323,1.0,1.0,part_1,,,,,,,,,,,,,orange,diamond
345.0,6.0,2.0,1.0,4.0,4.0,274.091903000226,1.0,1.0,part_1,,,,,,,,,,,,,green,flipped triangle
1305.0,4.0,4.0,0.0,2.0,2.0,350.00071200011,1.0,1.0,part_1,,,,,,,,,,,,,blue,triangle
628.0,7.0,3.0,1.0,2.0,2.0,368.8733110002431,1.0,1.0,part_1,,,,,,,,,,,,,magenta,square
651.0,7.0,3.0,1.0,1.0,1.0,369.1870130001007,1.0,1.0,part_1,,,,,,,,,,,,,magenta,square
138.0,5.0,1.0,1.0,4.0,4.0,274.7951359997387,1.0,1.0,part_1,,,,,,,,,,,,,white,hexagon
0.0,4.0,0.0,0.0,3.0,3.0,283.9599949998046,1.0,1.0,part_1,,,,,,,,,,,,,blue,triangle
336.0,2.0,2.0,0.0,3.0,3.0,351.3220110003203,1.0,1.0,part_1,,,,,,,,,,,,,cyan,cross
0.0,8.0,0.0,1.0,2.0,2.0,359.8636229999101,1.0,1.0,part_1,,,,,,,,,,,,,orange,diamond
649.0,7.0,3.0,1.0,3.0,3.0,275.1686860001427,1.0,1.0,part_1,,,,,,,,,,,,,magenta,square
0.0,5.0,0.0,1.0,1.0,1.0,368.0222789998879,1.0,1.0,part_1,,,,,,,,,,,,,white,hexagon
0.0,5.0,0.0,1.0,4.0,4.0,274.3551480002679,1.0,1.0,part_1,,,,,,,,,,,,,white,hexagon
636.0,3.0,3.0,0.0,1.0,1.0,349.4674439998562,1.0,1.0,part_1,,,,,,,,,,,,,yellow,circle
641.0,7.0,3.0,1.0,2.0,2.0,321.6276360003576,1.0,1.0,part_1,,,,,,,,,,,,,magenta,square
146.0,5.0,1.0,1.0,3.0,3.0,301.9341039998835,1.0,1.0,part_1,,,,,,,,,,,,,white,hexagon
1321.0,4.0,4.0,0.0,3.0,3.0,322.1141859999079,1.0,1.0,part_1,,,,,,,,,,,,,blue,triangle
0.0,8.0,0.0,1.0,4.0,4.0,284.3802390002565,1.0,1.0,part_1,,,,,,,,,,,,,orange,diamond
0.0,6.0,0.0,1.0,1.0,1.0,274.5677869997962,1.0,1.0,part_1,,,,,,,,,,,,,green,flipped triangle
1295.0,4.0,4.0,0.0,4.0,4.0,284.4360389999565,1.0,1.0,part_1,,,,,,,,,,,,,blue,triangle
0.0,5.0,0.0,1.0,4.0,4.0,368.9801509999597,1.0,1.0,part_1,,,,,,,,,,,,,white,hexagon
0.0,8.0,0.0,1.0,2.0,2.0,302.003268000135,1.0,1.0,part_1,,,,,,,,,,,,,orange,diamond
336.0,6.0,2.0,1.0,4.0,4.0,274.1386490001787,1.0,1.0,part_1,,,,,,,,,,,,,green,flipped triangle
1321.0,4.0,4.0,0.0,2.0,2.0,358.4268960003101,1.0,1.0,part_1,,,,,,,,,,,,,blue,triangle
310.0,6.0,2.0,1.0,4.0,4.0,246.898833999694,1.0,1.0,part_1,,,,,,,,,,,,,green,flipped triangle
186.0,5.0,1.0,1.0,1.0,1.0,474.6872910000093,1.0,1.0,part_1,,,,,,,,,,,,,white,hexagon
0.0,4.0,0.0,0.0,2.0,2.0,330.5607939996662,1.0,1.0,part_1,,,,,,,,,,,,,blue,triangle
0.0,4.0,0.0,0.0,1.0,1.0,379.0733519999776,1.0,1.0,part_1,,,,,,,,,,,,,blue,triangle
145.0,5.0,1.0,1.0,2.0,2.0,368.760358000145,1.0,1.0,part_1,,,,,,,,,,,,,white,hexagon
166.0,5.0,1.0,1.0,1.0,1.0,341.0629269997116,1.0,1.0,part_1,,,,,,,,,,,,,white,hexagon
161.0,5.0,1.0,1.0,3.0,3.0,245.7732739999301,1.0,1.0,part_1,,,,,,,,,,,,,white,hexagon
0.0,6.0,0.0,1.0,1.0,1.0,405.38064400016077,1.0,1.0,part_1,,,,,,,,,,,,,green,flipped triangle
656.0,3.0,3.0,0.0,4.0,4.0,360.274236999885,1.0,1.0,part_1,,,,,,,,,,,,,yellow,circle
0.0,1.0,0.0,0.0,3.0,3.0,358.7353240000084,1.0,1.0,part_1,,,,,,,,,,,,,gray,I
334.0,2.0,2.0,0.0,4.0,4.0,331.320599999799,1.0,1.0,part_1,,,,,,,,,,,,,cyan,cross
317.0,6.0,2.0,1.0,1.0,1.0,311.1029269998653,1.0,1.0,part_1,,,,,,,,,,,,,green,flipped triangle
330.0,6.0,2.0,1.0,1.0,1.0,292.673903999912,1.0,1.0,part_1,,,,,,,,,,,,,green,flipped triangle
171.0,5.0,1.0,1.0,1.0,1.0,350.0413519996073,1.0,1.0,part_1,,,,,,,,,,,,,white,hexagon
1286.0,4.0,4.0,0.0,3.0,3.0,331.599623999864,1.0,1.0,part_1,,,,,,,,,,,,,blue,triangle
330.0,6.0,2.0,1.0,1.0,1.0,274.3446079998648,1.0,1.0,part_1,,,,,,,,,,,,,green,flipped triangle
668.0,3.0,3.0,0.0,2.0,2.0,406.9293630000175,1.0,1.0,part_1,,,,,,,,,,,,,yellow,circle
669.0,3.0,3.0,0.0,1.0,1.0,454.5625290002135,1.0,1.0,part_1,,,,,,,,,,,,,yellow,circle
1298.0,4.0,4.0,0.0,4.0,4.0,311.5463470003305,1.0,1.0,part_1,,,,,,,,,,,,,blue,triangle
631.0,3.0,3.0,0.0,1.0,1.0,358.5950829997273,1.0,1.0,part_1,,,,,,,,,,,,,yellow,circle
634.0,3.0,3.0,0.0,4.0,4.0,282.9676139999719,1.0,1.0,part_1,,,,,,,,,,,,,yellow,circle
661.0,3.0,3.0,0.0,3.0,3.0,444.0106980000564,2.0,1.0,part_1,,,,,,,,,,,,,yellow,circle
150.0,5.0,1.0,1.0,4.0,4.0,274.3216449998726,2.0,1.0,part_1,,,,,,,,,,,,,white,hexagon
0.0,1.0,0.0,0.0,1.0,1.0,332.185852999828,2.0,1.0,part_1,,,,,,,,,,,,,gray,I
1286.0,8.0,4.0,1.0,2.0,2.0,322.7566980003757,2.0,1.0,part_1,,,,,,,,,,,,,orange,diamond
671.0,3.0,3.0,0.0,4.0,4.0,275.3906220000317,2.0,1.0,part_1,,,,,,,,,,,,,yellow,circle
1292.0,4.0,4.0,0.0,2.0,2.0,283.8960059998499,2.0,1.0,part_1,,,,,,,,,,,,,blue,triangle
1291.0,4.0,4.0,0.0,3.0,3.0,323.4978989999035,2.0,1.0,part_1,,,,,,,,,,,,,blue,triangle
342.0,2.0,2.0,0.0,3.0,3.0,332.0082760001241,2.0,1.0,part_1,,,,,,,,,,,,,cyan,cross
1321.0,8.0,4.0,1.0,3.0,3.0,312.9472549999263,2.0,1.0,part_1,,,,,,,,,,,,,orange,diamond
663.0,7.0,3.0,1.0,3.0,3.0,255.7217769999624,2.0,1.0,part_1,,,,,,,,,,,,,magenta,square
670.0,7.0,3.0,1.0,1.0,1.0,586.9222870001067,2.0,1.0,part_1,,,,,,,,,,,,,magenta,square
301.0,2.0,2.0,0.0,1.0,1.0,368.2302399997752,2.0,1.0,part_1,,,,,,,,,,,,,cyan,cross
325.0,2.0,2.0,0.0,2.0,2.0,321.1380230000031,2.0,1.0,part_1,,,,,,,,,,,,,cyan,cross
319.0,2.0,2.0,0.0,3.0,3.0,321.2082889999692,2.0,1.0,part_1,,,,,,,,,,,,,cyan,cross
0.0,6.0,0.0,1.0,4.0,4.0,340.0295599999481,2.0,1.0,part_1,,,,,,,,,,,,,green,flipped triangle
0.0,2.0,0.0,0.0,4.0,4.0,425.2353090000724,2.0,1.0,part_1,,,,,,,,,,,,,cyan,cross
139.0,5.0,1.0,1.0,4.0,4.0,368.7026840002545,2.0,1.0,part_1,,,,,,,,,,,,,white,hexagon
632.0,3.0,3.0,0.0,1.0,1.0,302.4680580001586,2.0,1.0,part_1,,,,,,,,,,,,,yellow,circle
317.0,2.0,2.0,0.0,2.0,2.0,302.2106029998213,2.0,1.0,part_1,,,,,,,,,,,,,cyan,cross
167.0,5.0,1.0,1.0,2.0,2.0,293.8695349998852,2.0,1.0,part_1,,,,,,,,,,,,,white,hexagon
175.0,1.0,1.0,0.0,3.0,3.0,368.8855489999696,2.0,1.0,part_1,,,,,,,,,,,,,gray,I
1284.0,8.0,4.0,1.0,3.0,3.0,320.6991659999403,2.0,1.0,part_1,,,,,,,,,,,,,orange,diamond
337.0,2.0,2.0,0.0,2.0,2.0,471.1815129999195,2.0,1.0,part_1,,,,,,,,,,,,,cyan,cross
334.0,6.0,2.0,1.0,4.0,4.0,341.4460349999899,2.0,1.0,part_1,,,,,,,,,,,,,green,flipped triangle
1319.0,4.0,4.0,0.0,1.0,1.0,345.6254230000013,2.0,1.0,part_1,,,,,,,,,,,,,blue,triangle
335.0,6.0,2.0,1.0,2.0,2.0,445.2071999999134,2.0,1.0,part_1,,,,,,,,,,,,,green,flipped triangle
184.0,1.0,1.0,0.0,4.0,4.0,283.2902510003805,2.0,1.0,part_1,,,,,,,,,,,,,gray,I
638.0,3.0,3.0,0.0,3.0,3.0,293.2562650003092,2.0,1.0,part_1,,,,,,,,,,,,,yellow,circle
162.0,5.0,1.0,1.0,3.0,3.0,283.8811769997846,2.0,1.0,part_1,,,,,,,,,,,,,white,hexagon
627.0,3.0,3.0,0.0,2.0,2.0,377.7860199998031,2.0,1.0,part_1,,,,,,,,,,,,,yellow,circle
1284.0,4.0,4.0,0.0,2.0,2.0,331.3225690003492,2.0,1.0,part_1,,,,,,,,,,,,,blue,triangle
670.0,3.0,3.0,0.0,4.0,4.0,368.3156009997219,2.0,1.0,part_1,,,,,,,,,,,,,yellow,circle
152.0,1.0,1.0,0.0,3.0,3.0,293.6640670000088,2.0,1.0,part_1,,,,,,,,,,,,,gray,I
0.0,6.0,0.0,1.0,2.0,2.0,313.0173829999876,2.0,2.0,part_1,,,,,,,,,,,,,green,flipped triangle
1316.0,4.0,4.0,0.0,4.0,4.0,321.6847590001634,2.0,1.0,part_1,,,,,,,,,,,,,blue,triangle
324.0,6.0,2.0,1.0,4.0,4.0,274.043053999776,2.0,1.0,part_1,,,,,,,,,,,,,green,flipped triangle
187.0,1.0,1.0,0.0,4.0,4.0,349.7717479999664,2.0,1.0,part_1,,,,,,,,,,,,,gray,I
635.0,7.0,3.0,1.0,1.0,1.0,357.8932020000138,2.0,1.0,part_1,,,,,,,,,,,,,magenta,square
648.0,7.0,3.0,1.0,1.0,1.0,443.6810070001229,2.0,1.0,part_1,,,,,,,,,,,,,magenta,square
332.0,2.0,2.0,0.0,1.0,1.0,510.02014400000917,2.0,1.0,part_1,,,,,,,,,,,,,cyan,cross
0.0,8.0,0.0,1.0,3.0,3.0,396.1890330001552,2.0,1.0,part_1,,,,,,,,,,,,,orange,diamond
0.0,8.0,0.0,1.0,2.0,2.0,377.4930190002123,2.0,1.0,part_1,,,,,,,,,,,,,orange,diamond
632.0,7.0,3.0,1.0,2.0,2.0,320.6902110000555,2.0,1.0,part_1,,,,,,,,,,,,,magenta,square
176.0,1.0,1.0,0.0,3.0,3.0,387.7627110000503,2.0,1.0,part_1,,,,,,,,,,,,,gray,I
303.0,6.0,2.0,1.0,3.0,3.0,349.608494000222,2.0,1.0,part_1,,,,,,,,,,,,,green,flipped triangle
150.0,5.0,1.0,1.0,3.0,3.0,369.1050100001121,2.0,1.0,part_1,,,,,,,,,,,,,white,hexagon
327.0,6.0,2.0,1.0,2.0,2.0,282.4270040000556,2.0,1.0,part_1,,,,,,,,,,,,,green,flipped triangle
659.0,7.0,3.0,1.0,2.0,2.0,282.4837540001681,2.0,1.0,part_1,,,,,,,,,,,,,magenta,square
0.0,2.0,0.0,0.0,1.0,1.0,480.7960389998698,2.0,1.0,part_1,,,,,,,,,,,,,cyan,cross
324.0,2.0,2.0,0.0,1.0,1.0,292.7623750001658,2.0,1.0,part_1,,,,,,,,,,,,,cyan,cross
142.0,5.0,1.0,1.0,4.0,4.0,377.4768170001152,2.0,1.0,part_1,,,,,,,,,,,,,white,hexagon
663.0,3.0,3.0,0.0,1.0,1.0,350.9222229999977,2.0,1.0,part_1,,,,,,,,,,,,,yellow,circle
1321.0,8.0,4.0,1.0,2.0,2.0,321.3001929998427,2.0,1.0,part_1,,,,,,,,,,,,,orange,diamond
0.0,2.0,0.0,0.0,3.0,3.0,302.9644319999534,2.0,1.0,part_1,,,,,,,,,,,,,cyan,cross
152.0,5.0,1.0,1.0,3.0,3.0,274.6857849997468,2.0,1.0,part_1,,,,,,,,,,,,,white,hexagon
315.0,6.0,2.0,1.0,4.0,4.0,340.3274799998144,2.0,1.0,part_1,,,,,,,,,,,,,green,flipped triangle
1321.0,8.0,4.0,1.0,4.0,4.0,283.5288189999119,2.0,1.0,part_1,,,,,,,,,,,,,orange,diamond
0.0,1.0,0.0,0.0,3.0,3.0,321.5787069998441,2.0,1.0,part_1,,,,,,,,,,,,,gray,I
158.0,1.0,1.0,0.0,2.0,2.0,312.5246099998549,2.0,1.0,part_1,,,,,,,,,,,,,gray,I
171.0,1.0,1.0,0.0,2.0,2.0,508.64937599999394,2.0,1.0,part_1,,,,,,,,,,,,,gray,I
0.0,5.0,0.0,1.0,3.0,3.0,282.8689769999073,2.0,1.0,part_1,,,,,,,,,,,,,white,hexagon
1318.0,4.0,4.0,0.0,3.0,3.0,313.4559780000927,2.0,1.0,part_1,,,,,,,,,,,,,blue,triangle
156.0,5.0,1.0,1.0,3.0,3.0,311.4075819999016,2.0,1.0,part_1,,,,,,,,,,,,,white,hexagon
643.0,7.0,3.0,1.0,4.0,4.0,358.3450390001417,2.0,1.0,part_1,,,,,,,,,,,,,magenta,square
343.0,2.0,2.0,0.0,1.0,1.0,320.7005920003212,2.0,1.0,part_1,,,,,,,,,,,,,cyan,cross
0.0,2.0,0.0,0.0,2.0,2.0,387.1059090001836,2.0,1.0,part_1,,,,,,,,,,,,,cyan,cross
0.0,7.0,0.0,1.0,3.0,3.0,291.9236289999389,2.0,1.0,part_1,,,,,,,,,,,,,magenta,square
672.0,3.0,3.0,0.0,4.0,4.0,330.0615670000297,2.0,1.0,part_1,,,,,,,,,,,,,yellow,circle
656.0,7.0,3.0,1.0,3.0,3.0,329.5321810001042,2.0,1.0,part_1,,,,,,,,,,,,,magenta,square
319.0,6.0,2.0,1.0,2.0,2.0,367.0717240001977,2.0,1.0,part_1,,,,,,,,,,,,,green,flipped triangle
1316.0,8.0,4.0,1.0,1.0,1.0,537.00569800003,2.0,1.0,part_1,,,,,,,,,,,,,orange,diamond
655.0,7.0,3.0,1.0,1.0,1.0,405.9703389998503,2.0,1.0,part_1,,,,,,,,,,,,,magenta,square
309.0,6.0,2.0,1.0,2.0,2.0,321.5574450000531,2.0,1.0,part_1,,,,,,,,,,,,,green,flipped triangle
639.0,7.0,3.0,1.0,3.0,3.0,302.608728999985,2.0,1.0,part_1,,,,,,,,,,,,,magenta,square
0.0,7.0,0.0,1.0,4.0,4.0,321.1416039998767,2.0,1.0,part_1,,,,,,,,,,,,,magenta,square
310.0,6.0,2.0,1.0,3.0,3.0,405.3504889998294,2.0,1.0,part_1,,,,,,,,,,,,,green,flipped triangle
145.0,1.0,1.0,0.0,2.0,2.0,519.4779140001629,2.0,2.0,part_1,,,,,,,,,,,,,gray,I
0.0,6.0,0.0,1.0,3.0,3.0,340.5639450002127,2.0,1.0,part_1,,,,,,,,,,,,,green,flipped triangle
338.0,2.0,2.0,0.0,2.0,2.0,320.5152509999607,2.0,1.0,part_1,,,,,,,,,,,,,cyan,cross
315.0,6.0,2.0,1.0,3.0,3.0,283.5355170000184,2.0,1.0,part_1,,,,,,,,,,,,,green,flipped triangle
1295.0,8.0,4.0,1.0,2.0,2.0,320.6781369999589,2.0,1.0,part_1,,,,,,,,,,,,,orange,diamond
1298.0,4.0,4.0,0.0,1.0,1.0,395.5510249998042,2.0,1.0,part_1,,,,,,,,,,,,,blue,triangle
178.0,5.0,1.0,1.0,1.0,1.0,396.984631000123,2.0,1.0,part_1,,,,,,,,,,,,,white,hexagon
638.0,7.0,3.0,1.0,2.0,2.0,357.09960299982407,2.0,1.0,part_1,,,,,,,,,,,,,magenta,square
1300.0,4.0,4.0,0.0,4.0,4.0,348.6454859998957,2.0,1.0,part_1,,,,,,,,,,,,,blue,triangle
327.0,2.0,2.0,0.0,2.0,2.0,378.7520000000768,2.0,1.0,part_1,,,,,,,,,,,,,cyan,cross
1312.0,4.0,4.0,0.0,4.0,4.0,368.8710930000525,2.0,1.0,part_1,,,,,,,,,,,,,blue,triangle
0.0,4.0,0.0,0.0,3.0,3.0,349.4520590002139,2.0,1.0,part_1,,,,,,,,,,,,,blue,triangle
0.0,7.0,0.0,1.0,2.0,2.0,321.9045589999041,2.0,1.0,part_1,,,,,,,,,,,,,magenta,square
329.0,6.0,2.0,1.0,2.0,2.0,331.9505459999163,2.0,1.0,part_1,,,,,,,,,,,,,green,flipped triangle
344.0,2.0,2.0,0.0,1.0,1.0,337.2757170000113,2.0,1.0,part_1,,,,,,,,,,,,,cyan,cross
1319.0,4.0,4.0,0.0,2.0,2.0,339.4851070002005,2.0,1.0,part_1,,,,,,,,,,,,,blue,triangle
1293.0,4.0,4.0,0.0,4.0,4.0,368.8839490000646,2.0,1.0,part_1,,,,,,,,,,,,,blue,triangle
670.0,7.0,3.0,1.0,4.0,4.0,312.9858849997617,2.0,1.0,part_1,,,,,,,,,,,,,magenta,square
1322.0,8.0,4.0,1.0,2.0,2.0,295.1853459999256,2.0,1.0,part_1,,,,,,,,,,,,,orange,diamond
1286.0,4.0,4.0,0.0,3.0,3.0,341.1823970000114,2.0,1.0,part_1,,,,,,,,,,,,,blue,triangle
337.0,6.0,2.0,1.0,3.0,3.0,312.1172050000496,2.0,1.0,part_1,,,,,,,,,,,,,green,flipped triangle
1322.0,8.0,4.0,1.0,4.0,4.0,341.3742150000871,2.0,1.0,part_1,,,,,,,,,,,,,orange,diamond
157.0,5.0,1.0,1.0,3.0,3.0,303.6014460003571,2.0,1.0,part_1,,,,,,,,,,,,,white,hexagon
1323.0,8.0,4.0,1.0,1.0,1.0,330.8690180001576,2.0,1.0,part_1,,,,,,,,,,,,,orange,diamond
1308.0,8.0,4.0,1.0,2.0,2.0,387.028487000407,3.0,1.0,part_1,,,,,,,,,,,,,orange,diamond
159.0,5.0,1.0,1.0,3.0,3.0,329.5563309998215,3.0,1.0,part_1,,,,,,,,,,,,,white,hexagon
1284.0,4.0,4.0,0.0,1.0,1.0,461.6488400001799,3.0,1.0,part_1,,,,,,,,,,,,,blue,triangle
157.0,1.0,1.0,0.0,4.0,4.0,338.3076479999545,3.0,1.0,part_1,,,,,,,,,,,,,gray,I
663.0,7.0,3.0,1.0,4.0,4.0,397.3305520003123,3.0,1.0,part_1,,,,,,,,,,,,,magenta,square
651.0,3.0,3.0,0.0,2.0,2.0,388.0928029998358,3.0,2.0,part_1,,,,,,,,,,,,,yellow,circle
1319.0,8.0,4.0,1.0,4.0,4.0,311.5349240001706,3.0,1.0,part_1,,,,,,,,,,,,,orange,diamond
1286.0,8.0,4.0,1.0,2.0,2.0,500.22387699982573,3.0,1.0,part_1,,,,,,,,,,,,,orange,diamond
672.0,7.0,3.0,1.0,2.0,2.0,444.8541059996387,3.0,1.0,part_1,,,,,,,,,,,,,magenta,square
315.0,2.0,2.0,0.0,1.0,1.0,642.5943250001183,3.0,1.0,part_1,,,,,,,,,,,,,cyan,cross
0.0,5.0,0.0,1.0,1.0,1.0,368.6955949997355,3.0,1.0,part_1,,,,,,,,,,,,,white,hexagon
142.0,1.0,1.0,0.0,2.0,2.0,290.0570000001607,3.0,1.0,part_1,,,,,,,,,,,,,gray,I
639.0,3.0,3.0,0.0,3.0,3.0,377.1949799997856,3.0,1.0,part_1,,,,,,,,,,,,,yellow,circle
1291.0,8.0,4.0,1.0,4.0,4.0,349.1097099999933,3.0,1.0,part_1,,,,,,,,,,,,,orange,diamond
0.0,7.0,0.0,1.0,3.0,3.0,350.3486150002572,3.0,1.0,part_1,,,,,,,,,,,,,magenta,square
648.0,3.0,3.0,0.0,4.0,4.0,349.0308350001214,3.0,1.0,part_1,,,,,,,,,,,,,yellow,circle
178.0,5.0,1.0,1.0,2.0,2.0,330.5191780000314,3.0,1.0,part_1,,,,,,,,,,,,,white,hexagon
658.0,7.0,3.0,1.0,4.0,4.0,301.842740000211,3.0,1.0,part_1,,,,,,,,,,,,,magenta,square
1288.0,4.0,4.0,0.0,2.0,2.0,424.9750930002847,3.0,1.0,part_1,,,,,,,,,,,,,blue,triangle
0.0,3.0,0.0,0.0,2.0,2.0,348.951489999763,3.0,1.0,part_1,,,,,,,,,,,,,yellow,circle
1305.0,8.0,4.0,1.0,1.0,1.0,349.6602519999214,3.0,1.0,part_1,,,,,,,,,,,,,orange,diamond
330.0,2.0,2.0,0.0,3.0,3.0,312.131507000231,3.0,1.0,part_1,,,,,,,,,,,,,cyan,cross
1292.0,8.0,4.0,1.0,4.0,4.0,311.5714980003758,3.0,1.0,part_1,,,,,,,,,,,,,orange,diamond
1297.0,4.0,4.0,0.0,3.0,3.0,348.1922500000109,3.0,1.0,part_1,,,,,,,,,,,,,blue,triangle
1319.0,8.0,4.0,1.0,3.0,3.0,349.4563509998443,3.0,1.0,part_1,,,,,,,,,,,,,orange,diamond
0.0,3.0,0.0,0.0,1.0,1.0,358.5295100001531,3.0,1.0,part_1,,,,,,,,,,,,,yellow,circle
670.0,3.0,3.0,0.0,3.0,3.0,320.5452729998796,3.0,1.0,part_1,,,,,,,,,,,,,yellow,circle
166.0,1.0,1.0,0.0,3.0,3.0,358.3754009996482,3.0,1.0,part_1,,,,,,,,,,,,,gray,I
0.0,3.0,0.0,0.0,3.0,3.0,405.2334309999423,3.0,1.0,part_1,,,,,,,,,,,,,yellow,circle
184.0,5.0,1.0,1.0,1.0,1.0,539.9941299997408,3.0,1.0,part_1,,,,,,,,,,,,,white,hexagon
0.0,5.0,0.0,1.0,1.0,1.0,510.6837580001411,3.0,1.0,part_1,,,,,,,,,,,,,white,hexagon
344.0,6.0,2.0,1.0,2.0,2.0,378.7564700000985,3.0,1.0,part_1,,,,,,,,,,,,,green,flipped triangle
323.0,2.0,2.0,0.0,4.0,4.0,321.3954390002982,3.0,1.0,part_1,,,,,,,,,,,,,cyan,cross
1308.0,4.0,4.0,0.0,1.0,1.0,415.0746260002051,3.0,1.0,part_1,,,,,,,,,,,,,blue,triangle
670.0,3.0,3.0,0.0,3.0,3.0,321.8847120001555,3.0,1.0,part_1,,,,,,,,,,,,,yellow,circle
643.0,3.0,3.0,0.0,1.0,1.0,377.9713609997088,3.0,1.0,part_1,,,,,,,,,,,,,yellow,circle
0.0,4.0,0.0,0.0,3.0,3.0,378.5213769997426,3.0,1.0,part_1,,,,,,,,,,,,,blue,triangle
642.0,3.0,3.0,0.0,4.0,4.0,369.3866829999024,3.0,1.0,part_1,,,,,,,,,,,,,yellow,circle
635.0,7.0,3.0,1.0,3.0,3.0,425.1793859998543,3.0,1.0,part_1,,,,,,,,,,,,,magenta,square
141.0,1.0,1.0,0.0,4.0,4.0,265.4453439999997,3.0,1.0,part_1,,,,,,,,,,,,,gray,I
330.0,2.0,2.0,0.0,4.0,4.0,369.2590400000881,3.0,1.0,part_1,,,,,,,,,,,,,cyan,cross
148.0,1.0,1.0,0.0,1.0,1.0,349.2950739996558,3.0,1.0,part_1,,,,,,,,,,,,,gray,I
658.0,3.0,3.0,0.0,3.0,3.0,302.4214130000473,3.0,1.0,part_1,,,,,,,,,,,,,yellow,circle
1277.0,8.0,4.0,1.0,1.0,1.0,379.5105910003258,3.0,1.0,part_1,,,,,,,,,,,,,orange,diamond
165.0,5.0,1.0,1.0,2.0,2.0,415.8351269998093,3.0,1.0,part_1,,,,,,,,,,,,,white,hexagon
0.0,1.0,0.0,0.0,4.0,4.0,263.4072129999367,3.0,1.0,part_1,,,,,,,,,,,,,gray,I
0.0,1.0,0.0,0.0,2.0,2.0,320.5613579998498,3.0,1.0,part_1,,,,,,,,,,,,,gray,I
150.0,1.0,1.0,0.0,4.0,4.0,302.7460479997899,3.0,1.0,part_1,,,,,,,,,,,,,gray,I
323.0,6.0,2.0,1.0,3.0,3.0,273.7785290000829,3.0,1.0,part_1,,,,,,,,,,,,,green,flipped triangle
628.0,3.0,3.0,0.0,3.0,3.0,330.4814909997731,3.0,1.0,part_1,,,,,,,,,,,,,yellow,circle
1293.0,8.0,4.0,1.0,2.0,2.0,385.6757049998123,3.0,1.0,part_1,,,,,,,,,,,,,orange,diamond
0.0,6.0,0.0,1.0,3.0,3.0,339.7412529998291,3.0,1.0,part_1,,,,,,,,,,,,,green,flipped triangle
627.0,7.0,3.0,1.0,1.0,1.0,349.8316200002591,3.0,2.0,part_1,,,,,,,,,,,,,magenta,square
175.0,5.0,1.0,1.0,3.0,3.0,368.8740700004018,3.0,1.0,part_1,,,,,,,,,,,,,white,hexagon
0.0,8.0,0.0,1.0,2.0,2.0,415.0942219998796,3.0,1.0,part_1,,,,,,,,,,,,,orange,diamond
310.0,2.0,2.0,0.0,4.0,4.0,387.1554120000837,3.0,1.0,part_1,,,,,,,,,,,,,cyan,cross
663.0,7.0,3.0,1.0,3.0,3.0,397.142027999962,3.0,1.0,part_1,,,,,,,,,,,,,magenta,square
322.0,6.0,2.0,1.0,4.0,4.0,320.8154590001868,3.0,1.0,part_1,,,,,,,,,,,,,green,flipped triangle
0.0,4.0,0.0,0.0,4.0,4.0,423.5199980003017,3.0,1.0,part_1,,,,,,,,,,,,,blue,triangle
177.0,5.0,1.0,1.0,3.0,3.0,311.957811999946,3.0,1.0,part_1,,,,,,,,,,,,,white,hexagon
177.0,1.0,1.0,0.0,3.0,3.0,443.3877139999822,3.0,1.0,part_1,,,,,,,,,,,,,gray,I
176.0,5.0,1.0,1.0,2.0,2.0,358.2848640003249,3.0,1.0,part_1,,,,,,,,,,,,,white,hexagon
1300.0,8.0,4.0,1.0,4.0,4.0,286.7552020002222,3.0,1.0,part_1,,,,,,,,,,,,,orange,diamond
634.0,3.0,3.0,0.0,2.0,2.0,330.0050200000441,3.0,1.0,part_1,,,,,,,,,,,,,yellow,circle
645.0,7.0,3.0,1.0,2.0,2.0,377.6793590000125,3.0,1.0,part_1,,,,,,,,,,,,,magenta,square
1309.0,4.0,4.0,0.0,1.0,1.0,555.528546000005,3.0,1.0,part_1,,,,,,,,,,,,,blue,triangle
663.0,3.0,3.0,0.0,2.0,2.0,348.3467030000611,3.0,1.0,part_1,,,,,,,,,,,,,yellow,circle
175.0,5.0,1.0,1.0,1.0,1.0,528.3771379999962,3.0,1.0,part_1,,,,,,,,,,,,,white,hexagon
173.0,5.0,1.0,1.0,4.0,4.0,302.2871090001899,3.0,1.0,part_1,,,,,,,,,,,,,white,hexagon
0.0,5.0,0.0,1.0,2.0,2.0,395.0974530002895,3.0,1.0,part_1,,,,,,,,,,,,,white,hexagon
0.0,2.0,0.0,0.0,4.0,4.0,332.2890539998298,3.0,1.0,part_1,,,,,,,,,,,,,cyan,cross
641.0,3.0,3.0,0.0,3.0,3.0,470.4051929998059,3.0,1.0,part_1,,,,,,,,,,,,,yellow,circle
1297.0,8.0,4.0,1.0,2.0,2.0,358.6540179999247,3.0,1.0,part_1,,,,,,,,,,,,,orange,diamond
638.0,7.0,3.0,1.0,1.0,1.0,386.7775759999858,3.0,1.0,part_1,,,,,,,,,,,,,magenta,square
175.0,1.0,1.0,0.0,1.0,1.0,348.4529979996296,3.0,1.0,part_1,,,,,,,,,,,,,gray,I
325.0,6.0,2.0,1.0,1.0,1.0,340.3104340000027,3.0,1.0,part_1,,,,,,,,,,,,,green,flipped triangle
1292.0,8.0,4.0,1.0,2.0,2.0,377.1102099999552,3.0,1.0,part_1,,,,,,,,,,,,,orange,diamond
1322.0,4.0,4.0,0.0,2.0,2.0,388.6337599997205,3.0,1.0,part_1,,,,,,,,,,,,,blue,triangle
0.0,2.0,0.0,0.0,2.0,2.0,329.8355160000028,3.0,1.0,part_1,,,,,,,,,,,,,cyan,cross
1322.0,4.0,4.0,0.0,4.0,4.0,349.0772759996616,3.0,1.0,part_1,,,,,,,,,,,,,blue,triangle
0.0,7.0,0.0,1.0,2.0,2.0,329.2838709999159,3.0,1.0,part_1,,,,,,,,,,,,,magenta,square
667.0,3.0,3.0,0.0,1.0,1.0,405.1226690003204,3.0,1.0,part_1,,,,,,,,,,,,,yellow,circle
319.0,2.0,2.0,0.0,2.0,2.0,562.8357710002092,3.0,1.0,part_1,,,,,,,,,,,,,cyan,cross
0.0,6.0,0.0,1.0,4.0,4.0,340.1410460000988,3.0,1.0,part_1,,,,,,,,,,,,,green,flipped triangle
0.0,2.0,0.0,0.0,1.0,1.0,330.4028170000492,3.0,1.0,part_1,,,,,,,,,,,,,cyan,cross
173.0,1.0,1.0,0.0,3.0,3.0,273.5583300000144,3.0,1.0,part_1,,,,,,,,,,,,,gray,I
1298.0,8.0,4.0,1.0,4.0,4.0,517.3667379999642,3.0,1.0,part_1,,,,,,,,,,,,,orange,diamond
322.0,6.0,2.0,1.0,2.0,2.0,442.6286240000081,3.0,1.0,part_1,,,,,,,,,,,,,green,flipped triangle
667.0,7.0,3.0,1.0,4.0,4.0,293.1691170001613,3.0,1.0,part_1,,,,,,,,,,,,,magenta,square
1288.0,8.0,4.0,1.0,1.0,1.0,312.4704070000916,3.0,1.0,part_1,,,,,,,,,,,,,orange,diamond
186.0,1.0,1.0,0.0,1.0,1.0,397.7142019998609,3.0,1.0,part_1,,,,,,,,,,,,,gray,I
1313.0,4.0,4.0,0.0,3.0,3.0,312.1203189998596,3.0,1.0,part_1,,,,,,,,,,,,,blue,triangle
649.0,3.0,3.0,0.0,2.0,2.0,368.5240610002438,3.0,1.0,part_1,,,,,,,,,,,,,yellow,circle
158.0,5.0,1.0,1.0,1.0,1.0,417.2533820001263,3.0,1.0,part_1,,,,,,,,,,,,,white,hexagon
636.0,3.0,3.0,0.0,2.0,2.0,331.2257709999358,3.0,1.0,part_1,,,,,,,,,,,,,yellow,circle
0.0,1.0,0.0,0.0,2.0,2.0,322.3036469998988,3.0,1.0,part_1,,,,,,,,,,,,,gray,I
625.0,3.0,3.0,0.0,2.0,2.0,369.074959000045,3.0,1.0,part_1,,,,,,,,,,,,,yellow,circle
138.0,1.0,1.0,0.0,4.0,4.0,331.5624550000393,3.0,1.0,part_1,,,,,,,,,,,,,gray,I
1297.0,4.0,4.0,0.0,4.0,4.0,349.0832080001382,3.0,1.0,part_1,,,,,,,,,,,,,blue,triangle
0.0,5.0,0.0,1.0,2.0,2.0,341.5065869999125,3.0,1.0,part_1,,,,,,,,,,,,,white,hexagon
161.0,1.0,1.0,0.0,2.0,2.0,443.9958109996951,4.0,1.0,part_1,,,,,,,,,,,,,gray,I
0.0,1.0,0.0,0.0,3.0,3.0,369.9935659997209,4.0,1.0,part_1,,,,,,,,,,,,,gray,I
635.0,3.0,3.0,0.0,2.0,2.0,444.57223500012327,4.0,1.0,part_1,,,,,,,,,,,,,yellow,circle
0.0,4.0,0.0,0.0,4.0,4.0,369.5776879999357,4.0,1.0,part_1,,,,,,,,,,,,,blue,triangle
1283.0,8.0,4.0,1.0,1.0,1.0,340.2465230001326,4.0,1.0,part_1,,,,,,,,,,,,,orange,diamond
150.0,5.0,1.0,1.0,2.0,2.0,406.2689350002983,4.0,1.0,part_1,,,,,,,,,,,,,white,hexagon
146.0,1.0,1.0,0.0,1.0,1.0,349.9516090000725,4.0,1.0,part_1,,,,,,,,,,,,,gray,I
141.0,5.0,1.0,1.0,4.0,4.0,302.2766700000829,4.0,1.0,part_1,,,,,,,,,,,,,white,hexagon
349.0,6.0,2.0,1.0,1.0,1.0,292.8641260000404,4.0,1.0,part_1,,,,,,,,,,,,,green,flipped triangle
306.0,2.0,2.0,0.0,1.0,1.0,322.1547440002723,4.0,1.0,part_1,,,,,,,,,,,,,cyan,cross
1298.0,8.0,4.0,1.0,3.0,3.0,498.4867650000524,4.0,2.0,part_1,,,,,,,,,,,,,orange,diamond
338.0,6.0,2.0,1.0,3.0,3.0,331.0280149999016,4.0,1.0,part_1,,,,,,,,,,,,,green,flipped triangle
321.0,2.0,2.0,0.0,4.0,4.0,283.0826119998164,4.0,1.0,part_1,,,,,,,,,,,,,cyan,cross
635.0,3.0,3.0,0.0,2.0,2.0,444.5312610000655,4.0,1.0,part_1,,,,,,,,,,,,,yellow,circle
0.0,7.0,0.0,1.0,4.0,4.0,377.3260259999915,4.0,1.0,part_1,,,,,,,,,,,,,magenta,square
178.0,1.0,1.0,0.0,3.0,3.0,528.0653370000437,4.0,1.0,part_1,,,,,,,,,,,,,gray,I
0.0,1.0,0.0,0.0,2.0,2.0,348.4547460002432,4.0,1.0,part_1,,,,,,,,,,,,,gray,I
0.0,7.0,0.0,1.0,2.0,2.0,348.5276860001249,4.0,2.0,part_1,,,,,,,,,,,,,magenta,square
671.0,7.0,3.0,1.0,1.0,1.0,386.4966119999735,4.0,1.0,part_1,,,,,,,,,,,,,magenta,square
634.0,7.0,3.0,1.0,2.0,2.0,387.3696059999929,4.0,1.0,part_1,,,,,,,,,,,,,magenta,square
150.0,5.0,1.0,1.0,2.0,2.0,548.8805159998265,4.0,1.0,part_1,,,,,,,,,,,,,white,hexagon
1315.0,4.0,4.0,0.0,1.0,1.0,349.3949799999427,4.0,1.0,part_1,,,,,,,,,,,,,blue,triangle
156.0,1.0,1.0,0.0,2.0,2.0,340.0410919998649,4.0,1.0,part_1,,,,,,,,,,,,,gray,I
1279.0,4.0,4.0,0.0,1.0,1.0,302.1293009996952,4.0,1.0,part_1,,,,,,,,,,,,,blue,triangle
654.0,3.0,3.0,0.0,1.0,1.0,406.342271000085,4.0,1.0,part_1,,,,,,,,,,,,,yellow,circle
663.0,3.0,3.0,0.0,4.0,4.0,339.6196779999627,4.0,1.0,part_1,,,,,,,,,,,,,yellow,circle
1279.0,8.0,4.0,1.0,2.0,2.0,331.8614549998528,4.0,1.0,part_1,,,,,,,,,,,,,orange,diamond
0.0,2.0,0.0,0.0,4.0,4.0,330.2485280000837,4.0,1.0,part_1,,,,,,,,,,,,,cyan,cross
165.0,1.0,1.0,0.0,2.0,2.0,368.5032200000933,4.0,1.0,part_1,,,,,,,,,,,,,gray,I
1275.0,4.0,4.0,0.0,2.0,2.0,510.0207569998929,4.0,1.0,part_1,,,,,,,,,,,,,blue,triangle
349.0,2.0,2.0,0.0,3.0,3.0,463.1053130001419,4.0,1.0,part_1,,,,,,,,,,,,,cyan,cross
315.0,2.0,2.0,0.0,2.0,2.0,529.800093999711,4.0,1.0,part_1,,,,,,,,,,,,,cyan,cross
659.0,3.0,3.0,0.0,4.0,4.0,360.725449000256,4.0,1.0,part_1,,,,,,,,,,,,,yellow,circle
648.0,3.0,3.0,0.0,4.0,4.0,323.869853999895,4.0,1.0,part_1,,,,,,,,,,,,,yellow,circle
321.0,2.0,2.0,0.0,1.0,1.0,387.54839000012,4.0,1.0,part_1,,,,,,,,,,,,,cyan,cross
178.0,1.0,1.0,0.0,1.0,1.0,339.8744969999825,4.0,1.0,part_1,,,,,,,,,,,,,gray,I
1286.0,8.0,4.0,1.0,3.0,3.0,434.4635869997546,4.0,1.0,part_1,,,,,,,,,,,,,orange,diamond
310.0,6.0,2.0,1.0,1.0,1.0,273.5494079997806,4.0,1.0,part_1,,,,,,,,,,,,,green,flipped triangle
645.0,3.0,3.0,0.0,3.0,3.0,367.9088720000436,4.0,1.0,part_1,,,,,,,,,,,,,yellow,circle
332.0,6.0,2.0,1.0,1.0,1.0,378.7796189999426,4.0,1.0,part_1,,,,,,,,,,,,,green,flipped triangle
0.0,5.0,0.0,1.0,2.0,2.0,378.8781690000178,4.0,1.0,part_1,,,,,,,,,,,,,white,hexagon
305.0,2.0,2.0,0.0,4.0,4.0,312.1673610003199,4.0,1.0,part_1,,,,,,,,,,,,,cyan,cross
348.0,2.0,2.0,0.0,4.0,4.0,388.1370760000209,4.0,1.0,part_1,,,,,,,,,,,,,cyan,cross
0.0,3.0,0.0,0.0,4.0,4.0,339.712113999667,4.0,1.0,part_1,,,,,,,,,,,,,yellow,circle
156.0,5.0,1.0,1.0,1.0,1.0,341.35758299999,4.0,1.0,part_1,,,,,,,,,,,,,white,hexagon
0.0,6.0,0.0,1.0,1.0,1.0,387.4159859997235,4.0,1.0,part_1,,,,,,,,,,,,,green,flipped triangle
1321.0,4.0,4.0,0.0,1.0,1.0,349.9259519999214,4.0,1.0,part_1,,,,,,,,,,,,,blue,triangle
167.0,5.0,1.0,1.0,4.0,4.0,349.4640699996125,4.0,1.0,part_1,,,,,,,,,,,,,white,hexagon
661.0,7.0,3.0,1.0,2.0,2.0,311.1149609999302,4.0,1.0,part_1,,,,,,,,,,,,,magenta,square
306.0,6.0,2.0,1.0,3.0,3.0,349.3422850001479,4.0,2.0,part_1,,,,,,,,,,,,,green,flipped triangle
335.0,2.0,2.0,0.0,1.0,1.0,349.929598000017,4.0,1.0,part_1,,,,,,,,,,,,,cyan,cross
0.0,8.0,0.0,1.0,2.0,2.0,453.3908059997884,4.0,1.0,part_1,,,,,,,,,,,,,orange,diamond
167.0,1.0,1.0,0.0,1.0,1.0,320.6805890004034,4.0,1.0,part_1,,,,,,,,,,,,,gray,I
160.0,5.0,1.0,1.0,4.0,4.0,312.4627810002494,4.0,1.0,part_1,,,,,,,,,,,,,white,hexagon
0.0,5.0,0.0,1.0,3.0,3.0,313.8584169996647,4.0,1.0,part_1,,,,,,,,,,,,,white,hexagon
0.0,1.0,0.0,0.0,3.0,3.0,416.6023160000804,4.0,1.0,part_1,,,,,,,,,,,,,gray,I
187.0,5.0,1.0,1.0,4.0,4.0,312.642323000091,4.0,1.0,part_1,,,,,,,,,,,,,white,hexagon
1275.0,8.0,4.0,1.0,3.0,3.0,369.0791949998129,4.0,1.0,part_1,,,,,,,,,,,,,orange,diamond
0.0,4.0,0.0,0.0,3.0,3.0,369.2673460000151,4.0,1.0,part_1,,,,,,,,,,,,,blue,triangle
1297.0,8.0,4.0,1.0,1.0,1.0,368.6485460002586,4.0,1.0,part_1,,,,,,,,,,,,,orange,diamond
1283.0,4.0,4.0,0.0,3.0,3.0,435.5987019998792,4.0,1.0,part_1,,,,,,,,,,,,,blue,triangle
150.0,1.0,1.0,0.0,4.0,4.0,350.9682859998975,4.0,1.0,part_1,,,,,,,,,,,,,gray,I
0.0,8.0,0.0,1.0,3.0,3.0,418.1193869999333,4.0,1.0,part_1,,,,,,,,,,,,,orange,diamond
1284.0,8.0,4.0,1.0,1.0,1.0,321.1160810001274,4.0,1.0,part_1,,,,,,,,,,,,,orange,diamond
655.0,3.0,3.0,0.0,1.0,1.0,491.8349419999686,4.0,1.0,part_1,,,,,,,,,,,,,yellow,circle
156.0,1.0,1.0,0.0,4.0,4.0,491.2051549999887,4.0,1.0,part_1,,,,,,,,,,,,,gray,I
0.0,8.0,0.0,1.0,4.0,4.0,332.0260460000099,4.0,1.0,part_1,,,,,,,,,,,,,orange,diamond
1279.0,4.0,4.0,0.0,1.0,1.0,350.6526189999022,4.0,1.0,part_1,,,,,,,,,,,,,blue,triangle
317.0,2.0,2.0,0.0,2.0,2.0,484.0803870001764,4.0,1.0,part_1,,,,,,,,,,,,,cyan,cross
160.0,1.0,1.0,0.0,1.0,1.0,399.6815619998415,4.0,1.0,part_1,,,,,,,,,,,,,gray,I
157.0,5.0,1.0,1.0,2.0,2.0,597.4910350000755,4.0,1.0,part_1,,,,,,,,,,,,,white,hexagon
1315.0,8.0,4.0,1.0,4.0,4.0,368.5669400001643,4.0,1.0,part_1,,,,,,,,,,,,,orange,diamond
0.0,3.0,0.0,0.0,1.0,1.0,387.0739660001163,4.0,1.0,part_1,,,,,,,,,,,,,yellow,circle
1284.0,4.0,4.0,0.0,3.0,3.0,386.8499780001002,4.0,1.0,part_1,,,,,,,,,,,,,blue,triangle
345.0,2.0,2.0,0.0,3.0,3.0,500.96187000008285,4.0,1.0,part_1,,,,,,,,,,,,,cyan,cross
1292.0,4.0,4.0,0.0,3.0,3.0,379.4351589999678,4.0,1.0,part_1,,,,,,,,,,,,,blue,triangle
322.0,2.0,2.0,0.0,2.0,2.0,386.8810209996809,4.0,1.0,part_1,,,,,,,,,,,,,cyan,cross
0.0,7.0,0.0,1.0,2.0,2.0,463.6796070003584,4.0,1.0,part_1,,,,,,,,,,,,,magenta,square
150.0,1.0,1.0,0.0,3.0,3.0,360.9677119998196,4.0,1.0,part_1,,,,,,,,,,,,,gray,I
625.0,7.0,3.0,1.0,3.0,3.0,396.5280059996985,4.0,1.0,part_1,,,,,,,,,,,,,magenta,square
636.0,7.0,3.0,1.0,2.0,2.0,369.4526689996564,4.0,1.0,part_1,,,,,,,,,,,,,magenta,square
346.0,2.0,2.0,0.0,2.0,2.0,350.3793690001657,4.0,1.0,part_1,,,,,,,,,,,,,cyan,cross
139.0,1.0,1.0,0.0,2.0,2.0,330.5680640000901,4.0,1.0,part_1,,,,,,,,,,,,,gray,I
0.0,2.0,0.0,0.0,4.0,4.0,471.2523719999808,4.0,1.0,part_1,,,,,,,,,,,,,cyan,cross
150.0,1.0,1.0,0.0,2.0,2.0,396.5398600003027,4.0,1.0,part_1,,,,,,,,,,,,,gray,I
668.0,7.0,3.0,1.0,4.0,4.0,303.5688539998773,4.0,1.0,part_1,,,,,,,,,,,,,magenta,square
322.0,2.0,2.0,0.0,3.0,3.0,483.3946809999361,4.0,1.0,part_1,,,,,,,,,,,,,cyan,cross
1318.0,8.0,4.0,1.0,1.0,1.0,332.7866259996881,4.0,1.0,part_1,,,,,,,,,,,,,orange,diamond
638.0,3.0,3.0,0.0,3.0,3.0,359.9681150003562,4.0,1.0,part_1,,,,,,,,,,,,,yellow,circle
0.0,1.0,0.0,0.0,3.0,3.0,388.2055979997858,4.0,1.0,part_1,,,,,,,,,,,,,gray,I
669.0,7.0,3.0,1.0,1.0,1.0,331.8144730001222,4.0,1.0,part_1,,,,,,,,,,,,,magenta,square
159.0,1.0,1.0,0.0,4.0,4.0,348.7942799997654,4.0,1.0,part_1,,,,,,,,,,,,,gray,I
674.0,3.0,3.0,0.0,1.0,1.0,388.2196280001153,4.0,1.0,part_1,,,,,,,,,,,,,yellow,circle
0.0,4.0,0.0,0.0,2.0,2.0,424.0322239998022,4.0,1.0,part_1,,,,,,,,,,,,,blue,triangle
0.0,7.0,0.0,1.0,2.0,2.0,423.9373289997274,4.0,1.0,part_1,,,,,,,,,,,,,magenta,square
0.0,3.0,0.0,0.0,1.0,1.0,311.7994610001915,4.0,1.0,part_1,,,,,,,,,,,,,yellow,circle
346.0,6.0,2.0,1.0,4.0,4.0,397.0355490000656,4.0,1.0,part_1,,,,,,,,,,,,,green,flipped triangle
1312.0,8.0,4.0,1.0,3.0,3.0,377.5810289998844,4.0,1.0,part_1,,,,,,,,,,,,,orange,diamond
654.0,7.0,3.0,1.0,4.0,4.0,330.7944720004343,4.0,1.0,part_1,,,,,,,,,,,,,magenta,square
319.0,6.0,2.0,1.0,1.0,1.0,302.2828189996289,4.0,1.0,part_1,,,,,,,,,,,,,green,flipped triangle
0.0,4.0,4.0,0.0,5.0,5.0,368.8918660000126,1.0,0.0,part_2,go,250.0,250.0,1.0,,,,,,,,,blue,triangle
0.0,2.0,2.0,0.0,6.0,6.0,321.5704360000018,1.0,0.0,part_2,go,250.0,250.0,1.0,,,,,,,,,cyan,cross
0.0,8.0,4.0,1.0,6.0,6.0,662.3038409998117,1.0,0.0,part_2,stop,250.0,250.0,3.0,,,,,,,,,orange,diamond
0.0,5.0,1.0,1.0,6.0,6.0,358.8134379997427,1.0,0.0,part_2,stop,250.0,200.0,3.0,,,,,,,,,white,hexagon
0.0,4.0,4.0,0.0,6.0,6.0,362.5529640003151,1.0,0.0,part_2,go,250.0,150.0,1.0,,,,,,,,,blue,triangle
0.0,1.0,1.0,0.0,5.0,5.0,580.9103909996338,1.0,0.0,part_2,go,250.0,150.0,1.0,,,,,,,,,gray,I
0.0,4.0,4.0,0.0,5.0,5.0,596.3836700002503,1.0,0.0,part_2,go,250.0,150.0,1.0,,,,,,,,,blue,triangle
0.0,8.0,4.0,1.0,5.0,5.0,333.9630199998282,1.0,0.0,part_2,stop,250.0,150.0,3.0,,,,,,,,,orange,diamond
0.0,7.0,3.0,1.0,6.0,6.0,333.0111089999263,1.0,0.0,part_2,stop,200.0,150.0,3.0,,,,,,,,,magenta,square
0.0,7.0,3.0,1.0,5.0,0.0,0.0,1.0,0.0,part_2,stop,200.0,100.0,4.0,,,,,,,,,magenta,square
0.0,3.0,3.0,0.0,5.0,5.0,544.3821270000626,1.0,0.0,part_2,go,250.0,100.0,1.0,,,,,,,,,yellow,circle
0.0,7.0,3.0,1.0,5.0,0.0,0.0,1.0,0.0,part_2,stop,250.0,100.0,4.0,,,,,,,,,magenta,square
0.0,8.0,4.0,1.0,5.0,0.0,0.0,1.0,0.0,part_2,stop,300.0,100.0,4.0,,,,,,,,,orange,diamond
0.0,4.0,4.0,0.0,5.0,5.0,590.3122400004577,1.0,0.0,part_2,go,350.0,100.0,1.0,,,,,,,,,blue,triangle
0.0,7.0,3.0,1.0,5.0,5.0,665.8753820001948,1.0,0.0,part_2,go,350.0,100.0,1.0,,,,,,,,,magenta,square
0.0,4.0,4.0,0.0,5.0,5.0,817.7294120005172,1.0,0.0,part_2,go,350.0,100.0,1.0,,,,,,,,,blue,triangle
0.0,4.0,4.0,0.0,6.0,6.0,645.9871400002157,1.0,0.0,part_2,go,350.0,100.0,1.0,,,,,,,,,blue,triangle
0.0,6.0,2.0,1.0,6.0,0.0,0.0,1.0,0.0,part_2,stop,350.0,100.0,4.0,,,,,,,,,green,flipped triangle
0.0,2.0,2.0,0.0,5.0,5.0,703.5018360002141,1.0,0.0,part_2,go,350.0,150.0,1.0,,,,,,,,,cyan,cross
0.0,4.0,4.0,0.0,5.0,5.0,532.7188760002173,1.0,0.0,part_2,go,350.0,150.0,1.0,,,,,,,,,blue,triangle
0.0,5.0,1.0,1.0,5.0,0.0,0.0,1.0,0.0,part_2,stop,350.0,150.0,4.0,,,,,,,,,white,hexagon
0.0,8.0,4.0,1.0,5.0,0.0,0.0,1.0,0.0,part_2,stop,400.0,150.0,4.0,,,,,,,,,orange,diamond
0.0,1.0,1.0,0.0,5.0,5.0,741.4131699997597,1.0,0.0,part_2,go,450.0,150.0,1.0,,,,,,,,,gray,I
0.0,2.0,2.0,0.0,5.0,5.0,705.5392899992512,1.0,0.0,part_2,go,450.0,150.0,1.0,,,,,,,,,cyan,cross
0.0,6.0,2.0,1.0,6.0,0.0,0.0,1.0,0.0,part_2,stop,450.0,150.0,4.0,,,,,,,,,green,flipped triangle
0.0,4.0,4.0,0.0,6.0,6.0,713.308018999669,1.0,0.0,part_2,go,450.0,200.0,1.0,,,,,,,,,blue,triangle
0.0,4.0,4.0,0.0,5.0,5.0,619.9303869998403,1.0,0.0,part_2,go,450.0,200.0,1.0,,,,,,,,,blue,triangle
0.0,7.0,3.0,1.0,6.0,0.0,0.0,1.0,0.0,part_2,stop,450.0,200.0,4.0,,,,,,,,,magenta,square
0.0,5.0,1.0,1.0,5.0,5.0,465.4690690003917,1.0,0.0,part_2,go,450.0,250.0,1.0,,,,,,,,,white,hexagon
0.0,8.0,4.0,1.0,6.0,0.0,0.0,1.0,0.0,part_2,stop,450.0,250.0,4.0,,,,,,,,,orange,diamond
0.0,1.0,1.0,0.0,6.0,6.0,617.8665779998482,1.0,0.0,part_2,go,450.0,300.0,1.0,,,,,,,,,gray,I
0.0,4.0,4.0,0.0,5.0,5.0,849.69228799946,1.0,0.0,part_2,go,450.0,300.0,1.0,,,,,,,,,blue,triangle
0.0,3.0,3.0,0.0,5.0,5.0,485.5954429995108,1.0,0.0,part_2,go,450.0,300.0,1.0,,,,,,,,,yellow,circle
0.0,4.0,4.0,0.0,6.0,6.0,763.1071910000173,1.0,0.0,part_2,go,450.0,300.0,1.0,,,,,,,,,blue,triangle
0.0,7.0,3.0,1.0,5.0,5.0,620.8464369992726,1.0,0.0,part_2,stop,450.0,300.0,3.0,,,,,,,,,magenta,square
0.0,2.0,2.0,0.0,6.0,6.0,732.2919970001749,1.0,0.0,part_2,go,400.0,300.0,1.0,,,,,,,,,cyan,cross
0.0,4.0,4.0,0.0,6.0,6.0,617.2966610001822,2.0,0.0,part_2,go,400.0,300.0,1.0,,,,,,,,,blue,triangle
0.0,4.0,4.0,0.0,6.0,6.0,758.6951650000628,2.0,0.0,part_2,go,400.0,300.0,1.0,,,,,,,,,blue,triangle
0.0,8.0,4.0,1.0,5.0,5.0,863.4321330000603,2.0,0.0,part_2,go,400.0,300.0,1.0,,,,,,,,,orange,diamond
0.0,5.0,1.0,1.0,6.0,0.0,0.0,2.0,0.0,part_2,stop,400.0,300.0,4.0,,,,,,,,,white,hexagon
0.0,6.0,2.0,1.0,6.0,6.0,738.8192690004871,2.0,0.0,part_2,go,400.0,350.0,1.0,,,,,,,,,green,flipped triangle
0.0,6.0,2.0,1.0,5.0,0.0,0.0,2.0,0.0,part_2,stop,400.0,350.0,4.0,,,,,,,,,green,flipped triangle
0.0,4.0,4.0,0.0,5.0,5.0,693.6956220006323,2.0,0.0,part_2,go,450.0,350.0,1.0,,,,,,,,,blue,triangle
0.0,6.0,2.0,1.0,5.0,5.0,568.6019889999443,2.0,0.0,part_2,stop,450.0,350.0,3.0,,,,,,,,,green,flipped triangle
0.0,1.0,1.0,0.0,5.0,5.0,687.4055620000945,2.0,0.0,part_2,go,400.0,350.0,1.0,,,,,,,,,gray,I
0.0,7.0,3.0,1.0,6.0,6.0,759.1836769997826,2.0,0.0,part_2,go,400.0,350.0,1.0,,,,,,,,,magenta,square
0.0,3.0,3.0,0.0,6.0,6.0,608.8992280001548,2.0,0.0,part_2,go,400.0,350.0,1.0,,,,,,,,,yellow,circle
0.0,5.0,1.0,1.0,6.0,0.0,0.0,2.0,0.0,part_2,stop,400.0,350.0,4.0,,,,,,,,,white,hexagon
0.0,5.0,1.0,1.0,5.0,0.0,0.0,2.0,0.0,part_2,stop,400.0,400.0,4.0,,,,,,,,,white,hexagon
0.0,4.0,4.0,0.0,6.0,6.0,685.8860020001885,2.0,0.0,part_2,go,450.0,400.0,1.0,,,,,,,,,blue,triangle
0.0,2.0,2.0,0.0,6.0,6.0,743.107429999327,2.0,0.0,part_2,go,450.0,400.0,1.0,,,,,,,,,cyan,cross
0.0,7.0,3.0,1.0,6.0,0.0,0.0,2.0,0.0,part_2,stop,450.0,400.0,4.0,,,,,,,,,magenta,square
0.0,5.0,1.0,1.0,6.0,6.0,681.9796319996385,2.0,0.0,part_2,go,450.0,450.0,1.0,,,,,,,,,white,hexagon
0.0,3.0,3.0,0.0,6.0,6.0,777.1832510006789,2.0,0.0,part_2,go,450.0,450.0,1.0,,,,,,,,,yellow,circle
0.0,6.0,2.0,1.0,6.0,0.0,0.0,2.0,0.0,part_2,stop,450.0,450.0,4.0,,,,,,,,,green,flipped triangle
0.0,2.0,2.0,0.0,5.0,5.0,749.3104380000659,2.0,0.0,part_2,go,450.0,500.0,1.0,,,,,,,,,cyan,cross
0.0,2.0,2.0,0.0,6.0,6.0,751.0391850000815,2.0,0.0,part_2,go,450.0,500.0,1.0,,,,,,,,,cyan,cross
0.0,7.0,3.0,1.0,5.0,5.0,721.638126000471,2.0,0.0,part_2,go,450.0,500.0,1.0,,,,,,,,,magenta,square
0.0,8.0,4.0,1.0,5.0,0.0,0.0,2.0,0.0,part_2,stop,450.0,500.0,4.0,,,,,,,,,orange,diamond
0.0,5.0,1.0,1.0,5.0,0.0,0.0,2.0,0.0,part_2,stop,500.0,500.0,4.0,,,,,,,,,white,hexagon
0.0,3.0,3.0,0.0,5.0,5.0,712.4129210005776,2.0,0.0,part_2,go,550.0,500.0,1.0,,,,,,,,,yellow,circle
0.0,1.0,1.0,0.0,6.0,6.0,777.0267840005545,2.0,0.0,part_2,go,550.0,500.0,1.0,,,,,,,,,gray,I
0.0,2.0,2.0,0.0,5.0,5.0,758.7407379996876,2.0,0.0,part_2,go,550.0,500.0,1.0,,,,,,,,,cyan,cross
0.0,4.0,4.0,0.0,5.0,5.0,815.9343819997957,2.0,0.0,part_2,go,550.0,500.0,1.0,,,,,,,,,blue,triangle
0.0,3.0,3.0,0.0,6.0,6.0,739.6157390003282,2.0,0.0,part_2,go,550.0,500.0,1.0,,,,,,,,,yellow,circle
0.0,1.0,1.0,0.0,6.0,6.0,779.9348050002664,2.0,0.0,part_2,go,550.0,500.0,1.0,,,,,,,,,gray,I
0.0,7.0,3.0,1.0,6.0,0.0,0.0,2.0,0.0,part_2,stop,550.0,500.0,4.0,,,,,,,,,magenta,square
0.0,6.0,2.0,1.0,6.0,6.0,653.681773000244,2.0,0.0,part_2,stop,550.0,550.0,3.0,,,,,,,,,green,flipped triangle
0.0,8.0,4.0,1.0,5.0,5.0,672.367357999974,2.0,0.0,part_2,go,550.0,500.0,1.0,,,,,,,,,orange,diamond
0.0,3.0,3.0,0.0,5.0,5.0,766.9884179995279,2.0,0.0,part_2,go,550.0,500.0,1.0,,,,,,,,,yellow,circle
0.0,4.0,4.0,0.0,6.0,6.0,845.8017689999906,2.0,0.0,part_2,go,550.0,500.0,1.0,,,,,,,,,blue,triangle
0.0,2.0,2.0,0.0,6.0,6.0,788.8691919997655,2.0,0.0,part_2,go,550.0,500.0,1.0,,,,,,,,,cyan,cross
0.0,1.0,1.0,0.0,6.0,6.0,610.0281859999086,3.0,0.0,part_2,go,550.0,500.0,1.0,,,,,,,,,gray,I
0.0,5.0,1.0,1.0,6.0,6.0,494.4218310001815,3.0,0.0,part_2,stop,550.0,500.0,3.0,,,,,,,,,white,hexagon
0.0,6.0,2.0,1.0,5.0,5.0,694.743586000186,3.0,0.0,part_2,go,550.0,450.0,1.0,,,,,,,,,green,flipped triangle
0.0,2.0,2.0,0.0,5.0,5.0,636.1759459996392,3.0,0.0,part_2,go,550.0,450.0,1.0,,,,,,,,,cyan,cross
0.0,6.0,2.0,1.0,5.0,5.0,708.7249520000114,3.0,0.0,part_2,stop,550.0,450.0,3.0,,,,,,,,,green,flipped triangle
0.0,5.0,1.0,1.0,5.0,0.0,0.0,3.0,0.0,part_2,stop,500.0,450.0,4.0,,,,,,,,,white,hexagon
0.0,1.0,1.0,0.0,5.0,5.0,619.5665880004526,3.0,0.0,part_2,go,550.0,450.0,1.0,,,,,,,,,gray,I
0.0,4.0,4.0,0.0,5.0,5.0,742.5501910001913,3.0,0.0,part_2,go,550.0,450.0,1.0,,,,,,,,,blue,triangle
0.0,7.0,3.0,1.0,5.0,5.0,722.829121000359,3.0,0.0,part_2,go,550.0,450.0,1.0,,,,,,,,,magenta,square
0.0,8.0,4.0,1.0,5.0,5.0,408.6126529991816,3.0,0.0,part_2,stop,550.0,450.0,3.0,,,,,,,,,orange,diamond
0.0,1.0,1.0,0.0,5.0,5.0,656.5960960006123,3.0,0.0,part_2,go,500.0,450.0,1.0,,,,,,,,,gray,I
0.0,3.0,3.0,0.0,5.0,5.0,770.676607000496,3.0,0.0,part_2,go,500.0,450.0,1.0,,,,,,,,,yellow,circle
0.0,2.0,2.0,0.0,5.0,5.0,752.0443039993552,3.0,0.0,part_2,go,500.0,450.0,1.0,,,,,,,,,cyan,cross
0.0,3.0,3.0,0.0,5.0,5.0,826.5092920000825,3.0,0.0,part_2,go,500.0,450.0,1.0,,,,,,,,,yellow,circle
0.0,1.0,1.0,0.0,6.0,6.0,713.3741799998461,3.0,0.0,part_2,go,500.0,450.0,1.0,,,,,,,,,gray,I
0.0,7.0,3.0,1.0,5.0,5.0,720.0393900002382,3.0,0.0,part_2,stop,500.0,450.0,3.0,,,,,,,,,magenta,square
0.0,5.0,1.0,1.0,5.0,0.0,0.0,3.0,0.0,part_2,stop,450.0,450.0,4.0,,,,,,,,,white,hexagon
0.0,2.0,2.0,0.0,5.0,5.0,762.2182639997845,3.0,0.0,part_2,go,500.0,450.0,1.0,,,,,,,,,cyan,cross
0.0,6.0,2.0,1.0,5.0,5.0,702.609742000277,3.0,0.0,part_2,go,500.0,450.0,1.0,,,,,,,,,green,flipped triangle
0.0,8.0,4.0,1.0,5.0,0.0,0.0,3.0,0.0,part_2,stop,500.0,450.0,4.0,,,,,,,,,orange,diamond
0.0,2.0,2.0,0.0,5.0,5.0,703.0921860005037,3.0,0.0,part_2,go,550.0,450.0,1.0,,,,,,,,,cyan,cross
0.0,3.0,3.0,0.0,5.0,5.0,722.924108999905,3.0,0.0,part_2,go,550.0,450.0,1.0,,,,,,,,,yellow,circle
0.0,5.0,1.0,1.0,6.0,6.0,617.1062470002653,3.0,0.0,part_2,stop,550.0,450.0,3.0,,,,,,,,,white,hexagon
0.0,7.0,3.0,1.0,6.0,0.0,0.0,3.0,0.0,part_2,stop,550.0,400.0,4.0,,,,,,,,,magenta,square
0.0,1.0,1.0,0.0,6.0,6.0,533.7705290003214,3.0,0.0,part_2,go,550.0,450.0,1.0,,,,,,,,,gray,I
0.0,3.0,3.0,0.0,6.0,6.0,684.703982999963,3.0,0.0,part_2,go,550.0,450.0,1.0,,,,,,,,,yellow,circle
0.0,2.0,2.0,0.0,5.0,5.0,675.2281470007802,3.0,0.0,part_2,go,550.0,450.0,1.0,,,,,,,,,cyan,cross
0.0,1.0,1.0,0.0,6.0,6.0,730.8920200002831,3.0,0.0,part_2,go,550.0,450.0,1.0,,,,,,,,,gray,I
0.0,5.0,1.0,1.0,6.0,6.0,361.8251130001226,3.0,0.0,part_2,stop,550.0,450.0,3.0,,,,,,,,,white,hexagon
0.0,2.0,2.0,0.0,5.0,5.0,760.5647469999894,3.0,0.0,part_2,go,550.0,400.0,1.0,,,,,,,,,cyan,cross
0.0,3.0,3.0,0.0,5.0,5.0,816.836899000009,3.0,0.0,part_2,go,550.0,400.0,1.0,,,,,,,,,yellow,circle
0.0,6.0,2.0,1.0,5.0,5.0,656.4072600003783,3.0,0.0,part_2,go,550.0,400.0,1.0,,,,,,,,,green,flipped triangle
0.0,3.0,3.0,0.0,6.0,6.0,628.236468999603,3.0,0.0,part_2,go,550.0,400.0,1.0,,,,,,,,,yellow,circle
0.0,2.0,2.0,0.0,5.0,5.0,734.1389060002257,3.0,0.0,part_2,go,550.0,400.0,1.0,,,,,,,,,cyan,cross
0.0,7.0,3.0,1.0,6.0,0.0,0.0,3.0,0.0,part_2,stop,550.0,400.0,4.0,,,,,,,,,magenta,square
0.0,1.0,1.0,0.0,5.0,5.0,715.0667890000477,3.0,0.0,part_2,go,550.0,450.0,1.0,,,,,,,,,gray,I
0.0,6.0,2.0,1.0,5.0,5.0,718.531205000545,4.0,0.0,part_2,stop,550.0,450.0,3.0,,,,,,,,,green,flipped triangle
0.0,2.0,2.0,0.0,6.0,6.0,702.5575419993402,4.0,0.0,part_2,go,500.0,450.0,1.0,,,,,,,,,cyan,cross
0.0,5.0,1.0,1.0,5.0,5.0,667.8351049995399,4.0,0.0,part_2,go,500.0,450.0,1.0,,,,,,,,,white,hexagon
0.0,8.0,4.0,1.0,5.0,5.0,547.8891209995709,4.0,0.0,part_2,stop,500.0,450.0,3.0,,,,,,,,,orange,diamond
0.0,4.0,4.0,0.0,6.0,6.0,627.2368529998857,4.0,0.0,part_2,go,450.0,450.0,1.0,,,,,,,,,blue,triangle
0.0,8.0,4.0,1.0,5.0,5.0,608.1859050000276,4.0,0.0,part_2,go,450.0,450.0,1.0,,,,,,,,,orange,diamond
0.0,1.0,1.0,0.0,5.0,5.0,568.4420380002848,4.0,0.0,part_2,go,450.0,450.0,1.0,,,,,,,,,gray,I
0.0,6.0,2.0,1.0,6.0,6.0,486.7277310004283,4.0,0.0,part_2,stop,450.0,450.0,3.0,,,,,,,,,green,flipped triangle
0.0,5.0,1.0,1.0,5.0,0.0,0.0,4.0,0.0,part_2,stop,450.0,400.0,4.0,,,,,,,,,white,hexagon
0.0,4.0,4.0,0.0,5.0,5.0,598.889094999322,4.0,0.0,part_2,go,500.0,400.0,1.0,,,,,,,,,blue,triangle
0.0,7.0,3.0,1.0,5.0,0.0,0.0,4.0,0.0,part_2,stop,500.0,400.0,4.0,,,,,,,,,magenta,square
0.0,8.0,4.0,1.0,5.0,5.0,702.8545480006869,4.0,0.0,part_2,stop,550.0,400.0,3.0,,,,,,,,,orange,diamond
0.0,8.0,4.0,1.0,5.0,5.0,665.7691760001399,4.0,0.0,part_2,go,500.0,400.0,1.0,,,,,,,,,orange,diamond
0.0,3.0,3.0,0.0,6.0,6.0,714.743305000411,4.0,0.0,part_2,go,500.0,400.0,1.0,,,,,,,,,yellow,circle
0.0,7.0,3.0,1.0,6.0,0.0,0.0,4.0,0.0,part_2,stop,500.0,400.0,4.0,,,,,,,,,magenta,square
0.0,8.0,4.0,1.0,6.0,0.0,0.0,4.0,0.0,part_2,stop,500.0,450.0,4.0,,,,,,,,,orange,diamond
0.0,3.0,3.0,0.0,6.0,6.0,392.3154759995668,4.0,0.0,part_2,go,500.0,500.0,1.0,,,,,,,,,yellow,circle
0.0,3.0,3.0,0.0,6.0,6.0,979.5269200003532,4.0,0.0,part_2,go,500.0,500.0,1.0,,,,,,,,,yellow,circle
0.0,5.0,1.0,1.0,6.0,0.0,0.0,4.0,0.0,part_2,stop,500.0,500.0,4.0,,,,,,,,,white,hexagon
0.0,8.0,4.0,1.0,5.0,0.0,0.0,4.0,0.0,part_2,stop,500.0,550.0,4.0,,,,,,,,,orange,diamond
0.0,5.0,1.0,1.0,6.0,0.0,0.0,4.0,0.0,part_2,stop,550.0,550.0,4.0,,,,,,,,,white,hexagon
0.0,4.0,4.0,0.0,6.0,6.0,418.4943339996607,4.0,0.0,part_2,go,550.0,600.0,1.0,,,,,,,,,blue,triangle
0.0,1.0,1.0,0.0,6.0,6.0,770.0283610001861,4.0,0.0,part_2,go,550.0,600.0,1.0,,,,,,,,,gray,I
0.0,6.0,2.0,1.0,5.0,5.0,457.2665850000703,4.0,0.0,part_2,stop,550.0,600.0,3.0,,,,,,,,,green,flipped triangle
0.0,5.0,1.0,1.0,6.0,6.0,748.7938889998986,4.0,0.0,part_2,stop,500.0,600.0,3.0,,,,,,,,,white,hexagon
0.0,6.0,2.0,1.0,6.0,6.0,667.7896279998095,4.0,0.0,part_2,stop,500.0,550.0,3.0,,,,,,,,,green,flipped triangle
0.0,2.0,2.0,0.0,5.0,5.0,771.7050459996244,4.0,0.0,part_2,go,500.0,500.0,1.0,,,,,,,,,cyan,cross
0.0,2.0,2.0,0.0,6.0,6.0,724.4940319997113,4.0,0.0,part_2,go,500.0,500.0,1.0,,,,,,,,,cyan,cross
0.0,7.0,3.0,1.0,6.0,0.0,0.0,4.0,0.0,part_2,stop,500.0,500.0,4.0,,,,,,,,,magenta,square
0.0,6.0,2.0,1.0,5.0,0.0,0.0,4.0,0.0,part_2,stop,500.0,550.0,4.0,,,,,,,,,green,flipped triangle
0.0,5.0,1.0,1.0,5.0,5.0,560.1927669995348,4.0,0.0,part_2,go,550.0,550.0,1.0,,,,,,,,,white,hexagon
0.0,5.0,1.0,1.0,5.0,5.0,750.5426719999377,4.0,0.0,part_2,stop,550.0,550.0,3.0,,,,,,,,,white,hexagon
0.0,1.0,1.0,0.0,5.0,5.0,997.440387000097,4.0,0.0,part_2,go,500.0,550.0,1.0,,,,,,,,,gray,I
0.0,4.0,4.0,0.0,6.0,6.0,792.5954920001459,4.0,0.0,part_2,go,500.0,550.0,1.0,,,,,,,,,blue,triangle
0.0,2.0,2.0,0.0,6.0,6.0,608.4564820002925,4.0,0.0,part_2,go,500.0,550.0,1.0,,,,,,,,,cyan,cross
0.0,4.0,4.0,0.0,6.0,6.0,599.5709720000377,4.0,0.0,part_2,go,500.0,550.0,1.0,,,,,,,,,blue,triangle
0.0,8.0,4.0,1.0,6.0,6.0,694.2260820005686,5.0,0.0,part_2,go,500.0,550.0,1.0,,,,,,,,,orange,diamond
0.0,6.0,2.0,1.0,6.0,6.0,513.9910269999746,5.0,0.0,part_2,stop,500.0,550.0,3.0,,,,,,,,,green,flipped triangle
0.0,2.0,2.0,0.0,6.0,6.0,759.3928789992788,5.0,0.0,part_2,go,500.0,500.0,1.0,,,,,,,,,cyan,cross
0.0,2.0,2.0,0.0,6.0,6.0,619.7285280004508,5.0,0.0,part_2,go,500.0,500.0,1.0,,,,,,,,,cyan,cross
0.0,5.0,1.0,1.0,5.0,5.0,658.8185990003694,5.0,0.0,part_2,stop,500.0,500.0,3.0,,,,,,,,,white,hexagon
0.0,8.0,4.0,1.0,5.0,0.0,0.0,5.0,0.0,part_2,stop,450.0,500.0,4.0,,,,,,,,,orange,diamond
0.0,6.0,2.0,1.0,6.0,6.0,608.9940570000181,5.0,0.0,part_2,stop,500.0,500.0,3.0,,,,,,,,,green,flipped triangle
0.0,7.0,3.0,1.0,6.0,6.0,779.5397609997963,5.0,0.0,part_2,go,500.0,450.0,1.0,,,,,,,,,magenta,square
0.0,5.0,1.0,1.0,5.0,0.0,0.0,5.0,0.0,part_2,stop,500.0,450.0,4.0,,,,,,,,,white,hexagon
0.0,3.0,3.0,0.0,6.0,6.0,924.2386770001758,5.0,0.0,part_2,go,550.0,450.0,1.0,,,,,,,,,yellow,circle
0.0,1.0,1.0,0.0,6.0,6.0,515.4729159994531,5.0,0.0,part_2,go,550.0,450.0,1.0,,,,,,,,,gray,I
0.0,7.0,3.0,1.0,6.0,0.0,0.0,5.0,0.0,part_2,stop,550.0,450.0,4.0,,,,,,,,,magenta,square
0.0,2.0,2.0,0.0,5.0,5.0,770.701490000647,5.0,0.0,part_2,go,550.0,500.0,1.0,,,,,,,,,cyan,cross
0.0,7.0,3.0,1.0,5.0,0.0,0.0,5.0,0.0,part_2,stop,550.0,500.0,4.0,,,,,,,,,magenta,square
0.0,1.0,1.0,0.0,6.0,6.0,505.7547229998818,5.0,0.0,part_2,go,600.0,500.0,1.0,,,,,,,,,gray,I
0.0,5.0,1.0,1.0,5.0,0.0,0.0,5.0,0.0,part_2,stop,600.0,500.0,4.0,,,,,,,,,white,hexagon
0.0,3.0,3.0,0.0,6.0,6.0,353.2890599999518,5.0,0.0,part_2,go,650.0,500.0,1.0,,,,,,,,,yellow,circle
0.0,3.0,3.0,0.0,6.0,6.0,873.5571849992994,5.0,0.0,part_2,go,650.0,500.0,1.0,,,,,,,,,yellow,circle
0.0,6.0,2.0,1.0,6.0,0.0,0.0,5.0,0.0,part_2,stop,650.0,500.0,4.0,,,,,,,,,green,flipped triangle
0.0,1.0,1.0,0.0,5.0,5.0,428.3706259993778,5.0,0.0,part_2,go,650.0,550.0,1.0,,,,,,,,,gray,I
0.0,4.0,4.0,0.0,5.0,5.0,504.8053089994937,5.0,0.0,part_2,go,650.0,550.0,1.0,,,,,,,,,blue,triangle
0.0,8.0,4.0,1.0,6.0,0.0,0.0,5.0,0.0,part_2,stop,650.0,550.0,4.0,,,,,,,,,orange,diamond
0.0,6.0,2.0,1.0,6.0,6.0,669.5257479996144,5.0,0.0,part_2,stop,650.0,600.0,3.0,,,,,,,,,green,flipped triangle
0.0,4.0,4.0,0.0,6.0,6.0,534.1035459996419,5.0,0.0,part_2,go,650.0,550.0,1.0,,,,,,,,,blue,triangle
0.0,4.0,4.0,0.0,5.0,5.0,493.7586199994257,5.0,0.0,part_2,go,650.0,550.0,1.0,,,,,,,,,blue,triangle
0.0,3.0,3.0,0.0,6.0,6.0,353.9806809994843,5.0,0.0,part_2,go,650.0,550.0,1.0,,,,,,,,,yellow,circle
0.0,7.0,3.0,1.0,5.0,5.0,694.0427440003987,5.0,0.0,part_2,go,650.0,550.0,1.0,,,,,,,,,magenta,square
0.0,3.0,3.0,0.0,6.0,6.0,696.5311570002086,5.0,0.0,part_2,go,650.0,550.0,1.0,,,,,,,,,yellow,circle
0.0,3.0,3.0,0.0,5.0,5.0,961.5142279999418,5.0,0.0,part_2,go,650.0,550.0,1.0,,,,,,,,,yellow,circle
0.0,1.0,1.0,0.0,5.0,5.0,513.9917070000593,5.0,0.0,part_2,go,650.0,550.0,1.0,,,,,,,,,gray,I
0.0,8.0,4.0,1.0,6.0,0.0,0.0,5.0,0.0,part_2,stop,650.0,550.0,4.0,,,,,,,,,orange,diamond
0.0,3.0,3.0,0.0,5.0,5.0,266.3317450005706,5.0,0.0,part_2,go,650.0,600.0,1.0,,,,,,,,,yellow,circle
0.0,3.0,3.0,0.0,6.0,6.0,542.0221559998026,5.0,0.0,part_2,go,650.0,600.0,1.0,,,,,,,,,yellow,circle
0.0,7.0,3.0,1.0,6.0,6.0,723.3126359997186,5.0,0.0,part_2,go,650.0,600.0,1.0,,,,,,,,,magenta,square
0.0,1.0,1.0,0.0,6.0,6.0,447.6594630004911,5.0,0.0,part_2,go,650.0,600.0,1.0,,,,,,,,,gray,I
0.0,5.0,1.0,1.0,5.0,5.0,381.1411159995259,5.0,0.0,part_2,go,650.0,600.0,1.0,,,,,,,,,white,hexagon
0.0,3.0,3.0,0.0,5.0,5.0,388.1057580001652,6.0,0.0,part_2,go,650.0,600.0,1.0,,,,,,,,,yellow,circle
0.0,5.0,1.0,1.0,5.0,5.0,342.0799409996107,6.0,0.0,part_2,stop,650.0,600.0,3.0,,,,,,,,,white,hexagon
0.0,6.0,2.0,1.0,5.0,5.0,466.8095700008052,6.0,0.0,part_2,stop,600.0,600.0,3.0,,,,,,,,,green,flipped triangle
0.0,4.0,4.0,0.0,6.0,6.0,559.1604990004271,6.0,0.0,part_2,go,550.0,600.0,1.0,,,,,,,,,blue,triangle
0.0,7.0,3.0,1.0,5.0,5.0,711.302736000107,6.0,0.0,part_2,stop,550.0,600.0,3.0,,,,,,,,,magenta,square
0.0,6.0,2.0,1.0,6.0,6.0,510.798796999552,6.0,0.0,part_2,stop,500.0,600.0,3.0,,,,,,,,,green,flipped triangle
0.0,1.0,1.0,0.0,6.0,6.0,588.4591539997928,6.0,0.0,part_2,go,500.0,550.0,1.0,,,,,,,,,gray,I
0.0,3.0,3.0,0.0,5.0,5.0,237.2846140006004,6.0,0.0,part_2,go,500.0,550.0,1.0,,,,,,,,,yellow,circle
0.0,2.0,2.0,0.0,6.0,6.0,323.6100330004774,6.0,0.0,part_2,go,500.0,550.0,1.0,,,,,,,,,cyan,cross
0.0,7.0,3.0,1.0,5.0,5.0,554.9026270000468,6.0,0.0,part_2,stop,500.0,550.0,3.0,,,,,,,,,magenta,square
0.0,7.0,3.0,1.0,5.0,5.0,538.2859520004786,6.0,0.0,part_2,stop,450.0,550.0,3.0,,,,,,,,,magenta,square
0.0,6.0,2.0,1.0,5.0,5.0,450.5852629999936,6.0,0.0,part_2,stop,400.0,550.0,3.0,,,,,,,,,green,flipped triangle
0.0,1.0,1.0,0.0,5.0,5.0,435.8722189999753,6.0,0.0,part_2,go,350.0,550.0,1.0,,,,,,,,,gray,I
0.0,7.0,3.0,1.0,5.0,5.0,539.8983009999938,6.0,0.0,part_2,go,350.0,550.0,1.0,,,,,,,,,magenta,square
0.0,6.0,2.0,1.0,5.0,5.0,409.7095179995449,6.0,0.0,part_2,stop,350.0,550.0,3.0,,,,,,,,,green,flipped triangle
0.0,4.0,4.0,0.0,6.0,6.0,511.86816100016586,6.0,0.0,part_2,go,300.0,550.0,1.0,,,,,,,,,blue,triangle
0.0,6.0,2.0,1.0,5.0,0.0,0.0,6.0,0.0,part_2,stop,300.0,550.0,4.0,,,,,,,,,green,flipped triangle
0.0,1.0,1.0,0.0,5.0,5.0,720.2075310005966,6.0,0.0,part_2,go,350.0,550.0,1.0,,,,,,,,,gray,I
0.0,8.0,4.0,1.0,6.0,6.0,671.337628999936,6.0,0.0,part_2,stop,350.0,550.0,3.0,,,,,,,,,orange,diamond
0.0,1.0,1.0,0.0,5.0,5.0,675.8991540000352,6.0,0.0,part_2,go,350.0,500.0,1.0,,,,,,,,,gray,I
0.0,3.0,3.0,0.0,6.0,6.0,692.3284490003425,6.0,0.0,part_2,go,350.0,500.0,1.0,,,,,,,,,yellow,circle
0.0,6.0,2.0,1.0,5.0,5.0,484.1267259998858,6.0,0.0,part_2,go,350.0,500.0,1.0,,,,,,,,,green,flipped triangle
0.0,8.0,4.0,1.0,6.0,0.0,0.0,6.0,0.0,part_2,stop,350.0,500.0,4.0,,,,,,,,,orange,diamond
0.0,4.0,4.0,0.0,6.0,6.0,764.7474579998743,6.0,0.0,part_2,go,350.0,550.0,1.0,,,,,,,,,blue,triangle
0.0,2.0,2.0,0.0,6.0,6.0,408.1910160002735,6.0,0.0,part_2,go,350.0,550.0,1.0,,,,,,,,,cyan,cross
0.0,2.0,2.0,0.0,5.0,5.0,708.803013000761,6.0,0.0,part_2,go,350.0,550.0,1.0,,,,,,,,,cyan,cross
0.0,5.0,1.0,1.0,6.0,6.0,776.1907109997992,6.0,0.0,part_2,go,350.0,550.0,1.0,,,,,,,,,white,hexagon
0.0,5.0,1.0,1.0,5.0,5.0,550.0098689999504,6.0,0.0,part_2,go,350.0,550.0,1.0,,,,,,,,,white,hexagon
0.0,1.0,1.0,0.0,6.0,6.0,645.396360999257,6.0,0.0,part_2,go,350.0,550.0,1.0,,,,,,,,,gray,I
0.0,8.0,4.0,1.0,5.0,5.0,303.6538289998134,6.0,0.0,part_2,stop,350.0,550.0,3.0,,,,,,,,,orange,diamond
0.0,7.0,3.0,1.0,6.0,0.0,0.0,6.0,0.0,part_2,stop,300.0,550.0,4.0,,,,,,,,,magenta,square
0.0,8.0,4.0,1.0,6.0,0.0,0.0,6.0,0.0,part_2,stop,300.0,600.0,4.0,,,,,,,,,orange,diamond
0.0,5.0,1.0,1.0,6.0,6.0,1005.4549099995711,6.0,0.0,part_2,go,300.0,650.0,1.0,,,,,,,,,white,hexagon
0.0,7.0,3.0,1.0,5.0,5.0,374.505302000216,6.0,0.0,part_2,stop,300.0,650.0,3.0,,,,,,,,,magenta,square
0.0,7.0,3.0,1.0,6.0,6.0,625.1735510004437,6.0,0.0,part_2,stop,250.0,650.0,3.0,,,,,,,,,magenta,square
0.0,8.0,4.0,1.0,6.0,6.0,781.231848999596,6.0,0.0,part_2,stop,250.0,600.0,3.0,,,,,,,,,orange,diamond
0.0,6.0,2.0,1.0,6.0,6.0,399.3126939994909,7.0,0.0,part_2,go,250.0,550.0,1.0,,,,,,,,,green,flipped triangle
0.0,5.0,1.0,1.0,6.0,6.0,651.4947690002373,7.0,0.0,part_2,stop,250.0,550.0,3.0,,,,,,,,,white,hexagon
0.0,2.0,2.0,0.0,5.0,5.0,332.9124969995973,7.0,0.0,part_2,go,250.0,500.0,1.0,,,,,,,,,cyan,cross
0.0,1.0,1.0,0.0,5.0,5.0,408.8976980001462,7.0,0.0,part_2,go,250.0,500.0,1.0,,,,,,,,,gray,I
0.0,2.0,2.0,0.0,5.0,5.0,296.6590989999531,7.0,0.0,part_2,go,250.0,500.0,1.0,,,,,,,,,cyan,cross
0.0,3.0,3.0,0.0,5.0,5.0,409.2868890002137,7.0,0.0,part_2,go,250.0,500.0,1.0,,,,,,,,,yellow,circle
0.0,6.0,2.0,1.0,6.0,0.0,0.0,7.0,0.0,part_2,stop,250.0,500.0,4.0,,,,,,,,,green,flipped triangle
0.0,6.0,2.0,1.0,5.0,0.0,0.0,7.0,0.0,part_2,stop,250.0,550.0,4.0,,,,,,,,,green,flipped triangle
0.0,2.0,2.0,0.0,6.0,6.0,742.3792999998113,7.0,0.0,part_2,go,300.0,550.0,1.0,,,,,,,,,cyan,cross
0.0,2.0,2.0,0.0,5.0,5.0,285.9034590001101,7.0,0.0,part_2,go,300.0,550.0,1.0,,,,,,,,,cyan,cross
0.0,3.0,3.0,0.0,5.0,5.0,418.0213249992448,7.0,0.0,part_2,go,300.0,550.0,1.0,,,,,,,,,yellow,circle
0.0,8.0,4.0,1.0,6.0,6.0,389.771311000004,7.0,0.0,part_2,go,300.0,550.0,1.0,,,,,,,,,orange,diamond
0.0,2.0,2.0,0.0,6.0,6.0,484.5433200007392,7.0,0.0,part_2,go,300.0,550.0,1.0,,,,,,,,,cyan,cross
0.0,4.0,4.0,0.0,6.0,6.0,559.8852620005346,7.0,0.0,part_2,go,300.0,550.0,1.0,,,,,,,,,blue,triangle
0.0,2.0,2.0,0.0,6.0,6.0,437.3449080003411,7.0,0.0,part_2,go,300.0,550.0,1.0,,,,,,,,,cyan,cross
0.0,6.0,2.0,1.0,5.0,5.0,665.5897809996532,7.0,0.0,part_2,go,300.0,550.0,1.0,,,,,,,,,green,flipped triangle
0.0,5.0,1.0,1.0,6.0,0.0,0.0,7.0,0.0,part_2,stop,300.0,550.0,4.0,,,,,,,,,white,hexagon
0.0,3.0,3.0,0.0,6.0,6.0,720.1607070001046,7.0,0.0,part_2,go,300.0,600.0,1.0,,,,,,,,,yellow,circle
0.0,8.0,4.0,1.0,6.0,0.0,0.0,7.0,0.0,part_2,stop,300.0,600.0,4.0,,,,,,,,,orange,diamond
0.0,7.0,3.0,1.0,5.0,5.0,863.2158770005844,7.0,0.0,part_2,go,300.0,650.0,1.0,,,,,,,,,magenta,square
0.0,1.0,1.0,0.0,5.0,5.0,533.2732719998603,7.0,0.0,part_2,go,300.0,650.0,1.0,,,,,,,,,gray,I
0.0,1.0,1.0,0.0,5.0,5.0,466.5363109997997,7.0,0.0,part_2,go,300.0,650.0,1.0,,,,,,,,,gray,I
0.0,7.0,3.0,1.0,6.0,6.0,523.489499999414,7.0,0.0,part_2,stop,300.0,650.0,3.0,,,,,,,,,magenta,square
0.0,5.0,1.0,1.0,6.0,6.0,324.6955100003106,7.0,0.0,part_2,stop,300.0,600.0,3.0,,,,,,,,,white,hexagon
0.0,5.0,1.0,1.0,6.0,6.0,799.3000010001197,7.0,0.0,part_2,go,300.0,550.0,1.0,,,,,,,,,white,hexagon
0.0,3.0,3.0,0.0,6.0,6.0,706.9900910000797,7.0,0.0,part_2,go,300.0,550.0,1.0,,,,,,,,,yellow,circle
0.0,1.0,1.0,0.0,6.0,6.0,467.6708769993638,7.0,0.0,part_2,go,300.0,550.0,1.0,,,,,,,,,gray,I
0.0,6.0,2.0,1.0,5.0,0.0,0.0,7.0,0.0,part_2,stop,300.0,550.0,4.0,,,,,,,,,green,flipped triangle
0.0,2.0,2.0,0.0,5.0,5.0,1067.8547969991996,7.0,0.0,part_2,go,350.0,550.0,1.0,,,,,,,,,cyan,cross
0.0,1.0,1.0,0.0,6.0,6.0,552.687338999931,7.0,0.0,part_2,go,350.0,550.0,1.0,,,,,,,,,gray,I
0.0,3.0,3.0,0.0,6.0,6.0,449.1772999999739,7.0,0.0,part_2,go,350.0,550.0,1.0,,,,,,,,,yellow,circle
0.0,8.0,4.0,1.0,6.0,6.0,438.6281100005362,7.0,0.0,part_2,stop,350.0,550.0,3.0,,,,,,,,,orange,diamond
0.0,7.0,3.0,1.0,5.0,0.0,0.0,7.0,0.0,part_2,stop,350.0,500.0,4.0,,,,,,,,,magenta,square
0.0,1.0,1.0,0.0,6.0,6.0,485.2635260003808,7.0,0.0,part_2,go,400.0,500.0,1.0,,,,,,,,,gray,I
0.0,1.0,1.0,0.0,6.0,6.0,465.8581780004169,7.0,0.0,part_2,go,400.0,500.0,1.0,,,,,,,,,gray,I
0.0,4.0,4.0,0.0,5.0,5.0,296.138554999743,7.0,0.0,part_2,go,400.0,500.0,1.0,,,,,,,,,blue,triangle
0.0,2.0,2.0,0.0,6.0,6.0,580.7088299998213,8.0,0.0,part_2,go,400.0,500.0,1.0,,,,,,,,,cyan,cross
0.0,1.0,1.0,0.0,6.0,6.0,313.8094440000714,8.0,0.0,part_2,go,400.0,500.0,1.0,,,,,,,,,gray,I
0.0,3.0,3.0,0.0,5.0,5.0,295.0764759998492,8.0,0.0,part_2,go,400.0,500.0,1.0,,,,,,,,,yellow,circle
0.0,8.0,4.0,1.0,6.0,6.0,856.5796120001323,8.0,0.0,part_2,go,400.0,500.0,1.0,,,,,,,,,orange,diamond
0.0,3.0,3.0,0.0,5.0,5.0,304.5166289994085,8.0,0.0,part_2,go,400.0,500.0,1.0,,,,,,,,,yellow,circle
0.0,8.0,4.0,1.0,6.0,6.0,644.5644949999405,8.0,0.0,part_2,stop,400.0,500.0,3.0,,,,,,,,,orange,diamond
0.0,4.0,4.0,0.0,6.0,6.0,902.4467629997162,8.0,0.0,part_2,go,400.0,450.0,1.0,,,,,,,,,blue,triangle
0.0,2.0,2.0,0.0,6.0,6.0,544.4170509999822,8.0,0.0,part_2,go,400.0,450.0,1.0,,,,,,,,,cyan,cross
0.0,7.0,3.0,1.0,6.0,0.0,0.0,8.0,0.0,part_2,stop,400.0,450.0,4.0,,,,,,,,,magenta,square
0.0,6.0,2.0,1.0,5.0,0.0,0.0,8.0,0.0,part_2,stop,400.0,500.0,4.0,,,,,,,,,green,flipped triangle
0.0,5.0,1.0,1.0,5.0,5.0,551.2022620005155,8.0,0.0,part_2,stop,450.0,500.0,3.0,,,,,,,,,white,hexagon
0.0,3.0,3.0,0.0,5.0,5.0,732.0894750000662,8.0,0.0,part_2,go,400.0,500.0,1.0,,,,,,,,,yellow,circle
0.0,4.0,4.0,0.0,5.0,5.0,380.9324920002837,8.0,0.0,part_2,go,400.0,500.0,1.0,,,,,,,,,blue,triangle
0.0,4.0,4.0,0.0,5.0,5.0,742.0495839996875,8.0,0.0,part_2,go,400.0,500.0,1.0,,,,,,,,,blue,triangle
0.0,8.0,4.0,1.0,6.0,6.0,599.2251279994889,8.0,0.0,part_2,go,400.0,500.0,1.0,,,,,,,,,orange,diamond
0.0,1.0,1.0,0.0,5.0,5.0,350.3074999998716,8.0,0.0,part_2,go,400.0,500.0,1.0,,,,,,,,,gray,I
0.0,7.0,3.0,1.0,5.0,0.0,0.0,8.0,0.0,part_2,stop,400.0,500.0,4.0,,,,,,,,,magenta,square
0.0,5.0,1.0,1.0,5.0,5.0,379.9613979999776,8.0,0.0,part_2,stop,450.0,500.0,3.0,,,,,,,,,white,hexagon
0.0,3.0,3.0,0.0,5.0,5.0,571.1120360001587,8.0,0.0,part_2,go,400.0,500.0,1.0,,,,,,,,,yellow,circle
0.0,8.0,4.0,1.0,5.0,5.0,722.2764359994471,8.0,0.0,part_2,go,400.0,500.0,1.0,,,,,,,,,orange,diamond
0.0,5.0,1.0,1.0,6.0,0.0,0.0,8.0,0.0,part_2,stop,400.0,500.0,4.0,,,,,,,,,white,hexagon
0.0,7.0,3.0,1.0,6.0,0.0,0.0,8.0,0.0,part_2,stop,400.0,550.0,4.0,,,,,,,,,magenta,square
0.0,5.0,1.0,1.0,6.0,0.0,0.0,8.0,0.0,part_2,stop,400.0,600.0,4.0,,,,,,,,,white,hexagon
0.0,1.0,1.0,0.0,5.0,5.0,533.0855759993938,8.0,0.0,part_2,go,400.0,650.0,1.0,,,,,,,,,gray,I
0.0,8.0,4.0,1.0,6.0,6.0,769.6026880003046,8.0,0.0,part_2,stop,400.0,650.0,3.0,,,,,,,,,orange,diamond
0.0,6.0,2.0,1.0,6.0,6.0,1029.0772880007353,8.0,0.0,part_2,go,400.0,600.0,1.0,,,,,,,,,green,flipped triangle
0.0,8.0,4.0,1.0,5.0,5.0,285.5494810000891,8.0,0.0,part_2,stop,400.0,600.0,3.0,,,,,,,,,orange,diamond
0.0,8.0,4.0,1.0,6.0,6.0,649.9475939999684,8.0,0.0,part_2,stop,350.0,600.0,3.0,,,,,,,,,orange,diamond
0.0,6.0,2.0,1.0,6.0,0.0,0.0,8.0,0.0,part_2,stop,350.0,550.0,4.0,,,,,,,,,green,flipped triangle
0.0,2.0,2.0,0.0,6.0,6.0,561.5885079996588,8.0,0.0,part_2,go,350.0,600.0,1.0,,,,,,,,,cyan,cross
0.0,6.0,2.0,1.0,6.0,6.0,742.0079670000632,8.0,0.0,part_2,go,350.0,600.0,1.0,,,,,,,,,green,flipped triangle
0.0,8.0,4.0,1.0,5.0,0.0,0.0,8.0,0.0,part_2,stop,350.0,600.0,4.0,,,,,,,,,orange,diamond
0.0,4.0,4.0,0.0,5.0,5.0,484.5847329997923,8.0,0.0,part_2,go,400.0,600.0,1.0,,,,,,,,,blue,triangle
0.0,6.0,2.0,1.0,6.0,0.0,0.0,8.0,0.0,part_2,stop,400.0,600.0,4.0,,,,,,,,,green,flipped triangle
0.0,4.0,4.0,0.0,5.0,5.0,825.4812239993043,8.0,0.0,part_2,go,400.0,650.0,1.0,,,,,,,,,blue,triangle
0.0,7.0,3.0,1.0,6.0,6.0,789.4564389998777,8.0,0.0,part_2,stop,400.0,650.0,3.0,,,,,,,,,magenta,square
0.0,2.0,2.0,0.0,7.0,5.0,4470.165757000359,1.0,1.0,part_3,go,0.0,0.0,0.0,519.0,3.0,173.0,1038.0,692.0,865.0,519.0,346.0,cyan,cross
0.0,2.0,2.0,0.0,7.0,2.0,4423.8567520005745,1.0,1.0,part_3,go,0.0,0.0,0.0,960.0,5.0,1152.0,960.0,384.0,576.0,192.0,768.0,cyan,cross
0.0,8.0,4.0,1.0,7.0,1.0,4716.908687999421,1.0,1.0,part_3,go,0.0,0.0,0.0,865.0,5.0,865.0,519.0,346.0,1038.0,173.0,692.0,orange,diamond
0.0,6.0,2.0,1.0,7.0,1.0,653.741868999532,1.0,2.0,part_3,go,0.0,0.0,0.0,308.0,2.0,308.0,154.0,770.0,924.0,616.0,462.0,green,flipped triangle
0.0,2.0,2.0,0.0,7.0,4.0,2342.7756030005185,1.0,1.0,part_3,go,0.0,0.0,0.0,540.0,4.0,810.0,270.0,675.0,540.0,135.0,405.0,cyan,cross
0.0,5.0,1.0,1.0,7.0,1.0,2274.7117469998557,1.0,1.0,part_3,go,0.0,0.0,0.0,154.0,1.0,154.0,770.0,462.0,616.0,308.0,924.0,white,hexagon
0.0,7.0,3.0,1.0,7.0,3.0,3019.873223999639,1.0,1.0,part_3,go,0.0,0.0,0.0,580.0,5.0,696.0,232.0,580.0,348.0,116.0,464.0,magenta,square
0.0,8.0,4.0,1.0,7.0,3.0,1947.2157179998248,1.0,1.0,part_3,go,0.0,0.0,0.0,1152.0,6.0,192.0,768.0,1152.0,576.0,384.0,960.0,orange,diamond
0.0,8.0,4.0,1.0,7.0,2.0,1750.5244270005278,1.0,1.0,part_3,go,0.0,0.0,0.0,770.0,5.0,616.0,770.0,462.0,308.0,924.0,154.0,orange,diamond
0.0,7.0,3.0,1.0,7.0,4.0,1412.4753429996415,1.0,1.0,part_3,go,0.0,0.0,0.0,1152.0,6.0,576.0,384.0,192.0,1152.0,960.0,768.0,magenta,square
0.0,1.0,1.0,0.0,7.0,6.0,1748.1295730003694,1.0,1.0,part_3,go,0.0,0.0,0.0,192.0,1.0,384.0,576.0,1152.0,768.0,960.0,192.0,gray,I
0.0,1.0,1.0,0.0,7.0,2.0,1669.9713529997098,1.0,1.0,part_3,go,0.0,0.0,0.0,270.0,2.0,540.0,270.0,405.0,675.0,810.0,135.0,gray,I
0.0,6.0,2.0,1.0,7.0,2.0,1645.9101130003546,1.0,1.0,part_3,go,0.0,0.0,0.0,865.0,5.0,173.0,865.0,692.0,519.0,1038.0,346.0,green,flipped triangle
0.0,3.0,3.0,0.0,7.0,4.0,1862.7472899997883,1.0,1.0,part_3,go,0.0,0.0,0.0,810.0,6.0,135.0,405.0,540.0,810.0,675.0,270.0,yellow,circle
0.0,5.0,1.0,1.0,7.0,3.0,2129.688063000686,1.0,1.0,part_3,go,0.0,0.0,0.0,1038.0,6.0,346.0,519.0,1038.0,173.0,865.0,692.0,white,hexagon
0.0,3.0,3.0,0.0,7.0,5.0,2860.856737999711,1.0,1.0,part_3,go,0.0,0.0,0.0,173.0,1.0,692.0,519.0,1038.0,346.0,173.0,865.0,yellow,circle
0.0,3.0,3.0,0.0,7.0,3.0,3444.478571000218,1.0,1.0,part_3,go,0.0,0.0,0.0,384.0,2.0,576.0,768.0,384.0,960.0,192.0,1152.0,yellow,circle
0.0,8.0,4.0,1.0,7.0,1.0,1954.784185999415,1.0,1.0,part_3,go,0.0,0.0,0.0,696.0,6.0,696.0,116.0,464.0,232.0,348.0,580.0,orange,diamond
0.0,7.0,3.0,1.0,7.0,4.0,2134.1380690000733,1.0,1.0,part_3,go,0.0,0.0,0.0,924.0,6.0,770.0,308.0,616.0,924.0,462.0,154.0,magenta,square
0.0,1.0,1.0,0.0,7.0,4.0,2267.388681999364,1.0,1.0,part_3,go,0.0,0.0,0.0,519.0,3.0,346.0,692.0,1038.0,519.0,865.0,173.0,gray,I
0.0,2.0,2.0,0.0,7.0,2.0,1527.001815999938,2.0,1.0,part_3,go,0.0,0.0,0.0,346.0,2.0,1038.0,346.0,173.0,865.0,519.0,692.0,cyan,cross
0.0,3.0,3.0,0.0,7.0,1.0,1404.2055859999891,2.0,1.0,part_3,go,0.0,0.0,0.0,116.0,1.0,116.0,232.0,696.0,580.0,464.0,348.0,yellow,circle
0.0,3.0,3.0,0.0,7.0,1.0,1498.9181930004634,2.0,1.0,part_3,go,0.0,0.0,0.0,384.0,2.0,384.0,192.0,960.0,576.0,768.0,1152.0,yellow,circle
0.0,4.0,4.0,0.0,7.0,3.0,1830.4563749998124,2.0,1.0,part_3,go,0.0,0.0,0.0,810.0,6.0,270.0,135.0,810.0,675.0,540.0,405.0,blue,triangle
0.0,7.0,3.0,1.0,7.0,4.0,1574.658718000137,2.0,1.0,part_3,go,0.0,0.0,0.0,924.0,6.0,308.0,462.0,616.0,924.0,154.0,770.0,magenta,square
0.0,1.0,1.0,0.0,7.0,2.0,1234.7112269999343,2.0,1.0,part_3,go,0.0,0.0,0.0,540.0,4.0,810.0,540.0,135.0,270.0,675.0,405.0,gray,I
0.0,5.0,1.0,1.0,7.0,5.0,1460.423331000129,2.0,1.0,part_3,go,0.0,0.0,0.0,770.0,5.0,616.0,462.0,924.0,154.0,770.0,308.0,white,hexagon
0.0,6.0,2.0,1.0,7.0,3.0,1653.3944339998925,2.0,1.0,part_3,go,0.0,0.0,0.0,540.0,4.0,135.0,405.0,540.0,810.0,270.0,675.0,green,flipped triangle
0.0,6.0,2.0,1.0,7.0,5.0,1641.4530239999294,2.0,1.0,part_3,go,0.0,0.0,0.0,675.0,5.0,270.0,405.0,540.0,135.0,675.0,810.0,green,flipped triangle
0.0,4.0,4.0,0.0,7.0,1.0,972.4197939995064,2.0,1.0,part_3,go,0.0,0.0,0.0,960.0,5.0,960.0,192.0,576.0,384.0,768.0,1152.0,blue,triangle
0.0,5.0,1.0,1.0,7.0,2.0,1253.385259999959,2.0,1.0,part_3,go,0.0,0.0,0.0,540.0,4.0,135.0,540.0,675.0,405.0,810.0,270.0,white,hexagon
0.0,2.0,2.0,0.0,7.0,2.0,1697.78032800059,2.0,1.0,part_3,go,0.0,0.0,0.0,924.0,6.0,770.0,924.0,616.0,462.0,154.0,308.0,cyan,cross
0.0,8.0,4.0,1.0,7.0,5.0,1244.491067999661,2.0,1.0,part_3,go,0.0,0.0,0.0,405.0,3.0,270.0,810.0,540.0,675.0,405.0,135.0,orange,diamond
0.0,2.0,2.0,0.0,7.0,1.0,1335.061532000509,2.0,1.0,part_3,go,0.0,0.0,0.0,696.0,6.0,696.0,348.0,464.0,232.0,580.0,116.0,cyan,cross
0.0,1.0,1.0,0.0,7.0,3.0,1089.625427000101,2.0,1.0,part_3,go,0.0,0.0,0.0,770.0,5.0,154.0,462.0,770.0,924.0,308.0,616.0,gray,I
0.0,5.0,1.0,1.0,7.0,6.0,1613.5707539997384,2.0,1.0,part_3,go,0.0,0.0,0.0,173.0,1.0,519.0,1038.0,865.0,346.0,692.0,173.0,white,hexagon
0.0,4.0,4.0,0.0,7.0,5.0,1048.0437969999912,2.0,1.0,part_3,go,0.0,0.0,0.0,464.0,4.0,348.0,116.0,232.0,580.0,464.0,696.0,blue,triangle
0.0,8.0,4.0,1.0,7.0,2.0,1407.6217820002055,2.0,1.0,part_3,go,0.0,0.0,0.0,464.0,4.0,232.0,464.0,348.0,116.0,696.0,580.0,orange,diamond
0.0,6.0,2.0,1.0,7.0,5.0,1395.0707929998316,2.0,1.0,part_3,go,0.0,0.0,0.0,173.0,1.0,865.0,346.0,519.0,692.0,173.0,1038.0,green,flipped triangle
0.0,3.0,3.0,0.0,7.0,3.0,1490.1239519995215,2.0,1.0,part_3,go,0.0,0.0,0.0,924.0,6.0,616.0,308.0,924.0,770.0,462.0,154.0,yellow,circle
0.0,4.0,4.0,0.0,7.0,1.0,726.2084419999155,3.0,1.0,part_3,go,0.0,0.0,0.0,924.0,6.0,924.0,770.0,616.0,154.0,308.0,462.0,blue,triangle
0.0,1.0,1.0,0.0,7.0,5.0,914.349714999844,3.0,1.0,part_3,go,0.0,0.0,0.0,116.0,1.0,348.0,580.0,464.0,696.0,116.0,232.0,gray,I
0.0,4.0,4.0,0.0,7.0,2.0,1479.448037000111,3.0,1.0,part_3,go,0.0,0.0,0.0,1152.0,6.0,576.0,1152.0,960.0,384.0,192.0,768.0,blue,triangle
0.0,1.0,1.0,0.0,7.0,4.0,1272.857725999529,3.0,1.0,part_3,go,0.0,0.0,0.0,616.0,4.0,308.0,462.0,154.0,616.0,770.0,924.0,gray,I
0.0,8.0,4.0,1.0,7.0,3.0,1189.5865409996986,3.0,1.0,part_3,go,0.0,0.0,0.0,1152.0,6.0,576.0,192.0,1152.0,960.0,768.0,384.0,orange,diamond
0.0,5.0,1.0,1.0,7.0,1.0,660.5120190006346,3.0,1.0,part_3,go,0.0,0.0,0.0,576.0,3.0,576.0,1152.0,192.0,960.0,384.0,768.0,white,hexagon
0.0,2.0,2.0,0.0,7.0,5.0,1077.6264910000464,3.0,1.0,part_3,go,0.0,0.0,0.0,384.0,2.0,576.0,192.0,960.0,1152.0,384.0,768.0,cyan,cross
0.0,5.0,1.0,1.0,7.0,4.0,1464.914592000241,3.0,1.0,part_3,go,0.0,0.0,0.0,696.0,6.0,232.0,348.0,580.0,696.0,464.0,116.0,white,hexagon
0.0,7.0,3.0,1.0,7.0,2.0,1103.284062000057,3.0,1.0,part_3,go,0.0,0.0,0.0,519.0,3.0,346.0,519.0,692.0,173.0,865.0,1038.0,magenta,square
0.0,1.0,1.0,0.0,7.0,1.0,887.1294359996682,3.0,1.0,part_3,go,0.0,0.0,0.0,768.0,4.0,768.0,192.0,960.0,384.0,576.0,1152.0,gray,I
0.0,4.0,4.0,0.0,7.0,5.0,744.9247450003895,3.0,1.0,part_3,go,0.0,0.0,0.0,616.0,4.0,154.0,770.0,924.0,308.0,616.0,462.0,blue,triangle
0.0,1.0,1.0,0.0,7.0,5.0,2635.712440000134,3.0,1.0,part_3,go,0.0,0.0,0.0,346.0,2.0,1038.0,519.0,692.0,173.0,346.0,865.0,gray,I
0.0,5.0,1.0,1.0,7.0,2.0,1605.0170440003058,3.0,1.0,part_3,go,0.0,0.0,0.0,1152.0,6.0,768.0,1152.0,384.0,960.0,576.0,192.0,white,hexagon
0.0,5.0,1.0,1.0,7.0,3.0,1397.9337480004688,3.0,1.0,part_3,go,0.0,0.0,0.0,270.0,2.0,135.0,675.0,270.0,540.0,810.0,405.0,white,hexagon
0.0,1.0,1.0,0.0,7.0,1.0,1077.9649159994733,3.0,1.0,part_3,go,0.0,0.0,0.0,696.0,6.0,696.0,580.0,348.0,232.0,464.0,116.0,gray,I
0.0,7.0,3.0,1.0,7.0,4.0,1784.3903339999088,3.0,1.0,part_3,go,0.0,0.0,0.0,116.0,1.0,580.0,232.0,696.0,116.0,348.0,464.0,magenta,square
0.0,7.0,3.0,1.0,7.0,1.0,1878.326040000502,3.0,1.0,part_3,go,0.0,0.0,0.0,810.0,6.0,810.0,675.0,540.0,405.0,135.0,270.0,magenta,square
0.0,2.0,2.0,0.0,7.0,2.0,916.4420670003892,3.0,1.0,part_3,go,0.0,0.0,0.0,540.0,4.0,270.0,540.0,675.0,405.0,135.0,810.0,cyan,cross
0.0,7.0,3.0,1.0,7.0,4.0,2643.990231999851,3.0,1.0,part_3,go,0.0,0.0,0.0,384.0,2.0,960.0,1152.0,576.0,384.0,768.0,192.0,magenta,square
0.0,3.0,3.0,0.0,7.0,1.0,885.8273830001053,3.0,1.0,part_3,go,0.0,0.0,0.0,135.0,1.0,135.0,270.0,540.0,675.0,405.0,810.0,yellow,circle
0.0,6.0,2.0,1.0,7.0,1.0,915.7379870002842,4.0,1.0,part_3,go,0.0,0.0,0.0,384.0,2.0,384.0,192.0,960.0,1152.0,576.0,768.0,green,flipped triangle
0.0,7.0,3.0,1.0,7.0,1.0,857.6418470001954,4.0,1.0,part_3,go,0.0,0.0,0.0,1038.0,6.0,1038.0,692.0,346.0,519.0,173.0,865.0,magenta,square
0.0,5.0,1.0,1.0,7.0,2.0,989.4098120003036,4.0,1.0,part_3,go,0.0,0.0,0.0,116.0,1.0,464.0,116.0,696.0,580.0,232.0,348.0,white,hexagon
0.0,4.0,4.0,0.0,7.0,5.0,1072.9908920002345,4.0,1.0,part_3,go,0.0,0.0,0.0,692.0,4.0,173.0,865.0,1038.0,519.0,692.0,346.0,blue,triangle
0.0,4.0,4.0,0.0,7.0,3.0,1663.2789169998432,4.0,1.0,part_3,go,0.0,0.0,0.0,270.0,2.0,810.0,675.0,270.0,405.0,135.0,540.0,blue,triangle
0.0,8.0,4.0,1.0,7.0,1.0,803.4497479993661,4.0,1.0,part_3,go,0.0,0.0,0.0,462.0,3.0,462.0,770.0,924.0,616.0,308.0,154.0,orange,diamond
0.0,7.0,3.0,1.0,7.0,2.0,1482.845231000283,4.0,1.0,part_3,go,0.0,0.0,0.0,135.0,1.0,675.0,135.0,810.0,270.0,540.0,405.0,magenta,square
0.0,6.0,2.0,1.0,7.0,3.0,1890.13015799992,4.0,1.0,part_3,go,0.0,0.0,0.0,348.0,3.0,580.0,696.0,348.0,116.0,464.0,232.0,green,flipped triangle
0.0,2.0,2.0,0.0,7.0,5.0,1621.62158800038,4.0,1.0,part_3,go,0.0,0.0,0.0,616.0,4.0,308.0,154.0,924.0,770.0,616.0,462.0,cyan,cross
0.0,6.0,2.0,1.0,7.0,2.0,1408.1905170005484,4.0,1.0,part_3,go,0.0,0.0,0.0,580.0,5.0,232.0,580.0,696.0,464.0,348.0,116.0,green,flipped triangle
0.0,3.0,3.0,0.0,7.0,3.0,1700.0143210007082,4.0,1.0,part_3,go,0.0,0.0,0.0,154.0,1.0,924.0,462.0,154.0,616.0,308.0,770.0,yellow,circle
0.0,4.0,4.0,0.0,7.0,1.0,1049.1581700007373,4.0,1.0,part_3,go,0.0,0.0,0.0,464.0,4.0,464.0,580.0,232.0,348.0,116.0,696.0,blue,triangle
0.0,8.0,4.0,1.0,7.0,4.0,1367.9373730001316,4.0,1.0,part_3,go,0.0,0.0,0.0,865.0,5.0,346.0,519.0,173.0,865.0,692.0,1038.0,orange,diamond
0.0,3.0,3.0,0.0,7.0,1.0,1379.7187459995257,4.0,1.0,part_3,go,0.0,0.0,0.0,348.0,3.0,348.0,464.0,116.0,580.0,696.0,232.0,yellow,circle
0.0,3.0,3.0,0.0,7.0,4.0,2196.570494000298,4.0,1.0,part_3,go,0.0,0.0,0.0,519.0,3.0,173.0,865.0,346.0,519.0,692.0,1038.0,yellow,circle
0.0,8.0,4.0,1.0,7.0,1.0,1104.7614249991966,4.0,1.0,part_3,go,0.0,0.0,0.0,540.0,4.0,540.0,135.0,675.0,405.0,270.0,810.0,orange,diamond
0.0,4.0,4.0,0.0,7.0,5.0,2484.277972999734,4.0,1.0,part_3,go,0.0,0.0,0.0,173.0,1.0,346.0,865.0,519.0,692.0,173.0,1038.0,blue,triangle
0.0,2.0,2.0,0.0,7.0,6.0,2200.605758000165,4.0,1.0,part_3,go,0.0,0.0,0.0,580.0,5.0,232.0,464.0,116.0,348.0,696.0,580.0,cyan,cross
0.0,6.0,2.0,1.0,7.0,3.0,1394.236491000811,4.0,1.0,part_3,go,0.0,0.0,0.0,924.0,6.0,308.0,462.0,924.0,616.0,770.0,154.0,green,flipped triangle
0.0,6.0,2.0,1.0,7.0,1.0,1190.6881840004644,4.0,1.0,part_3,go,0.0,0.0,0.0,576.0,3.0,576.0,384.0,192.0,960.0,1152.0,768.0,green,flipped triangle
