raw_reward_magnitude,stim_reward,stepwise_reward_magnitude,paired_with_stopping,stim_location,response,reaction_time,block,num_trial_presentations,which_phase,stop_signal_trial_type,left_SSD,right_SSD,accuracy,chosen_bidding_amount,chosen_bidding_level,possible_bid_1,possible_bid_2,possible_bid_3,possible_bid_4,possible_bid_5,possible_bid_6,color_text,shape_text
0.0,1.0,0.0,0.0,3.0,3.0,398.0965520004247,1.0,2.0,phase_1,,,,,,,,,,,,,orange,cross
630.0,7.0,3.0,1.0,4.0,4.0,367.5064779999957,1.0,1.0,phase_1,,,,,,,,,,,,,cyan,diamond
1317.0,8.0,4.0,1.0,3.0,3.0,386.2435589999222,1.0,1.0,phase_1,,,,,,,,,,,,,green,triangle
641.0,3.0,3.0,0.0,2.0,2.0,435.9135099984996,1.0,1.0,phase_1,,,,,,,,,,,,,magenta,square
630.0,3.0,3.0,0.0,1.0,1.0,473.9876270014065,1.0,1.0,phase_1,,,,,,,,,,,,,magenta,square
155.0,1.0,1.0,0.0,3.0,3.0,330.3894340006081,1.0,1.0,phase_1,,,,,,,,,,,,,orange,cross
0.0,7.0,0.0,1.0,2.0,2.0,386.4953009997407,1.0,1.0,phase_1,,,,,,,,,,,,,cyan,diamond
321.0,6.0,2.0,1.0,2.0,2.0,539.0797580002982,1.0,1.0,phase_1,,,,,,,,,,,,,white,I
1303.0,4.0,4.0,0.0,4.0,4.0,489.529370001037,1.0,1.0,phase_1,,,,,,,,,,,,,gray,flipped triangle
1297.0,4.0,4.0,0.0,1.0,1.0,492.2755760017026,1.0,1.0,phase_1,,,,,,,,,,,,,gray,flipped triangle
181.0,1.0,1.0,0.0,1.0,1.0,376.3703959994018,1.0,1.0,phase_1,,,,,,,,,,,,,orange,cross
181.0,5.0,1.0,1.0,4.0,4.0,453.3289179998974,1.0,1.0,phase_1,,,,,,,,,,,,,yellow,hexagon
167.0,5.0,1.0,1.0,3.0,3.0,313.4580610003468,1.0,1.0,phase_1,,,,,,,,,,,,,yellow,hexagon
184.0,5.0,1.0,1.0,3.0,3.0,398.1234630009567,1.0,1.0,phase_1,,,,,,,,,,,,,yellow,hexagon
1320.0,8.0,4.0,1.0,3.0,3.0,321.7019519997848,1.0,1.0,phase_1,,,,,,,,,,,,,green,triangle
0.0,6.0,0.0,1.0,2.0,2.0,405.7481680010824,1.0,1.0,phase_1,,,,,,,,,,,,,white,I
1279.0,4.0,4.0,0.0,4.0,4.0,436.8309199999203,1.0,1.0,phase_1,,,,,,,,,,,,,gray,flipped triangle
160.0,1.0,1.0,0.0,2.0,2.0,531.6875060016173,1.0,1.0,phase_1,,,,,,,,,,,,,orange,cross
0.0,3.0,0.0,0.0,2.0,2.0,387.4128779989405,1.0,1.0,phase_1,,,,,,,,,,,,,magenta,square
1283.0,4.0,4.0,0.0,4.0,4.0,331.3524229997711,1.0,1.0,phase_1,,,,,,,,,,,,,gray,flipped triangle
186.0,1.0,1.0,0.0,1.0,1.0,387.5410660002671,1.0,1.0,phase_1,,,,,,,,,,,,,orange,cross
0.0,8.0,0.0,1.0,4.0,4.0,429.8691610001697,1.0,1.0,phase_1,,,,,,,,,,,,,green,triangle
310.0,6.0,2.0,1.0,2.0,2.0,321.192310000697,1.0,1.0,phase_1,,,,,,,,,,,,,white,I
164.0,1.0,1.0,0.0,2.0,2.0,376.713624000331,1.0,1.0,phase_1,,,,,,,,,,,,,orange,cross
145.0,5.0,1.0,1.0,2.0,2.0,444.9449670009926,1.0,1.0,phase_1,,,,,,,,,,,,,yellow,hexagon
0.0,1.0,0.0,0.0,3.0,3.0,519.9483610012976,1.0,1.0,phase_1,,,,,,,,,,,,,orange,cross
335.0,6.0,2.0,1.0,1.0,1.0,416.0497950015269,1.0,2.0,phase_1,,,,,,,,,,,,,white,I
150.0,5.0,1.0,1.0,2.0,2.0,499.7256320002634,1.0,1.0,phase_1,,,,,,,,,,,,,yellow,hexagon
662.0,3.0,3.0,0.0,4.0,4.0,416.3771869989432,1.0,1.0,phase_1,,,,,,,,,,,,,magenta,square
0.0,7.0,0.0,1.0,4.0,4.0,416.7831279992242,1.0,1.0,phase_1,,,,,,,,,,,,,cyan,diamond
153.0,1.0,1.0,0.0,1.0,1.0,434.9468039999919,1.0,1.0,phase_1,,,,,,,,,,,,,orange,cross
0.0,1.0,0.0,0.0,4.0,4.0,396.9412939986796,1.0,1.0,phase_1,,,,,,,,,,,,,orange,cross
165.0,5.0,1.0,1.0,4.0,4.0,368.5234660006244,1.0,1.0,phase_1,,,,,,,,,,,,,yellow,hexagon
312.0,2.0,2.0,0.0,1.0,1.0,435.3918910001084,1.0,1.0,phase_1,,,,,,,,,,,,,blue,circle
0.0,3.0,0.0,0.0,3.0,3.0,415.6136689998675,1.0,1.0,phase_1,,,,,,,,,,,,,magenta,square
665.0,3.0,3.0,0.0,1.0,1.0,557.4317390000942,1.0,1.0,phase_1,,,,,,,,,,,,,magenta,square
1313.0,8.0,4.0,1.0,4.0,4.0,370.0366229986684,1.0,1.0,phase_1,,,,,,,,,,,,,green,triangle
1320.0,4.0,4.0,0.0,3.0,3.0,387.1560059997136,1.0,1.0,phase_1,,,,,,,,,,,,,gray,flipped triangle
1319.0,4.0,4.0,0.0,3.0,3.0,379.6534279990737,1.0,1.0,phase_1,,,,,,,,,,,,,gray,flipped triangle
1277.0,4.0,4.0,0.0,3.0,3.0,368.0824329985626,1.0,1.0,phase_1,,,,,,,,,,,,,gray,flipped triangle
0.0,8.0,0.0,1.0,1.0,1.0,358.8532529993244,1.0,2.0,phase_1,,,,,,,,,,,,,green,triangle
339.0,2.0,2.0,0.0,2.0,2.0,624.6747259992844,1.0,1.0,phase_1,,,,,,,,,,,,,blue,circle
654.0,3.0,3.0,0.0,3.0,3.0,332.2254209997481,1.0,1.0,phase_1,,,,,,,,,,,,,magenta,square
147.0,5.0,1.0,1.0,2.0,2.0,427.2896099992067,1.0,1.0,phase_1,,,,,,,,,,,,,yellow,hexagon
153.0,5.0,1.0,1.0,2.0,2.0,378.4736929992505,1.0,1.0,phase_1,,,,,,,,,,,,,yellow,hexagon
0.0,2.0,0.0,0.0,3.0,3.0,426.4095139988058,1.0,1.0,phase_1,,,,,,,,,,,,,blue,circle
1317.0,8.0,4.0,1.0,4.0,4.0,340.3942400000233,1.0,1.0,phase_1,,,,,,,,,,,,,green,triangle
139.0,5.0,1.0,1.0,2.0,2.0,758.3424799995555,1.0,1.0,phase_1,,,,,,,,,,,,,yellow,hexagon
1320.0,8.0,4.0,1.0,2.0,2.0,379.9601730006543,1.0,1.0,phase_1,,,,,,,,,,,,,green,triangle
1300.0,4.0,4.0,0.0,1.0,1.0,518.8953880006011,1.0,1.0,phase_1,,,,,,,,,,,,,gray,flipped triangle
655.0,3.0,3.0,0.0,3.0,3.0,577.5392629984708,1.0,1.0,phase_1,,,,,,,,,,,,,magenta,square
158.0,5.0,1.0,1.0,1.0,1.0,529.5254709999426,1.0,1.0,phase_1,,,,,,,,,,,,,yellow,hexagon
1305.0,4.0,4.0,0.0,4.0,4.0,501.12293700112787,1.0,1.0,phase_1,,,,,,,,,,,,,gray,flipped triangle
320.0,2.0,2.0,0.0,1.0,1.0,386.4323210000293,1.0,1.0,phase_1,,,,,,,,,,,,,blue,circle
640.0,3.0,3.0,0.0,1.0,1.0,479.4319680004264,1.0,2.0,phase_1,,,,,,,,,,,,,magenta,square
164.0,5.0,1.0,1.0,4.0,4.0,548.7760579999303,1.0,1.0,phase_1,,,,,,,,,,,,,yellow,hexagon
0.0,6.0,0.0,1.0,4.0,4.0,397.3014869989129,1.0,1.0,phase_1,,,,,,,,,,,,,white,I
661.0,7.0,3.0,1.0,2.0,2.0,577.9788460004056,1.0,1.0,phase_1,,,,,,,,,,,,,cyan,diamond
1283.0,8.0,4.0,1.0,1.0,1.0,463.976190001631,1.0,1.0,phase_1,,,,,,,,,,,,,green,triangle
0.0,1.0,0.0,0.0,4.0,4.0,464.0116069986106,1.0,1.0,phase_1,,,,,,,,,,,,,orange,cross
0.0,8.0,0.0,1.0,3.0,3.0,437.0302339993941,1.0,1.0,phase_1,,,,,,,,,,,,,green,triangle
641.0,7.0,3.0,1.0,3.0,3.0,466.2589769995975,1.0,1.0,phase_1,,,,,,,,,,,,,cyan,diamond
672.0,7.0,3.0,1.0,4.0,4.0,437.132641000062,1.0,1.0,phase_1,,,,,,,,,,,,,cyan,diamond
306.0,2.0,2.0,0.0,4.0,4.0,521.0273440006858,1.0,1.0,phase_1,,,,,,,,,,,,,blue,circle
0.0,6.0,0.0,1.0,2.0,2.0,822.1514059987385,1.0,1.0,phase_1,,,,,,,,,,,,,white,I
631.0,7.0,3.0,1.0,3.0,3.0,396.0206540014042,1.0,1.0,phase_1,,,,,,,,,,,,,cyan,diamond
305.0,6.0,2.0,1.0,4.0,4.0,505.8529230009299,1.0,1.0,phase_1,,,,,,,,,,,,,white,I
346.0,6.0,2.0,1.0,3.0,3.0,473.8390940001409,1.0,1.0,phase_1,,,,,,,,,,,,,white,I
643.0,3.0,3.0,0.0,2.0,2.0,548.5530940004537,1.0,1.0,phase_1,,,,,,,,,,,,,magenta,square
310.0,2.0,2.0,0.0,3.0,3.0,453.9615720004804,1.0,1.0,phase_1,,,,,,,,,,,,,blue,circle
1305.0,4.0,4.0,0.0,2.0,2.0,416.5908660015702,1.0,1.0,phase_1,,,,,,,,,,,,,gray,flipped triangle
672.0,3.0,3.0,0.0,4.0,4.0,339.4608779999544,1.0,1.0,phase_1,,,,,,,,,,,,,magenta,square
0.0,7.0,0.0,1.0,4.0,4.0,377.1855189988855,1.0,1.0,phase_1,,,,,,,,,,,,,cyan,diamond
302.0,2.0,2.0,0.0,4.0,4.0,385.4216130002896,1.0,1.0,phase_1,,,,,,,,,,,,,blue,circle
0.0,3.0,0.0,0.0,2.0,2.0,593.3061239993549,1.0,1.0,phase_1,,,,,,,,,,,,,magenta,square
167.0,1.0,1.0,0.0,3.0,3.0,358.3890740010247,1.0,1.0,phase_1,,,,,,,,,,,,,orange,cross
648.0,7.0,3.0,1.0,3.0,3.0,395.1703589991666,1.0,1.0,phase_1,,,,,,,,,,,,,cyan,diamond
305.0,2.0,2.0,0.0,1.0,1.0,483.9630379992741,1.0,1.0,phase_1,,,,,,,,,,,,,blue,circle
630.0,3.0,3.0,0.0,3.0,3.0,377.7508129987836,1.0,1.0,phase_1,,,,,,,,,,,,,magenta,square
0.0,5.0,0.0,1.0,3.0,3.0,388.6982799995166,1.0,1.0,phase_1,,,,,,,,,,,,,yellow,hexagon
1277.0,8.0,4.0,1.0,3.0,3.0,482.599688000846,1.0,1.0,phase_1,,,,,,,,,,,,,green,triangle
0.0,4.0,0.0,0.0,2.0,2.0,463.3581660000345,1.0,2.0,phase_1,,,,,,,,,,,,,gray,flipped triangle
158.0,1.0,1.0,0.0,4.0,4.0,405.8806869998079,1.0,1.0,phase_1,,,,,,,,,,,,,orange,cross
301.0,6.0,2.0,1.0,3.0,3.0,415.6694749999587,1.0,1.0,phase_1,,,,,,,,,,,,,white,I
1299.0,8.0,4.0,1.0,1.0,1.0,386.2949120011762,1.0,1.0,phase_1,,,,,,,,,,,,,green,triangle
166.0,5.0,1.0,1.0,4.0,4.0,474.4139859994902,1.0,1.0,phase_1,,,,,,,,,,,,,yellow,hexagon
182.0,1.0,1.0,0.0,1.0,1.0,583.2553470008861,1.0,1.0,phase_1,,,,,,,,,,,,,orange,cross
321.0,2.0,2.0,0.0,3.0,3.0,443.8924650003173,1.0,1.0,phase_1,,,,,,,,,,,,,blue,circle
315.0,2.0,2.0,0.0,2.0,2.0,491.3788249996287,1.0,1.0,phase_1,,,,,,,,,,,,,blue,circle
0.0,3.0,0.0,0.0,4.0,4.0,483.8338710014795,1.0,1.0,phase_1,,,,,,,,,,,,,magenta,square
0.0,2.0,0.0,0.0,4.0,4.0,370.5602879999787,1.0,1.0,phase_1,,,,,,,,,,,,,blue,circle
0.0,5.0,0.0,1.0,3.0,3.0,368.4318149989849,1.0,1.0,phase_1,,,,,,,,,,,,,yellow,hexagon
0.0,5.0,0.0,1.0,1.0,1.0,501.9089299985353,1.0,1.0,phase_1,,,,,,,,,,,,,yellow,hexagon
330.0,2.0,2.0,0.0,3.0,3.0,376.5711260002717,1.0,1.0,phase_1,,,,,,,,,,,,,blue,circle
345.0,6.0,2.0,1.0,1.0,1.0,472.4505140002293,1.0,1.0,phase_1,,,,,,,,,,,,,white,I
148.0,5.0,1.0,1.0,4.0,4.0,452.9900199995609,1.0,1.0,phase_1,,,,,,,,,,,,,yellow,hexagon
1320.0,8.0,4.0,1.0,3.0,3.0,414.2347350007185,1.0,1.0,phase_1,,,,,,,,,,,,,green,triangle
636.0,3.0,3.0,0.0,3.0,3.0,320.4379620001418,1.0,1.0,phase_1,,,,,,,,,,,,,magenta,square
348.0,6.0,2.0,1.0,1.0,1.0,339.2997159990045,1.0,1.0,phase_1,,,,,,,,,,,,,white,I
150.0,5.0,1.0,1.0,2.0,2.0,398.8051600008475,1.0,1.0,phase_1,,,,,,,,,,,,,yellow,hexagon
0.0,6.0,0.0,1.0,2.0,2.0,500.12907900054415,2.0,1.0,phase_1,,,,,,,,,,,,,white,I
649.0,7.0,3.0,1.0,2.0,2.0,396.3947800002643,2.0,1.0,phase_1,,,,,,,,,,,,,cyan,diamond
0.0,4.0,0.0,0.0,3.0,3.0,359.0603049997298,2.0,1.0,phase_1,,,,,,,,,,,,,gray,flipped triangle
340.0,6.0,2.0,1.0,4.0,4.0,387.1229699998366,2.0,1.0,phase_1,,,,,,,,,,,,,white,I
1296.0,4.0,4.0,0.0,4.0,4.0,395.6720339992898,2.0,1.0,phase_1,,,,,,,,,,,,,gray,flipped triangle
0.0,6.0,0.0,1.0,1.0,1.0,396.6506799988565,2.0,1.0,phase_1,,,,,,,,,,,,,white,I
1311.0,8.0,4.0,1.0,4.0,4.0,424.9907260000327,2.0,1.0,phase_1,,,,,,,,,,,,,green,triangle
0.0,4.0,0.0,0.0,2.0,2.0,424.9371309997514,2.0,1.0,phase_1,,,,,,,,,,,,,gray,flipped triangle
0.0,6.0,0.0,1.0,2.0,2.0,394.422443001531,2.0,1.0,phase_1,,,,,,,,,,,,,white,I
179.0,5.0,1.0,1.0,4.0,4.0,335.5313159991056,2.0,1.0,phase_1,,,,,,,,,,,,,yellow,hexagon
167.0,1.0,1.0,0.0,4.0,4.0,348.738279999452,2.0,1.0,phase_1,,,,,,,,,,,,,orange,cross
141.0,1.0,1.0,0.0,1.0,1.0,578.4479089998058,2.0,2.0,phase_1,,,,,,,,,,,,,orange,cross
313.0,6.0,2.0,1.0,4.0,4.0,511.56300499860663,2.0,1.0,phase_1,,,,,,,,,,,,,white,I
648.0,3.0,3.0,0.0,1.0,1.0,559.1552239984594,2.0,1.0,phase_1,,,,,,,,,,,,,magenta,square
0.0,8.0,0.0,1.0,4.0,4.0,471.746722001626,2.0,1.0,phase_1,,,,,,,,,,,,,green,triangle
648.0,3.0,3.0,0.0,3.0,3.0,510.57557000058296,2.0,1.0,phase_1,,,,,,,,,,,,,magenta,square
0.0,4.0,0.0,0.0,3.0,3.0,413.4999390007579,2.0,1.0,phase_1,,,,,,,,,,,,,gray,flipped triangle
346.0,2.0,2.0,0.0,2.0,2.0,385.8412179997685,2.0,1.0,phase_1,,,,,,,,,,,,,blue,circle
164.0,5.0,1.0,1.0,1.0,1.0,555.6753979999485,2.0,1.0,phase_1,,,,,,,,,,,,,yellow,hexagon
660.0,3.0,3.0,0.0,4.0,4.0,339.3648859982932,2.0,1.0,phase_1,,,,,,,,,,,,,magenta,square
173.0,5.0,1.0,1.0,3.0,3.0,488.6546069992619,2.0,1.0,phase_1,,,,,,,,,,,,,yellow,hexagon
1297.0,8.0,4.0,1.0,3.0,3.0,491.0410680004133,2.0,1.0,phase_1,,,,,,,,,,,,,green,triangle
1298.0,4.0,4.0,0.0,4.0,4.0,670.2831929997046,2.0,1.0,phase_1,,,,,,,,,,,,,gray,flipped triangle
1275.0,8.0,4.0,1.0,1.0,1.0,632.0024480010034,2.0,1.0,phase_1,,,,,,,,,,,,,green,triangle
1288.0,8.0,4.0,1.0,3.0,3.0,406.3602070000343,2.0,1.0,phase_1,,,,,,,,,,,,,green,triangle
0.0,1.0,0.0,0.0,2.0,2.0,481.7644539998582,2.0,1.0,phase_1,,,,,,,,,,,,,orange,cross
142.0,1.0,1.0,0.0,1.0,1.0,397.7632239984814,2.0,1.0,phase_1,,,,,,,,,,,,,orange,cross
142.0,5.0,1.0,1.0,2.0,2.0,480.0087069997971,2.0,1.0,phase_1,,,,,,,,,,,,,yellow,hexagon
1311.0,4.0,4.0,0.0,1.0,1.0,461.242178998873,2.0,1.0,phase_1,,,,,,,,,,,,,gray,flipped triangle
301.0,2.0,2.0,0.0,1.0,1.0,499.3300680016546,2.0,1.0,phase_1,,,,,,,,,,,,,blue,circle
173.0,5.0,1.0,1.0,3.0,3.0,530.8959920002962,2.0,1.0,phase_1,,,,,,,,,,,,,yellow,hexagon
1302.0,4.0,4.0,0.0,3.0,3.0,491.2630100006936,2.0,1.0,phase_1,,,,,,,,,,,,,gray,flipped triangle
343.0,6.0,2.0,1.0,1.0,1.0,501.6342149992852,2.0,1.0,phase_1,,,,,,,,,,,,,white,I
1279.0,8.0,4.0,1.0,3.0,3.0,368.1305840000277,2.0,1.0,phase_1,,,,,,,,,,,,,green,triangle
331.0,2.0,2.0,0.0,2.0,2.0,480.6255919993418,2.0,1.0,phase_1,,,,,,,,,,,,,blue,circle
340.0,2.0,2.0,0.0,3.0,3.0,377.3845580017223,2.0,1.0,phase_1,,,,,,,,,,,,,blue,circle
149.0,5.0,1.0,1.0,3.0,3.0,349.6068109998305,2.0,1.0,phase_1,,,,,,,,,,,,,yellow,hexagon
0.0,6.0,0.0,1.0,4.0,4.0,500.53013499928056,2.0,1.0,phase_1,,,,,,,,,,,,,white,I
668.0,3.0,3.0,0.0,4.0,4.0,386.7349590000231,2.0,1.0,phase_1,,,,,,,,,,,,,magenta,square
147.0,1.0,1.0,0.0,2.0,2.0,575.8649879990116,2.0,1.0,phase_1,,,,,,,,,,,,,orange,cross
318.0,2.0,2.0,0.0,2.0,2.0,442.6311979987076,2.0,1.0,phase_1,,,,,,,,,,,,,blue,circle
319.0,2.0,2.0,0.0,2.0,2.0,340.6764480005222,2.0,1.0,phase_1,,,,,,,,,,,,,blue,circle
0.0,4.0,0.0,0.0,1.0,1.0,388.5330199991585,2.0,2.0,phase_1,,,,,,,,,,,,,gray,flipped triangle
0.0,3.0,0.0,0.0,2.0,2.0,377.679334998902,2.0,1.0,phase_1,,,,,,,,,,,,,magenta,square
655.0,3.0,3.0,0.0,1.0,1.0,387.8689190005389,2.0,1.0,phase_1,,,,,,,,,,,,,magenta,square
141.0,5.0,1.0,1.0,4.0,4.0,342.6878180016501,2.0,1.0,phase_1,,,,,,,,,,,,,yellow,hexagon
1275.0,4.0,4.0,0.0,1.0,1.0,499.0261059992917,2.0,2.0,phase_1,,,,,,,,,,,,,gray,flipped triangle
311.0,6.0,2.0,1.0,2.0,2.0,357.5084539988893,2.0,1.0,phase_1,,,,,,,,,,,,,white,I
630.0,3.0,3.0,0.0,4.0,4.0,340.7054929994046,2.0,2.0,phase_1,,,,,,,,,,,,,magenta,square
0.0,1.0,0.0,0.0,3.0,3.0,471.2156550012878,2.0,1.0,phase_1,,,,,,,,,,,,,orange,cross
329.0,2.0,2.0,0.0,3.0,3.0,358.2767589996365,2.0,1.0,phase_1,,,,,,,,,,,,,blue,circle
1282.0,4.0,4.0,0.0,2.0,2.0,407.4386690008396,2.0,1.0,phase_1,,,,,,,,,,,,,gray,flipped triangle
312.0,2.0,2.0,0.0,4.0,4.0,414.5802250004635,2.0,1.0,phase_1,,,,,,,,,,,,,blue,circle
0.0,4.0,0.0,0.0,4.0,4.0,398.4172379987285,2.0,1.0,phase_1,,,,,,,,,,,,,gray,flipped triangle
145.0,1.0,1.0,0.0,3.0,3.0,351.7668380009127,2.0,1.0,phase_1,,,,,,,,,,,,,orange,cross
340.0,6.0,2.0,1.0,4.0,4.0,304.3965329998173,2.0,1.0,phase_1,,,,,,,,,,,,,white,I
170.0,1.0,1.0,0.0,3.0,3.0,351.4114889985649,2.0,1.0,phase_1,,,,,,,,,,,,,orange,cross
670.0,7.0,3.0,1.0,4.0,4.0,358.1727179989684,2.0,1.0,phase_1,,,,,,,,,,,,,cyan,diamond
630.0,7.0,3.0,1.0,4.0,4.0,370.7872640006826,2.0,1.0,phase_1,,,,,,,,,,,,,cyan,diamond
649.0,7.0,3.0,1.0,2.0,2.0,470.9653240006446,2.0,2.0,phase_1,,,,,,,,,,,,,cyan,diamond
308.0,2.0,2.0,0.0,1.0,1.0,663.4046519993717,2.0,1.0,phase_1,,,,,,,,,,,,,blue,circle
141.0,1.0,1.0,0.0,1.0,1.0,567.9404780003097,2.0,1.0,phase_1,,,,,,,,,,,,,orange,cross
657.0,7.0,3.0,1.0,3.0,3.0,669.5704270005081,2.0,1.0,phase_1,,,,,,,,,,,,,cyan,diamond
155.0,5.0,1.0,1.0,1.0,1.0,555.4275049998978,2.0,1.0,phase_1,,,,,,,,,,,,,yellow,hexagon
0.0,6.0,0.0,1.0,1.0,1.0,330.9833919993252,2.0,1.0,phase_1,,,,,,,,,,,,,white,I
153.0,1.0,1.0,0.0,2.0,2.0,358.7789760003943,2.0,1.0,phase_1,,,,,,,,,,,,,orange,cross
0.0,2.0,0.0,0.0,2.0,2.0,310.3529899999557,2.0,1.0,phase_1,,,,,,,,,,,,,blue,circle
1288.0,4.0,4.0,0.0,2.0,2.0,347.9593759984709,2.0,1.0,phase_1,,,,,,,,,,,,,gray,flipped triangle
343.0,2.0,2.0,0.0,1.0,1.0,498.5750779997033,2.0,1.0,phase_1,,,,,,,,,,,,,blue,circle
313.0,2.0,2.0,0.0,4.0,4.0,451.2752030004776,2.0,1.0,phase_1,,,,,,,,,,,,,blue,circle
1294.0,4.0,4.0,0.0,1.0,1.0,450.7981530005054,2.0,1.0,phase_1,,,,,,,,,,,,,gray,flipped triangle
1313.0,4.0,4.0,0.0,2.0,2.0,357.355745998575,2.0,1.0,phase_1,,,,,,,,,,,,,gray,flipped triangle
340.0,2.0,2.0,0.0,2.0,2.0,536.1917150003137,2.0,1.0,phase_1,,,,,,,,,,,,,blue,circle
671.0,3.0,3.0,0.0,2.0,2.0,321.7878739997104,2.0,1.0,phase_1,,,,,,,,,,,,,magenta,square
319.0,6.0,2.0,1.0,3.0,3.0,359.483401000034,2.0,1.0,phase_1,,,,,,,,,,,,,white,I
1310.0,4.0,4.0,0.0,4.0,4.0,359.225232999961,2.0,1.0,phase_1,,,,,,,,,,,,,gray,flipped triangle
0.0,1.0,0.0,0.0,4.0,4.0,339.2184730000736,2.0,1.0,phase_1,,,,,,,,,,,,,orange,cross
1313.0,8.0,4.0,1.0,2.0,2.0,462.4933879986201,2.0,1.0,phase_1,,,,,,,,,,,,,green,triangle
643.0,7.0,3.0,1.0,4.0,4.0,500.2973880000354,2.0,1.0,phase_1,,,,,,,,,,,,,cyan,diamond
1292.0,4.0,4.0,0.0,2.0,2.0,502.0222539988026,2.0,1.0,phase_1,,,,,,,,,,,,,gray,flipped triangle
1303.0,8.0,4.0,1.0,4.0,4.0,565.7570420007687,2.0,1.0,phase_1,,,,,,,,,,,,,green,triangle
0.0,6.0,0.0,1.0,2.0,2.0,386.535104998984,2.0,1.0,phase_1,,,,,,,,,,,,,white,I
0.0,2.0,0.0,0.0,2.0,2.0,490.7459799997014,2.0,1.0,phase_1,,,,,,,,,,,,,blue,circle
653.0,7.0,3.0,1.0,1.0,1.0,442.8591980013152,2.0,1.0,phase_1,,,,,,,,,,,,,cyan,diamond
339.0,6.0,2.0,1.0,3.0,3.0,310.9603840002819,2.0,1.0,phase_1,,,,,,,,,,,,,white,I
671.0,7.0,3.0,1.0,2.0,2.0,321.6472460007935,2.0,1.0,phase_1,,,,,,,,,,,,,cyan,diamond
0.0,3.0,0.0,0.0,3.0,3.0,500.4349880000518,2.0,1.0,phase_1,,,,,,,,,,,,,magenta,square
0.0,2.0,0.0,0.0,2.0,2.0,368.692234998889,2.0,1.0,phase_1,,,,,,,,,,,,,blue,circle
338.0,6.0,2.0,1.0,3.0,3.0,311.199588000818,2.0,1.0,phase_1,,,,,,,,,,,,,white,I
663.0,7.0,3.0,1.0,3.0,3.0,442.4278139995294,2.0,1.0,phase_1,,,,,,,,,,,,,cyan,diamond
315.0,6.0,2.0,1.0,4.0,4.0,310.0249340004666,2.0,1.0,phase_1,,,,,,,,,,,,,white,I
327.0,6.0,2.0,1.0,3.0,3.0,595.1333670000167,2.0,2.0,phase_1,,,,,,,,,,,,,white,I
1292.0,8.0,4.0,1.0,1.0,1.0,587.5054789994465,2.0,1.0,phase_1,,,,,,,,,,,,,green,triangle
312.0,6.0,2.0,1.0,4.0,4.0,408.4509919994161,2.0,1.0,phase_1,,,,,,,,,,,,,white,I
341.0,2.0,2.0,0.0,3.0,3.0,323.5009790005279,2.0,1.0,phase_1,,,,,,,,,,,,,blue,circle
345.0,6.0,2.0,1.0,3.0,3.0,331.5782919999037,2.0,1.0,phase_1,,,,,,,,,,,,,white,I
0.0,8.0,0.0,1.0,3.0,3.0,294.768366999051,2.0,1.0,phase_1,,,,,,,,,,,,,green,triangle
310.0,6.0,2.0,1.0,2.0,2.0,445.420603000457,2.0,1.0,phase_1,,,,,,,,,,,,,white,I
329.0,6.0,2.0,1.0,1.0,1.0,549.1248220005218,2.0,1.0,phase_1,,,,,,,,,,,,,white,I
183.0,1.0,1.0,0.0,2.0,2.0,519.012914999621,2.0,1.0,phase_1,,,,,,,,,,,,,orange,cross
635.0,7.0,3.0,1.0,3.0,3.0,444.8971580004581,3.0,1.0,phase_1,,,,,,,,,,,,,cyan,diamond
1293.0,8.0,4.0,1.0,3.0,3.0,407.3778120000497,3.0,1.0,phase_1,,,,,,,,,,,,,green,triangle
311.0,2.0,2.0,0.0,4.0,4.0,302.1676739990653,3.0,1.0,phase_1,,,,,,,,,,,,,blue,circle
670.0,3.0,3.0,0.0,1.0,1.0,850.135943001078,3.0,2.0,phase_1,,,,,,,,,,,,,magenta,square
1323.0,4.0,4.0,0.0,1.0,1.0,359.8936930011405,3.0,1.0,phase_1,,,,,,,,,,,,,gray,flipped triangle
181.0,1.0,1.0,0.0,4.0,4.0,472.6041819994862,3.0,1.0,phase_1,,,,,,,,,,,,,orange,cross
0.0,4.0,0.0,0.0,2.0,2.0,435.3989709998132,3.0,1.0,phase_1,,,,,,,,,,,,,gray,flipped triangle
1302.0,8.0,4.0,1.0,1.0,1.0,340.2017460011848,3.0,1.0,phase_1,,,,,,,,,,,,,green,triangle
0.0,2.0,0.0,0.0,2.0,2.0,388.6130710016005,3.0,1.0,phase_1,,,,,,,,,,,,,blue,circle
0.0,7.0,0.0,1.0,2.0,2.0,367.6572330005001,3.0,1.0,phase_1,,,,,,,,,,,,,cyan,diamond
313.0,2.0,2.0,0.0,4.0,4.0,330.5200280010467,3.0,3.0,phase_1,,,,,,,,,,,,,blue,circle
652.0,3.0,3.0,0.0,2.0,2.0,406.0983719991782,3.0,1.0,phase_1,,,,,,,,,,,,,magenta,square
0.0,3.0,0.0,0.0,3.0,3.0,377.3432840007444,3.0,1.0,phase_1,,,,,,,,,,,,,magenta,square
0.0,5.0,0.0,1.0,3.0,3.0,350.070426999082,3.0,1.0,phase_1,,,,,,,,,,,,,yellow,hexagon
648.0,3.0,3.0,0.0,2.0,2.0,444.411148000654,3.0,1.0,phase_1,,,,,,,,,,,,,magenta,square
142.0,5.0,1.0,1.0,1.0,1.0,519.0421059996879,3.0,1.0,phase_1,,,,,,,,,,,,,yellow,hexagon
320.0,6.0,2.0,1.0,4.0,4.0,311.76670899913,3.0,1.0,phase_1,,,,,,,,,,,,,white,I
626.0,7.0,3.0,1.0,1.0,1.0,623.9152580001246,3.0,1.0,phase_1,,,,,,,,,,,,,cyan,diamond
0.0,5.0,0.0,1.0,4.0,4.0,358.1755710001744,3.0,1.0,phase_1,,,,,,,,,,,,,yellow,hexagon
1275.0,8.0,4.0,1.0,3.0,3.0,368.477312998948,3.0,1.0,phase_1,,,,,,,,,,,,,green,triangle
335.0,2.0,2.0,0.0,2.0,2.0,282.9161399986333,3.0,1.0,phase_1,,,,,,,,,,,,,blue,circle
160.0,5.0,1.0,1.0,2.0,2.0,432.1892309999384,3.0,1.0,phase_1,,,,,,,,,,,,,yellow,hexagon
0.0,5.0,0.0,1.0,4.0,4.0,348.6574069993366,3.0,1.0,phase_1,,,,,,,,,,,,,yellow,hexagon
1284.0,8.0,4.0,1.0,2.0,2.0,302.0000159995106,3.0,1.0,phase_1,,,,,,,,,,,,,green,triangle
315.0,2.0,2.0,0.0,1.0,1.0,472.3049999993236,3.0,1.0,phase_1,,,,,,,,,,,,,blue,circle
668.0,3.0,3.0,0.0,3.0,3.0,358.3048930013319,3.0,1.0,phase_1,,,,,,,,,,,,,magenta,square
1305.0,4.0,4.0,0.0,3.0,3.0,460.4118850002123,3.0,1.0,phase_1,,,,,,,,,,,,,gray,flipped triangle
655.0,7.0,3.0,1.0,2.0,2.0,508.7119279996841,3.0,1.0,phase_1,,,,,,,,,,,,,cyan,diamond
153.0,5.0,1.0,1.0,3.0,3.0,404.5071979999193,3.0,1.0,phase_1,,,,,,,,,,,,,yellow,hexagon
1300.0,8.0,4.0,1.0,4.0,4.0,311.7024969997146,3.0,1.0,phase_1,,,,,,,,,,,,,green,triangle
1275.0,4.0,4.0,0.0,3.0,3.0,445.4649489998701,3.0,1.0,phase_1,,,,,,,,,,,,,gray,flipped triangle
1319.0,8.0,4.0,1.0,2.0,2.0,406.5814170007797,3.0,1.0,phase_1,,,,,,,,,,,,,green,triangle
1311.0,8.0,4.0,1.0,1.0,1.0,558.5123950004345,3.0,1.0,phase_1,,,,,,,,,,,,,green,triangle
150.0,1.0,1.0,0.0,2.0,2.0,464.6680620007828,3.0,1.0,phase_1,,,,,,,,,,,,,orange,cross
172.0,1.0,1.0,0.0,4.0,4.0,396.9790689989168,3.0,1.0,phase_1,,,,,,,,,,,,,orange,cross
181.0,5.0,1.0,1.0,4.0,4.0,396.8233909999981,3.0,1.0,phase_1,,,,,,,,,,,,,yellow,hexagon
0.0,6.0,0.0,1.0,1.0,1.0,387.9753009987325,3.0,1.0,phase_1,,,,,,,,,,,,,white,I
0.0,4.0,0.0,0.0,3.0,3.0,417.0966029996634,3.0,1.0,phase_1,,,,,,,,,,,,,gray,flipped triangle
341.0,6.0,2.0,1.0,1.0,1.0,330.9345139987272,3.0,1.0,phase_1,,,,,,,,,,,,,white,I
338.0,2.0,2.0,0.0,3.0,3.0,407.6005570004781,3.0,1.0,phase_1,,,,,,,,,,,,,blue,circle
315.0,6.0,2.0,1.0,2.0,2.0,418.2317230006447,3.0,1.0,phase_1,,,,,,,,,,,,,white,I
1310.0,8.0,4.0,1.0,4.0,4.0,302.8482800000347,3.0,1.0,phase_1,,,,,,,,,,,,,green,triangle
313.0,6.0,2.0,1.0,1.0,1.0,602.1850010001799,3.0,1.0,phase_1,,,,,,,,,,,,,white,I
662.0,7.0,3.0,1.0,2.0,2.0,707.3876920003386,3.0,1.0,phase_1,,,,,,,,,,,,,cyan,diamond
657.0,3.0,3.0,0.0,4.0,4.0,518.1439959997078,3.0,1.0,phase_1,,,,,,,,,,,,,magenta,square
158.0,5.0,1.0,1.0,1.0,1.0,480.3932899994834,3.0,1.0,phase_1,,,,,,,,,,,,,yellow,hexagon
0.0,2.0,0.0,0.0,3.0,3.0,463.8248389983346,3.0,1.0,phase_1,,,,,,,,,,,,,blue,circle
1284.0,4.0,4.0,0.0,3.0,3.0,361.3510380000662,3.0,1.0,phase_1,,,,,,,,,,,,,gray,flipped triangle
0.0,2.0,0.0,0.0,4.0,4.0,500.91161700038356,3.0,1.0,phase_1,,,,,,,,,,,,,blue,circle
308.0,6.0,2.0,1.0,3.0,3.0,322.2782760003611,3.0,1.0,phase_1,,,,,,,,,,,,,white,I
1323.0,4.0,4.0,0.0,2.0,2.0,399.2200680004316,3.0,1.0,phase_1,,,,,,,,,,,,,gray,flipped triangle
663.0,3.0,3.0,0.0,2.0,2.0,567.0334279984672,3.0,1.0,phase_1,,,,,,,,,,,,,magenta,square
161.0,5.0,1.0,1.0,3.0,3.0,700.2024329995038,3.0,1.0,phase_1,,,,,,,,,,,,,yellow,hexagon
0.0,1.0,0.0,0.0,4.0,4.0,435.3838700008055,3.0,1.0,phase_1,,,,,,,,,,,,,orange,cross
340.0,2.0,2.0,0.0,3.0,3.0,379.3914220004808,3.0,1.0,phase_1,,,,,,,,,,,,,blue,circle
1285.0,8.0,4.0,1.0,1.0,1.0,521.1915889994998,3.0,1.0,phase_1,,,,,,,,,,,,,green,triangle
652.0,3.0,3.0,0.0,2.0,2.0,349.7238380005001,3.0,1.0,phase_1,,,,,,,,,,,,,magenta,square
654.0,7.0,3.0,1.0,3.0,3.0,377.6923130008072,3.0,1.0,phase_1,,,,,,,,,,,,,cyan,diamond
668.0,3.0,3.0,0.0,1.0,1.0,368.3699359989987,3.0,1.0,phase_1,,,,,,,,,,,,,magenta,square
183.0,5.0,1.0,1.0,1.0,1.0,367.9493709987582,3.0,1.0,phase_1,,,,,,,,,,,,,yellow,hexagon
0.0,7.0,0.0,1.0,1.0,1.0,423.5901459996967,3.0,1.0,phase_1,,,,,,,,,,,,,cyan,diamond
666.0,3.0,3.0,0.0,1.0,1.0,518.4451749992149,3.0,1.0,phase_1,,,,,,,,,,,,,magenta,square
186.0,1.0,1.0,0.0,4.0,4.0,424.5716069999616,3.0,1.0,phase_1,,,,,,,,,,,,,orange,cross
1285.0,4.0,4.0,0.0,3.0,3.0,482.2542830006568,3.0,1.0,phase_1,,,,,,,,,,,,,gray,flipped triangle
165.0,1.0,1.0,0.0,3.0,3.0,396.7526090000319,3.0,1.0,phase_1,,,,,,,,,,,,,orange,cross
652.0,7.0,3.0,1.0,1.0,1.0,548.2890009989205,3.0,1.0,phase_1,,,,,,,,,,,,,cyan,diamond
312.0,6.0,2.0,1.0,3.0,3.0,479.8722239993367,3.0,1.0,phase_1,,,,,,,,,,,,,white,I
149.0,1.0,1.0,0.0,4.0,4.0,490.9374519993434,3.0,1.0,phase_1,,,,,,,,,,,,,orange,cross
181.0,1.0,1.0,0.0,4.0,4.0,433.9405999999144,3.0,1.0,phase_1,,,,,,,,,,,,,orange,cross
1323.0,8.0,4.0,1.0,2.0,2.0,597.4466320003557,3.0,1.0,phase_1,,,,,,,,,,,,,green,triangle
1293.0,8.0,4.0,1.0,2.0,2.0,500.8870370002114,3.0,1.0,phase_1,,,,,,,,,,,,,green,triangle
329.0,2.0,2.0,0.0,1.0,1.0,358.2682489995932,3.0,1.0,phase_1,,,,,,,,,,,,,blue,circle
0.0,8.0,0.0,1.0,2.0,2.0,331.8077530002483,3.0,1.0,phase_1,,,,,,,,,,,,,green,triangle
652.0,7.0,3.0,1.0,1.0,1.0,433.2293920015218,3.0,1.0,phase_1,,,,,,,,,,,,,cyan,diamond
0.0,7.0,0.0,1.0,1.0,1.0,442.273885000759,3.0,1.0,phase_1,,,,,,,,,,,,,cyan,diamond
1299.0,4.0,4.0,0.0,1.0,1.0,537.7414200011117,3.0,1.0,phase_1,,,,,,,,,,,,,gray,flipped triangle
0.0,8.0,0.0,1.0,3.0,3.0,536.1690420013474,3.0,1.0,phase_1,,,,,,,,,,,,,green,triangle
1279.0,4.0,4.0,0.0,2.0,2.0,387.3832520002906,3.0,1.0,phase_1,,,,,,,,,,,,,gray,flipped triangle
0.0,7.0,0.0,1.0,3.0,3.0,432.6903500004846,3.0,1.0,phase_1,,,,,,,,,,,,,cyan,diamond
331.0,2.0,2.0,0.0,1.0,1.0,331.3477069987129,3.0,1.0,phase_1,,,,,,,,,,,,,blue,circle
1305.0,8.0,4.0,1.0,3.0,3.0,519.2903299994214,3.0,1.0,phase_1,,,,,,,,,,,,,green,triangle
308.0,2.0,2.0,0.0,3.0,3.0,482.949594999809,3.0,1.0,phase_1,,,,,,,,,,,,,blue,circle
631.0,3.0,3.0,0.0,3.0,3.0,568.491272000756,3.0,1.0,phase_1,,,,,,,,,,,,,magenta,square
1320.0,4.0,4.0,0.0,4.0,4.0,406.9705160000012,3.0,2.0,phase_1,,,,,,,,,,,,,gray,flipped triangle
648.0,7.0,3.0,1.0,1.0,1.0,339.6920249997492,3.0,1.0,phase_1,,,,,,,,,,,,,cyan,diamond
184.0,1.0,1.0,0.0,4.0,4.0,424.9086360014189,3.0,1.0,phase_1,,,,,,,,,,,,,orange,cross
1283.0,8.0,4.0,1.0,1.0,1.0,368.1780229999276,3.0,1.0,phase_1,,,,,,,,,,,,,green,triangle
630.0,3.0,3.0,0.0,2.0,2.0,434.1904600005364,3.0,1.0,phase_1,,,,,,,,,,,,,magenta,square
329.0,6.0,2.0,1.0,2.0,2.0,406.0364409997419,3.0,1.0,phase_1,,,,,,,,,,,,,white,I
335.0,6.0,2.0,1.0,1.0,1.0,425.1120589997299,3.0,1.0,phase_1,,,,,,,,,,,,,white,I
139.0,1.0,1.0,0.0,3.0,3.0,283.5286750014347,3.0,1.0,phase_1,,,,,,,,,,,,,orange,cross
348.0,2.0,2.0,0.0,4.0,4.0,274.4768979991931,3.0,1.0,phase_1,,,,,,,,,,,,,blue,circle
150.0,1.0,1.0,0.0,4.0,4.0,264.3583979988761,3.0,2.0,phase_1,,,,,,,,,,,,,orange,cross
1317.0,4.0,4.0,0.0,2.0,2.0,396.9107450011506,3.0,1.0,phase_1,,,,,,,,,,,,,gray,flipped triangle
327.0,6.0,2.0,1.0,4.0,4.0,406.5412410000135,3.0,1.0,phase_1,,,,,,,,,,,,,white,I
331.0,6.0,2.0,1.0,2.0,2.0,320.607989000564,3.0,1.0,phase_1,,,,,,,,,,,,,white,I
327.0,2.0,2.0,0.0,4.0,4.0,319.8948829995061,3.0,1.0,phase_1,,,,,,,,,,,,,blue,circle
1298.0,8.0,4.0,1.0,4.0,4.0,347.4417480010743,3.0,1.0,phase_1,,,,,,,,,,,,,green,triangle
153.0,5.0,1.0,1.0,1.0,1.0,699.9002100001235,3.0,1.0,phase_1,,,,,,,,,,,,,yellow,hexagon
649.0,3.0,3.0,0.0,2.0,2.0,491.0408630003076,3.0,1.0,phase_1,,,,,,,,,,,,,magenta,square
157.0,1.0,1.0,0.0,3.0,3.0,443.4168569987378,4.0,1.0,phase_1,,,,,,,,,,,,,orange,cross
1293.0,4.0,4.0,0.0,2.0,2.0,426.1400940013118,4.0,1.0,phase_1,,,,,,,,,,,,,gray,flipped triangle
186.0,5.0,1.0,1.0,1.0,1.0,350.1931650007464,4.0,2.0,phase_1,,,,,,,,,,,,,yellow,hexagon
1323.0,8.0,4.0,1.0,2.0,2.0,500.2201659990533,4.0,1.0,phase_1,,,,,,,,,,,,,green,triangle
660.0,7.0,3.0,1.0,3.0,3.0,509.2813480005134,4.0,1.0,phase_1,,,,,,,,,,,,,cyan,diamond
345.0,2.0,2.0,0.0,2.0,2.0,444.6000070001901,4.0,1.0,phase_1,,,,,,,,,,,,,blue,circle
1295.0,8.0,4.0,1.0,2.0,2.0,395.5249509999703,4.0,1.0,phase_1,,,,,,,,,,,,,green,triangle
674.0,7.0,3.0,1.0,1.0,1.0,348.5770690003846,4.0,1.0,phase_1,,,,,,,,,,,,,cyan,diamond
645.0,7.0,3.0,1.0,4.0,4.0,406.2052119988948,4.0,1.0,phase_1,,,,,,,,,,,,,cyan,diamond
668.0,7.0,3.0,1.0,1.0,1.0,451.7977430004976,4.0,2.0,phase_1,,,,,,,,,,,,,cyan,diamond
631.0,3.0,3.0,0.0,4.0,4.0,414.5383309987664,4.0,1.0,phase_1,,,,,,,,,,,,,magenta,square
1293.0,4.0,4.0,0.0,1.0,1.0,519.7562510002172,4.0,1.0,phase_1,,,,,,,,,,,,,gray,flipped triangle
1279.0,8.0,4.0,1.0,2.0,2.0,435.8065259984869,4.0,1.0,phase_1,,,,,,,,,,,,,green,triangle
310.0,2.0,2.0,0.0,3.0,3.0,311.4453119997051,4.0,1.0,phase_1,,,,,,,,,,,,,blue,circle
335.0,2.0,2.0,0.0,4.0,4.0,432.8423280003335,4.0,1.0,phase_1,,,,,,,,,,,,,blue,circle
181.0,5.0,1.0,1.0,1.0,1.0,443.4032379995187,4.0,1.0,phase_1,,,,,,,,,,,,,yellow,hexagon
308.0,6.0,2.0,1.0,1.0,1.0,509.2297060000419,4.0,1.0,phase_1,,,,,,,,,,,,,white,I
157.0,1.0,1.0,0.0,2.0,2.0,448.3227410000836,4.0,1.0,phase_1,,,,,,,,,,,,,orange,cross
0.0,2.0,0.0,0.0,2.0,2.0,406.44841799985437,4.0,1.0,phase_1,,,,,,,,,,,,,blue,circle
302.0,6.0,2.0,1.0,3.0,3.0,387.4191160011833,4.0,1.0,phase_1,,,,,,,,,,,,,white,I
0.0,5.0,0.0,1.0,3.0,3.0,383.9385529990977,4.0,1.0,phase_1,,,,,,,,,,,,,yellow,hexagon
1320.0,4.0,4.0,0.0,1.0,1.0,416.6472689994407,4.0,1.0,phase_1,,,,,,,,,,,,,gray,flipped triangle
0.0,8.0,0.0,1.0,4.0,4.0,584.2367610002839,4.0,1.0,phase_1,,,,,,,,,,,,,green,triangle
142.0,1.0,1.0,0.0,2.0,2.0,321.1036320008134,4.0,1.0,phase_1,,,,,,,,,,,,,orange,cross
649.0,3.0,3.0,0.0,2.0,2.0,416.7254730000422,4.0,1.0,phase_1,,,,,,,,,,,,,magenta,square
641.0,7.0,3.0,1.0,1.0,1.0,359.3606810009078,4.0,1.0,phase_1,,,,,,,,,,,,,cyan,diamond
173.0,1.0,1.0,0.0,2.0,2.0,359.2064250005933,4.0,1.0,phase_1,,,,,,,,,,,,,orange,cross
0.0,3.0,0.0,0.0,4.0,4.0,341.147307999563,4.0,1.0,phase_1,,,,,,,,,,,,,magenta,square
327.0,2.0,2.0,0.0,2.0,2.0,453.895722001107,4.0,1.0,phase_1,,,,,,,,,,,,,blue,circle
648.0,7.0,3.0,1.0,3.0,3.0,378.4403480003675,4.0,1.0,phase_1,,,,,,,,,,,,,cyan,diamond
153.0,1.0,1.0,0.0,3.0,3.0,331.5094459994725,4.0,1.0,phase_1,,,,,,,,,,,,,orange,cross
141.0,5.0,1.0,1.0,1.0,1.0,331.8557599995984,4.0,1.0,phase_1,,,,,,,,,,,,,yellow,hexagon
635.0,3.0,3.0,0.0,4.0,4.0,358.8067689997842,4.0,1.0,phase_1,,,,,,,,,,,,,magenta,square
340.0,6.0,2.0,1.0,4.0,4.0,452.7057529994636,4.0,1.0,phase_1,,,,,,,,,,,,,white,I
148.0,1.0,1.0,0.0,4.0,4.0,369.1273950007598,4.0,1.0,phase_1,,,,,,,,,,,,,orange,cross
334.0,6.0,2.0,1.0,2.0,2.0,377.2217939986149,4.0,1.0,phase_1,,,,,,,,,,,,,white,I
186.0,5.0,1.0,1.0,3.0,3.0,454.1643310003564,4.0,1.0,phase_1,,,,,,,,,,,,,yellow,hexagon
157.0,5.0,1.0,1.0,3.0,3.0,349.6108960007404,4.0,1.0,phase_1,,,,,,,,,,,,,yellow,hexagon
630.0,7.0,3.0,1.0,4.0,4.0,351.4880319999065,4.0,2.0,phase_1,,,,,,,,,,,,,cyan,diamond
0.0,1.0,0.0,0.0,2.0,2.0,444.7357239987468,4.0,1.0,phase_1,,,,,,,,,,,,,orange,cross
1315.0,8.0,4.0,1.0,4.0,4.0,416.4914470002259,4.0,1.0,phase_1,,,,,,,,,,,,,green,triangle
0.0,3.0,0.0,0.0,2.0,2.0,471.7325090005033,4.0,1.0,phase_1,,,,,,,,,,,,,magenta,square
0.0,3.0,0.0,0.0,3.0,3.0,452.6374529996246,4.0,1.0,phase_1,,,,,,,,,,,,,magenta,square
334.0,2.0,2.0,0.0,4.0,4.0,340.2528669994353,4.0,1.0,phase_1,,,,,,,,,,,,,blue,circle
167.0,5.0,1.0,1.0,4.0,4.0,349.4909010005358,4.0,1.0,phase_1,,,,,,,,,,,,,yellow,hexagon
331.0,6.0,2.0,1.0,4.0,4.0,425.3426510003919,4.0,1.0,phase_1,,,,,,,,,,,,,white,I
631.0,7.0,3.0,1.0,2.0,2.0,527.1341750012652,4.0,1.0,phase_1,,,,,,,,,,,,,cyan,diamond
330.0,6.0,2.0,1.0,2.0,2.0,528.9956119995622,4.0,1.0,phase_1,,,,,,,,,,,,,white,I
182.0,5.0,1.0,1.0,2.0,2.0,405.5213940009707,4.0,1.0,phase_1,,,,,,,,,,,,,yellow,hexagon
668.0,7.0,3.0,1.0,1.0,1.0,483.042343001216,4.0,1.0,phase_1,,,,,,,,,,,,,cyan,diamond
636.0,7.0,3.0,1.0,4.0,4.0,481.6970439987926,4.0,1.0,phase_1,,,,,,,,,,,,,cyan,diamond
0.0,1.0,0.0,0.0,4.0,4.0,406.2404699998296,4.0,1.0,phase_1,,,,,,,,,,,,,orange,cross
318.0,6.0,2.0,1.0,2.0,2.0,415.4898069991759,4.0,1.0,phase_1,,,,,,,,,,,,,white,I
1283.0,4.0,4.0,0.0,3.0,3.0,380.1474500014592,4.0,1.0,phase_1,,,,,,,,,,,,,gray,flipped triangle
0.0,2.0,0.0,0.0,3.0,3.0,518.9186440002231,4.0,1.0,phase_1,,,,,,,,,,,,,blue,circle
641.0,3.0,3.0,0.0,4.0,4.0,330.8644970002206,4.0,1.0,phase_1,,,,,,,,,,,,,magenta,square
655.0,7.0,3.0,1.0,2.0,2.0,333.5678270013886,4.0,1.0,phase_1,,,,,,,,,,,,,cyan,diamond
158.0,1.0,1.0,0.0,3.0,3.0,377.0750959993165,4.0,1.0,phase_1,,,,,,,,,,,,,orange,cross
636.0,3.0,3.0,0.0,1.0,1.0,333.2402969990653,4.0,1.0,phase_1,,,,,,,,,,,,,magenta,square
1315.0,4.0,4.0,0.0,4.0,4.0,492.5823439989472,4.0,1.0,phase_1,,,,,,,,,,,,,gray,flipped triangle
1305.0,8.0,4.0,1.0,1.0,1.0,396.8309909996605,4.0,2.0,phase_1,,,,,,,,,,,,,green,triangle
640.0,7.0,3.0,1.0,3.0,3.0,670.4691280010593,4.0,1.0,phase_1,,,,,,,,,,,,,cyan,diamond
179.0,1.0,1.0,0.0,1.0,1.0,472.2088679991429,4.0,1.0,phase_1,,,,,,,,,,,,,orange,cross
0.0,5.0,0.0,1.0,3.0,3.0,327.920923999045,4.0,1.0,phase_1,,,,,,,,,,,,,yellow,hexagon
173.0,1.0,1.0,0.0,3.0,3.0,405.559605000235,4.0,1.0,phase_1,,,,,,,,,,,,,orange,cross
1282.0,8.0,4.0,1.0,2.0,2.0,436.5746739986207,4.0,1.0,phase_1,,,,,,,,,,,,,green,triangle
645.0,3.0,3.0,0.0,3.0,3.0,377.1156660004635,4.0,1.0,phase_1,,,,,,,,,,,,,magenta,square
0.0,4.0,0.0,0.0,1.0,1.0,396.6672339993238,4.0,1.0,phase_1,,,,,,,,,,,,,gray,flipped triangle
170.0,5.0,1.0,1.0,3.0,3.0,433.5648030009906,4.0,1.0,phase_1,,,,,,,,,,,,,yellow,hexagon
0.0,5.0,0.0,1.0,4.0,4.0,397.0185680009308,4.0,1.0,phase_1,,,,,,,,,,,,,yellow,hexagon
0.0,8.0,0.0,1.0,2.0,2.0,359.2035270012275,4.0,1.0,phase_1,,,,,,,,,,,,,green,triangle
0.0,4.0,0.0,0.0,1.0,1.0,340.3611440007807,4.0,1.0,phase_1,,,,,,,,,,,,,gray,flipped triangle
1311.0,4.0,4.0,0.0,2.0,2.0,452.843616998507,4.0,1.0,phase_1,,,,,,,,,,,,,gray,flipped triangle
653.0,3.0,3.0,0.0,3.0,3.0,406.7862169995351,4.0,1.0,phase_1,,,,,,,,,,,,,magenta,square
0.0,7.0,0.0,1.0,4.0,4.0,340.7113420016685,4.0,1.0,phase_1,,,,,,,,,,,,,cyan,diamond
668.0,7.0,3.0,1.0,1.0,1.0,396.6206759996566,4.0,1.0,phase_1,,,,,,,,,,,,,cyan,diamond
164.0,1.0,1.0,0.0,1.0,1.0,360.30074500013137,4.0,1.0,phase_1,,,,,,,,,,,,,orange,cross
1313.0,4.0,4.0,0.0,4.0,4.0,405.5047099991498,4.0,1.0,phase_1,,,,,,,,,,,,,gray,flipped triangle
345.0,2.0,2.0,0.0,1.0,1.0,623.3479120000993,4.0,1.0,phase_1,,,,,,,,,,,,,blue,circle
161.0,1.0,1.0,0.0,1.0,1.0,388.5549700007686,4.0,1.0,phase_1,,,,,,,,,,,,,orange,cross
1295.0,4.0,4.0,0.0,3.0,3.0,434.7992740003974,4.0,2.0,phase_1,,,,,,,,,,,,,gray,flipped triangle
665.0,7.0,3.0,1.0,2.0,2.0,455.6472500007658,4.0,1.0,phase_1,,,,,,,,,,,,,cyan,diamond
674.0,3.0,3.0,0.0,3.0,3.0,397.9454830005124,4.0,1.0,phase_1,,,,,,,,,,,,,magenta,square
166.0,1.0,1.0,0.0,2.0,2.0,377.0585029997164,4.0,1.0,phase_1,,,,,,,,,,,,,orange,cross
636.0,7.0,3.0,1.0,2.0,2.0,473.5145889990235,4.0,1.0,phase_1,,,,,,,,,,,,,cyan,diamond
0.0,7.0,0.0,1.0,1.0,1.0,917.7864090015646,4.0,1.0,phase_1,,,,,,,,,,,,,cyan,diamond
1296.0,8.0,4.0,1.0,1.0,1.0,418.3096079996176,4.0,1.0,phase_1,,,,,,,,,,,,,green,triangle
0.0,8.0,0.0,1.0,2.0,2.0,559.1303269993659,4.0,1.0,phase_1,,,,,,,,,,,,,green,triangle
172.0,5.0,1.0,1.0,2.0,2.0,436.8296630000259,4.0,1.0,phase_1,,,,,,,,,,,,,yellow,hexagon
626.0,3.0,3.0,0.0,4.0,4.0,349.8414419991604,4.0,2.0,phase_1,,,,,,,,,,,,,magenta,square
1294.0,8.0,4.0,1.0,4.0,4.0,350.4308170013246,4.0,1.0,phase_1,,,,,,,,,,,,,green,triangle
630.0,7.0,3.0,1.0,4.0,4.0,340.7998120001139,4.0,1.0,phase_1,,,,,,,,,,,,,cyan,diamond
157.0,5.0,1.0,1.0,4.0,4.0,398.2637450008042,4.0,1.0,phase_1,,,,,,,,,,,,,yellow,hexagon
1317.0,4.0,4.0,0.0,1.0,1.0,470.6758550000813,4.0,1.0,phase_1,,,,,,,,,,,,,gray,flipped triangle
666.0,7.0,3.0,1.0,4.0,4.0,455.5520530011563,4.0,1.0,phase_1,,,,,,,,,,,,,cyan,diamond
661.0,3.0,3.0,0.0,1.0,1.0,462.117336999654,4.0,1.0,phase_1,,,,,,,,,,,,,magenta,square
0.0,7.0,0.0,1.0,2.0,2.0,407.4208059992088,4.0,1.0,phase_1,,,,,,,,,,,,,cyan,diamond
1305.0,8.0,4.0,1.0,4.0,4.0,503.56481800008623,4.0,1.0,phase_1,,,,,,,,,,,,,green,triangle
306.0,6.0,2.0,1.0,1.0,1.0,484.5563470007619,4.0,1.0,phase_1,,,,,,,,,,,,,white,I
0.0,5.0,0.0,1.0,4.0,4.0,349.6983819986781,4.0,1.0,phase_1,,,,,,,,,,,,,yellow,hexagon
0.0,2.0,2.0,0.0,6.0,6.0,701.9326760000695,1.0,1.0,phase_2,go,250.0,250.0,1.0,,,,,,,,,blue,circle
0.0,4.0,4.0,0.0,5.0,5.0,293.8800160009123,1.0,1.0,phase_2,go,250.0,250.0,1.0,,,,,,,,,gray,flipped triangle
0.0,1.0,1.0,0.0,5.0,5.0,472.0524330004991,1.0,1.0,phase_2,go,250.0,250.0,1.0,,,,,,,,,orange,cross
0.0,6.0,2.0,1.0,6.0,0.0,0.0,1.0,1.0,phase_2,stop,250.0,250.0,4.0,,,,,,,,,white,I
0.0,4.0,4.0,0.0,5.0,5.0,436.5258190009626,1.0,1.0,phase_2,go,250.0,300.0,1.0,,,,,,,,,gray,flipped triangle
0.0,2.0,2.0,0.0,6.0,6.0,960.2462499988178,1.0,1.0,phase_2,go,250.0,300.0,1.0,,,,,,,,,blue,circle
0.0,1.0,1.0,0.0,6.0,6.0,373.1370929999684,1.0,1.0,phase_2,go,250.0,300.0,1.0,,,,,,,,,orange,cross
0.0,2.0,2.0,0.0,5.0,5.0,277.6129560006666,1.0,1.0,phase_2,go,250.0,300.0,1.0,,,,,,,,,blue,circle
0.0,5.0,1.0,1.0,6.0,6.0,324.2341759996634,1.0,1.0,phase_2,go,250.0,300.0,1.0,,,,,,,,,yellow,hexagon
0.0,8.0,4.0,1.0,6.0,6.0,342.035012999986,1.0,1.0,phase_2,stop,250.0,300.0,3.0,,,,,,,,,green,triangle
0.0,2.0,2.0,0.0,6.0,6.0,495.0789070007886,1.0,1.0,phase_2,go,250.0,250.0,1.0,,,,,,,,,blue,circle
0.0,3.0,3.0,0.0,5.0,5.0,363.1450169996242,1.0,1.0,phase_2,go,250.0,250.0,1.0,,,,,,,,,magenta,square
0.0,4.0,4.0,0.0,5.0,5.0,449.16081600058527,1.0,1.0,phase_2,go,250.0,250.0,1.0,,,,,,,,,gray,flipped triangle
0.0,5.0,1.0,1.0,6.0,6.0,323.9023360001738,1.0,1.0,phase_2,go,250.0,250.0,1.0,,,,,,,,,yellow,hexagon
0.0,2.0,2.0,0.0,5.0,5.0,780.3601720006554,1.0,1.0,phase_2,go,250.0,250.0,1.0,,,,,,,,,blue,circle
0.0,2.0,2.0,0.0,5.0,5.0,390.5279449991212,1.0,1.0,phase_2,go,250.0,250.0,1.0,,,,,,,,,blue,circle
0.0,8.0,4.0,1.0,6.0,0.0,0.0,1.0,1.0,phase_2,stop,250.0,250.0,4.0,,,,,,,,,green,triangle
0.0,7.0,3.0,1.0,6.0,0.0,0.0,1.0,1.0,phase_2,stop,250.0,300.0,4.0,,,,,,,,,cyan,diamond
0.0,7.0,3.0,1.0,6.0,6.0,837.2271320004074,1.0,1.0,phase_2,go,250.0,350.0,1.0,,,,,,,,,cyan,diamond
0.0,5.0,1.0,1.0,6.0,6.0,397.0495269986713,1.0,1.0,phase_2,stop,250.0,350.0,3.0,,,,,,,,,yellow,hexagon
0.0,2.0,2.0,0.0,5.0,5.0,542.0272449991899,1.0,1.0,phase_2,go,250.0,300.0,1.0,,,,,,,,,blue,circle
0.0,7.0,3.0,1.0,6.0,6.0,334.9532159991213,1.0,1.0,phase_2,stop,250.0,300.0,3.0,,,,,,,,,cyan,diamond
0.0,5.0,1.0,1.0,5.0,5.0,475.4959699985193,1.0,1.0,phase_2,stop,250.0,250.0,3.0,,,,,,,,,yellow,hexagon
0.0,7.0,3.0,1.0,6.0,6.0,1053.7589639989164,1.0,1.0,phase_2,go,200.0,250.0,1.0,,,,,,,,,cyan,diamond
0.0,8.0,4.0,1.0,5.0,0.0,0.0,1.0,1.0,phase_2,stop,200.0,250.0,4.0,,,,,,,,,green,triangle
0.0,5.0,1.0,1.0,5.0,0.0,0.0,1.0,1.0,phase_2,stop,250.0,250.0,4.0,,,,,,,,,yellow,hexagon
0.0,5.0,1.0,1.0,5.0,0.0,0.0,1.0,1.0,phase_2,stop,300.0,250.0,4.0,,,,,,,,,yellow,hexagon
0.0,1.0,1.0,0.0,5.0,5.0,742.0865450003475,1.0,1.0,phase_2,go,350.0,250.0,1.0,,,,,,,,,orange,cross
0.0,6.0,2.0,1.0,6.0,0.0,0.0,1.0,1.0,phase_2,stop,350.0,250.0,4.0,,,,,,,,,white,I
0.0,1.0,1.0,0.0,5.0,5.0,807.3073899995507,1.0,1.0,phase_2,go,350.0,300.0,1.0,,,,,,,,,orange,cross
0.0,7.0,3.0,1.0,5.0,5.0,959.2137019990332,1.0,1.0,phase_2,go,350.0,300.0,1.0,,,,,,,,,cyan,diamond
0.0,7.0,3.0,1.0,6.0,0.0,0.0,1.0,1.0,phase_2,stop,350.0,300.0,4.0,,,,,,,,,cyan,diamond
0.0,3.0,3.0,0.0,6.0,6.0,911.8596140015144,1.0,1.0,phase_2,go,350.0,350.0,1.0,,,,,,,,,magenta,square
0.0,7.0,3.0,1.0,5.0,0.0,0.0,1.0,1.0,phase_2,stop,350.0,350.0,4.0,,,,,,,,,cyan,diamond
0.0,6.0,2.0,1.0,5.0,0.0,0.0,1.0,1.0,phase_2,stop,400.0,350.0,4.0,,,,,,,,,white,I
0.0,1.0,1.0,0.0,5.0,5.0,884.2527689994313,1.0,1.0,phase_2,go,450.0,350.0,1.0,,,,,,,,,orange,cross
0.0,5.0,1.0,1.0,5.0,5.0,1291.4789330006895,2.0,1.0,phase_2,stop,450.0,350.0,3.0,,,,,,,,,yellow,hexagon
0.0,7.0,3.0,1.0,5.0,0.0,0.0,2.0,1.0,phase_2,stop,400.0,350.0,4.0,,,,,,,,,cyan,diamond
0.0,3.0,3.0,0.0,6.0,6.0,884.0909080008714,2.0,1.0,phase_2,go,450.0,350.0,1.0,,,,,,,,,magenta,square
0.0,5.0,1.0,1.0,5.0,5.0,379.9249840012635,2.0,1.0,phase_2,stop,450.0,350.0,3.0,,,,,,,,,yellow,hexagon
0.0,6.0,2.0,1.0,5.0,5.0,742.8869279992796,2.0,1.0,phase_2,go,400.0,350.0,1.0,,,,,,,,,white,I
0.0,8.0,4.0,1.0,5.0,0.0,0.0,2.0,1.0,phase_2,stop,400.0,350.0,4.0,,,,,,,,,green,triangle
0.0,7.0,3.0,1.0,5.0,0.0,0.0,2.0,1.0,phase_2,stop,450.0,350.0,4.0,,,,,,,,,cyan,diamond
0.0,1.0,1.0,0.0,6.0,6.0,761.1597169998277,2.0,1.0,phase_2,go,500.0,350.0,1.0,,,,,,,,,orange,cross
0.0,8.0,4.0,1.0,5.0,5.0,1191.489757000454,2.0,1.0,phase_2,go,500.0,350.0,1.0,,,,,,,,,green,triangle
0.0,5.0,1.0,1.0,5.0,0.0,0.0,2.0,1.0,phase_2,stop,500.0,350.0,4.0,,,,,,,,,yellow,hexagon
0.0,1.0,1.0,0.0,5.0,5.0,951.488757000334,2.0,1.0,phase_2,go,550.0,350.0,1.0,,,,,,,,,orange,cross
0.0,2.0,2.0,0.0,6.0,6.0,400.0132029996166,2.0,1.0,phase_2,go,550.0,350.0,1.0,,,,,,,,,blue,circle
0.0,6.0,2.0,1.0,5.0,5.0,438.0094300013297,2.0,1.0,phase_2,stop,550.0,350.0,3.0,,,,,,,,,white,I
0.0,2.0,2.0,0.0,6.0,6.0,953.1022150003992,2.0,1.0,phase_2,go,500.0,350.0,1.0,,,,,,,,,blue,circle
0.0,1.0,1.0,0.0,6.0,6.0,391.2271399985911,2.0,1.0,phase_2,go,500.0,350.0,1.0,,,,,,,,,orange,cross
0.0,6.0,2.0,1.0,6.0,6.0,540.6563439992169,2.0,1.0,phase_2,stop,500.0,350.0,3.0,,,,,,,,,white,I
0.0,7.0,3.0,1.0,6.0,0.0,0.0,2.0,1.0,phase_2,stop,500.0,300.0,4.0,,,,,,,,,cyan,diamond
0.0,5.0,1.0,1.0,6.0,0.0,0.0,2.0,1.0,phase_2,stop,500.0,350.0,4.0,,,,,,,,,yellow,hexagon
0.0,8.0,4.0,1.0,5.0,5.0,695.4168659995048,2.0,1.0,phase_2,go,500.0,400.0,1.0,,,,,,,,,green,triangle
0.0,1.0,1.0,0.0,5.0,5.0,780.9932259988273,2.0,1.0,phase_2,go,500.0,400.0,1.0,,,,,,,,,orange,cross
0.0,3.0,3.0,0.0,6.0,6.0,811.3003719990957,2.0,1.0,phase_2,go,500.0,400.0,1.0,,,,,,,,,magenta,square
0.0,7.0,3.0,1.0,5.0,0.0,0.0,2.0,1.0,phase_2,stop,500.0,400.0,4.0,,,,,,,,,cyan,diamond
0.0,4.0,4.0,0.0,6.0,6.0,773.4634050011664,2.0,1.0,phase_2,go,550.0,400.0,1.0,,,,,,,,,gray,flipped triangle
0.0,1.0,1.0,0.0,6.0,6.0,913.35656100091,2.0,1.0,phase_2,go,550.0,400.0,1.0,,,,,,,,,orange,cross
0.0,8.0,4.0,1.0,6.0,6.0,894.6216250005818,2.0,1.0,phase_2,go,550.0,400.0,1.0,,,,,,,,,green,triangle
0.0,4.0,4.0,0.0,6.0,6.0,541.7352820004453,2.0,1.0,phase_2,go,550.0,400.0,1.0,,,,,,,,,gray,flipped triangle
0.0,4.0,4.0,0.0,5.0,5.0,380.7527230001142,2.0,1.0,phase_2,go,550.0,400.0,1.0,,,,,,,,,gray,flipped triangle
0.0,3.0,3.0,0.0,6.0,6.0,467.3805389993504,2.0,1.0,phase_2,go,550.0,400.0,1.0,,,,,,,,,magenta,square
0.0,2.0,2.0,0.0,5.0,5.0,792.5047200005793,2.0,1.0,phase_2,go,550.0,400.0,1.0,,,,,,,,,blue,circle
0.0,6.0,2.0,1.0,5.0,0.0,0.0,2.0,1.0,phase_2,stop,550.0,400.0,4.0,,,,,,,,,white,I
0.0,5.0,1.0,1.0,6.0,6.0,1263.388961999226,2.0,1.0,phase_2,go,600.0,400.0,1.0,,,,,,,,,yellow,hexagon
0.0,2.0,2.0,0.0,5.0,5.0,750.0776140004746,2.0,1.0,phase_2,go,600.0,400.0,1.0,,,,,,,,,blue,circle
0.0,6.0,2.0,1.0,6.0,6.0,493.8952270003938,2.0,1.0,phase_2,stop,600.0,400.0,3.0,,,,,,,,,white,I
0.0,1.0,1.0,0.0,6.0,6.0,827.4006100000406,2.0,1.0,phase_2,go,600.0,350.0,1.0,,,,,,,,,orange,cross
0.0,3.0,3.0,0.0,6.0,6.0,801.0404899996502,2.0,1.0,phase_2,go,600.0,350.0,1.0,,,,,,,,,magenta,square
0.0,7.0,3.0,1.0,6.0,6.0,547.8907729993807,2.0,1.0,phase_2,stop,600.0,350.0,3.0,,,,,,,,,cyan,diamond
0.0,4.0,4.0,0.0,5.0,0.0,0.0,3.0,1.0,phase_2,go,600.0,300.0,5.0,,,,,,,,,gray,flipped triangle
0.0,4.0,4.0,0.0,6.0,6.0,454.7220309996191,3.0,1.0,phase_2,go,600.0,300.0,1.0,,,,,,,,,gray,flipped triangle
0.0,8.0,4.0,1.0,5.0,5.0,426.0226559999864,3.0,1.0,phase_2,stop,600.0,300.0,3.0,,,,,,,,,green,triangle
0.0,5.0,1.0,1.0,6.0,0.0,0.0,3.0,1.0,phase_2,stop,550.0,300.0,4.0,,,,,,,,,yellow,hexagon
0.0,6.0,2.0,1.0,5.0,5.0,681.8414860008488,3.0,1.0,phase_2,stop,550.0,350.0,3.0,,,,,,,,,white,I
0.0,1.0,1.0,0.0,5.0,5.0,741.8890230001125,3.0,1.0,phase_2,go,500.0,350.0,1.0,,,,,,,,,orange,cross
0.0,1.0,1.0,0.0,5.0,5.0,713.78839099998,3.0,1.0,phase_2,go,500.0,350.0,1.0,,,,,,,,,orange,cross
0.0,5.0,1.0,1.0,5.0,5.0,644.4125340003666,3.0,1.0,phase_2,stop,500.0,350.0,3.0,,,,,,,,,yellow,hexagon
0.0,5.0,1.0,1.0,6.0,0.0,0.0,3.0,1.0,phase_2,stop,450.0,350.0,4.0,,,,,,,,,yellow,hexagon
0.0,2.0,2.0,0.0,5.0,5.0,778.1312869992689,3.0,1.0,phase_2,go,450.0,400.0,1.0,,,,,,,,,blue,circle
0.0,3.0,3.0,0.0,5.0,5.0,882.121210999685,3.0,1.0,phase_2,go,450.0,400.0,1.0,,,,,,,,,magenta,square
0.0,4.0,4.0,0.0,6.0,6.0,523.6586170012743,3.0,1.0,phase_2,go,450.0,400.0,1.0,,,,,,,,,gray,flipped triangle
0.0,5.0,1.0,1.0,5.0,5.0,730.1891899987822,3.0,1.0,phase_2,go,450.0,400.0,1.0,,,,,,,,,yellow,hexagon
0.0,8.0,4.0,1.0,6.0,6.0,341.5382370003499,3.0,1.0,phase_2,stop,450.0,400.0,3.0,,,,,,,,,green,triangle
0.0,7.0,3.0,1.0,5.0,5.0,446.3245150000148,3.0,1.0,phase_2,go,450.0,350.0,1.0,,,,,,,,,cyan,diamond
0.0,8.0,4.0,1.0,6.0,0.0,0.0,3.0,1.0,phase_2,stop,450.0,350.0,4.0,,,,,,,,,green,triangle
0.0,2.0,2.0,0.0,6.0,6.0,1061.9325999996363,3.0,1.0,phase_2,go,450.0,400.0,1.0,,,,,,,,,blue,circle
0.0,3.0,3.0,0.0,5.0,5.0,768.0686929998046,3.0,1.0,phase_2,go,450.0,400.0,1.0,,,,,,,,,magenta,square
0.0,8.0,4.0,1.0,6.0,0.0,0.0,3.0,1.0,phase_2,stop,450.0,400.0,4.0,,,,,,,,,green,triangle
0.0,6.0,2.0,1.0,6.0,6.0,853.7595639991196,3.0,1.0,phase_2,go,450.0,450.0,1.0,,,,,,,,,white,I
0.0,5.0,1.0,1.0,6.0,0.0,0.0,3.0,1.0,phase_2,stop,450.0,450.0,4.0,,,,,,,,,yellow,hexagon
0.0,3.0,3.0,0.0,6.0,6.0,684.012210000219,3.0,1.0,phase_2,go,450.0,500.0,1.0,,,,,,,,,magenta,square
0.0,8.0,4.0,1.0,6.0,6.0,939.7762999997212,3.0,1.0,phase_2,go,450.0,500.0,1.0,,,,,,,,,green,triangle
0.0,3.0,3.0,0.0,5.0,5.0,977.9472070003976,3.0,1.0,phase_2,go,450.0,500.0,1.0,,,,,,,,,magenta,square
0.0,7.0,3.0,1.0,5.0,5.0,398.7189790004777,3.0,1.0,phase_2,go,450.0,500.0,1.0,,,,,,,,,cyan,diamond
0.0,7.0,3.0,1.0,6.0,6.0,495.3513800010114,3.0,1.0,phase_2,stop,450.0,500.0,3.0,,,,,,,,,cyan,diamond
0.0,4.0,4.0,0.0,5.0,5.0,798.5297659997741,3.0,1.0,phase_2,go,450.0,450.0,1.0,,,,,,,,,gray,flipped triangle
0.0,4.0,4.0,0.0,6.0,6.0,910.7616789988242,3.0,1.0,phase_2,go,450.0,450.0,1.0,,,,,,,,,gray,flipped triangle
0.0,3.0,3.0,0.0,5.0,5.0,1148.681464999754,3.0,1.0,phase_2,go,450.0,450.0,1.0,,,,,,,,,magenta,square
0.0,5.0,1.0,1.0,6.0,6.0,454.4185569993715,3.0,1.0,phase_2,go,450.0,450.0,1.0,,,,,,,,,yellow,hexagon
0.0,1.0,1.0,0.0,5.0,5.0,1158.3233649998874,3.0,1.0,phase_2,go,450.0,450.0,1.0,,,,,,,,,orange,cross
0.0,3.0,3.0,0.0,6.0,6.0,753.0480099994747,3.0,1.0,phase_2,go,450.0,450.0,1.0,,,,,,,,,magenta,square
0.0,3.0,3.0,0.0,6.0,6.0,589.5940609989339,3.0,1.0,phase_2,go,450.0,450.0,1.0,,,,,,,,,magenta,square
0.0,4.0,4.0,0.0,6.0,6.0,864.6790860002511,3.0,1.0,phase_2,go,450.0,450.0,1.0,,,,,,,,,gray,flipped triangle
0.0,6.0,2.0,1.0,6.0,6.0,641.5310520005733,3.0,1.0,phase_2,stop,450.0,450.0,3.0,,,,,,,,,white,I
0.0,7.0,3.0,1.0,5.0,0.0,0.0,3.0,1.0,phase_2,stop,450.0,400.0,4.0,,,,,,,,,cyan,diamond
0.0,3.0,3.0,0.0,5.0,5.0,987.7251109992358,4.0,1.0,phase_2,go,500.0,400.0,1.0,,,,,,,,,magenta,square
0.0,6.0,2.0,1.0,5.0,5.0,380.7804330008366,4.0,1.0,phase_2,stop,500.0,400.0,3.0,,,,,,,,,white,I
0.0,3.0,3.0,0.0,5.0,5.0,685.2191960006166,4.0,1.0,phase_2,go,450.0,400.0,1.0,,,,,,,,,magenta,square
0.0,7.0,3.0,1.0,6.0,6.0,476.3413090004178,4.0,1.0,phase_2,stop,450.0,400.0,3.0,,,,,,,,,cyan,diamond
0.0,2.0,2.0,0.0,5.0,5.0,1036.2594309990527,4.0,1.0,phase_2,go,450.0,350.0,1.0,,,,,,,,,blue,circle
0.0,1.0,1.0,0.0,5.0,5.0,419.3551630014553,4.0,1.0,phase_2,go,450.0,350.0,1.0,,,,,,,,,orange,cross
0.0,6.0,2.0,1.0,5.0,0.0,0.0,4.0,1.0,phase_2,stop,450.0,350.0,4.0,,,,,,,,,white,I
0.0,2.0,2.0,0.0,6.0,6.0,1056.375307000053,4.0,1.0,phase_2,go,500.0,350.0,1.0,,,,,,,,,blue,circle
0.0,5.0,1.0,1.0,6.0,6.0,496.6369670000858,4.0,1.0,phase_2,stop,500.0,350.0,3.0,,,,,,,,,yellow,hexagon
0.0,2.0,2.0,0.0,5.0,5.0,1143.8435780000873,4.0,1.0,phase_2,go,500.0,300.0,1.0,,,,,,,,,blue,circle
0.0,7.0,3.0,1.0,6.0,0.0,0.0,4.0,1.0,phase_2,stop,500.0,300.0,4.0,,,,,,,,,cyan,diamond
0.0,8.0,4.0,1.0,5.0,0.0,0.0,4.0,1.0,phase_2,stop,500.0,350.0,4.0,,,,,,,,,green,triangle
0.0,2.0,2.0,0.0,5.0,5.0,828.1713070009573,4.0,1.0,phase_2,go,550.0,350.0,1.0,,,,,,,,,blue,circle
0.0,6.0,2.0,1.0,6.0,0.0,0.0,4.0,1.0,phase_2,stop,550.0,350.0,4.0,,,,,,,,,white,I
0.0,6.0,2.0,1.0,5.0,0.0,0.0,4.0,1.0,phase_2,go,550.0,400.0,5.0,,,,,,,,,white,I
0.0,1.0,1.0,0.0,6.0,6.0,992.2090500003832,4.0,1.0,phase_2,go,550.0,400.0,1.0,,,,,,,,,orange,cross
0.0,8.0,4.0,1.0,5.0,5.0,360.0452150003548,4.0,1.0,phase_2,stop,550.0,400.0,3.0,,,,,,,,,green,triangle
0.0,3.0,3.0,0.0,6.0,6.0,881.4733559993329,4.0,1.0,phase_2,go,500.0,400.0,1.0,,,,,,,,,magenta,square
0.0,1.0,1.0,0.0,6.0,6.0,634.5142420013872,4.0,1.0,phase_2,go,500.0,400.0,1.0,,,,,,,,,orange,cross
0.0,8.0,4.0,1.0,5.0,5.0,738.4386069988977,4.0,1.0,phase_2,stop,500.0,400.0,3.0,,,,,,,,,green,triangle
0.0,8.0,4.0,1.0,5.0,0.0,0.0,4.0,1.0,phase_2,stop,450.0,400.0,4.0,,,,,,,,,green,triangle
0.0,1.0,1.0,0.0,5.0,5.0,823.5751350002829,4.0,1.0,phase_2,go,500.0,400.0,1.0,,,,,,,,,orange,cross
0.0,6.0,2.0,1.0,5.0,5.0,693.8344850004796,4.0,1.0,phase_2,stop,500.0,400.0,3.0,,,,,,,,,white,I
0.0,2.0,2.0,0.0,6.0,6.0,880.3393509988382,4.0,1.0,phase_2,go,450.0,400.0,1.0,,,,,,,,,blue,circle
0.0,1.0,1.0,0.0,5.0,0.0,0.0,4.0,1.0,phase_2,go,450.0,400.0,5.0,,,,,,,,,orange,cross
0.0,2.0,2.0,0.0,6.0,6.0,813.8218369986134,4.0,1.0,phase_2,go,450.0,400.0,1.0,,,,,,,,,blue,circle
0.0,4.0,4.0,0.0,5.0,5.0,494.4054970001161,4.0,1.0,phase_2,go,450.0,400.0,1.0,,,,,,,,,gray,flipped triangle
0.0,2.0,2.0,0.0,5.0,5.0,521.1843649994989,4.0,1.0,phase_2,go,450.0,400.0,1.0,,,,,,,,,blue,circle
0.0,4.0,4.0,0.0,6.0,6.0,379.069251999681,4.0,1.0,phase_2,go,450.0,400.0,1.0,,,,,,,,,gray,flipped triangle
0.0,6.0,2.0,1.0,6.0,6.0,440.7673069999873,4.0,1.0,phase_2,stop,450.0,400.0,3.0,,,,,,,,,white,I
0.0,3.0,3.0,0.0,6.0,6.0,682.0017549998738,4.0,1.0,phase_2,go,450.0,350.0,1.0,,,,,,,,,magenta,square
0.0,3.0,3.0,0.0,5.0,5.0,694.3956159993832,4.0,1.0,phase_2,go,450.0,350.0,1.0,,,,,,,,,magenta,square
0.0,3.0,3.0,0.0,6.0,6.0,901.625590000549,4.0,1.0,phase_2,go,450.0,350.0,1.0,,,,,,,,,magenta,square
0.0,6.0,2.0,1.0,6.0,6.0,892.1451380010694,4.0,1.0,phase_2,go,450.0,350.0,1.0,,,,,,,,,white,I
0.0,5.0,1.0,1.0,5.0,5.0,636.721947001206,4.0,1.0,phase_2,stop,450.0,350.0,3.0,,,,,,,,,yellow,hexagon
0.0,5.0,1.0,1.0,6.0,0.0,0.0,4.0,1.0,phase_2,stop,400.0,350.0,4.0,,,,,,,,,yellow,hexagon
0.0,4.0,4.0,0.0,6.0,6.0,805.4423180001322,5.0,1.0,phase_2,go,400.0,400.0,1.0,,,,,,,,,gray,flipped triangle
0.0,1.0,1.0,0.0,6.0,6.0,464.3763339990983,5.0,1.0,phase_2,go,400.0,400.0,1.0,,,,,,,,,orange,cross
0.0,3.0,3.0,0.0,5.0,5.0,503.1167960005405,5.0,1.0,phase_2,go,400.0,400.0,1.0,,,,,,,,,magenta,square
0.0,7.0,3.0,1.0,6.0,6.0,334.9889549990621,5.0,1.0,phase_2,stop,400.0,400.0,3.0,,,,,,,,,cyan,diamond
0.0,6.0,2.0,1.0,6.0,0.0,0.0,5.0,1.0,phase_2,stop,400.0,350.0,4.0,,,,,,,,,white,I
0.0,4.0,4.0,0.0,6.0,6.0,816.4248090015462,5.0,1.0,phase_2,go,400.0,400.0,1.0,,,,,,,,,gray,flipped triangle
0.0,7.0,3.0,1.0,5.0,5.0,787.80836399892,5.0,1.0,phase_2,go,400.0,400.0,1.0,,,,,,,,,cyan,diamond
0.0,8.0,4.0,1.0,5.0,0.0,0.0,5.0,1.0,phase_2,stop,400.0,400.0,4.0,,,,,,,,,green,triangle
0.0,2.0,2.0,0.0,5.0,5.0,636.8590379988746,5.0,1.0,phase_2,go,450.0,400.0,1.0,,,,,,,,,blue,circle
0.0,5.0,1.0,1.0,5.0,5.0,770.3263870007504,5.0,1.0,phase_2,go,450.0,400.0,1.0,,,,,,,,,yellow,hexagon
0.0,3.0,3.0,0.0,6.0,6.0,749.1954970009829,5.0,1.0,phase_2,go,450.0,400.0,1.0,,,,,,,,,magenta,square
0.0,8.0,4.0,1.0,6.0,6.0,514.6905040001002,5.0,1.0,phase_2,go,450.0,400.0,1.0,,,,,,,,,green,triangle
0.0,5.0,1.0,1.0,6.0,6.0,449.0523660006147,5.0,1.0,phase_2,stop,450.0,400.0,3.0,,,,,,,,,yellow,hexagon
0.0,1.0,1.0,0.0,6.0,6.0,767.7066340002057,5.0,1.0,phase_2,go,450.0,350.0,1.0,,,,,,,,,orange,cross
0.0,8.0,4.0,1.0,6.0,0.0,0.0,5.0,1.0,phase_2,stop,450.0,350.0,4.0,,,,,,,,,green,triangle
0.0,8.0,4.0,1.0,5.0,0.0,0.0,5.0,1.0,phase_2,stop,450.0,400.0,4.0,,,,,,,,,green,triangle
0.0,4.0,4.0,0.0,5.0,5.0,1333.6692539996875,5.0,1.0,phase_2,go,500.0,400.0,1.0,,,,,,,,,gray,flipped triangle
0.0,5.0,1.0,1.0,6.0,6.0,576.4886779998051,5.0,1.0,phase_2,stop,500.0,400.0,3.0,,,,,,,,,yellow,hexagon
0.0,2.0,2.0,0.0,6.0,6.0,819.0984110005957,5.0,1.0,phase_2,go,500.0,350.0,1.0,,,,,,,,,blue,circle
0.0,8.0,4.0,1.0,6.0,0.0,0.0,5.0,1.0,phase_2,stop,500.0,350.0,4.0,,,,,,,,,green,triangle
0.0,2.0,2.0,0.0,5.0,5.0,691.4527140015707,5.0,1.0,phase_2,go,500.0,400.0,1.0,,,,,,,,,blue,circle
0.0,6.0,2.0,1.0,5.0,0.0,0.0,5.0,1.0,phase_2,stop,500.0,400.0,4.0,,,,,,,,,white,I
0.0,5.0,1.0,1.0,5.0,5.0,561.0408810007357,5.0,1.0,phase_2,go,550.0,400.0,1.0,,,,,,,,,yellow,hexagon
0.0,7.0,3.0,1.0,5.0,5.0,733.2045629991626,5.0,1.0,phase_2,go,550.0,400.0,1.0,,,,,,,,,cyan,diamond
0.0,6.0,2.0,1.0,6.0,0.0,0.0,5.0,1.0,phase_2,stop,550.0,400.0,4.0,,,,,,,,,white,I
0.0,7.0,3.0,1.0,6.0,0.0,0.0,5.0,1.0,phase_2,stop,550.0,450.0,4.0,,,,,,,,,cyan,diamond
0.0,4.0,4.0,0.0,5.0,5.0,549.4183589999011,5.0,1.0,phase_2,go,550.0,500.0,1.0,,,,,,,,,gray,flipped triangle
0.0,3.0,3.0,0.0,6.0,6.0,579.6366680006031,5.0,1.0,phase_2,go,550.0,500.0,1.0,,,,,,,,,magenta,square
0.0,4.0,4.0,0.0,5.0,5.0,551.8733089993475,5.0,1.0,phase_2,go,550.0,500.0,1.0,,,,,,,,,gray,flipped triangle
0.0,4.0,4.0,0.0,6.0,6.0,511.56839299983403,5.0,1.0,phase_2,go,550.0,500.0,1.0,,,,,,,,,gray,flipped triangle
0.0,1.0,1.0,0.0,6.0,6.0,834.3123489994468,5.0,1.0,phase_2,go,550.0,500.0,1.0,,,,,,,,,orange,cross
0.0,5.0,1.0,1.0,5.0,5.0,672.345058999781,5.0,1.0,phase_2,stop,550.0,500.0,3.0,,,,,,,,,yellow,hexagon
0.0,4.0,4.0,0.0,6.0,6.0,636.283698000625,5.0,1.0,phase_2,go,500.0,500.0,1.0,,,,,,,,,gray,flipped triangle
0.0,2.0,2.0,0.0,6.0,6.0,731.5777869989688,5.0,1.0,phase_2,go,500.0,500.0,1.0,,,,,,,,,blue,circle
0.0,6.0,2.0,1.0,5.0,0.0,0.0,5.0,1.0,phase_2,stop,500.0,500.0,4.0,,,,,,,,,white,I
0.0,8.0,4.0,1.0,5.0,0.0,0.0,5.0,1.0,phase_2,stop,550.0,500.0,4.0,,,,,,,,,green,triangle
0.0,7.0,3.0,1.0,5.0,5.0,1264.1388030006055,6.0,1.0,phase_2,stop,600.0,500.0,3.0,,,,,,,,,cyan,diamond
0.0,8.0,4.0,1.0,5.0,5.0,665.1882289988862,6.0,1.0,phase_2,go,550.0,500.0,1.0,,,,,,,,,green,triangle
0.0,6.0,2.0,1.0,5.0,5.0,588.1934999997611,6.0,1.0,phase_2,stop,550.0,500.0,3.0,,,,,,,,,white,I
0.0,6.0,2.0,1.0,5.0,5.0,636.4140990008309,6.0,1.0,phase_2,go,500.0,500.0,1.0,,,,,,,,,white,I
0.0,4.0,4.0,0.0,6.0,6.0,568.6290559988265,6.0,1.0,phase_2,go,500.0,500.0,1.0,,,,,,,,,gray,flipped triangle
0.0,5.0,1.0,1.0,5.0,5.0,465.0471180011664,6.0,1.0,phase_2,stop,500.0,500.0,3.0,,,,,,,,,yellow,hexagon
0.0,1.0,1.0,0.0,5.0,5.0,940.3961099997103,6.0,1.0,phase_2,go,450.0,500.0,1.0,,,,,,,,,orange,cross
0.0,8.0,4.0,1.0,5.0,5.0,416.8303269998432,6.0,1.0,phase_2,stop,450.0,500.0,3.0,,,,,,,,,green,triangle
0.0,1.0,1.0,0.0,5.0,5.0,1228.3263049994275,6.0,1.0,phase_2,go,400.0,500.0,1.0,,,,,,,,,orange,cross
0.0,3.0,3.0,0.0,5.0,5.0,418.5776770009397,6.0,1.0,phase_2,go,400.0,500.0,1.0,,,,,,,,,magenta,square
0.0,8.0,4.0,1.0,6.0,0.0,0.0,6.0,1.0,phase_2,stop,400.0,500.0,4.0,,,,,,,,,green,triangle
0.0,1.0,1.0,0.0,6.0,6.0,864.9615310005174,6.0,1.0,phase_2,go,400.0,550.0,1.0,,,,,,,,,orange,cross
0.0,5.0,1.0,1.0,6.0,6.0,552.0500099992205,6.0,1.0,phase_2,go,400.0,550.0,1.0,,,,,,,,,yellow,hexagon
0.0,3.0,3.0,0.0,5.0,5.0,1104.3057019996922,6.0,1.0,phase_2,go,400.0,550.0,1.0,,,,,,,,,magenta,square
0.0,3.0,3.0,0.0,6.0,6.0,759.2820530007884,6.0,1.0,phase_2,go,400.0,550.0,1.0,,,,,,,,,magenta,square
0.0,7.0,3.0,1.0,6.0,6.0,583.9686759991309,6.0,1.0,phase_2,stop,400.0,550.0,3.0,,,,,,,,,cyan,diamond
0.0,7.0,3.0,1.0,5.0,0.0,0.0,6.0,1.0,phase_2,stop,400.0,500.0,4.0,,,,,,,,,cyan,diamond
0.0,4.0,4.0,0.0,5.0,5.0,972.2211900007096,6.0,1.0,phase_2,go,450.0,500.0,1.0,,,,,,,,,gray,flipped triangle
0.0,4.0,4.0,0.0,6.0,6.0,721.3210190002428,6.0,1.0,phase_2,go,450.0,500.0,1.0,,,,,,,,,gray,flipped triangle
0.0,7.0,3.0,1.0,5.0,0.0,0.0,6.0,1.0,phase_2,stop,450.0,500.0,4.0,,,,,,,,,cyan,diamond
0.0,7.0,3.0,1.0,5.0,0.0,0.0,6.0,1.0,phase_2,stop,500.0,500.0,4.0,,,,,,,,,cyan,diamond
0.0,2.0,2.0,0.0,6.0,6.0,646.4743579999777,6.0,1.0,phase_2,go,550.0,500.0,1.0,,,,,,,,,blue,circle
0.0,2.0,2.0,0.0,5.0,5.0,666.4235899988853,6.0,1.0,phase_2,go,550.0,500.0,1.0,,,,,,,,,blue,circle
0.0,3.0,3.0,0.0,5.0,5.0,448.0623960007506,6.0,1.0,phase_2,go,550.0,500.0,1.0,,,,,,,,,magenta,square
0.0,2.0,2.0,0.0,6.0,6.0,341.5859710003133,6.0,1.0,phase_2,go,550.0,500.0,1.0,,,,,,,,,blue,circle
0.0,1.0,1.0,0.0,6.0,6.0,668.2990429999336,6.0,1.0,phase_2,go,550.0,500.0,1.0,,,,,,,,,orange,cross
0.0,6.0,2.0,1.0,6.0,0.0,0.0,6.0,1.0,phase_2,stop,550.0,500.0,4.0,,,,,,,,,white,I
0.0,6.0,2.0,1.0,5.0,5.0,694.561664999128,6.0,1.0,phase_2,go,550.0,550.0,1.0,,,,,,,,,white,I
0.0,4.0,4.0,0.0,5.0,5.0,848.5590800009959,6.0,1.0,phase_2,go,550.0,550.0,1.0,,,,,,,,,gray,flipped triangle
0.0,4.0,4.0,0.0,6.0,6.0,465.2797279995866,6.0,1.0,phase_2,go,550.0,550.0,1.0,,,,,,,,,gray,flipped triangle
0.0,7.0,3.0,1.0,5.0,5.0,324.9284789999365,6.0,1.0,phase_2,stop,550.0,550.0,3.0,,,,,,,,,cyan,diamond
0.0,5.0,1.0,1.0,6.0,0.0,0.0,6.0,1.0,phase_2,stop,500.0,550.0,4.0,,,,,,,,,yellow,hexagon
0.0,3.0,3.0,0.0,5.0,5.0,964.6021930002462,6.0,1.0,phase_2,go,500.0,600.0,1.0,,,,,,,,,magenta,square
0.0,6.0,2.0,1.0,6.0,0.0,0.0,6.0,1.0,phase_2,stop,500.0,600.0,4.0,,,,,,,,,white,I
0.0,3.0,3.0,0.0,6.0,6.0,1324.773088999791,6.0,1.0,phase_2,go,500.0,650.0,1.0,,,,,,,,,magenta,square
0.0,4.0,4.0,0.0,6.0,6.0,648.4641279985226,6.0,1.0,phase_2,go,500.0,650.0,1.0,,,,,,,,,gray,flipped triangle
0.0,4.0,4.0,0.0,5.0,5.0,868.4528239991778,7.0,1.0,phase_2,go,500.0,650.0,1.0,,,,,,,,,gray,flipped triangle
0.0,7.0,3.0,1.0,6.0,6.0,513.6776420004026,7.0,1.0,phase_2,stop,500.0,650.0,3.0,,,,,,,,,cyan,diamond
0.0,6.0,2.0,1.0,6.0,6.0,678.9578219995747,7.0,1.0,phase_2,stop,500.0,600.0,3.0,,,,,,,,,white,I
0.0,3.0,3.0,0.0,5.0,5.0,695.4930249994504,7.0,1.0,phase_2,go,500.0,550.0,1.0,,,,,,,,,magenta,square
0.0,6.0,2.0,1.0,6.0,6.0,665.2894809994905,7.0,1.0,phase_2,stop,500.0,550.0,3.0,,,,,,,,,white,I
0.0,8.0,4.0,1.0,6.0,6.0,847.5161480000679,7.0,1.0,phase_2,go,500.0,500.0,1.0,,,,,,,,,green,triangle
0.0,6.0,2.0,1.0,5.0,5.0,769.3938770007662,7.0,1.0,phase_2,go,500.0,500.0,1.0,,,,,,,,,white,I
0.0,6.0,2.0,1.0,5.0,0.0,0.0,7.0,1.0,phase_2,stop,500.0,500.0,4.0,,,,,,,,,white,I
0.0,2.0,2.0,0.0,5.0,5.0,677.2444060006819,7.0,1.0,phase_2,go,550.0,500.0,1.0,,,,,,,,,blue,circle
0.0,5.0,1.0,1.0,6.0,0.0,0.0,7.0,1.0,phase_2,stop,550.0,500.0,4.0,,,,,,,,,yellow,hexagon
0.0,1.0,1.0,0.0,6.0,6.0,1027.704662999895,7.0,1.0,phase_2,go,550.0,550.0,1.0,,,,,,,,,orange,cross
0.0,8.0,4.0,1.0,6.0,0.0,0.0,7.0,1.0,phase_2,stop,550.0,550.0,4.0,,,,,,,,,green,triangle
0.0,3.0,3.0,0.0,5.0,5.0,1075.680553998609,7.0,1.0,phase_2,go,550.0,600.0,1.0,,,,,,,,,magenta,square
0.0,8.0,4.0,1.0,6.0,0.0,0.0,7.0,1.0,phase_2,stop,550.0,600.0,4.0,,,,,,,,,green,triangle
0.0,5.0,1.0,1.0,5.0,5.0,512.9487690010137,7.0,1.0,phase_2,stop,550.0,650.0,3.0,,,,,,,,,yellow,hexagon
0.0,2.0,2.0,0.0,5.0,5.0,701.8175310004153,7.0,1.0,phase_2,go,500.0,650.0,1.0,,,,,,,,,blue,circle
0.0,6.0,2.0,1.0,6.0,0.0,0.0,7.0,1.0,phase_2,stop,500.0,650.0,4.0,,,,,,,,,white,I
0.0,7.0,3.0,1.0,6.0,6.0,774.1938639992441,7.0,1.0,phase_2,stop,500.0,700.0,3.0,,,,,,,,,cyan,diamond
0.0,5.0,1.0,1.0,6.0,0.0,0.0,7.0,1.0,phase_2,stop,500.0,650.0,4.0,,,,,,,,,yellow,hexagon
0.0,3.0,3.0,0.0,6.0,6.0,751.7018520011334,7.0,1.0,phase_2,go,500.0,700.0,1.0,,,,,,,,,magenta,square
0.0,8.0,4.0,1.0,5.0,0.0,0.0,7.0,1.0,phase_2,stop,500.0,700.0,4.0,,,,,,,,,green,triangle
0.0,2.0,2.0,0.0,6.0,6.0,591.3932189996558,7.0,1.0,phase_2,go,550.0,700.0,1.0,,,,,,,,,blue,circle
0.0,5.0,1.0,1.0,5.0,0.0,0.0,7.0,1.0,phase_2,stop,550.0,700.0,4.0,,,,,,,,,yellow,hexagon
0.0,1.0,1.0,0.0,5.0,5.0,885.4795839997678,7.0,1.0,phase_2,go,600.0,700.0,1.0,,,,,,,,,orange,cross
0.0,2.0,2.0,0.0,5.0,5.0,789.4939189991419,7.0,1.0,phase_2,go,600.0,700.0,1.0,,,,,,,,,blue,circle
0.0,4.0,4.0,0.0,6.0,6.0,333.1818460010254,7.0,1.0,phase_2,go,600.0,700.0,1.0,,,,,,,,,gray,flipped triangle
0.0,5.0,1.0,1.0,5.0,5.0,523.004138000033,7.0,1.0,phase_2,stop,600.0,700.0,3.0,,,,,,,,,yellow,hexagon
0.0,1.0,1.0,0.0,6.0,6.0,465.253397998822,7.0,1.0,phase_2,go,550.0,700.0,1.0,,,,,,,,,orange,cross
0.0,3.0,3.0,0.0,5.0,5.0,902.1874759982892,7.0,1.0,phase_2,go,550.0,700.0,1.0,,,,,,,,,magenta,square
0.0,6.0,2.0,1.0,5.0,5.0,571.8301939996309,7.0,1.0,phase_2,go,550.0,700.0,1.0,,,,,,,,,white,I
0.0,1.0,1.0,0.0,6.0,6.0,1258.3482139998523,7.0,1.0,phase_2,go,550.0,700.0,1.0,,,,,,,,,orange,cross
0.0,2.0,2.0,0.0,6.0,6.0,619.1710240000248,7.0,1.0,phase_2,go,550.0,700.0,1.0,,,,,,,,,blue,circle
0.0,1.0,1.0,0.0,6.0,6.0,572.7395550002257,7.0,1.0,phase_2,go,550.0,700.0,1.0,,,,,,,,,orange,cross
0.0,4.0,4.0,0.0,5.0,5.0,790.9004439989076,7.0,1.0,phase_2,go,550.0,700.0,1.0,,,,,,,,,gray,flipped triangle
0.0,1.0,1.0,0.0,5.0,5.0,771.4750779996393,7.0,1.0,phase_2,go,550.0,700.0,1.0,,,,,,,,,orange,cross
0.0,7.0,3.0,1.0,5.0,5.0,534.3339840001136,7.0,1.0,phase_2,stop,550.0,700.0,3.0,,,,,,,,,cyan,diamond
0.0,1.0,1.0,0.0,6.0,2.0,721.7443409990665,8.0,1.0,phase_2,go,500.0,700.0,2.0,,,,,,,,,orange,cross
0.0,3.0,3.0,0.0,5.0,5.0,493.5610619995714,8.0,1.0,phase_2,go,500.0,700.0,1.0,,,,,,,,,magenta,square
0.0,8.0,4.0,1.0,6.0,6.0,466.4109580007789,8.0,1.0,phase_2,stop,500.0,700.0,3.0,,,,,,,,,green,triangle
0.0,7.0,3.0,1.0,6.0,6.0,552.0166839996818,8.0,1.0,phase_2,stop,500.0,650.0,3.0,,,,,,,,,cyan,diamond
0.0,5.0,1.0,1.0,5.0,5.0,741.5678650013433,8.0,1.0,phase_2,go,500.0,600.0,1.0,,,,,,,,,yellow,hexagon
0.0,2.0,2.0,0.0,6.0,6.0,722.7127129990549,8.0,1.0,phase_2,go,500.0,600.0,1.0,,,,,,,,,blue,circle
0.0,7.0,3.0,1.0,6.0,6.0,484.6700340003735,8.0,1.0,phase_2,stop,500.0,600.0,3.0,,,,,,,,,cyan,diamond
0.0,6.0,2.0,1.0,6.0,6.0,390.041423999719,8.0,1.0,phase_2,stop,500.0,550.0,3.0,,,,,,,,,white,I
0.0,2.0,2.0,0.0,6.0,6.0,797.8550930001802,8.0,1.0,phase_2,go,500.0,500.0,1.0,,,,,,,,,blue,circle
0.0,3.0,3.0,0.0,5.0,5.0,626.9807320004475,8.0,1.0,phase_2,go,500.0,500.0,1.0,,,,,,,,,magenta,square
0.0,4.0,4.0,0.0,6.0,6.0,591.1014030007209,8.0,1.0,phase_2,go,500.0,500.0,1.0,,,,,,,,,gray,flipped triangle
0.0,4.0,4.0,0.0,5.0,5.0,674.429376000262,8.0,1.0,phase_2,go,500.0,500.0,1.0,,,,,,,,,gray,flipped triangle
0.0,7.0,3.0,1.0,5.0,5.0,484.6906450002279,8.0,1.0,phase_2,stop,500.0,500.0,3.0,,,,,,,,,cyan,diamond
0.0,4.0,4.0,0.0,5.0,5.0,693.7565259995608,8.0,1.0,phase_2,go,450.0,500.0,1.0,,,,,,,,,gray,flipped triangle
0.0,4.0,4.0,0.0,5.0,5.0,587.8247580003517,8.0,1.0,phase_2,go,450.0,500.0,1.0,,,,,,,,,gray,flipped triangle
0.0,1.0,1.0,0.0,5.0,5.0,617.0657109996682,8.0,1.0,phase_2,go,450.0,500.0,1.0,,,,,,,,,orange,cross
0.0,3.0,3.0,0.0,6.0,6.0,692.6457320005284,8.0,1.0,phase_2,go,450.0,500.0,1.0,,,,,,,,,magenta,square
0.0,1.0,1.0,0.0,5.0,5.0,465.3960430005099,8.0,1.0,phase_2,go,450.0,500.0,1.0,,,,,,,,,orange,cross
0.0,8.0,4.0,1.0,6.0,6.0,544.1665559992543,8.0,1.0,phase_2,stop,450.0,500.0,3.0,,,,,,,,,green,triangle
0.0,8.0,4.0,1.0,5.0,5.0,332.1684349994029,8.0,1.0,phase_2,stop,450.0,450.0,3.0,,,,,,,,,green,triangle
0.0,8.0,4.0,1.0,5.0,5.0,900.1958740009286,8.0,1.0,phase_2,go,400.0,450.0,1.0,,,,,,,,,green,triangle
0.0,2.0,2.0,0.0,5.0,5.0,635.171669000556,8.0,1.0,phase_2,go,400.0,450.0,1.0,,,,,,,,,blue,circle
0.0,6.0,2.0,1.0,6.0,6.0,1042.5221600016812,8.0,1.0,phase_2,go,400.0,450.0,1.0,,,,,,,,,white,I
0.0,5.0,1.0,1.0,5.0,0.0,0.0,8.0,1.0,phase_2,stop,400.0,450.0,4.0,,,,,,,,,yellow,hexagon
0.0,1.0,1.0,0.0,6.0,6.0,1289.7755110006983,8.0,1.0,phase_2,go,450.0,450.0,1.0,,,,,,,,,orange,cross
0.0,7.0,3.0,1.0,6.0,6.0,579.5248819995322,8.0,1.0,phase_2,go,450.0,450.0,1.0,,,,,,,,,cyan,diamond
0.0,4.0,4.0,0.0,6.0,6.0,617.5651180001296,8.0,1.0,phase_2,go,450.0,450.0,1.0,,,,,,,,,gray,flipped triangle
0.0,2.0,2.0,0.0,6.0,6.0,596.1619270001393,8.0,1.0,phase_2,go,450.0,450.0,1.0,,,,,,,,,blue,circle
0.0,8.0,4.0,1.0,6.0,6.0,381.8217429998185,8.0,1.0,phase_2,stop,450.0,450.0,3.0,,,,,,,,,green,triangle
0.0,7.0,3.0,1.0,5.0,5.0,597.4328819993389,8.0,1.0,phase_2,go,450.0,400.0,1.0,,,,,,,,,cyan,diamond
0.0,4.0,4.0,0.0,5.0,5.0,541.4329420000286,8.0,1.0,phase_2,go,450.0,400.0,1.0,,,,,,,,,gray,flipped triangle
0.0,6.0,2.0,1.0,5.0,5.0,577.8723289986374,8.0,1.0,phase_2,stop,450.0,400.0,3.0,,,,,,,,,white,I
0.0,8.0,4.0,1.0,5.0,5.0,565.2600209996308,8.0,1.0,phase_2,stop,400.0,400.0,3.0,,,,,,,,,green,triangle
0.0,3.0,3.0,0.0,6.0,6.0,779.4217580012628,8.0,1.0,phase_2,go,350.0,400.0,1.0,,,,,,,,,magenta,square
0.0,5.0,1.0,1.0,6.0,6.0,399.4185870014917,8.0,1.0,phase_2,stop,350.0,400.0,3.0,,,,,,,,,yellow,hexagon
0.0,8.0,4.0,1.0,6.0,6.0,688.0695279996871,8.0,1.0,phase_2,go,350.0,350.0,1.0,,,,,,,,,green,triangle
0.0,6.0,2.0,1.0,7.0,3.0,2361.896886000977,1.0,2.0,phase_3,,,,,192.0,1.0,576.0,1152.0,192.0,384.0,768.0,960.0,white,I
0.0,6.0,2.0,1.0,7.0,5.0,2447.117267998692,1.0,1.0,phase_3,,,,,519.0,3.0,1038.0,692.0,346.0,865.0,519.0,173.0,white,I
0.0,1.0,1.0,0.0,7.0,2.0,3258.027554998989,1.0,1.0,phase_3,,,,,405.0,3.0,135.0,405.0,270.0,540.0,675.0,810.0,orange,cross
0.0,3.0,3.0,0.0,7.0,5.0,2517.9874549994565,1.0,1.0,phase_3,,,,,924.0,6.0,462.0,154.0,770.0,616.0,924.0,308.0,magenta,square
0.0,6.0,2.0,1.0,7.0,1.0,1767.8841340002691,1.0,1.0,phase_3,,,,,464.0,4.0,464.0,580.0,348.0,232.0,696.0,116.0,white,I
0.0,6.0,2.0,1.0,7.0,3.0,1870.4558559984437,1.0,1.0,phase_3,,,,,270.0,2.0,810.0,675.0,270.0,405.0,540.0,135.0,white,I
0.0,4.0,4.0,0.0,7.0,2.0,2011.147715998959,1.0,1.0,phase_3,,,,,405.0,3.0,675.0,405.0,270.0,810.0,135.0,540.0,gray,flipped triangle
0.0,7.0,3.0,1.0,7.0,4.0,1729.2151789988566,1.0,1.0,phase_3,,,,,924.0,6.0,308.0,770.0,616.0,924.0,462.0,154.0,cyan,diamond
0.0,1.0,1.0,0.0,7.0,5.0,2464.090924999254,1.0,1.0,phase_3,,,,,540.0,4.0,405.0,810.0,270.0,675.0,540.0,135.0,orange,cross
0.0,6.0,2.0,1.0,7.0,5.0,1511.31007100048,1.0,1.0,phase_3,,,,,270.0,2.0,135.0,810.0,405.0,540.0,270.0,675.0,white,I
0.0,4.0,4.0,0.0,7.0,4.0,4162.09793499911,1.0,1.0,phase_3,,,,,810.0,6.0,270.0,405.0,675.0,810.0,540.0,135.0,gray,flipped triangle
0.0,1.0,1.0,0.0,7.0,4.0,726.9421159999183,1.0,1.0,phase_3,,,,,770.0,5.0,154.0,924.0,616.0,770.0,462.0,308.0,orange,cross
0.0,7.0,3.0,1.0,7.0,1.0,3243.6860099987825,1.0,1.0,phase_3,,,,,116.0,1.0,116.0,348.0,464.0,232.0,580.0,696.0,cyan,diamond
0.0,1.0,1.0,0.0,7.0,5.0,2621.5062759984,1.0,1.0,phase_3,,,,,692.0,4.0,346.0,173.0,1038.0,865.0,692.0,519.0,orange,cross
0.0,2.0,2.0,0.0,7.0,2.0,2052.6887649994023,1.0,1.0,phase_3,,,,,135.0,1.0,810.0,135.0,675.0,405.0,270.0,540.0,blue,circle
0.0,6.0,2.0,1.0,7.0,3.0,2788.24605599948,1.0,1.0,phase_3,,,,,960.0,5.0,192.0,1152.0,960.0,768.0,384.0,576.0,white,I
0.0,2.0,2.0,0.0,7.0,1.0,2232.821046998652,1.0,1.0,phase_3,,,,,540.0,4.0,540.0,810.0,405.0,270.0,675.0,135.0,blue,circle
0.0,4.0,4.0,0.0,7.0,4.0,2109.1066439985298,1.0,1.0,phase_3,,,,,348.0,3.0,232.0,464.0,116.0,348.0,580.0,696.0,gray,flipped triangle
0.0,8.0,4.0,1.0,7.0,5.0,1835.6846480000968,1.0,1.0,phase_3,,,,,768.0,4.0,192.0,1152.0,384.0,960.0,768.0,576.0,green,triangle
0.0,3.0,3.0,0.0,7.0,6.0,1670.990692000487,1.0,1.0,phase_3,,,,,675.0,5.0,540.0,810.0,270.0,135.0,405.0,675.0,magenta,square
0.0,3.0,3.0,0.0,7.0,5.0,1576.7961890014703,2.0,1.0,phase_3,,,,,1152.0,6.0,192.0,960.0,576.0,384.0,1152.0,768.0,magenta,square
0.0,3.0,3.0,0.0,7.0,3.0,599.9940349993267,2.0,1.0,phase_3,,,,,692.0,4.0,865.0,346.0,692.0,519.0,173.0,1038.0,magenta,square
0.0,2.0,2.0,0.0,7.0,4.0,1226.1489459997392,2.0,1.0,phase_3,,,,,616.0,4.0,924.0,308.0,770.0,616.0,154.0,462.0,blue,circle
0.0,2.0,2.0,0.0,7.0,1.0,1123.471711000093,2.0,1.0,phase_3,,,,,924.0,6.0,924.0,308.0,770.0,462.0,616.0,154.0,blue,circle
0.0,4.0,4.0,0.0,7.0,5.0,1588.0728080010158,2.0,1.0,phase_3,,,,,154.0,1.0,462.0,770.0,616.0,924.0,154.0,308.0,gray,flipped triangle
0.0,3.0,3.0,0.0,7.0,3.0,3899.402776998613,2.0,1.0,phase_3,,,,,768.0,4.0,576.0,384.0,768.0,192.0,960.0,1152.0,magenta,square
0.0,3.0,3.0,0.0,7.0,1.0,3182.348196000021,2.0,1.0,phase_3,,,,,770.0,5.0,770.0,308.0,924.0,154.0,616.0,462.0,magenta,square
0.0,7.0,3.0,1.0,7.0,5.0,2002.211103999798,2.0,1.0,phase_3,,,,,540.0,4.0,135.0,675.0,270.0,810.0,540.0,405.0,cyan,diamond
0.0,5.0,1.0,1.0,7.0,6.0,3148.798849000741,2.0,1.0,phase_3,,,,,384.0,2.0,192.0,1152.0,768.0,960.0,576.0,384.0,yellow,hexagon
0.0,5.0,1.0,1.0,7.0,6.0,1126.648937999562,2.0,1.0,phase_3,,,,,576.0,3.0,1152.0,384.0,768.0,192.0,960.0,576.0,yellow,hexagon
0.0,4.0,4.0,0.0,7.0,4.0,2285.545295999327,2.0,1.0,phase_3,,,,,580.0,5.0,116.0,464.0,348.0,580.0,232.0,696.0,gray,flipped triangle
0.0,1.0,1.0,0.0,7.0,3.0,2152.869692001332,2.0,1.0,phase_3,,,,,692.0,4.0,1038.0,865.0,692.0,346.0,519.0,173.0,orange,cross
0.0,3.0,3.0,0.0,7.0,2.0,1301.910066000346,2.0,1.0,phase_3,,,,,696.0,6.0,348.0,696.0,116.0,580.0,232.0,464.0,magenta,square
0.0,8.0,4.0,1.0,7.0,5.0,2091.031407000628,2.0,1.0,phase_3,,,,,1152.0,6.0,768.0,192.0,960.0,384.0,1152.0,576.0,green,triangle
0.0,7.0,3.0,1.0,7.0,1.0,2307.232327000748,2.0,1.0,phase_3,,,,,768.0,4.0,768.0,960.0,384.0,1152.0,192.0,576.0,cyan,diamond
0.0,5.0,1.0,1.0,7.0,2.0,2140.4241060008644,2.0,1.0,phase_3,,,,,308.0,2.0,924.0,308.0,154.0,616.0,770.0,462.0,yellow,hexagon
0.0,5.0,1.0,1.0,7.0,5.0,2069.1460569996707,2.0,1.0,phase_3,,,,,580.0,5.0,232.0,116.0,464.0,348.0,580.0,696.0,yellow,hexagon
0.0,7.0,3.0,1.0,7.0,4.0,2297.734669999045,2.0,1.0,phase_3,,,,,1152.0,6.0,960.0,384.0,576.0,1152.0,768.0,192.0,cyan,diamond
0.0,4.0,4.0,0.0,7.0,3.0,2920.48716699901,2.0,1.0,phase_3,,,,,384.0,2.0,960.0,576.0,384.0,192.0,1152.0,768.0,gray,flipped triangle
0.0,7.0,3.0,1.0,7.0,1.0,2141.147723999893,2.0,1.0,phase_3,,,,,154.0,1.0,154.0,924.0,462.0,770.0,308.0,616.0,cyan,diamond
0.0,8.0,4.0,1.0,7.0,6.0,1646.4821600002324,3.0,1.0,phase_3,,,,,464.0,4.0,580.0,696.0,116.0,348.0,232.0,464.0,green,triangle
0.0,6.0,2.0,1.0,7.0,5.0,992.226139000195,3.0,1.0,phase_3,,,,,308.0,2.0,924.0,616.0,770.0,154.0,308.0,462.0,white,I
0.0,1.0,1.0,0.0,7.0,2.0,964.7270089990344,3.0,1.0,phase_3,,,,,960.0,5.0,1152.0,960.0,384.0,768.0,576.0,192.0,orange,cross
0.0,2.0,2.0,0.0,7.0,4.0,889.3538770007581,3.0,1.0,phase_3,,,,,232.0,2.0,580.0,696.0,116.0,232.0,464.0,348.0,blue,circle
0.0,7.0,3.0,1.0,7.0,5.0,974.2561670009308,3.0,1.0,phase_3,,,,,865.0,5.0,692.0,173.0,346.0,519.0,865.0,1038.0,cyan,diamond
0.0,3.0,3.0,0.0,7.0,2.0,924.2120100007014,3.0,1.0,phase_3,,,,,270.0,2.0,405.0,270.0,675.0,135.0,810.0,540.0,magenta,square
0.0,8.0,4.0,1.0,7.0,1.0,1359.3465800004196,3.0,1.0,phase_3,,,,,154.0,1.0,154.0,616.0,924.0,462.0,770.0,308.0,green,triangle
0.0,8.0,4.0,1.0,7.0,4.0,2554.807340999105,3.0,1.0,phase_3,,,,,116.0,1.0,464.0,580.0,696.0,116.0,232.0,348.0,green,triangle
0.0,5.0,1.0,1.0,7.0,2.0,652.8382550004608,3.0,2.0,phase_3,,,,,405.0,3.0,540.0,405.0,675.0,270.0,135.0,810.0,yellow,hexagon
0.0,6.0,2.0,1.0,7.0,5.0,1048.5436910003043,3.0,1.0,phase_3,,,,,116.0,1.0,580.0,232.0,348.0,696.0,116.0,464.0,white,I
0.0,5.0,1.0,1.0,7.0,1.0,2848.656476000542,3.0,1.0,phase_3,,,,,173.0,1.0,173.0,519.0,692.0,865.0,1038.0,346.0,yellow,hexagon
0.0,4.0,4.0,0.0,7.0,2.0,1277.051859000494,3.0,1.0,phase_3,,,,,173.0,1.0,865.0,173.0,346.0,1038.0,692.0,519.0,gray,flipped triangle
0.0,4.0,4.0,0.0,7.0,3.0,1635.8649280009558,3.0,1.0,phase_3,,,,,173.0,1.0,692.0,865.0,173.0,519.0,1038.0,346.0,gray,flipped triangle
0.0,8.0,4.0,1.0,7.0,5.0,2459.3053219996364,3.0,1.0,phase_3,,,,,924.0,6.0,770.0,462.0,154.0,308.0,924.0,616.0,green,triangle
0.0,5.0,1.0,1.0,7.0,5.0,1506.3772129997233,3.0,1.0,phase_3,,,,,346.0,2.0,692.0,519.0,1038.0,173.0,346.0,865.0,yellow,hexagon
0.0,1.0,1.0,0.0,7.0,6.0,1194.1101279990107,3.0,1.0,phase_3,,,,,462.0,3.0,154.0,924.0,616.0,308.0,770.0,462.0,orange,cross
0.0,6.0,2.0,1.0,7.0,4.0,869.3943050002417,3.0,1.0,phase_3,,,,,173.0,1.0,346.0,519.0,1038.0,173.0,865.0,692.0,white,I
0.0,4.0,4.0,0.0,7.0,2.0,898.6699489996681,3.0,1.0,phase_3,,,,,154.0,1.0,462.0,154.0,770.0,616.0,924.0,308.0,gray,flipped triangle
0.0,2.0,2.0,0.0,7.0,1.0,1176.6043859988713,3.0,1.0,phase_3,,,,,1038.0,6.0,1038.0,346.0,692.0,519.0,865.0,173.0,blue,circle
0.0,2.0,2.0,0.0,7.0,5.0,719.046416999845,3.0,1.0,phase_3,,,,,576.0,3.0,960.0,1152.0,768.0,192.0,576.0,384.0,blue,circle
0.0,7.0,3.0,1.0,7.0,3.0,1152.8890040008264,4.0,1.0,phase_3,,,,,580.0,5.0,464.0,116.0,580.0,696.0,232.0,348.0,cyan,diamond
0.0,1.0,1.0,0.0,7.0,4.0,1039.001623001241,4.0,1.0,phase_3,,,,,348.0,3.0,232.0,580.0,464.0,348.0,116.0,696.0,orange,cross
0.0,2.0,2.0,0.0,7.0,5.0,1741.6566880001485,4.0,1.0,phase_3,,,,,346.0,2.0,692.0,1038.0,519.0,865.0,346.0,173.0,blue,circle
0.0,3.0,3.0,0.0,7.0,4.0,2115.964990000066,4.0,1.0,phase_3,,,,,696.0,6.0,464.0,580.0,116.0,696.0,232.0,348.0,magenta,square
0.0,1.0,1.0,0.0,7.0,3.0,728.153055999428,4.0,1.0,phase_3,,,,,384.0,2.0,960.0,1152.0,384.0,768.0,192.0,576.0,orange,cross
0.0,5.0,1.0,1.0,7.0,3.0,1424.081870000009,4.0,1.0,phase_3,,,,,308.0,2.0,462.0,770.0,308.0,154.0,616.0,924.0,yellow,hexagon
0.0,5.0,1.0,1.0,7.0,1.0,2351.701764999234,4.0,1.0,phase_3,,,,,348.0,3.0,348.0,116.0,464.0,696.0,232.0,580.0,yellow,hexagon
0.0,8.0,4.0,1.0,7.0,2.0,889.578493000954,4.0,1.0,phase_3,,,,,540.0,4.0,675.0,540.0,405.0,135.0,810.0,270.0,green,triangle
0.0,1.0,1.0,0.0,7.0,3.0,1554.5916850005597,4.0,1.0,phase_3,,,,,464.0,4.0,348.0,116.0,464.0,580.0,232.0,696.0,orange,cross
0.0,7.0,3.0,1.0,7.0,5.0,1529.6903230009775,4.0,1.0,phase_3,,,,,810.0,6.0,405.0,135.0,675.0,270.0,810.0,540.0,cyan,diamond
0.0,5.0,1.0,1.0,7.0,4.0,660.6733459993848,4.0,1.0,phase_3,,,,,540.0,4.0,675.0,135.0,405.0,540.0,270.0,810.0,yellow,hexagon
0.0,6.0,2.0,1.0,7.0,4.0,2080.8670850001363,4.0,1.0,phase_3,,,,,770.0,5.0,616.0,308.0,154.0,770.0,924.0,462.0,white,I
0.0,2.0,2.0,0.0,7.0,3.0,1713.186745000712,4.0,1.0,phase_3,,,,,576.0,3.0,768.0,192.0,576.0,1152.0,960.0,384.0,blue,circle
0.0,4.0,4.0,0.0,7.0,4.0,2050.5621199990856,4.0,1.0,phase_3,,,,,960.0,5.0,576.0,192.0,1152.0,960.0,384.0,768.0,gray,flipped triangle
0.0,7.0,3.0,1.0,7.0,6.0,1299.7717119997103,4.0,1.0,phase_3,,,,,173.0,1.0,692.0,865.0,1038.0,519.0,346.0,173.0,cyan,diamond
0.0,2.0,2.0,0.0,7.0,6.0,757.9288779998024,4.0,1.0,phase_3,,,,,116.0,1.0,580.0,464.0,232.0,348.0,696.0,116.0,blue,circle
0.0,8.0,4.0,1.0,7.0,6.0,1766.273799001283,4.0,1.0,phase_3,,,,,519.0,3.0,692.0,173.0,1038.0,346.0,865.0,519.0,green,triangle
0.0,8.0,4.0,1.0,7.0,2.0,1193.188671999451,4.0,1.0,phase_3,,,,,270.0,2.0,405.0,270.0,675.0,810.0,135.0,540.0,green,triangle
0.0,8.0,4.0,1.0,7.0,4.0,1834.625802001028,4.0,1.0,phase_3,,,,,173.0,1.0,1038.0,692.0,865.0,173.0,519.0,346.0,green,triangle
0.0,3.0,3.0,0.0,7.0,3.0,1048.5852929996329,4.0,1.0,phase_3,,,,,346.0,2.0,519.0,1038.0,346.0,173.0,692.0,865.0,magenta,square
