raw_reward_magnitude,stim_reward,stepwise_reward_magnitude,paired_with_stopping,stim_location,response,reaction_time,block,num_trial_presentations,which_phase,stop_signal_trial_type,left_SSD,right_SSD,accuracy,chosen_bidding_amount,chosen_bidding_level,possible_bid_1,possible_bid_2,possible_bid_3,possible_bid_4,possible_bid_5,possible_bid_6,color_text,shape_text
340.0,6.0,1.0,1.0,4.0,4.0,417.7080930003285,1.0,1.0,phase_1,,,,,,,,,,,,,magenta,flipped triangle
1300.0,4.0,4.0,0.0,1.0,1.0,404.7926920011377,1.0,1.0,phase_1,,,,,,,,,,,,,cyan,hexagon
152.0,1.0,0.5,0.0,1.0,1.0,311.4446239997051,1.0,1.0,phase_1,,,,,,,,,,,,,orange,diamond
1302.0,8.0,4.0,1.0,3.0,3.0,301.467228000547,1.0,1.0,phase_1,,,,,,,,,,,,,gray,triangle
146.0,1.0,0.5,0.0,3.0,3.0,302.8436719996534,1.0,1.0,phase_1,,,,,,,,,,,,,orange,diamond
324.0,2.0,1.0,0.0,1.0,1.0,310.2979590003087,1.0,1.0,phase_1,,,,,,,,,,,,,green,circle
312.0,6.0,1.0,1.0,2.0,2.0,358.4952500004874,1.0,1.0,phase_1,,,,,,,,,,,,,magenta,flipped triangle
312.0,2.0,1.0,0.0,3.0,3.0,308.9071710001008,1.0,1.0,phase_1,,,,,,,,,,,,,green,circle
166.0,5.0,0.5,1.0,4.0,4.0,330.906880000839,1.0,1.0,phase_1,,,,,,,,,,,,,white,cross
1288.0,8.0,4.0,1.0,3.0,3.0,311.5010380006424,1.0,1.0,phase_1,,,,,,,,,,,,,gray,triangle
1323.0,4.0,4.0,0.0,4.0,4.0,339.6489610004209,1.0,1.0,phase_1,,,,,,,,,,,,,cyan,hexagon
0.0,7.0,0.0,1.0,1.0,1.0,395.8307490011066,1.0,1.0,phase_1,,,,,,,,,,,,,blue,square
1306.0,4.0,4.0,0.0,3.0,3.0,292.1662120006658,1.0,1.0,phase_1,,,,,,,,,,,,,cyan,hexagon
1319.0,4.0,4.0,0.0,2.0,2.0,329.3865579998964,1.0,1.0,phase_1,,,,,,,,,,,,,cyan,hexagon
1288.0,4.0,4.0,0.0,4.0,4.0,291.5338709990465,1.0,1.0,phase_1,,,,,,,,,,,,,cyan,hexagon
1278.0,8.0,4.0,1.0,2.0,2.0,320.8804420009983,1.0,1.0,phase_1,,,,,,,,,,,,,gray,triangle
1299.0,8.0,4.0,1.0,1.0,1.0,300.0642730003164,1.0,1.0,phase_1,,,,,,,,,,,,,gray,triangle
0.0,1.0,0.0,0.0,4.0,4.0,331.2434170002234,1.0,1.0,phase_1,,,,,,,,,,,,,orange,diamond
1288.0,4.0,4.0,0.0,3.0,3.0,377.0875190002698,1.0,1.0,phase_1,,,,,,,,,,,,,cyan,hexagon
666.0,3.0,2.0,0.0,4.0,4.0,311.4552070001082,1.0,1.0,phase_1,,,,,,,,,,,,,yellow,I
335.0,6.0,1.0,1.0,2.0,2.0,359.7899740016146,1.0,1.0,phase_1,,,,,,,,,,,,,magenta,flipped triangle
1308.0,4.0,4.0,0.0,2.0,2.0,320.629256999382,1.0,1.0,phase_1,,,,,,,,,,,,,cyan,hexagon
1287.0,8.0,4.0,1.0,1.0,1.0,301.0378070011938,1.0,1.0,phase_1,,,,,,,,,,,,,gray,triangle
0.0,7.0,0.0,1.0,1.0,1.0,291.8793700009701,1.0,1.0,phase_1,,,,,,,,,,,,,blue,square
302.0,2.0,1.0,0.0,4.0,4.0,300.7581580004625,1.0,1.0,phase_1,,,,,,,,,,,,,green,circle
0.0,3.0,0.0,0.0,2.0,2.0,405.9308609994332,1.0,1.0,phase_1,,,,,,,,,,,,,yellow,I
1278.0,4.0,4.0,0.0,3.0,3.0,291.6985860010754,1.0,1.0,phase_1,,,,,,,,,,,,,cyan,hexagon
662.0,7.0,2.0,1.0,3.0,3.0,311.4148610002303,1.0,1.0,phase_1,,,,,,,,,,,,,blue,square
1296.0,8.0,4.0,1.0,3.0,3.0,330.2301989988336,1.0,1.0,phase_1,,,,,,,,,,,,,gray,triangle
625.0,3.0,2.0,0.0,3.0,3.0,302.0902959997329,1.0,1.0,phase_1,,,,,,,,,,,,,yellow,I
153.0,1.0,0.5,0.0,4.0,4.0,235.0937449991761,1.0,1.0,phase_1,,,,,,,,,,,,,orange,diamond
166.0,5.0,0.5,1.0,3.0,3.0,282.0164710010431,1.0,1.0,phase_1,,,,,,,,,,,,,white,cross
1305.0,8.0,4.0,1.0,4.0,4.0,301.0998539994034,1.0,2.0,phase_1,,,,,,,,,,,,,gray,triangle
147.0,1.0,0.5,0.0,2.0,2.0,337.9658279991417,1.0,1.0,phase_1,,,,,,,,,,,,,orange,diamond
347.0,2.0,1.0,0.0,2.0,2.0,423.1395570004679,1.0,1.0,phase_1,,,,,,,,,,,,,green,circle
310.0,2.0,1.0,0.0,3.0,3.0,337.8523510000377,1.0,1.0,phase_1,,,,,,,,,,,,,green,circle
1313.0,8.0,4.0,1.0,2.0,2.0,393.285169999217,1.0,1.0,phase_1,,,,,,,,,,,,,gray,triangle
632.0,3.0,2.0,0.0,1.0,1.0,404.8047730011603,1.0,1.0,phase_1,,,,,,,,,,,,,yellow,I
1295.0,4.0,4.0,0.0,2.0,2.0,338.082721000319,1.0,1.0,phase_1,,,,,,,,,,,,,cyan,hexagon
1309.0,4.0,4.0,0.0,2.0,2.0,395.6681529998604,1.0,1.0,phase_1,,,,,,,,,,,,,cyan,hexagon
0.0,6.0,0.0,1.0,3.0,3.0,338.1006409999827,1.0,1.0,phase_1,,,,,,,,,,,,,magenta,flipped triangle
169.0,1.0,0.5,0.0,3.0,3.0,356.1693419997027,1.0,1.0,phase_1,,,,,,,,,,,,,orange,diamond
325.0,6.0,1.0,1.0,1.0,1.0,366.3157299997692,1.0,1.0,phase_1,,,,,,,,,,,,,magenta,flipped triangle
313.0,2.0,1.0,0.0,4.0,4.0,301.1614789993473,1.0,1.0,phase_1,,,,,,,,,,,,,green,circle
673.0,7.0,2.0,1.0,4.0,4.0,347.9341799993563,1.0,1.0,phase_1,,,,,,,,,,,,,blue,square
335.0,6.0,1.0,1.0,2.0,2.0,329.7772139994777,1.0,1.0,phase_1,,,,,,,,,,,,,magenta,flipped triangle
0.0,2.0,0.0,0.0,3.0,3.0,311.0606289992574,1.0,1.0,phase_1,,,,,,,,,,,,,green,circle
0.0,7.0,0.0,1.0,2.0,2.0,355.9538739991694,1.0,1.0,phase_1,,,,,,,,,,,,,blue,square
637.0,7.0,2.0,1.0,4.0,4.0,311.1208159989473,1.0,1.0,phase_1,,,,,,,,,,,,,blue,square
1323.0,4.0,4.0,0.0,1.0,1.0,395.0883269990299,1.0,1.0,phase_1,,,,,,,,,,,,,cyan,hexagon
639.0,3.0,2.0,0.0,4.0,4.0,337.5273439996817,1.0,1.0,phase_1,,,,,,,,,,,,,yellow,I
0.0,8.0,0.0,1.0,3.0,3.0,310.9246600015467,1.0,1.0,phase_1,,,,,,,,,,,,,gray,triangle
323.0,2.0,1.0,0.0,1.0,1.0,385.8600010007649,1.0,1.0,phase_1,,,,,,,,,,,,,green,circle
631.0,7.0,2.0,1.0,3.0,3.0,339.3730719999439,1.0,1.0,phase_1,,,,,,,,,,,,,blue,square
167.0,5.0,0.5,1.0,3.0,3.0,337.5089609999122,1.0,1.0,phase_1,,,,,,,,,,,,,white,cross
1289.0,8.0,4.0,1.0,1.0,1.0,367.1265089997177,1.0,1.0,phase_1,,,,,,,,,,,,,gray,triangle
1299.0,4.0,4.0,0.0,1.0,1.0,328.7822270012839,1.0,1.0,phase_1,,,,,,,,,,,,,cyan,hexagon
633.0,7.0,2.0,1.0,1.0,1.0,347.7831759992114,1.0,1.0,phase_1,,,,,,,,,,,,,blue,square
0.0,5.0,0.0,1.0,1.0,1.0,319.4549639993056,1.0,1.0,phase_1,,,,,,,,,,,,,white,cross
313.0,6.0,1.0,1.0,3.0,3.0,300.9954400004062,1.0,1.0,phase_1,,,,,,,,,,,,,magenta,flipped triangle
304.0,2.0,1.0,0.0,1.0,1.0,376.8378200002189,1.0,1.0,phase_1,,,,,,,,,,,,,green,circle
1308.0,8.0,4.0,1.0,4.0,4.0,338.785177000318,1.0,1.0,phase_1,,,,,,,,,,,,,gray,triangle
0.0,7.0,0.0,1.0,4.0,4.0,320.1802190014859,1.0,1.0,phase_1,,,,,,,,,,,,,blue,square
349.0,6.0,1.0,1.0,4.0,4.0,264.0342089998739,1.0,1.0,phase_1,,,,,,,,,,,,,magenta,flipped triangle
0.0,7.0,0.0,1.0,4.0,4.0,311.1242089998995,1.0,1.0,phase_1,,,,,,,,,,,,,blue,square
176.0,1.0,0.5,0.0,1.0,1.0,319.9946819986508,1.0,1.0,phase_1,,,,,,,,,,,,,orange,diamond
343.0,2.0,1.0,0.0,2.0,2.0,368.57909500031377,1.0,2.0,phase_1,,,,,,,,,,,,,green,circle
646.0,7.0,2.0,1.0,1.0,1.0,471.3549429998238,1.0,1.0,phase_1,,,,,,,,,,,,,blue,square
641.0,7.0,2.0,1.0,3.0,3.0,319.0218719992117,1.0,1.0,phase_1,,,,,,,,,,,,,blue,square
651.0,3.0,2.0,0.0,4.0,4.0,357.6000550001481,1.0,1.0,phase_1,,,,,,,,,,,,,yellow,I
0.0,2.0,0.0,0.0,3.0,3.0,339.0900039994449,1.0,1.0,phase_1,,,,,,,,,,,,,green,circle
350.0,2.0,1.0,0.0,4.0,4.0,320.785612999316,1.0,1.0,phase_1,,,,,,,,,,,,,green,circle
152.0,5.0,0.5,1.0,2.0,2.0,348.7798119986109,1.0,1.0,phase_1,,,,,,,,,,,,,white,cross
179.0,1.0,0.5,0.0,1.0,1.0,366.1853949997748,1.0,1.0,phase_1,,,,,,,,,,,,,orange,diamond
0.0,4.0,0.0,0.0,2.0,2.0,417.4236609997024,1.0,1.0,phase_1,,,,,,,,,,,,,cyan,hexagon
1297.0,4.0,4.0,0.0,4.0,4.0,311.6431170001306,1.0,1.0,phase_1,,,,,,,,,,,,,cyan,hexagon
305.0,6.0,1.0,1.0,4.0,4.0,316.6659969992906,1.0,1.0,phase_1,,,,,,,,,,,,,magenta,flipped triangle
337.0,2.0,1.0,0.0,2.0,2.0,356.7542339987994,1.0,1.0,phase_1,,,,,,,,,,,,,green,circle
329.0,6.0,1.0,1.0,1.0,1.0,357.2979550008313,1.0,1.0,phase_1,,,,,,,,,,,,,magenta,flipped triangle
639.0,7.0,2.0,1.0,4.0,4.0,312.8882250002789,1.0,1.0,phase_1,,,,,,,,,,,,,blue,square
311.0,6.0,1.0,1.0,3.0,3.0,339.5814640007302,1.0,1.0,phase_1,,,,,,,,,,,,,magenta,flipped triangle
664.0,7.0,2.0,1.0,3.0,3.0,321.4155690002371,1.0,1.0,phase_1,,,,,,,,,,,,,blue,square
1290.0,4.0,4.0,0.0,3.0,3.0,359.6407200002431,1.0,1.0,phase_1,,,,,,,,,,,,,cyan,hexagon
165.0,1.0,0.5,0.0,4.0,4.0,292.7756129993213,1.0,1.0,phase_1,,,,,,,,,,,,,orange,diamond
176.0,5.0,0.5,1.0,2.0,2.0,386.5508290000434,1.0,1.0,phase_1,,,,,,,,,,,,,white,cross
0.0,2.0,0.0,0.0,1.0,1.0,292.4515449994942,1.0,1.0,phase_1,,,,,,,,,,,,,green,circle
0.0,5.0,0.0,1.0,1.0,1.0,311.752597001032,1.0,1.0,phase_1,,,,,,,,,,,,,white,cross
0.0,1.0,0.0,0.0,1.0,1.0,329.2110270012927,1.0,1.0,phase_1,,,,,,,,,,,,,orange,diamond
326.0,6.0,1.0,1.0,2.0,2.0,366.5227989986306,1.0,2.0,phase_1,,,,,,,,,,,,,magenta,flipped triangle
147.0,1.0,0.5,0.0,4.0,4.0,281.496616998993,1.0,1.0,phase_1,,,,,,,,,,,,,orange,diamond
0.0,8.0,0.0,1.0,4.0,4.0,319.4670510001742,1.0,1.0,phase_1,,,,,,,,,,,,,gray,triangle
672.0,3.0,2.0,0.0,3.0,3.0,397.4919989996124,1.0,1.0,phase_1,,,,,,,,,,,,,yellow,I
169.0,5.0,0.5,1.0,1.0,1.0,377.1282090001477,1.0,1.0,phase_1,,,,,,,,,,,,,white,cross
1293.0,8.0,4.0,1.0,1.0,1.0,319.3791900012002,1.0,1.0,phase_1,,,,,,,,,,,,,gray,triangle
165.0,5.0,0.5,1.0,4.0,4.0,367.9586380003457,1.0,1.0,phase_1,,,,,,,,,,,,,white,cross
143.0,1.0,0.5,0.0,4.0,4.0,282.8007740008615,1.0,1.0,phase_1,,,,,,,,,,,,,orange,diamond
1276.0,8.0,4.0,1.0,4.0,4.0,263.4016179999889,1.0,1.0,phase_1,,,,,,,,,,,,,gray,triangle
343.0,6.0,1.0,1.0,3.0,3.0,329.2572329992254,1.0,1.0,phase_1,,,,,,,,,,,,,magenta,flipped triangle
151.0,5.0,0.5,1.0,3.0,3.0,302.615632999732,1.0,1.0,phase_1,,,,,,,,,,,,,white,cross
639.0,7.0,2.0,1.0,4.0,4.0,321.2495629995828,1.0,1.0,phase_1,,,,,,,,,,,,,blue,square
170.0,5.0,0.5,1.0,4.0,4.0,386.940655998842,2.0,1.0,phase_1,,,,,,,,,,,,,white,cross
179.0,5.0,0.5,1.0,1.0,1.0,404.3570190005994,2.0,1.0,phase_1,,,,,,,,,,,,,white,cross
148.0,5.0,0.5,1.0,1.0,1.0,319.7205550004582,2.0,1.0,phase_1,,,,,,,,,,,,,white,cross
329.0,2.0,1.0,0.0,4.0,4.0,340.1042240002425,2.0,1.0,phase_1,,,,,,,,,,,,,green,circle
1319.0,8.0,4.0,1.0,1.0,1.0,320.2545259991893,2.0,1.0,phase_1,,,,,,,,,,,,,gray,triangle
0.0,4.0,0.0,0.0,3.0,3.0,295.3387910001765,2.0,1.0,phase_1,,,,,,,,,,,,,cyan,hexagon
657.0,7.0,2.0,1.0,2.0,2.0,487.8877170012856,2.0,2.0,phase_1,,,,,,,,,,,,,blue,square
340.0,2.0,1.0,0.0,2.0,2.0,377.0846690003964,2.0,1.0,phase_1,,,,,,,,,,,,,green,circle
328.0,6.0,1.0,1.0,3.0,3.0,349.5086799994169,2.0,1.0,phase_1,,,,,,,,,,,,,magenta,flipped triangle
0.0,1.0,0.0,0.0,1.0,1.0,385.8340959995985,2.0,1.0,phase_1,,,,,,,,,,,,,orange,diamond
648.0,3.0,2.0,0.0,2.0,2.0,386.3454990005266,2.0,1.0,phase_1,,,,,,,,,,,,,yellow,I
658.0,3.0,2.0,0.0,1.0,1.0,378.0492249989038,2.0,1.0,phase_1,,,,,,,,,,,,,yellow,I
0.0,4.0,0.0,0.0,2.0,2.0,348.895472001459,2.0,1.0,phase_1,,,,,,,,,,,,,cyan,hexagon
641.0,3.0,2.0,0.0,4.0,4.0,396.0293449999881,2.0,1.0,phase_1,,,,,,,,,,,,,yellow,I
1276.0,4.0,4.0,0.0,1.0,1.0,432.5864739985263,2.0,2.0,phase_1,,,,,,,,,,,,,cyan,hexagon
0.0,1.0,0.0,0.0,4.0,4.0,415.4235320002044,2.0,1.0,phase_1,,,,,,,,,,,,,orange,diamond
1278.0,4.0,4.0,0.0,1.0,1.0,442.8182739993644,2.0,1.0,phase_1,,,,,,,,,,,,,cyan,hexagon
316.0,6.0,1.0,1.0,2.0,2.0,452.9196869989391,2.0,1.0,phase_1,,,,,,,,,,,,,magenta,flipped triangle
316.0,2.0,1.0,0.0,4.0,4.0,338.4161659996607,2.0,1.0,phase_1,,,,,,,,,,,,,green,circle
671.0,3.0,2.0,0.0,1.0,1.0,423.7274170009186,2.0,1.0,phase_1,,,,,,,,,,,,,yellow,I
0.0,5.0,0.0,1.0,2.0,2.0,385.8614729997498,2.0,1.0,phase_1,,,,,,,,,,,,,white,cross
170.0,1.0,0.5,0.0,1.0,1.0,329.8048510005174,2.0,1.0,phase_1,,,,,,,,,,,,,orange,diamond
1295.0,4.0,4.0,0.0,4.0,4.0,311.5499209998233,2.0,1.0,phase_1,,,,,,,,,,,,,cyan,hexagon
160.0,1.0,0.5,0.0,1.0,1.0,414.1216980005993,2.0,1.0,phase_1,,,,,,,,,,,,,orange,diamond
333.0,2.0,1.0,0.0,1.0,1.0,386.2655140001152,2.0,1.0,phase_1,,,,,,,,,,,,,green,circle
181.0,5.0,0.5,1.0,3.0,3.0,366.7561509992083,2.0,1.0,phase_1,,,,,,,,,,,,,white,cross
319.0,2.0,1.0,0.0,2.0,2.0,376.6471349990752,2.0,1.0,phase_1,,,,,,,,,,,,,green,circle
137.0,5.0,0.5,1.0,4.0,4.0,367.0605700008309,2.0,1.0,phase_1,,,,,,,,,,,,,white,cross
183.0,5.0,0.5,1.0,4.0,4.0,348.2729080005811,2.0,1.0,phase_1,,,,,,,,,,,,,white,cross
304.0,2.0,1.0,0.0,3.0,3.0,321.0029659985594,2.0,1.0,phase_1,,,,,,,,,,,,,green,circle
1287.0,4.0,4.0,0.0,1.0,1.0,339.0311029997974,2.0,1.0,phase_1,,,,,,,,,,,,,cyan,hexagon
1305.0,4.0,4.0,0.0,3.0,3.0,407.2878059996583,2.0,1.0,phase_1,,,,,,,,,,,,,cyan,hexagon
304.0,6.0,1.0,1.0,4.0,4.0,330.5362930004776,2.0,1.0,phase_1,,,,,,,,,,,,,magenta,flipped triangle
672.0,7.0,2.0,1.0,4.0,4.0,311.1563299989939,2.0,1.0,phase_1,,,,,,,,,,,,,blue,square
1323.0,8.0,4.0,1.0,1.0,1.0,387.0601110011193,2.0,1.0,phase_1,,,,,,,,,,,,,gray,triangle
666.0,7.0,2.0,1.0,2.0,2.0,413.9580579994799,2.0,1.0,phase_1,,,,,,,,,,,,,blue,square
347.0,6.0,1.0,1.0,1.0,1.0,320.3609599986521,2.0,1.0,phase_1,,,,,,,,,,,,,magenta,flipped triangle
0.0,7.0,0.0,1.0,1.0,1.0,358.5825509999267,2.0,1.0,phase_1,,,,,,,,,,,,,blue,square
648.0,7.0,2.0,1.0,3.0,3.0,292.0298129993171,2.0,1.0,phase_1,,,,,,,,,,,,,blue,square
662.0,7.0,2.0,1.0,2.0,2.0,357.0935759998974,2.0,1.0,phase_1,,,,,,,,,,,,,blue,square
182.0,5.0,0.5,1.0,1.0,1.0,273.3502770006453,2.0,1.0,phase_1,,,,,,,,,,,,,white,cross
148.0,1.0,0.5,0.0,2.0,2.0,678.8560900004086,2.0,1.0,phase_1,,,,,,,,,,,,,orange,diamond
1316.0,8.0,4.0,1.0,1.0,1.0,442.9544119993807,2.0,1.0,phase_1,,,,,,,,,,,,,gray,triangle
160.0,5.0,0.5,1.0,2.0,2.0,349.4899289999011,2.0,1.0,phase_1,,,,,,,,,,,,,white,cross
1293.0,4.0,4.0,0.0,4.0,4.0,309.9399830007314,2.0,1.0,phase_1,,,,,,,,,,,,,cyan,hexagon
646.0,7.0,2.0,1.0,4.0,4.0,319.6781639999244,2.0,1.0,phase_1,,,,,,,,,,,,,blue,square
167.0,5.0,0.5,1.0,1.0,1.0,308.9880019997508,2.0,1.0,phase_1,,,,,,,,,,,,,white,cross
340.0,2.0,1.0,0.0,3.0,3.0,337.0383229994331,2.0,1.0,phase_1,,,,,,,,,,,,,green,circle
635.0,3.0,2.0,0.0,4.0,4.0,348.5092589999112,2.0,1.0,phase_1,,,,,,,,,,,,,yellow,I
1323.0,4.0,4.0,0.0,2.0,2.0,338.544666999951,2.0,1.0,phase_1,,,,,,,,,,,,,cyan,hexagon
175.0,1.0,0.5,0.0,1.0,1.0,282.6477280013932,2.0,1.0,phase_1,,,,,,,,,,,,,orange,diamond
0.0,3.0,0.0,0.0,2.0,2.0,414.7322069984511,2.0,1.0,phase_1,,,,,,,,,,,,,yellow,I
1309.0,8.0,4.0,1.0,3.0,3.0,366.8336629998521,2.0,1.0,phase_1,,,,,,,,,,,,,gray,triangle
339.0,2.0,1.0,0.0,1.0,1.0,348.503981000249,2.0,1.0,phase_1,,,,,,,,,,,,,green,circle
1288.0,8.0,4.0,1.0,3.0,3.0,283.6965869992127,2.0,1.0,phase_1,,,,,,,,,,,,,gray,triangle
347.0,6.0,1.0,1.0,1.0,1.0,348.903373000212,2.0,1.0,phase_1,,,,,,,,,,,,,magenta,flipped triangle
300.0,6.0,1.0,1.0,4.0,4.0,273.7739639997016,2.0,1.0,phase_1,,,,,,,,,,,,,magenta,flipped triangle
0.0,4.0,0.0,0.0,2.0,2.0,348.166226000103,2.0,1.0,phase_1,,,,,,,,,,,,,cyan,hexagon
0.0,5.0,0.0,1.0,4.0,4.0,319.8533939994377,2.0,1.0,phase_1,,,,,,,,,,,,,white,cross
631.0,3.0,2.0,0.0,2.0,2.0,376.5791050009284,2.0,1.0,phase_1,,,,,,,,,,,,,yellow,I
305.0,2.0,1.0,0.0,4.0,4.0,377.1126250012457,2.0,1.0,phase_1,,,,,,,,,,,,,green,circle
0.0,7.0,0.0,1.0,3.0,3.0,300.5853400009073,2.0,1.0,phase_1,,,,,,,,,,,,,blue,square
310.0,6.0,1.0,1.0,4.0,4.0,310.5645879986696,2.0,1.0,phase_1,,,,,,,,,,,,,magenta,flipped triangle
0.0,5.0,0.0,1.0,4.0,4.0,357.6847419990372,2.0,1.0,phase_1,,,,,,,,,,,,,white,cross
630.0,7.0,2.0,1.0,2.0,2.0,376.373858000079,2.0,1.0,phase_1,,,,,,,,,,,,,blue,square
183.0,1.0,0.5,0.0,2.0,2.0,328.8368909998098,2.0,1.0,phase_1,,,,,,,,,,,,,orange,diamond
175.0,5.0,0.5,1.0,2.0,2.0,507.4626569985412,2.0,1.0,phase_1,,,,,,,,,,,,,white,cross
0.0,4.0,0.0,0.0,2.0,2.0,320.0776039993798,2.0,1.0,phase_1,,,,,,,,,,,,,cyan,hexagon
309.0,6.0,1.0,1.0,1.0,1.0,319.2099389998475,2.0,1.0,phase_1,,,,,,,,,,,,,magenta,flipped triangle
0.0,1.0,0.0,0.0,4.0,4.0,309.8998050008958,2.0,1.0,phase_1,,,,,,,,,,,,,orange,diamond
325.0,2.0,1.0,0.0,2.0,2.0,309.7992109996994,2.0,1.0,phase_1,,,,,,,,,,,,,green,circle
0.0,3.0,0.0,0.0,2.0,2.0,338.2613949997903,2.0,1.0,phase_1,,,,,,,,,,,,,yellow,I
0.0,4.0,0.0,0.0,2.0,2.0,309.9582009999722,2.0,1.0,phase_1,,,,,,,,,,,,,cyan,hexagon
669.0,7.0,2.0,1.0,2.0,2.0,328.3186680000654,2.0,1.0,phase_1,,,,,,,,,,,,,blue,square
1325.0,8.0,4.0,1.0,4.0,4.0,319.9373850002303,2.0,1.0,phase_1,,,,,,,,,,,,,gray,triangle
181.0,1.0,0.5,0.0,1.0,1.0,385.9119530006865,2.0,1.0,phase_1,,,,,,,,,,,,,orange,diamond
1290.0,8.0,4.0,1.0,4.0,4.0,452.5925220004865,2.0,1.0,phase_1,,,,,,,,,,,,,gray,triangle
309.0,2.0,1.0,0.0,3.0,3.0,414.2732469990733,2.0,1.0,phase_1,,,,,,,,,,,,,green,circle
0.0,3.0,0.0,0.0,3.0,3.0,339.7860699988086,2.0,1.0,phase_1,,,,,,,,,,,,,yellow,I
340.0,6.0,1.0,1.0,2.0,2.0,349.1576480009826,2.0,1.0,phase_1,,,,,,,,,,,,,magenta,flipped triangle
0.0,2.0,0.0,0.0,1.0,1.0,387.0568279999133,2.0,1.0,phase_1,,,,,,,,,,,,,green,circle
154.0,1.0,0.5,0.0,2.0,2.0,358.9900159986428,2.0,1.0,phase_1,,,,,,,,,,,,,orange,diamond
0.0,4.0,0.0,0.0,4.0,4.0,339.8267829998076,2.0,1.0,phase_1,,,,,,,,,,,,,cyan,hexagon
324.0,6.0,1.0,1.0,1.0,1.0,329.009508001036,2.0,1.0,phase_1,,,,,,,,,,,,,magenta,flipped triangle
1315.0,4.0,4.0,0.0,1.0,1.0,309.9646680002479,2.0,1.0,phase_1,,,,,,,,,,,,,cyan,hexagon
674.0,3.0,2.0,0.0,2.0,2.0,302.7154900009918,2.0,1.0,phase_1,,,,,,,,,,,,,yellow,I
0.0,8.0,0.0,1.0,3.0,3.0,349.0718060002109,2.0,1.0,phase_1,,,,,,,,,,,,,gray,triangle
337.0,6.0,1.0,1.0,1.0,1.0,311.750827000651,2.0,1.0,phase_1,,,,,,,,,,,,,magenta,flipped triangle
157.0,5.0,0.5,1.0,4.0,4.0,320.6263860010949,2.0,1.0,phase_1,,,,,,,,,,,,,white,cross
1290.0,4.0,4.0,0.0,3.0,3.0,329.6085729998594,2.0,1.0,phase_1,,,,,,,,,,,,,cyan,hexagon
0.0,6.0,0.0,1.0,1.0,1.0,244.7421180004312,2.0,1.0,phase_1,,,,,,,,,,,,,magenta,flipped triangle
1281.0,4.0,4.0,0.0,3.0,3.0,312.3685939990537,2.0,1.0,phase_1,,,,,,,,,,,,,cyan,hexagon
631.0,7.0,2.0,1.0,1.0,1.0,263.8137520007149,2.0,1.0,phase_1,,,,,,,,,,,,,blue,square
302.0,6.0,1.0,1.0,3.0,3.0,310.4675009999482,2.0,1.0,phase_1,,,,,,,,,,,,,magenta,flipped triangle
671.0,3.0,2.0,0.0,4.0,4.0,366.9754749989806,2.0,1.0,phase_1,,,,,,,,,,,,,yellow,I
146.0,5.0,0.5,1.0,3.0,3.0,311.6118159996404,2.0,1.0,phase_1,,,,,,,,,,,,,white,cross
1295.0,8.0,4.0,1.0,2.0,2.0,376.6686839990143,2.0,2.0,phase_1,,,,,,,,,,,,,gray,triangle
0.0,4.0,0.0,0.0,3.0,3.0,330.2241389992559,2.0,1.0,phase_1,,,,,,,,,,,,,cyan,hexagon
326.0,2.0,1.0,0.0,4.0,4.0,330.0869529994088,2.0,1.0,phase_1,,,,,,,,,,,,,green,circle
674.0,7.0,2.0,1.0,3.0,3.0,338.9060680001421,2.0,1.0,phase_1,,,,,,,,,,,,,blue,square
1287.0,4.0,4.0,0.0,3.0,3.0,462.6017890004732,3.0,1.0,phase_1,,,,,,,,,,,,,cyan,hexagon
152.0,5.0,0.5,1.0,3.0,3.0,293.2487830003083,3.0,1.0,phase_1,,,,,,,,,,,,,white,cross
177.0,1.0,0.5,0.0,2.0,2.0,329.1080189992499,3.0,1.0,phase_1,,,,,,,,,,,,,orange,diamond
183.0,1.0,0.5,0.0,3.0,3.0,310.0982240011944,3.0,1.0,phase_1,,,,,,,,,,,,,orange,diamond
1300.0,8.0,4.0,1.0,1.0,1.0,292.4369299998943,3.0,1.0,phase_1,,,,,,,,,,,,,gray,triangle
1323.0,8.0,4.0,1.0,2.0,2.0,340.7208629996603,3.0,1.0,phase_1,,,,,,,,,,,,,gray,triangle
165.0,1.0,0.5,0.0,2.0,2.0,367.4166389992024,3.0,1.0,phase_1,,,,,,,,,,,,,orange,diamond
311.0,6.0,1.0,1.0,3.0,3.0,320.5585410014464,3.0,1.0,phase_1,,,,,,,,,,,,,magenta,flipped triangle
175.0,5.0,0.5,1.0,1.0,1.0,292.5347549989965,3.0,1.0,phase_1,,,,,,,,,,,,,white,cross
0.0,6.0,0.0,1.0,2.0,2.0,274.5049170007405,3.0,1.0,phase_1,,,,,,,,,,,,,magenta,flipped triangle
176.0,1.0,0.5,0.0,1.0,1.0,377.1527949993469,3.0,1.0,phase_1,,,,,,,,,,,,,orange,diamond
1283.0,4.0,4.0,0.0,1.0,1.0,321.5785450011026,3.0,1.0,phase_1,,,,,,,,,,,,,cyan,hexagon
652.0,3.0,2.0,0.0,4.0,4.0,367.8950339999574,3.0,1.0,phase_1,,,,,,,,,,,,,yellow,I
0.0,2.0,0.0,0.0,2.0,2.0,376.4995129986346,3.0,1.0,phase_1,,,,,,,,,,,,,green,circle
137.0,1.0,0.5,0.0,3.0,3.0,317.9358939996746,3.0,1.0,phase_1,,,,,,,,,,,,,orange,diamond
1325.0,4.0,4.0,0.0,2.0,2.0,348.0525760005548,3.0,1.0,phase_1,,,,,,,,,,,,,cyan,hexagon
160.0,5.0,0.5,1.0,1.0,1.0,310.3686989998095,3.0,1.0,phase_1,,,,,,,,,,,,,white,cross
157.0,1.0,0.5,0.0,4.0,4.0,348.5338330010563,3.0,2.0,phase_1,,,,,,,,,,,,,orange,diamond
1290.0,8.0,4.0,1.0,4.0,4.0,327.7908220006793,3.0,1.0,phase_1,,,,,,,,,,,,,gray,triangle
160.0,1.0,0.5,0.0,3.0,3.0,328.4973519985215,3.0,1.0,phase_1,,,,,,,,,,,,,orange,diamond
0.0,8.0,0.0,1.0,1.0,1.0,337.1618170003785,3.0,1.0,phase_1,,,,,,,,,,,,,gray,triangle
347.0,2.0,1.0,0.0,1.0,1.0,329.1359529994224,3.0,1.0,phase_1,,,,,,,,,,,,,green,circle
315.0,2.0,1.0,0.0,2.0,2.0,339.1644719995383,3.0,1.0,phase_1,,,,,,,,,,,,,green,circle
152.0,1.0,0.5,0.0,3.0,3.0,299.7487819993694,3.0,1.0,phase_1,,,,,,,,,,,,,orange,diamond
651.0,7.0,2.0,1.0,1.0,1.0,330.60561000092997,3.0,1.0,phase_1,,,,,,,,,,,,,blue,square
340.0,6.0,1.0,1.0,3.0,3.0,301.4530780001223,3.0,1.0,phase_1,,,,,,,,,,,,,magenta,flipped triangle
1306.0,8.0,4.0,1.0,1.0,1.0,329.1454579994024,3.0,1.0,phase_1,,,,,,,,,,,,,gray,triangle
168.0,1.0,0.5,0.0,2.0,2.0,292.8517189993727,3.0,2.0,phase_1,,,,,,,,,,,,,orange,diamond
325.0,6.0,1.0,1.0,1.0,1.0,403.4590760002174,3.0,1.0,phase_1,,,,,,,,,,,,,magenta,flipped triangle
0.0,7.0,0.0,1.0,3.0,3.0,330.1369439996051,3.0,1.0,phase_1,,,,,,,,,,,,,blue,square
1323.0,4.0,4.0,0.0,4.0,4.0,348.5251449983479,3.0,1.0,phase_1,,,,,,,,,,,,,cyan,hexagon
0.0,4.0,0.0,0.0,1.0,1.0,339.0542729994195,3.0,1.0,phase_1,,,,,,,,,,,,,cyan,hexagon
0.0,6.0,0.0,1.0,3.0,3.0,310.7471160001296,3.0,1.0,phase_1,,,,,,,,,,,,,magenta,flipped triangle
1315.0,8.0,4.0,1.0,4.0,4.0,311.8825029996515,3.0,1.0,phase_1,,,,,,,,,,,,,gray,triangle
308.0,2.0,1.0,0.0,1.0,1.0,321.4308410006197,3.0,1.0,phase_1,,,,,,,,,,,,,green,circle
652.0,7.0,2.0,1.0,2.0,2.0,320.4458820000582,3.0,1.0,phase_1,,,,,,,,,,,,,blue,square
1307.0,8.0,4.0,1.0,2.0,2.0,310.6238109994592,3.0,1.0,phase_1,,,,,,,,,,,,,gray,triangle
669.0,3.0,2.0,0.0,4.0,4.0,282.3607430000265,3.0,1.0,phase_1,,,,,,,,,,,,,yellow,I
673.0,3.0,2.0,0.0,3.0,3.0,273.4225940002943,3.0,1.0,phase_1,,,,,,,,,,,,,yellow,I
671.0,7.0,2.0,1.0,1.0,1.0,292.8516820011282,3.0,2.0,phase_1,,,,,,,,,,,,,blue,square
323.0,6.0,1.0,1.0,3.0,3.0,310.9673700000712,3.0,1.0,phase_1,,,,,,,,,,,,,magenta,flipped triangle
1287.0,8.0,4.0,1.0,2.0,2.0,318.5740830012946,3.0,1.0,phase_1,,,,,,,,,,,,,gray,triangle
671.0,7.0,2.0,1.0,1.0,1.0,320.7574299995031,3.0,1.0,phase_1,,,,,,,,,,,,,blue,square
336.0,6.0,1.0,1.0,4.0,4.0,339.0981860011379,3.0,2.0,phase_1,,,,,,,,,,,,,magenta,flipped triangle
168.0,5.0,0.5,1.0,3.0,3.0,329.5309149998502,3.0,1.0,phase_1,,,,,,,,,,,,,white,cross
167.0,1.0,0.5,0.0,2.0,2.0,368.0330690003757,3.0,1.0,phase_1,,,,,,,,,,,,,orange,diamond
1303.0,4.0,4.0,0.0,2.0,2.0,319.5095740011311,3.0,1.0,phase_1,,,,,,,,,,,,,cyan,hexagon
625.0,7.0,2.0,1.0,4.0,4.0,329.7589889989467,3.0,1.0,phase_1,,,,,,,,,,,,,blue,square
1316.0,4.0,4.0,0.0,4.0,4.0,338.588698001331,3.0,1.0,phase_1,,,,,,,,,,,,,cyan,hexagon
167.0,1.0,0.5,0.0,1.0,1.0,375.6647949994658,3.0,1.0,phase_1,,,,,,,,,,,,,orange,diamond
1313.0,4.0,4.0,0.0,4.0,4.0,282.0498830005817,3.0,1.0,phase_1,,,,,,,,,,,,,cyan,hexagon
0.0,3.0,0.0,0.0,3.0,3.0,330.8561400008329,3.0,1.0,phase_1,,,,,,,,,,,,,yellow,I
669.0,3.0,2.0,0.0,1.0,1.0,469.7176000008767,3.0,1.0,phase_1,,,,,,,,,,,,,yellow,I
0.0,7.0,0.0,1.0,1.0,1.0,283.8646930013055,3.0,2.0,phase_1,,,,,,,,,,,,,blue,square
319.0,6.0,1.0,1.0,3.0,3.0,347.7923909995297,3.0,1.0,phase_1,,,,,,,,,,,,,magenta,flipped triangle
1279.0,8.0,4.0,1.0,4.0,4.0,283.3051240013446,3.0,1.0,phase_1,,,,,,,,,,,,,gray,triangle
177.0,5.0,0.5,1.0,2.0,2.0,339.9161809993529,3.0,1.0,phase_1,,,,,,,,,,,,,white,cross
335.0,2.0,1.0,0.0,2.0,2.0,527.1500510007172,3.0,1.0,phase_1,,,,,,,,,,,,,green,circle
629.0,3.0,2.0,0.0,2.0,2.0,424.2344529993715,3.0,1.0,phase_1,,,,,,,,,,,,,yellow,I
187.0,5.0,0.5,1.0,1.0,1.0,312.141808000888,3.0,1.0,phase_1,,,,,,,,,,,,,white,cross
175.0,1.0,0.5,0.0,2.0,2.0,386.4209319999645,3.0,1.0,phase_1,,,,,,,,,,,,,orange,diamond
311.0,2.0,1.0,0.0,1.0,1.0,413.9204949988198,3.0,1.0,phase_1,,,,,,,,,,,,,green,circle
308.0,6.0,1.0,1.0,1.0,1.0,385.6722109994734,3.0,1.0,phase_1,,,,,,,,,,,,,magenta,flipped triangle
336.0,2.0,1.0,0.0,4.0,4.0,348.8553330007562,3.0,1.0,phase_1,,,,,,,,,,,,,green,circle
0.0,4.0,0.0,0.0,4.0,4.0,329.2947629997798,3.0,1.0,phase_1,,,,,,,,,,,,,cyan,hexagon
335.0,2.0,1.0,0.0,4.0,4.0,263.8153299994883,3.0,1.0,phase_1,,,,,,,,,,,,,green,circle
350.0,6.0,1.0,1.0,1.0,1.0,338.7451119997422,3.0,1.0,phase_1,,,,,,,,,,,,,magenta,flipped triangle
340.0,2.0,1.0,0.0,2.0,2.0,328.9247180000529,3.0,1.0,phase_1,,,,,,,,,,,,,green,circle
673.0,7.0,2.0,1.0,2.0,2.0,330.1414310008113,3.0,1.0,phase_1,,,,,,,,,,,,,blue,square
148.0,5.0,0.5,1.0,4.0,4.0,319.1151399987575,3.0,2.0,phase_1,,,,,,,,,,,,,white,cross
629.0,3.0,2.0,0.0,1.0,1.0,403.9198829996167,3.0,1.0,phase_1,,,,,,,,,,,,,yellow,I
339.0,6.0,1.0,1.0,4.0,4.0,329.0646149998792,3.0,1.0,phase_1,,,,,,,,,,,,,magenta,flipped triangle
0.0,6.0,0.0,1.0,4.0,4.0,301.3485960000253,3.0,1.0,phase_1,,,,,,,,,,,,,magenta,flipped triangle
147.0,5.0,0.5,1.0,2.0,2.0,365.5112300002656,3.0,1.0,phase_1,,,,,,,,,,,,,white,cross
0.0,6.0,0.0,1.0,3.0,3.0,395.6495880011061,3.0,1.0,phase_1,,,,,,,,,,,,,magenta,flipped triangle
1323.0,8.0,4.0,1.0,3.0,3.0,327.2923010008526,3.0,1.0,phase_1,,,,,,,,,,,,,gray,triangle
673.0,3.0,2.0,0.0,3.0,3.0,308.8220680001541,3.0,1.0,phase_1,,,,,,,,,,,,,yellow,I
328.0,2.0,1.0,0.0,3.0,3.0,346.6655430001992,3.0,1.0,phase_1,,,,,,,,,,,,,green,circle
1303.0,8.0,4.0,1.0,4.0,4.0,592.8254009995726,3.0,1.0,phase_1,,,,,,,,,,,,,gray,triangle
665.0,7.0,2.0,1.0,3.0,3.0,318.9040490015031,3.0,1.0,phase_1,,,,,,,,,,,,,blue,square
0.0,8.0,0.0,1.0,3.0,3.0,309.7977959987474,3.0,1.0,phase_1,,,,,,,,,,,,,gray,triangle
662.0,3.0,2.0,0.0,4.0,4.0,290.8477660002972,3.0,1.0,phase_1,,,,,,,,,,,,,yellow,I
0.0,2.0,0.0,0.0,2.0,2.0,364.2769510006474,3.0,1.0,phase_1,,,,,,,,,,,,,green,circle
0.0,2.0,0.0,0.0,4.0,4.0,337.7280479999172,3.0,1.0,phase_1,,,,,,,,,,,,,green,circle
1282.0,8.0,4.0,1.0,2.0,2.0,367.1184110007743,3.0,1.0,phase_1,,,,,,,,,,,,,gray,triangle
0.0,5.0,0.0,1.0,1.0,1.0,348.1093449991022,3.0,1.0,phase_1,,,,,,,,,,,,,white,cross
153.0,5.0,0.5,1.0,2.0,2.0,329.9021559996618,3.0,1.0,phase_1,,,,,,,,,,,,,white,cross
0.0,5.0,0.0,1.0,3.0,3.0,366.2933850009722,3.0,1.0,phase_1,,,,,,,,,,,,,white,cross
0.0,2.0,0.0,0.0,2.0,2.0,319.1875529992103,3.0,1.0,phase_1,,,,,,,,,,,,,green,circle
631.0,3.0,2.0,0.0,2.0,2.0,319.3113239995,3.0,1.0,phase_1,,,,,,,,,,,,,yellow,I
1299.0,4.0,4.0,0.0,4.0,4.0,356.6604629995709,3.0,1.0,phase_1,,,,,,,,,,,,,cyan,hexagon
0.0,1.0,0.0,0.0,1.0,1.0,393.3656070003053,3.0,1.0,phase_1,,,,,,,,,,,,,orange,diamond
176.0,5.0,0.5,1.0,4.0,4.0,308.6382300007244,3.0,1.0,phase_1,,,,,,,,,,,,,white,cross
151.0,1.0,0.5,0.0,3.0,3.0,347.2326200007956,3.0,1.0,phase_1,,,,,,,,,,,,,orange,diamond
0.0,3.0,0.0,0.0,2.0,2.0,336.7449519992078,3.0,1.0,phase_1,,,,,,,,,,,,,yellow,I
333.0,6.0,1.0,1.0,2.0,2.0,318.5165759987285,3.0,1.0,phase_1,,,,,,,,,,,,,magenta,flipped triangle
1282.0,4.0,4.0,0.0,1.0,1.0,346.9941429993923,3.0,1.0,phase_1,,,,,,,,,,,,,cyan,hexagon
646.0,3.0,2.0,0.0,2.0,2.0,340.4735700005403,3.0,1.0,phase_1,,,,,,,,,,,,,yellow,I
315.0,6.0,1.0,1.0,2.0,2.0,339.8182180008007,3.0,1.0,phase_1,,,,,,,,,,,,,magenta,flipped triangle
0.0,8.0,0.0,1.0,2.0,2.0,320.1951120008743,3.0,1.0,phase_1,,,,,,,,,,,,,gray,triangle
1279.0,4.0,4.0,0.0,4.0,4.0,386.0649710004509,4.0,1.0,phase_1,,,,,,,,,,,,,cyan,hexagon
1297.0,8.0,4.0,1.0,2.0,2.0,301.8313290012884,4.0,1.0,phase_1,,,,,,,,,,,,,gray,triangle
138.0,1.0,0.5,0.0,1.0,1.0,321.0874029991828,4.0,1.0,phase_1,,,,,,,,,,,,,orange,diamond
1295.0,8.0,4.0,1.0,1.0,1.0,349.7428240007139,4.0,1.0,phase_1,,,,,,,,,,,,,gray,triangle
1300.0,8.0,4.0,1.0,3.0,3.0,347.7348830001574,4.0,1.0,phase_1,,,,,,,,,,,,,gray,triangle
0.0,3.0,0.0,0.0,2.0,2.0,340.301404999991,4.0,1.0,phase_1,,,,,,,,,,,,,yellow,I
0.0,2.0,0.0,0.0,1.0,1.0,378.5189789996366,4.0,1.0,phase_1,,,,,,,,,,,,,green,circle
1278.0,8.0,4.0,1.0,2.0,2.0,348.5413010002958,4.0,1.0,phase_1,,,,,,,,,,,,,gray,triangle
0.0,6.0,0.0,1.0,2.0,2.0,339.8127870004828,4.0,1.0,phase_1,,,,,,,,,,,,,magenta,flipped triangle
0.0,6.0,0.0,1.0,4.0,4.0,349.6943330010253,4.0,1.0,phase_1,,,,,,,,,,,,,magenta,flipped triangle
140.0,1.0,0.5,0.0,4.0,4.0,331.4833659987926,4.0,1.0,phase_1,,,,,,,,,,,,,orange,diamond
639.0,3.0,2.0,0.0,1.0,1.0,349.1989520007337,4.0,1.0,phase_1,,,,,,,,,,,,,yellow,I
154.0,5.0,0.5,1.0,1.0,1.0,339.6961690013995,4.0,1.0,phase_1,,,,,,,,,,,,,white,cross
659.0,3.0,2.0,0.0,2.0,2.0,340.6658280000556,4.0,1.0,phase_1,,,,,,,,,,,,,yellow,I
0.0,1.0,0.0,0.0,3.0,3.0,331.1361409996607,4.0,1.0,phase_1,,,,,,,,,,,,,orange,diamond
633.0,3.0,2.0,0.0,2.0,2.0,340.86936800122197,4.0,1.0,phase_1,,,,,,,,,,,,,yellow,I
659.0,7.0,2.0,1.0,1.0,1.0,350.3797330013185,4.0,1.0,phase_1,,,,,,,,,,,,,blue,square
651.0,7.0,2.0,1.0,1.0,1.0,350.2786889985145,4.0,1.0,phase_1,,,,,,,,,,,,,blue,square
161.0,5.0,0.5,1.0,4.0,4.0,330.7332839995069,4.0,1.0,phase_1,,,,,,,,,,,,,white,cross
164.0,5.0,0.5,1.0,4.0,4.0,320.4920180014596,4.0,1.0,phase_1,,,,,,,,,,,,,white,cross
669.0,7.0,2.0,1.0,1.0,1.0,321.7923819993302,4.0,1.0,phase_1,,,,,,,,,,,,,blue,square
666.0,7.0,2.0,1.0,2.0,2.0,358.8550019994727,4.0,1.0,phase_1,,,,,,,,,,,,,blue,square
1283.0,8.0,4.0,1.0,4.0,4.0,321.4770269987639,4.0,1.0,phase_1,,,,,,,,,,,,,gray,triangle
0.0,6.0,0.0,1.0,2.0,2.0,311.5044129990565,4.0,1.0,phase_1,,,,,,,,,,,,,magenta,flipped triangle
637.0,3.0,2.0,0.0,1.0,1.0,331.3773379995837,4.0,1.0,phase_1,,,,,,,,,,,,,yellow,I
147.0,5.0,0.5,1.0,2.0,2.0,368.1310409992875,4.0,1.0,phase_1,,,,,,,,,,,,,white,cross
1281.0,8.0,4.0,1.0,3.0,3.0,300.9393140000611,4.0,1.0,phase_1,,,,,,,,,,,,,gray,triangle
0.0,8.0,0.0,1.0,3.0,3.0,321.1891489991103,4.0,1.0,phase_1,,,,,,,,,,,,,gray,triangle
187.0,1.0,0.5,0.0,3.0,3.0,300.2462490003381,4.0,1.0,phase_1,,,,,,,,,,,,,orange,diamond
651.0,3.0,2.0,0.0,1.0,1.0,311.03345199881,4.0,1.0,phase_1,,,,,,,,,,,,,yellow,I
664.0,3.0,2.0,0.0,2.0,2.0,320.2406769996742,4.0,1.0,phase_1,,,,,,,,,,,,,yellow,I
149.0,1.0,0.5,0.0,4.0,4.0,328.7857770010305,4.0,1.0,phase_1,,,,,,,,,,,,,orange,diamond
657.0,3.0,2.0,0.0,1.0,1.0,329.0159590014809,4.0,1.0,phase_1,,,,,,,,,,,,,yellow,I
646.0,7.0,2.0,1.0,2.0,2.0,318.7324429982254,4.0,1.0,phase_1,,,,,,,,,,,,,blue,square
305.0,2.0,1.0,0.0,1.0,1.0,293.0309079983999,4.0,2.0,phase_1,,,,,,,,,,,,,green,circle
164.0,1.0,0.5,0.0,4.0,4.0,349.1610700002638,4.0,1.0,phase_1,,,,,,,,,,,,,orange,diamond
315.0,6.0,1.0,1.0,2.0,2.0,348.8153630005399,4.0,2.0,phase_1,,,,,,,,,,,,,magenta,flipped triangle
311.0,2.0,1.0,0.0,3.0,3.0,338.2656600006157,4.0,1.0,phase_1,,,,,,,,,,,,,green,circle
633.0,3.0,2.0,0.0,3.0,3.0,292.7552860001015,4.0,1.0,phase_1,,,,,,,,,,,,,yellow,I
1320.0,4.0,4.0,0.0,2.0,2.0,340.0284740000643,4.0,1.0,phase_1,,,,,,,,,,,,,cyan,hexagon
0.0,3.0,0.0,0.0,1.0,1.0,348.6659719983436,4.0,1.0,phase_1,,,,,,,,,,,,,yellow,I
1299.0,8.0,4.0,1.0,3.0,3.0,329.3773229997896,4.0,1.0,phase_1,,,,,,,,,,,,,gray,triangle
166.0,1.0,0.5,0.0,3.0,3.0,312.1707440004684,4.0,1.0,phase_1,,,,,,,,,,,,,orange,diamond
182.0,1.0,0.5,0.0,4.0,4.0,330.1004629993258,4.0,1.0,phase_1,,,,,,,,,,,,,orange,diamond
0.0,6.0,0.0,1.0,1.0,1.0,417.1611429992481,4.0,1.0,phase_1,,,,,,,,,,,,,magenta,flipped triangle
0.0,3.0,0.0,0.0,3.0,3.0,310.6183069994586,4.0,1.0,phase_1,,,,,,,,,,,,,yellow,I
646.0,3.0,2.0,0.0,1.0,1.0,367.8195100001176,4.0,1.0,phase_1,,,,,,,,,,,,,yellow,I
1296.0,4.0,4.0,0.0,3.0,3.0,327.5952839994716,4.0,1.0,phase_1,,,,,,,,,,,,,cyan,hexagon
1302.0,4.0,4.0,0.0,1.0,1.0,349.113219001083,4.0,1.0,phase_1,,,,,,,,,,,,,cyan,hexagon
165.0,5.0,0.5,1.0,3.0,3.0,292.915351999909,4.0,1.0,phase_1,,,,,,,,,,,,,white,cross
0.0,3.0,0.0,0.0,2.0,2.0,311.5878510016046,4.0,1.0,phase_1,,,,,,,,,,,,,yellow,I
166.0,1.0,0.5,0.0,2.0,2.0,311.381577001157,4.0,1.0,phase_1,,,,,,,,,,,,,orange,diamond
347.0,6.0,1.0,1.0,2.0,2.0,339.5673380000517,4.0,1.0,phase_1,,,,,,,,,,,,,magenta,flipped triangle
148.0,1.0,0.5,0.0,3.0,3.0,340.6005220003862,4.0,1.0,phase_1,,,,,,,,,,,,,orange,diamond
350.0,6.0,1.0,1.0,3.0,3.0,321.1719049995736,4.0,1.0,phase_1,,,,,,,,,,,,,magenta,flipped triangle
633.0,7.0,2.0,1.0,2.0,2.0,328.5081509984593,4.0,1.0,phase_1,,,,,,,,,,,,,blue,square
325.0,2.0,1.0,0.0,3.0,3.0,312.2179059992049,4.0,1.0,phase_1,,,,,,,,,,,,,green,circle
630.0,3.0,2.0,0.0,3.0,3.0,304.3037899988121,4.0,1.0,phase_1,,,,,,,,,,,,,yellow,I
1320.0,8.0,4.0,1.0,2.0,2.0,340.4195130005973,4.0,1.0,phase_1,,,,,,,,,,,,,gray,triangle
646.0,3.0,2.0,0.0,3.0,3.0,311.6241299994726,4.0,1.0,phase_1,,,,,,,,,,,,,yellow,I
143.0,5.0,0.5,1.0,2.0,2.0,310.7796880012756,4.0,1.0,phase_1,,,,,,,,,,,,,white,cross
0.0,1.0,0.0,0.0,3.0,3.0,311.9448999987071,4.0,1.0,phase_1,,,,,,,,,,,,,orange,diamond
0.0,8.0,0.0,1.0,2.0,2.0,310.8044110012997,4.0,1.0,phase_1,,,,,,,,,,,,,gray,triangle
0.0,1.0,0.0,0.0,1.0,1.0,327.2567460007849,4.0,1.0,phase_1,,,,,,,,,,,,,orange,diamond
140.0,5.0,0.5,1.0,3.0,3.0,340.3161400001409,4.0,1.0,phase_1,,,,,,,,,,,,,white,cross
0.0,2.0,0.0,0.0,1.0,1.0,312.5812149992271,4.0,1.0,phase_1,,,,,,,,,,,,,green,circle
1307.0,4.0,4.0,0.0,2.0,2.0,322.0963799994933,4.0,1.0,phase_1,,,,,,,,,,,,,cyan,hexagon
641.0,7.0,2.0,1.0,3.0,3.0,311.6967189998831,4.0,1.0,phase_1,,,,,,,,,,,,,blue,square
629.0,7.0,2.0,1.0,1.0,1.0,301.9429830001172,4.0,1.0,phase_1,,,,,,,,,,,,,blue,square
662.0,3.0,2.0,0.0,4.0,4.0,329.6004640014871,4.0,1.0,phase_1,,,,,,,,,,,,,yellow,I
1289.0,4.0,4.0,0.0,2.0,2.0,311.3401120008348,4.0,1.0,phase_1,,,,,,,,,,,,,cyan,hexagon
0.0,5.0,0.0,1.0,2.0,2.0,338.4742799989908,4.0,1.0,phase_1,,,,,,,,,,,,,white,cross
641.0,3.0,2.0,0.0,3.0,3.0,292.8545809991192,4.0,1.0,phase_1,,,,,,,,,,,,,yellow,I
161.0,1.0,0.5,0.0,4.0,4.0,301.5620049991412,4.0,2.0,phase_1,,,,,,,,,,,,,orange,diamond
315.0,2.0,1.0,0.0,1.0,1.0,356.8663840014778,4.0,1.0,phase_1,,,,,,,,,,,,,green,circle
0.0,8.0,0.0,1.0,1.0,1.0,347.2579139997833,4.0,1.0,phase_1,,,,,,,,,,,,,gray,triangle
0.0,1.0,0.0,0.0,2.0,2.0,309.4415310006297,4.0,1.0,phase_1,,,,,,,,,,,,,orange,diamond
629.0,3.0,2.0,0.0,2.0,2.0,329.5346539998718,4.0,1.0,phase_1,,,,,,,,,,,,,yellow,I
350.0,2.0,1.0,0.0,4.0,4.0,310.6345610012795,4.0,1.0,phase_1,,,,,,,,,,,,,green,circle
635.0,7.0,2.0,1.0,4.0,4.0,309.1739689989481,4.0,1.0,phase_1,,,,,,,,,,,,,blue,square
349.0,2.0,1.0,0.0,3.0,3.0,272.8037130000302,4.0,1.0,phase_1,,,,,,,,,,,,,green,circle
304.0,6.0,1.0,1.0,4.0,4.0,283.2170229994517,4.0,1.0,phase_1,,,,,,,,,,,,,magenta,flipped triangle
138.0,5.0,0.5,1.0,3.0,3.0,234.4944619999296,4.0,1.0,phase_1,,,,,,,,,,,,,white,cross
149.0,5.0,0.5,1.0,2.0,2.0,293.0396550000296,4.0,1.0,phase_1,,,,,,,,,,,,,white,cross
0.0,7.0,0.0,1.0,1.0,1.0,272.5473410009726,4.0,1.0,phase_1,,,,,,,,,,,,,blue,square
666.0,3.0,2.0,0.0,3.0,3.0,291.1590349995094,4.0,1.0,phase_1,,,,,,,,,,,,,yellow,I
305.0,6.0,1.0,1.0,4.0,4.0,338.1071909989259,4.0,1.0,phase_1,,,,,,,,,,,,,magenta,flipped triangle
183.0,5.0,0.5,1.0,1.0,1.0,300.5874940008652,4.0,1.0,phase_1,,,,,,,,,,,,,white,cross
632.0,7.0,2.0,1.0,3.0,3.0,291.397043998586,4.0,1.0,phase_1,,,,,,,,,,,,,blue,square
658.0,7.0,2.0,1.0,4.0,4.0,299.956568998823,4.0,1.0,phase_1,,,,,,,,,,,,,blue,square
1323.0,8.0,4.0,1.0,3.0,3.0,281.7484959996363,4.0,1.0,phase_1,,,,,,,,,,,,,gray,triangle
0.0,8.0,0.0,1.0,3.0,3.0,283.3038720000331,4.0,1.0,phase_1,,,,,,,,,,,,,gray,triangle
1300.0,4.0,4.0,0.0,3.0,3.0,308.9396369996393,4.0,1.0,phase_1,,,,,,,,,,,,,cyan,hexagon
0.0,5.0,0.0,1.0,4.0,4.0,318.3393349991092,4.0,1.0,phase_1,,,,,,,,,,,,,white,cross
629.0,7.0,2.0,1.0,3.0,3.0,300.5703830003767,4.0,1.0,phase_1,,,,,,,,,,,,,blue,square
347.0,2.0,1.0,0.0,2.0,2.0,374.9801769990881,4.0,1.0,phase_1,,,,,,,,,,,,,green,circle
629.0,7.0,2.0,1.0,4.0,4.0,318.9315690015064,4.0,1.0,phase_1,,,,,,,,,,,,,blue,square
0.0,5.0,0.0,1.0,4.0,4.0,309.4666659999348,4.0,1.0,phase_1,,,,,,,,,,,,,white,cross
665.0,3.0,2.0,0.0,3.0,3.0,281.7306150009244,4.0,1.0,phase_1,,,,,,,,,,,,,yellow,I
300.0,2.0,1.0,0.0,3.0,3.0,272.9885019998619,4.0,1.0,phase_1,,,,,,,,,,,,,green,circle
0.0,1.0,0.5,0.0,5.0,5.0,368.8161789996229,1.0,1.0,phase_2,go,250.0,250.0,1.0,,,,,,,,,orange,diamond
0.0,7.0,2.0,1.0,5.0,5.0,510.54756099983933,1.0,1.0,phase_2,go,250.0,250.0,1.0,,,,,,,,,blue,square
0.0,5.0,0.5,1.0,6.0,0.0,0.0,1.0,1.0,phase_2,stop,250.0,250.0,4.0,,,,,,,,,white,cross
0.0,2.0,1.0,0.0,6.0,6.0,532.2782670009474,1.0,1.0,phase_2,go,250.0,300.0,1.0,,,,,,,,,green,circle
0.0,7.0,2.0,1.0,5.0,5.0,511.638726999081,1.0,1.0,phase_2,go,250.0,300.0,1.0,,,,,,,,,blue,square
0.0,4.0,4.0,0.0,5.0,5.0,493.7286599997605,1.0,1.0,phase_2,go,250.0,300.0,1.0,,,,,,,,,cyan,hexagon
0.0,4.0,4.0,0.0,5.0,5.0,529.32309300013,1.0,1.0,phase_2,go,250.0,300.0,1.0,,,,,,,,,cyan,hexagon
0.0,8.0,4.0,1.0,5.0,5.0,379.439499,1.0,1.0,phase_2,stop,250.0,300.0,3.0,,,,,,,,,gray,triangle
0.0,7.0,2.0,1.0,5.0,5.0,357.7138379987445,1.0,1.0,phase_2,stop,200.0,300.0,3.0,,,,,,,,,blue,square
0.0,2.0,1.0,0.0,5.0,5.0,596.3901120012451,1.0,1.0,phase_2,go,150.0,300.0,1.0,,,,,,,,,green,circle
0.0,4.0,4.0,0.0,6.0,6.0,540.7635920018947,1.0,1.0,phase_2,go,150.0,300.0,1.0,,,,,,,,,cyan,hexagon
0.0,3.0,2.0,0.0,5.0,5.0,570.3025840011833,1.0,1.0,phase_2,go,150.0,300.0,1.0,,,,,,,,,yellow,I
0.0,7.0,2.0,1.0,6.0,0.0,0.0,1.0,1.0,phase_2,stop,150.0,300.0,4.0,,,,,,,,,blue,square
0.0,6.0,1.0,1.0,5.0,0.0,0.0,1.0,1.0,phase_2,stop,150.0,350.0,4.0,,,,,,,,,magenta,flipped triangle
0.0,3.0,2.0,0.0,6.0,6.0,607.6116940021166,1.0,1.0,phase_2,go,200.0,350.0,1.0,,,,,,,,,yellow,I
0.0,2.0,1.0,0.0,6.0,6.0,532.5250690002576,1.0,1.0,phase_2,go,200.0,350.0,1.0,,,,,,,,,green,circle
0.0,1.0,0.5,0.0,6.0,6.0,588.7532079977973,1.0,1.0,phase_2,go,200.0,350.0,1.0,,,,,,,,,orange,diamond
0.0,6.0,1.0,1.0,6.0,6.0,385.3190849986276,1.0,1.0,phase_2,stop,200.0,350.0,3.0,,,,,,,,,magenta,flipped triangle
0.0,2.0,1.0,0.0,5.0,5.0,626.2558669986902,1.0,1.0,phase_2,go,200.0,300.0,1.0,,,,,,,,,green,circle
0.0,7.0,2.0,1.0,5.0,0.0,0.0,1.0,1.0,phase_2,stop,200.0,300.0,4.0,,,,,,,,,blue,square
0.0,1.0,0.5,0.0,5.0,5.0,627.2690529985994,1.0,1.0,phase_2,go,250.0,300.0,1.0,,,,,,,,,orange,diamond
0.0,3.0,2.0,0.0,6.0,6.0,647.1405920019606,1.0,1.0,phase_2,go,250.0,300.0,1.0,,,,,,,,,yellow,I
0.0,6.0,1.0,1.0,6.0,0.0,0.0,1.0,1.0,phase_2,stop,250.0,300.0,4.0,,,,,,,,,magenta,flipped triangle
0.0,2.0,1.0,0.0,6.0,6.0,683.2875440013595,1.0,1.0,phase_2,go,250.0,350.0,1.0,,,,,,,,,green,circle
0.0,6.0,1.0,1.0,5.0,5.0,817.1524129975296,1.0,1.0,phase_2,go,250.0,350.0,1.0,,,,,,,,,magenta,flipped triangle
0.0,4.0,4.0,0.0,5.0,5.0,788.7061969995557,1.0,1.0,phase_2,go,250.0,350.0,1.0,,,,,,,,,cyan,hexagon
0.0,3.0,2.0,0.0,6.0,6.0,652.1328990020265,1.0,1.0,phase_2,go,250.0,350.0,1.0,,,,,,,,,yellow,I
0.0,5.0,0.5,1.0,6.0,6.0,447.2225530007563,1.0,1.0,phase_2,stop,250.0,350.0,3.0,,,,,,,,,white,cross
0.0,5.0,0.5,1.0,5.0,0.0,0.0,1.0,1.0,phase_2,stop,250.0,300.0,4.0,,,,,,,,,white,cross
0.0,1.0,0.5,0.0,6.0,6.0,617.5217170020915,1.0,1.0,phase_2,go,300.0,300.0,1.0,,,,,,,,,orange,diamond
0.0,2.0,1.0,0.0,6.0,6.0,663.0109290017572,1.0,1.0,phase_2,go,300.0,300.0,1.0,,,,,,,,,green,circle
0.0,5.0,0.5,1.0,6.0,0.0,0.0,1.0,1.0,phase_2,stop,300.0,300.0,4.0,,,,,,,,,white,cross
0.0,7.0,2.0,1.0,6.0,0.0,0.0,1.0,1.0,phase_2,stop,300.0,350.0,4.0,,,,,,,,,blue,square
0.0,5.0,0.5,1.0,5.0,5.0,532.150572998944,1.0,1.0,phase_2,go,300.0,400.0,1.0,,,,,,,,,white,cross
0.0,8.0,4.0,1.0,5.0,0.0,0.0,1.0,1.0,phase_2,stop,300.0,400.0,4.0,,,,,,,,,gray,triangle
0.0,4.0,4.0,0.0,5.0,5.0,694.9870200005535,1.0,1.0,phase_2,go,350.0,400.0,1.0,,,,,,,,,cyan,hexagon
0.0,6.0,1.0,1.0,5.0,5.0,401.7993880006543,2.0,1.0,phase_2,stop,350.0,400.0,3.0,,,,,,,,,magenta,flipped triangle
0.0,3.0,2.0,0.0,6.0,6.0,543.7915299989982,2.0,1.0,phase_2,go,300.0,400.0,1.0,,,,,,,,,yellow,I
0.0,7.0,2.0,1.0,5.0,5.0,607.4303549976321,2.0,1.0,phase_2,go,300.0,400.0,1.0,,,,,,,,,blue,square
0.0,8.0,4.0,1.0,5.0,5.0,522.9219200009538,2.0,1.0,phase_2,go,300.0,400.0,1.0,,,,,,,,,gray,triangle
0.0,6.0,1.0,1.0,6.0,6.0,453.8843449990963,2.0,1.0,phase_2,stop,300.0,400.0,3.0,,,,,,,,,magenta,flipped triangle
0.0,1.0,0.5,0.0,6.0,6.0,713.3342440029082,2.0,1.0,phase_2,go,300.0,350.0,1.0,,,,,,,,,orange,diamond
0.0,2.0,1.0,0.0,6.0,6.0,608.4395660000155,2.0,1.0,phase_2,go,300.0,350.0,1.0,,,,,,,,,green,circle
0.0,7.0,2.0,1.0,6.0,6.0,530.4512809998414,2.0,1.0,phase_2,stop,300.0,350.0,3.0,,,,,,,,,blue,square
0.0,2.0,1.0,0.0,5.0,5.0,664.6438280004077,2.0,1.0,phase_2,go,300.0,300.0,1.0,,,,,,,,,green,circle
0.0,5.0,0.5,1.0,6.0,0.0,0.0,2.0,1.0,phase_2,stop,300.0,300.0,4.0,,,,,,,,,white,cross
0.0,4.0,4.0,0.0,6.0,6.0,711.7455380030151,2.0,1.0,phase_2,go,300.0,350.0,1.0,,,,,,,,,cyan,hexagon
0.0,6.0,1.0,1.0,6.0,0.0,0.0,2.0,1.0,phase_2,stop,300.0,350.0,4.0,,,,,,,,,magenta,flipped triangle
0.0,1.0,0.5,0.0,6.0,6.0,579.5118559981347,2.0,1.0,phase_2,go,300.0,400.0,1.0,,,,,,,,,orange,diamond
0.0,4.0,4.0,0.0,6.0,6.0,665.4110140007106,2.0,1.0,phase_2,go,300.0,400.0,1.0,,,,,,,,,cyan,hexagon
0.0,4.0,4.0,0.0,6.0,6.0,703.2580689992756,2.0,1.0,phase_2,go,300.0,400.0,1.0,,,,,,,,,cyan,hexagon
0.0,5.0,0.5,1.0,6.0,6.0,722.6976960009779,2.0,1.0,phase_2,go,300.0,400.0,1.0,,,,,,,,,white,cross
0.0,3.0,2.0,0.0,5.0,5.0,645.6107789999805,2.0,1.0,phase_2,go,300.0,400.0,1.0,,,,,,,,,yellow,I
0.0,7.0,2.0,1.0,6.0,0.0,0.0,2.0,1.0,phase_2,stop,300.0,400.0,4.0,,,,,,,,,blue,square
0.0,8.0,4.0,1.0,6.0,6.0,545.2920790012286,2.0,1.0,phase_2,stop,300.0,450.0,3.0,,,,,,,,,gray,triangle
0.0,8.0,4.0,1.0,5.0,0.0,0.0,2.0,1.0,phase_2,stop,300.0,400.0,4.0,,,,,,,,,gray,triangle
0.0,4.0,4.0,0.0,5.0,5.0,627.0697569998447,2.0,1.0,phase_2,go,350.0,400.0,1.0,,,,,,,,,cyan,hexagon
0.0,5.0,0.5,1.0,5.0,0.0,0.0,2.0,1.0,phase_2,stop,350.0,400.0,4.0,,,,,,,,,white,cross
0.0,8.0,4.0,1.0,5.0,0.0,0.0,2.0,1.0,phase_2,stop,400.0,400.0,4.0,,,,,,,,,gray,triangle
0.0,7.0,2.0,1.0,5.0,0.0,0.0,2.0,1.0,phase_2,stop,450.0,400.0,4.0,,,,,,,,,blue,square
0.0,3.0,2.0,0.0,6.0,6.0,662.3843449997366,2.0,1.0,phase_2,go,500.0,400.0,1.0,,,,,,,,,yellow,I
0.0,2.0,1.0,0.0,6.0,6.0,693.104857000435,2.0,1.0,phase_2,go,500.0,400.0,1.0,,,,,,,,,green,circle
0.0,5.0,0.5,1.0,6.0,0.0,0.0,2.0,1.0,phase_2,stop,500.0,400.0,4.0,,,,,,,,,white,cross
0.0,5.0,0.5,1.0,5.0,5.0,713.3236139998189,2.0,1.0,phase_2,go,500.0,450.0,1.0,,,,,,,,,white,cross
0.0,8.0,4.0,1.0,6.0,0.0,0.0,2.0,1.0,phase_2,stop,500.0,450.0,4.0,,,,,,,,,gray,triangle
0.0,6.0,1.0,1.0,5.0,0.0,0.0,2.0,1.0,phase_2,stop,500.0,500.0,4.0,,,,,,,,,magenta,flipped triangle
0.0,3.0,2.0,0.0,5.0,5.0,637.8248799992434,2.0,1.0,phase_2,go,550.0,500.0,1.0,,,,,,,,,yellow,I
0.0,3.0,2.0,0.0,5.0,5.0,732.8555849999248,2.0,1.0,phase_2,go,550.0,500.0,1.0,,,,,,,,,yellow,I
0.0,5.0,0.5,1.0,5.0,5.0,675.8686469984241,2.0,1.0,phase_2,stop,550.0,500.0,3.0,,,,,,,,,white,cross
0.0,5.0,0.5,1.0,6.0,6.0,699.6788599972206,2.0,1.0,phase_2,go,500.0,500.0,1.0,,,,,,,,,white,cross
0.0,3.0,2.0,0.0,5.0,5.0,824.9369229997683,2.0,1.0,phase_2,go,500.0,500.0,1.0,,,,,,,,,yellow,I
0.0,8.0,4.0,1.0,6.0,0.0,0.0,2.0,1.0,phase_2,stop,500.0,500.0,4.0,,,,,,,,,gray,triangle
0.0,1.0,0.5,0.0,5.0,5.0,475.3027510014362,3.0,1.0,phase_2,go,500.0,550.0,1.0,,,,,,,,,orange,diamond
0.0,1.0,0.5,0.0,5.0,5.0,635.74156300092,3.0,1.0,phase_2,go,500.0,550.0,1.0,,,,,,,,,orange,diamond
0.0,2.0,1.0,0.0,5.0,5.0,718.0508739984361,3.0,1.0,phase_2,go,500.0,550.0,1.0,,,,,,,,,green,circle
0.0,5.0,0.5,1.0,5.0,5.0,589.4167039987224,3.0,1.0,phase_2,stop,500.0,550.0,3.0,,,,,,,,,white,cross
0.0,7.0,2.0,1.0,6.0,0.0,0.0,3.0,1.0,phase_2,stop,450.0,550.0,4.0,,,,,,,,,blue,square
0.0,4.0,4.0,0.0,6.0,6.0,568.5743909998564,3.0,1.0,phase_2,go,450.0,600.0,1.0,,,,,,,,,cyan,hexagon
0.0,6.0,1.0,1.0,6.0,6.0,682.8062120002869,3.0,1.0,phase_2,go,450.0,600.0,1.0,,,,,,,,,magenta,flipped triangle
0.0,8.0,4.0,1.0,5.0,5.0,541.3879490006366,3.0,1.0,phase_2,go,450.0,600.0,1.0,,,,,,,,,gray,triangle
0.0,3.0,2.0,0.0,5.0,5.0,681.7026259996055,3.0,1.0,phase_2,go,450.0,600.0,1.0,,,,,,,,,yellow,I
0.0,7.0,2.0,1.0,5.0,0.0,0.0,3.0,1.0,phase_2,stop,450.0,600.0,4.0,,,,,,,,,blue,square
0.0,1.0,0.5,0.0,5.0,5.0,368.7765290014795,3.0,1.0,phase_2,go,500.0,600.0,1.0,,,,,,,,,orange,diamond
0.0,5.0,0.5,1.0,6.0,6.0,625.990846001514,3.0,1.0,phase_2,go,500.0,600.0,1.0,,,,,,,,,white,cross
0.0,5.0,0.5,1.0,5.0,0.0,0.0,3.0,1.0,phase_2,stop,500.0,600.0,4.0,,,,,,,,,white,cross
0.0,4.0,4.0,0.0,5.0,5.0,323.022155000217,3.0,1.0,phase_2,go,550.0,600.0,1.0,,,,,,,,,cyan,hexagon
0.0,2.0,1.0,0.0,5.0,5.0,563.7434520031093,3.0,1.0,phase_2,go,550.0,600.0,1.0,,,,,,,,,green,circle
0.0,2.0,1.0,0.0,6.0,6.0,398.2584279983712,3.0,1.0,phase_2,go,550.0,600.0,1.0,,,,,,,,,green,circle
0.0,2.0,1.0,0.0,5.0,5.0,687.2613310006273,3.0,1.0,phase_2,go,550.0,600.0,1.0,,,,,,,,,green,circle
0.0,3.0,2.0,0.0,6.0,6.0,767.8824680006073,3.0,1.0,phase_2,go,550.0,600.0,1.0,,,,,,,,,yellow,I
0.0,6.0,1.0,1.0,6.0,6.0,1087.148916998558,3.0,1.0,phase_2,go,550.0,600.0,1.0,,,,,,,,,magenta,flipped triangle
0.0,1.0,0.5,0.0,6.0,6.0,616.1378619981406,3.0,1.0,phase_2,go,550.0,600.0,1.0,,,,,,,,,orange,diamond
0.0,6.0,1.0,1.0,5.0,5.0,581.6958070026885,3.0,1.0,phase_2,go,550.0,600.0,1.0,,,,,,,,,magenta,flipped triangle
0.0,8.0,4.0,1.0,6.0,6.0,447.2130760004802,3.0,1.0,phase_2,stop,550.0,600.0,3.0,,,,,,,,,gray,triangle
0.0,8.0,4.0,1.0,6.0,6.0,492.1211669970944,3.0,1.0,phase_2,stop,550.0,550.0,3.0,,,,,,,,,gray,triangle
0.0,8.0,4.0,1.0,6.0,6.0,816.9753110014426,3.0,1.0,phase_2,go,550.0,500.0,1.0,,,,,,,,,gray,triangle
0.0,6.0,1.0,1.0,6.0,6.0,769.9966869986383,3.0,1.0,phase_2,go,550.0,500.0,1.0,,,,,,,,,magenta,flipped triangle
0.0,1.0,0.5,0.0,5.0,5.0,738.8995479996083,3.0,1.0,phase_2,go,550.0,500.0,1.0,,,,,,,,,orange,diamond
0.0,1.0,0.5,0.0,5.0,5.0,645.5445200008398,3.0,1.0,phase_2,go,550.0,500.0,1.0,,,,,,,,,orange,diamond
0.0,7.0,2.0,1.0,6.0,6.0,777.2170260031999,3.0,1.0,phase_2,go,550.0,500.0,1.0,,,,,,,,,blue,square
0.0,1.0,0.5,0.0,5.0,5.0,769.5266419977997,3.0,1.0,phase_2,go,550.0,500.0,1.0,,,,,,,,,orange,diamond
0.0,8.0,4.0,1.0,5.0,0.0,0.0,3.0,1.0,phase_2,stop,550.0,500.0,4.0,,,,,,,,,gray,triangle
0.0,8.0,4.0,1.0,5.0,5.0,663.8160820002668,3.0,1.0,phase_2,go,600.0,500.0,1.0,,,,,,,,,gray,triangle
0.0,3.0,2.0,0.0,6.0,6.0,748.0064010014758,3.0,1.0,phase_2,go,600.0,500.0,1.0,,,,,,,,,yellow,I
0.0,2.0,1.0,0.0,5.0,5.0,691.2537720018008,3.0,1.0,phase_2,go,600.0,500.0,1.0,,,,,,,,,green,circle
0.0,3.0,2.0,0.0,5.0,5.0,644.8202229985327,3.0,1.0,phase_2,go,600.0,500.0,1.0,,,,,,,,,yellow,I
0.0,2.0,1.0,0.0,6.0,6.0,398.6752780001552,3.0,1.0,phase_2,go,600.0,500.0,1.0,,,,,,,,,green,circle
0.0,5.0,0.5,1.0,5.0,5.0,637.804538000637,3.0,1.0,phase_2,stop,600.0,500.0,3.0,,,,,,,,,white,cross
0.0,4.0,4.0,0.0,6.0,6.0,596.6326999987359,4.0,1.0,phase_2,go,550.0,500.0,1.0,,,,,,,,,cyan,hexagon
0.0,7.0,2.0,1.0,6.0,6.0,322.3366950005584,4.0,1.0,phase_2,stop,550.0,500.0,3.0,,,,,,,,,blue,square
0.0,3.0,2.0,0.0,5.0,5.0,635.2604479980073,4.0,1.0,phase_2,go,550.0,450.0,1.0,,,,,,,,,yellow,I
0.0,7.0,2.0,1.0,6.0,0.0,0.0,4.0,1.0,phase_2,stop,550.0,450.0,4.0,,,,,,,,,blue,square
0.0,7.0,2.0,1.0,6.0,6.0,371.0993799977586,4.0,1.0,phase_2,go,550.0,500.0,1.0,,,,,,,,,blue,square
0.0,5.0,0.5,1.0,5.0,0.0,0.0,4.0,1.0,phase_2,stop,550.0,500.0,4.0,,,,,,,,,white,cross
0.0,3.0,2.0,0.0,6.0,6.0,646.9212289994175,4.0,1.0,phase_2,go,600.0,500.0,1.0,,,,,,,,,yellow,I
0.0,7.0,2.0,1.0,5.0,5.0,648.0800480021571,4.0,1.0,phase_2,stop,600.0,500.0,3.0,,,,,,,,,blue,square
0.0,4.0,4.0,0.0,5.0,5.0,695.8304629988561,4.0,1.0,phase_2,go,550.0,500.0,1.0,,,,,,,,,cyan,hexagon
0.0,6.0,1.0,1.0,5.0,0.0,0.0,4.0,1.0,phase_2,stop,550.0,500.0,4.0,,,,,,,,,magenta,flipped triangle
0.0,6.0,1.0,1.0,6.0,0.0,0.0,4.0,1.0,phase_2,stop,600.0,500.0,4.0,,,,,,,,,magenta,flipped triangle
0.0,1.0,0.5,0.0,5.0,5.0,522.9261429994949,4.0,1.0,phase_2,go,600.0,550.0,1.0,,,,,,,,,orange,diamond
0.0,2.0,1.0,0.0,5.0,5.0,722.1996230000514,4.0,1.0,phase_2,go,600.0,550.0,1.0,,,,,,,,,green,circle
0.0,1.0,0.5,0.0,5.0,5.0,361.8582540002535,4.0,1.0,phase_2,go,600.0,550.0,1.0,,,,,,,,,orange,diamond
0.0,6.0,1.0,1.0,5.0,5.0,706.624839000142,4.0,1.0,phase_2,stop,600.0,550.0,3.0,,,,,,,,,magenta,flipped triangle
0.0,7.0,2.0,1.0,6.0,6.0,532.6043810018746,4.0,1.0,phase_2,stop,550.0,550.0,3.0,,,,,,,,,blue,square
0.0,7.0,2.0,1.0,6.0,0.0,0.0,4.0,1.0,phase_2,stop,550.0,500.0,4.0,,,,,,,,,blue,square
0.0,1.0,0.5,0.0,6.0,6.0,797.1984849973524,4.0,1.0,phase_2,go,550.0,550.0,1.0,,,,,,,,,orange,diamond
0.0,8.0,4.0,1.0,6.0,6.0,681.242058002681,4.0,1.0,phase_2,stop,550.0,550.0,3.0,,,,,,,,,gray,triangle
0.0,2.0,1.0,0.0,5.0,5.0,731.0877579984663,4.0,1.0,phase_2,go,550.0,500.0,1.0,,,,,,,,,green,circle
0.0,2.0,1.0,0.0,6.0,6.0,714.9446390030789,4.0,1.0,phase_2,go,550.0,500.0,1.0,,,,,,,,,green,circle
0.0,3.0,2.0,0.0,5.0,5.0,693.7747310003033,4.0,1.0,phase_2,go,550.0,500.0,1.0,,,,,,,,,yellow,I
0.0,7.0,2.0,1.0,6.0,0.0,0.0,4.0,1.0,phase_2,stop,550.0,500.0,4.0,,,,,,,,,blue,square
0.0,3.0,2.0,0.0,5.0,5.0,597.3580460013181,4.0,1.0,phase_2,go,550.0,550.0,1.0,,,,,,,,,yellow,I
0.0,3.0,2.0,0.0,6.0,6.0,327.3153589980211,4.0,1.0,phase_2,go,550.0,550.0,1.0,,,,,,,,,yellow,I
0.0,3.0,2.0,0.0,5.0,5.0,475.7827360008377,4.0,1.0,phase_2,go,550.0,550.0,1.0,,,,,,,,,yellow,I
0.0,7.0,2.0,1.0,6.0,6.0,401.5652689995477,4.0,1.0,phase_2,stop,550.0,550.0,3.0,,,,,,,,,blue,square
0.0,5.0,0.5,1.0,5.0,5.0,400.4494959990552,4.0,1.0,phase_2,go,550.0,500.0,1.0,,,,,,,,,white,cross
0.0,5.0,0.5,1.0,5.0,5.0,642.2914290014887,4.0,1.0,phase_2,stop,550.0,500.0,3.0,,,,,,,,,white,cross
0.0,6.0,1.0,1.0,5.0,0.0,0.0,4.0,1.0,phase_2,stop,500.0,500.0,4.0,,,,,,,,,magenta,flipped triangle
0.0,2.0,1.0,0.0,5.0,5.0,380.8814869989874,4.0,1.0,phase_2,go,550.0,500.0,1.0,,,,,,,,,green,circle
0.0,5.0,0.5,1.0,5.0,5.0,748.7262680006097,4.0,1.0,phase_2,go,550.0,500.0,1.0,,,,,,,,,white,cross
0.0,2.0,1.0,0.0,6.0,0.0,0.0,4.0,1.0,phase_2,go,550.0,500.0,5.0,,,,,,,,,green,circle
0.0,3.0,2.0,0.0,5.0,5.0,379.1197479986294,4.0,1.0,phase_2,go,550.0,500.0,1.0,,,,,,,,,yellow,I
0.0,4.0,4.0,0.0,6.0,0.0,0.0,4.0,1.0,phase_2,go,550.0,500.0,5.0,,,,,,,,,cyan,hexagon
0.0,8.0,4.0,1.0,5.0,5.0,513.1385479980963,4.0,1.0,phase_2,stop,550.0,500.0,3.0,,,,,,,,,gray,triangle
0.0,5.0,0.5,1.0,6.0,6.0,343.0667280008492,5.0,1.0,phase_2,stop,500.0,500.0,3.0,,,,,,,,,white,cross
0.0,1.0,0.5,0.0,5.0,5.0,371.7442679990199,5.0,1.0,phase_2,go,500.0,450.0,1.0,,,,,,,,,orange,diamond
0.0,4.0,4.0,0.0,5.0,5.0,400.2998849973664,5.0,1.0,phase_2,go,500.0,450.0,1.0,,,,,,,,,cyan,hexagon
0.0,8.0,4.0,1.0,6.0,6.0,427.4352829997951,5.0,1.0,phase_2,stop,500.0,450.0,3.0,,,,,,,,,gray,triangle
0.0,4.0,4.0,0.0,5.0,5.0,304.6443890016235,5.0,1.0,phase_2,go,500.0,400.0,1.0,,,,,,,,,cyan,hexagon
0.0,4.0,4.0,0.0,6.0,6.0,296.5736709993507,5.0,1.0,phase_2,go,500.0,400.0,1.0,,,,,,,,,cyan,hexagon
0.0,1.0,0.5,0.0,6.0,6.0,673.7989879984525,5.0,1.0,phase_2,go,500.0,400.0,1.0,,,,,,,,,orange,diamond
0.0,8.0,4.0,1.0,5.0,5.0,637.8899489973264,5.0,1.0,phase_2,stop,500.0,400.0,3.0,,,,,,,,,gray,triangle
0.0,1.0,0.5,0.0,6.0,6.0,453.6343250001664,5.0,1.0,phase_2,go,450.0,400.0,1.0,,,,,,,,,orange,diamond
0.0,6.0,1.0,1.0,5.0,5.0,627.0504229978542,5.0,1.0,phase_2,stop,450.0,400.0,3.0,,,,,,,,,magenta,flipped triangle
0.0,2.0,1.0,0.0,5.0,5.0,617.3427950016048,5.0,1.0,phase_2,go,400.0,400.0,1.0,,,,,,,,,green,circle
0.0,3.0,2.0,0.0,5.0,5.0,825.8066259986663,5.0,1.0,phase_2,go,400.0,400.0,1.0,,,,,,,,,yellow,I
0.0,1.0,0.5,0.0,6.0,6.0,684.0640639966296,5.0,1.0,phase_2,go,400.0,400.0,1.0,,,,,,,,,orange,diamond
0.0,4.0,4.0,0.0,6.0,6.0,979.859810002381,5.0,1.0,phase_2,go,400.0,400.0,1.0,,,,,,,,,cyan,hexagon
0.0,8.0,4.0,1.0,6.0,0.0,0.0,5.0,1.0,phase_2,stop,400.0,400.0,4.0,,,,,,,,,gray,triangle
0.0,5.0,0.5,1.0,5.0,0.0,0.0,5.0,1.0,phase_2,stop,400.0,450.0,4.0,,,,,,,,,white,cross
0.0,1.0,0.5,0.0,5.0,5.0,539.4011919997865,5.0,1.0,phase_2,go,450.0,450.0,1.0,,,,,,,,,orange,diamond
0.0,1.0,0.5,0.0,6.0,6.0,833.3375539987173,5.0,1.0,phase_2,go,450.0,450.0,1.0,,,,,,,,,orange,diamond
0.0,1.0,0.5,0.0,6.0,6.0,606.8509309989167,5.0,1.0,phase_2,go,450.0,450.0,1.0,,,,,,,,,orange,diamond
0.0,5.0,0.5,1.0,6.0,0.0,0.0,5.0,1.0,phase_2,stop,450.0,450.0,4.0,,,,,,,,,white,cross
0.0,3.0,2.0,0.0,6.0,6.0,689.5006119993923,5.0,1.0,phase_2,go,450.0,500.0,1.0,,,,,,,,,yellow,I
0.0,2.0,1.0,0.0,6.0,6.0,368.9829340000869,5.0,1.0,phase_2,go,450.0,500.0,1.0,,,,,,,,,green,circle
0.0,7.0,2.0,1.0,6.0,6.0,359.488791997137,5.0,1.0,phase_2,go,450.0,500.0,1.0,,,,,,,,,blue,square
0.0,6.0,1.0,1.0,5.0,5.0,398.2916679997288,5.0,1.0,phase_2,stop,450.0,500.0,3.0,,,,,,,,,magenta,flipped triangle
0.0,6.0,1.0,1.0,6.0,0.0,0.0,5.0,1.0,phase_2,stop,400.0,500.0,4.0,,,,,,,,,magenta,flipped triangle
0.0,7.0,2.0,1.0,6.0,0.0,0.0,5.0,1.0,phase_2,stop,400.0,550.0,4.0,,,,,,,,,blue,square
0.0,6.0,1.0,1.0,6.0,6.0,719.4535569979053,5.0,1.0,phase_2,go,400.0,600.0,1.0,,,,,,,,,magenta,flipped triangle
0.0,2.0,1.0,0.0,6.0,6.0,741.1587440001313,5.0,1.0,phase_2,go,400.0,600.0,1.0,,,,,,,,,green,circle
0.0,8.0,4.0,1.0,5.0,0.0,0.0,5.0,1.0,phase_2,stop,400.0,600.0,4.0,,,,,,,,,gray,triangle
0.0,2.0,1.0,0.0,5.0,5.0,464.5492889976594,5.0,1.0,phase_2,go,450.0,600.0,1.0,,,,,,,,,green,circle
0.0,6.0,1.0,1.0,5.0,0.0,0.0,5.0,1.0,phase_2,stop,450.0,600.0,4.0,,,,,,,,,magenta,flipped triangle
0.0,1.0,0.5,0.0,6.0,6.0,531.062280999322,5.0,1.0,phase_2,go,500.0,600.0,1.0,,,,,,,,,orange,diamond
0.0,5.0,0.5,1.0,5.0,5.0,293.3372340012283,5.0,1.0,phase_2,stop,500.0,600.0,3.0,,,,,,,,,white,cross
0.0,2.0,1.0,0.0,6.0,6.0,656.5538229988306,5.0,1.0,phase_2,go,450.0,600.0,1.0,,,,,,,,,green,circle
0.0,7.0,2.0,1.0,5.0,0.0,0.0,5.0,1.0,phase_2,stop,450.0,600.0,4.0,,,,,,,,,blue,square
0.0,8.0,4.0,1.0,6.0,6.0,740.2685749984812,5.0,1.0,phase_2,go,500.0,600.0,1.0,,,,,,,,,gray,triangle
0.0,5.0,0.5,1.0,6.0,6.0,494.6120880013041,6.0,1.0,phase_2,stop,500.0,600.0,3.0,,,,,,,,,white,cross
0.0,8.0,4.0,1.0,6.0,6.0,607.8799209972203,6.0,1.0,phase_2,stop,500.0,550.0,3.0,,,,,,,,,gray,triangle
0.0,5.0,0.5,1.0,6.0,6.0,681.2580559999333,6.0,1.0,phase_2,stop,500.0,500.0,3.0,,,,,,,,,white,cross
0.0,1.0,0.5,0.0,6.0,6.0,540.4616810010339,6.0,1.0,phase_2,go,500.0,450.0,1.0,,,,,,,,,orange,diamond
0.0,7.0,2.0,1.0,5.0,5.0,846.6251470017596,6.0,1.0,phase_2,go,500.0,450.0,1.0,,,,,,,,,blue,square
0.0,8.0,4.0,1.0,6.0,0.0,0.0,6.0,1.0,phase_2,stop,500.0,450.0,4.0,,,,,,,,,gray,triangle
0.0,3.0,2.0,0.0,6.0,6.0,562.1111689979443,6.0,1.0,phase_2,go,500.0,500.0,1.0,,,,,,,,,yellow,I
0.0,3.0,2.0,0.0,5.0,5.0,598.6802799998259,6.0,1.0,phase_2,go,500.0,500.0,1.0,,,,,,,,,yellow,I
0.0,7.0,2.0,1.0,5.0,0.0,0.0,6.0,1.0,phase_2,stop,500.0,500.0,4.0,,,,,,,,,blue,square
0.0,3.0,2.0,0.0,6.0,6.0,647.7276229998097,6.0,1.0,phase_2,go,550.0,500.0,1.0,,,,,,,,,yellow,I
0.0,1.0,0.5,0.0,6.0,6.0,788.2234879980388,6.0,1.0,phase_2,go,550.0,500.0,1.0,,,,,,,,,orange,diamond
0.0,2.0,1.0,0.0,6.0,6.0,695.978448002279,6.0,1.0,phase_2,go,550.0,500.0,1.0,,,,,,,,,green,circle
0.0,6.0,1.0,1.0,5.0,5.0,652.297376000206,6.0,1.0,phase_2,stop,550.0,500.0,3.0,,,,,,,,,magenta,flipped triangle
0.0,3.0,2.0,0.0,6.0,6.0,589.2962190009712,6.0,1.0,phase_2,go,500.0,500.0,1.0,,,,,,,,,yellow,I
0.0,2.0,1.0,0.0,5.0,5.0,1112.2400179992835,6.0,1.0,phase_2,go,500.0,500.0,1.0,,,,,,,,,green,circle
0.0,6.0,1.0,1.0,6.0,0.0,0.0,6.0,1.0,phase_2,stop,500.0,500.0,4.0,,,,,,,,,magenta,flipped triangle
0.0,6.0,1.0,1.0,5.0,5.0,922.4662470005568,6.0,1.0,phase_2,go,500.0,550.0,1.0,,,,,,,,,magenta,flipped triangle
0.0,8.0,4.0,1.0,6.0,0.0,0.0,6.0,1.0,phase_2,stop,500.0,550.0,4.0,,,,,,,,,gray,triangle
0.0,2.0,1.0,0.0,5.0,5.0,503.4179390022473,6.0,1.0,phase_2,go,500.0,600.0,1.0,,,,,,,,,green,circle
0.0,5.0,0.5,1.0,6.0,0.0,0.0,6.0,1.0,phase_2,stop,500.0,600.0,4.0,,,,,,,,,white,cross
0.0,6.0,1.0,1.0,6.0,6.0,858.7170939972566,6.0,1.0,phase_2,stop,500.0,650.0,3.0,,,,,,,,,magenta,flipped triangle
0.0,1.0,0.5,0.0,6.0,6.0,504.4917359991814,6.0,1.0,phase_2,go,500.0,600.0,1.0,,,,,,,,,orange,diamond
0.0,8.0,4.0,1.0,5.0,0.0,0.0,6.0,1.0,phase_2,stop,500.0,600.0,4.0,,,,,,,,,gray,triangle
0.0,3.0,2.0,0.0,6.0,6.0,561.339333999058,6.0,1.0,phase_2,go,550.0,600.0,1.0,,,,,,,,,yellow,I
0.0,6.0,1.0,1.0,5.0,0.0,0.0,6.0,1.0,phase_2,stop,550.0,600.0,4.0,,,,,,,,,magenta,flipped triangle
0.0,4.0,4.0,0.0,5.0,5.0,515.0715929994476,6.0,1.0,phase_2,go,600.0,600.0,1.0,,,,,,,,,cyan,hexagon
0.0,3.0,2.0,0.0,5.0,5.0,488.039439998829,6.0,1.0,phase_2,go,600.0,600.0,1.0,,,,,,,,,yellow,I
0.0,4.0,4.0,0.0,5.0,5.0,818.8161979996949,6.0,1.0,phase_2,go,600.0,600.0,1.0,,,,,,,,,cyan,hexagon
0.0,1.0,0.5,0.0,5.0,5.0,609.6933709995938,6.0,1.0,phase_2,go,600.0,600.0,1.0,,,,,,,,,orange,diamond
0.0,3.0,2.0,0.0,5.0,5.0,610.5127090013411,6.0,1.0,phase_2,go,600.0,600.0,1.0,,,,,,,,,yellow,I
0.0,4.0,4.0,0.0,6.0,6.0,560.4554410019773,6.0,1.0,phase_2,go,600.0,600.0,1.0,,,,,,,,,cyan,hexagon
0.0,6.0,1.0,1.0,6.0,0.0,0.0,6.0,1.0,phase_2,stop,600.0,600.0,4.0,,,,,,,,,magenta,flipped triangle
0.0,1.0,0.5,0.0,6.0,6.0,771.6063280022354,6.0,1.0,phase_2,go,600.0,650.0,1.0,,,,,,,,,orange,diamond
0.0,1.0,0.5,0.0,5.0,5.0,714.3168650000007,6.0,1.0,phase_2,go,600.0,650.0,1.0,,,,,,,,,orange,diamond
0.0,6.0,1.0,1.0,5.0,0.0,0.0,6.0,1.0,phase_2,stop,600.0,650.0,4.0,,,,,,,,,magenta,flipped triangle
0.0,8.0,4.0,1.0,5.0,5.0,1116.875052000978,6.0,1.0,phase_2,go,650.0,650.0,1.0,,,,,,,,,gray,triangle
0.0,2.0,1.0,0.0,6.0,6.0,495.610193000175,7.0,1.0,phase_2,go,650.0,650.0,1.0,,,,,,,,,green,circle
0.0,4.0,4.0,0.0,5.0,5.0,477.5380179999047,7.0,1.0,phase_2,go,650.0,650.0,1.0,,,,,,,,,cyan,hexagon
0.0,6.0,1.0,1.0,5.0,5.0,1065.1746909970825,7.0,1.0,phase_2,go,650.0,650.0,1.0,,,,,,,,,magenta,flipped triangle
0.0,4.0,4.0,0.0,5.0,5.0,465.4883139992307,7.0,1.0,phase_2,go,650.0,650.0,1.0,,,,,,,,,cyan,hexagon
0.0,2.0,1.0,0.0,6.0,6.0,437.2697319995495,7.0,1.0,phase_2,go,650.0,650.0,1.0,,,,,,,,,green,circle
0.0,3.0,2.0,0.0,6.0,6.0,502.6531719995546,7.0,1.0,phase_2,go,650.0,650.0,1.0,,,,,,,,,yellow,I
0.0,1.0,0.5,0.0,6.0,6.0,580.592196998623,7.0,1.0,phase_2,go,650.0,650.0,1.0,,,,,,,,,orange,diamond
0.0,5.0,0.5,1.0,6.0,0.0,0.0,7.0,1.0,phase_2,stop,650.0,650.0,4.0,,,,,,,,,white,cross
0.0,4.0,4.0,0.0,6.0,6.0,683.3106239973858,7.0,1.0,phase_2,go,650.0,700.0,1.0,,,,,,,,,cyan,hexagon
0.0,8.0,4.0,1.0,6.0,0.0,0.0,7.0,1.0,phase_2,stop,650.0,700.0,4.0,,,,,,,,,gray,triangle
0.0,4.0,4.0,0.0,5.0,5.0,578.9084839998395,7.0,1.0,phase_2,go,650.0,750.0,1.0,,,,,,,,,cyan,hexagon
0.0,7.0,2.0,1.0,5.0,0.0,0.0,7.0,1.0,phase_2,stop,650.0,750.0,4.0,,,,,,,,,blue,square
0.0,8.0,4.0,1.0,6.0,0.0,0.0,7.0,1.0,phase_2,stop,700.0,750.0,4.0,,,,,,,,,gray,triangle
0.0,4.0,4.0,0.0,5.0,5.0,494.437449000543,7.0,1.0,phase_2,go,700.0,800.0,1.0,,,,,,,,,cyan,hexagon
0.0,3.0,2.0,0.0,6.0,6.0,502.85720699685044,7.0,1.0,phase_2,go,700.0,800.0,1.0,,,,,,,,,yellow,I
0.0,7.0,2.0,1.0,6.0,0.0,0.0,7.0,1.0,phase_2,stop,700.0,800.0,4.0,,,,,,,,,blue,square
0.0,7.0,2.0,1.0,5.0,5.0,655.7055539997236,7.0,1.0,phase_2,go,700.0,850.0,1.0,,,,,,,,,blue,square
0.0,8.0,4.0,1.0,5.0,5.0,912.7764189979644,7.0,1.0,phase_2,go,700.0,850.0,1.0,,,,,,,,,gray,triangle
0.0,1.0,0.5,0.0,5.0,5.0,392.4205740004254,7.0,1.0,phase_2,go,700.0,850.0,1.0,,,,,,,,,orange,diamond
0.0,6.0,1.0,1.0,5.0,5.0,636.7197399995348,7.0,1.0,phase_2,stop,700.0,850.0,3.0,,,,,,,,,magenta,flipped triangle
0.0,4.0,4.0,0.0,6.0,6.0,542.589897999278,7.0,1.0,phase_2,go,650.0,850.0,1.0,,,,,,,,,cyan,hexagon
0.0,4.0,4.0,0.0,5.0,5.0,655.3503059985815,7.0,1.0,phase_2,go,650.0,850.0,1.0,,,,,,,,,cyan,hexagon
0.0,1.0,0.5,0.0,5.0,5.0,511.7473069985863,7.0,1.0,phase_2,go,650.0,850.0,1.0,,,,,,,,,orange,diamond
0.0,8.0,4.0,1.0,5.0,0.0,0.0,7.0,1.0,phase_2,stop,650.0,850.0,4.0,,,,,,,,,gray,triangle
0.0,4.0,4.0,0.0,6.0,6.0,512.8578839976399,7.0,1.0,phase_2,go,700.0,850.0,1.0,,,,,,,,,cyan,hexagon
0.0,6.0,1.0,1.0,6.0,6.0,1308.926674999384,7.0,1.0,phase_2,go,700.0,850.0,1.0,,,,,,,,,magenta,flipped triangle
0.0,5.0,0.5,1.0,5.0,5.0,436.6267910008901,7.0,1.0,phase_2,stop,700.0,850.0,3.0,,,,,,,,,white,cross
0.0,7.0,2.0,1.0,5.0,0.0,0.0,7.0,1.0,phase_2,stop,650.0,850.0,4.0,,,,,,,,,blue,square
0.0,1.0,0.5,0.0,5.0,5.0,454.7495749975496,7.0,1.0,phase_2,go,700.0,850.0,1.0,,,,,,,,,orange,diamond
0.0,2.0,1.0,0.0,6.0,6.0,426.270702999318,7.0,1.0,phase_2,go,700.0,850.0,1.0,,,,,,,,,green,circle
0.0,7.0,2.0,1.0,5.0,5.0,861.2827609977103,7.0,1.0,phase_2,stop,700.0,850.0,3.0,,,,,,,,,blue,square
0.0,7.0,2.0,1.0,5.0,0.0,0.0,7.0,1.0,phase_2,stop,650.0,850.0,4.0,,,,,,,,,blue,square
0.0,8.0,4.0,1.0,5.0,5.0,1035.1280600007158,7.0,1.0,phase_2,go,700.0,850.0,1.0,,,,,,,,,gray,triangle
0.0,8.0,4.0,1.0,6.0,6.0,1383.6567799990007,7.0,1.0,phase_2,go,700.0,850.0,1.0,,,,,,,,,gray,triangle
0.0,4.0,4.0,0.0,5.0,5.0,626.7241309978999,7.0,1.0,phase_2,go,700.0,850.0,1.0,,,,,,,,,cyan,hexagon
0.0,4.0,4.0,0.0,6.0,6.0,531.0275459996774,7.0,1.0,phase_2,go,700.0,850.0,1.0,,,,,,,,,cyan,hexagon
0.0,6.0,1.0,1.0,6.0,0.0,0.0,8.0,1.0,phase_2,stop,700.0,850.0,4.0,,,,,,,,,magenta,flipped triangle
0.0,2.0,1.0,0.0,5.0,5.0,523.2175399978587,8.0,1.0,phase_2,go,700.0,900.0,1.0,,,,,,,,,green,circle
0.0,5.0,0.5,1.0,6.0,6.0,1036.7964389988629,8.0,1.0,phase_2,stop,700.0,900.0,3.0,,,,,,,,,white,cross
0.0,8.0,4.0,1.0,6.0,0.0,0.0,8.0,1.0,phase_2,stop,700.0,850.0,4.0,,,,,,,,,gray,triangle
0.0,4.0,4.0,0.0,6.0,6.0,455.7558820015401,8.0,1.0,phase_2,go,700.0,900.0,1.0,,,,,,,,,cyan,hexagon
0.0,2.0,1.0,0.0,5.0,5.0,408.2639699990977,8.0,1.0,phase_2,go,700.0,900.0,1.0,,,,,,,,,green,circle
0.0,4.0,4.0,0.0,6.0,6.0,437.3879720005789,8.0,1.0,phase_2,go,700.0,900.0,1.0,,,,,,,,,cyan,hexagon
0.0,4.0,4.0,0.0,6.0,6.0,513.2508159986173,8.0,1.0,phase_2,go,700.0,900.0,1.0,,,,,,,,,cyan,hexagon
0.0,4.0,4.0,0.0,5.0,5.0,467.890593001357,8.0,1.0,phase_2,go,700.0,900.0,1.0,,,,,,,,,cyan,hexagon
0.0,3.0,2.0,0.0,5.0,5.0,410.4567649992532,8.0,1.0,phase_2,go,700.0,900.0,1.0,,,,,,,,,yellow,I
0.0,7.0,2.0,1.0,6.0,0.0,0.0,8.0,1.0,phase_2,stop,700.0,900.0,4.0,,,,,,,,,blue,square
0.0,2.0,1.0,0.0,6.0,6.0,466.04090099936,8.0,1.0,phase_2,go,700.0,950.0,1.0,,,,,,,,,green,circle
0.0,8.0,4.0,1.0,5.0,0.0,0.0,8.0,1.0,phase_2,stop,700.0,950.0,4.0,,,,,,,,,gray,triangle
0.0,2.0,1.0,0.0,5.0,5.0,456.3928390016372,8.0,1.0,phase_2,go,750.0,950.0,1.0,,,,,,,,,green,circle
0.0,6.0,1.0,1.0,6.0,0.0,0.0,8.0,1.0,phase_2,stop,750.0,950.0,4.0,,,,,,,,,magenta,flipped triangle
0.0,3.0,2.0,0.0,6.0,6.0,410.5085759983922,8.0,1.0,phase_2,go,750.0,1000.0,1.0,,,,,,,,,yellow,I
0.0,1.0,0.5,0.0,6.0,6.0,466.9816780005931,8.0,1.0,phase_2,go,750.0,1000.0,1.0,,,,,,,,,orange,diamond
0.0,6.0,1.0,1.0,6.0,0.0,0.0,8.0,1.0,phase_2,stop,750.0,1000.0,4.0,,,,,,,,,magenta,flipped triangle
0.0,5.0,0.5,1.0,6.0,0.0,0.0,8.0,1.0,phase_2,stop,750.0,1050.0,4.0,,,,,,,,,white,cross
0.0,3.0,2.0,0.0,5.0,5.0,464.6450529980939,8.0,1.0,phase_2,go,750.0,1100.0,1.0,,,,,,,,,yellow,I
0.0,7.0,2.0,1.0,6.0,6.0,417.9093060010928,8.0,1.0,phase_2,stop,750.0,1100.0,3.0,,,,,,,,,blue,square
0.0,5.0,0.5,1.0,5.0,0.0,0.0,8.0,1.0,phase_2,stop,750.0,1050.0,4.0,,,,,,,,,white,cross
0.0,2.0,1.0,0.0,5.0,5.0,580.1626009997563,8.0,1.0,phase_2,go,800.0,1050.0,1.0,,,,,,,,,green,circle
0.0,3.0,2.0,0.0,6.0,6.0,514.5385409996379,8.0,1.0,phase_2,go,800.0,1050.0,1.0,,,,,,,,,yellow,I
0.0,1.0,0.5,0.0,5.0,5.0,361.9935210008407,8.0,1.0,phase_2,go,800.0,1050.0,1.0,,,,,,,,,orange,diamond
0.0,6.0,1.0,1.0,6.0,6.0,1203.0562419968192,8.0,1.0,phase_2,stop,800.0,1050.0,3.0,,,,,,,,,magenta,flipped triangle
0.0,8.0,4.0,1.0,6.0,0.0,0.0,8.0,1.0,phase_2,stop,800.0,1000.0,4.0,,,,,,,,,gray,triangle
0.0,5.0,0.5,1.0,5.0,0.0,0.0,8.0,1.0,phase_2,stop,800.0,1050.0,4.0,,,,,,,,,white,cross
0.0,7.0,2.0,1.0,5.0,5.0,1024.1744260019914,8.0,1.0,phase_2,go,850.0,1050.0,1.0,,,,,,,,,blue,square
0.0,8.0,4.0,1.0,5.0,0.0,0.0,8.0,1.0,phase_2,stop,850.0,1050.0,4.0,,,,,,,,,gray,triangle
0.0,4.0,4.0,0.0,6.0,6.0,446.475153999927,8.0,1.0,phase_2,go,900.0,1050.0,1.0,,,,,,,,,cyan,hexagon
0.0,7.0,2.0,1.0,5.0,0.0,0.0,8.0,1.0,phase_2,stop,900.0,1050.0,4.0,,,,,,,,,blue,square
0.0,6.0,1.0,1.0,5.0,0.0,0.0,8.0,1.0,phase_2,stop,950.0,1050.0,4.0,,,,,,,,,magenta,flipped triangle
0.0,5.0,0.5,1.0,5.0,0.0,0.0,8.0,1.0,phase_2,stop,1000.0,1050.0,4.0,,,,,,,,,white,cross
0.0,5.0,0.5,1.0,6.0,0.0,0.0,8.0,1.0,phase_2,go,1050.0,1050.0,5.0,,,,,,,,,white,cross
0.0,5.0,0.5,1.0,6.0,6.0,1064.854986998398,8.0,1.0,phase_2,go,1050.0,1050.0,1.0,,,,,,,,,white,cross
0.0,2.0,1.0,0.0,7.0,2.0,2117.77092599732,1.0,2.0,phase_3,,,,,576.0,3.0,1152.0,576.0,960.0,384.0,192.0,768.0,green,circle
0.0,8.0,4.0,1.0,7.0,5.0,2249.620759001118,1.0,1.0,phase_3,,,,,1038.0,6.0,692.0,519.0,346.0,865.0,1038.0,173.0,gray,triangle
0.0,7.0,2.0,1.0,7.0,6.0,1872.2800520008605,1.0,1.0,phase_3,,,,,924.0,6.0,616.0,770.0,308.0,462.0,154.0,924.0,blue,square
0.0,4.0,4.0,0.0,7.0,3.0,1459.027970002353,1.0,1.0,phase_3,,,,,692.0,4.0,519.0,346.0,692.0,1038.0,173.0,865.0,cyan,hexagon
0.0,4.0,4.0,0.0,7.0,1.0,1732.5646619974575,1.0,1.0,phase_3,,,,,580.0,5.0,580.0,348.0,232.0,464.0,696.0,116.0,cyan,hexagon
0.0,7.0,2.0,1.0,7.0,5.0,2933.275978997699,1.0,1.0,phase_3,,,,,232.0,2.0,348.0,464.0,580.0,116.0,232.0,696.0,blue,square
0.0,3.0,2.0,0.0,7.0,4.0,2586.5952929998457,1.0,1.0,phase_3,,,,,308.0,2.0,616.0,154.0,924.0,308.0,770.0,462.0,yellow,I
0.0,1.0,0.5,0.0,7.0,5.0,1820.6918430005321,1.0,1.0,phase_3,,,,,768.0,4.0,960.0,384.0,1152.0,192.0,768.0,576.0,orange,diamond
0.0,6.0,1.0,1.0,7.0,3.0,2525.3019320007297,1.0,1.0,phase_3,,,,,696.0,6.0,464.0,116.0,696.0,348.0,580.0,232.0,magenta,flipped triangle
0.0,6.0,1.0,1.0,7.0,2.0,1305.0411119984346,1.0,1.0,phase_3,,,,,616.0,4.0,924.0,616.0,154.0,308.0,462.0,770.0,magenta,flipped triangle
0.0,7.0,2.0,1.0,7.0,5.0,1387.2479169986036,1.0,1.0,phase_3,,,,,810.0,6.0,270.0,675.0,540.0,405.0,810.0,135.0,blue,square
0.0,5.0,0.5,1.0,7.0,1.0,2390.148151000176,1.0,1.0,phase_3,,,,,696.0,6.0,696.0,116.0,580.0,348.0,232.0,464.0,white,cross
0.0,2.0,1.0,0.0,7.0,4.0,2880.9528720012167,1.0,1.0,phase_3,,,,,135.0,1.0,270.0,540.0,810.0,135.0,405.0,675.0,green,circle
0.0,6.0,1.0,1.0,7.0,5.0,2248.528758998873,1.0,1.0,phase_3,,,,,692.0,4.0,519.0,1038.0,346.0,173.0,692.0,865.0,magenta,flipped triangle
0.0,7.0,2.0,1.0,7.0,3.0,1831.3830879997115,1.0,1.0,phase_3,,,,,960.0,5.0,192.0,576.0,960.0,1152.0,768.0,384.0,blue,square
0.0,6.0,1.0,1.0,7.0,3.0,2268.783932002407,1.0,1.0,phase_3,,,,,462.0,3.0,308.0,154.0,462.0,924.0,616.0,770.0,magenta,flipped triangle
0.0,4.0,4.0,0.0,7.0,4.0,1965.5685240031744,1.0,1.0,phase_3,,,,,346.0,2.0,173.0,1038.0,865.0,346.0,519.0,692.0,cyan,hexagon
0.0,2.0,1.0,0.0,7.0,5.0,2260.8546139999817,1.0,1.0,phase_3,,,,,519.0,3.0,173.0,1038.0,346.0,865.0,519.0,692.0,green,circle
0.0,8.0,4.0,1.0,7.0,2.0,1169.2722029983995,1.0,1.0,phase_3,,,,,768.0,4.0,192.0,768.0,1152.0,384.0,576.0,960.0,gray,triangle
0.0,7.0,2.0,1.0,7.0,5.0,2490.5803840010776,1.0,1.0,phase_3,,,,,692.0,4.0,519.0,346.0,1038.0,173.0,692.0,865.0,blue,square
0.0,7.0,2.0,1.0,7.0,2.0,1207.1686659983245,2.0,1.0,phase_3,,,,,768.0,4.0,384.0,768.0,192.0,576.0,960.0,1152.0,blue,square
0.0,1.0,0.5,0.0,7.0,4.0,1200.8427569999185,2.0,1.0,phase_3,,,,,462.0,3.0,308.0,770.0,616.0,462.0,924.0,154.0,orange,diamond
0.0,4.0,4.0,0.0,7.0,4.0,1347.7050099972985,2.0,1.0,phase_3,,,,,576.0,3.0,192.0,960.0,768.0,576.0,1152.0,384.0,cyan,hexagon
0.0,2.0,1.0,0.0,7.0,4.0,3305.0934659986524,2.0,1.0,phase_3,,,,,154.0,1.0,308.0,924.0,616.0,154.0,770.0,462.0,green,circle
0.0,6.0,1.0,1.0,7.0,2.0,2707.6844989969686,2.0,1.0,phase_3,,,,,540.0,4.0,135.0,540.0,810.0,675.0,405.0,270.0,magenta,flipped triangle
0.0,5.0,0.5,1.0,7.0,1.0,1676.5207329990517,2.0,1.0,phase_3,,,,,768.0,4.0,768.0,192.0,384.0,1152.0,576.0,960.0,white,cross
0.0,5.0,0.5,1.0,7.0,1.0,1725.547946000006,2.0,1.0,phase_3,,,,,865.0,5.0,865.0,346.0,1038.0,173.0,519.0,692.0,white,cross
0.0,5.0,0.5,1.0,7.0,1.0,2270.3502670010494,2.0,1.0,phase_3,,,,,580.0,5.0,580.0,696.0,464.0,348.0,232.0,116.0,white,cross
0.0,1.0,0.5,0.0,7.0,5.0,2106.481336999422,2.0,1.0,phase_3,,,,,405.0,3.0,540.0,675.0,135.0,270.0,405.0,810.0,orange,diamond
0.0,6.0,1.0,1.0,7.0,3.0,1121.3539939999464,2.0,1.0,phase_3,,,,,692.0,4.0,519.0,346.0,692.0,1038.0,865.0,173.0,magenta,flipped triangle
0.0,5.0,0.5,1.0,7.0,4.0,1730.5083089995603,2.0,1.0,phase_3,,,,,768.0,4.0,192.0,384.0,576.0,768.0,960.0,1152.0,white,cross
0.0,1.0,0.5,0.0,7.0,3.0,2435.23037399791,2.0,1.0,phase_3,,,,,173.0,1.0,1038.0,692.0,173.0,519.0,865.0,346.0,orange,diamond
0.0,5.0,0.5,1.0,7.0,2.0,1631.5882580020116,2.0,1.0,phase_3,,,,,1038.0,6.0,692.0,1038.0,346.0,173.0,519.0,865.0,white,cross
0.0,6.0,1.0,1.0,7.0,5.0,1781.7698609978834,2.0,1.0,phase_3,,,,,675.0,5.0,405.0,540.0,810.0,135.0,675.0,270.0,magenta,flipped triangle
0.0,8.0,4.0,1.0,7.0,3.0,1487.4553549998382,2.0,1.0,phase_3,,,,,696.0,6.0,464.0,116.0,696.0,348.0,232.0,580.0,gray,triangle
0.0,5.0,0.5,1.0,7.0,5.0,1195.318486999895,2.0,1.0,phase_3,,,,,924.0,6.0,770.0,154.0,616.0,308.0,924.0,462.0,white,cross
0.0,7.0,2.0,1.0,7.0,2.0,1906.554232002236,2.0,1.0,phase_3,,,,,116.0,1.0,464.0,116.0,696.0,580.0,348.0,232.0,blue,square
0.0,3.0,2.0,0.0,7.0,1.0,2275.08862600007,2.0,1.0,phase_3,,,,,462.0,3.0,462.0,924.0,616.0,154.0,308.0,770.0,yellow,I
0.0,3.0,2.0,0.0,7.0,5.0,1997.8591929975664,2.0,1.0,phase_3,,,,,810.0,6.0,405.0,540.0,270.0,675.0,810.0,135.0,yellow,I
0.0,1.0,0.5,0.0,7.0,6.0,1968.1095849991837,2.0,1.0,phase_3,,,,,405.0,3.0,810.0,540.0,135.0,270.0,675.0,405.0,orange,diamond
0.0,7.0,2.0,1.0,7.0,4.0,1710.34421800141,3.0,1.0,phase_3,,,,,540.0,4.0,675.0,810.0,270.0,540.0,135.0,405.0,blue,square
0.0,4.0,4.0,0.0,7.0,1.0,1381.2883559985494,3.0,1.0,phase_3,,,,,405.0,3.0,405.0,270.0,135.0,675.0,810.0,540.0,cyan,hexagon
0.0,6.0,1.0,1.0,7.0,5.0,1357.7670030026638,3.0,1.0,phase_3,,,,,960.0,5.0,1152.0,768.0,192.0,384.0,960.0,576.0,magenta,flipped triangle
0.0,8.0,4.0,1.0,7.0,1.0,1554.0396830001555,3.0,1.0,phase_3,,,,,696.0,6.0,696.0,580.0,232.0,464.0,348.0,116.0,gray,triangle
0.0,3.0,2.0,0.0,7.0,5.0,2209.30373200099,3.0,1.0,phase_3,,,,,1152.0,6.0,576.0,960.0,192.0,384.0,1152.0,768.0,yellow,I
0.0,2.0,1.0,0.0,7.0,6.0,2072.35832799779,3.0,1.0,phase_3,,,,,696.0,6.0,580.0,464.0,348.0,116.0,232.0,696.0,green,circle
0.0,3.0,2.0,0.0,7.0,2.0,1540.5985100005637,3.0,1.0,phase_3,,,,,865.0,5.0,173.0,865.0,519.0,692.0,346.0,1038.0,yellow,I
0.0,3.0,2.0,0.0,7.0,1.0,1260.1151100025163,3.0,1.0,phase_3,,,,,768.0,4.0,768.0,576.0,192.0,384.0,960.0,1152.0,yellow,I
0.0,2.0,1.0,0.0,7.0,3.0,1159.762942999805,3.0,1.0,phase_3,,,,,348.0,3.0,464.0,116.0,348.0,580.0,696.0,232.0,green,circle
0.0,1.0,0.5,0.0,7.0,6.0,2349.1797410024446,3.0,1.0,phase_3,,,,,519.0,3.0,692.0,346.0,865.0,173.0,1038.0,519.0,orange,diamond
0.0,8.0,4.0,1.0,7.0,1.0,1362.6751610026986,3.0,1.0,phase_3,,,,,960.0,5.0,960.0,1152.0,576.0,192.0,384.0,768.0,gray,triangle
0.0,8.0,4.0,1.0,7.0,4.0,1745.030173999112,3.0,1.0,phase_3,,,,,616.0,4.0,308.0,924.0,462.0,616.0,154.0,770.0,gray,triangle
0.0,5.0,0.5,1.0,7.0,6.0,1434.1424660015036,3.0,1.0,phase_3,,,,,810.0,6.0,540.0,270.0,405.0,675.0,135.0,810.0,white,cross
0.0,1.0,0.5,0.0,7.0,2.0,1995.1190110004973,3.0,1.0,phase_3,,,,,696.0,6.0,580.0,696.0,464.0,116.0,232.0,348.0,orange,diamond
0.0,8.0,4.0,1.0,7.0,4.0,1130.429714001366,3.0,1.0,phase_3,,,,,270.0,2.0,405.0,810.0,675.0,270.0,135.0,540.0,gray,triangle
0.0,1.0,0.5,0.0,7.0,2.0,2506.225858000107,3.0,1.0,phase_3,,,,,770.0,5.0,462.0,770.0,924.0,616.0,308.0,154.0,orange,diamond
0.0,7.0,2.0,1.0,7.0,1.0,1481.2204860027125,3.0,1.0,phase_3,,,,,770.0,5.0,770.0,308.0,154.0,924.0,616.0,462.0,blue,square
0.0,3.0,2.0,0.0,7.0,1.0,2011.0570430006192,3.0,1.0,phase_3,,,,,348.0,3.0,348.0,232.0,696.0,580.0,116.0,464.0,yellow,I
0.0,4.0,4.0,0.0,7.0,2.0,2690.5288479974843,3.0,1.0,phase_3,,,,,696.0,6.0,232.0,696.0,464.0,116.0,580.0,348.0,cyan,hexagon
0.0,6.0,1.0,1.0,7.0,1.0,1179.1039370000362,3.0,1.0,phase_3,,,,,576.0,3.0,576.0,1152.0,384.0,960.0,768.0,192.0,magenta,flipped triangle
0.0,1.0,0.5,0.0,7.0,4.0,1383.2071519973397,4.0,1.0,phase_3,,,,,768.0,4.0,384.0,960.0,576.0,768.0,192.0,1152.0,orange,diamond
0.0,5.0,0.5,1.0,7.0,1.0,1888.6467990014355,4.0,1.0,phase_3,,,,,540.0,4.0,540.0,675.0,810.0,405.0,270.0,135.0,white,cross
0.0,2.0,1.0,0.0,7.0,1.0,1882.847693999793,4.0,1.0,phase_3,,,,,135.0,1.0,135.0,810.0,540.0,270.0,405.0,675.0,green,circle
0.0,7.0,2.0,1.0,7.0,1.0,1668.6435109986633,4.0,1.0,phase_3,,,,,519.0,3.0,519.0,173.0,1038.0,865.0,346.0,692.0,blue,square
0.0,8.0,4.0,1.0,7.0,6.0,2773.340407999058,4.0,1.0,phase_3,,,,,692.0,4.0,865.0,346.0,173.0,1038.0,519.0,692.0,gray,triangle
0.0,4.0,4.0,0.0,7.0,2.0,1544.0912259982724,4.0,1.0,phase_3,,,,,384.0,2.0,576.0,384.0,768.0,192.0,1152.0,960.0,cyan,hexagon
0.0,4.0,4.0,0.0,7.0,4.0,2026.3836289996107,4.0,1.0,phase_3,,,,,308.0,2.0,462.0,924.0,616.0,308.0,154.0,770.0,cyan,hexagon
0.0,1.0,0.5,0.0,7.0,3.0,2327.7976470017165,4.0,1.0,phase_3,,,,,464.0,4.0,116.0,232.0,464.0,696.0,580.0,348.0,orange,diamond
0.0,8.0,4.0,1.0,7.0,3.0,1176.527267001802,4.0,1.0,phase_3,,,,,675.0,5.0,405.0,540.0,675.0,135.0,810.0,270.0,gray,triangle
0.0,2.0,1.0,0.0,7.0,3.0,1290.8132080010546,4.0,1.0,phase_3,,,,,462.0,3.0,770.0,924.0,462.0,154.0,308.0,616.0,green,circle
0.0,2.0,1.0,0.0,7.0,3.0,1492.2608760025469,4.0,1.0,phase_3,,,,,384.0,2.0,960.0,1152.0,384.0,768.0,576.0,192.0,green,circle
0.0,8.0,4.0,1.0,7.0,6.0,1838.768567999068,4.0,1.0,phase_3,,,,,770.0,5.0,462.0,308.0,924.0,154.0,616.0,770.0,gray,triangle
0.0,3.0,2.0,0.0,7.0,4.0,2704.931273998227,4.0,1.0,phase_3,,,,,270.0,2.0,675.0,810.0,405.0,270.0,540.0,135.0,yellow,I
0.0,2.0,1.0,0.0,7.0,1.0,1928.8285840011667,4.0,1.0,phase_3,,,,,346.0,2.0,346.0,173.0,865.0,1038.0,519.0,692.0,green,circle
0.0,4.0,4.0,0.0,7.0,4.0,2285.843926998496,4.0,1.0,phase_3,,,,,405.0,3.0,675.0,540.0,810.0,405.0,135.0,270.0,cyan,hexagon
0.0,6.0,1.0,1.0,7.0,4.0,3291.064364999329,4.0,1.0,phase_3,,,,,696.0,6.0,116.0,580.0,232.0,696.0,464.0,348.0,magenta,flipped triangle
0.0,3.0,2.0,0.0,7.0,4.0,2398.539399000583,4.0,1.0,phase_3,,,,,692.0,4.0,519.0,173.0,865.0,692.0,346.0,1038.0,yellow,I
0.0,3.0,2.0,0.0,7.0,4.0,1387.5758350004617,4.0,1.0,phase_3,,,,,580.0,5.0,348.0,696.0,116.0,580.0,464.0,232.0,yellow,I
0.0,5.0,0.5,1.0,7.0,2.0,2489.0800609973667,4.0,1.0,phase_3,,,,,770.0,5.0,154.0,770.0,616.0,924.0,462.0,308.0,white,cross
0.0,4.0,4.0,0.0,7.0,1.0,1672.525157002383,4.0,1.0,phase_3,,,,,770.0,5.0,770.0,154.0,924.0,616.0,462.0,308.0,cyan,hexagon
