raw_reward_magnitude,stim_reward,stepwise_reward_magnitude,paired_with_stopping,stim_location,response,reaction_time,block,num_trial_presentations,which_phase,stop_signal_trial_type,left_SSD,right_SSD,accuracy,chosen_bidding_amount,chosen_bidding_level,possible_bid_1,possible_bid_2,possible_bid_3,possible_bid_4,possible_bid_5,possible_bid_6,color_text,shape_text
302.0,6.0,2.0,1.0,4.0,4.0,370.9837960000186,1.0,1.0,phase_1,,,,,,,,,,,,,cyan,hexagon
322.0,2.0,2.0,0.0,2.0,2.0,352.7391089999128,1.0,1.0,phase_1,,,,,,,,,,,,,green,square
1282.0,4.0,4.0,0.0,2.0,2.0,483.6116050000782,1.0,1.0,phase_1,,,,,,,,,,,,,magenta,triangle
164.0,1.0,1.0,0.0,3.0,3.0,361.8710289999853,1.0,1.0,phase_1,,,,,,,,,,,,,yellow,I
331.0,2.0,2.0,0.0,4.0,4.0,316.9682299999294,1.0,1.0,phase_1,,,,,,,,,,,,,green,square
0.0,5.0,0.0,1.0,1.0,1.0,333.7789120000707,1.0,1.0,phase_1,,,,,,,,,,,,,blue,diamond
0.0,2.0,0.0,0.0,2.0,2.0,389.8431919999439,1.0,1.0,phase_1,,,,,,,,,,,,,green,square
0.0,6.0,0.0,1.0,3.0,3.0,288.4244080000826,1.0,1.0,phase_1,,,,,,,,,,,,,cyan,hexagon
318.0,2.0,2.0,0.0,1.0,1.0,361.8587020000632,1.0,1.0,phase_1,,,,,,,,,,,,,green,square
156.0,1.0,1.0,0.0,4.0,4.0,333.8550979999581,1.0,1.0,phase_1,,,,,,,,,,,,,yellow,I
1285.0,4.0,4.0,0.0,1.0,1.0,324.7682300000178,1.0,1.0,phase_1,,,,,,,,,,,,,magenta,triangle
335.0,6.0,2.0,1.0,4.0,4.0,353.4151329999986,1.0,1.0,phase_1,,,,,,,,,,,,,cyan,hexagon
311.0,6.0,2.0,1.0,2.0,2.0,445.6244030000107,1.0,1.0,phase_1,,,,,,,,,,,,,cyan,hexagon
308.0,2.0,2.0,0.0,4.0,4.0,393.2487019999371,1.0,2.0,phase_1,,,,,,,,,,,,,green,square
643.0,7.0,3.0,1.0,1.0,1.0,409.1207579999718,1.0,1.0,phase_1,,,,,,,,,,,,,gray,cross
1276.0,8.0,4.0,1.0,3.0,3.0,307.087127999921,1.0,1.0,phase_1,,,,,,,,,,,,,orange,flipped triangle
1278.0,4.0,4.0,0.0,4.0,4.0,324.3384299998979,1.0,1.0,phase_1,,,,,,,,,,,,,magenta,triangle
647.0,3.0,3.0,0.0,2.0,2.0,346.2476730001071,1.0,1.0,phase_1,,,,,,,,,,,,,white,circle
177.0,5.0,1.0,1.0,4.0,4.0,343.2751330001338,1.0,1.0,phase_1,,,,,,,,,,,,,blue,diamond
1307.0,8.0,4.0,1.0,2.0,2.0,398.6947599998984,1.0,1.0,phase_1,,,,,,,,,,,,,orange,flipped triangle
1323.0,8.0,4.0,1.0,2.0,2.0,360.8966849999433,1.0,1.0,phase_1,,,,,,,,,,,,,orange,flipped triangle
0.0,7.0,0.0,1.0,1.0,1.0,390.8930220000002,1.0,1.0,phase_1,,,,,,,,,,,,,gray,cross
1315.0,4.0,4.0,0.0,2.0,2.0,352.9154220000237,1.0,1.0,phase_1,,,,,,,,,,,,,magenta,triangle
318.0,6.0,2.0,1.0,3.0,3.0,315.3338070001155,1.0,1.0,phase_1,,,,,,,,,,,,,cyan,hexagon
0.0,6.0,0.0,1.0,1.0,1.0,306.0363740000866,1.0,1.0,phase_1,,,,,,,,,,,,,cyan,hexagon
183.0,1.0,1.0,0.0,1.0,1.0,382.7893249999761,1.0,1.0,phase_1,,,,,,,,,,,,,yellow,I
150.0,1.0,1.0,0.0,2.0,2.0,353.3610540000609,1.0,1.0,phase_1,,,,,,,,,,,,,yellow,I
331.0,6.0,2.0,1.0,3.0,3.0,315.6667549999383,1.0,1.0,phase_1,,,,,,,,,,,,,cyan,hexagon
0.0,3.0,0.0,0.0,3.0,3.0,362.2844110000187,1.0,1.0,phase_1,,,,,,,,,,,,,white,circle
652.0,3.0,3.0,0.0,1.0,1.0,325.0875759999871,1.0,1.0,phase_1,,,,,,,,,,,,,white,circle
669.0,7.0,3.0,1.0,2.0,2.0,298.09987800013,1.0,1.0,phase_1,,,,,,,,,,,,,gray,cross
321.0,2.0,2.0,0.0,2.0,2.0,278.6710830000629,1.0,1.0,phase_1,,,,,,,,,,,,,green,square
0.0,5.0,0.0,1.0,4.0,4.0,370.9448290001091,1.0,1.0,phase_1,,,,,,,,,,,,,blue,diamond
654.0,3.0,3.0,0.0,3.0,3.0,325.3534769999078,1.0,1.0,phase_1,,,,,,,,,,,,,white,circle
1299.0,4.0,4.0,0.0,2.0,2.0,306.8962429999828,1.0,1.0,phase_1,,,,,,,,,,,,,magenta,triangle
0.0,1.0,0.0,0.0,3.0,3.0,343.9960589998918,1.0,1.0,phase_1,,,,,,,,,,,,,yellow,I
186.0,1.0,1.0,0.0,2.0,2.0,306.3870210000914,1.0,1.0,phase_1,,,,,,,,,,,,,yellow,I
172.0,1.0,1.0,0.0,4.0,4.0,408.5220950000803,1.0,1.0,phase_1,,,,,,,,,,,,,yellow,I
1288.0,8.0,4.0,1.0,3.0,3.0,397.9365320001307,1.0,1.0,phase_1,,,,,,,,,,,,,orange,flipped triangle
338.0,6.0,2.0,1.0,4.0,4.0,370.209837999937,1.0,1.0,phase_1,,,,,,,,,,,,,cyan,hexagon
311.0,2.0,2.0,0.0,3.0,3.0,306.6579660001025,1.0,1.0,phase_1,,,,,,,,,,,,,green,square
142.0,1.0,1.0,0.0,3.0,3.0,360.8090100001391,1.0,1.0,phase_1,,,,,,,,,,,,,yellow,I
142.0,5.0,1.0,1.0,4.0,4.0,398.9431009999862,1.0,1.0,phase_1,,,,,,,,,,,,,blue,diamond
0.0,3.0,0.0,0.0,2.0,2.0,342.9525770000055,1.0,1.0,phase_1,,,,,,,,,,,,,white,circle
1289.0,4.0,4.0,0.0,3.0,3.0,352.2633090001363,1.0,1.0,phase_1,,,,,,,,,,,,,magenta,triangle
1301.0,4.0,4.0,0.0,4.0,4.0,296.6597259999162,1.0,1.0,phase_1,,,,,,,,,,,,,magenta,triangle
645.0,7.0,3.0,1.0,4.0,4.0,376.8505380000988,1.0,1.0,phase_1,,,,,,,,,,,,,gray,cross
147.0,1.0,1.0,0.0,4.0,4.0,352.4405890000253,1.0,1.0,phase_1,,,,,,,,,,,,,yellow,I
0.0,5.0,0.0,1.0,1.0,1.0,426.96826099995627,1.0,1.0,phase_1,,,,,,,,,,,,,blue,diamond
183.0,5.0,1.0,1.0,1.0,1.0,436.6219290000117,1.0,1.0,phase_1,,,,,,,,,,,,,blue,diamond
151.0,5.0,1.0,1.0,4.0,4.0,370.9313070000917,1.0,1.0,phase_1,,,,,,,,,,,,,blue,diamond
1301.0,8.0,4.0,1.0,1.0,1.0,361.0906359999717,1.0,1.0,phase_1,,,,,,,,,,,,,orange,flipped triangle
345.0,2.0,2.0,0.0,2.0,2.0,362.9425419999279,1.0,1.0,phase_1,,,,,,,,,,,,,green,square
674.0,7.0,3.0,1.0,3.0,3.0,398.9325580000695,1.0,1.0,phase_1,,,,,,,,,,,,,gray,cross
633.0,7.0,3.0,1.0,2.0,2.0,473.2068499999968,1.0,1.0,phase_1,,,,,,,,,,,,,gray,cross
330.0,2.0,2.0,0.0,2.0,2.0,502.29988199998843,1.0,1.0,phase_1,,,,,,,,,,,,,green,square
658.0,7.0,3.0,1.0,3.0,3.0,316.096047999963,1.0,1.0,phase_1,,,,,,,,,,,,,gray,cross
1317.0,8.0,4.0,1.0,2.0,2.0,315.580915000055,1.0,1.0,phase_1,,,,,,,,,,,,,orange,flipped triangle
0.0,8.0,0.0,1.0,2.0,2.0,418.2900480000171,1.0,1.0,phase_1,,,,,,,,,,,,,orange,flipped triangle
172.0,1.0,1.0,0.0,3.0,3.0,417.4400890001379,1.0,1.0,phase_1,,,,,,,,,,,,,yellow,I
1290.0,4.0,4.0,0.0,2.0,2.0,418.9710420000665,1.0,1.0,phase_1,,,,,,,,,,,,,magenta,triangle
0.0,6.0,0.0,1.0,4.0,4.0,511.20899800002917,1.0,1.0,phase_1,,,,,,,,,,,,,cyan,hexagon
647.0,7.0,3.0,1.0,4.0,4.0,418.8686709999274,1.0,1.0,phase_1,,,,,,,,,,,,,gray,cross
162.0,5.0,1.0,1.0,2.0,2.0,343.2772840001235,1.0,1.0,phase_1,,,,,,,,,,,,,blue,diamond
659.0,3.0,3.0,0.0,3.0,3.0,389.314622000029,1.0,1.0,phase_1,,,,,,,,,,,,,white,circle
330.0,6.0,2.0,1.0,1.0,1.0,297.677947000011,1.0,1.0,phase_1,,,,,,,,,,,,,cyan,hexagon
329.0,6.0,2.0,1.0,2.0,2.0,428.2574270000623,1.0,1.0,phase_1,,,,,,,,,,,,,cyan,hexagon
0.0,4.0,0.0,0.0,2.0,2.0,371.3178299999526,1.0,1.0,phase_1,,,,,,,,,,,,,magenta,triangle
0.0,3.0,0.0,0.0,1.0,1.0,417.7691219999815,1.0,1.0,phase_1,,,,,,,,,,,,,white,circle
147.0,5.0,1.0,1.0,1.0,1.0,353.3481670001492,1.0,1.0,phase_1,,,,,,,,,,,,,blue,diamond
0.0,8.0,0.0,1.0,1.0,1.0,372.6406389998828,1.0,1.0,phase_1,,,,,,,,,,,,,orange,flipped triangle
0.0,8.0,0.0,1.0,1.0,1.0,334.9159809999946,1.0,1.0,phase_1,,,,,,,,,,,,,orange,flipped triangle
640.0,7.0,3.0,1.0,4.0,4.0,371.9202380000297,1.0,1.0,phase_1,,,,,,,,,,,,,gray,cross
0.0,8.0,0.0,1.0,4.0,4.0,425.9276929999487,1.0,1.0,phase_1,,,,,,,,,,,,,orange,flipped triangle
300.0,6.0,2.0,1.0,2.0,2.0,297.108610000123,1.0,1.0,phase_1,,,,,,,,,,,,,cyan,hexagon
631.0,7.0,3.0,1.0,1.0,1.0,511.05846400014343,1.0,1.0,phase_1,,,,,,,,,,,,,gray,cross
338.0,2.0,2.0,0.0,3.0,3.0,333.4834070001307,1.0,1.0,phase_1,,,,,,,,,,,,,green,square
655.0,7.0,3.0,1.0,4.0,4.0,361.2519959999645,1.0,1.0,phase_1,,,,,,,,,,,,,gray,cross
345.0,2.0,2.0,0.0,3.0,3.0,389.738866000016,1.0,1.0,phase_1,,,,,,,,,,,,,green,square
154.0,1.0,1.0,0.0,4.0,4.0,353.413115999956,1.0,1.0,phase_1,,,,,,,,,,,,,yellow,I
1293.0,8.0,4.0,1.0,3.0,3.0,296.4162800001304,1.0,1.0,phase_1,,,,,,,,,,,,,orange,flipped triangle
1293.0,4.0,4.0,0.0,1.0,1.0,399.3895749999865,1.0,1.0,phase_1,,,,,,,,,,,,,magenta,triangle
1314.0,8.0,4.0,1.0,4.0,4.0,370.7197399999131,1.0,1.0,phase_1,,,,,,,,,,,,,orange,flipped triangle
636.0,3.0,3.0,0.0,3.0,3.0,335.3763760001129,1.0,1.0,phase_1,,,,,,,,,,,,,white,circle
1307.0,8.0,4.0,1.0,1.0,1.0,437.4616149998473,1.0,1.0,phase_1,,,,,,,,,,,,,orange,flipped triangle
675.0,7.0,3.0,1.0,2.0,2.0,417.9222739999204,1.0,1.0,phase_1,,,,,,,,,,,,,gray,cross
652.0,7.0,3.0,1.0,3.0,3.0,362.9470609998861,1.0,1.0,phase_1,,,,,,,,,,,,,gray,cross
1294.0,8.0,4.0,1.0,1.0,1.0,466.0686329998498,1.0,1.0,phase_1,,,,,,,,,,,,,orange,flipped triangle
170.0,5.0,1.0,1.0,2.0,2.0,380.5705579998175,1.0,1.0,phase_1,,,,,,,,,,,,,blue,diamond
329.0,2.0,2.0,0.0,4.0,4.0,315.915202999804,1.0,1.0,phase_1,,,,,,,,,,,,,green,square
654.0,3.0,3.0,0.0,1.0,1.0,389.9303809998855,1.0,1.0,phase_1,,,,,,,,,,,,,white,circle
323.0,2.0,2.0,0.0,1.0,1.0,529.1869269999552,1.0,1.0,phase_1,,,,,,,,,,,,,green,square
1281.0,4.0,4.0,0.0,4.0,4.0,344.1229840000233,1.0,1.0,phase_1,,,,,,,,,,,,,magenta,triangle
182.0,1.0,1.0,0.0,1.0,1.0,483.15794500013,1.0,1.0,phase_1,,,,,,,,,,,,,yellow,I
668.0,7.0,3.0,1.0,2.0,2.0,381.1686590001955,1.0,1.0,phase_1,,,,,,,,,,,,,gray,cross
0.0,4.0,0.0,0.0,1.0,1.0,437.0050880002054,1.0,1.0,phase_1,,,,,,,,,,,,,magenta,triangle
643.0,3.0,3.0,0.0,2.0,2.0,389.8155530000622,1.0,1.0,phase_1,,,,,,,,,,,,,white,circle
658.0,7.0,3.0,1.0,2.0,2.0,400.23702999997107,1.0,1.0,phase_1,,,,,,,,,,,,,gray,cross
165.0,1.0,1.0,0.0,1.0,1.0,372.4637989998882,1.0,1.0,phase_1,,,,,,,,,,,,,yellow,I
649.0,7.0,3.0,1.0,1.0,1.0,362.3376209998241,1.0,1.0,phase_1,,,,,,,,,,,,,gray,cross
148.0,5.0,1.0,1.0,1.0,1.0,390.5797440002061,2.0,1.0,phase_1,,,,,,,,,,,,,blue,diamond
0.0,1.0,0.0,0.0,3.0,3.0,362.6322780000919,2.0,1.0,phase_1,,,,,,,,,,,,,yellow,I
1321.0,8.0,4.0,1.0,2.0,2.0,375.5438130001494,2.0,1.0,phase_1,,,,,,,,,,,,,orange,flipped triangle
0.0,4.0,0.0,0.0,4.0,4.0,306.9909099999677,2.0,1.0,phase_1,,,,,,,,,,,,,magenta,triangle
302.0,2.0,2.0,0.0,4.0,4.0,363.5396879999462,2.0,1.0,phase_1,,,,,,,,,,,,,green,square
181.0,5.0,1.0,1.0,2.0,2.0,350.9530389997053,2.0,1.0,phase_1,,,,,,,,,,,,,blue,diamond
308.0,6.0,2.0,1.0,3.0,3.0,317.2389139999723,2.0,1.0,phase_1,,,,,,,,,,,,,cyan,hexagon
345.0,6.0,2.0,1.0,3.0,3.0,371.4363939998293,2.0,1.0,phase_1,,,,,,,,,,,,,cyan,hexagon
643.0,7.0,3.0,1.0,3.0,3.0,317.0049320001453,2.0,1.0,phase_1,,,,,,,,,,,,,gray,cross
313.0,6.0,2.0,1.0,2.0,2.0,410.2592879999065,2.0,1.0,phase_1,,,,,,,,,,,,,cyan,hexagon
156.0,5.0,1.0,1.0,4.0,4.0,333.4220540000387,2.0,1.0,phase_1,,,,,,,,,,,,,blue,diamond
170.0,5.0,1.0,1.0,3.0,3.0,324.5630670003265,2.0,1.0,phase_1,,,,,,,,,,,,,blue,diamond
1315.0,4.0,4.0,0.0,3.0,3.0,329.1444230003435,2.0,1.0,phase_1,,,,,,,,,,,,,magenta,triangle
305.0,2.0,2.0,0.0,1.0,1.0,344.824324000001,2.0,1.0,phase_1,,,,,,,,,,,,,green,square
633.0,7.0,3.0,1.0,4.0,4.0,343.0190789999869,2.0,1.0,phase_1,,,,,,,,,,,,,gray,cross
0.0,7.0,0.0,1.0,2.0,2.0,408.7840649999634,2.0,1.0,phase_1,,,,,,,,,,,,,gray,cross
186.0,5.0,1.0,1.0,4.0,4.0,353.6789029999454,2.0,1.0,phase_1,,,,,,,,,,,,,blue,diamond
1308.0,4.0,4.0,0.0,1.0,1.0,426.6515769995749,2.0,1.0,phase_1,,,,,,,,,,,,,magenta,triangle
1323.0,4.0,4.0,0.0,3.0,3.0,334.5697519998794,2.0,1.0,phase_1,,,,,,,,,,,,,magenta,triangle
335.0,6.0,2.0,1.0,1.0,1.0,465.1487090000046,2.0,1.0,phase_1,,,,,,,,,,,,,cyan,hexagon
321.0,6.0,2.0,1.0,2.0,2.0,418.6037350000333,2.0,1.0,phase_1,,,,,,,,,,,,,cyan,hexagon
340.0,2.0,2.0,0.0,4.0,4.0,307.0123519996741,2.0,1.0,phase_1,,,,,,,,,,,,,green,square
650.0,7.0,3.0,1.0,2.0,2.0,373.6019650000344,2.0,1.0,phase_1,,,,,,,,,,,,,gray,cross
659.0,7.0,3.0,1.0,4.0,4.0,417.5886850002825,2.0,1.0,phase_1,,,,,,,,,,,,,gray,cross
151.0,1.0,1.0,0.0,1.0,1.0,381.1426749998645,2.0,1.0,phase_1,,,,,,,,,,,,,yellow,I
655.0,3.0,3.0,0.0,2.0,2.0,390.6454269999813,2.0,1.0,phase_1,,,,,,,,,,,,,white,circle
174.0,5.0,1.0,1.0,2.0,2.0,361.7691970002852,2.0,1.0,phase_1,,,,,,,,,,,,,blue,diamond
328.0,2.0,2.0,0.0,1.0,1.0,481.6817619998801,2.0,2.0,phase_1,,,,,,,,,,,,,green,square
0.0,5.0,0.0,1.0,1.0,1.0,370.6456120003167,2.0,1.0,phase_1,,,,,,,,,,,,,blue,diamond
1308.0,8.0,4.0,1.0,3.0,3.0,296.9167440001001,2.0,1.0,phase_1,,,,,,,,,,,,,orange,flipped triangle
670.0,3.0,3.0,0.0,4.0,4.0,407.7518649996818,2.0,1.0,phase_1,,,,,,,,,,,,,white,circle
0.0,1.0,0.0,0.0,3.0,3.0,365.6301110004278,2.0,1.0,phase_1,,,,,,,,,,,,,yellow,I
186.0,5.0,1.0,1.0,4.0,4.0,381.4423110002281,2.0,1.0,phase_1,,,,,,,,,,,,,blue,diamond
0.0,4.0,0.0,0.0,1.0,1.0,390.7954050000626,2.0,1.0,phase_1,,,,,,,,,,,,,magenta,triangle
639.0,7.0,3.0,1.0,4.0,4.0,326.330056000188,2.0,1.0,phase_1,,,,,,,,,,,,,gray,cross
345.0,2.0,2.0,0.0,4.0,4.0,381.9035069996062,2.0,1.0,phase_1,,,,,,,,,,,,,green,square
326.0,2.0,2.0,0.0,3.0,3.0,316.3348140001289,2.0,1.0,phase_1,,,,,,,,,,,,,green,square
178.0,1.0,1.0,0.0,4.0,4.0,352.0727590002934,2.0,1.0,phase_1,,,,,,,,,,,,,yellow,I
159.0,1.0,1.0,0.0,4.0,4.0,333.8819300001887,2.0,1.0,phase_1,,,,,,,,,,,,,yellow,I
0.0,2.0,0.0,0.0,4.0,4.0,371.7716940000173,2.0,1.0,phase_1,,,,,,,,,,,,,green,square
148.0,5.0,1.0,1.0,1.0,1.0,418.73052699975227,2.0,1.0,phase_1,,,,,,,,,,,,,blue,diamond
154.0,5.0,1.0,1.0,3.0,3.0,316.3246970002547,2.0,1.0,phase_1,,,,,,,,,,,,,blue,diamond
631.0,3.0,3.0,0.0,3.0,3.0,334.394943999996,2.0,1.0,phase_1,,,,,,,,,,,,,white,circle
0.0,2.0,0.0,0.0,2.0,2.0,334.6803139997973,2.0,1.0,phase_1,,,,,,,,,,,,,green,square
0.0,7.0,0.0,1.0,3.0,3.0,345.1914120000765,2.0,1.0,phase_1,,,,,,,,,,,,,gray,cross
634.0,3.0,3.0,0.0,1.0,1.0,354.7495610000624,2.0,1.0,phase_1,,,,,,,,,,,,,white,circle
137.0,1.0,1.0,0.0,1.0,1.0,383.9174800000364,2.0,1.0,phase_1,,,,,,,,,,,,,yellow,I
142.0,1.0,1.0,0.0,3.0,3.0,326.3437780001368,2.0,1.0,phase_1,,,,,,,,,,,,,yellow,I
142.0,5.0,1.0,1.0,4.0,4.0,344.0908779998608,2.0,1.0,phase_1,,,,,,,,,,,,,blue,diamond
0.0,4.0,0.0,0.0,3.0,3.0,352.6092419997439,2.0,1.0,phase_1,,,,,,,,,,,,,magenta,triangle
674.0,7.0,3.0,1.0,2.0,2.0,325.631422999777,2.0,2.0,phase_1,,,,,,,,,,,,,gray,cross
164.0,5.0,1.0,1.0,3.0,3.0,380.6171460000769,2.0,1.0,phase_1,,,,,,,,,,,,,blue,diamond
0.0,1.0,0.0,0.0,4.0,4.0,352.3382180001135,2.0,1.0,phase_1,,,,,,,,,,,,,yellow,I
1288.0,8.0,4.0,1.0,1.0,1.0,361.9698750003408,2.0,1.0,phase_1,,,,,,,,,,,,,orange,flipped triangle
176.0,5.0,1.0,1.0,2.0,2.0,509.19674600027065,2.0,1.0,phase_1,,,,,,,,,,,,,blue,diamond
0.0,6.0,0.0,1.0,1.0,1.0,371.145405000334,2.0,1.0,phase_1,,,,,,,,,,,,,cyan,hexagon
0.0,7.0,0.0,1.0,2.0,2.0,457.1323299996948,2.0,1.0,phase_1,,,,,,,,,,,,,gray,cross
1317.0,4.0,4.0,0.0,2.0,2.0,315.5869540000822,2.0,1.0,phase_1,,,,,,,,,,,,,magenta,triangle
0.0,8.0,0.0,1.0,2.0,2.0,305.8446630002436,2.0,1.0,phase_1,,,,,,,,,,,,,orange,flipped triangle
302.0,6.0,2.0,1.0,2.0,2.0,361.8590820001373,2.0,1.0,phase_1,,,,,,,,,,,,,cyan,hexagon
325.0,2.0,2.0,0.0,4.0,4.0,399.3109150001146,2.0,1.0,phase_1,,,,,,,,,,,,,green,square
673.0,7.0,3.0,1.0,3.0,3.0,379.6192960003282,2.0,1.0,phase_1,,,,,,,,,,,,,gray,cross
311.0,6.0,2.0,1.0,1.0,1.0,361.9149259998266,2.0,1.0,phase_1,,,,,,,,,,,,,cyan,hexagon
345.0,6.0,2.0,1.0,3.0,3.0,314.7679110002173,2.0,1.0,phase_1,,,,,,,,,,,,,cyan,hexagon
0.0,2.0,0.0,0.0,2.0,2.0,388.7227790000906,2.0,1.0,phase_1,,,,,,,,,,,,,green,square
1278.0,8.0,4.0,1.0,2.0,2.0,398.0554510003458,2.0,1.0,phase_1,,,,,,,,,,,,,orange,flipped triangle
0.0,7.0,0.0,1.0,2.0,2.0,360.5173820001255,2.0,1.0,phase_1,,,,,,,,,,,,,gray,cross
339.0,6.0,2.0,1.0,4.0,4.0,314.9724610002522,2.0,1.0,phase_1,,,,,,,,,,,,,cyan,hexagon
320.0,2.0,2.0,0.0,1.0,1.0,352.1743179999248,2.0,1.0,phase_1,,,,,,,,,,,,,green,square
1315.0,8.0,4.0,1.0,3.0,3.0,343.2880619998286,2.0,1.0,phase_1,,,,,,,,,,,,,orange,flipped triangle
143.0,5.0,1.0,1.0,3.0,3.0,380.8951000000888,2.0,1.0,phase_1,,,,,,,,,,,,,blue,diamond
669.0,3.0,3.0,0.0,4.0,4.0,409.1778419997354,2.0,1.0,phase_1,,,,,,,,,,,,,white,circle
647.0,3.0,3.0,0.0,3.0,3.0,455.6849929999771,2.0,1.0,phase_1,,,,,,,,,,,,,white,circle
636.0,7.0,3.0,1.0,1.0,1.0,380.4059999997662,2.0,1.0,phase_1,,,,,,,,,,,,,gray,cross
1315.0,8.0,4.0,1.0,3.0,3.0,287.4873259997912,2.0,1.0,phase_1,,,,,,,,,,,,,orange,flipped triangle
335.0,2.0,2.0,0.0,2.0,2.0,391.0920130001614,2.0,1.0,phase_1,,,,,,,,,,,,,green,square
1288.0,4.0,4.0,0.0,3.0,3.0,343.3565719997205,2.0,1.0,phase_1,,,,,,,,,,,,,magenta,triangle
0.0,4.0,0.0,0.0,1.0,1.0,454.9730500002624,2.0,1.0,phase_1,,,,,,,,,,,,,magenta,triangle
667.0,3.0,3.0,0.0,4.0,4.0,344.2296220000571,2.0,1.0,phase_1,,,,,,,,,,,,,white,circle
0.0,5.0,0.0,1.0,3.0,3.0,315.1194729998678,2.0,1.0,phase_1,,,,,,,,,,,,,blue,diamond
166.0,1.0,1.0,0.0,2.0,2.0,351.7762369997399,2.0,1.0,phase_1,,,,,,,,,,,,,yellow,I
0.0,2.0,0.0,0.0,2.0,2.0,379.5928519998597,2.0,1.0,phase_1,,,,,,,,,,,,,green,square
1307.0,4.0,4.0,0.0,2.0,2.0,352.250955999807,2.0,1.0,phase_1,,,,,,,,,,,,,magenta,triangle
633.0,3.0,3.0,0.0,3.0,3.0,573.4108270003162,2.0,1.0,phase_1,,,,,,,,,,,,,white,circle
1306.0,8.0,4.0,1.0,2.0,2.0,315.3185870000925,2.0,1.0,phase_1,,,,,,,,,,,,,orange,flipped triangle
345.0,6.0,2.0,1.0,3.0,3.0,361.0300919999645,2.0,1.0,phase_1,,,,,,,,,,,,,cyan,hexagon
159.0,5.0,1.0,1.0,1.0,1.0,324.2369249996955,2.0,1.0,phase_1,,,,,,,,,,,,,blue,diamond
0.0,3.0,0.0,0.0,1.0,1.0,426.5682149998611,2.0,1.0,phase_1,,,,,,,,,,,,,white,circle
0.0,4.0,0.0,0.0,2.0,2.0,401.6900540000279,2.0,1.0,phase_1,,,,,,,,,,,,,magenta,triangle
167.0,1.0,1.0,0.0,1.0,1.0,407.8790479998133,2.0,1.0,phase_1,,,,,,,,,,,,,yellow,I
167.0,5.0,1.0,1.0,1.0,1.0,360.7064809998519,2.0,1.0,phase_1,,,,,,,,,,,,,blue,diamond
139.0,5.0,1.0,1.0,2.0,2.0,416.8859830001565,2.0,1.0,phase_1,,,,,,,,,,,,,blue,diamond
1306.0,4.0,4.0,0.0,1.0,1.0,305.2212959996723,2.0,1.0,phase_1,,,,,,,,,,,,,magenta,triangle
308.0,2.0,2.0,0.0,4.0,4.0,371.0361479998028,2.0,1.0,phase_1,,,,,,,,,,,,,green,square
0.0,5.0,0.0,1.0,4.0,4.0,500.3223439998692,2.0,1.0,phase_1,,,,,,,,,,,,,blue,diamond
658.0,3.0,3.0,0.0,3.0,3.0,351.1423370000557,2.0,1.0,phase_1,,,,,,,,,,,,,white,circle
0.0,1.0,0.0,0.0,1.0,1.0,499.6896799998467,2.0,1.0,phase_1,,,,,,,,,,,,,yellow,I
662.0,7.0,3.0,1.0,1.0,1.0,492.809741000201,2.0,1.0,phase_1,,,,,,,,,,,,,gray,cross
176.0,1.0,1.0,0.0,1.0,1.0,408.0663800000366,2.0,1.0,phase_1,,,,,,,,,,,,,yellow,I
150.0,5.0,1.0,1.0,1.0,1.0,351.61480700026,2.0,1.0,phase_1,,,,,,,,,,,,,blue,diamond
174.0,1.0,1.0,0.0,2.0,2.0,371.1824669999259,3.0,1.0,phase_1,,,,,,,,,,,,,yellow,I
640.0,3.0,3.0,0.0,3.0,3.0,370.8291279999685,3.0,1.0,phase_1,,,,,,,,,,,,,white,circle
1289.0,8.0,4.0,1.0,4.0,4.0,380.0555940001686,3.0,1.0,phase_1,,,,,,,,,,,,,orange,flipped triangle
0.0,3.0,0.0,0.0,1.0,1.0,370.8428410000124,3.0,1.0,phase_1,,,,,,,,,,,,,white,circle
1288.0,4.0,4.0,0.0,3.0,3.0,287.7337879999686,3.0,1.0,phase_1,,,,,,,,,,,,,magenta,triangle
0.0,6.0,0.0,1.0,3.0,3.0,306.2908580000112,3.0,1.0,phase_1,,,,,,,,,,,,,cyan,hexagon
1280.0,8.0,4.0,1.0,3.0,3.0,305.1481150000654,3.0,1.0,phase_1,,,,,,,,,,,,,orange,flipped triangle
315.0,2.0,2.0,0.0,1.0,1.0,436.1698979996617,3.0,1.0,phase_1,,,,,,,,,,,,,green,square
325.0,6.0,2.0,1.0,3.0,3.0,259.131631999935,3.0,1.0,phase_1,,,,,,,,,,,,,cyan,hexagon
1307.0,4.0,4.0,0.0,1.0,1.0,380.3402600001391,3.0,1.0,phase_1,,,,,,,,,,,,,magenta,triangle
1281.0,8.0,4.0,1.0,4.0,4.0,305.6908010003099,3.0,1.0,phase_1,,,,,,,,,,,,,orange,flipped triangle
654.0,7.0,3.0,1.0,1.0,1.0,378.618558999733,3.0,1.0,phase_1,,,,,,,,,,,,,gray,cross
1297.0,8.0,4.0,1.0,2.0,2.0,351.3330159998986,3.0,1.0,phase_1,,,,,,,,,,,,,orange,flipped triangle
158.0,1.0,1.0,0.0,4.0,4.0,370.2981440001167,3.0,1.0,phase_1,,,,,,,,,,,,,yellow,I
1314.0,4.0,4.0,0.0,2.0,2.0,398.3245959998385,3.0,1.0,phase_1,,,,,,,,,,,,,magenta,triangle
1317.0,8.0,4.0,1.0,1.0,1.0,436.0937589999594,3.0,1.0,phase_1,,,,,,,,,,,,,orange,flipped triangle
311.0,2.0,2.0,0.0,3.0,3.0,343.5018969998964,3.0,1.0,phase_1,,,,,,,,,,,,,green,square
1302.0,4.0,4.0,0.0,4.0,4.0,389.4587750000937,3.0,1.0,phase_1,,,,,,,,,,,,,magenta,triangle
636.0,7.0,3.0,1.0,4.0,4.0,454.7259639998628,3.0,1.0,phase_1,,,,,,,,,,,,,gray,cross
0.0,2.0,0.0,0.0,1.0,1.0,419.9463909999394,3.0,1.0,phase_1,,,,,,,,,,,,,green,square
1284.0,4.0,4.0,0.0,4.0,4.0,380.0440360000721,3.0,1.0,phase_1,,,,,,,,,,,,,magenta,triangle
308.0,6.0,2.0,1.0,3.0,3.0,352.2470029997748,3.0,1.0,phase_1,,,,,,,,,,,,,cyan,hexagon
1282.0,8.0,4.0,1.0,3.0,3.0,389.1726379997635,3.0,1.0,phase_1,,,,,,,,,,,,,orange,flipped triangle
348.0,6.0,2.0,1.0,1.0,1.0,407.8693030000977,3.0,1.0,phase_1,,,,,,,,,,,,,cyan,hexagon
0.0,4.0,0.0,0.0,2.0,2.0,454.2742550002003,3.0,1.0,phase_1,,,,,,,,,,,,,magenta,triangle
1297.0,4.0,4.0,0.0,3.0,3.0,453.066734999993,3.0,1.0,phase_1,,,,,,,,,,,,,magenta,triangle
1301.0,4.0,4.0,0.0,1.0,1.0,445.600990999992,3.0,1.0,phase_1,,,,,,,,,,,,,magenta,triangle
642.0,7.0,3.0,1.0,2.0,2.0,535.6693929998073,3.0,1.0,phase_1,,,,,,,,,,,,,gray,cross
0.0,5.0,0.0,1.0,3.0,3.0,371.5232519998608,3.0,1.0,phase_1,,,,,,,,,,,,,blue,diamond
654.0,7.0,3.0,1.0,1.0,1.0,370.5572320000101,3.0,1.0,phase_1,,,,,,,,,,,,,gray,cross
167.0,1.0,1.0,0.0,2.0,2.0,575.1961790001587,3.0,1.0,phase_1,,,,,,,,,,,,,yellow,I
1294.0,4.0,4.0,0.0,4.0,4.0,434.7510890002013,3.0,1.0,phase_1,,,,,,,,,,,,,magenta,triangle
0.0,7.0,0.0,1.0,2.0,2.0,380.9582930002761,3.0,1.0,phase_1,,,,,,,,,,,,,gray,cross
335.0,2.0,2.0,0.0,2.0,2.0,352.1171390002564,3.0,1.0,phase_1,,,,,,,,,,,,,green,square
1280.0,4.0,4.0,0.0,1.0,1.0,407.5501870001972,3.0,1.0,phase_1,,,,,,,,,,,,,magenta,triangle
1305.0,8.0,4.0,1.0,1.0,1.0,362.2667540003021,3.0,1.0,phase_1,,,,,,,,,,,,,orange,flipped triangle
0.0,4.0,0.0,0.0,1.0,1.0,361.6738999999143,3.0,1.0,phase_1,,,,,,,,,,,,,magenta,triangle
1321.0,8.0,4.0,1.0,4.0,4.0,361.2918210001226,3.0,1.0,phase_1,,,,,,,,,,,,,orange,flipped triangle
0.0,2.0,0.0,0.0,4.0,4.0,379.4705760001307,3.0,1.0,phase_1,,,,,,,,,,,,,green,square
302.0,2.0,2.0,0.0,3.0,3.0,351.3260260001516,3.0,1.0,phase_1,,,,,,,,,,,,,green,square
670.0,7.0,3.0,1.0,1.0,1.0,370.3011540001171,3.0,1.0,phase_1,,,,,,,,,,,,,gray,cross
305.0,6.0,2.0,1.0,2.0,2.0,380.282569999963,3.0,1.0,phase_1,,,,,,,,,,,,,cyan,hexagon
162.0,1.0,1.0,0.0,4.0,4.0,315.4484059996321,3.0,1.0,phase_1,,,,,,,,,,,,,yellow,I
633.0,3.0,3.0,0.0,2.0,2.0,314.8034679998091,3.0,1.0,phase_1,,,,,,,,,,,,,white,circle
0.0,3.0,0.0,0.0,1.0,1.0,547.633298999699,3.0,2.0,phase_1,,,,,,,,,,,,,white,circle
0.0,5.0,0.0,1.0,2.0,2.0,417.4556819998543,3.0,1.0,phase_1,,,,,,,,,,,,,blue,diamond
643.0,3.0,3.0,0.0,1.0,1.0,360.4713730001094,3.0,1.0,phase_1,,,,,,,,,,,,,white,circle
0.0,6.0,0.0,1.0,4.0,4.0,407.2863430001234,3.0,1.0,phase_1,,,,,,,,,,,,,cyan,hexagon
1309.0,4.0,4.0,0.0,4.0,4.0,389.5978750001632,3.0,1.0,phase_1,,,,,,,,,,,,,magenta,triangle
340.0,6.0,2.0,1.0,1.0,1.0,370.5513189997873,3.0,1.0,phase_1,,,,,,,,,,,,,cyan,hexagon
328.0,6.0,2.0,1.0,4.0,4.0,286.4184489999388,3.0,1.0,phase_1,,,,,,,,,,,,,cyan,hexagon
0.0,8.0,0.0,1.0,4.0,4.0,361.9143599999006,3.0,1.0,phase_1,,,,,,,,,,,,,orange,flipped triangle
1280.0,4.0,4.0,0.0,3.0,3.0,352.4042030003329,3.0,1.0,phase_1,,,,,,,,,,,,,magenta,triangle
1317.0,4.0,4.0,0.0,1.0,1.0,371.0844850002104,3.0,1.0,phase_1,,,,,,,,,,,,,magenta,triangle
344.0,6.0,2.0,1.0,3.0,3.0,333.8422859997081,3.0,1.0,phase_1,,,,,,,,,,,,,cyan,hexagon
1278.0,8.0,4.0,1.0,4.0,4.0,306.2101340001391,3.0,1.0,phase_1,,,,,,,,,,,,,orange,flipped triangle
1315.0,8.0,4.0,1.0,1.0,1.0,399.326837999979,3.0,1.0,phase_1,,,,,,,,,,,,,orange,flipped triangle
662.0,3.0,3.0,0.0,4.0,4.0,407.6604639999459,3.0,1.0,phase_1,,,,,,,,,,,,,white,circle
341.0,6.0,2.0,1.0,4.0,4.0,360.46710099981277,3.0,1.0,phase_1,,,,,,,,,,,,,cyan,hexagon
1299.0,4.0,4.0,0.0,2.0,2.0,361.1670860000231,3.0,1.0,phase_1,,,,,,,,,,,,,magenta,triangle
342.0,2.0,2.0,0.0,4.0,4.0,362.365211999986,3.0,1.0,phase_1,,,,,,,,,,,,,green,square
322.0,6.0,2.0,1.0,2.0,2.0,416.6625590000876,3.0,1.0,phase_1,,,,,,,,,,,,,cyan,hexagon
313.0,2.0,2.0,0.0,1.0,1.0,453.4186109999609,3.0,1.0,phase_1,,,,,,,,,,,,,green,square
645.0,3.0,3.0,0.0,4.0,4.0,379.9175750000358,3.0,1.0,phase_1,,,,,,,,,,,,,white,circle
674.0,3.0,3.0,0.0,3.0,3.0,334.9212970001645,3.0,1.0,phase_1,,,,,,,,,,,,,white,circle
1311.0,4.0,4.0,0.0,4.0,4.0,370.4170020000674,3.0,1.0,phase_1,,,,,,,,,,,,,magenta,triangle
1305.0,4.0,4.0,0.0,4.0,4.0,444.7218160003103,3.0,1.0,phase_1,,,,,,,,,,,,,magenta,triangle
647.0,7.0,3.0,1.0,2.0,2.0,489.4632999998975,3.0,1.0,phase_1,,,,,,,,,,,,,gray,cross
0.0,7.0,0.0,1.0,3.0,3.0,454.6818859998893,3.0,1.0,phase_1,,,,,,,,,,,,,gray,cross
0.0,1.0,0.0,0.0,1.0,1.0,502.54249900035575,3.0,1.0,phase_1,,,,,,,,,,,,,yellow,I
348.0,2.0,2.0,0.0,1.0,1.0,500.1848809997682,3.0,1.0,phase_1,,,,,,,,,,,,,green,square
0.0,4.0,0.0,0.0,1.0,1.0,584.0551139999661,3.0,1.0,phase_1,,,,,,,,,,,,,magenta,triangle
1284.0,8.0,4.0,1.0,2.0,2.0,518.3743980001054,3.0,1.0,phase_1,,,,,,,,,,,,,orange,flipped triangle
649.0,3.0,3.0,0.0,4.0,4.0,435.121443999833,3.0,1.0,phase_1,,,,,,,,,,,,,white,circle
674.0,3.0,3.0,0.0,2.0,2.0,315.0715839997247,3.0,1.0,phase_1,,,,,,,,,,,,,white,circle
0.0,6.0,0.0,1.0,4.0,4.0,369.7007519999715,3.0,1.0,phase_1,,,,,,,,,,,,,cyan,hexagon
0.0,8.0,0.0,1.0,2.0,2.0,453.2885359999454,3.0,1.0,phase_1,,,,,,,,,,,,,orange,flipped triangle
156.0,5.0,1.0,1.0,2.0,2.0,324.0183660000184,3.0,1.0,phase_1,,,,,,,,,,,,,blue,diamond
156.0,1.0,1.0,0.0,3.0,3.0,536.1002149998058,3.0,1.0,phase_1,,,,,,,,,,,,,yellow,I
0.0,2.0,0.0,0.0,2.0,2.0,333.071672999722,3.0,1.0,phase_1,,,,,,,,,,,,,green,square
1278.0,4.0,4.0,0.0,2.0,2.0,398.5519729999396,3.0,1.0,phase_1,,,,,,,,,,,,,magenta,triangle
167.0,5.0,1.0,1.0,3.0,3.0,352.8814070000408,3.0,1.0,phase_1,,,,,,,,,,,,,blue,diamond
669.0,3.0,3.0,0.0,4.0,4.0,361.4906579996386,3.0,1.0,phase_1,,,,,,,,,,,,,white,circle
0.0,1.0,0.0,0.0,1.0,1.0,417.7665490001345,3.0,1.0,phase_1,,,,,,,,,,,,,yellow,I
0.0,6.0,0.0,1.0,3.0,3.0,333.9078379999591,3.0,1.0,phase_1,,,,,,,,,,,,,cyan,hexagon
634.0,7.0,3.0,1.0,3.0,3.0,343.8505250001071,3.0,1.0,phase_1,,,,,,,,,,,,,gray,cross
636.0,7.0,3.0,1.0,3.0,3.0,296.5309699998215,3.0,1.0,phase_1,,,,,,,,,,,,,gray,cross
0.0,1.0,0.0,0.0,1.0,1.0,417.1115730000565,3.0,1.0,phase_1,,,,,,,,,,,,,yellow,I
172.0,5.0,1.0,1.0,4.0,4.0,334.3505470002128,3.0,1.0,phase_1,,,,,,,,,,,,,blue,diamond
629.0,7.0,3.0,1.0,3.0,3.0,307.4614880001718,3.0,1.0,phase_1,,,,,,,,,,,,,gray,cross
341.0,2.0,2.0,0.0,1.0,1.0,306.0743920000277,3.0,1.0,phase_1,,,,,,,,,,,,,green,square
1301.0,8.0,4.0,1.0,3.0,3.0,278.0232899999646,3.0,1.0,phase_1,,,,,,,,,,,,,orange,flipped triangle
318.0,2.0,2.0,0.0,2.0,2.0,406.5582079997512,3.0,1.0,phase_1,,,,,,,,,,,,,green,square
170.0,1.0,1.0,0.0,2.0,2.0,370.1881520000825,3.0,1.0,phase_1,,,,,,,,,,,,,yellow,I
0.0,7.0,0.0,1.0,3.0,3.0,342.549604999931,3.0,1.0,phase_1,,,,,,,,,,,,,gray,cross
0.0,3.0,0.0,0.0,1.0,1.0,342.4184929999683,3.0,1.0,phase_1,,,,,,,,,,,,,white,circle
0.0,7.0,0.0,1.0,4.0,4.0,473.3471549998285,3.0,1.0,phase_1,,,,,,,,,,,,,gray,cross
1309.0,8.0,4.0,1.0,4.0,4.0,397.531742999945,3.0,1.0,phase_1,,,,,,,,,,,,,orange,flipped triangle
159.0,5.0,1.0,1.0,3.0,3.0,306.3068269998439,3.0,1.0,phase_1,,,,,,,,,,,,,blue,diamond
1276.0,4.0,4.0,0.0,1.0,1.0,323.5843980000936,3.0,1.0,phase_1,,,,,,,,,,,,,magenta,triangle
1299.0,8.0,4.0,1.0,4.0,4.0,379.9695199995767,4.0,1.0,phase_1,,,,,,,,,,,,,orange,flipped triangle
342.0,6.0,2.0,1.0,1.0,1.0,371.2732589997358,4.0,1.0,phase_1,,,,,,,,,,,,,cyan,hexagon
178.0,5.0,1.0,1.0,4.0,4.0,343.0003720000059,4.0,1.0,phase_1,,,,,,,,,,,,,blue,diamond
143.0,1.0,1.0,0.0,2.0,2.0,361.3336690000324,4.0,1.0,phase_1,,,,,,,,,,,,,yellow,I
148.0,1.0,1.0,0.0,4.0,4.0,324.6371679997537,4.0,1.0,phase_1,,,,,,,,,,,,,yellow,I
639.0,3.0,3.0,0.0,3.0,3.0,334.1505160001361,4.0,1.0,phase_1,,,,,,,,,,,,,white,circle
139.0,1.0,1.0,0.0,2.0,2.0,351.697225999942,4.0,1.0,phase_1,,,,,,,,,,,,,yellow,I
328.0,2.0,2.0,0.0,2.0,2.0,426.1508759996104,4.0,1.0,phase_1,,,,,,,,,,,,,green,square
675.0,3.0,3.0,0.0,2.0,2.0,416.8897859999561,4.0,1.0,phase_1,,,,,,,,,,,,,white,circle
659.0,7.0,3.0,1.0,3.0,3.0,333.2607570000618,4.0,1.0,phase_1,,,,,,,,,,,,,gray,cross
165.0,1.0,1.0,0.0,2.0,2.0,389.3819199997779,4.0,1.0,phase_1,,,,,,,,,,,,,yellow,I
342.0,2.0,2.0,0.0,4.0,4.0,343.7480120001055,4.0,1.0,phase_1,,,,,,,,,,,,,green,square
0.0,8.0,0.0,1.0,2.0,2.0,334.4067500001983,4.0,1.0,phase_1,,,,,,,,,,,,,orange,flipped triangle
322.0,6.0,2.0,1.0,1.0,1.0,353.2491410001057,4.0,1.0,phase_1,,,,,,,,,,,,,cyan,hexagon
308.0,2.0,2.0,0.0,3.0,3.0,287.4653300000318,4.0,1.0,phase_1,,,,,,,,,,,,,green,square
320.0,6.0,2.0,1.0,1.0,1.0,426.6340459998901,4.0,1.0,phase_1,,,,,,,,,,,,,cyan,hexagon
0.0,8.0,0.0,1.0,3.0,3.0,390.7300760001817,4.0,1.0,phase_1,,,,,,,,,,,,,orange,flipped triangle
1310.0,8.0,4.0,1.0,1.0,1.0,371.8087690003813,4.0,1.0,phase_1,,,,,,,,,,,,,orange,flipped triangle
1318.0,8.0,4.0,1.0,4.0,4.0,370.0421079997795,4.0,1.0,phase_1,,,,,,,,,,,,,orange,flipped triangle
154.0,1.0,1.0,0.0,1.0,1.0,361.3881709998168,4.0,1.0,phase_1,,,,,,,,,,,,,yellow,I
339.0,2.0,2.0,0.0,1.0,1.0,464.073062999887,4.0,1.0,phase_1,,,,,,,,,,,,,green,square
158.0,5.0,1.0,1.0,3.0,3.0,612.7841029997398,4.0,1.0,phase_1,,,,,,,,,,,,,blue,diamond
1288.0,4.0,4.0,0.0,3.0,3.0,399.4302649998644,4.0,1.0,phase_1,,,,,,,,,,,,,magenta,triangle
186.0,1.0,1.0,0.0,3.0,3.0,333.7920560002203,4.0,1.0,phase_1,,,,,,,,,,,,,yellow,I
0.0,3.0,0.0,0.0,3.0,3.0,306.8361850000656,4.0,1.0,phase_1,,,,,,,,,,,,,white,circle
673.0,3.0,3.0,0.0,4.0,4.0,334.2845570000463,4.0,1.0,phase_1,,,,,,,,,,,,,white,circle
0.0,3.0,0.0,0.0,3.0,3.0,325.6396360002327,4.0,1.0,phase_1,,,,,,,,,,,,,white,circle
344.0,2.0,2.0,0.0,3.0,3.0,297.8904049996345,4.0,1.0,phase_1,,,,,,,,,,,,,green,square
328.0,6.0,2.0,1.0,2.0,2.0,484.8684890002914,4.0,1.0,phase_1,,,,,,,,,,,,,cyan,hexagon
667.0,7.0,3.0,1.0,3.0,3.0,362.0519890000651,4.0,1.0,phase_1,,,,,,,,,,,,,gray,cross
0.0,6.0,0.0,1.0,2.0,2.0,333.9430890000585,4.0,1.0,phase_1,,,,,,,,,,,,,cyan,hexagon
627.0,3.0,3.0,0.0,4.0,4.0,324.8040970001966,4.0,1.0,phase_1,,,,,,,,,,,,,white,circle
0.0,3.0,0.0,0.0,4.0,4.0,390.3500649998932,4.0,1.0,phase_1,,,,,,,,,,,,,white,circle
323.0,6.0,2.0,1.0,4.0,4.0,324.7114719997626,4.0,1.0,phase_1,,,,,,,,,,,,,cyan,hexagon
629.0,3.0,3.0,0.0,2.0,2.0,592.5348410000879,4.0,1.0,phase_1,,,,,,,,,,,,,white,circle
322.0,2.0,2.0,0.0,3.0,3.0,388.9696739997816,4.0,1.0,phase_1,,,,,,,,,,,,,green,square
165.0,5.0,1.0,1.0,3.0,3.0,315.0846059998002,4.0,1.0,phase_1,,,,,,,,,,,,,blue,diamond
645.0,3.0,3.0,0.0,1.0,1.0,371.7425049999292,4.0,1.0,phase_1,,,,,,,,,,,,,white,circle
158.0,1.0,1.0,0.0,4.0,4.0,426.3297010002134,4.0,1.0,phase_1,,,,,,,,,,,,,yellow,I
322.0,2.0,2.0,0.0,3.0,3.0,297.4892870001895,4.0,1.0,phase_1,,,,,,,,,,,,,green,square
1311.0,8.0,4.0,1.0,1.0,1.0,464.334976000373,4.0,1.0,phase_1,,,,,,,,,,,,,orange,flipped triangle
159.0,1.0,1.0,0.0,3.0,3.0,333.5086179999962,4.0,1.0,phase_1,,,,,,,,,,,,,yellow,I
668.0,3.0,3.0,0.0,1.0,1.0,352.4429829999462,4.0,1.0,phase_1,,,,,,,,,,,,,white,circle
158.0,5.0,1.0,1.0,2.0,2.0,388.9591470001505,4.0,1.0,phase_1,,,,,,,,,,,,,blue,diamond
137.0,5.0,1.0,1.0,3.0,3.0,297.8210129999752,4.0,1.0,phase_1,,,,,,,,,,,,,blue,diamond
627.0,7.0,3.0,1.0,2.0,2.0,381.4041149998957,4.0,1.0,phase_1,,,,,,,,,,,,,gray,cross
642.0,3.0,3.0,0.0,1.0,1.0,399.8523299997032,4.0,1.0,phase_1,,,,,,,,,,,,,white,circle
143.0,1.0,1.0,0.0,3.0,3.0,334.1796400000021,4.0,1.0,phase_1,,,,,,,,,,,,,yellow,I
0.0,8.0,0.0,1.0,1.0,1.0,444.3034239998269,4.0,1.0,phase_1,,,,,,,,,,,,,orange,flipped triangle
342.0,6.0,2.0,1.0,1.0,1.0,390.1901700000962,4.0,1.0,phase_1,,,,,,,,,,,,,cyan,hexagon
143.0,5.0,1.0,1.0,2.0,2.0,333.960458999627,4.0,1.0,phase_1,,,,,,,,,,,,,blue,diamond
326.0,6.0,2.0,1.0,2.0,2.0,343.3329730000878,4.0,1.0,phase_1,,,,,,,,,,,,,cyan,hexagon
0.0,2.0,0.0,0.0,3.0,3.0,370.9475499999826,4.0,1.0,phase_1,,,,,,,,,,,,,green,square
315.0,6.0,2.0,1.0,4.0,4.0,389.5291889998589,4.0,1.0,phase_1,,,,,,,,,,,,,cyan,hexagon
1315.0,4.0,4.0,0.0,2.0,2.0,315.3386680000949,4.0,1.0,phase_1,,,,,,,,,,,,,magenta,triangle
1290.0,8.0,4.0,1.0,4.0,4.0,519.279534999896,4.0,1.0,phase_1,,,,,,,,,,,,,orange,flipped triangle
322.0,6.0,2.0,1.0,1.0,1.0,399.7877140000128,4.0,1.0,phase_1,,,,,,,,,,,,,cyan,hexagon
636.0,3.0,3.0,0.0,4.0,4.0,454.6063429997957,4.0,2.0,phase_1,,,,,,,,,,,,,white,circle
1321.0,4.0,4.0,0.0,3.0,3.0,326.8718710000939,4.0,1.0,phase_1,,,,,,,,,,,,,magenta,triangle
172.0,5.0,1.0,1.0,1.0,1.0,381.0159859999658,4.0,1.0,phase_1,,,,,,,,,,,,,blue,diamond
170.0,1.0,1.0,0.0,3.0,3.0,325.851108000279,4.0,1.0,phase_1,,,,,,,,,,,,,yellow,I
166.0,5.0,1.0,1.0,3.0,3.0,362.5153000002683,4.0,1.0,phase_1,,,,,,,,,,,,,blue,diamond
165.0,5.0,1.0,1.0,1.0,1.0,390.1428819999637,4.0,1.0,phase_1,,,,,,,,,,,,,blue,diamond
182.0,5.0,1.0,1.0,2.0,2.0,352.6920999997855,4.0,1.0,phase_1,,,,,,,,,,,,,blue,diamond
182.0,5.0,1.0,1.0,4.0,4.0,380.6545849997746,4.0,1.0,phase_1,,,,,,,,,,,,,blue,diamond
0.0,6.0,0.0,1.0,4.0,4.0,352.4919750002482,4.0,1.0,phase_1,,,,,,,,,,,,,cyan,hexagon
650.0,3.0,3.0,0.0,1.0,1.0,399.7261069998785,4.0,1.0,phase_1,,,,,,,,,,,,,white,circle
1321.0,4.0,4.0,0.0,1.0,1.0,418.2979209999757,4.0,1.0,phase_1,,,,,,,,,,,,,magenta,triangle
654.0,3.0,3.0,0.0,1.0,1.0,510.72204799993415,4.0,1.0,phase_1,,,,,,,,,,,,,white,circle
1318.0,4.0,4.0,0.0,3.0,3.0,389.9592440002379,4.0,1.0,phase_1,,,,,,,,,,,,,magenta,triangle
308.0,6.0,2.0,1.0,4.0,4.0,493.1093380000675,4.0,2.0,phase_1,,,,,,,,,,,,,cyan,hexagon
318.0,6.0,2.0,1.0,3.0,3.0,381.0343889999785,4.0,1.0,phase_1,,,,,,,,,,,,,cyan,hexagon
629.0,3.0,3.0,0.0,2.0,2.0,417.4776300001213,4.0,1.0,phase_1,,,,,,,,,,,,,white,circle
316.0,2.0,2.0,0.0,2.0,2.0,417.6049669999884,4.0,1.0,phase_1,,,,,,,,,,,,,green,square
658.0,3.0,3.0,0.0,2.0,2.0,408.3603419999235,4.0,1.0,phase_1,,,,,,,,,,,,,white,circle
154.0,5.0,1.0,1.0,1.0,1.0,575.1435040001525,4.0,1.0,phase_1,,,,,,,,,,,,,blue,diamond
0.0,5.0,0.0,1.0,4.0,4.0,482.0636849999573,4.0,1.0,phase_1,,,,,,,,,,,,,blue,diamond
181.0,1.0,1.0,0.0,3.0,3.0,370.0689560000683,4.0,1.0,phase_1,,,,,,,,,,,,,yellow,I
0.0,2.0,0.0,0.0,1.0,1.0,426.6916400001719,4.0,1.0,phase_1,,,,,,,,,,,,,green,square
645.0,7.0,3.0,1.0,4.0,4.0,398.2142009999734,4.0,1.0,phase_1,,,,,,,,,,,,,gray,cross
629.0,7.0,3.0,1.0,1.0,1.0,454.9453250001534,4.0,1.0,phase_1,,,,,,,,,,,,,gray,cross
1285.0,8.0,4.0,1.0,2.0,2.0,380.9772669997073,4.0,1.0,phase_1,,,,,,,,,,,,,orange,flipped triangle
300.0,2.0,2.0,0.0,2.0,2.0,435.7823840000492,4.0,1.0,phase_1,,,,,,,,,,,,,green,square
0.0,1.0,0.0,0.0,1.0,1.0,425.8376570001019,4.0,1.0,phase_1,,,,,,,,,,,,,yellow,I
1280.0,8.0,4.0,1.0,1.0,1.0,444.5737149999331,4.0,1.0,phase_1,,,,,,,,,,,,,orange,flipped triangle
1310.0,4.0,4.0,0.0,4.0,4.0,399.3002890001662,4.0,1.0,phase_1,,,,,,,,,,,,,magenta,triangle
1288.0,8.0,4.0,1.0,2.0,2.0,314.7382960000868,4.0,1.0,phase_1,,,,,,,,,,,,,orange,flipped triangle
182.0,1.0,1.0,0.0,1.0,1.0,334.1387639998174,4.0,1.0,phase_1,,,,,,,,,,,,,yellow,I
659.0,3.0,3.0,0.0,1.0,1.0,444.2927139998573,4.0,1.0,phase_1,,,,,,,,,,,,,white,circle
1299.0,8.0,4.0,1.0,3.0,3.0,397.5729089997912,4.0,1.0,phase_1,,,,,,,,,,,,,orange,flipped triangle
316.0,6.0,2.0,1.0,4.0,4.0,379.7607650003556,4.0,1.0,phase_1,,,,,,,,,,,,,cyan,hexagon
0.0,1.0,0.0,0.0,4.0,4.0,399.4579240002167,4.0,1.0,phase_1,,,,,,,,,,,,,yellow,I
0.0,7.0,0.0,1.0,1.0,1.0,342.1009099997718,4.0,1.0,phase_1,,,,,,,,,,,,,gray,cross
636.0,3.0,3.0,0.0,2.0,2.0,342.5385410000672,4.0,1.0,phase_1,,,,,,,,,,,,,white,circle
1302.0,8.0,4.0,1.0,4.0,4.0,408.1840579997333,4.0,1.0,phase_1,,,,,,,,,,,,,orange,flipped triangle
148.0,1.0,1.0,0.0,1.0,1.0,305.2376589998857,4.0,1.0,phase_1,,,,,,,,,,,,,yellow,I
0.0,5.0,0.0,1.0,3.0,3.0,449.325797000256,4.0,1.0,phase_1,,,,,,,,,,,,,blue,diamond
669.0,7.0,3.0,1.0,4.0,4.0,428.353548999894,4.0,1.0,phase_1,,,,,,,,,,,,,gray,cross
654.0,7.0,3.0,1.0,1.0,1.0,362.1036079998703,4.0,1.0,phase_1,,,,,,,,,,,,,gray,cross
177.0,1.0,1.0,0.0,2.0,2.0,407.6427059999332,4.0,1.0,phase_1,,,,,,,,,,,,,yellow,I
0.0,1.0,1.0,0.0,5.0,5.0,426.8133109999326,1.0,1.0,phase_2,go,250.0,250.0,1.0,,,,,,,,,yellow,I
0.0,1.0,1.0,0.0,6.0,6.0,724.181907000002,1.0,1.0,phase_2,go,250.0,250.0,1.0,,,,,,,,,yellow,I
0.0,5.0,1.0,1.0,6.0,6.0,371.3991999998143,1.0,1.0,phase_2,go,250.0,250.0,1.0,,,,,,,,,blue,diamond
0.0,6.0,2.0,1.0,5.0,5.0,759.6736209998198,1.0,1.0,phase_2,stop,250.0,250.0,3.0,,,,,,,,,cyan,hexagon
0.0,4.0,4.0,0.0,6.0,6.0,1039.5425140000043,1.0,1.0,phase_2,go,200.0,250.0,1.0,,,,,,,,,magenta,triangle
0.0,7.0,3.0,1.0,5.0,0.0,0.0,1.0,1.0,phase_2,stop,200.0,250.0,4.0,,,,,,,,,gray,cross
0.0,8.0,4.0,1.0,6.0,0.0,0.0,1.0,1.0,phase_2,stop,250.0,250.0,4.0,,,,,,,,,orange,flipped triangle
0.0,7.0,3.0,1.0,6.0,6.0,839.1368870002225,1.0,1.0,phase_2,go,250.0,300.0,1.0,,,,,,,,,gray,cross
0.0,4.0,4.0,0.0,6.0,6.0,1187.3113900001044,1.0,1.0,phase_2,go,250.0,300.0,1.0,,,,,,,,,magenta,triangle
0.0,3.0,3.0,0.0,6.0,6.0,766.1781409997275,1.0,1.0,phase_2,go,250.0,300.0,1.0,,,,,,,,,white,circle
0.0,3.0,3.0,0.0,6.0,6.0,383.0192870000246,1.0,1.0,phase_2,go,250.0,300.0,1.0,,,,,,,,,white,circle
0.0,7.0,3.0,1.0,5.0,0.0,0.0,1.0,1.0,phase_2,stop,250.0,300.0,4.0,,,,,,,,,gray,cross
0.0,2.0,2.0,0.0,5.0,5.0,998.4429080000154,1.0,1.0,phase_2,go,300.0,300.0,1.0,,,,,,,,,green,square
0.0,3.0,3.0,0.0,5.0,5.0,926.90043399989,1.0,1.0,phase_2,go,300.0,300.0,1.0,,,,,,,,,white,circle
0.0,7.0,3.0,1.0,6.0,0.0,0.0,1.0,1.0,phase_2,stop,300.0,300.0,4.0,,,,,,,,,gray,cross
0.0,3.0,3.0,0.0,5.0,5.0,784.2960339999081,1.0,1.0,phase_2,go,300.0,350.0,1.0,,,,,,,,,white,circle
0.0,2.0,2.0,0.0,5.0,5.0,811.2541270002112,1.0,1.0,phase_2,go,300.0,350.0,1.0,,,,,,,,,green,square
0.0,4.0,4.0,0.0,5.0,5.0,738.358361000337,1.0,1.0,phase_2,go,300.0,350.0,1.0,,,,,,,,,magenta,triangle
0.0,2.0,2.0,0.0,6.0,6.0,914.6318309999516,1.0,1.0,phase_2,go,300.0,350.0,1.0,,,,,,,,,green,square
0.0,2.0,2.0,0.0,6.0,6.0,1025.6393979998393,1.0,1.0,phase_2,go,300.0,350.0,1.0,,,,,,,,,green,square
0.0,7.0,3.0,1.0,5.0,0.0,0.0,1.0,1.0,phase_2,stop,300.0,350.0,4.0,,,,,,,,,gray,cross
0.0,8.0,4.0,1.0,6.0,6.0,674.5431630001804,1.0,1.0,phase_2,go,350.0,350.0,1.0,,,,,,,,,orange,flipped triangle
0.0,3.0,3.0,0.0,5.0,5.0,1014.5151249998889,1.0,1.0,phase_2,go,350.0,350.0,1.0,,,,,,,,,white,circle
0.0,2.0,2.0,0.0,6.0,6.0,889.3533949999437,1.0,1.0,phase_2,go,350.0,350.0,1.0,,,,,,,,,green,square
0.0,3.0,3.0,0.0,5.0,5.0,820.3017770001679,1.0,1.0,phase_2,go,350.0,350.0,1.0,,,,,,,,,white,circle
0.0,7.0,3.0,1.0,5.0,0.0,0.0,1.0,1.0,phase_2,stop,350.0,350.0,4.0,,,,,,,,,gray,cross
0.0,6.0,2.0,1.0,6.0,0.0,0.0,1.0,1.0,phase_2,stop,400.0,350.0,4.0,,,,,,,,,cyan,hexagon
0.0,1.0,1.0,0.0,5.0,5.0,711.9042779995652,1.0,1.0,phase_2,go,400.0,400.0,1.0,,,,,,,,,yellow,I
0.0,4.0,4.0,0.0,6.0,6.0,894.3908380001631,1.0,1.0,phase_2,go,400.0,400.0,1.0,,,,,,,,,magenta,triangle
0.0,1.0,1.0,0.0,6.0,6.0,522.0964710001681,1.0,1.0,phase_2,go,400.0,400.0,1.0,,,,,,,,,yellow,I
0.0,3.0,3.0,0.0,6.0,6.0,505.30120400026135,1.0,1.0,phase_2,go,400.0,400.0,1.0,,,,,,,,,white,circle
0.0,5.0,1.0,1.0,5.0,0.0,0.0,1.0,1.0,phase_2,stop,400.0,400.0,4.0,,,,,,,,,blue,diamond
0.0,3.0,3.0,0.0,6.0,6.0,606.6450329999498,1.0,1.0,phase_2,go,450.0,400.0,1.0,,,,,,,,,white,circle
0.0,3.0,3.0,0.0,6.0,6.0,933.2018000000062,1.0,1.0,phase_2,go,450.0,400.0,1.0,,,,,,,,,white,circle
0.0,8.0,4.0,1.0,5.0,0.0,0.0,1.0,1.0,phase_2,stop,450.0,400.0,4.0,,,,,,,,,orange,flipped triangle
0.0,3.0,3.0,0.0,6.0,6.0,568.2446730002084,1.0,1.0,phase_2,go,500.0,400.0,1.0,,,,,,,,,white,circle
0.0,6.0,2.0,1.0,6.0,6.0,559.7229770000922,2.0,1.0,phase_2,go,500.0,400.0,1.0,,,,,,,,,cyan,hexagon
0.0,1.0,1.0,0.0,5.0,5.0,365.5220360001294,2.0,1.0,phase_2,go,500.0,400.0,1.0,,,,,,,,,yellow,I
0.0,5.0,1.0,1.0,6.0,6.0,307.8116319998116,2.0,1.0,phase_2,go,500.0,400.0,1.0,,,,,,,,,blue,diamond
0.0,7.0,3.0,1.0,6.0,0.0,0.0,2.0,1.0,phase_2,stop,500.0,400.0,4.0,,,,,,,,,gray,cross
0.0,6.0,2.0,1.0,5.0,5.0,476.3152429995898,2.0,1.0,phase_2,go,500.0,450.0,1.0,,,,,,,,,cyan,hexagon
0.0,1.0,1.0,0.0,5.0,5.0,738.2889870000326,2.0,1.0,phase_2,go,500.0,450.0,1.0,,,,,,,,,yellow,I
0.0,5.0,1.0,1.0,5.0,5.0,784.0993330000856,2.0,1.0,phase_2,go,500.0,450.0,1.0,,,,,,,,,blue,diamond
0.0,1.0,1.0,0.0,6.0,6.0,299.0412859999196,2.0,1.0,phase_2,go,500.0,450.0,1.0,,,,,,,,,yellow,I
0.0,6.0,2.0,1.0,6.0,6.0,346.6713919997346,2.0,1.0,phase_2,stop,500.0,450.0,3.0,,,,,,,,,cyan,hexagon
0.0,2.0,2.0,0.0,5.0,5.0,737.9508489998443,2.0,1.0,phase_2,go,500.0,400.0,1.0,,,,,,,,,green,square
0.0,6.0,2.0,1.0,5.0,5.0,747.3151879999023,2.0,1.0,phase_2,go,500.0,400.0,1.0,,,,,,,,,cyan,hexagon
0.0,5.0,1.0,1.0,6.0,0.0,0.0,2.0,1.0,phase_2,stop,500.0,400.0,4.0,,,,,,,,,blue,diamond
0.0,6.0,2.0,1.0,6.0,6.0,647.4093550000362,2.0,1.0,phase_2,stop,500.0,450.0,3.0,,,,,,,,,cyan,hexagon
0.0,4.0,4.0,0.0,5.0,5.0,590.1577300001009,2.0,1.0,phase_2,go,500.0,400.0,1.0,,,,,,,,,magenta,triangle
0.0,6.0,2.0,1.0,5.0,5.0,681.3917889999175,2.0,1.0,phase_2,go,500.0,400.0,1.0,,,,,,,,,cyan,hexagon
0.0,8.0,4.0,1.0,6.0,0.0,0.0,2.0,1.0,phase_2,stop,500.0,400.0,4.0,,,,,,,,,orange,flipped triangle
0.0,2.0,2.0,0.0,6.0,6.0,403.9822400000048,2.0,1.0,phase_2,go,500.0,450.0,1.0,,,,,,,,,green,square
0.0,4.0,4.0,0.0,6.0,6.0,1057.8935980001916,2.0,1.0,phase_2,go,500.0,450.0,1.0,,,,,,,,,magenta,triangle
0.0,6.0,2.0,1.0,5.0,5.0,329.0609599998788,2.0,1.0,phase_2,go,500.0,450.0,1.0,,,,,,,,,cyan,hexagon
0.0,5.0,1.0,1.0,6.0,6.0,438.4337240003333,2.0,1.0,phase_2,stop,500.0,450.0,3.0,,,,,,,,,blue,diamond
0.0,4.0,4.0,0.0,6.0,6.0,364.1703890002645,2.0,1.0,phase_2,go,500.0,400.0,1.0,,,,,,,,,magenta,triangle
0.0,1.0,1.0,0.0,6.0,6.0,486.0504540001784,2.0,1.0,phase_2,go,500.0,400.0,1.0,,,,,,,,,yellow,I
0.0,4.0,4.0,0.0,5.0,5.0,363.6483210002552,2.0,1.0,phase_2,go,500.0,400.0,1.0,,,,,,,,,magenta,triangle
0.0,3.0,3.0,0.0,6.0,6.0,298.5400600000503,2.0,1.0,phase_2,go,500.0,400.0,1.0,,,,,,,,,white,circle
0.0,8.0,4.0,1.0,6.0,0.0,0.0,2.0,1.0,phase_2,stop,500.0,400.0,4.0,,,,,,,,,orange,flipped triangle
0.0,4.0,4.0,0.0,5.0,5.0,746.8318079995697,2.0,1.0,phase_2,go,500.0,450.0,1.0,,,,,,,,,magenta,triangle
0.0,7.0,3.0,1.0,6.0,0.0,0.0,2.0,1.0,phase_2,stop,500.0,450.0,4.0,,,,,,,,,gray,cross
0.0,4.0,4.0,0.0,5.0,5.0,589.3682440000703,2.0,1.0,phase_2,go,500.0,500.0,1.0,,,,,,,,,magenta,triangle
0.0,1.0,1.0,0.0,5.0,5.0,839.1353080000954,2.0,1.0,phase_2,go,500.0,500.0,1.0,,,,,,,,,yellow,I
0.0,5.0,1.0,1.0,6.0,0.0,0.0,2.0,1.0,phase_2,stop,500.0,500.0,4.0,,,,,,,,,blue,diamond
0.0,6.0,2.0,1.0,6.0,6.0,382.4987960001635,2.0,1.0,phase_2,stop,500.0,550.0,3.0,,,,,,,,,cyan,hexagon
0.0,5.0,1.0,1.0,5.0,5.0,550.9445909997339,2.0,1.0,phase_2,stop,500.0,500.0,3.0,,,,,,,,,blue,diamond
0.0,1.0,1.0,0.0,5.0,5.0,803.8967450002019,2.0,1.0,phase_2,go,450.0,500.0,1.0,,,,,,,,,yellow,I
0.0,2.0,2.0,0.0,5.0,5.0,490.5380280001736,2.0,1.0,phase_2,go,450.0,500.0,1.0,,,,,,,,,green,square
0.0,1.0,1.0,0.0,5.0,5.0,433.3298279998416,2.0,1.0,phase_2,go,450.0,500.0,1.0,,,,,,,,,yellow,I
0.0,7.0,3.0,1.0,5.0,5.0,347.725316999913,2.0,1.0,phase_2,stop,450.0,500.0,3.0,,,,,,,,,gray,cross
0.0,7.0,3.0,1.0,5.0,5.0,439.1767070001151,3.0,1.0,phase_2,stop,400.0,500.0,3.0,,,,,,,,,gray,cross
0.0,8.0,4.0,1.0,5.0,5.0,340.8061670002098,3.0,1.0,phase_2,go,350.0,500.0,1.0,,,,,,,,,orange,flipped triangle
0.0,5.0,1.0,1.0,6.0,6.0,467.2938859998794,3.0,1.0,phase_2,stop,350.0,500.0,3.0,,,,,,,,,blue,diamond
0.0,5.0,1.0,1.0,5.0,5.0,493.4250530000099,3.0,1.0,phase_2,stop,350.0,450.0,3.0,,,,,,,,,blue,diamond
0.0,8.0,4.0,1.0,5.0,0.0,0.0,3.0,1.0,phase_2,stop,300.0,450.0,4.0,,,,,,,,,orange,flipped triangle
0.0,3.0,3.0,0.0,6.0,6.0,318.0592879998585,3.0,1.0,phase_2,go,350.0,450.0,1.0,,,,,,,,,white,circle
0.0,6.0,2.0,1.0,6.0,6.0,604.7125140003118,3.0,1.0,phase_2,stop,350.0,450.0,3.0,,,,,,,,,cyan,hexagon
0.0,1.0,1.0,0.0,5.0,5.0,804.224645999966,3.0,1.0,phase_2,go,350.0,400.0,1.0,,,,,,,,,yellow,I
0.0,1.0,1.0,0.0,5.0,5.0,678.4542820000752,3.0,1.0,phase_2,go,350.0,400.0,1.0,,,,,,,,,yellow,I
0.0,2.0,2.0,0.0,6.0,6.0,486.4394810001613,3.0,1.0,phase_2,go,350.0,400.0,1.0,,,,,,,,,green,square
0.0,2.0,2.0,0.0,6.0,6.0,317.7523499998642,3.0,1.0,phase_2,go,350.0,400.0,1.0,,,,,,,,,green,square
0.0,8.0,4.0,1.0,5.0,0.0,0.0,3.0,1.0,phase_2,stop,350.0,400.0,4.0,,,,,,,,,orange,flipped triangle
0.0,6.0,2.0,1.0,5.0,5.0,541.3045310001507,3.0,1.0,phase_2,stop,400.0,400.0,3.0,,,,,,,,,cyan,hexagon
0.0,1.0,1.0,0.0,5.0,5.0,692.2668849997535,3.0,1.0,phase_2,go,350.0,400.0,1.0,,,,,,,,,yellow,I
0.0,6.0,2.0,1.0,5.0,0.0,0.0,3.0,1.0,phase_2,stop,350.0,400.0,4.0,,,,,,,,,cyan,hexagon
0.0,2.0,2.0,0.0,6.0,6.0,602.2365750000063,3.0,1.0,phase_2,go,400.0,400.0,1.0,,,,,,,,,green,square
0.0,8.0,4.0,1.0,5.0,5.0,579.012677999799,3.0,1.0,phase_2,stop,400.0,400.0,3.0,,,,,,,,,orange,flipped triangle
0.0,3.0,3.0,0.0,6.0,6.0,598.4521450000102,3.0,1.0,phase_2,go,350.0,400.0,1.0,,,,,,,,,white,circle
0.0,5.0,1.0,1.0,6.0,0.0,0.0,3.0,1.0,phase_2,stop,350.0,400.0,4.0,,,,,,,,,blue,diamond
0.0,4.0,4.0,0.0,6.0,6.0,671.766886000114,3.0,1.0,phase_2,go,350.0,450.0,1.0,,,,,,,,,magenta,triangle
0.0,7.0,3.0,1.0,6.0,6.0,812.4869990001571,3.0,1.0,phase_2,go,350.0,450.0,1.0,,,,,,,,,gray,cross
0.0,1.0,1.0,0.0,6.0,6.0,477.4159650000911,3.0,1.0,phase_2,go,350.0,450.0,1.0,,,,,,,,,yellow,I
0.0,3.0,3.0,0.0,5.0,5.0,376.0631790000843,3.0,1.0,phase_2,go,350.0,450.0,1.0,,,,,,,,,white,circle
0.0,5.0,1.0,1.0,5.0,5.0,870.6193240000175,3.0,1.0,phase_2,go,350.0,450.0,1.0,,,,,,,,,blue,diamond
0.0,8.0,4.0,1.0,6.0,6.0,318.8781860003473,3.0,1.0,phase_2,stop,350.0,450.0,3.0,,,,,,,,,orange,flipped triangle
0.0,5.0,1.0,1.0,5.0,5.0,457.6607809999586,3.0,1.0,phase_2,go,350.0,400.0,1.0,,,,,,,,,blue,diamond
0.0,8.0,4.0,1.0,5.0,5.0,394.5402350000222,3.0,1.0,phase_2,stop,350.0,400.0,3.0,,,,,,,,,orange,flipped triangle
0.0,7.0,3.0,1.0,5.0,5.0,439.40239199991987,3.0,1.0,phase_2,go,300.0,400.0,1.0,,,,,,,,,gray,cross
0.0,4.0,4.0,0.0,6.0,6.0,392.535473999942,3.0,1.0,phase_2,go,300.0,400.0,1.0,,,,,,,,,magenta,triangle
0.0,5.0,1.0,1.0,5.0,0.0,0.0,3.0,1.0,phase_2,stop,300.0,400.0,4.0,,,,,,,,,blue,diamond
0.0,2.0,2.0,0.0,6.0,6.0,505.1169920002394,3.0,1.0,phase_2,go,350.0,400.0,1.0,,,,,,,,,green,square
0.0,2.0,2.0,0.0,6.0,6.0,879.3455429999995,3.0,1.0,phase_2,go,350.0,400.0,1.0,,,,,,,,,green,square
0.0,7.0,3.0,1.0,5.0,0.0,0.0,3.0,1.0,phase_2,stop,350.0,400.0,4.0,,,,,,,,,gray,cross
0.0,8.0,4.0,1.0,6.0,0.0,0.0,3.0,1.0,phase_2,stop,400.0,400.0,4.0,,,,,,,,,orange,flipped triangle
0.0,8.0,4.0,1.0,6.0,0.0,0.0,3.0,1.0,phase_2,stop,400.0,450.0,4.0,,,,,,,,,orange,flipped triangle
0.0,3.0,3.0,0.0,6.0,6.0,862.4691079999138,3.0,1.0,phase_2,go,400.0,500.0,1.0,,,,,,,,,white,circle
0.0,1.0,1.0,0.0,6.0,6.0,420.9397150002587,4.0,1.0,phase_2,go,400.0,500.0,1.0,,,,,,,,,yellow,I
0.0,2.0,2.0,0.0,5.0,5.0,356.3326100002086,4.0,1.0,phase_2,go,400.0,500.0,1.0,,,,,,,,,green,square
0.0,1.0,1.0,0.0,6.0,6.0,635.7338490001894,4.0,1.0,phase_2,go,400.0,500.0,1.0,,,,,,,,,yellow,I
0.0,6.0,2.0,1.0,6.0,6.0,592.5904149999042,4.0,1.0,phase_2,stop,400.0,500.0,3.0,,,,,,,,,cyan,hexagon
0.0,2.0,2.0,0.0,5.0,5.0,522.2363579996454,4.0,1.0,phase_2,go,400.0,450.0,1.0,,,,,,,,,green,square
0.0,7.0,3.0,1.0,5.0,5.0,1217.801118999887,4.0,1.0,phase_2,go,400.0,450.0,1.0,,,,,,,,,gray,cross
0.0,7.0,3.0,1.0,5.0,0.0,0.0,4.0,1.0,phase_2,stop,400.0,450.0,4.0,,,,,,,,,gray,cross
0.0,2.0,2.0,0.0,6.0,6.0,317.6908089999415,4.0,1.0,phase_2,go,450.0,450.0,1.0,,,,,,,,,green,square
0.0,6.0,2.0,1.0,6.0,0.0,0.0,4.0,1.0,phase_2,stop,450.0,450.0,4.0,,,,,,,,,cyan,hexagon
0.0,7.0,3.0,1.0,5.0,5.0,648.8943939998535,4.0,1.0,phase_2,stop,450.0,500.0,3.0,,,,,,,,,gray,cross
0.0,4.0,4.0,0.0,6.0,6.0,865.5829330000415,4.0,1.0,phase_2,go,400.0,500.0,1.0,,,,,,,,,magenta,triangle
0.0,4.0,4.0,0.0,5.0,5.0,801.810903000387,4.0,1.0,phase_2,go,400.0,500.0,1.0,,,,,,,,,magenta,triangle
0.0,4.0,4.0,0.0,6.0,6.0,741.843192000033,4.0,1.0,phase_2,go,400.0,500.0,1.0,,,,,,,,,magenta,triangle
0.0,3.0,3.0,0.0,5.0,5.0,671.7584229995737,4.0,1.0,phase_2,go,400.0,500.0,1.0,,,,,,,,,white,circle
0.0,1.0,1.0,0.0,6.0,6.0,618.8699020003696,4.0,1.0,phase_2,go,400.0,500.0,1.0,,,,,,,,,yellow,I
0.0,8.0,4.0,1.0,6.0,6.0,374.5152540000163,4.0,1.0,phase_2,stop,400.0,500.0,3.0,,,,,,,,,orange,flipped triangle
0.0,5.0,1.0,1.0,6.0,6.0,502.54263399983756,4.0,1.0,phase_2,stop,400.0,450.0,3.0,,,,,,,,,blue,diamond
0.0,7.0,3.0,1.0,5.0,5.0,318.7276849998852,4.0,1.0,phase_2,go,400.0,400.0,1.0,,,,,,,,,gray,cross
0.0,6.0,2.0,1.0,6.0,6.0,336.3949959998535,4.0,1.0,phase_2,stop,400.0,400.0,3.0,,,,,,,,,cyan,hexagon
0.0,3.0,3.0,0.0,5.0,5.0,401.9986130001598,4.0,1.0,phase_2,go,400.0,350.0,1.0,,,,,,,,,white,circle
0.0,4.0,4.0,0.0,5.0,5.0,663.1941389996427,4.0,1.0,phase_2,go,400.0,350.0,1.0,,,,,,,,,magenta,triangle
0.0,1.0,1.0,0.0,6.0,6.0,782.8650249998645,4.0,1.0,phase_2,go,400.0,350.0,1.0,,,,,,,,,yellow,I
0.0,6.0,2.0,1.0,6.0,0.0,0.0,4.0,1.0,phase_2,stop,400.0,350.0,4.0,,,,,,,,,cyan,hexagon
0.0,4.0,4.0,0.0,5.0,5.0,699.6760020001602,4.0,1.0,phase_2,go,400.0,400.0,1.0,,,,,,,,,magenta,triangle
0.0,7.0,3.0,1.0,5.0,5.0,611.4437919995908,4.0,1.0,phase_2,stop,400.0,400.0,3.0,,,,,,,,,gray,cross
0.0,3.0,3.0,0.0,5.0,5.0,748.2341929999166,4.0,1.0,phase_2,go,350.0,400.0,1.0,,,,,,,,,white,circle
0.0,1.0,1.0,0.0,6.0,6.0,840.8821080001871,4.0,1.0,phase_2,go,350.0,400.0,1.0,,,,,,,,,yellow,I
0.0,6.0,2.0,1.0,6.0,0.0,0.0,4.0,1.0,phase_2,stop,350.0,400.0,4.0,,,,,,,,,cyan,hexagon
0.0,1.0,1.0,0.0,6.0,6.0,703.1752799998685,4.0,1.0,phase_2,go,350.0,450.0,1.0,,,,,,,,,yellow,I
0.0,8.0,4.0,1.0,6.0,6.0,813.553931000115,4.0,1.0,phase_2,go,350.0,450.0,1.0,,,,,,,,,orange,flipped triangle
0.0,4.0,4.0,0.0,5.0,5.0,634.5618840000498,4.0,1.0,phase_2,go,350.0,450.0,1.0,,,,,,,,,magenta,triangle
0.0,3.0,3.0,0.0,6.0,6.0,308.6341689995606,4.0,1.0,phase_2,go,350.0,450.0,1.0,,,,,,,,,white,circle
0.0,6.0,2.0,1.0,6.0,6.0,371.9410099997731,4.0,1.0,phase_2,stop,350.0,450.0,3.0,,,,,,,,,cyan,hexagon
0.0,5.0,1.0,1.0,6.0,0.0,0.0,4.0,1.0,phase_2,stop,350.0,400.0,4.0,,,,,,,,,blue,diamond
0.0,7.0,3.0,1.0,6.0,6.0,593.7125200002811,4.0,1.0,phase_2,stop,350.0,450.0,3.0,,,,,,,,,gray,cross
0.0,4.0,4.0,0.0,6.0,6.0,727.5397620001058,4.0,1.0,phase_2,go,350.0,400.0,1.0,,,,,,,,,magenta,triangle
0.0,5.0,1.0,1.0,5.0,5.0,535.3458530003081,5.0,1.0,phase_2,go,350.0,400.0,1.0,,,,,,,,,blue,diamond
0.0,8.0,4.0,1.0,6.0,6.0,271.6988839997611,5.0,1.0,phase_2,stop,350.0,400.0,3.0,,,,,,,,,orange,flipped triangle
0.0,5.0,1.0,1.0,6.0,0.0,0.0,5.0,1.0,phase_2,stop,350.0,350.0,4.0,,,,,,,,,blue,diamond
0.0,4.0,4.0,0.0,5.0,5.0,299.77204599981627,5.0,1.0,phase_2,go,350.0,400.0,1.0,,,,,,,,,magenta,triangle
0.0,1.0,1.0,0.0,5.0,5.0,682.7424820003216,5.0,1.0,phase_2,go,350.0,400.0,1.0,,,,,,,,,yellow,I
0.0,8.0,4.0,1.0,5.0,0.0,0.0,5.0,1.0,phase_2,stop,350.0,400.0,4.0,,,,,,,,,orange,flipped triangle
0.0,7.0,3.0,1.0,6.0,6.0,588.5242320000543,5.0,1.0,phase_2,stop,400.0,400.0,3.0,,,,,,,,,gray,cross
0.0,2.0,2.0,0.0,5.0,5.0,373.5747010000523,5.0,1.0,phase_2,go,400.0,350.0,1.0,,,,,,,,,green,square
0.0,4.0,4.0,0.0,6.0,6.0,693.5545719998117,5.0,1.0,phase_2,go,400.0,350.0,1.0,,,,,,,,,magenta,triangle
0.0,3.0,3.0,0.0,5.0,5.0,779.813994000051,5.0,1.0,phase_2,go,400.0,350.0,1.0,,,,,,,,,white,circle
0.0,1.0,1.0,0.0,6.0,6.0,619.0790870000455,5.0,1.0,phase_2,go,400.0,350.0,1.0,,,,,,,,,yellow,I
0.0,8.0,4.0,1.0,5.0,5.0,328.7379870002951,5.0,1.0,phase_2,stop,400.0,350.0,3.0,,,,,,,,,orange,flipped triangle
0.0,4.0,4.0,0.0,6.0,6.0,496.7725520000385,5.0,1.0,phase_2,go,350.0,350.0,1.0,,,,,,,,,magenta,triangle
0.0,5.0,1.0,1.0,6.0,6.0,395.9102780004286,5.0,1.0,phase_2,stop,350.0,350.0,3.0,,,,,,,,,blue,diamond
0.0,2.0,2.0,0.0,5.0,5.0,318.5279780000201,5.0,1.0,phase_2,go,350.0,300.0,1.0,,,,,,,,,green,square
0.0,3.0,3.0,0.0,6.0,6.0,290.9255280001162,5.0,1.0,phase_2,go,350.0,300.0,1.0,,,,,,,,,white,circle
0.0,7.0,3.0,1.0,6.0,6.0,342.6566929997534,5.0,1.0,phase_2,stop,350.0,300.0,3.0,,,,,,,,,gray,cross
0.0,5.0,1.0,1.0,6.0,6.0,372.2203440001976,5.0,1.0,phase_2,stop,350.0,250.0,3.0,,,,,,,,,blue,diamond
0.0,2.0,2.0,0.0,6.0,6.0,619.0136790000906,5.0,1.0,phase_2,go,350.0,200.0,1.0,,,,,,,,,green,square
0.0,8.0,4.0,1.0,6.0,6.0,318.3423850000508,5.0,1.0,phase_2,stop,350.0,200.0,3.0,,,,,,,,,orange,flipped triangle
0.0,7.0,3.0,1.0,5.0,5.0,431.983037000009,5.0,1.0,phase_2,go,350.0,150.0,1.0,,,,,,,,,gray,cross
0.0,7.0,3.0,1.0,6.0,6.0,307.1265739999944,5.0,1.0,phase_2,stop,350.0,150.0,3.0,,,,,,,,,gray,cross
0.0,7.0,3.0,1.0,6.0,6.0,692.40334099959,5.0,1.0,phase_2,go,350.0,100.0,1.0,,,,,,,,,gray,cross
0.0,8.0,4.0,1.0,6.0,6.0,384.6788860000742,5.0,1.0,phase_2,go,350.0,100.0,1.0,,,,,,,,,orange,flipped triangle
0.0,6.0,2.0,1.0,5.0,5.0,337.4829760000466,5.0,1.0,phase_2,stop,350.0,100.0,3.0,,,,,,,,,cyan,hexagon
0.0,3.0,3.0,0.0,6.0,6.0,290.13316999999,5.0,1.0,phase_2,go,300.0,100.0,1.0,,,,,,,,,white,circle
0.0,3.0,3.0,0.0,5.0,5.0,347.0439660000011,5.0,1.0,phase_2,go,300.0,100.0,1.0,,,,,,,,,white,circle
0.0,3.0,3.0,0.0,5.0,5.0,505.5026619997989,5.0,1.0,phase_2,go,300.0,100.0,1.0,,,,,,,,,white,circle
0.0,4.0,4.0,0.0,5.0,5.0,477.2840350001388,5.0,1.0,phase_2,go,300.0,100.0,1.0,,,,,,,,,magenta,triangle
0.0,2.0,2.0,0.0,6.0,6.0,289.8653520001062,5.0,1.0,phase_2,go,300.0,100.0,1.0,,,,,,,,,green,square
0.0,8.0,4.0,1.0,5.0,5.0,352.0856430000094,5.0,1.0,phase_2,stop,300.0,100.0,3.0,,,,,,,,,orange,flipped triangle
0.0,4.0,4.0,0.0,5.0,5.0,542.9655529997035,5.0,1.0,phase_2,go,250.0,100.0,1.0,,,,,,,,,magenta,triangle
0.0,7.0,3.0,1.0,5.0,5.0,354.7195930000271,5.0,1.0,phase_2,stop,250.0,100.0,3.0,,,,,,,,,gray,cross
0.0,1.0,1.0,0.0,6.0,6.0,321.1297060001925,5.0,1.0,phase_2,go,200.0,100.0,1.0,,,,,,,,,yellow,I
0.0,7.0,3.0,1.0,6.0,0.0,0.0,5.0,1.0,phase_2,stop,200.0,100.0,4.0,,,,,,,,,gray,cross
0.0,6.0,2.0,1.0,6.0,6.0,374.3597239999872,5.0,1.0,phase_2,go,200.0,150.0,1.0,,,,,,,,,cyan,hexagon
0.0,3.0,3.0,0.0,6.0,6.0,346.4277269999911,6.0,1.0,phase_2,go,200.0,150.0,1.0,,,,,,,,,white,circle
0.0,2.0,2.0,0.0,6.0,6.0,467.1929799997087,6.0,1.0,phase_2,go,200.0,150.0,1.0,,,,,,,,,green,square
0.0,3.0,3.0,0.0,6.0,6.0,412.6549769998746,6.0,1.0,phase_2,go,200.0,150.0,1.0,,,,,,,,,white,circle
0.0,6.0,2.0,1.0,5.0,5.0,468.5278080000898,6.0,1.0,phase_2,go,200.0,150.0,1.0,,,,,,,,,cyan,hexagon
0.0,8.0,4.0,1.0,5.0,0.0,0.0,6.0,1.0,phase_2,stop,200.0,150.0,4.0,,,,,,,,,orange,flipped triangle
0.0,2.0,2.0,0.0,6.0,6.0,299.4501220000529,6.0,1.0,phase_2,go,250.0,150.0,1.0,,,,,,,,,green,square
0.0,6.0,2.0,1.0,5.0,0.0,0.0,6.0,1.0,phase_2,stop,250.0,150.0,4.0,,,,,,,,,cyan,hexagon
0.0,4.0,4.0,0.0,6.0,6.0,337.1531830002823,6.0,1.0,phase_2,go,300.0,150.0,1.0,,,,,,,,,magenta,triangle
0.0,5.0,1.0,1.0,5.0,5.0,728.9676469999904,6.0,1.0,phase_2,go,300.0,150.0,1.0,,,,,,,,,blue,diamond
0.0,1.0,1.0,0.0,6.0,6.0,327.975176000109,6.0,1.0,phase_2,go,300.0,150.0,1.0,,,,,,,,,yellow,I
0.0,8.0,4.0,1.0,5.0,0.0,0.0,6.0,1.0,phase_2,stop,300.0,150.0,4.0,,,,,,,,,orange,flipped triangle
0.0,7.0,3.0,1.0,6.0,0.0,0.0,6.0,1.0,phase_2,stop,350.0,150.0,4.0,,,,,,,,,gray,cross
0.0,7.0,3.0,1.0,6.0,0.0,0.0,6.0,1.0,phase_2,stop,350.0,200.0,4.0,,,,,,,,,gray,cross
0.0,4.0,4.0,0.0,5.0,5.0,412.1494460000576,6.0,1.0,phase_2,go,350.0,250.0,1.0,,,,,,,,,magenta,triangle
0.0,8.0,4.0,1.0,6.0,0.0,0.0,6.0,1.0,phase_2,stop,350.0,250.0,4.0,,,,,,,,,orange,flipped triangle
0.0,5.0,1.0,1.0,5.0,0.0,0.0,6.0,1.0,phase_2,stop,350.0,300.0,4.0,,,,,,,,,blue,diamond
0.0,3.0,3.0,0.0,5.0,5.0,430.1561219999712,6.0,1.0,phase_2,go,400.0,300.0,1.0,,,,,,,,,white,circle
0.0,1.0,1.0,0.0,5.0,5.0,469.5603739996841,6.0,1.0,phase_2,go,400.0,300.0,1.0,,,,,,,,,yellow,I
0.0,1.0,1.0,0.0,6.0,6.0,337.171063000369,6.0,1.0,phase_2,go,400.0,300.0,1.0,,,,,,,,,yellow,I
0.0,5.0,1.0,1.0,5.0,5.0,449.694953999824,6.0,1.0,phase_2,stop,400.0,300.0,3.0,,,,,,,,,blue,diamond
0.0,8.0,4.0,1.0,5.0,5.0,552.5611209995986,6.0,1.0,phase_2,go,350.0,300.0,1.0,,,,,,,,,orange,flipped triangle
0.0,5.0,1.0,1.0,5.0,5.0,344.049284999528,6.0,1.0,phase_2,stop,350.0,300.0,3.0,,,,,,,,,blue,diamond
0.0,3.0,3.0,0.0,5.0,5.0,447.8236940003626,6.0,1.0,phase_2,go,300.0,300.0,1.0,,,,,,,,,white,circle
0.0,1.0,1.0,0.0,5.0,5.0,392.0387250000203,6.0,1.0,phase_2,go,300.0,300.0,1.0,,,,,,,,,yellow,I
0.0,7.0,3.0,1.0,6.0,6.0,350.8920800004489,6.0,1.0,phase_2,stop,300.0,300.0,3.0,,,,,,,,,gray,cross
0.0,2.0,2.0,0.0,5.0,5.0,391.0373099997741,6.0,1.0,phase_2,go,300.0,250.0,1.0,,,,,,,,,green,square
0.0,5.0,1.0,1.0,5.0,5.0,467.265201000373,6.0,1.0,phase_2,stop,300.0,250.0,3.0,,,,,,,,,blue,diamond
0.0,7.0,3.0,1.0,6.0,0.0,0.0,6.0,1.0,phase_2,stop,250.0,250.0,4.0,,,,,,,,,gray,cross
0.0,1.0,1.0,0.0,5.0,5.0,364.6034580006017,6.0,1.0,phase_2,go,250.0,300.0,1.0,,,,,,,,,yellow,I
0.0,2.0,2.0,0.0,5.0,5.0,578.5695049999049,6.0,1.0,phase_2,go,250.0,300.0,1.0,,,,,,,,,green,square
0.0,6.0,2.0,1.0,5.0,5.0,484.1362490005849,6.0,1.0,phase_2,go,250.0,300.0,1.0,,,,,,,,,cyan,hexagon
0.0,1.0,1.0,0.0,6.0,6.0,336.3931999992928,6.0,1.0,phase_2,go,250.0,300.0,1.0,,,,,,,,,yellow,I
0.0,6.0,2.0,1.0,5.0,0.0,0.0,6.0,1.0,phase_2,stop,250.0,300.0,4.0,,,,,,,,,cyan,hexagon
0.0,6.0,2.0,1.0,5.0,5.0,355.63048899985,6.0,1.0,phase_2,stop,300.0,300.0,3.0,,,,,,,,,cyan,hexagon
0.0,1.0,1.0,0.0,5.0,5.0,596.2812239995401,6.0,1.0,phase_2,go,250.0,300.0,1.0,,,,,,,,,yellow,I
0.0,5.0,1.0,1.0,6.0,0.0,0.0,6.0,1.0,phase_2,stop,250.0,300.0,4.0,,,,,,,,,blue,diamond
0.0,6.0,2.0,1.0,6.0,6.0,308.685140000307,7.0,1.0,phase_2,stop,250.0,350.0,3.0,,,,,,,,,cyan,hexagon
0.0,1.0,1.0,0.0,6.0,6.0,430.9013539996158,7.0,1.0,phase_2,go,250.0,300.0,1.0,,,,,,,,,yellow,I
0.0,7.0,3.0,1.0,6.0,0.0,0.0,7.0,1.0,phase_2,stop,250.0,300.0,4.0,,,,,,,,,gray,cross
0.0,2.0,2.0,0.0,5.0,5.0,490.6955770002241,7.0,1.0,phase_2,go,250.0,350.0,1.0,,,,,,,,,green,square
0.0,3.0,3.0,0.0,5.0,5.0,515.8065659998101,7.0,1.0,phase_2,go,250.0,350.0,1.0,,,,,,,,,white,circle
0.0,1.0,1.0,0.0,6.0,6.0,467.9811969999718,7.0,1.0,phase_2,go,250.0,350.0,1.0,,,,,,,,,yellow,I
0.0,6.0,2.0,1.0,5.0,0.0,0.0,7.0,1.0,phase_2,stop,250.0,350.0,4.0,,,,,,,,,cyan,hexagon
0.0,7.0,3.0,1.0,5.0,5.0,588.1871889996546,7.0,1.0,phase_2,go,300.0,350.0,1.0,,,,,,,,,gray,cross
0.0,3.0,3.0,0.0,5.0,5.0,391.9529309996505,7.0,1.0,phase_2,go,300.0,350.0,1.0,,,,,,,,,white,circle
0.0,8.0,4.0,1.0,5.0,0.0,0.0,7.0,1.0,phase_2,stop,300.0,350.0,4.0,,,,,,,,,orange,flipped triangle
0.0,2.0,2.0,0.0,5.0,5.0,654.5458370001143,7.0,1.0,phase_2,go,350.0,350.0,1.0,,,,,,,,,green,square
0.0,2.0,2.0,0.0,5.0,5.0,618.2108800003334,7.0,1.0,phase_2,go,350.0,350.0,1.0,,,,,,,,,green,square
0.0,4.0,4.0,0.0,6.0,6.0,365.7888699999603,7.0,1.0,phase_2,go,350.0,350.0,1.0,,,,,,,,,magenta,triangle
0.0,2.0,2.0,0.0,5.0,5.0,579.7444600002564,7.0,1.0,phase_2,go,350.0,350.0,1.0,,,,,,,,,green,square
0.0,7.0,3.0,1.0,5.0,5.0,403.1608169998435,7.0,1.0,phase_2,stop,350.0,350.0,3.0,,,,,,,,,gray,cross
0.0,3.0,3.0,0.0,6.0,6.0,411.817589999373,7.0,1.0,phase_2,go,300.0,350.0,1.0,,,,,,,,,white,circle
0.0,5.0,1.0,1.0,5.0,5.0,416.8789920004201,7.0,1.0,phase_2,stop,300.0,350.0,3.0,,,,,,,,,blue,diamond
0.0,1.0,1.0,0.0,5.0,5.0,514.253178999752,7.0,1.0,phase_2,go,250.0,350.0,1.0,,,,,,,,,yellow,I
0.0,6.0,2.0,1.0,6.0,6.0,521.3773559999026,7.0,1.0,phase_2,stop,250.0,350.0,3.0,,,,,,,,,cyan,hexagon
0.0,4.0,4.0,0.0,5.0,5.0,586.9497130006494,7.0,1.0,phase_2,go,250.0,300.0,1.0,,,,,,,,,magenta,triangle
0.0,6.0,2.0,1.0,5.0,0.0,0.0,7.0,1.0,phase_2,stop,250.0,300.0,4.0,,,,,,,,,cyan,hexagon
0.0,2.0,2.0,0.0,5.0,5.0,570.531504000428,7.0,1.0,phase_2,go,300.0,300.0,1.0,,,,,,,,,green,square
0.0,5.0,1.0,1.0,5.0,5.0,562.0131660007246,7.0,1.0,phase_2,go,300.0,300.0,1.0,,,,,,,,,blue,diamond
0.0,2.0,2.0,0.0,6.0,6.0,608.2164469999043,7.0,1.0,phase_2,go,300.0,300.0,1.0,,,,,,,,,green,square
0.0,3.0,3.0,0.0,5.0,5.0,346.1787139995067,7.0,1.0,phase_2,go,300.0,300.0,1.0,,,,,,,,,white,circle
0.0,6.0,2.0,1.0,5.0,5.0,399.368819999836,7.0,1.0,phase_2,stop,300.0,300.0,3.0,,,,,,,,,cyan,hexagon
0.0,4.0,4.0,0.0,6.0,6.0,571.043849000489,7.0,1.0,phase_2,go,250.0,300.0,1.0,,,,,,,,,magenta,triangle
0.0,8.0,4.0,1.0,5.0,5.0,420.5463579992283,7.0,1.0,phase_2,go,250.0,300.0,1.0,,,,,,,,,orange,flipped triangle
0.0,6.0,2.0,1.0,6.0,6.0,307.8684889997021,7.0,1.0,phase_2,go,250.0,300.0,1.0,,,,,,,,,cyan,hexagon
0.0,8.0,4.0,1.0,6.0,0.0,0.0,7.0,1.0,phase_2,stop,250.0,300.0,4.0,,,,,,,,,orange,flipped triangle
0.0,4.0,4.0,0.0,5.0,5.0,608.3431960005328,7.0,1.0,phase_2,go,250.0,350.0,1.0,,,,,,,,,magenta,triangle
0.0,2.0,2.0,0.0,6.0,6.0,609.9243259996001,7.0,1.0,phase_2,go,250.0,350.0,1.0,,,,,,,,,green,square
0.0,4.0,4.0,0.0,5.0,5.0,740.9408889998303,7.0,1.0,phase_2,go,250.0,350.0,1.0,,,,,,,,,magenta,triangle
0.0,7.0,3.0,1.0,6.0,6.0,387.8451229993516,7.0,1.0,phase_2,stop,250.0,350.0,3.0,,,,,,,,,gray,cross
0.0,5.0,1.0,1.0,6.0,6.0,406.165473999863,7.0,1.0,phase_2,stop,250.0,300.0,3.0,,,,,,,,,blue,diamond
0.0,5.0,1.0,1.0,6.0,0.0,0.0,7.0,1.0,phase_2,stop,250.0,250.0,4.0,,,,,,,,,blue,diamond
0.0,2.0,2.0,0.0,5.0,5.0,421.9767660006255,8.0,1.0,phase_2,go,250.0,300.0,1.0,,,,,,,,,green,square
0.0,8.0,4.0,1.0,6.0,6.0,337.5580369993258,8.0,1.0,phase_2,go,250.0,300.0,1.0,,,,,,,,,orange,flipped triangle
0.0,5.0,1.0,1.0,6.0,6.0,373.7637769991124,8.0,1.0,phase_2,stop,250.0,300.0,3.0,,,,,,,,,blue,diamond
0.0,8.0,4.0,1.0,6.0,6.0,336.349271000472,8.0,1.0,phase_2,go,250.0,250.0,1.0,,,,,,,,,orange,flipped triangle
0.0,6.0,2.0,1.0,6.0,6.0,309.9004300001979,8.0,1.0,phase_2,stop,250.0,250.0,3.0,,,,,,,,,cyan,hexagon
0.0,7.0,3.0,1.0,6.0,6.0,431.2935699999798,8.0,1.0,phase_2,go,250.0,200.0,1.0,,,,,,,,,gray,cross
0.0,3.0,3.0,0.0,6.0,6.0,617.9307160000462,8.0,1.0,phase_2,go,250.0,200.0,1.0,,,,,,,,,white,circle
0.0,2.0,2.0,0.0,6.0,6.0,579.9939239996093,8.0,1.0,phase_2,go,250.0,200.0,1.0,,,,,,,,,green,square
0.0,6.0,2.0,1.0,6.0,0.0,0.0,8.0,1.0,phase_2,stop,250.0,200.0,4.0,,,,,,,,,cyan,hexagon
0.0,8.0,4.0,1.0,5.0,0.0,0.0,8.0,1.0,phase_2,stop,250.0,250.0,4.0,,,,,,,,,orange,flipped triangle
0.0,8.0,4.0,1.0,6.0,0.0,0.0,8.0,1.0,phase_2,stop,300.0,250.0,4.0,,,,,,,,,orange,flipped triangle
0.0,4.0,4.0,0.0,5.0,5.0,674.0353080003842,8.0,1.0,phase_2,go,300.0,300.0,1.0,,,,,,,,,magenta,triangle
0.0,2.0,2.0,0.0,5.0,5.0,514.0534810007011,8.0,1.0,phase_2,go,300.0,300.0,1.0,,,,,,,,,green,square
0.0,6.0,2.0,1.0,5.0,0.0,0.0,8.0,1.0,phase_2,stop,300.0,300.0,4.0,,,,,,,,,cyan,hexagon
0.0,5.0,1.0,1.0,5.0,5.0,532.0942110001852,8.0,1.0,phase_2,stop,350.0,300.0,3.0,,,,,,,,,blue,diamond
0.0,4.0,4.0,0.0,6.0,6.0,338.4043389996805,8.0,1.0,phase_2,go,300.0,300.0,1.0,,,,,,,,,magenta,triangle
0.0,8.0,4.0,1.0,5.0,0.0,0.0,8.0,1.0,phase_2,stop,300.0,300.0,4.0,,,,,,,,,orange,flipped triangle
0.0,5.0,1.0,1.0,5.0,5.0,635.2394920004372,8.0,1.0,phase_2,go,350.0,300.0,1.0,,,,,,,,,blue,diamond
0.0,1.0,1.0,0.0,5.0,5.0,336.0765019997416,8.0,1.0,phase_2,go,350.0,300.0,1.0,,,,,,,,,yellow,I
0.0,1.0,1.0,0.0,5.0,5.0,391.9924170004378,8.0,1.0,phase_2,go,350.0,300.0,1.0,,,,,,,,,yellow,I
0.0,4.0,4.0,0.0,5.0,5.0,485.6245950004449,8.0,1.0,phase_2,go,350.0,300.0,1.0,,,,,,,,,magenta,triangle
0.0,3.0,3.0,0.0,6.0,6.0,402.8131959994425,8.0,1.0,phase_2,go,350.0,300.0,1.0,,,,,,,,,white,circle
0.0,4.0,4.0,0.0,6.0,6.0,531.3099960003456,8.0,1.0,phase_2,go,350.0,300.0,1.0,,,,,,,,,magenta,triangle
0.0,8.0,4.0,1.0,6.0,0.0,0.0,8.0,1.0,phase_2,stop,350.0,300.0,4.0,,,,,,,,,orange,flipped triangle
0.0,6.0,2.0,1.0,5.0,0.0,0.0,8.0,1.0,phase_2,stop,350.0,350.0,4.0,,,,,,,,,cyan,hexagon
0.0,3.0,3.0,0.0,5.0,5.0,813.5290370000803,8.0,1.0,phase_2,go,400.0,350.0,1.0,,,,,,,,,white,circle
0.0,5.0,1.0,1.0,6.0,0.0,0.0,8.0,1.0,phase_2,stop,400.0,350.0,4.0,,,,,,,,,blue,diamond
0.0,4.0,4.0,0.0,6.0,6.0,869.432138000775,8.0,1.0,phase_2,go,400.0,400.0,1.0,,,,,,,,,magenta,triangle
0.0,7.0,3.0,1.0,5.0,0.0,0.0,8.0,1.0,phase_2,stop,400.0,400.0,4.0,,,,,,,,,gray,cross
0.0,8.0,4.0,1.0,5.0,5.0,533.437254999626,8.0,1.0,phase_2,stop,450.0,400.0,3.0,,,,,,,,,orange,flipped triangle
0.0,8.0,4.0,1.0,5.0,5.0,644.2735099999481,8.0,1.0,phase_2,go,400.0,400.0,1.0,,,,,,,,,orange,flipped triangle
0.0,2.0,2.0,0.0,5.0,5.0,549.881541999639,8.0,1.0,phase_2,go,400.0,400.0,1.0,,,,,,,,,green,square
0.0,2.0,2.0,0.0,6.0,6.0,551.9456070005617,8.0,1.0,phase_2,go,400.0,400.0,1.0,,,,,,,,,green,square
0.0,5.0,1.0,1.0,5.0,0.0,0.0,8.0,1.0,phase_2,stop,400.0,400.0,4.0,,,,,,,,,blue,diamond
0.0,5.0,1.0,1.0,6.0,0.0,0.0,8.0,1.0,phase_2,stop,450.0,400.0,4.0,,,,,,,,,blue,diamond
0.0,3.0,3.0,0.0,5.0,5.0,654.3105060000016,8.0,1.0,phase_2,go,450.0,450.0,1.0,,,,,,,,,white,circle
0.0,8.0,4.0,1.0,7.0,4.0,1140.216316999613,1.0,1.0,phase_3,,,,,576.0,3.0,1152.0,384.0,960.0,576.0,768.0,192.0,orange,flipped triangle
0.0,3.0,3.0,0.0,7.0,5.0,278.4957710000526,1.0,1.0,phase_3,,,,,1152.0,6.0,192.0,768.0,960.0,384.0,1152.0,576.0,white,circle
0.0,6.0,2.0,1.0,7.0,2.0,260.7376169999043,1.0,1.0,phase_3,,,,,154.0,1.0,462.0,154.0,308.0,616.0,770.0,924.0,cyan,hexagon
0.0,1.0,1.0,0.0,7.0,5.0,267.999337999754,1.0,1.0,phase_3,,,,,616.0,4.0,154.0,770.0,308.0,924.0,616.0,462.0,yellow,I
0.0,6.0,2.0,1.0,7.0,6.0,280.1223220003521,1.0,1.0,phase_3,,,,,348.0,3.0,116.0,232.0,696.0,580.0,464.0,348.0,cyan,hexagon
0.0,2.0,2.0,0.0,7.0,5.0,268.8331190001918,1.0,1.0,phase_3,,,,,232.0,2.0,464.0,116.0,580.0,348.0,232.0,696.0,green,square
0.0,2.0,2.0,0.0,7.0,3.0,269.019235000087,1.0,1.0,phase_3,,,,,960.0,5.0,576.0,768.0,960.0,384.0,192.0,1152.0,green,square
0.0,3.0,3.0,0.0,7.0,1.0,268.5764730003939,1.0,1.0,phase_3,,,,,405.0,3.0,405.0,135.0,675.0,540.0,270.0,810.0,white,circle
0.0,6.0,2.0,1.0,7.0,5.0,334.6329429996331,1.0,1.0,phase_3,,,,,675.0,5.0,540.0,270.0,405.0,135.0,675.0,810.0,cyan,hexagon
0.0,8.0,4.0,1.0,7.0,2.0,263.2237699999677,1.0,1.0,phase_3,,,,,192.0,1.0,960.0,192.0,768.0,384.0,1152.0,576.0,orange,flipped triangle
0.0,2.0,2.0,0.0,7.0,3.0,232.1535499995661,1.0,1.0,phase_3,,,,,768.0,4.0,1152.0,384.0,768.0,960.0,576.0,192.0,green,square
0.0,7.0,3.0,1.0,7.0,4.0,278.2633550004902,1.0,1.0,phase_3,,,,,960.0,5.0,384.0,1152.0,768.0,960.0,192.0,576.0,gray,cross
0.0,3.0,3.0,0.0,7.0,5.0,343.1026640000709,1.0,1.0,phase_3,,,,,768.0,4.0,1152.0,576.0,960.0,192.0,768.0,384.0,white,circle
0.0,5.0,1.0,1.0,7.0,2.0,316.1687540005005,1.0,1.0,phase_3,,,,,692.0,4.0,173.0,692.0,1038.0,346.0,519.0,865.0,blue,diamond
0.0,6.0,2.0,1.0,7.0,5.0,307.8155090006476,1.0,1.0,phase_3,,,,,405.0,3.0,540.0,810.0,135.0,675.0,405.0,270.0,cyan,hexagon
0.0,2.0,2.0,0.0,7.0,5.0,390.9519500002716,1.0,1.0,phase_3,,,,,232.0,2.0,464.0,348.0,580.0,696.0,232.0,116.0,green,square
0.0,3.0,3.0,0.0,7.0,3.0,296.1289079994458,1.0,1.0,phase_3,,,,,519.0,3.0,173.0,692.0,519.0,865.0,1038.0,346.0,white,circle
0.0,8.0,4.0,1.0,7.0,4.0,288.2670199996937,1.0,1.0,phase_3,,,,,464.0,4.0,580.0,232.0,696.0,464.0,116.0,348.0,orange,flipped triangle
0.0,4.0,4.0,0.0,7.0,3.0,250.780332999966,1.0,1.0,phase_3,,,,,692.0,4.0,173.0,865.0,692.0,346.0,1038.0,519.0,magenta,triangle
0.0,8.0,4.0,1.0,7.0,4.0,251.8804310002451,1.0,1.0,phase_3,,,,,135.0,1.0,540.0,675.0,810.0,135.0,270.0,405.0,orange,flipped triangle
0.0,3.0,3.0,0.0,7.0,4.0,316.2610969993693,2.0,1.0,phase_3,,,,,464.0,4.0,580.0,696.0,116.0,464.0,232.0,348.0,white,circle
0.0,2.0,2.0,0.0,7.0,4.0,418.6848560002545,2.0,1.0,phase_3,,,,,135.0,1.0,675.0,810.0,540.0,135.0,270.0,405.0,green,square
0.0,2.0,2.0,0.0,7.0,2.0,234.2756470006861,2.0,1.0,phase_3,,,,,1038.0,6.0,865.0,1038.0,346.0,173.0,692.0,519.0,green,square
0.0,3.0,3.0,0.0,7.0,2.0,288.2222160005767,2.0,1.0,phase_3,,,,,346.0,2.0,692.0,346.0,173.0,865.0,519.0,1038.0,white,circle
0.0,8.0,4.0,1.0,7.0,5.0,435.3042610000557,2.0,1.0,phase_3,,,,,173.0,1.0,519.0,692.0,865.0,1038.0,173.0,346.0,orange,flipped triangle
0.0,6.0,2.0,1.0,7.0,3.0,334.6708130002298,2.0,1.0,phase_3,,,,,768.0,4.0,576.0,384.0,768.0,1152.0,192.0,960.0,cyan,hexagon
0.0,3.0,3.0,0.0,7.0,4.0,372.0829320000121,2.0,1.0,phase_3,,,,,270.0,2.0,405.0,675.0,810.0,270.0,135.0,540.0,white,circle
0.0,7.0,3.0,1.0,7.0,3.0,419.6054690000892,2.0,1.0,phase_3,,,,,232.0,2.0,348.0,696.0,232.0,116.0,580.0,464.0,gray,cross
0.0,5.0,1.0,1.0,7.0,4.0,213.4450220000872,2.0,1.0,phase_3,,,,,384.0,2.0,960.0,1152.0,192.0,384.0,576.0,768.0,blue,diamond
0.0,8.0,4.0,1.0,7.0,6.0,251.4417640004467,2.0,1.0,phase_3,,,,,462.0,3.0,924.0,616.0,154.0,770.0,308.0,462.0,orange,flipped triangle
0.0,7.0,3.0,1.0,7.0,1.0,223.1224890001613,2.0,1.0,phase_3,,,,,116.0,1.0,116.0,580.0,232.0,464.0,348.0,696.0,gray,cross
0.0,1.0,1.0,0.0,7.0,3.0,232.4828660002822,2.0,1.0,phase_3,,,,,576.0,3.0,192.0,768.0,576.0,1152.0,384.0,960.0,yellow,I
0.0,1.0,1.0,0.0,7.0,4.0,112.1769199999107,2.0,1.0,phase_3,,,,,135.0,1.0,540.0,810.0,675.0,135.0,405.0,270.0,yellow,I
0.0,1.0,1.0,0.0,7.0,5.0,260.6893439997293,2.0,1.0,phase_3,,,,,692.0,4.0,1038.0,173.0,519.0,865.0,692.0,346.0,yellow,I
0.0,6.0,2.0,1.0,7.0,5.0,399.5501320005132,2.0,1.0,phase_3,,,,,519.0,3.0,346.0,692.0,1038.0,173.0,519.0,865.0,cyan,hexagon
0.0,4.0,4.0,0.0,7.0,5.0,371.4495180001904,2.0,1.0,phase_3,,,,,348.0,3.0,232.0,580.0,116.0,696.0,348.0,464.0,magenta,triangle
0.0,1.0,1.0,0.0,7.0,2.0,260.3309000005538,2.0,1.0,phase_3,,,,,924.0,6.0,308.0,924.0,616.0,770.0,462.0,154.0,yellow,I
0.0,7.0,3.0,1.0,7.0,4.0,279.5677269996304,2.0,1.0,phase_3,,,,,154.0,1.0,308.0,616.0,462.0,154.0,924.0,770.0,gray,cross
0.0,8.0,4.0,1.0,7.0,3.0,223.2270209997295,2.0,1.0,phase_3,,,,,616.0,4.0,462.0,154.0,616.0,770.0,924.0,308.0,orange,flipped triangle
0.0,5.0,1.0,1.0,7.0,5.0,223.2779450005182,2.0,1.0,phase_3,,,,,960.0,5.0,1152.0,768.0,384.0,576.0,960.0,192.0,blue,diamond
0.0,2.0,2.0,0.0,7.0,3.0,270.2031509998051,3.0,1.0,phase_3,,,,,924.0,6.0,308.0,770.0,924.0,616.0,462.0,154.0,green,square
0.0,2.0,2.0,0.0,7.0,4.0,298.3692679999876,3.0,1.0,phase_3,,,,,810.0,6.0,405.0,540.0,675.0,810.0,135.0,270.0,green,square
0.0,6.0,2.0,1.0,7.0,5.0,250.4894749999948,3.0,1.0,phase_3,,,,,192.0,1.0,1152.0,960.0,384.0,576.0,192.0,768.0,cyan,hexagon
0.0,8.0,4.0,1.0,7.0,3.0,213.9799670003412,3.0,1.0,phase_3,,,,,865.0,5.0,1038.0,692.0,865.0,173.0,346.0,519.0,orange,flipped triangle
0.0,4.0,4.0,0.0,7.0,5.0,232.1661700007098,3.0,1.0,phase_3,,,,,384.0,2.0,960.0,768.0,1152.0,192.0,384.0,576.0,magenta,triangle
0.0,5.0,1.0,1.0,7.0,1.0,269.8724829997445,3.0,1.0,phase_3,,,,,924.0,6.0,924.0,616.0,308.0,462.0,770.0,154.0,blue,diamond
0.0,7.0,3.0,1.0,7.0,5.0,316.0367880000194,3.0,1.0,phase_3,,,,,384.0,2.0,768.0,960.0,192.0,1152.0,384.0,576.0,gray,cross
0.0,5.0,1.0,1.0,7.0,5.0,371.5779610001846,3.0,1.0,phase_3,,,,,1038.0,6.0,519.0,865.0,173.0,346.0,1038.0,692.0,blue,diamond
0.0,1.0,1.0,0.0,7.0,3.0,372.6667350001662,3.0,1.0,phase_3,,,,,960.0,5.0,192.0,576.0,960.0,768.0,384.0,1152.0,yellow,I
0.0,7.0,3.0,1.0,7.0,5.0,214.0444870001374,3.0,1.0,phase_3,,,,,692.0,4.0,1038.0,173.0,346.0,865.0,692.0,519.0,gray,cross
0.0,7.0,3.0,1.0,7.0,3.0,149.1346430002522,3.0,1.0,phase_3,,,,,692.0,4.0,1038.0,173.0,692.0,346.0,519.0,865.0,gray,cross
0.0,1.0,1.0,0.0,7.0,4.0,307.3226169999543,3.0,1.0,phase_3,,,,,348.0,3.0,696.0,116.0,464.0,348.0,232.0,580.0,yellow,I
0.0,7.0,3.0,1.0,7.0,5.0,381.7365479999353,3.0,1.0,phase_3,,,,,675.0,5.0,810.0,540.0,405.0,135.0,675.0,270.0,gray,cross
0.0,5.0,1.0,1.0,7.0,2.0,251.06340799993632,3.0,1.0,phase_3,,,,,540.0,4.0,405.0,540.0,675.0,810.0,135.0,270.0,blue,diamond
0.0,4.0,4.0,0.0,7.0,4.0,296.891630000573,3.0,1.0,phase_3,,,,,462.0,3.0,924.0,616.0,770.0,462.0,308.0,154.0,magenta,triangle
0.0,4.0,4.0,0.0,7.0,3.0,455.8358390004287,3.0,1.0,phase_3,,,,,173.0,1.0,692.0,1038.0,173.0,346.0,865.0,519.0,magenta,triangle
0.0,8.0,4.0,1.0,7.0,5.0,362.4107859996002,3.0,1.0,phase_3,,,,,810.0,6.0,135.0,405.0,675.0,270.0,810.0,540.0,orange,flipped triangle
0.0,6.0,2.0,1.0,7.0,3.0,371.3022270003421,3.0,1.0,phase_3,,,,,696.0,6.0,580.0,348.0,696.0,116.0,232.0,464.0,cyan,hexagon
0.0,4.0,4.0,0.0,7.0,4.0,501.6588829994362,3.0,1.0,phase_3,,,,,405.0,3.0,270.0,810.0,675.0,405.0,135.0,540.0,magenta,triangle
0.0,3.0,3.0,0.0,7.0,3.0,381.5698999997039,3.0,1.0,phase_3,,,,,116.0,1.0,348.0,696.0,116.0,580.0,232.0,464.0,white,circle
0.0,4.0,4.0,0.0,7.0,5.0,383.5498669996013,4.0,1.0,phase_3,,,,,580.0,5.0,116.0,348.0,464.0,232.0,580.0,696.0,magenta,triangle
0.0,6.0,2.0,1.0,7.0,2.0,287.5784449997809,4.0,1.0,phase_3,,,,,1038.0,6.0,692.0,1038.0,346.0,865.0,173.0,519.0,cyan,hexagon
0.0,5.0,1.0,1.0,7.0,3.0,314.989876999789,4.0,1.0,phase_3,,,,,405.0,3.0,135.0,270.0,405.0,810.0,540.0,675.0,blue,diamond
0.0,5.0,1.0,1.0,7.0,4.0,259.9841800001741,4.0,1.0,phase_3,,,,,696.0,6.0,464.0,232.0,116.0,696.0,348.0,580.0,blue,diamond
0.0,5.0,1.0,1.0,7.0,5.0,243.055051999363,4.0,1.0,phase_3,,,,,154.0,1.0,616.0,308.0,924.0,770.0,154.0,462.0,blue,diamond
0.0,6.0,2.0,1.0,7.0,6.0,436.1142190000464,4.0,1.0,phase_3,,,,,616.0,4.0,462.0,154.0,770.0,924.0,308.0,616.0,cyan,hexagon
0.0,4.0,4.0,0.0,7.0,3.0,372.7422669999214,4.0,1.0,phase_3,,,,,135.0,1.0,405.0,270.0,135.0,675.0,810.0,540.0,magenta,triangle
0.0,7.0,3.0,1.0,7.0,1.0,223.3051110006272,4.0,1.0,phase_3,,,,,154.0,1.0,154.0,616.0,462.0,770.0,308.0,924.0,gray,cross
0.0,1.0,1.0,0.0,7.0,5.0,370.8629940001628,4.0,1.0,phase_3,,,,,1038.0,6.0,173.0,519.0,692.0,865.0,1038.0,346.0,yellow,I
0.0,7.0,3.0,1.0,7.0,2.0,283.6379729997134,4.0,1.0,phase_3,,,,,675.0,5.0,810.0,675.0,135.0,540.0,270.0,405.0,gray,cross
0.0,4.0,4.0,0.0,7.0,5.0,243.6025560000416,4.0,1.0,phase_3,,,,,770.0,5.0,616.0,154.0,308.0,924.0,770.0,462.0,magenta,triangle
0.0,5.0,1.0,1.0,7.0,2.0,384.2472719998113,4.0,1.0,phase_3,,,,,696.0,6.0,348.0,696.0,232.0,116.0,464.0,580.0,blue,diamond
0.0,3.0,3.0,0.0,7.0,5.0,344.0207099993131,4.0,1.0,phase_3,,,,,462.0,3.0,154.0,308.0,770.0,616.0,462.0,924.0,white,circle
0.0,8.0,4.0,1.0,7.0,3.0,381.5290049997202,4.0,1.0,phase_3,,,,,348.0,3.0,696.0,116.0,348.0,232.0,580.0,464.0,orange,flipped triangle
0.0,2.0,2.0,0.0,7.0,4.0,410.6050230002438,4.0,1.0,phase_3,,,,,462.0,3.0,616.0,924.0,154.0,462.0,308.0,770.0,green,square
0.0,4.0,4.0,0.0,7.0,3.0,308.3788889998686,4.0,1.0,phase_3,,,,,1152.0,6.0,768.0,576.0,1152.0,192.0,384.0,960.0,magenta,triangle
0.0,1.0,1.0,0.0,7.0,5.0,316.3740689997212,4.0,1.0,phase_3,,,,,540.0,4.0,135.0,270.0,405.0,810.0,540.0,675.0,yellow,I
0.0,3.0,3.0,0.0,7.0,3.0,565.2639479994832,4.0,1.0,phase_3,,,,,462.0,3.0,924.0,616.0,462.0,770.0,154.0,308.0,white,circle
0.0,2.0,2.0,0.0,7.0,4.0,428.0255020003096,4.0,1.0,phase_3,,,,,692.0,4.0,346.0,1038.0,865.0,692.0,173.0,519.0,green,square
0.0,1.0,1.0,0.0,7.0,4.0,568.1830479998098,4.0,1.0,phase_3,,,,,348.0,3.0,116.0,464.0,232.0,348.0,696.0,580.0,yellow,I
