raw_reward_magnitude,stim_reward,stepwise_reward_magnitude,paired_with_stopping,stim_location,response,reaction_time,block,num_trial_presentations,which_phase,stop_signal_trial_type,left_SSD,right_SSD,accuracy,chosen_bidding_amount,chosen_bidding_level,possible_bid_1,possible_bid_2,possible_bid_3,possible_bid_4,possible_bid_5,possible_bid_6,color_text,shape_text
0.0,4.0,0.0,0.0,2.0,2.0,552.0897449998756,1.0,1.0,phase_1,,,,,,,,,,,,,gray,cross
343.0,2.0,2.0,0.0,4.0,4.0,495.4413339999064,1.0,1.0,phase_1,,,,,,,,,,,,,cyan,circle
0.0,3.0,0.0,0.0,4.0,4.0,393.5755539998808,1.0,1.0,phase_1,,,,,,,,,,,,,orange,hexagon
1300.0,4.0,4.0,0.0,2.0,2.0,439.8286660000394,1.0,1.0,phase_1,,,,,,,,,,,,,gray,cross
154.0,5.0,1.0,1.0,1.0,1.0,476.4075390000926,1.0,1.0,phase_1,,,,,,,,,,,,,green,I
0.0,6.0,0.0,1.0,4.0,4.0,448.3544330000768,1.0,1.0,phase_1,,,,,,,,,,,,,yellow,triangle
320.0,6.0,2.0,1.0,1.0,1.0,450.0876970000718,1.0,1.0,phase_1,,,,,,,,,,,,,yellow,triangle
301.0,2.0,2.0,0.0,4.0,4.0,412.9588339999372,1.0,1.0,phase_1,,,,,,,,,,,,,cyan,circle
181.0,1.0,1.0,0.0,3.0,3.0,345.1991079998606,1.0,1.0,phase_1,,,,,,,,,,,,,white,diamond
146.0,5.0,1.0,1.0,3.0,3.0,447.8366819998882,1.0,1.0,phase_1,,,,,,,,,,,,,green,I
1325.0,4.0,4.0,0.0,3.0,3.0,364.4959309999649,1.0,1.0,phase_1,,,,,,,,,,,,,gray,cross
145.0,1.0,1.0,0.0,4.0,4.0,318.8350540001465,1.0,1.0,phase_1,,,,,,,,,,,,,white,diamond
1292.0,8.0,4.0,1.0,4.0,4.0,412.0827199999439,1.0,1.0,phase_1,,,,,,,,,,,,,magenta,flipped triangle
320.0,6.0,2.0,1.0,1.0,1.0,383.6320579998755,1.0,1.0,phase_1,,,,,,,,,,,,,yellow,triangle
0.0,1.0,0.0,0.0,4.0,4.0,538.7398740001572,1.0,1.0,phase_1,,,,,,,,,,,,,white,diamond
183.0,5.0,1.0,1.0,1.0,1.0,476.6280589999496,1.0,1.0,phase_1,,,,,,,,,,,,,green,I
162.0,1.0,1.0,0.0,3.0,3.0,373.22154999992557,1.0,1.0,phase_1,,,,,,,,,,,,,white,diamond
1307.0,8.0,4.0,1.0,4.0,4.0,402.2960899999361,1.0,1.0,phase_1,,,,,,,,,,,,,magenta,flipped triangle
635.0,7.0,3.0,1.0,4.0,4.0,434.5883989999493,1.0,1.0,phase_1,,,,,,,,,,,,,blue,square
1289.0,8.0,4.0,1.0,3.0,3.0,373.8597010001285,1.0,1.0,phase_1,,,,,,,,,,,,,magenta,flipped triangle
1296.0,8.0,4.0,1.0,2.0,2.0,568.7581219999629,1.0,2.0,phase_1,,,,,,,,,,,,,magenta,flipped triangle
307.0,2.0,2.0,0.0,2.0,2.0,541.9098120000854,1.0,1.0,phase_1,,,,,,,,,,,,,cyan,circle
1281.0,4.0,4.0,0.0,3.0,3.0,467.8303680000226,1.0,1.0,phase_1,,,,,,,,,,,,,gray,cross
652.0,7.0,3.0,1.0,2.0,2.0,505.63383700000486,1.0,1.0,phase_1,,,,,,,,,,,,,blue,square
165.0,1.0,1.0,0.0,4.0,4.0,383.4029549998377,1.0,1.0,phase_1,,,,,,,,,,,,,white,diamond
336.0,2.0,2.0,0.0,1.0,1.0,447.618139000042,1.0,1.0,phase_1,,,,,,,,,,,,,cyan,circle
673.0,3.0,3.0,0.0,2.0,2.0,448.9523710001322,1.0,1.0,phase_1,,,,,,,,,,,,,orange,hexagon
182.0,5.0,1.0,1.0,3.0,3.0,430.0843220000843,1.0,1.0,phase_1,,,,,,,,,,,,,green,I
331.0,6.0,2.0,1.0,1.0,1.0,374.0310900000168,1.0,1.0,phase_1,,,,,,,,,,,,,yellow,triangle
319.0,6.0,2.0,1.0,3.0,3.0,430.1904489998378,1.0,2.0,phase_1,,,,,,,,,,,,,yellow,triangle
161.0,1.0,1.0,0.0,3.0,3.0,430.4475579999689,1.0,1.0,phase_1,,,,,,,,,,,,,white,diamond
1315.0,4.0,4.0,0.0,3.0,3.0,513.2848129999275,1.0,1.0,phase_1,,,,,,,,,,,,,gray,cross
652.0,3.0,3.0,0.0,3.0,3.0,400.9128390000569,1.0,1.0,phase_1,,,,,,,,,,,,,orange,hexagon
0.0,5.0,0.0,1.0,2.0,2.0,458.0657880001126,1.0,1.0,phase_1,,,,,,,,,,,,,green,I
0.0,3.0,0.0,0.0,4.0,4.0,356.2999020000461,1.0,1.0,phase_1,,,,,,,,,,,,,orange,hexagon
154.0,1.0,1.0,0.0,4.0,4.0,345.9590879999723,1.0,1.0,phase_1,,,,,,,,,,,,,white,diamond
340.0,6.0,2.0,1.0,1.0,1.0,458.5463340001752,1.0,1.0,phase_1,,,,,,,,,,,,,yellow,triangle
659.0,7.0,3.0,1.0,4.0,4.0,411.0204099999919,1.0,1.0,phase_1,,,,,,,,,,,,,blue,square
1276.0,4.0,4.0,0.0,2.0,2.0,598.0291299999863,1.0,1.0,phase_1,,,,,,,,,,,,,gray,cross
1322.0,4.0,4.0,0.0,1.0,1.0,550.9666399998423,1.0,1.0,phase_1,,,,,,,,,,,,,gray,cross
0.0,2.0,0.0,0.0,2.0,2.0,572.1394619999955,1.0,1.0,phase_1,,,,,,,,,,,,,cyan,circle
627.0,3.0,3.0,0.0,2.0,2.0,429.3019230001391,1.0,1.0,phase_1,,,,,,,,,,,,,orange,hexagon
661.0,7.0,3.0,1.0,3.0,3.0,440.103272999977,1.0,1.0,phase_1,,,,,,,,,,,,,blue,square
317.0,2.0,2.0,0.0,4.0,4.0,365.2245900000253,1.0,1.0,phase_1,,,,,,,,,,,,,cyan,circle
1294.0,8.0,4.0,1.0,2.0,2.0,421.1986180000622,1.0,1.0,phase_1,,,,,,,,,,,,,magenta,flipped triangle
0.0,6.0,0.0,1.0,2.0,2.0,523.9256700001533,1.0,1.0,phase_1,,,,,,,,,,,,,yellow,triangle
1283.0,8.0,4.0,1.0,1.0,1.0,495.6381270001202,1.0,1.0,phase_1,,,,,,,,,,,,,magenta,flipped triangle
150.0,5.0,1.0,1.0,3.0,3.0,571.8983130000197,1.0,1.0,phase_1,,,,,,,,,,,,,green,I
0.0,3.0,0.0,0.0,4.0,4.0,375.2961919999507,1.0,1.0,phase_1,,,,,,,,,,,,,orange,hexagon
0.0,6.0,0.0,1.0,1.0,1.0,495.9132310000314,1.0,1.0,phase_1,,,,,,,,,,,,,yellow,triangle
1304.0,4.0,4.0,0.0,2.0,2.0,430.1597389999188,1.0,1.0,phase_1,,,,,,,,,,,,,gray,cross
1301.0,4.0,4.0,0.0,4.0,4.0,589.3480659999568,1.0,1.0,phase_1,,,,,,,,,,,,,gray,cross
156.0,5.0,1.0,1.0,2.0,2.0,570.513136000045,1.0,1.0,phase_1,,,,,,,,,,,,,green,I
183.0,5.0,1.0,1.0,1.0,1.0,467.0927280001251,1.0,1.0,phase_1,,,,,,,,,,,,,green,I
320.0,2.0,2.0,0.0,1.0,1.0,468.3192689999487,1.0,1.0,phase_1,,,,,,,,,,,,,cyan,circle
330.0,2.0,2.0,0.0,4.0,4.0,440.456592000146,1.0,1.0,phase_1,,,,,,,,,,,,,cyan,circle
633.0,3.0,3.0,0.0,2.0,2.0,504.79290699991,1.0,1.0,phase_1,,,,,,,,,,,,,orange,hexagon
629.0,7.0,3.0,1.0,1.0,1.0,486.4743440000438,1.0,1.0,phase_1,,,,,,,,,,,,,blue,square
674.0,3.0,3.0,0.0,4.0,4.0,479.2748789998313,1.0,1.0,phase_1,,,,,,,,,,,,,orange,hexagon
339.0,2.0,2.0,0.0,1.0,1.0,457.2080730001744,1.0,1.0,phase_1,,,,,,,,,,,,,cyan,circle
1325.0,8.0,4.0,1.0,4.0,4.0,430.9975710000344,1.0,1.0,phase_1,,,,,,,,,,,,,magenta,flipped triangle
0.0,5.0,0.0,1.0,1.0,1.0,402.7100509999854,1.0,1.0,phase_1,,,,,,,,,,,,,green,I
301.0,2.0,2.0,0.0,3.0,3.0,412.6966819999325,1.0,1.0,phase_1,,,,,,,,,,,,,cyan,circle
639.0,7.0,3.0,1.0,1.0,1.0,476.8899210000654,1.0,1.0,phase_1,,,,,,,,,,,,,blue,square
1302.0,4.0,4.0,0.0,3.0,3.0,516.1093320000418,1.0,1.0,phase_1,,,,,,,,,,,,,gray,cross
340.0,2.0,2.0,0.0,1.0,1.0,488.2167549999394,1.0,1.0,phase_1,,,,,,,,,,,,,cyan,circle
652.0,3.0,3.0,0.0,4.0,4.0,375.2050570001302,1.0,1.0,phase_1,,,,,,,,,,,,,orange,hexagon
161.0,5.0,1.0,1.0,2.0,2.0,644.3212649999168,1.0,1.0,phase_1,,,,,,,,,,,,,green,I
156.0,1.0,1.0,0.0,3.0,3.0,560.2944929999012,1.0,1.0,phase_1,,,,,,,,,,,,,white,diamond
162.0,5.0,1.0,1.0,1.0,1.0,528.4365059999345,1.0,1.0,phase_1,,,,,,,,,,,,,green,I
0.0,7.0,0.0,1.0,1.0,1.0,486.4313870000387,1.0,1.0,phase_1,,,,,,,,,,,,,blue,square
638.0,3.0,3.0,0.0,1.0,1.0,448.6127679999754,1.0,1.0,phase_1,,,,,,,,,,,,,orange,hexagon
314.0,6.0,2.0,1.0,2.0,2.0,412.2062359999745,1.0,1.0,phase_1,,,,,,,,,,,,,yellow,triangle
154.0,5.0,1.0,1.0,2.0,2.0,504.9849780000386,1.0,2.0,phase_1,,,,,,,,,,,,,green,I
1291.0,4.0,4.0,0.0,1.0,1.0,487.852040000007,1.0,1.0,phase_1,,,,,,,,,,,,,gray,cross
1313.0,8.0,4.0,1.0,2.0,2.0,503.56669200004944,1.0,1.0,phase_1,,,,,,,,,,,,,magenta,flipped triangle
633.0,7.0,3.0,1.0,2.0,2.0,505.2942610000173,1.0,1.0,phase_1,,,,,,,,,,,,,blue,square
342.0,6.0,2.0,1.0,4.0,4.0,495.7965859998694,1.0,1.0,phase_1,,,,,,,,,,,,,yellow,triangle
635.0,3.0,3.0,0.0,3.0,3.0,590.7429390001653,1.0,1.0,phase_1,,,,,,,,,,,,,orange,hexagon
0.0,8.0,0.0,1.0,1.0,1.0,439.2624789998081,1.0,1.0,phase_1,,,,,,,,,,,,,magenta,flipped triangle
645.0,7.0,3.0,1.0,2.0,2.0,477.7935950000938,1.0,1.0,phase_1,,,,,,,,,,,,,blue,square
145.0,5.0,1.0,1.0,1.0,1.0,457.2218480000174,1.0,1.0,phase_1,,,,,,,,,,,,,green,I
347.0,6.0,2.0,1.0,4.0,4.0,468.7308600000506,1.0,1.0,phase_1,,,,,,,,,,,,,yellow,triangle
0.0,7.0,0.0,1.0,2.0,2.0,440.0110660001246,1.0,1.0,phase_1,,,,,,,,,,,,,blue,square
138.0,5.0,1.0,1.0,4.0,4.0,459.6947279999313,1.0,1.0,phase_1,,,,,,,,,,,,,green,I
154.0,1.0,1.0,0.0,1.0,1.0,477.0234599998275,1.0,1.0,phase_1,,,,,,,,,,,,,white,diamond
659.0,7.0,3.0,1.0,3.0,3.0,485.7059709997884,1.0,1.0,phase_1,,,,,,,,,,,,,blue,square
1284.0,4.0,4.0,0.0,1.0,1.0,513.4386810000251,1.0,1.0,phase_1,,,,,,,,,,,,,gray,cross
0.0,2.0,0.0,0.0,3.0,3.0,499.5661010000276,1.0,1.0,phase_1,,,,,,,,,,,,,cyan,circle
1296.0,4.0,4.0,0.0,1.0,1.0,496.4273940001931,1.0,1.0,phase_1,,,,,,,,,,,,,gray,cross
1278.0,8.0,4.0,1.0,1.0,1.0,430.2377700000761,1.0,1.0,phase_1,,,,,,,,,,,,,magenta,flipped triangle
1278.0,8.0,4.0,1.0,3.0,3.0,448.6499839999851,1.0,1.0,phase_1,,,,,,,,,,,,,magenta,flipped triangle
627.0,7.0,3.0,1.0,3.0,3.0,438.837815999932,1.0,1.0,phase_1,,,,,,,,,,,,,blue,square
675.0,3.0,3.0,0.0,1.0,1.0,422.1078779999061,1.0,1.0,phase_1,,,,,,,,,,,,,orange,hexagon
1296.0,4.0,4.0,0.0,2.0,2.0,504.49085300010665,1.0,1.0,phase_1,,,,,,,,,,,,,gray,cross
0.0,4.0,0.0,0.0,1.0,1.0,449.1103950001616,1.0,1.0,phase_1,,,,,,,,,,,,,gray,cross
1284.0,8.0,4.0,1.0,4.0,4.0,468.91595399984,1.0,1.0,phase_1,,,,,,,,,,,,,magenta,flipped triangle
1312.0,8.0,4.0,1.0,1.0,1.0,466.9510039998386,1.0,1.0,phase_1,,,,,,,,,,,,,magenta,flipped triangle
0.0,7.0,0.0,1.0,1.0,1.0,525.1935210001193,1.0,1.0,phase_1,,,,,,,,,,,,,blue,square
171.0,5.0,1.0,1.0,3.0,3.0,786.1408440001014,1.0,1.0,phase_1,,,,,,,,,,,,,green,I
0.0,1.0,0.0,0.0,1.0,1.0,449.9986230000559,2.0,1.0,phase_1,,,,,,,,,,,,,white,diamond
1286.0,4.0,4.0,0.0,4.0,4.0,458.7355840001237,2.0,1.0,phase_1,,,,,,,,,,,,,gray,cross
321.0,6.0,2.0,1.0,2.0,2.0,448.5877429999618,2.0,1.0,phase_1,,,,,,,,,,,,,yellow,triangle
345.0,6.0,2.0,1.0,1.0,1.0,459.0193090000412,2.0,1.0,phase_1,,,,,,,,,,,,,yellow,triangle
320.0,2.0,2.0,0.0,4.0,4.0,457.7190409997911,2.0,1.0,phase_1,,,,,,,,,,,,,cyan,circle
0.0,4.0,0.0,0.0,1.0,1.0,430.0026589999106,2.0,1.0,phase_1,,,,,,,,,,,,,gray,cross
1295.0,4.0,4.0,0.0,1.0,1.0,458.3927989999665,2.0,1.0,phase_1,,,,,,,,,,,,,gray,cross
148.0,5.0,1.0,1.0,1.0,1.0,543.231182999989,2.0,1.0,phase_1,,,,,,,,,,,,,green,I
0.0,2.0,0.0,0.0,2.0,2.0,598.285419999911,2.0,1.0,phase_1,,,,,,,,,,,,,cyan,circle
1301.0,8.0,4.0,1.0,1.0,1.0,533.0553030000829,2.0,1.0,phase_1,,,,,,,,,,,,,magenta,flipped triangle
1287.0,4.0,4.0,0.0,4.0,4.0,474.8996379998971,2.0,1.0,phase_1,,,,,,,,,,,,,gray,cross
331.0,2.0,2.0,0.0,2.0,2.0,624.3218240001625,2.0,1.0,phase_1,,,,,,,,,,,,,cyan,circle
164.0,1.0,1.0,0.0,3.0,3.0,410.5445159998453,2.0,1.0,phase_1,,,,,,,,,,,,,white,diamond
1319.0,4.0,4.0,0.0,1.0,1.0,613.0646659999002,2.0,1.0,phase_1,,,,,,,,,,,,,gray,cross
0.0,7.0,0.0,1.0,2.0,2.0,866.9488349999028,2.0,1.0,phase_1,,,,,,,,,,,,,blue,square
330.0,6.0,2.0,1.0,2.0,2.0,581.3146130001314,2.0,1.0,phase_1,,,,,,,,,,,,,yellow,triangle
164.0,5.0,1.0,1.0,1.0,1.0,531.3296860001628,2.0,1.0,phase_1,,,,,,,,,,,,,green,I
333.0,6.0,2.0,1.0,1.0,1.0,374.437338000007,2.0,1.0,phase_1,,,,,,,,,,,,,yellow,triangle
1292.0,4.0,4.0,0.0,1.0,1.0,429.1346640000029,2.0,1.0,phase_1,,,,,,,,,,,,,gray,cross
157.0,5.0,1.0,1.0,2.0,2.0,365.4370920000929,2.0,1.0,phase_1,,,,,,,,,,,,,green,I
313.0,6.0,2.0,1.0,4.0,4.0,448.843707999913,2.0,2.0,phase_1,,,,,,,,,,,,,yellow,triangle
183.0,1.0,1.0,0.0,3.0,3.0,468.7914700000419,2.0,1.0,phase_1,,,,,,,,,,,,,white,diamond
333.0,2.0,2.0,0.0,2.0,2.0,378.7973270000293,2.0,1.0,phase_1,,,,,,,,,,,,,cyan,circle
173.0,1.0,1.0,0.0,4.0,4.0,673.5724249999748,2.0,1.0,phase_1,,,,,,,,,,,,,white,diamond
1306.0,8.0,4.0,1.0,1.0,1.0,430.914790000088,2.0,1.0,phase_1,,,,,,,,,,,,,magenta,flipped triangle
0.0,7.0,0.0,1.0,1.0,1.0,509.8243260001709,2.0,1.0,phase_1,,,,,,,,,,,,,blue,square
650.0,3.0,3.0,0.0,1.0,1.0,469.6190009999554,2.0,1.0,phase_1,,,,,,,,,,,,,orange,hexagon
342.0,2.0,2.0,0.0,3.0,3.0,562.5348589999248,2.0,1.0,phase_1,,,,,,,,,,,,,cyan,circle
157.0,5.0,1.0,1.0,2.0,2.0,522.4611599999207,2.0,1.0,phase_1,,,,,,,,,,,,,green,I
639.0,3.0,3.0,0.0,2.0,2.0,458.2262139999784,2.0,1.0,phase_1,,,,,,,,,,,,,orange,hexagon
0.0,8.0,0.0,1.0,2.0,2.0,414.4533109999884,2.0,1.0,phase_1,,,,,,,,,,,,,magenta,flipped triangle
0.0,8.0,0.0,1.0,4.0,4.0,413.9447219999965,2.0,2.0,phase_1,,,,,,,,,,,,,magenta,flipped triangle
627.0,7.0,3.0,1.0,2.0,2.0,570.726132000118,2.0,1.0,phase_1,,,,,,,,,,,,,blue,square
181.0,5.0,1.0,1.0,4.0,4.0,393.3259539999199,2.0,1.0,phase_1,,,,,,,,,,,,,green,I
1299.0,8.0,4.0,1.0,2.0,2.0,565.2472579999994,2.0,1.0,phase_1,,,,,,,,,,,,,magenta,flipped triangle
146.0,1.0,1.0,0.0,4.0,4.0,479.075843000146,2.0,1.0,phase_1,,,,,,,,,,,,,white,diamond
661.0,3.0,3.0,0.0,2.0,2.0,757.1332149998398,2.0,1.0,phase_1,,,,,,,,,,,,,orange,hexagon
347.0,6.0,2.0,1.0,1.0,1.0,469.328298000164,2.0,1.0,phase_1,,,,,,,,,,,,,yellow,triangle
0.0,2.0,0.0,0.0,4.0,4.0,459.7927099998742,2.0,1.0,phase_1,,,,,,,,,,,,,cyan,circle
171.0,1.0,1.0,0.0,4.0,4.0,449.8383390000526,2.0,1.0,phase_1,,,,,,,,,,,,,white,diamond
347.0,2.0,2.0,0.0,2.0,2.0,581.3561539998773,2.0,1.0,phase_1,,,,,,,,,,,,,cyan,circle
148.0,1.0,1.0,0.0,2.0,2.0,430.6922129999293,2.0,1.0,phase_1,,,,,,,,,,,,,white,diamond
0.0,4.0,0.0,0.0,2.0,2.0,531.4150810002047,2.0,1.0,phase_1,,,,,,,,,,,,,gray,cross
165.0,5.0,1.0,1.0,4.0,4.0,720.2498510000623,2.0,1.0,phase_1,,,,,,,,,,,,,green,I
1287.0,8.0,4.0,1.0,2.0,2.0,531.4188499999091,2.0,1.0,phase_1,,,,,,,,,,,,,magenta,flipped triangle
182.0,1.0,1.0,0.0,1.0,1.0,412.6591099998222,2.0,1.0,phase_1,,,,,,,,,,,,,white,diamond
1299.0,4.0,4.0,0.0,2.0,2.0,430.3392300000723,2.0,1.0,phase_1,,,,,,,,,,,,,gray,cross
643.0,7.0,3.0,1.0,4.0,4.0,440.5181259999153,2.0,1.0,phase_1,,,,,,,,,,,,,blue,square
0.0,5.0,0.0,1.0,3.0,3.0,533.4590709999247,2.0,1.0,phase_1,,,,,,,,,,,,,green,I
675.0,7.0,3.0,1.0,3.0,3.0,496.854944000006,2.0,1.0,phase_1,,,,,,,,,,,,,blue,square
652.0,7.0,3.0,1.0,4.0,4.0,478.9217329998791,2.0,1.0,phase_1,,,,,,,,,,,,,blue,square
1307.0,4.0,4.0,0.0,2.0,2.0,496.9308940001156,2.0,1.0,phase_1,,,,,,,,,,,,,gray,cross
1299.0,4.0,4.0,0.0,3.0,3.0,516.3797569998678,2.0,1.0,phase_1,,,,,,,,,,,,,gray,cross
0.0,3.0,0.0,0.0,1.0,1.0,385.076614999889,2.0,1.0,phase_1,,,,,,,,,,,,,orange,hexagon
0.0,1.0,0.0,0.0,4.0,4.0,403.2205460000568,2.0,1.0,phase_1,,,,,,,,,,,,,white,diamond
1319.0,8.0,4.0,1.0,1.0,1.0,458.5768059998827,2.0,1.0,phase_1,,,,,,,,,,,,,magenta,flipped triangle
349.0,2.0,2.0,0.0,1.0,1.0,478.0824049998955,2.0,1.0,phase_1,,,,,,,,,,,,,cyan,circle
302.0,6.0,2.0,1.0,3.0,3.0,404.4687220000469,2.0,1.0,phase_1,,,,,,,,,,,,,yellow,triangle
138.0,1.0,1.0,0.0,1.0,1.0,383.2207119999111,2.0,1.0,phase_1,,,,,,,,,,,,,white,diamond
0.0,5.0,0.0,1.0,4.0,4.0,449.2800749999333,2.0,1.0,phase_1,,,,,,,,,,,,,green,I
659.0,3.0,3.0,0.0,3.0,3.0,590.0775170000543,2.0,1.0,phase_1,,,,,,,,,,,,,orange,hexagon
668.0,7.0,3.0,1.0,2.0,2.0,478.2476359998782,2.0,2.0,phase_1,,,,,,,,,,,,,blue,square
145.0,1.0,1.0,0.0,3.0,3.0,478.6891080000259,2.0,1.0,phase_1,,,,,,,,,,,,,white,diamond
652.0,7.0,3.0,1.0,1.0,1.0,514.2530949999582,2.0,1.0,phase_1,,,,,,,,,,,,,blue,square
147.0,1.0,1.0,0.0,1.0,1.0,477.108792999843,2.0,1.0,phase_1,,,,,,,,,,,,,white,diamond
0.0,1.0,0.0,0.0,3.0,3.0,402.7942200000325,2.0,1.0,phase_1,,,,,,,,,,,,,white,diamond
0.0,1.0,0.0,0.0,1.0,1.0,486.7936840000766,2.0,1.0,phase_1,,,,,,,,,,,,,white,diamond
320.0,6.0,2.0,1.0,2.0,2.0,411.4940620002016,2.0,1.0,phase_1,,,,,,,,,,,,,yellow,triangle
0.0,4.0,0.0,0.0,4.0,4.0,531.5644879999581,2.0,1.0,phase_1,,,,,,,,,,,,,gray,cross
641.0,7.0,3.0,1.0,3.0,3.0,533.2841110000572,2.0,1.0,phase_1,,,,,,,,,,,,,blue,square
0.0,6.0,0.0,1.0,3.0,3.0,440.039926000054,2.0,1.0,phase_1,,,,,,,,,,,,,yellow,triangle
1278.0,4.0,4.0,0.0,1.0,1.0,579.907680000133,2.0,1.0,phase_1,,,,,,,,,,,,,gray,cross
161.0,1.0,1.0,0.0,1.0,1.0,504.8796369999309,2.0,1.0,phase_1,,,,,,,,,,,,,white,diamond
345.0,2.0,2.0,0.0,4.0,4.0,467.8353369999968,2.0,1.0,phase_1,,,,,,,,,,,,,cyan,circle
1291.0,8.0,4.0,1.0,2.0,2.0,449.2750910001177,2.0,1.0,phase_1,,,,,,,,,,,,,magenta,flipped triangle
0.0,2.0,0.0,0.0,4.0,4.0,458.6958110000978,2.0,1.0,phase_1,,,,,,,,,,,,,cyan,circle
186.0,1.0,1.0,0.0,2.0,2.0,457.7724339999349,2.0,1.0,phase_1,,,,,,,,,,,,,white,diamond
0.0,2.0,0.0,0.0,3.0,3.0,421.2187719999747,2.0,1.0,phase_1,,,,,,,,,,,,,cyan,circle
1301.0,8.0,4.0,1.0,4.0,4.0,495.3177380000397,2.0,1.0,phase_1,,,,,,,,,,,,,magenta,flipped triangle
0.0,4.0,0.0,0.0,4.0,4.0,514.9318670000866,2.0,1.0,phase_1,,,,,,,,,,,,,gray,cross
154.0,1.0,1.0,0.0,1.0,1.0,506.1209450000206,2.0,1.0,phase_1,,,,,,,,,,,,,white,diamond
307.0,6.0,2.0,1.0,4.0,4.0,699.5743390000371,2.0,2.0,phase_1,,,,,,,,,,,,,yellow,triangle
638.0,7.0,3.0,1.0,3.0,3.0,550.5340119998436,2.0,1.0,phase_1,,,,,,,,,,,,,blue,square
633.0,7.0,3.0,1.0,4.0,4.0,430.0382839999201,2.0,1.0,phase_1,,,,,,,,,,,,,blue,square
1300.0,8.0,4.0,1.0,2.0,2.0,448.826543999985,2.0,1.0,phase_1,,,,,,,,,,,,,magenta,flipped triangle
169.0,5.0,1.0,1.0,1.0,1.0,420.4909770000995,2.0,1.0,phase_1,,,,,,,,,,,,,green,I
0.0,8.0,0.0,1.0,2.0,2.0,437.9373659999146,2.0,1.0,phase_1,,,,,,,,,,,,,magenta,flipped triangle
138.0,1.0,1.0,0.0,2.0,2.0,458.2787869999265,2.0,1.0,phase_1,,,,,,,,,,,,,white,diamond
0.0,4.0,0.0,0.0,1.0,1.0,588.7302069997986,2.0,1.0,phase_1,,,,,,,,,,,,,gray,cross
157.0,1.0,1.0,0.0,4.0,4.0,393.5528659999363,2.0,1.0,phase_1,,,,,,,,,,,,,white,diamond
0.0,2.0,0.0,0.0,3.0,3.0,504.22105100005865,2.0,1.0,phase_1,,,,,,,,,,,,,cyan,circle
183.0,1.0,1.0,0.0,1.0,1.0,496.5933129997211,2.0,1.0,phase_1,,,,,,,,,,,,,white,diamond
661.0,7.0,3.0,1.0,2.0,2.0,561.4623579999716,2.0,1.0,phase_1,,,,,,,,,,,,,blue,square
1313.0,4.0,4.0,0.0,4.0,4.0,534.6126120002737,2.0,1.0,phase_1,,,,,,,,,,,,,gray,cross
169.0,1.0,1.0,0.0,2.0,2.0,718.7301850003678,2.0,1.0,phase_1,,,,,,,,,,,,,white,diamond
321.0,2.0,2.0,0.0,3.0,3.0,944.0328140003658,2.0,1.0,phase_1,,,,,,,,,,,,,cyan,circle
312.0,2.0,2.0,0.0,3.0,3.0,485.9814709998318,2.0,1.0,phase_1,,,,,,,,,,,,,cyan,circle
0.0,3.0,0.0,0.0,1.0,1.0,561.0737110000628,2.0,1.0,phase_1,,,,,,,,,,,,,orange,hexagon
673.0,3.0,3.0,0.0,2.0,2.0,513.6673289998726,2.0,1.0,phase_1,,,,,,,,,,,,,orange,hexagon
1282.0,8.0,4.0,1.0,1.0,1.0,970.8864889998948,2.0,1.0,phase_1,,,,,,,,,,,,,magenta,flipped triangle
0.0,6.0,0.0,1.0,3.0,3.0,476.9362070001079,3.0,2.0,phase_1,,,,,,,,,,,,,yellow,triangle
0.0,6.0,0.0,1.0,4.0,4.0,497.4482900001931,3.0,1.0,phase_1,,,,,,,,,,,,,yellow,triangle
1286.0,8.0,4.0,1.0,2.0,2.0,394.0060820000326,3.0,1.0,phase_1,,,,,,,,,,,,,magenta,flipped triangle
0.0,5.0,0.0,1.0,1.0,1.0,393.9010429999143,3.0,1.0,phase_1,,,,,,,,,,,,,green,I
0.0,7.0,0.0,1.0,1.0,1.0,894.0793019996818,3.0,1.0,phase_1,,,,,,,,,,,,,blue,square
173.0,1.0,1.0,0.0,2.0,2.0,600.641085999996,3.0,1.0,phase_1,,,,,,,,,,,,,white,diamond
646.0,7.0,3.0,1.0,2.0,2.0,620.1737890000913,3.0,1.0,phase_1,,,,,,,,,,,,,blue,square
1319.0,8.0,4.0,1.0,3.0,3.0,871.8461729999945,3.0,1.0,phase_1,,,,,,,,,,,,,magenta,flipped triangle
1322.0,4.0,4.0,0.0,4.0,4.0,844.698659000187,3.0,1.0,phase_1,,,,,,,,,,,,,gray,cross
173.0,5.0,1.0,1.0,4.0,4.0,450.4665529998419,3.0,1.0,phase_1,,,,,,,,,,,,,green,I
633.0,7.0,3.0,1.0,4.0,4.0,525.4295839999941,3.0,1.0,phase_1,,,,,,,,,,,,,blue,square
669.0,7.0,3.0,1.0,2.0,2.0,602.2095109997281,3.0,1.0,phase_1,,,,,,,,,,,,,blue,square
649.0,7.0,3.0,1.0,2.0,2.0,608.7559040001906,3.0,1.0,phase_1,,,,,,,,,,,,,blue,square
312.0,2.0,2.0,0.0,2.0,2.0,597.5041870001405,3.0,1.0,phase_1,,,,,,,,,,,,,cyan,circle
664.0,3.0,3.0,0.0,1.0,1.0,552.4034400000346,3.0,1.0,phase_1,,,,,,,,,,,,,orange,hexagon
0.0,6.0,0.0,1.0,3.0,3.0,432.4788569997508,3.0,1.0,phase_1,,,,,,,,,,,,,yellow,triangle
343.0,6.0,2.0,1.0,4.0,4.0,779.2513730000792,3.0,1.0,phase_1,,,,,,,,,,,,,yellow,triangle
674.0,7.0,3.0,1.0,1.0,1.0,638.094246000037,3.0,1.0,phase_1,,,,,,,,,,,,,blue,square
628.0,7.0,3.0,1.0,3.0,3.0,430.1503619999494,3.0,2.0,phase_1,,,,,,,,,,,,,blue,square
0.0,7.0,0.0,1.0,2.0,2.0,588.9500159996715,3.0,1.0,phase_1,,,,,,,,,,,,,blue,square
305.0,6.0,2.0,1.0,1.0,1.0,402.4759760000052,3.0,1.0,phase_1,,,,,,,,,,,,,yellow,triangle
1312.0,4.0,4.0,0.0,3.0,3.0,429.7583470001882,3.0,1.0,phase_1,,,,,,,,,,,,,gray,cross
633.0,3.0,3.0,0.0,3.0,3.0,458.7198240001271,3.0,1.0,phase_1,,,,,,,,,,,,,orange,hexagon
173.0,5.0,1.0,1.0,3.0,3.0,411.5816620001169,3.0,1.0,phase_1,,,,,,,,,,,,,green,I
313.0,2.0,2.0,0.0,2.0,2.0,495.672026000193,3.0,1.0,phase_1,,,,,,,,,,,,,cyan,circle
1307.0,4.0,4.0,0.0,3.0,3.0,476.9949869996708,3.0,1.0,phase_1,,,,,,,,,,,,,gray,cross
166.0,1.0,1.0,0.0,3.0,3.0,429.0492330001143,3.0,1.0,phase_1,,,,,,,,,,,,,white,diamond
1317.0,8.0,4.0,1.0,3.0,3.0,429.646853000122,3.0,1.0,phase_1,,,,,,,,,,,,,magenta,flipped triangle
173.0,1.0,1.0,0.0,4.0,4.0,691.0282389999338,3.0,1.0,phase_1,,,,,,,,,,,,,white,diamond
669.0,3.0,3.0,0.0,1.0,1.0,560.6589059998441,3.0,1.0,phase_1,,,,,,,,,,,,,orange,hexagon
652.0,3.0,3.0,0.0,3.0,3.0,458.6454010000125,3.0,1.0,phase_1,,,,,,,,,,,,,orange,hexagon
645.0,3.0,3.0,0.0,4.0,4.0,439.394466000067,3.0,1.0,phase_1,,,,,,,,,,,,,orange,hexagon
0.0,5.0,0.0,1.0,1.0,1.0,514.1791340001873,3.0,1.0,phase_1,,,,,,,,,,,,,green,I
0.0,8.0,0.0,1.0,3.0,3.0,382.908597000096,3.0,1.0,phase_1,,,,,,,,,,,,,magenta,flipped triangle
651.0,3.0,3.0,0.0,2.0,2.0,495.5348590001449,3.0,1.0,phase_1,,,,,,,,,,,,,orange,hexagon
315.0,2.0,2.0,0.0,1.0,1.0,448.3424519999062,3.0,1.0,phase_1,,,,,,,,,,,,,cyan,circle
1296.0,8.0,4.0,1.0,3.0,3.0,532.7555329999996,3.0,1.0,phase_1,,,,,,,,,,,,,magenta,flipped triangle
1299.0,4.0,4.0,0.0,3.0,3.0,439.2753520000951,3.0,1.0,phase_1,,,,,,,,,,,,,gray,cross
349.0,2.0,2.0,0.0,4.0,4.0,392.8747580002891,3.0,1.0,phase_1,,,,,,,,,,,,,cyan,circle
180.0,1.0,1.0,0.0,4.0,4.0,364.6329369998966,3.0,1.0,phase_1,,,,,,,,,,,,,white,diamond
0.0,2.0,0.0,0.0,1.0,1.0,430.7738349998544,3.0,1.0,phase_1,,,,,,,,,,,,,cyan,circle
180.0,5.0,1.0,1.0,3.0,3.0,364.1349399999853,3.0,1.0,phase_1,,,,,,,,,,,,,green,I
317.0,6.0,2.0,1.0,3.0,3.0,448.7606210000194,3.0,1.0,phase_1,,,,,,,,,,,,,yellow,triangle
0.0,4.0,0.0,0.0,2.0,2.0,523.2874560001619,3.0,1.0,phase_1,,,,,,,,,,,,,gray,cross
1307.0,8.0,4.0,1.0,2.0,2.0,448.6122190000969,3.0,1.0,phase_1,,,,,,,,,,,,,magenta,flipped triangle
1295.0,8.0,4.0,1.0,1.0,1.0,475.6762229999367,3.0,1.0,phase_1,,,,,,,,,,,,,magenta,flipped triangle
163.0,1.0,1.0,0.0,2.0,2.0,433.746813000198,3.0,1.0,phase_1,,,,,,,,,,,,,white,diamond
649.0,3.0,3.0,0.0,4.0,4.0,440.0007639997056,3.0,1.0,phase_1,,,,,,,,,,,,,orange,hexagon
0.0,7.0,0.0,1.0,2.0,2.0,505.0292089999857,3.0,1.0,phase_1,,,,,,,,,,,,,blue,square
645.0,3.0,3.0,0.0,3.0,3.0,551.1767809998673,3.0,1.0,phase_1,,,,,,,,,,,,,orange,hexagon
154.0,5.0,1.0,1.0,2.0,2.0,449.5011879998856,3.0,1.0,phase_1,,,,,,,,,,,,,green,I
0.0,2.0,0.0,0.0,4.0,4.0,392.510540999865,3.0,1.0,phase_1,,,,,,,,,,,,,cyan,circle
0.0,5.0,0.0,1.0,4.0,4.0,364.5476930000768,3.0,1.0,phase_1,,,,,,,,,,,,,green,I
0.0,5.0,0.0,1.0,3.0,3.0,589.5665450002525,3.0,1.0,phase_1,,,,,,,,,,,,,green,I
321.0,6.0,2.0,1.0,2.0,2.0,401.5886060001321,3.0,1.0,phase_1,,,,,,,,,,,,,yellow,triangle
1317.0,4.0,4.0,0.0,4.0,4.0,466.424231000019,3.0,1.0,phase_1,,,,,,,,,,,,,gray,cross
312.0,6.0,2.0,1.0,4.0,4.0,401.9655720003356,3.0,1.0,phase_1,,,,,,,,,,,,,yellow,triangle
654.0,3.0,3.0,0.0,3.0,3.0,503.40832300025795,3.0,1.0,phase_1,,,,,,,,,,,,,orange,hexagon
1313.0,4.0,4.0,0.0,4.0,4.0,410.7339770002909,3.0,1.0,phase_1,,,,,,,,,,,,,gray,cross
661.0,3.0,3.0,0.0,2.0,2.0,654.5694619999267,3.0,1.0,phase_1,,,,,,,,,,,,,orange,hexagon
665.0,3.0,3.0,0.0,4.0,4.0,475.7197330000053,3.0,1.0,phase_1,,,,,,,,,,,,,orange,hexagon
139.0,5.0,1.0,1.0,4.0,4.0,410.9957350001423,3.0,1.0,phase_1,,,,,,,,,,,,,green,I
138.0,5.0,1.0,1.0,2.0,2.0,475.350963999972,3.0,1.0,phase_1,,,,,,,,,,,,,green,I
1315.0,8.0,4.0,1.0,4.0,4.0,383.902673999728,3.0,1.0,phase_1,,,,,,,,,,,,,magenta,flipped triangle
1304.0,8.0,4.0,1.0,3.0,3.0,383.8022740001179,3.0,1.0,phase_1,,,,,,,,,,,,,magenta,flipped triangle
673.0,7.0,3.0,1.0,3.0,3.0,422.2503569999389,3.0,1.0,phase_1,,,,,,,,,,,,,blue,square
0.0,1.0,0.0,0.0,2.0,2.0,635.2526209998359,3.0,1.0,phase_1,,,,,,,,,,,,,white,diamond
307.0,2.0,2.0,0.0,1.0,1.0,448.1502309999996,3.0,1.0,phase_1,,,,,,,,,,,,,cyan,circle
0.0,8.0,0.0,1.0,4.0,4.0,447.8124279999065,3.0,1.0,phase_1,,,,,,,,,,,,,magenta,flipped triangle
302.0,6.0,2.0,1.0,3.0,3.0,486.4894040001672,3.0,1.0,phase_1,,,,,,,,,,,,,yellow,triangle
170.0,1.0,1.0,0.0,2.0,2.0,442.3287989998243,3.0,1.0,phase_1,,,,,,,,,,,,,white,diamond
660.0,7.0,3.0,1.0,4.0,4.0,400.3768100001252,3.0,1.0,phase_1,,,,,,,,,,,,,blue,square
1276.0,8.0,4.0,1.0,1.0,1.0,467.247980999673,3.0,1.0,phase_1,,,,,,,,,,,,,magenta,flipped triangle
139.0,1.0,1.0,0.0,2.0,2.0,550.1347439999336,3.0,1.0,phase_1,,,,,,,,,,,,,white,diamond
1278.0,8.0,4.0,1.0,3.0,3.0,476.5121929999623,3.0,1.0,phase_1,,,,,,,,,,,,,magenta,flipped triangle
0.0,1.0,0.0,0.0,1.0,1.0,392.1688759996868,3.0,1.0,phase_1,,,,,,,,,,,,,white,diamond
664.0,7.0,3.0,1.0,1.0,1.0,390.6998900001781,3.0,1.0,phase_1,,,,,,,,,,,,,blue,square
0.0,5.0,0.0,1.0,4.0,4.0,494.7950740001943,3.0,1.0,phase_1,,,,,,,,,,,,,green,I
170.0,5.0,1.0,1.0,1.0,1.0,503.5563770002227,3.0,1.0,phase_1,,,,,,,,,,,,,green,I
636.0,7.0,3.0,1.0,4.0,4.0,438.4979830001612,3.0,1.0,phase_1,,,,,,,,,,,,,blue,square
337.0,6.0,2.0,1.0,2.0,2.0,402.2376660000191,3.0,1.0,phase_1,,,,,,,,,,,,,yellow,triangle
0.0,1.0,0.0,0.0,4.0,4.0,494.3053839997446,3.0,1.0,phase_1,,,,,,,,,,,,,white,diamond
629.0,3.0,3.0,0.0,4.0,4.0,399.8824780001087,3.0,1.0,phase_1,,,,,,,,,,,,,orange,hexagon
1278.0,4.0,4.0,0.0,4.0,4.0,430.5754370002432,3.0,1.0,phase_1,,,,,,,,,,,,,gray,cross
147.0,5.0,1.0,1.0,3.0,3.0,421.3135230002081,3.0,1.0,phase_1,,,,,,,,,,,,,green,I
349.0,6.0,2.0,1.0,4.0,4.0,419.8672229999829,3.0,1.0,phase_1,,,,,,,,,,,,,yellow,triangle
154.0,1.0,1.0,0.0,1.0,1.0,550.173753999843,3.0,1.0,phase_1,,,,,,,,,,,,,white,diamond
1302.0,8.0,4.0,1.0,3.0,3.0,793.0627290002121,3.0,1.0,phase_1,,,,,,,,,,,,,magenta,flipped triangle
628.0,3.0,3.0,0.0,4.0,4.0,430.9608490002574,3.0,1.0,phase_1,,,,,,,,,,,,,orange,hexagon
629.0,3.0,3.0,0.0,4.0,4.0,420.3640460000315,3.0,1.0,phase_1,,,,,,,,,,,,,orange,hexagon
629.0,7.0,3.0,1.0,3.0,3.0,429.8636760004228,3.0,1.0,phase_1,,,,,,,,,,,,,blue,square
673.0,3.0,3.0,0.0,3.0,3.0,468.5237189996769,3.0,1.0,phase_1,,,,,,,,,,,,,orange,hexagon
301.0,6.0,2.0,1.0,2.0,2.0,447.3924790004275,3.0,1.0,phase_1,,,,,,,,,,,,,yellow,triangle
181.0,5.0,1.0,1.0,4.0,4.0,466.7719809999653,3.0,1.0,phase_1,,,,,,,,,,,,,green,I
336.0,2.0,2.0,0.0,2.0,2.0,456.9090599998162,3.0,1.0,phase_1,,,,,,,,,,,,,cyan,circle
0.0,6.0,0.0,1.0,2.0,2.0,476.0042650000287,3.0,1.0,phase_1,,,,,,,,,,,,,yellow,triangle
0.0,5.0,0.0,1.0,1.0,1.0,485.7728560000396,3.0,1.0,phase_1,,,,,,,,,,,,,green,I
158.0,1.0,1.0,0.0,2.0,2.0,561.2982610000472,3.0,1.0,phase_1,,,,,,,,,,,,,white,diamond
0.0,7.0,0.0,1.0,3.0,3.0,456.7067910002151,3.0,1.0,phase_1,,,,,,,,,,,,,blue,square
0.0,6.0,0.0,1.0,2.0,2.0,432.7869050002846,3.0,1.0,phase_1,,,,,,,,,,,,,yellow,triangle
329.0,2.0,2.0,0.0,2.0,2.0,605.7778220001637,4.0,1.0,phase_1,,,,,,,,,,,,,cyan,circle
321.0,2.0,2.0,0.0,3.0,3.0,606.9347809998362,4.0,1.0,phase_1,,,,,,,,,,,,,cyan,circle
335.0,2.0,2.0,0.0,3.0,3.0,642.7413759997762,4.0,1.0,phase_1,,,,,,,,,,,,,cyan,circle
347.0,2.0,2.0,0.0,2.0,2.0,455.9172849999413,4.0,1.0,phase_1,,,,,,,,,,,,,cyan,circle
1281.0,8.0,4.0,1.0,4.0,4.0,512.2501830001056,4.0,1.0,phase_1,,,,,,,,,,,,,magenta,flipped triangle
1306.0,4.0,4.0,0.0,2.0,2.0,579.2296200002056,4.0,1.0,phase_1,,,,,,,,,,,,,gray,cross
1299.0,8.0,4.0,1.0,2.0,2.0,457.4447100003453,4.0,1.0,phase_1,,,,,,,,,,,,,magenta,flipped triangle
1299.0,8.0,4.0,1.0,3.0,3.0,524.5428000002903,4.0,1.0,phase_1,,,,,,,,,,,,,magenta,flipped triangle
1325.0,8.0,4.0,1.0,4.0,4.0,513.8654500001394,4.0,1.0,phase_1,,,,,,,,,,,,,magenta,flipped triangle
651.0,7.0,3.0,1.0,1.0,1.0,431.2271969997709,4.0,1.0,phase_1,,,,,,,,,,,,,blue,square
302.0,2.0,2.0,0.0,1.0,1.0,550.6404249999832,4.0,1.0,phase_1,,,,,,,,,,,,,cyan,circle
660.0,3.0,3.0,0.0,1.0,1.0,447.8450579999844,4.0,1.0,phase_1,,,,,,,,,,,,,orange,hexagon
0.0,3.0,0.0,0.0,2.0,2.0,569.6897500001796,4.0,1.0,phase_1,,,,,,,,,,,,,orange,hexagon
638.0,7.0,3.0,1.0,1.0,1.0,531.9384330000503,4.0,1.0,phase_1,,,,,,,,,,,,,blue,square
1294.0,4.0,4.0,0.0,2.0,2.0,494.8985430000903,4.0,1.0,phase_1,,,,,,,,,,,,,gray,cross
643.0,3.0,3.0,0.0,1.0,1.0,597.8677660000358,4.0,1.0,phase_1,,,,,,,,,,,,,orange,hexagon
1289.0,4.0,4.0,0.0,2.0,2.0,494.9296459999459,4.0,1.0,phase_1,,,,,,,,,,,,,gray,cross
641.0,3.0,3.0,0.0,1.0,1.0,449.0588730000127,4.0,1.0,phase_1,,,,,,,,,,,,,orange,hexagon
313.0,6.0,2.0,1.0,2.0,2.0,494.9488990000645,4.0,1.0,phase_1,,,,,,,,,,,,,yellow,triangle
183.0,1.0,1.0,0.0,3.0,3.0,598.0508259999624,4.0,1.0,phase_1,,,,,,,,,,,,,white,diamond
158.0,5.0,1.0,1.0,2.0,2.0,615.6854239998211,4.0,1.0,phase_1,,,,,,,,,,,,,green,I
636.0,3.0,3.0,0.0,3.0,3.0,618.3005869997942,4.0,2.0,phase_1,,,,,,,,,,,,,orange,hexagon
1278.0,4.0,4.0,0.0,1.0,1.0,550.5878270000721,4.0,1.0,phase_1,,,,,,,,,,,,,gray,cross
336.0,6.0,2.0,1.0,3.0,3.0,513.571666000189,4.0,1.0,phase_1,,,,,,,,,,,,,yellow,triangle
1322.0,8.0,4.0,1.0,3.0,3.0,644.1424889999325,4.0,1.0,phase_1,,,,,,,,,,,,,magenta,flipped triangle
138.0,1.0,1.0,0.0,1.0,1.0,615.699720000066,4.0,1.0,phase_1,,,,,,,,,,,,,white,diamond
627.0,3.0,3.0,0.0,1.0,1.0,551.4258080002037,4.0,1.0,phase_1,,,,,,,,,,,,,orange,hexagon
0.0,4.0,0.0,0.0,1.0,1.0,653.9308450001045,4.0,1.0,phase_1,,,,,,,,,,,,,gray,cross
654.0,7.0,3.0,1.0,1.0,1.0,588.1105119997301,4.0,1.0,phase_1,,,,,,,,,,,,,blue,square
0.0,1.0,0.0,0.0,3.0,3.0,627.6019429997177,4.0,1.0,phase_1,,,,,,,,,,,,,white,diamond
339.0,6.0,2.0,1.0,1.0,1.0,522.752330000003,4.0,1.0,phase_1,,,,,,,,,,,,,yellow,triangle
673.0,7.0,3.0,1.0,1.0,1.0,438.3545860000595,4.0,1.0,phase_1,,,,,,,,,,,,,blue,square
673.0,7.0,3.0,1.0,2.0,2.0,578.1293270001697,4.0,3.0,phase_1,,,,,,,,,,,,,blue,square
181.0,1.0,1.0,0.0,2.0,2.0,691.1381619997883,4.0,1.0,phase_1,,,,,,,,,,,,,white,diamond
315.0,6.0,2.0,1.0,3.0,3.0,448.525330999928,4.0,1.0,phase_1,,,,,,,,,,,,,yellow,triangle
330.0,6.0,2.0,1.0,3.0,3.0,485.09973299997,4.0,1.0,phase_1,,,,,,,,,,,,,yellow,triangle
301.0,6.0,2.0,1.0,4.0,4.0,456.9802229998458,4.0,1.0,phase_1,,,,,,,,,,,,,yellow,triangle
660.0,3.0,3.0,0.0,2.0,2.0,625.6629479998992,4.0,1.0,phase_1,,,,,,,,,,,,,orange,hexagon
1301.0,4.0,4.0,0.0,4.0,4.0,514.6884499999942,4.0,1.0,phase_1,,,,,,,,,,,,,gray,cross
1322.0,8.0,4.0,1.0,1.0,1.0,503.15108099994177,4.0,1.0,phase_1,,,,,,,,,,,,,magenta,flipped triangle
156.0,1.0,1.0,0.0,4.0,4.0,494.3044490000829,4.0,1.0,phase_1,,,,,,,,,,,,,white,diamond
157.0,1.0,1.0,0.0,3.0,3.0,598.2983619996958,4.0,1.0,phase_1,,,,,,,,,,,,,white,diamond
0.0,7.0,0.0,1.0,4.0,4.0,504.5920599995952,4.0,1.0,phase_1,,,,,,,,,,,,,blue,square
305.0,2.0,2.0,0.0,2.0,2.0,932.4156289999336,4.0,1.0,phase_1,,,,,,,,,,,,,cyan,circle
314.0,2.0,2.0,0.0,3.0,3.0,599.84984599987,4.0,1.0,phase_1,,,,,,,,,,,,,cyan,circle
638.0,3.0,3.0,0.0,1.0,1.0,570.6980989998556,4.0,1.0,phase_1,,,,,,,,,,,,,orange,hexagon
161.0,5.0,1.0,1.0,2.0,2.0,560.4909579997184,4.0,1.0,phase_1,,,,,,,,,,,,,green,I
166.0,5.0,1.0,1.0,1.0,1.0,477.00157700001,4.0,1.0,phase_1,,,,,,,,,,,,,green,I
336.0,6.0,2.0,1.0,2.0,2.0,458.212617999834,4.0,1.0,phase_1,,,,,,,,,,,,,yellow,triangle
145.0,5.0,1.0,1.0,3.0,3.0,467.0288099996469,4.0,1.0,phase_1,,,,,,,,,,,,,green,I
0.0,3.0,0.0,0.0,4.0,4.0,466.8366639998567,4.0,1.0,phase_1,,,,,,,,,,,,,orange,hexagon
645.0,7.0,3.0,1.0,1.0,1.0,438.9084379999985,4.0,1.0,phase_1,,,,,,,,,,,,,blue,square
321.0,2.0,2.0,0.0,1.0,1.0,514.180197999849,4.0,1.0,phase_1,,,,,,,,,,,,,cyan,circle
1313.0,8.0,4.0,1.0,4.0,4.0,465.867813999921,4.0,1.0,phase_1,,,,,,,,,,,,,magenta,flipped triangle
0.0,3.0,0.0,0.0,4.0,4.0,485.8675020000191,4.0,1.0,phase_1,,,,,,,,,,,,,orange,hexagon
0.0,3.0,0.0,0.0,1.0,1.0,494.5962779997899,4.0,1.0,phase_1,,,,,,,,,,,,,orange,hexagon
313.0,2.0,2.0,0.0,4.0,4.0,439.2654570001468,4.0,1.0,phase_1,,,,,,,,,,,,,cyan,circle
173.0,5.0,1.0,1.0,4.0,4.0,465.333137000016,4.0,1.0,phase_1,,,,,,,,,,,,,green,I
659.0,3.0,3.0,0.0,2.0,2.0,643.7136340000507,4.0,1.0,phase_1,,,,,,,,,,,,,orange,hexagon
330.0,2.0,2.0,0.0,3.0,3.0,495.7898419997946,4.0,1.0,phase_1,,,,,,,,,,,,,cyan,circle
1283.0,4.0,4.0,0.0,4.0,4.0,523.6316919999808,4.0,1.0,phase_1,,,,,,,,,,,,,gray,cross
138.0,5.0,1.0,1.0,4.0,4.0,477.5576659999387,4.0,1.0,phase_1,,,,,,,,,,,,,green,I
1317.0,4.0,4.0,0.0,2.0,2.0,597.312306999811,4.0,1.0,phase_1,,,,,,,,,,,,,gray,cross
156.0,5.0,1.0,1.0,2.0,2.0,580.2829029998975,4.0,1.0,phase_1,,,,,,,,,,,,,green,I
0.0,1.0,0.0,0.0,4.0,4.0,485.7173179998426,4.0,1.0,phase_1,,,,,,,,,,,,,white,diamond
0.0,8.0,0.0,1.0,3.0,3.0,607.284422000248,4.0,1.0,phase_1,,,,,,,,,,,,,magenta,flipped triangle
312.0,6.0,2.0,1.0,3.0,3.0,458.260848000009,4.0,1.0,phase_1,,,,,,,,,,,,,yellow,triangle
150.0,1.0,1.0,0.0,1.0,1.0,559.4643129998076,4.0,1.0,phase_1,,,,,,,,,,,,,white,diamond
0.0,8.0,0.0,1.0,2.0,2.0,475.3655169997728,4.0,1.0,phase_1,,,,,,,,,,,,,magenta,flipped triangle
163.0,5.0,1.0,1.0,4.0,4.0,448.2144290000178,4.0,1.0,phase_1,,,,,,,,,,,,,green,I
329.0,6.0,2.0,1.0,1.0,1.0,531.1529730001894,4.0,1.0,phase_1,,,,,,,,,,,,,yellow,triangle
320.0,2.0,2.0,0.0,4.0,4.0,428.9404070000273,4.0,1.0,phase_1,,,,,,,,,,,,,cyan,circle
668.0,3.0,3.0,0.0,4.0,4.0,485.8418899998469,4.0,1.0,phase_1,,,,,,,,,,,,,orange,hexagon
335.0,6.0,2.0,1.0,4.0,4.0,421.7525429999114,4.0,1.0,phase_1,,,,,,,,,,,,,yellow,triangle
0.0,4.0,0.0,0.0,3.0,3.0,506.4646460000404,4.0,1.0,phase_1,,,,,,,,,,,,,gray,cross
650.0,7.0,3.0,1.0,3.0,3.0,513.1595810003091,4.0,1.0,phase_1,,,,,,,,,,,,,blue,square
337.0,2.0,2.0,0.0,4.0,4.0,429.1239429999223,4.0,1.0,phase_1,,,,,,,,,,,,,cyan,circle
646.0,3.0,3.0,0.0,3.0,3.0,441.146414999821,4.0,1.0,phase_1,,,,,,,,,,,,,orange,hexagon
307.0,6.0,2.0,1.0,3.0,3.0,457.1194320001268,4.0,1.0,phase_1,,,,,,,,,,,,,yellow,triangle
0.0,6.0,0.0,1.0,1.0,1.0,531.5557690000787,4.0,1.0,phase_1,,,,,,,,,,,,,yellow,triangle
665.0,7.0,3.0,1.0,4.0,4.0,401.6649760001201,4.0,1.0,phase_1,,,,,,,,,,,,,blue,square
154.0,5.0,1.0,1.0,3.0,3.0,457.9753119996894,4.0,1.0,phase_1,,,,,,,,,,,,,green,I
660.0,7.0,3.0,1.0,4.0,4.0,728.7380719999419,4.0,1.0,phase_1,,,,,,,,,,,,,blue,square
1282.0,4.0,4.0,0.0,1.0,1.0,503.5883199998352,4.0,1.0,phase_1,,,,,,,,,,,,,gray,cross
340.0,2.0,2.0,0.0,1.0,1.0,429.082634000224,4.0,1.0,phase_1,,,,,,,,,,,,,cyan,circle
0.0,2.0,0.0,0.0,1.0,1.0,438.8912620001974,4.0,1.0,phase_1,,,,,,,,,,,,,cyan,circle
1317.0,8.0,4.0,1.0,4.0,4.0,438.4011760002977,4.0,1.0,phase_1,,,,,,,,,,,,,magenta,flipped triangle
302.0,2.0,2.0,0.0,3.0,3.0,487.494486000287,4.0,1.0,phase_1,,,,,,,,,,,,,cyan,circle
319.0,2.0,2.0,0.0,3.0,3.0,541.294151999864,4.0,1.0,phase_1,,,,,,,,,,,,,cyan,circle
340.0,6.0,2.0,1.0,4.0,4.0,449.3377459998555,4.0,1.0,phase_1,,,,,,,,,,,,,yellow,triangle
1325.0,4.0,4.0,0.0,3.0,3.0,514.117189999979,4.0,1.0,phase_1,,,,,,,,,,,,,gray,cross
186.0,5.0,1.0,1.0,3.0,3.0,448.67689900002,4.0,1.0,phase_1,,,,,,,,,,,,,green,I
349.0,6.0,2.0,1.0,3.0,3.0,523.0559569999969,4.0,1.0,phase_1,,,,,,,,,,,,,yellow,triangle
321.0,6.0,2.0,1.0,2.0,2.0,438.4638729998187,4.0,1.0,phase_1,,,,,,,,,,,,,yellow,triangle
0.0,3.0,0.0,0.0,2.0,2.0,484.8488070001622,4.0,1.0,phase_1,,,,,,,,,,,,,orange,hexagon
1319.0,4.0,4.0,0.0,3.0,3.0,524.3891679997432,4.0,1.0,phase_1,,,,,,,,,,,,,gray,cross
183.0,5.0,1.0,1.0,4.0,4.0,382.8917629998614,4.0,1.0,phase_1,,,,,,,,,,,,,green,I
633.0,3.0,3.0,0.0,4.0,4.0,404.8547749998761,4.0,1.0,phase_1,,,,,,,,,,,,,orange,hexagon
0.0,8.0,0.0,1.0,3.0,3.0,429.7468139998273,4.0,1.0,phase_1,,,,,,,,,,,,,magenta,flipped triangle
0.0,8.0,0.0,1.0,1.0,1.0,485.4884289998153,4.0,1.0,phase_1,,,,,,,,,,,,,magenta,flipped triangle
0.0,3.0,3.0,0.0,5.0,5.0,337.6809219998904,1.0,1.0,phase_2,go,250.0,250.0,1.0,,,,,,,,,orange,hexagon
0.0,4.0,4.0,0.0,5.0,5.0,496.2077949999184,1.0,1.0,phase_2,go,250.0,250.0,1.0,,,,,,,,,gray,cross
0.0,7.0,3.0,1.0,5.0,5.0,622.8775300000962,1.0,1.0,phase_2,stop,250.0,250.0,3.0,,,,,,,,,blue,square
0.0,2.0,2.0,0.0,5.0,5.0,574.848707000001,1.0,1.0,phase_2,go,200.0,250.0,1.0,,,,,,,,,cyan,circle
0.0,4.0,4.0,0.0,6.0,6.0,744.8630180001601,1.0,1.0,phase_2,go,200.0,250.0,1.0,,,,,,,,,gray,cross
0.0,4.0,4.0,0.0,5.0,5.0,697.2122429997398,1.0,1.0,phase_2,go,200.0,250.0,1.0,,,,,,,,,gray,cross
0.0,8.0,4.0,1.0,5.0,0.0,0.0,1.0,1.0,phase_2,stop,200.0,250.0,4.0,,,,,,,,,magenta,flipped triangle
0.0,5.0,1.0,1.0,5.0,0.0,0.0,1.0,1.0,phase_2,stop,250.0,250.0,4.0,,,,,,,,,green,I
0.0,4.0,4.0,0.0,5.0,5.0,686.6214080000645,1.0,1.0,phase_2,go,300.0,250.0,1.0,,,,,,,,,gray,cross
0.0,7.0,3.0,1.0,6.0,6.0,509.52133399960076,1.0,1.0,phase_2,stop,300.0,250.0,3.0,,,,,,,,,blue,square
0.0,6.0,2.0,1.0,6.0,0.0,0.0,1.0,1.0,phase_2,stop,300.0,200.0,4.0,,,,,,,,,yellow,triangle
0.0,3.0,3.0,0.0,5.0,5.0,781.3864820000163,1.0,1.0,phase_2,go,300.0,250.0,1.0,,,,,,,,,orange,hexagon
0.0,1.0,1.0,0.0,5.0,5.0,753.0605980000473,1.0,1.0,phase_2,go,300.0,250.0,1.0,,,,,,,,,white,diamond
0.0,4.0,4.0,0.0,5.0,5.0,894.5102689999658,1.0,1.0,phase_2,go,300.0,250.0,1.0,,,,,,,,,gray,cross
0.0,1.0,1.0,0.0,5.0,5.0,790.9896109999863,1.0,1.0,phase_2,go,300.0,250.0,1.0,,,,,,,,,white,diamond
0.0,6.0,2.0,1.0,5.0,5.0,620.8244760000525,1.0,1.0,phase_2,go,300.0,250.0,1.0,,,,,,,,,yellow,triangle
0.0,8.0,4.0,1.0,5.0,0.0,0.0,1.0,1.0,phase_2,stop,300.0,250.0,4.0,,,,,,,,,magenta,flipped triangle
0.0,2.0,2.0,0.0,6.0,6.0,779.5228999998471,1.0,1.0,phase_2,go,350.0,250.0,1.0,,,,,,,,,cyan,circle
0.0,2.0,2.0,0.0,6.0,6.0,743.6718859999019,1.0,1.0,phase_2,go,350.0,250.0,1.0,,,,,,,,,cyan,circle
0.0,1.0,1.0,0.0,6.0,6.0,799.9161109996749,1.0,1.0,phase_2,go,350.0,250.0,1.0,,,,,,,,,white,diamond
0.0,1.0,1.0,0.0,6.0,6.0,678.6349409999275,1.0,1.0,phase_2,go,350.0,250.0,1.0,,,,,,,,,white,diamond
0.0,7.0,3.0,1.0,6.0,6.0,508.03134299985686,1.0,1.0,phase_2,go,350.0,250.0,1.0,,,,,,,,,blue,square
0.0,5.0,1.0,1.0,5.0,0.0,0.0,1.0,1.0,phase_2,stop,350.0,250.0,4.0,,,,,,,,,green,I
0.0,1.0,1.0,0.0,5.0,5.0,790.8297269996183,1.0,1.0,phase_2,go,400.0,250.0,1.0,,,,,,,,,white,diamond
0.0,2.0,2.0,0.0,6.0,6.0,659.2850990000443,1.0,1.0,phase_2,go,400.0,250.0,1.0,,,,,,,,,cyan,circle
0.0,4.0,4.0,0.0,5.0,5.0,602.226587000132,1.0,1.0,phase_2,go,400.0,250.0,1.0,,,,,,,,,gray,cross
0.0,5.0,1.0,1.0,5.0,0.0,0.0,1.0,1.0,phase_2,stop,400.0,250.0,4.0,,,,,,,,,green,I
0.0,3.0,3.0,0.0,6.0,6.0,631.1506590000135,1.0,1.0,phase_2,go,450.0,250.0,1.0,,,,,,,,,orange,hexagon
0.0,6.0,2.0,1.0,6.0,0.0,0.0,1.0,1.0,phase_2,stop,450.0,250.0,4.0,,,,,,,,,yellow,triangle
0.0,6.0,2.0,1.0,6.0,0.0,0.0,1.0,1.0,phase_2,stop,450.0,300.0,4.0,,,,,,,,,yellow,triangle
0.0,2.0,2.0,0.0,5.0,5.0,1026.4943269999094,1.0,1.0,phase_2,go,450.0,350.0,1.0,,,,,,,,,cyan,circle
0.0,7.0,3.0,1.0,5.0,5.0,535.3377520000322,1.0,1.0,phase_2,stop,450.0,350.0,3.0,,,,,,,,,blue,square
0.0,1.0,1.0,0.0,5.0,5.0,763.3672269998897,1.0,1.0,phase_2,go,400.0,350.0,1.0,,,,,,,,,white,diamond
0.0,2.0,2.0,0.0,5.0,5.0,801.1624149999079,1.0,1.0,phase_2,go,400.0,350.0,1.0,,,,,,,,,cyan,circle
0.0,5.0,1.0,1.0,6.0,0.0,0.0,1.0,1.0,phase_2,stop,400.0,350.0,4.0,,,,,,,,,green,I
0.0,3.0,3.0,0.0,5.0,5.0,743.8407219997316,1.0,1.0,phase_2,go,400.0,400.0,1.0,,,,,,,,,orange,hexagon
0.0,6.0,2.0,1.0,6.0,6.0,462.7151990002858,2.0,1.0,phase_2,go,400.0,400.0,1.0,,,,,,,,,yellow,triangle
0.0,7.0,3.0,1.0,5.0,5.0,553.0762079997658,2.0,1.0,phase_2,stop,400.0,400.0,3.0,,,,,,,,,blue,square
0.0,8.0,4.0,1.0,6.0,6.0,587.5404570001592,2.0,1.0,phase_2,stop,350.0,400.0,3.0,,,,,,,,,magenta,flipped triangle
0.0,2.0,2.0,0.0,5.0,5.0,433.9175249997424,2.0,1.0,phase_2,go,350.0,350.0,1.0,,,,,,,,,cyan,circle
0.0,4.0,4.0,0.0,6.0,6.0,575.0076670001363,2.0,1.0,phase_2,go,350.0,350.0,1.0,,,,,,,,,gray,cross
0.0,1.0,1.0,0.0,6.0,6.0,583.2538089998707,2.0,1.0,phase_2,go,350.0,350.0,1.0,,,,,,,,,white,diamond
0.0,8.0,4.0,1.0,6.0,6.0,446.4991199997712,2.0,1.0,phase_2,go,350.0,350.0,1.0,,,,,,,,,magenta,flipped triangle
0.0,7.0,3.0,1.0,5.0,5.0,583.4784189996753,2.0,1.0,phase_2,go,350.0,350.0,1.0,,,,,,,,,blue,square
0.0,4.0,4.0,0.0,6.0,6.0,573.8219830000162,2.0,1.0,phase_2,go,350.0,350.0,1.0,,,,,,,,,gray,cross
0.0,7.0,3.0,1.0,6.0,6.0,421.1355709999225,2.0,1.0,phase_2,stop,350.0,350.0,3.0,,,,,,,,,blue,square
0.0,2.0,2.0,0.0,6.0,6.0,592.8838800000449,2.0,1.0,phase_2,go,350.0,300.0,1.0,,,,,,,,,cyan,circle
0.0,3.0,3.0,0.0,5.0,5.0,489.4485959998746,2.0,1.0,phase_2,go,350.0,300.0,1.0,,,,,,,,,orange,hexagon
0.0,7.0,3.0,1.0,5.0,5.0,320.9762910000791,2.0,1.0,phase_2,stop,350.0,300.0,3.0,,,,,,,,,blue,square
0.0,5.0,1.0,1.0,5.0,5.0,398.4637229996224,2.0,1.0,phase_2,stop,300.0,300.0,3.0,,,,,,,,,green,I
0.0,1.0,1.0,0.0,6.0,6.0,488.86839999977377,2.0,1.0,phase_2,go,250.0,300.0,1.0,,,,,,,,,white,diamond
0.0,4.0,4.0,0.0,5.0,5.0,461.7856529998789,2.0,1.0,phase_2,go,250.0,300.0,1.0,,,,,,,,,gray,cross
0.0,8.0,4.0,1.0,5.0,5.0,348.3335460000489,2.0,1.0,phase_2,stop,250.0,300.0,3.0,,,,,,,,,magenta,flipped triangle
0.0,7.0,3.0,1.0,6.0,6.0,362.3818880000726,2.0,1.0,phase_2,stop,200.0,300.0,3.0,,,,,,,,,blue,square
0.0,3.0,3.0,0.0,5.0,5.0,497.8959730001406,2.0,1.0,phase_2,go,200.0,250.0,1.0,,,,,,,,,orange,hexagon
0.0,7.0,3.0,1.0,5.0,0.0,0.0,2.0,1.0,phase_2,stop,200.0,250.0,4.0,,,,,,,,,blue,square
0.0,8.0,4.0,1.0,6.0,6.0,325.3276779996668,2.0,1.0,phase_2,stop,250.0,250.0,3.0,,,,,,,,,magenta,flipped triangle
0.0,7.0,3.0,1.0,6.0,0.0,0.0,2.0,1.0,phase_2,stop,250.0,200.0,4.0,,,,,,,,,blue,square
0.0,4.0,4.0,0.0,5.0,5.0,441.5058549998321,2.0,1.0,phase_2,go,250.0,250.0,1.0,,,,,,,,,gray,cross
0.0,4.0,4.0,0.0,6.0,6.0,376.8893339997703,2.0,1.0,phase_2,go,250.0,250.0,1.0,,,,,,,,,gray,cross
0.0,1.0,1.0,0.0,6.0,6.0,300.667556999997,2.0,1.0,phase_2,go,250.0,250.0,1.0,,,,,,,,,white,diamond
0.0,2.0,2.0,0.0,6.0,6.0,356.6309820002971,2.0,1.0,phase_2,go,250.0,250.0,1.0,,,,,,,,,cyan,circle
0.0,6.0,2.0,1.0,5.0,5.0,498.7012830001731,2.0,1.0,phase_2,stop,250.0,250.0,3.0,,,,,,,,,yellow,triangle
0.0,1.0,1.0,0.0,5.0,5.0,536.581015000138,2.0,1.0,phase_2,go,200.0,250.0,1.0,,,,,,,,,white,diamond
0.0,7.0,3.0,1.0,6.0,0.0,0.0,2.0,1.0,phase_2,stop,200.0,250.0,4.0,,,,,,,,,blue,square
0.0,1.0,1.0,0.0,5.0,5.0,478.1879369998023,2.0,1.0,phase_2,go,200.0,300.0,1.0,,,,,,,,,white,diamond
0.0,3.0,3.0,0.0,5.0,5.0,564.2875149997053,2.0,1.0,phase_2,go,200.0,300.0,1.0,,,,,,,,,orange,hexagon
0.0,2.0,2.0,0.0,6.0,6.0,309.6600290000424,2.0,1.0,phase_2,go,200.0,300.0,1.0,,,,,,,,,cyan,circle
0.0,4.0,4.0,0.0,5.0,5.0,525.4724629999146,2.0,1.0,phase_2,go,200.0,300.0,1.0,,,,,,,,,gray,cross
0.0,8.0,4.0,1.0,6.0,6.0,497.1634700000322,2.0,1.0,phase_2,stop,200.0,300.0,3.0,,,,,,,,,magenta,flipped triangle
0.0,6.0,2.0,1.0,6.0,0.0,0.0,2.0,1.0,phase_2,stop,200.0,250.0,4.0,,,,,,,,,yellow,triangle
0.0,4.0,4.0,0.0,5.0,5.0,591.8313890001627,2.0,1.0,phase_2,go,200.0,300.0,1.0,,,,,,,,,gray,cross
0.0,3.0,3.0,0.0,6.0,6.0,667.040132999773,3.0,1.0,phase_2,go,200.0,300.0,1.0,,,,,,,,,orange,hexagon
0.0,7.0,3.0,1.0,5.0,5.0,316.3893239998288,3.0,1.0,phase_2,stop,200.0,300.0,3.0,,,,,,,,,blue,square
0.0,4.0,4.0,0.0,5.0,5.0,660.3265230000943,3.0,1.0,phase_2,go,150.0,300.0,1.0,,,,,,,,,gray,cross
0.0,8.0,4.0,1.0,6.0,0.0,0.0,3.0,1.0,phase_2,stop,150.0,300.0,4.0,,,,,,,,,magenta,flipped triangle
0.0,1.0,1.0,0.0,6.0,6.0,602.1190690003095,3.0,1.0,phase_2,go,150.0,350.0,1.0,,,,,,,,,white,diamond
0.0,7.0,3.0,1.0,6.0,6.0,531.9785040001079,3.0,1.0,phase_2,stop,150.0,350.0,3.0,,,,,,,,,blue,square
0.0,5.0,1.0,1.0,6.0,0.0,0.0,3.0,1.0,phase_2,stop,150.0,300.0,4.0,,,,,,,,,green,I
0.0,7.0,3.0,1.0,6.0,6.0,593.4487499998795,3.0,1.0,phase_2,go,150.0,350.0,1.0,,,,,,,,,blue,square
0.0,3.0,3.0,0.0,6.0,6.0,574.2914480001673,3.0,1.0,phase_2,go,150.0,350.0,1.0,,,,,,,,,orange,hexagon
0.0,1.0,1.0,0.0,6.0,6.0,772.5272180000502,3.0,1.0,phase_2,go,150.0,350.0,1.0,,,,,,,,,white,diamond
0.0,4.0,4.0,0.0,6.0,6.0,527.4165239998183,3.0,1.0,phase_2,go,150.0,350.0,1.0,,,,,,,,,gray,cross
0.0,8.0,4.0,1.0,6.0,0.0,0.0,3.0,1.0,phase_2,stop,150.0,350.0,4.0,,,,,,,,,magenta,flipped triangle
0.0,7.0,3.0,1.0,6.0,6.0,561.4981520002402,3.0,1.0,phase_2,stop,150.0,400.0,3.0,,,,,,,,,blue,square
0.0,3.0,3.0,0.0,6.0,6.0,723.5584430000017,3.0,1.0,phase_2,go,150.0,350.0,1.0,,,,,,,,,orange,hexagon
0.0,6.0,2.0,1.0,5.0,0.0,0.0,3.0,1.0,phase_2,stop,150.0,350.0,4.0,,,,,,,,,yellow,triangle
0.0,5.0,1.0,1.0,6.0,6.0,512.9311649998272,3.0,1.0,phase_2,stop,200.0,350.0,3.0,,,,,,,,,green,I
0.0,3.0,3.0,0.0,6.0,6.0,705.1824729996952,3.0,1.0,phase_2,go,200.0,300.0,1.0,,,,,,,,,orange,hexagon
0.0,7.0,3.0,1.0,6.0,0.0,0.0,3.0,1.0,phase_2,stop,200.0,300.0,4.0,,,,,,,,,blue,square
0.0,1.0,1.0,0.0,6.0,6.0,790.6190469998364,3.0,1.0,phase_2,go,200.0,350.0,1.0,,,,,,,,,white,diamond
0.0,6.0,2.0,1.0,6.0,6.0,547.5877819999369,3.0,1.0,phase_2,go,200.0,350.0,1.0,,,,,,,,,yellow,triangle
0.0,8.0,4.0,1.0,5.0,0.0,0.0,3.0,1.0,phase_2,stop,200.0,350.0,4.0,,,,,,,,,magenta,flipped triangle
0.0,4.0,4.0,0.0,5.0,5.0,649.6908130002339,3.0,1.0,phase_2,go,250.0,350.0,1.0,,,,,,,,,gray,cross
0.0,3.0,3.0,0.0,6.0,6.0,499.8195199996189,3.0,1.0,phase_2,go,250.0,350.0,1.0,,,,,,,,,orange,hexagon
0.0,3.0,3.0,0.0,6.0,6.0,482.6751609998609,3.0,1.0,phase_2,go,250.0,350.0,1.0,,,,,,,,,orange,hexagon
0.0,5.0,1.0,1.0,6.0,6.0,594.4526150001366,3.0,1.0,phase_2,go,250.0,350.0,1.0,,,,,,,,,green,I
0.0,6.0,2.0,1.0,6.0,0.0,0.0,3.0,1.0,phase_2,stop,250.0,350.0,4.0,,,,,,,,,yellow,triangle
0.0,4.0,4.0,0.0,6.0,6.0,546.3130859998273,3.0,1.0,phase_2,go,250.0,400.0,1.0,,,,,,,,,gray,cross
0.0,5.0,1.0,1.0,5.0,5.0,520.886519999749,3.0,1.0,phase_2,stop,250.0,400.0,3.0,,,,,,,,,green,I
0.0,7.0,3.0,1.0,5.0,0.0,0.0,3.0,1.0,phase_2,stop,200.0,400.0,4.0,,,,,,,,,blue,square
0.0,7.0,3.0,1.0,5.0,0.0,0.0,3.0,1.0,phase_2,stop,250.0,400.0,4.0,,,,,,,,,blue,square
0.0,1.0,1.0,0.0,5.0,5.0,564.7587960002056,3.0,1.0,phase_2,go,300.0,400.0,1.0,,,,,,,,,white,diamond
0.0,5.0,1.0,1.0,6.0,6.0,503.24137799998425,3.0,1.0,phase_2,stop,300.0,400.0,3.0,,,,,,,,,green,I
0.0,5.0,1.0,1.0,6.0,6.0,668.1573769997158,3.0,1.0,phase_2,stop,300.0,350.0,3.0,,,,,,,,,green,I
0.0,4.0,4.0,0.0,5.0,5.0,874.101268999766,3.0,1.0,phase_2,go,300.0,300.0,1.0,,,,,,,,,gray,cross
0.0,5.0,1.0,1.0,5.0,0.0,0.0,3.0,1.0,phase_2,stop,300.0,300.0,4.0,,,,,,,,,green,I
0.0,8.0,4.0,1.0,5.0,0.0,0.0,3.0,1.0,phase_2,stop,350.0,300.0,4.0,,,,,,,,,magenta,flipped triangle
0.0,8.0,4.0,1.0,6.0,6.0,533.3509870001762,4.0,1.0,phase_2,stop,400.0,300.0,3.0,,,,,,,,,magenta,flipped triangle
0.0,2.0,2.0,0.0,6.0,6.0,695.549277000282,4.0,1.0,phase_2,go,400.0,250.0,1.0,,,,,,,,,cyan,circle
0.0,4.0,4.0,0.0,5.0,5.0,426.5666510000301,4.0,1.0,phase_2,go,400.0,250.0,1.0,,,,,,,,,gray,cross
0.0,3.0,3.0,0.0,5.0,5.0,575.5143659998794,4.0,1.0,phase_2,go,400.0,250.0,1.0,,,,,,,,,orange,hexagon
0.0,5.0,1.0,1.0,5.0,0.0,0.0,4.0,1.0,phase_2,stop,400.0,250.0,4.0,,,,,,,,,green,I
0.0,8.0,4.0,1.0,5.0,5.0,583.0746450001243,4.0,1.0,phase_2,stop,450.0,250.0,3.0,,,,,,,,,magenta,flipped triangle
0.0,3.0,3.0,0.0,5.0,5.0,470.5695140000898,4.0,1.0,phase_2,go,400.0,250.0,1.0,,,,,,,,,orange,hexagon
0.0,2.0,2.0,0.0,5.0,5.0,461.5907580000566,4.0,1.0,phase_2,go,400.0,250.0,1.0,,,,,,,,,cyan,circle
0.0,4.0,4.0,0.0,6.0,6.0,479.1228059998502,4.0,1.0,phase_2,go,400.0,250.0,1.0,,,,,,,,,gray,cross
0.0,6.0,2.0,1.0,6.0,6.0,372.2234920001028,4.0,1.0,phase_2,stop,400.0,250.0,3.0,,,,,,,,,yellow,triangle
0.0,2.0,2.0,0.0,5.0,5.0,517.4265709997599,4.0,1.0,phase_2,go,400.0,200.0,1.0,,,,,,,,,cyan,circle
0.0,3.0,3.0,0.0,6.0,6.0,818.6198840003271,4.0,1.0,phase_2,go,400.0,200.0,1.0,,,,,,,,,orange,hexagon
0.0,1.0,1.0,0.0,6.0,6.0,414.2302279997238,4.0,1.0,phase_2,go,400.0,200.0,1.0,,,,,,,,,white,diamond
0.0,7.0,3.0,1.0,5.0,5.0,515.8889079998517,4.0,1.0,phase_2,stop,400.0,200.0,3.0,,,,,,,,,blue,square
0.0,6.0,2.0,1.0,5.0,5.0,686.475070999677,4.0,1.0,phase_2,go,350.0,200.0,1.0,,,,,,,,,yellow,triangle
0.0,7.0,3.0,1.0,6.0,6.0,329.6969929997431,4.0,1.0,phase_2,go,350.0,200.0,1.0,,,,,,,,,blue,square
0.0,2.0,2.0,0.0,5.0,5.0,386.6137210002307,4.0,1.0,phase_2,go,350.0,200.0,1.0,,,,,,,,,cyan,circle
0.0,3.0,3.0,0.0,5.0,5.0,330.7251979999819,4.0,1.0,phase_2,go,350.0,200.0,1.0,,,,,,,,,orange,hexagon
0.0,4.0,4.0,0.0,6.0,6.0,659.2959039999187,4.0,1.0,phase_2,go,350.0,200.0,1.0,,,,,,,,,gray,cross
0.0,7.0,3.0,1.0,5.0,5.0,338.4159020001789,4.0,1.0,phase_2,go,350.0,200.0,1.0,,,,,,,,,blue,square
0.0,4.0,4.0,0.0,6.0,6.0,717.1708219998436,4.0,1.0,phase_2,go,350.0,200.0,1.0,,,,,,,,,gray,cross
0.0,5.0,1.0,1.0,5.0,5.0,399.2364259997885,4.0,1.0,phase_2,stop,350.0,200.0,3.0,,,,,,,,,green,I
0.0,2.0,2.0,0.0,6.0,6.0,479.9088479999227,4.0,1.0,phase_2,go,300.0,200.0,1.0,,,,,,,,,cyan,circle
0.0,4.0,4.0,0.0,6.0,6.0,452.0169990000795,4.0,1.0,phase_2,go,300.0,200.0,1.0,,,,,,,,,gray,cross
0.0,8.0,4.0,1.0,5.0,5.0,345.8353149999311,4.0,1.0,phase_2,stop,300.0,200.0,3.0,,,,,,,,,magenta,flipped triangle
0.0,3.0,3.0,0.0,6.0,6.0,385.4979689999709,4.0,1.0,phase_2,go,250.0,200.0,1.0,,,,,,,,,orange,hexagon
0.0,1.0,1.0,0.0,5.0,5.0,545.2569550002409,4.0,1.0,phase_2,go,250.0,200.0,1.0,,,,,,,,,white,diamond
0.0,6.0,2.0,1.0,5.0,0.0,0.0,4.0,1.0,phase_2,stop,250.0,200.0,4.0,,,,,,,,,yellow,triangle
0.0,4.0,4.0,0.0,6.0,6.0,612.1110579997548,4.0,1.0,phase_2,go,300.0,200.0,1.0,,,,,,,,,gray,cross
0.0,5.0,1.0,1.0,6.0,0.0,0.0,4.0,1.0,phase_2,stop,300.0,200.0,4.0,,,,,,,,,green,I
0.0,1.0,1.0,0.0,5.0,5.0,592.6633760000186,4.0,1.0,phase_2,go,300.0,250.0,1.0,,,,,,,,,white,diamond
0.0,7.0,3.0,1.0,5.0,5.0,542.2773820000657,4.0,1.0,phase_2,stop,300.0,250.0,3.0,,,,,,,,,blue,square
0.0,8.0,4.0,1.0,6.0,6.0,604.9173609999343,4.0,1.0,phase_2,stop,250.0,250.0,3.0,,,,,,,,,magenta,flipped triangle
0.0,2.0,2.0,0.0,5.0,5.0,546.3675070000136,4.0,1.0,phase_2,go,250.0,200.0,1.0,,,,,,,,,cyan,circle
0.0,1.0,1.0,0.0,5.0,5.0,846.0165080000479,4.0,1.0,phase_2,go,250.0,200.0,1.0,,,,,,,,,white,diamond
0.0,8.0,4.0,1.0,6.0,0.0,0.0,4.0,1.0,phase_2,stop,250.0,200.0,4.0,,,,,,,,,magenta,flipped triangle
0.0,4.0,4.0,0.0,6.0,6.0,444.6602449997954,5.0,1.0,phase_2,go,250.0,250.0,1.0,,,,,,,,,gray,cross
0.0,8.0,4.0,1.0,6.0,6.0,424.1598980001981,5.0,1.0,phase_2,go,250.0,250.0,1.0,,,,,,,,,magenta,flipped triangle
0.0,1.0,1.0,0.0,6.0,6.0,395.3522199999497,5.0,1.0,phase_2,go,250.0,250.0,1.0,,,,,,,,,white,diamond
0.0,5.0,1.0,1.0,6.0,6.0,631.5326109997841,5.0,1.0,phase_2,go,250.0,250.0,1.0,,,,,,,,,green,I
0.0,5.0,1.0,1.0,6.0,6.0,380.9744169998339,5.0,1.0,phase_2,stop,250.0,250.0,3.0,,,,,,,,,green,I
0.0,5.0,1.0,1.0,5.0,5.0,591.7974929998309,5.0,1.0,phase_2,go,250.0,200.0,1.0,,,,,,,,,green,I
0.0,1.0,1.0,0.0,5.0,5.0,574.1059490001135,5.0,1.0,phase_2,go,250.0,200.0,1.0,,,,,,,,,white,diamond
0.0,4.0,4.0,0.0,6.0,6.0,602.4926990003223,5.0,1.0,phase_2,go,250.0,200.0,1.0,,,,,,,,,gray,cross
0.0,6.0,2.0,1.0,5.0,0.0,0.0,5.0,1.0,phase_2,stop,250.0,200.0,4.0,,,,,,,,,yellow,triangle
0.0,6.0,2.0,1.0,5.0,5.0,640.1682610003263,5.0,1.0,phase_2,go,300.0,200.0,1.0,,,,,,,,,yellow,triangle
0.0,7.0,3.0,1.0,6.0,0.0,0.0,5.0,1.0,phase_2,stop,300.0,200.0,4.0,,,,,,,,,blue,square
0.0,4.0,4.0,0.0,6.0,6.0,592.23569400001,5.0,1.0,phase_2,go,300.0,250.0,1.0,,,,,,,,,gray,cross
0.0,5.0,1.0,1.0,5.0,0.0,0.0,5.0,1.0,phase_2,stop,300.0,250.0,4.0,,,,,,,,,green,I
0.0,2.0,2.0,0.0,6.0,6.0,588.0820510001286,5.0,1.0,phase_2,go,350.0,250.0,1.0,,,,,,,,,cyan,circle
0.0,2.0,2.0,0.0,6.0,6.0,591.3012249998246,5.0,1.0,phase_2,go,350.0,250.0,1.0,,,,,,,,,cyan,circle
0.0,6.0,2.0,1.0,6.0,6.0,650.9219330000633,5.0,1.0,phase_2,go,350.0,250.0,1.0,,,,,,,,,yellow,triangle
0.0,8.0,4.0,1.0,5.0,5.0,624.4301209999321,5.0,1.0,phase_2,stop,350.0,250.0,3.0,,,,,,,,,magenta,flipped triangle
0.0,7.0,3.0,1.0,5.0,5.0,665.9632119999515,5.0,1.0,phase_2,stop,300.0,250.0,3.0,,,,,,,,,blue,square
0.0,3.0,3.0,0.0,6.0,6.0,622.5882910002838,5.0,1.0,phase_2,go,250.0,250.0,1.0,,,,,,,,,orange,hexagon
0.0,7.0,3.0,1.0,6.0,0.0,0.0,5.0,1.0,phase_2,stop,250.0,250.0,4.0,,,,,,,,,blue,square
0.0,7.0,3.0,1.0,5.0,5.0,744.2209460000413,5.0,1.0,phase_2,go,250.0,300.0,1.0,,,,,,,,,blue,square
0.0,3.0,3.0,0.0,5.0,5.0,527.6907159995972,5.0,1.0,phase_2,go,250.0,300.0,1.0,,,,,,,,,orange,hexagon
0.0,3.0,3.0,0.0,6.0,6.0,631.4937730003294,5.0,1.0,phase_2,go,250.0,300.0,1.0,,,,,,,,,orange,hexagon
0.0,8.0,4.0,1.0,6.0,0.0,0.0,5.0,1.0,phase_2,stop,250.0,300.0,4.0,,,,,,,,,magenta,flipped triangle
0.0,6.0,2.0,1.0,5.0,0.0,0.0,5.0,1.0,phase_2,stop,250.0,350.0,4.0,,,,,,,,,yellow,triangle
0.0,7.0,3.0,1.0,5.0,0.0,0.0,5.0,1.0,phase_2,stop,300.0,350.0,4.0,,,,,,,,,blue,square
0.0,3.0,3.0,0.0,6.0,6.0,469.2051689999061,5.0,1.0,phase_2,go,350.0,350.0,1.0,,,,,,,,,orange,hexagon
0.0,2.0,2.0,0.0,6.0,6.0,518.2007860003068,5.0,1.0,phase_2,go,350.0,350.0,1.0,,,,,,,,,cyan,circle
0.0,2.0,2.0,0.0,5.0,5.0,508.37891800028956,5.0,1.0,phase_2,go,350.0,350.0,1.0,,,,,,,,,cyan,circle
0.0,5.0,1.0,1.0,5.0,0.0,0.0,5.0,1.0,phase_2,stop,350.0,350.0,4.0,,,,,,,,,green,I
0.0,3.0,3.0,0.0,5.0,5.0,385.970093999731,5.0,1.0,phase_2,go,400.0,350.0,1.0,,,,,,,,,orange,hexagon
0.0,8.0,4.0,1.0,6.0,6.0,328.9135629997872,5.0,1.0,phase_2,go,400.0,350.0,1.0,,,,,,,,,magenta,flipped triangle
0.0,3.0,3.0,0.0,6.0,6.0,621.464090000245,5.0,1.0,phase_2,go,400.0,350.0,1.0,,,,,,,,,orange,hexagon
0.0,5.0,1.0,1.0,5.0,5.0,357.9050140001527,5.0,1.0,phase_2,stop,400.0,350.0,3.0,,,,,,,,,green,I
0.0,7.0,3.0,1.0,5.0,5.0,517.6817040000969,5.0,1.0,phase_2,go,350.0,350.0,1.0,,,,,,,,,blue,square
0.0,8.0,4.0,1.0,6.0,6.0,540.0312889996712,5.0,1.0,phase_2,stop,350.0,350.0,3.0,,,,,,,,,magenta,flipped triangle
0.0,2.0,2.0,0.0,5.0,5.0,677.6602370000546,6.0,1.0,phase_2,go,350.0,300.0,1.0,,,,,,,,,cyan,circle
0.0,1.0,1.0,0.0,5.0,5.0,470.3901400002905,6.0,1.0,phase_2,go,350.0,300.0,1.0,,,,,,,,,white,diamond
0.0,5.0,1.0,1.0,6.0,6.0,352.4143350000486,6.0,1.0,phase_2,stop,350.0,300.0,3.0,,,,,,,,,green,I
0.0,4.0,4.0,0.0,5.0,5.0,432.2970930002157,6.0,1.0,phase_2,go,350.0,250.0,1.0,,,,,,,,,gray,cross
0.0,1.0,1.0,0.0,5.0,5.0,516.2087539997628,6.0,1.0,phase_2,go,350.0,250.0,1.0,,,,,,,,,white,diamond
0.0,7.0,3.0,1.0,5.0,5.0,414.255366999896,6.0,1.0,phase_2,stop,350.0,250.0,3.0,,,,,,,,,blue,square
0.0,6.0,2.0,1.0,5.0,5.0,440.0589219999347,6.0,1.0,phase_2,stop,300.0,250.0,3.0,,,,,,,,,yellow,triangle
0.0,5.0,1.0,1.0,6.0,6.0,602.1126589998858,6.0,1.0,phase_2,go,250.0,250.0,1.0,,,,,,,,,green,I
0.0,1.0,1.0,0.0,6.0,6.0,621.9191760001195,6.0,1.0,phase_2,go,250.0,250.0,1.0,,,,,,,,,white,diamond
0.0,8.0,4.0,1.0,5.0,0.0,0.0,6.0,1.0,phase_2,stop,250.0,250.0,4.0,,,,,,,,,magenta,flipped triangle
0.0,5.0,1.0,1.0,6.0,6.0,716.2369389998275,6.0,1.0,phase_2,go,300.0,250.0,1.0,,,,,,,,,green,I
0.0,1.0,1.0,0.0,5.0,5.0,657.7466559997447,6.0,1.0,phase_2,go,300.0,250.0,1.0,,,,,,,,,white,diamond
0.0,3.0,3.0,0.0,5.0,5.0,639.5874469999399,6.0,1.0,phase_2,go,300.0,250.0,1.0,,,,,,,,,orange,hexagon
0.0,3.0,3.0,0.0,5.0,5.0,517.5853589998951,6.0,1.0,phase_2,go,300.0,250.0,1.0,,,,,,,,,orange,hexagon
0.0,5.0,1.0,1.0,5.0,0.0,0.0,6.0,1.0,phase_2,stop,300.0,250.0,4.0,,,,,,,,,green,I
0.0,6.0,2.0,1.0,6.0,6.0,397.1514090003438,6.0,1.0,phase_2,stop,350.0,250.0,3.0,,,,,,,,,yellow,triangle
0.0,6.0,2.0,1.0,5.0,5.0,556.2493150000591,6.0,1.0,phase_2,stop,350.0,200.0,3.0,,,,,,,,,yellow,triangle
0.0,4.0,4.0,0.0,6.0,6.0,601.8950489997223,6.0,1.0,phase_2,go,300.0,200.0,1.0,,,,,,,,,gray,cross
0.0,3.0,3.0,0.0,5.0,5.0,746.4909959999204,6.0,1.0,phase_2,go,300.0,200.0,1.0,,,,,,,,,orange,hexagon
0.0,2.0,2.0,0.0,6.0,6.0,550.0946850002038,6.0,1.0,phase_2,go,300.0,200.0,1.0,,,,,,,,,cyan,circle
0.0,2.0,2.0,0.0,5.0,5.0,588.82342600009,6.0,1.0,phase_2,go,300.0,200.0,1.0,,,,,,,,,cyan,circle
0.0,1.0,1.0,0.0,6.0,6.0,402.9226630000266,6.0,1.0,phase_2,go,300.0,200.0,1.0,,,,,,,,,white,diamond
0.0,8.0,4.0,1.0,6.0,0.0,0.0,6.0,1.0,phase_2,stop,300.0,200.0,4.0,,,,,,,,,magenta,flipped triangle
0.0,6.0,2.0,1.0,5.0,0.0,0.0,6.0,1.0,phase_2,stop,300.0,250.0,4.0,,,,,,,,,yellow,triangle
0.0,4.0,4.0,0.0,5.0,5.0,676.4808160000939,6.0,1.0,phase_2,go,350.0,250.0,1.0,,,,,,,,,gray,cross
0.0,4.0,4.0,0.0,5.0,5.0,484.1554069998892,6.0,1.0,phase_2,go,350.0,250.0,1.0,,,,,,,,,gray,cross
0.0,2.0,2.0,0.0,6.0,6.0,536.1286110000947,6.0,1.0,phase_2,go,350.0,250.0,1.0,,,,,,,,,cyan,circle
0.0,8.0,4.0,1.0,6.0,6.0,518.1906709999566,6.0,1.0,phase_2,go,350.0,250.0,1.0,,,,,,,,,magenta,flipped triangle
0.0,3.0,3.0,0.0,6.0,6.0,480.0984979997338,6.0,1.0,phase_2,go,350.0,250.0,1.0,,,,,,,,,orange,hexagon
0.0,2.0,2.0,0.0,5.0,5.0,574.3506569997407,6.0,1.0,phase_2,go,350.0,250.0,1.0,,,,,,,,,cyan,circle
0.0,6.0,2.0,1.0,5.0,5.0,547.2161689999666,6.0,1.0,phase_2,stop,350.0,250.0,3.0,,,,,,,,,yellow,triangle
0.0,3.0,3.0,0.0,5.0,5.0,536.9652059998771,6.0,1.0,phase_2,go,300.0,250.0,1.0,,,,,,,,,orange,hexagon
0.0,8.0,4.0,1.0,5.0,0.0,0.0,6.0,1.0,phase_2,stop,300.0,250.0,4.0,,,,,,,,,magenta,flipped triangle
0.0,8.0,4.0,1.0,5.0,0.0,0.0,6.0,1.0,phase_2,stop,350.0,250.0,4.0,,,,,,,,,magenta,flipped triangle
0.0,1.0,1.0,0.0,6.0,6.0,593.2797119999123,6.0,1.0,phase_2,go,400.0,250.0,1.0,,,,,,,,,white,diamond
0.0,5.0,1.0,1.0,5.0,0.0,0.0,6.0,1.0,phase_2,stop,400.0,250.0,4.0,,,,,,,,,green,I
0.0,6.0,2.0,1.0,5.0,5.0,538.0272980000882,7.0,1.0,phase_2,stop,450.0,250.0,3.0,,,,,,,,,yellow,triangle
0.0,7.0,3.0,1.0,6.0,0.0,0.0,7.0,1.0,phase_2,stop,400.0,250.0,4.0,,,,,,,,,blue,square
0.0,8.0,4.0,1.0,6.0,6.0,470.0618520000716,7.0,1.0,phase_2,go,400.0,300.0,1.0,,,,,,,,,magenta,flipped triangle
0.0,5.0,1.0,1.0,6.0,6.0,667.4273180001364,7.0,1.0,phase_2,go,400.0,300.0,1.0,,,,,,,,,green,I
0.0,8.0,4.0,1.0,5.0,5.0,530.4548570002225,7.0,1.0,phase_2,stop,400.0,300.0,3.0,,,,,,,,,magenta,flipped triangle
0.0,2.0,2.0,0.0,5.0,5.0,443.1357810003646,7.0,1.0,phase_2,go,350.0,300.0,1.0,,,,,,,,,cyan,circle
0.0,4.0,4.0,0.0,6.0,6.0,630.2705690000039,7.0,1.0,phase_2,go,350.0,300.0,1.0,,,,,,,,,gray,cross
0.0,6.0,2.0,1.0,6.0,0.0,0.0,7.0,1.0,phase_2,stop,350.0,300.0,4.0,,,,,,,,,yellow,triangle
0.0,8.0,4.0,1.0,5.0,5.0,542.9336980000699,7.0,1.0,phase_2,stop,350.0,350.0,3.0,,,,,,,,,magenta,flipped triangle
0.0,6.0,2.0,1.0,6.0,0.0,0.0,7.0,1.0,phase_2,stop,300.0,350.0,4.0,,,,,,,,,yellow,triangle
0.0,6.0,2.0,1.0,5.0,5.0,630.7085510002253,7.0,1.0,phase_2,go,300.0,400.0,1.0,,,,,,,,,yellow,triangle
0.0,5.0,1.0,1.0,5.0,0.0,0.0,7.0,1.0,phase_2,stop,300.0,400.0,4.0,,,,,,,,,green,I
0.0,6.0,2.0,1.0,5.0,0.0,0.0,7.0,1.0,phase_2,stop,350.0,400.0,4.0,,,,,,,,,yellow,triangle
0.0,3.0,3.0,0.0,6.0,6.0,715.7803449999847,7.0,1.0,phase_2,go,400.0,400.0,1.0,,,,,,,,,orange,hexagon
0.0,6.0,2.0,1.0,5.0,0.0,0.0,7.0,1.0,phase_2,stop,400.0,400.0,4.0,,,,,,,,,yellow,triangle
0.0,5.0,1.0,1.0,5.0,5.0,713.5344019998229,7.0,1.0,phase_2,stop,450.0,400.0,3.0,,,,,,,,,green,I
0.0,4.0,4.0,0.0,6.0,6.0,761.0003690001577,7.0,1.0,phase_2,go,400.0,400.0,1.0,,,,,,,,,gray,cross
0.0,5.0,1.0,1.0,6.0,0.0,0.0,7.0,1.0,phase_2,stop,400.0,400.0,4.0,,,,,,,,,green,I
0.0,1.0,1.0,0.0,5.0,5.0,846.9362209998508,7.0,1.0,phase_2,go,400.0,450.0,1.0,,,,,,,,,white,diamond
0.0,1.0,1.0,0.0,5.0,5.0,914.6652320000612,7.0,1.0,phase_2,go,400.0,450.0,1.0,,,,,,,,,white,diamond
0.0,6.0,2.0,1.0,5.0,5.0,526.9460340000478,7.0,1.0,phase_2,go,400.0,450.0,1.0,,,,,,,,,yellow,triangle
0.0,6.0,2.0,1.0,6.0,6.0,717.674388999967,7.0,1.0,phase_2,stop,400.0,450.0,3.0,,,,,,,,,yellow,triangle
0.0,8.0,4.0,1.0,5.0,5.0,492.3039710001831,7.0,1.0,phase_2,stop,400.0,400.0,3.0,,,,,,,,,magenta,flipped triangle
0.0,2.0,2.0,0.0,5.0,5.0,498.7981419999414,7.0,1.0,phase_2,go,350.0,400.0,1.0,,,,,,,,,cyan,circle
0.0,7.0,3.0,1.0,6.0,6.0,458.1025819998103,7.0,1.0,phase_2,stop,350.0,400.0,3.0,,,,,,,,,blue,square
0.0,1.0,1.0,0.0,5.0,5.0,424.0042400001584,7.0,1.0,phase_2,go,350.0,350.0,1.0,,,,,,,,,white,diamond
0.0,1.0,1.0,0.0,5.0,5.0,338.6323650001941,7.0,1.0,phase_2,go,350.0,350.0,1.0,,,,,,,,,white,diamond
0.0,4.0,4.0,0.0,6.0,6.0,734.1523629997937,7.0,1.0,phase_2,go,350.0,350.0,1.0,,,,,,,,,gray,cross
0.0,2.0,2.0,0.0,5.0,5.0,339.8750219998874,7.0,1.0,phase_2,go,350.0,350.0,1.0,,,,,,,,,cyan,circle
0.0,3.0,3.0,0.0,6.0,6.0,338.1618569997044,7.0,1.0,phase_2,go,350.0,350.0,1.0,,,,,,,,,orange,hexagon
0.0,2.0,2.0,0.0,6.0,6.0,339.7397290000299,7.0,1.0,phase_2,go,350.0,350.0,1.0,,,,,,,,,cyan,circle
0.0,5.0,1.0,1.0,6.0,6.0,348.0632280002282,7.0,1.0,phase_2,go,350.0,350.0,1.0,,,,,,,,,green,I
0.0,4.0,4.0,0.0,5.0,5.0,321.5859219999402,7.0,1.0,phase_2,go,350.0,350.0,1.0,,,,,,,,,gray,cross
0.0,6.0,2.0,1.0,6.0,6.0,273.3322399999451,7.0,1.0,phase_2,stop,350.0,350.0,3.0,,,,,,,,,yellow,triangle
0.0,7.0,3.0,1.0,6.0,6.0,442.677859000014,7.0,1.0,phase_2,go,350.0,300.0,1.0,,,,,,,,,blue,square
0.0,7.0,3.0,1.0,5.0,5.0,434.2415430000983,7.0,1.0,phase_2,stop,350.0,300.0,3.0,,,,,,,,,blue,square
0.0,7.0,3.0,1.0,6.0,6.0,1032.200076999743,8.0,1.0,phase_2,go,300.0,300.0,1.0,,,,,,,,,blue,square
0.0,2.0,2.0,0.0,6.0,6.0,460.5552860002717,8.0,1.0,phase_2,go,300.0,300.0,1.0,,,,,,,,,cyan,circle
0.0,2.0,2.0,0.0,5.0,5.0,451.5370469998743,8.0,1.0,phase_2,go,300.0,300.0,1.0,,,,,,,,,cyan,circle
0.0,5.0,1.0,1.0,6.0,6.0,407.7138070001638,8.0,1.0,phase_2,stop,300.0,300.0,3.0,,,,,,,,,green,I
0.0,4.0,4.0,0.0,5.0,5.0,471.3991620001252,8.0,1.0,phase_2,go,300.0,250.0,1.0,,,,,,,,,gray,cross
0.0,2.0,2.0,0.0,5.0,5.0,346.8699279997054,8.0,1.0,phase_2,go,300.0,250.0,1.0,,,,,,,,,cyan,circle
0.0,5.0,1.0,1.0,5.0,5.0,352.7202520003811,8.0,1.0,phase_2,stop,300.0,250.0,3.0,,,,,,,,,green,I
0.0,5.0,1.0,1.0,5.0,5.0,392.456175999996,8.0,1.0,phase_2,stop,250.0,250.0,3.0,,,,,,,,,green,I
0.0,1.0,1.0,0.0,6.0,6.0,395.8704870001384,8.0,1.0,phase_2,go,200.0,250.0,1.0,,,,,,,,,white,diamond
0.0,8.0,4.0,1.0,5.0,6.0,506.96649699966656,8.0,1.0,phase_2,go,200.0,250.0,2.0,,,,,,,,,magenta,flipped triangle
0.0,1.0,1.0,0.0,6.0,6.0,377.0668920001299,8.0,1.0,phase_2,go,200.0,250.0,1.0,,,,,,,,,white,diamond
0.0,6.0,2.0,1.0,6.0,6.0,430.8752649999405,8.0,1.0,phase_2,stop,200.0,250.0,3.0,,,,,,,,,yellow,triangle
0.0,2.0,2.0,0.0,6.0,6.0,377.5566420003997,8.0,1.0,phase_2,go,200.0,200.0,1.0,,,,,,,,,cyan,circle
0.0,8.0,4.0,1.0,6.0,6.0,286.3561260001006,8.0,1.0,phase_2,stop,200.0,200.0,3.0,,,,,,,,,magenta,flipped triangle
0.0,3.0,3.0,0.0,6.0,6.0,413.5536430003412,8.0,1.0,phase_2,go,200.0,150.0,1.0,,,,,,,,,orange,hexagon
0.0,8.0,4.0,1.0,5.0,5.0,268.7853829997948,8.0,1.0,phase_2,stop,200.0,150.0,3.0,,,,,,,,,magenta,flipped triangle
0.0,6.0,2.0,1.0,6.0,6.0,264.4856199999594,8.0,1.0,phase_2,stop,150.0,150.0,3.0,,,,,,,,,yellow,triangle
0.0,6.0,2.0,1.0,6.0,6.0,281.9908499996018,8.0,1.0,phase_2,go,150.0,100.0,1.0,,,,,,,,,yellow,triangle
0.0,8.0,4.0,1.0,6.0,6.0,235.65365200011,8.0,1.0,phase_2,go,150.0,100.0,1.0,,,,,,,,,magenta,flipped triangle
0.0,8.0,4.0,1.0,5.0,5.0,432.4811880001107,8.0,1.0,phase_2,go,150.0,100.0,1.0,,,,,,,,,magenta,flipped triangle
0.0,2.0,2.0,0.0,5.0,5.0,320.5395529998895,8.0,1.0,phase_2,go,150.0,100.0,1.0,,,,,,,,,cyan,circle
0.0,5.0,1.0,1.0,6.0,6.0,273.9283450000584,8.0,1.0,phase_2,go,150.0,100.0,1.0,,,,,,,,,green,I
0.0,7.0,3.0,1.0,6.0,6.0,273.0319430002055,8.0,1.0,phase_2,stop,150.0,100.0,3.0,,,,,,,,,blue,square
0.0,3.0,3.0,0.0,5.0,5.0,339.7979589999522,8.0,1.0,phase_2,go,150.0,50.0,1.0,,,,,,,,,orange,hexagon
0.0,1.0,1.0,0.0,6.0,6.0,282.3979220002002,8.0,1.0,phase_2,go,150.0,50.0,1.0,,,,,,,,,white,diamond
0.0,3.0,3.0,0.0,5.0,5.0,281.9841670002461,8.0,1.0,phase_2,go,150.0,50.0,1.0,,,,,,,,,orange,hexagon
0.0,6.0,2.0,1.0,6.0,6.0,423.2427420001841,8.0,1.0,phase_2,stop,150.0,50.0,3.0,,,,,,,,,yellow,triangle
0.0,5.0,1.0,1.0,6.0,6.0,310.85129099983527,8.0,1.0,phase_2,go,150.0,0.0,1.0,,,,,,,,,green,I
0.0,3.0,3.0,0.0,5.0,5.0,385.8705739999095,8.0,1.0,phase_2,go,150.0,0.0,1.0,,,,,,,,,orange,hexagon
0.0,8.0,4.0,1.0,5.0,5.0,329.679383000439,8.0,1.0,phase_2,go,150.0,0.0,1.0,,,,,,,,,magenta,flipped triangle
0.0,1.0,1.0,0.0,6.0,6.0,404.260260999763,8.0,1.0,phase_2,go,150.0,0.0,1.0,,,,,,,,,white,diamond
0.0,3.0,3.0,0.0,6.0,6.0,357.549089999793,8.0,1.0,phase_2,go,150.0,0.0,1.0,,,,,,,,,orange,hexagon
0.0,2.0,2.0,0.0,6.0,6.0,338.3862089999638,8.0,1.0,phase_2,go,150.0,0.0,1.0,,,,,,,,,cyan,circle
0.0,2.0,2.0,0.0,6.0,6.0,479.8645550004039,8.0,1.0,phase_2,go,150.0,0.0,1.0,,,,,,,,,cyan,circle
0.0,1.0,1.0,0.0,6.0,6.0,461.0208429999147,8.0,1.0,phase_2,go,150.0,0.0,1.0,,,,,,,,,white,diamond
0.0,6.0,2.0,1.0,5.0,5.0,461.8784419999429,8.0,1.0,phase_2,stop,150.0,0.0,3.0,,,,,,,,,yellow,triangle
0.0,6.0,2.0,1.0,7.0,1.0,2042.0921240001921,1.0,1.0,phase_3,,,,,616.0,4.0,616.0,462.0,770.0,154.0,924.0,308.0,yellow,triangle
0.0,3.0,3.0,0.0,7.0,2.0,2711.9291620001604,1.0,1.0,phase_3,,,,,462.0,3.0,308.0,462.0,616.0,770.0,154.0,924.0,orange,hexagon
0.0,2.0,2.0,0.0,7.0,5.0,2977.3501710005803,1.0,1.0,phase_3,,,,,576.0,3.0,384.0,1152.0,960.0,768.0,576.0,192.0,cyan,circle
0.0,4.0,4.0,0.0,7.0,4.0,1426.6103130003105,1.0,1.0,phase_3,,,,,616.0,4.0,154.0,462.0,924.0,616.0,770.0,308.0,gray,cross
0.0,7.0,3.0,1.0,7.0,5.0,765.6160300002739,1.0,1.0,phase_3,,,,,960.0,5.0,384.0,1152.0,768.0,192.0,960.0,576.0,blue,square
0.0,2.0,2.0,0.0,7.0,6.0,1006.9676929997513,1.0,1.0,phase_3,,,,,616.0,4.0,154.0,770.0,924.0,462.0,308.0,616.0,cyan,circle
0.0,4.0,4.0,0.0,7.0,2.0,607.8374790004091,1.0,1.0,phase_3,,,,,675.0,5.0,540.0,675.0,270.0,405.0,810.0,135.0,gray,cross
0.0,6.0,2.0,1.0,7.0,4.0,401.7629410000154,1.0,1.0,phase_3,,,,,270.0,2.0,135.0,405.0,540.0,270.0,675.0,810.0,yellow,triangle
0.0,3.0,3.0,0.0,7.0,1.0,754.5521880001616,1.0,1.0,phase_3,,,,,116.0,1.0,116.0,464.0,580.0,348.0,232.0,696.0,orange,hexagon
0.0,5.0,1.0,1.0,7.0,6.0,1971.3313679994824,1.0,1.0,phase_3,,,,,405.0,3.0,810.0,135.0,270.0,675.0,540.0,405.0,green,I
0.0,7.0,3.0,1.0,7.0,2.0,2356.667319000735,1.0,1.0,phase_3,,,,,462.0,3.0,616.0,462.0,770.0,154.0,924.0,308.0,blue,square
0.0,6.0,2.0,1.0,7.0,3.0,1389.523881999594,1.0,1.0,phase_3,,,,,405.0,3.0,675.0,270.0,405.0,540.0,135.0,810.0,yellow,triangle
0.0,4.0,4.0,0.0,7.0,5.0,2174.0818779999245,1.0,1.0,phase_3,,,,,462.0,3.0,924.0,616.0,770.0,154.0,462.0,308.0,gray,cross
0.0,7.0,3.0,1.0,7.0,3.0,2426.8151969999963,1.0,1.0,phase_3,,,,,405.0,3.0,270.0,540.0,405.0,135.0,675.0,810.0,blue,square
0.0,1.0,1.0,0.0,7.0,4.0,290.1239570001053,1.0,1.0,phase_3,,,,,1038.0,6.0,519.0,173.0,865.0,1038.0,692.0,346.0,white,diamond
0.0,1.0,1.0,0.0,7.0,5.0,2058.8871899999504,1.0,1.0,phase_3,,,,,1038.0,6.0,692.0,865.0,173.0,519.0,1038.0,346.0,white,diamond
0.0,4.0,4.0,0.0,7.0,4.0,1748.4663880004518,1.0,1.0,phase_3,,,,,464.0,4.0,232.0,580.0,348.0,464.0,696.0,116.0,gray,cross
0.0,6.0,2.0,1.0,7.0,6.0,1690.8413439996366,1.0,1.0,phase_3,,,,,464.0,4.0,232.0,348.0,116.0,696.0,580.0,464.0,yellow,triangle
0.0,5.0,1.0,1.0,7.0,3.0,2064.9802660000205,1.0,1.0,phase_3,,,,,308.0,2.0,462.0,924.0,308.0,616.0,154.0,770.0,green,I
0.0,4.0,4.0,0.0,7.0,3.0,1640.1819029997569,1.0,1.0,phase_3,,,,,384.0,2.0,576.0,192.0,384.0,960.0,1152.0,768.0,gray,cross
0.0,8.0,4.0,1.0,7.0,2.0,709.9856430004365,2.0,1.0,phase_3,,,,,308.0,2.0,154.0,308.0,462.0,616.0,770.0,924.0,magenta,flipped triangle
0.0,5.0,1.0,1.0,7.0,3.0,346.5212270002666,2.0,1.0,phase_3,,,,,768.0,4.0,384.0,576.0,768.0,1152.0,192.0,960.0,green,I
0.0,6.0,2.0,1.0,7.0,5.0,293.2496980001815,2.0,1.0,phase_3,,,,,692.0,4.0,346.0,1038.0,173.0,865.0,692.0,519.0,yellow,triangle
0.0,2.0,2.0,0.0,7.0,4.0,758.9096039992,2.0,1.0,phase_3,,,,,540.0,4.0,675.0,405.0,135.0,540.0,810.0,270.0,cyan,circle
0.0,8.0,4.0,1.0,7.0,2.0,483.5693969998829,2.0,1.0,phase_3,,,,,346.0,2.0,519.0,346.0,1038.0,692.0,173.0,865.0,magenta,flipped triangle
0.0,2.0,2.0,0.0,7.0,2.0,1112.0842689997517,2.0,1.0,phase_3,,,,,616.0,4.0,770.0,616.0,924.0,154.0,308.0,462.0,cyan,circle
0.0,1.0,1.0,0.0,7.0,2.0,971.4206800008468,2.0,1.0,phase_3,,,,,308.0,2.0,770.0,308.0,924.0,616.0,154.0,462.0,white,diamond
0.0,2.0,2.0,0.0,7.0,1.0,921.9287729993084,2.0,1.0,phase_3,,,,,865.0,5.0,865.0,173.0,692.0,519.0,1038.0,346.0,cyan,circle
0.0,3.0,3.0,0.0,7.0,5.0,756.5183590004381,2.0,1.0,phase_3,,,,,405.0,3.0,675.0,135.0,540.0,270.0,405.0,810.0,orange,hexagon
0.0,5.0,1.0,1.0,7.0,2.0,1353.409289999945,2.0,1.0,phase_3,,,,,308.0,2.0,616.0,308.0,462.0,924.0,770.0,154.0,green,I
0.0,5.0,1.0,1.0,7.0,4.0,932.883039000444,2.0,1.0,phase_3,,,,,405.0,3.0,810.0,675.0,135.0,405.0,270.0,540.0,green,I
0.0,1.0,1.0,0.0,7.0,4.0,1007.0830760005265,2.0,1.0,phase_3,,,,,580.0,5.0,348.0,116.0,232.0,580.0,464.0,696.0,white,diamond
0.0,8.0,4.0,1.0,7.0,2.0,914.1166669996892,2.0,1.0,phase_3,,,,,270.0,2.0,540.0,270.0,405.0,135.0,675.0,810.0,magenta,flipped triangle
0.0,7.0,3.0,1.0,7.0,3.0,671.624802000224,2.0,1.0,phase_3,,,,,464.0,4.0,580.0,696.0,464.0,116.0,348.0,232.0,blue,square
0.0,7.0,3.0,1.0,7.0,3.0,785.6034410006032,2.0,1.0,phase_3,,,,,462.0,3.0,154.0,924.0,462.0,616.0,770.0,308.0,blue,square
0.0,1.0,1.0,0.0,7.0,6.0,1016.5513310003007,2.0,1.0,phase_3,,,,,384.0,2.0,192.0,960.0,576.0,768.0,1152.0,384.0,white,diamond
0.0,7.0,3.0,1.0,7.0,5.0,1026.6535139999178,2.0,1.0,phase_3,,,,,346.0,2.0,1038.0,519.0,865.0,173.0,346.0,692.0,blue,square
0.0,2.0,2.0,0.0,7.0,6.0,796.5882889993736,2.0,1.0,phase_3,,,,,384.0,2.0,192.0,768.0,1152.0,576.0,960.0,384.0,cyan,circle
0.0,8.0,4.0,1.0,7.0,3.0,914.4276979995992,2.0,1.0,phase_3,,,,,580.0,5.0,464.0,232.0,580.0,116.0,348.0,696.0,magenta,flipped triangle
0.0,2.0,2.0,0.0,7.0,4.0,792.4730730001102,2.0,1.0,phase_3,,,,,464.0,4.0,348.0,232.0,116.0,464.0,580.0,696.0,cyan,circle
0.0,4.0,4.0,0.0,7.0,4.0,904.5467160003682,3.0,1.0,phase_3,,,,,576.0,3.0,192.0,1152.0,960.0,576.0,384.0,768.0,gray,cross
0.0,7.0,3.0,1.0,7.0,5.0,935.3454789998068,3.0,1.0,phase_3,,,,,540.0,4.0,675.0,810.0,270.0,405.0,540.0,135.0,blue,square
0.0,7.0,3.0,1.0,7.0,4.0,794.2777360003674,3.0,1.0,phase_3,,,,,384.0,2.0,576.0,768.0,960.0,384.0,1152.0,192.0,blue,square
0.0,8.0,4.0,1.0,7.0,2.0,608.3153999998103,3.0,1.0,phase_3,,,,,462.0,3.0,154.0,462.0,308.0,616.0,924.0,770.0,magenta,flipped triangle
0.0,5.0,1.0,1.0,7.0,5.0,701.7348559993479,3.0,1.0,phase_3,,,,,173.0,1.0,519.0,865.0,346.0,1038.0,173.0,692.0,green,I
0.0,3.0,3.0,0.0,7.0,5.0,1568.653848999929,3.0,1.0,phase_3,,,,,192.0,1.0,768.0,1152.0,384.0,960.0,192.0,576.0,orange,hexagon
0.0,4.0,4.0,0.0,7.0,6.0,1495.374807000189,3.0,1.0,phase_3,,,,,540.0,4.0,270.0,135.0,675.0,810.0,405.0,540.0,gray,cross
0.0,5.0,1.0,1.0,7.0,6.0,1137.574121000398,3.0,1.0,phase_3,,,,,576.0,3.0,192.0,1152.0,768.0,960.0,384.0,576.0,green,I
0.0,8.0,4.0,1.0,7.0,1.0,944.5211369993558,3.0,1.0,phase_3,,,,,519.0,3.0,519.0,692.0,346.0,1038.0,865.0,173.0,magenta,flipped triangle
0.0,3.0,3.0,0.0,7.0,2.0,1189.2777769999157,3.0,1.0,phase_3,,,,,576.0,3.0,1152.0,576.0,768.0,384.0,960.0,192.0,orange,hexagon
0.0,3.0,3.0,0.0,7.0,5.0,1045.3816569997798,3.0,1.0,phase_3,,,,,519.0,3.0,346.0,865.0,173.0,1038.0,519.0,692.0,orange,hexagon
0.0,6.0,2.0,1.0,7.0,6.0,1085.6987400002254,3.0,1.0,phase_3,,,,,576.0,3.0,384.0,1152.0,960.0,192.0,768.0,576.0,yellow,triangle
0.0,6.0,2.0,1.0,7.0,2.0,951.0866400005398,3.0,1.0,phase_3,,,,,346.0,2.0,519.0,346.0,865.0,173.0,692.0,1038.0,yellow,triangle
0.0,8.0,4.0,1.0,7.0,5.0,542.677263000769,3.0,1.0,phase_3,,,,,540.0,4.0,675.0,135.0,270.0,405.0,540.0,810.0,magenta,flipped triangle
0.0,1.0,1.0,0.0,7.0,4.0,758.8936860001922,3.0,1.0,phase_3,,,,,462.0,3.0,616.0,924.0,308.0,462.0,770.0,154.0,white,diamond
0.0,3.0,3.0,0.0,7.0,4.0,599.4347600008041,3.0,1.0,phase_3,,,,,540.0,4.0,405.0,675.0,810.0,540.0,135.0,270.0,orange,hexagon
0.0,3.0,3.0,0.0,7.0,5.0,840.7702069998777,3.0,1.0,phase_3,,,,,519.0,3.0,173.0,692.0,865.0,346.0,519.0,1038.0,orange,hexagon
0.0,1.0,1.0,0.0,7.0,5.0,934.3453120000048,3.0,1.0,phase_3,,,,,768.0,4.0,1152.0,576.0,384.0,960.0,768.0,192.0,white,diamond
0.0,5.0,1.0,1.0,7.0,2.0,710.859891999462,3.0,1.0,phase_3,,,,,865.0,5.0,346.0,865.0,173.0,1038.0,519.0,692.0,green,I
0.0,1.0,1.0,0.0,7.0,5.0,617.0221840002341,3.0,1.0,phase_3,,,,,580.0,5.0,348.0,696.0,116.0,464.0,580.0,232.0,white,diamond
0.0,2.0,2.0,0.0,7.0,4.0,784.0566459999536,4.0,1.0,phase_3,,,,,865.0,5.0,346.0,692.0,1038.0,865.0,519.0,173.0,cyan,circle
0.0,2.0,2.0,0.0,7.0,5.0,738.7369180005408,4.0,1.0,phase_3,,,,,135.0,1.0,540.0,270.0,405.0,675.0,135.0,810.0,cyan,circle
0.0,3.0,3.0,0.0,7.0,5.0,699.8683309993794,4.0,1.0,phase_3,,,,,580.0,5.0,696.0,232.0,464.0,116.0,580.0,348.0,orange,hexagon
0.0,5.0,1.0,1.0,7.0,5.0,682.7475569998569,4.0,1.0,phase_3,,,,,116.0,1.0,464.0,580.0,232.0,348.0,116.0,696.0,green,I
0.0,1.0,1.0,0.0,7.0,5.0,589.2943940007171,4.0,1.0,phase_3,,,,,810.0,6.0,675.0,135.0,540.0,405.0,810.0,270.0,white,diamond
0.0,8.0,4.0,1.0,7.0,2.0,580.6117900001482,4.0,1.0,phase_3,,,,,384.0,2.0,1152.0,384.0,768.0,192.0,576.0,960.0,magenta,flipped triangle
0.0,2.0,2.0,0.0,7.0,4.0,1188.9778770000703,4.0,1.0,phase_3,,,,,464.0,4.0,348.0,116.0,232.0,464.0,580.0,696.0,cyan,circle
0.0,8.0,4.0,1.0,7.0,5.0,794.3012910000107,4.0,1.0,phase_3,,,,,384.0,2.0,576.0,960.0,192.0,768.0,384.0,1152.0,magenta,flipped triangle
0.0,5.0,1.0,1.0,7.0,3.0,868.2097330001852,4.0,1.0,phase_3,,,,,696.0,6.0,464.0,116.0,696.0,348.0,580.0,232.0,green,I
0.0,4.0,4.0,0.0,7.0,2.0,839.7009310001522,4.0,1.0,phase_3,,,,,1038.0,6.0,346.0,1038.0,519.0,692.0,865.0,173.0,gray,cross
0.0,4.0,4.0,0.0,7.0,6.0,766.0078770004475,4.0,1.0,phase_3,,,,,696.0,6.0,580.0,464.0,348.0,232.0,116.0,696.0,gray,cross
0.0,7.0,3.0,1.0,7.0,3.0,729.6340759994564,4.0,1.0,phase_3,,,,,519.0,3.0,865.0,692.0,519.0,1038.0,173.0,346.0,blue,square
0.0,6.0,2.0,1.0,7.0,6.0,859.0828419992249,4.0,1.0,phase_3,,,,,116.0,1.0,696.0,580.0,348.0,232.0,464.0,116.0,yellow,triangle
0.0,6.0,2.0,1.0,7.0,4.0,851.4936089995899,4.0,1.0,phase_3,,,,,308.0,2.0,616.0,154.0,770.0,308.0,462.0,924.0,yellow,triangle
0.0,4.0,4.0,0.0,7.0,4.0,775.0703709998561,4.0,1.0,phase_3,,,,,519.0,3.0,1038.0,865.0,346.0,519.0,173.0,692.0,gray,cross
0.0,3.0,3.0,0.0,7.0,3.0,729.4707139999446,4.0,1.0,phase_3,,,,,462.0,3.0,154.0,924.0,462.0,616.0,308.0,770.0,orange,hexagon
0.0,1.0,1.0,0.0,7.0,4.0,784.7525569995923,4.0,1.0,phase_3,,,,,405.0,3.0,270.0,810.0,135.0,405.0,540.0,675.0,white,diamond
0.0,6.0,2.0,1.0,7.0,6.0,1092.18868500011,4.0,1.0,phase_3,,,,,960.0,5.0,768.0,576.0,1152.0,192.0,384.0,960.0,yellow,triangle
0.0,8.0,4.0,1.0,7.0,3.0,757.5588439995045,4.0,1.0,phase_3,,,,,696.0,6.0,116.0,348.0,696.0,464.0,232.0,580.0,magenta,flipped triangle
0.0,7.0,3.0,1.0,7.0,5.0,662.8731849996257,4.0,1.0,phase_3,,,,,348.0,3.0,696.0,232.0,116.0,464.0,348.0,580.0,blue,square
