raw_reward_magnitude,stim_reward,stepwise_reward_magnitude,paired_with_stopping,stim_location,response,reaction_time,block,num_trial_presentations,which_phase,stop_signal_trial_type,left_SSD,right_SSD,accuracy,chosen_bidding_amount,chosen_bidding_level,possible_bid_1,possible_bid_2,possible_bid_3,possible_bid_4,possible_bid_5,possible_bid_6,color_text,shape_text
0.0,2.0,0.0,0.0,1.0,1.0,345.8104340243153,1.0,1.0,phase_1,,,,,,,,,,,,,green,circle
160.0,5.0,1.0,1.0,1.0,1.0,399.6825329959392,1.0,1.0,phase_1,,,,,,,,,,,,,blue,diamond
166.0,1.0,1.0,0.0,2.0,2.0,473.2042100513354,1.0,1.0,phase_1,,,,,,,,,,,,,cyan,hexagon
166.0,5.0,1.0,1.0,3.0,3.0,333.3378779934719,1.0,1.0,phase_1,,,,,,,,,,,,,blue,diamond
0.0,3.0,0.0,0.0,2.0,2.0,382.3748180293478,1.0,2.0,phase_1,,,,,,,,,,,,,gray,square
1282.0,4.0,4.0,0.0,1.0,1.0,363.1194500485435,1.0,1.0,phase_1,,,,,,,,,,,,,orange,cross
1312.0,8.0,4.0,1.0,1.0,1.0,361.6704040323384,1.0,1.0,phase_1,,,,,,,,,,,,,magenta,flipped triangle
667.0,3.0,3.0,0.0,4.0,4.0,370.0245570507832,1.0,2.0,phase_1,,,,,,,,,,,,,gray,square
0.0,5.0,0.0,1.0,4.0,4.0,315.5030179768801,1.0,1.0,phase_1,,,,,,,,,,,,,blue,diamond
148.0,1.0,1.0,0.0,1.0,1.0,400.6780679919757,1.0,2.0,phase_1,,,,,,,,,,,,,cyan,hexagon
1307.0,8.0,4.0,1.0,3.0,3.0,399.7211449895985,1.0,1.0,phase_1,,,,,,,,,,,,,magenta,flipped triangle
635.0,3.0,3.0,0.0,2.0,2.0,380.2960640168749,1.0,1.0,phase_1,,,,,,,,,,,,,gray,square
654.0,3.0,3.0,0.0,4.0,4.0,316.559330036398,1.0,1.0,phase_1,,,,,,,,,,,,,gray,square
333.0,2.0,2.0,0.0,1.0,1.0,380.9423809871077,1.0,1.0,phase_1,,,,,,,,,,,,,green,circle
671.0,7.0,3.0,1.0,1.0,1.0,361.9397870497778,1.0,1.0,phase_1,,,,,,,,,,,,,white,I
1277.0,8.0,4.0,1.0,2.0,2.0,417.8850619937293,1.0,1.0,phase_1,,,,,,,,,,,,,magenta,flipped triangle
0.0,4.0,0.0,0.0,2.0,2.0,362.306545022875,1.0,1.0,phase_1,,,,,,,,,,,,,orange,cross
655.0,7.0,3.0,1.0,4.0,4.0,352.8520819963887,1.0,1.0,phase_1,,,,,,,,,,,,,white,I
150.0,1.0,1.0,0.0,4.0,4.0,353.3938910113647,1.0,1.0,phase_1,,,,,,,,,,,,,cyan,hexagon
0.0,8.0,0.0,1.0,2.0,2.0,300.9836610290222,1.0,1.0,phase_1,,,,,,,,,,,,,magenta,flipped triangle
0.0,4.0,0.0,0.0,1.0,1.0,344.2831719876267,1.0,1.0,phase_1,,,,,,,,,,,,,orange,cross
330.0,2.0,2.0,0.0,2.0,2.0,307.8664329950697,1.0,1.0,phase_1,,,,,,,,,,,,,green,circle
1306.0,8.0,4.0,1.0,4.0,4.0,269.1183040151372,1.0,1.0,phase_1,,,,,,,,,,,,,magenta,flipped triangle
1298.0,4.0,4.0,0.0,3.0,3.0,326.7478189663961,1.0,1.0,phase_1,,,,,,,,,,,,,orange,cross
1286.0,8.0,4.0,1.0,2.0,2.0,270.2384399599395,1.0,1.0,phase_1,,,,,,,,,,,,,magenta,flipped triangle
141.0,5.0,1.0,1.0,2.0,2.0,324.9074849882163,1.0,1.0,phase_1,,,,,,,,,,,,,blue,diamond
306.0,2.0,2.0,0.0,4.0,4.0,309.0850810403935,1.0,1.0,phase_1,,,,,,,,,,,,,green,circle
639.0,7.0,3.0,1.0,4.0,4.0,334.3943899963051,1.0,1.0,phase_1,,,,,,,,,,,,,white,I
637.0,3.0,3.0,0.0,4.0,4.0,296.8800539965741,1.0,1.0,phase_1,,,,,,,,,,,,,gray,square
1307.0,4.0,4.0,0.0,3.0,3.0,343.1705230032094,1.0,1.0,phase_1,,,,,,,,,,,,,orange,cross
661.0,7.0,3.0,1.0,2.0,2.0,305.948705994524,1.0,1.0,phase_1,,,,,,,,,,,,,white,I
0.0,2.0,0.0,0.0,3.0,3.0,310.9596400172449,1.0,1.0,phase_1,,,,,,,,,,,,,green,circle
344.0,6.0,2.0,1.0,1.0,1.0,380.6380499736406,1.0,1.0,phase_1,,,,,,,,,,,,,yellow,triangle
633.0,3.0,3.0,0.0,1.0,1.0,323.941089969594,1.0,1.0,phase_1,,,,,,,,,,,,,gray,square
346.0,6.0,2.0,1.0,4.0,4.0,361.5370540064759,1.0,1.0,phase_1,,,,,,,,,,,,,yellow,triangle
0.0,8.0,0.0,1.0,4.0,4.0,334.3002320034429,1.0,1.0,phase_1,,,,,,,,,,,,,magenta,flipped triangle
0.0,7.0,0.0,1.0,3.0,3.0,323.1308910180814,1.0,1.0,phase_1,,,,,,,,,,,,,white,I
629.0,3.0,3.0,0.0,3.0,3.0,352.3036449914798,1.0,1.0,phase_1,,,,,,,,,,,,,gray,square
150.0,5.0,1.0,1.0,3.0,3.0,362.1868549962528,1.0,1.0,phase_1,,,,,,,,,,,,,blue,diamond
1298.0,8.0,4.0,1.0,2.0,2.0,444.9896240257658,1.0,2.0,phase_1,,,,,,,,,,,,,magenta,flipped triangle
672.0,7.0,3.0,1.0,4.0,4.0,335.1339499931782,1.0,1.0,phase_1,,,,,,,,,,,,,white,I
1280.0,8.0,4.0,1.0,3.0,3.0,325.5077539943158,1.0,1.0,phase_1,,,,,,,,,,,,,magenta,flipped triangle
311.0,6.0,2.0,1.0,1.0,1.0,333.870898000896,1.0,1.0,phase_1,,,,,,,,,,,,,yellow,triangle
1300.0,8.0,4.0,1.0,4.0,4.0,333.9982610195875,1.0,1.0,phase_1,,,,,,,,,,,,,magenta,flipped triangle
0.0,7.0,0.0,1.0,3.0,3.0,306.1730529880151,1.0,1.0,phase_1,,,,,,,,,,,,,white,I
176.0,1.0,1.0,0.0,3.0,3.0,362.2020520269871,1.0,1.0,phase_1,,,,,,,,,,,,,cyan,hexagon
337.0,2.0,2.0,0.0,3.0,3.0,307.3726419825107,1.0,1.0,phase_1,,,,,,,,,,,,,green,circle
0.0,2.0,0.0,0.0,1.0,1.0,334.941556036938,1.0,1.0,phase_1,,,,,,,,,,,,,green,circle
649.0,7.0,3.0,1.0,4.0,4.0,326.1520590167492,1.0,1.0,phase_1,,,,,,,,,,,,,white,I
1277.0,8.0,4.0,1.0,3.0,3.0,269.1564640263095,1.0,1.0,phase_1,,,,,,,,,,,,,magenta,flipped triangle
0.0,2.0,0.0,0.0,3.0,3.0,316.3150619948283,1.0,1.0,phase_1,,,,,,,,,,,,,green,circle
654.0,7.0,3.0,1.0,2.0,2.0,408.2747339853085,1.0,1.0,phase_1,,,,,,,,,,,,,white,I
1315.0,8.0,4.0,1.0,3.0,3.0,309.7827549790963,1.0,1.0,phase_1,,,,,,,,,,,,,magenta,flipped triangle
1293.0,4.0,4.0,0.0,4.0,4.0,306.5536619978957,1.0,1.0,phase_1,,,,,,,,,,,,,orange,cross
320.0,2.0,2.0,0.0,3.0,3.0,315.2094230172224,1.0,1.0,phase_1,,,,,,,,,,,,,green,circle
0.0,8.0,0.0,1.0,1.0,1.0,361.7787429830059,1.0,2.0,phase_1,,,,,,,,,,,,,magenta,flipped triangle
332.0,2.0,2.0,0.0,1.0,1.0,360.7149900053628,1.0,1.0,phase_1,,,,,,,,,,,,,green,circle
656.0,3.0,3.0,0.0,3.0,3.0,352.1204849821515,1.0,1.0,phase_1,,,,,,,,,,,,,gray,square
0.0,1.0,0.0,0.0,4.0,4.0,314.0807239688001,1.0,1.0,phase_1,,,,,,,,,,,,,cyan,hexagon
0.0,4.0,0.0,0.0,1.0,1.0,372.3976740147918,1.0,1.0,phase_1,,,,,,,,,,,,,orange,cross
635.0,7.0,3.0,1.0,4.0,4.0,361.2083329935558,1.0,1.0,phase_1,,,,,,,,,,,,,white,I
1307.0,4.0,4.0,0.0,2.0,2.0,490.057305956725,1.0,1.0,phase_1,,,,,,,,,,,,,orange,cross
163.0,5.0,1.0,1.0,3.0,3.0,305.0622779992409,1.0,1.0,phase_1,,,,,,,,,,,,,blue,diamond
0.0,3.0,0.0,0.0,4.0,4.0,351.8140700180083,1.0,1.0,phase_1,,,,,,,,,,,,,gray,square
0.0,3.0,0.0,0.0,4.0,4.0,342.3991080489941,1.0,1.0,phase_1,,,,,,,,,,,,,gray,square
0.0,6.0,0.0,1.0,3.0,3.0,278.9130539749749,1.0,1.0,phase_1,,,,,,,,,,,,,yellow,triangle
646.0,3.0,3.0,0.0,3.0,3.0,343.5277999960817,1.0,1.0,phase_1,,,,,,,,,,,,,gray,square
0.0,6.0,0.0,1.0,2.0,2.0,316.2740769912489,1.0,1.0,phase_1,,,,,,,,,,,,,yellow,triangle
152.0,1.0,1.0,0.0,4.0,4.0,323.530831024982,1.0,1.0,phase_1,,,,,,,,,,,,,cyan,hexagon
0.0,1.0,0.0,0.0,3.0,3.0,324.7847089660354,1.0,1.0,phase_1,,,,,,,,,,,,,cyan,hexagon
184.0,1.0,1.0,0.0,2.0,2.0,344.2197469994426,1.0,1.0,phase_1,,,,,,,,,,,,,cyan,hexagon
146.0,5.0,1.0,1.0,2.0,2.0,380.7556880055927,1.0,1.0,phase_1,,,,,,,,,,,,,blue,diamond
630.0,7.0,3.0,1.0,4.0,4.0,323.1260469765402,1.0,1.0,phase_1,,,,,,,,,,,,,white,I
1309.0,8.0,4.0,1.0,4.0,4.0,297.7538169943727,1.0,1.0,phase_1,,,,,,,,,,,,,magenta,flipped triangle
335.0,2.0,2.0,0.0,2.0,2.0,343.4243629453704,1.0,1.0,phase_1,,,,,,,,,,,,,green,circle
300.0,2.0,2.0,0.0,2.0,2.0,370.4209229908883,1.0,1.0,phase_1,,,,,,,,,,,,,green,circle
176.0,5.0,1.0,1.0,2.0,2.0,324.1681270301342,1.0,1.0,phase_1,,,,,,,,,,,,,blue,diamond
664.0,7.0,3.0,1.0,3.0,3.0,334.3344250461086,1.0,1.0,phase_1,,,,,,,,,,,,,white,I
152.0,5.0,1.0,1.0,4.0,4.0,286.3017420168035,1.0,1.0,phase_1,,,,,,,,,,,,,blue,diamond
1277.0,4.0,4.0,0.0,1.0,1.0,342.7063029957935,1.0,2.0,phase_1,,,,,,,,,,,,,orange,cross
636.0,3.0,3.0,0.0,2.0,2.0,407.0998329552822,1.0,1.0,phase_1,,,,,,,,,,,,,gray,square
0.0,8.0,0.0,1.0,2.0,2.0,417.8986310143955,1.0,1.0,phase_1,,,,,,,,,,,,,magenta,flipped triangle
152.0,5.0,1.0,1.0,4.0,4.0,334.7327939700335,1.0,1.0,phase_1,,,,,,,,,,,,,blue,diamond
0.0,6.0,0.0,1.0,4.0,4.0,351.8973980098963,1.0,1.0,phase_1,,,,,,,,,,,,,yellow,triangle
664.0,7.0,3.0,1.0,2.0,2.0,324.3705119821243,1.0,1.0,phase_1,,,,,,,,,,,,,white,I
0.0,5.0,0.0,1.0,2.0,2.0,426.1545219924301,1.0,1.0,phase_1,,,,,,,,,,,,,blue,diamond
330.0,6.0,2.0,1.0,3.0,3.0,324.6471919701434,1.0,1.0,phase_1,,,,,,,,,,,,,yellow,triangle
142.0,1.0,1.0,0.0,1.0,1.0,361.5474969847128,1.0,1.0,phase_1,,,,,,,,,,,,,cyan,hexagon
139.0,1.0,1.0,0.0,2.0,2.0,547.9059400386177,1.0,1.0,phase_1,,,,,,,,,,,,,cyan,hexagon
0.0,1.0,0.0,0.0,4.0,4.0,370.7164609804749,1.0,1.0,phase_1,,,,,,,,,,,,,cyan,hexagon
0.0,7.0,0.0,1.0,1.0,1.0,518.222697020974,1.0,1.0,phase_1,,,,,,,,,,,,,white,I
1300.0,8.0,4.0,1.0,1.0,1.0,362.3784150113351,1.0,1.0,phase_1,,,,,,,,,,,,,magenta,flipped triangle
160.0,5.0,1.0,1.0,1.0,1.0,334.0621740208007,1.0,1.0,phase_1,,,,,,,,,,,,,blue,diamond
0.0,1.0,0.0,0.0,3.0,3.0,361.7565250024199,1.0,1.0,phase_1,,,,,,,,,,,,,cyan,hexagon
652.0,3.0,3.0,0.0,3.0,3.0,342.3190110479481,1.0,1.0,phase_1,,,,,,,,,,,,,gray,square
646.0,7.0,3.0,1.0,2.0,2.0,305.3945879801176,1.0,1.0,phase_1,,,,,,,,,,,,,white,I
1322.0,8.0,4.0,1.0,1.0,1.0,370.3121620346792,1.0,1.0,phase_1,,,,,,,,,,,,,magenta,flipped triangle
327.0,2.0,2.0,0.0,2.0,2.0,360.8022749540396,1.0,1.0,phase_1,,,,,,,,,,,,,green,circle
1304.0,4.0,4.0,0.0,3.0,3.0,324.5451200054958,1.0,1.0,phase_1,,,,,,,,,,,,,orange,cross
0.0,5.0,0.0,1.0,1.0,1.0,426.3917049975134,1.0,1.0,phase_1,,,,,,,,,,,,,blue,diamond
317.0,2.0,2.0,0.0,1.0,1.0,389.5359329762868,2.0,2.0,phase_1,,,,,,,,,,,,,green,circle
168.0,5.0,1.0,1.0,3.0,3.0,307.8485599835403,2.0,1.0,phase_1,,,,,,,,,,,,,blue,diamond
167.0,1.0,1.0,0.0,4.0,4.0,305.8981979847885,2.0,1.0,phase_1,,,,,,,,,,,,,cyan,hexagon
0.0,1.0,0.0,0.0,2.0,2.0,483.3124260185286,2.0,1.0,phase_1,,,,,,,,,,,,,cyan,hexagon
314.0,6.0,2.0,1.0,1.0,1.0,333.6989220115356,2.0,1.0,phase_1,,,,,,,,,,,,,yellow,triangle
183.0,5.0,1.0,1.0,1.0,1.0,352.5145209860056,2.0,1.0,phase_1,,,,,,,,,,,,,blue,diamond
1284.0,4.0,4.0,0.0,1.0,1.0,297.0389099791646,2.0,1.0,phase_1,,,,,,,,,,,,,orange,cross
303.0,2.0,2.0,0.0,2.0,2.0,370.5590379540808,2.0,1.0,phase_1,,,,,,,,,,,,,green,circle
0.0,4.0,0.0,0.0,2.0,2.0,371.3286000420339,2.0,1.0,phase_1,,,,,,,,,,,,,orange,cross
641.0,7.0,3.0,1.0,4.0,4.0,408.4104769863188,2.0,1.0,phase_1,,,,,,,,,,,,,white,I
667.0,7.0,3.0,1.0,1.0,1.0,360.6333640054799,2.0,1.0,phase_1,,,,,,,,,,,,,white,I
343.0,2.0,2.0,0.0,4.0,4.0,344.4725410081446,2.0,1.0,phase_1,,,,,,,,,,,,,green,circle
337.0,6.0,2.0,1.0,2.0,2.0,324.0332209970802,2.0,2.0,phase_1,,,,,,,,,,,,,yellow,triangle
655.0,3.0,3.0,0.0,1.0,1.0,390.3367230086587,2.0,1.0,phase_1,,,,,,,,,,,,,gray,square
1300.0,4.0,4.0,0.0,1.0,1.0,353.0132219893858,2.0,1.0,phase_1,,,,,,,,,,,,,orange,cross
1314.0,4.0,4.0,0.0,1.0,1.0,343.8675539800897,2.0,1.0,phase_1,,,,,,,,,,,,,orange,cross
319.0,6.0,2.0,1.0,1.0,1.0,287.8083640243858,2.0,1.0,phase_1,,,,,,,,,,,,,yellow,triangle
317.0,6.0,2.0,1.0,3.0,3.0,343.2486570090987,2.0,1.0,phase_1,,,,,,,,,,,,,yellow,triangle
333.0,2.0,2.0,0.0,3.0,3.0,335.5547409737482,2.0,1.0,phase_1,,,,,,,,,,,,,green,circle
636.0,3.0,3.0,0.0,2.0,2.0,444.6951569989323,2.0,1.0,phase_1,,,,,,,,,,,,,gray,square
181.0,1.0,1.0,0.0,3.0,3.0,399.9187489971518,2.0,1.0,phase_1,,,,,,,,,,,,,cyan,hexagon
300.0,6.0,2.0,1.0,4.0,4.0,352.3351839976385,2.0,1.0,phase_1,,,,,,,,,,,,,yellow,triangle
157.0,5.0,1.0,1.0,3.0,3.0,324.5849679806269,2.0,1.0,phase_1,,,,,,,,,,,,,blue,diamond
1285.0,4.0,4.0,0.0,3.0,3.0,314.5232500392012,2.0,1.0,phase_1,,,,,,,,,,,,,orange,cross
673.0,3.0,3.0,0.0,4.0,4.0,306.705660012085,2.0,1.0,phase_1,,,,,,,,,,,,,gray,square
1319.0,8.0,4.0,1.0,1.0,1.0,380.0365219940431,2.0,1.0,phase_1,,,,,,,,,,,,,magenta,flipped triangle
303.0,6.0,2.0,1.0,4.0,4.0,324.3347199750133,2.0,1.0,phase_1,,,,,,,,,,,,,yellow,triangle
171.0,5.0,1.0,1.0,4.0,4.0,353.0721139977686,2.0,1.0,phase_1,,,,,,,,,,,,,blue,diamond
0.0,4.0,0.0,0.0,1.0,1.0,399.6539989602752,2.0,1.0,phase_1,,,,,,,,,,,,,orange,cross
148.0,5.0,1.0,1.0,2.0,2.0,398.2702299836091,2.0,2.0,phase_1,,,,,,,,,,,,,blue,diamond
646.0,3.0,3.0,0.0,4.0,4.0,296.3402230525389,2.0,1.0,phase_1,,,,,,,,,,,,,gray,square
660.0,3.0,3.0,0.0,3.0,3.0,325.7237520301714,2.0,1.0,phase_1,,,,,,,,,,,,,gray,square
0.0,5.0,0.0,1.0,1.0,1.0,351.2920280336402,2.0,1.0,phase_1,,,,,,,,,,,,,blue,diamond
314.0,2.0,2.0,0.0,3.0,3.0,324.9420510255731,2.0,1.0,phase_1,,,,,,,,,,,,,green,circle
302.0,2.0,2.0,0.0,1.0,1.0,343.8266480225138,2.0,1.0,phase_1,,,,,,,,,,,,,green,circle
0.0,3.0,0.0,0.0,4.0,4.0,324.1291139856912,2.0,1.0,phase_1,,,,,,,,,,,,,gray,square
350.0,6.0,2.0,1.0,3.0,3.0,389.7334270295687,2.0,1.0,phase_1,,,,,,,,,,,,,yellow,triangle
323.0,6.0,2.0,1.0,1.0,1.0,333.567968045827,2.0,1.0,phase_1,,,,,,,,,,,,,yellow,triangle
1293.0,4.0,4.0,0.0,1.0,1.0,379.0208349819295,2.0,1.0,phase_1,,,,,,,,,,,,,orange,cross
627.0,3.0,3.0,0.0,1.0,1.0,352.2064450080506,2.0,1.0,phase_1,,,,,,,,,,,,,gray,square
0.0,6.0,0.0,1.0,4.0,4.0,361.3303399761207,2.0,1.0,phase_1,,,,,,,,,,,,,yellow,triangle
340.0,6.0,2.0,1.0,2.0,2.0,480.8389300014823,2.0,1.0,phase_1,,,,,,,,,,,,,yellow,triangle
164.0,1.0,1.0,0.0,2.0,2.0,352.463721006643,2.0,1.0,phase_1,,,,,,,,,,,,,cyan,hexagon
181.0,1.0,1.0,0.0,4.0,4.0,333.6324720294215,2.0,1.0,phase_1,,,,,,,,,,,,,cyan,hexagon
350.0,2.0,2.0,0.0,4.0,4.0,334.2425109585747,2.0,1.0,phase_1,,,,,,,,,,,,,green,circle
1291.0,8.0,4.0,1.0,4.0,4.0,377.4783489643596,2.0,1.0,phase_1,,,,,,,,,,,,,magenta,flipped triangle
666.0,7.0,3.0,1.0,3.0,3.0,361.7624290054664,2.0,1.0,phase_1,,,,,,,,,,,,,white,I
652.0,7.0,3.0,1.0,3.0,3.0,316.5202400414273,2.0,1.0,phase_1,,,,,,,,,,,,,white,I
649.0,3.0,3.0,0.0,1.0,1.0,399.0096659981645,2.0,1.0,phase_1,,,,,,,,,,,,,gray,square
0.0,5.0,0.0,1.0,2.0,2.0,361.9819110026583,2.0,2.0,phase_1,,,,,,,,,,,,,blue,diamond
317.0,2.0,2.0,0.0,3.0,3.0,352.8147169854492,2.0,1.0,phase_1,,,,,,,,,,,,,green,circle
146.0,1.0,1.0,0.0,3.0,3.0,434.2749650240876,2.0,1.0,phase_1,,,,,,,,,,,,,cyan,hexagon
648.0,3.0,3.0,0.0,4.0,4.0,371.270532021299,2.0,1.0,phase_1,,,,,,,,,,,,,gray,square
320.0,2.0,2.0,0.0,3.0,3.0,361.5575889707543,2.0,1.0,phase_1,,,,,,,,,,,,,green,circle
326.0,2.0,2.0,0.0,1.0,1.0,461.6343920351937,2.0,1.0,phase_1,,,,,,,,,,,,,green,circle
673.0,7.0,3.0,1.0,2.0,2.0,462.1179690002464,2.0,1.0,phase_1,,,,,,,,,,,,,white,I
0.0,2.0,0.0,0.0,4.0,4.0,314.4210620084777,2.0,1.0,phase_1,,,,,,,,,,,,,green,circle
184.0,5.0,1.0,1.0,3.0,3.0,351.2238370021805,2.0,1.0,phase_1,,,,,,,,,,,,,blue,diamond
1317.0,4.0,4.0,0.0,1.0,1.0,425.3448650124483,2.0,1.0,phase_1,,,,,,,,,,,,,orange,cross
325.0,6.0,2.0,1.0,3.0,3.0,370.3180259908549,2.0,1.0,phase_1,,,,,,,,,,,,,yellow,triangle
167.0,5.0,1.0,1.0,1.0,1.0,389.3775889882818,2.0,1.0,phase_1,,,,,,,,,,,,,blue,diamond
0.0,6.0,0.0,1.0,3.0,3.0,314.1481659840792,2.0,1.0,phase_1,,,,,,,,,,,,,yellow,triangle
137.0,5.0,1.0,1.0,1.0,1.0,370.2153729973361,2.0,1.0,phase_1,,,,,,,,,,,,,blue,diamond
325.0,2.0,2.0,0.0,2.0,2.0,396.7110170051455,2.0,1.0,phase_1,,,,,,,,,,,,,green,circle
311.0,2.0,2.0,0.0,1.0,1.0,360.6756960507482,2.0,1.0,phase_1,,,,,,,,,,,,,green,circle
148.0,1.0,1.0,0.0,1.0,1.0,370.1578000327572,2.0,1.0,phase_1,,,,,,,,,,,,,cyan,hexagon
347.0,6.0,2.0,1.0,3.0,3.0,387.6241220277734,2.0,1.0,phase_1,,,,,,,,,,,,,yellow,triangle
641.0,3.0,3.0,0.0,3.0,3.0,407.1597779984586,2.0,1.0,phase_1,,,,,,,,,,,,,gray,square
168.0,1.0,1.0,0.0,4.0,4.0,387.4440970248543,2.0,1.0,phase_1,,,,,,,,,,,,,cyan,hexagon
175.0,1.0,1.0,0.0,2.0,2.0,433.2499750307761,2.0,1.0,phase_1,,,,,,,,,,,,,cyan,hexagon
303.0,6.0,2.0,1.0,3.0,3.0,351.8272149958648,2.0,1.0,phase_1,,,,,,,,,,,,,yellow,triangle
0.0,6.0,0.0,1.0,1.0,1.0,406.6534650046378,2.0,1.0,phase_1,,,,,,,,,,,,,yellow,triangle
0.0,1.0,0.0,0.0,1.0,1.0,442.3778220079839,2.0,1.0,phase_1,,,,,,,,,,,,,cyan,hexagon
1320.0,4.0,4.0,0.0,1.0,1.0,434.7860140260309,2.0,1.0,phase_1,,,,,,,,,,,,,orange,cross
181.0,5.0,1.0,1.0,2.0,2.0,470.0198009959422,2.0,1.0,phase_1,,,,,,,,,,,,,blue,diamond
673.0,3.0,3.0,0.0,4.0,4.0,406.5998590085655,2.0,1.0,phase_1,,,,,,,,,,,,,gray,square
303.0,2.0,2.0,0.0,2.0,2.0,434.1318910010159,2.0,1.0,phase_1,,,,,,,,,,,,,green,circle
178.0,5.0,1.0,1.0,3.0,3.0,361.058019043412,2.0,1.0,phase_1,,,,,,,,,,,,,blue,diamond
143.0,1.0,1.0,0.0,1.0,1.0,371.2740480550565,2.0,1.0,phase_1,,,,,,,,,,,,,cyan,hexagon
317.0,6.0,2.0,1.0,4.0,4.0,397.4837540299631,2.0,1.0,phase_1,,,,,,,,,,,,,yellow,triangle
1293.0,8.0,4.0,1.0,1.0,1.0,406.4878100180067,2.0,1.0,phase_1,,,,,,,,,,,,,magenta,flipped triangle
666.0,3.0,3.0,0.0,4.0,4.0,416.169123025611,2.0,1.0,phase_1,,,,,,,,,,,,,gray,square
0.0,7.0,0.0,1.0,1.0,1.0,379.6311109908856,2.0,1.0,phase_1,,,,,,,,,,,,,white,I
331.0,6.0,2.0,1.0,3.0,3.0,324.2883359780535,2.0,1.0,phase_1,,,,,,,,,,,,,yellow,triangle
1281.0,8.0,4.0,1.0,2.0,2.0,361.0276440158486,2.0,1.0,phase_1,,,,,,,,,,,,,magenta,flipped triangle
167.0,1.0,1.0,0.0,2.0,2.0,352.417204005178,2.0,1.0,phase_1,,,,,,,,,,,,,cyan,hexagon
654.0,7.0,3.0,1.0,1.0,1.0,324.671568989288,2.0,1.0,phase_1,,,,,,,,,,,,,white,I
166.0,1.0,1.0,0.0,3.0,3.0,352.1415980067104,2.0,1.0,phase_1,,,,,,,,,,,,,cyan,hexagon
0.0,5.0,0.0,1.0,1.0,1.0,480.652166006621,2.0,1.0,phase_1,,,,,,,,,,,,,blue,diamond
1286.0,8.0,4.0,1.0,1.0,1.0,371.2150920182466,2.0,1.0,phase_1,,,,,,,,,,,,,magenta,flipped triangle
336.0,2.0,2.0,0.0,1.0,1.0,342.0662350254133,2.0,1.0,phase_1,,,,,,,,,,,,,green,circle
1309.0,4.0,4.0,0.0,4.0,4.0,360.7745959889143,2.0,1.0,phase_1,,,,,,,,,,,,,orange,cross
312.0,6.0,2.0,1.0,1.0,1.0,350.8908000076189,2.0,1.0,phase_1,,,,,,,,,,,,,yellow,triangle
654.0,7.0,3.0,1.0,4.0,4.0,325.175916950684,2.0,1.0,phase_1,,,,,,,,,,,,,white,I
0.0,7.0,0.0,1.0,1.0,1.0,276.6373779741116,2.0,1.0,phase_1,,,,,,,,,,,,,white,I
644.0,7.0,3.0,1.0,2.0,2.0,388.8712620246224,2.0,1.0,phase_1,,,,,,,,,,,,,white,I
0.0,2.0,0.0,0.0,3.0,3.0,370.4921239987016,2.0,1.0,phase_1,,,,,,,,,,,,,green,circle
1295.0,8.0,4.0,1.0,2.0,2.0,415.6616569962352,2.0,1.0,phase_1,,,,,,,,,,,,,magenta,flipped triangle
327.0,6.0,2.0,1.0,2.0,2.0,324.1294770268723,2.0,1.0,phase_1,,,,,,,,,,,,,yellow,triangle
346.0,2.0,2.0,0.0,4.0,4.0,314.6796419750899,2.0,1.0,phase_1,,,,,,,,,,,,,green,circle
673.0,7.0,3.0,1.0,1.0,1.0,333.3687899867072,3.0,1.0,phase_1,,,,,,,,,,,,,white,I
1290.0,8.0,4.0,1.0,3.0,3.0,325.3128789947368,3.0,1.0,phase_1,,,,,,,,,,,,,magenta,flipped triangle
0.0,6.0,0.0,1.0,1.0,1.0,370.2980090165511,3.0,1.0,phase_1,,,,,,,,,,,,,yellow,triangle
629.0,7.0,3.0,1.0,3.0,3.0,362.0027679717168,3.0,1.0,phase_1,,,,,,,,,,,,,white,I
1286.0,4.0,4.0,0.0,4.0,4.0,389.5593489869497,3.0,1.0,phase_1,,,,,,,,,,,,,orange,cross
178.0,5.0,1.0,1.0,3.0,3.0,324.735467962455,3.0,1.0,phase_1,,,,,,,,,,,,,blue,diamond
1317.0,8.0,4.0,1.0,1.0,1.0,361.3309749634936,3.0,1.0,phase_1,,,,,,,,,,,,,magenta,flipped triangle
172.0,5.0,1.0,1.0,4.0,4.0,351.6540799755603,3.0,1.0,phase_1,,,,,,,,,,,,,blue,diamond
0.0,4.0,0.0,0.0,3.0,3.0,324.9742229818366,3.0,1.0,phase_1,,,,,,,,,,,,,orange,cross
325.0,2.0,2.0,0.0,1.0,1.0,370.3480390249751,3.0,1.0,phase_1,,,,,,,,,,,,,green,circle
171.0,1.0,1.0,0.0,3.0,3.0,314.3793360213749,3.0,1.0,phase_1,,,,,,,,,,,,,cyan,hexagon
1299.0,4.0,4.0,0.0,3.0,3.0,362.0483070262708,3.0,1.0,phase_1,,,,,,,,,,,,,orange,cross
0.0,3.0,0.0,0.0,2.0,2.0,548.0464900028892,3.0,1.0,phase_1,,,,,,,,,,,,,gray,square
632.0,3.0,3.0,0.0,2.0,2.0,380.1050980109721,3.0,1.0,phase_1,,,,,,,,,,,,,gray,square
167.0,5.0,1.0,1.0,4.0,4.0,352.4381419993005,3.0,1.0,phase_1,,,,,,,,,,,,,blue,diamond
656.0,7.0,3.0,1.0,1.0,1.0,380.0437079626135,3.0,1.0,phase_1,,,,,,,,,,,,,white,I
1296.0,8.0,4.0,1.0,4.0,4.0,323.9338640123606,3.0,1.0,phase_1,,,,,,,,,,,,,magenta,flipped triangle
160.0,1.0,1.0,0.0,2.0,2.0,370.5540969967842,3.0,1.0,phase_1,,,,,,,,,,,,,cyan,hexagon
1308.0,8.0,4.0,1.0,4.0,4.0,370.1486869831569,3.0,1.0,phase_1,,,,,,,,,,,,,magenta,flipped triangle
139.0,1.0,1.0,0.0,1.0,1.0,419.8995669721626,3.0,2.0,phase_1,,,,,,,,,,,,,cyan,hexagon
661.0,3.0,3.0,0.0,3.0,3.0,342.5335870124399,3.0,1.0,phase_1,,,,,,,,,,,,,gray,square
638.0,7.0,3.0,1.0,2.0,2.0,482.7902929973788,3.0,1.0,phase_1,,,,,,,,,,,,,white,I
0.0,6.0,0.0,1.0,1.0,1.0,324.6888580033555,3.0,1.0,phase_1,,,,,,,,,,,,,yellow,triangle
172.0,1.0,1.0,0.0,1.0,1.0,360.854136000853,3.0,1.0,phase_1,,,,,,,,,,,,,cyan,hexagon
178.0,1.0,1.0,0.0,3.0,3.0,382.2936119977385,3.0,1.0,phase_1,,,,,,,,,,,,,cyan,hexagon
175.0,5.0,1.0,1.0,4.0,4.0,361.8433170486241,3.0,1.0,phase_1,,,,,,,,,,,,,blue,diamond
343.0,6.0,2.0,1.0,2.0,2.0,538.7758020078763,3.0,1.0,phase_1,,,,,,,,,,,,,yellow,triangle
0.0,7.0,0.0,1.0,3.0,3.0,371.6434079688042,3.0,1.0,phase_1,,,,,,,,,,,,,white,I
139.0,5.0,1.0,1.0,2.0,2.0,372.0118849887512,3.0,1.0,phase_1,,,,,,,,,,,,,blue,diamond
302.0,6.0,2.0,1.0,4.0,4.0,380.144372000359,3.0,1.0,phase_1,,,,,,,,,,,,,yellow,triangle
0.0,5.0,0.0,1.0,2.0,2.0,353.3534270245582,3.0,1.0,phase_1,,,,,,,,,,,,,blue,diamond
338.0,6.0,2.0,1.0,2.0,2.0,446.6122869635001,3.0,1.0,phase_1,,,,,,,,,,,,,yellow,triangle
671.0,3.0,3.0,0.0,3.0,3.0,418.5112580307759,3.0,1.0,phase_1,,,,,,,,,,,,,gray,square
1322.0,4.0,4.0,0.0,4.0,4.0,360.3599030175246,3.0,1.0,phase_1,,,,,,,,,,,,,orange,cross
332.0,6.0,2.0,1.0,2.0,2.0,379.7580800019204,3.0,1.0,phase_1,,,,,,,,,,,,,yellow,triangle
322.0,2.0,2.0,0.0,4.0,4.0,320.9267269703559,3.0,1.0,phase_1,,,,,,,,,,,,,green,circle
637.0,7.0,3.0,1.0,2.0,2.0,389.4364240113646,3.0,1.0,phase_1,,,,,,,,,,,,,white,I
1285.0,8.0,4.0,1.0,4.0,4.0,343.2562069501728,3.0,1.0,phase_1,,,,,,,,,,,,,magenta,flipped triangle
319.0,2.0,2.0,0.0,3.0,3.0,380.7297929888591,3.0,1.0,phase_1,,,,,,,,,,,,,green,circle
338.0,2.0,2.0,0.0,3.0,3.0,390.5384080135263,3.0,1.0,phase_1,,,,,,,,,,,,,green,circle
0.0,6.0,0.0,1.0,1.0,1.0,316.2917229929007,3.0,1.0,phase_1,,,,,,,,,,,,,yellow,triangle
1288.0,4.0,4.0,0.0,4.0,4.0,353.5919659771025,3.0,1.0,phase_1,,,,,,,,,,,,,orange,cross
166.0,5.0,1.0,1.0,2.0,2.0,436.2268740078434,3.0,1.0,phase_1,,,,,,,,,,,,,blue,diamond
163.0,5.0,1.0,1.0,4.0,4.0,333.1501809880137,3.0,1.0,phase_1,,,,,,,,,,,,,blue,diamond
164.0,5.0,1.0,1.0,2.0,2.0,445.6524869892746,3.0,1.0,phase_1,,,,,,,,,,,,,blue,diamond
0.0,7.0,0.0,1.0,3.0,3.0,325.4824700416066,3.0,1.0,phase_1,,,,,,,,,,,,,white,I
671.0,7.0,3.0,1.0,1.0,1.0,380.0962750101462,3.0,1.0,phase_1,,,,,,,,,,,,,white,I
1307.0,8.0,4.0,1.0,3.0,3.0,343.9846070250496,3.0,1.0,phase_1,,,,,,,,,,,,,magenta,flipped triangle
633.0,7.0,3.0,1.0,3.0,3.0,334.4046749989502,3.0,1.0,phase_1,,,,,,,,,,,,,white,I
0.0,6.0,0.0,1.0,1.0,1.0,390.0084220222197,3.0,1.0,phase_1,,,,,,,,,,,,,yellow,triangle
650.0,3.0,3.0,0.0,1.0,1.0,362.5051989802159,3.0,1.0,phase_1,,,,,,,,,,,,,gray,square
650.0,7.0,3.0,1.0,3.0,3.0,358.818439010065,3.0,1.0,phase_1,,,,,,,,,,,,,white,I
172.0,1.0,1.0,0.0,3.0,3.0,445.9560600225813,3.0,1.0,phase_1,,,,,,,,,,,,,cyan,hexagon
0.0,3.0,0.0,0.0,2.0,2.0,621.8608159688301,3.0,1.0,phase_1,,,,,,,,,,,,,gray,square
148.0,5.0,1.0,1.0,1.0,1.0,363.1049459800124,3.0,1.0,phase_1,,,,,,,,,,,,,blue,diamond
0.0,5.0,0.0,1.0,3.0,3.0,325.9972609812394,3.0,1.0,phase_1,,,,,,,,,,,,,blue,diamond
306.0,6.0,2.0,1.0,2.0,2.0,362.2176309581846,3.0,1.0,phase_1,,,,,,,,,,,,,yellow,triangle
644.0,3.0,3.0,0.0,3.0,3.0,390.227623982355,3.0,1.0,phase_1,,,,,,,,,,,,,gray,square
152.0,1.0,1.0,0.0,4.0,4.0,397.7252200129442,3.0,1.0,phase_1,,,,,,,,,,,,,cyan,hexagon
1284.0,8.0,4.0,1.0,1.0,1.0,352.361160039436,3.0,1.0,phase_1,,,,,,,,,,,,,magenta,flipped triangle
0.0,7.0,0.0,1.0,4.0,4.0,378.847918997053,3.0,1.0,phase_1,,,,,,,,,,,,,white,I
331.0,2.0,2.0,0.0,3.0,3.0,324.1583359776996,3.0,1.0,phase_1,,,,,,,,,,,,,green,circle
0.0,1.0,0.0,0.0,3.0,3.0,346.0612599737942,3.0,1.0,phase_1,,,,,,,,,,,,,cyan,hexagon
142.0,5.0,1.0,1.0,1.0,1.0,334.1818790067918,3.0,1.0,phase_1,,,,,,,,,,,,,blue,diamond
630.0,3.0,3.0,0.0,1.0,1.0,361.5003330050967,3.0,1.0,phase_1,,,,,,,,,,,,,gray,square
1277.0,8.0,4.0,1.0,4.0,4.0,334.6595490002073,3.0,1.0,phase_1,,,,,,,,,,,,,magenta,flipped triangle
315.0,6.0,2.0,1.0,4.0,4.0,316.2085259682499,3.0,1.0,phase_1,,,,,,,,,,,,,yellow,triangle
0.0,5.0,0.0,1.0,2.0,2.0,490.086399950087,3.0,1.0,phase_1,,,,,,,,,,,,,blue,diamond
1319.0,4.0,4.0,0.0,3.0,3.0,350.8575710002333,3.0,1.0,phase_1,,,,,,,,,,,,,orange,cross
0.0,2.0,0.0,0.0,3.0,3.0,333.8319089962169,3.0,1.0,phase_1,,,,,,,,,,,,,green,circle
1280.0,4.0,4.0,0.0,3.0,3.0,427.9902629787102,3.0,1.0,phase_1,,,,,,,,,,,,,orange,cross
1295.0,4.0,4.0,0.0,4.0,4.0,408.9362589875236,3.0,1.0,phase_1,,,,,,,,,,,,,orange,cross
183.0,5.0,1.0,1.0,3.0,3.0,342.4409300205298,3.0,1.0,phase_1,,,,,,,,,,,,,blue,diamond
0.0,8.0,0.0,1.0,4.0,4.0,380.7086059823632,3.0,1.0,phase_1,,,,,,,,,,,,,magenta,flipped triangle
648.0,7.0,3.0,1.0,4.0,4.0,379.9171849968843,3.0,1.0,phase_1,,,,,,,,,,,,,white,I
1308.0,4.0,4.0,0.0,2.0,2.0,453.650119015947,3.0,1.0,phase_1,,,,,,,,,,,,,orange,cross
138.0,5.0,1.0,1.0,2.0,2.0,387.2414010111242,3.0,2.0,phase_1,,,,,,,,,,,,,blue,diamond
333.0,6.0,2.0,1.0,4.0,4.0,359.4967820099555,3.0,1.0,phase_1,,,,,,,,,,,,,yellow,triangle
1300.0,4.0,4.0,0.0,2.0,2.0,657.6246210024692,3.0,1.0,phase_1,,,,,,,,,,,,,orange,cross
0.0,4.0,0.0,0.0,3.0,3.0,398.5747800325043,3.0,1.0,phase_1,,,,,,,,,,,,,orange,cross
644.0,7.0,3.0,1.0,3.0,3.0,315.4112710035406,3.0,1.0,phase_1,,,,,,,,,,,,,white,I
163.0,1.0,1.0,0.0,3.0,3.0,343.584201997146,3.0,1.0,phase_1,,,,,,,,,,,,,cyan,hexagon
178.0,1.0,1.0,0.0,1.0,1.0,379.2229929822497,3.0,1.0,phase_1,,,,,,,,,,,,,cyan,hexagon
664.0,3.0,3.0,0.0,1.0,1.0,343.4036709950305,3.0,1.0,phase_1,,,,,,,,,,,,,gray,square
1290.0,4.0,4.0,0.0,4.0,4.0,341.7781480238773,3.0,1.0,phase_1,,,,,,,,,,,,,orange,cross
341.0,2.0,2.0,0.0,1.0,1.0,416.3506160257384,3.0,1.0,phase_1,,,,,,,,,,,,,green,circle
1322.0,4.0,4.0,0.0,4.0,4.0,361.2214899621904,3.0,1.0,phase_1,,,,,,,,,,,,,orange,cross
654.0,3.0,3.0,0.0,1.0,1.0,314.2235979903489,3.0,1.0,phase_1,,,,,,,,,,,,,gray,square
143.0,5.0,1.0,1.0,3.0,3.0,296.2020389968529,3.0,1.0,phase_1,,,,,,,,,,,,,blue,diamond
1306.0,4.0,4.0,0.0,2.0,2.0,436.3243639818392,3.0,1.0,phase_1,,,,,,,,,,,,,orange,cross
315.0,2.0,2.0,0.0,4.0,4.0,323.064164025709,3.0,1.0,phase_1,,,,,,,,,,,,,green,circle
1304.0,8.0,4.0,1.0,4.0,4.0,323.1403609970584,3.0,1.0,phase_1,,,,,,,,,,,,,magenta,flipped triangle
1277.0,4.0,4.0,0.0,2.0,2.0,397.5325920036994,3.0,1.0,phase_1,,,,,,,,,,,,,orange,cross
0.0,2.0,0.0,0.0,4.0,4.0,342.2315240022726,3.0,1.0,phase_1,,,,,,,,,,,,,green,circle
1296.0,4.0,4.0,0.0,4.0,4.0,343.1577050359919,3.0,1.0,phase_1,,,,,,,,,,,,,orange,cross
320.0,6.0,2.0,1.0,2.0,2.0,462.3117299634032,3.0,1.0,phase_1,,,,,,,,,,,,,yellow,triangle
313.0,2.0,2.0,0.0,2.0,2.0,369.8307920130901,3.0,1.0,phase_1,,,,,,,,,,,,,green,circle
163.0,1.0,1.0,0.0,4.0,4.0,359.6699929912574,3.0,1.0,phase_1,,,,,,,,,,,,,cyan,hexagon
1278.0,4.0,4.0,0.0,4.0,4.0,341.4271739893593,3.0,1.0,phase_1,,,,,,,,,,,,,orange,cross
326.0,2.0,2.0,0.0,2.0,2.0,354.338506993372,3.0,1.0,phase_1,,,,,,,,,,,,,green,circle
141.0,1.0,1.0,0.0,4.0,4.0,315.0034520076588,4.0,1.0,phase_1,,,,,,,,,,,,,cyan,hexagon
178.0,5.0,1.0,1.0,4.0,4.0,352.6271519949659,4.0,1.0,phase_1,,,,,,,,,,,,,blue,diamond
0.0,3.0,0.0,0.0,4.0,4.0,333.0226700054481,4.0,1.0,phase_1,,,,,,,,,,,,,gray,square
0.0,3.0,0.0,0.0,1.0,1.0,398.2733559678308,4.0,1.0,phase_1,,,,,,,,,,,,,gray,square
642.0,7.0,3.0,1.0,1.0,1.0,379.4811959960498,4.0,1.0,phase_1,,,,,,,,,,,,,white,I
181.0,5.0,1.0,1.0,4.0,4.0,370.099296036642,4.0,1.0,phase_1,,,,,,,,,,,,,blue,diamond
1282.0,8.0,4.0,1.0,3.0,3.0,324.7935459949076,4.0,1.0,phase_1,,,,,,,,,,,,,magenta,flipped triangle
636.0,7.0,3.0,1.0,1.0,1.0,369.8065159842372,4.0,1.0,phase_1,,,,,,,,,,,,,white,I
183.0,1.0,1.0,0.0,3.0,3.0,332.4142490164377,4.0,1.0,phase_1,,,,,,,,,,,,,cyan,hexagon
627.0,7.0,3.0,1.0,3.0,3.0,296.7147339950315,4.0,1.0,phase_1,,,,,,,,,,,,,white,I
0.0,2.0,0.0,0.0,1.0,1.0,424.7308379854075,4.0,1.0,phase_1,,,,,,,,,,,,,green,circle
172.0,5.0,1.0,1.0,2.0,2.0,454.3015280505642,4.0,1.0,phase_1,,,,,,,,,,,,,blue,diamond
0.0,4.0,0.0,0.0,2.0,2.0,435.9954620013013,4.0,1.0,phase_1,,,,,,,,,,,,,orange,cross
1319.0,8.0,4.0,1.0,1.0,1.0,296.5776569908485,4.0,1.0,phase_1,,,,,,,,,,,,,magenta,flipped triangle
632.0,7.0,3.0,1.0,3.0,3.0,295.3200580086559,4.0,1.0,phase_1,,,,,,,,,,,,,white,I
1320.0,8.0,4.0,1.0,4.0,4.0,296.6332939686253,4.0,1.0,phase_1,,,,,,,,,,,,,magenta,flipped triangle
0.0,8.0,0.0,1.0,3.0,3.0,333.6935049737803,4.0,1.0,phase_1,,,,,,,,,,,,,magenta,flipped triangle
0.0,1.0,0.0,0.0,4.0,4.0,362.6980090048164,4.0,1.0,phase_1,,,,,,,,,,,,,cyan,hexagon
638.0,3.0,3.0,0.0,4.0,4.0,351.34274198208,4.0,1.0,phase_1,,,,,,,,,,,,,gray,square
325.0,6.0,2.0,1.0,1.0,1.0,342.121705005411,4.0,1.0,phase_1,,,,,,,,,,,,,yellow,triangle
646.0,7.0,3.0,1.0,1.0,1.0,348.310831002891,4.0,1.0,phase_1,,,,,,,,,,,,,white,I
674.0,7.0,3.0,1.0,3.0,3.0,333.6246290127747,4.0,1.0,phase_1,,,,,,,,,,,,,white,I
344.0,2.0,2.0,0.0,1.0,1.0,369.9548650183715,4.0,1.0,phase_1,,,,,,,,,,,,,green,circle
1314.0,8.0,4.0,1.0,3.0,3.0,351.7813049838878,4.0,1.0,phase_1,,,,,,,,,,,,,magenta,flipped triangle
0.0,8.0,0.0,1.0,1.0,1.0,340.9814150072634,4.0,1.0,phase_1,,,,,,,,,,,,,magenta,flipped triangle
660.0,7.0,3.0,1.0,1.0,1.0,342.7196170086972,4.0,1.0,phase_1,,,,,,,,,,,,,white,I
674.0,3.0,3.0,0.0,1.0,1.0,341.6805360466242,4.0,1.0,phase_1,,,,,,,,,,,,,gray,square
0.0,3.0,0.0,0.0,4.0,4.0,378.5397810279391,4.0,2.0,phase_1,,,,,,,,,,,,,gray,square
628.0,7.0,3.0,1.0,2.0,2.0,498.5610999865457,4.0,1.0,phase_1,,,,,,,,,,,,,white,I
336.0,6.0,2.0,1.0,4.0,4.0,324.9503929982893,4.0,1.0,phase_1,,,,,,,,,,,,,yellow,triangle
1322.0,8.0,4.0,1.0,2.0,2.0,454.3681379873305,4.0,1.0,phase_1,,,,,,,,,,,,,magenta,flipped triangle
1317.0,8.0,4.0,1.0,3.0,3.0,342.465927999001,4.0,1.0,phase_1,,,,,,,,,,,,,magenta,flipped triangle
655.0,3.0,3.0,0.0,1.0,1.0,381.6157770343125,4.0,1.0,phase_1,,,,,,,,,,,,,gray,square
672.0,3.0,3.0,0.0,4.0,4.0,379.1618680115789,4.0,1.0,phase_1,,,,,,,,,,,,,gray,square
160.0,1.0,1.0,0.0,3.0,3.0,369.6840950287878,4.0,1.0,phase_1,,,,,,,,,,,,,cyan,hexagon
137.0,1.0,1.0,0.0,2.0,2.0,389.4606229732744,4.0,1.0,phase_1,,,,,,,,,,,,,cyan,hexagon
0.0,8.0,0.0,1.0,3.0,3.0,370.1279619708657,4.0,1.0,phase_1,,,,,,,,,,,,,magenta,flipped triangle
1319.0,4.0,4.0,0.0,1.0,1.0,333.2884260453284,4.0,1.0,phase_1,,,,,,,,,,,,,orange,cross
0.0,4.0,0.0,0.0,1.0,1.0,342.4144120072014,4.0,1.0,phase_1,,,,,,,,,,,,,orange,cross
1316.0,4.0,4.0,0.0,2.0,2.0,396.5080889756791,4.0,1.0,phase_1,,,,,,,,,,,,,orange,cross
1318.0,4.0,4.0,0.0,2.0,2.0,390.379942022264,4.0,1.0,phase_1,,,,,,,,,,,,,orange,cross
0.0,1.0,0.0,0.0,3.0,3.0,361.3491530413739,4.0,1.0,phase_1,,,,,,,,,,,,,cyan,hexagon
317.0,2.0,2.0,0.0,2.0,2.0,546.191971981898,4.0,1.0,phase_1,,,,,,,,,,,,,green,circle
664.0,3.0,3.0,0.0,2.0,2.0,324.3393580196425,4.0,1.0,phase_1,,,,,,,,,,,,,gray,square
671.0,3.0,3.0,0.0,2.0,2.0,306.0439890250563,4.0,1.0,phase_1,,,,,,,,,,,,,gray,square
644.0,3.0,3.0,0.0,2.0,2.0,342.8467949852347,4.0,1.0,phase_1,,,,,,,,,,,,,gray,square
317.0,6.0,2.0,1.0,3.0,3.0,388.1931159994565,4.0,1.0,phase_1,,,,,,,,,,,,,yellow,triangle
320.0,6.0,2.0,1.0,2.0,2.0,333.670140011236,4.0,1.0,phase_1,,,,,,,,,,,,,yellow,triangle
181.0,5.0,1.0,1.0,1.0,1.0,619.0421439823695,4.0,1.0,phase_1,,,,,,,,,,,,,blue,diamond
0.0,8.0,0.0,1.0,3.0,3.0,369.6361599722877,4.0,1.0,phase_1,,,,,,,,,,,,,magenta,flipped triangle
341.0,6.0,2.0,1.0,1.0,1.0,406.75913402810687,4.0,1.0,phase_1,,,,,,,,,,,,,yellow,triangle
0.0,3.0,0.0,0.0,4.0,4.0,351.6998709528707,4.0,1.0,phase_1,,,,,,,,,,,,,gray,square
1277.0,4.0,4.0,0.0,3.0,3.0,314.4434870337136,4.0,1.0,phase_1,,,,,,,,,,,,,orange,cross
642.0,3.0,3.0,0.0,2.0,2.0,342.1186420018784,4.0,1.0,phase_1,,,,,,,,,,,,,gray,square
1288.0,8.0,4.0,1.0,2.0,2.0,388.889164023567,4.0,1.0,phase_1,,,,,,,,,,,,,magenta,flipped triangle
1318.0,8.0,4.0,1.0,2.0,2.0,389.2333619878627,4.0,1.0,phase_1,,,,,,,,,,,,,magenta,flipped triangle
639.0,3.0,3.0,0.0,3.0,3.0,379.59928100463,4.0,1.0,phase_1,,,,,,,,,,,,,gray,square
183.0,1.0,1.0,0.0,4.0,4.0,390.3250850271433,4.0,1.0,phase_1,,,,,,,,,,,,,cyan,hexagon
1317.0,4.0,4.0,0.0,1.0,1.0,370.9669570089318,4.0,1.0,phase_1,,,,,,,,,,,,,orange,cross
157.0,1.0,1.0,0.0,4.0,4.0,445.5448479857296,4.0,1.0,phase_1,,,,,,,,,,,,,cyan,hexagon
655.0,7.0,3.0,1.0,2.0,2.0,400.3216970013454,4.0,1.0,phase_1,,,,,,,,,,,,,white,I
1291.0,4.0,4.0,0.0,3.0,3.0,428.8935060030781,4.0,1.0,phase_1,,,,,,,,,,,,,orange,cross
170.0,1.0,1.0,0.0,2.0,2.0,481.5142070292495,4.0,1.0,phase_1,,,,,,,,,,,,,cyan,hexagon
628.0,3.0,3.0,0.0,2.0,2.0,343.3978559914976,4.0,1.0,phase_1,,,,,,,,,,,,,gray,square
178.0,1.0,1.0,0.0,1.0,1.0,455.9054750134237,4.0,1.0,phase_1,,,,,,,,,,,,,cyan,hexagon
335.0,6.0,2.0,1.0,4.0,4.0,398.6776869860478,4.0,1.0,phase_1,,,,,,,,,,,,,yellow,triangle
170.0,5.0,1.0,1.0,1.0,1.0,372.07743502222,4.0,1.0,phase_1,,,,,,,,,,,,,blue,diamond
0.0,2.0,0.0,0.0,4.0,4.0,371.099291020073,4.0,1.0,phase_1,,,,,,,,,,,,,green,circle
0.0,8.0,0.0,1.0,2.0,2.0,362.7374380012043,4.0,1.0,phase_1,,,,,,,,,,,,,magenta,flipped triangle
322.0,6.0,2.0,1.0,2.0,2.0,417.5164269981906,4.0,1.0,phase_1,,,,,,,,,,,,,yellow,triangle
326.0,6.0,2.0,1.0,3.0,3.0,408.5371720138937,4.0,1.0,phase_1,,,,,,,,,,,,,yellow,triangle
340.0,2.0,2.0,0.0,4.0,4.0,352.7200190001167,4.0,1.0,phase_1,,,,,,,,,,,,,green,circle
326.0,6.0,2.0,1.0,3.0,3.0,342.2476819832809,4.0,1.0,phase_1,,,,,,,,,,,,,yellow,triangle
1286.0,4.0,4.0,0.0,3.0,3.0,352.4214589851908,4.0,1.0,phase_1,,,,,,,,,,,,,orange,cross
0.0,5.0,0.0,1.0,4.0,4.0,426.7796030035242,4.0,1.0,phase_1,,,,,,,,,,,,,blue,diamond
636.0,7.0,3.0,1.0,4.0,4.0,343.7883110018447,4.0,1.0,phase_1,,,,,,,,,,,,,white,I
1312.0,4.0,4.0,0.0,2.0,2.0,443.9855790114961,4.0,1.0,phase_1,,,,,,,,,,,,,orange,cross
654.0,3.0,3.0,0.0,2.0,2.0,399.4290390401147,4.0,1.0,phase_1,,,,,,,,,,,,,gray,square
0.0,1.0,0.0,0.0,4.0,4.0,372.0019949832931,4.0,1.0,phase_1,,,,,,,,,,,,,cyan,hexagon
1316.0,8.0,4.0,1.0,2.0,2.0,380.9072829899378,4.0,1.0,phase_1,,,,,,,,,,,,,magenta,flipped triangle
0.0,7.0,0.0,1.0,4.0,4.0,371.9134629936889,4.0,1.0,phase_1,,,,,,,,,,,,,white,I
1299.0,8.0,4.0,1.0,2.0,2.0,351.99958703015,4.0,1.0,phase_1,,,,,,,,,,,,,magenta,flipped triangle
1281.0,4.0,4.0,0.0,2.0,2.0,399.1488490137271,4.0,1.0,phase_1,,,,,,,,,,,,,orange,cross
323.0,2.0,2.0,0.0,4.0,4.0,361.7472359910607,4.0,1.0,phase_1,,,,,,,,,,,,,green,circle
181.0,1.0,1.0,0.0,1.0,1.0,419.3477260414511,4.0,1.0,phase_1,,,,,,,,,,,,,cyan,hexagon
305.0,2.0,2.0,0.0,4.0,4.0,343.1879739509895,4.0,1.0,phase_1,,,,,,,,,,,,,green,circle
1293.0,8.0,4.0,1.0,1.0,1.0,492.0588009990752,4.0,1.0,phase_1,,,,,,,,,,,,,magenta,flipped triangle
305.0,6.0,2.0,1.0,1.0,1.0,352.4518549675122,4.0,1.0,phase_1,,,,,,,,,,,,,yellow,triangle
333.0,6.0,2.0,1.0,4.0,4.0,472.8887800010852,4.0,1.0,phase_1,,,,,,,,,,,,,yellow,triangle
1315.0,4.0,4.0,0.0,2.0,2.0,361.4262840128504,4.0,1.0,phase_1,,,,,,,,,,,,,orange,cross
313.0,6.0,2.0,1.0,1.0,1.0,371.2864170083776,4.0,1.0,phase_1,,,,,,,,,,,,,yellow,triangle
0.0,7.0,0.0,1.0,3.0,3.0,370.9716739831492,4.0,1.0,phase_1,,,,,,,,,,,,,white,I
157.0,5.0,1.0,1.0,4.0,4.0,351.0415710043162,4.0,1.0,phase_1,,,,,,,,,,,,,blue,diamond
139.0,5.0,1.0,1.0,1.0,1.0,325.1318719703704,4.0,1.0,phase_1,,,,,,,,,,,,,blue,diamond
347.0,2.0,2.0,0.0,3.0,3.0,336.5809809765778,4.0,1.0,phase_1,,,,,,,,,,,,,green,circle
1278.0,8.0,4.0,1.0,3.0,3.0,334.7624649759382,4.0,1.0,phase_1,,,,,,,,,,,,,magenta,flipped triangle
138.0,1.0,1.0,0.0,1.0,1.0,362.4456290272064,4.0,1.0,phase_1,,,,,,,,,,,,,cyan,hexagon
157.0,1.0,1.0,0.0,2.0,2.0,416.8231890071183,4.0,2.0,phase_1,,,,,,,,,,,,,cyan,hexagon
0.0,4.0,0.0,0.0,2.0,2.0,445.4298780183308,4.0,1.0,phase_1,,,,,,,,,,,,,orange,cross
312.0,2.0,2.0,0.0,4.0,4.0,435.8878000057302,4.0,1.0,phase_1,,,,,,,,,,,,,green,circle
0.0,2.0,2.0,0.0,6.0,6.0,336.6189069929532,1.0,1.0,phase_2,go,250.0,250.0,1.0,,,,,,,,,green,circle
0.0,5.0,1.0,1.0,6.0,0.0,0.0,1.0,1.0,phase_2,stop,250.0,250.0,4.0,,,,,,,,,blue,diamond
0.0,8.0,4.0,1.0,5.0,5.0,312.7504680305719,1.0,1.0,phase_2,stop,250.0,300.0,3.0,,,,,,,,,magenta,flipped triangle
0.0,3.0,3.0,0.0,5.0,5.0,477.6142009650357,1.0,1.0,phase_2,go,200.0,300.0,1.0,,,,,,,,,gray,square
0.0,3.0,3.0,0.0,6.0,6.0,487.3527649906464,1.0,1.0,phase_2,go,200.0,300.0,1.0,,,,,,,,,gray,square
0.0,3.0,3.0,0.0,6.0,6.0,375.3030989901162,1.0,1.0,phase_2,go,200.0,300.0,1.0,,,,,,,,,gray,square
0.0,4.0,4.0,0.0,5.0,5.0,392.6423270022496,1.0,1.0,phase_2,go,200.0,300.0,1.0,,,,,,,,,orange,cross
0.0,4.0,4.0,0.0,5.0,5.0,308.7757920147851,1.0,1.0,phase_2,go,200.0,300.0,1.0,,,,,,,,,orange,cross
0.0,2.0,2.0,0.0,5.0,5.0,355.9668789966963,1.0,1.0,phase_2,go,200.0,300.0,1.0,,,,,,,,,green,circle
0.0,8.0,4.0,1.0,6.0,6.0,384.4881179975346,1.0,1.0,phase_2,go,200.0,300.0,1.0,,,,,,,,,magenta,flipped triangle
0.0,8.0,4.0,1.0,5.0,5.0,333.7846510112285,1.0,1.0,phase_2,stop,200.0,300.0,3.0,,,,,,,,,magenta,flipped triangle
0.0,6.0,2.0,1.0,5.0,5.0,332.0111820357851,1.0,1.0,phase_2,stop,150.0,300.0,3.0,,,,,,,,,yellow,triangle
0.0,5.0,1.0,1.0,5.0,5.0,309.1824690345675,1.0,1.0,phase_2,stop,100.0,300.0,3.0,,,,,,,,,blue,diamond
0.0,1.0,1.0,0.0,6.0,6.0,506.0907530132681,1.0,1.0,phase_2,go,50.0,300.0,1.0,,,,,,,,,cyan,hexagon
0.0,6.0,2.0,1.0,6.0,6.0,352.9436159878969,1.0,1.0,phase_2,stop,50.0,300.0,3.0,,,,,,,,,yellow,triangle
0.0,5.0,1.0,1.0,6.0,6.0,317.9829539731145,1.0,1.0,phase_2,go,50.0,250.0,1.0,,,,,,,,,blue,diamond
0.0,6.0,2.0,1.0,5.0,5.0,297.2275260253809,1.0,1.0,phase_2,stop,50.0,250.0,3.0,,,,,,,,,yellow,triangle
0.0,1.0,1.0,0.0,5.0,5.0,562.487751012668,1.0,1.0,phase_2,go,0.0,250.0,1.0,,,,,,,,,cyan,hexagon
0.0,3.0,3.0,0.0,5.0,5.0,356.0101190232672,1.0,1.0,phase_2,go,0.0,250.0,1.0,,,,,,,,,gray,square
0.0,2.0,2.0,0.0,6.0,6.0,475.5979239707812,1.0,1.0,phase_2,go,0.0,250.0,1.0,,,,,,,,,green,circle
0.0,4.0,4.0,0.0,6.0,6.0,355.4692299803719,1.0,1.0,phase_2,go,0.0,250.0,1.0,,,,,,,,,orange,cross
0.0,6.0,2.0,1.0,6.0,6.0,311.180020973552,1.0,1.0,phase_2,stop,0.0,250.0,3.0,,,,,,,,,yellow,triangle
0.0,6.0,2.0,1.0,5.0,5.0,303.8765669916756,1.0,1.0,phase_2,stop,0.0,200.0,3.0,,,,,,,,,yellow,triangle
0.0,4.0,4.0,0.0,6.0,6.0,495.1502600451931,1.0,1.0,phase_2,go,0.0,200.0,1.0,,,,,,,,,orange,cross
0.0,5.0,1.0,1.0,5.0,5.0,312.019802047871,1.0,1.0,phase_2,stop,0.0,200.0,3.0,,,,,,,,,blue,diamond
0.0,3.0,3.0,0.0,6.0,6.0,551.7841650289483,1.0,1.0,phase_2,go,0.0,200.0,1.0,,,,,,,,,gray,square
0.0,6.0,2.0,1.0,5.0,5.0,344.7542419889942,1.0,1.0,phase_2,go,0.0,200.0,1.0,,,,,,,,,yellow,triangle
0.0,8.0,4.0,1.0,6.0,6.0,374.2529829614796,1.0,1.0,phase_2,go,0.0,200.0,1.0,,,,,,,,,magenta,flipped triangle
0.0,1.0,1.0,0.0,5.0,5.0,346.1694089928642,1.0,1.0,phase_2,go,0.0,200.0,1.0,,,,,,,,,cyan,hexagon
0.0,1.0,1.0,0.0,6.0,6.0,355.2716199774295,1.0,1.0,phase_2,go,0.0,200.0,1.0,,,,,,,,,cyan,hexagon
0.0,7.0,3.0,1.0,6.0,6.0,376.9155910122208,1.0,1.0,phase_2,stop,0.0,200.0,3.0,,,,,,,,,white,I
0.0,8.0,4.0,1.0,5.0,5.0,421.773333044257,1.0,1.0,phase_2,go,0.0,150.0,1.0,,,,,,,,,magenta,flipped triangle
0.0,5.0,1.0,1.0,6.0,0.0,0.0,1.0,1.0,phase_2,stop,0.0,150.0,4.0,,,,,,,,,blue,diamond
0.0,2.0,2.0,0.0,6.0,6.0,439.0849620103836,1.0,1.0,phase_2,go,0.0,200.0,1.0,,,,,,,,,green,circle
0.0,3.0,3.0,0.0,5.0,5.0,450.4141949582845,1.0,1.0,phase_2,go,0.0,200.0,1.0,,,,,,,,,gray,square
0.0,8.0,4.0,1.0,6.0,6.0,290.9623350133188,1.0,1.0,phase_2,stop,0.0,200.0,3.0,,,,,,,,,magenta,flipped triangle
0.0,2.0,2.0,0.0,6.0,6.0,427.2620219853706,2.0,1.0,phase_2,go,0.0,150.0,1.0,,,,,,,,,green,circle
0.0,6.0,2.0,1.0,5.0,5.0,298.6253950512036,2.0,1.0,phase_2,go,0.0,150.0,1.0,,,,,,,,,yellow,triangle
0.0,5.0,1.0,1.0,6.0,6.0,431.9362199748866,2.0,1.0,phase_2,stop,0.0,150.0,3.0,,,,,,,,,blue,diamond
0.0,3.0,3.0,0.0,6.0,6.0,511.77824701881036,2.0,1.0,phase_2,go,0.0,100.0,1.0,,,,,,,,,gray,square
0.0,6.0,2.0,1.0,6.0,0.0,0.0,2.0,1.0,phase_2,stop,0.0,100.0,4.0,,,,,,,,,yellow,triangle
0.0,6.0,2.0,1.0,6.0,6.0,366.7159589822404,2.0,1.0,phase_2,stop,0.0,150.0,3.0,,,,,,,,,yellow,triangle
0.0,8.0,4.0,1.0,5.0,0.0,0.0,2.0,1.0,phase_2,stop,0.0,100.0,4.0,,,,,,,,,magenta,flipped triangle
0.0,4.0,4.0,0.0,5.0,5.0,521.446130995173,2.0,1.0,phase_2,go,50.0,100.0,1.0,,,,,,,,,orange,cross
0.0,4.0,4.0,0.0,5.0,5.0,280.1349270157516,2.0,1.0,phase_2,go,50.0,100.0,1.0,,,,,,,,,orange,cross
0.0,3.0,3.0,0.0,5.0,5.0,448.2454209937714,2.0,1.0,phase_2,go,50.0,100.0,1.0,,,,,,,,,gray,square
0.0,4.0,4.0,0.0,6.0,6.0,382.7480649924837,2.0,1.0,phase_2,go,50.0,100.0,1.0,,,,,,,,,orange,cross
0.0,2.0,2.0,0.0,6.0,6.0,326.5607170178555,2.0,1.0,phase_2,go,50.0,100.0,1.0,,,,,,,,,green,circle
0.0,1.0,1.0,0.0,5.0,5.0,289.9766869959421,2.0,1.0,phase_2,go,50.0,100.0,1.0,,,,,,,,,cyan,hexagon
0.0,3.0,3.0,0.0,5.0,5.0,299.1054959711618,2.0,1.0,phase_2,go,50.0,100.0,1.0,,,,,,,,,gray,square
0.0,8.0,4.0,1.0,6.0,6.0,338.5242039803415,2.0,1.0,phase_2,stop,50.0,100.0,3.0,,,,,,,,,magenta,flipped triangle
0.0,5.0,1.0,1.0,6.0,0.0,0.0,2.0,1.0,phase_2,stop,50.0,50.0,4.0,,,,,,,,,blue,diamond
0.0,1.0,1.0,0.0,6.0,6.0,495.415439014323,2.0,1.0,phase_2,go,50.0,100.0,1.0,,,,,,,,,cyan,hexagon
0.0,2.0,2.0,0.0,6.0,6.0,307.6524040079675,2.0,1.0,phase_2,go,50.0,100.0,1.0,,,,,,,,,green,circle
0.0,4.0,4.0,0.0,5.0,5.0,279.6668169903569,2.0,1.0,phase_2,go,50.0,100.0,1.0,,,,,,,,,orange,cross
0.0,5.0,1.0,1.0,6.0,6.0,298.5215249937027,2.0,1.0,phase_2,go,50.0,100.0,1.0,,,,,,,,,blue,diamond
0.0,2.0,2.0,0.0,5.0,5.0,308.1726930104196,2.0,1.0,phase_2,go,50.0,100.0,1.0,,,,,,,,,green,circle
0.0,8.0,4.0,1.0,5.0,5.0,325.7602959638461,2.0,1.0,phase_2,stop,50.0,100.0,3.0,,,,,,,,,magenta,flipped triangle
0.0,2.0,2.0,0.0,5.0,5.0,363.5951709584333,2.0,1.0,phase_2,go,0.0,100.0,1.0,,,,,,,,,green,circle
0.0,7.0,3.0,1.0,5.0,5.0,282.9286420019343,2.0,1.0,phase_2,stop,0.0,100.0,3.0,,,,,,,,,white,I
0.0,4.0,4.0,0.0,5.0,5.0,448.3505699899979,2.0,1.0,phase_2,go,0.0,100.0,1.0,,,,,,,,,orange,cross
0.0,2.0,2.0,0.0,6.0,6.0,448.3263760339468,2.0,1.0,phase_2,go,0.0,100.0,1.0,,,,,,,,,green,circle
0.0,8.0,4.0,1.0,6.0,0.0,0.0,2.0,1.0,phase_2,stop,0.0,100.0,4.0,,,,,,,,,magenta,flipped triangle
0.0,6.0,2.0,1.0,5.0,5.0,373.4048749902285,2.0,1.0,phase_2,go,0.0,150.0,1.0,,,,,,,,,yellow,triangle
0.0,3.0,3.0,0.0,5.0,5.0,345.1553069753572,2.0,1.0,phase_2,go,0.0,150.0,1.0,,,,,,,,,gray,square
0.0,5.0,1.0,1.0,6.0,6.0,345.8982249721885,2.0,1.0,phase_2,go,0.0,150.0,1.0,,,,,,,,,blue,diamond
0.0,5.0,1.0,1.0,5.0,0.0,0.0,2.0,1.0,phase_2,stop,0.0,150.0,4.0,,,,,,,,,blue,diamond
0.0,4.0,4.0,0.0,6.0,6.0,383.7411880376749,2.0,1.0,phase_2,go,50.0,150.0,1.0,,,,,,,,,orange,cross
0.0,2.0,2.0,0.0,5.0,5.0,289.1505629522726,2.0,1.0,phase_2,go,50.0,150.0,1.0,,,,,,,,,green,circle
0.0,7.0,3.0,1.0,5.0,0.0,0.0,2.0,1.0,phase_2,stop,50.0,150.0,4.0,,,,,,,,,white,I
0.0,7.0,3.0,1.0,5.0,0.0,0.0,2.0,1.0,phase_2,stop,100.0,150.0,4.0,,,,,,,,,white,I
0.0,1.0,1.0,0.0,6.0,6.0,372.1429880242795,2.0,1.0,phase_2,go,150.0,150.0,1.0,,,,,,,,,cyan,hexagon
0.0,1.0,1.0,0.0,5.0,5.0,346.2897940189577,3.0,1.0,phase_2,go,150.0,150.0,1.0,,,,,,,,,cyan,hexagon
0.0,7.0,3.0,1.0,5.0,5.0,318.464809039142,3.0,1.0,phase_2,stop,150.0,150.0,3.0,,,,,,,,,white,I
0.0,8.0,4.0,1.0,6.0,6.0,331.9194160285406,3.0,1.0,phase_2,stop,100.0,150.0,3.0,,,,,,,,,magenta,flipped triangle
0.0,7.0,3.0,1.0,6.0,6.0,361.7625510087237,3.0,1.0,phase_2,stop,100.0,100.0,3.0,,,,,,,,,white,I
0.0,3.0,3.0,0.0,5.0,5.0,532.6790640247054,3.0,1.0,phase_2,go,100.0,50.0,1.0,,,,,,,,,gray,square
0.0,7.0,3.0,1.0,5.0,5.0,439.2740570474416,3.0,1.0,phase_2,go,100.0,50.0,1.0,,,,,,,,,white,I
0.0,7.0,3.0,1.0,6.0,0.0,0.0,3.0,1.0,phase_2,stop,100.0,50.0,4.0,,,,,,,,,white,I
0.0,1.0,1.0,0.0,6.0,6.0,510.9409299911931,3.0,1.0,phase_2,go,100.0,100.0,1.0,,,,,,,,,cyan,hexagon
0.0,5.0,1.0,1.0,6.0,0.0,0.0,3.0,1.0,phase_2,stop,100.0,100.0,4.0,,,,,,,,,blue,diamond
0.0,6.0,2.0,1.0,5.0,0.0,0.0,3.0,1.0,phase_2,stop,100.0,150.0,4.0,,,,,,,,,yellow,triangle
0.0,1.0,1.0,0.0,5.0,5.0,484.7247590078041,3.0,1.0,phase_2,go,150.0,150.0,1.0,,,,,,,,,cyan,hexagon
0.0,4.0,4.0,0.0,6.0,6.0,355.674807971809,3.0,1.0,phase_2,go,150.0,150.0,1.0,,,,,,,,,orange,cross
0.0,4.0,4.0,0.0,5.0,5.0,439.610980974976,3.0,1.0,phase_2,go,150.0,150.0,1.0,,,,,,,,,orange,cross
0.0,4.0,4.0,0.0,6.0,6.0,484.9809040315449,3.0,1.0,phase_2,go,150.0,150.0,1.0,,,,,,,,,orange,cross
0.0,7.0,3.0,1.0,5.0,0.0,0.0,3.0,1.0,phase_2,stop,150.0,150.0,4.0,,,,,,,,,white,I
0.0,3.0,3.0,0.0,5.0,5.0,391.6987890261225,3.0,1.0,phase_2,go,200.0,150.0,1.0,,,,,,,,,gray,square
0.0,8.0,4.0,1.0,6.0,0.0,0.0,3.0,1.0,phase_2,stop,200.0,150.0,4.0,,,,,,,,,magenta,flipped triangle
0.0,6.0,2.0,1.0,6.0,6.0,540.7160999602638,3.0,1.0,phase_2,go,200.0,200.0,1.0,,,,,,,,,yellow,triangle
0.0,5.0,1.0,1.0,5.0,5.0,325.4001039895229,3.0,1.0,phase_2,stop,200.0,200.0,3.0,,,,,,,,,blue,diamond
0.0,4.0,4.0,0.0,6.0,6.0,493.8541199662722,3.0,1.0,phase_2,go,150.0,200.0,1.0,,,,,,,,,orange,cross
0.0,5.0,1.0,1.0,5.0,5.0,410.085114010144,3.0,1.0,phase_2,go,150.0,200.0,1.0,,,,,,,,,blue,diamond
0.0,2.0,2.0,0.0,5.0,5.0,354.6003489755094,3.0,1.0,phase_2,go,150.0,200.0,1.0,,,,,,,,,green,circle
0.0,1.0,1.0,0.0,5.0,5.0,339.4761909730732,3.0,1.0,phase_2,go,150.0,200.0,1.0,,,,,,,,,cyan,hexagon
0.0,1.0,1.0,0.0,6.0,6.0,438.1872380035929,3.0,1.0,phase_2,go,150.0,200.0,1.0,,,,,,,,,cyan,hexagon
0.0,8.0,4.0,1.0,6.0,6.0,398.3372909715399,3.0,1.0,phase_2,stop,150.0,200.0,3.0,,,,,,,,,magenta,flipped triangle
0.0,8.0,4.0,1.0,6.0,0.0,0.0,3.0,1.0,phase_2,stop,150.0,150.0,4.0,,,,,,,,,magenta,flipped triangle
0.0,6.0,2.0,1.0,5.0,5.0,542.5897350069135,3.0,1.0,phase_2,go,150.0,200.0,1.0,,,,,,,,,yellow,triangle
0.0,6.0,2.0,1.0,6.0,6.0,494.2124579683877,3.0,1.0,phase_2,go,150.0,200.0,1.0,,,,,,,,,yellow,triangle
0.0,5.0,1.0,1.0,6.0,0.0,0.0,3.0,1.0,phase_2,stop,150.0,200.0,4.0,,,,,,,,,blue,diamond
0.0,7.0,3.0,1.0,5.0,5.0,681.8880480132066,3.0,1.0,phase_2,go,150.0,250.0,1.0,,,,,,,,,white,I
0.0,2.0,2.0,0.0,6.0,6.0,493.8626140356064,3.0,1.0,phase_2,go,150.0,250.0,1.0,,,,,,,,,green,circle
0.0,8.0,4.0,1.0,5.0,0.0,0.0,3.0,1.0,phase_2,stop,150.0,250.0,4.0,,,,,,,,,magenta,flipped triangle
0.0,5.0,1.0,1.0,6.0,6.0,419.7664629900828,3.0,1.0,phase_2,stop,200.0,250.0,3.0,,,,,,,,,blue,diamond
0.0,4.0,4.0,0.0,5.0,5.0,439.641639997717,3.0,1.0,phase_2,go,200.0,200.0,1.0,,,,,,,,,orange,cross
0.0,4.0,4.0,0.0,6.0,6.0,771.5223770355806,3.0,1.0,phase_2,go,200.0,200.0,1.0,,,,,,,,,orange,cross
0.0,2.0,2.0,0.0,6.0,6.0,533.2052080193534,3.0,1.0,phase_2,go,200.0,200.0,1.0,,,,,,,,,green,circle
0.0,1.0,1.0,0.0,6.0,6.0,391.9380310107954,4.0,1.0,phase_2,go,200.0,200.0,1.0,,,,,,,,,cyan,hexagon
0.0,5.0,1.0,1.0,5.0,5.0,341.3778939866461,4.0,1.0,phase_2,stop,200.0,200.0,3.0,,,,,,,,,blue,diamond
0.0,7.0,3.0,1.0,6.0,6.0,466.8892100453377,4.0,1.0,phase_2,go,150.0,200.0,1.0,,,,,,,,,white,I
0.0,1.0,1.0,0.0,5.0,5.0,532.0524129783735,4.0,1.0,phase_2,go,150.0,200.0,1.0,,,,,,,,,cyan,hexagon
0.0,3.0,3.0,0.0,5.0,5.0,335.6838320032693,4.0,1.0,phase_2,go,150.0,200.0,1.0,,,,,,,,,gray,square
0.0,4.0,4.0,0.0,5.0,5.0,494.1927940235473,4.0,1.0,phase_2,go,150.0,200.0,1.0,,,,,,,,,orange,cross
0.0,7.0,3.0,1.0,6.0,6.0,334.7813520231284,4.0,1.0,phase_2,stop,150.0,200.0,3.0,,,,,,,,,white,I
0.0,5.0,1.0,1.0,5.0,0.0,0.0,4.0,1.0,phase_2,stop,150.0,150.0,4.0,,,,,,,,,blue,diamond
0.0,2.0,2.0,0.0,5.0,5.0,476.6770399874076,4.0,1.0,phase_2,go,200.0,150.0,1.0,,,,,,,,,green,circle
0.0,3.0,3.0,0.0,5.0,5.0,514.1948649543338,4.0,1.0,phase_2,go,200.0,150.0,1.0,,,,,,,,,gray,square
0.0,7.0,3.0,1.0,6.0,0.0,0.0,4.0,1.0,phase_2,stop,200.0,150.0,4.0,,,,,,,,,white,I
0.0,6.0,2.0,1.0,5.0,0.0,0.0,4.0,1.0,phase_2,stop,200.0,200.0,4.0,,,,,,,,,yellow,triangle
0.0,8.0,4.0,1.0,6.0,6.0,614.3496890435927,4.0,1.0,phase_2,go,250.0,200.0,1.0,,,,,,,,,magenta,flipped triangle
0.0,6.0,2.0,1.0,5.0,0.0,0.0,4.0,1.0,phase_2,stop,250.0,200.0,4.0,,,,,,,,,yellow,triangle
0.0,5.0,1.0,1.0,5.0,5.0,486.4293150021694,4.0,1.0,phase_2,stop,300.0,200.0,3.0,,,,,,,,,blue,diamond
0.0,1.0,1.0,0.0,6.0,6.0,448.2047759811394,4.0,1.0,phase_2,go,250.0,200.0,1.0,,,,,,,,,cyan,hexagon
0.0,1.0,1.0,0.0,5.0,5.0,531.6495590377599,4.0,1.0,phase_2,go,250.0,200.0,1.0,,,,,,,,,cyan,hexagon
0.0,3.0,3.0,0.0,5.0,5.0,588.0919280461967,4.0,1.0,phase_2,go,250.0,200.0,1.0,,,,,,,,,gray,square
0.0,4.0,4.0,0.0,5.0,5.0,420.5734340357594,4.0,1.0,phase_2,go,250.0,200.0,1.0,,,,,,,,,orange,cross
0.0,4.0,4.0,0.0,5.0,5.0,392.7245670347474,4.0,1.0,phase_2,go,250.0,200.0,1.0,,,,,,,,,orange,cross
0.0,1.0,1.0,0.0,6.0,6.0,382.8560130205005,4.0,1.0,phase_2,go,250.0,200.0,1.0,,,,,,,,,cyan,hexagon
0.0,8.0,4.0,1.0,5.0,0.0,0.0,4.0,1.0,phase_2,stop,250.0,200.0,4.0,,,,,,,,,magenta,flipped triangle
0.0,5.0,1.0,1.0,5.0,5.0,643.1251769536175,4.0,1.0,phase_2,go,300.0,200.0,1.0,,,,,,,,,blue,diamond
0.0,4.0,4.0,0.0,5.0,5.0,532.2870520176366,4.0,1.0,phase_2,go,300.0,200.0,1.0,,,,,,,,,orange,cross
0.0,1.0,1.0,0.0,5.0,5.0,550.9774910169654,4.0,1.0,phase_2,go,300.0,200.0,1.0,,,,,,,,,cyan,hexagon
0.0,8.0,4.0,1.0,5.0,5.0,568.8581290305592,4.0,1.0,phase_2,go,300.0,200.0,1.0,,,,,,,,,magenta,flipped triangle
0.0,5.0,1.0,1.0,6.0,0.0,0.0,4.0,1.0,phase_2,stop,300.0,200.0,4.0,,,,,,,,,blue,diamond
0.0,1.0,1.0,0.0,5.0,5.0,511.7604089900851,4.0,1.0,phase_2,go,300.0,250.0,1.0,,,,,,,,,cyan,hexagon
0.0,3.0,3.0,0.0,6.0,6.0,439.3309529987164,4.0,1.0,phase_2,go,300.0,250.0,1.0,,,,,,,,,gray,square
0.0,4.0,4.0,0.0,6.0,6.0,726.7251519951969,4.0,1.0,phase_2,go,300.0,250.0,1.0,,,,,,,,,orange,cross
0.0,3.0,3.0,0.0,6.0,6.0,633.0598559579812,4.0,1.0,phase_2,go,300.0,250.0,1.0,,,,,,,,,gray,square
0.0,2.0,2.0,0.0,6.0,6.0,411.4027480245568,4.0,1.0,phase_2,go,300.0,250.0,1.0,,,,,,,,,green,circle
0.0,8.0,4.0,1.0,5.0,5.0,378.67443903815,4.0,1.0,phase_2,stop,300.0,250.0,3.0,,,,,,,,,magenta,flipped triangle
0.0,7.0,3.0,1.0,5.0,5.0,615.8500459860079,4.0,1.0,phase_2,go,250.0,250.0,1.0,,,,,,,,,white,I
0.0,6.0,2.0,1.0,6.0,0.0,0.0,4.0,1.0,phase_2,stop,250.0,250.0,4.0,,,,,,,,,yellow,triangle
0.0,7.0,3.0,1.0,6.0,0.0,0.0,4.0,1.0,phase_2,stop,250.0,300.0,4.0,,,,,,,,,white,I
0.0,5.0,1.0,1.0,6.0,6.0,431.4914980204776,5.0,1.0,phase_2,stop,250.0,350.0,3.0,,,,,,,,,blue,diamond
0.0,2.0,2.0,0.0,6.0,6.0,605.5140829994343,5.0,1.0,phase_2,go,250.0,300.0,1.0,,,,,,,,,green,circle
0.0,5.0,1.0,1.0,6.0,6.0,532.1934249950573,5.0,1.0,phase_2,stop,250.0,300.0,3.0,,,,,,,,,blue,diamond
0.0,8.0,4.0,1.0,5.0,0.0,0.0,5.0,1.0,phase_2,stop,250.0,250.0,4.0,,,,,,,,,magenta,flipped triangle
0.0,2.0,2.0,0.0,5.0,5.0,578.2720450079069,5.0,1.0,phase_2,go,300.0,250.0,1.0,,,,,,,,,green,circle
0.0,7.0,3.0,1.0,6.0,0.0,0.0,5.0,1.0,phase_2,stop,300.0,250.0,4.0,,,,,,,,,white,I
0.0,8.0,4.0,1.0,6.0,0.0,0.0,5.0,1.0,phase_2,stop,300.0,300.0,4.0,,,,,,,,,magenta,flipped triangle
0.0,5.0,1.0,1.0,5.0,5.0,525.6697189761326,5.0,1.0,phase_2,stop,300.0,350.0,3.0,,,,,,,,,blue,diamond
0.0,2.0,2.0,0.0,5.0,5.0,690.5968810315244,5.0,1.0,phase_2,go,250.0,350.0,1.0,,,,,,,,,green,circle
0.0,2.0,2.0,0.0,5.0,5.0,673.0869989842176,5.0,1.0,phase_2,go,250.0,350.0,1.0,,,,,,,,,green,circle
0.0,2.0,2.0,0.0,5.0,5.0,496.1596920038573,5.0,1.0,phase_2,go,250.0,350.0,1.0,,,,,,,,,green,circle
0.0,3.0,3.0,0.0,5.0,5.0,365.0093390024267,5.0,1.0,phase_2,go,250.0,350.0,1.0,,,,,,,,,gray,square
0.0,2.0,2.0,0.0,6.0,6.0,476.9851869787089,5.0,1.0,phase_2,go,250.0,350.0,1.0,,,,,,,,,green,circle
0.0,7.0,3.0,1.0,6.0,6.0,562.764207017608,5.0,1.0,phase_2,stop,250.0,350.0,3.0,,,,,,,,,white,I
0.0,2.0,2.0,0.0,6.0,6.0,626.3661779812537,5.0,1.0,phase_2,go,250.0,300.0,1.0,,,,,,,,,green,circle
0.0,5.0,1.0,1.0,6.0,0.0,0.0,5.0,1.0,phase_2,stop,250.0,300.0,4.0,,,,,,,,,blue,diamond
0.0,7.0,3.0,1.0,6.0,0.0,0.0,5.0,1.0,phase_2,stop,250.0,350.0,4.0,,,,,,,,,white,I
0.0,6.0,2.0,1.0,5.0,0.0,0.0,5.0,1.0,phase_2,stop,250.0,400.0,4.0,,,,,,,,,yellow,triangle
0.0,8.0,4.0,1.0,6.0,6.0,589.0356209711172,5.0,1.0,phase_2,go,300.0,400.0,1.0,,,,,,,,,magenta,flipped triangle
0.0,3.0,3.0,0.0,5.0,5.0,615.4537530383095,5.0,1.0,phase_2,go,300.0,400.0,1.0,,,,,,,,,gray,square
0.0,3.0,3.0,0.0,6.0,6.0,718.5107129625976,5.0,1.0,phase_2,go,300.0,400.0,1.0,,,,,,,,,gray,square
0.0,7.0,3.0,1.0,6.0,0.0,0.0,5.0,1.0,phase_2,stop,300.0,400.0,4.0,,,,,,,,,white,I
0.0,5.0,1.0,1.0,5.0,5.0,460.3302669711411,5.0,1.0,phase_2,stop,300.0,450.0,3.0,,,,,,,,,blue,diamond
0.0,6.0,2.0,1.0,5.0,0.0,0.0,5.0,1.0,phase_2,stop,250.0,450.0,4.0,,,,,,,,,yellow,triangle
0.0,5.0,1.0,1.0,6.0,6.0,475.017667049542,5.0,1.0,phase_2,go,300.0,450.0,1.0,,,,,,,,,blue,diamond
0.0,3.0,3.0,0.0,6.0,6.0,765.699848998338,5.0,1.0,phase_2,go,300.0,450.0,1.0,,,,,,,,,gray,square
0.0,6.0,2.0,1.0,6.0,6.0,608.7638899916783,5.0,1.0,phase_2,stop,300.0,450.0,3.0,,,,,,,,,yellow,triangle
0.0,3.0,3.0,0.0,6.0,6.0,719.2273820401169,5.0,1.0,phase_2,go,300.0,400.0,1.0,,,,,,,,,gray,square
0.0,4.0,4.0,0.0,6.0,6.0,683.1791550503112,5.0,1.0,phase_2,go,300.0,400.0,1.0,,,,,,,,,orange,cross
0.0,8.0,4.0,1.0,5.0,0.0,0.0,5.0,1.0,phase_2,stop,300.0,400.0,4.0,,,,,,,,,magenta,flipped triangle
0.0,3.0,3.0,0.0,5.0,5.0,624.0142039605416,5.0,1.0,phase_2,go,350.0,400.0,1.0,,,,,,,,,gray,square
0.0,3.0,3.0,0.0,6.0,6.0,542.0657669892535,5.0,1.0,phase_2,go,350.0,400.0,1.0,,,,,,,,,gray,square
0.0,3.0,3.0,0.0,6.0,6.0,588.4372970322147,5.0,1.0,phase_2,go,350.0,400.0,1.0,,,,,,,,,gray,square
0.0,5.0,1.0,1.0,5.0,5.0,625.9589029941708,5.0,1.0,phase_2,go,350.0,400.0,1.0,,,,,,,,,blue,diamond
0.0,7.0,3.0,1.0,5.0,5.0,384.2744089779444,5.0,1.0,phase_2,go,350.0,400.0,1.0,,,,,,,,,white,I
0.0,8.0,4.0,1.0,5.0,5.0,468.6721990001388,5.0,1.0,phase_2,stop,350.0,400.0,3.0,,,,,,,,,magenta,flipped triangle
0.0,6.0,2.0,1.0,6.0,6.0,446.5647200122475,6.0,1.0,phase_2,stop,300.0,400.0,3.0,,,,,,,,,yellow,triangle
0.0,6.0,2.0,1.0,5.0,0.0,0.0,6.0,1.0,phase_2,stop,300.0,350.0,4.0,,,,,,,,,yellow,triangle
0.0,1.0,1.0,0.0,5.0,5.0,515.3956699650735,6.0,1.0,phase_2,go,350.0,350.0,1.0,,,,,,,,,cyan,hexagon
0.0,6.0,2.0,1.0,6.0,0.0,0.0,6.0,1.0,phase_2,stop,350.0,350.0,4.0,,,,,,,,,yellow,triangle
0.0,8.0,4.0,1.0,6.0,6.0,559.6946630394086,6.0,1.0,phase_2,stop,350.0,400.0,3.0,,,,,,,,,magenta,flipped triangle
0.0,4.0,4.0,0.0,5.0,5.0,606.9798769894987,6.0,1.0,phase_2,go,350.0,350.0,1.0,,,,,,,,,orange,cross
0.0,6.0,2.0,1.0,6.0,6.0,325.7312420173548,6.0,1.0,phase_2,go,350.0,350.0,1.0,,,,,,,,,yellow,triangle
0.0,7.0,3.0,1.0,6.0,0.0,0.0,6.0,1.0,phase_2,stop,350.0,350.0,4.0,,,,,,,,,white,I
0.0,8.0,4.0,1.0,5.0,0.0,0.0,6.0,1.0,phase_2,stop,350.0,400.0,4.0,,,,,,,,,magenta,flipped triangle
0.0,8.0,4.0,1.0,6.0,0.0,0.0,6.0,1.0,phase_2,stop,400.0,400.0,4.0,,,,,,,,,magenta,flipped triangle
0.0,4.0,4.0,0.0,5.0,5.0,597.795355017297,6.0,1.0,phase_2,go,400.0,450.0,1.0,,,,,,,,,orange,cross
0.0,2.0,2.0,0.0,5.0,5.0,616.026735980995,6.0,1.0,phase_2,go,400.0,450.0,1.0,,,,,,,,,green,circle
0.0,2.0,2.0,0.0,5.0,5.0,495.3693890129216,6.0,1.0,phase_2,go,400.0,450.0,1.0,,,,,,,,,green,circle
0.0,1.0,1.0,0.0,6.0,6.0,635.7947399956174,6.0,1.0,phase_2,go,400.0,450.0,1.0,,,,,,,,,cyan,hexagon
0.0,1.0,1.0,0.0,6.0,6.0,494.5515529834665,6.0,1.0,phase_2,go,400.0,450.0,1.0,,,,,,,,,cyan,hexagon
0.0,4.0,4.0,0.0,6.0,6.0,469.9867610470392,6.0,1.0,phase_2,go,400.0,450.0,1.0,,,,,,,,,orange,cross
0.0,8.0,4.0,1.0,5.0,5.0,460.3709929506294,6.0,1.0,phase_2,stop,400.0,450.0,3.0,,,,,,,,,magenta,flipped triangle
0.0,4.0,4.0,0.0,6.0,6.0,645.5278390203603,6.0,1.0,phase_2,go,350.0,450.0,1.0,,,,,,,,,orange,cross
0.0,2.0,2.0,0.0,5.0,5.0,429.5168190146796,6.0,1.0,phase_2,go,350.0,450.0,1.0,,,,,,,,,green,circle
0.0,2.0,2.0,0.0,6.0,6.0,449.8068069806322,6.0,1.0,phase_2,go,350.0,450.0,1.0,,,,,,,,,green,circle
0.0,3.0,3.0,0.0,6.0,6.0,448.153999983333,6.0,1.0,phase_2,go,350.0,450.0,1.0,,,,,,,,,gray,square
0.0,4.0,4.0,0.0,6.0,6.0,598.838010977488,6.0,1.0,phase_2,go,350.0,450.0,1.0,,,,,,,,,orange,cross
0.0,8.0,4.0,1.0,5.0,5.0,503.32649500342086,6.0,1.0,phase_2,go,350.0,450.0,1.0,,,,,,,,,magenta,flipped triangle
0.0,1.0,1.0,0.0,5.0,5.0,450.1565370010212,6.0,1.0,phase_2,go,350.0,450.0,1.0,,,,,,,,,cyan,hexagon
0.0,1.0,1.0,0.0,5.0,5.0,327.7763910009525,6.0,1.0,phase_2,go,350.0,450.0,1.0,,,,,,,,,cyan,hexagon
0.0,4.0,4.0,0.0,6.0,6.0,317.7564439829439,6.0,1.0,phase_2,go,350.0,450.0,1.0,,,,,,,,,orange,cross
0.0,7.0,3.0,1.0,5.0,5.0,467.5588150275871,6.0,1.0,phase_2,stop,350.0,450.0,3.0,,,,,,,,,white,I
0.0,3.0,3.0,0.0,5.0,5.0,607.8797850059345,6.0,1.0,phase_2,go,300.0,450.0,1.0,,,,,,,,,gray,square
0.0,7.0,3.0,1.0,5.0,5.0,386.4164060214534,6.0,1.0,phase_2,stop,300.0,450.0,3.0,,,,,,,,,white,I
0.0,4.0,4.0,0.0,6.0,6.0,496.2749950354919,6.0,1.0,phase_2,go,250.0,450.0,1.0,,,,,,,,,orange,cross
0.0,5.0,1.0,1.0,6.0,6.0,630.1478639943525,6.0,1.0,phase_2,stop,250.0,450.0,3.0,,,,,,,,,blue,diamond
0.0,7.0,3.0,1.0,5.0,0.0,0.0,6.0,1.0,phase_2,stop,250.0,400.0,4.0,,,,,,,,,white,I
0.0,2.0,2.0,0.0,5.0,5.0,736.501211009454,6.0,1.0,phase_2,go,300.0,400.0,1.0,,,,,,,,,green,circle
0.0,1.0,1.0,0.0,5.0,5.0,652.4106489960104,6.0,1.0,phase_2,go,300.0,400.0,1.0,,,,,,,,,cyan,hexagon
0.0,4.0,4.0,0.0,5.0,5.0,596.727205964271,6.0,1.0,phase_2,go,300.0,400.0,1.0,,,,,,,,,orange,cross
0.0,6.0,2.0,1.0,5.0,0.0,0.0,6.0,1.0,phase_2,stop,300.0,400.0,4.0,,,,,,,,,yellow,triangle
0.0,4.0,4.0,0.0,6.0,6.0,428.5789729910902,7.0,1.0,phase_2,go,350.0,400.0,1.0,,,,,,,,,orange,cross
0.0,5.0,1.0,1.0,5.0,5.0,561.2650939729065,7.0,1.0,phase_2,stop,350.0,400.0,3.0,,,,,,,,,blue,diamond
0.0,5.0,1.0,1.0,5.0,5.0,740.2515130233951,7.0,1.0,phase_2,go,300.0,400.0,1.0,,,,,,,,,blue,diamond
0.0,5.0,1.0,1.0,6.0,6.0,475.1151159871369,7.0,1.0,phase_2,stop,300.0,400.0,3.0,,,,,,,,,blue,diamond
0.0,1.0,1.0,0.0,6.0,6.0,551.6123329871334,7.0,1.0,phase_2,go,300.0,350.0,1.0,,,,,,,,,cyan,hexagon
0.0,7.0,3.0,1.0,5.0,5.0,534.3953989795409,7.0,1.0,phase_2,stop,300.0,350.0,3.0,,,,,,,,,white,I
0.0,1.0,1.0,0.0,6.0,6.0,550.199113029521,7.0,1.0,phase_2,go,250.0,350.0,1.0,,,,,,,,,cyan,hexagon
0.0,6.0,2.0,1.0,6.0,6.0,531.975045974832,7.0,1.0,phase_2,go,250.0,350.0,1.0,,,,,,,,,yellow,triangle
0.0,7.0,3.0,1.0,5.0,0.0,0.0,7.0,1.0,phase_2,stop,250.0,350.0,4.0,,,,,,,,,white,I
0.0,8.0,4.0,1.0,5.0,5.0,560.6706039980054,7.0,1.0,phase_2,go,300.0,350.0,1.0,,,,,,,,,magenta,flipped triangle
0.0,1.0,1.0,0.0,5.0,5.0,532.8571880236268,7.0,1.0,phase_2,go,300.0,350.0,1.0,,,,,,,,,cyan,hexagon
0.0,4.0,4.0,0.0,5.0,5.0,654.3311339919455,7.0,1.0,phase_2,go,300.0,350.0,1.0,,,,,,,,,orange,cross
0.0,3.0,3.0,0.0,6.0,6.0,552.0776260527782,7.0,1.0,phase_2,go,300.0,350.0,1.0,,,,,,,,,gray,square
0.0,3.0,3.0,0.0,6.0,6.0,513.4388330043294,7.0,1.0,phase_2,go,300.0,350.0,1.0,,,,,,,,,gray,square
0.0,7.0,3.0,1.0,5.0,5.0,357.7768059913069,7.0,1.0,phase_2,stop,300.0,350.0,3.0,,,,,,,,,white,I
0.0,2.0,2.0,0.0,6.0,6.0,485.5054410290904,7.0,1.0,phase_2,go,250.0,350.0,1.0,,,,,,,,,green,circle
0.0,1.0,1.0,0.0,5.0,5.0,634.6718529821374,7.0,1.0,phase_2,go,250.0,350.0,1.0,,,,,,,,,cyan,hexagon
0.0,2.0,2.0,0.0,6.0,6.0,289.9123259703628,7.0,1.0,phase_2,go,250.0,350.0,1.0,,,,,,,,,green,circle
0.0,2.0,2.0,0.0,6.0,6.0,522.5698389695026,7.0,1.0,phase_2,go,250.0,350.0,1.0,,,,,,,,,green,circle
0.0,1.0,1.0,0.0,6.0,6.0,551.2597889755853,7.0,1.0,phase_2,go,250.0,350.0,1.0,,,,,,,,,cyan,hexagon
0.0,6.0,2.0,1.0,5.0,0.0,0.0,7.0,1.0,phase_2,stop,250.0,350.0,4.0,,,,,,,,,yellow,triangle
0.0,6.0,2.0,1.0,5.0,5.0,438.8662810088135,7.0,1.0,phase_2,stop,300.0,350.0,3.0,,,,,,,,,yellow,triangle
0.0,3.0,3.0,0.0,5.0,5.0,587.7745320321992,7.0,1.0,phase_2,go,250.0,350.0,1.0,,,,,,,,,gray,square
0.0,1.0,1.0,0.0,6.0,6.0,550.289349979721,7.0,1.0,phase_2,go,250.0,350.0,1.0,,,,,,,,,cyan,hexagon
0.0,8.0,4.0,1.0,6.0,6.0,443.7017620075494,7.0,1.0,phase_2,stop,250.0,350.0,3.0,,,,,,,,,magenta,flipped triangle
0.0,7.0,3.0,1.0,6.0,0.0,0.0,7.0,1.0,phase_2,stop,250.0,300.0,4.0,,,,,,,,,white,I
0.0,2.0,2.0,0.0,5.0,5.0,625.7570689776912,7.0,1.0,phase_2,go,250.0,350.0,1.0,,,,,,,,,green,circle
0.0,1.0,1.0,0.0,5.0,5.0,634.9879519548267,7.0,1.0,phase_2,go,250.0,350.0,1.0,,,,,,,,,cyan,hexagon
0.0,6.0,2.0,1.0,5.0,0.0,0.0,7.0,1.0,phase_2,stop,250.0,350.0,4.0,,,,,,,,,yellow,triangle
0.0,1.0,1.0,0.0,6.0,6.0,532.1677150204778,7.0,1.0,phase_2,go,300.0,350.0,1.0,,,,,,,,,cyan,hexagon
0.0,8.0,4.0,1.0,6.0,6.0,454.1270770132541,7.0,1.0,phase_2,stop,300.0,350.0,3.0,,,,,,,,,magenta,flipped triangle
0.0,4.0,4.0,0.0,6.0,6.0,874.8886310495436,7.0,1.0,phase_2,go,300.0,300.0,1.0,,,,,,,,,orange,cross
0.0,8.0,4.0,1.0,6.0,0.0,0.0,7.0,1.0,phase_2,stop,300.0,300.0,4.0,,,,,,,,,magenta,flipped triangle
0.0,8.0,4.0,1.0,5.0,5.0,456.827124056872,7.0,1.0,phase_2,go,300.0,350.0,1.0,,,,,,,,,magenta,flipped triangle
0.0,3.0,3.0,0.0,5.0,5.0,382.203285000287,7.0,1.0,phase_2,go,300.0,350.0,1.0,,,,,,,,,gray,square
0.0,7.0,3.0,1.0,6.0,6.0,596.3532789610326,7.0,1.0,phase_2,go,300.0,350.0,1.0,,,,,,,,,white,I
0.0,7.0,3.0,1.0,6.0,6.0,404.0245260111987,8.0,1.0,phase_2,stop,300.0,350.0,3.0,,,,,,,,,white,I
0.0,6.0,2.0,1.0,6.0,0.0,0.0,8.0,1.0,phase_2,stop,300.0,300.0,4.0,,,,,,,,,yellow,triangle
0.0,6.0,2.0,1.0,6.0,6.0,404.9347080290317,8.0,1.0,phase_2,stop,300.0,350.0,3.0,,,,,,,,,yellow,triangle
0.0,2.0,2.0,0.0,5.0,5.0,448.1562789878808,8.0,1.0,phase_2,go,300.0,300.0,1.0,,,,,,,,,green,circle
0.0,5.0,1.0,1.0,5.0,5.0,342.9181140381843,8.0,1.0,phase_2,stop,300.0,300.0,3.0,,,,,,,,,blue,diamond
0.0,3.0,3.0,0.0,6.0,6.0,615.9636069787666,8.0,1.0,phase_2,go,250.0,300.0,1.0,,,,,,,,,gray,square
0.0,3.0,3.0,0.0,6.0,6.0,374.43768203957,8.0,1.0,phase_2,go,250.0,300.0,1.0,,,,,,,,,gray,square
0.0,4.0,4.0,0.0,5.0,5.0,495.2114800107665,8.0,1.0,phase_2,go,250.0,300.0,1.0,,,,,,,,,orange,cross
0.0,4.0,4.0,0.0,6.0,6.0,420.7512309658341,8.0,1.0,phase_2,go,250.0,300.0,1.0,,,,,,,,,orange,cross
0.0,8.0,4.0,1.0,5.0,5.0,332.6727770036086,8.0,1.0,phase_2,stop,250.0,300.0,3.0,,,,,,,,,magenta,flipped triangle
0.0,3.0,3.0,0.0,6.0,6.0,503.2095329952426,8.0,1.0,phase_2,go,200.0,300.0,1.0,,,,,,,,,gray,square
0.0,6.0,2.0,1.0,6.0,6.0,357.7322030323557,8.0,1.0,phase_2,stop,200.0,300.0,3.0,,,,,,,,,yellow,triangle
0.0,2.0,2.0,0.0,5.0,5.0,513.4061650023796,8.0,1.0,phase_2,go,200.0,250.0,1.0,,,,,,,,,green,circle
0.0,7.0,3.0,1.0,5.0,5.0,532.6093930052593,8.0,1.0,phase_2,go,200.0,250.0,1.0,,,,,,,,,white,I
0.0,6.0,2.0,1.0,5.0,5.0,340.2328820084221,8.0,1.0,phase_2,stop,200.0,250.0,3.0,,,,,,,,,yellow,triangle
0.0,5.0,1.0,1.0,5.0,0.0,0.0,8.0,1.0,phase_2,stop,150.0,250.0,4.0,,,,,,,,,blue,diamond
0.0,1.0,1.0,0.0,5.0,5.0,485.2200369932689,8.0,1.0,phase_2,go,200.0,250.0,1.0,,,,,,,,,cyan,hexagon
0.0,1.0,1.0,0.0,6.0,6.0,374.20260801445687,8.0,1.0,phase_2,go,200.0,250.0,1.0,,,,,,,,,cyan,hexagon
0.0,5.0,1.0,1.0,5.0,5.0,290.0730110122822,8.0,1.0,phase_2,go,200.0,250.0,1.0,,,,,,,,,blue,diamond
0.0,3.0,3.0,0.0,6.0,6.0,504.76794195128605,8.0,1.0,phase_2,go,200.0,250.0,1.0,,,,,,,,,gray,square
0.0,6.0,2.0,1.0,6.0,6.0,408.3393239998258,8.0,1.0,phase_2,stop,200.0,250.0,3.0,,,,,,,,,yellow,triangle
0.0,6.0,2.0,1.0,6.0,6.0,483.5158249479718,8.0,1.0,phase_2,stop,200.0,200.0,3.0,,,,,,,,,yellow,triangle
0.0,4.0,4.0,0.0,5.0,5.0,513.2401020382531,8.0,1.0,phase_2,go,200.0,150.0,1.0,,,,,,,,,orange,cross
0.0,7.0,3.0,1.0,6.0,6.0,624.8972300090827,8.0,1.0,phase_2,go,200.0,150.0,1.0,,,,,,,,,white,I
0.0,5.0,1.0,1.0,6.0,0.0,0.0,8.0,1.0,phase_2,stop,200.0,150.0,4.0,,,,,,,,,blue,diamond
0.0,7.0,3.0,1.0,5.0,0.0,0.0,8.0,1.0,phase_2,stop,200.0,200.0,4.0,,,,,,,,,white,I
0.0,6.0,2.0,1.0,6.0,6.0,514.0549750067294,8.0,1.0,phase_2,go,250.0,200.0,1.0,,,,,,,,,yellow,triangle
0.0,3.0,3.0,0.0,5.0,5.0,578.4258670173585,8.0,1.0,phase_2,go,250.0,200.0,1.0,,,,,,,,,gray,square
0.0,2.0,2.0,0.0,5.0,5.0,502.9020519577898,8.0,1.0,phase_2,go,250.0,200.0,1.0,,,,,,,,,green,circle
0.0,1.0,1.0,0.0,6.0,6.0,337.4644819996319,8.0,1.0,phase_2,go,250.0,200.0,1.0,,,,,,,,,cyan,hexagon
0.0,7.0,3.0,1.0,6.0,6.0,476.4501809841022,8.0,1.0,phase_2,go,250.0,200.0,1.0,,,,,,,,,white,I
0.0,7.0,3.0,1.0,6.0,6.0,358.6121109547093,8.0,1.0,phase_2,stop,250.0,200.0,3.0,,,,,,,,,white,I
0.0,5.0,1.0,1.0,5.0,5.0,504.7058289637789,8.0,1.0,phase_2,stop,250.0,150.0,3.0,,,,,,,,,blue,diamond
0.0,2.0,2.0,0.0,6.0,6.0,527.1908729919232,8.0,1.0,phase_2,go,200.0,150.0,1.0,,,,,,,,,green,circle
0.0,7.0,3.0,1.0,5.0,0.0,0.0,8.0,1.0,phase_2,stop,200.0,150.0,4.0,,,,,,,,,white,I
0.0,8.0,4.0,1.0,6.0,0.0,0.0,8.0,1.0,phase_2,stop,250.0,150.0,4.0,,,,,,,,,magenta,flipped triangle
0.0,5.0,1.0,1.0,7.0,3.0,3137.8666380187497,1.0,1.0,phase_3,,,,,865.0,5.0,692.0,519.0,865.0,173.0,1038.0,346.0,blue,diamond
0.0,7.0,3.0,1.0,7.0,1.0,4480.975040001795,1.0,1.0,phase_3,,,,,462.0,3.0,462.0,616.0,770.0,154.0,924.0,308.0,white,I
0.0,8.0,4.0,1.0,7.0,4.0,2276.778541970998,1.0,1.0,phase_3,,,,,540.0,4.0,135.0,270.0,675.0,540.0,810.0,405.0,magenta,flipped triangle
0.0,4.0,4.0,0.0,7.0,3.0,2016.8586799991322,1.0,1.0,phase_3,,,,,616.0,4.0,770.0,462.0,616.0,308.0,924.0,154.0,orange,cross
0.0,1.0,1.0,0.0,7.0,2.0,3215.522782993503,1.0,1.0,phase_3,,,,,1038.0,6.0,519.0,1038.0,692.0,865.0,346.0,173.0,cyan,hexagon
0.0,6.0,2.0,1.0,7.0,5.0,1531.359490007162,1.0,1.0,phase_3,,,,,616.0,4.0,462.0,770.0,308.0,924.0,616.0,154.0,yellow,triangle
0.0,1.0,1.0,0.0,7.0,2.0,1102.6256270124577,1.0,1.0,phase_3,,,,,865.0,5.0,692.0,865.0,173.0,346.0,519.0,1038.0,cyan,hexagon
0.0,7.0,3.0,1.0,7.0,6.0,999.7043840121478,1.0,1.0,phase_3,,,,,192.0,1.0,384.0,768.0,1152.0,960.0,576.0,192.0,white,I
0.0,8.0,4.0,1.0,7.0,3.0,1028.9586200378835,1.0,1.0,phase_3,,,,,519.0,3.0,346.0,173.0,519.0,692.0,865.0,1038.0,magenta,flipped triangle
0.0,2.0,2.0,0.0,7.0,1.0,2595.051721960772,1.0,1.0,phase_3,,,,,580.0,5.0,580.0,232.0,116.0,348.0,464.0,696.0,green,circle
0.0,2.0,2.0,0.0,7.0,5.0,2537.3571849777363,1.0,1.0,phase_3,,,,,519.0,3.0,1038.0,865.0,173.0,346.0,519.0,692.0,green,circle
0.0,2.0,2.0,0.0,7.0,4.0,3276.267408044077,1.0,1.0,phase_3,,,,,616.0,4.0,770.0,308.0,154.0,616.0,462.0,924.0,green,circle
0.0,1.0,1.0,0.0,7.0,4.0,1472.2769509535285,1.0,1.0,phase_3,,,,,540.0,4.0,135.0,405.0,675.0,540.0,270.0,810.0,cyan,hexagon
0.0,4.0,4.0,0.0,7.0,2.0,1424.786875024438,1.0,1.0,phase_3,,,,,696.0,6.0,348.0,696.0,116.0,580.0,464.0,232.0,orange,cross
0.0,1.0,1.0,0.0,7.0,6.0,3215.0757670169696,1.0,1.0,phase_3,,,,,960.0,5.0,768.0,576.0,192.0,1152.0,384.0,960.0,cyan,hexagon
0.0,4.0,4.0,0.0,7.0,3.0,4702.976851956919,1.0,1.0,phase_3,,,,,692.0,4.0,346.0,865.0,692.0,1038.0,173.0,519.0,orange,cross
0.0,6.0,2.0,1.0,7.0,3.0,2743.856394023169,1.0,1.0,phase_3,,,,,116.0,1.0,580.0,464.0,116.0,348.0,232.0,696.0,yellow,triangle
0.0,3.0,3.0,0.0,7.0,5.0,3034.664306032937,1.0,1.0,phase_3,,,,,865.0,5.0,346.0,173.0,1038.0,519.0,865.0,692.0,gray,square
0.0,6.0,2.0,1.0,7.0,2.0,1828.7950160447508,1.0,1.0,phase_3,,,,,865.0,5.0,519.0,865.0,692.0,346.0,1038.0,173.0,yellow,triangle
0.0,6.0,2.0,1.0,7.0,4.0,3635.999577003531,1.0,1.0,phase_3,,,,,768.0,4.0,192.0,960.0,384.0,768.0,576.0,1152.0,yellow,triangle
0.0,2.0,2.0,0.0,7.0,2.0,1147.7879890007898,2.0,1.0,phase_3,,,,,173.0,1.0,692.0,173.0,1038.0,346.0,519.0,865.0,green,circle
0.0,2.0,2.0,0.0,7.0,4.0,1780.2996570244431,2.0,1.0,phase_3,,,,,384.0,2.0,960.0,576.0,1152.0,384.0,192.0,768.0,green,circle
0.0,4.0,4.0,0.0,7.0,3.0,2686.729127948638,2.0,1.0,phase_3,,,,,810.0,6.0,540.0,675.0,810.0,270.0,135.0,405.0,orange,cross
0.0,3.0,3.0,0.0,7.0,1.0,1585.8526670490392,2.0,1.0,phase_3,,,,,270.0,2.0,270.0,675.0,405.0,135.0,810.0,540.0,gray,square
0.0,8.0,4.0,1.0,7.0,4.0,2395.5080079613253,2.0,1.0,phase_3,,,,,692.0,4.0,519.0,1038.0,865.0,692.0,173.0,346.0,magenta,flipped triangle
0.0,2.0,2.0,0.0,7.0,2.0,1185.3769280132838,2.0,1.0,phase_3,,,,,696.0,6.0,348.0,696.0,232.0,116.0,464.0,580.0,green,circle
0.0,8.0,4.0,1.0,7.0,6.0,1525.300755049102,2.0,1.0,phase_3,,,,,576.0,3.0,1152.0,192.0,768.0,384.0,960.0,576.0,magenta,flipped triangle
0.0,8.0,4.0,1.0,7.0,4.0,1640.0843359879218,2.0,1.0,phase_3,,,,,924.0,6.0,308.0,462.0,616.0,924.0,770.0,154.0,magenta,flipped triangle
0.0,2.0,2.0,0.0,7.0,5.0,3988.35370800225,2.0,1.0,phase_3,,,,,675.0,5.0,810.0,135.0,540.0,405.0,675.0,270.0,green,circle
0.0,3.0,3.0,0.0,7.0,4.0,3260.95914200414,2.0,1.0,phase_3,,,,,580.0,5.0,696.0,232.0,348.0,580.0,116.0,464.0,gray,square
0.0,1.0,1.0,0.0,7.0,1.0,3549.1250819759443,2.0,1.0,phase_3,,,,,960.0,5.0,960.0,1152.0,768.0,384.0,576.0,192.0,cyan,hexagon
0.0,8.0,4.0,1.0,7.0,3.0,3718.2209210004658,2.0,1.0,phase_3,,,,,580.0,5.0,116.0,232.0,580.0,348.0,464.0,696.0,magenta,flipped triangle
0.0,5.0,1.0,1.0,7.0,5.0,2586.663164023776,2.0,1.0,phase_3,,,,,462.0,3.0,154.0,770.0,924.0,308.0,462.0,616.0,blue,diamond
0.0,4.0,4.0,0.0,7.0,5.0,4213.098628970329,2.0,1.0,phase_3,,,,,580.0,5.0,116.0,348.0,464.0,696.0,580.0,232.0,orange,cross
0.0,8.0,4.0,1.0,7.0,4.0,1985.0986339733936,2.0,1.0,phase_3,,,,,616.0,4.0,924.0,154.0,308.0,616.0,462.0,770.0,magenta,flipped triangle
0.0,5.0,1.0,1.0,7.0,2.0,2291.493526950944,2.0,1.0,phase_3,,,,,384.0,2.0,576.0,384.0,1152.0,960.0,192.0,768.0,blue,diamond
0.0,1.0,1.0,0.0,7.0,4.0,2086.0986839979887,2.0,1.0,phase_3,,,,,308.0,2.0,616.0,462.0,924.0,308.0,770.0,154.0,cyan,hexagon
0.0,5.0,1.0,1.0,7.0,3.0,4564.678132010158,2.0,1.0,phase_3,,,,,768.0,4.0,384.0,576.0,768.0,192.0,960.0,1152.0,blue,diamond
0.0,3.0,3.0,0.0,7.0,5.0,1620.4577590106055,2.0,1.0,phase_3,,,,,519.0,3.0,865.0,692.0,1038.0,346.0,519.0,173.0,gray,square
0.0,3.0,3.0,0.0,7.0,3.0,2942.463953047991,2.0,1.0,phase_3,,,,,960.0,5.0,768.0,576.0,960.0,1152.0,384.0,192.0,gray,square
0.0,1.0,1.0,0.0,7.0,5.0,1174.5791950379498,3.0,1.0,phase_3,,,,,580.0,5.0,348.0,696.0,116.0,464.0,580.0,232.0,cyan,hexagon
0.0,7.0,3.0,1.0,7.0,5.0,3010.883272974752,3.0,1.0,phase_3,,,,,232.0,2.0,348.0,464.0,116.0,580.0,232.0,696.0,white,I
0.0,8.0,4.0,1.0,7.0,6.0,4198.651979968417,3.0,1.0,phase_3,,,,,768.0,4.0,960.0,1152.0,192.0,384.0,576.0,768.0,magenta,flipped triangle
0.0,2.0,2.0,0.0,7.0,3.0,4103.193140006624,3.0,1.0,phase_3,,,,,675.0,5.0,135.0,810.0,675.0,270.0,540.0,405.0,green,circle
0.0,7.0,3.0,1.0,7.0,4.0,2520.179968967568,3.0,1.0,phase_3,,,,,675.0,5.0,405.0,135.0,270.0,675.0,810.0,540.0,white,I
0.0,7.0,3.0,1.0,7.0,3.0,1697.2706189844755,3.0,1.0,phase_3,,,,,1038.0,6.0,519.0,173.0,1038.0,346.0,865.0,692.0,white,I
0.0,7.0,3.0,1.0,7.0,2.0,3565.2933109668083,3.0,1.0,phase_3,,,,,675.0,5.0,810.0,675.0,405.0,540.0,270.0,135.0,white,I
0.0,6.0,2.0,1.0,7.0,2.0,3059.609449002892,3.0,1.0,phase_3,,,,,540.0,4.0,405.0,540.0,135.0,270.0,810.0,675.0,yellow,triangle
0.0,8.0,4.0,1.0,7.0,1.0,2628.16483899951,3.0,2.0,phase_3,,,,,580.0,5.0,580.0,116.0,696.0,348.0,464.0,232.0,magenta,flipped triangle
0.0,5.0,1.0,1.0,7.0,3.0,2599.5555230183527,3.0,1.0,phase_3,,,,,692.0,4.0,865.0,519.0,692.0,173.0,1038.0,346.0,blue,diamond
0.0,1.0,1.0,0.0,7.0,2.0,1829.747950017918,3.0,1.0,phase_3,,,,,675.0,5.0,810.0,675.0,135.0,540.0,270.0,405.0,cyan,hexagon
0.0,4.0,4.0,0.0,7.0,5.0,1955.6040620082056,3.0,1.0,phase_3,,,,,675.0,5.0,135.0,405.0,810.0,540.0,675.0,270.0,orange,cross
0.0,5.0,1.0,1.0,7.0,6.0,2354.9523119581863,3.0,1.0,phase_3,,,,,580.0,5.0,348.0,464.0,116.0,232.0,696.0,580.0,blue,diamond
0.0,6.0,2.0,1.0,7.0,3.0,2448.557266034186,3.0,1.0,phase_3,,,,,692.0,4.0,519.0,346.0,692.0,173.0,1038.0,865.0,yellow,triangle
0.0,7.0,3.0,1.0,7.0,5.0,1935.73521298822,3.0,1.0,phase_3,,,,,348.0,3.0,580.0,464.0,116.0,696.0,348.0,232.0,white,I
0.0,3.0,3.0,0.0,7.0,2.0,1406.6445089993067,3.0,1.0,phase_3,,,,,405.0,3.0,810.0,405.0,540.0,675.0,270.0,135.0,gray,square
0.0,1.0,1.0,0.0,7.0,1.0,2079.8072170000523,3.0,1.0,phase_3,,,,,770.0,5.0,770.0,924.0,154.0,616.0,462.0,308.0,cyan,hexagon
0.0,7.0,3.0,1.0,7.0,6.0,1918.1090019992555,3.0,1.0,phase_3,,,,,865.0,5.0,173.0,346.0,1038.0,692.0,519.0,865.0,white,I
0.0,7.0,3.0,1.0,7.0,6.0,2463.8360190438107,3.0,1.0,phase_3,,,,,576.0,3.0,768.0,384.0,960.0,192.0,1152.0,576.0,white,I
0.0,2.0,2.0,0.0,7.0,6.0,1788.4163839626126,3.0,1.0,phase_3,,,,,192.0,1.0,960.0,384.0,1152.0,768.0,576.0,192.0,green,circle
0.0,4.0,4.0,0.0,7.0,4.0,2043.9644110156223,4.0,1.0,phase_3,,,,,576.0,3.0,768.0,1152.0,192.0,576.0,960.0,384.0,orange,cross
0.0,4.0,4.0,0.0,7.0,5.0,1129.1067929705605,4.0,1.0,phase_3,,,,,519.0,3.0,692.0,346.0,865.0,1038.0,519.0,173.0,orange,cross
0.0,7.0,3.0,1.0,7.0,3.0,2086.1117020249367,4.0,1.0,phase_3,,,,,770.0,5.0,616.0,462.0,770.0,154.0,924.0,308.0,white,I
0.0,3.0,3.0,0.0,7.0,5.0,2137.9813199746422,4.0,1.0,phase_3,,,,,616.0,4.0,308.0,770.0,154.0,924.0,616.0,462.0,gray,square
0.0,6.0,2.0,1.0,7.0,6.0,675.9162830421701,4.0,1.0,phase_3,,,,,576.0,3.0,768.0,1152.0,960.0,192.0,384.0,576.0,yellow,triangle
0.0,4.0,4.0,0.0,7.0,3.0,1808.7391550070608,4.0,1.0,phase_3,,,,,308.0,2.0,770.0,154.0,308.0,924.0,616.0,462.0,orange,cross
0.0,5.0,1.0,1.0,7.0,6.0,1102.0971430116333,4.0,1.0,phase_3,,,,,675.0,5.0,405.0,270.0,135.0,540.0,810.0,675.0,blue,diamond
0.0,3.0,3.0,0.0,7.0,5.0,1565.3283019782975,4.0,1.0,phase_3,,,,,924.0,6.0,770.0,308.0,154.0,462.0,924.0,616.0,gray,square
0.0,2.0,2.0,0.0,7.0,5.0,1826.556822983548,4.0,1.0,phase_3,,,,,462.0,3.0,154.0,770.0,616.0,924.0,462.0,308.0,green,circle
0.0,1.0,1.0,0.0,7.0,3.0,1530.331268964801,4.0,1.0,phase_3,,,,,464.0,4.0,232.0,348.0,464.0,696.0,580.0,116.0,cyan,hexagon
0.0,5.0,1.0,1.0,7.0,2.0,1443.5715249856005,4.0,1.0,phase_3,,,,,580.0,5.0,116.0,580.0,464.0,348.0,232.0,696.0,blue,diamond
0.0,5.0,1.0,1.0,7.0,3.0,2065.5728149577044,4.0,1.0,phase_3,,,,,540.0,4.0,810.0,675.0,540.0,270.0,405.0,135.0,blue,diamond
0.0,6.0,2.0,1.0,7.0,4.0,2111.876252980437,4.0,1.0,phase_3,,,,,616.0,4.0,462.0,770.0,154.0,616.0,308.0,924.0,yellow,triangle
0.0,6.0,2.0,1.0,7.0,3.0,1853.279061964713,4.0,1.0,phase_3,,,,,675.0,5.0,810.0,135.0,675.0,540.0,270.0,405.0,yellow,triangle
0.0,8.0,4.0,1.0,7.0,3.0,1406.735083030071,4.0,1.0,phase_3,,,,,405.0,3.0,270.0,675.0,405.0,540.0,810.0,135.0,magenta,flipped triangle
0.0,3.0,3.0,0.0,7.0,6.0,1647.984348994214,4.0,1.0,phase_3,,,,,192.0,1.0,384.0,1152.0,576.0,768.0,960.0,192.0,gray,square
0.0,3.0,3.0,0.0,7.0,1.0,2241.544575022999,4.0,1.0,phase_3,,,,,232.0,2.0,232.0,116.0,580.0,696.0,348.0,464.0,gray,square
0.0,4.0,4.0,0.0,7.0,6.0,841.8111270293593,4.0,1.0,phase_3,,,,,384.0,2.0,1152.0,576.0,768.0,192.0,960.0,384.0,orange,cross
0.0,6.0,2.0,1.0,7.0,1.0,1883.1554730422797,4.0,1.0,phase_3,,,,,696.0,6.0,696.0,348.0,580.0,464.0,232.0,116.0,yellow,triangle
0.0,5.0,1.0,1.0,7.0,6.0,2411.9635660317726,4.0,1.0,phase_3,,,,,770.0,5.0,924.0,462.0,616.0,154.0,308.0,770.0,blue,diamond
