raw_reward_magnitude,stim_reward,stepwise_reward_magnitude,paired_with_stopping,stim_location,response,reaction_time,block,num_trial_presentations,which_phase,stop_signal_trial_type,left_SSD,right_SSD,accuracy,chosen_bidding_amount,chosen_bidding_level,possible_bid_1,possible_bid_2,possible_bid_3,possible_bid_4,possible_bid_5,possible_bid_6,color_text,shape_text
0.0,2.0,0.0,0.0,4.0,4.0,461.2832849999222,1.0,1.0,phase_1,,,,,,,,,,,,,cyan,circle
336.0,2.0,1.0,0.0,3.0,3.0,471.2005579999641,1.0,1.0,phase_1,,,,,,,,,,,,,cyan,circle
656.0,3.0,2.0,0.0,2.0,2.0,581.8535419999762,1.0,1.0,phase_1,,,,,,,,,,,,,yellow,I
320.0,6.0,1.0,1.0,1.0,1.0,424.333383999965,1.0,1.0,phase_1,,,,,,,,,,,,,orange,hexagon
1308.0,4.0,4.0,0.0,1.0,1.0,388.880087000075,1.0,1.0,phase_1,,,,,,,,,,,,,magenta,triangle
0.0,1.0,0.0,0.0,3.0,3.0,444.0959270000348,1.0,1.0,phase_1,,,,,,,,,,,,,white,flipped triangle
311.0,6.0,1.0,1.0,2.0,2.0,369.8977819999527,1.0,1.0,phase_1,,,,,,,,,,,,,orange,hexagon
348.0,6.0,1.0,1.0,4.0,4.0,388.7862399999449,1.0,2.0,phase_1,,,,,,,,,,,,,orange,hexagon
656.0,7.0,2.0,1.0,2.0,2.0,361.3606380000647,1.0,1.0,phase_1,,,,,,,,,,,,,green,square
336.0,2.0,1.0,0.0,4.0,4.0,379.43149299997,1.0,1.0,phase_1,,,,,,,,,,,,,cyan,circle
1284.0,8.0,4.0,1.0,2.0,2.0,436.2018670000225,1.0,1.0,phase_1,,,,,,,,,,,,,gray,cross
643.0,3.0,2.0,0.0,1.0,1.0,396.4928650000274,1.0,1.0,phase_1,,,,,,,,,,,,,yellow,I
1295.0,4.0,4.0,0.0,1.0,1.0,444.5082160000311,1.0,1.0,phase_1,,,,,,,,,,,,,magenta,triangle
1276.0,8.0,4.0,1.0,1.0,1.0,415.6906020000406,1.0,1.0,phase_1,,,,,,,,,,,,,gray,cross
345.0,2.0,1.0,0.0,1.0,1.0,435.9397470000203,1.0,1.0,phase_1,,,,,,,,,,,,,cyan,circle
1308.0,4.0,4.0,0.0,4.0,4.0,407.6636910000388,1.0,1.0,phase_1,,,,,,,,,,,,,magenta,triangle
0.0,7.0,0.0,1.0,3.0,3.0,408.163611999953,1.0,1.0,phase_1,,,,,,,,,,,,,green,square
628.0,3.0,2.0,0.0,3.0,3.0,499.5799959999658,1.0,1.0,phase_1,,,,,,,,,,,,,yellow,I
307.0,6.0,1.0,1.0,2.0,2.0,500.57885700005045,1.0,1.0,phase_1,,,,,,,,,,,,,orange,hexagon
1282.0,4.0,4.0,0.0,2.0,2.0,463.1518549999782,1.0,1.0,phase_1,,,,,,,,,,,,,magenta,triangle
654.0,7.0,2.0,1.0,3.0,3.0,445.2880730000288,1.0,1.0,phase_1,,,,,,,,,,,,,green,square
152.0,1.0,0.5,0.0,1.0,1.0,351.1357060000364,1.0,1.0,phase_1,,,,,,,,,,,,,white,flipped triangle
660.0,7.0,2.0,1.0,4.0,4.0,380.8725760000016,1.0,1.0,phase_1,,,,,,,,,,,,,green,square
1293.0,4.0,4.0,0.0,3.0,3.0,416.4659640000536,1.0,1.0,phase_1,,,,,,,,,,,,,magenta,triangle
152.0,5.0,0.5,1.0,3.0,3.0,364.1250780000291,1.0,1.0,phase_1,,,,,,,,,,,,,blue,diamond
184.0,1.0,0.5,0.0,4.0,4.0,378.6430039999686,1.0,1.0,phase_1,,,,,,,,,,,,,white,flipped triangle
1304.0,4.0,4.0,0.0,4.0,4.0,389.6423769999728,1.0,1.0,phase_1,,,,,,,,,,,,,magenta,triangle
141.0,1.0,0.5,0.0,2.0,2.0,499.8803619999989,1.0,1.0,phase_1,,,,,,,,,,,,,white,flipped triangle
349.0,6.0,1.0,1.0,3.0,3.0,409.2172089999621,1.0,1.0,phase_1,,,,,,,,,,,,,orange,hexagon
629.0,7.0,2.0,1.0,4.0,4.0,361.340782999946,1.0,1.0,phase_1,,,,,,,,,,,,,green,square
344.0,6.0,1.0,1.0,3.0,3.0,362.3433469999781,1.0,1.0,phase_1,,,,,,,,,,,,,orange,hexagon
326.0,2.0,1.0,0.0,2.0,2.0,510.6807340000614,1.0,1.0,phase_1,,,,,,,,,,,,,cyan,circle
669.0,3.0,2.0,0.0,4.0,4.0,380.7192259999965,1.0,1.0,phase_1,,,,,,,,,,,,,yellow,I
304.0,6.0,1.0,1.0,4.0,4.0,382.031563000055,1.0,1.0,phase_1,,,,,,,,,,,,,orange,hexagon
1304.0,8.0,4.0,1.0,4.0,4.0,389.8381640000252,1.0,1.0,phase_1,,,,,,,,,,,,,gray,cross
317.0,2.0,1.0,0.0,2.0,2.0,444.7708960000227,1.0,1.0,phase_1,,,,,,,,,,,,,cyan,circle
1300.0,8.0,4.0,1.0,4.0,4.0,397.8143770000315,1.0,1.0,phase_1,,,,,,,,,,,,,gray,cross
0.0,5.0,0.0,1.0,4.0,4.0,387.5593110000181,1.0,1.0,phase_1,,,,,,,,,,,,,blue,diamond
174.0,1.0,0.5,0.0,4.0,4.0,389.7597820000555,1.0,1.0,phase_1,,,,,,,,,,,,,white,flipped triangle
0.0,8.0,0.0,1.0,4.0,4.0,434.0281510000068,1.0,1.0,phase_1,,,,,,,,,,,,,gray,cross
1299.0,8.0,4.0,1.0,4.0,4.0,340.9890899999936,1.0,1.0,phase_1,,,,,,,,,,,,,gray,cross
157.0,1.0,0.5,0.0,3.0,3.0,368.5811180000655,1.0,1.0,phase_1,,,,,,,,,,,,,white,flipped triangle
0.0,8.0,0.0,1.0,4.0,4.0,480.4807469998877,1.0,1.0,phase_1,,,,,,,,,,,,,gray,cross
0.0,4.0,0.0,0.0,4.0,4.0,360.9358360000669,1.0,1.0,phase_1,,,,,,,,,,,,,magenta,triangle
329.0,6.0,1.0,1.0,1.0,1.0,480.7032539999909,1.0,1.0,phase_1,,,,,,,,,,,,,orange,hexagon
0.0,8.0,0.0,1.0,2.0,2.0,601.6888369999833,1.0,1.0,phase_1,,,,,,,,,,,,,gray,cross
320.0,6.0,1.0,1.0,4.0,4.0,342.2131639999861,1.0,1.0,phase_1,,,,,,,,,,,,,orange,hexagon
330.0,6.0,1.0,1.0,2.0,2.0,498.9638380000087,1.0,1.0,phase_1,,,,,,,,,,,,,orange,hexagon
637.0,7.0,2.0,1.0,2.0,2.0,645.5183980000356,1.0,1.0,phase_1,,,,,,,,,,,,,green,square
646.0,7.0,2.0,1.0,1.0,1.0,379.55768300003,1.0,1.0,phase_1,,,,,,,,,,,,,green,square
339.0,2.0,1.0,0.0,2.0,2.0,351.7427140000109,1.0,1.0,phase_1,,,,,,,,,,,,,cyan,circle
636.0,7.0,2.0,1.0,1.0,1.0,333.3642829999235,1.0,1.0,phase_1,,,,,,,,,,,,,green,square
0.0,3.0,0.0,0.0,1.0,1.0,388.751845999991,1.0,1.0,phase_1,,,,,,,,,,,,,yellow,I
1321.0,8.0,4.0,1.0,3.0,3.0,379.2146130000446,1.0,1.0,phase_1,,,,,,,,,,,,,gray,cross
1286.0,8.0,4.0,1.0,4.0,4.0,351.3450570000032,1.0,1.0,phase_1,,,,,,,,,,,,,gray,cross
1307.0,4.0,4.0,0.0,2.0,2.0,407.7905170000804,1.0,1.0,phase_1,,,,,,,,,,,,,magenta,triangle
644.0,7.0,2.0,1.0,3.0,3.0,406.7454919999136,1.0,1.0,phase_1,,,,,,,,,,,,,green,square
308.0,2.0,1.0,0.0,4.0,4.0,398.3907320000526,1.0,1.0,phase_1,,,,,,,,,,,,,cyan,circle
643.0,7.0,2.0,1.0,4.0,4.0,370.7452940000166,1.0,1.0,phase_1,,,,,,,,,,,,,green,square
629.0,3.0,2.0,0.0,4.0,4.0,463.8260110000374,1.0,1.0,phase_1,,,,,,,,,,,,,yellow,I
138.0,5.0,0.5,1.0,3.0,3.0,527.3148539999966,1.0,1.0,phase_1,,,,,,,,,,,,,blue,diamond
0.0,5.0,0.0,1.0,2.0,2.0,568.5704969999961,1.0,1.0,phase_1,,,,,,,,,,,,,blue,diamond
0.0,8.0,0.0,1.0,3.0,3.0,463.5530409999546,1.0,1.0,phase_1,,,,,,,,,,,,,gray,cross
0.0,3.0,0.0,0.0,3.0,3.0,508.83133199999975,1.0,1.0,phase_1,,,,,,,,,,,,,yellow,I
652.0,7.0,2.0,1.0,4.0,4.0,303.9561059999869,1.0,1.0,phase_1,,,,,,,,,,,,,green,square
161.0,1.0,0.5,0.0,3.0,3.0,380.3703519999999,1.0,1.0,phase_1,,,,,,,,,,,,,white,flipped triangle
0.0,4.0,0.0,0.0,4.0,4.0,331.9451259999368,1.0,1.0,phase_1,,,,,,,,,,,,,magenta,triangle
0.0,8.0,0.0,1.0,2.0,2.0,444.4289030000163,1.0,1.0,phase_1,,,,,,,,,,,,,gray,cross
147.0,1.0,0.5,0.0,1.0,1.0,618.5570889999781,1.0,1.0,phase_1,,,,,,,,,,,,,white,flipped triangle
144.0,5.0,0.5,1.0,2.0,2.0,435.4026799999246,1.0,1.0,phase_1,,,,,,,,,,,,,blue,diamond
158.0,1.0,0.5,0.0,3.0,3.0,397.7064560000372,1.0,1.0,phase_1,,,,,,,,,,,,,white,flipped triangle
178.0,1.0,0.5,0.0,4.0,4.0,341.7802749999055,1.0,1.0,phase_1,,,,,,,,,,,,,white,flipped triangle
659.0,7.0,2.0,1.0,2.0,2.0,454.13354599998,1.0,1.0,phase_1,,,,,,,,,,,,,green,square
1281.0,4.0,4.0,0.0,1.0,1.0,398.2755509999833,1.0,1.0,phase_1,,,,,,,,,,,,,magenta,triangle
185.0,5.0,0.5,1.0,2.0,2.0,517.0293579999452,1.0,1.0,phase_1,,,,,,,,,,,,,blue,diamond
651.0,7.0,2.0,1.0,3.0,3.0,454.6875390001332,1.0,1.0,phase_1,,,,,,,,,,,,,green,square
313.0,2.0,1.0,0.0,4.0,4.0,398.8249030001043,1.0,1.0,phase_1,,,,,,,,,,,,,cyan,circle
635.0,3.0,2.0,0.0,4.0,4.0,462.389506999898,1.0,1.0,phase_1,,,,,,,,,,,,,yellow,I
628.0,7.0,2.0,1.0,3.0,3.0,416.2665559999823,1.0,1.0,phase_1,,,,,,,,,,,,,green,square
662.0,3.0,2.0,0.0,1.0,1.0,572.9915949998485,1.0,1.0,phase_1,,,,,,,,,,,,,yellow,I
315.0,2.0,1.0,0.0,4.0,4.0,416.203792000033,1.0,1.0,phase_1,,,,,,,,,,,,,cyan,circle
1321.0,8.0,4.0,1.0,4.0,4.0,362.2169110001323,1.0,1.0,phase_1,,,,,,,,,,,,,gray,cross
0.0,5.0,0.0,1.0,3.0,3.0,389.9574770000527,1.0,1.0,phase_1,,,,,,,,,,,,,blue,diamond
662.0,7.0,2.0,1.0,1.0,1.0,397.4381790001189,1.0,1.0,phase_1,,,,,,,,,,,,,green,square
0.0,1.0,0.0,0.0,1.0,1.0,489.9860929999704,1.0,1.0,phase_1,,,,,,,,,,,,,white,flipped triangle
633.0,3.0,2.0,0.0,2.0,2.0,454.1418799999519,1.0,1.0,phase_1,,,,,,,,,,,,,yellow,I
671.0,7.0,2.0,1.0,4.0,4.0,323.8455630000771,1.0,1.0,phase_1,,,,,,,,,,,,,green,square
646.0,7.0,2.0,1.0,2.0,2.0,443.8051530000848,1.0,1.0,phase_1,,,,,,,,,,,,,green,square
0.0,6.0,0.0,1.0,1.0,1.0,389.0287039998839,1.0,1.0,phase_1,,,,,,,,,,,,,orange,hexagon
1304.0,4.0,4.0,0.0,3.0,3.0,419.906580000088,1.0,1.0,phase_1,,,,,,,,,,,,,magenta,triangle
629.0,3.0,2.0,0.0,2.0,2.0,472.755860999996,1.0,1.0,phase_1,,,,,,,,,,,,,yellow,I
0.0,1.0,0.0,0.0,2.0,2.0,426.0773590001463,1.0,2.0,phase_1,,,,,,,,,,,,,white,flipped triangle
338.0,6.0,1.0,1.0,4.0,4.0,425.4988550001144,1.0,1.0,phase_1,,,,,,,,,,,,,orange,hexagon
320.0,2.0,1.0,0.0,3.0,3.0,509.6659619998718,1.0,1.0,phase_1,,,,,,,,,,,,,cyan,circle
0.0,3.0,0.0,0.0,4.0,4.0,407.8598700000384,1.0,1.0,phase_1,,,,,,,,,,,,,yellow,I
0.0,6.0,0.0,1.0,1.0,1.0,417.6206329998422,1.0,1.0,phase_1,,,,,,,,,,,,,orange,hexagon
1295.0,8.0,4.0,1.0,1.0,1.0,612.1437919998698,1.0,1.0,phase_1,,,,,,,,,,,,,gray,cross
659.0,3.0,2.0,0.0,1.0,1.0,453.3764249999876,1.0,1.0,phase_1,,,,,,,,,,,,,yellow,I
1287.0,8.0,4.0,1.0,2.0,2.0,528.7282809999851,1.0,1.0,phase_1,,,,,,,,,,,,,gray,cross
642.0,7.0,2.0,1.0,2.0,2.0,508.6148939999475,1.0,1.0,phase_1,,,,,,,,,,,,,green,square
181.0,1.0,0.5,0.0,3.0,3.0,480.4502859999502,2.0,1.0,phase_1,,,,,,,,,,,,,white,flipped triangle
0.0,1.0,0.0,0.0,1.0,1.0,471.4230310000857,2.0,1.0,phase_1,,,,,,,,,,,,,white,flipped triangle
643.0,3.0,2.0,0.0,4.0,4.0,352.7478519999931,2.0,1.0,phase_1,,,,,,,,,,,,,yellow,I
0.0,5.0,0.0,1.0,4.0,4.0,370.0988339999185,2.0,1.0,phase_1,,,,,,,,,,,,,blue,diamond
1285.0,4.0,4.0,0.0,4.0,4.0,351.2570610000693,2.0,1.0,phase_1,,,,,,,,,,,,,magenta,triangle
349.0,2.0,1.0,0.0,3.0,3.0,398.35780899989,2.0,1.0,phase_1,,,,,,,,,,,,,cyan,circle
1298.0,4.0,4.0,0.0,3.0,3.0,343.0495140000857,2.0,1.0,phase_1,,,,,,,,,,,,,magenta,triangle
1276.0,4.0,4.0,0.0,1.0,1.0,382.8950930001156,2.0,1.0,phase_1,,,,,,,,,,,,,magenta,triangle
164.0,1.0,0.5,0.0,3.0,3.0,370.2876280001419,2.0,1.0,phase_1,,,,,,,,,,,,,white,flipped triangle
0.0,7.0,0.0,1.0,4.0,4.0,324.7122569998737,2.0,1.0,phase_1,,,,,,,,,,,,,green,square
312.0,6.0,1.0,1.0,3.0,3.0,316.3739320000331,2.0,1.0,phase_1,,,,,,,,,,,,,orange,hexagon
158.0,5.0,0.5,1.0,4.0,4.0,397.7078400000664,2.0,1.0,phase_1,,,,,,,,,,,,,blue,diamond
159.0,1.0,0.5,0.0,4.0,4.0,360.6782700001076,2.0,1.0,phase_1,,,,,,,,,,,,,white,flipped triangle
315.0,6.0,1.0,1.0,4.0,4.0,342.5017309998566,2.0,1.0,phase_1,,,,,,,,,,,,,orange,hexagon
0.0,2.0,0.0,0.0,1.0,1.0,444.2940740000267,2.0,1.0,phase_1,,,,,,,,,,,,,cyan,circle
652.0,3.0,2.0,0.0,2.0,2.0,461.5259629999855,2.0,2.0,phase_1,,,,,,,,,,,,,yellow,I
167.0,1.0,0.5,0.0,2.0,2.0,407.3001389999717,2.0,1.0,phase_1,,,,,,,,,,,,,white,flipped triangle
633.0,3.0,2.0,0.0,1.0,1.0,508.00869099998636,2.0,1.0,phase_1,,,,,,,,,,,,,yellow,I
144.0,1.0,0.5,0.0,2.0,2.0,443.6455150000711,2.0,1.0,phase_1,,,,,,,,,,,,,white,flipped triangle
0.0,7.0,0.0,1.0,1.0,1.0,517.568719999872,2.0,1.0,phase_1,,,,,,,,,,,,,green,square
344.0,6.0,1.0,1.0,3.0,3.0,425.3309299999728,2.0,1.0,phase_1,,,,,,,,,,,,,orange,hexagon
0.0,4.0,0.0,0.0,3.0,3.0,444.5875330000035,2.0,1.0,phase_1,,,,,,,,,,,,,magenta,triangle
336.0,6.0,1.0,1.0,1.0,1.0,454.0231020000647,2.0,1.0,phase_1,,,,,,,,,,,,,orange,hexagon
646.0,7.0,2.0,1.0,4.0,4.0,416.4401550001457,2.0,1.0,phase_1,,,,,,,,,,,,,green,square
1300.0,4.0,4.0,0.0,4.0,4.0,407.6304570000957,2.0,1.0,phase_1,,,,,,,,,,,,,magenta,triangle
156.0,1.0,0.5,0.0,1.0,1.0,460.9339660000842,2.0,1.0,phase_1,,,,,,,,,,,,,white,flipped triangle
1316.0,4.0,4.0,0.0,1.0,1.0,536.5002610001284,2.0,1.0,phase_1,,,,,,,,,,,,,magenta,triangle
1323.0,8.0,4.0,1.0,1.0,1.0,434.7359210000832,2.0,1.0,phase_1,,,,,,,,,,,,,gray,cross
640.0,7.0,2.0,1.0,3.0,3.0,453.1105359999401,2.0,1.0,phase_1,,,,,,,,,,,,,green,square
167.0,1.0,0.5,0.0,1.0,1.0,406.0196010000254,2.0,1.0,phase_1,,,,,,,,,,,,,white,flipped triangle
1325.0,8.0,4.0,1.0,3.0,3.0,351.5522300001521,2.0,1.0,phase_1,,,,,,,,,,,,,gray,cross
629.0,7.0,2.0,1.0,2.0,2.0,481.0394480000468,2.0,1.0,phase_1,,,,,,,,,,,,,green,square
0.0,3.0,0.0,0.0,2.0,2.0,425.5612810000002,2.0,1.0,phase_1,,,,,,,,,,,,,yellow,I
636.0,3.0,2.0,0.0,2.0,2.0,443.20616899995,2.0,1.0,phase_1,,,,,,,,,,,,,yellow,I
1314.0,4.0,4.0,0.0,2.0,2.0,452.5879649997932,2.0,1.0,phase_1,,,,,,,,,,,,,magenta,triangle
0.0,2.0,0.0,0.0,1.0,1.0,407.5874180000483,2.0,1.0,phase_1,,,,,,,,,,,,,cyan,circle
154.0,5.0,0.5,1.0,1.0,1.0,425.0257749999946,2.0,1.0,phase_1,,,,,,,,,,,,,blue,diamond
1315.0,8.0,4.0,1.0,3.0,3.0,490.2944970001499,2.0,1.0,phase_1,,,,,,,,,,,,,gray,cross
308.0,6.0,1.0,1.0,4.0,4.0,544.915519000142,2.0,1.0,phase_1,,,,,,,,,,,,,orange,hexagon
1315.0,4.0,4.0,0.0,4.0,4.0,398.07969499997847,2.0,1.0,phase_1,,,,,,,,,,,,,magenta,triangle
328.0,2.0,1.0,0.0,3.0,3.0,406.5587229999892,2.0,1.0,phase_1,,,,,,,,,,,,,cyan,circle
174.0,5.0,0.5,1.0,3.0,3.0,405.9948550000172,2.0,1.0,phase_1,,,,,,,,,,,,,blue,diamond
655.0,7.0,2.0,1.0,1.0,1.0,434.4468190001862,2.0,1.0,phase_1,,,,,,,,,,,,,green,square
1293.0,8.0,4.0,1.0,4.0,4.0,434.5034789998863,2.0,1.0,phase_1,,,,,,,,,,,,,gray,cross
0.0,4.0,0.0,0.0,4.0,4.0,406.828312000016,2.0,1.0,phase_1,,,,,,,,,,,,,magenta,triangle
1300.0,4.0,4.0,0.0,4.0,4.0,359.3529920001401,2.0,1.0,phase_1,,,,,,,,,,,,,magenta,triangle
665.0,3.0,2.0,0.0,4.0,4.0,370.2288460001455,2.0,1.0,phase_1,,,,,,,,,,,,,yellow,I
333.0,2.0,1.0,0.0,3.0,3.0,397.2585080000499,2.0,1.0,phase_1,,,,,,,,,,,,,cyan,circle
183.0,5.0,0.5,1.0,4.0,4.0,341.5478919998804,2.0,1.0,phase_1,,,,,,,,,,,,,blue,diamond
162.0,1.0,0.5,0.0,4.0,4.0,351.315791999923,2.0,1.0,phase_1,,,,,,,,,,,,,white,flipped triangle
1304.0,8.0,4.0,1.0,3.0,3.0,461.9052119999196,2.0,1.0,phase_1,,,,,,,,,,,,,gray,cross
179.0,5.0,0.5,1.0,4.0,4.0,332.8985560001456,2.0,1.0,phase_1,,,,,,,,,,,,,blue,diamond
654.0,3.0,2.0,0.0,1.0,1.0,553.7261740000758,2.0,1.0,phase_1,,,,,,,,,,,,,yellow,I
343.0,2.0,1.0,0.0,2.0,2.0,599.9278540000432,2.0,1.0,phase_1,,,,,,,,,,,,,cyan,circle
323.0,2.0,1.0,0.0,4.0,4.0,554.9547159998838,2.0,1.0,phase_1,,,,,,,,,,,,,cyan,circle
338.0,6.0,1.0,1.0,2.0,2.0,414.5634960000279,2.0,2.0,phase_1,,,,,,,,,,,,,orange,hexagon
637.0,3.0,2.0,0.0,3.0,3.0,817.9201069999635,2.0,2.0,phase_1,,,,,,,,,,,,,yellow,I
345.0,6.0,1.0,1.0,3.0,3.0,536.8984079998427,2.0,1.0,phase_1,,,,,,,,,,,,,orange,hexagon
0.0,8.0,0.0,1.0,2.0,2.0,601.0556500000348,2.0,1.0,phase_1,,,,,,,,,,,,,gray,cross
311.0,2.0,1.0,0.0,1.0,1.0,498.2590330000676,2.0,1.0,phase_1,,,,,,,,,,,,,cyan,circle
184.0,1.0,0.5,0.0,2.0,2.0,747.5754249999227,2.0,1.0,phase_1,,,,,,,,,,,,,white,flipped triangle
311.0,2.0,1.0,0.0,2.0,2.0,441.9307250000202,2.0,1.0,phase_1,,,,,,,,,,,,,cyan,circle
672.0,3.0,2.0,0.0,3.0,3.0,500.5665390001468,2.0,1.0,phase_1,,,,,,,,,,,,,yellow,I
155.0,1.0,0.5,0.0,3.0,3.0,443.3153679999577,2.0,1.0,phase_1,,,,,,,,,,,,,white,flipped triangle
1279.0,4.0,4.0,0.0,3.0,3.0,426.4003169998887,2.0,1.0,phase_1,,,,,,,,,,,,,magenta,triangle
1300.0,8.0,4.0,1.0,2.0,2.0,517.2118230000251,2.0,1.0,phase_1,,,,,,,,,,,,,gray,cross
0.0,8.0,0.0,1.0,1.0,1.0,362.6905109999825,2.0,1.0,phase_1,,,,,,,,,,,,,gray,cross
0.0,7.0,0.0,1.0,1.0,1.0,488.7488320000557,2.0,1.0,phase_1,,,,,,,,,,,,,green,square
651.0,3.0,2.0,0.0,3.0,3.0,414.8152010000103,2.0,1.0,phase_1,,,,,,,,,,,,,yellow,I
0.0,3.0,0.0,0.0,1.0,1.0,351.5117009999358,2.0,1.0,phase_1,,,,,,,,,,,,,yellow,I
1304.0,8.0,4.0,1.0,1.0,1.0,434.7616630000175,2.0,1.0,phase_1,,,,,,,,,,,,,gray,cross
0.0,1.0,0.0,0.0,4.0,4.0,536.1398730001383,2.0,1.0,phase_1,,,,,,,,,,,,,white,flipped triangle
646.0,3.0,2.0,0.0,3.0,3.0,527.35871699997,2.0,1.0,phase_1,,,,,,,,,,,,,yellow,I
147.0,5.0,0.5,1.0,2.0,2.0,618.9506630000778,2.0,1.0,phase_1,,,,,,,,,,,,,blue,diamond
1322.0,4.0,4.0,0.0,1.0,1.0,646.713777000059,2.0,1.0,phase_1,,,,,,,,,,,,,magenta,triangle
664.0,3.0,2.0,0.0,2.0,2.0,498.3325630000763,2.0,1.0,phase_1,,,,,,,,,,,,,yellow,I
671.0,3.0,2.0,0.0,2.0,2.0,461.8032030000449,2.0,1.0,phase_1,,,,,,,,,,,,,yellow,I
1312.0,8.0,4.0,1.0,1.0,1.0,535.5938109998988,2.0,1.0,phase_1,,,,,,,,,,,,,gray,cross
672.0,3.0,2.0,0.0,2.0,2.0,433.4970340000836,2.0,1.0,phase_1,,,,,,,,,,,,,yellow,I
167.0,5.0,0.5,1.0,1.0,1.0,333.0763790002038,2.0,1.0,phase_1,,,,,,,,,,,,,blue,diamond
0.0,3.0,0.0,0.0,2.0,2.0,415.6877400000667,2.0,1.0,phase_1,,,,,,,,,,,,,yellow,I
329.0,6.0,1.0,1.0,3.0,3.0,434.5405009999012,2.0,1.0,phase_1,,,,,,,,,,,,,orange,hexagon
313.0,2.0,1.0,0.0,1.0,1.0,427.9724099999384,2.0,1.0,phase_1,,,,,,,,,,,,,cyan,circle
0.0,6.0,0.0,1.0,3.0,3.0,461.0821279998163,2.0,1.0,phase_1,,,,,,,,,,,,,orange,hexagon
151.0,1.0,0.5,0.0,1.0,1.0,535.1880749999509,2.0,1.0,phase_1,,,,,,,,,,,,,white,flipped triangle
633.0,7.0,2.0,1.0,3.0,3.0,406.5508749999935,2.0,1.0,phase_1,,,,,,,,,,,,,green,square
0.0,3.0,0.0,0.0,3.0,3.0,434.880018000058,2.0,1.0,phase_1,,,,,,,,,,,,,yellow,I
0.0,5.0,0.0,1.0,1.0,1.0,498.8221769999654,2.0,1.0,phase_1,,,,,,,,,,,,,blue,diamond
0.0,4.0,0.0,0.0,3.0,3.0,416.7910400001346,2.0,1.0,phase_1,,,,,,,,,,,,,magenta,triangle
174.0,1.0,0.5,0.0,1.0,1.0,417.2329089999493,2.0,1.0,phase_1,,,,,,,,,,,,,white,flipped triangle
0.0,8.0,0.0,1.0,3.0,3.0,461.5656710000166,2.0,1.0,phase_1,,,,,,,,,,,,,gray,cross
1304.0,4.0,4.0,0.0,3.0,3.0,480.3615800001353,2.0,1.0,phase_1,,,,,,,,,,,,,magenta,triangle
1314.0,8.0,4.0,1.0,1.0,1.0,572.2010639999553,2.0,1.0,phase_1,,,,,,,,,,,,,gray,cross
632.0,7.0,2.0,1.0,4.0,4.0,379.9738790000901,2.0,1.0,phase_1,,,,,,,,,,,,,green,square
166.0,5.0,0.5,1.0,3.0,3.0,426.9600300001457,2.0,1.0,phase_1,,,,,,,,,,,,,blue,diamond
635.0,7.0,2.0,1.0,3.0,3.0,370.7012469999426,2.0,1.0,phase_1,,,,,,,,,,,,,green,square
0.0,4.0,0.0,0.0,2.0,2.0,435.1384599999619,2.0,1.0,phase_1,,,,,,,,,,,,,magenta,triangle
157.0,5.0,0.5,1.0,2.0,2.0,490.4068750001897,2.0,1.0,phase_1,,,,,,,,,,,,,blue,diamond
181.0,1.0,0.5,0.0,1.0,1.0,481.317633999879,2.0,1.0,phase_1,,,,,,,,,,,,,white,flipped triangle
1299.0,4.0,4.0,0.0,2.0,2.0,436.0773949999839,2.0,1.0,phase_1,,,,,,,,,,,,,magenta,triangle
164.0,5.0,0.5,1.0,3.0,3.0,490.4794610001772,3.0,1.0,phase_1,,,,,,,,,,,,,blue,diamond
311.0,6.0,1.0,1.0,1.0,1.0,527.7941970000484,3.0,2.0,phase_1,,,,,,,,,,,,,orange,hexagon
313.0,6.0,1.0,1.0,3.0,3.0,389.1601069999524,3.0,1.0,phase_1,,,,,,,,,,,,,orange,hexagon
1315.0,8.0,4.0,1.0,1.0,1.0,416.9416509998882,3.0,1.0,phase_1,,,,,,,,,,,,,gray,cross
147.0,5.0,0.5,1.0,1.0,1.0,408.1124630001795,3.0,1.0,phase_1,,,,,,,,,,,,,blue,diamond
147.0,1.0,0.5,0.0,3.0,3.0,426.7449169999509,3.0,1.0,phase_1,,,,,,,,,,,,,white,flipped triangle
329.0,2.0,1.0,0.0,1.0,1.0,398.1040589999338,3.0,1.0,phase_1,,,,,,,,,,,,,cyan,circle
151.0,5.0,0.5,1.0,4.0,4.0,379.2890570000509,3.0,1.0,phase_1,,,,,,,,,,,,,blue,diamond
644.0,3.0,2.0,0.0,4.0,4.0,389.8876200000813,3.0,1.0,phase_1,,,,,,,,,,,,,yellow,I
348.0,2.0,1.0,0.0,1.0,1.0,389.5245409999006,3.0,1.0,phase_1,,,,,,,,,,,,,cyan,circle
179.0,1.0,0.5,0.0,4.0,4.0,436.1912259998917,3.0,1.0,phase_1,,,,,,,,,,,,,white,flipped triangle
344.0,2.0,1.0,0.0,4.0,4.0,498.7287660001129,3.0,1.0,phase_1,,,,,,,,,,,,,cyan,circle
1284.0,4.0,4.0,0.0,4.0,4.0,480.6694520000292,3.0,1.0,phase_1,,,,,,,,,,,,,magenta,triangle
344.0,2.0,1.0,0.0,3.0,3.0,406.4638770000783,3.0,1.0,phase_1,,,,,,,,,,,,,cyan,circle
346.0,2.0,1.0,0.0,1.0,1.0,563.8261910000892,3.0,1.0,phase_1,,,,,,,,,,,,,cyan,circle
184.0,5.0,0.5,1.0,3.0,3.0,453.3666689999336,3.0,1.0,phase_1,,,,,,,,,,,,,blue,diamond
0.0,3.0,0.0,0.0,4.0,4.0,408.2070469999053,3.0,1.0,phase_1,,,,,,,,,,,,,yellow,I
311.0,2.0,1.0,0.0,4.0,4.0,388.3371009999337,3.0,1.0,phase_1,,,,,,,,,,,,,cyan,circle
1308.0,8.0,4.0,1.0,1.0,1.0,480.3747249998196,3.0,1.0,phase_1,,,,,,,,,,,,,gray,cross
328.0,2.0,1.0,0.0,3.0,3.0,369.8476750000736,3.0,1.0,phase_1,,,,,,,,,,,,,cyan,circle
1288.0,8.0,4.0,1.0,2.0,2.0,692.0104710000032,3.0,1.0,phase_1,,,,,,,,,,,,,gray,cross
343.0,6.0,1.0,1.0,4.0,4.0,526.0434689998874,3.0,1.0,phase_1,,,,,,,,,,,,,orange,hexagon
1281.0,8.0,4.0,1.0,3.0,3.0,479.2539779998606,3.0,1.0,phase_1,,,,,,,,,,,,,gray,cross
1315.0,4.0,4.0,0.0,4.0,4.0,406.4081530000294,3.0,1.0,phase_1,,,,,,,,,,,,,magenta,triangle
646.0,3.0,2.0,0.0,1.0,1.0,471.9951359998049,3.0,1.0,phase_1,,,,,,,,,,,,,yellow,I
338.0,2.0,1.0,0.0,1.0,1.0,425.0938770001085,3.0,1.0,phase_1,,,,,,,,,,,,,cyan,circle
304.0,2.0,1.0,0.0,2.0,2.0,489.8003819998848,3.0,1.0,phase_1,,,,,,,,,,,,,cyan,circle
671.0,3.0,2.0,0.0,2.0,2.0,435.1143809999485,3.0,1.0,phase_1,,,,,,,,,,,,,yellow,I
0.0,1.0,0.0,0.0,2.0,2.0,424.4982679999793,3.0,1.0,phase_1,,,,,,,,,,,,,white,flipped triangle
149.0,1.0,0.5,0.0,1.0,1.0,386.7876330000399,3.0,1.0,phase_1,,,,,,,,,,,,,white,flipped triangle
155.0,1.0,0.5,0.0,2.0,2.0,397.3331160000271,3.0,1.0,phase_1,,,,,,,,,,,,,white,flipped triangle
1286.0,4.0,4.0,0.0,4.0,4.0,527.40715799996,3.0,1.0,phase_1,,,,,,,,,,,,,magenta,triangle
642.0,3.0,2.0,0.0,3.0,3.0,378.8410639999711,3.0,1.0,phase_1,,,,,,,,,,,,,yellow,I
313.0,6.0,1.0,1.0,1.0,1.0,397.7302450000479,3.0,1.0,phase_1,,,,,,,,,,,,,orange,hexagon
0.0,2.0,0.0,0.0,4.0,4.0,425.6911929999205,3.0,1.0,phase_1,,,,,,,,,,,,,cyan,circle
176.0,5.0,0.5,1.0,3.0,3.0,351.7229029998816,3.0,1.0,phase_1,,,,,,,,,,,,,blue,diamond
0.0,7.0,0.0,1.0,2.0,2.0,461.3368329999048,3.0,1.0,phase_1,,,,,,,,,,,,,green,square
331.0,2.0,1.0,0.0,3.0,3.0,444.7841410001274,3.0,1.0,phase_1,,,,,,,,,,,,,cyan,circle
1293.0,4.0,4.0,0.0,1.0,1.0,553.6358340000334,3.0,1.0,phase_1,,,,,,,,,,,,,magenta,triangle
668.0,7.0,2.0,1.0,1.0,1.0,463.4898619999603,3.0,1.0,phase_1,,,,,,,,,,,,,green,square
160.0,1.0,0.5,0.0,2.0,2.0,609.9187799998163,3.0,1.0,phase_1,,,,,,,,,,,,,white,flipped triangle
319.0,2.0,1.0,0.0,1.0,1.0,709.7809110000526,3.0,1.0,phase_1,,,,,,,,,,,,,cyan,circle
1323.0,4.0,4.0,0.0,2.0,2.0,461.6956729998946,3.0,1.0,phase_1,,,,,,,,,,,,,magenta,triangle
0.0,2.0,0.0,0.0,3.0,3.0,489.5909989998017,3.0,1.0,phase_1,,,,,,,,,,,,,cyan,circle
1281.0,8.0,4.0,1.0,2.0,2.0,489.2533169997932,3.0,1.0,phase_1,,,,,,,,,,,,,gray,cross
167.0,5.0,0.5,1.0,3.0,3.0,434.0652670000509,3.0,1.0,phase_1,,,,,,,,,,,,,blue,diamond
154.0,1.0,0.5,0.0,2.0,2.0,490.4161900001327,3.0,1.0,phase_1,,,,,,,,,,,,,white,flipped triangle
0.0,6.0,0.0,1.0,2.0,2.0,416.0348309999335,3.0,1.0,phase_1,,,,,,,,,,,,,orange,hexagon
1321.0,4.0,4.0,0.0,2.0,2.0,489.996137999924,3.0,1.0,phase_1,,,,,,,,,,,,,magenta,triangle
1282.0,8.0,4.0,1.0,2.0,2.0,405.7419149999077,3.0,1.0,phase_1,,,,,,,,,,,,,gray,cross
1321.0,4.0,4.0,0.0,3.0,3.0,416.1609029999908,3.0,2.0,phase_1,,,,,,,,,,,,,magenta,triangle
638.0,3.0,2.0,0.0,4.0,4.0,526.5232990000186,3.0,1.0,phase_1,,,,,,,,,,,,,yellow,I
1316.0,4.0,4.0,0.0,3.0,3.0,443.8374779999776,3.0,1.0,phase_1,,,,,,,,,,,,,magenta,triangle
660.0,3.0,2.0,0.0,3.0,3.0,407.6195350000944,3.0,1.0,phase_1,,,,,,,,,,,,,yellow,I
672.0,7.0,2.0,1.0,2.0,2.0,610.244922999982,3.0,1.0,phase_1,,,,,,,,,,,,,green,square
636.0,7.0,2.0,1.0,1.0,1.0,517.525328000147,3.0,1.0,phase_1,,,,,,,,,,,,,green,square
671.0,7.0,2.0,1.0,4.0,4.0,508.3335140000145,3.0,1.0,phase_1,,,,,,,,,,,,,green,square
159.0,1.0,0.5,0.0,4.0,4.0,397.4734560001707,3.0,1.0,phase_1,,,,,,,,,,,,,white,flipped triangle
306.0,6.0,1.0,1.0,2.0,2.0,508.3843899999465,3.0,1.0,phase_1,,,,,,,,,,,,,orange,hexagon
149.0,5.0,0.5,1.0,4.0,4.0,435.5938450000849,3.0,1.0,phase_1,,,,,,,,,,,,,blue,diamond
162.0,5.0,0.5,1.0,1.0,1.0,498.7577629999578,3.0,1.0,phase_1,,,,,,,,,,,,,blue,diamond
669.0,7.0,2.0,1.0,1.0,1.0,388.5627549998389,3.0,1.0,phase_1,,,,,,,,,,,,,green,square
141.0,5.0,0.5,1.0,2.0,2.0,499.2933099999845,3.0,1.0,phase_1,,,,,,,,,,,,,blue,diamond
156.0,5.0,0.5,1.0,1.0,1.0,442.7610719999393,3.0,1.0,phase_1,,,,,,,,,,,,,blue,diamond
1307.0,8.0,4.0,1.0,4.0,4.0,387.3417129998415,3.0,1.0,phase_1,,,,,,,,,,,,,gray,cross
1285.0,8.0,4.0,1.0,2.0,2.0,479.7642490000271,3.0,1.0,phase_1,,,,,,,,,,,,,gray,cross
0.0,6.0,0.0,1.0,1.0,1.0,499.2075740001382,3.0,1.0,phase_1,,,,,,,,,,,,,orange,hexagon
1308.0,8.0,4.0,1.0,4.0,4.0,684.6773019999546,3.0,1.0,phase_1,,,,,,,,,,,,,gray,cross
1312.0,4.0,4.0,0.0,1.0,1.0,508.96351599999434,3.0,2.0,phase_1,,,,,,,,,,,,,magenta,triangle
181.0,5.0,0.5,1.0,1.0,1.0,379.4084670000757,3.0,1.0,phase_1,,,,,,,,,,,,,blue,diamond
632.0,3.0,2.0,0.0,1.0,1.0,424.7835250000662,3.0,1.0,phase_1,,,,,,,,,,,,,yellow,I
0.0,1.0,0.0,0.0,1.0,1.0,470.2084789998935,3.0,1.0,phase_1,,,,,,,,,,,,,white,flipped triangle
155.0,5.0,0.5,1.0,1.0,1.0,444.4271770000796,3.0,1.0,phase_1,,,,,,,,,,,,,blue,diamond
633.0,7.0,2.0,1.0,2.0,2.0,637.6263630002086,3.0,1.0,phase_1,,,,,,,,,,,,,green,square
333.0,6.0,1.0,1.0,1.0,1.0,471.3852400000178,3.0,1.0,phase_1,,,,,,,,,,,,,orange,hexagon
0.0,1.0,0.0,0.0,2.0,2.0,555.5553740000505,3.0,1.0,phase_1,,,,,,,,,,,,,white,flipped triangle
184.0,5.0,0.5,1.0,4.0,4.0,407.1400379998522,3.0,1.0,phase_1,,,,,,,,,,,,,blue,diamond
1291.0,4.0,4.0,0.0,2.0,2.0,499.7309349998886,3.0,1.0,phase_1,,,,,,,,,,,,,magenta,triangle
0.0,2.0,0.0,0.0,3.0,3.0,518.7341449998257,3.0,1.0,phase_1,,,,,,,,,,,,,cyan,circle
1298.0,8.0,4.0,1.0,3.0,3.0,417.5731679999899,3.0,1.0,phase_1,,,,,,,,,,,,,gray,cross
667.0,7.0,2.0,1.0,3.0,3.0,425.1393679999182,3.0,1.0,phase_1,,,,,,,,,,,,,green,square
306.0,2.0,1.0,0.0,4.0,4.0,407.6573990000725,3.0,1.0,phase_1,,,,,,,,,,,,,cyan,circle
0.0,7.0,0.0,1.0,1.0,1.0,527.7894809998998,3.0,1.0,phase_1,,,,,,,,,,,,,green,square
1299.0,8.0,4.0,1.0,4.0,4.0,480.0545370001146,3.0,1.0,phase_1,,,,,,,,,,,,,gray,cross
328.0,6.0,1.0,1.0,3.0,3.0,453.5184809999464,3.0,1.0,phase_1,,,,,,,,,,,,,orange,hexagon
0.0,6.0,0.0,1.0,3.0,3.0,443.7621559998206,3.0,1.0,phase_1,,,,,,,,,,,,,orange,hexagon
1287.0,4.0,4.0,0.0,2.0,2.0,721.1016180001479,3.0,1.0,phase_1,,,,,,,,,,,,,magenta,triangle
1322.0,8.0,4.0,1.0,3.0,3.0,435.3029530000185,3.0,1.0,phase_1,,,,,,,,,,,,,gray,cross
319.0,6.0,1.0,1.0,1.0,1.0,527.6362059998974,3.0,1.0,phase_1,,,,,,,,,,,,,orange,hexagon
323.0,6.0,1.0,1.0,2.0,2.0,479.9254739998559,3.0,1.0,phase_1,,,,,,,,,,,,,orange,hexagon
331.0,6.0,1.0,1.0,4.0,4.0,417.2542070000418,3.0,1.0,phase_1,,,,,,,,,,,,,orange,hexagon
338.0,2.0,1.0,0.0,2.0,2.0,443.8064030000532,3.0,1.0,phase_1,,,,,,,,,,,,,cyan,circle
652.0,3.0,2.0,0.0,1.0,1.0,389.271151999992,3.0,3.0,phase_1,,,,,,,,,,,,,yellow,I
306.0,6.0,1.0,1.0,1.0,1.0,415.3509000000213,3.0,1.0,phase_1,,,,,,,,,,,,,orange,hexagon
636.0,3.0,2.0,0.0,1.0,1.0,443.3161289998679,3.0,1.0,phase_1,,,,,,,,,,,,,yellow,I
1295.0,8.0,4.0,1.0,3.0,3.0,406.3055090000489,3.0,1.0,phase_1,,,,,,,,,,,,,gray,cross
330.0,2.0,1.0,0.0,2.0,2.0,571.8038140000772,3.0,1.0,phase_1,,,,,,,,,,,,,cyan,circle
645.0,7.0,2.0,1.0,4.0,4.0,452.4587289999999,3.0,1.0,phase_1,,,,,,,,,,,,,green,square
164.0,5.0,0.5,1.0,1.0,1.0,470.0952759999381,3.0,1.0,phase_1,,,,,,,,,,,,,blue,diamond
0.0,7.0,0.0,1.0,1.0,1.0,492.1795260002,3.0,1.0,phase_1,,,,,,,,,,,,,green,square
142.0,1.0,0.5,0.0,3.0,3.0,499.1636529998686,4.0,1.0,phase_1,,,,,,,,,,,,,white,flipped triangle
0.0,3.0,0.0,0.0,1.0,1.0,462.690412000029,4.0,1.0,phase_1,,,,,,,,,,,,,yellow,I
161.0,5.0,0.5,1.0,4.0,4.0,509.1433170000528,4.0,1.0,phase_1,,,,,,,,,,,,,blue,diamond
166.0,1.0,0.5,0.0,3.0,3.0,361.3378390000434,4.0,1.0,phase_1,,,,,,,,,,,,,white,flipped triangle
0.0,7.0,0.0,1.0,1.0,1.0,452.7433200000814,4.0,1.0,phase_1,,,,,,,,,,,,,green,square
0.0,7.0,0.0,1.0,1.0,1.0,479.8010540000632,4.0,1.0,phase_1,,,,,,,,,,,,,green,square
0.0,1.0,0.0,0.0,4.0,4.0,463.9467570000306,4.0,1.0,phase_1,,,,,,,,,,,,,white,flipped triangle
1316.0,8.0,4.0,1.0,4.0,4.0,452.0472510000672,4.0,1.0,phase_1,,,,,,,,,,,,,gray,cross
645.0,3.0,2.0,0.0,4.0,4.0,414.8903830000563,4.0,1.0,phase_1,,,,,,,,,,,,,yellow,I
176.0,1.0,0.5,0.0,4.0,4.0,360.2133659999254,4.0,1.0,phase_1,,,,,,,,,,,,,white,flipped triangle
648.0,7.0,2.0,1.0,1.0,1.0,424.8329859999558,4.0,1.0,phase_1,,,,,,,,,,,,,green,square
0.0,5.0,0.0,1.0,4.0,4.0,443.2834719998482,4.0,1.0,phase_1,,,,,,,,,,,,,blue,diamond
1295.0,4.0,4.0,0.0,2.0,2.0,471.6193550000298,4.0,1.0,phase_1,,,,,,,,,,,,,magenta,triangle
0.0,6.0,0.0,1.0,4.0,4.0,535.9624789998634,4.0,1.0,phase_1,,,,,,,,,,,,,orange,hexagon
317.0,6.0,1.0,1.0,2.0,2.0,554.174969000087,4.0,1.0,phase_1,,,,,,,,,,,,,orange,hexagon
668.0,3.0,2.0,0.0,2.0,2.0,471.3099749999401,4.0,1.0,phase_1,,,,,,,,,,,,,yellow,I
164.0,5.0,0.5,1.0,3.0,3.0,472.6598780000586,4.0,1.0,phase_1,,,,,,,,,,,,,blue,diamond
159.0,5.0,0.5,1.0,2.0,2.0,582.1546300001046,4.0,1.0,phase_1,,,,,,,,,,,,,blue,diamond
667.0,3.0,2.0,0.0,3.0,3.0,444.8254200001429,4.0,1.0,phase_1,,,,,,,,,,,,,yellow,I
1299.0,4.0,4.0,0.0,4.0,4.0,445.3398499999821,4.0,1.0,phase_1,,,,,,,,,,,,,magenta,triangle
1307.0,4.0,4.0,0.0,1.0,1.0,371.2353399998847,4.0,1.0,phase_1,,,,,,,,,,,,,magenta,triangle
1281.0,4.0,4.0,0.0,3.0,3.0,471.5538129999004,4.0,1.0,phase_1,,,,,,,,,,,,,magenta,triangle
312.0,2.0,1.0,0.0,4.0,4.0,435.2692399997977,4.0,1.0,phase_1,,,,,,,,,,,,,cyan,circle
311.0,2.0,1.0,0.0,3.0,3.0,342.7504889998545,4.0,1.0,phase_1,,,,,,,,,,,,,cyan,circle
146.0,1.0,0.5,0.0,2.0,2.0,536.1952000000656,4.0,1.0,phase_1,,,,,,,,,,,,,white,flipped triangle
148.0,5.0,0.5,1.0,4.0,4.0,500.111889999971,4.0,1.0,phase_1,,,,,,,,,,,,,blue,diamond
326.0,6.0,1.0,1.0,1.0,1.0,408.8949029999185,4.0,1.0,phase_1,,,,,,,,,,,,,orange,hexagon
1285.0,8.0,4.0,1.0,3.0,3.0,378.2514980000542,4.0,1.0,phase_1,,,,,,,,,,,,,gray,cross
0.0,6.0,0.0,1.0,1.0,1.0,397.7532470000824,4.0,1.0,phase_1,,,,,,,,,,,,,orange,hexagon
344.0,2.0,1.0,0.0,2.0,2.0,508.807102999981,4.0,1.0,phase_1,,,,,,,,,,,,,cyan,circle
184.0,1.0,0.5,0.0,4.0,4.0,389.1103000000839,4.0,1.0,phase_1,,,,,,,,,,,,,white,flipped triangle
329.0,2.0,1.0,0.0,3.0,3.0,527.60570800001,4.0,1.0,phase_1,,,,,,,,,,,,,cyan,circle
1291.0,8.0,4.0,1.0,1.0,1.0,481.3143060000584,4.0,1.0,phase_1,,,,,,,,,,,,,gray,cross
148.0,1.0,0.5,0.0,2.0,2.0,638.1909279998581,4.0,1.0,phase_1,,,,,,,,,,,,,white,flipped triangle
339.0,6.0,1.0,1.0,4.0,4.0,535.2937860000111,4.0,1.0,phase_1,,,,,,,,,,,,,orange,hexagon
0.0,8.0,0.0,1.0,1.0,1.0,466.1458390000916,4.0,1.0,phase_1,,,,,,,,,,,,,gray,cross
0.0,6.0,0.0,1.0,3.0,3.0,461.641974000031,4.0,1.0,phase_1,,,,,,,,,,,,,orange,hexagon
0.0,2.0,0.0,0.0,2.0,2.0,508.0651640000724,4.0,1.0,phase_1,,,,,,,,,,,,,cyan,circle
1325.0,4.0,4.0,0.0,3.0,3.0,389.3993770000179,4.0,1.0,phase_1,,,,,,,,,,,,,magenta,triangle
142.0,5.0,0.5,1.0,1.0,1.0,416.1644039998009,4.0,1.0,phase_1,,,,,,,,,,,,,blue,diamond
0.0,4.0,0.0,0.0,2.0,2.0,544.9458049999976,4.0,1.0,phase_1,,,,,,,,,,,,,magenta,triangle
0.0,5.0,0.0,1.0,3.0,3.0,388.121233999982,4.0,1.0,phase_1,,,,,,,,,,,,,blue,diamond
311.0,6.0,1.0,1.0,3.0,3.0,470.6643790000271,4.0,1.0,phase_1,,,,,,,,,,,,,orange,hexagon
0.0,4.0,0.0,0.0,3.0,3.0,425.9147640000265,4.0,1.0,phase_1,,,,,,,,,,,,,magenta,triangle
146.0,5.0,0.5,1.0,2.0,2.0,553.9207890001308,4.0,1.0,phase_1,,,,,,,,,,,,,blue,diamond
664.0,7.0,2.0,1.0,4.0,4.0,379.1367979999904,4.0,1.0,phase_1,,,,,,,,,,,,,green,square
0.0,4.0,0.0,0.0,1.0,1.0,415.5247609999151,4.0,1.0,phase_1,,,,,,,,,,,,,magenta,triangle
184.0,5.0,0.5,1.0,4.0,4.0,462.8331530000196,4.0,1.0,phase_1,,,,,,,,,,,,,blue,diamond
181.0,5.0,0.5,1.0,2.0,2.0,453.3907150000686,4.0,1.0,phase_1,,,,,,,,,,,,,blue,diamond
640.0,3.0,2.0,0.0,4.0,4.0,361.7962799999077,4.0,1.0,phase_1,,,,,,,,,,,,,yellow,I
648.0,3.0,2.0,0.0,4.0,4.0,443.9584169999762,4.0,1.0,phase_1,,,,,,,,,,,,,yellow,I
0.0,5.0,0.0,1.0,3.0,3.0,683.6360340000738,4.0,1.0,phase_1,,,,,,,,,,,,,blue,diamond
183.0,1.0,0.5,0.0,1.0,1.0,416.0948250000729,4.0,1.0,phase_1,,,,,,,,,,,,,white,flipped triangle
646.0,3.0,2.0,0.0,3.0,3.0,426.4493440000478,4.0,1.0,phase_1,,,,,,,,,,,,,yellow,I
344.0,6.0,1.0,1.0,3.0,3.0,342.5763719999395,4.0,1.0,phase_1,,,,,,,,,,,,,orange,hexagon
0.0,3.0,0.0,0.0,4.0,4.0,435.7523259998288,4.0,1.0,phase_1,,,,,,,,,,,,,yellow,I
0.0,2.0,0.0,0.0,3.0,3.0,398.5106509999241,4.0,1.0,phase_1,,,,,,,,,,,,,cyan,circle
160.0,5.0,0.5,1.0,3.0,3.0,435.4856069999187,4.0,1.0,phase_1,,,,,,,,,,,,,blue,diamond
0.0,8.0,0.0,1.0,1.0,1.0,416.0265239997898,4.0,1.0,phase_1,,,,,,,,,,,,,gray,cross
336.0,6.0,1.0,1.0,4.0,4.0,444.1151159999208,4.0,1.0,phase_1,,,,,,,,,,,,,orange,hexagon
155.0,5.0,0.5,1.0,1.0,1.0,848.3070239999506,4.0,1.0,phase_1,,,,,,,,,,,,,blue,diamond
138.0,1.0,0.5,0.0,1.0,1.0,493.6239520002345,4.0,1.0,phase_1,,,,,,,,,,,,,white,flipped triangle
164.0,1.0,0.5,0.0,2.0,2.0,729.6843450003507,4.0,1.0,phase_1,,,,,,,,,,,,,white,flipped triangle
307.0,2.0,1.0,0.0,4.0,4.0,463.4105690001888,4.0,1.0,phase_1,,,,,,,,,,,,,cyan,circle
1295.0,8.0,4.0,1.0,2.0,2.0,415.9869560003244,4.0,1.0,phase_1,,,,,,,,,,,,,gray,cross
0.0,1.0,0.0,0.0,3.0,3.0,483.3753329999126,4.0,1.0,phase_1,,,,,,,,,,,,,white,flipped triangle
1288.0,4.0,4.0,0.0,3.0,3.0,528.4824430000299,4.0,1.0,phase_1,,,,,,,,,,,,,magenta,triangle
159.0,5.0,0.5,1.0,2.0,2.0,564.4740299999285,4.0,1.0,phase_1,,,,,,,,,,,,,blue,diamond
652.0,7.0,2.0,1.0,1.0,1.0,445.2271260001907,4.0,1.0,phase_1,,,,,,,,,,,,,green,square
671.0,7.0,2.0,1.0,2.0,2.0,434.6600779999789,4.0,1.0,phase_1,,,,,,,,,,,,,green,square
638.0,7.0,2.0,1.0,3.0,3.0,361.668188999829,4.0,2.0,phase_1,,,,,,,,,,,,,green,square
1285.0,4.0,4.0,0.0,1.0,1.0,712.5042249999751,4.0,1.0,phase_1,,,,,,,,,,,,,magenta,triangle
0.0,2.0,0.0,0.0,1.0,1.0,508.189503000267,4.0,1.0,phase_1,,,,,,,,,,,,,cyan,circle
300.0,2.0,1.0,0.0,1.0,1.0,397.3698709996824,4.0,1.0,phase_1,,,,,,,,,,,,,cyan,circle
346.0,6.0,1.0,1.0,2.0,2.0,470.7049940002434,4.0,1.0,phase_1,,,,,,,,,,,,,orange,hexagon
0.0,4.0,0.0,0.0,2.0,2.0,443.5308590000204,4.0,1.0,phase_1,,,,,,,,,,,,,magenta,triangle
1293.0,8.0,4.0,1.0,2.0,2.0,469.3813100002444,4.0,1.0,phase_1,,,,,,,,,,,,,gray,cross
185.0,1.0,0.5,0.0,4.0,4.0,638.1069539997952,4.0,1.0,phase_1,,,,,,,,,,,,,white,flipped triangle
178.0,5.0,0.5,1.0,2.0,2.0,545.4642360000435,4.0,1.0,phase_1,,,,,,,,,,,,,blue,diamond
1295.0,4.0,4.0,0.0,2.0,2.0,398.4060309999222,4.0,1.0,phase_1,,,,,,,,,,,,,magenta,triangle
164.0,1.0,0.5,0.0,3.0,3.0,453.5727449997466,4.0,1.0,phase_1,,,,,,,,,,,,,white,flipped triangle
1279.0,8.0,4.0,1.0,1.0,1.0,480.3780229999574,4.0,1.0,phase_1,,,,,,,,,,,,,gray,cross
1316.0,8.0,4.0,1.0,2.0,2.0,571.1115630001586,4.0,1.0,phase_1,,,,,,,,,,,,,gray,cross
311.0,6.0,1.0,1.0,1.0,1.0,543.7664149999364,4.0,1.0,phase_1,,,,,,,,,,,,,orange,hexagon
655.0,3.0,2.0,0.0,1.0,1.0,425.6206210002347,4.0,1.0,phase_1,,,,,,,,,,,,,yellow,I
665.0,7.0,2.0,1.0,2.0,2.0,526.8147249998947,4.0,1.0,phase_1,,,,,,,,,,,,,green,square
0.0,6.0,0.0,1.0,2.0,2.0,452.7048660002037,4.0,1.0,phase_1,,,,,,,,,,,,,orange,hexagon
0.0,7.0,0.0,1.0,1.0,1.0,387.5187469998309,4.0,1.0,phase_1,,,,,,,,,,,,,green,square
174.0,5.0,0.5,1.0,4.0,4.0,647.2684059999665,4.0,1.0,phase_1,,,,,,,,,,,,,blue,diamond
0.0,5.0,0.0,1.0,1.0,1.0,444.7392460001538,4.0,1.0,phase_1,,,,,,,,,,,,,blue,diamond
306.0,2.0,1.0,0.0,2.0,2.0,434.7859300000891,4.0,1.0,phase_1,,,,,,,,,,,,,cyan,circle
0.0,5.0,0.0,1.0,3.0,3.0,472.2360410000874,4.0,1.0,phase_1,,,,,,,,,,,,,blue,diamond
1307.0,8.0,4.0,1.0,3.0,3.0,405.8934530003171,4.0,1.0,phase_1,,,,,,,,,,,,,gray,cross
643.0,7.0,2.0,1.0,3.0,3.0,369.1658460002145,4.0,1.0,phase_1,,,,,,,,,,,,,green,square
300.0,6.0,1.0,1.0,2.0,2.0,443.0441360000259,4.0,1.0,phase_1,,,,,,,,,,,,,orange,hexagon
671.0,3.0,2.0,0.0,3.0,3.0,369.4233670003086,4.0,1.0,phase_1,,,,,,,,,,,,,yellow,I
0.0,2.0,0.0,0.0,2.0,2.0,545.9456220000902,4.0,1.0,phase_1,,,,,,,,,,,,,cyan,circle
320.0,2.0,1.0,0.0,1.0,1.0,600.3302459998849,4.0,1.0,phase_1,,,,,,,,,,,,,cyan,circle
672.0,7.0,2.0,1.0,1.0,1.0,443.6693289999311,4.0,1.0,phase_1,,,,,,,,,,,,,green,square
328.0,6.0,1.0,1.0,2.0,2.0,664.8190430000795,4.0,1.0,phase_1,,,,,,,,,,,,,orange,hexagon
0.0,6.0,1.0,1.0,6.0,0.0,0.0,1.0,1.0,phase_2,stop,250.0,250.0,4.0,,,,,,,,,orange,hexagon
0.0,5.0,0.5,1.0,6.0,0.0,0.0,1.0,1.0,phase_2,stop,250.0,300.0,4.0,,,,,,,,,blue,diamond
0.0,4.0,4.0,0.0,5.0,5.0,472.2174049998102,1.0,1.0,phase_2,go,250.0,350.0,1.0,,,,,,,,,magenta,triangle
0.0,8.0,4.0,1.0,5.0,5.0,398.0768280002849,1.0,1.0,phase_2,go,250.0,350.0,1.0,,,,,,,,,gray,cross
0.0,8.0,4.0,1.0,6.0,6.0,556.7981620001774,1.0,1.0,phase_2,stop,250.0,350.0,3.0,,,,,,,,,gray,cross
0.0,7.0,2.0,1.0,5.0,0.0,0.0,1.0,1.0,phase_2,stop,250.0,300.0,4.0,,,,,,,,,green,square
0.0,8.0,4.0,1.0,6.0,6.0,369.5793880001474,1.0,1.0,phase_2,stop,300.0,300.0,3.0,,,,,,,,,gray,cross
0.0,1.0,0.5,0.0,5.0,5.0,567.3282700004165,1.0,1.0,phase_2,go,300.0,250.0,1.0,,,,,,,,,white,flipped triangle
0.0,3.0,2.0,0.0,6.0,6.0,372.5274419998641,1.0,1.0,phase_2,go,300.0,250.0,1.0,,,,,,,,,yellow,I
0.0,3.0,2.0,0.0,5.0,5.0,519.7678700001234,1.0,1.0,phase_2,go,300.0,250.0,1.0,,,,,,,,,yellow,I
0.0,2.0,1.0,0.0,5.0,5.0,510.78165799981434,1.0,1.0,phase_2,go,300.0,250.0,1.0,,,,,,,,,cyan,circle
0.0,2.0,1.0,0.0,6.0,6.0,511.16798400016705,1.0,1.0,phase_2,go,300.0,250.0,1.0,,,,,,,,,cyan,circle
0.0,8.0,4.0,1.0,5.0,5.0,498.2375100003082,1.0,1.0,phase_2,stop,300.0,250.0,3.0,,,,,,,,,gray,cross
0.0,4.0,4.0,0.0,5.0,5.0,520.976883000003,1.0,1.0,phase_2,go,250.0,250.0,1.0,,,,,,,,,magenta,triangle
0.0,5.0,0.5,1.0,5.0,0.0,0.0,1.0,1.0,phase_2,stop,250.0,250.0,4.0,,,,,,,,,blue,diamond
0.0,3.0,2.0,0.0,5.0,5.0,844.7171019997768,1.0,1.0,phase_2,go,300.0,250.0,1.0,,,,,,,,,yellow,I
0.0,4.0,4.0,0.0,6.0,6.0,725.2633719999722,1.0,1.0,phase_2,go,300.0,250.0,1.0,,,,,,,,,magenta,triangle
0.0,6.0,1.0,1.0,5.0,0.0,0.0,1.0,1.0,phase_2,stop,300.0,250.0,4.0,,,,,,,,,orange,hexagon
0.0,1.0,0.5,0.0,6.0,6.0,661.136838999937,1.0,1.0,phase_2,go,350.0,250.0,1.0,,,,,,,,,white,flipped triangle
0.0,2.0,1.0,0.0,6.0,6.0,529.2966329998308,1.0,1.0,phase_2,go,350.0,250.0,1.0,,,,,,,,,cyan,circle
0.0,4.0,4.0,0.0,6.0,6.0,500.6376320002346,1.0,1.0,phase_2,go,350.0,250.0,1.0,,,,,,,,,magenta,triangle
0.0,3.0,2.0,0.0,5.0,5.0,511.1871429999155,1.0,1.0,phase_2,go,350.0,250.0,1.0,,,,,,,,,yellow,I
0.0,8.0,4.0,1.0,5.0,5.0,622.1699119996629,1.0,1.0,phase_2,go,350.0,250.0,1.0,,,,,,,,,gray,cross
0.0,1.0,0.5,0.0,5.0,5.0,558.6105489996953,1.0,1.0,phase_2,go,350.0,250.0,1.0,,,,,,,,,white,flipped triangle
0.0,7.0,2.0,1.0,5.0,5.0,531.2067099998785,1.0,1.0,phase_2,stop,350.0,250.0,3.0,,,,,,,,,green,square
0.0,7.0,2.0,1.0,6.0,0.0,0.0,1.0,1.0,phase_2,stop,300.0,250.0,4.0,,,,,,,,,green,square
0.0,6.0,1.0,1.0,5.0,0.0,0.0,1.0,1.0,phase_2,stop,300.0,300.0,4.0,,,,,,,,,orange,hexagon
0.0,1.0,0.5,0.0,5.0,5.0,595.2000919996863,1.0,1.0,phase_2,go,350.0,300.0,1.0,,,,,,,,,white,flipped triangle
0.0,7.0,2.0,1.0,6.0,0.0,0.0,1.0,1.0,phase_2,stop,350.0,300.0,4.0,,,,,,,,,green,square
0.0,6.0,1.0,1.0,6.0,0.0,0.0,1.0,1.0,phase_2,stop,350.0,350.0,4.0,,,,,,,,,orange,hexagon
0.0,4.0,4.0,0.0,6.0,6.0,604.5888450003076,1.0,1.0,phase_2,go,350.0,400.0,1.0,,,,,,,,,magenta,triangle
0.0,3.0,2.0,0.0,5.0,5.0,549.8342380001304,1.0,1.0,phase_2,go,350.0,400.0,1.0,,,,,,,,,yellow,I
0.0,5.0,0.5,1.0,5.0,0.0,0.0,1.0,1.0,phase_2,stop,350.0,400.0,4.0,,,,,,,,,blue,diamond
0.0,3.0,2.0,0.0,5.0,5.0,669.0828890000375,1.0,1.0,phase_2,go,400.0,400.0,1.0,,,,,,,,,yellow,I
0.0,4.0,4.0,0.0,5.0,5.0,549.4623310000861,1.0,1.0,phase_2,go,400.0,400.0,1.0,,,,,,,,,magenta,triangle
0.0,5.0,0.5,1.0,5.0,5.0,632.2432309998476,1.0,1.0,phase_2,go,400.0,400.0,1.0,,,,,,,,,blue,diamond
0.0,8.0,4.0,1.0,6.0,0.0,0.0,2.0,1.0,phase_2,stop,400.0,400.0,4.0,,,,,,,,,gray,cross
0.0,7.0,2.0,1.0,6.0,0.0,0.0,2.0,1.0,phase_2,stop,400.0,450.0,4.0,,,,,,,,,green,square
0.0,4.0,4.0,0.0,6.0,6.0,611.2779860000046,2.0,1.0,phase_2,go,400.0,500.0,1.0,,,,,,,,,magenta,triangle
0.0,4.0,4.0,0.0,5.0,5.0,481.7106650002642,2.0,1.0,phase_2,go,400.0,500.0,1.0,,,,,,,,,magenta,triangle
0.0,4.0,4.0,0.0,5.0,5.0,352.5425480002013,2.0,1.0,phase_2,go,400.0,500.0,1.0,,,,,,,,,magenta,triangle
0.0,3.0,2.0,0.0,5.0,5.0,557.0660989997123,2.0,1.0,phase_2,go,400.0,500.0,1.0,,,,,,,,,yellow,I
0.0,4.0,4.0,0.0,6.0,6.0,705.7767420001255,2.0,1.0,phase_2,go,400.0,500.0,1.0,,,,,,,,,magenta,triangle
0.0,6.0,1.0,1.0,6.0,6.0,668.0179720001433,2.0,1.0,phase_2,go,400.0,500.0,1.0,,,,,,,,,orange,hexagon
0.0,6.0,1.0,1.0,6.0,6.0,645.8732650003185,2.0,1.0,phase_2,stop,400.0,500.0,3.0,,,,,,,,,orange,hexagon
0.0,3.0,2.0,0.0,6.0,6.0,873.1947690002926,2.0,1.0,phase_2,go,400.0,450.0,1.0,,,,,,,,,yellow,I
0.0,8.0,4.0,1.0,5.0,0.0,0.0,2.0,1.0,phase_2,stop,400.0,450.0,4.0,,,,,,,,,gray,cross
0.0,2.0,1.0,0.0,6.0,6.0,751.6515100001016,2.0,1.0,phase_2,go,450.0,450.0,1.0,,,,,,,,,cyan,circle
0.0,7.0,2.0,1.0,6.0,0.0,0.0,2.0,1.0,phase_2,stop,450.0,450.0,4.0,,,,,,,,,green,square
0.0,6.0,1.0,1.0,5.0,5.0,787.7977430002829,2.0,1.0,phase_2,go,450.0,500.0,1.0,,,,,,,,,orange,hexagon
0.0,1.0,0.5,0.0,5.0,5.0,602.564940999855,2.0,1.0,phase_2,go,450.0,500.0,1.0,,,,,,,,,white,flipped triangle
0.0,3.0,2.0,0.0,6.0,6.0,659.2466860001878,2.0,1.0,phase_2,go,450.0,500.0,1.0,,,,,,,,,yellow,I
0.0,1.0,0.5,0.0,5.0,5.0,901.3937939998868,2.0,1.0,phase_2,go,450.0,500.0,1.0,,,,,,,,,white,flipped triangle
0.0,3.0,2.0,0.0,6.0,6.0,695.656145999692,2.0,1.0,phase_2,go,450.0,500.0,1.0,,,,,,,,,yellow,I
0.0,6.0,1.0,1.0,6.0,0.0,0.0,2.0,1.0,phase_2,stop,450.0,500.0,4.0,,,,,,,,,orange,hexagon
0.0,5.0,0.5,1.0,6.0,0.0,0.0,2.0,1.0,phase_2,stop,450.0,550.0,4.0,,,,,,,,,blue,diamond
0.0,3.0,2.0,0.0,6.0,6.0,863.2124420000764,2.0,1.0,phase_2,go,450.0,600.0,1.0,,,,,,,,,yellow,I
0.0,4.0,4.0,0.0,6.0,6.0,901.999982000234,2.0,1.0,phase_2,go,450.0,600.0,1.0,,,,,,,,,magenta,triangle
0.0,7.0,2.0,1.0,6.0,6.0,787.6575830000547,2.0,1.0,phase_2,stop,450.0,600.0,3.0,,,,,,,,,green,square
0.0,6.0,1.0,1.0,5.0,0.0,0.0,2.0,1.0,phase_2,stop,450.0,550.0,4.0,,,,,,,,,orange,hexagon
0.0,3.0,2.0,0.0,5.0,5.0,781.2813820000883,2.0,1.0,phase_2,go,500.0,550.0,1.0,,,,,,,,,yellow,I
0.0,1.0,0.5,0.0,5.0,5.0,882.7877730000182,2.0,1.0,phase_2,go,500.0,550.0,1.0,,,,,,,,,white,flipped triangle
0.0,4.0,4.0,0.0,5.0,5.0,966.423031999966,2.0,1.0,phase_2,go,500.0,550.0,1.0,,,,,,,,,magenta,triangle
0.0,2.0,1.0,0.0,5.0,5.0,788.9808859999903,2.0,1.0,phase_2,go,500.0,550.0,1.0,,,,,,,,,cyan,circle
0.0,3.0,2.0,0.0,6.0,6.0,863.8122759998623,2.0,1.0,phase_2,go,500.0,550.0,1.0,,,,,,,,,yellow,I
0.0,8.0,4.0,1.0,6.0,0.0,0.0,2.0,1.0,phase_2,stop,500.0,550.0,4.0,,,,,,,,,gray,cross
0.0,3.0,2.0,0.0,5.0,5.0,963.2164290001128,2.0,1.0,phase_2,go,500.0,600.0,1.0,,,,,,,,,yellow,I
0.0,5.0,0.5,1.0,5.0,0.0,0.0,2.0,1.0,phase_2,stop,500.0,600.0,4.0,,,,,,,,,blue,diamond
0.0,2.0,1.0,0.0,5.0,5.0,860.9345499999108,2.0,1.0,phase_2,go,550.0,600.0,1.0,,,,,,,,,cyan,circle
0.0,1.0,0.5,0.0,6.0,6.0,954.9740140000722,2.0,1.0,phase_2,go,550.0,600.0,1.0,,,,,,,,,white,flipped triangle
0.0,6.0,1.0,1.0,6.0,0.0,0.0,2.0,1.0,phase_2,stop,550.0,600.0,4.0,,,,,,,,,orange,hexagon
0.0,4.0,4.0,0.0,6.0,6.0,983.5253629998988,2.0,1.0,phase_2,go,550.0,650.0,1.0,,,,,,,,,magenta,triangle
0.0,5.0,0.5,1.0,5.0,5.0,528.5173009997379,3.0,1.0,phase_2,stop,550.0,650.0,3.0,,,,,,,,,blue,diamond
0.0,3.0,2.0,0.0,5.0,5.0,371.3639220000004,3.0,1.0,phase_2,go,500.0,650.0,1.0,,,,,,,,,yellow,I
0.0,7.0,2.0,1.0,5.0,5.0,334.5843259999128,3.0,1.0,phase_2,stop,500.0,650.0,3.0,,,,,,,,,green,square
0.0,7.0,2.0,1.0,5.0,5.0,497.9485229996498,3.0,1.0,phase_2,stop,450.0,650.0,3.0,,,,,,,,,green,square
0.0,3.0,2.0,0.0,6.0,6.0,472.6296750000074,3.0,1.0,phase_2,go,400.0,650.0,1.0,,,,,,,,,yellow,I
0.0,5.0,0.5,1.0,5.0,5.0,452.4605440001323,3.0,1.0,phase_2,stop,400.0,650.0,3.0,,,,,,,,,blue,diamond
0.0,1.0,0.5,0.0,6.0,6.0,683.8538049996714,3.0,1.0,phase_2,go,350.0,650.0,1.0,,,,,,,,,white,flipped triangle
0.0,2.0,1.0,0.0,5.0,5.0,464.40812200035,3.0,1.0,phase_2,go,350.0,650.0,1.0,,,,,,,,,cyan,circle
0.0,4.0,4.0,0.0,5.0,5.0,769.4332480000412,3.0,1.0,phase_2,go,350.0,650.0,1.0,,,,,,,,,magenta,triangle
0.0,3.0,2.0,0.0,6.0,6.0,576.0861700000532,3.0,1.0,phase_2,go,350.0,650.0,1.0,,,,,,,,,yellow,I
0.0,3.0,2.0,0.0,6.0,6.0,566.2295980000636,3.0,1.0,phase_2,go,350.0,650.0,1.0,,,,,,,,,yellow,I
0.0,2.0,1.0,0.0,6.0,6.0,509.4495650000681,3.0,1.0,phase_2,go,350.0,650.0,1.0,,,,,,,,,cyan,circle
0.0,5.0,0.5,1.0,6.0,6.0,556.6287120000197,3.0,1.0,phase_2,stop,350.0,650.0,3.0,,,,,,,,,blue,diamond
0.0,2.0,1.0,0.0,5.0,5.0,584.8162070001308,3.0,1.0,phase_2,go,350.0,600.0,1.0,,,,,,,,,cyan,circle
0.0,3.0,2.0,0.0,5.0,5.0,819.0254410001216,3.0,1.0,phase_2,go,350.0,600.0,1.0,,,,,,,,,yellow,I
0.0,2.0,1.0,0.0,6.0,6.0,659.8477019997517,3.0,1.0,phase_2,go,350.0,600.0,1.0,,,,,,,,,cyan,circle
0.0,5.0,0.5,1.0,5.0,0.0,0.0,3.0,1.0,phase_2,stop,350.0,600.0,4.0,,,,,,,,,blue,diamond
0.0,7.0,2.0,1.0,6.0,6.0,813.8314630000423,3.0,1.0,phase_2,stop,400.0,600.0,3.0,,,,,,,,,green,square
0.0,3.0,2.0,0.0,6.0,6.0,723.7403539998013,3.0,1.0,phase_2,go,400.0,550.0,1.0,,,,,,,,,yellow,I
0.0,1.0,0.5,0.0,6.0,6.0,873.5091839998859,3.0,1.0,phase_2,go,400.0,550.0,1.0,,,,,,,,,white,flipped triangle
0.0,8.0,4.0,1.0,6.0,0.0,0.0,3.0,1.0,phase_2,stop,400.0,550.0,4.0,,,,,,,,,gray,cross
0.0,1.0,0.5,0.0,5.0,5.0,927.3131720001402,3.0,1.0,phase_2,go,400.0,600.0,1.0,,,,,,,,,white,flipped triangle
0.0,3.0,2.0,0.0,6.0,6.0,881.9488909998654,3.0,1.0,phase_2,go,400.0,600.0,1.0,,,,,,,,,yellow,I
0.0,6.0,1.0,1.0,5.0,5.0,463.8351139997212,3.0,1.0,phase_2,stop,400.0,600.0,3.0,,,,,,,,,orange,hexagon
0.0,6.0,1.0,1.0,6.0,6.0,565.7528319998164,3.0,1.0,phase_2,go,350.0,600.0,1.0,,,,,,,,,orange,hexagon
0.0,5.0,0.5,1.0,5.0,5.0,542.8225919999932,3.0,1.0,phase_2,stop,350.0,600.0,3.0,,,,,,,,,blue,diamond
0.0,3.0,2.0,0.0,6.0,6.0,613.51182899989,3.0,1.0,phase_2,go,300.0,600.0,1.0,,,,,,,,,yellow,I
0.0,2.0,1.0,0.0,6.0,6.0,566.1469090000537,3.0,1.0,phase_2,go,300.0,600.0,1.0,,,,,,,,,cyan,circle
0.0,5.0,0.5,1.0,6.0,6.0,930.418052999812,3.0,1.0,phase_2,go,300.0,600.0,1.0,,,,,,,,,blue,diamond
0.0,1.0,0.5,0.0,5.0,5.0,529.5559040000626,3.0,1.0,phase_2,go,300.0,600.0,1.0,,,,,,,,,white,flipped triangle
0.0,3.0,2.0,0.0,5.0,5.0,597.0157339997968,3.0,1.0,phase_2,go,300.0,600.0,1.0,,,,,,,,,yellow,I
0.0,2.0,1.0,0.0,6.0,6.0,530.1712790001147,3.0,1.0,phase_2,go,300.0,600.0,1.0,,,,,,,,,cyan,circle
0.0,4.0,4.0,0.0,6.0,6.0,696.4415930001451,3.0,1.0,phase_2,go,300.0,600.0,1.0,,,,,,,,,magenta,triangle
0.0,7.0,2.0,1.0,5.0,0.0,0.0,3.0,1.0,phase_2,stop,300.0,600.0,4.0,,,,,,,,,green,square
0.0,7.0,2.0,1.0,5.0,5.0,827.8201319999425,3.0,1.0,phase_2,go,350.0,600.0,1.0,,,,,,,,,green,square
0.0,3.0,2.0,0.0,5.0,5.0,482.7824389999477,3.0,1.0,phase_2,go,350.0,600.0,1.0,,,,,,,,,yellow,I
0.0,3.0,2.0,0.0,5.0,5.0,492.7893760000188,4.0,1.0,phase_2,go,350.0,600.0,1.0,,,,,,,,,yellow,I
0.0,8.0,4.0,1.0,5.0,5.0,371.9907859999694,4.0,1.0,phase_2,go,350.0,600.0,1.0,,,,,,,,,gray,cross
0.0,8.0,4.0,1.0,5.0,5.0,408.4056639999289,4.0,1.0,phase_2,stop,350.0,600.0,3.0,,,,,,,,,gray,cross
0.0,5.0,0.5,1.0,6.0,6.0,763.2098709996171,4.0,1.0,phase_2,go,300.0,600.0,1.0,,,,,,,,,blue,diamond
0.0,7.0,2.0,1.0,6.0,6.0,503.9966120002646,4.0,1.0,phase_2,stop,300.0,600.0,3.0,,,,,,,,,green,square
0.0,5.0,0.5,1.0,5.0,5.0,298.0399170000964,4.0,1.0,phase_2,stop,300.0,550.0,3.0,,,,,,,,,blue,diamond
0.0,5.0,0.5,1.0,6.0,6.0,521.4950240001599,4.0,1.0,phase_2,stop,250.0,550.0,3.0,,,,,,,,,blue,diamond
0.0,6.0,1.0,1.0,6.0,6.0,745.5551019997984,4.0,1.0,phase_2,go,250.0,500.0,1.0,,,,,,,,,orange,hexagon
0.0,7.0,2.0,1.0,6.0,6.0,624.7911270002078,4.0,1.0,phase_2,stop,250.0,500.0,3.0,,,,,,,,,green,square
0.0,8.0,4.0,1.0,6.0,6.0,502.7688489999491,4.0,1.0,phase_2,stop,250.0,450.0,3.0,,,,,,,,,gray,cross
0.0,2.0,1.0,0.0,5.0,5.0,644.4443159998627,4.0,1.0,phase_2,go,250.0,400.0,1.0,,,,,,,,,cyan,circle
0.0,3.0,2.0,0.0,6.0,6.0,679.1476319999674,4.0,1.0,phase_2,go,250.0,400.0,1.0,,,,,,,,,yellow,I
0.0,2.0,1.0,0.0,6.0,6.0,566.9371929998306,4.0,1.0,phase_2,go,250.0,400.0,1.0,,,,,,,,,cyan,circle
0.0,8.0,4.0,1.0,6.0,0.0,0.0,4.0,1.0,phase_2,stop,250.0,400.0,4.0,,,,,,,,,gray,cross
0.0,1.0,0.5,0.0,6.0,6.0,641.8219380002483,4.0,1.0,phase_2,go,250.0,450.0,1.0,,,,,,,,,white,flipped triangle
0.0,2.0,1.0,0.0,5.0,5.0,585.9646389999398,4.0,1.0,phase_2,go,250.0,450.0,1.0,,,,,,,,,cyan,circle
0.0,1.0,0.5,0.0,6.0,6.0,715.7428129999062,4.0,1.0,phase_2,go,250.0,450.0,1.0,,,,,,,,,white,flipped triangle
0.0,3.0,2.0,0.0,6.0,6.0,559.2894890000935,4.0,1.0,phase_2,go,250.0,450.0,1.0,,,,,,,,,yellow,I
0.0,6.0,1.0,1.0,6.0,0.0,0.0,4.0,1.0,phase_2,stop,250.0,450.0,4.0,,,,,,,,,orange,hexagon
0.0,7.0,2.0,1.0,5.0,0.0,0.0,4.0,1.0,phase_2,stop,250.0,500.0,4.0,,,,,,,,,green,square
0.0,7.0,2.0,1.0,5.0,0.0,0.0,4.0,1.0,phase_2,stop,300.0,500.0,4.0,,,,,,,,,green,square
0.0,7.0,2.0,1.0,6.0,6.0,1011.0012770001049,4.0,1.0,phase_2,go,350.0,500.0,1.0,,,,,,,,,green,square
0.0,8.0,4.0,1.0,5.0,5.0,1049.915553000119,4.0,1.0,phase_2,go,350.0,500.0,1.0,,,,,,,,,gray,cross
0.0,8.0,4.0,1.0,5.0,5.0,549.0779960000509,4.0,1.0,phase_2,go,350.0,500.0,1.0,,,,,,,,,gray,cross
0.0,8.0,4.0,1.0,5.0,5.0,423.7581430002137,4.0,1.0,phase_2,stop,350.0,500.0,3.0,,,,,,,,,gray,cross
0.0,6.0,1.0,1.0,6.0,0.0,0.0,4.0,1.0,phase_2,stop,300.0,500.0,4.0,,,,,,,,,orange,hexagon
0.0,6.0,1.0,1.0,6.0,6.0,620.1074989999142,4.0,1.0,phase_2,stop,300.0,550.0,3.0,,,,,,,,,orange,hexagon
0.0,1.0,0.5,0.0,5.0,5.0,595.7986209996307,4.0,1.0,phase_2,go,300.0,500.0,1.0,,,,,,,,,white,flipped triangle
0.0,2.0,1.0,0.0,5.0,5.0,567.1624970000266,4.0,1.0,phase_2,go,300.0,500.0,1.0,,,,,,,,,cyan,circle
0.0,2.0,1.0,0.0,6.0,6.0,650.3771419997975,4.0,1.0,phase_2,go,300.0,500.0,1.0,,,,,,,,,cyan,circle
0.0,3.0,2.0,0.0,5.0,5.0,855.8190049998302,4.0,1.0,phase_2,go,300.0,500.0,1.0,,,,,,,,,yellow,I
0.0,7.0,2.0,1.0,6.0,0.0,0.0,4.0,1.0,phase_2,stop,300.0,500.0,4.0,,,,,,,,,green,square
0.0,3.0,2.0,0.0,5.0,5.0,511.5854269997726,4.0,1.0,phase_2,go,300.0,550.0,1.0,,,,,,,,,yellow,I
0.0,1.0,0.5,0.0,6.0,6.0,855.7865120001225,4.0,1.0,phase_2,go,300.0,550.0,1.0,,,,,,,,,white,flipped triangle
0.0,2.0,1.0,0.0,5.0,5.0,531.1773009998433,4.0,1.0,phase_2,go,300.0,550.0,1.0,,,,,,,,,cyan,circle
0.0,4.0,4.0,0.0,6.0,6.0,844.8883279997972,4.0,1.0,phase_2,go,300.0,550.0,1.0,,,,,,,,,magenta,triangle
0.0,4.0,4.0,0.0,6.0,6.0,1180.8094739999433,5.0,1.0,phase_2,go,300.0,550.0,1.0,,,,,,,,,magenta,triangle
0.0,4.0,4.0,0.0,6.0,6.0,742.8981099997145,5.0,1.0,phase_2,go,300.0,550.0,1.0,,,,,,,,,magenta,triangle
0.0,7.0,2.0,1.0,6.0,6.0,863.3278820002488,5.0,1.0,phase_2,go,300.0,550.0,1.0,,,,,,,,,green,square
0.0,7.0,2.0,1.0,5.0,0.0,0.0,5.0,1.0,phase_2,stop,300.0,550.0,4.0,,,,,,,,,green,square
0.0,4.0,4.0,0.0,5.0,5.0,726.2684530001025,5.0,1.0,phase_2,go,350.0,550.0,1.0,,,,,,,,,magenta,triangle
0.0,4.0,4.0,0.0,6.0,6.0,651.0658490001333,5.0,1.0,phase_2,go,350.0,550.0,1.0,,,,,,,,,magenta,triangle
0.0,5.0,0.5,1.0,6.0,6.0,753.512476999731,5.0,1.0,phase_2,go,350.0,550.0,1.0,,,,,,,,,blue,diamond
0.0,2.0,1.0,0.0,5.0,5.0,698.7635420000515,5.0,1.0,phase_2,go,350.0,550.0,1.0,,,,,,,,,cyan,circle
0.0,1.0,0.5,0.0,5.0,5.0,773.0569669997749,5.0,1.0,phase_2,go,350.0,550.0,1.0,,,,,,,,,white,flipped triangle
0.0,1.0,0.5,0.0,5.0,5.0,650.9288669999478,5.0,1.0,phase_2,go,350.0,550.0,1.0,,,,,,,,,white,flipped triangle
0.0,8.0,4.0,1.0,6.0,6.0,681.0741429999325,5.0,1.0,phase_2,stop,350.0,550.0,3.0,,,,,,,,,gray,cross
0.0,1.0,0.5,0.0,5.0,5.0,669.5350219997636,5.0,1.0,phase_2,go,350.0,500.0,1.0,,,,,,,,,white,flipped triangle
0.0,5.0,0.5,1.0,5.0,0.0,0.0,5.0,1.0,phase_2,stop,350.0,500.0,4.0,,,,,,,,,blue,diamond
0.0,1.0,0.5,0.0,5.0,5.0,948.8123159999304,5.0,1.0,phase_2,go,400.0,500.0,1.0,,,,,,,,,white,flipped triangle
0.0,8.0,4.0,1.0,5.0,5.0,555.5170180000459,5.0,1.0,phase_2,stop,400.0,500.0,3.0,,,,,,,,,gray,cross
0.0,7.0,2.0,1.0,5.0,0.0,0.0,5.0,1.0,phase_2,stop,350.0,500.0,4.0,,,,,,,,,green,square
0.0,1.0,0.5,0.0,5.0,5.0,911.8448290000742,5.0,1.0,phase_2,go,400.0,500.0,1.0,,,,,,,,,white,flipped triangle
0.0,6.0,1.0,1.0,6.0,0.0,0.0,5.0,1.0,phase_2,stop,400.0,500.0,4.0,,,,,,,,,orange,hexagon
0.0,1.0,0.5,0.0,6.0,6.0,993.0878989998746,5.0,1.0,phase_2,go,400.0,550.0,1.0,,,,,,,,,white,flipped triangle
0.0,1.0,0.5,0.0,5.0,5.0,929.4421240001612,5.0,1.0,phase_2,go,400.0,550.0,1.0,,,,,,,,,white,flipped triangle
0.0,5.0,0.5,1.0,6.0,6.0,722.2641610001119,5.0,1.0,phase_2,stop,400.0,550.0,3.0,,,,,,,,,blue,diamond
0.0,7.0,2.0,1.0,6.0,0.0,0.0,5.0,1.0,phase_2,stop,400.0,500.0,4.0,,,,,,,,,green,square
0.0,4.0,4.0,0.0,5.0,5.0,678.1190820001939,5.0,1.0,phase_2,go,400.0,550.0,1.0,,,,,,,,,magenta,triangle
0.0,8.0,4.0,1.0,6.0,0.0,0.0,5.0,1.0,phase_2,stop,400.0,550.0,4.0,,,,,,,,,gray,cross
0.0,5.0,0.5,1.0,5.0,0.0,0.0,5.0,1.0,phase_2,stop,400.0,600.0,4.0,,,,,,,,,blue,diamond
0.0,8.0,4.0,1.0,6.0,0.0,0.0,5.0,1.0,phase_2,stop,450.0,600.0,4.0,,,,,,,,,gray,cross
0.0,1.0,0.5,0.0,6.0,6.0,797.9662859997916,5.0,1.0,phase_2,go,450.0,650.0,1.0,,,,,,,,,white,flipped triangle
0.0,5.0,0.5,1.0,5.0,5.0,1033.7991510000393,5.0,1.0,phase_2,go,450.0,650.0,1.0,,,,,,,,,blue,diamond
0.0,5.0,0.5,1.0,6.0,0.0,0.0,5.0,1.0,phase_2,stop,450.0,650.0,4.0,,,,,,,,,blue,diamond
0.0,8.0,4.0,1.0,5.0,0.0,0.0,5.0,1.0,phase_2,stop,450.0,700.0,4.0,,,,,,,,,gray,cross
0.0,8.0,4.0,1.0,6.0,0.0,0.0,5.0,1.0,phase_2,stop,500.0,700.0,4.0,,,,,,,,,gray,cross
0.0,3.0,2.0,0.0,6.0,6.0,918.4576610000476,5.0,1.0,phase_2,go,500.0,750.0,1.0,,,,,,,,,yellow,I
0.0,6.0,1.0,1.0,5.0,5.0,911.9742530001532,5.0,1.0,phase_2,go,500.0,750.0,1.0,,,,,,,,,orange,hexagon
0.0,7.0,2.0,1.0,5.0,0.0,0.0,5.0,1.0,phase_2,stop,500.0,750.0,4.0,,,,,,,,,green,square
0.0,2.0,1.0,0.0,5.0,5.0,816.2862590002078,5.0,1.0,phase_2,go,550.0,750.0,1.0,,,,,,,,,cyan,circle
0.0,8.0,4.0,1.0,5.0,5.0,938.7130629997956,5.0,1.0,phase_2,go,550.0,750.0,1.0,,,,,,,,,gray,cross
0.0,6.0,1.0,1.0,6.0,6.0,436.1675980003383,6.0,1.0,phase_2,stop,550.0,750.0,3.0,,,,,,,,,orange,hexagon
0.0,6.0,1.0,1.0,5.0,5.0,290.6560820001687,6.0,1.0,phase_2,go,550.0,700.0,1.0,,,,,,,,,orange,hexagon
0.0,5.0,0.5,1.0,6.0,6.0,587.1466010003132,6.0,1.0,phase_2,go,550.0,700.0,1.0,,,,,,,,,blue,diamond
0.0,6.0,1.0,1.0,5.0,5.0,439.9755379999988,6.0,1.0,phase_2,stop,550.0,700.0,3.0,,,,,,,,,orange,hexagon
0.0,6.0,1.0,1.0,5.0,5.0,629.9331909999637,6.0,1.0,phase_2,stop,500.0,700.0,3.0,,,,,,,,,orange,hexagon
0.0,4.0,4.0,0.0,5.0,5.0,347.2164390000216,6.0,1.0,phase_2,go,450.0,700.0,1.0,,,,,,,,,magenta,triangle
0.0,7.0,2.0,1.0,6.0,6.0,318.0026699997142,6.0,1.0,phase_2,go,450.0,700.0,1.0,,,,,,,,,green,square
0.0,4.0,4.0,0.0,6.0,6.0,450.50575699997347,6.0,1.0,phase_2,go,450.0,700.0,1.0,,,,,,,,,magenta,triangle
0.0,6.0,1.0,1.0,5.0,0.0,0.0,6.0,1.0,phase_2,stop,450.0,700.0,4.0,,,,,,,,,orange,hexagon
0.0,8.0,4.0,1.0,5.0,5.0,667.503656000008,6.0,1.0,phase_2,stop,500.0,700.0,3.0,,,,,,,,,gray,cross
0.0,4.0,4.0,0.0,5.0,5.0,789.9487529998623,6.0,1.0,phase_2,go,450.0,700.0,1.0,,,,,,,,,magenta,triangle
0.0,5.0,0.5,1.0,5.0,5.0,975.6364690001648,6.0,1.0,phase_2,go,450.0,700.0,1.0,,,,,,,,,blue,diamond
0.0,4.0,4.0,0.0,5.0,5.0,854.4661619998806,6.0,1.0,phase_2,go,450.0,700.0,1.0,,,,,,,,,magenta,triangle
0.0,2.0,1.0,0.0,5.0,5.0,909.0805259997978,6.0,1.0,phase_2,go,450.0,700.0,1.0,,,,,,,,,cyan,circle
0.0,1.0,0.5,0.0,6.0,6.0,743.6938569999256,6.0,1.0,phase_2,go,450.0,700.0,1.0,,,,,,,,,white,flipped triangle
0.0,4.0,4.0,0.0,5.0,5.0,827.1033590003753,6.0,1.0,phase_2,go,450.0,700.0,1.0,,,,,,,,,magenta,triangle
0.0,4.0,4.0,0.0,5.0,5.0,714.8565509996843,6.0,1.0,phase_2,go,450.0,700.0,1.0,,,,,,,,,magenta,triangle
0.0,5.0,0.5,1.0,6.0,0.0,0.0,6.0,1.0,phase_2,stop,450.0,700.0,4.0,,,,,,,,,blue,diamond
0.0,6.0,1.0,1.0,5.0,0.0,0.0,6.0,1.0,phase_2,stop,450.0,750.0,4.0,,,,,,,,,orange,hexagon
0.0,6.0,1.0,1.0,5.0,0.0,0.0,6.0,1.0,phase_2,stop,500.0,750.0,4.0,,,,,,,,,orange,hexagon
0.0,1.0,0.5,0.0,6.0,6.0,630.3734180000902,6.0,1.0,phase_2,go,550.0,750.0,1.0,,,,,,,,,white,flipped triangle
0.0,1.0,0.5,0.0,6.0,6.0,807.0809979999467,6.0,1.0,phase_2,go,550.0,750.0,1.0,,,,,,,,,white,flipped triangle
0.0,5.0,0.5,1.0,5.0,0.0,0.0,6.0,1.0,phase_2,stop,550.0,750.0,4.0,,,,,,,,,blue,diamond
0.0,1.0,0.5,0.0,5.0,0.0,0.0,6.0,1.0,phase_2,go,600.0,750.0,5.0,,,,,,,,,white,flipped triangle
0.0,5.0,0.5,1.0,5.0,5.0,769.0125439999065,6.0,1.0,phase_2,stop,600.0,750.0,3.0,,,,,,,,,blue,diamond
0.0,6.0,1.0,1.0,5.0,5.0,399.9873590000788,6.0,1.0,phase_2,go,550.0,750.0,1.0,,,,,,,,,orange,hexagon
0.0,2.0,1.0,0.0,6.0,6.0,566.4911949997986,6.0,1.0,phase_2,go,550.0,750.0,1.0,,,,,,,,,cyan,circle
0.0,5.0,0.5,1.0,6.0,6.0,707.5536130000728,6.0,1.0,phase_2,go,550.0,750.0,1.0,,,,,,,,,blue,diamond
0.0,1.0,0.5,0.0,6.0,6.0,372.7213930001198,6.0,1.0,phase_2,go,550.0,750.0,1.0,,,,,,,,,white,flipped triangle
0.0,7.0,2.0,1.0,5.0,5.0,454.2630129999452,6.0,1.0,phase_2,go,550.0,750.0,1.0,,,,,,,,,green,square
0.0,6.0,1.0,1.0,6.0,6.0,659.67032799972,6.0,1.0,phase_2,stop,550.0,750.0,3.0,,,,,,,,,orange,hexagon
0.0,2.0,1.0,0.0,6.0,6.0,577.2439840002335,6.0,1.0,phase_2,go,550.0,700.0,1.0,,,,,,,,,cyan,circle
0.0,8.0,4.0,1.0,6.0,6.0,558.8126109996665,6.0,1.0,phase_2,go,550.0,700.0,1.0,,,,,,,,,gray,cross
0.0,7.0,2.0,1.0,5.0,5.0,595.1903559998755,6.0,1.0,phase_2,go,550.0,700.0,1.0,,,,,,,,,green,square
0.0,1.0,0.5,0.0,6.0,6.0,956.3567759996658,6.0,1.0,phase_2,go,550.0,700.0,1.0,,,,,,,,,white,flipped triangle
0.0,6.0,1.0,1.0,5.0,0.0,0.0,6.0,1.0,phase_2,stop,550.0,700.0,4.0,,,,,,,,,orange,hexagon
0.0,5.0,0.5,1.0,5.0,5.0,412.8713000000061,7.0,1.0,phase_2,stop,600.0,700.0,3.0,,,,,,,,,blue,diamond
0.0,8.0,4.0,1.0,6.0,6.0,401.2525370003459,7.0,1.0,phase_2,stop,550.0,700.0,3.0,,,,,,,,,gray,cross
0.0,2.0,1.0,0.0,6.0,6.0,484.2131190002874,7.0,1.0,phase_2,go,550.0,650.0,1.0,,,,,,,,,cyan,circle
0.0,3.0,2.0,0.0,5.0,5.0,306.6467080002439,7.0,1.0,phase_2,go,550.0,650.0,1.0,,,,,,,,,yellow,I
0.0,7.0,2.0,1.0,6.0,6.0,548.0744229998891,7.0,1.0,phase_2,go,550.0,650.0,1.0,,,,,,,,,green,square
0.0,8.0,4.0,1.0,6.0,6.0,520.2034789999743,7.0,1.0,phase_2,stop,550.0,650.0,3.0,,,,,,,,,gray,cross
0.0,3.0,2.0,0.0,5.0,5.0,576.7674019998594,7.0,1.0,phase_2,go,550.0,600.0,1.0,,,,,,,,,yellow,I
0.0,1.0,0.5,0.0,6.0,6.0,697.9618919999666,7.0,1.0,phase_2,go,550.0,600.0,1.0,,,,,,,,,white,flipped triangle
0.0,7.0,2.0,1.0,6.0,6.0,680.0727469999401,7.0,1.0,phase_2,go,550.0,600.0,1.0,,,,,,,,,green,square
0.0,6.0,1.0,1.0,6.0,6.0,531.4719019997938,7.0,1.0,phase_2,stop,550.0,600.0,3.0,,,,,,,,,orange,hexagon
0.0,5.0,0.5,1.0,5.0,5.0,661.1983689999761,7.0,1.0,phase_2,go,550.0,550.0,1.0,,,,,,,,,blue,diamond
0.0,7.0,2.0,1.0,6.0,6.0,549.3289800001548,7.0,1.0,phase_2,stop,550.0,550.0,3.0,,,,,,,,,green,square
0.0,3.0,2.0,0.0,6.0,6.0,425.8706890000212,7.0,1.0,phase_2,go,550.0,500.0,1.0,,,,,,,,,yellow,I
0.0,5.0,0.5,1.0,6.0,0.0,0.0,7.0,1.0,phase_2,stop,550.0,500.0,4.0,,,,,,,,,blue,diamond
0.0,2.0,1.0,0.0,5.0,5.0,763.0001910001738,7.0,1.0,phase_2,go,550.0,550.0,1.0,,,,,,,,,cyan,circle
0.0,3.0,2.0,0.0,5.0,5.0,853.7073449997479,7.0,1.0,phase_2,go,550.0,550.0,1.0,,,,,,,,,yellow,I
0.0,6.0,1.0,1.0,5.0,5.0,1001.4284590001807,7.0,1.0,phase_2,go,550.0,550.0,1.0,,,,,,,,,orange,hexagon
0.0,2.0,1.0,0.0,5.0,5.0,613.8719479999963,7.0,1.0,phase_2,go,550.0,550.0,1.0,,,,,,,,,cyan,circle
0.0,8.0,4.0,1.0,5.0,5.0,761.7949089999456,7.0,1.0,phase_2,go,550.0,550.0,1.0,,,,,,,,,gray,cross
0.0,2.0,1.0,0.0,6.0,6.0,930.02056000023,7.0,1.0,phase_2,go,550.0,550.0,1.0,,,,,,,,,cyan,circle
0.0,5.0,0.5,1.0,6.0,0.0,0.0,7.0,1.0,phase_2,stop,550.0,550.0,4.0,,,,,,,,,blue,diamond
0.0,6.0,1.0,1.0,5.0,5.0,649.0973939999094,7.0,1.0,phase_2,stop,550.0,600.0,3.0,,,,,,,,,orange,hexagon
0.0,2.0,1.0,0.0,6.0,6.0,928.8913169998524,7.0,1.0,phase_2,go,500.0,600.0,1.0,,,,,,,,,cyan,circle
0.0,7.0,2.0,1.0,5.0,0.0,0.0,7.0,1.0,phase_2,stop,500.0,600.0,4.0,,,,,,,,,green,square
0.0,4.0,4.0,0.0,5.0,5.0,983.2498710002257,7.0,1.0,phase_2,go,550.0,600.0,1.0,,,,,,,,,magenta,triangle
0.0,8.0,4.0,1.0,5.0,5.0,639.0113870002097,7.0,1.0,phase_2,stop,550.0,600.0,3.0,,,,,,,,,gray,cross
0.0,5.0,0.5,1.0,5.0,5.0,683.3746580000479,7.0,1.0,phase_2,stop,500.0,600.0,3.0,,,,,,,,,blue,diamond
0.0,2.0,1.0,0.0,6.0,6.0,916.8342790003408,7.0,1.0,phase_2,go,450.0,600.0,1.0,,,,,,,,,cyan,circle
0.0,8.0,4.0,1.0,6.0,6.0,709.520712000085,7.0,1.0,phase_2,stop,450.0,600.0,3.0,,,,,,,,,gray,cross
0.0,4.0,4.0,0.0,6.0,6.0,760.9607320000578,7.0,1.0,phase_2,go,450.0,550.0,1.0,,,,,,,,,magenta,triangle
0.0,7.0,2.0,1.0,5.0,0.0,0.0,7.0,1.0,phase_2,stop,450.0,550.0,4.0,,,,,,,,,green,square
0.0,3.0,2.0,0.0,6.0,6.0,687.0889899996655,7.0,1.0,phase_2,go,500.0,550.0,1.0,,,,,,,,,yellow,I
0.0,6.0,1.0,1.0,5.0,5.0,815.7614060000924,7.0,1.0,phase_2,go,500.0,550.0,1.0,,,,,,,,,orange,hexagon
0.0,5.0,0.5,1.0,6.0,0.0,0.0,7.0,1.0,phase_2,stop,500.0,550.0,4.0,,,,,,,,,blue,diamond
0.0,2.0,1.0,0.0,5.0,5.0,815.3158210002402,7.0,1.0,phase_2,go,500.0,600.0,1.0,,,,,,,,,cyan,circle
0.0,8.0,4.0,1.0,6.0,0.0,0.0,7.0,1.0,phase_2,stop,500.0,600.0,4.0,,,,,,,,,gray,cross
0.0,8.0,4.0,1.0,5.0,5.0,483.6567259999356,8.0,1.0,phase_2,stop,500.0,650.0,3.0,,,,,,,,,gray,cross
0.0,1.0,0.5,0.0,6.0,6.0,687.8731759998118,8.0,1.0,phase_2,go,450.0,650.0,1.0,,,,,,,,,white,flipped triangle
0.0,6.0,1.0,1.0,6.0,6.0,701.9180740003321,8.0,1.0,phase_2,stop,450.0,650.0,3.0,,,,,,,,,orange,hexagon
0.0,7.0,2.0,1.0,5.0,0.0,0.0,8.0,1.0,phase_2,stop,450.0,600.0,4.0,,,,,,,,,green,square
0.0,7.0,2.0,1.0,6.0,6.0,251.284840000153,8.0,1.0,phase_2,stop,500.0,600.0,3.0,,,,,,,,,green,square
0.0,1.0,0.5,0.0,5.0,5.0,354.5196420000138,8.0,1.0,phase_2,go,500.0,550.0,1.0,,,,,,,,,white,flipped triangle
0.0,6.0,1.0,1.0,5.0,5.0,572.9583449997335,8.0,1.0,phase_2,stop,500.0,550.0,3.0,,,,,,,,,orange,hexagon
0.0,7.0,2.0,1.0,5.0,0.0,0.0,8.0,1.0,phase_2,stop,450.0,550.0,4.0,,,,,,,,,green,square
0.0,6.0,1.0,1.0,6.0,6.0,626.9260290000602,8.0,1.0,phase_2,stop,500.0,550.0,3.0,,,,,,,,,orange,hexagon
0.0,2.0,1.0,0.0,5.0,5.0,510.3779329997451,8.0,1.0,phase_2,go,500.0,500.0,1.0,,,,,,,,,cyan,circle
0.0,4.0,4.0,0.0,5.0,5.0,540.0377589999152,8.0,1.0,phase_2,go,500.0,500.0,1.0,,,,,,,,,magenta,triangle
0.0,1.0,0.5,0.0,6.0,6.0,492.9398079998464,8.0,1.0,phase_2,go,500.0,500.0,1.0,,,,,,,,,white,flipped triangle
0.0,2.0,1.0,0.0,6.0,6.0,659.6721999999318,8.0,1.0,phase_2,go,500.0,500.0,1.0,,,,,,,,,cyan,circle
0.0,2.0,1.0,0.0,5.0,5.0,734.3607660000089,8.0,1.0,phase_2,go,500.0,500.0,1.0,,,,,,,,,cyan,circle
0.0,8.0,4.0,1.0,5.0,5.0,568.873025999892,8.0,1.0,phase_2,stop,500.0,500.0,3.0,,,,,,,,,gray,cross
0.0,6.0,1.0,1.0,6.0,0.0,0.0,8.0,1.0,phase_2,stop,450.0,500.0,4.0,,,,,,,,,orange,hexagon
0.0,4.0,4.0,0.0,6.0,6.0,918.8341730000502,8.0,1.0,phase_2,go,450.0,550.0,1.0,,,,,,,,,magenta,triangle
0.0,8.0,4.0,1.0,5.0,0.0,0.0,8.0,1.0,phase_2,stop,450.0,550.0,4.0,,,,,,,,,gray,cross
0.0,1.0,0.5,0.0,6.0,6.0,1160.1170250000905,8.0,1.0,phase_2,go,500.0,550.0,1.0,,,,,,,,,white,flipped triangle
0.0,7.0,2.0,1.0,6.0,0.0,0.0,8.0,1.0,phase_2,stop,500.0,550.0,4.0,,,,,,,,,green,square
0.0,5.0,0.5,1.0,6.0,0.0,0.0,8.0,1.0,phase_2,stop,500.0,600.0,4.0,,,,,,,,,blue,diamond
0.0,1.0,0.5,0.0,5.0,5.0,789.3453870001395,8.0,1.0,phase_2,go,500.0,650.0,1.0,,,,,,,,,white,flipped triangle
0.0,2.0,1.0,0.0,6.0,6.0,689.1130119997797,8.0,1.0,phase_2,go,500.0,650.0,1.0,,,,,,,,,cyan,circle
0.0,5.0,0.5,1.0,6.0,0.0,0.0,8.0,1.0,phase_2,stop,500.0,650.0,4.0,,,,,,,,,blue,diamond
0.0,4.0,4.0,0.0,5.0,5.0,964.6693360000428,8.0,1.0,phase_2,go,500.0,700.0,1.0,,,,,,,,,magenta,triangle
0.0,7.0,2.0,1.0,5.0,5.0,985.4353129999254,8.0,1.0,phase_2,go,500.0,700.0,1.0,,,,,,,,,green,square
0.0,4.0,4.0,0.0,6.0,6.0,827.6473139999325,8.0,1.0,phase_2,go,500.0,700.0,1.0,,,,,,,,,magenta,triangle
0.0,4.0,4.0,0.0,5.0,5.0,939.2125800000032,8.0,1.0,phase_2,go,500.0,700.0,1.0,,,,,,,,,magenta,triangle
0.0,4.0,4.0,0.0,6.0,6.0,986.9632109998748,8.0,1.0,phase_2,go,500.0,700.0,1.0,,,,,,,,,magenta,triangle
0.0,3.0,2.0,0.0,6.0,6.0,937.875128000087,8.0,1.0,phase_2,go,500.0,700.0,1.0,,,,,,,,,yellow,I
0.0,2.0,1.0,0.0,5.0,5.0,1024.0612839997991,8.0,1.0,phase_2,go,500.0,700.0,1.0,,,,,,,,,cyan,circle
0.0,4.0,4.0,0.0,6.0,6.0,845.5620589998034,8.0,1.0,phase_2,go,500.0,700.0,1.0,,,,,,,,,magenta,triangle
0.0,8.0,4.0,1.0,6.0,0.0,0.0,8.0,1.0,phase_2,stop,500.0,700.0,4.0,,,,,,,,,gray,cross
0.0,8.0,4.0,1.0,6.0,6.0,946.6923599998154,8.0,1.0,phase_2,go,500.0,750.0,1.0,,,,,,,,,gray,cross
0.0,2.0,1.0,0.0,6.0,6.0,799.7840450002514,8.0,1.0,phase_2,go,500.0,750.0,1.0,,,,,,,,,cyan,circle
0.0,5.0,0.5,1.0,6.0,6.0,741.6234199999963,8.0,1.0,phase_2,stop,500.0,750.0,3.0,,,,,,,,,blue,diamond
0.0,3.0,2.0,0.0,7.0,3.0,1423.8709230003224,1.0,2.0,phase_3,,,,,576.0,3.0,768.0,1152.0,576.0,384.0,192.0,960.0,yellow,I
0.0,8.0,4.0,1.0,7.0,2.0,1700.0865849995537,1.0,1.0,phase_3,,,,,462.0,3.0,924.0,462.0,616.0,770.0,308.0,154.0,gray,cross
0.0,5.0,0.5,1.0,7.0,5.0,2536.5163080005004,1.0,1.0,phase_3,,,,,462.0,3.0,616.0,924.0,308.0,154.0,462.0,770.0,blue,diamond
0.0,7.0,2.0,1.0,7.0,2.0,1723.7533869993058,1.0,1.0,phase_3,,,,,810.0,6.0,540.0,810.0,405.0,270.0,675.0,135.0,green,square
0.0,1.0,0.5,0.0,7.0,1.0,2564.920231000542,1.0,1.0,phase_3,,,,,384.0,2.0,384.0,768.0,576.0,960.0,1152.0,192.0,white,flipped triangle
0.0,7.0,2.0,1.0,7.0,4.0,1813.7055779998263,1.0,1.0,phase_3,,,,,770.0,5.0,154.0,308.0,616.0,770.0,924.0,462.0,green,square
0.0,6.0,1.0,1.0,7.0,3.0,2160.0123400003213,1.0,1.0,phase_3,,,,,865.0,5.0,519.0,346.0,865.0,1038.0,692.0,173.0,orange,hexagon
0.0,3.0,2.0,0.0,7.0,5.0,1737.8655760003312,1.0,1.0,phase_3,,,,,810.0,6.0,405.0,135.0,270.0,675.0,810.0,540.0,yellow,I
0.0,1.0,0.5,0.0,7.0,4.0,1926.777415000288,1.0,1.0,phase_3,,,,,405.0,3.0,270.0,135.0,540.0,405.0,810.0,675.0,white,flipped triangle
0.0,3.0,2.0,0.0,7.0,2.0,2488.5866180002267,1.0,1.0,phase_3,,,,,580.0,5.0,696.0,580.0,116.0,464.0,232.0,348.0,yellow,I
0.0,7.0,2.0,1.0,7.0,5.0,1821.2971740003925,1.0,1.0,phase_3,,,,,540.0,4.0,405.0,675.0,135.0,810.0,540.0,270.0,green,square
0.0,4.0,4.0,0.0,7.0,3.0,2518.278148999343,1.0,1.0,phase_3,,,,,675.0,5.0,405.0,540.0,675.0,135.0,270.0,810.0,magenta,triangle
0.0,7.0,2.0,1.0,7.0,6.0,2382.33330499952,1.0,1.0,phase_3,,,,,865.0,5.0,692.0,346.0,1038.0,173.0,519.0,865.0,green,square
0.0,4.0,4.0,0.0,7.0,3.0,2610.7504490000792,1.0,1.0,phase_3,,,,,1038.0,6.0,519.0,173.0,1038.0,692.0,346.0,865.0,magenta,triangle
0.0,2.0,1.0,0.0,7.0,2.0,2288.503980000314,1.0,1.0,phase_3,,,,,696.0,6.0,116.0,696.0,580.0,232.0,464.0,348.0,cyan,circle
0.0,5.0,0.5,1.0,7.0,5.0,1634.917053999743,1.0,1.0,phase_3,,,,,580.0,5.0,696.0,464.0,116.0,348.0,580.0,232.0,blue,diamond
0.0,6.0,1.0,1.0,7.0,4.0,3140.545876999568,1.0,1.0,phase_3,,,,,960.0,5.0,576.0,192.0,768.0,960.0,384.0,1152.0,orange,hexagon
0.0,1.0,0.5,0.0,7.0,1.0,3372.794575999251,1.0,1.0,phase_3,,,,,462.0,3.0,462.0,770.0,924.0,616.0,308.0,154.0,white,flipped triangle
0.0,5.0,0.5,1.0,7.0,5.0,2303.310912000597,1.0,1.0,phase_3,,,,,692.0,4.0,173.0,519.0,346.0,865.0,692.0,1038.0,blue,diamond
0.0,8.0,4.0,1.0,7.0,3.0,1775.649608999629,1.0,1.0,phase_3,,,,,464.0,4.0,580.0,116.0,464.0,348.0,696.0,232.0,gray,cross
0.0,6.0,1.0,1.0,7.0,5.0,1534.463018999304,2.0,1.0,phase_3,,,,,616.0,4.0,924.0,154.0,462.0,770.0,616.0,308.0,orange,hexagon
0.0,3.0,2.0,0.0,7.0,4.0,2123.995904000367,2.0,1.0,phase_3,,,,,540.0,4.0,810.0,135.0,675.0,540.0,405.0,270.0,yellow,I
0.0,4.0,4.0,0.0,7.0,3.0,2276.0604179993607,2.0,1.0,phase_3,,,,,462.0,3.0,308.0,616.0,462.0,154.0,924.0,770.0,magenta,triangle
0.0,2.0,1.0,0.0,7.0,5.0,2784.487474999878,2.0,1.0,phase_3,,,,,464.0,4.0,580.0,348.0,232.0,696.0,464.0,116.0,cyan,circle
0.0,2.0,1.0,0.0,7.0,6.0,3112.001628000144,2.0,1.0,phase_3,,,,,462.0,3.0,616.0,154.0,308.0,924.0,770.0,462.0,cyan,circle
0.0,7.0,2.0,1.0,7.0,1.0,2844.989891000296,2.0,1.0,phase_3,,,,,770.0,5.0,770.0,308.0,462.0,924.0,154.0,616.0,green,square
0.0,8.0,4.0,1.0,7.0,3.0,2355.886162999923,2.0,1.0,phase_3,,,,,960.0,5.0,768.0,1152.0,960.0,192.0,576.0,384.0,gray,cross
0.0,1.0,0.5,0.0,7.0,1.0,2542.080658999112,2.0,1.0,phase_3,,,,,384.0,2.0,384.0,960.0,576.0,192.0,768.0,1152.0,white,flipped triangle
0.0,8.0,4.0,1.0,7.0,5.0,1966.404753999996,2.0,1.0,phase_3,,,,,675.0,5.0,810.0,540.0,405.0,270.0,675.0,135.0,gray,cross
0.0,7.0,2.0,1.0,7.0,5.0,2617.006358999788,2.0,1.0,phase_3,,,,,576.0,3.0,192.0,384.0,768.0,1152.0,576.0,960.0,green,square
0.0,8.0,4.0,1.0,7.0,2.0,2833.594944000652,2.0,1.0,phase_3,,,,,576.0,3.0,768.0,576.0,1152.0,192.0,960.0,384.0,gray,cross
0.0,1.0,0.5,0.0,7.0,3.0,2706.972735999443,2.0,1.0,phase_3,,,,,696.0,6.0,580.0,464.0,696.0,116.0,232.0,348.0,white,flipped triangle
0.0,3.0,2.0,0.0,7.0,4.0,2484.631014000115,2.0,1.0,phase_3,,,,,462.0,3.0,154.0,616.0,770.0,462.0,924.0,308.0,yellow,I
0.0,1.0,0.5,0.0,7.0,4.0,2143.690122999942,2.0,1.0,phase_3,,,,,116.0,1.0,580.0,348.0,232.0,116.0,696.0,464.0,white,flipped triangle
0.0,2.0,1.0,0.0,7.0,3.0,3094.12691200032,2.0,1.0,phase_3,,,,,675.0,5.0,270.0,405.0,675.0,810.0,135.0,540.0,cyan,circle
0.0,6.0,1.0,1.0,7.0,3.0,2308.5633110003982,2.0,1.0,phase_3,,,,,696.0,6.0,348.0,116.0,696.0,580.0,464.0,232.0,orange,hexagon
0.0,4.0,4.0,0.0,7.0,1.0,2074.409642000319,2.0,1.0,phase_3,,,,,519.0,3.0,519.0,1038.0,173.0,692.0,865.0,346.0,magenta,triangle
0.0,7.0,2.0,1.0,7.0,5.0,1459.4722649999312,2.0,1.0,phase_3,,,,,696.0,6.0,464.0,232.0,116.0,348.0,696.0,580.0,green,square
0.0,5.0,0.5,1.0,7.0,3.0,1827.641245999985,2.0,1.0,phase_3,,,,,675.0,5.0,405.0,270.0,675.0,135.0,810.0,540.0,blue,diamond
0.0,5.0,0.5,1.0,7.0,5.0,1272.34197100006,2.0,1.0,phase_3,,,,,576.0,3.0,1152.0,960.0,384.0,192.0,576.0,768.0,blue,diamond
0.0,5.0,0.5,1.0,7.0,6.0,2141.109654000502,3.0,1.0,phase_3,,,,,576.0,3.0,960.0,768.0,384.0,192.0,1152.0,576.0,blue,diamond
0.0,4.0,4.0,0.0,7.0,4.0,2548.623355000018,3.0,1.0,phase_3,,,,,462.0,3.0,154.0,924.0,308.0,462.0,616.0,770.0,magenta,triangle
0.0,7.0,2.0,1.0,7.0,4.0,2705.729453999993,3.0,1.0,phase_3,,,,,519.0,3.0,346.0,692.0,173.0,519.0,1038.0,865.0,green,square
0.0,5.0,0.5,1.0,7.0,1.0,1692.4016180000765,3.0,1.0,phase_3,,,,,519.0,3.0,519.0,346.0,865.0,1038.0,173.0,692.0,blue,diamond
0.0,5.0,0.5,1.0,7.0,4.0,2499.378954000349,3.0,1.0,phase_3,,,,,924.0,6.0,154.0,616.0,770.0,924.0,462.0,308.0,blue,diamond
0.0,6.0,1.0,1.0,7.0,3.0,1933.2239380000829,3.0,1.0,phase_3,,,,,675.0,5.0,405.0,270.0,675.0,540.0,135.0,810.0,orange,hexagon
0.0,8.0,4.0,1.0,7.0,5.0,1771.901694999542,3.0,1.0,phase_3,,,,,865.0,5.0,1038.0,346.0,692.0,173.0,865.0,519.0,gray,cross
0.0,1.0,0.5,0.0,7.0,5.0,2346.6962479997164,3.0,1.0,phase_3,,,,,308.0,2.0,462.0,770.0,154.0,924.0,308.0,616.0,white,flipped triangle
0.0,6.0,1.0,1.0,7.0,5.0,2223.1101400002444,3.0,1.0,phase_3,,,,,405.0,3.0,270.0,540.0,810.0,135.0,405.0,675.0,orange,hexagon
0.0,3.0,2.0,0.0,7.0,2.0,2370.6447219992697,3.0,1.0,phase_3,,,,,865.0,5.0,1038.0,865.0,692.0,346.0,173.0,519.0,yellow,I
0.0,4.0,4.0,0.0,7.0,5.0,1965.2044449994721,3.0,1.0,phase_3,,,,,348.0,3.0,232.0,464.0,580.0,116.0,348.0,696.0,magenta,triangle
0.0,4.0,4.0,0.0,7.0,5.0,2467.877748000319,3.0,1.0,phase_3,,,,,405.0,3.0,270.0,810.0,540.0,675.0,405.0,135.0,magenta,triangle
0.0,5.0,0.5,1.0,7.0,2.0,2120.0736609998785,3.0,1.0,phase_3,,,,,675.0,5.0,540.0,675.0,405.0,810.0,270.0,135.0,blue,diamond
0.0,2.0,1.0,0.0,7.0,3.0,2318.8972839998314,3.0,1.0,phase_3,,,,,519.0,3.0,173.0,865.0,519.0,346.0,692.0,1038.0,cyan,circle
0.0,6.0,1.0,1.0,7.0,5.0,2421.090546999949,3.0,1.0,phase_3,,,,,232.0,2.0,580.0,696.0,464.0,116.0,232.0,348.0,orange,hexagon
0.0,2.0,1.0,0.0,7.0,1.0,2387.0589079997444,3.0,1.0,phase_3,,,,,576.0,3.0,576.0,384.0,768.0,1152.0,960.0,192.0,cyan,circle
0.0,6.0,1.0,1.0,7.0,5.0,2705.0997160004044,3.0,1.0,phase_3,,,,,616.0,4.0,924.0,308.0,154.0,770.0,616.0,462.0,orange,hexagon
0.0,4.0,4.0,0.0,7.0,5.0,1559.5299920005343,3.0,1.0,phase_3,,,,,580.0,5.0,232.0,696.0,464.0,116.0,580.0,348.0,magenta,triangle
0.0,7.0,2.0,1.0,7.0,3.0,3462.874050000209,3.0,1.0,phase_3,,,,,348.0,3.0,696.0,116.0,348.0,232.0,580.0,464.0,green,square
0.0,6.0,1.0,1.0,7.0,5.0,1254.0426370005662,3.0,1.0,phase_3,,,,,865.0,5.0,346.0,173.0,1038.0,692.0,865.0,519.0,orange,hexagon
0.0,3.0,2.0,0.0,7.0,4.0,2195.4179240001395,4.0,1.0,phase_3,,,,,616.0,4.0,770.0,462.0,154.0,616.0,924.0,308.0,yellow,I
0.0,1.0,0.5,0.0,7.0,3.0,2502.08203999955,4.0,1.0,phase_3,,,,,346.0,2.0,519.0,692.0,346.0,1038.0,173.0,865.0,white,flipped triangle
0.0,2.0,1.0,0.0,7.0,2.0,2784.510024000156,4.0,1.0,phase_3,,,,,675.0,5.0,810.0,675.0,135.0,270.0,405.0,540.0,cyan,circle
0.0,6.0,1.0,1.0,7.0,1.0,3710.299141999712,4.0,1.0,phase_3,,,,,384.0,2.0,384.0,192.0,768.0,576.0,1152.0,960.0,orange,hexagon
0.0,3.0,2.0,0.0,7.0,4.0,2923.121126999831,4.0,1.0,phase_3,,,,,384.0,2.0,960.0,576.0,192.0,384.0,768.0,1152.0,yellow,I
0.0,8.0,4.0,1.0,7.0,6.0,3387.51771599982,4.0,1.0,phase_3,,,,,616.0,4.0,462.0,770.0,154.0,308.0,924.0,616.0,gray,cross
0.0,3.0,2.0,0.0,7.0,5.0,4865.895988000375,4.0,1.0,phase_3,,,,,346.0,2.0,519.0,1038.0,173.0,692.0,346.0,865.0,yellow,I
0.0,4.0,4.0,0.0,7.0,1.0,3284.696962000453,4.0,1.0,phase_3,,,,,576.0,3.0,576.0,384.0,1152.0,960.0,192.0,768.0,magenta,triangle
0.0,8.0,4.0,1.0,7.0,4.0,3968.632727000113,4.0,1.0,phase_3,,,,,810.0,6.0,135.0,675.0,540.0,810.0,405.0,270.0,gray,cross
0.0,2.0,1.0,0.0,7.0,2.0,4406.246716000169,4.0,1.0,phase_3,,,,,768.0,4.0,384.0,768.0,192.0,1152.0,960.0,576.0,cyan,circle
0.0,2.0,1.0,0.0,7.0,2.0,2536.2005460001456,4.0,1.0,phase_3,,,,,462.0,3.0,308.0,462.0,616.0,154.0,924.0,770.0,cyan,circle
0.0,8.0,4.0,1.0,7.0,5.0,2496.575827000015,4.0,1.0,phase_3,,,,,696.0,6.0,348.0,116.0,580.0,464.0,696.0,232.0,gray,cross
0.0,8.0,4.0,1.0,7.0,3.0,4006.6139900000053,4.0,1.0,phase_3,,,,,692.0,4.0,519.0,1038.0,692.0,346.0,173.0,865.0,gray,cross
0.0,5.0,0.5,1.0,7.0,4.0,3870.092379000198,4.0,1.0,phase_3,,,,,580.0,5.0,696.0,116.0,464.0,580.0,232.0,348.0,blue,diamond
0.0,1.0,0.5,0.0,7.0,3.0,3578.984340999341,4.0,1.0,phase_3,,,,,270.0,2.0,675.0,405.0,270.0,540.0,135.0,810.0,white,flipped triangle
0.0,3.0,2.0,0.0,7.0,5.0,1257.6698390003005,4.0,2.0,phase_3,,,,,464.0,4.0,696.0,116.0,348.0,580.0,464.0,232.0,yellow,I
0.0,2.0,1.0,0.0,7.0,5.0,2368.5993429999144,4.0,1.0,phase_3,,,,,519.0,3.0,346.0,865.0,1038.0,692.0,519.0,173.0,cyan,circle
0.0,1.0,0.5,0.0,7.0,3.0,3898.347876000116,4.0,1.0,phase_3,,,,,346.0,2.0,519.0,865.0,346.0,1038.0,692.0,173.0,white,flipped triangle
0.0,4.0,4.0,0.0,7.0,5.0,2710.43038300013,4.0,1.0,phase_3,,,,,768.0,4.0,576.0,1152.0,192.0,960.0,768.0,384.0,magenta,triangle
0.0,7.0,2.0,1.0,7.0,4.0,3565.25855199925,4.0,1.0,phase_3,,,,,768.0,4.0,384.0,960.0,192.0,768.0,1152.0,576.0,green,square
