raw_reward_magnitude,stim_reward,stepwise_reward_magnitude,paired_with_stopping,quadrant,response,reaction_time,block,num_trial_presentations,which_part,stop_signal_trial_type,left_SSD,right_SSD,accuracy,chosen_bidding_amount,chosen_bidding_level,possible_bid_1,possible_bid_2,possible_bid_3,possible_bid_4,possible_bid_5,possible_bid_6,color_text,shape_text
154.0,1.0,1.0,0.0,2.0,2.0,884.9249419999978,1.0,1.0,part_1,,,,,,,,,,,,,white,hexagon
1283.0,4.0,4.0,0.0,2.0,2.0,409.4036160001906,1.0,1.0,part_1,,,,,,,,,,,,,green,triangle
146.0,5.0,1.0,1.0,2.0,2.0,335.5846370000108,1.0,1.0,part_1,,,,,,,,,,,,,yellow,diamond
331.0,6.0,2.0,1.0,1.0,1.0,372.0594070000516,1.0,1.0,part_1,,,,,,,,,,,,,orange,flipped triangle
1312.0,8.0,4.0,1.0,1.0,1.0,343.7900999999783,1.0,2.0,part_1,,,,,,,,,,,,,magenta,circle
319.0,6.0,2.0,1.0,2.0,2.0,400.3058040000269,1.0,1.0,part_1,,,,,,,,,,,,,orange,flipped triangle
309.0,6.0,2.0,1.0,3.0,3.0,520.7049210000605,1.0,1.0,part_1,,,,,,,,,,,,,orange,flipped triangle
0.0,1.0,0.0,0.0,4.0,4.0,344.5026199999574,1.0,1.0,part_1,,,,,,,,,,,,,white,hexagon
336.0,6.0,2.0,1.0,3.0,3.0,511.5322599999672,1.0,1.0,part_1,,,,,,,,,,,,,orange,flipped triangle
167.0,5.0,1.0,1.0,4.0,4.0,409.5448670000223,1.0,1.0,part_1,,,,,,,,,,,,,yellow,diamond
644.0,7.0,3.0,1.0,1.0,1.0,353.4545040001831,1.0,1.0,part_1,,,,,,,,,,,,,gray,square
339.0,6.0,2.0,1.0,2.0,2.0,400.5386630001339,1.0,1.0,part_1,,,,,,,,,,,,,orange,flipped triangle
313.0,2.0,2.0,0.0,1.0,1.0,380.8306850000917,1.0,1.0,part_1,,,,,,,,,,,,,blue,cross
1309.0,8.0,4.0,1.0,4.0,4.0,464.6727519998421,1.0,1.0,part_1,,,,,,,,,,,,,magenta,circle
318.0,2.0,2.0,0.0,2.0,2.0,324.4736500000726,1.0,1.0,part_1,,,,,,,,,,,,,blue,cross
0.0,2.0,0.0,0.0,2.0,2.0,391.8986910000512,1.0,1.0,part_1,,,,,,,,,,,,,blue,cross
318.0,2.0,2.0,0.0,3.0,3.0,372.476387000006,1.0,1.0,part_1,,,,,,,,,,,,,blue,cross
146.0,5.0,1.0,1.0,3.0,3.0,410.0649140000314,1.0,1.0,part_1,,,,,,,,,,,,,yellow,diamond
344.0,6.0,2.0,1.0,4.0,4.0,325.299275999896,1.0,1.0,part_1,,,,,,,,,,,,,orange,flipped triangle
1279.0,4.0,4.0,0.0,1.0,1.0,418.0396849999397,1.0,1.0,part_1,,,,,,,,,,,,,green,triangle
0.0,8.0,0.0,1.0,4.0,4.0,390.3285439998853,1.0,1.0,part_1,,,,,,,,,,,,,magenta,circle
309.0,6.0,2.0,1.0,1.0,1.0,371.7806340000607,1.0,1.0,part_1,,,,,,,,,,,,,orange,flipped triangle
633.0,7.0,3.0,1.0,1.0,1.0,335.7723789999909,1.0,1.0,part_1,,,,,,,,,,,,,gray,square
319.0,2.0,2.0,0.0,4.0,4.0,410.8884420002141,1.0,1.0,part_1,,,,,,,,,,,,,blue,cross
0.0,7.0,0.0,1.0,4.0,4.0,365.1148649998958,1.0,1.0,part_1,,,,,,,,,,,,,gray,square
0.0,5.0,0.0,1.0,3.0,3.0,408.6161760001232,1.0,1.0,part_1,,,,,,,,,,,,,yellow,diamond
1283.0,8.0,4.0,1.0,3.0,3.0,352.8976420000163,1.0,1.0,part_1,,,,,,,,,,,,,magenta,circle
0.0,6.0,0.0,1.0,4.0,4.0,316.0856150000199,1.0,1.0,part_1,,,,,,,,,,,,,orange,flipped triangle
634.0,7.0,3.0,1.0,4.0,4.0,306.2325050000254,1.0,1.0,part_1,,,,,,,,,,,,,gray,square
0.0,4.0,0.0,0.0,1.0,1.0,455.0413659999321,1.0,1.0,part_1,,,,,,,,,,,,,green,triangle
350.0,2.0,2.0,0.0,4.0,4.0,334.8281600001428,1.0,1.0,part_1,,,,,,,,,,,,,blue,cross
0.0,7.0,0.0,1.0,4.0,4.0,362.7985939999689,1.0,1.0,part_1,,,,,,,,,,,,,gray,square
1282.0,8.0,4.0,1.0,4.0,4.0,335.0280699999075,1.0,1.0,part_1,,,,,,,,,,,,,magenta,circle
641.0,7.0,3.0,1.0,3.0,3.0,362.9664560000947,1.0,1.0,part_1,,,,,,,,,,,,,gray,square
1277.0,4.0,4.0,0.0,2.0,2.0,455.2752869999494,1.0,1.0,part_1,,,,,,,,,,,,,green,triangle
0.0,3.0,0.0,0.0,2.0,2.0,410.5896720000146,1.0,1.0,part_1,,,,,,,,,,,,,cyan,I
1314.0,8.0,4.0,1.0,3.0,3.0,440.2429209999354,1.0,1.0,part_1,,,,,,,,,,,,,magenta,circle
1292.0,8.0,4.0,1.0,1.0,1.0,483.0769229999987,1.0,1.0,part_1,,,,,,,,,,,,,magenta,circle
0.0,6.0,0.0,1.0,4.0,4.0,390.469825999844,1.0,1.0,part_1,,,,,,,,,,,,,orange,flipped triangle
0.0,2.0,0.0,0.0,1.0,1.0,371.1897760001648,1.0,1.0,part_1,,,,,,,,,,,,,blue,cross
646.0,3.0,3.0,0.0,2.0,2.0,463.4344839998903,1.0,1.0,part_1,,,,,,,,,,,,,cyan,I
0.0,3.0,0.0,0.0,2.0,2.0,363.3599929999036,1.0,1.0,part_1,,,,,,,,,,,,,cyan,I
0.0,6.0,0.0,1.0,4.0,4.0,409.9192850001145,1.0,1.0,part_1,,,,,,,,,,,,,orange,flipped triangle
629.0,3.0,3.0,0.0,3.0,3.0,382.8869949998079,1.0,2.0,part_1,,,,,,,,,,,,,cyan,I
0.0,5.0,0.0,1.0,2.0,2.0,382.5628530000813,1.0,1.0,part_1,,,,,,,,,,,,,yellow,diamond
313.0,2.0,2.0,0.0,1.0,1.0,392.3509809999359,1.0,1.0,part_1,,,,,,,,,,,,,blue,cross
0.0,1.0,0.0,0.0,2.0,2.0,419.6807970001828,1.0,1.0,part_1,,,,,,,,,,,,,white,hexagon
1285.0,8.0,4.0,1.0,4.0,4.0,410.3726800001368,1.0,1.0,part_1,,,,,,,,,,,,,magenta,circle
1275.0,8.0,4.0,1.0,3.0,3.0,420.4856110000037,1.0,1.0,part_1,,,,,,,,,,,,,magenta,circle
1308.0,4.0,4.0,0.0,3.0,3.0,373.7942180000573,1.0,1.0,part_1,,,,,,,,,,,,,green,triangle
146.0,1.0,1.0,0.0,3.0,3.0,317.390664999948,1.0,1.0,part_1,,,,,,,,,,,,,white,hexagon
0.0,1.0,0.0,0.0,1.0,1.0,327.2859810001591,1.0,1.0,part_1,,,,,,,,,,,,,white,hexagon
1306.0,8.0,4.0,1.0,2.0,2.0,482.9624009998952,1.0,1.0,part_1,,,,,,,,,,,,,magenta,circle
184.0,1.0,1.0,0.0,3.0,3.0,410.2911810000478,1.0,1.0,part_1,,,,,,,,,,,,,white,hexagon
141.0,5.0,1.0,1.0,4.0,4.0,392.1208960000513,1.0,1.0,part_1,,,,,,,,,,,,,yellow,diamond
172.0,1.0,1.0,0.0,4.0,4.0,371.4229830000022,1.0,1.0,part_1,,,,,,,,,,,,,white,hexagon
145.0,5.0,1.0,1.0,4.0,4.0,390.3000919999613,1.0,1.0,part_1,,,,,,,,,,,,,yellow,diamond
158.0,1.0,1.0,0.0,2.0,2.0,466.2860969999656,1.0,1.0,part_1,,,,,,,,,,,,,white,hexagon
159.0,5.0,1.0,1.0,3.0,3.0,391.7449860000488,1.0,1.0,part_1,,,,,,,,,,,,,yellow,diamond
148.0,5.0,1.0,1.0,1.0,1.0,391.4548590000777,1.0,1.0,part_1,,,,,,,,,,,,,yellow,diamond
167.0,5.0,1.0,1.0,3.0,3.0,512.1038209999824,1.0,1.0,part_1,,,,,,,,,,,,,yellow,diamond
346.0,6.0,2.0,1.0,1.0,1.0,513.4429059999093,1.0,1.0,part_1,,,,,,,,,,,,,orange,flipped triangle
669.0,3.0,3.0,0.0,3.0,3.0,401.1693809998178,1.0,1.0,part_1,,,,,,,,,,,,,cyan,I
1308.0,8.0,4.0,1.0,4.0,4.0,418.5088940000696,1.0,1.0,part_1,,,,,,,,,,,,,magenta,circle
661.0,3.0,3.0,0.0,3.0,3.0,288.8218840000718,1.0,1.0,part_1,,,,,,,,,,,,,cyan,I
0.0,4.0,0.0,0.0,4.0,4.0,363.9159080000809,1.0,1.0,part_1,,,,,,,,,,,,,green,triangle
1280.0,8.0,4.0,1.0,4.0,4.0,383.3710760000031,1.0,1.0,part_1,,,,,,,,,,,,,magenta,circle
652.0,3.0,3.0,0.0,3.0,3.0,539.5107860001644,1.0,1.0,part_1,,,,,,,,,,,,,cyan,I
144.0,1.0,1.0,0.0,3.0,3.0,392.2524980000617,1.0,1.0,part_1,,,,,,,,,,,,,white,hexagon
0.0,5.0,0.0,1.0,4.0,4.0,436.2255959999856,1.0,1.0,part_1,,,,,,,,,,,,,yellow,diamond
167.0,1.0,1.0,0.0,3.0,3.0,345.9052729999712,1.0,1.0,part_1,,,,,,,,,,,,,white,hexagon
313.0,6.0,2.0,1.0,4.0,4.0,372.1996070000841,1.0,1.0,part_1,,,,,,,,,,,,,orange,flipped triangle
641.0,3.0,3.0,0.0,2.0,2.0,379.9677130000418,1.0,2.0,part_1,,,,,,,,,,,,,cyan,I
651.0,3.0,3.0,0.0,1.0,1.0,344.6086859999013,1.0,1.0,part_1,,,,,,,,,,,,,cyan,I
657.0,7.0,3.0,1.0,2.0,2.0,464.3194220000168,1.0,1.0,part_1,,,,,,,,,,,,,gray,square
651.0,3.0,3.0,0.0,2.0,2.0,334.8807940001279,1.0,1.0,part_1,,,,,,,,,,,,,cyan,I
1306.0,4.0,4.0,0.0,2.0,2.0,391.3341599998148,1.0,1.0,part_1,,,,,,,,,,,,,green,triangle
323.0,6.0,2.0,1.0,3.0,3.0,391.4162579999356,1.0,1.0,part_1,,,,,,,,,,,,,orange,flipped triangle
646.0,3.0,3.0,0.0,2.0,2.0,475.1376409999466,1.0,1.0,part_1,,,,,,,,,,,,,cyan,I
645.0,7.0,3.0,1.0,1.0,1.0,465.6897490001483,1.0,1.0,part_1,,,,,,,,,,,,,gray,square
0.0,7.0,0.0,1.0,4.0,4.0,427.7617779998763,1.0,1.0,part_1,,,,,,,,,,,,,gray,square
159.0,5.0,1.0,1.0,1.0,1.0,437.1257900002092,1.0,1.0,part_1,,,,,,,,,,,,,yellow,diamond
310.0,6.0,2.0,1.0,3.0,3.0,669.9364760002027,1.0,1.0,part_1,,,,,,,,,,,,,orange,flipped triangle
0.0,3.0,0.0,0.0,1.0,1.0,447.2239960000479,1.0,1.0,part_1,,,,,,,,,,,,,cyan,I
166.0,5.0,1.0,1.0,3.0,3.0,605.3736500000468,1.0,1.0,part_1,,,,,,,,,,,,,yellow,diamond
309.0,2.0,2.0,0.0,1.0,1.0,418.4194469999056,1.0,1.0,part_1,,,,,,,,,,,,,blue,cross
165.0,5.0,1.0,1.0,4.0,4.0,437.1460019999631,1.0,1.0,part_1,,,,,,,,,,,,,yellow,diamond
150.0,5.0,1.0,1.0,1.0,1.0,375.0065460001224,1.0,1.0,part_1,,,,,,,,,,,,,yellow,diamond
182.0,5.0,1.0,1.0,3.0,3.0,353.6028610001267,1.0,1.0,part_1,,,,,,,,,,,,,yellow,diamond
1297.0,8.0,4.0,1.0,3.0,3.0,454.9561339999854,1.0,1.0,part_1,,,,,,,,,,,,,magenta,circle
640.0,7.0,3.0,1.0,2.0,2.0,409.2411899998751,1.0,1.0,part_1,,,,,,,,,,,,,gray,square
638.0,3.0,3.0,0.0,4.0,4.0,417.6464740000938,1.0,1.0,part_1,,,,,,,,,,,,,cyan,I
309.0,2.0,2.0,0.0,2.0,2.0,408.3446619999904,1.0,1.0,part_1,,,,,,,,,,,,,blue,cross
0.0,8.0,0.0,1.0,1.0,1.0,370.7353720001265,1.0,1.0,part_1,,,,,,,,,,,,,magenta,circle
1280.0,4.0,4.0,0.0,2.0,2.0,418.3816059999117,1.0,1.0,part_1,,,,,,,,,,,,,green,triangle
666.0,3.0,3.0,0.0,3.0,3.0,584.8700879998887,1.0,1.0,part_1,,,,,,,,,,,,,cyan,I
651.0,7.0,3.0,1.0,3.0,3.0,464.167906000057,1.0,1.0,part_1,,,,,,,,,,,,,gray,square
0.0,5.0,0.0,1.0,4.0,4.0,365.7082960000934,1.0,1.0,part_1,,,,,,,,,,,,,yellow,diamond
0.0,6.0,0.0,1.0,4.0,4.0,384.4718770001236,1.0,1.0,part_1,,,,,,,,,,,,,orange,flipped triangle
180.0,1.0,1.0,0.0,1.0,1.0,478.0867099998431,1.0,1.0,part_1,,,,,,,,,,,,,white,hexagon
0.0,8.0,0.0,1.0,1.0,1.0,444.1464740000356,2.0,1.0,part_1,,,,,,,,,,,,,magenta,circle
663.0,7.0,3.0,1.0,2.0,2.0,400.2935260000413,2.0,1.0,part_1,,,,,,,,,,,,,gray,square
144.0,1.0,1.0,0.0,2.0,2.0,531.1738160000914,2.0,1.0,part_1,,,,,,,,,,,,,white,hexagon
309.0,6.0,2.0,1.0,4.0,4.0,391.4147100001628,2.0,1.0,part_1,,,,,,,,,,,,,orange,flipped triangle
301.0,6.0,2.0,1.0,4.0,4.0,408.159908000016,2.0,1.0,part_1,,,,,,,,,,,,,orange,flipped triangle
338.0,6.0,2.0,1.0,4.0,4.0,400.4970910000338,2.0,1.0,part_1,,,,,,,,,,,,,orange,flipped triangle
628.0,7.0,3.0,1.0,1.0,1.0,482.9498209999201,2.0,1.0,part_1,,,,,,,,,,,,,gray,square
1311.0,8.0,4.0,1.0,2.0,2.0,381.7502520000744,2.0,1.0,part_1,,,,,,,,,,,,,magenta,circle
310.0,2.0,2.0,0.0,3.0,3.0,539.6897650000483,2.0,1.0,part_1,,,,,,,,,,,,,blue,cross
672.0,3.0,3.0,0.0,4.0,4.0,362.6306480000494,2.0,1.0,part_1,,,,,,,,,,,,,cyan,I
345.0,2.0,2.0,0.0,2.0,2.0,505.09920100012096,2.0,1.0,part_1,,,,,,,,,,,,,blue,cross
0.0,2.0,0.0,0.0,4.0,4.0,409.4502670000111,2.0,1.0,part_1,,,,,,,,,,,,,blue,cross
1283.0,4.0,4.0,0.0,1.0,1.0,353.1857409998338,2.0,1.0,part_1,,,,,,,,,,,,,green,triangle
173.0,5.0,1.0,1.0,1.0,1.0,408.0175510000572,2.0,1.0,part_1,,,,,,,,,,,,,yellow,diamond
0.0,6.0,0.0,1.0,2.0,2.0,492.7261249999901,2.0,1.0,part_1,,,,,,,,,,,,,orange,flipped triangle
0.0,3.0,0.0,0.0,1.0,1.0,520.26636100004,2.0,1.0,part_1,,,,,,,,,,,,,cyan,I
145.0,1.0,1.0,0.0,3.0,3.0,547.5151870000445,2.0,1.0,part_1,,,,,,,,,,,,,white,hexagon
657.0,3.0,3.0,0.0,4.0,4.0,456.5204130001348,2.0,1.0,part_1,,,,,,,,,,,,,cyan,I
0.0,5.0,0.0,1.0,1.0,1.0,390.59395100002797,2.0,1.0,part_1,,,,,,,,,,,,,yellow,diamond
662.0,7.0,3.0,1.0,4.0,4.0,464.4255969999449,2.0,1.0,part_1,,,,,,,,,,,,,gray,square
645.0,3.0,3.0,0.0,4.0,4.0,483.8064169998688,2.0,1.0,part_1,,,,,,,,,,,,,cyan,I
660.0,7.0,3.0,1.0,1.0,1.0,419.0944290000971,2.0,1.0,part_1,,,,,,,,,,,,,gray,square
157.0,1.0,1.0,0.0,2.0,2.0,623.8657530000182,2.0,1.0,part_1,,,,,,,,,,,,,white,hexagon
1282.0,4.0,4.0,0.0,1.0,1.0,454.9487440001485,2.0,1.0,part_1,,,,,,,,,,,,,green,triangle
309.0,2.0,2.0,0.0,1.0,1.0,455.8216499999616,2.0,1.0,part_1,,,,,,,,,,,,,blue,cross
338.0,2.0,2.0,0.0,4.0,4.0,417.1620629999779,2.0,1.0,part_1,,,,,,,,,,,,,blue,cross
1325.0,4.0,4.0,0.0,2.0,2.0,439.0462129999832,2.0,1.0,part_1,,,,,,,,,,,,,green,triangle
1299.0,8.0,4.0,1.0,2.0,2.0,389.9613659998522,2.0,1.0,part_1,,,,,,,,,,,,,magenta,circle
164.0,1.0,1.0,0.0,4.0,4.0,454.6771340001214,2.0,1.0,part_1,,,,,,,,,,,,,white,hexagon
631.0,3.0,3.0,0.0,1.0,1.0,542.8824250000162,2.0,1.0,part_1,,,,,,,,,,,,,cyan,I
651.0,7.0,3.0,1.0,1.0,1.0,475.15958500002847,2.0,1.0,part_1,,,,,,,,,,,,,gray,square
0.0,4.0,0.0,0.0,4.0,4.0,576.4091720000124,2.0,1.0,part_1,,,,,,,,,,,,,green,triangle
317.0,2.0,2.0,0.0,3.0,3.0,380.8435989999452,2.0,1.0,part_1,,,,,,,,,,,,,blue,cross
1302.0,8.0,4.0,1.0,2.0,2.0,455.7330160000674,2.0,1.0,part_1,,,,,,,,,,,,,magenta,circle
185.0,1.0,1.0,0.0,2.0,2.0,866.370685999982,2.0,1.0,part_1,,,,,,,,,,,,,white,hexagon
0.0,1.0,0.0,0.0,4.0,4.0,512.1163290000368,2.0,1.0,part_1,,,,,,,,,,,,,white,hexagon
1279.0,8.0,4.0,1.0,3.0,3.0,362.5304990000586,2.0,1.0,part_1,,,,,,,,,,,,,magenta,circle
675.0,3.0,3.0,0.0,3.0,3.0,400.7405219999782,2.0,1.0,part_1,,,,,,,,,,,,,cyan,I
164.0,5.0,1.0,1.0,3.0,3.0,409.6120419999352,2.0,1.0,part_1,,,,,,,,,,,,,yellow,diamond
631.0,7.0,3.0,1.0,4.0,4.0,429.219324999849,2.0,1.0,part_1,,,,,,,,,,,,,gray,square
343.0,6.0,2.0,1.0,3.0,3.0,595.8907819999695,2.0,1.0,part_1,,,,,,,,,,,,,orange,flipped triangle
334.0,2.0,2.0,0.0,2.0,2.0,641.7738780000946,2.0,1.0,part_1,,,,,,,,,,,,,blue,cross
660.0,7.0,3.0,1.0,3.0,3.0,400.6006629999774,2.0,1.0,part_1,,,,,,,,,,,,,gray,square
172.0,5.0,1.0,1.0,4.0,4.0,448.7059709999812,2.0,1.0,part_1,,,,,,,,,,,,,yellow,diamond
1297.0,8.0,4.0,1.0,3.0,3.0,335.8713130000978,2.0,1.0,part_1,,,,,,,,,,,,,magenta,circle
0.0,4.0,0.0,0.0,4.0,4.0,336.6576710000117,2.0,1.0,part_1,,,,,,,,,,,,,green,triangle
179.0,5.0,1.0,1.0,1.0,1.0,419.6374539999397,2.0,1.0,part_1,,,,,,,,,,,,,yellow,diamond
150.0,1.0,1.0,0.0,1.0,1.0,353.9050890001363,2.0,1.0,part_1,,,,,,,,,,,,,white,hexagon
0.0,7.0,0.0,1.0,4.0,4.0,447.191691999933,2.0,1.0,part_1,,,,,,,,,,,,,gray,square
0.0,3.0,0.0,0.0,3.0,3.0,344.6281619999354,2.0,1.0,part_1,,,,,,,,,,,,,cyan,I
645.0,3.0,3.0,0.0,1.0,1.0,418.5768740001094,2.0,1.0,part_1,,,,,,,,,,,,,cyan,I
631.0,7.0,3.0,1.0,4.0,4.0,362.7311669999926,2.0,1.0,part_1,,,,,,,,,,,,,gray,square
1319.0,8.0,4.0,1.0,4.0,4.0,390.4868550000628,2.0,1.0,part_1,,,,,,,,,,,,,magenta,circle
645.0,3.0,3.0,0.0,4.0,4.0,391.2694529999498,2.0,1.0,part_1,,,,,,,,,,,,,cyan,I
323.0,2.0,2.0,0.0,4.0,4.0,363.7850210000124,2.0,1.0,part_1,,,,,,,,,,,,,blue,cross
154.0,5.0,1.0,1.0,1.0,1.0,436.8469860000914,2.0,1.0,part_1,,,,,,,,,,,,,yellow,diamond
313.0,6.0,2.0,1.0,2.0,2.0,409.257855000078,2.0,2.0,part_1,,,,,,,,,,,,,orange,flipped triangle
0.0,3.0,0.0,0.0,4.0,4.0,512.3991259999912,2.0,1.0,part_1,,,,,,,,,,,,,cyan,I
1295.0,8.0,4.0,1.0,3.0,3.0,391.1595489998944,2.0,2.0,part_1,,,,,,,,,,,,,magenta,circle
1277.0,8.0,4.0,1.0,3.0,3.0,392.2191640001529,2.0,1.0,part_1,,,,,,,,,,,,,magenta,circle
1299.0,8.0,4.0,1.0,1.0,1.0,456.5355710001313,2.0,1.0,part_1,,,,,,,,,,,,,magenta,circle
1315.0,4.0,4.0,0.0,3.0,3.0,521.5841120000277,2.0,1.0,part_1,,,,,,,,,,,,,green,triangle
153.0,5.0,1.0,1.0,4.0,4.0,364.3814519998614,2.0,1.0,part_1,,,,,,,,,,,,,yellow,diamond
666.0,7.0,3.0,1.0,1.0,1.0,429.16110200008,2.0,1.0,part_1,,,,,,,,,,,,,gray,square
344.0,6.0,2.0,1.0,1.0,1.0,390.3592599999683,2.0,1.0,part_1,,,,,,,,,,,,,orange,flipped triangle
317.0,6.0,2.0,1.0,4.0,4.0,427.2000979999575,2.0,1.0,part_1,,,,,,,,,,,,,orange,flipped triangle
1275.0,8.0,4.0,1.0,4.0,4.0,438.5728750000908,2.0,1.0,part_1,,,,,,,,,,,,,magenta,circle
164.0,5.0,1.0,1.0,3.0,3.0,363.7907089998862,2.0,1.0,part_1,,,,,,,,,,,,,yellow,diamond
159.0,5.0,1.0,1.0,3.0,3.0,418.6528949999228,2.0,1.0,part_1,,,,,,,,,,,,,yellow,diamond
0.0,7.0,0.0,1.0,2.0,2.0,651.8364430000929,2.0,1.0,part_1,,,,,,,,,,,,,gray,square
1299.0,4.0,4.0,0.0,3.0,3.0,409.0373050000835,2.0,1.0,part_1,,,,,,,,,,,,,green,triangle
324.0,6.0,2.0,1.0,4.0,4.0,418.8231910000013,2.0,1.0,part_1,,,,,,,,,,,,,orange,flipped triangle
672.0,3.0,3.0,0.0,3.0,3.0,376.2475389999054,2.0,1.0,part_1,,,,,,,,,,,,,cyan,I
141.0,1.0,1.0,0.0,4.0,4.0,442.9673859999639,2.0,1.0,part_1,,,,,,,,,,,,,white,hexagon
326.0,2.0,2.0,0.0,3.0,3.0,431.9495820000156,2.0,1.0,part_1,,,,,,,,,,,,,blue,cross
0.0,1.0,0.0,0.0,3.0,3.0,383.709127999964,2.0,1.0,part_1,,,,,,,,,,,,,white,hexagon
1314.0,4.0,4.0,0.0,4.0,4.0,466.6818989999228,2.0,1.0,part_1,,,,,,,,,,,,,green,triangle
1301.0,8.0,4.0,1.0,1.0,1.0,440.7557249999172,2.0,1.0,part_1,,,,,,,,,,,,,magenta,circle
173.0,1.0,1.0,0.0,4.0,4.0,403.4039850000681,2.0,1.0,part_1,,,,,,,,,,,,,white,hexagon
178.0,5.0,1.0,1.0,1.0,1.0,561.2424329999612,2.0,1.0,part_1,,,,,,,,,,,,,yellow,diamond
0.0,8.0,0.0,1.0,4.0,4.0,550.3792189999785,2.0,1.0,part_1,,,,,,,,,,,,,magenta,circle
646.0,7.0,3.0,1.0,2.0,2.0,721.6739850000522,2.0,1.0,part_1,,,,,,,,,,,,,gray,square
0.0,4.0,0.0,0.0,3.0,3.0,438.4698730000309,2.0,1.0,part_1,,,,,,,,,,,,,green,triangle
146.0,1.0,1.0,0.0,2.0,2.0,689.9250419999134,2.0,1.0,part_1,,,,,,,,,,,,,white,hexagon
1319.0,4.0,4.0,0.0,4.0,4.0,373.676069999874,2.0,1.0,part_1,,,,,,,,,,,,,green,triangle
138.0,1.0,1.0,0.0,1.0,1.0,522.7452430001449,2.0,1.0,part_1,,,,,,,,,,,,,white,hexagon
1314.0,4.0,4.0,0.0,1.0,1.0,364.5503120001194,2.0,1.0,part_1,,,,,,,,,,,,,green,triangle
0.0,5.0,0.0,1.0,3.0,3.0,335.1048509998691,2.0,1.0,part_1,,,,,,,,,,,,,yellow,diamond
301.0,2.0,2.0,0.0,4.0,4.0,390.8519350000006,2.0,1.0,part_1,,,,,,,,,,,,,blue,cross
185.0,5.0,1.0,1.0,3.0,3.0,343.9453809999122,2.0,1.0,part_1,,,,,,,,,,,,,yellow,diamond
0.0,7.0,0.0,1.0,3.0,3.0,352.1903199998633,2.0,1.0,part_1,,,,,,,,,,,,,gray,square
1311.0,4.0,4.0,0.0,2.0,2.0,939.709756999946,2.0,1.0,part_1,,,,,,,,,,,,,green,triangle
1297.0,4.0,4.0,0.0,4.0,4.0,520.2883640001801,2.0,1.0,part_1,,,,,,,,,,,,,green,triangle
639.0,3.0,3.0,0.0,1.0,1.0,409.5384239999475,2.0,1.0,part_1,,,,,,,,,,,,,cyan,I
0.0,3.0,0.0,0.0,3.0,3.0,408.6356790000991,2.0,1.0,part_1,,,,,,,,,,,,,cyan,I
152.0,5.0,1.0,1.0,2.0,2.0,362.974683999937,2.0,1.0,part_1,,,,,,,,,,,,,yellow,diamond
0.0,2.0,0.0,0.0,3.0,3.0,520.7744900001217,2.0,1.0,part_1,,,,,,,,,,,,,blue,cross
655.0,7.0,3.0,1.0,3.0,3.0,464.5718149999993,2.0,1.0,part_1,,,,,,,,,,,,,gray,square
671.0,7.0,3.0,1.0,4.0,4.0,409.9803169999632,2.0,1.0,part_1,,,,,,,,,,,,,gray,square
178.0,1.0,1.0,0.0,3.0,3.0,436.9736149999426,2.0,1.0,part_1,,,,,,,,,,,,,white,hexagon
0.0,4.0,0.0,0.0,3.0,3.0,455.0997250000819,3.0,1.0,part_1,,,,,,,,,,,,,green,triangle
638.0,7.0,3.0,1.0,1.0,1.0,466.5455520000705,3.0,1.0,part_1,,,,,,,,,,,,,gray,square
0.0,4.0,0.0,0.0,3.0,3.0,391.0180560001208,3.0,1.0,part_1,,,,,,,,,,,,,green,triangle
145.0,5.0,1.0,1.0,4.0,4.0,418.3720150001591,3.0,1.0,part_1,,,,,,,,,,,,,yellow,diamond
1309.0,4.0,4.0,0.0,3.0,3.0,505.6459889999587,3.0,1.0,part_1,,,,,,,,,,,,,green,triangle
326.0,6.0,2.0,1.0,2.0,2.0,892.3648620000222,3.0,1.0,part_1,,,,,,,,,,,,,orange,flipped triangle
638.0,7.0,3.0,1.0,4.0,4.0,520.9329529998286,3.0,1.0,part_1,,,,,,,,,,,,,gray,square
629.0,7.0,3.0,1.0,3.0,3.0,423.7095949999911,3.0,1.0,part_1,,,,,,,,,,,,,gray,square
1302.0,4.0,4.0,0.0,3.0,3.0,531.3793759999044,3.0,1.0,part_1,,,,,,,,,,,,,green,triangle
0.0,4.0,0.0,0.0,1.0,1.0,447.1936509999068,3.0,1.0,part_1,,,,,,,,,,,,,green,triangle
0.0,8.0,0.0,1.0,4.0,4.0,464.1963109997959,3.0,1.0,part_1,,,,,,,,,,,,,magenta,circle
670.0,7.0,3.0,1.0,3.0,3.0,408.2091180000589,3.0,1.0,part_1,,,,,,,,,,,,,gray,square
302.0,2.0,2.0,0.0,2.0,2.0,751.3599310000245,3.0,1.0,part_1,,,,,,,,,,,,,blue,cross
152.0,1.0,1.0,0.0,4.0,4.0,418.2893040001545,3.0,1.0,part_1,,,,,,,,,,,,,white,hexagon
671.0,3.0,3.0,0.0,4.0,4.0,437.7147549998881,3.0,1.0,part_1,,,,,,,,,,,,,cyan,I
665.0,7.0,3.0,1.0,2.0,2.0,520.2605459999177,3.0,1.0,part_1,,,,,,,,,,,,,gray,square
1317.0,8.0,4.0,1.0,1.0,1.0,445.6020759998864,3.0,1.0,part_1,,,,,,,,,,,,,magenta,circle
0.0,1.0,0.0,0.0,4.0,4.0,534.8474710001483,3.0,1.0,part_1,,,,,,,,,,,,,white,hexagon
313.0,2.0,2.0,0.0,1.0,1.0,427.0168729999568,3.0,1.0,part_1,,,,,,,,,,,,,blue,cross
166.0,1.0,1.0,0.0,3.0,3.0,502.0279790001041,3.0,1.0,part_1,,,,,,,,,,,,,white,hexagon
1323.0,8.0,4.0,1.0,4.0,4.0,400.9669590000158,3.0,1.0,part_1,,,,,,,,,,,,,magenta,circle
178.0,5.0,1.0,1.0,2.0,2.0,660.0424630000816,3.0,1.0,part_1,,,,,,,,,,,,,yellow,diamond
186.0,5.0,1.0,1.0,3.0,3.0,465.5239050000546,3.0,1.0,part_1,,,,,,,,,,,,,yellow,diamond
330.0,6.0,2.0,1.0,4.0,4.0,408.9886749998186,3.0,1.0,part_1,,,,,,,,,,,,,orange,flipped triangle
650.0,7.0,3.0,1.0,1.0,1.0,400.6320570001662,3.0,1.0,part_1,,,,,,,,,,,,,gray,square
185.0,1.0,1.0,0.0,2.0,2.0,437.7218160000211,3.0,1.0,part_1,,,,,,,,,,,,,white,hexagon
1285.0,4.0,4.0,0.0,1.0,1.0,391.9082190000154,3.0,1.0,part_1,,,,,,,,,,,,,green,triangle
305.0,6.0,2.0,1.0,2.0,2.0,473.5958320000009,3.0,1.0,part_1,,,,,,,,,,,,,orange,flipped triangle
331.0,2.0,2.0,0.0,1.0,1.0,455.5196979999891,3.0,1.0,part_1,,,,,,,,,,,,,blue,cross
312.0,6.0,2.0,1.0,2.0,2.0,455.5955100001938,3.0,1.0,part_1,,,,,,,,,,,,,orange,flipped triangle
0.0,7.0,0.0,1.0,3.0,3.0,425.6727810000029,3.0,1.0,part_1,,,,,,,,,,,,,gray,square
0.0,7.0,0.0,1.0,3.0,3.0,409.735979000061,3.0,1.0,part_1,,,,,,,,,,,,,gray,square
336.0,2.0,2.0,0.0,4.0,4.0,428.2675649999419,3.0,1.0,part_1,,,,,,,,,,,,,blue,cross
339.0,2.0,2.0,0.0,1.0,1.0,427.1174489999794,3.0,1.0,part_1,,,,,,,,,,,,,blue,cross
1279.0,4.0,4.0,0.0,2.0,2.0,526.4170779998949,3.0,1.0,part_1,,,,,,,,,,,,,green,triangle
1310.0,8.0,4.0,1.0,1.0,1.0,485.6470929998977,3.0,1.0,part_1,,,,,,,,,,,,,magenta,circle
148.0,1.0,1.0,0.0,3.0,3.0,411.7997870000636,3.0,1.0,part_1,,,,,,,,,,,,,white,hexagon
0.0,2.0,0.0,0.0,3.0,3.0,380.6763760001104,3.0,1.0,part_1,,,,,,,,,,,,,blue,cross
1323.0,4.0,4.0,0.0,3.0,3.0,556.9566250001117,3.0,1.0,part_1,,,,,,,,,,,,,green,triangle
0.0,6.0,0.0,1.0,2.0,2.0,418.4628129999055,3.0,1.0,part_1,,,,,,,,,,,,,orange,flipped triangle
179.0,1.0,1.0,0.0,4.0,4.0,463.3055210001657,3.0,1.0,part_1,,,,,,,,,,,,,white,hexagon
167.0,1.0,1.0,0.0,4.0,4.0,492.1150449999913,3.0,1.0,part_1,,,,,,,,,,,,,white,hexagon
324.0,2.0,2.0,0.0,3.0,3.0,484.8496110000724,3.0,1.0,part_1,,,,,,,,,,,,,blue,cross
627.0,3.0,3.0,0.0,2.0,2.0,410.5519470001582,3.0,1.0,part_1,,,,,,,,,,,,,cyan,I
1312.0,4.0,4.0,0.0,4.0,4.0,437.1200990001398,3.0,1.0,part_1,,,,,,,,,,,,,green,triangle
665.0,3.0,3.0,0.0,2.0,2.0,410.0398739999491,3.0,1.0,part_1,,,,,,,,,,,,,cyan,I
627.0,7.0,3.0,1.0,1.0,1.0,409.2223990001002,3.0,1.0,part_1,,,,,,,,,,,,,gray,square
661.0,7.0,3.0,1.0,3.0,3.0,455.0536300000658,3.0,1.0,part_1,,,,,,,,,,,,,gray,square
0.0,3.0,0.0,0.0,2.0,2.0,418.3268599999792,3.0,1.0,part_1,,,,,,,,,,,,,cyan,I
628.0,3.0,3.0,0.0,1.0,1.0,455.6653750000805,3.0,1.0,part_1,,,,,,,,,,,,,cyan,I
631.0,3.0,3.0,0.0,1.0,1.0,457.8598450000299,3.0,1.0,part_1,,,,,,,,,,,,,cyan,I
139.0,1.0,1.0,0.0,2.0,2.0,530.1645689999077,3.0,1.0,part_1,,,,,,,,,,,,,white,hexagon
178.0,1.0,1.0,0.0,1.0,1.0,427.6528529999268,3.0,1.0,part_1,,,,,,,,,,,,,white,hexagon
0.0,8.0,0.0,1.0,1.0,1.0,428.4435609999946,3.0,1.0,part_1,,,,,,,,,,,,,magenta,circle
331.0,6.0,2.0,1.0,1.0,1.0,473.3672599998044,3.0,1.0,part_1,,,,,,,,,,,,,orange,flipped triangle
1294.0,8.0,4.0,1.0,1.0,1.0,632.9173799999808,3.0,1.0,part_1,,,,,,,,,,,,,magenta,circle
159.0,1.0,1.0,0.0,1.0,1.0,390.4285399999025,3.0,1.0,part_1,,,,,,,,,,,,,white,hexagon
1299.0,4.0,4.0,0.0,1.0,1.0,473.4718849999808,3.0,1.0,part_1,,,,,,,,,,,,,green,triangle
345.0,6.0,2.0,1.0,3.0,3.0,446.1206010000751,3.0,1.0,part_1,,,,,,,,,,,,,orange,flipped triangle
0.0,6.0,0.0,1.0,4.0,4.0,465.315007000072,3.0,1.0,part_1,,,,,,,,,,,,,orange,flipped triangle
660.0,3.0,3.0,0.0,3.0,3.0,408.1038459999035,3.0,1.0,part_1,,,,,,,,,,,,,cyan,I
157.0,5.0,1.0,1.0,1.0,1.0,503.01962300000014,3.0,1.0,part_1,,,,,,,,,,,,,yellow,diamond
167.0,5.0,1.0,1.0,2.0,2.0,881.8061760000546,3.0,1.0,part_1,,,,,,,,,,,,,yellow,diamond
173.0,1.0,1.0,0.0,1.0,1.0,436.7279590001089,3.0,1.0,part_1,,,,,,,,,,,,,white,hexagon
1301.0,4.0,4.0,0.0,2.0,2.0,445.8990160001121,3.0,1.0,part_1,,,,,,,,,,,,,green,triangle
1295.0,4.0,4.0,0.0,1.0,1.0,400.0920739999856,3.0,1.0,part_1,,,,,,,,,,,,,green,triangle
1289.0,8.0,4.0,1.0,3.0,3.0,463.7524629999916,3.0,1.0,part_1,,,,,,,,,,,,,magenta,circle
672.0,7.0,3.0,1.0,2.0,2.0,455.4100939999443,3.0,1.0,part_1,,,,,,,,,,,,,gray,square
655.0,3.0,3.0,0.0,2.0,2.0,500.5732760000683,3.0,1.0,part_1,,,,,,,,,,,,,cyan,I
350.0,6.0,2.0,1.0,3.0,3.0,493.2596510000167,3.0,2.0,part_1,,,,,,,,,,,,,orange,flipped triangle
139.0,5.0,1.0,1.0,4.0,4.0,568.8073580001856,3.0,1.0,part_1,,,,,,,,,,,,,yellow,diamond
1322.0,8.0,4.0,1.0,2.0,2.0,409.1505119999965,3.0,1.0,part_1,,,,,,,,,,,,,magenta,circle
340.0,6.0,2.0,1.0,3.0,3.0,456.7351129999224,3.0,1.0,part_1,,,,,,,,,,,,,orange,flipped triangle
1308.0,4.0,4.0,0.0,1.0,1.0,475.1214979999076,3.0,1.0,part_1,,,,,,,,,,,,,green,triangle
158.0,5.0,1.0,1.0,4.0,4.0,474.359824999965,3.0,1.0,part_1,,,,,,,,,,,,,yellow,diamond
0.0,8.0,0.0,1.0,3.0,3.0,465.1218809999591,3.0,1.0,part_1,,,,,,,,,,,,,magenta,circle
1307.0,4.0,4.0,0.0,4.0,4.0,465.0100019998717,3.0,1.0,part_1,,,,,,,,,,,,,green,triangle
345.0,6.0,2.0,1.0,2.0,2.0,529.3615189998491,3.0,1.0,part_1,,,,,,,,,,,,,orange,flipped triangle
312.0,2.0,2.0,0.0,4.0,4.0,464.5249269999567,3.0,1.0,part_1,,,,,,,,,,,,,blue,cross
1316.0,4.0,4.0,0.0,3.0,3.0,549.4196150000334,3.0,1.0,part_1,,,,,,,,,,,,,green,triangle
644.0,3.0,3.0,0.0,2.0,2.0,652.7949960000115,3.0,1.0,part_1,,,,,,,,,,,,,cyan,I
185.0,5.0,1.0,1.0,4.0,4.0,549.8761389999345,3.0,1.0,part_1,,,,,,,,,,,,,yellow,diamond
1315.0,8.0,4.0,1.0,2.0,2.0,399.6394490000057,3.0,1.0,part_1,,,,,,,,,,,,,magenta,circle
330.0,2.0,2.0,0.0,3.0,3.0,436.9989589999932,3.0,1.0,part_1,,,,,,,,,,,,,blue,cross
0.0,3.0,0.0,0.0,2.0,2.0,594.7249499999998,3.0,1.0,part_1,,,,,,,,,,,,,cyan,I
627.0,7.0,3.0,1.0,2.0,2.0,427.5058870000521,3.0,1.0,part_1,,,,,,,,,,,,,gray,square
172.0,5.0,1.0,1.0,2.0,2.0,418.1088249999902,3.0,1.0,part_1,,,,,,,,,,,,,yellow,diamond
0.0,1.0,0.0,0.0,4.0,4.0,482.9198580000593,3.0,1.0,part_1,,,,,,,,,,,,,white,hexagon
1314.0,8.0,4.0,1.0,3.0,3.0,808.4549579998566,3.0,1.0,part_1,,,,,,,,,,,,,magenta,circle
638.0,3.0,3.0,0.0,2.0,2.0,715.3848539999217,3.0,1.0,part_1,,,,,,,,,,,,,cyan,I
672.0,7.0,3.0,1.0,2.0,2.0,473.993825999969,3.0,1.0,part_1,,,,,,,,,,,,,gray,square
1294.0,4.0,4.0,0.0,4.0,4.0,437.4509409999518,3.0,1.0,part_1,,,,,,,,,,,,,green,triangle
669.0,7.0,3.0,1.0,2.0,2.0,475.348269000051,3.0,1.0,part_1,,,,,,,,,,,,,gray,square
0.0,2.0,0.0,0.0,2.0,2.0,512.1375789999547,3.0,1.0,part_1,,,,,,,,,,,,,blue,cross
0.0,7.0,0.0,1.0,3.0,3.0,444.4106329999613,3.0,1.0,part_1,,,,,,,,,,,,,gray,square
1307.0,8.0,4.0,1.0,4.0,4.0,455.774650999956,3.0,1.0,part_1,,,,,,,,,,,,,magenta,circle
343.0,2.0,2.0,0.0,4.0,4.0,420.420004999869,3.0,1.0,part_1,,,,,,,,,,,,,blue,cross
0.0,5.0,0.0,1.0,3.0,3.0,473.9760299999034,3.0,1.0,part_1,,,,,,,,,,,,,yellow,diamond
182.0,1.0,1.0,0.0,1.0,1.0,418.1414480001422,3.0,1.0,part_1,,,,,,,,,,,,,white,hexagon
331.0,2.0,2.0,0.0,4.0,4.0,438.3438429999842,3.0,1.0,part_1,,,,,,,,,,,,,blue,cross
0.0,5.0,0.0,1.0,1.0,1.0,464.4712539998181,4.0,1.0,part_1,,,,,,,,,,,,,yellow,diamond
0.0,2.0,0.0,0.0,4.0,4.0,445.7682990000648,4.0,1.0,part_1,,,,,,,,,,,,,blue,cross
627.0,3.0,3.0,0.0,4.0,4.0,484.7513129998333,4.0,1.0,part_1,,,,,,,,,,,,,cyan,I
0.0,2.0,0.0,0.0,2.0,2.0,427.6097189999746,4.0,1.0,part_1,,,,,,,,,,,,,blue,cross
324.0,2.0,2.0,0.0,1.0,1.0,427.58456599995037,4.0,1.0,part_1,,,,,,,,,,,,,blue,cross
645.0,7.0,3.0,1.0,3.0,3.0,510.72621999992407,4.0,1.0,part_1,,,,,,,,,,,,,gray,square
655.0,3.0,3.0,0.0,4.0,4.0,466.7711130000498,4.0,1.0,part_1,,,,,,,,,,,,,cyan,I
0.0,8.0,0.0,1.0,3.0,3.0,417.630561000351,4.0,1.0,part_1,,,,,,,,,,,,,magenta,circle
0.0,5.0,0.0,1.0,2.0,2.0,604.2687929998465,4.0,1.0,part_1,,,,,,,,,,,,,yellow,diamond
340.0,2.0,2.0,0.0,1.0,1.0,446.4883089999603,4.0,1.0,part_1,,,,,,,,,,,,,blue,cross
164.0,1.0,1.0,0.0,3.0,3.0,437.9610269998011,4.0,1.0,part_1,,,,,,,,,,,,,white,hexagon
317.0,2.0,2.0,0.0,2.0,2.0,465.2807749998828,4.0,1.0,part_1,,,,,,,,,,,,,blue,cross
0.0,6.0,0.0,1.0,4.0,4.0,548.8581230001728,4.0,1.0,part_1,,,,,,,,,,,,,orange,flipped triangle
633.0,3.0,3.0,0.0,3.0,3.0,475.029362999976,4.0,1.0,part_1,,,,,,,,,,,,,cyan,I
139.0,5.0,1.0,1.0,1.0,1.0,484.6298910001678,4.0,1.0,part_1,,,,,,,,,,,,,yellow,diamond
1325.0,8.0,4.0,1.0,2.0,2.0,818.1826559998626,4.0,1.0,part_1,,,,,,,,,,,,,magenta,circle
0.0,1.0,0.0,0.0,4.0,4.0,483.7124639998365,4.0,1.0,part_1,,,,,,,,,,,,,white,hexagon
0.0,4.0,0.0,0.0,3.0,3.0,502.1136679997653,4.0,1.0,part_1,,,,,,,,,,,,,green,triangle
1308.0,8.0,4.0,1.0,4.0,4.0,445.2407909998328,4.0,1.0,part_1,,,,,,,,,,,,,magenta,circle
159.0,1.0,1.0,0.0,4.0,4.0,447.9922219998116,4.0,1.0,part_1,,,,,,,,,,,,,white,hexagon
345.0,2.0,2.0,0.0,3.0,3.0,483.4934890000113,4.0,1.0,part_1,,,,,,,,,,,,,blue,cross
334.0,6.0,2.0,1.0,3.0,3.0,437.662679999903,4.0,1.0,part_1,,,,,,,,,,,,,orange,flipped triangle
675.0,7.0,3.0,1.0,4.0,4.0,418.9196170000286,4.0,1.0,part_1,,,,,,,,,,,,,gray,square
655.0,7.0,3.0,1.0,2.0,2.0,753.5400669999035,4.0,1.0,part_1,,,,,,,,,,,,,gray,square
322.0,6.0,2.0,1.0,2.0,2.0,539.2025920000378,4.0,1.0,part_1,,,,,,,,,,,,,orange,flipped triangle
660.0,3.0,3.0,0.0,4.0,4.0,482.7408660003129,4.0,1.0,part_1,,,,,,,,,,,,,cyan,I
329.0,2.0,2.0,0.0,3.0,3.0,464.2768670000805,4.0,1.0,part_1,,,,,,,,,,,,,blue,cross
1316.0,8.0,4.0,1.0,2.0,2.0,623.4498079998048,4.0,1.0,part_1,,,,,,,,,,,,,magenta,circle
144.0,5.0,1.0,1.0,1.0,1.0,437.0826619997388,4.0,1.0,part_1,,,,,,,,,,,,,yellow,diamond
184.0,5.0,1.0,1.0,2.0,2.0,530.3241310002704,4.0,1.0,part_1,,,,,,,,,,,,,yellow,diamond
329.0,6.0,2.0,1.0,4.0,4.0,445.0380510002105,4.0,1.0,part_1,,,,,,,,,,,,,orange,flipped triangle
670.0,3.0,3.0,0.0,1.0,1.0,389.1091599998617,4.0,1.0,part_1,,,,,,,,,,,,,cyan,I
173.0,5.0,1.0,1.0,2.0,2.0,510.667062000266,4.0,1.0,part_1,,,,,,,,,,,,,yellow,diamond
1294.0,4.0,4.0,0.0,3.0,3.0,482.75617399986,4.0,1.0,part_1,,,,,,,,,,,,,green,triangle
186.0,1.0,1.0,0.0,2.0,2.0,446.9743849999759,4.0,1.0,part_1,,,,,,,,,,,,,white,hexagon
0.0,6.0,0.0,1.0,3.0,3.0,457.2047850001581,4.0,1.0,part_1,,,,,,,,,,,,,orange,flipped triangle
1319.0,8.0,4.0,1.0,1.0,1.0,463.5944429996925,4.0,1.0,part_1,,,,,,,,,,,,,magenta,circle
0.0,8.0,0.0,1.0,4.0,4.0,444.9543790001371,4.0,1.0,part_1,,,,,,,,,,,,,magenta,circle
145.0,1.0,1.0,0.0,4.0,4.0,454.697507000219,4.0,1.0,part_1,,,,,,,,,,,,,white,hexagon
153.0,1.0,1.0,0.0,4.0,4.0,438.3362540002053,4.0,1.0,part_1,,,,,,,,,,,,,white,hexagon
1304.0,8.0,4.0,1.0,2.0,2.0,455.7053929997892,4.0,1.0,part_1,,,,,,,,,,,,,magenta,circle
645.0,3.0,3.0,0.0,3.0,3.0,483.9886890003981,4.0,1.0,part_1,,,,,,,,,,,,,cyan,I
344.0,2.0,2.0,0.0,3.0,3.0,464.9637279999297,4.0,1.0,part_1,,,,,,,,,,,,,blue,cross
0.0,1.0,0.0,0.0,2.0,2.0,595.934724000017,4.0,1.0,part_1,,,,,,,,,,,,,white,hexagon
330.0,6.0,2.0,1.0,3.0,3.0,464.327637000224,4.0,1.0,part_1,,,,,,,,,,,,,orange,flipped triangle
662.0,3.0,3.0,0.0,1.0,1.0,445.9442860002127,4.0,1.0,part_1,,,,,,,,,,,,,cyan,I
167.0,1.0,1.0,0.0,1.0,1.0,512.2271750001346,4.0,1.0,part_1,,,,,,,,,,,,,white,hexagon
139.0,1.0,1.0,0.0,2.0,2.0,521.5987889996541,4.0,1.0,part_1,,,,,,,,,,,,,white,hexagon
640.0,3.0,3.0,0.0,2.0,2.0,613.3867909998116,4.0,1.0,part_1,,,,,,,,,,,,,cyan,I
138.0,5.0,1.0,1.0,2.0,2.0,437.101820999942,4.0,1.0,part_1,,,,,,,,,,,,,yellow,diamond
308.0,6.0,2.0,1.0,2.0,2.0,455.2145699999528,4.0,1.0,part_1,,,,,,,,,,,,,orange,flipped triangle
1322.0,4.0,4.0,0.0,4.0,4.0,464.0780140002789,4.0,1.0,part_1,,,,,,,,,,,,,green,triangle
1283.0,8.0,4.0,1.0,1.0,1.0,447.1349609998469,4.0,1.0,part_1,,,,,,,,,,,,,magenta,circle
319.0,6.0,2.0,1.0,1.0,1.0,485.1045059999705,4.0,1.0,part_1,,,,,,,,,,,,,orange,flipped triangle
1297.0,4.0,4.0,0.0,1.0,1.0,456.0659450003186,4.0,1.0,part_1,,,,,,,,,,,,,green,triangle
308.0,2.0,2.0,0.0,4.0,4.0,455.1404320000074,4.0,1.0,part_1,,,,,,,,,,,,,blue,cross
330.0,2.0,2.0,0.0,3.0,3.0,566.1970099999962,4.0,1.0,part_1,,,,,,,,,,,,,blue,cross
0.0,1.0,0.0,0.0,1.0,1.0,540.1960610001879,4.0,1.0,part_1,,,,,,,,,,,,,white,hexagon
646.0,7.0,3.0,1.0,4.0,4.0,456.2108310001349,4.0,1.0,part_1,,,,,,,,,,,,,gray,square
663.0,3.0,3.0,0.0,1.0,1.0,446.0182200000417,4.0,1.0,part_1,,,,,,,,,,,,,cyan,I
1275.0,4.0,4.0,0.0,2.0,2.0,586.296774999937,4.0,1.0,part_1,,,,,,,,,,,,,green,triangle
645.0,7.0,3.0,1.0,4.0,4.0,455.2120070002274,4.0,1.0,part_1,,,,,,,,,,,,,gray,square
346.0,2.0,2.0,0.0,1.0,1.0,556.7970470001455,4.0,1.0,part_1,,,,,,,,,,,,,blue,cross
159.0,1.0,1.0,0.0,1.0,1.0,437.6499439999861,4.0,1.0,part_1,,,,,,,,,,,,,white,hexagon
324.0,6.0,2.0,1.0,1.0,1.0,456.1144039998908,4.0,1.0,part_1,,,,,,,,,,,,,orange,flipped triangle
1275.0,4.0,4.0,0.0,3.0,3.0,687.3948910001673,4.0,1.0,part_1,,,,,,,,,,,,,green,triangle
318.0,6.0,2.0,1.0,4.0,4.0,465.0215550000212,4.0,1.0,part_1,,,,,,,,,,,,,orange,flipped triangle
652.0,7.0,3.0,1.0,3.0,3.0,463.9865799999825,4.0,1.0,part_1,,,,,,,,,,,,,gray,square
0.0,8.0,0.0,1.0,2.0,2.0,808.6273610001626,4.0,2.0,part_1,,,,,,,,,,,,,magenta,circle
0.0,4.0,0.0,0.0,1.0,1.0,520.7342339999741,4.0,1.0,part_1,,,,,,,,,,,,,green,triangle
0.0,5.0,0.0,1.0,3.0,3.0,493.5446929998761,4.0,1.0,part_1,,,,,,,,,,,,,yellow,diamond
302.0,6.0,2.0,1.0,1.0,1.0,492.3521690002417,4.0,1.0,part_1,,,,,,,,,,,,,orange,flipped triangle
1317.0,4.0,4.0,0.0,4.0,4.0,484.51865800007,4.0,1.0,part_1,,,,,,,,,,,,,green,triangle
650.0,3.0,3.0,0.0,1.0,1.0,472.7925560000585,4.0,1.0,part_1,,,,,,,,,,,,,cyan,I
1319.0,4.0,4.0,0.0,4.0,4.0,463.7771110001267,4.0,1.0,part_1,,,,,,,,,,,,,green,triangle
317.0,6.0,2.0,1.0,1.0,1.0,482.934405999913,4.0,1.0,part_1,,,,,,,,,,,,,orange,flipped triangle
344.0,2.0,2.0,0.0,2.0,2.0,772.1466440002587,4.0,1.0,part_1,,,,,,,,,,,,,blue,cross
0.0,6.0,0.0,1.0,1.0,1.0,463.6503700003231,4.0,1.0,part_1,,,,,,,,,,,,,orange,flipped triangle
645.0,7.0,3.0,1.0,4.0,4.0,455.5283139998209,4.0,1.0,part_1,,,,,,,,,,,,,gray,square
0.0,7.0,0.0,1.0,1.0,1.0,399.5128199999271,4.0,1.0,part_1,,,,,,,,,,,,,gray,square
144.0,5.0,1.0,1.0,2.0,2.0,519.7848319999139,4.0,1.0,part_1,,,,,,,,,,,,,yellow,diamond
1310.0,4.0,4.0,0.0,1.0,1.0,445.8545929996944,4.0,1.0,part_1,,,,,,,,,,,,,green,triangle
1279.0,8.0,4.0,1.0,2.0,2.0,481.913932000225,4.0,1.0,part_1,,,,,,,,,,,,,magenta,circle
165.0,1.0,1.0,0.0,3.0,3.0,474.5372169995789,4.0,1.0,part_1,,,,,,,,,,,,,white,hexagon
319.0,2.0,2.0,0.0,2.0,2.0,419.5674210000106,4.0,2.0,part_1,,,,,,,,,,,,,blue,cross
180.0,5.0,1.0,1.0,2.0,2.0,409.33411099968,4.0,1.0,part_1,,,,,,,,,,,,,yellow,diamond
0.0,2.0,0.0,0.0,2.0,2.0,363.1873870003801,4.0,1.0,part_1,,,,,,,,,,,,,blue,cross
318.0,6.0,2.0,1.0,2.0,2.0,410.2344550001362,4.0,1.0,part_1,,,,,,,,,,,,,orange,flipped triangle
634.0,3.0,3.0,0.0,4.0,4.0,438.4393929999532,4.0,1.0,part_1,,,,,,,,,,,,,cyan,I
322.0,2.0,2.0,0.0,2.0,2.0,409.3264519997319,4.0,1.0,part_1,,,,,,,,,,,,,blue,cross
639.0,7.0,3.0,1.0,3.0,3.0,399.4747749998169,4.0,1.0,part_1,,,,,,,,,,,,,gray,square
1304.0,4.0,4.0,0.0,4.0,4.0,475.2991780001139,4.0,1.0,part_1,,,,,,,,,,,,,green,triangle
305.0,2.0,2.0,0.0,2.0,2.0,342.967913999928,4.0,1.0,part_1,,,,,,,,,,,,,blue,cross
172.0,1.0,1.0,0.0,1.0,1.0,371.4457639998727,4.0,1.0,part_1,,,,,,,,,,,,,white,hexagon
0.0,2.0,0.0,0.0,3.0,3.0,557.555725000384,4.0,1.0,part_1,,,,,,,,,,,,,blue,cross
1289.0,4.0,4.0,0.0,2.0,2.0,418.1487979999474,4.0,1.0,part_1,,,,,,,,,,,,,green,triangle
0.0,3.0,0.0,0.0,2.0,2.0,399.3715159999738,4.0,1.0,part_1,,,,,,,,,,,,,cyan,I
313.0,6.0,2.0,1.0,1.0,1.0,390.6828859999223,4.0,1.0,part_1,,,,,,,,,,,,,orange,flipped triangle
1294.0,8.0,4.0,1.0,1.0,1.0,390.9790120001162,4.0,1.0,part_1,,,,,,,,,,,,,magenta,circle
1292.0,4.0,4.0,0.0,3.0,3.0,454.9102610003501,4.0,2.0,part_1,,,,,,,,,,,,,green,triangle
0.0,8.0,4.0,1.0,6.0,6.0,448.1384329997127,1.0,0.0,part_2,go,250.0,250.0,1.0,,,,,,,,,magenta,circle
0.0,2.0,2.0,0.0,5.0,5.0,688.3438710001428,1.0,0.0,part_2,go,250.0,250.0,1.0,,,,,,,,,blue,cross
0.0,4.0,4.0,0.0,5.0,5.0,678.8337070001944,1.0,0.0,part_2,go,250.0,250.0,1.0,,,,,,,,,green,triangle
0.0,6.0,2.0,1.0,6.0,6.0,674.6170039996287,1.0,0.0,part_2,stop,250.0,250.0,3.0,,,,,,,,,orange,flipped triangle
0.0,6.0,2.0,1.0,6.0,6.0,737.9556070000035,1.0,0.0,part_2,go,250.0,200.0,1.0,,,,,,,,,orange,flipped triangle
0.0,1.0,1.0,0.0,5.0,5.0,862.6402290001352,1.0,0.0,part_2,go,250.0,200.0,1.0,,,,,,,,,white,hexagon
0.0,6.0,2.0,1.0,5.0,0.0,0.0,1.0,0.0,part_2,stop,250.0,200.0,4.0,,,,,,,,,orange,flipped triangle
0.0,8.0,4.0,1.0,6.0,0.0,0.0,1.0,0.0,part_2,stop,300.0,200.0,4.0,,,,,,,,,magenta,circle
0.0,1.0,1.0,0.0,6.0,6.0,544.2670470001758,1.0,0.0,part_2,go,300.0,250.0,1.0,,,,,,,,,white,hexagon
0.0,5.0,1.0,1.0,6.0,0.0,0.0,1.0,0.0,part_2,stop,300.0,250.0,4.0,,,,,,,,,yellow,diamond
0.0,3.0,3.0,0.0,5.0,5.0,795.3143540003111,1.0,0.0,part_2,go,300.0,300.0,1.0,,,,,,,,,cyan,I
0.0,3.0,3.0,0.0,5.0,5.0,757.4746239997694,1.0,0.0,part_2,go,300.0,300.0,1.0,,,,,,,,,cyan,I
0.0,3.0,3.0,0.0,5.0,5.0,766.9351919998917,1.0,0.0,part_2,go,300.0,300.0,1.0,,,,,,,,,cyan,I
0.0,8.0,4.0,1.0,6.0,0.0,0.0,1.0,0.0,part_2,stop,300.0,300.0,4.0,,,,,,,,,magenta,circle
0.0,8.0,4.0,1.0,6.0,6.0,703.1852680001975,1.0,0.0,part_2,go,300.0,350.0,1.0,,,,,,,,,magenta,circle
0.0,8.0,4.0,1.0,5.0,0.0,0.0,1.0,0.0,part_2,stop,300.0,350.0,4.0,,,,,,,,,magenta,circle
0.0,6.0,2.0,1.0,5.0,0.0,0.0,1.0,0.0,part_2,stop,350.0,350.0,4.0,,,,,,,,,orange,flipped triangle
0.0,1.0,1.0,0.0,6.0,6.0,841.9742480000423,1.0,0.0,part_2,go,400.0,350.0,1.0,,,,,,,,,white,hexagon
0.0,1.0,1.0,0.0,6.0,6.0,795.959301000039,1.0,0.0,part_2,go,400.0,350.0,1.0,,,,,,,,,white,hexagon
0.0,8.0,4.0,1.0,6.0,0.0,0.0,1.0,0.0,part_2,stop,400.0,350.0,4.0,,,,,,,,,magenta,circle
0.0,8.0,4.0,1.0,5.0,5.0,758.5920299998179,1.0,0.0,part_2,go,400.0,400.0,1.0,,,,,,,,,magenta,circle
0.0,2.0,2.0,0.0,5.0,5.0,823.9014240002689,1.0,0.0,part_2,go,400.0,400.0,1.0,,,,,,,,,blue,cross
0.0,3.0,3.0,0.0,5.0,5.0,710.8864730003006,1.0,0.0,part_2,go,400.0,400.0,1.0,,,,,,,,,cyan,I
0.0,5.0,1.0,1.0,5.0,5.0,524.0685450003184,1.0,0.0,part_2,stop,400.0,400.0,3.0,,,,,,,,,yellow,diamond
0.0,3.0,3.0,0.0,6.0,6.0,706.5560959999857,1.0,0.0,part_2,go,350.0,400.0,1.0,,,,,,,,,cyan,I
0.0,7.0,3.0,1.0,6.0,0.0,0.0,1.0,0.0,part_2,stop,350.0,400.0,4.0,,,,,,,,,gray,square
0.0,6.0,2.0,1.0,6.0,0.0,0.0,1.0,0.0,part_2,stop,350.0,450.0,4.0,,,,,,,,,orange,flipped triangle
0.0,7.0,3.0,1.0,6.0,0.0,0.0,1.0,0.0,part_2,stop,350.0,500.0,4.0,,,,,,,,,gray,square
0.0,1.0,1.0,0.0,5.0,5.0,925.8588820002842,1.0,0.0,part_2,go,350.0,550.0,1.0,,,,,,,,,white,hexagon
0.0,4.0,4.0,0.0,5.0,5.0,946.2812420001684,1.0,0.0,part_2,go,350.0,550.0,1.0,,,,,,,,,green,triangle
0.0,5.0,1.0,1.0,5.0,5.0,818.7758599997323,1.0,0.0,part_2,go,350.0,550.0,1.0,,,,,,,,,yellow,diamond
0.0,5.0,1.0,1.0,5.0,0.0,0.0,1.0,0.0,part_2,stop,350.0,550.0,4.0,,,,,,,,,yellow,diamond
0.0,5.0,1.0,1.0,6.0,6.0,828.2239710001704,1.0,0.0,part_2,go,400.0,550.0,1.0,,,,,,,,,yellow,diamond
0.0,8.0,4.0,1.0,5.0,0.0,0.0,1.0,0.0,part_2,stop,400.0,550.0,4.0,,,,,,,,,magenta,circle
0.0,8.0,4.0,1.0,6.0,0.0,0.0,1.0,0.0,part_2,stop,450.0,550.0,4.0,,,,,,,,,magenta,circle
0.0,4.0,4.0,0.0,6.0,6.0,962.0226800002456,1.0,0.0,part_2,go,450.0,600.0,1.0,,,,,,,,,green,triangle
0.0,5.0,1.0,1.0,5.0,0.0,0.0,2.0,0.0,part_2,stop,450.0,600.0,4.0,,,,,,,,,yellow,diamond
0.0,4.0,4.0,0.0,5.0,5.0,795.6812860002174,2.0,0.0,part_2,go,500.0,600.0,1.0,,,,,,,,,green,triangle
0.0,7.0,3.0,1.0,6.0,6.0,794.9988929999563,2.0,0.0,part_2,go,500.0,600.0,1.0,,,,,,,,,gray,square
0.0,2.0,2.0,0.0,6.0,6.0,729.2970859998604,2.0,0.0,part_2,go,500.0,600.0,1.0,,,,,,,,,blue,cross
0.0,8.0,4.0,1.0,6.0,6.0,651.8347669998548,2.0,0.0,part_2,stop,500.0,600.0,3.0,,,,,,,,,magenta,circle
0.0,8.0,4.0,1.0,6.0,6.0,663.5659680000572,2.0,0.0,part_2,stop,500.0,550.0,3.0,,,,,,,,,magenta,circle
0.0,2.0,2.0,0.0,5.0,5.0,870.8372549999694,2.0,0.0,part_2,go,500.0,500.0,1.0,,,,,,,,,blue,cross
0.0,7.0,3.0,1.0,5.0,0.0,0.0,2.0,0.0,part_2,stop,500.0,500.0,4.0,,,,,,,,,gray,square
0.0,7.0,3.0,1.0,5.0,0.0,0.0,2.0,0.0,part_2,stop,550.0,500.0,4.0,,,,,,,,,gray,square
0.0,2.0,2.0,0.0,6.0,6.0,840.8978470001784,2.0,0.0,part_2,go,600.0,500.0,1.0,,,,,,,,,blue,cross
0.0,5.0,1.0,1.0,6.0,6.0,782.6231330000155,2.0,0.0,part_2,go,600.0,500.0,1.0,,,,,,,,,yellow,diamond
0.0,5.0,1.0,1.0,6.0,0.0,0.0,2.0,0.0,part_2,stop,600.0,500.0,4.0,,,,,,,,,yellow,diamond
0.0,1.0,1.0,0.0,5.0,5.0,866.9519420000142,2.0,0.0,part_2,go,600.0,550.0,1.0,,,,,,,,,white,hexagon
0.0,6.0,2.0,1.0,5.0,5.0,843.415713000013,2.0,0.0,part_2,stop,600.0,550.0,3.0,,,,,,,,,orange,flipped triangle
0.0,7.0,3.0,1.0,5.0,0.0,0.0,2.0,0.0,part_2,stop,550.0,550.0,4.0,,,,,,,,,gray,square
0.0,2.0,2.0,0.0,6.0,6.0,903.8644449997264,2.0,0.0,part_2,go,600.0,550.0,1.0,,,,,,,,,blue,cross
0.0,2.0,2.0,0.0,5.0,5.0,878.2155060002879,2.0,0.0,part_2,go,600.0,550.0,1.0,,,,,,,,,blue,cross
0.0,2.0,2.0,0.0,5.0,5.0,1042.3478669999895,2.0,0.0,part_2,go,600.0,550.0,1.0,,,,,,,,,blue,cross
0.0,6.0,2.0,1.0,5.0,0.0,0.0,2.0,0.0,part_2,stop,600.0,550.0,4.0,,,,,,,,,orange,flipped triangle
0.0,8.0,4.0,1.0,5.0,5.0,897.0257060000222,2.0,0.0,part_2,go,650.0,550.0,1.0,,,,,,,,,magenta,circle
0.0,7.0,3.0,1.0,5.0,5.0,909.5476749998852,2.0,0.0,part_2,stop,650.0,550.0,3.0,,,,,,,,,gray,square
0.0,3.0,3.0,0.0,5.0,5.0,939.1272819998449,2.0,0.0,part_2,go,600.0,550.0,1.0,,,,,,,,,cyan,I
0.0,8.0,4.0,1.0,5.0,5.0,838.1479899999249,2.0,0.0,part_2,stop,600.0,550.0,3.0,,,,,,,,,magenta,circle
0.0,3.0,3.0,0.0,5.0,5.0,1013.6155219997818,2.0,0.0,part_2,go,550.0,550.0,1.0,,,,,,,,,cyan,I
0.0,5.0,1.0,1.0,6.0,0.0,0.0,2.0,0.0,part_2,stop,550.0,550.0,4.0,,,,,,,,,yellow,diamond
0.0,4.0,4.0,0.0,6.0,6.0,851.961785000185,2.0,0.0,part_2,go,550.0,600.0,1.0,,,,,,,,,green,triangle
0.0,4.0,4.0,0.0,6.0,6.0,1084.3801770001846,2.0,0.0,part_2,go,550.0,600.0,1.0,,,,,,,,,green,triangle
0.0,4.0,4.0,0.0,6.0,6.0,804.4849519997115,2.0,0.0,part_2,go,550.0,600.0,1.0,,,,,,,,,green,triangle
0.0,7.0,3.0,1.0,6.0,0.0,0.0,2.0,0.0,part_2,stop,550.0,600.0,4.0,,,,,,,,,gray,square
0.0,2.0,2.0,0.0,6.0,6.0,1001.7046490002031,2.0,0.0,part_2,go,550.0,650.0,1.0,,,,,,,,,blue,cross
0.0,5.0,1.0,1.0,6.0,0.0,0.0,2.0,0.0,part_2,stop,550.0,650.0,4.0,,,,,,,,,yellow,diamond
0.0,5.0,1.0,1.0,5.0,0.0,0.0,2.0,0.0,part_2,stop,550.0,700.0,4.0,,,,,,,,,yellow,diamond
0.0,3.0,3.0,0.0,6.0,6.0,870.5982310002582,2.0,0.0,part_2,go,600.0,700.0,1.0,,,,,,,,,cyan,I
0.0,6.0,2.0,1.0,6.0,6.0,972.097678999944,2.0,0.0,part_2,stop,600.0,700.0,3.0,,,,,,,,,orange,flipped triangle
0.0,1.0,1.0,0.0,6.0,6.0,946.3474799999858,2.0,0.0,part_2,go,600.0,650.0,1.0,,,,,,,,,white,hexagon
0.0,2.0,2.0,0.0,5.0,5.0,955.2711169999384,2.0,0.0,part_2,go,600.0,650.0,1.0,,,,,,,,,blue,cross
0.0,8.0,4.0,1.0,5.0,5.0,778.4681850002926,3.0,0.0,part_2,stop,600.0,650.0,3.0,,,,,,,,,magenta,circle
0.0,1.0,1.0,0.0,5.0,5.0,879.6053519999987,3.0,0.0,part_2,go,550.0,650.0,1.0,,,,,,,,,white,hexagon
0.0,6.0,2.0,1.0,5.0,0.0,0.0,3.0,0.0,part_2,stop,550.0,650.0,4.0,,,,,,,,,orange,flipped triangle
0.0,2.0,2.0,0.0,5.0,5.0,897.8656439999213,3.0,0.0,part_2,go,600.0,650.0,1.0,,,,,,,,,blue,cross
0.0,7.0,3.0,1.0,5.0,5.0,891.5607829999317,3.0,0.0,part_2,go,600.0,650.0,1.0,,,,,,,,,gray,square
0.0,1.0,1.0,0.0,5.0,5.0,815.126212999985,3.0,0.0,part_2,go,600.0,650.0,1.0,,,,,,,,,white,hexagon
0.0,5.0,1.0,1.0,6.0,6.0,897.4515579998297,3.0,0.0,part_2,go,600.0,650.0,1.0,,,,,,,,,yellow,diamond
0.0,8.0,4.0,1.0,5.0,5.0,873.3182169999054,3.0,0.0,part_2,stop,600.0,650.0,3.0,,,,,,,,,magenta,circle
0.0,5.0,1.0,1.0,5.0,0.0,0.0,3.0,0.0,part_2,stop,550.0,650.0,4.0,,,,,,,,,yellow,diamond
0.0,6.0,2.0,1.0,5.0,0.0,0.0,3.0,0.0,part_2,stop,600.0,650.0,4.0,,,,,,,,,orange,flipped triangle
0.0,1.0,1.0,0.0,6.0,6.0,1058.395458000177,3.0,0.0,part_2,go,650.0,650.0,1.0,,,,,,,,,white,hexagon
0.0,3.0,3.0,0.0,5.0,5.0,1085.8490149998945,3.0,0.0,part_2,go,650.0,650.0,1.0,,,,,,,,,cyan,I
0.0,2.0,2.0,0.0,6.0,6.0,964.0803300003428,3.0,0.0,part_2,go,650.0,650.0,1.0,,,,,,,,,blue,cross
0.0,3.0,3.0,0.0,5.0,5.0,887.721529999908,3.0,0.0,part_2,go,650.0,650.0,1.0,,,,,,,,,cyan,I
0.0,1.0,1.0,0.0,6.0,6.0,916.912080000202,3.0,0.0,part_2,go,650.0,650.0,1.0,,,,,,,,,white,hexagon
0.0,4.0,4.0,0.0,6.0,6.0,888.3942770003159,3.0,0.0,part_2,go,650.0,650.0,1.0,,,,,,,,,green,triangle
0.0,8.0,4.0,1.0,6.0,6.0,833.8251680002031,3.0,0.0,part_2,stop,650.0,650.0,3.0,,,,,,,,,magenta,circle
0.0,3.0,3.0,0.0,6.0,6.0,786.002667000048,3.0,0.0,part_2,go,650.0,600.0,1.0,,,,,,,,,cyan,I
0.0,3.0,3.0,0.0,5.0,5.0,758.2694550001179,3.0,0.0,part_2,go,650.0,600.0,1.0,,,,,,,,,cyan,I
0.0,3.0,3.0,0.0,5.0,5.0,823.3671529997082,3.0,0.0,part_2,go,650.0,600.0,1.0,,,,,,,,,cyan,I
0.0,2.0,2.0,0.0,6.0,6.0,768.6451600002329,3.0,0.0,part_2,go,650.0,600.0,1.0,,,,,,,,,blue,cross
0.0,6.0,2.0,1.0,6.0,6.0,724.103923000257,3.0,0.0,part_2,go,650.0,600.0,1.0,,,,,,,,,orange,flipped triangle
0.0,2.0,2.0,0.0,5.0,5.0,692.7134819998173,3.0,0.0,part_2,go,650.0,600.0,1.0,,,,,,,,,blue,cross
0.0,3.0,3.0,0.0,5.0,5.0,946.0783970002922,3.0,0.0,part_2,go,650.0,600.0,1.0,,,,,,,,,cyan,I
0.0,4.0,4.0,0.0,5.0,5.0,945.7204740001544,3.0,0.0,part_2,go,650.0,600.0,1.0,,,,,,,,,green,triangle
0.0,5.0,1.0,1.0,6.0,6.0,757.926457999929,3.0,0.0,part_2,stop,650.0,600.0,3.0,,,,,,,,,yellow,diamond
0.0,1.0,1.0,0.0,5.0,5.0,794.3043340001168,3.0,0.0,part_2,go,650.0,550.0,1.0,,,,,,,,,white,hexagon
0.0,3.0,3.0,0.0,5.0,5.0,748.8450759997249,3.0,0.0,part_2,go,650.0,550.0,1.0,,,,,,,,,cyan,I
0.0,4.0,4.0,0.0,5.0,5.0,907.9263369999352,3.0,0.0,part_2,go,650.0,550.0,1.0,,,,,,,,,green,triangle
0.0,8.0,4.0,1.0,6.0,6.0,656.4445310000337,3.0,0.0,part_2,stop,650.0,550.0,3.0,,,,,,,,,magenta,circle
0.0,6.0,2.0,1.0,6.0,6.0,545.6094320002194,3.0,0.0,part_2,stop,650.0,500.0,3.0,,,,,,,,,orange,flipped triangle
0.0,7.0,3.0,1.0,5.0,5.0,871.5694259999509,3.0,0.0,part_2,go,650.0,450.0,1.0,,,,,,,,,gray,square
0.0,6.0,2.0,1.0,5.0,5.0,893.9767419997224,3.0,0.0,part_2,stop,650.0,450.0,3.0,,,,,,,,,orange,flipped triangle
0.0,4.0,4.0,0.0,6.0,6.0,1334.1402619998917,3.0,0.0,part_2,go,600.0,450.0,1.0,,,,,,,,,green,triangle
0.0,2.0,2.0,0.0,6.0,6.0,965.0010730001668,3.0,0.0,part_2,go,600.0,450.0,1.0,,,,,,,,,blue,cross
0.0,8.0,4.0,1.0,5.0,0.0,0.0,3.0,0.0,part_2,stop,600.0,450.0,4.0,,,,,,,,,magenta,circle
0.0,8.0,4.0,1.0,5.0,5.0,571.7062210001131,4.0,0.0,part_2,stop,650.0,450.0,3.0,,,,,,,,,magenta,circle
0.0,6.0,2.0,1.0,6.0,6.0,693.2623449997664,4.0,0.0,part_2,go,600.0,450.0,1.0,,,,,,,,,orange,flipped triangle
0.0,2.0,2.0,0.0,5.0,5.0,719.5323249998182,4.0,0.0,part_2,go,600.0,450.0,1.0,,,,,,,,,blue,cross
0.0,6.0,2.0,1.0,6.0,6.0,889.1628110000056,4.0,0.0,part_2,go,600.0,450.0,1.0,,,,,,,,,orange,flipped triangle
0.0,5.0,1.0,1.0,5.0,5.0,654.8546049998549,4.0,0.0,part_2,stop,600.0,450.0,3.0,,,,,,,,,yellow,diamond
0.0,1.0,1.0,0.0,5.0,5.0,721.3180410003588,4.0,0.0,part_2,go,550.0,450.0,1.0,,,,,,,,,white,hexagon
0.0,6.0,2.0,1.0,6.0,0.0,0.0,4.0,0.0,part_2,stop,550.0,450.0,4.0,,,,,,,,,orange,flipped triangle
0.0,3.0,3.0,0.0,6.0,6.0,889.844499999981,4.0,0.0,part_2,go,550.0,500.0,1.0,,,,,,,,,cyan,I
0.0,4.0,4.0,0.0,6.0,6.0,887.7265000000989,4.0,0.0,part_2,go,550.0,500.0,1.0,,,,,,,,,green,triangle
0.0,4.0,4.0,0.0,5.0,5.0,749.1054219999569,4.0,0.0,part_2,go,550.0,500.0,1.0,,,,,,,,,green,triangle
0.0,5.0,1.0,1.0,6.0,0.0,0.0,4.0,0.0,part_2,stop,550.0,500.0,4.0,,,,,,,,,yellow,diamond
0.0,7.0,3.0,1.0,5.0,5.0,766.0016560002987,4.0,0.0,part_2,stop,550.0,550.0,3.0,,,,,,,,,gray,square
0.0,2.0,2.0,0.0,6.0,6.0,767.5681850000728,4.0,0.0,part_2,go,500.0,550.0,1.0,,,,,,,,,blue,cross
0.0,4.0,4.0,0.0,5.0,5.0,935.7159800001682,4.0,0.0,part_2,go,500.0,550.0,1.0,,,,,,,,,green,triangle
0.0,7.0,3.0,1.0,6.0,6.0,762.3887660001856,4.0,0.0,part_2,stop,500.0,550.0,3.0,,,,,,,,,gray,square
0.0,2.0,2.0,0.0,6.0,6.0,805.7664990001285,4.0,0.0,part_2,go,500.0,500.0,1.0,,,,,,,,,blue,cross
0.0,4.0,4.0,0.0,5.0,5.0,831.5696560002834,4.0,0.0,part_2,go,500.0,500.0,1.0,,,,,,,,,green,triangle
0.0,8.0,4.0,1.0,5.0,5.0,669.3437960002484,4.0,0.0,part_2,stop,500.0,500.0,3.0,,,,,,,,,magenta,circle
0.0,4.0,4.0,0.0,6.0,6.0,794.812912999987,4.0,0.0,part_2,go,450.0,500.0,1.0,,,,,,,,,green,triangle
0.0,8.0,4.0,1.0,6.0,0.0,0.0,4.0,0.0,part_2,stop,450.0,500.0,4.0,,,,,,,,,magenta,circle
0.0,1.0,1.0,0.0,5.0,5.0,736.4046479997342,4.0,0.0,part_2,go,450.0,550.0,1.0,,,,,,,,,white,hexagon
0.0,4.0,4.0,0.0,6.0,6.0,758.9279849999002,4.0,0.0,part_2,go,450.0,550.0,1.0,,,,,,,,,green,triangle
0.0,6.0,2.0,1.0,6.0,0.0,0.0,4.0,0.0,part_2,stop,450.0,550.0,4.0,,,,,,,,,orange,flipped triangle
0.0,1.0,1.0,0.0,5.0,5.0,758.8744649997352,4.0,0.0,part_2,go,450.0,600.0,1.0,,,,,,,,,white,hexagon
0.0,1.0,1.0,0.0,6.0,6.0,897.3202550000678,4.0,0.0,part_2,go,450.0,600.0,1.0,,,,,,,,,white,hexagon
0.0,3.0,3.0,0.0,5.0,5.0,907.5846319997254,4.0,0.0,part_2,go,450.0,600.0,1.0,,,,,,,,,cyan,I
0.0,5.0,1.0,1.0,5.0,0.0,0.0,4.0,0.0,part_2,stop,450.0,600.0,4.0,,,,,,,,,yellow,diamond
0.0,4.0,4.0,0.0,6.0,6.0,850.2015940002821,4.0,0.0,part_2,go,500.0,600.0,1.0,,,,,,,,,green,triangle
0.0,6.0,2.0,1.0,5.0,0.0,0.0,4.0,0.0,part_2,stop,500.0,600.0,4.0,,,,,,,,,orange,flipped triangle
0.0,8.0,4.0,1.0,6.0,6.0,775.9212319997459,4.0,0.0,part_2,stop,550.0,600.0,3.0,,,,,,,,,magenta,circle
0.0,6.0,2.0,1.0,5.0,0.0,0.0,4.0,0.0,part_2,stop,550.0,550.0,4.0,,,,,,,,,orange,flipped triangle
0.0,7.0,3.0,1.0,5.0,5.0,815.9262229996784,4.0,0.0,part_2,go,600.0,550.0,1.0,,,,,,,,,gray,square
0.0,3.0,3.0,0.0,5.0,5.0,897.7749949999634,4.0,0.0,part_2,go,600.0,550.0,1.0,,,,,,,,,cyan,I
0.0,1.0,1.0,0.0,5.0,5.0,868.657733999953,4.0,0.0,part_2,go,600.0,550.0,1.0,,,,,,,,,white,hexagon
0.0,6.0,2.0,1.0,6.0,6.0,854.7775510000974,4.0,0.0,part_2,stop,600.0,550.0,3.0,,,,,,,,,orange,flipped triangle
0.0,1.0,1.0,0.0,5.0,5.0,777.7766989997872,4.0,0.0,part_2,go,600.0,500.0,1.0,,,,,,,,,white,hexagon
0.0,6.0,2.0,1.0,6.0,0.0,0.0,5.0,0.0,part_2,stop,600.0,500.0,4.0,,,,,,,,,orange,flipped triangle
0.0,4.0,4.0,0.0,6.0,6.0,854.3967599998723,5.0,0.0,part_2,go,600.0,550.0,1.0,,,,,,,,,green,triangle
0.0,1.0,1.0,0.0,6.0,6.0,742.0078479999574,5.0,0.0,part_2,go,600.0,550.0,1.0,,,,,,,,,white,hexagon
0.0,4.0,4.0,0.0,6.0,6.0,797.7403579998281,5.0,0.0,part_2,go,600.0,550.0,1.0,,,,,,,,,green,triangle
0.0,3.0,3.0,0.0,6.0,6.0,862.9721769998469,5.0,0.0,part_2,go,600.0,550.0,1.0,,,,,,,,,cyan,I
0.0,3.0,3.0,0.0,6.0,6.0,778.2696540002689,5.0,0.0,part_2,go,600.0,550.0,1.0,,,,,,,,,cyan,I
0.0,7.0,3.0,1.0,6.0,0.0,0.0,5.0,0.0,part_2,stop,600.0,550.0,4.0,,,,,,,,,gray,square
0.0,7.0,3.0,1.0,5.0,5.0,787.2837029999573,5.0,0.0,part_2,stop,600.0,600.0,3.0,,,,,,,,,gray,square
0.0,2.0,2.0,0.0,5.0,5.0,902.0508449998488,5.0,0.0,part_2,go,550.0,600.0,1.0,,,,,,,,,blue,cross
0.0,3.0,3.0,0.0,5.0,5.0,816.9320150000203,5.0,0.0,part_2,go,550.0,600.0,1.0,,,,,,,,,cyan,I
0.0,4.0,4.0,0.0,5.0,5.0,881.2515320000784,5.0,0.0,part_2,go,550.0,600.0,1.0,,,,,,,,,green,triangle
0.0,5.0,1.0,1.0,5.0,5.0,787.4171749999732,5.0,0.0,part_2,go,550.0,600.0,1.0,,,,,,,,,yellow,diamond
0.0,5.0,1.0,1.0,5.0,5.0,719.3882980000126,5.0,0.0,part_2,stop,550.0,600.0,3.0,,,,,,,,,yellow,diamond
0.0,2.0,2.0,0.0,5.0,5.0,797.399107000274,5.0,0.0,part_2,go,500.0,600.0,1.0,,,,,,,,,blue,cross
0.0,1.0,1.0,0.0,6.0,6.0,787.7991249997649,5.0,0.0,part_2,go,500.0,600.0,1.0,,,,,,,,,white,hexagon
0.0,4.0,4.0,0.0,5.0,5.0,824.9863440000809,5.0,0.0,part_2,go,500.0,600.0,1.0,,,,,,,,,green,triangle
0.0,6.0,2.0,1.0,6.0,0.0,0.0,5.0,0.0,part_2,stop,500.0,600.0,4.0,,,,,,,,,orange,flipped triangle
0.0,5.0,1.0,1.0,5.0,5.0,853.4968760000083,5.0,0.0,part_2,go,500.0,650.0,1.0,,,,,,,,,yellow,diamond
0.0,1.0,1.0,0.0,5.0,5.0,860.9491419997539,5.0,0.0,part_2,go,500.0,650.0,1.0,,,,,,,,,white,hexagon
0.0,2.0,2.0,0.0,5.0,5.0,777.6564750001853,5.0,0.0,part_2,go,500.0,650.0,1.0,,,,,,,,,blue,cross
0.0,7.0,3.0,1.0,6.0,6.0,889.2199119995894,5.0,0.0,part_2,go,500.0,650.0,1.0,,,,,,,,,gray,square
0.0,4.0,4.0,0.0,6.0,6.0,823.4534879998137,5.0,0.0,part_2,go,500.0,650.0,1.0,,,,,,,,,green,triangle
0.0,6.0,2.0,1.0,5.0,5.0,749.1182150001805,5.0,0.0,part_2,go,500.0,650.0,1.0,,,,,,,,,orange,flipped triangle
0.0,8.0,4.0,1.0,6.0,6.0,799.7404859997914,5.0,0.0,part_2,stop,500.0,650.0,3.0,,,,,,,,,magenta,circle
0.0,5.0,1.0,1.0,5.0,5.0,898.457397999664,5.0,0.0,part_2,go,500.0,600.0,1.0,,,,,,,,,yellow,diamond
0.0,3.0,3.0,0.0,6.0,6.0,843.8760479998564,5.0,0.0,part_2,go,500.0,600.0,1.0,,,,,,,,,cyan,I
0.0,6.0,2.0,1.0,5.0,5.0,796.6947109998728,5.0,0.0,part_2,go,500.0,600.0,1.0,,,,,,,,,orange,flipped triangle
0.0,2.0,2.0,0.0,5.0,5.0,879.6928579999985,5.0,0.0,part_2,go,500.0,600.0,1.0,,,,,,,,,blue,cross
0.0,7.0,3.0,1.0,6.0,0.0,0.0,5.0,0.0,part_2,stop,500.0,600.0,4.0,,,,,,,,,gray,square
0.0,6.0,2.0,1.0,5.0,5.0,659.0932730000532,5.0,0.0,part_2,stop,500.0,650.0,3.0,,,,,,,,,orange,flipped triangle
0.0,1.0,1.0,0.0,6.0,6.0,703.6786329999813,5.0,0.0,part_2,go,450.0,650.0,1.0,,,,,,,,,white,hexagon
0.0,2.0,2.0,0.0,6.0,6.0,694.6891580000738,5.0,0.0,part_2,go,450.0,650.0,1.0,,,,,,,,,blue,cross
0.0,2.0,2.0,0.0,5.0,5.0,871.8923080000422,5.0,0.0,part_2,go,450.0,650.0,1.0,,,,,,,,,blue,cross
0.0,2.0,2.0,0.0,5.0,5.0,927.7781969999525,5.0,0.0,part_2,go,450.0,650.0,1.0,,,,,,,,,blue,cross
0.0,8.0,4.0,1.0,5.0,5.0,955.7339829998456,5.0,0.0,part_2,go,450.0,650.0,1.0,,,,,,,,,magenta,circle
0.0,8.0,4.0,1.0,5.0,5.0,841.6640679997727,5.0,0.0,part_2,go,450.0,650.0,1.0,,,,,,,,,magenta,circle
0.0,6.0,2.0,1.0,5.0,0.0,0.0,6.0,0.0,part_2,stop,450.0,650.0,4.0,,,,,,,,,orange,flipped triangle
0.0,1.0,1.0,0.0,5.0,5.0,778.2723679997616,6.0,0.0,part_2,go,500.0,650.0,1.0,,,,,,,,,white,hexagon
0.0,6.0,2.0,1.0,6.0,6.0,620.6125450003128,6.0,0.0,part_2,stop,500.0,650.0,3.0,,,,,,,,,orange,flipped triangle
0.0,3.0,3.0,0.0,5.0,5.0,907.6107139999294,6.0,0.0,part_2,go,500.0,600.0,1.0,,,,,,,,,cyan,I
0.0,3.0,3.0,0.0,6.0,6.0,855.2689539997118,6.0,0.0,part_2,go,500.0,600.0,1.0,,,,,,,,,cyan,I
0.0,1.0,1.0,0.0,6.0,6.0,759.2912199997954,6.0,0.0,part_2,go,500.0,600.0,1.0,,,,,,,,,white,hexagon
0.0,7.0,3.0,1.0,6.0,6.0,750.6616689997827,6.0,0.0,part_2,stop,500.0,600.0,3.0,,,,,,,,,gray,square
0.0,6.0,2.0,1.0,5.0,0.0,0.0,6.0,0.0,part_2,stop,500.0,550.0,4.0,,,,,,,,,orange,flipped triangle
0.0,2.0,2.0,0.0,6.0,6.0,798.7398249997568,6.0,0.0,part_2,go,550.0,550.0,1.0,,,,,,,,,blue,cross
0.0,4.0,4.0,0.0,6.0,6.0,787.6678949996858,6.0,0.0,part_2,go,550.0,550.0,1.0,,,,,,,,,green,triangle
0.0,1.0,1.0,0.0,6.0,6.0,758.2847460002995,6.0,0.0,part_2,go,550.0,550.0,1.0,,,,,,,,,white,hexagon
0.0,7.0,3.0,1.0,6.0,6.0,777.7156199999808,6.0,0.0,part_2,stop,550.0,550.0,3.0,,,,,,,,,gray,square
0.0,3.0,3.0,0.0,6.0,6.0,656.8416859995523,6.0,0.0,part_2,go,550.0,500.0,1.0,,,,,,,,,cyan,I
0.0,3.0,3.0,0.0,6.0,6.0,683.1794179997814,6.0,0.0,part_2,go,550.0,500.0,1.0,,,,,,,,,cyan,I
0.0,8.0,4.0,1.0,5.0,5.0,733.9440240002659,6.0,0.0,part_2,stop,550.0,500.0,3.0,,,,,,,,,magenta,circle
0.0,2.0,2.0,0.0,6.0,6.0,711.9806249997964,6.0,0.0,part_2,go,500.0,500.0,1.0,,,,,,,,,blue,cross
0.0,5.0,1.0,1.0,6.0,0.0,0.0,6.0,0.0,part_2,stop,500.0,500.0,4.0,,,,,,,,,yellow,diamond
0.0,5.0,1.0,1.0,5.0,5.0,662.2652720002407,6.0,0.0,part_2,stop,500.0,550.0,3.0,,,,,,,,,yellow,diamond
0.0,5.0,1.0,1.0,5.0,5.0,739.4057530000282,6.0,0.0,part_2,go,450.0,550.0,1.0,,,,,,,,,yellow,diamond
0.0,4.0,4.0,0.0,5.0,5.0,844.0662289999636,6.0,0.0,part_2,go,450.0,550.0,1.0,,,,,,,,,green,triangle
0.0,4.0,4.0,0.0,5.0,5.0,722.3301079998237,6.0,0.0,part_2,go,450.0,550.0,1.0,,,,,,,,,green,triangle
0.0,7.0,3.0,1.0,6.0,6.0,757.8994959999363,6.0,0.0,part_2,stop,450.0,550.0,3.0,,,,,,,,,gray,square
0.0,8.0,4.0,1.0,6.0,0.0,0.0,6.0,0.0,part_2,stop,450.0,500.0,4.0,,,,,,,,,magenta,circle
0.0,3.0,3.0,0.0,6.0,6.0,975.4026559999148,6.0,0.0,part_2,go,450.0,550.0,1.0,,,,,,,,,cyan,I
0.0,4.0,4.0,0.0,5.0,5.0,731.5939059999437,6.0,0.0,part_2,go,450.0,550.0,1.0,,,,,,,,,green,triangle
0.0,2.0,2.0,0.0,6.0,6.0,693.7794930004202,6.0,0.0,part_2,go,450.0,550.0,1.0,,,,,,,,,blue,cross
0.0,5.0,1.0,1.0,6.0,6.0,684.1548029997284,6.0,0.0,part_2,stop,450.0,550.0,3.0,,,,,,,,,yellow,diamond
0.0,7.0,3.0,1.0,5.0,0.0,0.0,6.0,0.0,part_2,stop,450.0,500.0,4.0,,,,,,,,,gray,square
0.0,3.0,3.0,0.0,5.0,5.0,639.8768369999743,6.0,0.0,part_2,go,500.0,500.0,1.0,,,,,,,,,cyan,I
0.0,6.0,2.0,1.0,6.0,6.0,646.7579569998634,6.0,0.0,part_2,stop,500.0,500.0,3.0,,,,,,,,,orange,flipped triangle
0.0,3.0,3.0,0.0,6.0,6.0,751.3795209997625,6.0,0.0,part_2,go,500.0,450.0,1.0,,,,,,,,,cyan,I
0.0,4.0,4.0,0.0,5.0,5.0,751.6182730000764,6.0,0.0,part_2,go,500.0,450.0,1.0,,,,,,,,,green,triangle
0.0,5.0,1.0,1.0,5.0,5.0,554.8630299999786,6.0,0.0,part_2,stop,500.0,450.0,3.0,,,,,,,,,yellow,diamond
0.0,3.0,3.0,0.0,6.0,6.0,742.5563440001497,6.0,0.0,part_2,go,450.0,450.0,1.0,,,,,,,,,cyan,I
0.0,4.0,4.0,0.0,5.0,5.0,835.0565999999162,6.0,0.0,part_2,go,450.0,450.0,1.0,,,,,,,,,green,triangle
0.0,7.0,3.0,1.0,5.0,0.0,0.0,6.0,0.0,part_2,stop,450.0,450.0,4.0,,,,,,,,,gray,square
0.0,7.0,3.0,1.0,5.0,0.0,0.0,7.0,0.0,part_2,stop,500.0,450.0,4.0,,,,,,,,,gray,square
0.0,7.0,3.0,1.0,6.0,0.0,0.0,7.0,0.0,part_2,stop,550.0,450.0,4.0,,,,,,,,,gray,square
0.0,4.0,4.0,0.0,6.0,6.0,869.7244429999955,7.0,0.0,part_2,go,550.0,500.0,1.0,,,,,,,,,green,triangle
0.0,8.0,4.0,1.0,6.0,0.0,0.0,7.0,0.0,part_2,stop,550.0,500.0,4.0,,,,,,,,,magenta,circle
0.0,7.0,3.0,1.0,6.0,6.0,917.6163019997148,7.0,0.0,part_2,go,550.0,550.0,1.0,,,,,,,,,gray,square
0.0,4.0,4.0,0.0,5.0,5.0,793.8454350000939,7.0,0.0,part_2,go,550.0,550.0,1.0,,,,,,,,,green,triangle
0.0,3.0,3.0,0.0,6.0,6.0,888.5803620000843,7.0,0.0,part_2,go,550.0,550.0,1.0,,,,,,,,,cyan,I
0.0,5.0,1.0,1.0,6.0,6.0,876.785474999906,7.0,0.0,part_2,stop,550.0,550.0,3.0,,,,,,,,,yellow,diamond
0.0,6.0,2.0,1.0,5.0,0.0,0.0,7.0,0.0,part_2,stop,550.0,500.0,4.0,,,,,,,,,orange,flipped triangle
0.0,5.0,1.0,1.0,5.0,0.0,0.0,7.0,0.0,part_2,stop,600.0,500.0,4.0,,,,,,,,,yellow,diamond
0.0,4.0,4.0,0.0,6.0,6.0,955.4335900002116,7.0,0.0,part_2,go,650.0,500.0,1.0,,,,,,,,,green,triangle
0.0,8.0,4.0,1.0,6.0,0.0,0.0,7.0,0.0,part_2,stop,650.0,500.0,4.0,,,,,,,,,magenta,circle
0.0,8.0,4.0,1.0,5.0,5.0,914.3285959999048,7.0,0.0,part_2,stop,650.0,550.0,3.0,,,,,,,,,magenta,circle
0.0,5.0,1.0,1.0,5.0,0.0,0.0,7.0,0.0,part_2,stop,600.0,550.0,4.0,,,,,,,,,yellow,diamond
0.0,1.0,1.0,0.0,6.0,6.0,966.113311999834,7.0,0.0,part_2,go,650.0,550.0,1.0,,,,,,,,,white,hexagon
0.0,7.0,3.0,1.0,6.0,0.0,0.0,7.0,0.0,part_2,stop,650.0,550.0,4.0,,,,,,,,,gray,square
0.0,7.0,3.0,1.0,6.0,6.0,813.8978749998387,7.0,0.0,part_2,stop,650.0,600.0,3.0,,,,,,,,,gray,square
0.0,1.0,1.0,0.0,6.0,6.0,852.5083979998271,7.0,0.0,part_2,go,650.0,550.0,1.0,,,,,,,,,white,hexagon
0.0,1.0,1.0,0.0,6.0,6.0,826.2684350002019,7.0,0.0,part_2,go,650.0,550.0,1.0,,,,,,,,,white,hexagon
0.0,5.0,1.0,1.0,6.0,0.0,0.0,7.0,0.0,part_2,stop,650.0,550.0,4.0,,,,,,,,,yellow,diamond
0.0,1.0,1.0,0.0,5.0,5.0,646.3365119998343,7.0,0.0,part_2,go,650.0,600.0,1.0,,,,,,,,,white,hexagon
0.0,7.0,3.0,1.0,5.0,5.0,954.7068399997444,7.0,0.0,part_2,stop,650.0,600.0,3.0,,,,,,,,,gray,square
0.0,5.0,1.0,1.0,6.0,0.0,0.0,7.0,0.0,part_2,stop,600.0,600.0,4.0,,,,,,,,,yellow,diamond
0.0,4.0,4.0,0.0,5.0,5.0,881.1873560002823,7.0,0.0,part_2,go,600.0,650.0,1.0,,,,,,,,,green,triangle
0.0,8.0,4.0,1.0,6.0,6.0,1113.539327000126,7.0,0.0,part_2,go,600.0,650.0,1.0,,,,,,,,,magenta,circle
0.0,6.0,2.0,1.0,6.0,6.0,870.8870589998696,7.0,0.0,part_2,go,600.0,650.0,1.0,,,,,,,,,orange,flipped triangle
0.0,3.0,3.0,0.0,6.0,6.0,1049.838622000152,7.0,0.0,part_2,go,600.0,650.0,1.0,,,,,,,,,cyan,I
0.0,5.0,1.0,1.0,6.0,6.0,806.913085999895,7.0,0.0,part_2,stop,600.0,650.0,3.0,,,,,,,,,yellow,diamond
0.0,3.0,3.0,0.0,6.0,6.0,777.5953999998819,7.0,0.0,part_2,go,600.0,600.0,1.0,,,,,,,,,cyan,I
0.0,2.0,2.0,0.0,6.0,6.0,805.2649440001005,7.0,0.0,part_2,go,600.0,600.0,1.0,,,,,,,,,blue,cross
0.0,3.0,3.0,0.0,5.0,5.0,910.287272000005,7.0,0.0,part_2,go,600.0,600.0,1.0,,,,,,,,,cyan,I
0.0,2.0,2.0,0.0,5.0,5.0,668.9517459999479,7.0,0.0,part_2,go,600.0,600.0,1.0,,,,,,,,,blue,cross
0.0,1.0,1.0,0.0,5.0,5.0,694.36200500013,7.0,0.0,part_2,go,600.0,600.0,1.0,,,,,,,,,white,hexagon
0.0,2.0,2.0,0.0,5.0,5.0,674.1169789997912,7.0,0.0,part_2,go,600.0,600.0,1.0,,,,,,,,,blue,cross
0.0,5.0,1.0,1.0,6.0,6.0,786.4203389999602,7.0,0.0,part_2,go,600.0,600.0,1.0,,,,,,,,,yellow,diamond
0.0,7.0,3.0,1.0,5.0,5.0,656.696163000106,7.0,0.0,part_2,go,600.0,600.0,1.0,,,,,,,,,gray,square
0.0,8.0,4.0,1.0,5.0,0.0,0.0,8.0,0.0,part_2,stop,600.0,600.0,4.0,,,,,,,,,magenta,circle
0.0,5.0,1.0,1.0,5.0,0.0,0.0,8.0,0.0,part_2,stop,650.0,600.0,4.0,,,,,,,,,yellow,diamond
0.0,7.0,3.0,1.0,6.0,0.0,0.0,8.0,0.0,part_2,stop,700.0,600.0,4.0,,,,,,,,,gray,square
0.0,1.0,1.0,0.0,6.0,6.0,1066.5485320000698,8.0,0.0,part_2,go,700.0,650.0,1.0,,,,,,,,,white,hexagon
0.0,6.0,2.0,1.0,5.0,5.0,871.1607489999551,8.0,0.0,part_2,go,700.0,650.0,1.0,,,,,,,,,orange,flipped triangle
0.0,7.0,3.0,1.0,5.0,5.0,767.2728429997733,8.0,0.0,part_2,go,700.0,650.0,1.0,,,,,,,,,gray,square
0.0,6.0,2.0,1.0,5.0,5.0,823.797506000119,8.0,0.0,part_2,stop,700.0,650.0,3.0,,,,,,,,,orange,flipped triangle
0.0,8.0,4.0,1.0,6.0,6.0,804.9306399998386,8.0,0.0,part_2,go,650.0,650.0,1.0,,,,,,,,,magenta,circle
0.0,2.0,2.0,0.0,5.0,5.0,758.5747739999533,8.0,0.0,part_2,go,650.0,650.0,1.0,,,,,,,,,blue,cross
0.0,6.0,2.0,1.0,6.0,6.0,836.7427820003286,8.0,0.0,part_2,stop,650.0,650.0,3.0,,,,,,,,,orange,flipped triangle
0.0,7.0,3.0,1.0,6.0,6.0,890.4402539997136,8.0,0.0,part_2,stop,650.0,600.0,3.0,,,,,,,,,gray,square
0.0,3.0,3.0,0.0,6.0,6.0,749.5494690001578,8.0,0.0,part_2,go,650.0,550.0,1.0,,,,,,,,,cyan,I
0.0,1.0,1.0,0.0,5.0,5.0,805.968010000015,8.0,0.0,part_2,go,650.0,550.0,1.0,,,,,,,,,white,hexagon
0.0,1.0,1.0,0.0,5.0,5.0,720.5321740002546,8.0,0.0,part_2,go,650.0,550.0,1.0,,,,,,,,,white,hexagon
0.0,7.0,3.0,1.0,5.0,5.0,947.826511999665,8.0,0.0,part_2,stop,650.0,550.0,3.0,,,,,,,,,gray,square
0.0,1.0,1.0,0.0,6.0,6.0,901.5976050000064,8.0,0.0,part_2,go,600.0,550.0,1.0,,,,,,,,,white,hexagon
0.0,4.0,4.0,0.0,5.0,5.0,841.3795159999609,8.0,0.0,part_2,go,600.0,550.0,1.0,,,,,,,,,green,triangle
0.0,5.0,1.0,1.0,6.0,6.0,733.0296459999772,8.0,0.0,part_2,stop,600.0,550.0,3.0,,,,,,,,,yellow,diamond
0.0,6.0,2.0,1.0,5.0,5.0,704.7447209997699,8.0,0.0,part_2,stop,600.0,500.0,3.0,,,,,,,,,orange,flipped triangle
0.0,2.0,2.0,0.0,6.0,6.0,788.1200060000992,8.0,0.0,part_2,go,550.0,500.0,1.0,,,,,,,,,blue,cross
0.0,8.0,4.0,1.0,5.0,5.0,937.4727350000284,8.0,0.0,part_2,go,550.0,500.0,1.0,,,,,,,,,magenta,circle
0.0,7.0,3.0,1.0,5.0,0.0,0.0,8.0,0.0,part_2,stop,550.0,500.0,4.0,,,,,,,,,gray,square
0.0,8.0,4.0,1.0,5.0,0.0,0.0,8.0,0.0,part_2,stop,600.0,500.0,4.0,,,,,,,,,magenta,circle
0.0,1.0,1.0,0.0,5.0,5.0,1196.6526720002548,8.0,0.0,part_2,go,650.0,500.0,1.0,,,,,,,,,white,hexagon
0.0,2.0,2.0,0.0,6.0,6.0,1144.1199079999933,8.0,0.0,part_2,go,650.0,500.0,1.0,,,,,,,,,blue,cross
0.0,4.0,4.0,0.0,6.0,6.0,1182.8031599998212,8.0,0.0,part_2,go,650.0,500.0,1.0,,,,,,,,,green,triangle
0.0,5.0,1.0,1.0,6.0,0.0,0.0,8.0,0.0,part_2,stop,650.0,500.0,4.0,,,,,,,,,yellow,diamond
0.0,3.0,3.0,0.0,6.0,6.0,917.9638890000206,8.0,0.0,part_2,go,650.0,550.0,1.0,,,,,,,,,cyan,I
0.0,2.0,2.0,0.0,6.0,6.0,890.8103969997683,8.0,0.0,part_2,go,650.0,550.0,1.0,,,,,,,,,blue,cross
0.0,6.0,2.0,1.0,6.0,6.0,1041.2549809998382,8.0,0.0,part_2,go,650.0,550.0,1.0,,,,,,,,,orange,flipped triangle
0.0,1.0,1.0,0.0,6.0,6.0,897.5144229998477,8.0,0.0,part_2,go,650.0,550.0,1.0,,,,,,,,,white,hexagon
0.0,4.0,4.0,0.0,6.0,6.0,1110.0288520001411,8.0,0.0,part_2,go,650.0,550.0,1.0,,,,,,,,,green,triangle
0.0,8.0,4.0,1.0,5.0,0.0,0.0,8.0,0.0,part_2,stop,650.0,550.0,4.0,,,,,,,,,magenta,circle
0.0,2.0,2.0,0.0,6.0,6.0,939.6401519998108,8.0,0.0,part_2,go,700.0,550.0,1.0,,,,,,,,,blue,cross
0.0,7.0,3.0,1.0,5.0,0.0,0.0,8.0,0.0,part_2,stop,700.0,550.0,4.0,,,,,,,,,gray,square
0.0,7.0,3.0,1.0,6.0,6.0,864.5979430002626,8.0,0.0,part_2,go,750.0,550.0,1.0,,,,,,,,,gray,square
0.0,6.0,2.0,1.0,7.0,3.0,1353.6042360001377,1.0,2.0,part_3,go,0.0,0.0,0.0,405.0,3.0,810.0,135.0,405.0,540.0,270.0,675.0,orange,flipped triangle
0.0,6.0,2.0,1.0,7.0,3.0,3794.0361920000214,1.0,1.0,part_3,go,0.0,0.0,0.0,348.0,3.0,696.0,580.0,348.0,116.0,232.0,464.0,orange,flipped triangle
0.0,4.0,4.0,0.0,7.0,5.0,1728.890013999262,1.0,1.0,part_3,go,0.0,0.0,0.0,464.0,4.0,348.0,580.0,696.0,232.0,464.0,116.0,green,triangle
0.0,3.0,3.0,0.0,7.0,1.0,1259.059089999937,1.0,1.0,part_3,go,0.0,0.0,0.0,540.0,4.0,540.0,675.0,270.0,405.0,810.0,135.0,cyan,I
0.0,5.0,1.0,1.0,7.0,6.0,1683.9565479995144,1.0,1.0,part_3,go,0.0,0.0,0.0,1152.0,6.0,576.0,960.0,768.0,192.0,384.0,1152.0,yellow,diamond
0.0,7.0,3.0,1.0,7.0,1.0,1478.635103999295,1.0,1.0,part_3,go,0.0,0.0,0.0,135.0,1.0,135.0,810.0,540.0,675.0,405.0,270.0,gray,square
0.0,1.0,1.0,0.0,7.0,3.0,1115.2073630000814,1.0,1.0,part_3,go,0.0,0.0,0.0,270.0,2.0,675.0,810.0,270.0,405.0,135.0,540.0,white,hexagon
0.0,4.0,4.0,0.0,7.0,6.0,2618.802371000129,1.0,1.0,part_3,go,0.0,0.0,0.0,692.0,4.0,1038.0,519.0,865.0,173.0,346.0,692.0,green,triangle
0.0,8.0,4.0,1.0,7.0,2.0,1244.5979430003715,1.0,1.0,part_3,go,0.0,0.0,0.0,540.0,4.0,270.0,540.0,135.0,405.0,810.0,675.0,magenta,circle
0.0,5.0,1.0,1.0,7.0,4.0,1597.9792009993616,1.0,1.0,part_3,go,0.0,0.0,0.0,696.0,6.0,116.0,232.0,348.0,696.0,580.0,464.0,yellow,diamond
0.0,4.0,4.0,0.0,7.0,2.0,2005.9368379997977,1.0,1.0,part_3,go,0.0,0.0,0.0,810.0,6.0,540.0,810.0,675.0,135.0,405.0,270.0,green,triangle
0.0,3.0,3.0,0.0,7.0,3.0,1949.7710499999812,1.0,1.0,part_3,go,0.0,0.0,0.0,116.0,1.0,464.0,580.0,116.0,348.0,232.0,696.0,cyan,I
0.0,6.0,2.0,1.0,7.0,1.0,2052.7278289991955,1.0,1.0,part_3,go,0.0,0.0,0.0,770.0,5.0,770.0,462.0,616.0,924.0,154.0,308.0,orange,flipped triangle
0.0,1.0,1.0,0.0,7.0,5.0,1302.5465110004006,1.0,1.0,part_3,go,0.0,0.0,0.0,308.0,2.0,924.0,770.0,154.0,616.0,308.0,462.0,white,hexagon
0.0,1.0,1.0,0.0,7.0,1.0,2073.614124999949,1.0,1.0,part_3,go,0.0,0.0,0.0,1038.0,6.0,1038.0,692.0,865.0,173.0,519.0,346.0,white,hexagon
0.0,4.0,4.0,0.0,7.0,4.0,2092.742196000472,1.0,1.0,part_3,go,0.0,0.0,0.0,865.0,5.0,519.0,173.0,1038.0,865.0,692.0,346.0,green,triangle
0.0,1.0,1.0,0.0,7.0,4.0,1321.8613250001,1.0,1.0,part_3,go,0.0,0.0,0.0,1152.0,6.0,384.0,192.0,576.0,1152.0,960.0,768.0,white,hexagon
0.0,7.0,3.0,1.0,7.0,6.0,1150.6059040002583,1.0,1.0,part_3,go,0.0,0.0,0.0,580.0,5.0,232.0,116.0,348.0,696.0,464.0,580.0,gray,square
0.0,2.0,2.0,0.0,7.0,2.0,1384.49957299963,1.0,1.0,part_3,go,0.0,0.0,0.0,405.0,3.0,810.0,405.0,135.0,540.0,270.0,675.0,blue,cross
0.0,7.0,3.0,1.0,7.0,2.0,1645.6897210000534,1.0,1.0,part_3,go,0.0,0.0,0.0,810.0,6.0,540.0,810.0,135.0,675.0,405.0,270.0,gray,square
0.0,6.0,2.0,1.0,7.0,2.0,1505.2356109999891,2.0,1.0,part_3,go,0.0,0.0,0.0,462.0,3.0,616.0,462.0,154.0,770.0,924.0,308.0,orange,flipped triangle
0.0,5.0,1.0,1.0,7.0,5.0,2285.975102000521,2.0,1.0,part_3,go,0.0,0.0,0.0,348.0,3.0,116.0,696.0,464.0,232.0,348.0,580.0,yellow,diamond
0.0,6.0,2.0,1.0,7.0,6.0,2505.9043889996246,2.0,1.0,part_3,go,0.0,0.0,0.0,346.0,2.0,692.0,173.0,865.0,1038.0,519.0,346.0,orange,flipped triangle
0.0,6.0,2.0,1.0,7.0,3.0,1756.2060929994914,2.0,1.0,part_3,go,0.0,0.0,0.0,405.0,3.0,270.0,675.0,405.0,540.0,810.0,135.0,orange,flipped triangle
0.0,2.0,2.0,0.0,7.0,1.0,3525.143706000563,2.0,1.0,part_3,go,0.0,0.0,0.0,960.0,5.0,960.0,768.0,1152.0,384.0,192.0,576.0,blue,cross
0.0,3.0,3.0,0.0,7.0,2.0,1439.4726609998545,2.0,1.0,part_3,go,0.0,0.0,0.0,519.0,3.0,346.0,519.0,865.0,173.0,692.0,1038.0,cyan,I
0.0,3.0,3.0,0.0,7.0,1.0,1039.9739579997913,2.0,1.0,part_3,go,0.0,0.0,0.0,1038.0,6.0,1038.0,173.0,519.0,865.0,692.0,346.0,cyan,I
0.0,8.0,4.0,1.0,7.0,3.0,1600.0744900002246,2.0,1.0,part_3,go,0.0,0.0,0.0,116.0,1.0,464.0,232.0,116.0,348.0,696.0,580.0,magenta,circle
0.0,4.0,4.0,0.0,7.0,2.0,1206.2448220003716,2.0,1.0,part_3,go,0.0,0.0,0.0,770.0,5.0,924.0,770.0,154.0,308.0,616.0,462.0,green,triangle
0.0,8.0,4.0,1.0,7.0,3.0,1425.6171159995574,2.0,1.0,part_3,go,0.0,0.0,0.0,135.0,1.0,540.0,405.0,135.0,270.0,675.0,810.0,magenta,circle
0.0,1.0,1.0,0.0,7.0,1.0,1424.4142350007678,2.0,1.0,part_3,go,0.0,0.0,0.0,232.0,2.0,232.0,116.0,696.0,580.0,348.0,464.0,white,hexagon
0.0,6.0,2.0,1.0,7.0,3.0,2623.292123000283,2.0,1.0,part_3,go,0.0,0.0,0.0,384.0,2.0,768.0,192.0,384.0,960.0,1152.0,576.0,orange,flipped triangle
0.0,3.0,3.0,0.0,7.0,6.0,3798.100193999744,2.0,1.0,part_3,go,0.0,0.0,0.0,768.0,4.0,960.0,192.0,384.0,1152.0,576.0,768.0,cyan,I
0.0,2.0,2.0,0.0,7.0,1.0,855.8261609996407,2.0,1.0,part_3,go,0.0,0.0,0.0,519.0,3.0,519.0,346.0,692.0,173.0,865.0,1038.0,blue,cross
0.0,7.0,3.0,1.0,7.0,4.0,3017.0453410000846,2.0,1.0,part_3,go,0.0,0.0,0.0,696.0,6.0,580.0,464.0,232.0,696.0,348.0,116.0,gray,square
0.0,3.0,3.0,0.0,7.0,4.0,3029.419336000501,2.0,1.0,part_3,go,0.0,0.0,0.0,770.0,5.0,308.0,616.0,462.0,770.0,924.0,154.0,cyan,I
0.0,2.0,2.0,0.0,7.0,3.0,1589.666507000402,2.0,1.0,part_3,go,0.0,0.0,0.0,924.0,6.0,154.0,308.0,924.0,462.0,770.0,616.0,blue,cross
0.0,1.0,1.0,0.0,7.0,3.0,1831.5333669997929,2.0,1.0,part_3,go,0.0,0.0,0.0,810.0,6.0,135.0,405.0,810.0,540.0,270.0,675.0,white,hexagon
0.0,8.0,4.0,1.0,7.0,2.0,1821.7085810001663,2.0,1.0,part_3,go,0.0,0.0,0.0,154.0,1.0,308.0,154.0,770.0,616.0,462.0,924.0,magenta,circle
0.0,3.0,3.0,0.0,7.0,4.0,2683.8027719995807,2.0,1.0,part_3,go,0.0,0.0,0.0,960.0,5.0,768.0,1152.0,576.0,960.0,192.0,384.0,cyan,I
0.0,5.0,1.0,1.0,7.0,3.0,1442.5554069994178,3.0,1.0,part_3,go,0.0,0.0,0.0,405.0,3.0,810.0,675.0,405.0,135.0,270.0,540.0,yellow,diamond
0.0,5.0,1.0,1.0,7.0,1.0,1311.6840270004104,3.0,1.0,part_3,go,0.0,0.0,0.0,462.0,3.0,462.0,616.0,924.0,770.0,154.0,308.0,yellow,diamond
0.0,1.0,1.0,0.0,7.0,4.0,1914.3048489995635,3.0,1.0,part_3,go,0.0,0.0,0.0,462.0,3.0,308.0,770.0,616.0,462.0,924.0,154.0,white,hexagon
0.0,7.0,3.0,1.0,7.0,4.0,1688.5978190002788,3.0,1.0,part_3,go,0.0,0.0,0.0,924.0,6.0,308.0,462.0,770.0,924.0,616.0,154.0,gray,square
0.0,4.0,4.0,0.0,7.0,6.0,1920.197511999504,3.0,1.0,part_3,go,0.0,0.0,0.0,384.0,2.0,960.0,576.0,1152.0,192.0,768.0,384.0,green,triangle
0.0,4.0,4.0,0.0,7.0,2.0,1300.5402750004578,3.0,1.0,part_3,go,0.0,0.0,0.0,384.0,2.0,768.0,384.0,576.0,1152.0,960.0,192.0,green,triangle
0.0,8.0,4.0,1.0,7.0,1.0,1092.385042000387,3.0,1.0,part_3,go,0.0,0.0,0.0,116.0,1.0,116.0,232.0,696.0,580.0,348.0,464.0,magenta,circle
0.0,6.0,2.0,1.0,7.0,5.0,3103.4046780005156,3.0,1.0,part_3,go,0.0,0.0,0.0,384.0,2.0,960.0,768.0,1152.0,192.0,384.0,576.0,orange,flipped triangle
0.0,5.0,1.0,1.0,7.0,6.0,1556.4658310004231,3.0,1.0,part_3,go,0.0,0.0,0.0,346.0,2.0,692.0,173.0,1038.0,865.0,519.0,346.0,yellow,diamond
0.0,4.0,4.0,0.0,7.0,2.0,1469.5896419998462,3.0,1.0,part_3,go,0.0,0.0,0.0,232.0,2.0,464.0,232.0,696.0,116.0,580.0,348.0,green,triangle
0.0,4.0,4.0,0.0,7.0,3.0,2024.6317760002057,3.0,1.0,part_3,go,0.0,0.0,0.0,154.0,1.0,462.0,924.0,154.0,308.0,616.0,770.0,green,triangle
0.0,3.0,3.0,0.0,7.0,5.0,1998.5749759998723,3.0,1.0,part_3,go,0.0,0.0,0.0,770.0,5.0,154.0,462.0,308.0,616.0,770.0,924.0,cyan,I
0.0,5.0,1.0,1.0,7.0,4.0,1638.39500100039,3.0,1.0,part_3,go,0.0,0.0,0.0,462.0,3.0,154.0,924.0,308.0,462.0,770.0,616.0,yellow,diamond
0.0,8.0,4.0,1.0,7.0,3.0,1472.3890160003066,3.0,1.0,part_3,go,0.0,0.0,0.0,173.0,1.0,865.0,346.0,173.0,1038.0,519.0,692.0,magenta,circle
0.0,8.0,4.0,1.0,7.0,4.0,1073.0105660004483,3.0,1.0,part_3,go,0.0,0.0,0.0,346.0,2.0,1038.0,865.0,692.0,346.0,173.0,519.0,magenta,circle
0.0,7.0,3.0,1.0,7.0,5.0,1453.1950520004102,3.0,1.0,part_3,go,0.0,0.0,0.0,924.0,6.0,770.0,154.0,462.0,616.0,924.0,308.0,gray,square
0.0,2.0,2.0,0.0,7.0,4.0,3997.1767300003194,3.0,1.0,part_3,go,0.0,0.0,0.0,696.0,6.0,580.0,464.0,348.0,696.0,116.0,232.0,blue,cross
0.0,6.0,2.0,1.0,7.0,5.0,2348.315642999296,3.0,1.0,part_3,go,0.0,0.0,0.0,346.0,2.0,1038.0,865.0,173.0,519.0,346.0,692.0,orange,flipped triangle
0.0,1.0,1.0,0.0,7.0,4.0,2355.5070680004064,3.0,1.0,part_3,go,0.0,0.0,0.0,696.0,6.0,348.0,464.0,232.0,696.0,116.0,580.0,white,hexagon
0.0,6.0,2.0,1.0,7.0,6.0,1282.3940250000303,3.0,1.0,part_3,go,0.0,0.0,0.0,464.0,4.0,580.0,116.0,348.0,232.0,696.0,464.0,orange,flipped triangle
0.0,4.0,4.0,0.0,7.0,3.0,2215.709009999955,4.0,1.0,part_3,go,0.0,0.0,0.0,405.0,3.0,270.0,540.0,405.0,810.0,675.0,135.0,green,triangle
0.0,7.0,3.0,1.0,7.0,4.0,1179.3148960005055,4.0,1.0,part_3,go,0.0,0.0,0.0,1152.0,6.0,768.0,384.0,576.0,1152.0,960.0,192.0,gray,square
0.0,5.0,1.0,1.0,7.0,3.0,1198.4421890001613,4.0,1.0,part_3,go,0.0,0.0,0.0,405.0,3.0,270.0,540.0,405.0,675.0,135.0,810.0,yellow,diamond
0.0,7.0,3.0,1.0,7.0,1.0,884.0005149995704,4.0,1.0,part_3,go,0.0,0.0,0.0,1152.0,6.0,1152.0,960.0,576.0,768.0,384.0,192.0,gray,square
0.0,2.0,2.0,0.0,7.0,1.0,3091.339832999438,4.0,1.0,part_3,go,0.0,0.0,0.0,770.0,5.0,770.0,154.0,462.0,924.0,616.0,308.0,blue,cross
0.0,2.0,2.0,0.0,7.0,6.0,3026.9350090002263,4.0,1.0,part_3,go,0.0,0.0,0.0,675.0,5.0,540.0,405.0,270.0,810.0,135.0,675.0,blue,cross
0.0,1.0,1.0,0.0,7.0,4.0,1221.2816139999632,4.0,1.0,part_3,go,0.0,0.0,0.0,865.0,5.0,519.0,173.0,692.0,865.0,346.0,1038.0,white,hexagon
0.0,8.0,4.0,1.0,7.0,6.0,1135.3893360001166,4.0,1.0,part_3,go,0.0,0.0,0.0,154.0,1.0,308.0,770.0,462.0,616.0,924.0,154.0,magenta,circle
0.0,8.0,4.0,1.0,7.0,3.0,1311.4071609998064,4.0,1.0,part_3,go,0.0,0.0,0.0,192.0,1.0,576.0,384.0,192.0,768.0,960.0,1152.0,magenta,circle
0.0,2.0,2.0,0.0,7.0,6.0,1479.9318960003802,4.0,1.0,part_3,go,0.0,0.0,0.0,865.0,5.0,173.0,346.0,1038.0,519.0,692.0,865.0,blue,cross
0.0,7.0,3.0,1.0,7.0,6.0,867.9643129999022,4.0,1.0,part_3,go,0.0,0.0,0.0,1038.0,6.0,173.0,519.0,865.0,346.0,692.0,1038.0,gray,square
0.0,8.0,4.0,1.0,7.0,1.0,2429.735011000048,4.0,1.0,part_3,go,0.0,0.0,0.0,192.0,1.0,192.0,384.0,576.0,1152.0,768.0,960.0,magenta,circle
0.0,5.0,1.0,1.0,7.0,6.0,3270.0772719999804,4.0,1.0,part_3,go,0.0,0.0,0.0,384.0,2.0,960.0,768.0,192.0,576.0,1152.0,384.0,yellow,diamond
0.0,2.0,2.0,0.0,7.0,1.0,2670.186866000222,4.0,1.0,part_3,go,0.0,0.0,0.0,960.0,5.0,960.0,192.0,768.0,576.0,1152.0,384.0,blue,cross
0.0,2.0,2.0,0.0,7.0,1.0,1656.1404570002196,4.0,1.0,part_3,go,0.0,0.0,0.0,696.0,6.0,696.0,580.0,232.0,116.0,464.0,348.0,blue,cross
0.0,1.0,1.0,0.0,7.0,3.0,2484.445799999776,4.0,1.0,part_3,go,0.0,0.0,0.0,768.0,4.0,384.0,960.0,768.0,576.0,1152.0,192.0,white,hexagon
0.0,3.0,3.0,0.0,7.0,6.0,1461.4488019997225,4.0,1.0,part_3,go,0.0,0.0,0.0,580.0,5.0,348.0,232.0,696.0,464.0,116.0,580.0,cyan,I
0.0,5.0,1.0,1.0,7.0,3.0,2066.798001999814,4.0,1.0,part_3,go,0.0,0.0,0.0,346.0,2.0,865.0,173.0,346.0,692.0,519.0,1038.0,yellow,diamond
0.0,3.0,3.0,0.0,7.0,6.0,941.16152999959,4.0,1.0,part_3,go,0.0,0.0,0.0,270.0,2.0,135.0,675.0,405.0,540.0,810.0,270.0,cyan,I
0.0,7.0,3.0,1.0,7.0,4.0,1638.8410030003795,4.0,1.0,part_3,go,0.0,0.0,0.0,519.0,3.0,865.0,692.0,173.0,519.0,346.0,1038.0,gray,square
