raw_reward_magnitude,stim_reward,stepwise_reward_magnitude,paired_with_stopping,quadrant,response,reaction_time,block,num_trial_presentations,which_part,stop_signal_trial_type,left_SSD,right_SSD,accuracy,chosen_bidding_amount,chosen_bidding_level,possible_bid_1,possible_bid_2,possible_bid_3,possible_bid_4,possible_bid_5,possible_bid_6,color_text,shape_text
165.0,5.0,1.0,1.0,2.0,2.0,400.7557359873317,1.0,1.0,part_1,,,,,,,,,,,,,cyan,flipped triangle
186.0,1.0,1.0,0.0,4.0,4.0,324.9650680081686,1.0,1.0,part_1,,,,,,,,,,,,,magenta,circle
176.0,1.0,1.0,0.0,1.0,1.0,280.2352180005982,1.0,1.0,part_1,,,,,,,,,,,,,magenta,circle
174.0,5.0,1.0,1.0,1.0,1.0,390.8841360098449,1.0,1.0,part_1,,,,,,,,,,,,,cyan,flipped triangle
317.0,2.0,2.0,0.0,3.0,3.0,335.2930609980831,1.0,1.0,part_1,,,,,,,,,,,,,blue,diamond
1298.0,8.0,4.0,1.0,4.0,4.0,308.3057850017212,1.0,1.0,part_1,,,,,,,,,,,,,green,hexagon
154.0,1.0,1.0,0.0,4.0,4.0,363.3134539995808,1.0,1.0,part_1,,,,,,,,,,,,,magenta,circle
318.0,2.0,2.0,0.0,3.0,3.0,299.5517609961098,1.0,1.0,part_1,,,,,,,,,,,,,blue,diamond
631.0,3.0,3.0,0.0,3.0,3.0,325.9131679951679,1.0,1.0,part_1,,,,,,,,,,,,,yellow,cross
647.0,3.0,3.0,0.0,2.0,2.0,310.7297200040193,1.0,1.0,part_1,,,,,,,,,,,,,yellow,cross
1319.0,4.0,4.0,0.0,1.0,1.0,335.1121049927315,1.0,1.0,part_1,,,,,,,,,,,,,white,square
666.0,3.0,3.0,0.0,4.0,4.0,260.3816170012578,1.0,1.0,part_1,,,,,,,,,,,,,yellow,cross
144.0,5.0,1.0,1.0,2.0,2.0,328.3192109956871,1.0,1.0,part_1,,,,,,,,,,,,,cyan,flipped triangle
329.0,6.0,2.0,1.0,3.0,3.0,331.1636870057555,1.0,1.0,part_1,,,,,,,,,,,,,gray,I
0.0,1.0,0.0,0.0,3.0,3.0,309.4018819974735,1.0,1.0,part_1,,,,,,,,,,,,,magenta,circle
639.0,3.0,3.0,0.0,1.0,1.0,289.0158549998887,1.0,1.0,part_1,,,,,,,,,,,,,yellow,cross
1316.0,4.0,4.0,0.0,2.0,2.0,367.9922610026551,1.0,1.0,part_1,,,,,,,,,,,,,white,square
173.0,1.0,1.0,0.0,4.0,4.0,299.1267019970109,1.0,1.0,part_1,,,,,,,,,,,,,magenta,circle
640.0,3.0,3.0,0.0,1.0,1.0,373.1226800009608,1.0,1.0,part_1,,,,,,,,,,,,,yellow,cross
0.0,1.0,0.0,0.0,2.0,2.0,315.5048240005271,1.0,1.0,part_1,,,,,,,,,,,,,magenta,circle
163.0,5.0,1.0,1.0,2.0,2.0,557.4615789955715,1.0,1.0,part_1,,,,,,,,,,,,,cyan,flipped triangle
0.0,3.0,0.0,0.0,4.0,4.0,384.4567490014015,1.0,1.0,part_1,,,,,,,,,,,,,yellow,cross
327.0,2.0,2.0,0.0,2.0,2.0,399.072886997601,1.0,1.0,part_1,,,,,,,,,,,,,blue,diamond
301.0,6.0,2.0,1.0,1.0,1.0,345.6811669893795,1.0,1.0,part_1,,,,,,,,,,,,,gray,I
1297.0,4.0,4.0,0.0,2.0,2.0,334.1343229985796,1.0,1.0,part_1,,,,,,,,,,,,,white,square
180.0,1.0,1.0,0.0,4.0,4.0,325.1848460058681,1.0,1.0,part_1,,,,,,,,,,,,,magenta,circle
150.0,5.0,1.0,1.0,4.0,4.0,408.2398720056517,1.0,1.0,part_1,,,,,,,,,,,,,cyan,flipped triangle
651.0,7.0,3.0,1.0,1.0,1.0,297.3724920011591,1.0,1.0,part_1,,,,,,,,,,,,,orange,triangle
332.0,6.0,2.0,1.0,1.0,1.0,352.270485003828,1.0,1.0,part_1,,,,,,,,,,,,,gray,I
0.0,5.0,0.0,1.0,3.0,3.0,306.5406399982748,1.0,1.0,part_1,,,,,,,,,,,,,cyan,flipped triangle
1291.0,4.0,4.0,0.0,1.0,1.0,426.7015700024785,1.0,1.0,part_1,,,,,,,,,,,,,white,square
173.0,5.0,1.0,1.0,2.0,2.0,380.5870990036055,1.0,1.0,part_1,,,,,,,,,,,,,cyan,flipped triangle
653.0,3.0,3.0,0.0,2.0,2.0,389.8302899906412,1.0,1.0,part_1,,,,,,,,,,,,,yellow,cross
1295.0,8.0,4.0,1.0,3.0,3.0,298.1306059955386,1.0,1.0,part_1,,,,,,,,,,,,,green,hexagon
0.0,3.0,0.0,0.0,3.0,3.0,324.0313510032138,1.0,1.0,part_1,,,,,,,,,,,,,yellow,cross
142.0,5.0,1.0,1.0,2.0,2.0,362.0628359931288,1.0,1.0,part_1,,,,,,,,,,,,,cyan,flipped triangle
0.0,8.0,0.0,1.0,4.0,4.0,334.818155009998,1.0,1.0,part_1,,,,,,,,,,,,,green,hexagon
153.0,5.0,1.0,1.0,3.0,3.0,306.5665890026139,1.0,1.0,part_1,,,,,,,,,,,,,cyan,flipped triangle
1301.0,4.0,4.0,0.0,4.0,4.0,306.7385969916358,1.0,1.0,part_1,,,,,,,,,,,,,white,square
308.0,6.0,2.0,1.0,1.0,1.0,343.63703901181,1.0,1.0,part_1,,,,,,,,,,,,,gray,I
157.0,1.0,1.0,0.0,3.0,3.0,334.6062890050234,1.0,1.0,part_1,,,,,,,,,,,,,magenta,circle
1289.0,8.0,4.0,1.0,2.0,2.0,361.0554370097816,1.0,1.0,part_1,,,,,,,,,,,,,green,hexagon
1276.0,4.0,4.0,0.0,3.0,3.0,343.5457760060671,1.0,1.0,part_1,,,,,,,,,,,,,white,square
327.0,6.0,2.0,1.0,2.0,2.0,408.8079859939171,1.0,2.0,part_1,,,,,,,,,,,,,gray,I
0.0,4.0,0.0,0.0,2.0,2.0,438.3339650084963,1.0,1.0,part_1,,,,,,,,,,,,,white,square
318.0,2.0,2.0,0.0,2.0,2.0,390.8328789984807,1.0,1.0,part_1,,,,,,,,,,,,,blue,diamond
1316.0,4.0,4.0,0.0,4.0,4.0,343.9826459944015,1.0,1.0,part_1,,,,,,,,,,,,,white,square
0.0,8.0,0.0,1.0,3.0,3.0,335.7550040091155,1.0,1.0,part_1,,,,,,,,,,,,,green,hexagon
1322.0,4.0,4.0,0.0,3.0,3.0,363.2798270118655,1.0,1.0,part_1,,,,,,,,,,,,,white,square
0.0,2.0,0.0,0.0,3.0,3.0,362.9148939944571,1.0,1.0,part_1,,,,,,,,,,,,,blue,diamond
0.0,1.0,0.0,0.0,3.0,3.0,362.0720349863404,1.0,1.0,part_1,,,,,,,,,,,,,magenta,circle
1282.0,8.0,4.0,1.0,4.0,4.0,342.9885130026378,1.0,1.0,part_1,,,,,,,,,,,,,green,hexagon
176.0,1.0,1.0,0.0,3.0,3.0,307.1307339996565,1.0,1.0,part_1,,,,,,,,,,,,,magenta,circle
627.0,3.0,3.0,0.0,3.0,3.0,333.4667080052895,1.0,1.0,part_1,,,,,,,,,,,,,yellow,cross
647.0,7.0,3.0,1.0,1.0,1.0,556.082253009663,1.0,1.0,part_1,,,,,,,,,,,,,orange,triangle
645.0,7.0,3.0,1.0,4.0,4.0,447.0154239970725,1.0,1.0,part_1,,,,,,,,,,,,,orange,triangle
0.0,1.0,0.0,0.0,4.0,4.0,370.8018170000287,1.0,1.0,part_1,,,,,,,,,,,,,magenta,circle
0.0,4.0,0.0,0.0,3.0,3.0,287.4431740056025,1.0,1.0,part_1,,,,,,,,,,,,,white,square
668.0,3.0,3.0,0.0,2.0,2.0,481.6634609887842,1.0,1.0,part_1,,,,,,,,,,,,,yellow,cross
0.0,5.0,0.0,1.0,4.0,4.0,306.0538220015587,1.0,1.0,part_1,,,,,,,,,,,,,cyan,flipped triangle
144.0,1.0,1.0,0.0,4.0,4.0,362.946337001631,1.0,1.0,part_1,,,,,,,,,,,,,magenta,circle
141.0,5.0,1.0,1.0,1.0,1.0,510.61533999745734,1.0,1.0,part_1,,,,,,,,,,,,,cyan,flipped triangle
346.0,2.0,2.0,0.0,2.0,2.0,324.9335739965318,1.0,1.0,part_1,,,,,,,,,,,,,blue,diamond
341.0,6.0,2.0,1.0,2.0,2.0,353.2560960011324,1.0,1.0,part_1,,,,,,,,,,,,,gray,I
636.0,7.0,3.0,1.0,3.0,3.0,335.1981739979237,1.0,1.0,part_1,,,,,,,,,,,,,orange,triangle
322.0,2.0,2.0,0.0,4.0,4.0,316.1541059962474,1.0,1.0,part_1,,,,,,,,,,,,,blue,diamond
672.0,7.0,3.0,1.0,2.0,2.0,390.9359249955741,1.0,1.0,part_1,,,,,,,,,,,,,orange,triangle
644.0,7.0,3.0,1.0,2.0,2.0,334.4512879993999,1.0,1.0,part_1,,,,,,,,,,,,,orange,triangle
0.0,7.0,0.0,1.0,3.0,3.0,372.4845520046074,1.0,1.0,part_1,,,,,,,,,,,,,orange,triangle
644.0,3.0,3.0,0.0,4.0,4.0,326.7732430103933,1.0,1.0,part_1,,,,,,,,,,,,,yellow,cross
1304.0,4.0,4.0,0.0,2.0,2.0,326.773980006692,1.0,1.0,part_1,,,,,,,,,,,,,white,square
0.0,1.0,0.0,0.0,1.0,1.0,371.6102559992578,1.0,1.0,part_1,,,,,,,,,,,,,magenta,circle
0.0,6.0,0.0,1.0,4.0,4.0,328.2916360039962,1.0,1.0,part_1,,,,,,,,,,,,,gray,I
1283.0,8.0,4.0,1.0,1.0,1.0,400.1580070034833,1.0,2.0,part_1,,,,,,,,,,,,,green,hexagon
314.0,6.0,2.0,1.0,4.0,4.0,335.3204750019358,1.0,1.0,part_1,,,,,,,,,,,,,gray,I
1289.0,4.0,4.0,0.0,2.0,2.0,577.316688009887,1.0,1.0,part_1,,,,,,,,,,,,,white,square
656.0,3.0,3.0,0.0,3.0,3.0,306.8063559912843,1.0,1.0,part_1,,,,,,,,,,,,,yellow,cross
0.0,5.0,0.0,1.0,4.0,4.0,345.9825439931592,1.0,1.0,part_1,,,,,,,,,,,,,cyan,flipped triangle
657.0,3.0,3.0,0.0,1.0,1.0,400.4039620049298,1.0,1.0,part_1,,,,,,,,,,,,,yellow,cross
666.0,7.0,3.0,1.0,2.0,2.0,483.681195997633,1.0,1.0,part_1,,,,,,,,,,,,,orange,triangle
634.0,3.0,3.0,0.0,3.0,3.0,355.7043750042794,1.0,1.0,part_1,,,,,,,,,,,,,yellow,cross
346.0,6.0,2.0,1.0,4.0,4.0,391.1546739982441,1.0,1.0,part_1,,,,,,,,,,,,,gray,I
646.0,3.0,3.0,0.0,2.0,2.0,391.4346329984255,1.0,1.0,part_1,,,,,,,,,,,,,yellow,cross
0.0,2.0,0.0,0.0,2.0,2.0,373.8160889915889,1.0,1.0,part_1,,,,,,,,,,,,,blue,diamond
181.0,1.0,1.0,0.0,3.0,3.0,299.4695899978978,1.0,1.0,part_1,,,,,,,,,,,,,magenta,circle
0.0,3.0,0.0,0.0,4.0,4.0,308.0117200006498,1.0,1.0,part_1,,,,,,,,,,,,,yellow,cross
637.0,7.0,3.0,1.0,1.0,1.0,511.3866739993682,1.0,1.0,part_1,,,,,,,,,,,,,orange,triangle
0.0,3.0,0.0,0.0,3.0,3.0,353.7857839983189,1.0,1.0,part_1,,,,,,,,,,,,,yellow,cross
1305.0,4.0,4.0,0.0,4.0,4.0,343.3875750051811,1.0,1.0,part_1,,,,,,,,,,,,,white,square
1304.0,8.0,4.0,1.0,2.0,2.0,428.06576799193857,1.0,2.0,part_1,,,,,,,,,,,,,green,hexagon
314.0,6.0,2.0,1.0,3.0,3.0,353.5250159911811,1.0,1.0,part_1,,,,,,,,,,,,,gray,I
1295.0,4.0,4.0,0.0,1.0,1.0,309.0275849972386,1.0,1.0,part_1,,,,,,,,,,,,,white,square
1322.0,8.0,4.0,1.0,3.0,3.0,298.922781003057,1.0,1.0,part_1,,,,,,,,,,,,,green,hexagon
343.0,2.0,2.0,0.0,2.0,2.0,373.7809699960053,1.0,1.0,part_1,,,,,,,,,,,,,blue,diamond
184.0,5.0,1.0,1.0,3.0,3.0,325.9875130024738,1.0,1.0,part_1,,,,,,,,,,,,,cyan,flipped triangle
322.0,2.0,2.0,0.0,4.0,4.0,354.2482989869313,1.0,1.0,part_1,,,,,,,,,,,,,blue,diamond
0.0,1.0,0.0,0.0,4.0,4.0,354.5611430017743,1.0,1.0,part_1,,,,,,,,,,,,,magenta,circle
311.0,6.0,2.0,1.0,1.0,1.0,342.6646330044605,1.0,1.0,part_1,,,,,,,,,,,,,gray,I
327.0,2.0,2.0,0.0,1.0,1.0,363.9916380052455,1.0,1.0,part_1,,,,,,,,,,,,,blue,diamond
645.0,7.0,3.0,1.0,1.0,1.0,373.7540029978845,1.0,1.0,part_1,,,,,,,,,,,,,orange,triangle
183.0,1.0,1.0,0.0,2.0,2.0,336.1882360040908,2.0,1.0,part_1,,,,,,,,,,,,,magenta,circle
142.0,1.0,1.0,0.0,2.0,2.0,317.5198959943373,2.0,1.0,part_1,,,,,,,,,,,,,magenta,circle
183.0,5.0,1.0,1.0,4.0,4.0,382.0538129948545,2.0,1.0,part_1,,,,,,,,,,,,,cyan,flipped triangle
173.0,5.0,1.0,1.0,1.0,1.0,458.0430350033566,2.0,1.0,part_1,,,,,,,,,,,,,cyan,flipped triangle
0.0,4.0,0.0,0.0,2.0,2.0,316.4449329924537,2.0,1.0,part_1,,,,,,,,,,,,,white,square
322.0,6.0,2.0,1.0,1.0,1.0,334.6311819914263,2.0,1.0,part_1,,,,,,,,,,,,,gray,I
0.0,7.0,0.0,1.0,3.0,3.0,315.9059130121022,2.0,1.0,part_1,,,,,,,,,,,,,orange,triangle
0.0,6.0,0.0,1.0,1.0,1.0,324.3854870088398,2.0,1.0,part_1,,,,,,,,,,,,,gray,I
639.0,3.0,3.0,0.0,3.0,3.0,428.5341209906619,2.0,1.0,part_1,,,,,,,,,,,,,yellow,cross
148.0,1.0,1.0,0.0,4.0,4.0,353.944643997238,2.0,1.0,part_1,,,,,,,,,,,,,magenta,circle
0.0,4.0,0.0,0.0,3.0,3.0,315.6337499967776,2.0,1.0,part_1,,,,,,,,,,,,,white,square
164.0,5.0,1.0,1.0,3.0,3.0,288.7792900000931,2.0,1.0,part_1,,,,,,,,,,,,,cyan,flipped triangle
0.0,2.0,0.0,0.0,4.0,4.0,409.06455500226,2.0,1.0,part_1,,,,,,,,,,,,,blue,diamond
182.0,1.0,1.0,0.0,1.0,1.0,307.0417099952465,2.0,1.0,part_1,,,,,,,,,,,,,magenta,circle
644.0,7.0,3.0,1.0,3.0,3.0,261.742012007744,2.0,1.0,part_1,,,,,,,,,,,,,orange,triangle
674.0,7.0,3.0,1.0,4.0,4.0,270.5327840085374,2.0,1.0,part_1,,,,,,,,,,,,,orange,triangle
1316.0,4.0,4.0,0.0,3.0,3.0,297.2696870128857,2.0,1.0,part_1,,,,,,,,,,,,,white,square
153.0,1.0,1.0,0.0,3.0,3.0,305.9758299932582,2.0,1.0,part_1,,,,,,,,,,,,,magenta,circle
1294.0,4.0,4.0,0.0,3.0,3.0,271.6775009903358,2.0,1.0,part_1,,,,,,,,,,,,,white,square
657.0,3.0,3.0,0.0,4.0,4.0,270.4063580022193,2.0,1.0,part_1,,,,,,,,,,,,,yellow,cross
140.0,5.0,1.0,1.0,1.0,1.0,344.970457997988,2.0,2.0,part_1,,,,,,,,,,,,,cyan,flipped triangle
1287.0,8.0,4.0,1.0,1.0,1.0,410.1184350001858,2.0,1.0,part_1,,,,,,,,,,,,,green,hexagon
155.0,1.0,1.0,0.0,4.0,4.0,354.8905729985563,2.0,1.0,part_1,,,,,,,,,,,,,magenta,circle
157.0,5.0,1.0,1.0,4.0,4.0,325.289629996405,2.0,1.0,part_1,,,,,,,,,,,,,cyan,flipped triangle
625.0,3.0,3.0,0.0,4.0,4.0,334.9477909941925,2.0,1.0,part_1,,,,,,,,,,,,,yellow,cross
184.0,1.0,1.0,0.0,2.0,2.0,495.8958820061525,2.0,1.0,part_1,,,,,,,,,,,,,magenta,circle
311.0,2.0,2.0,0.0,3.0,3.0,308.207861991832,2.0,1.0,part_1,,,,,,,,,,,,,blue,diamond
649.0,3.0,3.0,0.0,2.0,2.0,326.1521519889356,2.0,2.0,part_1,,,,,,,,,,,,,yellow,cross
0.0,6.0,0.0,1.0,2.0,2.0,381.474433990661,2.0,1.0,part_1,,,,,,,,,,,,,gray,I
636.0,3.0,3.0,0.0,1.0,1.0,475.296125994646,2.0,1.0,part_1,,,,,,,,,,,,,yellow,cross
1307.0,8.0,4.0,1.0,2.0,2.0,409.5902160042897,2.0,1.0,part_1,,,,,,,,,,,,,green,hexagon
140.0,1.0,1.0,0.0,3.0,3.0,371.0779789980734,2.0,1.0,part_1,,,,,,,,,,,,,magenta,circle
304.0,2.0,2.0,0.0,2.0,2.0,437.1429460006766,2.0,1.0,part_1,,,,,,,,,,,,,blue,diamond
0.0,2.0,0.0,0.0,1.0,1.0,324.4164889911189,2.0,1.0,part_1,,,,,,,,,,,,,blue,diamond
0.0,6.0,0.0,1.0,4.0,4.0,296.8527200137032,2.0,1.0,part_1,,,,,,,,,,,,,gray,I
653.0,7.0,3.0,1.0,2.0,2.0,315.3363910096232,2.0,1.0,part_1,,,,,,,,,,,,,orange,triangle
349.0,2.0,2.0,0.0,2.0,2.0,352.6399649999803,2.0,1.0,part_1,,,,,,,,,,,,,blue,diamond
138.0,1.0,1.0,0.0,3.0,3.0,334.9627220013644,2.0,1.0,part_1,,,,,,,,,,,,,magenta,circle
0.0,7.0,0.0,1.0,3.0,3.0,297.5785089947749,2.0,1.0,part_1,,,,,,,,,,,,,orange,triangle
651.0,3.0,3.0,0.0,4.0,4.0,334.2902029980905,2.0,1.0,part_1,,,,,,,,,,,,,yellow,cross
1311.0,8.0,4.0,1.0,2.0,2.0,363.1203310069395,2.0,1.0,part_1,,,,,,,,,,,,,green,hexagon
1296.0,8.0,4.0,1.0,4.0,4.0,316.7308449919801,2.0,1.0,part_1,,,,,,,,,,,,,green,hexagon
668.0,7.0,3.0,1.0,4.0,4.0,316.585833003046,2.0,1.0,part_1,,,,,,,,,,,,,orange,triangle
643.0,7.0,3.0,1.0,3.0,3.0,307.7597420051461,2.0,1.0,part_1,,,,,,,,,,,,,orange,triangle
1282.0,4.0,4.0,0.0,4.0,4.0,336.1168279952835,2.0,1.0,part_1,,,,,,,,,,,,,white,square
333.0,2.0,2.0,0.0,1.0,1.0,373.5244749987032,2.0,1.0,part_1,,,,,,,,,,,,,blue,diamond
338.0,6.0,2.0,1.0,2.0,2.0,428.3863379969261,2.0,1.0,part_1,,,,,,,,,,,,,gray,I
1302.0,4.0,4.0,0.0,1.0,1.0,400.8417800068855,2.0,1.0,part_1,,,,,,,,,,,,,white,square
1310.0,4.0,4.0,0.0,2.0,2.0,317.2146699944278,2.0,1.0,part_1,,,,,,,,,,,,,white,square
1324.0,8.0,4.0,1.0,1.0,1.0,400.5094780004583,2.0,1.0,part_1,,,,,,,,,,,,,green,hexagon
663.0,3.0,3.0,0.0,3.0,3.0,282.2740970004815,2.0,1.0,part_1,,,,,,,,,,,,,yellow,cross
631.0,7.0,3.0,1.0,4.0,4.0,380.9793830005219,2.0,1.0,part_1,,,,,,,,,,,,,orange,triangle
646.0,7.0,3.0,1.0,3.0,3.0,345.0174319877988,2.0,1.0,part_1,,,,,,,,,,,,,orange,triangle
1286.0,4.0,4.0,0.0,3.0,3.0,353.3660670073004,2.0,1.0,part_1,,,,,,,,,,,,,white,square
159.0,1.0,1.0,0.0,1.0,1.0,438.1216199981281,2.0,1.0,part_1,,,,,,,,,,,,,magenta,circle
343.0,2.0,2.0,0.0,4.0,4.0,335.25062300032,2.0,1.0,part_1,,,,,,,,,,,,,blue,diamond
1287.0,4.0,4.0,0.0,1.0,1.0,354.268448005314,2.0,1.0,part_1,,,,,,,,,,,,,white,square
634.0,7.0,3.0,1.0,3.0,3.0,327.2488310030894,2.0,1.0,part_1,,,,,,,,,,,,,orange,triangle
643.0,3.0,3.0,0.0,4.0,4.0,410.7684549962869,2.0,1.0,part_1,,,,,,,,,,,,,yellow,cross
639.0,7.0,3.0,1.0,4.0,4.0,438.6470739991637,2.0,1.0,part_1,,,,,,,,,,,,,orange,triangle
649.0,7.0,3.0,1.0,2.0,2.0,445.5607440031599,2.0,1.0,part_1,,,,,,,,,,,,,orange,triangle
1322.0,4.0,4.0,0.0,3.0,3.0,298.8560189987765,2.0,1.0,part_1,,,,,,,,,,,,,white,square
180.0,5.0,1.0,1.0,2.0,2.0,355.11239200423,2.0,1.0,part_1,,,,,,,,,,,,,cyan,flipped triangle
0.0,7.0,0.0,1.0,2.0,2.0,381.1942239990458,2.0,1.0,part_1,,,,,,,,,,,,,orange,triangle
0.0,4.0,0.0,0.0,2.0,2.0,846.3678679981967,2.0,1.0,part_1,,,,,,,,,,,,,white,square
169.0,5.0,1.0,1.0,3.0,3.0,334.0343669988215,2.0,1.0,part_1,,,,,,,,,,,,,cyan,flipped triangle
674.0,3.0,3.0,0.0,1.0,1.0,325.5931609892286,2.0,1.0,part_1,,,,,,,,,,,,,yellow,cross
173.0,5.0,1.0,1.0,1.0,1.0,491.5945149987237,2.0,1.0,part_1,,,,,,,,,,,,,cyan,flipped triangle
0.0,5.0,0.0,1.0,1.0,1.0,343.1236059986986,2.0,1.0,part_1,,,,,,,,,,,,,cyan,flipped triangle
343.0,6.0,2.0,1.0,2.0,2.0,382.4662880069809,2.0,1.0,part_1,,,,,,,,,,,,,gray,I
653.0,7.0,3.0,1.0,2.0,2.0,334.5273440063465,2.0,1.0,part_1,,,,,,,,,,,,,orange,triangle
0.0,3.0,0.0,0.0,4.0,4.0,315.6619110086467,2.0,1.0,part_1,,,,,,,,,,,,,yellow,cross
1303.0,4.0,4.0,0.0,1.0,1.0,445.6153389910469,2.0,1.0,part_1,,,,,,,,,,,,,white,square
141.0,5.0,1.0,1.0,1.0,1.0,437.1904040017398,2.0,1.0,part_1,,,,,,,,,,,,,cyan,flipped triangle
164.0,1.0,1.0,0.0,1.0,1.0,326.5308389964048,2.0,1.0,part_1,,,,,,,,,,,,,magenta,circle
309.0,2.0,2.0,0.0,1.0,1.0,307.2010410105577,2.0,1.0,part_1,,,,,,,,,,,,,blue,diamond
329.0,6.0,2.0,1.0,3.0,3.0,335.4087040061131,2.0,1.0,part_1,,,,,,,,,,,,,gray,I
173.0,1.0,1.0,0.0,3.0,3.0,456.9971220043953,2.0,1.0,part_1,,,,,,,,,,,,,magenta,circle
0.0,4.0,0.0,0.0,4.0,4.0,391.3403740007197,2.0,1.0,part_1,,,,,,,,,,,,,white,square
633.0,7.0,3.0,1.0,1.0,1.0,465.6299069902161,2.0,1.0,part_1,,,,,,,,,,,,,orange,triangle
181.0,5.0,1.0,1.0,3.0,3.0,326.0927749943221,2.0,1.0,part_1,,,,,,,,,,,,,cyan,flipped triangle
0.0,8.0,0.0,1.0,4.0,4.0,336.5435529995011,2.0,1.0,part_1,,,,,,,,,,,,,green,hexagon
1276.0,8.0,4.0,1.0,1.0,1.0,492.4397010036045,2.0,1.0,part_1,,,,,,,,,,,,,green,hexagon
669.0,7.0,3.0,1.0,1.0,1.0,362.9005210095783,2.0,1.0,part_1,,,,,,,,,,,,,orange,triangle
141.0,1.0,1.0,0.0,2.0,2.0,382.6531789964065,2.0,1.0,part_1,,,,,,,,,,,,,magenta,circle
653.0,3.0,3.0,0.0,3.0,3.0,324.2900740006007,2.0,1.0,part_1,,,,,,,,,,,,,yellow,cross
0.0,1.0,0.0,0.0,1.0,1.0,345.0146270042751,2.0,1.0,part_1,,,,,,,,,,,,,magenta,circle
638.0,3.0,3.0,0.0,4.0,4.0,317.9539539996767,2.0,1.0,part_1,,,,,,,,,,,,,yellow,cross
664.0,3.0,3.0,0.0,1.0,1.0,325.67173599090887,2.0,1.0,part_1,,,,,,,,,,,,,yellow,cross
327.0,6.0,2.0,1.0,3.0,3.0,466.2879660027101,2.0,1.0,part_1,,,,,,,,,,,,,gray,I
0.0,8.0,0.0,1.0,4.0,4.0,289.4165329926181,2.0,1.0,part_1,,,,,,,,,,,,,green,hexagon
329.0,2.0,2.0,0.0,2.0,2.0,301.9847190007567,2.0,1.0,part_1,,,,,,,,,,,,,blue,diamond
333.0,6.0,2.0,1.0,3.0,3.0,269.8021460091695,2.0,1.0,part_1,,,,,,,,,,,,,gray,I
312.0,6.0,2.0,1.0,1.0,1.0,335.8728839957621,2.0,1.0,part_1,,,,,,,,,,,,,gray,I
1319.0,8.0,4.0,1.0,4.0,4.0,260.6847189890686,2.0,1.0,part_1,,,,,,,,,,,,,green,hexagon
314.0,2.0,2.0,0.0,2.0,2.0,288.6093600100139,2.0,1.0,part_1,,,,,,,,,,,,,blue,diamond
669.0,3.0,3.0,0.0,1.0,1.0,325.1253210037248,2.0,1.0,part_1,,,,,,,,,,,,,yellow,cross
332.0,2.0,2.0,0.0,3.0,3.0,279.0259890025481,2.0,1.0,part_1,,,,,,,,,,,,,blue,diamond
145.0,5.0,1.0,1.0,1.0,1.0,316.6326960053993,2.0,1.0,part_1,,,,,,,,,,,,,cyan,flipped triangle
304.0,6.0,2.0,1.0,3.0,3.0,288.2786499976646,2.0,1.0,part_1,,,,,,,,,,,,,gray,I
1298.0,4.0,4.0,0.0,4.0,4.0,335.4829809977673,3.0,1.0,part_1,,,,,,,,,,,,,white,square
148.0,5.0,1.0,1.0,2.0,2.0,345.4073140019318,3.0,1.0,part_1,,,,,,,,,,,,,cyan,flipped triangle
640.0,7.0,3.0,1.0,4.0,4.0,261.5312249981798,3.0,1.0,part_1,,,,,,,,,,,,,orange,triangle
314.0,2.0,2.0,0.0,3.0,3.0,288.6692169995513,3.0,1.0,part_1,,,,,,,,,,,,,blue,diamond
0.0,3.0,0.0,0.0,1.0,1.0,326.3416559930192,3.0,1.0,part_1,,,,,,,,,,,,,yellow,cross
666.0,3.0,3.0,0.0,4.0,4.0,289.1316419991199,3.0,1.0,part_1,,,,,,,,,,,,,yellow,cross
1283.0,4.0,4.0,0.0,2.0,2.0,288.0705840070732,3.0,1.0,part_1,,,,,,,,,,,,,white,square
0.0,6.0,0.0,1.0,1.0,1.0,308.2703560066875,3.0,1.0,part_1,,,,,,,,,,,,,gray,I
314.0,6.0,2.0,1.0,3.0,3.0,269.8811849986668,3.0,1.0,part_1,,,,,,,,,,,,,gray,I
309.0,6.0,2.0,1.0,4.0,4.0,316.1357770004542,3.0,1.0,part_1,,,,,,,,,,,,,gray,I
0.0,3.0,0.0,0.0,1.0,1.0,493.8767150015337,3.0,1.0,part_1,,,,,,,,,,,,,yellow,cross
0.0,2.0,0.0,0.0,1.0,1.0,363.1926529924385,3.0,1.0,part_1,,,,,,,,,,,,,blue,diamond
0.0,7.0,0.0,1.0,1.0,1.0,307.4626350135077,3.0,1.0,part_1,,,,,,,,,,,,,orange,triangle
345.0,6.0,2.0,1.0,2.0,2.0,314.2737299931468,3.0,2.0,part_1,,,,,,,,,,,,,gray,I
319.0,2.0,2.0,0.0,3.0,3.0,390.1380009920103,3.0,1.0,part_1,,,,,,,,,,,,,blue,diamond
1294.0,8.0,4.0,1.0,1.0,1.0,317.3581640003249,3.0,1.0,part_1,,,,,,,,,,,,,green,hexagon
312.0,2.0,2.0,0.0,4.0,4.0,261.3029060012195,3.0,1.0,part_1,,,,,,,,,,,,,blue,diamond
662.0,3.0,3.0,0.0,2.0,2.0,288.500341004692,3.0,1.0,part_1,,,,,,,,,,,,,yellow,cross
187.0,5.0,1.0,1.0,4.0,4.0,325.0445320009021,3.0,1.0,part_1,,,,,,,,,,,,,cyan,flipped triangle
1295.0,4.0,4.0,0.0,4.0,4.0,391.7716669966467,3.0,1.0,part_1,,,,,,,,,,,,,white,square
0.0,5.0,0.0,1.0,1.0,1.0,316.7528220074018,3.0,1.0,part_1,,,,,,,,,,,,,cyan,flipped triangle
0.0,6.0,0.0,1.0,1.0,1.0,325.7022830075584,3.0,1.0,part_1,,,,,,,,,,,,,gray,I
0.0,8.0,0.0,1.0,1.0,1.0,307.8419630037388,3.0,1.0,part_1,,,,,,,,,,,,,green,hexagon
307.0,2.0,2.0,0.0,1.0,1.0,289.8905190086225,3.0,1.0,part_1,,,,,,,,,,,,,blue,diamond
1307.0,8.0,4.0,1.0,3.0,3.0,325.1623590040253,3.0,1.0,part_1,,,,,,,,,,,,,green,hexagon
301.0,2.0,2.0,0.0,4.0,4.0,305.9553609928116,3.0,1.0,part_1,,,,,,,,,,,,,blue,diamond
0.0,7.0,0.0,1.0,2.0,2.0,325.0820290122647,3.0,1.0,part_1,,,,,,,,,,,,,orange,triangle
138.0,5.0,1.0,1.0,3.0,3.0,334.9578979978105,3.0,1.0,part_1,,,,,,,,,,,,,cyan,flipped triangle
1305.0,8.0,4.0,1.0,2.0,2.0,371.9404790026601,3.0,2.0,part_1,,,,,,,,,,,,,green,hexagon
0.0,8.0,0.0,1.0,1.0,1.0,324.7774939954979,3.0,1.0,part_1,,,,,,,,,,,,,green,hexagon
186.0,5.0,1.0,1.0,3.0,3.0,296.582684997702,3.0,1.0,part_1,,,,,,,,,,,,,cyan,flipped triangle
0.0,8.0,0.0,1.0,2.0,2.0,315.7034300093073,3.0,1.0,part_1,,,,,,,,,,,,,green,hexagon
1307.0,4.0,4.0,0.0,3.0,3.0,288.6996750021353,3.0,1.0,part_1,,,,,,,,,,,,,white,square
0.0,8.0,0.0,1.0,3.0,3.0,298.1942229962442,3.0,1.0,part_1,,,,,,,,,,,,,green,hexagon
0.0,2.0,0.0,0.0,2.0,2.0,344.2863020027289,3.0,1.0,part_1,,,,,,,,,,,,,blue,diamond
669.0,7.0,3.0,1.0,2.0,2.0,298.2932560116751,3.0,1.0,part_1,,,,,,,,,,,,,orange,triangle
149.0,1.0,1.0,0.0,1.0,1.0,307.8849119920051,3.0,1.0,part_1,,,,,,,,,,,,,magenta,circle
324.0,2.0,2.0,0.0,4.0,4.0,492.7131680015009,3.0,1.0,part_1,,,,,,,,,,,,,blue,diamond
150.0,1.0,1.0,0.0,1.0,1.0,289.3938830093248,3.0,2.0,part_1,,,,,,,,,,,,,magenta,circle
1316.0,8.0,4.0,1.0,4.0,4.0,392.7142379980068,3.0,1.0,part_1,,,,,,,,,,,,,green,hexagon
169.0,1.0,1.0,0.0,1.0,1.0,400.3377260087291,3.0,2.0,part_1,,,,,,,,,,,,,magenta,circle
0.0,4.0,0.0,0.0,1.0,1.0,334.9777089897543,3.0,1.0,part_1,,,,,,,,,,,,,white,square
306.0,2.0,2.0,0.0,1.0,1.0,288.9379760017618,3.0,1.0,part_1,,,,,,,,,,,,,blue,diamond
0.0,3.0,0.0,0.0,3.0,3.0,316.2134849990252,3.0,1.0,part_1,,,,,,,,,,,,,yellow,cross
666.0,7.0,3.0,1.0,3.0,3.0,373.9540090027731,3.0,1.0,part_1,,,,,,,,,,,,,orange,triangle
1301.0,8.0,4.0,1.0,1.0,1.0,372.5725319964112,3.0,1.0,part_1,,,,,,,,,,,,,green,hexagon
318.0,6.0,2.0,1.0,4.0,4.0,344.4835499976761,3.0,1.0,part_1,,,,,,,,,,,,,gray,I
1310.0,8.0,4.0,1.0,4.0,4.0,336.1092660052236,3.0,1.0,part_1,,,,,,,,,,,,,green,hexagon
1309.0,8.0,4.0,1.0,1.0,1.0,427.9410429880954,3.0,1.0,part_1,,,,,,,,,,,,,green,hexagon
330.0,6.0,2.0,1.0,2.0,2.0,363.1863290065666,3.0,1.0,part_1,,,,,,,,,,,,,gray,I
174.0,1.0,1.0,0.0,4.0,4.0,317.1900090092094,3.0,1.0,part_1,,,,,,,,,,,,,magenta,circle
627.0,7.0,3.0,1.0,2.0,2.0,335.4505819879705,3.0,1.0,part_1,,,,,,,,,,,,,orange,triangle
154.0,5.0,1.0,1.0,4.0,4.0,317.2431229904759,3.0,1.0,part_1,,,,,,,,,,,,,cyan,flipped triangle
306.0,6.0,2.0,1.0,4.0,4.0,392.1960599982412,3.0,1.0,part_1,,,,,,,,,,,,,gray,I
0.0,1.0,0.0,0.0,3.0,3.0,327.5210489955498,3.0,1.0,part_1,,,,,,,,,,,,,magenta,circle
0.0,1.0,0.0,0.0,1.0,1.0,316.9436520111048,3.0,1.0,part_1,,,,,,,,,,,,,magenta,circle
625.0,7.0,3.0,1.0,3.0,3.0,325.4370609938632,3.0,1.0,part_1,,,,,,,,,,,,,orange,triangle
657.0,7.0,3.0,1.0,2.0,2.0,334.4014930044068,3.0,1.0,part_1,,,,,,,,,,,,,orange,triangle
0.0,7.0,0.0,1.0,1.0,1.0,315.7966160069918,3.0,1.0,part_1,,,,,,,,,,,,,orange,triangle
1282.0,4.0,4.0,0.0,3.0,3.0,316.218102001585,3.0,1.0,part_1,,,,,,,,,,,,,white,square
0.0,7.0,0.0,1.0,3.0,3.0,316.0833039873978,3.0,1.0,part_1,,,,,,,,,,,,,orange,triangle
1279.0,4.0,4.0,0.0,2.0,2.0,417.6751210034126,3.0,1.0,part_1,,,,,,,,,,,,,white,square
187.0,1.0,1.0,0.0,2.0,2.0,455.5972439993638,3.0,1.0,part_1,,,,,,,,,,,,,magenta,circle
638.0,7.0,3.0,1.0,3.0,3.0,361.4214550034376,3.0,1.0,part_1,,,,,,,,,,,,,orange,triangle
329.0,2.0,2.0,0.0,4.0,4.0,427.794825998717,3.0,1.0,part_1,,,,,,,,,,,,,blue,diamond
137.0,1.0,1.0,0.0,1.0,1.0,381.4744090050226,3.0,1.0,part_1,,,,,,,,,,,,,magenta,circle
1294.0,4.0,4.0,0.0,4.0,4.0,392.4776350031607,3.0,1.0,part_1,,,,,,,,,,,,,white,square
0.0,7.0,0.0,1.0,1.0,1.0,344.5832800061907,3.0,1.0,part_1,,,,,,,,,,,,,orange,triangle
1307.0,4.0,4.0,0.0,1.0,1.0,334.3702010024572,3.0,1.0,part_1,,,,,,,,,,,,,white,square
319.0,6.0,2.0,1.0,1.0,1.0,348.117675006506,3.0,1.0,part_1,,,,,,,,,,,,,gray,I
141.0,1.0,1.0,0.0,2.0,2.0,391.66946199839,3.0,1.0,part_1,,,,,,,,,,,,,magenta,circle
0.0,1.0,0.0,0.0,2.0,2.0,325.3980690060416,3.0,1.0,part_1,,,,,,,,,,,,,magenta,circle
0.0,6.0,0.0,1.0,1.0,1.0,380.4895899957046,3.0,1.0,part_1,,,,,,,,,,,,,gray,I
149.0,5.0,1.0,1.0,4.0,4.0,306.5585949952947,3.0,1.0,part_1,,,,,,,,,,,,,cyan,flipped triangle
345.0,6.0,2.0,1.0,1.0,1.0,315.8087539923144,3.0,1.0,part_1,,,,,,,,,,,,,gray,I
0.0,5.0,0.0,1.0,3.0,3.0,279.3051969929365,3.0,1.0,part_1,,,,,,,,,,,,,cyan,flipped triangle
163.0,1.0,1.0,0.0,3.0,3.0,316.2724460125901,3.0,1.0,part_1,,,,,,,,,,,,,magenta,circle
171.0,1.0,1.0,0.0,3.0,3.0,308.4703700005775,3.0,1.0,part_1,,,,,,,,,,,,,magenta,circle
332.0,2.0,2.0,0.0,3.0,3.0,288.1031400029314,3.0,1.0,part_1,,,,,,,,,,,,,blue,diamond
1301.0,8.0,4.0,1.0,2.0,2.0,371.5449740120675,3.0,1.0,part_1,,,,,,,,,,,,,green,hexagon
657.0,7.0,3.0,1.0,4.0,4.0,326.2181379977846,3.0,1.0,part_1,,,,,,,,,,,,,orange,triangle
341.0,6.0,2.0,1.0,1.0,1.0,335.8075290016131,3.0,1.0,part_1,,,,,,,,,,,,,gray,I
178.0,1.0,1.0,0.0,1.0,1.0,325.6905169982929,3.0,1.0,part_1,,,,,,,,,,,,,magenta,circle
159.0,5.0,1.0,1.0,4.0,4.0,399.2278499936219,3.0,1.0,part_1,,,,,,,,,,,,,cyan,flipped triangle
171.0,5.0,1.0,1.0,3.0,3.0,344.706686999416,3.0,1.0,part_1,,,,,,,,,,,,,cyan,flipped triangle
632.0,7.0,3.0,1.0,4.0,4.0,307.1952129976125,3.0,1.0,part_1,,,,,,,,,,,,,orange,triangle
154.0,1.0,1.0,0.0,2.0,2.0,472.9989689949434,3.0,1.0,part_1,,,,,,,,,,,,,magenta,circle
641.0,7.0,3.0,1.0,1.0,1.0,306.3267419929616,3.0,1.0,part_1,,,,,,,,,,,,,orange,triangle
0.0,5.0,0.0,1.0,2.0,2.0,343.6498549999669,3.0,2.0,part_1,,,,,,,,,,,,,cyan,flipped triangle
656.0,7.0,3.0,1.0,3.0,3.0,326.0907140065683,3.0,1.0,part_1,,,,,,,,,,,,,orange,triangle
303.0,2.0,2.0,0.0,1.0,1.0,277.9610940051498,3.0,1.0,part_1,,,,,,,,,,,,,blue,diamond
632.0,3.0,3.0,0.0,4.0,4.0,352.6012829970568,3.0,1.0,part_1,,,,,,,,,,,,,yellow,cross
322.0,6.0,2.0,1.0,2.0,2.0,380.5868100025691,3.0,1.0,part_1,,,,,,,,,,,,,gray,I
1282.0,4.0,4.0,0.0,1.0,1.0,296.9671789905987,3.0,1.0,part_1,,,,,,,,,,,,,white,square
343.0,6.0,2.0,1.0,4.0,4.0,427.7596469910349,3.0,1.0,part_1,,,,,,,,,,,,,gray,I
317.0,6.0,2.0,1.0,4.0,4.0,343.7391779880272,3.0,1.0,part_1,,,,,,,,,,,,,gray,I
141.0,5.0,1.0,1.0,1.0,1.0,371.0980999894673,3.0,1.0,part_1,,,,,,,,,,,,,cyan,flipped triangle
307.0,6.0,2.0,1.0,3.0,3.0,354.5785620081005,3.0,1.0,part_1,,,,,,,,,,,,,gray,I
137.0,5.0,1.0,1.0,2.0,2.0,362.6432400051271,3.0,1.0,part_1,,,,,,,,,,,,,cyan,flipped triangle
318.0,6.0,2.0,1.0,2.0,2.0,371.606515996973,3.0,1.0,part_1,,,,,,,,,,,,,gray,I
345.0,2.0,2.0,0.0,4.0,4.0,363.1968459958443,4.0,1.0,part_1,,,,,,,,,,,,,blue,diamond
185.0,5.0,1.0,1.0,3.0,3.0,307.1482300001662,4.0,1.0,part_1,,,,,,,,,,,,,cyan,flipped triangle
1294.0,8.0,4.0,1.0,1.0,1.0,298.6872280016541,4.0,1.0,part_1,,,,,,,,,,,,,green,hexagon
0.0,6.0,0.0,1.0,4.0,4.0,308.6854160064831,4.0,1.0,part_1,,,,,,,,,,,,,gray,I
341.0,2.0,2.0,0.0,2.0,2.0,298.2311689993366,4.0,1.0,part_1,,,,,,,,,,,,,blue,diamond
0.0,2.0,0.0,0.0,2.0,2.0,335.6797140004346,4.0,1.0,part_1,,,,,,,,,,,,,blue,diamond
639.0,7.0,3.0,1.0,1.0,1.0,326.7067039996618,4.0,1.0,part_1,,,,,,,,,,,,,orange,triangle
1279.0,8.0,4.0,1.0,2.0,2.0,327.2380900016287,4.0,1.0,part_1,,,,,,,,,,,,,green,hexagon
303.0,6.0,2.0,1.0,3.0,3.0,300.1929609890794,4.0,1.0,part_1,,,,,,,,,,,,,gray,I
0.0,8.0,0.0,1.0,1.0,1.0,288.9520509925205,4.0,1.0,part_1,,,,,,,,,,,,,green,hexagon
1309.0,4.0,4.0,0.0,2.0,2.0,315.7424810051452,4.0,1.0,part_1,,,,,,,,,,,,,white,square
663.0,7.0,3.0,1.0,4.0,4.0,270.7228979998035,4.0,1.0,part_1,,,,,,,,,,,,,orange,triangle
641.0,3.0,3.0,0.0,2.0,2.0,307.0531700068386,4.0,1.0,part_1,,,,,,,,,,,,,yellow,cross
645.0,3.0,3.0,0.0,3.0,3.0,326.9322020059917,4.0,1.0,part_1,,,,,,,,,,,,,yellow,cross
644.0,3.0,3.0,0.0,4.0,4.0,334.509070002241,4.0,1.0,part_1,,,,,,,,,,,,,yellow,cross
670.0,7.0,3.0,1.0,1.0,1.0,401.0411119961645,4.0,1.0,part_1,,,,,,,,,,,,,orange,triangle
1282.0,8.0,4.0,1.0,3.0,3.0,261.2805649987422,4.0,1.0,part_1,,,,,,,,,,,,,green,hexagon
643.0,7.0,3.0,1.0,3.0,3.0,308.7521370034665,4.0,1.0,part_1,,,,,,,,,,,,,orange,triangle
154.0,1.0,1.0,0.0,2.0,2.0,363.0310820008162,4.0,1.0,part_1,,,,,,,,,,,,,magenta,circle
0.0,7.0,0.0,1.0,2.0,2.0,297.4735010066069,4.0,1.0,part_1,,,,,,,,,,,,,orange,triangle
154.0,5.0,1.0,1.0,2.0,2.0,362.81080399930937,4.0,1.0,part_1,,,,,,,,,,,,,cyan,flipped triangle
1294.0,4.0,4.0,0.0,3.0,3.0,279.3735549930716,4.0,1.0,part_1,,,,,,,,,,,,,white,square
345.0,2.0,2.0,0.0,3.0,3.0,288.9182509970851,4.0,1.0,part_1,,,,,,,,,,,,,blue,diamond
0.0,3.0,0.0,0.0,2.0,2.0,327.9934260062873,4.0,1.0,part_1,,,,,,,,,,,,,yellow,cross
143.0,1.0,1.0,0.0,4.0,4.0,297.7523529989412,4.0,1.0,part_1,,,,,,,,,,,,,magenta,circle
0.0,5.0,0.0,1.0,2.0,2.0,327.1714839938795,4.0,1.0,part_1,,,,,,,,,,,,,cyan,flipped triangle
664.0,7.0,3.0,1.0,4.0,4.0,269.668279986945,4.0,1.0,part_1,,,,,,,,,,,,,orange,triangle
1316.0,8.0,4.0,1.0,4.0,4.0,280.3524069895502,4.0,1.0,part_1,,,,,,,,,,,,,green,hexagon
1276.0,4.0,4.0,0.0,1.0,1.0,334.0738420083653,4.0,1.0,part_1,,,,,,,,,,,,,white,square
154.0,5.0,1.0,1.0,4.0,4.0,280.0502639875049,4.0,1.0,part_1,,,,,,,,,,,,,cyan,flipped triangle
1311.0,4.0,4.0,0.0,2.0,2.0,299.3170879926765,4.0,1.0,part_1,,,,,,,,,,,,,white,square
1297.0,8.0,4.0,1.0,3.0,3.0,325.3381960093975,4.0,2.0,part_1,,,,,,,,,,,,,green,hexagon
165.0,1.0,1.0,0.0,4.0,4.0,317.672222998226,4.0,1.0,part_1,,,,,,,,,,,,,magenta,circle
0.0,8.0,0.0,1.0,4.0,4.0,307.3559709882829,4.0,1.0,part_1,,,,,,,,,,,,,green,hexagon
1322.0,8.0,4.0,1.0,3.0,3.0,288.245789008215,4.0,1.0,part_1,,,,,,,,,,,,,green,hexagon
1301.0,4.0,4.0,0.0,2.0,2.0,363.2273489929503,4.0,1.0,part_1,,,,,,,,,,,,,white,square
1295.0,8.0,4.0,1.0,4.0,4.0,288.1212789943674,4.0,1.0,part_1,,,,,,,,,,,,,green,hexagon
141.0,1.0,1.0,0.0,2.0,2.0,316.284699991229,4.0,1.0,part_1,,,,,,,,,,,,,magenta,circle
349.0,6.0,2.0,1.0,4.0,4.0,289.0067450061906,4.0,1.0,part_1,,,,,,,,,,,,,gray,I
1282.0,8.0,4.0,1.0,1.0,1.0,412.3623269988457,4.0,1.0,part_1,,,,,,,,,,,,,green,hexagon
173.0,1.0,1.0,0.0,2.0,2.0,362.0583759911824,4.0,1.0,part_1,,,,,,,,,,,,,magenta,circle
669.0,3.0,3.0,0.0,2.0,2.0,325.8120109967422,4.0,1.0,part_1,,,,,,,,,,,,,yellow,cross
0.0,6.0,0.0,1.0,3.0,3.0,297.5713040068513,4.0,1.0,part_1,,,,,,,,,,,,,gray,I
1291.0,8.0,4.0,1.0,3.0,3.0,308.3670569903916,4.0,1.0,part_1,,,,,,,,,,,,,green,hexagon
670.0,3.0,3.0,0.0,3.0,3.0,289.2176290042698,4.0,1.0,part_1,,,,,,,,,,,,,yellow,cross
658.0,3.0,3.0,0.0,1.0,1.0,344.4725139997899,4.0,1.0,part_1,,,,,,,,,,,,,yellow,cross
328.0,2.0,2.0,0.0,1.0,1.0,314.0514489932684,4.0,1.0,part_1,,,,,,,,,,,,,blue,diamond
303.0,6.0,2.0,1.0,4.0,4.0,327.3487380065489,4.0,1.0,part_1,,,,,,,,,,,,,gray,I
1282.0,8.0,4.0,1.0,4.0,4.0,250.8140769932652,4.0,1.0,part_1,,,,,,,,,,,,,green,hexagon
1282.0,4.0,4.0,0.0,4.0,4.0,269.6983989881119,4.0,1.0,part_1,,,,,,,,,,,,,white,square
672.0,3.0,3.0,0.0,2.0,2.0,298.1603200023528,4.0,1.0,part_1,,,,,,,,,,,,,yellow,cross
0.0,2.0,0.0,0.0,4.0,4.0,271.0535330115817,4.0,1.0,part_1,,,,,,,,,,,,,blue,diamond
345.0,2.0,2.0,0.0,2.0,2.0,316.533518009237,4.0,2.0,part_1,,,,,,,,,,,,,blue,diamond
1322.0,8.0,4.0,1.0,2.0,2.0,326.3207290001446,4.0,1.0,part_1,,,,,,,,,,,,,green,hexagon
338.0,2.0,2.0,0.0,3.0,3.0,317.3858120135264,4.0,1.0,part_1,,,,,,,,,,,,,blue,diamond
633.0,3.0,3.0,0.0,1.0,1.0,298.3807910059113,4.0,1.0,part_1,,,,,,,,,,,,,yellow,cross
145.0,1.0,1.0,0.0,3.0,3.0,307.622722000815,4.0,1.0,part_1,,,,,,,,,,,,,magenta,circle
314.0,2.0,2.0,0.0,1.0,1.0,353.7790479895193,4.0,1.0,part_1,,,,,,,,,,,,,blue,diamond
0.0,5.0,0.0,1.0,2.0,2.0,317.4126859958051,4.0,1.0,part_1,,,,,,,,,,,,,cyan,flipped triangle
643.0,3.0,3.0,0.0,1.0,1.0,334.6417940047104,4.0,1.0,part_1,,,,,,,,,,,,,yellow,cross
1316.0,8.0,4.0,1.0,3.0,3.0,289.8114199924748,4.0,1.0,part_1,,,,,,,,,,,,,green,hexagon
1322.0,4.0,4.0,0.0,1.0,1.0,316.4377040084218,4.0,1.0,part_1,,,,,,,,,,,,,white,square
1294.0,8.0,4.0,1.0,3.0,3.0,289.5363269926747,4.0,1.0,part_1,,,,,,,,,,,,,green,hexagon
143.0,5.0,1.0,1.0,4.0,4.0,362.8201110113878,4.0,1.0,part_1,,,,,,,,,,,,,cyan,flipped triangle
1313.0,4.0,4.0,0.0,3.0,3.0,298.8123230024939,4.0,1.0,part_1,,,,,,,,,,,,,white,square
0.0,4.0,0.0,0.0,1.0,1.0,335.0413479929557,4.0,1.0,part_1,,,,,,,,,,,,,white,square
185.0,1.0,1.0,0.0,1.0,1.0,325.4743720026454,4.0,1.0,part_1,,,,,,,,,,,,,magenta,circle
328.0,6.0,2.0,1.0,3.0,3.0,297.2522560012294,4.0,1.0,part_1,,,,,,,,,,,,,gray,I
176.0,5.0,1.0,1.0,2.0,2.0,352.9328650038223,4.0,1.0,part_1,,,,,,,,,,,,,cyan,flipped triangle
637.0,3.0,3.0,0.0,2.0,2.0,305.6891369924415,4.0,1.0,part_1,,,,,,,,,,,,,yellow,cross
338.0,2.0,2.0,0.0,1.0,1.0,363.1936160090845,4.0,1.0,part_1,,,,,,,,,,,,,blue,diamond
1296.0,4.0,4.0,0.0,4.0,4.0,288.099441997474,4.0,1.0,part_1,,,,,,,,,,,,,white,square
0.0,2.0,0.0,0.0,1.0,1.0,344.9951060028979,4.0,2.0,part_1,,,,,,,,,,,,,blue,diamond
0.0,6.0,0.0,1.0,1.0,1.0,337.4527220003074,4.0,1.0,part_1,,,,,,,,,,,,,gray,I
332.0,6.0,2.0,1.0,1.0,1.0,356.2464309943607,4.0,1.0,part_1,,,,,,,,,,,,,gray,I
345.0,6.0,2.0,1.0,2.0,2.0,362.1089660009602,4.0,1.0,part_1,,,,,,,,,,,,,gray,I
658.0,7.0,3.0,1.0,2.0,2.0,344.046525991871,4.0,1.0,part_1,,,,,,,,,,,,,orange,triangle
338.0,6.0,2.0,1.0,2.0,2.0,344.7062760096742,4.0,1.0,part_1,,,,,,,,,,,,,gray,I
1303.0,8.0,4.0,1.0,2.0,2.0,305.6666229967959,4.0,1.0,part_1,,,,,,,,,,,,,green,hexagon
0.0,3.0,0.0,0.0,3.0,3.0,334.3778499984182,4.0,1.0,part_1,,,,,,,,,,,,,yellow,cross
1313.0,8.0,4.0,1.0,3.0,3.0,334.1109729954041,4.0,1.0,part_1,,,,,,,,,,,,,green,hexagon
155.0,5.0,1.0,1.0,3.0,3.0,307.9247669957112,4.0,1.0,part_1,,,,,,,,,,,,,cyan,flipped triangle
662.0,7.0,3.0,1.0,1.0,1.0,353.5196260054363,4.0,1.0,part_1,,,,,,,,,,,,,orange,triangle
341.0,2.0,2.0,0.0,4.0,4.0,336.3613379915477,4.0,1.0,part_1,,,,,,,,,,,,,blue,diamond
1324.0,4.0,4.0,0.0,4.0,4.0,299.5133859949419,4.0,1.0,part_1,,,,,,,,,,,,,white,square
1302.0,8.0,4.0,1.0,4.0,4.0,317.681211992749,4.0,1.0,part_1,,,,,,,,,,,,,green,hexagon
330.0,2.0,2.0,0.0,4.0,4.0,307.1011430001817,4.0,1.0,part_1,,,,,,,,,,,,,blue,diamond
303.0,2.0,2.0,0.0,3.0,3.0,324.2182170070009,4.0,1.0,part_1,,,,,,,,,,,,,blue,diamond
0.0,5.0,0.0,1.0,4.0,4.0,352.907847991446,4.0,1.0,part_1,,,,,,,,,,,,,cyan,flipped triangle
182.0,5.0,1.0,1.0,1.0,1.0,435.3762209939305,4.0,1.0,part_1,,,,,,,,,,,,,cyan,flipped triangle
178.0,5.0,1.0,1.0,1.0,1.0,389.9767539987806,4.0,1.0,part_1,,,,,,,,,,,,,cyan,flipped triangle
0.0,4.0,0.0,0.0,1.0,1.0,344.573511989438,4.0,1.0,part_1,,,,,,,,,,,,,white,square
324.0,6.0,2.0,1.0,4.0,4.0,334.9930770054925,4.0,1.0,part_1,,,,,,,,,,,,,gray,I
308.0,2.0,2.0,0.0,1.0,1.0,343.3804320084164,4.0,1.0,part_1,,,,,,,,,,,,,blue,diamond
1286.0,8.0,4.0,1.0,1.0,1.0,334.1475670022191,4.0,1.0,part_1,,,,,,,,,,,,,green,hexagon
1276.0,8.0,4.0,1.0,2.0,2.0,361.9602359976852,4.0,1.0,part_1,,,,,,,,,,,,,green,hexagon
0.0,4.0,0.0,0.0,2.0,2.0,335.2107399987289,4.0,1.0,part_1,,,,,,,,,,,,,white,square
645.0,3.0,3.0,0.0,3.0,3.0,361.1717000021599,4.0,1.0,part_1,,,,,,,,,,,,,yellow,cross
176.0,5.0,1.0,1.0,4.0,4.0,362.3086239967961,4.0,1.0,part_1,,,,,,,,,,,,,cyan,flipped triangle
0.0,2.0,0.0,0.0,3.0,3.0,315.7801550114527,4.0,1.0,part_1,,,,,,,,,,,,,blue,diamond
0.0,4.0,4.0,0.0,6.0,6.0,428.1909760029521,1.0,0.0,part_2,go,250.0,250.0,1.0,,,,,,,,,white,square
0.0,8.0,4.0,1.0,5.0,0.0,0.0,1.0,0.0,part_2,stop,250.0,250.0,4.0,,,,,,,,,green,hexagon
0.0,3.0,3.0,0.0,6.0,6.0,318.2796190085355,1.0,0.0,part_2,go,300.0,250.0,1.0,,,,,,,,,yellow,cross
0.0,5.0,1.0,1.0,6.0,0.0,0.0,1.0,0.0,part_2,stop,300.0,250.0,4.0,,,,,,,,,cyan,flipped triangle
0.0,7.0,3.0,1.0,6.0,0.0,0.0,1.0,0.0,part_2,stop,300.0,300.0,4.0,,,,,,,,,orange,triangle
0.0,2.0,2.0,0.0,5.0,5.0,486.5598369942745,1.0,0.0,part_2,go,300.0,350.0,1.0,,,,,,,,,blue,diamond
0.0,3.0,3.0,0.0,5.0,5.0,496.3879040005849,1.0,0.0,part_2,go,300.0,350.0,1.0,,,,,,,,,yellow,cross
0.0,2.0,2.0,0.0,5.0,5.0,654.7144740034128,1.0,0.0,part_2,go,300.0,350.0,1.0,,,,,,,,,blue,diamond
0.0,2.0,2.0,0.0,6.0,6.0,739.5419509994099,1.0,0.0,part_2,go,300.0,350.0,1.0,,,,,,,,,blue,diamond
0.0,5.0,1.0,1.0,5.0,0.0,0.0,1.0,0.0,part_2,stop,300.0,350.0,4.0,,,,,,,,,cyan,flipped triangle
0.0,1.0,1.0,0.0,6.0,6.0,524.0045030077454,1.0,0.0,part_2,go,350.0,350.0,1.0,,,,,,,,,magenta,circle
0.0,5.0,1.0,1.0,6.0,6.0,409.6510410017799,1.0,0.0,part_2,stop,350.0,350.0,3.0,,,,,,,,,cyan,flipped triangle
0.0,4.0,4.0,0.0,5.0,5.0,665.7364199927542,1.0,0.0,part_2,go,350.0,300.0,1.0,,,,,,,,,white,square
0.0,1.0,1.0,0.0,5.0,5.0,448.6071370047284,1.0,0.0,part_2,go,350.0,300.0,1.0,,,,,,,,,magenta,circle
0.0,8.0,4.0,1.0,6.0,6.0,588.8400429976173,1.0,0.0,part_2,go,350.0,300.0,1.0,,,,,,,,,green,hexagon
0.0,7.0,3.0,1.0,5.0,0.0,0.0,1.0,0.0,part_2,stop,350.0,300.0,4.0,,,,,,,,,orange,triangle
0.0,7.0,3.0,1.0,6.0,6.0,539.2388439940987,1.0,0.0,part_2,stop,400.0,300.0,3.0,,,,,,,,,orange,triangle
0.0,2.0,2.0,0.0,6.0,6.0,564.2589229973964,1.0,0.0,part_2,go,400.0,250.0,1.0,,,,,,,,,blue,diamond
0.0,2.0,2.0,0.0,5.0,5.0,403.0303079925943,1.0,0.0,part_2,go,400.0,250.0,1.0,,,,,,,,,blue,diamond
0.0,2.0,2.0,0.0,6.0,6.0,581.2219960062066,1.0,0.0,part_2,go,400.0,250.0,1.0,,,,,,,,,blue,diamond
0.0,5.0,1.0,1.0,5.0,5.0,664.1945699957432,1.0,0.0,part_2,go,400.0,250.0,1.0,,,,,,,,,cyan,flipped triangle
0.0,6.0,2.0,1.0,5.0,5.0,686.3434949918883,1.0,0.0,part_2,go,400.0,250.0,1.0,,,,,,,,,gray,I
0.0,6.0,2.0,1.0,6.0,0.0,0.0,1.0,0.0,part_2,stop,400.0,250.0,4.0,,,,,,,,,gray,I
0.0,1.0,1.0,0.0,5.0,5.0,608.2043839996913,1.0,0.0,part_2,go,400.0,300.0,1.0,,,,,,,,,magenta,circle
0.0,1.0,1.0,0.0,6.0,6.0,607.8332029865123,1.0,0.0,part_2,go,400.0,300.0,1.0,,,,,,,,,magenta,circle
0.0,8.0,4.0,1.0,6.0,6.0,590.5543970002327,1.0,0.0,part_2,go,400.0,300.0,1.0,,,,,,,,,green,hexagon
0.0,6.0,2.0,1.0,6.0,6.0,543.9476309984457,1.0,0.0,part_2,go,400.0,300.0,1.0,,,,,,,,,gray,I
0.0,2.0,2.0,0.0,5.0,5.0,531.6106849932112,1.0,0.0,part_2,go,400.0,300.0,1.0,,,,,,,,,blue,diamond
0.0,5.0,1.0,1.0,5.0,5.0,446.6411419998621,1.0,0.0,part_2,stop,400.0,300.0,3.0,,,,,,,,,cyan,flipped triangle
0.0,6.0,2.0,1.0,6.0,0.0,0.0,1.0,0.0,part_2,stop,350.0,300.0,4.0,,,,,,,,,gray,I
0.0,1.0,1.0,0.0,5.0,5.0,768.3345050027128,1.0,0.0,part_2,go,350.0,350.0,1.0,,,,,,,,,magenta,circle
0.0,1.0,1.0,0.0,6.0,6.0,664.0782640024554,1.0,0.0,part_2,go,350.0,350.0,1.0,,,,,,,,,magenta,circle
0.0,8.0,4.0,1.0,5.0,0.0,0.0,1.0,0.0,part_2,stop,350.0,350.0,4.0,,,,,,,,,green,hexagon
0.0,8.0,4.0,1.0,5.0,0.0,0.0,1.0,0.0,part_2,stop,400.0,350.0,4.0,,,,,,,,,green,hexagon
0.0,5.0,1.0,1.0,6.0,0.0,0.0,1.0,0.0,part_2,stop,450.0,350.0,4.0,,,,,,,,,cyan,flipped triangle
0.0,3.0,3.0,0.0,6.0,6.0,645.9149790025549,1.0,0.0,part_2,go,450.0,400.0,1.0,,,,,,,,,yellow,cross
0.0,5.0,1.0,1.0,6.0,0.0,0.0,2.0,0.0,part_2,stop,450.0,400.0,4.0,,,,,,,,,cyan,flipped triangle
0.0,2.0,2.0,0.0,5.0,5.0,527.7678150014253,2.0,0.0,part_2,go,450.0,450.0,1.0,,,,,,,,,blue,diamond
0.0,4.0,4.0,0.0,6.0,6.0,702.9193930065958,2.0,0.0,part_2,go,450.0,450.0,1.0,,,,,,,,,white,square
0.0,3.0,3.0,0.0,6.0,6.0,487.4245559913106,2.0,0.0,part_2,go,450.0,450.0,1.0,,,,,,,,,yellow,cross
0.0,8.0,4.0,1.0,5.0,5.0,329.5006560074398,2.0,0.0,part_2,stop,450.0,450.0,3.0,,,,,,,,,green,hexagon
0.0,2.0,2.0,0.0,6.0,6.0,618.6217979993671,2.0,0.0,part_2,go,400.0,450.0,1.0,,,,,,,,,blue,diamond
0.0,6.0,2.0,1.0,6.0,6.0,541.384908996406,2.0,0.0,part_2,stop,400.0,450.0,3.0,,,,,,,,,gray,I
0.0,6.0,2.0,1.0,5.0,0.0,0.0,2.0,0.0,part_2,stop,400.0,400.0,4.0,,,,,,,,,gray,I
0.0,3.0,3.0,0.0,5.0,5.0,695.1072340016253,2.0,0.0,part_2,go,450.0,400.0,1.0,,,,,,,,,yellow,cross
0.0,2.0,2.0,0.0,5.0,5.0,505.2865089965053,2.0,0.0,part_2,go,450.0,400.0,1.0,,,,,,,,,blue,diamond
0.0,7.0,3.0,1.0,6.0,6.0,693.8644680049038,2.0,0.0,part_2,go,450.0,400.0,1.0,,,,,,,,,orange,triangle
0.0,8.0,4.0,1.0,5.0,5.0,599.3141479993938,2.0,0.0,part_2,go,450.0,400.0,1.0,,,,,,,,,green,hexagon
0.0,5.0,1.0,1.0,6.0,0.0,0.0,2.0,0.0,part_2,stop,450.0,400.0,4.0,,,,,,,,,cyan,flipped triangle
0.0,4.0,4.0,0.0,6.0,6.0,572.1111809980357,2.0,0.0,part_2,go,450.0,450.0,1.0,,,,,,,,,white,square
0.0,5.0,1.0,1.0,5.0,0.0,0.0,2.0,0.0,part_2,stop,450.0,450.0,4.0,,,,,,,,,cyan,flipped triangle
0.0,4.0,4.0,0.0,5.0,5.0,599.842305004131,2.0,0.0,part_2,go,500.0,450.0,1.0,,,,,,,,,white,square
0.0,6.0,2.0,1.0,5.0,5.0,695.2743979927618,2.0,0.0,part_2,go,500.0,450.0,1.0,,,,,,,,,gray,I
0.0,1.0,1.0,0.0,6.0,6.0,525.9221929882187,2.0,0.0,part_2,go,500.0,450.0,1.0,,,,,,,,,magenta,circle
0.0,4.0,4.0,0.0,6.0,6.0,356.2740939960349,2.0,0.0,part_2,go,500.0,450.0,1.0,,,,,,,,,white,square
0.0,7.0,3.0,1.0,6.0,0.0,0.0,2.0,0.0,part_2,stop,500.0,450.0,4.0,,,,,,,,,orange,triangle
0.0,7.0,3.0,1.0,6.0,6.0,609.9095349927666,2.0,0.0,part_2,stop,500.0,500.0,3.0,,,,,,,,,orange,triangle
0.0,4.0,4.0,0.0,5.0,5.0,730.6236570002511,2.0,0.0,part_2,go,500.0,450.0,1.0,,,,,,,,,white,square
0.0,6.0,2.0,1.0,6.0,0.0,0.0,2.0,0.0,part_2,stop,500.0,450.0,4.0,,,,,,,,,gray,I
0.0,8.0,4.0,1.0,5.0,5.0,698.2765459979419,2.0,0.0,part_2,stop,500.0,500.0,3.0,,,,,,,,,green,hexagon
0.0,6.0,2.0,1.0,6.0,0.0,0.0,2.0,0.0,part_2,stop,450.0,500.0,4.0,,,,,,,,,gray,I
0.0,3.0,3.0,0.0,6.0,6.0,665.9242929890752,2.0,0.0,part_2,go,450.0,550.0,1.0,,,,,,,,,yellow,cross
0.0,2.0,2.0,0.0,5.0,5.0,747.5881279970054,2.0,0.0,part_2,go,450.0,550.0,1.0,,,,,,,,,blue,diamond
0.0,4.0,4.0,0.0,5.0,5.0,936.793034998118,2.0,0.0,part_2,go,450.0,550.0,1.0,,,,,,,,,white,square
0.0,7.0,3.0,1.0,6.0,0.0,0.0,2.0,0.0,part_2,stop,450.0,550.0,4.0,,,,,,,,,orange,triangle
0.0,7.0,3.0,1.0,5.0,5.0,863.421094007208,2.0,0.0,part_2,go,450.0,600.0,1.0,,,,,,,,,orange,triangle
0.0,8.0,4.0,1.0,6.0,6.0,675.3665499854833,2.0,0.0,part_2,go,450.0,600.0,1.0,,,,,,,,,green,hexagon
0.0,2.0,2.0,0.0,6.0,6.0,683.5186079988489,2.0,0.0,part_2,go,450.0,600.0,1.0,,,,,,,,,blue,diamond
0.0,3.0,3.0,0.0,6.0,6.0,571.0407290025614,2.0,0.0,part_2,go,450.0,600.0,1.0,,,,,,,,,yellow,cross
0.0,1.0,1.0,0.0,6.0,6.0,478.6551629949827,2.0,0.0,part_2,go,450.0,600.0,1.0,,,,,,,,,magenta,circle
0.0,8.0,4.0,1.0,6.0,0.0,0.0,2.0,0.0,part_2,stop,450.0,600.0,4.0,,,,,,,,,green,hexagon
0.0,7.0,3.0,1.0,6.0,0.0,0.0,2.0,0.0,part_2,stop,450.0,650.0,4.0,,,,,,,,,orange,triangle
0.0,1.0,1.0,0.0,5.0,5.0,544.2116989870556,3.0,0.0,part_2,go,450.0,700.0,1.0,,,,,,,,,magenta,circle
0.0,3.0,3.0,0.0,5.0,5.0,412.3078859993256,3.0,0.0,part_2,go,450.0,700.0,1.0,,,,,,,,,yellow,cross
0.0,8.0,4.0,1.0,6.0,6.0,421.3605289987754,3.0,0.0,part_2,go,450.0,700.0,1.0,,,,,,,,,green,hexagon
0.0,4.0,4.0,0.0,6.0,6.0,712.6473359967349,3.0,0.0,part_2,go,450.0,700.0,1.0,,,,,,,,,white,square
0.0,6.0,2.0,1.0,5.0,5.0,741.4379730034852,3.0,0.0,part_2,go,450.0,700.0,1.0,,,,,,,,,gray,I
0.0,5.0,1.0,1.0,6.0,6.0,695.2610000007553,3.0,0.0,part_2,stop,450.0,700.0,3.0,,,,,,,,,cyan,flipped triangle
0.0,2.0,2.0,0.0,5.0,5.0,890.6036130065331,3.0,0.0,part_2,go,450.0,650.0,1.0,,,,,,,,,blue,diamond
0.0,6.0,2.0,1.0,5.0,5.0,376.9395150011405,3.0,0.0,part_2,stop,450.0,650.0,3.0,,,,,,,,,gray,I
0.0,5.0,1.0,1.0,6.0,6.0,801.9851040007779,3.0,0.0,part_2,stop,400.0,650.0,3.0,,,,,,,,,cyan,flipped triangle
0.0,4.0,4.0,0.0,6.0,6.0,525.9165080060484,3.0,0.0,part_2,go,400.0,600.0,1.0,,,,,,,,,white,square
0.0,8.0,4.0,1.0,5.0,0.0,0.0,3.0,0.0,part_2,stop,400.0,600.0,4.0,,,,,,,,,green,hexagon
0.0,4.0,4.0,0.0,6.0,6.0,694.2220169876236,3.0,0.0,part_2,go,450.0,600.0,1.0,,,,,,,,,white,square
0.0,5.0,1.0,1.0,6.0,6.0,890.805488001206,3.0,0.0,part_2,go,450.0,600.0,1.0,,,,,,,,,cyan,flipped triangle
0.0,3.0,3.0,0.0,6.0,6.0,543.2968019886175,3.0,0.0,part_2,go,450.0,600.0,1.0,,,,,,,,,yellow,cross
0.0,5.0,1.0,1.0,5.0,0.0,0.0,3.0,0.0,part_2,stop,450.0,600.0,4.0,,,,,,,,,cyan,flipped triangle
0.0,2.0,2.0,0.0,6.0,6.0,686.1872110021068,3.0,0.0,part_2,go,500.0,600.0,1.0,,,,,,,,,blue,diamond
0.0,7.0,3.0,1.0,6.0,6.0,562.2353540093172,3.0,0.0,part_2,stop,500.0,600.0,3.0,,,,,,,,,orange,triangle
0.0,1.0,1.0,0.0,6.0,6.0,956.899180993787,3.0,0.0,part_2,go,500.0,550.0,1.0,,,,,,,,,magenta,circle
0.0,4.0,4.0,0.0,5.0,5.0,805.6159120023949,3.0,0.0,part_2,go,500.0,550.0,1.0,,,,,,,,,white,square
0.0,5.0,1.0,1.0,5.0,5.0,732.9478409956209,3.0,0.0,part_2,go,500.0,550.0,1.0,,,,,,,,,cyan,flipped triangle
0.0,2.0,2.0,0.0,5.0,5.0,639.6506159944693,3.0,0.0,part_2,go,500.0,550.0,1.0,,,,,,,,,blue,diamond
0.0,7.0,3.0,1.0,6.0,0.0,0.0,3.0,0.0,part_2,stop,500.0,550.0,4.0,,,,,,,,,orange,triangle
0.0,1.0,1.0,0.0,6.0,6.0,966.5645880013471,3.0,0.0,part_2,go,500.0,600.0,1.0,,,,,,,,,magenta,circle
0.0,5.0,1.0,1.0,5.0,5.0,926.5262889966834,3.0,0.0,part_2,go,500.0,600.0,1.0,,,,,,,,,cyan,flipped triangle
0.0,2.0,2.0,0.0,6.0,6.0,534.3882779998239,3.0,0.0,part_2,go,500.0,600.0,1.0,,,,,,,,,blue,diamond
0.0,4.0,4.0,0.0,5.0,5.0,571.9436360086547,3.0,0.0,part_2,go,500.0,600.0,1.0,,,,,,,,,white,square
0.0,6.0,2.0,1.0,6.0,6.0,290.2700220001861,3.0,0.0,part_2,go,500.0,600.0,1.0,,,,,,,,,gray,I
0.0,6.0,2.0,1.0,6.0,6.0,328.1390969932545,3.0,0.0,part_2,stop,500.0,600.0,3.0,,,,,,,,,gray,I
0.0,1.0,1.0,0.0,5.0,5.0,590.2127700101119,3.0,0.0,part_2,go,500.0,550.0,1.0,,,,,,,,,magenta,circle
0.0,5.0,1.0,1.0,6.0,6.0,601.1503820045618,3.0,0.0,part_2,stop,500.0,550.0,3.0,,,,,,,,,cyan,flipped triangle
0.0,3.0,3.0,0.0,5.0,5.0,815.349739001249,3.0,0.0,part_2,go,500.0,500.0,1.0,,,,,,,,,yellow,cross
0.0,7.0,3.0,1.0,5.0,5.0,805.0454549957067,3.0,0.0,part_2,go,500.0,500.0,1.0,,,,,,,,,orange,triangle
0.0,2.0,2.0,0.0,6.0,6.0,853.5708940034965,3.0,0.0,part_2,go,500.0,500.0,1.0,,,,,,,,,blue,diamond
0.0,2.0,2.0,0.0,6.0,6.0,928.4673789952648,3.0,0.0,part_2,go,500.0,500.0,1.0,,,,,,,,,blue,diamond
0.0,3.0,3.0,0.0,5.0,5.0,758.6551559943473,3.0,0.0,part_2,go,500.0,500.0,1.0,,,,,,,,,yellow,cross
0.0,1.0,1.0,0.0,6.0,6.0,929.2414919909788,3.0,0.0,part_2,go,500.0,500.0,1.0,,,,,,,,,magenta,circle
0.0,8.0,4.0,1.0,5.0,5.0,347.3515610094182,4.0,0.0,part_2,stop,500.0,500.0,3.0,,,,,,,,,green,hexagon
0.0,2.0,2.0,0.0,5.0,5.0,310.2916900097625,4.0,0.0,part_2,go,450.0,500.0,1.0,,,,,,,,,blue,diamond
0.0,8.0,4.0,1.0,5.0,5.0,301.0451430018293,4.0,0.0,part_2,stop,450.0,500.0,3.0,,,,,,,,,green,hexagon
0.0,6.0,2.0,1.0,6.0,6.0,300.7269289955729,4.0,0.0,part_2,stop,400.0,500.0,3.0,,,,,,,,,gray,I
0.0,8.0,4.0,1.0,5.0,5.0,263.1639069877565,4.0,0.0,part_2,stop,400.0,450.0,3.0,,,,,,,,,green,hexagon
0.0,3.0,3.0,0.0,5.0,5.0,486.5864809980849,4.0,0.0,part_2,go,350.0,450.0,1.0,,,,,,,,,yellow,cross
0.0,3.0,3.0,0.0,6.0,6.0,299.9422109860461,4.0,0.0,part_2,go,350.0,450.0,1.0,,,,,,,,,yellow,cross
0.0,8.0,4.0,1.0,6.0,6.0,292.7430229901802,4.0,0.0,part_2,stop,350.0,450.0,3.0,,,,,,,,,green,hexagon
0.0,3.0,3.0,0.0,5.0,5.0,290.7290539878886,4.0,0.0,part_2,go,350.0,400.0,1.0,,,,,,,,,yellow,cross
0.0,1.0,1.0,0.0,5.0,5.0,291.1181689996738,4.0,0.0,part_2,go,350.0,400.0,1.0,,,,,,,,,magenta,circle
0.0,4.0,4.0,0.0,5.0,5.0,300.2614919969346,4.0,0.0,part_2,go,350.0,400.0,1.0,,,,,,,,,white,square
0.0,7.0,3.0,1.0,5.0,5.0,471.8565930088516,4.0,0.0,part_2,stop,350.0,400.0,3.0,,,,,,,,,orange,triangle
0.0,4.0,4.0,0.0,6.0,6.0,497.0755050017033,4.0,0.0,part_2,go,300.0,400.0,1.0,,,,,,,,,white,square
0.0,8.0,4.0,1.0,5.0,0.0,0.0,4.0,0.0,part_2,stop,300.0,400.0,4.0,,,,,,,,,green,hexagon
0.0,5.0,1.0,1.0,6.0,6.0,543.9294440002413,4.0,0.0,part_2,go,350.0,400.0,1.0,,,,,,,,,cyan,flipped triangle
0.0,1.0,1.0,0.0,5.0,5.0,591.3287330040475,4.0,0.0,part_2,go,350.0,400.0,1.0,,,,,,,,,magenta,circle
0.0,7.0,3.0,1.0,5.0,5.0,512.7161069976864,4.0,0.0,part_2,stop,350.0,400.0,3.0,,,,,,,,,orange,triangle
0.0,3.0,3.0,0.0,6.0,6.0,468.5376650013495,4.0,0.0,part_2,go,300.0,400.0,1.0,,,,,,,,,yellow,cross
0.0,4.0,4.0,0.0,6.0,6.0,477.1582419925835,4.0,0.0,part_2,go,300.0,400.0,1.0,,,,,,,,,white,square
0.0,1.0,1.0,0.0,5.0,5.0,534.2676040017977,4.0,0.0,part_2,go,300.0,400.0,1.0,,,,,,,,,magenta,circle
0.0,8.0,4.0,1.0,5.0,5.0,370.9056079969741,4.0,0.0,part_2,stop,300.0,400.0,3.0,,,,,,,,,green,hexagon
0.0,3.0,3.0,0.0,5.0,5.0,600.8901219902327,4.0,0.0,part_2,go,250.0,400.0,1.0,,,,,,,,,yellow,cross
0.0,3.0,3.0,0.0,5.0,5.0,571.270849002758,4.0,0.0,part_2,go,250.0,400.0,1.0,,,,,,,,,yellow,cross
0.0,3.0,3.0,0.0,5.0,5.0,676.6667409974616,4.0,0.0,part_2,go,250.0,400.0,1.0,,,,,,,,,yellow,cross
0.0,1.0,1.0,0.0,5.0,5.0,785.455773002468,4.0,0.0,part_2,go,250.0,400.0,1.0,,,,,,,,,magenta,circle
0.0,2.0,2.0,0.0,6.0,6.0,776.6657319880323,4.0,0.0,part_2,go,250.0,400.0,1.0,,,,,,,,,blue,diamond
0.0,4.0,4.0,0.0,5.0,5.0,581.9806780054932,4.0,0.0,part_2,go,250.0,400.0,1.0,,,,,,,,,white,square
0.0,2.0,2.0,0.0,6.0,6.0,336.5826799999922,4.0,0.0,part_2,go,250.0,400.0,1.0,,,,,,,,,blue,diamond
0.0,2.0,2.0,0.0,6.0,6.0,618.4104260028107,4.0,0.0,part_2,go,250.0,400.0,1.0,,,,,,,,,blue,diamond
0.0,7.0,3.0,1.0,5.0,0.0,0.0,4.0,0.0,part_2,stop,250.0,400.0,4.0,,,,,,,,,orange,triangle
0.0,4.0,4.0,0.0,5.0,5.0,601.1806439928478,4.0,0.0,part_2,go,300.0,400.0,1.0,,,,,,,,,white,square
0.0,5.0,1.0,1.0,6.0,6.0,299.62115699891,4.0,0.0,part_2,stop,300.0,400.0,3.0,,,,,,,,,cyan,flipped triangle
0.0,7.0,3.0,1.0,5.0,0.0,0.0,4.0,0.0,part_2,stop,300.0,350.0,4.0,,,,,,,,,orange,triangle
0.0,1.0,1.0,0.0,6.0,6.0,572.8105649905046,4.0,0.0,part_2,go,350.0,350.0,1.0,,,,,,,,,magenta,circle
0.0,6.0,2.0,1.0,5.0,5.0,405.0248300045496,4.0,0.0,part_2,stop,350.0,350.0,3.0,,,,,,,,,gray,I
0.0,7.0,3.0,1.0,6.0,6.0,528.4577699931106,4.0,0.0,part_2,stop,300.0,350.0,3.0,,,,,,,,,orange,triangle
0.0,4.0,4.0,0.0,5.0,5.0,554.1887659928761,5.0,0.0,part_2,go,300.0,300.0,1.0,,,,,,,,,white,square
0.0,3.0,3.0,0.0,5.0,5.0,302.3572179954499,5.0,0.0,part_2,go,300.0,300.0,1.0,,,,,,,,,yellow,cross
0.0,5.0,1.0,1.0,5.0,5.0,291.144709000946,5.0,0.0,part_2,stop,300.0,300.0,3.0,,,,,,,,,cyan,flipped triangle
0.0,3.0,3.0,0.0,6.0,6.0,581.4490129996557,5.0,0.0,part_2,go,250.0,300.0,1.0,,,,,,,,,yellow,cross
0.0,7.0,3.0,1.0,5.0,5.0,328.9538609969895,5.0,0.0,part_2,go,250.0,300.0,1.0,,,,,,,,,orange,triangle
0.0,1.0,1.0,0.0,5.0,5.0,386.304558996926,5.0,0.0,part_2,go,250.0,300.0,1.0,,,,,,,,,magenta,circle
0.0,3.0,3.0,0.0,5.0,5.0,467.5067330099409,5.0,0.0,part_2,go,250.0,300.0,1.0,,,,,,,,,yellow,cross
0.0,8.0,4.0,1.0,6.0,6.0,374.714760997449,5.0,0.0,part_2,go,250.0,300.0,1.0,,,,,,,,,green,hexagon
0.0,6.0,2.0,1.0,6.0,6.0,366.126886990969,5.0,0.0,part_2,stop,250.0,300.0,3.0,,,,,,,,,gray,I
0.0,3.0,3.0,0.0,6.0,6.0,478.3150909934193,5.0,0.0,part_2,go,250.0,250.0,1.0,,,,,,,,,yellow,cross
0.0,3.0,3.0,0.0,6.0,6.0,310.878958000103,5.0,0.0,part_2,go,250.0,250.0,1.0,,,,,,,,,yellow,cross
0.0,8.0,4.0,1.0,5.0,0.0,0.0,5.0,0.0,part_2,stop,250.0,250.0,4.0,,,,,,,,,green,hexagon
0.0,2.0,2.0,0.0,6.0,6.0,468.2050470000831,5.0,0.0,part_2,go,300.0,250.0,1.0,,,,,,,,,blue,diamond
0.0,3.0,3.0,0.0,5.0,5.0,534.7979439975461,5.0,0.0,part_2,go,300.0,250.0,1.0,,,,,,,,,yellow,cross
0.0,6.0,2.0,1.0,6.0,0.0,0.0,5.0,0.0,part_2,stop,300.0,250.0,4.0,,,,,,,,,gray,I
0.0,8.0,4.0,1.0,5.0,0.0,0.0,5.0,0.0,part_2,stop,300.0,300.0,4.0,,,,,,,,,green,hexagon
0.0,3.0,3.0,0.0,6.0,6.0,373.4418079984607,5.0,0.0,part_2,go,350.0,300.0,1.0,,,,,,,,,yellow,cross
0.0,2.0,2.0,0.0,5.0,5.0,535.2411390049383,5.0,0.0,part_2,go,350.0,300.0,1.0,,,,,,,,,blue,diamond
0.0,4.0,4.0,0.0,5.0,5.0,497.8782959951786,5.0,0.0,part_2,go,350.0,300.0,1.0,,,,,,,,,white,square
0.0,6.0,2.0,1.0,5.0,5.0,396.1834100045962,5.0,0.0,part_2,go,350.0,300.0,1.0,,,,,,,,,gray,I
0.0,3.0,3.0,0.0,5.0,5.0,508.6553599976469,5.0,0.0,part_2,go,350.0,300.0,1.0,,,,,,,,,yellow,cross
0.0,4.0,4.0,0.0,5.0,5.0,348.0592659907415,5.0,0.0,part_2,go,350.0,300.0,1.0,,,,,,,,,white,square
0.0,3.0,3.0,0.0,5.0,5.0,574.3935360078467,5.0,0.0,part_2,go,350.0,300.0,1.0,,,,,,,,,yellow,cross
0.0,2.0,2.0,0.0,5.0,5.0,564.0792639896972,5.0,0.0,part_2,go,350.0,300.0,1.0,,,,,,,,,blue,diamond
0.0,7.0,3.0,1.0,5.0,5.0,657.4257720058085,5.0,0.0,part_2,go,350.0,300.0,1.0,,,,,,,,,orange,triangle
0.0,7.0,3.0,1.0,5.0,0.0,0.0,5.0,0.0,part_2,stop,350.0,300.0,4.0,,,,,,,,,orange,triangle
0.0,2.0,2.0,0.0,6.0,6.0,563.4710660087876,5.0,0.0,part_2,go,400.0,300.0,1.0,,,,,,,,,blue,diamond
0.0,4.0,4.0,0.0,6.0,6.0,440.655610000249,5.0,0.0,part_2,go,400.0,300.0,1.0,,,,,,,,,white,square
0.0,5.0,1.0,1.0,5.0,5.0,482.1945849980693,5.0,0.0,part_2,stop,400.0,300.0,3.0,,,,,,,,,cyan,flipped triangle
0.0,4.0,4.0,0.0,6.0,6.0,508.18047499342356,5.0,0.0,part_2,go,350.0,300.0,1.0,,,,,,,,,white,square
0.0,1.0,1.0,0.0,5.0,5.0,536.2053520075278,5.0,0.0,part_2,go,350.0,300.0,1.0,,,,,,,,,magenta,circle
0.0,8.0,4.0,1.0,5.0,5.0,338.0383629992138,5.0,0.0,part_2,stop,350.0,300.0,3.0,,,,,,,,,green,hexagon
0.0,2.0,2.0,0.0,6.0,6.0,573.4162610024214,5.0,0.0,part_2,go,300.0,300.0,1.0,,,,,,,,,blue,diamond
0.0,5.0,1.0,1.0,5.0,5.0,451.7804979986977,5.0,0.0,part_2,stop,300.0,300.0,3.0,,,,,,,,,cyan,flipped triangle
0.0,1.0,1.0,0.0,5.0,5.0,771.4461499999743,5.0,0.0,part_2,go,250.0,300.0,1.0,,,,,,,,,magenta,circle
0.0,1.0,1.0,0.0,5.0,5.0,753.4369119966868,5.0,0.0,part_2,go,250.0,300.0,1.0,,,,,,,,,magenta,circle
0.0,7.0,3.0,1.0,6.0,0.0,0.0,6.0,0.0,part_2,stop,250.0,300.0,4.0,,,,,,,,,orange,triangle
0.0,6.0,2.0,1.0,5.0,5.0,374.0190000098664,6.0,0.0,part_2,stop,250.0,350.0,3.0,,,,,,,,,gray,I
0.0,4.0,4.0,0.0,5.0,5.0,488.6694430024363,6.0,0.0,part_2,go,200.0,350.0,1.0,,,,,,,,,white,square
0.0,6.0,2.0,1.0,5.0,0.0,0.0,6.0,0.0,part_2,stop,200.0,350.0,4.0,,,,,,,,,gray,I
0.0,6.0,2.0,1.0,6.0,0.0,0.0,6.0,0.0,part_2,stop,250.0,350.0,4.0,,,,,,,,,gray,I
0.0,4.0,4.0,0.0,5.0,5.0,562.9900100029772,6.0,0.0,part_2,go,250.0,400.0,1.0,,,,,,,,,white,square
0.0,5.0,1.0,1.0,5.0,0.0,0.0,6.0,0.0,part_2,stop,250.0,400.0,4.0,,,,,,,,,cyan,flipped triangle
0.0,3.0,3.0,0.0,5.0,5.0,676.8019119917881,6.0,0.0,part_2,go,300.0,400.0,1.0,,,,,,,,,yellow,cross
0.0,4.0,4.0,0.0,5.0,5.0,460.9645630116574,6.0,0.0,part_2,go,300.0,400.0,1.0,,,,,,,,,white,square
0.0,1.0,1.0,0.0,5.0,5.0,508.0514820001554,6.0,0.0,part_2,go,300.0,400.0,1.0,,,,,,,,,magenta,circle
0.0,1.0,1.0,0.0,6.0,6.0,479.6875829924829,6.0,0.0,part_2,go,300.0,400.0,1.0,,,,,,,,,magenta,circle
0.0,4.0,4.0,0.0,6.0,6.0,385.7582719938364,6.0,0.0,part_2,go,300.0,400.0,1.0,,,,,,,,,white,square
0.0,7.0,3.0,1.0,5.0,5.0,450.4922370106214,6.0,0.0,part_2,stop,300.0,400.0,3.0,,,,,,,,,orange,triangle
0.0,2.0,2.0,0.0,5.0,5.0,536.8838430003962,6.0,0.0,part_2,go,250.0,400.0,1.0,,,,,,,,,blue,diamond
0.0,3.0,3.0,0.0,6.0,6.0,487.6759549952112,6.0,0.0,part_2,go,250.0,400.0,1.0,,,,,,,,,yellow,cross
0.0,6.0,2.0,1.0,6.0,6.0,581.2412609957391,6.0,0.0,part_2,stop,250.0,400.0,3.0,,,,,,,,,gray,I
0.0,6.0,2.0,1.0,6.0,0.0,0.0,6.0,0.0,part_2,stop,250.0,350.0,4.0,,,,,,,,,gray,I
0.0,8.0,4.0,1.0,6.0,6.0,536.7629160027718,6.0,0.0,part_2,stop,250.0,400.0,3.0,,,,,,,,,green,hexagon
0.0,8.0,4.0,1.0,6.0,6.0,826.905734007596,6.0,0.0,part_2,go,250.0,350.0,1.0,,,,,,,,,green,hexagon
0.0,7.0,3.0,1.0,5.0,0.0,0.0,6.0,0.0,part_2,stop,250.0,350.0,4.0,,,,,,,,,orange,triangle
0.0,1.0,1.0,0.0,5.0,5.0,601.4826160098892,6.0,0.0,part_2,go,300.0,350.0,1.0,,,,,,,,,magenta,circle
0.0,5.0,1.0,1.0,6.0,0.0,0.0,6.0,0.0,part_2,stop,300.0,350.0,4.0,,,,,,,,,cyan,flipped triangle
0.0,6.0,2.0,1.0,5.0,5.0,818.7557169876527,6.0,0.0,part_2,go,300.0,400.0,1.0,,,,,,,,,gray,I
0.0,7.0,3.0,1.0,6.0,0.0,0.0,6.0,0.0,part_2,stop,300.0,400.0,4.0,,,,,,,,,orange,triangle
0.0,2.0,2.0,0.0,5.0,5.0,554.2505639896262,6.0,0.0,part_2,go,300.0,450.0,1.0,,,,,,,,,blue,diamond
0.0,6.0,2.0,1.0,5.0,0.0,0.0,6.0,0.0,part_2,stop,300.0,450.0,4.0,,,,,,,,,gray,I
0.0,2.0,2.0,0.0,5.0,5.0,648.0162410007324,6.0,0.0,part_2,go,350.0,450.0,1.0,,,,,,,,,blue,diamond
0.0,8.0,4.0,1.0,6.0,6.0,608.2050100085326,6.0,0.0,part_2,stop,350.0,450.0,3.0,,,,,,,,,green,hexagon
0.0,6.0,2.0,1.0,5.0,0.0,0.0,6.0,0.0,part_2,stop,350.0,400.0,4.0,,,,,,,,,gray,I
0.0,3.0,3.0,0.0,6.0,6.0,769.9244940013159,6.0,0.0,part_2,go,400.0,400.0,1.0,,,,,,,,,yellow,cross
0.0,8.0,4.0,1.0,5.0,0.0,0.0,6.0,0.0,part_2,stop,400.0,400.0,4.0,,,,,,,,,green,hexagon
0.0,5.0,1.0,1.0,6.0,0.0,0.0,6.0,0.0,part_2,stop,450.0,400.0,4.0,,,,,,,,,cyan,flipped triangle
0.0,7.0,3.0,1.0,6.0,6.0,667.0478680025553,6.0,0.0,part_2,go,450.0,450.0,1.0,,,,,,,,,orange,triangle
0.0,5.0,1.0,1.0,5.0,0.0,0.0,6.0,0.0,part_2,stop,450.0,450.0,4.0,,,,,,,,,cyan,flipped triangle
0.0,4.0,4.0,0.0,6.0,6.0,693.0663899984211,6.0,0.0,part_2,go,500.0,450.0,1.0,,,,,,,,,white,square
0.0,5.0,1.0,1.0,5.0,0.0,0.0,6.0,0.0,part_2,stop,500.0,450.0,4.0,,,,,,,,,cyan,flipped triangle
0.0,2.0,2.0,0.0,6.0,6.0,796.361243003048,7.0,0.0,part_2,go,550.0,450.0,1.0,,,,,,,,,blue,diamond
0.0,5.0,1.0,1.0,5.0,5.0,597.1646669931943,7.0,0.0,part_2,stop,550.0,450.0,3.0,,,,,,,,,cyan,flipped triangle
0.0,2.0,2.0,0.0,5.0,5.0,591.5914030047134,7.0,0.0,part_2,go,500.0,450.0,1.0,,,,,,,,,blue,diamond
0.0,5.0,1.0,1.0,6.0,6.0,511.8391270079883,7.0,0.0,part_2,stop,500.0,450.0,3.0,,,,,,,,,cyan,flipped triangle
0.0,8.0,4.0,1.0,6.0,0.0,0.0,7.0,0.0,part_2,stop,500.0,400.0,4.0,,,,,,,,,green,hexagon
0.0,5.0,1.0,1.0,6.0,0.0,0.0,7.0,0.0,part_2,stop,500.0,450.0,4.0,,,,,,,,,cyan,flipped triangle
0.0,1.0,1.0,0.0,6.0,6.0,769.3920279998565,7.0,0.0,part_2,go,500.0,500.0,1.0,,,,,,,,,magenta,circle
0.0,6.0,2.0,1.0,5.0,0.0,0.0,7.0,0.0,part_2,stop,500.0,500.0,4.0,,,,,,,,,gray,I
0.0,3.0,3.0,0.0,6.0,6.0,629.3520049948711,7.0,0.0,part_2,go,550.0,500.0,1.0,,,,,,,,,yellow,cross
0.0,7.0,3.0,1.0,5.0,5.0,633.1872769951588,7.0,0.0,part_2,stop,550.0,500.0,3.0,,,,,,,,,orange,triangle
0.0,8.0,4.0,1.0,6.0,0.0,0.0,7.0,0.0,part_2,stop,500.0,500.0,4.0,,,,,,,,,green,hexagon
0.0,5.0,1.0,1.0,5.0,5.0,862.5410459935665,7.0,0.0,part_2,go,500.0,550.0,1.0,,,,,,,,,cyan,flipped triangle
0.0,2.0,2.0,0.0,6.0,6.0,852.5081649859203,7.0,0.0,part_2,go,500.0,550.0,1.0,,,,,,,,,blue,diamond
0.0,4.0,4.0,0.0,6.0,6.0,658.6731360002887,7.0,0.0,part_2,go,500.0,550.0,1.0,,,,,,,,,white,square
0.0,8.0,4.0,1.0,6.0,6.0,346.5291280008387,7.0,0.0,part_2,stop,500.0,550.0,3.0,,,,,,,,,green,hexagon
0.0,7.0,3.0,1.0,6.0,0.0,0.0,7.0,0.0,part_2,stop,500.0,500.0,4.0,,,,,,,,,orange,triangle
0.0,5.0,1.0,1.0,5.0,5.0,845.7804959907662,7.0,0.0,part_2,go,500.0,550.0,1.0,,,,,,,,,cyan,flipped triangle
0.0,4.0,4.0,0.0,6.0,6.0,582.2420039912686,7.0,0.0,part_2,go,500.0,550.0,1.0,,,,,,,,,white,square
0.0,7.0,3.0,1.0,5.0,5.0,422.3419780028052,7.0,0.0,part_2,stop,500.0,550.0,3.0,,,,,,,,,orange,triangle
0.0,7.0,3.0,1.0,5.0,0.0,0.0,7.0,0.0,part_2,stop,450.0,550.0,4.0,,,,,,,,,orange,triangle
0.0,5.0,1.0,1.0,5.0,5.0,984.257208998315,7.0,0.0,part_2,go,500.0,550.0,1.0,,,,,,,,,cyan,flipped triangle
0.0,8.0,4.0,1.0,6.0,6.0,918.131430997164,7.0,0.0,part_2,go,500.0,550.0,1.0,,,,,,,,,green,hexagon
0.0,7.0,3.0,1.0,6.0,6.0,383.2659960025921,7.0,0.0,part_2,go,500.0,550.0,1.0,,,,,,,,,orange,triangle
0.0,8.0,4.0,1.0,5.0,5.0,616.8443810020108,7.0,0.0,part_2,stop,500.0,550.0,3.0,,,,,,,,,green,hexagon
0.0,1.0,1.0,0.0,6.0,6.0,731.3522920012474,7.0,0.0,part_2,go,450.0,550.0,1.0,,,,,,,,,magenta,circle
0.0,8.0,4.0,1.0,6.0,6.0,440.7094030029839,7.0,0.0,part_2,stop,450.0,550.0,3.0,,,,,,,,,green,hexagon
0.0,1.0,1.0,0.0,5.0,5.0,609.4979789922945,7.0,0.0,part_2,go,450.0,500.0,1.0,,,,,,,,,magenta,circle
0.0,2.0,2.0,0.0,5.0,5.0,384.2713509948225,7.0,0.0,part_2,go,450.0,500.0,1.0,,,,,,,,,blue,diamond
0.0,5.0,1.0,1.0,6.0,6.0,327.5822060095379,7.0,0.0,part_2,stop,450.0,500.0,3.0,,,,,,,,,cyan,flipped triangle
0.0,6.0,2.0,1.0,5.0,0.0,0.0,7.0,0.0,part_2,stop,450.0,450.0,4.0,,,,,,,,,gray,I
0.0,8.0,4.0,1.0,6.0,0.0,0.0,7.0,0.0,part_2,stop,500.0,450.0,4.0,,,,,,,,,green,hexagon
0.0,1.0,1.0,0.0,6.0,6.0,327.2649370046565,7.0,0.0,part_2,go,500.0,500.0,1.0,,,,,,,,,magenta,circle
0.0,6.0,2.0,1.0,6.0,6.0,682.6387899927795,7.0,0.0,part_2,stop,500.0,500.0,3.0,,,,,,,,,gray,I
0.0,5.0,1.0,1.0,6.0,6.0,865.2822610019939,7.0,0.0,part_2,go,500.0,450.0,1.0,,,,,,,,,cyan,flipped triangle
0.0,3.0,3.0,0.0,6.0,6.0,729.4440400000894,7.0,0.0,part_2,go,500.0,450.0,1.0,,,,,,,,,yellow,cross
0.0,4.0,4.0,0.0,6.0,6.0,477.8575039963471,7.0,0.0,part_2,go,500.0,450.0,1.0,,,,,,,,,white,square
0.0,6.0,2.0,1.0,6.0,6.0,328.798154994729,8.0,0.0,part_2,go,500.0,450.0,1.0,,,,,,,,,gray,I
0.0,6.0,2.0,1.0,6.0,6.0,319.75065100414207,8.0,0.0,part_2,stop,500.0,450.0,3.0,,,,,,,,,gray,I
0.0,7.0,3.0,1.0,5.0,5.0,573.6230210022768,8.0,0.0,part_2,go,500.0,400.0,1.0,,,,,,,,,orange,triangle
0.0,8.0,4.0,1.0,5.0,5.0,348.2493780029472,8.0,0.0,part_2,stop,500.0,400.0,3.0,,,,,,,,,green,hexagon
0.0,3.0,3.0,0.0,6.0,6.0,554.278448005789,8.0,0.0,part_2,go,450.0,400.0,1.0,,,,,,,,,yellow,cross
0.0,7.0,3.0,1.0,6.0,6.0,579.2462520039408,8.0,0.0,part_2,stop,450.0,400.0,3.0,,,,,,,,,orange,triangle
0.0,5.0,1.0,1.0,5.0,0.0,0.0,8.0,0.0,part_2,stop,450.0,350.0,4.0,,,,,,,,,cyan,flipped triangle
0.0,4.0,4.0,0.0,5.0,5.0,665.7810879987665,8.0,0.0,part_2,go,500.0,350.0,1.0,,,,,,,,,white,square
0.0,4.0,4.0,0.0,5.0,5.0,478.0805840127868,8.0,0.0,part_2,go,500.0,350.0,1.0,,,,,,,,,white,square
0.0,7.0,3.0,1.0,6.0,0.0,0.0,8.0,0.0,part_2,stop,500.0,350.0,4.0,,,,,,,,,orange,triangle
0.0,3.0,3.0,0.0,6.0,6.0,684.034887002781,8.0,0.0,part_2,go,500.0,400.0,1.0,,,,,,,,,yellow,cross
0.0,2.0,2.0,0.0,5.0,5.0,696.0514130041702,8.0,0.0,part_2,go,500.0,400.0,1.0,,,,,,,,,blue,diamond
0.0,3.0,3.0,0.0,5.0,5.0,648.253477003891,8.0,0.0,part_2,go,500.0,400.0,1.0,,,,,,,,,yellow,cross
0.0,7.0,3.0,1.0,5.0,5.0,478.9261919941054,8.0,0.0,part_2,go,500.0,400.0,1.0,,,,,,,,,orange,triangle
0.0,8.0,4.0,1.0,6.0,0.0,0.0,8.0,0.0,part_2,stop,500.0,400.0,4.0,,,,,,,,,green,hexagon
0.0,1.0,1.0,0.0,5.0,5.0,684.2522289953195,8.0,0.0,part_2,go,500.0,450.0,1.0,,,,,,,,,magenta,circle
0.0,6.0,2.0,1.0,5.0,0.0,0.0,8.0,0.0,part_2,stop,500.0,450.0,4.0,,,,,,,,,gray,I
0.0,4.0,4.0,0.0,6.0,6.0,611.4308279938996,8.0,0.0,part_2,go,550.0,450.0,1.0,,,,,,,,,white,square
0.0,4.0,4.0,0.0,5.0,5.0,554.9766150070354,8.0,0.0,part_2,go,550.0,450.0,1.0,,,,,,,,,white,square
0.0,1.0,1.0,0.0,6.0,6.0,685.1737050019437,8.0,0.0,part_2,go,550.0,450.0,1.0,,,,,,,,,magenta,circle
0.0,5.0,1.0,1.0,6.0,6.0,442.6513799990061,8.0,0.0,part_2,stop,550.0,450.0,3.0,,,,,,,,,cyan,flipped triangle
0.0,6.0,2.0,1.0,6.0,6.0,862.5144719990203,8.0,0.0,part_2,go,550.0,400.0,1.0,,,,,,,,,gray,I
0.0,1.0,1.0,0.0,5.0,5.0,479.3000200006645,8.0,0.0,part_2,go,550.0,400.0,1.0,,,,,,,,,magenta,circle
0.0,6.0,2.0,1.0,5.0,5.0,319.3062280042795,8.0,0.0,part_2,stop,550.0,400.0,3.0,,,,,,,,,gray,I
0.0,8.0,4.0,1.0,6.0,6.0,611.6125510015991,8.0,0.0,part_2,go,500.0,400.0,1.0,,,,,,,,,green,hexagon
0.0,1.0,1.0,0.0,6.0,6.0,329.1539920028299,8.0,0.0,part_2,go,500.0,400.0,1.0,,,,,,,,,magenta,circle
0.0,2.0,2.0,0.0,6.0,6.0,564.2290209943894,8.0,0.0,part_2,go,500.0,400.0,1.0,,,,,,,,,blue,diamond
0.0,1.0,1.0,0.0,6.0,6.0,367.0012499933364,8.0,0.0,part_2,go,500.0,400.0,1.0,,,,,,,,,magenta,circle
0.0,6.0,2.0,1.0,5.0,0.0,0.0,8.0,0.0,part_2,stop,500.0,400.0,4.0,,,,,,,,,gray,I
0.0,1.0,1.0,0.0,6.0,6.0,563.7955209967913,8.0,0.0,part_2,go,550.0,400.0,1.0,,,,,,,,,magenta,circle
0.0,7.0,3.0,1.0,6.0,0.0,0.0,8.0,0.0,part_2,stop,550.0,400.0,4.0,,,,,,,,,orange,triangle
0.0,6.0,2.0,1.0,5.0,0.0,0.0,8.0,0.0,part_2,stop,550.0,450.0,4.0,,,,,,,,,gray,I
0.0,3.0,3.0,0.0,5.0,5.0,723.5801789938705,8.0,0.0,part_2,go,600.0,450.0,1.0,,,,,,,,,yellow,cross
0.0,1.0,1.0,0.0,6.0,6.0,498.2126050017541,8.0,0.0,part_2,go,600.0,450.0,1.0,,,,,,,,,magenta,circle
0.0,4.0,4.0,0.0,6.0,6.0,639.1537669987883,8.0,0.0,part_2,go,600.0,450.0,1.0,,,,,,,,,white,square
0.0,7.0,3.0,1.0,5.0,5.0,652.4948029982625,8.0,0.0,part_2,stop,600.0,450.0,3.0,,,,,,,,,orange,triangle
0.0,4.0,4.0,0.0,7.0,3.0,3659.256450002431,1.0,1.0,part_3,go,0.0,0.0,0.0,346.0,2.0,519.0,173.0,346.0,692.0,1038.0,865.0,white,square
0.0,7.0,3.0,1.0,7.0,4.0,2213.8518479914637,1.0,1.0,part_3,go,0.0,0.0,0.0,924.0,6.0,462.0,154.0,308.0,924.0,616.0,770.0,orange,triangle
0.0,2.0,2.0,0.0,7.0,1.0,2116.5838800079655,1.0,1.0,part_3,go,0.0,0.0,0.0,270.0,2.0,270.0,405.0,675.0,135.0,540.0,810.0,blue,diamond
0.0,1.0,1.0,0.0,7.0,4.0,2216.84772799199,1.0,1.0,part_3,go,0.0,0.0,0.0,116.0,1.0,232.0,464.0,348.0,116.0,696.0,580.0,magenta,circle
0.0,2.0,2.0,0.0,7.0,6.0,2725.847667999915,1.0,1.0,part_3,go,0.0,0.0,0.0,348.0,3.0,696.0,116.0,232.0,464.0,580.0,348.0,blue,diamond
0.0,2.0,2.0,0.0,7.0,2.0,2688.7950530071976,1.0,1.0,part_3,go,0.0,0.0,0.0,576.0,3.0,1152.0,576.0,384.0,768.0,960.0,192.0,blue,diamond
0.0,7.0,3.0,1.0,7.0,5.0,1663.1987650034716,1.0,1.0,part_3,go,0.0,0.0,0.0,384.0,2.0,1152.0,192.0,576.0,768.0,384.0,960.0,orange,triangle
0.0,7.0,3.0,1.0,7.0,2.0,2380.356929003028,1.0,1.0,part_3,go,0.0,0.0,0.0,348.0,3.0,116.0,348.0,232.0,696.0,580.0,464.0,orange,triangle
0.0,5.0,1.0,1.0,7.0,5.0,2279.773111004033,1.0,1.0,part_3,go,0.0,0.0,0.0,924.0,6.0,770.0,462.0,154.0,616.0,924.0,308.0,cyan,flipped triangle
0.0,7.0,3.0,1.0,7.0,5.0,1916.833625000436,1.0,1.0,part_3,go,0.0,0.0,0.0,346.0,2.0,692.0,173.0,519.0,1038.0,346.0,865.0,orange,triangle
0.0,5.0,1.0,1.0,7.0,4.0,2129.4089470029576,1.0,1.0,part_3,go,0.0,0.0,0.0,405.0,3.0,270.0,540.0,135.0,405.0,810.0,675.0,cyan,flipped triangle
0.0,4.0,4.0,0.0,7.0,6.0,3329.5570839982247,1.0,1.0,part_3,go,0.0,0.0,0.0,696.0,6.0,464.0,348.0,232.0,116.0,580.0,696.0,white,square
0.0,4.0,4.0,0.0,7.0,4.0,2175.5222080100793,1.0,1.0,part_3,go,0.0,0.0,0.0,1152.0,6.0,576.0,768.0,384.0,1152.0,192.0,960.0,white,square
0.0,8.0,4.0,1.0,7.0,6.0,3382.640352996532,1.0,1.0,part_3,go,0.0,0.0,0.0,865.0,5.0,1038.0,692.0,519.0,346.0,173.0,865.0,green,hexagon
0.0,1.0,1.0,0.0,7.0,5.0,1870.646333991317,1.0,1.0,part_3,go,0.0,0.0,0.0,462.0,3.0,308.0,154.0,770.0,924.0,462.0,616.0,magenta,circle
0.0,6.0,2.0,1.0,7.0,6.0,3052.278788003605,1.0,1.0,part_3,go,0.0,0.0,0.0,519.0,3.0,865.0,346.0,692.0,173.0,1038.0,519.0,gray,I
0.0,6.0,2.0,1.0,7.0,3.0,3373.4067840123316,1.0,1.0,part_3,go,0.0,0.0,0.0,576.0,3.0,192.0,960.0,576.0,768.0,1152.0,384.0,gray,I
0.0,1.0,1.0,0.0,7.0,5.0,1707.9392290033866,1.0,1.0,part_3,go,0.0,0.0,0.0,770.0,5.0,154.0,462.0,616.0,308.0,770.0,924.0,magenta,circle
0.0,5.0,1.0,1.0,7.0,5.0,2077.0320750016253,1.0,1.0,part_3,go,0.0,0.0,0.0,865.0,5.0,346.0,173.0,1038.0,692.0,865.0,519.0,cyan,flipped triangle
0.0,5.0,1.0,1.0,7.0,3.0,2526.1905630031833,1.0,1.0,part_3,go,0.0,0.0,0.0,924.0,6.0,308.0,616.0,924.0,462.0,770.0,154.0,cyan,flipped triangle
0.0,6.0,2.0,1.0,7.0,3.0,1689.3610599945532,2.0,1.0,part_3,go,0.0,0.0,0.0,405.0,3.0,810.0,270.0,405.0,675.0,540.0,135.0,gray,I
0.0,5.0,1.0,1.0,7.0,6.0,1730.3041599952849,2.0,1.0,part_3,go,0.0,0.0,0.0,540.0,4.0,270.0,135.0,405.0,810.0,675.0,540.0,cyan,flipped triangle
0.0,3.0,3.0,0.0,7.0,2.0,1858.2664010027656,2.0,1.0,part_3,go,0.0,0.0,0.0,232.0,2.0,348.0,232.0,696.0,580.0,464.0,116.0,yellow,cross
0.0,4.0,4.0,0.0,7.0,1.0,1905.1340440055355,2.0,1.0,part_3,go,0.0,0.0,0.0,770.0,5.0,770.0,616.0,154.0,308.0,462.0,924.0,white,square
0.0,5.0,1.0,1.0,7.0,3.0,1640.7950169959804,2.0,1.0,part_3,go,0.0,0.0,0.0,384.0,2.0,192.0,768.0,384.0,960.0,1152.0,576.0,cyan,flipped triangle
0.0,3.0,3.0,0.0,7.0,4.0,1805.2006090001669,2.0,1.0,part_3,go,0.0,0.0,0.0,348.0,3.0,696.0,464.0,232.0,348.0,116.0,580.0,yellow,cross
0.0,2.0,2.0,0.0,7.0,6.0,1216.9787769962568,2.0,1.0,part_3,go,0.0,0.0,0.0,540.0,4.0,135.0,270.0,810.0,675.0,405.0,540.0,blue,diamond
0.0,8.0,4.0,1.0,7.0,5.0,1267.3675600090064,2.0,1.0,part_3,go,0.0,0.0,0.0,960.0,5.0,1152.0,384.0,576.0,768.0,960.0,192.0,green,hexagon
0.0,5.0,1.0,1.0,7.0,1.0,1319.0661429980537,2.0,1.0,part_3,go,0.0,0.0,0.0,384.0,2.0,384.0,768.0,576.0,1152.0,192.0,960.0,cyan,flipped triangle
0.0,7.0,3.0,1.0,7.0,2.0,1794.3410809966736,2.0,1.0,part_3,go,0.0,0.0,0.0,270.0,2.0,405.0,270.0,810.0,135.0,675.0,540.0,orange,triangle
0.0,7.0,3.0,1.0,7.0,2.0,1331.3894070015522,2.0,1.0,part_3,go,0.0,0.0,0.0,308.0,2.0,770.0,308.0,154.0,616.0,924.0,462.0,orange,triangle
0.0,7.0,3.0,1.0,7.0,2.0,1871.1354520055463,2.0,1.0,part_3,go,0.0,0.0,0.0,405.0,3.0,540.0,405.0,675.0,810.0,270.0,135.0,orange,triangle
0.0,3.0,3.0,0.0,7.0,5.0,2828.5805659979815,2.0,1.0,part_3,go,0.0,0.0,0.0,384.0,2.0,768.0,192.0,576.0,960.0,384.0,1152.0,yellow,cross
0.0,4.0,4.0,0.0,7.0,6.0,1719.8562870034948,2.0,1.0,part_3,go,0.0,0.0,0.0,810.0,6.0,135.0,675.0,405.0,270.0,540.0,810.0,white,square
0.0,4.0,4.0,0.0,7.0,5.0,1781.2605469953269,2.0,1.0,part_3,go,0.0,0.0,0.0,1038.0,6.0,865.0,692.0,173.0,346.0,1038.0,519.0,white,square
0.0,3.0,3.0,0.0,7.0,4.0,1779.7869909991275,2.0,1.0,part_3,go,0.0,0.0,0.0,346.0,2.0,519.0,692.0,865.0,346.0,1038.0,173.0,yellow,cross
0.0,3.0,3.0,0.0,7.0,4.0,1626.5568969974993,2.0,1.0,part_3,go,0.0,0.0,0.0,616.0,4.0,154.0,462.0,924.0,616.0,770.0,308.0,yellow,cross
0.0,6.0,2.0,1.0,7.0,6.0,1436.247514007846,2.0,1.0,part_3,go,0.0,0.0,0.0,346.0,2.0,692.0,519.0,865.0,173.0,1038.0,346.0,gray,I
0.0,5.0,1.0,1.0,7.0,4.0,1513.3571850019507,2.0,1.0,part_3,go,0.0,0.0,0.0,348.0,3.0,580.0,696.0,232.0,348.0,464.0,116.0,cyan,flipped triangle
0.0,8.0,4.0,1.0,7.0,3.0,1624.4862969906535,2.0,1.0,part_3,go,0.0,0.0,0.0,696.0,6.0,580.0,232.0,696.0,348.0,116.0,464.0,green,hexagon
0.0,6.0,2.0,1.0,7.0,5.0,2403.171817000839,3.0,1.0,part_3,go,0.0,0.0,0.0,232.0,2.0,580.0,696.0,464.0,116.0,232.0,348.0,gray,I
0.0,7.0,3.0,1.0,7.0,4.0,1078.084608001518,3.0,1.0,part_3,go,0.0,0.0,0.0,464.0,4.0,232.0,580.0,696.0,464.0,116.0,348.0,orange,triangle
0.0,8.0,4.0,1.0,7.0,4.0,1508.5467890021391,3.0,1.0,part_3,go,0.0,0.0,0.0,810.0,6.0,540.0,405.0,135.0,810.0,270.0,675.0,green,hexagon
0.0,5.0,1.0,1.0,7.0,1.0,3321.067068987759,3.0,1.0,part_3,go,0.0,0.0,0.0,346.0,2.0,346.0,173.0,692.0,519.0,865.0,1038.0,cyan,flipped triangle
0.0,4.0,4.0,0.0,7.0,3.0,1726.4884370088112,3.0,1.0,part_3,go,0.0,0.0,0.0,810.0,6.0,540.0,270.0,810.0,405.0,135.0,675.0,white,square
0.0,8.0,4.0,1.0,7.0,4.0,1468.3015710033942,3.0,1.0,part_3,go,0.0,0.0,0.0,576.0,3.0,960.0,192.0,768.0,576.0,1152.0,384.0,green,hexagon
0.0,1.0,1.0,0.0,7.0,6.0,2225.615791991004,3.0,1.0,part_3,go,0.0,0.0,0.0,692.0,4.0,1038.0,173.0,346.0,519.0,865.0,692.0,magenta,circle
0.0,3.0,3.0,0.0,7.0,3.0,1646.8699440010823,3.0,1.0,part_3,go,0.0,0.0,0.0,384.0,2.0,768.0,576.0,384.0,1152.0,192.0,960.0,yellow,cross
0.0,2.0,2.0,0.0,7.0,4.0,1782.7527949993964,3.0,1.0,part_3,go,0.0,0.0,0.0,232.0,2.0,696.0,116.0,580.0,232.0,348.0,464.0,blue,diamond
0.0,8.0,4.0,1.0,7.0,3.0,1777.6780179992784,3.0,1.0,part_3,go,0.0,0.0,0.0,924.0,6.0,154.0,770.0,924.0,462.0,616.0,308.0,green,hexagon
0.0,5.0,1.0,1.0,7.0,5.0,1385.571184990113,3.0,1.0,part_3,go,0.0,0.0,0.0,580.0,5.0,116.0,232.0,464.0,696.0,580.0,348.0,cyan,flipped triangle
0.0,8.0,4.0,1.0,7.0,6.0,1566.1477690009633,3.0,1.0,part_3,go,0.0,0.0,0.0,1038.0,6.0,173.0,865.0,692.0,346.0,519.0,1038.0,green,hexagon
0.0,7.0,3.0,1.0,7.0,1.0,1785.3866039949935,3.0,1.0,part_3,go,0.0,0.0,0.0,384.0,2.0,384.0,576.0,960.0,768.0,192.0,1152.0,orange,triangle
0.0,3.0,3.0,0.0,7.0,4.0,1922.626384999603,3.0,1.0,part_3,go,0.0,0.0,0.0,405.0,3.0,270.0,810.0,540.0,405.0,135.0,675.0,yellow,cross
0.0,6.0,2.0,1.0,7.0,5.0,1348.855281001306,3.0,1.0,part_3,go,0.0,0.0,0.0,616.0,4.0,924.0,154.0,462.0,770.0,616.0,308.0,gray,I
0.0,8.0,4.0,1.0,7.0,4.0,1980.7124380022287,3.0,1.0,part_3,go,0.0,0.0,0.0,580.0,5.0,696.0,232.0,116.0,580.0,348.0,464.0,green,hexagon
0.0,2.0,2.0,0.0,7.0,3.0,1435.1962959917728,3.0,1.0,part_3,go,0.0,0.0,0.0,1152.0,6.0,192.0,576.0,1152.0,384.0,768.0,960.0,blue,diamond
0.0,6.0,2.0,1.0,7.0,5.0,1923.914754996076,3.0,1.0,part_3,go,0.0,0.0,0.0,270.0,2.0,540.0,405.0,135.0,675.0,270.0,810.0,gray,I
0.0,3.0,3.0,0.0,7.0,2.0,1670.394770000712,3.0,1.0,part_3,go,0.0,0.0,0.0,154.0,1.0,924.0,154.0,770.0,616.0,308.0,462.0,yellow,cross
0.0,7.0,3.0,1.0,7.0,1.0,1190.2546459896255,3.0,1.0,part_3,go,0.0,0.0,0.0,346.0,2.0,346.0,692.0,519.0,1038.0,865.0,173.0,orange,triangle
0.0,8.0,4.0,1.0,7.0,1.0,2721.0891490103677,4.0,1.0,part_3,go,0.0,0.0,0.0,810.0,6.0,810.0,405.0,135.0,270.0,675.0,540.0,green,hexagon
0.0,1.0,1.0,0.0,7.0,6.0,1352.60901300353,4.0,1.0,part_3,go,0.0,0.0,0.0,384.0,2.0,192.0,768.0,1152.0,960.0,576.0,384.0,magenta,circle
0.0,2.0,2.0,0.0,7.0,5.0,2127.433542002109,4.0,1.0,part_3,go,0.0,0.0,0.0,519.0,3.0,173.0,1038.0,692.0,346.0,519.0,865.0,blue,diamond
0.0,3.0,3.0,0.0,7.0,1.0,1652.1379059995525,4.0,1.0,part_3,go,0.0,0.0,0.0,346.0,2.0,346.0,173.0,1038.0,865.0,519.0,692.0,yellow,cross
0.0,4.0,4.0,0.0,7.0,6.0,1105.1667089923285,4.0,1.0,part_3,go,0.0,0.0,0.0,1152.0,6.0,960.0,576.0,384.0,768.0,192.0,1152.0,white,square
0.0,2.0,2.0,0.0,7.0,5.0,1448.6683499999344,4.0,1.0,part_3,go,0.0,0.0,0.0,770.0,5.0,924.0,462.0,308.0,616.0,770.0,154.0,blue,diamond
0.0,4.0,4.0,0.0,7.0,6.0,2225.7050649932353,4.0,1.0,part_3,go,0.0,0.0,0.0,696.0,6.0,116.0,464.0,348.0,232.0,580.0,696.0,white,square
0.0,2.0,2.0,0.0,7.0,2.0,1904.720146994805,4.0,1.0,part_3,go,0.0,0.0,0.0,308.0,2.0,462.0,308.0,770.0,616.0,154.0,924.0,blue,diamond
0.0,6.0,2.0,1.0,7.0,6.0,1773.5443820129149,4.0,1.0,part_3,go,0.0,0.0,0.0,576.0,3.0,192.0,384.0,768.0,1152.0,960.0,576.0,gray,I
0.0,3.0,3.0,0.0,7.0,5.0,2720.712978989468,4.0,1.0,part_3,go,0.0,0.0,0.0,135.0,1.0,810.0,405.0,675.0,540.0,135.0,270.0,yellow,cross
0.0,6.0,2.0,1.0,7.0,6.0,1328.5400930035394,4.0,1.0,part_3,go,0.0,0.0,0.0,464.0,4.0,348.0,696.0,580.0,116.0,232.0,464.0,gray,I
0.0,1.0,1.0,0.0,7.0,3.0,1708.4870349935954,4.0,1.0,part_3,go,0.0,0.0,0.0,135.0,1.0,540.0,675.0,135.0,810.0,405.0,270.0,magenta,circle
0.0,1.0,1.0,0.0,7.0,5.0,1673.1150999985402,4.0,1.0,part_3,go,0.0,0.0,0.0,348.0,3.0,696.0,464.0,232.0,116.0,348.0,580.0,magenta,circle
0.0,6.0,2.0,1.0,7.0,5.0,2026.915092006675,4.0,1.0,part_3,go,0.0,0.0,0.0,154.0,1.0,770.0,308.0,462.0,924.0,154.0,616.0,gray,I
0.0,1.0,1.0,0.0,7.0,5.0,1050.4345390072558,4.0,1.0,part_3,go,0.0,0.0,0.0,346.0,2.0,1038.0,173.0,692.0,519.0,346.0,865.0,magenta,circle
0.0,8.0,4.0,1.0,7.0,5.0,1658.689204006805,4.0,1.0,part_3,go,0.0,0.0,0.0,770.0,5.0,616.0,462.0,154.0,924.0,770.0,308.0,green,hexagon
0.0,1.0,1.0,0.0,7.0,5.0,2037.880589006818,4.0,1.0,part_3,go,0.0,0.0,0.0,384.0,2.0,576.0,768.0,960.0,192.0,384.0,1152.0,magenta,circle
0.0,1.0,1.0,0.0,7.0,5.0,1951.8268410029125,4.0,1.0,part_3,go,0.0,0.0,0.0,405.0,3.0,810.0,540.0,675.0,270.0,405.0,135.0,magenta,circle
0.0,2.0,2.0,0.0,7.0,5.0,1293.187774004764,4.0,1.0,part_3,go,0.0,0.0,0.0,519.0,3.0,692.0,173.0,865.0,1038.0,519.0,346.0,blue,diamond
0.0,4.0,4.0,0.0,7.0,2.0,1369.4078440021258,4.0,1.0,part_3,go,0.0,0.0,0.0,616.0,4.0,462.0,616.0,308.0,770.0,154.0,924.0,white,square
