raw_reward_magnitude,stim_reward,stepwise_reward_magnitude,paired_with_stopping,stim_location,response,reaction_time,block,num_trial_presentations,which_phase,stop_signal_trial_type,left_SSD,right_SSD,accuracy,chosen_bidding_amount,chosen_bidding_level,possible_bid_1,possible_bid_2,possible_bid_3,possible_bid_4,possible_bid_5,possible_bid_6,color_text,shape_text
331.0,2.0,2.0,0.0,3.0,3.0,535.9731549979188,1.0,1.0,phase_1,,,,,,,,,,,,,yellow,flipped triangle
0.0,4.0,0.0,0.0,4.0,4.0,386.9100370066007,1.0,1.0,phase_1,,,,,,,,,,,,,white,triangle
332.0,2.0,2.0,0.0,4.0,4.0,392.9991530021652,1.0,1.0,phase_1,,,,,,,,,,,,,yellow,flipped triangle
141.0,5.0,1.0,1.0,3.0,3.0,437.2024640033487,1.0,1.0,phase_1,,,,,,,,,,,,,orange,circle
637.0,3.0,3.0,0.0,3.0,3.0,353.6666040017735,1.0,1.0,phase_1,,,,,,,,,,,,,cyan,hexagon
177.0,5.0,1.0,1.0,4.0,4.0,251.98704400099808,1.0,1.0,phase_1,,,,,,,,,,,,,orange,circle
1290.0,8.0,4.0,1.0,3.0,3.0,335.7310610008426,1.0,1.0,phase_1,,,,,,,,,,,,,blue,cross
331.0,6.0,2.0,1.0,1.0,1.0,464.2352529917843,1.0,1.0,phase_1,,,,,,,,,,,,,green,I
0.0,2.0,0.0,0.0,2.0,2.0,399.685590993613,1.0,1.0,phase_1,,,,,,,,,,,,,yellow,flipped triangle
634.0,7.0,3.0,1.0,3.0,3.0,307.5709100085078,1.0,1.0,phase_1,,,,,,,,,,,,,gray,diamond
321.0,6.0,2.0,1.0,1.0,1.0,353.335938998498,1.0,1.0,phase_1,,,,,,,,,,,,,green,I
140.0,1.0,1.0,0.0,4.0,4.0,269.8239680030383,1.0,1.0,phase_1,,,,,,,,,,,,,magenta,square
315.0,6.0,2.0,1.0,1.0,1.0,465.040629991563,1.0,1.0,phase_1,,,,,,,,,,,,,green,I
306.0,2.0,2.0,0.0,3.0,3.0,334.6814099932089,1.0,1.0,phase_1,,,,,,,,,,,,,yellow,flipped triangle
333.0,2.0,2.0,0.0,2.0,2.0,334.9391299998387,1.0,1.0,phase_1,,,,,,,,,,,,,yellow,flipped triangle
648.0,3.0,3.0,0.0,3.0,3.0,308.7327459943481,1.0,1.0,phase_1,,,,,,,,,,,,,cyan,hexagon
312.0,2.0,2.0,0.0,3.0,3.0,520.6815190031193,1.0,1.0,phase_1,,,,,,,,,,,,,yellow,flipped triangle
0.0,2.0,0.0,0.0,2.0,2.0,418.4380570077337,1.0,1.0,phase_1,,,,,,,,,,,,,yellow,flipped triangle
1284.0,4.0,4.0,0.0,1.0,1.0,344.4332400104031,1.0,1.0,phase_1,,,,,,,,,,,,,white,triangle
151.0,5.0,1.0,1.0,4.0,4.0,297.728312012623,1.0,1.0,phase_1,,,,,,,,,,,,,orange,circle
164.0,5.0,1.0,1.0,4.0,4.0,409.5005840063095,1.0,1.0,phase_1,,,,,,,,,,,,,orange,circle
348.0,2.0,2.0,0.0,3.0,3.0,270.1213039981667,1.0,1.0,phase_1,,,,,,,,,,,,,yellow,flipped triangle
166.0,5.0,1.0,1.0,2.0,2.0,270.214826989104,1.0,1.0,phase_1,,,,,,,,,,,,,orange,circle
1284.0,8.0,4.0,1.0,4.0,4.0,270.0369369995314,1.0,1.0,phase_1,,,,,,,,,,,,,blue,cross
1324.0,8.0,4.0,1.0,2.0,2.0,344.3502080044709,1.0,1.0,phase_1,,,,,,,,,,,,,blue,cross
342.0,6.0,2.0,1.0,4.0,4.0,372.2812689957209,1.0,1.0,phase_1,,,,,,,,,,,,,green,I
183.0,1.0,1.0,0.0,3.0,3.0,334.5444719889201,1.0,1.0,phase_1,,,,,,,,,,,,,magenta,square
0.0,5.0,0.0,1.0,2.0,2.0,419.5208910095971,1.0,2.0,phase_1,,,,,,,,,,,,,orange,circle
0.0,2.0,0.0,0.0,3.0,3.0,318.0625399982091,1.0,1.0,phase_1,,,,,,,,,,,,,yellow,flipped triangle
0.0,3.0,0.0,0.0,4.0,4.0,326.6973050049273,1.0,1.0,phase_1,,,,,,,,,,,,,cyan,hexagon
0.0,4.0,0.0,0.0,2.0,2.0,326.2693119904725,1.0,1.0,phase_1,,,,,,,,,,,,,white,triangle
180.0,1.0,1.0,0.0,1.0,1.0,362.3926580039551,1.0,1.0,phase_1,,,,,,,,,,,,,magenta,square
168.0,5.0,1.0,1.0,2.0,2.0,364.5144519978203,1.0,1.0,phase_1,,,,,,,,,,,,,orange,circle
675.0,7.0,3.0,1.0,1.0,1.0,381.5360330045223,1.0,1.0,phase_1,,,,,,,,,,,,,gray,diamond
177.0,5.0,1.0,1.0,1.0,1.0,334.5448659965768,1.0,1.0,phase_1,,,,,,,,,,,,,orange,circle
0.0,4.0,0.0,0.0,3.0,3.0,280.1125750120263,1.0,1.0,phase_1,,,,,,,,,,,,,white,triangle
171.0,1.0,1.0,0.0,1.0,1.0,288.4070380096091,1.0,1.0,phase_1,,,,,,,,,,,,,magenta,square
670.0,7.0,3.0,1.0,4.0,4.0,380.922151991399,1.0,1.0,phase_1,,,,,,,,,,,,,gray,diamond
175.0,1.0,1.0,0.0,1.0,1.0,466.7943719978211,1.0,1.0,phase_1,,,,,,,,,,,,,magenta,square
173.0,1.0,1.0,0.0,3.0,3.0,288.7550739978906,1.0,1.0,phase_1,,,,,,,,,,,,,magenta,square
664.0,3.0,3.0,0.0,2.0,2.0,372.61703099648,1.0,1.0,phase_1,,,,,,,,,,,,,cyan,hexagon
302.0,6.0,2.0,1.0,4.0,4.0,259.3896149919601,1.0,1.0,phase_1,,,,,,,,,,,,,green,I
337.0,2.0,2.0,0.0,3.0,3.0,373.4369439916918,1.0,1.0,phase_1,,,,,,,,,,,,,yellow,flipped triangle
0.0,1.0,0.0,0.0,4.0,4.0,334.99637398927,1.0,2.0,phase_1,,,,,,,,,,,,,magenta,square
1304.0,8.0,4.0,1.0,4.0,4.0,372.8512410016265,1.0,1.0,phase_1,,,,,,,,,,,,,blue,cross
670.0,3.0,3.0,0.0,4.0,4.0,419.6989129995927,1.0,1.0,phase_1,,,,,,,,,,,,,cyan,hexagon
173.0,1.0,1.0,0.0,1.0,1.0,373.8143969967495,1.0,1.0,phase_1,,,,,,,,,,,,,magenta,square
0.0,6.0,0.0,1.0,3.0,3.0,406.7153930081986,1.0,1.0,phase_1,,,,,,,,,,,,,green,I
1287.0,8.0,4.0,1.0,4.0,4.0,373.2596939953509,1.0,1.0,phase_1,,,,,,,,,,,,,blue,cross
183.0,5.0,1.0,1.0,3.0,3.0,318.691699008923,1.0,1.0,phase_1,,,,,,,,,,,,,orange,circle
160.0,1.0,1.0,0.0,2.0,2.0,336.3314640009776,1.0,1.0,phase_1,,,,,,,,,,,,,magenta,square
637.0,3.0,3.0,0.0,2.0,2.0,363.8476979976985,1.0,1.0,phase_1,,,,,,,,,,,,,cyan,hexagon
183.0,1.0,1.0,0.0,1.0,1.0,493.2004709989996,1.0,1.0,phase_1,,,,,,,,,,,,,magenta,square
665.0,3.0,3.0,0.0,1.0,1.0,354.5140959904529,1.0,2.0,phase_1,,,,,,,,,,,,,cyan,hexagon
0.0,8.0,0.0,1.0,4.0,4.0,429.5943019969854,1.0,1.0,phase_1,,,,,,,,,,,,,blue,cross
349.0,6.0,2.0,1.0,3.0,3.0,354.5922109915409,1.0,1.0,phase_1,,,,,,,,,,,,,green,I
176.0,5.0,1.0,1.0,1.0,1.0,382.1820400044089,1.0,1.0,phase_1,,,,,,,,,,,,,orange,circle
316.0,6.0,2.0,1.0,3.0,3.0,316.1733989982167,1.0,1.0,phase_1,,,,,,,,,,,,,green,I
1298.0,4.0,4.0,0.0,2.0,2.0,354.7675470035756,1.0,2.0,phase_1,,,,,,,,,,,,,white,triangle
664.0,3.0,3.0,0.0,3.0,3.0,336.8183599959593,1.0,1.0,phase_1,,,,,,,,,,,,,cyan,hexagon
155.0,5.0,1.0,1.0,4.0,4.0,437.5762790004955,1.0,1.0,phase_1,,,,,,,,,,,,,orange,circle
0.0,2.0,0.0,0.0,3.0,3.0,373.5940250044223,1.0,1.0,phase_1,,,,,,,,,,,,,yellow,flipped triangle
309.0,6.0,2.0,1.0,1.0,1.0,531.3819729926763,1.0,1.0,phase_1,,,,,,,,,,,,,green,I
646.0,3.0,3.0,0.0,2.0,2.0,383.4949680021964,1.0,1.0,phase_1,,,,,,,,,,,,,cyan,hexagon
651.0,7.0,3.0,1.0,4.0,4.0,428.2164819887839,1.0,1.0,phase_1,,,,,,,,,,,,,gray,diamond
0.0,5.0,0.0,1.0,3.0,3.0,392.3336300067603,1.0,1.0,phase_1,,,,,,,,,,,,,orange,circle
675.0,3.0,3.0,0.0,1.0,1.0,484.297510003671,1.0,1.0,phase_1,,,,,,,,,,,,,cyan,hexagon
1287.0,4.0,4.0,0.0,1.0,1.0,513.193817998399,1.0,1.0,phase_1,,,,,,,,,,,,,white,triangle
327.0,6.0,2.0,1.0,2.0,2.0,372.7553259959677,1.0,1.0,phase_1,,,,,,,,,,,,,green,I
0.0,8.0,0.0,1.0,4.0,4.0,374.1206350096036,1.0,1.0,phase_1,,,,,,,,,,,,,blue,cross
1281.0,4.0,4.0,0.0,2.0,2.0,354.7551009978633,1.0,1.0,phase_1,,,,,,,,,,,,,white,triangle
311.0,2.0,2.0,0.0,4.0,4.0,429.283937002765,1.0,1.0,phase_1,,,,,,,,,,,,,yellow,flipped triangle
1295.0,4.0,4.0,0.0,3.0,3.0,391.999447994749,1.0,1.0,phase_1,,,,,,,,,,,,,white,triangle
1304.0,4.0,4.0,0.0,4.0,4.0,419.5464049989823,1.0,1.0,phase_1,,,,,,,,,,,,,white,triangle
140.0,5.0,1.0,1.0,1.0,1.0,475.4939769918564,1.0,1.0,phase_1,,,,,,,,,,,,,orange,circle
626.0,3.0,3.0,0.0,3.0,3.0,344.9762759992154,1.0,1.0,phase_1,,,,,,,,,,,,,cyan,hexagon
1294.0,8.0,4.0,1.0,2.0,2.0,334.5348650036612,1.0,1.0,phase_1,,,,,,,,,,,,,blue,cross
1304.0,4.0,4.0,0.0,2.0,2.0,373.0044230032945,1.0,1.0,phase_1,,,,,,,,,,,,,white,triangle
1304.0,8.0,4.0,1.0,3.0,3.0,371.9124329945771,1.0,1.0,phase_1,,,,,,,,,,,,,blue,cross
182.0,1.0,1.0,0.0,2.0,2.0,420.8471110032405,1.0,1.0,phase_1,,,,,,,,,,,,,magenta,square
1325.0,8.0,4.0,1.0,1.0,1.0,494.2988370021339,1.0,1.0,phase_1,,,,,,,,,,,,,blue,cross
162.0,1.0,1.0,0.0,4.0,4.0,381.8273270007921,1.0,1.0,phase_1,,,,,,,,,,,,,magenta,square
159.0,5.0,1.0,1.0,2.0,2.0,326.0231739986921,1.0,1.0,phase_1,,,,,,,,,,,,,orange,circle
312.0,6.0,2.0,1.0,4.0,4.0,381.584966002265,1.0,1.0,phase_1,,,,,,,,,,,,,green,I
1298.0,8.0,4.0,1.0,1.0,1.0,516.1671329988167,1.0,1.0,phase_1,,,,,,,,,,,,,blue,cross
332.0,6.0,2.0,1.0,2.0,2.0,646.6971359914169,1.0,1.0,phase_1,,,,,,,,,,,,,green,I
337.0,6.0,2.0,1.0,3.0,3.0,372.265994999907,1.0,1.0,phase_1,,,,,,,,,,,,,green,I
660.0,7.0,3.0,1.0,3.0,3.0,392.2940340125933,1.0,1.0,phase_1,,,,,,,,,,,,,gray,diamond
628.0,7.0,3.0,1.0,2.0,2.0,354.3800780025776,1.0,1.0,phase_1,,,,,,,,,,,,,gray,diamond
323.0,2.0,2.0,0.0,1.0,1.0,372.5809489988023,1.0,1.0,phase_1,,,,,,,,,,,,,yellow,flipped triangle
1286.0,8.0,4.0,1.0,1.0,1.0,409.6299189986894,1.0,2.0,phase_1,,,,,,,,,,,,,blue,cross
647.0,3.0,3.0,0.0,3.0,3.0,483.3587470056955,1.0,1.0,phase_1,,,,,,,,,,,,,cyan,hexagon
0.0,7.0,0.0,1.0,4.0,4.0,484.7301539994078,1.0,1.0,phase_1,,,,,,,,,,,,,gray,diamond
0.0,2.0,0.0,0.0,3.0,3.0,365.7784770039143,1.0,1.0,phase_1,,,,,,,,,,,,,yellow,flipped triangle
1308.0,4.0,4.0,0.0,2.0,2.0,343.7345520069357,1.0,1.0,phase_1,,,,,,,,,,,,,white,triangle
342.0,2.0,2.0,0.0,2.0,2.0,389.8100169899408,1.0,1.0,phase_1,,,,,,,,,,,,,yellow,flipped triangle
180.0,1.0,1.0,0.0,3.0,3.0,306.9766489934409,1.0,1.0,phase_1,,,,,,,,,,,,,magenta,square
659.0,3.0,3.0,0.0,1.0,1.0,316.5944920037873,1.0,1.0,phase_1,,,,,,,,,,,,,cyan,hexagon
154.0,1.0,1.0,0.0,2.0,2.0,335.1609559904318,1.0,1.0,phase_1,,,,,,,,,,,,,magenta,square
1303.0,8.0,4.0,1.0,3.0,3.0,445.597830999759,1.0,1.0,phase_1,,,,,,,,,,,,,blue,cross
1325.0,4.0,4.0,0.0,4.0,4.0,495.6722089991672,2.0,1.0,phase_1,,,,,,,,,,,,,white,triangle
175.0,5.0,1.0,1.0,1.0,1.0,337.349155000993,2.0,1.0,phase_1,,,,,,,,,,,,,orange,circle
0.0,5.0,0.0,1.0,2.0,2.0,353.6972519941628,2.0,1.0,phase_1,,,,,,,,,,,,,orange,circle
1305.0,8.0,4.0,1.0,4.0,4.0,345.1117189979413,2.0,1.0,phase_1,,,,,,,,,,,,,blue,cross
0.0,1.0,0.0,0.0,1.0,1.0,354.1782030079048,2.0,2.0,phase_1,,,,,,,,,,,,,magenta,square
637.0,3.0,3.0,0.0,2.0,2.0,353.1259859882993,2.0,1.0,phase_1,,,,,,,,,,,,,cyan,hexagon
660.0,3.0,3.0,0.0,4.0,4.0,362.5328630005242,2.0,1.0,phase_1,,,,,,,,,,,,,cyan,hexagon
306.0,6.0,2.0,1.0,1.0,1.0,446.6250379919074,2.0,1.0,phase_1,,,,,,,,,,,,,green,I
647.0,7.0,3.0,1.0,1.0,1.0,399.8571310075931,2.0,1.0,phase_1,,,,,,,,,,,,,gray,diamond
173.0,5.0,1.0,1.0,1.0,1.0,372.0925329980673,2.0,1.0,phase_1,,,,,,,,,,,,,orange,circle
0.0,6.0,0.0,1.0,4.0,4.0,296.876232008799,2.0,1.0,phase_1,,,,,,,,,,,,,green,I
0.0,7.0,0.0,1.0,4.0,4.0,456.0235629905946,2.0,1.0,phase_1,,,,,,,,,,,,,gray,diamond
166.0,5.0,1.0,1.0,3.0,3.0,382.8132299968274,2.0,1.0,phase_1,,,,,,,,,,,,,orange,circle
180.0,5.0,1.0,1.0,1.0,1.0,345.7233380031539,2.0,1.0,phase_1,,,,,,,,,,,,,orange,circle
348.0,6.0,2.0,1.0,2.0,2.0,428.4253840014571,2.0,1.0,phase_1,,,,,,,,,,,,,green,I
1321.0,4.0,4.0,0.0,2.0,2.0,530.9102899918798,2.0,1.0,phase_1,,,,,,,,,,,,,white,triangle
340.0,2.0,2.0,0.0,1.0,1.0,540.0197359995218,2.0,2.0,phase_1,,,,,,,,,,,,,yellow,flipped triangle
664.0,7.0,3.0,1.0,3.0,3.0,464.4324719993165,2.0,1.0,phase_1,,,,,,,,,,,,,gray,diamond
314.0,2.0,2.0,0.0,1.0,1.0,412.2305830096593,2.0,1.0,phase_1,,,,,,,,,,,,,yellow,flipped triangle
1286.0,4.0,4.0,0.0,4.0,4.0,345.4914419999113,2.0,1.0,phase_1,,,,,,,,,,,,,white,triangle
0.0,5.0,0.0,1.0,4.0,4.0,446.8524319963762,2.0,1.0,phase_1,,,,,,,,,,,,,orange,circle
0.0,8.0,0.0,1.0,4.0,4.0,337.3837239923887,2.0,1.0,phase_1,,,,,,,,,,,,,blue,cross
1310.0,4.0,4.0,0.0,3.0,3.0,419.9149909982225,2.0,1.0,phase_1,,,,,,,,,,,,,white,triangle
0.0,6.0,0.0,1.0,4.0,4.0,456.1488539911806,2.0,1.0,phase_1,,,,,,,,,,,,,green,I
157.0,1.0,1.0,0.0,4.0,4.0,402.399141996284,2.0,1.0,phase_1,,,,,,,,,,,,,magenta,square
1292.0,4.0,4.0,0.0,4.0,4.0,382.7003890037304,2.0,1.0,phase_1,,,,,,,,,,,,,white,triangle
1290.0,4.0,4.0,0.0,4.0,4.0,336.4802430005511,2.0,1.0,phase_1,,,,,,,,,,,,,white,triangle
0.0,3.0,0.0,0.0,4.0,4.0,353.322898998158,2.0,1.0,phase_1,,,,,,,,,,,,,cyan,hexagon
1302.0,4.0,4.0,0.0,4.0,4.0,326.4801620098296,2.0,1.0,phase_1,,,,,,,,,,,,,white,triangle
1313.0,4.0,4.0,0.0,1.0,1.0,493.3698719978565,2.0,1.0,phase_1,,,,,,,,,,,,,white,triangle
1278.0,8.0,4.0,1.0,2.0,2.0,428.5555530077545,2.0,1.0,phase_1,,,,,,,,,,,,,blue,cross
667.0,7.0,3.0,1.0,1.0,1.0,558.418692991836,2.0,1.0,phase_1,,,,,,,,,,,,,gray,diamond
646.0,7.0,3.0,1.0,4.0,4.0,419.3961929995566,2.0,1.0,phase_1,,,,,,,,,,,,,gray,diamond
648.0,3.0,3.0,0.0,1.0,1.0,483.4373439953197,2.0,1.0,phase_1,,,,,,,,,,,,,cyan,hexagon
303.0,6.0,2.0,1.0,3.0,3.0,353.7738570012152,2.0,1.0,phase_1,,,,,,,,,,,,,green,I
0.0,4.0,0.0,0.0,1.0,1.0,354.0684440085897,2.0,1.0,phase_1,,,,,,,,,,,,,white,triangle
329.0,6.0,2.0,1.0,3.0,3.0,362.9262250033207,2.0,1.0,phase_1,,,,,,,,,,,,,green,I
635.0,7.0,3.0,1.0,1.0,1.0,401.53672300220927,2.0,1.0,phase_1,,,,,,,,,,,,,gray,diamond
141.0,1.0,1.0,0.0,1.0,1.0,406.7982989945449,2.0,1.0,phase_1,,,,,,,,,,,,,magenta,square
336.0,6.0,2.0,1.0,2.0,2.0,372.4970409966772,2.0,1.0,phase_1,,,,,,,,,,,,,green,I
0.0,4.0,0.0,0.0,4.0,4.0,511.4984119863948,2.0,1.0,phase_1,,,,,,,,,,,,,white,triangle
633.0,7.0,3.0,1.0,4.0,4.0,400.2791840030113,2.0,1.0,phase_1,,,,,,,,,,,,,gray,diamond
336.0,2.0,2.0,0.0,3.0,3.0,382.188240007963,2.0,1.0,phase_1,,,,,,,,,,,,,yellow,flipped triangle
0.0,2.0,0.0,0.0,2.0,2.0,362.8997690102551,2.0,1.0,phase_1,,,,,,,,,,,,,yellow,flipped triangle
1310.0,8.0,4.0,1.0,3.0,3.0,502.26870299957227,2.0,1.0,phase_1,,,,,,,,,,,,,blue,cross
0.0,2.0,0.0,0.0,2.0,2.0,464.7411109908717,2.0,1.0,phase_1,,,,,,,,,,,,,yellow,flipped triangle
150.0,1.0,1.0,0.0,4.0,4.0,419.4570100080454,2.0,1.0,phase_1,,,,,,,,,,,,,magenta,square
157.0,5.0,1.0,1.0,2.0,2.0,363.4172409947496,2.0,1.0,phase_1,,,,,,,,,,,,,orange,circle
1288.0,8.0,4.0,1.0,2.0,2.0,335.0522240070859,2.0,1.0,phase_1,,,,,,,,,,,,,blue,cross
350.0,2.0,2.0,0.0,2.0,2.0,326.1425660020904,2.0,1.0,phase_1,,,,,,,,,,,,,yellow,flipped triangle
0.0,5.0,0.0,1.0,4.0,4.0,353.8251989957643,2.0,1.0,phase_1,,,,,,,,,,,,,orange,circle
316.0,2.0,2.0,0.0,3.0,3.0,511.4199569943594,2.0,1.0,phase_1,,,,,,,,,,,,,yellow,flipped triangle
313.0,2.0,2.0,0.0,4.0,4.0,363.9761439990252,2.0,1.0,phase_1,,,,,,,,,,,,,yellow,flipped triangle
168.0,1.0,1.0,0.0,2.0,2.0,427.2310880041914,2.0,1.0,phase_1,,,,,,,,,,,,,magenta,square
0.0,6.0,0.0,1.0,1.0,1.0,586.1107780074235,2.0,1.0,phase_1,,,,,,,,,,,,,green,I
1292.0,8.0,4.0,1.0,1.0,1.0,435.9517819975735,2.0,1.0,phase_1,,,,,,,,,,,,,blue,cross
667.0,7.0,3.0,1.0,4.0,4.0,409.4979249930475,2.0,1.0,phase_1,,,,,,,,,,,,,gray,diamond
1304.0,4.0,4.0,0.0,2.0,2.0,400.1928439975017,2.0,1.0,phase_1,,,,,,,,,,,,,white,triangle
1305.0,4.0,4.0,0.0,2.0,2.0,419.7969759989064,2.0,1.0,phase_1,,,,,,,,,,,,,white,triangle
0.0,1.0,0.0,0.0,2.0,2.0,400.4690919973654,2.0,1.0,phase_1,,,,,,,,,,,,,magenta,square
665.0,3.0,3.0,0.0,1.0,1.0,502.37645699235145,2.0,1.0,phase_1,,,,,,,,,,,,,cyan,hexagon
0.0,4.0,0.0,0.0,1.0,1.0,437.4736229947302,2.0,1.0,phase_1,,,,,,,,,,,,,white,triangle
1324.0,4.0,4.0,0.0,1.0,1.0,391.1460380040807,2.0,1.0,phase_1,,,,,,,,,,,,,white,triangle
155.0,1.0,1.0,0.0,4.0,4.0,380.5624240048928,2.0,1.0,phase_1,,,,,,,,,,,,,magenta,square
171.0,5.0,1.0,1.0,1.0,1.0,483.9564639987657,2.0,1.0,phase_1,,,,,,,,,,,,,orange,circle
0.0,7.0,0.0,1.0,3.0,3.0,411.1487119953381,2.0,1.0,phase_1,,,,,,,,,,,,,gray,diamond
304.0,6.0,2.0,1.0,4.0,4.0,429.4281629991019,2.0,1.0,phase_1,,,,,,,,,,,,,green,I
321.0,2.0,2.0,0.0,2.0,2.0,362.6612199877854,2.0,1.0,phase_1,,,,,,,,,,,,,yellow,flipped triangle
0.0,5.0,0.0,1.0,4.0,4.0,446.1398550047306,2.0,1.0,phase_1,,,,,,,,,,,,,orange,circle
325.0,6.0,2.0,1.0,3.0,3.0,411.4996410062304,2.0,1.0,phase_1,,,,,,,,,,,,,green,I
670.0,7.0,3.0,1.0,2.0,2.0,335.2695200010203,2.0,1.0,phase_1,,,,,,,,,,,,,gray,diamond
651.0,3.0,3.0,0.0,3.0,3.0,437.070076004602,2.0,1.0,phase_1,,,,,,,,,,,,,cyan,hexagon
163.0,1.0,1.0,0.0,1.0,1.0,566.4566769992234,2.0,1.0,phase_1,,,,,,,,,,,,,magenta,square
661.0,7.0,3.0,1.0,2.0,2.0,390.6154680007603,2.0,1.0,phase_1,,,,,,,,,,,,,gray,diamond
0.0,3.0,0.0,0.0,3.0,3.0,391.5555359999416,2.0,1.0,phase_1,,,,,,,,,,,,,cyan,hexagon
659.0,7.0,3.0,1.0,4.0,4.0,418.757371007814,2.0,1.0,phase_1,,,,,,,,,,,,,gray,diamond
151.0,5.0,1.0,1.0,4.0,4.0,391.4688240038231,2.0,1.0,phase_1,,,,,,,,,,,,,orange,circle
177.0,1.0,1.0,0.0,3.0,3.0,419.9398989876499,2.0,1.0,phase_1,,,,,,,,,,,,,magenta,square
667.0,3.0,3.0,0.0,4.0,4.0,400.617303996114,2.0,1.0,phase_1,,,,,,,,,,,,,cyan,hexagon
626.0,7.0,3.0,1.0,4.0,4.0,420.50277000817,2.0,1.0,phase_1,,,,,,,,,,,,,gray,diamond
651.0,7.0,3.0,1.0,2.0,2.0,362.4033470114227,2.0,1.0,phase_1,,,,,,,,,,,,,gray,diamond
174.0,5.0,1.0,1.0,4.0,4.0,355.4001209995476,2.0,1.0,phase_1,,,,,,,,,,,,,orange,circle
1311.0,8.0,4.0,1.0,1.0,1.0,493.3432360121514,2.0,1.0,phase_1,,,,,,,,,,,,,blue,cross
1288.0,4.0,4.0,0.0,3.0,3.0,335.2988139959052,2.0,1.0,phase_1,,,,,,,,,,,,,white,triangle
1299.0,4.0,4.0,0.0,4.0,4.0,352.6107290090294,2.0,1.0,phase_1,,,,,,,,,,,,,white,triangle
151.0,1.0,1.0,0.0,3.0,3.0,363.8615259988,2.0,1.0,phase_1,,,,,,,,,,,,,magenta,square
142.0,1.0,1.0,0.0,2.0,2.0,353.5527759959223,2.0,1.0,phase_1,,,,,,,,,,,,,magenta,square
1296.0,8.0,4.0,1.0,3.0,3.0,345.0247040018439,2.0,1.0,phase_1,,,,,,,,,,,,,blue,cross
642.0,3.0,3.0,0.0,3.0,3.0,362.4124769994523,2.0,1.0,phase_1,,,,,,,,,,,,,cyan,hexagon
302.0,2.0,2.0,0.0,1.0,1.0,585.864433000097,2.0,2.0,phase_1,,,,,,,,,,,,,yellow,flipped triangle
1325.0,8.0,4.0,1.0,1.0,1.0,613.6512889934238,2.0,1.0,phase_1,,,,,,,,,,,,,blue,cross
140.0,1.0,1.0,0.0,1.0,1.0,456.0594819922698,2.0,1.0,phase_1,,,,,,,,,,,,,magenta,square
160.0,5.0,1.0,1.0,3.0,3.0,390.8809310087235,2.0,1.0,phase_1,,,,,,,,,,,,,orange,circle
633.0,3.0,3.0,0.0,2.0,2.0,380.7360909995623,2.0,1.0,phase_1,,,,,,,,,,,,,cyan,hexagon
145.0,5.0,1.0,1.0,3.0,3.0,476.0528810002142,2.0,1.0,phase_1,,,,,,,,,,,,,orange,circle
0.0,2.0,0.0,0.0,2.0,2.0,371.6211970022414,2.0,1.0,phase_1,,,,,,,,,,,,,yellow,flipped triangle
151.0,1.0,1.0,0.0,4.0,4.0,485.4431440035114,2.0,1.0,phase_1,,,,,,,,,,,,,magenta,square
303.0,2.0,2.0,0.0,3.0,3.0,410.5277549970196,2.0,1.0,phase_1,,,,,,,,,,,,,yellow,flipped triangle
0.0,1.0,0.0,0.0,3.0,3.0,372.7107910090126,2.0,1.0,phase_1,,,,,,,,,,,,,magenta,square
311.0,6.0,2.0,1.0,4.0,4.0,299.4128760037711,2.0,1.0,phase_1,,,,,,,,,,,,,green,I
629.0,3.0,3.0,0.0,4.0,4.0,343.2652019982924,3.0,1.0,phase_1,,,,,,,,,,,,,cyan,hexagon
137.0,1.0,1.0,0.0,3.0,3.0,315.4308749944903,3.0,1.0,phase_1,,,,,,,,,,,,,magenta,square
1295.0,8.0,4.0,1.0,3.0,3.0,270.7595649990253,3.0,1.0,phase_1,,,,,,,,,,,,,blue,cross
164.0,1.0,1.0,0.0,3.0,3.0,325.1357760018436,3.0,1.0,phase_1,,,,,,,,,,,,,magenta,square
670.0,3.0,3.0,0.0,4.0,4.0,354.2571409925585,3.0,1.0,phase_1,,,,,,,,,,,,,cyan,hexagon
0.0,6.0,0.0,1.0,4.0,4.0,307.4469370039878,3.0,1.0,phase_1,,,,,,,,,,,,,green,I
313.0,6.0,2.0,1.0,4.0,4.0,316.6833360010059,3.0,1.0,phase_1,,,,,,,,,,,,,green,I
0.0,3.0,0.0,0.0,4.0,4.0,306.3986649940489,3.0,1.0,phase_1,,,,,,,,,,,,,cyan,hexagon
1283.0,8.0,4.0,1.0,3.0,3.0,287.5922059902223,3.0,1.0,phase_1,,,,,,,,,,,,,blue,cross
1278.0,4.0,4.0,0.0,2.0,2.0,371.7134229955263,3.0,1.0,phase_1,,,,,,,,,,,,,white,triangle
0.0,8.0,0.0,1.0,2.0,2.0,446.5244110033382,3.0,1.0,phase_1,,,,,,,,,,,,,blue,cross
667.0,3.0,3.0,0.0,2.0,2.0,359.964837989537,3.0,1.0,phase_1,,,,,,,,,,,,,cyan,hexagon
310.0,2.0,2.0,0.0,1.0,1.0,419.6663479960989,3.0,2.0,phase_1,,,,,,,,,,,,,yellow,flipped triangle
151.0,5.0,1.0,1.0,1.0,1.0,321.5596390073187,3.0,1.0,phase_1,,,,,,,,,,,,,orange,circle
665.0,7.0,3.0,1.0,1.0,1.0,297.238903993275,3.0,1.0,phase_1,,,,,,,,,,,,,gray,diamond
0.0,3.0,0.0,0.0,2.0,2.0,530.2504389983369,3.0,1.0,phase_1,,,,,,,,,,,,,cyan,hexagon
177.0,1.0,1.0,0.0,1.0,1.0,456.1303420050535,3.0,1.0,phase_1,,,,,,,,,,,,,magenta,square
629.0,7.0,3.0,1.0,1.0,1.0,428.8946500018937,3.0,1.0,phase_1,,,,,,,,,,,,,gray,diamond
0.0,3.0,0.0,0.0,1.0,1.0,363.2982940034708,3.0,1.0,phase_1,,,,,,,,,,,,,cyan,hexagon
166.0,1.0,1.0,0.0,4.0,4.0,345.5746260005981,3.0,1.0,phase_1,,,,,,,,,,,,,magenta,square
313.0,2.0,2.0,0.0,4.0,4.0,447.734057001071,3.0,1.0,phase_1,,,,,,,,,,,,,yellow,flipped triangle
324.0,6.0,2.0,1.0,2.0,2.0,399.5212680019904,3.0,1.0,phase_1,,,,,,,,,,,,,green,I
1325.0,4.0,4.0,0.0,3.0,3.0,392.6701369928196,3.0,2.0,phase_1,,,,,,,,,,,,,white,triangle
182.0,5.0,1.0,1.0,3.0,3.0,328.4688770072534,3.0,1.0,phase_1,,,,,,,,,,,,,orange,circle
635.0,3.0,3.0,0.0,4.0,4.0,356.361868995009,3.0,1.0,phase_1,,,,,,,,,,,,,cyan,hexagon
336.0,6.0,2.0,1.0,3.0,3.0,448.0849599931389,3.0,1.0,phase_1,,,,,,,,,,,,,green,I
1282.0,4.0,4.0,0.0,3.0,3.0,328.0585350003093,3.0,1.0,phase_1,,,,,,,,,,,,,white,triangle
346.0,2.0,2.0,0.0,4.0,4.0,354.4808689912315,3.0,1.0,phase_1,,,,,,,,,,,,,yellow,flipped triangle
672.0,7.0,3.0,1.0,1.0,1.0,465.502840001136,3.0,1.0,phase_1,,,,,,,,,,,,,gray,diamond
0.0,6.0,0.0,1.0,2.0,2.0,381.8831759999739,3.0,1.0,phase_1,,,,,,,,,,,,,green,I
0.0,7.0,0.0,1.0,4.0,4.0,328.1780529941898,3.0,1.0,phase_1,,,,,,,,,,,,,gray,diamond
1308.0,8.0,4.0,1.0,1.0,1.0,401.7987900006119,3.0,1.0,phase_1,,,,,,,,,,,,,blue,cross
324.0,2.0,2.0,0.0,1.0,1.0,535.636221000459,3.0,2.0,phase_1,,,,,,,,,,,,,yellow,flipped triangle
183.0,5.0,1.0,1.0,2.0,2.0,466.8272780108964,3.0,1.0,phase_1,,,,,,,,,,,,,orange,circle
321.0,2.0,2.0,0.0,1.0,1.0,571.2116029899335,3.0,1.0,phase_1,,,,,,,,,,,,,yellow,flipped triangle
1304.0,8.0,4.0,1.0,2.0,2.0,523.1910540023819,3.0,1.0,phase_1,,,,,,,,,,,,,blue,cross
340.0,6.0,2.0,1.0,1.0,1.0,440.7070460001705,3.0,1.0,phase_1,,,,,,,,,,,,,green,I
1313.0,8.0,4.0,1.0,1.0,1.0,393.5000269993907,3.0,1.0,phase_1,,,,,,,,,,,,,blue,cross
321.0,6.0,2.0,1.0,1.0,1.0,488.3821479888866,3.0,1.0,phase_1,,,,,,,,,,,,,green,I
315.0,2.0,2.0,0.0,4.0,4.0,401.2786230014171,3.0,1.0,phase_1,,,,,,,,,,,,,yellow,flipped triangle
159.0,1.0,1.0,0.0,4.0,4.0,401.6259789932519,3.0,1.0,phase_1,,,,,,,,,,,,,magenta,square
1296.0,4.0,4.0,0.0,1.0,1.0,484.7335890081012,3.0,1.0,phase_1,,,,,,,,,,,,,white,triangle
314.0,6.0,2.0,1.0,3.0,3.0,355.9055919904494,3.0,1.0,phase_1,,,,,,,,,,,,,green,I
672.0,3.0,3.0,0.0,2.0,2.0,353.7507540022488,3.0,1.0,phase_1,,,,,,,,,,,,,cyan,hexagon
145.0,5.0,1.0,1.0,3.0,3.0,316.656688999501,3.0,1.0,phase_1,,,,,,,,,,,,,orange,circle
660.0,3.0,3.0,0.0,3.0,3.0,383.6974599980749,3.0,1.0,phase_1,,,,,,,,,,,,,cyan,hexagon
637.0,7.0,3.0,1.0,3.0,3.0,390.2787499973783,3.0,1.0,phase_1,,,,,,,,,,,,,gray,diamond
1313.0,8.0,4.0,1.0,1.0,1.0,496.8735629954608,3.0,1.0,phase_1,,,,,,,,,,,,,blue,cross
0.0,8.0,0.0,1.0,2.0,2.0,530.1962179946713,3.0,1.0,phase_1,,,,,,,,,,,,,blue,cross
0.0,8.0,0.0,1.0,4.0,4.0,298.2313649990828,3.0,1.0,phase_1,,,,,,,,,,,,,blue,cross
335.0,6.0,2.0,1.0,1.0,1.0,402.0141949877143,3.0,1.0,phase_1,,,,,,,,,,,,,green,I
0.0,8.0,0.0,1.0,4.0,4.0,402.0631929888623,3.0,2.0,phase_1,,,,,,,,,,,,,blue,cross
672.0,7.0,3.0,1.0,2.0,2.0,353.2669709966285,3.0,1.0,phase_1,,,,,,,,,,,,,gray,diamond
349.0,2.0,2.0,0.0,2.0,2.0,473.7592870078515,3.0,1.0,phase_1,,,,,,,,,,,,,yellow,flipped triangle
151.0,1.0,1.0,0.0,4.0,4.0,261.1757060076343,3.0,1.0,phase_1,,,,,,,,,,,,,magenta,square
669.0,7.0,3.0,1.0,3.0,3.0,549.4544789980864,3.0,1.0,phase_1,,,,,,,,,,,,,gray,diamond
651.0,3.0,3.0,0.0,2.0,2.0,438.4600029879948,3.0,1.0,phase_1,,,,,,,,,,,,,cyan,hexagon
647.0,7.0,3.0,1.0,3.0,3.0,474.3652470060624,3.0,1.0,phase_1,,,,,,,,,,,,,gray,diamond
637.0,7.0,3.0,1.0,3.0,3.0,372.0229570026276,3.0,1.0,phase_1,,,,,,,,,,,,,gray,diamond
642.0,7.0,3.0,1.0,3.0,3.0,353.1330779951531,3.0,1.0,phase_1,,,,,,,,,,,,,gray,diamond
661.0,3.0,3.0,0.0,4.0,4.0,308.4050030010985,3.0,1.0,phase_1,,,,,,,,,,,,,cyan,hexagon
0.0,7.0,0.0,1.0,4.0,4.0,418.6768629879225,3.0,1.0,phase_1,,,,,,,,,,,,,gray,diamond
0.0,1.0,0.0,0.0,3.0,3.0,428.2771850121207,3.0,1.0,phase_1,,,,,,,,,,,,,magenta,square
0.0,1.0,0.0,0.0,4.0,4.0,334.9601359950611,3.0,1.0,phase_1,,,,,,,,,,,,,magenta,square
1305.0,8.0,4.0,1.0,2.0,2.0,373.1227889948059,3.0,1.0,phase_1,,,,,,,,,,,,,blue,cross
137.0,1.0,1.0,0.0,2.0,2.0,430.2358319982886,3.0,1.0,phase_1,,,,,,,,,,,,,magenta,square
306.0,2.0,2.0,0.0,2.0,2.0,420.4952209984185,3.0,1.0,phase_1,,,,,,,,,,,,,yellow,flipped triangle
672.0,3.0,3.0,0.0,1.0,1.0,523.2572570093907,3.0,2.0,phase_1,,,,,,,,,,,,,cyan,hexagon
155.0,1.0,1.0,0.0,3.0,3.0,428.1973080069292,3.0,1.0,phase_1,,,,,,,,,,,,,magenta,square
348.0,2.0,2.0,0.0,4.0,4.0,475.6262510054512,3.0,1.0,phase_1,,,,,,,,,,,,,yellow,flipped triangle
350.0,6.0,2.0,1.0,2.0,2.0,414.0601899998728,3.0,1.0,phase_1,,,,,,,,,,,,,green,I
0.0,6.0,0.0,1.0,1.0,1.0,438.0159569991519,3.0,1.0,phase_1,,,,,,,,,,,,,green,I
0.0,7.0,0.0,1.0,1.0,1.0,446.4770010090433,3.0,1.0,phase_1,,,,,,,,,,,,,gray,diamond
181.0,5.0,1.0,1.0,3.0,3.0,363.77849499695,3.0,1.0,phase_1,,,,,,,,,,,,,orange,circle
0.0,7.0,0.0,1.0,1.0,1.0,344.0949670039117,3.0,1.0,phase_1,,,,,,,,,,,,,gray,diamond
1311.0,4.0,4.0,0.0,2.0,2.0,429.5712629973423,3.0,1.0,phase_1,,,,,,,,,,,,,white,triangle
348.0,6.0,2.0,1.0,2.0,2.0,458.5446779965423,3.0,1.0,phase_1,,,,,,,,,,,,,green,I
631.0,3.0,3.0,0.0,3.0,3.0,439.0420200070366,3.0,1.0,phase_1,,,,,,,,,,,,,cyan,hexagon
0.0,4.0,0.0,0.0,3.0,3.0,429.5303660037461,3.0,1.0,phase_1,,,,,,,,,,,,,white,triangle
327.0,2.0,2.0,0.0,4.0,4.0,569.0055279992521,3.0,1.0,phase_1,,,,,,,,,,,,,yellow,flipped triangle
631.0,7.0,3.0,1.0,4.0,4.0,438.6784700036514,3.0,1.0,phase_1,,,,,,,,,,,,,gray,diamond
626.0,7.0,3.0,1.0,1.0,1.0,521.5634280029917,3.0,1.0,phase_1,,,,,,,,,,,,,gray,diamond
0.0,1.0,0.0,0.0,2.0,2.0,474.9528660031501,3.0,1.0,phase_1,,,,,,,,,,,,,magenta,square
1299.0,8.0,4.0,1.0,3.0,3.0,392.4470110068796,3.0,1.0,phase_1,,,,,,,,,,,,,blue,cross
638.0,3.0,3.0,0.0,1.0,1.0,447.8267049998976,3.0,1.0,phase_1,,,,,,,,,,,,,cyan,hexagon
176.0,1.0,1.0,0.0,3.0,3.0,362.8009969979757,3.0,1.0,phase_1,,,,,,,,,,,,,magenta,square
0.0,7.0,0.0,1.0,4.0,4.0,326.6237339994404,3.0,1.0,phase_1,,,,,,,,,,,,,gray,diamond
310.0,2.0,2.0,0.0,2.0,2.0,337.3417449911358,3.0,1.0,phase_1,,,,,,,,,,,,,yellow,flipped triangle
181.0,1.0,1.0,0.0,2.0,2.0,438.8893129944335,3.0,1.0,phase_1,,,,,,,,,,,,,magenta,square
655.0,7.0,3.0,1.0,2.0,2.0,307.826736010611,3.0,1.0,phase_1,,,,,,,,,,,,,gray,diamond
648.0,7.0,3.0,1.0,1.0,1.0,538.4135210042587,3.0,1.0,phase_1,,,,,,,,,,,,,gray,diamond
140.0,5.0,1.0,1.0,4.0,4.0,699.3998289981391,3.0,1.0,phase_1,,,,,,,,,,,,,orange,circle
1320.0,4.0,4.0,0.0,4.0,4.0,419.2107230046531,3.0,1.0,phase_1,,,,,,,,,,,,,white,triangle
137.0,5.0,1.0,1.0,1.0,1.0,427.8775499988114,3.0,1.0,phase_1,,,,,,,,,,,,,orange,circle
0.0,1.0,0.0,0.0,1.0,1.0,439.0558750019409,3.0,1.0,phase_1,,,,,,,,,,,,,magenta,square
0.0,1.0,0.0,0.0,4.0,4.0,449.0084249991923,3.0,1.0,phase_1,,,,,,,,,,,,,magenta,square
174.0,1.0,1.0,0.0,2.0,2.0,438.0422569956863,3.0,1.0,phase_1,,,,,,,,,,,,,magenta,square
1294.0,4.0,4.0,0.0,4.0,4.0,363.7130129936849,3.0,1.0,phase_1,,,,,,,,,,,,,white,triangle
1316.0,4.0,4.0,0.0,2.0,2.0,437.7317920007044,3.0,1.0,phase_1,,,,,,,,,,,,,white,triangle
180.0,5.0,1.0,1.0,3.0,3.0,373.3035640034359,3.0,1.0,phase_1,,,,,,,,,,,,,orange,circle
655.0,3.0,3.0,0.0,3.0,3.0,354.3679459980922,4.0,1.0,phase_1,,,,,,,,,,,,,cyan,hexagon
1282.0,8.0,4.0,1.0,4.0,4.0,317.2906419931678,4.0,1.0,phase_1,,,,,,,,,,,,,blue,cross
306.0,2.0,2.0,0.0,2.0,2.0,335.3377649909816,4.0,1.0,phase_1,,,,,,,,,,,,,yellow,flipped triangle
640.0,7.0,3.0,1.0,3.0,3.0,289.253370006918,4.0,1.0,phase_1,,,,,,,,,,,,,gray,diamond
1283.0,4.0,4.0,0.0,3.0,3.0,326.8669880053494,4.0,1.0,phase_1,,,,,,,,,,,,,white,triangle
647.0,3.0,3.0,0.0,2.0,2.0,345.5420590034919,4.0,1.0,phase_1,,,,,,,,,,,,,cyan,hexagon
1281.0,8.0,4.0,1.0,2.0,2.0,344.8966599971754,4.0,1.0,phase_1,,,,,,,,,,,,,blue,cross
1299.0,4.0,4.0,0.0,1.0,1.0,373.3668860077159,4.0,1.0,phase_1,,,,,,,,,,,,,white,triangle
310.0,6.0,2.0,1.0,4.0,4.0,290.5761329893721,4.0,1.0,phase_1,,,,,,,,,,,,,green,I
1287.0,4.0,4.0,0.0,3.0,3.0,318.4019250038545,4.0,1.0,phase_1,,,,,,,,,,,,,white,triangle
166.0,1.0,1.0,0.0,2.0,2.0,345.7404869986931,4.0,1.0,phase_1,,,,,,,,,,,,,magenta,square
0.0,4.0,0.0,0.0,4.0,4.0,318.1571240129415,4.0,1.0,phase_1,,,,,,,,,,,,,white,triangle
0.0,6.0,0.0,1.0,2.0,2.0,363.6001569975633,4.0,1.0,phase_1,,,,,,,,,,,,,green,I
0.0,3.0,0.0,0.0,4.0,4.0,308.5245170077542,4.0,1.0,phase_1,,,,,,,,,,,,,cyan,hexagon
1303.0,4.0,4.0,0.0,1.0,1.0,393.19283500663,4.0,1.0,phase_1,,,,,,,,,,,,,white,triangle
0.0,5.0,0.0,1.0,1.0,1.0,437.5993980065686,4.0,1.0,phase_1,,,,,,,,,,,,,orange,circle
313.0,6.0,2.0,1.0,2.0,2.0,432.212043000618,4.0,1.0,phase_1,,,,,,,,,,,,,green,I
0.0,5.0,0.0,1.0,1.0,1.0,401.037871997687,4.0,1.0,phase_1,,,,,,,,,,,,,orange,circle
323.0,6.0,2.0,1.0,1.0,1.0,371.9441669963998,4.0,1.0,phase_1,,,,,,,,,,,,,green,I
0.0,3.0,0.0,0.0,2.0,2.0,399.2519320017891,4.0,1.0,phase_1,,,,,,,,,,,,,cyan,hexagon
1279.0,4.0,4.0,0.0,3.0,3.0,354.1139640001347,4.0,1.0,phase_1,,,,,,,,,,,,,white,triangle
162.0,5.0,1.0,1.0,4.0,4.0,381.3482700061286,4.0,1.0,phase_1,,,,,,,,,,,,,orange,circle
137.0,5.0,1.0,1.0,1.0,1.0,297.6107940048678,4.0,1.0,phase_1,,,,,,,,,,,,,orange,circle
1302.0,8.0,4.0,1.0,4.0,4.0,381.4851990027819,4.0,1.0,phase_1,,,,,,,,,,,,,blue,cross
0.0,4.0,0.0,0.0,3.0,3.0,455.3922219929518,4.0,1.0,phase_1,,,,,,,,,,,,,white,triangle
669.0,3.0,3.0,0.0,2.0,2.0,334.9559119960759,4.0,1.0,phase_1,,,,,,,,,,,,,cyan,hexagon
1276.0,8.0,4.0,1.0,2.0,2.0,419.0638319996651,4.0,1.0,phase_1,,,,,,,,,,,,,blue,cross
145.0,1.0,1.0,0.0,4.0,4.0,399.5150529954117,4.0,1.0,phase_1,,,,,,,,,,,,,magenta,square
150.0,5.0,1.0,1.0,3.0,3.0,411.1669569974765,4.0,1.0,phase_1,,,,,,,,,,,,,orange,circle
340.0,6.0,2.0,1.0,4.0,4.0,317.8723590099253,4.0,1.0,phase_1,,,,,,,,,,,,,green,I
634.0,3.0,3.0,0.0,1.0,1.0,382.7937930036569,4.0,1.0,phase_1,,,,,,,,,,,,,cyan,hexagon
309.0,2.0,2.0,0.0,3.0,3.0,346.303746002377,4.0,1.0,phase_1,,,,,,,,,,,,,yellow,flipped triangle
0.0,2.0,0.0,0.0,2.0,2.0,325.5950760067208,4.0,1.0,phase_1,,,,,,,,,,,,,yellow,flipped triangle
648.0,7.0,3.0,1.0,2.0,2.0,373.702440992929,4.0,1.0,phase_1,,,,,,,,,,,,,gray,diamond
0.0,6.0,0.0,1.0,3.0,3.0,317.7614430023823,4.0,1.0,phase_1,,,,,,,,,,,,,green,I
346.0,6.0,2.0,1.0,3.0,3.0,381.5461460035294,4.0,1.0,phase_1,,,,,,,,,,,,,green,I
306.0,6.0,2.0,1.0,1.0,1.0,409.4763409957522,4.0,1.0,phase_1,,,,,,,,,,,,,green,I
346.0,2.0,2.0,0.0,2.0,2.0,325.7477339939214,4.0,1.0,phase_1,,,,,,,,,,,,,yellow,flipped triangle
163.0,1.0,1.0,0.0,3.0,3.0,335.4076170071494,4.0,1.0,phase_1,,,,,,,,,,,,,magenta,square
664.0,7.0,3.0,1.0,3.0,3.0,420.47535900201177,4.0,1.0,phase_1,,,,,,,,,,,,,gray,diamond
163.0,5.0,1.0,1.0,2.0,2.0,354.7431280021555,4.0,1.0,phase_1,,,,,,,,,,,,,orange,circle
1294.0,8.0,4.0,1.0,1.0,1.0,454.804127002717,4.0,1.0,phase_1,,,,,,,,,,,,,blue,cross
640.0,3.0,3.0,0.0,1.0,1.0,381.6758620087057,4.0,1.0,phase_1,,,,,,,,,,,,,cyan,hexagon
0.0,5.0,0.0,1.0,1.0,1.0,484.6806860005017,4.0,1.0,phase_1,,,,,,,,,,,,,orange,circle
648.0,3.0,3.0,0.0,1.0,1.0,344.5248420030111,4.0,1.0,phase_1,,,,,,,,,,,,,cyan,hexagon
0.0,3.0,0.0,0.0,1.0,1.0,362.7204360091127,4.0,1.0,phase_1,,,,,,,,,,,,,cyan,hexagon
1305.0,4.0,4.0,0.0,3.0,3.0,305.6161280110245,4.0,1.0,phase_1,,,,,,,,,,,,,white,triangle
325.0,2.0,2.0,0.0,1.0,1.0,325.6311500008451,4.0,1.0,phase_1,,,,,,,,,,,,,yellow,flipped triangle
1287.0,8.0,4.0,1.0,3.0,3.0,298.6035220092162,4.0,1.0,phase_1,,,,,,,,,,,,,blue,cross
637.0,7.0,3.0,1.0,2.0,2.0,316.2259700038703,4.0,1.0,phase_1,,,,,,,,,,,,,gray,diamond
1310.0,8.0,4.0,1.0,2.0,2.0,375.7210970070446,4.0,1.0,phase_1,,,,,,,,,,,,,blue,cross
0.0,8.0,0.0,1.0,3.0,3.0,373.9238760026637,4.0,1.0,phase_1,,,,,,,,,,,,,blue,cross
1310.0,4.0,4.0,0.0,1.0,1.0,420.0769180024508,4.0,1.0,phase_1,,,,,,,,,,,,,white,triangle
628.0,3.0,3.0,0.0,4.0,4.0,392.6856589969247,4.0,1.0,phase_1,,,,,,,,,,,,,cyan,hexagon
643.0,3.0,3.0,0.0,4.0,4.0,438.9636599953519,4.0,1.0,phase_1,,,,,,,,,,,,,cyan,hexagon
660.0,7.0,3.0,1.0,1.0,1.0,354.8124210064998,4.0,1.0,phase_1,,,,,,,,,,,,,gray,diamond
1304.0,4.0,4.0,0.0,3.0,3.0,271.3961199915502,4.0,1.0,phase_1,,,,,,,,,,,,,white,triangle
0.0,7.0,0.0,1.0,3.0,3.0,383.1931809982052,4.0,1.0,phase_1,,,,,,,,,,,,,gray,diamond
310.0,6.0,2.0,1.0,4.0,4.0,364.9519669997971,4.0,1.0,phase_1,,,,,,,,,,,,,green,I
1276.0,4.0,4.0,0.0,1.0,1.0,393.3454009966226,4.0,2.0,phase_1,,,,,,,,,,,,,white,triangle
1313.0,4.0,4.0,0.0,4.0,4.0,598.9035279926611,4.0,1.0,phase_1,,,,,,,,,,,,,white,triangle
145.0,1.0,1.0,0.0,2.0,2.0,393.0966049956623,4.0,1.0,phase_1,,,,,,,,,,,,,magenta,square
1316.0,8.0,4.0,1.0,4.0,4.0,355.6580489967018,4.0,1.0,phase_1,,,,,,,,,,,,,blue,cross
648.0,7.0,3.0,1.0,2.0,2.0,439.8890579905128,4.0,1.0,phase_1,,,,,,,,,,,,,gray,diamond
333.0,6.0,2.0,1.0,2.0,2.0,402.4712879909202,4.0,1.0,phase_1,,,,,,,,,,,,,green,I
340.0,2.0,2.0,0.0,1.0,1.0,466.279473999748,4.0,2.0,phase_1,,,,,,,,,,,,,yellow,flipped triangle
0.0,6.0,0.0,1.0,4.0,4.0,408.7232830061111,4.0,1.0,phase_1,,,,,,,,,,,,,green,I
1299.0,8.0,4.0,1.0,4.0,4.0,363.6233610013732,4.0,1.0,phase_1,,,,,,,,,,,,,blue,cross
329.0,2.0,2.0,0.0,1.0,1.0,437.0127660076832,4.0,1.0,phase_1,,,,,,,,,,,,,yellow,flipped triangle
142.0,5.0,1.0,1.0,2.0,2.0,344.0392159973271,4.0,1.0,phase_1,,,,,,,,,,,,,orange,circle
0.0,4.0,0.0,0.0,1.0,1.0,355.7931089890189,4.0,2.0,phase_1,,,,,,,,,,,,,white,triangle
1321.0,8.0,4.0,1.0,2.0,2.0,427.83629799669137,4.0,1.0,phase_1,,,,,,,,,,,,,blue,cross
163.0,5.0,1.0,1.0,4.0,4.0,418.2244690018706,4.0,1.0,phase_1,,,,,,,,,,,,,orange,circle
304.0,2.0,2.0,0.0,4.0,4.0,428.793898987351,4.0,1.0,phase_1,,,,,,,,,,,,,yellow,flipped triangle
0.0,2.0,0.0,0.0,4.0,4.0,345.0120220077224,4.0,1.0,phase_1,,,,,,,,,,,,,yellow,flipped triangle
0.0,5.0,0.0,1.0,4.0,4.0,324.7400079999352,4.0,1.0,phase_1,,,,,,,,,,,,,orange,circle
164.0,1.0,1.0,0.0,1.0,1.0,428.0110850086203,4.0,1.0,phase_1,,,,,,,,,,,,,magenta,square
173.0,5.0,1.0,1.0,2.0,2.0,520.2210120041855,4.0,2.0,phase_1,,,,,,,,,,,,,orange,circle
306.0,6.0,2.0,1.0,2.0,2.0,397.9257059982046,4.0,1.0,phase_1,,,,,,,,,,,,,green,I
164.0,5.0,1.0,1.0,2.0,2.0,381.4242259977618,4.0,1.0,phase_1,,,,,,,,,,,,,orange,circle
336.0,2.0,2.0,0.0,4.0,4.0,279.9831640004413,4.0,1.0,phase_1,,,,,,,,,,,,,yellow,flipped triangle
1294.0,4.0,4.0,0.0,1.0,1.0,343.1875919923186,4.0,1.0,phase_1,,,,,,,,,,,,,white,triangle
0.0,1.0,0.0,0.0,4.0,4.0,493.4421829966595,4.0,1.0,phase_1,,,,,,,,,,,,,magenta,square
335.0,2.0,2.0,0.0,2.0,2.0,444.8004150035558,4.0,1.0,phase_1,,,,,,,,,,,,,yellow,flipped triangle
643.0,7.0,3.0,1.0,4.0,4.0,436.882466005045,4.0,1.0,phase_1,,,,,,,,,,,,,gray,diamond
346.0,6.0,2.0,1.0,3.0,3.0,493.8487960025668,4.0,1.0,phase_1,,,,,,,,,,,,,green,I
343.0,6.0,2.0,1.0,4.0,4.0,419.5856800070032,4.0,1.0,phase_1,,,,,,,,,,,,,green,I
0.0,7.0,0.0,1.0,3.0,3.0,362.1346180007094,4.0,1.0,phase_1,,,,,,,,,,,,,gray,diamond
0.0,3.0,0.0,0.0,3.0,3.0,325.0475170061691,4.0,1.0,phase_1,,,,,,,,,,,,,cyan,hexagon
0.0,8.0,0.0,1.0,1.0,1.0,362.4499330035178,4.0,1.0,phase_1,,,,,,,,,,,,,blue,cross
1304.0,8.0,4.0,1.0,4.0,4.0,427.5056899932679,4.0,1.0,phase_1,,,,,,,,,,,,,blue,cross
154.0,5.0,1.0,1.0,4.0,4.0,326.2698489998001,4.0,1.0,phase_1,,,,,,,,,,,,,orange,circle
1279.0,8.0,4.0,1.0,3.0,3.0,373.0967080045957,4.0,1.0,phase_1,,,,,,,,,,,,,blue,cross
343.0,2.0,2.0,0.0,3.0,3.0,427.0349750004243,4.0,1.0,phase_1,,,,,,,,,,,,,yellow,flipped triangle
665.0,7.0,3.0,1.0,4.0,4.0,364.0644739934942,4.0,1.0,phase_1,,,,,,,,,,,,,gray,diamond
0.0,8.0,0.0,1.0,4.0,4.0,631.7375340004219,4.0,1.0,phase_1,,,,,,,,,,,,,blue,cross
155.0,5.0,1.0,1.0,2.0,2.0,483.9406419923762,4.0,1.0,phase_1,,,,,,,,,,,,,orange,circle
1320.0,8.0,4.0,1.0,4.0,4.0,352.6133539999136,4.0,1.0,phase_1,,,,,,,,,,,,,blue,cross
626.0,3.0,3.0,0.0,4.0,4.0,363.8542800035793,4.0,1.0,phase_1,,,,,,,,,,,,,cyan,hexagon
638.0,7.0,3.0,1.0,2.0,2.0,474.0134439925896,4.0,1.0,phase_1,,,,,,,,,,,,,gray,diamond
0.0,4.0,4.0,0.0,5.0,5.0,402.9070309916278,1.0,1.0,phase_2,go,250.0,250.0,1.0,,,,,,,,,white,triangle
0.0,7.0,3.0,1.0,5.0,0.0,0.0,1.0,1.0,phase_2,stop,250.0,250.0,4.0,,,,,,,,,gray,diamond
0.0,5.0,1.0,1.0,5.0,0.0,0.0,1.0,1.0,phase_2,stop,300.0,250.0,4.0,,,,,,,,,orange,circle
0.0,4.0,4.0,0.0,6.0,6.0,581.6189909965033,1.0,1.0,phase_2,go,350.0,250.0,1.0,,,,,,,,,white,triangle
0.0,7.0,3.0,1.0,6.0,0.0,0.0,1.0,1.0,phase_2,stop,350.0,250.0,4.0,,,,,,,,,gray,diamond
0.0,5.0,1.0,1.0,6.0,6.0,788.3548270037863,1.0,1.0,phase_2,go,350.0,300.0,1.0,,,,,,,,,orange,circle
0.0,6.0,2.0,1.0,6.0,0.0,0.0,1.0,1.0,phase_2,stop,350.0,300.0,4.0,,,,,,,,,green,I
0.0,2.0,2.0,0.0,5.0,5.0,825.2118870004779,1.0,1.0,phase_2,go,350.0,350.0,1.0,,,,,,,,,yellow,flipped triangle
0.0,4.0,4.0,0.0,6.0,6.0,677.3014919890556,1.0,1.0,phase_2,go,350.0,350.0,1.0,,,,,,,,,white,triangle
0.0,2.0,2.0,0.0,5.0,5.0,750.8718790049898,1.0,1.0,phase_2,go,350.0,350.0,1.0,,,,,,,,,yellow,flipped triangle
0.0,3.0,3.0,0.0,5.0,5.0,761.3009410124505,1.0,1.0,phase_2,go,350.0,350.0,1.0,,,,,,,,,cyan,hexagon
0.0,5.0,1.0,1.0,5.0,0.0,0.0,1.0,1.0,phase_2,stop,350.0,350.0,4.0,,,,,,,,,orange,circle
0.0,1.0,1.0,0.0,6.0,6.0,768.4360499988543,1.0,1.0,phase_2,go,400.0,350.0,1.0,,,,,,,,,magenta,square
0.0,2.0,2.0,0.0,5.0,5.0,573.3472270076163,1.0,1.0,phase_2,go,400.0,350.0,1.0,,,,,,,,,yellow,flipped triangle
0.0,1.0,1.0,0.0,6.0,6.0,507.2913240001071,1.0,1.0,phase_2,go,400.0,350.0,1.0,,,,,,,,,magenta,square
0.0,2.0,2.0,0.0,5.0,5.0,347.6438670040807,1.0,1.0,phase_2,go,400.0,350.0,1.0,,,,,,,,,yellow,flipped triangle
0.0,6.0,2.0,1.0,5.0,5.0,374.4938029994955,1.0,1.0,phase_2,stop,400.0,350.0,3.0,,,,,,,,,green,I
0.0,4.0,4.0,0.0,6.0,6.0,685.9289370040642,1.0,1.0,phase_2,go,350.0,350.0,1.0,,,,,,,,,white,triangle
0.0,1.0,1.0,0.0,5.0,5.0,696.4900150051108,1.0,1.0,phase_2,go,350.0,350.0,1.0,,,,,,,,,magenta,square
0.0,2.0,2.0,0.0,5.0,5.0,618.8697939942358,1.0,1.0,phase_2,go,350.0,350.0,1.0,,,,,,,,,yellow,flipped triangle
0.0,3.0,3.0,0.0,5.0,5.0,573.3559960062848,1.0,1.0,phase_2,go,350.0,350.0,1.0,,,,,,,,,cyan,hexagon
0.0,3.0,3.0,0.0,5.0,5.0,638.576188008301,1.0,1.0,phase_2,go,350.0,350.0,1.0,,,,,,,,,cyan,hexagon
0.0,6.0,2.0,1.0,6.0,0.0,0.0,1.0,1.0,phase_2,stop,350.0,350.0,4.0,,,,,,,,,green,I
0.0,8.0,4.0,1.0,6.0,6.0,683.9816789870383,1.0,1.0,phase_2,go,350.0,400.0,1.0,,,,,,,,,blue,cross
0.0,1.0,1.0,0.0,5.0,5.0,338.1271699909121,1.0,1.0,phase_2,go,350.0,400.0,1.0,,,,,,,,,magenta,square
0.0,1.0,1.0,0.0,6.0,6.0,357.8898970008595,1.0,1.0,phase_2,go,350.0,400.0,1.0,,,,,,,,,magenta,square
0.0,3.0,3.0,0.0,6.0,6.0,451.6215150069911,1.0,1.0,phase_2,go,350.0,400.0,1.0,,,,,,,,,cyan,hexagon
0.0,3.0,3.0,0.0,5.0,5.0,328.6480759998085,1.0,1.0,phase_2,go,350.0,400.0,1.0,,,,,,,,,cyan,hexagon
0.0,2.0,2.0,0.0,5.0,5.0,590.7417599955807,1.0,1.0,phase_2,go,350.0,400.0,1.0,,,,,,,,,yellow,flipped triangle
0.0,8.0,4.0,1.0,6.0,6.0,486.5480580047006,1.0,1.0,phase_2,stop,350.0,400.0,3.0,,,,,,,,,blue,cross
0.0,4.0,4.0,0.0,5.0,5.0,477.7594740007771,1.0,1.0,phase_2,go,350.0,350.0,1.0,,,,,,,,,white,triangle
0.0,6.0,2.0,1.0,6.0,0.0,0.0,1.0,1.0,phase_2,stop,350.0,350.0,4.0,,,,,,,,,green,I
0.0,3.0,3.0,0.0,6.0,6.0,864.7636770037934,1.0,1.0,phase_2,go,350.0,400.0,1.0,,,,,,,,,cyan,hexagon
0.0,8.0,4.0,1.0,5.0,5.0,648.3558459876804,1.0,1.0,phase_2,go,350.0,400.0,1.0,,,,,,,,,blue,cross
0.0,6.0,2.0,1.0,5.0,0.0,0.0,1.0,1.0,phase_2,stop,350.0,400.0,4.0,,,,,,,,,green,I
0.0,1.0,1.0,0.0,5.0,5.0,591.4867519895779,1.0,1.0,phase_2,go,400.0,400.0,1.0,,,,,,,,,magenta,square
0.0,6.0,2.0,1.0,6.0,6.0,1042.0974760054378,2.0,1.0,phase_2,go,400.0,400.0,1.0,,,,,,,,,green,I
0.0,6.0,2.0,1.0,6.0,6.0,526.4098179904977,2.0,1.0,phase_2,stop,400.0,400.0,3.0,,,,,,,,,green,I
0.0,5.0,1.0,1.0,5.0,5.0,570.738276001066,2.0,1.0,phase_2,go,400.0,350.0,1.0,,,,,,,,,orange,circle
0.0,6.0,2.0,1.0,6.0,6.0,712.2089290060103,2.0,1.0,phase_2,go,400.0,350.0,1.0,,,,,,,,,green,I
0.0,6.0,2.0,1.0,6.0,0.0,0.0,2.0,1.0,phase_2,stop,400.0,350.0,4.0,,,,,,,,,green,I
0.0,7.0,3.0,1.0,5.0,5.0,560.8812910068082,2.0,1.0,phase_2,stop,400.0,400.0,3.0,,,,,,,,,gray,diamond
0.0,2.0,2.0,0.0,6.0,6.0,871.2364110106137,2.0,1.0,phase_2,go,350.0,400.0,1.0,,,,,,,,,yellow,flipped triangle
0.0,5.0,1.0,1.0,5.0,5.0,739.5517270051641,2.0,1.0,phase_2,go,350.0,400.0,1.0,,,,,,,,,orange,circle
0.0,1.0,1.0,0.0,6.0,6.0,693.0212980078068,2.0,1.0,phase_2,go,350.0,400.0,1.0,,,,,,,,,magenta,square
0.0,3.0,3.0,0.0,6.0,6.0,1059.1894579993095,2.0,1.0,phase_2,go,350.0,400.0,1.0,,,,,,,,,cyan,hexagon
0.0,1.0,1.0,0.0,6.0,6.0,815.3858820005553,2.0,1.0,phase_2,go,350.0,400.0,1.0,,,,,,,,,magenta,square
0.0,4.0,4.0,0.0,5.0,5.0,515.0948369991966,2.0,1.0,phase_2,go,350.0,400.0,1.0,,,,,,,,,white,triangle
0.0,4.0,4.0,0.0,5.0,5.0,385.2482469956158,2.0,1.0,phase_2,go,350.0,400.0,1.0,,,,,,,,,white,triangle
0.0,3.0,3.0,0.0,6.0,6.0,356.076434996794,2.0,1.0,phase_2,go,350.0,400.0,1.0,,,,,,,,,cyan,hexagon
0.0,2.0,2.0,0.0,6.0,6.0,731.0032199893612,2.0,1.0,phase_2,go,350.0,400.0,1.0,,,,,,,,,yellow,flipped triangle
0.0,7.0,3.0,1.0,6.0,6.0,502.3907050053822,2.0,1.0,phase_2,stop,350.0,400.0,3.0,,,,,,,,,gray,diamond
0.0,6.0,2.0,1.0,5.0,0.0,0.0,2.0,1.0,phase_2,stop,350.0,350.0,4.0,,,,,,,,,green,I
0.0,6.0,2.0,1.0,5.0,0.0,0.0,2.0,1.0,phase_2,stop,400.0,350.0,4.0,,,,,,,,,green,I
0.0,4.0,4.0,0.0,6.0,6.0,638.1386230059434,2.0,1.0,phase_2,go,450.0,350.0,1.0,,,,,,,,,white,triangle
0.0,8.0,4.0,1.0,6.0,6.0,610.1340759923914,2.0,1.0,phase_2,go,450.0,350.0,1.0,,,,,,,,,blue,cross
0.0,6.0,2.0,1.0,6.0,0.0,0.0,2.0,1.0,phase_2,stop,450.0,350.0,4.0,,,,,,,,,green,I
0.0,5.0,1.0,1.0,6.0,0.0,0.0,2.0,1.0,phase_2,stop,450.0,400.0,4.0,,,,,,,,,orange,circle
0.0,4.0,4.0,0.0,6.0,6.0,1285.454340002616,2.0,1.0,phase_2,go,450.0,450.0,1.0,,,,,,,,,white,triangle
0.0,6.0,2.0,1.0,6.0,0.0,0.0,2.0,1.0,phase_2,stop,450.0,450.0,4.0,,,,,,,,,green,I
0.0,2.0,2.0,0.0,6.0,6.0,646.9547650049208,2.0,1.0,phase_2,go,450.0,500.0,1.0,,,,,,,,,yellow,flipped triangle
0.0,5.0,1.0,1.0,6.0,6.0,787.7869999938412,2.0,1.0,phase_2,go,450.0,500.0,1.0,,,,,,,,,orange,circle
0.0,6.0,2.0,1.0,6.0,0.0,0.0,2.0,1.0,phase_2,stop,450.0,500.0,4.0,,,,,,,,,green,I
0.0,6.0,2.0,1.0,6.0,0.0,0.0,2.0,1.0,phase_2,stop,450.0,550.0,4.0,,,,,,,,,green,I
0.0,2.0,2.0,0.0,5.0,5.0,506.46342801337596,2.0,1.0,phase_2,go,450.0,600.0,1.0,,,,,,,,,yellow,flipped triangle
0.0,7.0,3.0,1.0,5.0,0.0,0.0,2.0,1.0,phase_2,stop,450.0,600.0,4.0,,,,,,,,,gray,diamond
0.0,2.0,2.0,0.0,5.0,5.0,926.5757760003908,2.0,1.0,phase_2,go,500.0,600.0,1.0,,,,,,,,,yellow,flipped triangle
0.0,2.0,2.0,0.0,5.0,5.0,1005.1407989958534,2.0,1.0,phase_2,go,500.0,600.0,1.0,,,,,,,,,yellow,flipped triangle
0.0,4.0,4.0,0.0,5.0,5.0,973.7848610093351,2.0,1.0,phase_2,go,500.0,600.0,1.0,,,,,,,,,white,triangle
0.0,1.0,1.0,0.0,5.0,5.0,730.2577030059183,2.0,1.0,phase_2,go,500.0,600.0,1.0,,,,,,,,,magenta,square
0.0,3.0,3.0,0.0,5.0,5.0,817.3006059951149,2.0,1.0,phase_2,go,500.0,600.0,1.0,,,,,,,,,cyan,hexagon
0.0,7.0,3.0,1.0,6.0,0.0,0.0,2.0,1.0,phase_2,stop,500.0,600.0,4.0,,,,,,,,,gray,diamond
0.0,5.0,1.0,1.0,5.0,5.0,589.5212480099872,3.0,1.0,phase_2,go,500.0,650.0,1.0,,,,,,,,,orange,circle
0.0,4.0,4.0,0.0,6.0,6.0,722.4743929982651,3.0,1.0,phase_2,go,500.0,650.0,1.0,,,,,,,,,white,triangle
0.0,2.0,2.0,0.0,6.0,6.0,555.4681560024619,3.0,1.0,phase_2,go,500.0,650.0,1.0,,,,,,,,,yellow,flipped triangle
0.0,7.0,3.0,1.0,5.0,5.0,282.9472660087049,3.0,1.0,phase_2,go,500.0,650.0,1.0,,,,,,,,,gray,diamond
0.0,3.0,3.0,0.0,6.0,6.0,310.6148030055919,3.0,1.0,phase_2,go,500.0,650.0,1.0,,,,,,,,,cyan,hexagon
0.0,8.0,4.0,1.0,5.0,5.0,375.9362010023324,3.0,1.0,phase_2,stop,500.0,650.0,3.0,,,,,,,,,blue,cross
0.0,5.0,1.0,1.0,5.0,5.0,547.8520409960765,3.0,1.0,phase_2,stop,450.0,650.0,3.0,,,,,,,,,orange,circle
0.0,2.0,2.0,0.0,6.0,6.0,450.7990050042281,3.0,1.0,phase_2,go,400.0,650.0,1.0,,,,,,,,,yellow,flipped triangle
0.0,3.0,3.0,0.0,5.0,5.0,368.0418340081814,3.0,1.0,phase_2,go,400.0,650.0,1.0,,,,,,,,,cyan,hexagon
0.0,6.0,2.0,1.0,5.0,5.0,761.7620679957327,3.0,1.0,phase_2,go,400.0,650.0,1.0,,,,,,,,,green,I
0.0,8.0,4.0,1.0,5.0,5.0,458.520653002779,3.0,1.0,phase_2,stop,400.0,650.0,3.0,,,,,,,,,blue,cross
0.0,6.0,2.0,1.0,5.0,5.0,788.4491220029304,3.0,1.0,phase_2,go,350.0,650.0,1.0,,,,,,,,,green,I
0.0,5.0,1.0,1.0,5.0,0.0,0.0,3.0,1.0,phase_2,stop,350.0,650.0,4.0,,,,,,,,,orange,circle
0.0,1.0,1.0,0.0,5.0,5.0,524.5734550117049,3.0,1.0,phase_2,go,400.0,650.0,1.0,,,,,,,,,magenta,square
0.0,5.0,1.0,1.0,5.0,5.0,650.9845660038991,3.0,1.0,phase_2,go,400.0,650.0,1.0,,,,,,,,,orange,circle
0.0,2.0,2.0,0.0,5.0,5.0,713.2861029967899,3.0,1.0,phase_2,go,400.0,650.0,1.0,,,,,,,,,yellow,flipped triangle
0.0,8.0,4.0,1.0,6.0,6.0,707.0655959978467,3.0,1.0,phase_2,stop,400.0,650.0,3.0,,,,,,,,,blue,cross
0.0,8.0,4.0,1.0,5.0,0.0,0.0,3.0,1.0,phase_2,stop,400.0,600.0,4.0,,,,,,,,,blue,cross
0.0,7.0,3.0,1.0,6.0,6.0,535.4667939973297,3.0,1.0,phase_2,stop,450.0,600.0,3.0,,,,,,,,,gray,diamond
0.0,4.0,4.0,0.0,5.0,5.0,1176.831400996889,3.0,1.0,phase_2,go,450.0,550.0,1.0,,,,,,,,,white,triangle
0.0,5.0,1.0,1.0,5.0,0.0,0.0,3.0,1.0,phase_2,stop,450.0,550.0,4.0,,,,,,,,,orange,circle
0.0,8.0,4.0,1.0,6.0,6.0,451.4552530017681,3.0,1.0,phase_2,stop,500.0,550.0,3.0,,,,,,,,,blue,cross
0.0,8.0,4.0,1.0,5.0,5.0,560.8130679902388,3.0,1.0,phase_2,stop,500.0,500.0,3.0,,,,,,,,,blue,cross
0.0,4.0,4.0,0.0,5.0,5.0,976.0706789966208,3.0,1.0,phase_2,go,450.0,500.0,1.0,,,,,,,,,white,triangle
0.0,1.0,1.0,0.0,5.0,5.0,927.7463469916256,3.0,1.0,phase_2,go,450.0,500.0,1.0,,,,,,,,,magenta,square
0.0,7.0,3.0,1.0,5.0,5.0,589.9712800019188,3.0,1.0,phase_2,stop,450.0,500.0,3.0,,,,,,,,,gray,diamond
0.0,5.0,1.0,1.0,5.0,0.0,0.0,3.0,1.0,phase_2,stop,400.0,500.0,4.0,,,,,,,,,orange,circle
0.0,2.0,2.0,0.0,5.0,5.0,1048.9126309985295,3.0,1.0,phase_2,go,450.0,500.0,1.0,,,,,,,,,yellow,flipped triangle
0.0,1.0,1.0,0.0,6.0,6.0,983.4191580011976,3.0,1.0,phase_2,go,450.0,500.0,1.0,,,,,,,,,magenta,square
0.0,5.0,1.0,1.0,6.0,6.0,488.5137969977222,3.0,1.0,phase_2,stop,450.0,500.0,3.0,,,,,,,,,orange,circle
0.0,5.0,1.0,1.0,5.0,5.0,1194.4910969905322,3.0,1.0,phase_2,stop,450.0,450.0,3.0,,,,,,,,,orange,circle
0.0,3.0,3.0,0.0,5.0,5.0,1144.4704909954453,3.0,1.0,phase_2,go,400.0,450.0,1.0,,,,,,,,,cyan,hexagon
0.0,6.0,2.0,1.0,5.0,0.0,0.0,3.0,1.0,phase_2,stop,400.0,450.0,4.0,,,,,,,,,green,I
0.0,4.0,4.0,0.0,5.0,5.0,973.7920120096531,3.0,1.0,phase_2,go,450.0,450.0,1.0,,,,,,,,,white,triangle
0.0,6.0,2.0,1.0,6.0,0.0,0.0,3.0,1.0,phase_2,stop,450.0,450.0,4.0,,,,,,,,,green,I
0.0,8.0,4.0,1.0,6.0,0.0,0.0,3.0,1.0,phase_2,stop,450.0,500.0,4.0,,,,,,,,,blue,cross
0.0,1.0,1.0,0.0,5.0,5.0,516.5502099989681,4.0,1.0,phase_2,go,450.0,550.0,1.0,,,,,,,,,magenta,square
0.0,1.0,1.0,0.0,6.0,6.0,375.0032459938666,4.0,1.0,phase_2,go,450.0,550.0,1.0,,,,,,,,,magenta,square
0.0,4.0,4.0,0.0,6.0,6.0,591.9681529921945,4.0,1.0,phase_2,go,450.0,550.0,1.0,,,,,,,,,white,triangle
0.0,7.0,3.0,1.0,6.0,6.0,630.692860999261,4.0,1.0,phase_2,stop,450.0,550.0,3.0,,,,,,,,,gray,diamond
0.0,8.0,4.0,1.0,5.0,5.0,628.5449499991955,4.0,1.0,phase_2,stop,450.0,500.0,3.0,,,,,,,,,blue,cross
0.0,4.0,4.0,0.0,6.0,6.0,825.4471420077607,4.0,1.0,phase_2,go,400.0,500.0,1.0,,,,,,,,,white,triangle
0.0,2.0,2.0,0.0,6.0,6.0,1261.1744239984546,4.0,1.0,phase_2,go,400.0,500.0,1.0,,,,,,,,,yellow,flipped triangle
0.0,1.0,1.0,0.0,6.0,6.0,958.1442769995192,4.0,1.0,phase_2,go,400.0,500.0,1.0,,,,,,,,,magenta,square
0.0,4.0,4.0,0.0,6.0,6.0,928.0609230045228,4.0,1.0,phase_2,go,400.0,500.0,1.0,,,,,,,,,white,triangle
0.0,7.0,3.0,1.0,6.0,0.0,0.0,4.0,1.0,phase_2,stop,400.0,500.0,4.0,,,,,,,,,gray,diamond
0.0,3.0,3.0,0.0,6.0,6.0,1007.564317987999,4.0,1.0,phase_2,go,400.0,550.0,1.0,,,,,,,,,cyan,hexagon
0.0,3.0,3.0,0.0,5.0,5.0,1013.5767230094643,4.0,1.0,phase_2,go,400.0,550.0,1.0,,,,,,,,,cyan,hexagon
0.0,7.0,3.0,1.0,6.0,6.0,826.5101889992366,4.0,1.0,phase_2,go,400.0,550.0,1.0,,,,,,,,,gray,diamond
0.0,3.0,3.0,0.0,5.0,5.0,883.2695200107992,4.0,1.0,phase_2,go,400.0,550.0,1.0,,,,,,,,,cyan,hexagon
0.0,2.0,2.0,0.0,5.0,5.0,393.4970179980155,4.0,1.0,phase_2,go,400.0,550.0,1.0,,,,,,,,,yellow,flipped triangle
0.0,4.0,4.0,0.0,5.0,5.0,564.0452959924005,4.0,1.0,phase_2,go,400.0,550.0,1.0,,,,,,,,,white,triangle
0.0,1.0,1.0,0.0,6.0,6.0,601.422072009882,4.0,1.0,phase_2,go,400.0,550.0,1.0,,,,,,,,,magenta,square
0.0,8.0,4.0,1.0,6.0,6.0,469.0083599998615,4.0,1.0,phase_2,stop,400.0,550.0,3.0,,,,,,,,,blue,cross
0.0,2.0,2.0,0.0,6.0,6.0,639.5522030070424,4.0,1.0,phase_2,go,400.0,500.0,1.0,,,,,,,,,yellow,flipped triangle
0.0,4.0,4.0,0.0,5.0,5.0,810.6070199864917,4.0,1.0,phase_2,go,400.0,500.0,1.0,,,,,,,,,white,triangle
0.0,6.0,2.0,1.0,5.0,5.0,698.0720810097409,4.0,1.0,phase_2,go,400.0,500.0,1.0,,,,,,,,,green,I
0.0,3.0,3.0,0.0,6.0,6.0,659.4043709919788,4.0,1.0,phase_2,go,400.0,500.0,1.0,,,,,,,,,cyan,hexagon
0.0,8.0,4.0,1.0,6.0,6.0,482.2829390031984,4.0,1.0,phase_2,stop,400.0,500.0,3.0,,,,,,,,,blue,cross
0.0,1.0,1.0,0.0,6.0,6.0,980.1286069996422,4.0,1.0,phase_2,go,400.0,450.0,1.0,,,,,,,,,magenta,square
0.0,2.0,2.0,0.0,5.0,5.0,1280.053410999244,4.0,1.0,phase_2,go,400.0,450.0,1.0,,,,,,,,,yellow,flipped triangle
0.0,1.0,1.0,0.0,6.0,6.0,775.7864680024795,4.0,1.0,phase_2,go,400.0,450.0,1.0,,,,,,,,,magenta,square
0.0,4.0,4.0,0.0,5.0,5.0,973.3100090088556,4.0,1.0,phase_2,go,400.0,450.0,1.0,,,,,,,,,white,triangle
0.0,1.0,1.0,0.0,5.0,5.0,718.2056279998505,4.0,1.0,phase_2,go,400.0,450.0,1.0,,,,,,,,,magenta,square
0.0,3.0,3.0,0.0,5.0,5.0,782.5345730088884,4.0,1.0,phase_2,go,400.0,450.0,1.0,,,,,,,,,cyan,hexagon
0.0,7.0,3.0,1.0,5.0,0.0,0.0,4.0,1.0,phase_2,stop,400.0,450.0,4.0,,,,,,,,,gray,diamond
0.0,3.0,3.0,0.0,5.0,5.0,348.4095780004281,4.0,1.0,phase_2,go,450.0,450.0,1.0,,,,,,,,,cyan,hexagon
0.0,5.0,1.0,1.0,6.0,6.0,386.7972470034146,4.0,1.0,phase_2,stop,450.0,450.0,3.0,,,,,,,,,orange,circle
0.0,3.0,3.0,0.0,5.0,5.0,528.2270019961288,4.0,1.0,phase_2,go,450.0,400.0,1.0,,,,,,,,,cyan,hexagon
0.0,6.0,2.0,1.0,5.0,5.0,515.2880110108526,4.0,1.0,phase_2,stop,450.0,400.0,3.0,,,,,,,,,green,I
0.0,6.0,2.0,1.0,6.0,0.0,0.0,4.0,1.0,phase_2,stop,400.0,400.0,4.0,,,,,,,,,green,I
0.0,7.0,3.0,1.0,5.0,5.0,705.4232259979472,4.0,1.0,phase_2,go,400.0,450.0,1.0,,,,,,,,,gray,diamond
0.0,1.0,1.0,0.0,5.0,5.0,382.7392539969878,5.0,1.0,phase_2,go,400.0,450.0,1.0,,,,,,,,,magenta,square
0.0,5.0,1.0,1.0,6.0,6.0,516.0949120036094,5.0,1.0,phase_2,stop,400.0,450.0,3.0,,,,,,,,,orange,circle
0.0,5.0,1.0,1.0,5.0,5.0,337.9019339918159,5.0,1.0,phase_2,go,400.0,400.0,1.0,,,,,,,,,orange,circle
0.0,7.0,3.0,1.0,6.0,6.0,932.440211996436,5.0,1.0,phase_2,stop,400.0,400.0,3.0,,,,,,,,,gray,diamond
0.0,8.0,4.0,1.0,5.0,0.0,0.0,5.0,1.0,phase_2,stop,400.0,350.0,4.0,,,,,,,,,blue,cross
0.0,8.0,4.0,1.0,6.0,0.0,0.0,5.0,1.0,phase_2,stop,450.0,350.0,4.0,,,,,,,,,blue,cross
0.0,2.0,2.0,0.0,6.0,6.0,672.9590549948625,5.0,1.0,phase_2,go,450.0,400.0,1.0,,,,,,,,,yellow,flipped triangle
0.0,1.0,1.0,0.0,5.0,5.0,552.71740500757,5.0,1.0,phase_2,go,450.0,400.0,1.0,,,,,,,,,magenta,square
0.0,3.0,3.0,0.0,6.0,6.0,281.3184160040691,5.0,1.0,phase_2,go,450.0,400.0,1.0,,,,,,,,,cyan,hexagon
0.0,8.0,4.0,1.0,5.0,5.0,271.99438300158357,5.0,1.0,phase_2,stop,450.0,400.0,3.0,,,,,,,,,blue,cross
0.0,5.0,1.0,1.0,5.0,5.0,601.4578850008547,5.0,1.0,phase_2,go,400.0,400.0,1.0,,,,,,,,,orange,circle
0.0,4.0,4.0,0.0,5.0,5.0,926.1584479972952,5.0,1.0,phase_2,go,400.0,400.0,1.0,,,,,,,,,white,triangle
0.0,5.0,1.0,1.0,6.0,6.0,453.2303589949151,5.0,1.0,phase_2,stop,400.0,400.0,3.0,,,,,,,,,orange,circle
0.0,3.0,3.0,0.0,5.0,5.0,338.3802059979643,5.0,1.0,phase_2,go,400.0,350.0,1.0,,,,,,,,,cyan,hexagon
0.0,7.0,3.0,1.0,6.0,0.0,0.0,5.0,1.0,phase_2,stop,400.0,350.0,4.0,,,,,,,,,gray,diamond
0.0,4.0,4.0,0.0,6.0,6.0,926.1415539949668,5.0,1.0,phase_2,go,400.0,400.0,1.0,,,,,,,,,white,triangle
0.0,3.0,3.0,0.0,6.0,6.0,872.1748069947353,5.0,1.0,phase_2,go,400.0,400.0,1.0,,,,,,,,,cyan,hexagon
0.0,8.0,4.0,1.0,6.0,0.0,0.0,5.0,1.0,phase_2,stop,400.0,400.0,4.0,,,,,,,,,blue,cross
0.0,8.0,4.0,1.0,6.0,0.0,0.0,5.0,1.0,phase_2,stop,400.0,450.0,4.0,,,,,,,,,blue,cross
0.0,6.0,2.0,1.0,5.0,5.0,506.7272649903316,5.0,1.0,phase_2,stop,400.0,500.0,3.0,,,,,,,,,green,I
0.0,1.0,1.0,0.0,5.0,5.0,1019.8414120095549,5.0,1.0,phase_2,go,350.0,500.0,1.0,,,,,,,,,magenta,square
0.0,5.0,1.0,1.0,6.0,0.0,0.0,5.0,1.0,phase_2,stop,350.0,500.0,4.0,,,,,,,,,orange,circle
0.0,7.0,3.0,1.0,6.0,6.0,850.8608789998107,5.0,1.0,phase_2,go,350.0,550.0,1.0,,,,,,,,,gray,diamond
0.0,7.0,3.0,1.0,5.0,5.0,721.6944999963744,5.0,1.0,phase_2,go,350.0,550.0,1.0,,,,,,,,,gray,diamond
0.0,8.0,4.0,1.0,6.0,6.0,646.3104580034269,5.0,1.0,phase_2,go,350.0,550.0,1.0,,,,,,,,,blue,cross
0.0,8.0,4.0,1.0,6.0,0.0,0.0,5.0,1.0,phase_2,stop,350.0,550.0,4.0,,,,,,,,,blue,cross
0.0,3.0,3.0,0.0,6.0,6.0,758.7943690014072,5.0,1.0,phase_2,go,350.0,600.0,1.0,,,,,,,,,cyan,hexagon
0.0,7.0,3.0,1.0,5.0,0.0,0.0,5.0,1.0,phase_2,stop,350.0,600.0,4.0,,,,,,,,,gray,diamond
0.0,3.0,3.0,0.0,6.0,6.0,666.2067200086312,5.0,1.0,phase_2,go,400.0,600.0,1.0,,,,,,,,,cyan,hexagon
0.0,8.0,4.0,1.0,5.0,5.0,1294.8343739990378,5.0,1.0,phase_2,stop,400.0,600.0,3.0,,,,,,,,,blue,cross
0.0,4.0,4.0,0.0,6.0,0.0,0.0,5.0,1.0,phase_2,go,350.0,600.0,5.0,,,,,,,,,white,triangle
0.0,8.0,4.0,1.0,5.0,5.0,975.7854089984904,5.0,1.0,phase_2,stop,350.0,600.0,3.0,,,,,,,,,blue,cross
0.0,5.0,1.0,1.0,5.0,0.0,0.0,5.0,1.0,phase_2,stop,300.0,600.0,4.0,,,,,,,,,orange,circle
0.0,8.0,4.0,1.0,5.0,5.0,554.6152910101227,5.0,1.0,phase_2,go,350.0,600.0,1.0,,,,,,,,,blue,cross
0.0,6.0,2.0,1.0,5.0,0.0,0.0,5.0,1.0,phase_2,stop,350.0,600.0,4.0,,,,,,,,,green,I
0.0,2.0,2.0,0.0,6.0,6.0,707.525556004839,5.0,1.0,phase_2,go,400.0,600.0,1.0,,,,,,,,,yellow,flipped triangle
0.0,8.0,4.0,1.0,5.0,5.0,545.8496639912482,6.0,1.0,phase_2,stop,400.0,600.0,3.0,,,,,,,,,blue,cross
0.0,4.0,4.0,0.0,5.0,5.0,734.687493997626,6.0,1.0,phase_2,go,350.0,600.0,1.0,,,,,,,,,white,triangle
0.0,8.0,4.0,1.0,5.0,5.0,478.3759440033464,6.0,1.0,phase_2,go,350.0,600.0,1.0,,,,,,,,,blue,cross
0.0,6.0,2.0,1.0,6.0,6.0,556.7262789991219,6.0,1.0,phase_2,go,350.0,600.0,1.0,,,,,,,,,green,I
0.0,6.0,2.0,1.0,5.0,5.0,348.4233869967283,6.0,1.0,phase_2,stop,350.0,600.0,3.0,,,,,,,,,green,I
0.0,2.0,2.0,0.0,6.0,6.0,473.1033150019357,6.0,1.0,phase_2,go,300.0,600.0,1.0,,,,,,,,,yellow,flipped triangle
0.0,6.0,2.0,1.0,5.0,0.0,0.0,6.0,1.0,phase_2,stop,300.0,600.0,4.0,,,,,,,,,green,I
0.0,1.0,1.0,0.0,5.0,5.0,661.1344699922483,6.0,1.0,phase_2,go,350.0,600.0,1.0,,,,,,,,,magenta,square
0.0,4.0,4.0,0.0,5.0,5.0,936.3713769998868,6.0,1.0,phase_2,go,350.0,600.0,1.0,,,,,,,,,white,triangle
0.0,5.0,1.0,1.0,6.0,6.0,546.5884350123815,6.0,1.0,phase_2,stop,350.0,600.0,3.0,,,,,,,,,orange,circle
0.0,7.0,3.0,1.0,5.0,5.0,517.3760420002509,6.0,1.0,phase_2,stop,350.0,550.0,3.0,,,,,,,,,gray,diamond
0.0,5.0,1.0,1.0,6.0,6.0,1190.5506740004057,6.0,1.0,phase_2,stop,300.0,550.0,3.0,,,,,,,,,orange,circle
0.0,3.0,3.0,0.0,5.0,5.0,917.79366999981,6.0,1.0,phase_2,go,300.0,500.0,1.0,,,,,,,,,cyan,hexagon
0.0,4.0,4.0,0.0,6.0,6.0,820.8806100010406,6.0,1.0,phase_2,go,300.0,500.0,1.0,,,,,,,,,white,triangle
0.0,7.0,3.0,1.0,5.0,0.0,0.0,6.0,1.0,phase_2,stop,300.0,500.0,4.0,,,,,,,,,gray,diamond
0.0,8.0,4.0,1.0,6.0,6.0,405.2550329943187,6.0,1.0,phase_2,stop,350.0,500.0,3.0,,,,,,,,,blue,cross
0.0,8.0,4.0,1.0,5.0,0.0,0.0,6.0,1.0,phase_2,stop,350.0,450.0,4.0,,,,,,,,,blue,cross
0.0,6.0,2.0,1.0,6.0,6.0,935.8662739978172,6.0,1.0,phase_2,go,400.0,450.0,1.0,,,,,,,,,green,I
0.0,5.0,1.0,1.0,6.0,0.0,0.0,6.0,1.0,phase_2,stop,400.0,450.0,4.0,,,,,,,,,orange,circle
0.0,7.0,3.0,1.0,5.0,5.0,715.9510320052505,6.0,1.0,phase_2,go,400.0,500.0,1.0,,,,,,,,,gray,diamond
0.0,7.0,3.0,1.0,6.0,0.0,0.0,6.0,1.0,phase_2,stop,400.0,500.0,4.0,,,,,,,,,gray,diamond
0.0,3.0,3.0,0.0,6.0,0.0,0.0,6.0,1.0,phase_2,go,400.0,550.0,5.0,,,,,,,,,cyan,hexagon
0.0,6.0,2.0,1.0,5.0,5.0,1065.4612530051963,6.0,1.0,phase_2,stop,400.0,550.0,3.0,,,,,,,,,green,I
0.0,1.0,1.0,0.0,5.0,5.0,1089.4533440005034,6.0,1.0,phase_2,go,350.0,550.0,1.0,,,,,,,,,magenta,square
0.0,5.0,1.0,1.0,5.0,0.0,0.0,6.0,1.0,phase_2,stop,350.0,550.0,4.0,,,,,,,,,orange,circle
0.0,1.0,1.0,0.0,6.0,6.0,572.5806370028295,6.0,1.0,phase_2,go,400.0,550.0,1.0,,,,,,,,,magenta,square
0.0,1.0,1.0,0.0,6.0,6.0,665.9652079979423,6.0,1.0,phase_2,go,400.0,550.0,1.0,,,,,,,,,magenta,square
0.0,4.0,4.0,0.0,5.0,5.0,903.7407449941384,6.0,1.0,phase_2,go,400.0,550.0,1.0,,,,,,,,,white,triangle
0.0,7.0,3.0,1.0,5.0,0.0,0.0,6.0,1.0,phase_2,stop,400.0,550.0,4.0,,,,,,,,,gray,diamond
0.0,8.0,4.0,1.0,5.0,5.0,753.7721850094385,6.0,1.0,phase_2,go,450.0,550.0,1.0,,,,,,,,,blue,cross
0.0,4.0,4.0,0.0,6.0,6.0,479.6001559880096,6.0,1.0,phase_2,go,450.0,550.0,1.0,,,,,,,,,white,triangle
0.0,5.0,1.0,1.0,6.0,0.0,0.0,6.0,1.0,phase_2,stop,450.0,550.0,4.0,,,,,,,,,orange,circle
0.0,3.0,3.0,0.0,6.0,6.0,703.4341510006925,6.0,1.0,phase_2,go,450.0,600.0,1.0,,,,,,,,,cyan,hexagon
0.0,3.0,3.0,0.0,6.0,6.0,1116.5608520095702,6.0,1.0,phase_2,go,450.0,600.0,1.0,,,,,,,,,cyan,hexagon
0.0,5.0,1.0,1.0,5.0,0.0,0.0,6.0,1.0,phase_2,stop,450.0,600.0,4.0,,,,,,,,,orange,circle
0.0,3.0,3.0,0.0,5.0,5.0,525.0219820009079,6.0,1.0,phase_2,go,500.0,600.0,1.0,,,,,,,,,cyan,hexagon
0.0,5.0,1.0,1.0,6.0,6.0,554.0941399958683,7.0,1.0,phase_2,stop,500.0,600.0,3.0,,,,,,,,,orange,circle
0.0,7.0,3.0,1.0,5.0,5.0,1139.120747000561,7.0,1.0,phase_2,go,500.0,550.0,1.0,,,,,,,,,gray,diamond
0.0,3.0,3.0,0.0,5.0,5.0,752.5860890018521,7.0,1.0,phase_2,go,500.0,550.0,1.0,,,,,,,,,cyan,hexagon
0.0,3.0,3.0,0.0,6.0,6.0,657.4558739957865,7.0,1.0,phase_2,go,500.0,550.0,1.0,,,,,,,,,cyan,hexagon
0.0,8.0,4.0,1.0,5.0,5.0,376.1434579937486,7.0,1.0,phase_2,stop,500.0,550.0,3.0,,,,,,,,,blue,cross
0.0,4.0,4.0,0.0,5.0,5.0,536.077024997212,7.0,1.0,phase_2,go,450.0,550.0,1.0,,,,,,,,,white,triangle
0.0,2.0,2.0,0.0,6.0,6.0,582.5629899918567,7.0,1.0,phase_2,go,450.0,550.0,1.0,,,,,,,,,yellow,flipped triangle
0.0,2.0,2.0,0.0,6.0,6.0,779.9565390014322,7.0,1.0,phase_2,go,450.0,550.0,1.0,,,,,,,,,yellow,flipped triangle
0.0,1.0,1.0,0.0,6.0,6.0,835.8097930031363,7.0,1.0,phase_2,go,450.0,550.0,1.0,,,,,,,,,magenta,square
0.0,5.0,1.0,1.0,6.0,6.0,543.3122679969529,7.0,1.0,phase_2,stop,450.0,550.0,3.0,,,,,,,,,orange,circle
0.0,7.0,3.0,1.0,6.0,0.0,0.0,7.0,1.0,phase_2,stop,450.0,500.0,4.0,,,,,,,,,gray,diamond
0.0,1.0,1.0,0.0,5.0,5.0,743.6560720088892,7.0,1.0,phase_2,go,450.0,550.0,1.0,,,,,,,,,magenta,square
0.0,7.0,3.0,1.0,5.0,5.0,376.8332920008106,7.0,1.0,phase_2,stop,450.0,550.0,3.0,,,,,,,,,gray,diamond
0.0,1.0,1.0,0.0,5.0,5.0,958.5056149953745,7.0,1.0,phase_2,go,400.0,550.0,1.0,,,,,,,,,magenta,square
0.0,2.0,2.0,0.0,5.0,5.0,1007.8160909906728,7.0,1.0,phase_2,go,400.0,550.0,1.0,,,,,,,,,yellow,flipped triangle
0.0,5.0,1.0,1.0,5.0,0.0,0.0,7.0,1.0,phase_2,stop,400.0,550.0,4.0,,,,,,,,,orange,circle
0.0,1.0,1.0,0.0,5.0,5.0,686.5081319992896,7.0,1.0,phase_2,go,450.0,550.0,1.0,,,,,,,,,magenta,square
0.0,4.0,4.0,0.0,6.0,6.0,761.6095800040057,7.0,1.0,phase_2,go,450.0,550.0,1.0,,,,,,,,,white,triangle
0.0,7.0,3.0,1.0,5.0,0.0,0.0,7.0,1.0,phase_2,stop,450.0,550.0,4.0,,,,,,,,,gray,diamond
0.0,6.0,2.0,1.0,6.0,6.0,480.0906379969092,7.0,1.0,phase_2,stop,500.0,550.0,3.0,,,,,,,,,green,I
0.0,1.0,1.0,0.0,6.0,0.0,0.0,7.0,1.0,phase_2,go,500.0,500.0,5.0,,,,,,,,,magenta,square
0.0,2.0,2.0,0.0,6.0,6.0,1220.887033996405,7.0,1.0,phase_2,go,500.0,500.0,1.0,,,,,,,,,yellow,flipped triangle
0.0,6.0,2.0,1.0,5.0,5.0,340.0204140052665,7.0,1.0,phase_2,stop,500.0,500.0,3.0,,,,,,,,,green,I
0.0,7.0,3.0,1.0,6.0,6.0,516.3261800043983,7.0,1.0,phase_2,go,450.0,500.0,1.0,,,,,,,,,gray,diamond
0.0,6.0,2.0,1.0,5.0,5.0,804.2992939881515,7.0,1.0,phase_2,go,450.0,500.0,1.0,,,,,,,,,green,I
0.0,7.0,3.0,1.0,5.0,0.0,0.0,7.0,1.0,phase_2,stop,450.0,500.0,4.0,,,,,,,,,gray,diamond
0.0,8.0,4.0,1.0,5.0,5.0,676.391010012594,7.0,1.0,phase_2,go,500.0,500.0,1.0,,,,,,,,,blue,cross
0.0,2.0,2.0,0.0,6.0,6.0,1006.9672760000683,7.0,1.0,phase_2,go,500.0,500.0,1.0,,,,,,,,,yellow,flipped triangle
0.0,8.0,4.0,1.0,6.0,0.0,0.0,7.0,1.0,phase_2,stop,500.0,500.0,4.0,,,,,,,,,blue,cross
0.0,5.0,1.0,1.0,6.0,6.0,665.0853610044578,7.0,1.0,phase_2,stop,500.0,550.0,3.0,,,,,,,,,orange,circle
0.0,2.0,2.0,0.0,5.0,5.0,635.0864029955119,7.0,1.0,phase_2,go,500.0,500.0,1.0,,,,,,,,,yellow,flipped triangle
0.0,1.0,1.0,0.0,6.0,6.0,764.3235940049635,7.0,1.0,phase_2,go,500.0,500.0,1.0,,,,,,,,,magenta,square
0.0,4.0,4.0,0.0,6.0,6.0,558.5509500087937,7.0,1.0,phase_2,go,500.0,500.0,1.0,,,,,,,,,white,triangle
0.0,3.0,3.0,0.0,5.0,5.0,654.7522519977065,7.0,1.0,phase_2,go,500.0,500.0,1.0,,,,,,,,,cyan,hexagon
0.0,2.0,2.0,0.0,6.0,6.0,992.35256400425,7.0,1.0,phase_2,go,500.0,500.0,1.0,,,,,,,,,yellow,flipped triangle
0.0,7.0,3.0,1.0,6.0,6.0,413.9989830000559,7.0,1.0,phase_2,stop,500.0,500.0,3.0,,,,,,,,,gray,diamond
0.0,2.0,2.0,0.0,5.0,5.0,856.7664430011064,8.0,1.0,phase_2,go,500.0,450.0,1.0,,,,,,,,,yellow,flipped triangle
0.0,6.0,2.0,1.0,5.0,5.0,435.9072770021157,8.0,1.0,phase_2,stop,500.0,450.0,3.0,,,,,,,,,green,I
0.0,8.0,4.0,1.0,5.0,5.0,534.3914659897564,8.0,1.0,phase_2,stop,450.0,450.0,3.0,,,,,,,,,blue,cross
0.0,7.0,3.0,1.0,6.0,6.0,613.4593149909051,8.0,1.0,phase_2,go,400.0,450.0,1.0,,,,,,,,,gray,diamond
0.0,2.0,2.0,0.0,6.0,6.0,736.4883150003152,8.0,1.0,phase_2,go,400.0,450.0,1.0,,,,,,,,,yellow,flipped triangle
0.0,6.0,2.0,1.0,6.0,6.0,581.5875039988896,8.0,1.0,phase_2,stop,400.0,450.0,3.0,,,,,,,,,green,I
0.0,5.0,1.0,1.0,6.0,6.0,887.8649289981695,8.0,1.0,phase_2,go,400.0,400.0,1.0,,,,,,,,,orange,circle
0.0,4.0,4.0,0.0,5.0,5.0,681.4476269937586,8.0,1.0,phase_2,go,400.0,400.0,1.0,,,,,,,,,white,triangle
0.0,5.0,1.0,1.0,5.0,0.0,0.0,8.0,1.0,phase_2,stop,400.0,400.0,4.0,,,,,,,,,orange,circle
0.0,2.0,2.0,0.0,5.0,5.0,763.7506940081948,8.0,1.0,phase_2,go,450.0,400.0,1.0,,,,,,,,,yellow,flipped triangle
0.0,8.0,4.0,1.0,6.0,6.0,1171.7852969886735,8.0,1.0,phase_2,go,450.0,400.0,1.0,,,,,,,,,blue,cross
0.0,6.0,2.0,1.0,5.0,5.0,990.0900119973812,8.0,1.0,phase_2,go,450.0,400.0,1.0,,,,,,,,,green,I
0.0,6.0,2.0,1.0,6.0,0.0,0.0,8.0,1.0,phase_2,stop,450.0,400.0,4.0,,,,,,,,,green,I
0.0,5.0,1.0,1.0,6.0,6.0,587.6747870061081,8.0,1.0,phase_2,stop,450.0,450.0,3.0,,,,,,,,,orange,circle
0.0,4.0,4.0,0.0,6.0,6.0,1153.4208880038932,8.0,1.0,phase_2,go,450.0,400.0,1.0,,,,,,,,,white,triangle
0.0,1.0,1.0,0.0,5.0,5.0,719.5143580029253,8.0,1.0,phase_2,go,450.0,400.0,1.0,,,,,,,,,magenta,square
0.0,8.0,4.0,1.0,6.0,0.0,0.0,8.0,1.0,phase_2,stop,450.0,400.0,4.0,,,,,,,,,blue,cross
0.0,4.0,4.0,0.0,6.0,6.0,735.6414440000663,8.0,1.0,phase_2,go,450.0,450.0,1.0,,,,,,,,,white,triangle
0.0,8.0,4.0,1.0,6.0,0.0,0.0,8.0,1.0,phase_2,stop,450.0,450.0,4.0,,,,,,,,,blue,cross
0.0,7.0,3.0,1.0,5.0,5.0,625.3022710006917,8.0,1.0,phase_2,stop,450.0,500.0,3.0,,,,,,,,,gray,diamond
0.0,4.0,4.0,0.0,6.0,6.0,1169.675081007881,8.0,1.0,phase_2,go,400.0,500.0,1.0,,,,,,,,,white,triangle
0.0,1.0,1.0,0.0,5.0,5.0,1408.6458170058904,8.0,1.0,phase_2,go,400.0,500.0,1.0,,,,,,,,,magenta,square
0.0,2.0,2.0,0.0,5.0,5.0,670.0071910017869,8.0,1.0,phase_2,go,400.0,500.0,1.0,,,,,,,,,yellow,flipped triangle
0.0,4.0,4.0,0.0,5.0,5.0,754.9093490088126,8.0,1.0,phase_2,go,400.0,500.0,1.0,,,,,,,,,white,triangle
0.0,2.0,2.0,0.0,6.0,6.0,565.8775929914555,8.0,1.0,phase_2,go,400.0,500.0,1.0,,,,,,,,,yellow,flipped triangle
0.0,5.0,1.0,1.0,6.0,0.0,0.0,8.0,1.0,phase_2,stop,400.0,500.0,4.0,,,,,,,,,orange,circle
0.0,1.0,1.0,0.0,6.0,6.0,774.2334060021676,8.0,1.0,phase_2,go,400.0,550.0,1.0,,,,,,,,,magenta,square
0.0,3.0,3.0,0.0,6.0,6.0,874.5337309956085,8.0,1.0,phase_2,go,400.0,550.0,1.0,,,,,,,,,cyan,hexagon
0.0,7.0,3.0,1.0,6.0,0.0,0.0,8.0,1.0,phase_2,stop,400.0,550.0,4.0,,,,,,,,,gray,diamond
0.0,1.0,1.0,0.0,6.0,0.0,0.0,8.0,1.0,phase_2,go,400.0,600.0,5.0,,,,,,,,,magenta,square
0.0,3.0,3.0,0.0,5.0,5.0,655.1888969988795,8.0,1.0,phase_2,go,400.0,600.0,1.0,,,,,,,,,cyan,hexagon
0.0,2.0,2.0,0.0,6.0,6.0,721.2591139978031,8.0,1.0,phase_2,go,400.0,600.0,1.0,,,,,,,,,yellow,flipped triangle
0.0,3.0,3.0,0.0,6.0,6.0,768.2652579969727,8.0,1.0,phase_2,go,400.0,600.0,1.0,,,,,,,,,cyan,hexagon
0.0,7.0,3.0,1.0,6.0,0.0,0.0,8.0,1.0,phase_2,stop,400.0,600.0,4.0,,,,,,,,,gray,diamond
0.0,3.0,3.0,0.0,6.0,6.0,908.3697899914114,8.0,1.0,phase_2,go,400.0,650.0,1.0,,,,,,,,,cyan,hexagon
0.0,7.0,3.0,1.0,6.0,6.0,700.2775020082481,8.0,1.0,phase_2,stop,400.0,650.0,3.0,,,,,,,,,gray,diamond
0.0,4.0,4.0,0.0,7.0,1.0,3362.112563001574,1.0,1.0,phase_3,,,,,580.0,5.0,580.0,348.0,232.0,464.0,116.0,696.0,white,triangle
0.0,2.0,2.0,0.0,7.0,4.0,1964.356273994781,1.0,1.0,phase_3,,,,,1038.0,6.0,173.0,346.0,865.0,1038.0,519.0,692.0,yellow,flipped triangle
0.0,8.0,4.0,1.0,7.0,6.0,846.1369309952715,1.0,1.0,phase_3,,,,,308.0,2.0,616.0,154.0,924.0,462.0,770.0,308.0,blue,cross
0.0,5.0,1.0,1.0,7.0,2.0,3248.1320639926707,1.0,1.0,phase_3,,,,,116.0,1.0,348.0,116.0,464.0,232.0,696.0,580.0,orange,circle
0.0,7.0,3.0,1.0,7.0,2.0,3479.1509859933285,1.0,1.0,phase_3,,,,,116.0,1.0,232.0,116.0,348.0,580.0,464.0,696.0,gray,diamond
0.0,8.0,4.0,1.0,7.0,1.0,829.9004759901436,1.0,1.0,phase_3,,,,,348.0,3.0,348.0,464.0,232.0,696.0,116.0,580.0,blue,cross
0.0,6.0,2.0,1.0,7.0,5.0,2043.8194739981554,1.0,1.0,phase_3,,,,,768.0,4.0,1152.0,576.0,384.0,960.0,768.0,192.0,green,I
0.0,1.0,1.0,0.0,7.0,5.0,3250.699144002283,1.0,1.0,phase_3,,,,,270.0,2.0,405.0,135.0,540.0,675.0,270.0,810.0,magenta,square
0.0,5.0,1.0,1.0,7.0,5.0,1947.8955369995676,1.0,1.0,phase_3,,,,,616.0,4.0,308.0,154.0,770.0,462.0,616.0,924.0,orange,circle
0.0,1.0,1.0,0.0,7.0,5.0,1959.2818329983857,1.0,1.0,phase_3,,,,,308.0,2.0,924.0,154.0,770.0,462.0,308.0,616.0,magenta,square
0.0,3.0,3.0,0.0,7.0,3.0,1315.8525690087115,1.0,1.0,phase_3,,,,,116.0,1.0,348.0,580.0,116.0,696.0,464.0,232.0,cyan,hexagon
0.0,1.0,1.0,0.0,7.0,1.0,3443.0122970079537,1.0,1.0,phase_3,,,,,346.0,2.0,346.0,519.0,865.0,692.0,173.0,1038.0,magenta,square
0.0,7.0,3.0,1.0,7.0,3.0,1703.1609170080628,1.0,1.0,phase_3,,,,,135.0,1.0,270.0,540.0,135.0,405.0,675.0,810.0,gray,diamond
0.0,5.0,1.0,1.0,7.0,2.0,3700.660891990992,1.0,1.0,phase_3,,,,,384.0,2.0,576.0,384.0,1152.0,192.0,768.0,960.0,orange,circle
0.0,7.0,3.0,1.0,7.0,2.0,3522.2155220108107,1.0,1.0,phase_3,,,,,154.0,1.0,924.0,154.0,770.0,616.0,462.0,308.0,gray,diamond
0.0,1.0,1.0,0.0,7.0,3.0,2663.001073000487,1.0,1.0,phase_3,,,,,384.0,2.0,768.0,192.0,384.0,1152.0,960.0,576.0,magenta,square
0.0,1.0,1.0,0.0,7.0,4.0,1407.6060119987233,1.0,1.0,phase_3,,,,,232.0,2.0,348.0,116.0,464.0,232.0,580.0,696.0,magenta,square
0.0,3.0,3.0,0.0,7.0,1.0,1465.0899240077706,1.0,1.0,phase_3,,,,,154.0,1.0,154.0,308.0,462.0,616.0,770.0,924.0,cyan,hexagon
0.0,4.0,4.0,0.0,7.0,5.0,2613.621262993547,1.0,1.0,phase_3,,,,,308.0,2.0,462.0,154.0,616.0,924.0,308.0,770.0,white,triangle
0.0,6.0,2.0,1.0,7.0,4.0,3211.958561994834,1.0,1.0,phase_3,,,,,308.0,2.0,924.0,770.0,616.0,308.0,154.0,462.0,green,I
0.0,6.0,2.0,1.0,7.0,5.0,1858.63875799987,2.0,1.0,phase_3,,,,,405.0,3.0,540.0,675.0,270.0,135.0,405.0,810.0,green,I
0.0,6.0,2.0,1.0,7.0,4.0,2247.6911830017343,2.0,1.0,phase_3,,,,,519.0,3.0,865.0,346.0,692.0,519.0,1038.0,173.0,green,I
0.0,8.0,4.0,1.0,7.0,6.0,2735.312665012316,2.0,1.0,phase_3,,,,,232.0,2.0,464.0,348.0,116.0,580.0,696.0,232.0,blue,cross
0.0,7.0,3.0,1.0,7.0,6.0,3123.0348080134722,2.0,1.0,phase_3,,,,,405.0,3.0,540.0,135.0,270.0,675.0,810.0,405.0,gray,diamond
0.0,4.0,4.0,0.0,7.0,4.0,1986.6973699972727,2.0,1.0,phase_3,,,,,675.0,5.0,135.0,270.0,810.0,675.0,405.0,540.0,white,triangle
0.0,5.0,1.0,1.0,7.0,5.0,2730.202602004283,2.0,1.0,phase_3,,,,,580.0,5.0,232.0,348.0,464.0,116.0,580.0,696.0,orange,circle
0.0,2.0,2.0,0.0,7.0,4.0,1927.8540829982376,2.0,1.0,phase_3,,,,,810.0,6.0,540.0,135.0,270.0,810.0,405.0,675.0,yellow,flipped triangle
0.0,1.0,1.0,0.0,7.0,6.0,615.4551600047853,2.0,2.0,phase_3,,,,,462.0,3.0,924.0,308.0,154.0,616.0,770.0,462.0,magenta,square
0.0,8.0,4.0,1.0,7.0,4.0,1867.4287959875076,2.0,1.0,phase_3,,,,,270.0,2.0,810.0,675.0,540.0,270.0,405.0,135.0,blue,cross
0.0,1.0,1.0,0.0,7.0,1.0,1890.975118993083,2.0,1.0,phase_3,,,,,768.0,4.0,768.0,960.0,576.0,192.0,1152.0,384.0,magenta,square
0.0,8.0,4.0,1.0,7.0,1.0,1352.19069699815,2.0,1.0,phase_3,,,,,135.0,1.0,135.0,675.0,540.0,810.0,270.0,405.0,blue,cross
0.0,5.0,1.0,1.0,7.0,1.0,1908.6226029903628,2.0,1.0,phase_3,,,,,173.0,1.0,173.0,346.0,1038.0,692.0,865.0,519.0,orange,circle
0.0,6.0,2.0,1.0,7.0,5.0,1699.689525004942,2.0,1.0,phase_3,,,,,405.0,3.0,540.0,135.0,270.0,810.0,405.0,675.0,green,I
0.0,4.0,4.0,0.0,7.0,2.0,2311.000961009995,2.0,1.0,phase_3,,,,,960.0,5.0,1152.0,960.0,384.0,192.0,768.0,576.0,white,triangle
0.0,3.0,3.0,0.0,7.0,6.0,1366.328602991416,2.0,1.0,phase_3,,,,,308.0,2.0,616.0,924.0,154.0,770.0,462.0,308.0,cyan,hexagon
0.0,8.0,4.0,1.0,7.0,1.0,2306.022649005172,2.0,1.0,phase_3,,,,,384.0,2.0,384.0,192.0,576.0,1152.0,768.0,960.0,blue,cross
0.0,5.0,1.0,1.0,7.0,6.0,1778.158994988189,2.0,1.0,phase_3,,,,,405.0,3.0,540.0,810.0,135.0,675.0,270.0,405.0,orange,circle
0.0,8.0,4.0,1.0,7.0,4.0,2234.2458890052512,2.0,1.0,phase_3,,,,,346.0,2.0,865.0,692.0,1038.0,346.0,173.0,519.0,blue,cross
0.0,3.0,3.0,0.0,7.0,2.0,1294.4997750018956,2.0,1.0,phase_3,,,,,173.0,1.0,346.0,173.0,692.0,519.0,865.0,1038.0,cyan,hexagon
0.0,4.0,4.0,0.0,7.0,6.0,1903.7020949908765,2.0,1.0,phase_3,,,,,768.0,4.0,384.0,960.0,576.0,192.0,1152.0,768.0,white,triangle
0.0,5.0,1.0,1.0,7.0,5.0,1987.7268900017957,3.0,1.0,phase_3,,,,,576.0,3.0,960.0,384.0,1152.0,192.0,576.0,768.0,orange,circle
0.0,6.0,2.0,1.0,7.0,2.0,1528.646420003497,3.0,1.0,phase_3,,,,,580.0,5.0,232.0,580.0,116.0,464.0,348.0,696.0,green,I
0.0,7.0,3.0,1.0,7.0,1.0,3346.057321992703,3.0,1.0,phase_3,,,,,519.0,3.0,519.0,173.0,1038.0,346.0,865.0,692.0,gray,diamond
0.0,5.0,1.0,1.0,7.0,2.0,505.10077200306114,3.0,2.0,phase_3,,,,,519.0,3.0,692.0,519.0,173.0,1038.0,865.0,346.0,orange,circle
0.0,4.0,4.0,0.0,7.0,1.0,1346.4804110117257,3.0,1.0,phase_3,,,,,675.0,5.0,675.0,810.0,135.0,540.0,270.0,405.0,white,triangle
0.0,2.0,2.0,0.0,7.0,6.0,1971.6593930061208,3.0,1.0,phase_3,,,,,924.0,6.0,462.0,154.0,308.0,616.0,770.0,924.0,yellow,flipped triangle
0.0,5.0,1.0,1.0,7.0,4.0,1415.9508229931816,3.0,1.0,phase_3,,,,,616.0,4.0,924.0,462.0,308.0,616.0,154.0,770.0,orange,circle
0.0,3.0,3.0,0.0,7.0,6.0,1725.086498001474,3.0,1.0,phase_3,,,,,384.0,2.0,960.0,576.0,192.0,768.0,1152.0,384.0,cyan,hexagon
0.0,8.0,4.0,1.0,7.0,1.0,2858.8192850002088,3.0,1.0,phase_3,,,,,519.0,3.0,519.0,346.0,1038.0,865.0,692.0,173.0,blue,cross
0.0,3.0,3.0,0.0,7.0,1.0,1005.051361004007,3.0,1.0,phase_3,,,,,173.0,1.0,173.0,692.0,865.0,1038.0,519.0,346.0,cyan,hexagon
0.0,2.0,2.0,0.0,7.0,6.0,1281.452878989512,3.0,1.0,phase_3,,,,,960.0,5.0,768.0,576.0,192.0,384.0,1152.0,960.0,yellow,flipped triangle
0.0,6.0,2.0,1.0,7.0,2.0,2020.8848670008592,3.0,1.0,phase_3,,,,,580.0,5.0,348.0,580.0,696.0,232.0,464.0,116.0,green,I
0.0,3.0,3.0,0.0,7.0,2.0,1079.038263997063,3.0,1.0,phase_3,,,,,116.0,1.0,580.0,116.0,464.0,348.0,232.0,696.0,cyan,hexagon
0.0,4.0,4.0,0.0,7.0,5.0,1686.6707849985687,3.0,1.0,phase_3,,,,,692.0,4.0,1038.0,173.0,346.0,519.0,692.0,865.0,white,triangle
0.0,7.0,3.0,1.0,7.0,5.0,942.436022000038,3.0,1.0,phase_3,,,,,576.0,3.0,192.0,384.0,768.0,1152.0,576.0,960.0,gray,diamond
0.0,2.0,2.0,0.0,7.0,6.0,1778.577547011082,3.0,1.0,phase_3,,,,,960.0,5.0,384.0,192.0,768.0,576.0,1152.0,960.0,yellow,flipped triangle
0.0,7.0,3.0,1.0,7.0,5.0,606.082073005382,3.0,1.0,phase_3,,,,,580.0,5.0,696.0,232.0,464.0,116.0,580.0,348.0,gray,diamond
0.0,6.0,2.0,1.0,7.0,1.0,709.4341979973251,3.0,1.0,phase_3,,,,,173.0,1.0,173.0,519.0,1038.0,692.0,865.0,346.0,green,I
0.0,2.0,2.0,0.0,7.0,6.0,1101.7274299956623,3.0,1.0,phase_3,,,,,810.0,6.0,135.0,540.0,675.0,270.0,405.0,810.0,yellow,flipped triangle
0.0,7.0,3.0,1.0,7.0,3.0,1716.1339550075354,3.0,1.0,phase_3,,,,,616.0,4.0,924.0,308.0,616.0,154.0,462.0,770.0,gray,diamond
0.0,5.0,1.0,1.0,7.0,5.0,897.6520190044539,4.0,1.0,phase_3,,,,,270.0,2.0,135.0,405.0,675.0,810.0,270.0,540.0,orange,circle
0.0,1.0,1.0,0.0,7.0,4.0,794.481195989647,4.0,1.0,phase_3,,,,,346.0,2.0,865.0,173.0,519.0,346.0,692.0,1038.0,magenta,square
0.0,3.0,3.0,0.0,7.0,6.0,1008.1526169960853,4.0,1.0,phase_3,,,,,192.0,1.0,1152.0,576.0,768.0,960.0,384.0,192.0,cyan,hexagon
0.0,8.0,4.0,1.0,7.0,2.0,3040.1595440052915,4.0,1.0,phase_3,,,,,576.0,3.0,768.0,576.0,192.0,384.0,1152.0,960.0,blue,cross
0.0,2.0,2.0,0.0,7.0,6.0,1572.9621020000195,4.0,1.0,phase_3,,,,,616.0,4.0,462.0,924.0,308.0,770.0,154.0,616.0,yellow,flipped triangle
0.0,2.0,2.0,0.0,7.0,2.0,1994.4013740023363,4.0,1.0,phase_3,,,,,696.0,6.0,348.0,696.0,232.0,464.0,580.0,116.0,yellow,flipped triangle
0.0,2.0,2.0,0.0,7.0,2.0,1817.6127949991496,4.0,1.0,phase_3,,,,,696.0,6.0,232.0,696.0,348.0,116.0,580.0,464.0,yellow,flipped triangle
0.0,4.0,4.0,0.0,7.0,6.0,923.502980003832,4.0,1.0,phase_3,,,,,865.0,5.0,346.0,173.0,1038.0,519.0,692.0,865.0,white,triangle
0.0,2.0,2.0,0.0,7.0,5.0,932.6065570057837,4.0,1.0,phase_3,,,,,1038.0,6.0,692.0,173.0,519.0,865.0,1038.0,346.0,yellow,flipped triangle
0.0,6.0,2.0,1.0,7.0,2.0,2059.3847959971754,4.0,1.0,phase_3,,,,,960.0,5.0,384.0,960.0,1152.0,576.0,192.0,768.0,green,I
0.0,3.0,3.0,0.0,7.0,6.0,997.2258439956933,4.0,1.0,phase_3,,,,,540.0,4.0,675.0,270.0,810.0,405.0,135.0,540.0,cyan,hexagon
0.0,6.0,2.0,1.0,7.0,4.0,1714.8533620056696,4.0,1.0,phase_3,,,,,616.0,4.0,770.0,308.0,154.0,616.0,924.0,462.0,green,I
0.0,8.0,4.0,1.0,7.0,5.0,875.8001450041775,4.0,1.0,phase_3,,,,,308.0,2.0,924.0,616.0,154.0,770.0,308.0,462.0,blue,cross
0.0,4.0,4.0,0.0,7.0,1.0,999.1100390034262,4.0,1.0,phase_3,,,,,462.0,3.0,462.0,770.0,154.0,924.0,308.0,616.0,white,triangle
0.0,4.0,4.0,0.0,7.0,4.0,2611.3856349984417,4.0,1.0,phase_3,,,,,348.0,3.0,464.0,116.0,580.0,348.0,696.0,232.0,white,triangle
0.0,7.0,3.0,1.0,7.0,2.0,2995.3943959990283,4.0,1.0,phase_3,,,,,576.0,3.0,960.0,576.0,384.0,1152.0,768.0,192.0,gray,diamond
0.0,3.0,3.0,0.0,7.0,5.0,913.7153979972936,4.0,1.0,phase_3,,,,,135.0,1.0,405.0,675.0,810.0,540.0,135.0,270.0,cyan,hexagon
0.0,1.0,1.0,0.0,7.0,6.0,1155.7026660011616,4.0,1.0,phase_3,,,,,675.0,5.0,270.0,810.0,540.0,135.0,405.0,675.0,magenta,square
0.0,1.0,1.0,0.0,7.0,1.0,1146.5980280045187,4.0,1.0,phase_3,,,,,696.0,6.0,696.0,580.0,116.0,348.0,464.0,232.0,magenta,square
0.0,7.0,3.0,1.0,7.0,4.0,1691.003964006086,4.0,1.0,phase_3,,,,,519.0,3.0,346.0,865.0,692.0,519.0,1038.0,173.0,gray,diamond
