raw_reward_magnitude,stim_reward,stepwise_reward_magnitude,paired_with_stopping,stim_location,response,reaction_time,block,num_trial_presentations,which_phase,stop_signal_trial_type,left_SSD,right_SSD,accuracy,chosen_bidding_amount,chosen_bidding_level,possible_bid_1,possible_bid_2,possible_bid_3,possible_bid_4,possible_bid_5,possible_bid_6,color_text,shape_text
345.0,2.0,2.0,0.0,1.0,1.0,435.7403379981406,1.0,1.0,phase_1,,,,,,,,,,,,,yellow,triangle
674.0,3.0,3.0,0.0,1.0,1.0,363.7748920009471,1.0,1.0,phase_1,,,,,,,,,,,,,magenta,cross
630.0,7.0,3.0,1.0,4.0,4.0,401.470534998225,1.0,1.0,phase_1,,,,,,,,,,,,,cyan,square
1294.0,4.0,4.0,0.0,2.0,2.0,634.2502259940375,1.0,1.0,phase_1,,,,,,,,,,,,,blue,flipped triangle
146.0,1.0,1.0,0.0,2.0,2.0,336.4190840075025,1.0,1.0,phase_1,,,,,,,,,,,,,orange,diamond
1321.0,8.0,4.0,1.0,1.0,1.0,400.1540500030387,1.0,1.0,phase_1,,,,,,,,,,,,,gray,circle
1282.0,8.0,4.0,1.0,2.0,2.0,337.2427740105195,1.0,1.0,phase_1,,,,,,,,,,,,,gray,circle
1295.0,4.0,4.0,0.0,4.0,4.0,335.8184640092077,1.0,1.0,phase_1,,,,,,,,,,,,,blue,flipped triangle
1276.0,4.0,4.0,0.0,3.0,3.0,290.3702030016575,1.0,1.0,phase_1,,,,,,,,,,,,,blue,flipped triangle
0.0,5.0,0.0,1.0,3.0,3.0,373.0006569967372,1.0,1.0,phase_1,,,,,,,,,,,,,green,hexagon
0.0,1.0,0.0,0.0,1.0,1.0,318.7209790048655,1.0,1.0,phase_1,,,,,,,,,,,,,orange,diamond
1306.0,8.0,4.0,1.0,4.0,4.0,405.4294789966661,1.0,2.0,phase_1,,,,,,,,,,,,,gray,circle
1321.0,8.0,4.0,1.0,4.0,4.0,438.27878900629,1.0,1.0,phase_1,,,,,,,,,,,,,gray,circle
319.0,2.0,2.0,0.0,4.0,4.0,345.504158991389,1.0,1.0,phase_1,,,,,,,,,,,,,yellow,triangle
0.0,6.0,0.0,1.0,1.0,1.0,465.7445610064314,1.0,1.0,phase_1,,,,,,,,,,,,,white,I
1310.0,8.0,4.0,1.0,4.0,4.0,440.6375139951706,1.0,1.0,phase_1,,,,,,,,,,,,,gray,circle
0.0,4.0,0.0,0.0,4.0,4.0,373.4223829960683,1.0,1.0,phase_1,,,,,,,,,,,,,blue,flipped triangle
1319.0,4.0,4.0,0.0,1.0,1.0,401.1758529959479,1.0,1.0,phase_1,,,,,,,,,,,,,blue,flipped triangle
150.0,5.0,1.0,1.0,4.0,4.0,412.6095780084142,1.0,1.0,phase_1,,,,,,,,,,,,,green,hexagon
327.0,6.0,2.0,1.0,2.0,2.0,418.9089340070495,1.0,1.0,phase_1,,,,,,,,,,,,,white,I
140.0,1.0,1.0,0.0,1.0,1.0,456.6246510075871,1.0,1.0,phase_1,,,,,,,,,,,,,orange,diamond
0.0,6.0,0.0,1.0,2.0,2.0,335.8061640028609,1.0,1.0,phase_1,,,,,,,,,,,,,white,I
0.0,6.0,0.0,1.0,1.0,1.0,429.5706590055488,1.0,1.0,phase_1,,,,,,,,,,,,,white,I
670.0,7.0,3.0,1.0,3.0,3.0,420.567872992251,1.0,1.0,phase_1,,,,,,,,,,,,,cyan,square
0.0,6.0,0.0,1.0,2.0,2.0,384.7996109980158,1.0,1.0,phase_1,,,,,,,,,,,,,white,I
627.0,3.0,3.0,0.0,3.0,3.0,430.6222510058433,1.0,1.0,phase_1,,,,,,,,,,,,,magenta,cross
173.0,1.0,1.0,0.0,3.0,3.0,396.6967879969161,1.0,1.0,phase_1,,,,,,,,,,,,,orange,diamond
0.0,7.0,0.0,1.0,3.0,3.0,411.3763089990243,1.0,1.0,phase_1,,,,,,,,,,,,,cyan,square
0.0,5.0,0.0,1.0,2.0,2.0,533.0249019898474,1.0,1.0,phase_1,,,,,,,,,,,,,green,hexagon
332.0,2.0,2.0,0.0,2.0,2.0,430.666319996817,1.0,1.0,phase_1,,,,,,,,,,,,,yellow,triangle
151.0,1.0,1.0,0.0,4.0,4.0,421.5160539897624,1.0,1.0,phase_1,,,,,,,,,,,,,orange,diamond
1287.0,4.0,4.0,0.0,2.0,2.0,533.8518110074801,1.0,1.0,phase_1,,,,,,,,,,,,,blue,flipped triangle
1290.0,4.0,4.0,0.0,2.0,2.0,458.3334339986322,1.0,1.0,phase_1,,,,,,,,,,,,,blue,flipped triangle
324.0,6.0,2.0,1.0,3.0,3.0,364.0883990010479,1.0,1.0,phase_1,,,,,,,,,,,,,white,I
161.0,1.0,1.0,0.0,4.0,4.0,385.4463119932916,1.0,1.0,phase_1,,,,,,,,,,,,,orange,diamond
0.0,7.0,0.0,1.0,2.0,2.0,672.5451790116495,1.0,1.0,phase_1,,,,,,,,,,,,,cyan,square
1287.0,8.0,4.0,1.0,1.0,1.0,421.6067210072651,1.0,1.0,phase_1,,,,,,,,,,,,,gray,circle
0.0,1.0,0.0,0.0,3.0,3.0,449.6844700042857,1.0,1.0,phase_1,,,,,,,,,,,,,orange,diamond
0.0,4.0,0.0,0.0,1.0,1.0,420.4104490054305,1.0,1.0,phase_1,,,,,,,,,,,,,blue,flipped triangle
162.0,5.0,1.0,1.0,2.0,2.0,745.7546790101333,1.0,1.0,phase_1,,,,,,,,,,,,,green,hexagon
668.0,7.0,3.0,1.0,3.0,3.0,345.8785899856593,1.0,1.0,phase_1,,,,,,,,,,,,,cyan,square
662.0,7.0,3.0,1.0,3.0,3.0,362.9910199961159,1.0,1.0,phase_1,,,,,,,,,,,,,cyan,square
638.0,7.0,3.0,1.0,4.0,4.0,818.2365309912711,1.0,2.0,phase_1,,,,,,,,,,,,,cyan,square
638.0,3.0,3.0,0.0,2.0,2.0,421.4617950055981,1.0,1.0,phase_1,,,,,,,,,,,,,magenta,cross
334.0,2.0,2.0,0.0,4.0,4.0,362.2872050036676,1.0,1.0,phase_1,,,,,,,,,,,,,yellow,triangle
628.0,7.0,3.0,1.0,3.0,3.0,325.9967799967853,1.0,1.0,phase_1,,,,,,,,,,,,,cyan,square
303.0,2.0,2.0,0.0,2.0,2.0,677.6119800051674,1.0,1.0,phase_1,,,,,,,,,,,,,yellow,triangle
182.0,5.0,1.0,1.0,1.0,1.0,401.3838550017681,1.0,1.0,phase_1,,,,,,,,,,,,,green,hexagon
1283.0,8.0,4.0,1.0,4.0,4.0,280.7373380055651,1.0,1.0,phase_1,,,,,,,,,,,,,gray,circle
645.0,7.0,3.0,1.0,3.0,3.0,265.4375069978414,1.0,1.0,phase_1,,,,,,,,,,,,,cyan,square
1315.0,8.0,4.0,1.0,4.0,4.0,372.3491700075101,1.0,1.0,phase_1,,,,,,,,,,,,,gray,circle
631.0,3.0,3.0,0.0,2.0,2.0,363.0115419946378,1.0,1.0,phase_1,,,,,,,,,,,,,magenta,cross
144.0,1.0,1.0,0.0,2.0,2.0,445.9455680043902,1.0,1.0,phase_1,,,,,,,,,,,,,orange,diamond
647.0,3.0,3.0,0.0,2.0,2.0,306.9937779946485,1.0,1.0,phase_1,,,,,,,,,,,,,magenta,cross
675.0,3.0,3.0,0.0,1.0,1.0,315.9194610052509,1.0,1.0,phase_1,,,,,,,,,,,,,magenta,cross
301.0,2.0,2.0,0.0,4.0,4.0,278.8776369998231,1.0,1.0,phase_1,,,,,,,,,,,,,yellow,triangle
0.0,4.0,0.0,0.0,2.0,2.0,279.528950995882,1.0,1.0,phase_1,,,,,,,,,,,,,blue,flipped triangle
177.0,5.0,1.0,1.0,2.0,2.0,690.8642449998297,1.0,1.0,phase_1,,,,,,,,,,,,,green,hexagon
1324.0,8.0,4.0,1.0,3.0,3.0,317.1182399964891,1.0,1.0,phase_1,,,,,,,,,,,,,gray,circle
154.0,1.0,1.0,0.0,1.0,1.0,337.6737600046908,1.0,1.0,phase_1,,,,,,,,,,,,,orange,diamond
346.0,6.0,2.0,1.0,2.0,2.0,373.9413669973146,1.0,1.0,phase_1,,,,,,,,,,,,,white,I
641.0,3.0,3.0,0.0,3.0,3.0,374.1343899891944,1.0,1.0,phase_1,,,,,,,,,,,,,magenta,cross
309.0,6.0,2.0,1.0,4.0,4.0,466.2769370042952,1.0,2.0,phase_1,,,,,,,,,,,,,white,I
1319.0,4.0,4.0,0.0,2.0,2.0,653.1757160119014,1.0,1.0,phase_1,,,,,,,,,,,,,blue,flipped triangle
173.0,5.0,1.0,1.0,3.0,3.0,505.32558899431024,1.0,1.0,phase_1,,,,,,,,,,,,,green,hexagon
332.0,6.0,2.0,1.0,4.0,4.0,365.5926560022635,1.0,1.0,phase_1,,,,,,,,,,,,,white,I
155.0,5.0,1.0,1.0,1.0,1.0,252.920113998698,1.0,1.0,phase_1,,,,,,,,,,,,,green,hexagon
666.0,7.0,3.0,1.0,1.0,1.0,438.1277959910221,1.0,1.0,phase_1,,,,,,,,,,,,,cyan,square
671.0,7.0,3.0,1.0,4.0,4.0,450.8673009986523,1.0,1.0,phase_1,,,,,,,,,,,,,cyan,square
153.0,5.0,1.0,1.0,4.0,4.0,448.2137169979978,1.0,1.0,phase_1,,,,,,,,,,,,,green,hexagon
341.0,6.0,2.0,1.0,2.0,2.0,642.0237199927215,1.0,1.0,phase_1,,,,,,,,,,,,,white,I
174.0,1.0,1.0,0.0,1.0,1.0,372.8030860074796,1.0,1.0,phase_1,,,,,,,,,,,,,orange,diamond
1300.0,4.0,4.0,0.0,3.0,3.0,335.2955399896018,1.0,1.0,phase_1,,,,,,,,,,,,,blue,flipped triangle
169.0,1.0,1.0,0.0,2.0,2.0,894.0115720033646,1.0,1.0,phase_1,,,,,,,,,,,,,orange,diamond
645.0,3.0,3.0,0.0,2.0,2.0,420.7899720058776,1.0,1.0,phase_1,,,,,,,,,,,,,magenta,cross
643.0,7.0,3.0,1.0,3.0,3.0,345.2217480080435,1.0,1.0,phase_1,,,,,,,,,,,,,cyan,square
185.0,5.0,1.0,1.0,4.0,4.0,355.8021770004416,1.0,1.0,phase_1,,,,,,,,,,,,,green,hexagon
0.0,3.0,0.0,0.0,1.0,1.0,319.3226370058255,1.0,1.0,phase_1,,,,,,,,,,,,,magenta,cross
0.0,4.0,0.0,0.0,3.0,3.0,531.8715600005817,1.0,1.0,phase_1,,,,,,,,,,,,,blue,flipped triangle
0.0,2.0,0.0,0.0,3.0,3.0,477.1378620062023,1.0,1.0,phase_1,,,,,,,,,,,,,yellow,triangle
0.0,6.0,0.0,1.0,2.0,2.0,391.8874069931917,1.0,1.0,phase_1,,,,,,,,,,,,,white,I
144.0,1.0,1.0,0.0,3.0,3.0,409.9435280077159,1.0,1.0,phase_1,,,,,,,,,,,,,orange,diamond
1308.0,8.0,4.0,1.0,3.0,3.0,448.4307140082819,1.0,1.0,phase_1,,,,,,,,,,,,,gray,circle
655.0,3.0,3.0,0.0,1.0,1.0,478.2857389946002,1.0,1.0,phase_1,,,,,,,,,,,,,magenta,cross
309.0,2.0,2.0,0.0,2.0,2.0,682.0508350065211,1.0,1.0,phase_1,,,,,,,,,,,,,yellow,triangle
303.0,6.0,2.0,1.0,2.0,2.0,801.3356370065594,1.0,1.0,phase_1,,,,,,,,,,,,,white,I
171.0,1.0,1.0,0.0,4.0,4.0,355.322809991776,1.0,1.0,phase_1,,,,,,,,,,,,,orange,diamond
0.0,8.0,0.0,1.0,2.0,2.0,490.4525760066462,1.0,1.0,phase_1,,,,,,,,,,,,,gray,circle
341.0,6.0,2.0,1.0,1.0,1.0,390.9917889977805,1.0,1.0,phase_1,,,,,,,,,,,,,white,I
346.0,2.0,2.0,0.0,4.0,4.0,360.9947129880311,1.0,1.0,phase_1,,,,,,,,,,,,,yellow,triangle
334.0,6.0,2.0,1.0,3.0,3.0,447.0010209915926,1.0,1.0,phase_1,,,,,,,,,,,,,white,I
1300.0,4.0,4.0,0.0,1.0,1.0,355.1813889935147,1.0,1.0,phase_1,,,,,,,,,,,,,blue,flipped triangle
0.0,2.0,0.0,0.0,3.0,3.0,354.8750149930129,1.0,2.0,phase_1,,,,,,,,,,,,,yellow,triangle
313.0,6.0,2.0,1.0,3.0,3.0,463.7511059991084,1.0,1.0,phase_1,,,,,,,,,,,,,white,I
627.0,7.0,3.0,1.0,4.0,4.0,371.4331649971427,1.0,1.0,phase_1,,,,,,,,,,,,,cyan,square
628.0,7.0,3.0,1.0,1.0,1.0,278.1751820002682,1.0,1.0,phase_1,,,,,,,,,,,,,cyan,square
332.0,2.0,2.0,0.0,4.0,4.0,270.4336979950312,1.0,1.0,phase_1,,,,,,,,,,,,,yellow,triangle
1298.0,8.0,4.0,1.0,1.0,1.0,317.8039429913042,1.0,2.0,phase_1,,,,,,,,,,,,,gray,circle
323.0,6.0,2.0,1.0,1.0,1.0,578.6459639930399,1.0,1.0,phase_1,,,,,,,,,,,,,white,I
1305.0,4.0,4.0,0.0,3.0,3.0,392.4147729994729,1.0,1.0,phase_1,,,,,,,,,,,,,blue,flipped triangle
336.0,6.0,2.0,1.0,1.0,1.0,401.7499189940281,2.0,1.0,phase_1,,,,,,,,,,,,,white,I
1312.0,4.0,4.0,0.0,4.0,4.0,326.4935860061086,2.0,1.0,phase_1,,,,,,,,,,,,,blue,flipped triangle
313.0,6.0,2.0,1.0,4.0,4.0,372.2202209901297,2.0,1.0,phase_1,,,,,,,,,,,,,white,I
168.0,1.0,1.0,0.0,2.0,2.0,676.7231789999641,2.0,1.0,phase_1,,,,,,,,,,,,,orange,diamond
0.0,3.0,0.0,0.0,4.0,4.0,316.8378759874031,2.0,1.0,phase_1,,,,,,,,,,,,,magenta,cross
1321.0,4.0,4.0,0.0,2.0,2.0,466.4445410016924,2.0,1.0,phase_1,,,,,,,,,,,,,blue,flipped triangle
1305.0,8.0,4.0,1.0,2.0,2.0,410.0927359977504,2.0,1.0,phase_1,,,,,,,,,,,,,gray,circle
185.0,1.0,1.0,0.0,1.0,1.0,345.4959730006521,2.0,1.0,phase_1,,,,,,,,,,,,,orange,diamond
306.0,6.0,2.0,1.0,4.0,4.0,307.4910540017299,2.0,1.0,phase_1,,,,,,,,,,,,,white,I
1317.0,4.0,4.0,0.0,4.0,4.0,447.9173510044347,2.0,1.0,phase_1,,,,,,,,,,,,,blue,flipped triangle
0.0,4.0,0.0,0.0,1.0,1.0,391.4440689986804,2.0,1.0,phase_1,,,,,,,,,,,,,blue,flipped triangle
310.0,6.0,2.0,1.0,1.0,1.0,704.9633499991614,2.0,1.0,phase_1,,,,,,,,,,,,,white,I
166.0,1.0,1.0,0.0,2.0,2.0,753.0741840018891,2.0,1.0,phase_1,,,,,,,,,,,,,orange,diamond
0.0,3.0,0.0,0.0,2.0,2.0,455.6235380005091,2.0,1.0,phase_1,,,,,,,,,,,,,magenta,cross
171.0,5.0,1.0,1.0,3.0,3.0,354.0589809999801,2.0,1.0,phase_1,,,,,,,,,,,,,green,hexagon
147.0,1.0,1.0,0.0,2.0,2.0,708.4296940010972,2.0,1.0,phase_1,,,,,,,,,,,,,orange,diamond
319.0,6.0,2.0,1.0,4.0,4.0,298.8919869967503,2.0,1.0,phase_1,,,,,,,,,,,,,white,I
330.0,2.0,2.0,0.0,4.0,4.0,445.7314169994788,2.0,1.0,phase_1,,,,,,,,,,,,,yellow,triangle
161.0,1.0,1.0,0.0,3.0,3.0,269.6081429894548,2.0,2.0,phase_1,,,,,,,,,,,,,orange,diamond
154.0,5.0,1.0,1.0,1.0,1.0,669.2090520082274,2.0,1.0,phase_1,,,,,,,,,,,,,green,hexagon
0.0,6.0,0.0,1.0,1.0,1.0,557.9334390058648,2.0,1.0,phase_1,,,,,,,,,,,,,white,I
1288.0,8.0,4.0,1.0,2.0,2.0,763.2800740102539,2.0,1.0,phase_1,,,,,,,,,,,,,gray,circle
150.0,1.0,1.0,0.0,4.0,4.0,502.69699799537193,2.0,1.0,phase_1,,,,,,,,,,,,,orange,diamond
628.0,3.0,3.0,0.0,3.0,3.0,500.97085000015795,2.0,1.0,phase_1,,,,,,,,,,,,,magenta,cross
333.0,6.0,2.0,1.0,2.0,2.0,670.6510850053746,2.0,1.0,phase_1,,,,,,,,,,,,,white,I
0.0,1.0,0.0,0.0,4.0,4.0,325.8734199916944,2.0,1.0,phase_1,,,,,,,,,,,,,orange,diamond
664.0,3.0,3.0,0.0,4.0,4.0,380.8782489941222,2.0,1.0,phase_1,,,,,,,,,,,,,magenta,cross
1290.0,8.0,4.0,1.0,4.0,4.0,335.7496859971434,2.0,1.0,phase_1,,,,,,,,,,,,,gray,circle
634.0,7.0,3.0,1.0,1.0,1.0,326.7862710054032,2.0,1.0,phase_1,,,,,,,,,,,,,cyan,square
0.0,2.0,0.0,0.0,1.0,1.0,371.7665510048391,2.0,1.0,phase_1,,,,,,,,,,,,,yellow,triangle
332.0,6.0,2.0,1.0,1.0,1.0,474.4375709997257,2.0,1.0,phase_1,,,,,,,,,,,,,white,I
138.0,5.0,1.0,1.0,2.0,2.0,399.9964139948133,2.0,1.0,phase_1,,,,,,,,,,,,,green,hexagon
153.0,5.0,1.0,1.0,3.0,3.0,391.2048240017611,2.0,1.0,phase_1,,,,,,,,,,,,,green,hexagon
338.0,2.0,2.0,0.0,2.0,2.0,371.9404769944958,2.0,1.0,phase_1,,,,,,,,,,,,,yellow,triangle
0.0,8.0,0.0,1.0,1.0,1.0,428.7526660045841,2.0,1.0,phase_1,,,,,,,,,,,,,gray,circle
327.0,2.0,2.0,0.0,3.0,3.0,483.7426059966674,2.0,1.0,phase_1,,,,,,,,,,,,,yellow,triangle
1300.0,8.0,4.0,1.0,4.0,4.0,345.1418639888288,2.0,1.0,phase_1,,,,,,,,,,,,,gray,circle
1310.0,4.0,4.0,0.0,3.0,3.0,437.3413199937204,2.0,1.0,phase_1,,,,,,,,,,,,,blue,flipped triangle
0.0,5.0,0.0,1.0,4.0,4.0,381.4569990063319,2.0,1.0,phase_1,,,,,,,,,,,,,green,hexagon
1300.0,8.0,4.0,1.0,3.0,3.0,408.0953219963703,2.0,2.0,phase_1,,,,,,,,,,,,,gray,circle
666.0,3.0,3.0,0.0,1.0,1.0,512.7438049967168,2.0,1.0,phase_1,,,,,,,,,,,,,magenta,cross
0.0,3.0,0.0,0.0,4.0,4.0,353.1110430049011,2.0,1.0,phase_1,,,,,,,,,,,,,magenta,cross
315.0,6.0,2.0,1.0,3.0,3.0,409.0681009984109,2.0,1.0,phase_1,,,,,,,,,,,,,white,I
672.0,3.0,3.0,0.0,2.0,2.0,390.205945004709,2.0,1.0,phase_1,,,,,,,,,,,,,magenta,cross
1297.0,4.0,4.0,0.0,3.0,3.0,334.6307519968832,2.0,1.0,phase_1,,,,,,,,,,,,,blue,flipped triangle
653.0,3.0,3.0,0.0,2.0,2.0,455.2909199992427,2.0,1.0,phase_1,,,,,,,,,,,,,magenta,cross
148.0,5.0,1.0,1.0,1.0,1.0,400.6984650040976,2.0,1.0,phase_1,,,,,,,,,,,,,green,hexagon
675.0,7.0,3.0,1.0,1.0,1.0,382.212670010631,2.0,1.0,phase_1,,,,,,,,,,,,,cyan,square
0.0,5.0,0.0,1.0,4.0,4.0,373.4285550017375,2.0,1.0,phase_1,,,,,,,,,,,,,green,hexagon
177.0,1.0,1.0,0.0,4.0,4.0,344.6567560022231,2.0,1.0,phase_1,,,,,,,,,,,,,orange,diamond
0.0,2.0,0.0,0.0,3.0,3.0,307.2566100017866,2.0,1.0,phase_1,,,,,,,,,,,,,yellow,triangle
0.0,5.0,0.0,1.0,3.0,3.0,391.7490720050409,2.0,1.0,phase_1,,,,,,,,,,,,,green,hexagon
314.0,6.0,2.0,1.0,3.0,3.0,428.5766450047958,2.0,1.0,phase_1,,,,,,,,,,,,,white,I
314.0,2.0,2.0,0.0,3.0,3.0,383.0529840051895,2.0,1.0,phase_1,,,,,,,,,,,,,yellow,triangle
0.0,8.0,0.0,1.0,3.0,3.0,446.3085089955712,2.0,1.0,phase_1,,,,,,,,,,,,,gray,circle
667.0,7.0,3.0,1.0,3.0,3.0,409.6160430053714,2.0,1.0,phase_1,,,,,,,,,,,,,cyan,square
1288.0,4.0,4.0,0.0,4.0,4.0,354.4087780028349,2.0,1.0,phase_1,,,,,,,,,,,,,blue,flipped triangle
0.0,1.0,0.0,0.0,1.0,1.0,400.9740670007886,2.0,1.0,phase_1,,,,,,,,,,,,,orange,diamond
326.0,6.0,2.0,1.0,1.0,1.0,484.1998899937607,2.0,1.0,phase_1,,,,,,,,,,,,,white,I
0.0,5.0,0.0,1.0,2.0,2.0,399.4431099999929,2.0,1.0,phase_1,,,,,,,,,,,,,green,hexagon
185.0,5.0,1.0,1.0,3.0,3.0,353.9935739972861,2.0,1.0,phase_1,,,,,,,,,,,,,green,hexagon
311.0,6.0,2.0,1.0,2.0,2.0,484.3231890117749,2.0,1.0,phase_1,,,,,,,,,,,,,white,I
162.0,1.0,1.0,0.0,2.0,2.0,427.3788460122887,2.0,1.0,phase_1,,,,,,,,,,,,,orange,diamond
137.0,5.0,1.0,1.0,2.0,2.0,390.3473050013417,2.0,1.0,phase_1,,,,,,,,,,,,,green,hexagon
333.0,6.0,2.0,1.0,1.0,1.0,325.1545509992866,2.0,1.0,phase_1,,,,,,,,,,,,,white,I
1313.0,4.0,4.0,0.0,4.0,4.0,325.0221199996304,2.0,1.0,phase_1,,,,,,,,,,,,,blue,flipped triangle
637.0,3.0,3.0,0.0,4.0,4.0,334.3170169973746,2.0,1.0,phase_1,,,,,,,,,,,,,magenta,cross
1294.0,8.0,4.0,1.0,3.0,3.0,372.5428030011244,2.0,1.0,phase_1,,,,,,,,,,,,,gray,circle
0.0,2.0,0.0,0.0,1.0,1.0,410.1398609927855,2.0,1.0,phase_1,,,,,,,,,,,,,yellow,triangle
1288.0,8.0,4.0,1.0,1.0,1.0,427.4928009981522,2.0,1.0,phase_1,,,,,,,,,,,,,gray,circle
1320.0,8.0,4.0,1.0,3.0,3.0,372.4401259969454,2.0,1.0,phase_1,,,,,,,,,,,,,gray,circle
320.0,6.0,2.0,1.0,1.0,1.0,353.496121999342,2.0,1.0,phase_1,,,,,,,,,,,,,white,I
303.0,6.0,2.0,1.0,2.0,2.0,363.3175470022252,2.0,1.0,phase_1,,,,,,,,,,,,,white,I
0.0,2.0,0.0,0.0,4.0,4.0,335.9050419967389,2.0,1.0,phase_1,,,,,,,,,,,,,yellow,triangle
653.0,7.0,3.0,1.0,2.0,2.0,690.7539360108785,2.0,1.0,phase_1,,,,,,,,,,,,,cyan,square
1292.0,4.0,4.0,0.0,1.0,1.0,409.7213479981292,2.0,1.0,phase_1,,,,,,,,,,,,,blue,flipped triangle
329.0,6.0,2.0,1.0,3.0,3.0,278.4001549880486,2.0,1.0,phase_1,,,,,,,,,,,,,white,I
313.0,2.0,2.0,0.0,2.0,2.0,414.2275659978622,2.0,1.0,phase_1,,,,,,,,,,,,,yellow,triangle
330.0,6.0,2.0,1.0,4.0,4.0,310.838325007353,2.0,2.0,phase_1,,,,,,,,,,,,,white,I
177.0,5.0,1.0,1.0,4.0,4.0,438.6593209928833,2.0,1.0,phase_1,,,,,,,,,,,,,green,hexagon
186.0,1.0,1.0,0.0,2.0,2.0,559.6220510051353,2.0,1.0,phase_1,,,,,,,,,,,,,orange,diamond
1277.0,4.0,4.0,0.0,4.0,4.0,362.7457350085024,2.0,1.0,phase_1,,,,,,,,,,,,,blue,flipped triangle
668.0,3.0,3.0,0.0,3.0,3.0,446.1350540077546,2.0,1.0,phase_1,,,,,,,,,,,,,magenta,cross
671.0,3.0,3.0,0.0,3.0,3.0,449.308689989266,2.0,1.0,phase_1,,,,,,,,,,,,,magenta,cross
310.0,2.0,2.0,0.0,1.0,1.0,344.3388439918635,2.0,1.0,phase_1,,,,,,,,,,,,,yellow,triangle
1300.0,8.0,4.0,1.0,3.0,3.0,380.9256930107949,2.0,1.0,phase_1,,,,,,,,,,,,,gray,circle
341.0,2.0,2.0,0.0,3.0,3.0,410.2008860063506,2.0,1.0,phase_1,,,,,,,,,,,,,yellow,triangle
0.0,1.0,0.0,0.0,2.0,2.0,445.8329129993217,2.0,1.0,phase_1,,,,,,,,,,,,,orange,diamond
630.0,3.0,3.0,0.0,1.0,1.0,335.7750430004671,2.0,1.0,phase_1,,,,,,,,,,,,,magenta,cross
186.0,5.0,1.0,1.0,3.0,3.0,316.8859130091732,2.0,1.0,phase_1,,,,,,,,,,,,,green,hexagon
0.0,6.0,0.0,1.0,3.0,3.0,316.1528680066112,2.0,1.0,phase_1,,,,,,,,,,,,,white,I
336.0,2.0,2.0,0.0,3.0,3.0,410.4592410003533,2.0,1.0,phase_1,,,,,,,,,,,,,yellow,triangle
1321.0,4.0,4.0,0.0,3.0,3.0,363.3180930046364,2.0,1.0,phase_1,,,,,,,,,,,,,blue,flipped triangle
311.0,2.0,2.0,0.0,1.0,1.0,317.6201680034864,2.0,1.0,phase_1,,,,,,,,,,,,,yellow,triangle
637.0,3.0,3.0,0.0,3.0,3.0,382.6713129965355,2.0,1.0,phase_1,,,,,,,,,,,,,magenta,cross
0.0,7.0,0.0,1.0,4.0,4.0,326.3724239950534,2.0,1.0,phase_1,,,,,,,,,,,,,cyan,square
338.0,6.0,2.0,1.0,2.0,2.0,427.4242329993285,2.0,1.0,phase_1,,,,,,,,,,,,,white,I
0.0,7.0,0.0,1.0,1.0,1.0,344.0767299907747,2.0,1.0,phase_1,,,,,,,,,,,,,cyan,square
154.0,1.0,1.0,0.0,2.0,2.0,392.0843150117434,2.0,1.0,phase_1,,,,,,,,,,,,,orange,diamond
151.0,5.0,1.0,1.0,3.0,3.0,363.1012170080794,2.0,1.0,phase_1,,,,,,,,,,,,,green,hexagon
1281.0,4.0,4.0,0.0,2.0,2.0,798.272227999405,3.0,1.0,phase_1,,,,,,,,,,,,,blue,flipped triangle
641.0,7.0,3.0,1.0,1.0,1.0,335.2442989998963,3.0,1.0,phase_1,,,,,,,,,,,,,cyan,square
175.0,1.0,1.0,0.0,1.0,1.0,344.3553779943613,3.0,1.0,phase_1,,,,,,,,,,,,,orange,diamond
655.0,7.0,3.0,1.0,4.0,4.0,400.9971679915907,3.0,1.0,phase_1,,,,,,,,,,,,,cyan,square
333.0,2.0,2.0,0.0,3.0,3.0,345.3684120031539,3.0,1.0,phase_1,,,,,,,,,,,,,yellow,triangle
643.0,3.0,3.0,0.0,4.0,4.0,345.7082679960876,3.0,1.0,phase_1,,,,,,,,,,,,,magenta,cross
0.0,4.0,0.0,0.0,1.0,1.0,446.7387329932535,3.0,1.0,phase_1,,,,,,,,,,,,,blue,flipped triangle
649.0,3.0,3.0,0.0,2.0,2.0,465.1458649896085,3.0,1.0,phase_1,,,,,,,,,,,,,magenta,cross
0.0,7.0,0.0,1.0,4.0,4.0,280.4188149893889,3.0,1.0,phase_1,,,,,,,,,,,,,cyan,square
321.0,2.0,2.0,0.0,1.0,1.0,400.8142370003043,3.0,1.0,phase_1,,,,,,,,,,,,,yellow,triangle
0.0,1.0,0.0,0.0,2.0,2.0,353.1002229865407,3.0,1.0,phase_1,,,,,,,,,,,,,orange,diamond
646.0,7.0,3.0,1.0,1.0,1.0,428.142830991419,3.0,1.0,phase_1,,,,,,,,,,,,,cyan,square
342.0,6.0,2.0,1.0,1.0,1.0,659.0380060079042,3.0,1.0,phase_1,,,,,,,,,,,,,white,I
0.0,7.0,0.0,1.0,3.0,3.0,334.9679660022957,3.0,1.0,phase_1,,,,,,,,,,,,,cyan,square
1298.0,4.0,4.0,0.0,4.0,4.0,307.8511259955121,3.0,1.0,phase_1,,,,,,,,,,,,,blue,flipped triangle
162.0,5.0,1.0,1.0,3.0,3.0,437.630230007926,3.0,1.0,phase_1,,,,,,,,,,,,,green,hexagon
0.0,4.0,0.0,0.0,2.0,2.0,269.68416798627,3.0,2.0,phase_1,,,,,,,,,,,,,blue,flipped triangle
171.0,1.0,1.0,0.0,1.0,1.0,410.0458299944876,3.0,1.0,phase_1,,,,,,,,,,,,,orange,diamond
0.0,7.0,0.0,1.0,4.0,4.0,389.4904170010704,3.0,1.0,phase_1,,,,,,,,,,,,,cyan,square
0.0,3.0,0.0,0.0,4.0,4.0,474.3758230033563,3.0,1.0,phase_1,,,,,,,,,,,,,magenta,cross
150.0,5.0,1.0,1.0,3.0,3.0,512.4200360005489,3.0,1.0,phase_1,,,,,,,,,,,,,green,hexagon
1308.0,4.0,4.0,0.0,2.0,2.0,714.7795030032285,3.0,1.0,phase_1,,,,,,,,,,,,,blue,flipped triangle
1306.0,4.0,4.0,0.0,4.0,4.0,511.727791003068,3.0,1.0,phase_1,,,,,,,,,,,,,blue,flipped triangle
153.0,5.0,1.0,1.0,2.0,2.0,556.5017600019928,3.0,1.0,phase_1,,,,,,,,,,,,,green,hexagon
328.0,2.0,2.0,0.0,3.0,3.0,667.7953570033424,3.0,1.0,phase_1,,,,,,,,,,,,,yellow,triangle
0.0,1.0,0.0,0.0,1.0,1.0,362.3047729925019,3.0,1.0,phase_1,,,,,,,,,,,,,orange,diamond
673.0,3.0,3.0,0.0,2.0,2.0,705.7464340032311,3.0,1.0,phase_1,,,,,,,,,,,,,magenta,cross
1312.0,8.0,4.0,1.0,1.0,1.0,426.5049410023493,3.0,1.0,phase_1,,,,,,,,,,,,,gray,circle
166.0,1.0,1.0,0.0,3.0,3.0,389.4502939947415,3.0,1.0,phase_1,,,,,,,,,,,,,orange,diamond
1277.0,8.0,4.0,1.0,2.0,2.0,453.9395010069711,3.0,1.0,phase_1,,,,,,,,,,,,,gray,circle
1319.0,8.0,4.0,1.0,4.0,4.0,333.7367910135072,3.0,1.0,phase_1,,,,,,,,,,,,,gray,circle
1288.0,4.0,4.0,0.0,3.0,3.0,407.566776004387,3.0,1.0,phase_1,,,,,,,,,,,,,blue,flipped triangle
657.0,7.0,3.0,1.0,3.0,3.0,408.7967369996477,3.0,1.0,phase_1,,,,,,,,,,,,,cyan,square
657.0,3.0,3.0,0.0,1.0,1.0,343.2462890050374,3.0,1.0,phase_1,,,,,,,,,,,,,magenta,cross
634.0,3.0,3.0,0.0,1.0,1.0,427.1531280101044,3.0,1.0,phase_1,,,,,,,,,,,,,magenta,cross
338.0,6.0,2.0,1.0,4.0,4.0,343.8640509994002,3.0,1.0,phase_1,,,,,,,,,,,,,white,I
338.0,2.0,2.0,0.0,1.0,1.0,667.3777770047309,3.0,1.0,phase_1,,,,,,,,,,,,,yellow,triangle
647.0,7.0,3.0,1.0,1.0,1.0,463.6500810011057,3.0,1.0,phase_1,,,,,,,,,,,,,cyan,square
1297.0,8.0,4.0,1.0,1.0,1.0,492.1562139934394,3.0,1.0,phase_1,,,,,,,,,,,,,gray,circle
1305.0,8.0,4.0,1.0,3.0,3.0,632.3518179997336,3.0,1.0,phase_1,,,,,,,,,,,,,gray,circle
0.0,7.0,0.0,1.0,3.0,3.0,427.4116700107697,3.0,1.0,phase_1,,,,,,,,,,,,,cyan,square
652.0,3.0,3.0,0.0,4.0,4.0,548.3607490023132,3.0,1.0,phase_1,,,,,,,,,,,,,magenta,cross
1292.0,8.0,4.0,1.0,2.0,2.0,640.9808210009942,3.0,1.0,phase_1,,,,,,,,,,,,,gray,circle
656.0,3.0,3.0,0.0,4.0,4.0,400.210136998794,3.0,1.0,phase_1,,,,,,,,,,,,,magenta,cross
142.0,1.0,1.0,0.0,3.0,3.0,436.9785089947982,3.0,1.0,phase_1,,,,,,,,,,,,,orange,diamond
0.0,8.0,0.0,1.0,2.0,2.0,465.1486419897992,3.0,1.0,phase_1,,,,,,,,,,,,,gray,circle
332.0,2.0,2.0,0.0,2.0,2.0,763.8515880098566,3.0,1.0,phase_1,,,,,,,,,,,,,yellow,triangle
0.0,3.0,0.0,0.0,1.0,1.0,456.4427920122398,3.0,1.0,phase_1,,,,,,,,,,,,,magenta,cross
637.0,7.0,3.0,1.0,1.0,1.0,780.934669994167,3.0,1.0,phase_1,,,,,,,,,,,,,cyan,square
161.0,5.0,1.0,1.0,4.0,4.0,521.7465839959914,3.0,1.0,phase_1,,,,,,,,,,,,,green,hexagon
333.0,2.0,2.0,0.0,2.0,2.0,734.5603100111475,3.0,1.0,phase_1,,,,,,,,,,,,,yellow,triangle
0.0,2.0,0.0,0.0,4.0,4.0,363.4506590024102,3.0,1.0,phase_1,,,,,,,,,,,,,yellow,triangle
1281.0,8.0,4.0,1.0,3.0,3.0,596.4498969988199,3.0,1.0,phase_1,,,,,,,,,,,,,gray,circle
633.0,3.0,3.0,0.0,4.0,4.0,418.2007970084669,3.0,1.0,phase_1,,,,,,,,,,,,,magenta,cross
345.0,2.0,2.0,0.0,3.0,3.0,826.6528120002476,3.0,1.0,phase_1,,,,,,,,,,,,,yellow,triangle
345.0,6.0,2.0,1.0,2.0,2.0,642.1837140078424,3.0,1.0,phase_1,,,,,,,,,,,,,white,I
637.0,7.0,3.0,1.0,3.0,3.0,417.056774997036,3.0,1.0,phase_1,,,,,,,,,,,,,cyan,square
1277.0,8.0,4.0,1.0,4.0,4.0,529.3350220017601,3.0,1.0,phase_1,,,,,,,,,,,,,gray,circle
0.0,2.0,0.0,0.0,3.0,3.0,530.9910540090641,3.0,1.0,phase_1,,,,,,,,,,,,,yellow,triangle
183.0,1.0,1.0,0.0,1.0,1.0,558.3522450033342,3.0,1.0,phase_1,,,,,,,,,,,,,orange,diamond
1298.0,4.0,4.0,0.0,1.0,1.0,510.57313800265547,3.0,1.0,phase_1,,,,,,,,,,,,,blue,flipped triangle
177.0,1.0,1.0,0.0,4.0,4.0,371.1413090059068,3.0,1.0,phase_1,,,,,,,,,,,,,orange,diamond
146.0,5.0,1.0,1.0,2.0,2.0,751.8928849895019,3.0,1.0,phase_1,,,,,,,,,,,,,green,hexagon
647.0,3.0,3.0,0.0,2.0,2.0,845.2226399967913,3.0,1.0,phase_1,,,,,,,,,,,,,magenta,cross
148.0,1.0,1.0,0.0,3.0,3.0,597.0881749963155,3.0,1.0,phase_1,,,,,,,,,,,,,orange,diamond
153.0,1.0,1.0,0.0,4.0,4.0,558.4822689997964,3.0,1.0,phase_1,,,,,,,,,,,,,orange,diamond
172.0,1.0,1.0,0.0,4.0,4.0,390.088989996002,3.0,1.0,phase_1,,,,,,,,,,,,,orange,diamond
649.0,7.0,3.0,1.0,2.0,2.0,613.080113005708,3.0,1.0,phase_1,,,,,,,,,,,,,cyan,square
1293.0,4.0,4.0,0.0,3.0,3.0,417.7249759959522,3.0,1.0,phase_1,,,,,,,,,,,,,blue,flipped triangle
0.0,3.0,0.0,0.0,4.0,4.0,417.6064649946056,3.0,1.0,phase_1,,,,,,,,,,,,,magenta,cross
0.0,1.0,0.0,0.0,1.0,1.0,401.3604829960968,3.0,1.0,phase_1,,,,,,,,,,,,,orange,diamond
177.0,5.0,1.0,1.0,1.0,1.0,362.5109580025309,3.0,1.0,phase_1,,,,,,,,,,,,,green,hexagon
673.0,7.0,3.0,1.0,4.0,4.0,307.7608229941688,3.0,1.0,phase_1,,,,,,,,,,,,,cyan,square
0.0,5.0,0.0,1.0,4.0,4.0,631.626596004935,3.0,1.0,phase_1,,,,,,,,,,,,,green,hexagon
1300.0,4.0,4.0,0.0,1.0,1.0,549.8114470101427,3.0,1.0,phase_1,,,,,,,,,,,,,blue,flipped triangle
647.0,7.0,3.0,1.0,2.0,2.0,631.8064859951846,3.0,1.0,phase_1,,,,,,,,,,,,,cyan,square
315.0,6.0,2.0,1.0,2.0,2.0,752.680670004338,3.0,1.0,phase_1,,,,,,,,,,,,,white,I
137.0,1.0,1.0,0.0,2.0,2.0,641.4788649999537,3.0,1.0,phase_1,,,,,,,,,,,,,orange,diamond
153.0,1.0,1.0,0.0,4.0,4.0,466.8474609934492,3.0,1.0,phase_1,,,,,,,,,,,,,orange,diamond
0.0,3.0,0.0,0.0,3.0,3.0,400.5982289963867,3.0,1.0,phase_1,,,,,,,,,,,,,magenta,cross
338.0,6.0,2.0,1.0,3.0,3.0,530.7546709955204,3.0,1.0,phase_1,,,,,,,,,,,,,white,I
1283.0,4.0,4.0,0.0,1.0,1.0,370.9059329994488,3.0,1.0,phase_1,,,,,,,,,,,,,blue,flipped triangle
342.0,2.0,2.0,0.0,4.0,4.0,380.235841992544,3.0,1.0,phase_1,,,,,,,,,,,,,yellow,triangle
147.0,5.0,1.0,1.0,1.0,1.0,447.47882799129,3.0,1.0,phase_1,,,,,,,,,,,,,green,hexagon
155.0,1.0,1.0,0.0,3.0,3.0,586.1395700048888,3.0,1.0,phase_1,,,,,,,,,,,,,orange,diamond
150.0,1.0,1.0,0.0,4.0,4.0,615.136000997154,3.0,1.0,phase_1,,,,,,,,,,,,,orange,diamond
653.0,3.0,3.0,0.0,4.0,4.0,381.6671209933702,3.0,1.0,phase_1,,,,,,,,,,,,,magenta,cross
642.0,3.0,3.0,0.0,4.0,4.0,345.9152760042343,3.0,1.0,phase_1,,,,,,,,,,,,,magenta,cross
144.0,5.0,1.0,1.0,2.0,2.0,557.8380039951298,3.0,1.0,phase_1,,,,,,,,,,,,,green,hexagon
315.0,2.0,2.0,0.0,4.0,4.0,316.2738480023108,3.0,1.0,phase_1,,,,,,,,,,,,,yellow,triangle
631.0,3.0,3.0,0.0,3.0,3.0,427.7814179949928,3.0,1.0,phase_1,,,,,,,,,,,,,magenta,cross
315.0,2.0,2.0,0.0,1.0,1.0,483.2088850089349,3.0,1.0,phase_1,,,,,,,,,,,,,yellow,triangle
633.0,7.0,3.0,1.0,4.0,4.0,733.6108189920196,3.0,1.0,phase_1,,,,,,,,,,,,,cyan,square
672.0,7.0,3.0,1.0,3.0,3.0,577.5774250068935,3.0,1.0,phase_1,,,,,,,,,,,,,cyan,square
0.0,8.0,0.0,1.0,4.0,4.0,549.9208760011243,3.0,1.0,phase_1,,,,,,,,,,,,,gray,circle
326.0,2.0,2.0,0.0,3.0,3.0,436.8168320070253,3.0,1.0,phase_1,,,,,,,,,,,,,yellow,triangle
338.0,2.0,2.0,0.0,1.0,1.0,409.4541740050772,3.0,1.0,phase_1,,,,,,,,,,,,,yellow,triangle
182.0,1.0,1.0,0.0,3.0,3.0,437.3405750084203,3.0,1.0,phase_1,,,,,,,,,,,,,orange,diamond
138.0,1.0,1.0,0.0,3.0,3.0,353.4597999969264,3.0,1.0,phase_1,,,,,,,,,,,,,orange,diamond
0.0,1.0,0.0,0.0,3.0,3.0,389.7246919950703,3.0,1.0,phase_1,,,,,,,,,,,,,orange,diamond
301.0,6.0,2.0,1.0,3.0,3.0,418.3600739925168,4.0,1.0,phase_1,,,,,,,,,,,,,white,I
1305.0,4.0,4.0,0.0,1.0,1.0,373.234879996744,4.0,1.0,phase_1,,,,,,,,,,,,,blue,flipped triangle
1293.0,8.0,4.0,1.0,2.0,2.0,596.5085449861363,4.0,1.0,phase_1,,,,,,,,,,,,,gray,circle
329.0,2.0,2.0,0.0,1.0,1.0,357.0156900095753,4.0,1.0,phase_1,,,,,,,,,,,,,yellow,triangle
1282.0,4.0,4.0,0.0,1.0,1.0,399.7057399974437,4.0,1.0,phase_1,,,,,,,,,,,,,blue,flipped triangle
341.0,2.0,2.0,0.0,2.0,2.0,606.3591029960662,4.0,1.0,phase_1,,,,,,,,,,,,,yellow,triangle
1291.0,8.0,4.0,1.0,2.0,2.0,335.1313339953776,4.0,1.0,phase_1,,,,,,,,,,,,,gray,circle
168.0,5.0,1.0,1.0,2.0,2.0,390.8914000057848,4.0,1.0,phase_1,,,,,,,,,,,,,green,hexagon
1294.0,8.0,4.0,1.0,3.0,3.0,392.6952069887193,4.0,1.0,phase_1,,,,,,,,,,,,,gray,circle
1294.0,4.0,4.0,0.0,3.0,3.0,386.3586509978631,4.0,1.0,phase_1,,,,,,,,,,,,,blue,flipped triangle
631.0,7.0,3.0,1.0,4.0,4.0,372.8821469994727,4.0,1.0,phase_1,,,,,,,,,,,,,cyan,square
323.0,2.0,2.0,0.0,3.0,3.0,625.0255180057138,4.0,1.0,phase_1,,,,,,,,,,,,,yellow,triangle
0.0,6.0,0.0,1.0,3.0,3.0,438.2617139926879,4.0,1.0,phase_1,,,,,,,,,,,,,white,I
332.0,6.0,2.0,1.0,3.0,3.0,380.9638069942593,4.0,1.0,phase_1,,,,,,,,,,,,,white,I
0.0,8.0,0.0,1.0,3.0,3.0,307.191548999981,4.0,1.0,phase_1,,,,,,,,,,,,,gray,circle
162.0,1.0,1.0,0.0,3.0,3.0,327.3942569940118,4.0,1.0,phase_1,,,,,,,,,,,,,orange,diamond
175.0,5.0,1.0,1.0,4.0,4.0,326.9586270034779,4.0,1.0,phase_1,,,,,,,,,,,,,green,hexagon
646.0,3.0,3.0,0.0,1.0,1.0,316.0935970081482,4.0,1.0,phase_1,,,,,,,,,,,,,magenta,cross
659.0,7.0,3.0,1.0,2.0,2.0,401.8905720004113,4.0,1.0,phase_1,,,,,,,,,,,,,cyan,square
1298.0,8.0,4.0,1.0,4.0,4.0,346.5820080018602,4.0,1.0,phase_1,,,,,,,,,,,,,gray,circle
642.0,3.0,3.0,0.0,4.0,4.0,308.5646359977545,4.0,1.0,phase_1,,,,,,,,,,,,,magenta,cross
329.0,6.0,2.0,1.0,4.0,4.0,326.1328960070386,4.0,1.0,phase_1,,,,,,,,,,,,,white,I
140.0,5.0,1.0,1.0,4.0,4.0,317.2731350059621,4.0,1.0,phase_1,,,,,,,,,,,,,green,hexagon
161.0,5.0,1.0,1.0,4.0,4.0,307.3473479889799,4.0,1.0,phase_1,,,,,,,,,,,,,green,hexagon
0.0,7.0,0.0,1.0,4.0,4.0,345.5871080077486,4.0,1.0,phase_1,,,,,,,,,,,,,cyan,square
166.0,5.0,1.0,1.0,2.0,2.0,390.7215600047493,4.0,2.0,phase_1,,,,,,,,,,,,,green,hexagon
652.0,7.0,3.0,1.0,4.0,4.0,391.4715819992125,4.0,1.0,phase_1,,,,,,,,,,,,,cyan,square
1295.0,8.0,4.0,1.0,2.0,2.0,709.3037340091541,4.0,1.0,phase_1,,,,,,,,,,,,,gray,circle
174.0,5.0,1.0,1.0,1.0,1.0,400.7588599924929,4.0,1.0,phase_1,,,,,,,,,,,,,green,hexagon
0.0,2.0,0.0,0.0,2.0,2.0,455.9807410114445,4.0,1.0,phase_1,,,,,,,,,,,,,yellow,triangle
628.0,3.0,3.0,0.0,1.0,1.0,417.8682580095483,4.0,1.0,phase_1,,,,,,,,,,,,,magenta,cross
324.0,2.0,2.0,0.0,4.0,4.0,390.8719899918651,4.0,1.0,phase_1,,,,,,,,,,,,,yellow,triangle
144.0,5.0,1.0,1.0,1.0,1.0,427.3332000011578,4.0,1.0,phase_1,,,,,,,,,,,,,green,hexagon
304.0,6.0,2.0,1.0,4.0,4.0,278.9527749991976,4.0,1.0,phase_1,,,,,,,,,,,,,white,I
172.0,5.0,1.0,1.0,2.0,2.0,623.12480599212,4.0,1.0,phase_1,,,,,,,,,,,,,green,hexagon
320.0,2.0,2.0,0.0,2.0,2.0,445.3747149964329,4.0,1.0,phase_1,,,,,,,,,,,,,yellow,triangle
659.0,3.0,3.0,0.0,3.0,3.0,344.9259680055547,4.0,1.0,phase_1,,,,,,,,,,,,,magenta,cross
1319.0,8.0,4.0,1.0,3.0,3.0,354.9445400130935,4.0,1.0,phase_1,,,,,,,,,,,,,gray,circle
674.0,7.0,3.0,1.0,1.0,1.0,297.7747120021377,4.0,1.0,phase_1,,,,,,,,,,,,,cyan,square
657.0,3.0,3.0,0.0,3.0,3.0,326.4956240018364,4.0,1.0,phase_1,,,,,,,,,,,,,magenta,cross
166.0,5.0,1.0,1.0,1.0,1.0,315.719195001293,4.0,1.0,phase_1,,,,,,,,,,,,,green,hexagon
0.0,5.0,0.0,1.0,1.0,1.0,381.972961986321,4.0,1.0,phase_1,,,,,,,,,,,,,green,hexagon
656.0,7.0,3.0,1.0,2.0,2.0,392.3760119942017,4.0,1.0,phase_1,,,,,,,,,,,,,cyan,square
171.0,5.0,1.0,1.0,4.0,4.0,314.7728600015398,4.0,2.0,phase_1,,,,,,,,,,,,,green,hexagon
1276.0,8.0,4.0,1.0,1.0,1.0,493.6789560015313,4.0,1.0,phase_1,,,,,,,,,,,,,gray,circle
1324.0,4.0,4.0,0.0,3.0,3.0,362.8270860062912,4.0,1.0,phase_1,,,,,,,,,,,,,blue,flipped triangle
1291.0,4.0,4.0,0.0,4.0,4.0,400.5800000013551,4.0,1.0,phase_1,,,,,,,,,,,,,blue,flipped triangle
642.0,7.0,3.0,1.0,2.0,2.0,473.5017310013063,4.0,1.0,phase_1,,,,,,,,,,,,,cyan,square
0.0,3.0,0.0,0.0,2.0,2.0,436.5940730058355,4.0,1.0,phase_1,,,,,,,,,,,,,magenta,cross
631.0,7.0,3.0,1.0,4.0,4.0,316.9993619958404,4.0,1.0,phase_1,,,,,,,,,,,,,cyan,square
0.0,2.0,0.0,0.0,1.0,1.0,446.4978710020659,4.0,1.0,phase_1,,,,,,,,,,,,,yellow,triangle
0.0,8.0,0.0,1.0,4.0,4.0,307.6499090093421,4.0,1.0,phase_1,,,,,,,,,,,,,gray,circle
321.0,6.0,2.0,1.0,1.0,1.0,381.2680459959665,4.0,1.0,phase_1,,,,,,,,,,,,,white,I
306.0,2.0,2.0,0.0,3.0,3.0,316.6029120038729,4.0,2.0,phase_1,,,,,,,,,,,,,yellow,triangle
1300.0,8.0,4.0,1.0,1.0,1.0,569.7705839993432,4.0,1.0,phase_1,,,,,,,,,,,,,gray,circle
0.0,4.0,0.0,0.0,4.0,4.0,307.3996739985887,4.0,1.0,phase_1,,,,,,,,,,,,,blue,flipped triangle
0.0,3.0,0.0,0.0,3.0,3.0,410.5808430031175,4.0,1.0,phase_1,,,,,,,,,,,,,magenta,cross
0.0,1.0,0.0,0.0,4.0,4.0,327.5987289962359,4.0,1.0,phase_1,,,,,,,,,,,,,orange,diamond
0.0,4.0,0.0,0.0,1.0,1.0,494.2974909936311,4.0,1.0,phase_1,,,,,,,,,,,,,blue,flipped triangle
185.0,1.0,1.0,0.0,1.0,1.0,747.1416659973329,4.0,1.0,phase_1,,,,,,,,,,,,,orange,diamond
328.0,6.0,2.0,1.0,4.0,4.0,546.1897409986705,4.0,1.0,phase_1,,,,,,,,,,,,,white,I
313.0,2.0,2.0,0.0,1.0,1.0,493.9682940021157,4.0,1.0,phase_1,,,,,,,,,,,,,yellow,triangle
177.0,1.0,1.0,0.0,1.0,1.0,762.9666669963626,4.0,1.0,phase_1,,,,,,,,,,,,,orange,diamond
664.0,7.0,3.0,1.0,2.0,2.0,604.7875399963232,4.0,1.0,phase_1,,,,,,,,,,,,,cyan,square
1313.0,8.0,4.0,1.0,2.0,2.0,501.5768329903949,4.0,1.0,phase_1,,,,,,,,,,,,,gray,circle
670.0,3.0,3.0,0.0,4.0,4.0,356.0976750013651,4.0,1.0,phase_1,,,,,,,,,,,,,magenta,cross
1315.0,4.0,4.0,0.0,1.0,1.0,335.808634001296,4.0,1.0,phase_1,,,,,,,,,,,,,blue,flipped triangle
154.0,5.0,1.0,1.0,3.0,3.0,383.2924599992111,4.0,1.0,phase_1,,,,,,,,,,,,,green,hexagon
1277.0,4.0,4.0,0.0,2.0,2.0,390.3633019945118,4.0,1.0,phase_1,,,,,,,,,,,,,blue,flipped triangle
1298.0,8.0,4.0,1.0,1.0,1.0,371.660493008676,4.0,1.0,phase_1,,,,,,,,,,,,,gray,circle
1298.0,4.0,4.0,0.0,4.0,4.0,333.6115310085006,4.0,1.0,phase_1,,,,,,,,,,,,,blue,flipped triangle
153.0,1.0,1.0,0.0,1.0,1.0,511.3994369894499,4.0,1.0,phase_1,,,,,,,,,,,,,orange,diamond
0.0,6.0,0.0,1.0,2.0,2.0,427.0759540086146,4.0,1.0,phase_1,,,,,,,,,,,,,white,I
1300.0,4.0,4.0,0.0,2.0,2.0,492.4547909904504,4.0,1.0,phase_1,,,,,,,,,,,,,blue,flipped triangle
1317.0,8.0,4.0,1.0,1.0,1.0,371.494281993364,4.0,1.0,phase_1,,,,,,,,,,,,,gray,circle
645.0,3.0,3.0,0.0,1.0,1.0,492.0777789957355,4.0,1.0,phase_1,,,,,,,,,,,,,magenta,cross
1320.0,4.0,4.0,0.0,2.0,2.0,437.0453779993113,4.0,1.0,phase_1,,,,,,,,,,,,,blue,flipped triangle
0.0,8.0,0.0,1.0,2.0,2.0,408.895749002113,4.0,1.0,phase_1,,,,,,,,,,,,,gray,circle
657.0,7.0,3.0,1.0,2.0,2.0,362.3149069899227,4.0,1.0,phase_1,,,,,,,,,,,,,cyan,square
0.0,7.0,0.0,1.0,2.0,2.0,390.379168005893,4.0,1.0,phase_1,,,,,,,,,,,,,cyan,square
0.0,5.0,0.0,1.0,2.0,2.0,379.4843590003438,4.0,1.0,phase_1,,,,,,,,,,,,,green,hexagon
303.0,2.0,2.0,0.0,2.0,2.0,671.1578789982013,4.0,1.0,phase_1,,,,,,,,,,,,,yellow,triangle
329.0,2.0,2.0,0.0,1.0,1.0,408.7915760028409,4.0,1.0,phase_1,,,,,,,,,,,,,yellow,triangle
0.0,8.0,0.0,1.0,1.0,1.0,427.4046290083788,4.0,1.0,phase_1,,,,,,,,,,,,,gray,circle
1297.0,8.0,4.0,1.0,2.0,2.0,436.7519740044372,4.0,1.0,phase_1,,,,,,,,,,,,,gray,circle
345.0,6.0,2.0,1.0,3.0,3.0,530.5664080078714,4.0,1.0,phase_1,,,,,,,,,,,,,white,I
1297.0,4.0,4.0,0.0,1.0,1.0,334.283782998682,4.0,1.0,phase_1,,,,,,,,,,,,,blue,flipped triangle
304.0,2.0,2.0,0.0,4.0,4.0,400.2496400062227,4.0,1.0,phase_1,,,,,,,,,,,,,yellow,triangle
645.0,7.0,3.0,1.0,1.0,1.0,614.0673869958846,4.0,1.0,phase_1,,,,,,,,,,,,,cyan,square
0.0,8.0,0.0,1.0,3.0,3.0,428.9138450112659,4.0,1.0,phase_1,,,,,,,,,,,,,gray,circle
142.0,5.0,1.0,1.0,3.0,3.0,520.584173995303,4.0,1.0,phase_1,,,,,,,,,,,,,green,hexagon
169.0,5.0,1.0,1.0,1.0,1.0,325.9561910090269,4.0,1.0,phase_1,,,,,,,,,,,,,green,hexagon
662.0,3.0,3.0,0.0,2.0,2.0,633.642172004329,4.0,1.0,phase_1,,,,,,,,,,,,,magenta,cross
0.0,5.0,0.0,1.0,2.0,2.0,426.8474040000001,4.0,1.0,phase_1,,,,,,,,,,,,,green,hexagon
667.0,3.0,3.0,0.0,3.0,3.0,539.1236199939158,4.0,1.0,phase_1,,,,,,,,,,,,,magenta,cross
642.0,7.0,3.0,1.0,2.0,2.0,530.1652159978403,4.0,1.0,phase_1,,,,,,,,,,,,,cyan,square
653.0,7.0,3.0,1.0,2.0,2.0,439.1240270051639,4.0,1.0,phase_1,,,,,,,,,,,,,cyan,square
0.0,6.0,0.0,1.0,3.0,3.0,474.9289629980922,4.0,1.0,phase_1,,,,,,,,,,,,,white,I
183.0,5.0,1.0,1.0,4.0,4.0,371.5522790007526,4.0,1.0,phase_1,,,,,,,,,,,,,green,hexagon
0.0,4.0,0.0,0.0,2.0,2.0,745.1214489992708,4.0,1.0,phase_1,,,,,,,,,,,,,blue,flipped triangle
0.0,4.0,4.0,0.0,5.0,5.0,391.8478780105943,1.0,1.0,phase_2,go,250.0,250.0,1.0,,,,,,,,,blue,flipped triangle
0.0,2.0,2.0,0.0,5.0,5.0,514.5368149969727,1.0,1.0,phase_2,go,250.0,250.0,1.0,,,,,,,,,yellow,triangle
0.0,8.0,4.0,1.0,6.0,6.0,620.445787004428,1.0,1.0,phase_2,stop,250.0,250.0,3.0,,,,,,,,,gray,circle
0.0,6.0,2.0,1.0,6.0,6.0,372.9748120094882,1.0,1.0,phase_2,stop,250.0,200.0,3.0,,,,,,,,,white,I
0.0,7.0,3.0,1.0,6.0,6.0,365.6481240032008,1.0,1.0,phase_2,stop,250.0,150.0,3.0,,,,,,,,,cyan,square
0.0,2.0,2.0,0.0,5.0,5.0,479.0024959947914,1.0,1.0,phase_2,go,250.0,100.0,1.0,,,,,,,,,yellow,triangle
0.0,3.0,3.0,0.0,5.0,5.0,487.1881459985161,1.0,1.0,phase_2,go,250.0,100.0,1.0,,,,,,,,,magenta,cross
0.0,4.0,4.0,0.0,5.0,5.0,467.8390929911984,1.0,1.0,phase_2,go,250.0,100.0,1.0,,,,,,,,,blue,flipped triangle
0.0,3.0,3.0,0.0,5.0,5.0,346.4045999862719,1.0,1.0,phase_2,go,250.0,100.0,1.0,,,,,,,,,magenta,cross
0.0,5.0,1.0,1.0,6.0,0.0,0.0,1.0,1.0,phase_2,stop,250.0,100.0,4.0,,,,,,,,,green,hexagon
0.0,7.0,3.0,1.0,6.0,6.0,1161.803675990086,1.0,1.0,phase_2,go,250.0,150.0,1.0,,,,,,,,,cyan,square
0.0,1.0,1.0,0.0,5.0,5.0,1123.670419008704,1.0,1.0,phase_2,go,250.0,150.0,1.0,,,,,,,,,orange,diamond
0.0,4.0,4.0,0.0,5.0,5.0,590.2436790056527,1.0,1.0,phase_2,go,250.0,150.0,1.0,,,,,,,,,blue,flipped triangle
0.0,6.0,2.0,1.0,5.0,5.0,354.0277199936099,1.0,1.0,phase_2,stop,250.0,150.0,3.0,,,,,,,,,white,I
0.0,4.0,4.0,0.0,5.0,5.0,752.0346820092527,1.0,1.0,phase_2,go,200.0,150.0,1.0,,,,,,,,,blue,flipped triangle
0.0,7.0,3.0,1.0,6.0,0.0,0.0,1.0,1.0,phase_2,stop,200.0,150.0,4.0,,,,,,,,,cyan,square
0.0,5.0,1.0,1.0,5.0,5.0,339.5714920043247,1.0,1.0,phase_2,stop,200.0,200.0,3.0,,,,,,,,,green,hexagon
0.0,8.0,4.0,1.0,5.0,0.0,0.0,1.0,1.0,phase_2,stop,150.0,200.0,4.0,,,,,,,,,gray,circle
0.0,2.0,2.0,0.0,5.0,5.0,461.5987709985347,1.0,1.0,phase_2,go,200.0,200.0,1.0,,,,,,,,,yellow,triangle
0.0,5.0,1.0,1.0,6.0,6.0,462.6700630033156,1.0,1.0,phase_2,go,200.0,200.0,1.0,,,,,,,,,green,hexagon
0.0,7.0,3.0,1.0,5.0,5.0,369.5595850003883,1.0,1.0,phase_2,stop,200.0,200.0,3.0,,,,,,,,,cyan,square
0.0,1.0,1.0,0.0,5.0,5.0,535.8528229990043,1.0,1.0,phase_2,go,150.0,200.0,1.0,,,,,,,,,orange,diamond
0.0,5.0,1.0,1.0,5.0,0.0,0.0,1.0,1.0,phase_2,stop,150.0,200.0,4.0,,,,,,,,,green,hexagon
0.0,4.0,4.0,0.0,5.0,5.0,668.9178889937466,1.0,1.0,phase_2,go,200.0,200.0,1.0,,,,,,,,,blue,flipped triangle
0.0,3.0,3.0,0.0,6.0,6.0,462.1224430011352,1.0,1.0,phase_2,go,200.0,200.0,1.0,,,,,,,,,magenta,cross
0.0,4.0,4.0,0.0,5.0,5.0,470.3507099911803,1.0,1.0,phase_2,go,200.0,200.0,1.0,,,,,,,,,blue,flipped triangle
0.0,4.0,4.0,0.0,6.0,6.0,449.6326759981457,1.0,1.0,phase_2,go,200.0,200.0,1.0,,,,,,,,,blue,flipped triangle
0.0,1.0,1.0,0.0,5.0,5.0,489.2283009976381,1.0,1.0,phase_2,go,200.0,200.0,1.0,,,,,,,,,orange,diamond
0.0,7.0,3.0,1.0,5.0,5.0,1088.6942520010052,1.0,1.0,phase_2,go,200.0,200.0,1.0,,,,,,,,,cyan,square
0.0,3.0,3.0,0.0,5.0,5.0,571.4148989936803,1.0,1.0,phase_2,go,200.0,200.0,1.0,,,,,,,,,magenta,cross
0.0,1.0,1.0,0.0,6.0,6.0,805.5770819919417,1.0,1.0,phase_2,go,200.0,200.0,1.0,,,,,,,,,orange,diamond
0.0,8.0,4.0,1.0,6.0,0.0,0.0,1.0,1.0,phase_2,stop,200.0,200.0,4.0,,,,,,,,,gray,circle
0.0,1.0,1.0,0.0,5.0,5.0,451.1398619943065,1.0,1.0,phase_2,go,200.0,250.0,1.0,,,,,,,,,orange,diamond
0.0,1.0,1.0,0.0,5.0,5.0,553.6868149938527,1.0,1.0,phase_2,go,200.0,250.0,1.0,,,,,,,,,orange,diamond
0.0,5.0,1.0,1.0,5.0,5.0,553.170957005932,1.0,1.0,phase_2,go,200.0,250.0,1.0,,,,,,,,,green,hexagon
0.0,2.0,2.0,0.0,6.0,6.0,394.8483790009049,1.0,1.0,phase_2,go,200.0,250.0,1.0,,,,,,,,,yellow,triangle
0.0,5.0,1.0,1.0,6.0,6.0,487.4030950013548,2.0,1.0,phase_2,go,200.0,250.0,1.0,,,,,,,,,green,hexagon
0.0,8.0,4.0,1.0,5.0,5.0,636.5063919947715,2.0,1.0,phase_2,go,200.0,250.0,1.0,,,,,,,,,gray,circle
0.0,7.0,3.0,1.0,5.0,0.0,0.0,2.0,1.0,phase_2,stop,200.0,250.0,4.0,,,,,,,,,cyan,square
0.0,1.0,1.0,0.0,6.0,6.0,598.2755580043886,2.0,1.0,phase_2,go,250.0,250.0,1.0,,,,,,,,,orange,diamond
0.0,7.0,3.0,1.0,6.0,0.0,0.0,2.0,1.0,phase_2,stop,250.0,250.0,4.0,,,,,,,,,cyan,square
0.0,1.0,1.0,0.0,5.0,5.0,458.1560809892835,2.0,1.0,phase_2,go,250.0,300.0,1.0,,,,,,,,,orange,diamond
0.0,7.0,3.0,1.0,5.0,0.0,0.0,2.0,1.0,phase_2,stop,250.0,300.0,4.0,,,,,,,,,cyan,square
0.0,2.0,2.0,0.0,5.0,5.0,468.01108699582977,2.0,1.0,phase_2,go,300.0,300.0,1.0,,,,,,,,,yellow,triangle
0.0,6.0,2.0,1.0,6.0,0.0,0.0,2.0,1.0,phase_2,stop,300.0,300.0,4.0,,,,,,,,,white,I
0.0,3.0,3.0,0.0,6.0,6.0,619.2811770015396,2.0,1.0,phase_2,go,300.0,350.0,1.0,,,,,,,,,magenta,cross
0.0,1.0,1.0,0.0,6.0,6.0,554.748145994381,2.0,1.0,phase_2,go,300.0,350.0,1.0,,,,,,,,,orange,diamond
0.0,3.0,3.0,0.0,6.0,6.0,514.536731003318,2.0,1.0,phase_2,go,300.0,350.0,1.0,,,,,,,,,magenta,cross
0.0,3.0,3.0,0.0,6.0,6.0,480.7972709968453,2.0,1.0,phase_2,go,300.0,350.0,1.0,,,,,,,,,magenta,cross
0.0,8.0,4.0,1.0,5.0,5.0,628.4894300042652,2.0,1.0,phase_2,go,300.0,350.0,1.0,,,,,,,,,gray,circle
0.0,5.0,1.0,1.0,6.0,6.0,455.8455920050619,2.0,1.0,phase_2,stop,300.0,350.0,3.0,,,,,,,,,green,hexagon
0.0,6.0,2.0,1.0,6.0,6.0,629.353368000011,2.0,1.0,phase_2,go,300.0,300.0,1.0,,,,,,,,,white,I
0.0,6.0,2.0,1.0,6.0,6.0,555.7832890044665,2.0,1.0,phase_2,go,300.0,300.0,1.0,,,,,,,,,white,I
0.0,5.0,1.0,1.0,6.0,6.0,665.7350710011087,2.0,1.0,phase_2,go,300.0,300.0,1.0,,,,,,,,,green,hexagon
0.0,7.0,3.0,1.0,6.0,0.0,0.0,2.0,1.0,phase_2,stop,300.0,300.0,4.0,,,,,,,,,cyan,square
0.0,2.0,2.0,0.0,5.0,5.0,460.732202991494,2.0,1.0,phase_2,go,300.0,350.0,1.0,,,,,,,,,yellow,triangle
0.0,3.0,3.0,0.0,5.0,5.0,797.6213610090781,2.0,1.0,phase_2,go,300.0,350.0,1.0,,,,,,,,,magenta,cross
0.0,5.0,1.0,1.0,5.0,0.0,0.0,2.0,1.0,phase_2,stop,300.0,350.0,4.0,,,,,,,,,green,hexagon
0.0,4.0,4.0,0.0,5.0,5.0,657.0439060014905,2.0,1.0,phase_2,go,350.0,350.0,1.0,,,,,,,,,blue,flipped triangle
0.0,8.0,4.0,1.0,6.0,0.0,0.0,2.0,1.0,phase_2,stop,350.0,350.0,4.0,,,,,,,,,gray,circle
0.0,7.0,3.0,1.0,5.0,5.0,554.044671007432,2.0,1.0,phase_2,stop,350.0,400.0,3.0,,,,,,,,,cyan,square
0.0,4.0,4.0,0.0,5.0,5.0,760.3343389928341,2.0,1.0,phase_2,go,300.0,400.0,1.0,,,,,,,,,blue,flipped triangle
0.0,7.0,3.0,1.0,6.0,0.0,0.0,2.0,1.0,phase_2,stop,300.0,400.0,4.0,,,,,,,,,cyan,square
0.0,5.0,1.0,1.0,5.0,0.0,0.0,2.0,1.0,phase_2,stop,300.0,450.0,4.0,,,,,,,,,green,hexagon
0.0,8.0,4.0,1.0,5.0,0.0,0.0,2.0,1.0,phase_2,stop,350.0,450.0,4.0,,,,,,,,,gray,circle
0.0,2.0,2.0,0.0,5.0,5.0,668.5451499943156,2.0,1.0,phase_2,go,400.0,450.0,1.0,,,,,,,,,yellow,triangle
0.0,3.0,3.0,0.0,5.0,5.0,544.083094006055,2.0,1.0,phase_2,go,400.0,450.0,1.0,,,,,,,,,magenta,cross
0.0,5.0,1.0,1.0,6.0,6.0,843.5624910052866,2.0,1.0,phase_2,go,400.0,450.0,1.0,,,,,,,,,green,hexagon
0.0,3.0,3.0,0.0,6.0,6.0,732.2706090053543,2.0,1.0,phase_2,go,400.0,450.0,1.0,,,,,,,,,magenta,cross
0.0,1.0,1.0,0.0,6.0,6.0,801.4953039964894,2.0,1.0,phase_2,go,400.0,450.0,1.0,,,,,,,,,orange,diamond
0.0,1.0,1.0,0.0,6.0,6.0,751.5304629923776,2.0,1.0,phase_2,go,400.0,450.0,1.0,,,,,,,,,orange,diamond
0.0,8.0,4.0,1.0,6.0,6.0,687.3354959971039,2.0,1.0,phase_2,go,400.0,450.0,1.0,,,,,,,,,gray,circle
0.0,6.0,2.0,1.0,6.0,6.0,540.7560340099735,3.0,1.0,phase_2,stop,400.0,450.0,3.0,,,,,,,,,white,I
0.0,5.0,1.0,1.0,6.0,6.0,694.9629369919421,3.0,1.0,phase_2,go,400.0,400.0,1.0,,,,,,,,,green,hexagon
0.0,6.0,2.0,1.0,6.0,0.0,0.0,3.0,1.0,phase_2,stop,400.0,400.0,4.0,,,,,,,,,white,I
0.0,7.0,3.0,1.0,6.0,6.0,743.4111280017532,3.0,1.0,phase_2,go,400.0,450.0,1.0,,,,,,,,,cyan,square
0.0,3.0,3.0,0.0,5.0,5.0,609.3647090019658,3.0,1.0,phase_2,go,400.0,450.0,1.0,,,,,,,,,magenta,cross
0.0,3.0,3.0,0.0,5.0,5.0,647.3756640043575,3.0,1.0,phase_2,go,400.0,450.0,1.0,,,,,,,,,magenta,cross
0.0,7.0,3.0,1.0,5.0,5.0,658.2944559922908,3.0,1.0,phase_2,go,400.0,450.0,1.0,,,,,,,,,cyan,square
0.0,6.0,2.0,1.0,6.0,6.0,660.7042140094563,3.0,1.0,phase_2,go,400.0,450.0,1.0,,,,,,,,,white,I
0.0,3.0,3.0,0.0,5.0,5.0,564.0055340045365,3.0,1.0,phase_2,go,400.0,450.0,1.0,,,,,,,,,magenta,cross
0.0,5.0,1.0,1.0,6.0,6.0,440.0776010006666,3.0,1.0,phase_2,stop,400.0,450.0,3.0,,,,,,,,,green,hexagon
0.0,8.0,4.0,1.0,6.0,0.0,0.0,3.0,1.0,phase_2,stop,400.0,400.0,4.0,,,,,,,,,gray,circle
0.0,3.0,3.0,0.0,6.0,6.0,523.5393170005409,3.0,1.0,phase_2,go,400.0,450.0,1.0,,,,,,,,,magenta,cross
0.0,2.0,2.0,0.0,5.0,5.0,874.4020510057453,3.0,1.0,phase_2,go,400.0,450.0,1.0,,,,,,,,,yellow,triangle
0.0,4.0,4.0,0.0,6.0,6.0,752.293917001225,3.0,1.0,phase_2,go,400.0,450.0,1.0,,,,,,,,,blue,flipped triangle
0.0,7.0,3.0,1.0,5.0,0.0,0.0,3.0,1.0,phase_2,stop,400.0,450.0,4.0,,,,,,,,,cyan,square
0.0,8.0,4.0,1.0,5.0,5.0,874.2260889994213,3.0,1.0,phase_2,go,450.0,450.0,1.0,,,,,,,,,gray,circle
0.0,3.0,3.0,0.0,6.0,6.0,600.8443919999991,3.0,1.0,phase_2,go,450.0,450.0,1.0,,,,,,,,,magenta,cross
0.0,6.0,2.0,1.0,5.0,0.0,0.0,3.0,1.0,phase_2,stop,450.0,450.0,4.0,,,,,,,,,white,I
0.0,5.0,1.0,1.0,5.0,0.0,0.0,3.0,1.0,phase_2,stop,500.0,450.0,4.0,,,,,,,,,green,hexagon
0.0,2.0,2.0,0.0,6.0,6.0,601.2292029918171,3.0,1.0,phase_2,go,550.0,450.0,1.0,,,,,,,,,yellow,triangle
0.0,3.0,3.0,0.0,6.0,6.0,618.8375519996043,3.0,1.0,phase_2,go,550.0,450.0,1.0,,,,,,,,,magenta,cross
0.0,1.0,1.0,0.0,6.0,6.0,807.7061270014383,3.0,1.0,phase_2,go,550.0,450.0,1.0,,,,,,,,,orange,diamond
0.0,8.0,4.0,1.0,6.0,0.0,0.0,3.0,1.0,phase_2,stop,550.0,450.0,4.0,,,,,,,,,gray,circle
0.0,2.0,2.0,0.0,6.0,6.0,517.5357859989163,3.0,1.0,phase_2,go,550.0,500.0,1.0,,,,,,,,,yellow,triangle
0.0,2.0,2.0,0.0,5.0,5.0,430.6836489995476,3.0,1.0,phase_2,go,550.0,500.0,1.0,,,,,,,,,yellow,triangle
0.0,4.0,4.0,0.0,5.0,5.0,664.9205220019212,3.0,1.0,phase_2,go,550.0,500.0,1.0,,,,,,,,,blue,flipped triangle
0.0,7.0,3.0,1.0,5.0,5.0,767.3130800103536,3.0,1.0,phase_2,stop,550.0,500.0,3.0,,,,,,,,,cyan,square
0.0,3.0,3.0,0.0,6.0,6.0,543.5730909957783,3.0,1.0,phase_2,go,500.0,500.0,1.0,,,,,,,,,magenta,cross
0.0,5.0,1.0,1.0,6.0,0.0,0.0,3.0,1.0,phase_2,stop,500.0,500.0,4.0,,,,,,,,,green,hexagon
0.0,1.0,1.0,0.0,5.0,5.0,815.2529760118341,3.0,1.0,phase_2,go,500.0,550.0,1.0,,,,,,,,,orange,diamond
0.0,2.0,2.0,0.0,6.0,6.0,610.1462719962001,3.0,1.0,phase_2,go,500.0,550.0,1.0,,,,,,,,,yellow,triangle
0.0,4.0,4.0,0.0,6.0,6.0,875.7644699944649,3.0,1.0,phase_2,go,500.0,550.0,1.0,,,,,,,,,blue,flipped triangle
0.0,7.0,3.0,1.0,5.0,5.0,654.8291759972926,3.0,1.0,phase_2,stop,500.0,550.0,3.0,,,,,,,,,cyan,square
0.0,4.0,4.0,0.0,6.0,6.0,873.1075980031164,3.0,1.0,phase_2,go,450.0,550.0,1.0,,,,,,,,,blue,flipped triangle
0.0,4.0,4.0,0.0,6.0,6.0,946.9897999952082,3.0,1.0,phase_2,go,450.0,550.0,1.0,,,,,,,,,blue,flipped triangle
0.0,7.0,3.0,1.0,6.0,6.0,610.3792290086858,3.0,1.0,phase_2,stop,450.0,550.0,3.0,,,,,,,,,cyan,square
0.0,2.0,2.0,0.0,6.0,6.0,674.6563540073112,4.0,1.0,phase_2,go,450.0,500.0,1.0,,,,,,,,,yellow,triangle
0.0,6.0,2.0,1.0,5.0,5.0,488.5676039993996,4.0,1.0,phase_2,stop,450.0,500.0,3.0,,,,,,,,,white,I
0.0,7.0,3.0,1.0,5.0,0.0,0.0,4.0,1.0,phase_2,stop,400.0,500.0,4.0,,,,,,,,,cyan,square
0.0,1.0,1.0,0.0,5.0,5.0,656.3433889969019,4.0,1.0,phase_2,go,450.0,500.0,1.0,,,,,,,,,orange,diamond
0.0,5.0,1.0,1.0,5.0,5.0,634.1400980018079,4.0,1.0,phase_2,stop,450.0,500.0,3.0,,,,,,,,,green,hexagon
0.0,8.0,4.0,1.0,6.0,0.0,0.0,4.0,1.0,phase_2,stop,400.0,500.0,4.0,,,,,,,,,gray,circle
0.0,2.0,2.0,0.0,5.0,5.0,458.2734370051184,4.0,1.0,phase_2,go,400.0,550.0,1.0,,,,,,,,,yellow,triangle
0.0,6.0,2.0,1.0,5.0,0.0,0.0,4.0,1.0,phase_2,stop,400.0,550.0,4.0,,,,,,,,,white,I
0.0,3.0,3.0,0.0,5.0,5.0,834.2382499977248,4.0,1.0,phase_2,go,450.0,550.0,1.0,,,,,,,,,magenta,cross
0.0,1.0,1.0,0.0,5.0,5.0,413.0036480055423,4.0,1.0,phase_2,go,450.0,550.0,1.0,,,,,,,,,orange,diamond
0.0,3.0,3.0,0.0,5.0,5.0,731.9234930037055,4.0,1.0,phase_2,go,450.0,550.0,1.0,,,,,,,,,magenta,cross
0.0,7.0,3.0,1.0,5.0,0.0,0.0,4.0,1.0,phase_2,stop,450.0,550.0,4.0,,,,,,,,,cyan,square
0.0,5.0,1.0,1.0,5.0,5.0,440.9929839894175,4.0,1.0,phase_2,stop,500.0,550.0,3.0,,,,,,,,,green,hexagon
0.0,5.0,1.0,1.0,5.0,5.0,561.2529520003591,4.0,1.0,phase_2,stop,450.0,550.0,3.0,,,,,,,,,green,hexagon
0.0,2.0,2.0,0.0,6.0,6.0,581.5089980023913,4.0,1.0,phase_2,go,400.0,550.0,1.0,,,,,,,,,yellow,triangle
0.0,4.0,4.0,0.0,6.0,6.0,881.1941549938638,4.0,1.0,phase_2,go,400.0,550.0,1.0,,,,,,,,,blue,flipped triangle
0.0,1.0,1.0,0.0,5.0,5.0,937.0602310082176,4.0,1.0,phase_2,go,400.0,550.0,1.0,,,,,,,,,orange,diamond
0.0,2.0,2.0,0.0,6.0,6.0,413.3595900057116,4.0,1.0,phase_2,go,400.0,550.0,1.0,,,,,,,,,yellow,triangle
0.0,3.0,3.0,0.0,6.0,6.0,375.8084660075838,4.0,1.0,phase_2,go,400.0,550.0,1.0,,,,,,,,,magenta,cross
0.0,1.0,1.0,0.0,5.0,5.0,366.0893039923394,4.0,1.0,phase_2,go,400.0,550.0,1.0,,,,,,,,,orange,diamond
0.0,6.0,2.0,1.0,5.0,0.0,0.0,4.0,1.0,phase_2,stop,400.0,550.0,4.0,,,,,,,,,white,I
0.0,3.0,3.0,0.0,5.0,5.0,469.5603259897325,4.0,1.0,phase_2,go,450.0,550.0,1.0,,,,,,,,,magenta,cross
0.0,8.0,4.0,1.0,6.0,6.0,630.8864279999398,4.0,1.0,phase_2,go,450.0,550.0,1.0,,,,,,,,,gray,circle
0.0,8.0,4.0,1.0,5.0,5.0,496.0757700027898,4.0,1.0,phase_2,stop,450.0,550.0,3.0,,,,,,,,,gray,circle
0.0,2.0,2.0,0.0,6.0,6.0,366.018286003964,4.0,1.0,phase_2,go,400.0,550.0,1.0,,,,,,,,,yellow,triangle
0.0,6.0,2.0,1.0,5.0,5.0,434.311463002814,4.0,1.0,phase_2,stop,400.0,550.0,3.0,,,,,,,,,white,I
0.0,7.0,3.0,1.0,5.0,5.0,712.9906930058496,4.0,1.0,phase_2,go,350.0,550.0,1.0,,,,,,,,,cyan,square
0.0,2.0,2.0,0.0,5.0,5.0,600.435357002425,4.0,1.0,phase_2,go,350.0,550.0,1.0,,,,,,,,,yellow,triangle
0.0,2.0,2.0,0.0,5.0,5.0,453.1334869971033,4.0,1.0,phase_2,go,350.0,550.0,1.0,,,,,,,,,yellow,triangle
0.0,8.0,4.0,1.0,6.0,6.0,592.4019750091247,4.0,1.0,phase_2,stop,350.0,550.0,3.0,,,,,,,,,gray,circle
0.0,2.0,2.0,0.0,6.0,6.0,619.0272280073259,4.0,1.0,phase_2,go,350.0,500.0,1.0,,,,,,,,,yellow,triangle
0.0,6.0,2.0,1.0,5.0,5.0,502.45985500805546,4.0,1.0,phase_2,stop,350.0,500.0,3.0,,,,,,,,,white,I
0.0,2.0,2.0,0.0,5.0,5.0,872.3850269889226,4.0,1.0,phase_2,go,300.0,500.0,1.0,,,,,,,,,yellow,triangle
0.0,3.0,3.0,0.0,5.0,5.0,599.2864409927279,4.0,1.0,phase_2,go,300.0,500.0,1.0,,,,,,,,,magenta,cross
0.0,4.0,4.0,0.0,5.0,5.0,515.5123570002615,4.0,1.0,phase_2,go,300.0,500.0,1.0,,,,,,,,,blue,flipped triangle
0.0,6.0,2.0,1.0,5.0,0.0,0.0,4.0,1.0,phase_2,stop,300.0,500.0,4.0,,,,,,,,,white,I
0.0,6.0,2.0,1.0,5.0,5.0,456.1417869990691,5.0,1.0,phase_2,stop,350.0,500.0,3.0,,,,,,,,,white,I
0.0,8.0,4.0,1.0,5.0,0.0,0.0,5.0,1.0,phase_2,stop,300.0,500.0,4.0,,,,,,,,,gray,circle
0.0,2.0,2.0,0.0,5.0,5.0,375.1525800034869,5.0,1.0,phase_2,go,350.0,500.0,1.0,,,,,,,,,yellow,triangle
0.0,5.0,1.0,1.0,5.0,0.0,0.0,5.0,1.0,phase_2,stop,350.0,500.0,4.0,,,,,,,,,green,hexagon
0.0,4.0,4.0,0.0,6.0,6.0,487.2096790059004,5.0,1.0,phase_2,go,400.0,500.0,1.0,,,,,,,,,blue,flipped triangle
0.0,6.0,2.0,1.0,5.0,0.0,0.0,5.0,1.0,phase_2,stop,400.0,500.0,4.0,,,,,,,,,white,I
0.0,8.0,4.0,1.0,5.0,5.0,825.4372690134915,5.0,1.0,phase_2,go,450.0,500.0,1.0,,,,,,,,,gray,circle
0.0,1.0,1.0,0.0,5.0,5.0,627.0240250014467,5.0,1.0,phase_2,go,450.0,500.0,1.0,,,,,,,,,orange,diamond
0.0,3.0,3.0,0.0,6.0,6.0,290.7683000084944,5.0,1.0,phase_2,go,450.0,500.0,1.0,,,,,,,,,magenta,cross
0.0,4.0,4.0,0.0,6.0,6.0,422.350359003758,5.0,1.0,phase_2,go,450.0,500.0,1.0,,,,,,,,,blue,flipped triangle
0.0,1.0,1.0,0.0,6.0,6.0,479.0539659879869,5.0,1.0,phase_2,go,450.0,500.0,1.0,,,,,,,,,orange,diamond
0.0,7.0,3.0,1.0,6.0,6.0,496.9165729999076,5.0,1.0,phase_2,stop,450.0,500.0,3.0,,,,,,,,,cyan,square
0.0,6.0,2.0,1.0,6.0,6.0,786.6881289955927,5.0,1.0,phase_2,go,450.0,450.0,1.0,,,,,,,,,white,I
0.0,4.0,4.0,0.0,5.0,5.0,740.9610979957506,5.0,1.0,phase_2,go,450.0,450.0,1.0,,,,,,,,,blue,flipped triangle
0.0,3.0,3.0,0.0,5.0,5.0,450.2684060134925,5.0,1.0,phase_2,go,450.0,450.0,1.0,,,,,,,,,magenta,cross
0.0,6.0,2.0,1.0,6.0,6.0,291.1960360070225,5.0,1.0,phase_2,go,450.0,450.0,1.0,,,,,,,,,white,I
0.0,4.0,4.0,0.0,5.0,5.0,647.156832012115,5.0,1.0,phase_2,go,450.0,450.0,1.0,,,,,,,,,blue,flipped triangle
0.0,2.0,2.0,0.0,6.0,6.0,327.5909270014381,5.0,1.0,phase_2,go,450.0,450.0,1.0,,,,,,,,,yellow,triangle
0.0,1.0,1.0,0.0,5.0,5.0,347.5472260033712,5.0,1.0,phase_2,go,450.0,450.0,1.0,,,,,,,,,orange,diamond
0.0,7.0,3.0,1.0,6.0,6.0,356.2270120019093,5.0,1.0,phase_2,go,450.0,450.0,1.0,,,,,,,,,cyan,square
0.0,8.0,4.0,1.0,5.0,5.0,309.1869870113441,5.0,1.0,phase_2,stop,450.0,450.0,3.0,,,,,,,,,gray,circle
0.0,8.0,4.0,1.0,5.0,5.0,568.0007959890645,5.0,1.0,phase_2,stop,400.0,450.0,3.0,,,,,,,,,gray,circle
0.0,1.0,1.0,0.0,5.0,5.0,665.3122150019044,5.0,1.0,phase_2,go,350.0,450.0,1.0,,,,,,,,,orange,diamond
0.0,7.0,3.0,1.0,6.0,0.0,0.0,5.0,1.0,phase_2,stop,350.0,450.0,4.0,,,,,,,,,cyan,square
0.0,3.0,3.0,0.0,6.0,6.0,580.3585749963531,5.0,1.0,phase_2,go,350.0,500.0,1.0,,,,,,,,,magenta,cross
0.0,7.0,3.0,1.0,5.0,0.0,0.0,5.0,1.0,phase_2,stop,350.0,500.0,4.0,,,,,,,,,cyan,square
0.0,4.0,4.0,0.0,6.0,6.0,646.9380320049822,5.0,1.0,phase_2,go,400.0,500.0,1.0,,,,,,,,,blue,flipped triangle
0.0,2.0,2.0,0.0,6.0,6.0,534.8654340050416,5.0,1.0,phase_2,go,400.0,500.0,1.0,,,,,,,,,yellow,triangle
0.0,8.0,4.0,1.0,5.0,0.0,0.0,5.0,1.0,phase_2,stop,400.0,500.0,4.0,,,,,,,,,gray,circle
0.0,1.0,1.0,0.0,6.0,6.0,591.8782420048956,5.0,1.0,phase_2,go,450.0,500.0,1.0,,,,,,,,,orange,diamond
0.0,5.0,1.0,1.0,5.0,0.0,0.0,5.0,1.0,phase_2,stop,450.0,500.0,4.0,,,,,,,,,green,hexagon
0.0,8.0,4.0,1.0,5.0,0.0,0.0,5.0,1.0,phase_2,stop,500.0,500.0,4.0,,,,,,,,,gray,circle
0.0,6.0,2.0,1.0,5.0,0.0,0.0,5.0,1.0,phase_2,stop,550.0,500.0,4.0,,,,,,,,,white,I
0.0,3.0,3.0,0.0,6.0,6.0,580.7709630025784,5.0,1.0,phase_2,go,600.0,500.0,1.0,,,,,,,,,magenta,cross
0.0,8.0,4.0,1.0,6.0,0.0,0.0,5.0,1.0,phase_2,stop,600.0,500.0,4.0,,,,,,,,,gray,circle
0.0,2.0,2.0,0.0,6.0,6.0,674.7719359991606,5.0,1.0,phase_2,go,600.0,550.0,1.0,,,,,,,,,yellow,triangle
0.0,7.0,3.0,1.0,6.0,6.0,402.3004159971606,6.0,1.0,phase_2,stop,600.0,550.0,3.0,,,,,,,,,cyan,square
0.0,8.0,4.0,1.0,5.0,5.0,792.5797729985788,6.0,1.0,phase_2,stop,600.0,500.0,3.0,,,,,,,,,gray,circle
0.0,5.0,1.0,1.0,5.0,0.0,0.0,6.0,1.0,phase_2,stop,550.0,500.0,4.0,,,,,,,,,green,hexagon
0.0,2.0,2.0,0.0,5.0,5.0,826.5529900090769,6.0,1.0,phase_2,go,600.0,500.0,1.0,,,,,,,,,yellow,triangle
0.0,8.0,4.0,1.0,6.0,0.0,0.0,6.0,1.0,phase_2,stop,600.0,500.0,4.0,,,,,,,,,gray,circle
0.0,3.0,3.0,0.0,5.0,5.0,739.9465039925417,6.0,1.0,phase_2,go,600.0,550.0,1.0,,,,,,,,,magenta,cross
0.0,2.0,2.0,0.0,5.0,5.0,562.701217000722,6.0,1.0,phase_2,go,600.0,550.0,1.0,,,,,,,,,yellow,triangle
0.0,8.0,4.0,1.0,5.0,0.0,0.0,6.0,1.0,phase_2,stop,600.0,550.0,4.0,,,,,,,,,gray,circle
0.0,5.0,1.0,1.0,5.0,0.0,0.0,6.0,1.0,phase_2,stop,650.0,550.0,4.0,,,,,,,,,green,hexagon
0.0,1.0,1.0,0.0,5.0,5.0,572.8322579961969,6.0,1.0,phase_2,go,700.0,550.0,1.0,,,,,,,,,orange,diamond
0.0,2.0,2.0,0.0,6.0,6.0,581.6270590003114,6.0,1.0,phase_2,go,700.0,550.0,1.0,,,,,,,,,yellow,triangle
0.0,2.0,2.0,0.0,5.0,5.0,507.3153050034307,6.0,1.0,phase_2,go,700.0,550.0,1.0,,,,,,,,,yellow,triangle
0.0,1.0,1.0,0.0,5.0,5.0,542.7574159984943,6.0,1.0,phase_2,go,700.0,550.0,1.0,,,,,,,,,orange,diamond
0.0,5.0,1.0,1.0,5.0,5.0,843.4765849960968,6.0,1.0,phase_2,stop,700.0,550.0,3.0,,,,,,,,,green,hexagon
0.0,5.0,1.0,1.0,6.0,0.0,0.0,6.0,1.0,phase_2,stop,650.0,550.0,4.0,,,,,,,,,green,hexagon
0.0,3.0,3.0,0.0,5.0,5.0,497.2037810075562,6.0,1.0,phase_2,go,650.0,600.0,1.0,,,,,,,,,magenta,cross
0.0,6.0,2.0,1.0,5.0,0.0,0.0,6.0,1.0,phase_2,stop,650.0,600.0,4.0,,,,,,,,,white,I
0.0,6.0,2.0,1.0,6.0,6.0,1020.6340300064769,6.0,1.0,phase_2,go,700.0,600.0,1.0,,,,,,,,,white,I
0.0,5.0,1.0,1.0,6.0,0.0,0.0,6.0,1.0,phase_2,stop,700.0,600.0,4.0,,,,,,,,,green,hexagon
0.0,3.0,3.0,0.0,6.0,6.0,516.1794279993046,6.0,1.0,phase_2,go,700.0,650.0,1.0,,,,,,,,,magenta,cross
0.0,7.0,3.0,1.0,5.0,5.0,1059.8246959998503,6.0,1.0,phase_2,go,700.0,650.0,1.0,,,,,,,,,cyan,square
0.0,4.0,4.0,0.0,6.0,6.0,460.714339002152,6.0,1.0,phase_2,go,700.0,650.0,1.0,,,,,,,,,blue,flipped triangle
0.0,1.0,1.0,0.0,6.0,6.0,366.0617139976239,6.0,1.0,phase_2,go,700.0,650.0,1.0,,,,,,,,,orange,diamond
0.0,1.0,1.0,0.0,6.0,6.0,395.5147060041781,6.0,1.0,phase_2,go,700.0,650.0,1.0,,,,,,,,,orange,diamond
0.0,7.0,3.0,1.0,5.0,5.0,693.7460470071528,6.0,1.0,phase_2,go,700.0,650.0,1.0,,,,,,,,,cyan,square
0.0,1.0,1.0,0.0,6.0,6.0,430.6417040061205,6.0,1.0,phase_2,go,700.0,650.0,1.0,,,,,,,,,orange,diamond
0.0,8.0,4.0,1.0,6.0,6.0,628.0065390019445,6.0,1.0,phase_2,stop,700.0,650.0,3.0,,,,,,,,,gray,circle
0.0,1.0,1.0,0.0,6.0,6.0,458.3162079943577,6.0,1.0,phase_2,go,700.0,600.0,1.0,,,,,,,,,orange,diamond
0.0,1.0,1.0,0.0,6.0,6.0,384.2429149954114,6.0,1.0,phase_2,go,700.0,600.0,1.0,,,,,,,,,orange,diamond
0.0,6.0,2.0,1.0,6.0,6.0,771.5136250044452,6.0,1.0,phase_2,stop,700.0,600.0,3.0,,,,,,,,,white,I
0.0,4.0,4.0,0.0,6.0,6.0,523.7630960036768,6.0,1.0,phase_2,go,700.0,550.0,1.0,,,,,,,,,blue,flipped triangle
0.0,5.0,1.0,1.0,5.0,5.0,935.9928939957172,6.0,1.0,phase_2,go,700.0,550.0,1.0,,,,,,,,,green,hexagon
0.0,7.0,3.0,1.0,6.0,0.0,0.0,6.0,1.0,phase_2,stop,700.0,550.0,4.0,,,,,,,,,cyan,square
0.0,6.0,2.0,1.0,5.0,0.0,0.0,6.0,1.0,phase_2,stop,700.0,600.0,4.0,,,,,,,,,white,I
0.0,4.0,4.0,0.0,6.0,6.0,477.5228210055502,6.0,1.0,phase_2,go,750.0,600.0,1.0,,,,,,,,,blue,flipped triangle
0.0,4.0,4.0,0.0,5.0,5.0,580.8586689963704,6.0,1.0,phase_2,go,750.0,600.0,1.0,,,,,,,,,blue,flipped triangle
0.0,5.0,1.0,1.0,6.0,6.0,356.1446989915566,7.0,1.0,phase_2,stop,750.0,600.0,3.0,,,,,,,,,green,hexagon
0.0,6.0,2.0,1.0,6.0,0.0,0.0,7.0,1.0,phase_2,stop,750.0,550.0,4.0,,,,,,,,,white,I
0.0,2.0,2.0,0.0,6.0,6.0,561.6294479987118,7.0,1.0,phase_2,go,750.0,600.0,1.0,,,,,,,,,yellow,triangle
0.0,6.0,2.0,1.0,6.0,6.0,919.4346180011052,7.0,1.0,phase_2,go,750.0,600.0,1.0,,,,,,,,,white,I
0.0,5.0,1.0,1.0,6.0,0.0,0.0,7.0,1.0,phase_2,stop,750.0,600.0,4.0,,,,,,,,,green,hexagon
0.0,4.0,4.0,0.0,5.0,5.0,552.3539099958725,7.0,1.0,phase_2,go,750.0,650.0,1.0,,,,,,,,,blue,flipped triangle
0.0,4.0,4.0,0.0,6.0,6.0,487.8099990019109,7.0,1.0,phase_2,go,750.0,650.0,1.0,,,,,,,,,blue,flipped triangle
0.0,7.0,3.0,1.0,5.0,5.0,918.1943059957119,7.0,1.0,phase_2,go,750.0,650.0,1.0,,,,,,,,,cyan,square
0.0,8.0,4.0,1.0,5.0,0.0,0.0,7.0,1.0,phase_2,stop,750.0,650.0,4.0,,,,,,,,,gray,circle
0.0,6.0,2.0,1.0,5.0,5.0,991.7169560067124,7.0,1.0,phase_2,go,800.0,650.0,1.0,,,,,,,,,white,I
0.0,7.0,3.0,1.0,6.0,0.0,0.0,7.0,1.0,phase_2,stop,800.0,650.0,4.0,,,,,,,,,cyan,square
0.0,8.0,4.0,1.0,5.0,5.0,1039.097162996768,7.0,1.0,phase_2,go,800.0,700.0,1.0,,,,,,,,,gray,circle
0.0,6.0,2.0,1.0,5.0,5.0,837.3413190129213,7.0,1.0,phase_2,stop,800.0,700.0,3.0,,,,,,,,,white,I
0.0,8.0,4.0,1.0,6.0,6.0,655.5293919955147,7.0,1.0,phase_2,stop,750.0,700.0,3.0,,,,,,,,,gray,circle
0.0,5.0,1.0,1.0,6.0,0.0,0.0,7.0,1.0,phase_2,stop,750.0,650.0,4.0,,,,,,,,,green,hexagon
0.0,3.0,3.0,0.0,6.0,6.0,468.3078859961824,7.0,1.0,phase_2,go,750.0,700.0,1.0,,,,,,,,,magenta,cross
0.0,8.0,4.0,1.0,6.0,6.0,682.15286899067,7.0,1.0,phase_2,go,750.0,700.0,1.0,,,,,,,,,gray,circle
0.0,2.0,2.0,0.0,5.0,5.0,541.8994060019031,7.0,1.0,phase_2,go,750.0,700.0,1.0,,,,,,,,,yellow,triangle
0.0,4.0,4.0,0.0,6.0,6.0,412.1320949925575,7.0,1.0,phase_2,go,750.0,700.0,1.0,,,,,,,,,blue,flipped triangle
0.0,8.0,4.0,1.0,6.0,6.0,579.1600660013501,7.0,1.0,phase_2,go,750.0,700.0,1.0,,,,,,,,,gray,circle
0.0,1.0,1.0,0.0,6.0,6.0,448.654934996739,7.0,1.0,phase_2,go,750.0,700.0,1.0,,,,,,,,,orange,diamond
0.0,2.0,2.0,0.0,6.0,6.0,374.6059770055581,7.0,1.0,phase_2,go,750.0,700.0,1.0,,,,,,,,,yellow,triangle
0.0,1.0,1.0,0.0,6.0,6.0,394.0880000009201,7.0,1.0,phase_2,go,750.0,700.0,1.0,,,,,,,,,orange,diamond
0.0,5.0,1.0,1.0,5.0,5.0,364.1820839984575,7.0,1.0,phase_2,stop,750.0,700.0,3.0,,,,,,,,,green,hexagon
0.0,8.0,4.0,1.0,5.0,0.0,0.0,7.0,1.0,phase_2,stop,700.0,700.0,4.0,,,,,,,,,gray,circle
0.0,3.0,3.0,0.0,5.0,5.0,533.3450530015398,7.0,1.0,phase_2,go,750.0,700.0,1.0,,,,,,,,,magenta,cross
0.0,6.0,2.0,1.0,6.0,6.0,561.7662080039736,7.0,1.0,phase_2,stop,750.0,700.0,3.0,,,,,,,,,white,I
0.0,7.0,3.0,1.0,6.0,6.0,452.8416040120646,7.0,1.0,phase_2,stop,750.0,650.0,3.0,,,,,,,,,cyan,square
0.0,7.0,3.0,1.0,5.0,5.0,795.4847400105791,7.0,1.0,phase_2,stop,750.0,600.0,3.0,,,,,,,,,cyan,square
0.0,3.0,3.0,0.0,6.0,6.0,477.7238660026341,7.0,1.0,phase_2,go,700.0,600.0,1.0,,,,,,,,,magenta,cross
0.0,8.0,4.0,1.0,6.0,0.0,0.0,7.0,1.0,phase_2,stop,700.0,600.0,4.0,,,,,,,,,gray,circle
0.0,5.0,1.0,1.0,6.0,0.0,0.0,7.0,1.0,phase_2,stop,700.0,650.0,4.0,,,,,,,,,green,hexagon
0.0,5.0,1.0,1.0,6.0,0.0,0.0,7.0,1.0,phase_2,stop,700.0,700.0,4.0,,,,,,,,,green,hexagon
0.0,5.0,1.0,1.0,6.0,6.0,1120.85240399756,7.0,1.0,phase_2,go,700.0,750.0,1.0,,,,,,,,,green,hexagon
0.0,6.0,2.0,1.0,5.0,5.0,1177.34927800484,7.0,1.0,phase_2,go,700.0,750.0,1.0,,,,,,,,,white,I
0.0,6.0,2.0,1.0,6.0,6.0,486.7986109893536,7.0,1.0,phase_2,stop,700.0,750.0,3.0,,,,,,,,,white,I
0.0,4.0,4.0,0.0,6.0,6.0,355.9243960044114,8.0,1.0,phase_2,go,700.0,700.0,1.0,,,,,,,,,blue,flipped triangle
0.0,8.0,4.0,1.0,5.0,5.0,637.9031260003103,8.0,1.0,phase_2,stop,700.0,700.0,3.0,,,,,,,,,gray,circle
0.0,8.0,4.0,1.0,6.0,0.0,0.0,8.0,1.0,phase_2,stop,650.0,700.0,4.0,,,,,,,,,gray,circle
0.0,3.0,3.0,0.0,5.0,5.0,449.1752600006293,8.0,1.0,phase_2,go,650.0,750.0,1.0,,,,,,,,,magenta,cross
0.0,7.0,3.0,1.0,5.0,0.0,0.0,8.0,1.0,phase_2,stop,650.0,750.0,4.0,,,,,,,,,cyan,square
0.0,6.0,2.0,1.0,5.0,5.0,814.6186960075283,8.0,1.0,phase_2,stop,700.0,750.0,3.0,,,,,,,,,white,I
0.0,7.0,3.0,1.0,6.0,0.0,0.0,8.0,1.0,phase_2,stop,650.0,750.0,4.0,,,,,,,,,cyan,square
0.0,3.0,3.0,0.0,5.0,5.0,449.508831006824,8.0,1.0,phase_2,go,650.0,800.0,1.0,,,,,,,,,magenta,cross
0.0,6.0,2.0,1.0,6.0,0.0,0.0,8.0,1.0,phase_2,stop,650.0,800.0,4.0,,,,,,,,,white,I
0.0,5.0,1.0,1.0,5.0,0.0,0.0,8.0,1.0,phase_2,stop,650.0,850.0,4.0,,,,,,,,,green,hexagon
0.0,1.0,1.0,0.0,5.0,5.0,478.0815400008578,8.0,1.0,phase_2,go,700.0,850.0,1.0,,,,,,,,,orange,diamond
0.0,3.0,3.0,0.0,6.0,6.0,395.221587998094,8.0,1.0,phase_2,go,700.0,850.0,1.0,,,,,,,,,magenta,cross
0.0,6.0,2.0,1.0,6.0,6.0,618.9871309907176,8.0,1.0,phase_2,stop,700.0,850.0,3.0,,,,,,,,,white,I
0.0,2.0,2.0,0.0,6.0,6.0,470.2733529993566,8.0,1.0,phase_2,go,700.0,800.0,1.0,,,,,,,,,yellow,triangle
0.0,4.0,4.0,0.0,5.0,5.0,384.333312002127,8.0,1.0,phase_2,go,700.0,800.0,1.0,,,,,,,,,blue,flipped triangle
0.0,5.0,1.0,1.0,5.0,5.0,984.371229991666,8.0,1.0,phase_2,go,700.0,800.0,1.0,,,,,,,,,green,hexagon
0.0,6.0,2.0,1.0,6.0,6.0,395.7369929994456,8.0,1.0,phase_2,stop,700.0,800.0,3.0,,,,,,,,,white,I
0.0,7.0,3.0,1.0,6.0,0.0,0.0,8.0,1.0,phase_2,stop,700.0,750.0,4.0,,,,,,,,,cyan,square
0.0,4.0,4.0,0.0,6.0,6.0,480.9744619997218,8.0,1.0,phase_2,go,700.0,800.0,1.0,,,,,,,,,blue,flipped triangle
0.0,5.0,1.0,1.0,6.0,6.0,346.1397540086182,8.0,1.0,phase_2,stop,700.0,800.0,3.0,,,,,,,,,green,hexagon
0.0,4.0,4.0,0.0,6.0,6.0,448.6196409998229,8.0,1.0,phase_2,go,700.0,750.0,1.0,,,,,,,,,blue,flipped triangle
0.0,1.0,1.0,0.0,6.0,6.0,439.286084001651,8.0,1.0,phase_2,go,700.0,750.0,1.0,,,,,,,,,orange,diamond
0.0,3.0,3.0,0.0,6.0,6.0,597.9520779947052,8.0,1.0,phase_2,go,700.0,750.0,1.0,,,,,,,,,magenta,cross
0.0,4.0,4.0,0.0,5.0,5.0,365.806899004383,8.0,1.0,phase_2,go,700.0,750.0,1.0,,,,,,,,,blue,flipped triangle
0.0,2.0,2.0,0.0,6.0,6.0,347.1875559916952,8.0,1.0,phase_2,go,700.0,750.0,1.0,,,,,,,,,yellow,triangle
0.0,4.0,4.0,0.0,5.0,5.0,355.9201180032687,8.0,1.0,phase_2,go,700.0,750.0,1.0,,,,,,,,,blue,flipped triangle
0.0,1.0,1.0,0.0,6.0,6.0,393.5348740051267,8.0,1.0,phase_2,go,700.0,750.0,1.0,,,,,,,,,orange,diamond
0.0,1.0,1.0,0.0,6.0,6.0,375.927369997953,8.0,1.0,phase_2,go,700.0,750.0,1.0,,,,,,,,,orange,diamond
0.0,6.0,2.0,1.0,5.0,0.0,0.0,8.0,1.0,phase_2,stop,700.0,750.0,4.0,,,,,,,,,white,I
0.0,1.0,1.0,0.0,5.0,5.0,421.3809780048905,8.0,1.0,phase_2,go,750.0,750.0,1.0,,,,,,,,,orange,diamond
0.0,7.0,3.0,1.0,6.0,6.0,365.050706997863,8.0,1.0,phase_2,stop,750.0,750.0,3.0,,,,,,,,,cyan,square
0.0,2.0,2.0,0.0,6.0,6.0,412.9165019985521,8.0,1.0,phase_2,go,750.0,700.0,1.0,,,,,,,,,yellow,triangle
0.0,4.0,4.0,0.0,6.0,6.0,413.6826419999124,8.0,1.0,phase_2,go,750.0,700.0,1.0,,,,,,,,,blue,flipped triangle
0.0,4.0,4.0,0.0,5.0,5.0,327.5546960067004,8.0,1.0,phase_2,go,750.0,700.0,1.0,,,,,,,,,blue,flipped triangle
0.0,8.0,4.0,1.0,6.0,0.0,0.0,8.0,1.0,phase_2,stop,750.0,700.0,4.0,,,,,,,,,gray,circle
0.0,2.0,2.0,0.0,5.0,5.0,487.342439009808,8.0,1.0,phase_2,go,750.0,750.0,1.0,,,,,,,,,yellow,triangle
0.0,2.0,2.0,0.0,7.0,3.0,2801.0755029972643,1.0,1.0,phase_3,,,,,580.0,5.0,232.0,464.0,580.0,696.0,116.0,348.0,yellow,triangle
0.0,4.0,4.0,0.0,7.0,2.0,2066.24215800548,1.0,1.0,phase_3,,,,,462.0,3.0,308.0,462.0,924.0,770.0,616.0,154.0,blue,flipped triangle
0.0,4.0,4.0,0.0,7.0,3.0,1388.4295299940277,1.0,1.0,phase_3,,,,,692.0,4.0,1038.0,865.0,692.0,173.0,346.0,519.0,blue,flipped triangle
0.0,2.0,2.0,0.0,7.0,4.0,2000.1516609918326,1.0,1.0,phase_3,,,,,384.0,2.0,960.0,576.0,1152.0,384.0,768.0,192.0,yellow,triangle
0.0,3.0,3.0,0.0,7.0,6.0,937.5203550007428,1.0,1.0,phase_3,,,,,405.0,3.0,135.0,675.0,810.0,540.0,270.0,405.0,magenta,cross
0.0,3.0,3.0,0.0,7.0,5.0,1332.2115479968488,1.0,1.0,phase_3,,,,,192.0,1.0,960.0,1152.0,576.0,384.0,192.0,768.0,magenta,cross
0.0,8.0,4.0,1.0,7.0,3.0,690.6352289952338,1.0,1.0,phase_3,,,,,405.0,3.0,540.0,270.0,405.0,135.0,810.0,675.0,gray,circle
0.0,3.0,3.0,0.0,7.0,4.0,1074.0771679993486,1.0,1.0,phase_3,,,,,464.0,4.0,116.0,696.0,348.0,464.0,580.0,232.0,magenta,cross
0.0,4.0,4.0,0.0,7.0,1.0,1610.139711003285,1.0,1.0,phase_3,,,,,348.0,3.0,348.0,232.0,696.0,116.0,580.0,464.0,blue,flipped triangle
0.0,5.0,1.0,1.0,7.0,1.0,1768.2003929949133,1.0,1.0,phase_3,,,,,865.0,5.0,865.0,346.0,1038.0,692.0,519.0,173.0,green,hexagon
0.0,1.0,1.0,0.0,7.0,4.0,1398.8200870080618,1.0,1.0,phase_3,,,,,232.0,2.0,696.0,464.0,348.0,232.0,580.0,116.0,orange,diamond
0.0,7.0,3.0,1.0,7.0,5.0,1343.8198829971952,1.0,1.0,phase_3,,,,,232.0,2.0,580.0,464.0,116.0,348.0,232.0,696.0,cyan,square
0.0,6.0,2.0,1.0,7.0,3.0,1536.2764250021428,1.0,1.0,phase_3,,,,,308.0,2.0,924.0,770.0,308.0,616.0,462.0,154.0,white,I
0.0,6.0,2.0,1.0,7.0,4.0,1258.0735910014482,1.0,1.0,phase_3,,,,,580.0,5.0,696.0,116.0,232.0,580.0,348.0,464.0,white,I
0.0,2.0,2.0,0.0,7.0,2.0,1403.850781993242,1.0,1.0,phase_3,,,,,462.0,3.0,154.0,462.0,308.0,616.0,770.0,924.0,yellow,triangle
0.0,5.0,1.0,1.0,7.0,3.0,1705.9051310061475,1.0,1.0,phase_3,,,,,270.0,2.0,135.0,405.0,270.0,675.0,810.0,540.0,green,hexagon
0.0,5.0,1.0,1.0,7.0,2.0,1896.497559006093,1.0,1.0,phase_3,,,,,135.0,1.0,540.0,135.0,810.0,270.0,405.0,675.0,green,hexagon
0.0,7.0,3.0,1.0,7.0,5.0,1425.8232040010623,1.0,1.0,phase_3,,,,,405.0,3.0,540.0,810.0,270.0,135.0,405.0,675.0,cyan,square
0.0,4.0,4.0,0.0,7.0,2.0,1345.5028850003146,1.0,1.0,phase_3,,,,,384.0,2.0,768.0,384.0,192.0,960.0,1152.0,576.0,blue,flipped triangle
0.0,6.0,2.0,1.0,7.0,3.0,1049.4986990088364,1.0,1.0,phase_3,,,,,116.0,1.0,348.0,696.0,116.0,232.0,580.0,464.0,white,I
0.0,8.0,4.0,1.0,7.0,4.0,1719.6816570067313,2.0,1.0,phase_3,,,,,616.0,4.0,462.0,924.0,154.0,616.0,308.0,770.0,gray,circle
0.0,6.0,2.0,1.0,7.0,2.0,2040.8686610026048,2.0,1.0,phase_3,,,,,1152.0,6.0,192.0,1152.0,384.0,960.0,576.0,768.0,white,I
0.0,8.0,4.0,1.0,7.0,6.0,2605.9657669975422,2.0,1.0,phase_3,,,,,519.0,3.0,346.0,173.0,865.0,692.0,1038.0,519.0,gray,circle
0.0,5.0,1.0,1.0,7.0,2.0,987.2367380012292,2.0,1.0,phase_3,,,,,173.0,1.0,346.0,173.0,1038.0,519.0,692.0,865.0,green,hexagon
0.0,5.0,1.0,1.0,7.0,5.0,1715.070859005209,2.0,1.0,phase_3,,,,,770.0,5.0,462.0,154.0,308.0,924.0,770.0,616.0,green,hexagon
0.0,5.0,1.0,1.0,7.0,4.0,1502.1612730051856,2.0,1.0,phase_3,,,,,696.0,6.0,580.0,232.0,116.0,696.0,348.0,464.0,green,hexagon
0.0,1.0,1.0,0.0,7.0,3.0,1119.0054350008722,2.0,1.0,phase_3,,,,,770.0,5.0,924.0,308.0,770.0,616.0,462.0,154.0,orange,diamond
0.0,8.0,4.0,1.0,7.0,3.0,996.9736869970802,2.0,1.0,phase_3,,,,,464.0,4.0,580.0,696.0,464.0,348.0,232.0,116.0,gray,circle
0.0,2.0,2.0,0.0,7.0,4.0,541.049215986277,2.0,1.0,phase_3,,,,,173.0,1.0,865.0,519.0,1038.0,173.0,346.0,692.0,yellow,triangle
0.0,1.0,1.0,0.0,7.0,2.0,460.2067079977132,2.0,1.0,phase_3,,,,,692.0,4.0,519.0,692.0,1038.0,173.0,865.0,346.0,orange,diamond
0.0,5.0,1.0,1.0,7.0,4.0,439.41235799866257,2.0,1.0,phase_3,,,,,924.0,6.0,308.0,770.0,462.0,924.0,616.0,154.0,green,hexagon
0.0,6.0,2.0,1.0,7.0,2.0,1222.8281510033412,2.0,1.0,phase_3,,,,,346.0,2.0,173.0,346.0,865.0,519.0,1038.0,692.0,white,I
0.0,5.0,1.0,1.0,7.0,3.0,532.6866200048244,2.0,1.0,phase_3,,,,,960.0,5.0,768.0,192.0,960.0,576.0,384.0,1152.0,green,hexagon
0.0,4.0,4.0,0.0,7.0,4.0,690.6457150034839,2.0,1.0,phase_3,,,,,384.0,2.0,576.0,960.0,768.0,384.0,192.0,1152.0,blue,flipped triangle
0.0,6.0,2.0,1.0,7.0,5.0,1100.740982001298,2.0,1.0,phase_3,,,,,960.0,5.0,192.0,768.0,384.0,1152.0,960.0,576.0,white,I
0.0,2.0,2.0,0.0,7.0,4.0,1158.317918991088,2.0,1.0,phase_3,,,,,464.0,4.0,232.0,580.0,116.0,464.0,348.0,696.0,yellow,triangle
0.0,1.0,1.0,0.0,7.0,3.0,1256.5570139995543,2.0,1.0,phase_3,,,,,154.0,1.0,308.0,924.0,154.0,462.0,616.0,770.0,orange,diamond
0.0,3.0,3.0,0.0,7.0,4.0,966.5166909981052,2.0,1.0,phase_3,,,,,270.0,2.0,675.0,405.0,135.0,270.0,540.0,810.0,magenta,cross
0.0,2.0,2.0,0.0,7.0,3.0,1338.3672250056406,2.0,1.0,phase_3,,,,,192.0,1.0,576.0,960.0,192.0,768.0,1152.0,384.0,yellow,triangle
0.0,8.0,4.0,1.0,7.0,2.0,1106.7684070003452,2.0,1.0,phase_3,,,,,692.0,4.0,1038.0,692.0,519.0,865.0,346.0,173.0,gray,circle
0.0,8.0,4.0,1.0,7.0,4.0,1165.147113992134,3.0,1.0,phase_3,,,,,116.0,1.0,580.0,464.0,232.0,116.0,348.0,696.0,gray,circle
0.0,7.0,3.0,1.0,7.0,6.0,836.2502239906462,3.0,1.0,phase_3,,,,,770.0,5.0,616.0,924.0,308.0,462.0,154.0,770.0,cyan,square
0.0,2.0,2.0,0.0,7.0,3.0,1106.9430089992238,3.0,1.0,phase_3,,,,,462.0,3.0,616.0,308.0,462.0,154.0,924.0,770.0,yellow,triangle
0.0,7.0,3.0,1.0,7.0,6.0,1681.6470240009949,3.0,1.0,phase_3,,,,,1038.0,6.0,346.0,692.0,519.0,865.0,173.0,1038.0,cyan,square
0.0,6.0,2.0,1.0,7.0,3.0,1327.959856003872,3.0,1.0,phase_3,,,,,810.0,6.0,540.0,270.0,810.0,405.0,135.0,675.0,white,I
0.0,4.0,4.0,0.0,7.0,3.0,1645.767779002199,3.0,1.0,phase_3,,,,,540.0,4.0,405.0,675.0,540.0,270.0,810.0,135.0,blue,flipped triangle
0.0,1.0,1.0,0.0,7.0,2.0,679.9014989956049,3.0,1.0,phase_3,,,,,384.0,2.0,768.0,384.0,1152.0,960.0,192.0,576.0,orange,diamond
0.0,3.0,3.0,0.0,7.0,3.0,1678.417888993863,3.0,1.0,phase_3,,,,,1038.0,6.0,346.0,519.0,1038.0,865.0,173.0,692.0,magenta,cross
0.0,1.0,1.0,0.0,7.0,2.0,1328.9083689887775,3.0,1.0,phase_3,,,,,540.0,4.0,270.0,540.0,135.0,810.0,675.0,405.0,orange,diamond
0.0,1.0,1.0,0.0,7.0,4.0,1198.9762539888034,3.0,1.0,phase_3,,,,,192.0,1.0,960.0,1152.0,768.0,192.0,576.0,384.0,orange,diamond
0.0,7.0,3.0,1.0,7.0,3.0,1192.7862220036332,3.0,1.0,phase_3,,,,,116.0,1.0,348.0,580.0,116.0,464.0,696.0,232.0,cyan,square
0.0,2.0,2.0,0.0,7.0,2.0,858.1192800047575,3.0,1.0,phase_3,,,,,692.0,4.0,865.0,692.0,519.0,173.0,1038.0,346.0,yellow,triangle
0.0,7.0,3.0,1.0,7.0,5.0,1351.6664269991452,3.0,1.0,phase_3,,,,,135.0,1.0,675.0,810.0,405.0,540.0,135.0,270.0,cyan,square
0.0,3.0,3.0,0.0,7.0,2.0,1262.6257189986063,3.0,1.0,phase_3,,,,,580.0,5.0,464.0,580.0,116.0,232.0,696.0,348.0,magenta,cross
0.0,4.0,4.0,0.0,7.0,5.0,1468.6196980037494,3.0,1.0,phase_3,,,,,696.0,6.0,232.0,348.0,116.0,580.0,696.0,464.0,blue,flipped triangle
0.0,4.0,4.0,0.0,7.0,2.0,2334.812419998343,3.0,1.0,phase_3,,,,,308.0,2.0,770.0,308.0,924.0,154.0,462.0,616.0,blue,flipped triangle
0.0,2.0,2.0,0.0,7.0,5.0,1564.6887899929425,3.0,1.0,phase_3,,,,,270.0,2.0,405.0,540.0,675.0,135.0,270.0,810.0,yellow,triangle
0.0,6.0,2.0,1.0,7.0,3.0,1091.9901769957503,3.0,1.0,phase_3,,,,,346.0,2.0,865.0,519.0,346.0,1038.0,692.0,173.0,white,I
0.0,8.0,4.0,1.0,7.0,1.0,1559.617974999128,3.0,1.0,phase_3,,,,,960.0,5.0,960.0,1152.0,768.0,192.0,384.0,576.0,gray,circle
0.0,3.0,3.0,0.0,7.0,5.0,1480.6613950058818,3.0,1.0,phase_3,,,,,384.0,2.0,192.0,768.0,576.0,1152.0,384.0,960.0,magenta,cross
0.0,7.0,3.0,1.0,7.0,5.0,605.5938209901797,4.0,1.0,phase_3,,,,,865.0,5.0,346.0,173.0,692.0,519.0,865.0,1038.0,cyan,square
0.0,8.0,4.0,1.0,7.0,3.0,1147.2295839921571,4.0,1.0,phase_3,,,,,675.0,5.0,810.0,135.0,675.0,540.0,405.0,270.0,gray,circle
0.0,3.0,3.0,0.0,7.0,4.0,1563.442386002862,4.0,1.0,phase_3,,,,,462.0,3.0,154.0,616.0,308.0,462.0,924.0,770.0,magenta,cross
0.0,8.0,4.0,1.0,7.0,2.0,2022.4333060032222,4.0,1.0,phase_3,,,,,384.0,2.0,576.0,384.0,960.0,768.0,192.0,1152.0,gray,circle
0.0,4.0,4.0,0.0,7.0,5.0,1209.3433499976527,4.0,1.0,phase_3,,,,,270.0,2.0,135.0,675.0,810.0,540.0,270.0,405.0,blue,flipped triangle
0.0,2.0,2.0,0.0,7.0,2.0,1609.7828589990968,4.0,1.0,phase_3,,,,,540.0,4.0,135.0,540.0,675.0,405.0,270.0,810.0,yellow,triangle
0.0,6.0,2.0,1.0,7.0,6.0,1427.0732019940624,4.0,1.0,phase_3,,,,,270.0,2.0,675.0,810.0,540.0,135.0,405.0,270.0,white,I
0.0,7.0,3.0,1.0,7.0,2.0,2149.3892120051896,4.0,1.0,phase_3,,,,,960.0,5.0,384.0,960.0,1152.0,192.0,576.0,768.0,cyan,square
0.0,6.0,2.0,1.0,7.0,4.0,2036.8861900060442,4.0,1.0,phase_3,,,,,154.0,1.0,770.0,462.0,616.0,154.0,924.0,308.0,white,I
0.0,8.0,4.0,1.0,7.0,4.0,1402.8517269907752,4.0,1.0,phase_3,,,,,770.0,5.0,616.0,308.0,462.0,770.0,154.0,924.0,gray,circle
0.0,7.0,3.0,1.0,7.0,2.0,1665.108754998073,4.0,1.0,phase_3,,,,,384.0,2.0,768.0,384.0,1152.0,192.0,960.0,576.0,cyan,square
0.0,3.0,3.0,0.0,7.0,5.0,2187.9910440038657,4.0,1.0,phase_3,,,,,308.0,2.0,924.0,462.0,770.0,616.0,308.0,154.0,magenta,cross
0.0,7.0,3.0,1.0,7.0,4.0,838.0135540064657,4.0,1.0,phase_3,,,,,308.0,2.0,924.0,154.0,770.0,308.0,462.0,616.0,cyan,square
0.0,1.0,1.0,0.0,7.0,3.0,745.8139200025471,4.0,1.0,phase_3,,,,,1038.0,6.0,865.0,692.0,1038.0,519.0,173.0,346.0,orange,diamond
0.0,1.0,1.0,0.0,7.0,6.0,2073.7585140013834,4.0,1.0,phase_3,,,,,675.0,5.0,270.0,405.0,540.0,135.0,810.0,675.0,orange,diamond
0.0,3.0,3.0,0.0,7.0,3.0,1655.0695750047453,4.0,1.0,phase_3,,,,,692.0,4.0,346.0,865.0,692.0,173.0,1038.0,519.0,magenta,cross
0.0,4.0,4.0,0.0,7.0,6.0,1626.7649460060056,4.0,1.0,phase_3,,,,,1038.0,6.0,692.0,519.0,865.0,346.0,173.0,1038.0,blue,flipped triangle
0.0,5.0,1.0,1.0,7.0,3.0,1564.3253609887324,4.0,1.0,phase_3,,,,,696.0,6.0,464.0,348.0,696.0,116.0,580.0,232.0,green,hexagon
0.0,5.0,1.0,1.0,7.0,2.0,1347.383839005488,4.0,1.0,phase_3,,,,,768.0,4.0,192.0,768.0,384.0,576.0,1152.0,960.0,green,hexagon
0.0,1.0,1.0,0.0,7.0,5.0,1704.191794997314,4.0,1.0,phase_3,,,,,580.0,5.0,348.0,696.0,464.0,232.0,580.0,116.0,orange,diamond
