raw_reward_magnitude,stim_reward,stepwise_reward_magnitude,paired_with_stopping,stim_location,response,reaction_time,block,num_trial_presentations,which_phase,stop_signal_trial_type,left_SSD,right_SSD,accuracy,chosen_bidding_amount,chosen_bidding_level,possible_bid_1,possible_bid_2,possible_bid_3,possible_bid_4,possible_bid_5,possible_bid_6,color_text,shape_text
652.0,7.0,3.0,1.0,2.0,2.0,338.710373999902,1.0,1.0,phase_1,,,,,,,,,,,,,green,hexagon
638.0,7.0,3.0,1.0,2.0,2.0,335.4842680000729,1.0,1.0,phase_1,,,,,,,,,,,,,green,hexagon
170.0,1.0,1.0,0.0,2.0,2.0,338.5937310001736,1.0,1.0,phase_1,,,,,,,,,,,,,cyan,triangle
139.0,1.0,1.0,0.0,3.0,3.0,354.1845759998523,1.0,1.0,phase_1,,,,,,,,,,,,,cyan,triangle
0.0,4.0,0.0,0.0,4.0,4.0,317.214690000128,1.0,1.0,phase_1,,,,,,,,,,,,,white,I
0.0,8.0,0.0,1.0,3.0,3.0,323.9731240000765,1.0,1.0,phase_1,,,,,,,,,,,,,magenta,flipped triangle
1315.0,8.0,4.0,1.0,3.0,3.0,326.406648000102,1.0,1.0,phase_1,,,,,,,,,,,,,magenta,flipped triangle
321.0,2.0,2.0,0.0,2.0,2.0,324.1155489999983,1.0,1.0,phase_1,,,,,,,,,,,,,orange,square
674.0,3.0,3.0,0.0,2.0,2.0,303.3027609999408,1.0,1.0,phase_1,,,,,,,,,,,,,gray,cross
152.0,5.0,1.0,1.0,2.0,2.0,278.2553049999023,1.0,1.0,phase_1,,,,,,,,,,,,,yellow,circle
156.0,1.0,1.0,0.0,1.0,1.0,330.2000029998453,1.0,1.0,phase_1,,,,,,,,,,,,,cyan,triangle
1319.0,4.0,4.0,0.0,3.0,3.0,327.7958850001141,1.0,1.0,phase_1,,,,,,,,,,,,,white,I
312.0,2.0,2.0,0.0,4.0,4.0,289.6720630001255,1.0,1.0,phase_1,,,,,,,,,,,,,orange,square
137.0,1.0,1.0,0.0,4.0,4.0,311.96924500000017,1.0,1.0,phase_1,,,,,,,,,,,,,cyan,triangle
185.0,1.0,1.0,0.0,2.0,2.0,293.0680119998214,1.0,1.0,phase_1,,,,,,,,,,,,,cyan,triangle
316.0,6.0,2.0,1.0,3.0,3.0,336.4461630001187,1.0,1.0,phase_1,,,,,,,,,,,,,blue,diamond
162.0,5.0,1.0,1.0,3.0,3.0,300.434752000001,1.0,1.0,phase_1,,,,,,,,,,,,,yellow,circle
0.0,1.0,0.0,0.0,3.0,3.0,288.2174669998676,1.0,1.0,phase_1,,,,,,,,,,,,,cyan,triangle
637.0,3.0,3.0,0.0,2.0,2.0,294.5278309998684,1.0,1.0,phase_1,,,,,,,,,,,,,gray,cross
1286.0,4.0,4.0,0.0,3.0,3.0,297.4756910000451,1.0,1.0,phase_1,,,,,,,,,,,,,white,I
1276.0,8.0,4.0,1.0,4.0,4.0,303.2531399999243,1.0,1.0,phase_1,,,,,,,,,,,,,magenta,flipped triangle
0.0,8.0,0.0,1.0,4.0,4.0,330.822759000057,1.0,1.0,phase_1,,,,,,,,,,,,,magenta,flipped triangle
181.0,1.0,1.0,0.0,1.0,1.0,335.4690200001187,1.0,1.0,phase_1,,,,,,,,,,,,,cyan,triangle
311.0,6.0,2.0,1.0,4.0,4.0,332.8273550000631,1.0,1.0,phase_1,,,,,,,,,,,,,blue,diamond
142.0,5.0,1.0,1.0,3.0,3.0,283.8006140000289,1.0,1.0,phase_1,,,,,,,,,,,,,yellow,circle
314.0,6.0,2.0,1.0,1.0,1.0,311.9155379999938,1.0,1.0,phase_1,,,,,,,,,,,,,blue,diamond
166.0,1.0,1.0,0.0,1.0,1.0,323.7181849999615,1.0,1.0,phase_1,,,,,,,,,,,,,cyan,triangle
638.0,3.0,3.0,0.0,2.0,2.0,359.2876129998785,1.0,1.0,phase_1,,,,,,,,,,,,,gray,cross
172.0,1.0,1.0,0.0,1.0,1.0,310.0050970001575,1.0,1.0,phase_1,,,,,,,,,,,,,cyan,triangle
639.0,3.0,3.0,0.0,1.0,1.0,320.5957469999703,1.0,1.0,phase_1,,,,,,,,,,,,,gray,cross
653.0,7.0,3.0,1.0,1.0,1.0,276.3747310000326,1.0,1.0,phase_1,,,,,,,,,,,,,green,hexagon
147.0,1.0,1.0,0.0,1.0,1.0,305.7920809999359,1.0,1.0,phase_1,,,,,,,,,,,,,cyan,triangle
672.0,3.0,3.0,0.0,2.0,2.0,334.2788180000298,1.0,1.0,phase_1,,,,,,,,,,,,,gray,cross
1281.0,8.0,4.0,1.0,1.0,1.0,258.0185280000933,1.0,1.0,phase_1,,,,,,,,,,,,,magenta,flipped triangle
1296.0,8.0,4.0,1.0,4.0,4.0,335.0203779998537,1.0,1.0,phase_1,,,,,,,,,,,,,magenta,flipped triangle
0.0,1.0,0.0,0.0,1.0,1.0,379.7417050000149,1.0,1.0,phase_1,,,,,,,,,,,,,cyan,triangle
172.0,5.0,1.0,1.0,2.0,2.0,330.2079039999626,1.0,1.0,phase_1,,,,,,,,,,,,,yellow,circle
638.0,3.0,3.0,0.0,4.0,4.0,380.743030000076,1.0,1.0,phase_1,,,,,,,,,,,,,gray,cross
656.0,7.0,3.0,1.0,1.0,1.0,315.4722760000368,1.0,1.0,phase_1,,,,,,,,,,,,,green,hexagon
185.0,5.0,1.0,1.0,1.0,1.0,317.8670620000048,1.0,1.0,phase_1,,,,,,,,,,,,,yellow,circle
335.0,2.0,2.0,0.0,2.0,2.0,323.6497309999322,1.0,1.0,phase_1,,,,,,,,,,,,,orange,square
342.0,6.0,2.0,1.0,1.0,1.0,326.4243090000036,1.0,1.0,phase_1,,,,,,,,,,,,,blue,diamond
0.0,3.0,0.0,0.0,3.0,3.0,357.3997989999498,1.0,1.0,phase_1,,,,,,,,,,,,,gray,cross
1304.0,4.0,4.0,0.0,1.0,1.0,273.4365299997989,1.0,1.0,phase_1,,,,,,,,,,,,,white,I
1314.0,4.0,4.0,0.0,3.0,3.0,310.598759999948,1.0,1.0,phase_1,,,,,,,,,,,,,white,I
0.0,1.0,0.0,0.0,4.0,4.0,292.246225000099,1.0,1.0,phase_1,,,,,,,,,,,,,cyan,triangle
157.0,5.0,1.0,1.0,3.0,3.0,280.1841719999629,1.0,1.0,phase_1,,,,,,,,,,,,,yellow,circle
1289.0,4.0,4.0,0.0,4.0,4.0,253.7373699999534,1.0,1.0,phase_1,,,,,,,,,,,,,white,I
151.0,1.0,1.0,0.0,3.0,3.0,287.7936390000286,1.0,1.0,phase_1,,,,,,,,,,,,,cyan,triangle
0.0,6.0,0.0,1.0,1.0,1.0,342.0675610000216,1.0,1.0,phase_1,,,,,,,,,,,,,blue,diamond
1299.0,4.0,4.0,0.0,4.0,4.0,296.8763919998309,1.0,1.0,phase_1,,,,,,,,,,,,,white,I
1299.0,4.0,4.0,0.0,3.0,3.0,279.6283840000342,1.0,1.0,phase_1,,,,,,,,,,,,,white,I
0.0,1.0,0.0,0.0,4.0,4.0,276.7877999999655,1.0,1.0,phase_1,,,,,,,,,,,,,cyan,triangle
0.0,3.0,0.0,0.0,2.0,2.0,358.6981210000886,1.0,1.0,phase_1,,,,,,,,,,,,,gray,cross
145.0,5.0,1.0,1.0,4.0,4.0,317.9787409999335,1.0,1.0,phase_1,,,,,,,,,,,,,yellow,circle
181.0,1.0,1.0,0.0,2.0,2.0,281.7670699998871,1.0,1.0,phase_1,,,,,,,,,,,,,cyan,triangle
640.0,3.0,3.0,0.0,4.0,4.0,327.1275609999975,1.0,1.0,phase_1,,,,,,,,,,,,,gray,cross
1309.0,4.0,4.0,0.0,4.0,4.0,338.2496069998524,1.0,1.0,phase_1,,,,,,,,,,,,,white,I
0.0,5.0,0.0,1.0,1.0,1.0,326.4985199998591,1.0,1.0,phase_1,,,,,,,,,,,,,yellow,circle
0.0,6.0,0.0,1.0,4.0,4.0,370.2006859998619,1.0,1.0,phase_1,,,,,,,,,,,,,blue,diamond
658.0,3.0,3.0,0.0,4.0,4.0,343.4114099998169,1.0,1.0,phase_1,,,,,,,,,,,,,gray,cross
669.0,3.0,3.0,0.0,1.0,1.0,362.3960769998575,1.0,2.0,phase_1,,,,,,,,,,,,,gray,cross
1295.0,4.0,4.0,0.0,4.0,4.0,365.1192120000814,1.0,1.0,phase_1,,,,,,,,,,,,,white,I
301.0,6.0,2.0,1.0,1.0,1.0,290.9963490001246,1.0,1.0,phase_1,,,,,,,,,,,,,blue,diamond
331.0,6.0,2.0,1.0,2.0,2.0,326.321198999949,1.0,1.0,phase_1,,,,,,,,,,,,,blue,diamond
340.0,6.0,2.0,1.0,1.0,1.0,357.3231180000675,1.0,1.0,phase_1,,,,,,,,,,,,,blue,diamond
635.0,7.0,3.0,1.0,3.0,3.0,335.2049860000079,1.0,1.0,phase_1,,,,,,,,,,,,,green,hexagon
319.0,6.0,2.0,1.0,1.0,1.0,340.3853389997948,1.0,1.0,phase_1,,,,,,,,,,,,,blue,diamond
0.0,4.0,0.0,0.0,1.0,1.0,424.7543769999993,1.0,1.0,phase_1,,,,,,,,,,,,,white,I
1313.0,4.0,4.0,0.0,3.0,3.0,351.0877569999593,1.0,1.0,phase_1,,,,,,,,,,,,,white,I
332.0,2.0,2.0,0.0,2.0,2.0,314.3817350000972,1.0,1.0,phase_1,,,,,,,,,,,,,orange,square
177.0,5.0,1.0,1.0,2.0,2.0,294.0488550000282,1.0,1.0,phase_1,,,,,,,,,,,,,yellow,circle
177.0,1.0,1.0,0.0,2.0,2.0,291.0330349998276,1.0,1.0,phase_1,,,,,,,,,,,,,cyan,triangle
145.0,5.0,1.0,1.0,4.0,4.0,386.4247530000284,1.0,1.0,phase_1,,,,,,,,,,,,,yellow,circle
143.0,1.0,1.0,0.0,4.0,4.0,379.9323690000165,1.0,1.0,phase_1,,,,,,,,,,,,,cyan,triangle
0.0,4.0,0.0,0.0,3.0,3.0,387.4120099999345,1.0,1.0,phase_1,,,,,,,,,,,,,white,I
308.0,6.0,2.0,1.0,3.0,3.0,360.6325230000493,1.0,1.0,phase_1,,,,,,,,,,,,,blue,diamond
149.0,5.0,1.0,1.0,3.0,3.0,338.831736999964,1.0,1.0,phase_1,,,,,,,,,,,,,yellow,circle
165.0,1.0,1.0,0.0,2.0,2.0,334.7412489999897,1.0,1.0,phase_1,,,,,,,,,,,,,cyan,triangle
1286.0,8.0,4.0,1.0,3.0,3.0,316.2005500000759,1.0,1.0,phase_1,,,,,,,,,,,,,magenta,flipped triangle
181.0,5.0,1.0,1.0,2.0,2.0,352.6732380000794,1.0,1.0,phase_1,,,,,,,,,,,,,yellow,circle
321.0,6.0,2.0,1.0,4.0,4.0,398.3479119999629,1.0,1.0,phase_1,,,,,,,,,,,,,blue,diamond
1289.0,8.0,4.0,1.0,4.0,4.0,403.9144140001554,1.0,1.0,phase_1,,,,,,,,,,,,,magenta,flipped triangle
167.0,5.0,1.0,1.0,1.0,1.0,479.9257189999935,1.0,1.0,phase_1,,,,,,,,,,,,,yellow,circle
1277.0,8.0,4.0,1.0,4.0,4.0,379.2650589998629,1.0,1.0,phase_1,,,,,,,,,,,,,magenta,flipped triangle
1295.0,8.0,4.0,1.0,3.0,3.0,377.1122880000348,1.0,1.0,phase_1,,,,,,,,,,,,,magenta,flipped triangle
1299.0,8.0,4.0,1.0,1.0,1.0,342.1151029999691,1.0,1.0,phase_1,,,,,,,,,,,,,magenta,flipped triangle
341.0,6.0,2.0,1.0,4.0,4.0,377.1456110000599,1.0,1.0,phase_1,,,,,,,,,,,,,blue,diamond
317.0,2.0,2.0,0.0,4.0,4.0,360.0838009999734,1.0,1.0,phase_1,,,,,,,,,,,,,orange,square
326.0,2.0,2.0,0.0,3.0,3.0,299.2088660000718,1.0,1.0,phase_1,,,,,,,,,,,,,orange,square
301.0,2.0,2.0,0.0,3.0,3.0,308.6619429998336,1.0,1.0,phase_1,,,,,,,,,,,,,orange,square
0.0,5.0,0.0,1.0,4.0,4.0,358.0020150000109,1.0,1.0,phase_1,,,,,,,,,,,,,yellow,circle
155.0,5.0,1.0,1.0,4.0,4.0,319.8015269999814,1.0,1.0,phase_1,,,,,,,,,,,,,yellow,circle
663.0,3.0,3.0,0.0,3.0,3.0,340.8761670000331,1.0,1.0,phase_1,,,,,,,,,,,,,gray,cross
644.0,3.0,3.0,0.0,3.0,3.0,321.2457039999208,1.0,1.0,phase_1,,,,,,,,,,,,,gray,cross
640.0,3.0,3.0,0.0,3.0,3.0,344.687747999842,1.0,1.0,phase_1,,,,,,,,,,,,,gray,cross
160.0,5.0,1.0,1.0,3.0,3.0,332.6238470001499,1.0,1.0,phase_1,,,,,,,,,,,,,yellow,circle
319.0,6.0,2.0,1.0,3.0,3.0,335.1372810000157,1.0,1.0,phase_1,,,,,,,,,,,,,blue,diamond
0.0,5.0,0.0,1.0,3.0,3.0,308.6186359998919,1.0,1.0,phase_1,,,,,,,,,,,,,yellow,circle
1284.0,4.0,4.0,0.0,3.0,3.0,290.590118000182,1.0,1.0,phase_1,,,,,,,,,,,,,white,I
0.0,1.0,0.0,0.0,1.0,1.0,342.8121819999887,2.0,1.0,phase_1,,,,,,,,,,,,,cyan,triangle
334.0,6.0,2.0,1.0,3.0,3.0,307.8180649999922,2.0,1.0,phase_1,,,,,,,,,,,,,blue,diamond
0.0,4.0,0.0,0.0,4.0,4.0,269.9802100000852,2.0,1.0,phase_1,,,,,,,,,,,,,white,I
342.0,2.0,2.0,0.0,2.0,2.0,325.1333860000613,2.0,1.0,phase_1,,,,,,,,,,,,,orange,square
662.0,3.0,3.0,0.0,1.0,1.0,265.4334640001252,2.0,1.0,phase_1,,,,,,,,,,,,,gray,cross
1314.0,8.0,4.0,1.0,3.0,3.0,270.5304060000344,2.0,1.0,phase_1,,,,,,,,,,,,,magenta,flipped triangle
0.0,2.0,0.0,0.0,2.0,2.0,264.1415660000348,2.0,1.0,phase_1,,,,,,,,,,,,,orange,square
661.0,7.0,3.0,1.0,1.0,1.0,292.6598930000637,2.0,1.0,phase_1,,,,,,,,,,,,,green,hexagon
345.0,6.0,2.0,1.0,4.0,4.0,345.5301470000904,2.0,1.0,phase_1,,,,,,,,,,,,,blue,diamond
156.0,5.0,1.0,1.0,3.0,3.0,350.9198280000873,2.0,1.0,phase_1,,,,,,,,,,,,,yellow,circle
0.0,6.0,0.0,1.0,3.0,3.0,365.8052609998776,2.0,1.0,phase_1,,,,,,,,,,,,,blue,diamond
310.0,2.0,2.0,0.0,3.0,3.0,288.833459999978,2.0,1.0,phase_1,,,,,,,,,,,,,orange,square
326.0,2.0,2.0,0.0,3.0,3.0,294.4083009999758,2.0,1.0,phase_1,,,,,,,,,,,,,orange,square
0.0,5.0,0.0,1.0,3.0,3.0,363.4380920000239,2.0,1.0,phase_1,,,,,,,,,,,,,yellow,circle
0.0,7.0,0.0,1.0,2.0,2.0,397.6388989999577,2.0,1.0,phase_1,,,,,,,,,,,,,green,hexagon
1298.0,4.0,4.0,0.0,4.0,4.0,276.5773979999721,2.0,1.0,phase_1,,,,,,,,,,,,,white,I
0.0,2.0,0.0,0.0,3.0,3.0,279.406310000013,2.0,1.0,phase_1,,,,,,,,,,,,,orange,square
0.0,4.0,0.0,0.0,2.0,2.0,260.5471760000455,2.0,1.0,phase_1,,,,,,,,,,,,,white,I
172.0,1.0,1.0,0.0,2.0,2.0,384.0297259998806,2.0,1.0,phase_1,,,,,,,,,,,,,cyan,triangle
1313.0,8.0,4.0,1.0,2.0,2.0,303.641792999997,2.0,1.0,phase_1,,,,,,,,,,,,,magenta,flipped triangle
647.0,3.0,3.0,0.0,3.0,3.0,320.9472390001338,2.0,1.0,phase_1,,,,,,,,,,,,,gray,cross
1310.0,4.0,4.0,0.0,2.0,2.0,311.7602979998537,2.0,1.0,phase_1,,,,,,,,,,,,,white,I
668.0,3.0,3.0,0.0,2.0,2.0,290.6661580000218,2.0,1.0,phase_1,,,,,,,,,,,,,gray,cross
0.0,3.0,0.0,0.0,1.0,1.0,341.612638000015,2.0,2.0,phase_1,,,,,,,,,,,,,gray,cross
658.0,7.0,3.0,1.0,1.0,1.0,281.4737639998839,2.0,1.0,phase_1,,,,,,,,,,,,,green,hexagon
644.0,3.0,3.0,0.0,2.0,2.0,302.5816120000399,2.0,1.0,phase_1,,,,,,,,,,,,,gray,cross
0.0,3.0,0.0,0.0,2.0,2.0,297.618113999988,2.0,1.0,phase_1,,,,,,,,,,,,,gray,cross
1324.0,4.0,4.0,0.0,2.0,2.0,297.2785199999634,2.0,1.0,phase_1,,,,,,,,,,,,,white,I
1302.0,8.0,4.0,1.0,3.0,3.0,381.360880000102,2.0,1.0,phase_1,,,,,,,,,,,,,magenta,flipped triangle
157.0,5.0,1.0,1.0,4.0,4.0,353.2242559999758,2.0,1.0,phase_1,,,,,,,,,,,,,yellow,circle
327.0,2.0,2.0,0.0,1.0,1.0,294.4511210000655,2.0,1.0,phase_1,,,,,,,,,,,,,orange,square
167.0,5.0,1.0,1.0,1.0,1.0,320.6951799998023,2.0,1.0,phase_1,,,,,,,,,,,,,yellow,circle
628.0,7.0,3.0,1.0,2.0,2.0,336.030644000175,2.0,1.0,phase_1,,,,,,,,,,,,,green,hexagon
145.0,1.0,1.0,0.0,3.0,3.0,308.3457909999652,2.0,1.0,phase_1,,,,,,,,,,,,,cyan,triangle
171.0,1.0,1.0,0.0,3.0,3.0,393.6453549999896,2.0,1.0,phase_1,,,,,,,,,,,,,cyan,triangle
0.0,3.0,0.0,0.0,3.0,3.0,308.5501690000001,2.0,1.0,phase_1,,,,,,,,,,,,,gray,cross
0.0,8.0,0.0,1.0,4.0,4.0,335.9022889999323,2.0,1.0,phase_1,,,,,,,,,,,,,magenta,flipped triangle
340.0,2.0,2.0,0.0,1.0,1.0,389.0346919999956,2.0,1.0,phase_1,,,,,,,,,,,,,orange,square
172.0,5.0,1.0,1.0,3.0,3.0,291.6445040000326,2.0,1.0,phase_1,,,,,,,,,,,,,yellow,circle
647.0,7.0,3.0,1.0,4.0,4.0,325.9426150000308,2.0,1.0,phase_1,,,,,,,,,,,,,green,hexagon
162.0,1.0,1.0,0.0,2.0,2.0,299.5605379999233,2.0,1.0,phase_1,,,,,,,,,,,,,cyan,triangle
628.0,3.0,3.0,0.0,4.0,4.0,345.1921700000184,2.0,1.0,phase_1,,,,,,,,,,,,,gray,cross
1313.0,4.0,4.0,0.0,3.0,3.0,347.7591480000228,2.0,1.0,phase_1,,,,,,,,,,,,,white,I
349.0,6.0,2.0,1.0,2.0,2.0,282.826003000082,2.0,1.0,phase_1,,,,,,,,,,,,,blue,diamond
0.0,6.0,0.0,1.0,3.0,3.0,287.0051349998448,2.0,1.0,phase_1,,,,,,,,,,,,,blue,diamond
162.0,1.0,1.0,0.0,4.0,4.0,276.8997619998572,2.0,1.0,phase_1,,,,,,,,,,,,,cyan,triangle
340.0,6.0,2.0,1.0,2.0,2.0,310.9954219999054,2.0,1.0,phase_1,,,,,,,,,,,,,blue,diamond
1294.0,8.0,4.0,1.0,3.0,3.0,356.5700350000043,2.0,1.0,phase_1,,,,,,,,,,,,,magenta,flipped triangle
1285.0,4.0,4.0,0.0,1.0,1.0,338.5621449999689,2.0,1.0,phase_1,,,,,,,,,,,,,white,I
149.0,1.0,1.0,0.0,3.0,3.0,318.3848969999872,2.0,1.0,phase_1,,,,,,,,,,,,,cyan,triangle
659.0,7.0,3.0,1.0,2.0,2.0,305.8466149998367,2.0,1.0,phase_1,,,,,,,,,,,,,green,hexagon
316.0,2.0,2.0,0.0,4.0,4.0,294.5015759999023,2.0,1.0,phase_1,,,,,,,,,,,,,orange,square
308.0,6.0,2.0,1.0,2.0,2.0,276.3680900000054,2.0,1.0,phase_1,,,,,,,,,,,,,blue,diamond
1289.0,8.0,4.0,1.0,3.0,3.0,296.9907369999873,2.0,1.0,phase_1,,,,,,,,,,,,,magenta,flipped triangle
1296.0,4.0,4.0,0.0,1.0,1.0,331.1169829999016,2.0,1.0,phase_1,,,,,,,,,,,,,white,I
181.0,5.0,1.0,1.0,1.0,1.0,480.1441329998397,2.0,1.0,phase_1,,,,,,,,,,,,,yellow,circle
668.0,7.0,3.0,1.0,3.0,3.0,351.6946939998888,2.0,1.0,phase_1,,,,,,,,,,,,,green,hexagon
0.0,2.0,0.0,0.0,2.0,2.0,353.9281880000544,2.0,1.0,phase_1,,,,,,,,,,,,,orange,square
327.0,6.0,2.0,1.0,4.0,4.0,430.5680489999304,2.0,1.0,phase_1,,,,,,,,,,,,,blue,diamond
162.0,5.0,1.0,1.0,2.0,2.0,275.2022060001309,2.0,1.0,phase_1,,,,,,,,,,,,,yellow,circle
0.0,7.0,0.0,1.0,4.0,4.0,303.3139809999738,2.0,1.0,phase_1,,,,,,,,,,,,,green,hexagon
632.0,7.0,3.0,1.0,1.0,1.0,293.2079409999915,2.0,1.0,phase_1,,,,,,,,,,,,,green,hexagon
0.0,6.0,0.0,1.0,3.0,3.0,283.3315400000629,2.0,1.0,phase_1,,,,,,,,,,,,,blue,diamond
0.0,7.0,0.0,1.0,1.0,1.0,346.5227099998174,2.0,2.0,phase_1,,,,,,,,,,,,,green,hexagon
0.0,4.0,0.0,0.0,2.0,2.0,296.5561429998615,2.0,1.0,phase_1,,,,,,,,,,,,,white,I
1315.0,4.0,4.0,0.0,3.0,3.0,507.7157040000202,2.0,1.0,phase_1,,,,,,,,,,,,,white,I
627.0,7.0,3.0,1.0,2.0,2.0,311.9858540001132,2.0,1.0,phase_1,,,,,,,,,,,,,green,hexagon
335.0,6.0,2.0,1.0,1.0,1.0,308.9861879998352,2.0,1.0,phase_1,,,,,,,,,,,,,blue,diamond
662.0,7.0,3.0,1.0,2.0,2.0,282.4935619998996,2.0,1.0,phase_1,,,,,,,,,,,,,green,hexagon
0.0,2.0,0.0,0.0,1.0,1.0,342.0088299999406,2.0,1.0,phase_1,,,,,,,,,,,,,orange,square
319.0,2.0,2.0,0.0,4.0,4.0,380.35237400004,2.0,1.0,phase_1,,,,,,,,,,,,,orange,square
0.0,7.0,0.0,1.0,4.0,4.0,353.8796459999958,2.0,1.0,phase_1,,,,,,,,,,,,,green,hexagon
172.0,1.0,1.0,0.0,2.0,2.0,308.7002170000232,2.0,1.0,phase_1,,,,,,,,,,,,,cyan,triangle
0.0,1.0,0.0,0.0,4.0,4.0,376.8753849999484,2.0,1.0,phase_1,,,,,,,,,,,,,cyan,triangle
0.0,4.0,0.0,0.0,4.0,4.0,380.5094060001011,2.0,1.0,phase_1,,,,,,,,,,,,,white,I
326.0,6.0,2.0,1.0,1.0,1.0,257.7996950001306,2.0,1.0,phase_1,,,,,,,,,,,,,blue,diamond
341.0,2.0,2.0,0.0,4.0,4.0,319.9826719999237,2.0,1.0,phase_1,,,,,,,,,,,,,orange,square
141.0,1.0,1.0,0.0,1.0,1.0,323.3017640000071,2.0,1.0,phase_1,,,,,,,,,,,,,cyan,triangle
143.0,5.0,1.0,1.0,4.0,4.0,327.3535270000138,2.0,1.0,phase_1,,,,,,,,,,,,,yellow,circle
0.0,3.0,0.0,0.0,2.0,2.0,318.5998059998383,2.0,1.0,phase_1,,,,,,,,,,,,,gray,cross
324.0,6.0,2.0,1.0,3.0,3.0,329.0330320000976,2.0,1.0,phase_1,,,,,,,,,,,,,blue,diamond
1305.0,4.0,4.0,0.0,4.0,4.0,271.4281979997395,2.0,1.0,phase_1,,,,,,,,,,,,,white,I
653.0,3.0,3.0,0.0,1.0,1.0,387.1246110002175,2.0,1.0,phase_1,,,,,,,,,,,,,gray,cross
1285.0,8.0,4.0,1.0,4.0,4.0,326.4569799998753,2.0,1.0,phase_1,,,,,,,,,,,,,magenta,flipped triangle
669.0,7.0,3.0,1.0,2.0,2.0,249.8366210002132,2.0,1.0,phase_1,,,,,,,,,,,,,green,hexagon
1293.0,4.0,4.0,0.0,2.0,2.0,368.2328150002831,2.0,1.0,phase_1,,,,,,,,,,,,,white,I
173.0,1.0,1.0,0.0,3.0,3.0,342.2476279997681,2.0,1.0,phase_1,,,,,,,,,,,,,cyan,triangle
339.0,2.0,2.0,0.0,1.0,1.0,320.2961450001567,2.0,1.0,phase_1,,,,,,,,,,,,,orange,square
301.0,6.0,2.0,1.0,2.0,2.0,308.6389660002169,2.0,1.0,phase_1,,,,,,,,,,,,,blue,diamond
348.0,2.0,2.0,0.0,1.0,1.0,354.2427469997165,2.0,1.0,phase_1,,,,,,,,,,,,,orange,square
319.0,2.0,2.0,0.0,4.0,4.0,334.6398779999617,2.0,1.0,phase_1,,,,,,,,,,,,,orange,square
0.0,5.0,0.0,1.0,4.0,4.0,381.485406000138,2.0,1.0,phase_1,,,,,,,,,,,,,yellow,circle
314.0,2.0,2.0,0.0,1.0,1.0,480.1468939999722,2.0,1.0,phase_1,,,,,,,,,,,,,orange,square
1304.0,8.0,4.0,1.0,1.0,1.0,405.4484890002641,2.0,1.0,phase_1,,,,,,,,,,,,,magenta,flipped triangle
647.0,7.0,3.0,1.0,3.0,3.0,283.068302999709,2.0,1.0,phase_1,,,,,,,,,,,,,green,hexagon
669.0,7.0,3.0,1.0,4.0,4.0,368.2574980002755,2.0,1.0,phase_1,,,,,,,,,,,,,green,hexagon
0.0,6.0,0.0,1.0,2.0,2.0,291.4657460000853,2.0,1.0,phase_1,,,,,,,,,,,,,blue,diamond
181.0,5.0,1.0,1.0,1.0,1.0,318.7172900002224,2.0,1.0,phase_1,,,,,,,,,,,,,yellow,circle
308.0,2.0,2.0,0.0,2.0,2.0,290.9808829999747,2.0,1.0,phase_1,,,,,,,,,,,,,orange,square
0.0,2.0,0.0,0.0,3.0,3.0,306.7709789997934,2.0,1.0,phase_1,,,,,,,,,,,,,orange,square
0.0,8.0,0.0,1.0,4.0,4.0,326.5492450000238,3.0,1.0,phase_1,,,,,,,,,,,,,magenta,flipped triangle
0.0,7.0,0.0,1.0,2.0,2.0,329.2557439999655,3.0,1.0,phase_1,,,,,,,,,,,,,green,hexagon
301.0,6.0,2.0,1.0,1.0,1.0,325.372150000021,3.0,1.0,phase_1,,,,,,,,,,,,,blue,diamond
152.0,1.0,1.0,0.0,2.0,2.0,476.3818740002534,3.0,1.0,phase_1,,,,,,,,,,,,,cyan,triangle
137.0,1.0,1.0,0.0,1.0,1.0,432.1514119997118,3.0,1.0,phase_1,,,,,,,,,,,,,cyan,triangle
0.0,2.0,0.0,0.0,3.0,3.0,355.5564560001585,3.0,1.0,phase_1,,,,,,,,,,,,,orange,square
637.0,7.0,3.0,1.0,1.0,1.0,282.6752109999688,3.0,1.0,phase_1,,,,,,,,,,,,,green,hexagon
670.0,3.0,3.0,0.0,2.0,2.0,236.925969999902,3.0,1.0,phase_1,,,,,,,,,,,,,gray,cross
654.0,3.0,3.0,0.0,1.0,1.0,320.6728109998948,3.0,1.0,phase_1,,,,,,,,,,,,,gray,cross
325.0,6.0,2.0,1.0,1.0,1.0,312.356603000353,3.0,1.0,phase_1,,,,,,,,,,,,,blue,diamond
301.0,2.0,2.0,0.0,2.0,2.0,275.9297140000853,3.0,1.0,phase_1,,,,,,,,,,,,,orange,square
0.0,7.0,0.0,1.0,1.0,1.0,311.2497239999356,3.0,1.0,phase_1,,,,,,,,,,,,,green,hexagon
0.0,6.0,0.0,1.0,2.0,2.0,251.85554799963938,3.0,1.0,phase_1,,,,,,,,,,,,,blue,diamond
0.0,2.0,0.0,0.0,3.0,3.0,391.3507000002028,3.0,1.0,phase_1,,,,,,,,,,,,,orange,square
167.0,1.0,1.0,0.0,4.0,4.0,374.6071059999849,3.0,1.0,phase_1,,,,,,,,,,,,,cyan,triangle
162.0,1.0,1.0,0.0,4.0,4.0,353.872888999831,3.0,1.0,phase_1,,,,,,,,,,,,,cyan,triangle
656.0,3.0,3.0,0.0,2.0,2.0,293.8181109998368,3.0,1.0,phase_1,,,,,,,,,,,,,gray,cross
0.0,6.0,0.0,1.0,1.0,1.0,306.6614300000765,3.0,1.0,phase_1,,,,,,,,,,,,,blue,diamond
160.0,1.0,1.0,0.0,4.0,4.0,353.7883640001382,3.0,1.0,phase_1,,,,,,,,,,,,,cyan,triangle
0.0,8.0,0.0,1.0,2.0,2.0,323.6819260000629,3.0,1.0,phase_1,,,,,,,,,,,,,magenta,flipped triangle
157.0,1.0,1.0,0.0,3.0,3.0,296.6313179999815,3.0,1.0,phase_1,,,,,,,,,,,,,cyan,triangle
151.0,5.0,1.0,1.0,1.0,1.0,327.6304369996978,3.0,1.0,phase_1,,,,,,,,,,,,,yellow,circle
1313.0,8.0,4.0,1.0,2.0,2.0,267.964376999771,3.0,1.0,phase_1,,,,,,,,,,,,,magenta,flipped triangle
0.0,2.0,0.0,0.0,4.0,4.0,317.9985659999147,3.0,1.0,phase_1,,,,,,,,,,,,,orange,square
1294.0,4.0,4.0,0.0,1.0,1.0,298.5802430002877,3.0,1.0,phase_1,,,,,,,,,,,,,white,I
0.0,5.0,0.0,1.0,3.0,3.0,270.9093409998786,3.0,1.0,phase_1,,,,,,,,,,,,,yellow,circle
639.0,7.0,3.0,1.0,3.0,3.0,310.3751300000112,3.0,1.0,phase_1,,,,,,,,,,,,,green,hexagon
0.0,1.0,0.0,0.0,4.0,4.0,288.5279359998094,3.0,1.0,phase_1,,,,,,,,,,,,,cyan,triangle
1305.0,8.0,4.0,1.0,2.0,2.0,276.7818950001128,3.0,1.0,phase_1,,,,,,,,,,,,,magenta,flipped triangle
0.0,2.0,0.0,0.0,1.0,1.0,282.0281160002196,3.0,1.0,phase_1,,,,,,,,,,,,,orange,square
173.0,5.0,1.0,1.0,2.0,2.0,321.0338409999167,3.0,1.0,phase_1,,,,,,,,,,,,,yellow,circle
137.0,5.0,1.0,1.0,2.0,2.0,363.1519080004182,3.0,1.0,phase_1,,,,,,,,,,,,,yellow,circle
636.0,7.0,3.0,1.0,4.0,4.0,385.5588100000204,3.0,1.0,phase_1,,,,,,,,,,,,,green,hexagon
311.0,2.0,2.0,0.0,2.0,2.0,285.6205609996323,3.0,1.0,phase_1,,,,,,,,,,,,,orange,square
1277.0,4.0,4.0,0.0,2.0,2.0,409.4993359999535,3.0,1.0,phase_1,,,,,,,,,,,,,white,I
339.0,6.0,2.0,1.0,3.0,3.0,312.5905450001482,3.0,1.0,phase_1,,,,,,,,,,,,,blue,diamond
637.0,3.0,3.0,0.0,3.0,3.0,341.2219870001536,3.0,1.0,phase_1,,,,,,,,,,,,,gray,cross
1313.0,8.0,4.0,1.0,1.0,1.0,542.792585999905,3.0,1.0,phase_1,,,,,,,,,,,,,magenta,flipped triangle
0.0,3.0,0.0,0.0,1.0,1.0,475.3552379997927,3.0,1.0,phase_1,,,,,,,,,,,,,gray,cross
652.0,3.0,3.0,0.0,1.0,1.0,441.4675779999015,3.0,1.0,phase_1,,,,,,,,,,,,,gray,cross
159.0,5.0,1.0,1.0,1.0,1.0,415.5441809998592,3.0,1.0,phase_1,,,,,,,,,,,,,yellow,circle
1293.0,8.0,4.0,1.0,1.0,1.0,314.2319240000688,3.0,1.0,phase_1,,,,,,,,,,,,,magenta,flipped triangle
643.0,7.0,3.0,1.0,4.0,4.0,341.9587220000721,3.0,1.0,phase_1,,,,,,,,,,,,,green,hexagon
308.0,2.0,2.0,0.0,3.0,3.0,330.2965359998779,3.0,1.0,phase_1,,,,,,,,,,,,,orange,square
630.0,3.0,3.0,0.0,4.0,4.0,382.9847150000205,3.0,1.0,phase_1,,,,,,,,,,,,,gray,cross
0.0,5.0,0.0,1.0,1.0,1.0,347.6946410000892,3.0,1.0,phase_1,,,,,,,,,,,,,yellow,circle
1302.0,4.0,4.0,0.0,2.0,2.0,296.0901170004035,3.0,1.0,phase_1,,,,,,,,,,,,,white,I
334.0,2.0,2.0,0.0,2.0,2.0,301.8255599999975,3.0,1.0,phase_1,,,,,,,,,,,,,orange,square
1276.0,4.0,4.0,0.0,1.0,1.0,339.0910789998997,3.0,1.0,phase_1,,,,,,,,,,,,,white,I
1325.0,4.0,4.0,0.0,1.0,1.0,358.6927850001302,3.0,1.0,phase_1,,,,,,,,,,,,,white,I
157.0,1.0,1.0,0.0,4.0,4.0,387.8374650003025,3.0,1.0,phase_1,,,,,,,,,,,,,cyan,triangle
326.0,6.0,2.0,1.0,4.0,4.0,352.8903750002428,3.0,1.0,phase_1,,,,,,,,,,,,,blue,diamond
165.0,5.0,1.0,1.0,3.0,3.0,364.9480199997015,3.0,1.0,phase_1,,,,,,,,,,,,,yellow,circle
633.0,3.0,3.0,0.0,4.0,4.0,324.024467000072,3.0,1.0,phase_1,,,,,,,,,,,,,gray,cross
1296.0,4.0,4.0,0.0,4.0,4.0,309.7592599997369,3.0,1.0,phase_1,,,,,,,,,,,,,white,I
644.0,7.0,3.0,1.0,4.0,4.0,338.6154400000123,3.0,1.0,phase_1,,,,,,,,,,,,,green,hexagon
342.0,2.0,2.0,0.0,4.0,4.0,287.3473999998168,3.0,1.0,phase_1,,,,,,,,,,,,,orange,square
633.0,3.0,3.0,0.0,1.0,1.0,403.5481420000906,3.0,1.0,phase_1,,,,,,,,,,,,,gray,cross
0.0,5.0,0.0,1.0,3.0,3.0,376.668969000093,3.0,1.0,phase_1,,,,,,,,,,,,,yellow,circle
145.0,1.0,1.0,0.0,2.0,2.0,309.0823889997409,3.0,1.0,phase_1,,,,,,,,,,,,,cyan,triangle
1313.0,4.0,4.0,0.0,3.0,3.0,435.9732060001988,3.0,1.0,phase_1,,,,,,,,,,,,,white,I
1305.0,4.0,4.0,0.0,2.0,2.0,373.4716610001669,3.0,1.0,phase_1,,,,,,,,,,,,,white,I
321.0,2.0,2.0,0.0,4.0,4.0,356.6848119999122,3.0,1.0,phase_1,,,,,,,,,,,,,orange,square
663.0,7.0,3.0,1.0,3.0,3.0,336.6725659998337,3.0,1.0,phase_1,,,,,,,,,,,,,green,hexagon
1303.0,8.0,4.0,1.0,2.0,2.0,284.0556649998689,3.0,1.0,phase_1,,,,,,,,,,,,,magenta,flipped triangle
310.0,6.0,2.0,1.0,3.0,3.0,314.615650000178,3.0,1.0,phase_1,,,,,,,,,,,,,blue,diamond
301.0,2.0,2.0,0.0,1.0,1.0,293.701159000193,3.0,1.0,phase_1,,,,,,,,,,,,,orange,square
1301.0,4.0,4.0,0.0,2.0,2.0,306.1664349997954,3.0,1.0,phase_1,,,,,,,,,,,,,white,I
672.0,7.0,3.0,1.0,4.0,4.0,328.1470029996853,3.0,1.0,phase_1,,,,,,,,,,,,,green,hexagon
301.0,2.0,2.0,0.0,1.0,1.0,355.6621940001605,3.0,1.0,phase_1,,,,,,,,,,,,,orange,square
349.0,2.0,2.0,0.0,4.0,4.0,335.8420790000309,3.0,1.0,phase_1,,,,,,,,,,,,,orange,square
345.0,6.0,2.0,1.0,3.0,3.0,431.01668899998907,3.0,1.0,phase_1,,,,,,,,,,,,,blue,diamond
0.0,5.0,0.0,1.0,2.0,2.0,291.2890090001383,3.0,1.0,phase_1,,,,,,,,,,,,,yellow,circle
335.0,6.0,2.0,1.0,4.0,4.0,280.3118390002055,3.0,1.0,phase_1,,,,,,,,,,,,,blue,diamond
1293.0,8.0,4.0,1.0,1.0,1.0,282.2456939998119,3.0,1.0,phase_1,,,,,,,,,,,,,magenta,flipped triangle
1305.0,8.0,4.0,1.0,2.0,2.0,302.9322269999284,3.0,1.0,phase_1,,,,,,,,,,,,,magenta,flipped triangle
0.0,6.0,0.0,1.0,1.0,1.0,307.6316140000017,3.0,1.0,phase_1,,,,,,,,,,,,,blue,diamond
142.0,1.0,1.0,0.0,1.0,1.0,320.6631499997456,3.0,1.0,phase_1,,,,,,,,,,,,,cyan,triangle
0.0,6.0,0.0,1.0,2.0,2.0,262.3493710002549,3.0,1.0,phase_1,,,,,,,,,,,,,blue,diamond
0.0,8.0,0.0,1.0,1.0,1.0,259.5303739999508,3.0,1.0,phase_1,,,,,,,,,,,,,magenta,flipped triangle
340.0,2.0,2.0,0.0,3.0,3.0,373.8860399998884,3.0,1.0,phase_1,,,,,,,,,,,,,orange,square
0.0,4.0,0.0,0.0,2.0,2.0,282.25097399990767,3.0,1.0,phase_1,,,,,,,,,,,,,white,I
335.0,2.0,2.0,0.0,2.0,2.0,297.2543829996539,3.0,1.0,phase_1,,,,,,,,,,,,,orange,square
331.0,2.0,2.0,0.0,3.0,3.0,294.6269730000495,3.0,1.0,phase_1,,,,,,,,,,,,,orange,square
341.0,2.0,2.0,0.0,3.0,3.0,329.9564440003451,3.0,1.0,phase_1,,,,,,,,,,,,,orange,square
0.0,5.0,0.0,1.0,1.0,1.0,309.0075650002291,3.0,1.0,phase_1,,,,,,,,,,,,,yellow,circle
321.0,6.0,2.0,1.0,4.0,4.0,305.9798039998895,3.0,1.0,phase_1,,,,,,,,,,,,,blue,diamond
348.0,6.0,2.0,1.0,3.0,3.0,479.5985240002665,3.0,1.0,phase_1,,,,,,,,,,,,,blue,diamond
186.0,1.0,1.0,0.0,1.0,1.0,298.1820330001028,3.0,2.0,phase_1,,,,,,,,,,,,,cyan,triangle
1291.0,8.0,4.0,1.0,2.0,2.0,252.7681130000019,3.0,1.0,phase_1,,,,,,,,,,,,,magenta,flipped triangle
1303.0,4.0,4.0,0.0,3.0,3.0,315.9357960003035,3.0,1.0,phase_1,,,,,,,,,,,,,white,I
0.0,8.0,0.0,1.0,1.0,1.0,293.4062919998723,3.0,1.0,phase_1,,,,,,,,,,,,,magenta,flipped triangle
638.0,7.0,3.0,1.0,4.0,4.0,329.9335279998558,3.0,1.0,phase_1,,,,,,,,,,,,,green,hexagon
341.0,6.0,2.0,1.0,4.0,4.0,353.3270180000727,3.0,1.0,phase_1,,,,,,,,,,,,,blue,diamond
0.0,4.0,0.0,0.0,2.0,2.0,276.0996100000739,3.0,1.0,phase_1,,,,,,,,,,,,,white,I
1309.0,4.0,4.0,0.0,1.0,1.0,344.2870399999265,3.0,1.0,phase_1,,,,,,,,,,,,,white,I
0.0,2.0,0.0,0.0,3.0,3.0,327.5275400001192,3.0,1.0,phase_1,,,,,,,,,,,,,orange,square
0.0,1.0,0.0,0.0,4.0,4.0,340.3934719999597,3.0,1.0,phase_1,,,,,,,,,,,,,cyan,triangle
1315.0,8.0,4.0,1.0,1.0,1.0,398.4414890001062,3.0,1.0,phase_1,,,,,,,,,,,,,magenta,flipped triangle
0.0,8.0,0.0,1.0,3.0,3.0,314.7610689998146,3.0,1.0,phase_1,,,,,,,,,,,,,magenta,flipped triangle
1299.0,8.0,4.0,1.0,2.0,2.0,335.4163530002552,4.0,1.0,phase_1,,,,,,,,,,,,,magenta,flipped triangle
162.0,5.0,1.0,1.0,2.0,2.0,293.5415760002797,4.0,1.0,phase_1,,,,,,,,,,,,,yellow,circle
185.0,1.0,1.0,0.0,3.0,3.0,329.8386270002993,4.0,1.0,phase_1,,,,,,,,,,,,,cyan,triangle
0.0,4.0,0.0,0.0,4.0,4.0,332.7908000001116,4.0,1.0,phase_1,,,,,,,,,,,,,white,I
1309.0,8.0,4.0,1.0,4.0,4.0,369.5537610001338,4.0,1.0,phase_1,,,,,,,,,,,,,magenta,flipped triangle
1309.0,8.0,4.0,1.0,3.0,3.0,267.2042969998074,4.0,2.0,phase_1,,,,,,,,,,,,,magenta,flipped triangle
185.0,5.0,1.0,1.0,1.0,1.0,320.8362519999355,4.0,1.0,phase_1,,,,,,,,,,,,,yellow,circle
336.0,2.0,2.0,0.0,4.0,4.0,323.9464609996503,4.0,1.0,phase_1,,,,,,,,,,,,,orange,square
319.0,6.0,2.0,1.0,3.0,3.0,240.5057819996727,4.0,1.0,phase_1,,,,,,,,,,,,,blue,diamond
336.0,6.0,2.0,1.0,4.0,4.0,356.7998530002114,4.0,1.0,phase_1,,,,,,,,,,,,,blue,diamond
155.0,1.0,1.0,0.0,1.0,1.0,305.172861000301,4.0,1.0,phase_1,,,,,,,,,,,,,cyan,triangle
301.0,6.0,2.0,1.0,2.0,2.0,429.9978389999523,4.0,1.0,phase_1,,,,,,,,,,,,,blue,diamond
170.0,5.0,1.0,1.0,4.0,4.0,339.2267209997044,4.0,1.0,phase_1,,,,,,,,,,,,,yellow,circle
637.0,7.0,3.0,1.0,3.0,3.0,306.5306180001244,4.0,1.0,phase_1,,,,,,,,,,,,,green,hexagon
659.0,3.0,3.0,0.0,1.0,1.0,364.8437829997419,4.0,1.0,phase_1,,,,,,,,,,,,,gray,cross
0.0,3.0,0.0,0.0,2.0,2.0,273.1802299999799,4.0,1.0,phase_1,,,,,,,,,,,,,gray,cross
1282.0,4.0,4.0,0.0,4.0,4.0,413.1167709997498,4.0,1.0,phase_1,,,,,,,,,,,,,white,I
658.0,3.0,3.0,0.0,4.0,4.0,347.7031590000479,4.0,1.0,phase_1,,,,,,,,,,,,,gray,cross
1293.0,4.0,4.0,0.0,1.0,1.0,278.8773550000769,4.0,1.0,phase_1,,,,,,,,,,,,,white,I
674.0,7.0,3.0,1.0,1.0,1.0,347.7493810000851,4.0,1.0,phase_1,,,,,,,,,,,,,green,hexagon
661.0,3.0,3.0,0.0,3.0,3.0,400.7227039996905,4.0,1.0,phase_1,,,,,,,,,,,,,gray,cross
675.0,7.0,3.0,1.0,4.0,4.0,364.7212409996427,4.0,1.0,phase_1,,,,,,,,,,,,,green,hexagon
661.0,7.0,3.0,1.0,3.0,3.0,362.4609799999234,4.0,1.0,phase_1,,,,,,,,,,,,,green,hexagon
1305.0,8.0,4.0,1.0,2.0,2.0,294.7532379998847,4.0,1.0,phase_1,,,,,,,,,,,,,magenta,flipped triangle
0.0,1.0,0.0,0.0,4.0,4.0,315.3128179997111,4.0,1.0,phase_1,,,,,,,,,,,,,cyan,triangle
0.0,8.0,0.0,1.0,3.0,3.0,326.5557499998976,4.0,1.0,phase_1,,,,,,,,,,,,,magenta,flipped triangle
345.0,2.0,2.0,0.0,1.0,1.0,315.1870780002355,4.0,1.0,phase_1,,,,,,,,,,,,,orange,square
654.0,7.0,3.0,1.0,1.0,1.0,410.2332489997025,4.0,1.0,phase_1,,,,,,,,,,,,,green,hexagon
670.0,7.0,3.0,1.0,1.0,1.0,332.814910000252,4.0,1.0,phase_1,,,,,,,,,,,,,green,hexagon
633.0,7.0,3.0,1.0,2.0,2.0,521.7361660002098,4.0,1.0,phase_1,,,,,,,,,,,,,green,hexagon
345.0,2.0,2.0,0.0,3.0,3.0,302.2000810001373,4.0,1.0,phase_1,,,,,,,,,,,,,orange,square
1315.0,4.0,4.0,0.0,4.0,4.0,463.1577440000001,4.0,2.0,phase_1,,,,,,,,,,,,,white,I
672.0,7.0,3.0,1.0,4.0,4.0,379.3780949999927,4.0,1.0,phase_1,,,,,,,,,,,,,green,hexagon
627.0,3.0,3.0,0.0,1.0,1.0,311.8873170001279,4.0,1.0,phase_1,,,,,,,,,,,,,gray,cross
630.0,7.0,3.0,1.0,2.0,2.0,415.5936489996747,4.0,1.0,phase_1,,,,,,,,,,,,,green,hexagon
658.0,7.0,3.0,1.0,3.0,3.0,275.831030000063,4.0,1.0,phase_1,,,,,,,,,,,,,green,hexagon
324.0,2.0,2.0,0.0,3.0,3.0,335.9470259997579,4.0,1.0,phase_1,,,,,,,,,,,,,orange,square
137.0,5.0,1.0,1.0,3.0,3.0,355.8879569995952,4.0,1.0,phase_1,,,,,,,,,,,,,yellow,circle
675.0,3.0,3.0,0.0,3.0,3.0,338.3122139998704,4.0,1.0,phase_1,,,,,,,,,,,,,gray,cross
1291.0,4.0,4.0,0.0,2.0,2.0,299.5390780001798,4.0,1.0,phase_1,,,,,,,,,,,,,white,I
167.0,1.0,1.0,0.0,4.0,4.0,347.2068399996715,4.0,1.0,phase_1,,,,,,,,,,,,,cyan,triangle
1276.0,4.0,4.0,0.0,1.0,1.0,245.7640340003308,4.0,1.0,phase_1,,,,,,,,,,,,,white,I
147.0,5.0,1.0,1.0,2.0,2.0,329.5334059998822,4.0,1.0,phase_1,,,,,,,,,,,,,yellow,circle
1298.0,8.0,4.0,1.0,4.0,4.0,392.6803690001179,4.0,1.0,phase_1,,,,,,,,,,,,,magenta,flipped triangle
319.0,2.0,2.0,0.0,1.0,1.0,309.3201990000125,4.0,1.0,phase_1,,,,,,,,,,,,,orange,square
0.0,7.0,0.0,1.0,4.0,4.0,353.0449979998593,4.0,1.0,phase_1,,,,,,,,,,,,,green,hexagon
0.0,7.0,0.0,1.0,3.0,3.0,284.7219569998742,4.0,1.0,phase_1,,,,,,,,,,,,,green,hexagon
156.0,5.0,1.0,1.0,1.0,1.0,385.4102660002354,4.0,1.0,phase_1,,,,,,,,,,,,,yellow,circle
1282.0,8.0,4.0,1.0,3.0,3.0,284.6917910001139,4.0,1.0,phase_1,,,,,,,,,,,,,magenta,flipped triangle
185.0,5.0,1.0,1.0,1.0,1.0,291.0716260003028,4.0,1.0,phase_1,,,,,,,,,,,,,yellow,circle
630.0,3.0,3.0,0.0,4.0,4.0,317.9114489998937,4.0,1.0,phase_1,,,,,,,,,,,,,gray,cross
636.0,3.0,3.0,0.0,2.0,2.0,258.5561569999299,4.0,1.0,phase_1,,,,,,,,,,,,,gray,cross
0.0,1.0,0.0,0.0,3.0,3.0,255.24111799995808,4.0,1.0,phase_1,,,,,,,,,,,,,cyan,triangle
1325.0,8.0,4.0,1.0,3.0,3.0,356.4965059999849,4.0,1.0,phase_1,,,,,,,,,,,,,magenta,flipped triangle
0.0,8.0,0.0,1.0,4.0,4.0,339.6484750001036,4.0,1.0,phase_1,,,,,,,,,,,,,magenta,flipped triangle
166.0,5.0,1.0,1.0,4.0,4.0,368.4515050003938,4.0,1.0,phase_1,,,,,,,,,,,,,yellow,circle
672.0,3.0,3.0,0.0,4.0,4.0,347.4396759997944,4.0,1.0,phase_1,,,,,,,,,,,,,gray,cross
640.0,7.0,3.0,1.0,4.0,4.0,326.7536209996251,4.0,1.0,phase_1,,,,,,,,,,,,,green,hexagon
644.0,7.0,3.0,1.0,3.0,3.0,309.5164289998138,4.0,1.0,phase_1,,,,,,,,,,,,,green,hexagon
1281.0,4.0,4.0,0.0,2.0,2.0,312.3135980004008,4.0,1.0,phase_1,,,,,,,,,,,,,white,I
1313.0,4.0,4.0,0.0,1.0,1.0,327.2493380000014,4.0,1.0,phase_1,,,,,,,,,,,,,white,I
661.0,3.0,3.0,0.0,1.0,1.0,377.4034529997152,4.0,1.0,phase_1,,,,,,,,,,,,,gray,cross
640.0,7.0,3.0,1.0,1.0,1.0,269.6828240000286,4.0,1.0,phase_1,,,,,,,,,,,,,green,hexagon
0.0,7.0,0.0,1.0,2.0,2.0,300.3135180001663,4.0,1.0,phase_1,,,,,,,,,,,,,green,hexagon
1324.0,8.0,4.0,1.0,2.0,2.0,272.8922450000937,4.0,1.0,phase_1,,,,,,,,,,,,,magenta,flipped triangle
159.0,1.0,1.0,0.0,4.0,4.0,341.7108370003916,4.0,1.0,phase_1,,,,,,,,,,,,,cyan,triangle
186.0,5.0,1.0,1.0,3.0,3.0,329.7489500000665,4.0,1.0,phase_1,,,,,,,,,,,,,yellow,circle
185.0,1.0,1.0,0.0,3.0,3.0,350.1349429998299,4.0,1.0,phase_1,,,,,,,,,,,,,cyan,triangle
305.0,6.0,2.0,1.0,2.0,2.0,281.6082129997994,4.0,1.0,phase_1,,,,,,,,,,,,,blue,diamond
1276.0,8.0,4.0,1.0,4.0,4.0,334.8716779996721,4.0,1.0,phase_1,,,,,,,,,,,,,magenta,flipped triangle
317.0,6.0,2.0,1.0,2.0,2.0,459.3123989998275,4.0,1.0,phase_1,,,,,,,,,,,,,blue,diamond
1313.0,8.0,4.0,1.0,1.0,1.0,273.5785119998581,4.0,1.0,phase_1,,,,,,,,,,,,,magenta,flipped triangle
0.0,7.0,0.0,1.0,1.0,1.0,302.993620000052,4.0,1.0,phase_1,,,,,,,,,,,,,green,hexagon
1296.0,8.0,4.0,1.0,4.0,4.0,353.0903470000339,4.0,1.0,phase_1,,,,,,,,,,,,,magenta,flipped triangle
139.0,5.0,1.0,1.0,4.0,4.0,358.1775409998045,4.0,1.0,phase_1,,,,,,,,,,,,,yellow,circle
633.0,7.0,3.0,1.0,2.0,2.0,266.8690790001164,4.0,1.0,phase_1,,,,,,,,,,,,,green,hexagon
635.0,3.0,3.0,0.0,3.0,3.0,359.0145399998619,4.0,1.0,phase_1,,,,,,,,,,,,,gray,cross
325.0,2.0,2.0,0.0,2.0,2.0,243.7088480000966,4.0,1.0,phase_1,,,,,,,,,,,,,orange,square
181.0,1.0,1.0,0.0,3.0,3.0,362.7796319997287,4.0,1.0,phase_1,,,,,,,,,,,,,cyan,triangle
669.0,3.0,3.0,0.0,4.0,4.0,382.805582000401,4.0,1.0,phase_1,,,,,,,,,,,,,gray,cross
172.0,5.0,1.0,1.0,4.0,4.0,386.6814480002176,4.0,1.0,phase_1,,,,,,,,,,,,,yellow,circle
1289.0,4.0,4.0,0.0,4.0,4.0,285.380798999995,4.0,1.0,phase_1,,,,,,,,,,,,,white,I
305.0,2.0,2.0,0.0,1.0,1.0,258.5421690000657,4.0,1.0,phase_1,,,,,,,,,,,,,orange,square
1284.0,8.0,4.0,1.0,1.0,1.0,329.9777929996708,4.0,1.0,phase_1,,,,,,,,,,,,,magenta,flipped triangle
1305.0,4.0,4.0,0.0,2.0,2.0,269.712638999863,4.0,1.0,phase_1,,,,,,,,,,,,,white,I
141.0,5.0,1.0,1.0,4.0,4.0,329.5575980000649,4.0,1.0,phase_1,,,,,,,,,,,,,yellow,circle
632.0,3.0,3.0,0.0,3.0,3.0,302.5909380003213,4.0,1.0,phase_1,,,,,,,,,,,,,gray,cross
0.0,3.0,0.0,0.0,3.0,3.0,355.8436589996745,4.0,1.0,phase_1,,,,,,,,,,,,,gray,cross
342.0,6.0,2.0,1.0,1.0,1.0,294.2570779996458,4.0,1.0,phase_1,,,,,,,,,,,,,blue,diamond
1301.0,8.0,4.0,1.0,4.0,4.0,357.2453280003174,4.0,1.0,phase_1,,,,,,,,,,,,,magenta,flipped triangle
156.0,1.0,1.0,0.0,4.0,4.0,376.0474790001353,4.0,1.0,phase_1,,,,,,,,,,,,,cyan,triangle
643.0,3.0,3.0,0.0,2.0,2.0,365.1110920000064,4.0,1.0,phase_1,,,,,,,,,,,,,gray,cross
647.0,3.0,3.0,0.0,3.0,3.0,424.0880930001367,4.0,2.0,phase_1,,,,,,,,,,,,,gray,cross
630.0,7.0,3.0,1.0,3.0,3.0,355.2887770001689,4.0,1.0,phase_1,,,,,,,,,,,,,green,hexagon
171.0,5.0,1.0,1.0,2.0,2.0,305.3878149999036,4.0,1.0,phase_1,,,,,,,,,,,,,yellow,circle
332.0,6.0,2.0,1.0,2.0,2.0,388.7323120002293,4.0,1.0,phase_1,,,,,,,,,,,,,blue,diamond
1319.0,8.0,4.0,1.0,2.0,2.0,250.6244390001484,4.0,1.0,phase_1,,,,,,,,,,,,,magenta,flipped triangle
1310.0,8.0,4.0,1.0,1.0,1.0,388.3769489998485,4.0,1.0,phase_1,,,,,,,,,,,,,magenta,flipped triangle
312.0,6.0,2.0,1.0,2.0,2.0,242.8178879999905,4.0,1.0,phase_1,,,,,,,,,,,,,blue,diamond
0.0,3.0,0.0,0.0,1.0,1.0,287.8434949998336,4.0,1.0,phase_1,,,,,,,,,,,,,gray,cross
0.0,5.0,1.0,1.0,5.0,0.0,0.0,1.0,1.0,phase_2,stop,250.0,250.0,4.0,,,,,,,,,yellow,circle
0.0,6.0,2.0,1.0,5.0,5.0,365.8720290000019,1.0,1.0,phase_2,go,300.0,250.0,1.0,,,,,,,,,blue,diamond
0.0,7.0,3.0,1.0,5.0,5.0,407.7503039998191,1.0,1.0,phase_2,stop,300.0,250.0,3.0,,,,,,,,,green,hexagon
0.0,2.0,2.0,0.0,6.0,6.0,454.8461720000887,1.0,1.0,phase_2,go,250.0,250.0,1.0,,,,,,,,,orange,square
0.0,4.0,4.0,0.0,5.0,5.0,646.2537729998985,1.0,1.0,phase_2,go,250.0,250.0,1.0,,,,,,,,,white,I
0.0,5.0,1.0,1.0,6.0,6.0,290.6978830001208,1.0,1.0,phase_2,stop,250.0,250.0,3.0,,,,,,,,,yellow,circle
0.0,5.0,1.0,1.0,5.0,5.0,490.7114729999193,1.0,1.0,phase_2,go,250.0,200.0,1.0,,,,,,,,,yellow,circle
0.0,6.0,2.0,1.0,6.0,0.0,0.0,1.0,1.0,phase_2,stop,250.0,200.0,4.0,,,,,,,,,blue,diamond
0.0,7.0,3.0,1.0,6.0,0.0,0.0,1.0,1.0,phase_2,stop,250.0,250.0,4.0,,,,,,,,,green,hexagon
0.0,4.0,4.0,0.0,5.0,5.0,432.5004600000284,1.0,1.0,phase_2,go,250.0,300.0,1.0,,,,,,,,,white,I
0.0,4.0,4.0,0.0,6.0,6.0,585.7773720003934,1.0,1.0,phase_2,go,250.0,300.0,1.0,,,,,,,,,white,I
0.0,3.0,3.0,0.0,6.0,6.0,495.9807870000077,1.0,1.0,phase_2,go,250.0,300.0,1.0,,,,,,,,,gray,cross
0.0,5.0,1.0,1.0,5.0,0.0,0.0,1.0,1.0,phase_2,stop,250.0,300.0,4.0,,,,,,,,,yellow,circle
0.0,6.0,2.0,1.0,5.0,5.0,438.7002559997199,1.0,1.0,phase_2,go,300.0,300.0,1.0,,,,,,,,,blue,diamond
0.0,5.0,1.0,1.0,6.0,0.0,0.0,1.0,1.0,phase_2,stop,300.0,300.0,4.0,,,,,,,,,yellow,circle
0.0,8.0,4.0,1.0,6.0,0.0,0.0,1.0,1.0,phase_2,stop,300.0,350.0,4.0,,,,,,,,,magenta,flipped triangle
0.0,1.0,1.0,0.0,6.0,6.0,484.9124349998419,1.0,1.0,phase_2,go,300.0,400.0,1.0,,,,,,,,,cyan,triangle
0.0,5.0,1.0,1.0,6.0,0.0,0.0,1.0,1.0,phase_2,stop,300.0,400.0,4.0,,,,,,,,,yellow,circle
0.0,5.0,1.0,1.0,6.0,0.0,0.0,1.0,1.0,phase_2,stop,300.0,450.0,4.0,,,,,,,,,yellow,circle
0.0,3.0,3.0,0.0,6.0,6.0,474.970027999916,1.0,1.0,phase_2,go,300.0,500.0,1.0,,,,,,,,,gray,cross
0.0,7.0,3.0,1.0,5.0,0.0,0.0,1.0,1.0,phase_2,stop,300.0,500.0,4.0,,,,,,,,,green,hexagon
0.0,8.0,4.0,1.0,6.0,6.0,995.0676640000892,1.0,1.0,phase_2,go,350.0,500.0,1.0,,,,,,,,,magenta,flipped triangle
0.0,6.0,2.0,1.0,5.0,0.0,0.0,1.0,1.0,phase_2,stop,350.0,500.0,4.0,,,,,,,,,blue,diamond
0.0,7.0,3.0,1.0,6.0,6.0,399.9644670002453,1.0,1.0,phase_2,stop,400.0,500.0,3.0,,,,,,,,,green,hexagon
0.0,1.0,1.0,0.0,5.0,5.0,447.7950959999361,1.0,1.0,phase_2,go,400.0,450.0,1.0,,,,,,,,,cyan,triangle
0.0,4.0,4.0,0.0,6.0,6.0,360.7352320000245,1.0,1.0,phase_2,go,400.0,450.0,1.0,,,,,,,,,white,I
0.0,6.0,2.0,1.0,6.0,6.0,503.041920999749,1.0,1.0,phase_2,stop,400.0,450.0,3.0,,,,,,,,,blue,diamond
0.0,6.0,2.0,1.0,5.0,0.0,0.0,1.0,1.0,phase_2,stop,400.0,400.0,4.0,,,,,,,,,blue,diamond
0.0,8.0,4.0,1.0,6.0,0.0,0.0,1.0,1.0,phase_2,stop,450.0,400.0,4.0,,,,,,,,,magenta,flipped triangle
0.0,4.0,4.0,0.0,5.0,5.0,493.6257069998646,1.0,1.0,phase_2,go,450.0,450.0,1.0,,,,,,,,,white,I
0.0,1.0,1.0,0.0,5.0,5.0,612.2682149998582,1.0,1.0,phase_2,go,450.0,450.0,1.0,,,,,,,,,cyan,triangle
0.0,3.0,3.0,0.0,5.0,5.0,517.048874000011,1.0,1.0,phase_2,go,450.0,450.0,1.0,,,,,,,,,gray,cross
0.0,4.0,4.0,0.0,5.0,5.0,467.6349709998249,1.0,1.0,phase_2,go,450.0,450.0,1.0,,,,,,,,,white,I
0.0,6.0,2.0,1.0,5.0,5.0,354.6338199998899,1.0,1.0,phase_2,stop,450.0,450.0,3.0,,,,,,,,,blue,diamond
0.0,4.0,4.0,0.0,6.0,6.0,585.006151000016,1.0,1.0,phase_2,go,400.0,450.0,1.0,,,,,,,,,white,I
0.0,5.0,1.0,1.0,6.0,6.0,744.7177490003014,1.0,1.0,phase_2,go,400.0,450.0,1.0,,,,,,,,,yellow,circle
0.0,3.0,3.0,0.0,5.0,5.0,388.2830339998691,2.0,1.0,phase_2,go,400.0,450.0,1.0,,,,,,,,,gray,cross
0.0,3.0,3.0,0.0,5.0,5.0,548.2065829996827,2.0,1.0,phase_2,go,400.0,450.0,1.0,,,,,,,,,gray,cross
0.0,4.0,4.0,0.0,6.0,6.0,291.8846399998074,2.0,1.0,phase_2,go,400.0,450.0,1.0,,,,,,,,,white,I
0.0,6.0,2.0,1.0,6.0,0.0,0.0,2.0,1.0,phase_2,stop,400.0,450.0,4.0,,,,,,,,,blue,diamond
0.0,7.0,3.0,1.0,6.0,6.0,484.2281169999296,2.0,1.0,phase_2,go,400.0,500.0,1.0,,,,,,,,,green,hexagon
0.0,3.0,3.0,0.0,6.0,6.0,515.2015260000553,2.0,1.0,phase_2,go,400.0,500.0,1.0,,,,,,,,,gray,cross
0.0,4.0,4.0,0.0,5.0,5.0,435.1629090001552,2.0,1.0,phase_2,go,400.0,500.0,1.0,,,,,,,,,white,I
0.0,1.0,1.0,0.0,5.0,5.0,602.3817889999918,2.0,1.0,phase_2,go,400.0,500.0,1.0,,,,,,,,,cyan,triangle
0.0,2.0,2.0,0.0,6.0,6.0,399.9874800001635,2.0,1.0,phase_2,go,400.0,500.0,1.0,,,,,,,,,orange,square
0.0,8.0,4.0,1.0,5.0,0.0,0.0,2.0,1.0,phase_2,stop,400.0,500.0,4.0,,,,,,,,,magenta,flipped triangle
0.0,1.0,1.0,0.0,5.0,5.0,449.0138229998592,2.0,1.0,phase_2,go,450.0,500.0,1.0,,,,,,,,,cyan,triangle
0.0,3.0,3.0,0.0,5.0,5.0,414.1056089997619,2.0,1.0,phase_2,go,450.0,500.0,1.0,,,,,,,,,gray,cross
0.0,6.0,2.0,1.0,6.0,6.0,526.699878999807,2.0,1.0,phase_2,go,450.0,500.0,1.0,,,,,,,,,blue,diamond
0.0,8.0,4.0,1.0,6.0,0.0,0.0,2.0,1.0,phase_2,stop,450.0,500.0,4.0,,,,,,,,,magenta,flipped triangle
0.0,5.0,1.0,1.0,6.0,0.0,0.0,2.0,1.0,phase_2,stop,450.0,550.0,4.0,,,,,,,,,yellow,circle
0.0,5.0,1.0,1.0,6.0,0.0,0.0,2.0,1.0,phase_2,stop,450.0,600.0,4.0,,,,,,,,,yellow,circle
0.0,2.0,2.0,0.0,5.0,5.0,483.0436249999366,2.0,1.0,phase_2,go,450.0,650.0,1.0,,,,,,,,,orange,square
0.0,2.0,2.0,0.0,6.0,6.0,619.338770000013,2.0,1.0,phase_2,go,450.0,650.0,1.0,,,,,,,,,orange,square
0.0,3.0,3.0,0.0,6.0,6.0,443.2272359999842,2.0,1.0,phase_2,go,450.0,650.0,1.0,,,,,,,,,gray,cross
0.0,7.0,3.0,1.0,5.0,5.0,283.0105869998078,2.0,1.0,phase_2,stop,450.0,650.0,3.0,,,,,,,,,green,hexagon
0.0,1.0,1.0,0.0,5.0,5.0,498.6129240000991,2.0,1.0,phase_2,go,400.0,650.0,1.0,,,,,,,,,cyan,triangle
0.0,2.0,2.0,0.0,6.0,6.0,505.64526400012255,2.0,1.0,phase_2,go,400.0,650.0,1.0,,,,,,,,,orange,square
0.0,1.0,1.0,0.0,6.0,6.0,448.7376859997312,2.0,1.0,phase_2,go,400.0,650.0,1.0,,,,,,,,,cyan,triangle
0.0,2.0,2.0,0.0,5.0,5.0,399.0929799997502,2.0,1.0,phase_2,go,400.0,650.0,1.0,,,,,,,,,orange,square
0.0,6.0,2.0,1.0,6.0,6.0,376.0440679998282,2.0,1.0,phase_2,stop,400.0,650.0,3.0,,,,,,,,,blue,diamond
0.0,5.0,1.0,1.0,5.0,5.0,917.6881140001568,2.0,1.0,phase_2,go,400.0,600.0,1.0,,,,,,,,,yellow,circle
0.0,3.0,3.0,0.0,6.0,6.0,324.1392019999694,2.0,1.0,phase_2,go,400.0,600.0,1.0,,,,,,,,,gray,cross
0.0,5.0,1.0,1.0,5.0,0.0,0.0,2.0,1.0,phase_2,stop,400.0,600.0,4.0,,,,,,,,,yellow,circle
0.0,1.0,1.0,0.0,6.0,6.0,533.3341270002165,2.0,1.0,phase_2,go,450.0,600.0,1.0,,,,,,,,,cyan,triangle
0.0,6.0,2.0,1.0,6.0,6.0,851.9340089997058,2.0,1.0,phase_2,go,450.0,600.0,1.0,,,,,,,,,blue,diamond
0.0,6.0,2.0,1.0,6.0,0.0,0.0,2.0,1.0,phase_2,stop,450.0,600.0,4.0,,,,,,,,,blue,diamond
0.0,5.0,1.0,1.0,5.0,5.0,561.7984460000116,2.0,1.0,phase_2,go,450.0,650.0,1.0,,,,,,,,,yellow,circle
0.0,6.0,2.0,1.0,5.0,0.0,0.0,2.0,1.0,phase_2,stop,450.0,650.0,4.0,,,,,,,,,blue,diamond
0.0,3.0,3.0,0.0,5.0,5.0,567.8518560002885,2.0,1.0,phase_2,go,500.0,650.0,1.0,,,,,,,,,gray,cross
0.0,1.0,1.0,0.0,6.0,6.0,488.2536080003774,2.0,1.0,phase_2,go,500.0,650.0,1.0,,,,,,,,,cyan,triangle
0.0,6.0,2.0,1.0,5.0,0.0,0.0,2.0,1.0,phase_2,stop,500.0,650.0,4.0,,,,,,,,,blue,diamond
0.0,5.0,1.0,1.0,5.0,5.0,423.6725460000343,3.0,1.0,phase_2,stop,550.0,650.0,3.0,,,,,,,,,yellow,circle
0.0,8.0,4.0,1.0,5.0,5.0,454.2956029999914,3.0,1.0,phase_2,stop,500.0,650.0,3.0,,,,,,,,,magenta,flipped triangle
0.0,7.0,3.0,1.0,5.0,5.0,568.0245380003726,3.0,1.0,phase_2,go,450.0,650.0,1.0,,,,,,,,,green,hexagon
0.0,3.0,3.0,0.0,6.0,6.0,446.0213560000738,3.0,1.0,phase_2,go,450.0,650.0,1.0,,,,,,,,,gray,cross
0.0,1.0,1.0,0.0,6.0,6.0,325.2458649999425,3.0,1.0,phase_2,go,450.0,650.0,1.0,,,,,,,,,cyan,triangle
0.0,4.0,4.0,0.0,6.0,6.0,396.5266360000896,3.0,1.0,phase_2,go,450.0,650.0,1.0,,,,,,,,,white,I
0.0,7.0,3.0,1.0,6.0,6.0,300.882482000361,3.0,1.0,phase_2,stop,450.0,650.0,3.0,,,,,,,,,green,hexagon
0.0,6.0,2.0,1.0,5.0,0.0,0.0,3.0,1.0,phase_2,stop,450.0,600.0,4.0,,,,,,,,,blue,diamond
0.0,4.0,4.0,0.0,5.0,5.0,435.9596320000491,3.0,1.0,phase_2,go,500.0,600.0,1.0,,,,,,,,,white,I
0.0,2.0,2.0,0.0,6.0,6.0,353.4128380001675,3.0,1.0,phase_2,go,500.0,600.0,1.0,,,,,,,,,orange,square
0.0,1.0,1.0,0.0,5.0,5.0,337.3562890001267,3.0,1.0,phase_2,go,500.0,600.0,1.0,,,,,,,,,cyan,triangle
0.0,5.0,1.0,1.0,5.0,5.0,346.6170149999925,3.0,1.0,phase_2,stop,500.0,600.0,3.0,,,,,,,,,yellow,circle
0.0,7.0,3.0,1.0,6.0,0.0,0.0,3.0,1.0,phase_2,stop,450.0,600.0,4.0,,,,,,,,,green,hexagon
0.0,1.0,1.0,0.0,6.0,6.0,438.2611159999214,3.0,1.0,phase_2,go,450.0,650.0,1.0,,,,,,,,,cyan,triangle
0.0,4.0,4.0,0.0,5.0,5.0,368.2627790003607,3.0,1.0,phase_2,go,450.0,650.0,1.0,,,,,,,,,white,I
0.0,1.0,1.0,0.0,5.0,5.0,382.1999889996732,3.0,1.0,phase_2,go,450.0,650.0,1.0,,,,,,,,,cyan,triangle
0.0,3.0,3.0,0.0,5.0,5.0,381.3434250000682,3.0,1.0,phase_2,go,450.0,650.0,1.0,,,,,,,,,gray,cross
0.0,8.0,4.0,1.0,6.0,6.0,877.0227420000083,3.0,1.0,phase_2,go,450.0,650.0,1.0,,,,,,,,,magenta,flipped triangle
0.0,1.0,1.0,0.0,5.0,5.0,556.5523759996722,3.0,1.0,phase_2,go,450.0,650.0,1.0,,,,,,,,,cyan,triangle
0.0,8.0,4.0,1.0,5.0,5.0,363.601194000239,3.0,1.0,phase_2,stop,450.0,650.0,3.0,,,,,,,,,magenta,flipped triangle
0.0,5.0,1.0,1.0,5.0,0.0,0.0,3.0,1.0,phase_2,stop,400.0,650.0,4.0,,,,,,,,,yellow,circle
0.0,2.0,2.0,0.0,5.0,5.0,522.4122570002692,3.0,1.0,phase_2,go,450.0,650.0,1.0,,,,,,,,,orange,square
0.0,1.0,1.0,0.0,6.0,6.0,707.5689610001064,3.0,1.0,phase_2,go,450.0,650.0,1.0,,,,,,,,,cyan,triangle
0.0,8.0,4.0,1.0,5.0,0.0,0.0,3.0,1.0,phase_2,stop,450.0,650.0,4.0,,,,,,,,,magenta,flipped triangle
0.0,2.0,2.0,0.0,6.0,6.0,344.3078919999607,3.0,1.0,phase_2,go,500.0,650.0,1.0,,,,,,,,,orange,square
0.0,8.0,4.0,1.0,5.0,5.0,392.1764739998252,3.0,1.0,phase_2,stop,500.0,650.0,3.0,,,,,,,,,magenta,flipped triangle
0.0,7.0,3.0,1.0,5.0,0.0,0.0,3.0,1.0,phase_2,stop,450.0,650.0,4.0,,,,,,,,,green,hexagon
0.0,7.0,3.0,1.0,6.0,6.0,318.5566990000552,3.0,1.0,phase_2,stop,500.0,650.0,3.0,,,,,,,,,green,hexagon
0.0,5.0,1.0,1.0,5.0,5.0,934.1537200002676,3.0,1.0,phase_2,go,500.0,600.0,1.0,,,,,,,,,yellow,circle
0.0,3.0,3.0,0.0,6.0,6.0,581.0453090002738,3.0,1.0,phase_2,go,500.0,600.0,1.0,,,,,,,,,gray,cross
0.0,4.0,4.0,0.0,6.0,6.0,356.9457049998163,3.0,1.0,phase_2,go,500.0,600.0,1.0,,,,,,,,,white,I
0.0,2.0,2.0,0.0,6.0,6.0,492.1911690003071,3.0,1.0,phase_2,go,500.0,600.0,1.0,,,,,,,,,orange,square
0.0,1.0,1.0,0.0,5.0,5.0,621.4105990002281,3.0,1.0,phase_2,go,500.0,600.0,1.0,,,,,,,,,cyan,triangle
0.0,7.0,3.0,1.0,5.0,5.0,826.5956360000928,3.0,1.0,phase_2,go,500.0,600.0,1.0,,,,,,,,,green,hexagon
0.0,5.0,1.0,1.0,5.0,0.0,0.0,3.0,1.0,phase_2,stop,500.0,600.0,4.0,,,,,,,,,yellow,circle
0.0,4.0,4.0,0.0,6.0,6.0,377.0306389997131,3.0,1.0,phase_2,go,550.0,600.0,1.0,,,,,,,,,white,I
0.0,8.0,4.0,1.0,5.0,0.0,0.0,4.0,1.0,phase_2,stop,550.0,600.0,4.0,,,,,,,,,magenta,flipped triangle
0.0,8.0,4.0,1.0,6.0,0.0,0.0,4.0,1.0,phase_2,stop,600.0,600.0,4.0,,,,,,,,,magenta,flipped triangle
0.0,4.0,4.0,0.0,5.0,5.0,455.9086640001624,4.0,1.0,phase_2,go,600.0,650.0,1.0,,,,,,,,,white,I
0.0,6.0,2.0,1.0,6.0,6.0,294.2887639997025,4.0,1.0,phase_2,stop,600.0,650.0,3.0,,,,,,,,,blue,diamond
0.0,5.0,1.0,1.0,6.0,0.0,0.0,4.0,1.0,phase_2,stop,600.0,600.0,4.0,,,,,,,,,yellow,circle
0.0,2.0,2.0,0.0,6.0,6.0,628.672579999602,4.0,1.0,phase_2,go,600.0,650.0,1.0,,,,,,,,,orange,square
0.0,8.0,4.0,1.0,6.0,6.0,925.026590000016,4.0,1.0,phase_2,go,600.0,650.0,1.0,,,,,,,,,magenta,flipped triangle
0.0,3.0,3.0,0.0,6.0,6.0,460.2743909999844,4.0,1.0,phase_2,go,600.0,650.0,1.0,,,,,,,,,gray,cross
0.0,4.0,4.0,0.0,6.0,6.0,363.7433519998012,4.0,1.0,phase_2,go,600.0,650.0,1.0,,,,,,,,,white,I
0.0,6.0,2.0,1.0,6.0,6.0,779.0871759998481,4.0,1.0,phase_2,stop,600.0,650.0,3.0,,,,,,,,,blue,diamond
0.0,4.0,4.0,0.0,5.0,5.0,523.9389289999963,4.0,1.0,phase_2,go,600.0,600.0,1.0,,,,,,,,,white,I
0.0,1.0,1.0,0.0,5.0,5.0,497.928955000134,4.0,1.0,phase_2,go,600.0,600.0,1.0,,,,,,,,,cyan,triangle
0.0,8.0,4.0,1.0,6.0,0.0,0.0,4.0,1.0,phase_2,stop,600.0,600.0,4.0,,,,,,,,,magenta,flipped triangle
0.0,8.0,4.0,1.0,5.0,0.0,0.0,4.0,1.0,phase_2,stop,600.0,650.0,4.0,,,,,,,,,magenta,flipped triangle
0.0,7.0,3.0,1.0,6.0,6.0,1120.1706010001544,4.0,1.0,phase_2,go,650.0,650.0,1.0,,,,,,,,,green,hexagon
0.0,4.0,4.0,0.0,6.0,6.0,527.4032479997004,4.0,1.0,phase_2,go,650.0,650.0,1.0,,,,,,,,,white,I
0.0,3.0,3.0,0.0,6.0,6.0,422.8644579998217,4.0,1.0,phase_2,go,650.0,650.0,1.0,,,,,,,,,gray,cross
0.0,8.0,4.0,1.0,6.0,0.0,0.0,4.0,1.0,phase_2,stop,650.0,650.0,4.0,,,,,,,,,magenta,flipped triangle
0.0,8.0,4.0,1.0,5.0,0.0,0.0,4.0,1.0,phase_2,stop,650.0,700.0,4.0,,,,,,,,,magenta,flipped triangle
0.0,1.0,1.0,0.0,6.0,6.0,476.9294460002129,4.0,1.0,phase_2,go,700.0,700.0,1.0,,,,,,,,,cyan,triangle
0.0,6.0,2.0,1.0,5.0,5.0,612.1238270002323,4.0,1.0,phase_2,go,700.0,700.0,1.0,,,,,,,,,blue,diamond
0.0,8.0,4.0,1.0,5.0,5.0,987.6428500001566,4.0,1.0,phase_2,go,700.0,700.0,1.0,,,,,,,,,magenta,flipped triangle
0.0,2.0,2.0,0.0,6.0,6.0,699.007793000419,4.0,1.0,phase_2,go,700.0,700.0,1.0,,,,,,,,,orange,square
0.0,2.0,2.0,0.0,6.0,6.0,306.2908160000006,4.0,1.0,phase_2,go,700.0,700.0,1.0,,,,,,,,,orange,square
0.0,2.0,2.0,0.0,6.0,6.0,305.766450000192,4.0,1.0,phase_2,go,700.0,700.0,1.0,,,,,,,,,orange,square
0.0,7.0,3.0,1.0,5.0,5.0,719.3294409998998,4.0,1.0,phase_2,stop,700.0,700.0,3.0,,,,,,,,,green,hexagon
0.0,4.0,4.0,0.0,6.0,6.0,504.4820930002061,4.0,1.0,phase_2,go,650.0,700.0,1.0,,,,,,,,,white,I
0.0,7.0,3.0,1.0,6.0,0.0,0.0,4.0,1.0,phase_2,stop,650.0,700.0,4.0,,,,,,,,,green,hexagon
0.0,1.0,1.0,0.0,5.0,5.0,583.212141000331,4.0,1.0,phase_2,go,650.0,750.0,1.0,,,,,,,,,cyan,triangle
0.0,2.0,2.0,0.0,5.0,5.0,448.4142870001051,4.0,1.0,phase_2,go,650.0,750.0,1.0,,,,,,,,,orange,square
0.0,6.0,2.0,1.0,5.0,0.0,0.0,4.0,1.0,phase_2,stop,650.0,750.0,4.0,,,,,,,,,blue,diamond
0.0,1.0,1.0,0.0,6.0,6.0,492.6112030002514,4.0,1.0,phase_2,go,700.0,750.0,1.0,,,,,,,,,cyan,triangle
0.0,1.0,1.0,0.0,6.0,6.0,396.0645420002038,4.0,1.0,phase_2,go,700.0,750.0,1.0,,,,,,,,,cyan,triangle
0.0,8.0,4.0,1.0,6.0,0.0,0.0,4.0,1.0,phase_2,stop,700.0,750.0,4.0,,,,,,,,,magenta,flipped triangle
0.0,5.0,1.0,1.0,6.0,6.0,611.5012330001264,4.0,1.0,phase_2,stop,700.0,800.0,3.0,,,,,,,,,yellow,circle
0.0,3.0,3.0,0.0,5.0,5.0,507.72644699964076,4.0,1.0,phase_2,go,700.0,750.0,1.0,,,,,,,,,gray,cross
0.0,5.0,1.0,1.0,5.0,5.0,981.5118080000502,5.0,1.0,phase_2,go,700.0,750.0,1.0,,,,,,,,,yellow,circle
0.0,2.0,2.0,0.0,5.0,5.0,500.9037680001711,5.0,1.0,phase_2,go,700.0,750.0,1.0,,,,,,,,,orange,square
0.0,7.0,3.0,1.0,6.0,6.0,949.3863379998402,5.0,1.0,phase_2,go,700.0,750.0,1.0,,,,,,,,,green,hexagon
0.0,6.0,2.0,1.0,6.0,0.0,0.0,5.0,1.0,phase_2,stop,700.0,750.0,4.0,,,,,,,,,blue,diamond
0.0,6.0,2.0,1.0,6.0,6.0,1098.7460860001192,5.0,1.0,phase_2,go,700.0,800.0,1.0,,,,,,,,,blue,diamond
0.0,3.0,3.0,0.0,6.0,6.0,394.224554000175,5.0,1.0,phase_2,go,700.0,800.0,1.0,,,,,,,,,gray,cross
0.0,2.0,2.0,0.0,6.0,6.0,345.7199169997693,5.0,1.0,phase_2,go,700.0,800.0,1.0,,,,,,,,,orange,square
0.0,7.0,3.0,1.0,5.0,0.0,0.0,5.0,1.0,phase_2,stop,700.0,800.0,4.0,,,,,,,,,green,hexagon
0.0,6.0,2.0,1.0,6.0,6.0,713.0358059998798,5.0,1.0,phase_2,stop,750.0,800.0,3.0,,,,,,,,,blue,diamond
0.0,7.0,3.0,1.0,6.0,6.0,985.8688640001674,5.0,1.0,phase_2,go,750.0,750.0,1.0,,,,,,,,,green,hexagon
0.0,3.0,3.0,0.0,5.0,5.0,470.3602580002552,5.0,1.0,phase_2,go,750.0,750.0,1.0,,,,,,,,,gray,cross
0.0,4.0,4.0,0.0,5.0,5.0,351.9216069998947,5.0,1.0,phase_2,go,750.0,750.0,1.0,,,,,,,,,white,I
0.0,7.0,3.0,1.0,6.0,0.0,0.0,5.0,1.0,phase_2,stop,750.0,750.0,4.0,,,,,,,,,green,hexagon
0.0,7.0,3.0,1.0,5.0,0.0,0.0,5.0,1.0,phase_2,stop,750.0,800.0,4.0,,,,,,,,,green,hexagon
0.0,3.0,3.0,0.0,5.0,5.0,518.9766179996695,5.0,1.0,phase_2,go,800.0,800.0,1.0,,,,,,,,,gray,cross
0.0,3.0,3.0,0.0,5.0,5.0,324.2144529999677,5.0,1.0,phase_2,go,800.0,800.0,1.0,,,,,,,,,gray,cross
0.0,6.0,2.0,1.0,6.0,0.0,0.0,5.0,1.0,phase_2,stop,800.0,800.0,4.0,,,,,,,,,blue,diamond
0.0,2.0,2.0,0.0,5.0,5.0,988.0076199997349,5.0,1.0,phase_2,go,800.0,850.0,1.0,,,,,,,,,orange,square
0.0,3.0,3.0,0.0,5.0,5.0,483.7926099999095,5.0,1.0,phase_2,go,800.0,850.0,1.0,,,,,,,,,gray,cross
0.0,4.0,4.0,0.0,6.0,6.0,355.8686010001111,5.0,1.0,phase_2,go,800.0,850.0,1.0,,,,,,,,,white,I
0.0,7.0,3.0,1.0,5.0,5.0,944.9174350002068,5.0,1.0,phase_2,stop,800.0,850.0,3.0,,,,,,,,,green,hexagon
0.0,3.0,3.0,0.0,5.0,5.0,576.2566369999149,5.0,1.0,phase_2,go,750.0,850.0,1.0,,,,,,,,,gray,cross
0.0,1.0,1.0,0.0,6.0,6.0,367.4572750001061,5.0,1.0,phase_2,go,750.0,850.0,1.0,,,,,,,,,cyan,triangle
0.0,4.0,4.0,0.0,6.0,6.0,327.2157090000291,5.0,1.0,phase_2,go,750.0,850.0,1.0,,,,,,,,,white,I
0.0,2.0,2.0,0.0,6.0,6.0,358.4061829997154,5.0,1.0,phase_2,go,750.0,850.0,1.0,,,,,,,,,orange,square
0.0,7.0,3.0,1.0,6.0,6.0,349.8757809998096,5.0,1.0,phase_2,stop,750.0,850.0,3.0,,,,,,,,,green,hexagon
0.0,3.0,3.0,0.0,6.0,6.0,438.5505560003366,5.0,1.0,phase_2,go,750.0,800.0,1.0,,,,,,,,,gray,cross
0.0,2.0,2.0,0.0,5.0,5.0,501.9073230000686,5.0,1.0,phase_2,go,750.0,800.0,1.0,,,,,,,,,orange,square
0.0,2.0,2.0,0.0,5.0,5.0,341.6857930001242,5.0,1.0,phase_2,go,750.0,800.0,1.0,,,,,,,,,orange,square
0.0,6.0,2.0,1.0,5.0,0.0,0.0,5.0,1.0,phase_2,stop,750.0,800.0,4.0,,,,,,,,,blue,diamond
0.0,4.0,4.0,0.0,6.0,6.0,436.4848929999425,5.0,1.0,phase_2,go,800.0,800.0,1.0,,,,,,,,,white,I
0.0,8.0,4.0,1.0,6.0,6.0,906.9372459998704,5.0,1.0,phase_2,stop,800.0,800.0,3.0,,,,,,,,,magenta,flipped triangle
0.0,3.0,3.0,0.0,5.0,5.0,426.4457649996984,5.0,1.0,phase_2,go,800.0,750.0,1.0,,,,,,,,,gray,cross
0.0,7.0,3.0,1.0,6.0,0.0,0.0,5.0,1.0,phase_2,stop,800.0,750.0,4.0,,,,,,,,,green,hexagon
0.0,4.0,4.0,0.0,5.0,5.0,425.9251759999642,5.0,1.0,phase_2,go,800.0,800.0,1.0,,,,,,,,,white,I
0.0,6.0,2.0,1.0,6.0,0.0,0.0,5.0,1.0,phase_2,stop,800.0,800.0,4.0,,,,,,,,,blue,diamond
0.0,2.0,2.0,0.0,6.0,6.0,617.7647960003014,6.0,1.0,phase_2,go,800.0,850.0,1.0,,,,,,,,,orange,square
0.0,3.0,3.0,0.0,5.0,5.0,377.4371529998461,6.0,1.0,phase_2,go,800.0,850.0,1.0,,,,,,,,,gray,cross
0.0,5.0,1.0,1.0,6.0,0.0,0.0,6.0,1.0,phase_2,stop,800.0,850.0,4.0,,,,,,,,,yellow,circle
0.0,3.0,3.0,0.0,6.0,6.0,432.3880910001207,6.0,1.0,phase_2,go,800.0,900.0,1.0,,,,,,,,,gray,cross
0.0,5.0,1.0,1.0,6.0,0.0,0.0,6.0,1.0,phase_2,stop,800.0,900.0,4.0,,,,,,,,,yellow,circle
0.0,3.0,3.0,0.0,6.0,6.0,352.1111779996317,6.0,1.0,phase_2,go,800.0,950.0,1.0,,,,,,,,,gray,cross
0.0,6.0,2.0,1.0,5.0,5.0,327.4847349998708,6.0,1.0,phase_2,stop,800.0,950.0,3.0,,,,,,,,,blue,diamond
0.0,7.0,3.0,1.0,6.0,6.0,357.5233569999909,6.0,1.0,phase_2,go,750.0,950.0,1.0,,,,,,,,,green,hexagon
0.0,2.0,2.0,0.0,5.0,5.0,598.4215980001863,6.0,1.0,phase_2,go,750.0,950.0,1.0,,,,,,,,,orange,square
0.0,7.0,3.0,1.0,5.0,5.0,1270.0127829998564,6.0,1.0,phase_2,go,750.0,950.0,1.0,,,,,,,,,green,hexagon
0.0,5.0,1.0,1.0,6.0,6.0,1276.4973769999417,6.0,1.0,phase_2,go,750.0,950.0,1.0,,,,,,,,,yellow,circle
0.0,7.0,3.0,1.0,5.0,5.0,796.06620200002,6.0,1.0,phase_2,stop,750.0,950.0,3.0,,,,,,,,,green,hexagon
0.0,6.0,2.0,1.0,6.0,0.0,0.0,6.0,1.0,phase_2,stop,700.0,950.0,4.0,,,,,,,,,blue,diamond
0.0,7.0,3.0,1.0,5.0,0.0,0.0,6.0,1.0,phase_2,stop,700.0,1000.0,4.0,,,,,,,,,green,hexagon
0.0,4.0,4.0,0.0,6.0,6.0,338.412449000316,6.0,1.0,phase_2,go,750.0,1000.0,1.0,,,,,,,,,white,I
0.0,2.0,2.0,0.0,5.0,5.0,618.4643550000146,6.0,1.0,phase_2,go,750.0,1000.0,1.0,,,,,,,,,orange,square
0.0,5.0,1.0,1.0,5.0,0.0,0.0,6.0,1.0,phase_2,stop,750.0,1000.0,4.0,,,,,,,,,yellow,circle
0.0,4.0,4.0,0.0,5.0,5.0,503.93827400012015,6.0,1.0,phase_2,go,800.0,1000.0,1.0,,,,,,,,,white,I
0.0,1.0,1.0,0.0,6.0,6.0,544.981722999637,6.0,1.0,phase_2,go,800.0,1000.0,1.0,,,,,,,,,cyan,triangle
0.0,6.0,2.0,1.0,5.0,0.0,0.0,6.0,1.0,phase_2,stop,800.0,1000.0,4.0,,,,,,,,,blue,diamond
0.0,2.0,2.0,0.0,5.0,5.0,469.3721359999472,6.0,1.0,phase_2,go,850.0,1000.0,1.0,,,,,,,,,orange,square
0.0,2.0,2.0,0.0,6.0,6.0,324.719320999975,6.0,1.0,phase_2,go,850.0,1000.0,1.0,,,,,,,,,orange,square
0.0,5.0,1.0,1.0,6.0,6.0,1165.2273469999272,6.0,1.0,phase_2,stop,850.0,1000.0,3.0,,,,,,,,,yellow,circle
0.0,1.0,1.0,0.0,6.0,6.0,507.05931899983625,6.0,1.0,phase_2,go,850.0,950.0,1.0,,,,,,,,,cyan,triangle
0.0,4.0,4.0,0.0,6.0,6.0,443.1842509998205,6.0,1.0,phase_2,go,850.0,950.0,1.0,,,,,,,,,white,I
0.0,2.0,2.0,0.0,5.0,5.0,410.6391850000364,6.0,1.0,phase_2,go,850.0,950.0,1.0,,,,,,,,,orange,square
0.0,2.0,2.0,0.0,6.0,6.0,435.2781520001372,6.0,1.0,phase_2,go,850.0,950.0,1.0,,,,,,,,,orange,square
0.0,8.0,4.0,1.0,6.0,0.0,0.0,6.0,1.0,phase_2,stop,850.0,950.0,4.0,,,,,,,,,magenta,flipped triangle
0.0,1.0,1.0,0.0,6.0,6.0,546.0315790001005,6.0,1.0,phase_2,go,850.0,1000.0,1.0,,,,,,,,,cyan,triangle
0.0,3.0,3.0,0.0,5.0,5.0,376.2047049999637,6.0,1.0,phase_2,go,850.0,1000.0,1.0,,,,,,,,,gray,cross
0.0,7.0,3.0,1.0,5.0,0.0,0.0,6.0,1.0,phase_2,stop,850.0,1000.0,4.0,,,,,,,,,green,hexagon
0.0,2.0,2.0,0.0,5.0,5.0,494.7696240001278,6.0,1.0,phase_2,go,900.0,1000.0,1.0,,,,,,,,,orange,square
0.0,8.0,4.0,1.0,5.0,0.0,0.0,6.0,1.0,phase_2,go,900.0,1000.0,5.0,,,,,,,,,magenta,flipped triangle
0.0,8.0,4.0,1.0,5.0,5.0,455.5829139999332,6.0,1.0,phase_2,stop,900.0,1000.0,3.0,,,,,,,,,magenta,flipped triangle
0.0,2.0,2.0,0.0,5.0,5.0,596.0850120000032,6.0,1.0,phase_2,go,850.0,1000.0,1.0,,,,,,,,,orange,square
0.0,7.0,3.0,1.0,6.0,6.0,1109.5320059998812,6.0,1.0,phase_2,stop,850.0,1000.0,3.0,,,,,,,,,green,hexagon
0.0,8.0,4.0,1.0,6.0,6.0,1078.4334429999944,7.0,1.0,phase_2,go,850.0,950.0,1.0,,,,,,,,,magenta,flipped triangle
0.0,1.0,1.0,0.0,6.0,6.0,453.8736080003218,7.0,1.0,phase_2,go,850.0,950.0,1.0,,,,,,,,,cyan,triangle
0.0,2.0,2.0,0.0,6.0,6.0,411.9955930000287,7.0,1.0,phase_2,go,850.0,950.0,1.0,,,,,,,,,orange,square
0.0,7.0,3.0,1.0,5.0,5.0,972.7530589998424,7.0,1.0,phase_2,stop,850.0,950.0,3.0,,,,,,,,,green,hexagon
0.0,7.0,3.0,1.0,6.0,6.0,974.8054910000974,7.0,1.0,phase_2,stop,800.0,950.0,3.0,,,,,,,,,green,hexagon
0.0,8.0,4.0,1.0,5.0,0.0,0.0,7.0,1.0,phase_2,stop,800.0,900.0,4.0,,,,,,,,,magenta,flipped triangle
0.0,6.0,2.0,1.0,6.0,6.0,1241.5162100000998,7.0,1.0,phase_2,go,850.0,900.0,1.0,,,,,,,,,blue,diamond
0.0,2.0,2.0,0.0,6.0,6.0,378.447228999903,7.0,1.0,phase_2,go,850.0,900.0,1.0,,,,,,,,,orange,square
0.0,6.0,2.0,1.0,5.0,0.0,0.0,7.0,1.0,phase_2,stop,850.0,900.0,4.0,,,,,,,,,blue,diamond
0.0,5.0,1.0,1.0,5.0,5.0,1294.6837320000668,7.0,1.0,phase_2,go,900.0,900.0,1.0,,,,,,,,,yellow,circle
0.0,5.0,1.0,1.0,6.0,0.0,0.0,7.0,1.0,phase_2,stop,900.0,900.0,4.0,,,,,,,,,yellow,circle
0.0,4.0,4.0,0.0,5.0,5.0,440.2782940001088,7.0,1.0,phase_2,go,900.0,950.0,1.0,,,,,,,,,white,I
0.0,8.0,4.0,1.0,5.0,5.0,1197.887594000349,7.0,1.0,phase_2,go,900.0,950.0,1.0,,,,,,,,,magenta,flipped triangle
0.0,1.0,1.0,0.0,5.0,5.0,558.9618019998852,7.0,1.0,phase_2,go,900.0,950.0,1.0,,,,,,,,,cyan,triangle
0.0,4.0,4.0,0.0,5.0,5.0,373.9790009999524,7.0,1.0,phase_2,go,900.0,950.0,1.0,,,,,,,,,white,I
0.0,5.0,1.0,1.0,5.0,0.0,0.0,7.0,1.0,phase_2,stop,900.0,950.0,4.0,,,,,,,,,yellow,circle
0.0,6.0,2.0,1.0,6.0,0.0,0.0,7.0,1.0,phase_2,stop,950.0,950.0,4.0,,,,,,,,,blue,diamond
0.0,5.0,1.0,1.0,5.0,5.0,1161.8190540002615,7.0,1.0,phase_2,go,950.0,1000.0,1.0,,,,,,,,,yellow,circle
0.0,4.0,4.0,0.0,5.0,5.0,514.2083219998312,7.0,1.0,phase_2,go,950.0,1000.0,1.0,,,,,,,,,white,I
0.0,8.0,4.0,1.0,6.0,6.0,1154.5012269998551,7.0,1.0,phase_2,stop,950.0,1000.0,3.0,,,,,,,,,magenta,flipped triangle
0.0,7.0,3.0,1.0,5.0,5.0,498.5462310000912,7.0,1.0,phase_2,stop,950.0,950.0,3.0,,,,,,,,,green,hexagon
0.0,3.0,3.0,0.0,6.0,6.0,433.9902830001847,7.0,1.0,phase_2,go,900.0,950.0,1.0,,,,,,,,,gray,cross
0.0,7.0,3.0,1.0,6.0,6.0,439.4217370004298,7.0,1.0,phase_2,stop,900.0,950.0,3.0,,,,,,,,,green,hexagon
0.0,8.0,4.0,1.0,6.0,0.0,0.0,7.0,1.0,phase_2,stop,900.0,900.0,4.0,,,,,,,,,magenta,flipped triangle
0.0,1.0,1.0,0.0,6.0,6.0,478.5268230002657,7.0,1.0,phase_2,go,900.0,950.0,1.0,,,,,,,,,cyan,triangle
0.0,4.0,4.0,0.0,5.0,5.0,415.4853249997359,7.0,1.0,phase_2,go,900.0,950.0,1.0,,,,,,,,,white,I
0.0,7.0,3.0,1.0,5.0,0.0,0.0,7.0,1.0,phase_2,stop,900.0,950.0,4.0,,,,,,,,,green,hexagon
0.0,5.0,1.0,1.0,6.0,0.0,0.0,7.0,1.0,phase_2,stop,950.0,950.0,4.0,,,,,,,,,yellow,circle
0.0,3.0,3.0,0.0,5.0,5.0,395.1013260002582,7.0,1.0,phase_2,go,950.0,1000.0,1.0,,,,,,,,,gray,cross
0.0,2.0,2.0,0.0,5.0,5.0,458.6853300002076,7.0,1.0,phase_2,go,950.0,1000.0,1.0,,,,,,,,,orange,square
0.0,1.0,1.0,0.0,6.0,6.0,291.4120400000684,7.0,1.0,phase_2,go,950.0,1000.0,1.0,,,,,,,,,cyan,triangle
0.0,8.0,4.0,1.0,6.0,6.0,1106.0514849996252,7.0,1.0,phase_2,go,950.0,1000.0,1.0,,,,,,,,,magenta,flipped triangle
0.0,5.0,1.0,1.0,5.0,0.0,0.0,7.0,1.0,phase_2,stop,950.0,1000.0,4.0,,,,,,,,,yellow,circle
0.0,7.0,3.0,1.0,6.0,0.0,0.0,7.0,1.0,phase_2,stop,1000.0,1000.0,4.0,,,,,,,,,green,hexagon
0.0,4.0,4.0,0.0,6.0,6.0,471.9434769999679,7.0,1.0,phase_2,go,1000.0,1050.0,1.0,,,,,,,,,white,I
0.0,8.0,4.0,1.0,5.0,5.0,1144.060626999817,7.0,1.0,phase_2,go,1000.0,1050.0,1.0,,,,,,,,,magenta,flipped triangle
0.0,1.0,1.0,0.0,5.0,5.0,480.1254530002552,8.0,1.0,phase_2,go,1000.0,1050.0,1.0,,,,,,,,,cyan,triangle
0.0,3.0,3.0,0.0,6.0,6.0,359.2149579999386,8.0,1.0,phase_2,go,1000.0,1050.0,1.0,,,,,,,,,gray,cross
0.0,5.0,1.0,1.0,6.0,6.0,1113.0978179999147,8.0,1.0,phase_2,stop,1000.0,1050.0,3.0,,,,,,,,,yellow,circle
0.0,3.0,3.0,0.0,6.0,6.0,663.4286089997659,8.0,1.0,phase_2,go,1000.0,1000.0,1.0,,,,,,,,,gray,cross
0.0,3.0,3.0,0.0,6.0,6.0,325.1823020000302,8.0,1.0,phase_2,go,1000.0,1000.0,1.0,,,,,,,,,gray,cross
0.0,7.0,3.0,1.0,5.0,5.0,1006.5357859998585,8.0,1.0,phase_2,go,1000.0,1000.0,1.0,,,,,,,,,green,hexagon
0.0,4.0,4.0,0.0,6.0,6.0,365.8080479999626,8.0,1.0,phase_2,go,1000.0,1000.0,1.0,,,,,,,,,white,I
0.0,5.0,1.0,1.0,6.0,6.0,931.397878000098,8.0,1.0,phase_2,stop,1000.0,1000.0,3.0,,,,,,,,,yellow,circle
0.0,3.0,3.0,0.0,5.0,5.0,396.4382150002166,8.0,1.0,phase_2,go,1000.0,950.0,1.0,,,,,,,,,gray,cross
0.0,2.0,2.0,0.0,5.0,5.0,378.4809279995897,8.0,1.0,phase_2,go,1000.0,950.0,1.0,,,,,,,,,orange,square
0.0,4.0,4.0,0.0,5.0,5.0,330.0271570001314,8.0,1.0,phase_2,go,1000.0,950.0,1.0,,,,,,,,,white,I
0.0,8.0,4.0,1.0,5.0,5.0,337.4488599997676,8.0,1.0,phase_2,stop,1000.0,950.0,3.0,,,,,,,,,magenta,flipped triangle
0.0,5.0,1.0,1.0,6.0,0.0,0.0,8.0,1.0,phase_2,stop,950.0,950.0,4.0,,,,,,,,,yellow,circle
0.0,2.0,2.0,0.0,5.0,5.0,454.9825489998511,8.0,1.0,phase_2,go,950.0,1000.0,1.0,,,,,,,,,orange,square
0.0,6.0,2.0,1.0,6.0,6.0,1200.9392039999511,8.0,1.0,phase_2,go,950.0,1000.0,1.0,,,,,,,,,blue,diamond
0.0,4.0,4.0,0.0,6.0,6.0,422.6433539997742,8.0,1.0,phase_2,go,950.0,1000.0,1.0,,,,,,,,,white,I
0.0,6.0,2.0,1.0,5.0,5.0,934.7625060004248,8.0,1.0,phase_2,stop,950.0,1000.0,3.0,,,,,,,,,blue,diamond
0.0,1.0,1.0,0.0,5.0,5.0,527.3780600000464,8.0,1.0,phase_2,go,900.0,1000.0,1.0,,,,,,,,,cyan,triangle
0.0,1.0,1.0,0.0,5.0,5.0,358.4441180000794,8.0,1.0,phase_2,go,900.0,1000.0,1.0,,,,,,,,,cyan,triangle
0.0,5.0,1.0,1.0,5.0,5.0,333.6118339998393,8.0,1.0,phase_2,stop,900.0,1000.0,3.0,,,,,,,,,yellow,circle
0.0,8.0,4.0,1.0,6.0,0.0,0.0,8.0,1.0,phase_2,stop,850.0,1000.0,4.0,,,,,,,,,magenta,flipped triangle
0.0,6.0,2.0,1.0,5.0,5.0,1450.739426000382,8.0,1.0,phase_2,go,850.0,1050.0,1.0,,,,,,,,,blue,diamond
0.0,8.0,4.0,1.0,6.0,6.0,1137.719455000024,8.0,1.0,phase_2,stop,850.0,1050.0,3.0,,,,,,,,,magenta,flipped triangle
0.0,1.0,1.0,0.0,5.0,5.0,449.0554710000651,8.0,1.0,phase_2,go,850.0,1000.0,1.0,,,,,,,,,cyan,triangle
0.0,3.0,3.0,0.0,5.0,5.0,344.7449079999387,8.0,1.0,phase_2,go,850.0,1000.0,1.0,,,,,,,,,gray,cross
0.0,6.0,2.0,1.0,5.0,0.0,0.0,8.0,1.0,phase_2,stop,850.0,1000.0,4.0,,,,,,,,,blue,diamond
0.0,1.0,1.0,0.0,5.0,5.0,577.9392280001048,8.0,1.0,phase_2,go,900.0,1000.0,1.0,,,,,,,,,cyan,triangle
0.0,8.0,4.0,1.0,5.0,0.0,0.0,8.0,1.0,phase_2,stop,900.0,1000.0,4.0,,,,,,,,,magenta,flipped triangle
0.0,1.0,1.0,0.0,5.0,5.0,470.9431799997219,8.0,1.0,phase_2,go,950.0,1000.0,1.0,,,,,,,,,cyan,triangle
0.0,2.0,2.0,0.0,5.0,5.0,373.90704299969,8.0,1.0,phase_2,go,950.0,1000.0,1.0,,,,,,,,,orange,square
0.0,3.0,3.0,0.0,6.0,6.0,365.4380439998022,8.0,1.0,phase_2,go,950.0,1000.0,1.0,,,,,,,,,gray,cross
0.0,4.0,4.0,0.0,5.0,5.0,381.0450609998952,8.0,1.0,phase_2,go,950.0,1000.0,1.0,,,,,,,,,white,I
0.0,6.0,2.0,1.0,5.0,5.0,973.2039099999384,8.0,1.0,phase_2,stop,950.0,1000.0,3.0,,,,,,,,,blue,diamond
0.0,1.0,1.0,0.0,6.0,6.0,419.5426380001663,8.0,1.0,phase_2,go,900.0,1000.0,1.0,,,,,,,,,cyan,triangle
0.0,8.0,4.0,1.0,5.0,0.0,0.0,8.0,1.0,phase_2,stop,900.0,1000.0,4.0,,,,,,,,,magenta,flipped triangle
0.0,8.0,4.0,1.0,5.0,5.0,969.6796739999628,8.0,1.0,phase_2,stop,950.0,1000.0,3.0,,,,,,,,,magenta,flipped triangle
0.0,1.0,1.0,0.0,7.0,6.0,3747.5612739999633,1.0,1.0,phase_3,,,,,135.0,1.0,405.0,270.0,810.0,675.0,540.0,135.0,cyan,triangle
0.0,1.0,1.0,0.0,7.0,2.0,3583.366761000434,1.0,2.0,phase_3,,,,,960.0,5.0,1152.0,960.0,192.0,576.0,384.0,768.0,cyan,triangle
0.0,7.0,3.0,1.0,7.0,1.0,2207.337243999973,1.0,1.0,phase_3,,,,,696.0,6.0,696.0,232.0,348.0,464.0,580.0,116.0,green,hexagon
0.0,1.0,1.0,0.0,7.0,1.0,3602.883121000559,1.0,1.0,phase_3,,,,,924.0,6.0,924.0,154.0,462.0,770.0,308.0,616.0,cyan,triangle
0.0,6.0,2.0,1.0,7.0,5.0,3865.146307000032,1.0,1.0,phase_3,,,,,1038.0,6.0,346.0,173.0,519.0,692.0,1038.0,865.0,blue,diamond
0.0,2.0,2.0,0.0,7.0,2.0,3554.638523999529,1.0,1.0,phase_3,,,,,692.0,4.0,519.0,692.0,1038.0,865.0,173.0,346.0,orange,square
0.0,7.0,3.0,1.0,7.0,5.0,2990.596106999874,1.0,1.0,phase_3,,,,,692.0,4.0,346.0,1038.0,173.0,865.0,692.0,519.0,green,hexagon
0.0,8.0,4.0,1.0,7.0,1.0,3438.416864999453,1.0,1.0,phase_3,,,,,810.0,6.0,810.0,135.0,540.0,270.0,675.0,405.0,magenta,flipped triangle
0.0,5.0,1.0,1.0,7.0,5.0,2432.850516999679,1.0,1.0,phase_3,,,,,173.0,1.0,692.0,346.0,1038.0,865.0,173.0,519.0,yellow,circle
0.0,6.0,2.0,1.0,7.0,1.0,2498.5045379999065,1.0,1.0,phase_3,,,,,348.0,3.0,348.0,116.0,464.0,580.0,696.0,232.0,blue,diamond
0.0,4.0,4.0,0.0,7.0,1.0,2186.0573800004204,1.0,1.0,phase_3,,,,,924.0,6.0,924.0,154.0,770.0,616.0,462.0,308.0,white,I
0.0,8.0,4.0,1.0,7.0,6.0,2077.0754510003826,1.0,1.0,phase_3,,,,,1038.0,6.0,692.0,519.0,865.0,346.0,173.0,1038.0,magenta,flipped triangle
0.0,2.0,2.0,0.0,7.0,4.0,2476.015205999829,1.0,2.0,phase_3,,,,,462.0,3.0,616.0,770.0,154.0,462.0,924.0,308.0,orange,square
0.0,3.0,3.0,0.0,7.0,2.0,4990.66367299929,1.0,1.0,phase_3,,,,,768.0,4.0,960.0,768.0,192.0,1152.0,576.0,384.0,gray,cross
0.0,7.0,3.0,1.0,7.0,4.0,2125.1303330000155,1.0,1.0,phase_3,,,,,616.0,4.0,462.0,770.0,154.0,616.0,924.0,308.0,green,hexagon
0.0,8.0,4.0,1.0,7.0,6.0,2836.9569399992542,1.0,1.0,phase_3,,,,,924.0,6.0,616.0,154.0,462.0,770.0,308.0,924.0,magenta,flipped triangle
0.0,7.0,3.0,1.0,7.0,3.0,1685.877243000505,1.0,1.0,phase_3,,,,,616.0,4.0,308.0,770.0,616.0,924.0,462.0,154.0,green,hexagon
0.0,7.0,3.0,1.0,7.0,1.0,2431.5703940001185,1.0,1.0,phase_3,,,,,692.0,4.0,692.0,1038.0,865.0,346.0,519.0,173.0,green,hexagon
0.0,3.0,3.0,0.0,7.0,1.0,2211.251210000228,1.0,1.0,phase_3,,,,,696.0,6.0,696.0,464.0,116.0,580.0,232.0,348.0,gray,cross
0.0,5.0,1.0,1.0,7.0,1.0,2345.610349000708,1.0,1.0,phase_3,,,,,116.0,1.0,116.0,696.0,232.0,464.0,348.0,580.0,yellow,circle
0.0,8.0,4.0,1.0,7.0,4.0,1454.4715869997162,2.0,1.0,phase_3,,,,,1152.0,6.0,576.0,384.0,768.0,1152.0,192.0,960.0,magenta,flipped triangle
0.0,4.0,4.0,0.0,7.0,4.0,3230.4180860001,2.0,1.0,phase_3,,,,,696.0,6.0,232.0,464.0,116.0,696.0,348.0,580.0,white,I
0.0,3.0,3.0,0.0,7.0,4.0,2062.90443800026,2.0,1.0,phase_3,,,,,675.0,5.0,810.0,405.0,270.0,675.0,540.0,135.0,gray,cross
0.0,8.0,4.0,1.0,7.0,5.0,2448.0990199999724,2.0,1.0,phase_3,,,,,924.0,6.0,154.0,616.0,462.0,770.0,924.0,308.0,magenta,flipped triangle
0.0,3.0,3.0,0.0,7.0,1.0,2064.663096000004,2.0,1.0,phase_3,,,,,616.0,4.0,616.0,924.0,154.0,462.0,308.0,770.0,gray,cross
0.0,5.0,1.0,1.0,7.0,5.0,2036.1424820002867,2.0,1.0,phase_3,,,,,135.0,1.0,810.0,405.0,675.0,270.0,135.0,540.0,yellow,circle
0.0,6.0,2.0,1.0,7.0,2.0,4110.463695000362,2.0,1.0,phase_3,,,,,384.0,2.0,1152.0,384.0,960.0,768.0,576.0,192.0,blue,diamond
0.0,1.0,1.0,0.0,7.0,1.0,974.2137940002068,2.0,1.0,phase_3,,,,,154.0,1.0,154.0,308.0,770.0,616.0,924.0,462.0,cyan,triangle
0.0,1.0,1.0,0.0,7.0,2.0,2872.761786999945,2.0,1.0,phase_3,,,,,135.0,1.0,675.0,135.0,540.0,810.0,405.0,270.0,cyan,triangle
0.0,1.0,1.0,0.0,7.0,5.0,1552.1196909994617,2.0,1.0,phase_3,,,,,116.0,1.0,580.0,232.0,464.0,696.0,116.0,348.0,cyan,triangle
0.0,7.0,3.0,1.0,7.0,4.0,4890.656331000173,2.0,1.0,phase_3,,,,,768.0,4.0,192.0,1152.0,960.0,768.0,576.0,384.0,green,hexagon
0.0,5.0,1.0,1.0,7.0,6.0,2212.0644520000496,2.0,1.0,phase_3,,,,,154.0,1.0,616.0,308.0,462.0,770.0,924.0,154.0,yellow,circle
0.0,3.0,3.0,0.0,7.0,1.0,2088.0011270000978,2.0,1.0,phase_3,,,,,692.0,4.0,692.0,519.0,1038.0,346.0,865.0,173.0,gray,cross
0.0,4.0,4.0,0.0,7.0,5.0,2960.978456000703,2.0,1.0,phase_3,,,,,810.0,6.0,270.0,675.0,135.0,540.0,810.0,405.0,white,I
0.0,4.0,4.0,0.0,7.0,4.0,2458.1677670003046,2.0,1.0,phase_3,,,,,1038.0,6.0,173.0,865.0,346.0,1038.0,519.0,692.0,white,I
0.0,4.0,4.0,0.0,7.0,2.0,1683.7802749996629,2.0,1.0,phase_3,,,,,1152.0,6.0,768.0,1152.0,384.0,960.0,576.0,192.0,white,I
0.0,8.0,4.0,1.0,7.0,1.0,3513.683778000086,2.0,1.0,phase_3,,,,,696.0,6.0,696.0,116.0,580.0,232.0,464.0,348.0,magenta,flipped triangle
0.0,2.0,2.0,0.0,7.0,4.0,1628.5575800002334,2.0,1.0,phase_3,,,,,348.0,3.0,232.0,116.0,580.0,348.0,696.0,464.0,orange,square
0.0,6.0,2.0,1.0,7.0,3.0,2054.9446819995865,2.0,1.0,phase_3,,,,,308.0,2.0,770.0,924.0,308.0,616.0,462.0,154.0,blue,diamond
0.0,5.0,1.0,1.0,7.0,1.0,1543.192304000513,2.0,1.0,phase_3,,,,,135.0,1.0,135.0,675.0,540.0,270.0,405.0,810.0,yellow,circle
0.0,3.0,3.0,0.0,7.0,2.0,1605.9947989997454,3.0,1.0,phase_3,,,,,616.0,4.0,308.0,616.0,154.0,462.0,770.0,924.0,gray,cross
0.0,2.0,2.0,0.0,7.0,4.0,1391.90594000047,3.0,1.0,phase_3,,,,,308.0,2.0,462.0,924.0,616.0,308.0,770.0,154.0,orange,square
0.0,2.0,2.0,0.0,7.0,3.0,3007.0052289993328,3.0,1.0,phase_3,,,,,270.0,2.0,675.0,540.0,270.0,810.0,135.0,405.0,orange,square
0.0,5.0,1.0,1.0,7.0,5.0,1848.1397719997403,3.0,1.0,phase_3,,,,,154.0,1.0,462.0,308.0,616.0,770.0,154.0,924.0,yellow,circle
0.0,7.0,3.0,1.0,7.0,3.0,1561.1230630001955,3.0,1.0,phase_3,,,,,675.0,5.0,270.0,540.0,675.0,405.0,810.0,135.0,green,hexagon
0.0,7.0,3.0,1.0,7.0,2.0,4108.785430000353,3.0,1.0,phase_3,,,,,768.0,4.0,960.0,768.0,192.0,384.0,1152.0,576.0,green,hexagon
0.0,4.0,4.0,0.0,7.0,5.0,2350.6470769998487,3.0,1.0,phase_3,,,,,1152.0,6.0,384.0,192.0,768.0,960.0,1152.0,576.0,white,I
0.0,1.0,1.0,0.0,7.0,5.0,1718.8611699994,3.0,1.0,phase_3,,,,,173.0,1.0,519.0,865.0,1038.0,346.0,173.0,692.0,cyan,triangle
0.0,6.0,2.0,1.0,7.0,5.0,1512.7764879998722,3.0,1.0,phase_3,,,,,348.0,3.0,116.0,232.0,464.0,580.0,348.0,696.0,blue,diamond
0.0,8.0,4.0,1.0,7.0,1.0,4267.061002999981,3.0,1.0,phase_3,,,,,116.0,1.0,116.0,580.0,696.0,464.0,348.0,232.0,magenta,flipped triangle
0.0,8.0,4.0,1.0,7.0,3.0,2230.9744930007582,3.0,1.0,phase_3,,,,,1038.0,6.0,865.0,346.0,1038.0,173.0,692.0,519.0,magenta,flipped triangle
0.0,5.0,1.0,1.0,7.0,3.0,1502.3552239999844,3.0,1.0,phase_3,,,,,116.0,1.0,348.0,232.0,116.0,696.0,464.0,580.0,yellow,circle
0.0,8.0,4.0,1.0,7.0,4.0,3448.573702000431,3.0,1.0,phase_3,,,,,810.0,6.0,135.0,270.0,675.0,810.0,540.0,405.0,magenta,flipped triangle
0.0,1.0,1.0,0.0,7.0,3.0,2450.409688000036,3.0,1.0,phase_3,,,,,116.0,1.0,580.0,348.0,116.0,464.0,232.0,696.0,cyan,triangle
0.0,4.0,4.0,0.0,7.0,5.0,3786.026901999321,3.0,1.0,phase_3,,,,,924.0,6.0,308.0,770.0,154.0,616.0,924.0,462.0,white,I
0.0,1.0,1.0,0.0,7.0,2.0,1900.1824450006095,3.0,1.0,phase_3,,,,,173.0,1.0,1038.0,173.0,519.0,692.0,346.0,865.0,cyan,triangle
0.0,6.0,2.0,1.0,7.0,6.0,3943.571771999814,3.0,1.0,phase_3,,,,,405.0,3.0,135.0,675.0,270.0,540.0,810.0,405.0,blue,diamond
0.0,7.0,3.0,1.0,7.0,6.0,4493.911821999973,3.0,1.0,phase_3,,,,,675.0,5.0,135.0,405.0,540.0,810.0,270.0,675.0,green,hexagon
0.0,6.0,2.0,1.0,7.0,2.0,2200.919117000012,3.0,1.0,phase_3,,,,,308.0,2.0,154.0,308.0,770.0,616.0,462.0,924.0,blue,diamond
0.0,3.0,3.0,0.0,7.0,1.0,2786.402466000254,3.0,1.0,phase_3,,,,,696.0,6.0,696.0,580.0,116.0,232.0,464.0,348.0,gray,cross
0.0,2.0,2.0,0.0,7.0,1.0,2164.768188999915,4.0,1.0,phase_3,,,,,384.0,2.0,384.0,1152.0,576.0,768.0,192.0,960.0,orange,square
0.0,2.0,2.0,0.0,7.0,2.0,1422.4916679995658,4.0,1.0,phase_3,,,,,346.0,2.0,173.0,346.0,519.0,865.0,692.0,1038.0,orange,square
0.0,3.0,3.0,0.0,7.0,5.0,2127.6134310001,4.0,1.0,phase_3,,,,,692.0,4.0,865.0,346.0,173.0,1038.0,692.0,519.0,gray,cross
0.0,2.0,2.0,0.0,7.0,3.0,4465.573106000193,4.0,1.0,phase_3,,,,,405.0,3.0,810.0,675.0,405.0,540.0,135.0,270.0,orange,square
0.0,7.0,3.0,1.0,7.0,6.0,1757.6124429997435,4.0,1.0,phase_3,,,,,696.0,6.0,116.0,232.0,348.0,464.0,580.0,696.0,green,hexagon
0.0,5.0,1.0,1.0,7.0,3.0,1221.9347830005065,4.0,1.0,phase_3,,,,,173.0,1.0,519.0,865.0,173.0,346.0,692.0,1038.0,yellow,circle
0.0,5.0,1.0,1.0,7.0,3.0,1848.6473510001813,4.0,1.0,phase_3,,,,,192.0,1.0,768.0,576.0,192.0,384.0,1152.0,960.0,yellow,circle
0.0,4.0,4.0,0.0,7.0,5.0,3111.711458000173,4.0,1.0,phase_3,,,,,696.0,6.0,580.0,232.0,464.0,348.0,696.0,116.0,white,I
0.0,2.0,2.0,0.0,7.0,2.0,3244.1186949999974,4.0,1.0,phase_3,,,,,348.0,3.0,696.0,348.0,464.0,232.0,116.0,580.0,orange,square
0.0,3.0,3.0,0.0,7.0,6.0,2189.428842999405,4.0,1.0,phase_3,,,,,675.0,5.0,135.0,405.0,270.0,540.0,810.0,675.0,gray,cross
0.0,2.0,2.0,0.0,7.0,6.0,1843.8098659999011,4.0,1.0,phase_3,,,,,384.0,2.0,1152.0,960.0,768.0,192.0,576.0,384.0,orange,square
0.0,6.0,2.0,1.0,7.0,4.0,4365.421776000403,4.0,1.0,phase_3,,,,,405.0,3.0,540.0,270.0,135.0,405.0,675.0,810.0,blue,diamond
0.0,6.0,2.0,1.0,7.0,1.0,2527.9863860005207,4.0,1.0,phase_3,,,,,384.0,2.0,384.0,768.0,1152.0,576.0,192.0,960.0,blue,diamond
0.0,8.0,4.0,1.0,7.0,1.0,1392.4425589993916,4.0,1.0,phase_3,,,,,1152.0,6.0,1152.0,768.0,576.0,384.0,960.0,192.0,magenta,flipped triangle
0.0,1.0,1.0,0.0,7.0,4.0,2362.063704999855,4.0,1.0,phase_3,,,,,192.0,1.0,384.0,960.0,576.0,192.0,768.0,1152.0,cyan,triangle
0.0,5.0,1.0,1.0,7.0,6.0,2129.7441380002056,4.0,1.0,phase_3,,,,,192.0,1.0,1152.0,576.0,768.0,960.0,384.0,192.0,yellow,circle
0.0,3.0,3.0,0.0,7.0,1.0,4346.443336999982,4.0,1.0,phase_3,,,,,768.0,4.0,768.0,1152.0,384.0,960.0,576.0,192.0,gray,cross
0.0,6.0,2.0,1.0,7.0,1.0,2315.573699000197,4.0,1.0,phase_3,,,,,346.0,2.0,346.0,173.0,1038.0,692.0,865.0,519.0,blue,diamond
0.0,4.0,4.0,0.0,7.0,1.0,1790.900074999627,4.0,1.0,phase_3,,,,,1038.0,6.0,1038.0,173.0,865.0,692.0,346.0,519.0,white,I
0.0,4.0,4.0,0.0,7.0,5.0,2496.075728000505,4.0,1.0,phase_3,,,,,810.0,6.0,540.0,270.0,135.0,675.0,810.0,405.0,white,I
