raw_reward_magnitude,stim_reward,stepwise_reward_magnitude,paired_with_stopping,stim_location,response,reaction_time,block,num_trial_presentations,which_phase,stop_signal_trial_type,left_SSD,right_SSD,accuracy,chosen_bidding_amount,chosen_bidding_level,possible_bid_1,possible_bid_2,possible_bid_3,possible_bid_4,possible_bid_5,possible_bid_6,color_text,shape_text
661.0,7.0,2.0,1.0,3.0,3.0,468.3446720000574,1.0,1.0,phase_1,,,,,,,,,,,,,orange,square
1317.0,4.0,4.0,0.0,4.0,4.0,385.5589180002425,1.0,1.0,phase_1,,,,,,,,,,,,,blue,flipped triangle
648.0,3.0,2.0,0.0,2.0,2.0,501.8703160003497,1.0,1.0,phase_1,,,,,,,,,,,,,yellow,cross
1304.0,8.0,4.0,1.0,1.0,1.0,338.0966899999293,1.0,1.0,phase_1,,,,,,,,,,,,,green,I
337.0,2.0,1.0,0.0,3.0,3.0,351.0062459999972,1.0,1.0,phase_1,,,,,,,,,,,,,white,circle
1304.0,4.0,4.0,0.0,4.0,4.0,361.8197379996672,1.0,1.0,phase_1,,,,,,,,,,,,,blue,flipped triangle
165.0,5.0,0.5,1.0,2.0,2.0,373.8278380001247,1.0,1.0,phase_1,,,,,,,,,,,,,cyan,triangle
627.0,3.0,2.0,0.0,4.0,4.0,357.259747000171,1.0,1.0,phase_1,,,,,,,,,,,,,yellow,cross
324.0,2.0,1.0,0.0,1.0,1.0,407.0069219997094,1.0,1.0,phase_1,,,,,,,,,,,,,white,circle
661.0,7.0,2.0,1.0,2.0,2.0,317.6648210001076,1.0,1.0,phase_1,,,,,,,,,,,,,orange,square
1281.0,8.0,4.0,1.0,3.0,3.0,362.7859930002159,1.0,1.0,phase_1,,,,,,,,,,,,,green,I
142.0,5.0,0.5,1.0,1.0,1.0,349.6692280000388,1.0,1.0,phase_1,,,,,,,,,,,,,cyan,triangle
172.0,5.0,0.5,1.0,2.0,2.0,584.9519749999672,1.0,1.0,phase_1,,,,,,,,,,,,,cyan,triangle
675.0,3.0,2.0,0.0,2.0,2.0,510.51947999985714,1.0,1.0,phase_1,,,,,,,,,,,,,yellow,cross
310.0,2.0,1.0,0.0,3.0,3.0,517.6488639999661,1.0,1.0,phase_1,,,,,,,,,,,,,white,circle
1301.0,4.0,4.0,0.0,4.0,4.0,538.4953980001228,1.0,1.0,phase_1,,,,,,,,,,,,,blue,flipped triangle
155.0,1.0,0.5,0.0,4.0,4.0,427.8390270001182,1.0,1.0,phase_1,,,,,,,,,,,,,magenta,diamond
187.0,1.0,0.5,0.0,4.0,4.0,433.5664889999862,1.0,1.0,phase_1,,,,,,,,,,,,,magenta,diamond
156.0,1.0,0.5,0.0,4.0,4.0,310.9518229998684,1.0,1.0,phase_1,,,,,,,,,,,,,magenta,diamond
140.0,5.0,0.5,1.0,1.0,1.0,602.4018809998779,1.0,1.0,phase_1,,,,,,,,,,,,,cyan,triangle
653.0,3.0,2.0,0.0,1.0,1.0,478.3699130002787,1.0,1.0,phase_1,,,,,,,,,,,,,yellow,cross
0.0,4.0,0.0,0.0,1.0,1.0,389.001370999722,1.0,1.0,phase_1,,,,,,,,,,,,,blue,flipped triangle
1300.0,4.0,4.0,0.0,1.0,1.0,319.5583310002803,1.0,1.0,phase_1,,,,,,,,,,,,,blue,flipped triangle
1296.0,4.0,4.0,0.0,4.0,4.0,437.9652739999073,1.0,1.0,phase_1,,,,,,,,,,,,,blue,flipped triangle
1305.0,4.0,4.0,0.0,3.0,3.0,425.5029729997659,1.0,1.0,phase_1,,,,,,,,,,,,,blue,flipped triangle
183.0,1.0,0.5,0.0,4.0,4.0,326.0508270000173,1.0,1.0,phase_1,,,,,,,,,,,,,magenta,diamond
307.0,6.0,1.0,1.0,1.0,1.0,467.282769999656,1.0,1.0,phase_1,,,,,,,,,,,,,gray,hexagon
1290.0,4.0,4.0,0.0,1.0,1.0,392.0734939997601,1.0,1.0,phase_1,,,,,,,,,,,,,blue,flipped triangle
0.0,3.0,0.0,0.0,4.0,4.0,318.695813999966,1.0,1.0,phase_1,,,,,,,,,,,,,yellow,cross
340.0,6.0,1.0,1.0,4.0,4.0,377.5574350001989,1.0,1.0,phase_1,,,,,,,,,,,,,gray,hexagon
0.0,6.0,0.0,1.0,4.0,4.0,356.8578260001231,1.0,1.0,phase_1,,,,,,,,,,,,,gray,hexagon
627.0,7.0,2.0,1.0,1.0,1.0,304.9350439996487,1.0,1.0,phase_1,,,,,,,,,,,,,orange,square
307.0,2.0,1.0,0.0,2.0,2.0,870.5257960000381,1.0,1.0,phase_1,,,,,,,,,,,,,white,circle
1304.0,8.0,4.0,1.0,2.0,2.0,458.637734000149,1.0,1.0,phase_1,,,,,,,,,,,,,green,I
1300.0,4.0,4.0,0.0,3.0,3.0,465.4074030004267,1.0,1.0,phase_1,,,,,,,,,,,,,blue,flipped triangle
654.0,3.0,2.0,0.0,4.0,4.0,398.9299509999,1.0,1.0,phase_1,,,,,,,,,,,,,yellow,cross
0.0,8.0,0.0,1.0,3.0,3.0,451.7081349999898,1.0,1.0,phase_1,,,,,,,,,,,,,green,I
1311.0,8.0,4.0,1.0,2.0,2.0,445.9966210001767,1.0,1.0,phase_1,,,,,,,,,,,,,green,I
148.0,5.0,0.5,1.0,3.0,3.0,338.1805710000662,1.0,1.0,phase_1,,,,,,,,,,,,,cyan,triangle
668.0,7.0,2.0,1.0,1.0,1.0,462.89829999977877,1.0,1.0,phase_1,,,,,,,,,,,,,orange,square
141.0,5.0,0.5,1.0,2.0,2.0,586.613447000218,1.0,1.0,phase_1,,,,,,,,,,,,,cyan,triangle
1304.0,4.0,4.0,0.0,1.0,1.0,447.3603880001064,1.0,1.0,phase_1,,,,,,,,,,,,,blue,flipped triangle
160.0,5.0,0.5,1.0,1.0,1.0,406.5544790000786,1.0,1.0,phase_1,,,,,,,,,,,,,cyan,triangle
661.0,3.0,2.0,0.0,1.0,1.0,346.6775450001478,1.0,1.0,phase_1,,,,,,,,,,,,,yellow,cross
161.0,1.0,0.5,0.0,4.0,4.0,310.5282930000612,1.0,1.0,phase_1,,,,,,,,,,,,,magenta,diamond
672.0,7.0,2.0,1.0,4.0,4.0,436.2477820000094,1.0,1.0,phase_1,,,,,,,,,,,,,orange,square
340.0,2.0,1.0,0.0,4.0,4.0,360.4416759999367,1.0,1.0,phase_1,,,,,,,,,,,,,white,circle
667.0,7.0,2.0,1.0,1.0,1.0,365.9971820002283,1.0,1.0,phase_1,,,,,,,,,,,,,orange,square
657.0,3.0,2.0,0.0,1.0,1.0,407.7664860001277,1.0,1.0,phase_1,,,,,,,,,,,,,yellow,cross
1295.0,8.0,4.0,1.0,1.0,1.0,349.0943550000338,1.0,1.0,phase_1,,,,,,,,,,,,,green,I
1276.0,4.0,4.0,0.0,3.0,3.0,482.9018129998985,1.0,1.0,phase_1,,,,,,,,,,,,,blue,flipped triangle
0.0,5.0,0.0,1.0,2.0,2.0,559.2789490001451,1.0,1.0,phase_1,,,,,,,,,,,,,cyan,triangle
315.0,6.0,1.0,1.0,4.0,4.0,363.7270630001694,1.0,1.0,phase_1,,,,,,,,,,,,,gray,hexagon
161.0,5.0,0.5,1.0,4.0,4.0,345.6640009999319,1.0,1.0,phase_1,,,,,,,,,,,,,cyan,triangle
1290.0,4.0,4.0,0.0,4.0,4.0,341.441594999651,1.0,1.0,phase_1,,,,,,,,,,,,,blue,flipped triangle
1281.0,8.0,4.0,1.0,2.0,2.0,529.9503530000038,1.0,1.0,phase_1,,,,,,,,,,,,,green,I
1307.0,8.0,4.0,1.0,2.0,2.0,429.934312000114,1.0,1.0,phase_1,,,,,,,,,,,,,green,I
0.0,6.0,0.0,1.0,2.0,2.0,411.8933609997839,1.0,1.0,phase_1,,,,,,,,,,,,,gray,hexagon
1325.0,4.0,4.0,0.0,3.0,3.0,463.1145759999526,1.0,1.0,phase_1,,,,,,,,,,,,,blue,flipped triangle
0.0,6.0,0.0,1.0,2.0,2.0,501.52122899999085,1.0,1.0,phase_1,,,,,,,,,,,,,gray,hexagon
675.0,7.0,2.0,1.0,3.0,3.0,488.1183950001286,1.0,1.0,phase_1,,,,,,,,,,,,,orange,square
652.0,7.0,2.0,1.0,3.0,3.0,293.5470059996987,1.0,1.0,phase_1,,,,,,,,,,,,,orange,square
1315.0,8.0,4.0,1.0,3.0,3.0,331.0836880000352,1.0,1.0,phase_1,,,,,,,,,,,,,green,I
350.0,2.0,1.0,0.0,2.0,2.0,685.5638460001501,1.0,1.0,phase_1,,,,,,,,,,,,,white,circle
0.0,7.0,0.0,1.0,2.0,2.0,387.3779659998035,1.0,1.0,phase_1,,,,,,,,,,,,,orange,square
0.0,4.0,0.0,0.0,1.0,1.0,544.4165409999187,1.0,1.0,phase_1,,,,,,,,,,,,,blue,flipped triangle
0.0,4.0,0.0,0.0,2.0,2.0,531.3694490000671,1.0,1.0,phase_1,,,,,,,,,,,,,blue,flipped triangle
0.0,2.0,0.0,0.0,1.0,1.0,354.2057290001139,1.0,1.0,phase_1,,,,,,,,,,,,,white,circle
0.0,6.0,0.0,1.0,2.0,2.0,348.5154499999225,1.0,1.0,phase_1,,,,,,,,,,,,,gray,hexagon
159.0,1.0,0.5,0.0,1.0,1.0,417.7679019999232,1.0,1.0,phase_1,,,,,,,,,,,,,magenta,diamond
649.0,3.0,2.0,0.0,3.0,3.0,530.4517869999472,1.0,2.0,phase_1,,,,,,,,,,,,,yellow,cross
0.0,5.0,0.0,1.0,3.0,3.0,407.1156260001771,1.0,1.0,phase_1,,,,,,,,,,,,,cyan,triangle
348.0,2.0,1.0,0.0,2.0,2.0,588.1535250000525,1.0,1.0,phase_1,,,,,,,,,,,,,white,circle
167.0,1.0,0.5,0.0,1.0,1.0,488.4515969997665,1.0,1.0,phase_1,,,,,,,,,,,,,magenta,diamond
661.0,7.0,2.0,1.0,1.0,1.0,341.2978310002472,1.0,1.0,phase_1,,,,,,,,,,,,,orange,square
309.0,6.0,1.0,1.0,4.0,4.0,714.2166169996926,1.0,1.0,phase_1,,,,,,,,,,,,,gray,hexagon
1290.0,8.0,4.0,1.0,4.0,4.0,567.0111800000086,1.0,1.0,phase_1,,,,,,,,,,,,,green,I
0.0,2.0,0.0,0.0,3.0,3.0,483.2266409998738,1.0,1.0,phase_1,,,,,,,,,,,,,white,circle
650.0,7.0,2.0,1.0,1.0,1.0,525.7458319997568,1.0,2.0,phase_1,,,,,,,,,,,,,orange,square
0.0,4.0,0.0,0.0,3.0,3.0,409.3572019996827,1.0,1.0,phase_1,,,,,,,,,,,,,blue,flipped triangle
650.0,3.0,2.0,0.0,1.0,1.0,575.633738000306,1.0,1.0,phase_1,,,,,,,,,,,,,yellow,cross
675.0,3.0,2.0,0.0,2.0,2.0,810.7728279996991,1.0,1.0,phase_1,,,,,,,,,,,,,yellow,cross
159.0,5.0,0.5,1.0,1.0,1.0,407.3867869997229,1.0,1.0,phase_1,,,,,,,,,,,,,cyan,triangle
1280.0,4.0,4.0,0.0,2.0,2.0,651.966585000082,1.0,1.0,phase_1,,,,,,,,,,,,,blue,flipped triangle
653.0,7.0,2.0,1.0,1.0,1.0,441.2445399998432,1.0,1.0,phase_1,,,,,,,,,,,,,orange,square
181.0,5.0,0.5,1.0,3.0,3.0,534.0382569997928,1.0,1.0,phase_1,,,,,,,,,,,,,cyan,triangle
631.0,3.0,2.0,0.0,2.0,2.0,970.7255700000132,1.0,1.0,phase_1,,,,,,,,,,,,,yellow,cross
348.0,2.0,1.0,0.0,3.0,3.0,559.6295370000917,1.0,1.0,phase_1,,,,,,,,,,,,,white,circle
335.0,6.0,1.0,1.0,2.0,2.0,450.8794749999651,1.0,1.0,phase_1,,,,,,,,,,,,,gray,hexagon
0.0,2.0,0.0,0.0,4.0,4.0,562.238250000064,1.0,1.0,phase_1,,,,,,,,,,,,,white,circle
163.0,1.0,0.5,0.0,3.0,3.0,420.0465600001735,1.0,1.0,phase_1,,,,,,,,,,,,,magenta,diamond
304.0,6.0,1.0,1.0,1.0,1.0,520.3124049999133,1.0,1.0,phase_1,,,,,,,,,,,,,gray,hexagon
0.0,5.0,0.0,1.0,2.0,2.0,551.7442830000618,1.0,1.0,phase_1,,,,,,,,,,,,,cyan,triangle
142.0,1.0,0.5,0.0,2.0,2.0,457.2891799998615,1.0,1.0,phase_1,,,,,,,,,,,,,magenta,diamond
0.0,7.0,0.0,1.0,1.0,1.0,605.9778580001876,1.0,1.0,phase_1,,,,,,,,,,,,,orange,square
0.0,1.0,0.0,0.0,1.0,1.0,474.9069360000248,1.0,1.0,phase_1,,,,,,,,,,,,,magenta,diamond
156.0,5.0,0.5,1.0,2.0,2.0,417.2527489999993,1.0,1.0,phase_1,,,,,,,,,,,,,cyan,triangle
0.0,1.0,0.0,0.0,4.0,4.0,436.1096799998449,1.0,1.0,phase_1,,,,,,,,,,,,,magenta,diamond
1322.0,4.0,4.0,0.0,4.0,4.0,490.1494030000322,1.0,1.0,phase_1,,,,,,,,,,,,,blue,flipped triangle
145.0,5.0,0.5,1.0,2.0,2.0,582.2665249997954,1.0,1.0,phase_1,,,,,,,,,,,,,cyan,triangle
184.0,5.0,0.5,1.0,2.0,2.0,900.5299129999003,2.0,1.0,phase_1,,,,,,,,,,,,,cyan,triangle
1321.0,4.0,4.0,0.0,4.0,4.0,519.6991329999037,2.0,1.0,phase_1,,,,,,,,,,,,,blue,flipped triangle
307.0,2.0,1.0,0.0,4.0,4.0,429.4236119999368,2.0,1.0,phase_1,,,,,,,,,,,,,white,circle
672.0,3.0,2.0,0.0,4.0,4.0,426.3281230000757,2.0,1.0,phase_1,,,,,,,,,,,,,yellow,cross
151.0,5.0,0.5,1.0,4.0,4.0,343.8133060003565,2.0,1.0,phase_1,,,,,,,,,,,,,cyan,triangle
1324.0,8.0,4.0,1.0,2.0,2.0,700.4727450002974,2.0,1.0,phase_1,,,,,,,,,,,,,green,I
0.0,5.0,0.0,1.0,2.0,2.0,456.4577940000163,2.0,1.0,phase_1,,,,,,,,,,,,,cyan,triangle
0.0,3.0,0.0,0.0,2.0,2.0,363.8459320000038,2.0,1.0,phase_1,,,,,,,,,,,,,yellow,cross
307.0,6.0,1.0,1.0,3.0,3.0,496.4613339998323,2.0,1.0,phase_1,,,,,,,,,,,,,gray,hexagon
173.0,5.0,0.5,1.0,4.0,4.0,332.7688609997494,2.0,1.0,phase_1,,,,,,,,,,,,,cyan,triangle
674.0,3.0,2.0,0.0,2.0,2.0,811.3428640003804,2.0,1.0,phase_1,,,,,,,,,,,,,yellow,cross
304.0,2.0,1.0,0.0,3.0,3.0,414.8631150001165,2.0,1.0,phase_1,,,,,,,,,,,,,white,circle
186.0,5.0,0.5,1.0,2.0,2.0,532.8968519997943,2.0,1.0,phase_1,,,,,,,,,,,,,cyan,triangle
0.0,1.0,0.0,0.0,1.0,1.0,353.7354820000473,2.0,1.0,phase_1,,,,,,,,,,,,,magenta,diamond
652.0,3.0,2.0,0.0,3.0,3.0,420.3649430000951,2.0,1.0,phase_1,,,,,,,,,,,,,yellow,cross
321.0,2.0,1.0,0.0,4.0,4.0,370.8532030000242,2.0,1.0,phase_1,,,,,,,,,,,,,white,circle
317.0,6.0,1.0,1.0,2.0,2.0,606.2018339998758,2.0,1.0,phase_1,,,,,,,,,,,,,gray,hexagon
1280.0,4.0,4.0,0.0,1.0,1.0,451.6150060003383,2.0,1.0,phase_1,,,,,,,,,,,,,blue,flipped triangle
1287.0,8.0,4.0,1.0,3.0,3.0,368.1353169999966,2.0,1.0,phase_1,,,,,,,,,,,,,green,I
0.0,4.0,0.0,0.0,2.0,2.0,635.1528560003317,2.0,1.0,phase_1,,,,,,,,,,,,,blue,flipped triangle
661.0,3.0,2.0,0.0,3.0,3.0,449.7615859995676,2.0,1.0,phase_1,,,,,,,,,,,,,yellow,cross
658.0,7.0,2.0,1.0,3.0,3.0,743.308690000049,2.0,1.0,phase_1,,,,,,,,,,,,,orange,square
1281.0,4.0,4.0,0.0,2.0,2.0,473.3699190001061,2.0,1.0,phase_1,,,,,,,,,,,,,blue,flipped triangle
0.0,7.0,0.0,1.0,2.0,2.0,549.3009359997814,2.0,1.0,phase_1,,,,,,,,,,,,,orange,square
641.0,7.0,2.0,1.0,4.0,4.0,402.1225269998467,2.0,1.0,phase_1,,,,,,,,,,,,,orange,square
0.0,3.0,0.0,0.0,1.0,1.0,647.693598999922,2.0,1.0,phase_1,,,,,,,,,,,,,yellow,cross
0.0,1.0,0.0,0.0,1.0,1.0,419.6754750000764,2.0,1.0,phase_1,,,,,,,,,,,,,magenta,diamond
1320.0,8.0,4.0,1.0,3.0,3.0,504.7274720000132,2.0,1.0,phase_1,,,,,,,,,,,,,green,I
328.0,6.0,1.0,1.0,2.0,2.0,481.4915700003439,2.0,2.0,phase_1,,,,,,,,,,,,,gray,hexagon
1300.0,8.0,4.0,1.0,4.0,4.0,486.4382719997593,2.0,1.0,phase_1,,,,,,,,,,,,,green,I
1286.0,4.0,4.0,0.0,4.0,4.0,428.1304280002587,2.0,1.0,phase_1,,,,,,,,,,,,,blue,flipped triangle
322.0,2.0,1.0,0.0,3.0,3.0,567.2127689999797,2.0,1.0,phase_1,,,,,,,,,,,,,white,circle
0.0,4.0,0.0,0.0,2.0,2.0,563.5402769999018,2.0,1.0,phase_1,,,,,,,,,,,,,blue,flipped triangle
344.0,2.0,1.0,0.0,2.0,2.0,568.1583149998914,2.0,1.0,phase_1,,,,,,,,,,,,,white,circle
647.0,7.0,2.0,1.0,1.0,1.0,589.6680699997887,2.0,1.0,phase_1,,,,,,,,,,,,,orange,square
1297.0,8.0,4.0,1.0,4.0,4.0,401.766594000037,2.0,1.0,phase_1,,,,,,,,,,,,,green,I
0.0,1.0,0.0,0.0,2.0,2.0,653.9232509999238,2.0,1.0,phase_1,,,,,,,,,,,,,magenta,diamond
627.0,7.0,2.0,1.0,4.0,4.0,986.843270999998,2.0,1.0,phase_1,,,,,,,,,,,,,orange,square
315.0,6.0,1.0,1.0,3.0,3.0,455.9498989997337,2.0,1.0,phase_1,,,,,,,,,,,,,gray,hexagon
145.0,5.0,0.5,1.0,2.0,2.0,445.3475240002262,2.0,1.0,phase_1,,,,,,,,,,,,,cyan,triangle
337.0,6.0,1.0,1.0,3.0,3.0,563.7896759999421,2.0,1.0,phase_1,,,,,,,,,,,,,gray,hexagon
142.0,5.0,0.5,1.0,3.0,3.0,447.7792889997545,2.0,1.0,phase_1,,,,,,,,,,,,,cyan,triangle
168.0,5.0,0.5,1.0,3.0,3.0,434.763071999896,2.0,1.0,phase_1,,,,,,,,,,,,,cyan,triangle
630.0,7.0,2.0,1.0,4.0,4.0,521.6389280003568,2.0,1.0,phase_1,,,,,,,,,,,,,orange,square
344.0,6.0,1.0,1.0,2.0,2.0,627.8218160000506,2.0,1.0,phase_1,,,,,,,,,,,,,gray,hexagon
0.0,3.0,0.0,0.0,2.0,2.0,536.98280899971,2.0,1.0,phase_1,,,,,,,,,,,,,yellow,cross
650.0,7.0,2.0,1.0,1.0,1.0,539.798281000003,2.0,2.0,phase_1,,,,,,,,,,,,,orange,square
644.0,3.0,2.0,0.0,3.0,3.0,534.387641000194,2.0,1.0,phase_1,,,,,,,,,,,,,yellow,cross
644.0,7.0,2.0,1.0,4.0,4.0,634.6847330000855,2.0,1.0,phase_1,,,,,,,,,,,,,orange,square
639.0,7.0,2.0,1.0,3.0,3.0,330.1509670000087,2.0,1.0,phase_1,,,,,,,,,,,,,orange,square
331.0,2.0,1.0,0.0,3.0,3.0,339.6165059998566,2.0,1.0,phase_1,,,,,,,,,,,,,white,circle
633.0,7.0,2.0,1.0,2.0,2.0,363.4204720001435,2.0,3.0,phase_1,,,,,,,,,,,,,orange,square
649.0,3.0,2.0,0.0,1.0,1.0,590.5674850000651,2.0,1.0,phase_1,,,,,,,,,,,,,yellow,cross
1318.0,4.0,4.0,0.0,1.0,1.0,508.86894099994606,2.0,1.0,phase_1,,,,,,,,,,,,,blue,flipped triangle
316.0,6.0,1.0,1.0,1.0,1.0,489.135368999996,2.0,1.0,phase_1,,,,,,,,,,,,,gray,hexagon
324.0,6.0,1.0,1.0,1.0,1.0,412.060006000047,2.0,1.0,phase_1,,,,,,,,,,,,,gray,hexagon
302.0,6.0,1.0,1.0,1.0,1.0,320.8396370000628,2.0,1.0,phase_1,,,,,,,,,,,,,gray,hexagon
0.0,3.0,0.0,0.0,1.0,1.0,446.5339159996802,2.0,1.0,phase_1,,,,,,,,,,,,,yellow,cross
0.0,1.0,0.0,0.0,4.0,4.0,528.8301280002088,2.0,1.0,phase_1,,,,,,,,,,,,,magenta,diamond
1311.0,4.0,4.0,0.0,3.0,3.0,501.6365310002584,2.0,1.0,phase_1,,,,,,,,,,,,,blue,flipped triangle
331.0,2.0,1.0,0.0,1.0,1.0,416.3859770001181,2.0,2.0,phase_1,,,,,,,,,,,,,white,circle
172.0,1.0,0.5,0.0,2.0,2.0,626.1951689998568,2.0,1.0,phase_1,,,,,,,,,,,,,magenta,diamond
0.0,7.0,0.0,1.0,2.0,2.0,361.1414980000518,2.0,1.0,phase_1,,,,,,,,,,,,,orange,square
649.0,7.0,2.0,1.0,4.0,4.0,500.2268200000799,2.0,1.0,phase_1,,,,,,,,,,,,,orange,square
0.0,2.0,0.0,0.0,1.0,1.0,893.2079840001279,2.0,2.0,phase_1,,,,,,,,,,,,,white,circle
0.0,6.0,0.0,1.0,4.0,4.0,521.8564599999809,2.0,1.0,phase_1,,,,,,,,,,,,,gray,hexagon
650.0,3.0,2.0,0.0,4.0,4.0,472.9152060003798,2.0,1.0,phase_1,,,,,,,,,,,,,yellow,cross
631.0,7.0,2.0,1.0,3.0,3.0,535.728324000047,2.0,2.0,phase_1,,,,,,,,,,,,,orange,square
630.0,3.0,2.0,0.0,1.0,1.0,900.6728970002769,2.0,1.0,phase_1,,,,,,,,,,,,,yellow,cross
635.0,7.0,2.0,1.0,2.0,2.0,665.6044410001414,2.0,1.0,phase_1,,,,,,,,,,,,,orange,square
1317.0,4.0,4.0,0.0,4.0,4.0,389.2867000004116,2.0,1.0,phase_1,,,,,,,,,,,,,blue,flipped triangle
0.0,7.0,0.0,1.0,2.0,2.0,786.335581000003,2.0,1.0,phase_1,,,,,,,,,,,,,orange,square
668.0,7.0,2.0,1.0,1.0,1.0,814.91816200014,2.0,1.0,phase_1,,,,,,,,,,,,,orange,square
1286.0,8.0,4.0,1.0,2.0,2.0,469.1375960001096,2.0,1.0,phase_1,,,,,,,,,,,,,green,I
654.0,7.0,2.0,1.0,3.0,3.0,464.3963019998409,2.0,1.0,phase_1,,,,,,,,,,,,,orange,square
142.0,1.0,0.5,0.0,3.0,3.0,430.9161809997022,2.0,1.0,phase_1,,,,,,,,,,,,,magenta,diamond
0.0,2.0,0.0,0.0,3.0,3.0,362.1384029997898,2.0,1.0,phase_1,,,,,,,,,,,,,white,circle
0.0,3.0,0.0,0.0,1.0,1.0,479.9049229995944,2.0,1.0,phase_1,,,,,,,,,,,,,yellow,cross
0.0,4.0,0.0,0.0,3.0,3.0,331.7868029998863,2.0,1.0,phase_1,,,,,,,,,,,,,blue,flipped triangle
328.0,6.0,1.0,1.0,4.0,4.0,481.3096900002165,2.0,1.0,phase_1,,,,,,,,,,,,,gray,hexagon
315.0,2.0,1.0,0.0,4.0,4.0,477.9263770001307,2.0,1.0,phase_1,,,,,,,,,,,,,white,circle
177.0,5.0,0.5,1.0,1.0,1.0,706.9734540000354,2.0,1.0,phase_1,,,,,,,,,,,,,cyan,triangle
331.0,6.0,1.0,1.0,3.0,3.0,407.8190169998379,2.0,1.0,phase_1,,,,,,,,,,,,,gray,hexagon
318.0,2.0,1.0,0.0,2.0,2.0,578.0944660000387,2.0,1.0,phase_1,,,,,,,,,,,,,white,circle
658.0,3.0,2.0,0.0,4.0,4.0,510.77265399999305,2.0,1.0,phase_1,,,,,,,,,,,,,yellow,cross
0.0,8.0,0.0,1.0,3.0,3.0,339.1294170000947,2.0,1.0,phase_1,,,,,,,,,,,,,green,I
637.0,7.0,2.0,1.0,2.0,2.0,431.7436569999699,2.0,1.0,phase_1,,,,,,,,,,,,,orange,square
1280.0,8.0,4.0,1.0,2.0,2.0,454.7299559999374,2.0,1.0,phase_1,,,,,,,,,,,,,green,I
187.0,5.0,0.5,1.0,1.0,1.0,585.1334999997562,2.0,1.0,phase_1,,,,,,,,,,,,,cyan,triangle
667.0,3.0,2.0,0.0,4.0,4.0,445.5100940003831,2.0,1.0,phase_1,,,,,,,,,,,,,yellow,cross
1301.0,8.0,4.0,1.0,4.0,4.0,442.9001379999135,2.0,1.0,phase_1,,,,,,,,,,,,,green,I
1287.0,4.0,4.0,0.0,3.0,3.0,423.8473559998965,2.0,1.0,phase_1,,,,,,,,,,,,,blue,flipped triangle
141.0,1.0,0.5,0.0,2.0,2.0,355.8252779998838,2.0,1.0,phase_1,,,,,,,,,,,,,magenta,diamond
330.0,2.0,1.0,0.0,1.0,1.0,407.7288280000175,2.0,1.0,phase_1,,,,,,,,,,,,,white,circle
184.0,1.0,0.5,0.0,1.0,1.0,389.1569239999626,2.0,1.0,phase_1,,,,,,,,,,,,,magenta,diamond
1279.0,4.0,4.0,0.0,3.0,3.0,396.250615000099,2.0,1.0,phase_1,,,,,,,,,,,,,blue,flipped triangle
304.0,2.0,1.0,0.0,1.0,1.0,437.9800300002898,2.0,1.0,phase_1,,,,,,,,,,,,,white,circle
1310.0,8.0,4.0,1.0,1.0,1.0,596.5038770000319,2.0,1.0,phase_1,,,,,,,,,,,,,green,I
149.0,5.0,0.5,1.0,4.0,4.0,681.0876069998812,2.0,1.0,phase_1,,,,,,,,,,,,,cyan,triangle
181.0,1.0,0.5,0.0,2.0,2.0,659.7683080003662,2.0,1.0,phase_1,,,,,,,,,,,,,magenta,diamond
348.0,6.0,1.0,1.0,1.0,1.0,717.7191230002791,3.0,1.0,phase_1,,,,,,,,,,,,,gray,hexagon
635.0,3.0,2.0,0.0,1.0,1.0,387.2070990000793,3.0,1.0,phase_1,,,,,,,,,,,,,yellow,cross
1305.0,8.0,4.0,1.0,3.0,3.0,414.4668900003125,3.0,1.0,phase_1,,,,,,,,,,,,,green,I
178.0,1.0,0.5,0.0,1.0,1.0,427.4566820004111,3.0,1.0,phase_1,,,,,,,,,,,,,magenta,diamond
347.0,6.0,1.0,1.0,2.0,2.0,911.8370749997666,3.0,1.0,phase_1,,,,,,,,,,,,,gray,hexagon
637.0,7.0,2.0,1.0,2.0,2.0,492.5068690004082,3.0,1.0,phase_1,,,,,,,,,,,,,orange,square
177.0,1.0,0.5,0.0,2.0,2.0,297.2406229996522,3.0,1.0,phase_1,,,,,,,,,,,,,magenta,diamond
307.0,6.0,1.0,1.0,4.0,4.0,463.1377559999237,3.0,1.0,phase_1,,,,,,,,,,,,,gray,hexagon
328.0,2.0,1.0,0.0,2.0,2.0,314.4049749998885,3.0,1.0,phase_1,,,,,,,,,,,,,white,circle
159.0,5.0,0.5,1.0,3.0,3.0,494.7980390002158,3.0,2.0,phase_1,,,,,,,,,,,,,cyan,triangle
1287.0,4.0,4.0,0.0,1.0,1.0,531.0774490003496,3.0,1.0,phase_1,,,,,,,,,,,,,blue,flipped triangle
137.0,1.0,0.5,0.0,3.0,3.0,359.4435909999447,3.0,1.0,phase_1,,,,,,,,,,,,,magenta,diamond
312.0,2.0,1.0,0.0,3.0,3.0,497.5056250000307,3.0,1.0,phase_1,,,,,,,,,,,,,white,circle
339.0,2.0,1.0,0.0,1.0,1.0,742.5195339997117,3.0,1.0,phase_1,,,,,,,,,,,,,white,circle
0.0,3.0,0.0,0.0,3.0,3.0,507.39606399974946,3.0,1.0,phase_1,,,,,,,,,,,,,yellow,cross
340.0,2.0,1.0,0.0,4.0,4.0,511.2121450001723,3.0,1.0,phase_1,,,,,,,,,,,,,white,circle
323.0,6.0,1.0,1.0,3.0,3.0,470.6110930001159,3.0,1.0,phase_1,,,,,,,,,,,,,gray,hexagon
148.0,1.0,0.5,0.0,3.0,3.0,409.3273479998061,3.0,1.0,phase_1,,,,,,,,,,,,,magenta,diamond
302.0,2.0,1.0,0.0,1.0,1.0,437.8000970000357,3.0,1.0,phase_1,,,,,,,,,,,,,white,circle
1275.0,4.0,4.0,0.0,2.0,2.0,585.4495889998361,3.0,2.0,phase_1,,,,,,,,,,,,,blue,flipped triangle
1286.0,4.0,4.0,0.0,2.0,2.0,467.9457769998407,3.0,1.0,phase_1,,,,,,,,,,,,,blue,flipped triangle
327.0,6.0,1.0,1.0,1.0,1.0,632.7528689998871,3.0,1.0,phase_1,,,,,,,,,,,,,gray,hexagon
1300.0,8.0,4.0,1.0,1.0,1.0,373.185480000302,3.0,1.0,phase_1,,,,,,,,,,,,,green,I
0.0,1.0,0.0,0.0,2.0,2.0,530.1071499998216,3.0,1.0,phase_1,,,,,,,,,,,,,magenta,diamond
157.0,5.0,0.5,1.0,3.0,3.0,477.3398729998916,3.0,1.0,phase_1,,,,,,,,,,,,,cyan,triangle
304.0,6.0,1.0,1.0,4.0,4.0,521.7305830001351,3.0,1.0,phase_1,,,,,,,,,,,,,gray,hexagon
627.0,7.0,2.0,1.0,3.0,3.0,400.8562879998862,3.0,1.0,phase_1,,,,,,,,,,,,,orange,square
168.0,1.0,0.5,0.0,1.0,1.0,453.1631700001526,3.0,1.0,phase_1,,,,,,,,,,,,,magenta,diamond
171.0,1.0,0.5,0.0,1.0,1.0,439.9454519998471,3.0,1.0,phase_1,,,,,,,,,,,,,magenta,diamond
0.0,2.0,0.0,0.0,3.0,3.0,428.6592349999409,3.0,1.0,phase_1,,,,,,,,,,,,,white,circle
177.0,1.0,0.5,0.0,4.0,4.0,457.4776559998099,3.0,1.0,phase_1,,,,,,,,,,,,,magenta,diamond
0.0,7.0,0.0,1.0,4.0,4.0,437.9085499999746,3.0,1.0,phase_1,,,,,,,,,,,,,orange,square
649.0,7.0,2.0,1.0,4.0,4.0,379.4568389998858,3.0,1.0,phase_1,,,,,,,,,,,,,orange,square
323.0,2.0,1.0,0.0,1.0,1.0,369.3227990002015,3.0,1.0,phase_1,,,,,,,,,,,,,white,circle
159.0,1.0,0.5,0.0,3.0,3.0,366.4881489999061,3.0,1.0,phase_1,,,,,,,,,,,,,magenta,diamond
0.0,7.0,0.0,1.0,2.0,2.0,416.7560669998238,3.0,1.0,phase_1,,,,,,,,,,,,,orange,square
340.0,6.0,1.0,1.0,1.0,1.0,436.4742349998778,3.0,1.0,phase_1,,,,,,,,,,,,,gray,hexagon
0.0,5.0,0.0,1.0,3.0,3.0,491.5668720000212,3.0,1.0,phase_1,,,,,,,,,,,,,cyan,triangle
0.0,5.0,0.0,1.0,4.0,4.0,413.7678389997745,3.0,1.0,phase_1,,,,,,,,,,,,,cyan,triangle
668.0,3.0,2.0,0.0,4.0,4.0,642.9886659998374,3.0,1.0,phase_1,,,,,,,,,,,,,yellow,cross
310.0,6.0,1.0,1.0,3.0,3.0,465.3607800000827,3.0,1.0,phase_1,,,,,,,,,,,,,gray,hexagon
304.0,2.0,1.0,0.0,3.0,3.0,478.6452099997405,3.0,1.0,phase_1,,,,,,,,,,,,,white,circle
657.0,7.0,2.0,1.0,2.0,2.0,840.345022999827,3.0,1.0,phase_1,,,,,,,,,,,,,orange,square
1325.0,8.0,4.0,1.0,1.0,1.0,565.3141109996795,3.0,1.0,phase_1,,,,,,,,,,,,,green,I
0.0,6.0,0.0,1.0,1.0,1.0,467.0551570002317,3.0,1.0,phase_1,,,,,,,,,,,,,gray,hexagon
642.0,7.0,2.0,1.0,1.0,1.0,441.2835380003344,3.0,1.0,phase_1,,,,,,,,,,,,,orange,square
342.0,2.0,1.0,0.0,4.0,4.0,499.4660490001479,3.0,1.0,phase_1,,,,,,,,,,,,,white,circle
0.0,2.0,0.0,0.0,4.0,4.0,751.579736000167,3.0,1.0,phase_1,,,,,,,,,,,,,white,circle
316.0,2.0,1.0,0.0,2.0,2.0,538.340247999713,3.0,2.0,phase_1,,,,,,,,,,,,,white,circle
183.0,5.0,0.5,1.0,2.0,2.0,365.1256630000716,3.0,1.0,phase_1,,,,,,,,,,,,,cyan,triangle
324.0,6.0,1.0,1.0,4.0,4.0,619.787802999781,3.0,1.0,phase_1,,,,,,,,,,,,,gray,hexagon
671.0,7.0,2.0,1.0,2.0,2.0,550.6219740000233,3.0,1.0,phase_1,,,,,,,,,,,,,orange,square
661.0,3.0,2.0,0.0,3.0,3.0,387.2135550000166,3.0,1.0,phase_1,,,,,,,,,,,,,yellow,cross
347.0,2.0,1.0,0.0,1.0,1.0,661.4834579995659,3.0,2.0,phase_1,,,,,,,,,,,,,white,circle
326.0,6.0,1.0,1.0,3.0,3.0,722.8872609998689,3.0,1.0,phase_1,,,,,,,,,,,,,gray,hexagon
644.0,3.0,2.0,0.0,2.0,2.0,419.939754999632,3.0,2.0,phase_1,,,,,,,,,,,,,yellow,cross
0.0,6.0,0.0,1.0,3.0,3.0,536.9796889999634,3.0,1.0,phase_1,,,,,,,,,,,,,gray,hexagon
627.0,3.0,2.0,0.0,2.0,2.0,372.7806389997568,3.0,1.0,phase_1,,,,,,,,,,,,,yellow,cross
147.0,5.0,0.5,1.0,3.0,3.0,617.0608110001012,3.0,1.0,phase_1,,,,,,,,,,,,,cyan,triangle
1275.0,8.0,4.0,1.0,4.0,4.0,509.92782200000875,3.0,1.0,phase_1,,,,,,,,,,,,,green,I
173.0,1.0,0.5,0.0,2.0,2.0,513.7119089999942,3.0,1.0,phase_1,,,,,,,,,,,,,magenta,diamond
1300.0,4.0,4.0,0.0,1.0,1.0,462.9468369998903,3.0,1.0,phase_1,,,,,,,,,,,,,blue,flipped triangle
323.0,6.0,1.0,1.0,2.0,2.0,516.5226630001598,3.0,1.0,phase_1,,,,,,,,,,,,,gray,hexagon
0.0,4.0,0.0,0.0,3.0,3.0,432.9340210001646,3.0,1.0,phase_1,,,,,,,,,,,,,blue,flipped triangle
0.0,3.0,0.0,0.0,1.0,1.0,964.6128110002792,3.0,1.0,phase_1,,,,,,,,,,,,,yellow,cross
0.0,2.0,0.0,0.0,4.0,4.0,472.8013630001442,3.0,1.0,phase_1,,,,,,,,,,,,,white,circle
648.0,7.0,2.0,1.0,3.0,3.0,421.7213490001086,3.0,1.0,phase_1,,,,,,,,,,,,,orange,square
323.0,2.0,1.0,0.0,3.0,3.0,596.2748130000364,3.0,1.0,phase_1,,,,,,,,,,,,,white,circle
153.0,1.0,0.5,0.0,2.0,2.0,591.3658300000861,3.0,1.0,phase_1,,,,,,,,,,,,,magenta,diamond
186.0,5.0,0.5,1.0,4.0,4.0,428.2507779998923,3.0,1.0,phase_1,,,,,,,,,,,,,cyan,triangle
1287.0,8.0,4.0,1.0,4.0,4.0,482.4696880000374,3.0,1.0,phase_1,,,,,,,,,,,,,green,I
1324.0,4.0,4.0,0.0,2.0,2.0,424.8379860000568,3.0,2.0,phase_1,,,,,,,,,,,,,blue,flipped triangle
0.0,3.0,0.0,0.0,2.0,2.0,438.5375390002082,3.0,1.0,phase_1,,,,,,,,,,,,,yellow,cross
0.0,8.0,0.0,1.0,2.0,2.0,435.0167549996513,3.0,1.0,phase_1,,,,,,,,,,,,,green,I
324.0,2.0,1.0,0.0,4.0,4.0,487.751680999736,3.0,1.0,phase_1,,,,,,,,,,,,,white,circle
331.0,6.0,1.0,1.0,2.0,2.0,476.3709819999349,3.0,1.0,phase_1,,,,,,,,,,,,,gray,hexagon
1306.0,8.0,4.0,1.0,1.0,1.0,380.9911150001426,3.0,2.0,phase_1,,,,,,,,,,,,,green,I
348.0,6.0,1.0,1.0,2.0,2.0,595.170281999799,3.0,1.0,phase_1,,,,,,,,,,,,,gray,hexagon
186.0,1.0,0.5,0.0,1.0,1.0,695.6874489997062,3.0,1.0,phase_1,,,,,,,,,,,,,magenta,diamond
668.0,3.0,2.0,0.0,1.0,1.0,501.2334500001998,3.0,1.0,phase_1,,,,,,,,,,,,,yellow,cross
0.0,8.0,0.0,1.0,1.0,1.0,408.0635369996344,3.0,1.0,phase_1,,,,,,,,,,,,,green,I
179.0,5.0,0.5,1.0,1.0,1.0,444.45969799971857,3.0,1.0,phase_1,,,,,,,,,,,,,cyan,triangle
309.0,2.0,1.0,0.0,4.0,4.0,546.9358820000707,3.0,1.0,phase_1,,,,,,,,,,,,,white,circle
178.0,5.0,0.5,1.0,1.0,1.0,535.7000760000119,3.0,1.0,phase_1,,,,,,,,,,,,,cyan,triangle
149.0,5.0,0.5,1.0,3.0,3.0,543.207190999965,3.0,2.0,phase_1,,,,,,,,,,,,,cyan,triangle
315.0,2.0,1.0,0.0,4.0,4.0,747.1826119999605,3.0,1.0,phase_1,,,,,,,,,,,,,white,circle
137.0,5.0,0.5,1.0,4.0,4.0,458.1489289998899,3.0,1.0,phase_1,,,,,,,,,,,,,cyan,triangle
0.0,6.0,0.0,1.0,2.0,2.0,498.6496029996488,3.0,2.0,phase_1,,,,,,,,,,,,,gray,hexagon
1307.0,4.0,4.0,0.0,2.0,2.0,398.4173690000716,3.0,1.0,phase_1,,,,,,,,,,,,,blue,flipped triangle
0.0,7.0,0.0,1.0,1.0,1.0,448.2571439998537,3.0,2.0,phase_1,,,,,,,,,,,,,orange,square
642.0,3.0,2.0,0.0,2.0,2.0,660.2368999997452,3.0,1.0,phase_1,,,,,,,,,,,,,yellow,cross
0.0,4.0,0.0,0.0,3.0,3.0,720.2126659999522,3.0,1.0,phase_1,,,,,,,,,,,,,blue,flipped triangle
0.0,2.0,0.0,0.0,4.0,4.0,543.1943509997836,3.0,1.0,phase_1,,,,,,,,,,,,,white,circle
0.0,8.0,0.0,1.0,4.0,4.0,547.8063710002061,3.0,1.0,phase_1,,,,,,,,,,,,,green,I
148.0,5.0,0.5,1.0,3.0,3.0,655.3841120003199,3.0,1.0,phase_1,,,,,,,,,,,,,cyan,triangle
674.0,7.0,2.0,1.0,2.0,2.0,635.5031320003945,3.0,1.0,phase_1,,,,,,,,,,,,,orange,square
654.0,3.0,2.0,0.0,2.0,2.0,440.710902000319,3.0,1.0,phase_1,,,,,,,,,,,,,yellow,cross
1311.0,8.0,4.0,1.0,2.0,2.0,356.510234000325,3.0,1.0,phase_1,,,,,,,,,,,,,green,I
330.0,6.0,1.0,1.0,3.0,3.0,600.2559209996434,3.0,1.0,phase_1,,,,,,,,,,,,,gray,hexagon
0.0,4.0,0.0,0.0,2.0,2.0,453.0676720000883,3.0,1.0,phase_1,,,,,,,,,,,,,blue,flipped triangle
675.0,7.0,2.0,1.0,4.0,4.0,467.0449509999343,4.0,1.0,phase_1,,,,,,,,,,,,,orange,square
646.0,3.0,2.0,0.0,4.0,4.0,463.7157639999714,4.0,1.0,phase_1,,,,,,,,,,,,,yellow,cross
321.0,6.0,1.0,1.0,3.0,3.0,517.8201040002932,4.0,1.0,phase_1,,,,,,,,,,,,,gray,hexagon
179.0,1.0,0.5,0.0,3.0,3.0,321.5253119997214,4.0,1.0,phase_1,,,,,,,,,,,,,magenta,diamond
317.0,2.0,1.0,0.0,2.0,2.0,671.6611659999216,4.0,3.0,phase_1,,,,,,,,,,,,,white,circle
149.0,1.0,0.5,0.0,1.0,1.0,619.5010989999901,4.0,1.0,phase_1,,,,,,,,,,,,,magenta,diamond
673.0,7.0,2.0,1.0,2.0,2.0,417.3129839996363,4.0,1.0,phase_1,,,,,,,,,,,,,orange,square
1297.0,4.0,4.0,0.0,1.0,1.0,412.86292399991,4.0,1.0,phase_1,,,,,,,,,,,,,blue,flipped triangle
1294.0,4.0,4.0,0.0,3.0,3.0,497.731050999846,4.0,1.0,phase_1,,,,,,,,,,,,,blue,flipped triangle
148.0,1.0,0.5,0.0,4.0,4.0,520.7106220000242,4.0,1.0,phase_1,,,,,,,,,,,,,magenta,diamond
1317.0,8.0,4.0,1.0,4.0,4.0,490.6482339997637,4.0,1.0,phase_1,,,,,,,,,,,,,green,I
1294.0,4.0,4.0,0.0,3.0,3.0,471.5576539997528,4.0,1.0,phase_1,,,,,,,,,,,,,blue,flipped triangle
322.0,6.0,1.0,1.0,4.0,4.0,436.4749450001,4.0,1.0,phase_1,,,,,,,,,,,,,gray,hexagon
0.0,6.0,0.0,1.0,3.0,3.0,426.689419000013,4.0,1.0,phase_1,,,,,,,,,,,,,gray,hexagon
171.0,5.0,0.5,1.0,2.0,2.0,445.2155979997769,4.0,1.0,phase_1,,,,,,,,,,,,,cyan,triangle
630.0,3.0,2.0,0.0,4.0,4.0,361.8447049998394,4.0,1.0,phase_1,,,,,,,,,,,,,yellow,cross
155.0,5.0,0.5,1.0,1.0,1.0,607.500457000242,4.0,1.0,phase_1,,,,,,,,,,,,,cyan,triangle
671.0,3.0,2.0,0.0,3.0,3.0,469.3110659995909,4.0,1.0,phase_1,,,,,,,,,,,,,yellow,cross
1280.0,8.0,4.0,1.0,3.0,3.0,479.6639909995974,4.0,1.0,phase_1,,,,,,,,,,,,,green,I
1291.0,8.0,4.0,1.0,3.0,3.0,420.862206000038,4.0,1.0,phase_1,,,,,,,,,,,,,green,I
350.0,6.0,1.0,1.0,1.0,1.0,350.6888279998748,4.0,2.0,phase_1,,,,,,,,,,,,,gray,hexagon
339.0,6.0,1.0,1.0,4.0,4.0,378.5328399999343,4.0,1.0,phase_1,,,,,,,,,,,,,gray,hexagon
0.0,1.0,0.0,0.0,4.0,4.0,479.1370789998836,4.0,1.0,phase_1,,,,,,,,,,,,,magenta,diamond
1311.0,4.0,4.0,0.0,2.0,2.0,492.1999769999274,4.0,1.0,phase_1,,,,,,,,,,,,,blue,flipped triangle
140.0,1.0,0.5,0.0,1.0,1.0,553.8978079998742,4.0,1.0,phase_1,,,,,,,,,,,,,magenta,diamond
0.0,5.0,0.0,1.0,3.0,3.0,879.0589559998807,4.0,1.0,phase_1,,,,,,,,,,,,,cyan,triangle
637.0,3.0,2.0,0.0,3.0,3.0,441.1439939999582,4.0,1.0,phase_1,,,,,,,,,,,,,yellow,cross
183.0,1.0,0.5,0.0,3.0,3.0,357.7754979996825,4.0,1.0,phase_1,,,,,,,,,,,,,magenta,diamond
627.0,3.0,2.0,0.0,3.0,3.0,652.271527999801,4.0,1.0,phase_1,,,,,,,,,,,,,yellow,cross
177.0,5.0,0.5,1.0,4.0,4.0,409.0158310000333,4.0,1.0,phase_1,,,,,,,,,,,,,cyan,triangle
304.0,6.0,1.0,1.0,3.0,3.0,422.2636849999617,4.0,1.0,phase_1,,,,,,,,,,,,,gray,hexagon
312.0,6.0,1.0,1.0,2.0,2.0,648.6623270002383,4.0,1.0,phase_1,,,,,,,,,,,,,gray,hexagon
326.0,2.0,1.0,0.0,2.0,2.0,367.0231950000016,4.0,1.0,phase_1,,,,,,,,,,,,,white,circle
0.0,7.0,0.0,1.0,4.0,4.0,442.8250300002219,4.0,1.0,phase_1,,,,,,,,,,,,,orange,square
1300.0,8.0,4.0,1.0,3.0,3.0,425.2950999998575,4.0,1.0,phase_1,,,,,,,,,,,,,green,I
1317.0,8.0,4.0,1.0,2.0,2.0,459.4587629999296,4.0,1.0,phase_1,,,,,,,,,,,,,green,I
318.0,6.0,1.0,1.0,1.0,1.0,512.8749250002329,4.0,1.0,phase_1,,,,,,,,,,,,,gray,hexagon
630.0,7.0,2.0,1.0,3.0,3.0,396.3245550003194,4.0,1.0,phase_1,,,,,,,,,,,,,orange,square
0.0,1.0,0.0,0.0,2.0,2.0,416.7278689997147,4.0,1.0,phase_1,,,,,,,,,,,,,magenta,diamond
1294.0,8.0,4.0,1.0,4.0,4.0,430.0426149998202,4.0,1.0,phase_1,,,,,,,,,,,,,green,I
167.0,5.0,0.5,1.0,3.0,3.0,378.8797259999228,4.0,1.0,phase_1,,,,,,,,,,,,,cyan,triangle
1294.0,8.0,4.0,1.0,4.0,4.0,391.1829700000453,4.0,1.0,phase_1,,,,,,,,,,,,,green,I
1321.0,8.0,4.0,1.0,3.0,3.0,445.6721700003072,4.0,1.0,phase_1,,,,,,,,,,,,,green,I
186.0,1.0,0.5,0.0,3.0,3.0,665.6166530001428,4.0,1.0,phase_1,,,,,,,,,,,,,magenta,diamond
1296.0,8.0,4.0,1.0,1.0,1.0,773.6759009999332,4.0,1.0,phase_1,,,,,,,,,,,,,green,I
157.0,1.0,0.5,0.0,2.0,2.0,473.7488609998763,4.0,1.0,phase_1,,,,,,,,,,,,,magenta,diamond
646.0,7.0,2.0,1.0,4.0,4.0,432.08980899999,4.0,1.0,phase_1,,,,,,,,,,,,,orange,square
639.0,3.0,2.0,0.0,1.0,1.0,570.032269999956,4.0,1.0,phase_1,,,,,,,,,,,,,yellow,cross
0.0,5.0,0.0,1.0,4.0,4.0,543.4664159997737,4.0,1.0,phase_1,,,,,,,,,,,,,cyan,triangle
325.0,2.0,1.0,0.0,3.0,3.0,692.9675050000697,4.0,1.0,phase_1,,,,,,,,,,,,,white,circle
149.0,1.0,0.5,0.0,4.0,4.0,539.5148910001808,4.0,1.0,phase_1,,,,,,,,,,,,,magenta,diamond
0.0,5.0,0.0,1.0,1.0,1.0,486.0553720000098,4.0,1.0,phase_1,,,,,,,,,,,,,cyan,triangle
147.0,1.0,0.5,0.0,3.0,3.0,618.166525000106,4.0,1.0,phase_1,,,,,,,,,,,,,magenta,diamond
0.0,1.0,0.0,0.0,3.0,3.0,657.3155779997251,4.0,1.0,phase_1,,,,,,,,,,,,,magenta,diamond
0.0,6.0,0.0,1.0,2.0,2.0,675.3956729999118,4.0,1.0,phase_1,,,,,,,,,,,,,gray,hexagon
1279.0,8.0,4.0,1.0,1.0,1.0,408.6364660001891,4.0,1.0,phase_1,,,,,,,,,,,,,green,I
163.0,5.0,0.5,1.0,1.0,1.0,446.1963580001793,4.0,1.0,phase_1,,,,,,,,,,,,,cyan,triangle
0.0,8.0,0.0,1.0,2.0,2.0,640.6433700003618,4.0,1.0,phase_1,,,,,,,,,,,,,green,I
0.0,2.0,0.0,0.0,2.0,2.0,494.8037479998675,4.0,1.0,phase_1,,,,,,,,,,,,,white,circle
145.0,1.0,0.5,0.0,2.0,2.0,490.1572700000542,4.0,1.0,phase_1,,,,,,,,,,,,,magenta,diamond
1295.0,4.0,4.0,0.0,2.0,2.0,383.2257770000069,4.0,1.0,phase_1,,,,,,,,,,,,,blue,flipped triangle
1306.0,4.0,4.0,0.0,2.0,2.0,451.8733370000518,4.0,1.0,phase_1,,,,,,,,,,,,,blue,flipped triangle
1310.0,4.0,4.0,0.0,2.0,2.0,378.5776519998762,4.0,1.0,phase_1,,,,,,,,,,,,,blue,flipped triangle
151.0,1.0,0.5,0.0,1.0,1.0,486.929659999987,4.0,1.0,phase_1,,,,,,,,,,,,,magenta,diamond
0.0,5.0,0.0,1.0,1.0,1.0,387.0987029999924,4.0,1.0,phase_1,,,,,,,,,,,,,cyan,triangle
1315.0,4.0,4.0,0.0,1.0,1.0,405.9708849999879,4.0,1.0,phase_1,,,,,,,,,,,,,blue,flipped triangle
0.0,8.0,0.0,1.0,1.0,1.0,386.3083989999722,4.0,1.0,phase_1,,,,,,,,,,,,,green,I
335.0,2.0,1.0,0.0,1.0,1.0,335.1598920003198,4.0,1.0,phase_1,,,,,,,,,,,,,white,circle
644.0,7.0,2.0,1.0,4.0,4.0,654.5348609997745,4.0,1.0,phase_1,,,,,,,,,,,,,orange,square
1276.0,8.0,4.0,1.0,1.0,1.0,514.6346090000407,4.0,1.0,phase_1,,,,,,,,,,,,,green,I
0.0,8.0,0.0,1.0,3.0,3.0,503.3785089999583,4.0,1.0,phase_1,,,,,,,,,,,,,green,I
0.0,8.0,0.0,1.0,3.0,3.0,428.2384500002081,4.0,1.0,phase_1,,,,,,,,,,,,,green,I
0.0,3.0,0.0,0.0,1.0,1.0,406.6138739999587,4.0,1.0,phase_1,,,,,,,,,,,,,yellow,cross
183.0,5.0,0.5,1.0,4.0,4.0,466.6188730002432,4.0,1.0,phase_1,,,,,,,,,,,,,cyan,triangle
328.0,2.0,1.0,0.0,2.0,2.0,567.7890359997946,4.0,1.0,phase_1,,,,,,,,,,,,,white,circle
342.0,6.0,1.0,1.0,2.0,2.0,541.5070049998576,4.0,1.0,phase_1,,,,,,,,,,,,,gray,hexagon
145.0,1.0,0.5,0.0,2.0,2.0,384.6809310002754,4.0,1.0,phase_1,,,,,,,,,,,,,magenta,diamond
1281.0,4.0,4.0,0.0,1.0,1.0,410.4578010001205,4.0,2.0,phase_1,,,,,,,,,,,,,blue,flipped triangle
325.0,6.0,1.0,1.0,4.0,4.0,518.5336419999658,4.0,1.0,phase_1,,,,,,,,,,,,,gray,hexagon
633.0,3.0,2.0,0.0,1.0,1.0,446.19415499983,4.0,1.0,phase_1,,,,,,,,,,,,,yellow,cross
140.0,5.0,0.5,1.0,4.0,4.0,393.2454490000054,4.0,1.0,phase_1,,,,,,,,,,,,,cyan,triangle
0.0,7.0,0.0,1.0,4.0,4.0,421.1759220002022,4.0,1.0,phase_1,,,,,,,,,,,,,orange,square
1322.0,8.0,4.0,1.0,4.0,4.0,331.3979810000091,4.0,1.0,phase_1,,,,,,,,,,,,,green,I
1291.0,4.0,4.0,0.0,3.0,3.0,512.7372930001002,4.0,1.0,phase_1,,,,,,,,,,,,,blue,flipped triangle
654.0,7.0,2.0,1.0,2.0,2.0,323.783445999652,4.0,1.0,phase_1,,,,,,,,,,,,,orange,square
307.0,2.0,1.0,0.0,4.0,4.0,393.5972160002166,4.0,1.0,phase_1,,,,,,,,,,,,,white,circle
637.0,3.0,2.0,0.0,4.0,4.0,387.7336650002689,4.0,1.0,phase_1,,,,,,,,,,,,,yellow,cross
153.0,5.0,0.5,1.0,4.0,4.0,434.5666750000418,4.0,1.0,phase_1,,,,,,,,,,,,,cyan,triangle
327.0,2.0,1.0,0.0,1.0,1.0,558.808284999941,4.0,1.0,phase_1,,,,,,,,,,,,,white,circle
641.0,3.0,2.0,0.0,3.0,3.0,529.4719909998093,4.0,1.0,phase_1,,,,,,,,,,,,,yellow,cross
0.0,8.0,0.0,1.0,2.0,2.0,399.9352000000726,4.0,1.0,phase_1,,,,,,,,,,,,,green,I
1286.0,8.0,4.0,1.0,3.0,3.0,451.3176909999856,4.0,1.0,phase_1,,,,,,,,,,,,,green,I
1318.0,8.0,4.0,1.0,1.0,1.0,416.0225139999056,4.0,1.0,phase_1,,,,,,,,,,,,,green,I
673.0,3.0,2.0,0.0,3.0,3.0,371.7857350002305,4.0,1.0,phase_1,,,,,,,,,,,,,yellow,cross
1320.0,4.0,4.0,0.0,4.0,4.0,450.2045529998213,4.0,1.0,phase_1,,,,,,,,,,,,,blue,flipped triangle
140.0,1.0,0.5,0.0,4.0,4.0,398.6733560000175,4.0,1.0,phase_1,,,,,,,,,,,,,magenta,diamond
160.0,1.0,0.5,0.0,3.0,3.0,393.5155270000905,4.0,1.0,phase_1,,,,,,,,,,,,,magenta,diamond
1290.0,8.0,4.0,1.0,2.0,2.0,393.0851560003248,4.0,1.0,phase_1,,,,,,,,,,,,,green,I
647.0,3.0,2.0,0.0,2.0,2.0,459.2611220000435,4.0,1.0,phase_1,,,,,,,,,,,,,yellow,cross
165.0,1.0,0.5,0.0,4.0,4.0,393.5027569996236,4.0,1.0,phase_1,,,,,,,,,,,,,magenta,diamond
0.0,6.0,1.0,1.0,5.0,5.0,388.7211809997097,1.0,1.0,phase_2,go,250.0,250.0,1.0,,,,,,,,,gray,hexagon
0.0,6.0,1.0,1.0,5.0,5.0,396.0036179996677,1.0,1.0,phase_2,go,250.0,250.0,1.0,,,,,,,,,gray,hexagon
0.0,3.0,2.0,0.0,6.0,6.0,355.564145000244,1.0,1.0,phase_2,go,250.0,250.0,1.0,,,,,,,,,yellow,cross
0.0,3.0,2.0,0.0,6.0,6.0,347.9970270000194,1.0,1.0,phase_2,go,250.0,250.0,1.0,,,,,,,,,yellow,cross
0.0,2.0,1.0,0.0,6.0,6.0,395.2036379996571,1.0,1.0,phase_2,go,250.0,250.0,1.0,,,,,,,,,white,circle
0.0,7.0,2.0,1.0,6.0,0.0,0.0,1.0,1.0,phase_2,stop,250.0,250.0,4.0,,,,,,,,,orange,square
0.0,4.0,4.0,0.0,6.0,6.0,434.0494190000754,1.0,1.0,phase_2,go,250.0,300.0,1.0,,,,,,,,,blue,flipped triangle
0.0,5.0,0.5,1.0,5.0,5.0,297.8168269992238,1.0,1.0,phase_2,stop,250.0,300.0,3.0,,,,,,,,,cyan,triangle
0.0,1.0,0.5,0.0,6.0,6.0,337.7982930005601,1.0,1.0,phase_2,go,200.0,300.0,1.0,,,,,,,,,magenta,diamond
0.0,2.0,1.0,0.0,6.0,6.0,424.1627000001244,1.0,1.0,phase_2,go,200.0,300.0,1.0,,,,,,,,,white,circle
0.0,5.0,0.5,1.0,5.0,5.0,318.7414099993475,1.0,1.0,phase_2,stop,200.0,300.0,3.0,,,,,,,,,cyan,triangle
0.0,4.0,4.0,0.0,5.0,5.0,376.5680249998695,1.0,1.0,phase_2,go,150.0,300.0,1.0,,,,,,,,,blue,flipped triangle
0.0,6.0,1.0,1.0,6.0,6.0,462.8761920002944,1.0,1.0,phase_2,stop,150.0,300.0,3.0,,,,,,,,,gray,hexagon
0.0,2.0,1.0,0.0,5.0,5.0,413.6304949997793,1.0,1.0,phase_2,go,150.0,250.0,1.0,,,,,,,,,white,circle
0.0,4.0,4.0,0.0,6.0,6.0,373.2337410001491,1.0,1.0,phase_2,go,150.0,250.0,1.0,,,,,,,,,blue,flipped triangle
0.0,5.0,0.5,1.0,5.0,0.0,0.0,1.0,1.0,phase_2,stop,150.0,250.0,4.0,,,,,,,,,cyan,triangle
0.0,4.0,4.0,0.0,6.0,6.0,412.8065599998081,1.0,1.0,phase_2,go,200.0,250.0,1.0,,,,,,,,,blue,flipped triangle
0.0,5.0,0.5,1.0,5.0,5.0,378.4562920000098,1.0,1.0,phase_2,stop,200.0,250.0,3.0,,,,,,,,,cyan,triangle
0.0,6.0,1.0,1.0,6.0,6.0,356.5241109999988,1.0,1.0,phase_2,stop,150.0,250.0,3.0,,,,,,,,,gray,hexagon
0.0,2.0,1.0,0.0,6.0,6.0,723.5408799997458,1.0,1.0,phase_2,go,150.0,200.0,1.0,,,,,,,,,white,circle
0.0,5.0,0.5,1.0,5.0,5.0,785.3641040001094,1.0,1.0,phase_2,go,150.0,200.0,1.0,,,,,,,,,cyan,triangle
0.0,2.0,1.0,0.0,6.0,6.0,473.5430910004652,1.0,1.0,phase_2,go,150.0,200.0,1.0,,,,,,,,,white,circle
0.0,1.0,0.5,0.0,6.0,6.0,369.2412330001389,1.0,1.0,phase_2,go,150.0,200.0,1.0,,,,,,,,,magenta,diamond
0.0,4.0,4.0,0.0,6.0,6.0,343.6387140000079,1.0,1.0,phase_2,go,150.0,200.0,1.0,,,,,,,,,blue,flipped triangle
0.0,2.0,1.0,0.0,6.0,6.0,367.7485319994957,1.0,1.0,phase_2,go,150.0,200.0,1.0,,,,,,,,,white,circle
0.0,2.0,1.0,0.0,5.0,5.0,358.5471360001975,1.0,1.0,phase_2,go,150.0,200.0,1.0,,,,,,,,,white,circle
0.0,7.0,2.0,1.0,6.0,0.0,0.0,1.0,1.0,phase_2,stop,150.0,200.0,4.0,,,,,,,,,orange,square
0.0,8.0,4.0,1.0,5.0,0.0,0.0,1.0,1.0,phase_2,stop,150.0,250.0,4.0,,,,,,,,,green,I
0.0,5.0,0.5,1.0,6.0,0.0,0.0,1.0,1.0,phase_2,stop,200.0,250.0,4.0,,,,,,,,,cyan,triangle
0.0,3.0,2.0,0.0,5.0,5.0,875.9566779999659,1.0,1.0,phase_2,go,200.0,300.0,1.0,,,,,,,,,yellow,cross
0.0,7.0,2.0,1.0,6.0,6.0,320.0106949998371,1.0,1.0,phase_2,stop,200.0,300.0,3.0,,,,,,,,,orange,square
0.0,6.0,1.0,1.0,5.0,0.0,0.0,1.0,1.0,phase_2,stop,200.0,250.0,4.0,,,,,,,,,gray,hexagon
0.0,7.0,2.0,1.0,5.0,0.0,0.0,1.0,1.0,phase_2,stop,250.0,250.0,4.0,,,,,,,,,orange,square
0.0,3.0,2.0,0.0,5.0,5.0,489.7619570001552,1.0,1.0,phase_2,go,300.0,250.0,1.0,,,,,,,,,yellow,cross
0.0,7.0,2.0,1.0,5.0,5.0,426.5957830002662,1.0,1.0,phase_2,stop,300.0,250.0,3.0,,,,,,,,,orange,square
0.0,6.0,1.0,1.0,6.0,0.0,0.0,1.0,1.0,phase_2,stop,250.0,250.0,4.0,,,,,,,,,gray,hexagon
0.0,1.0,0.5,0.0,6.0,6.0,395.7353099995089,2.0,1.0,phase_2,go,250.0,300.0,1.0,,,,,,,,,magenta,diamond
0.0,8.0,4.0,1.0,6.0,6.0,419.1913220001879,2.0,1.0,phase_2,go,250.0,300.0,1.0,,,,,,,,,green,I
0.0,1.0,0.5,0.0,5.0,5.0,292.4524639993251,2.0,1.0,phase_2,go,250.0,300.0,1.0,,,,,,,,,magenta,diamond
0.0,5.0,0.5,1.0,5.0,5.0,323.651714999869,2.0,1.0,phase_2,stop,250.0,300.0,3.0,,,,,,,,,cyan,triangle
0.0,7.0,2.0,1.0,5.0,0.0,0.0,2.0,1.0,phase_2,stop,200.0,300.0,4.0,,,,,,,,,orange,square
0.0,2.0,1.0,0.0,6.0,6.0,498.3172689999264,2.0,1.0,phase_2,go,250.0,300.0,1.0,,,,,,,,,white,circle
0.0,3.0,2.0,0.0,6.0,6.0,648.3674860000974,2.0,1.0,phase_2,go,250.0,300.0,1.0,,,,,,,,,yellow,cross
0.0,8.0,4.0,1.0,6.0,0.0,0.0,2.0,1.0,phase_2,stop,250.0,300.0,4.0,,,,,,,,,green,I
0.0,8.0,4.0,1.0,6.0,0.0,0.0,2.0,1.0,phase_2,stop,250.0,350.0,4.0,,,,,,,,,green,I
0.0,5.0,0.5,1.0,6.0,0.0,0.0,2.0,1.0,phase_2,stop,250.0,400.0,4.0,,,,,,,,,cyan,triangle
0.0,7.0,2.0,1.0,6.0,6.0,1485.612840999238,2.0,1.0,phase_2,go,250.0,450.0,1.0,,,,,,,,,orange,square
0.0,7.0,2.0,1.0,5.0,0.0,0.0,2.0,1.0,phase_2,stop,250.0,450.0,4.0,,,,,,,,,orange,square
0.0,8.0,4.0,1.0,6.0,6.0,612.0056409999961,2.0,1.0,phase_2,stop,300.0,450.0,3.0,,,,,,,,,green,I
0.0,7.0,2.0,1.0,5.0,0.0,0.0,2.0,1.0,phase_2,stop,300.0,400.0,4.0,,,,,,,,,orange,square
0.0,3.0,2.0,0.0,6.0,6.0,748.6740019994613,2.0,1.0,phase_2,go,350.0,400.0,1.0,,,,,,,,,yellow,cross
0.0,5.0,0.5,1.0,5.0,0.0,0.0,2.0,1.0,phase_2,stop,350.0,400.0,4.0,,,,,,,,,cyan,triangle
0.0,1.0,0.5,0.0,6.0,6.0,306.9011119996503,2.0,1.0,phase_2,go,400.0,400.0,1.0,,,,,,,,,magenta,diamond
0.0,3.0,2.0,0.0,5.0,5.0,465.6820800000787,2.0,1.0,phase_2,go,400.0,400.0,1.0,,,,,,,,,yellow,cross
0.0,4.0,4.0,0.0,5.0,5.0,570.7943090001208,2.0,1.0,phase_2,go,400.0,400.0,1.0,,,,,,,,,blue,flipped triangle
0.0,2.0,1.0,0.0,6.0,6.0,416.5677209994101,2.0,1.0,phase_2,go,400.0,400.0,1.0,,,,,,,,,white,circle
0.0,8.0,4.0,1.0,5.0,0.0,0.0,2.0,1.0,phase_2,stop,400.0,400.0,4.0,,,,,,,,,green,I
0.0,2.0,1.0,0.0,6.0,6.0,519.4641490006688,2.0,1.0,phase_2,go,450.0,400.0,1.0,,,,,,,,,white,circle
0.0,5.0,0.5,1.0,6.0,0.0,0.0,2.0,1.0,phase_2,stop,450.0,400.0,4.0,,,,,,,,,cyan,triangle
0.0,5.0,0.5,1.0,5.0,0.0,0.0,2.0,1.0,phase_2,stop,450.0,450.0,4.0,,,,,,,,,cyan,triangle
0.0,6.0,1.0,1.0,6.0,0.0,0.0,2.0,1.0,phase_2,stop,500.0,450.0,4.0,,,,,,,,,gray,hexagon
0.0,8.0,4.0,1.0,5.0,0.0,0.0,2.0,1.0,phase_2,go,500.0,500.0,5.0,,,,,,,,,green,I
0.0,4.0,4.0,0.0,5.0,5.0,451.5479900001082,2.0,1.0,phase_2,go,500.0,500.0,1.0,,,,,,,,,blue,flipped triangle
0.0,1.0,0.5,0.0,6.0,6.0,499.0936000003785,2.0,1.0,phase_2,go,500.0,500.0,1.0,,,,,,,,,magenta,diamond
0.0,7.0,2.0,1.0,6.0,6.0,362.3269740000978,2.0,1.0,phase_2,stop,500.0,500.0,3.0,,,,,,,,,orange,square
0.0,4.0,4.0,0.0,5.0,5.0,594.5631619997584,2.0,1.0,phase_2,go,500.0,450.0,1.0,,,,,,,,,blue,flipped triangle
0.0,4.0,4.0,0.0,6.0,6.0,433.4874070000296,2.0,1.0,phase_2,go,500.0,450.0,1.0,,,,,,,,,blue,flipped triangle
0.0,3.0,2.0,0.0,6.0,6.0,320.7096279993493,2.0,1.0,phase_2,go,500.0,450.0,1.0,,,,,,,,,yellow,cross
0.0,1.0,0.5,0.0,5.0,5.0,528.0927200001315,2.0,1.0,phase_2,go,500.0,450.0,1.0,,,,,,,,,magenta,diamond
0.0,8.0,4.0,1.0,5.0,5.0,465.2507219998369,2.0,1.0,phase_2,stop,500.0,450.0,3.0,,,,,,,,,green,I
0.0,1.0,0.5,0.0,5.0,5.0,725.8533249996617,2.0,1.0,phase_2,go,450.0,450.0,1.0,,,,,,,,,magenta,diamond
0.0,8.0,4.0,1.0,5.0,5.0,567.1005419999346,2.0,1.0,phase_2,stop,450.0,450.0,3.0,,,,,,,,,green,I
0.0,6.0,1.0,1.0,6.0,6.0,659.4326000004003,3.0,1.0,phase_2,stop,400.0,450.0,3.0,,,,,,,,,gray,hexagon
0.0,2.0,1.0,0.0,5.0,5.0,449.1738420001638,3.0,1.0,phase_2,go,400.0,400.0,1.0,,,,,,,,,white,circle
0.0,4.0,4.0,0.0,6.0,6.0,400.9272559997043,3.0,1.0,phase_2,go,400.0,400.0,1.0,,,,,,,,,blue,flipped triangle
0.0,7.0,2.0,1.0,6.0,6.0,439.41135499972,3.0,1.0,phase_2,stop,400.0,400.0,3.0,,,,,,,,,orange,square
0.0,8.0,4.0,1.0,6.0,6.0,633.7180189993887,3.0,1.0,phase_2,go,400.0,350.0,1.0,,,,,,,,,green,I
0.0,6.0,1.0,1.0,6.0,0.0,0.0,3.0,1.0,phase_2,stop,400.0,350.0,4.0,,,,,,,,,gray,hexagon
0.0,8.0,4.0,1.0,6.0,6.0,390.5884870000591,3.0,1.0,phase_2,go,400.0,400.0,1.0,,,,,,,,,green,I
0.0,3.0,2.0,0.0,5.0,5.0,503.134159000183,3.0,1.0,phase_2,go,400.0,400.0,1.0,,,,,,,,,yellow,cross
0.0,4.0,4.0,0.0,5.0,5.0,461.9690770005036,3.0,1.0,phase_2,go,400.0,400.0,1.0,,,,,,,,,blue,flipped triangle
0.0,6.0,1.0,1.0,5.0,5.0,382.2336960001848,3.0,1.0,phase_2,go,400.0,400.0,1.0,,,,,,,,,gray,hexagon
0.0,8.0,4.0,1.0,6.0,6.0,387.4595859997498,3.0,1.0,phase_2,stop,400.0,400.0,3.0,,,,,,,,,green,I
0.0,1.0,0.5,0.0,6.0,6.0,506.3934110003174,3.0,1.0,phase_2,go,400.0,350.0,1.0,,,,,,,,,magenta,diamond
0.0,6.0,1.0,1.0,6.0,6.0,753.9016040000206,3.0,1.0,phase_2,stop,400.0,350.0,3.0,,,,,,,,,gray,hexagon
0.0,2.0,1.0,0.0,5.0,5.0,906.258113000149,3.0,1.0,phase_2,go,400.0,300.0,1.0,,,,,,,,,white,circle
0.0,8.0,4.0,1.0,5.0,5.0,418.5919470000954,3.0,1.0,phase_2,stop,400.0,300.0,3.0,,,,,,,,,green,I
0.0,3.0,2.0,0.0,6.0,6.0,402.6657220001652,3.0,1.0,phase_2,go,350.0,300.0,1.0,,,,,,,,,yellow,cross
0.0,6.0,1.0,1.0,6.0,6.0,383.5501069997917,3.0,1.0,phase_2,stop,350.0,300.0,3.0,,,,,,,,,gray,hexagon
0.0,4.0,4.0,0.0,6.0,6.0,385.206738999841,3.0,1.0,phase_2,go,350.0,250.0,1.0,,,,,,,,,blue,flipped triangle
0.0,3.0,2.0,0.0,6.0,6.0,358.8720110001304,3.0,1.0,phase_2,go,350.0,250.0,1.0,,,,,,,,,yellow,cross
0.0,8.0,4.0,1.0,5.0,5.0,296.3257800001884,3.0,1.0,phase_2,stop,350.0,250.0,3.0,,,,,,,,,green,I
0.0,2.0,1.0,0.0,5.0,5.0,422.8767849999713,3.0,1.0,phase_2,go,300.0,250.0,1.0,,,,,,,,,white,circle
0.0,6.0,1.0,1.0,6.0,6.0,519.1736269998728,3.0,1.0,phase_2,stop,300.0,250.0,3.0,,,,,,,,,gray,hexagon
0.0,7.0,2.0,1.0,5.0,0.0,0.0,3.0,1.0,phase_2,stop,300.0,200.0,4.0,,,,,,,,,orange,square
0.0,1.0,0.5,0.0,6.0,6.0,1075.2574569996796,3.0,1.0,phase_2,go,350.0,200.0,1.0,,,,,,,,,magenta,diamond
0.0,6.0,1.0,1.0,5.0,5.0,493.5086859995863,3.0,1.0,phase_2,stop,350.0,200.0,3.0,,,,,,,,,gray,hexagon
0.0,6.0,1.0,1.0,5.0,0.0,0.0,3.0,1.0,phase_2,stop,300.0,200.0,4.0,,,,,,,,,gray,hexagon
0.0,1.0,0.5,0.0,6.0,6.0,858.9449090004564,3.0,1.0,phase_2,go,350.0,200.0,1.0,,,,,,,,,magenta,diamond
0.0,5.0,0.5,1.0,6.0,0.0,0.0,3.0,1.0,phase_2,stop,350.0,200.0,4.0,,,,,,,,,cyan,triangle
0.0,6.0,1.0,1.0,6.0,0.0,0.0,3.0,1.0,phase_2,stop,350.0,250.0,4.0,,,,,,,,,gray,hexagon
0.0,4.0,4.0,0.0,5.0,5.0,752.1769830000267,3.0,1.0,phase_2,go,350.0,300.0,1.0,,,,,,,,,blue,flipped triangle
0.0,5.0,0.5,1.0,6.0,0.0,0.0,3.0,1.0,phase_2,stop,350.0,300.0,4.0,,,,,,,,,cyan,triangle
0.0,8.0,4.0,1.0,6.0,0.0,0.0,3.0,1.0,phase_2,stop,350.0,350.0,4.0,,,,,,,,,green,I
0.0,5.0,0.5,1.0,6.0,0.0,0.0,3.0,1.0,phase_2,stop,350.0,400.0,4.0,,,,,,,,,cyan,triangle
0.0,6.0,1.0,1.0,6.0,6.0,813.711689000229,3.0,1.0,phase_2,go,350.0,450.0,1.0,,,,,,,,,gray,hexagon
0.0,5.0,0.5,1.0,6.0,0.0,0.0,3.0,1.0,phase_2,stop,350.0,450.0,4.0,,,,,,,,,cyan,triangle
0.0,8.0,4.0,1.0,5.0,0.0,0.0,3.0,1.0,phase_2,stop,350.0,500.0,4.0,,,,,,,,,green,I
0.0,8.0,4.0,1.0,5.0,5.0,524.1846180006178,4.0,1.0,phase_2,stop,400.0,500.0,3.0,,,,,,,,,green,I
0.0,2.0,1.0,0.0,5.0,5.0,516.4656639999521,4.0,1.0,phase_2,go,350.0,500.0,1.0,,,,,,,,,white,circle
0.0,2.0,1.0,0.0,5.0,5.0,403.1429309998202,4.0,1.0,phase_2,go,350.0,500.0,1.0,,,,,,,,,white,circle
0.0,5.0,0.5,1.0,6.0,6.0,432.401638000556,4.0,1.0,phase_2,stop,350.0,500.0,3.0,,,,,,,,,cyan,triangle
0.0,1.0,0.5,0.0,6.0,6.0,856.8850299998303,4.0,1.0,phase_2,go,350.0,450.0,1.0,,,,,,,,,magenta,diamond
0.0,7.0,2.0,1.0,5.0,5.0,366.742014999545,4.0,1.0,phase_2,stop,350.0,450.0,3.0,,,,,,,,,orange,square
0.0,8.0,4.0,1.0,6.0,0.0,0.0,4.0,1.0,phase_2,stop,300.0,450.0,4.0,,,,,,,,,green,I
0.0,3.0,2.0,0.0,5.0,5.0,855.3115009999601,4.0,1.0,phase_2,go,300.0,500.0,1.0,,,,,,,,,yellow,cross
0.0,4.0,4.0,0.0,5.0,5.0,599.3536300002233,4.0,1.0,phase_2,go,300.0,500.0,1.0,,,,,,,,,blue,flipped triangle
0.0,2.0,1.0,0.0,5.0,5.0,430.6439250003677,4.0,1.0,phase_2,go,300.0,500.0,1.0,,,,,,,,,white,circle
0.0,2.0,1.0,0.0,5.0,5.0,965.600907999942,4.0,1.0,phase_2,go,300.0,500.0,1.0,,,,,,,,,white,circle
0.0,3.0,2.0,0.0,5.0,5.0,597.3564539999643,4.0,1.0,phase_2,go,300.0,500.0,1.0,,,,,,,,,yellow,cross
0.0,8.0,4.0,1.0,5.0,0.0,0.0,4.0,1.0,phase_2,stop,300.0,500.0,4.0,,,,,,,,,green,I
0.0,5.0,0.5,1.0,5.0,5.0,482.3398680000537,4.0,1.0,phase_2,stop,350.0,500.0,3.0,,,,,,,,,cyan,triangle
0.0,3.0,2.0,0.0,6.0,6.0,914.3502590004572,4.0,1.0,phase_2,go,300.0,500.0,1.0,,,,,,,,,yellow,cross
0.0,4.0,4.0,0.0,6.0,6.0,817.4655989996609,4.0,1.0,phase_2,go,300.0,500.0,1.0,,,,,,,,,blue,flipped triangle
0.0,4.0,4.0,0.0,5.0,5.0,776.6646350000883,4.0,1.0,phase_2,go,300.0,500.0,1.0,,,,,,,,,blue,flipped triangle
0.0,8.0,4.0,1.0,6.0,0.0,0.0,4.0,1.0,phase_2,stop,300.0,500.0,4.0,,,,,,,,,green,I
0.0,7.0,2.0,1.0,5.0,0.0,0.0,4.0,1.0,phase_2,stop,300.0,550.0,4.0,,,,,,,,,orange,square
0.0,8.0,4.0,1.0,5.0,0.0,0.0,4.0,1.0,phase_2,stop,350.0,550.0,4.0,,,,,,,,,green,I
0.0,3.0,2.0,0.0,6.0,6.0,830.5274100002862,4.0,1.0,phase_2,go,400.0,550.0,1.0,,,,,,,,,yellow,cross
0.0,1.0,0.5,0.0,6.0,6.0,749.4199310003751,4.0,1.0,phase_2,go,400.0,550.0,1.0,,,,,,,,,magenta,diamond
0.0,8.0,4.0,1.0,6.0,6.0,630.5743170005371,4.0,1.0,phase_2,go,400.0,550.0,1.0,,,,,,,,,green,I
0.0,8.0,4.0,1.0,6.0,6.0,622.0000220000657,4.0,1.0,phase_2,stop,400.0,550.0,3.0,,,,,,,,,green,I
0.0,7.0,2.0,1.0,6.0,6.0,379.7678509999969,4.0,1.0,phase_2,stop,400.0,500.0,3.0,,,,,,,,,orange,square
0.0,1.0,0.5,0.0,6.0,6.0,1011.1319719999301,4.0,1.0,phase_2,go,400.0,450.0,1.0,,,,,,,,,magenta,diamond
0.0,5.0,0.5,1.0,6.0,6.0,395.4381430003195,4.0,1.0,phase_2,go,400.0,450.0,1.0,,,,,,,,,cyan,triangle
0.0,5.0,0.5,1.0,6.0,6.0,386.4413559995228,4.0,1.0,phase_2,stop,400.0,450.0,3.0,,,,,,,,,cyan,triangle
0.0,1.0,0.5,0.0,6.0,6.0,705.2283809998698,4.0,1.0,phase_2,go,400.0,400.0,1.0,,,,,,,,,magenta,diamond
0.0,5.0,0.5,1.0,5.0,0.0,0.0,4.0,1.0,phase_2,stop,400.0,400.0,4.0,,,,,,,,,cyan,triangle
0.0,4.0,4.0,0.0,6.0,6.0,999.6376359995338,4.0,1.0,phase_2,go,450.0,400.0,1.0,,,,,,,,,blue,flipped triangle
0.0,7.0,2.0,1.0,5.0,5.0,519.0172780003195,4.0,1.0,phase_2,stop,450.0,400.0,3.0,,,,,,,,,orange,square
0.0,5.0,0.5,1.0,5.0,5.0,526.7646090005655,4.0,1.0,phase_2,go,400.0,400.0,1.0,,,,,,,,,cyan,triangle
0.0,3.0,2.0,0.0,6.0,6.0,414.3637320003108,4.0,1.0,phase_2,go,400.0,400.0,1.0,,,,,,,,,yellow,cross
0.0,7.0,2.0,1.0,5.0,5.0,437.6907189998746,4.0,1.0,phase_2,stop,400.0,400.0,3.0,,,,,,,,,orange,square
0.0,1.0,0.5,0.0,5.0,5.0,606.7000920002101,4.0,1.0,phase_2,go,350.0,400.0,1.0,,,,,,,,,magenta,diamond
0.0,5.0,0.5,1.0,5.0,5.0,447.7714399999968,5.0,1.0,phase_2,stop,350.0,400.0,3.0,,,,,,,,,cyan,triangle
0.0,3.0,2.0,0.0,5.0,5.0,511.6801200001646,5.0,1.0,phase_2,go,300.0,400.0,1.0,,,,,,,,,yellow,cross
0.0,2.0,1.0,0.0,5.0,5.0,375.5721609995817,5.0,1.0,phase_2,go,300.0,400.0,1.0,,,,,,,,,white,circle
0.0,2.0,1.0,0.0,5.0,5.0,365.960181000446,5.0,1.0,phase_2,go,300.0,400.0,1.0,,,,,,,,,white,circle
0.0,4.0,4.0,0.0,5.0,5.0,358.0395129993121,5.0,1.0,phase_2,go,300.0,400.0,1.0,,,,,,,,,blue,flipped triangle
0.0,2.0,1.0,0.0,6.0,6.0,371.6306970000005,5.0,1.0,phase_2,go,300.0,400.0,1.0,,,,,,,,,white,circle
0.0,4.0,4.0,0.0,5.0,5.0,307.1147529999507,5.0,1.0,phase_2,go,300.0,400.0,1.0,,,,,,,,,blue,flipped triangle
0.0,2.0,1.0,0.0,6.0,6.0,427.507993999825,5.0,1.0,phase_2,go,300.0,400.0,1.0,,,,,,,,,white,circle
0.0,2.0,1.0,0.0,5.0,5.0,336.9670049996784,5.0,1.0,phase_2,go,300.0,400.0,1.0,,,,,,,,,white,circle
0.0,5.0,0.5,1.0,6.0,6.0,442.630146000738,5.0,1.0,phase_2,stop,300.0,400.0,3.0,,,,,,,,,cyan,triangle
0.0,1.0,0.5,0.0,6.0,6.0,976.6743330001192,5.0,1.0,phase_2,go,300.0,350.0,1.0,,,,,,,,,magenta,diamond
0.0,7.0,2.0,1.0,5.0,0.0,0.0,5.0,1.0,phase_2,stop,300.0,350.0,4.0,,,,,,,,,orange,square
0.0,4.0,4.0,0.0,6.0,6.0,848.6727070003326,5.0,1.0,phase_2,go,350.0,350.0,1.0,,,,,,,,,blue,flipped triangle
0.0,5.0,0.5,1.0,6.0,0.0,0.0,5.0,1.0,phase_2,stop,350.0,350.0,4.0,,,,,,,,,cyan,triangle
0.0,1.0,0.5,0.0,5.0,5.0,599.5812770006523,5.0,1.0,phase_2,go,350.0,400.0,1.0,,,,,,,,,magenta,diamond
0.0,2.0,1.0,0.0,6.0,6.0,375.2558650003266,5.0,1.0,phase_2,go,350.0,400.0,1.0,,,,,,,,,white,circle
0.0,3.0,2.0,0.0,6.0,6.0,748.8523930005613,5.0,1.0,phase_2,go,350.0,400.0,1.0,,,,,,,,,yellow,cross
0.0,1.0,0.5,0.0,6.0,6.0,460.3476070005854,5.0,1.0,phase_2,go,350.0,400.0,1.0,,,,,,,,,magenta,diamond
0.0,1.0,0.5,0.0,6.0,6.0,698.9524969994818,5.0,1.0,phase_2,go,350.0,400.0,1.0,,,,,,,,,magenta,diamond
0.0,3.0,2.0,0.0,6.0,6.0,580.7998290001706,5.0,1.0,phase_2,go,350.0,400.0,1.0,,,,,,,,,yellow,cross
0.0,1.0,0.5,0.0,5.0,5.0,657.6778410008046,5.0,1.0,phase_2,go,350.0,400.0,1.0,,,,,,,,,magenta,diamond
0.0,6.0,1.0,1.0,6.0,6.0,585.7765929995367,5.0,1.0,phase_2,go,350.0,400.0,1.0,,,,,,,,,gray,hexagon
0.0,1.0,0.5,0.0,5.0,5.0,322.2605029995975,5.0,1.0,phase_2,go,350.0,400.0,1.0,,,,,,,,,magenta,diamond
0.0,7.0,2.0,1.0,6.0,6.0,392.2982289996071,5.0,1.0,phase_2,stop,350.0,400.0,3.0,,,,,,,,,orange,square
0.0,2.0,1.0,0.0,6.0,6.0,705.3646119993573,5.0,1.0,phase_2,go,350.0,350.0,1.0,,,,,,,,,white,circle
0.0,4.0,4.0,0.0,6.0,6.0,784.4737320001514,5.0,1.0,phase_2,go,350.0,350.0,1.0,,,,,,,,,blue,flipped triangle
0.0,2.0,1.0,0.0,6.0,6.0,717.8666959998736,5.0,1.0,phase_2,go,350.0,350.0,1.0,,,,,,,,,white,circle
0.0,5.0,0.5,1.0,6.0,0.0,0.0,5.0,1.0,phase_2,stop,350.0,350.0,4.0,,,,,,,,,cyan,triangle
0.0,3.0,2.0,0.0,5.0,5.0,526.4566249998097,5.0,1.0,phase_2,go,350.0,400.0,1.0,,,,,,,,,yellow,cross
0.0,2.0,1.0,0.0,5.0,5.0,637.5437409997176,5.0,1.0,phase_2,go,350.0,400.0,1.0,,,,,,,,,white,circle
0.0,7.0,2.0,1.0,5.0,5.0,430.2443120004682,5.0,1.0,phase_2,stop,350.0,400.0,3.0,,,,,,,,,orange,square
0.0,5.0,0.5,1.0,5.0,5.0,884.6886080000331,5.0,1.0,phase_2,go,300.0,400.0,1.0,,,,,,,,,cyan,triangle
0.0,7.0,2.0,1.0,6.0,0.0,0.0,5.0,1.0,phase_2,stop,300.0,400.0,4.0,,,,,,,,,orange,square
0.0,6.0,1.0,1.0,5.0,0.0,0.0,5.0,1.0,phase_2,stop,300.0,450.0,4.0,,,,,,,,,gray,hexagon
0.0,3.0,2.0,0.0,5.0,5.0,1051.1079909992986,5.0,1.0,phase_2,go,350.0,450.0,1.0,,,,,,,,,yellow,cross
0.0,3.0,2.0,0.0,5.0,5.0,321.0895259999233,5.0,1.0,phase_2,go,350.0,450.0,1.0,,,,,,,,,yellow,cross
0.0,4.0,4.0,0.0,6.0,6.0,446.4511569995011,6.0,1.0,phase_2,go,350.0,450.0,1.0,,,,,,,,,blue,flipped triangle
0.0,1.0,0.5,0.0,5.0,5.0,415.3251649995582,6.0,1.0,phase_2,go,350.0,450.0,1.0,,,,,,,,,magenta,diamond
0.0,1.0,0.5,0.0,6.0,6.0,533.0871149999439,6.0,1.0,phase_2,go,350.0,450.0,1.0,,,,,,,,,magenta,diamond
0.0,5.0,0.5,1.0,5.0,5.0,325.722634000158,6.0,1.0,phase_2,stop,350.0,450.0,3.0,,,,,,,,,cyan,triangle
0.0,8.0,4.0,1.0,6.0,6.0,468.656959999862,6.0,1.0,phase_2,stop,300.0,450.0,3.0,,,,,,,,,green,I
0.0,2.0,1.0,0.0,5.0,5.0,339.9738329999309,6.0,1.0,phase_2,go,300.0,400.0,1.0,,,,,,,,,white,circle
0.0,3.0,2.0,0.0,5.0,5.0,346.8171089998577,6.0,1.0,phase_2,go,300.0,400.0,1.0,,,,,,,,,yellow,cross
0.0,4.0,4.0,0.0,5.0,5.0,353.9519860005384,6.0,1.0,phase_2,go,300.0,400.0,1.0,,,,,,,,,blue,flipped triangle
0.0,8.0,4.0,1.0,5.0,5.0,318.0389550007021,6.0,1.0,phase_2,stop,300.0,400.0,3.0,,,,,,,,,green,I
0.0,7.0,2.0,1.0,5.0,0.0,0.0,6.0,1.0,phase_2,stop,250.0,400.0,4.0,,,,,,,,,orange,square
0.0,8.0,4.0,1.0,5.0,5.0,728.3449489996201,6.0,1.0,phase_2,go,300.0,400.0,1.0,,,,,,,,,green,I
0.0,4.0,4.0,0.0,6.0,6.0,319.5076559995868,6.0,1.0,phase_2,go,300.0,400.0,1.0,,,,,,,,,blue,flipped triangle
0.0,2.0,1.0,0.0,6.0,6.0,408.7176740003997,6.0,1.0,phase_2,go,300.0,400.0,1.0,,,,,,,,,white,circle
0.0,6.0,1.0,1.0,5.0,5.0,398.061824999786,6.0,1.0,phase_2,go,300.0,400.0,1.0,,,,,,,,,gray,hexagon
0.0,8.0,4.0,1.0,5.0,5.0,447.202549999929,6.0,1.0,phase_2,stop,300.0,400.0,3.0,,,,,,,,,green,I
0.0,7.0,2.0,1.0,6.0,6.0,382.8570929999841,6.0,1.0,phase_2,stop,250.0,400.0,3.0,,,,,,,,,orange,square
0.0,3.0,2.0,0.0,5.0,5.0,484.3856859997686,6.0,1.0,phase_2,go,250.0,350.0,1.0,,,,,,,,,yellow,cross
0.0,3.0,2.0,0.0,6.0,6.0,373.8074729999425,6.0,1.0,phase_2,go,250.0,350.0,1.0,,,,,,,,,yellow,cross
0.0,8.0,4.0,1.0,5.0,5.0,436.5917529994476,6.0,1.0,phase_2,stop,250.0,350.0,3.0,,,,,,,,,green,I
0.0,1.0,0.5,0.0,5.0,5.0,881.82142200003,6.0,1.0,phase_2,go,200.0,350.0,1.0,,,,,,,,,magenta,diamond
0.0,6.0,1.0,1.0,5.0,0.0,0.0,6.0,1.0,phase_2,stop,200.0,350.0,4.0,,,,,,,,,gray,hexagon
0.0,6.0,1.0,1.0,5.0,0.0,0.0,6.0,1.0,phase_2,stop,250.0,350.0,4.0,,,,,,,,,gray,hexagon
0.0,6.0,1.0,1.0,6.0,0.0,0.0,6.0,1.0,phase_2,stop,300.0,350.0,4.0,,,,,,,,,gray,hexagon
0.0,8.0,4.0,1.0,5.0,5.0,1120.0032019996795,6.0,1.0,phase_2,go,300.0,400.0,1.0,,,,,,,,,green,I
0.0,5.0,0.5,1.0,6.0,0.0,0.0,6.0,1.0,phase_2,stop,300.0,400.0,4.0,,,,,,,,,cyan,triangle
0.0,6.0,1.0,1.0,5.0,5.0,993.140098999902,6.0,1.0,phase_2,go,300.0,450.0,1.0,,,,,,,,,gray,hexagon
0.0,8.0,4.0,1.0,6.0,0.0,0.0,6.0,1.0,phase_2,stop,300.0,450.0,4.0,,,,,,,,,green,I
0.0,5.0,0.5,1.0,6.0,6.0,990.0417910002944,6.0,1.0,phase_2,go,300.0,500.0,1.0,,,,,,,,,cyan,triangle
0.0,6.0,1.0,1.0,6.0,6.0,822.0421870000791,6.0,1.0,phase_2,go,300.0,500.0,1.0,,,,,,,,,gray,hexagon
0.0,6.0,1.0,1.0,5.0,0.0,0.0,6.0,1.0,phase_2,stop,300.0,500.0,4.0,,,,,,,,,gray,hexagon
0.0,7.0,2.0,1.0,5.0,5.0,573.2278589994166,6.0,1.0,phase_2,go,350.0,500.0,1.0,,,,,,,,,orange,square
0.0,5.0,0.5,1.0,5.0,0.0,0.0,6.0,1.0,phase_2,stop,350.0,500.0,4.0,,,,,,,,,cyan,triangle
0.0,3.0,2.0,0.0,5.0,5.0,610.7221950005624,6.0,1.0,phase_2,go,400.0,500.0,1.0,,,,,,,,,yellow,cross
0.0,4.0,4.0,0.0,5.0,5.0,562.9850239993175,6.0,1.0,phase_2,go,400.0,500.0,1.0,,,,,,,,,blue,flipped triangle
0.0,2.0,1.0,0.0,5.0,5.0,587.1325980006077,6.0,1.0,phase_2,go,400.0,500.0,1.0,,,,,,,,,white,circle
0.0,3.0,2.0,0.0,5.0,5.0,400.660789999165,6.0,1.0,phase_2,go,400.0,500.0,1.0,,,,,,,,,yellow,cross
0.0,4.0,4.0,0.0,5.0,5.0,806.9415349991687,7.0,1.0,phase_2,go,400.0,500.0,1.0,,,,,,,,,blue,flipped triangle
0.0,7.0,2.0,1.0,6.0,6.0,534.8423430004914,7.0,1.0,phase_2,go,400.0,500.0,1.0,,,,,,,,,orange,square
0.0,1.0,0.5,0.0,5.0,5.0,310.4243570005565,7.0,1.0,phase_2,go,400.0,500.0,1.0,,,,,,,,,magenta,diamond
0.0,6.0,1.0,1.0,5.0,5.0,389.2026839994287,7.0,1.0,phase_2,stop,400.0,500.0,3.0,,,,,,,,,gray,hexagon
0.0,7.0,2.0,1.0,5.0,0.0,0.0,7.0,1.0,phase_2,stop,350.0,500.0,4.0,,,,,,,,,orange,square
0.0,2.0,1.0,0.0,6.0,6.0,548.3354340003643,7.0,1.0,phase_2,go,400.0,500.0,1.0,,,,,,,,,white,circle
0.0,6.0,1.0,1.0,5.0,5.0,424.1025720002653,7.0,1.0,phase_2,stop,400.0,500.0,3.0,,,,,,,,,gray,hexagon
0.0,4.0,4.0,0.0,5.0,5.0,546.0069880000447,7.0,1.0,phase_2,go,350.0,500.0,1.0,,,,,,,,,blue,flipped triangle
0.0,3.0,2.0,0.0,6.0,6.0,466.3819699999294,7.0,1.0,phase_2,go,350.0,500.0,1.0,,,,,,,,,yellow,cross
0.0,3.0,2.0,0.0,5.0,5.0,664.6555249999437,7.0,1.0,phase_2,go,350.0,500.0,1.0,,,,,,,,,yellow,cross
0.0,2.0,1.0,0.0,5.0,5.0,680.7676300004459,7.0,1.0,phase_2,go,350.0,500.0,1.0,,,,,,,,,white,circle
0.0,4.0,4.0,0.0,5.0,5.0,913.3505749996402,7.0,1.0,phase_2,go,350.0,500.0,1.0,,,,,,,,,blue,flipped triangle
0.0,6.0,1.0,1.0,5.0,0.0,0.0,7.0,1.0,phase_2,stop,350.0,500.0,4.0,,,,,,,,,gray,hexagon
0.0,2.0,1.0,0.0,6.0,6.0,631.3113449996308,7.0,1.0,phase_2,go,400.0,500.0,1.0,,,,,,,,,white,circle
0.0,8.0,4.0,1.0,6.0,6.0,534.1928550005832,7.0,1.0,phase_2,stop,400.0,500.0,3.0,,,,,,,,,green,I
0.0,7.0,2.0,1.0,5.0,5.0,654.210816000159,7.0,1.0,phase_2,go,400.0,450.0,1.0,,,,,,,,,orange,square
0.0,4.0,4.0,0.0,6.0,6.0,662.7543229997173,7.0,1.0,phase_2,go,400.0,450.0,1.0,,,,,,,,,blue,flipped triangle
0.0,8.0,4.0,1.0,5.0,5.0,421.3514849998319,7.0,1.0,phase_2,stop,400.0,450.0,3.0,,,,,,,,,green,I
0.0,1.0,0.5,0.0,6.0,6.0,563.6038410002584,7.0,1.0,phase_2,go,350.0,450.0,1.0,,,,,,,,,magenta,diamond
0.0,4.0,4.0,0.0,6.0,6.0,820.3591080000479,7.0,1.0,phase_2,go,350.0,450.0,1.0,,,,,,,,,blue,flipped triangle
0.0,3.0,2.0,0.0,5.0,5.0,354.659902000094,7.0,1.0,phase_2,go,350.0,450.0,1.0,,,,,,,,,yellow,cross
0.0,5.0,0.5,1.0,5.0,5.0,410.5116420005288,7.0,1.0,phase_2,stop,350.0,450.0,3.0,,,,,,,,,cyan,triangle
0.0,1.0,0.5,0.0,5.0,5.0,715.0603170002796,7.0,1.0,phase_2,go,300.0,450.0,1.0,,,,,,,,,magenta,diamond
0.0,7.0,2.0,1.0,5.0,5.0,472.9937350002728,7.0,1.0,phase_2,stop,300.0,450.0,3.0,,,,,,,,,orange,square
0.0,4.0,4.0,0.0,5.0,0.0,0.0,7.0,1.0,phase_2,go,250.0,450.0,5.0,,,,,,,,,blue,flipped triangle
0.0,4.0,4.0,0.0,5.0,5.0,399.3918659998599,7.0,1.0,phase_2,go,250.0,450.0,1.0,,,,,,,,,blue,flipped triangle
0.0,3.0,2.0,0.0,6.0,6.0,624.1366000003836,7.0,1.0,phase_2,go,250.0,450.0,1.0,,,,,,,,,yellow,cross
0.0,4.0,4.0,0.0,6.0,6.0,462.1842810001908,7.0,1.0,phase_2,go,250.0,450.0,1.0,,,,,,,,,blue,flipped triangle
0.0,6.0,1.0,1.0,6.0,6.0,415.9907510002085,7.0,1.0,phase_2,go,250.0,450.0,1.0,,,,,,,,,gray,hexagon
0.0,7.0,2.0,1.0,6.0,6.0,629.7648879999542,7.0,1.0,phase_2,stop,250.0,450.0,3.0,,,,,,,,,orange,square
0.0,1.0,0.5,0.0,5.0,5.0,420.2889549997053,7.0,1.0,phase_2,go,250.0,400.0,1.0,,,,,,,,,magenta,diamond
0.0,7.0,2.0,1.0,6.0,6.0,326.0782269999254,7.0,1.0,phase_2,stop,250.0,400.0,3.0,,,,,,,,,orange,square
0.0,7.0,2.0,1.0,6.0,6.0,1115.35705300048,7.0,1.0,phase_2,go,250.0,350.0,1.0,,,,,,,,,orange,square
0.0,3.0,2.0,0.0,5.0,5.0,650.7328099996812,7.0,1.0,phase_2,go,250.0,350.0,1.0,,,,,,,,,yellow,cross
0.0,2.0,1.0,0.0,5.0,5.0,713.9890270000251,7.0,1.0,phase_2,go,250.0,350.0,1.0,,,,,,,,,white,circle
0.0,2.0,1.0,0.0,5.0,5.0,793.4805599998072,7.0,1.0,phase_2,go,250.0,350.0,1.0,,,,,,,,,white,circle
0.0,7.0,2.0,1.0,5.0,5.0,529.8278809996191,8.0,1.0,phase_2,go,250.0,350.0,1.0,,,,,,,,,orange,square
0.0,2.0,1.0,0.0,6.0,5.0,408.9396299996224,8.0,1.0,phase_2,go,250.0,350.0,2.0,,,,,,,,,white,circle
0.0,1.0,0.5,0.0,5.0,5.0,487.7654919991983,8.0,1.0,phase_2,go,250.0,350.0,1.0,,,,,,,,,magenta,diamond
0.0,6.0,1.0,1.0,5.0,5.0,574.4615409994367,8.0,1.0,phase_2,stop,250.0,350.0,3.0,,,,,,,,,gray,hexagon
0.0,5.0,0.5,1.0,5.0,5.0,414.1007489997719,8.0,1.0,phase_2,go,200.0,350.0,1.0,,,,,,,,,cyan,triangle
0.0,6.0,1.0,1.0,6.0,6.0,399.2617039994002,8.0,1.0,phase_2,stop,200.0,350.0,3.0,,,,,,,,,gray,hexagon
0.0,5.0,0.5,1.0,6.0,0.0,0.0,8.0,1.0,phase_2,stop,200.0,300.0,4.0,,,,,,,,,cyan,triangle
0.0,7.0,2.0,1.0,6.0,6.0,947.2904889998972,8.0,1.0,phase_2,go,200.0,350.0,1.0,,,,,,,,,orange,square
0.0,1.0,0.5,0.0,5.0,5.0,733.3268489992406,8.0,1.0,phase_2,go,200.0,350.0,1.0,,,,,,,,,magenta,diamond
0.0,4.0,4.0,0.0,6.0,6.0,979.0504419997887,8.0,1.0,phase_2,go,200.0,350.0,1.0,,,,,,,,,blue,flipped triangle
0.0,3.0,2.0,0.0,6.0,6.0,761.4390909993745,8.0,1.0,phase_2,go,200.0,350.0,1.0,,,,,,,,,yellow,cross
0.0,7.0,2.0,1.0,6.0,6.0,635.0961910002297,8.0,1.0,phase_2,go,200.0,350.0,1.0,,,,,,,,,orange,square
0.0,3.0,2.0,0.0,5.0,5.0,808.8964990001841,8.0,1.0,phase_2,go,200.0,350.0,1.0,,,,,,,,,yellow,cross
0.0,6.0,1.0,1.0,6.0,0.0,0.0,8.0,1.0,phase_2,stop,200.0,350.0,4.0,,,,,,,,,gray,hexagon
0.0,1.0,0.5,0.0,5.0,5.0,681.4285390000805,8.0,1.0,phase_2,go,200.0,400.0,1.0,,,,,,,,,magenta,diamond
0.0,4.0,4.0,0.0,6.0,6.0,865.2239339999142,8.0,1.0,phase_2,go,200.0,400.0,1.0,,,,,,,,,blue,flipped triangle
0.0,8.0,4.0,1.0,6.0,6.0,654.7453029997996,8.0,1.0,phase_2,go,200.0,400.0,1.0,,,,,,,,,green,I
0.0,8.0,4.0,1.0,6.0,6.0,574.9144410001463,8.0,1.0,phase_2,go,200.0,400.0,1.0,,,,,,,,,green,I
0.0,1.0,0.5,0.0,5.0,5.0,415.3913939999256,8.0,1.0,phase_2,go,200.0,400.0,1.0,,,,,,,,,magenta,diamond
0.0,5.0,0.5,1.0,5.0,5.0,429.4957040001463,8.0,1.0,phase_2,go,200.0,400.0,1.0,,,,,,,,,cyan,triangle
0.0,4.0,4.0,0.0,5.0,5.0,612.0816129996456,8.0,1.0,phase_2,go,200.0,400.0,1.0,,,,,,,,,blue,flipped triangle
0.0,6.0,1.0,1.0,6.0,0.0,0.0,8.0,1.0,phase_2,stop,200.0,400.0,4.0,,,,,,,,,gray,hexagon
0.0,6.0,1.0,1.0,5.0,5.0,363.7998009999137,8.0,1.0,phase_2,stop,200.0,450.0,3.0,,,,,,,,,gray,hexagon
0.0,7.0,2.0,1.0,6.0,6.0,482.2952790000272,8.0,1.0,phase_2,go,150.0,450.0,1.0,,,,,,,,,orange,square
0.0,6.0,1.0,1.0,5.0,0.0,0.0,8.0,1.0,phase_2,stop,150.0,450.0,4.0,,,,,,,,,gray,hexagon
0.0,5.0,0.5,1.0,6.0,6.0,561.2620000001698,8.0,1.0,phase_2,go,200.0,450.0,1.0,,,,,,,,,cyan,triangle
0.0,1.0,0.5,0.0,5.0,5.0,1066.2653339995811,8.0,1.0,phase_2,go,200.0,450.0,1.0,,,,,,,,,magenta,diamond
0.0,5.0,0.5,1.0,6.0,6.0,319.5569110002907,8.0,1.0,phase_2,go,200.0,450.0,1.0,,,,,,,,,cyan,triangle
0.0,3.0,2.0,0.0,6.0,6.0,344.6689350002998,8.0,1.0,phase_2,go,200.0,450.0,1.0,,,,,,,,,yellow,cross
0.0,7.0,2.0,1.0,6.0,6.0,358.72413000015507,8.0,1.0,phase_2,stop,200.0,450.0,3.0,,,,,,,,,orange,square
0.0,1.0,0.5,0.0,5.0,5.0,405.6342740004766,8.0,1.0,phase_2,go,200.0,400.0,1.0,,,,,,,,,magenta,diamond
0.0,1.0,0.5,0.0,6.0,6.0,501.3825480000378,8.0,1.0,phase_2,go,200.0,400.0,1.0,,,,,,,,,magenta,diamond
0.0,3.0,2.0,0.0,6.0,6.0,524.8455790006119,8.0,1.0,phase_2,go,200.0,400.0,1.0,,,,,,,,,yellow,cross
0.0,2.0,1.0,0.0,6.0,6.0,667.7879820008457,8.0,1.0,phase_2,go,200.0,400.0,1.0,,,,,,,,,white,circle
0.0,8.0,4.0,1.0,5.0,0.0,0.0,8.0,1.0,phase_2,stop,200.0,400.0,4.0,,,,,,,,,green,I
0.0,8.0,4.0,1.0,6.0,0.0,0.0,8.0,1.0,phase_2,stop,250.0,400.0,4.0,,,,,,,,,green,I
0.0,6.0,1.0,1.0,7.0,3.0,1904.7283800000516,1.0,2.0,phase_3,,,,,696.0,6.0,116.0,232.0,696.0,580.0,348.0,464.0,gray,hexagon
0.0,1.0,0.5,0.0,7.0,2.0,2601.9943609999245,1.0,1.0,phase_3,,,,,384.0,2.0,960.0,384.0,576.0,1152.0,768.0,192.0,magenta,diamond
0.0,5.0,0.5,1.0,7.0,1.0,1597.0021389994145,1.0,1.0,phase_3,,,,,308.0,2.0,308.0,462.0,924.0,154.0,616.0,770.0,cyan,triangle
0.0,7.0,2.0,1.0,7.0,2.0,2711.314266000045,1.0,1.0,phase_3,,,,,346.0,2.0,519.0,346.0,1038.0,692.0,865.0,173.0,orange,square
0.0,2.0,1.0,0.0,7.0,4.0,2230.057294999824,1.0,1.0,phase_3,,,,,154.0,1.0,308.0,616.0,770.0,154.0,924.0,462.0,white,circle
0.0,5.0,0.5,1.0,7.0,4.0,2855.3761670000317,1.0,1.0,phase_3,,,,,384.0,2.0,576.0,192.0,1152.0,384.0,960.0,768.0,cyan,triangle
0.0,5.0,0.5,1.0,7.0,4.0,776.2413390000802,1.0,1.0,phase_3,,,,,384.0,2.0,960.0,576.0,192.0,384.0,1152.0,768.0,cyan,triangle
0.0,5.0,0.5,1.0,7.0,4.0,1785.0358249997953,1.0,1.0,phase_3,,,,,405.0,3.0,540.0,675.0,135.0,405.0,810.0,270.0,cyan,triangle
0.0,1.0,0.5,0.0,7.0,4.0,1076.5990549998603,1.0,1.0,phase_3,,,,,580.0,5.0,232.0,696.0,464.0,580.0,116.0,348.0,magenta,diamond
0.0,2.0,1.0,0.0,7.0,3.0,1236.5550040003654,1.0,1.0,phase_3,,,,,173.0,1.0,692.0,1038.0,173.0,346.0,519.0,865.0,white,circle
0.0,3.0,2.0,0.0,7.0,2.0,3109.249197999816,1.0,1.0,phase_3,,,,,768.0,4.0,960.0,768.0,384.0,1152.0,192.0,576.0,yellow,cross
0.0,6.0,1.0,1.0,7.0,4.0,1609.4702390000748,1.0,1.0,phase_3,,,,,692.0,4.0,346.0,865.0,1038.0,692.0,173.0,519.0,gray,hexagon
0.0,8.0,4.0,1.0,7.0,5.0,2810.604566999245,1.0,1.0,phase_3,,,,,696.0,6.0,464.0,580.0,116.0,232.0,696.0,348.0,green,I
0.0,8.0,4.0,1.0,7.0,5.0,547.2681350001949,1.0,1.0,phase_3,,,,,519.0,3.0,692.0,173.0,346.0,865.0,519.0,1038.0,green,I
0.0,3.0,2.0,0.0,7.0,4.0,1402.7465839999422,1.0,1.0,phase_3,,,,,924.0,6.0,154.0,308.0,616.0,924.0,770.0,462.0,yellow,cross
0.0,6.0,1.0,1.0,7.0,1.0,2861.6452459991706,1.0,1.0,phase_3,,,,,576.0,3.0,576.0,960.0,192.0,768.0,384.0,1152.0,gray,hexagon
0.0,1.0,0.5,0.0,7.0,1.0,2461.3988230003088,1.0,1.0,phase_3,,,,,464.0,4.0,464.0,348.0,580.0,696.0,232.0,116.0,magenta,diamond
0.0,7.0,2.0,1.0,7.0,1.0,1926.4178799994625,1.0,1.0,phase_3,,,,,405.0,3.0,405.0,540.0,810.0,270.0,135.0,675.0,orange,square
0.0,6.0,1.0,1.0,7.0,5.0,2311.8725280000945,1.0,1.0,phase_3,,,,,675.0,5.0,270.0,810.0,540.0,405.0,675.0,135.0,gray,hexagon
0.0,4.0,4.0,0.0,7.0,1.0,1505.6483730004402,1.0,1.0,phase_3,,,,,348.0,3.0,348.0,116.0,464.0,232.0,580.0,696.0,blue,flipped triangle
0.0,6.0,1.0,1.0,7.0,6.0,3431.663015000595,2.0,1.0,phase_3,,,,,519.0,3.0,346.0,1038.0,692.0,173.0,865.0,519.0,gray,hexagon
0.0,3.0,2.0,0.0,7.0,5.0,1305.0520690003395,2.0,1.0,phase_3,,,,,768.0,4.0,1152.0,192.0,384.0,576.0,768.0,960.0,yellow,cross
0.0,3.0,2.0,0.0,7.0,2.0,3410.0738160004767,2.0,1.0,phase_3,,,,,810.0,6.0,135.0,810.0,405.0,675.0,270.0,540.0,yellow,cross
0.0,3.0,2.0,0.0,7.0,6.0,1963.605556999937,2.0,1.0,phase_3,,,,,675.0,5.0,405.0,135.0,810.0,540.0,270.0,675.0,yellow,cross
0.0,8.0,4.0,1.0,7.0,5.0,1588.365454000268,2.0,1.0,phase_3,,,,,384.0,2.0,576.0,192.0,960.0,768.0,384.0,1152.0,green,I
0.0,6.0,1.0,1.0,7.0,6.0,1752.3251760003404,2.0,1.0,phase_3,,,,,675.0,5.0,135.0,405.0,270.0,810.0,540.0,675.0,gray,hexagon
0.0,2.0,1.0,0.0,7.0,1.0,1583.3303769995837,2.0,1.0,phase_3,,,,,116.0,1.0,116.0,464.0,348.0,232.0,696.0,580.0,white,circle
0.0,1.0,0.5,0.0,7.0,4.0,1690.7059479999589,2.0,1.0,phase_3,,,,,405.0,3.0,270.0,810.0,135.0,405.0,675.0,540.0,magenta,diamond
0.0,3.0,2.0,0.0,7.0,4.0,2491.6531070002748,2.0,1.0,phase_3,,,,,865.0,5.0,173.0,346.0,1038.0,865.0,519.0,692.0,yellow,cross
0.0,1.0,0.5,0.0,7.0,2.0,1715.763786000025,2.0,1.0,phase_3,,,,,346.0,2.0,173.0,346.0,692.0,519.0,865.0,1038.0,magenta,diamond
0.0,1.0,0.5,0.0,7.0,1.0,1701.804051000181,2.0,1.0,phase_3,,,,,462.0,3.0,462.0,616.0,154.0,924.0,770.0,308.0,magenta,diamond
0.0,2.0,1.0,0.0,7.0,5.0,1863.584611999613,2.0,1.0,phase_3,,,,,154.0,1.0,462.0,308.0,616.0,924.0,154.0,770.0,white,circle
0.0,7.0,2.0,1.0,7.0,1.0,2190.2109700004075,2.0,1.0,phase_3,,,,,462.0,3.0,462.0,308.0,770.0,924.0,154.0,616.0,orange,square
0.0,8.0,4.0,1.0,7.0,3.0,4639.493607000077,2.0,1.0,phase_3,,,,,770.0,5.0,308.0,616.0,770.0,154.0,924.0,462.0,green,I
0.0,5.0,0.5,1.0,7.0,6.0,2291.982980999819,2.0,1.0,phase_3,,,,,346.0,2.0,519.0,1038.0,173.0,692.0,865.0,346.0,cyan,triangle
0.0,3.0,2.0,0.0,7.0,4.0,2814.3010740004684,2.0,1.0,phase_3,,,,,1038.0,6.0,865.0,173.0,692.0,1038.0,519.0,346.0,yellow,cross
0.0,5.0,0.5,1.0,7.0,1.0,1727.10206299962,2.0,1.0,phase_3,,,,,232.0,2.0,232.0,464.0,696.0,116.0,580.0,348.0,cyan,triangle
0.0,1.0,0.5,0.0,7.0,5.0,3433.1276829998387,2.0,1.0,phase_3,,,,,346.0,2.0,173.0,692.0,519.0,1038.0,346.0,865.0,magenta,diamond
0.0,4.0,4.0,0.0,7.0,2.0,1715.6191250005577,2.0,1.0,phase_3,,,,,384.0,2.0,576.0,384.0,192.0,768.0,1152.0,960.0,blue,flipped triangle
0.0,8.0,4.0,1.0,7.0,3.0,1459.6850099997027,2.0,1.0,phase_3,,,,,192.0,1.0,576.0,960.0,192.0,384.0,1152.0,768.0,green,I
0.0,7.0,2.0,1.0,7.0,2.0,1678.4772900000462,3.0,1.0,phase_3,,,,,464.0,4.0,348.0,464.0,696.0,232.0,116.0,580.0,orange,square
0.0,4.0,4.0,0.0,7.0,1.0,2038.124415999846,3.0,1.0,phase_3,,,,,270.0,2.0,270.0,540.0,675.0,135.0,810.0,405.0,blue,flipped triangle
0.0,7.0,2.0,1.0,7.0,3.0,2777.6164779998,3.0,1.0,phase_3,,,,,346.0,2.0,865.0,173.0,346.0,1038.0,692.0,519.0,orange,square
0.0,4.0,4.0,0.0,7.0,6.0,2616.896307999923,3.0,1.0,phase_3,,,,,308.0,2.0,154.0,924.0,462.0,770.0,616.0,308.0,blue,flipped triangle
0.0,4.0,4.0,0.0,7.0,5.0,2465.781889000027,3.0,1.0,phase_3,,,,,348.0,3.0,464.0,116.0,696.0,580.0,348.0,232.0,blue,flipped triangle
0.0,4.0,4.0,0.0,7.0,3.0,2124.0541830002257,3.0,1.0,phase_3,,,,,346.0,2.0,519.0,865.0,346.0,692.0,173.0,1038.0,blue,flipped triangle
0.0,2.0,1.0,0.0,7.0,5.0,2310.445730000538,3.0,1.0,phase_3,,,,,192.0,1.0,1152.0,384.0,960.0,576.0,192.0,768.0,white,circle
0.0,6.0,1.0,1.0,7.0,6.0,1941.7631199994505,3.0,1.0,phase_3,,,,,616.0,4.0,924.0,770.0,154.0,462.0,308.0,616.0,gray,hexagon
0.0,3.0,2.0,0.0,7.0,3.0,2672.3297260004983,3.0,1.0,phase_3,,,,,924.0,6.0,770.0,154.0,924.0,462.0,616.0,308.0,yellow,cross
0.0,8.0,4.0,1.0,7.0,5.0,1488.8021460001255,3.0,1.0,phase_3,,,,,675.0,5.0,135.0,540.0,270.0,810.0,675.0,405.0,green,I
0.0,7.0,2.0,1.0,7.0,2.0,1585.2146409997658,3.0,1.0,phase_3,,,,,384.0,2.0,960.0,384.0,1152.0,576.0,192.0,768.0,orange,square
0.0,2.0,1.0,0.0,7.0,3.0,2706.507017000149,3.0,1.0,phase_3,,,,,192.0,1.0,576.0,1152.0,192.0,768.0,384.0,960.0,white,circle
0.0,2.0,1.0,0.0,7.0,6.0,2861.7299100005766,3.0,1.0,phase_3,,,,,135.0,1.0,540.0,810.0,270.0,405.0,675.0,135.0,white,circle
0.0,5.0,0.5,1.0,7.0,4.0,2333.391505999316,3.0,1.0,phase_3,,,,,270.0,2.0,540.0,135.0,675.0,270.0,810.0,405.0,cyan,triangle
0.0,6.0,1.0,1.0,7.0,2.0,2423.756899000182,3.0,1.0,phase_3,,,,,576.0,3.0,384.0,576.0,192.0,1152.0,960.0,768.0,gray,hexagon
0.0,8.0,4.0,1.0,7.0,5.0,2305.970406000597,3.0,1.0,phase_3,,,,,540.0,4.0,405.0,810.0,675.0,270.0,540.0,135.0,green,I
0.0,1.0,0.5,0.0,7.0,6.0,2440.5471219997708,3.0,1.0,phase_3,,,,,462.0,3.0,924.0,770.0,308.0,154.0,616.0,462.0,magenta,diamond
0.0,5.0,0.5,1.0,7.0,3.0,1852.7276300001176,3.0,1.0,phase_3,,,,,346.0,2.0,519.0,173.0,346.0,1038.0,692.0,865.0,cyan,triangle
0.0,2.0,1.0,0.0,7.0,5.0,1388.2277409993549,3.0,1.0,phase_3,,,,,116.0,1.0,348.0,696.0,232.0,580.0,116.0,464.0,white,circle
0.0,4.0,4.0,0.0,7.0,5.0,2414.480743999775,3.0,1.0,phase_3,,,,,270.0,2.0,135.0,540.0,675.0,810.0,270.0,405.0,blue,flipped triangle
0.0,4.0,4.0,0.0,7.0,6.0,1911.0821059994123,4.0,1.0,phase_3,,,,,346.0,2.0,519.0,865.0,173.0,692.0,1038.0,346.0,blue,flipped triangle
0.0,7.0,2.0,1.0,7.0,6.0,1968.3498799995505,4.0,1.0,phase_3,,,,,462.0,3.0,308.0,924.0,154.0,770.0,616.0,462.0,orange,square
0.0,3.0,2.0,0.0,7.0,3.0,3462.95394200024,4.0,1.0,phase_3,,,,,696.0,6.0,348.0,116.0,696.0,232.0,580.0,464.0,yellow,cross
0.0,3.0,2.0,0.0,7.0,2.0,2384.286520999922,4.0,1.0,phase_3,,,,,696.0,6.0,464.0,696.0,348.0,580.0,232.0,116.0,yellow,cross
0.0,1.0,0.5,0.0,7.0,2.0,1666.371156000423,4.0,1.0,phase_3,,,,,384.0,2.0,768.0,384.0,192.0,960.0,1152.0,576.0,magenta,diamond
0.0,2.0,1.0,0.0,7.0,1.0,2044.9876530001347,4.0,1.0,phase_3,,,,,173.0,1.0,173.0,692.0,346.0,865.0,519.0,1038.0,white,circle
0.0,6.0,1.0,1.0,7.0,4.0,1166.38273999979,4.0,1.0,phase_3,,,,,696.0,6.0,580.0,348.0,464.0,696.0,232.0,116.0,gray,hexagon
0.0,5.0,0.5,1.0,7.0,1.0,1629.156540000622,4.0,1.0,phase_3,,,,,348.0,3.0,348.0,696.0,464.0,232.0,116.0,580.0,cyan,triangle
0.0,8.0,4.0,1.0,7.0,6.0,1758.4884849993614,4.0,1.0,phase_3,,,,,154.0,1.0,924.0,616.0,770.0,462.0,308.0,154.0,green,I
0.0,7.0,2.0,1.0,7.0,4.0,2279.320765000193,4.0,1.0,phase_3,,,,,384.0,2.0,960.0,1152.0,192.0,384.0,576.0,768.0,orange,square
0.0,6.0,1.0,1.0,7.0,4.0,1306.2605739996798,4.0,1.0,phase_3,,,,,616.0,4.0,308.0,924.0,154.0,616.0,462.0,770.0,gray,hexagon
0.0,1.0,0.5,0.0,7.0,5.0,1604.845609000222,4.0,1.0,phase_3,,,,,405.0,3.0,540.0,270.0,675.0,810.0,405.0,135.0,magenta,diamond
0.0,2.0,1.0,0.0,7.0,5.0,1603.1275450004614,4.0,1.0,phase_3,,,,,135.0,1.0,540.0,810.0,270.0,675.0,135.0,405.0,white,circle
0.0,4.0,4.0,0.0,7.0,2.0,1590.3325939998467,4.0,1.0,phase_3,,,,,384.0,2.0,960.0,384.0,1152.0,576.0,768.0,192.0,blue,flipped triangle
0.0,7.0,2.0,1.0,7.0,3.0,1208.6590970002362,4.0,1.0,phase_3,,,,,464.0,4.0,696.0,580.0,464.0,348.0,232.0,116.0,orange,square
0.0,7.0,2.0,1.0,7.0,5.0,1606.8691350001243,4.0,1.0,phase_3,,,,,405.0,3.0,810.0,675.0,270.0,540.0,405.0,135.0,orange,square
0.0,5.0,0.5,1.0,7.0,4.0,2640.3216270000485,4.0,1.0,phase_3,,,,,308.0,2.0,924.0,154.0,770.0,308.0,616.0,462.0,cyan,triangle
0.0,8.0,4.0,1.0,7.0,3.0,2057.5800690003234,4.0,1.0,phase_3,,,,,173.0,1.0,1038.0,692.0,173.0,519.0,346.0,865.0,green,I
0.0,4.0,4.0,0.0,7.0,3.0,1730.516861999604,4.0,1.0,phase_3,,,,,308.0,2.0,154.0,770.0,308.0,616.0,462.0,924.0,blue,flipped triangle
0.0,8.0,4.0,1.0,7.0,4.0,2349.3616820005627,4.0,1.0,phase_3,,,,,348.0,3.0,580.0,232.0,696.0,348.0,116.0,464.0,green,I
