raw_reward_magnitude,stim_reward,stepwise_reward_magnitude,paired_with_stopping,quadrant,response,reaction_time,block,num_trial_presentations,which_part,stop_signal_trial_type,left_SSD,right_SSD,accuracy,chosen_bidding_amount,chosen_bidding_level,possible_bid_1,possible_bid_2,possible_bid_3,possible_bid_4,possible_bid_5,possible_bid_6,color_text,shape_text
667.0,7.0,3.0,1.0,2.0,2.0,423.8069240000186,1.0,1.0,part_1,,,,,,,,,,,,,orange,flipped triangle
653.0,3.0,3.0,0.0,2.0,2.0,492.565751001166,1.0,1.0,part_1,,,,,,,,,,,,,gray,circle
1281.0,4.0,4.0,0.0,2.0,2.0,346.6517690012551,1.0,1.0,part_1,,,,,,,,,,,,,cyan,diamond
0.0,1.0,0.0,0.0,4.0,4.0,390.232150999509,1.0,1.0,part_1,,,,,,,,,,,,,white,square
0.0,2.0,0.0,0.0,3.0,3.0,427.029627999218,1.0,1.0,part_1,,,,,,,,,,,,,blue,cross
1277.0,8.0,4.0,1.0,3.0,3.0,438.7422800009517,1.0,1.0,part_1,,,,,,,,,,,,,green,triangle
349.0,6.0,2.0,1.0,3.0,3.0,427.6963569991494,1.0,1.0,part_1,,,,,,,,,,,,,yellow,hexagon
659.0,7.0,3.0,1.0,2.0,2.0,449.7608990004664,1.0,1.0,part_1,,,,,,,,,,,,,orange,flipped triangle
181.0,1.0,1.0,0.0,4.0,4.0,333.4060680008406,1.0,1.0,part_1,,,,,,,,,,,,,white,square
173.0,5.0,1.0,1.0,4.0,4.0,369.9908119997417,1.0,1.0,part_1,,,,,,,,,,,,,magenta,I
655.0,3.0,3.0,0.0,4.0,4.0,342.0896939987869,1.0,1.0,part_1,,,,,,,,,,,,,gray,circle
1297.0,4.0,4.0,0.0,1.0,1.0,498.4478820006188,1.0,1.0,part_1,,,,,,,,,,,,,cyan,diamond
626.0,7.0,3.0,1.0,4.0,4.0,386.39908299956,1.0,1.0,part_1,,,,,,,,,,,,,orange,flipped triangle
0.0,6.0,0.0,1.0,3.0,3.0,395.8880059999501,1.0,1.0,part_1,,,,,,,,,,,,,yellow,hexagon
1312.0,8.0,4.0,1.0,3.0,3.0,393.4898769985011,1.0,1.0,part_1,,,,,,,,,,,,,green,triangle
159.0,1.0,1.0,0.0,3.0,3.0,381.9751030005136,1.0,1.0,part_1,,,,,,,,,,,,,white,square
0.0,4.0,0.0,0.0,4.0,4.0,356.4381469986983,1.0,1.0,part_1,,,,,,,,,,,,,cyan,diamond
328.0,6.0,2.0,1.0,4.0,4.0,335.0771980003628,1.0,1.0,part_1,,,,,,,,,,,,,yellow,hexagon
164.0,1.0,1.0,0.0,3.0,3.0,422.2254880005494,1.0,1.0,part_1,,,,,,,,,,,,,white,square
1293.0,8.0,4.0,1.0,3.0,3.0,387.1610539990797,1.0,1.0,part_1,,,,,,,,,,,,,green,triangle
1298.0,4.0,4.0,0.0,1.0,1.0,620.597713999814,1.0,1.0,part_1,,,,,,,,,,,,,cyan,diamond
1290.0,8.0,4.0,1.0,4.0,4.0,435.5156239998905,1.0,1.0,part_1,,,,,,,,,,,,,green,triangle
148.0,1.0,1.0,0.0,4.0,4.0,320.3907079987402,1.0,1.0,part_1,,,,,,,,,,,,,white,square
1288.0,4.0,4.0,0.0,3.0,3.0,378.9411679990735,1.0,1.0,part_1,,,,,,,,,,,,,cyan,diamond
169.0,1.0,1.0,0.0,4.0,4.0,338.0686000000423,1.0,1.0,part_1,,,,,,,,,,,,,white,square
628.0,3.0,3.0,0.0,1.0,1.0,301.791953999782,1.0,1.0,part_1,,,,,,,,,,,,,gray,circle
0.0,3.0,0.0,0.0,2.0,2.0,600.4913460001262,1.0,1.0,part_1,,,,,,,,,,,,,gray,circle
1298.0,8.0,4.0,1.0,2.0,2.0,367.1951390006143,1.0,1.0,part_1,,,,,,,,,,,,,green,triangle
0.0,8.0,0.0,1.0,3.0,3.0,299.4777709991467,1.0,1.0,part_1,,,,,,,,,,,,,green,triangle
309.0,2.0,2.0,0.0,3.0,3.0,336.1966440006654,1.0,1.0,part_1,,,,,,,,,,,,,blue,cross
311.0,2.0,2.0,0.0,2.0,2.0,498.7318759995105,1.0,1.0,part_1,,,,,,,,,,,,,blue,cross
0.0,2.0,0.0,0.0,2.0,2.0,327.1888100007345,1.0,1.0,part_1,,,,,,,,,,,,,blue,cross
0.0,5.0,0.0,1.0,3.0,3.0,364.7312770008284,1.0,1.0,part_1,,,,,,,,,,,,,magenta,I
329.0,2.0,2.0,0.0,2.0,2.0,554.9016559998563,1.0,1.0,part_1,,,,,,,,,,,,,blue,cross
181.0,5.0,1.0,1.0,2.0,2.0,344.1573119998793,1.0,1.0,part_1,,,,,,,,,,,,,magenta,I
0.0,7.0,0.0,1.0,3.0,3.0,364.9798429996735,1.0,1.0,part_1,,,,,,,,,,,,,orange,flipped triangle
334.0,2.0,2.0,0.0,4.0,4.0,352.2593659999984,1.0,1.0,part_1,,,,,,,,,,,,,blue,cross
655.0,3.0,3.0,0.0,3.0,3.0,317.1591689988418,1.0,1.0,part_1,,,,,,,,,,,,,gray,circle
0.0,4.0,0.0,0.0,4.0,4.0,295.9014079988264,1.0,1.0,part_1,,,,,,,,,,,,,cyan,diamond
0.0,7.0,0.0,1.0,2.0,2.0,364.5960300000297,1.0,1.0,part_1,,,,,,,,,,,,,orange,flipped triangle
155.0,5.0,1.0,1.0,3.0,3.0,387.7571739994891,1.0,1.0,part_1,,,,,,,,,,,,,magenta,I
0.0,5.0,0.0,1.0,3.0,3.0,310.3044899999077,1.0,1.0,part_1,,,,,,,,,,,,,magenta,I
322.0,2.0,2.0,0.0,3.0,3.0,341.2150120002479,1.0,1.0,part_1,,,,,,,,,,,,,blue,cross
347.0,6.0,2.0,1.0,1.0,1.0,385.8197819990892,1.0,1.0,part_1,,,,,,,,,,,,,yellow,hexagon
149.0,1.0,1.0,0.0,4.0,4.0,317.5042920011037,1.0,1.0,part_1,,,,,,,,,,,,,white,square
169.0,5.0,1.0,1.0,4.0,4.0,346.7729120002332,1.0,1.0,part_1,,,,,,,,,,,,,magenta,I
180.0,1.0,1.0,0.0,4.0,4.0,325.5285479990562,1.0,1.0,part_1,,,,,,,,,,,,,white,square
168.0,1.0,1.0,0.0,3.0,3.0,329.6402689993556,1.0,1.0,part_1,,,,,,,,,,,,,white,square
349.0,2.0,2.0,0.0,2.0,2.0,398.2040610007971,1.0,1.0,part_1,,,,,,,,,,,,,blue,cross
156.0,1.0,1.0,0.0,2.0,2.0,370.80685500041,1.0,1.0,part_1,,,,,,,,,,,,,white,square
1323.0,8.0,4.0,1.0,1.0,1.0,488.0251880003925,1.0,1.0,part_1,,,,,,,,,,,,,green,triangle
650.0,7.0,3.0,1.0,2.0,2.0,420.5368330003693,1.0,1.0,part_1,,,,,,,,,,,,,orange,flipped triangle
671.0,7.0,3.0,1.0,1.0,1.0,394.9883419991238,1.0,1.0,part_1,,,,,,,,,,,,,orange,flipped triangle
149.0,5.0,1.0,1.0,2.0,2.0,326.4764070008823,1.0,1.0,part_1,,,,,,,,,,,,,magenta,I
0.0,3.0,0.0,0.0,4.0,4.0,426.409372001217,1.0,1.0,part_1,,,,,,,,,,,,,gray,circle
186.0,1.0,1.0,0.0,2.0,2.0,353.2176869994146,1.0,1.0,part_1,,,,,,,,,,,,,white,square
648.0,7.0,3.0,1.0,2.0,2.0,283.7719130002369,1.0,1.0,part_1,,,,,,,,,,,,,orange,flipped triangle
1302.0,4.0,4.0,0.0,3.0,3.0,449.8916080010531,1.0,1.0,part_1,,,,,,,,,,,,,cyan,diamond
164.0,1.0,1.0,0.0,2.0,2.0,461.6495159989426,1.0,1.0,part_1,,,,,,,,,,,,,white,square
0.0,4.0,0.0,0.0,4.0,4.0,355.9335409991035,1.0,1.0,part_1,,,,,,,,,,,,,cyan,diamond
1309.0,4.0,4.0,0.0,3.0,3.0,311.0657480010559,1.0,1.0,part_1,,,,,,,,,,,,,cyan,diamond
138.0,1.0,1.0,0.0,4.0,4.0,332.4878379989968,1.0,1.0,part_1,,,,,,,,,,,,,white,square
0.0,2.0,0.0,0.0,1.0,1.0,583.8592200016137,1.0,1.0,part_1,,,,,,,,,,,,,blue,cross
634.0,3.0,3.0,0.0,3.0,3.0,355.6556120001914,1.0,1.0,part_1,,,,,,,,,,,,,gray,circle
302.0,6.0,2.0,1.0,2.0,2.0,410.8523029990465,1.0,1.0,part_1,,,,,,,,,,,,,yellow,hexagon
651.0,3.0,3.0,0.0,3.0,3.0,397.4062289998983,1.0,1.0,part_1,,,,,,,,,,,,,gray,circle
633.0,3.0,3.0,0.0,3.0,3.0,372.1191900003759,1.0,1.0,part_1,,,,,,,,,,,,,gray,circle
628.0,7.0,3.0,1.0,4.0,4.0,377.0848269996349,1.0,1.0,part_1,,,,,,,,,,,,,orange,flipped triangle
0.0,5.0,0.0,1.0,3.0,3.0,323.1806389994744,1.0,1.0,part_1,,,,,,,,,,,,,magenta,I
150.0,1.0,1.0,0.0,3.0,3.0,296.1480289995961,1.0,1.0,part_1,,,,,,,,,,,,,white,square
1323.0,4.0,4.0,0.0,4.0,4.0,358.9331099992705,1.0,1.0,part_1,,,,,,,,,,,,,cyan,diamond
0.0,1.0,0.0,0.0,3.0,3.0,299.8569240007782,1.0,1.0,part_1,,,,,,,,,,,,,white,square
0.0,8.0,0.0,1.0,3.0,3.0,317.520541999329,1.0,1.0,part_1,,,,,,,,,,,,,green,triangle
655.0,7.0,3.0,1.0,3.0,3.0,332.7774779991159,1.0,1.0,part_1,,,,,,,,,,,,,orange,flipped triangle
164.0,1.0,1.0,0.0,4.0,4.0,358.9355099993554,1.0,1.0,part_1,,,,,,,,,,,,,white,square
648.0,3.0,3.0,0.0,4.0,4.0,435.7887570004095,1.0,1.0,part_1,,,,,,,,,,,,,gray,circle
661.0,3.0,3.0,0.0,4.0,4.0,450.4332230008003,1.0,1.0,part_1,,,,,,,,,,,,,gray,circle
165.0,1.0,1.0,0.0,3.0,3.0,325.4961120001098,1.0,1.0,part_1,,,,,,,,,,,,,white,square
341.0,2.0,2.0,0.0,3.0,3.0,281.4696840014221,1.0,1.0,part_1,,,,,,,,,,,,,blue,cross
160.0,5.0,1.0,1.0,2.0,2.0,374.1102169988153,1.0,1.0,part_1,,,,,,,,,,,,,magenta,I
180.0,5.0,1.0,1.0,1.0,1.0,604.8406179997983,1.0,1.0,part_1,,,,,,,,,,,,,magenta,I
164.0,5.0,1.0,1.0,3.0,3.0,306.2212349996116,1.0,1.0,part_1,,,,,,,,,,,,,magenta,I
633.0,7.0,3.0,1.0,1.0,1.0,396.9948310004838,1.0,1.0,part_1,,,,,,,,,,,,,orange,flipped triangle
0.0,4.0,0.0,0.0,4.0,4.0,394.6533520011144,1.0,1.0,part_1,,,,,,,,,,,,,cyan,diamond
1310.0,4.0,4.0,0.0,4.0,4.0,317.0086350000929,1.0,1.0,part_1,,,,,,,,,,,,,cyan,diamond
144.0,1.0,1.0,0.0,1.0,1.0,403.7748989994725,1.0,1.0,part_1,,,,,,,,,,,,,white,square
1324.0,8.0,4.0,1.0,1.0,1.0,408.6607850003929,1.0,1.0,part_1,,,,,,,,,,,,,green,triangle
339.0,6.0,2.0,1.0,2.0,2.0,395.2038539991918,1.0,1.0,part_1,,,,,,,,,,,,,yellow,hexagon
0.0,7.0,0.0,1.0,1.0,1.0,328.6676340012491,1.0,1.0,part_1,,,,,,,,,,,,,orange,flipped triangle
1323.0,4.0,4.0,0.0,1.0,1.0,326.1956879996432,1.0,1.0,part_1,,,,,,,,,,,,,cyan,diamond
0.0,1.0,0.0,0.0,1.0,1.0,272.6758270000573,1.0,1.0,part_1,,,,,,,,,,,,,white,square
306.0,2.0,2.0,0.0,3.0,3.0,423.2615670007362,1.0,1.0,part_1,,,,,,,,,,,,,blue,cross
668.0,7.0,3.0,1.0,3.0,3.0,313.7685260007856,1.0,1.0,part_1,,,,,,,,,,,,,orange,flipped triangle
160.0,1.0,1.0,0.0,3.0,3.0,288.0518269994354,1.0,1.0,part_1,,,,,,,,,,,,,white,square
349.0,2.0,2.0,0.0,4.0,4.0,349.8217520009348,1.0,1.0,part_1,,,,,,,,,,,,,blue,cross
0.0,4.0,0.0,0.0,1.0,1.0,352.3890760006907,1.0,1.0,part_1,,,,,,,,,,,,,cyan,diamond
312.0,2.0,2.0,0.0,4.0,4.0,332.1932219987502,1.0,1.0,part_1,,,,,,,,,,,,,blue,cross
634.0,7.0,3.0,1.0,4.0,4.0,313.3038180003495,1.0,1.0,part_1,,,,,,,,,,,,,orange,flipped triangle
321.0,2.0,2.0,0.0,4.0,4.0,396.743276000052,1.0,1.0,part_1,,,,,,,,,,,,,blue,cross
1281.0,8.0,4.0,1.0,1.0,1.0,393.5957310004596,1.0,1.0,part_1,,,,,,,,,,,,,green,triangle
0.0,5.0,0.0,1.0,4.0,4.0,367.8839440017327,2.0,1.0,part_1,,,,,,,,,,,,,magenta,I
1281.0,4.0,4.0,0.0,1.0,1.0,373.1906330012862,2.0,3.0,part_1,,,,,,,,,,,,,cyan,diamond
1289.0,4.0,4.0,0.0,3.0,3.0,429.3367190002755,2.0,2.0,part_1,,,,,,,,,,,,,cyan,diamond
1314.0,8.0,4.0,1.0,1.0,1.0,601.1840279988974,2.0,1.0,part_1,,,,,,,,,,,,,green,triangle
1275.0,8.0,4.0,1.0,3.0,3.0,444.1068460000679,2.0,1.0,part_1,,,,,,,,,,,,,green,triangle
655.0,3.0,3.0,0.0,1.0,1.0,529.6918080002797,2.0,1.0,part_1,,,,,,,,,,,,,gray,circle
176.0,5.0,1.0,1.0,4.0,4.0,438.8955460017314,2.0,1.0,part_1,,,,,,,,,,,,,magenta,I
649.0,7.0,3.0,1.0,4.0,4.0,426.3256379999802,2.0,1.0,part_1,,,,,,,,,,,,,orange,flipped triangle
628.0,3.0,3.0,0.0,1.0,1.0,615.9375940005702,2.0,1.0,part_1,,,,,,,,,,,,,gray,circle
320.0,6.0,2.0,1.0,1.0,1.0,510.407302999738,2.0,1.0,part_1,,,,,,,,,,,,,yellow,hexagon
0.0,2.0,0.0,0.0,3.0,3.0,336.8752559999848,2.0,1.0,part_1,,,,,,,,,,,,,blue,cross
641.0,3.0,3.0,0.0,4.0,4.0,381.5600420002738,2.0,1.0,part_1,,,,,,,,,,,,,gray,circle
1275.0,8.0,4.0,1.0,4.0,4.0,388.0616779988486,2.0,1.0,part_1,,,,,,,,,,,,,green,triangle
319.0,6.0,2.0,1.0,3.0,3.0,446.3474629992561,2.0,1.0,part_1,,,,,,,,,,,,,yellow,hexagon
1277.0,4.0,4.0,0.0,2.0,2.0,533.158848000312,2.0,1.0,part_1,,,,,,,,,,,,,cyan,diamond
0.0,7.0,0.0,1.0,3.0,3.0,328.0307439999887,2.0,1.0,part_1,,,,,,,,,,,,,orange,flipped triangle
0.0,4.0,0.0,0.0,4.0,4.0,316.5493689994036,2.0,1.0,part_1,,,,,,,,,,,,,cyan,diamond
0.0,6.0,0.0,1.0,1.0,1.0,304.7858749996521,2.0,1.0,part_1,,,,,,,,,,,,,yellow,hexagon
333.0,2.0,2.0,0.0,4.0,4.0,319.2672889999812,2.0,1.0,part_1,,,,,,,,,,,,,blue,cross
0.0,3.0,0.0,0.0,2.0,2.0,636.4709450008377,2.0,1.0,part_1,,,,,,,,,,,,,gray,circle
649.0,3.0,3.0,0.0,2.0,2.0,455.3498989989748,2.0,1.0,part_1,,,,,,,,,,,,,gray,circle
0.0,7.0,0.0,1.0,2.0,2.0,373.7205409997841,2.0,1.0,part_1,,,,,,,,,,,,,orange,flipped triangle
321.0,6.0,2.0,1.0,1.0,1.0,461.7288499994174,2.0,2.0,part_1,,,,,,,,,,,,,yellow,hexagon
168.0,5.0,1.0,1.0,3.0,3.0,369.4484780007769,2.0,1.0,part_1,,,,,,,,,,,,,magenta,I
1304.0,4.0,4.0,0.0,2.0,2.0,656.1192270000902,2.0,1.0,part_1,,,,,,,,,,,,,cyan,diamond
341.0,6.0,2.0,1.0,2.0,2.0,467.2441670008993,2.0,1.0,part_1,,,,,,,,,,,,,yellow,hexagon
1314.0,4.0,4.0,0.0,4.0,4.0,367.2553569995216,2.0,1.0,part_1,,,,,,,,,,,,,cyan,diamond
0.0,2.0,0.0,0.0,4.0,4.0,358.5822629993345,2.0,1.0,part_1,,,,,,,,,,,,,blue,cross
164.0,1.0,1.0,0.0,3.0,3.0,384.4495480007026,2.0,1.0,part_1,,,,,,,,,,,,,white,square
305.0,6.0,2.0,1.0,3.0,3.0,373.4746749996702,2.0,1.0,part_1,,,,,,,,,,,,,yellow,hexagon
0.0,3.0,0.0,0.0,2.0,2.0,402.2442140012572,2.0,1.0,part_1,,,,,,,,,,,,,gray,circle
651.0,7.0,3.0,1.0,3.0,3.0,407.0556669994403,2.0,1.0,part_1,,,,,,,,,,,,,orange,flipped triangle
139.0,1.0,1.0,0.0,1.0,1.0,525.5537849989196,2.0,1.0,part_1,,,,,,,,,,,,,white,square
0.0,1.0,0.0,0.0,1.0,1.0,585.4092070003389,2.0,1.0,part_1,,,,,,,,,,,,,white,square
0.0,3.0,0.0,0.0,2.0,2.0,565.4004610005359,2.0,1.0,part_1,,,,,,,,,,,,,gray,circle
631.0,3.0,3.0,0.0,2.0,2.0,402.7705900007277,2.0,1.0,part_1,,,,,,,,,,,,,gray,circle
631.0,7.0,3.0,1.0,4.0,4.0,381.7563659995358,2.0,1.0,part_1,,,,,,,,,,,,,orange,flipped triangle
155.0,1.0,1.0,0.0,1.0,1.0,497.8391120002925,2.0,1.0,part_1,,,,,,,,,,,,,white,square
142.0,1.0,1.0,0.0,2.0,2.0,494.7665540003072,2.0,1.0,part_1,,,,,,,,,,,,,white,square
160.0,5.0,1.0,1.0,2.0,2.0,443.012900001122,2.0,1.0,part_1,,,,,,,,,,,,,magenta,I
1297.0,8.0,4.0,1.0,1.0,1.0,408.1443650011351,2.0,1.0,part_1,,,,,,,,,,,,,green,triangle
661.0,7.0,3.0,1.0,3.0,3.0,405.7013309993635,2.0,1.0,part_1,,,,,,,,,,,,,orange,flipped triangle
144.0,5.0,1.0,1.0,3.0,3.0,356.3084889992751,2.0,1.0,part_1,,,,,,,,,,,,,magenta,I
1285.0,4.0,4.0,0.0,3.0,3.0,311.0943360006786,2.0,1.0,part_1,,,,,,,,,,,,,cyan,diamond
329.0,6.0,2.0,1.0,2.0,2.0,418.3291980007197,2.0,1.0,part_1,,,,,,,,,,,,,yellow,hexagon
302.0,2.0,2.0,0.0,3.0,3.0,346.1549170006037,2.0,1.0,part_1,,,,,,,,,,,,,blue,cross
345.0,2.0,2.0,0.0,4.0,4.0,532.6076239998656,2.0,1.0,part_1,,,,,,,,,,,,,blue,cross
314.0,2.0,2.0,0.0,4.0,4.0,401.4497760017548,2.0,1.0,part_1,,,,,,,,,,,,,blue,cross
186.0,5.0,1.0,1.0,1.0,1.0,485.51626599874,2.0,1.0,part_1,,,,,,,,,,,,,magenta,I
0.0,6.0,0.0,1.0,1.0,1.0,354.4425220006815,2.0,1.0,part_1,,,,,,,,,,,,,yellow,hexagon
642.0,7.0,3.0,1.0,4.0,4.0,390.7106599999679,2.0,1.0,part_1,,,,,,,,,,,,,orange,flipped triangle
1275.0,4.0,4.0,0.0,4.0,4.0,348.791551999966,2.0,1.0,part_1,,,,,,,,,,,,,cyan,diamond
0.0,4.0,0.0,0.0,1.0,1.0,423.8651969990314,2.0,1.0,part_1,,,,,,,,,,,,,cyan,diamond
179.0,5.0,1.0,1.0,2.0,2.0,395.5683849999332,2.0,1.0,part_1,,,,,,,,,,,,,magenta,I
0.0,2.0,0.0,0.0,4.0,4.0,434.1837410011067,2.0,1.0,part_1,,,,,,,,,,,,,blue,cross
153.0,1.0,1.0,0.0,2.0,2.0,359.2694100007065,2.0,1.0,part_1,,,,,,,,,,,,,white,square
0.0,8.0,0.0,1.0,1.0,1.0,658.407740000257,2.0,1.0,part_1,,,,,,,,,,,,,green,triangle
1288.0,4.0,4.0,0.0,3.0,3.0,390.5090049993305,2.0,1.0,part_1,,,,,,,,,,,,,cyan,diamond
1288.0,8.0,4.0,1.0,3.0,3.0,378.5066609998466,2.0,1.0,part_1,,,,,,,,,,,,,green,triangle
349.0,6.0,2.0,1.0,3.0,3.0,335.7540770011837,2.0,1.0,part_1,,,,,,,,,,,,,yellow,hexagon
1309.0,8.0,4.0,1.0,4.0,4.0,348.1032929994399,2.0,1.0,part_1,,,,,,,,,,,,,green,triangle
164.0,5.0,1.0,1.0,4.0,4.0,392.7201070000592,2.0,1.0,part_1,,,,,,,,,,,,,magenta,I
672.0,3.0,3.0,0.0,3.0,3.0,382.6098469999124,2.0,1.0,part_1,,,,,,,,,,,,,gray,circle
300.0,2.0,2.0,0.0,1.0,1.0,420.4350130003149,2.0,1.0,part_1,,,,,,,,,,,,,blue,cross
653.0,7.0,3.0,1.0,2.0,2.0,510.9625059994869,2.0,1.0,part_1,,,,,,,,,,,,,orange,flipped triangle
142.0,1.0,1.0,0.0,4.0,4.0,404.8850149993086,2.0,1.0,part_1,,,,,,,,,,,,,white,square
139.0,5.0,1.0,1.0,2.0,2.0,408.0286780008464,2.0,1.0,part_1,,,,,,,,,,,,,magenta,I
0.0,2.0,0.0,0.0,4.0,4.0,399.2013860006409,2.0,1.0,part_1,,,,,,,,,,,,,blue,cross
1317.0,4.0,4.0,0.0,1.0,1.0,385.2340499997808,2.0,1.0,part_1,,,,,,,,,,,,,cyan,diamond
312.0,2.0,2.0,0.0,2.0,2.0,463.9634870000009,2.0,1.0,part_1,,,,,,,,,,,,,blue,cross
0.0,6.0,0.0,1.0,3.0,3.0,378.1818240004213,2.0,1.0,part_1,,,,,,,,,,,,,yellow,hexagon
0.0,8.0,0.0,1.0,4.0,4.0,352.3329300005571,2.0,1.0,part_1,,,,,,,,,,,,,green,triangle
1312.0,4.0,4.0,0.0,2.0,2.0,435.2493070000491,2.0,1.0,part_1,,,,,,,,,,,,,cyan,diamond
1280.0,4.0,4.0,0.0,2.0,2.0,553.607791000104,2.0,1.0,part_1,,,,,,,,,,,,,cyan,diamond
169.0,1.0,1.0,0.0,2.0,2.0,583.2345449998684,2.0,1.0,part_1,,,,,,,,,,,,,white,square
1305.0,8.0,4.0,1.0,1.0,1.0,515.3214000001753,2.0,1.0,part_1,,,,,,,,,,,,,green,triangle
179.0,1.0,1.0,0.0,1.0,1.0,431.7046979995211,2.0,1.0,part_1,,,,,,,,,,,,,white,square
0.0,5.0,0.0,1.0,1.0,1.0,340.440538000621,2.0,1.0,part_1,,,,,,,,,,,,,magenta,I
0.0,1.0,0.0,0.0,2.0,2.0,337.7667389995622,2.0,1.0,part_1,,,,,,,,,,,,,white,square
344.0,2.0,2.0,0.0,1.0,1.0,364.5121160006965,2.0,1.0,part_1,,,,,,,,,,,,,blue,cross
339.0,2.0,2.0,0.0,1.0,1.0,384.8025949992006,2.0,1.0,part_1,,,,,,,,,,,,,blue,cross
1277.0,4.0,4.0,0.0,1.0,1.0,364.5307930000854,2.0,1.0,part_1,,,,,,,,,,,,,cyan,diamond
0.0,1.0,0.0,0.0,1.0,1.0,346.4155910005502,2.0,1.0,part_1,,,,,,,,,,,,,white,square
651.0,7.0,3.0,1.0,1.0,1.0,272.9881979994388,2.0,1.0,part_1,,,,,,,,,,,,,orange,flipped triangle
1323.0,4.0,4.0,0.0,4.0,4.0,446.0277950001909,2.0,1.0,part_1,,,,,,,,,,,,,cyan,diamond
0.0,3.0,0.0,0.0,1.0,1.0,456.7512890007492,2.0,1.0,part_1,,,,,,,,,,,,,gray,circle
655.0,7.0,3.0,1.0,1.0,1.0,437.9144290014665,2.0,1.0,part_1,,,,,,,,,,,,,orange,flipped triangle
335.0,2.0,2.0,0.0,1.0,1.0,322.6145139997243,2.0,1.0,part_1,,,,,,,,,,,,,blue,cross
0.0,3.0,0.0,0.0,4.0,4.0,429.6805260000838,2.0,1.0,part_1,,,,,,,,,,,,,gray,circle
159.0,1.0,1.0,0.0,1.0,1.0,345.9353750004084,2.0,1.0,part_1,,,,,,,,,,,,,white,square
1304.0,8.0,4.0,1.0,2.0,2.0,614.0159750011662,2.0,1.0,part_1,,,,,,,,,,,,,green,triangle
1294.0,4.0,4.0,0.0,1.0,1.0,453.341234000618,2.0,1.0,part_1,,,,,,,,,,,,,cyan,diamond
1288.0,8.0,4.0,1.0,4.0,4.0,375.2956389998871,2.0,1.0,part_1,,,,,,,,,,,,,green,triangle
639.0,7.0,3.0,1.0,2.0,2.0,452.4110580005072,2.0,1.0,part_1,,,,,,,,,,,,,orange,flipped triangle
0.0,5.0,0.0,1.0,4.0,4.0,394.1804389996832,2.0,1.0,part_1,,,,,,,,,,,,,magenta,I
626.0,3.0,3.0,0.0,3.0,3.0,373.2518839988188,2.0,1.0,part_1,,,,,,,,,,,,,gray,circle
309.0,6.0,2.0,1.0,2.0,2.0,393.7914830003137,2.0,1.0,part_1,,,,,,,,,,,,,yellow,hexagon
0.0,8.0,0.0,1.0,2.0,2.0,358.7405479993322,2.0,1.0,part_1,,,,,,,,,,,,,green,triangle
328.0,2.0,2.0,0.0,3.0,3.0,444.8366710003029,2.0,1.0,part_1,,,,,,,,,,,,,blue,cross
1311.0,4.0,4.0,0.0,4.0,4.0,376.9870600008289,2.0,1.0,part_1,,,,,,,,,,,,,cyan,diamond
1293.0,4.0,4.0,0.0,3.0,3.0,381.9579270002577,3.0,1.0,part_1,,,,,,,,,,,,,cyan,diamond
0.0,2.0,0.0,0.0,1.0,1.0,459.9533939999674,3.0,1.0,part_1,,,,,,,,,,,,,blue,cross
0.0,2.0,0.0,0.0,3.0,3.0,293.704322000849,3.0,1.0,part_1,,,,,,,,,,,,,blue,cross
154.0,5.0,1.0,1.0,3.0,3.0,322.5377090002439,3.0,1.0,part_1,,,,,,,,,,,,,magenta,I
1321.0,4.0,4.0,0.0,2.0,2.0,375.2680990000954,3.0,1.0,part_1,,,,,,,,,,,,,cyan,diamond
0.0,6.0,0.0,1.0,3.0,3.0,325.697272999605,3.0,1.0,part_1,,,,,,,,,,,,,yellow,hexagon
0.0,5.0,0.0,1.0,4.0,4.0,322.908489000838,3.0,1.0,part_1,,,,,,,,,,,,,magenta,I
0.0,6.0,0.0,1.0,1.0,1.0,532.7029089985444,3.0,1.0,part_1,,,,,,,,,,,,,yellow,hexagon
156.0,5.0,1.0,1.0,4.0,4.0,346.7389570014347,3.0,1.0,part_1,,,,,,,,,,,,,magenta,I
349.0,6.0,2.0,1.0,1.0,1.0,485.5415220008581,3.0,1.0,part_1,,,,,,,,,,,,,yellow,hexagon
317.0,2.0,2.0,0.0,3.0,3.0,466.8965929995465,3.0,1.0,part_1,,,,,,,,,,,,,blue,cross
663.0,7.0,3.0,1.0,2.0,2.0,418.0060540002159,3.0,1.0,part_1,,,,,,,,,,,,,orange,flipped triangle
673.0,7.0,3.0,1.0,3.0,3.0,339.9734510003327,3.0,1.0,part_1,,,,,,,,,,,,,orange,flipped triangle
157.0,1.0,1.0,0.0,4.0,4.0,370.4598949989304,3.0,1.0,part_1,,,,,,,,,,,,,white,square
348.0,2.0,2.0,0.0,4.0,4.0,357.7116500000556,3.0,1.0,part_1,,,,,,,,,,,,,blue,cross
1299.0,8.0,4.0,1.0,2.0,2.0,369.9597340000764,3.0,1.0,part_1,,,,,,,,,,,,,green,triangle
650.0,3.0,3.0,0.0,1.0,1.0,406.0411450009269,3.0,1.0,part_1,,,,,,,,,,,,,gray,circle
179.0,5.0,1.0,1.0,4.0,4.0,374.0600799992535,3.0,1.0,part_1,,,,,,,,,,,,,magenta,I
300.0,2.0,2.0,0.0,1.0,1.0,455.3282970009604,3.0,1.0,part_1,,,,,,,,,,,,,blue,cross
1275.0,4.0,4.0,0.0,2.0,2.0,348.4096360007243,3.0,1.0,part_1,,,,,,,,,,,,,cyan,diamond
1323.0,8.0,4.0,1.0,3.0,3.0,346.9821419985237,3.0,1.0,part_1,,,,,,,,,,,,,green,triangle
312.0,6.0,2.0,1.0,1.0,1.0,582.4105129995587,3.0,1.0,part_1,,,,,,,,,,,,,yellow,hexagon
0.0,7.0,0.0,1.0,3.0,3.0,378.5298860002513,3.0,1.0,part_1,,,,,,,,,,,,,orange,flipped triangle
1293.0,4.0,4.0,0.0,4.0,4.0,318.538212999556,3.0,1.0,part_1,,,,,,,,,,,,,cyan,diamond
315.0,6.0,2.0,1.0,3.0,3.0,357.7405150008417,3.0,1.0,part_1,,,,,,,,,,,,,yellow,hexagon
661.0,7.0,3.0,1.0,1.0,1.0,535.1472629990894,3.0,1.0,part_1,,,,,,,,,,,,,orange,flipped triangle
1324.0,4.0,4.0,0.0,3.0,3.0,413.75902999971,3.0,1.0,part_1,,,,,,,,,,,,,cyan,diamond
308.0,2.0,2.0,0.0,2.0,2.0,425.0473979991511,3.0,1.0,part_1,,,,,,,,,,,,,blue,cross
641.0,3.0,3.0,0.0,2.0,2.0,341.0743299991736,3.0,1.0,part_1,,,,,,,,,,,,,gray,circle
173.0,1.0,1.0,0.0,1.0,1.0,523.8669699992897,3.0,1.0,part_1,,,,,,,,,,,,,white,square
0.0,3.0,0.0,0.0,1.0,1.0,414.5191719999275,3.0,1.0,part_1,,,,,,,,,,,,,gray,circle
300.0,6.0,2.0,1.0,2.0,2.0,397.0579169999837,3.0,1.0,part_1,,,,,,,,,,,,,yellow,hexagon
142.0,5.0,1.0,1.0,1.0,1.0,432.155848999173,3.0,1.0,part_1,,,,,,,,,,,,,magenta,I
0.0,6.0,0.0,1.0,2.0,2.0,325.0535629995283,3.0,1.0,part_1,,,,,,,,,,,,,yellow,hexagon
1314.0,4.0,4.0,0.0,1.0,1.0,472.4783250003384,3.0,1.0,part_1,,,,,,,,,,,,,cyan,diamond
0.0,1.0,0.0,0.0,4.0,4.0,470.0016980004875,3.0,1.0,part_1,,,,,,,,,,,,,white,square
639.0,3.0,3.0,0.0,1.0,1.0,444.2900720005127,3.0,1.0,part_1,,,,,,,,,,,,,gray,circle
0.0,7.0,0.0,1.0,4.0,4.0,352.3101699993276,3.0,1.0,part_1,,,,,,,,,,,,,orange,flipped triangle
305.0,2.0,2.0,0.0,2.0,2.0,349.1355260011914,3.0,1.0,part_1,,,,,,,,,,,,,blue,cross
348.0,6.0,2.0,1.0,4.0,4.0,320.4613139987486,3.0,1.0,part_1,,,,,,,,,,,,,yellow,hexagon
1302.0,8.0,4.0,1.0,4.0,4.0,391.4724939986627,3.0,1.0,part_1,,,,,,,,,,,,,green,triangle
1293.0,8.0,4.0,1.0,4.0,4.0,321.3938179997058,3.0,1.0,part_1,,,,,,,,,,,,,green,triangle
644.0,7.0,3.0,1.0,4.0,4.0,296.1836390004464,3.0,1.0,part_1,,,,,,,,,,,,,orange,flipped triangle
305.0,6.0,2.0,1.0,3.0,3.0,341.4488510006777,3.0,1.0,part_1,,,,,,,,,,,,,yellow,hexagon
0.0,3.0,0.0,0.0,2.0,2.0,408.3333569997194,3.0,1.0,part_1,,,,,,,,,,,,,gray,circle
627.0,7.0,3.0,1.0,1.0,1.0,494.2191419995652,3.0,1.0,part_1,,,,,,,,,,,,,orange,flipped triangle
169.0,5.0,1.0,1.0,1.0,1.0,369.9000389988214,3.0,1.0,part_1,,,,,,,,,,,,,magenta,I
312.0,6.0,2.0,1.0,4.0,4.0,518.0380389992933,3.0,1.0,part_1,,,,,,,,,,,,,yellow,hexagon
1295.0,4.0,4.0,0.0,4.0,4.0,355.2934550007194,3.0,1.0,part_1,,,,,,,,,,,,,cyan,diamond
1317.0,8.0,4.0,1.0,4.0,4.0,302.2457550014223,3.0,1.0,part_1,,,,,,,,,,,,,green,triangle
333.0,6.0,2.0,1.0,4.0,4.0,332.5066139987029,3.0,1.0,part_1,,,,,,,,,,,,,yellow,hexagon
324.0,2.0,2.0,0.0,2.0,2.0,511.05740300045,3.0,1.0,part_1,,,,,,,,,,,,,blue,cross
642.0,3.0,3.0,0.0,1.0,1.0,467.802989998745,3.0,1.0,part_1,,,,,,,,,,,,,gray,circle
666.0,3.0,3.0,0.0,2.0,2.0,512.0935380000446,3.0,1.0,part_1,,,,,,,,,,,,,gray,circle
168.0,5.0,1.0,1.0,1.0,1.0,420.873966999352,3.0,1.0,part_1,,,,,,,,,,,,,magenta,I
334.0,6.0,2.0,1.0,4.0,4.0,313.6411490013415,3.0,1.0,part_1,,,,,,,,,,,,,yellow,hexagon
139.0,5.0,1.0,1.0,3.0,3.0,367.3933739992208,3.0,1.0,part_1,,,,,,,,,,,,,magenta,I
1305.0,4.0,4.0,0.0,2.0,2.0,380.2687360002892,3.0,1.0,part_1,,,,,,,,,,,,,cyan,diamond
0.0,8.0,0.0,1.0,4.0,4.0,314.4152090007992,3.0,1.0,part_1,,,,,,,,,,,,,green,triangle
0.0,8.0,0.0,1.0,1.0,1.0,508.74993999968865,3.0,1.0,part_1,,,,,,,,,,,,,green,triangle
0.0,8.0,0.0,1.0,3.0,3.0,393.4384099993622,3.0,1.0,part_1,,,,,,,,,,,,,green,triangle
644.0,7.0,3.0,1.0,1.0,1.0,429.1886419996444,3.0,1.0,part_1,,,,,,,,,,,,,orange,flipped triangle
0.0,5.0,0.0,1.0,2.0,2.0,380.1226590003352,3.0,1.0,part_1,,,,,,,,,,,,,magenta,I
638.0,3.0,3.0,0.0,4.0,4.0,310.9623620002821,3.0,1.0,part_1,,,,,,,,,,,,,gray,circle
641.0,7.0,3.0,1.0,1.0,1.0,725.1619710004888,3.0,1.0,part_1,,,,,,,,,,,,,orange,flipped triangle
1309.0,8.0,4.0,1.0,2.0,2.0,450.3341629988426,3.0,1.0,part_1,,,,,,,,,,,,,green,triangle
0.0,6.0,0.0,1.0,1.0,1.0,316.8616710008791,3.0,1.0,part_1,,,,,,,,,,,,,yellow,hexagon
186.0,1.0,1.0,0.0,2.0,2.0,369.6073499995691,3.0,1.0,part_1,,,,,,,,,,,,,white,square
0.0,6.0,0.0,1.0,2.0,2.0,600.2272139994602,3.0,1.0,part_1,,,,,,,,,,,,,yellow,hexagon
150.0,5.0,1.0,1.0,1.0,1.0,354.9883390005561,3.0,1.0,part_1,,,,,,,,,,,,,magenta,I
345.0,6.0,2.0,1.0,1.0,1.0,422.7286499990441,3.0,1.0,part_1,,,,,,,,,,,,,yellow,hexagon
1285.0,8.0,4.0,1.0,3.0,3.0,468.8717850003741,3.0,1.0,part_1,,,,,,,,,,,,,green,triangle
317.0,6.0,2.0,1.0,3.0,3.0,392.7616389992181,3.0,1.0,part_1,,,,,,,,,,,,,yellow,hexagon
638.0,7.0,3.0,1.0,2.0,2.0,532.9355770008988,3.0,1.0,part_1,,,,,,,,,,,,,orange,flipped triangle
1314.0,8.0,4.0,1.0,2.0,2.0,338.2307039992156,3.0,1.0,part_1,,,,,,,,,,,,,green,triangle
1311.0,8.0,4.0,1.0,4.0,4.0,334.1470469986234,3.0,1.0,part_1,,,,,,,,,,,,,green,triangle
322.0,6.0,2.0,1.0,3.0,3.0,378.7402570014819,3.0,1.0,part_1,,,,,,,,,,,,,yellow,hexagon
339.0,2.0,2.0,0.0,4.0,4.0,343.0001029992127,3.0,1.0,part_1,,,,,,,,,,,,,blue,cross
319.0,2.0,2.0,0.0,1.0,1.0,405.5925440006831,3.0,1.0,part_1,,,,,,,,,,,,,blue,cross
1289.0,8.0,4.0,1.0,1.0,1.0,369.1402950007614,3.0,1.0,part_1,,,,,,,,,,,,,green,triangle
168.0,1.0,1.0,0.0,1.0,1.0,326.6886190012883,3.0,1.0,part_1,,,,,,,,,,,,,white,square
663.0,3.0,3.0,0.0,4.0,4.0,412.1661749995837,3.0,1.0,part_1,,,,,,,,,,,,,gray,circle
0.0,1.0,0.0,0.0,4.0,4.0,342.849347000083,3.0,1.0,part_1,,,,,,,,,,,,,white,square
1281.0,8.0,4.0,1.0,2.0,2.0,364.4458090002445,3.0,1.0,part_1,,,,,,,,,,,,,green,triangle
170.0,5.0,1.0,1.0,1.0,1.0,369.6856930000649,3.0,1.0,part_1,,,,,,,,,,,,,magenta,I
673.0,3.0,3.0,0.0,2.0,2.0,531.9646669995564,3.0,1.0,part_1,,,,,,,,,,,,,gray,circle
335.0,6.0,2.0,1.0,4.0,4.0,337.1439149996149,3.0,1.0,part_1,,,,,,,,,,,,,yellow,hexagon
185.0,1.0,1.0,0.0,2.0,2.0,357.9227940008422,3.0,1.0,part_1,,,,,,,,,,,,,white,square
1293.0,4.0,4.0,0.0,3.0,3.0,429.1083339994657,3.0,1.0,part_1,,,,,,,,,,,,,cyan,diamond
1290.0,4.0,4.0,0.0,4.0,4.0,351.4255789996241,3.0,1.0,part_1,,,,,,,,,,,,,cyan,diamond
0.0,2.0,0.0,0.0,4.0,4.0,355.6135359995096,3.0,1.0,part_1,,,,,,,,,,,,,blue,cross
0.0,3.0,0.0,0.0,4.0,4.0,328.9841989990236,3.0,1.0,part_1,,,,,,,,,,,,,gray,circle
668.0,3.0,3.0,0.0,1.0,1.0,420.7539849994646,3.0,1.0,part_1,,,,,,,,,,,,,gray,circle
655.0,3.0,3.0,0.0,3.0,3.0,369.9702149988297,3.0,1.0,part_1,,,,,,,,,,,,,gray,circle
1318.0,8.0,4.0,1.0,2.0,2.0,399.7336860011273,3.0,1.0,part_1,,,,,,,,,,,,,green,triangle
180.0,1.0,1.0,0.0,4.0,4.0,293.4282260011969,3.0,1.0,part_1,,,,,,,,,,,,,white,square
157.0,5.0,1.0,1.0,4.0,4.0,295.4765710001084,3.0,1.0,part_1,,,,,,,,,,,,,magenta,I
672.0,7.0,3.0,1.0,4.0,4.0,331.7393680008536,3.0,1.0,part_1,,,,,,,,,,,,,orange,flipped triangle
655.0,7.0,3.0,1.0,3.0,3.0,379.526185000941,3.0,1.0,part_1,,,,,,,,,,,,,orange,flipped triangle
1321.0,8.0,4.0,1.0,3.0,3.0,373.174669999571,3.0,1.0,part_1,,,,,,,,,,,,,green,triangle
662.0,3.0,3.0,0.0,1.0,1.0,529.142444000172,4.0,1.0,part_1,,,,,,,,,,,,,gray,circle
165.0,5.0,1.0,1.0,2.0,2.0,400.6384290005371,4.0,1.0,part_1,,,,,,,,,,,,,magenta,I
666.0,7.0,3.0,1.0,1.0,1.0,588.6095940004452,4.0,1.0,part_1,,,,,,,,,,,,,orange,flipped triangle
0.0,7.0,0.0,1.0,4.0,4.0,343.1571890014311,4.0,1.0,part_1,,,,,,,,,,,,,orange,flipped triangle
1323.0,8.0,4.0,1.0,1.0,1.0,364.0320009999414,4.0,1.0,part_1,,,,,,,,,,,,,green,triangle
142.0,5.0,1.0,1.0,2.0,2.0,313.9657960000477,4.0,1.0,part_1,,,,,,,,,,,,,magenta,I
347.0,2.0,2.0,0.0,1.0,1.0,447.8533879992028,4.0,1.0,part_1,,,,,,,,,,,,,blue,cross
651.0,3.0,3.0,0.0,4.0,4.0,411.797407999984,4.0,1.0,part_1,,,,,,,,,,,,,gray,circle
664.0,3.0,3.0,0.0,2.0,2.0,350.8423299990681,4.0,1.0,part_1,,,,,,,,,,,,,gray,circle
0.0,5.0,0.0,1.0,3.0,3.0,374.0333170007943,4.0,1.0,part_1,,,,,,,,,,,,,magenta,I
1294.0,8.0,4.0,1.0,2.0,2.0,352.0278910000343,4.0,1.0,part_1,,,,,,,,,,,,,green,triangle
322.0,6.0,2.0,1.0,2.0,2.0,381.9857179987593,4.0,1.0,part_1,,,,,,,,,,,,,yellow,hexagon
1318.0,4.0,4.0,0.0,2.0,2.0,337.3859639996226,4.0,1.0,part_1,,,,,,,,,,,,,cyan,diamond
0.0,1.0,0.0,0.0,2.0,2.0,288.2312860001548,4.0,1.0,part_1,,,,,,,,,,,,,white,square
661.0,3.0,3.0,0.0,3.0,3.0,331.5158959994733,4.0,1.0,part_1,,,,,,,,,,,,,gray,circle
309.0,6.0,2.0,1.0,4.0,4.0,361.6562169991084,4.0,1.0,part_1,,,,,,,,,,,,,yellow,hexagon
349.0,2.0,2.0,0.0,3.0,3.0,363.3707190001587,4.0,1.0,part_1,,,,,,,,,,,,,blue,cross
0.0,8.0,0.0,1.0,2.0,2.0,535.8304069995938,4.0,1.0,part_1,,,,,,,,,,,,,green,triangle
335.0,2.0,2.0,0.0,4.0,4.0,341.0453939995932,4.0,1.0,part_1,,,,,,,,,,,,,blue,cross
0.0,4.0,0.0,0.0,2.0,2.0,426.5426109996042,4.0,1.0,part_1,,,,,,,,,,,,,cyan,diamond
633.0,7.0,3.0,1.0,3.0,3.0,350.826539000991,4.0,1.0,part_1,,,,,,,,,,,,,orange,flipped triangle
339.0,6.0,2.0,1.0,1.0,1.0,581.162326001504,4.0,1.0,part_1,,,,,,,,,,,,,yellow,hexagon
1295.0,8.0,4.0,1.0,2.0,2.0,392.863048999061,4.0,1.0,part_1,,,,,,,,,,,,,green,triangle
0.0,7.0,0.0,1.0,3.0,3.0,374.4992910014844,4.0,1.0,part_1,,,,,,,,,,,,,orange,flipped triangle
0.0,5.0,0.0,1.0,1.0,1.0,440.9984859994438,4.0,1.0,part_1,,,,,,,,,,,,,magenta,I
320.0,2.0,2.0,0.0,3.0,3.0,349.0415369997208,4.0,1.0,part_1,,,,,,,,,,,,,blue,cross
309.0,2.0,2.0,0.0,2.0,2.0,313.8865379987692,4.0,1.0,part_1,,,,,,,,,,,,,blue,cross
160.0,1.0,1.0,0.0,3.0,3.0,278.5676330004207,4.0,1.0,part_1,,,,,,,,,,,,,white,square
653.0,3.0,3.0,0.0,4.0,4.0,419.3749699988984,4.0,1.0,part_1,,,,,,,,,,,,,gray,circle
181.0,5.0,1.0,1.0,2.0,2.0,361.3398649995361,4.0,1.0,part_1,,,,,,,,,,,,,magenta,I
0.0,4.0,0.0,0.0,1.0,1.0,452.2829149991594,4.0,1.0,part_1,,,,,,,,,,,,,cyan,diamond
1299.0,4.0,4.0,0.0,2.0,2.0,354.7854179996648,4.0,1.0,part_1,,,,,,,,,,,,,cyan,diamond
627.0,3.0,3.0,0.0,4.0,4.0,422.7467450000404,4.0,1.0,part_1,,,,,,,,,,,,,gray,circle
0.0,7.0,0.0,1.0,1.0,1.0,458.3922090005217,4.0,1.0,part_1,,,,,,,,,,,,,orange,flipped triangle
176.0,1.0,1.0,0.0,2.0,2.0,366.791172999001,4.0,1.0,part_1,,,,,,,,,,,,,white,square
148.0,5.0,1.0,1.0,3.0,3.0,339.7660860009637,4.0,1.0,part_1,,,,,,,,,,,,,magenta,I
305.0,2.0,2.0,0.0,2.0,2.0,343.8025920004293,4.0,1.0,part_1,,,,,,,,,,,,,blue,cross
1294.0,8.0,4.0,1.0,4.0,4.0,317.899233999924,4.0,1.0,part_1,,,,,,,,,,,,,green,triangle
644.0,3.0,3.0,0.0,4.0,4.0,360.8139070001925,4.0,1.0,part_1,,,,,,,,,,,,,gray,circle
315.0,2.0,2.0,0.0,1.0,1.0,548.7654040007328,4.0,1.0,part_1,,,,,,,,,,,,,blue,cross
159.0,5.0,1.0,1.0,3.0,3.0,313.5366200003773,4.0,1.0,part_1,,,,,,,,,,,,,magenta,I
1295.0,4.0,4.0,0.0,1.0,1.0,478.2380449996708,4.0,1.0,part_1,,,,,,,,,,,,,cyan,diamond
667.0,3.0,3.0,0.0,2.0,2.0,378.8925780008867,4.0,1.0,part_1,,,,,,,,,,,,,gray,circle
1294.0,4.0,4.0,0.0,4.0,4.0,346.4243640009954,4.0,1.0,part_1,,,,,,,,,,,,,cyan,diamond
0.0,6.0,0.0,1.0,3.0,3.0,373.6944629999925,4.0,1.0,part_1,,,,,,,,,,,,,yellow,hexagon
1277.0,8.0,4.0,1.0,2.0,2.0,369.3278749997262,4.0,1.0,part_1,,,,,,,,,,,,,green,triangle
659.0,3.0,3.0,0.0,1.0,1.0,399.7670720000315,4.0,1.0,part_1,,,,,,,,,,,,,gray,circle
334.0,6.0,2.0,1.0,3.0,3.0,261.2475959995208,4.0,1.0,part_1,,,,,,,,,,,,,yellow,hexagon
1310.0,8.0,4.0,1.0,3.0,3.0,335.3269529998215,4.0,1.0,part_1,,,,,,,,,,,,,green,triangle
344.0,6.0,2.0,1.0,2.0,2.0,363.8893810002628,4.0,1.0,part_1,,,,,,,,,,,,,yellow,hexagon
179.0,1.0,1.0,0.0,2.0,2.0,346.7318729999533,4.0,1.0,part_1,,,,,,,,,,,,,white,square
338.0,2.0,2.0,0.0,2.0,2.0,324.5545340014359,4.0,1.0,part_1,,,,,,,,,,,,,blue,cross
322.0,2.0,2.0,0.0,1.0,1.0,490.6929919998219,4.0,1.0,part_1,,,,,,,,,,,,,blue,cross
164.0,5.0,1.0,1.0,1.0,1.0,605.7994889997644,4.0,1.0,part_1,,,,,,,,,,,,,magenta,I
181.0,1.0,1.0,0.0,3.0,3.0,459.0063159994315,4.0,1.0,part_1,,,,,,,,,,,,,white,square
628.0,7.0,3.0,1.0,4.0,4.0,375.9000609989016,4.0,1.0,part_1,,,,,,,,,,,,,orange,flipped triangle
154.0,1.0,1.0,0.0,3.0,3.0,315.7084130016301,4.0,1.0,part_1,,,,,,,,,,,,,white,square
655.0,7.0,3.0,1.0,2.0,2.0,459.007303999897,4.0,1.0,part_1,,,,,,,,,,,,,orange,flipped triangle
1311.0,8.0,4.0,1.0,1.0,1.0,343.3639739996579,4.0,1.0,part_1,,,,,,,,,,,,,green,triangle
1309.0,4.0,4.0,0.0,1.0,1.0,337.6804950003134,4.0,1.0,part_1,,,,,,,,,,,,,cyan,diamond
662.0,3.0,3.0,0.0,2.0,2.0,342.6748419988144,4.0,1.0,part_1,,,,,,,,,,,,,gray,circle
306.0,6.0,2.0,1.0,1.0,1.0,283.4655629994813,4.0,1.0,part_1,,,,,,,,,,,,,yellow,hexagon
658.0,3.0,3.0,0.0,3.0,3.0,295.7527060007123,4.0,1.0,part_1,,,,,,,,,,,,,gray,circle
141.0,5.0,1.0,1.0,3.0,3.0,229.4822519997978,4.0,1.0,part_1,,,,,,,,,,,,,magenta,I
653.0,7.0,3.0,1.0,3.0,3.0,297.672225999122,4.0,1.0,part_1,,,,,,,,,,,,,orange,flipped triangle
662.0,7.0,3.0,1.0,3.0,3.0,373.2863009990979,4.0,1.0,part_1,,,,,,,,,,,,,orange,flipped triangle
0.0,8.0,0.0,1.0,4.0,4.0,337.2514129987394,4.0,1.0,part_1,,,,,,,,,,,,,green,triangle
159.0,5.0,1.0,1.0,4.0,4.0,415.7584099993983,4.0,1.0,part_1,,,,,,,,,,,,,magenta,I
658.0,7.0,3.0,1.0,4.0,4.0,370.4552939998393,4.0,1.0,part_1,,,,,,,,,,,,,orange,flipped triangle
186.0,5.0,1.0,1.0,1.0,1.0,535.3584590011451,4.0,1.0,part_1,,,,,,,,,,,,,magenta,I
662.0,7.0,3.0,1.0,1.0,1.0,429.6979150003608,4.0,1.0,part_1,,,,,,,,,,,,,orange,flipped triangle
180.0,5.0,1.0,1.0,1.0,1.0,514.6872490004171,4.0,1.0,part_1,,,,,,,,,,,,,magenta,I
641.0,7.0,3.0,1.0,2.0,2.0,532.7998279990425,4.0,1.0,part_1,,,,,,,,,,,,,orange,flipped triangle
318.0,6.0,2.0,1.0,2.0,2.0,361.8178720007563,4.0,1.0,part_1,,,,,,,,,,,,,yellow,hexagon
324.0,6.0,2.0,1.0,4.0,4.0,353.1293740015826,4.0,1.0,part_1,,,,,,,,,,,,,yellow,hexagon
314.0,6.0,2.0,1.0,3.0,3.0,358.1338250005501,4.0,1.0,part_1,,,,,,,,,,,,,yellow,hexagon
1280.0,8.0,4.0,1.0,4.0,4.0,448.1653370003187,4.0,1.0,part_1,,,,,,,,,,,,,green,triangle
300.0,6.0,2.0,1.0,1.0,1.0,516.2484499996935,4.0,1.0,part_1,,,,,,,,,,,,,yellow,hexagon
0.0,4.0,0.0,0.0,3.0,3.0,314.3300409992662,4.0,1.0,part_1,,,,,,,,,,,,,cyan,diamond
138.0,5.0,1.0,1.0,4.0,4.0,311.6079840001475,4.0,1.0,part_1,,,,,,,,,,,,,magenta,I
139.0,1.0,1.0,0.0,1.0,1.0,508.866742000464,4.0,1.0,part_1,,,,,,,,,,,,,white,square
141.0,1.0,1.0,0.0,1.0,1.0,455.0910009984363,4.0,1.0,part_1,,,,,,,,,,,,,white,square
308.0,6.0,2.0,1.0,4.0,4.0,332.269640000959,4.0,1.0,part_1,,,,,,,,,,,,,yellow,hexagon
311.0,6.0,2.0,1.0,4.0,4.0,482.6531910002813,4.0,1.0,part_1,,,,,,,,,,,,,yellow,hexagon
633.0,3.0,3.0,0.0,2.0,2.0,892.2578069996234,4.0,1.0,part_1,,,,,,,,,,,,,gray,circle
318.0,2.0,2.0,0.0,3.0,3.0,345.3133840012015,4.0,1.0,part_1,,,,,,,,,,,,,blue,cross
1311.0,4.0,4.0,0.0,3.0,3.0,311.5748469990649,4.0,1.0,part_1,,,,,,,,,,,,,cyan,diamond
334.0,2.0,2.0,0.0,1.0,1.0,466.1897839996527,4.0,2.0,part_1,,,,,,,,,,,,,blue,cross
170.0,1.0,1.0,0.0,1.0,1.0,363.8360679997277,4.0,1.0,part_1,,,,,,,,,,,,,white,square
1293.0,8.0,4.0,1.0,1.0,1.0,370.939623000595,4.0,1.0,part_1,,,,,,,,,,,,,green,triangle
153.0,5.0,1.0,1.0,4.0,4.0,541.3454869994894,4.0,1.0,part_1,,,,,,,,,,,,,magenta,I
185.0,5.0,1.0,1.0,3.0,3.0,523.7302650002675,4.0,1.0,part_1,,,,,,,,,,,,,magenta,I
671.0,3.0,3.0,0.0,3.0,3.0,358.9268910000101,4.0,1.0,part_1,,,,,,,,,,,,,gray,circle
1295.0,8.0,4.0,1.0,3.0,3.0,331.2748619991907,4.0,1.0,part_1,,,,,,,,,,,,,green,triangle
335.0,6.0,2.0,1.0,2.0,2.0,457.35740999953117,4.0,1.0,part_1,,,,,,,,,,,,,yellow,hexagon
644.0,3.0,3.0,0.0,1.0,1.0,548.0931059992145,4.0,1.0,part_1,,,,,,,,,,,,,gray,circle
338.0,6.0,2.0,1.0,1.0,1.0,571.6867520004598,4.0,1.0,part_1,,,,,,,,,,,,,yellow,hexagon
164.0,5.0,1.0,1.0,2.0,2.0,613.4835479988396,4.0,1.0,part_1,,,,,,,,,,,,,magenta,I
664.0,7.0,3.0,1.0,3.0,3.0,330.7180490010069,4.0,1.0,part_1,,,,,,,,,,,,,orange,flipped triangle
0.0,1.0,0.0,0.0,2.0,2.0,462.8751600012037,4.0,1.0,part_1,,,,,,,,,,,,,white,square
0.0,4.0,4.0,0.0,6.0,6.0,452.3598089999723,1.0,0.0,part_2,go,250.0,250.0,1.0,,,,,,,,,cyan,diamond
0.0,2.0,2.0,0.0,6.0,6.0,451.3712959997065,1.0,0.0,part_2,go,250.0,250.0,1.0,,,,,,,,,blue,cross
0.0,5.0,1.0,1.0,6.0,0.0,0.0,1.0,0.0,part_2,stop,250.0,250.0,4.0,,,,,,,,,magenta,I
0.0,6.0,2.0,1.0,6.0,6.0,408.4249659990746,1.0,0.0,part_2,stop,250.0,300.0,3.0,,,,,,,,,yellow,hexagon
0.0,2.0,2.0,0.0,6.0,6.0,801.0900519984716,1.0,0.0,part_2,go,250.0,250.0,1.0,,,,,,,,,blue,cross
0.0,8.0,4.0,1.0,6.0,0.0,0.0,1.0,0.0,part_2,stop,250.0,250.0,4.0,,,,,,,,,green,triangle
0.0,2.0,2.0,0.0,6.0,6.0,566.5295889994013,1.0,0.0,part_2,go,250.0,300.0,1.0,,,,,,,,,blue,cross
0.0,3.0,3.0,0.0,5.0,5.0,710.4264669997065,1.0,0.0,part_2,go,250.0,300.0,1.0,,,,,,,,,gray,circle
0.0,3.0,3.0,0.0,6.0,6.0,711.3669629998185,1.0,0.0,part_2,go,250.0,300.0,1.0,,,,,,,,,gray,circle
0.0,3.0,3.0,0.0,5.0,5.0,789.3475090004358,1.0,0.0,part_2,go,250.0,300.0,1.0,,,,,,,,,gray,circle
0.0,1.0,1.0,0.0,6.0,6.0,781.6505899991171,1.0,0.0,part_2,go,250.0,300.0,1.0,,,,,,,,,white,square
0.0,8.0,4.0,1.0,5.0,0.0,0.0,1.0,0.0,part_2,stop,250.0,300.0,4.0,,,,,,,,,green,triangle
0.0,1.0,1.0,0.0,6.0,6.0,628.3162729996548,1.0,0.0,part_2,go,300.0,300.0,1.0,,,,,,,,,white,square
0.0,8.0,4.0,1.0,5.0,5.0,882.8295189996425,1.0,0.0,part_2,go,300.0,300.0,1.0,,,,,,,,,green,triangle
0.0,4.0,4.0,0.0,5.0,5.0,833.7535579994437,1.0,0.0,part_2,go,300.0,300.0,1.0,,,,,,,,,cyan,diamond
0.0,1.0,1.0,0.0,6.0,6.0,921.1008680013038,1.0,0.0,part_2,go,300.0,300.0,1.0,,,,,,,,,white,square
0.0,4.0,4.0,0.0,6.0,6.0,591.8494929992448,1.0,0.0,part_2,go,300.0,300.0,1.0,,,,,,,,,cyan,diamond
0.0,6.0,2.0,1.0,6.0,0.0,0.0,1.0,0.0,part_2,stop,300.0,300.0,4.0,,,,,,,,,yellow,hexagon
0.0,7.0,3.0,1.0,5.0,0.0,0.0,1.0,0.0,part_2,stop,300.0,350.0,4.0,,,,,,,,,orange,flipped triangle
0.0,2.0,2.0,0.0,6.0,6.0,390.3348660005576,1.0,0.0,part_2,go,350.0,350.0,1.0,,,,,,,,,blue,cross
0.0,3.0,3.0,0.0,6.0,6.0,751.6712180004106,1.0,0.0,part_2,go,350.0,350.0,1.0,,,,,,,,,gray,circle
0.0,6.0,2.0,1.0,5.0,5.0,813.5014880008384,1.0,0.0,part_2,go,350.0,350.0,1.0,,,,,,,,,yellow,hexagon
0.0,3.0,3.0,0.0,5.0,5.0,748.1359890007298,1.0,0.0,part_2,go,350.0,350.0,1.0,,,,,,,,,gray,circle
0.0,7.0,3.0,1.0,5.0,0.0,0.0,1.0,0.0,part_2,stop,350.0,350.0,4.0,,,,,,,,,orange,flipped triangle
0.0,5.0,1.0,1.0,6.0,6.0,587.966683000559,1.0,0.0,part_2,go,400.0,350.0,1.0,,,,,,,,,magenta,I
0.0,1.0,1.0,0.0,6.0,6.0,746.8148339994514,1.0,0.0,part_2,go,400.0,350.0,1.0,,,,,,,,,white,square
0.0,8.0,4.0,1.0,5.0,0.0,0.0,1.0,0.0,part_2,stop,400.0,350.0,4.0,,,,,,,,,green,triangle
0.0,3.0,3.0,0.0,5.0,5.0,722.8559629984375,1.0,0.0,part_2,go,450.0,350.0,1.0,,,,,,,,,gray,circle
0.0,8.0,4.0,1.0,6.0,6.0,512.5372880011128,1.0,0.0,part_2,stop,450.0,350.0,3.0,,,,,,,,,green,triangle
0.0,2.0,2.0,0.0,5.0,5.0,936.786102000042,1.0,0.0,part_2,go,450.0,300.0,1.0,,,,,,,,,blue,cross
0.0,8.0,4.0,1.0,6.0,0.0,0.0,1.0,0.0,part_2,stop,450.0,300.0,4.0,,,,,,,,,green,triangle
0.0,6.0,2.0,1.0,6.0,0.0,0.0,1.0,0.0,part_2,stop,450.0,350.0,4.0,,,,,,,,,yellow,hexagon
0.0,4.0,4.0,0.0,6.0,6.0,768.1066340010148,1.0,0.0,part_2,go,450.0,400.0,1.0,,,,,,,,,cyan,diamond
0.0,4.0,4.0,0.0,5.0,5.0,693.9310940015275,1.0,0.0,part_2,go,450.0,400.0,1.0,,,,,,,,,cyan,diamond
0.0,7.0,3.0,1.0,5.0,0.0,0.0,1.0,0.0,part_2,stop,450.0,400.0,4.0,,,,,,,,,orange,flipped triangle
0.0,2.0,2.0,0.0,5.0,5.0,811.9421650008007,1.0,0.0,part_2,go,500.0,400.0,1.0,,,,,,,,,blue,cross
0.0,5.0,1.0,1.0,6.0,6.0,515.8772269987821,2.0,0.0,part_2,stop,500.0,400.0,3.0,,,,,,,,,magenta,I
0.0,7.0,3.0,1.0,5.0,5.0,362.8563439997379,2.0,0.0,part_2,go,500.0,350.0,1.0,,,,,,,,,orange,flipped triangle
0.0,3.0,3.0,0.0,5.0,5.0,648.8332680000894,2.0,0.0,part_2,go,500.0,350.0,1.0,,,,,,,,,gray,circle
0.0,8.0,4.0,1.0,6.0,0.0,0.0,2.0,0.0,part_2,stop,500.0,350.0,4.0,,,,,,,,,green,triangle
0.0,6.0,2.0,1.0,5.0,5.0,601.262157999372,2.0,0.0,part_2,go,500.0,400.0,1.0,,,,,,,,,yellow,hexagon
0.0,7.0,3.0,1.0,6.0,0.0,0.0,2.0,0.0,part_2,stop,500.0,400.0,4.0,,,,,,,,,orange,flipped triangle
0.0,1.0,1.0,0.0,5.0,5.0,509.7318070002075,2.0,0.0,part_2,go,500.0,450.0,1.0,,,,,,,,,white,square
0.0,6.0,2.0,1.0,6.0,6.0,359.0765310000279,2.0,0.0,part_2,stop,500.0,450.0,3.0,,,,,,,,,yellow,hexagon
0.0,5.0,1.0,1.0,6.0,0.0,0.0,2.0,0.0,part_2,stop,500.0,400.0,4.0,,,,,,,,,magenta,I
0.0,8.0,4.0,1.0,6.0,6.0,510.31802800025616,2.0,0.0,part_2,stop,500.0,450.0,3.0,,,,,,,,,green,triangle
0.0,1.0,1.0,0.0,5.0,5.0,557.7096519991755,2.0,0.0,part_2,go,500.0,400.0,1.0,,,,,,,,,white,square
0.0,8.0,4.0,1.0,5.0,0.0,0.0,2.0,0.0,part_2,stop,500.0,400.0,4.0,,,,,,,,,green,triangle
0.0,1.0,1.0,0.0,5.0,5.0,899.3028159984533,2.0,0.0,part_2,go,550.0,400.0,1.0,,,,,,,,,white,square
0.0,2.0,2.0,0.0,6.0,6.0,497.3749580003641,2.0,0.0,part_2,go,550.0,400.0,1.0,,,,,,,,,blue,cross
0.0,3.0,3.0,0.0,6.0,6.0,648.195551999379,2.0,0.0,part_2,go,550.0,400.0,1.0,,,,,,,,,gray,circle
0.0,3.0,3.0,0.0,6.0,6.0,650.98675399895,2.0,0.0,part_2,go,550.0,400.0,1.0,,,,,,,,,gray,circle
0.0,7.0,3.0,1.0,6.0,0.0,0.0,2.0,0.0,part_2,stop,550.0,400.0,4.0,,,,,,,,,orange,flipped triangle
0.0,3.0,3.0,0.0,6.0,6.0,391.4868810006737,2.0,0.0,part_2,go,550.0,450.0,1.0,,,,,,,,,gray,circle
0.0,4.0,4.0,0.0,6.0,6.0,608.350849000999,2.0,0.0,part_2,go,550.0,450.0,1.0,,,,,,,,,cyan,diamond
0.0,5.0,1.0,1.0,6.0,6.0,631.755955000699,2.0,0.0,part_2,go,550.0,450.0,1.0,,,,,,,,,magenta,I
0.0,6.0,2.0,1.0,5.0,0.0,0.0,2.0,0.0,part_2,stop,550.0,450.0,4.0,,,,,,,,,yellow,hexagon
0.0,6.0,2.0,1.0,5.0,5.0,637.8792069990595,2.0,0.0,part_2,stop,600.0,450.0,3.0,,,,,,,,,yellow,hexagon
0.0,8.0,4.0,1.0,6.0,0.0,0.0,2.0,0.0,part_2,stop,550.0,450.0,4.0,,,,,,,,,green,triangle
0.0,6.0,2.0,1.0,5.0,5.0,859.8658719984087,2.0,0.0,part_2,go,550.0,500.0,1.0,,,,,,,,,yellow,hexagon
0.0,5.0,1.0,1.0,5.0,5.0,899.008729000343,2.0,0.0,part_2,go,550.0,500.0,1.0,,,,,,,,,magenta,I
0.0,2.0,2.0,0.0,5.0,5.0,650.1251190002222,2.0,0.0,part_2,go,550.0,500.0,1.0,,,,,,,,,blue,cross
0.0,3.0,3.0,0.0,5.0,5.0,691.5624019984534,2.0,0.0,part_2,go,550.0,500.0,1.0,,,,,,,,,gray,circle
0.0,6.0,2.0,1.0,5.0,0.0,0.0,2.0,0.0,part_2,stop,550.0,500.0,4.0,,,,,,,,,yellow,hexagon
0.0,2.0,2.0,0.0,5.0,5.0,753.9708919994155,2.0,0.0,part_2,go,600.0,500.0,1.0,,,,,,,,,blue,cross
0.0,6.0,2.0,1.0,6.0,6.0,609.9213139987114,2.0,0.0,part_2,stop,600.0,500.0,3.0,,,,,,,,,yellow,hexagon
0.0,3.0,3.0,0.0,6.0,6.0,719.3702000004123,2.0,0.0,part_2,go,600.0,450.0,1.0,,,,,,,,,gray,circle
0.0,5.0,1.0,1.0,6.0,0.0,0.0,2.0,0.0,part_2,stop,600.0,450.0,4.0,,,,,,,,,magenta,I
0.0,6.0,2.0,1.0,6.0,6.0,798.5302750003029,2.0,0.0,part_2,go,600.0,500.0,1.0,,,,,,,,,yellow,hexagon
0.0,1.0,1.0,0.0,6.0,6.0,871.270089999598,2.0,0.0,part_2,go,600.0,500.0,1.0,,,,,,,,,white,square
0.0,2.0,2.0,0.0,5.0,5.0,707.2532980000688,2.0,0.0,part_2,go,600.0,500.0,1.0,,,,,,,,,blue,cross
0.0,1.0,1.0,0.0,6.0,6.0,747.60451200018,2.0,0.0,part_2,go,600.0,500.0,1.0,,,,,,,,,white,square
0.0,1.0,1.0,0.0,5.0,5.0,608.1774289996247,3.0,0.0,part_2,go,600.0,500.0,1.0,,,,,,,,,white,square
0.0,8.0,4.0,1.0,5.0,5.0,416.1137060000328,3.0,0.0,part_2,stop,600.0,500.0,3.0,,,,,,,,,green,triangle
0.0,2.0,2.0,0.0,5.0,5.0,518.7465229992085,3.0,0.0,part_2,go,550.0,500.0,1.0,,,,,,,,,blue,cross
0.0,8.0,4.0,1.0,6.0,6.0,583.3021380003629,3.0,0.0,part_2,stop,550.0,500.0,3.0,,,,,,,,,green,triangle
0.0,7.0,3.0,1.0,5.0,5.0,653.4442039992427,3.0,0.0,part_2,stop,550.0,450.0,3.0,,,,,,,,,orange,flipped triangle
0.0,4.0,4.0,0.0,5.0,5.0,692.5590310002008,3.0,0.0,part_2,go,500.0,450.0,1.0,,,,,,,,,cyan,diamond
0.0,3.0,3.0,0.0,5.0,5.0,428.7171010000747,3.0,0.0,part_2,go,500.0,450.0,1.0,,,,,,,,,gray,circle
0.0,6.0,2.0,1.0,6.0,0.0,0.0,3.0,0.0,part_2,stop,500.0,450.0,4.0,,,,,,,,,yellow,hexagon
0.0,5.0,1.0,1.0,5.0,5.0,428.9308639999944,3.0,0.0,part_2,stop,500.0,500.0,3.0,,,,,,,,,magenta,I
0.0,3.0,3.0,0.0,5.0,5.0,796.0830179999903,3.0,0.0,part_2,go,450.0,500.0,1.0,,,,,,,,,gray,circle
0.0,3.0,3.0,0.0,6.0,6.0,699.9389769989648,3.0,0.0,part_2,go,450.0,500.0,1.0,,,,,,,,,gray,circle
0.0,4.0,4.0,0.0,5.0,5.0,697.7551539985143,3.0,0.0,part_2,go,450.0,500.0,1.0,,,,,,,,,cyan,diamond
0.0,8.0,4.0,1.0,5.0,5.0,417.3260629995639,3.0,0.0,part_2,stop,450.0,500.0,3.0,,,,,,,,,green,triangle
0.0,8.0,4.0,1.0,5.0,5.0,744.4918420005706,3.0,0.0,part_2,go,400.0,500.0,1.0,,,,,,,,,green,triangle
0.0,2.0,2.0,0.0,6.0,6.0,617.17518200021,3.0,0.0,part_2,go,400.0,500.0,1.0,,,,,,,,,blue,cross
0.0,2.0,2.0,0.0,5.0,5.0,840.7489929995791,3.0,0.0,part_2,go,400.0,500.0,1.0,,,,,,,,,blue,cross
0.0,5.0,1.0,1.0,5.0,0.0,0.0,3.0,0.0,part_2,stop,400.0,500.0,4.0,,,,,,,,,magenta,I
0.0,1.0,1.0,0.0,6.0,6.0,629.47616099882,3.0,0.0,part_2,go,450.0,500.0,1.0,,,,,,,,,white,square
0.0,8.0,4.0,1.0,5.0,0.0,0.0,3.0,0.0,part_2,stop,450.0,500.0,4.0,,,,,,,,,green,triangle
0.0,8.0,4.0,1.0,5.0,5.0,860.2066820003529,3.0,0.0,part_2,go,500.0,500.0,1.0,,,,,,,,,green,triangle
0.0,7.0,3.0,1.0,6.0,0.0,0.0,3.0,0.0,part_2,stop,500.0,500.0,4.0,,,,,,,,,orange,flipped triangle
0.0,5.0,1.0,1.0,6.0,0.0,0.0,3.0,0.0,part_2,stop,500.0,550.0,4.0,,,,,,,,,magenta,I
0.0,2.0,2.0,0.0,6.0,6.0,795.11136399924,3.0,0.0,part_2,go,500.0,600.0,1.0,,,,,,,,,blue,cross
0.0,4.0,4.0,0.0,5.0,5.0,490.5648750009277,3.0,0.0,part_2,go,500.0,600.0,1.0,,,,,,,,,cyan,diamond
0.0,4.0,4.0,0.0,5.0,5.0,700.0517149990628,3.0,0.0,part_2,go,500.0,600.0,1.0,,,,,,,,,cyan,diamond
0.0,1.0,1.0,0.0,6.0,6.0,609.317596999972,3.0,0.0,part_2,go,500.0,600.0,1.0,,,,,,,,,white,square
0.0,6.0,2.0,1.0,6.0,6.0,577.8887779997604,3.0,0.0,part_2,stop,500.0,600.0,3.0,,,,,,,,,yellow,hexagon
0.0,5.0,1.0,1.0,5.0,5.0,537.5015059998987,3.0,0.0,part_2,stop,500.0,550.0,3.0,,,,,,,,,magenta,I
0.0,4.0,4.0,0.0,6.0,6.0,856.1411800001224,3.0,0.0,part_2,go,450.0,550.0,1.0,,,,,,,,,cyan,diamond
0.0,6.0,2.0,1.0,5.0,0.0,0.0,3.0,0.0,part_2,stop,450.0,550.0,4.0,,,,,,,,,yellow,hexagon
0.0,3.0,3.0,0.0,6.0,6.0,807.4424959995667,3.0,0.0,part_2,go,500.0,550.0,1.0,,,,,,,,,gray,circle
0.0,1.0,1.0,0.0,6.0,6.0,669.5803739985422,3.0,0.0,part_2,go,500.0,550.0,1.0,,,,,,,,,white,square
0.0,2.0,2.0,0.0,6.0,6.0,782.3404909995588,3.0,0.0,part_2,go,500.0,550.0,1.0,,,,,,,,,blue,cross
0.0,5.0,1.0,1.0,5.0,0.0,0.0,3.0,0.0,part_2,stop,500.0,550.0,4.0,,,,,,,,,magenta,I
0.0,6.0,2.0,1.0,5.0,5.0,757.434931001626,3.0,0.0,part_2,go,550.0,550.0,1.0,,,,,,,,,yellow,hexagon
0.0,8.0,4.0,1.0,5.0,0.0,0.0,3.0,0.0,part_2,stop,550.0,550.0,4.0,,,,,,,,,green,triangle
0.0,5.0,1.0,1.0,5.0,5.0,469.2247620005219,4.0,0.0,part_2,stop,600.0,550.0,3.0,,,,,,,,,magenta,I
0.0,6.0,2.0,1.0,5.0,5.0,581.4968320009939,4.0,0.0,part_2,go,550.0,550.0,1.0,,,,,,,,,yellow,hexagon
0.0,1.0,1.0,0.0,5.0,5.0,410.7406820003234,4.0,0.0,part_2,go,550.0,550.0,1.0,,,,,,,,,white,square
0.0,8.0,4.0,1.0,5.0,5.0,331.5001399987523,4.0,0.0,part_2,go,550.0,550.0,1.0,,,,,,,,,green,triangle
0.0,4.0,4.0,0.0,6.0,6.0,372.5877849992685,4.0,0.0,part_2,go,550.0,550.0,1.0,,,,,,,,,cyan,diamond
0.0,3.0,3.0,0.0,6.0,6.0,553.431789001479,4.0,0.0,part_2,go,550.0,550.0,1.0,,,,,,,,,gray,circle
0.0,3.0,3.0,0.0,6.0,6.0,577.4030249995121,4.0,0.0,part_2,go,550.0,550.0,1.0,,,,,,,,,gray,circle
0.0,4.0,4.0,0.0,6.0,6.0,594.2204019993369,4.0,0.0,part_2,go,550.0,550.0,1.0,,,,,,,,,cyan,diamond
0.0,1.0,1.0,0.0,6.0,6.0,441.5444820006087,4.0,0.0,part_2,go,550.0,550.0,1.0,,,,,,,,,white,square
0.0,7.0,3.0,1.0,6.0,6.0,367.8967730011209,4.0,0.0,part_2,stop,550.0,550.0,3.0,,,,,,,,,orange,flipped triangle
0.0,2.0,2.0,0.0,5.0,5.0,295.529267999882,4.0,0.0,part_2,go,550.0,500.0,1.0,,,,,,,,,blue,cross
0.0,2.0,2.0,0.0,5.0,5.0,407.8466650007613,4.0,0.0,part_2,go,550.0,500.0,1.0,,,,,,,,,blue,cross
0.0,1.0,1.0,0.0,5.0,5.0,351.6958050004177,4.0,0.0,part_2,go,550.0,500.0,1.0,,,,,,,,,white,square
0.0,6.0,2.0,1.0,5.0,5.0,380.28794000092597,4.0,0.0,part_2,go,550.0,500.0,1.0,,,,,,,,,yellow,hexagon
0.0,4.0,4.0,0.0,5.0,5.0,333.6817429990333,4.0,0.0,part_2,go,550.0,500.0,1.0,,,,,,,,,cyan,diamond
0.0,7.0,3.0,1.0,5.0,5.0,357.3582229983003,4.0,0.0,part_2,stop,550.0,500.0,3.0,,,,,,,,,orange,flipped triangle
0.0,8.0,4.0,1.0,5.0,5.0,395.2925570010848,4.0,0.0,part_2,stop,500.0,500.0,3.0,,,,,,,,,green,triangle
0.0,8.0,4.0,1.0,6.0,0.0,0.0,4.0,0.0,part_2,stop,450.0,500.0,4.0,,,,,,,,,green,triangle
0.0,1.0,1.0,0.0,5.0,5.0,659.182002000307,4.0,0.0,part_2,go,450.0,550.0,1.0,,,,,,,,,white,square
0.0,5.0,1.0,1.0,5.0,5.0,666.0071450005489,4.0,0.0,part_2,go,450.0,550.0,1.0,,,,,,,,,magenta,I
0.0,5.0,1.0,1.0,6.0,6.0,626.4557360009348,4.0,0.0,part_2,go,450.0,550.0,1.0,,,,,,,,,magenta,I
0.0,2.0,2.0,0.0,6.0,6.0,353.6132980007096,4.0,0.0,part_2,go,450.0,550.0,1.0,,,,,,,,,blue,cross
0.0,7.0,3.0,1.0,6.0,6.0,600.8287540007586,4.0,0.0,part_2,stop,450.0,550.0,3.0,,,,,,,,,orange,flipped triangle
0.0,8.0,4.0,1.0,5.0,0.0,0.0,4.0,0.0,part_2,stop,450.0,500.0,4.0,,,,,,,,,green,triangle
0.0,5.0,1.0,1.0,5.0,0.0,0.0,4.0,0.0,part_2,stop,500.0,500.0,4.0,,,,,,,,,magenta,I
0.0,1.0,1.0,0.0,5.0,5.0,391.3064730004407,4.0,0.0,part_2,go,550.0,500.0,1.0,,,,,,,,,white,square
0.0,2.0,2.0,0.0,5.0,5.0,517.4848120004754,4.0,0.0,part_2,go,550.0,500.0,1.0,,,,,,,,,blue,cross
0.0,8.0,4.0,1.0,6.0,6.0,315.8851370008051,4.0,0.0,part_2,stop,550.0,500.0,3.0,,,,,,,,,green,triangle
0.0,4.0,4.0,0.0,5.0,5.0,598.0758390014671,4.0,0.0,part_2,go,550.0,450.0,1.0,,,,,,,,,cyan,diamond
0.0,5.0,1.0,1.0,6.0,6.0,484.9871169990365,4.0,0.0,part_2,stop,550.0,450.0,3.0,,,,,,,,,magenta,I
0.0,4.0,4.0,0.0,5.0,5.0,716.1666520005383,4.0,0.0,part_2,go,550.0,400.0,1.0,,,,,,,,,cyan,diamond
0.0,1.0,1.0,0.0,6.0,6.0,819.7744749995763,4.0,0.0,part_2,go,550.0,400.0,1.0,,,,,,,,,white,square
0.0,4.0,4.0,0.0,6.0,6.0,729.1783290002058,4.0,0.0,part_2,go,550.0,400.0,1.0,,,,,,,,,cyan,diamond
0.0,8.0,4.0,1.0,6.0,0.0,0.0,4.0,0.0,part_2,stop,550.0,400.0,4.0,,,,,,,,,green,triangle
0.0,1.0,1.0,0.0,5.0,5.0,537.6715499987768,4.0,0.0,part_2,go,550.0,450.0,1.0,,,,,,,,,white,square
0.0,7.0,3.0,1.0,5.0,5.0,471.5260070006479,4.0,0.0,part_2,stop,550.0,450.0,3.0,,,,,,,,,orange,flipped triangle
0.0,4.0,4.0,0.0,6.0,6.0,517.700642998534,5.0,0.0,part_2,go,500.0,450.0,1.0,,,,,,,,,cyan,diamond
0.0,1.0,1.0,0.0,5.0,5.0,351.2858039994171,5.0,0.0,part_2,go,500.0,450.0,1.0,,,,,,,,,white,square
0.0,6.0,2.0,1.0,6.0,6.0,309.8586919986701,5.0,0.0,part_2,go,500.0,450.0,1.0,,,,,,,,,yellow,hexagon
0.0,6.0,2.0,1.0,6.0,6.0,308.7317480003548,5.0,0.0,part_2,stop,500.0,450.0,3.0,,,,,,,,,yellow,hexagon
0.0,5.0,1.0,1.0,6.0,6.0,525.0972720004938,5.0,0.0,part_2,stop,500.0,400.0,3.0,,,,,,,,,magenta,I
0.0,7.0,3.0,1.0,5.0,5.0,483.7485959997138,5.0,0.0,part_2,stop,500.0,350.0,3.0,,,,,,,,,orange,flipped triangle
0.0,8.0,4.0,1.0,5.0,5.0,315.6889340007183,5.0,0.0,part_2,go,450.0,350.0,1.0,,,,,,,,,green,triangle
0.0,5.0,1.0,1.0,6.0,0.0,0.0,5.0,0.0,part_2,stop,450.0,350.0,4.0,,,,,,,,,magenta,I
0.0,7.0,3.0,1.0,6.0,6.0,465.2143010007421,5.0,0.0,part_2,stop,450.0,400.0,3.0,,,,,,,,,orange,flipped triangle
0.0,4.0,4.0,0.0,5.0,5.0,602.5607980009227,5.0,0.0,part_2,go,450.0,350.0,1.0,,,,,,,,,cyan,diamond
0.0,2.0,2.0,0.0,5.0,5.0,312.4422349992528,5.0,0.0,part_2,go,450.0,350.0,1.0,,,,,,,,,blue,cross
0.0,6.0,2.0,1.0,6.0,6.0,302.9249319988594,5.0,0.0,part_2,go,450.0,350.0,1.0,,,,,,,,,yellow,hexagon
0.0,1.0,1.0,0.0,6.0,6.0,614.8268369997822,5.0,0.0,part_2,go,450.0,350.0,1.0,,,,,,,,,white,square
0.0,7.0,3.0,1.0,6.0,6.0,333.7176000004547,5.0,0.0,part_2,stop,450.0,350.0,3.0,,,,,,,,,orange,flipped triangle
0.0,2.0,2.0,0.0,5.0,5.0,397.8071250003268,5.0,0.0,part_2,go,450.0,300.0,1.0,,,,,,,,,blue,cross
0.0,1.0,1.0,0.0,6.0,6.0,277.4901860011596,5.0,0.0,part_2,go,450.0,300.0,1.0,,,,,,,,,white,square
0.0,8.0,4.0,1.0,5.0,5.0,318.5865529994771,5.0,0.0,part_2,stop,450.0,300.0,3.0,,,,,,,,,green,triangle
0.0,1.0,1.0,0.0,6.0,6.0,579.9315100011881,5.0,0.0,part_2,go,400.0,300.0,1.0,,,,,,,,,white,square
0.0,3.0,3.0,0.0,6.0,6.0,325.501515999349,5.0,0.0,part_2,go,400.0,300.0,1.0,,,,,,,,,gray,circle
0.0,7.0,3.0,1.0,5.0,5.0,412.4078439999721,5.0,0.0,part_2,go,400.0,300.0,1.0,,,,,,,,,orange,flipped triangle
0.0,3.0,3.0,0.0,5.0,5.0,345.362786001715,5.0,0.0,part_2,go,400.0,300.0,1.0,,,,,,,,,gray,circle
0.0,7.0,3.0,1.0,6.0,6.0,482.9831740007648,5.0,0.0,part_2,go,400.0,300.0,1.0,,,,,,,,,orange,flipped triangle
0.0,3.0,3.0,0.0,6.0,6.0,383.9394030001131,5.0,0.0,part_2,go,400.0,300.0,1.0,,,,,,,,,gray,circle
0.0,8.0,4.0,1.0,6.0,6.0,329.1238999991037,5.0,0.0,part_2,stop,400.0,300.0,3.0,,,,,,,,,green,triangle
0.0,6.0,2.0,1.0,5.0,5.0,352.7905849987292,5.0,0.0,part_2,stop,400.0,250.0,3.0,,,,,,,,,yellow,hexagon
0.0,2.0,2.0,0.0,5.0,5.0,376.275431999602,5.0,0.0,part_2,go,350.0,250.0,1.0,,,,,,,,,blue,cross
0.0,7.0,3.0,1.0,5.0,5.0,326.5611970000464,5.0,0.0,part_2,stop,350.0,250.0,3.0,,,,,,,,,orange,flipped triangle
0.0,5.0,1.0,1.0,6.0,0.0,0.0,5.0,0.0,part_2,stop,300.0,250.0,4.0,,,,,,,,,magenta,I
0.0,3.0,3.0,0.0,6.0,6.0,526.7787249995308,5.0,0.0,part_2,go,300.0,300.0,1.0,,,,,,,,,gray,circle
0.0,2.0,2.0,0.0,6.0,6.0,355.8813910003664,5.0,0.0,part_2,go,300.0,300.0,1.0,,,,,,,,,blue,cross
0.0,2.0,2.0,0.0,6.0,6.0,474.9723499990068,5.0,0.0,part_2,go,300.0,300.0,1.0,,,,,,,,,blue,cross
0.0,7.0,3.0,1.0,6.0,6.0,362.6631589995668,5.0,0.0,part_2,stop,300.0,300.0,3.0,,,,,,,,,orange,flipped triangle
0.0,3.0,3.0,0.0,6.0,6.0,618.8528940001561,5.0,0.0,part_2,go,300.0,250.0,1.0,,,,,,,,,gray,circle
0.0,5.0,1.0,1.0,5.0,5.0,522.0560960005969,5.0,0.0,part_2,go,300.0,250.0,1.0,,,,,,,,,magenta,I
0.0,6.0,2.0,1.0,6.0,6.0,315.3555280005093,5.0,0.0,part_2,stop,300.0,250.0,3.0,,,,,,,,,yellow,hexagon
0.0,1.0,1.0,0.0,5.0,5.0,440.1417419994686,5.0,0.0,part_2,go,300.0,200.0,1.0,,,,,,,,,white,square
0.0,8.0,4.0,1.0,6.0,0.0,0.0,6.0,0.0,part_2,stop,300.0,200.0,4.0,,,,,,,,,green,triangle
0.0,3.0,3.0,0.0,5.0,5.0,388.3106540015433,6.0,0.0,part_2,go,300.0,250.0,1.0,,,,,,,,,gray,circle
0.0,8.0,4.0,1.0,6.0,6.0,275.2544350005337,6.0,0.0,part_2,stop,300.0,250.0,3.0,,,,,,,,,green,triangle
0.0,7.0,3.0,1.0,5.0,5.0,283.3596189993841,6.0,0.0,part_2,stop,300.0,200.0,3.0,,,,,,,,,orange,flipped triangle
0.0,5.0,1.0,1.0,5.0,5.0,466.219281001031,6.0,0.0,part_2,go,250.0,200.0,1.0,,,,,,,,,magenta,I
0.0,5.0,1.0,1.0,6.0,6.0,266.9607850002649,6.0,0.0,part_2,stop,250.0,200.0,3.0,,,,,,,,,magenta,I
0.0,1.0,1.0,0.0,5.0,5.0,307.0969209984469,6.0,0.0,part_2,go,250.0,150.0,1.0,,,,,,,,,white,square
0.0,6.0,2.0,1.0,5.0,5.0,360.3579899991018,6.0,0.0,part_2,stop,250.0,150.0,3.0,,,,,,,,,yellow,hexagon
0.0,2.0,2.0,0.0,5.0,5.0,382.9619909993198,6.0,0.0,part_2,go,200.0,150.0,1.0,,,,,,,,,blue,cross
0.0,7.0,3.0,1.0,5.0,5.0,351.0663010001735,6.0,0.0,part_2,stop,200.0,150.0,3.0,,,,,,,,,orange,flipped triangle
0.0,1.0,1.0,0.0,5.0,5.0,350.5902840006456,6.0,0.0,part_2,go,150.0,150.0,1.0,,,,,,,,,white,square
0.0,7.0,3.0,1.0,5.0,5.0,447.4042050005664,6.0,0.0,part_2,go,150.0,150.0,1.0,,,,,,,,,orange,flipped triangle
0.0,8.0,4.0,1.0,5.0,5.0,884.2192869997234,6.0,0.0,part_2,stop,150.0,150.0,3.0,,,,,,,,,green,triangle
0.0,4.0,4.0,0.0,6.0,6.0,620.769372999348,6.0,0.0,part_2,go,100.0,150.0,1.0,,,,,,,,,cyan,diamond
0.0,5.0,1.0,1.0,5.0,0.0,0.0,6.0,0.0,part_2,stop,100.0,150.0,4.0,,,,,,,,,magenta,I
0.0,7.0,3.0,1.0,6.0,0.0,0.0,6.0,0.0,part_2,stop,150.0,150.0,4.0,,,,,,,,,orange,flipped triangle
0.0,3.0,3.0,0.0,6.0,6.0,434.7022820002166,6.0,0.0,part_2,go,150.0,200.0,1.0,,,,,,,,,gray,circle
0.0,2.0,2.0,0.0,6.0,6.0,322.1795640001801,6.0,0.0,part_2,go,150.0,200.0,1.0,,,,,,,,,blue,cross
0.0,5.0,1.0,1.0,5.0,5.0,370.688020999296,6.0,0.0,part_2,stop,150.0,200.0,3.0,,,,,,,,,magenta,I
0.0,3.0,3.0,0.0,5.0,5.0,593.231561999346,6.0,0.0,part_2,go,100.0,200.0,1.0,,,,,,,,,gray,circle
0.0,5.0,1.0,1.0,5.0,0.0,0.0,6.0,0.0,part_2,stop,100.0,200.0,4.0,,,,,,,,,magenta,I
0.0,2.0,2.0,0.0,6.0,6.0,344.8945630007074,6.0,0.0,part_2,go,150.0,200.0,1.0,,,,,,,,,blue,cross
0.0,7.0,3.0,1.0,5.0,0.0,0.0,6.0,0.0,part_2,stop,150.0,200.0,4.0,,,,,,,,,orange,flipped triangle
0.0,6.0,2.0,1.0,6.0,6.0,320.7867170003737,6.0,0.0,part_2,stop,200.0,200.0,3.0,,,,,,,,,yellow,hexagon
0.0,1.0,1.0,0.0,6.0,6.0,327.6812359999894,6.0,0.0,part_2,go,200.0,150.0,1.0,,,,,,,,,white,square
0.0,4.0,4.0,0.0,6.0,6.0,301.0719859994424,6.0,0.0,part_2,go,200.0,150.0,1.0,,,,,,,,,cyan,diamond
0.0,3.0,3.0,0.0,5.0,5.0,412.8297669994936,6.0,0.0,part_2,go,200.0,150.0,1.0,,,,,,,,,gray,circle
0.0,1.0,1.0,0.0,6.0,6.0,397.3774179994507,6.0,0.0,part_2,go,200.0,150.0,1.0,,,,,,,,,white,square
0.0,6.0,2.0,1.0,5.0,0.0,0.0,6.0,0.0,part_2,stop,200.0,150.0,4.0,,,,,,,,,yellow,hexagon
0.0,1.0,1.0,0.0,5.0,5.0,442.1943820016167,6.0,0.0,part_2,go,250.0,150.0,1.0,,,,,,,,,white,square
0.0,6.0,2.0,1.0,5.0,0.0,0.0,6.0,0.0,part_2,stop,250.0,150.0,4.0,,,,,,,,,yellow,hexagon
0.0,2.0,2.0,0.0,6.0,6.0,513.6562750012672,6.0,0.0,part_2,go,300.0,150.0,1.0,,,,,,,,,blue,cross
0.0,7.0,3.0,1.0,6.0,0.0,0.0,6.0,0.0,part_2,stop,300.0,150.0,4.0,,,,,,,,,orange,flipped triangle
0.0,2.0,2.0,0.0,6.0,6.0,312.3789930014027,6.0,0.0,part_2,go,300.0,200.0,1.0,,,,,,,,,blue,cross
0.0,4.0,4.0,0.0,5.0,5.0,456.7416099998809,6.0,0.0,part_2,go,300.0,200.0,1.0,,,,,,,,,cyan,diamond
0.0,2.0,2.0,0.0,5.0,5.0,384.3776179983251,6.0,0.0,part_2,go,300.0,200.0,1.0,,,,,,,,,blue,cross
0.0,4.0,4.0,0.0,5.0,5.0,399.61341200069,7.0,0.0,part_2,go,300.0,200.0,1.0,,,,,,,,,cyan,diamond
0.0,8.0,4.0,1.0,6.0,0.0,0.0,7.0,0.0,part_2,stop,300.0,200.0,4.0,,,,,,,,,green,triangle
0.0,7.0,3.0,1.0,6.0,6.0,423.1409120002354,7.0,0.0,part_2,go,300.0,250.0,1.0,,,,,,,,,orange,flipped triangle
0.0,7.0,3.0,1.0,6.0,0.0,0.0,7.0,0.0,part_2,stop,300.0,250.0,4.0,,,,,,,,,orange,flipped triangle
0.0,2.0,2.0,0.0,5.0,5.0,333.1760059991211,7.0,0.0,part_2,go,300.0,300.0,1.0,,,,,,,,,blue,cross
0.0,1.0,1.0,0.0,5.0,5.0,340.7957380004518,7.0,0.0,part_2,go,300.0,300.0,1.0,,,,,,,,,white,square
0.0,5.0,1.0,1.0,5.0,5.0,347.9679560005024,7.0,0.0,part_2,stop,300.0,300.0,3.0,,,,,,,,,magenta,I
0.0,5.0,1.0,1.0,6.0,0.0,0.0,7.0,0.0,part_2,stop,250.0,300.0,4.0,,,,,,,,,magenta,I
0.0,6.0,2.0,1.0,5.0,0.0,0.0,7.0,0.0,part_2,stop,250.0,350.0,4.0,,,,,,,,,yellow,hexagon
0.0,8.0,4.0,1.0,6.0,6.0,436.3895110000158,7.0,0.0,part_2,go,300.0,350.0,1.0,,,,,,,,,green,triangle
0.0,5.0,1.0,1.0,6.0,6.0,371.5614969987655,7.0,0.0,part_2,stop,300.0,350.0,3.0,,,,,,,,,magenta,I
0.0,4.0,4.0,0.0,5.0,5.0,538.8701669999136,7.0,0.0,part_2,go,300.0,300.0,1.0,,,,,,,,,cyan,diamond
0.0,4.0,4.0,0.0,5.0,5.0,343.5525989989401,7.0,0.0,part_2,go,300.0,300.0,1.0,,,,,,,,,cyan,diamond
0.0,1.0,1.0,0.0,5.0,5.0,335.2293980005925,7.0,0.0,part_2,go,300.0,300.0,1.0,,,,,,,,,white,square
0.0,4.0,4.0,0.0,6.0,6.0,376.7532120000396,7.0,0.0,part_2,go,300.0,300.0,1.0,,,,,,,,,cyan,diamond
0.0,8.0,4.0,1.0,6.0,6.0,334.325670999533,7.0,0.0,part_2,stop,300.0,300.0,3.0,,,,,,,,,green,triangle
0.0,7.0,3.0,1.0,6.0,6.0,495.1522329993167,7.0,0.0,part_2,go,300.0,250.0,1.0,,,,,,,,,orange,flipped triangle
0.0,6.0,2.0,1.0,6.0,6.0,318.9436579996254,7.0,0.0,part_2,stop,300.0,250.0,3.0,,,,,,,,,yellow,hexagon
0.0,3.0,3.0,0.0,6.0,6.0,453.6755989993253,7.0,0.0,part_2,go,300.0,200.0,1.0,,,,,,,,,gray,circle
0.0,2.0,2.0,0.0,6.0,6.0,524.8959740001737,7.0,0.0,part_2,go,300.0,200.0,1.0,,,,,,,,,blue,cross
0.0,1.0,1.0,0.0,6.0,6.0,523.9163160003955,7.0,0.0,part_2,go,300.0,200.0,1.0,,,,,,,,,white,square
0.0,3.0,3.0,0.0,5.0,5.0,322.4398439997458,7.0,0.0,part_2,go,300.0,200.0,1.0,,,,,,,,,gray,circle
0.0,4.0,4.0,0.0,6.0,6.0,345.4671319996123,7.0,0.0,part_2,go,300.0,200.0,1.0,,,,,,,,,cyan,diamond
0.0,3.0,3.0,0.0,5.0,5.0,320.2190510000946,7.0,0.0,part_2,go,300.0,200.0,1.0,,,,,,,,,gray,circle
0.0,5.0,1.0,1.0,5.0,5.0,336.14748400032107,7.0,0.0,part_2,stop,300.0,200.0,3.0,,,,,,,,,magenta,I
0.0,8.0,4.0,1.0,5.0,5.0,481.8249889995059,7.0,0.0,part_2,go,250.0,200.0,1.0,,,,,,,,,green,triangle
0.0,6.0,2.0,1.0,6.0,0.0,0.0,7.0,0.0,part_2,stop,250.0,200.0,4.0,,,,,,,,,yellow,hexagon
0.0,8.0,4.0,1.0,6.0,6.0,622.0173349993274,7.0,0.0,part_2,go,250.0,250.0,1.0,,,,,,,,,green,triangle
0.0,2.0,2.0,0.0,5.0,5.0,367.9172600004676,7.0,0.0,part_2,go,250.0,250.0,1.0,,,,,,,,,blue,cross
0.0,5.0,1.0,1.0,5.0,0.0,0.0,7.0,0.0,part_2,stop,250.0,250.0,4.0,,,,,,,,,magenta,I
0.0,4.0,4.0,0.0,6.0,6.0,421.0261160005757,7.0,0.0,part_2,go,300.0,250.0,1.0,,,,,,,,,cyan,diamond
0.0,7.0,3.0,1.0,6.0,6.0,500.64041299992823,7.0,0.0,part_2,go,300.0,250.0,1.0,,,,,,,,,orange,flipped triangle
0.0,4.0,4.0,0.0,6.0,6.0,338.6977259997366,7.0,0.0,part_2,go,300.0,250.0,1.0,,,,,,,,,cyan,diamond
0.0,6.0,2.0,1.0,6.0,0.0,0.0,7.0,0.0,part_2,stop,300.0,250.0,4.0,,,,,,,,,yellow,hexagon
0.0,7.0,3.0,1.0,5.0,5.0,444.010311999591,7.0,0.0,part_2,stop,300.0,300.0,3.0,,,,,,,,,orange,flipped triangle
0.0,7.0,3.0,1.0,6.0,6.0,496.8647749992669,7.0,0.0,part_2,go,250.0,300.0,1.0,,,,,,,,,orange,flipped triangle
0.0,3.0,3.0,0.0,5.0,5.0,382.0991649990901,8.0,0.0,part_2,go,250.0,300.0,1.0,,,,,,,,,gray,circle
0.0,6.0,2.0,1.0,5.0,5.0,349.4962290005787,8.0,0.0,part_2,stop,250.0,300.0,3.0,,,,,,,,,yellow,hexagon
0.0,3.0,3.0,0.0,5.0,5.0,420.9768759992585,8.0,0.0,part_2,go,200.0,300.0,1.0,,,,,,,,,gray,circle
0.0,5.0,1.0,1.0,6.0,0.0,0.0,8.0,0.0,part_2,stop,200.0,300.0,4.0,,,,,,,,,magenta,I
0.0,8.0,4.0,1.0,5.0,5.0,338.0199929997616,8.0,0.0,part_2,stop,200.0,350.0,3.0,,,,,,,,,green,triangle
0.0,5.0,1.0,1.0,6.0,6.0,371.9724149996182,8.0,0.0,part_2,stop,150.0,350.0,3.0,,,,,,,,,magenta,I
0.0,2.0,2.0,0.0,6.0,6.0,312.1486609998101,8.0,0.0,part_2,go,150.0,300.0,1.0,,,,,,,,,blue,cross
0.0,3.0,3.0,0.0,6.0,6.0,377.2738039988326,8.0,0.0,part_2,go,150.0,300.0,1.0,,,,,,,,,gray,circle
0.0,6.0,2.0,1.0,6.0,0.0,0.0,8.0,0.0,part_2,stop,150.0,300.0,4.0,,,,,,,,,yellow,hexagon
0.0,1.0,1.0,0.0,5.0,5.0,432.5848589996894,8.0,0.0,part_2,go,150.0,350.0,1.0,,,,,,,,,white,square
0.0,1.0,1.0,0.0,6.0,6.0,591.0295689991472,8.0,0.0,part_2,go,150.0,350.0,1.0,,,,,,,,,white,square
0.0,4.0,4.0,0.0,5.0,5.0,383.3060760007356,8.0,0.0,part_2,go,150.0,350.0,1.0,,,,,,,,,cyan,diamond
0.0,5.0,1.0,1.0,6.0,6.0,389.9488699989888,8.0,0.0,part_2,stop,150.0,350.0,3.0,,,,,,,,,magenta,I
0.0,7.0,3.0,1.0,5.0,0.0,0.0,8.0,0.0,part_2,stop,150.0,300.0,4.0,,,,,,,,,orange,flipped triangle
0.0,2.0,2.0,0.0,5.0,5.0,340.1619610012858,8.0,0.0,part_2,go,200.0,300.0,1.0,,,,,,,,,blue,cross
0.0,7.0,3.0,1.0,6.0,6.0,411.3463070007128,8.0,0.0,part_2,stop,200.0,300.0,3.0,,,,,,,,,orange,flipped triangle
0.0,3.0,3.0,0.0,5.0,5.0,508.56454400127404,8.0,0.0,part_2,go,200.0,250.0,1.0,,,,,,,,,gray,circle
0.0,4.0,4.0,0.0,5.0,5.0,395.844295999268,8.0,0.0,part_2,go,200.0,250.0,1.0,,,,,,,,,cyan,diamond
0.0,6.0,2.0,1.0,6.0,6.0,321.0051379992364,8.0,0.0,part_2,stop,200.0,250.0,3.0,,,,,,,,,yellow,hexagon
0.0,4.0,4.0,0.0,6.0,6.0,592.0770749999065,8.0,0.0,part_2,go,200.0,200.0,1.0,,,,,,,,,cyan,diamond
0.0,2.0,2.0,0.0,6.0,6.0,544.2538300012529,8.0,0.0,part_2,go,200.0,200.0,1.0,,,,,,,,,blue,cross
0.0,4.0,4.0,0.0,5.0,5.0,441.4530089998152,8.0,0.0,part_2,go,200.0,200.0,1.0,,,,,,,,,cyan,diamond
0.0,5.0,1.0,1.0,5.0,5.0,342.9680240005837,8.0,0.0,part_2,go,200.0,200.0,1.0,,,,,,,,,magenta,I
0.0,8.0,4.0,1.0,6.0,6.0,310.4216870015079,8.0,0.0,part_2,go,200.0,200.0,1.0,,,,,,,,,green,triangle
0.0,7.0,3.0,1.0,5.0,0.0,0.0,8.0,0.0,part_2,stop,200.0,200.0,4.0,,,,,,,,,orange,flipped triangle
0.0,1.0,1.0,0.0,5.0,5.0,565.2195990005566,8.0,0.0,part_2,go,250.0,200.0,1.0,,,,,,,,,white,square
0.0,3.0,3.0,0.0,6.0,6.0,340.7846979989699,8.0,0.0,part_2,go,250.0,200.0,1.0,,,,,,,,,gray,circle
0.0,4.0,4.0,0.0,5.0,5.0,428.077131999089,8.0,0.0,part_2,go,250.0,200.0,1.0,,,,,,,,,cyan,diamond
0.0,7.0,3.0,1.0,5.0,0.0,0.0,8.0,0.0,part_2,stop,250.0,200.0,4.0,,,,,,,,,orange,flipped triangle
0.0,6.0,2.0,1.0,5.0,5.0,353.7541469995631,8.0,0.0,part_2,stop,300.0,200.0,3.0,,,,,,,,,yellow,hexagon
0.0,5.0,1.0,1.0,5.0,5.0,449.7681230004673,8.0,0.0,part_2,go,250.0,200.0,1.0,,,,,,,,,magenta,I
0.0,3.0,3.0,0.0,5.0,5.0,353.1757990003825,8.0,0.0,part_2,go,250.0,200.0,1.0,,,,,,,,,gray,circle
0.0,6.0,2.0,1.0,5.0,5.0,320.6890810015466,8.0,0.0,part_2,stop,250.0,200.0,3.0,,,,,,,,,yellow,hexagon
0.0,4.0,4.0,0.0,6.0,6.0,401.8145299996831,8.0,0.0,part_2,go,200.0,200.0,1.0,,,,,,,,,cyan,diamond
0.0,4.0,4.0,0.0,6.0,6.0,391.5660120001121,8.0,0.0,part_2,go,200.0,200.0,1.0,,,,,,,,,cyan,diamond
0.0,7.0,3.0,1.0,6.0,6.0,414.3082549999235,8.0,0.0,part_2,go,200.0,200.0,1.0,,,,,,,,,orange,flipped triangle
0.0,8.0,4.0,1.0,7.0,4.0,1588.469061998694,1.0,2.0,part_3,go,0.0,0.0,0.0,576.0,3.0,192.0,768.0,384.0,576.0,1152.0,960.0,green,triangle
0.0,7.0,3.0,1.0,7.0,5.0,3415.576223000244,1.0,1.0,part_3,go,0.0,0.0,0.0,519.0,3.0,692.0,173.0,1038.0,346.0,519.0,865.0,orange,flipped triangle
0.0,1.0,1.0,0.0,7.0,3.0,1976.3019000001805,1.0,1.0,part_3,go,0.0,0.0,0.0,308.0,2.0,770.0,154.0,308.0,924.0,616.0,462.0,white,square
0.0,6.0,2.0,1.0,7.0,1.0,2704.909460999261,1.0,1.0,part_3,go,0.0,0.0,0.0,540.0,4.0,540.0,270.0,675.0,135.0,405.0,810.0,yellow,hexagon
0.0,8.0,4.0,1.0,7.0,3.0,2193.9429140002176,1.0,1.0,part_3,go,0.0,0.0,0.0,346.0,2.0,865.0,173.0,346.0,1038.0,519.0,692.0,green,triangle
0.0,1.0,1.0,0.0,7.0,6.0,1554.269423999358,1.0,1.0,part_3,go,0.0,0.0,0.0,464.0,4.0,580.0,116.0,348.0,232.0,696.0,464.0,white,square
0.0,4.0,4.0,0.0,7.0,5.0,1733.0713540013676,1.0,1.0,part_3,go,0.0,0.0,0.0,960.0,5.0,384.0,192.0,768.0,576.0,960.0,1152.0,cyan,diamond
0.0,6.0,2.0,1.0,7.0,3.0,1711.9697029993404,1.0,1.0,part_3,go,0.0,0.0,0.0,540.0,4.0,675.0,405.0,540.0,270.0,810.0,135.0,yellow,hexagon
0.0,7.0,3.0,1.0,7.0,3.0,1966.1355710013595,1.0,1.0,part_3,go,0.0,0.0,0.0,270.0,2.0,810.0,405.0,270.0,675.0,135.0,540.0,orange,flipped triangle
0.0,4.0,4.0,0.0,7.0,2.0,1472.0116699991197,1.0,1.0,part_3,go,0.0,0.0,0.0,675.0,5.0,540.0,675.0,405.0,810.0,270.0,135.0,cyan,diamond
0.0,8.0,4.0,1.0,7.0,4.0,2714.383421000093,1.0,1.0,part_3,go,0.0,0.0,0.0,616.0,4.0,308.0,924.0,770.0,616.0,154.0,462.0,green,triangle
0.0,2.0,2.0,0.0,7.0,4.0,2244.000844999391,1.0,1.0,part_3,go,0.0,0.0,0.0,519.0,3.0,346.0,1038.0,865.0,519.0,173.0,692.0,blue,cross
0.0,8.0,4.0,1.0,7.0,1.0,3141.949046999798,1.0,1.0,part_3,go,0.0,0.0,0.0,675.0,5.0,675.0,405.0,540.0,135.0,270.0,810.0,green,triangle
0.0,2.0,2.0,0.0,7.0,3.0,1742.5381089997245,1.0,1.0,part_3,go,0.0,0.0,0.0,540.0,4.0,675.0,810.0,540.0,135.0,405.0,270.0,blue,cross
0.0,7.0,3.0,1.0,7.0,2.0,4726.238565999665,1.0,1.0,part_3,go,0.0,0.0,0.0,692.0,4.0,519.0,692.0,173.0,346.0,1038.0,865.0,orange,flipped triangle
0.0,3.0,3.0,0.0,7.0,1.0,3711.570369001493,1.0,1.0,part_3,go,0.0,0.0,0.0,405.0,3.0,405.0,135.0,675.0,540.0,810.0,270.0,gray,circle
0.0,8.0,4.0,1.0,7.0,3.0,1962.6334060012596,1.0,1.0,part_3,go,0.0,0.0,0.0,270.0,2.0,405.0,540.0,270.0,810.0,675.0,135.0,green,triangle
0.0,2.0,2.0,0.0,7.0,4.0,1044.3704159988556,1.0,1.0,part_3,go,0.0,0.0,0.0,384.0,2.0,192.0,768.0,576.0,384.0,1152.0,960.0,blue,cross
0.0,6.0,2.0,1.0,7.0,2.0,2563.47364100111,1.0,1.0,part_3,go,0.0,0.0,0.0,768.0,4.0,384.0,768.0,576.0,1152.0,192.0,960.0,yellow,hexagon
0.0,2.0,2.0,0.0,7.0,2.0,2005.5103970007622,1.0,1.0,part_3,go,0.0,0.0,0.0,616.0,4.0,308.0,616.0,770.0,462.0,154.0,924.0,blue,cross
0.0,8.0,4.0,1.0,7.0,4.0,1221.858581000561,2.0,1.0,part_3,go,0.0,0.0,0.0,692.0,4.0,519.0,346.0,1038.0,692.0,865.0,173.0,green,triangle
0.0,4.0,4.0,0.0,7.0,1.0,1686.7734009993,2.0,1.0,part_3,go,0.0,0.0,0.0,924.0,6.0,924.0,462.0,154.0,770.0,308.0,616.0,cyan,diamond
0.0,8.0,4.0,1.0,7.0,5.0,2023.8224959994113,2.0,1.0,part_3,go,0.0,0.0,0.0,154.0,1.0,616.0,770.0,924.0,308.0,154.0,462.0,green,triangle
0.0,4.0,4.0,0.0,7.0,3.0,2267.512033999082,2.0,1.0,part_3,go,0.0,0.0,0.0,464.0,4.0,348.0,696.0,464.0,232.0,116.0,580.0,cyan,diamond
0.0,6.0,2.0,1.0,7.0,6.0,2069.273556000553,2.0,1.0,part_3,go,0.0,0.0,0.0,580.0,5.0,464.0,232.0,348.0,116.0,696.0,580.0,yellow,hexagon
0.0,4.0,4.0,0.0,7.0,1.0,3411.8049120006617,2.0,1.0,part_3,go,0.0,0.0,0.0,616.0,4.0,616.0,462.0,770.0,308.0,154.0,924.0,cyan,diamond
0.0,4.0,4.0,0.0,7.0,3.0,3204.8882620001677,2.0,1.0,part_3,go,0.0,0.0,0.0,576.0,3.0,768.0,384.0,576.0,1152.0,960.0,192.0,cyan,diamond
0.0,3.0,3.0,0.0,7.0,1.0,2784.17671600073,2.0,1.0,part_3,go,0.0,0.0,0.0,580.0,5.0,580.0,696.0,464.0,116.0,232.0,348.0,gray,circle
0.0,5.0,1.0,1.0,7.0,4.0,3952.6662829994166,2.0,1.0,part_3,go,0.0,0.0,0.0,540.0,4.0,135.0,675.0,405.0,540.0,270.0,810.0,magenta,I
0.0,3.0,3.0,0.0,7.0,4.0,3753.468893999525,2.0,1.0,part_3,go,0.0,0.0,0.0,692.0,4.0,865.0,346.0,173.0,692.0,519.0,1038.0,gray,circle
0.0,7.0,3.0,1.0,7.0,1.0,2706.603210999674,2.0,1.0,part_3,go,0.0,0.0,0.0,696.0,6.0,696.0,348.0,464.0,580.0,232.0,116.0,orange,flipped triangle
0.0,3.0,3.0,0.0,7.0,6.0,2267.800363000788,2.0,1.0,part_3,go,0.0,0.0,0.0,1152.0,6.0,576.0,384.0,768.0,192.0,960.0,1152.0,gray,circle
0.0,1.0,1.0,0.0,7.0,3.0,2957.085055999414,2.0,1.0,part_3,go,0.0,0.0,0.0,540.0,4.0,135.0,675.0,540.0,405.0,270.0,810.0,white,square
0.0,4.0,4.0,0.0,7.0,4.0,1302.3602350003785,2.0,1.0,part_3,go,0.0,0.0,0.0,865.0,5.0,692.0,346.0,173.0,865.0,519.0,1038.0,cyan,diamond
0.0,1.0,1.0,0.0,7.0,4.0,2925.9077710012207,2.0,1.0,part_3,go,0.0,0.0,0.0,768.0,4.0,384.0,192.0,1152.0,768.0,960.0,576.0,white,square
0.0,7.0,3.0,1.0,7.0,5.0,2279.439989000821,2.0,1.0,part_3,go,0.0,0.0,0.0,770.0,5.0,924.0,616.0,462.0,308.0,770.0,154.0,orange,flipped triangle
0.0,5.0,1.0,1.0,7.0,2.0,2147.5041930007137,2.0,1.0,part_3,go,0.0,0.0,0.0,346.0,2.0,519.0,346.0,1038.0,865.0,692.0,173.0,magenta,I
0.0,6.0,2.0,1.0,7.0,3.0,501.7888989987114,2.0,2.0,part_3,go,0.0,0.0,0.0,462.0,3.0,154.0,770.0,462.0,924.0,308.0,616.0,yellow,hexagon
0.0,4.0,4.0,0.0,7.0,2.0,2421.990573000585,2.0,1.0,part_3,go,0.0,0.0,0.0,464.0,4.0,696.0,464.0,232.0,580.0,116.0,348.0,cyan,diamond
0.0,2.0,2.0,0.0,7.0,4.0,1119.0638489988487,2.0,1.0,part_3,go,0.0,0.0,0.0,696.0,6.0,348.0,116.0,464.0,696.0,580.0,232.0,blue,cross
0.0,6.0,2.0,1.0,7.0,4.0,1945.4427390010096,3.0,1.0,part_3,go,0.0,0.0,0.0,692.0,4.0,173.0,346.0,1038.0,692.0,519.0,865.0,yellow,hexagon
0.0,5.0,1.0,1.0,7.0,3.0,2042.602503001035,3.0,1.0,part_3,go,0.0,0.0,0.0,308.0,2.0,462.0,616.0,308.0,154.0,770.0,924.0,magenta,I
0.0,1.0,1.0,0.0,7.0,2.0,2267.0886510004493,3.0,1.0,part_3,go,0.0,0.0,0.0,768.0,4.0,960.0,768.0,1152.0,384.0,192.0,576.0,white,square
0.0,6.0,2.0,1.0,7.0,5.0,1222.1759460007888,3.0,1.0,part_3,go,0.0,0.0,0.0,173.0,1.0,519.0,346.0,865.0,692.0,173.0,1038.0,yellow,hexagon
0.0,3.0,3.0,0.0,7.0,6.0,3014.4698759995663,3.0,1.0,part_3,go,0.0,0.0,0.0,616.0,4.0,462.0,308.0,154.0,924.0,770.0,616.0,gray,circle
0.0,1.0,1.0,0.0,7.0,3.0,1600.4585979990225,3.0,1.0,part_3,go,0.0,0.0,0.0,675.0,5.0,270.0,405.0,675.0,810.0,135.0,540.0,white,square
0.0,2.0,2.0,0.0,7.0,3.0,3145.8244810000906,3.0,1.0,part_3,go,0.0,0.0,0.0,616.0,4.0,154.0,462.0,616.0,308.0,770.0,924.0,blue,cross
0.0,3.0,3.0,0.0,7.0,5.0,2617.342600999109,3.0,1.0,part_3,go,0.0,0.0,0.0,616.0,4.0,462.0,924.0,308.0,154.0,616.0,770.0,gray,circle
0.0,2.0,2.0,0.0,7.0,3.0,2219.6930989994144,3.0,1.0,part_3,go,0.0,0.0,0.0,580.0,5.0,696.0,232.0,580.0,116.0,464.0,348.0,blue,cross
0.0,1.0,1.0,0.0,7.0,3.0,3244.783230000394,3.0,1.0,part_3,go,0.0,0.0,0.0,692.0,4.0,173.0,519.0,692.0,1038.0,346.0,865.0,white,square
0.0,5.0,1.0,1.0,7.0,2.0,3016.266644001007,3.0,1.0,part_3,go,0.0,0.0,0.0,519.0,3.0,346.0,519.0,865.0,173.0,1038.0,692.0,magenta,I
0.0,3.0,3.0,0.0,7.0,5.0,3455.1582320000307,3.0,1.0,part_3,go,0.0,0.0,0.0,692.0,4.0,865.0,519.0,1038.0,173.0,692.0,346.0,gray,circle
0.0,5.0,1.0,1.0,7.0,6.0,1882.645259000128,3.0,1.0,part_3,go,0.0,0.0,0.0,580.0,5.0,464.0,116.0,696.0,232.0,348.0,580.0,magenta,I
0.0,5.0,1.0,1.0,7.0,6.0,2785.257780000393,3.0,1.0,part_3,go,0.0,0.0,0.0,576.0,3.0,384.0,960.0,768.0,192.0,1152.0,576.0,magenta,I
0.0,2.0,2.0,0.0,7.0,2.0,1324.1185859988036,3.0,1.0,part_3,go,0.0,0.0,0.0,692.0,4.0,173.0,692.0,1038.0,865.0,346.0,519.0,blue,cross
0.0,7.0,3.0,1.0,7.0,5.0,1659.8653240016574,3.0,1.0,part_3,go,0.0,0.0,0.0,696.0,6.0,580.0,464.0,116.0,348.0,696.0,232.0,orange,flipped triangle
0.0,8.0,4.0,1.0,7.0,3.0,2334.0945380004996,3.0,1.0,part_3,go,0.0,0.0,0.0,580.0,5.0,232.0,464.0,580.0,116.0,348.0,696.0,green,triangle
0.0,7.0,3.0,1.0,7.0,6.0,2886.9750070007285,3.0,1.0,part_3,go,0.0,0.0,0.0,462.0,3.0,308.0,616.0,154.0,770.0,924.0,462.0,orange,flipped triangle
0.0,6.0,2.0,1.0,7.0,4.0,2506.058163999114,3.0,1.0,part_3,go,0.0,0.0,0.0,464.0,4.0,580.0,348.0,232.0,464.0,696.0,116.0,yellow,hexagon
0.0,7.0,3.0,1.0,7.0,5.0,2610.1058490003197,3.0,1.0,part_3,go,0.0,0.0,0.0,768.0,4.0,192.0,960.0,384.0,1152.0,768.0,576.0,orange,flipped triangle
0.0,5.0,1.0,1.0,7.0,6.0,2145.0687699998525,4.0,1.0,part_3,go,0.0,0.0,0.0,576.0,3.0,1152.0,192.0,960.0,384.0,768.0,576.0,magenta,I
0.0,6.0,2.0,1.0,7.0,1.0,2595.195555999453,4.0,1.0,part_3,go,0.0,0.0,0.0,576.0,3.0,576.0,960.0,768.0,384.0,192.0,1152.0,yellow,hexagon
0.0,7.0,3.0,1.0,7.0,4.0,2524.40266299891,4.0,1.0,part_3,go,0.0,0.0,0.0,576.0,3.0,960.0,192.0,1152.0,576.0,768.0,384.0,orange,flipped triangle
0.0,4.0,4.0,0.0,7.0,3.0,1660.76519499984,4.0,1.0,part_3,go,0.0,0.0,0.0,519.0,3.0,346.0,692.0,519.0,173.0,865.0,1038.0,cyan,diamond
0.0,3.0,3.0,0.0,7.0,3.0,2048.7381139992067,4.0,1.0,part_3,go,0.0,0.0,0.0,696.0,6.0,464.0,116.0,696.0,580.0,232.0,348.0,gray,circle
0.0,2.0,2.0,0.0,7.0,5.0,2106.010931000128,4.0,1.0,part_3,go,0.0,0.0,0.0,675.0,5.0,270.0,540.0,810.0,135.0,675.0,405.0,blue,cross
0.0,3.0,3.0,0.0,7.0,4.0,1969.473320999896,4.0,1.0,part_3,go,0.0,0.0,0.0,576.0,3.0,1152.0,960.0,192.0,576.0,384.0,768.0,gray,circle
0.0,3.0,3.0,0.0,7.0,3.0,1388.7438910005585,4.0,1.0,part_3,go,0.0,0.0,0.0,270.0,2.0,135.0,675.0,270.0,540.0,810.0,405.0,gray,circle
0.0,1.0,1.0,0.0,7.0,3.0,1389.185304999046,4.0,1.0,part_3,go,0.0,0.0,0.0,580.0,5.0,232.0,116.0,580.0,464.0,348.0,696.0,white,square
0.0,2.0,2.0,0.0,7.0,4.0,1652.984997999738,4.0,1.0,part_3,go,0.0,0.0,0.0,576.0,3.0,768.0,384.0,960.0,576.0,1152.0,192.0,blue,cross
0.0,8.0,4.0,1.0,7.0,2.0,2254.083099998752,4.0,1.0,part_3,go,0.0,0.0,0.0,580.0,5.0,348.0,580.0,464.0,232.0,696.0,116.0,green,triangle
0.0,5.0,1.0,1.0,7.0,2.0,1905.6158069997764,4.0,1.0,part_3,go,0.0,0.0,0.0,675.0,5.0,540.0,675.0,810.0,270.0,405.0,135.0,magenta,I
0.0,8.0,4.0,1.0,7.0,6.0,2393.5987669992755,4.0,1.0,part_3,go,0.0,0.0,0.0,576.0,3.0,960.0,384.0,192.0,1152.0,768.0,576.0,green,triangle
0.0,5.0,1.0,1.0,7.0,3.0,2316.360183998768,4.0,1.0,part_3,go,0.0,0.0,0.0,580.0,5.0,348.0,232.0,580.0,116.0,464.0,696.0,magenta,I
0.0,5.0,1.0,1.0,7.0,5.0,1635.5310899998583,4.0,1.0,part_3,go,0.0,0.0,0.0,616.0,4.0,924.0,154.0,462.0,770.0,616.0,308.0,magenta,I
0.0,6.0,2.0,1.0,7.0,3.0,1411.8182040001557,4.0,1.0,part_3,go,0.0,0.0,0.0,616.0,4.0,462.0,924.0,616.0,308.0,154.0,770.0,yellow,hexagon
0.0,7.0,3.0,1.0,7.0,4.0,1301.53641600009,4.0,1.0,part_3,go,0.0,0.0,0.0,540.0,4.0,135.0,270.0,810.0,540.0,405.0,675.0,orange,flipped triangle
0.0,1.0,1.0,0.0,7.0,6.0,2238.854327000809,4.0,1.0,part_3,go,0.0,0.0,0.0,519.0,3.0,1038.0,865.0,173.0,692.0,346.0,519.0,white,square
0.0,4.0,4.0,0.0,7.0,1.0,2272.029080000721,4.0,1.0,part_3,go,0.0,0.0,0.0,540.0,4.0,540.0,810.0,270.0,675.0,135.0,405.0,cyan,diamond
0.0,1.0,1.0,0.0,7.0,2.0,3377.3675190004724,4.0,1.0,part_3,go,0.0,0.0,0.0,616.0,4.0,770.0,616.0,462.0,308.0,924.0,154.0,white,square
