raw_reward_magnitude,stim_reward,stepwise_reward_magnitude,paired_with_stopping,stim_location,response,reaction_time,block,num_trial_presentations,which_phase,stop_signal_trial_type,left_SSD,right_SSD,accuracy,chosen_bidding_amount,chosen_bidding_level,possible_bid_1,possible_bid_2,possible_bid_3,possible_bid_4,possible_bid_5,possible_bid_6,color_text,shape_text
639.0,7.0,3.0,1.0,1.0,1.0,359.993175999989,1.0,1.0,phase_1,,,,,,,,,,,,,cyan,flipped triangle
650.0,3.0,3.0,0.0,1.0,1.0,387.7718960002312,1.0,1.0,phase_1,,,,,,,,,,,,,magenta,circle
1277.0,4.0,4.0,0.0,3.0,3.0,385.9588689997508,1.0,1.0,phase_1,,,,,,,,,,,,,white,cross
169.0,5.0,1.0,1.0,1.0,1.0,340.3108899997278,1.0,1.0,phase_1,,,,,,,,,,,,,orange,I
308.0,2.0,2.0,0.0,3.0,3.0,304.8752370000329,1.0,1.0,phase_1,,,,,,,,,,,,,gray,triangle
1301.0,4.0,4.0,0.0,2.0,2.0,445.1295349999782,1.0,1.0,phase_1,,,,,,,,,,,,,white,cross
1301.0,8.0,4.0,1.0,2.0,2.0,378.0565909996767,1.0,1.0,phase_1,,,,,,,,,,,,,yellow,diamond
1310.0,4.0,4.0,0.0,3.0,3.0,326.884304000032,1.0,1.0,phase_1,,,,,,,,,,,,,white,cross
316.0,2.0,2.0,0.0,2.0,2.0,419.1861239996797,1.0,1.0,phase_1,,,,,,,,,,,,,gray,triangle
143.0,5.0,1.0,1.0,4.0,4.0,394.4902020002701,1.0,1.0,phase_1,,,,,,,,,,,,,orange,I
1314.0,8.0,4.0,1.0,2.0,2.0,316.9910240003446,1.0,1.0,phase_1,,,,,,,,,,,,,yellow,diamond
142.0,1.0,1.0,0.0,1.0,1.0,345.8637730000191,1.0,1.0,phase_1,,,,,,,,,,,,,blue,hexagon
181.0,1.0,1.0,0.0,2.0,2.0,374.2033680000531,1.0,1.0,phase_1,,,,,,,,,,,,,blue,hexagon
347.0,2.0,2.0,0.0,1.0,1.0,315.0321339999209,1.0,1.0,phase_1,,,,,,,,,,,,,gray,triangle
0.0,2.0,0.0,0.0,2.0,2.0,281.6659629997957,1.0,1.0,phase_1,,,,,,,,,,,,,gray,triangle
186.0,1.0,1.0,0.0,3.0,3.0,335.0911469997299,1.0,1.0,phase_1,,,,,,,,,,,,,blue,hexagon
316.0,2.0,2.0,0.0,1.0,1.0,296.5406520002034,1.0,1.0,phase_1,,,,,,,,,,,,,gray,triangle
156.0,5.0,1.0,1.0,4.0,4.0,367.5166190000709,1.0,1.0,phase_1,,,,,,,,,,,,,orange,I
329.0,6.0,2.0,1.0,4.0,4.0,346.5056029999687,1.0,1.0,phase_1,,,,,,,,,,,,,green,square
0.0,6.0,0.0,1.0,2.0,2.0,295.3305320002073,1.0,1.0,phase_1,,,,,,,,,,,,,green,square
0.0,2.0,0.0,0.0,3.0,3.0,339.6531359999244,1.0,1.0,phase_1,,,,,,,,,,,,,gray,triangle
165.0,1.0,1.0,0.0,2.0,2.0,346.354823999718,1.0,1.0,phase_1,,,,,,,,,,,,,blue,hexagon
1296.0,8.0,4.0,1.0,2.0,2.0,332.0633530001942,1.0,1.0,phase_1,,,,,,,,,,,,,yellow,diamond
178.0,5.0,1.0,1.0,3.0,3.0,289.3896369996582,1.0,1.0,phase_1,,,,,,,,,,,,,orange,I
335.0,2.0,2.0,0.0,1.0,1.0,263.7366930002827,1.0,1.0,phase_1,,,,,,,,,,,,,gray,triangle
1310.0,4.0,4.0,0.0,1.0,1.0,289.9886020004487,1.0,1.0,phase_1,,,,,,,,,,,,,white,cross
1307.0,8.0,4.0,1.0,3.0,3.0,247.52152200017,1.0,1.0,phase_1,,,,,,,,,,,,,yellow,diamond
1304.0,4.0,4.0,0.0,2.0,2.0,309.2229789999692,1.0,1.0,phase_1,,,,,,,,,,,,,white,cross
161.0,5.0,1.0,1.0,3.0,3.0,290.688720000162,1.0,1.0,phase_1,,,,,,,,,,,,,orange,I
656.0,3.0,3.0,0.0,2.0,2.0,292.9889439997168,1.0,1.0,phase_1,,,,,,,,,,,,,magenta,circle
1324.0,8.0,4.0,1.0,4.0,4.0,289.3884400000388,1.0,1.0,phase_1,,,,,,,,,,,,,yellow,diamond
156.0,1.0,1.0,0.0,4.0,4.0,310.2720389997557,1.0,1.0,phase_1,,,,,,,,,,,,,blue,hexagon
633.0,3.0,3.0,0.0,2.0,2.0,307.5543810000454,1.0,1.0,phase_1,,,,,,,,,,,,,magenta,circle
316.0,6.0,2.0,1.0,4.0,4.0,322.3375200000191,1.0,1.0,phase_1,,,,,,,,,,,,,green,square
327.0,6.0,2.0,1.0,2.0,2.0,364.4869810000273,1.0,1.0,phase_1,,,,,,,,,,,,,green,square
308.0,6.0,2.0,1.0,1.0,1.0,288.0169139998543,1.0,2.0,phase_1,,,,,,,,,,,,,green,square
0.0,4.0,0.0,0.0,3.0,3.0,283.8226730000315,1.0,1.0,phase_1,,,,,,,,,,,,,white,cross
174.0,1.0,1.0,0.0,4.0,4.0,398.4477389999483,1.0,1.0,phase_1,,,,,,,,,,,,,blue,hexagon
674.0,3.0,3.0,0.0,3.0,3.0,365.4112690001057,1.0,1.0,phase_1,,,,,,,,,,,,,magenta,circle
1301.0,8.0,4.0,1.0,3.0,3.0,328.0067079999753,1.0,1.0,phase_1,,,,,,,,,,,,,yellow,diamond
1307.0,4.0,4.0,0.0,2.0,2.0,356.5383269997255,1.0,1.0,phase_1,,,,,,,,,,,,,white,cross
155.0,5.0,1.0,1.0,1.0,1.0,433.1724089997806,1.0,1.0,phase_1,,,,,,,,,,,,,orange,I
0.0,7.0,0.0,1.0,2.0,2.0,375.7116269998732,1.0,1.0,phase_1,,,,,,,,,,,,,cyan,flipped triangle
1325.0,8.0,4.0,1.0,3.0,3.0,309.2929180002102,1.0,1.0,phase_1,,,,,,,,,,,,,yellow,diamond
310.0,2.0,2.0,0.0,1.0,1.0,343.3996210001169,1.0,1.0,phase_1,,,,,,,,,,,,,gray,triangle
161.0,1.0,1.0,0.0,3.0,3.0,323.72284999974,1.0,1.0,phase_1,,,,,,,,,,,,,blue,hexagon
632.0,7.0,3.0,1.0,2.0,2.0,280.3133269999307,1.0,1.0,phase_1,,,,,,,,,,,,,cyan,flipped triangle
338.0,6.0,2.0,1.0,3.0,3.0,253.1667299999753,1.0,1.0,phase_1,,,,,,,,,,,,,green,square
338.0,2.0,2.0,0.0,3.0,3.0,299.2364520000592,1.0,1.0,phase_1,,,,,,,,,,,,,gray,triangle
637.0,3.0,3.0,0.0,4.0,4.0,478.552812000089,1.0,1.0,phase_1,,,,,,,,,,,,,magenta,circle
668.0,7.0,3.0,1.0,3.0,3.0,354.3186410001908,1.0,1.0,phase_1,,,,,,,,,,,,,cyan,flipped triangle
155.0,1.0,1.0,0.0,2.0,2.0,343.3307370000875,1.0,1.0,phase_1,,,,,,,,,,,,,blue,hexagon
0.0,1.0,0.0,0.0,1.0,1.0,382.3001020000447,1.0,1.0,phase_1,,,,,,,,,,,,,blue,hexagon
632.0,7.0,3.0,1.0,3.0,3.0,280.4205430002184,1.0,1.0,phase_1,,,,,,,,,,,,,cyan,flipped triangle
348.0,2.0,2.0,0.0,4.0,4.0,383.1566210001256,1.0,1.0,phase_1,,,,,,,,,,,,,gray,triangle
655.0,3.0,3.0,0.0,4.0,4.0,298.2531299999209,1.0,1.0,phase_1,,,,,,,,,,,,,magenta,circle
626.0,3.0,3.0,0.0,4.0,4.0,278.3245509999688,1.0,1.0,phase_1,,,,,,,,,,,,,magenta,circle
171.0,5.0,1.0,1.0,3.0,3.0,300.697922999916,1.0,1.0,phase_1,,,,,,,,,,,,,orange,I
148.0,1.0,1.0,0.0,3.0,3.0,280.5237769998712,1.0,1.0,phase_1,,,,,,,,,,,,,blue,hexagon
0.0,6.0,0.0,1.0,3.0,3.0,277.549660999739,1.0,1.0,phase_1,,,,,,,,,,,,,green,square
330.0,6.0,2.0,1.0,3.0,3.0,265.8112230001279,1.0,1.0,phase_1,,,,,,,,,,,,,green,square
1293.0,8.0,4.0,1.0,4.0,4.0,262.4283110003489,1.0,1.0,phase_1,,,,,,,,,,,,,yellow,diamond
644.0,3.0,3.0,0.0,4.0,4.0,308.6064669996631,1.0,1.0,phase_1,,,,,,,,,,,,,magenta,circle
0.0,6.0,0.0,1.0,4.0,4.0,272.8514340001311,1.0,1.0,phase_1,,,,,,,,,,,,,green,square
139.0,5.0,1.0,1.0,2.0,2.0,445.787618000395,1.0,1.0,phase_1,,,,,,,,,,,,,orange,I
171.0,1.0,1.0,0.0,1.0,1.0,308.3046780002405,1.0,2.0,phase_1,,,,,,,,,,,,,blue,hexagon
339.0,6.0,2.0,1.0,1.0,1.0,314.1085639999801,1.0,1.0,phase_1,,,,,,,,,,,,,green,square
174.0,5.0,1.0,1.0,4.0,4.0,357.8303700001015,1.0,1.0,phase_1,,,,,,,,,,,,,orange,I
333.0,6.0,2.0,1.0,1.0,1.0,340.9511800000473,1.0,1.0,phase_1,,,,,,,,,,,,,green,square
0.0,1.0,0.0,0.0,4.0,4.0,314.2859849999695,1.0,1.0,phase_1,,,,,,,,,,,,,blue,hexagon
671.0,3.0,3.0,0.0,3.0,3.0,302.2095459996308,1.0,1.0,phase_1,,,,,,,,,,,,,magenta,circle
326.0,6.0,2.0,1.0,4.0,4.0,283.3574349997434,1.0,1.0,phase_1,,,,,,,,,,,,,green,square
173.0,1.0,1.0,0.0,3.0,3.0,311.0428449999745,1.0,1.0,phase_1,,,,,,,,,,,,,blue,hexagon
0.0,5.0,0.0,1.0,1.0,1.0,394.5333609999579,1.0,1.0,phase_1,,,,,,,,,,,,,orange,I
0.0,4.0,0.0,0.0,2.0,2.0,406.859586000337,1.0,1.0,phase_1,,,,,,,,,,,,,white,cross
304.0,2.0,2.0,0.0,2.0,2.0,315.9593079999467,1.0,1.0,phase_1,,,,,,,,,,,,,gray,triangle
647.0,3.0,3.0,0.0,1.0,1.0,401.6646089999085,1.0,1.0,phase_1,,,,,,,,,,,,,magenta,circle
662.0,3.0,3.0,0.0,1.0,1.0,335.1530619997902,1.0,1.0,phase_1,,,,,,,,,,,,,magenta,circle
0.0,6.0,0.0,1.0,2.0,2.0,401.0318460000235,1.0,1.0,phase_1,,,,,,,,,,,,,green,square
661.0,3.0,3.0,0.0,3.0,3.0,271.3870709999355,1.0,1.0,phase_1,,,,,,,,,,,,,magenta,circle
165.0,5.0,1.0,1.0,1.0,1.0,427.7364170002329,1.0,1.0,phase_1,,,,,,,,,,,,,orange,I
671.0,7.0,3.0,1.0,1.0,1.0,310.9051989999898,1.0,1.0,phase_1,,,,,,,,,,,,,cyan,flipped triangle
1285.0,4.0,4.0,0.0,4.0,4.0,403.39949600002,1.0,1.0,phase_1,,,,,,,,,,,,,white,cross
632.0,3.0,3.0,0.0,2.0,2.0,442.7511899998535,1.0,1.0,phase_1,,,,,,,,,,,,,magenta,circle
321.0,2.0,2.0,0.0,2.0,2.0,317.1232130002863,1.0,1.0,phase_1,,,,,,,,,,,,,gray,triangle
1278.0,8.0,4.0,1.0,3.0,3.0,353.4410419997584,1.0,1.0,phase_1,,,,,,,,,,,,,yellow,diamond
673.0,7.0,3.0,1.0,1.0,1.0,352.6661709997825,1.0,1.0,phase_1,,,,,,,,,,,,,cyan,flipped triangle
0.0,5.0,0.0,1.0,1.0,1.0,322.3293239998384,1.0,1.0,phase_1,,,,,,,,,,,,,orange,I
633.0,7.0,3.0,1.0,4.0,4.0,384.2485340001076,1.0,1.0,phase_1,,,,,,,,,,,,,cyan,flipped triangle
155.0,5.0,1.0,1.0,1.0,1.0,411.7256059998908,1.0,1.0,phase_1,,,,,,,,,,,,,orange,I
143.0,1.0,1.0,0.0,4.0,4.0,337.1121609998226,1.0,1.0,phase_1,,,,,,,,,,,,,blue,hexagon
1312.0,4.0,4.0,0.0,3.0,3.0,364.9825249999594,1.0,1.0,phase_1,,,,,,,,,,,,,white,cross
666.0,7.0,3.0,1.0,3.0,3.0,369.9611899996853,1.0,1.0,phase_1,,,,,,,,,,,,,cyan,flipped triangle
325.0,6.0,2.0,1.0,4.0,4.0,320.6502439998075,1.0,1.0,phase_1,,,,,,,,,,,,,green,square
1285.0,4.0,4.0,0.0,3.0,3.0,341.6080599999986,1.0,1.0,phase_1,,,,,,,,,,,,,white,cross
155.0,1.0,1.0,0.0,3.0,3.0,304.1779150003094,1.0,1.0,phase_1,,,,,,,,,,,,,blue,hexagon
1302.0,4.0,4.0,0.0,1.0,1.0,493.1624630003171,1.0,1.0,phase_1,,,,,,,,,,,,,white,cross
305.0,6.0,2.0,1.0,2.0,2.0,400.4020819998004,1.0,1.0,phase_1,,,,,,,,,,,,,green,square
140.0,1.0,1.0,0.0,2.0,2.0,358.7929540003642,1.0,1.0,phase_1,,,,,,,,,,,,,blue,hexagon
329.0,6.0,2.0,1.0,1.0,1.0,499.9598549998154,1.0,1.0,phase_1,,,,,,,,,,,,,green,square
643.0,7.0,3.0,1.0,3.0,3.0,367.6054689999546,2.0,1.0,phase_1,,,,,,,,,,,,,cyan,flipped triangle
301.0,6.0,2.0,1.0,1.0,1.0,422.1352049999041,2.0,1.0,phase_1,,,,,,,,,,,,,green,square
349.0,6.0,2.0,1.0,4.0,4.0,393.0074830000194,2.0,1.0,phase_1,,,,,,,,,,,,,green,square
666.0,7.0,3.0,1.0,4.0,4.0,334.8702359999151,2.0,1.0,phase_1,,,,,,,,,,,,,cyan,flipped triangle
673.0,3.0,3.0,0.0,1.0,1.0,425.7650620002096,2.0,1.0,phase_1,,,,,,,,,,,,,magenta,circle
1309.0,8.0,4.0,1.0,1.0,1.0,391.6044550001061,2.0,1.0,phase_1,,,,,,,,,,,,,yellow,diamond
1277.0,4.0,4.0,0.0,1.0,1.0,379.6469079998132,2.0,1.0,phase_1,,,,,,,,,,,,,white,cross
1278.0,4.0,4.0,0.0,2.0,2.0,412.615525000092,2.0,2.0,phase_1,,,,,,,,,,,,,white,cross
0.0,2.0,0.0,0.0,3.0,3.0,353.0641289999039,2.0,1.0,phase_1,,,,,,,,,,,,,gray,triangle
339.0,2.0,2.0,0.0,4.0,4.0,341.279423999822,2.0,1.0,phase_1,,,,,,,,,,,,,gray,triangle
147.0,1.0,1.0,0.0,1.0,1.0,337.9176030002782,2.0,1.0,phase_1,,,,,,,,,,,,,blue,hexagon
167.0,1.0,1.0,0.0,2.0,2.0,366.871693000121,2.0,1.0,phase_1,,,,,,,,,,,,,blue,hexagon
673.0,7.0,3.0,1.0,3.0,3.0,277.6106040000741,2.0,1.0,phase_1,,,,,,,,,,,,,cyan,flipped triangle
1299.0,4.0,4.0,0.0,2.0,2.0,313.4837379998316,2.0,1.0,phase_1,,,,,,,,,,,,,white,cross
329.0,2.0,2.0,0.0,2.0,2.0,307.7256760002456,2.0,1.0,phase_1,,,,,,,,,,,,,gray,triangle
150.0,5.0,1.0,1.0,1.0,1.0,304.724193000311,2.0,1.0,phase_1,,,,,,,,,,,,,orange,I
0.0,5.0,0.0,1.0,3.0,3.0,325.7082840000294,2.0,1.0,phase_1,,,,,,,,,,,,,orange,I
0.0,1.0,0.0,0.0,3.0,3.0,435.9282069999608,2.0,1.0,phase_1,,,,,,,,,,,,,blue,hexagon
186.0,5.0,1.0,1.0,1.0,1.0,382.2709129999566,2.0,1.0,phase_1,,,,,,,,,,,,,orange,I
1323.0,8.0,4.0,1.0,1.0,1.0,413.9066059997276,2.0,1.0,phase_1,,,,,,,,,,,,,yellow,diamond
164.0,5.0,1.0,1.0,3.0,3.0,417.6483249998455,2.0,1.0,phase_1,,,,,,,,,,,,,orange,I
655.0,7.0,3.0,1.0,4.0,4.0,372.6401330000044,2.0,1.0,phase_1,,,,,,,,,,,,,cyan,flipped triangle
186.0,5.0,1.0,1.0,2.0,2.0,387.5125560002743,2.0,1.0,phase_1,,,,,,,,,,,,,orange,I
0.0,3.0,0.0,0.0,3.0,3.0,311.4895930002603,2.0,1.0,phase_1,,,,,,,,,,,,,magenta,circle
0.0,8.0,0.0,1.0,3.0,3.0,266.7604660000506,2.0,1.0,phase_1,,,,,,,,,,,,,yellow,diamond
348.0,2.0,2.0,0.0,4.0,4.0,383.0872519997683,2.0,1.0,phase_1,,,,,,,,,,,,,gray,triangle
1283.0,8.0,4.0,1.0,4.0,4.0,323.7789149998207,2.0,1.0,phase_1,,,,,,,,,,,,,yellow,diamond
306.0,6.0,2.0,1.0,1.0,1.0,469.0571800001635,2.0,2.0,phase_1,,,,,,,,,,,,,green,square
1315.0,8.0,4.0,1.0,2.0,2.0,556.213974000002,2.0,1.0,phase_1,,,,,,,,,,,,,yellow,diamond
327.0,2.0,2.0,0.0,2.0,2.0,382.167809999828,2.0,1.0,phase_1,,,,,,,,,,,,,gray,triangle
0.0,2.0,0.0,0.0,2.0,2.0,363.4642410002016,2.0,1.0,phase_1,,,,,,,,,,,,,gray,triangle
1321.0,4.0,4.0,0.0,3.0,3.0,367.169931999797,2.0,1.0,phase_1,,,,,,,,,,,,,white,cross
1281.0,8.0,4.0,1.0,2.0,2.0,726.4057109996429,2.0,1.0,phase_1,,,,,,,,,,,,,yellow,diamond
0.0,1.0,0.0,0.0,1.0,1.0,442.3428459999741,2.0,1.0,phase_1,,,,,,,,,,,,,blue,hexagon
0.0,8.0,0.0,1.0,2.0,2.0,340.4435710003781,2.0,2.0,phase_1,,,,,,,,,,,,,yellow,diamond
662.0,7.0,3.0,1.0,2.0,2.0,337.2083319995909,2.0,1.0,phase_1,,,,,,,,,,,,,cyan,flipped triangle
661.0,3.0,3.0,0.0,3.0,3.0,364.237353000135,2.0,1.0,phase_1,,,,,,,,,,,,,magenta,circle
1289.0,8.0,4.0,1.0,3.0,3.0,328.1631100003324,2.0,1.0,phase_1,,,,,,,,,,,,,yellow,diamond
0.0,8.0,0.0,1.0,3.0,3.0,340.4016419999607,2.0,1.0,phase_1,,,,,,,,,,,,,yellow,diamond
0.0,4.0,0.0,0.0,2.0,2.0,321.7822780002279,2.0,1.0,phase_1,,,,,,,,,,,,,white,cross
645.0,7.0,3.0,1.0,3.0,3.0,334.0575990000616,2.0,1.0,phase_1,,,,,,,,,,,,,cyan,flipped triangle
1301.0,4.0,4.0,0.0,4.0,4.0,484.7909559998697,2.0,1.0,phase_1,,,,,,,,,,,,,white,cross
322.0,6.0,2.0,1.0,3.0,3.0,334.8628939997979,2.0,1.0,phase_1,,,,,,,,,,,,,green,square
153.0,5.0,1.0,1.0,1.0,1.0,379.8562309998488,2.0,1.0,phase_1,,,,,,,,,,,,,orange,I
183.0,5.0,1.0,1.0,2.0,2.0,260.7743700000355,2.0,2.0,phase_1,,,,,,,,,,,,,orange,I
0.0,5.0,0.0,1.0,4.0,4.0,418.5462090003966,2.0,1.0,phase_1,,,,,,,,,,,,,orange,I
320.0,6.0,2.0,1.0,3.0,3.0,367.5586330000442,2.0,1.0,phase_1,,,,,,,,,,,,,green,square
1310.0,8.0,4.0,1.0,2.0,2.0,372.8988100001515,2.0,1.0,phase_1,,,,,,,,,,,,,yellow,diamond
0.0,7.0,0.0,1.0,4.0,4.0,439.2462609998802,2.0,1.0,phase_1,,,,,,,,,,,,,cyan,flipped triangle
1279.0,8.0,4.0,1.0,1.0,1.0,493.633373999728,2.0,1.0,phase_1,,,,,,,,,,,,,yellow,diamond
1293.0,8.0,4.0,1.0,4.0,4.0,386.8106519998946,2.0,1.0,phase_1,,,,,,,,,,,,,yellow,diamond
629.0,7.0,3.0,1.0,1.0,1.0,421.1655640001481,2.0,1.0,phase_1,,,,,,,,,,,,,cyan,flipped triangle
0.0,7.0,0.0,1.0,1.0,1.0,433.3514059999288,2.0,1.0,phase_1,,,,,,,,,,,,,cyan,flipped triangle
1323.0,4.0,4.0,0.0,1.0,1.0,374.2997019999166,2.0,1.0,phase_1,,,,,,,,,,,,,white,cross
0.0,3.0,0.0,0.0,4.0,4.0,342.0228130003124,2.0,1.0,phase_1,,,,,,,,,,,,,magenta,circle
140.0,5.0,1.0,1.0,2.0,2.0,735.9076040002037,2.0,1.0,phase_1,,,,,,,,,,,,,orange,I
1319.0,8.0,4.0,1.0,1.0,1.0,596.438415999728,2.0,1.0,phase_1,,,,,,,,,,,,,yellow,diamond
1288.0,8.0,4.0,1.0,3.0,3.0,355.9455300000991,2.0,1.0,phase_1,,,,,,,,,,,,,yellow,diamond
0.0,3.0,0.0,0.0,2.0,2.0,477.3679280001488,2.0,1.0,phase_1,,,,,,,,,,,,,magenta,circle
1284.0,4.0,4.0,0.0,2.0,2.0,346.8286090001129,2.0,1.0,phase_1,,,,,,,,,,,,,white,cross
0.0,8.0,0.0,1.0,4.0,4.0,410.0391349998062,2.0,1.0,phase_1,,,,,,,,,,,,,yellow,diamond
178.0,1.0,1.0,0.0,2.0,2.0,533.35991799986,2.0,1.0,phase_1,,,,,,,,,,,,,blue,hexagon
666.0,3.0,3.0,0.0,1.0,1.0,520.6011149998631,2.0,1.0,phase_1,,,,,,,,,,,,,magenta,circle
629.0,3.0,3.0,0.0,1.0,1.0,653.3484199999293,2.0,1.0,phase_1,,,,,,,,,,,,,magenta,circle
183.0,1.0,1.0,0.0,1.0,1.0,418.9461259998097,2.0,1.0,phase_1,,,,,,,,,,,,,blue,hexagon
1285.0,8.0,4.0,1.0,3.0,3.0,440.0052830001186,2.0,1.0,phase_1,,,,,,,,,,,,,yellow,diamond
0.0,4.0,0.0,0.0,1.0,1.0,428.419856000346,2.0,1.0,phase_1,,,,,,,,,,,,,white,cross
1312.0,8.0,4.0,1.0,3.0,3.0,352.3514720000094,2.0,1.0,phase_1,,,,,,,,,,,,,yellow,diamond
172.0,1.0,1.0,0.0,2.0,2.0,396.4146630000869,2.0,1.0,phase_1,,,,,,,,,,,,,blue,hexagon
0.0,6.0,0.0,1.0,1.0,1.0,410.6004119998943,2.0,1.0,phase_1,,,,,,,,,,,,,green,square
316.0,2.0,2.0,0.0,1.0,1.0,445.2561059997606,2.0,1.0,phase_1,,,,,,,,,,,,,gray,triangle
640.0,3.0,3.0,0.0,1.0,1.0,418.51423099979,2.0,1.0,phase_1,,,,,,,,,,,,,magenta,circle
139.0,1.0,1.0,0.0,3.0,3.0,392.5813999999263,2.0,1.0,phase_1,,,,,,,,,,,,,blue,hexagon
638.0,3.0,3.0,0.0,4.0,4.0,451.5636900000572,2.0,1.0,phase_1,,,,,,,,,,,,,magenta,circle
0.0,2.0,0.0,0.0,3.0,3.0,409.0932310000426,2.0,1.0,phase_1,,,,,,,,,,,,,gray,triangle
0.0,2.0,0.0,0.0,1.0,1.0,406.1335289998169,2.0,1.0,phase_1,,,,,,,,,,,,,gray,triangle
143.0,5.0,1.0,1.0,4.0,4.0,361.5603309999642,2.0,1.0,phase_1,,,,,,,,,,,,,orange,I
0.0,3.0,0.0,0.0,4.0,4.0,365.2705039999091,2.0,1.0,phase_1,,,,,,,,,,,,,magenta,circle
155.0,5.0,1.0,1.0,4.0,4.0,346.862601000339,2.0,1.0,phase_1,,,,,,,,,,,,,orange,I
639.0,3.0,3.0,0.0,2.0,2.0,551.5040179998323,2.0,1.0,phase_1,,,,,,,,,,,,,magenta,circle
645.0,3.0,3.0,0.0,3.0,3.0,371.7284990002554,2.0,1.0,phase_1,,,,,,,,,,,,,magenta,circle
0.0,1.0,0.0,0.0,1.0,1.0,370.915382000021,2.0,1.0,phase_1,,,,,,,,,,,,,blue,hexagon
0.0,6.0,0.0,1.0,1.0,1.0,397.0095219997347,2.0,1.0,phase_1,,,,,,,,,,,,,green,square
146.0,1.0,1.0,0.0,3.0,3.0,337.97754599982,2.0,1.0,phase_1,,,,,,,,,,,,,blue,hexagon
0.0,6.0,0.0,1.0,2.0,2.0,390.3658740000537,2.0,1.0,phase_1,,,,,,,,,,,,,green,square
336.0,6.0,2.0,1.0,2.0,2.0,388.78041199996,2.0,1.0,phase_1,,,,,,,,,,,,,green,square
0.0,3.0,0.0,0.0,2.0,2.0,319.2101029999321,2.0,1.0,phase_1,,,,,,,,,,,,,magenta,circle
0.0,4.0,0.0,0.0,3.0,3.0,308.3164459999352,2.0,1.0,phase_1,,,,,,,,,,,,,white,cross
0.0,7.0,0.0,1.0,2.0,2.0,392.3906250001892,2.0,1.0,phase_1,,,,,,,,,,,,,cyan,flipped triangle
0.0,1.0,0.0,0.0,3.0,3.0,364.855155999976,2.0,1.0,phase_1,,,,,,,,,,,,,blue,hexagon
1321.0,8.0,4.0,1.0,4.0,4.0,412.6018739998471,2.0,1.0,phase_1,,,,,,,,,,,,,yellow,diamond
305.0,2.0,2.0,0.0,3.0,3.0,401.4981049999733,2.0,1.0,phase_1,,,,,,,,,,,,,gray,triangle
661.0,7.0,3.0,1.0,1.0,1.0,387.3002180002913,2.0,1.0,phase_1,,,,,,,,,,,,,cyan,flipped triangle
140.0,1.0,1.0,0.0,2.0,2.0,319.8235879999629,2.0,1.0,phase_1,,,,,,,,,,,,,blue,hexagon
649.0,3.0,3.0,0.0,2.0,2.0,382.0385659996645,2.0,1.0,phase_1,,,,,,,,,,,,,magenta,circle
637.0,7.0,3.0,1.0,2.0,2.0,313.4252120003111,2.0,1.0,phase_1,,,,,,,,,,,,,cyan,flipped triangle
673.0,7.0,3.0,1.0,4.0,4.0,413.9568290001989,2.0,1.0,phase_1,,,,,,,,,,,,,cyan,flipped triangle
343.0,2.0,2.0,0.0,3.0,3.0,396.2320099999488,2.0,1.0,phase_1,,,,,,,,,,,,,gray,triangle
304.0,6.0,2.0,1.0,2.0,2.0,367.0611620000272,2.0,1.0,phase_1,,,,,,,,,,,,,green,square
306.0,2.0,2.0,0.0,4.0,4.0,339.0835710001738,2.0,1.0,phase_1,,,,,,,,,,,,,gray,triangle
666.0,3.0,3.0,0.0,3.0,3.0,388.6733469998944,3.0,1.0,phase_1,,,,,,,,,,,,,magenta,circle
642.0,3.0,3.0,0.0,4.0,4.0,337.2396690001551,3.0,1.0,phase_1,,,,,,,,,,,,,magenta,circle
330.0,2.0,2.0,0.0,2.0,2.0,381.2884180001674,3.0,1.0,phase_1,,,,,,,,,,,,,gray,triangle
1293.0,4.0,4.0,0.0,4.0,4.0,329.7233309999683,3.0,1.0,phase_1,,,,,,,,,,,,,white,cross
656.0,7.0,3.0,1.0,2.0,2.0,392.3554590001004,3.0,1.0,phase_1,,,,,,,,,,,,,cyan,flipped triangle
0.0,8.0,0.0,1.0,1.0,1.0,445.6503679998604,3.0,1.0,phase_1,,,,,,,,,,,,,yellow,diamond
649.0,7.0,3.0,1.0,2.0,2.0,401.0703819999435,3.0,1.0,phase_1,,,,,,,,,,,,,cyan,flipped triangle
321.0,6.0,2.0,1.0,4.0,4.0,364.1097439999612,3.0,1.0,phase_1,,,,,,,,,,,,,green,square
0.0,4.0,0.0,0.0,3.0,3.0,344.6016540001437,3.0,1.0,phase_1,,,,,,,,,,,,,white,cross
147.0,5.0,1.0,1.0,4.0,4.0,389.2736960001457,3.0,1.0,phase_1,,,,,,,,,,,,,orange,I
333.0,2.0,2.0,0.0,4.0,4.0,371.9215290002466,3.0,1.0,phase_1,,,,,,,,,,,,,gray,triangle
662.0,7.0,3.0,1.0,2.0,2.0,392.916120999871,3.0,1.0,phase_1,,,,,,,,,,,,,cyan,flipped triangle
652.0,7.0,3.0,1.0,3.0,3.0,469.7776549996888,3.0,1.0,phase_1,,,,,,,,,,,,,cyan,flipped triangle
347.0,2.0,2.0,0.0,2.0,2.0,416.4396569999553,3.0,1.0,phase_1,,,,,,,,,,,,,gray,triangle
0.0,5.0,0.0,1.0,2.0,2.0,325.3680990001157,3.0,1.0,phase_1,,,,,,,,,,,,,orange,I
1285.0,8.0,4.0,1.0,1.0,1.0,539.1753829999288,3.0,1.0,phase_1,,,,,,,,,,,,,yellow,diamond
644.0,7.0,3.0,1.0,2.0,2.0,446.2414039999203,3.0,1.0,phase_1,,,,,,,,,,,,,cyan,flipped triangle
642.0,7.0,3.0,1.0,4.0,4.0,331.7299649997949,3.0,1.0,phase_1,,,,,,,,,,,,,cyan,flipped triangle
329.0,2.0,2.0,0.0,1.0,1.0,384.903753999879,3.0,1.0,phase_1,,,,,,,,,,,,,gray,triangle
183.0,1.0,1.0,0.0,4.0,4.0,349.9227049996989,3.0,1.0,phase_1,,,,,,,,,,,,,blue,hexagon
0.0,2.0,0.0,0.0,1.0,1.0,352.9515889999857,3.0,1.0,phase_1,,,,,,,,,,,,,gray,triangle
347.0,6.0,2.0,1.0,2.0,2.0,372.4492400001509,3.0,1.0,phase_1,,,,,,,,,,,,,green,square
147.0,1.0,1.0,0.0,4.0,4.0,328.1639629999517,3.0,2.0,phase_1,,,,,,,,,,,,,blue,hexagon
317.0,6.0,2.0,1.0,2.0,2.0,539.4826859997011,3.0,1.0,phase_1,,,,,,,,,,,,,green,square
164.0,1.0,1.0,0.0,2.0,2.0,377.6991249997081,3.0,1.0,phase_1,,,,,,,,,,,,,blue,hexagon
142.0,5.0,1.0,1.0,4.0,4.0,327.4149149997356,3.0,1.0,phase_1,,,,,,,,,,,,,orange,I
1324.0,4.0,4.0,0.0,1.0,1.0,411.7782349999288,3.0,1.0,phase_1,,,,,,,,,,,,,white,cross
626.0,7.0,3.0,1.0,4.0,4.0,350.1262370000404,3.0,1.0,phase_1,,,,,,,,,,,,,cyan,flipped triangle
1320.0,4.0,4.0,0.0,2.0,2.0,378.025737000371,3.0,1.0,phase_1,,,,,,,,,,,,,white,cross
305.0,6.0,2.0,1.0,1.0,1.0,334.4512149997172,3.0,1.0,phase_1,,,,,,,,,,,,,green,square
146.0,5.0,1.0,1.0,3.0,3.0,314.6595399998659,3.0,1.0,phase_1,,,,,,,,,,,,,orange,I
301.0,2.0,2.0,0.0,3.0,3.0,337.3349339999549,3.0,1.0,phase_1,,,,,,,,,,,,,gray,triangle
1315.0,4.0,4.0,0.0,4.0,4.0,358.5367850000693,3.0,1.0,phase_1,,,,,,,,,,,,,white,cross
348.0,2.0,2.0,0.0,4.0,4.0,304.2792169999302,3.0,1.0,phase_1,,,,,,,,,,,,,gray,triangle
1302.0,8.0,4.0,1.0,2.0,2.0,325.418905999868,3.0,1.0,phase_1,,,,,,,,,,,,,yellow,diamond
321.0,6.0,2.0,1.0,4.0,4.0,365.0916340002368,3.0,1.0,phase_1,,,,,,,,,,,,,green,square
167.0,5.0,1.0,1.0,1.0,1.0,393.0437229996641,3.0,1.0,phase_1,,,,,,,,,,,,,orange,I
150.0,1.0,1.0,0.0,4.0,4.0,309.0504580000015,3.0,1.0,phase_1,,,,,,,,,,,,,blue,hexagon
642.0,3.0,3.0,0.0,3.0,3.0,352.3002960000667,3.0,1.0,phase_1,,,,,,,,,,,,,magenta,circle
1301.0,4.0,4.0,0.0,1.0,1.0,550.2118509998581,3.0,1.0,phase_1,,,,,,,,,,,,,white,cross
318.0,2.0,2.0,0.0,2.0,2.0,385.3519250001227,3.0,1.0,phase_1,,,,,,,,,,,,,gray,triangle
0.0,3.0,0.0,0.0,1.0,1.0,405.6993849999344,3.0,1.0,phase_1,,,,,,,,,,,,,magenta,circle
1320.0,8.0,4.0,1.0,4.0,4.0,316.6134240000247,3.0,1.0,phase_1,,,,,,,,,,,,,yellow,diamond
1310.0,8.0,4.0,1.0,1.0,1.0,327.2852079999211,3.0,1.0,phase_1,,,,,,,,,,,,,yellow,diamond
1319.0,4.0,4.0,0.0,2.0,2.0,322.9521480002404,3.0,1.0,phase_1,,,,,,,,,,,,,white,cross
179.0,1.0,1.0,0.0,1.0,1.0,352.7303759997267,3.0,1.0,phase_1,,,,,,,,,,,,,blue,hexagon
674.0,7.0,3.0,1.0,4.0,4.0,319.8546650000935,3.0,1.0,phase_1,,,,,,,,,,,,,cyan,flipped triangle
0.0,4.0,0.0,0.0,4.0,4.0,337.5829609999528,3.0,1.0,phase_1,,,,,,,,,,,,,white,cross
647.0,7.0,3.0,1.0,1.0,1.0,325.8116760002849,3.0,1.0,phase_1,,,,,,,,,,,,,cyan,flipped triangle
650.0,7.0,3.0,1.0,1.0,1.0,363.1960249999793,3.0,1.0,phase_1,,,,,,,,,,,,,cyan,flipped triangle
1284.0,8.0,4.0,1.0,3.0,3.0,352.6137029998608,3.0,1.0,phase_1,,,,,,,,,,,,,yellow,diamond
1293.0,4.0,4.0,0.0,3.0,3.0,334.9729530000331,3.0,1.0,phase_1,,,,,,,,,,,,,white,cross
156.0,1.0,1.0,0.0,4.0,4.0,323.0683729998418,3.0,1.0,phase_1,,,,,,,,,,,,,blue,hexagon
1325.0,4.0,4.0,0.0,1.0,1.0,309.4088549996741,3.0,1.0,phase_1,,,,,,,,,,,,,white,cross
661.0,7.0,3.0,1.0,2.0,2.0,340.255617999901,3.0,1.0,phase_1,,,,,,,,,,,,,cyan,flipped triangle
1293.0,4.0,4.0,0.0,4.0,4.0,321.3343469997198,3.0,1.0,phase_1,,,,,,,,,,,,,white,cross
1289.0,4.0,4.0,0.0,2.0,2.0,427.4431300000287,3.0,1.0,phase_1,,,,,,,,,,,,,white,cross
0.0,6.0,0.0,1.0,1.0,1.0,482.0780780000859,3.0,1.0,phase_1,,,,,,,,,,,,,green,square
0.0,1.0,0.0,0.0,1.0,1.0,332.002440999986,3.0,1.0,phase_1,,,,,,,,,,,,,blue,hexagon
0.0,1.0,0.0,0.0,3.0,3.0,322.914750000109,3.0,1.0,phase_1,,,,,,,,,,,,,blue,hexagon
155.0,5.0,1.0,1.0,4.0,4.0,381.5241269999205,3.0,1.0,phase_1,,,,,,,,,,,,,orange,I
0.0,2.0,0.0,0.0,3.0,3.0,337.3013090003951,3.0,1.0,phase_1,,,,,,,,,,,,,gray,triangle
140.0,5.0,1.0,1.0,4.0,4.0,310.6532900001184,3.0,1.0,phase_1,,,,,,,,,,,,,orange,I
1293.0,8.0,4.0,1.0,1.0,1.0,356.0188569999809,3.0,1.0,phase_1,,,,,,,,,,,,,yellow,diamond
642.0,3.0,3.0,0.0,2.0,2.0,335.0456779999149,3.0,1.0,phase_1,,,,,,,,,,,,,magenta,circle
651.0,3.0,3.0,0.0,4.0,4.0,293.3994899999561,3.0,1.0,phase_1,,,,,,,,,,,,,magenta,circle
181.0,5.0,1.0,1.0,3.0,3.0,423.9207770001485,3.0,1.0,phase_1,,,,,,,,,,,,,orange,I
0.0,3.0,0.0,0.0,1.0,1.0,349.5583660001102,3.0,1.0,phase_1,,,,,,,,,,,,,magenta,circle
0.0,5.0,0.0,1.0,2.0,2.0,313.0120260002513,3.0,1.0,phase_1,,,,,,,,,,,,,orange,I
0.0,6.0,0.0,1.0,3.0,3.0,325.6249030000617,3.0,1.0,phase_1,,,,,,,,,,,,,green,square
0.0,7.0,0.0,1.0,2.0,2.0,388.2277839998096,3.0,1.0,phase_1,,,,,,,,,,,,,cyan,flipped triangle
311.0,2.0,2.0,0.0,3.0,3.0,313.4551749999446,3.0,1.0,phase_1,,,,,,,,,,,,,gray,triangle
150.0,1.0,1.0,0.0,4.0,4.0,364.0248309998242,3.0,1.0,phase_1,,,,,,,,,,,,,blue,hexagon
348.0,6.0,2.0,1.0,3.0,3.0,305.2558150002369,3.0,1.0,phase_1,,,,,,,,,,,,,green,square
155.0,1.0,1.0,0.0,2.0,2.0,343.2774429998062,3.0,1.0,phase_1,,,,,,,,,,,,,blue,hexagon
326.0,2.0,2.0,0.0,1.0,1.0,361.5054400002009,3.0,1.0,phase_1,,,,,,,,,,,,,gray,triangle
0.0,8.0,0.0,1.0,2.0,2.0,367.5361099999463,3.0,1.0,phase_1,,,,,,,,,,,,,yellow,diamond
1275.0,8.0,4.0,1.0,4.0,4.0,315.2584290000959,3.0,1.0,phase_1,,,,,,,,,,,,,yellow,diamond
322.0,2.0,2.0,0.0,3.0,3.0,304.5623230000274,3.0,1.0,phase_1,,,,,,,,,,,,,gray,triangle
627.0,3.0,3.0,0.0,2.0,2.0,557.4765310002476,3.0,1.0,phase_1,,,,,,,,,,,,,magenta,circle
1288.0,4.0,4.0,0.0,4.0,4.0,313.0574050001087,3.0,1.0,phase_1,,,,,,,,,,,,,white,cross
349.0,2.0,2.0,0.0,2.0,2.0,429.4580050000149,3.0,1.0,phase_1,,,,,,,,,,,,,gray,triangle
1295.0,4.0,4.0,0.0,1.0,1.0,322.6487100000668,3.0,1.0,phase_1,,,,,,,,,,,,,white,cross
0.0,3.0,0.0,0.0,3.0,3.0,287.5749979998545,3.0,1.0,phase_1,,,,,,,,,,,,,magenta,circle
1323.0,8.0,4.0,1.0,4.0,4.0,443.1616490001033,3.0,1.0,phase_1,,,,,,,,,,,,,yellow,diamond
0.0,4.0,0.0,0.0,1.0,1.0,368.2181250001122,3.0,1.0,phase_1,,,,,,,,,,,,,white,cross
348.0,6.0,2.0,1.0,2.0,2.0,294.4022659999064,3.0,1.0,phase_1,,,,,,,,,,,,,green,square
642.0,7.0,3.0,1.0,1.0,1.0,480.7737629998883,3.0,2.0,phase_1,,,,,,,,,,,,,cyan,flipped triangle
305.0,2.0,2.0,0.0,4.0,4.0,380.2066409998588,3.0,1.0,phase_1,,,,,,,,,,,,,gray,triangle
1314.0,4.0,4.0,0.0,4.0,4.0,351.7546849998325,3.0,1.0,phase_1,,,,,,,,,,,,,white,cross
1301.0,8.0,4.0,1.0,2.0,2.0,444.7519709997323,3.0,1.0,phase_1,,,,,,,,,,,,,yellow,diamond
310.0,6.0,2.0,1.0,3.0,3.0,379.3231340000602,3.0,1.0,phase_1,,,,,,,,,,,,,green,square
183.0,5.0,1.0,1.0,2.0,2.0,399.8543920001793,3.0,1.0,phase_1,,,,,,,,,,,,,orange,I
150.0,5.0,1.0,1.0,3.0,3.0,339.3949740002426,3.0,1.0,phase_1,,,,,,,,,,,,,orange,I
155.0,1.0,1.0,0.0,3.0,3.0,318.9115159998437,3.0,1.0,phase_1,,,,,,,,,,,,,blue,hexagon
157.0,1.0,1.0,0.0,3.0,3.0,333.9645370001562,3.0,1.0,phase_1,,,,,,,,,,,,,blue,hexagon
662.0,3.0,3.0,0.0,2.0,2.0,423.5188249999737,3.0,1.0,phase_1,,,,,,,,,,,,,magenta,circle
651.0,7.0,3.0,1.0,4.0,4.0,356.5498439998009,3.0,1.0,phase_1,,,,,,,,,,,,,cyan,flipped triangle
0.0,7.0,0.0,1.0,1.0,1.0,435.820620999948,3.0,1.0,phase_1,,,,,,,,,,,,,cyan,flipped triangle
642.0,7.0,3.0,1.0,3.0,3.0,349.9244150002596,3.0,1.0,phase_1,,,,,,,,,,,,,cyan,flipped triangle
347.0,6.0,2.0,1.0,3.0,3.0,322.6767709998057,4.0,1.0,phase_1,,,,,,,,,,,,,green,square
186.0,1.0,1.0,0.0,3.0,3.0,295.415249999678,4.0,1.0,phase_1,,,,,,,,,,,,,blue,hexagon
317.0,2.0,2.0,0.0,3.0,3.0,379.4609880001189,4.0,1.0,phase_1,,,,,,,,,,,,,gray,triangle
325.0,2.0,2.0,0.0,3.0,3.0,426.3834619996487,4.0,1.0,phase_1,,,,,,,,,,,,,gray,triangle
0.0,8.0,0.0,1.0,1.0,1.0,308.6025470001914,4.0,1.0,phase_1,,,,,,,,,,,,,yellow,diamond
336.0,2.0,2.0,0.0,4.0,4.0,307.738228999824,4.0,1.0,phase_1,,,,,,,,,,,,,gray,triangle
332.0,6.0,2.0,1.0,2.0,2.0,295.8901219999461,4.0,1.0,phase_1,,,,,,,,,,,,,green,square
303.0,2.0,2.0,0.0,1.0,1.0,412.6193199999761,4.0,1.0,phase_1,,,,,,,,,,,,,gray,triangle
643.0,3.0,3.0,0.0,4.0,4.0,310.4660979997788,4.0,1.0,phase_1,,,,,,,,,,,,,magenta,circle
1309.0,4.0,4.0,0.0,3.0,3.0,316.5796210000735,4.0,1.0,phase_1,,,,,,,,,,,,,white,cross
1284.0,8.0,4.0,1.0,1.0,1.0,319.6596900002078,4.0,1.0,phase_1,,,,,,,,,,,,,yellow,diamond
632.0,7.0,3.0,1.0,1.0,1.0,444.5669140000063,4.0,1.0,phase_1,,,,,,,,,,,,,cyan,flipped triangle
175.0,1.0,1.0,0.0,1.0,1.0,427.1653989999322,4.0,1.0,phase_1,,,,,,,,,,,,,blue,hexagon
177.0,1.0,1.0,0.0,1.0,1.0,326.2956270000359,4.0,1.0,phase_1,,,,,,,,,,,,,blue,hexagon
653.0,7.0,3.0,1.0,3.0,3.0,290.9836030003134,4.0,1.0,phase_1,,,,,,,,,,,,,cyan,flipped triangle
1323.0,4.0,4.0,0.0,3.0,3.0,296.6379660001621,4.0,1.0,phase_1,,,,,,,,,,,,,white,cross
661.0,7.0,3.0,1.0,4.0,4.0,308.3227490001263,4.0,1.0,phase_1,,,,,,,,,,,,,cyan,flipped triangle
0.0,3.0,0.0,0.0,2.0,2.0,570.4621330000919,4.0,1.0,phase_1,,,,,,,,,,,,,magenta,circle
640.0,7.0,3.0,1.0,2.0,2.0,357.5040410000838,4.0,1.0,phase_1,,,,,,,,,,,,,cyan,flipped triangle
343.0,6.0,2.0,1.0,1.0,1.0,330.8982970002034,4.0,1.0,phase_1,,,,,,,,,,,,,green,square
335.0,6.0,2.0,1.0,4.0,4.0,319.9456079996707,4.0,1.0,phase_1,,,,,,,,,,,,,green,square
0.0,5.0,0.0,1.0,4.0,4.0,372.9121010001108,4.0,1.0,phase_1,,,,,,,,,,,,,orange,I
343.0,2.0,2.0,0.0,4.0,4.0,319.25666799998,4.0,1.0,phase_1,,,,,,,,,,,,,gray,triangle
0.0,7.0,0.0,1.0,3.0,3.0,461.9615009996778,4.0,1.0,phase_1,,,,,,,,,,,,,cyan,flipped triangle
1299.0,8.0,4.0,1.0,4.0,4.0,337.2269770002276,4.0,1.0,phase_1,,,,,,,,,,,,,yellow,diamond
147.0,5.0,1.0,1.0,3.0,3.0,325.4800930003512,4.0,1.0,phase_1,,,,,,,,,,,,,orange,I
0.0,7.0,0.0,1.0,2.0,2.0,435.8655159999216,4.0,1.0,phase_1,,,,,,,,,,,,,cyan,flipped triangle
177.0,5.0,1.0,1.0,1.0,1.0,550.8206360000258,4.0,1.0,phase_1,,,,,,,,,,,,,orange,I
318.0,6.0,2.0,1.0,2.0,2.0,379.1324670000904,4.0,1.0,phase_1,,,,,,,,,,,,,green,square
173.0,5.0,1.0,1.0,2.0,2.0,352.3781379999491,4.0,1.0,phase_1,,,,,,,,,,,,,orange,I
0.0,8.0,0.0,1.0,2.0,2.0,326.2128870001106,4.0,1.0,phase_1,,,,,,,,,,,,,yellow,diamond
321.0,2.0,2.0,0.0,4.0,4.0,286.247407000701,4.0,1.0,phase_1,,,,,,,,,,,,,gray,triangle
156.0,5.0,1.0,1.0,3.0,3.0,407.0415239993963,4.0,1.0,phase_1,,,,,,,,,,,,,orange,I
1279.0,4.0,4.0,0.0,1.0,1.0,409.7370819999923,4.0,1.0,phase_1,,,,,,,,,,,,,white,cross
323.0,6.0,2.0,1.0,3.0,3.0,342.3575769993476,4.0,1.0,phase_1,,,,,,,,,,,,,green,square
673.0,3.0,3.0,0.0,3.0,3.0,317.9119750002428,4.0,1.0,phase_1,,,,,,,,,,,,,magenta,circle
661.0,3.0,3.0,0.0,1.0,1.0,375.6346790005409,4.0,1.0,phase_1,,,,,,,,,,,,,magenta,circle
0.0,1.0,0.0,0.0,1.0,1.0,308.3122030002414,4.0,1.0,phase_1,,,,,,,,,,,,,blue,hexagon
643.0,3.0,3.0,0.0,1.0,1.0,290.1681000003009,4.0,1.0,phase_1,,,,,,,,,,,,,magenta,circle
1295.0,8.0,4.0,1.0,1.0,1.0,349.0620439997656,4.0,1.0,phase_1,,,,,,,,,,,,,yellow,diamond
653.0,3.0,3.0,0.0,4.0,4.0,364.9723349999476,4.0,1.0,phase_1,,,,,,,,,,,,,magenta,circle
638.0,7.0,3.0,1.0,2.0,2.0,463.0566240002736,4.0,1.0,phase_1,,,,,,,,,,,,,cyan,flipped triangle
316.0,6.0,2.0,1.0,2.0,2.0,333.2344070004183,4.0,1.0,phase_1,,,,,,,,,,,,,green,square
1277.0,8.0,4.0,1.0,2.0,2.0,320.2546880002046,4.0,1.0,phase_1,,,,,,,,,,,,,yellow,diamond
0.0,5.0,0.0,1.0,1.0,1.0,519.6060749995013,4.0,1.0,phase_1,,,,,,,,,,,,,orange,I
173.0,5.0,1.0,1.0,2.0,2.0,345.8170240000981,4.0,1.0,phase_1,,,,,,,,,,,,,orange,I
343.0,6.0,2.0,1.0,3.0,3.0,334.3689679995805,4.0,1.0,phase_1,,,,,,,,,,,,,green,square
652.0,3.0,3.0,0.0,1.0,1.0,405.3912750005111,4.0,1.0,phase_1,,,,,,,,,,,,,magenta,circle
1324.0,8.0,4.0,1.0,3.0,3.0,409.5012329999008,4.0,1.0,phase_1,,,,,,,,,,,,,yellow,diamond
1296.0,4.0,4.0,0.0,4.0,4.0,307.5556379999398,4.0,1.0,phase_1,,,,,,,,,,,,,white,cross
632.0,3.0,3.0,0.0,3.0,3.0,336.7464080001809,4.0,1.0,phase_1,,,,,,,,,,,,,magenta,circle
323.0,2.0,2.0,0.0,2.0,2.0,364.828566000142,4.0,1.0,phase_1,,,,,,,,,,,,,gray,triangle
311.0,6.0,2.0,1.0,4.0,4.0,338.222346999828,4.0,1.0,phase_1,,,,,,,,,,,,,green,square
1288.0,4.0,4.0,0.0,4.0,4.0,310.3570679995755,4.0,1.0,phase_1,,,,,,,,,,,,,white,cross
0.0,4.0,0.0,0.0,2.0,2.0,346.5001509994181,4.0,1.0,phase_1,,,,,,,,,,,,,white,cross
0.0,2.0,0.0,0.0,1.0,1.0,377.1327639997253,4.0,1.0,phase_1,,,,,,,,,,,,,gray,triangle
157.0,5.0,1.0,1.0,3.0,3.0,331.860754000445,4.0,1.0,phase_1,,,,,,,,,,,,,orange,I
175.0,5.0,1.0,1.0,2.0,2.0,409.1641920003894,4.0,1.0,phase_1,,,,,,,,,,,,,orange,I
643.0,7.0,3.0,1.0,1.0,1.0,373.5736939997878,4.0,1.0,phase_1,,,,,,,,,,,,,cyan,flipped triangle
630.0,3.0,3.0,0.0,2.0,2.0,346.3253179997991,4.0,1.0,phase_1,,,,,,,,,,,,,magenta,circle
0.0,7.0,0.0,1.0,1.0,1.0,391.552830999899,4.0,1.0,phase_1,,,,,,,,,,,,,cyan,flipped triangle
0.0,6.0,0.0,1.0,3.0,3.0,334.5196469999791,4.0,1.0,phase_1,,,,,,,,,,,,,green,square
630.0,7.0,3.0,1.0,3.0,3.0,416.5724389995375,4.0,1.0,phase_1,,,,,,,,,,,,,cyan,flipped triangle
0.0,5.0,0.0,1.0,4.0,4.0,333.0888260006759,4.0,1.0,phase_1,,,,,,,,,,,,,orange,I
348.0,6.0,2.0,1.0,1.0,1.0,337.5653289995171,4.0,1.0,phase_1,,,,,,,,,,,,,green,square
320.0,2.0,2.0,0.0,1.0,1.0,368.6054200006765,4.0,1.0,phase_1,,,,,,,,,,,,,gray,triangle
303.0,6.0,2.0,1.0,1.0,1.0,354.8881100005019,4.0,1.0,phase_1,,,,,,,,,,,,,green,square
1288.0,8.0,4.0,1.0,2.0,2.0,343.6069720000887,4.0,1.0,phase_1,,,,,,,,,,,,,yellow,diamond
0.0,1.0,0.0,0.0,2.0,2.0,331.8702099995789,4.0,1.0,phase_1,,,,,,,,,,,,,blue,hexagon
0.0,8.0,0.0,1.0,1.0,1.0,402.1724740005084,4.0,1.0,phase_1,,,,,,,,,,,,,yellow,diamond
153.0,1.0,1.0,0.0,1.0,1.0,318.9550990000498,4.0,1.0,phase_1,,,,,,,,,,,,,blue,hexagon
0.0,2.0,0.0,0.0,3.0,3.0,411.1867920000804,4.0,1.0,phase_1,,,,,,,,,,,,,gray,triangle
1304.0,8.0,4.0,1.0,4.0,4.0,358.0622170002243,4.0,1.0,phase_1,,,,,,,,,,,,,yellow,diamond
171.0,1.0,1.0,0.0,1.0,1.0,316.876248999506,4.0,1.0,phase_1,,,,,,,,,,,,,blue,hexagon
1284.0,4.0,4.0,0.0,3.0,3.0,495.8032539998385,4.0,1.0,phase_1,,,,,,,,,,,,,white,cross
1324.0,4.0,4.0,0.0,3.0,3.0,372.8403089999119,4.0,1.0,phase_1,,,,,,,,,,,,,white,cross
173.0,1.0,1.0,0.0,4.0,4.0,323.703674999706,4.0,1.0,phase_1,,,,,,,,,,,,,blue,hexagon
316.0,6.0,2.0,1.0,3.0,3.0,327.3222259995236,4.0,1.0,phase_1,,,,,,,,,,,,,green,square
332.0,2.0,2.0,0.0,1.0,1.0,378.8744949997635,4.0,1.0,phase_1,,,,,,,,,,,,,gray,triangle
1275.0,4.0,4.0,0.0,2.0,2.0,430.3846659995543,4.0,1.0,phase_1,,,,,,,,,,,,,white,cross
0.0,3.0,0.0,0.0,1.0,1.0,390.1162910005951,4.0,1.0,phase_1,,,,,,,,,,,,,magenta,circle
172.0,5.0,1.0,1.0,4.0,4.0,329.0666960001545,4.0,1.0,phase_1,,,,,,,,,,,,,orange,I
0.0,7.0,0.0,1.0,1.0,1.0,335.4083490003177,4.0,1.0,phase_1,,,,,,,,,,,,,cyan,flipped triangle
169.0,1.0,1.0,0.0,1.0,1.0,320.1958919999015,4.0,1.0,phase_1,,,,,,,,,,,,,blue,hexagon
0.0,8.0,0.0,1.0,1.0,1.0,325.7670450002479,4.0,1.0,phase_1,,,,,,,,,,,,,yellow,diamond
322.0,6.0,2.0,1.0,4.0,4.0,388.6626619996605,4.0,1.0,phase_1,,,,,,,,,,,,,green,square
0.0,4.0,0.0,0.0,2.0,2.0,439.0291339996111,4.0,1.0,phase_1,,,,,,,,,,,,,white,cross
143.0,1.0,1.0,0.0,4.0,4.0,332.0924029994785,4.0,1.0,phase_1,,,,,,,,,,,,,blue,hexagon
632.0,3.0,3.0,0.0,3.0,3.0,504.26027799949225,4.0,1.0,phase_1,,,,,,,,,,,,,magenta,circle
1281.0,4.0,4.0,0.0,1.0,1.0,315.9013650001725,4.0,1.0,phase_1,,,,,,,,,,,,,white,cross
322.0,2.0,2.0,0.0,3.0,3.0,355.4262499992546,4.0,1.0,phase_1,,,,,,,,,,,,,gray,triangle
1283.0,4.0,4.0,0.0,4.0,4.0,336.5973959998882,4.0,1.0,phase_1,,,,,,,,,,,,,white,cross
1277.0,8.0,4.0,1.0,1.0,1.0,683.1319520006218,4.0,1.0,phase_1,,,,,,,,,,,,,yellow,diamond
148.0,5.0,1.0,1.0,2.0,2.0,518.8343210002131,4.0,1.0,phase_1,,,,,,,,,,,,,orange,I
673.0,3.0,3.0,0.0,4.0,4.0,363.5690209994209,4.0,1.0,phase_1,,,,,,,,,,,,,magenta,circle
171.0,5.0,1.0,1.0,2.0,2.0,386.3281819994881,4.0,1.0,phase_1,,,,,,,,,,,,,orange,I
668.0,3.0,3.0,0.0,2.0,2.0,340.226930999961,4.0,1.0,phase_1,,,,,,,,,,,,,magenta,circle
627.0,7.0,3.0,1.0,4.0,4.0,409.4228120002299,4.0,1.0,phase_1,,,,,,,,,,,,,cyan,flipped triangle
179.0,5.0,1.0,1.0,1.0,1.0,334.2504790007297,4.0,1.0,phase_1,,,,,,,,,,,,,orange,I
0.0,5.0,0.0,1.0,4.0,4.0,332.6667530000122,4.0,1.0,phase_1,,,,,,,,,,,,,orange,I
0.0,6.0,2.0,1.0,6.0,0.0,0.0,1.0,1.0,phase_2,stop,250.0,250.0,4.0,,,,,,,,,green,square
0.0,3.0,3.0,0.0,6.0,6.0,575.789378999616,1.0,1.0,phase_2,go,250.0,300.0,1.0,,,,,,,,,magenta,circle
0.0,1.0,1.0,0.0,5.0,5.0,392.7198220007994,1.0,1.0,phase_2,go,250.0,300.0,1.0,,,,,,,,,blue,hexagon
0.0,3.0,3.0,0.0,6.0,6.0,503.9310679994742,1.0,1.0,phase_2,go,250.0,300.0,1.0,,,,,,,,,magenta,circle
0.0,2.0,2.0,0.0,5.0,5.0,396.9861679997848,1.0,1.0,phase_2,go,250.0,300.0,1.0,,,,,,,,,gray,triangle
0.0,6.0,2.0,1.0,5.0,5.0,613.7055820008754,1.0,1.0,phase_2,stop,250.0,300.0,3.0,,,,,,,,,green,square
0.0,6.0,2.0,1.0,5.0,0.0,0.0,1.0,1.0,phase_2,stop,200.0,300.0,4.0,,,,,,,,,green,square
0.0,3.0,3.0,0.0,6.0,6.0,388.4355099999084,1.0,1.0,phase_2,go,250.0,300.0,1.0,,,,,,,,,magenta,circle
0.0,4.0,4.0,0.0,5.0,5.0,715.7642239999404,1.0,1.0,phase_2,go,250.0,300.0,1.0,,,,,,,,,white,cross
0.0,1.0,1.0,0.0,6.0,6.0,380.6222479997814,1.0,1.0,phase_2,go,250.0,300.0,1.0,,,,,,,,,blue,hexagon
0.0,5.0,1.0,1.0,5.0,0.0,0.0,1.0,1.0,phase_2,stop,250.0,300.0,4.0,,,,,,,,,orange,I
0.0,7.0,3.0,1.0,6.0,0.0,0.0,1.0,1.0,phase_2,stop,300.0,300.0,4.0,,,,,,,,,cyan,flipped triangle
0.0,4.0,4.0,0.0,5.0,5.0,553.3495750005386,1.0,1.0,phase_2,go,300.0,350.0,1.0,,,,,,,,,white,cross
0.0,1.0,1.0,0.0,6.0,6.0,551.4564100003554,1.0,1.0,phase_2,go,300.0,350.0,1.0,,,,,,,,,blue,hexagon
0.0,3.0,3.0,0.0,6.0,6.0,704.9136280002131,1.0,1.0,phase_2,go,300.0,350.0,1.0,,,,,,,,,magenta,circle
0.0,2.0,2.0,0.0,6.0,6.0,535.2051010004288,1.0,1.0,phase_2,go,300.0,350.0,1.0,,,,,,,,,gray,triangle
0.0,2.0,2.0,0.0,5.0,5.0,688.5772490004456,1.0,1.0,phase_2,go,300.0,350.0,1.0,,,,,,,,,gray,triangle
0.0,3.0,3.0,0.0,6.0,6.0,663.2220179999422,1.0,1.0,phase_2,go,300.0,350.0,1.0,,,,,,,,,magenta,circle
0.0,4.0,4.0,0.0,6.0,6.0,716.8496580006831,1.0,1.0,phase_2,go,300.0,350.0,1.0,,,,,,,,,white,cross
0.0,4.0,4.0,0.0,6.0,6.0,582.4699249997138,1.0,1.0,phase_2,go,300.0,350.0,1.0,,,,,,,,,white,cross
0.0,7.0,3.0,1.0,5.0,0.0,0.0,1.0,1.0,phase_2,stop,300.0,350.0,4.0,,,,,,,,,cyan,flipped triangle
0.0,8.0,4.0,1.0,6.0,6.0,492.8690249998908,1.0,1.0,phase_2,stop,350.0,350.0,3.0,,,,,,,,,yellow,diamond
0.0,1.0,1.0,0.0,5.0,5.0,476.7594489994735,1.0,1.0,phase_2,go,350.0,300.0,1.0,,,,,,,,,blue,hexagon
0.0,8.0,4.0,1.0,6.0,6.0,393.0576339998879,1.0,1.0,phase_2,stop,350.0,300.0,3.0,,,,,,,,,yellow,diamond
0.0,4.0,4.0,0.0,6.0,6.0,618.0181319996336,1.0,1.0,phase_2,go,350.0,250.0,1.0,,,,,,,,,white,cross
0.0,6.0,2.0,1.0,5.0,0.0,0.0,1.0,1.0,phase_2,stop,350.0,250.0,4.0,,,,,,,,,green,square
0.0,5.0,1.0,1.0,5.0,5.0,591.4494519993241,1.0,1.0,phase_2,go,400.0,250.0,1.0,,,,,,,,,orange,I
0.0,4.0,4.0,0.0,5.0,5.0,536.6697659992496,1.0,1.0,phase_2,go,400.0,250.0,1.0,,,,,,,,,white,cross
0.0,1.0,1.0,0.0,6.0,6.0,305.0276940002732,1.0,1.0,phase_2,go,400.0,250.0,1.0,,,,,,,,,blue,hexagon
0.0,2.0,2.0,0.0,6.0,6.0,654.4533930000398,1.0,1.0,phase_2,go,400.0,250.0,1.0,,,,,,,,,gray,triangle
0.0,2.0,2.0,0.0,5.0,5.0,606.9161239993264,1.0,1.0,phase_2,go,400.0,250.0,1.0,,,,,,,,,gray,triangle
0.0,7.0,3.0,1.0,5.0,0.0,0.0,1.0,1.0,phase_2,stop,400.0,250.0,4.0,,,,,,,,,cyan,flipped triangle
0.0,8.0,4.0,1.0,6.0,0.0,0.0,1.0,1.0,phase_2,stop,450.0,250.0,4.0,,,,,,,,,yellow,diamond
0.0,6.0,2.0,1.0,6.0,6.0,412.5345709999237,1.0,1.0,phase_2,go,450.0,300.0,1.0,,,,,,,,,green,square
0.0,8.0,4.0,1.0,5.0,5.0,612.4986659997376,1.0,1.0,phase_2,go,450.0,300.0,1.0,,,,,,,,,yellow,diamond
0.0,5.0,1.0,1.0,6.0,0.0,0.0,1.0,1.0,phase_2,stop,450.0,300.0,4.0,,,,,,,,,orange,I
0.0,3.0,3.0,0.0,6.0,6.0,902.0575719996486,2.0,1.0,phase_2,go,450.0,350.0,1.0,,,,,,,,,magenta,circle
0.0,5.0,1.0,1.0,5.0,0.0,0.0,2.0,1.0,phase_2,stop,450.0,350.0,4.0,,,,,,,,,orange,I
0.0,8.0,4.0,1.0,6.0,0.0,0.0,2.0,1.0,phase_2,stop,500.0,350.0,4.0,,,,,,,,,yellow,diamond
0.0,4.0,4.0,0.0,5.0,5.0,540.0192740007697,2.0,1.0,phase_2,go,500.0,400.0,1.0,,,,,,,,,white,cross
0.0,6.0,2.0,1.0,5.0,5.0,595.4088569997111,2.0,1.0,phase_2,go,500.0,400.0,1.0,,,,,,,,,green,square
0.0,4.0,4.0,0.0,5.0,5.0,632.80384600057,2.0,1.0,phase_2,go,500.0,400.0,1.0,,,,,,,,,white,cross
0.0,6.0,2.0,1.0,5.0,5.0,608.3190790004664,2.0,1.0,phase_2,stop,500.0,400.0,3.0,,,,,,,,,green,square
0.0,7.0,3.0,1.0,5.0,5.0,671.8514479998703,2.0,1.0,phase_2,go,450.0,400.0,1.0,,,,,,,,,cyan,flipped triangle
0.0,6.0,2.0,1.0,5.0,5.0,478.3379190002961,2.0,1.0,phase_2,stop,450.0,400.0,3.0,,,,,,,,,green,square
0.0,1.0,1.0,0.0,6.0,6.0,702.8001919998133,2.0,1.0,phase_2,go,400.0,400.0,1.0,,,,,,,,,blue,hexagon
0.0,3.0,3.0,0.0,5.0,5.0,758.2234049996259,2.0,1.0,phase_2,go,400.0,400.0,1.0,,,,,,,,,magenta,circle
0.0,7.0,3.0,1.0,6.0,0.0,0.0,2.0,1.0,phase_2,stop,400.0,400.0,4.0,,,,,,,,,cyan,flipped triangle
0.0,3.0,3.0,0.0,6.0,6.0,508.9337149993298,2.0,1.0,phase_2,go,400.0,450.0,1.0,,,,,,,,,magenta,circle
0.0,2.0,2.0,0.0,6.0,6.0,766.0471769995638,2.0,1.0,phase_2,go,400.0,450.0,1.0,,,,,,,,,gray,triangle
0.0,7.0,3.0,1.0,6.0,6.0,794.5699000001696,2.0,1.0,phase_2,go,400.0,450.0,1.0,,,,,,,,,cyan,flipped triangle
0.0,1.0,1.0,0.0,6.0,6.0,947.4744749995808,2.0,1.0,phase_2,go,400.0,450.0,1.0,,,,,,,,,blue,hexagon
0.0,3.0,3.0,0.0,5.0,5.0,860.0836189998518,2.0,1.0,phase_2,go,400.0,450.0,1.0,,,,,,,,,magenta,circle
0.0,3.0,3.0,0.0,5.0,5.0,817.0149430006859,2.0,1.0,phase_2,go,400.0,450.0,1.0,,,,,,,,,magenta,circle
0.0,2.0,2.0,0.0,5.0,5.0,627.3626069996681,2.0,1.0,phase_2,go,400.0,450.0,1.0,,,,,,,,,gray,triangle
0.0,8.0,4.0,1.0,6.0,0.0,0.0,2.0,1.0,phase_2,stop,400.0,450.0,4.0,,,,,,,,,yellow,diamond
0.0,5.0,1.0,1.0,6.0,6.0,632.1785690006436,2.0,1.0,phase_2,stop,400.0,500.0,3.0,,,,,,,,,orange,I
0.0,2.0,2.0,0.0,5.0,5.0,768.8957319996916,2.0,1.0,phase_2,go,400.0,450.0,1.0,,,,,,,,,gray,triangle
0.0,7.0,3.0,1.0,6.0,0.0,0.0,2.0,1.0,phase_2,stop,400.0,450.0,4.0,,,,,,,,,cyan,flipped triangle
0.0,2.0,2.0,0.0,5.0,5.0,615.3243640001165,2.0,1.0,phase_2,go,400.0,500.0,1.0,,,,,,,,,gray,triangle
0.0,4.0,4.0,0.0,6.0,6.0,766.5833279997969,2.0,1.0,phase_2,go,400.0,500.0,1.0,,,,,,,,,white,cross
0.0,8.0,4.0,1.0,6.0,0.0,0.0,2.0,1.0,phase_2,stop,400.0,500.0,4.0,,,,,,,,,yellow,diamond
0.0,8.0,4.0,1.0,6.0,6.0,651.3381920003667,2.0,1.0,phase_2,stop,400.0,550.0,3.0,,,,,,,,,yellow,diamond
0.0,6.0,2.0,1.0,6.0,0.0,0.0,2.0,1.0,phase_2,stop,400.0,500.0,4.0,,,,,,,,,green,square
0.0,1.0,1.0,0.0,6.0,6.0,779.4485479998912,2.0,1.0,phase_2,go,400.0,550.0,1.0,,,,,,,,,blue,hexagon
0.0,8.0,4.0,1.0,6.0,0.0,0.0,2.0,1.0,phase_2,stop,400.0,550.0,4.0,,,,,,,,,yellow,diamond
0.0,5.0,1.0,1.0,6.0,6.0,626.6623619994789,2.0,1.0,phase_2,stop,400.0,600.0,3.0,,,,,,,,,orange,I
0.0,5.0,1.0,1.0,6.0,0.0,0.0,2.0,1.0,phase_2,stop,400.0,550.0,4.0,,,,,,,,,orange,I
0.0,8.0,4.0,1.0,5.0,5.0,562.7155020001737,2.0,1.0,phase_2,go,400.0,600.0,1.0,,,,,,,,,yellow,diamond
0.0,7.0,3.0,1.0,6.0,6.0,647.0150859995556,2.0,1.0,phase_2,stop,400.0,600.0,3.0,,,,,,,,,cyan,flipped triangle
0.0,1.0,1.0,0.0,5.0,5.0,726.0241189997032,2.0,1.0,phase_2,go,400.0,550.0,1.0,,,,,,,,,blue,hexagon
0.0,3.0,3.0,0.0,6.0,6.0,799.7791010002402,2.0,1.0,phase_2,go,400.0,550.0,1.0,,,,,,,,,magenta,circle
0.0,8.0,4.0,1.0,6.0,6.0,677.9938809995656,3.0,1.0,phase_2,stop,400.0,550.0,3.0,,,,,,,,,yellow,diamond
0.0,5.0,1.0,1.0,5.0,5.0,310.8929259997239,3.0,1.0,phase_2,stop,400.0,500.0,3.0,,,,,,,,,orange,I
0.0,2.0,2.0,0.0,5.0,5.0,342.0960390003529,3.0,1.0,phase_2,go,350.0,500.0,1.0,,,,,,,,,gray,triangle
0.0,1.0,1.0,0.0,6.0,6.0,365.7760129999587,3.0,1.0,phase_2,go,350.0,500.0,1.0,,,,,,,,,blue,hexagon
0.0,1.0,1.0,0.0,5.0,5.0,613.0719479997424,3.0,1.0,phase_2,go,350.0,500.0,1.0,,,,,,,,,blue,hexagon
0.0,8.0,4.0,1.0,6.0,6.0,588.444852000066,3.0,1.0,phase_2,go,350.0,500.0,1.0,,,,,,,,,yellow,diamond
0.0,8.0,4.0,1.0,5.0,0.0,0.0,3.0,1.0,phase_2,stop,350.0,500.0,4.0,,,,,,,,,yellow,diamond
0.0,5.0,1.0,1.0,5.0,5.0,529.2914210003801,3.0,1.0,phase_2,go,400.0,500.0,1.0,,,,,,,,,orange,I
0.0,8.0,4.0,1.0,5.0,5.0,448.52747900040407,3.0,1.0,phase_2,go,400.0,500.0,1.0,,,,,,,,,yellow,diamond
0.0,6.0,2.0,1.0,5.0,5.0,528.52179599995,3.0,1.0,phase_2,stop,400.0,500.0,3.0,,,,,,,,,green,square
0.0,7.0,3.0,1.0,6.0,6.0,567.8783580005984,3.0,1.0,phase_2,go,350.0,500.0,1.0,,,,,,,,,cyan,flipped triangle
0.0,2.0,2.0,0.0,6.0,6.0,303.9105190000555,3.0,1.0,phase_2,go,350.0,500.0,1.0,,,,,,,,,gray,triangle
0.0,7.0,3.0,1.0,5.0,0.0,0.0,3.0,1.0,phase_2,stop,350.0,500.0,4.0,,,,,,,,,cyan,flipped triangle
0.0,6.0,2.0,1.0,6.0,6.0,278.1208749993311,3.0,1.0,phase_2,stop,400.0,500.0,3.0,,,,,,,,,green,square
0.0,7.0,3.0,1.0,5.0,5.0,303.2871920004254,3.0,1.0,phase_2,stop,400.0,450.0,3.0,,,,,,,,,cyan,flipped triangle
0.0,4.0,4.0,0.0,6.0,6.0,254.75957199978438,3.0,1.0,phase_2,go,350.0,450.0,1.0,,,,,,,,,white,cross
0.0,1.0,1.0,0.0,5.0,5.0,565.890734000277,3.0,1.0,phase_2,go,350.0,450.0,1.0,,,,,,,,,blue,hexagon
0.0,1.0,1.0,0.0,5.0,5.0,730.9127290000106,3.0,1.0,phase_2,go,350.0,450.0,1.0,,,,,,,,,blue,hexagon
0.0,5.0,1.0,1.0,6.0,0.0,0.0,3.0,1.0,phase_2,stop,350.0,450.0,4.0,,,,,,,,,orange,I
0.0,4.0,4.0,0.0,5.0,5.0,602.3821039998438,3.0,1.0,phase_2,go,350.0,500.0,1.0,,,,,,,,,white,cross
0.0,3.0,3.0,0.0,5.0,5.0,306.4001239999925,3.0,1.0,phase_2,go,350.0,500.0,1.0,,,,,,,,,magenta,circle
0.0,7.0,3.0,1.0,6.0,6.0,744.1748829996868,3.0,1.0,phase_2,go,350.0,500.0,1.0,,,,,,,,,cyan,flipped triangle
0.0,5.0,1.0,1.0,5.0,0.0,0.0,3.0,1.0,phase_2,stop,350.0,500.0,4.0,,,,,,,,,orange,I
0.0,4.0,4.0,0.0,6.0,6.0,407.5246140000672,3.0,1.0,phase_2,go,400.0,500.0,1.0,,,,,,,,,white,cross
0.0,3.0,3.0,0.0,5.0,5.0,847.721866000029,3.0,1.0,phase_2,go,400.0,500.0,1.0,,,,,,,,,magenta,circle
0.0,3.0,3.0,0.0,6.0,6.0,705.1347510005144,3.0,1.0,phase_2,go,400.0,500.0,1.0,,,,,,,,,magenta,circle
0.0,3.0,3.0,0.0,5.0,5.0,750.0492830004077,3.0,1.0,phase_2,go,400.0,500.0,1.0,,,,,,,,,magenta,circle
0.0,1.0,1.0,0.0,5.0,5.0,982.0154910003112,3.0,1.0,phase_2,go,400.0,500.0,1.0,,,,,,,,,blue,hexagon
0.0,4.0,4.0,0.0,6.0,6.0,859.9649360003241,3.0,1.0,phase_2,go,400.0,500.0,1.0,,,,,,,,,white,cross
0.0,7.0,3.0,1.0,5.0,0.0,0.0,3.0,1.0,phase_2,stop,400.0,500.0,4.0,,,,,,,,,cyan,flipped triangle
0.0,4.0,4.0,0.0,6.0,6.0,356.9332279994341,3.0,1.0,phase_2,go,450.0,500.0,1.0,,,,,,,,,white,cross
0.0,6.0,2.0,1.0,5.0,5.0,308.8339890000497,3.0,1.0,phase_2,stop,450.0,500.0,3.0,,,,,,,,,green,square
0.0,2.0,2.0,0.0,6.0,6.0,299.5219699996596,3.0,1.0,phase_2,go,400.0,500.0,1.0,,,,,,,,,gray,triangle
0.0,5.0,1.0,1.0,5.0,5.0,267.6501310006642,3.0,1.0,phase_2,stop,400.0,500.0,3.0,,,,,,,,,orange,I
0.0,6.0,2.0,1.0,6.0,6.0,249.3796999997357,3.0,1.0,phase_2,stop,350.0,500.0,3.0,,,,,,,,,green,square
0.0,6.0,2.0,1.0,6.0,6.0,303.6806959999012,3.0,1.0,phase_2,go,350.0,450.0,1.0,,,,,,,,,green,square
0.0,1.0,1.0,0.0,6.0,6.0,722.4542130006739,4.0,1.0,phase_2,go,350.0,450.0,1.0,,,,,,,,,blue,hexagon
0.0,1.0,1.0,0.0,6.0,6.0,890.7439119993796,4.0,1.0,phase_2,go,350.0,450.0,1.0,,,,,,,,,blue,hexagon
0.0,7.0,3.0,1.0,5.0,0.0,0.0,4.0,1.0,phase_2,stop,350.0,450.0,4.0,,,,,,,,,cyan,flipped triangle
0.0,6.0,2.0,1.0,6.0,6.0,279.6647189998111,4.0,1.0,phase_2,go,400.0,450.0,1.0,,,,,,,,,green,square
0.0,2.0,2.0,0.0,6.0,6.0,609.0943609997339,4.0,1.0,phase_2,go,400.0,450.0,1.0,,,,,,,,,gray,triangle
0.0,2.0,2.0,0.0,5.0,5.0,326.2386030000925,4.0,1.0,phase_2,go,400.0,450.0,1.0,,,,,,,,,gray,triangle
0.0,1.0,1.0,0.0,6.0,6.0,247.69265400027498,4.0,1.0,phase_2,go,400.0,450.0,1.0,,,,,,,,,blue,hexagon
0.0,8.0,4.0,1.0,6.0,0.0,0.0,4.0,1.0,phase_2,stop,400.0,450.0,4.0,,,,,,,,,yellow,diamond
0.0,3.0,3.0,0.0,6.0,6.0,284.0339980002682,4.0,1.0,phase_2,go,400.0,500.0,1.0,,,,,,,,,magenta,circle
0.0,3.0,3.0,0.0,6.0,6.0,284.4995160003236,4.0,1.0,phase_2,go,400.0,500.0,1.0,,,,,,,,,magenta,circle
0.0,2.0,2.0,0.0,5.0,5.0,660.8850270004041,4.0,1.0,phase_2,go,400.0,500.0,1.0,,,,,,,,,gray,triangle
0.0,5.0,1.0,1.0,6.0,0.0,0.0,4.0,1.0,phase_2,stop,400.0,500.0,4.0,,,,,,,,,orange,I
0.0,6.0,2.0,1.0,6.0,6.0,315.2439800005595,4.0,1.0,phase_2,stop,400.0,550.0,3.0,,,,,,,,,green,square
0.0,3.0,3.0,0.0,6.0,6.0,281.2404480000623,4.0,1.0,phase_2,go,400.0,500.0,1.0,,,,,,,,,magenta,circle
0.0,6.0,2.0,1.0,6.0,6.0,290.3333019994534,4.0,1.0,phase_2,stop,400.0,500.0,3.0,,,,,,,,,green,square
0.0,4.0,4.0,0.0,5.0,5.0,648.1396810004298,4.0,1.0,phase_2,go,400.0,450.0,1.0,,,,,,,,,white,cross
0.0,1.0,1.0,0.0,5.0,5.0,311.8216660004691,4.0,1.0,phase_2,go,400.0,450.0,1.0,,,,,,,,,blue,hexagon
0.0,6.0,2.0,1.0,5.0,5.0,502.23646800077404,4.0,1.0,phase_2,go,400.0,450.0,1.0,,,,,,,,,green,square
0.0,8.0,4.0,1.0,5.0,5.0,350.61367399976,4.0,1.0,phase_2,stop,400.0,450.0,3.0,,,,,,,,,yellow,diamond
0.0,1.0,1.0,0.0,5.0,5.0,477.1150610004042,4.0,1.0,phase_2,go,350.0,450.0,1.0,,,,,,,,,blue,hexagon
0.0,1.0,1.0,0.0,6.0,6.0,292.8741550003906,4.0,1.0,phase_2,go,350.0,450.0,1.0,,,,,,,,,blue,hexagon
0.0,2.0,2.0,0.0,5.0,5.0,692.6331949998712,4.0,1.0,phase_2,go,350.0,450.0,1.0,,,,,,,,,gray,triangle
0.0,4.0,4.0,0.0,6.0,6.0,659.1314620000048,4.0,1.0,phase_2,go,350.0,450.0,1.0,,,,,,,,,white,cross
0.0,2.0,2.0,0.0,5.0,5.0,763.7988260003112,4.0,1.0,phase_2,go,350.0,450.0,1.0,,,,,,,,,gray,triangle
0.0,3.0,3.0,0.0,6.0,6.0,724.5557109999936,4.0,1.0,phase_2,go,350.0,450.0,1.0,,,,,,,,,magenta,circle
0.0,3.0,3.0,0.0,5.0,5.0,715.0406649998331,4.0,1.0,phase_2,go,350.0,450.0,1.0,,,,,,,,,magenta,circle
0.0,8.0,4.0,1.0,6.0,0.0,0.0,4.0,1.0,phase_2,stop,350.0,450.0,4.0,,,,,,,,,yellow,diamond
0.0,3.0,3.0,0.0,5.0,5.0,313.5967719999826,4.0,1.0,phase_2,go,350.0,500.0,1.0,,,,,,,,,magenta,circle
0.0,7.0,3.0,1.0,5.0,5.0,329.4196639999427,4.0,1.0,phase_2,go,350.0,500.0,1.0,,,,,,,,,cyan,flipped triangle
0.0,3.0,3.0,0.0,6.0,6.0,609.2409400007455,4.0,1.0,phase_2,go,350.0,500.0,1.0,,,,,,,,,magenta,circle
0.0,4.0,4.0,0.0,5.0,5.0,598.8306819999707,4.0,1.0,phase_2,go,350.0,500.0,1.0,,,,,,,,,white,cross
0.0,6.0,2.0,1.0,5.0,0.0,0.0,4.0,1.0,phase_2,stop,350.0,500.0,4.0,,,,,,,,,green,square
0.0,5.0,1.0,1.0,6.0,6.0,341.1338880005132,4.0,1.0,phase_2,stop,400.0,500.0,3.0,,,,,,,,,orange,I
0.0,5.0,1.0,1.0,5.0,5.0,805.7826459998978,4.0,1.0,phase_2,go,400.0,450.0,1.0,,,,,,,,,orange,I
0.0,7.0,3.0,1.0,5.0,5.0,510.33496299987746,4.0,1.0,phase_2,stop,400.0,450.0,3.0,,,,,,,,,cyan,flipped triangle
0.0,2.0,2.0,0.0,5.0,5.0,611.7225339994548,4.0,1.0,phase_2,go,350.0,450.0,1.0,,,,,,,,,gray,triangle
0.0,4.0,4.0,0.0,6.0,6.0,438.5097800004587,5.0,1.0,phase_2,go,350.0,450.0,1.0,,,,,,,,,white,cross
0.0,3.0,3.0,0.0,5.0,5.0,613.3746329996939,5.0,1.0,phase_2,go,350.0,450.0,1.0,,,,,,,,,magenta,circle
0.0,6.0,2.0,1.0,5.0,0.0,0.0,5.0,1.0,phase_2,stop,350.0,450.0,4.0,,,,,,,,,green,square
0.0,8.0,4.0,1.0,6.0,0.0,0.0,5.0,1.0,phase_2,stop,400.0,450.0,4.0,,,,,,,,,yellow,diamond
0.0,4.0,4.0,0.0,6.0,6.0,427.0218049996401,5.0,1.0,phase_2,go,400.0,500.0,1.0,,,,,,,,,white,cross
0.0,8.0,4.0,1.0,6.0,0.0,0.0,5.0,1.0,phase_2,stop,400.0,500.0,4.0,,,,,,,,,yellow,diamond
0.0,1.0,1.0,0.0,6.0,6.0,569.4812540004932,5.0,1.0,phase_2,go,400.0,550.0,1.0,,,,,,,,,blue,hexagon
0.0,7.0,3.0,1.0,6.0,6.0,623.7367619996803,5.0,1.0,phase_2,stop,400.0,550.0,3.0,,,,,,,,,cyan,flipped triangle
0.0,2.0,2.0,0.0,5.0,5.0,641.5794009999445,5.0,1.0,phase_2,go,400.0,500.0,1.0,,,,,,,,,gray,triangle
0.0,4.0,4.0,0.0,5.0,5.0,590.5329329998494,5.0,1.0,phase_2,go,400.0,500.0,1.0,,,,,,,,,white,cross
0.0,8.0,4.0,1.0,5.0,0.0,0.0,5.0,1.0,phase_2,stop,400.0,500.0,4.0,,,,,,,,,yellow,diamond
0.0,7.0,3.0,1.0,5.0,0.0,0.0,5.0,1.0,phase_2,stop,450.0,500.0,4.0,,,,,,,,,cyan,flipped triangle
0.0,3.0,3.0,0.0,6.0,6.0,388.9088140003878,5.0,1.0,phase_2,go,500.0,500.0,1.0,,,,,,,,,magenta,circle
0.0,8.0,4.0,1.0,5.0,0.0,0.0,5.0,1.0,phase_2,stop,500.0,500.0,4.0,,,,,,,,,yellow,diamond
0.0,4.0,4.0,0.0,6.0,6.0,507.0455029999721,5.0,1.0,phase_2,go,550.0,500.0,1.0,,,,,,,,,white,cross
0.0,4.0,4.0,0.0,5.0,5.0,507.4294699998063,5.0,1.0,phase_2,go,550.0,500.0,1.0,,,,,,,,,white,cross
0.0,6.0,2.0,1.0,6.0,6.0,801.5232120005749,5.0,1.0,phase_2,go,550.0,500.0,1.0,,,,,,,,,green,square
0.0,7.0,3.0,1.0,6.0,0.0,0.0,5.0,1.0,phase_2,stop,550.0,500.0,4.0,,,,,,,,,cyan,flipped triangle
0.0,8.0,4.0,1.0,5.0,0.0,0.0,5.0,1.0,phase_2,stop,550.0,550.0,4.0,,,,,,,,,yellow,diamond
0.0,2.0,2.0,0.0,5.0,5.0,496.6916599996693,5.0,1.0,phase_2,go,600.0,550.0,1.0,,,,,,,,,gray,triangle
0.0,3.0,3.0,0.0,6.0,6.0,616.8854359993929,5.0,1.0,phase_2,go,600.0,550.0,1.0,,,,,,,,,magenta,circle
0.0,6.0,2.0,1.0,5.0,0.0,0.0,5.0,1.0,phase_2,stop,600.0,550.0,4.0,,,,,,,,,green,square
0.0,7.0,3.0,1.0,5.0,0.0,0.0,5.0,1.0,phase_2,stop,650.0,550.0,4.0,,,,,,,,,cyan,flipped triangle
0.0,5.0,1.0,1.0,6.0,6.0,432.0199620005951,5.0,1.0,phase_2,stop,700.0,550.0,3.0,,,,,,,,,orange,I
0.0,8.0,4.0,1.0,6.0,6.0,1165.1060300000609,5.0,1.0,phase_2,go,700.0,500.0,1.0,,,,,,,,,yellow,diamond
0.0,5.0,1.0,1.0,6.0,0.0,0.0,5.0,1.0,phase_2,stop,700.0,500.0,4.0,,,,,,,,,orange,I
0.0,2.0,2.0,0.0,6.0,6.0,516.7123880000872,5.0,1.0,phase_2,go,700.0,550.0,1.0,,,,,,,,,gray,triangle
0.0,3.0,3.0,0.0,5.0,5.0,499.3881609998425,5.0,1.0,phase_2,go,700.0,550.0,1.0,,,,,,,,,magenta,circle
0.0,7.0,3.0,1.0,5.0,0.0,0.0,5.0,1.0,phase_2,stop,700.0,550.0,4.0,,,,,,,,,cyan,flipped triangle
0.0,8.0,4.0,1.0,6.0,6.0,538.7927709998621,5.0,1.0,phase_2,stop,750.0,550.0,3.0,,,,,,,,,yellow,diamond
0.0,5.0,1.0,1.0,5.0,5.0,634.889947999909,5.0,1.0,phase_2,go,750.0,500.0,1.0,,,,,,,,,orange,I
0.0,5.0,1.0,1.0,6.0,0.0,0.0,5.0,1.0,phase_2,stop,750.0,500.0,4.0,,,,,,,,,orange,I
0.0,3.0,3.0,0.0,5.0,5.0,481.1046209997585,5.0,1.0,phase_2,go,750.0,550.0,1.0,,,,,,,,,magenta,circle
0.0,1.0,1.0,0.0,6.0,6.0,720.0110420008059,5.0,1.0,phase_2,go,750.0,550.0,1.0,,,,,,,,,blue,hexagon
0.0,4.0,4.0,0.0,5.0,5.0,503.75708699993993,5.0,1.0,phase_2,go,750.0,550.0,1.0,,,,,,,,,white,cross
0.0,6.0,2.0,1.0,5.0,0.0,0.0,5.0,1.0,phase_2,stop,750.0,550.0,4.0,,,,,,,,,green,square
0.0,7.0,3.0,1.0,5.0,0.0,0.0,6.0,1.0,phase_2,stop,800.0,550.0,4.0,,,,,,,,,cyan,flipped triangle
0.0,1.0,1.0,0.0,5.0,5.0,571.822744000201,6.0,1.0,phase_2,go,850.0,550.0,1.0,,,,,,,,,blue,hexagon
0.0,1.0,1.0,0.0,5.0,5.0,537.903510000433,6.0,1.0,phase_2,go,850.0,550.0,1.0,,,,,,,,,blue,hexagon
0.0,6.0,2.0,1.0,5.0,0.0,0.0,6.0,1.0,phase_2,stop,850.0,550.0,4.0,,,,,,,,,green,square
0.0,8.0,4.0,1.0,5.0,5.0,761.422734000007,6.0,1.0,phase_2,go,900.0,550.0,1.0,,,,,,,,,yellow,diamond
0.0,2.0,2.0,0.0,5.0,5.0,488.2813630001692,6.0,1.0,phase_2,go,900.0,550.0,1.0,,,,,,,,,gray,triangle
0.0,8.0,4.0,1.0,5.0,0.0,0.0,6.0,1.0,phase_2,stop,900.0,550.0,4.0,,,,,,,,,yellow,diamond
0.0,7.0,3.0,1.0,6.0,0.0,0.0,6.0,1.0,phase_2,stop,950.0,550.0,4.0,,,,,,,,,cyan,flipped triangle
0.0,8.0,4.0,1.0,5.0,5.0,1311.2882900004481,6.0,1.0,phase_2,go,950.0,600.0,1.0,,,,,,,,,yellow,diamond
0.0,2.0,2.0,0.0,6.0,6.0,541.6344559998834,6.0,1.0,phase_2,go,950.0,600.0,1.0,,,,,,,,,gray,triangle
0.0,1.0,1.0,0.0,6.0,6.0,631.3543690002916,6.0,1.0,phase_2,go,950.0,600.0,1.0,,,,,,,,,blue,hexagon
0.0,6.0,2.0,1.0,6.0,0.0,0.0,6.0,1.0,phase_2,stop,950.0,600.0,4.0,,,,,,,,,green,square
0.0,6.0,2.0,1.0,6.0,6.0,955.2596710000216,6.0,1.0,phase_2,go,950.0,650.0,1.0,,,,,,,,,green,square
0.0,6.0,2.0,1.0,6.0,0.0,0.0,6.0,1.0,phase_2,stop,950.0,650.0,4.0,,,,,,,,,green,square
0.0,1.0,1.0,0.0,6.0,6.0,522.9936300002009,6.0,1.0,phase_2,go,950.0,700.0,1.0,,,,,,,,,blue,hexagon
0.0,2.0,2.0,0.0,5.0,5.0,546.6252349997376,6.0,1.0,phase_2,go,950.0,700.0,1.0,,,,,,,,,gray,triangle
0.0,5.0,1.0,1.0,5.0,5.0,1011.2369779999426,6.0,1.0,phase_2,go,950.0,700.0,1.0,,,,,,,,,orange,I
0.0,2.0,2.0,0.0,6.0,6.0,529.4086419999076,6.0,1.0,phase_2,go,950.0,700.0,1.0,,,,,,,,,gray,triangle
0.0,2.0,2.0,0.0,6.0,6.0,416.4358660000289,6.0,1.0,phase_2,go,950.0,700.0,1.0,,,,,,,,,gray,triangle
0.0,7.0,3.0,1.0,5.0,5.0,1030.9010689998104,6.0,1.0,phase_2,stop,950.0,700.0,3.0,,,,,,,,,cyan,flipped triangle
0.0,4.0,4.0,0.0,6.0,6.0,504.8301429997082,6.0,1.0,phase_2,go,900.0,700.0,1.0,,,,,,,,,white,cross
0.0,6.0,2.0,1.0,5.0,0.0,0.0,6.0,1.0,phase_2,stop,900.0,700.0,4.0,,,,,,,,,green,square
0.0,7.0,3.0,1.0,5.0,0.0,0.0,6.0,1.0,phase_2,stop,950.0,700.0,4.0,,,,,,,,,cyan,flipped triangle
0.0,3.0,3.0,0.0,5.0,5.0,613.8571410001532,6.0,1.0,phase_2,go,1000.0,700.0,1.0,,,,,,,,,magenta,circle
0.0,8.0,4.0,1.0,5.0,0.0,0.0,6.0,1.0,phase_2,stop,1000.0,700.0,4.0,,,,,,,,,yellow,diamond
0.0,8.0,4.0,1.0,6.0,6.0,1301.1837889998787,6.0,1.0,phase_2,go,1050.0,700.0,1.0,,,,,,,,,yellow,diamond
0.0,4.0,4.0,0.0,5.0,5.0,499.8499220000667,6.0,1.0,phase_2,go,1050.0,700.0,1.0,,,,,,,,,white,cross
0.0,2.0,2.0,0.0,6.0,6.0,658.400382999389,6.0,1.0,phase_2,go,1050.0,700.0,1.0,,,,,,,,,gray,triangle
0.0,4.0,4.0,0.0,5.0,5.0,515.684357000282,6.0,1.0,phase_2,go,1050.0,700.0,1.0,,,,,,,,,white,cross
0.0,5.0,1.0,1.0,5.0,5.0,896.9620260004376,6.0,1.0,phase_2,stop,1050.0,700.0,3.0,,,,,,,,,orange,I
0.0,2.0,2.0,0.0,6.0,6.0,544.6898299996974,6.0,1.0,phase_2,go,1000.0,700.0,1.0,,,,,,,,,gray,triangle
0.0,2.0,2.0,0.0,5.0,5.0,464.8716550000245,6.0,1.0,phase_2,go,1000.0,700.0,1.0,,,,,,,,,gray,triangle
0.0,1.0,1.0,0.0,6.0,6.0,489.8536430000604,6.0,1.0,phase_2,go,1000.0,700.0,1.0,,,,,,,,,blue,hexagon
0.0,4.0,4.0,0.0,5.0,5.0,377.2287310002866,6.0,1.0,phase_2,go,1000.0,700.0,1.0,,,,,,,,,white,cross
0.0,1.0,1.0,0.0,6.0,6.0,360.2814099995157,6.0,1.0,phase_2,go,1000.0,700.0,1.0,,,,,,,,,blue,hexagon
0.0,5.0,1.0,1.0,5.0,0.0,0.0,6.0,1.0,phase_2,stop,1000.0,700.0,4.0,,,,,,,,,orange,I
0.0,7.0,3.0,1.0,5.0,5.0,1320.7922170004167,7.0,1.0,phase_2,go,1050.0,700.0,1.0,,,,,,,,,cyan,flipped triangle
0.0,2.0,2.0,0.0,6.0,6.0,585.74993000002,7.0,1.0,phase_2,go,1050.0,700.0,1.0,,,,,,,,,gray,triangle
0.0,3.0,3.0,0.0,5.0,5.0,470.7588969995413,7.0,1.0,phase_2,go,1050.0,700.0,1.0,,,,,,,,,magenta,circle
0.0,4.0,4.0,0.0,6.0,6.0,415.1872749998802,7.0,1.0,phase_2,go,1050.0,700.0,1.0,,,,,,,,,white,cross
0.0,5.0,1.0,1.0,6.0,0.0,0.0,7.0,1.0,phase_2,stop,1050.0,700.0,4.0,,,,,,,,,orange,I
0.0,6.0,2.0,1.0,5.0,5.0,1172.9435470006138,7.0,1.0,phase_2,stop,1050.0,750.0,3.0,,,,,,,,,green,square
0.0,7.0,3.0,1.0,6.0,0.0,0.0,7.0,1.0,phase_2,stop,1000.0,750.0,4.0,,,,,,,,,cyan,flipped triangle
0.0,7.0,3.0,1.0,6.0,6.0,1188.380581000274,7.0,1.0,phase_2,go,1000.0,800.0,1.0,,,,,,,,,cyan,flipped triangle
0.0,6.0,2.0,1.0,6.0,6.0,1421.6872869992585,7.0,1.0,phase_2,go,1000.0,800.0,1.0,,,,,,,,,green,square
0.0,5.0,1.0,1.0,6.0,0.0,0.0,7.0,1.0,phase_2,stop,1000.0,800.0,4.0,,,,,,,,,orange,I
0.0,5.0,1.0,1.0,6.0,0.0,0.0,7.0,1.0,phase_2,stop,1000.0,850.0,4.0,,,,,,,,,orange,I
0.0,7.0,3.0,1.0,6.0,6.0,1161.952869999368,7.0,1.0,phase_2,go,1000.0,900.0,1.0,,,,,,,,,cyan,flipped triangle
0.0,7.0,3.0,1.0,6.0,0.0,0.0,7.0,1.0,phase_2,stop,1000.0,900.0,4.0,,,,,,,,,cyan,flipped triangle
0.0,4.0,4.0,0.0,5.0,5.0,618.0748920005499,7.0,1.0,phase_2,go,1000.0,950.0,1.0,,,,,,,,,white,cross
0.0,3.0,3.0,0.0,6.0,6.0,513.5073210003611,7.0,1.0,phase_2,go,1000.0,950.0,1.0,,,,,,,,,magenta,circle
0.0,2.0,2.0,0.0,6.0,6.0,510.35317700007,7.0,1.0,phase_2,go,1000.0,950.0,1.0,,,,,,,,,gray,triangle
0.0,3.0,3.0,0.0,5.0,5.0,424.591244000112,7.0,1.0,phase_2,go,1000.0,950.0,1.0,,,,,,,,,magenta,circle
0.0,2.0,2.0,0.0,6.0,6.0,622.2487530003491,7.0,1.0,phase_2,go,1000.0,950.0,1.0,,,,,,,,,gray,triangle
0.0,1.0,1.0,0.0,5.0,5.0,542.1123649994115,7.0,1.0,phase_2,go,1000.0,950.0,1.0,,,,,,,,,blue,hexagon
0.0,7.0,3.0,1.0,5.0,0.0,0.0,7.0,1.0,phase_2,stop,1000.0,950.0,4.0,,,,,,,,,cyan,flipped triangle
0.0,2.0,2.0,0.0,6.0,6.0,589.7423009992053,7.0,1.0,phase_2,go,1050.0,950.0,1.0,,,,,,,,,gray,triangle
0.0,6.0,2.0,1.0,6.0,0.0,0.0,7.0,1.0,phase_2,stop,1050.0,950.0,4.0,,,,,,,,,green,square
0.0,6.0,2.0,1.0,6.0,0.0,0.0,7.0,1.0,phase_2,stop,1050.0,1000.0,4.0,,,,,,,,,green,square
0.0,1.0,1.0,0.0,5.0,5.0,522.5861409999197,7.0,1.0,phase_2,go,1050.0,1050.0,1.0,,,,,,,,,blue,hexagon
0.0,4.0,4.0,0.0,6.0,6.0,450.7985969994479,7.0,1.0,phase_2,go,1050.0,1050.0,1.0,,,,,,,,,white,cross
0.0,5.0,1.0,1.0,6.0,0.0,0.0,7.0,1.0,phase_2,stop,1050.0,1050.0,4.0,,,,,,,,,orange,I
0.0,5.0,1.0,1.0,5.0,5.0,856.0465040000054,7.0,1.0,phase_2,stop,1050.0,1100.0,3.0,,,,,,,,,orange,I
0.0,4.0,4.0,0.0,6.0,6.0,449.4242549999399,7.0,1.0,phase_2,go,1000.0,1100.0,1.0,,,,,,,,,white,cross
0.0,7.0,3.0,1.0,6.0,0.0,0.0,7.0,1.0,phase_2,stop,1000.0,1100.0,4.0,,,,,,,,,cyan,flipped triangle
0.0,8.0,4.0,1.0,5.0,0.0,0.0,7.0,1.0,phase_2,stop,1000.0,1150.0,4.0,,,,,,,,,yellow,diamond
0.0,3.0,3.0,0.0,6.0,6.0,463.0021380007747,7.0,1.0,phase_2,go,1050.0,1150.0,1.0,,,,,,,,,magenta,circle
0.0,5.0,1.0,1.0,5.0,0.0,0.0,7.0,1.0,phase_2,stop,1050.0,1150.0,4.0,,,,,,,,,orange,I
0.0,5.0,1.0,1.0,6.0,0.0,0.0,7.0,1.0,phase_2,go,1100.0,1150.0,5.0,,,,,,,,,orange,I
0.0,2.0,2.0,0.0,6.0,6.0,523.7663139996585,7.0,1.0,phase_2,go,1100.0,1150.0,1.0,,,,,,,,,gray,triangle
0.0,7.0,3.0,1.0,5.0,5.0,1299.83669000012,7.0,1.0,phase_2,go,1100.0,1150.0,1.0,,,,,,,,,cyan,flipped triangle
0.0,5.0,1.0,1.0,5.0,5.0,1124.72322099984,7.0,1.0,phase_2,stop,1100.0,1150.0,3.0,,,,,,,,,orange,I
0.0,2.0,2.0,0.0,6.0,6.0,466.9588570004634,8.0,1.0,phase_2,go,1050.0,1150.0,1.0,,,,,,,,,gray,triangle
0.0,8.0,4.0,1.0,5.0,5.0,1116.892901999563,8.0,1.0,phase_2,stop,1050.0,1150.0,3.0,,,,,,,,,yellow,diamond
0.0,8.0,4.0,1.0,5.0,0.0,0.0,8.0,1.0,phase_2,stop,1000.0,1150.0,4.0,,,,,,,,,yellow,diamond
0.0,1.0,1.0,0.0,6.0,6.0,499.3516230006207,8.0,1.0,phase_2,go,1050.0,1150.0,1.0,,,,,,,,,blue,hexagon
0.0,7.0,3.0,1.0,6.0,6.0,359.595110000555,8.0,1.0,phase_2,stop,1050.0,1150.0,3.0,,,,,,,,,cyan,flipped triangle
0.0,8.0,4.0,1.0,5.0,5.0,1193.1246210006066,8.0,1.0,phase_2,stop,1050.0,1100.0,3.0,,,,,,,,,yellow,diamond
0.0,1.0,1.0,0.0,5.0,5.0,537.3649849998401,8.0,1.0,phase_2,go,1000.0,1100.0,1.0,,,,,,,,,blue,hexagon
0.0,4.0,4.0,0.0,6.0,6.0,422.8353469998183,8.0,1.0,phase_2,go,1000.0,1100.0,1.0,,,,,,,,,white,cross
0.0,3.0,3.0,0.0,5.0,5.0,501.3813730001857,8.0,1.0,phase_2,go,1000.0,1100.0,1.0,,,,,,,,,magenta,circle
0.0,6.0,2.0,1.0,5.0,0.0,0.0,8.0,1.0,phase_2,stop,1000.0,1100.0,4.0,,,,,,,,,green,square
0.0,5.0,1.0,1.0,5.0,0.0,0.0,8.0,1.0,phase_2,stop,1050.0,1100.0,4.0,,,,,,,,,orange,I
0.0,4.0,4.0,0.0,6.0,6.0,422.0694490004462,8.0,1.0,phase_2,go,1100.0,1100.0,1.0,,,,,,,,,white,cross
0.0,5.0,1.0,1.0,5.0,5.0,1003.7559459997285,8.0,1.0,phase_2,go,1100.0,1100.0,1.0,,,,,,,,,orange,I
0.0,6.0,2.0,1.0,5.0,0.0,0.0,8.0,1.0,phase_2,go,1100.0,1100.0,5.0,,,,,,,,,green,square
0.0,7.0,3.0,1.0,6.0,6.0,404.2913359999147,8.0,1.0,phase_2,stop,1100.0,1100.0,3.0,,,,,,,,,cyan,flipped triangle
0.0,3.0,3.0,0.0,5.0,5.0,474.6640969997315,8.0,1.0,phase_2,go,1100.0,1050.0,1.0,,,,,,,,,magenta,circle
0.0,6.0,2.0,1.0,6.0,0.0,0.0,8.0,1.0,phase_2,stop,1100.0,1050.0,4.0,,,,,,,,,green,square
0.0,1.0,1.0,0.0,5.0,5.0,489.6285589993567,8.0,1.0,phase_2,go,1100.0,1100.0,1.0,,,,,,,,,blue,hexagon
0.0,4.0,4.0,0.0,5.0,5.0,374.9898420001045,8.0,1.0,phase_2,go,1100.0,1100.0,1.0,,,,,,,,,white,cross
0.0,7.0,3.0,1.0,6.0,0.0,0.0,8.0,1.0,phase_2,stop,1100.0,1100.0,4.0,,,,,,,,,cyan,flipped triangle
0.0,1.0,1.0,0.0,5.0,5.0,446.5123350000795,8.0,1.0,phase_2,go,1100.0,1150.0,1.0,,,,,,,,,blue,hexagon
0.0,8.0,4.0,1.0,5.0,5.0,1343.7421160006124,8.0,1.0,phase_2,go,1100.0,1150.0,1.0,,,,,,,,,yellow,diamond
0.0,5.0,1.0,1.0,5.0,5.0,671.3819249998778,8.0,1.0,phase_2,stop,1100.0,1150.0,3.0,,,,,,,,,orange,I
0.0,6.0,2.0,1.0,6.0,6.0,325.0692629999321,8.0,1.0,phase_2,stop,1050.0,1150.0,3.0,,,,,,,,,green,square
0.0,8.0,4.0,1.0,5.0,0.0,0.0,8.0,1.0,phase_2,stop,1050.0,1100.0,4.0,,,,,,,,,yellow,diamond
0.0,5.0,1.0,1.0,6.0,0.0,0.0,8.0,1.0,phase_2,go,1100.0,1100.0,5.0,,,,,,,,,orange,I
0.0,2.0,2.0,0.0,5.0,5.0,483.1150790005267,8.0,1.0,phase_2,go,1100.0,1100.0,1.0,,,,,,,,,gray,triangle
0.0,1.0,1.0,0.0,5.0,5.0,497.6048770004126,8.0,1.0,phase_2,go,1100.0,1100.0,1.0,,,,,,,,,blue,hexagon
0.0,4.0,4.0,0.0,5.0,5.0,353.9101710002796,8.0,1.0,phase_2,go,1100.0,1100.0,1.0,,,,,,,,,white,cross
0.0,3.0,3.0,0.0,5.0,5.0,329.9131829999169,8.0,1.0,phase_2,go,1100.0,1100.0,1.0,,,,,,,,,magenta,circle
0.0,5.0,1.0,1.0,6.0,6.0,1049.1859550002118,8.0,1.0,phase_2,go,1100.0,1100.0,1.0,,,,,,,,,orange,I
0.0,3.0,3.0,0.0,5.0,5.0,440.5823329998384,8.0,1.0,phase_2,go,1100.0,1100.0,1.0,,,,,,,,,magenta,circle
0.0,1.0,1.0,0.0,5.0,5.0,312.5423600004069,8.0,1.0,phase_2,go,1100.0,1100.0,1.0,,,,,,,,,blue,hexagon
0.0,5.0,1.0,1.0,6.0,6.0,976.5116079997824,8.0,1.0,phase_2,stop,1100.0,1100.0,3.0,,,,,,,,,orange,I
0.0,8.0,4.0,1.0,6.0,6.0,549.1878319999159,8.0,1.0,phase_2,stop,1100.0,1050.0,3.0,,,,,,,,,yellow,diamond
0.0,4.0,4.0,0.0,5.0,5.0,335.3498380001838,8.0,1.0,phase_2,go,1100.0,1000.0,1.0,,,,,,,,,white,cross
0.0,4.0,4.0,0.0,7.0,1.0,2657.1690889995807,1.0,1.0,phase_3,,,,,768.0,4.0,768.0,192.0,960.0,384.0,576.0,1152.0,white,cross
0.0,6.0,2.0,1.0,7.0,4.0,1679.7027430002345,1.0,1.0,phase_3,,,,,116.0,1.0,232.0,696.0,348.0,116.0,464.0,580.0,green,square
0.0,3.0,3.0,0.0,7.0,6.0,3200.9275410000555,1.0,1.0,phase_3,,,,,462.0,3.0,616.0,154.0,924.0,308.0,770.0,462.0,magenta,circle
0.0,2.0,2.0,0.0,7.0,6.0,1891.35476499996,1.0,1.0,phase_3,,,,,675.0,5.0,540.0,135.0,405.0,810.0,270.0,675.0,gray,triangle
0.0,3.0,3.0,0.0,7.0,2.0,1980.8514349997492,1.0,1.0,phase_3,,,,,346.0,2.0,173.0,346.0,865.0,692.0,519.0,1038.0,magenta,circle
0.0,8.0,4.0,1.0,7.0,5.0,1751.624137000363,1.0,1.0,phase_3,,,,,768.0,4.0,1152.0,960.0,384.0,192.0,768.0,576.0,yellow,diamond
0.0,2.0,2.0,0.0,7.0,4.0,1345.1131219999295,1.0,1.0,phase_3,,,,,675.0,5.0,270.0,810.0,405.0,675.0,135.0,540.0,gray,triangle
0.0,6.0,2.0,1.0,7.0,3.0,1377.1039029998065,1.0,1.0,phase_3,,,,,346.0,2.0,1038.0,692.0,346.0,173.0,865.0,519.0,green,square
0.0,1.0,1.0,0.0,7.0,5.0,1137.4019019995103,1.0,1.0,phase_3,,,,,519.0,3.0,346.0,173.0,692.0,1038.0,519.0,865.0,blue,hexagon
0.0,3.0,3.0,0.0,7.0,4.0,1347.4595090001458,1.0,1.0,phase_3,,,,,308.0,2.0,154.0,462.0,616.0,308.0,924.0,770.0,magenta,circle
0.0,8.0,4.0,1.0,7.0,3.0,1139.5784779997484,1.0,1.0,phase_3,,,,,519.0,3.0,1038.0,346.0,519.0,692.0,173.0,865.0,yellow,diamond
0.0,2.0,2.0,0.0,7.0,4.0,967.3066330005896,1.0,1.0,phase_3,,,,,519.0,3.0,346.0,865.0,173.0,519.0,1038.0,692.0,gray,triangle
0.0,8.0,4.0,1.0,7.0,4.0,574.4420189994344,1.0,1.0,phase_3,,,,,580.0,5.0,696.0,348.0,116.0,580.0,232.0,464.0,yellow,diamond
0.0,5.0,1.0,1.0,7.0,3.0,983.3613330001754,1.0,1.0,phase_3,,,,,308.0,2.0,924.0,770.0,308.0,462.0,154.0,616.0,orange,I
0.0,8.0,4.0,1.0,7.0,4.0,937.0944820002478,1.0,1.0,phase_3,,,,,270.0,2.0,405.0,675.0,540.0,270.0,810.0,135.0,yellow,diamond
0.0,2.0,2.0,0.0,7.0,5.0,1258.6619000003338,1.0,1.0,phase_3,,,,,464.0,4.0,348.0,232.0,696.0,580.0,464.0,116.0,gray,triangle
0.0,5.0,1.0,1.0,7.0,5.0,1605.7301000000734,1.0,1.0,phase_3,,,,,384.0,2.0,1152.0,576.0,960.0,192.0,384.0,768.0,orange,I
0.0,8.0,4.0,1.0,7.0,4.0,1150.8599940007116,1.0,1.0,phase_3,,,,,116.0,1.0,348.0,696.0,580.0,116.0,232.0,464.0,yellow,diamond
0.0,6.0,2.0,1.0,7.0,3.0,1303.067734999786,1.0,1.0,phase_3,,,,,692.0,4.0,1038.0,173.0,692.0,346.0,519.0,865.0,green,square
0.0,3.0,3.0,0.0,7.0,5.0,1319.5045299999038,1.0,1.0,phase_3,,,,,464.0,4.0,348.0,232.0,696.0,116.0,464.0,580.0,magenta,circle
0.0,2.0,2.0,0.0,7.0,4.0,1078.226536999864,2.0,1.0,phase_3,,,,,580.0,5.0,348.0,464.0,232.0,580.0,116.0,696.0,gray,triangle
0.0,7.0,3.0,1.0,7.0,3.0,991.3903320002646,2.0,1.0,phase_3,,,,,462.0,3.0,154.0,616.0,462.0,308.0,770.0,924.0,cyan,flipped triangle
0.0,1.0,1.0,0.0,7.0,4.0,870.1942269999563,2.0,1.0,phase_3,,,,,384.0,2.0,768.0,1152.0,576.0,384.0,192.0,960.0,blue,hexagon
0.0,5.0,1.0,1.0,7.0,4.0,791.6086810000706,2.0,1.0,phase_3,,,,,308.0,2.0,616.0,154.0,924.0,308.0,462.0,770.0,orange,I
0.0,7.0,3.0,1.0,7.0,4.0,785.1561239995135,2.0,1.0,phase_3,,,,,405.0,3.0,540.0,810.0,135.0,405.0,675.0,270.0,cyan,flipped triangle
0.0,5.0,1.0,1.0,7.0,2.0,4066.877003000627,2.0,1.0,phase_3,,,,,346.0,2.0,692.0,346.0,519.0,173.0,865.0,1038.0,orange,I
0.0,4.0,4.0,0.0,7.0,2.0,4128.542870999809,2.0,1.0,phase_3,,,,,464.0,4.0,348.0,464.0,232.0,580.0,696.0,116.0,white,cross
0.0,7.0,3.0,1.0,7.0,4.0,1120.1442629999292,2.0,1.0,phase_3,,,,,464.0,4.0,116.0,580.0,348.0,464.0,232.0,696.0,cyan,flipped triangle
0.0,7.0,3.0,1.0,7.0,6.0,2401.284246000614,2.0,1.0,phase_3,,,,,576.0,3.0,192.0,768.0,1152.0,960.0,384.0,576.0,cyan,flipped triangle
0.0,2.0,2.0,0.0,7.0,4.0,780.9786480002003,2.0,1.0,phase_3,,,,,462.0,3.0,308.0,924.0,154.0,462.0,616.0,770.0,gray,triangle
0.0,5.0,1.0,1.0,7.0,6.0,1589.7681180003929,2.0,1.0,phase_3,,,,,405.0,3.0,810.0,675.0,540.0,135.0,270.0,405.0,orange,I
0.0,6.0,2.0,1.0,7.0,4.0,956.6272530000788,2.0,1.0,phase_3,,,,,576.0,3.0,384.0,192.0,768.0,576.0,960.0,1152.0,green,square
0.0,4.0,4.0,0.0,7.0,4.0,726.6972699999315,2.0,1.0,phase_3,,,,,675.0,5.0,135.0,540.0,270.0,675.0,810.0,405.0,white,cross
0.0,7.0,3.0,1.0,7.0,3.0,1447.7830020005058,2.0,1.0,phase_3,,,,,464.0,4.0,696.0,580.0,464.0,348.0,232.0,116.0,cyan,flipped triangle
0.0,2.0,2.0,0.0,7.0,4.0,2409.929237999677,2.0,1.0,phase_3,,,,,576.0,3.0,960.0,768.0,1152.0,576.0,384.0,192.0,gray,triangle
0.0,6.0,2.0,1.0,7.0,3.0,1043.8445219997448,2.0,1.0,phase_3,,,,,270.0,2.0,675.0,405.0,270.0,135.0,810.0,540.0,green,square
0.0,1.0,1.0,0.0,7.0,4.0,819.9039700002686,2.0,1.0,phase_3,,,,,405.0,3.0,270.0,540.0,675.0,405.0,810.0,135.0,blue,hexagon
0.0,1.0,1.0,0.0,7.0,6.0,1044.1710300001432,2.0,1.0,phase_3,,,,,346.0,2.0,692.0,865.0,519.0,173.0,1038.0,346.0,blue,hexagon
0.0,6.0,2.0,1.0,7.0,2.0,1504.1077539999606,2.0,1.0,phase_3,,,,,616.0,4.0,308.0,616.0,462.0,924.0,154.0,770.0,green,square
0.0,1.0,1.0,0.0,7.0,5.0,2407.3313250000865,2.0,1.0,phase_3,,,,,576.0,3.0,384.0,768.0,192.0,960.0,576.0,1152.0,blue,hexagon
0.0,1.0,1.0,0.0,7.0,4.0,904.8374900003182,3.0,1.0,phase_3,,,,,462.0,3.0,770.0,308.0,616.0,462.0,924.0,154.0,blue,hexagon
0.0,6.0,2.0,1.0,7.0,2.0,2532.697603000088,3.0,1.0,phase_3,,,,,384.0,2.0,576.0,384.0,768.0,960.0,192.0,1152.0,green,square
0.0,4.0,4.0,0.0,7.0,4.0,907.585349999863,3.0,1.0,phase_3,,,,,462.0,3.0,616.0,770.0,308.0,462.0,924.0,154.0,white,cross
0.0,8.0,4.0,1.0,7.0,2.0,2471.332138999969,3.0,1.0,phase_3,,,,,462.0,3.0,924.0,462.0,616.0,154.0,770.0,308.0,yellow,diamond
0.0,4.0,4.0,0.0,7.0,4.0,933.2872420000058,3.0,1.0,phase_3,,,,,462.0,3.0,616.0,770.0,154.0,462.0,308.0,924.0,white,cross
0.0,1.0,1.0,0.0,7.0,3.0,1614.7201269996003,3.0,1.0,phase_3,,,,,464.0,4.0,580.0,348.0,464.0,696.0,232.0,116.0,blue,hexagon
0.0,8.0,4.0,1.0,7.0,1.0,2177.239069999814,3.0,1.0,phase_3,,,,,540.0,4.0,540.0,675.0,270.0,135.0,810.0,405.0,yellow,diamond
0.0,3.0,3.0,0.0,7.0,1.0,2211.479555000551,3.0,1.0,phase_3,,,,,576.0,3.0,576.0,960.0,192.0,768.0,384.0,1152.0,magenta,circle
0.0,5.0,1.0,1.0,7.0,1.0,1978.604961000201,3.0,1.0,phase_3,,,,,692.0,4.0,692.0,346.0,173.0,1038.0,519.0,865.0,orange,I
0.0,8.0,4.0,1.0,7.0,4.0,692.3050320001494,3.0,1.0,phase_3,,,,,519.0,3.0,346.0,865.0,692.0,519.0,1038.0,173.0,yellow,diamond
0.0,5.0,1.0,1.0,7.0,2.0,1972.8213200005484,3.0,1.0,phase_3,,,,,384.0,2.0,576.0,384.0,192.0,960.0,1152.0,768.0,orange,I
0.0,7.0,3.0,1.0,7.0,3.0,2343.743110000105,3.0,1.0,phase_3,,,,,519.0,3.0,346.0,692.0,519.0,173.0,1038.0,865.0,cyan,flipped triangle
0.0,7.0,3.0,1.0,7.0,3.0,1575.613359000272,3.0,1.0,phase_3,,,,,675.0,5.0,135.0,540.0,675.0,810.0,270.0,405.0,cyan,flipped triangle
0.0,3.0,3.0,0.0,7.0,5.0,1705.219059999763,3.0,1.0,phase_3,,,,,576.0,3.0,192.0,960.0,1152.0,768.0,576.0,384.0,magenta,circle
0.0,8.0,4.0,1.0,7.0,4.0,1148.1833790003293,3.0,1.0,phase_3,,,,,308.0,2.0,616.0,154.0,462.0,308.0,770.0,924.0,yellow,diamond
0.0,2.0,2.0,0.0,7.0,4.0,876.6716620002626,3.0,1.0,phase_3,,,,,519.0,3.0,1038.0,865.0,173.0,519.0,346.0,692.0,gray,triangle
0.0,5.0,1.0,1.0,7.0,4.0,1813.8755159998252,3.0,1.0,phase_3,,,,,405.0,3.0,675.0,540.0,810.0,405.0,135.0,270.0,orange,I
0.0,4.0,4.0,0.0,7.0,6.0,3021.735399000136,3.0,1.0,phase_3,,,,,576.0,3.0,960.0,384.0,1152.0,192.0,768.0,576.0,white,cross
0.0,7.0,3.0,1.0,7.0,3.0,3224.8950909997798,3.0,1.0,phase_3,,,,,519.0,3.0,1038.0,346.0,519.0,692.0,173.0,865.0,cyan,flipped triangle
0.0,6.0,2.0,1.0,7.0,2.0,2290.0530610004357,3.0,1.0,phase_3,,,,,580.0,5.0,464.0,580.0,232.0,116.0,696.0,348.0,green,square
0.0,2.0,2.0,0.0,7.0,4.0,1298.428189000333,4.0,1.0,phase_3,,,,,462.0,3.0,924.0,308.0,770.0,462.0,154.0,616.0,gray,triangle
0.0,6.0,2.0,1.0,7.0,1.0,2011.20614499996,4.0,1.0,phase_3,,,,,405.0,3.0,405.0,540.0,675.0,270.0,135.0,810.0,green,square
0.0,5.0,1.0,1.0,7.0,5.0,2005.541006000385,4.0,1.0,phase_3,,,,,464.0,4.0,348.0,232.0,696.0,580.0,464.0,116.0,orange,I
0.0,4.0,4.0,0.0,7.0,6.0,1677.5129800007562,4.0,1.0,phase_3,,,,,540.0,4.0,405.0,810.0,270.0,135.0,675.0,540.0,white,cross
0.0,3.0,3.0,0.0,7.0,1.0,2558.385016000102,4.0,1.0,phase_3,,,,,405.0,3.0,405.0,135.0,810.0,540.0,675.0,270.0,magenta,circle
0.0,7.0,3.0,1.0,7.0,3.0,2874.754581999696,4.0,1.0,phase_3,,,,,384.0,2.0,1152.0,768.0,384.0,192.0,576.0,960.0,cyan,flipped triangle
0.0,3.0,3.0,0.0,7.0,3.0,2155.1918530003604,4.0,1.0,phase_3,,,,,519.0,3.0,692.0,865.0,519.0,173.0,1038.0,346.0,magenta,circle
0.0,3.0,3.0,0.0,7.0,1.0,2307.2307969996477,4.0,1.0,phase_3,,,,,464.0,4.0,464.0,232.0,580.0,116.0,696.0,348.0,magenta,circle
0.0,6.0,2.0,1.0,7.0,6.0,2894.574136999836,4.0,1.0,phase_3,,,,,462.0,3.0,770.0,308.0,616.0,154.0,924.0,462.0,green,square
0.0,1.0,1.0,0.0,7.0,6.0,1989.4669640007123,4.0,1.0,phase_3,,,,,464.0,4.0,696.0,232.0,116.0,580.0,348.0,464.0,blue,hexagon
0.0,7.0,3.0,1.0,7.0,6.0,3270.718269999634,4.0,1.0,phase_3,,,,,462.0,3.0,924.0,154.0,308.0,616.0,770.0,462.0,cyan,flipped triangle
0.0,5.0,1.0,1.0,7.0,6.0,1689.3823769996743,4.0,1.0,phase_3,,,,,464.0,4.0,116.0,348.0,696.0,580.0,232.0,464.0,orange,I
0.0,1.0,1.0,0.0,7.0,6.0,1571.9552480004495,4.0,1.0,phase_3,,,,,405.0,3.0,810.0,270.0,675.0,540.0,135.0,405.0,blue,hexagon
0.0,1.0,1.0,0.0,7.0,5.0,1845.01998199994,4.0,1.0,phase_3,,,,,462.0,3.0,616.0,770.0,924.0,308.0,462.0,154.0,blue,hexagon
0.0,8.0,4.0,1.0,7.0,3.0,3715.335576000143,4.0,1.0,phase_3,,,,,576.0,3.0,960.0,192.0,576.0,1152.0,384.0,768.0,yellow,diamond
0.0,4.0,4.0,0.0,7.0,4.0,1574.9325430006138,4.0,1.0,phase_3,,,,,464.0,4.0,580.0,232.0,348.0,464.0,696.0,116.0,white,cross
0.0,2.0,2.0,0.0,7.0,5.0,2255.534080999496,4.0,1.0,phase_3,,,,,576.0,3.0,768.0,1152.0,192.0,960.0,576.0,384.0,gray,triangle
0.0,3.0,3.0,0.0,7.0,4.0,2513.701154000046,4.0,1.0,phase_3,,,,,405.0,3.0,135.0,810.0,540.0,405.0,675.0,270.0,magenta,circle
0.0,4.0,4.0,0.0,7.0,4.0,2842.2674029998234,4.0,1.0,phase_3,,,,,519.0,3.0,865.0,346.0,692.0,519.0,173.0,1038.0,white,cross
0.0,4.0,4.0,0.0,7.0,2.0,1626.0284170002706,4.0,1.0,phase_3,,,,,519.0,3.0,692.0,519.0,1038.0,346.0,173.0,865.0,white,cross
