raw_reward_magnitude,stim_reward,stepwise_reward_magnitude,paired_with_stopping,stim_location,response,reaction_time,block,num_trial_presentations,which_phase,stop_signal_trial_type,left_SSD,right_SSD,accuracy,chosen_bidding_amount,chosen_bidding_level,possible_bid_1,possible_bid_2,possible_bid_3,possible_bid_4,possible_bid_5,possible_bid_6,color_text,shape_text
0.0,3.0,0.0,0.0,2.0,2.0,452.7471250000872,1.0,1.0,phase_1,,,,,,,,,,,,,blue,square
0.0,3.0,0.0,0.0,2.0,2.0,519.8652670001138,1.0,1.0,phase_1,,,,,,,,,,,,,blue,square
184.0,5.0,1.0,1.0,2.0,2.0,517.7069859998937,1.0,1.0,phase_1,,,,,,,,,,,,,magenta,flipped triangle
647.0,3.0,3.0,0.0,2.0,2.0,347.5307100000009,1.0,1.0,phase_1,,,,,,,,,,,,,blue,square
175.0,5.0,1.0,1.0,1.0,1.0,389.6847179998985,1.0,1.0,phase_1,,,,,,,,,,,,,magenta,flipped triangle
1288.0,4.0,4.0,0.0,3.0,3.0,649.7998180000195,1.0,2.0,phase_1,,,,,,,,,,,,,green,diamond
0.0,3.0,0.0,0.0,3.0,3.0,422.2193189998506,1.0,1.0,phase_1,,,,,,,,,,,,,blue,square
319.0,2.0,2.0,0.0,2.0,2.0,513.2539759999872,1.0,1.0,phase_1,,,,,,,,,,,,,cyan,cross
144.0,5.0,1.0,1.0,4.0,4.0,388.7349690000974,1.0,1.0,phase_1,,,,,,,,,,,,,magenta,flipped triangle
639.0,7.0,3.0,1.0,4.0,4.0,395.3620820000196,1.0,1.0,phase_1,,,,,,,,,,,,,yellow,circle
158.0,5.0,1.0,1.0,2.0,2.0,383.7586629999805,1.0,1.0,phase_1,,,,,,,,,,,,,magenta,flipped triangle
1280.0,4.0,4.0,0.0,4.0,4.0,357.5246689999858,1.0,1.0,phase_1,,,,,,,,,,,,,green,diamond
150.0,1.0,1.0,0.0,2.0,2.0,561.9425249999495,1.0,1.0,phase_1,,,,,,,,,,,,,gray,hexagon
0.0,8.0,0.0,1.0,2.0,2.0,534.4032100001641,1.0,1.0,phase_1,,,,,,,,,,,,,white,I
0.0,6.0,0.0,1.0,1.0,1.0,707.3925309998685,1.0,1.0,phase_1,,,,,,,,,,,,,orange,triangle
0.0,3.0,0.0,0.0,1.0,1.0,510.0689410000996,1.0,1.0,phase_1,,,,,,,,,,,,,blue,square
0.0,5.0,0.0,1.0,1.0,1.0,319.5854760001566,1.0,2.0,phase_1,,,,,,,,,,,,,magenta,flipped triangle
322.0,6.0,2.0,1.0,2.0,2.0,317.7900469997894,1.0,1.0,phase_1,,,,,,,,,,,,,orange,triangle
1313.0,8.0,4.0,1.0,2.0,2.0,409.5333650000157,1.0,1.0,phase_1,,,,,,,,,,,,,white,I
0.0,4.0,0.0,0.0,4.0,4.0,358.6684659999264,1.0,1.0,phase_1,,,,,,,,,,,,,green,diamond
629.0,7.0,3.0,1.0,2.0,2.0,273.4473350001281,1.0,1.0,phase_1,,,,,,,,,,,,,yellow,circle
328.0,6.0,2.0,1.0,3.0,3.0,414.0763540001444,1.0,1.0,phase_1,,,,,,,,,,,,,orange,triangle
150.0,5.0,1.0,1.0,4.0,4.0,356.9857279999269,1.0,1.0,phase_1,,,,,,,,,,,,,magenta,flipped triangle
183.0,5.0,1.0,1.0,4.0,4.0,425.695707999921,1.0,1.0,phase_1,,,,,,,,,,,,,magenta,flipped triangle
154.0,1.0,1.0,0.0,3.0,3.0,557.7837340001679,1.0,1.0,phase_1,,,,,,,,,,,,,gray,hexagon
0.0,7.0,0.0,1.0,3.0,3.0,282.706712999925,1.0,1.0,phase_1,,,,,,,,,,,,,yellow,circle
0.0,8.0,0.0,1.0,4.0,4.0,318.7287570001444,1.0,1.0,phase_1,,,,,,,,,,,,,white,I
308.0,6.0,2.0,1.0,1.0,1.0,385.396677000017,1.0,1.0,phase_1,,,,,,,,,,,,,orange,triangle
0.0,8.0,0.0,1.0,2.0,2.0,498.0714739999712,1.0,2.0,phase_1,,,,,,,,,,,,,white,I
140.0,1.0,1.0,0.0,3.0,3.0,416.2501499999962,1.0,1.0,phase_1,,,,,,,,,,,,,gray,hexagon
1283.0,4.0,4.0,0.0,1.0,1.0,318.2595569999193,1.0,1.0,phase_1,,,,,,,,,,,,,green,diamond
1300.0,4.0,4.0,0.0,2.0,2.0,518.9199490000647,1.0,2.0,phase_1,,,,,,,,,,,,,green,diamond
662.0,7.0,3.0,1.0,2.0,2.0,521.4888980001433,1.0,1.0,phase_1,,,,,,,,,,,,,yellow,circle
0.0,7.0,0.0,1.0,3.0,3.0,358.9499219999652,1.0,1.0,phase_1,,,,,,,,,,,,,yellow,circle
333.0,2.0,2.0,0.0,2.0,2.0,587.2272980000162,1.0,1.0,phase_1,,,,,,,,,,,,,cyan,cross
662.0,7.0,3.0,1.0,3.0,3.0,391.9660169999588,1.0,1.0,phase_1,,,,,,,,,,,,,yellow,circle
1276.0,8.0,4.0,1.0,1.0,1.0,540.3079220000109,1.0,1.0,phase_1,,,,,,,,,,,,,white,I
302.0,6.0,2.0,1.0,1.0,1.0,410.0779099999272,1.0,1.0,phase_1,,,,,,,,,,,,,orange,triangle
334.0,6.0,2.0,1.0,4.0,4.0,391.7760450001424,1.0,1.0,phase_1,,,,,,,,,,,,,orange,triangle
184.0,5.0,1.0,1.0,3.0,3.0,402.8451300000597,1.0,1.0,phase_1,,,,,,,,,,,,,magenta,flipped triangle
144.0,1.0,1.0,0.0,2.0,2.0,595.2904109999508,1.0,2.0,phase_1,,,,,,,,,,,,,gray,hexagon
319.0,6.0,2.0,1.0,2.0,2.0,480.4037820001667,1.0,1.0,phase_1,,,,,,,,,,,,,orange,triangle
303.0,6.0,2.0,1.0,2.0,2.0,396.9425020000017,1.0,1.0,phase_1,,,,,,,,,,,,,orange,triangle
144.0,1.0,1.0,0.0,3.0,3.0,450.3391099999589,1.0,1.0,phase_1,,,,,,,,,,,,,gray,hexagon
1320.0,4.0,4.0,0.0,1.0,1.0,421.8100659998072,1.0,1.0,phase_1,,,,,,,,,,,,,green,diamond
1313.0,4.0,4.0,0.0,3.0,3.0,578.3393300000625,1.0,1.0,phase_1,,,,,,,,,,,,,green,diamond
656.0,3.0,3.0,0.0,1.0,1.0,481.5704279999409,1.0,1.0,phase_1,,,,,,,,,,,,,blue,square
328.0,2.0,2.0,0.0,3.0,3.0,389.7806859999946,1.0,1.0,phase_1,,,,,,,,,,,,,cyan,cross
655.0,7.0,3.0,1.0,3.0,3.0,410.5127299999367,1.0,1.0,phase_1,,,,,,,,,,,,,yellow,circle
336.0,6.0,2.0,1.0,4.0,4.0,423.0879239999012,1.0,1.0,phase_1,,,,,,,,,,,,,orange,triangle
672.0,7.0,3.0,1.0,2.0,2.0,536.7151620000641,1.0,1.0,phase_1,,,,,,,,,,,,,yellow,circle
340.0,2.0,2.0,0.0,4.0,4.0,398.0149410001559,1.0,1.0,phase_1,,,,,,,,,,,,,cyan,cross
162.0,1.0,1.0,0.0,1.0,1.0,362.0535109998855,1.0,1.0,phase_1,,,,,,,,,,,,,gray,hexagon
1292.0,8.0,4.0,1.0,3.0,3.0,439.0695300000971,1.0,1.0,phase_1,,,,,,,,,,,,,white,I
339.0,6.0,2.0,1.0,1.0,1.0,483.5907520000546,1.0,1.0,phase_1,,,,,,,,,,,,,orange,triangle
0.0,3.0,0.0,0.0,2.0,2.0,577.5794969999879,1.0,1.0,phase_1,,,,,,,,,,,,,blue,square
1306.0,4.0,4.0,0.0,3.0,3.0,591.4823820000947,1.0,1.0,phase_1,,,,,,,,,,,,,green,diamond
0.0,2.0,0.0,0.0,4.0,4.0,457.2677569999541,1.0,1.0,phase_1,,,,,,,,,,,,,cyan,cross
142.0,5.0,1.0,1.0,3.0,3.0,374.1332120000606,1.0,1.0,phase_1,,,,,,,,,,,,,magenta,flipped triangle
0.0,5.0,0.0,1.0,2.0,2.0,450.8290169999327,1.0,1.0,phase_1,,,,,,,,,,,,,magenta,flipped triangle
150.0,1.0,1.0,0.0,2.0,2.0,456.66183000003,1.0,1.0,phase_1,,,,,,,,,,,,,gray,hexagon
1304.0,8.0,4.0,1.0,1.0,1.0,492.2172640001463,1.0,1.0,phase_1,,,,,,,,,,,,,white,I
1309.0,4.0,4.0,0.0,2.0,2.0,440.8273079998253,1.0,1.0,phase_1,,,,,,,,,,,,,green,diamond
159.0,5.0,1.0,1.0,4.0,4.0,340.8242830000745,1.0,1.0,phase_1,,,,,,,,,,,,,magenta,flipped triangle
652.0,3.0,3.0,0.0,4.0,4.0,356.5444180001123,1.0,1.0,phase_1,,,,,,,,,,,,,blue,square
321.0,6.0,2.0,1.0,4.0,4.0,358.6870139999973,1.0,1.0,phase_1,,,,,,,,,,,,,orange,triangle
642.0,7.0,3.0,1.0,3.0,3.0,402.829949000079,1.0,1.0,phase_1,,,,,,,,,,,,,yellow,circle
646.0,3.0,3.0,0.0,3.0,3.0,415.5778770000324,1.0,1.0,phase_1,,,,,,,,,,,,,blue,square
653.0,3.0,3.0,0.0,3.0,3.0,323.8749319998533,1.0,1.0,phase_1,,,,,,,,,,,,,blue,square
640.0,7.0,3.0,1.0,4.0,4.0,394.3649519999326,1.0,1.0,phase_1,,,,,,,,,,,,,yellow,circle
629.0,7.0,3.0,1.0,3.0,3.0,368.5120719999304,1.0,1.0,phase_1,,,,,,,,,,,,,yellow,circle
329.0,6.0,2.0,1.0,2.0,2.0,507.8057709999939,1.0,1.0,phase_1,,,,,,,,,,,,,orange,triangle
633.0,7.0,3.0,1.0,4.0,4.0,377.5362549999954,1.0,1.0,phase_1,,,,,,,,,,,,,yellow,circle
1298.0,4.0,4.0,0.0,3.0,3.0,412.4915809998128,1.0,1.0,phase_1,,,,,,,,,,,,,green,diamond
139.0,1.0,1.0,0.0,4.0,4.0,376.834744000007,1.0,1.0,phase_1,,,,,,,,,,,,,gray,hexagon
161.0,1.0,1.0,0.0,2.0,2.0,462.727287000007,1.0,1.0,phase_1,,,,,,,,,,,,,gray,hexagon
340.0,6.0,2.0,1.0,3.0,3.0,370.9228479999638,1.0,1.0,phase_1,,,,,,,,,,,,,orange,triangle
167.0,5.0,1.0,1.0,3.0,3.0,349.9773810001443,1.0,1.0,phase_1,,,,,,,,,,,,,magenta,flipped triangle
320.0,6.0,2.0,1.0,2.0,2.0,413.1529849998969,1.0,1.0,phase_1,,,,,,,,,,,,,orange,triangle
1307.0,4.0,4.0,0.0,3.0,3.0,353.8910190000024,1.0,1.0,phase_1,,,,,,,,,,,,,green,diamond
0.0,4.0,0.0,0.0,4.0,4.0,371.1808939999628,1.0,1.0,phase_1,,,,,,,,,,,,,green,diamond
648.0,3.0,3.0,0.0,2.0,2.0,409.8408419999941,1.0,1.0,phase_1,,,,,,,,,,,,,blue,square
636.0,3.0,3.0,0.0,2.0,2.0,445.872725000072,1.0,1.0,phase_1,,,,,,,,,,,,,blue,square
308.0,2.0,2.0,0.0,4.0,4.0,352.9011020000325,1.0,1.0,phase_1,,,,,,,,,,,,,cyan,cross
1292.0,8.0,4.0,1.0,1.0,1.0,608.3171340001172,1.0,1.0,phase_1,,,,,,,,,,,,,white,I
1284.0,4.0,4.0,0.0,1.0,1.0,913.7279639999178,1.0,1.0,phase_1,,,,,,,,,,,,,green,diamond
642.0,3.0,3.0,0.0,3.0,3.0,495.4004520000126,1.0,1.0,phase_1,,,,,,,,,,,,,blue,square
0.0,7.0,0.0,1.0,1.0,1.0,609.4439529999818,1.0,2.0,phase_1,,,,,,,,,,,,,yellow,circle
0.0,7.0,0.0,1.0,4.0,4.0,612.8786080000737,1.0,1.0,phase_1,,,,,,,,,,,,,yellow,circle
0.0,6.0,0.0,1.0,4.0,4.0,442.8585729999668,1.0,1.0,phase_1,,,,,,,,,,,,,orange,triangle
1313.0,4.0,4.0,0.0,4.0,4.0,502.62382400001115,1.0,1.0,phase_1,,,,,,,,,,,,,green,diamond
669.0,3.0,3.0,0.0,1.0,1.0,532.8596340000331,1.0,1.0,phase_1,,,,,,,,,,,,,blue,square
653.0,7.0,3.0,1.0,3.0,3.0,425.6420229999094,1.0,1.0,phase_1,,,,,,,,,,,,,yellow,circle
142.0,1.0,1.0,0.0,2.0,2.0,572.0713570001408,1.0,1.0,phase_1,,,,,,,,,,,,,gray,hexagon
662.0,3.0,3.0,0.0,4.0,4.0,352.7909110000564,1.0,1.0,phase_1,,,,,,,,,,,,,blue,square
630.0,3.0,3.0,0.0,3.0,3.0,326.8912889998319,1.0,1.0,phase_1,,,,,,,,,,,,,blue,square
1306.0,4.0,4.0,0.0,4.0,4.0,419.0584550001404,1.0,1.0,phase_1,,,,,,,,,,,,,green,diamond
345.0,2.0,2.0,0.0,3.0,3.0,384.6291719999044,1.0,1.0,phase_1,,,,,,,,,,,,,cyan,cross
153.0,1.0,1.0,0.0,1.0,1.0,500.7217130000754,1.0,1.0,phase_1,,,,,,,,,,,,,gray,hexagon
642.0,7.0,3.0,1.0,2.0,2.0,496.2852189999012,1.0,1.0,phase_1,,,,,,,,,,,,,yellow,circle
147.0,5.0,1.0,1.0,2.0,2.0,757.1693429999868,2.0,1.0,phase_1,,,,,,,,,,,,,magenta,flipped triangle
185.0,5.0,1.0,1.0,3.0,3.0,594.0010159999929,2.0,1.0,phase_1,,,,,,,,,,,,,magenta,flipped triangle
0.0,2.0,0.0,0.0,4.0,4.0,424.6198649998405,2.0,1.0,phase_1,,,,,,,,,,,,,cyan,cross
152.0,5.0,1.0,1.0,1.0,1.0,531.6030519998094,2.0,1.0,phase_1,,,,,,,,,,,,,magenta,flipped triangle
654.0,3.0,3.0,0.0,3.0,3.0,495.4220740000892,2.0,1.0,phase_1,,,,,,,,,,,,,blue,square
156.0,1.0,1.0,0.0,3.0,3.0,494.0953559998888,2.0,1.0,phase_1,,,,,,,,,,,,,gray,hexagon
672.0,3.0,3.0,0.0,1.0,1.0,578.355307000038,2.0,1.0,phase_1,,,,,,,,,,,,,blue,square
160.0,5.0,1.0,1.0,2.0,2.0,525.0769259998833,2.0,1.0,phase_1,,,,,,,,,,,,,magenta,flipped triangle
0.0,1.0,0.0,0.0,2.0,2.0,434.7343720000935,2.0,1.0,phase_1,,,,,,,,,,,,,gray,hexagon
322.0,2.0,2.0,0.0,2.0,2.0,414.9947630000952,2.0,1.0,phase_1,,,,,,,,,,,,,cyan,cross
648.0,7.0,3.0,1.0,1.0,1.0,547.1775029998298,2.0,1.0,phase_1,,,,,,,,,,,,,yellow,circle
1303.0,4.0,4.0,0.0,1.0,1.0,553.4802540000783,2.0,1.0,phase_1,,,,,,,,,,,,,green,diamond
1291.0,4.0,4.0,0.0,1.0,1.0,379.4064409999009,2.0,1.0,phase_1,,,,,,,,,,,,,green,diamond
167.0,5.0,1.0,1.0,3.0,3.0,536.4835459999995,2.0,1.0,phase_1,,,,,,,,,,,,,magenta,flipped triangle
317.0,6.0,2.0,1.0,2.0,2.0,492.544523000106,2.0,1.0,phase_1,,,,,,,,,,,,,orange,triangle
670.0,3.0,3.0,0.0,4.0,4.0,713.7174469999081,2.0,1.0,phase_1,,,,,,,,,,,,,blue,square
658.0,7.0,3.0,1.0,4.0,4.0,480.7628929997918,2.0,1.0,phase_1,,,,,,,,,,,,,yellow,circle
646.0,7.0,3.0,1.0,2.0,2.0,466.913151999961,2.0,1.0,phase_1,,,,,,,,,,,,,yellow,circle
660.0,3.0,3.0,0.0,3.0,3.0,522.1851650001099,2.0,1.0,phase_1,,,,,,,,,,,,,blue,square
167.0,1.0,1.0,0.0,1.0,1.0,507.5624589999279,2.0,1.0,phase_1,,,,,,,,,,,,,gray,hexagon
347.0,6.0,2.0,1.0,2.0,2.0,399.9549899999692,2.0,1.0,phase_1,,,,,,,,,,,,,orange,triangle
1290.0,8.0,4.0,1.0,3.0,3.0,500.8432240001639,2.0,1.0,phase_1,,,,,,,,,,,,,white,I
633.0,3.0,3.0,0.0,4.0,4.0,385.8514070000183,2.0,1.0,phase_1,,,,,,,,,,,,,blue,square
183.0,5.0,1.0,1.0,1.0,1.0,454.1368289999354,2.0,1.0,phase_1,,,,,,,,,,,,,magenta,flipped triangle
1303.0,8.0,4.0,1.0,1.0,1.0,579.3441050000183,2.0,1.0,phase_1,,,,,,,,,,,,,white,I
1298.0,8.0,4.0,1.0,3.0,3.0,522.1395959999882,2.0,1.0,phase_1,,,,,,,,,,,,,white,I
336.0,2.0,2.0,0.0,4.0,4.0,411.993387999928,2.0,1.0,phase_1,,,,,,,,,,,,,cyan,cross
319.0,6.0,2.0,1.0,3.0,3.0,424.6780830001171,2.0,1.0,phase_1,,,,,,,,,,,,,orange,triangle
181.0,1.0,1.0,0.0,1.0,1.0,471.2200500000563,2.0,1.0,phase_1,,,,,,,,,,,,,gray,hexagon
326.0,6.0,2.0,1.0,3.0,3.0,442.1498100000463,2.0,1.0,phase_1,,,,,,,,,,,,,orange,triangle
158.0,1.0,1.0,0.0,4.0,4.0,462.5154210000346,2.0,1.0,phase_1,,,,,,,,,,,,,gray,hexagon
659.0,7.0,3.0,1.0,4.0,4.0,483.4127300000546,2.0,1.0,phase_1,,,,,,,,,,,,,yellow,circle
0.0,8.0,0.0,1.0,3.0,3.0,457.6172919998953,2.0,1.0,phase_1,,,,,,,,,,,,,white,I
153.0,5.0,1.0,1.0,2.0,2.0,597.5062879999768,2.0,1.0,phase_1,,,,,,,,,,,,,magenta,flipped triangle
305.0,2.0,2.0,0.0,2.0,2.0,545.2450729999327,2.0,1.0,phase_1,,,,,,,,,,,,,cyan,cross
154.0,5.0,1.0,1.0,1.0,1.0,517.5182229997972,2.0,1.0,phase_1,,,,,,,,,,,,,magenta,flipped triangle
0.0,2.0,0.0,0.0,4.0,4.0,400.5699449999156,2.0,1.0,phase_1,,,,,,,,,,,,,cyan,cross
325.0,6.0,2.0,1.0,1.0,1.0,617.9067160001068,2.0,1.0,phase_1,,,,,,,,,,,,,orange,triangle
0.0,5.0,0.0,1.0,2.0,2.0,341.9523970001137,2.0,1.0,phase_1,,,,,,,,,,,,,magenta,flipped triangle
343.0,2.0,2.0,0.0,3.0,3.0,456.7773230000966,2.0,1.0,phase_1,,,,,,,,,,,,,cyan,cross
175.0,1.0,1.0,0.0,2.0,2.0,533.5521289998724,2.0,1.0,phase_1,,,,,,,,,,,,,gray,hexagon
1306.0,8.0,4.0,1.0,1.0,1.0,620.5708489999324,2.0,1.0,phase_1,,,,,,,,,,,,,white,I
179.0,5.0,1.0,1.0,3.0,3.0,478.4463200001028,2.0,1.0,phase_1,,,,,,,,,,,,,magenta,flipped triangle
0.0,7.0,0.0,1.0,4.0,4.0,394.7730299998966,2.0,1.0,phase_1,,,,,,,,,,,,,yellow,circle
312.0,6.0,2.0,1.0,1.0,1.0,407.2591589999774,2.0,1.0,phase_1,,,,,,,,,,,,,orange,triangle
0.0,4.0,0.0,0.0,3.0,3.0,439.0404549999402,2.0,1.0,phase_1,,,,,,,,,,,,,green,diamond
1304.0,4.0,4.0,0.0,4.0,4.0,408.722816999898,2.0,1.0,phase_1,,,,,,,,,,,,,green,diamond
0.0,6.0,0.0,1.0,4.0,4.0,407.439254999872,2.0,1.0,phase_1,,,,,,,,,,,,,orange,triangle
651.0,7.0,3.0,1.0,4.0,4.0,380.2491720000489,2.0,1.0,phase_1,,,,,,,,,,,,,yellow,circle
667.0,3.0,3.0,0.0,2.0,2.0,608.3436689996233,2.0,1.0,phase_1,,,,,,,,,,,,,blue,square
183.0,1.0,1.0,0.0,1.0,1.0,606.0650089998489,2.0,1.0,phase_1,,,,,,,,,,,,,gray,hexagon
154.0,1.0,1.0,0.0,4.0,4.0,512.5563630003853,2.0,1.0,phase_1,,,,,,,,,,,,,gray,hexagon
1300.0,4.0,4.0,0.0,3.0,3.0,421.518868000021,2.0,1.0,phase_1,,,,,,,,,,,,,green,diamond
1324.0,8.0,4.0,1.0,4.0,4.0,369.6274920002906,2.0,1.0,phase_1,,,,,,,,,,,,,white,I
1282.0,4.0,4.0,0.0,2.0,2.0,439.2631679997976,2.0,1.0,phase_1,,,,,,,,,,,,,green,diamond
321.0,2.0,2.0,0.0,4.0,4.0,331.9108969999433,2.0,1.0,phase_1,,,,,,,,,,,,,cyan,cross
156.0,5.0,1.0,1.0,2.0,2.0,455.0311319999309,2.0,1.0,phase_1,,,,,,,,,,,,,magenta,flipped triangle
347.0,2.0,2.0,0.0,4.0,4.0,356.3966030001211,2.0,1.0,phase_1,,,,,,,,,,,,,cyan,cross
656.0,7.0,3.0,1.0,1.0,1.0,656.6813479998928,2.0,1.0,phase_1,,,,,,,,,,,,,yellow,circle
0.0,6.0,0.0,1.0,1.0,1.0,500.958250000167,2.0,1.0,phase_1,,,,,,,,,,,,,orange,triangle
651.0,7.0,3.0,1.0,4.0,4.0,385.9742770000594,2.0,1.0,phase_1,,,,,,,,,,,,,yellow,circle
0.0,1.0,0.0,0.0,4.0,4.0,392.4309700000776,2.0,1.0,phase_1,,,,,,,,,,,,,gray,hexagon
1276.0,4.0,4.0,0.0,2.0,2.0,483.5546540002724,2.0,1.0,phase_1,,,,,,,,,,,,,green,diamond
0.0,8.0,0.0,1.0,1.0,1.0,713.0016119999709,2.0,1.0,phase_1,,,,,,,,,,,,,white,I
164.0,5.0,1.0,1.0,1.0,1.0,388.4826359999351,2.0,1.0,phase_1,,,,,,,,,,,,,magenta,flipped triangle
629.0,3.0,3.0,0.0,1.0,1.0,466.6819230001238,2.0,1.0,phase_1,,,,,,,,,,,,,blue,square
319.0,6.0,2.0,1.0,4.0,4.0,406.7546500000389,2.0,1.0,phase_1,,,,,,,,,,,,,orange,triangle
639.0,3.0,3.0,0.0,3.0,3.0,450.6825650000792,2.0,1.0,phase_1,,,,,,,,,,,,,blue,square
646.0,7.0,3.0,1.0,3.0,3.0,431.0232749999159,2.0,1.0,phase_1,,,,,,,,,,,,,yellow,circle
657.0,7.0,3.0,1.0,4.0,4.0,366.3796000000729,2.0,1.0,phase_1,,,,,,,,,,,,,yellow,circle
0.0,7.0,0.0,1.0,2.0,2.0,551.5698199997132,2.0,1.0,phase_1,,,,,,,,,,,,,yellow,circle
1282.0,8.0,4.0,1.0,2.0,2.0,455.0150780000876,2.0,1.0,phase_1,,,,,,,,,,,,,white,I
329.0,2.0,2.0,0.0,1.0,1.0,506.21503200000006,2.0,1.0,phase_1,,,,,,,,,,,,,cyan,cross
336.0,2.0,2.0,0.0,3.0,3.0,430.3318009997383,2.0,1.0,phase_1,,,,,,,,,,,,,cyan,cross
154.0,5.0,1.0,1.0,3.0,3.0,389.1078659999039,2.0,1.0,phase_1,,,,,,,,,,,,,magenta,flipped triangle
0.0,1.0,0.0,0.0,4.0,4.0,367.8324929996961,2.0,1.0,phase_1,,,,,,,,,,,,,gray,hexagon
152.0,1.0,1.0,0.0,2.0,2.0,403.7223559998892,2.0,1.0,phase_1,,,,,,,,,,,,,gray,hexagon
311.0,2.0,2.0,0.0,2.0,2.0,376.9684059998326,2.0,1.0,phase_1,,,,,,,,,,,,,cyan,cross
0.0,3.0,0.0,0.0,4.0,4.0,391.9122370002696,2.0,1.0,phase_1,,,,,,,,,,,,,blue,square
0.0,1.0,0.0,0.0,4.0,4.0,355.7421900000008,2.0,1.0,phase_1,,,,,,,,,,,,,gray,hexagon
0.0,1.0,0.0,0.0,2.0,2.0,392.0145509996473,2.0,1.0,phase_1,,,,,,,,,,,,,gray,hexagon
0.0,6.0,0.0,1.0,4.0,4.0,342.0458890000191,2.0,1.0,phase_1,,,,,,,,,,,,,orange,triangle
146.0,5.0,1.0,1.0,4.0,4.0,410.5807159999131,2.0,1.0,phase_1,,,,,,,,,,,,,magenta,flipped triangle
320.0,2.0,2.0,0.0,4.0,4.0,318.2063350000135,2.0,1.0,phase_1,,,,,,,,,,,,,cyan,cross
343.0,6.0,2.0,1.0,1.0,1.0,480.3997740000341,2.0,1.0,phase_1,,,,,,,,,,,,,orange,triangle
0.0,4.0,0.0,0.0,3.0,3.0,381.9531489998553,2.0,1.0,phase_1,,,,,,,,,,,,,green,diamond
659.0,3.0,3.0,0.0,3.0,3.0,379.6482980001201,2.0,1.0,phase_1,,,,,,,,,,,,,blue,square
147.0,1.0,1.0,0.0,2.0,2.0,833.5261239999454,2.0,1.0,phase_1,,,,,,,,,,,,,gray,hexagon
167.0,1.0,1.0,0.0,4.0,4.0,349.8961190002774,2.0,1.0,phase_1,,,,,,,,,,,,,gray,hexagon
0.0,5.0,0.0,1.0,4.0,4.0,441.784921999897,2.0,1.0,phase_1,,,,,,,,,,,,,magenta,flipped triangle
150.0,5.0,1.0,1.0,2.0,2.0,525.2897420000409,2.0,1.0,phase_1,,,,,,,,,,,,,magenta,flipped triangle
1291.0,4.0,4.0,0.0,2.0,2.0,474.5428239998546,2.0,1.0,phase_1,,,,,,,,,,,,,green,diamond
148.0,1.0,1.0,0.0,1.0,1.0,709.4627739998032,2.0,1.0,phase_1,,,,,,,,,,,,,gray,hexagon
140.0,5.0,1.0,1.0,1.0,1.0,650.0924060001125,2.0,1.0,phase_1,,,,,,,,,,,,,magenta,flipped triangle
0.0,2.0,0.0,0.0,2.0,2.0,440.1628659998096,2.0,1.0,phase_1,,,,,,,,,,,,,cyan,cross
1307.0,4.0,4.0,0.0,1.0,1.0,451.9903010000234,2.0,1.0,phase_1,,,,,,,,,,,,,green,diamond
308.0,6.0,2.0,1.0,3.0,3.0,418.6065010003403,2.0,1.0,phase_1,,,,,,,,,,,,,orange,triangle
652.0,7.0,3.0,1.0,1.0,1.0,461.9229410000116,2.0,1.0,phase_1,,,,,,,,,,,,,yellow,circle
159.0,1.0,1.0,0.0,2.0,2.0,379.5446740000443,2.0,1.0,phase_1,,,,,,,,,,,,,gray,hexagon
345.0,6.0,2.0,1.0,3.0,3.0,406.3345209997351,2.0,1.0,phase_1,,,,,,,,,,,,,orange,triangle
325.0,2.0,2.0,0.0,4.0,4.0,410.0061160002042,3.0,1.0,phase_1,,,,,,,,,,,,,cyan,cross
303.0,6.0,2.0,1.0,3.0,3.0,478.4416130000863,3.0,1.0,phase_1,,,,,,,,,,,,,orange,triangle
344.0,2.0,2.0,0.0,2.0,2.0,354.572029999872,3.0,1.0,phase_1,,,,,,,,,,,,,cyan,cross
0.0,7.0,0.0,1.0,1.0,1.0,430.6512600001042,3.0,1.0,phase_1,,,,,,,,,,,,,yellow,circle
0.0,2.0,0.0,0.0,3.0,3.0,332.4943460002032,3.0,1.0,phase_1,,,,,,,,,,,,,cyan,cross
0.0,3.0,0.0,0.0,3.0,3.0,390.7227019999482,3.0,1.0,phase_1,,,,,,,,,,,,,blue,square
627.0,7.0,3.0,1.0,3.0,3.0,357.0785500000966,3.0,1.0,phase_1,,,,,,,,,,,,,yellow,circle
1286.0,4.0,4.0,0.0,3.0,3.0,329.0640590003022,3.0,1.0,phase_1,,,,,,,,,,,,,green,diamond
0.0,6.0,0.0,1.0,2.0,2.0,431.1300619997382,3.0,1.0,phase_1,,,,,,,,,,,,,orange,triangle
1292.0,4.0,4.0,0.0,2.0,2.0,409.1132080002353,3.0,1.0,phase_1,,,,,,,,,,,,,green,diamond
669.0,7.0,3.0,1.0,1.0,1.0,398.0652189998181,3.0,1.0,phase_1,,,,,,,,,,,,,yellow,circle
303.0,2.0,2.0,0.0,3.0,3.0,323.4954549998292,3.0,1.0,phase_1,,,,,,,,,,,,,cyan,cross
0.0,5.0,0.0,1.0,1.0,1.0,414.3171629998505,3.0,1.0,phase_1,,,,,,,,,,,,,magenta,flipped triangle
339.0,2.0,2.0,0.0,2.0,2.0,499.6869749998041,3.0,1.0,phase_1,,,,,,,,,,,,,cyan,cross
0.0,3.0,0.0,0.0,2.0,2.0,466.7417450000357,3.0,1.0,phase_1,,,,,,,,,,,,,blue,square
0.0,1.0,0.0,0.0,3.0,3.0,415.6379789997118,3.0,1.0,phase_1,,,,,,,,,,,,,gray,hexagon
339.0,6.0,2.0,1.0,3.0,3.0,394.7344210000665,3.0,1.0,phase_1,,,,,,,,,,,,,orange,triangle
333.0,2.0,2.0,0.0,3.0,3.0,493.8430199999857,3.0,1.0,phase_1,,,,,,,,,,,,,cyan,cross
155.0,1.0,1.0,0.0,3.0,3.0,370.504541000173,3.0,1.0,phase_1,,,,,,,,,,,,,gray,hexagon
1289.0,8.0,4.0,1.0,2.0,2.0,416.3435400000708,3.0,1.0,phase_1,,,,,,,,,,,,,white,I
0.0,2.0,0.0,0.0,1.0,1.0,723.7481310003204,3.0,1.0,phase_1,,,,,,,,,,,,,cyan,cross
0.0,2.0,0.0,0.0,4.0,4.0,491.5847990000657,3.0,1.0,phase_1,,,,,,,,,,,,,cyan,cross
627.0,3.0,3.0,0.0,1.0,1.0,589.5176789999823,3.0,1.0,phase_1,,,,,,,,,,,,,blue,square
1313.0,8.0,4.0,1.0,2.0,2.0,402.3077709998688,3.0,1.0,phase_1,,,,,,,,,,,,,white,I
181.0,5.0,1.0,1.0,4.0,4.0,382.8756240000075,3.0,1.0,phase_1,,,,,,,,,,,,,magenta,flipped triangle
341.0,2.0,2.0,0.0,3.0,3.0,411.1444659997687,3.0,1.0,phase_1,,,,,,,,,,,,,cyan,cross
651.0,3.0,3.0,0.0,1.0,1.0,399.6785949998411,3.0,1.0,phase_1,,,,,,,,,,,,,blue,square
148.0,5.0,1.0,1.0,4.0,4.0,460.0548010002967,3.0,1.0,phase_1,,,,,,,,,,,,,magenta,flipped triangle
167.0,1.0,1.0,0.0,2.0,2.0,539.6304860000782,3.0,1.0,phase_1,,,,,,,,,,,,,gray,hexagon
655.0,3.0,3.0,0.0,2.0,2.0,430.023963000167,3.0,1.0,phase_1,,,,,,,,,,,,,blue,square
1299.0,8.0,4.0,1.0,3.0,3.0,451.9976810001935,3.0,1.0,phase_1,,,,,,,,,,,,,white,I
1324.0,4.0,4.0,0.0,4.0,4.0,359.2945630002759,3.0,1.0,phase_1,,,,,,,,,,,,,green,diamond
344.0,6.0,2.0,1.0,4.0,4.0,374.2778150003687,3.0,1.0,phase_1,,,,,,,,,,,,,orange,triangle
142.0,5.0,1.0,1.0,1.0,1.0,432.4197740002091,3.0,1.0,phase_1,,,,,,,,,,,,,magenta,flipped triangle
160.0,1.0,1.0,0.0,4.0,4.0,372.8137990001414,3.0,1.0,phase_1,,,,,,,,,,,,,gray,hexagon
1300.0,8.0,4.0,1.0,2.0,2.0,523.5841779999646,3.0,1.0,phase_1,,,,,,,,,,,,,white,I
1292.0,4.0,4.0,0.0,3.0,3.0,510.47369199977766,3.0,1.0,phase_1,,,,,,,,,,,,,green,diamond
333.0,6.0,2.0,1.0,3.0,3.0,427.4132569998983,3.0,1.0,phase_1,,,,,,,,,,,,,orange,triangle
0.0,4.0,0.0,0.0,1.0,1.0,503.2812220001688,3.0,1.0,phase_1,,,,,,,,,,,,,green,diamond
1279.0,8.0,4.0,1.0,4.0,4.0,420.8334250001826,3.0,1.0,phase_1,,,,,,,,,,,,,white,I
657.0,3.0,3.0,0.0,2.0,2.0,347.1657340001002,3.0,1.0,phase_1,,,,,,,,,,,,,blue,square
139.0,5.0,1.0,1.0,1.0,1.0,413.0484349998369,3.0,1.0,phase_1,,,,,,,,,,,,,magenta,flipped triangle
1318.0,8.0,4.0,1.0,1.0,1.0,450.3785220003919,3.0,1.0,phase_1,,,,,,,,,,,,,white,I
164.0,1.0,1.0,0.0,4.0,4.0,382.5790270002471,3.0,1.0,phase_1,,,,,,,,,,,,,gray,hexagon
658.0,3.0,3.0,0.0,4.0,4.0,427.4535969998396,3.0,1.0,phase_1,,,,,,,,,,,,,blue,square
1319.0,4.0,4.0,0.0,4.0,4.0,311.4957239999967,3.0,1.0,phase_1,,,,,,,,,,,,,green,diamond
0.0,4.0,0.0,0.0,4.0,4.0,300.1741900002344,3.0,1.0,phase_1,,,,,,,,,,,,,green,diamond
675.0,7.0,3.0,1.0,4.0,4.0,323.1230970000069,3.0,1.0,phase_1,,,,,,,,,,,,,yellow,circle
647.0,7.0,3.0,1.0,2.0,2.0,471.3880389999758,3.0,1.0,phase_1,,,,,,,,,,,,,yellow,circle
167.0,1.0,1.0,0.0,3.0,3.0,610.5531949997385,3.0,1.0,phase_1,,,,,,,,,,,,,gray,hexagon
1291.0,8.0,4.0,1.0,2.0,2.0,511.1529790001441,3.0,1.0,phase_1,,,,,,,,,,,,,white,I
0.0,2.0,0.0,0.0,3.0,3.0,411.9707229997402,3.0,1.0,phase_1,,,,,,,,,,,,,cyan,cross
321.0,2.0,2.0,0.0,2.0,2.0,608.1856319997314,3.0,1.0,phase_1,,,,,,,,,,,,,cyan,cross
332.0,2.0,2.0,0.0,3.0,3.0,430.9518449999814,3.0,1.0,phase_1,,,,,,,,,,,,,cyan,cross
0.0,6.0,0.0,1.0,4.0,4.0,369.75610700028477,3.0,1.0,phase_1,,,,,,,,,,,,,orange,triangle
1309.0,4.0,4.0,0.0,4.0,4.0,367.9814170000099,3.0,1.0,phase_1,,,,,,,,,,,,,green,diamond
315.0,2.0,2.0,0.0,4.0,4.0,397.5627569998323,3.0,1.0,phase_1,,,,,,,,,,,,,cyan,cross
0.0,8.0,0.0,1.0,4.0,4.0,407.0496249996722,3.0,1.0,phase_1,,,,,,,,,,,,,white,I
0.0,1.0,0.0,0.0,4.0,4.0,358.6324929997317,3.0,1.0,phase_1,,,,,,,,,,,,,gray,hexagon
625.0,3.0,3.0,0.0,2.0,2.0,421.4930649995949,3.0,2.0,phase_1,,,,,,,,,,,,,blue,square
167.0,5.0,1.0,1.0,4.0,4.0,508.41293700023016,3.0,1.0,phase_1,,,,,,,,,,,,,magenta,flipped triangle
1298.0,8.0,4.0,1.0,2.0,2.0,576.6297860000122,3.0,1.0,phase_1,,,,,,,,,,,,,white,I
0.0,3.0,0.0,0.0,4.0,4.0,426.8223170001874,3.0,1.0,phase_1,,,,,,,,,,,,,blue,square
640.0,3.0,3.0,0.0,1.0,1.0,594.438805000209,3.0,1.0,phase_1,,,,,,,,,,,,,blue,square
0.0,8.0,0.0,1.0,3.0,3.0,558.993714999815,3.0,1.0,phase_1,,,,,,,,,,,,,white,I
660.0,7.0,3.0,1.0,2.0,2.0,545.4323819999445,3.0,1.0,phase_1,,,,,,,,,,,,,yellow,circle
1319.0,8.0,4.0,1.0,2.0,2.0,508.97178700006407,3.0,1.0,phase_1,,,,,,,,,,,,,white,I
0.0,2.0,0.0,0.0,1.0,1.0,620.5929679999826,3.0,1.0,phase_1,,,,,,,,,,,,,cyan,cross
311.0,6.0,2.0,1.0,3.0,3.0,430.9005990003243,3.0,1.0,phase_1,,,,,,,,,,,,,orange,triangle
1285.0,4.0,4.0,0.0,2.0,2.0,581.3539419996232,3.0,1.0,phase_1,,,,,,,,,,,,,green,diamond
675.0,3.0,3.0,0.0,2.0,2.0,584.2587619999904,3.0,1.0,phase_1,,,,,,,,,,,,,blue,square
1309.0,8.0,4.0,1.0,4.0,4.0,349.8188470002787,3.0,1.0,phase_1,,,,,,,,,,,,,white,I
669.0,7.0,3.0,1.0,2.0,2.0,491.8752210001003,3.0,1.0,phase_1,,,,,,,,,,,,,yellow,circle
1312.0,8.0,4.0,1.0,4.0,4.0,368.1455440000718,3.0,1.0,phase_1,,,,,,,,,,,,,white,I
168.0,1.0,1.0,0.0,1.0,1.0,711.7211319996386,3.0,2.0,phase_1,,,,,,,,,,,,,gray,hexagon
326.0,2.0,2.0,0.0,1.0,1.0,565.5717730001015,3.0,1.0,phase_1,,,,,,,,,,,,,cyan,cross
315.0,6.0,2.0,1.0,4.0,4.0,442.9964650003057,3.0,1.0,phase_1,,,,,,,,,,,,,orange,triangle
1300.0,8.0,4.0,1.0,3.0,3.0,430.460710999796,3.0,1.0,phase_1,,,,,,,,,,,,,white,I
340.0,6.0,2.0,1.0,1.0,1.0,401.6627300002255,3.0,1.0,phase_1,,,,,,,,,,,,,orange,triangle
0.0,7.0,0.0,1.0,1.0,1.0,430.6361449998803,3.0,1.0,phase_1,,,,,,,,,,,,,yellow,circle
0.0,6.0,0.0,1.0,3.0,3.0,388.2839099996999,3.0,1.0,phase_1,,,,,,,,,,,,,orange,triangle
173.0,5.0,1.0,1.0,3.0,3.0,401.6614659999504,3.0,1.0,phase_1,,,,,,,,,,,,,magenta,flipped triangle
319.0,2.0,2.0,0.0,1.0,1.0,428.1456839999009,3.0,1.0,phase_1,,,,,,,,,,,,,cyan,cross
1291.0,8.0,4.0,1.0,2.0,2.0,611.5140719998635,3.0,1.0,phase_1,,,,,,,,,,,,,white,I
161.0,5.0,1.0,1.0,1.0,1.0,397.5554829999055,3.0,1.0,phase_1,,,,,,,,,,,,,magenta,flipped triangle
636.0,7.0,3.0,1.0,3.0,3.0,417.9531059999135,3.0,1.0,phase_1,,,,,,,,,,,,,yellow,circle
0.0,8.0,0.0,1.0,3.0,3.0,376.8305940002392,3.0,1.0,phase_1,,,,,,,,,,,,,white,I
0.0,4.0,0.0,0.0,4.0,4.0,403.5630010002933,3.0,1.0,phase_1,,,,,,,,,,,,,green,diamond
657.0,3.0,3.0,0.0,1.0,1.0,329.3160590001207,3.0,1.0,phase_1,,,,,,,,,,,,,blue,square
179.0,1.0,1.0,0.0,4.0,4.0,500.8894729999156,3.0,1.0,phase_1,,,,,,,,,,,,,gray,hexagon
334.0,2.0,2.0,0.0,1.0,1.0,513.2049580001876,3.0,1.0,phase_1,,,,,,,,,,,,,cyan,cross
0.0,1.0,0.0,0.0,3.0,3.0,376.8922540002677,3.0,1.0,phase_1,,,,,,,,,,,,,gray,hexagon
1283.0,8.0,4.0,1.0,2.0,2.0,429.3345139999474,3.0,1.0,phase_1,,,,,,,,,,,,,white,I
629.0,3.0,3.0,0.0,4.0,4.0,368.9019809999081,3.0,1.0,phase_1,,,,,,,,,,,,,blue,square
326.0,6.0,2.0,1.0,1.0,1.0,388.6513280003782,3.0,1.0,phase_1,,,,,,,,,,,,,orange,triangle
625.0,7.0,3.0,1.0,1.0,1.0,392.098612999689,3.0,1.0,phase_1,,,,,,,,,,,,,yellow,circle
637.0,3.0,3.0,0.0,1.0,1.0,415.1680990003115,3.0,1.0,phase_1,,,,,,,,,,,,,blue,square
314.0,2.0,2.0,0.0,1.0,1.0,338.0886969998755,3.0,1.0,phase_1,,,,,,,,,,,,,cyan,cross
1286.0,8.0,4.0,1.0,4.0,4.0,432.7490699997725,3.0,1.0,phase_1,,,,,,,,,,,,,white,I
0.0,6.0,0.0,1.0,3.0,3.0,475.3162520000842,3.0,1.0,phase_1,,,,,,,,,,,,,orange,triangle
344.0,2.0,2.0,0.0,4.0,4.0,392.5649190000513,4.0,1.0,phase_1,,,,,,,,,,,,,cyan,cross
321.0,6.0,2.0,1.0,4.0,4.0,342.4191409999366,4.0,1.0,phase_1,,,,,,,,,,,,,orange,triangle
0.0,8.0,0.0,1.0,2.0,2.0,504.6169910001481,4.0,1.0,phase_1,,,,,,,,,,,,,white,I
1300.0,8.0,4.0,1.0,3.0,3.0,478.4956510002303,4.0,1.0,phase_1,,,,,,,,,,,,,white,I
155.0,5.0,1.0,1.0,1.0,1.0,413.0348399999093,4.0,1.0,phase_1,,,,,,,,,,,,,magenta,flipped triangle
333.0,6.0,2.0,1.0,2.0,2.0,493.3932980002282,4.0,2.0,phase_1,,,,,,,,,,,,,orange,triangle
1312.0,4.0,4.0,0.0,2.0,2.0,407.6452340000287,4.0,1.0,phase_1,,,,,,,,,,,,,green,diamond
1310.0,4.0,4.0,0.0,1.0,1.0,332.9470099997706,4.0,1.0,phase_1,,,,,,,,,,,,,green,diamond
1285.0,8.0,4.0,1.0,4.0,4.0,356.0634969999228,4.0,1.0,phase_1,,,,,,,,,,,,,white,I
174.0,1.0,1.0,0.0,4.0,4.0,382.7652270001636,4.0,1.0,phase_1,,,,,,,,,,,,,gray,hexagon
0.0,5.0,0.0,1.0,4.0,4.0,347.03323299982,4.0,1.0,phase_1,,,,,,,,,,,,,magenta,flipped triangle
639.0,3.0,3.0,0.0,2.0,2.0,536.850892000075,4.0,1.0,phase_1,,,,,,,,,,,,,blue,square
660.0,7.0,3.0,1.0,1.0,1.0,620.5230019995724,4.0,1.0,phase_1,,,,,,,,,,,,,yellow,circle
305.0,6.0,2.0,1.0,2.0,2.0,545.506578000186,4.0,1.0,phase_1,,,,,,,,,,,,,orange,triangle
0.0,7.0,0.0,1.0,4.0,4.0,373.8342139999986,4.0,1.0,phase_1,,,,,,,,,,,,,yellow,circle
1318.0,4.0,4.0,0.0,3.0,3.0,409.7899680000409,4.0,1.0,phase_1,,,,,,,,,,,,,green,diamond
0.0,7.0,0.0,1.0,2.0,2.0,368.5746940000172,4.0,1.0,phase_1,,,,,,,,,,,,,yellow,circle
646.0,3.0,3.0,0.0,4.0,4.0,308.2705869996971,4.0,1.0,phase_1,,,,,,,,,,,,,blue,square
1320.0,8.0,4.0,1.0,3.0,3.0,408.7940869999329,4.0,1.0,phase_1,,,,,,,,,,,,,white,I
0.0,8.0,0.0,1.0,4.0,4.0,373.5018989996206,4.0,1.0,phase_1,,,,,,,,,,,,,white,I
1300.0,4.0,4.0,0.0,2.0,2.0,394.1728200002217,4.0,1.0,phase_1,,,,,,,,,,,,,green,diamond
184.0,1.0,1.0,0.0,1.0,1.0,461.2065319997782,4.0,1.0,phase_1,,,,,,,,,,,,,gray,hexagon
336.0,6.0,2.0,1.0,4.0,4.0,393.2487550000587,4.0,1.0,phase_1,,,,,,,,,,,,,orange,triangle
303.0,2.0,2.0,0.0,1.0,1.0,654.0109919997121,4.0,1.0,phase_1,,,,,,,,,,,,,cyan,cross
1289.0,4.0,4.0,0.0,4.0,4.0,365.1674660000026,4.0,1.0,phase_1,,,,,,,,,,,,,green,diamond
332.0,6.0,2.0,1.0,1.0,1.0,369.2502930002774,4.0,1.0,phase_1,,,,,,,,,,,,,orange,triangle
0.0,4.0,0.0,0.0,4.0,4.0,356.6694589999315,4.0,1.0,phase_1,,,,,,,,,,,,,green,diamond
0.0,5.0,0.0,1.0,3.0,3.0,410.5179930002123,4.0,1.0,phase_1,,,,,,,,,,,,,magenta,flipped triangle
173.0,1.0,1.0,0.0,1.0,1.0,596.2522159998116,4.0,2.0,phase_1,,,,,,,,,,,,,gray,hexagon
0.0,5.0,0.0,1.0,3.0,3.0,392.5752050004121,4.0,1.0,phase_1,,,,,,,,,,,,,magenta,flipped triangle
184.0,1.0,1.0,0.0,3.0,3.0,413.4905249998155,4.0,1.0,phase_1,,,,,,,,,,,,,gray,hexagon
146.0,1.0,1.0,0.0,4.0,4.0,394.3531849999999,4.0,1.0,phase_1,,,,,,,,,,,,,gray,hexagon
654.0,7.0,3.0,1.0,1.0,1.0,436.0986339997907,4.0,1.0,phase_1,,,,,,,,,,,,,yellow,circle
1322.0,8.0,4.0,1.0,3.0,3.0,442.3114189999069,4.0,1.0,phase_1,,,,,,,,,,,,,white,I
669.0,3.0,3.0,0.0,3.0,3.0,350.0790650000454,4.0,1.0,phase_1,,,,,,,,,,,,,blue,square
642.0,3.0,3.0,0.0,4.0,4.0,426.7054179999832,4.0,1.0,phase_1,,,,,,,,,,,,,blue,square
185.0,1.0,1.0,0.0,3.0,3.0,383.9714509999794,4.0,1.0,phase_1,,,,,,,,,,,,,gray,hexagon
344.0,6.0,2.0,1.0,4.0,4.0,347.9511350001303,4.0,1.0,phase_1,,,,,,,,,,,,,orange,triangle
1309.0,8.0,4.0,1.0,1.0,1.0,634.6241820001524,4.0,1.0,phase_1,,,,,,,,,,,,,white,I
1298.0,8.0,4.0,1.0,3.0,3.0,431.6301480002948,4.0,1.0,phase_1,,,,,,,,,,,,,white,I
1322.0,4.0,4.0,0.0,4.0,4.0,377.3550999999315,4.0,1.0,phase_1,,,,,,,,,,,,,green,diamond
628.0,3.0,3.0,0.0,1.0,1.0,405.837584999972,4.0,1.0,phase_1,,,,,,,,,,,,,blue,square
628.0,7.0,3.0,1.0,1.0,1.0,402.9441729999234,4.0,1.0,phase_1,,,,,,,,,,,,,yellow,circle
672.0,3.0,3.0,0.0,4.0,4.0,344.01136599990417,4.0,1.0,phase_1,,,,,,,,,,,,,blue,square
341.0,6.0,2.0,1.0,2.0,2.0,619.587951000085,4.0,2.0,phase_1,,,,,,,,,,,,,orange,triangle
657.0,7.0,3.0,1.0,2.0,2.0,397.2746389999884,4.0,1.0,phase_1,,,,,,,,,,,,,yellow,circle
667.0,7.0,3.0,1.0,3.0,3.0,468.8517710001179,4.0,1.0,phase_1,,,,,,,,,,,,,yellow,circle
651.0,3.0,3.0,0.0,3.0,3.0,433.4443150000879,4.0,1.0,phase_1,,,,,,,,,,,,,blue,square
305.0,6.0,2.0,1.0,4.0,4.0,365.0034239999513,4.0,1.0,phase_1,,,,,,,,,,,,,orange,triangle
302.0,2.0,2.0,0.0,1.0,1.0,527.8682879998087,4.0,1.0,phase_1,,,,,,,,,,,,,cyan,cross
630.0,7.0,3.0,1.0,4.0,4.0,331.9468469999265,4.0,1.0,phase_1,,,,,,,,,,,,,yellow,circle
314.0,6.0,2.0,1.0,1.0,1.0,448.6920859999372,4.0,1.0,phase_1,,,,,,,,,,,,,orange,triangle
317.0,2.0,2.0,0.0,3.0,3.0,448.0930510003418,4.0,1.0,phase_1,,,,,,,,,,,,,cyan,cross
1310.0,8.0,4.0,1.0,4.0,4.0,356.360560000212,4.0,1.0,phase_1,,,,,,,,,,,,,white,I
0.0,4.0,0.0,0.0,1.0,1.0,558.7599209998189,4.0,1.0,phase_1,,,,,,,,,,,,,green,diamond
142.0,1.0,1.0,0.0,3.0,3.0,395.2395599999363,4.0,1.0,phase_1,,,,,,,,,,,,,gray,hexagon
637.0,7.0,3.0,1.0,1.0,1.0,487.5014539998119,4.0,1.0,phase_1,,,,,,,,,,,,,yellow,circle
660.0,3.0,3.0,0.0,4.0,4.0,351.2671339999542,4.0,1.0,phase_1,,,,,,,,,,,,,blue,square
0.0,2.0,0.0,0.0,4.0,4.0,377.5455509999119,4.0,1.0,phase_1,,,,,,,,,,,,,cyan,cross
162.0,5.0,1.0,1.0,4.0,4.0,408.217890999822,4.0,1.0,phase_1,,,,,,,,,,,,,magenta,flipped triangle
144.0,5.0,1.0,1.0,3.0,3.0,436.6841630003364,4.0,1.0,phase_1,,,,,,,,,,,,,magenta,flipped triangle
339.0,2.0,2.0,0.0,1.0,1.0,720.571781000217,4.0,1.0,phase_1,,,,,,,,,,,,,cyan,cross
312.0,2.0,2.0,0.0,2.0,2.0,635.7869839998784,4.0,1.0,phase_1,,,,,,,,,,,,,cyan,cross
183.0,1.0,1.0,0.0,1.0,1.0,569.4569780002894,4.0,1.0,phase_1,,,,,,,,,,,,,gray,hexagon
174.0,5.0,1.0,1.0,2.0,2.0,501.35203099989667,4.0,1.0,phase_1,,,,,,,,,,,,,magenta,flipped triangle
167.0,5.0,1.0,1.0,2.0,2.0,450.1238600000761,4.0,1.0,phase_1,,,,,,,,,,,,,magenta,flipped triangle
0.0,3.0,0.0,0.0,4.0,4.0,415.6030479998662,4.0,1.0,phase_1,,,,,,,,,,,,,blue,square
1288.0,8.0,4.0,1.0,3.0,3.0,556.6938399997525,4.0,1.0,phase_1,,,,,,,,,,,,,white,I
0.0,4.0,0.0,0.0,3.0,3.0,462.8057709996938,4.0,1.0,phase_1,,,,,,,,,,,,,green,diamond
639.0,7.0,3.0,1.0,2.0,2.0,619.6066450002036,4.0,1.0,phase_1,,,,,,,,,,,,,yellow,circle
670.0,7.0,3.0,1.0,1.0,1.0,473.049071999867,4.0,1.0,phase_1,,,,,,,,,,,,,yellow,circle
168.0,5.0,1.0,1.0,3.0,3.0,367.3053520001303,4.0,1.0,phase_1,,,,,,,,,,,,,magenta,flipped triangle
662.0,3.0,3.0,0.0,2.0,2.0,554.1082360000473,4.0,1.0,phase_1,,,,,,,,,,,,,blue,square
0.0,6.0,0.0,1.0,1.0,1.0,409.3456470000092,4.0,1.0,phase_1,,,,,,,,,,,,,orange,triangle
1322.0,4.0,4.0,0.0,2.0,2.0,397.7715089999947,4.0,1.0,phase_1,,,,,,,,,,,,,green,diamond
166.0,5.0,1.0,1.0,2.0,2.0,415.5290779999632,4.0,1.0,phase_1,,,,,,,,,,,,,magenta,flipped triangle
340.0,2.0,2.0,0.0,1.0,1.0,427.7614110001195,4.0,1.0,phase_1,,,,,,,,,,,,,cyan,cross
1284.0,8.0,4.0,1.0,1.0,1.0,465.0184729998727,4.0,1.0,phase_1,,,,,,,,,,,,,white,I
1306.0,8.0,4.0,1.0,1.0,1.0,397.3994989996754,4.0,1.0,phase_1,,,,,,,,,,,,,white,I
0.0,1.0,0.0,0.0,2.0,2.0,530.4155630001333,4.0,1.0,phase_1,,,,,,,,,,,,,gray,hexagon
182.0,5.0,1.0,1.0,4.0,4.0,561.729108000236,4.0,1.0,phase_1,,,,,,,,,,,,,magenta,flipped triangle
319.0,2.0,2.0,0.0,1.0,1.0,403.7167890001001,4.0,1.0,phase_1,,,,,,,,,,,,,cyan,cross
1290.0,4.0,4.0,0.0,1.0,1.0,386.0449039998457,4.0,1.0,phase_1,,,,,,,,,,,,,green,diamond
305.0,2.0,2.0,0.0,4.0,4.0,629.1451470001448,4.0,1.0,phase_1,,,,,,,,,,,,,cyan,cross
1307.0,8.0,4.0,1.0,4.0,4.0,424.9960530000862,4.0,1.0,phase_1,,,,,,,,,,,,,white,I
672.0,7.0,3.0,1.0,3.0,3.0,488.4110519997193,4.0,1.0,phase_1,,,,,,,,,,,,,yellow,circle
1307.0,8.0,4.0,1.0,4.0,4.0,413.3966730000793,4.0,1.0,phase_1,,,,,,,,,,,,,white,I
0.0,5.0,0.0,1.0,3.0,3.0,385.7477669998843,4.0,1.0,phase_1,,,,,,,,,,,,,magenta,flipped triangle
1299.0,4.0,4.0,0.0,1.0,1.0,432.3269779997645,4.0,2.0,phase_1,,,,,,,,,,,,,green,diamond
1280.0,8.0,4.0,1.0,4.0,4.0,502.4478439995619,4.0,1.0,phase_1,,,,,,,,,,,,,white,I
182.0,1.0,1.0,0.0,3.0,3.0,450.4655069999899,4.0,1.0,phase_1,,,,,,,,,,,,,gray,hexagon
1279.0,4.0,4.0,0.0,1.0,1.0,478.4765130002597,4.0,1.0,phase_1,,,,,,,,,,,,,green,diamond
308.0,2.0,2.0,0.0,3.0,3.0,515.5742369997824,4.0,1.0,phase_1,,,,,,,,,,,,,cyan,cross
1298.0,4.0,4.0,0.0,4.0,4.0,408.2227409999177,4.0,1.0,phase_1,,,,,,,,,,,,,green,diamond
166.0,1.0,1.0,0.0,4.0,4.0,420.3481149997969,4.0,1.0,phase_1,,,,,,,,,,,,,gray,hexagon
1322.0,8.0,4.0,1.0,1.0,1.0,394.7656499999539,4.0,1.0,phase_1,,,,,,,,,,,,,white,I
326.0,2.0,2.0,0.0,2.0,2.0,486.2831079999523,4.0,1.0,phase_1,,,,,,,,,,,,,cyan,cross
0.0,1.0,0.0,0.0,1.0,1.0,498.474170999998,4.0,1.0,phase_1,,,,,,,,,,,,,gray,hexagon
0.0,5.0,0.0,1.0,3.0,3.0,374.5316940003249,4.0,1.0,phase_1,,,,,,,,,,,,,magenta,flipped triangle
1298.0,4.0,4.0,0.0,3.0,3.0,364.7149359999275,4.0,1.0,phase_1,,,,,,,,,,,,,green,diamond
0.0,6.0,2.0,1.0,6.0,0.0,0.0,1.0,1.0,phase_2,stop,250.0,250.0,4.0,,,,,,,,,orange,triangle
0.0,8.0,4.0,1.0,5.0,5.0,389.5226859999638,1.0,1.0,phase_2,stop,250.0,300.0,3.0,,,,,,,,,white,I
0.0,4.0,4.0,0.0,5.0,5.0,346.4824540001245,1.0,1.0,phase_2,go,200.0,300.0,1.0,,,,,,,,,green,diamond
0.0,4.0,4.0,0.0,5.0,5.0,434.3964969998524,1.0,1.0,phase_2,go,200.0,300.0,1.0,,,,,,,,,green,diamond
0.0,8.0,4.0,1.0,6.0,0.0,0.0,1.0,1.0,phase_2,stop,200.0,300.0,4.0,,,,,,,,,white,I
0.0,6.0,2.0,1.0,6.0,6.0,373.3685629999854,1.0,1.0,phase_2,stop,200.0,350.0,3.0,,,,,,,,,orange,triangle
0.0,3.0,3.0,0.0,5.0,5.0,569.2976139998791,1.0,1.0,phase_2,go,200.0,300.0,1.0,,,,,,,,,blue,square
0.0,1.0,1.0,0.0,6.0,6.0,760.4307209999206,1.0,1.0,phase_2,go,200.0,300.0,1.0,,,,,,,,,gray,hexagon
0.0,4.0,4.0,0.0,5.0,5.0,478.380530999857,1.0,1.0,phase_2,go,200.0,300.0,1.0,,,,,,,,,green,diamond
0.0,7.0,3.0,1.0,6.0,0.0,0.0,1.0,1.0,phase_2,stop,200.0,300.0,4.0,,,,,,,,,yellow,circle
0.0,1.0,1.0,0.0,5.0,5.0,749.3770670002959,1.0,1.0,phase_2,go,200.0,350.0,1.0,,,,,,,,,gray,hexagon
0.0,5.0,1.0,1.0,6.0,0.0,0.0,1.0,1.0,phase_2,stop,200.0,350.0,4.0,,,,,,,,,magenta,flipped triangle
0.0,2.0,2.0,0.0,6.0,6.0,699.8948489999748,1.0,1.0,phase_2,go,200.0,400.0,1.0,,,,,,,,,cyan,cross
0.0,2.0,2.0,0.0,6.0,6.0,746.8104109998421,1.0,1.0,phase_2,go,200.0,400.0,1.0,,,,,,,,,cyan,cross
0.0,4.0,4.0,0.0,5.0,5.0,572.340875000009,1.0,1.0,phase_2,go,200.0,400.0,1.0,,,,,,,,,green,diamond
0.0,1.0,1.0,0.0,5.0,5.0,489.8769269998411,1.0,1.0,phase_2,go,200.0,400.0,1.0,,,,,,,,,gray,hexagon
0.0,3.0,3.0,0.0,6.0,6.0,617.1704379999028,1.0,1.0,phase_2,go,200.0,400.0,1.0,,,,,,,,,blue,square
0.0,6.0,2.0,1.0,6.0,0.0,0.0,1.0,1.0,phase_2,stop,200.0,400.0,4.0,,,,,,,,,orange,triangle
0.0,7.0,3.0,1.0,5.0,0.0,0.0,1.0,1.0,phase_2,stop,200.0,450.0,4.0,,,,,,,,,yellow,circle
0.0,4.0,4.0,0.0,6.0,6.0,599.4846570001755,1.0,1.0,phase_2,go,250.0,450.0,1.0,,,,,,,,,green,diamond
0.0,7.0,3.0,1.0,6.0,0.0,0.0,1.0,1.0,phase_2,stop,250.0,450.0,4.0,,,,,,,,,yellow,circle
0.0,3.0,3.0,0.0,6.0,6.0,750.5800859998999,1.0,1.0,phase_2,go,250.0,500.0,1.0,,,,,,,,,blue,square
0.0,7.0,3.0,1.0,6.0,0.0,0.0,1.0,1.0,phase_2,stop,250.0,500.0,4.0,,,,,,,,,yellow,circle
0.0,7.0,3.0,1.0,6.0,6.0,1147.7443339999809,1.0,1.0,phase_2,go,250.0,550.0,1.0,,,,,,,,,yellow,circle
0.0,5.0,1.0,1.0,6.0,0.0,0.0,1.0,1.0,phase_2,stop,250.0,550.0,4.0,,,,,,,,,magenta,flipped triangle
0.0,4.0,4.0,0.0,6.0,6.0,683.0541150002318,1.0,1.0,phase_2,go,250.0,600.0,1.0,,,,,,,,,green,diamond
0.0,2.0,2.0,0.0,6.0,6.0,851.3951009999801,1.0,1.0,phase_2,go,250.0,600.0,1.0,,,,,,,,,cyan,cross
0.0,5.0,1.0,1.0,5.0,5.0,786.2331770002129,1.0,1.0,phase_2,go,250.0,600.0,1.0,,,,,,,,,magenta,flipped triangle
0.0,5.0,1.0,1.0,6.0,6.0,433.3224140000311,1.0,1.0,phase_2,stop,250.0,600.0,3.0,,,,,,,,,magenta,flipped triangle
0.0,1.0,1.0,0.0,5.0,5.0,888.7376289999338,1.0,1.0,phase_2,go,250.0,550.0,1.0,,,,,,,,,gray,hexagon
0.0,6.0,2.0,1.0,5.0,0.0,0.0,1.0,1.0,phase_2,stop,250.0,550.0,4.0,,,,,,,,,orange,triangle
0.0,1.0,1.0,0.0,6.0,6.0,609.9014229998829,1.0,1.0,phase_2,go,300.0,550.0,1.0,,,,,,,,,gray,hexagon
0.0,3.0,3.0,0.0,5.0,5.0,558.7781649996941,1.0,1.0,phase_2,go,300.0,550.0,1.0,,,,,,,,,blue,square
0.0,8.0,4.0,1.0,6.0,6.0,701.6658990000906,1.0,1.0,phase_2,go,300.0,550.0,1.0,,,,,,,,,white,I
0.0,3.0,3.0,0.0,6.0,6.0,653.7174889999733,1.0,1.0,phase_2,go,300.0,550.0,1.0,,,,,,,,,blue,square
0.0,4.0,4.0,0.0,5.0,5.0,573.1786060000559,1.0,1.0,phase_2,go,300.0,550.0,1.0,,,,,,,,,green,diamond
0.0,5.0,1.0,1.0,5.0,5.0,546.8990120002672,2.0,1.0,phase_2,stop,300.0,550.0,3.0,,,,,,,,,magenta,flipped triangle
0.0,5.0,1.0,1.0,5.0,0.0,0.0,2.0,1.0,phase_2,stop,250.0,550.0,4.0,,,,,,,,,magenta,flipped triangle
0.0,2.0,2.0,0.0,5.0,5.0,489.5328060001702,2.0,1.0,phase_2,go,300.0,550.0,1.0,,,,,,,,,cyan,cross
0.0,2.0,2.0,0.0,5.0,5.0,297.8835609997077,2.0,1.0,phase_2,go,300.0,550.0,1.0,,,,,,,,,cyan,cross
0.0,7.0,3.0,1.0,5.0,5.0,320.3507739999622,2.0,1.0,phase_2,go,300.0,550.0,1.0,,,,,,,,,yellow,circle
0.0,8.0,4.0,1.0,5.0,5.0,361.821047000376,2.0,1.0,phase_2,stop,300.0,550.0,3.0,,,,,,,,,white,I
0.0,2.0,2.0,0.0,6.0,6.0,566.3554259999728,2.0,1.0,phase_2,go,250.0,550.0,1.0,,,,,,,,,cyan,cross
0.0,8.0,4.0,1.0,5.0,5.0,320.2049649999026,2.0,1.0,phase_2,go,250.0,550.0,1.0,,,,,,,,,white,I
0.0,5.0,1.0,1.0,5.0,5.0,335.1636929996857,2.0,1.0,phase_2,stop,250.0,550.0,3.0,,,,,,,,,magenta,flipped triangle
0.0,3.0,3.0,0.0,5.0,5.0,375.3989540000475,2.0,1.0,phase_2,go,200.0,550.0,1.0,,,,,,,,,blue,square
0.0,6.0,2.0,1.0,6.0,6.0,388.9872950003337,2.0,1.0,phase_2,stop,200.0,550.0,3.0,,,,,,,,,orange,triangle
0.0,5.0,1.0,1.0,6.0,6.0,341.6769629998271,2.0,1.0,phase_2,stop,200.0,500.0,3.0,,,,,,,,,magenta,flipped triangle
0.0,1.0,1.0,0.0,5.0,5.0,482.7084789999389,2.0,1.0,phase_2,go,200.0,450.0,1.0,,,,,,,,,gray,hexagon
0.0,6.0,2.0,1.0,6.0,6.0,434.9109230001886,2.0,1.0,phase_2,stop,200.0,450.0,3.0,,,,,,,,,orange,triangle
0.0,1.0,1.0,0.0,6.0,6.0,634.2828050001117,2.0,1.0,phase_2,go,200.0,400.0,1.0,,,,,,,,,gray,hexagon
0.0,6.0,2.0,1.0,5.0,5.0,659.0782790003686,2.0,1.0,phase_2,go,200.0,400.0,1.0,,,,,,,,,orange,triangle
0.0,4.0,4.0,0.0,5.0,5.0,360.8374740001636,2.0,1.0,phase_2,go,200.0,400.0,1.0,,,,,,,,,green,diamond
0.0,8.0,4.0,1.0,5.0,0.0,0.0,2.0,1.0,phase_2,stop,200.0,400.0,4.0,,,,,,,,,white,I
0.0,2.0,2.0,0.0,6.0,6.0,351.6175199997633,2.0,1.0,phase_2,go,250.0,400.0,1.0,,,,,,,,,cyan,cross
0.0,7.0,3.0,1.0,5.0,5.0,334.5158359998095,2.0,1.0,phase_2,stop,250.0,400.0,3.0,,,,,,,,,yellow,circle
0.0,4.0,4.0,0.0,6.0,6.0,406.5631280000161,2.0,1.0,phase_2,go,200.0,400.0,1.0,,,,,,,,,green,diamond
0.0,8.0,4.0,1.0,5.0,0.0,0.0,2.0,1.0,phase_2,stop,200.0,400.0,4.0,,,,,,,,,white,I
0.0,3.0,3.0,0.0,6.0,6.0,709.2069109999102,2.0,1.0,phase_2,go,250.0,400.0,1.0,,,,,,,,,blue,square
0.0,4.0,4.0,0.0,5.0,5.0,548.6845470004482,2.0,1.0,phase_2,go,250.0,400.0,1.0,,,,,,,,,green,diamond
0.0,5.0,1.0,1.0,5.0,0.0,0.0,2.0,1.0,phase_2,stop,250.0,400.0,4.0,,,,,,,,,magenta,flipped triangle
0.0,6.0,2.0,1.0,5.0,5.0,467.2564779998538,2.0,1.0,phase_2,go,300.0,400.0,1.0,,,,,,,,,orange,triangle
0.0,1.0,1.0,0.0,6.0,6.0,340.3911260002132,2.0,1.0,phase_2,go,300.0,400.0,1.0,,,,,,,,,gray,hexagon
0.0,6.0,2.0,1.0,6.0,6.0,450.3486599996904,2.0,1.0,phase_2,go,300.0,400.0,1.0,,,,,,,,,orange,triangle
0.0,4.0,4.0,0.0,5.0,5.0,442.1271160003925,2.0,1.0,phase_2,go,300.0,400.0,1.0,,,,,,,,,green,diamond
0.0,5.0,1.0,1.0,5.0,5.0,378.96435499988,2.0,1.0,phase_2,stop,300.0,400.0,3.0,,,,,,,,,magenta,flipped triangle
0.0,7.0,3.0,1.0,6.0,6.0,419.7164789998169,2.0,1.0,phase_2,stop,250.0,400.0,3.0,,,,,,,,,yellow,circle
0.0,8.0,4.0,1.0,5.0,5.0,353.9132159999099,2.0,1.0,phase_2,stop,250.0,350.0,3.0,,,,,,,,,white,I
0.0,1.0,1.0,0.0,6.0,6.0,488.8259419999485,2.0,1.0,phase_2,go,200.0,350.0,1.0,,,,,,,,,gray,hexagon
0.0,8.0,4.0,1.0,6.0,6.0,374.5785859996431,2.0,1.0,phase_2,stop,200.0,350.0,3.0,,,,,,,,,white,I
0.0,6.0,2.0,1.0,6.0,0.0,0.0,2.0,1.0,phase_2,stop,200.0,300.0,4.0,,,,,,,,,orange,triangle
0.0,2.0,2.0,0.0,5.0,5.0,629.3304739997438,2.0,1.0,phase_2,go,200.0,350.0,1.0,,,,,,,,,cyan,cross
0.0,5.0,1.0,1.0,5.0,5.0,387.5243870002123,3.0,1.0,phase_2,stop,200.0,350.0,3.0,,,,,,,,,magenta,flipped triangle
0.0,4.0,4.0,0.0,6.0,6.0,608.9015989996369,3.0,1.0,phase_2,go,150.0,350.0,1.0,,,,,,,,,green,diamond
0.0,6.0,2.0,1.0,6.0,6.0,432.7913800002534,3.0,1.0,phase_2,stop,150.0,350.0,3.0,,,,,,,,,orange,triangle
0.0,4.0,4.0,0.0,6.0,6.0,312.027923000187,3.0,1.0,phase_2,go,150.0,300.0,1.0,,,,,,,,,green,diamond
0.0,3.0,3.0,0.0,6.0,6.0,366.473027000211,3.0,1.0,phase_2,go,150.0,300.0,1.0,,,,,,,,,blue,square
0.0,2.0,2.0,0.0,5.0,5.0,366.6182000001754,3.0,1.0,phase_2,go,150.0,300.0,1.0,,,,,,,,,cyan,cross
0.0,1.0,1.0,0.0,6.0,6.0,325.733295000191,3.0,1.0,phase_2,go,150.0,300.0,1.0,,,,,,,,,gray,hexagon
0.0,1.0,1.0,0.0,6.0,6.0,493.3599419996426,3.0,1.0,phase_2,go,150.0,300.0,1.0,,,,,,,,,gray,hexagon
0.0,8.0,4.0,1.0,6.0,6.0,320.7160060001115,3.0,1.0,phase_2,stop,150.0,300.0,3.0,,,,,,,,,white,I
0.0,3.0,3.0,0.0,6.0,6.0,500.0376570001208,3.0,1.0,phase_2,go,150.0,250.0,1.0,,,,,,,,,blue,square
0.0,8.0,4.0,1.0,6.0,6.0,403.4798099996806,3.0,1.0,phase_2,go,150.0,250.0,1.0,,,,,,,,,white,I
0.0,2.0,2.0,0.0,6.0,6.0,356.2271829996462,3.0,1.0,phase_2,go,150.0,250.0,1.0,,,,,,,,,cyan,cross
0.0,8.0,4.0,1.0,5.0,0.0,0.0,3.0,1.0,phase_2,stop,150.0,250.0,4.0,,,,,,,,,white,I
0.0,6.0,2.0,1.0,5.0,0.0,0.0,3.0,1.0,phase_2,stop,200.0,250.0,4.0,,,,,,,,,orange,triangle
0.0,4.0,4.0,0.0,6.0,6.0,586.5288469999541,3.0,1.0,phase_2,go,250.0,250.0,1.0,,,,,,,,,green,diamond
0.0,8.0,4.0,1.0,6.0,6.0,336.3392709998152,3.0,1.0,phase_2,stop,250.0,250.0,3.0,,,,,,,,,white,I
0.0,8.0,4.0,1.0,6.0,0.0,0.0,3.0,1.0,phase_2,stop,250.0,200.0,4.0,,,,,,,,,white,I
0.0,8.0,4.0,1.0,6.0,6.0,295.0560340000265,3.0,1.0,phase_2,go,250.0,250.0,1.0,,,,,,,,,white,I
0.0,7.0,3.0,1.0,5.0,0.0,0.0,3.0,1.0,phase_2,stop,250.0,250.0,4.0,,,,,,,,,yellow,circle
0.0,4.0,4.0,0.0,6.0,6.0,526.7725359999531,3.0,1.0,phase_2,go,300.0,250.0,1.0,,,,,,,,,green,diamond
0.0,4.0,4.0,0.0,6.0,6.0,415.1669849998143,3.0,1.0,phase_2,go,300.0,250.0,1.0,,,,,,,,,green,diamond
0.0,3.0,3.0,0.0,5.0,5.0,540.0548259999596,3.0,1.0,phase_2,go,300.0,250.0,1.0,,,,,,,,,blue,square
0.0,7.0,3.0,1.0,5.0,5.0,413.3464830001685,3.0,1.0,phase_2,go,300.0,250.0,1.0,,,,,,,,,yellow,circle
0.0,3.0,3.0,0.0,6.0,6.0,315.9682070004237,3.0,1.0,phase_2,go,300.0,250.0,1.0,,,,,,,,,blue,square
0.0,7.0,3.0,1.0,5.0,5.0,412.554414999704,3.0,1.0,phase_2,stop,300.0,250.0,3.0,,,,,,,,,yellow,circle
0.0,3.0,3.0,0.0,6.0,6.0,330.6414199996652,3.0,1.0,phase_2,go,250.0,250.0,1.0,,,,,,,,,blue,square
0.0,2.0,2.0,0.0,5.0,5.0,400.6944550001208,3.0,1.0,phase_2,go,250.0,250.0,1.0,,,,,,,,,cyan,cross
0.0,6.0,2.0,1.0,5.0,5.0,369.9192829999447,3.0,1.0,phase_2,go,250.0,250.0,1.0,,,,,,,,,orange,triangle
0.0,1.0,1.0,0.0,6.0,6.0,544.1860640003142,3.0,1.0,phase_2,go,250.0,250.0,1.0,,,,,,,,,gray,hexagon
0.0,6.0,2.0,1.0,6.0,0.0,0.0,3.0,1.0,phase_2,stop,250.0,250.0,4.0,,,,,,,,,orange,triangle
0.0,6.0,2.0,1.0,5.0,0.0,0.0,3.0,1.0,phase_2,stop,250.0,300.0,4.0,,,,,,,,,orange,triangle
0.0,5.0,1.0,1.0,6.0,6.0,333.851850999963,3.0,1.0,phase_2,stop,300.0,300.0,3.0,,,,,,,,,magenta,flipped triangle
0.0,2.0,2.0,0.0,5.0,5.0,421.7311789998348,3.0,1.0,phase_2,go,300.0,250.0,1.0,,,,,,,,,cyan,cross
0.0,2.0,2.0,0.0,6.0,6.0,461.3421180001751,3.0,1.0,phase_2,go,300.0,250.0,1.0,,,,,,,,,cyan,cross
0.0,5.0,1.0,1.0,6.0,6.0,358.4919479999371,3.0,1.0,phase_2,go,300.0,250.0,1.0,,,,,,,,,magenta,flipped triangle
0.0,7.0,3.0,1.0,5.0,5.0,427.5198719997206,3.0,1.0,phase_2,stop,300.0,250.0,3.0,,,,,,,,,yellow,circle
0.0,3.0,3.0,0.0,5.0,5.0,437.3693249999633,4.0,1.0,phase_2,go,250.0,250.0,1.0,,,,,,,,,blue,square
0.0,7.0,3.0,1.0,6.0,0.0,0.0,4.0,1.0,phase_2,stop,250.0,250.0,4.0,,,,,,,,,yellow,circle
0.0,6.0,2.0,1.0,5.0,5.0,322.5363060000745,4.0,1.0,phase_2,stop,250.0,300.0,3.0,,,,,,,,,orange,triangle
0.0,2.0,2.0,0.0,6.0,6.0,538.3197539999856,4.0,1.0,phase_2,go,200.0,300.0,1.0,,,,,,,,,cyan,cross
0.0,4.0,4.0,0.0,5.0,5.0,322.9618359996493,4.0,1.0,phase_2,go,200.0,300.0,1.0,,,,,,,,,green,diamond
0.0,2.0,2.0,0.0,5.0,5.0,371.0000170003695,4.0,1.0,phase_2,go,200.0,300.0,1.0,,,,,,,,,cyan,cross
0.0,3.0,3.0,0.0,6.0,6.0,432.123932000195,4.0,1.0,phase_2,go,200.0,300.0,1.0,,,,,,,,,blue,square
0.0,7.0,3.0,1.0,6.0,6.0,401.1563300000489,4.0,1.0,phase_2,stop,200.0,300.0,3.0,,,,,,,,,yellow,circle
0.0,8.0,4.0,1.0,5.0,0.0,0.0,4.0,1.0,phase_2,stop,200.0,250.0,4.0,,,,,,,,,white,I
0.0,1.0,1.0,0.0,6.0,6.0,463.303308000377,4.0,1.0,phase_2,go,250.0,250.0,1.0,,,,,,,,,gray,hexagon
0.0,3.0,3.0,0.0,5.0,5.0,469.6467720000328,4.0,1.0,phase_2,go,250.0,250.0,1.0,,,,,,,,,blue,square
0.0,1.0,1.0,0.0,6.0,6.0,286.3728629999968,4.0,1.0,phase_2,go,250.0,250.0,1.0,,,,,,,,,gray,hexagon
0.0,4.0,4.0,0.0,5.0,5.0,499.531964000198,4.0,1.0,phase_2,go,250.0,250.0,1.0,,,,,,,,,green,diamond
0.0,1.0,1.0,0.0,6.0,6.0,339.1641150001305,4.0,1.0,phase_2,go,250.0,250.0,1.0,,,,,,,,,gray,hexagon
0.0,5.0,1.0,1.0,5.0,5.0,354.6571379997658,4.0,1.0,phase_2,go,250.0,250.0,1.0,,,,,,,,,magenta,flipped triangle
0.0,8.0,4.0,1.0,5.0,5.0,458.556986000076,4.0,1.0,phase_2,go,250.0,250.0,1.0,,,,,,,,,white,I
0.0,3.0,3.0,0.0,5.0,5.0,281.5996310000628,4.0,1.0,phase_2,go,250.0,250.0,1.0,,,,,,,,,blue,square
0.0,1.0,1.0,0.0,6.0,6.0,361.4299050000227,4.0,1.0,phase_2,go,250.0,250.0,1.0,,,,,,,,,gray,hexagon
0.0,6.0,2.0,1.0,6.0,0.0,0.0,4.0,1.0,phase_2,stop,250.0,250.0,4.0,,,,,,,,,orange,triangle
0.0,2.0,2.0,0.0,6.0,6.0,521.7126240004291,4.0,1.0,phase_2,go,250.0,300.0,1.0,,,,,,,,,cyan,cross
0.0,2.0,2.0,0.0,5.0,5.0,431.5243080000073,4.0,1.0,phase_2,go,250.0,300.0,1.0,,,,,,,,,cyan,cross
0.0,5.0,1.0,1.0,5.0,0.0,0.0,4.0,1.0,phase_2,stop,250.0,300.0,4.0,,,,,,,,,magenta,flipped triangle
0.0,3.0,3.0,0.0,5.0,5.0,583.9408849997199,4.0,1.0,phase_2,go,300.0,300.0,1.0,,,,,,,,,blue,square
0.0,3.0,3.0,0.0,6.0,6.0,413.7747210002089,4.0,1.0,phase_2,go,300.0,300.0,1.0,,,,,,,,,blue,square
0.0,1.0,1.0,0.0,5.0,5.0,317.0575320000353,4.0,1.0,phase_2,go,300.0,300.0,1.0,,,,,,,,,gray,hexagon
0.0,2.0,2.0,0.0,6.0,6.0,348.5750400000142,4.0,1.0,phase_2,go,300.0,300.0,1.0,,,,,,,,,cyan,cross
0.0,8.0,4.0,1.0,6.0,6.0,435.399456000141,4.0,1.0,phase_2,stop,300.0,300.0,3.0,,,,,,,,,white,I
0.0,6.0,2.0,1.0,6.0,0.0,0.0,4.0,1.0,phase_2,stop,300.0,250.0,4.0,,,,,,,,,orange,triangle
0.0,6.0,2.0,1.0,6.0,0.0,0.0,4.0,1.0,phase_2,stop,300.0,300.0,4.0,,,,,,,,,orange,triangle
0.0,5.0,1.0,1.0,5.0,5.0,339.6761930002867,4.0,1.0,phase_2,go,300.0,350.0,1.0,,,,,,,,,magenta,flipped triangle
0.0,6.0,2.0,1.0,6.0,6.0,435.5072440002914,4.0,1.0,phase_2,stop,300.0,350.0,3.0,,,,,,,,,orange,triangle
0.0,3.0,3.0,0.0,5.0,5.0,512.4554379999608,4.0,1.0,phase_2,go,300.0,300.0,1.0,,,,,,,,,blue,square
0.0,4.0,4.0,0.0,5.0,5.0,345.9901790001822,4.0,1.0,phase_2,go,300.0,300.0,1.0,,,,,,,,,green,diamond
0.0,5.0,1.0,1.0,6.0,6.0,487.6922050002577,4.0,1.0,phase_2,go,300.0,300.0,1.0,,,,,,,,,magenta,flipped triangle
0.0,1.0,1.0,0.0,5.0,5.0,424.4220149998909,4.0,1.0,phase_2,go,300.0,300.0,1.0,,,,,,,,,gray,hexagon
0.0,8.0,4.0,1.0,5.0,5.0,342.8673030002755,4.0,1.0,phase_2,stop,300.0,300.0,3.0,,,,,,,,,white,I
0.0,3.0,3.0,0.0,5.0,5.0,528.3153069999571,5.0,1.0,phase_2,go,250.0,300.0,1.0,,,,,,,,,blue,square
0.0,2.0,2.0,0.0,6.0,6.0,288.8294530002895,5.0,1.0,phase_2,go,250.0,300.0,1.0,,,,,,,,,cyan,cross
0.0,7.0,3.0,1.0,6.0,6.0,325.0394520000554,5.0,1.0,phase_2,stop,250.0,300.0,3.0,,,,,,,,,yellow,circle
0.0,4.0,4.0,0.0,5.0,5.0,407.8909219997513,5.0,1.0,phase_2,go,250.0,250.0,1.0,,,,,,,,,green,diamond
0.0,5.0,1.0,1.0,6.0,6.0,406.6786590001356,5.0,1.0,phase_2,stop,250.0,250.0,3.0,,,,,,,,,magenta,flipped triangle
0.0,5.0,1.0,1.0,6.0,0.0,0.0,5.0,1.0,phase_2,stop,250.0,200.0,4.0,,,,,,,,,magenta,flipped triangle
0.0,4.0,4.0,0.0,5.0,5.0,452.6671839998926,5.0,1.0,phase_2,go,250.0,250.0,1.0,,,,,,,,,green,diamond
0.0,8.0,4.0,1.0,5.0,5.0,403.9475919998949,5.0,1.0,phase_2,go,250.0,250.0,1.0,,,,,,,,,white,I
0.0,1.0,1.0,0.0,5.0,5.0,435.5482430000847,5.0,1.0,phase_2,go,250.0,250.0,1.0,,,,,,,,,gray,hexagon
0.0,3.0,3.0,0.0,5.0,5.0,476.8011930000284,5.0,1.0,phase_2,go,250.0,250.0,1.0,,,,,,,,,blue,square
0.0,8.0,4.0,1.0,5.0,5.0,347.8126889999657,5.0,1.0,phase_2,stop,250.0,250.0,3.0,,,,,,,,,white,I
0.0,7.0,3.0,1.0,6.0,6.0,384.8233379999328,5.0,1.0,phase_2,stop,200.0,250.0,3.0,,,,,,,,,yellow,circle
0.0,2.0,2.0,0.0,5.0,5.0,440.8249109997086,5.0,1.0,phase_2,go,200.0,200.0,1.0,,,,,,,,,cyan,cross
0.0,7.0,3.0,1.0,5.0,5.0,322.1634450001147,5.0,1.0,phase_2,go,200.0,200.0,1.0,,,,,,,,,yellow,circle
0.0,8.0,4.0,1.0,6.0,0.0,0.0,5.0,1.0,phase_2,stop,200.0,200.0,4.0,,,,,,,,,white,I
0.0,6.0,2.0,1.0,6.0,6.0,574.1454509998221,5.0,1.0,phase_2,go,200.0,250.0,1.0,,,,,,,,,orange,triangle
0.0,1.0,1.0,0.0,5.0,5.0,334.2800979999083,5.0,1.0,phase_2,go,200.0,250.0,1.0,,,,,,,,,gray,hexagon
0.0,2.0,2.0,0.0,5.0,5.0,413.6415400002988,5.0,1.0,phase_2,go,200.0,250.0,1.0,,,,,,,,,cyan,cross
0.0,3.0,3.0,0.0,5.0,5.0,334.6824830000514,5.0,1.0,phase_2,go,200.0,250.0,1.0,,,,,,,,,blue,square
0.0,7.0,3.0,1.0,6.0,0.0,0.0,5.0,1.0,phase_2,stop,200.0,250.0,4.0,,,,,,,,,yellow,circle
0.0,5.0,1.0,1.0,6.0,0.0,0.0,5.0,1.0,phase_2,stop,200.0,300.0,4.0,,,,,,,,,magenta,flipped triangle
0.0,7.0,3.0,1.0,5.0,0.0,0.0,5.0,1.0,phase_2,stop,200.0,350.0,4.0,,,,,,,,,yellow,circle
0.0,6.0,2.0,1.0,5.0,5.0,459.2446350002319,5.0,1.0,phase_2,go,250.0,350.0,1.0,,,,,,,,,orange,triangle
0.0,1.0,1.0,0.0,5.0,5.0,442.2570140000061,5.0,1.0,phase_2,go,250.0,350.0,1.0,,,,,,,,,gray,hexagon
0.0,3.0,3.0,0.0,6.0,6.0,378.8308470002448,5.0,1.0,phase_2,go,250.0,350.0,1.0,,,,,,,,,blue,square
0.0,1.0,1.0,0.0,5.0,5.0,433.5232930002348,5.0,1.0,phase_2,go,250.0,350.0,1.0,,,,,,,,,gray,hexagon
0.0,5.0,1.0,1.0,5.0,0.0,0.0,5.0,1.0,phase_2,stop,250.0,350.0,4.0,,,,,,,,,magenta,flipped triangle
0.0,1.0,1.0,0.0,6.0,6.0,536.794405999899,5.0,1.0,phase_2,go,300.0,350.0,1.0,,,,,,,,,gray,hexagon
0.0,6.0,2.0,1.0,5.0,5.0,462.8517129999636,5.0,1.0,phase_2,stop,300.0,350.0,3.0,,,,,,,,,orange,triangle
0.0,8.0,4.0,1.0,5.0,5.0,502.3262570002771,5.0,1.0,phase_2,go,250.0,350.0,1.0,,,,,,,,,white,I
0.0,5.0,1.0,1.0,5.0,0.0,0.0,5.0,1.0,phase_2,stop,250.0,350.0,4.0,,,,,,,,,magenta,flipped triangle
0.0,8.0,4.0,1.0,6.0,0.0,0.0,5.0,1.0,phase_2,stop,300.0,350.0,4.0,,,,,,,,,white,I
0.0,1.0,1.0,0.0,5.0,5.0,348.4891539997079,5.0,1.0,phase_2,go,300.0,400.0,1.0,,,,,,,,,gray,hexagon
0.0,4.0,4.0,0.0,6.0,6.0,427.2654020001027,5.0,1.0,phase_2,go,300.0,400.0,1.0,,,,,,,,,green,diamond
0.0,7.0,3.0,1.0,6.0,6.0,507.16753400001835,5.0,1.0,phase_2,go,300.0,400.0,1.0,,,,,,,,,yellow,circle
0.0,4.0,4.0,0.0,6.0,6.0,274.0331469999546,5.0,1.0,phase_2,go,300.0,400.0,1.0,,,,,,,,,green,diamond
0.0,3.0,3.0,0.0,5.0,5.0,423.3694269996704,6.0,1.0,phase_2,go,300.0,400.0,1.0,,,,,,,,,blue,square
0.0,1.0,1.0,0.0,5.0,5.0,317.7887840001858,6.0,1.0,phase_2,go,300.0,400.0,1.0,,,,,,,,,gray,hexagon
0.0,8.0,4.0,1.0,5.0,5.0,341.489704000196,6.0,1.0,phase_2,stop,300.0,400.0,3.0,,,,,,,,,white,I
0.0,7.0,3.0,1.0,5.0,0.0,0.0,6.0,1.0,phase_2,stop,250.0,400.0,4.0,,,,,,,,,yellow,circle
0.0,6.0,2.0,1.0,6.0,6.0,500.4260349996912,6.0,1.0,phase_2,stop,300.0,400.0,3.0,,,,,,,,,orange,triangle
0.0,4.0,4.0,0.0,5.0,5.0,548.305973999959,6.0,1.0,phase_2,go,300.0,350.0,1.0,,,,,,,,,green,diamond
0.0,3.0,3.0,0.0,5.0,5.0,436.9236279999313,6.0,1.0,phase_2,go,300.0,350.0,1.0,,,,,,,,,blue,square
0.0,1.0,1.0,0.0,5.0,5.0,516.4899820001665,6.0,1.0,phase_2,go,300.0,350.0,1.0,,,,,,,,,gray,hexagon
0.0,8.0,4.0,1.0,5.0,0.0,0.0,6.0,1.0,phase_2,stop,300.0,350.0,4.0,,,,,,,,,white,I
0.0,8.0,4.0,1.0,6.0,0.0,0.0,6.0,1.0,phase_2,stop,350.0,350.0,4.0,,,,,,,,,white,I
0.0,2.0,2.0,0.0,6.0,6.0,360.5300629997146,6.0,1.0,phase_2,go,350.0,400.0,1.0,,,,,,,,,cyan,cross
0.0,8.0,4.0,1.0,5.0,5.0,490.0571590001163,6.0,1.0,phase_2,stop,350.0,400.0,3.0,,,,,,,,,white,I
0.0,7.0,3.0,1.0,5.0,5.0,455.3686949998337,6.0,1.0,phase_2,go,300.0,400.0,1.0,,,,,,,,,yellow,circle
0.0,1.0,1.0,0.0,6.0,6.0,520.7511889998386,6.0,1.0,phase_2,go,300.0,400.0,1.0,,,,,,,,,gray,hexagon
0.0,5.0,1.0,1.0,6.0,0.0,0.0,6.0,1.0,phase_2,stop,300.0,400.0,4.0,,,,,,,,,magenta,flipped triangle
0.0,6.0,2.0,1.0,6.0,0.0,0.0,6.0,1.0,phase_2,stop,300.0,450.0,4.0,,,,,,,,,orange,triangle
0.0,3.0,3.0,0.0,5.0,5.0,318.6154919999353,6.0,1.0,phase_2,go,300.0,500.0,1.0,,,,,,,,,blue,square
0.0,6.0,2.0,1.0,5.0,0.0,0.0,6.0,1.0,phase_2,stop,300.0,500.0,4.0,,,,,,,,,orange,triangle
0.0,5.0,1.0,1.0,6.0,6.0,387.7490319996468,6.0,1.0,phase_2,stop,350.0,500.0,3.0,,,,,,,,,magenta,flipped triangle
0.0,4.0,4.0,0.0,5.0,5.0,643.5850369998661,6.0,1.0,phase_2,go,350.0,450.0,1.0,,,,,,,,,green,diamond
0.0,7.0,3.0,1.0,6.0,6.0,540.7189239999752,6.0,1.0,phase_2,stop,350.0,450.0,3.0,,,,,,,,,yellow,circle
0.0,5.0,1.0,1.0,5.0,0.0,0.0,6.0,1.0,phase_2,stop,350.0,400.0,4.0,,,,,,,,,magenta,flipped triangle
0.0,2.0,2.0,0.0,6.0,6.0,402.9880160001085,6.0,1.0,phase_2,go,400.0,400.0,1.0,,,,,,,,,cyan,cross
0.0,8.0,4.0,1.0,6.0,0.0,0.0,6.0,1.0,phase_2,stop,400.0,400.0,4.0,,,,,,,,,white,I
0.0,6.0,2.0,1.0,5.0,5.0,442.4711970000317,6.0,1.0,phase_2,stop,400.0,450.0,3.0,,,,,,,,,orange,triangle
0.0,6.0,2.0,1.0,5.0,0.0,0.0,6.0,1.0,phase_2,stop,350.0,450.0,4.0,,,,,,,,,orange,triangle
0.0,4.0,4.0,0.0,6.0,6.0,384.8670200000015,6.0,1.0,phase_2,go,400.0,450.0,1.0,,,,,,,,,green,diamond
0.0,4.0,4.0,0.0,6.0,6.0,463.3100290002403,6.0,1.0,phase_2,go,400.0,450.0,1.0,,,,,,,,,green,diamond
0.0,2.0,2.0,0.0,6.0,6.0,367.6919330000601,6.0,1.0,phase_2,go,400.0,450.0,1.0,,,,,,,,,cyan,cross
0.0,6.0,2.0,1.0,5.0,5.0,631.0112360001767,6.0,1.0,phase_2,go,400.0,450.0,1.0,,,,,,,,,orange,triangle
0.0,4.0,4.0,0.0,5.0,5.0,454.4525589999466,6.0,1.0,phase_2,go,400.0,450.0,1.0,,,,,,,,,green,diamond
0.0,3.0,3.0,0.0,6.0,6.0,308.2865470000797,6.0,1.0,phase_2,go,400.0,450.0,1.0,,,,,,,,,blue,square
0.0,5.0,1.0,1.0,6.0,6.0,586.8310769997152,6.0,1.0,phase_2,stop,400.0,450.0,3.0,,,,,,,,,magenta,flipped triangle
0.0,7.0,3.0,1.0,5.0,5.0,467.4357290000444,6.0,1.0,phase_2,stop,400.0,400.0,3.0,,,,,,,,,yellow,circle
0.0,1.0,1.0,0.0,5.0,5.0,546.3069570000698,6.0,1.0,phase_2,go,350.0,400.0,1.0,,,,,,,,,gray,hexagon
0.0,3.0,3.0,0.0,5.0,5.0,507.33714199986935,6.0,1.0,phase_2,go,350.0,400.0,1.0,,,,,,,,,blue,square
0.0,4.0,4.0,0.0,6.0,6.0,364.168712999799,7.0,1.0,phase_2,go,350.0,400.0,1.0,,,,,,,,,green,diamond
0.0,4.0,4.0,0.0,6.0,6.0,348.2716250000521,7.0,1.0,phase_2,go,350.0,400.0,1.0,,,,,,,,,green,diamond
0.0,4.0,4.0,0.0,6.0,6.0,289.1544179997254,7.0,1.0,phase_2,go,350.0,400.0,1.0,,,,,,,,,green,diamond
0.0,1.0,1.0,0.0,5.0,5.0,336.5040950002367,7.0,1.0,phase_2,go,350.0,400.0,1.0,,,,,,,,,gray,hexagon
0.0,2.0,2.0,0.0,6.0,6.0,258.1193729993174,7.0,1.0,phase_2,go,350.0,400.0,1.0,,,,,,,,,cyan,cross
0.0,7.0,3.0,1.0,6.0,6.0,280.1175490003516,7.0,1.0,phase_2,go,350.0,400.0,1.0,,,,,,,,,yellow,circle
0.0,6.0,2.0,1.0,5.0,5.0,279.3493429999216,7.0,1.0,phase_2,stop,350.0,400.0,3.0,,,,,,,,,orange,triangle
0.0,2.0,2.0,0.0,6.0,6.0,336.2609870000597,7.0,1.0,phase_2,go,300.0,400.0,1.0,,,,,,,,,cyan,cross
0.0,8.0,4.0,1.0,6.0,6.0,286.9509560005099,7.0,1.0,phase_2,stop,300.0,400.0,3.0,,,,,,,,,white,I
0.0,7.0,3.0,1.0,5.0,0.0,0.0,7.0,1.0,phase_2,stop,300.0,350.0,4.0,,,,,,,,,yellow,circle
0.0,3.0,3.0,0.0,5.0,5.0,414.0690020003603,7.0,1.0,phase_2,go,350.0,350.0,1.0,,,,,,,,,blue,square
0.0,6.0,2.0,1.0,5.0,0.0,0.0,7.0,1.0,phase_2,stop,350.0,350.0,4.0,,,,,,,,,orange,triangle
0.0,3.0,3.0,0.0,6.0,6.0,372.6634599997851,7.0,1.0,phase_2,go,400.0,350.0,1.0,,,,,,,,,blue,square
0.0,4.0,4.0,0.0,5.0,5.0,332.8009709994148,7.0,1.0,phase_2,go,400.0,350.0,1.0,,,,,,,,,green,diamond
0.0,5.0,1.0,1.0,6.0,6.0,412.8331780002554,7.0,1.0,phase_2,stop,400.0,350.0,3.0,,,,,,,,,magenta,flipped triangle
0.0,2.0,2.0,0.0,5.0,5.0,592.8530660003162,7.0,1.0,phase_2,go,400.0,300.0,1.0,,,,,,,,,cyan,cross
0.0,3.0,3.0,0.0,6.0,6.0,496.9146749999709,7.0,1.0,phase_2,go,400.0,300.0,1.0,,,,,,,,,blue,square
0.0,2.0,2.0,0.0,5.0,5.0,759.8903069992957,7.0,1.0,phase_2,go,400.0,300.0,1.0,,,,,,,,,cyan,cross
0.0,2.0,2.0,0.0,5.0,5.0,424.0059800004019,7.0,1.0,phase_2,go,400.0,300.0,1.0,,,,,,,,,cyan,cross
0.0,5.0,1.0,1.0,5.0,5.0,895.6750039997132,7.0,1.0,phase_2,go,400.0,300.0,1.0,,,,,,,,,magenta,flipped triangle
0.0,6.0,2.0,1.0,6.0,0.0,0.0,7.0,1.0,phase_2,stop,400.0,300.0,4.0,,,,,,,,,orange,triangle
0.0,3.0,3.0,0.0,6.0,6.0,503.5225170004196,7.0,1.0,phase_2,go,400.0,350.0,1.0,,,,,,,,,blue,square
0.0,7.0,3.0,1.0,6.0,0.0,0.0,7.0,1.0,phase_2,stop,400.0,350.0,4.0,,,,,,,,,yellow,circle
0.0,4.0,4.0,0.0,6.0,6.0,670.9093480003503,7.0,1.0,phase_2,go,400.0,400.0,1.0,,,,,,,,,green,diamond
0.0,8.0,4.0,1.0,6.0,0.0,0.0,7.0,1.0,phase_2,stop,400.0,400.0,4.0,,,,,,,,,white,I
0.0,7.0,3.0,1.0,6.0,0.0,0.0,7.0,1.0,phase_2,stop,400.0,450.0,4.0,,,,,,,,,yellow,circle
0.0,3.0,3.0,0.0,6.0,6.0,484.9184589993456,7.0,1.0,phase_2,go,400.0,500.0,1.0,,,,,,,,,blue,square
0.0,1.0,1.0,0.0,6.0,6.0,523.8402869999845,7.0,1.0,phase_2,go,400.0,500.0,1.0,,,,,,,,,gray,hexagon
0.0,5.0,1.0,1.0,6.0,0.0,0.0,7.0,1.0,phase_2,stop,400.0,500.0,4.0,,,,,,,,,magenta,flipped triangle
0.0,1.0,1.0,0.0,5.0,5.0,569.3544209998436,7.0,1.0,phase_2,go,400.0,550.0,1.0,,,,,,,,,gray,hexagon
0.0,2.0,2.0,0.0,5.0,5.0,424.5299559997875,7.0,1.0,phase_2,go,400.0,550.0,1.0,,,,,,,,,cyan,cross
0.0,5.0,1.0,1.0,5.0,0.0,0.0,7.0,1.0,phase_2,stop,400.0,550.0,4.0,,,,,,,,,magenta,flipped triangle
0.0,3.0,3.0,0.0,5.0,5.0,527.7962390000539,7.0,1.0,phase_2,go,450.0,550.0,1.0,,,,,,,,,blue,square
0.0,7.0,3.0,1.0,5.0,0.0,0.0,7.0,1.0,phase_2,stop,450.0,550.0,4.0,,,,,,,,,yellow,circle
0.0,8.0,4.0,1.0,6.0,6.0,799.2930880000131,7.0,1.0,phase_2,go,500.0,550.0,1.0,,,,,,,,,white,I
0.0,3.0,3.0,0.0,6.0,6.0,508.62044600035006,7.0,1.0,phase_2,go,500.0,550.0,1.0,,,,,,,,,blue,square
0.0,7.0,3.0,1.0,5.0,5.0,318.5790269999415,8.0,1.0,phase_2,stop,500.0,550.0,3.0,,,,,,,,,yellow,circle
0.0,2.0,2.0,0.0,5.0,5.0,479.1259670000727,8.0,1.0,phase_2,go,450.0,550.0,1.0,,,,,,,,,cyan,cross
0.0,7.0,3.0,1.0,6.0,6.0,381.6093010000259,8.0,1.0,phase_2,stop,450.0,550.0,3.0,,,,,,,,,yellow,circle
0.0,5.0,1.0,1.0,6.0,6.0,933.676038000158,8.0,1.0,phase_2,go,450.0,500.0,1.0,,,,,,,,,magenta,flipped triangle
0.0,6.0,2.0,1.0,6.0,0.0,0.0,8.0,1.0,phase_2,stop,450.0,500.0,4.0,,,,,,,,,orange,triangle
0.0,7.0,3.0,1.0,5.0,5.0,692.2583269997631,8.0,1.0,phase_2,go,450.0,550.0,1.0,,,,,,,,,yellow,circle
0.0,1.0,1.0,0.0,5.0,5.0,339.6327020000171,8.0,1.0,phase_2,go,450.0,550.0,1.0,,,,,,,,,gray,hexagon
0.0,5.0,1.0,1.0,5.0,5.0,387.5467180005216,8.0,1.0,phase_2,stop,450.0,550.0,3.0,,,,,,,,,magenta,flipped triangle
0.0,4.0,4.0,0.0,6.0,6.0,442.6082899999528,8.0,1.0,phase_2,go,400.0,550.0,1.0,,,,,,,,,green,diamond
0.0,6.0,2.0,1.0,5.0,5.0,457.4779679996936,8.0,1.0,phase_2,stop,400.0,550.0,3.0,,,,,,,,,orange,triangle
0.0,7.0,3.0,1.0,5.0,5.0,730.6829190001736,8.0,1.0,phase_2,go,350.0,550.0,1.0,,,,,,,,,yellow,circle
0.0,2.0,2.0,0.0,5.0,5.0,450.4303880003135,8.0,1.0,phase_2,go,350.0,550.0,1.0,,,,,,,,,cyan,cross
0.0,8.0,4.0,1.0,5.0,5.0,433.3859600001233,8.0,1.0,phase_2,stop,350.0,550.0,3.0,,,,,,,,,white,I
0.0,3.0,3.0,0.0,6.0,6.0,550.8351459993719,8.0,1.0,phase_2,go,300.0,550.0,1.0,,,,,,,,,blue,square
0.0,4.0,4.0,0.0,5.0,5.0,511.08711500000936,8.0,1.0,phase_2,go,300.0,550.0,1.0,,,,,,,,,green,diamond
0.0,1.0,1.0,0.0,6.0,6.0,439.3472520005161,8.0,1.0,phase_2,go,300.0,550.0,1.0,,,,,,,,,gray,hexagon
0.0,1.0,1.0,0.0,6.0,6.0,397.6571909997801,8.0,1.0,phase_2,go,300.0,550.0,1.0,,,,,,,,,gray,hexagon
0.0,6.0,2.0,1.0,5.0,5.0,749.0556020002259,8.0,1.0,phase_2,go,300.0,550.0,1.0,,,,,,,,,orange,triangle
0.0,5.0,1.0,1.0,5.0,5.0,733.6380829992777,8.0,1.0,phase_2,go,300.0,550.0,1.0,,,,,,,,,magenta,flipped triangle
0.0,2.0,2.0,0.0,5.0,5.0,499.8312509997049,8.0,1.0,phase_2,go,300.0,550.0,1.0,,,,,,,,,cyan,cross
0.0,1.0,1.0,0.0,6.0,6.0,498.7594510002964,8.0,1.0,phase_2,go,300.0,550.0,1.0,,,,,,,,,gray,hexagon
0.0,7.0,3.0,1.0,5.0,0.0,0.0,8.0,1.0,phase_2,stop,300.0,550.0,4.0,,,,,,,,,yellow,circle
0.0,5.0,1.0,1.0,6.0,6.0,754.3150340006832,8.0,1.0,phase_2,go,350.0,550.0,1.0,,,,,,,,,magenta,flipped triangle
0.0,7.0,3.0,1.0,6.0,6.0,698.1346849997863,8.0,1.0,phase_2,stop,350.0,550.0,3.0,,,,,,,,,yellow,circle
0.0,7.0,3.0,1.0,6.0,0.0,0.0,8.0,1.0,phase_2,stop,350.0,500.0,4.0,,,,,,,,,yellow,circle
0.0,6.0,2.0,1.0,5.0,5.0,728.0674240000735,8.0,1.0,phase_2,go,350.0,550.0,1.0,,,,,,,,,orange,triangle
0.0,8.0,4.0,1.0,5.0,0.0,0.0,8.0,1.0,phase_2,stop,350.0,550.0,4.0,,,,,,,,,white,I
0.0,8.0,4.0,1.0,6.0,0.0,0.0,8.0,1.0,phase_2,stop,400.0,550.0,4.0,,,,,,,,,white,I
0.0,5.0,1.0,1.0,6.0,0.0,0.0,8.0,1.0,phase_2,stop,400.0,600.0,4.0,,,,,,,,,magenta,flipped triangle
0.0,8.0,4.0,1.0,6.0,6.0,973.598483999922,8.0,1.0,phase_2,go,400.0,650.0,1.0,,,,,,,,,white,I
0.0,5.0,1.0,1.0,5.0,0.0,0.0,8.0,1.0,phase_2,stop,400.0,650.0,4.0,,,,,,,,,magenta,flipped triangle
0.0,2.0,2.0,0.0,5.0,5.0,477.7574629997616,8.0,1.0,phase_2,go,450.0,650.0,1.0,,,,,,,,,cyan,cross
0.0,1.0,1.0,0.0,5.0,5.0,403.7333340002078,8.0,1.0,phase_2,go,450.0,650.0,1.0,,,,,,,,,gray,hexagon
0.0,2.0,2.0,0.0,6.0,6.0,476.5563959999781,8.0,1.0,phase_2,go,450.0,650.0,1.0,,,,,,,,,cyan,cross
0.0,4.0,4.0,0.0,6.0,6.0,442.1184479997464,8.0,1.0,phase_2,go,450.0,650.0,1.0,,,,,,,,,green,diamond
0.0,2.0,2.0,0.0,6.0,6.0,369.5572729993728,8.0,1.0,phase_2,go,450.0,650.0,1.0,,,,,,,,,cyan,cross
0.0,2.0,2.0,0.0,7.0,4.0,3123.3227829998214,1.0,3.0,phase_3,,,,,308.0,2.0,154.0,924.0,770.0,308.0,616.0,462.0,cyan,cross
0.0,5.0,1.0,1.0,7.0,4.0,3412.470846999895,1.0,1.0,phase_3,,,,,154.0,1.0,308.0,770.0,924.0,154.0,616.0,462.0,magenta,flipped triangle
0.0,7.0,3.0,1.0,7.0,5.0,3044.4837380000536,1.0,1.0,phase_3,,,,,519.0,3.0,1038.0,865.0,346.0,173.0,519.0,692.0,yellow,circle
0.0,3.0,3.0,0.0,7.0,5.0,3013.2764789996145,1.0,1.0,phase_3,,,,,616.0,4.0,154.0,308.0,924.0,770.0,616.0,462.0,blue,square
0.0,2.0,2.0,0.0,7.0,4.0,2894.6918490000826,1.0,1.0,phase_3,,,,,865.0,5.0,692.0,519.0,173.0,865.0,1038.0,346.0,cyan,cross
0.0,6.0,2.0,1.0,7.0,3.0,3568.4541580003497,1.0,1.0,phase_3,,,,,270.0,2.0,675.0,540.0,270.0,135.0,810.0,405.0,orange,triangle
0.0,7.0,3.0,1.0,7.0,4.0,2297.4108429998523,1.0,1.0,phase_3,,,,,464.0,4.0,232.0,580.0,116.0,464.0,696.0,348.0,yellow,circle
0.0,8.0,4.0,1.0,7.0,1.0,3866.338913000618,1.0,1.0,phase_3,,,,,384.0,2.0,384.0,192.0,768.0,576.0,960.0,1152.0,white,I
0.0,8.0,4.0,1.0,7.0,4.0,2571.801960999437,1.0,1.0,phase_3,,,,,346.0,2.0,865.0,173.0,692.0,346.0,1038.0,519.0,white,I
0.0,1.0,1.0,0.0,7.0,6.0,2740.3126609997344,1.0,1.0,phase_3,,,,,154.0,1.0,770.0,462.0,616.0,924.0,308.0,154.0,gray,hexagon
0.0,6.0,2.0,1.0,7.0,3.0,4733.758407000096,1.0,1.0,phase_3,,,,,346.0,2.0,692.0,173.0,346.0,865.0,1038.0,519.0,orange,triangle
0.0,5.0,1.0,1.0,7.0,4.0,3233.320612999705,1.0,1.0,phase_3,,,,,580.0,5.0,348.0,696.0,116.0,580.0,232.0,464.0,magenta,flipped triangle
0.0,7.0,3.0,1.0,7.0,4.0,2426.8374470002527,1.0,1.0,phase_3,,,,,462.0,3.0,616.0,770.0,154.0,462.0,308.0,924.0,yellow,circle
0.0,6.0,2.0,1.0,7.0,2.0,1921.485359000144,1.0,1.0,phase_3,,,,,519.0,3.0,346.0,519.0,865.0,692.0,173.0,1038.0,orange,triangle
0.0,4.0,4.0,0.0,7.0,1.0,2285.424622999926,1.0,1.0,phase_3,,,,,960.0,5.0,960.0,1152.0,576.0,192.0,768.0,384.0,green,diamond
0.0,5.0,1.0,1.0,7.0,3.0,3187.66991099983,1.0,1.0,phase_3,,,,,770.0,5.0,462.0,924.0,770.0,308.0,154.0,616.0,magenta,flipped triangle
0.0,4.0,4.0,0.0,7.0,5.0,2013.3524590000889,1.0,1.0,phase_3,,,,,1152.0,6.0,384.0,768.0,960.0,192.0,1152.0,576.0,green,diamond
0.0,7.0,3.0,1.0,7.0,3.0,3023.656383000344,1.0,1.0,phase_3,,,,,346.0,2.0,1038.0,519.0,346.0,865.0,173.0,692.0,yellow,circle
0.0,3.0,3.0,0.0,7.0,2.0,1617.0371090001936,1.0,1.0,phase_3,,,,,576.0,3.0,768.0,576.0,384.0,192.0,960.0,1152.0,blue,square
0.0,4.0,4.0,0.0,7.0,5.0,1585.1569040005415,1.0,1.0,phase_3,,,,,1038.0,6.0,519.0,173.0,346.0,692.0,1038.0,865.0,green,diamond
0.0,7.0,3.0,1.0,7.0,3.0,1627.242677999675,2.0,1.0,phase_3,,,,,384.0,2.0,768.0,1152.0,384.0,960.0,576.0,192.0,yellow,circle
0.0,4.0,4.0,0.0,7.0,5.0,2059.859213999516,2.0,1.0,phase_3,,,,,770.0,5.0,462.0,616.0,924.0,308.0,770.0,154.0,green,diamond
0.0,4.0,4.0,0.0,7.0,3.0,1951.5146309995544,2.0,1.0,phase_3,,,,,924.0,6.0,616.0,308.0,924.0,462.0,154.0,770.0,green,diamond
0.0,6.0,2.0,1.0,7.0,2.0,1529.0658049998456,2.0,1.0,phase_3,,,,,540.0,4.0,810.0,540.0,675.0,270.0,405.0,135.0,orange,triangle
0.0,8.0,4.0,1.0,7.0,4.0,2287.8676299997096,2.0,1.0,phase_3,,,,,696.0,6.0,348.0,116.0,464.0,696.0,580.0,232.0,white,I
0.0,7.0,3.0,1.0,7.0,2.0,1217.6372320000155,2.0,1.0,phase_3,,,,,576.0,3.0,768.0,576.0,1152.0,192.0,384.0,960.0,yellow,circle
0.0,7.0,3.0,1.0,7.0,1.0,1875.8890920007616,2.0,1.0,phase_3,,,,,405.0,3.0,405.0,540.0,675.0,270.0,810.0,135.0,yellow,circle
0.0,5.0,1.0,1.0,7.0,5.0,2229.014133000419,2.0,1.0,phase_3,,,,,540.0,4.0,405.0,135.0,810.0,270.0,540.0,675.0,magenta,flipped triangle
0.0,6.0,2.0,1.0,7.0,2.0,2362.511772999824,2.0,1.0,phase_3,,,,,192.0,1.0,768.0,192.0,384.0,1152.0,960.0,576.0,orange,triangle
0.0,3.0,3.0,0.0,7.0,1.0,1430.7246709995525,2.0,1.0,phase_3,,,,,616.0,4.0,616.0,924.0,770.0,462.0,154.0,308.0,blue,square
0.0,4.0,4.0,0.0,7.0,2.0,3095.6287910003084,2.0,1.0,phase_3,,,,,696.0,6.0,580.0,696.0,464.0,348.0,116.0,232.0,green,diamond
0.0,1.0,1.0,0.0,7.0,3.0,2146.4438710008835,2.0,1.0,phase_3,,,,,270.0,2.0,135.0,675.0,270.0,810.0,540.0,405.0,gray,hexagon
0.0,2.0,2.0,0.0,7.0,2.0,1395.7514699995954,2.0,1.0,phase_3,,,,,576.0,3.0,960.0,576.0,768.0,192.0,1152.0,384.0,cyan,cross
0.0,8.0,4.0,1.0,7.0,3.0,1973.5247950002304,2.0,1.0,phase_3,,,,,540.0,4.0,135.0,810.0,540.0,675.0,405.0,270.0,white,I
0.0,1.0,1.0,0.0,7.0,2.0,2028.8549950000743,2.0,1.0,phase_3,,,,,384.0,2.0,192.0,384.0,768.0,1152.0,960.0,576.0,gray,hexagon
0.0,1.0,1.0,0.0,7.0,2.0,1077.950281000085,2.0,1.0,phase_3,,,,,348.0,3.0,580.0,348.0,696.0,116.0,232.0,464.0,gray,hexagon
0.0,6.0,2.0,1.0,7.0,4.0,1520.9858039997926,2.0,1.0,phase_3,,,,,580.0,5.0,348.0,232.0,464.0,580.0,696.0,116.0,orange,triangle
0.0,8.0,4.0,1.0,7.0,5.0,2383.994155999972,2.0,1.0,phase_3,,,,,519.0,3.0,692.0,346.0,173.0,865.0,519.0,1038.0,white,I
0.0,5.0,1.0,1.0,7.0,2.0,1793.035271000008,2.0,1.0,phase_3,,,,,519.0,3.0,1038.0,519.0,692.0,865.0,346.0,173.0,magenta,flipped triangle
0.0,5.0,1.0,1.0,7.0,1.0,2202.625437000279,2.0,1.0,phase_3,,,,,519.0,3.0,519.0,346.0,1038.0,173.0,692.0,865.0,magenta,flipped triangle
0.0,3.0,3.0,0.0,7.0,1.0,959.7766189999676,3.0,1.0,phase_3,,,,,580.0,5.0,580.0,232.0,696.0,116.0,348.0,464.0,blue,square
0.0,8.0,4.0,1.0,7.0,5.0,1919.3691120008225,3.0,1.0,phase_3,,,,,540.0,4.0,270.0,675.0,405.0,135.0,540.0,810.0,white,I
0.0,4.0,4.0,0.0,7.0,1.0,2039.2307909996816,3.0,1.0,phase_3,,,,,696.0,6.0,696.0,464.0,232.0,116.0,580.0,348.0,green,diamond
0.0,4.0,4.0,0.0,7.0,1.0,1339.0349030005382,3.0,1.0,phase_3,,,,,810.0,6.0,810.0,675.0,405.0,540.0,270.0,135.0,green,diamond
0.0,3.0,3.0,0.0,7.0,5.0,2337.353281000105,3.0,1.0,phase_3,,,,,865.0,5.0,692.0,173.0,346.0,519.0,865.0,1038.0,blue,square
0.0,5.0,1.0,1.0,7.0,1.0,2475.379245000113,3.0,1.0,phase_3,,,,,232.0,2.0,232.0,464.0,580.0,696.0,348.0,116.0,magenta,flipped triangle
0.0,1.0,1.0,0.0,7.0,4.0,2213.399276999553,3.0,1.0,phase_3,,,,,270.0,2.0,540.0,675.0,810.0,270.0,135.0,405.0,gray,hexagon
0.0,4.0,4.0,0.0,7.0,2.0,1621.9374800002695,3.0,1.0,phase_3,,,,,692.0,4.0,1038.0,692.0,173.0,346.0,519.0,865.0,green,diamond
0.0,3.0,3.0,0.0,7.0,2.0,2553.595098000187,3.0,1.0,phase_3,,,,,576.0,3.0,1152.0,576.0,960.0,192.0,768.0,384.0,blue,square
0.0,7.0,3.0,1.0,7.0,3.0,1935.8826529996804,3.0,1.0,phase_3,,,,,232.0,2.0,696.0,348.0,232.0,580.0,464.0,116.0,yellow,circle
0.0,8.0,4.0,1.0,7.0,2.0,1243.5019960003046,3.0,1.0,phase_3,,,,,696.0,6.0,464.0,696.0,580.0,232.0,116.0,348.0,white,I
0.0,3.0,3.0,0.0,7.0,4.0,2714.2091369996706,3.0,1.0,phase_3,,,,,692.0,4.0,173.0,519.0,865.0,692.0,346.0,1038.0,blue,square
0.0,2.0,2.0,0.0,7.0,2.0,1956.3523350007015,3.0,1.0,phase_3,,,,,270.0,2.0,540.0,270.0,405.0,675.0,135.0,810.0,cyan,cross
0.0,3.0,3.0,0.0,7.0,5.0,2444.82866099952,3.0,1.0,phase_3,,,,,675.0,5.0,405.0,135.0,540.0,270.0,675.0,810.0,blue,square
0.0,5.0,1.0,1.0,7.0,6.0,2757.8280999996423,3.0,1.0,phase_3,,,,,384.0,2.0,192.0,960.0,576.0,768.0,1152.0,384.0,magenta,flipped triangle
0.0,2.0,2.0,0.0,7.0,4.0,3167.432383999767,3.0,1.0,phase_3,,,,,519.0,3.0,865.0,1038.0,692.0,519.0,173.0,346.0,cyan,cross
0.0,8.0,4.0,1.0,7.0,6.0,2168.723396999667,3.0,1.0,phase_3,,,,,462.0,3.0,616.0,770.0,154.0,308.0,924.0,462.0,white,I
0.0,1.0,1.0,0.0,7.0,3.0,2594.4592359992384,3.0,1.0,phase_3,,,,,154.0,1.0,924.0,308.0,154.0,616.0,462.0,770.0,gray,hexagon
0.0,8.0,4.0,1.0,7.0,1.0,4557.326936000209,3.0,1.0,phase_3,,,,,576.0,3.0,576.0,960.0,768.0,384.0,1152.0,192.0,white,I
0.0,3.0,3.0,0.0,7.0,4.0,3564.7911979995115,3.0,1.0,phase_3,,,,,464.0,4.0,348.0,116.0,232.0,464.0,580.0,696.0,blue,square
0.0,2.0,2.0,0.0,7.0,5.0,1843.84235700054,4.0,1.0,phase_3,,,,,348.0,3.0,232.0,696.0,116.0,464.0,348.0,580.0,cyan,cross
0.0,8.0,4.0,1.0,7.0,2.0,2349.525859000096,4.0,1.0,phase_3,,,,,616.0,4.0,770.0,616.0,154.0,462.0,924.0,308.0,white,I
0.0,7.0,3.0,1.0,7.0,4.0,2031.122879000577,4.0,1.0,phase_3,,,,,462.0,3.0,924.0,154.0,616.0,462.0,770.0,308.0,yellow,circle
0.0,7.0,3.0,1.0,7.0,1.0,2336.626903999786,4.0,1.0,phase_3,,,,,405.0,3.0,405.0,135.0,810.0,270.0,540.0,675.0,yellow,circle
0.0,1.0,1.0,0.0,7.0,2.0,1673.347953999837,4.0,1.0,phase_3,,,,,173.0,1.0,692.0,173.0,346.0,1038.0,865.0,519.0,gray,hexagon
0.0,4.0,4.0,0.0,7.0,2.0,2364.8613489995114,4.0,1.0,phase_3,,,,,675.0,5.0,405.0,675.0,810.0,540.0,270.0,135.0,green,diamond
0.0,6.0,2.0,1.0,7.0,4.0,3022.0258019999164,4.0,1.0,phase_3,,,,,308.0,2.0,924.0,462.0,770.0,308.0,154.0,616.0,orange,triangle
0.0,2.0,2.0,0.0,7.0,2.0,1645.502602000306,4.0,1.0,phase_3,,,,,384.0,2.0,768.0,384.0,1152.0,192.0,960.0,576.0,cyan,cross
0.0,6.0,2.0,1.0,7.0,1.0,2872.68409599983,4.0,1.0,phase_3,,,,,384.0,2.0,384.0,768.0,960.0,192.0,576.0,1152.0,orange,triangle
0.0,1.0,1.0,0.0,7.0,6.0,2009.3380259995683,4.0,1.0,phase_3,,,,,173.0,1.0,346.0,1038.0,692.0,519.0,865.0,173.0,gray,hexagon
0.0,2.0,2.0,0.0,7.0,2.0,2075.509568000598,4.0,1.0,phase_3,,,,,232.0,2.0,580.0,232.0,464.0,348.0,116.0,696.0,cyan,cross
0.0,6.0,2.0,1.0,7.0,2.0,802.7321829995344,4.0,1.0,phase_3,,,,,348.0,3.0,580.0,348.0,116.0,696.0,232.0,464.0,orange,triangle
0.0,6.0,2.0,1.0,7.0,5.0,1811.4479819996632,4.0,1.0,phase_3,,,,,154.0,1.0,616.0,462.0,770.0,308.0,154.0,924.0,orange,triangle
0.0,2.0,2.0,0.0,7.0,1.0,2783.70769599951,4.0,1.0,phase_3,,,,,462.0,3.0,462.0,616.0,770.0,154.0,924.0,308.0,cyan,cross
0.0,1.0,1.0,0.0,7.0,4.0,1937.075539000034,4.0,1.0,phase_3,,,,,384.0,2.0,192.0,576.0,768.0,384.0,1152.0,960.0,gray,hexagon
0.0,2.0,2.0,0.0,7.0,3.0,4127.9300109999895,4.0,1.0,phase_3,,,,,405.0,3.0,135.0,810.0,405.0,270.0,540.0,675.0,cyan,cross
0.0,5.0,1.0,1.0,7.0,5.0,4272.90834500036,4.0,1.0,phase_3,,,,,675.0,5.0,270.0,135.0,810.0,405.0,675.0,540.0,magenta,flipped triangle
0.0,1.0,1.0,0.0,7.0,4.0,2692.4548249999134,4.0,1.0,phase_3,,,,,232.0,2.0,580.0,116.0,464.0,232.0,696.0,348.0,gray,hexagon
0.0,5.0,1.0,1.0,7.0,1.0,2925.650868000048,4.0,1.0,phase_3,,,,,384.0,2.0,384.0,1152.0,192.0,960.0,768.0,576.0,magenta,flipped triangle
0.0,3.0,3.0,0.0,7.0,2.0,3969.550986999821,4.0,1.0,phase_3,,,,,405.0,3.0,540.0,405.0,270.0,135.0,675.0,810.0,blue,square
